onset	duration	trial_type	sample	stim_file	subject	experiment	session	trial	item_name	item_num	list	answer	test_x	test_y	test_z
222.83642578125	n/a	SESS_START	456369	n/a	LTP339	ltpFR2	21	n/a	n/a	n/a	n/a	n/a	0	0	0
234.84375	n/a	START	480960	n/a	LTP339	ltpFR2	21	n/a	n/a	n/a	-1	n/a	n/a	n/a	n/a
234.875	n/a	PROB	481024	n/a	LTP339	ltpFR2	21	n/a	n/a	n/a	-1	25	9	8	8
236.9150390625	n/a	PROB	485202	n/a	LTP339	ltpFR2	21	n/a	n/a	n/a	-1	20	7	9	4
238.98779296875	n/a	PROB	489447	n/a	LTP339	ltpFR2	21	n/a	n/a	n/a	-1	13	8	4	1
241.81396484375	n/a	PROB	495235	n/a	LTP339	ltpFR2	21	n/a	n/a	n/a	-1	17	8	1	8
243.28466796875	n/a	PROB	498247	n/a	LTP339	ltpFR2	21	n/a	n/a	n/a	-1	14	9	3	2
246.84375	n/a	STOP	505536	n/a	LTP339	ltpFR2	21	n/a	n/a	n/a	-1	n/a	n/a	n/a	n/a
273.8828125	n/a	WORD	560912	wordpools/wasnorm_wordpool_576.txt	LTP339	ltpFR2	21	1	BLENDER	136	n/a	n/a	0	0	0
276.35791015625	n/a	WORD	565981	wordpools/wasnorm_wordpool_576.txt	LTP339	ltpFR2	21	1	ORANGE	980	n/a	n/a	0	0	0
278.9326171875	n/a	WORD	571254	wordpools/wasnorm_wordpool_576.txt	LTP339	ltpFR2	21	1	GOBLIN	645	n/a	n/a	0	0	0
281.57568359375	n/a	WORD	576667	wordpools/wasnorm_wordpool_576.txt	LTP339	ltpFR2	21	1	TEMPLE	1448	n/a	n/a	0	0	0
284.24951171875	n/a	WORD	582143	wordpools/wasnorm_wordpool_576.txt	LTP339	ltpFR2	21	1	DONKEY	484	n/a	n/a	0	0	0
286.87548828125	n/a	WORD	587521	wordpools/wasnorm_wordpool_576.txt	LTP339	ltpFR2	21	1	COLLEGE	346	n/a	n/a	0	0	0
289.66845703125	n/a	WORD	593241	wordpools/wasnorm_wordpool_576.txt	LTP339	ltpFR2	21	1	COIN	343	n/a	n/a	0	0	0
292.09130859375	n/a	WORD	598203	wordpools/wasnorm_wordpool_576.txt	LTP339	ltpFR2	21	1	TYPIST	1532	n/a	n/a	0	0	0
294.71826171875	n/a	WORD	603583	wordpools/wasnorm_wordpool_576.txt	LTP339	ltpFR2	21	1	SCARF	1246	n/a	n/a	0	0	0
297.4931640625	n/a	WORD	609266	wordpools/wasnorm_wordpool_576.txt	LTP339	ltpFR2	21	1	FOREHEAD	592	n/a	n/a	0	0	0
300.10107421875	n/a	WORD	614607	wordpools/wasnorm_wordpool_576.txt	LTP339	ltpFR2	21	1	BINDER	127	n/a	n/a	0	0	0
302.52587890625	n/a	WORD	619573	wordpools/wasnorm_wordpool_576.txt	LTP339	ltpFR2	21	1	POCKET	1093	n/a	n/a	0	0	0
305.216796875	n/a	WORD	625084	wordpools/wasnorm_wordpool_576.txt	LTP339	ltpFR2	21	1	RELISH	1183	n/a	n/a	0	0	0
307.72607421875	n/a	WORD	630223	wordpools/wasnorm_wordpool_576.txt	LTP339	ltpFR2	21	1	MUSTARD	935	n/a	n/a	0	0	0
310.35107421875	n/a	WORD	635599	wordpools/wasnorm_wordpool_576.txt	LTP339	ltpFR2	21	1	MATTRESS	879	n/a	n/a	0	0	0
312.99267578125	n/a	WORD	641009	wordpools/wasnorm_wordpool_576.txt	LTP339	ltpFR2	21	1	SPHINX	1349	n/a	n/a	0	0	0
315.53466796875	n/a	WORD	646215	wordpools/wasnorm_wordpool_576.txt	LTP339	ltpFR2	21	1	OFFICE	972	n/a	n/a	0	0	0
318.10888671875	n/a	WORD	651487	wordpools/wasnorm_wordpool_576.txt	LTP339	ltpFR2	21	1	HOOK	715	n/a	n/a	0	0	0
320.6513671875	n/a	WORD	656694	wordpools/wasnorm_wordpool_576.txt	LTP339	ltpFR2	21	1	PUPPY	1144	n/a	n/a	0	0	0
323.34228515625	n/a	WORD	662205	wordpools/wasnorm_wordpool_576.txt	LTP339	ltpFR2	21	1	FARMER	553	n/a	n/a	0	0	0
325.81640625	n/a	WORD	667272	wordpools/wasnorm_wordpool_576.txt	LTP339	ltpFR2	21	1	GAZELLE	628	n/a	n/a	0	0	0
328.37548828125	n/a	WORD	672513	wordpools/wasnorm_wordpool_576.txt	LTP339	ltpFR2	21	1	LEOPARD	812	n/a	n/a	0	0	0
330.9501953125	n/a	WORD	677786	wordpools/wasnorm_wordpool_576.txt	LTP339	ltpFR2	21	1	CHEMIST	292	n/a	n/a	0	0	0
333.5263671875	n/a	WORD	683062	wordpools/wasnorm_wordpool_576.txt	LTP339	ltpFR2	21	1	COSTUME	383	n/a	n/a	0	0	0
335.13037109375	n/a	START	686347	n/a	LTP339	ltpFR2	21	n/a	n/a	n/a	1	n/a	n/a	n/a	n/a
336.06396484375	n/a	DISTRACTOR	688259	n/a	LTP339	ltpFR2	21	1	n/a	n/a	n/a	n/a	0	0	0
336.06591796875	n/a	PROB	688263	n/a	LTP339	ltpFR2	21	n/a	n/a	n/a	1	12	4	1	7
338.39013671875	n/a	PROB	693023	n/a	LTP339	ltpFR2	21	n/a	n/a	n/a	1	17	8	5	4
340.22998046875	n/a	PROB	696791	n/a	LTP339	ltpFR2	21	n/a	n/a	n/a	1	20	9	2	9
341.73583984375	n/a	PROB	699875	n/a	LTP339	ltpFR2	21	n/a	n/a	n/a	1	9	4	4	1
343.05615234375	n/a	PROB	702579	n/a	LTP339	ltpFR2	21	n/a	n/a	n/a	1	19	6	6	7
346.3828125	n/a	PROB	709392	n/a	LTP339	ltpFR2	21	n/a	n/a	n/a	1	21	7	8	6
351.1318359375	n/a	PROB	719118	n/a	LTP339	ltpFR2	21	n/a	n/a	n/a	1	23	8	9	6
354.677734375	n/a	PROB	726380	n/a	LTP339	ltpFR2	21	n/a	n/a	n/a	1	14	9	3	2
356.431640625	n/a	PROB	729972	n/a	LTP339	ltpFR2	21	n/a	n/a	n/a	1	6	3	2	1
357.50244140625	n/a	PROB	732165	n/a	LTP339	ltpFR2	21	n/a	n/a	n/a	1	5	2	1	2
358.67041015625	n/a	STOP	734557	n/a	LTP339	ltpFR2	21	n/a	n/a	n/a	1	n/a	n/a	n/a	n/a
360.9833984375	n/a	REC_START	739294	n/a	LTP339	ltpFR2	21	1	n/a	n/a	n/a	n/a	0	0	0
361.92919921875	n/a	REC_WORD	741231	wordpools/wasnorm_wordpool_576.txt	LTP339	ltpFR2	21	1	BLENDER	136	n/a	n/a	0	0	0
362.99755859375	n/a	REC_WORD	743419	wordpools/wasnorm_wordpool_576.txt	LTP339	ltpFR2	21	1	PUPPY	1144	n/a	n/a	0	0	0
363.7763671875	n/a	REC_WORD	745014	wordpools/wasnorm_wordpool_576.txt	LTP339	ltpFR2	21	1	SPHINX	1349	n/a	n/a	0	0	0
365.20849609375	n/a	REC_WORD	747947	wordpools/wasnorm_wordpool_576.txt	LTP339	ltpFR2	21	1	COIN	343	n/a	n/a	0	0	0
366.33447265625	n/a	REC_WORD	750253	wordpools/wasnorm_wordpool_576.txt	LTP339	ltpFR2	21	1	MATTRESS	879	n/a	n/a	0	0	0
367.5244140625	n/a	REC_WORD	752690	wordpools/wasnorm_wordpool_576.txt	LTP339	ltpFR2	21	1	ORANGE	980	n/a	n/a	0	0	0
372.8359375	n/a	REC_WORD	763568	wordpools/wasnorm_wordpool_576.txt	LTP339	ltpFR2	21	1	CHEMIST	292	n/a	n/a	0	0	0
451.419921875	n/a	WORD	924508	wordpools/wasnorm_wordpool_576.txt	LTP339	ltpFR2	21	2	PLIERS	1089	n/a	n/a	0	0	0
453.8447265625	n/a	WORD	929474	wordpools/wasnorm_wordpool_576.txt	LTP339	ltpFR2	21	2	WRENCH	1625	n/a	n/a	0	0	0
456.65478515625	n/a	WORD	935229	wordpools/wasnorm_wordpool_576.txt	LTP339	ltpFR2	21	2	PALACE	1006	n/a	n/a	0	0	0
459.24560546875	n/a	WORD	940535	wordpools/wasnorm_wordpool_576.txt	LTP339	ltpFR2	21	2	SCARECROW	1245	n/a	n/a	0	0	0
461.95361328125	n/a	WORD	946081	wordpools/wasnorm_wordpool_576.txt	LTP339	ltpFR2	21	2	GARDEN	623	n/a	n/a	0	0	0
464.5634765625	n/a	WORD	951426	wordpools/wasnorm_wordpool_576.txt	LTP339	ltpFR2	21	2	UNCLE	1536	n/a	n/a	0	0	0
467.0703125	n/a	WORD	956560	wordpools/wasnorm_wordpool_576.txt	LTP339	ltpFR2	21	2	BRIEFCASE	175	n/a	n/a	0	0	0
469.62939453125	n/a	WORD	961801	wordpools/wasnorm_wordpool_576.txt	LTP339	ltpFR2	21	2	PRINCESS	1125	n/a	n/a	0	0	0
472.20361328125	n/a	WORD	967073	wordpools/wasnorm_wordpool_576.txt	LTP339	ltpFR2	21	2	ANKLE	24	n/a	n/a	0	0	0
474.912109375	n/a	WORD	972620	wordpools/wasnorm_wordpool_576.txt	LTP339	ltpFR2	21	2	SHOULDER	1294	n/a	n/a	0	0	0
477.5380859375	n/a	WORD	977998	wordpools/wasnorm_wordpool_576.txt	LTP339	ltpFR2	21	2	PAPER	1011	n/a	n/a	0	0	0
480.24609375	n/a	WORD	983544	wordpools/wasnorm_wordpool_576.txt	LTP339	ltpFR2	21	2	WASHER	1592	n/a	n/a	0	0	0
483.02197265625	n/a	WORD	989229	wordpools/wasnorm_wordpool_576.txt	LTP339	ltpFR2	21	2	PENGUIN	1044	n/a	n/a	0	0	0
485.73095703125	n/a	WORD	994777	wordpools/wasnorm_wordpool_576.txt	LTP339	ltpFR2	21	2	SILK	1307	n/a	n/a	0	0	0
488.2890625	n/a	WORD	1000016	wordpools/wasnorm_wordpool_576.txt	LTP339	ltpFR2	21	2	BADGE	68	n/a	n/a	0	0	0
490.73095703125	n/a	WORD	1005017	wordpools/wasnorm_wordpool_576.txt	LTP339	ltpFR2	21	2	LABEL	790	n/a	n/a	0	0	0
493.337890625	n/a	WORD	1010356	wordpools/wasnorm_wordpool_576.txt	LTP339	ltpFR2	21	2	FIREMAN	569	n/a	n/a	0	0	0
495.82958984375	n/a	WORD	1015459	wordpools/wasnorm_wordpool_576.txt	LTP339	ltpFR2	21	2	MARROW	872	n/a	n/a	0	0	0
498.5224609375	n/a	WORD	1020974	wordpools/wasnorm_wordpool_576.txt	LTP339	ltpFR2	21	2	PARTNER	1017	n/a	n/a	0	0	0
500.94580078125	n/a	WORD	1025937	wordpools/wasnorm_wordpool_576.txt	LTP339	ltpFR2	21	2	MARS	873	n/a	n/a	0	0	0
503.521484375	n/a	WORD	1031212	wordpools/wasnorm_wordpool_576.txt	LTP339	ltpFR2	21	2	SPACE	1345	n/a	n/a	0	0	0
505.99560546875	n/a	WORD	1036279	wordpools/wasnorm_wordpool_576.txt	LTP339	ltpFR2	21	2	DRAGON	492	n/a	n/a	0	0	0
508.771484375	n/a	WORD	1041964	wordpools/wasnorm_wordpool_576.txt	LTP339	ltpFR2	21	2	COWBOY	395	n/a	n/a	0	0	0
511.2451171875	n/a	WORD	1047030	wordpools/wasnorm_wordpool_576.txt	LTP339	ltpFR2	21	2	VAGRANT	1544	n/a	n/a	0	0	0
512.85107421875	n/a	START	1050319	n/a	LTP339	ltpFR2	21	n/a	n/a	n/a	2	n/a	n/a	n/a	n/a
514.05029296875	n/a	DISTRACTOR	1052775	n/a	LTP339	ltpFR2	21	2	n/a	n/a	n/a	n/a	0	0	0
514.05419921875	n/a	PROB	1052783	n/a	LTP339	ltpFR2	21	n/a	n/a	n/a	2	15	5	1	9
516.412109375	n/a	PROB	1057612	n/a	LTP339	ltpFR2	21	n/a	n/a	n/a	2	24	8	6	6
518.3681640625	n/a	PROB	1061618	n/a	LTP339	ltpFR2	21	n/a	n/a	n/a	2	14	2	6	6
520.05712890625	n/a	PROB	1065077	n/a	LTP339	ltpFR2	21	n/a	n/a	n/a	2	10	5	4	1
521.61328125	n/a	PROB	1068264	n/a	LTP339	ltpFR2	21	n/a	n/a	n/a	2	12	2	7	3
523.2841796875	n/a	PROB	1071686	n/a	LTP339	ltpFR2	21	n/a	n/a	n/a	2	18	5	8	5
524.47314453125	n/a	PROB	1074121	n/a	LTP339	ltpFR2	21	n/a	n/a	n/a	2	24	8	9	7
528.56884765625	n/a	PROB	1082509	n/a	LTP339	ltpFR2	21	n/a	n/a	n/a	2	12	8	1	3
531.62890625	n/a	PROB	1088776	n/a	LTP339	ltpFR2	21	n/a	n/a	n/a	2	18	9	2	7
534.23583984375	n/a	PROB	1094115	n/a	LTP339	ltpFR2	21	n/a	n/a	n/a	2	21	7	7	7
535.5107421875	n/a	STOP	1096726	n/a	LTP339	ltpFR2	21	n/a	n/a	n/a	2	n/a	n/a	n/a	n/a
538.75146484375	n/a	REC_START	1103363	n/a	LTP339	ltpFR2	21	2	n/a	n/a	n/a	n/a	0	0	0
539.29150390625	n/a	REC_WORD	1104469	wordpools/wasnorm_wordpool_576.txt	LTP339	ltpFR2	21	2	PALACE	1006	n/a	n/a	0	0	0
540.21630859375	n/a	REC_WORD	1106363	wordpools/wasnorm_wordpool_576.txt	LTP339	ltpFR2	21	2	WRENCH	1625	n/a	n/a	0	0	0
541.11328125	n/a	REC_WORD	1108200	wordpools/wasnorm_wordpool_576.txt	LTP339	ltpFR2	21	2	PLIERS	1089	n/a	n/a	0	0	0
541.78369140625	n/a	REC_WORD	1109573	wordpools/wasnorm_wordpool_576.txt	LTP339	ltpFR2	21	2	SCARECROW	1245	n/a	n/a	0	0	0
542.896484375	n/a	REC_WORD	1111852	wordpools/wasnorm_wordpool_576.txt	LTP339	ltpFR2	21	2	GARDEN	623	n/a	n/a	0	0	0
544.2265625	n/a	REC_WORD	1114576	wordpools/wasnorm_wordpool_576.txt	LTP339	ltpFR2	21	2	FIREMAN	569	n/a	n/a	0	0	0
546.37451171875	n/a	REC_WORD	1118975	wordpools/wasnorm_wordpool_576.txt	LTP339	ltpFR2	21	2	DRAGON	492	n/a	n/a	0	0	0
629.2080078125	n/a	WORD	1288618	wordpools/wasnorm_wordpool_576.txt	LTP339	ltpFR2	21	3	BREAST	171	n/a	n/a	0	0	0
631.7001953125	n/a	WORD	1293722	wordpools/wasnorm_wordpool_576.txt	LTP339	ltpFR2	21	3	EGYPT	519	n/a	n/a	0	0	0
634.5087890625	n/a	WORD	1299474	wordpools/wasnorm_wordpool_576.txt	LTP339	ltpFR2	21	3	COMPASS	358	n/a	n/a	0	0	0
637.28369140625	n/a	WORD	1305157	wordpools/wasnorm_wordpool_576.txt	LTP339	ltpFR2	21	3	DASHBOARD	441	n/a	n/a	0	0	0
639.708984375	n/a	WORD	1310124	wordpools/wasnorm_wordpool_576.txt	LTP339	ltpFR2	21	3	HIKER	708	n/a	n/a	0	0	0
642.24951171875	n/a	WORD	1315327	wordpools/wasnorm_wordpool_576.txt	LTP339	ltpFR2	21	3	SALAD	1224	n/a	n/a	0	0	0
644.79150390625	n/a	WORD	1320533	wordpools/wasnorm_wordpool_576.txt	LTP339	ltpFR2	21	3	ICING	732	n/a	n/a	0	0	0
647.517578125	n/a	WORD	1326116	wordpools/wasnorm_wordpool_576.txt	LTP339	ltpFR2	21	3	PILOT	1070	n/a	n/a	0	0	0
649.95751953125	n/a	WORD	1331113	wordpools/wasnorm_wordpool_576.txt	LTP339	ltpFR2	21	3	DRILL	497	n/a	n/a	0	0	0
652.517578125	n/a	WORD	1336356	wordpools/wasnorm_wordpool_576.txt	LTP339	ltpFR2	21	3	LONDON	843	n/a	n/a	0	0	0
655.19140625	n/a	WORD	1341832	wordpools/wasnorm_wordpool_576.txt	LTP339	ltpFR2	21	3	VELVET	1555	n/a	n/a	0	0	0
657.83349609375	n/a	WORD	1347243	wordpools/wasnorm_wordpool_576.txt	LTP339	ltpFR2	21	3	RADISH	1158	n/a	n/a	0	0	0
660.30810546875	n/a	WORD	1352311	wordpools/wasnorm_wordpool_576.txt	LTP339	ltpFR2	21	3	CABBAGE	210	n/a	n/a	0	0	0
662.916015625	n/a	WORD	1357652	wordpools/wasnorm_wordpool_576.txt	LTP339	ltpFR2	21	3	HANDBAG	684	n/a	n/a	0	0	0
665.5419921875	n/a	WORD	1363030	wordpools/wasnorm_wordpool_576.txt	LTP339	ltpFR2	21	3	CASKET	255	n/a	n/a	0	0	0
668.26708984375	n/a	WORD	1368611	wordpools/wasnorm_wordpool_576.txt	LTP339	ltpFR2	21	3	FIREPLACE	570	n/a	n/a	0	0	0
670.841796875	n/a	WORD	1373884	wordpools/wasnorm_wordpool_576.txt	LTP339	ltpFR2	21	3	FINGER	567	n/a	n/a	0	0	0
673.3828125	n/a	WORD	1379088	wordpools/wasnorm_wordpool_576.txt	LTP339	ltpFR2	21	3	FLIPPER	580	n/a	n/a	0	0	0
676.091796875	n/a	WORD	1384636	wordpools/wasnorm_wordpool_576.txt	LTP339	ltpFR2	21	3	SEAL	1262	n/a	n/a	0	0	0
678.7177734375	n/a	WORD	1390014	wordpools/wasnorm_wordpool_576.txt	LTP339	ltpFR2	21	3	MILK	895	n/a	n/a	0	0	0
681.20849609375	n/a	WORD	1395115	wordpools/wasnorm_wordpool_576.txt	LTP339	ltpFR2	21	3	COMET	353	n/a	n/a	0	0	0
683.95068359375	n/a	WORD	1400731	wordpools/wasnorm_wordpool_576.txt	LTP339	ltpFR2	21	3	STAR	1373	n/a	n/a	0	0	0
686.66064453125	n/a	WORD	1406281	wordpools/wasnorm_wordpool_576.txt	LTP339	ltpFR2	21	3	LODGE	839	n/a	n/a	0	0	0
689.46923828125	n/a	WORD	1412033	wordpools/wasnorm_wordpool_576.txt	LTP339	ltpFR2	21	3	ASIA	46	n/a	n/a	0	0	0
691.0732421875	n/a	START	1415318	n/a	LTP339	ltpFR2	21	n/a	n/a	n/a	3	n/a	n/a	n/a	n/a
692.17333984375	n/a	DISTRACTOR	1417571	n/a	LTP339	ltpFR2	21	3	n/a	n/a	n/a	n/a	0	0	0
692.17626953125	n/a	PROB	1417577	n/a	LTP339	ltpFR2	21	n/a	n/a	n/a	3	24	8	7	9
695.2705078125	n/a	PROB	1423914	n/a	LTP339	ltpFR2	21	n/a	n/a	n/a	3	18	8	4	6
697.4443359375	n/a	PROB	1428366	n/a	LTP339	ltpFR2	21	n/a	n/a	n/a	3	24	9	6	7
699.4501953125	n/a	PROB	1432474	n/a	LTP339	ltpFR2	21	n/a	n/a	n/a	3	12	2	4	6
701.072265625	n/a	PROB	1435796	n/a	LTP339	ltpFR2	21	n/a	n/a	n/a	3	11	1	9	1
702.17529296875	n/a	PROB	1438055	n/a	LTP339	ltpFR2	21	n/a	n/a	n/a	3	23	8	8	7
706.1220703125	n/a	PROB	1446138	n/a	LTP339	ltpFR2	21	n/a	n/a	n/a	3	14	1	8	5
707.759765625	n/a	PROB	1449492	n/a	LTP339	ltpFR2	21	n/a	n/a	n/a	3	9	1	5	3
709.76708984375	n/a	PROB	1453603	n/a	LTP339	ltpFR2	21	n/a	n/a	n/a	3	18	7	4	7
711.087890625	n/a	PROB	1456308	n/a	LTP339	ltpFR2	21	n/a	n/a	n/a	3	14	4	1	9
712.9765625	n/a	PROB	1460176	n/a	LTP339	ltpFR2	21	n/a	n/a	n/a	3	12	2	1	9
714.4306640625	n/a	STOP	1463154	n/a	LTP339	ltpFR2	21	n/a	n/a	n/a	3	n/a	n/a	n/a	n/a
716.82275390625	n/a	REC_START	1468053	n/a	LTP339	ltpFR2	21	3	n/a	n/a	n/a	n/a	0	0	0
718.1298828125	n/a	REC_WORD	1470730	wordpools/wasnorm_wordpool_576.txt	LTP339	ltpFR2	21	3	CABBAGE	210	n/a	n/a	0	0	0
719.06884765625	n/a	REC_WORD	1472653	wordpools/wasnorm_wordpool_576.txt	LTP339	ltpFR2	21	3	EGYPT	519	n/a	n/a	0	0	0
719.99951171875	n/a	REC_WORD	1474559	wordpools/wasnorm_wordpool_576.txt	LTP339	ltpFR2	21	3	ASIA	46	n/a	n/a	0	0	0
722.7763671875	n/a	REC_WORD	1480246	wordpools/wasnorm_wordpool_576.txt	LTP339	ltpFR2	21	3	HEADBAND	696	n/a	n/a	0	0	0
724.2705078125	n/a	REC_WORD	1483306	wordpools/wasnorm_wordpool_576.txt	LTP339	ltpFR2	21	3	BLACKBOARD	133	n/a	n/a	0	0	0
744.8359375	n/a	REC_WORD	1525424	wordpools/wasnorm_wordpool_576.txt	LTP339	ltpFR2	21	3	SEAL	1262	n/a	n/a	0	0	0
751.03662109375	n/a	REC_WORD	1538123	wordpools/wasnorm_wordpool_576.txt	LTP339	ltpFR2	21	3	MILK	895	n/a	n/a	0	0	0
783.02294921875	n/a	REC_WORD	1603631	wordpools/wasnorm_wordpool_576.txt	LTP339	ltpFR2	21	3	FIREPLACE	570	n/a	n/a	0	0	0
789.87744140625	n/a	REC_WORD	1617669	wordpools/wasnorm_wordpool_576.txt	LTP339	ltpFR2	21	3	LODGE	839	n/a	n/a	0	0	0
807.2802734375	n/a	WORD	1653310	wordpools/wasnorm_wordpool_576.txt	LTP339	ltpFR2	21	4	SUPPER	1411	n/a	n/a	0	0	0
809.9208984375	n/a	WORD	1658718	wordpools/wasnorm_wordpool_576.txt	LTP339	ltpFR2	21	4	SUBWAY	1400	n/a	n/a	0	0	0
812.3798828125	n/a	WORD	1663754	wordpools/wasnorm_wordpool_576.txt	LTP339	ltpFR2	21	4	SISTER	1312	n/a	n/a	0	0	0
815.0048828125	n/a	WORD	1669130	wordpools/wasnorm_wordpool_576.txt	LTP339	ltpFR2	21	4	BLOCKADE	137	n/a	n/a	0	0	0
817.4287109375	n/a	WORD	1674094	wordpools/wasnorm_wordpool_576.txt	LTP339	ltpFR2	21	4	GUARD	667	n/a	n/a	0	0	0
820.23779296875	n/a	WORD	1679847	wordpools/wasnorm_wordpool_576.txt	LTP339	ltpFR2	21	4	DRINK	498	n/a	n/a	0	0	0
822.8798828125	n/a	WORD	1685258	wordpools/wasnorm_wordpool_576.txt	LTP339	ltpFR2	21	4	PRIMATE	1123	n/a	n/a	0	0	0
825.58984375	n/a	WORD	1690808	wordpools/wasnorm_wordpool_576.txt	LTP339	ltpFR2	21	4	SIBLING	1301	n/a	n/a	0	0	0
828.38037109375	n/a	WORD	1696523	wordpools/wasnorm_wordpool_576.txt	LTP339	ltpFR2	21	4	LUMBER	848	n/a	n/a	0	0	0
830.85546875	n/a	WORD	1701592	wordpools/wasnorm_wordpool_576.txt	LTP339	ltpFR2	21	4	OUTLAW	989	n/a	n/a	0	0	0
833.58154296875	n/a	WORD	1707175	wordpools/wasnorm_wordpool_576.txt	LTP339	ltpFR2	21	4	CLAMP	316	n/a	n/a	0	0	0
836.03857421875	n/a	WORD	1712207	wordpools/wasnorm_wordpool_576.txt	LTP339	ltpFR2	21	4	NOTEBOOK	959	n/a	n/a	0	0	0
838.58154296875	n/a	WORD	1717415	wordpools/wasnorm_wordpool_576.txt	LTP339	ltpFR2	21	4	REPORT	1184	n/a	n/a	0	0	0
841.2890625	n/a	WORD	1722960	wordpools/wasnorm_wordpool_576.txt	LTP339	ltpFR2	21	4	BROTHER	179	n/a	n/a	0	0	0
843.998046875	n/a	WORD	1728508	wordpools/wasnorm_wordpool_576.txt	LTP339	ltpFR2	21	4	BALLOON	75	n/a	n/a	0	0	0
846.50732421875	n/a	WORD	1733647	wordpools/wasnorm_wordpool_576.txt	LTP339	ltpFR2	21	4	BEAVER	109	n/a	n/a	0	0	0
849.09716796875	n/a	WORD	1738951	wordpools/wasnorm_wordpool_576.txt	LTP339	ltpFR2	21	4	JUNGLE	764	n/a	n/a	0	0	0
851.73876953125	n/a	WORD	1744361	wordpools/wasnorm_wordpool_576.txt	LTP339	ltpFR2	21	4	SHRUB	1299	n/a	n/a	0	0	0
854.23095703125	n/a	WORD	1749465	wordpools/wasnorm_wordpool_576.txt	LTP339	ltpFR2	21	4	HERO	706	n/a	n/a	0	0	0
856.68994140625	n/a	WORD	1754501	wordpools/wasnorm_wordpool_576.txt	LTP339	ltpFR2	21	4	IDOL	733	n/a	n/a	0	0	0
859.16259765625	n/a	WORD	1759565	wordpools/wasnorm_wordpool_576.txt	LTP339	ltpFR2	21	4	HOSTESS	723	n/a	n/a	0	0	0
861.9384765625	n/a	WORD	1765250	wordpools/wasnorm_wordpool_576.txt	LTP339	ltpFR2	21	4	HORNET	718	n/a	n/a	0	0	0
864.41357421875	n/a	WORD	1770319	wordpools/wasnorm_wordpool_576.txt	LTP339	ltpFR2	21	4	OZONE	996	n/a	n/a	0	0	0
867.00439453125	n/a	WORD	1775625	wordpools/wasnorm_wordpool_576.txt	LTP339	ltpFR2	21	4	BRACES	164	n/a	n/a	0	0	0
868.611328125	n/a	START	1778916	n/a	LTP339	ltpFR2	21	n/a	n/a	n/a	4	n/a	n/a	n/a	n/a
869.771484375	n/a	DISTRACTOR	1781292	n/a	LTP339	ltpFR2	21	4	n/a	n/a	n/a	n/a	0	0	0
869.7802734375	n/a	PROB	1781310	n/a	LTP339	ltpFR2	21	n/a	n/a	n/a	4	11	1	9	1
871.017578125	n/a	PROB	1783844	n/a	LTP339	ltpFR2	21	n/a	n/a	n/a	4	23	4	9	8
875.51611328125	n/a	PROB	1793057	n/a	LTP339	ltpFR2	21	n/a	n/a	n/a	4	13	6	2	5
880.29736328125	n/a	PROB	1802849	n/a	LTP339	ltpFR2	21	n/a	n/a	n/a	4	23	8	6	9
882.22021484375	n/a	PROB	1806787	n/a	LTP339	ltpFR2	21	n/a	n/a	n/a	4	13	2	4	7
884.59619140625	n/a	PROB	1811653	n/a	LTP339	ltpFR2	21	n/a	n/a	n/a	4	22	7	9	6
887.3369140625	n/a	PROB	1817266	n/a	LTP339	ltpFR2	21	n/a	n/a	n/a	4	18	3	6	9
891.22265625	n/a	STOP	1825224	n/a	LTP339	ltpFR2	21	n/a	n/a	n/a	4	n/a	n/a	n/a	n/a
894.41064453125	n/a	REC_START	1831753	n/a	LTP339	ltpFR2	21	4	n/a	n/a	n/a	n/a	0	0	0
894.91357421875	n/a	REC_WORD	1832783	wordpools/wasnorm_wordpool_576.txt	LTP339	ltpFR2	21	4	SUPPER	1411	n/a	n/a	0	0	0
895.3818359375	n/a	REC_WORD	1833742	wordpools/wasnorm_wordpool_576.txt	LTP339	ltpFR2	21	4	SUBWAY	1400	n/a	n/a	0	0	0
896.23095703125	n/a	REC_WORD	1835481	wordpools/wasnorm_wordpool_576.txt	LTP339	ltpFR2	21	4	SISTER	1312	n/a	n/a	0	0	0
896.9775390625	n/a	REC_WORD	1837010	wordpools/wasnorm_wordpool_576.txt	LTP339	ltpFR2	21	4	BLOCKADE	137	n/a	n/a	0	0	0
898.13671875	n/a	REC_WORD	1839384	wordpools/wasnorm_wordpool_576.txt	LTP339	ltpFR2	21	4	GUARD	667	n/a	n/a	0	0	0
898.9248046875	n/a	REC_WORD	1840998	wordpools/wasnorm_wordpool_576.txt	LTP339	ltpFR2	21	4	BROTHER	179	n/a	n/a	0	0	0
899.515625	n/a	REC_WORD	1842208	wordpools/wasnorm_wordpool_576.txt	LTP339	ltpFR2	21	4	BALLOON	75	n/a	n/a	0	0	0
900.24755859375	n/a	REC_WORD	1843707	wordpools/wasnorm_wordpool_576.txt	LTP339	ltpFR2	21	4	SHRUB	1299	n/a	n/a	0	0	0
901.36572265625	n/a	REC_WORD	1845997	wordpools/wasnorm_wordpool_576.txt	LTP339	ltpFR2	21	4	HORNET	718	n/a	n/a	0	0	0
984.85009765625	n/a	DISTRACTOR	2016973	n/a	LTP339	ltpFR2	21	5	n/a	n/a	n/a	n/a	0	0	0
984.85009765625	n/a	START	2016973	n/a	LTP339	ltpFR2	21	n/a	n/a	n/a	5	n/a	n/a	n/a	n/a
984.8662109375	n/a	PROB	2017006	n/a	LTP339	ltpFR2	21	n/a	n/a	n/a	5	16	7	7	2
987.00732421875	n/a	PROB	2021391	n/a	LTP339	ltpFR2	21	n/a	n/a	n/a	5	13	9	1	3
988.697265625	n/a	PROB	2024852	n/a	LTP339	ltpFR2	21	n/a	n/a	n/a	5	13	3	1	9
990.30126953125	n/a	PROB	2028137	n/a	LTP339	ltpFR2	21	n/a	n/a	n/a	5	15	4	4	1
991.8388671875	n/a	PROB	2031286	n/a	LTP339	ltpFR2	21	n/a	n/a	n/a	5	18	8	4	6
993.31103515625	n/a	PROB	2034301	n/a	LTP339	ltpFR2	21	n/a	n/a	n/a	5	14	2	4	8
995.63623046875	n/a	PROB	2039063	n/a	LTP339	ltpFR2	21	n/a	n/a	n/a	5	15	6	3	6
997.5419921875	n/a	PROB	2042966	n/a	LTP339	ltpFR2	21	n/a	n/a	n/a	5	13	5	3	5
998.99609375	n/a	PROB	2045944	n/a	LTP339	ltpFR2	21	n/a	n/a	n/a	5	22	8	9	5
1002.1220703125	n/a	PROB	2052346	n/a	LTP339	ltpFR2	21	n/a	n/a	n/a	5	20	9	8	3
1004.58056640625	n/a	PROB	2057381	n/a	LTP339	ltpFR2	21	n/a	n/a	n/a	5	24	9	8	7
1006.6376953125	n/a	PROB	2061594	n/a	LTP339	ltpFR2	21	n/a	n/a	n/a	5	11	1	4	6
1007.89453125	n/a	STOP	2064168	n/a	LTP339	ltpFR2	21	n/a	n/a	n/a	5	n/a	n/a	n/a	n/a
1009.91357421875	n/a	WORD	2068303	wordpools/wasnorm_wordpool_576.txt	LTP339	ltpFR2	21	5	PARENT	1013	n/a	n/a	0	0	0
1012.388671875	n/a	WORD	2073372	wordpools/wasnorm_wordpool_576.txt	LTP339	ltpFR2	21	5	DAUGHTER	442	n/a	n/a	0	0	0
1014.86328125	n/a	WORD	2078440	wordpools/wasnorm_wordpool_576.txt	LTP339	ltpFR2	21	5	THREAD	1460	n/a	n/a	0	0	0
1017.30419921875	n/a	WORD	2083439	wordpools/wasnorm_wordpool_576.txt	LTP339	ltpFR2	21	5	PARROT	1015	n/a	n/a	0	0	0
1019.8125	n/a	WORD	2088576	wordpools/wasnorm_wordpool_576.txt	LTP339	ltpFR2	21	5	CREATURE	403	n/a	n/a	0	0	0
1022.38720703125	n/a	WORD	2093849	wordpools/wasnorm_wordpool_576.txt	LTP339	ltpFR2	21	5	TROMBONE	1508	n/a	n/a	0	0	0
1025.0791015625	n/a	WORD	2099362	wordpools/wasnorm_wordpool_576.txt	LTP339	ltpFR2	21	5	CHILD	299	n/a	n/a	0	0	0
1027.85498046875	n/a	WORD	2105047	wordpools/wasnorm_wordpool_576.txt	LTP339	ltpFR2	21	5	CARRIAGE	248	n/a	n/a	0	0	0
1030.3798828125	n/a	WORD	2110218	wordpools/wasnorm_wordpool_576.txt	LTP339	ltpFR2	21	5	SLUG	1329	n/a	n/a	0	0	0
1033.0048828125	n/a	WORD	2115594	wordpools/wasnorm_wordpool_576.txt	LTP339	ltpFR2	21	5	GALLON	618	n/a	n/a	0	0	0
1035.6806640625	n/a	WORD	2121074	wordpools/wasnorm_wordpool_576.txt	LTP339	ltpFR2	21	5	XEROX	1628	n/a	n/a	0	0	0
1038.3046875	n/a	WORD	2126448	wordpools/wasnorm_wordpool_576.txt	LTP339	ltpFR2	21	5	ORCHID	982	n/a	n/a	0	0	0
1040.8466796875	n/a	WORD	2131654	wordpools/wasnorm_wordpool_576.txt	LTP339	ltpFR2	21	5	LILY	821	n/a	n/a	0	0	0
1043.48974609375	n/a	WORD	2137067	wordpools/wasnorm_wordpool_576.txt	LTP339	ltpFR2	21	5	PEACH	1031	n/a	n/a	0	0	0
1046.23046875	n/a	WORD	2142680	wordpools/wasnorm_wordpool_576.txt	LTP339	ltpFR2	21	5	PLAZA	1088	n/a	n/a	0	0	0
1048.90576171875	n/a	WORD	2148159	wordpools/wasnorm_wordpool_576.txt	LTP339	ltpFR2	21	5	GRAVE	658	n/a	n/a	0	0	0
1051.5986328125	n/a	WORD	2153674	wordpools/wasnorm_wordpool_576.txt	LTP339	ltpFR2	21	5	SHERIFF	1284	n/a	n/a	0	0	0
1054.390625	n/a	WORD	2159392	wordpools/wasnorm_wordpool_576.txt	LTP339	ltpFR2	21	5	RUST	1219	n/a	n/a	0	0	0
1056.88134765625	n/a	WORD	2164493	wordpools/wasnorm_wordpool_576.txt	LTP339	ltpFR2	21	5	POISON	1096	n/a	n/a	0	0	0
1059.30615234375	n/a	WORD	2169459	wordpools/wasnorm_wordpool_576.txt	LTP339	ltpFR2	21	5	CUSTARD	429	n/a	n/a	0	0	0
1061.98095703125	n/a	WORD	2174937	wordpools/wasnorm_wordpool_576.txt	LTP339	ltpFR2	21	5	POLICE	1098	n/a	n/a	0	0	0
1064.69091796875	n/a	WORD	2180487	wordpools/wasnorm_wordpool_576.txt	LTP339	ltpFR2	21	5	HEDGE	699	n/a	n/a	0	0	0
1067.23095703125	n/a	WORD	2185689	wordpools/wasnorm_wordpool_576.txt	LTP339	ltpFR2	21	5	GYMNAST	675	n/a	n/a	0	0	0
1069.72314453125	n/a	WORD	2190793	wordpools/wasnorm_wordpool_576.txt	LTP339	ltpFR2	21	5	COCOON	339	n/a	n/a	0	0	0
1071.328125	n/a	START	2194080	n/a	LTP339	ltpFR2	21	n/a	n/a	n/a	6	n/a	n/a	n/a	n/a
1072.48583984375	n/a	DISTRACTOR	2196451	n/a	LTP339	ltpFR2	21	5	n/a	n/a	n/a	n/a	0	0	0
1072.4990234375	n/a	PROB	2196478	n/a	LTP339	ltpFR2	21	n/a	n/a	n/a	6	15	7	3	5
1076.66259765625	n/a	PROB	2205005	n/a	LTP339	ltpFR2	21	n/a	n/a	n/a	6	16	5	3	8
1080.005859375	n/a	PROB	2211852	n/a	LTP339	ltpFR2	21	n/a	n/a	n/a	6	20	8	6	6
1082.58154296875	n/a	PROB	2217127	n/a	LTP339	ltpFR2	21	n/a	n/a	n/a	6	19	3	8	8
1084.40380859375	n/a	PROB	2220859	n/a	LTP339	ltpFR2	21	n/a	n/a	n/a	6	12	2	8	2
1086.15869140625	n/a	PROB	2224453	n/a	LTP339	ltpFR2	21	n/a	n/a	n/a	6	10	5	3	2
1089.318359375	n/a	PROB	2230924	n/a	LTP339	ltpFR2	21	n/a	n/a	n/a	6	14	7	4	3
1091.66015625	n/a	PROB	2235720	n/a	LTP339	ltpFR2	21	n/a	n/a	n/a	6	26	9	8	9
1094.1591796875	n/a	STOP	2240838	n/a	LTP339	ltpFR2	21	n/a	n/a	n/a	6	n/a	n/a	n/a	n/a
1097.17822265625	n/a	REC_START	2247021	n/a	LTP339	ltpFR2	21	5	n/a	n/a	n/a	n/a	0	0	0
1097.611328125	n/a	REC_WORD	2247908	wordpools/wasnorm_wordpool_576.txt	LTP339	ltpFR2	21	5	SLUG	1329	n/a	n/a	0	0	0
1098.55224609375	n/a	REC_WORD	2249835	wordpools/wasnorm_wordpool_576.txt	LTP339	ltpFR2	21	5	GALLON	618	n/a	n/a	0	0	0
1099.2529296875	n/a	REC_WORD_VV	2251270	wordpools/wasnorm_wordpool_576.txt	LTP339	ltpFR2	21	5	<>	-1	n/a	n/a	0	0	0
1099.55322265625	n/a	REC_WORD	2251885	wordpools/wasnorm_wordpool_576.txt	LTP339	ltpFR2	21	5	XEROX	1628	n/a	n/a	0	0	0
1100.0849609375	n/a	REC_WORD	2252974	wordpools/wasnorm_wordpool_576.txt	LTP339	ltpFR2	21	5	ORCHID	982	n/a	n/a	0	0	0
1100.998046875	n/a	REC_WORD	2254844	wordpools/wasnorm_wordpool_576.txt	LTP339	ltpFR2	21	5	LILY	821	n/a	n/a	0	0	0
1101.962890625	n/a	REC_WORD	2256820	wordpools/wasnorm_wordpool_576.txt	LTP339	ltpFR2	21	5	HUSBAND	728	n/a	n/a	0	0	0
1187.61865234375	n/a	WORD	2432243	wordpools/wasnorm_wordpool_576.txt	LTP339	ltpFR2	21	6	SKIRT	1319	n/a	n/a	0	0	0
1190.0595703125	n/a	WORD	2437242	wordpools/wasnorm_wordpool_576.txt	LTP339	ltpFR2	21	6	BLOUSE	139	n/a	n/a	0	0	0
1192.8017578125	n/a	WORD	2442858	wordpools/wasnorm_wordpool_576.txt	LTP339	ltpFR2	21	6	PIGMENT	1066	n/a	n/a	0	0	0
1195.25927734375	n/a	WORD	2447891	wordpools/wasnorm_wordpool_576.txt	LTP339	ltpFR2	21	6	HOOD	714	n/a	n/a	0	0	0
1198.03466796875	n/a	WORD	2453575	wordpools/wasnorm_wordpool_576.txt	LTP339	ltpFR2	21	6	MOTOR	922	n/a	n/a	0	0	0
1200.79345703125	n/a	WORD	2459225	wordpools/wasnorm_wordpool_576.txt	LTP339	ltpFR2	21	6	BUG	187	n/a	n/a	0	0	0
1203.43505859375	n/a	WORD	2464635	wordpools/wasnorm_wordpool_576.txt	LTP339	ltpFR2	21	6	GIRL	637	n/a	n/a	0	0	0
1206.21142578125	n/a	WORD	2470321	wordpools/wasnorm_wordpool_576.txt	LTP339	ltpFR2	21	6	LOVER	846	n/a	n/a	0	0	0
1208.7861328125	n/a	WORD	2475594	wordpools/wasnorm_wordpool_576.txt	LTP339	ltpFR2	21	6	EXPERT	543	n/a	n/a	0	0	0
1211.39404296875	n/a	WORD	2480935	wordpools/wasnorm_wordpool_576.txt	LTP339	ltpFR2	21	6	STOMACH	1384	n/a	n/a	0	0	0
1213.8359375	n/a	WORD	2485936	wordpools/wasnorm_wordpool_576.txt	LTP339	ltpFR2	21	6	FUNGUS	614	n/a	n/a	0	0	0
1216.56201171875	n/a	WORD	2491519	wordpools/wasnorm_wordpool_576.txt	LTP339	ltpFR2	21	6	SHIRT	1287	n/a	n/a	0	0	0
1219.27001953125	n/a	WORD	2497065	wordpools/wasnorm_wordpool_576.txt	LTP339	ltpFR2	21	6	BATHTUB	100	n/a	n/a	0	0	0
1222.07861328125	n/a	WORD	2502817	wordpools/wasnorm_wordpool_576.txt	LTP339	ltpFR2	21	6	CANDY	230	n/a	n/a	0	0	0
1224.8544921875	n/a	WORD	2508502	wordpools/wasnorm_wordpool_576.txt	LTP339	ltpFR2	21	6	SLIME	1327	n/a	n/a	0	0	0
1227.58056640625	n/a	WORD	2514085	wordpools/wasnorm_wordpool_576.txt	LTP339	ltpFR2	21	6	KETCHUP	771	n/a	n/a	0	0	0
1230.20458984375	n/a	WORD	2519459	wordpools/wasnorm_wordpool_576.txt	LTP339	ltpFR2	21	6	PLATE	1086	n/a	n/a	0	0	0
1232.7294921875	n/a	WORD	2524630	wordpools/wasnorm_wordpool_576.txt	LTP339	ltpFR2	21	6	RUG	1215	n/a	n/a	0	0	0
1235.33837890625	n/a	WORD	2529973	wordpools/wasnorm_wordpool_576.txt	LTP339	ltpFR2	21	6	MARKER	870	n/a	n/a	0	0	0
1237.84619140625	n/a	WORD	2535109	wordpools/wasnorm_wordpool_576.txt	LTP339	ltpFR2	21	6	PUPIL	1143	n/a	n/a	0	0	0
1240.65625	n/a	WORD	2540864	wordpools/wasnorm_wordpool_576.txt	LTP339	ltpFR2	21	6	NAPKIN	937	n/a	n/a	0	0	0
1243.39697265625	n/a	WORD	2546477	wordpools/wasnorm_wordpool_576.txt	LTP339	ltpFR2	21	6	PICNIC	1060	n/a	n/a	0	0	0
1246.15625	n/a	WORD	2552128	wordpools/wasnorm_wordpool_576.txt	LTP339	ltpFR2	21	6	CLOUD	328	n/a	n/a	0	0	0
1248.6650390625	n/a	WORD	2557266	wordpools/wasnorm_wordpool_576.txt	LTP339	ltpFR2	21	6	COOK	372	n/a	n/a	0	0	0
1250.26904296875	n/a	START	2560551	n/a	LTP339	ltpFR2	21	n/a	n/a	n/a	7	n/a	n/a	n/a	n/a
1251.208984375	n/a	DISTRACTOR	2562476	n/a	LTP339	ltpFR2	21	6	n/a	n/a	n/a	n/a	0	0	0
1251.22216796875	n/a	PROB	2562503	n/a	LTP339	ltpFR2	21	n/a	n/a	n/a	7	10	2	3	5
1253.513671875	n/a	PROB	2567196	n/a	LTP339	ltpFR2	21	n/a	n/a	n/a	7	1911	4	6	9
1258.26171875	n/a	PROB	2576920	n/a	LTP339	ltpFR2	21	n/a	n/a	n/a	7	19	5	7	7
1260.48681640625	n/a	PROB	2581477	n/a	LTP339	ltpFR2	21	n/a	n/a	n/a	7	6	1	4	1
1262.056640625	n/a	PROB	2584692	n/a	LTP339	ltpFR2	21	n/a	n/a	n/a	7	21	7	9	5
1264.4658203125	n/a	PROB	2589626	n/a	LTP339	ltpFR2	21	n/a	n/a	n/a	7	25	7	9	9
1266.78857421875	n/a	PROB	2594383	n/a	LTP339	ltpFR2	21	n/a	n/a	n/a	7	11	1	4	6
1267.95947265625	n/a	PROB	2596781	n/a	LTP339	ltpFR2	21	n/a	n/a	n/a	7	15	7	6	2
1269.982421875	n/a	PROB	2600924	n/a	LTP339	ltpFR2	21	n/a	n/a	n/a	7	22	8	9	5
1273.19921875	n/a	STOP	2607512	n/a	LTP339	ltpFR2	21	n/a	n/a	n/a	7	n/a	n/a	n/a	n/a
1276.1865234375	n/a	REC_START	2613630	n/a	LTP339	ltpFR2	21	6	n/a	n/a	n/a	n/a	0	0	0
1276.87548828125	n/a	REC_WORD	2615041	wordpools/wasnorm_wordpool_576.txt	LTP339	ltpFR2	21	6	SKIRT	1319	n/a	n/a	0	0	0
1277.529296875	n/a	REC_WORD	2616380	wordpools/wasnorm_wordpool_576.txt	LTP339	ltpFR2	21	6	BLOUSE	139	n/a	n/a	0	0	0
1278.34521484375	n/a	REC_WORD	2618051	wordpools/wasnorm_wordpool_576.txt	LTP339	ltpFR2	21	6	PIGMENT	1066	n/a	n/a	0	0	0
1278.70703125	n/a	REC_WORD	2618792	wordpools/wasnorm_wordpool_576.txt	LTP339	ltpFR2	21	6	HOOD	714	n/a	n/a	0	0	0
1279.35400390625	n/a	REC_WORD_VV	2620117	wordpools/wasnorm_wordpool_576.txt	LTP339	ltpFR2	21	6	<>	-1	n/a	n/a	0	0	0
1279.68896484375	n/a	REC_WORD_VV	2620803	wordpools/wasnorm_wordpool_576.txt	LTP339	ltpFR2	21	6	<>	-1	n/a	n/a	0	0	0
1280.06201171875	n/a	REC_WORD	2621567	wordpools/wasnorm_wordpool_576.txt	LTP339	ltpFR2	21	6	BUG	187	n/a	n/a	0	0	0
1280.80224609375	n/a	REC_WORD	2623083	wordpools/wasnorm_wordpool_576.txt	LTP339	ltpFR2	21	6	RUG	1215	n/a	n/a	0	0	0
1281.55908203125	n/a	REC_WORD	2624633	wordpools/wasnorm_wordpool_576.txt	LTP339	ltpFR2	21	6	SHIRT	1287	n/a	n/a	0	0	0
1282.9111328125	n/a	REC_WORD	2627402	wordpools/wasnorm_wordpool_576.txt	LTP339	ltpFR2	21	6	LOVER	846	n/a	n/a	0	0	0
1283.97900390625	n/a	REC_WORD	2629589	wordpools/wasnorm_wordpool_576.txt	LTP339	ltpFR2	21	6	GIRL	637	n/a	n/a	0	0	0
1285.69287109375	n/a	REC_WORD	2633099	wordpools/wasnorm_wordpool_576.txt	LTP339	ltpFR2	21	6	MARKER	870	n/a	n/a	0	0	0
1290.5439453125	n/a	REC_WORD	2643034	wordpools/wasnorm_wordpool_576.txt	LTP339	ltpFR2	21	6	FUNGUS	614	n/a	n/a	0	0	0
1340.6044921875	n/a	REC_WORD	2745558	wordpools/wasnorm_wordpool_576.txt	LTP339	ltpFR2	21	6	PUPIL	1143	n/a	n/a	0	0	0
1366.61083984375	n/a	DISTRACTOR	2798819	n/a	LTP339	ltpFR2	21	7	n/a	n/a	n/a	n/a	0	0	0
1366.61083984375	n/a	START	2798819	n/a	LTP339	ltpFR2	21	n/a	n/a	n/a	8	n/a	n/a	n/a	n/a
1366.626953125	n/a	PROB	2798852	n/a	LTP339	ltpFR2	21	n/a	n/a	n/a	8	15	6	3	6
1371.4248046875	n/a	PROB	2808678	n/a	LTP339	ltpFR2	21	n/a	n/a	n/a	8	19	6	8	5
1373.6494140625	n/a	PROB	2813234	n/a	LTP339	ltpFR2	21	n/a	n/a	n/a	8	18	8	3	7
1375.8896484375	n/a	PROB	2817822	n/a	LTP339	ltpFR2	21	n/a	n/a	n/a	8	17	2	8	7
1377.646484375	n/a	PROB	2821420	n/a	LTP339	ltpFR2	21	n/a	n/a	n/a	8	21	9	8	6
1381.50830078125	n/a	PROB	2829329	n/a	LTP339	ltpFR2	21	n/a	n/a	n/a	8	10	4	4	2
1383.41357421875	n/a	PROB	2833231	n/a	LTP339	ltpFR2	21	n/a	n/a	n/a	8	21	9	3	9
1386.40625	n/a	PROB	2839360	n/a	LTP339	ltpFR2	21	n/a	n/a	n/a	8	18	6	8	4
1389.1513671875	n/a	STOP	2844982	n/a	LTP339	ltpFR2	21	n/a	n/a	n/a	8	n/a	n/a	n/a	n/a
1391.67431640625	n/a	WORD	2850149	wordpools/wasnorm_wordpool_576.txt	LTP339	ltpFR2	21	7	RATTLE	1170	n/a	n/a	0	0	0
1394.1982421875	n/a	WORD	2855318	wordpools/wasnorm_wordpool_576.txt	LTP339	ltpFR2	21	7	SNAKE	1333	n/a	n/a	0	0	0
1396.95703125	n/a	WORD	2860968	wordpools/wasnorm_wordpool_576.txt	LTP339	ltpFR2	21	7	GROUND	666	n/a	n/a	0	0	0
1399.60009765625	n/a	WORD	2866381	wordpools/wasnorm_wordpool_576.txt	LTP339	ltpFR2	21	7	PISTON	1076	n/a	n/a	0	0	0
1402.08984375	n/a	WORD	2871480	wordpools/wasnorm_wordpool_576.txt	LTP339	ltpFR2	21	7	LAVA	804	n/a	n/a	0	0	0
1404.73193359375	n/a	WORD	2876891	wordpools/wasnorm_wordpool_576.txt	LTP339	ltpFR2	21	7	CAPTIVE	240	n/a	n/a	0	0	0
1407.3564453125	n/a	WORD	2882266	wordpools/wasnorm_wordpool_576.txt	LTP339	ltpFR2	21	7	LIGHTNING	820	n/a	n/a	0	0	0
1410.03271484375	n/a	WORD	2887747	wordpools/wasnorm_wordpool_576.txt	LTP339	ltpFR2	21	7	SUSPECT	1415	n/a	n/a	0	0	0
1412.59130859375	n/a	WORD	2892987	wordpools/wasnorm_wordpool_576.txt	LTP339	ltpFR2	21	7	BARREL	91	n/a	n/a	0	0	0
1415.38232421875	n/a	WORD	2898703	wordpools/wasnorm_wordpool_576.txt	LTP339	ltpFR2	21	7	COUSIN	392	n/a	n/a	0	0	0
1418.158203125	n/a	WORD	2904388	wordpools/wasnorm_wordpool_576.txt	LTP339	ltpFR2	21	7	TOURIST	1488	n/a	n/a	0	0	0
1420.650390625	n/a	WORD	2909492	wordpools/wasnorm_wordpool_576.txt	LTP339	ltpFR2	21	7	GRILL	661	n/a	n/a	0	0	0
1423.2412109375	n/a	WORD	2914798	wordpools/wasnorm_wordpool_576.txt	LTP339	ltpFR2	21	7	GHETTO	633	n/a	n/a	0	0	0
1426.0	n/a	WORD	2920448	wordpools/wasnorm_wordpool_576.txt	LTP339	ltpFR2	21	7	BRANDY	169	n/a	n/a	0	0	0
1428.67626953125	n/a	WORD	2925929	wordpools/wasnorm_wordpool_576.txt	LTP339	ltpFR2	21	7	DENIM	446	n/a	n/a	0	0	0
1431.43408203125	n/a	WORD	2931577	wordpools/wasnorm_wordpool_576.txt	LTP339	ltpFR2	21	7	NECKLACE	940	n/a	n/a	0	0	0
1433.89208984375	n/a	WORD	2936611	wordpools/wasnorm_wordpool_576.txt	LTP339	ltpFR2	21	7	MEDAL	885	n/a	n/a	0	0	0
1436.43408203125	n/a	WORD	2941817	wordpools/wasnorm_wordpool_576.txt	LTP339	ltpFR2	21	7	MISTER	901	n/a	n/a	0	0	0
1438.974609375	n/a	WORD	2947020	wordpools/wasnorm_wordpool_576.txt	LTP339	ltpFR2	21	7	JEANS	752	n/a	n/a	0	0	0
1441.73388671875	n/a	WORD	2952671	wordpools/wasnorm_wordpool_576.txt	LTP339	ltpFR2	21	7	SOFTBALL	1343	n/a	n/a	0	0	0
1444.17578125	n/a	WORD	2957672	wordpools/wasnorm_wordpool_576.txt	LTP339	ltpFR2	21	7	GLOVE	642	n/a	n/a	0	0	0
1446.70166015625	n/a	WORD	2962845	wordpools/wasnorm_wordpool_576.txt	LTP339	ltpFR2	21	7	ACTOR	5	n/a	n/a	0	0	0
1449.19140625	n/a	WORD	2967944	wordpools/wasnorm_wordpool_576.txt	LTP339	ltpFR2	21	7	VENUS	1557	n/a	n/a	0	0	0
1451.849609375	n/a	WORD	2973388	wordpools/wasnorm_wordpool_576.txt	LTP339	ltpFR2	21	7	SAUSAGE	1238	n/a	n/a	0	0	0
1453.45654296875	n/a	START	2976679	n/a	LTP339	ltpFR2	21	n/a	n/a	n/a	9	n/a	n/a	n/a	n/a
1454.53857421875	n/a	DISTRACTOR	2978895	n/a	LTP339	ltpFR2	21	7	n/a	n/a	n/a	n/a	0	0	0
1454.54345703125	n/a	PROB	2978905	n/a	LTP339	ltpFR2	21	n/a	n/a	n/a	9	20	8	6	6
1459.693359375	n/a	PROB	2989452	n/a	LTP339	ltpFR2	21	n/a	n/a	n/a	9	19	8	8	3
1461.71533203125	n/a	PROB	2993593	n/a	LTP339	ltpFR2	21	n/a	n/a	n/a	9	16	8	6	2
1464.22314453125	n/a	PROB	2998729	n/a	LTP339	ltpFR2	21	n/a	n/a	n/a	9	14	9	1	4
1465.72802734375	n/a	PROB	3001811	n/a	LTP339	ltpFR2	21	n/a	n/a	n/a	9	19	4	6	9
1467.0322265625	n/a	PROB	3004482	n/a	LTP339	ltpFR2	21	n/a	n/a	n/a	9	23	9	9	5
1470.326171875	n/a	PROB	3011228	n/a	LTP339	ltpFR2	21	n/a	n/a	n/a	9	15	5	1	9
1472.0478515625	n/a	PROB	3014754	n/a	LTP339	ltpFR2	21	n/a	n/a	n/a	9	18	6	4	8
1473.36865234375	n/a	PROB	3017459	n/a	LTP339	ltpFR2	21	n/a	n/a	n/a	9	14	7	6	1
1474.9736328125	n/a	PROB	3020746	n/a	LTP339	ltpFR2	21	n/a	n/a	n/a	9	141	2	3	9
1476.9755859375	n/a	STOP	3024846	n/a	LTP339	ltpFR2	21	n/a	n/a	n/a	9	n/a	n/a	n/a	n/a
1479.32177734375	n/a	REC_START	3029651	n/a	LTP339	ltpFR2	21	7	n/a	n/a	n/a	n/a	0	0	0
1479.76171875	n/a	REC_WORD	3030552	wordpools/wasnorm_wordpool_576.txt	LTP339	ltpFR2	21	7	RATTLE	1170	n/a	n/a	0	0	0
1480.296875	n/a	REC_WORD	3031648	wordpools/wasnorm_wordpool_576.txt	LTP339	ltpFR2	21	7	SNAKE	1333	n/a	n/a	0	0	0
1481.32763671875	n/a	REC_WORD	3033759	wordpools/wasnorm_wordpool_576.txt	LTP339	ltpFR2	21	7	GROUND	666	n/a	n/a	0	0	0
1481.99560546875	n/a	REC_WORD	3035127	wordpools/wasnorm_wordpool_576.txt	LTP339	ltpFR2	21	7	PISTON	1076	n/a	n/a	0	0	0
1482.69873046875	n/a	REC_WORD	3036567	wordpools/wasnorm_wordpool_576.txt	LTP339	ltpFR2	21	7	LAVA	804	n/a	n/a	0	0	0
1483.41162109375	n/a	REC_WORD	3038027	wordpools/wasnorm_wordpool_576.txt	LTP339	ltpFR2	21	7	NECKLACE	940	n/a	n/a	0	0	0
1569.779296875	n/a	WORD	3214908	wordpools/wasnorm_wordpool_576.txt	LTP339	ltpFR2	21	8	INMATE	738	n/a	n/a	0	0	0
1572.47216796875	n/a	WORD	3220423	wordpools/wasnorm_wordpool_576.txt	LTP339	ltpFR2	21	8	BUREAU	199	n/a	n/a	0	0	0
1575.01220703125	n/a	WORD	3225625	wordpools/wasnorm_wordpool_576.txt	LTP339	ltpFR2	21	8	DORM	488	n/a	n/a	0	0	0
1577.50390625	n/a	WORD	3230728	wordpools/wasnorm_wordpool_576.txt	LTP339	ltpFR2	21	8	TWEEZERS	1526	n/a	n/a	0	0	0
1580.02783203125	n/a	WORD	3235897	wordpools/wasnorm_wordpool_576.txt	LTP339	ltpFR2	21	8	HEADBAND	696	n/a	n/a	0	0	0
1582.6708984375	n/a	WORD	3241310	wordpools/wasnorm_wordpool_576.txt	LTP339	ltpFR2	21	8	JELLO	754	n/a	n/a	0	0	0
1585.177734375	n/a	WORD	3246444	wordpools/wasnorm_wordpool_576.txt	LTP339	ltpFR2	21	8	PRINCE	1124	n/a	n/a	0	0	0
1587.70361328125	n/a	WORD	3251617	wordpools/wasnorm_wordpool_576.txt	LTP339	ltpFR2	21	8	CASHEW	253	n/a	n/a	0	0	0
1590.12744140625	n/a	WORD	3256581	wordpools/wasnorm_wordpool_576.txt	LTP339	ltpFR2	21	8	GRAPE	654	n/a	n/a	0	0	0
1592.6025390625	n/a	WORD	3261650	wordpools/wasnorm_wordpool_576.txt	LTP339	ltpFR2	21	8	TERMITE	1451	n/a	n/a	0	0	0
1595.3603515625	n/a	WORD	3267298	wordpools/wasnorm_wordpool_576.txt	LTP339	ltpFR2	21	8	SPIDER	1351	n/a	n/a	0	0	0
1597.78564453125	n/a	WORD	3272265	wordpools/wasnorm_wordpool_576.txt	LTP339	ltpFR2	21	8	QUARTER	1148	n/a	n/a	0	0	0
1600.42724609375	n/a	WORD	3277675	wordpools/wasnorm_wordpool_576.txt	LTP339	ltpFR2	21	8	MATCH	878	n/a	n/a	0	0	0
1603.13623046875	n/a	WORD	3283223	wordpools/wasnorm_wordpool_576.txt	LTP339	ltpFR2	21	8	PORK	1108	n/a	n/a	0	0	0
1605.828125	n/a	WORD	3288736	wordpools/wasnorm_wordpool_576.txt	LTP339	ltpFR2	21	8	FRUIT	610	n/a	n/a	0	0	0
1608.3193359375	n/a	WORD	3293838	wordpools/wasnorm_wordpool_576.txt	LTP339	ltpFR2	21	8	BANKER	84	n/a	n/a	0	0	0
1611.078125	n/a	WORD	3299488	wordpools/wasnorm_wordpool_576.txt	LTP339	ltpFR2	21	8	POPCORN	1104	n/a	n/a	0	0	0
1613.63720703125	n/a	WORD	3304729	wordpools/wasnorm_wordpool_576.txt	LTP339	ltpFR2	21	8	COUNTY	389	n/a	n/a	0	0	0
1616.44580078125	n/a	WORD	3310481	wordpools/wasnorm_wordpool_576.txt	LTP339	ltpFR2	21	8	BANJO	82	n/a	n/a	0	0	0
1619.15380859375	n/a	WORD	3316027	wordpools/wasnorm_wordpool_576.txt	LTP339	ltpFR2	21	8	ATLAS	53	n/a	n/a	0	0	0
1621.57958984375	n/a	WORD	3320995	wordpools/wasnorm_wordpool_576.txt	LTP339	ltpFR2	21	8	JELLY	755	n/a	n/a	0	0	0
1624.23681640625	n/a	WORD	3326437	wordpools/wasnorm_wordpool_576.txt	LTP339	ltpFR2	21	8	BURGLAR	200	n/a	n/a	0	0	0
1626.82861328125	n/a	WORD	3331745	wordpools/wasnorm_wordpool_576.txt	LTP339	ltpFR2	21	8	BANK	83	n/a	n/a	0	0	0
1629.62158203125	n/a	WORD	3337465	wordpools/wasnorm_wordpool_576.txt	LTP339	ltpFR2	21	8	BOX	159	n/a	n/a	0	0	0
1631.2265625	n/a	START	3340752	n/a	LTP339	ltpFR2	21	n/a	n/a	n/a	10	n/a	n/a	n/a	n/a
1632.2392578125	n/a	DISTRACTOR	3342826	n/a	LTP339	ltpFR2	21	8	n/a	n/a	n/a	n/a	0	0	0
1632.24560546875	n/a	PROB	3342839	n/a	LTP339	ltpFR2	21	n/a	n/a	n/a	10	15	3	9	3
1635.13818359375	n/a	PROB	3348763	n/a	LTP339	ltpFR2	21	n/a	n/a	n/a	10	9	1	1	7
1636.52734375	n/a	PROB	3351608	n/a	LTP339	ltpFR2	21	n/a	n/a	n/a	10	19	6	5	8
1638.8671875	n/a	PROB	3356400	n/a	LTP339	ltpFR2	21	n/a	n/a	n/a	10	18	4	7	8
1640.5400390625	n/a	PROB	3359826	n/a	LTP339	ltpFR2	21	n/a	n/a	n/a	10	18	9	7	2
1642.68017578125	n/a	PROB	3364209	n/a	LTP339	ltpFR2	21	n/a	n/a	n/a	10	12	7	1	4
1646.27392578125	n/a	PROB	3371569	n/a	LTP339	ltpFR2	21	n/a	n/a	n/a	10	14	1	5	8
1648.06298828125	n/a	PROB	3375233	n/a	LTP339	ltpFR2	21	n/a	n/a	n/a	10	23	9	7	7
1649.76904296875	n/a	PROB	3378727	n/a	LTP339	ltpFR2	21	n/a	n/a	n/a	10	7	1	4	2
1655.22509765625	n/a	STOP	3389901	n/a	LTP339	ltpFR2	21	n/a	n/a	n/a	10	n/a	n/a	n/a	n/a
1657.07568359375	n/a	REC_START	3393691	n/a	LTP339	ltpFR2	21	8	n/a	n/a	n/a	n/a	0	0	0
1657.5498046875	n/a	REC_WORD	3394662	wordpools/wasnorm_wordpool_576.txt	LTP339	ltpFR2	21	8	INMATE	738	n/a	n/a	0	0	0
1658.26171875	n/a	REC_WORD	3396120	wordpools/wasnorm_wordpool_576.txt	LTP339	ltpFR2	21	8	BUREAU	199	n/a	n/a	0	0	0
1659.02392578125	n/a	REC_WORD	3397681	wordpools/wasnorm_wordpool_576.txt	LTP339	ltpFR2	21	8	DORM	488	n/a	n/a	0	0	0
1659.97265625	n/a	REC_WORD	3399624	wordpools/wasnorm_wordpool_576.txt	LTP339	ltpFR2	21	8	TWEEZERS	1526	n/a	n/a	0	0	0
1660.462890625	n/a	REC_WORD	3400628	wordpools/wasnorm_wordpool_576.txt	LTP339	ltpFR2	21	8	HEADBAND	696	n/a	n/a	0	0	0
1665.07470703125	n/a	REC_WORD	3410073	wordpools/wasnorm_wordpool_576.txt	LTP339	ltpFR2	21	8	BANK	83	n/a	n/a	0	0	0
1666.3876953125	n/a	REC_WORD	3412762	wordpools/wasnorm_wordpool_576.txt	LTP339	ltpFR2	21	8	BURGLAR	200	n/a	n/a	0	0	0
1668.0947265625	n/a	REC_WORD	3416258	wordpools/wasnorm_wordpool_576.txt	LTP339	ltpFR2	21	8	POPCORN	1104	n/a	n/a	0	0	0
1669.58251953125	n/a	REC_WORD	3419305	wordpools/wasnorm_wordpool_576.txt	LTP339	ltpFR2	21	8	BANJO	82	n/a	n/a	0	0	0
1671.12744140625	n/a	REC_WORD	3422469	wordpools/wasnorm_wordpool_576.txt	LTP339	ltpFR2	21	8	JELLO	754	n/a	n/a	0	0	0
1672.2265625	n/a	REC_WORD	3424720	wordpools/wasnorm_wordpool_576.txt	LTP339	ltpFR2	21	8	JELLY	755	n/a	n/a	0	0	0
1676.01416015625	n/a	REC_WORD	3432477	wordpools/wasnorm_wordpool_576.txt	LTP339	ltpFR2	21	8	COUNTY	389	n/a	n/a	0	0	0
1676.4443359375	n/a	REC_WORD	3433358	wordpools/wasnorm_wordpool_576.txt	LTP339	ltpFR2	21	8	ATLAS	53	n/a	n/a	0	0	0
1690.7138671875	n/a	REC_WORD	3462582	wordpools/wasnorm_wordpool_576.txt	LTP339	ltpFR2	21	8	BOX	159	n/a	n/a	0	0	0
1733.60546875	n/a	REST_REWET	3550424	n/a	LTP339	ltpFR2	21	8	n/a	n/a	n/a	n/a	0	0	0
1807.6767578125	n/a	DISTRACTOR	3702122	n/a	LTP339	ltpFR2	21	9	n/a	n/a	n/a	n/a	0	0	0
1807.677734375	n/a	START	3702124	n/a	LTP339	ltpFR2	21	n/a	n/a	n/a	11	n/a	n/a	n/a	n/a
1807.69384765625	n/a	PROB	3702157	n/a	LTP339	ltpFR2	21	n/a	n/a	n/a	11	19	7	4	8
1810.28466796875	n/a	PROB	3707463	n/a	LTP339	ltpFR2	21	n/a	n/a	n/a	11	14	1	6	7
1813.5625	n/a	PROB	3714176	n/a	LTP339	ltpFR2	21	n/a	n/a	n/a	11	11	2	7	2
1817.056640625	n/a	PROB	3721332	n/a	LTP339	ltpFR2	21	n/a	n/a	n/a	11	9	6	2	1
1818.87841796875	n/a	PROB	3725063	n/a	LTP339	ltpFR2	21	n/a	n/a	n/a	11	24	9	7	8
1820.7685546875	n/a	PROB	3728934	n/a	LTP339	ltpFR2	21	n/a	n/a	n/a	11	15	6	6	3
1822.44140625	n/a	PROB	3732360	n/a	LTP339	ltpFR2	21	n/a	n/a	n/a	11	12	1	8	3
1824.1962890625	n/a	PROB	3735954	n/a	LTP339	ltpFR2	21	n/a	n/a	n/a	11	8	3	1	4
1825.951171875	n/a	PROB	3739548	n/a	LTP339	ltpFR2	21	n/a	n/a	n/a	11	16	5	5	6
1827.42333984375	n/a	PROB	3742563	n/a	LTP339	ltpFR2	21	n/a	n/a	n/a	11	8	5	2	1
1829.546875	n/a	PROB	3746912	n/a	LTP339	ltpFR2	21	n/a	n/a	n/a	11	4	2	1	1
1831.39990234375	n/a	STOP	3750707	n/a	LTP339	ltpFR2	21	n/a	n/a	n/a	11	n/a	n/a	n/a	n/a
1832.5068359375	n/a	WORD	3752974	wordpools/wasnorm_wordpool_576.txt	LTP339	ltpFR2	21	9	PARSLEY	1016	n/a	n/a	0	0	0
1835.130859375	n/a	WORD	3758348	wordpools/wasnorm_wordpool_576.txt	LTP339	ltpFR2	21	9	SALT	1229	n/a	n/a	0	0	0
1837.60693359375	n/a	WORD	3763419	wordpools/wasnorm_wordpool_576.txt	LTP339	ltpFR2	21	9	LADDER	793	n/a	n/a	0	0	0
1840.1806640625	n/a	WORD	3768690	wordpools/wasnorm_wordpool_576.txt	LTP339	ltpFR2	21	9	DUSTPAN	509	n/a	n/a	0	0	0
1842.97265625	n/a	WORD	3774408	wordpools/wasnorm_wordpool_576.txt	LTP339	ltpFR2	21	9	BUTCHER	203	n/a	n/a	0	0	0
1845.7314453125	n/a	WORD	3780058	wordpools/wasnorm_wordpool_576.txt	LTP339	ltpFR2	21	9	STAPLE	1371	n/a	n/a	0	0	0
1848.2734375	n/a	WORD	3785264	wordpools/wasnorm_wordpool_576.txt	LTP339	ltpFR2	21	9	PISTOL	1075	n/a	n/a	0	0	0
1850.9482421875	n/a	WORD	3790742	wordpools/wasnorm_wordpool_576.txt	LTP339	ltpFR2	21	9	POWDER	1117	n/a	n/a	0	0	0
1853.658203125	n/a	WORD	3796292	wordpools/wasnorm_wordpool_576.txt	LTP339	ltpFR2	21	9	SWORD	1423	n/a	n/a	0	0	0
1856.24853515625	n/a	WORD	3801597	wordpools/wasnorm_wordpool_576.txt	LTP339	ltpFR2	21	9	TWISTER	1530	n/a	n/a	0	0	0
1858.67431640625	n/a	WORD	3806565	wordpools/wasnorm_wordpool_576.txt	LTP339	ltpFR2	21	9	TREAT	1501	n/a	n/a	0	0	0
1861.4150390625	n/a	WORD	3812178	wordpools/wasnorm_wordpool_576.txt	LTP339	ltpFR2	21	9	VIRUS	1572	n/a	n/a	0	0	0
1864.09130859375	n/a	WORD	3817659	wordpools/wasnorm_wordpool_576.txt	LTP339	ltpFR2	21	9	WARDROBE	1587	n/a	n/a	0	0	0
1866.84912109375	n/a	WORD	3823307	wordpools/wasnorm_wordpool_576.txt	LTP339	ltpFR2	21	9	MOTEL	919	n/a	n/a	0	0	0
1869.3408203125	n/a	WORD	3828410	wordpools/wasnorm_wordpool_576.txt	LTP339	ltpFR2	21	9	SPARROW	1347	n/a	n/a	0	0	0
1872.0830078125	n/a	WORD	3834026	wordpools/wasnorm_wordpool_576.txt	LTP339	ltpFR2	21	9	STREAM	1392	n/a	n/a	0	0	0
1874.7578125	n/a	WORD	3839504	wordpools/wasnorm_wordpool_576.txt	LTP339	ltpFR2	21	9	SWIMMER	1420	n/a	n/a	0	0	0
1877.28271484375	n/a	WORD	3844675	wordpools/wasnorm_wordpool_576.txt	LTP339	ltpFR2	21	9	HELMET	702	n/a	n/a	0	0	0
1880.04150390625	n/a	WORD	3850325	wordpools/wasnorm_wordpool_576.txt	LTP339	ltpFR2	21	9	MOP	916	n/a	n/a	0	0	0
1882.6845703125	n/a	WORD	3855738	wordpools/wasnorm_wordpool_576.txt	LTP339	ltpFR2	21	9	PERCH	1048	n/a	n/a	0	0	0
1885.3583984375	n/a	WORD	3861214	wordpools/wasnorm_wordpool_576.txt	LTP339	ltpFR2	21	9	SCALPEL	1243	n/a	n/a	0	0	0
1888.1513671875	n/a	WORD	3866934	wordpools/wasnorm_wordpool_576.txt	LTP339	ltpFR2	21	9	TRANSPLANT	1496	n/a	n/a	0	0	0
1890.92626953125	n/a	WORD	3872617	wordpools/wasnorm_wordpool_576.txt	LTP339	ltpFR2	21	9	BABY	64	n/a	n/a	0	0	0
1893.58642578125	n/a	WORD	3878065	wordpools/wasnorm_wordpool_576.txt	LTP339	ltpFR2	21	9	RAZOR	1171	n/a	n/a	0	0	0
1895.1904296875	n/a	START	3881350	n/a	LTP339	ltpFR2	21	n/a	n/a	n/a	12	n/a	n/a	n/a	n/a
1896.0703125	n/a	DISTRACTOR	3883152	n/a	LTP339	ltpFR2	21	9	n/a	n/a	n/a	n/a	0	0	0
1896.076171875	n/a	PROB	3883164	n/a	LTP339	ltpFR2	21	n/a	n/a	n/a	12	13	3	6	4
1897.79931640625	n/a	PROB	3886693	n/a	LTP339	ltpFR2	21	n/a	n/a	n/a	12	19	4	7	8
1900.08935546875	n/a	PROB	3891383	n/a	LTP339	ltpFR2	21	n/a	n/a	n/a	12	22	9	8	5
1902.43115234375	n/a	PROB	3896179	n/a	LTP339	ltpFR2	21	n/a	n/a	n/a	12	13	2	4	7
1904.30322265625	n/a	PROB	3900013	n/a	LTP339	ltpFR2	21	n/a	n/a	n/a	12	15	1	9	5
1905.591796875	n/a	PROB	3902652	n/a	LTP339	ltpFR2	21	n/a	n/a	n/a	12	17	7	6	4
1908.19873046875	n/a	PROB	3907991	n/a	LTP339	ltpFR2	21	n/a	n/a	n/a	12	8	3	1	4
1910.0048828125	n/a	PROB	3911690	n/a	LTP339	ltpFR2	21	n/a	n/a	n/a	12	8	1	6	1
1911.19189453125	n/a	PROB	3914121	n/a	LTP339	ltpFR2	21	n/a	n/a	n/a	12	19	6	4	9
1912.41259765625	n/a	PROB	3916621	n/a	LTP339	ltpFR2	21	n/a	n/a	n/a	12	14	4	8	2
1913.86669921875	n/a	PROB	3919599	n/a	LTP339	ltpFR2	21	n/a	n/a	n/a	12	21	6	6	9
1916.759765625	n/a	PROB	3925524	n/a	LTP339	ltpFR2	21	n/a	n/a	n/a	12	16	1	8	7
1918.87255859375	n/a	STOP	3929851	n/a	LTP339	ltpFR2	21	n/a	n/a	n/a	12	n/a	n/a	n/a	n/a
1921.0244140625	n/a	REC_START	3934258	n/a	LTP339	ltpFR2	21	9	n/a	n/a	n/a	n/a	0	0	0
1921.8046875	n/a	REC_WORD	3935856	wordpools/wasnorm_wordpool_576.txt	LTP339	ltpFR2	21	9	PARSLEY	1016	n/a	n/a	0	0	0
1922.6552734375	n/a	REC_WORD	3937598	wordpools/wasnorm_wordpool_576.txt	LTP339	ltpFR2	21	9	SALT	1229	n/a	n/a	0	0	0
1923.25634765625	n/a	REC_WORD	3938829	wordpools/wasnorm_wordpool_576.txt	LTP339	ltpFR2	21	9	LADDER	793	n/a	n/a	0	0	0
1923.9375	n/a	REC_WORD	3940224	wordpools/wasnorm_wordpool_576.txt	LTP339	ltpFR2	21	9	DUSTPAN	509	n/a	n/a	0	0	0
1924.82763671875	n/a	REC_WORD	3942047	wordpools/wasnorm_wordpool_576.txt	LTP339	ltpFR2	21	9	BUTCHER	203	n/a	n/a	0	0	0
1925.84521484375	n/a	REC_WORD	3944131	wordpools/wasnorm_wordpool_576.txt	LTP339	ltpFR2	21	9	POWDER	1117	n/a	n/a	0	0	0
2011.46484375	n/a	DISTRACTOR	4119480	n/a	LTP339	ltpFR2	21	10	n/a	n/a	n/a	n/a	0	0	0
2011.46484375	n/a	START	4119480	n/a	LTP339	ltpFR2	21	n/a	n/a	n/a	13	n/a	n/a	n/a	n/a
2011.48193359375	n/a	PROB	4119515	n/a	LTP339	ltpFR2	21	n/a	n/a	n/a	13	12	1	9	2
2013.35302734375	n/a	PROB	4123347	n/a	LTP339	ltpFR2	21	n/a	n/a	n/a	13	12	2	4	6
2015.05908203125	n/a	PROB	4126841	n/a	LTP339	ltpFR2	21	n/a	n/a	n/a	13	17	3	8	6
2017.166015625	n/a	PROB	4131156	n/a	LTP339	ltpFR2	21	n/a	n/a	n/a	13	14	5	6	3
2018.9208984375	n/a	PROB	4134750	n/a	LTP339	ltpFR2	21	n/a	n/a	n/a	13	16	8	6	2
2021.1787109375	n/a	PROB	4139374	n/a	LTP339	ltpFR2	21	n/a	n/a	n/a	13	17	6	7	4
2024.82373046875	n/a	PROB	4146839	n/a	LTP339	ltpFR2	21	n/a	n/a	n/a	13	14	3	2	9
2028.267578125	n/a	PROB	4153892	n/a	LTP339	ltpFR2	21	n/a	n/a	n/a	13	14	9	2	3
2030.70849609375	n/a	PROB	4158891	n/a	LTP339	ltpFR2	21	n/a	n/a	n/a	13	21	9	8	5
2033.16650390625	n/a	PROB	4163925	n/a	LTP339	ltpFR2	21	n/a	n/a	n/a	13	16	7	4	5
2035.12060546875	n/a	STOP	4167927	n/a	LTP339	ltpFR2	21	n/a	n/a	n/a	13	n/a	n/a	n/a	n/a
2036.310546875	n/a	WORD	4170364	wordpools/wasnorm_wordpool_576.txt	LTP339	ltpFR2	21	10	FRECKLE	602	n/a	n/a	0	0	0
2038.8525390625	n/a	WORD	4175570	wordpools/wasnorm_wordpool_576.txt	LTP339	ltpFR2	21	10	SCOTCH	1251	n/a	n/a	0	0	0
2041.3603515625	n/a	WORD	4180706	wordpools/wasnorm_wordpool_576.txt	LTP339	ltpFR2	21	10	PEBBLE	1035	n/a	n/a	0	0	0
2043.951171875	n/a	WORD	4186012	wordpools/wasnorm_wordpool_576.txt	LTP339	ltpFR2	21	10	PADDLE	1000	n/a	n/a	0	0	0
2046.39306640625	n/a	WORD	4191013	wordpools/wasnorm_wordpool_576.txt	LTP339	ltpFR2	21	10	HEART	697	n/a	n/a	0	0	0
2048.81689453125	n/a	WORD	4195977	wordpools/wasnorm_wordpool_576.txt	LTP339	ltpFR2	21	10	FLAG	573	n/a	n/a	0	0	0
2051.59375	n/a	WORD	4201664	wordpools/wasnorm_wordpool_576.txt	LTP339	ltpFR2	21	10	BUCKET	184	n/a	n/a	0	0	0
2054.16796875	n/a	WORD	4206936	wordpools/wasnorm_wordpool_576.txt	LTP339	ltpFR2	21	10	KLEENEX	782	n/a	n/a	0	0	0
2056.79296875	n/a	WORD	4212312	wordpools/wasnorm_wordpool_576.txt	LTP339	ltpFR2	21	10	GREASE	660	n/a	n/a	0	0	0
2059.4189453125	n/a	WORD	4217690	wordpools/wasnorm_wordpool_576.txt	LTP339	ltpFR2	21	10	BASEMENT	94	n/a	n/a	0	0	0
2061.94287109375	n/a	WORD	4222859	wordpools/wasnorm_wordpool_576.txt	LTP339	ltpFR2	21	10	ICEBERG	731	n/a	n/a	0	0	0
2064.56884765625	n/a	WORD	4228237	wordpools/wasnorm_wordpool_576.txt	LTP339	ltpFR2	21	10	JUDGE	761	n/a	n/a	0	0	0
2067.3095703125	n/a	WORD	4233850	wordpools/wasnorm_wordpool_576.txt	LTP339	ltpFR2	21	10	VICTIM	1562	n/a	n/a	0	0	0
2069.78466796875	n/a	WORD	4238919	wordpools/wasnorm_wordpool_576.txt	LTP339	ltpFR2	21	10	DONOR	485	n/a	n/a	0	0	0
2072.59423828125	n/a	WORD	4244673	wordpools/wasnorm_wordpool_576.txt	LTP339	ltpFR2	21	10	LAGOON	795	n/a	n/a	0	0	0
2075.3525390625	n/a	WORD	4250322	wordpools/wasnorm_wordpool_576.txt	LTP339	ltpFR2	21	10	SLIDE	1326	n/a	n/a	0	0	0
2078.01123046875	n/a	WORD	4255767	wordpools/wasnorm_wordpool_576.txt	LTP339	ltpFR2	21	10	PATROL	1027	n/a	n/a	0	0	0
2080.6201171875	n/a	WORD	4261110	wordpools/wasnorm_wordpool_576.txt	LTP339	ltpFR2	21	10	TART	1436	n/a	n/a	0	0	0
2083.09423828125	n/a	WORD	4266177	wordpools/wasnorm_wordpool_576.txt	LTP339	ltpFR2	21	10	ATOM	55	n/a	n/a	0	0	0
2085.869140625	n/a	WORD	4271860	wordpools/wasnorm_wordpool_576.txt	LTP339	ltpFR2	21	10	APRON	35	n/a	n/a	0	0	0
2088.4111328125	n/a	WORD	4277066	wordpools/wasnorm_wordpool_576.txt	LTP339	ltpFR2	21	10	LION	827	n/a	n/a	0	0	0
2091.02001953125	n/a	WORD	4282409	wordpools/wasnorm_wordpool_576.txt	LTP339	ltpFR2	21	10	AWARD	63	n/a	n/a	0	0	0
2093.56201171875	n/a	WORD	4287615	wordpools/wasnorm_wordpool_576.txt	LTP339	ltpFR2	21	10	FILM	565	n/a	n/a	0	0	0
2096.001953125	n/a	WORD	4292612	wordpools/wasnorm_wordpool_576.txt	LTP339	ltpFR2	21	10	CRITIC	410	n/a	n/a	0	0	0
2097.60888671875	n/a	START	4295903	n/a	LTP339	ltpFR2	21	n/a	n/a	n/a	14	n/a	n/a	n/a	n/a
2098.74658203125	n/a	DISTRACTOR	4298233	n/a	LTP339	ltpFR2	21	10	n/a	n/a	n/a	n/a	0	0	0
2098.7607421875	n/a	PROB	4298262	n/a	LTP339	ltpFR2	21	n/a	n/a	n/a	14	10	1	8	1
2100.8173828125	n/a	PROB	4302474	n/a	LTP339	ltpFR2	21	n/a	n/a	n/a	14	18	5	6	7
2103.4267578125	n/a	PROB	4307818	n/a	LTP339	ltpFR2	21	n/a	n/a	n/a	14	17	9	7	1
2105.41552734375	n/a	PROB	4311891	n/a	LTP339	ltpFR2	21	n/a	n/a	n/a	14	13	2	9	2
2108.12451171875	n/a	PROB	4317439	n/a	LTP339	ltpFR2	21	n/a	n/a	n/a	14	19	7	6	6
2110.650390625	n/a	PROB	4322612	n/a	LTP339	ltpFR2	21	n/a	n/a	n/a	14	12	3	5	4
2112.4892578125	n/a	PROB	4326378	n/a	LTP339	ltpFR2	21	n/a	n/a	n/a	14	18	7	4	7
2113.9091796875	n/a	PROB	4329286	n/a	LTP339	ltpFR2	21	n/a	n/a	n/a	14	13	2	6	5
2115.7822265625	n/a	PROB	4333122	n/a	LTP339	ltpFR2	21	n/a	n/a	n/a	14	13	5	6	2
2117.67333984375	n/a	PROB	4336995	n/a	LTP339	ltpFR2	21	n/a	n/a	n/a	14	13	4	3	6
2121.60791015625	n/a	STOP	4345053	n/a	LTP339	ltpFR2	21	n/a	n/a	n/a	14	n/a	n/a	n/a	n/a
2123.47607421875	n/a	REC_START	4348879	n/a	LTP339	ltpFR2	21	10	n/a	n/a	n/a	n/a	0	0	0
2124.21875	n/a	REC_WORD	4350400	wordpools/wasnorm_wordpool_576.txt	LTP339	ltpFR2	21	10	FRECKLE	602	n/a	n/a	0	0	0
2125.01806640625	n/a	REC_WORD	4352037	wordpools/wasnorm_wordpool_576.txt	LTP339	ltpFR2	21	10	SCOTCH	1251	n/a	n/a	0	0	0
2125.84375	n/a	REC_WORD	4353728	wordpools/wasnorm_wordpool_576.txt	LTP339	ltpFR2	21	10	PEBBLE	1035	n/a	n/a	0	0	0
2127.69580078125	n/a	REC_WORD	4357521	wordpools/wasnorm_wordpool_576.txt	LTP339	ltpFR2	21	10	PADDLE	1000	n/a	n/a	0	0	0
2129.712890625	n/a	REC_WORD	4361652	wordpools/wasnorm_wordpool_576.txt	LTP339	ltpFR2	21	10	HEART	697	n/a	n/a	0	0	0
2133.39990234375	n/a	REC_WORD	4369203	wordpools/wasnorm_wordpool_576.txt	LTP339	ltpFR2	21	10	CRITIC	410	n/a	n/a	0	0	0
2213.91455078125	n/a	DISTRACTOR	4534097	n/a	LTP339	ltpFR2	21	11	n/a	n/a	n/a	n/a	0	0	0
2213.91455078125	n/a	START	4534097	n/a	LTP339	ltpFR2	21	n/a	n/a	n/a	15	n/a	n/a	n/a	n/a
2213.9306640625	n/a	PROB	4534130	n/a	LTP339	ltpFR2	21	n/a	n/a	n/a	15	17	5	5	7
2215.67041015625	n/a	PROB	4537693	n/a	LTP339	ltpFR2	21	n/a	n/a	n/a	15	11	2	2	7
2219.58349609375	n/a	PROB	4545707	n/a	LTP339	ltpFR2	21	n/a	n/a	n/a	15	17	6	6	5
2222.55908203125	n/a	PROB	4551801	n/a	LTP339	ltpFR2	21	n/a	n/a	n/a	15	13	1	9	3
2223.92919921875	n/a	PROB	4554607	n/a	LTP339	ltpFR2	21	n/a	n/a	n/a	15	18	9	8	1
2225.55224609375	n/a	PROB	4557931	n/a	LTP339	ltpFR2	21	n/a	n/a	n/a	15	14	4	8	2
2226.9892578125	n/a	PROB	4560874	n/a	LTP339	ltpFR2	21	n/a	n/a	n/a	15	17	8	6	3
2231.27001953125	n/a	PROB	4569641	n/a	LTP339	ltpFR2	21	n/a	n/a	n/a	15	12	5	4	3
2233.326171875	n/a	PROB	4573852	n/a	LTP339	ltpFR2	21	n/a	n/a	n/a	15	22	9	4	9
2235.26611328125	n/a	PROB	4577825	n/a	LTP339	ltpFR2	21	n/a	n/a	n/a	15	8	1	4	3
2236.99267578125	n/a	STOP	4581361	n/a	LTP339	ltpFR2	21	n/a	n/a	n/a	15	n/a	n/a	n/a	n/a
2238.89501953125	n/a	WORD	4585257	wordpools/wasnorm_wordpool_576.txt	LTP339	ltpFR2	21	11	FREEZER	604	n/a	n/a	0	0	0
2241.6875	n/a	WORD	4590976	wordpools/wasnorm_wordpool_576.txt	LTP339	ltpFR2	21	11	CANYON	235	n/a	n/a	0	0	0
2244.24462890625	n/a	WORD	4596213	wordpools/wasnorm_wordpool_576.txt	LTP339	ltpFR2	21	11	GLASS	639	n/a	n/a	0	0	0
2247.0205078125	n/a	WORD	4601898	wordpools/wasnorm_wordpool_576.txt	LTP339	ltpFR2	21	11	DOUGHNUT	490	n/a	n/a	0	0	0
2249.4453125	n/a	WORD	4606864	wordpools/wasnorm_wordpool_576.txt	LTP339	ltpFR2	21	11	STAKE	1368	n/a	n/a	0	0	0
2252.12060546875	n/a	WORD	4612343	wordpools/wasnorm_wordpool_576.txt	LTP339	ltpFR2	21	11	SHELTER	1282	n/a	n/a	0	0	0
2254.87939453125	n/a	WORD	4617993	wordpools/wasnorm_wordpool_576.txt	LTP339	ltpFR2	21	11	WINDOW	1611	n/a	n/a	0	0	0
2257.50537109375	n/a	WORD	4623371	wordpools/wasnorm_wordpool_576.txt	LTP339	ltpFR2	21	11	PROTON	1132	n/a	n/a	0	0	0
2260.29638671875	n/a	WORD	4629087	wordpools/wasnorm_wordpool_576.txt	LTP339	ltpFR2	21	11	CASHIER	254	n/a	n/a	0	0	0
2263.05517578125	n/a	WORD	4634737	wordpools/wasnorm_wordpool_576.txt	LTP339	ltpFR2	21	11	MONEY	908	n/a	n/a	0	0	0
2265.4970703125	n/a	WORD	4639738	wordpools/wasnorm_wordpool_576.txt	LTP339	ltpFR2	21	11	INFANT	737	n/a	n/a	0	0	0
2268.13818359375	n/a	WORD	4645147	wordpools/wasnorm_wordpool_576.txt	LTP339	ltpFR2	21	11	DRIVER	499	n/a	n/a	0	0	0
2270.580078125	n/a	WORD	4650148	wordpools/wasnorm_wordpool_576.txt	LTP339	ltpFR2	21	11	OYSTER	995	n/a	n/a	0	0	0
2273.2880859375	n/a	WORD	4655694	wordpools/wasnorm_wordpool_576.txt	LTP339	ltpFR2	21	11	SHOVEL	1295	n/a	n/a	0	0	0
2275.89697265625	n/a	WORD	4661037	wordpools/wasnorm_wordpool_576.txt	LTP339	ltpFR2	21	11	DUST	508	n/a	n/a	0	0	0
2278.37060546875	n/a	WORD	4666103	wordpools/wasnorm_wordpool_576.txt	LTP339	ltpFR2	21	11	CYCLONE	431	n/a	n/a	0	0	0
2280.77880859375	n/a	WORD	4671035	wordpools/wasnorm_wordpool_576.txt	LTP339	ltpFR2	21	11	SHORTCAKE	1292	n/a	n/a	0	0	0
2283.40380859375	n/a	WORD	4676411	wordpools/wasnorm_wordpool_576.txt	LTP339	ltpFR2	21	11	TABLET	1427	n/a	n/a	0	0	0
2286.21240234375	n/a	WORD	4682163	wordpools/wasnorm_wordpool_576.txt	LTP339	ltpFR2	21	11	PIZZA	1079	n/a	n/a	0	0	0
2288.6884765625	n/a	WORD	4687234	wordpools/wasnorm_wordpool_576.txt	LTP339	ltpFR2	21	11	OMELET	976	n/a	n/a	0	0	0
2291.12841796875	n/a	WORD	4692231	wordpools/wasnorm_wordpool_576.txt	LTP339	ltpFR2	21	11	PASTA	1021	n/a	n/a	0	0	0
2293.654296875	n/a	WORD	4697404	wordpools/wasnorm_wordpool_576.txt	LTP339	ltpFR2	21	11	STOVE	1388	n/a	n/a	0	0	0
2296.22802734375	n/a	WORD	4702675	wordpools/wasnorm_wordpool_576.txt	LTP339	ltpFR2	21	11	DRUG	501	n/a	n/a	0	0	0
2298.80322265625	n/a	WORD	4707949	wordpools/wasnorm_wordpool_576.txt	LTP339	ltpFR2	21	11	SLOPE	1328	n/a	n/a	0	0	0
2300.4091796875	n/a	START	4711238	n/a	LTP339	ltpFR2	21	n/a	n/a	n/a	16	n/a	n/a	n/a	n/a
2301.236328125	n/a	DISTRACTOR	4712932	n/a	LTP339	ltpFR2	21	11	n/a	n/a	n/a	n/a	0	0	0
2301.244140625	n/a	PROB	4712948	n/a	LTP339	ltpFR2	21	n/a	n/a	n/a	16	20	7	6	7
2303.3349609375	n/a	PROB	4717230	n/a	LTP339	ltpFR2	21	n/a	n/a	n/a	16	22	8	8	6
2305.08984375	n/a	PROB	4720824	n/a	LTP339	ltpFR2	21	n/a	n/a	n/a	16	15	5	7	3
2306.962890625	n/a	PROB	4724660	n/a	LTP339	ltpFR2	21	n/a	n/a	n/a	16	9	2	6	1
2308.501953125	n/a	PROB	4727812	n/a	LTP339	ltpFR2	21	n/a	n/a	n/a	16	20	5	6	9
2310.49169921875	n/a	PROB	4731887	n/a	LTP339	ltpFR2	21	n/a	n/a	n/a	16	12	6	2	4
2312.5146484375	n/a	PROB	4736030	n/a	LTP339	ltpFR2	21	n/a	n/a	n/a	16	6	1	4	1
2313.767578125	n/a	PROB	4738596	n/a	LTP339	ltpFR2	21	n/a	n/a	n/a	16	10	1	6	3
2315.7578125	n/a	PROB	4742672	n/a	LTP339	ltpFR2	21	n/a	n/a	n/a	16	12	7	4	1
2317.96484375	n/a	PROB	4747192	n/a	LTP339	ltpFR2	21	n/a	n/a	n/a	16	15	9	5	1
2320.35546875	n/a	PROB	4752088	n/a	LTP339	ltpFR2	21	n/a	n/a	n/a	16	18	7	6	5
2323.28955078125	n/a	STOP	4758097	n/a	LTP339	ltpFR2	21	n/a	n/a	n/a	16	n/a	n/a	n/a	n/a
2326.17529296875	n/a	REC_START	4764007	n/a	LTP339	ltpFR2	21	11	n/a	n/a	n/a	n/a	0	0	0
2327.33935546875	n/a	REC_WORD	4766391	wordpools/wasnorm_wordpool_576.txt	LTP339	ltpFR2	21	11	FREEZER	604	n/a	n/a	0	0	0
2328.13427734375	n/a	REC_WORD	4768019	wordpools/wasnorm_wordpool_576.txt	LTP339	ltpFR2	21	11	CANYON	235	n/a	n/a	0	0	0
2328.96630859375	n/a	REC_WORD	4769723	wordpools/wasnorm_wordpool_576.txt	LTP339	ltpFR2	21	11	DRIVER	499	n/a	n/a	0	0	0
2329.96533203125	n/a	REC_WORD	4771769	wordpools/wasnorm_wordpool_576.txt	LTP339	ltpFR2	21	11	OYSTER	995	n/a	n/a	0	0	0
2330.451171875	n/a	REC_WORD	4772764	wordpools/wasnorm_wordpool_576.txt	LTP339	ltpFR2	21	11	SHOVEL	1295	n/a	n/a	0	0	0
2331.240234375	n/a	REC_WORD	4774380	wordpools/wasnorm_wordpool_576.txt	LTP339	ltpFR2	21	11	STOVE	1388	n/a	n/a	0	0	0
2332.33544921875	n/a	REC_WORD	4776623	wordpools/wasnorm_wordpool_576.txt	LTP339	ltpFR2	21	11	PASTA	1021	n/a	n/a	0	0	0
2333.33740234375	n/a	REC_WORD	4778675	wordpools/wasnorm_wordpool_576.txt	LTP339	ltpFR2	21	11	TABLET	1427	n/a	n/a	0	0	0
2334.18896484375	n/a	REC_WORD	4780419	wordpools/wasnorm_wordpool_576.txt	LTP339	ltpFR2	21	11	DRUG	501	n/a	n/a	0	0	0
2335.25732421875	n/a	REC_WORD	4782607	wordpools/wasnorm_wordpool_576.txt	LTP339	ltpFR2	21	11	SLOPE	1328	n/a	n/a	0	0	0
2340.294921875	n/a	REC_WORD	4792924	wordpools/wasnorm_wordpool_576.txt	LTP339	ltpFR2	21	11	OYSTER	995	n/a	n/a	0	0	0
2416.6328125	n/a	WORD	4949264	wordpools/wasnorm_wordpool_576.txt	LTP339	ltpFR2	21	12	PASSAGE	1019	n/a	n/a	0	0	0
2419.10693359375	n/a	WORD	4954331	wordpools/wasnorm_wordpool_576.txt	LTP339	ltpFR2	21	12	HIGHWAY	707	n/a	n/a	0	0	0
2421.798828125	n/a	WORD	4959844	wordpools/wasnorm_wordpool_576.txt	LTP339	ltpFR2	21	12	BOARD	143	n/a	n/a	0	0	0
2424.35693359375	n/a	WORD	4965083	wordpools/wasnorm_wordpool_576.txt	LTP339	ltpFR2	21	12	TRUCK	1512	n/a	n/a	0	0	0
2427.03173828125	n/a	WORD	4970561	wordpools/wasnorm_wordpool_576.txt	LTP339	ltpFR2	21	12	TORTOISE	1486	n/a	n/a	0	0	0
2429.50732421875	n/a	WORD	4975631	wordpools/wasnorm_wordpool_576.txt	LTP339	ltpFR2	21	12	SERVER	1272	n/a	n/a	0	0	0
2432.16552734375	n/a	WORD	4981075	wordpools/wasnorm_wordpool_576.txt	LTP339	ltpFR2	21	12	BUBBLE	183	n/a	n/a	0	0	0
2434.67431640625	n/a	WORD	4986213	wordpools/wasnorm_wordpool_576.txt	LTP339	ltpFR2	21	12	CHEST	295	n/a	n/a	0	0	0
2437.46630859375	n/a	WORD	4991931	wordpools/wasnorm_wordpool_576.txt	LTP339	ltpFR2	21	12	BODY	145	n/a	n/a	0	0	0
2440.09033203125	n/a	WORD	4997305	wordpools/wasnorm_wordpool_576.txt	LTP339	ltpFR2	21	12	CELLAR	267	n/a	n/a	0	0	0
2442.83203125	n/a	WORD	5002920	wordpools/wasnorm_wordpool_576.txt	LTP339	ltpFR2	21	12	BUNNY	198	n/a	n/a	0	0	0
2445.32421875	n/a	WORD	5008024	wordpools/wasnorm_wordpool_576.txt	LTP339	ltpFR2	21	12	SIDEWALK	1303	n/a	n/a	0	0	0
2447.9658203125	n/a	WORD	5013434	wordpools/wasnorm_wordpool_576.txt	LTP339	ltpFR2	21	12	SHELF	1280	n/a	n/a	0	0	0
2450.5419921875	n/a	WORD	5018710	wordpools/wasnorm_wordpool_576.txt	LTP339	ltpFR2	21	12	PEPPER	1047	n/a	n/a	0	0	0
2453.11572265625	n/a	WORD	5023981	wordpools/wasnorm_wordpool_576.txt	LTP339	ltpFR2	21	12	BACON	67	n/a	n/a	0	0	0
2455.541015625	n/a	WORD	5028948	wordpools/wasnorm_wordpool_576.txt	LTP339	ltpFR2	21	12	TILE	1468	n/a	n/a	0	0	0
2458.23193359375	n/a	WORD	5034459	wordpools/wasnorm_wordpool_576.txt	LTP339	ltpFR2	21	12	CHAMPAGNE	278	n/a	n/a	0	0	0
2460.8408203125	n/a	WORD	5039802	wordpools/wasnorm_wordpool_576.txt	LTP339	ltpFR2	21	12	COCKTAIL	338	n/a	n/a	0	0	0
2463.4833984375	n/a	WORD	5045214	wordpools/wasnorm_wordpool_576.txt	LTP339	ltpFR2	21	12	CARROT	249	n/a	n/a	0	0	0
2466.140625	n/a	WORD	5050656	wordpools/wasnorm_wordpool_576.txt	LTP339	ltpFR2	21	12	WHISTLE	1606	n/a	n/a	0	0	0
2468.81640625	n/a	WORD	5056136	wordpools/wasnorm_wordpool_576.txt	LTP339	ltpFR2	21	12	RABBIT	1152	n/a	n/a	0	0	0
2471.37451171875	n/a	WORD	5061375	wordpools/wasnorm_wordpool_576.txt	LTP339	ltpFR2	21	12	FOX	598	n/a	n/a	0	0	0
2473.865234375	n/a	WORD	5066476	wordpools/wasnorm_wordpool_576.txt	LTP339	ltpFR2	21	12	KEEPER	769	n/a	n/a	0	0	0
2476.44140625	n/a	WORD	5071752	wordpools/wasnorm_wordpool_576.txt	LTP339	ltpFR2	21	12	TRACTOR	1493	n/a	n/a	0	0	0
2478.04638671875	n/a	START	5075039	n/a	LTP339	ltpFR2	21	n/a	n/a	n/a	17	n/a	n/a	n/a	n/a
2479.154296875	n/a	DISTRACTOR	5077308	n/a	LTP339	ltpFR2	21	12	n/a	n/a	n/a	n/a	0	0	0
2479.166015625	n/a	PROB	5077332	n/a	LTP339	ltpFR2	21	n/a	n/a	n/a	17	18	7	2	9
2483.1123046875	n/a	PROB	5085414	n/a	LTP339	ltpFR2	21	n/a	n/a	n/a	17	10	4	1	5
2485.73681640625	n/a	PROB	5090789	n/a	LTP339	ltpFR2	21	n/a	n/a	n/a	17	6	2	1	3
2487.14208984375	n/a	PROB	5093667	n/a	LTP339	ltpFR2	21	n/a	n/a	n/a	17	17	6	3	8
2489.56689453125	n/a	PROB	5098633	n/a	LTP339	ltpFR2	21	n/a	n/a	n/a	17	19	9	5	5
2490.77001953125	n/a	PROB	5101097	n/a	LTP339	ltpFR2	21	n/a	n/a	n/a	17	22	7	9	8
2494.56689453125	n/a	PROB	5108873	n/a	LTP339	ltpFR2	21	n/a	n/a	n/a	17	7	1	4	2
2496.62255859375	n/a	PROB	5113083	n/a	LTP339	ltpFR2	21	n/a	n/a	n/a	17	16	8	3	5
2498.2607421875	n/a	PROB	5116438	n/a	LTP339	ltpFR2	21	n/a	n/a	n/a	17	19	5	8	9
2501.87353515625	n/a	STOP	5123837	n/a	LTP339	ltpFR2	21	n/a	n/a	n/a	17	n/a	n/a	n/a	n/a
2503.96240234375	n/a	REC_START	5128115	n/a	LTP339	ltpFR2	21	12	n/a	n/a	n/a	n/a	0	0	0
2504.32666015625	n/a	REC_WORD	5128861	wordpools/wasnorm_wordpool_576.txt	LTP339	ltpFR2	21	12	PASSAGE	1019	n/a	n/a	0	0	0
2505.21630859375	n/a	REC_WORD	5130683	wordpools/wasnorm_wordpool_576.txt	LTP339	ltpFR2	21	12	HIGHWAY	707	n/a	n/a	0	0	0
2506.11767578125	n/a	REC_WORD	5132529	wordpools/wasnorm_wordpool_576.txt	LTP339	ltpFR2	21	12	BOARD	143	n/a	n/a	0	0	0
2506.9775390625	n/a	REC_WORD	5134290	wordpools/wasnorm_wordpool_576.txt	LTP339	ltpFR2	21	12	TRUCK	1512	n/a	n/a	0	0	0
2507.8125	n/a	REC_WORD	5136000	wordpools/wasnorm_wordpool_576.txt	LTP339	ltpFR2	21	12	TORTOISE	1486	n/a	n/a	0	0	0
2508.80419921875	n/a	REC_WORD	5138031	wordpools/wasnorm_wordpool_576.txt	LTP339	ltpFR2	21	12	FOX	598	n/a	n/a	0	0	0
2594.40283203125	n/a	DISTRACTOR	5313337	n/a	LTP339	ltpFR2	21	13	n/a	n/a	n/a	n/a	0	0	0
2594.40283203125	n/a	START	5313337	n/a	LTP339	ltpFR2	21	n/a	n/a	n/a	18	n/a	n/a	n/a	n/a
2594.419921875	n/a	PROB	5313372	n/a	LTP339	ltpFR2	21	n/a	n/a	n/a	18	14	3	7	4
2596.89404296875	n/a	PROB	5318439	n/a	LTP339	ltpFR2	21	n/a	n/a	n/a	18	23	9	5	9
2600.47265625	n/a	PROB	5325768	n/a	LTP339	ltpFR2	21	n/a	n/a	n/a	18	10	3	6	1
2602.74560546875	n/a	PROB	5330423	n/a	LTP339	ltpFR2	21	n/a	n/a	n/a	18	6	2	1	3
2604.06689453125	n/a	PROB	5333129	n/a	LTP339	ltpFR2	21	n/a	n/a	n/a	18	11	1	4	6
2605.2705078125	n/a	PROB	5335594	n/a	LTP339	ltpFR2	21	n/a	n/a	n/a	18	9	1	1	7
2606.77587890625	n/a	PROB	5338677	n/a	LTP339	ltpFR2	21	n/a	n/a	n/a	18	19	6	9	4
2608.798828125	n/a	PROB	5342820	n/a	LTP339	ltpFR2	21	n/a	n/a	n/a	18	15	2	8	5
2610.40576171875	n/a	PROB	5346111	n/a	LTP339	ltpFR2	21	n/a	n/a	n/a	18	12	2	8	2
2611.90869140625	n/a	PROB	5349189	n/a	LTP339	ltpFR2	21	n/a	n/a	n/a	18	12	3	2	7
2613.66552734375	n/a	PROB	5352787	n/a	LTP339	ltpFR2	21	n/a	n/a	n/a	18	11	5	2	4
2615.236328125	n/a	PROB	5356004	n/a	LTP339	ltpFR2	21	n/a	n/a	n/a	18	12	6	4	2
2616.33935546875	n/a	PROB	5358263	n/a	LTP339	ltpFR2	21	n/a	n/a	n/a	18	12	8	2	2
2617.2734375	n/a	STOP	5360176	n/a	LTP339	ltpFR2	21	n/a	n/a	n/a	18	n/a	n/a	n/a	n/a
2619.50146484375	n/a	WORD	5364739	wordpools/wasnorm_wordpool_576.txt	LTP339	ltpFR2	21	13	TABLE	1426	n/a	n/a	0	0	0
2621.95849609375	n/a	WORD	5369771	wordpools/wasnorm_wordpool_576.txt	LTP339	ltpFR2	21	13	TURKEY	1520	n/a	n/a	0	0	0
2624.5673828125	n/a	WORD	5375114	wordpools/wasnorm_wordpool_576.txt	LTP339	ltpFR2	21	13	ROCKET	1202	n/a	n/a	0	0	0
2627.14111328125	n/a	WORD	5380385	wordpools/wasnorm_wordpool_576.txt	LTP339	ltpFR2	21	13	SEAFOOD	1260	n/a	n/a	0	0	0
2629.9501953125	n/a	WORD	5386138	wordpools/wasnorm_wordpool_576.txt	LTP339	ltpFR2	21	13	MAMMAL	861	n/a	n/a	0	0	0
2632.69189453125	n/a	WORD	5391753	wordpools/wasnorm_wordpool_576.txt	LTP339	ltpFR2	21	13	ONION	977	n/a	n/a	0	0	0
2635.14990234375	n/a	WORD	5396787	wordpools/wasnorm_wordpool_576.txt	LTP339	ltpFR2	21	13	FRAGRANCE	599	n/a	n/a	0	0	0
2637.85888671875	n/a	WORD	5402335	wordpools/wasnorm_wordpool_576.txt	LTP339	ltpFR2	21	13	BOUQUET	157	n/a	n/a	0	0	0
2640.46875	n/a	WORD	5407680	wordpools/wasnorm_wordpool_576.txt	LTP339	ltpFR2	21	13	SUNRISE	1407	n/a	n/a	0	0	0
2643.142578125	n/a	WORD	5413156	wordpools/wasnorm_wordpool_576.txt	LTP339	ltpFR2	21	13	RECEIPT	1173	n/a	n/a	0	0	0
2645.884765625	n/a	WORD	5418772	wordpools/wasnorm_wordpool_576.txt	LTP339	ltpFR2	21	13	PERFUME	1049	n/a	n/a	0	0	0
2648.54443359375	n/a	WORD	5424219	wordpools/wasnorm_wordpool_576.txt	LTP339	ltpFR2	21	13	ARM	38	n/a	n/a	0	0	0
2651.16845703125	n/a	WORD	5429593	wordpools/wasnorm_wordpool_576.txt	LTP339	ltpFR2	21	13	ELBOW	520	n/a	n/a	0	0	0
2653.8935546875	n/a	WORD	5435174	wordpools/wasnorm_wordpool_576.txt	LTP339	ltpFR2	21	13	YOLK	1633	n/a	n/a	0	0	0
2656.33544921875	n/a	WORD	5440175	wordpools/wasnorm_wordpool_576.txt	LTP339	ltpFR2	21	13	SURVEY	1414	n/a	n/a	0	0	0
2658.91015625	n/a	WORD	5445448	wordpools/wasnorm_wordpool_576.txt	LTP339	ltpFR2	21	13	MEAT	883	n/a	n/a	0	0	0
2661.35107421875	n/a	WORD	5450447	wordpools/wasnorm_wordpool_576.txt	LTP339	ltpFR2	21	13	SODA	1341	n/a	n/a	0	0	0
2664.076171875	n/a	WORD	5456028	wordpools/wasnorm_wordpool_576.txt	LTP339	ltpFR2	21	13	WHISKERS	1605	n/a	n/a	0	0	0
2666.60205078125	n/a	WORD	5461201	wordpools/wasnorm_wordpool_576.txt	LTP339	ltpFR2	21	13	THIEF	1456	n/a	n/a	0	0	0
2669.259765625	n/a	WORD	5466644	wordpools/wasnorm_wordpool_576.txt	LTP339	ltpFR2	21	13	ROOSTER	1209	n/a	n/a	0	0	0
2672.0517578125	n/a	WORD	5472362	wordpools/wasnorm_wordpool_576.txt	LTP339	ltpFR2	21	13	COUCH	386	n/a	n/a	0	0	0
2674.72802734375	n/a	WORD	5477843	wordpools/wasnorm_wordpool_576.txt	LTP339	ltpFR2	21	13	QUAIL	1147	n/a	n/a	0	0	0
2677.40380859375	n/a	WORD	5483323	wordpools/wasnorm_wordpool_576.txt	LTP339	ltpFR2	21	13	TUBA	1515	n/a	n/a	0	0	0
2680.02783203125	n/a	WORD	5488697	wordpools/wasnorm_wordpool_576.txt	LTP339	ltpFR2	21	13	BACKBONE	66	n/a	n/a	0	0	0
2681.6337890625	n/a	START	5491986	n/a	LTP339	ltpFR2	21	n/a	n/a	n/a	19	n/a	n/a	n/a	n/a
2682.8056640625	n/a	DISTRACTOR	5494386	n/a	LTP339	ltpFR2	21	13	n/a	n/a	n/a	n/a	0	0	0
2682.81982421875	n/a	PROB	5494415	n/a	LTP339	ltpFR2	21	n/a	n/a	n/a	19	19	4	6	9
2685.9296875	n/a	PROB	5500784	n/a	LTP339	ltpFR2	21	n/a	n/a	n/a	19	14	6	1	7
2688.67333984375	n/a	PROB	5506403	n/a	LTP339	ltpFR2	21	n/a	n/a	n/a	19	22	9	4	9
2693.42138671875	n/a	PROB	5516127	n/a	LTP339	ltpFR2	21	n/a	n/a	n/a	19	12	7	1	4
2695.34326171875	n/a	PROB	5520063	n/a	LTP339	ltpFR2	21	n/a	n/a	n/a	19	17	5	4	8
2696.8310546875	n/a	PROB	5523110	n/a	LTP339	ltpFR2	21	n/a	n/a	n/a	19	11	4	4	3
2698.98828125	n/a	PROB	5527528	n/a	LTP339	ltpFR2	21	n/a	n/a	n/a	19	16	2	9	5
2702.34912109375	n/a	PROB	5534411	n/a	LTP339	ltpFR2	21	n/a	n/a	n/a	19	12	1	7	4
2704.841796875	n/a	STOP	5539516	n/a	LTP339	ltpFR2	21	n/a	n/a	n/a	19	n/a	n/a	n/a	n/a
2707.39990234375	n/a	REC_START	5544755	n/a	LTP339	ltpFR2	21	13	n/a	n/a	n/a	n/a	0	0	0
2708.1279296875	n/a	REC_WORD	5546246	wordpools/wasnorm_wordpool_576.txt	LTP339	ltpFR2	21	13	TABLE	1426	n/a	n/a	0	0	0
2708.85205078125	n/a	REC_WORD	5547729	wordpools/wasnorm_wordpool_576.txt	LTP339	ltpFR2	21	13	TURKEY	1520	n/a	n/a	0	0	0
2709.61474609375	n/a	REC_WORD	5549291	wordpools/wasnorm_wordpool_576.txt	LTP339	ltpFR2	21	13	ROCKET	1202	n/a	n/a	0	0	0
2710.25	n/a	REC_WORD	5550592	wordpools/wasnorm_wordpool_576.txt	LTP339	ltpFR2	21	13	SEAFOOD	1260	n/a	n/a	0	0	0
2711.1416015625	n/a	REC_WORD	5552418	wordpools/wasnorm_wordpool_576.txt	LTP339	ltpFR2	21	13	MAMMAL	861	n/a	n/a	0	0	0
2712.2626953125	n/a	REC_WORD	5554714	wordpools/wasnorm_wordpool_576.txt	LTP339	ltpFR2	21	13	QUAIL	1147	n/a	n/a	0	0	0
2797.8564453125	n/a	WORD	5730010	wordpools/wasnorm_wordpool_576.txt	LTP339	ltpFR2	21	14	WASP	1593	n/a	n/a	0	0	0
2800.4482421875	n/a	WORD	5735318	wordpools/wasnorm_wordpool_576.txt	LTP339	ltpFR2	21	14	CHAPEL	280	n/a	n/a	0	0	0
2803.0732421875	n/a	WORD	5740694	wordpools/wasnorm_wordpool_576.txt	LTP339	ltpFR2	21	14	PREACHER	1119	n/a	n/a	0	0	0
2805.59814453125	n/a	WORD	5745865	wordpools/wasnorm_wordpool_576.txt	LTP339	ltpFR2	21	14	MAILBOX	857	n/a	n/a	0	0	0
2808.22314453125	n/a	WORD	5751241	wordpools/wasnorm_wordpool_576.txt	LTP339	ltpFR2	21	14	LAMP	798	n/a	n/a	0	0	0
2810.76416015625	n/a	WORD	5756445	wordpools/wasnorm_wordpool_576.txt	LTP339	ltpFR2	21	14	POET	1095	n/a	n/a	0	0	0
2813.38916015625	n/a	WORD	5761821	wordpools/wasnorm_wordpool_576.txt	LTP339	ltpFR2	21	14	TURNIP	1521	n/a	n/a	0	0	0
2815.9140625	n/a	WORD	5766992	wordpools/wasnorm_wordpool_576.txt	LTP339	ltpFR2	21	14	LETTUCE	814	n/a	n/a	0	0	0
2818.72265625	n/a	WORD	5772744	wordpools/wasnorm_wordpool_576.txt	LTP339	ltpFR2	21	14	PUDDLE	1140	n/a	n/a	0	0	0
2821.39990234375	n/a	WORD	5778227	wordpools/wasnorm_wordpool_576.txt	LTP339	ltpFR2	21	14	HUSBAND	728	n/a	n/a	0	0	0
2823.98974609375	n/a	WORD	5783531	wordpools/wasnorm_wordpool_576.txt	LTP339	ltpFR2	21	14	RIVER	1194	n/a	n/a	0	0	0
2826.681640625	n/a	WORD	5789044	wordpools/wasnorm_wordpool_576.txt	LTP339	ltpFR2	21	14	YACHT	1629	n/a	n/a	0	0	0
2829.1904296875	n/a	WORD	5794182	wordpools/wasnorm_wordpool_576.txt	LTP339	ltpFR2	21	14	GARBAGE	622	n/a	n/a	0	0	0
2831.79833984375	n/a	WORD	5799523	wordpools/wasnorm_wordpool_576.txt	LTP339	ltpFR2	21	14	ULCER	1533	n/a	n/a	0	0	0
2834.2392578125	n/a	WORD	5804522	wordpools/wasnorm_wordpool_576.txt	LTP339	ltpFR2	21	14	SPOOL	1356	n/a	n/a	0	0	0
2837.04833984375	n/a	WORD	5810275	wordpools/wasnorm_wordpool_576.txt	LTP339	ltpFR2	21	14	ZEBRA	1635	n/a	n/a	0	0	0
2839.82421875	n/a	WORD	5815960	wordpools/wasnorm_wordpool_576.txt	LTP339	ltpFR2	21	14	ISLAND	745	n/a	n/a	0	0	0
2842.583984375	n/a	WORD	5821612	wordpools/wasnorm_wordpool_576.txt	LTP339	ltpFR2	21	14	FLASK	576	n/a	n/a	0	0	0
2845.22509765625	n/a	WORD	5827021	wordpools/wasnorm_wordpool_576.txt	LTP339	ltpFR2	21	14	SKETCH	1315	n/a	n/a	0	0	0
2847.9501953125	n/a	WORD	5832602	wordpools/wasnorm_wordpool_576.txt	LTP339	ltpFR2	21	14	PECAN	1036	n/a	n/a	0	0	0
2850.4931640625	n/a	WORD	5837810	wordpools/wasnorm_wordpool_576.txt	LTP339	ltpFR2	21	14	LOFT	840	n/a	n/a	0	0	0
2853.1337890625	n/a	WORD	5843218	wordpools/wasnorm_wordpool_576.txt	LTP339	ltpFR2	21	14	STICKER	1382	n/a	n/a	0	0	0
2855.72607421875	n/a	WORD	5848527	wordpools/wasnorm_wordpool_576.txt	LTP339	ltpFR2	21	14	NOVEL	960	n/a	n/a	0	0	0
2858.501953125	n/a	WORD	5854212	wordpools/wasnorm_wordpool_576.txt	LTP339	ltpFR2	21	14	HONEY	713	n/a	n/a	0	0	0
2860.10693359375	n/a	START	5857499	n/a	LTP339	ltpFR2	21	n/a	n/a	n/a	20	n/a	n/a	n/a	n/a
2860.962890625	n/a	DISTRACTOR	5859252	n/a	LTP339	ltpFR2	21	14	n/a	n/a	n/a	n/a	0	0	0
2860.9755859375	n/a	PROB	5859278	n/a	LTP339	ltpFR2	21	n/a	n/a	n/a	20	19	7	7	5
2862.9814453125	n/a	PROB	5863386	n/a	LTP339	ltpFR2	21	n/a	n/a	n/a	20	11	2	7	2
2865.94140625	n/a	PROB	5869448	n/a	LTP339	ltpFR2	21	n/a	n/a	n/a	20	17	3	7	7
2869.58740234375	n/a	PROB	5876915	n/a	LTP339	ltpFR2	21	n/a	n/a	n/a	20	13	8	2	3
2871.25830078125	n/a	PROB	5880337	n/a	LTP339	ltpFR2	21	n/a	n/a	n/a	20	7	1	1	5
2872.67919921875	n/a	PROB	5883247	n/a	LTP339	ltpFR2	21	n/a	n/a	n/a	20	18	6	2	8
2874.21826171875	n/a	PROB	5886399	n/a	LTP339	ltpFR2	21	n/a	n/a	n/a	20	20	5	7	8
2876.5263671875	n/a	PROB	5891126	n/a	LTP339	ltpFR2	21	n/a	n/a	n/a	20	5	2	2	1
2877.79638671875	n/a	PROB	5893727	n/a	LTP339	ltpFR2	21	n/a	n/a	n/a	20	9	1	6	2
2880.33837890625	n/a	PROB	5898933	n/a	LTP339	ltpFR2	21	n/a	n/a	n/a	20	10	1	5	4
2881.7919921875	n/a	PROB	5901910	n/a	LTP339	ltpFR2	21	n/a	n/a	n/a	20	11	1	6	4
2882.7861328125	n/a	STOP	5903946	n/a	LTP339	ltpFR2	21	n/a	n/a	n/a	20	n/a	n/a	n/a	n/a
2885.990234375	n/a	REC_START	5910508	n/a	LTP339	ltpFR2	21	14	n/a	n/a	n/a	n/a	0	0	0
2886.52587890625	n/a	REC_WORD	5911605	wordpools/wasnorm_wordpool_576.txt	LTP339	ltpFR2	21	14	WASP	1593	n/a	n/a	0	0	0
2886.89013671875	n/a	REC_WORD	5912351	wordpools/wasnorm_wordpool_576.txt	LTP339	ltpFR2	21	14	CHAPEL	280	n/a	n/a	0	0	0
2887.9267578125	n/a	REC_WORD	5914474	wordpools/wasnorm_wordpool_576.txt	LTP339	ltpFR2	21	14	PREACHER	1119	n/a	n/a	0	0	0
2889.03173828125	n/a	REC_WORD	5916737	wordpools/wasnorm_wordpool_576.txt	LTP339	ltpFR2	21	14	MAILBOX	857	n/a	n/a	0	0	0
2891.00390625	n/a	REC_WORD	5920776	wordpools/wasnorm_wordpool_576.txt	LTP339	ltpFR2	21	14	ZEBRA	1635	n/a	n/a	0	0	0
2893.671875	n/a	REC_WORD	5926240	wordpools/wasnorm_wordpool_576.txt	LTP339	ltpFR2	21	14	YACHT	1629	n/a	n/a	0	0	0
2950.67626953125	n/a	REC_WORD_VV	6042985	wordpools/wasnorm_wordpool_576.txt	LTP339	ltpFR2	21	14	<>	-1	n/a	n/a	0	0	0
2976.44775390625	n/a	WORD	6095765	wordpools/wasnorm_wordpool_576.txt	LTP339	ltpFR2	21	15	CLAM	315	n/a	n/a	0	0	0
2979.22265625	n/a	WORD	6101448	wordpools/wasnorm_wordpool_576.txt	LTP339	ltpFR2	21	15	FLUTE	585	n/a	n/a	0	0	0
2981.71337890625	n/a	WORD	6106549	wordpools/wasnorm_wordpool_576.txt	LTP339	ltpFR2	21	15	HARP	689	n/a	n/a	0	0	0
2984.3212890625	n/a	WORD	6111890	wordpools/wasnorm_wordpool_576.txt	LTP339	ltpFR2	21	15	DRAWING	494	n/a	n/a	0	0	0
2986.830078125	n/a	WORD	6117028	wordpools/wasnorm_wordpool_576.txt	LTP339	ltpFR2	21	15	CRAYON	401	n/a	n/a	0	0	0
2989.37109375	n/a	WORD	6122232	wordpools/wasnorm_wordpool_576.txt	LTP339	ltpFR2	21	15	TOMBSTONE	1478	n/a	n/a	0	0	0
2991.87890625	n/a	WORD	6127368	wordpools/wasnorm_wordpool_576.txt	LTP339	ltpFR2	21	15	CORAL	378	n/a	n/a	0	0	0
2994.671875	n/a	WORD	6133088	wordpools/wasnorm_wordpool_576.txt	LTP339	ltpFR2	21	15	SNACK	1331	n/a	n/a	0	0	0
2997.1298828125	n/a	WORD	6138122	wordpools/wasnorm_wordpool_576.txt	LTP339	ltpFR2	21	15	SALMON	1227	n/a	n/a	0	0	0
2999.68798828125	n/a	WORD	6143361	wordpools/wasnorm_wordpool_576.txt	LTP339	ltpFR2	21	15	RAFT	1159	n/a	n/a	0	0	0
3002.48095703125	n/a	WORD	6149081	wordpools/wasnorm_wordpool_576.txt	LTP339	ltpFR2	21	15	DOLPHIN	483	n/a	n/a	0	0	0
3004.90478515625	n/a	WORD	6154045	wordpools/wasnorm_wordpool_576.txt	LTP339	ltpFR2	21	15	LEG	809	n/a	n/a	0	0	0
3007.58056640625	n/a	WORD	6159525	wordpools/wasnorm_wordpool_576.txt	LTP339	ltpFR2	21	15	BARLEY	88	n/a	n/a	0	0	0
3010.2216796875	n/a	WORD	6164934	wordpools/wasnorm_wordpool_576.txt	LTP339	ltpFR2	21	15	TROUT	1511	n/a	n/a	0	0	0
3012.74658203125	n/a	WORD	6170105	wordpools/wasnorm_wordpool_576.txt	LTP339	ltpFR2	21	15	CREVICE	405	n/a	n/a	0	0	0
3015.439453125	n/a	WORD	6175620	wordpools/wasnorm_wordpool_576.txt	LTP339	ltpFR2	21	15	SHARK	1275	n/a	n/a	0	0	0
3018.21435546875	n/a	WORD	6181303	wordpools/wasnorm_wordpool_576.txt	LTP339	ltpFR2	21	15	CRUTCH	417	n/a	n/a	0	0	0
3020.9560546875	n/a	WORD	6186918	wordpools/wasnorm_wordpool_576.txt	LTP339	ltpFR2	21	15	WRIST	1626	n/a	n/a	0	0	0
3023.3984375	n/a	WORD	6191920	wordpools/wasnorm_wordpool_576.txt	LTP339	ltpFR2	21	15	ANTLER	29	n/a	n/a	0	0	0
3025.93896484375	n/a	WORD	6197123	wordpools/wasnorm_wordpool_576.txt	LTP339	ltpFR2	21	15	CRATER	400	n/a	n/a	0	0	0
3028.615234375	n/a	WORD	6202604	wordpools/wasnorm_wordpool_576.txt	LTP339	ltpFR2	21	15	SMOG	1330	n/a	n/a	0	0	0
3031.3232421875	n/a	WORD	6208150	wordpools/wasnorm_wordpool_576.txt	LTP339	ltpFR2	21	15	AIRPORT	13	n/a	n/a	0	0	0
3034.0478515625	n/a	WORD	6213730	wordpools/wasnorm_wordpool_576.txt	LTP339	ltpFR2	21	15	COD	340	n/a	n/a	0	0	0
3036.68994140625	n/a	WORD	6219141	wordpools/wasnorm_wordpool_576.txt	LTP339	ltpFR2	21	15	DIME	466	n/a	n/a	0	0	0
3038.2958984375	n/a	START	6222430	n/a	LTP339	ltpFR2	21	n/a	n/a	n/a	21	n/a	n/a	n/a	n/a
3039.44189453125	n/a	DISTRACTOR	6224777	n/a	LTP339	ltpFR2	21	15	n/a	n/a	n/a	n/a	0	0	0
3039.44970703125	n/a	PROB	6224793	n/a	LTP339	ltpFR2	21	n/a	n/a	n/a	21	12	3	8	1
3041.45654296875	n/a	PROB	6228903	n/a	LTP339	ltpFR2	21	n/a	n/a	n/a	21	20	6	8	6
3044.3984375	n/a	PROB	6234928	n/a	LTP339	ltpFR2	21	n/a	n/a	n/a	21	24	9	9	6
3046.103515625	n/a	PROB	6238420	n/a	LTP339	ltpFR2	21	n/a	n/a	n/a	21	14	7	2	5
3048.07666015625	n/a	PROB	6242461	n/a	LTP339	ltpFR2	21	n/a	n/a	n/a	21	14	2	4	8
3050.2666015625	n/a	PROB	6246946	n/a	LTP339	ltpFR2	21	n/a	n/a	n/a	21	24	8	8	8
3051.85546875	n/a	PROB	6250200	n/a	LTP339	ltpFR2	21	n/a	n/a	n/a	21	18	6	5	7
3053.79443359375	n/a	PROB	6254171	n/a	LTP339	ltpFR2	21	n/a	n/a	n/a	21	13	5	7	2
3055.701171875	n/a	PROB	6258076	n/a	LTP339	ltpFR2	21	n/a	n/a	n/a	21	15	1	7	7
3057.0380859375	n/a	PROB	6260814	n/a	LTP339	ltpFR2	21	n/a	n/a	n/a	21	21	5	8	8
3058.9951171875	n/a	PROB	6264822	n/a	LTP339	ltpFR2	21	n/a	n/a	n/a	21	11	5	1	5
3062.294921875	n/a	STOP	6271580	n/a	LTP339	ltpFR2	21	n/a	n/a	n/a	21	n/a	n/a	n/a	n/a
3064.17919921875	n/a	REC_START	6275439	n/a	LTP339	ltpFR2	21	15	n/a	n/a	n/a	n/a	0	0	0
3064.81689453125	n/a	REC_WORD	6276745	wordpools/wasnorm_wordpool_576.txt	LTP339	ltpFR2	21	15	CLAM	315	n/a	n/a	0	0	0
3065.76708984375	n/a	REC_WORD	6278691	wordpools/wasnorm_wordpool_576.txt	LTP339	ltpFR2	21	15	FLUTE	585	n/a	n/a	0	0	0
3066.56689453125	n/a	REC_WORD	6280329	wordpools/wasnorm_wordpool_576.txt	LTP339	ltpFR2	21	15	HARP	689	n/a	n/a	0	0	0
3067.3671875	n/a	REC_WORD	6281968	wordpools/wasnorm_wordpool_576.txt	LTP339	ltpFR2	21	15	DRAWING	494	n/a	n/a	0	0	0
3068.06982421875	n/a	REC_WORD	6283407	wordpools/wasnorm_wordpool_576.txt	LTP339	ltpFR2	21	15	CRAYON	401	n/a	n/a	0	0	0
3069.01611328125	n/a	REC_WORD	6285345	wordpools/wasnorm_wordpool_576.txt	LTP339	ltpFR2	21	15	SHARK	1275	n/a	n/a	0	0	0
3069.61083984375	n/a	REC_WORD	6286563	wordpools/wasnorm_wordpool_576.txt	LTP339	ltpFR2	21	15	COD	340	n/a	n/a	0	0	0
3154.61962890625	n/a	DISTRACTOR	6460661	n/a	LTP339	ltpFR2	21	16	n/a	n/a	n/a	n/a	0	0	0
3154.61962890625	n/a	START	6460661	n/a	LTP339	ltpFR2	21	n/a	n/a	n/a	22	n/a	n/a	n/a	n/a
3154.63671875	n/a	PROB	6460696	n/a	LTP339	ltpFR2	21	n/a	n/a	n/a	22	18	5	7	6
3158.88232421875	n/a	PROB	6469391	n/a	LTP339	ltpFR2	21	n/a	n/a	n/a	22	12	5	5	2
3160.42138671875	n/a	PROB	6472543	n/a	LTP339	ltpFR2	21	n/a	n/a	n/a	22	18	4	5	9
3162.92822265625	n/a	PROB	6477677	n/a	LTP339	ltpFR2	21	n/a	n/a	n/a	22	25	9	8	8
3165.3193359375	n/a	PROB	6482574	n/a	LTP339	ltpFR2	21	n/a	n/a	n/a	22	18	9	2	7
3167.22607421875	n/a	PROB	6486479	n/a	LTP339	ltpFR2	21	n/a	n/a	n/a	22	9	3	4	2
3170.58740234375	n/a	PROB	6493363	n/a	LTP339	ltpFR2	21	n/a	n/a	n/a	22	13	1	5	7
3174.34912109375	n/a	PROB	6501067	n/a	LTP339	ltpFR2	21	n/a	n/a	n/a	22	18	8	2	8
3178.6181640625	n/a	STOP	6509810	n/a	LTP339	ltpFR2	21	n/a	n/a	n/a	22	n/a	n/a	n/a	n/a
3179.64990234375	n/a	WORD	6511923	wordpools/wasnorm_wordpool_576.txt	LTP339	ltpFR2	21	16	STALLION	1369	n/a	n/a	0	0	0
3182.44189453125	n/a	WORD	6517641	wordpools/wasnorm_wordpool_576.txt	LTP339	ltpFR2	21	16	SNAIL	1332	n/a	n/a	0	0	0
3185.19970703125	n/a	WORD	6523289	wordpools/wasnorm_wordpool_576.txt	LTP339	ltpFR2	21	16	ROBIN	1199	n/a	n/a	0	0	0
3187.642578125	n/a	WORD	6528292	wordpools/wasnorm_wordpool_576.txt	LTP339	ltpFR2	21	16	SEAGULL	1261	n/a	n/a	0	0	0
3190.4345703125	n/a	WORD	6534010	wordpools/wasnorm_wordpool_576.txt	LTP339	ltpFR2	21	16	NURSE	963	n/a	n/a	0	0	0
3193.0927734375	n/a	WORD	6539454	wordpools/wasnorm_wordpool_576.txt	LTP339	ltpFR2	21	16	BLACKBOARD	133	n/a	n/a	0	0	0
3195.8173828125	n/a	WORD	6545034	wordpools/wasnorm_wordpool_576.txt	LTP339	ltpFR2	21	16	LASER	801	n/a	n/a	0	0	0
3198.25830078125	n/a	WORD	6550033	wordpools/wasnorm_wordpool_576.txt	LTP339	ltpFR2	21	16	STUDENT	1395	n/a	n/a	0	0	0
3200.984375	n/a	WORD	6555616	wordpools/wasnorm_wordpool_576.txt	LTP339	ltpFR2	21	16	PIANO	1057	n/a	n/a	0	0	0
3203.42626953125	n/a	WORD	6560617	wordpools/wasnorm_wordpool_576.txt	LTP339	ltpFR2	21	16	CONVICT	371	n/a	n/a	0	0	0
3206.0	n/a	WORD	6565888	wordpools/wasnorm_wordpool_576.txt	LTP339	ltpFR2	21	16	FRIEND	606	n/a	n/a	0	0	0
3208.576171875	n/a	WORD	6571164	wordpools/wasnorm_wordpool_576.txt	LTP339	ltpFR2	21	16	BOYFRIEND	162	n/a	n/a	0	0	0
3210.98291015625	n/a	WORD	6576093	wordpools/wasnorm_wordpool_576.txt	LTP339	ltpFR2	21	16	FRAME	600	n/a	n/a	0	0	0
3213.6748046875	n/a	WORD	6581606	wordpools/wasnorm_wordpool_576.txt	LTP339	ltpFR2	21	16	RECORD	1176	n/a	n/a	0	0	0
3216.25	n/a	WORD	6586880	wordpools/wasnorm_wordpool_576.txt	LTP339	ltpFR2	21	16	MONSTER	912	n/a	n/a	0	0	0
3218.7080078125	n/a	WORD	6591914	wordpools/wasnorm_wordpool_576.txt	LTP339	ltpFR2	21	16	CAMEL	223	n/a	n/a	0	0	0
3221.14892578125	n/a	WORD	6596913	wordpools/wasnorm_wordpool_576.txt	LTP339	ltpFR2	21	16	PUDDING	1139	n/a	n/a	0	0	0
3223.70751953125	n/a	WORD	6602153	wordpools/wasnorm_wordpool_576.txt	LTP339	ltpFR2	21	16	GIFT	635	n/a	n/a	0	0	0
3226.40087890625	n/a	WORD	6607669	wordpools/wasnorm_wordpool_576.txt	LTP339	ltpFR2	21	16	WIDOW	1608	n/a	n/a	0	0	0
3228.92333984375	n/a	WORD	6612835	wordpools/wasnorm_wordpool_576.txt	LTP339	ltpFR2	21	16	BRANCH	168	n/a	n/a	0	0	0
3231.36572265625	n/a	WORD	6617837	wordpools/wasnorm_wordpool_576.txt	LTP339	ltpFR2	21	16	TEACHER	1440	n/a	n/a	0	0	0
3233.95654296875	n/a	WORD	6623143	wordpools/wasnorm_wordpool_576.txt	LTP339	ltpFR2	21	16	SPOUSE	1358	n/a	n/a	0	0	0
3236.732421875	n/a	WORD	6628828	wordpools/wasnorm_wordpool_576.txt	LTP339	ltpFR2	21	16	FRIAR	605	n/a	n/a	0	0	0
3239.1572265625	n/a	WORD	6633794	wordpools/wasnorm_wordpool_576.txt	LTP339	ltpFR2	21	16	CROWN	415	n/a	n/a	0	0	0
3240.76220703125	n/a	START	6637081	n/a	LTP339	ltpFR2	21	n/a	n/a	n/a	23	n/a	n/a	n/a	n/a
3241.78125	n/a	DISTRACTOR	6639168	n/a	LTP339	ltpFR2	21	16	n/a	n/a	n/a	n/a	0	0	0
3241.79931640625	n/a	PROB	6639205	n/a	LTP339	ltpFR2	21	n/a	n/a	n/a	23	19	9	5	5
3243.63916015625	n/a	PROB	6642973	n/a	LTP339	ltpFR2	21	n/a	n/a	n/a	23	8	4	1	3
3244.92529296875	n/a	PROB	6645607	n/a	LTP339	ltpFR2	21	n/a	n/a	n/a	23	9	1	7	1
3245.97900390625	n/a	PROB	6647765	n/a	LTP339	ltpFR2	21	n/a	n/a	n/a	23	13	8	2	3
3247.91796875	n/a	PROB	6651736	n/a	LTP339	ltpFR2	21	n/a	n/a	n/a	23	22	5	8	9
3251.68017578125	n/a	PROB	6659441	n/a	LTP339	ltpFR2	21	n/a	n/a	n/a	23	15	4	6	5
3253.369140625	n/a	PROB	6662900	n/a	LTP339	ltpFR2	21	n/a	n/a	n/a	23	17	7	8	2
3255.22509765625	n/a	PROB	6666701	n/a	LTP339	ltpFR2	21	n/a	n/a	n/a	23	18	4	6	8
3256.44677734375	n/a	PROB	6669203	n/a	LTP339	ltpFR2	21	n/a	n/a	n/a	23	8	3	4	1
3257.716796875	n/a	PROB	6671804	n/a	LTP339	ltpFR2	21	n/a	n/a	n/a	23	16	9	4	3
3259.90673828125	n/a	PROB	6676289	n/a	LTP339	ltpFR2	21	n/a	n/a	n/a	23	16	3	8	5
3261.74560546875	n/a	PROB	6680055	n/a	LTP339	ltpFR2	21	n/a	n/a	n/a	23	15	8	4	3
3264.443359375	n/a	STOP	6685580	n/a	LTP339	ltpFR2	21	n/a	n/a	n/a	23	n/a	n/a	n/a	n/a
3266.6953125	n/a	REC_START	6690192	n/a	LTP339	ltpFR2	21	16	n/a	n/a	n/a	n/a	0	0	0
3267.6884765625	n/a	REC_WORD	6692226	wordpools/wasnorm_wordpool_576.txt	LTP339	ltpFR2	21	16	STALLION	1369	n/a	n/a	0	0	0
3268.30126953125	n/a	REC_WORD	6693481	wordpools/wasnorm_wordpool_576.txt	LTP339	ltpFR2	21	16	SNAIL	1332	n/a	n/a	0	0	0
3269.45068359375	n/a	REC_WORD	6695835	wordpools/wasnorm_wordpool_576.txt	LTP339	ltpFR2	21	16	ROBIN	1199	n/a	n/a	0	0	0
3269.935546875	n/a	REC_WORD	6696828	wordpools/wasnorm_wordpool_576.txt	LTP339	ltpFR2	21	16	SEAGULL	1261	n/a	n/a	0	0	0
3270.82763671875	n/a	REC_WORD	6698655	wordpools/wasnorm_wordpool_576.txt	LTP339	ltpFR2	21	16	NURSE	963	n/a	n/a	0	0	0
3275.46826171875	n/a	REC_WORD	6708159	wordpools/wasnorm_wordpool_576.txt	LTP339	ltpFR2	21	16	TEACHER	1440	n/a	n/a	0	0	0
3343.224609375	n/a	REST_REWET	6846924	n/a	LTP339	ltpFR2	21	16	n/a	n/a	n/a	n/a	0	0	0
3387.0654296875	n/a	DISTRACTOR	6936710	n/a	LTP339	ltpFR2	21	17	n/a	n/a	n/a	n/a	0	0	0
3387.0654296875	n/a	START	6936710	n/a	LTP339	ltpFR2	21	n/a	n/a	n/a	24	n/a	n/a	n/a	n/a
3387.08203125	n/a	PROB	6936744	n/a	LTP339	ltpFR2	21	n/a	n/a	n/a	24	12	2	8	2
3389.25537109375	n/a	PROB	6941195	n/a	LTP339	ltpFR2	21	n/a	n/a	n/a	24	22	7	6	9
3392.9169921875	n/a	PROB	6948694	n/a	LTP339	ltpFR2	21	n/a	n/a	n/a	24	15	7	6	3
3395.994140625	n/a	PROB	6954996	n/a	LTP339	ltpFR2	21	n/a	n/a	n/a	24	19	9	3	7
3397.5830078125	n/a	PROB	6958250	n/a	LTP339	ltpFR2	21	n/a	n/a	n/a	24	12	8	3	1
3401.56298828125	n/a	PROB	6966401	n/a	LTP339	ltpFR2	21	n/a	n/a	n/a	24	22	9	9	4
3403.333984375	n/a	PROB	6970028	n/a	LTP339	ltpFR2	21	n/a	n/a	n/a	24	6	4	1	1
3405.02294921875	n/a	PROB	6973487	n/a	LTP339	ltpFR2	21	n/a	n/a	n/a	24	20	9	9	2
3406.478515625	n/a	PROB	6976468	n/a	LTP339	ltpFR2	21	n/a	n/a	n/a	24	12	6	2	4
3407.8486328125	n/a	PROB	6979274	n/a	LTP339	ltpFR2	21	n/a	n/a	n/a	24	19	9	1	9
3410.138671875	n/a	STOP	6983964	n/a	LTP339	ltpFR2	21	n/a	n/a	n/a	24	n/a	n/a	n/a	n/a
3412.1796875	n/a	WORD	6988144	wordpools/wasnorm_wordpool_576.txt	LTP339	ltpFR2	21	17	SCISSORS	1250	n/a	n/a	0	0	0
3414.9384765625	n/a	WORD	6993794	wordpools/wasnorm_wordpool_576.txt	LTP339	ltpFR2	21	17	KNIFE	785	n/a	n/a	0	0	0
3417.49755859375	n/a	WORD	6999035	wordpools/wasnorm_wordpool_576.txt	LTP339	ltpFR2	21	17	COURSE	390	n/a	n/a	0	0	0
3419.904296875	n/a	WORD	7003964	wordpools/wasnorm_wordpool_576.txt	LTP339	ltpFR2	21	17	CURTAIN	427	n/a	n/a	0	0	0
3422.48046875	n/a	WORD	7009240	wordpools/wasnorm_wordpool_576.txt	LTP339	ltpFR2	21	17	HATCHET	691	n/a	n/a	0	0	0
3425.27099609375	n/a	WORD	7014955	wordpools/wasnorm_wordpool_576.txt	LTP339	ltpFR2	21	17	OUTFIT	988	n/a	n/a	0	0	0
3428.080078125	n/a	WORD	7020708	wordpools/wasnorm_wordpool_576.txt	LTP339	ltpFR2	21	17	CHAUFFEUR	283	n/a	n/a	0	0	0
3430.88916015625	n/a	WORD	7026461	wordpools/wasnorm_wordpool_576.txt	LTP339	ltpFR2	21	17	ROD	1203	n/a	n/a	0	0	0
3433.68212890625	n/a	WORD	7032181	wordpools/wasnorm_wordpool_576.txt	LTP339	ltpFR2	21	17	BEAST	108	n/a	n/a	0	0	0
3436.33984375	n/a	WORD	7037624	wordpools/wasnorm_wordpool_576.txt	LTP339	ltpFR2	21	17	TAXI	1438	n/a	n/a	0	0	0
3438.9150390625	n/a	WORD	7042898	wordpools/wasnorm_wordpool_576.txt	LTP339	ltpFR2	21	17	VALVE	1546	n/a	n/a	0	0	0
3441.390625	n/a	WORD	7047968	wordpools/wasnorm_wordpool_576.txt	LTP339	ltpFR2	21	17	BROOK	177	n/a	n/a	0	0	0
3444.1318359375	n/a	WORD	7053582	wordpools/wasnorm_wordpool_576.txt	LTP339	ltpFR2	21	17	HAMPER	682	n/a	n/a	0	0	0
3446.890625	n/a	WORD	7059232	wordpools/wasnorm_wordpool_576.txt	LTP339	ltpFR2	21	17	EUROPE	541	n/a	n/a	0	0	0
3449.43359375	n/a	WORD	7064440	wordpools/wasnorm_wordpool_576.txt	LTP339	ltpFR2	21	17	SPOON	1357	n/a	n/a	0	0	0
3451.8564453125	n/a	WORD	7069402	wordpools/wasnorm_wordpool_576.txt	LTP339	ltpFR2	21	17	MAPLE	866	n/a	n/a	0	0	0
3454.650390625	n/a	WORD	7075124	wordpools/wasnorm_wordpool_576.txt	LTP339	ltpFR2	21	17	POSTAGE	1113	n/a	n/a	0	0	0
3457.14013671875	n/a	WORD	7080223	wordpools/wasnorm_wordpool_576.txt	LTP339	ltpFR2	21	17	CONCERT	360	n/a	n/a	0	0	0
3459.8994140625	n/a	WORD	7085874	wordpools/wasnorm_wordpool_576.txt	LTP339	ltpFR2	21	17	BLADE	134	n/a	n/a	0	0	0
3462.4580078125	n/a	WORD	7091114	wordpools/wasnorm_wordpool_576.txt	LTP339	ltpFR2	21	17	BEAKER	104	n/a	n/a	0	0	0
3464.9990234375	n/a	WORD	7096318	wordpools/wasnorm_wordpool_576.txt	LTP339	ltpFR2	21	17	FEMALE	559	n/a	n/a	0	0	0
3467.69091796875	n/a	WORD	7101831	wordpools/wasnorm_wordpool_576.txt	LTP339	ltpFR2	21	17	WOMAN	1620	n/a	n/a	0	0	0
3470.1318359375	n/a	WORD	7106830	wordpools/wasnorm_wordpool_576.txt	LTP339	ltpFR2	21	17	CRAB	397	n/a	n/a	0	0	0
3472.5908203125	n/a	WORD	7111866	wordpools/wasnorm_wordpool_576.txt	LTP339	ltpFR2	21	17	SANDWICH	1232	n/a	n/a	0	0	0
3474.19482421875	n/a	START	7115151	n/a	LTP339	ltpFR2	21	n/a	n/a	n/a	25	n/a	n/a	n/a	n/a
3475.14794921875	n/a	DISTRACTOR	7117103	n/a	LTP339	ltpFR2	21	17	n/a	n/a	n/a	n/a	0	0	0
3475.1650390625	n/a	PROB	7117138	n/a	LTP339	ltpFR2	21	n/a	n/a	n/a	25	14	3	2	9
3479.41259765625	n/a	PROB	7125837	n/a	LTP339	ltpFR2	21	n/a	n/a	n/a	25	191	3	4	8
3483.4423828125	n/a	PROB	7134090	n/a	LTP339	ltpFR2	21	n/a	n/a	n/a	25	15	9	2	4
3485.681640625	n/a	PROB	7138676	n/a	LTP339	ltpFR2	21	n/a	n/a	n/a	25	15	1	5	9
3487.6396484375	n/a	PROB	7142686	n/a	LTP339	ltpFR2	21	n/a	n/a	n/a	25	21	8	4	9
3489.91259765625	n/a	PROB	7147341	n/a	LTP339	ltpFR2	21	n/a	n/a	n/a	25	14	2	9	3
3491.734375	n/a	PROB	7151072	n/a	LTP339	ltpFR2	21	n/a	n/a	n/a	25	18	8	6	4
3494.025390625	n/a	PROB	7155764	n/a	LTP339	ltpFR2	21	n/a	n/a	n/a	25	19	5	8	6
3497.29931640625	n/a	STOP	7162469	n/a	LTP339	ltpFR2	21	n/a	n/a	n/a	25	n/a	n/a	n/a	n/a
3500.1123046875	n/a	REC_START	7168230	n/a	LTP339	ltpFR2	21	17	n/a	n/a	n/a	n/a	0	0	0
3500.48193359375	n/a	REC_WORD	7168987	wordpools/wasnorm_wordpool_576.txt	LTP339	ltpFR2	21	17	SCISSORS	1250	n/a	n/a	0	0	0
3501.40087890625	n/a	REC_WORD	7170869	wordpools/wasnorm_wordpool_576.txt	LTP339	ltpFR2	21	17	KNIFE	785	n/a	n/a	0	0	0
3502.076171875	n/a	REC_WORD	7172252	wordpools/wasnorm_wordpool_576.txt	LTP339	ltpFR2	21	17	COURSE	390	n/a	n/a	0	0	0
3502.88623046875	n/a	REC_WORD	7173911	wordpools/wasnorm_wordpool_576.txt	LTP339	ltpFR2	21	17	CURTAIN	427	n/a	n/a	0	0	0
3503.76806640625	n/a	REC_WORD	7175717	wordpools/wasnorm_wordpool_576.txt	LTP339	ltpFR2	21	17	HATCHET	691	n/a	n/a	0	0	0
3590.552734375	n/a	WORD	7353452	wordpools/wasnorm_wordpool_576.txt	LTP339	ltpFR2	21	18	CITRUS	313	n/a	n/a	0	0	0
3593.3447265625	n/a	WORD	7359170	wordpools/wasnorm_wordpool_576.txt	LTP339	ltpFR2	21	18	CATCHER	258	n/a	n/a	0	0	0
3595.95263671875	n/a	WORD	7364511	wordpools/wasnorm_wordpool_576.txt	LTP339	ltpFR2	21	18	BEEF	113	n/a	n/a	0	0	0
3598.6943359375	n/a	WORD	7370126	wordpools/wasnorm_wordpool_576.txt	LTP339	ltpFR2	21	18	OX	994	n/a	n/a	0	0	0
3601.404296875	n/a	WORD	7375676	wordpools/wasnorm_wordpool_576.txt	LTP339	ltpFR2	21	18	CRIB	407	n/a	n/a	0	0	0
3604.12939453125	n/a	WORD	7381257	wordpools/wasnorm_wordpool_576.txt	LTP339	ltpFR2	21	18	BIKE	125	n/a	n/a	0	0	0
3606.85400390625	n/a	WORD	7386837	wordpools/wasnorm_wordpool_576.txt	LTP339	ltpFR2	21	18	CLIMBER	323	n/a	n/a	0	0	0
3609.3291015625	n/a	WORD	7391906	wordpools/wasnorm_wordpool_576.txt	LTP339	ltpFR2	21	18	CAFE	216	n/a	n/a	0	0	0
3612.00390625	n/a	WORD	7397384	wordpools/wasnorm_wordpool_576.txt	LTP339	ltpFR2	21	18	ARMY	39	n/a	n/a	0	0	0
3614.72998046875	n/a	WORD	7402967	wordpools/wasnorm_wordpool_576.txt	LTP339	ltpFR2	21	18	DINER	467	n/a	n/a	0	0	0
3617.48974609375	n/a	WORD	7408619	wordpools/wasnorm_wordpool_576.txt	LTP339	ltpFR2	21	18	AUTHOR	61	n/a	n/a	0	0	0
3619.94677734375	n/a	WORD	7413651	wordpools/wasnorm_wordpool_576.txt	LTP339	ltpFR2	21	18	KITCHEN	778	n/a	n/a	0	0	0
3622.70556640625	n/a	WORD	7419301	wordpools/wasnorm_wordpool_576.txt	LTP339	ltpFR2	21	18	PACKAGE	997	n/a	n/a	0	0	0
3625.1298828125	n/a	WORD	7424266	wordpools/wasnorm_wordpool_576.txt	LTP339	ltpFR2	21	18	LUGGAGE	847	n/a	n/a	0	0	0
3627.65478515625	n/a	WORD	7429437	wordpools/wasnorm_wordpool_576.txt	LTP339	ltpFR2	21	18	SUITCASE	1403	n/a	n/a	0	0	0
3630.07861328125	n/a	WORD	7434401	wordpools/wasnorm_wordpool_576.txt	LTP339	ltpFR2	21	18	MILDEW	893	n/a	n/a	0	0	0
3632.87158203125	n/a	WORD	7440121	wordpools/wasnorm_wordpool_576.txt	LTP339	ltpFR2	21	18	LIVER	833	n/a	n/a	0	0	0
3635.3125	n/a	WORD	7445120	wordpools/wasnorm_wordpool_576.txt	LTP339	ltpFR2	21	18	AIRPLANE	12	n/a	n/a	0	0	0
3637.8203125	n/a	WORD	7450256	wordpools/wasnorm_wordpool_576.txt	LTP339	ltpFR2	21	18	SUMMIT	1405	n/a	n/a	0	0	0
3640.54736328125	n/a	WORD	7455841	wordpools/wasnorm_wordpool_576.txt	LTP339	ltpFR2	21	18	BUGGY	188	n/a	n/a	0	0	0
3643.27099609375	n/a	WORD	7461419	wordpools/wasnorm_wordpool_576.txt	LTP339	ltpFR2	21	18	VALLEY	1545	n/a	n/a	0	0	0
3645.9970703125	n/a	WORD	7467002	wordpools/wasnorm_wordpool_576.txt	LTP339	ltpFR2	21	18	MUFFIN	929	n/a	n/a	0	0	0
3648.52197265625	n/a	WORD	7472173	wordpools/wasnorm_wordpool_576.txt	LTP339	ltpFR2	21	18	FOREST	593	n/a	n/a	0	0	0
3651.080078125	n/a	WORD	7477412	wordpools/wasnorm_wordpool_576.txt	LTP339	ltpFR2	21	18	EYELASH	546	n/a	n/a	0	0	0
3652.68505859375	n/a	START	7480699	n/a	LTP339	ltpFR2	21	n/a	n/a	n/a	26	n/a	n/a	n/a	n/a
3653.72900390625	n/a	DISTRACTOR	7482837	n/a	LTP339	ltpFR2	21	18	n/a	n/a	n/a	n/a	0	0	0
3653.73779296875	n/a	PROB	7482855	n/a	LTP339	ltpFR2	21	n/a	n/a	n/a	26	19	3	9	7
3655.99560546875	n/a	PROB	7487479	n/a	LTP339	ltpFR2	21	n/a	n/a	n/a	26	14	3	3	8
3658.638671875	n/a	PROB	7492892	n/a	LTP339	ltpFR2	21	n/a	n/a	n/a	26	15	4	9	2
3661.345703125	n/a	PROB	7498436	n/a	LTP339	ltpFR2	21	n/a	n/a	n/a	26	10	1	8	1
3662.716796875	n/a	PROB	7501244	n/a	LTP339	ltpFR2	21	n/a	n/a	n/a	26	14	2	8	4
3664.65673828125	n/a	PROB	7505217	n/a	LTP339	ltpFR2	21	n/a	n/a	n/a	26	13	8	2	3
3666.44677734375	n/a	PROB	7508883	n/a	LTP339	ltpFR2	21	n/a	n/a	n/a	26	16	6	7	3
3669.0546875	n/a	PROB	7514224	n/a	LTP339	ltpFR2	21	n/a	n/a	n/a	26	11	3	6	2
3670.82666015625	n/a	PROB	7517853	n/a	LTP339	ltpFR2	21	n/a	n/a	n/a	26	13	6	9	8
3676.68310546875	n/a	STOP	7529847	n/a	LTP339	ltpFR2	21	n/a	n/a	n/a	26	n/a	n/a	n/a	n/a
3678.58642578125	n/a	REC_START	7533745	n/a	LTP339	ltpFR2	21	18	n/a	n/a	n/a	n/a	0	0	0
3679.29296875	n/a	REC_WORD	7535192	wordpools/wasnorm_wordpool_576.txt	LTP339	ltpFR2	21	18	CITRUS	313	n/a	n/a	0	0	0
3679.84619140625	n/a	REC_WORD	7536325	wordpools/wasnorm_wordpool_576.txt	LTP339	ltpFR2	21	18	CATCHER	258	n/a	n/a	0	0	0
3680.97705078125	n/a	REC_WORD	7538641	wordpools/wasnorm_wordpool_576.txt	LTP339	ltpFR2	21	18	BEEF	113	n/a	n/a	0	0	0
3681.53515625	n/a	REC_WORD	7539784	wordpools/wasnorm_wordpool_576.txt	LTP339	ltpFR2	21	18	OX	994	n/a	n/a	0	0	0
3682.412109375	n/a	REC_WORD	7541580	wordpools/wasnorm_wordpool_576.txt	LTP339	ltpFR2	21	18	CRIB	407	n/a	n/a	0	0	0
3683.08203125	n/a	REC_WORD	7542952	wordpools/wasnorm_wordpool_576.txt	LTP339	ltpFR2	21	18	LIVER	833	n/a	n/a	0	0	0
3769.02587890625	n/a	DISTRACTOR	7718965	n/a	LTP339	ltpFR2	21	19	n/a	n/a	n/a	n/a	0	0	0
3769.02587890625	n/a	START	7718965	n/a	LTP339	ltpFR2	21	n/a	n/a	n/a	27	n/a	n/a	n/a	n/a
3769.04150390625	n/a	PROB	7718997	n/a	LTP339	ltpFR2	21	n/a	n/a	n/a	27	21	7	7	7
3770.880859375	n/a	PROB	7722764	n/a	LTP339	ltpFR2	21	n/a	n/a	n/a	27	9	3	3	3
3772.017578125	n/a	PROB	7725092	n/a	LTP339	ltpFR2	21	n/a	n/a	n/a	27	18	3	7	8
3773.4404296875	n/a	PROB	7728006	n/a	LTP339	ltpFR2	21	n/a	n/a	n/a	27	19	6	7	6
3775.5634765625	n/a	PROB	7732354	n/a	LTP339	ltpFR2	21	n/a	n/a	n/a	27	9	2	6	1
3779.45947265625	n/a	PROB	7740333	n/a	LTP339	ltpFR2	21	n/a	n/a	n/a	27	12	7	2	3
3781.04736328125	n/a	PROB	7743585	n/a	LTP339	ltpFR2	21	n/a	n/a	n/a	27	13	5	5	3
3782.41943359375	n/a	PROB	7746395	n/a	LTP339	ltpFR2	21	n/a	n/a	n/a	27	18	7	9	2
3784.22412109375	n/a	PROB	7750091	n/a	LTP339	ltpFR2	21	n/a	n/a	n/a	27	20	7	6	7
3786.2470703125	n/a	PROB	7754234	n/a	LTP339	ltpFR2	21	n/a	n/a	n/a	27	21	3	1	8
3788.47216796875	n/a	PROB	7758791	n/a	LTP339	ltpFR2	21	n/a	n/a	n/a	27	14	3	2	9
3791.828125	n/a	STOP	7765664	n/a	LTP339	ltpFR2	21	n/a	n/a	n/a	27	n/a	n/a	n/a	n/a
3794.22314453125	n/a	WORD	7770569	wordpools/wasnorm_wordpool_576.txt	LTP339	ltpFR2	21	19	JAPAN	749	n/a	n/a	0	0	0
3797.01513671875	n/a	WORD	7776287	wordpools/wasnorm_wordpool_576.txt	LTP339	ltpFR2	21	19	BULLET	194	n/a	n/a	0	0	0
3799.806640625	n/a	WORD	7782004	wordpools/wasnorm_wordpool_576.txt	LTP339	ltpFR2	21	19	NOMAD	955	n/a	n/a	0	0	0
3802.48388671875	n/a	WORD	7787487	wordpools/wasnorm_wordpool_576.txt	LTP339	ltpFR2	21	19	OUTDOORS	987	n/a	n/a	0	0	0
3805.07470703125	n/a	WORD	7792793	wordpools/wasnorm_wordpool_576.txt	LTP339	ltpFR2	21	19	MISSILE	900	n/a	n/a	0	0	0
3807.66552734375	n/a	WORD	7798099	wordpools/wasnorm_wordpool_576.txt	LTP339	ltpFR2	21	19	PLASTER	1085	n/a	n/a	0	0	0
3810.341796875	n/a	WORD	7803580	wordpools/wasnorm_wordpool_576.txt	LTP339	ltpFR2	21	19	MARINE	869	n/a	n/a	0	0	0
3812.8994140625	n/a	WORD	7808818	wordpools/wasnorm_wordpool_576.txt	LTP339	ltpFR2	21	19	PAIL	1002	n/a	n/a	0	0	0
3815.49267578125	n/a	WORD	7814129	wordpools/wasnorm_wordpool_576.txt	LTP339	ltpFR2	21	19	ACTRESS	6	n/a	n/a	0	0	0
3818.25048828125	n/a	WORD	7819777	wordpools/wasnorm_wordpool_576.txt	LTP339	ltpFR2	21	19	HOUND	724	n/a	n/a	0	0	0
3820.89111328125	n/a	WORD	7825185	wordpools/wasnorm_wordpool_576.txt	LTP339	ltpFR2	21	19	DENTIST	447	n/a	n/a	0	0	0
3823.50146484375	n/a	WORD	7830531	wordpools/wasnorm_wordpool_576.txt	LTP339	ltpFR2	21	19	GANGSTER	620	n/a	n/a	0	0	0
3825.9912109375	n/a	WORD	7835630	wordpools/wasnorm_wordpool_576.txt	LTP339	ltpFR2	21	19	FLEET	578	n/a	n/a	0	0	0
3828.55126953125	n/a	WORD	7840873	wordpools/wasnorm_wordpool_576.txt	LTP339	ltpFR2	21	19	CIGAR	308	n/a	n/a	0	0	0
3831.3251953125	n/a	WORD	7846554	wordpools/wasnorm_wordpool_576.txt	LTP339	ltpFR2	21	19	PATIENT	1024	n/a	n/a	0	0	0
3833.98388671875	n/a	WORD	7851999	wordpools/wasnorm_wordpool_576.txt	LTP339	ltpFR2	21	19	COLONEL	348	n/a	n/a	0	0	0
3836.5927734375	n/a	WORD	7857342	wordpools/wasnorm_wordpool_576.txt	LTP339	ltpFR2	21	19	LACE	792	n/a	n/a	0	0	0
3839.31787109375	n/a	WORD	7862923	wordpools/wasnorm_wordpool_576.txt	LTP339	ltpFR2	21	19	DRESS	495	n/a	n/a	0	0	0
3841.95947265625	n/a	WORD	7868333	wordpools/wasnorm_wordpool_576.txt	LTP339	ltpFR2	21	19	WAGON	1578	n/a	n/a	0	0	0
3844.66748046875	n/a	WORD	7873879	wordpools/wasnorm_wordpool_576.txt	LTP339	ltpFR2	21	19	WAITER	1580	n/a	n/a	0	0	0
3847.12548828125	n/a	WORD	7878913	wordpools/wasnorm_wordpool_576.txt	LTP339	ltpFR2	21	19	CUPBOARD	425	n/a	n/a	0	0	0
3849.650390625	n/a	WORD	7884084	wordpools/wasnorm_wordpool_576.txt	LTP339	ltpFR2	21	19	RIFLE	1192	n/a	n/a	0	0	0
3852.41064453125	n/a	WORD	7889737	wordpools/wasnorm_wordpool_576.txt	LTP339	ltpFR2	21	19	CATTLE	261	n/a	n/a	0	0	0
3855.1513671875	n/a	WORD	7895350	wordpools/wasnorm_wordpool_576.txt	LTP339	ltpFR2	21	19	OINTMENT	974	n/a	n/a	0	0	0
3856.75732421875	n/a	START	7898639	n/a	LTP339	ltpFR2	21	n/a	n/a	n/a	28	n/a	n/a	n/a	n/a
3857.740234375	n/a	DISTRACTOR	7900652	n/a	LTP339	ltpFR2	21	19	n/a	n/a	n/a	n/a	0	0	0
3857.7431640625	n/a	PROB	7900658	n/a	LTP339	ltpFR2	21	n/a	n/a	n/a	28	16	7	3	6
3859.4501953125	n/a	PROB	7904154	n/a	LTP339	ltpFR2	21	n/a	n/a	n/a	28	11	7	2	2
3862.3583984375	n/a	PROB	7910110	n/a	LTP339	ltpFR2	21	n/a	n/a	n/a	28	20	5	6	9
3864.29833984375	n/a	PROB	7914083	n/a	LTP339	ltpFR2	21	n/a	n/a	n/a	28	18	8	7	3
3865.76904296875	n/a	PROB	7917095	n/a	LTP339	ltpFR2	21	n/a	n/a	n/a	28	18	5	9	4
3867.826171875	n/a	PROB	7921308	n/a	LTP339	ltpFR2	21	n/a	n/a	n/a	28	13	9	2	2
3870.384765625	n/a	PROB	7926548	n/a	LTP339	ltpFR2	21	n/a	n/a	n/a	28	9	2	3	2
3872.57568359375	n/a	PROB	7931035	n/a	LTP339	ltpFR2	21	n/a	n/a	n/a	28	10	7	1	2
3875.767578125	n/a	PROB	7937572	n/a	LTP339	ltpFR2	21	n/a	n/a	n/a	28	10	1	3	6
3880.755859375	n/a	STOP	7947788	n/a	LTP339	ltpFR2	21	n/a	n/a	n/a	28	n/a	n/a	n/a	n/a
3882.609375	n/a	REC_START	7951584	n/a	LTP339	ltpFR2	21	19	n/a	n/a	n/a	n/a	0	0	0
3883.2763671875	n/a	REC_WORD	7952950	wordpools/wasnorm_wordpool_576.txt	LTP339	ltpFR2	21	19	JAPAN	749	n/a	n/a	0	0	0
3884.24169921875	n/a	REC_WORD	7954927	wordpools/wasnorm_wordpool_576.txt	LTP339	ltpFR2	21	19	BULLET	194	n/a	n/a	0	0	0
3884.8056640625	n/a	REC_WORD	7956082	wordpools/wasnorm_wordpool_576.txt	LTP339	ltpFR2	21	19	NOMAD	955	n/a	n/a	0	0	0
3885.6962890625	n/a	REC_WORD	7957906	wordpools/wasnorm_wordpool_576.txt	LTP339	ltpFR2	21	19	OUTDOORS	987	n/a	n/a	0	0	0
3886.96923828125	n/a	REC_WORD	7960513	wordpools/wasnorm_wordpool_576.txt	LTP339	ltpFR2	21	19	MISSILE	900	n/a	n/a	0	0	0
3973.046875	n/a	DISTRACTOR	8136800	n/a	LTP339	ltpFR2	21	20	n/a	n/a	n/a	n/a	0	0	0
3973.046875	n/a	START	8136800	n/a	LTP339	ltpFR2	21	n/a	n/a	n/a	29	n/a	n/a	n/a	n/a
3973.06396484375	n/a	PROB	8136835	n/a	LTP339	ltpFR2	21	n/a	n/a	n/a	29	19	4	8	7
3977.5791015625	n/a	PROB	8146082	n/a	LTP339	ltpFR2	21	n/a	n/a	n/a	29	11	3	1	7
3979.03271484375	n/a	PROB	8149059	n/a	LTP339	ltpFR2	21	n/a	n/a	n/a	29	12	2	3	7
3980.68798828125	n/a	PROB	8152449	n/a	LTP339	ltpFR2	21	n/a	n/a	n/a	29	16	7	2	7
3982.259765625	n/a	PROB	8155668	n/a	LTP339	ltpFR2	21	n/a	n/a	n/a	29	14	3	7	4
3983.7646484375	n/a	PROB	8158750	n/a	LTP339	ltpFR2	21	n/a	n/a	n/a	29	15	9	5	1
3986.1728515625	n/a	PROB	8163682	n/a	LTP339	ltpFR2	21	n/a	n/a	n/a	29	9	3	2	4
3988.36279296875	n/a	PROB	8168167	n/a	LTP339	ltpFR2	21	n/a	n/a	n/a	29	17	6	9	2
3991.28857421875	n/a	PROB	8174159	n/a	LTP339	ltpFR2	21	n/a	n/a	n/a	29	22	7	5	9
3993.91455078125	n/a	PROB	8179537	n/a	LTP339	ltpFR2	21	n/a	n/a	n/a	29	17	2	9	6
