onset	duration	trial_type	sample	stim_file	subject	experiment	session	trial	task	item_name	item_num	recog_conf	resp	answer	test_x	test_y	test_z	color_b	color_g	color_r	case	font
245.328	n/a	SESS_START	122664	n/a	LTP263	ltpFR	7	n/a	n/a	n/a	n/a	1	n/a	n/a	0	0	0	n/a	n/a	n/a	n/a	n/a
492.458	n/a	START	246229	n/a	LTP263	ltpFR	7	n/a	n/a	n/a	n/a	n/a	n/a	n/a	n/a	n/a	n/a	n/a	n/a	n/a	n/a	n/a
492.506	n/a	PROB	246253	n/a	LTP263	ltpFR	7	n/a	n/a	n/a	n/a	n/a	n/a	14	1	9	4	n/a	n/a	n/a	n/a	n/a
499.852	n/a	PROB	249926	n/a	LTP263	ltpFR	7	n/a	n/a	n/a	n/a	n/a	n/a	9	2	2	6	n/a	n/a	n/a	n/a	n/a
504.596	n/a	PROB	252298	n/a	LTP263	ltpFR	7	n/a	n/a	n/a	n/a	n/a	n/a	10	3	6	1	n/a	n/a	n/a	n/a	n/a
506.77	n/a	PROB	253385	n/a	LTP263	ltpFR	7	n/a	n/a	n/a	n/a	n/a	n/a	16	4	4	8	n/a	n/a	n/a	n/a	n/a
512.458	n/a	STOP	256229	n/a	LTP263	ltpFR	7	n/a	n/a	n/a	n/a	n/a	n/a	n/a	n/a	n/a	n/a	n/a	n/a	n/a	n/a	n/a
687.504	n/a	START	343752	n/a	LTP263	ltpFR	7	n/a	n/a	n/a	n/a	n/a	n/a	n/a	n/a	n/a	n/a	n/a	n/a	n/a	n/a	n/a
689.018	n/a	PROB	344509	n/a	LTP263	ltpFR	7	n/a	n/a	n/a	n/a	n/a	n/a	10	1	1	8	n/a	n/a	n/a	n/a	n/a
690.726	n/a	PROB	345363	n/a	LTP263	ltpFR	7	n/a	n/a	n/a	n/a	n/a	n/a	12	4	2	6	n/a	n/a	n/a	n/a	n/a
695.504	n/a	STOP	347752	n/a	LTP263	ltpFR	7	n/a	n/a	n/a	n/a	n/a	n/a	n/a	n/a	n/a	n/a	n/a	n/a	n/a	n/a	n/a
696.62	n/a	WORD	348310	wordpools/wasnorm_wordpool_less_exclusions.txt	LTP263	ltpFR	7	1	0	PAIL	1002	n/a	1	n/a	0	0	0	0	0.5869140625	0.422607421875	lower	../fonts/amplitud.ttf
699.632	n/a	START	349816	n/a	LTP263	ltpFR	7	n/a	n/a	n/a	n/a	n/a	n/a	n/a	n/a	n/a	n/a	n/a	n/a	n/a	n/a	n/a
700.502	n/a	PROB	350251	n/a	LTP263	ltpFR	7	n/a	n/a	n/a	n/a	n/a	n/a	13	3	2	8	n/a	n/a	n/a	n/a	n/a
702.552	n/a	PROB	351276	n/a	LTP263	ltpFR	7	n/a	n/a	n/a	n/a	n/a	n/a	10	8	1	1	n/a	n/a	n/a	n/a	n/a
704.31	n/a	PROB	352155	n/a	LTP263	ltpFR	7	n/a	n/a	n/a	n/a	n/a	n/a	16	8	1	7	n/a	n/a	n/a	n/a	n/a
707.418	n/a	STOP	353709	n/a	LTP263	ltpFR	7	n/a	n/a	n/a	n/a	n/a	n/a	n/a	n/a	n/a	n/a	n/a	n/a	n/a	n/a	n/a
708.61	n/a	WORD	354305	wordpools/wasnorm_wordpool_less_exclusions.txt	LTP263	ltpFR	7	1	0	REEF	1177	n/a	1	n/a	0	0	0	0	0.5869140625	0.422607421875	lower	../fonts/amplitud.ttf
711.622	n/a	START	355811	n/a	LTP263	ltpFR	7	n/a	n/a	n/a	n/a	n/a	n/a	n/a	n/a	n/a	n/a	n/a	n/a	n/a	n/a	n/a
712.716	n/a	PROB	356358	n/a	LTP263	ltpFR	7	n/a	n/a	n/a	n/a	n/a	n/a	19	4	5	7	n/a	n/a	n/a	n/a	n/a
719.62	n/a	STOP	359810	n/a	LTP263	ltpFR	7	n/a	n/a	n/a	n/a	n/a	n/a	n/a	n/a	n/a	n/a	n/a	n/a	n/a	n/a	n/a
720.712	n/a	WORD	360356	wordpools/wasnorm_wordpool_less_exclusions.txt	LTP263	ltpFR	7	1	0	COBBLER	335	n/a	0	n/a	0	0	0	0	0.5869140625	0.422607421875	lower	../fonts/amplitud.ttf
723.726	n/a	START	361863	n/a	LTP263	ltpFR	7	n/a	n/a	n/a	n/a	n/a	n/a	n/a	n/a	n/a	n/a	n/a	n/a	n/a	n/a	n/a
724.688	n/a	PROB	362344	n/a	LTP263	ltpFR	7	n/a	n/a	n/a	n/a	n/a	n/a	10	4	5	1	n/a	n/a	n/a	n/a	n/a
727.984	n/a	PROB	363992	n/a	LTP263	ltpFR	7	n/a	n/a	n/a	n/a	n/a	n/a	14	6	2	6	n/a	n/a	n/a	n/a	n/a
731.726	n/a	STOP	365863	n/a	LTP263	ltpFR	7	n/a	n/a	n/a	n/a	n/a	n/a	n/a	n/a	n/a	n/a	n/a	n/a	n/a	n/a	n/a
732.768	n/a	WORD	366384	wordpools/wasnorm_wordpool_less_exclusions.txt	LTP263	ltpFR	7	1	0	BUILDER	190	n/a	1	n/a	0	0	0	0	0.5869140625	0.422607421875	lower	../fonts/amplitud.ttf
735.78	n/a	START	367890	n/a	LTP263	ltpFR	7	n/a	n/a	n/a	n/a	n/a	n/a	n/a	n/a	n/a	n/a	n/a	n/a	n/a	n/a	n/a
736.79	n/a	PROB	368395	n/a	LTP263	ltpFR	7	n/a	n/a	n/a	n/a	n/a	n/a	15	4	1	9	n/a	n/a	n/a	n/a	n/a
738.746	n/a	PROB	369373	n/a	LTP263	ltpFR	7	n/a	n/a	n/a	n/a	n/a	n/a	10	3	3	4	n/a	n/a	n/a	n/a	n/a
743.78	n/a	STOP	371890	n/a	LTP263	ltpFR	7	n/a	n/a	n/a	n/a	n/a	n/a	n/a	n/a	n/a	n/a	n/a	n/a	n/a	n/a	n/a
744.788	n/a	WORD	372394	wordpools/wasnorm_wordpool_less_exclusions.txt	LTP263	ltpFR	7	1	0	CALF	222	n/a	1	n/a	0	0	0	0	0.5869140625	0.422607421875	lower	../fonts/amplitud.ttf
747.8	n/a	START	373900	n/a	LTP263	ltpFR	7	n/a	n/a	n/a	n/a	n/a	n/a	n/a	n/a	n/a	n/a	n/a	n/a	n/a	n/a	n/a
748.97	n/a	PROB	374485	n/a	LTP263	ltpFR	7	n/a	n/a	n/a	n/a	n/a	n/a	10	6	4	2	n/a	n/a	n/a	n/a	n/a
750.888	n/a	PROB	375444	n/a	LTP263	ltpFR	7	n/a	n/a	n/a	n/a	n/a	n/a	18	3	9	6	n/a	n/a	n/a	n/a	n/a
754.604	n/a	STOP	377302	n/a	LTP263	ltpFR	7	n/a	n/a	n/a	n/a	n/a	n/a	n/a	n/a	n/a	n/a	n/a	n/a	n/a	n/a	n/a
756.71	n/a	WORD	378355	wordpools/wasnorm_wordpool_less_exclusions.txt	LTP263	ltpFR	7	1	0	BANANA	77	n/a	0	n/a	0	0	0	0	0.5869140625	0.422607421875	lower	../fonts/amplitud.ttf
759.73	n/a	START	379865	n/a	LTP263	ltpFR	7	n/a	n/a	n/a	n/a	n/a	n/a	n/a	n/a	n/a	n/a	n/a	n/a	n/a	n/a	n/a
760.576	n/a	PROB	380288	n/a	LTP263	ltpFR	7	n/a	n/a	n/a	n/a	n/a	n/a	18	5	9	4	n/a	n/a	n/a	n/a	n/a
767.73	n/a	STOP	383865	n/a	LTP263	ltpFR	7	n/a	n/a	n/a	n/a	n/a	n/a	n/a	n/a	n/a	n/a	n/a	n/a	n/a	n/a	n/a
768.778	n/a	WORD	384389	wordpools/wasnorm_wordpool_less_exclusions.txt	LTP263	ltpFR	7	1	0	OATMEAL	967	n/a	0	n/a	0	0	0	0	0.5869140625	0.422607421875	lower	../fonts/amplitud.ttf
771.79	n/a	START	385895	n/a	LTP263	ltpFR	7	n/a	n/a	n/a	n/a	n/a	n/a	n/a	n/a	n/a	n/a	n/a	n/a	n/a	n/a	n/a
772.878	n/a	PROB	386439	n/a	LTP263	ltpFR	7	n/a	n/a	n/a	n/a	n/a	n/a	21	9	6	6	n/a	n/a	n/a	n/a	n/a
775.472	n/a	PROB	387736	n/a	LTP263	ltpFR	7	n/a	n/a	n/a	n/a	n/a	n/a	15	6	3	6	n/a	n/a	n/a	n/a	n/a
779.792	n/a	STOP	389896	n/a	LTP263	ltpFR	7	n/a	n/a	n/a	n/a	n/a	n/a	n/a	n/a	n/a	n/a	n/a	n/a	n/a	n/a	n/a
780.792	n/a	WORD	390396	wordpools/wasnorm_wordpool_less_exclusions.txt	LTP263	ltpFR	7	1	0	BUN	197	n/a	0	n/a	0	0	0	0	0.5869140625	0.422607421875	lower	../fonts/amplitud.ttf
783.804	n/a	START	391902	n/a	LTP263	ltpFR	7	n/a	n/a	n/a	n/a	n/a	n/a	n/a	n/a	n/a	n/a	n/a	n/a	n/a	n/a	n/a
784.624	n/a	PROB	392312	n/a	LTP263	ltpFR	7	n/a	n/a	n/a	n/a	n/a	n/a	14	2	8	2	n/a	n/a	n/a	n/a	n/a
786.34	n/a	PROB	393170	n/a	LTP263	ltpFR	7	n/a	n/a	n/a	n/a	n/a	n/a	12	5	3	4	n/a	n/a	n/a	n/a	n/a
790.044	n/a	PROB	395022	n/a	LTP263	ltpFR	7	n/a	n/a	n/a	n/a	n/a	n/a	9	7	7	1	n/a	n/a	n/a	n/a	n/a
791.334	n/a	STOP	395667	n/a	LTP263	ltpFR	7	n/a	n/a	n/a	n/a	n/a	n/a	n/a	n/a	n/a	n/a	n/a	n/a	n/a	n/a	n/a
792.93	n/a	WORD	396465	wordpools/wasnorm_wordpool_less_exclusions.txt	LTP263	ltpFR	7	1	0	BUS	201	n/a	1	n/a	0	0	0	0	0.5869140625	0.422607421875	lower	../fonts/amplitud.ttf
795.942	n/a	START	397971	n/a	LTP263	ltpFR	7	n/a	n/a	n/a	n/a	n/a	n/a	n/a	n/a	n/a	n/a	n/a	n/a	n/a	n/a	n/a
803.944	n/a	STOP	401972	n/a	LTP263	ltpFR	7	n/a	n/a	n/a	n/a	n/a	n/a	n/a	n/a	n/a	n/a	n/a	n/a	n/a	n/a	n/a
804.91	n/a	WORD	402455	wordpools/wasnorm_wordpool_less_exclusions.txt	LTP263	ltpFR	7	1	0	FROST	609	n/a	0	n/a	0	0	0	0	0.5869140625	0.422607421875	lower	../fonts/amplitud.ttf
807.922	n/a	START	403961	n/a	LTP263	ltpFR	7	n/a	n/a	n/a	n/a	n/a	n/a	n/a	n/a	n/a	n/a	n/a	n/a	n/a	n/a	n/a
809.066	n/a	PROB	404533	n/a	LTP263	ltpFR	7	n/a	n/a	n/a	n/a	n/a	n/a	12	9	1	2	n/a	n/a	n/a	n/a	n/a
810.65	n/a	PROB	405325	n/a	LTP263	ltpFR	7	n/a	n/a	n/a	n/a	n/a	n/a	18	5	5	8	n/a	n/a	n/a	n/a	n/a
813.008	n/a	PROB	406504	n/a	LTP263	ltpFR	7	n/a	n/a	n/a	n/a	n/a	n/a	19	8	5	7	n/a	n/a	n/a	n/a	n/a
815.688	n/a	STOP	407844	n/a	LTP263	ltpFR	7	n/a	n/a	n/a	n/a	n/a	n/a	n/a	n/a	n/a	n/a	n/a	n/a	n/a	n/a	n/a
816.822	n/a	WORD	408411	wordpools/wasnorm_wordpool_less_exclusions.txt	LTP263	ltpFR	7	1	0	SKI	1316	n/a	1	n/a	0	0	0	0	0.5869140625	0.422607421875	lower	../fonts/amplitud.ttf
819.834	n/a	START	409917	n/a	LTP263	ltpFR	7	n/a	n/a	n/a	n/a	n/a	n/a	n/a	n/a	n/a	n/a	n/a	n/a	n/a	n/a	n/a
820.922	n/a	PROB	410461	n/a	LTP263	ltpFR	7	n/a	n/a	n/a	n/a	n/a	n/a	16	3	7	6	n/a	n/a	n/a	n/a	n/a
825.138	n/a	PROB	412569	n/a	LTP263	ltpFR	7	n/a	n/a	n/a	n/a	n/a	n/a	14	9	4	1	n/a	n/a	n/a	n/a	n/a
826.776	n/a	STOP	413388	n/a	LTP263	ltpFR	7	n/a	n/a	n/a	n/a	n/a	n/a	n/a	n/a	n/a	n/a	n/a	n/a	n/a	n/a	n/a
828.824	n/a	WORD	414412	wordpools/wasnorm_wordpool_less_exclusions.txt	LTP263	ltpFR	7	1	0	BALCONY	72	n/a	1	n/a	0	0	0	0	0.5869140625	0.422607421875	lower	../fonts/amplitud.ttf
831.836	n/a	START	415918	n/a	LTP263	ltpFR	7	n/a	n/a	n/a	n/a	n/a	n/a	n/a	n/a	n/a	n/a	n/a	n/a	n/a	n/a	n/a
832.9	n/a	PROB	416450	n/a	LTP263	ltpFR	7	n/a	n/a	n/a	n/a	n/a	n/a	10	4	1	5	n/a	n/a	n/a	n/a	n/a
834.38	n/a	PROB	417190	n/a	LTP263	ltpFR	7	n/a	n/a	n/a	n/a	n/a	n/a	16	2	5	9	n/a	n/a	n/a	n/a	n/a
836.922	n/a	PROB	418461	n/a	LTP263	ltpFR	7	n/a	n/a	n/a	n/a	n/a	n/a	19	9	4	6	n/a	n/a	n/a	n/a	n/a
839.144	n/a	STOP	419572	n/a	LTP263	ltpFR	7	n/a	n/a	n/a	n/a	n/a	n/a	n/a	n/a	n/a	n/a	n/a	n/a	n/a	n/a	n/a
840.732	n/a	WORD	420366	wordpools/wasnorm_wordpool_less_exclusions.txt	LTP263	ltpFR	7	1	0	TENT	1449	n/a	1	n/a	0	0	0	0	0.5869140625	0.422607421875	lower	../fonts/amplitud.ttf
843.744	n/a	START	421872	n/a	LTP263	ltpFR	7	n/a	n/a	n/a	n/a	n/a	n/a	n/a	n/a	n/a	n/a	n/a	n/a	n/a	n/a	n/a
844.77	n/a	PROB	422385	n/a	LTP263	ltpFR	7	n/a	n/a	n/a	n/a	n/a	n/a	8	2	2	4	n/a	n/a	n/a	n/a	n/a
848.284	n/a	PROB	424142	n/a	LTP263	ltpFR	7	n/a	n/a	n/a	n/a	n/a	n/a	10	4	1	5	n/a	n/a	n/a	n/a	n/a
849.866	n/a	PROB	424933	n/a	LTP263	ltpFR	7	n/a	n/a	n/a	n/a	n/a	n/a	13	4	3	6	n/a	n/a	n/a	n/a	n/a
851.65	n/a	STOP	425825	n/a	LTP263	ltpFR	7	n/a	n/a	n/a	n/a	n/a	n/a	n/a	n/a	n/a	n/a	n/a	n/a	n/a	n/a	n/a
852.684	n/a	WORD	426342	wordpools/wasnorm_wordpool_less_exclusions.txt	LTP263	ltpFR	7	1	0	DRIVEWAY	500	n/a	1	n/a	0	0	0	0	0.5869140625	0.422607421875	lower	../fonts/amplitud.ttf
855.696	n/a	START	427848	n/a	LTP263	ltpFR	7	n/a	n/a	n/a	n/a	n/a	n/a	n/a	n/a	n/a	n/a	n/a	n/a	n/a	n/a	n/a
856.848	n/a	PROB	428424	n/a	LTP263	ltpFR	7	n/a	n/a	n/a	n/a	n/a	n/a	10	2	6	2	n/a	n/a	n/a	n/a	n/a
859.42	n/a	PROB	429710	n/a	LTP263	ltpFR	7	n/a	n/a	n/a	n/a	n/a	n/a	16	5	3	8	n/a	n/a	n/a	n/a	n/a
863.226	n/a	STOP	431613	n/a	LTP263	ltpFR	7	n/a	n/a	n/a	n/a	n/a	n/a	n/a	n/a	n/a	n/a	n/a	n/a	n/a	n/a	n/a
864.606	n/a	WORD	432303	wordpools/wasnorm_wordpool_less_exclusions.txt	LTP263	ltpFR	7	1	0	CANOE	233	n/a	1	n/a	0	0	0	0	0.5869140625	0.422607421875	lower	../fonts/amplitud.ttf
867.618	n/a	START	433809	n/a	LTP263	ltpFR	7	n/a	n/a	n/a	n/a	n/a	n/a	n/a	n/a	n/a	n/a	n/a	n/a	n/a	n/a	n/a
868.47	n/a	PROB	434235	n/a	LTP263	ltpFR	7	n/a	n/a	n/a	n/a	n/a	n/a	1	7	7	8	n/a	n/a	n/a	n/a	n/a
872.084	n/a	PROB	436042	n/a	LTP263	ltpFR	7	n/a	n/a	n/a	n/a	n/a	n/a	19	6	5	8	n/a	n/a	n/a	n/a	n/a
874.444	n/a	STOP	437222	n/a	LTP263	ltpFR	7	n/a	n/a	n/a	n/a	n/a	n/a	n/a	n/a	n/a	n/a	n/a	n/a	n/a	n/a	n/a
876.592	n/a	WORD	438296	wordpools/wasnorm_wordpool_less_exclusions.txt	LTP263	ltpFR	7	1	0	RAFT	1159	n/a	1	n/a	0	0	0	0	0.5869140625	0.422607421875	lower	../fonts/amplitud.ttf
879.604	n/a	START	439802	n/a	LTP263	ltpFR	7	n/a	n/a	n/a	n/a	n/a	n/a	n/a	n/a	n/a	n/a	n/a	n/a	n/a	n/a	n/a
880.624	n/a	PROB	440312	n/a	LTP263	ltpFR	7	n/a	n/a	n/a	n/a	n/a	n/a	4	1	5	1	n/a	n/a	n/a	n/a	n/a
882.676	n/a	PROB	441338	n/a	LTP263	ltpFR	7	n/a	n/a	n/a	n/a	n/a	n/a	15	1	7	7	n/a	n/a	n/a	n/a	n/a
886.316	n/a	STOP	443158	n/a	LTP263	ltpFR	7	n/a	n/a	n/a	n/a	n/a	n/a	n/a	n/a	n/a	n/a	n/a	n/a	n/a	n/a	n/a
889.368	n/a	REC_START	444684	n/a	LTP263	ltpFR	7	1	n/a	n/a	n/a	n/a	n/a	n/a	0	0	0	n/a	n/a	n/a	n/a	n/a
890.83	n/a	REC_WORD	445415	wordpools/wasnorm_wordpool_less_exclusions.txt	LTP263	ltpFR	7	1	0	PAIL	1002	n/a	1	n/a	0	0	0	n/a	n/a	n/a	n/a	n/a
891.614	n/a	REC_WORD	445807	wordpools/wasnorm_wordpool_less_exclusions.txt	LTP263	ltpFR	7	1	0	BANANA	77	n/a	0	n/a	0	0	0	n/a	n/a	n/a	n/a	n/a
892.322	n/a	REC_WORD	446161	wordpools/wasnorm_wordpool_less_exclusions.txt	LTP263	ltpFR	7	1	0	FROST	609	n/a	0	n/a	0	0	0	n/a	n/a	n/a	n/a	n/a
893.348	n/a	REC_WORD	446674	wordpools/wasnorm_wordpool_less_exclusions.txt	LTP263	ltpFR	7	1	0	CANOE	233	n/a	1	n/a	0	0	0	n/a	n/a	n/a	n/a	n/a
895.56	n/a	REC_WORD	447780	wordpools/wasnorm_wordpool_less_exclusions.txt	LTP263	ltpFR	7	1	0	SKI	1316	n/a	1	n/a	0	0	0	n/a	n/a	n/a	n/a	n/a
896.688	n/a	REC_WORD	448344	wordpools/wasnorm_wordpool_less_exclusions.txt	LTP263	ltpFR	7	1	0	REEF	1177	n/a	1	n/a	0	0	0	n/a	n/a	n/a	n/a	n/a
983.76	n/a	WORD	491880	wordpools/wasnorm_wordpool_less_exclusions.txt	LTP263	ltpFR	7	2	0	AUTOMOBILE	62	n/a	1	n/a	0	0	0	0	0.5869140625	0.422607421875	lower	../fonts/amplitud.ttf
987.876	n/a	WORD	493938	wordpools/wasnorm_wordpool_less_exclusions.txt	LTP263	ltpFR	7	2	0	MESSAGE	888	n/a	0	n/a	0	0	0	0	0.5869140625	0.422607421875	lower	../fonts/amplitud.ttf
991.892	n/a	WORD	495946	wordpools/wasnorm_wordpool_less_exclusions.txt	LTP263	ltpFR	7	2	0	CREEK	404	n/a	1	n/a	0	0	0	0	0.5869140625	0.422607421875	lower	../fonts/amplitud.ttf
995.964	n/a	WORD	497982	wordpools/wasnorm_wordpool_less_exclusions.txt	LTP263	ltpFR	7	2	0	MOAT	903	n/a	1	n/a	0	0	0	0	0.5869140625	0.422607421875	lower	../fonts/amplitud.ttf
999.928	n/a	WORD	499964	wordpools/wasnorm_wordpool_less_exclusions.txt	LTP263	ltpFR	7	2	0	CANDY	230	n/a	0	n/a	0	0	0	0	0.5869140625	0.422607421875	lower	../fonts/amplitud.ttf
1003.776	n/a	WORD	501888	wordpools/wasnorm_wordpool_less_exclusions.txt	LTP263	ltpFR	7	2	0	PIE	1062	n/a	0	n/a	0	0	0	0	0.5869140625	0.422607421875	lower	../fonts/amplitud.ttf
1007.704	n/a	WORD	503852	wordpools/wasnorm_wordpool_less_exclusions.txt	LTP263	ltpFR	7	2	0	DRIVER	499	n/a	1	n/a	0	0	0	0	0.5869140625	0.422607421875	lower	../fonts/amplitud.ttf
1011.842	n/a	WORD	505921	wordpools/wasnorm_wordpool_less_exclusions.txt	LTP263	ltpFR	7	2	0	MINK	897	n/a	1	n/a	0	0	0	0	0.5869140625	0.422607421875	lower	../fonts/amplitud.ttf
1016.056	n/a	WORD	508028	wordpools/wasnorm_wordpool_less_exclusions.txt	LTP263	ltpFR	7	2	0	LOLLIPOP	842	n/a	0	n/a	0	0	0	0	0.5869140625	0.422607421875	lower	../fonts/amplitud.ttf
1020.098	n/a	WORD	510049	wordpools/wasnorm_wordpool_less_exclusions.txt	LTP263	ltpFR	7	2	0	STOOL	1386	n/a	1	n/a	0	0	0	0	0.5869140625	0.422607421875	lower	../fonts/amplitud.ttf
1024.188	n/a	WORD	512094	wordpools/wasnorm_wordpool_less_exclusions.txt	LTP263	ltpFR	7	2	0	PRINTER	1126	n/a	1	n/a	0	0	0	0	0.5869140625	0.422607421875	lower	../fonts/amplitud.ttf
1028.288	n/a	WORD	514144	wordpools/wasnorm_wordpool_less_exclusions.txt	LTP263	ltpFR	7	2	0	MARKET	871	n/a	1	n/a	0	0	0	0	0.5869140625	0.422607421875	lower	../fonts/amplitud.ttf
1032.404	n/a	WORD	516202	wordpools/wasnorm_wordpool_less_exclusions.txt	LTP263	ltpFR	7	2	0	PADDING	999	n/a	1	n/a	0	0	0	0	0.5869140625	0.422607421875	lower	../fonts/amplitud.ttf
1036.52	n/a	WORD	518260	wordpools/wasnorm_wordpool_less_exclusions.txt	LTP263	ltpFR	7	2	0	FIREPLACE	570	n/a	1	n/a	0	0	0	0	0.5869140625	0.422607421875	lower	../fonts/amplitud.ttf
1040.502	n/a	WORD	520251	wordpools/wasnorm_wordpool_less_exclusions.txt	LTP263	ltpFR	7	2	0	CABIN	211	n/a	1	n/a	0	0	0	0	0.5869140625	0.422607421875	lower	../fonts/amplitud.ttf
1044.41	n/a	WORD	522205	wordpools/wasnorm_wordpool_less_exclusions.txt	LTP263	ltpFR	7	2	0	SQUIRREL	1362	n/a	0	n/a	0	0	0	0	0.5869140625	0.422607421875	lower	../fonts/amplitud.ttf
1047.422	n/a	START	523711	n/a	LTP263	ltpFR	7	n/a	n/a	n/a	n/a	n/a	n/a	n/a	n/a	n/a	n/a	n/a	n/a	n/a	n/a	n/a
1048.308	n/a	PROB	524154	n/a	LTP263	ltpFR	7	n/a	n/a	n/a	n/a	n/a	n/a	12	1	6	5	n/a	n/a	n/a	n/a	n/a
1049.998	n/a	PROB	524999	n/a	LTP263	ltpFR	7	n/a	n/a	n/a	n/a	n/a	n/a	17	5	3	9	n/a	n/a	n/a	n/a	n/a
1055.422	n/a	STOP	527711	n/a	LTP263	ltpFR	7	n/a	n/a	n/a	n/a	n/a	n/a	n/a	n/a	n/a	n/a	n/a	n/a	n/a	n/a	n/a
1057.332	n/a	REC_START	528666	n/a	LTP263	ltpFR	7	2	n/a	n/a	n/a	n/a	n/a	n/a	0	0	0	n/a	n/a	n/a	n/a	n/a
1059.698	n/a	REC_WORD	529849	wordpools/wasnorm_wordpool_less_exclusions.txt	LTP263	ltpFR	7	2	0	AUTOMOBILE	62	n/a	1	n/a	0	0	0	n/a	n/a	n/a	n/a	n/a
1060.6	n/a	REC_WORD	530300	wordpools/wasnorm_wordpool_less_exclusions.txt	LTP263	ltpFR	7	2	0	MESSAGE	888	n/a	0	n/a	0	0	0	n/a	n/a	n/a	n/a	n/a
1061.546	n/a	REC_WORD	530773	wordpools/wasnorm_wordpool_less_exclusions.txt	LTP263	ltpFR	7	2	0	CANDY	230	n/a	0	n/a	0	0	0	n/a	n/a	n/a	n/a	n/a
1062.512	n/a	REC_WORD	531256	wordpools/wasnorm_wordpool_less_exclusions.txt	LTP263	ltpFR	7	2	0	PIE	1062	n/a	0	n/a	0	0	0	n/a	n/a	n/a	n/a	n/a
1063.31	n/a	REC_WORD_VV	531655	wordpools/wasnorm_wordpool_less_exclusions.txt	LTP263	ltpFR	7	2	n/a	<>	-1	n/a	n/a	n/a	0	0	0	n/a	n/a	n/a	n/a	n/a
1063.906	n/a	REC_WORD	531953	wordpools/wasnorm_wordpool_less_exclusions.txt	LTP263	ltpFR	7	2	0	LOLLIPOP	842	n/a	0	n/a	0	0	0	n/a	n/a	n/a	n/a	n/a
1065.102	n/a	REC_WORD	532551	wordpools/wasnorm_wordpool_less_exclusions.txt	LTP263	ltpFR	7	2	0	MOAT	903	n/a	1	n/a	0	0	0	n/a	n/a	n/a	n/a	n/a
1065.952	n/a	REC_WORD	532976	wordpools/wasnorm_wordpool_less_exclusions.txt	LTP263	ltpFR	7	2	0	CREEK	404	n/a	1	n/a	0	0	0	n/a	n/a	n/a	n/a	n/a
1066.708	n/a	REC_WORD	533354	wordpools/wasnorm_wordpool_less_exclusions.txt	LTP263	ltpFR	7	2	n/a	SUPERMARKET	1409	n/a	n/a	n/a	0	0	0	n/a	n/a	n/a	n/a	n/a
1069.12	n/a	REC_WORD	534560	wordpools/wasnorm_wordpool_less_exclusions.txt	LTP263	ltpFR	7	2	0	FIREPLACE	570	n/a	1	n/a	0	0	0	n/a	n/a	n/a	n/a	n/a
1070.656	n/a	REC_WORD	535328	wordpools/wasnorm_wordpool_less_exclusions.txt	LTP263	ltpFR	7	2	0	CABIN	211	n/a	1	n/a	0	0	0	n/a	n/a	n/a	n/a	n/a
1071.478	n/a	REC_WORD	535739	wordpools/wasnorm_wordpool_less_exclusions.txt	LTP263	ltpFR	7	2	0	SQUIRREL	1362	n/a	0	n/a	0	0	0	n/a	n/a	n/a	n/a	n/a
1073.526	n/a	REC_WORD	536763	wordpools/wasnorm_wordpool_less_exclusions.txt	LTP263	ltpFR	7	2	0	STOOL	1386	n/a	1	n/a	0	0	0	n/a	n/a	n/a	n/a	n/a
1074.71	n/a	REC_WORD	537355	wordpools/wasnorm_wordpool_less_exclusions.txt	LTP263	ltpFR	7	2	0	MINK	897	n/a	1	n/a	0	0	0	n/a	n/a	n/a	n/a	n/a
1075.586	n/a	REC_WORD	537793	wordpools/wasnorm_wordpool_less_exclusions.txt	LTP263	ltpFR	7	2	0	DRIVER	499	n/a	1	n/a	0	0	0	n/a	n/a	n/a	n/a	n/a
1078.532	n/a	REC_WORD	539266	wordpools/wasnorm_wordpool_less_exclusions.txt	LTP263	ltpFR	7	2	0	PRINTER	1126	n/a	1	n/a	0	0	0	n/a	n/a	n/a	n/a	n/a
1079.59	n/a	REC_WORD	539795	wordpools/wasnorm_wordpool_less_exclusions.txt	LTP263	ltpFR	7	2	0	PADDING	999	n/a	1	n/a	0	0	0	n/a	n/a	n/a	n/a	n/a
1085.596	n/a	REC_WORD	542798	wordpools/wasnorm_wordpool_less_exclusions.txt	LTP263	ltpFR	7	2	0	AUTOMOBILE	62	n/a	1	n/a	0	0	0	n/a	n/a	n/a	n/a	n/a
1098.04	n/a	REC_WORD	549020	wordpools/wasnorm_wordpool_less_exclusions.txt	LTP263	ltpFR	7	2	0	FIREPLACE	570	n/a	1	n/a	0	0	0	n/a	n/a	n/a	n/a	n/a
1174.44	n/a	WORD	587220	wordpools/wasnorm_wordpool_less_exclusions.txt	LTP263	ltpFR	7	3	1	BARN	89	n/a	1	n/a	0	0	0	1	0.412841796875	0.57763671875	upper	../fonts/zerothre.ttf
1178.58	n/a	WORD	589290	wordpools/wasnorm_wordpool_less_exclusions.txt	LTP263	ltpFR	7	3	1	RADIATOR	1156	n/a	1	n/a	0	0	0	1	0.412841796875	0.57763671875	upper	../fonts/zerothre.ttf
1182.454	n/a	WORD	591227	wordpools/wasnorm_wordpool_less_exclusions.txt	LTP263	ltpFR	7	3	1	SHELL	1281	n/a	0	n/a	0	0	0	1	0.412841796875	0.57763671875	upper	../fonts/zerothre.ttf
1186.376	n/a	WORD	593188	wordpools/wasnorm_wordpool_less_exclusions.txt	LTP263	ltpFR	7	3	1	FLIPPER	580	n/a	0	n/a	0	0	0	1	0.412841796875	0.57763671875	upper	../fonts/zerothre.ttf
1190.534	n/a	WORD	595267	wordpools/wasnorm_wordpool_less_exclusions.txt	LTP263	ltpFR	7	3	1	PASSENGER	1020	n/a	1	n/a	0	0	0	1	0.412841796875	0.57763671875	upper	../fonts/zerothre.ttf
1194.388	n/a	WORD	597194	wordpools/wasnorm_wordpool_less_exclusions.txt	LTP263	ltpFR	7	3	1	CATHEDRAL	260	n/a	0	n/a	0	0	0	1	0.412841796875	0.57763671875	upper	../fonts/zerothre.ttf
1198.282	n/a	WORD	599141	wordpools/wasnorm_wordpool_less_exclusions.txt	LTP263	ltpFR	7	3	1	BIBLE	124	n/a	1	n/a	0	0	0	1	0.412841796875	0.57763671875	upper	../fonts/zerothre.ttf
1202.252	n/a	WORD	601126	wordpools/wasnorm_wordpool_less_exclusions.txt	LTP263	ltpFR	7	3	1	HAY	693	n/a	1	n/a	0	0	0	1	0.412841796875	0.57763671875	upper	../fonts/zerothre.ttf
1206.284	n/a	WORD	603142	wordpools/wasnorm_wordpool_less_exclusions.txt	LTP263	ltpFR	7	3	1	POWDER	1117	n/a	0	n/a	0	0	0	1	0.412841796875	0.57763671875	upper	../fonts/zerothre.ttf
1210.166	n/a	WORD	605083	wordpools/wasnorm_wordpool_less_exclusions.txt	LTP263	ltpFR	7	3	1	BEET	115	n/a	1	n/a	0	0	0	1	0.412841796875	0.57763671875	upper	../fonts/zerothre.ttf
1214.046	n/a	WORD	607023	wordpools/wasnorm_wordpool_less_exclusions.txt	LTP263	ltpFR	7	3	1	MOON	914	n/a	1	n/a	0	0	0	1	0.412841796875	0.57763671875	upper	../fonts/zerothre.ttf
1218.174	n/a	WORD	609087	wordpools/wasnorm_wordpool_less_exclusions.txt	LTP263	ltpFR	7	3	1	SANDWICH	1232	n/a	1	n/a	0	0	0	1	0.412841796875	0.57763671875	upper	../fonts/zerothre.ttf
1222.178	n/a	WORD	611089	wordpools/wasnorm_wordpool_less_exclusions.txt	LTP263	ltpFR	7	3	1	EMPLOYEE	531	n/a	1	n/a	0	0	0	1	0.412841796875	0.57763671875	upper	../fonts/zerothre.ttf
1226.052	n/a	WORD	613026	wordpools/wasnorm_wordpool_less_exclusions.txt	LTP263	ltpFR	7	3	1	EMPLOYER	532	n/a	1	n/a	0	0	0	1	0.412841796875	0.57763671875	upper	../fonts/zerothre.ttf
1229.884	n/a	WORD	614942	wordpools/wasnorm_wordpool_less_exclusions.txt	LTP263	ltpFR	7	3	1	MONUMENT	913	n/a	0	n/a	0	0	0	1	0.412841796875	0.57763671875	upper	../fonts/zerothre.ttf
1234.022	n/a	WORD	617011	wordpools/wasnorm_wordpool_less_exclusions.txt	LTP263	ltpFR	7	3	1	HERO	706	n/a	1	n/a	0	0	0	1	0.412841796875	0.57763671875	upper	../fonts/zerothre.ttf
1237.036	n/a	START	618518	n/a	LTP263	ltpFR	7	n/a	n/a	n/a	n/a	n/a	n/a	n/a	n/a	n/a	n/a	n/a	n/a	n/a	n/a	n/a
1238.006	n/a	PROB	619003	n/a	LTP263	ltpFR	7	n/a	n/a	n/a	n/a	n/a	n/a	11	1	7	3	n/a	n/a	n/a	n/a	n/a
1239.74	n/a	PROB	619870	n/a	LTP263	ltpFR	7	n/a	n/a	n/a	n/a	n/a	n/a	7	3	3	1	n/a	n/a	n/a	n/a	n/a
1243.622	n/a	STOP	621811	n/a	LTP263	ltpFR	7	n/a	n/a	n/a	n/a	n/a	n/a	n/a	n/a	n/a	n/a	n/a	n/a	n/a	n/a	n/a
1246.856	n/a	REC_START	623428	n/a	LTP263	ltpFR	7	3	n/a	n/a	n/a	n/a	n/a	n/a	0	0	0	n/a	n/a	n/a	n/a	n/a
1248.782	n/a	REC_WORD	624391	wordpools/wasnorm_wordpool_less_exclusions.txt	LTP263	ltpFR	7	3	1	CATHEDRAL	260	n/a	0	n/a	0	0	0	n/a	n/a	n/a	n/a	n/a
1251.572	n/a	REC_WORD	625786	wordpools/wasnorm_wordpool_less_exclusions.txt	LTP263	ltpFR	7	3	1	BEET	115	n/a	1	n/a	0	0	0	n/a	n/a	n/a	n/a	n/a
1252.308	n/a	REC_WORD	626154	wordpools/wasnorm_wordpool_less_exclusions.txt	LTP263	ltpFR	7	3	1	POWDER	1117	n/a	0	n/a	0	0	0	n/a	n/a	n/a	n/a	n/a
1256.854	n/a	REC_WORD	628427	wordpools/wasnorm_wordpool_less_exclusions.txt	LTP263	ltpFR	7	3	1	EMPLOYER	532	n/a	1	n/a	0	0	0	n/a	n/a	n/a	n/a	n/a
1261.006	n/a	REC_WORD	630503	wordpools/wasnorm_wordpool_less_exclusions.txt	LTP263	ltpFR	7	3	1	BIBLE	124	n/a	1	n/a	0	0	0	n/a	n/a	n/a	n/a	n/a
1270.088	n/a	REC_WORD	635044	wordpools/wasnorm_wordpool_less_exclusions.txt	LTP263	ltpFR	7	3	1	HAY	693	n/a	1	n/a	0	0	0	n/a	n/a	n/a	n/a	n/a
1271.308	n/a	REC_WORD	635654	wordpools/wasnorm_wordpool_less_exclusions.txt	LTP263	ltpFR	7	3	1	SANDWICH	1232	n/a	1	n/a	0	0	0	n/a	n/a	n/a	n/a	n/a
1323.65	n/a	START	661825	n/a	LTP263	ltpFR	7	n/a	n/a	n/a	n/a	n/a	n/a	n/a	n/a	n/a	n/a	n/a	n/a	n/a	n/a	n/a
1325.164	n/a	PROB	662582	n/a	LTP263	ltpFR	7	n/a	n/a	n/a	n/a	n/a	n/a	10	1	8	1	n/a	n/a	n/a	n/a	n/a
1326.878	n/a	PROB	663439	n/a	LTP263	ltpFR	7	n/a	n/a	n/a	n/a	n/a	n/a	1	1	6	7	n/a	n/a	n/a	n/a	n/a
1328.394	n/a	PROB	664197	n/a	LTP263	ltpFR	7	n/a	n/a	n/a	n/a	n/a	n/a	17	7	5	6	n/a	n/a	n/a	n/a	n/a
1330.66	n/a	STOP	665330	n/a	LTP263	ltpFR	7	n/a	n/a	n/a	n/a	n/a	n/a	n/a	n/a	n/a	n/a	n/a	n/a	n/a	n/a	n/a
1332.552	n/a	WORD	666276	wordpools/wasnorm_wordpool_less_exclusions.txt	LTP263	ltpFR	7	4	1	NIECE	952	n/a	1	n/a	0	0	0	1	0.412841796875	0.57763671875	upper	../fonts/zerothre.ttf
1335.562	n/a	START	667781	n/a	LTP263	ltpFR	7	n/a	n/a	n/a	n/a	n/a	n/a	n/a	n/a	n/a	n/a	n/a	n/a	n/a	n/a	n/a
1336.476	n/a	PROB	668238	n/a	LTP263	ltpFR	7	n/a	n/a	n/a	n/a	n/a	n/a	11	2	7	1	n/a	n/a	n/a	n/a	n/a
1338.39	n/a	PROB	669195	n/a	LTP263	ltpFR	7	n/a	n/a	n/a	n/a	n/a	n/a	5	2	1	2	n/a	n/a	n/a	n/a	n/a
1339.712	n/a	PROB	669856	n/a	LTP263	ltpFR	7	n/a	n/a	n/a	n/a	n/a	n/a	10	4	3	3	n/a	n/a	n/a	n/a	n/a
1341.478	n/a	PROB	670739	n/a	LTP263	ltpFR	7	n/a	n/a	n/a	n/a	n/a	n/a	13	2	3	8	n/a	n/a	n/a	n/a	n/a
1343.02	n/a	STOP	671510	n/a	LTP263	ltpFR	7	n/a	n/a	n/a	n/a	n/a	n/a	n/a	n/a	n/a	n/a	n/a	n/a	n/a	n/a	n/a
1344.412	n/a	WORD	672206	wordpools/wasnorm_wordpool_less_exclusions.txt	LTP263	ltpFR	7	4	1	TWIG	1527	n/a	0	n/a	0	0	0	1	0.412841796875	0.57763671875	upper	../fonts/zerothre.ttf
1347.424	n/a	START	673712	n/a	LTP263	ltpFR	7	n/a	n/a	n/a	n/a	n/a	n/a	n/a	n/a	n/a	n/a	n/a	n/a	n/a	n/a	n/a
1348.272	n/a	PROB	674136	n/a	LTP263	ltpFR	7	n/a	n/a	n/a	n/a	n/a	n/a	7	1	4	2	n/a	n/a	n/a	n/a	n/a
1350.496	n/a	PROB	675248	n/a	LTP263	ltpFR	7	n/a	n/a	n/a	n/a	n/a	n/a	20	4	7	9	n/a	n/a	n/a	n/a	n/a
1353.374	n/a	PROB	676687	n/a	LTP263	ltpFR	7	n/a	n/a	n/a	n/a	n/a	n/a	17	8	8	2	n/a	n/a	n/a	n/a	n/a
1355.18	n/a	STOP	677590	n/a	LTP263	ltpFR	7	n/a	n/a	n/a	n/a	n/a	n/a	n/a	n/a	n/a	n/a	n/a	n/a	n/a	n/a	n/a
1356.62	n/a	WORD	678310	wordpools/wasnorm_wordpool_less_exclusions.txt	LTP263	ltpFR	7	4	1	ORNAMENT	985	n/a	0	n/a	0	0	0	1	0.412841796875	0.57763671875	upper	../fonts/zerothre.ttf
1359.632	n/a	START	679816	n/a	LTP263	ltpFR	7	n/a	n/a	n/a	n/a	n/a	n/a	n/a	n/a	n/a	n/a	n/a	n/a	n/a	n/a	n/a
1360.634	n/a	PROB	680317	n/a	LTP263	ltpFR	7	n/a	n/a	n/a	n/a	n/a	n/a	11	7	3	1	n/a	n/a	n/a	n/a	n/a
1362.006	n/a	PROB	681003	n/a	LTP263	ltpFR	7	n/a	n/a	n/a	n/a	n/a	n/a	8	2	5	1	n/a	n/a	n/a	n/a	n/a
1364.002	n/a	PROB	682001	n/a	LTP263	ltpFR	7	n/a	n/a	n/a	n/a	n/a	n/a	12	3	7	2	n/a	n/a	n/a	n/a	n/a
1367.574	n/a	STOP	683787	n/a	LTP263	ltpFR	7	n/a	n/a	n/a	n/a	n/a	n/a	n/a	n/a	n/a	n/a	n/a	n/a	n/a	n/a	n/a
1368.64	n/a	WORD	684320	wordpools/wasnorm_wordpool_less_exclusions.txt	LTP263	ltpFR	7	4	1	GROCERIES	663	n/a	0	n/a	0	0	0	1	0.412841796875	0.57763671875	upper	../fonts/zerothre.ttf
1371.652	n/a	START	685826	n/a	LTP263	ltpFR	7	n/a	n/a	n/a	n/a	n/a	n/a	n/a	n/a	n/a	n/a	n/a	n/a	n/a	n/a	n/a
1372.62	n/a	PROB	686310	n/a	LTP263	ltpFR	7	n/a	n/a	n/a	n/a	n/a	n/a	11	3	1	7	n/a	n/a	n/a	n/a	n/a
1374.17	n/a	PROB	687085	n/a	LTP263	ltpFR	7	n/a	n/a	n/a	n/a	n/a	n/a	17	3	7	7	n/a	n/a	n/a	n/a	n/a
1376.73	n/a	PROB	688365	n/a	LTP263	ltpFR	7	n/a	n/a	n/a	n/a	n/a	n/a	11	1	5	5	n/a	n/a	n/a	n/a	n/a
1378.462	n/a	STOP	689231	n/a	LTP263	ltpFR	7	n/a	n/a	n/a	n/a	n/a	n/a	n/a	n/a	n/a	n/a	n/a	n/a	n/a	n/a	n/a
1380.878	n/a	WORD	690439	wordpools/wasnorm_wordpool_less_exclusions.txt	LTP263	ltpFR	7	4	1	ROUGE	1213	n/a	0	n/a	0	0	0	1	0.412841796875	0.57763671875	upper	../fonts/zerothre.ttf
1383.89	n/a	START	691945	n/a	LTP263	ltpFR	7	n/a	n/a	n/a	n/a	n/a	n/a	n/a	n/a	n/a	n/a	n/a	n/a	n/a	n/a	n/a
1385.066	n/a	PROB	692533	n/a	LTP263	ltpFR	7	n/a	n/a	n/a	n/a	n/a	n/a	17	9	6	1	n/a	n/a	n/a	n/a	n/a
1387.794	n/a	PROB	693897	n/a	LTP263	ltpFR	7	n/a	n/a	n/a	n/a	n/a	n/a	16	9	1	6	n/a	n/a	n/a	n/a	n/a
1391.89	n/a	STOP	695945	n/a	LTP263	ltpFR	7	n/a	n/a	n/a	n/a	n/a	n/a	n/a	n/a	n/a	n/a	n/a	n/a	n/a	n/a	n/a
1392.79	n/a	WORD	696395	wordpools/wasnorm_wordpool_less_exclusions.txt	LTP263	ltpFR	7	4	1	FISH	571	n/a	0	n/a	0	0	0	1	0.412841796875	0.57763671875	upper	../fonts/zerothre.ttf
1395.802	n/a	START	697901	n/a	LTP263	ltpFR	7	n/a	n/a	n/a	n/a	n/a	n/a	n/a	n/a	n/a	n/a	n/a	n/a	n/a	n/a	n/a
1396.69	n/a	PROB	698345	n/a	LTP263	ltpFR	7	n/a	n/a	n/a	n/a	n/a	n/a	11	1	1	9	n/a	n/a	n/a	n/a	n/a
1397.966	n/a	PROB	698983	n/a	LTP263	ltpFR	7	n/a	n/a	n/a	n/a	n/a	n/a	19	8	7	8	n/a	n/a	n/a	n/a	n/a
1401.356	n/a	PROB	700678	n/a	LTP263	ltpFR	7	n/a	n/a	n/a	n/a	n/a	n/a	17	6	1	9	n/a	n/a	n/a	n/a	n/a
1403.358	n/a	STOP	701679	n/a	LTP263	ltpFR	7	n/a	n/a	n/a	n/a	n/a	n/a	n/a	n/a	n/a	n/a	n/a	n/a	n/a	n/a	n/a
1404.742	n/a	WORD	702371	wordpools/wasnorm_wordpool_less_exclusions.txt	LTP263	ltpFR	7	4	1	CARAVAN	242	n/a	1	n/a	0	0	0	1	0.412841796875	0.57763671875	upper	../fonts/zerothre.ttf
1407.756	n/a	START	703878	n/a	LTP263	ltpFR	7	n/a	n/a	n/a	n/a	n/a	n/a	n/a	n/a	n/a	n/a	n/a	n/a	n/a	n/a	n/a
1408.942	n/a	PROB	704471	n/a	LTP263	ltpFR	7	n/a	n/a	n/a	n/a	n/a	n/a	13	2	4	7	n/a	n/a	n/a	n/a	n/a
1413.0	n/a	PROB	706500	n/a	LTP263	ltpFR	7	n/a	n/a	n/a	n/a	n/a	n/a	15	2	7	7	n/a	n/a	n/a	n/a	n/a
1414.4	n/a	STOP	707200	n/a	LTP263	ltpFR	7	n/a	n/a	n/a	n/a	n/a	n/a	n/a	n/a	n/a	n/a	n/a	n/a	n/a	n/a	n/a
1416.656	n/a	WORD	708328	wordpools/wasnorm_wordpool_less_exclusions.txt	LTP263	ltpFR	7	4	1	CAB	209	n/a	1	n/a	0	0	0	1	0.412841796875	0.57763671875	upper	../fonts/zerothre.ttf
1419.668	n/a	START	709834	n/a	LTP263	ltpFR	7	n/a	n/a	n/a	n/a	n/a	n/a	n/a	n/a	n/a	n/a	n/a	n/a	n/a	n/a	n/a
1420.53	n/a	PROB	710265	n/a	LTP263	ltpFR	7	n/a	n/a	n/a	n/a	n/a	n/a	14	5	4	4	n/a	n/a	n/a	n/a	n/a
1423.966	n/a	PROB	711983	n/a	LTP263	ltpFR	7	n/a	n/a	n/a	n/a	n/a	n/a	13	2	9	2	n/a	n/a	n/a	n/a	n/a
1427.668	n/a	STOP	713834	n/a	LTP263	ltpFR	7	n/a	n/a	n/a	n/a	n/a	n/a	n/a	n/a	n/a	n/a	n/a	n/a	n/a	n/a	n/a
1428.5	n/a	WORD	714250	wordpools/wasnorm_wordpool_less_exclusions.txt	LTP263	ltpFR	7	4	1	TOOTHPASTE	1483	n/a	0	n/a	0	0	0	1	0.412841796875	0.57763671875	upper	../fonts/zerothre.ttf
1431.514	n/a	START	715757	n/a	LTP263	ltpFR	7	n/a	n/a	n/a	n/a	n/a	n/a	n/a	n/a	n/a	n/a	n/a	n/a	n/a	n/a	n/a
1432.626	n/a	PROB	716313	n/a	LTP263	ltpFR	7	n/a	n/a	n/a	n/a	n/a	n/a	9	3	3	3	n/a	n/a	n/a	n/a	n/a
1434.098	n/a	PROB	717049	n/a	LTP263	ltpFR	7	n/a	n/a	n/a	n/a	n/a	n/a	21	8	4	9	n/a	n/a	n/a	n/a	n/a
1439.512	n/a	STOP	719756	n/a	LTP263	ltpFR	7	n/a	n/a	n/a	n/a	n/a	n/a	n/a	n/a	n/a	n/a	n/a	n/a	n/a	n/a	n/a
1440.456	n/a	WORD	720228	wordpools/wasnorm_wordpool_less_exclusions.txt	LTP263	ltpFR	7	4	1	SALIVA	1226	n/a	0	n/a	0	0	0	1	0.412841796875	0.57763671875	upper	../fonts/zerothre.ttf
1443.47	n/a	START	721735	n/a	LTP263	ltpFR	7	n/a	n/a	n/a	n/a	n/a	n/a	n/a	n/a	n/a	n/a	n/a	n/a	n/a	n/a	n/a
1444.312	n/a	PROB	722156	n/a	LTP263	ltpFR	7	n/a	n/a	n/a	n/a	n/a	n/a	11	2	8	1	n/a	n/a	n/a	n/a	n/a
1445.768	n/a	PROB	722884	n/a	LTP263	ltpFR	7	n/a	n/a	n/a	n/a	n/a	n/a	14	3	4	7	n/a	n/a	n/a	n/a	n/a
1447.652	n/a	PROB	723826	n/a	LTP263	ltpFR	7	n/a	n/a	n/a	n/a	n/a	n/a	20	5	6	9	n/a	n/a	n/a	n/a	n/a
1450.098	n/a	STOP	725049	n/a	LTP263	ltpFR	7	n/a	n/a	n/a	n/a	n/a	n/a	n/a	n/a	n/a	n/a	n/a	n/a	n/a	n/a	n/a
1452.476	n/a	WORD	726238	wordpools/wasnorm_wordpool_less_exclusions.txt	LTP263	ltpFR	7	4	1	REFRIGERATOR	1179	n/a	1	n/a	0	0	0	1	0.412841796875	0.57763671875	upper	../fonts/zerothre.ttf
1455.488	n/a	START	727744	n/a	LTP263	ltpFR	7	n/a	n/a	n/a	n/a	n/a	n/a	n/a	n/a	n/a	n/a	n/a	n/a	n/a	n/a	n/a
1456.524	n/a	PROB	728262	n/a	LTP263	ltpFR	7	n/a	n/a	n/a	n/a	n/a	n/a	11	2	3	6	n/a	n/a	n/a	n/a	n/a
1459.362	n/a	PROB	729681	n/a	LTP263	ltpFR	7	n/a	n/a	n/a	n/a	n/a	n/a	16	7	6	2	n/a	n/a	n/a	n/a	n/a
1463.488	n/a	STOP	731744	n/a	LTP263	ltpFR	7	n/a	n/a	n/a	n/a	n/a	n/a	n/a	n/a	n/a	n/a	n/a	n/a	n/a	n/a	n/a
1464.506	n/a	WORD	732253	wordpools/wasnorm_wordpool_less_exclusions.txt	LTP263	ltpFR	7	4	1	FAN	551	n/a	1	n/a	0	0	0	1	0.412841796875	0.57763671875	upper	../fonts/zerothre.ttf
1467.518	n/a	START	733759	n/a	LTP263	ltpFR	7	n/a	n/a	n/a	n/a	n/a	n/a	n/a	n/a	n/a	n/a	n/a	n/a	n/a	n/a	n/a
1468.386	n/a	PROB	734193	n/a	LTP263	ltpFR	7	n/a	n/a	n/a	n/a	n/a	n/a	12	5	2	5	n/a	n/a	n/a	n/a	n/a
1470.202	n/a	PROB	735101	n/a	LTP263	ltpFR	7	n/a	n/a	n/a	n/a	n/a	n/a	18	6	6	6	n/a	n/a	n/a	n/a	n/a
1473.014	n/a	PROB	736507	n/a	LTP263	ltpFR	7	n/a	n/a	n/a	n/a	n/a	n/a	20	7	7	6	n/a	n/a	n/a	n/a	n/a
1474.506	n/a	STOP	737253	n/a	LTP263	ltpFR	7	n/a	n/a	n/a	n/a	n/a	n/a	n/a	n/a	n/a	n/a	n/a	n/a	n/a	n/a	n/a
1476.694	n/a	WORD	738347	wordpools/wasnorm_wordpool_less_exclusions.txt	LTP263	ltpFR	7	4	1	SIBLING	1301	n/a	1	n/a	0	0	0	1	0.412841796875	0.57763671875	upper	../fonts/zerothre.ttf
1479.706	n/a	START	739853	n/a	LTP263	ltpFR	7	n/a	n/a	n/a	n/a	n/a	n/a	n/a	n/a	n/a	n/a	n/a	n/a	n/a	n/a	n/a
1480.834	n/a	PROB	740417	n/a	LTP263	ltpFR	7	n/a	n/a	n/a	n/a	n/a	n/a	21	9	3	8	n/a	n/a	n/a	n/a	n/a
1483.512	n/a	PROB	741756	n/a	LTP263	ltpFR	7	n/a	n/a	n/a	n/a	n/a	n/a	16	8	6	2	n/a	n/a	n/a	n/a	n/a
1485.436	n/a	PROB	742718	n/a	LTP263	ltpFR	7	n/a	n/a	n/a	n/a	n/a	n/a	18	8	9	1	n/a	n/a	n/a	n/a	n/a
1487.138	n/a	STOP	743569	n/a	LTP263	ltpFR	7	n/a	n/a	n/a	n/a	n/a	n/a	n/a	n/a	n/a	n/a	n/a	n/a	n/a	n/a	n/a
1488.614	n/a	WORD	744307	wordpools/wasnorm_wordpool_less_exclusions.txt	LTP263	ltpFR	7	4	1	MOUSE	925	n/a	1	n/a	0	0	0	1	0.412841796875	0.57763671875	upper	../fonts/zerothre.ttf
1491.626	n/a	START	745813	n/a	LTP263	ltpFR	7	n/a	n/a	n/a	n/a	n/a	n/a	n/a	n/a	n/a	n/a	n/a	n/a	n/a	n/a	n/a
1492.546	n/a	PROB	746273	n/a	LTP263	ltpFR	7	n/a	n/a	n/a	n/a	n/a	n/a	16	3	8	5	n/a	n/a	n/a	n/a	n/a
1495.584	n/a	PROB	747792	n/a	LTP263	ltpFR	7	n/a	n/a	n/a	n/a	n/a	n/a	12	1	4	8	n/a	n/a	n/a	n/a	n/a
1499.626	n/a	STOP	749813	n/a	LTP263	ltpFR	7	n/a	n/a	n/a	n/a	n/a	n/a	n/a	n/a	n/a	n/a	n/a	n/a	n/a	n/a	n/a
1500.81	n/a	WORD	750405	wordpools/wasnorm_wordpool_less_exclusions.txt	LTP263	ltpFR	7	4	1	PIKE	1067	n/a	0	n/a	0	0	0	1	0.412841796875	0.57763671875	upper	../fonts/zerothre.ttf
1503.822	n/a	START	751911	n/a	LTP263	ltpFR	7	n/a	n/a	n/a	n/a	n/a	n/a	n/a	n/a	n/a	n/a	n/a	n/a	n/a	n/a	n/a
1504.886	n/a	PROB	752443	n/a	LTP263	ltpFR	7	n/a	n/a	n/a	n/a	n/a	n/a	16	7	1	8	n/a	n/a	n/a	n/a	n/a
1506.994	n/a	PROB	753497	n/a	LTP263	ltpFR	7	n/a	n/a	n/a	n/a	n/a	n/a	18	3	8	7	n/a	n/a	n/a	n/a	n/a
1508.708	n/a	PROB	754354	n/a	LTP263	ltpFR	7	n/a	n/a	n/a	n/a	n/a	n/a	19	7	6	6	n/a	n/a	n/a	n/a	n/a
1510.812	n/a	STOP	755406	n/a	LTP263	ltpFR	7	n/a	n/a	n/a	n/a	n/a	n/a	n/a	n/a	n/a	n/a	n/a	n/a	n/a	n/a	n/a
1512.722	n/a	WORD	756361	wordpools/wasnorm_wordpool_less_exclusions.txt	LTP263	ltpFR	7	4	1	HAIL	676	n/a	0	n/a	0	0	0	1	0.412841796875	0.57763671875	upper	../fonts/zerothre.ttf
1515.734	n/a	START	757867	n/a	LTP263	ltpFR	7	n/a	n/a	n/a	n/a	n/a	n/a	n/a	n/a	n/a	n/a	n/a	n/a	n/a	n/a	n/a
1516.62	n/a	PROB	758310	n/a	LTP263	ltpFR	7	n/a	n/a	n/a	n/a	n/a	n/a	16	4	4	8	n/a	n/a	n/a	n/a	n/a
1518.762	n/a	PROB	759381	n/a	LTP263	ltpFR	7	n/a	n/a	n/a	n/a	n/a	n/a	19	9	5	5	n/a	n/a	n/a	n/a	n/a
1520.246	n/a	PROB	760123	n/a	LTP263	ltpFR	7	n/a	n/a	n/a	n/a	n/a	n/a	10	2	6	2	n/a	n/a	n/a	n/a	n/a
1522.462	n/a	STOP	761231	n/a	LTP263	ltpFR	7	n/a	n/a	n/a	n/a	n/a	n/a	n/a	n/a	n/a	n/a	n/a	n/a	n/a	n/a	n/a
1525.64	n/a	REC_START	762820	n/a	LTP263	ltpFR	7	4	n/a	n/a	n/a	n/a	n/a	n/a	0	0	0	n/a	n/a	n/a	n/a	n/a
1527.878	n/a	REC_WORD	763939	wordpools/wasnorm_wordpool_less_exclusions.txt	LTP263	ltpFR	7	4	1	GROCERIES	663	n/a	0	n/a	0	0	0	n/a	n/a	n/a	n/a	n/a
1529.726	n/a	REC_WORD	764863	wordpools/wasnorm_wordpool_less_exclusions.txt	LTP263	ltpFR	7	4	1	PIKE	1067	n/a	0	n/a	0	0	0	n/a	n/a	n/a	n/a	n/a
1531.246	n/a	REC_WORD	765623	wordpools/wasnorm_wordpool_less_exclusions.txt	LTP263	ltpFR	7	4	1	MOUSE	925	n/a	1	n/a	0	0	0	n/a	n/a	n/a	n/a	n/a
1538.47	n/a	REC_WORD	769235	wordpools/wasnorm_wordpool_less_exclusions.txt	LTP263	ltpFR	7	4	1	REFRIGERATOR	1179	n/a	1	n/a	0	0	0	n/a	n/a	n/a	n/a	n/a
1540.48	n/a	REC_WORD	770240	wordpools/wasnorm_wordpool_less_exclusions.txt	LTP263	ltpFR	7	4	1	SIBLING	1301	n/a	1	n/a	0	0	0	n/a	n/a	n/a	n/a	n/a
1547.812	n/a	REC_WORD	773906	wordpools/wasnorm_wordpool_less_exclusions.txt	LTP263	ltpFR	7	4	0	PAIL	1002	n/a	1	n/a	0	0	0	n/a	n/a	n/a	n/a	n/a
1583.144	n/a	REC_WORD	791572	wordpools/wasnorm_wordpool_less_exclusions.txt	LTP263	ltpFR	7	4	1	ROUGE	1213	n/a	0	n/a	0	0	0	n/a	n/a	n/a	n/a	n/a
1603.914	n/a	WORD	801957	wordpools/wasnorm_wordpool_less_exclusions.txt	LTP263	ltpFR	7	5	1	POSSUM	1112	n/a	1	n/a	0	0	0	1	0.412841796875	0.57763671875	upper	../fonts/zerothre.ttf
1608.046	n/a	WORD	804023	wordpools/wasnorm_wordpool_less_exclusions.txt	LTP263	ltpFR	7	5	1	SUPERVISOR	1410	n/a	1	n/a	0	0	0	1	0.412841796875	0.57763671875	upper	../fonts/zerothre.ttf
1612.094	n/a	WORD	806047	wordpools/wasnorm_wordpool_less_exclusions.txt	LTP263	ltpFR	7	5	1	BEDROOM	111	n/a	0	n/a	0	0	0	1	0.412841796875	0.57763671875	upper	../fonts/zerothre.ttf
1616.044	n/a	WORD	808022	wordpools/wasnorm_wordpool_less_exclusions.txt	LTP263	ltpFR	7	5	1	DUNE	506	n/a	0	n/a	0	0	0	1	0.412841796875	0.57763671875	upper	../fonts/zerothre.ttf
1620.116	n/a	WORD	810058	wordpools/wasnorm_wordpool_less_exclusions.txt	LTP263	ltpFR	7	5	1	WATERFALL	1595	n/a	1	n/a	0	0	0	1	0.412841796875	0.57763671875	upper	../fonts/zerothre.ttf
1624.114	n/a	WORD	812057	wordpools/wasnorm_wordpool_less_exclusions.txt	LTP263	ltpFR	7	5	1	COLLAR	345	n/a	0	n/a	0	0	0	1	0.412841796875	0.57763671875	upper	../fonts/zerothre.ttf
1628.314	n/a	WORD	814157	wordpools/wasnorm_wordpool_less_exclusions.txt	LTP263	ltpFR	7	5	1	QUAIL	1147	n/a	1	n/a	0	0	0	1	0.412841796875	0.57763671875	upper	../fonts/zerothre.ttf
1632.412	n/a	WORD	816206	wordpools/wasnorm_wordpool_less_exclusions.txt	LTP263	ltpFR	7	5	1	STOMACH	1384	n/a	1	n/a	0	0	0	1	0.412841796875	0.57763671875	upper	../fonts/zerothre.ttf
1636.54	n/a	WORD	818270	wordpools/wasnorm_wordpool_less_exclusions.txt	LTP263	ltpFR	7	5	1	FLEA	577	n/a	1	n/a	0	0	0	1	0.412841796875	0.57763671875	upper	../fonts/zerothre.ttf
1640.578	n/a	WORD	820289	wordpools/wasnorm_wordpool_less_exclusions.txt	LTP263	ltpFR	7	5	1	GOWN	652	n/a	0	n/a	0	0	0	1	0.412841796875	0.57763671875	upper	../fonts/zerothre.ttf
1644.744	n/a	WORD	822372	wordpools/wasnorm_wordpool_less_exclusions.txt	LTP263	ltpFR	7	5	1	GUITAR	670	n/a	0	n/a	0	0	0	1	0.412841796875	0.57763671875	upper	../fonts/zerothre.ttf
1648.868	n/a	WORD	824434	wordpools/wasnorm_wordpool_less_exclusions.txt	LTP263	ltpFR	7	5	1	KEYBOARD	774	n/a	0	n/a	0	0	0	1	0.412841796875	0.57763671875	upper	../fonts/zerothre.ttf
1652.758	n/a	WORD	826379	wordpools/wasnorm_wordpool_less_exclusions.txt	LTP263	ltpFR	7	5	1	ABDOMEN	1	n/a	1	n/a	0	0	0	1	0.412841796875	0.57763671875	upper	../fonts/zerothre.ttf
1656.774	n/a	WORD	828387	wordpools/wasnorm_wordpool_less_exclusions.txt	LTP263	ltpFR	7	5	1	MILITARY	894	n/a	0	n/a	0	0	0	1	0.412841796875	0.57763671875	upper	../fonts/zerothre.ttf
1660.954	n/a	WORD	830477	wordpools/wasnorm_wordpool_less_exclusions.txt	LTP263	ltpFR	7	5	1	LIEUTENANT	818	n/a	0	n/a	0	0	0	1	0.412841796875	0.57763671875	upper	../fonts/zerothre.ttf
1664.996	n/a	WORD	832498	wordpools/wasnorm_wordpool_less_exclusions.txt	LTP263	ltpFR	7	5	1	RAZOR	1171	n/a	0	n/a	0	0	0	1	0.412841796875	0.57763671875	upper	../fonts/zerothre.ttf
1670.854	n/a	REC_START	835427	n/a	LTP263	ltpFR	7	5	n/a	n/a	n/a	n/a	n/a	n/a	0	0	0	n/a	n/a	n/a	n/a	n/a
1672.404	n/a	REC_WORD	836202	wordpools/wasnorm_wordpool_less_exclusions.txt	LTP263	ltpFR	7	5	1	SUPERVISOR	1410	n/a	1	n/a	0	0	0	n/a	n/a	n/a	n/a	n/a
1673.412	n/a	REC_WORD	836706	wordpools/wasnorm_wordpool_less_exclusions.txt	LTP263	ltpFR	7	5	1	COLLAR	345	n/a	0	n/a	0	0	0	n/a	n/a	n/a	n/a	n/a
1674.53	n/a	REC_WORD	837265	wordpools/wasnorm_wordpool_less_exclusions.txt	LTP263	ltpFR	7	5	1	GOWN	652	n/a	0	n/a	0	0	0	n/a	n/a	n/a	n/a	n/a
1675.356	n/a	REC_WORD	837678	wordpools/wasnorm_wordpool_less_exclusions.txt	LTP263	ltpFR	7	5	1	STOMACH	1384	n/a	1	n/a	0	0	0	n/a	n/a	n/a	n/a	n/a
1676.586	n/a	REC_WORD	838293	wordpools/wasnorm_wordpool_less_exclusions.txt	LTP263	ltpFR	7	5	1	ABDOMEN	1	n/a	1	n/a	0	0	0	n/a	n/a	n/a	n/a	n/a
1677.598	n/a	REC_WORD	838799	wordpools/wasnorm_wordpool_less_exclusions.txt	LTP263	ltpFR	7	5	1	QUAIL	1147	n/a	1	n/a	0	0	0	n/a	n/a	n/a	n/a	n/a
1678.754	n/a	REC_WORD	839377	wordpools/wasnorm_wordpool_less_exclusions.txt	LTP263	ltpFR	7	5	1	FLEA	577	n/a	1	n/a	0	0	0	n/a	n/a	n/a	n/a	n/a
1680.034	n/a	REC_WORD	840017	wordpools/wasnorm_wordpool_less_exclusions.txt	LTP263	ltpFR	7	5	1	BEDROOM	111	n/a	0	n/a	0	0	0	n/a	n/a	n/a	n/a	n/a
1681.192	n/a	REC_WORD	840596	wordpools/wasnorm_wordpool_less_exclusions.txt	LTP263	ltpFR	7	5	1	DUNE	506	n/a	0	n/a	0	0	0	n/a	n/a	n/a	n/a	n/a
1682.268	n/a	REC_WORD	841134	wordpools/wasnorm_wordpool_less_exclusions.txt	LTP263	ltpFR	7	5	1	WATERFALL	1595	n/a	1	n/a	0	0	0	n/a	n/a	n/a	n/a	n/a
1683.436	n/a	REC_WORD	841718	wordpools/wasnorm_wordpool_less_exclusions.txt	LTP263	ltpFR	7	5	1	MILITARY	894	n/a	0	n/a	0	0	0	n/a	n/a	n/a	n/a	n/a
1684.918	n/a	REC_WORD	842459	wordpools/wasnorm_wordpool_less_exclusions.txt	LTP263	ltpFR	7	5	1	LIEUTENANT	818	n/a	0	n/a	0	0	0	n/a	n/a	n/a	n/a	n/a
1691.204	n/a	REC_WORD	845602	wordpools/wasnorm_wordpool_less_exclusions.txt	LTP263	ltpFR	7	5	1	GUITAR	670	n/a	0	n/a	0	0	0	n/a	n/a	n/a	n/a	n/a
1692.45	n/a	REC_WORD	846225	wordpools/wasnorm_wordpool_less_exclusions.txt	LTP263	ltpFR	7	5	1	KEYBOARD	774	n/a	0	n/a	0	0	0	n/a	n/a	n/a	n/a	n/a
1700.798	n/a	REC_WORD	850399	wordpools/wasnorm_wordpool_less_exclusions.txt	LTP263	ltpFR	7	5	1	POSSUM	1112	n/a	1	n/a	0	0	0	n/a	n/a	n/a	n/a	n/a
1747.48	n/a	START	873740	n/a	LTP263	ltpFR	7	n/a	n/a	n/a	n/a	n/a	n/a	n/a	n/a	n/a	n/a	n/a	n/a	n/a	n/a	n/a
1748.992	n/a	PROB	874496	n/a	LTP263	ltpFR	7	n/a	n/a	n/a	n/a	n/a	n/a	14	4	1	9	n/a	n/a	n/a	n/a	n/a
1750.826	n/a	PROB	875413	n/a	LTP263	ltpFR	7	n/a	n/a	n/a	n/a	n/a	n/a	21	9	7	7	n/a	n/a	n/a	n/a	n/a
1752.482	n/a	PROB	876241	n/a	LTP263	ltpFR	7	n/a	n/a	n/a	n/a	n/a	n/a	11	6	3	2	n/a	n/a	n/a	n/a	n/a
1754.048	n/a	STOP	877024	n/a	LTP263	ltpFR	7	n/a	n/a	n/a	n/a	n/a	n/a	n/a	n/a	n/a	n/a	n/a	n/a	n/a	n/a	n/a
1756.638	n/a	WORD	878319	wordpools/wasnorm_wordpool_less_exclusions.txt	LTP263	ltpFR	7	6	1	LIMOUSINE	824	n/a	0	n/a	0	0	0	1	0.412841796875	0.57763671875	upper	../fonts/zerothre.ttf
1759.65	n/a	START	879825	n/a	LTP263	ltpFR	7	n/a	n/a	n/a	n/a	n/a	n/a	n/a	n/a	n/a	n/a	n/a	n/a	n/a	n/a	n/a
1760.486	n/a	PROB	880243	n/a	LTP263	ltpFR	7	n/a	n/a	n/a	n/a	n/a	n/a	12	3	6	3	n/a	n/a	n/a	n/a	n/a
1762.788	n/a	PROB	881394	n/a	LTP263	ltpFR	7	n/a	n/a	n/a	n/a	n/a	n/a	11	1	1	9	n/a	n/a	n/a	n/a	n/a
1763.88	n/a	PROB	881940	n/a	LTP263	ltpFR	7	n/a	n/a	n/a	n/a	n/a	n/a	14	4	5	4	n/a	n/a	n/a	n/a	n/a
1766.962	n/a	STOP	883481	n/a	LTP263	ltpFR	7	n/a	n/a	n/a	n/a	n/a	n/a	n/a	n/a	n/a	n/a	n/a	n/a	n/a	n/a	n/a
1768.61	n/a	WORD	884305	wordpools/wasnorm_wordpool_less_exclusions.txt	LTP263	ltpFR	7	6	1	DASHBOARD	441	n/a	0	n/a	0	0	0	1	0.412841796875	0.57763671875	upper	../fonts/zerothre.ttf
1771.622	n/a	START	885811	n/a	LTP263	ltpFR	7	n/a	n/a	n/a	n/a	n/a	n/a	n/a	n/a	n/a	n/a	n/a	n/a	n/a	n/a	n/a
1772.56	n/a	PROB	886280	n/a	LTP263	ltpFR	7	n/a	n/a	n/a	n/a	n/a	n/a	16	8	7	1	n/a	n/a	n/a	n/a	n/a
1774.768	n/a	PROB	887384	n/a	LTP263	ltpFR	7	n/a	n/a	n/a	n/a	n/a	n/a	12	1	2	9	n/a	n/a	n/a	n/a	n/a
1776.608	n/a	PROB	888304	n/a	LTP263	ltpFR	7	n/a	n/a	n/a	n/a	n/a	n/a	21	8	8	5	n/a	n/a	n/a	n/a	n/a
1778.218	n/a	STOP	889109	n/a	LTP263	ltpFR	7	n/a	n/a	n/a	n/a	n/a	n/a	n/a	n/a	n/a	n/a	n/a	n/a	n/a	n/a	n/a
1780.612	n/a	WORD	890306	wordpools/wasnorm_wordpool_less_exclusions.txt	LTP263	ltpFR	7	6	1	STRAWBERRY	1391	n/a	1	n/a	0	0	0	1	0.412841796875	0.57763671875	upper	../fonts/zerothre.ttf
1783.624	n/a	START	891812	n/a	LTP263	ltpFR	7	n/a	n/a	n/a	n/a	n/a	n/a	n/a	n/a	n/a	n/a	n/a	n/a	n/a	n/a	n/a
1784.64	n/a	PROB	892320	n/a	LTP263	ltpFR	7	n/a	n/a	n/a	n/a	n/a	n/a	14	1	7	6	n/a	n/a	n/a	n/a	n/a
1786.134	n/a	PROB	893067	n/a	LTP263	ltpFR	7	n/a	n/a	n/a	n/a	n/a	n/a	15	1	7	7	n/a	n/a	n/a	n/a	n/a
1787.784	n/a	PROB	893892	n/a	LTP263	ltpFR	7	n/a	n/a	n/a	n/a	n/a	n/a	14	1	9	4	n/a	n/a	n/a	n/a	n/a
1789.172	n/a	PROB	894586	n/a	LTP263	ltpFR	7	n/a	n/a	n/a	n/a	n/a	n/a	14	2	5	4	n/a	n/a	n/a	n/a	n/a
1791.388	n/a	STOP	895694	n/a	LTP263	ltpFR	7	n/a	n/a	n/a	n/a	n/a	n/a	n/a	n/a	n/a	n/a	n/a	n/a	n/a	n/a	n/a
1792.626	n/a	WORD	896313	wordpools/wasnorm_wordpool_less_exclusions.txt	LTP263	ltpFR	7	6	1	OYSTER	995	n/a	1	n/a	0	0	0	1	0.412841796875	0.57763671875	upper	../fonts/zerothre.ttf
1795.638	n/a	START	897819	n/a	LTP263	ltpFR	7	n/a	n/a	n/a	n/a	n/a	n/a	n/a	n/a	n/a	n/a	n/a	n/a	n/a	n/a	n/a
1796.558	n/a	PROB	898279	n/a	LTP263	ltpFR	7	n/a	n/a	n/a	n/a	n/a	n/a	15	4	9	7	n/a	n/a	n/a	n/a	n/a
1799.946	n/a	PROB	899973	n/a	LTP263	ltpFR	7	n/a	n/a	n/a	n/a	n/a	n/a	22	4	9	9	n/a	n/a	n/a	n/a	n/a
1802.708	n/a	STOP	901354	n/a	LTP263	ltpFR	7	n/a	n/a	n/a	n/a	n/a	n/a	n/a	n/a	n/a	n/a	n/a	n/a	n/a	n/a	n/a
1804.816	n/a	WORD	902408	wordpools/wasnorm_wordpool_less_exclusions.txt	LTP263	ltpFR	7	6	1	GLASSES	640	n/a	0	n/a	0	0	0	1	0.412841796875	0.57763671875	upper	../fonts/zerothre.ttf
1807.834	n/a	START	903917	n/a	LTP263	ltpFR	7	n/a	n/a	n/a	n/a	n/a	n/a	n/a	n/a	n/a	n/a	n/a	n/a	n/a	n/a	n/a
1808.782	n/a	PROB	904391	n/a	LTP263	ltpFR	7	n/a	n/a	n/a	n/a	n/a	n/a	11	5	2	4	n/a	n/a	n/a	n/a	n/a
1810.962	n/a	PROB	905481	n/a	LTP263	ltpFR	7	n/a	n/a	n/a	n/a	n/a	n/a	12	4	4	3	n/a	n/a	n/a	n/a	n/a
1812.78	n/a	PROB	906390	n/a	LTP263	ltpFR	7	n/a	n/a	n/a	n/a	n/a	n/a	21	6	8	8	n/a	n/a	n/a	n/a	n/a
1814.82	n/a	STOP	907410	n/a	LTP263	ltpFR	7	n/a	n/a	n/a	n/a	n/a	n/a	n/a	n/a	n/a	n/a	n/a	n/a	n/a	n/a	n/a
1816.944	n/a	WORD	908472	wordpools/wasnorm_wordpool_less_exclusions.txt	LTP263	ltpFR	7	6	1	BRAKE	166	n/a	0	n/a	0	0	0	1	0.412841796875	0.57763671875	upper	../fonts/zerothre.ttf
1819.956	n/a	START	909978	n/a	LTP263	ltpFR	7	n/a	n/a	n/a	n/a	n/a	n/a	n/a	n/a	n/a	n/a	n/a	n/a	n/a	n/a	n/a
1820.832	n/a	PROB	910416	n/a	LTP263	ltpFR	7	n/a	n/a	n/a	n/a	n/a	n/a	20	6	8	5	n/a	n/a	n/a	n/a	n/a
1825.076	n/a	PROB	912538	n/a	LTP263	ltpFR	7	n/a	n/a	n/a	n/a	n/a	n/a	17	8	7	2	n/a	n/a	n/a	n/a	n/a
1827.03	n/a	STOP	913515	n/a	LTP263	ltpFR	7	n/a	n/a	n/a	n/a	n/a	n/a	n/a	n/a	n/a	n/a	n/a	n/a	n/a	n/a	n/a
1829.008	n/a	WORD	914504	wordpools/wasnorm_wordpool_less_exclusions.txt	LTP263	ltpFR	7	6	1	RODENT	1204	n/a	0	n/a	0	0	0	1	0.412841796875	0.57763671875	upper	../fonts/zerothre.ttf
1832.02	n/a	START	916010	n/a	LTP263	ltpFR	7	n/a	n/a	n/a	n/a	n/a	n/a	n/a	n/a	n/a	n/a	n/a	n/a	n/a	n/a	n/a
1832.972	n/a	PROB	916486	n/a	LTP263	ltpFR	7	n/a	n/a	n/a	n/a	n/a	n/a	11	7	3	1	n/a	n/a	n/a	n/a	n/a
1834.352	n/a	PROB	917176	n/a	LTP263	ltpFR	7	n/a	n/a	n/a	n/a	n/a	n/a	10	4	4	2	n/a	n/a	n/a	n/a	n/a
1835.906	n/a	PROB	917953	n/a	LTP263	ltpFR	7	n/a	n/a	n/a	n/a	n/a	n/a	13	1	6	6	n/a	n/a	n/a	n/a	n/a
1837.474	n/a	PROB	918737	n/a	LTP263	ltpFR	7	n/a	n/a	n/a	n/a	n/a	n/a	18	1	9	8	n/a	n/a	n/a	n/a	n/a
1838.718	n/a	STOP	919359	n/a	LTP263	ltpFR	7	n/a	n/a	n/a	n/a	n/a	n/a	n/a	n/a	n/a	n/a	n/a	n/a	n/a	n/a	n/a
1840.902	n/a	WORD	920451	wordpools/wasnorm_wordpool_less_exclusions.txt	LTP263	ltpFR	7	6	1	KITTEN	780	n/a	1	n/a	0	0	0	1	0.412841796875	0.57763671875	upper	../fonts/zerothre.ttf
1843.922	n/a	START	921961	n/a	LTP263	ltpFR	7	n/a	n/a	n/a	n/a	n/a	n/a	n/a	n/a	n/a	n/a	n/a	n/a	n/a	n/a	n/a
1845.002	n/a	PROB	922501	n/a	LTP263	ltpFR	7	n/a	n/a	n/a	n/a	n/a	n/a	13	3	7	3	n/a	n/a	n/a	n/a	n/a
1846.526	n/a	PROB	923263	n/a	LTP263	ltpFR	7	n/a	n/a	n/a	n/a	n/a	n/a	11	3	5	3	n/a	n/a	n/a	n/a	n/a
1848.616	n/a	PROB	924308	n/a	LTP263	ltpFR	7	n/a	n/a	n/a	n/a	n/a	n/a	15	1	4	8	n/a	n/a	n/a	n/a	n/a
1850.742	n/a	STOP	925371	n/a	LTP263	ltpFR	7	n/a	n/a	n/a	n/a	n/a	n/a	n/a	n/a	n/a	n/a	n/a	n/a	n/a	n/a	n/a
1853.138	n/a	WORD	926569	wordpools/wasnorm_wordpool_less_exclusions.txt	LTP263	ltpFR	7	6	1	MOLECULE	905	n/a	0	n/a	0	0	0	1	0.412841796875	0.57763671875	upper	../fonts/zerothre.ttf
1856.15	n/a	START	928075	n/a	LTP263	ltpFR	7	n/a	n/a	n/a	n/a	n/a	n/a	n/a	n/a	n/a	n/a	n/a	n/a	n/a	n/a	n/a
1857.22	n/a	PROB	928610	n/a	LTP263	ltpFR	7	n/a	n/a	n/a	n/a	n/a	n/a	18	4	7	7	n/a	n/a	n/a	n/a	n/a
1859.346	n/a	PROB	929673	n/a	LTP263	ltpFR	7	n/a	n/a	n/a	n/a	n/a	n/a	12	1	7	4	n/a	n/a	n/a	n/a	n/a
1862.436	n/a	PROB	931218	n/a	LTP263	ltpFR	7	n/a	n/a	n/a	n/a	n/a	n/a	20	9	9	4	n/a	n/a	n/a	n/a	n/a
1863.744	n/a	STOP	931872	n/a	LTP263	ltpFR	7	n/a	n/a	n/a	n/a	n/a	n/a	n/a	n/a	n/a	n/a	n/a	n/a	n/a	n/a	n/a
1865.168	n/a	WORD	932584	wordpools/wasnorm_wordpool_less_exclusions.txt	LTP263	ltpFR	7	6	1	DWARF	510	n/a	1	n/a	0	0	0	1	0.412841796875	0.57763671875	upper	../fonts/zerothre.ttf
1868.18	n/a	START	934090	n/a	LTP263	ltpFR	7	n/a	n/a	n/a	n/a	n/a	n/a	n/a	n/a	n/a	n/a	n/a	n/a	n/a	n/a	n/a
1869.352	n/a	PROB	934676	n/a	LTP263	ltpFR	7	n/a	n/a	n/a	n/a	n/a	n/a	13	8	1	4	n/a	n/a	n/a	n/a	n/a
1872.424	n/a	PROB	936212	n/a	LTP263	ltpFR	7	n/a	n/a	n/a	n/a	n/a	n/a	17	9	3	5	n/a	n/a	n/a	n/a	n/a
1876.18	n/a	STOP	938090	n/a	LTP263	ltpFR	7	n/a	n/a	n/a	n/a	n/a	n/a	n/a	n/a	n/a	n/a	n/a	n/a	n/a	n/a	n/a
1877.298	n/a	WORD	938649	wordpools/wasnorm_wordpool_less_exclusions.txt	LTP263	ltpFR	7	6	1	DIAL	457	n/a	0	n/a	0	0	0	1	0.412841796875	0.57763671875	upper	../fonts/zerothre.ttf
1880.312	n/a	START	940156	n/a	LTP263	ltpFR	7	n/a	n/a	n/a	n/a	n/a	n/a	n/a	n/a	n/a	n/a	n/a	n/a	n/a	n/a	n/a
1881.398	n/a	PROB	940699	n/a	LTP263	ltpFR	7	n/a	n/a	n/a	n/a	n/a	n/a	17	4	9	4	n/a	n/a	n/a	n/a	n/a
1883.484	n/a	PROB	941742	n/a	LTP263	ltpFR	7	n/a	n/a	n/a	n/a	n/a	n/a	11	2	1	8	n/a	n/a	n/a	n/a	n/a
1885.364	n/a	PROB	942682	n/a	LTP263	ltpFR	7	n/a	n/a	n/a	n/a	n/a	n/a	16	8	4	3	n/a	n/a	n/a	n/a	n/a
1887.696	n/a	STOP	943848	n/a	LTP263	ltpFR	7	n/a	n/a	n/a	n/a	n/a	n/a	n/a	n/a	n/a	n/a	n/a	n/a	n/a	n/a	n/a
1889.262	n/a	WORD	944631	wordpools/wasnorm_wordpool_less_exclusions.txt	LTP263	ltpFR	7	6	1	MAYONNAISE	880	n/a	0	n/a	0	0	0	1	0.412841796875	0.57763671875	upper	../fonts/zerothre.ttf
1892.274	n/a	START	946137	n/a	LTP263	ltpFR	7	n/a	n/a	n/a	n/a	n/a	n/a	n/a	n/a	n/a	n/a	n/a	n/a	n/a	n/a	n/a
1893.46	n/a	PROB	946730	n/a	LTP263	ltpFR	7	n/a	n/a	n/a	n/a	n/a	n/a	13	2	7	4	n/a	n/a	n/a	n/a	n/a
1896.02	n/a	PROB	948010	n/a	LTP263	ltpFR	7	n/a	n/a	n/a	n/a	n/a	n/a	12	2	2	8	n/a	n/a	n/a	n/a	n/a
1898.044	n/a	PROB	949022	n/a	LTP263	ltpFR	7	n/a	n/a	n/a	n/a	n/a	n/a	9	3	5	1	n/a	n/a	n/a	n/a	n/a
1899.33	n/a	STOP	949665	n/a	LTP263	ltpFR	7	n/a	n/a	n/a	n/a	n/a	n/a	n/a	n/a	n/a	n/a	n/a	n/a	n/a	n/a	n/a
1901.284	n/a	WORD	950642	wordpools/wasnorm_wordpool_less_exclusions.txt	LTP263	ltpFR	7	6	1	PHILOSOPHER	1054	n/a	1	n/a	0	0	0	1	0.412841796875	0.57763671875	upper	../fonts/zerothre.ttf
1904.296	n/a	START	952148	n/a	LTP263	ltpFR	7	n/a	n/a	n/a	n/a	n/a	n/a	n/a	n/a	n/a	n/a	n/a	n/a	n/a	n/a	n/a
1905.114	n/a	PROB	952557	n/a	LTP263	ltpFR	7	n/a	n/a	n/a	n/a	n/a	n/a	18	6	5	7	n/a	n/a	n/a	n/a	n/a
1906.756	n/a	PROB	953378	n/a	LTP263	ltpFR	7	n/a	n/a	n/a	n/a	n/a	n/a	21	6	9	8	n/a	n/a	n/a	n/a	n/a
1909.382	n/a	PROB	954691	n/a	LTP263	ltpFR	7	n/a	n/a	n/a	n/a	n/a	n/a	11	1	6	4	n/a	n/a	n/a	n/a	n/a
1912.296	n/a	STOP	956148	n/a	LTP263	ltpFR	7	n/a	n/a	n/a	n/a	n/a	n/a	n/a	n/a	n/a	n/a	n/a	n/a	n/a	n/a	n/a
1913.27	n/a	WORD	956635	wordpools/wasnorm_wordpool_less_exclusions.txt	LTP263	ltpFR	7	6	1	CORD	379	n/a	0	n/a	0	0	0	1	0.412841796875	0.57763671875	upper	../fonts/zerothre.ttf
1916.282	n/a	START	958141	n/a	LTP263	ltpFR	7	n/a	n/a	n/a	n/a	n/a	n/a	n/a	n/a	n/a	n/a	n/a	n/a	n/a	n/a	n/a
1917.144	n/a	PROB	958572	n/a	LTP263	ltpFR	7	n/a	n/a	n/a	n/a	n/a	n/a	17	4	6	7	n/a	n/a	n/a	n/a	n/a
1919.944	n/a	PROB	959972	n/a	LTP263	ltpFR	7	n/a	n/a	n/a	n/a	n/a	n/a	6	1	3	2	n/a	n/a	n/a	n/a	n/a
1921.612	n/a	PROB	960806	n/a	LTP263	ltpFR	7	n/a	n/a	n/a	n/a	n/a	n/a	18	4	6	8	n/a	n/a	n/a	n/a	n/a
1923.17	n/a	STOP	961585	n/a	LTP263	ltpFR	7	n/a	n/a	n/a	n/a	n/a	n/a	n/a	n/a	n/a	n/a	n/a	n/a	n/a	n/a	n/a
1925.45	n/a	WORD	962725	wordpools/wasnorm_wordpool_less_exclusions.txt	LTP263	ltpFR	7	6	1	CHARCOAL	281	n/a	0	n/a	0	0	0	1	0.412841796875	0.57763671875	upper	../fonts/zerothre.ttf
1928.462	n/a	START	964231	n/a	LTP263	ltpFR	7	n/a	n/a	n/a	n/a	n/a	n/a	n/a	n/a	n/a	n/a	n/a	n/a	n/a	n/a	n/a
1929.566	n/a	PROB	964783	n/a	LTP263	ltpFR	7	n/a	n/a	n/a	n/a	n/a	n/a	18	1	8	9	n/a	n/a	n/a	n/a	n/a
1932.14	n/a	PROB	966070	n/a	LTP263	ltpFR	7	n/a	n/a	n/a	n/a	n/a	n/a	14	6	4	4	n/a	n/a	n/a	n/a	n/a
1934.126	n/a	PROB	967063	n/a	LTP263	ltpFR	7	n/a	n/a	n/a	n/a	n/a	n/a	18	8	7	3	n/a	n/a	n/a	n/a	n/a
1935.514	n/a	STOP	967757	n/a	LTP263	ltpFR	7	n/a	n/a	n/a	n/a	n/a	n/a	n/a	n/a	n/a	n/a	n/a	n/a	n/a	n/a	n/a
1937.646	n/a	WORD	968823	wordpools/wasnorm_wordpool_less_exclusions.txt	LTP263	ltpFR	7	6	1	LASH	802	n/a	0	n/a	0	0	0	1	0.412841796875	0.57763671875	upper	../fonts/zerothre.ttf
1940.658	n/a	START	970329	n/a	LTP263	ltpFR	7	n/a	n/a	n/a	n/a	n/a	n/a	n/a	n/a	n/a	n/a	n/a	n/a	n/a	n/a	n/a
1941.772	n/a	PROB	970886	n/a	LTP263	ltpFR	7	n/a	n/a	n/a	n/a	n/a	n/a	18	6	3	9	n/a	n/a	n/a	n/a	n/a
1943.552	n/a	PROB	971776	n/a	LTP263	ltpFR	7	n/a	n/a	n/a	n/a	n/a	n/a	12	7	1	4	n/a	n/a	n/a	n/a	n/a
1945.118	n/a	PROB	972559	n/a	LTP263	ltpFR	7	n/a	n/a	n/a	n/a	n/a	n/a	13	1	8	3	n/a	n/a	n/a	n/a	n/a
1947.148	n/a	STOP	973574	n/a	LTP263	ltpFR	7	n/a	n/a	n/a	n/a	n/a	n/a	n/a	n/a	n/a	n/a	n/a	n/a	n/a	n/a	n/a
1950.614	n/a	REC_START	975307	n/a	LTP263	ltpFR	7	6	n/a	n/a	n/a	n/a	n/a	n/a	0	0	0	n/a	n/a	n/a	n/a	n/a
1952.73	n/a	REC_WORD	976365	wordpools/wasnorm_wordpool_less_exclusions.txt	LTP263	ltpFR	7	6	1	LASH	802	n/a	0	n/a	0	0	0	n/a	n/a	n/a	n/a	n/a
1953.456	n/a	REC_WORD	976728	wordpools/wasnorm_wordpool_less_exclusions.txt	LTP263	ltpFR	7	6	1	STRAWBERRY	1391	n/a	1	n/a	0	0	0	n/a	n/a	n/a	n/a	n/a
1954.966	n/a	REC_WORD	977483	wordpools/wasnorm_wordpool_less_exclusions.txt	LTP263	ltpFR	7	6	1	LIMOUSINE	824	n/a	0	n/a	0	0	0	n/a	n/a	n/a	n/a	n/a
1956.318	n/a	REC_WORD	978159	wordpools/wasnorm_wordpool_less_exclusions.txt	LTP263	ltpFR	7	6	1	DASHBOARD	441	n/a	0	n/a	0	0	0	n/a	n/a	n/a	n/a	n/a
1957.75	n/a	REC_WORD	978875	wordpools/wasnorm_wordpool_less_exclusions.txt	LTP263	ltpFR	7	6	1	PHILOSOPHER	1054	n/a	1	n/a	0	0	0	n/a	n/a	n/a	n/a	n/a
2028.47	n/a	WORD	1014235	wordpools/wasnorm_wordpool_less_exclusions.txt	LTP263	ltpFR	7	7	0	SCENERY	1247	n/a	1	n/a	0	0	0	0	0.5869140625	0.422607421875	lower	../fonts/amplitud.ttf
2032.576	n/a	WORD	1016288	wordpools/wasnorm_wordpool_less_exclusions.txt	LTP263	ltpFR	7	7	0	PRODUCER	1129	n/a	1	n/a	0	0	0	0	0.5869140625	0.422607421875	lower	../fonts/amplitud.ttf
2036.524	n/a	WORD	1018262	wordpools/wasnorm_wordpool_less_exclusions.txt	LTP263	ltpFR	7	7	0	DISH	474	n/a	0	n/a	0	0	0	0	0.5869140625	0.422607421875	lower	../fonts/amplitud.ttf
2040.666	n/a	WORD	1020333	wordpools/wasnorm_wordpool_less_exclusions.txt	LTP263	ltpFR	7	7	0	AFRICA	9	n/a	1	n/a	0	0	0	0	0.5869140625	0.422607421875	lower	../fonts/amplitud.ttf
2044.738	n/a	WORD	1022369	wordpools/wasnorm_wordpool_less_exclusions.txt	LTP263	ltpFR	7	7	0	BEEF	113	n/a	0	n/a	0	0	0	0	0.5869140625	0.422607421875	lower	../fonts/amplitud.ttf
2048.954	n/a	WORD	1024477	wordpools/wasnorm_wordpool_less_exclusions.txt	LTP263	ltpFR	7	7	0	COSTUME	383	n/a	1	n/a	0	0	0	0	0.5869140625	0.422607421875	lower	../fonts/amplitud.ttf
2053.046	n/a	WORD	1026523	wordpools/wasnorm_wordpool_less_exclusions.txt	LTP263	ltpFR	7	7	0	COUNTRY	388	n/a	1	n/a	0	0	0	0	0.5869140625	0.422607421875	lower	../fonts/amplitud.ttf
2057.246	n/a	WORD	1028623	wordpools/wasnorm_wordpool_less_exclusions.txt	LTP263	ltpFR	7	7	0	PACKAGE	997	n/a	0	n/a	0	0	0	0	0.5869140625	0.422607421875	lower	../fonts/amplitud.ttf
2061.118	n/a	WORD	1030559	wordpools/wasnorm_wordpool_less_exclusions.txt	LTP263	ltpFR	7	7	0	COCOON	339	n/a	0	n/a	0	0	0	0	0.5869140625	0.422607421875	lower	../fonts/amplitud.ttf
2065.216	n/a	WORD	1032608	wordpools/wasnorm_wordpool_less_exclusions.txt	LTP263	ltpFR	7	7	0	BEETLE	116	n/a	0	n/a	0	0	0	0	0.5869140625	0.422607421875	lower	../fonts/amplitud.ttf
2069.366	n/a	WORD	1034683	wordpools/wasnorm_wordpool_less_exclusions.txt	LTP263	ltpFR	7	7	0	POLICE	1098	n/a	1	n/a	0	0	0	0	0.5869140625	0.422607421875	lower	../fonts/amplitud.ttf
2073.264	n/a	WORD	1036632	wordpools/wasnorm_wordpool_less_exclusions.txt	LTP263	ltpFR	7	7	0	PATROL	1027	n/a	1	n/a	0	0	0	0	0.5869140625	0.422607421875	lower	../fonts/amplitud.ttf
2077.492	n/a	WORD	1038746	wordpools/wasnorm_wordpool_less_exclusions.txt	LTP263	ltpFR	7	7	0	PELT	1040	n/a	0	n/a	0	0	0	0	0.5869140625	0.422607421875	lower	../fonts/amplitud.ttf
2081.64	n/a	WORD	1040820	wordpools/wasnorm_wordpool_less_exclusions.txt	LTP263	ltpFR	7	7	0	LAPEL	800	n/a	0	n/a	0	0	0	0	0.5869140625	0.422607421875	lower	../fonts/amplitud.ttf
2085.738	n/a	WORD	1042869	wordpools/wasnorm_wordpool_less_exclusions.txt	LTP263	ltpFR	7	7	0	POSTAGE	1113	n/a	0	n/a	0	0	0	0	0.5869140625	0.422607421875	lower	../fonts/amplitud.ttf
2089.604	n/a	WORD	1044802	wordpools/wasnorm_wordpool_less_exclusions.txt	LTP263	ltpFR	7	7	0	NECK	939	n/a	0	n/a	0	0	0	0	0.5869140625	0.422607421875	lower	../fonts/amplitud.ttf
2092.616	n/a	START	1046308	n/a	LTP263	ltpFR	7	n/a	n/a	n/a	n/a	n/a	n/a	n/a	n/a	n/a	n/a	n/a	n/a	n/a	n/a	n/a
2093.67	n/a	PROB	1046835	n/a	LTP263	ltpFR	7	n/a	n/a	n/a	n/a	n/a	n/a	11	7	1	6	n/a	n/a	n/a	n/a	n/a
2095.248	n/a	PROB	1047624	n/a	LTP263	ltpFR	7	n/a	n/a	n/a	n/a	n/a	n/a	5	2	1	1	n/a	n/a	n/a	n/a	n/a
2096.52	n/a	PROB	1048260	n/a	LTP263	ltpFR	7	n/a	n/a	n/a	n/a	n/a	n/a	13	8	1	4	n/a	n/a	n/a	n/a	n/a
2099.592	n/a	PROB	1049796	n/a	LTP263	ltpFR	7	n/a	n/a	n/a	n/a	n/a	n/a	12	8	1	3	n/a	n/a	n/a	n/a	n/a
2101.18	n/a	PROB	1050590	n/a	LTP263	ltpFR	7	n/a	n/a	n/a	n/a	n/a	n/a	13	6	5	2	n/a	n/a	n/a	n/a	n/a
2104.232	n/a	PROB	1052116	n/a	LTP263	ltpFR	7	n/a	n/a	n/a	n/a	n/a	n/a	6	4	1	1	n/a	n/a	n/a	n/a	n/a
2105.966	n/a	PROB	1052983	n/a	LTP263	ltpFR	7	n/a	n/a	n/a	n/a	n/a	n/a	16	8	1	7	n/a	n/a	n/a	n/a	n/a
2108.236	n/a	STOP	1054118	n/a	LTP263	ltpFR	7	n/a	n/a	n/a	n/a	n/a	n/a	n/a	n/a	n/a	n/a	n/a	n/a	n/a	n/a	n/a
2110.508	n/a	REC_START	1055254	n/a	LTP263	ltpFR	7	7	n/a	n/a	n/a	n/a	n/a	n/a	0	0	0	n/a	n/a	n/a	n/a	n/a
2112.702	n/a	REC_WORD	1056351	wordpools/wasnorm_wordpool_less_exclusions.txt	LTP263	ltpFR	7	7	0	PRODUCER	1129	n/a	1	n/a	0	0	0	n/a	n/a	n/a	n/a	n/a
2113.968	n/a	REC_WORD	1056984	wordpools/wasnorm_wordpool_less_exclusions.txt	LTP263	ltpFR	7	7	0	COSTUME	383	n/a	1	n/a	0	0	0	n/a	n/a	n/a	n/a	n/a
2115.232	n/a	REC_WORD	1057616	wordpools/wasnorm_wordpool_less_exclusions.txt	LTP263	ltpFR	7	7	0	SCENERY	1247	n/a	1	n/a	0	0	0	n/a	n/a	n/a	n/a	n/a
2116.104	n/a	REC_WORD	1058052	wordpools/wasnorm_wordpool_less_exclusions.txt	LTP263	ltpFR	7	7	0	AFRICA	9	n/a	1	n/a	0	0	0	n/a	n/a	n/a	n/a	n/a
2117.044	n/a	REC_WORD	1058522	wordpools/wasnorm_wordpool_less_exclusions.txt	LTP263	ltpFR	7	7	0	COUNTRY	388	n/a	1	n/a	0	0	0	n/a	n/a	n/a	n/a	n/a
2118.34	n/a	REC_WORD	1059170	wordpools/wasnorm_wordpool_less_exclusions.txt	LTP263	ltpFR	7	7	0	POLICE	1098	n/a	1	n/a	0	0	0	n/a	n/a	n/a	n/a	n/a
2119.238	n/a	REC_WORD	1059619	wordpools/wasnorm_wordpool_less_exclusions.txt	LTP263	ltpFR	7	7	0	PATROL	1027	n/a	1	n/a	0	0	0	n/a	n/a	n/a	n/a	n/a
2120.614	n/a	REC_WORD	1060307	wordpools/wasnorm_wordpool_less_exclusions.txt	LTP263	ltpFR	7	7	0	DISH	474	n/a	0	n/a	0	0	0	n/a	n/a	n/a	n/a	n/a
2121.616	n/a	REC_WORD	1060808	wordpools/wasnorm_wordpool_less_exclusions.txt	LTP263	ltpFR	7	7	0	BEEF	113	n/a	0	n/a	0	0	0	n/a	n/a	n/a	n/a	n/a
2122.584	n/a	REC_WORD	1061292	wordpools/wasnorm_wordpool_less_exclusions.txt	LTP263	ltpFR	7	7	0	PACKAGE	997	n/a	0	n/a	0	0	0	n/a	n/a	n/a	n/a	n/a
2123.748	n/a	REC_WORD	1061874	wordpools/wasnorm_wordpool_less_exclusions.txt	LTP263	ltpFR	7	7	n/a	STAMP	1370	n/a	n/a	n/a	0	0	0	n/a	n/a	n/a	n/a	n/a
2127.18	n/a	REC_WORD_VV	1063590	wordpools/wasnorm_wordpool_less_exclusions.txt	LTP263	ltpFR	7	7	n/a	<>	-1	n/a	n/a	n/a	0	0	0	n/a	n/a	n/a	n/a	n/a
2128.59	n/a	REC_WORD	1064295	wordpools/wasnorm_wordpool_less_exclusions.txt	LTP263	ltpFR	7	7	0	LAPEL	800	n/a	0	n/a	0	0	0	n/a	n/a	n/a	n/a	n/a
2139.77	n/a	REC_WORD	1069885	wordpools/wasnorm_wordpool_less_exclusions.txt	LTP263	ltpFR	7	7	0	PELT	1040	n/a	0	n/a	0	0	0	n/a	n/a	n/a	n/a	n/a
2145.876	n/a	REC_WORD	1072938	wordpools/wasnorm_wordpool_less_exclusions.txt	LTP263	ltpFR	7	7	1	GOWN	652	n/a	0	n/a	0	0	0	n/a	n/a	n/a	n/a	n/a
2151.652	n/a	REC_WORD	1075826	wordpools/wasnorm_wordpool_less_exclusions.txt	LTP263	ltpFR	7	7	0	COCOON	339	n/a	0	n/a	0	0	0	n/a	n/a	n/a	n/a	n/a
2152.696	n/a	REC_WORD	1076348	wordpools/wasnorm_wordpool_less_exclusions.txt	LTP263	ltpFR	7	7	0	BEETLE	116	n/a	0	n/a	0	0	0	n/a	n/a	n/a	n/a	n/a
2186.75	n/a	START	1093375	n/a	LTP263	ltpFR	7	n/a	n/a	n/a	n/a	n/a	n/a	n/a	n/a	n/a	n/a	n/a	n/a	n/a	n/a	n/a
2188.264	n/a	PROB	1094132	n/a	LTP263	ltpFR	7	n/a	n/a	n/a	n/a	n/a	n/a	15	3	9	2	n/a	n/a	n/a	n/a	n/a
2191.526	n/a	PROB	1095763	n/a	LTP263	ltpFR	7	n/a	n/a	n/a	n/a	n/a	n/a	20	2	8	9	n/a	n/a	n/a	n/a	n/a
2193.306	n/a	PROB	1096653	n/a	LTP263	ltpFR	7	n/a	n/a	n/a	n/a	n/a	n/a	19	6	5	8	n/a	n/a	n/a	n/a	n/a
2198.392	n/a	PROB	1099196	n/a	LTP263	ltpFR	7	n/a	n/a	n/a	n/a	n/a	n/a	13	1	9	3	n/a	n/a	n/a	n/a	n/a
2202.75	n/a	STOP	1101375	n/a	LTP263	ltpFR	7	n/a	n/a	n/a	n/a	n/a	n/a	n/a	n/a	n/a	n/a	n/a	n/a	n/a	n/a	n/a
2203.68	n/a	WORD	1101840	wordpools/wasnorm_wordpool_less_exclusions.txt	LTP263	ltpFR	7	8	0	LION	827	n/a	1	n/a	0	0	0	0	0.5869140625	0.422607421875	lower	../fonts/amplitud.ttf
2206.692	n/a	START	1103346	n/a	LTP263	ltpFR	7	n/a	n/a	n/a	n/a	n/a	n/a	n/a	n/a	n/a	n/a	n/a	n/a	n/a	n/a	n/a
2207.746	n/a	PROB	1103873	n/a	LTP263	ltpFR	7	n/a	n/a	n/a	n/a	n/a	n/a	16	3	5	8	n/a	n/a	n/a	n/a	n/a
2210.566	n/a	PROB	1105283	n/a	LTP263	ltpFR	7	n/a	n/a	n/a	n/a	n/a	n/a	15	9	1	4	n/a	n/a	n/a	n/a	n/a
2212.094	n/a	PROB	1106047	n/a	LTP263	ltpFR	7	n/a	n/a	n/a	n/a	n/a	n/a	17	7	7	3	n/a	n/a	n/a	n/a	n/a
2213.878	n/a	PROB	1106939	n/a	LTP263	ltpFR	7	n/a	n/a	n/a	n/a	n/a	n/a	10	2	1	7	n/a	n/a	n/a	n/a	n/a
2215.284	n/a	PROB	1107642	n/a	LTP263	ltpFR	7	n/a	n/a	n/a	n/a	n/a	n/a	14	8	1	5	n/a	n/a	n/a	n/a	n/a
2216.772	n/a	PROB	1108386	n/a	LTP263	ltpFR	7	n/a	n/a	n/a	n/a	n/a	n/a	10	5	4	1	n/a	n/a	n/a	n/a	n/a
2218.026	n/a	PROB	1109013	n/a	LTP263	ltpFR	7	n/a	n/a	n/a	n/a	n/a	n/a	12	2	7	3	n/a	n/a	n/a	n/a	n/a
2219.656	n/a	PROB	1109828	n/a	LTP263	ltpFR	7	n/a	n/a	n/a	n/a	n/a	n/a	11	9	1	1	n/a	n/a	n/a	n/a	n/a
2220.822	n/a	PROB	1110411	n/a	LTP263	ltpFR	7	n/a	n/a	n/a	n/a	n/a	n/a	10	1	2	7	n/a	n/a	n/a	n/a	n/a
2222.066	n/a	STOP	1111033	n/a	LTP263	ltpFR	7	n/a	n/a	n/a	n/a	n/a	n/a	n/a	n/a	n/a	n/a	n/a	n/a	n/a	n/a	n/a
2223.706	n/a	WORD	1111853	wordpools/wasnorm_wordpool_less_exclusions.txt	LTP263	ltpFR	7	8	0	CAT	257	n/a	0	n/a	0	0	0	0	0.5869140625	0.422607421875	lower	../fonts/amplitud.ttf
2226.718	n/a	START	1113359	n/a	LTP263	ltpFR	7	n/a	n/a	n/a	n/a	n/a	n/a	n/a	n/a	n/a	n/a	n/a	n/a	n/a	n/a	n/a
2227.748	n/a	PROB	1113874	n/a	LTP263	ltpFR	7	n/a	n/a	n/a	n/a	n/a	n/a	11	4	1	6	n/a	n/a	n/a	n/a	n/a
2229.928	n/a	PROB	1114964	n/a	LTP263	ltpFR	7	n/a	n/a	n/a	n/a	n/a	n/a	7	2	4	1	n/a	n/a	n/a	n/a	n/a
2232.924	n/a	PROB	1116462	n/a	LTP263	ltpFR	7	n/a	n/a	n/a	n/a	n/a	n/a	16	2	5	9	n/a	n/a	n/a	n/a	n/a
2236.472	n/a	PROB	1118236	n/a	LTP263	ltpFR	7	n/a	n/a	n/a	n/a	n/a	n/a	17	3	7	7	n/a	n/a	n/a	n/a	n/a
2238.862	n/a	PROB	1119431	n/a	LTP263	ltpFR	7	n/a	n/a	n/a	n/a	n/a	n/a	20	9	5	7	n/a	n/a	n/a	n/a	n/a
2242.26	n/a	STOP	1121130	n/a	LTP263	ltpFR	7	n/a	n/a	n/a	n/a	n/a	n/a	n/a	n/a	n/a	n/a	n/a	n/a	n/a	n/a	n/a
2243.766	n/a	WORD	1121883	wordpools/wasnorm_wordpool_less_exclusions.txt	LTP263	ltpFR	7	8	0	ALMOND	18	n/a	0	n/a	0	0	0	0	0.5869140625	0.422607421875	lower	../fonts/amplitud.ttf
2246.778	n/a	START	1123389	n/a	LTP263	ltpFR	7	n/a	n/a	n/a	n/a	n/a	n/a	n/a	n/a	n/a	n/a	n/a	n/a	n/a	n/a	n/a
2247.758	n/a	PROB	1123879	n/a	LTP263	ltpFR	7	n/a	n/a	n/a	n/a	n/a	n/a	12	1	8	3	n/a	n/a	n/a	n/a	n/a
2250.116	n/a	PROB	1125058	n/a	LTP263	ltpFR	7	n/a	n/a	n/a	n/a	n/a	n/a	18	5	7	6	n/a	n/a	n/a	n/a	n/a
2252.844	n/a	PROB	1126422	n/a	LTP263	ltpFR	7	n/a	n/a	n/a	n/a	n/a	n/a	10	3	2	5	n/a	n/a	n/a	n/a	n/a
2254.834	n/a	PROB	1127417	n/a	LTP263	ltpFR	7	n/a	n/a	n/a	n/a	n/a	n/a	7	3	1	3	n/a	n/a	n/a	n/a	n/a
2257.042	n/a	PROB	1128521	n/a	LTP263	ltpFR	7	n/a	n/a	n/a	n/a	n/a	n/a	21	9	6	6	n/a	n/a	n/a	n/a	n/a
2259.302	n/a	PROB	1129651	n/a	LTP263	ltpFR	7	n/a	n/a	n/a	n/a	n/a	n/a	14	9	3	2	n/a	n/a	n/a	n/a	n/a
2261.668	n/a	STOP	1130834	n/a	LTP263	ltpFR	7	n/a	n/a	n/a	n/a	n/a	n/a	n/a	n/a	n/a	n/a	n/a	n/a	n/a	n/a	n/a
2263.776	n/a	WORD	1131888	wordpools/wasnorm_wordpool_less_exclusions.txt	LTP263	ltpFR	7	8	0	CONE	363	n/a	0	n/a	0	0	0	0	0.5869140625	0.422607421875	lower	../fonts/amplitud.ttf
2266.788	n/a	START	1133394	n/a	LTP263	ltpFR	7	n/a	n/a	n/a	n/a	n/a	n/a	n/a	n/a	n/a	n/a	n/a	n/a	n/a	n/a	n/a
2267.884	n/a	PROB	1133942	n/a	LTP263	ltpFR	7	n/a	n/a	n/a	n/a	n/a	n/a	16	7	2	7	n/a	n/a	n/a	n/a	n/a
2270.602	n/a	PROB	1135301	n/a	LTP263	ltpFR	7	n/a	n/a	n/a	n/a	n/a	n/a	20	9	6	5	n/a	n/a	n/a	n/a	n/a
2272.502	n/a	PROB	1136251	n/a	LTP263	ltpFR	7	n/a	n/a	n/a	n/a	n/a	n/a	19	5	9	5	n/a	n/a	n/a	n/a	n/a
2274.35	n/a	PROB	1137175	n/a	LTP263	ltpFR	7	n/a	n/a	n/a	n/a	n/a	n/a	15	2	7	6	n/a	n/a	n/a	n/a	n/a
2277.528	n/a	PROB	1138764	n/a	LTP263	ltpFR	7	n/a	n/a	n/a	n/a	n/a	n/a	10	4	4	2	n/a	n/a	n/a	n/a	n/a
2279.464	n/a	PROB	1139732	n/a	LTP263	ltpFR	7	n/a	n/a	n/a	n/a	n/a	n/a	13	2	8	3	n/a	n/a	n/a	n/a	n/a
2282.398	n/a	STOP	1141199	n/a	LTP263	ltpFR	7	n/a	n/a	n/a	n/a	n/a	n/a	n/a	n/a	n/a	n/a	n/a	n/a	n/a	n/a	n/a
2283.72	n/a	WORD	1141860	wordpools/wasnorm_wordpool_less_exclusions.txt	LTP263	ltpFR	7	8	0	DUMP	505	n/a	0	n/a	0	0	0	0	0.5869140625	0.422607421875	lower	../fonts/amplitud.ttf
2286.73	n/a	START	1143365	n/a	LTP263	ltpFR	7	n/a	n/a	n/a	n/a	n/a	n/a	n/a	n/a	n/a	n/a	n/a	n/a	n/a	n/a	n/a
2287.85	n/a	PROB	1143925	n/a	LTP263	ltpFR	7	n/a	n/a	n/a	n/a	n/a	n/a	21	7	6	9	n/a	n/a	n/a	n/a	n/a
2290.996	n/a	PROB	1145498	n/a	LTP263	ltpFR	7	n/a	n/a	n/a	n/a	n/a	n/a	10	1	5	4	n/a	n/a	n/a	n/a	n/a
2292.21	n/a	PROB	1146105	n/a	LTP263	ltpFR	7	n/a	n/a	n/a	n/a	n/a	n/a	15	7	5	3	n/a	n/a	n/a	n/a	n/a
2293.89	n/a	PROB	1146945	n/a	LTP263	ltpFR	7	n/a	n/a	n/a	n/a	n/a	n/a	18	3	8	7	n/a	n/a	n/a	n/a	n/a
2296.058	n/a	PROB	1148029	n/a	LTP263	ltpFR	7	n/a	n/a	n/a	n/a	n/a	n/a	8	4	1	3	n/a	n/a	n/a	n/a	n/a
2298.476	n/a	PROB	1149238	n/a	LTP263	ltpFR	7	n/a	n/a	n/a	n/a	n/a	n/a	17	7	1	9	n/a	n/a	n/a	n/a	n/a
2300.09	n/a	PROB	1150045	n/a	LTP263	ltpFR	7	n/a	n/a	n/a	n/a	n/a	n/a	7	1	5	1	n/a	n/a	n/a	n/a	n/a
2301.664	n/a	STOP	1150832	n/a	LTP263	ltpFR	7	n/a	n/a	n/a	n/a	n/a	n/a	n/a	n/a	n/a	n/a	n/a	n/a	n/a	n/a	n/a
2303.812	n/a	WORD	1151906	wordpools/wasnorm_wordpool_less_exclusions.txt	LTP263	ltpFR	7	8	0	RAISIN	1163	n/a	0	n/a	0	0	0	0	0.5869140625	0.422607421875	lower	../fonts/amplitud.ttf
2306.824	n/a	START	1153412	n/a	LTP263	ltpFR	7	n/a	n/a	n/a	n/a	n/a	n/a	n/a	n/a	n/a	n/a	n/a	n/a	n/a	n/a	n/a
2307.728	n/a	PROB	1153864	n/a	LTP263	ltpFR	7	n/a	n/a	n/a	n/a	n/a	n/a	25	7	9	9	n/a	n/a	n/a	n/a	n/a
2311.434	n/a	PROB	1155717	n/a	LTP263	ltpFR	7	n/a	n/a	n/a	n/a	n/a	n/a	13	3	5	5	n/a	n/a	n/a	n/a	n/a
2313.408	n/a	PROB	1156704	n/a	LTP263	ltpFR	7	n/a	n/a	n/a	n/a	n/a	n/a	18	2	9	7	n/a	n/a	n/a	n/a	n/a
2316.226	n/a	PROB	1158113	n/a	LTP263	ltpFR	7	n/a	n/a	n/a	n/a	n/a	n/a	16	4	9	3	n/a	n/a	n/a	n/a	n/a
2318.418	n/a	PROB	1159209	n/a	LTP263	ltpFR	7	n/a	n/a	n/a	n/a	n/a	n/a	16	8	2	6	n/a	n/a	n/a	n/a	n/a
2320.402	n/a	PROB	1160201	n/a	LTP263	ltpFR	7	n/a	n/a	n/a	n/a	n/a	n/a	8	5	2	1	n/a	n/a	n/a	n/a	n/a
2321.824	n/a	STOP	1160912	n/a	LTP263	ltpFR	7	n/a	n/a	n/a	n/a	n/a	n/a	n/a	n/a	n/a	n/a	n/a	n/a	n/a	n/a	n/a
2324.032	n/a	WORD	1162016	wordpools/wasnorm_wordpool_less_exclusions.txt	LTP263	ltpFR	7	8	0	ASTEROID	50	n/a	1	n/a	0	0	0	0	0.5869140625	0.422607421875	lower	../fonts/amplitud.ttf
2327.044	n/a	START	1163522	n/a	LTP263	ltpFR	7	n/a	n/a	n/a	n/a	n/a	n/a	n/a	n/a	n/a	n/a	n/a	n/a	n/a	n/a	n/a
2328.098	n/a	PROB	1164049	n/a	LTP263	ltpFR	7	n/a	n/a	n/a	n/a	n/a	n/a	16	4	7	4	n/a	n/a	n/a	n/a	n/a
2330.858	n/a	PROB	1165429	n/a	LTP263	ltpFR	7	n/a	n/a	n/a	n/a	n/a	n/a	14	4	8	2	n/a	n/a	n/a	n/a	n/a
2332.454	n/a	PROB	1166227	n/a	LTP263	ltpFR	7	n/a	n/a	n/a	n/a	n/a	n/a	14	1	5	8	n/a	n/a	n/a	n/a	n/a
2334.522	n/a	PROB	1167261	n/a	LTP263	ltpFR	7	n/a	n/a	n/a	n/a	n/a	n/a	11	1	5	5	n/a	n/a	n/a	n/a	n/a
2336.42	n/a	PROB	1168210	n/a	LTP263	ltpFR	7	n/a	n/a	n/a	n/a	n/a	n/a	11	2	1	8	n/a	n/a	n/a	n/a	n/a
2337.926	n/a	PROB	1168963	n/a	LTP263	ltpFR	7	n/a	n/a	n/a	n/a	n/a	n/a	22	9	4	9	n/a	n/a	n/a	n/a	n/a
2343.044	n/a	STOP	1171522	n/a	LTP263	ltpFR	7	n/a	n/a	n/a	n/a	n/a	n/a	n/a	n/a	n/a	n/a	n/a	n/a	n/a	n/a	n/a
2344.058	n/a	WORD	1172029	wordpools/wasnorm_wordpool_less_exclusions.txt	LTP263	ltpFR	7	8	0	COLOGNE	347	n/a	0	n/a	0	0	0	0	0.5869140625	0.422607421875	lower	../fonts/amplitud.ttf
2347.07	n/a	START	1173535	n/a	LTP263	ltpFR	7	n/a	n/a	n/a	n/a	n/a	n/a	n/a	n/a	n/a	n/a	n/a	n/a	n/a	n/a	n/a
2348.046	n/a	PROB	1174023	n/a	LTP263	ltpFR	7	n/a	n/a	n/a	n/a	n/a	n/a	14	6	1	7	n/a	n/a	n/a	n/a	n/a
2349.848	n/a	PROB	1174924	n/a	LTP263	ltpFR	7	n/a	n/a	n/a	n/a	n/a	n/a	12	5	3	4	n/a	n/a	n/a	n/a	n/a
2351.956	n/a	PROB	1175978	n/a	LTP263	ltpFR	7	n/a	n/a	n/a	n/a	n/a	n/a	24	9	9	6	n/a	n/a	n/a	n/a	n/a
2356.262	n/a	PROB	1178131	n/a	LTP263	ltpFR	7	n/a	n/a	n/a	n/a	n/a	n/a	20	8	8	3	n/a	n/a	n/a	n/a	n/a
2359.156	n/a	PROB	1179578	n/a	LTP263	ltpFR	7	n/a	n/a	n/a	n/a	n/a	n/a	9	1	4	4	n/a	n/a	n/a	n/a	n/a
2363.072	n/a	STOP	1181536	n/a	LTP263	ltpFR	7	n/a	n/a	n/a	n/a	n/a	n/a	n/a	n/a	n/a	n/a	n/a	n/a	n/a	n/a	n/a
2363.968	n/a	WORD	1181984	wordpools/wasnorm_wordpool_less_exclusions.txt	LTP263	ltpFR	7	8	0	SKUNK	1321	n/a	0	n/a	0	0	0	0	0.5869140625	0.422607421875	lower	../fonts/amplitud.ttf
2366.986	n/a	START	1183493	n/a	LTP263	ltpFR	7	n/a	n/a	n/a	n/a	n/a	n/a	n/a	n/a	n/a	n/a	n/a	n/a	n/a	n/a	n/a
2368.022	n/a	PROB	1184011	n/a	LTP263	ltpFR	7	n/a	n/a	n/a	n/a	n/a	n/a	14	6	4	6	n/a	n/a	n/a	n/a	n/a
2369.238	n/a	PROB	1184619	n/a	LTP263	ltpFR	7	n/a	n/a	n/a	n/a	n/a	n/a	17	5	3	9	n/a	n/a	n/a	n/a	n/a
2371.904	n/a	PROB	1185952	n/a	LTP263	ltpFR	7	n/a	n/a	n/a	n/a	n/a	n/a	8	1	2	5	n/a	n/a	n/a	n/a	n/a
2373.456	n/a	PROB	1186728	n/a	LTP263	ltpFR	7	n/a	n/a	n/a	n/a	n/a	n/a	14	5	3	6	n/a	n/a	n/a	n/a	n/a
2375.664	n/a	PROB	1187832	n/a	LTP263	ltpFR	7	n/a	n/a	n/a	n/a	n/a	n/a	17	9	6	2	n/a	n/a	n/a	n/a	n/a
2377.838	n/a	PROB	1188919	n/a	LTP263	ltpFR	7	n/a	n/a	n/a	n/a	n/a	n/a	15	9	4	2	n/a	n/a	n/a	n/a	n/a
2382.988	n/a	STOP	1191494	n/a	LTP263	ltpFR	7	n/a	n/a	n/a	n/a	n/a	n/a	n/a	n/a	n/a	n/a	n/a	n/a	n/a	n/a	n/a
2383.884	n/a	WORD	1191942	wordpools/wasnorm_wordpool_less_exclusions.txt	LTP263	ltpFR	7	8	0	OATS	968	n/a	0	n/a	0	0	0	0	0.5869140625	0.422607421875	lower	../fonts/amplitud.ttf
2386.896	n/a	START	1193448	n/a	LTP263	ltpFR	7	n/a	n/a	n/a	n/a	n/a	n/a	n/a	n/a	n/a	n/a	n/a	n/a	n/a	n/a	n/a
2387.932	n/a	PROB	1193966	n/a	LTP263	ltpFR	7	n/a	n/a	n/a	n/a	n/a	n/a	11	7	1	3	n/a	n/a	n/a	n/a	n/a
2389.422	n/a	PROB	1194711	n/a	LTP263	ltpFR	7	n/a	n/a	n/a	n/a	n/a	n/a	8	2	2	4	n/a	n/a	n/a	n/a	n/a
2392.318	n/a	PROB	1196159	n/a	LTP263	ltpFR	7	n/a	n/a	n/a	n/a	n/a	n/a	12	1	9	2	n/a	n/a	n/a	n/a	n/a
2393.832	n/a	PROB	1196916	n/a	LTP263	ltpFR	7	n/a	n/a	n/a	n/a	n/a	n/a	15	6	7	2	n/a	n/a	n/a	n/a	n/a
2395.89	n/a	PROB	1197945	n/a	LTP263	ltpFR	7	n/a	n/a	n/a	n/a	n/a	n/a	18	2	9	7	n/a	n/a	n/a	n/a	n/a
2397.732	n/a	PROB	1198866	n/a	LTP263	ltpFR	7	n/a	n/a	n/a	n/a	n/a	n/a	12	4	7	1	n/a	n/a	n/a	n/a	n/a
2400.156	n/a	PROB	1200078	n/a	LTP263	ltpFR	7	n/a	n/a	n/a	n/a	n/a	n/a	14	6	1	7	n/a	n/a	n/a	n/a	n/a
2401.82	n/a	STOP	1200910	n/a	LTP263	ltpFR	7	n/a	n/a	n/a	n/a	n/a	n/a	n/a	n/a	n/a	n/a	n/a	n/a	n/a	n/a	n/a
2403.728	n/a	WORD	1201864	wordpools/wasnorm_wordpool_less_exclusions.txt	LTP263	ltpFR	7	8	0	RAILROAD	1162	n/a	1	n/a	0	0	0	0	0.5869140625	0.422607421875	lower	../fonts/amplitud.ttf
2406.74	n/a	START	1203370	n/a	LTP263	ltpFR	7	n/a	n/a	n/a	n/a	n/a	n/a	n/a	n/a	n/a	n/a	n/a	n/a	n/a	n/a	n/a
2407.636	n/a	PROB	1203818	n/a	LTP263	ltpFR	7	n/a	n/a	n/a	n/a	n/a	n/a	6	1	4	1	n/a	n/a	n/a	n/a	n/a
2409.14	n/a	PROB	1204570	n/a	LTP263	ltpFR	7	n/a	n/a	n/a	n/a	n/a	n/a	18	5	5	8	n/a	n/a	n/a	n/a	n/a
2410.546	n/a	PROB	1205273	n/a	LTP263	ltpFR	7	n/a	n/a	n/a	n/a	n/a	n/a	18	7	4	6	n/a	n/a	n/a	n/a	n/a
2414.862	n/a	PROB	1207431	n/a	LTP263	ltpFR	7	n/a	n/a	n/a	n/a	n/a	n/a	14	3	2	8	n/a	n/a	n/a	n/a	n/a
2417.194	n/a	PROB	1208597	n/a	LTP263	ltpFR	7	n/a	n/a	n/a	n/a	n/a	n/a	9	1	2	6	n/a	n/a	n/a	n/a	n/a
2419.068	n/a	PROB	1209534	n/a	LTP263	ltpFR	7	n/a	n/a	n/a	n/a	n/a	n/a	22	9	8	7	n/a	n/a	n/a	n/a	n/a
2422.02	n/a	STOP	1211010	n/a	LTP263	ltpFR	7	n/a	n/a	n/a	n/a	n/a	n/a	n/a	n/a	n/a	n/a	n/a	n/a	n/a	n/a	n/a
2423.586	n/a	WORD	1211793	wordpools/wasnorm_wordpool_less_exclusions.txt	LTP263	ltpFR	7	8	0	ENGINEER	536	n/a	1	n/a	0	0	0	0	0.5869140625	0.422607421875	lower	../fonts/amplitud.ttf
2426.598	n/a	START	1213299	n/a	LTP263	ltpFR	7	n/a	n/a	n/a	n/a	n/a	n/a	n/a	n/a	n/a	n/a	n/a	n/a	n/a	n/a	n/a
2427.468	n/a	PROB	1213734	n/a	LTP263	ltpFR	7	n/a	n/a	n/a	n/a	n/a	n/a	11	2	4	5	n/a	n/a	n/a	n/a	n/a
2429.166	n/a	PROB	1214583	n/a	LTP263	ltpFR	7	n/a	n/a	n/a	n/a	n/a	n/a	19	7	3	9	n/a	n/a	n/a	n/a	n/a
2431.058	n/a	PROB	1215529	n/a	LTP263	ltpFR	7	n/a	n/a	n/a	n/a	n/a	n/a	9	2	3	5	n/a	n/a	n/a	n/a	n/a
2434.002	n/a	PROB	1217001	n/a	LTP263	ltpFR	7	n/a	n/a	n/a	n/a	n/a	n/a	14	9	1	4	n/a	n/a	n/a	n/a	n/a
2435.432	n/a	PROB	1217716	n/a	LTP263	ltpFR	7	n/a	n/a	n/a	n/a	n/a	n/a	18	7	6	5	n/a	n/a	n/a	n/a	n/a
2437.282	n/a	PROB	1218641	n/a	LTP263	ltpFR	7	n/a	n/a	n/a	n/a	n/a	n/a	15	5	7	3	n/a	n/a	n/a	n/a	n/a
2438.854	n/a	PROB	1219427	n/a	LTP263	ltpFR	7	n/a	n/a	n/a	n/a	n/a	n/a	12	2	6	4	n/a	n/a	n/a	n/a	n/a
2442.6	n/a	STOP	1221300	n/a	LTP263	ltpFR	7	n/a	n/a	n/a	n/a	n/a	n/a	n/a	n/a	n/a	n/a	n/a	n/a	n/a	n/a	n/a
2443.764	n/a	WORD	1221882	wordpools/wasnorm_wordpool_less_exclusions.txt	LTP263	ltpFR	7	8	0	PLANT	1083	n/a	1	n/a	0	0	0	0	0.5869140625	0.422607421875	lower	../fonts/amplitud.ttf
2446.776	n/a	START	1223388	n/a	LTP263	ltpFR	7	n/a	n/a	n/a	n/a	n/a	n/a	n/a	n/a	n/a	n/a	n/a	n/a	n/a	n/a	n/a
2447.978	n/a	PROB	1223989	n/a	LTP263	ltpFR	7	n/a	n/a	n/a	n/a	n/a	n/a	13	7	4	2	n/a	n/a	n/a	n/a	n/a
2450.29	n/a	PROB	1225145	n/a	LTP263	ltpFR	7	n/a	n/a	n/a	n/a	n/a	n/a	25	9	8	9	n/a	n/a	n/a	n/a	n/a
2452.43	n/a	PROB	1226215	n/a	LTP263	ltpFR	7	n/a	n/a	n/a	n/a	n/a	n/a	16	8	7	6	n/a	n/a	n/a	n/a	n/a
2456.456	n/a	PROB	1228228	n/a	LTP263	ltpFR	7	n/a	n/a	n/a	n/a	n/a	n/a	45	6	8	7	n/a	n/a	n/a	n/a	n/a
2459.182	n/a	PROB	1229591	n/a	LTP263	ltpFR	7	n/a	n/a	n/a	n/a	n/a	n/a	18	8	7	3	n/a	n/a	n/a	n/a	n/a
2461.752	n/a	STOP	1230876	n/a	LTP263	ltpFR	7	n/a	n/a	n/a	n/a	n/a	n/a	n/a	n/a	n/a	n/a	n/a	n/a	n/a	n/a	n/a
2463.872	n/a	WORD	1231936	wordpools/wasnorm_wordpool_less_exclusions.txt	LTP263	ltpFR	7	8	0	BOLT	146	n/a	1	n/a	0	0	0	0	0.5869140625	0.422607421875	lower	../fonts/amplitud.ttf
2466.884	n/a	START	1233442	n/a	LTP263	ltpFR	7	n/a	n/a	n/a	n/a	n/a	n/a	n/a	n/a	n/a	n/a	n/a	n/a	n/a	n/a	n/a
2467.834	n/a	PROB	1233917	n/a	LTP263	ltpFR	7	n/a	n/a	n/a	n/a	n/a	n/a	19	5	4	9	n/a	n/a	n/a	n/a	n/a
2469.562	n/a	PROB	1234781	n/a	LTP263	ltpFR	7	n/a	n/a	n/a	n/a	n/a	n/a	12	2	2	8	n/a	n/a	n/a	n/a	n/a
2471.68	n/a	PROB	1235840	n/a	LTP263	ltpFR	7	n/a	n/a	n/a	n/a	n/a	n/a	17	3	6	8	n/a	n/a	n/a	n/a	n/a
2475.092	n/a	PROB	1237546	n/a	LTP263	ltpFR	7	n/a	n/a	n/a	n/a	n/a	n/a	15	1	7	7	n/a	n/a	n/a	n/a	n/a
2476.906	n/a	PROB	1238453	n/a	LTP263	ltpFR	7	n/a	n/a	n/a	n/a	n/a	n/a	18	3	6	9	n/a	n/a	n/a	n/a	n/a
2479.55	n/a	PROB	1239775	n/a	LTP263	ltpFR	7	n/a	n/a	n/a	n/a	n/a	n/a	9	6	2	2	n/a	n/a	n/a	n/a	n/a
2482.368	n/a	STOP	1241184	n/a	LTP263	ltpFR	7	n/a	n/a	n/a	n/a	n/a	n/a	n/a	n/a	n/a	n/a	n/a	n/a	n/a	n/a	n/a
2483.76	n/a	WORD	1241880	wordpools/wasnorm_wordpool_less_exclusions.txt	LTP263	ltpFR	7	8	0	CRATER	400	n/a	1	n/a	0	0	0	0	0.5869140625	0.422607421875	lower	../fonts/amplitud.ttf
2486.772	n/a	START	1243386	n/a	LTP263	ltpFR	7	n/a	n/a	n/a	n/a	n/a	n/a	n/a	n/a	n/a	n/a	n/a	n/a	n/a	n/a	n/a
2487.916	n/a	PROB	1243958	n/a	LTP263	ltpFR	7	n/a	n/a	n/a	n/a	n/a	n/a	15	6	4	5	n/a	n/a	n/a	n/a	n/a
2490.368	n/a	PROB	1245184	n/a	LTP263	ltpFR	7	n/a	n/a	n/a	n/a	n/a	n/a	6	3	1	2	n/a	n/a	n/a	n/a	n/a
2492.618	n/a	PROB	1246309	n/a	LTP263	ltpFR	7	n/a	n/a	n/a	n/a	n/a	n/a	13	1	9	3	n/a	n/a	n/a	n/a	n/a
2494.25	n/a	PROB	1247125	n/a	LTP263	ltpFR	7	n/a	n/a	n/a	n/a	n/a	n/a	10	3	1	6	n/a	n/a	n/a	n/a	n/a
2496.426	n/a	PROB	1248213	n/a	LTP263	ltpFR	7	n/a	n/a	n/a	n/a	n/a	n/a	14	5	5	4	n/a	n/a	n/a	n/a	n/a
2497.704	n/a	PROB	1248852	n/a	LTP263	ltpFR	7	n/a	n/a	n/a	n/a	n/a	n/a	6	2	1	3	n/a	n/a	n/a	n/a	n/a
2502.772	n/a	STOP	1251386	n/a	LTP263	ltpFR	7	n/a	n/a	n/a	n/a	n/a	n/a	n/a	n/a	n/a	n/a	n/a	n/a	n/a	n/a	n/a
2503.636	n/a	WORD	1251818	wordpools/wasnorm_wordpool_less_exclusions.txt	LTP263	ltpFR	7	8	0	CUPBOARD	425	n/a	1	n/a	0	0	0	0	0.5869140625	0.422607421875	lower	../fonts/amplitud.ttf
2506.648	n/a	START	1253324	n/a	LTP263	ltpFR	7	n/a	n/a	n/a	n/a	n/a	n/a	n/a	n/a	n/a	n/a	n/a	n/a	n/a	n/a	n/a
2507.776	n/a	PROB	1253888	n/a	LTP263	ltpFR	7	n/a	n/a	n/a	n/a	n/a	n/a	16	4	9	4	n/a	n/a	n/a	n/a	n/a
2509.86	n/a	PROB	1254930	n/a	LTP263	ltpFR	7	n/a	n/a	n/a	n/a	n/a	n/a	19	1	9	9	n/a	n/a	n/a	n/a	n/a
2512.286	n/a	PROB	1256143	n/a	LTP263	ltpFR	7	n/a	n/a	n/a	n/a	n/a	n/a	12	5	1	6	n/a	n/a	n/a	n/a	n/a
2514.568	n/a	PROB	1257284	n/a	LTP263	ltpFR	7	n/a	n/a	n/a	n/a	n/a	n/a	12	4	4	5	n/a	n/a	n/a	n/a	n/a
2517.706	n/a	PROB	1258853	n/a	LTP263	ltpFR	7	n/a	n/a	n/a	n/a	n/a	n/a	16	6	8	2	n/a	n/a	n/a	n/a	n/a
2521.738	n/a	STOP	1260869	n/a	LTP263	ltpFR	7	n/a	n/a	n/a	n/a	n/a	n/a	n/a	n/a	n/a	n/a	n/a	n/a	n/a	n/a	n/a
2524.422	n/a	REC_START	1262211	n/a	LTP263	ltpFR	7	8	n/a	n/a	n/a	n/a	n/a	n/a	0	0	0	n/a	n/a	n/a	n/a	n/a
2526.308	n/a	REC_WORD	1263154	wordpools/wasnorm_wordpool_less_exclusions.txt	LTP263	ltpFR	7	8	0	CUPBOARD	425	n/a	1	n/a	0	0	0	n/a	n/a	n/a	n/a	n/a
2527.394	n/a	REC_WORD	1263697	wordpools/wasnorm_wordpool_less_exclusions.txt	LTP263	ltpFR	7	8	0	LION	827	n/a	1	n/a	0	0	0	n/a	n/a	n/a	n/a	n/a
2528.374	n/a	REC_WORD	1264187	wordpools/wasnorm_wordpool_less_exclusions.txt	LTP263	ltpFR	7	8	0	CAT	257	n/a	0	n/a	0	0	0	n/a	n/a	n/a	n/a	n/a
2539.008	n/a	REC_WORD	1269504	wordpools/wasnorm_wordpool_less_exclusions.txt	LTP263	ltpFR	7	8	0	OATS	968	n/a	0	n/a	0	0	0	n/a	n/a	n/a	n/a	n/a
2582.582	n/a	REC_WORD	1291291	wordpools/wasnorm_wordpool_less_exclusions.txt	LTP263	ltpFR	7	8	0	RAISIN	1163	n/a	0	n/a	0	0	0	n/a	n/a	n/a	n/a	n/a
2583.85	n/a	REC_WORD	1291925	wordpools/wasnorm_wordpool_less_exclusions.txt	LTP263	ltpFR	7	8	0	CONE	363	n/a	0	n/a	0	0	0	n/a	n/a	n/a	n/a	n/a
2602.398	n/a	WORD	1301199	wordpools/wasnorm_wordpool_less_exclusions.txt	LTP263	ltpFR	7	9	1	DRESS	495	n/a	3	n/a	0	0	0	1	0.412841796875	0.57763671875	upper	../fonts/zerothre.ttf
2603.692	n/a	KEY_MSG	1301846	n/a	LTP263	ltpFR	7	9	n/a	n/a	n/a	n/a	n/a	n/a	0	0	0	n/a	n/a	n/a	n/a	n/a
2606.48	n/a	WORD	1303240	wordpools/wasnorm_wordpool_less_exclusions.txt	LTP263	ltpFR	7	9	1	SWORD	1423	n/a	1	n/a	0	0	0	1	0.412841796875	0.57763671875	upper	../fonts/zerothre.ttf
2610.384	n/a	WORD	1305192	wordpools/wasnorm_wordpool_less_exclusions.txt	LTP263	ltpFR	7	9	1	JUGGLER	763	n/a	1	n/a	0	0	0	1	0.412841796875	0.57763671875	upper	../fonts/zerothre.ttf
2614.516	n/a	WORD	1307258	wordpools/wasnorm_wordpool_less_exclusions.txt	LTP263	ltpFR	7	9	1	PATRIOT	1026	n/a	1	n/a	0	0	0	1	0.412841796875	0.57763671875	upper	../fonts/zerothre.ttf
2618.632	n/a	WORD	1309316	wordpools/wasnorm_wordpool_less_exclusions.txt	LTP263	ltpFR	7	9	1	PIGEON	1065	n/a	1	n/a	0	0	0	1	0.412841796875	0.57763671875	upper	../fonts/zerothre.ttf
2622.724	n/a	WORD	1311362	wordpools/wasnorm_wordpool_less_exclusions.txt	LTP263	ltpFR	7	9	1	SAUCER	1237	n/a	0	n/a	0	0	0	1	0.412841796875	0.57763671875	upper	../fonts/zerothre.ttf
2626.596	n/a	WORD	1313298	wordpools/wasnorm_wordpool_less_exclusions.txt	LTP263	ltpFR	7	9	1	GLASS	639	n/a	0	n/a	0	0	0	1	0.412841796875	0.57763671875	upper	../fonts/zerothre.ttf
2630.712	n/a	WORD	1315356	wordpools/wasnorm_wordpool_less_exclusions.txt	LTP263	ltpFR	7	9	1	BEAST	108	n/a	1	n/a	0	0	0	1	0.412841796875	0.57763671875	upper	../fonts/zerothre.ttf
2634.542	n/a	WORD	1317271	wordpools/wasnorm_wordpool_less_exclusions.txt	LTP263	ltpFR	7	9	1	CAPTAIN	239	n/a	1	n/a	0	0	0	1	0.412841796875	0.57763671875	upper	../fonts/zerothre.ttf
2638.642	n/a	WORD	1319321	wordpools/wasnorm_wordpool_less_exclusions.txt	LTP263	ltpFR	7	9	1	OAR	966	n/a	0	n/a	0	0	0	1	0.412841796875	0.57763671875	upper	../fonts/zerothre.ttf
2642.556	n/a	WORD	1321278	wordpools/wasnorm_wordpool_less_exclusions.txt	LTP263	ltpFR	7	9	1	CARROT	249	n/a	1	n/a	0	0	0	1	0.412841796875	0.57763671875	upper	../fonts/zerothre.ttf
2646.432	n/a	WORD	1323216	wordpools/wasnorm_wordpool_less_exclusions.txt	LTP263	ltpFR	7	9	1	PARSLEY	1016	n/a	1	n/a	0	0	0	1	0.412841796875	0.57763671875	upper	../fonts/zerothre.ttf
2650.336	n/a	WORD	1325168	wordpools/wasnorm_wordpool_less_exclusions.txt	LTP263	ltpFR	7	9	1	ZEBRA	1635	n/a	1	n/a	0	0	0	1	0.412841796875	0.57763671875	upper	../fonts/zerothre.ttf
2654.2	n/a	WORD	1327100	wordpools/wasnorm_wordpool_less_exclusions.txt	LTP263	ltpFR	7	9	1	CRYSTAL	418	n/a	0	n/a	0	0	0	1	0.412841796875	0.57763671875	upper	../fonts/zerothre.ttf
2658.166	n/a	WORD	1329083	wordpools/wasnorm_wordpool_less_exclusions.txt	LTP263	ltpFR	7	9	1	LAWYER	806	n/a	1	n/a	0	0	0	1	0.412841796875	0.57763671875	upper	../fonts/zerothre.ttf
2662.3	n/a	WORD	1331150	wordpools/wasnorm_wordpool_less_exclusions.txt	LTP263	ltpFR	7	9	1	BLADE	134	n/a	0	n/a	0	0	0	1	0.412841796875	0.57763671875	upper	../fonts/zerothre.ttf
2665.31	n/a	START	1332655	n/a	LTP263	ltpFR	7	n/a	n/a	n/a	n/a	n/a	n/a	n/a	n/a	n/a	n/a	n/a	n/a	n/a	n/a	n/a
2666.448	n/a	PROB	1333224	n/a	LTP263	ltpFR	7	n/a	n/a	n/a	n/a	n/a	n/a	12	7	6	9	n/a	n/a	n/a	n/a	n/a
2669.252	n/a	PROB	1334626	n/a	LTP263	ltpFR	7	n/a	n/a	n/a	n/a	n/a	n/a	13	5	2	6	n/a	n/a	n/a	n/a	n/a
2671.494	n/a	PROB	1335747	n/a	LTP263	ltpFR	7	n/a	n/a	n/a	n/a	n/a	n/a	19	1	9	9	n/a	n/a	n/a	n/a	n/a
2672.986	n/a	STOP	1336493	n/a	LTP263	ltpFR	7	n/a	n/a	n/a	n/a	n/a	n/a	n/a	n/a	n/a	n/a	n/a	n/a	n/a	n/a	n/a
2675.148	n/a	REC_START	1337574	n/a	LTP263	ltpFR	7	9	n/a	n/a	n/a	n/a	n/a	n/a	0	0	0	n/a	n/a	n/a	n/a	n/a
2677.044	n/a	REC_WORD	1338522	wordpools/wasnorm_wordpool_less_exclusions.txt	LTP263	ltpFR	7	9	1	CRYSTAL	418	n/a	0	n/a	0	0	0	n/a	n/a	n/a	n/a	n/a
2677.842	n/a	REC_WORD	1338921	wordpools/wasnorm_wordpool_less_exclusions.txt	LTP263	ltpFR	7	9	1	ZEBRA	1635	n/a	1	n/a	0	0	0	n/a	n/a	n/a	n/a	n/a
2678.884	n/a	REC_WORD	1339442	wordpools/wasnorm_wordpool_less_exclusions.txt	LTP263	ltpFR	7	9	1	LAWYER	806	n/a	1	n/a	0	0	0	n/a	n/a	n/a	n/a	n/a
2679.952	n/a	REC_WORD	1339976	wordpools/wasnorm_wordpool_less_exclusions.txt	LTP263	ltpFR	7	9	1	BLADE	134	n/a	0	n/a	0	0	0	n/a	n/a	n/a	n/a	n/a
2681.024	n/a	REC_WORD	1340512	wordpools/wasnorm_wordpool_less_exclusions.txt	LTP263	ltpFR	7	9	1	JUGGLER	763	n/a	1	n/a	0	0	0	n/a	n/a	n/a	n/a	n/a
2682.17	n/a	REC_WORD	1341085	wordpools/wasnorm_wordpool_less_exclusions.txt	LTP263	ltpFR	7	9	1	GOWN	652	n/a	0	n/a	0	0	0	n/a	n/a	n/a	n/a	n/a
2683.312	n/a	REC_WORD	1341656	wordpools/wasnorm_wordpool_less_exclusions.txt	LTP263	ltpFR	7	9	1	SWORD	1423	n/a	1	n/a	0	0	0	n/a	n/a	n/a	n/a	n/a
2692.942	n/a	REC_WORD	1346471	wordpools/wasnorm_wordpool_less_exclusions.txt	LTP263	ltpFR	7	9	1	PIGEON	1065	n/a	1	n/a	0	0	0	n/a	n/a	n/a	n/a	n/a
2694.732	n/a	REC_WORD	1347366	wordpools/wasnorm_wordpool_less_exclusions.txt	LTP263	ltpFR	7	9	1	SAUCER	1237	n/a	0	n/a	0	0	0	n/a	n/a	n/a	n/a	n/a
2696.184	n/a	REC_WORD	1348092	wordpools/wasnorm_wordpool_less_exclusions.txt	LTP263	ltpFR	7	9	1	GLASS	639	n/a	0	n/a	0	0	0	n/a	n/a	n/a	n/a	n/a
2697.568	n/a	REC_WORD	1348784	wordpools/wasnorm_wordpool_less_exclusions.txt	LTP263	ltpFR	7	9	1	CARROT	249	n/a	1	n/a	0	0	0	n/a	n/a	n/a	n/a	n/a
2698.798	n/a	REC_WORD	1349399	wordpools/wasnorm_wordpool_less_exclusions.txt	LTP263	ltpFR	7	9	1	PARSLEY	1016	n/a	1	n/a	0	0	0	n/a	n/a	n/a	n/a	n/a
2708.088	n/a	REC_WORD	1354044	wordpools/wasnorm_wordpool_less_exclusions.txt	LTP263	ltpFR	7	9	n/a	PIRATE	1074	n/a	n/a	n/a	0	0	0	n/a	n/a	n/a	n/a	n/a
2715.804	n/a	REC_WORD	1357902	wordpools/wasnorm_wordpool_less_exclusions.txt	LTP263	ltpFR	7	9	1	ZEBRA	1635	n/a	1	n/a	0	0	0	n/a	n/a	n/a	n/a	n/a
2753.072	n/a	WORD	1376536	wordpools/wasnorm_wordpool_less_exclusions.txt	LTP263	ltpFR	7	10	0	WRIST	1626	n/a	0	n/a	0	0	0	0	0.5869140625	0.422607421875	lower	../fonts/amplitud.ttf
2757.272	n/a	WORD	1378636	wordpools/wasnorm_wordpool_less_exclusions.txt	LTP263	ltpFR	7	10	0	NICOTINE	951	n/a	0	n/a	0	0	0	0	0.5869140625	0.422607421875	lower	../fonts/amplitud.ttf
2761.142	n/a	WORD	1380571	wordpools/wasnorm_wordpool_less_exclusions.txt	LTP263	ltpFR	7	10	0	MINT	898	n/a	0	n/a	0	0	0	0	0.5869140625	0.422607421875	lower	../fonts/amplitud.ttf
2765.302	n/a	WORD	1382651	wordpools/wasnorm_wordpool_less_exclusions.txt	LTP263	ltpFR	7	10	0	CREVICE	405	n/a	1	n/a	0	0	0	0	0.5869140625	0.422607421875	lower	../fonts/amplitud.ttf
2769.308	n/a	WORD	1384654	wordpools/wasnorm_wordpool_less_exclusions.txt	LTP263	ltpFR	7	10	0	LEMON	810	n/a	0	n/a	0	0	0	0	0.5869140625	0.422607421875	lower	../fonts/amplitud.ttf
2773.216	n/a	WORD	1386608	wordpools/wasnorm_wordpool_less_exclusions.txt	LTP263	ltpFR	7	10	0	TEAPOT	1442	n/a	0	n/a	0	0	0	0	0.5869140625	0.422607421875	lower	../fonts/amplitud.ttf
2777.17	n/a	WORD	1388585	wordpools/wasnorm_wordpool_less_exclusions.txt	LTP263	ltpFR	7	10	0	REGISTER	1180	n/a	1	n/a	0	0	0	0	0.5869140625	0.422607421875	lower	../fonts/amplitud.ttf
2781.398	n/a	WORD	1390699	wordpools/wasnorm_wordpool_less_exclusions.txt	LTP263	ltpFR	7	10	0	HORSE	719	n/a	1	n/a	0	0	0	0	0.5869140625	0.422607421875	lower	../fonts/amplitud.ttf
2785.328	n/a	WORD	1392664	wordpools/wasnorm_wordpool_less_exclusions.txt	LTP263	ltpFR	7	10	0	PIPE	1073	n/a	0	n/a	0	0	0	0	0.5869140625	0.422607421875	lower	../fonts/amplitud.ttf
2789.282	n/a	WORD	1394641	wordpools/wasnorm_wordpool_less_exclusions.txt	LTP263	ltpFR	7	10	0	RAIL	1161	n/a	1	n/a	0	0	0	0	0.5869140625	0.422607421875	lower	../fonts/amplitud.ttf
2793.232	n/a	WORD	1396616	wordpools/wasnorm_wordpool_less_exclusions.txt	LTP263	ltpFR	7	10	0	TROUT	1511	n/a	0	n/a	0	0	0	0	0.5869140625	0.422607421875	lower	../fonts/amplitud.ttf
2797.28	n/a	WORD	1398640	wordpools/wasnorm_wordpool_less_exclusions.txt	LTP263	ltpFR	7	10	0	OCTOPUS	971	n/a	0	n/a	0	0	0	0	0.5869140625	0.422607421875	lower	../fonts/amplitud.ttf
2801.296	n/a	WORD	1400648	wordpools/wasnorm_wordpool_less_exclusions.txt	LTP263	ltpFR	7	10	0	STALLION	1369	n/a	0	n/a	0	0	0	0	0.5869140625	0.422607421875	lower	../fonts/amplitud.ttf
2805.472	n/a	WORD	1402736	wordpools/wasnorm_wordpool_less_exclusions.txt	LTP263	ltpFR	7	10	0	CANDIDATE	228	n/a	0	n/a	0	0	0	0	0.5869140625	0.422607421875	lower	../fonts/amplitud.ttf
2809.596	n/a	WORD	1404798	wordpools/wasnorm_wordpool_less_exclusions.txt	LTP263	ltpFR	7	10	0	POLITICIAN	1099	n/a	1	n/a	0	0	0	0	0.5869140625	0.422607421875	lower	../fonts/amplitud.ttf
2813.494	n/a	WORD	1406747	wordpools/wasnorm_wordpool_less_exclusions.txt	LTP263	ltpFR	7	10	0	CONDUCTOR	362	n/a	1	n/a	0	0	0	0	0.5869140625	0.422607421875	lower	../fonts/amplitud.ttf
2819.266	n/a	REC_START	1409633	n/a	LTP263	ltpFR	7	10	n/a	n/a	n/a	n/a	n/a	n/a	0	0	0	n/a	n/a	n/a	n/a	n/a
2820.514	n/a	REC_WORD	1410257	wordpools/wasnorm_wordpool_less_exclusions.txt	LTP263	ltpFR	7	10	0	POLITICIAN	1099	n/a	1	n/a	0	0	0	n/a	n/a	n/a	n/a	n/a
2821.524	n/a	REC_WORD	1410762	wordpools/wasnorm_wordpool_less_exclusions.txt	LTP263	ltpFR	7	10	0	CONDUCTOR	362	n/a	1	n/a	0	0	0	n/a	n/a	n/a	n/a	n/a
2822.514	n/a	REC_WORD	1411257	wordpools/wasnorm_wordpool_less_exclusions.txt	LTP263	ltpFR	7	10	0	HORSE	719	n/a	1	n/a	0	0	0	n/a	n/a	n/a	n/a	n/a
2823.286	n/a	REC_WORD	1411643	wordpools/wasnorm_wordpool_less_exclusions.txt	LTP263	ltpFR	7	10	0	STALLION	1369	n/a	0	n/a	0	0	0	n/a	n/a	n/a	n/a	n/a
2824.78	n/a	REC_WORD	1412390	wordpools/wasnorm_wordpool_less_exclusions.txt	LTP263	ltpFR	7	10	0	PIPE	1073	n/a	0	n/a	0	0	0	n/a	n/a	n/a	n/a	n/a
2825.638	n/a	REC_WORD	1412819	wordpools/wasnorm_wordpool_less_exclusions.txt	LTP263	ltpFR	7	10	0	CREVICE	405	n/a	1	n/a	0	0	0	n/a	n/a	n/a	n/a	n/a
2826.62	n/a	REC_WORD	1413310	wordpools/wasnorm_wordpool_less_exclusions.txt	LTP263	ltpFR	7	10	0	REGISTER	1180	n/a	1	n/a	0	0	0	n/a	n/a	n/a	n/a	n/a
2835.432	n/a	REC_WORD_VV	1417716	wordpools/wasnorm_wordpool_less_exclusions.txt	LTP263	ltpFR	7	10	n/a	<>	-1	n/a	n/a	n/a	0	0	0	n/a	n/a	n/a	n/a	n/a
2841.252	n/a	REC_WORD	1420626	wordpools/wasnorm_wordpool_less_exclusions.txt	LTP263	ltpFR	7	10	0	TROUT	1511	n/a	0	n/a	0	0	0	n/a	n/a	n/a	n/a	n/a
2842.124	n/a	REC_WORD	1421062	wordpools/wasnorm_wordpool_less_exclusions.txt	LTP263	ltpFR	7	10	0	OCTOPUS	971	n/a	0	n/a	0	0	0	n/a	n/a	n/a	n/a	n/a
2854.042	n/a	REC_WORD	1427021	wordpools/wasnorm_wordpool_less_exclusions.txt	LTP263	ltpFR	7	10	0	CONDUCTOR	362	n/a	1	n/a	0	0	0	n/a	n/a	n/a	n/a	n/a
2855.36	n/a	REC_WORD	1427680	wordpools/wasnorm_wordpool_less_exclusions.txt	LTP263	ltpFR	7	10	0	POLITICIAN	1099	n/a	1	n/a	0	0	0	n/a	n/a	n/a	n/a	n/a
2868.274	n/a	REC_WORD	1434137	wordpools/wasnorm_wordpool_less_exclusions.txt	LTP263	ltpFR	7	10	0	WRIST	1626	n/a	0	n/a	0	0	0	n/a	n/a	n/a	n/a	n/a
2869.012	n/a	REC_WORD	1434506	wordpools/wasnorm_wordpool_less_exclusions.txt	LTP263	ltpFR	7	10	0	NICOTINE	951	n/a	0	n/a	0	0	0	n/a	n/a	n/a	n/a	n/a
2869.988	n/a	REC_WORD	1434994	wordpools/wasnorm_wordpool_less_exclusions.txt	LTP263	ltpFR	7	10	0	MINT	898	n/a	0	n/a	0	0	0	n/a	n/a	n/a	n/a	n/a
2894.914	n/a	REST_REWET	1447457	n/a	LTP263	ltpFR	7	10	n/a	n/a	n/a	n/a	n/a	n/a	0	0	0	n/a	n/a	n/a	n/a	n/a
3375.39	n/a	START	1687695	n/a	LTP263	ltpFR	7	n/a	n/a	n/a	n/a	n/a	n/a	n/a	n/a	n/a	n/a	n/a	n/a	n/a	n/a	n/a
3376.904	n/a	PROB	1688452	n/a	LTP263	ltpFR	7	n/a	n/a	n/a	n/a	n/a	n/a	15	7	7	1	n/a	n/a	n/a	n/a	n/a
3378.276	n/a	PROB	1689138	n/a	LTP263	ltpFR	7	n/a	n/a	n/a	n/a	n/a	n/a	16	8	7	1	n/a	n/a	n/a	n/a	n/a
3381.106	n/a	PROB	1690553	n/a	LTP263	ltpFR	7	n/a	n/a	n/a	n/a	n/a	n/a	9	4	2	3	n/a	n/a	n/a	n/a	n/a
3383.532	n/a	PROB	1691766	n/a	LTP263	ltpFR	7	n/a	n/a	n/a	n/a	n/a	n/a	14	1	9	4	n/a	n/a	n/a	n/a	n/a
3384.91	n/a	PROB	1692455	n/a	LTP263	ltpFR	7	n/a	n/a	n/a	n/a	n/a	n/a	17	7	4	6	n/a	n/a	n/a	n/a	n/a
3387.218	n/a	PROB	1693609	n/a	LTP263	ltpFR	7	n/a	n/a	n/a	n/a	n/a	n/a	17	5	7	5	n/a	n/a	n/a	n/a	n/a
3389.41	n/a	PROB	1694705	n/a	LTP263	ltpFR	7	n/a	n/a	n/a	n/a	n/a	n/a	10	4	5	1	n/a	n/a	n/a	n/a	n/a
3390.704	n/a	STOP	1695352	n/a	LTP263	ltpFR	7	n/a	n/a	n/a	n/a	n/a	n/a	n/a	n/a	n/a	n/a	n/a	n/a	n/a	n/a	n/a
3392.438	n/a	WORD	1696219	wordpools/wasnorm_wordpool_less_exclusions.txt	LTP263	ltpFR	7	11	0	HUMAN	726	n/a	1	n/a	0	0	0	0	0.5869140625	0.422607421875	lower	../fonts/amplitud.ttf
3395.45	n/a	START	1697725	n/a	LTP263	ltpFR	7	n/a	n/a	n/a	n/a	n/a	n/a	n/a	n/a	n/a	n/a	n/a	n/a	n/a	n/a	n/a
3396.664	n/a	PROB	1698332	n/a	LTP263	ltpFR	7	n/a	n/a	n/a	n/a	n/a	n/a	18	2	7	9	n/a	n/a	n/a	n/a	n/a
3399.308	n/a	PROB	1699654	n/a	LTP263	ltpFR	7	n/a	n/a	n/a	n/a	n/a	n/a	10	2	4	4	n/a	n/a	n/a	n/a	n/a
3400.854	n/a	PROB	1700427	n/a	LTP263	ltpFR	7	n/a	n/a	n/a	n/a	n/a	n/a	22	9	7	6	n/a	n/a	n/a	n/a	n/a
3404.93	n/a	PROB	1702465	n/a	LTP263	ltpFR	7	n/a	n/a	n/a	n/a	n/a	n/a	15	5	7	3	n/a	n/a	n/a	n/a	n/a
3406.592	n/a	PROB	1703296	n/a	LTP263	ltpFR	7	n/a	n/a	n/a	n/a	n/a	n/a	11	2	6	3	n/a	n/a	n/a	n/a	n/a
3408.628	n/a	PROB	1704314	n/a	LTP263	ltpFR	7	n/a	n/a	n/a	n/a	n/a	n/a	11	1	8	2	n/a	n/a	n/a	n/a	n/a
3410.016	n/a	STOP	1705008	n/a	LTP263	ltpFR	7	n/a	n/a	n/a	n/a	n/a	n/a	n/a	n/a	n/a	n/a	n/a	n/a	n/a	n/a	n/a
3412.426	n/a	WORD	1706213	wordpools/wasnorm_wordpool_less_exclusions.txt	LTP263	ltpFR	7	11	0	FRIAR	605	n/a	1	n/a	0	0	0	0	0.5869140625	0.422607421875	lower	../fonts/amplitud.ttf
3415.438	n/a	START	1707719	n/a	LTP263	ltpFR	7	n/a	n/a	n/a	n/a	n/a	n/a	n/a	n/a	n/a	n/a	n/a	n/a	n/a	n/a	n/a
3416.446	n/a	PROB	1708223	n/a	LTP263	ltpFR	7	n/a	n/a	n/a	n/a	n/a	n/a	12	1	9	2	n/a	n/a	n/a	n/a	n/a
3417.98	n/a	PROB	1708990	n/a	LTP263	ltpFR	7	n/a	n/a	n/a	n/a	n/a	n/a	20	5	9	6	n/a	n/a	n/a	n/a	n/a
3421.618	n/a	PROB	1710809	n/a	LTP263	ltpFR	7	n/a	n/a	n/a	n/a	n/a	n/a	14	6	1	7	n/a	n/a	n/a	n/a	n/a
3423.686	n/a	PROB	1711843	n/a	LTP263	ltpFR	7	n/a	n/a	n/a	n/a	n/a	n/a	16	7	8	1	n/a	n/a	n/a	n/a	n/a
3426.216	n/a	PROB	1713108	n/a	LTP263	ltpFR	7	n/a	n/a	n/a	n/a	n/a	n/a	15	6	8	1	n/a	n/a	n/a	n/a	n/a
3428.252	n/a	PROB	1714126	n/a	LTP263	ltpFR	7	n/a	n/a	n/a	n/a	n/a	n/a	11	6	4	1	n/a	n/a	n/a	n/a	n/a
3429.464	n/a	PROB	1714732	n/a	LTP263	ltpFR	7	n/a	n/a	n/a	n/a	n/a	n/a	15	2	8	5	n/a	n/a	n/a	n/a	n/a
3430.674	n/a	STOP	1715337	n/a	LTP263	ltpFR	7	n/a	n/a	n/a	n/a	n/a	n/a	n/a	n/a	n/a	n/a	n/a	n/a	n/a	n/a	n/a
3432.418	n/a	WORD	1716209	wordpools/wasnorm_wordpool_less_exclusions.txt	LTP263	ltpFR	7	11	0	PALM	1007	n/a	0	n/a	0	0	0	0	0.5869140625	0.422607421875	lower	../fonts/amplitud.ttf
3435.432	n/a	START	1717716	n/a	LTP263	ltpFR	7	n/a	n/a	n/a	n/a	n/a	n/a	n/a	n/a	n/a	n/a	n/a	n/a	n/a	n/a	n/a
3436.552	n/a	PROB	1718276	n/a	LTP263	ltpFR	7	n/a	n/a	n/a	n/a	n/a	n/a	14	8	1	5	n/a	n/a	n/a	n/a	n/a
3438.14	n/a	PROB	1719070	n/a	LTP263	ltpFR	7	n/a	n/a	n/a	n/a	n/a	n/a	18	3	7	8	n/a	n/a	n/a	n/a	n/a
3439.736	n/a	PROB	1719868	n/a	LTP263	ltpFR	7	n/a	n/a	n/a	n/a	n/a	n/a	7	2	3	2	n/a	n/a	n/a	n/a	n/a
3443.752	n/a	PROB	1721876	n/a	LTP263	ltpFR	7	n/a	n/a	n/a	n/a	n/a	n/a	18	3	8	7	n/a	n/a	n/a	n/a	n/a
3445.536	n/a	PROB	1722768	n/a	LTP263	ltpFR	7	n/a	n/a	n/a	n/a	n/a	n/a	19	7	9	3	n/a	n/a	n/a	n/a	n/a
3449.048	n/a	PROB	1724524	n/a	LTP263	ltpFR	7	n/a	n/a	n/a	n/a	n/a	n/a	21	7	7	7	n/a	n/a	n/a	n/a	n/a
3450.306	n/a	STOP	1725153	n/a	LTP263	ltpFR	7	n/a	n/a	n/a	n/a	n/a	n/a	n/a	n/a	n/a	n/a	n/a	n/a	n/a	n/a	n/a
3452.334	n/a	WORD	1726167	wordpools/wasnorm_wordpool_less_exclusions.txt	LTP263	ltpFR	7	11	0	WILDERNESS	1610	n/a	1	n/a	0	0	0	0	0.5869140625	0.422607421875	lower	../fonts/amplitud.ttf
3455.348	n/a	START	1727674	n/a	LTP263	ltpFR	7	n/a	n/a	n/a	n/a	n/a	n/a	n/a	n/a	n/a	n/a	n/a	n/a	n/a	n/a	n/a
3456.544	n/a	PROB	1728272	n/a	LTP263	ltpFR	7	n/a	n/a	n/a	n/a	n/a	n/a	15	6	3	6	n/a	n/a	n/a	n/a	n/a
3458.576	n/a	PROB	1729288	n/a	LTP263	ltpFR	7	n/a	n/a	n/a	n/a	n/a	n/a	22	8	9	7	n/a	n/a	n/a	n/a	n/a
3462.54	n/a	PROB	1731270	n/a	LTP263	ltpFR	7	n/a	n/a	n/a	n/a	n/a	n/a	17	4	7	6	n/a	n/a	n/a	n/a	n/a
3465.83	n/a	PROB	1732915	n/a	LTP263	ltpFR	7	n/a	n/a	n/a	n/a	n/a	n/a	14	2	9	2	n/a	n/a	n/a	n/a	n/a
3468.49	n/a	PROB	1734245	n/a	LTP263	ltpFR	7	n/a	n/a	n/a	n/a	n/a	n/a	11	3	1	7	n/a	n/a	n/a	n/a	n/a
3471.346	n/a	STOP	1735673	n/a	LTP263	ltpFR	7	n/a	n/a	n/a	n/a	n/a	n/a	n/a	n/a	n/a	n/a	n/a	n/a	n/a	n/a	n/a
3472.41	n/a	WORD	1736205	wordpools/wasnorm_wordpool_less_exclusions.txt	LTP263	ltpFR	7	11	0	TERMITE	1451	n/a	0	n/a	0	0	0	0	0.5869140625	0.422607421875	lower	../fonts/amplitud.ttf
3475.424	n/a	START	1737712	n/a	LTP263	ltpFR	7	n/a	n/a	n/a	n/a	n/a	n/a	n/a	n/a	n/a	n/a	n/a	n/a	n/a	n/a	n/a
3476.554	n/a	PROB	1738277	n/a	LTP263	ltpFR	7	n/a	n/a	n/a	n/a	n/a	n/a	11	3	6	2	n/a	n/a	n/a	n/a	n/a
3478.142	n/a	PROB	1739071	n/a	LTP263	ltpFR	7	n/a	n/a	n/a	n/a	n/a	n/a	8	3	2	4	n/a	n/a	n/a	n/a	n/a
3480.022	n/a	PROB	1740011	n/a	LTP263	ltpFR	7	n/a	n/a	n/a	n/a	n/a	n/a	14	1	4	9	n/a	n/a	n/a	n/a	n/a
3481.346	n/a	PROB	1740673	n/a	LTP263	ltpFR	7	n/a	n/a	n/a	n/a	n/a	n/a	7	4	2	1	n/a	n/a	n/a	n/a	n/a
3483.234	n/a	PROB	1741617	n/a	LTP263	ltpFR	7	n/a	n/a	n/a	n/a	n/a	n/a	21	5	9	7	n/a	n/a	n/a	n/a	n/a
3486.256	n/a	PROB	1743128	n/a	LTP263	ltpFR	7	n/a	n/a	n/a	n/a	n/a	n/a	17	9	1	7	n/a	n/a	n/a	n/a	n/a
3487.92	n/a	PROB	1743960	n/a	LTP263	ltpFR	7	n/a	n/a	n/a	n/a	n/a	n/a	17	7	6	4	n/a	n/a	n/a	n/a	n/a
3491.424	n/a	STOP	1745712	n/a	LTP263	ltpFR	7	n/a	n/a	n/a	n/a	n/a	n/a	n/a	n/a	n/a	n/a	n/a	n/a	n/a	n/a	n/a
3492.582	n/a	WORD	1746291	wordpools/wasnorm_wordpool_less_exclusions.txt	LTP263	ltpFR	7	11	0	SUPERMARKET	1409	n/a	1	n/a	0	0	0	0	0.5869140625	0.422607421875	lower	../fonts/amplitud.ttf
3495.594	n/a	START	1747797	n/a	LTP263	ltpFR	7	n/a	n/a	n/a	n/a	n/a	n/a	n/a	n/a	n/a	n/a	n/a	n/a	n/a	n/a	n/a
3496.704	n/a	PROB	1748352	n/a	LTP263	ltpFR	7	n/a	n/a	n/a	n/a	n/a	n/a	12	4	4	4	n/a	n/a	n/a	n/a	n/a
3498.168	n/a	PROB	1749084	n/a	LTP263	ltpFR	7	n/a	n/a	n/a	n/a	n/a	n/a	14	2	6	6	n/a	n/a	n/a	n/a	n/a
3500.226	n/a	PROB	1750113	n/a	LTP263	ltpFR	7	n/a	n/a	n/a	n/a	n/a	n/a	17	6	8	3	n/a	n/a	n/a	n/a	n/a
3502.592	n/a	PROB	1751296	n/a	LTP263	ltpFR	7	n/a	n/a	n/a	n/a	n/a	n/a	14	9	3	2	n/a	n/a	n/a	n/a	n/a
3505.094	n/a	PROB	1752547	n/a	LTP263	ltpFR	7	n/a	n/a	n/a	n/a	n/a	n/a	19	8	5	6	n/a	n/a	n/a	n/a	n/a
3507.286	n/a	PROB	1753643	n/a	LTP263	ltpFR	7	n/a	n/a	n/a	n/a	n/a	n/a	22	7	8	9	n/a	n/a	n/a	n/a	n/a
3509.452	n/a	PROB	1754726	n/a	LTP263	ltpFR	7	n/a	n/a	n/a	n/a	n/a	n/a	15	6	3	6	n/a	n/a	n/a	n/a	n/a
3510.878	n/a	STOP	1755439	n/a	LTP263	ltpFR	7	n/a	n/a	n/a	n/a	n/a	n/a	n/a	n/a	n/a	n/a	n/a	n/a	n/a	n/a	n/a
3512.432	n/a	WORD	1756216	wordpools/wasnorm_wordpool_less_exclusions.txt	LTP263	ltpFR	7	11	0	DINNER	468	n/a	1	n/a	0	0	0	0	0.5869140625	0.422607421875	lower	../fonts/amplitud.ttf
3515.444	n/a	START	1757722	n/a	LTP263	ltpFR	7	n/a	n/a	n/a	n/a	n/a	n/a	n/a	n/a	n/a	n/a	n/a	n/a	n/a	n/a	n/a
3516.614	n/a	PROB	1758307	n/a	LTP263	ltpFR	7	n/a	n/a	n/a	n/a	n/a	n/a	18	6	4	8	n/a	n/a	n/a	n/a	n/a
3518.278	n/a	PROB	1759139	n/a	LTP263	ltpFR	7	n/a	n/a	n/a	n/a	n/a	n/a	12	7	1	4	n/a	n/a	n/a	n/a	n/a
3520.388	n/a	PROB	1760194	n/a	LTP263	ltpFR	7	n/a	n/a	n/a	n/a	n/a	n/a	10	4	3	2	n/a	n/a	n/a	n/a	n/a
3523.036	n/a	PROB	1761518	n/a	LTP263	ltpFR	7	n/a	n/a	n/a	n/a	n/a	n/a	20	9	6	5	n/a	n/a	n/a	n/a	n/a
3527.086	n/a	PROB	1763543	n/a	LTP263	ltpFR	7	n/a	n/a	n/a	n/a	n/a	n/a	22	9	6	9	n/a	n/a	n/a	n/a	n/a
3530.014	n/a	STOP	1765007	n/a	LTP263	ltpFR	7	n/a	n/a	n/a	n/a	n/a	n/a	n/a	n/a	n/a	n/a	n/a	n/a	n/a	n/a	n/a
3532.316	n/a	WORD	1766158	wordpools/wasnorm_wordpool_less_exclusions.txt	LTP263	ltpFR	7	11	0	KEY	773	n/a	0	n/a	0	0	0	0	0.5869140625	0.422607421875	lower	../fonts/amplitud.ttf
3535.33	n/a	START	1767665	n/a	LTP263	ltpFR	7	n/a	n/a	n/a	n/a	n/a	n/a	n/a	n/a	n/a	n/a	n/a	n/a	n/a	n/a	n/a
3536.534	n/a	PROB	1768267	n/a	LTP263	ltpFR	7	n/a	n/a	n/a	n/a	n/a	n/a	14	2	7	5	n/a	n/a	n/a	n/a	n/a
3538.608	n/a	PROB	1769304	n/a	LTP263	ltpFR	7	n/a	n/a	n/a	n/a	n/a	n/a	18	6	9	2	n/a	n/a	n/a	n/a	n/a
3542.06	n/a	PROB	1771030	n/a	LTP263	ltpFR	7	n/a	n/a	n/a	n/a	n/a	n/a	14	5	8	1	n/a	n/a	n/a	n/a	n/a
3543.994	n/a	PROB	1771997	n/a	LTP263	ltpFR	7	n/a	n/a	n/a	n/a	n/a	n/a	14	6	4	6	n/a	n/a	n/a	n/a	n/a
3545.332	n/a	PROB	1772666	n/a	LTP263	ltpFR	7	n/a	n/a	n/a	n/a	n/a	n/a	14	5	1	8	n/a	n/a	n/a	n/a	n/a
3551.33	n/a	STOP	1775665	n/a	LTP263	ltpFR	7	n/a	n/a	n/a	n/a	n/a	n/a	n/a	n/a	n/a	n/a	n/a	n/a	n/a	n/a	n/a
3552.282	n/a	WORD	1776141	wordpools/wasnorm_wordpool_less_exclusions.txt	LTP263	ltpFR	7	11	0	SKETCH	1315	n/a	0	n/a	0	0	0	0	0.5869140625	0.422607421875	lower	../fonts/amplitud.ttf
3555.294	n/a	START	1777647	n/a	LTP263	ltpFR	7	n/a	n/a	n/a	n/a	n/a	n/a	n/a	n/a	n/a	n/a	n/a	n/a	n/a	n/a	n/a
3556.476	n/a	PROB	1778238	n/a	LTP263	ltpFR	7	n/a	n/a	n/a	n/a	n/a	n/a	9	3	3	3	n/a	n/a	n/a	n/a	n/a
3558.048	n/a	PROB	1779024	n/a	LTP263	ltpFR	7	n/a	n/a	n/a	n/a	n/a	n/a	18	6	4	8	n/a	n/a	n/a	n/a	n/a
3559.286	n/a	PROB	1779643	n/a	LTP263	ltpFR	7	n/a	n/a	n/a	n/a	n/a	n/a	21	5	9	9	n/a	n/a	n/a	n/a	n/a
3561.596	n/a	PROB	1780798	n/a	LTP263	ltpFR	7	n/a	n/a	n/a	n/a	n/a	n/a	6	4	1	1	n/a	n/a	n/a	n/a	n/a
3563.218	n/a	PROB	1781609	n/a	LTP263	ltpFR	7	n/a	n/a	n/a	n/a	n/a	n/a	17	7	3	7	n/a	n/a	n/a	n/a	n/a
3565.526	n/a	PROB	1782763	n/a	LTP263	ltpFR	7	n/a	n/a	n/a	n/a	n/a	n/a	14	8	4	2	n/a	n/a	n/a	n/a	n/a
3568.294	n/a	PROB	1784147	n/a	LTP263	ltpFR	7	n/a	n/a	n/a	n/a	n/a	n/a	14	8	5	1	n/a	n/a	n/a	n/a	n/a
3570.754	n/a	STOP	1785377	n/a	LTP263	ltpFR	7	n/a	n/a	n/a	n/a	n/a	n/a	n/a	n/a	n/a	n/a	n/a	n/a	n/a	n/a	n/a
3572.242	n/a	WORD	1786121	wordpools/wasnorm_wordpool_less_exclusions.txt	LTP263	ltpFR	7	11	0	NAPKIN	937	n/a	0	n/a	0	0	0	0	0.5869140625	0.422607421875	lower	../fonts/amplitud.ttf
3575.254	n/a	START	1787627	n/a	LTP263	ltpFR	7	n/a	n/a	n/a	n/a	n/a	n/a	n/a	n/a	n/a	n/a	n/a	n/a	n/a	n/a	n/a
3576.09	n/a	PROB	1788045	n/a	LTP263	ltpFR	7	n/a	n/a	n/a	n/a	n/a	n/a	9	5	3	1	n/a	n/a	n/a	n/a	n/a
3577.496	n/a	PROB	1788748	n/a	LTP263	ltpFR	7	n/a	n/a	n/a	n/a	n/a	n/a	14	4	5	4	n/a	n/a	n/a	n/a	n/a
3580.918	n/a	PROB	1790459	n/a	LTP263	ltpFR	7	n/a	n/a	n/a	n/a	n/a	n/a	12	4	6	2	n/a	n/a	n/a	n/a	n/a
3583.31	n/a	PROB	1791655	n/a	LTP263	ltpFR	7	n/a	n/a	n/a	n/a	n/a	n/a	14	8	3	3	n/a	n/a	n/a	n/a	n/a
3585.694	n/a	PROB	1792847	n/a	LTP263	ltpFR	7	n/a	n/a	n/a	n/a	n/a	n/a	16	1	9	6	n/a	n/a	n/a	n/a	n/a
3587.478	n/a	PROB	1793739	n/a	LTP263	ltpFR	7	n/a	n/a	n/a	n/a	n/a	n/a	9	6	5	2	n/a	n/a	n/a	n/a	n/a
3591.254	n/a	STOP	1795627	n/a	LTP263	ltpFR	7	n/a	n/a	n/a	n/a	n/a	n/a	n/a	n/a	n/a	n/a	n/a	n/a	n/a	n/a	n/a
3592.386	n/a	WORD	1796193	wordpools/wasnorm_wordpool_less_exclusions.txt	LTP263	ltpFR	7	11	0	CAMEL	223	n/a	1	n/a	0	0	0	0	0.5869140625	0.422607421875	lower	../fonts/amplitud.ttf
3595.398	n/a	START	1797699	n/a	LTP263	ltpFR	7	n/a	n/a	n/a	n/a	n/a	n/a	n/a	n/a	n/a	n/a	n/a	n/a	n/a	n/a	n/a
3596.502	n/a	PROB	1798251	n/a	LTP263	ltpFR	7	n/a	n/a	n/a	n/a	n/a	n/a	13	7	5	1	n/a	n/a	n/a	n/a	n/a
3598.016	n/a	PROB	1799008	n/a	LTP263	ltpFR	7	n/a	n/a	n/a	n/a	n/a	n/a	13	5	2	6	n/a	n/a	n/a	n/a	n/a
3602.048	n/a	PROB	1801024	n/a	LTP263	ltpFR	7	n/a	n/a	n/a	n/a	n/a	n/a	17	1	8	8	n/a	n/a	n/a	n/a	n/a
3603.378	n/a	PROB	1801689	n/a	LTP263	ltpFR	7	n/a	n/a	n/a	n/a	n/a	n/a	18	9	4	5	n/a	n/a	n/a	n/a	n/a
3605.62	n/a	PROB	1802810	n/a	LTP263	ltpFR	7	n/a	n/a	n/a	n/a	n/a	n/a	25	9	9	7	n/a	n/a	n/a	n/a	n/a
3611.398	n/a	STOP	1805699	n/a	LTP263	ltpFR	7	n/a	n/a	n/a	n/a	n/a	n/a	n/a	n/a	n/a	n/a	n/a	n/a	n/a	n/a	n/a
3612.506	n/a	WORD	1806253	wordpools/wasnorm_wordpool_less_exclusions.txt	LTP263	ltpFR	7	11	0	ACROBAT	4	n/a	1	n/a	0	0	0	0	0.5869140625	0.422607421875	lower	../fonts/amplitud.ttf
3615.518	n/a	START	1807759	n/a	LTP263	ltpFR	7	n/a	n/a	n/a	n/a	n/a	n/a	n/a	n/a	n/a	n/a	n/a	n/a	n/a	n/a	n/a
3616.538	n/a	PROB	1808269	n/a	LTP263	ltpFR	7	n/a	n/a	n/a	n/a	n/a	n/a	23	9	5	9	n/a	n/a	n/a	n/a	n/a
3619.718	n/a	PROB	1809859	n/a	LTP263	ltpFR	7	n/a	n/a	n/a	n/a	n/a	n/a	9	1	5	3	n/a	n/a	n/a	n/a	n/a
3621.692	n/a	PROB	1810846	n/a	LTP263	ltpFR	7	n/a	n/a	n/a	n/a	n/a	n/a	20	5	9	6	n/a	n/a	n/a	n/a	n/a
3624.15	n/a	PROB	1812075	n/a	LTP263	ltpFR	7	n/a	n/a	n/a	n/a	n/a	n/a	13	8	3	2	n/a	n/a	n/a	n/a	n/a
3625.882	n/a	PROB	1812941	n/a	LTP263	ltpFR	7	n/a	n/a	n/a	n/a	n/a	n/a	12	3	7	2	n/a	n/a	n/a	n/a	n/a
3627.572	n/a	PROB	1813786	n/a	LTP263	ltpFR	7	n/a	n/a	n/a	n/a	n/a	n/a	12	4	2	6	n/a	n/a	n/a	n/a	n/a
3631.494	n/a	STOP	1815747	n/a	LTP263	ltpFR	7	n/a	n/a	n/a	n/a	n/a	n/a	n/a	n/a	n/a	n/a	n/a	n/a	n/a	n/a	n/a
3632.69	n/a	WORD	1816345	wordpools/wasnorm_wordpool_less_exclusions.txt	LTP263	ltpFR	7	11	0	PRIEST	1122	n/a	1	n/a	0	0	0	0	0.5869140625	0.422607421875	lower	../fonts/amplitud.ttf
3635.702	n/a	START	1817851	n/a	LTP263	ltpFR	7	n/a	n/a	n/a	n/a	n/a	n/a	n/a	n/a	n/a	n/a	n/a	n/a	n/a	n/a	n/a
3636.738	n/a	PROB	1818369	n/a	LTP263	ltpFR	7	n/a	n/a	n/a	n/a	n/a	n/a	13	8	2	3	n/a	n/a	n/a	n/a	n/a
3639.064	n/a	PROB	1819532	n/a	LTP263	ltpFR	7	n/a	n/a	n/a	n/a	n/a	n/a	20	7	6	7	n/a	n/a	n/a	n/a	n/a
3642.124	n/a	PROB	1821062	n/a	LTP263	ltpFR	7	n/a	n/a	n/a	n/a	n/a	n/a	13	7	3	3	n/a	n/a	n/a	n/a	n/a
3644.48	n/a	PROB	1822240	n/a	LTP263	ltpFR	7	n/a	n/a	n/a	n/a	n/a	n/a	11	4	1	6	n/a	n/a	n/a	n/a	n/a
3645.784	n/a	PROB	1822892	n/a	LTP263	ltpFR	7	n/a	n/a	n/a	n/a	n/a	n/a	15	4	6	5	n/a	n/a	n/a	n/a	n/a
3647.524	n/a	PROB	1823762	n/a	LTP263	ltpFR	7	n/a	n/a	n/a	n/a	n/a	n/a	15	3	5	7	n/a	n/a	n/a	n/a	n/a
3649.616	n/a	PROB	1824808	n/a	LTP263	ltpFR	7	n/a	n/a	n/a	n/a	n/a	n/a	12	4	2	6	n/a	n/a	n/a	n/a	n/a
3650.99	n/a	STOP	1825495	n/a	LTP263	ltpFR	7	n/a	n/a	n/a	n/a	n/a	n/a	n/a	n/a	n/a	n/a	n/a	n/a	n/a	n/a	n/a
3652.9	n/a	WORD	1826450	wordpools/wasnorm_wordpool_less_exclusions.txt	LTP263	ltpFR	7	11	0	SEAFOOD	1260	n/a	0	n/a	0	0	0	0	0.5869140625	0.422607421875	lower	../fonts/amplitud.ttf
3655.912	n/a	START	1827956	n/a	LTP263	ltpFR	7	n/a	n/a	n/a	n/a	n/a	n/a	n/a	n/a	n/a	n/a	n/a	n/a	n/a	n/a	n/a
3656.948	n/a	PROB	1828474	n/a	LTP263	ltpFR	7	n/a	n/a	n/a	n/a	n/a	n/a	14	4	4	6	n/a	n/a	n/a	n/a	n/a
3660.154	n/a	PROB	1830077	n/a	LTP263	ltpFR	7	n/a	n/a	n/a	n/a	n/a	n/a	23	7	8	7	n/a	n/a	n/a	n/a	n/a
3666.11	n/a	PROB	1833055	n/a	LTP263	ltpFR	7	n/a	n/a	n/a	n/a	n/a	n/a	23	5	9	9	n/a	n/a	n/a	n/a	n/a
3671.914	n/a	STOP	1835957	n/a	LTP263	ltpFR	7	n/a	n/a	n/a	n/a	n/a	n/a	n/a	n/a	n/a	n/a	n/a	n/a	n/a	n/a	n/a
3672.976	n/a	WORD	1836488	wordpools/wasnorm_wordpool_less_exclusions.txt	LTP263	ltpFR	7	11	0	SHARK	1275	n/a	0	n/a	0	0	0	0	0.5869140625	0.422607421875	lower	../fonts/amplitud.ttf
3675.988	n/a	START	1837994	n/a	LTP263	ltpFR	7	n/a	n/a	n/a	n/a	n/a	n/a	n/a	n/a	n/a	n/a	n/a	n/a	n/a	n/a	n/a
