mstime	trial_type	stim_file	subject	experiment	session	trial	item_name	item_num	list	answer	test_x	test_y	test_z
0	SESS_START	n/a	LTP365	ltpFR2	3	n/a	n/a	n/a	n/a	n/a	0	0	0
20910	START	n/a	LTP365	ltpFR2	3	n/a	n/a	n/a	-1	n/a	n/a	n/a	n/a
20924	PROB	n/a	LTP365	ltpFR2	3	n/a	n/a	n/a	-1	6	2	2	2
22408	PROB	n/a	LTP365	ltpFR2	3	n/a	n/a	n/a	-1	23	9	8	5
24339	PROB	n/a	LTP365	ltpFR2	3	n/a	n/a	n/a	-1	17	7	8	2
27539	PROB	n/a	LTP365	ltpFR2	3	n/a	n/a	n/a	-1	15	2	9	4
28987	PROB	n/a	LTP365	ltpFR2	3	n/a	n/a	n/a	-1	11	6	4	1
30286	PROB	n/a	LTP365	ltpFR2	3	n/a	n/a	n/a	-1	15	9	4	4
32752	STOP	n/a	LTP365	ltpFR2	3	n/a	n/a	n/a	-1	n/a	n/a	n/a	n/a
77898	WORD	wordpools/wasnorm_wordpool_576.txt	LTP365	ltpFR2	3	1	GALLON	618	n/a	n/a	0	0	0
80481	WORD	wordpools/wasnorm_wordpool_576.txt	LTP365	ltpFR2	3	1	CONTRACT	368	n/a	n/a	0	0	0
82929	WORD	wordpools/wasnorm_wordpool_576.txt	LTP365	ltpFR2	3	1	SISTER	1312	n/a	n/a	0	0	0
85662	WORD	wordpools/wasnorm_wordpool_576.txt	LTP365	ltpFR2	3	1	TWISTER	1530	n/a	n/a	0	0	0
88227	WORD	wordpools/wasnorm_wordpool_576.txt	LTP365	ltpFR2	3	1	CREATURE	403	n/a	n/a	0	0	0
90926	WORD	wordpools/wasnorm_wordpool_576.txt	LTP365	ltpFR2	3	1	MILDEW	893	n/a	n/a	0	0	0
93375	WORD	wordpools/wasnorm_wordpool_576.txt	LTP365	ltpFR2	3	1	MASK	876	n/a	n/a	0	0	0
95957	WORD	wordpools/wasnorm_wordpool_576.txt	LTP365	ltpFR2	3	1	WHISTLE	1606	n/a	n/a	0	0	0
98507	WORD	wordpools/wasnorm_wordpool_576.txt	LTP365	ltpFR2	3	1	BODY	145	n/a	n/a	0	0	0
101138	WORD	wordpools/wasnorm_wordpool_576.txt	LTP365	ltpFR2	3	1	ELBOW	520	n/a	n/a	0	0	0
103754	WORD	wordpools/wasnorm_wordpool_576.txt	LTP365	ltpFR2	3	1	COLLEGE	346	n/a	n/a	0	0	0
106352	WORD	wordpools/wasnorm_wordpool_576.txt	LTP365	ltpFR2	3	1	KETCHUP	771	n/a	n/a	0	0	0
108901	WORD	wordpools/wasnorm_wordpool_576.txt	LTP365	ltpFR2	3	1	OUTLAW	989	n/a	n/a	0	0	0
111451	WORD	wordpools/wasnorm_wordpool_576.txt	LTP365	ltpFR2	3	1	THIEF	1456	n/a	n/a	0	0	0
114065	WORD	wordpools/wasnorm_wordpool_576.txt	LTP365	ltpFR2	3	1	CLOCK	325	n/a	n/a	0	0	0
116798	WORD	wordpools/wasnorm_wordpool_576.txt	LTP365	ltpFR2	3	1	APRON	35	n/a	n/a	0	0	0
119263	WORD	wordpools/wasnorm_wordpool_576.txt	LTP365	ltpFR2	3	1	BUTCHER	203	n/a	n/a	0	0	0
121813	WORD	wordpools/wasnorm_wordpool_576.txt	LTP365	ltpFR2	3	1	GRILL	661	n/a	n/a	0	0	0
124495	WORD	wordpools/wasnorm_wordpool_576.txt	LTP365	ltpFR2	3	1	PLUTO	1092	n/a	n/a	0	0	0
127109	WORD	wordpools/wasnorm_wordpool_576.txt	LTP365	ltpFR2	3	1	SIDEWALK	1303	n/a	n/a	0	0	0
129842	WORD	wordpools/wasnorm_wordpool_576.txt	LTP365	ltpFR2	3	1	JUNGLE	764	n/a	n/a	0	0	0
132375	WORD	wordpools/wasnorm_wordpool_576.txt	LTP365	ltpFR2	3	1	MAMMAL	861	n/a	n/a	0	0	0
135072	WORD	wordpools/wasnorm_wordpool_576.txt	LTP365	ltpFR2	3	1	FUNGUS	614	n/a	n/a	0	0	0
137839	WORD	wordpools/wasnorm_wordpool_576.txt	LTP365	ltpFR2	3	1	LION	827	n/a	n/a	0	0	0
139455	START	n/a	LTP365	ltpFR2	3	n/a	n/a	n/a	1	n/a	n/a	n/a	n/a
140356	DISTRACTOR	n/a	LTP365	ltpFR2	3	1	n/a	n/a	n/a	n/a	0	0	0
140371	PROB	n/a	LTP365	ltpFR2	3	n/a	n/a	n/a	1	7	4	1	2
142403	PROB	n/a	LTP365	ltpFR2	3	n/a	n/a	n/a	1	12	8	2	2
143719	PROB	n/a	LTP365	ltpFR2	3	n/a	n/a	n/a	1	13	5	7	1
147067	PROB	n/a	LTP365	ltpFR2	3	n/a	n/a	n/a	1	19	9	1	9
148617	PROB	n/a	LTP365	ltpFR2	3	n/a	n/a	n/a	1	10	5	1	4
149999	PROB	n/a	LTP365	ltpFR2	3	n/a	n/a	n/a	1	7	4	1	2
152782	PROB	n/a	LTP365	ltpFR2	3	n/a	n/a	n/a	1	13	7	3	7
154347	PROB	n/a	LTP365	ltpFR2	3	n/a	n/a	n/a	1	17	2	7	8
157413	PROB	n/a	LTP365	ltpFR2	3	n/a	n/a	n/a	1	13	2	2	9
159245	PROB	n/a	LTP365	ltpFR2	3	n/a	n/a	n/a	1	18	3	6	9
162011	STOP	n/a	LTP365	ltpFR2	3	n/a	n/a	n/a	1	n/a	n/a	n/a	n/a
165242	REC_START	n/a	LTP365	ltpFR2	3	1	n/a	n/a	n/a	n/a	0	0	0
169828	REC_WORD	wordpools/wasnorm_wordpool_576.txt	LTP365	ltpFR2	3	1	GALLON	618	n/a	n/a	0	0	0
172719	REC_WORD	wordpools/wasnorm_wordpool_576.txt	LTP365	ltpFR2	3	1	SISTER	1312	n/a	n/a	0	0	0
173699	REC_WORD	wordpools/wasnorm_wordpool_576.txt	LTP365	ltpFR2	3	1	BODY	145	n/a	n/a	0	0	0
174319	REC_WORD	wordpools/wasnorm_wordpool_576.txt	LTP365	ltpFR2	3	1	TWISTER	1530	n/a	n/a	0	0	0
175230	REC_WORD	wordpools/wasnorm_wordpool_576.txt	LTP365	ltpFR2	3	1	WHISTLE	1606	n/a	n/a	0	0	0
177288	REC_WORD	wordpools/wasnorm_wordpool_576.txt	LTP365	ltpFR2	3	1	LION	827	n/a	n/a	0	0	0
180359	REC_WORD	wordpools/wasnorm_wordpool_576.txt	LTP365	ltpFR2	3	1	BUTCHER	203	n/a	n/a	0	0	0
181734	REC_WORD	wordpools/wasnorm_wordpool_576.txt	LTP365	ltpFR2	3	1	GRILL	661	n/a	n/a	0	0	0
183711	REC_WORD	wordpools/wasnorm_wordpool_576.txt	LTP365	ltpFR2	3	1	SIDEWALK	1303	n/a	n/a	0	0	0
187785	REC_WORD	wordpools/wasnorm_wordpool_576.txt	LTP365	ltpFR2	3	1	ELBOW	520	n/a	n/a	0	0	0
195982	REC_WORD	wordpools/wasnorm_wordpool_576.txt	LTP365	ltpFR2	3	1	KETCHUP	771	n/a	n/a	0	0	0
199686	REC_WORD	wordpools/wasnorm_wordpool_576.txt	LTP365	ltpFR2	3	1	GALLON	618	n/a	n/a	0	0	0
212630	REC_WORD	wordpools/wasnorm_wordpool_576.txt	LTP365	ltpFR2	3	1	MAMMAL	861	n/a	n/a	0	0	0
218616	REC_WORD	wordpools/wasnorm_wordpool_576.txt	LTP365	ltpFR2	3	1	CREATURE	403	n/a	n/a	0	0	0
220968	REC_WORD	wordpools/wasnorm_wordpool_576.txt	LTP365	ltpFR2	3	1	CLOCK	325	n/a	n/a	0	0	0
224052	REC_WORD	wordpools/wasnorm_wordpool_576.txt	LTP365	ltpFR2	3	1	APRON	35	n/a	n/a	0	0	0
226868	REC_WORD	wordpools/wasnorm_wordpool_576.txt	LTP365	ltpFR2	3	1	OUTLAW	989	n/a	n/a	0	0	0
232322	REC_WORD	wordpools/wasnorm_wordpool_576.txt	LTP365	ltpFR2	3	1	THIEF	1456	n/a	n/a	0	0	0
255685	WORD	wordpools/wasnorm_wordpool_576.txt	LTP365	ltpFR2	3	2	NECKLACE	940	n/a	n/a	0	0	0
258417	WORD	wordpools/wasnorm_wordpool_576.txt	LTP365	ltpFR2	3	2	DUST	508	n/a	n/a	0	0	0
261148	WORD	wordpools/wasnorm_wordpool_576.txt	LTP365	ltpFR2	3	2	TEACHER	1440	n/a	n/a	0	0	0
263931	WORD	wordpools/wasnorm_wordpool_576.txt	LTP365	ltpFR2	3	2	SLIME	1327	n/a	n/a	0	0	0
266414	WORD	wordpools/wasnorm_wordpool_576.txt	LTP365	ltpFR2	3	2	LIGHTNING	820	n/a	n/a	0	0	0
269128	WORD	wordpools/wasnorm_wordpool_576.txt	LTP365	ltpFR2	3	2	COUNTY	389	n/a	n/a	0	0	0
271611	WORD	wordpools/wasnorm_wordpool_576.txt	LTP365	ltpFR2	3	2	TRIBE	1505	n/a	n/a	0	0	0
274242	WORD	wordpools/wasnorm_wordpool_576.txt	LTP365	ltpFR2	3	2	BUREAU	199	n/a	n/a	0	0	0
276809	WORD	wordpools/wasnorm_wordpool_576.txt	LTP365	ltpFR2	3	2	CRAB	397	n/a	n/a	0	0	0
279323	WORD	wordpools/wasnorm_wordpool_576.txt	LTP365	ltpFR2	3	2	AIRPORT	13	n/a	n/a	0	0	0
281972	WORD	wordpools/wasnorm_wordpool_576.txt	LTP365	ltpFR2	3	2	PILOT	1070	n/a	n/a	0	0	0
284655	WORD	wordpools/wasnorm_wordpool_576.txt	LTP365	ltpFR2	3	2	TILE	1468	n/a	n/a	0	0	0
287454	WORD	wordpools/wasnorm_wordpool_576.txt	LTP365	ltpFR2	3	2	FIREPLACE	570	n/a	n/a	0	0	0
290235	WORD	wordpools/wasnorm_wordpool_576.txt	LTP365	ltpFR2	3	2	FARMER	553	n/a	n/a	0	0	0
292718	WORD	wordpools/wasnorm_wordpool_576.txt	LTP365	ltpFR2	3	2	MILK	895	n/a	n/a	0	0	0
295333	WORD	wordpools/wasnorm_wordpool_576.txt	LTP365	ltpFR2	3	2	SKETCH	1315	n/a	n/a	0	0	0
297833	WORD	wordpools/wasnorm_wordpool_576.txt	LTP365	ltpFR2	3	2	LAKE	796	n/a	n/a	0	0	0
300297	WORD	wordpools/wasnorm_wordpool_576.txt	LTP365	ltpFR2	3	2	BINDER	127	n/a	n/a	0	0	0
303113	WORD	wordpools/wasnorm_wordpool_576.txt	LTP365	ltpFR2	3	2	PUPIL	1143	n/a	n/a	0	0	0
305846	WORD	wordpools/wasnorm_wordpool_576.txt	LTP365	ltpFR2	3	2	MEDAL	885	n/a	n/a	0	0	0
308628	WORD	wordpools/wasnorm_wordpool_576.txt	LTP365	ltpFR2	3	2	EYELASH	546	n/a	n/a	0	0	0
311159	WORD	wordpools/wasnorm_wordpool_576.txt	LTP365	ltpFR2	3	2	LIPSTICK	829	n/a	n/a	0	0	0
313742	WORD	wordpools/wasnorm_wordpool_576.txt	LTP365	ltpFR2	3	2	PIGMENT	1066	n/a	n/a	0	0	0
316323	WORD	wordpools/wasnorm_wordpool_576.txt	LTP365	ltpFR2	3	2	SHELF	1280	n/a	n/a	0	0	0
317939	START	n/a	LTP365	ltpFR2	3	n/a	n/a	n/a	2	n/a	n/a	n/a	n/a
318835	DISTRACTOR	n/a	LTP365	ltpFR2	3	2	n/a	n/a	n/a	n/a	0	0	0
318840	PROB	n/a	LTP365	ltpFR2	3	n/a	n/a	n/a	2	12	7	3	2
320155	PROB	n/a	LTP365	ltpFR2	3	n/a	n/a	n/a	2	18	7	9	2
323804	PROB	n/a	LTP365	ltpFR2	3	n/a	n/a	n/a	2	15	4	3	8
325587	PROB	n/a	LTP365	ltpFR2	3	n/a	n/a	n/a	2	13	3	9	1
326870	PROB	n/a	LTP365	ltpFR2	3	n/a	n/a	n/a	2	32	9	9	8
332000	PROB	n/a	LTP365	ltpFR2	3	n/a	n/a	n/a	2	14	1	5	8
334816	PROB	n/a	LTP365	ltpFR2	3	n/a	n/a	n/a	2	16	5	6	5
336914	PROB	n/a	LTP365	ltpFR2	3	n/a	n/a	n/a	2	10	7	2	1
338180	PROB	n/a	LTP365	ltpFR2	3	n/a	n/a	n/a	2	12	1	6	5
341939	STOP	n/a	LTP365	ltpFR2	3	n/a	n/a	n/a	2	n/a	n/a	n/a	n/a
343862	REC_START	n/a	LTP365	ltpFR2	3	2	n/a	n/a	n/a	n/a	0	0	0
345043	REC_WORD	wordpools/wasnorm_wordpool_576.txt	LTP365	ltpFR2	3	2	NECKLACE	940	n/a	n/a	0	0	0
345674	REC_WORD	wordpools/wasnorm_wordpool_576.txt	LTP365	ltpFR2	3	2	MEDAL	885	n/a	n/a	0	0	0
346633	REC_WORD	wordpools/wasnorm_wordpool_576.txt	LTP365	ltpFR2	3	2	DUST	508	n/a	n/a	0	0	0
350287	REC_WORD	wordpools/wasnorm_wordpool_576.txt	LTP365	ltpFR2	3	2	SHELF	1280	n/a	n/a	0	0	0
351515	REC_WORD	wordpools/wasnorm_wordpool_576.txt	LTP365	ltpFR2	3	2	FARMER	553	n/a	n/a	0	0	0
352969	REC_WORD	wordpools/wasnorm_wordpool_576.txt	LTP365	ltpFR2	3	2	TEACHER	1440	n/a	n/a	0	0	0
353679	REC_WORD	wordpools/wasnorm_wordpool_576.txt	LTP365	ltpFR2	3	2	PUPIL	1143	n/a	n/a	0	0	0
356473	REC_WORD	wordpools/wasnorm_wordpool_576.txt	LTP365	ltpFR2	3	2	CRAB	397	n/a	n/a	0	0	0
357179	REC_WORD	wordpools/wasnorm_wordpool_576.txt	LTP365	ltpFR2	3	2	LIGHTNING	820	n/a	n/a	0	0	0
358716	REC_WORD	wordpools/wasnorm_wordpool_576.txt	LTP365	ltpFR2	3	2	SLIME	1327	n/a	n/a	0	0	0
360423	REC_WORD	wordpools/wasnorm_wordpool_576.txt	LTP365	ltpFR2	3	2	BUREAU	199	n/a	n/a	0	0	0
363637	REC_WORD	wordpools/wasnorm_wordpool_576.txt	LTP365	ltpFR2	3	2	PILOT	1070	n/a	n/a	0	0	0
364386	REC_WORD	wordpools/wasnorm_wordpool_576.txt	LTP365	ltpFR2	3	2	AIRPORT	13	n/a	n/a	0	0	0
367996	REC_WORD	wordpools/wasnorm_wordpool_576.txt	LTP365	ltpFR2	3	2	EYELASH	546	n/a	n/a	0	0	0
368834	REC_WORD	wordpools/wasnorm_wordpool_576.txt	LTP365	ltpFR2	3	2	PIGMENT	1066	n/a	n/a	0	0	0
369614	REC_WORD	wordpools/wasnorm_wordpool_576.txt	LTP365	ltpFR2	3	2	LIPSTICK	829	n/a	n/a	0	0	0
376584	REC_WORD	wordpools/wasnorm_wordpool_576.txt	LTP365	ltpFR2	3	2	SKETCH	1315	n/a	n/a	0	0	0
384862	REC_WORD	wordpools/wasnorm_wordpool_576.txt	LTP365	ltpFR2	3	2	BINDER	127	n/a	n/a	0	0	0
434303	WORD	wordpools/wasnorm_wordpool_576.txt	LTP365	ltpFR2	3	3	SODA	1341	n/a	n/a	0	0	0
436836	WORD	wordpools/wasnorm_wordpool_576.txt	LTP365	ltpFR2	3	3	SCARECROW	1245	n/a	n/a	0	0	0
439602	WORD	wordpools/wasnorm_wordpool_576.txt	LTP365	ltpFR2	3	3	BARLEY	88	n/a	n/a	0	0	0
442250	WORD	wordpools/wasnorm_wordpool_576.txt	LTP365	ltpFR2	3	3	CLOTHES	327	n/a	n/a	0	0	0
444998	WORD	wordpools/wasnorm_wordpool_576.txt	LTP365	ltpFR2	3	3	WITNESS	1618	n/a	n/a	0	0	0
447665	WORD	wordpools/wasnorm_wordpool_576.txt	LTP365	ltpFR2	3	3	VICTIM	1562	n/a	n/a	0	0	0
450279	WORD	wordpools/wasnorm_wordpool_576.txt	LTP365	ltpFR2	3	3	SOFTBALL	1343	n/a	n/a	0	0	0
452829	WORD	wordpools/wasnorm_wordpool_576.txt	LTP365	ltpFR2	3	3	COSTUME	383	n/a	n/a	0	0	0
455310	WORD	wordpools/wasnorm_wordpool_576.txt	LTP365	ltpFR2	3	3	COTTAGE	384	n/a	n/a	0	0	0
458009	WORD	wordpools/wasnorm_wordpool_576.txt	LTP365	ltpFR2	3	3	BATHTUB	100	n/a	n/a	0	0	0
460592	WORD	wordpools/wasnorm_wordpool_576.txt	LTP365	ltpFR2	3	3	DAUGHTER	442	n/a	n/a	0	0	0
463073	WORD	wordpools/wasnorm_wordpool_576.txt	LTP365	ltpFR2	3	3	CRICKET	408	n/a	n/a	0	0	0
465607	WORD	wordpools/wasnorm_wordpool_576.txt	LTP365	ltpFR2	3	3	BANKER	84	n/a	n/a	0	0	0
468171	WORD	wordpools/wasnorm_wordpool_576.txt	LTP365	ltpFR2	3	3	PATIENT	1024	n/a	n/a	0	0	0
470638	WORD	wordpools/wasnorm_wordpool_576.txt	LTP365	ltpFR2	3	3	CLAMP	316	n/a	n/a	0	0	0
473386	WORD	wordpools/wasnorm_wordpool_576.txt	LTP365	ltpFR2	3	3	HARP	689	n/a	n/a	0	0	0
476151	WORD	wordpools/wasnorm_wordpool_576.txt	LTP365	ltpFR2	3	3	FLUTE	585	n/a	n/a	0	0	0
478651	WORD	wordpools/wasnorm_wordpool_576.txt	LTP365	ltpFR2	3	3	FRAGRANCE	599	n/a	n/a	0	0	0
481433	WORD	wordpools/wasnorm_wordpool_576.txt	LTP365	ltpFR2	3	3	SHIRT	1287	n/a	n/a	0	0	0
484181	WORD	wordpools/wasnorm_wordpool_576.txt	LTP365	ltpFR2	3	3	ULCER	1533	n/a	n/a	0	0	0
486913	WORD	wordpools/wasnorm_wordpool_576.txt	LTP365	ltpFR2	3	3	BRICK	172	n/a	n/a	0	0	0
489612	WORD	wordpools/wasnorm_wordpool_576.txt	LTP365	ltpFR2	3	3	EXPERT	543	n/a	n/a	0	0	0
492394	WORD	wordpools/wasnorm_wordpool_576.txt	LTP365	ltpFR2	3	3	PASTRY	1022	n/a	n/a	0	0	0
495026	WORD	wordpools/wasnorm_wordpool_576.txt	LTP365	ltpFR2	3	3	JELLO	754	n/a	n/a	0	0	0
496643	START	n/a	LTP365	ltpFR2	3	n/a	n/a	n/a	3	n/a	n/a	n/a	n/a
497645	DISTRACTOR	n/a	LTP365	ltpFR2	3	3	n/a	n/a	n/a	n/a	0	0	0
497659	PROB	n/a	LTP365	ltpFR2	3	n/a	n/a	n/a	3	14	8	2	4
499140	PROB	n/a	LTP365	ltpFR2	3	n/a	n/a	n/a	3	6	2	2	2
500273	PROB	n/a	LTP365	ltpFR2	3	n/a	n/a	n/a	3	13	3	6	4
502189	PROB	n/a	LTP365	ltpFR2	3	n/a	n/a	n/a	3	15	1	6	8
503806	PROB	n/a	LTP365	ltpFR2	3	n/a	n/a	n/a	3	10	5	1	4
505021	PROB	n/a	LTP365	ltpFR2	3	n/a	n/a	n/a	3	11	8	1	2
506371	PROB	n/a	LTP365	ltpFR2	3	n/a	n/a	n/a	3	18	9	7	2
508186	PROB	n/a	LTP365	ltpFR2	3	n/a	n/a	n/a	3	18	8	7	3
509837	PROB	n/a	LTP365	ltpFR2	3	n/a	n/a	n/a	3	12	6	4	2
511202	PROB	n/a	LTP365	ltpFR2	3	n/a	n/a	n/a	3	17	3	7	7
512785	PROB	n/a	LTP365	ltpFR2	3	n/a	n/a	n/a	3	15	8	1	6
514300	PROB	n/a	LTP365	ltpFR2	3	n/a	n/a	n/a	3	17	4	8	5
516633	PROB	n/a	LTP365	ltpFR2	3	n/a	n/a	n/a	3	22	8	9	4
519238	STOP	n/a	LTP365	ltpFR2	3	n/a	n/a	n/a	3	n/a	n/a	n/a	n/a
522448	REC_START	n/a	LTP365	ltpFR2	3	3	n/a	n/a	n/a	n/a	0	0	0
523457	REC_WORD	wordpools/wasnorm_wordpool_576.txt	LTP365	ltpFR2	3	3	SCARECROW	1245	n/a	n/a	0	0	0
524577	REC_WORD	wordpools/wasnorm_wordpool_576.txt	LTP365	ltpFR2	3	3	BARLEY	88	n/a	n/a	0	0	0
527641	REC_WORD	wordpools/wasnorm_wordpool_576.txt	LTP365	ltpFR2	3	3	SHIRT	1287	n/a	n/a	0	0	0
528826	REC_WORD	wordpools/wasnorm_wordpool_576.txt	LTP365	ltpFR2	3	3	CLOTHES	327	n/a	n/a	0	0	0
530240	REC_WORD	wordpools/wasnorm_wordpool_576.txt	LTP365	ltpFR2	3	3	COSTUME	383	n/a	n/a	0	0	0
531948	REC_WORD	wordpools/wasnorm_wordpool_576.txt	LTP365	ltpFR2	3	3	WITNESS	1618	n/a	n/a	0	0	0
532998	REC_WORD	wordpools/wasnorm_wordpool_576.txt	LTP365	ltpFR2	3	3	VICTIM	1562	n/a	n/a	0	0	0
536584	REC_WORD	wordpools/wasnorm_wordpool_576.txt	LTP365	ltpFR2	3	3	SODA	1341	n/a	n/a	0	0	0
541918	REC_WORD	wordpools/wasnorm_wordpool_576.txt	LTP365	ltpFR2	3	3	BATHTUB	100	n/a	n/a	0	0	0
542965	REC_WORD	wordpools/wasnorm_wordpool_576.txt	LTP365	ltpFR2	3	3	JELLO	754	n/a	n/a	0	0	0
544807	REC_WORD	wordpools/wasnorm_wordpool_576.txt	LTP365	ltpFR2	3	3	PASTRY	1022	n/a	n/a	0	0	0
550178	REC_WORD	wordpools/wasnorm_wordpool_576.txt	LTP365	ltpFR2	3	3	HARP	689	n/a	n/a	0	0	0
551020	REC_WORD	wordpools/wasnorm_wordpool_576.txt	LTP365	ltpFR2	3	3	FLUTE	585	n/a	n/a	0	0	0
552017	REC_WORD	wordpools/wasnorm_wordpool_576.txt	LTP365	ltpFR2	3	3	FRAGRANCE	599	n/a	n/a	0	0	0
558597	REC_WORD	wordpools/wasnorm_wordpool_576.txt	LTP365	ltpFR2	3	3	EXPERT	543	n/a	n/a	0	0	0
559706	REC_WORD	wordpools/wasnorm_wordpool_576.txt	LTP365	ltpFR2	3	3	COTTAGE	384	n/a	n/a	0	0	0
587555	REC_WORD	wordpools/wasnorm_wordpool_576.txt	LTP365	ltpFR2	3	3	CLAMP	316	n/a	n/a	0	0	0
612905	WORD	wordpools/wasnorm_wordpool_576.txt	LTP365	ltpFR2	3	4	TREAT	1501	n/a	n/a	0	0	0
615439	WORD	wordpools/wasnorm_wordpool_576.txt	LTP365	ltpFR2	3	4	SHORTCAKE	1292	n/a	n/a	0	0	0
618236	WORD	wordpools/wasnorm_wordpool_576.txt	LTP365	ltpFR2	3	4	DRESSER	496	n/a	n/a	0	0	0
620836	WORD	wordpools/wasnorm_wordpool_576.txt	LTP365	ltpFR2	3	4	ISLAND	745	n/a	n/a	0	0	0
623351	WORD	wordpools/wasnorm_wordpool_576.txt	LTP365	ltpFR2	3	4	DIVER	476	n/a	n/a	0	0	0
626166	WORD	wordpools/wasnorm_wordpool_576.txt	LTP365	ltpFR2	3	4	SALAD	1224	n/a	n/a	0	0	0
628683	WORD	wordpools/wasnorm_wordpool_576.txt	LTP365	ltpFR2	3	4	SANDWICH	1232	n/a	n/a	0	0	0
631197	WORD	wordpools/wasnorm_wordpool_576.txt	LTP365	ltpFR2	3	4	TUBA	1515	n/a	n/a	0	0	0
633880	WORD	wordpools/wasnorm_wordpool_576.txt	LTP365	ltpFR2	3	4	GROUND	666	n/a	n/a	0	0	0
636345	WORD	wordpools/wasnorm_wordpool_576.txt	LTP365	ltpFR2	3	4	ROD	1203	n/a	n/a	0	0	0
638845	WORD	wordpools/wasnorm_wordpool_576.txt	LTP365	ltpFR2	3	4	PISTON	1076	n/a	n/a	0	0	0
641410	WORD	wordpools/wasnorm_wordpool_576.txt	LTP365	ltpFR2	3	4	PLAID	1080	n/a	n/a	0	0	0
644108	WORD	wordpools/wasnorm_wordpool_576.txt	LTP365	ltpFR2	3	4	BLOUSE	139	n/a	n/a	0	0	0
646774	WORD	wordpools/wasnorm_wordpool_576.txt	LTP365	ltpFR2	3	4	KNAPSACK	783	n/a	n/a	0	0	0
649490	WORD	wordpools/wasnorm_wordpool_576.txt	LTP365	ltpFR2	3	4	CANYON	235	n/a	n/a	0	0	0
652071	WORD	wordpools/wasnorm_wordpool_576.txt	LTP365	ltpFR2	3	4	PERMIT	1051	n/a	n/a	0	0	0
654604	WORD	wordpools/wasnorm_wordpool_576.txt	LTP365	ltpFR2	3	4	YACHT	1629	n/a	n/a	0	0	0
657370	WORD	wordpools/wasnorm_wordpool_576.txt	LTP365	ltpFR2	3	4	LILY	821	n/a	n/a	0	0	0
659951	WORD	wordpools/wasnorm_wordpool_576.txt	LTP365	ltpFR2	3	4	HANDBAG	684	n/a	n/a	0	0	0
662617	WORD	wordpools/wasnorm_wordpool_576.txt	LTP365	ltpFR2	3	4	RECORD	1176	n/a	n/a	0	0	0
665098	WORD	wordpools/wasnorm_wordpool_576.txt	LTP365	ltpFR2	3	4	NOMAD	955	n/a	n/a	0	0	0
667732	WORD	wordpools/wasnorm_wordpool_576.txt	LTP365	ltpFR2	3	4	HUMAN	726	n/a	n/a	0	0	0
670414	WORD	wordpools/wasnorm_wordpool_576.txt	LTP365	ltpFR2	3	4	WARDROBE	1587	n/a	n/a	0	0	0
673228	WORD	wordpools/wasnorm_wordpool_576.txt	LTP365	ltpFR2	3	4	DRINK	498	n/a	n/a	0	0	0
674845	START	n/a	LTP365	ltpFR2	3	n/a	n/a	n/a	4	n/a	n/a	n/a	n/a
675829	DISTRACTOR	n/a	LTP365	ltpFR2	3	4	n/a	n/a	n/a	n/a	0	0	0
675845	PROB	n/a	LTP365	ltpFR2	3	n/a	n/a	n/a	4	19	9	4	6
677777	PROB	n/a	LTP365	ltpFR2	3	n/a	n/a	n/a	4	6	1	2	3
679092	PROB	n/a	LTP365	ltpFR2	3	n/a	n/a	n/a	4	21	7	6	8
681241	PROB	n/a	LTP365	ltpFR2	3	n/a	n/a	n/a	4	15	4	2	9
682608	PROB	n/a	LTP365	ltpFR2	3	n/a	n/a	n/a	4	18	9	8	1
683890	PROB	n/a	LTP365	ltpFR2	3	n/a	n/a	n/a	4	19	8	9	2
686189	PROB	n/a	LTP365	ltpFR2	3	n/a	n/a	n/a	4	15	4	5	6
689104	PROB	n/a	LTP365	ltpFR2	3	n/a	n/a	n/a	4	4	2	1	1
690538	PROB	n/a	LTP365	ltpFR2	3	n/a	n/a	n/a	4	21	5	8	8
692203	PROB	n/a	LTP365	ltpFR2	3	n/a	n/a	n/a	4	14	8	2	4
693836	PROB	n/a	LTP365	ltpFR2	3	n/a	n/a	n/a	4	13	9	1	3
695786	PROB	n/a	LTP365	ltpFR2	3	n/a	n/a	n/a	4	14	5	2	7
698099	STOP	n/a	LTP365	ltpFR2	3	n/a	n/a	n/a	4	n/a	n/a	n/a	n/a
700700	REC_START	n/a	LTP365	ltpFR2	3	4	n/a	n/a	n/a	n/a	0	0	0
705010	REC_WORD	wordpools/wasnorm_wordpool_576.txt	LTP365	ltpFR2	3	4	DRESSER	496	n/a	n/a	0	0	0
705755	REC_WORD	wordpools/wasnorm_wordpool_576.txt	LTP365	ltpFR2	3	4	DRINK	498	n/a	n/a	0	0	0
708504	REC_WORD	wordpools/wasnorm_wordpool_576.txt	LTP365	ltpFR2	3	4	TREAT	1501	n/a	n/a	0	0	0
709301	REC_WORD	wordpools/wasnorm_wordpool_576.txt	LTP365	ltpFR2	3	4	SHORTCAKE	1292	n/a	n/a	0	0	0
710941	REC_WORD	wordpools/wasnorm_wordpool_576.txt	LTP365	ltpFR2	3	4	PLAID	1080	n/a	n/a	0	0	0
711916	REC_WORD	wordpools/wasnorm_wordpool_576.txt	LTP365	ltpFR2	3	4	BLOUSE	139	n/a	n/a	0	0	0
713810	REC_WORD	wordpools/wasnorm_wordpool_576.txt	LTP365	ltpFR2	3	4	LILY	821	n/a	n/a	0	0	0
714743	REC_WORD	wordpools/wasnorm_wordpool_576.txt	LTP365	ltpFR2	3	4	ISLAND	745	n/a	n/a	0	0	0
715545	REC_WORD	wordpools/wasnorm_wordpool_576.txt	LTP365	ltpFR2	3	4	CANYON	235	n/a	n/a	0	0	0
716485	REC_WORD	wordpools/wasnorm_wordpool_576.txt	LTP365	ltpFR2	3	4	YACHT	1629	n/a	n/a	0	0	0
723300	REC_WORD	wordpools/wasnorm_wordpool_576.txt	LTP365	ltpFR2	3	4	KNAPSACK	783	n/a	n/a	0	0	0
724284	REC_WORD	wordpools/wasnorm_wordpool_576.txt	LTP365	ltpFR2	3	4	ROD	1203	n/a	n/a	0	0	0
725768	REC_WORD	wordpools/wasnorm_wordpool_576.txt	LTP365	ltpFR2	3	4	PISTON	1076	n/a	n/a	0	0	0
732022	REC_WORD	wordpools/wasnorm_wordpool_576.txt	LTP365	ltpFR2	3	4	SALAD	1224	n/a	n/a	0	0	0
733203	REC_WORD	wordpools/wasnorm_wordpool_576.txt	LTP365	ltpFR2	3	4	SANDWICH	1232	n/a	n/a	0	0	0
751481	REC_WORD	wordpools/wasnorm_wordpool_576.txt	LTP365	ltpFR2	3	4	PERMIT	1051	n/a	n/a	0	0	0
757849	REC_WORD	wordpools/wasnorm_wordpool_576.txt	LTP365	ltpFR2	3	4	HUMAN	726	n/a	n/a	0	0	0
791158	WORD	wordpools/wasnorm_wordpool_576.txt	LTP365	ltpFR2	3	5	VENUS	1557	n/a	n/a	0	0	0
793658	WORD	wordpools/wasnorm_wordpool_576.txt	LTP365	ltpFR2	3	5	SCRIBBLE	1256	n/a	n/a	0	0	0
796306	WORD	wordpools/wasnorm_wordpool_576.txt	LTP365	ltpFR2	3	5	TOURIST	1488	n/a	n/a	0	0	0
798888	WORD	wordpools/wasnorm_wordpool_576.txt	LTP365	ltpFR2	3	5	PICTURE	1061	n/a	n/a	0	0	0
801654	WORD	wordpools/wasnorm_wordpool_576.txt	LTP365	ltpFR2	3	5	FILM	565	n/a	n/a	0	0	0
804386	WORD	wordpools/wasnorm_wordpool_576.txt	LTP365	ltpFR2	3	5	CLAM	315	n/a	n/a	0	0	0
807001	WORD	wordpools/wasnorm_wordpool_576.txt	LTP365	ltpFR2	3	5	OYSTER	995	n/a	n/a	0	0	0
809584	WORD	wordpools/wasnorm_wordpool_576.txt	LTP365	ltpFR2	3	5	CRAYON	401	n/a	n/a	0	0	0
812148	WORD	wordpools/wasnorm_wordpool_576.txt	LTP365	ltpFR2	3	5	SERVANT	1271	n/a	n/a	0	0	0
814881	WORD	wordpools/wasnorm_wordpool_576.txt	LTP365	ltpFR2	3	5	PADDLE	1000	n/a	n/a	0	0	0
817647	WORD	wordpools/wasnorm_wordpool_576.txt	LTP365	ltpFR2	3	5	STUDENT	1395	n/a	n/a	0	0	0
820145	WORD	wordpools/wasnorm_wordpool_576.txt	LTP365	ltpFR2	3	5	WRENCH	1625	n/a	n/a	0	0	0
822578	WORD	wordpools/wasnorm_wordpool_576.txt	LTP365	ltpFR2	3	5	PAPER	1011	n/a	n/a	0	0	0
825059	WORD	wordpools/wasnorm_wordpool_576.txt	LTP365	ltpFR2	3	5	MOTEL	919	n/a	n/a	0	0	0
827792	WORD	wordpools/wasnorm_wordpool_576.txt	LTP365	ltpFR2	3	5	HAWK	692	n/a	n/a	0	0	0
830273	WORD	wordpools/wasnorm_wordpool_576.txt	LTP365	ltpFR2	3	5	LUNCH	849	n/a	n/a	0	0	0
833072	WORD	wordpools/wasnorm_wordpool_576.txt	LTP365	ltpFR2	3	5	NOTEBOOK	959	n/a	n/a	0	0	0
835855	WORD	wordpools/wasnorm_wordpool_576.txt	LTP365	ltpFR2	3	5	LAGOON	795	n/a	n/a	0	0	0
838454	WORD	wordpools/wasnorm_wordpool_576.txt	LTP365	ltpFR2	3	5	GIRL	637	n/a	n/a	0	0	0
840885	WORD	wordpools/wasnorm_wordpool_576.txt	LTP365	ltpFR2	3	5	GAVEL	627	n/a	n/a	0	0	0
843485	WORD	wordpools/wasnorm_wordpool_576.txt	LTP365	ltpFR2	3	5	VIKING	1565	n/a	n/a	0	0	0
846066	WORD	wordpools/wasnorm_wordpool_576.txt	LTP365	ltpFR2	3	5	JEANS	752	n/a	n/a	0	0	0
848716	WORD	wordpools/wasnorm_wordpool_576.txt	LTP365	ltpFR2	3	5	SHORTS	1293	n/a	n/a	0	0	0
851515	WORD	wordpools/wasnorm_wordpool_576.txt	LTP365	ltpFR2	3	5	TUNNEL	1519	n/a	n/a	0	0	0
853130	START	n/a	LTP365	ltpFR2	3	n/a	n/a	n/a	5	n/a	n/a	n/a	n/a
854321	DISTRACTOR	n/a	LTP365	ltpFR2	3	5	n/a	n/a	n/a	n/a	0	0	0
854329	PROB	n/a	LTP365	ltpFR2	3	n/a	n/a	n/a	5	14	5	2	7
856995	PROB	n/a	LTP365	ltpFR2	3	n/a	n/a	n/a	5	14	5	3	6
858944	PROB	n/a	LTP365	ltpFR2	3	n/a	n/a	n/a	5	7	4	2	1
860777	PROB	n/a	LTP365	ltpFR2	3	n/a	n/a	n/a	5	17	9	7	1
863609	PROB	n/a	LTP365	ltpFR2	3	n/a	n/a	n/a	5	19	7	8	4
866658	PROB	n/a	LTP365	ltpFR2	3	n/a	n/a	n/a	5	2	9	7	4
869440	PROB	n/a	LTP365	ltpFR2	3	n/a	n/a	n/a	5	10	2	4	4
872188	PROB	n/a	LTP365	ltpFR2	3	n/a	n/a	n/a	5	13	4	5	4
877129	STOP	n/a	LTP365	ltpFR2	3	n/a	n/a	n/a	5	n/a	n/a	n/a	n/a
879019	REC_START	n/a	LTP365	ltpFR2	3	5	n/a	n/a	n/a	n/a	0	0	0
880863	REC_WORD	wordpools/wasnorm_wordpool_576.txt	LTP365	ltpFR2	3	5	LAGOON	795	n/a	n/a	0	0	0
881613	REC_WORD	wordpools/wasnorm_wordpool_576.txt	LTP365	ltpFR2	3	5	TOURIST	1488	n/a	n/a	0	0	0
882295	REC_WORD	wordpools/wasnorm_wordpool_576.txt	LTP365	ltpFR2	3	5	VENUS	1557	n/a	n/a	0	0	0
883049	REC_WORD	wordpools/wasnorm_wordpool_576.txt	LTP365	ltpFR2	3	5	PAPER	1011	n/a	n/a	0	0	0
883561	REC_WORD	wordpools/wasnorm_wordpool_576.txt	LTP365	ltpFR2	3	5	SKETCH	1315	n/a	n/a	0	0	0
884488	REC_WORD	wordpools/wasnorm_wordpool_576.txt	LTP365	ltpFR2	3	5	SCRIBBLE	1256	n/a	n/a	0	0	0
885885	REC_WORD	wordpools/wasnorm_wordpool_576.txt	LTP365	ltpFR2	3	5	CRAYON	401	n/a	n/a	0	0	0
889054	REC_WORD	wordpools/wasnorm_wordpool_576.txt	LTP365	ltpFR2	3	5	SERVANT	1271	n/a	n/a	0	0	0
889763	REC_WORD	wordpools/wasnorm_wordpool_576.txt	LTP365	ltpFR2	3	5	OYSTER	995	n/a	n/a	0	0	0
890552	REC_WORD	wordpools/wasnorm_wordpool_576.txt	LTP365	ltpFR2	3	5	CLAM	315	n/a	n/a	0	0	0
891420	REC_WORD	wordpools/wasnorm_wordpool_576.txt	LTP365	ltpFR2	3	5	LUNCH	849	n/a	n/a	0	0	0
892609	REC_WORD	wordpools/wasnorm_wordpool_576.txt	LTP365	ltpFR2	3	5	GIRL	637	n/a	n/a	0	0	0
895318	REC_WORD	wordpools/wasnorm_wordpool_576.txt	LTP365	ltpFR2	3	5	STUDENT	1395	n/a	n/a	0	0	0
897572	REC_WORD	wordpools/wasnorm_wordpool_576.txt	LTP365	ltpFR2	3	5	MOTEL	919	n/a	n/a	0	0	0
903371	REC_WORD	wordpools/wasnorm_wordpool_576.txt	LTP365	ltpFR2	3	5	TUNNEL	1519	n/a	n/a	0	0	0
911707	REC_WORD	wordpools/wasnorm_wordpool_576.txt	LTP365	ltpFR2	3	5	NOTEBOOK	959	n/a	n/a	0	0	0
914158	REC_WORD	wordpools/wasnorm_wordpool_576.txt	LTP365	ltpFR2	3	5	PICTURE	1061	n/a	n/a	0	0	0
915868	REC_WORD	wordpools/wasnorm_wordpool_576.txt	LTP365	ltpFR2	3	5	FILM	565	n/a	n/a	0	0	0
931491	REC_WORD_VV	wordpools/wasnorm_wordpool_576.txt	LTP365	ltpFR2	3	5	<>	-1	n/a	n/a	0	0	0
938518	REC_WORD	wordpools/wasnorm_wordpool_576.txt	LTP365	ltpFR2	3	5	JEANS	752	n/a	n/a	0	0	0
939281	REC_WORD	wordpools/wasnorm_wordpool_576.txt	LTP365	ltpFR2	3	5	SHORTS	1293	n/a	n/a	0	0	0
944030	REC_WORD	wordpools/wasnorm_wordpool_576.txt	LTP365	ltpFR2	3	5	WRENCH	1625	n/a	n/a	0	0	0
945442	REC_WORD	wordpools/wasnorm_wordpool_576.txt	LTP365	ltpFR2	3	5	GAVEL	627	n/a	n/a	0	0	0
949429	REC_WORD	wordpools/wasnorm_wordpool_576.txt	LTP365	ltpFR2	3	5	PADDLE	1000	n/a	n/a	0	0	0
969445	DISTRACTOR	n/a	LTP365	ltpFR2	3	6	n/a	n/a	n/a	n/a	0	0	0
969445	START	n/a	LTP365	ltpFR2	3	n/a	n/a	n/a	6	n/a	n/a	n/a	n/a
969461	PROB	n/a	LTP365	ltpFR2	3	n/a	n/a	n/a	6	15	5	3	7
970844	PROB	n/a	LTP365	ltpFR2	3	n/a	n/a	n/a	6	18	9	3	6
973059	PROB	n/a	LTP365	ltpFR2	3	n/a	n/a	n/a	6	26	9	8	9
975825	PROB	n/a	LTP365	ltpFR2	3	n/a	n/a	n/a	6	7	2	2	3
978156	PROB	n/a	LTP365	ltpFR2	3	n/a	n/a	n/a	6	22	9	6	7
981122	PROB	n/a	LTP365	ltpFR2	3	n/a	n/a	n/a	6	14	1	4	9
982439	PROB	n/a	LTP365	ltpFR2	3	n/a	n/a	n/a	6	4	2	1	1
983805	PROB	n/a	LTP365	ltpFR2	3	n/a	n/a	n/a	6	11	8	1	2
985487	PROB	n/a	LTP365	ltpFR2	3	n/a	n/a	n/a	6	19	4	6	9
987620	PROB	n/a	LTP365	ltpFR2	3	n/a	n/a	n/a	6	21	9	3	9
989536	PROB	n/a	LTP365	ltpFR2	3	n/a	n/a	n/a	6	10	5	4	1
990934	PROB	n/a	LTP365	ltpFR2	3	n/a	n/a	n/a	6	14	7	1	5
992597	STOP	n/a	LTP365	ltpFR2	3	n/a	n/a	n/a	6	n/a	n/a	n/a	n/a
994417	WORD	wordpools/wasnorm_wordpool_576.txt	LTP365	ltpFR2	3	6	FLAG	573	n/a	n/a	0	0	0
996898	WORD	wordpools/wasnorm_wordpool_576.txt	LTP365	ltpFR2	3	6	SCISSORS	1250	n/a	n/a	0	0	0
999564	WORD	wordpools/wasnorm_wordpool_576.txt	LTP365	ltpFR2	3	6	FRUIT	610	n/a	n/a	0	0	0
1001996	WORD	wordpools/wasnorm_wordpool_576.txt	LTP365	ltpFR2	3	6	GUITAR	670	n/a	n/a	0	0	0
1004712	WORD	wordpools/wasnorm_wordpool_576.txt	LTP365	ltpFR2	3	6	BANJO	82	n/a	n/a	0	0	0
1007343	WORD	wordpools/wasnorm_wordpool_576.txt	LTP365	ltpFR2	3	6	PICNIC	1060	n/a	n/a	0	0	0
1009860	WORD	wordpools/wasnorm_wordpool_576.txt	LTP365	ltpFR2	3	6	PLATE	1086	n/a	n/a	0	0	0
1012341	WORD	wordpools/wasnorm_wordpool_576.txt	LTP365	ltpFR2	3	6	RADISH	1158	n/a	n/a	0	0	0
1015090	WORD	wordpools/wasnorm_wordpool_576.txt	LTP365	ltpFR2	3	6	JOURNAL	760	n/a	n/a	0	0	0
1017888	WORD	wordpools/wasnorm_wordpool_576.txt	LTP365	ltpFR2	3	6	WAITRESS	1581	n/a	n/a	0	0	0
1020605	WORD	wordpools/wasnorm_wordpool_576.txt	LTP365	ltpFR2	3	6	CAPTIVE	240	n/a	n/a	0	0	0
1023119	WORD	wordpools/wasnorm_wordpool_576.txt	LTP365	ltpFR2	3	6	BLUEPRINT	142	n/a	n/a	0	0	0
1025619	WORD	wordpools/wasnorm_wordpool_576.txt	LTP365	ltpFR2	3	6	ATLAS	53	n/a	n/a	0	0	0
1028300	WORD	wordpools/wasnorm_wordpool_576.txt	LTP365	ltpFR2	3	6	DAISY	435	n/a	n/a	0	0	0
1031066	WORD	wordpools/wasnorm_wordpool_576.txt	LTP365	ltpFR2	3	6	PEDAL	1037	n/a	n/a	0	0	0
1033599	WORD	wordpools/wasnorm_wordpool_576.txt	LTP365	ltpFR2	3	6	CONVICT	371	n/a	n/a	0	0	0
1036130	WORD	wordpools/wasnorm_wordpool_576.txt	LTP365	ltpFR2	3	6	STONE	1385	n/a	n/a	0	0	0
1038830	WORD	wordpools/wasnorm_wordpool_576.txt	LTP365	ltpFR2	3	6	HIGHWAY	707	n/a	n/a	0	0	0
1041294	WORD	wordpools/wasnorm_wordpool_576.txt	LTP365	ltpFR2	3	6	INMATE	738	n/a	n/a	0	0	0
1044093	WORD	wordpools/wasnorm_wordpool_576.txt	LTP365	ltpFR2	3	6	POET	1095	n/a	n/a	0	0	0
1046660	WORD	wordpools/wasnorm_wordpool_576.txt	LTP365	ltpFR2	3	6	QUAIL	1147	n/a	n/a	0	0	0
1049408	WORD	wordpools/wasnorm_wordpool_576.txt	LTP365	ltpFR2	3	6	GYMNAST	675	n/a	n/a	0	0	0
1051890	WORD	wordpools/wasnorm_wordpool_576.txt	LTP365	ltpFR2	3	6	FRIAR	605	n/a	n/a	0	0	0
1054706	WORD	wordpools/wasnorm_wordpool_576.txt	LTP365	ltpFR2	3	6	MAILBOX	857	n/a	n/a	0	0	0
1056321	START	n/a	LTP365	ltpFR2	3	n/a	n/a	n/a	7	n/a	n/a	n/a	n/a
1057466	DISTRACTOR	n/a	LTP365	ltpFR2	3	6	n/a	n/a	n/a	n/a	0	0	0
1057471	PROB	n/a	LTP365	ltpFR2	3	n/a	n/a	n/a	7	17	7	2	8
1059070	PROB	n/a	LTP365	ltpFR2	3	n/a	n/a	n/a	7	15	2	5	8
1060803	PROB	n/a	LTP365	ltpFR2	3	n/a	n/a	n/a	7	10	4	1	5
1062068	PROB	n/a	LTP365	ltpFR2	3	n/a	n/a	n/a	7	18	8	5	5
1063435	PROB	n/a	LTP365	ltpFR2	3	n/a	n/a	n/a	7	22	7	6	9
1065801	PROB	n/a	LTP365	ltpFR2	3	n/a	n/a	n/a	7	11	3	6	2
1068566	PROB	n/a	LTP365	ltpFR2	3	n/a	n/a	n/a	7	13	2	4	7
1071131	PROB	n/a	LTP365	ltpFR2	3	n/a	n/a	n/a	7	17	4	8	5
1073497	PROB	n/a	LTP365	ltpFR2	3	n/a	n/a	n/a	7	10	4	1	5
1074747	PROB	n/a	LTP365	ltpFR2	3	n/a	n/a	n/a	7	10	5	4	1
1076062	PROB	n/a	LTP365	ltpFR2	3	n/a	n/a	n/a	7	18	7	3	8
1077412	PROB	n/a	LTP365	ltpFR2	3	n/a	n/a	n/a	7	17	6	5	6
1079360	STOP	n/a	LTP365	ltpFR2	3	n/a	n/a	n/a	7	n/a	n/a	n/a	n/a
1082110	REC_START	n/a	LTP365	ltpFR2	3	6	n/a	n/a	n/a	n/a	0	0	0
1084079	REC_WORD	wordpools/wasnorm_wordpool_576.txt	LTP365	ltpFR2	3	6	CAPTIVE	240	n/a	n/a	0	0	0
1084939	REC_WORD	wordpools/wasnorm_wordpool_576.txt	LTP365	ltpFR2	3	6	INMATE	738	n/a	n/a	0	0	0
1091908	REC_WORD	wordpools/wasnorm_wordpool_576.txt	LTP365	ltpFR2	3	6	FUGITIVE	612	n/a	n/a	0	0	0
1092934	REC_WORD	wordpools/wasnorm_wordpool_576.txt	LTP365	ltpFR2	3	6	PICNIC	1060	n/a	n/a	0	0	0
1093889	REC_WORD	wordpools/wasnorm_wordpool_576.txt	LTP365	ltpFR2	3	6	BANJO	82	n/a	n/a	0	0	0
1094670	REC_WORD	wordpools/wasnorm_wordpool_576.txt	LTP365	ltpFR2	3	6	GUITAR	670	n/a	n/a	0	0	0
1095512	REC_WORD	wordpools/wasnorm_wordpool_576.txt	LTP365	ltpFR2	3	6	POET	1095	n/a	n/a	0	0	0
1096422	REC_WORD	wordpools/wasnorm_wordpool_576.txt	LTP365	ltpFR2	3	6	DAISY	435	n/a	n/a	0	0	0
1098276	REC_WORD	wordpools/wasnorm_wordpool_576.txt	LTP365	ltpFR2	3	6	WAITRESS	1581	n/a	n/a	0	0	0
1107075	REC_WORD	wordpools/wasnorm_wordpool_576.txt	LTP365	ltpFR2	3	6	HIGHWAY	707	n/a	n/a	0	0	0
1108987	REC_WORD	wordpools/wasnorm_wordpool_576.txt	LTP365	ltpFR2	3	6	FLAG	573	n/a	n/a	0	0	0
1110444	REC_WORD	wordpools/wasnorm_wordpool_576.txt	LTP365	ltpFR2	3	6	SCISSORS	1250	n/a	n/a	0	0	0
1123837	REC_WORD	wordpools/wasnorm_wordpool_576.txt	LTP365	ltpFR2	3	6	QUAIL	1147	n/a	n/a	0	0	0
1128576	REC_WORD	wordpools/wasnorm_wordpool_576.txt	LTP365	ltpFR2	3	6	FRIAR	605	n/a	n/a	0	0	0
1133307	REC_WORD	wordpools/wasnorm_wordpool_576.txt	LTP365	ltpFR2	3	6	PEDAL	1037	n/a	n/a	0	0	0
1137590	REC_WORD	wordpools/wasnorm_wordpool_576.txt	LTP365	ltpFR2	3	6	STONE	1385	n/a	n/a	0	0	0
1172569	WORD	wordpools/wasnorm_wordpool_576.txt	LTP365	ltpFR2	3	7	WRIST	1626	n/a	n/a	0	0	0
1175350	WORD	wordpools/wasnorm_wordpool_576.txt	LTP365	ltpFR2	3	7	CORAL	378	n/a	n/a	0	0	0
1177817	WORD	wordpools/wasnorm_wordpool_576.txt	LTP365	ltpFR2	3	7	BRIEFCASE	175	n/a	n/a	0	0	0
1180399	WORD	wordpools/wasnorm_wordpool_576.txt	LTP365	ltpFR2	3	7	FOREST	593	n/a	n/a	0	0	0
1182947	WORD	wordpools/wasnorm_wordpool_576.txt	LTP365	ltpFR2	3	7	CATCHER	258	n/a	n/a	0	0	0
1185397	WORD	wordpools/wasnorm_wordpool_576.txt	LTP365	ltpFR2	3	7	FRIEND	606	n/a	n/a	0	0	0
1187961	WORD	wordpools/wasnorm_wordpool_576.txt	LTP365	ltpFR2	3	7	TERMITE	1451	n/a	n/a	0	0	0
1190394	WORD	wordpools/wasnorm_wordpool_576.txt	LTP365	ltpFR2	3	7	COCOON	339	n/a	n/a	0	0	0
1192843	WORD	wordpools/wasnorm_wordpool_576.txt	LTP365	ltpFR2	3	7	PARTNER	1017	n/a	n/a	0	0	0
1195659	WORD	wordpools/wasnorm_wordpool_576.txt	LTP365	ltpFR2	3	7	TURNIP	1521	n/a	n/a	0	0	0
1198206	WORD	wordpools/wasnorm_wordpool_576.txt	LTP365	ltpFR2	3	7	ORCHID	982	n/a	n/a	0	0	0
1200939	WORD	wordpools/wasnorm_wordpool_576.txt	LTP365	ltpFR2	3	7	EAGLE	512	n/a	n/a	0	0	0
1203388	WORD	wordpools/wasnorm_wordpool_576.txt	LTP365	ltpFR2	3	7	CEILING	265	n/a	n/a	0	0	0
1206120	WORD	wordpools/wasnorm_wordpool_576.txt	LTP365	ltpFR2	3	7	SHOULDER	1294	n/a	n/a	0	0	0
1208736	WORD	wordpools/wasnorm_wordpool_576.txt	LTP365	ltpFR2	3	7	OFFICE	972	n/a	n/a	0	0	0
1211334	WORD	wordpools/wasnorm_wordpool_576.txt	LTP365	ltpFR2	3	7	AUTHOR	61	n/a	n/a	0	0	0
1213784	WORD	wordpools/wasnorm_wordpool_576.txt	LTP365	ltpFR2	3	7	LABEL	790	n/a	n/a	0	0	0
1216232	WORD	wordpools/wasnorm_wordpool_576.txt	LTP365	ltpFR2	3	7	SCALLOP	1242	n/a	n/a	0	0	0
1218997	WORD	wordpools/wasnorm_wordpool_576.txt	LTP365	ltpFR2	3	7	FRANCE	601	n/a	n/a	0	0	0
1221797	WORD	wordpools/wasnorm_wordpool_576.txt	LTP365	ltpFR2	3	7	BOYFRIEND	162	n/a	n/a	0	0	0
1224562	WORD	wordpools/wasnorm_wordpool_576.txt	LTP365	ltpFR2	3	7	LADDER	793	n/a	n/a	0	0	0
1227143	WORD	wordpools/wasnorm_wordpool_576.txt	LTP365	ltpFR2	3	7	PADDING	999	n/a	n/a	0	0	0
1229826	WORD	wordpools/wasnorm_wordpool_576.txt	LTP365	ltpFR2	3	7	DRUG	501	n/a	n/a	0	0	0
1232341	WORD	wordpools/wasnorm_wordpool_576.txt	LTP365	ltpFR2	3	7	FLEET	578	n/a	n/a	0	0	0
1233957	START	n/a	LTP365	ltpFR2	3	n/a	n/a	n/a	8	n/a	n/a	n/a	n/a
1234833	DISTRACTOR	n/a	LTP365	ltpFR2	3	7	n/a	n/a	n/a	n/a	0	0	0
1234841	PROB	n/a	LTP365	ltpFR2	3	n/a	n/a	n/a	8	18	9	6	3
1239071	PROB	n/a	LTP365	ltpFR2	3	n/a	n/a	n/a	8	6	3	2	1
1240755	PROB	n/a	LTP365	ltpFR2	3	n/a	n/a	n/a	8	19	9	2	8
1242070	PROB	n/a	LTP365	ltpFR2	3	n/a	n/a	n/a	8	27	9	9	9
1244403	PROB	n/a	LTP365	ltpFR2	3	n/a	n/a	n/a	8	13	8	2	3
1247217	PROB	n/a	LTP365	ltpFR2	3	n/a	n/a	n/a	8	12	2	5	5
1248568	PROB	n/a	LTP365	ltpFR2	3	n/a	n/a	n/a	8	20	8	6	6
1251349	PROB	n/a	LTP365	ltpFR2	3	n/a	n/a	n/a	8	13	6	4	3
1252998	PROB	n/a	LTP365	ltpFR2	3	n/a	n/a	n/a	8	17	3	7	7
1255432	PROB	n/a	LTP365	ltpFR2	3	n/a	n/a	n/a	8	18	2	7	9
1257557	STOP	n/a	LTP365	ltpFR2	3	n/a	n/a	n/a	8	n/a	n/a	n/a	n/a
1259847	REC_START	n/a	LTP365	ltpFR2	3	7	n/a	n/a	n/a	n/a	0	0	0
1260245	REC_WORD	wordpools/wasnorm_wordpool_576.txt	LTP365	ltpFR2	3	7	FLEET	578	n/a	n/a	0	0	0
1260977	REC_WORD	wordpools/wasnorm_wordpool_576.txt	LTP365	ltpFR2	3	7	PARTNER	1017	n/a	n/a	0	0	0
1261645	REC_WORD	wordpools/wasnorm_wordpool_576.txt	LTP365	ltpFR2	3	7	FRIEND	606	n/a	n/a	0	0	0
1262593	REC_WORD	wordpools/wasnorm_wordpool_576.txt	LTP365	ltpFR2	3	7	TERMITE	1451	n/a	n/a	0	0	0
1263289	REC_WORD	wordpools/wasnorm_wordpool_576.txt	LTP365	ltpFR2	3	7	CEILING	265	n/a	n/a	0	0	0
1264146	REC_WORD	wordpools/wasnorm_wordpool_576.txt	LTP365	ltpFR2	3	7	PADDING	999	n/a	n/a	0	0	0
1265090	REC_WORD	wordpools/wasnorm_wordpool_576.txt	LTP365	ltpFR2	3	7	BOYFRIEND	162	n/a	n/a	0	0	0
1269537	REC_WORD	wordpools/wasnorm_wordpool_576.txt	LTP365	ltpFR2	3	7	FOREST	593	n/a	n/a	0	0	0
1279635	REC_WORD	wordpools/wasnorm_wordpool_576.txt	LTP365	ltpFR2	3	7	CATCHER	258	n/a	n/a	0	0	0
1282254	REC_WORD	wordpools/wasnorm_wordpool_576.txt	LTP365	ltpFR2	3	7	OFFICE	972	n/a	n/a	0	0	0
1285033	REC_WORD	wordpools/wasnorm_wordpool_576.txt	LTP365	ltpFR2	3	7	WRIST	1626	n/a	n/a	0	0	0
1290330	REC_WORD	wordpools/wasnorm_wordpool_576.txt	LTP365	ltpFR2	3	7	CORAL	378	n/a	n/a	0	0	0
1303110	REC_WORD	wordpools/wasnorm_wordpool_576.txt	LTP365	ltpFR2	3	7	DRUG	501	n/a	n/a	0	0	0
1321778	REC_WORD	wordpools/wasnorm_wordpool_576.txt	LTP365	ltpFR2	3	7	LEADER	807	n/a	n/a	0	0	0
1333773	REC_WORD	wordpools/wasnorm_wordpool_576.txt	LTP365	ltpFR2	3	7	SHOULDER	1294	n/a	n/a	0	0	0
1350304	DISTRACTOR	n/a	LTP365	ltpFR2	3	8	n/a	n/a	n/a	n/a	0	0	0
1350304	START	n/a	LTP365	ltpFR2	3	n/a	n/a	n/a	9	n/a	n/a	n/a	n/a
1350321	PROB	n/a	LTP365	ltpFR2	3	n/a	n/a	n/a	9	14	7	6	1
1352404	PROB	n/a	LTP365	ltpFR2	3	n/a	n/a	n/a	9	15	2	7	6
1354069	PROB	n/a	LTP365	ltpFR2	3	n/a	n/a	n/a	9	20	8	9	3
1355719	PROB	n/a	LTP365	ltpFR2	3	n/a	n/a	n/a	9	19	5	8	6
1358518	PROB	n/a	LTP365	ltpFR2	3	n/a	n/a	n/a	9	17	8	5	4
1360283	PROB	n/a	LTP365	ltpFR2	3	n/a	n/a	n/a	9	9	1	7	1
1361750	PROB	n/a	LTP365	ltpFR2	3	n/a	n/a	n/a	9	16	8	3	5
1363332	PROB	n/a	LTP365	ltpFR2	3	n/a	n/a	n/a	9	13	6	5	2
1365897	PROB	n/a	LTP365	ltpFR2	3	n/a	n/a	n/a	9	11	2	1	8
1367280	PROB	n/a	LTP365	ltpFR2	3	n/a	n/a	n/a	9	8	9	2	7
1369663	PROB	n/a	LTP365	ltpFR2	3	n/a	n/a	n/a	9	16	6	5	5
1371645	PROB	n/a	LTP365	ltpFR2	3	n/a	n/a	n/a	9	9	3	5	1
1373497	STOP	n/a	LTP365	ltpFR2	3	n/a	n/a	n/a	9	n/a	n/a	n/a	n/a
1375226	WORD	wordpools/wasnorm_wordpool_576.txt	LTP365	ltpFR2	3	8	CHILD	299	n/a	n/a	0	0	0
1377958	WORD	wordpools/wasnorm_wordpool_576.txt	LTP365	ltpFR2	3	8	FREEZER	604	n/a	n/a	0	0	0
1380608	WORD	wordpools/wasnorm_wordpool_576.txt	LTP365	ltpFR2	3	8	FLESH	579	n/a	n/a	0	0	0
1383156	WORD	wordpools/wasnorm_wordpool_576.txt	LTP365	ltpFR2	3	8	ARM	38	n/a	n/a	0	0	0
1385756	WORD	wordpools/wasnorm_wordpool_576.txt	LTP365	ltpFR2	3	8	LEG	809	n/a	n/a	0	0	0
1388270	WORD	wordpools/wasnorm_wordpool_576.txt	LTP365	ltpFR2	3	8	SEAFOOD	1260	n/a	n/a	0	0	0
1390952	WORD	wordpools/wasnorm_wordpool_576.txt	LTP365	ltpFR2	3	8	CHURCH	307	n/a	n/a	0	0	0
1393386	WORD	wordpools/wasnorm_wordpool_576.txt	LTP365	ltpFR2	3	8	WAGON	1578	n/a	n/a	0	0	0
1396033	WORD	wordpools/wasnorm_wordpool_576.txt	LTP365	ltpFR2	3	8	LUGGAGE	847	n/a	n/a	0	0	0
1398650	WORD	wordpools/wasnorm_wordpool_576.txt	LTP365	ltpFR2	3	8	SALMON	1227	n/a	n/a	0	0	0
1401365	WORD	wordpools/wasnorm_wordpool_576.txt	LTP365	ltpFR2	3	8	PATROL	1027	n/a	n/a	0	0	0
1403814	WORD	wordpools/wasnorm_wordpool_576.txt	LTP365	ltpFR2	3	8	LAMP	798	n/a	n/a	0	0	0
1406430	WORD	wordpools/wasnorm_wordpool_576.txt	LTP365	ltpFR2	3	8	CRUTCH	417	n/a	n/a	0	0	0
1408994	WORD	wordpools/wasnorm_wordpool_576.txt	LTP365	ltpFR2	3	8	HEART	697	n/a	n/a	0	0	0
1411811	WORD	wordpools/wasnorm_wordpool_576.txt	LTP365	ltpFR2	3	8	NIGHTGOWN	953	n/a	n/a	0	0	0
1414292	WORD	wordpools/wasnorm_wordpool_576.txt	LTP365	ltpFR2	3	8	CHAUFFEUR	283	n/a	n/a	0	0	0
1417074	WORD	wordpools/wasnorm_wordpool_576.txt	LTP365	ltpFR2	3	8	LACE	792	n/a	n/a	0	0	0
1419823	WORD	wordpools/wasnorm_wordpool_576.txt	LTP365	ltpFR2	3	8	PARSLEY	1016	n/a	n/a	0	0	0
1422522	WORD	wordpools/wasnorm_wordpool_576.txt	LTP365	ltpFR2	3	8	COUNTRY	388	n/a	n/a	0	0	0
1425287	WORD	wordpools/wasnorm_wordpool_576.txt	LTP365	ltpFR2	3	8	BEAST	108	n/a	n/a	0	0	0
1427870	WORD	wordpools/wasnorm_wordpool_576.txt	LTP365	ltpFR2	3	8	MONSTER	912	n/a	n/a	0	0	0
1430385	WORD	wordpools/wasnorm_wordpool_576.txt	LTP365	ltpFR2	3	8	PUDDING	1139	n/a	n/a	0	0	0
1433150	WORD	wordpools/wasnorm_wordpool_576.txt	LTP365	ltpFR2	3	8	KLEENEX	782	n/a	n/a	0	0	0
1435948	WORD	wordpools/wasnorm_wordpool_576.txt	LTP365	ltpFR2	3	8	KEEPER	769	n/a	n/a	0	0	0
1437549	START	n/a	LTP365	ltpFR2	3	n/a	n/a	n/a	10	n/a	n/a	n/a	n/a
1438371	DISTRACTOR	n/a	LTP365	ltpFR2	3	8	n/a	n/a	n/a	n/a	0	0	0
1438382	PROB	n/a	LTP365	ltpFR2	3	n/a	n/a	n/a	10	16	4	6	6
1440113	PROB	n/a	LTP365	ltpFR2	3	n/a	n/a	n/a	10	9	2	2	5
1441380	PROB	n/a	LTP365	ltpFR2	3	n/a	n/a	n/a	10	17	6	7	4
1443546	PROB	n/a	LTP365	ltpFR2	3	n/a	n/a	n/a	10	15	2	6	7
1446411	PROB	n/a	LTP365	ltpFR2	3	n/a	n/a	n/a	10	7	1	1	5
1447678	PROB	n/a	LTP365	ltpFR2	3	n/a	n/a	n/a	10	18	7	8	3
1449510	PROB	n/a	LTP365	ltpFR2	3	n/a	n/a	n/a	10	14	3	3	8
1451342	PROB	n/a	LTP365	ltpFR2	3	n/a	n/a	n/a	10	6	2	2	2
1452509	PROB	n/a	LTP365	ltpFR2	3	n/a	n/a	n/a	10	8	3	2	3
1454758	PROB	n/a	LTP365	ltpFR2	3	n/a	n/a	n/a	10	10	3	5	1
1456374	PROB	n/a	LTP365	ltpFR2	3	n/a	n/a	n/a	10	20	7	9	4
1459389	PROB	n/a	LTP365	ltpFR2	3	n/a	n/a	n/a	10	18	9	8	1
1460747	STOP	n/a	LTP365	ltpFR2	3	n/a	n/a	n/a	10	n/a	n/a	n/a	n/a
1463353	REC_START	n/a	LTP365	ltpFR2	3	8	n/a	n/a	n/a	n/a	0	0	0
1463993	REC_WORD	wordpools/wasnorm_wordpool_576.txt	LTP365	ltpFR2	3	8	FREEZER	604	n/a	n/a	0	0	0
1464901	REC_WORD	wordpools/wasnorm_wordpool_576.txt	LTP365	ltpFR2	3	8	ARM	38	n/a	n/a	0	0	0
1465576	REC_WORD	wordpools/wasnorm_wordpool_576.txt	LTP365	ltpFR2	3	8	LEG	809	n/a	n/a	0	0	0
1467380	REC_WORD	wordpools/wasnorm_wordpool_576.txt	LTP365	ltpFR2	3	8	NIGHTGOWN	953	n/a	n/a	0	0	0
1468488	REC_WORD	wordpools/wasnorm_wordpool_576.txt	LTP365	ltpFR2	3	8	LACE	792	n/a	n/a	0	0	0
1469405	REC_WORD	wordpools/wasnorm_wordpool_576.txt	LTP365	ltpFR2	3	8	HEART	697	n/a	n/a	0	0	0
1470273	REC_WORD	wordpools/wasnorm_wordpool_576.txt	LTP365	ltpFR2	3	8	KLEENEX	782	n/a	n/a	0	0	0
1472607	REC_WORD	wordpools/wasnorm_wordpool_576.txt	LTP365	ltpFR2	3	8	SEAFOOD	1260	n/a	n/a	0	0	0
1473585	REC_WORD	wordpools/wasnorm_wordpool_576.txt	LTP365	ltpFR2	3	8	SALMON	1227	n/a	n/a	0	0	0
1477357	REC_WORD	wordpools/wasnorm_wordpool_576.txt	LTP365	ltpFR2	3	8	BEAST	108	n/a	n/a	0	0	0
1478106	REC_WORD	wordpools/wasnorm_wordpool_576.txt	LTP365	ltpFR2	3	8	MONSTER	912	n/a	n/a	0	0	0
1480802	REC_WORD	wordpools/wasnorm_wordpool_576.txt	LTP365	ltpFR2	3	8	PATROL	1027	n/a	n/a	0	0	0
1482313	REC_WORD	wordpools/wasnorm_wordpool_576.txt	LTP365	ltpFR2	3	8	LAMP	798	n/a	n/a	0	0	0
1483468	REC_WORD	wordpools/wasnorm_wordpool_576.txt	LTP365	ltpFR2	3	8	CRUTCH	417	n/a	n/a	0	0	0
1492347	REC_WORD	wordpools/wasnorm_wordpool_576.txt	LTP365	ltpFR2	3	8	LUGGAGE	847	n/a	n/a	0	0	0
1500065	REC_WORD	wordpools/wasnorm_wordpool_576.txt	LTP365	ltpFR2	3	8	CARRIAGE	248	n/a	n/a	0	0	0
1508463	REC_WORD	wordpools/wasnorm_wordpool_576.txt	LTP365	ltpFR2	3	8	KEEPER	769	n/a	n/a	0	0	0
1520100	REC_WORD	wordpools/wasnorm_wordpool_576.txt	LTP365	ltpFR2	3	8	FLESH	579	n/a	n/a	0	0	0
1539901	REST_REWET	n/a	LTP365	ltpFR2	3	8	n/a	n/a	n/a	n/a	0	0	0
1661381	WORD	wordpools/wasnorm_wordpool_576.txt	LTP365	ltpFR2	3	9	CIGAR	308	n/a	n/a	0	0	0
1664045	WORD	wordpools/wasnorm_wordpool_576.txt	LTP365	ltpFR2	3	9	SALT	1229	n/a	n/a	0	0	0
1666545	WORD	wordpools/wasnorm_wordpool_576.txt	LTP365	ltpFR2	3	9	ASIA	46	n/a	n/a	0	0	0
1669326	WORD	wordpools/wasnorm_wordpool_576.txt	LTP365	ltpFR2	3	9	LONDON	843	n/a	n/a	0	0	0
1671891	WORD	wordpools/wasnorm_wordpool_576.txt	LTP365	ltpFR2	3	9	PEANUT	1032	n/a	n/a	0	0	0
1674458	WORD	wordpools/wasnorm_wordpool_576.txt	LTP365	ltpFR2	3	9	PECAN	1036	n/a	n/a	0	0	0
1677039	WORD	wordpools/wasnorm_wordpool_576.txt	LTP365	ltpFR2	3	9	PREACHER	1119	n/a	n/a	0	0	0
1679572	WORD	wordpools/wasnorm_wordpool_576.txt	LTP365	ltpFR2	3	9	GAZELLE	628	n/a	n/a	0	0	0
1682353	WORD	wordpools/wasnorm_wordpool_576.txt	LTP365	ltpFR2	3	9	ANTLER	29	n/a	n/a	0	0	0
1684787	WORD	wordpools/wasnorm_wordpool_576.txt	LTP365	ltpFR2	3	9	ONION	977	n/a	n/a	0	0	0
1687385	WORD	wordpools/wasnorm_wordpool_576.txt	LTP365	ltpFR2	3	9	OUTDOORS	987	n/a	n/a	0	0	0
1690166	WORD	wordpools/wasnorm_wordpool_576.txt	LTP365	ltpFR2	3	9	GARDEN	623	n/a	n/a	0	0	0
1692766	WORD	wordpools/wasnorm_wordpool_576.txt	LTP365	ltpFR2	3	9	SLIDE	1326	n/a	n/a	0	0	0
1695482	WORD	wordpools/wasnorm_wordpool_576.txt	LTP365	ltpFR2	3	9	TRACTOR	1493	n/a	n/a	0	0	0
1697946	WORD	wordpools/wasnorm_wordpool_576.txt	LTP365	ltpFR2	3	9	CANDY	230	n/a	n/a	0	0	0
1700396	WORD	wordpools/wasnorm_wordpool_576.txt	LTP365	ltpFR2	3	9	SADDLE	1221	n/a	n/a	0	0	0
1703194	WORD	wordpools/wasnorm_wordpool_576.txt	LTP365	ltpFR2	3	9	POISON	1096	n/a	n/a	0	0	0
1705810	WORD	wordpools/wasnorm_wordpool_576.txt	LTP365	ltpFR2	3	9	TART	1436	n/a	n/a	0	0	0
1708476	WORD	wordpools/wasnorm_wordpool_576.txt	LTP365	ltpFR2	3	9	DUSTPAN	509	n/a	n/a	0	0	0
1711190	WORD	wordpools/wasnorm_wordpool_576.txt	LTP365	ltpFR2	3	9	WIDOW	1608	n/a	n/a	0	0	0
1713723	WORD	wordpools/wasnorm_wordpool_576.txt	LTP365	ltpFR2	3	9	DORM	488	n/a	n/a	0	0	0
1716238	WORD	wordpools/wasnorm_wordpool_576.txt	LTP365	ltpFR2	3	9	CROSS	413	n/a	n/a	0	0	0
1718821	WORD	wordpools/wasnorm_wordpool_576.txt	LTP365	ltpFR2	3	9	TABLET	1427	n/a	n/a	0	0	0
1721537	WORD	wordpools/wasnorm_wordpool_576.txt	LTP365	ltpFR2	3	9	MESSAGE	888	n/a	n/a	0	0	0
1723152	START	n/a	LTP365	ltpFR2	3	n/a	n/a	n/a	11	n/a	n/a	n/a	n/a
1724186	DISTRACTOR	n/a	LTP365	ltpFR2	3	9	n/a	n/a	n/a	n/a	0	0	0
1724201	PROB	n/a	LTP365	ltpFR2	3	n/a	n/a	n/a	11	18	9	6	3
1727333	PROB	n/a	LTP365	ltpFR2	3	n/a	n/a	n/a	11	11	9	1	1
1728650	PROB	n/a	LTP365	ltpFR2	3	n/a	n/a	n/a	11	19	4	9	8
1730282	PROB	n/a	LTP365	ltpFR2	3	n/a	n/a	n/a	11	18	9	3	6
1733814	PROB	n/a	LTP365	ltpFR2	3	n/a	n/a	n/a	11	13	6	5	2
1735563	PROB	n/a	LTP365	ltpFR2	3	n/a	n/a	n/a	11	19	5	7	7
1737479	PROB	n/a	LTP365	ltpFR2	3	n/a	n/a	n/a	11	13	7	5	1
1739211	PROB	n/a	LTP365	ltpFR2	3	n/a	n/a	n/a	11	12	2	6	4
1740661	PROB	n/a	LTP365	ltpFR2	3	n/a	n/a	n/a	11	21	8	5	8
1742276	PROB	n/a	LTP365	ltpFR2	3	n/a	n/a	n/a	11	7	1	5	1
1743826	PROB	n/a	LTP365	ltpFR2	3	n/a	n/a	n/a	11	15	6	2	7
1745844	STOP	n/a	LTP365	ltpFR2	3	n/a	n/a	n/a	11	n/a	n/a	n/a	n/a
1748924	REC_START	n/a	LTP365	ltpFR2	3	9	n/a	n/a	n/a	n/a	0	0	0
1749994	REC_WORD	wordpools/wasnorm_wordpool_576.txt	LTP365	ltpFR2	3	9	TABLET	1427	n/a	n/a	0	0	0
1750798	REC_WORD	wordpools/wasnorm_wordpool_576.txt	LTP365	ltpFR2	3	9	CROSS	413	n/a	n/a	0	0	0
1752195	REC_WORD	wordpools/wasnorm_wordpool_576.txt	LTP365	ltpFR2	3	9	ASIA	46	n/a	n/a	0	0	0
1753173	REC_WORD	wordpools/wasnorm_wordpool_576.txt	LTP365	ltpFR2	3	9	LONDON	843	n/a	n/a	0	0	0
1756368	REC_WORD	wordpools/wasnorm_wordpool_576.txt	LTP365	ltpFR2	3	9	SALT	1229	n/a	n/a	0	0	0
1757911	REC_WORD	wordpools/wasnorm_wordpool_576.txt	LTP365	ltpFR2	3	9	CIGAR	308	n/a	n/a	0	0	0
1762229	REC_WORD	wordpools/wasnorm_wordpool_576.txt	LTP365	ltpFR2	3	9	OUTDOORS	987	n/a	n/a	0	0	0
1763955	REC_WORD	wordpools/wasnorm_wordpool_576.txt	LTP365	ltpFR2	3	9	GARDEN	623	n/a	n/a	0	0	0
1768408	REC_WORD	wordpools/wasnorm_wordpool_576.txt	LTP365	ltpFR2	3	9	DORM	488	n/a	n/a	0	0	0
1770391	REC_WORD	wordpools/wasnorm_wordpool_576.txt	LTP365	ltpFR2	3	9	DUSTPAN	509	n/a	n/a	0	0	0
1775822	REC_WORD	wordpools/wasnorm_wordpool_576.txt	LTP365	ltpFR2	3	9	ONION	977	n/a	n/a	0	0	0
1785511	REC_WORD	wordpools/wasnorm_wordpool_576.txt	LTP365	ltpFR2	3	9	PEANUT	1032	n/a	n/a	0	0	0
1786674	REC_WORD	wordpools/wasnorm_wordpool_576.txt	LTP365	ltpFR2	3	9	PECAN	1036	n/a	n/a	0	0	0
1790691	REC_WORD	wordpools/wasnorm_wordpool_576.txt	LTP365	ltpFR2	3	9	MESSAGE	888	n/a	n/a	0	0	0
1791804	REC_WORD	wordpools/wasnorm_wordpool_576.txt	LTP365	ltpFR2	3	9	TABLET	1427	n/a	n/a	0	0	0
1808301	REC_WORD	wordpools/wasnorm_wordpool_576.txt	LTP365	ltpFR2	3	9	SLIDE	1326	n/a	n/a	0	0	0
1839383	WORD	wordpools/wasnorm_wordpool_576.txt	LTP365	ltpFR2	3	10	SUPPER	1411	n/a	n/a	0	0	0
1842014	WORD	wordpools/wasnorm_wordpool_576.txt	LTP365	ltpFR2	3	10	PLAYGROUND	1087	n/a	n/a	0	0	0
1844681	WORD	wordpools/wasnorm_wordpool_576.txt	LTP365	ltpFR2	3	10	STOVE	1388	n/a	n/a	0	0	0
1847179	WORD	wordpools/wasnorm_wordpool_576.txt	LTP365	ltpFR2	3	10	JELLY	755	n/a	n/a	0	0	0
1849612	WORD	wordpools/wasnorm_wordpool_576.txt	LTP365	ltpFR2	3	10	BLADE	134	n/a	n/a	0	0	0
1852093	WORD	wordpools/wasnorm_wordpool_576.txt	LTP365	ltpFR2	3	10	SCALPEL	1243	n/a	n/a	0	0	0
1854643	WORD	wordpools/wasnorm_wordpool_576.txt	LTP365	ltpFR2	3	10	TROUT	1511	n/a	n/a	0	0	0
1857207	WORD	wordpools/wasnorm_wordpool_576.txt	LTP365	ltpFR2	3	10	STREAM	1392	n/a	n/a	0	0	0
1859874	WORD	wordpools/wasnorm_wordpool_576.txt	LTP365	ltpFR2	3	10	PAIL	1002	n/a	n/a	0	0	0
1862373	WORD	wordpools/wasnorm_wordpool_576.txt	LTP365	ltpFR2	3	10	CANAL	226	n/a	n/a	0	0	0
1864871	WORD	wordpools/wasnorm_wordpool_576.txt	LTP365	ltpFR2	3	10	PANTHER	1009	n/a	n/a	0	0	0
1867670	WORD	wordpools/wasnorm_wordpool_576.txt	LTP365	ltpFR2	3	10	YOLK	1633	n/a	n/a	0	0	0
1870469	WORD	wordpools/wasnorm_wordpool_576.txt	LTP365	ltpFR2	3	10	UMPIRE	1535	n/a	n/a	0	0	0
1873083	WORD	wordpools/wasnorm_wordpool_576.txt	LTP365	ltpFR2	3	10	STAKE	1368	n/a	n/a	0	0	0
1875600	WORD	wordpools/wasnorm_wordpool_576.txt	LTP365	ltpFR2	3	10	BADGE	68	n/a	n/a	0	0	0
1878098	WORD	wordpools/wasnorm_wordpool_576.txt	LTP365	ltpFR2	3	10	LEOPARD	812	n/a	n/a	0	0	0
1880631	WORD	wordpools/wasnorm_wordpool_576.txt	LTP365	ltpFR2	3	10	TABLE	1426	n/a	n/a	0	0	0
1883363	WORD	wordpools/wasnorm_wordpool_576.txt	LTP365	ltpFR2	3	10	PIGEON	1065	n/a	n/a	0	0	0
1885845	WORD	wordpools/wasnorm_wordpool_576.txt	LTP365	ltpFR2	3	10	STAMP	1370	n/a	n/a	0	0	0
1888310	WORD	wordpools/wasnorm_wordpool_576.txt	LTP365	ltpFR2	3	10	SPHINX	1349	n/a	n/a	0	0	0
1890959	WORD	wordpools/wasnorm_wordpool_576.txt	LTP365	ltpFR2	3	10	COIN	343	n/a	n/a	0	0	0
1893592	WORD	wordpools/wasnorm_wordpool_576.txt	LTP365	ltpFR2	3	10	REBEL	1172	n/a	n/a	0	0	0
1896256	WORD	wordpools/wasnorm_wordpool_576.txt	LTP365	ltpFR2	3	10	LEADER	807	n/a	n/a	0	0	0
1898789	WORD	wordpools/wasnorm_wordpool_576.txt	LTP365	ltpFR2	3	10	SEAL	1262	n/a	n/a	0	0	0
1900405	START	n/a	LTP365	ltpFR2	3	n/a	n/a	n/a	12	n/a	n/a	n/a	n/a
1901561	DISTRACTOR	n/a	LTP365	ltpFR2	3	10	n/a	n/a	n/a	n/a	0	0	0
1901571	PROB	n/a	LTP365	ltpFR2	3	n/a	n/a	n/a	12	19	7	3	9
1903303	PROB	n/a	LTP365	ltpFR2	3	n/a	n/a	n/a	12	19	8	7	4
1904952	PROB	n/a	LTP365	ltpFR2	3	n/a	n/a	n/a	12	21	5	8	8
1907435	PROB	n/a	LTP365	ltpFR2	3	n/a	n/a	n/a	12	10	1	5	4
1909034	PROB	n/a	LTP365	ltpFR2	3	n/a	n/a	n/a	12	16	5	5	6
1910300	PROB	n/a	LTP365	ltpFR2	3	n/a	n/a	n/a	12	12	1	5	6
1911783	PROB	n/a	LTP365	ltpFR2	3	n/a	n/a	n/a	12	17	8	5	4
1913633	PROB	n/a	LTP365	ltpFR2	3	n/a	n/a	n/a	12	14	8	2	4
1915314	PROB	n/a	LTP365	ltpFR2	3	n/a	n/a	n/a	12	16	4	3	9
1917598	PROB	n/a	LTP365	ltpFR2	3	n/a	n/a	n/a	12	14	8	3	3
1919863	PROB	n/a	LTP365	ltpFR2	3	n/a	n/a	n/a	12	18	7	4	7
1921812	PROB	n/a	LTP365	ltpFR2	3	n/a	n/a	n/a	12	20	7	7	6
1923144	STOP	n/a	LTP365	ltpFR2	3	n/a	n/a	n/a	12	n/a	n/a	n/a	n/a
1926160	REC_START	n/a	LTP365	ltpFR2	3	10	n/a	n/a	n/a	n/a	0	0	0
1927580	REC_WORD	wordpools/wasnorm_wordpool_576.txt	LTP365	ltpFR2	3	10	TABLE	1426	n/a	n/a	0	0	0
1928188	REC_WORD	wordpools/wasnorm_wordpool_576.txt	LTP365	ltpFR2	3	10	SUPPER	1411	n/a	n/a	0	0	0
1928950	REC_WORD	wordpools/wasnorm_wordpool_576.txt	LTP365	ltpFR2	3	10	STOVE	1388	n/a	n/a	0	0	0
1929792	REC_WORD	wordpools/wasnorm_wordpool_576.txt	LTP365	ltpFR2	3	10	STREAM	1392	n/a	n/a	0	0	0
1930706	REC_WORD	wordpools/wasnorm_wordpool_576.txt	LTP365	ltpFR2	3	10	TROUT	1511	n/a	n/a	0	0	0
1931644	REC_WORD	wordpools/wasnorm_wordpool_576.txt	LTP365	ltpFR2	3	10	PAIL	1002	n/a	n/a	0	0	0
1932510	REC_WORD	wordpools/wasnorm_wordpool_576.txt	LTP365	ltpFR2	3	10	REBEL	1172	n/a	n/a	0	0	0
1933377	REC_WORD	wordpools/wasnorm_wordpool_576.txt	LTP365	ltpFR2	3	10	LEADER	807	n/a	n/a	0	0	0
1934997	REC_WORD	wordpools/wasnorm_wordpool_576.txt	LTP365	ltpFR2	3	10	UMPIRE	1535	n/a	n/a	0	0	0
1941235	REC_WORD	wordpools/wasnorm_wordpool_576.txt	LTP365	ltpFR2	3	10	BADGE	68	n/a	n/a	0	0	0
1944485	REC_WORD	wordpools/wasnorm_wordpool_576.txt	LTP365	ltpFR2	3	10	PIGEON	1065	n/a	n/a	0	0	0
1946059	REC_WORD	wordpools/wasnorm_wordpool_576.txt	LTP365	ltpFR2	3	10	YOLK	1633	n/a	n/a	0	0	0
1947956	REC_WORD	wordpools/wasnorm_wordpool_576.txt	LTP365	ltpFR2	3	10	JELLY	755	n/a	n/a	0	0	0
1949940	REC_WORD	wordpools/wasnorm_wordpool_576.txt	LTP365	ltpFR2	3	10	BLADE	134	n/a	n/a	0	0	0
1951331	REC_WORD	wordpools/wasnorm_wordpool_576.txt	LTP365	ltpFR2	3	10	SCALPEL	1243	n/a	n/a	0	0	0
1954570	REC_WORD	wordpools/wasnorm_wordpool_576.txt	LTP365	ltpFR2	3	10	SPHINX	1349	n/a	n/a	0	0	0
1962827	REC_WORD	wordpools/wasnorm_wordpool_576.txt	LTP365	ltpFR2	3	10	PLAYGROUND	1087	n/a	n/a	0	0	0
1982123	REC_WORD	wordpools/wasnorm_wordpool_576.txt	LTP365	ltpFR2	3	10	PANTHER	1009	n/a	n/a	0	0	0
1982981	REC_WORD	wordpools/wasnorm_wordpool_576.txt	LTP365	ltpFR2	3	10	LEOPARD	812	n/a	n/a	0	0	0
2016603	WORD	wordpools/wasnorm_wordpool_576.txt	LTP365	ltpFR2	3	11	BEEF	113	n/a	n/a	0	0	0
2019117	WORD	wordpools/wasnorm_wordpool_576.txt	LTP365	ltpFR2	3	11	PEBBLE	1035	n/a	n/a	0	0	0
2021634	WORD	wordpools/wasnorm_wordpool_576.txt	LTP365	ltpFR2	3	11	KIDNEY	776	n/a	n/a	0	0	0
2024416	WORD	wordpools/wasnorm_wordpool_576.txt	LTP365	ltpFR2	3	11	CRITIC	410	n/a	n/a	0	0	0
2027047	WORD	wordpools/wasnorm_wordpool_576.txt	LTP365	ltpFR2	3	11	PORTRAIT	1111	n/a	n/a	0	0	0
2029863	WORD	wordpools/wasnorm_wordpool_576.txt	LTP365	ltpFR2	3	11	SWORD	1423	n/a	n/a	0	0	0
2032362	WORD	wordpools/wasnorm_wordpool_576.txt	LTP365	ltpFR2	3	11	FOREHEAD	592	n/a	n/a	0	0	0
2034960	WORD	wordpools/wasnorm_wordpool_576.txt	LTP365	ltpFR2	3	11	HERO	706	n/a	n/a	0	0	0
2037426	WORD	wordpools/wasnorm_wordpool_576.txt	LTP365	ltpFR2	3	11	THRONE	1461	n/a	n/a	0	0	0
2039891	WORD	wordpools/wasnorm_wordpool_576.txt	LTP365	ltpFR2	3	11	SWIMMER	1420	n/a	n/a	0	0	0
2042657	WORD	wordpools/wasnorm_wordpool_576.txt	LTP365	ltpFR2	3	11	SERVER	1272	n/a	n/a	0	0	0
2045355	WORD	wordpools/wasnorm_wordpool_576.txt	LTP365	ltpFR2	3	11	CHIPMUNK	304	n/a	n/a	0	0	0
2047954	WORD	wordpools/wasnorm_wordpool_576.txt	LTP365	ltpFR2	3	11	POSSUM	1112	n/a	n/a	0	0	0
2050637	WORD	wordpools/wasnorm_wordpool_576.txt	LTP365	ltpFR2	3	11	KNIFE	785	n/a	n/a	0	0	0
2053118	WORD	wordpools/wasnorm_wordpool_576.txt	LTP365	ltpFR2	3	11	MARROW	872	n/a	n/a	0	0	0
2055585	WORD	wordpools/wasnorm_wordpool_576.txt	LTP365	ltpFR2	3	11	EMPIRE	530	n/a	n/a	0	0	0
2058183	WORD	wordpools/wasnorm_wordpool_576.txt	LTP365	ltpFR2	3	11	HAND	683	n/a	n/a	0	0	0
2060649	WORD	wordpools/wasnorm_wordpool_576.txt	LTP365	ltpFR2	3	11	ANKLE	24	n/a	n/a	0	0	0
2063381	WORD	wordpools/wasnorm_wordpool_576.txt	LTP365	ltpFR2	3	11	PRINCESS	1125	n/a	n/a	0	0	0
2065847	WORD	wordpools/wasnorm_wordpool_576.txt	LTP365	ltpFR2	3	11	LOVER	846	n/a	n/a	0	0	0
2068479	WORD	wordpools/wasnorm_wordpool_576.txt	LTP365	ltpFR2	3	11	TRANSPLANT	1496	n/a	n/a	0	0	0
2071177	WORD	wordpools/wasnorm_wordpool_576.txt	LTP365	ltpFR2	3	11	GARBAGE	622	n/a	n/a	0	0	0
2073992	WORD	wordpools/wasnorm_wordpool_576.txt	LTP365	ltpFR2	3	11	PALACE	1006	n/a	n/a	0	0	0
2076609	WORD	wordpools/wasnorm_wordpool_576.txt	LTP365	ltpFR2	3	11	DIME	466	n/a	n/a	0	0	0
2078224	START	n/a	LTP365	ltpFR2	3	n/a	n/a	n/a	13	n/a	n/a	n/a	n/a
2079185	DISTRACTOR	n/a	LTP365	ltpFR2	3	11	n/a	n/a	n/a	n/a	0	0	0
2079190	PROB	n/a	LTP365	ltpFR2	3	n/a	n/a	n/a	13	3	1	1	1
2080390	PROB	n/a	LTP365	ltpFR2	3	n/a	n/a	n/a	13	9	2	2	5
2082238	PROB	n/a	LTP365	ltpFR2	3	n/a	n/a	n/a	13	18	7	4	7
2083839	PROB	n/a	LTP365	ltpFR2	3	n/a	n/a	n/a	13	13	5	5	3
2085087	PROB	n/a	LTP365	ltpFR2	3	n/a	n/a	n/a	13	21	6	6	9
2086871	PROB	n/a	LTP365	ltpFR2	3	n/a	n/a	n/a	13	15	3	5	7
2088470	PROB	n/a	LTP365	ltpFR2	3	n/a	n/a	n/a	13	17	8	4	5
2090419	PROB	n/a	LTP365	ltpFR2	3	n/a	n/a	n/a	13	10	1	1	8
2091852	PROB	n/a	LTP365	ltpFR2	3	n/a	n/a	n/a	13	18	5	1	2
2093784	PROB	n/a	LTP365	ltpFR2	3	n/a	n/a	n/a	13	10	1	8	1
2095417	PROB	n/a	LTP365	ltpFR2	3	n/a	n/a	n/a	13	19	6	9	4
2098649	PROB	n/a	LTP365	ltpFR2	3	n/a	n/a	n/a	13	18	8	5	5
2100214	PROB	n/a	LTP365	ltpFR2	3	n/a	n/a	n/a	13	13	4	6	3
2101550	STOP	n/a	LTP365	ltpFR2	3	n/a	n/a	n/a	13	n/a	n/a	n/a	n/a
2104129	REC_START	n/a	LTP365	ltpFR2	3	11	n/a	n/a	n/a	n/a	0	0	0
2106468	REC_WORD	wordpools/wasnorm_wordpool_576.txt	LTP365	ltpFR2	3	11	THRONE	1461	n/a	n/a	0	0	0
2107329	REC_WORD	wordpools/wasnorm_wordpool_576.txt	LTP365	ltpFR2	3	11	PRINCESS	1125	n/a	n/a	0	0	0
2113351	REC_WORD	wordpools/wasnorm_wordpool_576.txt	LTP365	ltpFR2	3	11	TRANSPLANT	1496	n/a	n/a	0	0	0
2114406	REC_WORD	wordpools/wasnorm_wordpool_576.txt	LTP365	ltpFR2	3	11	LOVER	846	n/a	n/a	0	0	0
2117610	REC_WORD	wordpools/wasnorm_wordpool_576.txt	LTP365	ltpFR2	3	11	BEEF	113	n/a	n/a	0	0	0
2118344	REC_WORD	wordpools/wasnorm_wordpool_576.txt	LTP365	ltpFR2	3	11	PORTRAIT	1111	n/a	n/a	0	0	0
2119323	REC_WORD	wordpools/wasnorm_wordpool_576.txt	LTP365	ltpFR2	3	11	PEBBLE	1035	n/a	n/a	0	0	0
2126111	REC_WORD	wordpools/wasnorm_wordpool_576.txt	LTP365	ltpFR2	3	11	CHIPMUNK	304	n/a	n/a	0	0	0
2127005	REC_WORD	wordpools/wasnorm_wordpool_576.txt	LTP365	ltpFR2	3	11	POSSUM	1112	n/a	n/a	0	0	0
2129004	REC_WORD	wordpools/wasnorm_wordpool_576.txt	LTP365	ltpFR2	3	11	FOREHEAD	592	n/a	n/a	0	0	0
2130225	REC_WORD	wordpools/wasnorm_wordpool_576.txt	LTP365	ltpFR2	3	11	SWORD	1423	n/a	n/a	0	0	0
2134168	REC_WORD	wordpools/wasnorm_wordpool_576.txt	LTP365	ltpFR2	3	11	KNIFE	785	n/a	n/a	0	0	0
2147024	REC_WORD	wordpools/wasnorm_wordpool_576.txt	LTP365	ltpFR2	3	11	MARROW	872	n/a	n/a	0	0	0
2149875	REC_WORD	wordpools/wasnorm_wordpool_576.txt	LTP365	ltpFR2	3	11	EMPIRE	530	n/a	n/a	0	0	0
2174426	REC_WORD	wordpools/wasnorm_wordpool_576.txt	LTP365	ltpFR2	3	11	HAND	683	n/a	n/a	0	0	0
2194555	DISTRACTOR	n/a	LTP365	ltpFR2	3	12	n/a	n/a	n/a	n/a	0	0	0
2194555	START	n/a	LTP365	ltpFR2	3	n/a	n/a	n/a	14	n/a	n/a	n/a	n/a
2194572	PROB	n/a	LTP365	ltpFR2	3	n/a	n/a	n/a	14	20	7	4	9
2196337	PROB	n/a	LTP365	ltpFR2	3	n/a	n/a	n/a	14	17	9	6	2
2198420	PROB	n/a	LTP365	ltpFR2	3	n/a	n/a	n/a	14	13	6	3	4
2200168	PROB	n/a	LTP365	ltpFR2	3	n/a	n/a	n/a	14	7	1	2	4
2202368	PROB	n/a	LTP365	ltpFR2	3	n/a	n/a	n/a	14	18	9	6	3
2204350	PROB	n/a	LTP365	ltpFR2	3	n/a	n/a	n/a	14	15	6	6	3
2206165	PROB	n/a	LTP365	ltpFR2	3	n/a	n/a	n/a	14	19	4	6	9
2207998	PROB	n/a	LTP365	ltpFR2	3	n/a	n/a	n/a	14	19	9	9	1
2209615	PROB	n/a	LTP365	ltpFR2	3	n/a	n/a	n/a	14	19	8	5	6
2212079	PROB	n/a	LTP365	ltpFR2	3	n/a	n/a	n/a	14	14	1	9	4
2213563	PROB	n/a	LTP365	ltpFR2	3	n/a	n/a	n/a	14	23	8	9	6
2215512	PROB	n/a	LTP365	ltpFR2	3	n/a	n/a	n/a	14	19	7	7	5
2217041	STOP	n/a	LTP365	ltpFR2	3	n/a	n/a	n/a	14	n/a	n/a	n/a	n/a
2219560	WORD	wordpools/wasnorm_wordpool_576.txt	LTP365	ltpFR2	3	12	LETTUCE	814	n/a	n/a	0	0	0
2222008	WORD	wordpools/wasnorm_wordpool_576.txt	LTP365	ltpFR2	3	12	BLOCKADE	137	n/a	n/a	0	0	0
2224691	WORD	wordpools/wasnorm_wordpool_576.txt	LTP365	ltpFR2	3	12	BACKBONE	66	n/a	n/a	0	0	0
2227223	WORD	wordpools/wasnorm_wordpool_576.txt	LTP365	ltpFR2	3	12	KITCHEN	778	n/a	n/a	0	0	0
2229706	WORD	wordpools/wasnorm_wordpool_576.txt	LTP365	ltpFR2	3	12	SKILLET	1317	n/a	n/a	0	0	0
2232405	WORD	wordpools/wasnorm_wordpool_576.txt	LTP365	ltpFR2	3	12	FEMALE	559	n/a	n/a	0	0	0
2235102	WORD	wordpools/wasnorm_wordpool_576.txt	LTP365	ltpFR2	3	12	POLICE	1098	n/a	n/a	0	0	0
2237719	WORD	wordpools/wasnorm_wordpool_576.txt	LTP365	ltpFR2	3	12	PRIMATE	1123	n/a	n/a	0	0	0
2240518	WORD	wordpools/wasnorm_wordpool_576.txt	LTP365	ltpFR2	3	12	BURGLAR	200	n/a	n/a	0	0	0
2243249	WORD	wordpools/wasnorm_wordpool_576.txt	LTP365	ltpFR2	3	12	GLOBE	641	n/a	n/a	0	0	0
2245732	WORD	wordpools/wasnorm_wordpool_576.txt	LTP365	ltpFR2	3	12	SHELTER	1282	n/a	n/a	0	0	0
2248163	WORD	wordpools/wasnorm_wordpool_576.txt	LTP365	ltpFR2	3	12	MONEY	908	n/a	n/a	0	0	0
2250895	WORD	wordpools/wasnorm_wordpool_576.txt	LTP365	ltpFR2	3	12	VELVET	1555	n/a	n/a	0	0	0
2253462	WORD	wordpools/wasnorm_wordpool_576.txt	LTP365	ltpFR2	3	12	SILK	1307	n/a	n/a	0	0	0
2256093	WORD	wordpools/wasnorm_wordpool_576.txt	LTP365	ltpFR2	3	12	POSTAGE	1113	n/a	n/a	0	0	0
2258609	WORD	wordpools/wasnorm_wordpool_576.txt	LTP365	ltpFR2	3	12	BOX	159	n/a	n/a	0	0	0
2261190	WORD	wordpools/wasnorm_wordpool_576.txt	LTP365	ltpFR2	3	12	CABBAGE	210	n/a	n/a	0	0	0
2263724	WORD	wordpools/wasnorm_wordpool_576.txt	LTP365	ltpFR2	3	12	SHERIFF	1284	n/a	n/a	0	0	0
2266272	WORD	wordpools/wasnorm_wordpool_576.txt	LTP365	ltpFR2	3	12	MISSILE	900	n/a	n/a	0	0	0
2269070	WORD	wordpools/wasnorm_wordpool_576.txt	LTP365	ltpFR2	3	12	VIRUS	1572	n/a	n/a	0	0	0
2271803	WORD	wordpools/wasnorm_wordpool_576.txt	LTP365	ltpFR2	3	12	STICKER	1382	n/a	n/a	0	0	0
2274602	WORD	wordpools/wasnorm_wordpool_576.txt	LTP365	ltpFR2	3	12	TWEEZERS	1526	n/a	n/a	0	0	0
2277133	WORD	wordpools/wasnorm_wordpool_576.txt	LTP365	ltpFR2	3	12	WASP	1593	n/a	n/a	0	0	0
2279899	WORD	wordpools/wasnorm_wordpool_576.txt	LTP365	ltpFR2	3	12	ROCKET	1202	n/a	n/a	0	0	0
2281516	START	n/a	LTP365	ltpFR2	3	n/a	n/a	n/a	15	n/a	n/a	n/a	n/a
2282347	DISTRACTOR	n/a	LTP365	ltpFR2	3	12	n/a	n/a	n/a	n/a	0	0	0
2282365	PROB	n/a	LTP365	ltpFR2	3	n/a	n/a	n/a	15	13	3	8	2
2283930	PROB	n/a	LTP365	ltpFR2	3	n/a	n/a	n/a	15	11	5	3	3
2286196	PROB	n/a	LTP365	ltpFR2	3	n/a	n/a	n/a	15	11	4	1	6
2287580	PROB	n/a	LTP365	ltpFR2	3	n/a	n/a	n/a	15	22	7	6	9
2289812	PROB	n/a	LTP365	ltpFR2	3	n/a	n/a	n/a	15	20	7	6	7
2293009	PROB	n/a	LTP365	ltpFR2	3	n/a	n/a	n/a	15	12	1	6	5
2294610	PROB	n/a	LTP365	ltpFR2	3	n/a	n/a	n/a	15	22	7	6	9
2296924	PROB	n/a	LTP365	ltpFR2	3	n/a	n/a	n/a	15	18	7	3	8
2298741	PROB	n/a	LTP365	ltpFR2	3	n/a	n/a	n/a	15	19	6	6	7
2300440	PROB	n/a	LTP365	ltpFR2	3	n/a	n/a	n/a	15	12	3	6	3
2302639	PROB	n/a	LTP365	ltpFR2	3	n/a	n/a	n/a	15	22	6	7	9
2305027	STOP	n/a	LTP365	ltpFR2	3	n/a	n/a	n/a	15	n/a	n/a	n/a	n/a
2307421	REC_START	n/a	LTP365	ltpFR2	3	12	n/a	n/a	n/a	n/a	0	0	0
2310784	REC_WORD	wordpools/wasnorm_wordpool_576.txt	LTP365	ltpFR2	3	12	POLICE	1098	n/a	n/a	0	0	0
2311518	REC_WORD	wordpools/wasnorm_wordpool_576.txt	LTP365	ltpFR2	3	12	BLOCKADE	137	n/a	n/a	0	0	0
2312240	REC_WORD	wordpools/wasnorm_wordpool_576.txt	LTP365	ltpFR2	3	12	LETTUCE	814	n/a	n/a	0	0	0
2313063	REC_WORD	wordpools/wasnorm_wordpool_576.txt	LTP365	ltpFR2	3	12	CABBAGE	210	n/a	n/a	0	0	0
2314139	REC_WORD	wordpools/wasnorm_wordpool_576.txt	LTP365	ltpFR2	3	12	BACKBONE	66	n/a	n/a	0	0	0
2314954	REC_WORD	wordpools/wasnorm_wordpool_576.txt	LTP365	ltpFR2	3	12	SKILLET	1317	n/a	n/a	0	0	0
2315995	REC_WORD	wordpools/wasnorm_wordpool_576.txt	LTP365	ltpFR2	3	12	KITCHEN	778	n/a	n/a	0	0	0
2316679	REC_WORD	wordpools/wasnorm_wordpool_576.txt	LTP365	ltpFR2	3	12	SHELTER	1282	n/a	n/a	0	0	0
2319620	REC_WORD	wordpools/wasnorm_wordpool_576.txt	LTP365	ltpFR2	3	12	ROBBER	1197	n/a	n/a	0	0	0
2320526	REC_WORD	wordpools/wasnorm_wordpool_576.txt	LTP365	ltpFR2	3	12	MISSILE	900	n/a	n/a	0	0	0
2321384	REC_WORD	wordpools/wasnorm_wordpool_576.txt	LTP365	ltpFR2	3	12	ROCKET	1202	n/a	n/a	0	0	0
2322576	REC_WORD	wordpools/wasnorm_wordpool_576.txt	LTP365	ltpFR2	3	12	BOX	159	n/a	n/a	0	0	0
2326135	REC_WORD	wordpools/wasnorm_wordpool_576.txt	LTP365	ltpFR2	3	12	TWEEZERS	1526	n/a	n/a	0	0	0
2339295	REC_WORD	wordpools/wasnorm_wordpool_576.txt	LTP365	ltpFR2	3	12	PRIMATE	1123	n/a	n/a	0	0	0
2341464	REC_WORD	wordpools/wasnorm_wordpool_576.txt	LTP365	ltpFR2	3	12	FEMALE	559	n/a	n/a	0	0	0
2397895	WORD	wordpools/wasnorm_wordpool_576.txt	LTP365	ltpFR2	3	13	COUCH	386	n/a	n/a	0	0	0
2400595	WORD	wordpools/wasnorm_wordpool_576.txt	LTP365	ltpFR2	3	13	BASEMENT	94	n/a	n/a	0	0	0
2403377	WORD	wordpools/wasnorm_wordpool_576.txt	LTP365	ltpFR2	3	13	MISTER	901	n/a	n/a	0	0	0
2405908	WORD	wordpools/wasnorm_wordpool_576.txt	LTP365	ltpFR2	3	13	CARROT	249	n/a	n/a	0	0	0
2408708	WORD	wordpools/wasnorm_wordpool_576.txt	LTP365	ltpFR2	3	13	ORANGE	980	n/a	n/a	0	0	0
2411457	WORD	wordpools/wasnorm_wordpool_576.txt	LTP365	ltpFR2	3	13	OINTMENT	974	n/a	n/a	0	0	0
2414105	WORD	wordpools/wasnorm_wordpool_576.txt	LTP365	ltpFR2	3	13	WHISKERS	1605	n/a	n/a	0	0	0
2416804	WORD	wordpools/wasnorm_wordpool_576.txt	LTP365	ltpFR2	3	13	BRANCH	168	n/a	n/a	0	0	0
2419386	WORD	wordpools/wasnorm_wordpool_576.txt	LTP365	ltpFR2	3	13	MATCH	878	n/a	n/a	0	0	0
2421884	WORD	wordpools/wasnorm_wordpool_576.txt	LTP365	ltpFR2	3	13	ARMY	39	n/a	n/a	0	0	0
2424617	WORD	wordpools/wasnorm_wordpool_576.txt	LTP365	ltpFR2	3	13	WORKER	1621	n/a	n/a	0	0	0
2427082	WORD	wordpools/wasnorm_wordpool_576.txt	LTP365	ltpFR2	3	13	BREAST	171	n/a	n/a	0	0	0
2429782	WORD	wordpools/wasnorm_wordpool_576.txt	LTP365	ltpFR2	3	13	GRIZZLY	662	n/a	n/a	0	0	0
2432597	WORD	wordpools/wasnorm_wordpool_576.txt	LTP365	ltpFR2	3	13	TORTOISE	1486	n/a	n/a	0	0	0
2435162	WORD	wordpools/wasnorm_wordpool_576.txt	LTP365	ltpFR2	3	13	FOX	598	n/a	n/a	0	0	0
2437645	WORD	wordpools/wasnorm_wordpool_576.txt	LTP365	ltpFR2	3	13	DRESS	495	n/a	n/a	0	0	0
2440427	WORD	wordpools/wasnorm_wordpool_576.txt	LTP365	ltpFR2	3	13	HOSTESS	723	n/a	n/a	0	0	0
2443158	WORD	wordpools/wasnorm_wordpool_576.txt	LTP365	ltpFR2	3	13	PISTOL	1075	n/a	n/a	0	0	0
2445824	WORD	wordpools/wasnorm_wordpool_576.txt	LTP365	ltpFR2	3	13	BULLET	194	n/a	n/a	0	0	0
2448606	WORD	wordpools/wasnorm_wordpool_576.txt	LTP365	ltpFR2	3	13	MAPLE	866	n/a	n/a	0	0	0
2451138	WORD	wordpools/wasnorm_wordpool_576.txt	LTP365	ltpFR2	3	13	PIZZA	1079	n/a	n/a	0	0	0
2453787	WORD	wordpools/wasnorm_wordpool_576.txt	LTP365	ltpFR2	3	13	SUSPECT	1415	n/a	n/a	0	0	0
2456536	WORD	wordpools/wasnorm_wordpool_576.txt	LTP365	ltpFR2	3	13	RACKET	1155	n/a	n/a	0	0	0
2459334	WORD	wordpools/wasnorm_wordpool_576.txt	LTP365	ltpFR2	3	13	FIREMAN	569	n/a	n/a	0	0	0
2460950	START	n/a	LTP365	ltpFR2	3	n/a	n/a	n/a	16	n/a	n/a	n/a	n/a
2461804	DISTRACTOR	n/a	LTP365	ltpFR2	3	13	n/a	n/a	n/a	n/a	0	0	0
2461817	PROB	n/a	LTP365	ltpFR2	3	n/a	n/a	n/a	16	11	1	3	7
2463182	PROB	n/a	LTP365	ltpFR2	3	n/a	n/a	n/a	16	7	4	2	1
2464816	PROB	n/a	LTP365	ltpFR2	3	n/a	n/a	n/a	16	21	9	9	3
2466682	PROB	n/a	LTP365	ltpFR2	3	n/a	n/a	n/a	16	18	9	6	3
2470563	PROB	n/a	LTP365	ltpFR2	3	n/a	n/a	n/a	16	15	2	7	6
2472612	PROB	n/a	LTP365	ltpFR2	3	n/a	n/a	n/a	16	15	1	7	7
2473845	PROB	n/a	LTP365	ltpFR2	3	n/a	n/a	n/a	16	14	4	5	5
2475293	PROB	n/a	LTP365	ltpFR2	3	n/a	n/a	n/a	16	13	2	4	7
2477109	PROB	n/a	LTP365	ltpFR2	3	n/a	n/a	n/a	16	14	4	5	5
2478709	PROB	n/a	LTP365	ltpFR2	3	n/a	n/a	n/a	16	5	1	1	3
2479941	PROB	n/a	LTP365	ltpFR2	3	n/a	n/a	n/a	16	21	9	8	4
2482240	PROB	n/a	LTP365	ltpFR2	3	n/a	n/a	n/a	16	14	1	9	4
2483642	STOP	n/a	LTP365	ltpFR2	3	n/a	n/a	n/a	16	n/a	n/a	n/a	n/a
2486840	REC_START	n/a	LTP365	ltpFR2	3	13	n/a	n/a	n/a	n/a	0	0	0
2490163	REC_WORD	wordpools/wasnorm_wordpool_576.txt	LTP365	ltpFR2	3	13	ARMY	39	n/a	n/a	0	0	0
2491511	REC_WORD	wordpools/wasnorm_wordpool_576.txt	LTP365	ltpFR2	3	13	BREAST	171	n/a	n/a	0	0	0
2492574	REC_WORD	wordpools/wasnorm_wordpool_576.txt	LTP365	ltpFR2	3	13	RACKET	1155	n/a	n/a	0	0	0
2493843	REC_WORD	wordpools/wasnorm_wordpool_576.txt	LTP365	ltpFR2	3	13	PISTOL	1075	n/a	n/a	0	0	0
2495039	REC_WORD	wordpools/wasnorm_wordpool_576.txt	LTP365	ltpFR2	3	13	BULLET	194	n/a	n/a	0	0	0
2496287	REC_WORD	wordpools/wasnorm_wordpool_576.txt	LTP365	ltpFR2	3	13	BASEMENT	94	n/a	n/a	0	0	0
2497493	REC_WORD	wordpools/wasnorm_wordpool_576.txt	LTP365	ltpFR2	3	13	MISTER	901	n/a	n/a	0	0	0
2498677	REC_WORD	wordpools/wasnorm_wordpool_576.txt	LTP365	ltpFR2	3	13	CARROT	249	n/a	n/a	0	0	0
2500066	REC_WORD	wordpools/wasnorm_wordpool_576.txt	LTP365	ltpFR2	3	13	ORANGE	980	n/a	n/a	0	0	0
2501211	REC_WORD	wordpools/wasnorm_wordpool_576.txt	LTP365	ltpFR2	3	13	COUCH	386	n/a	n/a	0	0	0
2502488	REC_WORD	wordpools/wasnorm_wordpool_576.txt	LTP365	ltpFR2	3	13	MATCH	878	n/a	n/a	0	0	0
2504978	REC_WORD	wordpools/wasnorm_wordpool_576.txt	LTP365	ltpFR2	3	13	GRIZZLY	662	n/a	n/a	0	0	0
2510950	REC_WORD	wordpools/wasnorm_wordpool_576.txt	LTP365	ltpFR2	3	13	WORKER	1621	n/a	n/a	0	0	0
2517089	REC_WORD	wordpools/wasnorm_wordpool_576.txt	LTP365	ltpFR2	3	13	HOSTESS	723	n/a	n/a	0	0	0
2528368	REC_WORD	wordpools/wasnorm_wordpool_576.txt	LTP365	ltpFR2	3	13	PIZZA	1079	n/a	n/a	0	0	0
2554173	REC_WORD	wordpools/wasnorm_wordpool_576.txt	LTP365	ltpFR2	3	13	OINTMENT	974	n/a	n/a	0	0	0
2554881	REC_WORD	wordpools/wasnorm_wordpool_576.txt	LTP365	ltpFR2	3	13	WHISKERS	1605	n/a	n/a	0	0	0
2577280	DISTRACTOR	n/a	LTP365	ltpFR2	3	14	n/a	n/a	n/a	n/a	0	0	0
2577281	START	n/a	LTP365	ltpFR2	3	n/a	n/a	n/a	17	n/a	n/a	n/a	n/a
2577297	PROB	n/a	LTP365	ltpFR2	3	n/a	n/a	n/a	17	15	4	2	9
2579880	PROB	n/a	LTP365	ltpFR2	3	n/a	n/a	n/a	17	15	7	5	3
2581513	PROB	n/a	LTP365	ltpFR2	3	n/a	n/a	n/a	17	13	1	4	8
2584144	PROB	n/a	LTP365	ltpFR2	3	n/a	n/a	n/a	17	13	7	5	1
2586394	PROB	n/a	LTP365	ltpFR2	3	n/a	n/a	n/a	17	14	5	8	1
2588892	PROB	n/a	LTP365	ltpFR2	3	n/a	n/a	n/a	17	18	4	6	8
2590291	PROB	n/a	LTP365	ltpFR2	3	n/a	n/a	n/a	17	4	1	1	2
2591475	PROB	n/a	LTP365	ltpFR2	3	n/a	n/a	n/a	17	10	6	3	1
2592774	PROB	n/a	LTP365	ltpFR2	3	n/a	n/a	n/a	17	15	5	9	1
2593989	PROB	n/a	LTP365	ltpFR2	3	n/a	n/a	n/a	17	14	1	9	4
2595239	PROB	n/a	LTP365	ltpFR2	3	n/a	n/a	n/a	17	7	1	3	3
2596523	PROB	n/a	LTP365	ltpFR2	3	n/a	n/a	n/a	17	16	4	9	3
2598805	PROB	n/a	LTP365	ltpFR2	3	n/a	n/a	n/a	17	15	4	6	5
2601100	STOP	n/a	LTP365	ltpFR2	3	n/a	n/a	n/a	17	n/a	n/a	n/a	n/a
2602119	WORD	wordpools/wasnorm_wordpool_576.txt	LTP365	ltpFR2	3	14	BROOK	177	n/a	n/a	0	0	0
2604918	WORD	wordpools/wasnorm_wordpool_576.txt	LTP365	ltpFR2	3	14	LADY	794	n/a	n/a	0	0	0
2607618	WORD	wordpools/wasnorm_wordpool_576.txt	LTP365	ltpFR2	3	14	FIDDLE	561	n/a	n/a	0	0	0
2610249	WORD	wordpools/wasnorm_wordpool_576.txt	LTP365	ltpFR2	3	14	PIANO	1057	n/a	n/a	0	0	0
2612865	WORD	wordpools/wasnorm_wordpool_576.txt	LTP365	ltpFR2	3	14	DRAWING	494	n/a	n/a	0	0	0
2615547	WORD	wordpools/wasnorm_wordpool_576.txt	LTP365	ltpFR2	3	14	STALLION	1369	n/a	n/a	0	0	0
2618145	WORD	wordpools/wasnorm_wordpool_576.txt	LTP365	ltpFR2	3	14	BALLOON	75	n/a	n/a	0	0	0
2620762	WORD	wordpools/wasnorm_wordpool_576.txt	LTP365	ltpFR2	3	14	OMELET	976	n/a	n/a	0	0	0
2623544	WORD	wordpools/wasnorm_wordpool_576.txt	LTP365	ltpFR2	3	14	STOMACH	1384	n/a	n/a	0	0	0
2625992	WORD	wordpools/wasnorm_wordpool_576.txt	LTP365	ltpFR2	3	14	MARS	873	n/a	n/a	0	0	0
2628608	WORD	wordpools/wasnorm_wordpool_576.txt	LTP365	ltpFR2	3	14	WIFE	1609	n/a	n/a	0	0	0
2631373	WORD	wordpools/wasnorm_wordpool_576.txt	LTP365	ltpFR2	3	14	SWAMP	1416	n/a	n/a	0	0	0
2634105	WORD	wordpools/wasnorm_wordpool_576.txt	LTP365	ltpFR2	3	14	DONKEY	484	n/a	n/a	0	0	0
2636738	WORD	wordpools/wasnorm_wordpool_576.txt	LTP365	ltpFR2	3	14	CARRIAGE	248	n/a	n/a	0	0	0
2639302	WORD	wordpools/wasnorm_wordpool_576.txt	LTP365	ltpFR2	3	14	ZEBRA	1635	n/a	n/a	0	0	0
2641735	WORD	wordpools/wasnorm_wordpool_576.txt	LTP365	ltpFR2	3	14	SUITCASE	1403	n/a	n/a	0	0	0
2644233	WORD	wordpools/wasnorm_wordpool_576.txt	LTP365	ltpFR2	3	14	PASTA	1021	n/a	n/a	0	0	0
2646949	WORD	wordpools/wasnorm_wordpool_576.txt	LTP365	ltpFR2	3	14	RUG	1215	n/a	n/a	0	0	0
2649515	WORD	wordpools/wasnorm_wordpool_576.txt	LTP365	ltpFR2	3	14	PUPPY	1144	n/a	n/a	0	0	0
2652180	WORD	wordpools/wasnorm_wordpool_576.txt	LTP365	ltpFR2	3	14	MACHINE	852	n/a	n/a	0	0	0
2654929	WORD	wordpools/wasnorm_wordpool_576.txt	LTP365	ltpFR2	3	14	LIZARD	834	n/a	n/a	0	0	0
2657545	WORD	wordpools/wasnorm_wordpool_576.txt	LTP365	ltpFR2	3	14	SKIRT	1319	n/a	n/a	0	0	0
2660293	WORD	wordpools/wasnorm_wordpool_576.txt	LTP365	ltpFR2	3	14	FRAME	600	n/a	n/a	0	0	0
2662991	WORD	wordpools/wasnorm_wordpool_576.txt	LTP365	ltpFR2	3	14	DRILL	497	n/a	n/a	0	0	0
2664592	START	n/a	LTP365	ltpFR2	3	n/a	n/a	n/a	18	n/a	n/a	n/a	n/a
2665746	DISTRACTOR	n/a	LTP365	ltpFR2	3	14	n/a	n/a	n/a	n/a	0	0	0
2665758	PROB	n/a	LTP365	ltpFR2	3	n/a	n/a	n/a	18	17	2	8	7
2667357	PROB	n/a	LTP365	ltpFR2	3	n/a	n/a	n/a	18	8	2	4	4
2669440	PROB	n/a	LTP365	ltpFR2	3	n/a	n/a	n/a	18	17	9	2	6
2671872	PROB	n/a	LTP365	ltpFR2	3	n/a	n/a	n/a	18	10	6	3	1
2673170	PROB	n/a	LTP365	ltpFR2	3	n/a	n/a	n/a	18	17	5	6	6
2674687	PROB	n/a	LTP365	ltpFR2	3	n/a	n/a	n/a	18	15	3	3	9
2676753	PROB	n/a	LTP365	ltpFR2	3	n/a	n/a	n/a	18	14	4	4	6
2678151	PROB	n/a	LTP365	ltpFR2	3	n/a	n/a	n/a	18	13	1	3	9
2680034	PROB	n/a	LTP365	ltpFR2	3	n/a	n/a	n/a	18	16	5	4	7
2682750	PROB	n/a	LTP365	ltpFR2	3	n/a	n/a	n/a	18	15	4	5	6
2684032	PROB	n/a	LTP365	ltpFR2	3	n/a	n/a	n/a	18	11	3	4	4
2686382	PROB	n/a	LTP365	ltpFR2	3	n/a	n/a	n/a	18	14	6	1	7
2688031	STOP	n/a	LTP365	ltpFR2	3	n/a	n/a	n/a	18	n/a	n/a	n/a	n/a
2690381	REC_START	n/a	LTP365	ltpFR2	3	14	n/a	n/a	n/a	n/a	0	0	0
2691524	REC_WORD	wordpools/wasnorm_wordpool_576.txt	LTP365	ltpFR2	3	14	BROOK	177	n/a	n/a	0	0	0
2693425	REC_WORD	wordpools/wasnorm_wordpool_576.txt	LTP365	ltpFR2	3	14	SWAMP	1416	n/a	n/a	0	0	0
2694208	REC_WORD	wordpools/wasnorm_wordpool_576.txt	LTP365	ltpFR2	3	14	STALLION	1369	n/a	n/a	0	0	0
2695225	REC_WORD	wordpools/wasnorm_wordpool_576.txt	LTP365	ltpFR2	3	14	DONKEY	484	n/a	n/a	0	0	0
2695769	REC_WORD	wordpools/wasnorm_wordpool_576.txt	LTP365	ltpFR2	3	14	ZEBRA	1635	n/a	n/a	0	0	0
2705907	REC_WORD	wordpools/wasnorm_wordpool_576.txt	LTP365	ltpFR2	3	14	SUITCASE	1403	n/a	n/a	0	0	0
2706990	REC_WORD	wordpools/wasnorm_wordpool_576.txt	LTP365	ltpFR2	3	14	BRIEFCASE	175	n/a	n/a	0	0	0
2708134	REC_WORD	wordpools/wasnorm_wordpool_576.txt	LTP365	ltpFR2	3	14	PASTA	1021	n/a	n/a	0	0	0
2709208	REC_WORD	wordpools/wasnorm_wordpool_576.txt	LTP365	ltpFR2	3	14	LADY	794	n/a	n/a	0	0	0
2710127	REC_WORD	wordpools/wasnorm_wordpool_576.txt	LTP365	ltpFR2	3	14	WIFE	1609	n/a	n/a	0	0	0
2711073	REC_WORD	wordpools/wasnorm_wordpool_576.txt	LTP365	ltpFR2	3	14	LIZARD	834	n/a	n/a	0	0	0
2728394	REC_WORD	wordpools/wasnorm_wordpool_576.txt	LTP365	ltpFR2	3	14	DRAWING	494	n/a	n/a	0	0	0
2731544	REC_WORD	wordpools/wasnorm_wordpool_576.txt	LTP365	ltpFR2	3	14	FRAME	600	n/a	n/a	0	0	0
2732793	REC_WORD	wordpools/wasnorm_wordpool_576.txt	LTP365	ltpFR2	3	14	DRILL	497	n/a	n/a	0	0	0
2740528	REC_WORD	wordpools/wasnorm_wordpool_576.txt	LTP365	ltpFR2	3	14	EAGLE	512	n/a	n/a	0	0	0
2758522	REC_WORD	wordpools/wasnorm_wordpool_576.txt	LTP365	ltpFR2	3	14	PIANO	1057	n/a	n/a	0	0	0
2763498	REC_WORD	wordpools/wasnorm_wordpool_576.txt	LTP365	ltpFR2	3	14	FIDDLE	561	n/a	n/a	0	0	0
2780806	DISTRACTOR	n/a	LTP365	ltpFR2	3	15	n/a	n/a	n/a	n/a	0	0	0
2780806	START	n/a	LTP365	ltpFR2	3	n/a	n/a	n/a	19	n/a	n/a	n/a	n/a
2780822	PROB	n/a	LTP365	ltpFR2	3	n/a	n/a	n/a	19	17	8	1	8
2782588	PROB	n/a	LTP365	ltpFR2	3	n/a	n/a	n/a	19	10	2	7	1
2784087	PROB	n/a	LTP365	ltpFR2	3	n/a	n/a	n/a	19	11	2	2	7
2785370	PROB	n/a	LTP365	ltpFR2	3	n/a	n/a	n/a	19	18	8	8	2
2786520	PROB	n/a	LTP365	ltpFR2	3	n/a	n/a	n/a	19	16	5	6	5
2788285	PROB	n/a	LTP365	ltpFR2	3	n/a	n/a	n/a	19	13	5	6	2
2790084	PROB	n/a	LTP365	ltpFR2	3	n/a	n/a	n/a	19	17	6	2	9
2791966	PROB	n/a	LTP365	ltpFR2	3	n/a	n/a	n/a	19	14	9	4	1
2793232	PROB	n/a	LTP365	ltpFR2	3	n/a	n/a	n/a	19	19	9	2	8
2794799	PROB	n/a	LTP365	ltpFR2	3	n/a	n/a	n/a	19	17	8	6	3
2796897	PROB	n/a	LTP365	ltpFR2	3	n/a	n/a	n/a	19	13	6	1	6
2798848	PROB	n/a	LTP365	ltpFR2	3	n/a	n/a	n/a	19	14	7	3	4
2799996	PROB	n/a	LTP365	ltpFR2	3	n/a	n/a	n/a	19	16	4	5	7
2802961	PROB	n/a	LTP365	ltpFR2	3	n/a	n/a	n/a	19	12	4	7	1
2804627	STOP	n/a	LTP365	ltpFR2	3	n/a	n/a	n/a	19	n/a	n/a	n/a	n/a
2805728	WORD	wordpools/wasnorm_wordpool_576.txt	LTP365	ltpFR2	3	15	GANGSTER	620	n/a	n/a	0	0	0
2808493	WORD	wordpools/wasnorm_wordpool_576.txt	LTP365	ltpFR2	3	15	TEMPLE	1448	n/a	n/a	0	0	0
2810941	WORD	wordpools/wasnorm_wordpool_576.txt	LTP365	ltpFR2	3	15	RIVER	1194	n/a	n/a	0	0	0
2813574	WORD	wordpools/wasnorm_wordpool_576.txt	LTP365	ltpFR2	3	15	HUSBAND	728	n/a	n/a	0	0	0
2816272	WORD	wordpools/wasnorm_wordpool_576.txt	LTP365	ltpFR2	3	15	FRECKLE	602	n/a	n/a	0	0	0
2819037	WORD	wordpools/wasnorm_wordpool_576.txt	LTP365	ltpFR2	3	15	BIKE	125	n/a	n/a	0	0	0
2821854	WORD	wordpools/wasnorm_wordpool_576.txt	LTP365	ltpFR2	3	15	HATCHET	691	n/a	n/a	0	0	0
2824569	WORD	wordpools/wasnorm_wordpool_576.txt	LTP365	ltpFR2	3	15	TYPIST	1532	n/a	n/a	0	0	0
2827000	WORD	wordpools/wasnorm_wordpool_576.txt	LTP365	ltpFR2	3	15	DRIVER	499	n/a	n/a	0	0	0
2829784	WORD	wordpools/wasnorm_wordpool_576.txt	LTP365	ltpFR2	3	15	PIMPLE	1071	n/a	n/a	0	0	0
2832565	WORD	wordpools/wasnorm_wordpool_576.txt	LTP365	ltpFR2	3	15	APPLE	33	n/a	n/a	0	0	0
2834997	WORD	wordpools/wasnorm_wordpool_576.txt	LTP365	ltpFR2	3	15	BOARD	143	n/a	n/a	0	0	0
2837447	WORD	wordpools/wasnorm_wordpool_576.txt	LTP365	ltpFR2	3	15	LUMBER	848	n/a	n/a	0	0	0
2839945	WORD	wordpools/wasnorm_wordpool_576.txt	LTP365	ltpFR2	3	15	SPOUSE	1358	n/a	n/a	0	0	0
2842428	WORD	wordpools/wasnorm_wordpool_576.txt	LTP365	ltpFR2	3	15	TOASTER	1472	n/a	n/a	0	0	0
2845192	WORD	wordpools/wasnorm_wordpool_576.txt	LTP365	ltpFR2	3	15	ICEBERG	731	n/a	n/a	0	0	0
2847725	WORD	wordpools/wasnorm_wordpool_576.txt	LTP365	ltpFR2	3	15	SCARF	1246	n/a	n/a	0	0	0
2850441	WORD	wordpools/wasnorm_wordpool_576.txt	LTP365	ltpFR2	3	15	DANCER	437	n/a	n/a	0	0	0
2852972	WORD	wordpools/wasnorm_wordpool_576.txt	LTP365	ltpFR2	3	15	SPIDER	1351	n/a	n/a	0	0	0
2855772	WORD	wordpools/wasnorm_wordpool_576.txt	LTP365	ltpFR2	3	15	JUGGLER	763	n/a	n/a	0	0	0
2858454	WORD	wordpools/wasnorm_wordpool_576.txt	LTP365	ltpFR2	3	15	SLUG	1329	n/a	n/a	0	0	0
2861235	WORD	wordpools/wasnorm_wordpool_576.txt	LTP365	ltpFR2	3	15	TURTLE	1522	n/a	n/a	0	0	0
2863984	WORD	wordpools/wasnorm_wordpool_576.txt	LTP365	ltpFR2	3	15	TWIG	1527	n/a	n/a	0	0	0
2866517	WORD	wordpools/wasnorm_wordpool_576.txt	LTP365	ltpFR2	3	15	PUDDLE	1140	n/a	n/a	0	0	0
2868132	START	n/a	LTP365	ltpFR2	3	n/a	n/a	n/a	20	n/a	n/a	n/a	n/a
2868957	DISTRACTOR	n/a	LTP365	ltpFR2	3	15	n/a	n/a	n/a	n/a	0	0	0
2868965	PROB	n/a	LTP365	ltpFR2	3	n/a	n/a	n/a	20	12	1	2	9
2870732	PROB	n/a	LTP365	ltpFR2	3	n/a	n/a	n/a	20	12	1	6	5
2872113	PROB	n/a	LTP365	ltpFR2	3	n/a	n/a	n/a	20	22	7	9	6
2877094	PROB	n/a	LTP365	ltpFR2	3	n/a	n/a	n/a	20	18	6	8	4
2879260	PROB	n/a	LTP365	ltpFR2	3	n/a	n/a	n/a	20	14	4	4	6
2880893	PROB	n/a	LTP365	ltpFR2	3	n/a	n/a	n/a	20	5	2	2	1
2883341	PROB	n/a	LTP365	ltpFR2	3	n/a	n/a	n/a	20	18	8	1	9
2884792	PROB	n/a	LTP365	ltpFR2	3	n/a	n/a	n/a	20	8	4	3	1
2886408	PROB	n/a	LTP365	ltpFR2	3	n/a	n/a	n/a	20	14	1	7	6
2888239	PROB	n/a	LTP365	ltpFR2	3	n/a	n/a	n/a	20	15	8	5	2
2889972	PROB	n/a	LTP365	ltpFR2	3	n/a	n/a	n/a	20	18	9	3	6
2891854	STOP	n/a	LTP365	ltpFR2	3	n/a	n/a	n/a	20	n/a	n/a	n/a	n/a
2893937	REC_START	n/a	LTP365	ltpFR2	3	15	n/a	n/a	n/a	n/a	0	0	0
2894482	REC_WORD	wordpools/wasnorm_wordpool_576.txt	LTP365	ltpFR2	3	15	PUDDLE	1140	n/a	n/a	0	0	0
2895032	REC_WORD	wordpools/wasnorm_wordpool_576.txt	LTP365	ltpFR2	3	15	PIMPLE	1071	n/a	n/a	0	0	0
2895526	REC_WORD	wordpools/wasnorm_wordpool_576.txt	LTP365	ltpFR2	3	15	FRECKLE	602	n/a	n/a	0	0	0
2896274	REC_WORD	wordpools/wasnorm_wordpool_576.txt	LTP365	ltpFR2	3	15	HUSBAND	728	n/a	n/a	0	0	0
2897107	REC_WORD	wordpools/wasnorm_wordpool_576.txt	LTP365	ltpFR2	3	15	TWIG	1527	n/a	n/a	0	0	0
2897872	REC_WORD	wordpools/wasnorm_wordpool_576.txt	LTP365	ltpFR2	3	15	ICEBERG	731	n/a	n/a	0	0	0
2898707	REC_WORD	wordpools/wasnorm_wordpool_576.txt	LTP365	ltpFR2	3	15	RIVER	1194	n/a	n/a	0	0	0
2899553	REC_WORD	wordpools/wasnorm_wordpool_576.txt	LTP365	ltpFR2	3	15	BIKE	125	n/a	n/a	0	0	0
2900176	REC_WORD	wordpools/wasnorm_wordpool_576.txt	LTP365	ltpFR2	3	15	DRIVER	499	n/a	n/a	0	0	0
2903952	REC_WORD	wordpools/wasnorm_wordpool_576.txt	LTP365	ltpFR2	3	15	GANGSTER	620	n/a	n/a	0	0	0
2904835	REC_WORD	wordpools/wasnorm_wordpool_576.txt	LTP365	ltpFR2	3	15	TEMPLE	1448	n/a	n/a	0	0	0
2909125	REC_WORD	wordpools/wasnorm_wordpool_576.txt	LTP365	ltpFR2	3	15	TOASTER	1472	n/a	n/a	0	0	0
2909776	REC_WORD	wordpools/wasnorm_wordpool_576.txt	LTP365	ltpFR2	3	15	SPOUSE	1358	n/a	n/a	0	0	0
2910685	REC_WORD	wordpools/wasnorm_wordpool_576.txt	LTP365	ltpFR2	3	15	HUSBAND	728	n/a	n/a	0	0	0
2917829	REC_WORD	wordpools/wasnorm_wordpool_576.txt	LTP365	ltpFR2	3	15	SCARF	1246	n/a	n/a	0	0	0
2928883	REC_WORD	wordpools/wasnorm_wordpool_576.txt	LTP365	ltpFR2	3	15	JUGGLER	763	n/a	n/a	0	0	0
2929608	REC_WORD	wordpools/wasnorm_wordpool_576.txt	LTP365	ltpFR2	3	15	DANCER	437	n/a	n/a	0	0	0
2933237	REC_WORD	wordpools/wasnorm_wordpool_576.txt	LTP365	ltpFR2	3	15	SLUG	1329	n/a	n/a	0	0	0
2934911	REC_WORD	wordpools/wasnorm_wordpool_576.txt	LTP365	ltpFR2	3	15	TURTLE	1522	n/a	n/a	0	0	0
2984363	DISTRACTOR	n/a	LTP365	ltpFR2	3	16	n/a	n/a	n/a	n/a	0	0	0
2984363	START	n/a	LTP365	ltpFR2	3	n/a	n/a	n/a	21	n/a	n/a	n/a	n/a
2984380	PROB	n/a	LTP365	ltpFR2	3	n/a	n/a	n/a	21	11	3	4	4
2986746	PROB	n/a	LTP365	ltpFR2	3	n/a	n/a	n/a	21	13	3	5	5
2988327	PROB	n/a	LTP365	ltpFR2	3	n/a	n/a	n/a	21	5	1	1	3
2989761	PROB	n/a	LTP365	ltpFR2	3	n/a	n/a	n/a	21	16	6	2	8
2991109	PROB	n/a	LTP365	ltpFR2	3	n/a	n/a	n/a	21	21	9	5	7
2994475	PROB	n/a	LTP365	ltpFR2	3	n/a	n/a	n/a	21	18	9	7	2
2996174	PROB	n/a	LTP365	ltpFR2	3	n/a	n/a	n/a	21	14	2	3	9
2998457	PROB	n/a	LTP365	ltpFR2	3	n/a	n/a	n/a	21	4	1	1	2
2999740	PROB	n/a	LTP365	ltpFR2	3	n/a	n/a	n/a	21	13	5	5	3
3000955	PROB	n/a	LTP365	ltpFR2	3	n/a	n/a	n/a	21	16	9	3	4
3002805	PROB	n/a	LTP365	ltpFR2	3	n/a	n/a	n/a	21	17	8	6	3
3005153	PROB	n/a	LTP365	ltpFR2	3	n/a	n/a	n/a	21	20	9	6	5
3007401	STOP	n/a	LTP365	ltpFR2	3	n/a	n/a	n/a	21	n/a	n/a	n/a	n/a
3009334	WORD	wordpools/wasnorm_wordpool_576.txt	LTP365	ltpFR2	3	16	SNACK	1331	n/a	n/a	0	0	0
3011801	WORD	wordpools/wasnorm_wordpool_576.txt	LTP365	ltpFR2	3	16	BANQUET	86	n/a	n/a	0	0	0
3014483	WORD	wordpools/wasnorm_wordpool_576.txt	LTP365	ltpFR2	3	16	BUNNY	198	n/a	n/a	0	0	0
3017131	WORD	wordpools/wasnorm_wordpool_576.txt	LTP365	ltpFR2	3	16	CRIB	407	n/a	n/a	0	0	0
3019913	WORD	wordpools/wasnorm_wordpool_576.txt	LTP365	ltpFR2	3	16	LODGE	839	n/a	n/a	0	0	0
3022463	WORD	wordpools/wasnorm_wordpool_576.txt	LTP365	ltpFR2	3	16	PARENT	1013	n/a	n/a	0	0	0
3025010	WORD	wordpools/wasnorm_wordpool_576.txt	LTP365	ltpFR2	3	16	PRINCE	1124	n/a	n/a	0	0	0
3027660	WORD	wordpools/wasnorm_wordpool_576.txt	LTP365	ltpFR2	3	16	MARKER	870	n/a	n/a	0	0	0
3030292	WORD	wordpools/wasnorm_wordpool_576.txt	LTP365	ltpFR2	3	16	SNAIL	1332	n/a	n/a	0	0	0
3032825	WORD	wordpools/wasnorm_wordpool_576.txt	LTP365	ltpFR2	3	16	SPARROW	1347	n/a	n/a	0	0	0
3035540	WORD	wordpools/wasnorm_wordpool_576.txt	LTP365	ltpFR2	3	16	GLASS	639	n/a	n/a	0	0	0
3038155	WORD	wordpools/wasnorm_wordpool_576.txt	LTP365	ltpFR2	3	16	CUPBOARD	425	n/a	n/a	0	0	0
3040937	WORD	wordpools/wasnorm_wordpool_576.txt	LTP365	ltpFR2	3	16	AIRPLANE	12	n/a	n/a	0	0	0
3043686	WORD	wordpools/wasnorm_wordpool_576.txt	LTP365	ltpFR2	3	16	AWARD	63	n/a	n/a	0	0	0
3046284	WORD	wordpools/wasnorm_wordpool_576.txt	LTP365	ltpFR2	3	16	WOMAN	1620	n/a	n/a	0	0	0
3048767	WORD	wordpools/wasnorm_wordpool_576.txt	LTP365	ltpFR2	3	16	BABY	64	n/a	n/a	0	0	0
3051417	WORD	wordpools/wasnorm_wordpool_576.txt	LTP365	ltpFR2	3	16	SCOTCH	1251	n/a	n/a	0	0	0
3054064	WORD	wordpools/wasnorm_wordpool_576.txt	LTP365	ltpFR2	3	16	FLASK	576	n/a	n/a	0	0	0
3056514	WORD	wordpools/wasnorm_wordpool_576.txt	LTP365	ltpFR2	3	16	COMET	353	n/a	n/a	0	0	0
3058945	WORD	wordpools/wasnorm_wordpool_576.txt	LTP365	ltpFR2	3	16	LOFT	840	n/a	n/a	0	0	0
3061678	WORD	wordpools/wasnorm_wordpool_576.txt	LTP365	ltpFR2	3	16	GLOVE	642	n/a	n/a	0	0	0
3064276	WORD	wordpools/wasnorm_wordpool_576.txt	LTP365	ltpFR2	3	16	IDOL	733	n/a	n/a	0	0	0
3067025	WORD	wordpools/wasnorm_wordpool_576.txt	LTP365	ltpFR2	3	16	LAVA	804	n/a	n/a	0	0	0
3069608	WORD	wordpools/wasnorm_wordpool_576.txt	LTP365	ltpFR2	3	16	MATTRESS	879	n/a	n/a	0	0	0
3071223	START	n/a	LTP365	ltpFR2	3	n/a	n/a	n/a	22	n/a	n/a	n/a	n/a
3072192	DISTRACTOR	n/a	LTP365	ltpFR2	3	16	n/a	n/a	n/a	n/a	0	0	0
3072206	PROB	n/a	LTP365	ltpFR2	3	n/a	n/a	n/a	22	15	6	7	2
3074672	PROB	n/a	LTP365	ltpFR2	3	n/a	n/a	n/a	22	17	6	7	4
3076987	PROB	n/a	LTP365	ltpFR2	3	n/a	n/a	n/a	22	13	4	4	5
3079986	PROB	n/a	LTP365	ltpFR2	3	n/a	n/a	n/a	22	10	3	4	3
3081786	PROB	n/a	LTP365	ltpFR2	3	n/a	n/a	n/a	22	18	9	7	2
3083635	PROB	n/a	LTP365	ltpFR2	3	n/a	n/a	n/a	22	17	7	8	2
3085217	PROB	n/a	LTP365	ltpFR2	3	n/a	n/a	n/a	22	14	5	4	5
3086966	PROB	n/a	LTP365	ltpFR2	3	n/a	n/a	n/a	22	20	8	9	3
3089964	PROB	n/a	LTP365	ltpFR2	3	n/a	n/a	n/a	22	21	8	9	4
3093995	STOP	n/a	LTP365	ltpFR2	3	n/a	n/a	n/a	22	n/a	n/a	n/a	n/a
3097162	REC_START	n/a	LTP365	ltpFR2	3	16	n/a	n/a	n/a	n/a	0	0	0
3098952	REC_WORD	wordpools/wasnorm_wordpool_576.txt	LTP365	ltpFR2	3	16	FLASK	576	n/a	n/a	0	0	0
3099867	REC_WORD	wordpools/wasnorm_wordpool_576.txt	LTP365	ltpFR2	3	16	GLASS	639	n/a	n/a	0	0	0
3100587	REC_WORD	wordpools/wasnorm_wordpool_576.txt	LTP365	ltpFR2	3	16	WHISKEY	-1	n/a	n/a	0	0	0
3101405	REC_WORD	wordpools/wasnorm_wordpool_576.txt	LTP365	ltpFR2	3	16	PARENT	1013	n/a	n/a	0	0	0
3102262	REC_WORD	wordpools/wasnorm_wordpool_576.txt	LTP365	ltpFR2	3	16	WOMAN	1620	n/a	n/a	0	0	0
3103066	REC_WORD	wordpools/wasnorm_wordpool_576.txt	LTP365	ltpFR2	3	16	IDOL	733	n/a	n/a	0	0	0
3103933	REC_WORD	wordpools/wasnorm_wordpool_576.txt	LTP365	ltpFR2	3	16	BANQUET	86	n/a	n/a	0	0	0
3105221	REC_WORD	wordpools/wasnorm_wordpool_576.txt	LTP365	ltpFR2	3	16	LODGE	839	n/a	n/a	0	0	0
3107552	REC_WORD	wordpools/wasnorm_wordpool_576.txt	LTP365	ltpFR2	3	16	SNACK	1331	n/a	n/a	0	0	0
3108572	REC_WORD	wordpools/wasnorm_wordpool_576.txt	LTP365	ltpFR2	3	16	CUPBOARD	425	n/a	n/a	0	0	0
3111838	REC_WORD	wordpools/wasnorm_wordpool_576.txt	LTP365	ltpFR2	3	16	CRIB	407	n/a	n/a	0	0	0
3112752	REC_WORD	wordpools/wasnorm_wordpool_576.txt	LTP365	ltpFR2	3	16	BUNNY	198	n/a	n/a	0	0	0
3117175	REC_WORD	wordpools/wasnorm_wordpool_576.txt	LTP365	ltpFR2	3	16	MARKER	870	n/a	n/a	0	0	0
3118912	REC_WORD	wordpools/wasnorm_wordpool_576.txt	LTP365	ltpFR2	3	16	AWARD	63	n/a	n/a	0	0	0
3153751	REC_WORD	wordpools/wasnorm_wordpool_576.txt	LTP365	ltpFR2	3	16	MATTRESS	879	n/a	n/a	0	0	0
3161649	REC_WORD	wordpools/wasnorm_wordpool_576.txt	LTP365	ltpFR2	3	16	LAVA	804	n/a	n/a	0	0	0
3166128	REC_WORD	wordpools/wasnorm_wordpool_576.txt	LTP365	ltpFR2	3	16	GLOVE	642	n/a	n/a	0	0	0
3173694	REST_REWET	n/a	LTP365	ltpFR2	3	16	n/a	n/a	n/a	n/a	0	0	0
3301202	WORD	wordpools/wasnorm_wordpool_576.txt	LTP365	ltpFR2	3	17	DASHBOARD	441	n/a	n/a	0	0	0
3303917	WORD	wordpools/wasnorm_wordpool_576.txt	LTP365	ltpFR2	3	17	TURKEY	1520	n/a	n/a	0	0	0
3306517	WORD	wordpools/wasnorm_wordpool_576.txt	LTP365	ltpFR2	3	17	DINER	467	n/a	n/a	0	0	0
3309148	WORD	wordpools/wasnorm_wordpool_576.txt	LTP365	ltpFR2	3	17	SMOG	1330	n/a	n/a	0	0	0
3311897	WORD	wordpools/wasnorm_wordpool_576.txt	LTP365	ltpFR2	3	17	CHAPEL	280	n/a	n/a	0	0	0
3314713	WORD	wordpools/wasnorm_wordpool_576.txt	LTP365	ltpFR2	3	17	BLENDER	136	n/a	n/a	0	0	0
3317228	WORD	wordpools/wasnorm_wordpool_576.txt	LTP365	ltpFR2	3	17	GRAVE	658	n/a	n/a	0	0	0
3319893	WORD	wordpools/wasnorm_wordpool_576.txt	LTP365	ltpFR2	3	17	SUNSET	1408	n/a	n/a	0	0	0
3322576	WORD	wordpools/wasnorm_wordpool_576.txt	LTP365	ltpFR2	3	17	BOUQUET	157	n/a	n/a	0	0	0
3325174	WORD	wordpools/wasnorm_wordpool_576.txt	LTP365	ltpFR2	3	17	IGLOO	734	n/a	n/a	0	0	0
3327741	WORD	wordpools/wasnorm_wordpool_576.txt	LTP365	ltpFR2	3	17	SHARK	1275	n/a	n/a	0	0	0
3330222	WORD	wordpools/wasnorm_wordpool_576.txt	LTP365	ltpFR2	3	17	QUARTER	1148	n/a	n/a	0	0	0
3332872	WORD	wordpools/wasnorm_wordpool_576.txt	LTP365	ltpFR2	3	17	CASHIER	254	n/a	n/a	0	0	0
3335437	WORD	wordpools/wasnorm_wordpool_576.txt	LTP365	ltpFR2	3	17	GRAPE	654	n/a	n/a	0	0	0
3338218	WORD	wordpools/wasnorm_wordpool_576.txt	LTP365	ltpFR2	3	17	GHETTO	633	n/a	n/a	0	0	0
3340785	WORD	wordpools/wasnorm_wordpool_576.txt	LTP365	ltpFR2	3	17	BRACES	164	n/a	n/a	0	0	0
3343216	WORD	wordpools/wasnorm_wordpool_576.txt	LTP365	ltpFR2	3	17	LASER	801	n/a	n/a	0	0	0
3345649	WORD	wordpools/wasnorm_wordpool_576.txt	LTP365	ltpFR2	3	17	TOMBSTONE	1478	n/a	n/a	0	0	0
3348398	WORD	wordpools/wasnorm_wordpool_576.txt	LTP365	ltpFR2	3	17	BUBBLE	183	n/a	n/a	0	0	0
3350830	WORD	wordpools/wasnorm_wordpool_576.txt	LTP365	ltpFR2	3	17	CYCLONE	431	n/a	n/a	0	0	0
3353462	WORD	wordpools/wasnorm_wordpool_576.txt	LTP365	ltpFR2	3	17	SWITCH	1422	n/a	n/a	0	0	0
3356060	WORD	wordpools/wasnorm_wordpool_576.txt	LTP365	ltpFR2	3	17	OZONE	996	n/a	n/a	0	0	0
3358677	WORD	wordpools/wasnorm_wordpool_576.txt	LTP365	ltpFR2	3	17	HEDGE	699	n/a	n/a	0	0	0
3361191	WORD	wordpools/wasnorm_wordpool_576.txt	LTP365	ltpFR2	3	17	CATTLE	261	n/a	n/a	0	0	0
3362809	START	n/a	LTP365	ltpFR2	3	n/a	n/a	n/a	23	n/a	n/a	n/a	n/a
3363775	DISTRACTOR	n/a	LTP365	ltpFR2	3	17	n/a	n/a	n/a	n/a	0	0	0
3363791	PROB	n/a	LTP365	ltpFR2	3	n/a	n/a	n/a	23	16	4	4	8
3367122	PROB	n/a	LTP365	ltpFR2	3	n/a	n/a	n/a	23	5	2	2	1
3368238	PROB	n/a	LTP365	ltpFR2	3	n/a	n/a	n/a	23	10	5	4	1
3369538	PROB	n/a	LTP365	ltpFR2	3	n/a	n/a	n/a	23	16	9	6	1
3371037	PROB	n/a	LTP365	ltpFR2	3	n/a	n/a	n/a	23	14	9	4	1
3372520	PROB	n/a	LTP365	ltpFR2	3	n/a	n/a	n/a	23	24	8	7	9
3374853	PROB	n/a	LTP365	ltpFR2	3	n/a	n/a	n/a	23	21	9	5	7
3377084	PROB	n/a	LTP365	ltpFR2	3	n/a	n/a	n/a	23	13	2	7	4
3380982	PROB	n/a	LTP365	ltpFR2	3	n/a	n/a	n/a	23	17	5	5	7
3382315	PROB	n/a	LTP365	ltpFR2	3	n/a	n/a	n/a	23	18	5	7	6
3384732	PROB	n/a	LTP365	ltpFR2	3	n/a	n/a	n/a	23	7	3	3	1
3386243	STOP	n/a	LTP365	ltpFR2	3	n/a	n/a	n/a	23	n/a	n/a	n/a	n/a
3388597	REC_START	n/a	LTP365	ltpFR2	3	17	n/a	n/a	n/a	n/a	0	0	0
3389194	REC_WORD	wordpools/wasnorm_wordpool_576.txt	LTP365	ltpFR2	3	17	HEDGE	699	n/a	n/a	0	0	0
3390049	REC_WORD	wordpools/wasnorm_wordpool_576.txt	LTP365	ltpFR2	3	17	QUARTER	1148	n/a	n/a	0	0	0
3390899	REC_WORD	wordpools/wasnorm_wordpool_576.txt	LTP365	ltpFR2	3	17	DASHBOARD	441	n/a	n/a	0	0	0
3391735	REC_WORD	wordpools/wasnorm_wordpool_576.txt	LTP365	ltpFR2	3	17	SMOG	1330	n/a	n/a	0	0	0
3392664	REC_WORD	wordpools/wasnorm_wordpool_576.txt	LTP365	ltpFR2	3	17	OZONE	996	n/a	n/a	0	0	0
3394362	REC_WORD	wordpools/wasnorm_wordpool_576.txt	LTP365	ltpFR2	3	17	SHARK	1275	n/a	n/a	0	0	0
3395248	REC_WORD	wordpools/wasnorm_wordpool_576.txt	LTP365	ltpFR2	3	17	BUBBLE	183	n/a	n/a	0	0	0
3396459	REC_WORD	wordpools/wasnorm_wordpool_576.txt	LTP365	ltpFR2	3	17	TOMB	1477	n/a	n/a	0	0	0
3397382	REC_WORD	wordpools/wasnorm_wordpool_576.txt	LTP365	ltpFR2	3	17	GRAVE	658	n/a	n/a	0	0	0
3401216	REC_WORD	wordpools/wasnorm_wordpool_576.txt	LTP365	ltpFR2	3	17	IGLOO	734	n/a	n/a	0	0	0
3406988	REC_WORD	wordpools/wasnorm_wordpool_576.txt	LTP365	ltpFR2	3	17	CATTLE	261	n/a	n/a	0	0	0
3407658	REC_WORD	wordpools/wasnorm_wordpool_576.txt	LTP365	ltpFR2	3	17	TURKEY	1520	n/a	n/a	0	0	0
3408447	REC_WORD	wordpools/wasnorm_wordpool_576.txt	LTP365	ltpFR2	3	17	DINER	467	n/a	n/a	0	0	0
3412100	REC_WORD	wordpools/wasnorm_wordpool_576.txt	LTP365	ltpFR2	3	17	GHETTO	633	n/a	n/a	0	0	0
3426845	REC_WORD	wordpools/wasnorm_wordpool_576.txt	LTP365	ltpFR2	3	17	CHAPEL	280	n/a	n/a	0	0	0
3442886	REC_WORD	wordpools/wasnorm_wordpool_576.txt	LTP365	ltpFR2	3	17	SWITCH	1422	n/a	n/a	0	0	0
3479021	DISTRACTOR	n/a	LTP365	ltpFR2	3	18	n/a	n/a	n/a	n/a	0	0	0
3479021	START	n/a	LTP365	ltpFR2	3	n/a	n/a	n/a	24	n/a	n/a	n/a	n/a
3479038	PROB	n/a	LTP365	ltpFR2	3	n/a	n/a	n/a	24	16	6	8	2
3481270	PROB	n/a	LTP365	ltpFR2	3	n/a	n/a	n/a	24	22	9	8	5
3483670	PROB	n/a	LTP365	ltpFR2	3	n/a	n/a	n/a	24	11	5	4	2
3485702	PROB	n/a	LTP365	ltpFR2	3	n/a	n/a	n/a	24	11	3	2	6
3487435	PROB	n/a	LTP365	ltpFR2	3	n/a	n/a	n/a	24	9	4	3	2
3490166	PROB	n/a	LTP365	ltpFR2	3	n/a	n/a	n/a	24	16	5	3	9
3492198	PROB	n/a	LTP365	ltpFR2	3	n/a	n/a	n/a	24	9	4	3	2
3494981	PROB	n/a	LTP365	ltpFR2	3	n/a	n/a	n/a	24	18	9	8	1
3496113	PROB	n/a	LTP365	ltpFR2	3	n/a	n/a	n/a	24	15	4	8	3
3499345	PROB	n/a	LTP365	ltpFR2	3	n/a	n/a	n/a	24	10	3	4	3
3501640	STOP	n/a	LTP365	ltpFR2	3	n/a	n/a	n/a	24	n/a	n/a	n/a	n/a
3504043	WORD	wordpools/wasnorm_wordpool_576.txt	LTP365	ltpFR2	3	18	SUNRISE	1407	n/a	n/a	0	0	0
3506643	WORD	wordpools/wasnorm_wordpool_576.txt	LTP365	ltpFR2	3	18	WASHER	1592	n/a	n/a	0	0	0
3509091	WORD	wordpools/wasnorm_wordpool_576.txt	LTP365	ltpFR2	3	18	CHEST	295	n/a	n/a	0	0	0
3511524	WORD	wordpools/wasnorm_wordpool_576.txt	LTP365	ltpFR2	3	18	HOUND	724	n/a	n/a	0	0	0
3514255	WORD	wordpools/wasnorm_wordpool_576.txt	LTP365	ltpFR2	3	18	WAITER	1580	n/a	n/a	0	0	0
3516921	WORD	wordpools/wasnorm_wordpool_576.txt	LTP365	ltpFR2	3	18	ACTOR	5	n/a	n/a	0	0	0
3519737	WORD	wordpools/wasnorm_wordpool_576.txt	LTP365	ltpFR2	3	18	RELISH	1183	n/a	n/a	0	0	0
3522502	WORD	wordpools/wasnorm_wordpool_576.txt	LTP365	ltpFR2	3	18	COOKBOOK	373	n/a	n/a	0	0	0
3525267	WORD	wordpools/wasnorm_wordpool_576.txt	LTP365	ltpFR2	3	18	PARROT	1015	n/a	n/a	0	0	0
3527800	WORD	wordpools/wasnorm_wordpool_576.txt	LTP365	ltpFR2	3	18	PROTON	1132	n/a	n/a	0	0	0
3530416	WORD	wordpools/wasnorm_wordpool_576.txt	LTP365	ltpFR2	3	18	NEUTRON	947	n/a	n/a	0	0	0
3533080	WORD	wordpools/wasnorm_wordpool_576.txt	LTP365	ltpFR2	3	18	FLIPPER	580	n/a	n/a	0	0	0
3535563	WORD	wordpools/wasnorm_wordpool_576.txt	LTP365	ltpFR2	3	18	MUSTARD	935	n/a	n/a	0	0	0
3538294	WORD	wordpools/wasnorm_wordpool_576.txt	LTP365	ltpFR2	3	18	CLIMBER	323	n/a	n/a	0	0	0
3540910	WORD	wordpools/wasnorm_wordpool_576.txt	LTP365	ltpFR2	3	18	PENGUIN	1044	n/a	n/a	0	0	0
3543342	WORD	wordpools/wasnorm_wordpool_576.txt	LTP365	ltpFR2	3	18	LAPEL	800	n/a	n/a	0	0	0
3545842	WORD	wordpools/wasnorm_wordpool_576.txt	LTP365	ltpFR2	3	18	VAGRANT	1544	n/a	n/a	0	0	0
3548407	WORD	wordpools/wasnorm_wordpool_576.txt	LTP365	ltpFR2	3	18	DENTIST	447	n/a	n/a	0	0	0
3551138	WORD	wordpools/wasnorm_wordpool_576.txt	LTP365	ltpFR2	3	18	PORK	1108	n/a	n/a	0	0	0
3553722	WORD	wordpools/wasnorm_wordpool_576.txt	LTP365	ltpFR2	3	18	MAILMAN	858	n/a	n/a	0	0	0
3556454	WORD	wordpools/wasnorm_wordpool_576.txt	LTP365	ltpFR2	3	18	RIFLE	1192	n/a	n/a	0	0	0
3559018	WORD	wordpools/wasnorm_wordpool_576.txt	LTP365	ltpFR2	3	18	ROBIN	1199	n/a	n/a	0	0	0
3561751	WORD	wordpools/wasnorm_wordpool_576.txt	LTP365	ltpFR2	3	18	BANK	83	n/a	n/a	0	0	0
3564467	WORD	wordpools/wasnorm_wordpool_576.txt	LTP365	ltpFR2	3	18	ROBBER	1197	n/a	n/a	0	0	0
3566082	START	n/a	LTP365	ltpFR2	3	n/a	n/a	n/a	25	n/a	n/a	n/a	n/a
3567144	DISTRACTOR	n/a	LTP365	ltpFR2	3	18	n/a	n/a	n/a	n/a	0	0	0
3567148	PROB	n/a	LTP365	ltpFR2	3	n/a	n/a	n/a	25	24	6	9	9
3570564	PROB	n/a	LTP365	ltpFR2	3	n/a	n/a	n/a	25	25	9	7	9
3573945	PROB	n/a	LTP365	ltpFR2	3	n/a	n/a	n/a	25	19	6	7	6
3576127	PROB	n/a	LTP365	ltpFR2	3	n/a	n/a	n/a	25	15	6	1	8
3577827	PROB	n/a	LTP365	ltpFR2	3	n/a	n/a	n/a	25	19	7	3	9
3579326	PROB	n/a	LTP365	ltpFR2	3	n/a	n/a	n/a	25	22	9	9	4
3581325	PROB	n/a	LTP365	ltpFR2	3	n/a	n/a	n/a	25	14	8	1	5
3583340	PROB	n/a	LTP365	ltpFR2	3	n/a	n/a	n/a	25	15	9	2	4
3584990	PROB	n/a	LTP365	ltpFR2	3	n/a	n/a	n/a	25	11	8	1	2
3586773	PROB	n/a	LTP365	ltpFR2	3	n/a	n/a	n/a	25	20	5	6	9
3588730	STOP	n/a	LTP365	ltpFR2	3	n/a	n/a	n/a	25	n/a	n/a	n/a	n/a
3591838	REC_START	n/a	LTP365	ltpFR2	3	18	n/a	n/a	n/a	n/a	0	0	0
3592461	REC_WORD	wordpools/wasnorm_wordpool_576.txt	LTP365	ltpFR2	3	18	WAITER	1580	n/a	n/a	0	0	0
3592977	REC_WORD	wordpools/wasnorm_wordpool_576.txt	LTP365	ltpFR2	3	18	MAILMAN	858	n/a	n/a	0	0	0
3593630	REC_WORD	wordpools/wasnorm_wordpool_576.txt	LTP365	ltpFR2	3	18	ROBIN	1199	n/a	n/a	0	0	0
3594398	REC_WORD	wordpools/wasnorm_wordpool_576.txt	LTP365	ltpFR2	3	18	ROBBER	1197	n/a	n/a	0	0	0
3597356	REC_WORD	wordpools/wasnorm_wordpool_576.txt	LTP365	ltpFR2	3	18	PORK	1108	n/a	n/a	0	0	0
3597944	REC_WORD	wordpools/wasnorm_wordpool_576.txt	LTP365	ltpFR2	3	18	RELISH	1183	n/a	n/a	0	0	0
3598605	REC_WORD	wordpools/wasnorm_wordpool_576.txt	LTP365	ltpFR2	3	18	MUSTARD	935	n/a	n/a	0	0	0
3600019	REC_WORD	wordpools/wasnorm_wordpool_576.txt	LTP365	ltpFR2	3	18	PROTON	1132	n/a	n/a	0	0	0
3600823	REC_WORD	wordpools/wasnorm_wordpool_576.txt	LTP365	ltpFR2	3	18	NEUTRON	947	n/a	n/a	0	0	0
3616806	REC_WORD	wordpools/wasnorm_wordpool_576.txt	LTP365	ltpFR2	3	18	LAPEL	800	n/a	n/a	0	0	0
3661913	REC_WORD	wordpools/wasnorm_wordpool_576.txt	LTP365	ltpFR2	3	18	WAITER	1580	n/a	n/a	0	0	0
3666169	REC_WORD	wordpools/wasnorm_wordpool_576.txt	LTP365	ltpFR2	3	18	HOUND	724	n/a	n/a	0	0	0
3682312	WORD	wordpools/wasnorm_wordpool_576.txt	LTP365	ltpFR2	3	19	UNCLE	1536	n/a	n/a	0	0	0
3684779	WORD	wordpools/wasnorm_wordpool_576.txt	LTP365	ltpFR2	3	19	ATOM	55	n/a	n/a	0	0	0
3687377	WORD	wordpools/wasnorm_wordpool_576.txt	LTP365	ltpFR2	3	19	CLOUD	328	n/a	n/a	0	0	0
3690026	WORD	wordpools/wasnorm_wordpool_576.txt	LTP365	ltpFR2	3	19	DRAGON	492	n/a	n/a	0	0	0
3692592	WORD	wordpools/wasnorm_wordpool_576.txt	LTP365	ltpFR2	3	19	DANDRUFF	439	n/a	n/a	0	0	0
3695240	WORD	wordpools/wasnorm_wordpool_576.txt	LTP365	ltpFR2	3	19	DOLPHIN	483	n/a	n/a	0	0	0
3697773	WORD	wordpools/wasnorm_wordpool_576.txt	LTP365	ltpFR2	3	19	COD	340	n/a	n/a	0	0	0
3700237	WORD	wordpools/wasnorm_wordpool_576.txt	LTP365	ltpFR2	3	19	COBRA	336	n/a	n/a	0	0	0
3703036	WORD	wordpools/wasnorm_wordpool_576.txt	LTP365	ltpFR2	3	19	RECEIPT	1173	n/a	n/a	0	0	0
3705753	WORD	wordpools/wasnorm_wordpool_576.txt	LTP365	ltpFR2	3	19	SCULPTURE	1258	n/a	n/a	0	0	0
3708535	WORD	wordpools/wasnorm_wordpool_576.txt	LTP365	ltpFR2	3	19	SPOON	1357	n/a	n/a	0	0	0
3710999	WORD	wordpools/wasnorm_wordpool_576.txt	LTP365	ltpFR2	3	19	COUSIN	392	n/a	n/a	0	0	0
3713482	WORD	wordpools/wasnorm_wordpool_576.txt	LTP365	ltpFR2	3	19	TRUCK	1512	n/a	n/a	0	0	0
3716280	WORD	wordpools/wasnorm_wordpool_576.txt	LTP365	ltpFR2	3	19	TAXI	1438	n/a	n/a	0	0	0
3718813	WORD	wordpools/wasnorm_wordpool_576.txt	LTP365	ltpFR2	3	19	MOTOR	922	n/a	n/a	0	0	0
3721445	WORD	wordpools/wasnorm_wordpool_576.txt	LTP365	ltpFR2	3	19	ITEM	746	n/a	n/a	0	0	0
3723977	WORD	wordpools/wasnorm_wordpool_576.txt	LTP365	ltpFR2	3	19	CREVICE	405	n/a	n/a	0	0	0
3726410	WORD	wordpools/wasnorm_wordpool_576.txt	LTP365	ltpFR2	3	19	BRAKE	166	n/a	n/a	0	0	0
3729091	WORD	wordpools/wasnorm_wordpool_576.txt	LTP365	ltpFR2	3	19	BARREL	91	n/a	n/a	0	0	0
3731574	WORD	wordpools/wasnorm_wordpool_576.txt	LTP365	ltpFR2	3	19	BISON	131	n/a	n/a	0	0	0
3734222	WORD	wordpools/wasnorm_wordpool_576.txt	LTP365	ltpFR2	3	19	FLOWER	584	n/a	n/a	0	0	0
3736987	WORD	wordpools/wasnorm_wordpool_576.txt	LTP365	ltpFR2	3	19	MARSH	874	n/a	n/a	0	0	0
3739687	WORD	wordpools/wasnorm_wordpool_576.txt	LTP365	ltpFR2	3	19	SPONGE	1355	n/a	n/a	0	0	0
3742302	WORD	wordpools/wasnorm_wordpool_576.txt	LTP365	ltpFR2	3	19	XEROX	1628	n/a	n/a	0	0	0
3743918	START	n/a	LTP365	ltpFR2	3	n/a	n/a	n/a	26	n/a	n/a	n/a	n/a
3744942	DISTRACTOR	n/a	LTP365	ltpFR2	3	19	n/a	n/a	n/a	n/a	0	0	0
3744950	PROB	n/a	LTP365	ltpFR2	3	n/a	n/a	n/a	26	10	2	1	7
3746567	PROB	n/a	LTP365	ltpFR2	3	n/a	n/a	n/a	26	17	7	7	3
3747949	PROB	n/a	LTP365	ltpFR2	3	n/a	n/a	n/a	26	11	2	7	2
3749749	PROB	n/a	LTP365	ltpFR2	3	n/a	n/a	n/a	26	12	6	3	3
3752347	PROB	n/a	LTP365	ltpFR2	3	n/a	n/a	n/a	26	20	7	6	7
3754196	PROB	n/a	LTP365	ltpFR2	3	n/a	n/a	n/a	26	16	1	6	9
3755563	PROB	n/a	LTP365	ltpFR2	3	n/a	n/a	n/a	26	13	3	4	6
3757195	PROB	n/a	LTP365	ltpFR2	3	n/a	n/a	n/a	26	16	7	5	4
3759194	PROB	n/a	LTP365	ltpFR2	3	n/a	n/a	n/a	26	14	4	4	6
3760661	PROB	n/a	LTP365	ltpFR2	3	n/a	n/a	n/a	26	20	8	9	3
3762126	PROB	n/a	LTP365	ltpFR2	3	n/a	n/a	n/a	26	9	4	3	2
3764393	PROB	n/a	LTP365	ltpFR2	3	n/a	n/a	n/a	26	23	7	8	8
3767760	STOP	n/a	LTP365	ltpFR2	3	n/a	n/a	n/a	26	n/a	n/a	n/a	n/a
3769841	REC_START	n/a	LTP365	ltpFR2	3	19	n/a	n/a	n/a	n/a	0	0	0
3770172	REC_WORD	wordpools/wasnorm_wordpool_576.txt	LTP365	ltpFR2	3	19	SPONGE	1355	n/a	n/a	0	0	0
3771094	REC_WORD	wordpools/wasnorm_wordpool_576.txt	LTP365	ltpFR2	3	19	DOLPHIN	483	n/a	n/a	0	0	0
3771821	REC_WORD	wordpools/wasnorm_wordpool_576.txt	LTP365	ltpFR2	3	19	COD	340	n/a	n/a	0	0	0
3776768	REC_WORD	wordpools/wasnorm_wordpool_576.txt	LTP365	ltpFR2	3	19	COUSIN	392	n/a	n/a	0	0	0
3779695	REC_WORD	wordpools/wasnorm_wordpool_576.txt	LTP365	ltpFR2	3	19	TRUCK	1512	n/a	n/a	0	0	0
3780725	REC_WORD	wordpools/wasnorm_wordpool_576.txt	LTP365	ltpFR2	3	19	TAXI	1438	n/a	n/a	0	0	0
3781874	REC_WORD	wordpools/wasnorm_wordpool_576.txt	LTP365	ltpFR2	3	19	BRAKE	166	n/a	n/a	0	0	0
3782838	REC_WORD	wordpools/wasnorm_wordpool_576.txt	LTP365	ltpFR2	3	19	ITEM	746	n/a	n/a	0	0	0
3783863	REC_WORD	wordpools/wasnorm_wordpool_576.txt	LTP365	ltpFR2	3	19	CREVICE	405	n/a	n/a	0	0	0
3790809	REC_WORD	wordpools/wasnorm_wordpool_576.txt	LTP365	ltpFR2	3	19	ATOM	55	n/a	n/a	0	0	0
3801345	REC_WORD	wordpools/wasnorm_wordpool_576.txt	LTP365	ltpFR2	3	19	UNCLE	1536	n/a	n/a	0	0	0
3823837	REC_WORD	wordpools/wasnorm_wordpool_576.txt	LTP365	ltpFR2	3	19	DANDRUFF	439	n/a	n/a	0	0	0
3860265	DISTRACTOR	n/a	LTP365	ltpFR2	3	20	n/a	n/a	n/a	n/a	0	0	0
3860265	START	n/a	LTP365	ltpFR2	3	n/a	n/a	n/a	27	n/a	n/a	n/a	n/a
3860281	PROB	n/a	LTP365	ltpFR2	3	n/a	n/a	n/a	27	14	6	7	1
3862280	PROB	n/a	LTP365	ltpFR2	3	n/a	n/a	n/a	27	18	8	4	6
3863881	PROB	n/a	LTP365	ltpFR2	3	n/a	n/a	n/a	27	14	8	1	5
3866195	PROB	n/a	LTP365	ltpFR2	3	n/a	n/a	n/a	27	15	3	5	7
3867579	PROB	n/a	LTP365	ltpFR2	3	n/a	n/a	n/a	27	21	8	5	8
3869311	PROB	n/a	LTP365	ltpFR2	3	n/a	n/a	n/a	27	8	1	5	2
3871544	PROB	n/a	LTP365	ltpFR2	3	n/a	n/a	n/a	27	17	7	8	2
3873259	PROB	n/a	LTP365	ltpFR2	3	n/a	n/a	n/a	27	11	1	2	8
3874526	PROB	n/a	LTP365	ltpFR2	3	n/a	n/a	n/a	27	10	3	1	6
3875792	PROB	n/a	LTP365	ltpFR2	3	n/a	n/a	n/a	27	21	6	9	6
3877841	PROB	n/a	LTP365	ltpFR2	3	n/a	n/a	n/a	27	5	1	3	1
3879156	PROB	n/a	LTP365	ltpFR2	3	n/a	n/a	n/a	27	9	6	2	1
3880506	PROB	n/a	LTP365	ltpFR2	3	n/a	n/a	n/a	27	21	9	8	4
3883595	STOP	n/a	LTP365	ltpFR2	3	n/a	n/a	n/a	27	n/a	n/a	n/a	n/a
3885388	WORD	wordpools/wasnorm_wordpool_576.txt	LTP365	ltpFR2	3	20	STAR	1373	n/a	n/a	0	0	0
3887902	WORD	wordpools/wasnorm_wordpool_576.txt	LTP365	ltpFR2	3	20	GOBLIN	645	n/a	n/a	0	0	0
3890585	WORD	wordpools/wasnorm_wordpool_576.txt	LTP365	ltpFR2	3	20	MUMMY	932	n/a	n/a	0	0	0
3893316	WORD	wordpools/wasnorm_wordpool_576.txt	LTP365	ltpFR2	3	20	VALLEY	1545	n/a	n/a	0	0	0
3895899	WORD	wordpools/wasnorm_wordpool_576.txt	LTP365	ltpFR2	3	20	SUMMIT	1405	n/a	n/a	0	0	0
3898532	WORD	wordpools/wasnorm_wordpool_576.txt	LTP365	ltpFR2	3	20	AGENT	10	n/a	n/a	0	0	0
3900980	WORD	wordpools/wasnorm_wordpool_576.txt	LTP365	ltpFR2	3	20	SNAKE	1333	n/a	n/a	0	0	0
3903479	WORD	wordpools/wasnorm_wordpool_576.txt	LTP365	ltpFR2	3	20	CONCERT	360	n/a	n/a	0	0	0
3906127	WORD	wordpools/wasnorm_wordpool_576.txt	LTP365	ltpFR2	3	20	RUST	1219	n/a	n/a	0	0	0
3908677	WORD	wordpools/wasnorm_wordpool_576.txt	LTP365	ltpFR2	3	20	BUGGY	188	n/a	n/a	0	0	0
3911409	WORD	wordpools/wasnorm_wordpool_576.txt	LTP365	ltpFR2	3	20	FOOT	590	n/a	n/a	0	0	0
3913858	WORD	wordpools/wasnorm_wordpool_576.txt	LTP365	ltpFR2	3	20	SUBWAY	1400	n/a	n/a	0	0	0
3916407	WORD	wordpools/wasnorm_wordpool_576.txt	LTP365	ltpFR2	3	20	MARINE	869	n/a	n/a	0	0	0
3918888	WORD	wordpools/wasnorm_wordpool_576.txt	LTP365	ltpFR2	3	20	RAFT	1159	n/a	n/a	0	0	0
3921621	WORD	wordpools/wasnorm_wordpool_576.txt	LTP365	ltpFR2	3	20	GARLIC	624	n/a	n/a	0	0	0
3924252	WORD	wordpools/wasnorm_wordpool_576.txt	LTP365	ltpFR2	3	20	GUARD	667	n/a	n/a	0	0	0
3926951	WORD	wordpools/wasnorm_wordpool_576.txt	LTP365	ltpFR2	3	20	CROWN	415	n/a	n/a	0	0	0
3929751	WORD	wordpools/wasnorm_wordpool_576.txt	LTP365	ltpFR2	3	20	CUSTARD	429	n/a	n/a	0	0	0
3932215	WORD	wordpools/wasnorm_wordpool_576.txt	LTP365	ltpFR2	3	20	SPOOL	1356	n/a	n/a	0	0	0
3935031	WORD	wordpools/wasnorm_wordpool_576.txt	LTP365	ltpFR2	3	20	TROMBONE	1508	n/a	n/a	0	0	0
3937731	WORD	wordpools/wasnorm_wordpool_576.txt	LTP365	ltpFR2	3	20	BUG	187	n/a	n/a	0	0	0
3940529	WORD	wordpools/wasnorm_wordpool_576.txt	LTP365	ltpFR2	3	20	SPACE	1345	n/a	n/a	0	0	0
3942977	WORD	wordpools/wasnorm_wordpool_576.txt	LTP365	ltpFR2	3	20	WORLD	1622	n/a	n/a	0	0	0
3945560	WORD	wordpools/wasnorm_wordpool_576.txt	LTP365	ltpFR2	3	20	CHEMIST	292	n/a	n/a	0	0	0
3947175	START	n/a	LTP365	ltpFR2	3	n/a	n/a	n/a	28	n/a	n/a	n/a	n/a
3948366	DISTRACTOR	n/a	LTP365	ltpFR2	3	20	n/a	n/a	n/a	n/a	0	0	0
3948376	PROB	n/a	LTP365	ltpFR2	3	n/a	n/a	n/a	28	20	6	5	9
3950990	PROB	n/a	LTP365	ltpFR2	3	n/a	n/a	n/a	28	16	3	7	6
3952857	PROB	n/a	LTP365	ltpFR2	3	n/a	n/a	n/a	28	17	3	7	7
3956204	PROB	n/a	LTP365	ltpFR2	3	n/a	n/a	n/a	28	24	9	8	7
3959087	PROB	n/a	LTP365	ltpFR2	3	n/a	n/a	n/a	28	16	6	8	2
3960504	PROB	n/a	LTP365	ltpFR2	3	n/a	n/a	n/a	28	16	4	6	5
3962102	PROB	n/a	LTP365	ltpFR2	3	n/a	n/a	n/a	28	13	7	3	3
3964785	PROB	n/a	LTP365	ltpFR2	3	n/a	n/a	n/a	28	20	5	7	8
3966300	PROB	n/a	LTP365	ltpFR2	3	n/a	n/a	n/a	28	17	7	7	3
3968132	PROB	n/a	LTP365	ltpFR2	3	n/a	n/a	n/a	28	14	8	2	4
3970269	STOP	n/a	LTP365	ltpFR2	3	n/a	n/a	n/a	28	n/a	n/a	n/a	n/a
3973064	REC_START	n/a	LTP365	ltpFR2	3	20	n/a	n/a	n/a	n/a	0	0	0
3973488	REC_WORD	wordpools/wasnorm_wordpool_576.txt	LTP365	ltpFR2	3	20	CHEMIST	292	n/a	n/a	0	0	0
3974184	REC_WORD	wordpools/wasnorm_wordpool_576.txt	LTP365	ltpFR2	3	20	RAFT	1159	n/a	n/a	0	0	0
3976179	REC_WORD	wordpools/wasnorm_wordpool_576.txt	LTP365	ltpFR2	3	20	AGENT	10	n/a	n/a	0	0	0
3976930	REC_WORD	wordpools/wasnorm_wordpool_576.txt	LTP365	ltpFR2	3	20	GUARD	667	n/a	n/a	0	0	0
