mstime	trial_type	stim_file	subject	experiment	session	trial	task	item_name	item_num	recog_conf	resp	answer	test_x	test_y	test_z	color_b	color_g	color_r	case	font
0	SESS_START	n/a	LTP073	ltpFR	9	n/a	n/a	n/a	n/a	3	n/a	n/a	0	0	0	n/a	n/a	n/a	n/a	n/a
40242	START	n/a	LTP073	ltpFR	9	n/a	n/a	n/a	n/a	n/a	n/a	n/a	n/a	n/a	n/a	n/a	n/a	n/a	n/a	n/a
40267	PROB	n/a	LTP073	ltpFR	9	n/a	n/a	n/a	n/a	n/a	n/a	20	9	5	7	n/a	n/a	n/a	n/a	n/a
43430	PROB	n/a	LTP073	ltpFR	9	n/a	n/a	n/a	n/a	n/a	n/a	6	2	1	3	n/a	n/a	n/a	n/a	n/a
45327	PROB	n/a	LTP073	ltpFR	9	n/a	n/a	n/a	n/a	n/a	n/a	18	8	4	6	n/a	n/a	n/a	n/a	n/a
47633	PROB	n/a	LTP073	ltpFR	9	n/a	n/a	n/a	n/a	n/a	n/a	16	2	5	9	n/a	n/a	n/a	n/a	n/a
50089	PROB	n/a	LTP073	ltpFR	9	n/a	n/a	n/a	n/a	n/a	n/a	17	7	6	4	n/a	n/a	n/a	n/a	n/a
51927	PROB	n/a	LTP073	ltpFR	9	n/a	n/a	n/a	n/a	n/a	n/a	18	9	8	1	n/a	n/a	n/a	n/a	n/a
55216	PROB	n/a	LTP073	ltpFR	9	n/a	n/a	n/a	n/a	n/a	n/a	18	7	2	9	n/a	n/a	n/a	n/a	n/a
57063	PROB	n/a	LTP073	ltpFR	9	n/a	n/a	n/a	n/a	n/a	n/a	18	2	9	7	n/a	n/a	n/a	n/a	n/a
60242	STOP	n/a	LTP073	ltpFR	9	n/a	n/a	n/a	n/a	n/a	n/a	n/a	n/a	n/a	n/a	n/a	n/a	n/a	n/a	n/a
96068	START	n/a	LTP073	ltpFR	9	n/a	n/a	n/a	n/a	n/a	n/a	n/a	n/a	n/a	n/a	n/a	n/a	n/a	n/a	n/a
97575	PROB	n/a	LTP073	ltpFR	9	n/a	n/a	n/a	n/a	n/a	n/a	22	8	9	3	n/a	n/a	n/a	n/a	n/a
101171	PROB	n/a	LTP073	ltpFR	9	n/a	n/a	n/a	n/a	n/a	n/a	15	7	4	4	n/a	n/a	n/a	n/a	n/a
102828	STOP	n/a	LTP073	ltpFR	9	n/a	n/a	n/a	n/a	n/a	n/a	n/a	n/a	n/a	n/a	n/a	n/a	n/a	n/a	n/a
104982	WORD	wordpools/wasnorm_wordpool.txt	LTP073	ltpFR	9	1	0	ANTEATER	26	3	1	n/a	0	0	0	1	0.412841796875	0.57763671875	upper	../fonts/amplitud.ttf
107987	START	n/a	LTP073	ltpFR	9	n/a	n/a	n/a	n/a	n/a	n/a	n/a	n/a	n/a	n/a	n/a	n/a	n/a	n/a	n/a
108935	PROB	n/a	LTP073	ltpFR	9	n/a	n/a	n/a	n/a	n/a	n/a	15	8	6	1	n/a	n/a	n/a	n/a	n/a
110676	PROB	n/a	LTP073	ltpFR	9	n/a	n/a	n/a	n/a	n/a	n/a	13	3	6	4	n/a	n/a	n/a	n/a	n/a
113373	PROB	n/a	LTP073	ltpFR	9	n/a	n/a	n/a	n/a	n/a	n/a	15	2	8	5	n/a	n/a	n/a	n/a	n/a
114469	STOP	n/a	LTP073	ltpFR	9	n/a	n/a	n/a	n/a	n/a	n/a	n/a	n/a	n/a	n/a	n/a	n/a	n/a	n/a	n/a
117193	WORD	wordpools/wasnorm_wordpool.txt	LTP073	ltpFR	9	1	0	SUBMARINE	1398	n/a	1	n/a	0	0	0	1	0.412841796875	0.57763671875	upper	../fonts/amplitud.ttf
120199	START	n/a	LTP073	ltpFR	9	n/a	n/a	n/a	n/a	n/a	n/a	n/a	n/a	n/a	n/a	n/a	n/a	n/a	n/a	n/a
121180	PROB	n/a	LTP073	ltpFR	9	n/a	n/a	n/a	n/a	n/a	n/a	14	9	4	1	n/a	n/a	n/a	n/a	n/a
122969	PROB	n/a	LTP073	ltpFR	9	n/a	n/a	n/a	n/a	n/a	n/a	15	8	3	4	n/a	n/a	n/a	n/a	n/a
124527	PROB	n/a	LTP073	ltpFR	9	n/a	n/a	n/a	n/a	n/a	n/a	17	3	7	7	n/a	n/a	n/a	n/a	n/a
125991	PROB	n/a	LTP073	ltpFR	9	n/a	n/a	n/a	n/a	n/a	n/a	11	2	3	6	n/a	n/a	n/a	n/a	n/a
127333	STOP	n/a	LTP073	ltpFR	9	n/a	n/a	n/a	n/a	n/a	n/a	n/a	n/a	n/a	n/a	n/a	n/a	n/a	n/a	n/a
129196	WORD	wordpools/wasnorm_wordpool.txt	LTP073	ltpFR	9	1	0	ARENA	37	n/a	1	n/a	0	0	0	1	0.412841796875	0.57763671875	upper	../fonts/amplitud.ttf
132201	START	n/a	LTP073	ltpFR	9	n/a	n/a	n/a	n/a	n/a	n/a	n/a	n/a	n/a	n/a	n/a	n/a	n/a	n/a	n/a
133275	PROB	n/a	LTP073	ltpFR	9	n/a	n/a	n/a	n/a	n/a	n/a	17	2	6	9	n/a	n/a	n/a	n/a	n/a
135355	PROB	n/a	LTP073	ltpFR	9	n/a	n/a	n/a	n/a	n/a	n/a	13	5	6	2	n/a	n/a	n/a	n/a	n/a
136919	PROB	n/a	LTP073	ltpFR	9	n/a	n/a	n/a	n/a	n/a	n/a	17	4	4	9	n/a	n/a	n/a	n/a	n/a
139125	STOP	n/a	LTP073	ltpFR	9	n/a	n/a	n/a	n/a	n/a	n/a	n/a	n/a	n/a	n/a	n/a	n/a	n/a	n/a	n/a
141324	WORD	wordpools/wasnorm_wordpool.txt	LTP073	ltpFR	9	1	0	HEADBAND	696	n/a	0	n/a	0	0	0	1	0.412841796875	0.57763671875	upper	../fonts/amplitud.ttf
144329	START	n/a	LTP073	ltpFR	9	n/a	n/a	n/a	n/a	n/a	n/a	n/a	n/a	n/a	n/a	n/a	n/a	n/a	n/a	n/a
145294	PROB	n/a	LTP073	ltpFR	9	n/a	n/a	n/a	n/a	n/a	n/a	14	9	2	3	n/a	n/a	n/a	n/a	n/a
146601	PROB	n/a	LTP073	ltpFR	9	n/a	n/a	n/a	n/a	n/a	n/a	17	4	6	7	n/a	n/a	n/a	n/a	n/a
150753	PROB	n/a	LTP073	ltpFR	9	n/a	n/a	n/a	n/a	n/a	n/a	17	9	1	7	n/a	n/a	n/a	n/a	n/a
152044	STOP	n/a	LTP073	ltpFR	9	n/a	n/a	n/a	n/a	n/a	n/a	n/a	n/a	n/a	n/a	n/a	n/a	n/a	n/a	n/a
153151	WORD	wordpools/wasnorm_wordpool.txt	LTP073	ltpFR	9	1	0	SHAMPOO	1274	n/a	0	n/a	0	0	0	1	0.412841796875	0.57763671875	upper	../fonts/amplitud.ttf
156157	START	n/a	LTP073	ltpFR	9	n/a	n/a	n/a	n/a	n/a	n/a	n/a	n/a	n/a	n/a	n/a	n/a	n/a	n/a	n/a
157338	PROB	n/a	LTP073	ltpFR	9	n/a	n/a	n/a	n/a	n/a	n/a	16	5	8	3	n/a	n/a	n/a	n/a	n/a
160110	PROB	n/a	LTP073	ltpFR	9	n/a	n/a	n/a	n/a	n/a	n/a	17	6	9	2	n/a	n/a	n/a	n/a	n/a
161982	PROB	n/a	LTP073	ltpFR	9	n/a	n/a	n/a	n/a	n/a	n/a	20	5	7	8	n/a	n/a	n/a	n/a	n/a
163828	STOP	n/a	LTP073	ltpFR	9	n/a	n/a	n/a	n/a	n/a	n/a	n/a	n/a	n/a	n/a	n/a	n/a	n/a	n/a	n/a
165121	WORD	wordpools/wasnorm_wordpool.txt	LTP073	ltpFR	9	1	0	PIGEON	1065	n/a	0	n/a	0	0	0	1	0.412841796875	0.57763671875	upper	../fonts/amplitud.ttf
168126	START	n/a	LTP073	ltpFR	9	n/a	n/a	n/a	n/a	n/a	n/a	n/a	n/a	n/a	n/a	n/a	n/a	n/a	n/a	n/a
169083	PROB	n/a	LTP073	ltpFR	9	n/a	n/a	n/a	n/a	n/a	n/a	17	3	6	8	n/a	n/a	n/a	n/a	n/a
170771	PROB	n/a	LTP073	ltpFR	9	n/a	n/a	n/a	n/a	n/a	n/a	21	9	6	6	n/a	n/a	n/a	n/a	n/a
172504	PROB	n/a	LTP073	ltpFR	9	n/a	n/a	n/a	n/a	n/a	n/a	22	5	8	9	n/a	n/a	n/a	n/a	n/a
176126	STOP	n/a	LTP073	ltpFR	9	n/a	n/a	n/a	n/a	n/a	n/a	n/a	n/a	n/a	n/a	n/a	n/a	n/a	n/a	n/a
177298	WORD	wordpools/wasnorm_wordpool.txt	LTP073	ltpFR	9	1	0	BLUEJAY	141	n/a	0	n/a	0	0	0	1	0.412841796875	0.57763671875	upper	../fonts/amplitud.ttf
180303	START	n/a	LTP073	ltpFR	9	n/a	n/a	n/a	n/a	n/a	n/a	n/a	n/a	n/a	n/a	n/a	n/a	n/a	n/a	n/a
181352	PROB	n/a	LTP073	ltpFR	9	n/a	n/a	n/a	n/a	n/a	n/a	13	9	2	2	n/a	n/a	n/a	n/a	n/a
182924	PROB	n/a	LTP073	ltpFR	9	n/a	n/a	n/a	n/a	n/a	n/a	5	1	3	1	n/a	n/a	n/a	n/a	n/a
184031	PROB	n/a	LTP073	ltpFR	9	n/a	n/a	n/a	n/a	n/a	n/a	12	2	7	3	n/a	n/a	n/a	n/a	n/a
185995	PROB	n/a	LTP073	ltpFR	9	n/a	n/a	n/a	n/a	n/a	n/a	9	7	1	1	n/a	n/a	n/a	n/a	n/a
187333	STOP	n/a	LTP073	ltpFR	9	n/a	n/a	n/a	n/a	n/a	n/a	n/a	n/a	n/a	n/a	n/a	n/a	n/a	n/a	n/a
189234	WORD	wordpools/wasnorm_wordpool.txt	LTP073	ltpFR	9	1	0	KITE	779	n/a	0	n/a	0	0	0	1	0.412841796875	0.57763671875	upper	../fonts/amplitud.ttf
192240	START	n/a	LTP073	ltpFR	9	n/a	n/a	n/a	n/a	n/a	n/a	n/a	n/a	n/a	n/a	n/a	n/a	n/a	n/a	n/a
193062	PROB	n/a	LTP073	ltpFR	9	n/a	n/a	n/a	n/a	n/a	n/a	9	4	2	3	n/a	n/a	n/a	n/a	n/a
194744	PROB	n/a	LTP073	ltpFR	9	n/a	n/a	n/a	n/a	n/a	n/a	14	3	4	7	n/a	n/a	n/a	n/a	n/a
196783	PROB	n/a	LTP073	ltpFR	9	n/a	n/a	n/a	n/a	n/a	n/a	23	7	9	7	n/a	n/a	n/a	n/a	n/a
199173	STOP	n/a	LTP073	ltpFR	9	n/a	n/a	n/a	n/a	n/a	n/a	n/a	n/a	n/a	n/a	n/a	n/a	n/a	n/a	n/a
201270	WORD	wordpools/wasnorm_wordpool.txt	LTP073	ltpFR	9	1	0	NOOSE	956	n/a	0	n/a	0	0	0	1	0.412841796875	0.57763671875	upper	../fonts/amplitud.ttf
204276	START	n/a	LTP073	ltpFR	9	n/a	n/a	n/a	n/a	n/a	n/a	n/a	n/a	n/a	n/a	n/a	n/a	n/a	n/a	n/a
205141	PROB	n/a	LTP073	ltpFR	9	n/a	n/a	n/a	n/a	n/a	n/a	24	7	8	9	n/a	n/a	n/a	n/a	n/a
207836	PROB	n/a	LTP073	ltpFR	9	n/a	n/a	n/a	n/a	n/a	n/a	21	7	7	7	n/a	n/a	n/a	n/a	n/a
209078	PROB	n/a	LTP073	ltpFR	9	n/a	n/a	n/a	n/a	n/a	n/a	11	8	2	1	n/a	n/a	n/a	n/a	n/a
210584	PROB	n/a	LTP073	ltpFR	9	n/a	n/a	n/a	n/a	n/a	n/a	11	6	3	2	n/a	n/a	n/a	n/a	n/a
211828	STOP	n/a	LTP073	ltpFR	9	n/a	n/a	n/a	n/a	n/a	n/a	n/a	n/a	n/a	n/a	n/a	n/a	n/a	n/a	n/a
213289	WORD	wordpools/wasnorm_wordpool.txt	LTP073	ltpFR	9	1	0	QUARTER	1148	n/a	0	n/a	0	0	0	1	0.412841796875	0.57763671875	upper	../fonts/amplitud.ttf
216295	START	n/a	LTP073	ltpFR	9	n/a	n/a	n/a	n/a	n/a	n/a	n/a	n/a	n/a	n/a	n/a	n/a	n/a	n/a	n/a
217343	PROB	n/a	LTP073	ltpFR	9	n/a	n/a	n/a	n/a	n/a	n/a	14	4	9	1	n/a	n/a	n/a	n/a	n/a
218899	PROB	n/a	LTP073	ltpFR	9	n/a	n/a	n/a	n/a	n/a	n/a	20	5	8	7	n/a	n/a	n/a	n/a	n/a
220796	PROB	n/a	LTP073	ltpFR	9	n/a	n/a	n/a	n/a	n/a	n/a	16	6	7	3	n/a	n/a	n/a	n/a	n/a
223477	STOP	n/a	LTP073	ltpFR	9	n/a	n/a	n/a	n/a	n/a	n/a	n/a	n/a	n/a	n/a	n/a	n/a	n/a	n/a	n/a
225442	WORD	wordpools/wasnorm_wordpool.txt	LTP073	ltpFR	9	1	0	CREAM	402	n/a	0	n/a	0	0	0	1	0.412841796875	0.57763671875	upper	../fonts/amplitud.ttf
228447	START	n/a	LTP073	ltpFR	9	n/a	n/a	n/a	n/a	n/a	n/a	n/a	n/a	n/a	n/a	n/a	n/a	n/a	n/a	n/a
229329	PROB	n/a	LTP073	ltpFR	9	n/a	n/a	n/a	n/a	n/a	n/a	22	4	9	9	n/a	n/a	n/a	n/a	n/a
231034	PROB	n/a	LTP073	ltpFR	9	n/a	n/a	n/a	n/a	n/a	n/a	9	3	2	4	n/a	n/a	n/a	n/a	n/a
233049	PROB	n/a	LTP073	ltpFR	9	n/a	n/a	n/a	n/a	n/a	n/a	13	5	1	7	n/a	n/a	n/a	n/a	n/a
235709	STOP	n/a	LTP073	ltpFR	9	n/a	n/a	n/a	n/a	n/a	n/a	n/a	n/a	n/a	n/a	n/a	n/a	n/a	n/a	n/a
237553	WORD	wordpools/wasnorm_wordpool.txt	LTP073	ltpFR	9	1	0	CONTRACTOR	369	n/a	1	n/a	0	0	0	1	0.412841796875	0.57763671875	upper	../fonts/amplitud.ttf
240558	START	n/a	LTP073	ltpFR	9	n/a	n/a	n/a	n/a	n/a	n/a	n/a	n/a	n/a	n/a	n/a	n/a	n/a	n/a	n/a
241706	PROB	n/a	LTP073	ltpFR	9	n/a	n/a	n/a	n/a	n/a	n/a	12	3	8	1	n/a	n/a	n/a	n/a	n/a
243113	PROB	n/a	LTP073	ltpFR	9	n/a	n/a	n/a	n/a	n/a	n/a	7	3	3	1	n/a	n/a	n/a	n/a	n/a
244553	PROB	n/a	LTP073	ltpFR	9	n/a	n/a	n/a	n/a	n/a	n/a	7	1	2	4	n/a	n/a	n/a	n/a	n/a
247237	STOP	n/a	LTP073	ltpFR	9	n/a	n/a	n/a	n/a	n/a	n/a	n/a	n/a	n/a	n/a	n/a	n/a	n/a	n/a	n/a
249705	WORD	wordpools/wasnorm_wordpool.txt	LTP073	ltpFR	9	1	0	PENNY	1045	n/a	0	n/a	0	0	0	1	0.412841796875	0.57763671875	upper	../fonts/amplitud.ttf
252710	START	n/a	LTP073	ltpFR	9	n/a	n/a	n/a	n/a	n/a	n/a	n/a	n/a	n/a	n/a	n/a	n/a	n/a	n/a	n/a
253908	PROB	n/a	LTP073	ltpFR	9	n/a	n/a	n/a	n/a	n/a	n/a	15	5	6	4	n/a	n/a	n/a	n/a	n/a
255864	PROB	n/a	LTP073	ltpFR	9	n/a	n/a	n/a	n/a	n/a	n/a	13	4	7	3	n/a	n/a	n/a	n/a	n/a
257062	PROB	n/a	LTP073	ltpFR	9	n/a	n/a	n/a	n/a	n/a	n/a	13	7	5	1	n/a	n/a	n/a	n/a	n/a
258985	PROB	n/a	LTP073	ltpFR	9	n/a	n/a	n/a	n/a	n/a	n/a	18	6	8	4	n/a	n/a	n/a	n/a	n/a
260517	STOP	n/a	LTP073	ltpFR	9	n/a	n/a	n/a	n/a	n/a	n/a	n/a	n/a	n/a	n/a	n/a	n/a	n/a	n/a	n/a
261857	WORD	wordpools/wasnorm_wordpool.txt	LTP073	ltpFR	9	1	0	MULE	931	n/a	1	n/a	0	0	0	1	0.412841796875	0.57763671875	upper	../fonts/amplitud.ttf
264862	START	n/a	LTP073	ltpFR	9	n/a	n/a	n/a	n/a	n/a	n/a	n/a	n/a	n/a	n/a	n/a	n/a	n/a	n/a	n/a
266002	PROB	n/a	LTP073	ltpFR	9	n/a	n/a	n/a	n/a	n/a	n/a	11	1	6	4	n/a	n/a	n/a	n/a	n/a
267618	PROB	n/a	LTP073	ltpFR	9	n/a	n/a	n/a	n/a	n/a	n/a	20	3	9	8	n/a	n/a	n/a	n/a	n/a
269324	PROB	n/a	LTP073	ltpFR	9	n/a	n/a	n/a	n/a	n/a	n/a	21	7	8	6	n/a	n/a	n/a	n/a	n/a
270963	PROB	n/a	LTP073	ltpFR	9	n/a	n/a	n/a	n/a	n/a	n/a	9	1	7	1	n/a	n/a	n/a	n/a	n/a
272133	STOP	n/a	LTP073	ltpFR	9	n/a	n/a	n/a	n/a	n/a	n/a	n/a	n/a	n/a	n/a	n/a	n/a	n/a	n/a	n/a
274017	WORD	wordpools/wasnorm_wordpool.txt	LTP073	ltpFR	9	1	0	TOOTHBRUSH	1482	n/a	0	n/a	0	0	0	1	0.412841796875	0.57763671875	upper	../fonts/amplitud.ttf
277023	START	n/a	LTP073	ltpFR	9	n/a	n/a	n/a	n/a	n/a	n/a	n/a	n/a	n/a	n/a	n/a	n/a	n/a	n/a	n/a
277971	PROB	n/a	LTP073	ltpFR	9	n/a	n/a	n/a	n/a	n/a	n/a	13	1	3	9	n/a	n/a	n/a	n/a	n/a
279487	PROB	n/a	LTP073	ltpFR	9	n/a	n/a	n/a	n/a	n/a	n/a	19	9	3	7	n/a	n/a	n/a	n/a	n/a
281335	PROB	n/a	LTP073	ltpFR	9	n/a	n/a	n/a	n/a	n/a	n/a	16	4	7	5	n/a	n/a	n/a	n/a	n/a
283124	PROB	n/a	LTP073	ltpFR	9	n/a	n/a	n/a	n/a	n/a	n/a	15	3	4	8	n/a	n/a	n/a	n/a	n/a
284581	STOP	n/a	LTP073	ltpFR	9	n/a	n/a	n/a	n/a	n/a	n/a	n/a	n/a	n/a	n/a	n/a	n/a	n/a	n/a	n/a
286053	WORD	wordpools/wasnorm_wordpool.txt	LTP073	ltpFR	9	1	0	SPRINKLE	1359	n/a	0	n/a	0	0	0	1	0.412841796875	0.57763671875	upper	../fonts/amplitud.ttf
289058	START	n/a	LTP073	ltpFR	9	n/a	n/a	n/a	n/a	n/a	n/a	n/a	n/a	n/a	n/a	n/a	n/a	n/a	n/a	n/a
290241	PROB	n/a	LTP073	ltpFR	9	n/a	n/a	n/a	n/a	n/a	n/a	15	5	3	7	n/a	n/a	n/a	n/a	n/a
292038	PROB	n/a	LTP073	ltpFR	9	n/a	n/a	n/a	n/a	n/a	n/a	15	3	7	5	n/a	n/a	n/a	n/a	n/a
293254	PROB	n/a	LTP073	ltpFR	9	n/a	n/a	n/a	n/a	n/a	n/a	11	6	2	3	n/a	n/a	n/a	n/a	n/a
296117	STOP	n/a	LTP073	ltpFR	9	n/a	n/a	n/a	n/a	n/a	n/a	n/a	n/a	n/a	n/a	n/a	n/a	n/a	n/a	n/a
298864	REC_START	n/a	LTP073	ltpFR	9	1	n/a	n/a	n/a	n/a	n/a	n/a	0	0	0	n/a	n/a	n/a	n/a	n/a
299916	REC_WORD	wordpools/wasnorm_wordpool.txt	LTP073	ltpFR	9	1	0	SPRINKLE	1359	n/a	0	n/a	0	0	0	n/a	n/a	n/a	n/a	n/a
301283	REC_WORD	wordpools/wasnorm_wordpool.txt	LTP073	ltpFR	9	1	0	QUARTER	1148	n/a	0	n/a	0	0	0	n/a	n/a	n/a	n/a	n/a
302331	REC_WORD	wordpools/wasnorm_wordpool.txt	LTP073	ltpFR	9	1	n/a	DIME	466	n/a	n/a	n/a	0	0	0	n/a	n/a	n/a	n/a	n/a
303513	REC_WORD	wordpools/wasnorm_wordpool.txt	LTP073	ltpFR	9	1	0	SHAMPOO	1274	n/a	0	n/a	0	0	0	n/a	n/a	n/a	n/a	n/a
304345	REC_WORD	wordpools/wasnorm_wordpool.txt	LTP073	ltpFR	9	1	0	HEADBAND	696	n/a	0	n/a	0	0	0	n/a	n/a	n/a	n/a	n/a
305633	REC_WORD	wordpools/wasnorm_wordpool.txt	LTP073	ltpFR	9	1	0	ANTEATER	26	n/a	1	n/a	0	0	0	n/a	n/a	n/a	n/a	n/a
307055	REC_WORD	wordpools/wasnorm_wordpool.txt	LTP073	ltpFR	9	1	0	ARENA	37	n/a	1	n/a	0	0	0	n/a	n/a	n/a	n/a	n/a
307807	REC_WORD	wordpools/wasnorm_wordpool.txt	LTP073	ltpFR	9	1	0	SUBMARINE	1398	n/a	1	n/a	0	0	0	n/a	n/a	n/a	n/a	n/a
308807	REC_WORD_VV	wordpools/wasnorm_wordpool.txt	LTP073	ltpFR	9	1	n/a	<>	-1	n/a	n/a	n/a	0	0	0	n/a	n/a	n/a	n/a	n/a
314758	REC_WORD	wordpools/wasnorm_wordpool.txt	LTP073	ltpFR	9	1	0	PIGEON	1065	n/a	0	n/a	0	0	0	n/a	n/a	n/a	n/a	n/a
315870	REC_WORD	wordpools/wasnorm_wordpool.txt	LTP073	ltpFR	9	1	0	BLUEJAY	141	n/a	0	n/a	0	0	0	n/a	n/a	n/a	n/a	n/a
320055	REC_WORD	wordpools/wasnorm_wordpool.txt	LTP073	ltpFR	9	1	0	NOOSE	956	n/a	0	n/a	0	0	0	n/a	n/a	n/a	n/a	n/a
322276	REC_WORD	wordpools/wasnorm_wordpool.txt	LTP073	ltpFR	9	1	0	KITE	779	n/a	0	n/a	0	0	0	n/a	n/a	n/a	n/a	n/a
354004	REC_WORD	wordpools/wasnorm_wordpool.txt	LTP073	ltpFR	9	1	0	TOOTHBRUSH	1482	n/a	0	n/a	0	0	0	n/a	n/a	n/a	n/a	n/a
378870	WORD	wordpools/wasnorm_wordpool.txt	LTP073	ltpFR	9	2	0	ASSOCIATE	49	n/a	1	n/a	0	0	0	1	0.412841796875	0.57763671875	upper	../fonts/amplitud.ttf
382799	WORD	wordpools/wasnorm_wordpool.txt	LTP073	ltpFR	9	2	0	CHICKEN	297	n/a	0	n/a	0	0	0	1	0.412841796875	0.57763671875	upper	../fonts/amplitud.ttf
386919	WORD	wordpools/wasnorm_wordpool.txt	LTP073	ltpFR	9	2	0	JUDGE	761	n/a	1	n/a	0	0	0	1	0.412841796875	0.57763671875	upper	../fonts/amplitud.ttf
391098	WORD	wordpools/wasnorm_wordpool.txt	LTP073	ltpFR	9	2	0	STAPLER	1372	n/a	0	n/a	0	0	0	1	0.412841796875	0.57763671875	upper	../fonts/amplitud.ttf
395277	WORD	wordpools/wasnorm_wordpool.txt	LTP073	ltpFR	9	2	1	CONTRACT	368	n/a	0	n/a	0	0	0	0	0.5869140625	0.422607421875	lower	../fonts/zerothre.ttf
399189	WORD	wordpools/wasnorm_wordpool.txt	LTP073	ltpFR	9	2	1	ATTORNEY	58	n/a	1	n/a	0	0	0	0	0.5869140625	0.422607421875	lower	../fonts/zerothre.ttf
403326	WORD	wordpools/wasnorm_wordpool.txt	LTP073	ltpFR	9	2	1	VINEGAR	1569	n/a	0	n/a	0	0	0	0	0.5869140625	0.422607421875	lower	../fonts/zerothre.ttf
407396	WORD	wordpools/wasnorm_wordpool.txt	LTP073	ltpFR	9	2	1	DINER	467	n/a	0	n/a	0	0	0	0	0.5869140625	0.422607421875	lower	../fonts/zerothre.ttf
411399	WORD	wordpools/wasnorm_wordpool.txt	LTP073	ltpFR	9	2	0	FIG	563	n/a	0	n/a	0	0	0	1	0.412841796875	0.57763671875	upper	../fonts/amplitud.ttf
415328	WORD	wordpools/wasnorm_wordpool.txt	LTP073	ltpFR	9	2	0	ELM	527	n/a	1	n/a	0	0	0	1	0.412841796875	0.57763671875	upper	../fonts/amplitud.ttf
419390	WORD	wordpools/wasnorm_wordpool.txt	LTP073	ltpFR	9	2	0	TRAY	1498	n/a	0	n/a	0	0	0	1	0.412841796875	0.57763671875	upper	../fonts/amplitud.ttf
423535	WORD	wordpools/wasnorm_wordpool.txt	LTP073	ltpFR	9	2	0	BAIT	70	n/a	0	n/a	0	0	0	1	0.412841796875	0.57763671875	upper	../fonts/amplitud.ttf
427389	WORD	wordpools/wasnorm_wordpool.txt	LTP073	ltpFR	9	2	1	COPIER	377	n/a	0	n/a	0	0	0	0	0.5869140625	0.422607421875	lower	../fonts/zerothre.ttf
431576	WORD	wordpools/wasnorm_wordpool.txt	LTP073	ltpFR	9	2	1	PLANE	1081	n/a	0	n/a	0	0	0	0	0.5869140625	0.422607421875	lower	../fonts/zerothre.ttf
435604	WORD	wordpools/wasnorm_wordpool.txt	LTP073	ltpFR	9	2	1	TICKET	1464	n/a	0	n/a	0	0	0	0	0.5869140625	0.422607421875	lower	../fonts/zerothre.ttf
439765	WORD	wordpools/wasnorm_wordpool.txt	LTP073	ltpFR	9	2	1	NEWSSTAND	949	n/a	0	n/a	0	0	0	0	0.5869140625	0.422607421875	lower	../fonts/zerothre.ttf
442770	START	n/a	LTP073	ltpFR	9	n/a	n/a	n/a	n/a	n/a	n/a	n/a	n/a	n/a	n/a	n/a	n/a	n/a	n/a	n/a
443885	PROB	n/a	LTP073	ltpFR	9	n/a	n/a	n/a	n/a	n/a	n/a	22	9	8	3	n/a	n/a	n/a	n/a	n/a
446016	PROB	n/a	LTP073	ltpFR	9	n/a	n/a	n/a	n/a	n/a	n/a	19	8	6	5	n/a	n/a	n/a	n/a	n/a
447748	PROB	n/a	LTP073	ltpFR	9	n/a	n/a	n/a	n/a	n/a	n/a	8	1	2	5	n/a	n/a	n/a	n/a	n/a
450469	STOP	n/a	LTP073	ltpFR	9	n/a	n/a	n/a	n/a	n/a	n/a	n/a	n/a	n/a	n/a	n/a	n/a	n/a	n/a	n/a
452660	REC_START	n/a	LTP073	ltpFR	9	2	n/a	n/a	n/a	n/a	n/a	n/a	0	0	0	n/a	n/a	n/a	n/a	n/a
455259	REC_WORD	wordpools/wasnorm_wordpool.txt	LTP073	ltpFR	9	2	0	BAIT	70	n/a	0	n/a	0	0	0	n/a	n/a	n/a	n/a	n/a
455957	REC_WORD	wordpools/wasnorm_wordpool.txt	LTP073	ltpFR	9	2	1	COPIER	377	n/a	0	n/a	0	0	0	n/a	n/a	n/a	n/a	n/a
456995	REC_WORD	wordpools/wasnorm_wordpool.txt	LTP073	ltpFR	9	2	1	NEWSSTAND	949	n/a	0	n/a	0	0	0	n/a	n/a	n/a	n/a	n/a
458102	REC_WORD	wordpools/wasnorm_wordpool.txt	LTP073	ltpFR	9	2	1	DINER	467	n/a	0	n/a	0	0	0	n/a	n/a	n/a	n/a	n/a
459290	REC_WORD	wordpools/wasnorm_wordpool.txt	LTP073	ltpFR	9	2	0	TRAY	1498	n/a	0	n/a	0	0	0	n/a	n/a	n/a	n/a	n/a
460133	REC_WORD	wordpools/wasnorm_wordpool.txt	LTP073	ltpFR	9	2	0	FIG	563	n/a	0	n/a	0	0	0	n/a	n/a	n/a	n/a	n/a
462392	REC_WORD	wordpools/wasnorm_wordpool.txt	LTP073	ltpFR	9	2	1	ATTORNEY	58	n/a	1	n/a	0	0	0	n/a	n/a	n/a	n/a	n/a
463103	REC_WORD	wordpools/wasnorm_wordpool.txt	LTP073	ltpFR	9	2	0	ASSOCIATE	49	n/a	1	n/a	0	0	0	n/a	n/a	n/a	n/a	n/a
464199	REC_WORD	wordpools/wasnorm_wordpool.txt	LTP073	ltpFR	9	2	0	JUDGE	761	n/a	1	n/a	0	0	0	n/a	n/a	n/a	n/a	n/a
465615	REC_WORD	wordpools/wasnorm_wordpool.txt	LTP073	ltpFR	9	2	0	STAPLER	1372	n/a	0	n/a	0	0	0	n/a	n/a	n/a	n/a	n/a
479643	REC_WORD	wordpools/wasnorm_wordpool.txt	LTP073	ltpFR	9	2	0	ELM	527	n/a	1	n/a	0	0	0	n/a	n/a	n/a	n/a	n/a
481734	REC_WORD	wordpools/wasnorm_wordpool.txt	LTP073	ltpFR	9	2	1	VINEGAR	1569	n/a	0	n/a	0	0	0	n/a	n/a	n/a	n/a	n/a
483056	REC_WORD	wordpools/wasnorm_wordpool.txt	LTP073	ltpFR	9	2	1	DINER	467	n/a	0	n/a	0	0	0	n/a	n/a	n/a	n/a	n/a
530327	START	n/a	LTP073	ltpFR	9	n/a	n/a	n/a	n/a	n/a	n/a	n/a	n/a	n/a	n/a	n/a	n/a	n/a	n/a	n/a
531833	PROB	n/a	LTP073	ltpFR	9	n/a	n/a	n/a	n/a	n/a	n/a	13	6	6	1	n/a	n/a	n/a	n/a	n/a
533399	PROB	n/a	LTP073	ltpFR	9	n/a	n/a	n/a	n/a	n/a	n/a	7	1	1	5	n/a	n/a	n/a	n/a	n/a
534854	PROB	n/a	LTP073	ltpFR	9	n/a	n/a	n/a	n/a	n/a	n/a	20	5	8	7	n/a	n/a	n/a	n/a	n/a
538717	PROB	n/a	LTP073	ltpFR	9	n/a	n/a	n/a	n/a	n/a	n/a	12	4	6	2	n/a	n/a	n/a	n/a	n/a
540265	PROB	n/a	LTP073	ltpFR	9	n/a	n/a	n/a	n/a	n/a	n/a	14	1	7	6	n/a	n/a	n/a	n/a	n/a
542130	PROB	n/a	LTP073	ltpFR	9	n/a	n/a	n/a	n/a	n/a	n/a	19	9	1	9	n/a	n/a	n/a	n/a	n/a
543927	PROB	n/a	LTP073	ltpFR	9	n/a	n/a	n/a	n/a	n/a	n/a	18	3	7	8	n/a	n/a	n/a	n/a	n/a
545461	STOP	n/a	LTP073	ltpFR	9	n/a	n/a	n/a	n/a	n/a	n/a	n/a	n/a	n/a	n/a	n/a	n/a	n/a	n/a	n/a
547465	WORD	wordpools/wasnorm_wordpool.txt	LTP073	ltpFR	9	3	0	BARREL	91	n/a	1	n/a	0	0	0	1	0.412841796875	0.57763671875	upper	../fonts/amplitud.ttf
550471	START	n/a	LTP073	ltpFR	9	n/a	n/a	n/a	n/a	n/a	n/a	n/a	n/a	n/a	n/a	n/a	n/a	n/a	n/a	n/a
551636	PROB	n/a	LTP073	ltpFR	9	n/a	n/a	n/a	n/a	n/a	n/a	16	5	6	5	n/a	n/a	n/a	n/a	n/a
553250	PROB	n/a	LTP073	ltpFR	9	n/a	n/a	n/a	n/a	n/a	n/a	25	7	9	9	n/a	n/a	n/a	n/a	n/a
555489	PROB	n/a	LTP073	ltpFR	9	n/a	n/a	n/a	n/a	n/a	n/a	17	7	2	8	n/a	n/a	n/a	n/a	n/a
557445	PROB	n/a	LTP073	ltpFR	9	n/a	n/a	n/a	n/a	n/a	n/a	24	8	9	7	n/a	n/a	n/a	n/a	n/a
560442	PROB	n/a	LTP073	ltpFR	9	n/a	n/a	n/a	n/a	n/a	n/a	15	3	7	5	n/a	n/a	n/a	n/a	n/a
561956	PROB	n/a	LTP073	ltpFR	9	n/a	n/a	n/a	n/a	n/a	n/a	12	6	1	5	n/a	n/a	n/a	n/a	n/a
564470	PROB	n/a	LTP073	ltpFR	9	n/a	n/a	n/a	n/a	n/a	n/a	17	2	6	9	n/a	n/a	n/a	n/a	n/a
566461	STOP	n/a	LTP073	ltpFR	9	n/a	n/a	n/a	n/a	n/a	n/a	n/a	n/a	n/a	n/a	n/a	n/a	n/a	n/a	n/a
567625	WORD	wordpools/wasnorm_wordpool.txt	LTP073	ltpFR	9	3	0	CUCUMBER	421	n/a	0	n/a	0	0	0	1	0.412841796875	0.57763671875	upper	../fonts/amplitud.ttf
570630	START	n/a	LTP073	ltpFR	9	n/a	n/a	n/a	n/a	n/a	n/a	n/a	n/a	n/a	n/a	n/a	n/a	n/a	n/a	n/a
571819	PROB	n/a	LTP073	ltpFR	9	n/a	n/a	n/a	n/a	n/a	n/a	18	5	6	9	n/a	n/a	n/a	n/a	n/a
573518	PROB	n/a	LTP073	ltpFR	9	n/a	n/a	n/a	n/a	n/a	n/a	20	6	5	9	n/a	n/a	n/a	n/a	n/a
575533	PROB	n/a	LTP073	ltpFR	9	n/a	n/a	n/a	n/a	n/a	n/a	12	2	8	2	n/a	n/a	n/a	n/a	n/a
577081	PROB	n/a	LTP073	ltpFR	9	n/a	n/a	n/a	n/a	n/a	n/a	22	4	9	9	n/a	n/a	n/a	n/a	n/a
578637	PROB	n/a	LTP073	ltpFR	9	n/a	n/a	n/a	n/a	n/a	n/a	17	4	7	6	n/a	n/a	n/a	n/a	n/a
580577	PROB	n/a	LTP073	ltpFR	9	n/a	n/a	n/a	n/a	n/a	n/a	14	8	5	1	n/a	n/a	n/a	n/a	n/a
582591	PROB	n/a	LTP073	ltpFR	9	n/a	n/a	n/a	n/a	n/a	n/a	11	4	6	1	n/a	n/a	n/a	n/a	n/a
583780	PROB	n/a	LTP073	ltpFR	9	n/a	n/a	n/a	n/a	n/a	n/a	14	3	8	3	n/a	n/a	n/a	n/a	n/a
585669	STOP	n/a	LTP073	ltpFR	9	n/a	n/a	n/a	n/a	n/a	n/a	n/a	n/a	n/a	n/a	n/a	n/a	n/a	n/a	n/a
587618	WORD	wordpools/wasnorm_wordpool.txt	LTP073	ltpFR	9	3	0	HANDBAG	684	n/a	0	n/a	0	0	0	1	0.412841796875	0.57763671875	upper	../fonts/amplitud.ttf
590624	START	n/a	LTP073	ltpFR	9	n/a	n/a	n/a	n/a	n/a	n/a	n/a	n/a	n/a	n/a	n/a	n/a	n/a	n/a	n/a
591821	PROB	n/a	LTP073	ltpFR	9	n/a	n/a	n/a	n/a	n/a	n/a	24	7	9	8	n/a	n/a	n/a	n/a	n/a
594094	PROB	n/a	LTP073	ltpFR	9	n/a	n/a	n/a	n/a	n/a	n/a	7	1	2	4	n/a	n/a	n/a	n/a	n/a
595916	PROB	n/a	LTP073	ltpFR	9	n/a	n/a	n/a	n/a	n/a	n/a	15	5	4	6	n/a	n/a	n/a	n/a	n/a
598614	PROB	n/a	LTP073	ltpFR	9	n/a	n/a	n/a	n/a	n/a	n/a	20	9	5	6	n/a	n/a	n/a	n/a	n/a
600387	PROB	n/a	LTP073	ltpFR	9	n/a	n/a	n/a	n/a	n/a	n/a	20	5	6	9	n/a	n/a	n/a	n/a	n/a
602791	PROB	n/a	LTP073	ltpFR	9	n/a	n/a	n/a	n/a	n/a	n/a	15	4	4	7	n/a	n/a	n/a	n/a	n/a
606624	STOP	n/a	LTP073	ltpFR	9	n/a	n/a	n/a	n/a	n/a	n/a	n/a	n/a	n/a	n/a	n/a	n/a	n/a	n/a	n/a
607487	WORD	wordpools/wasnorm_wordpool.txt	LTP073	ltpFR	9	3	0	VAGRANT	1544	n/a	0	n/a	0	0	0	1	0.412841796875	0.57763671875	upper	../fonts/amplitud.ttf
610492	START	n/a	LTP073	ltpFR	9	n/a	n/a	n/a	n/a	n/a	n/a	n/a	n/a	n/a	n/a	n/a	n/a	n/a	n/a	n/a
611299	PROB	n/a	LTP073	ltpFR	9	n/a	n/a	n/a	n/a	n/a	n/a	6	3	1	2	n/a	n/a	n/a	n/a	n/a
612846	PROB	n/a	LTP073	ltpFR	9	n/a	n/a	n/a	n/a	n/a	n/a	11	1	7	3	n/a	n/a	n/a	n/a	n/a
614479	PROB	n/a	LTP073	ltpFR	9	n/a	n/a	n/a	n/a	n/a	n/a	7	1	4	2	n/a	n/a	n/a	n/a	n/a
615901	PROB	n/a	LTP073	ltpFR	9	n/a	n/a	n/a	n/a	n/a	n/a	17	9	6	2	n/a	n/a	n/a	n/a	n/a
617650	PROB	n/a	LTP073	ltpFR	9	n/a	n/a	n/a	n/a	n/a	n/a	15	2	6	7	n/a	n/a	n/a	n/a	n/a
619157	PROB	n/a	LTP073	ltpFR	9	n/a	n/a	n/a	n/a	n/a	n/a	15	2	5	8	n/a	n/a	n/a	n/a	n/a
620713	PROB	n/a	LTP073	ltpFR	9	n/a	n/a	n/a	n/a	n/a	n/a	15	3	5	7	n/a	n/a	n/a	n/a	n/a
622320	PROB	n/a	LTP073	ltpFR	9	n/a	n/a	n/a	n/a	n/a	n/a	13	3	7	3	n/a	n/a	n/a	n/a	n/a
624033	PROB	n/a	LTP073	ltpFR	9	n/a	n/a	n/a	n/a	n/a	n/a	12	4	6	2	n/a	n/a	n/a	n/a	n/a
625717	STOP	n/a	LTP073	ltpFR	9	n/a	n/a	n/a	n/a	n/a	n/a	n/a	n/a	n/a	n/a	n/a	n/a	n/a	n/a	n/a
627655	WORD	wordpools/wasnorm_wordpool.txt	LTP073	ltpFR	9	3	0	CHESS	294	n/a	0	n/a	0	0	0	1	0.412841796875	0.57763671875	upper	../fonts/amplitud.ttf
630660	START	n/a	LTP073	ltpFR	9	n/a	n/a	n/a	n/a	n/a	n/a	n/a	n/a	n/a	n/a	n/a	n/a	n/a	n/a	n/a
631525	PROB	n/a	LTP073	ltpFR	9	n/a	n/a	n/a	n/a	n/a	n/a	15	8	6	1	n/a	n/a	n/a	n/a	n/a
632840	PROB	n/a	LTP073	ltpFR	9	n/a	n/a	n/a	n/a	n/a	n/a	24	8	8	8	n/a	n/a	n/a	n/a	n/a
634730	PROB	n/a	LTP073	ltpFR	9	n/a	n/a	n/a	n/a	n/a	n/a	15	6	2	7	n/a	n/a	n/a	n/a	n/a
636445	PROB	n/a	LTP073	ltpFR	9	n/a	n/a	n/a	n/a	n/a	n/a	14	2	3	9	n/a	n/a	n/a	n/a	n/a
638351	PROB	n/a	LTP073	ltpFR	9	n/a	n/a	n/a	n/a	n/a	n/a	10	4	5	1	n/a	n/a	n/a	n/a	n/a
639781	PROB	n/a	LTP073	ltpFR	9	n/a	n/a	n/a	n/a	n/a	n/a	13	7	5	1	n/a	n/a	n/a	n/a	n/a
641206	PROB	n/a	LTP073	ltpFR	9	n/a	n/a	n/a	n/a	n/a	n/a	10	3	6	1	n/a	n/a	n/a	n/a	n/a
642936	PROB	n/a	LTP073	ltpFR	9	n/a	n/a	n/a	n/a	n/a	n/a	22	8	6	8	n/a	n/a	n/a	n/a	n/a
646659	STOP	n/a	LTP073	ltpFR	9	n/a	n/a	n/a	n/a	n/a	n/a	n/a	n/a	n/a	n/a	n/a	n/a	n/a	n/a	n/a
647822	WORD	wordpools/wasnorm_wordpool.txt	LTP073	ltpFR	9	3	0	SEAL	1262	n/a	1	n/a	0	0	0	1	0.412841796875	0.57763671875	upper	../fonts/amplitud.ttf
650827	START	n/a	LTP073	ltpFR	9	n/a	n/a	n/a	n/a	n/a	n/a	n/a	n/a	n/a	n/a	n/a	n/a	n/a	n/a	n/a
651834	PROB	n/a	LTP073	ltpFR	9	n/a	n/a	n/a	n/a	n/a	n/a	10	7	1	2	n/a	n/a	n/a	n/a	n/a
653233	PROB	n/a	LTP073	ltpFR	9	n/a	n/a	n/a	n/a	n/a	n/a	17	8	6	3	n/a	n/a	n/a	n/a	n/a
655030	PROB	n/a	LTP073	ltpFR	9	n/a	n/a	n/a	n/a	n/a	n/a	13	2	6	5	n/a	n/a	n/a	n/a	n/a
657129	PROB	n/a	LTP073	ltpFR	9	n/a	n/a	n/a	n/a	n/a	n/a	11	3	9	2	n/a	n/a	n/a	n/a	n/a
660940	PROB	n/a	LTP073	ltpFR	9	n/a	n/a	n/a	n/a	n/a	n/a	18	6	7	5	n/a	n/a	n/a	n/a	n/a
663021	PROB	n/a	LTP073	ltpFR	9	n/a	n/a	n/a	n/a	n/a	n/a	6	2	3	1	n/a	n/a	n/a	n/a	n/a
664112	PROB	n/a	LTP073	ltpFR	9	n/a	n/a	n/a	n/a	n/a	n/a	6	4	1	1	n/a	n/a	n/a	n/a	n/a
666827	STOP	n/a	LTP073	ltpFR	9	n/a	n/a	n/a	n/a	n/a	n/a	n/a	n/a	n/a	n/a	n/a	n/a	n/a	n/a	n/a
667998	WORD	wordpools/wasnorm_wordpool.txt	LTP073	ltpFR	9	3	0	SATURN	1236	n/a	1	n/a	0	0	0	1	0.412841796875	0.57763671875	upper	../fonts/amplitud.ttf
671004	START	n/a	LTP073	ltpFR	9	n/a	n/a	n/a	n/a	n/a	n/a	n/a	n/a	n/a	n/a	n/a	n/a	n/a	n/a	n/a
672035	PROB	n/a	LTP073	ltpFR	9	n/a	n/a	n/a	n/a	n/a	n/a	17	6	8	3	n/a	n/a	n/a	n/a	n/a
673950	PROB	n/a	LTP073	ltpFR	9	n/a	n/a	n/a	n/a	n/a	n/a	17	3	8	6	n/a	n/a	n/a	n/a	n/a
676022	PROB	n/a	LTP073	ltpFR	9	n/a	n/a	n/a	n/a	n/a	n/a	23	8	7	8	n/a	n/a	n/a	n/a	n/a
680068	PROB	n/a	LTP073	ltpFR	9	n/a	n/a	n/a	n/a	n/a	n/a	16	7	4	5	n/a	n/a	n/a	n/a	n/a
682150	PROB	n/a	LTP073	ltpFR	9	n/a	n/a	n/a	n/a	n/a	n/a	7	1	3	3	n/a	n/a	n/a	n/a	n/a
683681	PROB	n/a	LTP073	ltpFR	9	n/a	n/a	n/a	n/a	n/a	n/a	14	8	4	2	n/a	n/a	n/a	n/a	n/a
687003	STOP	n/a	LTP073	ltpFR	9	n/a	n/a	n/a	n/a	n/a	n/a	n/a	n/a	n/a	n/a	n/a	n/a	n/a	n/a	n/a
688058	WORD	wordpools/wasnorm_wordpool.txt	LTP073	ltpFR	9	3	0	TROUSERS	1510	n/a	2	n/a	0	0	0	1	0.412841796875	0.57763671875	upper	../fonts/amplitud.ttf
690938	KEY_MSG	n/a	LTP073	ltpFR	9	3	n/a	n/a	n/a	n/a	n/a	n/a	0	0	0	n/a	n/a	n/a	n/a	n/a
692455	START	n/a	LTP073	ltpFR	9	n/a	n/a	n/a	n/a	n/a	n/a	n/a	n/a	n/a	n/a	n/a	n/a	n/a	n/a	n/a
693353	PROB	n/a	LTP073	ltpFR	9	n/a	n/a	n/a	n/a	n/a	n/a	15	5	8	2	n/a	n/a	n/a	n/a	n/a
695134	PROB	n/a	LTP073	ltpFR	9	n/a	n/a	n/a	n/a	n/a	n/a	18	8	3	7	n/a	n/a	n/a	n/a	n/a
697440	PROB	n/a	LTP073	ltpFR	9	n/a	n/a	n/a	n/a	n/a	n/a	20	5	9	6	n/a	n/a	n/a	n/a	n/a
699313	PROB	n/a	LTP073	ltpFR	9	n/a	n/a	n/a	n/a	n/a	n/a	18	7	9	2	n/a	n/a	n/a	n/a	n/a
701568	PROB	n/a	LTP073	ltpFR	9	n/a	n/a	n/a	n/a	n/a	n/a	14	6	5	3	n/a	n/a	n/a	n/a	n/a
703033	PROB	n/a	LTP073	ltpFR	9	n/a	n/a	n/a	n/a	n/a	n/a	20	8	4	8	n/a	n/a	n/a	n/a	n/a
704665	PROB	n/a	LTP073	ltpFR	9	n/a	n/a	n/a	n/a	n/a	n/a	11	4	6	1	n/a	n/a	n/a	n/a	n/a
705804	PROB	n/a	LTP073	ltpFR	9	n/a	n/a	n/a	n/a	n/a	n/a	16	6	2	8	n/a	n/a	n/a	n/a	n/a
707333	STOP	n/a	LTP073	ltpFR	9	n/a	n/a	n/a	n/a	n/a	n/a	n/a	n/a	n/a	n/a	n/a	n/a	n/a	n/a	n/a
709359	WORD	wordpools/wasnorm_wordpool.txt	LTP073	ltpFR	9	3	0	SHIRT	1287	n/a	0	n/a	0	0	0	1	0.412841796875	0.57763671875	upper	../fonts/amplitud.ttf
712365	START	n/a	LTP073	ltpFR	9	n/a	n/a	n/a	n/a	n/a	n/a	n/a	n/a	n/a	n/a	n/a	n/a	n/a	n/a	n/a
713272	PROB	n/a	LTP073	ltpFR	9	n/a	n/a	n/a	n/a	n/a	n/a	10	2	7	1	n/a	n/a	n/a	n/a	n/a
715884	PROB	n/a	LTP073	ltpFR	9	n/a	n/a	n/a	n/a	n/a	n/a	15	7	1	7	n/a	n/a	n/a	n/a	n/a
717317	PROB	n/a	LTP073	ltpFR	9	n/a	n/a	n/a	n/a	n/a	n/a	20	8	4	8	n/a	n/a	n/a	n/a	n/a
719971	PROB	n/a	LTP073	ltpFR	9	n/a	n/a	n/a	n/a	n/a	n/a	5	1	1	3	n/a	n/a	n/a	n/a	n/a
721470	PROB	n/a	LTP073	ltpFR	9	n/a	n/a	n/a	n/a	n/a	n/a	18	9	3	6	n/a	n/a	n/a	n/a	n/a
722934	PROB	n/a	LTP073	ltpFR	9	n/a	n/a	n/a	n/a	n/a	n/a	19	7	9	3	n/a	n/a	n/a	n/a	n/a
725872	PROB	n/a	LTP073	ltpFR	9	n/a	n/a	n/a	n/a	n/a	n/a	15	4	7	4	n/a	n/a	n/a	n/a	n/a
727405	STOP	n/a	LTP073	ltpFR	9	n/a	n/a	n/a	n/a	n/a	n/a	n/a	n/a	n/a	n/a	n/a	n/a	n/a	n/a	n/a
729419	WORD	wordpools/wasnorm_wordpool.txt	LTP073	ltpFR	9	3	0	FISH	571	n/a	0	n/a	0	0	0	1	0.412841796875	0.57763671875	upper	../fonts/amplitud.ttf
732425	START	n/a	LTP073	ltpFR	9	n/a	n/a	n/a	n/a	n/a	n/a	n/a	n/a	n/a	n/a	n/a	n/a	n/a	n/a	n/a
733373	PROB	n/a	LTP073	ltpFR	9	n/a	n/a	n/a	n/a	n/a	n/a	10	4	4	2	n/a	n/a	n/a	n/a	n/a
735012	PROB	n/a	LTP073	ltpFR	9	n/a	n/a	n/a	n/a	n/a	n/a	17	5	7	5	n/a	n/a	n/a	n/a	n/a
736910	PROB	n/a	LTP073	ltpFR	9	n/a	n/a	n/a	n/a	n/a	n/a	12	3	7	2	n/a	n/a	n/a	n/a	n/a
738940	PROB	n/a	LTP073	ltpFR	9	n/a	n/a	n/a	n/a	n/a	n/a	14	3	8	3	n/a	n/a	n/a	n/a	n/a
740947	PROB	n/a	LTP073	ltpFR	9	n/a	n/a	n/a	n/a	n/a	n/a	22	4	9	9	n/a	n/a	n/a	n/a	n/a
742886	PROB	n/a	LTP073	ltpFR	9	n/a	n/a	n/a	n/a	n/a	n/a	8	3	2	3	n/a	n/a	n/a	n/a	n/a
744360	PROB	n/a	LTP073	ltpFR	9	n/a	n/a	n/a	n/a	n/a	n/a	10	2	3	5	n/a	n/a	n/a	n/a	n/a
746333	PROB	n/a	LTP073	ltpFR	9	n/a	n/a	n/a	n/a	n/a	n/a	8	5	2	1	n/a	n/a	n/a	n/a	n/a
747876	STOP	n/a	LTP073	ltpFR	9	n/a	n/a	n/a	n/a	n/a	n/a	n/a	n/a	n/a	n/a	n/a	n/a	n/a	n/a	n/a
749296	WORD	wordpools/wasnorm_wordpool.txt	LTP073	ltpFR	9	3	0	VIOLIN	1571	n/a	1	n/a	0	0	0	1	0.412841796875	0.57763671875	upper	../fonts/amplitud.ttf
752301	START	n/a	LTP073	ltpFR	9	n/a	n/a	n/a	n/a	n/a	n/a	n/a	n/a	n/a	n/a	n/a	n/a	n/a	n/a	n/a
753316	PROB	n/a	LTP073	ltpFR	9	n/a	n/a	n/a	n/a	n/a	n/a	14	5	1	8	n/a	n/a	n/a	n/a	n/a
755821	PROB	n/a	LTP073	ltpFR	9	n/a	n/a	n/a	n/a	n/a	n/a	17	5	9	3	n/a	n/a	n/a	n/a	n/a
758360	PROB	n/a	LTP073	ltpFR	9	n/a	n/a	n/a	n/a	n/a	n/a	20	6	7	7	n/a	n/a	n/a	n/a	n/a
760516	PROB	n/a	LTP073	ltpFR	9	n/a	n/a	n/a	n/a	n/a	n/a	156	6	3	7	n/a	n/a	n/a	n/a	n/a
764420	PROB	n/a	LTP073	ltpFR	9	n/a	n/a	n/a	n/a	n/a	n/a	14	1	9	4	n/a	n/a	n/a	n/a	n/a
766017	PROB	n/a	LTP073	ltpFR	9	n/a	n/a	n/a	n/a	n/a	n/a	18	6	6	6	n/a	n/a	n/a	n/a	n/a
767796	STOP	n/a	LTP073	ltpFR	9	n/a	n/a	n/a	n/a	n/a	n/a	n/a	n/a	n/a	n/a	n/a	n/a	n/a	n/a	n/a
769497	WORD	wordpools/wasnorm_wordpool.txt	LTP073	ltpFR	9	3	0	MAMMAL	861	n/a	1	n/a	0	0	0	1	0.412841796875	0.57763671875	upper	../fonts/amplitud.ttf
772511	START	n/a	LTP073	ltpFR	9	n/a	n/a	n/a	n/a	n/a	n/a	n/a	n/a	n/a	n/a	n/a	n/a	n/a	n/a	n/a
773393	PROB	n/a	LTP073	ltpFR	9	n/a	n/a	n/a	n/a	n/a	n/a	22	4	7	9	n/a	n/a	n/a	n/a	n/a
775440	PROB	n/a	LTP073	ltpFR	9	n/a	n/a	n/a	n/a	n/a	n/a	19	6	4	9	n/a	n/a	n/a	n/a	n/a
777222	PROB	n/a	LTP073	ltpFR	9	n/a	n/a	n/a	n/a	n/a	n/a	14	5	2	9	n/a	n/a	n/a	n/a	n/a
779236	PROB	n/a	LTP073	ltpFR	9	n/a	n/a	n/a	n/a	n/a	n/a	11	1	2	8	n/a	n/a	n/a	n/a	n/a
781184	PROB	n/a	LTP073	ltpFR	9	n/a	n/a	n/a	n/a	n/a	n/a	15	2	6	7	n/a	n/a	n/a	n/a	n/a
782615	PROB	n/a	LTP073	ltpFR	9	n/a	n/a	n/a	n/a	n/a	n/a	14	5	2	7	n/a	n/a	n/a	n/a	n/a
784222	PROB	n/a	LTP073	ltpFR	9	n/a	n/a	n/a	n/a	n/a	n/a	19	6	5	8	n/a	n/a	n/a	n/a	n/a
785769	PROB	n/a	LTP073	ltpFR	9	n/a	n/a	n/a	n/a	n/a	n/a	14	1	7	6	n/a	n/a	n/a	n/a	n/a
787333	STOP	n/a	LTP073	ltpFR	9	n/a	n/a	n/a	n/a	n/a	n/a	n/a	n/a	n/a	n/a	n/a	n/a	n/a	n/a	n/a
789666	WORD	wordpools/wasnorm_wordpool.txt	LTP073	ltpFR	9	3	0	JEEP	753	n/a	1	n/a	0	0	0	1	0.412841796875	0.57763671875	upper	../fonts/amplitud.ttf
792671	START	n/a	LTP073	ltpFR	9	n/a	n/a	n/a	n/a	n/a	n/a	n/a	n/a	n/a	n/a	n/a	n/a	n/a	n/a	n/a
793652	PROB	n/a	LTP073	ltpFR	9	n/a	n/a	n/a	n/a	n/a	n/a	17	8	1	8	n/a	n/a	n/a	n/a	n/a
795167	PROB	n/a	LTP073	ltpFR	9	n/a	n/a	n/a	n/a	n/a	n/a	12	4	1	7	n/a	n/a	n/a	n/a	n/a
796641	PROB	n/a	LTP073	ltpFR	9	n/a	n/a	n/a	n/a	n/a	n/a	16	8	5	3	n/a	n/a	n/a	n/a	n/a
798038	PROB	n/a	LTP073	ltpFR	9	n/a	n/a	n/a	n/a	n/a	n/a	13	4	1	8	n/a	n/a	n/a	n/a	n/a
799944	PROB	n/a	LTP073	ltpFR	9	n/a	n/a	n/a	n/a	n/a	n/a	11	1	1	9	n/a	n/a	n/a	n/a	n/a
802168	PROB	n/a	LTP073	ltpFR	9	n/a	n/a	n/a	n/a	n/a	n/a	7	3	3	1	n/a	n/a	n/a	n/a	n/a
803558	PROB	n/a	LTP073	ltpFR	9	n/a	n/a	n/a	n/a	n/a	n/a	17	8	2	7	n/a	n/a	n/a	n/a	n/a
805147	PROB	n/a	LTP073	ltpFR	9	n/a	n/a	n/a	n/a	n/a	n/a	19	4	6	9	n/a	n/a	n/a	n/a	n/a
806388	PROB	n/a	LTP073	ltpFR	9	n/a	n/a	n/a	n/a	n/a	n/a	12	3	4	5	n/a	n/a	n/a	n/a	n/a
808149	STOP	n/a	LTP073	ltpFR	9	n/a	n/a	n/a	n/a	n/a	n/a	n/a	n/a	n/a	n/a	n/a	n/a	n/a	n/a	n/a
809534	WORD	wordpools/wasnorm_wordpool.txt	LTP073	ltpFR	9	3	0	CLOVE	329	n/a	0	n/a	0	0	0	1	0.412841796875	0.57763671875	upper	../fonts/amplitud.ttf
812539	START	n/a	LTP073	ltpFR	9	n/a	n/a	n/a	n/a	n/a	n/a	n/a	n/a	n/a	n/a	n/a	n/a	n/a	n/a	n/a
813438	PROB	n/a	LTP073	ltpFR	9	n/a	n/a	n/a	n/a	n/a	n/a	19	7	6	6	n/a	n/a	n/a	n/a	n/a
815219	PROB	n/a	LTP073	ltpFR	9	n/a	n/a	n/a	n/a	n/a	n/a	20	9	7	2	n/a	n/a	n/a	n/a	n/a
818440	PROB	n/a	LTP073	ltpFR	9	n/a	n/a	n/a	n/a	n/a	n/a	5	1	2	2	n/a	n/a	n/a	n/a	n/a
819605	PROB	n/a	LTP073	ltpFR	9	n/a	n/a	n/a	n/a	n/a	n/a	18	7	9	2	n/a	n/a	n/a	n/a	n/a
821645	PROB	n/a	LTP073	ltpFR	9	n/a	n/a	n/a	n/a	n/a	n/a	6	2	2	2	n/a	n/a	n/a	n/a	n/a
822644	PROB	n/a	LTP073	ltpFR	9	n/a	n/a	n/a	n/a	n/a	n/a	11	3	6	2	n/a	n/a	n/a	n/a	n/a
823983	PROB	n/a	LTP073	ltpFR	9	n/a	n/a	n/a	n/a	n/a	n/a	20	5	8	7	n/a	n/a	n/a	n/a	n/a
826788	PROB	n/a	LTP073	ltpFR	9	n/a	n/a	n/a	n/a	n/a	n/a	15	5	5	5	n/a	n/a	n/a	n/a	n/a
827964	STOP	n/a	LTP073	ltpFR	9	n/a	n/a	n/a	n/a	n/a	n/a	n/a	n/a	n/a	n/a	n/a	n/a	n/a	n/a	n/a
829535	WORD	wordpools/wasnorm_wordpool.txt	LTP073	ltpFR	9	3	0	SUGAR	1401	n/a	n/a	n/a	0	0	0	1	0.412841796875	0.57763671875	upper	../fonts/amplitud.ttf
832557	SLOW_MSG	n/a	LTP073	ltpFR	9	3	n/a	n/a	n/a	n/a	n/a	n/a	0	0	0	n/a	n/a	n/a	n/a	n/a
834071	START	n/a	LTP073	ltpFR	9	n/a	n/a	n/a	n/a	n/a	n/a	n/a	n/a	n/a	n/a	n/a	n/a	n/a	n/a	n/a
835096	PROB	n/a	LTP073	ltpFR	9	n/a	n/a	n/a	n/a	n/a	n/a	18	9	8	1	n/a	n/a	n/a	n/a	n/a
836710	PROB	n/a	LTP073	ltpFR	9	n/a	n/a	n/a	n/a	n/a	n/a	21	9	7	5	n/a	n/a	n/a	n/a	n/a
839574	PROB	n/a	LTP073	ltpFR	9	n/a	n/a	n/a	n/a	n/a	n/a	6	3	1	2	n/a	n/a	n/a	n/a	n/a
841330	PROB	n/a	LTP073	ltpFR	9	n/a	n/a	n/a	n/a	n/a	n/a	16	3	6	7	n/a	n/a	n/a	n/a	n/a
843002	PROB	n/a	LTP073	ltpFR	9	n/a	n/a	n/a	n/a	n/a	n/a	15	9	2	4	n/a	n/a	n/a	n/a	n/a
845742	PROB	n/a	LTP073	ltpFR	9	n/a	n/a	n/a	n/a	n/a	n/a	11	3	3	5	n/a	n/a	n/a	n/a	n/a
847490	PROB	n/a	LTP073	ltpFR	9	n/a	n/a	n/a	n/a	n/a	n/a	20	7	5	8	n/a	n/a	n/a	n/a	n/a
849189	STOP	n/a	LTP073	ltpFR	9	n/a	n/a	n/a	n/a	n/a	n/a	n/a	n/a	n/a	n/a	n/a	n/a	n/a	n/a	n/a
851269	WORD	wordpools/wasnorm_wordpool.txt	LTP073	ltpFR	9	3	0	COD	340	n/a	0	n/a	0	0	0	1	0.412841796875	0.57763671875	upper	../fonts/amplitud.ttf
854273	START	n/a	LTP073	ltpFR	9	n/a	n/a	n/a	n/a	n/a	n/a	n/a	n/a	n/a	n/a	n/a	n/a	n/a	n/a	n/a
855205	PROB	n/a	LTP073	ltpFR	9	n/a	n/a	n/a	n/a	n/a	n/a	21	4	8	9	n/a	n/a	n/a	n/a	n/a
856753	PROB	n/a	LTP073	ltpFR	9	n/a	n/a	n/a	n/a	n/a	n/a	18	7	3	8	n/a	n/a	n/a	n/a	n/a
857926	PROB	n/a	LTP073	ltpFR	9	n/a	n/a	n/a	n/a	n/a	n/a	14	1	7	6	n/a	n/a	n/a	n/a	n/a
859675	PROB	n/a	LTP073	ltpFR	9	n/a	n/a	n/a	n/a	n/a	n/a	7	3	2	2	n/a	n/a	n/a	n/a	n/a
861014	PROB	n/a	LTP073	ltpFR	9	n/a	n/a	n/a	n/a	n/a	n/a	6	2	1	3	n/a	n/a	n/a	n/a	n/a
862106	PROB	n/a	LTP073	ltpFR	9	n/a	n/a	n/a	n/a	n/a	n/a	17	7	9	1	n/a	n/a	n/a	n/a	n/a
864711	PROB	n/a	LTP073	ltpFR	9	n/a	n/a	n/a	n/a	n/a	n/a	7	1	3	3	n/a	n/a	n/a	n/a	n/a
866009	PROB	n/a	LTP073	ltpFR	9	n/a	n/a	n/a	n/a	n/a	n/a	14	4	7	3	n/a	n/a	n/a	n/a	n/a
867549	PROB	n/a	LTP073	ltpFR	9	n/a	n/a	n/a	n/a	n/a	n/a	21	8	8	5	n/a	n/a	n/a	n/a	n/a
869237	STOP	n/a	LTP073	ltpFR	9	n/a	n/a	n/a	n/a	n/a	n/a	n/a	n/a	n/a	n/a	n/a	n/a	n/a	n/a	n/a
872111	REC_START	n/a	LTP073	ltpFR	9	3	n/a	n/a	n/a	n/a	n/a	n/a	0	0	0	n/a	n/a	n/a	n/a	n/a
873902	REC_WORD	wordpools/wasnorm_wordpool.txt	LTP073	ltpFR	9	3	0	COD	340	n/a	0	n/a	0	0	0	n/a	n/a	n/a	n/a	n/a
874919	REC_WORD	wordpools/wasnorm_wordpool.txt	LTP073	ltpFR	9	3	0	VAGRANT	1544	n/a	0	n/a	0	0	0	n/a	n/a	n/a	n/a	n/a
879459	REC_WORD	wordpools/wasnorm_wordpool.txt	LTP073	ltpFR	9	3	0	BARREL	91	n/a	1	n/a	0	0	0	n/a	n/a	n/a	n/a	n/a
881046	REC_WORD	wordpools/wasnorm_wordpool.txt	LTP073	ltpFR	9	3	0	CUCUMBER	421	n/a	0	n/a	0	0	0	n/a	n/a	n/a	n/a	n/a
884897	REC_WORD	wordpools/wasnorm_wordpool.txt	LTP073	ltpFR	9	3	0	JEEP	753	n/a	1	n/a	0	0	0	n/a	n/a	n/a	n/a	n/a
888000	REC_WORD	wordpools/wasnorm_wordpool.txt	LTP073	ltpFR	9	3	0	MAMMAL	861	n/a	1	n/a	0	0	0	n/a	n/a	n/a	n/a	n/a
892031	REC_WORD	wordpools/wasnorm_wordpool.txt	LTP073	ltpFR	9	3	0	SUGAR	1401	n/a	n/a	n/a	0	0	0	n/a	n/a	n/a	n/a	n/a
904726	REC_WORD	wordpools/wasnorm_wordpool.txt	LTP073	ltpFR	9	3	0	VIOLIN	1571	n/a	1	n/a	0	0	0	n/a	n/a	n/a	n/a	n/a
907096	REC_WORD	wordpools/wasnorm_wordpool.txt	LTP073	ltpFR	9	3	0	CLOVE	329	n/a	0	n/a	0	0	0	n/a	n/a	n/a	n/a	n/a
955613	WORD	wordpools/wasnorm_wordpool.txt	LTP073	ltpFR	9	4	1	RAKE	1164	n/a	0	n/a	0	0	0	0	0.5869140625	0.422607421875	lower	../fonts/zerothre.ttf
959425	WORD	wordpools/wasnorm_wordpool.txt	LTP073	ltpFR	9	4	1	ROCK	1201	n/a	0	n/a	0	0	0	0	0.5869140625	0.422607421875	lower	../fonts/zerothre.ttf
963262	WORD	wordpools/wasnorm_wordpool.txt	LTP073	ltpFR	9	4	0	DIVER	476	n/a	1	n/a	0	0	0	1	0.412841796875	0.57763671875	upper	../fonts/amplitud.ttf
967408	WORD	wordpools/wasnorm_wordpool.txt	LTP073	ltpFR	9	4	0	MOP	916	n/a	1	n/a	0	0	0	1	0.412841796875	0.57763671875	upper	../fonts/amplitud.ttf
971370	WORD	wordpools/wasnorm_wordpool.txt	LTP073	ltpFR	9	4	0	APE	31	n/a	1	n/a	0	0	0	1	0.412841796875	0.57763671875	upper	../fonts/amplitud.ttf
975382	WORD	wordpools/wasnorm_wordpool.txt	LTP073	ltpFR	9	4	0	POSSUM	1112	n/a	1	n/a	0	0	0	1	0.412841796875	0.57763671875	upper	../fonts/amplitud.ttf
979377	WORD	wordpools/wasnorm_wordpool.txt	LTP073	ltpFR	9	4	1	LEVER	815	n/a	0	n/a	0	0	0	0	0.5869140625	0.422607421875	lower	../fonts/zerothre.ttf
983256	WORD	wordpools/wasnorm_wordpool.txt	LTP073	ltpFR	9	4	1	STREAM	1392	n/a	0	n/a	0	0	0	0	0.5869140625	0.422607421875	lower	../fonts/zerothre.ttf
987459	WORD	wordpools/wasnorm_wordpool.txt	LTP073	ltpFR	9	4	0	MARBLE	867	n/a	0	n/a	0	0	0	1	0.412841796875	0.57763671875	upper	../fonts/amplitud.ttf
991529	WORD	wordpools/wasnorm_wordpool.txt	LTP073	ltpFR	9	4	0	BURGLAR	200	n/a	1	n/a	0	0	0	1	0.412841796875	0.57763671875	upper	../fonts/amplitud.ttf
995600	WORD	wordpools/wasnorm_wordpool.txt	LTP073	ltpFR	9	4	0	ATMOSPHERE	54	n/a	1	n/a	0	0	0	1	0.412841796875	0.57763671875	upper	../fonts/amplitud.ttf
999437	WORD	wordpools/wasnorm_wordpool.txt	LTP073	ltpFR	9	4	0	COMPANION	357	n/a	1	n/a	0	0	0	1	0.412841796875	0.57763671875	upper	../fonts/amplitud.ttf
1003640	WORD	wordpools/wasnorm_wordpool.txt	LTP073	ltpFR	9	4	1	BOYFRIEND	162	n/a	1	n/a	0	0	0	0	0.5869140625	0.422607421875	lower	../fonts/zerothre.ttf
1007602	WORD	wordpools/wasnorm_wordpool.txt	LTP073	ltpFR	9	4	1	DIAPER	459	n/a	0	n/a	0	0	0	0	0.5869140625	0.422607421875	lower	../fonts/zerothre.ttf
1011763	WORD	wordpools/wasnorm_wordpool.txt	LTP073	ltpFR	9	4	1	BABY	64	n/a	1	n/a	0	0	0	0	0.5869140625	0.422607421875	lower	../fonts/zerothre.ttf
1015643	WORD	wordpools/wasnorm_wordpool.txt	LTP073	ltpFR	9	4	1	BAND	78	n/a	1	n/a	0	0	0	0	0.5869140625	0.422607421875	lower	../fonts/zerothre.ttf
1021270	REC_START	n/a	LTP073	ltpFR	9	4	n/a	n/a	n/a	n/a	n/a	n/a	0	0	0	n/a	n/a	n/a	n/a	n/a
1023430	REC_WORD	wordpools/wasnorm_wordpool.txt	LTP073	ltpFR	9	4	1	BAND	78	n/a	1	n/a	0	0	0	n/a	n/a	n/a	n/a	n/a
1024557	REC_WORD	wordpools/wasnorm_wordpool.txt	LTP073	ltpFR	9	4	1	DIAPER	459	n/a	0	n/a	0	0	0	n/a	n/a	n/a	n/a	n/a
1025146	REC_WORD	wordpools/wasnorm_wordpool.txt	LTP073	ltpFR	9	4	1	BABY	64	n/a	1	n/a	0	0	0	n/a	n/a	n/a	n/a	n/a
1026129	REC_WORD	wordpools/wasnorm_wordpool.txt	LTP073	ltpFR	9	4	1	BOYFRIEND	162	n/a	1	n/a	0	0	0	n/a	n/a	n/a	n/a	n/a
1026940	REC_WORD	wordpools/wasnorm_wordpool.txt	LTP073	ltpFR	9	4	0	COMPANION	357	n/a	1	n/a	0	0	0	n/a	n/a	n/a	n/a	n/a
1028977	REC_WORD	wordpools/wasnorm_wordpool.txt	LTP073	ltpFR	9	4	0	DIVER	476	n/a	1	n/a	0	0	0	n/a	n/a	n/a	n/a	n/a
1030204	REC_WORD	wordpools/wasnorm_wordpool.txt	LTP073	ltpFR	9	4	1	ROCK	1201	n/a	0	n/a	0	0	0	n/a	n/a	n/a	n/a	n/a
1031302	REC_WORD	wordpools/wasnorm_wordpool.txt	LTP073	ltpFR	9	4	0	MARBLE	867	n/a	0	n/a	0	0	0	n/a	n/a	n/a	n/a	n/a
1032574	REC_WORD	wordpools/wasnorm_wordpool.txt	LTP073	ltpFR	9	4	1	RAKE	1164	n/a	0	n/a	0	0	0	n/a	n/a	n/a	n/a	n/a
1033267	REC_WORD	wordpools/wasnorm_wordpool.txt	LTP073	ltpFR	9	4	0	MOP	916	n/a	1	n/a	0	0	0	n/a	n/a	n/a	n/a	n/a
1063359	REC_WORD	wordpools/wasnorm_wordpool.txt	LTP073	ltpFR	9	4	0	ATMOSPHERE	54	n/a	1	n/a	0	0	0	n/a	n/a	n/a	n/a	n/a
1073396	REC_WORD	wordpools/wasnorm_wordpool.txt	LTP073	ltpFR	9	4	1	STREAM	1392	n/a	0	n/a	0	0	0	n/a	n/a	n/a	n/a	n/a
1100186	WORD	wordpools/wasnorm_wordpool.txt	LTP073	ltpFR	9	5	0	CRATER	400	n/a	1	n/a	0	0	0	1	0.412841796875	0.57763671875	upper	../fonts/amplitud.ttf
1104398	WORD	wordpools/wasnorm_wordpool.txt	LTP073	ltpFR	9	5	0	VOLCANO	1575	n/a	1	n/a	0	0	0	1	0.412841796875	0.57763671875	upper	../fonts/amplitud.ttf
1108409	WORD	wordpools/wasnorm_wordpool.txt	LTP073	ltpFR	9	5	0	CLARINET	317	n/a	0	n/a	0	0	0	1	0.412841796875	0.57763671875	upper	../fonts/amplitud.ttf
1112480	WORD	wordpools/wasnorm_wordpool.txt	LTP073	ltpFR	9	5	0	FLUTE	585	n/a	0	n/a	0	0	0	1	0.412841796875	0.57763671875	upper	../fonts/amplitud.ttf
1116358	WORD	wordpools/wasnorm_wordpool.txt	LTP073	ltpFR	9	5	0	TRENCH	1503	n/a	1	n/a	0	0	0	1	0.412841796875	0.57763671875	upper	../fonts/amplitud.ttf
1120237	WORD	wordpools/wasnorm_wordpool.txt	LTP073	ltpFR	9	5	0	BASEMENT	94	n/a	1	n/a	0	0	0	1	0.412841796875	0.57763671875	upper	../fonts/amplitud.ttf
1124141	WORD	wordpools/wasnorm_wordpool.txt	LTP073	ltpFR	9	5	0	PARROT	1015	n/a	0	n/a	0	0	0	1	0.412841796875	0.57763671875	upper	../fonts/amplitud.ttf
1128170	WORD	wordpools/wasnorm_wordpool.txt	LTP073	ltpFR	9	5	0	PIT	1077	n/a	1	n/a	0	0	0	1	0.412841796875	0.57763671875	upper	../fonts/amplitud.ttf
1132023	WORD	wordpools/wasnorm_wordpool.txt	LTP073	ltpFR	9	5	0	OPERA	978	n/a	1	n/a	0	0	0	1	0.412841796875	0.57763671875	upper	../fonts/amplitud.ttf
1136001	WORD	wordpools/wasnorm_wordpool.txt	LTP073	ltpFR	9	5	0	CONDUCTOR	362	n/a	1	n/a	0	0	0	1	0.412841796875	0.57763671875	upper	../fonts/amplitud.ttf
1140114	WORD	wordpools/wasnorm_wordpool.txt	LTP073	ltpFR	9	5	0	GROUND	666	n/a	1	n/a	0	0	0	1	0.412841796875	0.57763671875	upper	../fonts/amplitud.ttf
1144000	WORD	wordpools/wasnorm_wordpool.txt	LTP073	ltpFR	9	5	0	CROW	414	n/a	0	n/a	0	0	0	1	0.412841796875	0.57763671875	upper	../fonts/amplitud.ttf
1147937	WORD	wordpools/wasnorm_wordpool.txt	LTP073	ltpFR	9	5	0	FUR	615	n/a	0	n/a	0	0	0	1	0.412841796875	0.57763671875	upper	../fonts/amplitud.ttf
1151808	WORD	wordpools/wasnorm_wordpool.txt	LTP073	ltpFR	9	5	0	CRYSTAL	418	n/a	0	n/a	0	0	0	1	0.412841796875	0.57763671875	upper	../fonts/amplitud.ttf
1155712	WORD	wordpools/wasnorm_wordpool.txt	LTP073	ltpFR	9	5	0	BOULDER	155	n/a	1	n/a	0	0	0	1	0.412841796875	0.57763671875	upper	../fonts/amplitud.ttf
1159790	WORD	wordpools/wasnorm_wordpool.txt	LTP073	ltpFR	9	5	0	PEDESTRIAN	1038	n/a	1	n/a	0	0	0	1	0.412841796875	0.57763671875	upper	../fonts/amplitud.ttf
1162795	START	n/a	LTP073	ltpFR	9	n/a	n/a	n/a	n/a	n/a	n/a	n/a	n/a	n/a	n/a	n/a	n/a	n/a	n/a	n/a
1163919	PROB	n/a	LTP073	ltpFR	9	n/a	n/a	n/a	n/a	n/a	n/a	11	6	1	4	n/a	n/a	n/a	n/a	n/a
1166558	PROB	n/a	LTP073	ltpFR	9	n/a	n/a	n/a	n/a	n/a	n/a	19	7	4	8	n/a	n/a	n/a	n/a	n/a
1169097	PROB	n/a	LTP073	ltpFR	9	n/a	n/a	n/a	n/a	n/a	n/a	21	8	6	7	n/a	n/a	n/a	n/a	n/a
1170645	STOP	n/a	LTP073	ltpFR	9	n/a	n/a	n/a	n/a	n/a	n/a	n/a	n/a	n/a	n/a	n/a	n/a	n/a	n/a	n/a
1172568	REC_START	n/a	LTP073	ltpFR	9	5	n/a	n/a	n/a	n/a	n/a	n/a	0	0	0	n/a	n/a	n/a	n/a	n/a
1174074	REC_WORD	wordpools/wasnorm_wordpool.txt	LTP073	ltpFR	9	5	0	PEDESTRIAN	1038	n/a	1	n/a	0	0	0	n/a	n/a	n/a	n/a	n/a
1175766	REC_WORD	wordpools/wasnorm_wordpool.txt	LTP073	ltpFR	9	5	0	PARROT	1015	n/a	0	n/a	0	0	0	n/a	n/a	n/a	n/a	n/a
1176385	REC_WORD	wordpools/wasnorm_wordpool.txt	LTP073	ltpFR	9	5	0	CROW	414	n/a	0	n/a	0	0	0	n/a	n/a	n/a	n/a	n/a
1177007	REC_WORD	wordpools/wasnorm_wordpool.txt	LTP073	ltpFR	9	5	0	FUR	615	n/a	0	n/a	0	0	0	n/a	n/a	n/a	n/a	n/a
1177821	REC_WORD	wordpools/wasnorm_wordpool.txt	LTP073	ltpFR	9	5	0	CRYSTAL	418	n/a	0	n/a	0	0	0	n/a	n/a	n/a	n/a	n/a
1179687	REC_WORD_VV	wordpools/wasnorm_wordpool.txt	LTP073	ltpFR	9	5	n/a	<>	-1	n/a	n/a	n/a	0	0	0	n/a	n/a	n/a	n/a	n/a
1180171	REC_WORD	wordpools/wasnorm_wordpool.txt	LTP073	ltpFR	9	5	0	VOLCANO	1575	n/a	1	n/a	0	0	0	n/a	n/a	n/a	n/a	n/a
1181002	REC_WORD	wordpools/wasnorm_wordpool.txt	LTP073	ltpFR	9	5	0	CRATER	400	n/a	1	n/a	0	0	0	n/a	n/a	n/a	n/a	n/a
1181758	REC_WORD	wordpools/wasnorm_wordpool.txt	LTP073	ltpFR	9	5	0	BOULDER	155	n/a	1	n/a	0	0	0	n/a	n/a	n/a	n/a	n/a
1183328	REC_WORD	wordpools/wasnorm_wordpool.txt	LTP073	ltpFR	9	5	0	TRENCH	1503	n/a	1	n/a	0	0	0	n/a	n/a	n/a	n/a	n/a
1184286	REC_WORD	wordpools/wasnorm_wordpool.txt	LTP073	ltpFR	9	5	0	PIT	1077	n/a	1	n/a	0	0	0	n/a	n/a	n/a	n/a	n/a
1185144	REC_WORD	wordpools/wasnorm_wordpool.txt	LTP073	ltpFR	9	5	0	GROUND	666	n/a	1	n/a	0	0	0	n/a	n/a	n/a	n/a	n/a
1187439	REC_WORD	wordpools/wasnorm_wordpool.txt	LTP073	ltpFR	9	5	0	BASEMENT	94	n/a	1	n/a	0	0	0	n/a	n/a	n/a	n/a	n/a
1239191	REC_WORD	wordpools/wasnorm_wordpool.txt	LTP073	ltpFR	9	5	0	OPERA	978	n/a	1	n/a	0	0	0	n/a	n/a	n/a	n/a	n/a
1240663	REC_WORD	wordpools/wasnorm_wordpool.txt	LTP073	ltpFR	9	5	0	FLUTE	585	n/a	0	n/a	0	0	0	n/a	n/a	n/a	n/a	n/a
1241436	REC_WORD	wordpools/wasnorm_wordpool.txt	LTP073	ltpFR	9	5	0	VIOLIN	1571	n/a	1	n/a	0	0	0	n/a	n/a	n/a	n/a	n/a
1242195	REC_WORD	wordpools/wasnorm_wordpool.txt	LTP073	ltpFR	9	5	0	CLARINET	317	n/a	0	n/a	0	0	0	n/a	n/a	n/a	n/a	n/a
1243931	REC_WORD	wordpools/wasnorm_wordpool.txt	LTP073	ltpFR	9	5	0	CLARINET	317	n/a	0	n/a	0	0	0	n/a	n/a	n/a	n/a	n/a
1245308	REC_WORD	wordpools/wasnorm_wordpool.txt	LTP073	ltpFR	9	5	0	OPERA	978	n/a	1	n/a	0	0	0	n/a	n/a	n/a	n/a	n/a
1245811	REC_WORD	wordpools/wasnorm_wordpool.txt	LTP073	ltpFR	9	5	0	FLUTE	585	n/a	0	n/a	0	0	0	n/a	n/a	n/a	n/a	n/a
1254846	WORD	wordpools/wasnorm_wordpool.txt	LTP073	ltpFR	9	6	1	CART	250	n/a	0	n/a	0	0	0	0	0.5869140625	0.422607421875	lower	../fonts/zerothre.ttf
1258833	WORD	wordpools/wasnorm_wordpool.txt	LTP073	ltpFR	9	6	1	OX	994	n/a	1	n/a	0	0	0	0	0.5869140625	0.422607421875	lower	../fonts/zerothre.ttf
1262969	WORD	wordpools/wasnorm_wordpool.txt	LTP073	ltpFR	9	6	1	GIRAFFE	636	n/a	1	n/a	0	0	0	0	0.5869140625	0.422607421875	lower	../fonts/zerothre.ttf
1266865	WORD	wordpools/wasnorm_wordpool.txt	LTP073	ltpFR	9	6	1	STOCKING	1383	n/a	0	n/a	0	0	0	0	0.5869140625	0.422607421875	lower	../fonts/zerothre.ttf
1270902	WORD	wordpools/wasnorm_wordpool.txt	LTP073	ltpFR	9	6	0	GROCERIES	663	n/a	0	n/a	0	0	0	1	0.412841796875	0.57763671875	upper	../fonts/amplitud.ttf
1275030	WORD	wordpools/wasnorm_wordpool.txt	LTP073	ltpFR	9	6	0	CAFETERIA	217	n/a	1	n/a	0	0	0	1	0.412841796875	0.57763671875	upper	../fonts/amplitud.ttf
1278967	WORD	wordpools/wasnorm_wordpool.txt	LTP073	ltpFR	9	6	0	DOLL	481	n/a	0	n/a	0	0	0	1	0.412841796875	0.57763671875	upper	../fonts/amplitud.ttf
1283054	WORD	wordpools/wasnorm_wordpool.txt	LTP073	ltpFR	9	6	0	PREDATOR	1120	n/a	1	n/a	0	0	0	1	0.412841796875	0.57763671875	upper	../fonts/amplitud.ttf
1287217	WORD	wordpools/wasnorm_wordpool.txt	LTP073	ltpFR	9	6	1	HERB	704	n/a	0	n/a	0	0	0	0	0.5869140625	0.422607421875	lower	../fonts/zerothre.ttf
1291028	WORD	wordpools/wasnorm_wordpool.txt	LTP073	ltpFR	9	6	1	GARLIC	624	n/a	0	n/a	0	0	0	0	0.5869140625	0.422607421875	lower	../fonts/zerothre.ttf
1294999	WORD	wordpools/wasnorm_wordpool.txt	LTP073	ltpFR	9	6	1	CHEF	290	n/a	1	n/a	0	0	0	0	0.5869140625	0.422607421875	lower	../fonts/zerothre.ttf
1298919	WORD	wordpools/wasnorm_wordpool.txt	LTP073	ltpFR	9	6	1	LIVER	833	n/a	1	n/a	0	0	0	0	0.5869140625	0.422607421875	lower	../fonts/zerothre.ttf
1303090	WORD	wordpools/wasnorm_wordpool.txt	LTP073	ltpFR	9	6	0	THICKET	1455	n/a	0	n/a	0	0	0	1	0.412841796875	0.57763671875	upper	../fonts/amplitud.ttf
1306910	WORD	wordpools/wasnorm_wordpool.txt	LTP073	ltpFR	9	6	0	BRANCH	168	n/a	0	n/a	0	0	0	1	0.412841796875	0.57763671875	upper	../fonts/amplitud.ttf
1310947	WORD	wordpools/wasnorm_wordpool.txt	LTP073	ltpFR	9	6	0	PLATE	1086	n/a	0	n/a	0	0	0	1	0.412841796875	0.57763671875	upper	../fonts/amplitud.ttf
1314776	WORD	wordpools/wasnorm_wordpool.txt	LTP073	ltpFR	9	6	0	ANIMAL	23	n/a	1	n/a	0	0	0	1	0.412841796875	0.57763671875	upper	../fonts/amplitud.ttf
1317781	START	n/a	LTP073	ltpFR	9	n/a	n/a	n/a	n/a	n/a	n/a	n/a	n/a	n/a	n/a	n/a	n/a	n/a	n/a	n/a
1318912	PROB	n/a	LTP073	ltpFR	9	n/a	n/a	n/a	n/a	n/a	n/a	20	7	8	5	n/a	n/a	n/a	n/a	n/a
1320927	PROB	n/a	LTP073	ltpFR	9	n/a	n/a	n/a	n/a	n/a	n/a	10	5	2	3	n/a	n/a	n/a	n/a	n/a
1323350	PROB	n/a	LTP073	ltpFR	9	n/a	n/a	n/a	n/a	n/a	n/a	11	5	1	5	n/a	n/a	n/a	n/a	n/a
1324449	PROB	n/a	LTP073	ltpFR	9	n/a	n/a	n/a	n/a	n/a	n/a	12	4	5	3	n/a	n/a	n/a	n/a	n/a
1325854	PROB	n/a	LTP073	ltpFR	9	n/a	n/a	n/a	n/a	n/a	n/a	18	2	9	7	n/a	n/a	n/a	n/a	n/a
1327262	PROB	n/a	LTP073	ltpFR	9	n/a	n/a	n/a	n/a	n/a	n/a	9	2	4	3	n/a	n/a	n/a	n/a	n/a
1329534	PROB	n/a	LTP073	ltpFR	9	n/a	n/a	n/a	n/a	n/a	n/a	13	4	3	6	n/a	n/a	n/a	n/a	n/a
1331056	PROB	n/a	LTP073	ltpFR	9	n/a	n/a	n/a	n/a	n/a	n/a	14	7	2	5	n/a	n/a	n/a	n/a	n/a
1332685	STOP	n/a	LTP073	ltpFR	9	n/a	n/a	n/a	n/a	n/a	n/a	n/a	n/a	n/a	n/a	n/a	n/a	n/a	n/a	n/a
1335628	REC_START	n/a	LTP073	ltpFR	9	6	n/a	n/a	n/a	n/a	n/a	n/a	0	0	0	n/a	n/a	n/a	n/a	n/a
1337259	REC_WORD	wordpools/wasnorm_wordpool.txt	LTP073	ltpFR	9	6	1	GIRAFFE	636	n/a	1	n/a	0	0	0	n/a	n/a	n/a	n/a	n/a
1338047	REC_WORD	wordpools/wasnorm_wordpool.txt	LTP073	ltpFR	9	6	1	OX	994	n/a	1	n/a	0	0	0	n/a	n/a	n/a	n/a	n/a
1338704	REC_WORD	wordpools/wasnorm_wordpool.txt	LTP073	ltpFR	9	6	1	CART	250	n/a	0	n/a	0	0	0	n/a	n/a	n/a	n/a	n/a
1339499	REC_WORD	wordpools/wasnorm_wordpool.txt	LTP073	ltpFR	9	6	0	BRANCH	168	n/a	0	n/a	0	0	0	n/a	n/a	n/a	n/a	n/a
1340292	REC_WORD	wordpools/wasnorm_wordpool.txt	LTP073	ltpFR	9	6	0	THICKET	1455	n/a	0	n/a	0	0	0	n/a	n/a	n/a	n/a	n/a
1342023	REC_WORD	wordpools/wasnorm_wordpool.txt	LTP073	ltpFR	9	6	1	CHEF	290	n/a	1	n/a	0	0	0	n/a	n/a	n/a	n/a	n/a
1342711	REC_WORD	wordpools/wasnorm_wordpool.txt	LTP073	ltpFR	9	6	0	CAFETERIA	217	n/a	1	n/a	0	0	0	n/a	n/a	n/a	n/a	n/a
1343711	REC_WORD_VV	wordpools/wasnorm_wordpool.txt	LTP073	ltpFR	9	6	n/a	<>	-1	n/a	n/a	n/a	0	0	0	n/a	n/a	n/a	n/a	n/a
1343913	REC_WORD	wordpools/wasnorm_wordpool.txt	LTP073	ltpFR	9	6	0	GROCERIES	663	n/a	0	n/a	0	0	0	n/a	n/a	n/a	n/a	n/a
1344913	REC_WORD_VV	wordpools/wasnorm_wordpool.txt	LTP073	ltpFR	9	6	n/a	<>	-1	n/a	n/a	n/a	0	0	0	n/a	n/a	n/a	n/a	n/a
1345949	REC_WORD	wordpools/wasnorm_wordpool.txt	LTP073	ltpFR	9	6	1	HERB	704	n/a	0	n/a	0	0	0	n/a	n/a	n/a	n/a	n/a
1347047	REC_WORD	wordpools/wasnorm_wordpool.txt	LTP073	ltpFR	9	6	1	GARLIC	624	n/a	0	n/a	0	0	0	n/a	n/a	n/a	n/a	n/a
1354709	REC_WORD	wordpools/wasnorm_wordpool.txt	LTP073	ltpFR	9	6	1	LIVER	833	n/a	1	n/a	0	0	0	n/a	n/a	n/a	n/a	n/a
1363604	REC_WORD	wordpools/wasnorm_wordpool.txt	LTP073	ltpFR	9	6	0	BRANCH	168	n/a	0	n/a	0	0	0	n/a	n/a	n/a	n/a	n/a
1364039	REC_WORD	wordpools/wasnorm_wordpool.txt	LTP073	ltpFR	9	6	0	THICKET	1455	n/a	0	n/a	0	0	0	n/a	n/a	n/a	n/a	n/a
1364530	REC_WORD_VV	wordpools/wasnorm_wordpool.txt	LTP073	ltpFR	9	6	n/a	<>	-1	n/a	n/a	n/a	0	0	0	n/a	n/a	n/a	n/a	n/a
1417755	START	n/a	LTP073	ltpFR	9	n/a	n/a	n/a	n/a	n/a	n/a	n/a	n/a	n/a	n/a	n/a	n/a	n/a	n/a	n/a
1419263	PROB	n/a	LTP073	ltpFR	9	n/a	n/a	n/a	n/a	n/a	n/a	24	6	9	9	n/a	n/a	n/a	n/a	n/a
1420951	PROB	n/a	LTP073	ltpFR	9	n/a	n/a	n/a	n/a	n/a	n/a	20	6	7	7	n/a	n/a	n/a	n/a	n/a
1422650	PROB	n/a	LTP073	ltpFR	9	n/a	n/a	n/a	n/a	n/a	n/a	15	4	8	3	n/a	n/a	n/a	n/a	n/a
1424157	PROB	n/a	LTP073	ltpFR	9	n/a	n/a	n/a	n/a	n/a	n/a	15	5	6	4	n/a	n/a	n/a	n/a	n/a
1425317	STOP	n/a	LTP073	ltpFR	9	n/a	n/a	n/a	n/a	n/a	n/a	n/a	n/a	n/a	n/a	n/a	n/a	n/a	n/a	n/a
1426696	WORD	wordpools/wasnorm_wordpool.txt	LTP073	ltpFR	9	7	0	NOTE	958	n/a	0	n/a	0	0	0	1	0.412841796875	0.57763671875	upper	../fonts/amplitud.ttf
1429701	START	n/a	LTP073	ltpFR	9	n/a	n/a	n/a	n/a	n/a	n/a	n/a	n/a	n/a	n/a	n/a	n/a	n/a	n/a	n/a
1430831	PROB	n/a	LTP073	ltpFR	9	n/a	n/a	n/a	n/a	n/a	n/a	14	8	1	5	n/a	n/a	n/a	n/a	n/a
1433429	PROB	n/a	LTP073	ltpFR	9	n/a	n/a	n/a	n/a	n/a	n/a	11	4	3	4	n/a	n/a	n/a	n/a	n/a
1435236	PROB	n/a	LTP073	ltpFR	9	n/a	n/a	n/a	n/a	n/a	n/a	18	8	9	1	n/a	n/a	n/a	n/a	n/a
1437429	STOP	n/a	LTP073	ltpFR	9	n/a	n/a	n/a	n/a	n/a	n/a	n/a	n/a	n/a	n/a	n/a	n/a	n/a	n/a	n/a
1438557	WORD	wordpools/wasnorm_wordpool.txt	LTP073	ltpFR	9	7	0	PARCEL	1012	n/a	1	n/a	0	0	0	1	0.412841796875	0.57763671875	upper	../fonts/amplitud.ttf
1441562	START	n/a	LTP073	ltpFR	9	n/a	n/a	n/a	n/a	n/a	n/a	n/a	n/a	n/a	n/a	n/a	n/a	n/a	n/a	n/a
1442610	PROB	n/a	LTP073	ltpFR	9	n/a	n/a	n/a	n/a	n/a	n/a	12	2	7	3	n/a	n/a	n/a	n/a	n/a
1444084	PROB	n/a	LTP073	ltpFR	9	n/a	n/a	n/a	n/a	n/a	n/a	23	9	8	6	n/a	n/a	n/a	n/a	n/a
1446331	PROB	n/a	LTP073	ltpFR	9	n/a	n/a	n/a	n/a	n/a	n/a	19	7	7	5	n/a	n/a	n/a	n/a	n/a
1448365	STOP	n/a	LTP073	ltpFR	9	n/a	n/a	n/a	n/a	n/a	n/a	n/a	n/a	n/a	n/a	n/a	n/a	n/a	n/a	n/a
1450526	WORD	wordpools/wasnorm_wordpool.txt	LTP073	ltpFR	9	7	0	WAX	1597	n/a	0	n/a	0	0	0	1	0.412841796875	0.57763671875	upper	../fonts/amplitud.ttf
1453531	START	n/a	LTP073	ltpFR	9	n/a	n/a	n/a	n/a	n/a	n/a	n/a	n/a	n/a	n/a	n/a	n/a	n/a	n/a	n/a
1454630	PROB	n/a	LTP073	ltpFR	9	n/a	n/a	n/a	n/a	n/a	n/a	16	8	4	4	n/a	n/a	n/a	n/a	n/a
1458000	PROB	n/a	LTP073	ltpFR	9	n/a	n/a	n/a	n/a	n/a	n/a	10	5	4	1	n/a	n/a	n/a	n/a	n/a
1459864	PROB	n/a	LTP073	ltpFR	9	n/a	n/a	n/a	n/a	n/a	n/a	13	5	5	3	n/a	n/a	n/a	n/a	n/a
1460940	STOP	n/a	LTP073	ltpFR	9	n/a	n/a	n/a	n/a	n/a	n/a	n/a	n/a	n/a	n/a	n/a	n/a	n/a	n/a	n/a
1462470	WORD	wordpools/wasnorm_wordpool.txt	LTP073	ltpFR	9	7	1	WHEEL	1603	n/a	0	n/a	0	0	0	0	0.5869140625	0.422607421875	lower	../fonts/zerothre.ttf
1465476	START	n/a	LTP073	ltpFR	9	n/a	n/a	n/a	n/a	n/a	n/a	n/a	n/a	n/a	n/a	n/a	n/a	n/a	n/a	n/a
1466308	PROB	n/a	LTP073	ltpFR	9	n/a	n/a	n/a	n/a	n/a	n/a	21	9	3	9	n/a	n/a	n/a	n/a	n/a
1467763	PROB	n/a	LTP073	ltpFR	9	n/a	n/a	n/a	n/a	n/a	n/a	21	8	9	4	n/a	n/a	n/a	n/a	n/a
1469454	PROB	n/a	LTP073	ltpFR	9	n/a	n/a	n/a	n/a	n/a	n/a	13	1	3	9	n/a	n/a	n/a	n/a	n/a
1472717	STOP	n/a	LTP073	ltpFR	9	n/a	n/a	n/a	n/a	n/a	n/a	n/a	n/a	n/a	n/a	n/a	n/a	n/a	n/a	n/a
1474648	WORD	wordpools/wasnorm_wordpool.txt	LTP073	ltpFR	9	7	1	LIZARD	834	n/a	1	n/a	0	0	0	0	0.5869140625	0.422607421875	lower	../fonts/zerothre.ttf
1477653	START	n/a	LTP073	ltpFR	9	n/a	n/a	n/a	n/a	n/a	n/a	n/a	n/a	n/a	n/a	n/a	n/a	n/a	n/a	n/a
1478859	PROB	n/a	LTP073	ltpFR	9	n/a	n/a	n/a	n/a	n/a	n/a	15	9	3	3	n/a	n/a	n/a	n/a	n/a
1480831	PROB	n/a	LTP073	ltpFR	9	n/a	n/a	n/a	n/a	n/a	n/a	20	7	9	2	n/a	n/a	n/a	n/a	n/a
1482722	PROB	n/a	LTP073	ltpFR	9	n/a	n/a	n/a	n/a	n/a	n/a	10	3	6	1	n/a	n/a	n/a	n/a	n/a
1484237	STOP	n/a	LTP073	ltpFR	9	n/a	n/a	n/a	n/a	n/a	n/a	n/a	n/a	n/a	n/a	n/a	n/a	n/a	n/a	n/a
1486774	WORD	wordpools/wasnorm_wordpool.txt	LTP073	ltpFR	9	7	1	OFFICE	972	n/a	0	n/a	0	0	0	0	0.5869140625	0.422607421875	lower	../fonts/zerothre.ttf
1489780	START	n/a	LTP073	ltpFR	9	n/a	n/a	n/a	n/a	n/a	n/a	n/a	n/a	n/a	n/a	n/a	n/a	n/a	n/a	n/a
1490753	PROB	n/a	LTP073	ltpFR	9	n/a	n/a	n/a	n/a	n/a	n/a	11	4	5	2	n/a	n/a	n/a	n/a	n/a
1492336	PROB	n/a	LTP073	ltpFR	9	n/a	n/a	n/a	n/a	n/a	n/a	23	8	6	9	n/a	n/a	n/a	n/a	n/a
1494500	PROB	n/a	LTP073	ltpFR	9	n/a	n/a	n/a	n/a	n/a	n/a	23	8	7	8	n/a	n/a	n/a	n/a	n/a
1496701	STOP	n/a	LTP073	ltpFR	9	n/a	n/a	n/a	n/a	n/a	n/a	n/a	n/a	n/a	n/a	n/a	n/a	n/a	n/a	n/a
1498910	WORD	wordpools/wasnorm_wordpool.txt	LTP073	ltpFR	9	7	1	NUT	965	n/a	0	n/a	0	0	0	0	0.5869140625	0.422607421875	lower	../fonts/zerothre.ttf
1501915	START	n/a	LTP073	ltpFR	9	n/a	n/a	n/a	n/a	n/a	n/a	n/a	n/a	n/a	n/a	n/a	n/a	n/a	n/a	n/a
1502947	PROB	n/a	LTP073	ltpFR	9	n/a	n/a	n/a	n/a	n/a	n/a	8	4	3	1	n/a	n/a	n/a	n/a	n/a
1504396	PROB	n/a	LTP073	ltpFR	9	n/a	n/a	n/a	n/a	n/a	n/a	19	8	8	3	n/a	n/a	n/a	n/a	n/a
1506228	PROB	n/a	LTP073	ltpFR	9	n/a	n/a	n/a	n/a	n/a	n/a	1	5	3	8	n/a	n/a	n/a	n/a	n/a
1509915	STOP	n/a	LTP073	ltpFR	9	n/a	n/a	n/a	n/a	n/a	n/a	n/a	n/a	n/a	n/a	n/a	n/a	n/a	n/a	n/a
1510771	WORD	wordpools/wasnorm_wordpool.txt	LTP073	ltpFR	9	7	0	KETTLE	772	n/a	0	n/a	0	0	0	1	0.412841796875	0.57763671875	upper	../fonts/amplitud.ttf
1513777	START	n/a	LTP073	ltpFR	9	n/a	n/a	n/a	n/a	n/a	n/a	n/a	n/a	n/a	n/a	n/a	n/a	n/a	n/a	n/a
1514585	PROB	n/a	LTP073	ltpFR	9	n/a	n/a	n/a	n/a	n/a	n/a	21	8	4	9	n/a	n/a	n/a	n/a	n/a
1516241	PROB	n/a	LTP073	ltpFR	9	n/a	n/a	n/a	n/a	n/a	n/a	15	6	6	3	n/a	n/a	n/a	n/a	n/a
1518063	PROB	n/a	LTP073	ltpFR	9	n/a	n/a	n/a	n/a	n/a	n/a	15	9	4	2	n/a	n/a	n/a	n/a	n/a
1519454	PROB	n/a	LTP073	ltpFR	9	n/a	n/a	n/a	n/a	n/a	n/a	15	4	3	8	n/a	n/a	n/a	n/a	n/a
1521093	STOP	n/a	LTP073	ltpFR	9	n/a	n/a	n/a	n/a	n/a	n/a	n/a	n/a	n/a	n/a	n/a	n/a	n/a	n/a	n/a
1522733	WORD	wordpools/wasnorm_wordpool.txt	LTP073	ltpFR	9	7	0	COFFEE	341	n/a	0	n/a	0	0	0	1	0.412841796875	0.57763671875	upper	../fonts/amplitud.ttf
1525739	START	n/a	LTP073	ltpFR	9	n/a	n/a	n/a	n/a	n/a	n/a	n/a	n/a	n/a	n/a	n/a	n/a	n/a	n/a	n/a
1526737	PROB	n/a	LTP073	ltpFR	9	n/a	n/a	n/a	n/a	n/a	n/a	21	3	8	9	n/a	n/a	n/a	n/a	n/a
1528427	PROB	n/a	LTP073	ltpFR	9	n/a	n/a	n/a	n/a	n/a	n/a	14	3	4	7	n/a	n/a	n/a	n/a	n/a
1530100	PROB	n/a	LTP073	ltpFR	9	n/a	n/a	n/a	n/a	n/a	n/a	21	8	5	8	n/a	n/a	n/a	n/a	n/a
1531855	PROB	n/a	LTP073	ltpFR	9	n/a	n/a	n/a	n/a	n/a	n/a	6	1	1	4	n/a	n/a	n/a	n/a	n/a
1533036	STOP	n/a	LTP073	ltpFR	9	n/a	n/a	n/a	n/a	n/a	n/a	n/a	n/a	n/a	n/a	n/a	n/a	n/a	n/a	n/a
1534802	WORD	wordpools/wasnorm_wordpool.txt	LTP073	ltpFR	9	7	0	DAISY	435	n/a	0	n/a	0	0	0	1	0.412841796875	0.57763671875	upper	../fonts/amplitud.ttf
1537807	START	n/a	LTP073	ltpFR	9	n/a	n/a	n/a	n/a	n/a	n/a	n/a	n/a	n/a	n/a	n/a	n/a	n/a	n/a	n/a
1538723	PROB	n/a	LTP073	ltpFR	9	n/a	n/a	n/a	n/a	n/a	n/a	15	7	3	3	n/a	n/a	n/a	n/a	n/a
1540037	PROB	n/a	LTP073	ltpFR	9	n/a	n/a	n/a	n/a	n/a	n/a	9	1	7	1	n/a	n/a	n/a	n/a	n/a
1541270	PROB	n/a	LTP073	ltpFR	9	n/a	n/a	n/a	n/a	n/a	n/a	25	9	8	8	n/a	n/a	n/a	n/a	n/a
1543251	PROB	n/a	LTP073	ltpFR	9	n/a	n/a	n/a	n/a	n/a	n/a	9	6	2	3	n/a	n/a	n/a	n/a	n/a
1545733	STOP	n/a	LTP073	ltpFR	9	n/a	n/a	n/a	n/a	n/a	n/a	n/a	n/a	n/a	n/a	n/a	n/a	n/a	n/a	n/a
1546879	WORD	wordpools/wasnorm_wordpool.txt	LTP073	ltpFR	9	7	1	WOLF	1619	n/a	0	n/a	0	0	0	0	0.5869140625	0.422607421875	lower	../fonts/zerothre.ttf
1549884	START	n/a	LTP073	ltpFR	9	n/a	n/a	n/a	n/a	n/a	n/a	n/a	n/a	n/a	n/a	n/a	n/a	n/a	n/a	n/a
1550799	PROB	n/a	LTP073	ltpFR	9	n/a	n/a	n/a	n/a	n/a	n/a	21	7	7	7	n/a	n/a	n/a	n/a	n/a
1552048	PROB	n/a	LTP073	ltpFR	9	n/a	n/a	n/a	n/a	n/a	n/a	10	6	2	1	n/a	n/a	n/a	n/a	n/a
1553938	PROB	n/a	LTP073	ltpFR	9	n/a	n/a	n/a	n/a	n/a	n/a	14	1	4	9	n/a	n/a	n/a	n/a	n/a
1557109	STOP	n/a	LTP073	ltpFR	9	n/a	n/a	n/a	n/a	n/a	n/a	n/a	n/a	n/a	n/a	n/a	n/a	n/a	n/a	n/a
1558815	WORD	wordpools/wasnorm_wordpool.txt	LTP073	ltpFR	9	7	1	DIGGER	464	n/a	1	n/a	0	0	0	0	0.5869140625	0.422607421875	lower	../fonts/zerothre.ttf
1561820	START	n/a	LTP073	ltpFR	9	n/a	n/a	n/a	n/a	n/a	n/a	n/a	n/a	n/a	n/a	n/a	n/a	n/a	n/a	n/a
1562728	PROB	n/a	LTP073	ltpFR	9	n/a	n/a	n/a	n/a	n/a	n/a	19	6	4	9	n/a	n/a	n/a	n/a	n/a
1564509	PROB	n/a	LTP073	ltpFR	9	n/a	n/a	n/a	n/a	n/a	n/a	10	5	4	1	n/a	n/a	n/a	n/a	n/a
1565832	PROB	n/a	LTP073	ltpFR	9	n/a	n/a	n/a	n/a	n/a	n/a	20	8	8	6	n/a	n/a	n/a	n/a	n/a
1569820	STOP	n/a	LTP073	ltpFR	9	n/a	n/a	n/a	n/a	n/a	n/a	n/a	n/a	n/a	n/a	n/a	n/a	n/a	n/a	n/a
1570702	WORD	wordpools/wasnorm_wordpool.txt	LTP073	ltpFR	9	7	1	ORCHID	982	n/a	0	n/a	0	0	0	0	0.5869140625	0.422607421875	lower	../fonts/zerothre.ttf
1573708	START	n/a	LTP073	ltpFR	9	n/a	n/a	n/a	n/a	n/a	n/a	n/a	n/a	n/a	n/a	n/a	n/a	n/a	n/a	n/a
1574564	PROB	n/a	LTP073	ltpFR	9	n/a	n/a	n/a	n/a	n/a	n/a	21	5	8	8	n/a	n/a	n/a	n/a	n/a
1576545	PROB	n/a	LTP073	ltpFR	9	n/a	n/a	n/a	n/a	n/a	n/a	5	2	1	2	n/a	n/a	n/a	n/a	n/a
1577785	PROB	n/a	LTP073	ltpFR	9	n/a	n/a	n/a	n/a	n/a	n/a	10	4	2	4	n/a	n/a	n/a	n/a	n/a
1579342	PROB	n/a	LTP073	ltpFR	9	n/a	n/a	n/a	n/a	n/a	n/a	10	5	2	3	n/a	n/a	n/a	n/a	n/a
1581461	STOP	n/a	LTP073	ltpFR	9	n/a	n/a	n/a	n/a	n/a	n/a	n/a	n/a	n/a	n/a	n/a	n/a	n/a	n/a	n/a
1582904	WORD	wordpools/wasnorm_wordpool.txt	LTP073	ltpFR	9	7	1	COLLAR	345	n/a	0	n/a	0	0	0	0	0.5869140625	0.422607421875	lower	../fonts/zerothre.ttf
1585909	START	n/a	LTP073	ltpFR	9	n/a	n/a	n/a	n/a	n/a	n/a	n/a	n/a	n/a	n/a	n/a	n/a	n/a	n/a	n/a
1586916	PROB	n/a	LTP073	ltpFR	9	n/a	n/a	n/a	n/a	n/a	n/a	18	4	6	8	n/a	n/a	n/a	n/a	n/a
1588223	PROB	n/a	LTP073	ltpFR	9	n/a	n/a	n/a	n/a	n/a	n/a	12	3	3	6	n/a	n/a	n/a	n/a	n/a
1589588	PROB	n/a	LTP073	ltpFR	9	n/a	n/a	n/a	n/a	n/a	n/a	16	6	3	7	n/a	n/a	n/a	n/a	n/a
1591669	PROB	n/a	LTP073	ltpFR	9	n/a	n/a	n/a	n/a	n/a	n/a	20	6	8	4	n/a	n/a	n/a	n/a	n/a
1593685	STOP	n/a	LTP073	ltpFR	9	n/a	n/a	n/a	n/a	n/a	n/a	n/a	n/a	n/a	n/a	n/a	n/a	n/a	n/a	n/a
1594915	WORD	wordpools/wasnorm_wordpool.txt	LTP073	ltpFR	9	7	0	SAILOR	1223	n/a	1	n/a	0	0	0	1	0.412841796875	0.57763671875	upper	../fonts/amplitud.ttf
1597920	START	n/a	LTP073	ltpFR	9	n/a	n/a	n/a	n/a	n/a	n/a	n/a	n/a	n/a	n/a	n/a	n/a	n/a	n/a	n/a
1599051	PROB	n/a	LTP073	ltpFR	9	n/a	n/a	n/a	n/a	n/a	n/a	14	3	4	7	n/a	n/a	n/a	n/a	n/a
1600492	PROB	n/a	LTP073	ltpFR	9	n/a	n/a	n/a	n/a	n/a	n/a	11	3	5	3	n/a	n/a	n/a	n/a	n/a
1602190	PROB	n/a	LTP073	ltpFR	9	n/a	n/a	n/a	n/a	n/a	n/a	13	1	8	4	n/a	n/a	n/a	n/a	n/a
1603788	PROB	n/a	LTP073	ltpFR	9	n/a	n/a	n/a	n/a	n/a	n/a	20	7	5	8	n/a	n/a	n/a	n/a	n/a
1605157	STOP	n/a	LTP073	ltpFR	9	n/a	n/a	n/a	n/a	n/a	n/a	n/a	n/a	n/a	n/a	n/a	n/a	n/a	n/a	n/a
1606743	WORD	wordpools/wasnorm_wordpool.txt	LTP073	ltpFR	9	7	0	CASKET	255	n/a	1	n/a	0	0	0	1	0.412841796875	0.57763671875	upper	../fonts/amplitud.ttf
1609747	START	n/a	LTP073	ltpFR	9	n/a	n/a	n/a	n/a	n/a	n/a	n/a	n/a	n/a	n/a	n/a	n/a	n/a	n/a	n/a
1610656	PROB	n/a	LTP073	ltpFR	9	n/a	n/a	n/a	n/a	n/a	n/a	19	1	9	9	n/a	n/a	n/a	n/a	n/a
1612195	PROB	n/a	LTP073	ltpFR	9	n/a	n/a	n/a	n/a	n/a	n/a	23	9	7	7	n/a	n/a	n/a	n/a	n/a
1614692	PROB	n/a	LTP073	ltpFR	9	n/a	n/a	n/a	n/a	n/a	n/a	21	7	8	6	n/a	n/a	n/a	n/a	n/a
1616116	PROB	n/a	LTP073	ltpFR	9	n/a	n/a	n/a	n/a	n/a	n/a	17	4	8	5	n/a	n/a	n/a	n/a	n/a
1617573	STOP	n/a	LTP073	ltpFR	9	n/a	n/a	n/a	n/a	n/a	n/a	n/a	n/a	n/a	n/a	n/a	n/a	n/a	n/a	n/a
1619504	REC_START	n/a	LTP073	ltpFR	9	7	n/a	n/a	n/a	n/a	n/a	n/a	0	0	0	n/a	n/a	n/a	n/a	n/a
1620696	REC_WORD	wordpools/wasnorm_wordpool.txt	LTP073	ltpFR	9	7	0	CASKET	255	n/a	1	n/a	0	0	0	n/a	n/a	n/a	n/a	n/a
1621863	REC_WORD	wordpools/wasnorm_wordpool.txt	LTP073	ltpFR	9	7	0	SAILOR	1223	n/a	1	n/a	0	0	0	n/a	n/a	n/a	n/a	n/a
1622956	REC_WORD	wordpools/wasnorm_wordpool.txt	LTP073	ltpFR	9	7	0	NOTE	958	n/a	0	n/a	0	0	0	n/a	n/a	n/a	n/a	n/a
1623809	REC_WORD	wordpools/wasnorm_wordpool.txt	LTP073	ltpFR	9	7	0	PARCEL	1012	n/a	1	n/a	0	0	0	n/a	n/a	n/a	n/a	n/a
1628039	REC_WORD	wordpools/wasnorm_wordpool.txt	LTP073	ltpFR	9	7	1	OFFICE	972	n/a	0	n/a	0	0	0	n/a	n/a	n/a	n/a	n/a
1628987	REC_WORD	wordpools/wasnorm_wordpool.txt	LTP073	ltpFR	9	7	1	LIZARD	834	n/a	1	n/a	0	0	0	n/a	n/a	n/a	n/a	n/a
1630968	REC_WORD	wordpools/wasnorm_wordpool.txt	LTP073	ltpFR	9	7	1	WOLF	1619	n/a	0	n/a	0	0	0	n/a	n/a	n/a	n/a	n/a
1653427	REC_WORD	wordpools/wasnorm_wordpool.txt	LTP073	ltpFR	9	7	1	ORCHID	982	n/a	0	n/a	0	0	0	n/a	n/a	n/a	n/a	n/a
1656734	REC_WORD	wordpools/wasnorm_wordpool.txt	LTP073	ltpFR	9	7	n/a	TULIP	1517	n/a	n/a	n/a	0	0	0	n/a	n/a	n/a	n/a	n/a
1700409	WORD	wordpools/wasnorm_wordpool.txt	LTP073	ltpFR	9	8	1	HEATER	698	n/a	0	n/a	0	0	0	0	0.5869140625	0.422607421875	lower	../fonts/zerothre.ttf
1704221	WORD	wordpools/wasnorm_wordpool.txt	LTP073	ltpFR	9	8	1	BLANKET	135	n/a	0	n/a	0	0	0	0	0.5869140625	0.422607421875	lower	../fonts/zerothre.ttf
1708358	WORD	wordpools/wasnorm_wordpool.txt	LTP073	ltpFR	9	8	1	CLASS	318	n/a	0	n/a	0	0	0	0	0.5869140625	0.422607421875	lower	../fonts/zerothre.ttf
1712561	WORD	wordpools/wasnorm_wordpool.txt	LTP073	ltpFR	9	8	1	PASTRY	1022	n/a	0	n/a	0	0	0	0	0.5869140625	0.422607421875	lower	../fonts/zerothre.ttf
1716640	WORD	wordpools/wasnorm_wordpool.txt	LTP073	ltpFR	9	8	1	DONKEY	484	n/a	1	n/a	0	0	0	0	0.5869140625	0.422607421875	lower	../fonts/zerothre.ttf
1720817	WORD	wordpools/wasnorm_wordpool.txt	LTP073	ltpFR	9	8	0	OTTER	986	n/a	1	n/a	0	0	0	1	0.412841796875	0.57763671875	upper	../fonts/amplitud.ttf
1724829	WORD	wordpools/wasnorm_wordpool.txt	LTP073	ltpFR	9	8	0	ATHLETE	52	n/a	1	n/a	0	0	0	1	0.412841796875	0.57763671875	upper	../fonts/amplitud.ttf
1728958	WORD	wordpools/wasnorm_wordpool.txt	LTP073	ltpFR	9	8	0	NAVIGATOR	938	n/a	1	n/a	0	0	0	1	0.412841796875	0.57763671875	upper	../fonts/amplitud.ttf
1733137	WORD	wordpools/wasnorm_wordpool.txt	LTP073	ltpFR	9	8	0	SALIVA	1226	n/a	0	n/a	0	0	0	1	0.412841796875	0.57763671875	upper	../fonts/amplitud.ttf
1737266	WORD	wordpools/wasnorm_wordpool.txt	LTP073	ltpFR	9	8	0	SPIT	1354	n/a	0	n/a	0	0	0	1	0.412841796875	0.57763671875	upper	../fonts/amplitud.ttf
1741411	WORD	wordpools/wasnorm_wordpool.txt	LTP073	ltpFR	9	8	0	TURTLE	1522	n/a	0	n/a	0	0	0	1	0.412841796875	0.57763671875	upper	../fonts/amplitud.ttf
1745340	WORD	wordpools/wasnorm_wordpool.txt	LTP073	ltpFR	9	8	1	WAITER	1580	n/a	1	n/a	0	0	0	0	0.5869140625	0.422607421875	lower	../fonts/zerothre.ttf
1749526	WORD	wordpools/wasnorm_wordpool.txt	LTP073	ltpFR	9	8	1	ROPE	1211	n/a	0	n/a	0	0	0	0	0.5869140625	0.422607421875	lower	../fonts/zerothre.ttf
1753355	WORD	wordpools/wasnorm_wordpool.txt	LTP073	ltpFR	9	8	1	FREEZER	604	n/a	0	n/a	0	0	0	0	0.5869140625	0.422607421875	lower	../fonts/zerothre.ttf
1757242	WORD	wordpools/wasnorm_wordpool.txt	LTP073	ltpFR	9	8	0	SNAIL	1332	n/a	0	n/a	0	0	0	1	0.412841796875	0.57763671875	upper	../fonts/amplitud.ttf
1761396	WORD	wordpools/wasnorm_wordpool.txt	LTP073	ltpFR	9	8	0	PORT	1110	n/a	1	n/a	0	0	0	1	0.412841796875	0.57763671875	upper	../fonts/amplitud.ttf
1764401	START	n/a	LTP073	ltpFR	9	n/a	n/a	n/a	n/a	n/a	n/a	n/a	n/a	n/a	n/a	n/a	n/a	n/a	n/a	n/a
1765491	PROB	n/a	LTP073	ltpFR	9	n/a	n/a	n/a	n/a	n/a	n/a	19	8	8	3	n/a	n/a	n/a	n/a	n/a
1767705	PROB	n/a	LTP073	ltpFR	9	n/a	n/a	n/a	n/a	n/a	n/a	17	9	4	4	n/a	n/a	n/a	n/a	n/a
1770102	PROB	n/a	LTP073	ltpFR	9	n/a	n/a	n/a	n/a	n/a	n/a	19	7	3	9	n/a	n/a	n/a	n/a	n/a
1771317	STOP	n/a	LTP073	ltpFR	9	n/a	n/a	n/a	n/a	n/a	n/a	n/a	n/a	n/a	n/a	n/a	n/a	n/a	n/a	n/a
1774206	REC_START	n/a	LTP073	ltpFR	9	8	n/a	n/a	n/a	n/a	n/a	n/a	0	0	0	n/a	n/a	n/a	n/a	n/a
1775303	REC_WORD	wordpools/wasnorm_wordpool.txt	LTP073	ltpFR	9	8	1	HEATER	698	n/a	0	n/a	0	0	0	n/a	n/a	n/a	n/a	n/a
1775969	REC_WORD	wordpools/wasnorm_wordpool.txt	LTP073	ltpFR	9	8	1	FREEZER	604	n/a	0	n/a	0	0	0	n/a	n/a	n/a	n/a	n/a
1776969	REC_WORD_VV	wordpools/wasnorm_wordpool.txt	LTP073	ltpFR	9	8	n/a	<>	-1	n/a	n/a	n/a	0	0	0	n/a	n/a	n/a	n/a	n/a
1777473	REC_WORD	wordpools/wasnorm_wordpool.txt	LTP073	ltpFR	9	8	1	WAITER	1580	n/a	1	n/a	0	0	0	n/a	n/a	n/a	n/a	n/a
1778930	REC_WORD	wordpools/wasnorm_wordpool.txt	LTP073	ltpFR	9	8	1	DONKEY	484	n/a	1	n/a	0	0	0	n/a	n/a	n/a	n/a	n/a
1779669	REC_WORD	wordpools/wasnorm_wordpool.txt	LTP073	ltpFR	9	8	0	OTTER	986	n/a	1	n/a	0	0	0	n/a	n/a	n/a	n/a	n/a
1780477	REC_WORD	wordpools/wasnorm_wordpool.txt	LTP073	ltpFR	9	8	0	ATHLETE	52	n/a	1	n/a	0	0	0	n/a	n/a	n/a	n/a	n/a
1781477	REC_WORD_VV	wordpools/wasnorm_wordpool.txt	LTP073	ltpFR	9	8	n/a	<>	-1	n/a	n/a	n/a	0	0	0	n/a	n/a	n/a	n/a	n/a
1824841	REC_WORD	wordpools/wasnorm_wordpool.txt	LTP073	ltpFR	9	8	0	NAVIGATOR	938	n/a	1	n/a	0	0	0	n/a	n/a	n/a	n/a	n/a
1833656	REC_WORD	wordpools/wasnorm_wordpool.txt	LTP073	ltpFR	9	8	0	TURTLE	1522	n/a	0	n/a	0	0	0	n/a	n/a	n/a	n/a	n/a
1834062	REC_WORD	wordpools/wasnorm_wordpool.txt	LTP073	ltpFR	9	8	0	SNAIL	1332	n/a	0	n/a	0	0	0	n/a	n/a	n/a	n/a	n/a
1835591	REC_WORD	wordpools/wasnorm_wordpool.txt	LTP073	ltpFR	9	8	0	SPIT	1354	n/a	0	n/a	0	0	0	n/a	n/a	n/a	n/a	n/a
1835965	REC_WORD	wordpools/wasnorm_wordpool.txt	LTP073	ltpFR	9	8	0	SALIVA	1226	n/a	0	n/a	0	0	0	n/a	n/a	n/a	n/a	n/a
1863344	START	n/a	LTP073	ltpFR	9	n/a	n/a	n/a	n/a	n/a	n/a	n/a	n/a	n/a	n/a	n/a	n/a	n/a	n/a	n/a
1864849	PROB	n/a	LTP073	ltpFR	9	n/a	n/a	n/a	n/a	n/a	n/a	11	1	4	6	n/a	n/a	n/a	n/a	n/a
1866165	PROB	n/a	LTP073	ltpFR	9	n/a	n/a	n/a	n/a	n/a	n/a	21	9	8	4	n/a	n/a	n/a	n/a	n/a
1867995	PROB	n/a	LTP073	ltpFR	9	n/a	n/a	n/a	n/a	n/a	n/a	12	4	4	4	n/a	n/a	n/a	n/a	n/a
1869386	PROB	n/a	LTP073	ltpFR	9	n/a	n/a	n/a	n/a	n/a	n/a	12	7	2	3	n/a	n/a	n/a	n/a	n/a
1870677	STOP	n/a	LTP073	ltpFR	9	n/a	n/a	n/a	n/a	n/a	n/a	n/a	n/a	n/a	n/a	n/a	n/a	n/a	n/a	n/a
1872449	WORD	wordpools/wasnorm_wordpool.txt	LTP073	ltpFR	9	9	1	BUTLER	204	n/a	1	n/a	0	0	0	0	0.5869140625	0.422607421875	lower	../fonts/zerothre.ttf
1875455	START	n/a	LTP073	ltpFR	9	n/a	n/a	n/a	n/a	n/a	n/a	n/a	n/a	n/a	n/a	n/a	n/a	n/a	n/a	n/a
1876603	PROB	n/a	LTP073	ltpFR	9	n/a	n/a	n/a	n/a	n/a	n/a	19	8	8	3	n/a	n/a	n/a	n/a	n/a
1878209	PROB	n/a	LTP073	ltpFR	9	n/a	n/a	n/a	n/a	n/a	n/a	20	8	3	9	n/a	n/a	n/a	n/a	n/a
1880299	PROB	n/a	LTP073	ltpFR	9	n/a	n/a	n/a	n/a	n/a	n/a	12	3	5	6	n/a	n/a	n/a	n/a	n/a
1883454	STOP	n/a	LTP073	ltpFR	9	n/a	n/a	n/a	n/a	n/a	n/a	n/a	n/a	n/a	n/a	n/a	n/a	n/a	n/a	n/a
1884527	WORD	wordpools/wasnorm_wordpool.txt	LTP073	ltpFR	9	9	1	DIRECTOR	471	n/a	1	n/a	0	0	0	0	0.5869140625	0.422607421875	lower	../fonts/zerothre.ttf
1887532	START	n/a	LTP073	ltpFR	9	n/a	n/a	n/a	n/a	n/a	n/a	n/a	n/a	n/a	n/a	n/a	n/a	n/a	n/a	n/a
1888364	PROB	n/a	LTP073	ltpFR	9	n/a	n/a	n/a	n/a	n/a	n/a	18	8	4	6	n/a	n/a	n/a	n/a	n/a
1889721	PROB	n/a	LTP073	ltpFR	9	n/a	n/a	n/a	n/a	n/a	n/a	13	2	6	5	n/a	n/a	n/a	n/a	n/a
1891718	PROB	n/a	LTP073	ltpFR	9	n/a	n/a	n/a	n/a	n/a	n/a	21	5	9	7	n/a	n/a	n/a	n/a	n/a
1893575	PROB	n/a	LTP073	ltpFR	9	n/a	n/a	n/a	n/a	n/a	n/a	6	1	2	3	n/a	n/a	n/a	n/a	n/a
1894589	STOP	n/a	LTP073	ltpFR	9	n/a	n/a	n/a	n/a	n/a	n/a	n/a	n/a	n/a	n/a	n/a	n/a	n/a	n/a	n/a
1896629	WORD	wordpools/wasnorm_wordpool.txt	LTP073	ltpFR	9	9	1	SWAN	1417	n/a	1	n/a	0	0	0	0	0.5869140625	0.422607421875	lower	../fonts/zerothre.ttf
1899635	START	n/a	LTP073	ltpFR	9	n/a	n/a	n/a	n/a	n/a	n/a	n/a	n/a	n/a	n/a	n/a	n/a	n/a	n/a	n/a
1900733	PROB	n/a	LTP073	ltpFR	9	n/a	n/a	n/a	n/a	n/a	n/a	12	3	1	9	n/a	n/a	n/a	n/a	n/a
1902581	PROB	n/a	LTP073	ltpFR	9	n/a	n/a	n/a	n/a	n/a	n/a	20	8	9	3	n/a	n/a	n/a	n/a	n/a
1905851	PROB	n/a	LTP073	ltpFR	9	n/a	n/a	n/a	n/a	n/a	n/a	10	7	3	1	n/a	n/a	n/a	n/a	n/a
1907012	STOP	n/a	LTP073	ltpFR	9	n/a	n/a	n/a	n/a	n/a	n/a	n/a	n/a	n/a	n/a	n/a	n/a	n/a	n/a	n/a
1908699	WORD	wordpools/wasnorm_wordpool.txt	LTP073	ltpFR	9	9	1	GARDEN	623	n/a	0	n/a	0	0	0	0	0.5869140625	0.422607421875	lower	../fonts/zerothre.ttf
1911704	START	n/a	LTP073	ltpFR	9	n/a	n/a	n/a	n/a	n/a	n/a	n/a	n/a	n/a	n/a	n/a	n/a	n/a	n/a	n/a
1912536	PROB	n/a	LTP073	ltpFR	9	n/a	n/a	n/a	n/a	n/a	n/a	19	4	8	7	n/a	n/a	n/a	n/a	n/a
1914534	PROB	n/a	LTP073	ltpFR	9	n/a	n/a	n/a	n/a	n/a	n/a	14	7	4	1	n/a	n/a	n/a	n/a	n/a
1916064	PROB	n/a	LTP073	ltpFR	9	n/a	n/a	n/a	n/a	n/a	n/a	26	9	9	8	n/a	n/a	n/a	n/a	n/a
1918121	PROB	n/a	LTP073	ltpFR	9	n/a	n/a	n/a	n/a	n/a	n/a	10	4	2	4	n/a	n/a	n/a	n/a	n/a
1919389	STOP	n/a	LTP073	ltpFR	9	n/a	n/a	n/a	n/a	n/a	n/a	n/a	n/a	n/a	n/a	n/a	n/a	n/a	n/a	n/a
1920759	WORD	wordpools/wasnorm_wordpool.txt	LTP073	ltpFR	9	9	1	ORCHESTRA	981	n/a	1	n/a	0	0	0	0	0.5869140625	0.422607421875	lower	../fonts/zerothre.ttf
1923764	START	n/a	LTP073	ltpFR	9	n/a	n/a	n/a	n/a	n/a	n/a	n/a	n/a	n/a	n/a	n/a	n/a	n/a	n/a	n/a
1924895	PROB	n/a	LTP073	ltpFR	9	n/a	n/a	n/a	n/a	n/a	n/a	15	9	2	4	n/a	n/a	n/a	n/a	n/a
1926860	PROB	n/a	LTP073	ltpFR	9	n/a	n/a	n/a	n/a	n/a	n/a	21	9	3	9	n/a	n/a	n/a	n/a	n/a
1930261	STOP	n/a	LTP073	ltpFR	9	n/a	n/a	n/a	n/a	n/a	n/a	n/a	n/a	n/a	n/a	n/a	n/a	n/a	n/a	n/a
1932587	WORD	wordpools/wasnorm_wordpool.txt	LTP073	ltpFR	9	9	1	MEAL	882	n/a	0	n/a	0	0	0	0	0.5869140625	0.422607421875	lower	../fonts/zerothre.ttf
1935593	START	n/a	LTP073	ltpFR	9	n/a	n/a	n/a	n/a	n/a	n/a	n/a	n/a	n/a	n/a	n/a	n/a	n/a	n/a	n/a
1936591	PROB	n/a	LTP073	ltpFR	9	n/a	n/a	n/a	n/a	n/a	n/a	15	6	2	7	n/a	n/a	n/a	n/a	n/a
1939037	PROB	n/a	LTP073	ltpFR	9	n/a	n/a	n/a	n/a	n/a	n/a	12	4	1	7	n/a	n/a	n/a	n/a	n/a
1940720	PROB	n/a	LTP073	ltpFR	9	n/a	n/a	n/a	n/a	n/a	n/a	14	8	1	5	n/a	n/a	n/a	n/a	n/a
1942629	STOP	n/a	LTP073	ltpFR	9	n/a	n/a	n/a	n/a	n/a	n/a	n/a	n/a	n/a	n/a	n/a	n/a	n/a	n/a	n/a
1944615	WORD	wordpools/wasnorm_wordpool.txt	LTP073	ltpFR	9	9	1	VIOLA	1570	n/a	0	n/a	0	0	0	0	0.5869140625	0.422607421875	lower	../fonts/zerothre.ttf
1947620	START	n/a	LTP073	ltpFR	9	n/a	n/a	n/a	n/a	n/a	n/a	n/a	n/a	n/a	n/a	n/a	n/a	n/a	n/a	n/a
1948719	PROB	n/a	LTP073	ltpFR	9	n/a	n/a	n/a	n/a	n/a	n/a	14	6	1	7	n/a	n/a	n/a	n/a	n/a
1950358	PROB	n/a	LTP073	ltpFR	9	n/a	n/a	n/a	n/a	n/a	n/a	17	8	8	1	n/a	n/a	n/a	n/a	n/a
1951781	PROB	n/a	LTP073	ltpFR	9	n/a	n/a	n/a	n/a	n/a	n/a	23	5	9	9	n/a	n/a	n/a	n/a	n/a
1955620	STOP	n/a	LTP073	ltpFR	9	n/a	n/a	n/a	n/a	n/a	n/a	n/a	n/a	n/a	n/a	n/a	n/a	n/a	n/a	n/a
1956543	WORD	wordpools/wasnorm_wordpool.txt	LTP073	ltpFR	9	9	1	SPY	1360	n/a	0	n/a	0	0	0	0	0.5869140625	0.422607421875	lower	../fonts/zerothre.ttf
1959548	START	n/a	LTP073	ltpFR	9	n/a	n/a	n/a	n/a	n/a	n/a	n/a	n/a	n/a	n/a	n/a	n/a	n/a	n/a	n/a
1960688	PROB	n/a	LTP073	ltpFR	9	n/a	n/a	n/a	n/a	n/a	n/a	13	3	6	4	n/a	n/a	n/a	n/a	n/a
1962178	PROB	n/a	LTP073	ltpFR	9	n/a	n/a	n/a	n/a	n/a	n/a	13	5	4	4	n/a	n/a	n/a	n/a	n/a
1963941	PROB	n/a	LTP073	ltpFR	9	n/a	n/a	n/a	n/a	n/a	n/a	18	8	9	1	n/a	n/a	n/a	n/a	n/a
1965773	PROB	n/a	LTP073	ltpFR	9	n/a	n/a	n/a	n/a	n/a	n/a	10	1	5	4	n/a	n/a	n/a	n/a	n/a
1967149	STOP	n/a	LTP073	ltpFR	9	n/a	n/a	n/a	n/a	n/a	n/a	n/a	n/a	n/a	n/a	n/a	n/a	n/a	n/a	n/a
1968404	WORD	wordpools/wasnorm_wordpool.txt	LTP073	ltpFR	9	9	1	SEAGULL	1261	n/a	1	n/a	0	0	0	0	0.5869140625	0.422607421875	lower	../fonts/zerothre.ttf
1971409	START	n/a	LTP073	ltpFR	9	n/a	n/a	n/a	n/a	n/a	n/a	n/a	n/a	n/a	n/a	n/a	n/a	n/a	n/a	n/a
1972591	PROB	n/a	LTP073	ltpFR	9	n/a	n/a	n/a	n/a	n/a	n/a	15	8	2	5	n/a	n/a	n/a	n/a	n/a
1973755	PROB	n/a	LTP073	ltpFR	9	n/a	n/a	n/a	n/a	n/a	n/a	17	2	7	8	n/a	n/a	n/a	n/a	n/a
1975712	PROB	n/a	LTP073	ltpFR	9	n/a	n/a	n/a	n/a	n/a	n/a	15	7	7	1	n/a	n/a	n/a	n/a	n/a
1979409	STOP	n/a	LTP073	ltpFR	9	n/a	n/a	n/a	n/a	n/a	n/a	n/a	n/a	n/a	n/a	n/a	n/a	n/a	n/a	n/a
1980298	WORD	wordpools/wasnorm_wordpool.txt	LTP073	ltpFR	9	9	1	HAND	683	n/a	1	n/a	0	0	0	0	0.5869140625	0.422607421875	lower	../fonts/zerothre.ttf
1983304	START	n/a	LTP073	ltpFR	9	n/a	n/a	n/a	n/a	n/a	n/a	n/a	n/a	n/a	n/a	n/a	n/a	n/a	n/a	n/a
1984443	PROB	n/a	LTP073	ltpFR	9	n/a	n/a	n/a	n/a	n/a	n/a	12	5	4	3	n/a	n/a	n/a	n/a	n/a
1986449	PROB	n/a	LTP073	ltpFR	9	n/a	n/a	n/a	n/a	n/a	n/a	14	7	3	4	n/a	n/a	n/a	n/a	n/a
1987698	PROB	n/a	LTP073	ltpFR	9	n/a	n/a	n/a	n/a	n/a	n/a	14	6	4	4	n/a	n/a	n/a	n/a	n/a
1991303	STOP	n/a	LTP073	ltpFR	9	n/a	n/a	n/a	n/a	n/a	n/a	n/a	n/a	n/a	n/a	n/a	n/a	n/a	n/a	n/a
1992168	WORD	wordpools/wasnorm_wordpool.txt	LTP073	ltpFR	9	9	1	NAIL	936	n/a	1	n/a	0	0	0	0	0.5869140625	0.422607421875	lower	../fonts/zerothre.ttf
1995173	START	n/a	LTP073	ltpFR	9	n/a	n/a	n/a	n/a	n/a	n/a	n/a	n/a	n/a	n/a	n/a	n/a	n/a	n/a	n/a
1996238	PROB	n/a	LTP073	ltpFR	9	n/a	n/a	n/a	n/a	n/a	n/a	11	3	1	7	n/a	n/a	n/a	n/a	n/a
1997470	PROB	n/a	LTP073	ltpFR	9	n/a	n/a	n/a	n/a	n/a	n/a	16	5	6	5	n/a	n/a	n/a	n/a	n/a
1999110	PROB	n/a	LTP073	ltpFR	9	n/a	n/a	n/a	n/a	n/a	n/a	15	5	4	6	n/a	n/a	n/a	n/a	n/a
2000616	PROB	n/a	LTP073	ltpFR	9	n/a	n/a	n/a	n/a	n/a	n/a	19	4	6	9	n/a	n/a	n/a	n/a	n/a
2002109	STOP	n/a	LTP073	ltpFR	9	n/a	n/a	n/a	n/a	n/a	n/a	n/a	n/a	n/a	n/a	n/a	n/a	n/a	n/a	n/a
2004270	WORD	wordpools/wasnorm_wordpool.txt	LTP073	ltpFR	9	9	1	SLOPE	1328	n/a	0	n/a	0	0	0	0	0.5869140625	0.422607421875	lower	../fonts/zerothre.ttf
2007276	START	n/a	LTP073	ltpFR	9	n/a	n/a	n/a	n/a	n/a	n/a	n/a	n/a	n/a	n/a	n/a	n/a	n/a	n/a	n/a
2008149	PROB	n/a	LTP073	ltpFR	9	n/a	n/a	n/a	n/a	n/a	n/a	16	6	1	9	n/a	n/a	n/a	n/a	n/a
2010105	PROB	n/a	LTP073	ltpFR	9	n/a	n/a	n/a	n/a	n/a	n/a	17	7	5	5	n/a	n/a	n/a	n/a	n/a
2011528	PROB	n/a	LTP073	ltpFR	9	n/a	n/a	n/a	n/a	n/a	n/a	10	5	4	1	n/a	n/a	n/a	n/a	n/a
2012759	PROB	n/a	LTP073	ltpFR	9	n/a	n/a	n/a	n/a	n/a	n/a	18	5	8	5	n/a	n/a	n/a	n/a	n/a
2014117	STOP	n/a	LTP073	ltpFR	9	n/a	n/a	n/a	n/a	n/a	n/a	n/a	n/a	n/a	n/a	n/a	n/a	n/a	n/a	n/a
2016456	WORD	wordpools/wasnorm_wordpool.txt	LTP073	ltpFR	9	9	1	MOUNTAIN	924	n/a	0	n/a	0	0	0	0	0.5869140625	0.422607421875	lower	../fonts/zerothre.ttf
2019461	START	n/a	LTP073	ltpFR	9	n/a	n/a	n/a	n/a	n/a	n/a	n/a	n/a	n/a	n/a	n/a	n/a	n/a	n/a	n/a
2020535	PROB	n/a	LTP073	ltpFR	9	n/a	n/a	n/a	n/a	n/a	n/a	19	6	9	4	n/a	n/a	n/a	n/a	n/a
2022416	PROB	n/a	LTP073	ltpFR	9	n/a	n/a	n/a	n/a	n/a	n/a	8	6	1	1	n/a	n/a	n/a	n/a	n/a
2023556	PROB	n/a	LTP073	ltpFR	9	n/a	n/a	n/a	n/a	n/a	n/a	19	7	4	8	n/a	n/a	n/a	n/a	n/a
2024887	PROB	n/a	LTP073	ltpFR	9	n/a	n/a	n/a	n/a	n/a	n/a	19	8	5	6	n/a	n/a	n/a	n/a	n/a
2027373	STOP	n/a	LTP073	ltpFR	9	n/a	n/a	n/a	n/a	n/a	n/a	n/a	n/a	n/a	n/a	n/a	n/a	n/a	n/a	n/a
2028384	WORD	wordpools/wasnorm_wordpool.txt	LTP073	ltpFR	9	9	1	GAUZE	626	n/a	0	n/a	0	0	0	0	0.5869140625	0.422607421875	lower	../fonts/zerothre.ttf
2031389	START	n/a	LTP073	ltpFR	9	n/a	n/a	n/a	n/a	n/a	n/a	n/a	n/a	n/a	n/a	n/a	n/a	n/a	n/a	n/a
2032587	PROB	n/a	LTP073	ltpFR	9	n/a	n/a	n/a	n/a	n/a	n/a	23	8	9	5	n/a	n/a	n/a	n/a	n/a
2035525	PROB	n/a	LTP073	ltpFR	9	n/a	n/a	n/a	n/a	n/a	n/a	17	5	8	4	n/a	n/a	n/a	n/a	n/a
2039389	STOP	n/a	LTP073	ltpFR	9	n/a	n/a	n/a	n/a	n/a	n/a	n/a	n/a	n/a	n/a	n/a	n/a	n/a	n/a	n/a
2040361	WORD	wordpools/wasnorm_wordpool.txt	LTP073	ltpFR	9	9	1	BRUISE	180	n/a	0	n/a	0	0	0	0	0.5869140625	0.422607421875	lower	../fonts/zerothre.ttf
2043367	START	n/a	LTP073	ltpFR	9	n/a	n/a	n/a	n/a	n/a	n/a	n/a	n/a	n/a	n/a	n/a	n/a	n/a	n/a	n/a
2044265	PROB	n/a	LTP073	ltpFR	9	n/a	n/a	n/a	n/a	n/a	n/a	12	4	1	7	n/a	n/a	n/a	n/a	n/a
2045979	PROB	n/a	LTP073	ltpFR	9	n/a	n/a	n/a	n/a	n/a	n/a	23	9	8	5	n/a	n/a	n/a	n/a	n/a
2047827	PROB	n/a	LTP073	ltpFR	9	n/a	n/a	n/a	n/a	n/a	n/a	13	5	5	3	n/a	n/a	n/a	n/a	n/a
2049184	PROB	n/a	LTP073	ltpFR	9	n/a	n/a	n/a	n/a	n/a	n/a	18	3	9	6	n/a	n/a	n/a	n/a	n/a
2050629	STOP	n/a	LTP073	ltpFR	9	n/a	n/a	n/a	n/a	n/a	n/a	n/a	n/a	n/a	n/a	n/a	n/a	n/a	n/a	n/a
2052347	WORD	wordpools/wasnorm_wordpool.txt	LTP073	ltpFR	9	9	1	TRUMPET	1513	n/a	0	n/a	0	0	0	0	0.5869140625	0.422607421875	lower	../fonts/zerothre.ttf
2055352	START	n/a	LTP073	ltpFR	9	n/a	n/a	n/a	n/a	n/a	n/a	n/a	n/a	n/a	n/a	n/a	n/a	n/a	n/a	n/a
2056468	PROB	n/a	LTP073	ltpFR	9	n/a	n/a	n/a	n/a	n/a	n/a	13	3	2	8	n/a	n/a	n/a	n/a	n/a
2057898	PROB	n/a	LTP073	ltpFR	9	n/a	n/a	n/a	n/a	n/a	n/a	13	8	2	3	n/a	n/a	n/a	n/a	n/a
2059389	PROB	n/a	LTP073	ltpFR	9	n/a	n/a	n/a	n/a	n/a	n/a	12	3	4	5	n/a	n/a	n/a	n/a	n/a
2061254	PROB	n/a	LTP073	ltpFR	9	n/a	n/a	n/a	n/a	n/a	n/a	16	1	9	6	n/a	n/a	n/a	n/a	n/a
2062741	STOP	n/a	LTP073	ltpFR	9	n/a	n/a	n/a	n/a	n/a	n/a	n/a	n/a	n/a	n/a	n/a	n/a	n/a	n/a	n/a
2065233	REC_START	n/a	LTP073	ltpFR	9	9	n/a	n/a	n/a	n/a	n/a	n/a	0	0	0	n/a	n/a	n/a	n/a	n/a
2066744	REC_WORD	wordpools/wasnorm_wordpool.txt	LTP073	ltpFR	9	9	1	GAUZE	626	n/a	0	n/a	0	0	0	n/a	n/a	n/a	n/a	n/a
2067500	REC_WORD	wordpools/wasnorm_wordpool.txt	LTP073	ltpFR	9	9	1	HAND	683	n/a	1	n/a	0	0	0	n/a	n/a	n/a	n/a	n/a
2068178	REC_WORD	wordpools/wasnorm_wordpool.txt	LTP073	ltpFR	9	9	n/a	FINGER	567	n/a	n/a	n/a	0	0	0	n/a	n/a	n/a	n/a	n/a
2069090	REC_WORD	wordpools/wasnorm_wordpool.txt	LTP073	ltpFR	9	9	1	MOUNTAIN	924	n/a	0	n/a	0	0	0	n/a	n/a	n/a	n/a	n/a
2069912	REC_WORD	wordpools/wasnorm_wordpool.txt	LTP073	ltpFR	9	9	1	SLOPE	1328	n/a	0	n/a	0	0	0	n/a	n/a	n/a	n/a	n/a
2071344	REC_WORD	wordpools/wasnorm_wordpool.txt	LTP073	ltpFR	9	9	1	TRUMPET	1513	n/a	0	n/a	0	0	0	n/a	n/a	n/a	n/a	n/a
2073170	REC_WORD	wordpools/wasnorm_wordpool.txt	LTP073	ltpFR	9	9	1	VIOLA	1570	n/a	0	n/a	0	0	0	n/a	n/a	n/a	n/a	n/a
2074111	REC_WORD	wordpools/wasnorm_wordpool.txt	LTP073	ltpFR	9	9	1	ORCHESTRA	981	n/a	1	n/a	0	0	0	n/a	n/a	n/a	n/a	n/a
2075111	REC_WORD_VV	wordpools/wasnorm_wordpool.txt	LTP073	ltpFR	9	9	n/a	<>	-1	n/a	n/a	n/a	0	0	0	n/a	n/a	n/a	n/a	n/a
2079805	REC_WORD	wordpools/wasnorm_wordpool.txt	LTP073	ltpFR	9	9	1	SWAN	1417	n/a	1	n/a	0	0	0	n/a	n/a	n/a	n/a	n/a
2080662	REC_WORD	wordpools/wasnorm_wordpool.txt	LTP073	ltpFR	9	9	1	SEAGULL	1261	n/a	1	n/a	0	0	0	n/a	n/a	n/a	n/a	n/a
2082678	REC_WORD	wordpools/wasnorm_wordpool.txt	LTP073	ltpFR	9	9	1	DIRECTOR	471	n/a	1	n/a	0	0	0	n/a	n/a	n/a	n/a	n/a
2084464	REC_WORD	wordpools/wasnorm_wordpool.txt	LTP073	ltpFR	9	9	1	BUTLER	204	n/a	1	n/a	0	0	0	n/a	n/a	n/a	n/a	n/a
2146146	WORD	wordpools/wasnorm_wordpool.txt	LTP073	ltpFR	9	10	1	CANAL	226	n/a	0	n/a	0	0	0	0	0.5869140625	0.422607421875	lower	../fonts/zerothre.ttf
2150341	WORD	wordpools/wasnorm_wordpool.txt	LTP073	ltpFR	9	10	1	ISLAND	745	n/a	0	n/a	0	0	0	0	0.5869140625	0.422607421875	lower	../fonts/zerothre.ttf
2154486	WORD	wordpools/wasnorm_wordpool.txt	LTP073	ltpFR	9	10	1	CHEMICAL	291	n/a	0	n/a	0	0	0	0	0.5869140625	0.422607421875	lower	../fonts/zerothre.ttf
2158465	WORD	wordpools/wasnorm_wordpool.txt	LTP073	ltpFR	9	10	1	SPACE	1345	n/a	0	n/a	0	0	0	0	0.5869140625	0.422607421875	lower	../fonts/zerothre.ttf
2162535	WORD	wordpools/wasnorm_wordpool.txt	LTP073	ltpFR	9	10	1	SEED	1266	n/a	0	n/a	0	0	0	0	0.5869140625	0.422607421875	lower	../fonts/zerothre.ttf
2166481	WORD	wordpools/wasnorm_wordpool.txt	LTP073	ltpFR	9	10	1	BROOK	177	n/a	0	n/a	0	0	0	0	0.5869140625	0.422607421875	lower	../fonts/zerothre.ttf
2170334	WORD	wordpools/wasnorm_wordpool.txt	LTP073	ltpFR	9	10	1	CAMEL	223	n/a	1	n/a	0	0	0	0	0.5869140625	0.422607421875	lower	../fonts/zerothre.ttf
2174521	WORD	wordpools/wasnorm_wordpool.txt	LTP073	ltpFR	9	10	1	RADISH	1158	n/a	0	n/a	0	0	0	0	0.5869140625	0.422607421875	lower	../fonts/zerothre.ttf
2178458	WORD	wordpools/wasnorm_wordpool.txt	LTP073	ltpFR	9	10	1	BIRD	129	n/a	1	n/a	0	0	0	0	0.5869140625	0.422607421875	lower	../fonts/zerothre.ttf
2182528	WORD	wordpools/wasnorm_wordpool.txt	LTP073	ltpFR	9	10	1	CANVAS	234	n/a	0	n/a	0	0	0	0	0.5869140625	0.422607421875	lower	../fonts/zerothre.ttf
2186524	WORD	wordpools/wasnorm_wordpool.txt	LTP073	ltpFR	9	10	1	POPE	1105	n/a	1	n/a	0	0	0	0	0.5869140625	0.422607421875	lower	../fonts/zerothre.ttf
2190453	WORD	wordpools/wasnorm_wordpool.txt	LTP073	ltpFR	9	10	1	LAKE	796	n/a	0	n/a	0	0	0	0	0.5869140625	0.422607421875	lower	../fonts/zerothre.ttf
2194648	WORD	wordpools/wasnorm_wordpool.txt	LTP073	ltpFR	9	10	1	PAINTER	1004	n/a	1	n/a	0	0	0	0	0.5869140625	0.422607421875	lower	../fonts/zerothre.ttf
2198585	WORD	wordpools/wasnorm_wordpool.txt	LTP073	ltpFR	9	10	1	CROSS	413	n/a	0	n/a	0	0	0	0	0.5869140625	0.422607421875	lower	../fonts/zerothre.ttf
2202770	WORD	wordpools/wasnorm_wordpool.txt	LTP073	ltpFR	9	10	1	GROCERY	664	n/a	0	n/a	0	0	0	0	0.5869140625	0.422607421875	lower	../fonts/zerothre.ttf
2206857	WORD	wordpools/wasnorm_wordpool.txt	LTP073	ltpFR	9	10	1	STORE	1387	n/a	0	n/a	0	0	0	0	0.5869140625	0.422607421875	lower	../fonts/zerothre.ttf
2209862	START	n/a	LTP073	ltpFR	9	n/a	n/a	n/a	n/a	n/a	n/a	n/a	n/a	n/a	n/a	n/a	n/a	n/a	n/a	n/a
2210886	PROB	n/a	LTP073	ltpFR	9	n/a	n/a	n/a	n/a	n/a	n/a	18	8	8	2	n/a	n/a	n/a	n/a	n/a
2212627	PROB	n/a	LTP073	ltpFR	9	n/a	n/a	n/a	n/a	n/a	n/a	16	8	5	3	n/a	n/a	n/a	n/a	n/a
2214674	PROB	n/a	LTP073	ltpFR	9	n/a	n/a	n/a	n/a	n/a	n/a	19	3	8	8	n/a	n/a	n/a	n/a	n/a
2216206	PROB	n/a	LTP073	ltpFR	9	n/a	n/a	n/a	n/a	n/a	n/a	15	3	3	9	n/a	n/a	n/a	n/a	n/a
2217761	PROB	n/a	LTP073	ltpFR	9	n/a	n/a	n/a	n/a	n/a	n/a	14	6	4	6	n/a	n/a	n/a	n/a	n/a
2218918	PROB	n/a	LTP073	ltpFR	9	n/a	n/a	n/a	n/a	n/a	n/a	23	9	8	5	n/a	n/a	n/a	n/a	n/a
2221591	PROB	n/a	LTP073	ltpFR	9	n/a	n/a	n/a	n/a	n/a	n/a	13	5	5	3	n/a	n/a	n/a	n/a	n/a
2222657	PROB	n/a	LTP073	ltpFR	9	n/a	n/a	n/a	n/a	n/a	n/a	12	7	3	2	n/a	n/a	n/a	n/a	n/a
2223664	PROB	n/a	LTP073	ltpFR	9	n/a	n/a	n/a	n/a	n/a	n/a	15	5	5	5	n/a	n/a	n/a	n/a	n/a
2224725	STOP	n/a	LTP073	ltpFR	9	n/a	n/a	n/a	n/a	n/a	n/a	n/a	n/a	n/a	n/a	n/a	n/a	n/a	n/a	n/a
2227783	REC_START	n/a	LTP073	ltpFR	9	10	n/a	n/a	n/a	n/a	n/a	n/a	0	0	0	n/a	n/a	n/a	n/a	n/a
2228815	REC_WORD	wordpools/wasnorm_wordpool.txt	LTP073	ltpFR	9	10	1	CANAL	226	n/a	0	n/a	0	0	0	n/a	n/a	n/a	n/a	n/a
2229550	REC_WORD	wordpools/wasnorm_wordpool.txt	LTP073	ltpFR	9	10	1	ISLAND	745	n/a	0	n/a	0	0	0	n/a	n/a	n/a	n/a	n/a
2230292	REC_WORD	wordpools/wasnorm_wordpool.txt	LTP073	ltpFR	9	10	1	BROOK	177	n/a	0	n/a	0	0	0	n/a	n/a	n/a	n/a	n/a
2230911	REC_WORD	wordpools/wasnorm_wordpool.txt	LTP073	ltpFR	9	10	1	LAKE	796	n/a	0	n/a	0	0	0	n/a	n/a	n/a	n/a	n/a
2232687	REC_WORD_VV	wordpools/wasnorm_wordpool.txt	LTP073	ltpFR	9	10	n/a	<>	-1	n/a	n/a	n/a	0	0	0	n/a	n/a	n/a	n/a	n/a
2233864	REC_WORD	wordpools/wasnorm_wordpool.txt	LTP073	ltpFR	9	10	1	POPE	1105	n/a	1	n/a	0	0	0	n/a	n/a	n/a	n/a	n/a
2234413	REC_WORD	wordpools/wasnorm_wordpool.txt	LTP073	ltpFR	9	10	1	CROSS	413	n/a	0	n/a	0	0	0	n/a	n/a	n/a	n/a	n/a
2234943	REC_WORD	wordpools/wasnorm_wordpool.txt	LTP073	ltpFR	9	10	1	GROCERY	664	n/a	0	n/a	0	0	0	n/a	n/a	n/a	n/a	n/a
2235505	REC_WORD	wordpools/wasnorm_wordpool.txt	LTP073	ltpFR	9	10	1	STORE	1387	n/a	0	n/a	0	0	0	n/a	n/a	n/a	n/a	n/a
2240020	REC_WORD	wordpools/wasnorm_wordpool.txt	LTP073	ltpFR	9	10	1	BIRD	129	n/a	1	n/a	0	0	0	n/a	n/a	n/a	n/a	n/a
2243113	REC_WORD	wordpools/wasnorm_wordpool.txt	LTP073	ltpFR	9	10	1	CAMEL	223	n/a	1	n/a	0	0	0	n/a	n/a	n/a	n/a	n/a
2259865	REC_WORD	wordpools/wasnorm_wordpool.txt	LTP073	ltpFR	9	10	1	SPACE	1345	n/a	0	n/a	0	0	0	n/a	n/a	n/a	n/a	n/a
2260611	REC_WORD	wordpools/wasnorm_wordpool.txt	LTP073	ltpFR	9	10	1	SEED	1266	n/a	0	n/a	0	0	0	n/a	n/a	n/a	n/a	n/a
2261496	REC_WORD	wordpools/wasnorm_wordpool.txt	LTP073	ltpFR	9	10	1	RADISH	1158	n/a	0	n/a	0	0	0	n/a	n/a	n/a	n/a	n/a
2308731	WORD	wordpools/wasnorm_wordpool.txt	LTP073	ltpFR	9	11	1	BRAN	167	n/a	0	n/a	0	0	0	0	0.5869140625	0.422607421875	lower	../fonts/zerothre.ttf
2312726	WORD	wordpools/wasnorm_wordpool.txt	LTP073	ltpFR	9	11	1	LOOP	844	n/a	1	n/a	0	0	0	0	0.5869140625	0.422607421875	lower	../fonts/zerothre.ttf
2316547	WORD	wordpools/wasnorm_wordpool.txt	LTP073	ltpFR	9	11	1	TOMATO	1476	n/a	0	n/a	0	0	0	0	0.5869140625	0.422607421875	lower	../fonts/zerothre.ttf
2320592	WORD	wordpools/wasnorm_wordpool.txt	LTP073	ltpFR	9	11	1	ROOM	1206	n/a	0	n/a	0	0	0	0	0.5869140625	0.422607421875	lower	../fonts/zerothre.ttf
2324421	WORD	wordpools/wasnorm_wordpool.txt	LTP073	ltpFR	9	11	1	INTESTINE	742	n/a	0	n/a	0	0	0	0	0.5869140625	0.422607421875	lower	../fonts/zerothre.ttf
2328266	WORD	wordpools/wasnorm_wordpool.txt	LTP073	ltpFR	9	11	1	TRIANGLE	1504	n/a	0	n/a	0	0	0	0	0.5869140625	0.422607421875	lower	../fonts/zerothre.ttf
2332170	WORD	wordpools/wasnorm_wordpool.txt	LTP073	ltpFR	9	11	1	HOSTESS	723	n/a	1	n/a	0	0	0	0	0.5869140625	0.422607421875	lower	../fonts/zerothre.ttf
2336149	WORD	wordpools/wasnorm_wordpool.txt	LTP073	ltpFR	9	11	1	PARTY	1018	n/a	0	n/a	0	0	0	0	0.5869140625	0.422607421875	lower	../fonts/zerothre.ttf
2339968	WORD	wordpools/wasnorm_wordpool.txt	LTP073	ltpFR	9	11	1	POLITICIAN	1099	n/a	1	n/a	0	0	0	0	0.5869140625	0.422607421875	lower	../fonts/zerothre.ttf
2343797	WORD	wordpools/wasnorm_wordpool.txt	LTP073	ltpFR	9	11	1	CEREAL	272	n/a	0	n/a	0	0	0	0	0.5869140625	0.422607421875	lower	../fonts/zerothre.ttf
2347917	WORD	wordpools/wasnorm_wordpool.txt	LTP073	ltpFR	9	11	1	SHRIMP	1297	n/a	0	n/a	0	0	0	0	0.5869140625	0.422607421875	lower	../fonts/zerothre.ttf
2351921	WORD	wordpools/wasnorm_wordpool.txt	LTP073	ltpFR	9	11	1	RIVER	1194	n/a	0	n/a	0	0	0	0	0.5869140625	0.422607421875	lower	../fonts/zerothre.ttf
2355933	WORD	wordpools/wasnorm_wordpool.txt	LTP073	ltpFR	9	11	1	SAUSAGE	1238	n/a	0	n/a	0	0	0	0	0.5869140625	0.422607421875	lower	../fonts/zerothre.ttf
2359754	WORD	wordpools/wasnorm_wordpool.txt	LTP073	ltpFR	9	11	1	FOX	598	n/a	1	n/a	0	0	0	0	0.5869140625	0.422607421875	lower	../fonts/zerothre.ttf
2363924	WORD	wordpools/wasnorm_wordpool.txt	LTP073	ltpFR	9	11	1	WALRUS	1585	n/a	1	n/a	0	0	0	0	0.5869140625	0.422607421875	lower	../fonts/zerothre.ttf
2367844	WORD	wordpools/wasnorm_wordpool.txt	LTP073	ltpFR	9	11	1	KITCHEN	778	n/a	0	n/a	0	0	0	0	0.5869140625	0.422607421875	lower	../fonts/zerothre.ttf
2373664	REC_START	n/a	LTP073	ltpFR	9	11	n/a	n/a	n/a	n/a	n/a	n/a	0	0	0	n/a	n/a	n/a	n/a	n/a
2374966	REC_WORD	wordpools/wasnorm_wordpool.txt	LTP073	ltpFR	9	11	1	KITCHEN	778	n/a	0	n/a	0	0	0	n/a	n/a	n/a	n/a	n/a
2375548	REC_WORD	wordpools/wasnorm_wordpool.txt	LTP073	ltpFR	9	11	1	SAUSAGE	1238	n/a	0	n/a	0	0	0	n/a	n/a	n/a	n/a	n/a
2376475	REC_WORD	wordpools/wasnorm_wordpool.txt	LTP073	ltpFR	9	11	1	SHRIMP	1297	n/a	0	n/a	0	0	0	n/a	n/a	n/a	n/a	n/a
2377460	REC_WORD	wordpools/wasnorm_wordpool.txt	LTP073	ltpFR	9	11	1	PARTY	1018	n/a	0	n/a	0	0	0	n/a	n/a	n/a	n/a	n/a
2378043	REC_WORD	wordpools/wasnorm_wordpool.txt	LTP073	ltpFR	9	11	1	POLITICIAN	1099	n/a	1	n/a	0	0	0	n/a	n/a	n/a	n/a	n/a
2379013	REC_WORD	wordpools/wasnorm_wordpool.txt	LTP073	ltpFR	9	11	1	FOX	598	n/a	1	n/a	0	0	0	n/a	n/a	n/a	n/a	n/a
2379693	REC_WORD	wordpools/wasnorm_wordpool.txt	LTP073	ltpFR	9	11	1	WALRUS	1585	n/a	1	n/a	0	0	0	n/a	n/a	n/a	n/a	n/a
2380399	REC_WORD	wordpools/wasnorm_wordpool.txt	LTP073	ltpFR	9	11	1	HOSTESS	723	n/a	1	n/a	0	0	0	n/a	n/a	n/a	n/a	n/a
2382469	REC_WORD	wordpools/wasnorm_wordpool.txt	LTP073	ltpFR	9	11	1	BRAN	167	n/a	0	n/a	0	0	0	n/a	n/a	n/a	n/a	n/a
2383025	REC_WORD	wordpools/wasnorm_wordpool.txt	LTP073	ltpFR	9	11	1	CEREAL	272	n/a	0	n/a	0	0	0	n/a	n/a	n/a	n/a	n/a
2384025	REC_WORD_VV	wordpools/wasnorm_wordpool.txt	LTP073	ltpFR	9	11	n/a	<>	-1	n/a	n/a	n/a	0	0	0	n/a	n/a	n/a	n/a	n/a
2388560	REC_WORD	wordpools/wasnorm_wordpool.txt	LTP073	ltpFR	9	11	1	ROOM	1206	n/a	0	n/a	0	0	0	n/a	n/a	n/a	n/a	n/a
2389253	REC_WORD	wordpools/wasnorm_wordpool.txt	LTP073	ltpFR	9	11	1	TRIANGLE	1504	n/a	0	n/a	0	0	0	n/a	n/a	n/a	n/a	n/a
2390291	REC_WORD	wordpools/wasnorm_wordpool.txt	LTP073	ltpFR	9	11	1	LOOP	844	n/a	1	n/a	0	0	0	n/a	n/a	n/a	n/a	n/a
2407168	REC_WORD	wordpools/wasnorm_wordpool.txt	LTP073	ltpFR	9	11	1	TOMATO	1476	n/a	0	n/a	0	0	0	n/a	n/a	n/a	n/a	n/a
2420268	REC_WORD	wordpools/wasnorm_wordpool.txt	LTP073	ltpFR	9	11	1	RIVER	1194	n/a	0	n/a	0	0	0	n/a	n/a	n/a	n/a	n/a
2420891	REC_WORD	wordpools/wasnorm_wordpool.txt	LTP073	ltpFR	9	11	1	INTESTINE	742	n/a	0	n/a	0	0	0	n/a	n/a	n/a	n/a	n/a
2463907	START	n/a	LTP073	ltpFR	9	n/a	n/a	n/a	n/a	n/a	n/a	n/a	n/a	n/a	n/a	n/a	n/a	n/a	n/a	n/a
2465414	PROB	n/a	LTP073	ltpFR	9	n/a	n/a	n/a	n/a	n/a	n/a	17	8	6	3	n/a	n/a	n/a	n/a	n/a
2468278	PROB	n/a	LTP073	ltpFR	9	n/a	n/a	n/a	n/a	n/a	n/a	13	2	2	9	n/a	n/a	n/a	n/a	n/a
2469900	PROB	n/a	LTP073	ltpFR	9	n/a	n/a	n/a	n/a	n/a	n/a	18	9	2	7	n/a	n/a	n/a	n/a	n/a
2473122	PROB	n/a	LTP073	ltpFR	9	n/a	n/a	n/a	n/a	n/a	n/a	13	2	9	4	n/a	n/a	n/a	n/a	n/a
2475419	PROB	n/a	LTP073	ltpFR	9	n/a	n/a	n/a	n/a	n/a	n/a	13	7	1	5	n/a	n/a	n/a	n/a	n/a
2477450	PROB	n/a	LTP073	ltpFR	9	n/a	n/a	n/a	n/a	n/a	n/a	7	1	4	2	n/a	n/a	n/a	n/a	n/a
2478892	STOP	n/a	LTP073	ltpFR	9	n/a	n/a	n/a	n/a	n/a	n/a	n/a	n/a	n/a	n/a	n/a	n/a	n/a	n/a	n/a
2480787	WORD	wordpools/wasnorm_wordpool.txt	LTP073	ltpFR	9	12	0	SCREWDRIVER	1255	n/a	0	n/a	0	0	0	1	0.412841796875	0.57763671875	upper	../fonts/amplitud.ttf
2483792	START	n/a	LTP073	ltpFR	9	n/a	n/a	n/a	n/a	n/a	n/a	n/a	n/a	n/a	n/a	n/a	n/a	n/a	n/a	n/a
2484742	PROB	n/a	LTP073	ltpFR	9	n/a	n/a	n/a	n/a	n/a	n/a	20	7	6	7	n/a	n/a	n/a	n/a	n/a
2486290	PROB	n/a	LTP073	ltpFR	9	n/a	n/a	n/a	n/a	n/a	n/a	15	7	1	7	n/a	n/a	n/a	n/a	n/a
2487655	PROB	n/a	LTP073	ltpFR	9	n/a	n/a	n/a	n/a	n/a	n/a	15	4	2	9	n/a	n/a	n/a	n/a	n/a
2488994	PROB	n/a	LTP073	ltpFR	9	n/a	n/a	n/a	n/a	n/a	n/a	13	2	5	6	n/a	n/a	n/a	n/a	n/a
2490726	PROB	n/a	LTP073	ltpFR	9	n/a	n/a	n/a	n/a	n/a	n/a	13	4	6	3	n/a	n/a	n/a	n/a	n/a
2492125	PROB	n/a	LTP073	ltpFR	9	n/a	n/a	n/a	n/a	n/a	n/a	6	4	1	1	n/a	n/a	n/a	n/a	n/a
2493423	PROB	n/a	LTP073	ltpFR	9	n/a	n/a	n/a	n/a	n/a	n/a	18	4	5	9	n/a	n/a	n/a	n/a	n/a
2495221	PROB	n/a	LTP073	ltpFR	9	n/a	n/a	n/a	n/a	n/a	n/a	10	2	5	3	n/a	n/a	n/a	n/a	n/a
2496918	PROB	n/a	LTP073	ltpFR	9	n/a	n/a	n/a	n/a	n/a	n/a	20	7	6	7	n/a	n/a	n/a	n/a	n/a
2498573	STOP	n/a	LTP073	ltpFR	9	n/a	n/a	n/a	n/a	n/a	n/a	n/a	n/a	n/a	n/a	n/a	n/a	n/a	n/a	n/a
2500947	WORD	wordpools/wasnorm_wordpool.txt	LTP073	ltpFR	9	12	0	BARTENDER	92	n/a	1	n/a	0	0	0	1	0.412841796875	0.57763671875	upper	../fonts/amplitud.ttf
2503952	START	n/a	LTP073	ltpFR	9	n/a	n/a	n/a	n/a	n/a	n/a	n/a	n/a	n/a	n/a	n/a	n/a	n/a	n/a	n/a
2504909	PROB	n/a	LTP073	ltpFR	9	n/a	n/a	n/a	n/a	n/a	n/a	14	6	4	4	n/a	n/a	n/a	n/a	n/a
2506350	PROB	n/a	LTP073	ltpFR	9	n/a	n/a	n/a	n/a	n/a	n/a	8	1	6	1	n/a	n/a	n/a	n/a	n/a
2507424	PROB	n/a	LTP073	ltpFR	9	n/a	n/a	n/a	n/a	n/a	n/a	15	5	3	7	n/a	n/a	n/a	n/a	n/a
2510028	PROB	n/a	LTP073	ltpFR	9	n/a	n/a	n/a	n/a	n/a	n/a	18	8	6	4	n/a	n/a	n/a	n/a	n/a
2512418	PROB	n/a	LTP073	ltpFR	9	n/a	n/a	n/a	n/a	n/a	n/a	20	9	4	7	n/a	n/a	n/a	n/a	n/a
2513865	PROB	n/a	LTP073	ltpFR	9	n/a	n/a	n/a	n/a	n/a	n/a	10	1	4	5	n/a	n/a	n/a	n/a	n/a
2515323	PROB	n/a	LTP073	ltpFR	9	n/a	n/a	n/a	n/a	n/a	n/a	12	1	4	7	n/a	n/a	n/a	n/a	n/a
2518060	PROB	n/a	LTP073	ltpFR	9	n/a	n/a	n/a	n/a	n/a	n/a	10	3	5	2	n/a	n/a	n/a	n/a	n/a
2519940	STOP	n/a	LTP073	ltpFR	9	n/a	n/a	n/a	n/a	n/a	n/a	n/a	n/a	n/a	n/a	n/a	n/a	n/a	n/a	n/a
2520790	WORD	wordpools/wasnorm_wordpool.txt	LTP073	ltpFR	9	12	0	SALESMAN	1225	n/a	1	n/a	0	0	0	1	0.412841796875	0.57763671875	upper	../fonts/amplitud.ttf
2523796	START	n/a	LTP073	ltpFR	9	n/a	n/a	n/a	n/a	n/a	n/a	n/a	n/a	n/a	n/a	n/a	n/a	n/a	n/a	n/a
2524885	PROB	n/a	LTP073	ltpFR	9	n/a	n/a	n/a	n/a	n/a	n/a	7	5	1	1	n/a	n/a	n/a	n/a	n/a
2527076	PROB	n/a	LTP073	ltpFR	9	n/a	n/a	n/a	n/a	n/a	n/a	18	8	5	5	n/a	n/a	n/a	n/a	n/a
2528491	PROB	n/a	LTP073	ltpFR	9	n/a	n/a	n/a	n/a	n/a	n/a	24	7	8	9	n/a	n/a	n/a	n/a	n/a
2530488	PROB	n/a	LTP073	ltpFR	9	n/a	n/a	n/a	n/a	n/a	n/a	25	9	8	8	n/a	n/a	n/a	n/a	n/a
2532918	PROB	n/a	LTP073	ltpFR	9	n/a	n/a	n/a	n/a	n/a	n/a	19	8	4	7	n/a	n/a	n/a	n/a	n/a
2536157	PROB	n/a	LTP073	ltpFR	9	n/a	n/a	n/a	n/a	n/a	n/a	6	2	3	1	n/a	n/a	n/a	n/a	n/a
2537305	PROB	n/a	LTP073	ltpFR	9	n/a	n/a	n/a	n/a	n/a	n/a	20	7	7	6	n/a	n/a	n/a	n/a	n/a
2539044	STOP	n/a	LTP073	ltpFR	9	n/a	n/a	n/a	n/a	n/a	n/a	n/a	n/a	n/a	n/a	n/a	n/a	n/a	n/a	n/a
2540767	WORD	wordpools/wasnorm_wordpool.txt	LTP073	ltpFR	9	12	1	CUSTOMER	430	n/a	1	n/a	0	0	0	0	0.5869140625	0.422607421875	lower	../fonts/zerothre.ttf
2543772	START	n/a	LTP073	ltpFR	9	n/a	n/a	n/a	n/a	n/a	n/a	n/a	n/a	n/a	n/a	n/a	n/a	n/a	n/a	n/a
2544937	PROB	n/a	LTP073	ltpFR	9	n/a	n/a	n/a	n/a	n/a	n/a	9	1	4	4	n/a	n/a	n/a	n/a	n/a
2546311	PROB	n/a	LTP073	ltpFR	9	n/a	n/a	n/a	n/a	n/a	n/a	26	8	9	7	n/a	n/a	n/a	n/a	n/a
2549599	PROB	n/a	LTP073	ltpFR	9	n/a	n/a	n/a	n/a	n/a	n/a	17	1	9	7	n/a	n/a	n/a	n/a	n/a
2550997	PROB	n/a	LTP073	ltpFR	9	n/a	n/a	n/a	n/a	n/a	n/a	20	5	6	9	n/a	n/a	n/a	n/a	n/a
2552803	PROB	n/a	LTP073	ltpFR	9	n/a	n/a	n/a	n/a	n/a	n/a	13	1	6	6	n/a	n/a	n/a	n/a	n/a
2554677	PROB	n/a	LTP073	ltpFR	9	n/a	n/a	n/a	n/a	n/a	n/a	13	4	8	1	n/a	n/a	n/a	n/a	n/a
2556241	PROB	n/a	LTP073	ltpFR	9	n/a	n/a	n/a	n/a	n/a	n/a	9	4	2	3	n/a	n/a	n/a	n/a	n/a
2559772	STOP	n/a	LTP073	ltpFR	9	n/a	n/a	n/a	n/a	n/a	n/a	n/a	n/a	n/a	n/a	n/a	n/a	n/a	n/a	n/a
2560645	WORD	wordpools/wasnorm_wordpool.txt	LTP073	ltpFR	9	12	1	CABBAGE	210	n/a	0	n/a	0	0	0	0	0.5869140625	0.422607421875	lower	../fonts/zerothre.ttf
2563650	START	n/a	LTP073	ltpFR	9	n/a	n/a	n/a	n/a	n/a	n/a	n/a	n/a	n/a	n/a	n/a	n/a	n/a	n/a	n/a
2564723	PROB	n/a	LTP073	ltpFR	9	n/a	n/a	n/a	n/a	n/a	n/a	13	6	5	2	n/a	n/a	n/a	n/a	n/a
2567044	PROB	n/a	LTP073	ltpFR	9	n/a	n/a	n/a	n/a	n/a	n/a	19	8	4	7	n/a	n/a	n/a	n/a	n/a
2568452	PROB	n/a	LTP073	ltpFR	9	n/a	n/a	n/a	n/a	n/a	n/a	15	1	9	5	n/a	n/a	n/a	n/a	n/a
2569609	PROB	n/a	LTP073	ltpFR	9	n/a	n/a	n/a	n/a	n/a	n/a	20	6	8	6	n/a	n/a	n/a	n/a	n/a
2572706	PROB	n/a	LTP073	ltpFR	9	n/a	n/a	n/a	n/a	n/a	n/a	15	4	7	4	n/a	n/a	n/a	n/a	n/a
2575901	PROB	n/a	LTP073	ltpFR	9	n/a	n/a	n/a	n/a	n/a	n/a	11	4	5	2	n/a	n/a	n/a	n/a	n/a
2577492	PROB	n/a	LTP073	ltpFR	9	n/a	n/a	n/a	n/a	n/a	n/a	12	3	9	1	n/a	n/a	n/a	n/a	n/a
2578541	STOP	n/a	LTP073	ltpFR	9	n/a	n/a	n/a	n/a	n/a	n/a	n/a	n/a	n/a	n/a	n/a	n/a	n/a	n/a	n/a
2580787	WORD	wordpools/wasnorm_wordpool.txt	LTP073	ltpFR	9	12	1	WASHER	1592	n/a	0	n/a	0	0	0	0	0.5869140625	0.422607421875	lower	../fonts/zerothre.ttf
2583792	START	n/a	LTP073	ltpFR	9	n/a	n/a	n/a	n/a	n/a	n/a	n/a	n/a	n/a	n/a	n/a	n/a	n/a	n/a	n/a
2584990	PROB	n/a	LTP073	ltpFR	9	n/a	n/a	n/a	n/a	n/a	n/a	8	3	2	3	n/a	n/a	n/a	n/a	n/a
2586539	PROB	n/a	LTP073	ltpFR	9	n/a	n/a	n/a	n/a	n/a	n/a	23	9	7	7	n/a	n/a	n/a	n/a	n/a
2589386	PROB	n/a	LTP073	ltpFR	9	n/a	n/a	n/a	n/a	n/a	n/a	17	9	6	2	n/a	n/a	n/a	n/a	n/a
2590992	PROB	n/a	LTP073	ltpFR	9	n/a	n/a	n/a	n/a	n/a	n/a	19	8	2	9	n/a	n/a	n/a	n/a	n/a
2592266	PROB	n/a	LTP073	ltpFR	9	n/a	n/a	n/a	n/a	n/a	n/a	6	2	2	2	n/a	n/a	n/a	n/a	n/a
2593232	PROB	n/a	LTP073	ltpFR	9	n/a	n/a	n/a	n/a	n/a	n/a	15	6	8	1	n/a	n/a	n/a	n/a	n/a
2594505	PROB	n/a	LTP073	ltpFR	9	n/a	n/a	n/a	n/a	n/a	n/a	18	6	3	9	n/a	n/a	n/a	n/a	n/a
2596103	PROB	n/a	LTP073	ltpFR	9	n/a	n/a	n/a	n/a	n/a	n/a	6	2	3	1	n/a	n/a	n/a	n/a	n/a
2597252	PROB	n/a	LTP073	ltpFR	9	n/a	n/a	n/a	n/a	n/a	n/a	8	1	1	6	n/a	n/a	n/a	n/a	n/a
2598357	STOP	n/a	LTP073	ltpFR	9	n/a	n/a	n/a	n/a	n/a	n/a	n/a	n/a	n/a	n/a	n/a	n/a	n/a	n/a	n/a
2600838	WORD	wordpools/wasnorm_wordpool.txt	LTP073	ltpFR	9	12	1	GOBLIN	645	n/a	1	n/a	0	0	0	0	0.5869140625	0.422607421875	lower	../fonts/zerothre.ttf
2603844	START	n/a	LTP073	ltpFR	9	n/a	n/a	n/a	n/a	n/a	n/a	n/a	n/a	n/a	n/a	n/a	n/a	n/a	n/a	n/a
2604767	PROB	n/a	LTP073	ltpFR	9	n/a	n/a	n/a	n/a	n/a	n/a	17	3	5	9	n/a	n/a	n/a	n/a	n/a
2606674	PROB	n/a	LTP073	ltpFR	9	n/a	n/a	n/a	n/a	n/a	n/a	11	7	2	2	n/a	n/a	n/a	n/a	n/a
2608272	PROB	n/a	LTP073	ltpFR	9	n/a	n/a	n/a	n/a	n/a	n/a	10	5	1	4	n/a	n/a	n/a	n/a	n/a
2610603	PROB	n/a	LTP073	ltpFR	9	n/a	n/a	n/a	n/a	n/a	n/a	17	8	8	1	n/a	n/a	n/a	n/a	n/a
2612384	PROB	n/a	LTP073	ltpFR	9	n/a	n/a	n/a	n/a	n/a	n/a	22	9	8	5	n/a	n/a	n/a	n/a	n/a
2614582	PROB	n/a	LTP073	ltpFR	9	n/a	n/a	n/a	n/a	n/a	n/a	15	4	3	8	n/a	n/a	n/a	n/a	n/a
2615846	PROB	n/a	LTP073	ltpFR	9	n/a	n/a	n/a	n/a	n/a	n/a	15	4	3	8	n/a	n/a	n/a	n/a	n/a
2616878	PROB	n/a	LTP073	ltpFR	9	n/a	n/a	n/a	n/a	n/a	n/a	18	3	9	6	n/a	n/a	n/a	n/a	n/a
2619844	STOP	n/a	LTP073	ltpFR	9	n/a	n/a	n/a	n/a	n/a	n/a	n/a	n/a	n/a	n/a	n/a	n/a	n/a	n/a	n/a
2620981	WORD	wordpools/wasnorm_wordpool.txt	LTP073	ltpFR	9	12	0	SHOWER	1296	n/a	1	n/a	0	0	0	1	0.412841796875	0.57763671875	upper	../fonts/amplitud.ttf
2623987	START	n/a	LTP073	ltpFR	9	n/a	n/a	n/a	n/a	n/a	n/a	n/a	n/a	n/a	n/a	n/a	n/a	n/a	n/a	n/a
2624835	PROB	n/a	LTP073	ltpFR	9	n/a	n/a	n/a	n/a	n/a	n/a	13	6	1	6	n/a	n/a	n/a	n/a	n/a
2626509	PROB	n/a	LTP073	ltpFR	9	n/a	n/a	n/a	n/a	n/a	n/a	5	1	1	3	n/a	n/a	n/a	n/a	n/a
2627550	PROB	n/a	LTP073	ltpFR	9	n/a	n/a	n/a	n/a	n/a	n/a	19	3	9	7	n/a	n/a	n/a	n/a	n/a
2629813	PROB	n/a	LTP073	ltpFR	9	n/a	n/a	n/a	n/a	n/a	n/a	20	9	7	4	n/a	n/a	n/a	n/a	n/a
2631537	PROB	n/a	LTP073	ltpFR	9	n/a	n/a	n/a	n/a	n/a	n/a	8	4	1	3	n/a	n/a	n/a	n/a	n/a
2633017	PROB	n/a	LTP073	ltpFR	9	n/a	n/a	n/a	n/a	n/a	n/a	17	5	9	3	n/a	n/a	n/a	n/a	n/a
2635207	PROB	n/a	LTP073	ltpFR	9	n/a	n/a	n/a	n/a	n/a	n/a	18	3	9	6	n/a	n/a	n/a	n/a	n/a
2637114	PROB	n/a	LTP073	ltpFR	9	n/a	n/a	n/a	n/a	n/a	n/a	12	7	1	4	n/a	n/a	n/a	n/a	n/a
2639509	STOP	n/a	LTP073	ltpFR	9	n/a	n/a	n/a	n/a	n/a	n/a	n/a	n/a	n/a	n/a	n/a	n/a	n/a	n/a	n/a
2640850	WORD	wordpools/wasnorm_wordpool.txt	LTP073	ltpFR	9	12	0	ROBBER	1197	n/a	1	n/a	0	0	0	1	0.412841796875	0.57763671875	upper	../fonts/amplitud.ttf
2643855	START	n/a	LTP073	ltpFR	9	n/a	n/a	n/a	n/a	n/a	n/a	n/a	n/a	n/a	n/a	n/a	n/a	n/a	n/a	n/a
2644738	PROB	n/a	LTP073	ltpFR	9	n/a	n/a	n/a	n/a	n/a	n/a	15	3	3	9	n/a	n/a	n/a	n/a	n/a
2646469	PROB	n/a	LTP073	ltpFR	9	n/a	n/a	n/a	n/a	n/a	n/a	16	1	6	9	n/a	n/a	n/a	n/a	n/a
2647933	PROB	n/a	LTP073	ltpFR	9	n/a	n/a	n/a	n/a	n/a	n/a	15	4	2	9	n/a	n/a	n/a	n/a	n/a
2649657	PROB	n/a	LTP073	ltpFR	9	n/a	n/a	n/a	n/a	n/a	n/a	9	5	2	2	n/a	n/a	n/a	n/a	n/a
2652154	PROB	n/a	LTP073	ltpFR	9	n/a	n/a	n/a	n/a	n/a	n/a	18	8	6	4	n/a	n/a	n/a	n/a	n/a
2655284	PROB	n/a	LTP073	ltpFR	9	n/a	n/a	n/a	n/a	n/a	n/a	16	4	4	8	n/a	n/a	n/a	n/a	n/a
2656649	PROB	n/a	LTP073	ltpFR	9	n/a	n/a	n/a	n/a	n/a	n/a	18	2	9	7	n/a	n/a	n/a	n/a	n/a
2658445	STOP	n/a	LTP073	ltpFR	9	n/a	n/a	n/a	n/a	n/a	n/a	n/a	n/a	n/a	n/a	n/a	n/a	n/a	n/a	n/a
2660926	WORD	wordpools/wasnorm_wordpool.txt	LTP073	ltpFR	9	12	0	BARK	87	n/a	0	n/a	0	0	0	1	0.412841796875	0.57763671875	upper	../fonts/amplitud.ttf
2663932	START	n/a	LTP073	ltpFR	9	n/a	n/a	n/a	n/a	n/a	n/a	n/a	n/a	n/a	n/a	n/a	n/a	n/a	n/a	n/a
2665013	PROB	n/a	LTP073	ltpFR	9	n/a	n/a	n/a	n/a	n/a	n/a	19	3	8	8	n/a	n/a	n/a	n/a	n/a
2666587	PROB	n/a	LTP073	ltpFR	9	n/a	n/a	n/a	n/a	n/a	n/a	5	2	2	1	n/a	n/a	n/a	n/a	n/a
2667728	PROB	n/a	LTP073	ltpFR	9	n/a	n/a	n/a	n/a	n/a	n/a	21	6	9	6	n/a	n/a	n/a	n/a	n/a
2669284	PROB	n/a	LTP073	ltpFR	9	n/a	n/a	n/a	n/a	n/a	n/a	13	6	1	6	n/a	n/a	n/a	n/a	n/a
2671947	PROB	n/a	LTP073	ltpFR	9	n/a	n/a	n/a	n/a	n/a	n/a	15	3	8	4	n/a	n/a	n/a	n/a	n/a
2673778	PROB	n/a	LTP073	ltpFR	9	n/a	n/a	n/a	n/a	n/a	n/a	13	6	6	1	n/a	n/a	n/a	n/a	n/a
2675336	PROB	n/a	LTP073	ltpFR	9	n/a	n/a	n/a	n/a	n/a	n/a	20	3	8	9	n/a	n/a	n/a	n/a	n/a
2679932	STOP	n/a	LTP073	ltpFR	9	n/a	n/a	n/a	n/a	n/a	n/a	n/a	n/a	n/a	n/a	n/a	n/a	n/a	n/a	n/a
2680870	WORD	wordpools/wasnorm_wordpool.txt	LTP073	ltpFR	9	12	1	SPINACH	1352	n/a	0	n/a	0	0	0	0	0.5869140625	0.422607421875	lower	../fonts/zerothre.ttf
2683875	START	n/a	LTP073	ltpFR	9	n/a	n/a	n/a	n/a	n/a	n/a	n/a	n/a	n/a	n/a	n/a	n/a	n/a	n/a	n/a
2684898	PROB	n/a	LTP073	ltpFR	9	n/a	n/a	n/a	n/a	n/a	n/a	18	9	7	1	n/a	n/a	n/a	n/a	n/a
2686871	PROB	n/a	LTP073	ltpFR	9	n/a	n/a	n/a	n/a	n/a	n/a	13	3	2	8	n/a	n/a	n/a	n/a	n/a
2690152	PROB	n/a	LTP073	ltpFR	9	n/a	n/a	n/a	n/a	n/a	n/a	14	3	7	4	n/a	n/a	n/a	n/a	n/a
2691782	PROB	n/a	LTP073	ltpFR	9	n/a	n/a	n/a	n/a	n/a	n/a	8	5	1	3	n/a	n/a	n/a	n/a	n/a
2693148	PROB	n/a	LTP073	ltpFR	9	n/a	n/a	n/a	n/a	n/a	n/a	12	1	4	7	n/a	n/a	n/a	n/a	n/a
2694962	PROB	n/a	LTP073	ltpFR	9	n/a	n/a	n/a	n/a	n/a	n/a	17	8	3	6	n/a	n/a	n/a	n/a	n/a
2697526	PROB	n/a	LTP073	ltpFR	9	n/a	n/a	n/a	n/a	n/a	n/a	13	3	1	9	n/a	n/a	n/a	n/a	n/a
2698940	STOP	n/a	LTP073	ltpFR	9	n/a	n/a	n/a	n/a	n/a	n/a	n/a	n/a	n/a	n/a	n/a	n/a	n/a	n/a	n/a
2700763	WORD	wordpools/wasnorm_wordpool.txt	LTP073	ltpFR	9	12	1	MONSTER	912	n/a	1	n/a	0	0	0	0	0.5869140625	0.422607421875	lower	../fonts/zerothre.ttf
2703768	START	n/a	LTP073	ltpFR	9	n/a	n/a	n/a	n/a	n/a	n/a	n/a	n/a	n/a	n/a	n/a	n/a	n/a	n/a	n/a
2704651	PROB	n/a	LTP073	ltpFR	9	n/a	n/a	n/a	n/a	n/a	n/a	13	3	3	7	n/a	n/a	n/a	n/a	n/a
2707090	PROB	n/a	LTP073	ltpFR	9	n/a	n/a	n/a	n/a	n/a	n/a	19	9	5	5	n/a	n/a	n/a	n/a	n/a
2708414	PROB	n/a	LTP073	ltpFR	9	n/a	n/a	n/a	n/a	n/a	n/a	9	3	2	4	n/a	n/a	n/a	n/a	n/a
2710220	PROB	n/a	LTP073	ltpFR	9	n/a	n/a	n/a	n/a	n/a	n/a	13	1	5	7	n/a	n/a	n/a	n/a	n/a
2711792	PROB	n/a	LTP073	ltpFR	9	n/a	n/a	n/a	n/a	n/a	n/a	13	6	1	6	n/a	n/a	n/a	n/a	n/a
2713241	PROB	n/a	LTP073	ltpFR	9	n/a	n/a	n/a	n/a	n/a	n/a	16	6	9	1	n/a	n/a	n/a	n/a	n/a
2714996	PROB	n/a	LTP073	ltpFR	9	n/a	n/a	n/a	n/a	n/a	n/a	19	2	9	7	n/a	n/a	n/a	n/a	n/a
2717187	PROB	n/a	LTP073	ltpFR	9	n/a	n/a	n/a	n/a	n/a	n/a	10	2	5	3	n/a	n/a	n/a	n/a	n/a
2719012	STOP	n/a	LTP073	ltpFR	9	n/a	n/a	n/a	n/a	n/a	n/a	n/a	n/a	n/a	n/a	n/a	n/a	n/a	n/a	n/a
2720790	WORD	wordpools/wasnorm_wordpool.txt	LTP073	ltpFR	9	12	1	HEAD	695	n/a	1	n/a	0	0	0	0	0.5869140625	0.422607421875	lower	../fonts/zerothre.ttf
2723795	START	n/a	LTP073	ltpFR	9	n/a	n/a	n/a	n/a	n/a	n/a	n/a	n/a	n/a	n/a	n/a	n/a	n/a	n/a	n/a
2724760	PROB	n/a	LTP073	ltpFR	9	n/a	n/a	n/a	n/a	n/a	n/a	18	8	2	8	n/a	n/a	n/a	n/a	n/a
2726226	PROB	n/a	LTP073	ltpFR	9	n/a	n/a	n/a	n/a	n/a	n/a	21	6	9	6	n/a	n/a	n/a	n/a	n/a
2727549	PROB	n/a	LTP073	ltpFR	9	n/a	n/a	n/a	n/a	n/a	n/a	25	9	7	8	n/a	n/a	n/a	n/a	n/a
2731395	PROB	n/a	LTP073	ltpFR	9	n/a	n/a	n/a	n/a	n/a	n/a	11	7	3	1	n/a	n/a	n/a	n/a	n/a
2732718	PROB	n/a	LTP073	ltpFR	9	n/a	n/a	n/a	n/a	n/a	n/a	9	1	4	4	n/a	n/a	n/a	n/a	n/a
2735006	PROB	n/a	LTP073	ltpFR	9	n/a	n/a	n/a	n/a	n/a	n/a	22	5	9	8	n/a	n/a	n/a	n/a	n/a
2738397	STOP	n/a	LTP073	ltpFR	9	n/a	n/a	n/a	n/a	n/a	n/a	n/a	n/a	n/a	n/a	n/a	n/a	n/a	n/a	n/a
