mstime	trial_type	stim_file	subject	experiment	session	trial	task	item_name	item_num	recog_conf	resp	color_b	color_g	color_r	case	font
0	SESS_START	n/a	LTP275	ltpFR	1	n/a	n/a	n/a	n/a	1	n/a	n/a	n/a	n/a	n/a	n/a
197459	WORD	wordpools/wasnorm_wordpool_less_exclusions.txt	LTP275	ltpFR	1	1	1	SUGAR	1401	n/a	2	0	0.5869140625	0.422607421875	lower	../fonts/zerothre.ttf
199721	KEY_MSG	n/a	LTP275	ltpFR	1	1	n/a	n/a	n/a	n/a	n/a	n/a	n/a	n/a	n/a	n/a
202301	WORD	wordpools/wasnorm_wordpool_less_exclusions.txt	LTP275	ltpFR	1	1	1	DORM	488	n/a	0	0	0.5869140625	0.422607421875	lower	../fonts/zerothre.ttf
206262	WORD	wordpools/wasnorm_wordpool_less_exclusions.txt	LTP275	ltpFR	1	1	1	SPINACH	1352	n/a	1	0	0.5869140625	0.422607421875	lower	../fonts/zerothre.ttf
210473	WORD	wordpools/wasnorm_wordpool_less_exclusions.txt	LTP275	ltpFR	1	1	0	TELESCOPE	1446	n/a	1	1	0.412841796875	0.57763671875	upper	../fonts/amplitud.ttf
214333	WORD	wordpools/wasnorm_wordpool_less_exclusions.txt	LTP275	ltpFR	1	1	0	COMET	353	n/a	1	1	0.412841796875	0.57763671875	upper	../fonts/amplitud.ttf
218411	WORD	wordpools/wasnorm_wordpool_less_exclusions.txt	LTP275	ltpFR	1	1	1	CIGAR	308	n/a	0	0	0.5869140625	0.422607421875	lower	../fonts/zerothre.ttf
222488	WORD	wordpools/wasnorm_wordpool_less_exclusions.txt	LTP275	ltpFR	1	1	1	CHAUFFEUR	283	n/a	1	0	0.5869140625	0.422607421875	lower	../fonts/zerothre.ttf
226365	WORD	wordpools/wasnorm_wordpool_less_exclusions.txt	LTP275	ltpFR	1	1	1	RUNNER	1218	n/a	1	0	0.5869140625	0.422607421875	lower	../fonts/zerothre.ttf
230492	WORD	wordpools/wasnorm_wordpool_less_exclusions.txt	LTP275	ltpFR	1	1	0	BOULEVARD	156	n/a	1	1	0.412841796875	0.57763671875	upper	../fonts/amplitud.ttf
234370	WORD	wordpools/wasnorm_wordpool_less_exclusions.txt	LTP275	ltpFR	1	1	0	SCAPEGOAT	1244	n/a	1	1	0.412841796875	0.57763671875	upper	../fonts/amplitud.ttf
238381	WORD	wordpools/wasnorm_wordpool_less_exclusions.txt	LTP275	ltpFR	1	1	0	FLASHLIGHT	575	n/a	0	1	0.412841796875	0.57763671875	upper	../fonts/amplitud.ttf
242292	WORD	wordpools/wasnorm_wordpool_less_exclusions.txt	LTP275	ltpFR	1	1	0	ELECTRICIAN	521	n/a	1	1	0.412841796875	0.57763671875	upper	../fonts/amplitud.ttf
246269	WORD	wordpools/wasnorm_wordpool_less_exclusions.txt	LTP275	ltpFR	1	1	0	WHEEL	1603	n/a	1	1	0.412841796875	0.57763671875	upper	../fonts/amplitud.ttf
250213	WORD	wordpools/wasnorm_wordpool_less_exclusions.txt	LTP275	ltpFR	1	1	0	PICKLE	1059	n/a	0	1	0.412841796875	0.57763671875	upper	../fonts/amplitud.ttf
254191	WORD	wordpools/wasnorm_wordpool_less_exclusions.txt	LTP275	ltpFR	1	1	1	SHOELACE	1289	n/a	0	0	0.5869140625	0.422607421875	lower	../fonts/zerothre.ttf
258168	WORD	wordpools/wasnorm_wordpool_less_exclusions.txt	LTP275	ltpFR	1	1	1	HUMAN	726	n/a	1	0	0.5869140625	0.422607421875	lower	../fonts/zerothre.ttf
264210	REC_START	n/a	LTP275	ltpFR	1	1	n/a	n/a	n/a	n/a	n/a	n/a	n/a	n/a	n/a	n/a
265293	REC_WORD	wordpools/wasnorm_wordpool_less_exclusions.txt	LTP275	ltpFR	1	1	1	HUMAN	726	n/a	1	n/a	n/a	n/a	n/a	n/a
266528	REC_WORD	wordpools/wasnorm_wordpool_less_exclusions.txt	LTP275	ltpFR	1	1	1	SHOELACE	1289	n/a	0	n/a	n/a	n/a	n/a	n/a
268014	REC_WORD	wordpools/wasnorm_wordpool_less_exclusions.txt	LTP275	ltpFR	1	1	0	PICKLE	1059	n/a	0	n/a	n/a	n/a	n/a	n/a
269369	REC_WORD	wordpools/wasnorm_wordpool_less_exclusions.txt	LTP275	ltpFR	1	1	1	CHAUFFEUR	283	n/a	1	n/a	n/a	n/a	n/a	n/a
271032	REC_WORD	wordpools/wasnorm_wordpool_less_exclusions.txt	LTP275	ltpFR	1	1	0	BOULEVARD	156	n/a	1	n/a	n/a	n/a	n/a	n/a
272668	REC_WORD	wordpools/wasnorm_wordpool_less_exclusions.txt	LTP275	ltpFR	1	1	1	RUNNER	1218	n/a	1	n/a	n/a	n/a	n/a	n/a
275296	REC_WORD	wordpools/wasnorm_wordpool_less_exclusions.txt	LTP275	ltpFR	1	1	0	FLASHLIGHT	575	n/a	0	n/a	n/a	n/a	n/a	n/a
279758	REC_WORD	wordpools/wasnorm_wordpool_less_exclusions.txt	LTP275	ltpFR	1	1	1	SPINACH	1352	n/a	1	n/a	n/a	n/a	n/a	n/a
299565	REC_WORD	wordpools/wasnorm_wordpool_less_exclusions.txt	LTP275	ltpFR	1	1	1	HUMAN	726	n/a	1	n/a	n/a	n/a	n/a	n/a
304891	REC_WORD	wordpools/wasnorm_wordpool_less_exclusions.txt	LTP275	ltpFR	1	1	0	ELECTRICIAN	521	n/a	1	n/a	n/a	n/a	n/a	n/a
346984	WORD	wordpools/wasnorm_wordpool_less_exclusions.txt	LTP275	ltpFR	1	2	0	WALRUS	1585	n/a	1	1	0.412841796875	0.57763671875	upper	../fonts/amplitud.ttf
350829	WORD	wordpools/wasnorm_wordpool_less_exclusions.txt	LTP275	ltpFR	1	2	0	BOOT	150	n/a	0	1	0.412841796875	0.57763671875	upper	../fonts/amplitud.ttf
354972	WORD	wordpools/wasnorm_wordpool_less_exclusions.txt	LTP275	ltpFR	1	2	1	COW	393	n/a	1	0	0.5869140625	0.422607421875	lower	../fonts/zerothre.ttf
358833	WORD	wordpools/wasnorm_wordpool_less_exclusions.txt	LTP275	ltpFR	1	2	1	BULL	193	n/a	1	0	0.5869140625	0.422607421875	lower	../fonts/zerothre.ttf
362861	WORD	wordpools/wasnorm_wordpool_less_exclusions.txt	LTP275	ltpFR	1	2	1	STEREO	1378	n/a	0	0	0.5869140625	0.422607421875	lower	../fonts/zerothre.ttf
366821	WORD	wordpools/wasnorm_wordpool_less_exclusions.txt	LTP275	ltpFR	1	2	1	CRICKET	408	n/a	1	0	0.5869140625	0.422607421875	lower	../fonts/zerothre.ttf
370749	WORD	wordpools/wasnorm_wordpool_less_exclusions.txt	LTP275	ltpFR	1	2	1	ZUCCHINI	1638	n/a	1	0	0.5869140625	0.422607421875	lower	../fonts/zerothre.ttf
374726	WORD	wordpools/wasnorm_wordpool_less_exclusions.txt	LTP275	ltpFR	1	2	1	STOCKING	1383	n/a	0	0	0.5869140625	0.422607421875	lower	../fonts/zerothre.ttf
378870	WORD	wordpools/wasnorm_wordpool_less_exclusions.txt	LTP275	ltpFR	1	2	0	MOTH	920	n/a	0	1	0.412841796875	0.57763671875	upper	../fonts/amplitud.ttf
382897	WORD	wordpools/wasnorm_wordpool_less_exclusions.txt	LTP275	ltpFR	1	2	0	BALLOON	75	n/a	0	1	0.412841796875	0.57763671875	upper	../fonts/amplitud.ttf
386941	WORD	wordpools/wasnorm_wordpool_less_exclusions.txt	LTP275	ltpFR	1	2	0	CIRCUS	311	n/a	1	1	0.412841796875	0.57763671875	upper	../fonts/amplitud.ttf
390919	WORD	wordpools/wasnorm_wordpool_less_exclusions.txt	LTP275	ltpFR	1	2	1	WHISTLE	1606	n/a	0	0	0.5869140625	0.422607421875	lower	../fonts/zerothre.ttf
395130	WORD	wordpools/wasnorm_wordpool_less_exclusions.txt	LTP275	ltpFR	1	2	1	PUMPKIN	1142	n/a	1	0	0.5869140625	0.422607421875	lower	../fonts/zerothre.ttf
398990	WORD	wordpools/wasnorm_wordpool_less_exclusions.txt	LTP275	ltpFR	1	2	0	SKYSCRAPER	1322	n/a	1	1	0.412841796875	0.57763671875	upper	../fonts/amplitud.ttf
403067	WORD	wordpools/wasnorm_wordpool_less_exclusions.txt	LTP275	ltpFR	1	2	0	COCOON	339	n/a	0	1	0.412841796875	0.57763671875	upper	../fonts/amplitud.ttf
407245	WORD	wordpools/wasnorm_wordpool_less_exclusions.txt	LTP275	ltpFR	1	2	0	ANT	25	n/a	0	1	0.412841796875	0.57763671875	upper	../fonts/amplitud.ttf
413020	REC_START	n/a	LTP275	ltpFR	1	2	n/a	n/a	n/a	n/a	n/a	n/a	n/a	n/a	n/a	n/a
414313	REC_WORD	wordpools/wasnorm_wordpool_less_exclusions.txt	LTP275	ltpFR	1	2	0	ANT	25	n/a	0	n/a	n/a	n/a	n/a	n/a
415450	REC_WORD	wordpools/wasnorm_wordpool_less_exclusions.txt	LTP275	ltpFR	1	2	0	SKYSCRAPER	1322	n/a	1	n/a	n/a	n/a	n/a	n/a
417202	REC_WORD	wordpools/wasnorm_wordpool_less_exclusions.txt	LTP275	ltpFR	1	2	0	COCOON	339	n/a	0	n/a	n/a	n/a	n/a	n/a
418585	REC_WORD	wordpools/wasnorm_wordpool_less_exclusions.txt	LTP275	ltpFR	1	2	1	PUMPKIN	1142	n/a	1	n/a	n/a	n/a	n/a	n/a
420097	REC_WORD	wordpools/wasnorm_wordpool_less_exclusions.txt	LTP275	ltpFR	1	2	1	ZUCCHINI	1638	n/a	1	n/a	n/a	n/a	n/a	n/a
426917	REC_WORD	wordpools/wasnorm_wordpool_less_exclusions.txt	LTP275	ltpFR	1	2	0	MOTH	920	n/a	0	n/a	n/a	n/a	n/a	n/a
451581	REC_WORD	wordpools/wasnorm_wordpool_less_exclusions.txt	LTP275	ltpFR	1	2	0	CIRCUS	311	n/a	1	n/a	n/a	n/a	n/a	n/a
454512	REC_WORD	wordpools/wasnorm_wordpool_less_exclusions.txt	LTP275	ltpFR	1	2	0	BOULEVARD	156	n/a	1	n/a	n/a	n/a	n/a	n/a
462193	REC_WORD	wordpools/wasnorm_wordpool_less_exclusions.txt	LTP275	ltpFR	1	2	1	CRICKET	408	n/a	1	n/a	n/a	n/a	n/a	n/a
464975	REC_WORD	wordpools/wasnorm_wordpool_less_exclusions.txt	LTP275	ltpFR	1	2	1	COW	393	n/a	1	n/a	n/a	n/a	n/a	n/a
466087	REC_WORD	wordpools/wasnorm_wordpool_less_exclusions.txt	LTP275	ltpFR	1	2	1	BULL	193	n/a	1	n/a	n/a	n/a	n/a	n/a
496479	WORD	wordpools/wasnorm_wordpool_less_exclusions.txt	LTP275	ltpFR	1	3	-1	MASK	876	n/a	-1	1	1.0	1.0	upper	../fonts/Verdana.ttf
500555	WORD	wordpools/wasnorm_wordpool_less_exclusions.txt	LTP275	ltpFR	1	3	-1	WAGON	1578	n/a	-1	1	1.0	1.0	upper	../fonts/Verdana.ttf
504665	WORD	wordpools/wasnorm_wordpool_less_exclusions.txt	LTP275	ltpFR	1	3	-1	FOUNTAIN	597	n/a	-1	1	1.0	1.0	upper	../fonts/Verdana.ttf
508560	WORD	wordpools/wasnorm_wordpool_less_exclusions.txt	LTP275	ltpFR	1	3	-1	PLASTER	1085	n/a	-1	1	1.0	1.0	upper	../fonts/Verdana.ttf
512471	WORD	wordpools/wasnorm_wordpool_less_exclusions.txt	LTP275	ltpFR	1	3	-1	SERGEANT	1269	n/a	-1	1	1.0	1.0	upper	../fonts/Verdana.ttf
516466	WORD	wordpools/wasnorm_wordpool_less_exclusions.txt	LTP275	ltpFR	1	3	-1	SICKLE	1302	n/a	-1	1	1.0	1.0	upper	../fonts/Verdana.ttf
520343	WORD	wordpools/wasnorm_wordpool_less_exclusions.txt	LTP275	ltpFR	1	3	-1	WRENCH	1625	n/a	-1	1	1.0	1.0	upper	../fonts/Verdana.ttf
524254	WORD	wordpools/wasnorm_wordpool_less_exclusions.txt	LTP275	ltpFR	1	3	-1	DASHBOARD	441	n/a	-1	1	1.0	1.0	upper	../fonts/Verdana.ttf
528181	WORD	wordpools/wasnorm_wordpool_less_exclusions.txt	LTP275	ltpFR	1	3	-1	MOTOR	922	n/a	-1	1	1.0	1.0	upper	../fonts/Verdana.ttf
532225	WORD	wordpools/wasnorm_wordpool_less_exclusions.txt	LTP275	ltpFR	1	3	-1	DRUM	502	n/a	-1	1	1.0	1.0	upper	../fonts/Verdana.ttf
536136	WORD	wordpools/wasnorm_wordpool_less_exclusions.txt	LTP275	ltpFR	1	3	-1	GOO	648	n/a	-1	1	1.0	1.0	upper	../fonts/Verdana.ttf
540046	WORD	wordpools/wasnorm_wordpool_less_exclusions.txt	LTP275	ltpFR	1	3	-1	JEEP	753	n/a	-1	1	1.0	1.0	upper	../fonts/Verdana.ttf
543973	WORD	wordpools/wasnorm_wordpool_less_exclusions.txt	LTP275	ltpFR	1	3	-1	PATRIOT	1026	n/a	-1	1	1.0	1.0	upper	../fonts/Verdana.ttf
547868	WORD	wordpools/wasnorm_wordpool_less_exclusions.txt	LTP275	ltpFR	1	3	-1	SNORKEL	1336	n/a	-1	1	1.0	1.0	upper	../fonts/Verdana.ttf
551962	WORD	wordpools/wasnorm_wordpool_less_exclusions.txt	LTP275	ltpFR	1	3	-1	SNEAKER	1334	n/a	-1	1	1.0	1.0	upper	../fonts/Verdana.ttf
555822	WORD	wordpools/wasnorm_wordpool_less_exclusions.txt	LTP275	ltpFR	1	3	-1	SCALLOP	1242	n/a	-1	1	1.0	1.0	upper	../fonts/Verdana.ttf
561731	REC_START	n/a	LTP275	ltpFR	1	3	n/a	n/a	n/a	n/a	n/a	n/a	n/a	n/a	n/a	n/a
563436	REC_WORD	wordpools/wasnorm_wordpool_less_exclusions.txt	LTP275	ltpFR	1	3	-1	WAGON	1578	n/a	-1	n/a	n/a	n/a	n/a	n/a
564991	REC_WORD	wordpools/wasnorm_wordpool_less_exclusions.txt	LTP275	ltpFR	1	3	-1	DASHBOARD	441	n/a	-1	n/a	n/a	n/a	n/a	n/a
566302	REC_WORD	wordpools/wasnorm_wordpool_less_exclusions.txt	LTP275	ltpFR	1	3	-1	FOUNTAIN	597	n/a	-1	n/a	n/a	n/a	n/a	n/a
567992	REC_WORD	wordpools/wasnorm_wordpool_less_exclusions.txt	LTP275	ltpFR	1	3	-1	WRENCH	1625	n/a	-1	n/a	n/a	n/a	n/a	n/a
571614	REC_WORD	wordpools/wasnorm_wordpool_less_exclusions.txt	LTP275	ltpFR	1	3	n/a	ENGINE	535	n/a	n/a	n/a	n/a	n/a	n/a	n/a
573275	REC_WORD	wordpools/wasnorm_wordpool_less_exclusions.txt	LTP275	ltpFR	1	3	-1	SERGEANT	1269	n/a	-1	n/a	n/a	n/a	n/a	n/a
574537	REC_WORD	wordpools/wasnorm_wordpool_less_exclusions.txt	LTP275	ltpFR	1	3	-1	MASK	876	n/a	-1	n/a	n/a	n/a	n/a	n/a
575894	REC_WORD	wordpools/wasnorm_wordpool_less_exclusions.txt	LTP275	ltpFR	1	3	-1	PLASTER	1085	n/a	-1	n/a	n/a	n/a	n/a	n/a
577744	REC_WORD	wordpools/wasnorm_wordpool_less_exclusions.txt	LTP275	ltpFR	1	3	-1	JEEP	753	n/a	-1	n/a	n/a	n/a	n/a	n/a
579081	REC_WORD	wordpools/wasnorm_wordpool_less_exclusions.txt	LTP275	ltpFR	1	3	-1	PATRIOT	1026	n/a	-1	n/a	n/a	n/a	n/a	n/a
580520	REC_WORD	wordpools/wasnorm_wordpool_less_exclusions.txt	LTP275	ltpFR	1	3	-1	SCALLOP	1242	n/a	-1	n/a	n/a	n/a	n/a	n/a
582102	REC_WORD	wordpools/wasnorm_wordpool_less_exclusions.txt	LTP275	ltpFR	1	3	-1	SNORKEL	1336	n/a	-1	n/a	n/a	n/a	n/a	n/a
583438	REC_WORD	wordpools/wasnorm_wordpool_less_exclusions.txt	LTP275	ltpFR	1	3	-1	SNEAKER	1334	n/a	-1	n/a	n/a	n/a	n/a	n/a
584953	REC_WORD	wordpools/wasnorm_wordpool_less_exclusions.txt	LTP275	ltpFR	1	3	-1	DRUM	502	n/a	-1	n/a	n/a	n/a	n/a	n/a
586248	REC_WORD	wordpools/wasnorm_wordpool_less_exclusions.txt	LTP275	ltpFR	1	3	-1	GOO	648	n/a	-1	n/a	n/a	n/a	n/a	n/a
592198	REC_WORD	wordpools/wasnorm_wordpool_less_exclusions.txt	LTP275	ltpFR	1	3	-1	SICKLE	1302	n/a	-1	n/a	n/a	n/a	n/a	n/a
647069	WORD	wordpools/wasnorm_wordpool_less_exclusions.txt	LTP275	ltpFR	1	4	0	PRAIRIE	1118	n/a	0	1	0.412841796875	0.57763671875	upper	../fonts/amplitud.ttf
651063	WORD	wordpools/wasnorm_wordpool_less_exclusions.txt	LTP275	ltpFR	1	4	0	NUT	965	n/a	0	1	0.412841796875	0.57763671875	upper	../fonts/amplitud.ttf
654974	WORD	wordpools/wasnorm_wordpool_less_exclusions.txt	LTP275	ltpFR	1	4	0	ASHTRAY	45	n/a	0	1	0.412841796875	0.57763671875	upper	../fonts/amplitud.ttf
658952	WORD	wordpools/wasnorm_wordpool_less_exclusions.txt	LTP275	ltpFR	1	4	0	OATS	968	n/a	0	1	0.412841796875	0.57763671875	upper	../fonts/amplitud.ttf
662962	WORD	wordpools/wasnorm_wordpool_less_exclusions.txt	LTP275	ltpFR	1	4	0	HERB	704	n/a	0	1	0.412841796875	0.57763671875	upper	../fonts/amplitud.ttf
667073	WORD	wordpools/wasnorm_wordpool_less_exclusions.txt	LTP275	ltpFR	1	4	0	LODGE	839	n/a	1	1	0.412841796875	0.57763671875	upper	../fonts/amplitud.ttf
671100	WORD	wordpools/wasnorm_wordpool_less_exclusions.txt	LTP275	ltpFR	1	4	0	ATTORNEY	58	n/a	1	1	0.412841796875	0.57763671875	upper	../fonts/amplitud.ttf
675112	WORD	wordpools/wasnorm_wordpool_less_exclusions.txt	LTP275	ltpFR	1	4	0	SWAMP	1416	n/a	1	1	0.412841796875	0.57763671875	upper	../fonts/amplitud.ttf
678988	WORD	wordpools/wasnorm_wordpool_less_exclusions.txt	LTP275	ltpFR	1	4	0	SWATTER	1418	n/a	0	1	0.412841796875	0.57763671875	upper	../fonts/amplitud.ttf
683066	WORD	wordpools/wasnorm_wordpool_less_exclusions.txt	LTP275	ltpFR	1	4	0	WINGS	1614	n/a	1	1	0.412841796875	0.57763671875	upper	../fonts/amplitud.ttf
687144	WORD	wordpools/wasnorm_wordpool_less_exclusions.txt	LTP275	ltpFR	1	4	0	TROUSERS	1510	n/a	1	1	0.412841796875	0.57763671875	upper	../fonts/amplitud.ttf
691104	WORD	wordpools/wasnorm_wordpool_less_exclusions.txt	LTP275	ltpFR	1	4	0	KITTEN	780	n/a	0	1	0.412841796875	0.57763671875	upper	../fonts/amplitud.ttf
695215	WORD	wordpools/wasnorm_wordpool_less_exclusions.txt	LTP275	ltpFR	1	4	0	PEAR	1033	n/a	0	1	0.412841796875	0.57763671875	upper	../fonts/amplitud.ttf
699409	WORD	wordpools/wasnorm_wordpool_less_exclusions.txt	LTP275	ltpFR	1	4	0	BANANA	77	n/a	0	1	0.412841796875	0.57763671875	upper	../fonts/amplitud.ttf
703386	WORD	wordpools/wasnorm_wordpool_less_exclusions.txt	LTP275	ltpFR	1	4	0	BUCKET	184	n/a	0	1	0.412841796875	0.57763671875	upper	../fonts/amplitud.ttf
707496	WORD	wordpools/wasnorm_wordpool_less_exclusions.txt	LTP275	ltpFR	1	4	0	CAT	257	n/a	0	1	0.412841796875	0.57763671875	upper	../fonts/amplitud.ttf
713372	REC_START	n/a	LTP275	ltpFR	1	4	n/a	n/a	n/a	n/a	n/a	n/a	n/a	n/a	n/a	n/a
714024	REC_WORD	wordpools/wasnorm_wordpool_less_exclusions.txt	LTP275	ltpFR	1	4	0	CAT	257	n/a	0	n/a	n/a	n/a	n/a	n/a
715075	REC_WORD	wordpools/wasnorm_wordpool_less_exclusions.txt	LTP275	ltpFR	1	4	0	KITTEN	780	n/a	0	n/a	n/a	n/a	n/a	n/a
716385	REC_WORD	wordpools/wasnorm_wordpool_less_exclusions.txt	LTP275	ltpFR	1	4	0	BUCKET	184	n/a	0	n/a	n/a	n/a	n/a	n/a
717476	REC_WORD	wordpools/wasnorm_wordpool_less_exclusions.txt	LTP275	ltpFR	1	4	0	PEAR	1033	n/a	0	n/a	n/a	n/a	n/a	n/a
718684	REC_WORD	wordpools/wasnorm_wordpool_less_exclusions.txt	LTP275	ltpFR	1	4	0	BANANA	77	n/a	0	n/a	n/a	n/a	n/a	n/a
719840	REC_WORD	wordpools/wasnorm_wordpool_less_exclusions.txt	LTP275	ltpFR	1	4	0	ATTORNEY	58	n/a	1	n/a	n/a	n/a	n/a	n/a
721283	REC_WORD	wordpools/wasnorm_wordpool_less_exclusions.txt	LTP275	ltpFR	1	4	0	LODGE	839	n/a	1	n/a	n/a	n/a	n/a	n/a
722550	REC_WORD	wordpools/wasnorm_wordpool_less_exclusions.txt	LTP275	ltpFR	1	4	0	SWAMP	1416	n/a	1	n/a	n/a	n/a	n/a	n/a
724165	REC_WORD	wordpools/wasnorm_wordpool_less_exclusions.txt	LTP275	ltpFR	1	4	0	PRAIRIE	1118	n/a	0	n/a	n/a	n/a	n/a	n/a
727504	REC_WORD	wordpools/wasnorm_wordpool_less_exclusions.txt	LTP275	ltpFR	1	4	0	SWATTER	1418	n/a	0	n/a	n/a	n/a	n/a	n/a
732652	REC_WORD	wordpools/wasnorm_wordpool_less_exclusions.txt	LTP275	ltpFR	1	4	0	TROUSERS	1510	n/a	1	n/a	n/a	n/a	n/a	n/a
779817	REC_WORD	wordpools/wasnorm_wordpool_less_exclusions.txt	LTP275	ltpFR	1	4	0	OATS	968	n/a	0	n/a	n/a	n/a	n/a	n/a
781324	REC_WORD	wordpools/wasnorm_wordpool_less_exclusions.txt	LTP275	ltpFR	1	4	0	HERB	704	n/a	0	n/a	n/a	n/a	n/a	n/a
797045	WORD	wordpools/wasnorm_wordpool_less_exclusions.txt	LTP275	ltpFR	1	5	1	FOLDER	588	n/a	0	0	0.5869140625	0.422607421875	lower	../fonts/zerothre.ttf
801023	WORD	wordpools/wasnorm_wordpool_less_exclusions.txt	LTP275	ltpFR	1	5	1	PEN	1041	n/a	0	0	0.5869140625	0.422607421875	lower	../fonts/zerothre.ttf
805118	WORD	wordpools/wasnorm_wordpool_less_exclusions.txt	LTP275	ltpFR	1	5	1	COLUMN	350	n/a	0	0	0.5869140625	0.422607421875	lower	../fonts/zerothre.ttf
809128	WORD	wordpools/wasnorm_wordpool_less_exclusions.txt	LTP275	ltpFR	1	5	1	SCREWDRIVER	1255	n/a	0	0	0.5869140625	0.422607421875	lower	../fonts/zerothre.ttf
813272	WORD	wordpools/wasnorm_wordpool_less_exclusions.txt	LTP275	ltpFR	1	5	1	IGLOO	734	n/a	0	0	0.5869140625	0.422607421875	lower	../fonts/zerothre.ttf
817349	WORD	wordpools/wasnorm_wordpool_less_exclusions.txt	LTP275	ltpFR	1	5	1	REFRIGERATOR	1179	n/a	0	0	0.5869140625	0.422607421875	lower	../fonts/zerothre.ttf
821293	WORD	wordpools/wasnorm_wordpool_less_exclusions.txt	LTP275	ltpFR	1	5	1	FLOWER	584	n/a	1	0	0.5869140625	0.422607421875	lower	../fonts/zerothre.ttf
825221	WORD	wordpools/wasnorm_wordpool_less_exclusions.txt	LTP275	ltpFR	1	5	1	SEED	1266	n/a	1	0	0.5869140625	0.422607421875	lower	../fonts/zerothre.ttf
829315	WORD	wordpools/wasnorm_wordpool_less_exclusions.txt	LTP275	ltpFR	1	5	1	SERPENT	1270	n/a	1	0	0.5869140625	0.422607421875	lower	../fonts/zerothre.ttf
833359	WORD	wordpools/wasnorm_wordpool_less_exclusions.txt	LTP275	ltpFR	1	5	1	MINER	896	n/a	1	0	0.5869140625	0.422607421875	lower	../fonts/zerothre.ttf
837469	WORD	wordpools/wasnorm_wordpool_less_exclusions.txt	LTP275	ltpFR	1	5	1	CARPENTER	246	n/a	1	0	0.5869140625	0.422607421875	lower	../fonts/zerothre.ttf
841447	WORD	wordpools/wasnorm_wordpool_less_exclusions.txt	LTP275	ltpFR	1	5	1	MAGAZINE	853	n/a	0	0	0.5869140625	0.422607421875	lower	../fonts/zerothre.ttf
845606	WORD	wordpools/wasnorm_wordpool_less_exclusions.txt	LTP275	ltpFR	1	5	1	SAPPHIRE	1234	n/a	0	0	0.5869140625	0.422607421875	lower	../fonts/zerothre.ttf
849750	WORD	wordpools/wasnorm_wordpool_less_exclusions.txt	LTP275	ltpFR	1	5	1	BRACES	164	n/a	0	0	0.5869140625	0.422607421875	lower	../fonts/zerothre.ttf
853611	WORD	wordpools/wasnorm_wordpool_less_exclusions.txt	LTP275	ltpFR	1	5	1	CANOE	233	n/a	0	0	0.5869140625	0.422607421875	lower	../fonts/zerothre.ttf
857588	WORD	wordpools/wasnorm_wordpool_less_exclusions.txt	LTP275	ltpFR	1	5	1	ARTIST	43	n/a	1	0	0.5869140625	0.422607421875	lower	../fonts/zerothre.ttf
863231	REC_START	n/a	LTP275	ltpFR	1	5	n/a	n/a	n/a	n/a	n/a	n/a	n/a	n/a	n/a	n/a
864243	REC_WORD	wordpools/wasnorm_wordpool_less_exclusions.txt	LTP275	ltpFR	1	5	1	ARTIST	43	n/a	1	n/a	n/a	n/a	n/a	n/a
865783	REC_WORD	wordpools/wasnorm_wordpool_less_exclusions.txt	LTP275	ltpFR	1	5	1	PEN	1041	n/a	0	n/a	n/a	n/a	n/a	n/a
866901	REC_WORD	wordpools/wasnorm_wordpool_less_exclusions.txt	LTP275	ltpFR	1	5	1	FOLDER	588	n/a	0	n/a	n/a	n/a	n/a	n/a
868346	REC_WORD	wordpools/wasnorm_wordpool_less_exclusions.txt	LTP275	ltpFR	1	5	1	COLUMN	350	n/a	0	n/a	n/a	n/a	n/a	n/a
869906	REC_WORD	wordpools/wasnorm_wordpool_less_exclusions.txt	LTP275	ltpFR	1	5	1	BRACES	164	n/a	0	n/a	n/a	n/a	n/a	n/a
871373	REC_WORD	wordpools/wasnorm_wordpool_less_exclusions.txt	LTP275	ltpFR	1	5	1	IGLOO	734	n/a	0	n/a	n/a	n/a	n/a	n/a
872548	REC_WORD	wordpools/wasnorm_wordpool_less_exclusions.txt	LTP275	ltpFR	1	5	1	REFRIGERATOR	1179	n/a	0	n/a	n/a	n/a	n/a	n/a
875021	REC_WORD	wordpools/wasnorm_wordpool_less_exclusions.txt	LTP275	ltpFR	1	5	1	FLOWER	584	n/a	1	n/a	n/a	n/a	n/a	n/a
883503	REC_WORD	wordpools/wasnorm_wordpool_less_exclusions.txt	LTP275	ltpFR	1	5	1	CARPENTER	246	n/a	1	n/a	n/a	n/a	n/a	n/a
885164	REC_WORD	wordpools/wasnorm_wordpool_less_exclusions.txt	LTP275	ltpFR	1	5	1	MINER	896	n/a	1	n/a	n/a	n/a	n/a	n/a
891449	REC_WORD	wordpools/wasnorm_wordpool_less_exclusions.txt	LTP275	ltpFR	1	5	1	SCREWDRIVER	1255	n/a	0	n/a	n/a	n/a	n/a	n/a
943676	WORD	wordpools/wasnorm_wordpool_less_exclusions.txt	LTP275	ltpFR	1	6	1	FRAGRANCE	599	n/a	0	0	0.5869140625	0.422607421875	lower	../fonts/zerothre.ttf
947887	WORD	wordpools/wasnorm_wordpool_less_exclusions.txt	LTP275	ltpFR	1	6	1	PHILOSOPHER	1054	n/a	1	0	0.5869140625	0.422607421875	lower	../fonts/zerothre.ttf
951997	WORD	wordpools/wasnorm_wordpool_less_exclusions.txt	LTP275	ltpFR	1	6	0	COAL	332	n/a	0	1	0.412841796875	0.57763671875	upper	../fonts/amplitud.ttf
955991	WORD	wordpools/wasnorm_wordpool_less_exclusions.txt	LTP275	ltpFR	1	6	0	CHARCOAL	281	n/a	0	1	0.412841796875	0.57763671875	upper	../fonts/amplitud.ttf
960085	WORD	wordpools/wasnorm_wordpool_less_exclusions.txt	LTP275	ltpFR	1	6	0	INCENSE	735	n/a	0	1	0.412841796875	0.57763671875	upper	../fonts/amplitud.ttf
964297	WORD	wordpools/wasnorm_wordpool_less_exclusions.txt	LTP275	ltpFR	1	6	0	VIOLA	1570	n/a	1	1	0.412841796875	0.57763671875	upper	../fonts/amplitud.ttf
968474	WORD	wordpools/wasnorm_wordpool_less_exclusions.txt	LTP275	ltpFR	1	6	0	BELLY	119	n/a	1	1	0.412841796875	0.57763671875	upper	../fonts/amplitud.ttf
972484	WORD	wordpools/wasnorm_wordpool_less_exclusions.txt	LTP275	ltpFR	1	6	1	CRAB	397	n/a	1	0	0.5869140625	0.422607421875	lower	../fonts/zerothre.ttf
976577	WORD	wordpools/wasnorm_wordpool_less_exclusions.txt	LTP275	ltpFR	1	6	1	BEAST	108	n/a	1	0	0.5869140625	0.422607421875	lower	../fonts/zerothre.ttf
980788	WORD	wordpools/wasnorm_wordpool_less_exclusions.txt	LTP275	ltpFR	1	6	1	CONCRETE	361	n/a	0	0	0.5869140625	0.422607421875	lower	../fonts/zerothre.ttf
984998	WORD	wordpools/wasnorm_wordpool_less_exclusions.txt	LTP275	ltpFR	1	6	0	MUSTARD	935	n/a	0	1	0.412841796875	0.57763671875	upper	../fonts/amplitud.ttf
989110	WORD	wordpools/wasnorm_wordpool_less_exclusions.txt	LTP275	ltpFR	1	6	0	SOFA	1342	n/a	1	1	0.412841796875	0.57763671875	upper	../fonts/amplitud.ttf
993120	WORD	wordpools/wasnorm_wordpool_less_exclusions.txt	LTP275	ltpFR	1	6	0	HIGHWAY	707	n/a	1	1	0.412841796875	0.57763671875	upper	../fonts/amplitud.ttf
997181	WORD	wordpools/wasnorm_wordpool_less_exclusions.txt	LTP275	ltpFR	1	6	1	PANTHER	1009	n/a	1	0	0.5869140625	0.422607421875	lower	../fonts/zerothre.ttf
1001341	WORD	wordpools/wasnorm_wordpool_less_exclusions.txt	LTP275	ltpFR	1	6	1	BEE	112	n/a	1	0	0.5869140625	0.422607421875	lower	../fonts/zerothre.ttf
1005169	WORD	wordpools/wasnorm_wordpool_less_exclusions.txt	LTP275	ltpFR	1	6	1	WASP	1593	n/a	1	0	0.5869140625	0.422607421875	lower	../fonts/zerothre.ttf
1011043	REC_START	n/a	LTP275	ltpFR	1	6	n/a	n/a	n/a	n/a	n/a	n/a	n/a	n/a	n/a	n/a
1011805	REC_WORD	wordpools/wasnorm_wordpool_less_exclusions.txt	LTP275	ltpFR	1	6	1	WASP	1593	n/a	1	n/a	n/a	n/a	n/a	n/a
1013011	REC_WORD	wordpools/wasnorm_wordpool_less_exclusions.txt	LTP275	ltpFR	1	6	1	BEE	112	n/a	1	n/a	n/a	n/a	n/a	n/a
1014392	REC_WORD	wordpools/wasnorm_wordpool_less_exclusions.txt	LTP275	ltpFR	1	6	1	PANTHER	1009	n/a	1	n/a	n/a	n/a	n/a	n/a
1016683	REC_WORD	wordpools/wasnorm_wordpool_less_exclusions.txt	LTP275	ltpFR	1	6	0	HIGHWAY	707	n/a	1	n/a	n/a	n/a	n/a	n/a
1018159	REC_WORD	wordpools/wasnorm_wordpool_less_exclusions.txt	LTP275	ltpFR	1	6	0	SOFA	1342	n/a	1	n/a	n/a	n/a	n/a	n/a
1022309	REC_WORD	wordpools/wasnorm_wordpool_less_exclusions.txt	LTP275	ltpFR	1	6	0	VIOLA	1570	n/a	1	n/a	n/a	n/a	n/a	n/a
1024571	REC_WORD	wordpools/wasnorm_wordpool_less_exclusions.txt	LTP275	ltpFR	1	6	0	BELLY	119	n/a	1	n/a	n/a	n/a	n/a	n/a
1027756	REC_WORD	wordpools/wasnorm_wordpool_less_exclusions.txt	LTP275	ltpFR	1	6	0	MUSTARD	935	n/a	0	n/a	n/a	n/a	n/a	n/a
1033572	REC_WORD	wordpools/wasnorm_wordpool_less_exclusions.txt	LTP275	ltpFR	1	6	1	PHILOSOPHER	1054	n/a	1	n/a	n/a	n/a	n/a	n/a
1036926	REC_WORD	wordpools/wasnorm_wordpool_less_exclusions.txt	LTP275	ltpFR	1	6	1	FRAGRANCE	599	n/a	0	n/a	n/a	n/a	n/a	n/a
1038594	REC_WORD	wordpools/wasnorm_wordpool_less_exclusions.txt	LTP275	ltpFR	1	6	0	INCENSE	735	n/a	0	n/a	n/a	n/a	n/a	n/a
1039926	REC_WORD	wordpools/wasnorm_wordpool_less_exclusions.txt	LTP275	ltpFR	1	6	0	COAL	332	n/a	0	n/a	n/a	n/a	n/a	n/a
1041096	REC_WORD	wordpools/wasnorm_wordpool_less_exclusions.txt	LTP275	ltpFR	1	6	0	CHARCOAL	281	n/a	0	n/a	n/a	n/a	n/a	n/a
1044021	REC_WORD	wordpools/wasnorm_wordpool_less_exclusions.txt	LTP275	ltpFR	1	6	1	SAPPHIRE	1234	n/a	0	n/a	n/a	n/a	n/a	n/a
1092887	WORD	wordpools/wasnorm_wordpool_less_exclusions.txt	LTP275	ltpFR	1	7	-1	FACE	547	n/a	-1	1	1.0	1.0	upper	../fonts/Verdana.ttf
1096731	WORD	wordpools/wasnorm_wordpool_less_exclusions.txt	LTP275	ltpFR	1	7	-1	EYELASH	546	n/a	-1	1	1.0	1.0	upper	../fonts/Verdana.ttf
1100692	WORD	wordpools/wasnorm_wordpool_less_exclusions.txt	LTP275	ltpFR	1	7	-1	GALLON	618	n/a	-1	1	1.0	1.0	upper	../fonts/Verdana.ttf
1104603	WORD	wordpools/wasnorm_wordpool_less_exclusions.txt	LTP275	ltpFR	1	7	-1	CARTON	251	n/a	-1	1	1.0	1.0	upper	../fonts/Verdana.ttf
1108747	WORD	wordpools/wasnorm_wordpool_less_exclusions.txt	LTP275	ltpFR	1	7	-1	PEDAL	1037	n/a	-1	1	1.0	1.0	upper	../fonts/Verdana.ttf
1112591	WORD	wordpools/wasnorm_wordpool_less_exclusions.txt	LTP275	ltpFR	1	7	-1	BEAN	105	n/a	-1	1	1.0	1.0	upper	../fonts/Verdana.ttf
1116701	WORD	wordpools/wasnorm_wordpool_less_exclusions.txt	LTP275	ltpFR	1	7	-1	DOVE	491	n/a	-1	1	1.0	1.0	upper	../fonts/Verdana.ttf
1120529	WORD	wordpools/wasnorm_wordpool_less_exclusions.txt	LTP275	ltpFR	1	7	-1	SINK	1309	n/a	-1	1	1.0	1.0	upper	../fonts/Verdana.ttf
1124424	WORD	wordpools/wasnorm_wordpool_less_exclusions.txt	LTP275	ltpFR	1	7	-1	CLAMP	316	n/a	-1	1	1.0	1.0	upper	../fonts/Verdana.ttf
1128451	WORD	wordpools/wasnorm_wordpool_less_exclusions.txt	LTP275	ltpFR	1	7	-1	BENCH	121	n/a	-1	1	1.0	1.0	upper	../fonts/Verdana.ttf
1132412	WORD	wordpools/wasnorm_wordpool_less_exclusions.txt	LTP275	ltpFR	1	7	-1	POOL	1103	n/a	-1	1	1.0	1.0	upper	../fonts/Verdana.ttf
1136240	WORD	wordpools/wasnorm_wordpool_less_exclusions.txt	LTP275	ltpFR	1	7	-1	PATIO	1025	n/a	-1	1	1.0	1.0	upper	../fonts/Verdana.ttf
1140467	WORD	wordpools/wasnorm_wordpool_less_exclusions.txt	LTP275	ltpFR	1	7	-1	BELT	120	n/a	-1	1	1.0	1.0	upper	../fonts/Verdana.ttf
1144428	WORD	wordpools/wasnorm_wordpool_less_exclusions.txt	LTP275	ltpFR	1	7	-1	HOOK	715	n/a	-1	1	1.0	1.0	upper	../fonts/Verdana.ttf
1148637	WORD	wordpools/wasnorm_wordpool_less_exclusions.txt	LTP275	ltpFR	1	7	-1	SWIMMER	1420	n/a	-1	1	1.0	1.0	upper	../fonts/Verdana.ttf
1152498	WORD	wordpools/wasnorm_wordpool_less_exclusions.txt	LTP275	ltpFR	1	7	-1	BLUEJAY	141	n/a	-1	1	1.0	1.0	upper	../fonts/Verdana.ttf
1158440	REC_START	n/a	LTP275	ltpFR	1	7	n/a	n/a	n/a	n/a	n/a	n/a	n/a	n/a	n/a	n/a
1159357	REC_WORD	wordpools/wasnorm_wordpool_less_exclusions.txt	LTP275	ltpFR	1	7	-1	BLUEJAY	141	n/a	-1	n/a	n/a	n/a	n/a	n/a
1160343	REC_WORD	wordpools/wasnorm_wordpool_less_exclusions.txt	LTP275	ltpFR	1	7	-1	DOVE	491	n/a	-1	n/a	n/a	n/a	n/a	n/a
1161260	REC_WORD	wordpools/wasnorm_wordpool_less_exclusions.txt	LTP275	ltpFR	1	7	-1	POOL	1103	n/a	-1	n/a	n/a	n/a	n/a	n/a
1162608	REC_WORD	wordpools/wasnorm_wordpool_less_exclusions.txt	LTP275	ltpFR	1	7	-1	SWIMMER	1420	n/a	-1	n/a	n/a	n/a	n/a	n/a
1163808	REC_WORD	wordpools/wasnorm_wordpool_less_exclusions.txt	LTP275	ltpFR	1	7	-1	HOOK	715	n/a	-1	n/a	n/a	n/a	n/a	n/a
1164698	REC_WORD	wordpools/wasnorm_wordpool_less_exclusions.txt	LTP275	ltpFR	1	7	-1	FACE	547	n/a	-1	n/a	n/a	n/a	n/a	n/a
1166169	REC_WORD	wordpools/wasnorm_wordpool_less_exclusions.txt	LTP275	ltpFR	1	7	-1	EYELASH	546	n/a	-1	n/a	n/a	n/a	n/a	n/a
1167418	REC_WORD	wordpools/wasnorm_wordpool_less_exclusions.txt	LTP275	ltpFR	1	7	-1	BENCH	121	n/a	-1	n/a	n/a	n/a	n/a	n/a
1168938	REC_WORD	wordpools/wasnorm_wordpool_less_exclusions.txt	LTP275	ltpFR	1	7	-1	BELT	120	n/a	-1	n/a	n/a	n/a	n/a	n/a
1170517	REC_WORD	wordpools/wasnorm_wordpool_less_exclusions.txt	LTP275	ltpFR	1	7	-1	SINK	1309	n/a	-1	n/a	n/a	n/a	n/a	n/a
1171933	REC_WORD	wordpools/wasnorm_wordpool_less_exclusions.txt	LTP275	ltpFR	1	7	-1	CLAMP	316	n/a	-1	n/a	n/a	n/a	n/a	n/a
1173751	REC_WORD	wordpools/wasnorm_wordpool_less_exclusions.txt	LTP275	ltpFR	1	7	-1	GALLON	618	n/a	-1	n/a	n/a	n/a	n/a	n/a
1174911	REC_WORD	wordpools/wasnorm_wordpool_less_exclusions.txt	LTP275	ltpFR	1	7	-1	CARTON	251	n/a	-1	n/a	n/a	n/a	n/a	n/a
1216481	REC_WORD	wordpools/wasnorm_wordpool_less_exclusions.txt	LTP275	ltpFR	1	7	-1	BEAN	105	n/a	-1	n/a	n/a	n/a	n/a	n/a
1242448	WORD	wordpools/wasnorm_wordpool_less_exclusions.txt	LTP275	ltpFR	1	8	0	CROCODILE	411	n/a	0	1	0.412841796875	0.57763671875	upper	../fonts/amplitud.ttf
1246425	WORD	wordpools/wasnorm_wordpool_less_exclusions.txt	LTP275	ltpFR	1	8	0	PALACE	1006	n/a	1	1	0.412841796875	0.57763671875	upper	../fonts/amplitud.ttf
1250618	WORD	wordpools/wasnorm_wordpool_less_exclusions.txt	LTP275	ltpFR	1	8	0	HAMMOCK	681	n/a	1	1	0.412841796875	0.57763671875	upper	../fonts/amplitud.ttf
1254828	WORD	wordpools/wasnorm_wordpool_less_exclusions.txt	LTP275	ltpFR	1	8	0	SUPERVISOR	1410	n/a	1	1	0.412841796875	0.57763671875	upper	../fonts/amplitud.ttf
1258772	WORD	wordpools/wasnorm_wordpool_less_exclusions.txt	LTP275	ltpFR	1	8	0	REPTILE	1185	n/a	1	1	0.412841796875	0.57763671875	upper	../fonts/amplitud.ttf
1262816	WORD	wordpools/wasnorm_wordpool_less_exclusions.txt	LTP275	ltpFR	1	8	1	TRAY	1498	n/a	0	0	0.5869140625	0.422607421875	lower	../fonts/zerothre.ttf
1266827	WORD	wordpools/wasnorm_wordpool_less_exclusions.txt	LTP275	ltpFR	1	8	1	CUSTARD	429	n/a	0	0	0.5869140625	0.422607421875	lower	../fonts/zerothre.ttf
1270738	WORD	wordpools/wasnorm_wordpool_less_exclusions.txt	LTP275	ltpFR	1	8	1	BLACKBERRY	132	n/a	1	0	0.5869140625	0.422607421875	lower	../fonts/zerothre.ttf
1274732	WORD	wordpools/wasnorm_wordpool_less_exclusions.txt	LTP275	ltpFR	1	8	0	KETCHUP	771	n/a	1	1	0.412841796875	0.57763671875	upper	../fonts/amplitud.ttf
1278693	WORD	wordpools/wasnorm_wordpool_less_exclusions.txt	LTP275	ltpFR	1	8	0	CONDUCTOR	362	n/a	1	1	0.412841796875	0.57763671875	upper	../fonts/amplitud.ttf
1282637	WORD	wordpools/wasnorm_wordpool_less_exclusions.txt	LTP275	ltpFR	1	8	0	WORKER	1621	n/a	1	1	0.412841796875	0.57763671875	upper	../fonts/amplitud.ttf
1286631	WORD	wordpools/wasnorm_wordpool_less_exclusions.txt	LTP275	ltpFR	1	8	1	TOASTER	1472	n/a	0	0	0.5869140625	0.422607421875	lower	../fonts/zerothre.ttf
1290824	WORD	wordpools/wasnorm_wordpool_less_exclusions.txt	LTP275	ltpFR	1	8	1	BAKER	71	n/a	1	0	0.5869140625	0.422607421875	lower	../fonts/zerothre.ttf
1294869	WORD	wordpools/wasnorm_wordpool_less_exclusions.txt	LTP275	ltpFR	1	8	1	BEVERAGE	123	n/a	0	0	0.5869140625	0.422607421875	lower	../fonts/zerothre.ttf
1298929	WORD	wordpools/wasnorm_wordpool_less_exclusions.txt	LTP275	ltpFR	1	8	1	SALOON	1228	n/a	0	0	0.5869140625	0.422607421875	lower	../fonts/zerothre.ttf
1302873	WORD	wordpools/wasnorm_wordpool_less_exclusions.txt	LTP275	ltpFR	1	8	1	CHAIR	274	n/a	0	0	0.5869140625	0.422607421875	lower	../fonts/zerothre.ttf
1308632	REC_START	n/a	LTP275	ltpFR	1	8	n/a	n/a	n/a	n/a	n/a	n/a	n/a	n/a	n/a	n/a
1309636	REC_WORD	wordpools/wasnorm_wordpool_less_exclusions.txt	LTP275	ltpFR	1	8	1	CHAIR	274	n/a	0	n/a	n/a	n/a	n/a	n/a
1310972	REC_WORD	wordpools/wasnorm_wordpool_less_exclusions.txt	LTP275	ltpFR	1	8	1	SALOON	1228	n/a	0	n/a	n/a	n/a	n/a	n/a
1313120	REC_WORD	wordpools/wasnorm_wordpool_less_exclusions.txt	LTP275	ltpFR	1	8	1	TRAY	1498	n/a	0	n/a	n/a	n/a	n/a	n/a
1314435	REC_WORD	wordpools/wasnorm_wordpool_less_exclusions.txt	LTP275	ltpFR	1	8	1	CUSTARD	429	n/a	0	n/a	n/a	n/a	n/a	n/a
1315746	REC_WORD	wordpools/wasnorm_wordpool_less_exclusions.txt	LTP275	ltpFR	1	8	1	BAKER	71	n/a	1	n/a	n/a	n/a	n/a	n/a
1317056	REC_WORD	wordpools/wasnorm_wordpool_less_exclusions.txt	LTP275	ltpFR	1	8	0	CROCODILE	411	n/a	0	n/a	n/a	n/a	n/a	n/a
1318461	REC_WORD	wordpools/wasnorm_wordpool_less_exclusions.txt	LTP275	ltpFR	1	8	0	REPTILE	1185	n/a	1	n/a	n/a	n/a	n/a	n/a
1322663	REC_WORD	wordpools/wasnorm_wordpool_less_exclusions.txt	LTP275	ltpFR	1	8	1	BLACKBERRY	132	n/a	1	n/a	n/a	n/a	n/a	n/a
1326077	REC_WORD	wordpools/wasnorm_wordpool_less_exclusions.txt	LTP275	ltpFR	1	8	0	CONDUCTOR	362	n/a	1	n/a	n/a	n/a	n/a	n/a
1331061	REC_WORD	wordpools/wasnorm_wordpool_less_exclusions.txt	LTP275	ltpFR	1	8	0	WORKER	1621	n/a	1	n/a	n/a	n/a	n/a	n/a
1354652	REC_WORD	wordpools/wasnorm_wordpool_less_exclusions.txt	LTP275	ltpFR	1	8	1	BAKER	71	n/a	1	n/a	n/a	n/a	n/a	n/a
1390675	WORD	wordpools/wasnorm_wordpool_less_exclusions.txt	LTP275	ltpFR	1	9	1	TAIL	1430	n/a	0	0	0.5869140625	0.422607421875	lower	../fonts/zerothre.ttf
1394753	WORD	wordpools/wasnorm_wordpool_less_exclusions.txt	LTP275	ltpFR	1	9	1	PAW	1029	n/a	0	0	0.5869140625	0.422607421875	lower	../fonts/zerothre.ttf
1398747	WORD	wordpools/wasnorm_wordpool_less_exclusions.txt	LTP275	ltpFR	1	9	0	NECK	939	n/a	0	1	0.412841796875	0.57763671875	upper	../fonts/amplitud.ttf
1402641	WORD	wordpools/wasnorm_wordpool_less_exclusions.txt	LTP275	ltpFR	1	9	0	MUFFIN	929	n/a	0	1	0.412841796875	0.57763671875	upper	../fonts/amplitud.ttf
1406818	WORD	wordpools/wasnorm_wordpool_less_exclusions.txt	LTP275	ltpFR	1	9	0	CHIMPANZEE	302	n/a	1	1	0.412841796875	0.57763671875	upper	../fonts/amplitud.ttf
1410745	WORD	wordpools/wasnorm_wordpool_less_exclusions.txt	LTP275	ltpFR	1	9	1	COACH	331	n/a	1	0	0.5869140625	0.422607421875	lower	../fonts/zerothre.ttf
1414673	WORD	wordpools/wasnorm_wordpool_less_exclusions.txt	LTP275	ltpFR	1	9	1	CARD	243	n/a	0	0	0.5869140625	0.422607421875	lower	../fonts/zerothre.ttf
1418667	WORD	wordpools/wasnorm_wordpool_less_exclusions.txt	LTP275	ltpFR	1	9	1	CHALK	276	n/a	0	0	0.5869140625	0.422607421875	lower	../fonts/zerothre.ttf
1422861	WORD	wordpools/wasnorm_wordpool_less_exclusions.txt	LTP275	ltpFR	1	9	1	DUSTPAN	509	n/a	0	0	0.5869140625	0.422607421875	lower	../fonts/zerothre.ttf
1426738	WORD	wordpools/wasnorm_wordpool_less_exclusions.txt	LTP275	ltpFR	1	9	1	HERD	705	n/a	1	0	0.5869140625	0.422607421875	lower	../fonts/zerothre.ttf
1430849	WORD	wordpools/wasnorm_wordpool_less_exclusions.txt	LTP275	ltpFR	1	9	1	TAXI	1438	n/a	1	0	0.5869140625	0.422607421875	lower	../fonts/zerothre.ttf
1434876	WORD	wordpools/wasnorm_wordpool_less_exclusions.txt	LTP275	ltpFR	1	9	0	KNOT	788	n/a	0	1	0.412841796875	0.57763671875	upper	../fonts/amplitud.ttf
1439053	WORD	wordpools/wasnorm_wordpool_less_exclusions.txt	LTP275	ltpFR	1	9	0	PRIMATE	1123	n/a	1	1	0.412841796875	0.57763671875	upper	../fonts/amplitud.ttf
1442881	WORD	wordpools/wasnorm_wordpool_less_exclusions.txt	LTP275	ltpFR	1	9	0	MEADOW	881	n/a	1	1	0.412841796875	0.57763671875	upper	../fonts/amplitud.ttf
1446725	WORD	wordpools/wasnorm_wordpool_less_exclusions.txt	LTP275	ltpFR	1	9	0	COBBLER	335	n/a	1	1	0.412841796875	0.57763671875	upper	../fonts/amplitud.ttf
1450902	WORD	wordpools/wasnorm_wordpool_less_exclusions.txt	LTP275	ltpFR	1	9	0	SHOE	1288	n/a	1	1	0.412841796875	0.57763671875	upper	../fonts/amplitud.ttf
1456694	REC_START	n/a	LTP275	ltpFR	1	9	n/a	n/a	n/a	n/a	n/a	n/a	n/a	n/a	n/a	n/a
1457721	REC_WORD	wordpools/wasnorm_wordpool_less_exclusions.txt	LTP275	ltpFR	1	9	0	SHOE	1288	n/a	1	n/a	n/a	n/a	n/a	n/a
1459019	REC_WORD	wordpools/wasnorm_wordpool_less_exclusions.txt	LTP275	ltpFR	1	9	0	COBBLER	335	n/a	1	n/a	n/a	n/a	n/a	n/a
1460202	REC_WORD	wordpools/wasnorm_wordpool_less_exclusions.txt	LTP275	ltpFR	1	9	0	MEADOW	881	n/a	1	n/a	n/a	n/a	n/a	n/a
1496982	REC_WORD	wordpools/wasnorm_wordpool_less_exclusions.txt	LTP275	ltpFR	1	9	0	PRIMATE	1123	n/a	1	n/a	n/a	n/a	n/a	n/a
1498419	REC_WORD	wordpools/wasnorm_wordpool_less_exclusions.txt	LTP275	ltpFR	1	9	0	CHIMPANZEE	302	n/a	1	n/a	n/a	n/a	n/a	n/a
1501402	REC_WORD	wordpools/wasnorm_wordpool_less_exclusions.txt	LTP275	ltpFR	1	9	1	PAW	1029	n/a	0	n/a	n/a	n/a	n/a	n/a
1503217	REC_WORD	wordpools/wasnorm_wordpool_less_exclusions.txt	LTP275	ltpFR	1	9	1	TAIL	1430	n/a	0	n/a	n/a	n/a	n/a	n/a
1504581	REC_WORD	wordpools/wasnorm_wordpool_less_exclusions.txt	LTP275	ltpFR	1	9	0	NECK	939	n/a	0	n/a	n/a	n/a	n/a	n/a
1544529	WORD	wordpools/wasnorm_wordpool_less_exclusions.txt	LTP275	ltpFR	1	10	-1	JUGGLER	763	n/a	-1	1	1.0	1.0	upper	../fonts/Verdana.ttf
1548523	WORD	wordpools/wasnorm_wordpool_less_exclusions.txt	LTP275	ltpFR	1	10	-1	CANNON	232	n/a	-1	1	1.0	1.0	upper	../fonts/Verdana.ttf
1552683	WORD	wordpools/wasnorm_wordpool_less_exclusions.txt	LTP275	ltpFR	1	10	-1	HANGER	687	n/a	-1	1	1.0	1.0	upper	../fonts/Verdana.ttf
1556661	WORD	wordpools/wasnorm_wordpool_less_exclusions.txt	LTP275	ltpFR	1	10	-1	TAG	1429	n/a	-1	1	1.0	1.0	upper	../fonts/Verdana.ttf
1560838	WORD	wordpools/wasnorm_wordpool_less_exclusions.txt	LTP275	ltpFR	1	10	-1	ACTOR	5	n/a	-1	1	1.0	1.0	upper	../fonts/Verdana.ttf
1564732	WORD	wordpools/wasnorm_wordpool_less_exclusions.txt	LTP275	ltpFR	1	10	-1	SALMON	1227	n/a	-1	1	1.0	1.0	upper	../fonts/Verdana.ttf
1568709	WORD	wordpools/wasnorm_wordpool_less_exclusions.txt	LTP275	ltpFR	1	10	-1	DIAMOND	458	n/a	-1	1	1.0	1.0	upper	../fonts/Verdana.ttf
1572737	WORD	wordpools/wasnorm_wordpool_less_exclusions.txt	LTP275	ltpFR	1	10	-1	FRIEND	606	n/a	-1	1	1.0	1.0	upper	../fonts/Verdana.ttf
1576764	WORD	wordpools/wasnorm_wordpool_less_exclusions.txt	LTP275	ltpFR	1	10	-1	DOLL	481	n/a	-1	1	1.0	1.0	upper	../fonts/Verdana.ttf
1580841	WORD	wordpools/wasnorm_wordpool_less_exclusions.txt	LTP275	ltpFR	1	10	-1	CORD	379	n/a	-1	1	1.0	1.0	upper	../fonts/Verdana.ttf
1584769	WORD	wordpools/wasnorm_wordpool_less_exclusions.txt	LTP275	ltpFR	1	10	-1	WIRE	1616	n/a	-1	1	1.0	1.0	upper	../fonts/Verdana.ttf
1588896	WORD	wordpools/wasnorm_wordpool_less_exclusions.txt	LTP275	ltpFR	1	10	-1	SAW	1239	n/a	-1	1	1.0	1.0	upper	../fonts/Verdana.ttf
1592724	WORD	wordpools/wasnorm_wordpool_less_exclusions.txt	LTP275	ltpFR	1	10	-1	SHAMPOO	1274	n/a	-1	1	1.0	1.0	upper	../fonts/Verdana.ttf
1596618	WORD	wordpools/wasnorm_wordpool_less_exclusions.txt	LTP275	ltpFR	1	10	-1	FAMILY	550	n/a	-1	1	1.0	1.0	upper	../fonts/Verdana.ttf
1600695	WORD	wordpools/wasnorm_wordpool_less_exclusions.txt	LTP275	ltpFR	1	10	-1	LOFT	840	n/a	-1	1	1.0	1.0	upper	../fonts/Verdana.ttf
1604805	WORD	wordpools/wasnorm_wordpool_less_exclusions.txt	LTP275	ltpFR	1	10	-1	SARDINE	1235	n/a	-1	1	1.0	1.0	upper	../fonts/Verdana.ttf
1610631	REC_START	n/a	LTP275	ltpFR	1	10	n/a	n/a	n/a	n/a	n/a	n/a	n/a	n/a	n/a	n/a
1611749	REC_WORD	wordpools/wasnorm_wordpool_less_exclusions.txt	LTP275	ltpFR	1	10	-1	JUGGLER	763	n/a	-1	n/a	n/a	n/a	n/a	n/a
1612755	REC_WORD	wordpools/wasnorm_wordpool_less_exclusions.txt	LTP275	ltpFR	1	10	-1	HANGER	687	n/a	-1	n/a	n/a	n/a	n/a	n/a
1614011	REC_WORD	wordpools/wasnorm_wordpool_less_exclusions.txt	LTP275	ltpFR	1	10	-1	TAG	1429	n/a	-1	n/a	n/a	n/a	n/a	n/a
1615972	REC_WORD	wordpools/wasnorm_wordpool_less_exclusions.txt	LTP275	ltpFR	1	10	-1	CANNON	232	n/a	-1	n/a	n/a	n/a	n/a	n/a
1617308	REC_WORD	wordpools/wasnorm_wordpool_less_exclusions.txt	LTP275	ltpFR	1	10	-1	SALMON	1227	n/a	-1	n/a	n/a	n/a	n/a	n/a
1618672	REC_WORD	wordpools/wasnorm_wordpool_less_exclusions.txt	LTP275	ltpFR	1	10	-1	DIAMOND	458	n/a	-1	n/a	n/a	n/a	n/a	n/a
1620086	REC_WORD	wordpools/wasnorm_wordpool_less_exclusions.txt	LTP275	ltpFR	1	10	-1	WIRE	1616	n/a	-1	n/a	n/a	n/a	n/a	n/a
1621239	REC_WORD	wordpools/wasnorm_wordpool_less_exclusions.txt	LTP275	ltpFR	1	10	-1	SARDINE	1235	n/a	-1	n/a	n/a	n/a	n/a	n/a
1622647	REC_WORD	wordpools/wasnorm_wordpool_less_exclusions.txt	LTP275	ltpFR	1	10	-1	SAW	1239	n/a	-1	n/a	n/a	n/a	n/a	n/a
1624140	REC_WORD	wordpools/wasnorm_wordpool_less_exclusions.txt	LTP275	ltpFR	1	10	-1	FRIEND	606	n/a	-1	n/a	n/a	n/a	n/a	n/a
1626091	REC_WORD	wordpools/wasnorm_wordpool_less_exclusions.txt	LTP275	ltpFR	1	10	-1	CORD	379	n/a	-1	n/a	n/a	n/a	n/a	n/a
1627485	REC_WORD	wordpools/wasnorm_wordpool_less_exclusions.txt	LTP275	ltpFR	1	10	-1	SHAMPOO	1274	n/a	-1	n/a	n/a	n/a	n/a	n/a
1629377	REC_WORD	wordpools/wasnorm_wordpool_less_exclusions.txt	LTP275	ltpFR	1	10	-1	FAMILY	550	n/a	-1	n/a	n/a	n/a	n/a	n/a
1643705	REC_WORD	wordpools/wasnorm_wordpool_less_exclusions.txt	LTP275	ltpFR	1	10	-1	ACTOR	5	n/a	-1	n/a	n/a	n/a	n/a	n/a
1660019	REC_WORD	wordpools/wasnorm_wordpool_less_exclusions.txt	LTP275	ltpFR	1	10	-1	LOFT	840	n/a	-1	n/a	n/a	n/a	n/a	n/a
1693789	WORD	wordpools/wasnorm_wordpool_less_exclusions.txt	LTP275	ltpFR	1	11	0	PRINCESS	1125	n/a	1	1	0.412841796875	0.57763671875	upper	../fonts/amplitud.ttf
1698000	WORD	wordpools/wasnorm_wordpool_less_exclusions.txt	LTP275	ltpFR	1	11	0	CLAW	319	n/a	0	1	0.412841796875	0.57763671875	upper	../fonts/amplitud.ttf
1702161	WORD	wordpools/wasnorm_wordpool_less_exclusions.txt	LTP275	ltpFR	1	11	1	SPONGE	1355	n/a	1	0	0.5869140625	0.422607421875	lower	../fonts/zerothre.ttf
1706255	WORD	wordpools/wasnorm_wordpool_less_exclusions.txt	LTP275	ltpFR	1	11	1	DICE	461	n/a	0	0	0.5869140625	0.422607421875	lower	../fonts/zerothre.ttf
1710449	WORD	wordpools/wasnorm_wordpool_less_exclusions.txt	LTP275	ltpFR	1	11	1	SOFTBALL	1343	n/a	0	0	0.5869140625	0.422607421875	lower	../fonts/zerothre.ttf
1714558	WORD	wordpools/wasnorm_wordpool_less_exclusions.txt	LTP275	ltpFR	1	11	1	CABLE	213	n/a	0	0	0.5869140625	0.422607421875	lower	../fonts/zerothre.ttf
1718652	WORD	wordpools/wasnorm_wordpool_less_exclusions.txt	LTP275	ltpFR	1	11	1	TELEVISION	1447	n/a	1	0	0.5869140625	0.422607421875	lower	../fonts/zerothre.ttf
1722613	WORD	wordpools/wasnorm_wordpool_less_exclusions.txt	LTP275	ltpFR	1	11	1	MAMMAL	861	n/a	1	0	0.5869140625	0.422607421875	lower	../fonts/zerothre.ttf
1726475	WORD	wordpools/wasnorm_wordpool_less_exclusions.txt	LTP275	ltpFR	1	11	0	CANAL	226	n/a	1	1	0.412841796875	0.57763671875	upper	../fonts/amplitud.ttf
1730319	WORD	wordpools/wasnorm_wordpool_less_exclusions.txt	LTP275	ltpFR	1	11	0	PALM	1007	n/a	1	1	0.412841796875	0.57763671875	upper	../fonts/amplitud.ttf
1734413	WORD	wordpools/wasnorm_wordpool_less_exclusions.txt	LTP275	ltpFR	1	11	1	OCEAN	970	n/a	1	0	0.5869140625	0.422607421875	lower	../fonts/zerothre.ttf
1738257	WORD	wordpools/wasnorm_wordpool_less_exclusions.txt	LTP275	ltpFR	1	11	1	RUM	1217	n/a	0	0	0.5869140625	0.422607421875	lower	../fonts/zerothre.ttf
1742434	WORD	wordpools/wasnorm_wordpool_less_exclusions.txt	LTP275	ltpFR	1	11	0	CORK	380	n/a	0	1	0.412841796875	0.57763671875	upper	../fonts/amplitud.ttf
1746494	WORD	wordpools/wasnorm_wordpool_less_exclusions.txt	LTP275	ltpFR	1	11	0	ANTEATER	26	n/a	1	1	0.412841796875	0.57763671875	upper	../fonts/amplitud.ttf
1750621	WORD	wordpools/wasnorm_wordpool_less_exclusions.txt	LTP275	ltpFR	1	11	0	HIKER	708	n/a	1	1	0.412841796875	0.57763671875	upper	../fonts/amplitud.ttf
1754781	WORD	wordpools/wasnorm_wordpool_less_exclusions.txt	LTP275	ltpFR	1	11	0	SKETCH	1315	n/a	0	1	0.412841796875	0.57763671875	upper	../fonts/amplitud.ttf
1760706	REC_START	n/a	LTP275	ltpFR	1	11	n/a	n/a	n/a	n/a	n/a	n/a	n/a	n/a	n/a	n/a
1761584	REC_WORD	wordpools/wasnorm_wordpool_less_exclusions.txt	LTP275	ltpFR	1	11	0	SKETCH	1315	n/a	0	n/a	n/a	n/a	n/a	n/a
1762891	REC_WORD	wordpools/wasnorm_wordpool_less_exclusions.txt	LTP275	ltpFR	1	11	0	ANTEATER	26	n/a	1	n/a	n/a	n/a	n/a	n/a
1764195	REC_WORD	wordpools/wasnorm_wordpool_less_exclusions.txt	LTP275	ltpFR	1	11	0	PRINCESS	1125	n/a	1	n/a	n/a	n/a	n/a	n/a
1765310	REC_WORD	wordpools/wasnorm_wordpool_less_exclusions.txt	LTP275	ltpFR	1	11	1	SPONGE	1355	n/a	1	n/a	n/a	n/a	n/a	n/a
1767014	REC_WORD	wordpools/wasnorm_wordpool_less_exclusions.txt	LTP275	ltpFR	1	11	0	CLAW	319	n/a	0	n/a	n/a	n/a	n/a	n/a
1776145	REC_WORD	wordpools/wasnorm_wordpool_less_exclusions.txt	LTP275	ltpFR	1	11	1	OCEAN	970	n/a	1	n/a	n/a	n/a	n/a	n/a
1782806	REC_WORD	wordpools/wasnorm_wordpool_less_exclusions.txt	LTP275	ltpFR	1	11	0	HIKER	708	n/a	1	n/a	n/a	n/a	n/a	n/a
1793674	REC_WORD	wordpools/wasnorm_wordpool_less_exclusions.txt	LTP275	ltpFR	1	11	0	PALM	1007	n/a	1	n/a	n/a	n/a	n/a	n/a
1798106	REC_WORD	wordpools/wasnorm_wordpool_less_exclusions.txt	LTP275	ltpFR	1	11	0	CORK	380	n/a	0	n/a	n/a	n/a	n/a	n/a
1845579	WORD	wordpools/wasnorm_wordpool_less_exclusions.txt	LTP275	ltpFR	1	12	1	BOULDER	155	n/a	0	0	0.5869140625	0.422607421875	lower	../fonts/zerothre.ttf
1849458	WORD	wordpools/wasnorm_wordpool_less_exclusions.txt	LTP275	ltpFR	1	12	1	ROCK	1201	n/a	0	0	0.5869140625	0.422607421875	lower	../fonts/zerothre.ttf
1853418	WORD	wordpools/wasnorm_wordpool_less_exclusions.txt	LTP275	ltpFR	1	12	1	FOE	587	n/a	1	0	0.5869140625	0.422607421875	lower	../fonts/zerothre.ttf
1857511	WORD	wordpools/wasnorm_wordpool_less_exclusions.txt	LTP275	ltpFR	1	12	1	WORM	1623	n/a	1	0	0.5869140625	0.422607421875	lower	../fonts/zerothre.ttf
1861522	WORD	wordpools/wasnorm_wordpool_less_exclusions.txt	LTP275	ltpFR	1	12	1	METEOR	889	n/a	0	0	0.5869140625	0.422607421875	lower	../fonts/zerothre.ttf
1865516	WORD	wordpools/wasnorm_wordpool_less_exclusions.txt	LTP275	ltpFR	1	12	1	YOLK	1633	n/a	1	0	0.5869140625	0.422607421875	lower	../fonts/zerothre.ttf
1869493	WORD	wordpools/wasnorm_wordpool_less_exclusions.txt	LTP275	ltpFR	1	12	1	COLESLAW	344	n/a	0	0	0.5869140625	0.422607421875	lower	../fonts/zerothre.ttf
1873604	WORD	wordpools/wasnorm_wordpool_less_exclusions.txt	LTP275	ltpFR	1	12	1	PENNY	1045	n/a	0	0	0.5869140625	0.422607421875	lower	../fonts/zerothre.ttf
1877814	WORD	wordpools/wasnorm_wordpool_less_exclusions.txt	LTP275	ltpFR	1	12	1	REGISTER	1180	n/a	0	0	0.5869140625	0.422607421875	lower	../fonts/zerothre.ttf
1881709	WORD	wordpools/wasnorm_wordpool_less_exclusions.txt	LTP275	ltpFR	1	12	1	TURKEY	1520	n/a	1	0	0.5869140625	0.422607421875	lower	../fonts/zerothre.ttf
1885719	WORD	wordpools/wasnorm_wordpool_less_exclusions.txt	LTP275	ltpFR	1	12	1	NICOTINE	951	n/a	0	0	0.5869140625	0.422607421875	lower	../fonts/zerothre.ttf
1889580	WORD	wordpools/wasnorm_wordpool_less_exclusions.txt	LTP275	ltpFR	1	12	1	WORLD	1622	n/a	1	0	0.5869140625	0.422607421875	lower	../fonts/zerothre.ttf
1893674	WORD	wordpools/wasnorm_wordpool_less_exclusions.txt	LTP275	ltpFR	1	12	1	GROCERIES	663	n/a	0	0	0.5869140625	0.422607421875	lower	../fonts/zerothre.ttf
1897735	WORD	wordpools/wasnorm_wordpool_less_exclusions.txt	LTP275	ltpFR	1	12	1	HOSE	720	n/a	0	0	0.5869140625	0.422607421875	lower	../fonts/zerothre.ttf
1901862	WORD	wordpools/wasnorm_wordpool_less_exclusions.txt	LTP275	ltpFR	1	12	1	BANDANNA	80	n/a	0	0	0.5869140625	0.422607421875	lower	../fonts/zerothre.ttf
1905823	WORD	wordpools/wasnorm_wordpool_less_exclusions.txt	LTP275	ltpFR	1	12	1	GUEST	669	n/a	1	0	0.5869140625	0.422607421875	lower	../fonts/zerothre.ttf
1911748	REC_START	n/a	LTP275	ltpFR	1	12	n/a	n/a	n/a	n/a	n/a	n/a	n/a	n/a	n/a	n/a
1912679	REC_WORD	wordpools/wasnorm_wordpool_less_exclusions.txt	LTP275	ltpFR	1	12	1	WORM	1623	n/a	1	n/a	n/a	n/a	n/a	n/a
1913580	REC_WORD	wordpools/wasnorm_wordpool_less_exclusions.txt	LTP275	ltpFR	1	12	1	FOE	587	n/a	1	n/a	n/a	n/a	n/a	n/a
1914857	REC_WORD	wordpools/wasnorm_wordpool_less_exclusions.txt	LTP275	ltpFR	1	12	1	BOULDER	155	n/a	0	n/a	n/a	n/a	n/a	n/a
1915832	REC_WORD	wordpools/wasnorm_wordpool_less_exclusions.txt	LTP275	ltpFR	1	12	1	ROCK	1201	n/a	0	n/a	n/a	n/a	n/a	n/a
1917010	REC_WORD	wordpools/wasnorm_wordpool_less_exclusions.txt	LTP275	ltpFR	1	12	1	REGISTER	1180	n/a	0	n/a	n/a	n/a	n/a	n/a
1918284	REC_WORD	wordpools/wasnorm_wordpool_less_exclusions.txt	LTP275	ltpFR	1	12	1	PENNY	1045	n/a	0	n/a	n/a	n/a	n/a	n/a
1919783	REC_WORD	wordpools/wasnorm_wordpool_less_exclusions.txt	LTP275	ltpFR	1	12	1	TURKEY	1520	n/a	1	n/a	n/a	n/a	n/a	n/a
1921083	REC_WORD	wordpools/wasnorm_wordpool_less_exclusions.txt	LTP275	ltpFR	1	12	1	BANDANNA	80	n/a	0	n/a	n/a	n/a	n/a	n/a
1922517	REC_WORD	wordpools/wasnorm_wordpool_less_exclusions.txt	LTP275	ltpFR	1	12	1	HOSE	720	n/a	0	n/a	n/a	n/a	n/a	n/a
1923808	REC_WORD_VV	wordpools/wasnorm_wordpool_less_exclusions.txt	LTP275	ltpFR	1	12	n/a	<>	-1	n/a	n/a	n/a	n/a	n/a	n/a	n/a
1924331	REC_WORD	wordpools/wasnorm_wordpool_less_exclusions.txt	LTP275	ltpFR	1	12	1	NICOTINE	951	n/a	0	n/a	n/a	n/a	n/a	n/a
1925940	REC_WORD	wordpools/wasnorm_wordpool_less_exclusions.txt	LTP275	ltpFR	1	12	1	GUEST	669	n/a	1	n/a	n/a	n/a	n/a	n/a
1928438	REC_WORD	wordpools/wasnorm_wordpool_less_exclusions.txt	LTP275	ltpFR	1	12	1	WORLD	1622	n/a	1	n/a	n/a	n/a	n/a	n/a
1936878	REC_WORD	wordpools/wasnorm_wordpool_less_exclusions.txt	LTP275	ltpFR	1	12	1	COLESLAW	344	n/a	0	n/a	n/a	n/a	n/a	n/a
1945791	REC_WORD	wordpools/wasnorm_wordpool_less_exclusions.txt	LTP275	ltpFR	1	12	1	METEOR	889	n/a	0	n/a	n/a	n/a	n/a	n/a
1987352	REST_REWET	n/a	LTP275	ltpFR	1	12	n/a	n/a	n/a	n/a	n/a	n/a	n/a	n/a	n/a	n/a
2022814	WORD	wordpools/wasnorm_wordpool_less_exclusions.txt	LTP275	ltpFR	1	13	0	JAW	751	n/a	n/a	1	0.412841796875	0.57763671875	upper	../fonts/amplitud.ttf
2025843	SLOW_MSG	n/a	LTP275	ltpFR	1	13	n/a	n/a	n/a	n/a	n/a	n/a	n/a	n/a	n/a	n/a
2028506	WORD	wordpools/wasnorm_wordpool_less_exclusions.txt	LTP275	ltpFR	1	13	0	VASE	1549	n/a	1	1	0.412841796875	0.57763671875	upper	../fonts/amplitud.ttf
2032451	WORD	wordpools/wasnorm_wordpool_less_exclusions.txt	LTP275	ltpFR	1	13	0	SLACKS	1323	n/a	1	1	0.412841796875	0.57763671875	upper	../fonts/amplitud.ttf
2036527	WORD	wordpools/wasnorm_wordpool_less_exclusions.txt	LTP275	ltpFR	1	13	0	OUTFIT	988	n/a	1	1	0.412841796875	0.57763671875	upper	../fonts/amplitud.ttf
2040406	WORD	wordpools/wasnorm_wordpool_less_exclusions.txt	LTP275	ltpFR	1	13	0	GROUND	666	n/a	1	1	0.412841796875	0.57763671875	upper	../fonts/amplitud.ttf
2044565	WORD	wordpools/wasnorm_wordpool_less_exclusions.txt	LTP275	ltpFR	1	13	0	DONKEY	484	n/a	1	1	0.412841796875	0.57763671875	upper	../fonts/amplitud.ttf
2048444	WORD	wordpools/wasnorm_wordpool_less_exclusions.txt	LTP275	ltpFR	1	13	0	SKILLET	1317	n/a	1	1	0.412841796875	0.57763671875	upper	../fonts/amplitud.ttf
2052405	WORD	wordpools/wasnorm_wordpool_less_exclusions.txt	LTP275	ltpFR	1	13	0	MICROWAVE	892	n/a	1	1	0.412841796875	0.57763671875	upper	../fonts/amplitud.ttf
2056514	WORD	wordpools/wasnorm_wordpool_less_exclusions.txt	LTP275	ltpFR	1	13	0	NOTE	958	n/a	0	1	0.412841796875	0.57763671875	upper	../fonts/amplitud.ttf
2060492	WORD	wordpools/wasnorm_wordpool_less_exclusions.txt	LTP275	ltpFR	1	13	0	ENVELOPE	537	n/a	0	1	0.412841796875	0.57763671875	upper	../fonts/amplitud.ttf
2064685	WORD	wordpools/wasnorm_wordpool_less_exclusions.txt	LTP275	ltpFR	1	13	0	DOUGHNUT	490	n/a	0	1	0.412841796875	0.57763671875	upper	../fonts/amplitud.ttf
2068629	WORD	wordpools/wasnorm_wordpool_less_exclusions.txt	LTP275	ltpFR	1	13	0	BAND	78	n/a	1	1	0.412841796875	0.57763671875	upper	../fonts/amplitud.ttf
2072524	WORD	wordpools/wasnorm_wordpool_less_exclusions.txt	LTP275	ltpFR	1	13	0	SPHINX	1349	n/a	1	1	0.412841796875	0.57763671875	upper	../fonts/amplitud.ttf
2076701	WORD	wordpools/wasnorm_wordpool_less_exclusions.txt	LTP275	ltpFR	1	13	0	MOVIE	927	n/a	1	1	0.412841796875	0.57763671875	upper	../fonts/amplitud.ttf
2080611	WORD	wordpools/wasnorm_wordpool_less_exclusions.txt	LTP275	ltpFR	1	13	0	ROSE	1212	n/a	0	1	0.412841796875	0.57763671875	upper	../fonts/amplitud.ttf
2084672	WORD	wordpools/wasnorm_wordpool_less_exclusions.txt	LTP275	ltpFR	1	13	0	CORAL	378	n/a	0	1	0.412841796875	0.57763671875	upper	../fonts/amplitud.ttf
2090299	REC_START	n/a	LTP275	ltpFR	1	13	n/a	n/a	n/a	n/a	n/a	n/a	n/a	n/a	n/a	n/a
2091637	REC_WORD	wordpools/wasnorm_wordpool_less_exclusions.txt	LTP275	ltpFR	1	13	0	CORAL	378	n/a	0	n/a	n/a	n/a	n/a	n/a
2092984	REC_WORD	wordpools/wasnorm_wordpool_less_exclusions.txt	LTP275	ltpFR	1	13	0	ROSE	1212	n/a	0	n/a	n/a	n/a	n/a	n/a
2094018	REC_WORD	wordpools/wasnorm_wordpool_less_exclusions.txt	LTP275	ltpFR	1	13	0	DOUGHNUT	490	n/a	0	n/a	n/a	n/a	n/a	n/a
2094987	REC_WORD	wordpools/wasnorm_wordpool_less_exclusions.txt	LTP275	ltpFR	1	13	0	NOTE	958	n/a	0	n/a	n/a	n/a	n/a	n/a
2096027	REC_WORD	wordpools/wasnorm_wordpool_less_exclusions.txt	LTP275	ltpFR	1	13	0	ENVELOPE	537	n/a	0	n/a	n/a	n/a	n/a	n/a
2097748	REC_WORD	wordpools/wasnorm_wordpool_less_exclusions.txt	LTP275	ltpFR	1	13	0	DONKEY	484	n/a	1	n/a	n/a	n/a	n/a	n/a
2098979	REC_WORD	wordpools/wasnorm_wordpool_less_exclusions.txt	LTP275	ltpFR	1	13	0	GROUND	666	n/a	1	n/a	n/a	n/a	n/a	n/a
2100665	REC_WORD	wordpools/wasnorm_wordpool_less_exclusions.txt	LTP275	ltpFR	1	13	0	VASE	1549	n/a	1	n/a	n/a	n/a	n/a	n/a
2102044	REC_WORD	wordpools/wasnorm_wordpool_less_exclusions.txt	LTP275	ltpFR	1	13	0	SPHINX	1349	n/a	1	n/a	n/a	n/a	n/a	n/a
2104562	REC_WORD	wordpools/wasnorm_wordpool_less_exclusions.txt	LTP275	ltpFR	1	13	0	JAW	751	n/a	n/a	n/a	n/a	n/a	n/a	n/a
2173922	WORD	wordpools/wasnorm_wordpool_less_exclusions.txt	LTP275	ltpFR	1	14	0	COCKTAIL	338	n/a	1	1	0.412841796875	0.57763671875	upper	../fonts/amplitud.ttf
2177783	WORD	wordpools/wasnorm_wordpool_less_exclusions.txt	LTP275	ltpFR	1	14	0	BEARD	107	n/a	1	1	0.412841796875	0.57763671875	upper	../fonts/amplitud.ttf
2181827	WORD	wordpools/wasnorm_wordpool_less_exclusions.txt	LTP275	ltpFR	1	14	0	CLERK	321	n/a	1	1	0.412841796875	0.57763671875	upper	../fonts/amplitud.ttf
2186037	WORD	wordpools/wasnorm_wordpool_less_exclusions.txt	LTP275	ltpFR	1	14	0	MISTER	901	n/a	1	1	0.412841796875	0.57763671875	upper	../fonts/amplitud.ttf
2190065	WORD	wordpools/wasnorm_wordpool_less_exclusions.txt	LTP275	ltpFR	1	14	0	JUG	762	n/a	1	1	0.412841796875	0.57763671875	upper	../fonts/amplitud.ttf
2194075	WORD	wordpools/wasnorm_wordpool_less_exclusions.txt	LTP275	ltpFR	1	14	0	WALLET	1583	n/a	0	1	0.412841796875	0.57763671875	upper	../fonts/amplitud.ttf
2198069	WORD	wordpools/wasnorm_wordpool_less_exclusions.txt	LTP275	ltpFR	1	14	0	SANDPAPER	1231	n/a	0	1	0.412841796875	0.57763671875	upper	../fonts/amplitud.ttf
2201914	WORD	wordpools/wasnorm_wordpool_less_exclusions.txt	LTP275	ltpFR	1	14	0	BACKBONE	66	n/a	1	1	0.412841796875	0.57763671875	upper	../fonts/amplitud.ttf
2206125	WORD	wordpools/wasnorm_wordpool_less_exclusions.txt	LTP275	ltpFR	1	14	0	CHILD	299	n/a	1	1	0.412841796875	0.57763671875	upper	../fonts/amplitud.ttf
2210219	WORD	wordpools/wasnorm_wordpool_less_exclusions.txt	LTP275	ltpFR	1	14	0	SCOUT	1252	n/a	1	1	0.412841796875	0.57763671875	upper	../fonts/amplitud.ttf
2214346	WORD	wordpools/wasnorm_wordpool_less_exclusions.txt	LTP275	ltpFR	1	14	0	HAWK	692	n/a	1	1	0.412841796875	0.57763671875	upper	../fonts/amplitud.ttf
2218407	WORD	wordpools/wasnorm_wordpool_less_exclusions.txt	LTP275	ltpFR	1	14	0	CHEERLEADER	288	n/a	1	1	0.412841796875	0.57763671875	upper	../fonts/amplitud.ttf
2222367	WORD	wordpools/wasnorm_wordpool_less_exclusions.txt	LTP275	ltpFR	1	14	0	ARENA	37	n/a	1	1	0.412841796875	0.57763671875	upper	../fonts/amplitud.ttf
2226361	WORD	wordpools/wasnorm_wordpool_less_exclusions.txt	LTP275	ltpFR	1	14	0	BANKER	84	n/a	1	1	0.412841796875	0.57763671875	upper	../fonts/amplitud.ttf
2230289	WORD	wordpools/wasnorm_wordpool_less_exclusions.txt	LTP275	ltpFR	1	14	0	SUIT	1402	n/a	1	1	0.412841796875	0.57763671875	upper	../fonts/amplitud.ttf
2234233	WORD	wordpools/wasnorm_wordpool_less_exclusions.txt	LTP275	ltpFR	1	14	0	CUFF	423	n/a	0	1	0.412841796875	0.57763671875	upper	../fonts/amplitud.ttf
2240057	REC_START	n/a	LTP275	ltpFR	1	14	n/a	n/a	n/a	n/a	n/a	n/a	n/a	n/a	n/a	n/a
2242282	REC_WORD	wordpools/wasnorm_wordpool_less_exclusions.txt	LTP275	ltpFR	1	14	0	CUFF	423	n/a	0	n/a	n/a	n/a	n/a	n/a
2243481	REC_WORD	wordpools/wasnorm_wordpool_less_exclusions.txt	LTP275	ltpFR	1	14	0	BANKER	84	n/a	1	n/a	n/a	n/a	n/a	n/a
2244585	REC_WORD	wordpools/wasnorm_wordpool_less_exclusions.txt	LTP275	ltpFR	1	14	0	SUIT	1402	n/a	1	n/a	n/a	n/a	n/a	n/a
2245675	REC_WORD	wordpools/wasnorm_wordpool_less_exclusions.txt	LTP275	ltpFR	1	14	0	CHEERLEADER	288	n/a	1	n/a	n/a	n/a	n/a	n/a
2246925	REC_WORD	wordpools/wasnorm_wordpool_less_exclusions.txt	LTP275	ltpFR	1	14	0	CHILD	299	n/a	1	n/a	n/a	n/a	n/a	n/a
2247866	REC_WORD	wordpools/wasnorm_wordpool_less_exclusions.txt	LTP275	ltpFR	1	14	0	SCOUT	1252	n/a	1	n/a	n/a	n/a	n/a	n/a
2249321	REC_WORD	wordpools/wasnorm_wordpool_less_exclusions.txt	LTP275	ltpFR	1	14	0	HAWK	692	n/a	1	n/a	n/a	n/a	n/a	n/a
2250589	REC_WORD	wordpools/wasnorm_wordpool_less_exclusions.txt	LTP275	ltpFR	1	14	0	COCKTAIL	338	n/a	1	n/a	n/a	n/a	n/a	n/a
2252041	REC_WORD	wordpools/wasnorm_wordpool_less_exclusions.txt	LTP275	ltpFR	1	14	0	MISTER	901	n/a	1	n/a	n/a	n/a	n/a	n/a
2253458	REC_WORD	wordpools/wasnorm_wordpool_less_exclusions.txt	LTP275	ltpFR	1	14	0	CLERK	321	n/a	1	n/a	n/a	n/a	n/a	n/a
2259257	REC_WORD	wordpools/wasnorm_wordpool_less_exclusions.txt	LTP275	ltpFR	1	14	0	ARENA	37	n/a	1	n/a	n/a	n/a	n/a	n/a
2264323	REC_WORD	wordpools/wasnorm_wordpool_less_exclusions.txt	LTP275	ltpFR	1	14	0	BEARD	107	n/a	1	n/a	n/a	n/a	n/a	n/a
2269485	REC_WORD	wordpools/wasnorm_wordpool_less_exclusions.txt	LTP275	ltpFR	1	14	0	SANDPAPER	1231	n/a	0	n/a	n/a	n/a	n/a	n/a
2271147	REC_WORD	wordpools/wasnorm_wordpool_less_exclusions.txt	LTP275	ltpFR	1	14	0	WALLET	1583	n/a	0	n/a	n/a	n/a	n/a	n/a
2272443	REC_WORD	wordpools/wasnorm_wordpool_less_exclusions.txt	LTP275	ltpFR	1	14	0	CUFF	423	n/a	0	n/a	n/a	n/a	n/a	n/a
2327377	WORD	wordpools/wasnorm_wordpool_less_exclusions.txt	LTP275	ltpFR	1	15	1	CAMERA	224	n/a	0	0	0.5869140625	0.422607421875	lower	../fonts/zerothre.ttf
2331603	WORD	wordpools/wasnorm_wordpool_less_exclusions.txt	LTP275	ltpFR	1	15	1	VELVET	1555	n/a	0	0	0.5869140625	0.422607421875	lower	../fonts/zerothre.ttf
2335680	WORD	wordpools/wasnorm_wordpool_less_exclusions.txt	LTP275	ltpFR	1	15	1	MOON	914	n/a	0	0	0.5869140625	0.422607421875	lower	../fonts/zerothre.ttf
2339874	WORD	wordpools/wasnorm_wordpool_less_exclusions.txt	LTP275	ltpFR	1	15	1	WITNESS	1618	n/a	1	0	0.5869140625	0.422607421875	lower	../fonts/zerothre.ttf
2343768	WORD	wordpools/wasnorm_wordpool_less_exclusions.txt	LTP275	ltpFR	1	15	1	HINGE	709	n/a	0	0	0.5869140625	0.422607421875	lower	../fonts/zerothre.ttf
2347912	WORD	wordpools/wasnorm_wordpool_less_exclusions.txt	LTP275	ltpFR	1	15	1	LOG	841	n/a	0	0	0.5869140625	0.422607421875	lower	../fonts/zerothre.ttf
2351790	WORD	wordpools/wasnorm_wordpool_less_exclusions.txt	LTP275	ltpFR	1	15	1	LIGHTER	819	n/a	0	0	0.5869140625	0.422607421875	lower	../fonts/zerothre.ttf
2355617	WORD	wordpools/wasnorm_wordpool_less_exclusions.txt	LTP275	ltpFR	1	15	1	STAGE	1366	n/a	0	0	0.5869140625	0.422607421875	lower	../fonts/zerothre.ttf
2359844	WORD	wordpools/wasnorm_wordpool_less_exclusions.txt	LTP275	ltpFR	1	15	1	CITRUS	313	n/a	1	0	0.5869140625	0.422607421875	lower	../fonts/zerothre.ttf
2363972	WORD	wordpools/wasnorm_wordpool_less_exclusions.txt	LTP275	ltpFR	1	15	1	LAWYER	806	n/a	1	0	0.5869140625	0.422607421875	lower	../fonts/zerothre.ttf
2367899	WORD	wordpools/wasnorm_wordpool_less_exclusions.txt	LTP275	ltpFR	1	15	1	BARREL	91	n/a	0	0	0.5869140625	0.422607421875	lower	../fonts/zerothre.ttf
2372009	WORD	wordpools/wasnorm_wordpool_less_exclusions.txt	LTP275	ltpFR	1	15	1	TAVERN	1437	n/a	0	0	0.5869140625	0.422607421875	lower	../fonts/zerothre.ttf
2375904	WORD	wordpools/wasnorm_wordpool_less_exclusions.txt	LTP275	ltpFR	1	15	1	BARRACUDA	90	n/a	1	0	0.5869140625	0.422607421875	lower	../fonts/zerothre.ttf
2379848	WORD	wordpools/wasnorm_wordpool_less_exclusions.txt	LTP275	ltpFR	1	15	1	FISH	571	n/a	1	0	0.5869140625	0.422607421875	lower	../fonts/zerothre.ttf
2383975	WORD	wordpools/wasnorm_wordpool_less_exclusions.txt	LTP275	ltpFR	1	15	1	SPACE	1345	n/a	0	0	0.5869140625	0.422607421875	lower	../fonts/zerothre.ttf
2387853	WORD	wordpools/wasnorm_wordpool_less_exclusions.txt	LTP275	ltpFR	1	15	1	YARD	1630	n/a	1	0	0.5869140625	0.422607421875	lower	../fonts/zerothre.ttf
2393712	REC_START	n/a	LTP275	ltpFR	1	15	n/a	n/a	n/a	n/a	n/a	n/a	n/a	n/a	n/a	n/a
2394656	REC_WORD	wordpools/wasnorm_wordpool_less_exclusions.txt	LTP275	ltpFR	1	15	1	YARD	1630	n/a	1	n/a	n/a	n/a	n/a	n/a
2395474	REC_WORD	wordpools/wasnorm_wordpool_less_exclusions.txt	LTP275	ltpFR	1	15	1	MOON	914	n/a	0	n/a	n/a	n/a	n/a	n/a
2396354	REC_WORD	wordpools/wasnorm_wordpool_less_exclusions.txt	LTP275	ltpFR	1	15	1	SPACE	1345	n/a	0	n/a	n/a	n/a	n/a	n/a
2397527	REC_WORD	wordpools/wasnorm_wordpool_less_exclusions.txt	LTP275	ltpFR	1	15	1	FISH	571	n/a	1	n/a	n/a	n/a	n/a	n/a
2398257	REC_WORD	wordpools/wasnorm_wordpool_less_exclusions.txt	LTP275	ltpFR	1	15	1	BARRACUDA	90	n/a	1	n/a	n/a	n/a	n/a	n/a
2399688	REC_WORD	wordpools/wasnorm_wordpool_less_exclusions.txt	LTP275	ltpFR	1	15	1	LAWYER	806	n/a	1	n/a	n/a	n/a	n/a	n/a
2400743	REC_WORD	wordpools/wasnorm_wordpool_less_exclusions.txt	LTP275	ltpFR	1	15	1	WITNESS	1618	n/a	1	n/a	n/a	n/a	n/a	n/a
2401809	REC_WORD	wordpools/wasnorm_wordpool_less_exclusions.txt	LTP275	ltpFR	1	15	1	STAGE	1366	n/a	0	n/a	n/a	n/a	n/a	n/a
2405813	REC_WORD	wordpools/wasnorm_wordpool_less_exclusions.txt	LTP275	ltpFR	1	15	1	CAMERA	224	n/a	0	n/a	n/a	n/a	n/a	n/a
2406736	REC_WORD	wordpools/wasnorm_wordpool_less_exclusions.txt	LTP275	ltpFR	1	15	1	VELVET	1555	n/a	0	n/a	n/a	n/a	n/a	n/a
2408014	REC_WORD	wordpools/wasnorm_wordpool_less_exclusions.txt	LTP275	ltpFR	1	15	1	HINGE	709	n/a	0	n/a	n/a	n/a	n/a	n/a
2409312	REC_WORD	wordpools/wasnorm_wordpool_less_exclusions.txt	LTP275	ltpFR	1	15	1	CITRUS	313	n/a	1	n/a	n/a	n/a	n/a	n/a
2417873	REC_WORD	wordpools/wasnorm_wordpool_less_exclusions.txt	LTP275	ltpFR	1	15	1	TAVERN	1437	n/a	0	n/a	n/a	n/a	n/a	n/a
2419071	REC_WORD	wordpools/wasnorm_wordpool_less_exclusions.txt	LTP275	ltpFR	1	15	1	BARREL	91	n/a	0	n/a	n/a	n/a	n/a	n/a
2490882	WORD	wordpools/wasnorm_wordpool_less_exclusions.txt	LTP275	ltpFR	1	16	-1	TOAD	1470	n/a	-1	1	1.0	1.0	upper	../fonts/Verdana.ttf
2494710	WORD	wordpools/wasnorm_wordpool_less_exclusions.txt	LTP275	ltpFR	1	16	-1	OTTER	986	n/a	-1	1	1.0	1.0	upper	../fonts/Verdana.ttf
2498770	WORD	wordpools/wasnorm_wordpool_less_exclusions.txt	LTP275	ltpFR	1	16	-1	BANQUET	86	n/a	-1	1	1.0	1.0	upper	../fonts/Verdana.ttf
2502698	WORD	wordpools/wasnorm_wordpool_less_exclusions.txt	LTP275	ltpFR	1	16	-1	DINER	467	n/a	-1	1	1.0	1.0	upper	../fonts/Verdana.ttf
2506658	WORD	wordpools/wasnorm_wordpool_less_exclusions.txt	LTP275	ltpFR	1	16	-1	VACUUM	1543	n/a	-1	1	1.0	1.0	upper	../fonts/Verdana.ttf
2510752	WORD	wordpools/wasnorm_wordpool_less_exclusions.txt	LTP275	ltpFR	1	16	-1	OFFICE	972	n/a	-1	1	1.0	1.0	upper	../fonts/Verdana.ttf
2514763	WORD	wordpools/wasnorm_wordpool_less_exclusions.txt	LTP275	ltpFR	1	16	-1	DRESSER	496	n/a	-1	1	1.0	1.0	upper	../fonts/Verdana.ttf
2518807	WORD	wordpools/wasnorm_wordpool_less_exclusions.txt	LTP275	ltpFR	1	16	-1	ALLEY	15	n/a	-1	1	1.0	1.0	upper	../fonts/Verdana.ttf
2523001	WORD	wordpools/wasnorm_wordpool_less_exclusions.txt	LTP275	ltpFR	1	16	-1	RAG	1160	n/a	-1	1	1.0	1.0	upper	../fonts/Verdana.ttf
2527011	WORD	wordpools/wasnorm_wordpool_less_exclusions.txt	LTP275	ltpFR	1	16	-1	PIRATE	1074	n/a	-1	1	1.0	1.0	upper	../fonts/Verdana.ttf
2531106	WORD	wordpools/wasnorm_wordpool_less_exclusions.txt	LTP275	ltpFR	1	16	-1	HEART	697	n/a	-1	1	1.0	1.0	upper	../fonts/Verdana.ttf
2534983	WORD	wordpools/wasnorm_wordpool_less_exclusions.txt	LTP275	ltpFR	1	16	-1	FLIPPER	580	n/a	-1	1	1.0	1.0	upper	../fonts/Verdana.ttf
2539144	WORD	wordpools/wasnorm_wordpool_less_exclusions.txt	LTP275	ltpFR	1	16	-1	COD	340	n/a	-1	1	1.0	1.0	upper	../fonts/Verdana.ttf
2543037	WORD	wordpools/wasnorm_wordpool_less_exclusions.txt	LTP275	ltpFR	1	16	-1	DRILL	497	n/a	-1	1	1.0	1.0	upper	../fonts/Verdana.ttf
2547116	WORD	wordpools/wasnorm_wordpool_less_exclusions.txt	LTP275	ltpFR	1	16	-1	ELM	527	n/a	-1	1	1.0	1.0	upper	../fonts/Verdana.ttf
2551059	WORD	wordpools/wasnorm_wordpool_less_exclusions.txt	LTP275	ltpFR	1	16	-1	OAR	966	n/a	-1	1	1.0	1.0	upper	../fonts/Verdana.ttf
2556751	REC_START	n/a	LTP275	ltpFR	1	16	n/a	n/a	n/a	n/a	n/a	n/a	n/a	n/a	n/a	n/a
2559437	REC_WORD	wordpools/wasnorm_wordpool_less_exclusions.txt	LTP275	ltpFR	1	16	-1	TOAD	1470	n/a	-1	n/a	n/a	n/a	n/a	n/a
2560826	REC_WORD	wordpools/wasnorm_wordpool_less_exclusions.txt	LTP275	ltpFR	1	16	-1	OTTER	986	n/a	-1	n/a	n/a	n/a	n/a	n/a
2562248	REC_WORD	wordpools/wasnorm_wordpool_less_exclusions.txt	LTP275	ltpFR	1	16	-1	DINER	467	n/a	-1	n/a	n/a	n/a	n/a	n/a
2563493	REC_WORD	wordpools/wasnorm_wordpool_less_exclusions.txt	LTP275	ltpFR	1	16	-1	ALLEY	15	n/a	-1	n/a	n/a	n/a	n/a	n/a
2564832	REC_WORD	wordpools/wasnorm_wordpool_less_exclusions.txt	LTP275	ltpFR	1	16	-1	BANQUET	86	n/a	-1	n/a	n/a	n/a	n/a	n/a
2566293	REC_WORD	wordpools/wasnorm_wordpool_less_exclusions.txt	LTP275	ltpFR	1	16	-1	OFFICE	972	n/a	-1	n/a	n/a	n/a	n/a	n/a
2567624	REC_WORD	wordpools/wasnorm_wordpool_less_exclusions.txt	LTP275	ltpFR	1	16	-1	DRESSER	496	n/a	-1	n/a	n/a	n/a	n/a	n/a
2568755	REC_WORD	wordpools/wasnorm_wordpool_less_exclusions.txt	LTP275	ltpFR	1	16	-1	VACUUM	1543	n/a	-1	n/a	n/a	n/a	n/a	n/a
2570335	REC_WORD	wordpools/wasnorm_wordpool_less_exclusions.txt	LTP275	ltpFR	1	16	-1	PIRATE	1074	n/a	-1	n/a	n/a	n/a	n/a	n/a
2572761	REC_WORD	wordpools/wasnorm_wordpool_less_exclusions.txt	LTP275	ltpFR	1	16	-1	DRILL	497	n/a	-1	n/a	n/a	n/a	n/a	n/a
2575396	REC_WORD	wordpools/wasnorm_wordpool_less_exclusions.txt	LTP275	ltpFR	1	16	-1	RAG	1160	n/a	-1	n/a	n/a	n/a	n/a	n/a
2582935	REC_WORD	wordpools/wasnorm_wordpool_less_exclusions.txt	LTP275	ltpFR	1	16	-1	ELM	527	n/a	-1	n/a	n/a	n/a	n/a	n/a
2584363	REC_WORD	wordpools/wasnorm_wordpool_less_exclusions.txt	LTP275	ltpFR	1	16	-1	FLIPPER	580	n/a	-1	n/a	n/a	n/a	n/a	n/a
2589873	REC_WORD	wordpools/wasnorm_wordpool_less_exclusions.txt	LTP275	ltpFR	1	16	-1	HEART	697	n/a	-1	n/a	n/a	n/a	n/a	n/a
2591770	REC_WORD	wordpools/wasnorm_wordpool_less_exclusions.txt	LTP275	ltpFR	1	16	-1	COD	340	n/a	-1	n/a	n/a	n/a	n/a	n/a
2595256	REC_WORD	wordpools/wasnorm_wordpool_less_exclusions.txt	LTP275	ltpFR	1	16	-1	OAR	966	n/a	-1	n/a	n/a	n/a	n/a	n/a
2652193	REC_START	n/a	LTP275	ltpFR	1	n/a	n/a	n/a	n/a	n/a	n/a	n/a	n/a	n/a	n/a	n/a
2653998	FFR_REC_WORD	wordpools/wasnorm_wordpool_less_exclusions.txt	LTP275	ltpFR	1	n/a	-1	OAR	966	n/a	-1	n/a	n/a	n/a	n/a	n/a
2655194	FFR_REC_WORD	wordpools/wasnorm_wordpool_less_exclusions.txt	LTP275	ltpFR	1	n/a	-1	PIRATE	1074	n/a	-1	n/a	n/a	n/a	n/a	n/a
2656589	FFR_REC_WORD	wordpools/wasnorm_wordpool_less_exclusions.txt	LTP275	ltpFR	1	n/a	-1	COD	340	n/a	-1	n/a	n/a	n/a	n/a	n/a
2657985	FFR_REC_WORD	wordpools/wasnorm_wordpool_less_exclusions.txt	LTP275	ltpFR	1	n/a	-1	FLIPPER	580	n/a	-1	n/a	n/a	n/a	n/a	n/a
2659509	FFR_REC_WORD	wordpools/wasnorm_wordpool_less_exclusions.txt	LTP275	ltpFR	1	n/a	-1	BANQUET	86	n/a	-1	n/a	n/a	n/a	n/a	n/a
2661477	FFR_REC_WORD	wordpools/wasnorm_wordpool_less_exclusions.txt	LTP275	ltpFR	1	n/a	-1	OFFICE	972	n/a	-1	n/a	n/a	n/a	n/a	n/a
2662686	FFR_REC_WORD	wordpools/wasnorm_wordpool_less_exclusions.txt	LTP275	ltpFR	1	n/a	-1	DINER	467	n/a	-1	n/a	n/a	n/a	n/a	n/a
2664133	FFR_REC_WORD	wordpools/wasnorm_wordpool_less_exclusions.txt	LTP275	ltpFR	1	n/a	-1	ALLEY	15	n/a	-1	n/a	n/a	n/a	n/a	n/a
2665293	FFR_REC_WORD	wordpools/wasnorm_wordpool_less_exclusions.txt	LTP275	ltpFR	1	n/a	-1	RAG	1160	n/a	-1	n/a	n/a	n/a	n/a	n/a
2666648	FFR_REC_WORD	wordpools/wasnorm_wordpool_less_exclusions.txt	LTP275	ltpFR	1	n/a	-1	VACUUM	1543	n/a	-1	n/a	n/a	n/a	n/a	n/a
2668495	FFR_REC_WORD	wordpools/wasnorm_wordpool_less_exclusions.txt	LTP275	ltpFR	1	n/a	-1	PIRATE	1074	n/a	-1	n/a	n/a	n/a	n/a	n/a
2670262	FFR_REC_WORD	wordpools/wasnorm_wordpool_less_exclusions.txt	LTP275	ltpFR	1	n/a	-1	HEART	697	n/a	-1	n/a	n/a	n/a	n/a	n/a
2674753	FFR_REC_WORD	wordpools/wasnorm_wordpool_less_exclusions.txt	LTP275	ltpFR	1	n/a	-1	DRESSER	496	n/a	-1	n/a	n/a	n/a	n/a	n/a
2679239	FFR_REC_WORD	wordpools/wasnorm_wordpool_less_exclusions.txt	LTP275	ltpFR	1	n/a	-1	ELM	527	n/a	-1	n/a	n/a	n/a	n/a	n/a
2682904	FFR_REC_WORD	wordpools/wasnorm_wordpool_less_exclusions.txt	LTP275	ltpFR	1	n/a	1	BARRACUDA	90	n/a	1	n/a	n/a	n/a	n/a	n/a
2684007	FFR_REC_WORD	wordpools/wasnorm_wordpool_less_exclusions.txt	LTP275	ltpFR	1	n/a	1	FISH	571	n/a	1	n/a	n/a	n/a	n/a	n/a
2685185	FFR_REC_WORD	wordpools/wasnorm_wordpool_less_exclusions.txt	LTP275	ltpFR	1	n/a	0	PRIMATE	1123	n/a	1	n/a	n/a	n/a	n/a	n/a
2686456	FFR_REC_WORD	wordpools/wasnorm_wordpool_less_exclusions.txt	LTP275	ltpFR	1	n/a	0	CHIMPANZEE	302	n/a	1	n/a	n/a	n/a	n/a	n/a
2687896	FFR_REC_WORD	wordpools/wasnorm_wordpool_less_exclusions.txt	LTP275	ltpFR	1	n/a	0	KITTEN	780	n/a	0	n/a	n/a	n/a	n/a	n/a
2689416	FFR_REC_WORD	wordpools/wasnorm_wordpool_less_exclusions.txt	LTP275	ltpFR	1	n/a	0	CAT	257	n/a	0	n/a	n/a	n/a	n/a	n/a
2691249	FFR_REC_WORD	wordpools/wasnorm_wordpool_less_exclusions.txt	LTP275	ltpFR	1	n/a	0	CROCODILE	411	n/a	0	n/a	n/a	n/a	n/a	n/a
2692479	FFR_REC_WORD	wordpools/wasnorm_wordpool_less_exclusions.txt	LTP275	ltpFR	1	n/a	0	REPTILE	1185	n/a	1	n/a	n/a	n/a	n/a	n/a
2694023	FFR_REC_WORD	wordpools/wasnorm_wordpool_less_exclusions.txt	LTP275	ltpFR	1	n/a	-1	OTTER	986	n/a	-1	n/a	n/a	n/a	n/a	n/a
2695462	FFR_REC_WORD	wordpools/wasnorm_wordpool_less_exclusions.txt	LTP275	ltpFR	1	n/a	-1	TOAD	1470	n/a	-1	n/a	n/a	n/a	n/a	n/a
2702533	FFR_REC_WORD	wordpools/wasnorm_wordpool_less_exclusions.txt	LTP275	ltpFR	1	n/a	1	MOON	914	n/a	0	n/a	n/a	n/a	n/a	n/a
2703917	FFR_REC_WORD	wordpools/wasnorm_wordpool_less_exclusions.txt	LTP275	ltpFR	1	n/a	1	VELVET	1555	n/a	0	n/a	n/a	n/a	n/a	n/a
2705359	FFR_REC_WORD	wordpools/wasnorm_wordpool_less_exclusions.txt	LTP275	ltpFR	1	n/a	1	CAMERA	224	n/a	0	n/a	n/a	n/a	n/a	n/a
2709204	FFR_REC_WORD	wordpools/wasnorm_wordpool_less_exclusions.txt	LTP275	ltpFR	1	n/a	1	WITNESS	1618	n/a	1	n/a	n/a	n/a	n/a	n/a
2710132	FFR_REC_WORD	wordpools/wasnorm_wordpool_less_exclusions.txt	LTP275	ltpFR	1	n/a	1	LAWYER	806	n/a	1	n/a	n/a	n/a	n/a	n/a
2715811	FFR_REC_WORD	wordpools/wasnorm_wordpool_less_exclusions.txt	LTP275	ltpFR	1	n/a	1	CITRUS	313	n/a	1	n/a	n/a	n/a	n/a	n/a
2716931	FFR_REC_WORD	wordpools/wasnorm_wordpool_less_exclusions.txt	LTP275	ltpFR	1	n/a	1	TAVERN	1437	n/a	0	n/a	n/a	n/a	n/a	n/a
2718395	FFR_REC_WORD	wordpools/wasnorm_wordpool_less_exclusions.txt	LTP275	ltpFR	1	n/a	1	BARREL	91	n/a	0	n/a	n/a	n/a	n/a	n/a
2733650	FFR_REC_WORD	wordpools/wasnorm_wordpool_less_exclusions.txt	LTP275	ltpFR	1	n/a	1	STAGE	1366	n/a	0	n/a	n/a	n/a	n/a	n/a
2734928	FFR_REC_WORD	wordpools/wasnorm_wordpool_less_exclusions.txt	LTP275	ltpFR	1	n/a	0	ARENA	37	n/a	1	n/a	n/a	n/a	n/a	n/a
2735804	FFR_REC_WORD	wordpools/wasnorm_wordpool_less_exclusions.txt	LTP275	ltpFR	1	n/a	0	COCKTAIL	338	n/a	1	n/a	n/a	n/a	n/a	n/a
2737320	FFR_REC_WORD	wordpools/wasnorm_wordpool_less_exclusions.txt	LTP275	ltpFR	1	n/a	0	BEARD	107	n/a	1	n/a	n/a	n/a	n/a	n/a
2741141	FFR_REC_WORD	wordpools/wasnorm_wordpool_less_exclusions.txt	LTP275	ltpFR	1	n/a	0	CHEERLEADER	288	n/a	1	n/a	n/a	n/a	n/a	n/a
2742462	FFR_REC_WORD	wordpools/wasnorm_wordpool_less_exclusions.txt	LTP275	ltpFR	1	n/a	0	BANKER	84	n/a	1	n/a	n/a	n/a	n/a	n/a
2743493	FFR_REC_WORD	wordpools/wasnorm_wordpool_less_exclusions.txt	LTP275	ltpFR	1	n/a	0	SUIT	1402	n/a	1	n/a	n/a	n/a	n/a	n/a
2745316	FFR_REC_WORD	wordpools/wasnorm_wordpool_less_exclusions.txt	LTP275	ltpFR	1	n/a	0	CHILD	299	n/a	1	n/a	n/a	n/a	n/a	n/a
2746327	FFR_REC_WORD	wordpools/wasnorm_wordpool_less_exclusions.txt	LTP275	ltpFR	1	n/a	0	SCOUT	1252	n/a	1	n/a	n/a	n/a	n/a	n/a
2747524	FFR_REC_WORD	wordpools/wasnorm_wordpool_less_exclusions.txt	LTP275	ltpFR	1	n/a	0	HAWK	692	n/a	1	n/a	n/a	n/a	n/a	n/a
2753195	FFR_REC_WORD	wordpools/wasnorm_wordpool_less_exclusions.txt	LTP275	ltpFR	1	n/a	1	MINER	896	n/a	1	n/a	n/a	n/a	n/a	n/a
2755601	FFR_REC_WORD	wordpools/wasnorm_wordpool_less_exclusions.txt	LTP275	ltpFR	1	n/a	0	HIKER	708	n/a	1	n/a	n/a	n/a	n/a	n/a
2765795	FFR_REC_WORD	wordpools/wasnorm_wordpool_less_exclusions.txt	LTP275	ltpFR	1	n/a	0	PICKLE	1059	n/a	0	n/a	n/a	n/a	n/a	n/a
2769060	FFR_REC_WORD	wordpools/wasnorm_wordpool_less_exclusions.txt	LTP275	ltpFR	1	n/a	0	CLAW	319	n/a	0	n/a	n/a	n/a	n/a	n/a
2770216	FFR_REC_WORD	wordpools/wasnorm_wordpool_less_exclusions.txt	LTP275	ltpFR	1	n/a	0	PRINCESS	1125	n/a	1	n/a	n/a	n/a	n/a	n/a
2775312	FFR_REC_WORD	wordpools/wasnorm_wordpool_less_exclusions.txt	LTP275	ltpFR	1	n/a	0	SPHINX	1349	n/a	1	n/a	n/a	n/a	n/a	n/a
2782321	FFR_REC_WORD	wordpools/wasnorm_wordpool_less_exclusions.txt	LTP275	ltpFR	1	n/a	0	MEADOW	881	n/a	1	n/a	n/a	n/a	n/a	n/a
2784011	FFR_REC_WORD	wordpools/wasnorm_wordpool_less_exclusions.txt	LTP275	ltpFR	1	n/a	0	GROUND	666	n/a	1	n/a	n/a	n/a	n/a	n/a
2786539	FFR_REC_WORD	wordpools/wasnorm_wordpool_less_exclusions.txt	LTP275	ltpFR	1	n/a	0	HIGHWAY	707	n/a	1	n/a	n/a	n/a	n/a	n/a
2787746	FFR_REC_WORD	wordpools/wasnorm_wordpool_less_exclusions.txt	LTP275	ltpFR	1	n/a	0	BOULEVARD	156	n/a	1	n/a	n/a	n/a	n/a	n/a
2791663	FFR_REC_WORD	wordpools/wasnorm_wordpool_less_exclusions.txt	LTP275	ltpFR	1	n/a	n/a	ENGINE	535	n/a	n/a	n/a	n/a	n/a	n/a	n/a
2792683	FFR_REC_WORD	wordpools/wasnorm_wordpool_less_exclusions.txt	LTP275	ltpFR	1	n/a	-1	WAGON	1578	n/a	-1	n/a	n/a	n/a	n/a	n/a
2794576	FFR_REC_WORD	wordpools/wasnorm_wordpool_less_exclusions.txt	LTP275	ltpFR	1	n/a	-1	SERGEANT	1269	n/a	-1	n/a	n/a	n/a	n/a	n/a
2796291	FFR_REC_WORD	wordpools/wasnorm_wordpool_less_exclusions.txt	LTP275	ltpFR	1	n/a	-1	WRENCH	1625	n/a	-1	n/a	n/a	n/a	n/a	n/a
2797720	FFR_REC_WORD	wordpools/wasnorm_wordpool_less_exclusions.txt	LTP275	ltpFR	1	n/a	-1	DASHBOARD	441	n/a	-1	n/a	n/a	n/a	n/a	n/a
2799221	FFR_REC_WORD	wordpools/wasnorm_wordpool_less_exclusions.txt	LTP275	ltpFR	1	n/a	n/a	ENGINE	535	n/a	n/a	n/a	n/a	n/a	n/a	n/a
2801554	FFR_REC_WORD	wordpools/wasnorm_wordpool_less_exclusions.txt	LTP275	ltpFR	1	n/a	-1	JEEP	753	n/a	-1	n/a	n/a	n/a	n/a	n/a
2802572	FFR_REC_WORD	wordpools/wasnorm_wordpool_less_exclusions.txt	LTP275	ltpFR	1	n/a	-1	PATRIOT	1026	n/a	-1	n/a	n/a	n/a	n/a	n/a
2804132	FFR_REC_WORD	wordpools/wasnorm_wordpool_less_exclusions.txt	LTP275	ltpFR	1	n/a	-1	SNEAKER	1334	n/a	-1	n/a	n/a	n/a	n/a	n/a
2807054	FFR_REC_WORD	wordpools/wasnorm_wordpool_less_exclusions.txt	LTP275	ltpFR	1	n/a	1	NICOTINE	951	n/a	0	n/a	n/a	n/a	n/a	n/a
2808450	FFR_REC_WORD	wordpools/wasnorm_wordpool_less_exclusions.txt	LTP275	ltpFR	1	n/a	1	TURKEY	1520	n/a	1	n/a	n/a	n/a	n/a	n/a
2811493	FFR_REC_WORD	wordpools/wasnorm_wordpool_less_exclusions.txt	LTP275	ltpFR	1	n/a	-1	DOVE	491	n/a	-1	n/a	n/a	n/a	n/a	n/a
2815478	FFR_REC_WORD	wordpools/wasnorm_wordpool_less_exclusions.txt	LTP275	ltpFR	1	n/a	1	FOE	587	n/a	1	n/a	n/a	n/a	n/a	n/a
2816753	FFR_REC_WORD	wordpools/wasnorm_wordpool_less_exclusions.txt	LTP275	ltpFR	1	n/a	1	WORM	1623	n/a	1	n/a	n/a	n/a	n/a	n/a
2817834	FFR_REC_WORD	wordpools/wasnorm_wordpool_less_exclusions.txt	LTP275	ltpFR	1	n/a	1	ROCK	1201	n/a	0	n/a	n/a	n/a	n/a	n/a
2818899	FFR_REC_WORD	wordpools/wasnorm_wordpool_less_exclusions.txt	LTP275	ltpFR	1	n/a	1	BOULDER	155	n/a	0	n/a	n/a	n/a	n/a	n/a
2819978	FFR_REC_WORD	wordpools/wasnorm_wordpool_less_exclusions.txt	LTP275	ltpFR	1	n/a	1	PENNY	1045	n/a	0	n/a	n/a	n/a	n/a	n/a
2821821	FFR_REC_WORD	wordpools/wasnorm_wordpool_less_exclusions.txt	LTP275	ltpFR	1	n/a	1	BANDANNA	80	n/a	0	n/a	n/a	n/a	n/a	n/a
2825257	FFR_REC_WORD	wordpools/wasnorm_wordpool_less_exclusions.txt	LTP275	ltpFR	1	n/a	1	COLESLAW	344	n/a	0	n/a	n/a	n/a	n/a	n/a
2857127	FFR_REC_WORD	wordpools/wasnorm_wordpool_less_exclusions.txt	LTP275	ltpFR	1	n/a	1	FLOWER	584	n/a	1	n/a	n/a	n/a	n/a	n/a
2858720	FFR_REC_WORD	wordpools/wasnorm_wordpool_less_exclusions.txt	LTP275	ltpFR	1	n/a	1	IGLOO	734	n/a	0	n/a	n/a	n/a	n/a	n/a
2861514	FFR_REC_WORD	wordpools/wasnorm_wordpool_less_exclusions.txt	LTP275	ltpFR	1	n/a	1	COLUMN	350	n/a	0	n/a	n/a	n/a	n/a	n/a
2862914	FFR_REC_WORD	wordpools/wasnorm_wordpool_less_exclusions.txt	LTP275	ltpFR	1	n/a	1	SCREWDRIVER	1255	n/a	0	n/a	n/a	n/a	n/a	n/a
2864161	FFR_REC_WORD	wordpools/wasnorm_wordpool_less_exclusions.txt	LTP275	ltpFR	1	n/a	1	FOLDER	588	n/a	0	n/a	n/a	n/a	n/a	n/a
2865259	FFR_REC_WORD	wordpools/wasnorm_wordpool_less_exclusions.txt	LTP275	ltpFR	1	n/a	1	PEN	1041	n/a	0	n/a	n/a	n/a	n/a	n/a
2867694	FFR_REC_WORD	wordpools/wasnorm_wordpool_less_exclusions.txt	LTP275	ltpFR	1	n/a	0	PALACE	1006	n/a	1	n/a	n/a	n/a	n/a	n/a
2910196	FFR_REC_WORD	wordpools/wasnorm_wordpool_less_exclusions.txt	LTP275	ltpFR	1	n/a	0	ANTEATER	26	n/a	1	n/a	n/a	n/a	n/a	n/a
2919749	FFR_REC_WORD	wordpools/wasnorm_wordpool_less_exclusions.txt	LTP275	ltpFR	1	n/a	0	NOTE	958	n/a	0	n/a	n/a	n/a	n/a	n/a
2920646	FFR_REC_WORD	wordpools/wasnorm_wordpool_less_exclusions.txt	LTP275	ltpFR	1	n/a	0	ENVELOPE	537	n/a	0	n/a	n/a	n/a	n/a	n/a
2922147	FFR_REC_WORD	wordpools/wasnorm_wordpool_less_exclusions.txt	LTP275	ltpFR	1	n/a	0	DOUGHNUT	490	n/a	0	n/a	n/a	n/a	n/a	n/a
2924151	FFR_REC_WORD	wordpools/wasnorm_wordpool_less_exclusions.txt	LTP275	ltpFR	1	n/a	0	CLAW	319	n/a	0	n/a	n/a	n/a	n/a	n/a
2927237	FFR_REC_WORD	wordpools/wasnorm_wordpool_less_exclusions.txt	LTP275	ltpFR	1	n/a	0	ROSE	1212	n/a	0	n/a	n/a	n/a	n/a	n/a
2930367	FFR_REC_WORD	wordpools/wasnorm_wordpool_less_exclusions.txt	LTP275	ltpFR	1	n/a	0	WALLET	1583	n/a	0	n/a	n/a	n/a	n/a	n/a
2932929	FFR_REC_WORD	wordpools/wasnorm_wordpool_less_exclusions.txt	LTP275	ltpFR	1	n/a	-1	DIAMOND	458	n/a	-1	n/a	n/a	n/a	n/a	n/a
2933877	FFR_REC_WORD	wordpools/wasnorm_wordpool_less_exclusions.txt	LTP275	ltpFR	1	n/a	-1	SALMON	1227	n/a	-1	n/a	n/a	n/a	n/a	n/a
2935126	FFR_REC_WORD	wordpools/wasnorm_wordpool_less_exclusions.txt	LTP275	ltpFR	1	n/a	-1	CANNON	232	n/a	-1	n/a	n/a	n/a	n/a	n/a
2936648	FFR_REC_WORD	wordpools/wasnorm_wordpool_less_exclusions.txt	LTP275	ltpFR	1	n/a	-1	FAMILY	550	n/a	-1	n/a	n/a	n/a	n/a	n/a
2937924	FFR_REC_WORD	wordpools/wasnorm_wordpool_less_exclusions.txt	LTP275	ltpFR	1	n/a	0	CHILD	299	n/a	1	n/a	n/a	n/a	n/a	n/a
2940826	FFR_REC_WORD	wordpools/wasnorm_wordpool_less_exclusions.txt	LTP275	ltpFR	1	n/a	-1	ACTOR	5	n/a	-1	n/a	n/a	n/a	n/a	n/a
2941886	FFR_REC_WORD	wordpools/wasnorm_wordpool_less_exclusions.txt	LTP275	ltpFR	1	n/a	-1	JUGGLER	763	n/a	-1	n/a	n/a	n/a	n/a	n/a
2943010	FFR_REC_WORD	wordpools/wasnorm_wordpool_less_exclusions.txt	LTP275	ltpFR	1	n/a	-1	HANGER	687	n/a	-1	n/a	n/a	n/a	n/a	n/a
2944171	FFR_REC_WORD	wordpools/wasnorm_wordpool_less_exclusions.txt	LTP275	ltpFR	1	n/a	-1	TAG	1429	n/a	-1	n/a	n/a	n/a	n/a	n/a
2945367	FFR_REC_WORD	wordpools/wasnorm_wordpool_less_exclusions.txt	LTP275	ltpFR	1	n/a	-1	LOFT	840	n/a	-1	n/a	n/a	n/a	n/a	n/a
2946457	FFR_REC_WORD	wordpools/wasnorm_wordpool_less_exclusions.txt	LTP275	ltpFR	1	n/a	-1	WIRE	1616	n/a	-1	n/a	n/a	n/a	n/a	n/a
2947545	FFR_REC_WORD	wordpools/wasnorm_wordpool_less_exclusions.txt	LTP275	ltpFR	1	n/a	-1	CORD	379	n/a	-1	n/a	n/a	n/a	n/a	n/a
2948941	FFR_REC_WORD	wordpools/wasnorm_wordpool_less_exclusions.txt	LTP275	ltpFR	1	n/a	-1	FRIEND	606	n/a	-1	n/a	n/a	n/a	n/a	n/a
3031343	REC_START	n/a	LTP275	ltpFR	1	1	n/a	n/a	n/a	n/a	n/a	n/a	n/a	n/a	n/a	n/a
3031376	RECOG_TARGET	n/a	LTP275	ltpFR	1	1	1	CABLE	213	2	0	n/a	n/a	n/a	n/a	n/a
3034233	RECOG_RESP	n/a	LTP275	ltpFR	1	1	1	CABLE	213	n/a	0	n/a	n/a	n/a	n/a	n/a
3036878	RECOG_CONF	n/a	LTP275	ltpFR	1	1	1	CABLE	213	2	0	n/a	n/a	n/a	n/a	n/a
3038847	RECOG_LURE	n/a	LTP275	ltpFR	1	1	n/a	THRONE	1461	2	n/a	n/a	n/a	n/a	n/a	n/a
3040073	RECOG_RESP	n/a	LTP275	ltpFR	1	1	n/a	THRONE	1461	n/a	n/a	n/a	n/a	n/a	n/a	n/a
3041403	RECOG_CONF	n/a	LTP275	ltpFR	1	1	n/a	THRONE	1461	2	n/a	n/a	n/a	n/a	n/a	n/a
3043308	RECOG_TARGET	n/a	LTP275	ltpFR	1	1	0	PALM	1007	5	1	n/a	n/a	n/a	n/a	n/a
3044548	RECOG_RESP	n/a	LTP275	ltpFR	1	1	0	PALM	1007	n/a	1	n/a	n/a	n/a	n/a	n/a
3045763	RECOG_CONF	n/a	LTP275	ltpFR	1	1	0	PALM	1007	5	1	n/a	n/a	n/a	n/a	n/a
3047600	RECOG_TARGET	n/a	LTP275	ltpFR	1	1	1	ROCK	1201	4	0	n/a	n/a	n/a	n/a	n/a
3048813	RECOG_RESP	n/a	LTP275	ltpFR	1	1	1	ROCK	1201	n/a	0	n/a	n/a	n/a	n/a	n/a
3050703	RECOG_CONF	n/a	LTP275	ltpFR	1	1	1	ROCK	1201	4	0	n/a	n/a	n/a	n/a	n/a
3052493	RECOG_LURE	n/a	LTP275	ltpFR	1	1	n/a	CATERPILLAR	259	2	n/a	n/a	n/a	n/a	n/a	n/a
3053478	RECOG_RESP	n/a	LTP275	ltpFR	1	1	n/a	CATERPILLAR	259	n/a	n/a	n/a	n/a	n/a	n/a	n/a
3054953	RECOG_CONF	n/a	LTP275	ltpFR	1	1	n/a	CATERPILLAR	259	2	n/a	n/a	n/a	n/a	n/a	n/a
3056837	RECOG_TARGET	n/a	LTP275	ltpFR	1	1	-1	SERGEANT	1269	5	-1	n/a	n/a	n/a	n/a	n/a
3057623	RECOG_RESP	n/a	LTP275	ltpFR	1	1	-1	SERGEANT	1269	n/a	-1	n/a	n/a	n/a	n/a	n/a
3059013	RECOG_CONF	n/a	LTP275	ltpFR	1	1	-1	SERGEANT	1269	5	-1	n/a	n/a	n/a	n/a	n/a
3060864	RECOG_TARGET	n/a	LTP275	ltpFR	1	1	-1	HOOK	715	5	-1	n/a	n/a	n/a	n/a	n/a
3061653	RECOG_RESP	n/a	LTP275	ltpFR	1	1	-1	HOOK	715	n/a	-1	n/a	n/a	n/a	n/a	n/a
3063593	RECOG_CONF	n/a	LTP275	ltpFR	1	1	-1	HOOK	715	5	-1	n/a	n/a	n/a	n/a	n/a
3065491	RECOG_TARGET	n/a	LTP275	ltpFR	1	1	1	FISH	571	1	1	n/a	n/a	n/a	n/a	n/a
3066473	RECOG_RESP	n/a	LTP275	ltpFR	1	1	1	FISH	571	n/a	1	n/a	n/a	n/a	n/a	n/a
3068053	RECOG_CONF	n/a	LTP275	ltpFR	1	1	1	FISH	571	1	1	n/a	n/a	n/a	n/a	n/a
3069801	RECOG_TARGET	n/a	LTP275	ltpFR	1	1	1	CAMERA	224	5	0	n/a	n/a	n/a	n/a	n/a
3070658	RECOG_RESP	n/a	LTP275	ltpFR	1	1	1	CAMERA	224	n/a	0	n/a	n/a	n/a	n/a	n/a
3072143	RECOG_CONF	n/a	LTP275	ltpFR	1	1	1	CAMERA	224	5	0	n/a	n/a	n/a	n/a	n/a
3073928	RECOG_TARGET	n/a	LTP275	ltpFR	1	1	0	VASE	1549	4	1	n/a	n/a	n/a	n/a	n/a
3074748	RECOG_RESP	n/a	LTP275	ltpFR	1	1	0	VASE	1549	n/a	1	n/a	n/a	n/a	n/a	n/a
3075923	RECOG_CONF	n/a	LTP275	ltpFR	1	1	0	VASE	1549	4	1	n/a	n/a	n/a	n/a	n/a
3077955	RECOG_TARGET	n/a	LTP275	ltpFR	1	1	0	SWATTER	1418	1	0	n/a	n/a	n/a	n/a	n/a
3079598	RECOG_RESP	n/a	LTP275	ltpFR	1	1	0	SWATTER	1418	n/a	0	n/a	n/a	n/a	n/a	n/a
3082353	RECOG_CONF	n/a	LTP275	ltpFR	1	1	0	SWATTER	1418	1	0	n/a	n/a	n/a	n/a	n/a
3084180	RECOG_TARGET	n/a	LTP275	ltpFR	1	1	0	COCOON	339	4	0	n/a	n/a	n/a	n/a	n/a
3085048	RECOG_RESP	n/a	LTP275	ltpFR	1	1	0	COCOON	339	n/a	0	n/a	n/a	n/a	n/a	n/a
3086883	RECOG_CONF	n/a	LTP275	ltpFR	1	1	0	COCOON	339	4	0	n/a	n/a	n/a	n/a	n/a
3088706	RECOG_TARGET	n/a	LTP275	ltpFR	1	1	-1	DRUM	502	5	-1	n/a	n/a	n/a	n/a	n/a
3089978	RECOG_RESP	n/a	LTP275	ltpFR	1	1	-1	DRUM	502	n/a	-1	n/a	n/a	n/a	n/a	n/a
3091503	RECOG_CONF	n/a	LTP275	ltpFR	1	1	-1	DRUM	502	5	-1	n/a	n/a	n/a	n/a	n/a
3093400	RECOG_LURE	n/a	LTP275	ltpFR	1	1	n/a	SHRIMP	1297	2	n/a	n/a	n/a	n/a	n/a	n/a
3094473	RECOG_RESP	n/a	LTP275	ltpFR	1	1	n/a	SHRIMP	1297	n/a	n/a	n/a	n/a	n/a	n/a	n/a
3095623	RECOG_CONF	n/a	LTP275	ltpFR	1	1	n/a	SHRIMP	1297	2	n/a	n/a	n/a	n/a	n/a	n/a
3097444	RECOG_TARGET	n/a	LTP275	ltpFR	1	1	1	COW	393	3	1	n/a	n/a	n/a	n/a	n/a
3099138	RECOG_RESP	n/a	LTP275	ltpFR	1	1	1	COW	393	n/a	1	n/a	n/a	n/a	n/a	n/a
3100373	RECOG_CONF	n/a	LTP275	ltpFR	1	1	1	COW	393	3	1	n/a	n/a	n/a	n/a	n/a
3102137	RECOG_TARGET	n/a	LTP275	ltpFR	1	1	0	ELECTRICIAN	521	1	1	n/a	n/a	n/a	n/a	n/a
3103363	RECOG_RESP	n/a	LTP275	ltpFR	1	1	0	ELECTRICIAN	521	n/a	1	n/a	n/a	n/a	n/a	n/a
3104623	RECOG_CONF	n/a	LTP275	ltpFR	1	1	0	ELECTRICIAN	521	1	1	n/a	n/a	n/a	n/a	n/a
3106314	RECOG_TARGET	n/a	LTP275	ltpFR	1	1	-1	SINK	1309	4	-1	n/a	n/a	n/a	n/a	n/a
3107343	RECOG_RESP	n/a	LTP275	ltpFR	1	1	-1	SINK	1309	n/a	-1	n/a	n/a	n/a	n/a	n/a
3108943	RECOG_CONF	n/a	LTP275	ltpFR	1	1	-1	SINK	1309	4	-1	n/a	n/a	n/a	n/a	n/a
3110723	RECOG_TARGET	n/a	LTP275	ltpFR	1	1	1	CRICKET	408	3	1	n/a	n/a	n/a	n/a	n/a
3111533	RECOG_RESP	n/a	LTP275	ltpFR	1	1	1	CRICKET	408	n/a	1	n/a	n/a	n/a	n/a	n/a
3112643	RECOG_CONF	n/a	LTP275	ltpFR	1	1	1	CRICKET	408	3	1	n/a	n/a	n/a	n/a	n/a
3114617	RECOG_LURE	n/a	LTP275	ltpFR	1	1	n/a	RADISH	1158	3	n/a	n/a	n/a	n/a	n/a	n/a
3115583	RECOG_RESP	n/a	LTP275	ltpFR	1	1	n/a	RADISH	1158	n/a	n/a	n/a	n/a	n/a	n/a	n/a
3116773	RECOG_CONF	n/a	LTP275	ltpFR	1	1	n/a	RADISH	1158	3	n/a	n/a	n/a	n/a	n/a	n/a
3118628	RECOG_TARGET	n/a	LTP275	ltpFR	1	1	0	BAND	78	4	1	n/a	n/a	n/a	n/a	n/a
3119768	RECOG_RESP	n/a	LTP275	ltpFR	1	1	0	BAND	78	n/a	1	n/a	n/a	n/a	n/a	n/a
3120753	RECOG_CONF	n/a	LTP275	ltpFR	1	1	0	BAND	78	4	1	n/a	n/a	n/a	n/a	n/a
3131910	REC_START	n/a	LTP275	ltpFR	1	2	n/a	n/a	n/a	n/a	n/a	n/a	n/a	n/a	n/a	n/a
3131941	RECOG_TARGET	n/a	LTP275	ltpFR	1	2	-1	TAG	1429	5	-1	n/a	n/a	n/a	n/a	n/a
3132905	RECOG_RESP	n/a	LTP275	ltpFR	1	2	-1	TAG	1429	n/a	-1	n/a	n/a	n/a	n/a	n/a
3133980	RECOG_CONF	n/a	LTP275	ltpFR	1	2	-1	TAG	1429	5	-1	n/a	n/a	n/a	n/a	n/a
3135802	RECOG_TARGET	n/a	LTP275	ltpFR	1	2	1	HINGE	709	5	0	n/a	n/a	n/a	n/a	n/a
3136755	RECOG_RESP	n/a	LTP275	ltpFR	1	2	1	HINGE	709	n/a	0	n/a	n/a	n/a	n/a	n/a
3137810	RECOG_CONF	n/a	LTP275	ltpFR	1	2	1	HINGE	709	5	0	n/a	n/a	n/a	n/a	n/a
3139746	RECOG_LURE	n/a	LTP275	ltpFR	1	2	n/a	SPAGHETTI	1346	5	n/a	n/a	n/a	n/a	n/a	n/a
3140560	RECOG_RESP	n/a	LTP275	ltpFR	1	2	n/a	SPAGHETTI	1346	n/a	n/a	n/a	n/a	n/a	n/a	n/a
3141490	RECOG_CONF	n/a	LTP275	ltpFR	1	2	n/a	SPAGHETTI	1346	5	n/a	n/a	n/a	n/a	n/a	n/a
3143425	RECOG_TARGET	n/a	LTP275	ltpFR	1	2	0	REPTILE	1185	4	1	n/a	n/a	n/a	n/a	n/a
3144295	RECOG_RESP	n/a	LTP275	ltpFR	1	2	0	REPTILE	1185	n/a	1	n/a	n/a	n/a	n/a	n/a
3145390	RECOG_CONF	n/a	LTP275	ltpFR	1	2	0	REPTILE	1185	4	1	n/a	n/a	n/a	n/a	n/a
3147319	RECOG_LURE	n/a	LTP275	ltpFR	1	2	n/a	CHECK	284	2	n/a	n/a	n/a	n/a	n/a	n/a
3148140	RECOG_RESP	n/a	LTP275	ltpFR	1	2	n/a	CHECK	284	n/a	n/a	n/a	n/a	n/a	n/a	n/a
3149190	RECOG_CONF	n/a	LTP275	ltpFR	1	2	n/a	CHECK	284	2	n/a	n/a	n/a	n/a	n/a	n/a
3151096	RECOG_TARGET	n/a	LTP275	ltpFR	1	2	0	CHEERLEADER	288	5	1	n/a	n/a	n/a	n/a	n/a
3151865	RECOG_RESP	n/a	LTP275	ltpFR	1	2	0	CHEERLEADER	288	n/a	1	n/a	n/a	n/a	n/a	n/a
3152850	RECOG_CONF	n/a	LTP275	ltpFR	1	2	0	CHEERLEADER	288	5	1	n/a	n/a	n/a	n/a	n/a
3155007	RECOG_TARGET	n/a	LTP275	ltpFR	1	2	-1	DRILL	497	5	-1	n/a	n/a	n/a	n/a	n/a
3155810	RECOG_RESP	n/a	LTP275	ltpFR	1	2	-1	DRILL	497	n/a	-1	n/a	n/a	n/a	n/a	n/a
3156720	RECOG_CONF	n/a	LTP275	ltpFR	1	2	-1	DRILL	497	5	-1	n/a	n/a	n/a	n/a	n/a
3158718	RECOG_TARGET	n/a	LTP275	ltpFR	1	2	-1	SCALLOP	1242	4	-1	n/a	n/a	n/a	n/a	n/a
3159525	RECOG_RESP	n/a	LTP275	ltpFR	1	2	-1	SCALLOP	1242	n/a	-1	n/a	n/a	n/a	n/a	n/a
3160590	RECOG_CONF	n/a	LTP275	ltpFR	1	2	-1	SCALLOP	1242	4	-1	n/a	n/a	n/a	n/a	n/a
3162612	RECOG_TARGET	n/a	LTP275	ltpFR	1	2	0	BELLY	119	5	1	n/a	n/a	n/a	n/a	n/a
3163240	RECOG_RESP	n/a	LTP275	ltpFR	1	2	0	BELLY	119	n/a	1	n/a	n/a	n/a	n/a	n/a
3164260	RECOG_CONF	n/a	LTP275	ltpFR	1	2	0	BELLY	119	5	1	n/a	n/a	n/a	n/a	n/a
3166174	RECOG_LURE	n/a	LTP275	ltpFR	1	2	n/a	PREDATOR	1120	3	n/a	n/a	n/a	n/a	n/a	n/a
3167230	RECOG_RESP	n/a	LTP275	ltpFR	1	2	n/a	PREDATOR	1120	n/a	n/a	n/a	n/a	n/a	n/a	n/a
3168170	RECOG_CONF	n/a	LTP275	ltpFR	1	2	n/a	PREDATOR	1120	3	n/a	n/a	n/a	n/a	n/a	n/a
3170051	RECOG_LURE	n/a	LTP275	ltpFR	1	2	n/a	FIDDLE	561	3	n/a	n/a	n/a	n/a	n/a	n/a
3170945	RECOG_RESP	n/a	LTP275	ltpFR	1	2	n/a	FIDDLE	561	n/a	n/a	n/a	n/a	n/a	n/a	n/a
3171840	RECOG_CONF	n/a	LTP275	ltpFR	1	2	n/a	FIDDLE	561	3	n/a	n/a	n/a	n/a	n/a	n/a
3173845	RECOG_TARGET	n/a	LTP275	ltpFR	1	2	-1	JEEP	753	5	-1	n/a	n/a	n/a	n/a	n/a
3174550	RECOG_RESP	n/a	LTP275	ltpFR	1	2	-1	JEEP	753	n/a	-1	n/a	n/a	n/a	n/a	n/a
3175510	RECOG_CONF	n/a	LTP275	ltpFR	1	2	-1	JEEP	753	5	-1	n/a	n/a	n/a	n/a	n/a
3177640	RECOG_TARGET	n/a	LTP275	ltpFR	1	2	-1	FAMILY	550	5	-1	n/a	n/a	n/a	n/a	n/a
3178335	RECOG_RESP	n/a	LTP275	ltpFR	1	2	-1	FAMILY	550	n/a	-1	n/a	n/a	n/a	n/a	n/a
3179430	RECOG_CONF	n/a	LTP275	ltpFR	1	2	-1	FAMILY	550	5	-1	n/a	n/a	n/a	n/a	n/a
3181135	RECOG_TARGET	n/a	LTP275	ltpFR	1	2	-1	BEAN	105	5	-1	n/a	n/a	n/a	n/a	n/a
3182040	RECOG_RESP	n/a	LTP275	ltpFR	1	2	-1	BEAN	105	n/a	-1	n/a	n/a	n/a	n/a	n/a
3182970	RECOG_CONF	n/a	LTP275	ltpFR	1	2	-1	BEAN	105	5	-1	n/a	n/a	n/a	n/a	n/a
3185029	RECOG_LURE	n/a	LTP275	ltpFR	1	2	n/a	CRACKER	398	4	n/a	n/a	n/a	n/a	n/a	n/a
3185790	RECOG_RESP	n/a	LTP275	ltpFR	1	2	n/a	CRACKER	398	n/a	n/a	n/a	n/a	n/a	n/a	n/a
3186580	RECOG_CONF	n/a	LTP275	ltpFR	1	2	n/a	CRACKER	398	4	n/a	n/a	n/a	n/a	n/a	n/a
3188540	RECOG_LURE	n/a	LTP275	ltpFR	1	2	n/a	GAZELLE	628	5	n/a	n/a	n/a	n/a	n/a	n/a
3189370	RECOG_RESP	n/a	LTP275	ltpFR	1	2	n/a	GAZELLE	628	n/a	n/a	n/a	n/a	n/a	n/a	n/a
3190130	RECOG_CONF	n/a	LTP275	ltpFR	1	2	n/a	GAZELLE	628	5	n/a	n/a	n/a	n/a	n/a	n/a
3192186	RECOG_TARGET	n/a	LTP275	ltpFR	1	2	0	MEADOW	881	5	1	n/a	n/a	n/a	n/a	n/a
3192935	RECOG_RESP	n/a	LTP275	ltpFR	1	2	0	MEADOW	881	n/a	1	n/a	n/a	n/a	n/a	n/a
3193830	RECOG_CONF	n/a	LTP275	ltpFR	1	2	0	MEADOW	881	5	1	n/a	n/a	n/a	n/a	n/a
3195629	RECOG_TARGET	n/a	LTP275	ltpFR	1	2	0	DOUGHNUT	490	3	0	n/a	n/a	n/a	n/a	n/a
3196300	RECOG_RESP	n/a	LTP275	ltpFR	1	2	0	DOUGHNUT	490	n/a	0	n/a	n/a	n/a	n/a	n/a
3197490	RECOG_CONF	n/a	LTP275	ltpFR	1	2	0	DOUGHNUT	490	3	0	n/a	n/a	n/a	n/a	n/a
3199292	RECOG_TARGET	n/a	LTP275	ltpFR	1	2	-1	EYELASH	546	5	-1	n/a	n/a	n/a	n/a	n/a
3200036	RECOG_RESP	n/a	LTP275	ltpFR	1	2	-1	EYELASH	546	n/a	-1	n/a	n/a	n/a	n/a	n/a
3201820	RECOG_CONF	n/a	LTP275	ltpFR	1	2	-1	EYELASH	546	5	-1	n/a	n/a	n/a	n/a	n/a
3203501	RECOG_TARGET	n/a	LTP275	ltpFR	1	2	-1	RAG	1160	5	-1	n/a	n/a	n/a	n/a	n/a
3204200	RECOG_RESP	n/a	LTP275	ltpFR	1	2	-1	RAG	1160	n/a	-1	n/a	n/a	n/a	n/a	n/a
3205480	RECOG_CONF	n/a	LTP275	ltpFR	1	2	-1	RAG	1160	5	-1	n/a	n/a	n/a	n/a	n/a
3218336	REC_START	n/a	LTP275	ltpFR	1	3	n/a	n/a	n/a	n/a	n/a	n/a	n/a	n/a	n/a	n/a
3218363	RECOG_TARGET	n/a	LTP275	ltpFR	1	3	1	BEVERAGE	123	1	0	n/a	n/a	n/a	n/a	n/a
3219941	RECOG_RESP	n/a	LTP275	ltpFR	1	3	1	BEVERAGE	123	n/a	0	n/a	n/a	n/a	n/a	n/a
3220956	RECOG_CONF	n/a	LTP275	ltpFR	1	3	1	BEVERAGE	123	1	0	n/a	n/a	n/a	n/a	n/a
3222722	RECOG_TARGET	n/a	LTP275	ltpFR	1	3	1	BEE	112	4	1	n/a	n/a	n/a	n/a	n/a
3223556	RECOG_RESP	n/a	LTP275	ltpFR	1	3	1	BEE	112	n/a	1	n/a	n/a	n/a	n/a	n/a
3224436	RECOG_CONF	n/a	LTP275	ltpFR	1	3	1	BEE	112	4	1	n/a	n/a	n/a	n/a	n/a
3226268	RECOG_TARGET	n/a	LTP275	ltpFR	1	3	-1	FRIEND	606	5	-1	n/a	n/a	n/a	n/a	n/a
3226981	RECOG_RESP	n/a	LTP275	ltpFR	1	3	-1	FRIEND	606	n/a	-1	n/a	n/a	n/a	n/a	n/a
3227856	RECOG_CONF	n/a	LTP275	ltpFR	1	3	-1	FRIEND	606	5	-1	n/a	n/a	n/a	n/a	n/a
3229745	RECOG_TARGET	n/a	LTP275	ltpFR	1	3	0	SWAMP	1416	1	1	n/a	n/a	n/a	n/a	n/a
3230461	RECOG_RESP	n/a	LTP275	ltpFR	1	3	0	SWAMP	1416	n/a	1	n/a	n/a	n/a	n/a	n/a
3232446	RECOG_CONF	n/a	LTP275	ltpFR	1	3	0	SWAMP	1416	1	1	n/a	n/a	n/a	n/a	n/a
3234105	RECOG_TARGET	n/a	LTP275	ltpFR	1	3	-1	SNEAKER	1334	2	-1	n/a	n/a	n/a	n/a	n/a
3234841	RECOG_RESP	n/a	LTP275	ltpFR	1	3	-1	SNEAKER	1334	n/a	-1	n/a	n/a	n/a	n/a	n/a
3236046	RECOG_CONF	n/a	LTP275	ltpFR	1	3	-1	SNEAKER	1334	2	-1	n/a	n/a	n/a	n/a	n/a
3237950	RECOG_LURE	n/a	LTP275	ltpFR	1	3	n/a	ADOLESCENT	7	3	n/a	n/a	n/a	n/a	n/a	n/a
3238816	RECOG_RESP	n/a	LTP275	ltpFR	1	3	n/a	ADOLESCENT	7	n/a	n/a	n/a	n/a	n/a	n/a	n/a
3239906	RECOG_CONF	n/a	LTP275	ltpFR	1	3	n/a	ADOLESCENT	7	3	n/a	n/a	n/a	n/a	n/a	n/a
3241794	RECOG_TARGET	n/a	LTP275	ltpFR	1	3	0	ANT	25	1	0	n/a	n/a	n/a	n/a	n/a
3242926	RECOG_RESP	n/a	LTP275	ltpFR	1	3	0	ANT	25	n/a	0	n/a	n/a	n/a	n/a	n/a
3243986	RECOG_CONF	n/a	LTP275	ltpFR	1	3	0	ANT	25	1	0	n/a	n/a	n/a	n/a	n/a
3245721	RECOG_TARGET	n/a	LTP275	ltpFR	1	3	1	PANTHER	1009	4	1	n/a	n/a	n/a	n/a	n/a
3246461	RECOG_RESP	n/a	LTP275	ltpFR	1	3	1	PANTHER	1009	n/a	1	n/a	n/a	n/a	n/a	n/a
3247806	RECOG_CONF	n/a	LTP275	ltpFR	1	3	1	PANTHER	1009	4	1	n/a	n/a	n/a	n/a	n/a
3249467	RECOG_TARGET	n/a	LTP275	ltpFR	1	3	1	CRAB	397	1	1	n/a	n/a	n/a	n/a	n/a
3251671	RECOG_RESP	n/a	LTP275	ltpFR	1	3	1	CRAB	397	n/a	1	n/a	n/a	n/a	n/a	n/a
3252956	RECOG_CONF	n/a	LTP275	ltpFR	1	3	1	CRAB	397	1	1	n/a	n/a	n/a	n/a	n/a
3254724	RECOG_TARGET	n/a	LTP275	ltpFR	1	3	1	PUMPKIN	1142	4	1	n/a	n/a	n/a	n/a	n/a
3255771	RECOG_RESP	n/a	LTP275	ltpFR	1	3	1	PUMPKIN	1142	n/a	1	n/a	n/a	n/a	n/a	n/a
3256626	RECOG_CONF	n/a	LTP275	ltpFR	1	3	1	PUMPKIN	1142	4	1	n/a	n/a	n/a	n/a	n/a
3258535	RECOG_TARGET	n/a	LTP275	ltpFR	1	3	-1	HEART	697	5	-1	n/a	n/a	n/a	n/a	n/a
3259161	RECOG_RESP	n/a	LTP275	ltpFR	1	3	-1	HEART	697	n/a	-1	n/a	n/a	n/a	n/a	n/a
3260026	RECOG_CONF	n/a	LTP275	ltpFR	1	3	-1	HEART	697	5	-1	n/a	n/a	n/a	n/a	n/a
3261947	RECOG_LURE	n/a	LTP275	ltpFR	1	3	n/a	SURF	1412	3	n/a	n/a	n/a	n/a	n/a	n/a
3262741	RECOG_RESP	n/a	LTP275	ltpFR	1	3	n/a	SURF	1412	n/a	n/a	n/a	n/a	n/a	n/a	n/a
3263686	RECOG_CONF	n/a	LTP275	ltpFR	1	3	n/a	SURF	1412	3	n/a	n/a	n/a	n/a	n/a	n/a
3265360	RECOG_TARGET	n/a	LTP275	ltpFR	1	3	1	MOON	914	5	0	n/a	n/a	n/a	n/a	n/a
3266161	RECOG_RESP	n/a	LTP275	ltpFR	1	3	1	MOON	914	n/a	0	n/a	n/a	n/a	n/a	n/a
3267116	RECOG_CONF	n/a	LTP275	ltpFR	1	3	1	MOON	914	5	0	n/a	n/a	n/a	n/a	n/a
3268953	RECOG_TARGET	n/a	LTP275	ltpFR	1	3	0	KETCHUP	771	2	1	n/a	n/a	n/a	n/a	n/a
3271711	RECOG_RESP	n/a	LTP275	ltpFR	1	3	0	KETCHUP	771	n/a	1	n/a	n/a	n/a	n/a	n/a
3272716	RECOG_CONF	n/a	LTP275	ltpFR	1	3	0	KETCHUP	771	2	1	n/a	n/a	n/a	n/a	n/a
3274545	RECOG_TARGET	n/a	LTP275	ltpFR	1	3	0	JUG	762	4	1	n/a	n/a	n/a	n/a	n/a
3275326	RECOG_RESP	n/a	LTP275	ltpFR	1	3	0	JUG	762	n/a	1	n/a	n/a	n/a	n/a	n/a
3276116	RECOG_CONF	n/a	LTP275	ltpFR	1	3	0	JUG	762	4	1	n/a	n/a	n/a	n/a	n/a
3278073	RECOG_LURE	n/a	LTP275	ltpFR	1	3	n/a	DOUGH	489	3	n/a	n/a	n/a	n/a	n/a	n/a
3280226	RECOG_RESP	n/a	LTP275	ltpFR	1	3	n/a	DOUGH	489	n/a	n/a	n/a	n/a	n/a	n/a	n/a
3281306	RECOG_CONF	n/a	LTP275	ltpFR	1	3	n/a	DOUGH	489	3	n/a	n/a	n/a	n/a	n/a	n/a
3283099	RECOG_TARGET	n/a	LTP275	ltpFR	1	3	1	IGLOO	734	5	0	n/a	n/a	n/a	n/a	n/a
3283766	RECOG_RESP	n/a	LTP275	ltpFR	1	3	1	IGLOO	734	n/a	0	n/a	n/a	n/a	n/a	n/a
3284916	RECOG_CONF	n/a	LTP275	ltpFR	1	3	1	IGLOO	734	5	0	n/a	n/a	n/a	n/a	n/a
3286560	RECOG_LURE	n/a	LTP275	ltpFR	1	3	n/a	TOOTHBRUSH	1482	4	n/a	n/a	n/a	n/a	n/a	n/a
3287331	RECOG_RESP	n/a	LTP275	ltpFR	1	3	n/a	TOOTHBRUSH	1482	n/a	n/a	n/a	n/a	n/a	n/a	n/a
3288206	RECOG_CONF	n/a	LTP275	ltpFR	1	3	n/a	TOOTHBRUSH	1482	4	n/a	n/a	n/a	n/a	n/a	n/a
3290005	RECOG_TARGET	n/a	LTP275	ltpFR	1	3	0	BOULEVARD	156	5	1	n/a	n/a	n/a	n/a	n/a
3290831	RECOG_RESP	n/a	LTP275	ltpFR	1	3	0	BOULEVARD	156	n/a	1	n/a	n/a	n/a	n/a	n/a
3291716	RECOG_CONF	n/a	LTP275	ltpFR	1	3	0	BOULEVARD	156	5	1	n/a	n/a	n/a	n/a	n/a
3293451	RECOG_LURE	n/a	LTP275	ltpFR	1	3	n/a	SPIDER	1351	4	n/a	n/a	n/a	n/a	n/a	n/a
3294286	RECOG_RESP	n/a	LTP275	ltpFR	1	3	n/a	SPIDER	1351	n/a	n/a	n/a	n/a	n/a	n/a	n/a
3295236	RECOG_CONF	n/a	LTP275	ltpFR	1	3	n/a	SPIDER	1351	4	n/a	n/a	n/a	n/a	n/a	n/a
3302268	REC_START	n/a	LTP275	ltpFR	1	4	n/a	n/a	n/a	n/a	n/a	n/a	n/a	n/a	n/a	n/a
3302304	RECOG_TARGET	n/a	LTP275	ltpFR	1	4	-1	WRENCH	1625	4	-1	n/a	n/a	n/a	n/a	n/a
3303448	RECOG_RESP	n/a	LTP275	ltpFR	1	4	-1	WRENCH	1625	n/a	-1	n/a	n/a	n/a	n/a	n/a
3304538	RECOG_CONF	n/a	LTP275	ltpFR	1	4	-1	WRENCH	1625	4	-1	n/a	n/a	n/a	n/a	n/a
3306298	RECOG_LURE	n/a	LTP275	ltpFR	1	4	n/a	PERISCOPE	1050	5	n/a	n/a	n/a	n/a	n/a	n/a
3307683	RECOG_RESP	n/a	LTP275	ltpFR	1	4	n/a	PERISCOPE	1050	n/a	n/a	n/a	n/a	n/a	n/a	n/a
3308728	RECOG_CONF	n/a	LTP275	ltpFR	1	4	n/a	PERISCOPE	1050	5	n/a	n/a	n/a	n/a	n/a	n/a
3310558	RECOG_LURE	n/a	LTP275	ltpFR	1	4	n/a	SHORE	1291	1	n/a	n/a	n/a	n/a	n/a	n/a
3311818	RECOG_RESP	n/a	LTP275	ltpFR	1	4	n/a	SHORE	1291	n/a	n/a	n/a	n/a	n/a	n/a	n/a
3312808	RECOG_CONF	n/a	LTP275	ltpFR	1	4	n/a	SHORE	1291	1	n/a	n/a	n/a	n/a	n/a	n/a
3314652	RECOG_LURE	n/a	LTP275	ltpFR	1	4	n/a	JET	756	2	n/a	n/a	n/a	n/a	n/a	n/a
3315458	RECOG_RESP	n/a	LTP275	ltpFR	1	4	n/a	JET	756	n/a	n/a	n/a	n/a	n/a	n/a	n/a
3316438	RECOG_CONF	n/a	LTP275	ltpFR	1	4	n/a	JET	756	2	n/a	n/a	n/a	n/a	n/a	n/a
3318347	RECOG_TARGET	n/a	LTP275	ltpFR	1	4	-1	OFFICE	972	3	-1	n/a	n/a	n/a	n/a	n/a
3319063	RECOG_RESP	n/a	LTP275	ltpFR	1	4	-1	OFFICE	972	n/a	-1	n/a	n/a	n/a	n/a	n/a
3320978	RECOG_CONF	n/a	LTP275	ltpFR	1	4	-1	OFFICE	972	3	-1	n/a	n/a	n/a	n/a	n/a
3322740	RECOG_LURE	n/a	LTP275	ltpFR	1	4	n/a	CALCULATOR	220	2	n/a	n/a	n/a	n/a	n/a	n/a
3323773	RECOG_RESP	n/a	LTP275	ltpFR	1	4	n/a	CALCULATOR	220	n/a	n/a	n/a	n/a	n/a	n/a	n/a
3324768	RECOG_CONF	n/a	LTP275	ltpFR	1	4	n/a	CALCULATOR	220	2	n/a	n/a	n/a	n/a	n/a	n/a
3326584	RECOG_LURE	n/a	LTP275	ltpFR	1	4	n/a	NECKLACE	940	2	n/a	n/a	n/a	n/a	n/a	n/a
3327373	RECOG_RESP	n/a	LTP275	ltpFR	1	4	n/a	NECKLACE	940	n/a	n/a	n/a	n/a	n/a	n/a	n/a
3328318	RECOG_CONF	n/a	LTP275	ltpFR	1	4	n/a	NECKLACE	940	2	n/a	n/a	n/a	n/a	n/a	n/a
3330146	RECOG_TARGET	n/a	LTP275	ltpFR	1	4	1	LAWYER	806	1	1	n/a	n/a	n/a	n/a	n/a
3330818	RECOG_RESP	n/a	LTP275	ltpFR	1	4	1	LAWYER	806	n/a	1	n/a	n/a	n/a	n/a	n/a
3333373	RECOG_CONF	n/a	LTP275	ltpFR	1	4	1	LAWYER	806	1	1	n/a	n/a	n/a	n/a	n/a
3335021	RECOG_TARGET	n/a	LTP275	ltpFR	1	4	0	HAMMOCK	681	2	1	n/a	n/a	n/a	n/a	n/a
3336748	RECOG_RESP	n/a	LTP275	ltpFR	1	4	0	HAMMOCK	681	n/a	1	n/a	n/a	n/a	n/a	n/a
3338018	RECOG_CONF	n/a	LTP275	ltpFR	1	4	0	HAMMOCK	681	2	1	n/a	n/a	n/a	n/a	n/a
3339914	RECOG_TARGET	n/a	LTP275	ltpFR	1	4	0	GROUND	666	5	1	n/a	n/a	n/a	n/a	n/a
3340873	RECOG_RESP	n/a	LTP275	ltpFR	1	4	0	GROUND	666	n/a	1	n/a	n/a	n/a	n/a	n/a
3342078	RECOG_CONF	n/a	LTP275	ltpFR	1	4	0	GROUND	666	5	1	n/a	n/a	n/a	n/a	n/a
3343891	RECOG_TARGET	n/a	LTP275	ltpFR	1	4	-1	WAGON	1578	4	-1	n/a	n/a	n/a	n/a	n/a
3344933	RECOG_RESP	n/a	LTP275	ltpFR	1	4	-1	WAGON	1578	n/a	-1	n/a	n/a	n/a	n/a	n/a
3345908	RECOG_CONF	n/a	LTP275	ltpFR	1	4	-1	WAGON	1578	4	-1	n/a	n/a	n/a	n/a	n/a
3347935	RECOG_TARGET	n/a	LTP275	ltpFR	1	4	-1	ALLEY	15	5	-1	n/a	n/a	n/a	n/a	n/a
3348688	RECOG_RESP	n/a	LTP275	ltpFR	1	4	-1	ALLEY	15	n/a	-1	n/a	n/a	n/a	n/a	n/a
3349408	RECOG_CONF	n/a	LTP275	ltpFR	1	4	-1	ALLEY	15	5	-1	n/a	n/a	n/a	n/a	n/a
3351680	RECOG_TARGET	n/a	LTP275	ltpFR	1	4	1	VELVET	1555	5	0	n/a	n/a	n/a	n/a	n/a
3352338	RECOG_RESP	n/a	LTP275	ltpFR	1	4	1	VELVET	1555	n/a	0	n/a	n/a	n/a	n/a	n/a
3353318	RECOG_CONF	n/a	LTP275	ltpFR	1	4	1	VELVET	1555	5	0	n/a	n/a	n/a	n/a	n/a
3355259	RECOG_TARGET	n/a	LTP275	ltpFR	1	4	0	COMET	353	1	1	n/a	n/a	n/a	n/a	n/a
3356958	RECOG_RESP	n/a	LTP275	ltpFR	1	4	0	COMET	353	n/a	1	n/a	n/a	n/a	n/a	n/a
3357848	RECOG_CONF	n/a	LTP275	ltpFR	1	4	0	COMET	353	1	1	n/a	n/a	n/a	n/a	n/a
3359751	RECOG_TARGET	n/a	LTP275	ltpFR	1	4	0	CROCODILE	411	3	0	n/a	n/a	n/a	n/a	n/a
3360763	RECOG_RESP	n/a	LTP275	ltpFR	1	4	0	CROCODILE	411	n/a	0	n/a	n/a	n/a	n/a	n/a
3361988	RECOG_CONF	n/a	LTP275	ltpFR	1	4	0	CROCODILE	411	3	0	n/a	n/a	n/a	n/a	n/a
3363662	RECOG_LURE	n/a	LTP275	ltpFR	1	4	n/a	COTTON	385	4	n/a	n/a	n/a	n/a	n/a	n/a
3364478	RECOG_RESP	n/a	LTP275	ltpFR	1	4	n/a	COTTON	385	n/a	n/a	n/a	n/a	n/a	n/a	n/a
3365268	RECOG_CONF	n/a	LTP275	ltpFR	1	4	n/a	COTTON	385	4	n/a	n/a	n/a	n/a	n/a	n/a
3367291	RECOG_TARGET	n/a	LTP275	ltpFR	1	4	0	CAT	257	4	0	n/a	n/a	n/a	n/a	n/a
3368338	RECOG_RESP	n/a	LTP275	ltpFR	1	4	0	CAT	257	n/a	0	n/a	n/a	n/a	n/a	n/a
3369048	RECOG_CONF	n/a	LTP275	ltpFR	1	4	0	CAT	257	4	0	n/a	n/a	n/a	n/a	n/a
3371218	RECOG_TARGET	n/a	LTP275	ltpFR	1	4	1	BEAST	108	3	1	n/a	n/a	n/a	n/a	n/a
3371948	RECOG_RESP	n/a	LTP275	ltpFR	1	4	1	BEAST	108	n/a	1	n/a	n/a	n/a	n/a	n/a
3372858	RECOG_CONF	n/a	LTP275	ltpFR	1	4	1	BEAST	108	3	1	n/a	n/a	n/a	n/a	n/a
3374529	RECOG_TARGET	n/a	LTP275	ltpFR	1	4	0	CLERK	321	5	1	n/a	n/a	n/a	n/a	n/a
3375203	RECOG_RESP	n/a	LTP275	ltpFR	1	4	0	CLERK	321	n/a	1	n/a	n/a	n/a	n/a	n/a
3375928	RECOG_CONF	n/a	LTP275	ltpFR	1	4	0	CLERK	321	5	1	n/a	n/a	n/a	n/a	n/a
3377841	RECOG_TARGET	n/a	LTP275	ltpFR	1	4	1	DORM	488	4	0	n/a	n/a	n/a	n/a	n/a
3378753	RECOG_RESP	n/a	LTP275	ltpFR	1	4	1	DORM	488	n/a	0	n/a	n/a	n/a	n/a	n/a
3379618	RECOG_CONF	n/a	LTP275	ltpFR	1	4	1	DORM	488	4	0	n/a	n/a	n/a	n/a	n/a
3889061	REC_START	n/a	LTP275	ltpFR	1	5	n/a	n/a	n/a	n/a	n/a	n/a	n/a	n/a	n/a	n/a
3889094	RECOG_TARGET	n/a	LTP275	ltpFR	1	5	0	SCAPEGOAT	1244	3	1	n/a	n/a	n/a	n/a	n/a
3890956	RECOG_RESP	n/a	LTP275	ltpFR	1	5	0	SCAPEGOAT	1244	n/a	1	n/a	n/a	n/a	n/a	n/a
3892831	RECOG_CONF	n/a	LTP275	ltpFR	1	5	0	SCAPEGOAT	1244	3	1	n/a	n/a	n/a	n/a	n/a
3894652	RECOG_TARGET	n/a	LTP275	ltpFR	1	5	1	CANOE	233	1	0	n/a	n/a	n/a	n/a	n/a
3895906	RECOG_RESP	n/a	LTP275	ltpFR	1	5	1	CANOE	233	n/a	0	n/a	n/a	n/a	n/a	n/a
3897481	RECOG_CONF	n/a	LTP275	ltpFR	1	5	1	CANOE	233	1	0	n/a	n/a	n/a	n/a	n/a
3899196	RECOG_TARGET	n/a	LTP275	ltpFR	1	5	1	FLOWER	584	5	1	n/a	n/a	n/a	n/a	n/a
3899881	RECOG_RESP	n/a	LTP275	ltpFR	1	5	1	FLOWER	584	n/a	1	n/a	n/a	n/a	n/a	n/a
3901071	RECOG_CONF	n/a	LTP275	ltpFR	1	5	1	FLOWER	584	5	1	n/a	n/a	n/a	n/a	n/a
3902940	RECOG_TARGET	n/a	LTP275	ltpFR	1	5	0	SANDPAPER	1231	5	0	n/a	n/a	n/a	n/a	n/a
3903781	RECOG_RESP	n/a	LTP275	ltpFR	1	5	0	SANDPAPER	1231	n/a	0	n/a	n/a	n/a	n/a	n/a
3905401	RECOG_CONF	n/a	LTP275	ltpFR	1	5	0	SANDPAPER	1231	5	0	n/a	n/a	n/a	n/a	n/a
3907566	RECOG_TARGET	n/a	LTP275	ltpFR	1	5	0	WALLET	1583	5	0	n/a	n/a	n/a	n/a	n/a
3908421	RECOG_RESP	n/a	LTP275	ltpFR	1	5	0	WALLET	1583	n/a	0	n/a	n/a	n/a	n/a	n/a
3909541	RECOG_CONF	n/a	LTP275	ltpFR	1	5	0	WALLET	1583	5	0	n/a	n/a	n/a	n/a	n/a
3911510	RECOG_TARGET	n/a	LTP275	ltpFR	1	5	1	ZUCCHINI	1638	2	1	n/a	n/a	n/a	n/a	n/a
3912496	RECOG_RESP	n/a	LTP275	ltpFR	1	5	1	ZUCCHINI	1638	n/a	1	n/a	n/a	n/a	n/a	n/a
3913571	RECOG_CONF	n/a	LTP275	ltpFR	1	5	1	ZUCCHINI	1638	2	1	n/a	n/a	n/a	n/a	n/a
3915504	RECOG_TARGET	n/a	LTP275	ltpFR	1	5	1	TAXI	1438	1	1	n/a	n/a	n/a	n/a	n/a
3917021	RECOG_RESP	n/a	LTP275	ltpFR	1	5	1	TAXI	1438	n/a	1	n/a	n/a	n/a	n/a	n/a
3918101	RECOG_CONF	n/a	LTP275	ltpFR	1	5	1	TAXI	1438	1	1	n/a	n/a	n/a	n/a	n/a
3919848	RECOG_TARGET	n/a	LTP275	ltpFR	1	5	-1	PEDAL	1037	3	-1	n/a	n/a	n/a	n/a	n/a
3920986	RECOG_RESP	n/a	LTP275	ltpFR	1	5	-1	PEDAL	1037	n/a	-1	n/a	n/a	n/a	n/a	n/a
3922071	RECOG_CONF	n/a	LTP275	ltpFR	1	5	-1	PEDAL	1037	3	-1	n/a	n/a	n/a	n/a	n/a
3923858	RECOG_LURE	n/a	LTP275	ltpFR	1	5	n/a	QUILT	1151	2	n/a	n/a	n/a	n/a	n/a	n/a
3924886	RECOG_RESP	n/a	LTP275	ltpFR	1	5	n/a	QUILT	1151	n/a	n/a	n/a	n/a	n/a	n/a	n/a
3925851	RECOG_CONF	n/a	LTP275	ltpFR	1	5	n/a	QUILT	1151	2	n/a	n/a	n/a	n/a	n/a	n/a
3927636	RECOG_TARGET	n/a	LTP275	ltpFR	1	5	1	DUSTPAN	509	2	0	n/a	n/a	n/a	n/a	n/a
3930741	RECOG_RESP	n/a	LTP275	ltpFR	1	5	1	DUSTPAN	509	n/a	0	n/a	n/a	n/a	n/a	n/a
3931741	RECOG_CONF	n/a	LTP275	ltpFR	1	5	1	DUSTPAN	509	2	0	n/a	n/a	n/a	n/a	n/a
3933494	RECOG_TARGET	n/a	LTP275	ltpFR	1	5	0	SKILLET	1317	3	1	n/a	n/a	n/a	n/a	n/a
3934231	RECOG_RESP	n/a	LTP275	ltpFR	1	5	0	SKILLET	1317	n/a	1	n/a	n/a	n/a	n/a	n/a
3935321	RECOG_CONF	n/a	LTP275	ltpFR	1	5	0	SKILLET	1317	3	1	n/a	n/a	n/a	n/a	n/a
3937022	RECOG_TARGET	n/a	LTP275	ltpFR	1	5	0	SKETCH	1315	5	0	n/a	n/a	n/a	n/a	n/a
3937971	RECOG_RESP	n/a	LTP275	ltpFR	1	5	0	SKETCH	1315	n/a	0	n/a	n/a	n/a	n/a	n/a
3938851	RECOG_CONF	n/a	LTP275	ltpFR	1	5	0	SKETCH	1315	5	0	n/a	n/a	n/a	n/a	n/a
3940733	RECOG_TARGET	n/a	LTP275	ltpFR	1	5	0	OATS	968	2	0	n/a	n/a	n/a	n/a	n/a
3941361	RECOG_RESP	n/a	LTP275	ltpFR	1	5	0	OATS	968	n/a	0	n/a	n/a	n/a	n/a	n/a
3942611	RECOG_CONF	n/a	LTP275	ltpFR	1	5	0	OATS	968	2	0	n/a	n/a	n/a	n/a	n/a
3944212	RECOG_LURE	n/a	LTP275	ltpFR	1	5	n/a	DRUG	501	2	n/a	n/a	n/a	n/a	n/a	n/a
3945641	RECOG_RESP	n/a	LTP275	ltpFR	1	5	n/a	DRUG	501	n/a	n/a	n/a	n/a	n/a	n/a	n/a
3946561	RECOG_CONF	n/a	LTP275	ltpFR	1	5	n/a	DRUG	501	2	n/a	n/a	n/a	n/a	n/a	n/a
