onset	duration	trial_type	sample	stim_file	subject	experiment	session	trial	item_name	item_num	list	answer	test_x	test_y	test_z
251.46923828125	n/a	SESS_START	515009	n/a	LTP372	ltpFR2	3	n/a	n/a	n/a	n/a	n/a	0	0	0
279.9912109375	n/a	START	573422	n/a	LTP372	ltpFR2	3	n/a	n/a	n/a	-1	n/a	n/a	n/a	n/a
280.02099609375	n/a	PROB	573483	n/a	LTP372	ltpFR2	3	n/a	n/a	n/a	-1	13	3	7	3
281.38720703125	n/a	PROB	576281	n/a	LTP372	ltpFR2	3	n/a	n/a	n/a	-1	16	6	5	5
282.55419921875	n/a	PROB	578671	n/a	LTP372	ltpFR2	3	n/a	n/a	n/a	-1	6	4	1	1
283.7041015625	n/a	PROB	581026	n/a	LTP372	ltpFR2	3	n/a	n/a	n/a	-1	21	8	4	9
285.15185546875	n/a	PROB	583991	n/a	LTP372	ltpFR2	3	n/a	n/a	n/a	-1	16	6	5	5
286.31787109375	n/a	PROB	586379	n/a	LTP372	ltpFR2	3	n/a	n/a	n/a	-1	8	5	2	1
287.45166015625	n/a	PROB	588701	n/a	LTP372	ltpFR2	3	n/a	n/a	n/a	-1	18	6	8	4
288.833984375	n/a	PROB	591532	n/a	LTP372	ltpFR2	3	n/a	n/a	n/a	-1	19	9	4	6
290.03271484375	n/a	PROB	593987	n/a	LTP372	ltpFR2	3	n/a	n/a	n/a	-1	16	7	5	4
291.265625	n/a	STOP	596512	n/a	LTP372	ltpFR2	3	n/a	n/a	n/a	-1	n/a	n/a	n/a	n/a
345.14013671875	n/a	DISTRACTOR	706847	n/a	LTP372	ltpFR2	3	1	n/a	n/a	n/a	n/a	0	0	0
345.14013671875	n/a	START	706847	n/a	LTP372	ltpFR2	3	n/a	n/a	n/a	1	n/a	n/a	n/a	n/a
345.15576171875	n/a	PROB	706879	n/a	LTP372	ltpFR2	3	n/a	n/a	n/a	1	11	6	2	3
346.8720703125	n/a	PROB	710394	n/a	LTP372	ltpFR2	3	n/a	n/a	n/a	1	8	4	2	2
348.5888671875	n/a	PROB	713910	n/a	LTP372	ltpFR2	3	n/a	n/a	n/a	1	12	2	4	6
349.705078125	n/a	PROB	716196	n/a	LTP372	ltpFR2	3	n/a	n/a	n/a	1	11	1	1	9
350.8037109375	n/a	PROB	718446	n/a	LTP372	ltpFR2	3	n/a	n/a	n/a	1	15	1	7	7
351.98681640625	n/a	PROB	720869	n/a	LTP372	ltpFR2	3	n/a	n/a	n/a	1	16	1	6	9
353.0859375	n/a	PROB	723120	n/a	LTP372	ltpFR2	3	n/a	n/a	n/a	1	12	1	4	7
354.15185546875	n/a	PROB	725303	n/a	LTP372	ltpFR2	3	n/a	n/a	n/a	1	16	4	5	7
355.41845703125	n/a	PROB	727897	n/a	LTP372	ltpFR2	3	n/a	n/a	n/a	1	16	2	5	9
356.58544921875	n/a	PROB	730287	n/a	LTP372	ltpFR2	3	n/a	n/a	n/a	1	8	1	5	2
357.61865234375	n/a	PROB	732403	n/a	LTP372	ltpFR2	3	n/a	n/a	n/a	1	11	2	5	4
358.849609375	n/a	PROB	734924	n/a	LTP372	ltpFR2	3	n/a	n/a	n/a	1	13	4	1	8
360.41552734375	n/a	PROB	738131	n/a	LTP372	ltpFR2	3	n/a	n/a	n/a	1	14	6	7	1
361.63232421875	n/a	PROB	740623	n/a	LTP372	ltpFR2	3	n/a	n/a	n/a	1	12	6	4	2
362.79736328125	n/a	PROB	743009	n/a	LTP372	ltpFR2	3	n/a	n/a	n/a	1	4	1	2	1
364.13037109375	n/a	PROB	745739	n/a	LTP372	ltpFR2	3	n/a	n/a	n/a	1	18	2	8	8
365.26318359375	n/a	PROB	748059	n/a	LTP372	ltpFR2	3	n/a	n/a	n/a	1	13	4	7	2
366.49755859375	n/a	PROB	750587	n/a	LTP372	ltpFR2	3	n/a	n/a	n/a	1	18	3	9	6
367.6103515625	n/a	STOP	752866	n/a	LTP372	ltpFR2	3	n/a	n/a	n/a	1	n/a	n/a	n/a	n/a
370.0283203125	n/a	WORD	757818	wordpools/wasnorm_wordpool_576.txt	LTP372	ltpFR2	3	1	PASTRY	1022	n/a	n/a	0	0	0
372.52734375	n/a	WORD	762936	wordpools/wasnorm_wordpool_576.txt	LTP372	ltpFR2	3	1	TRIBE	1505	n/a	n/a	0	0	0
375.1748046875	n/a	WORD	768358	wordpools/wasnorm_wordpool_576.txt	LTP372	ltpFR2	3	1	STUDENT	1395	n/a	n/a	0	0	0
377.658203125	n/a	WORD	773444	wordpools/wasnorm_wordpool_576.txt	LTP372	ltpFR2	3	1	SKILLET	1317	n/a	n/a	0	0	0
380.18994140625	n/a	WORD	778629	wordpools/wasnorm_wordpool_576.txt	LTP372	ltpFR2	3	1	JUNGLE	764	n/a	n/a	0	0	0
382.921875	n/a	WORD	784224	wordpools/wasnorm_wordpool_576.txt	LTP372	ltpFR2	3	1	LION	827	n/a	n/a	0	0	0
385.4716796875	n/a	WORD	789446	wordpools/wasnorm_wordpool_576.txt	LTP372	ltpFR2	3	1	ACTRESS	6	n/a	n/a	0	0	0
388.23583984375	n/a	WORD	795107	wordpools/wasnorm_wordpool_576.txt	LTP372	ltpFR2	3	1	BASEMENT	94	n/a	n/a	0	0	0
391.00048828125	n/a	WORD	800769	wordpools/wasnorm_wordpool_576.txt	LTP372	ltpFR2	3	1	JEANS	752	n/a	n/a	0	0	0
393.79931640625	n/a	WORD	806501	wordpools/wasnorm_wordpool_576.txt	LTP372	ltpFR2	3	1	POCKET	1093	n/a	n/a	0	0	0
396.41552734375	n/a	WORD	811859	wordpools/wasnorm_wordpool_576.txt	LTP372	ltpFR2	3	1	JURY	766	n/a	n/a	0	0	0
399.080078125	n/a	WORD	817316	wordpools/wasnorm_wordpool_576.txt	LTP372	ltpFR2	3	1	JUDGE	761	n/a	n/a	0	0	0
401.59716796875	n/a	WORD	822471	wordpools/wasnorm_wordpool_576.txt	LTP372	ltpFR2	3	1	FRANCE	601	n/a	n/a	0	0	0
404.2939453125	n/a	WORD	827994	wordpools/wasnorm_wordpool_576.txt	LTP372	ltpFR2	3	1	EYELASH	546	n/a	n/a	0	0	0
406.79296875	n/a	WORD	833112	wordpools/wasnorm_wordpool_576.txt	LTP372	ltpFR2	3	1	ICING	732	n/a	n/a	0	0	0
409.4091796875	n/a	WORD	838470	wordpools/wasnorm_wordpool_576.txt	LTP372	ltpFR2	3	1	ORANGE	980	n/a	n/a	0	0	0
411.89111328125	n/a	WORD	843553	wordpools/wasnorm_wordpool_576.txt	LTP372	ltpFR2	3	1	CRITIC	410	n/a	n/a	0	0	0
414.52392578125	n/a	WORD	848945	wordpools/wasnorm_wordpool_576.txt	LTP372	ltpFR2	3	1	PICTURE	1061	n/a	n/a	0	0	0
417.0546875	n/a	WORD	854128	wordpools/wasnorm_wordpool_576.txt	LTP372	ltpFR2	3	1	FIREPLACE	570	n/a	n/a	0	0	0
419.521484375	n/a	WORD	859180	wordpools/wasnorm_wordpool_576.txt	LTP372	ltpFR2	3	1	ROCKET	1202	n/a	n/a	0	0	0
422.16943359375	n/a	WORD	864603	wordpools/wasnorm_wordpool_576.txt	LTP372	ltpFR2	3	1	PILOT	1070	n/a	n/a	0	0	0
424.65234375	n/a	WORD	869688	wordpools/wasnorm_wordpool_576.txt	LTP372	ltpFR2	3	1	BLACKBOARD	133	n/a	n/a	0	0	0
427.283203125	n/a	WORD	875076	wordpools/wasnorm_wordpool_576.txt	LTP372	ltpFR2	3	1	SHORTCAKE	1292	n/a	n/a	0	0	0
430.09814453125	n/a	WORD	880841	wordpools/wasnorm_wordpool_576.txt	LTP372	ltpFR2	3	1	YOLK	1633	n/a	n/a	0	0	0
431.71630859375	n/a	START	884155	n/a	LTP372	ltpFR2	3	n/a	n/a	n/a	2	n/a	n/a	n/a	n/a
432.8984375	n/a	DISTRACTOR	886576	n/a	LTP372	ltpFR2	3	1	n/a	n/a	n/a	n/a	0	0	0
432.9140625	n/a	PROB	886608	n/a	LTP372	ltpFR2	3	n/a	n/a	n/a	2	14	7	1	6
434.79638671875	n/a	PROB	890463	n/a	LTP372	ltpFR2	3	n/a	n/a	n/a	2	19	3	7	9
436.31201171875	n/a	PROB	893567	n/a	LTP372	ltpFR2	3	n/a	n/a	n/a	2	7	3	1	3
437.49609375	n/a	PROB	895992	n/a	LTP372	ltpFR2	3	n/a	n/a	n/a	2	9	2	4	3
438.72900390625	n/a	PROB	898517	n/a	LTP372	ltpFR2	3	n/a	n/a	n/a	2	7	1	3	3
440.126953125	n/a	PROB	901380	n/a	LTP372	ltpFR2	3	n/a	n/a	n/a	2	13	1	7	5
441.3427734375	n/a	PROB	903870	n/a	LTP372	ltpFR2	3	n/a	n/a	n/a	2	20	5	6	9
442.79296875	n/a	PROB	906840	n/a	LTP372	ltpFR2	3	n/a	n/a	n/a	2	15	2	4	9
444.0087890625	n/a	PROB	909330	n/a	LTP372	ltpFR2	3	n/a	n/a	n/a	2	21	9	5	7
445.2578125	n/a	PROB	911888	n/a	LTP372	ltpFR2	3	n/a	n/a	n/a	2	16	9	4	3
446.423828125	n/a	PROB	914276	n/a	LTP372	ltpFR2	3	n/a	n/a	n/a	2	8	3	4	1
447.70751953125	n/a	PROB	916905	n/a	LTP372	ltpFR2	3	n/a	n/a	n/a	2	13	3	3	7
448.8896484375	n/a	PROB	919326	n/a	LTP372	ltpFR2	3	n/a	n/a	n/a	2	12	8	3	1
450.5234375	n/a	PROB	922672	n/a	LTP372	ltpFR2	3	n/a	n/a	n/a	2	17	6	5	6
451.888671875	n/a	PROB	925468	n/a	LTP372	ltpFR2	3	n/a	n/a	n/a	2	14	9	3	2
453.33740234375	n/a	PROB	928435	n/a	LTP372	ltpFR2	3	n/a	n/a	n/a	2	13	4	4	5
454.40966796875	n/a	STOP	930631	n/a	LTP372	ltpFR2	3	n/a	n/a	n/a	2	n/a	n/a	n/a	n/a
457.63623046875	n/a	REC_START	937239	n/a	LTP372	ltpFR2	3	1	n/a	n/a	n/a	n/a	0	0	0
458.984375	n/a	REC_WORD	940000	wordpools/wasnorm_wordpool_576.txt	LTP372	ltpFR2	3	1	FRANCE	601	n/a	n/a	0	0	0
460.38623046875	n/a	REC_WORD	942871	wordpools/wasnorm_wordpool_576.txt	LTP372	ltpFR2	3	1	JUNGLE	764	n/a	n/a	0	0	0
462.00341796875	n/a	REC_WORD	946183	wordpools/wasnorm_wordpool_576.txt	LTP372	ltpFR2	3	1	ICING	732	n/a	n/a	0	0	0
463.04541015625	n/a	REC_WORD	948317	wordpools/wasnorm_wordpool_576.txt	LTP372	ltpFR2	3	1	ORANGE	980	n/a	n/a	0	0	0
464.166015625	n/a	REC_WORD	950612	wordpools/wasnorm_wordpool_576.txt	LTP372	ltpFR2	3	1	EYELASH	546	n/a	n/a	0	0	0
465.787109375	n/a	REC_WORD	953932	wordpools/wasnorm_wordpool_576.txt	LTP372	ltpFR2	3	1	ACTRESS	6	n/a	n/a	0	0	0
467.42431640625	n/a	REC_WORD	957285	wordpools/wasnorm_wordpool_576.txt	LTP372	ltpFR2	3	1	CRITIC	410	n/a	n/a	0	0	0
468.53125	n/a	REC_WORD	959552	wordpools/wasnorm_wordpool_576.txt	LTP372	ltpFR2	3	1	PICTURE	1061	n/a	n/a	0	0	0
470.27783203125	n/a	REC_WORD	963129	wordpools/wasnorm_wordpool_576.txt	LTP372	ltpFR2	3	1	JEANS	752	n/a	n/a	0	0	0
480.5546875	n/a	REC_WORD	984176	wordpools/wasnorm_wordpool_576.txt	LTP372	ltpFR2	3	1	JURY	766	n/a	n/a	0	0	0
481.74560546875	n/a	REC_WORD	986615	wordpools/wasnorm_wordpool_576.txt	LTP372	ltpFR2	3	1	JUDGE	761	n/a	n/a	0	0	0
486.9765625	n/a	REC_WORD	997328	wordpools/wasnorm_wordpool_576.txt	LTP372	ltpFR2	3	1	BLACKBOARD	133	n/a	n/a	0	0	0
488.09326171875	n/a	REC_WORD	999615	wordpools/wasnorm_wordpool_576.txt	LTP372	ltpFR2	3	1	SHORTCAKE	1292	n/a	n/a	0	0	0
489.9921875	n/a	REC_WORD	1003504	wordpools/wasnorm_wordpool_576.txt	LTP372	ltpFR2	3	1	YOLK	1633	n/a	n/a	0	0	0
496.869140625	n/a	REC_WORD	1017588	wordpools/wasnorm_wordpool_576.txt	LTP372	ltpFR2	3	1	TRIBE	1505	n/a	n/a	0	0	0
500.662109375	n/a	REC_WORD	1025356	wordpools/wasnorm_wordpool_576.txt	LTP372	ltpFR2	3	1	SKILLET	1317	n/a	n/a	0	0	0
516.46044921875	n/a	REC_WORD	1057711	wordpools/wasnorm_wordpool_576.txt	LTP372	ltpFR2	3	1	PASTRY	1022	n/a	n/a	0	0	0
530.49609375	n/a	REC_WORD	1086456	wordpools/wasnorm_wordpool_576.txt	LTP372	ltpFR2	3	1	BASEMENT	94	n/a	n/a	0	0	0
548.07568359375	n/a	DISTRACTOR	1122459	n/a	LTP372	ltpFR2	3	2	n/a	n/a	n/a	n/a	0	0	0
548.07568359375	n/a	START	1122459	n/a	LTP372	ltpFR2	3	n/a	n/a	n/a	3	n/a	n/a	n/a	n/a
548.09130859375	n/a	PROB	1122491	n/a	LTP372	ltpFR2	3	n/a	n/a	n/a	3	19	7	7	5
550.107421875	n/a	PROB	1126620	n/a	LTP372	ltpFR2	3	n/a	n/a	n/a	3	24	9	7	8
551.6416015625	n/a	PROB	1129762	n/a	LTP372	ltpFR2	3	n/a	n/a	n/a	3	4	1	2	1
552.8564453125	n/a	PROB	1132250	n/a	LTP372	ltpFR2	3	n/a	n/a	n/a	3	9	3	3	3
554.00537109375	n/a	PROB	1134603	n/a	LTP372	ltpFR2	3	n/a	n/a	n/a	3	17	1	8	8
555.23828125	n/a	PROB	1137128	n/a	LTP372	ltpFR2	3	n/a	n/a	n/a	3	13	5	4	4
556.404296875	n/a	PROB	1139516	n/a	LTP372	ltpFR2	3	n/a	n/a	n/a	3	13	1	7	5
557.55517578125	n/a	PROB	1141873	n/a	LTP372	ltpFR2	3	n/a	n/a	n/a	3	22	5	8	9
559.13623046875	n/a	PROB	1145111	n/a	LTP372	ltpFR2	3	n/a	n/a	n/a	3	15	7	7	1
560.35205078125	n/a	PROB	1147601	n/a	LTP372	ltpFR2	3	n/a	n/a	n/a	3	18	8	5	5
561.5859375	n/a	PROB	1150128	n/a	LTP372	ltpFR2	3	n/a	n/a	n/a	3	11	6	3	2
562.7021484375	n/a	PROB	1152414	n/a	LTP372	ltpFR2	3	n/a	n/a	n/a	3	14	8	1	5
563.90087890625	n/a	PROB	1154869	n/a	LTP372	ltpFR2	3	n/a	n/a	n/a	3	8	4	2	2
565.0498046875	n/a	PROB	1157222	n/a	LTP372	ltpFR2	3	n/a	n/a	n/a	3	13	6	4	3
566.11572265625	n/a	PROB	1159405	n/a	LTP372	ltpFR2	3	n/a	n/a	n/a	3	17	9	5	3
567.36572265625	n/a	PROB	1161965	n/a	LTP372	ltpFR2	3	n/a	n/a	n/a	3	15	9	5	1
572.07373046875	n/a	STOP	1171607	n/a	LTP372	ltpFR2	3	n/a	n/a	n/a	3	n/a	n/a	n/a	n/a
573.11279296875	n/a	WORD	1173735	wordpools/wasnorm_wordpool_576.txt	LTP372	ltpFR2	3	2	CITRUS	313	n/a	n/a	0	0	0
575.6455078125	n/a	WORD	1178922	wordpools/wasnorm_wordpool_576.txt	LTP372	ltpFR2	3	2	TURNIP	1521	n/a	n/a	0	0	0
578.21044921875	n/a	WORD	1184175	wordpools/wasnorm_wordpool_576.txt	LTP372	ltpFR2	3	2	STAPLE	1371	n/a	n/a	0	0	0
580.82568359375	n/a	WORD	1189531	wordpools/wasnorm_wordpool_576.txt	LTP372	ltpFR2	3	2	GRIZZLY	662	n/a	n/a	0	0	0
583.6083984375	n/a	WORD	1195230	wordpools/wasnorm_wordpool_576.txt	LTP372	ltpFR2	3	2	FOOTBALL	591	n/a	n/a	0	0	0
586.09033203125	n/a	WORD	1200313	wordpools/wasnorm_wordpool_576.txt	LTP372	ltpFR2	3	2	CLOUD	328	n/a	n/a	0	0	0
588.67333984375	n/a	WORD	1205603	wordpools/wasnorm_wordpool_576.txt	LTP372	ltpFR2	3	2	SUSPECT	1415	n/a	n/a	0	0	0
591.27099609375	n/a	WORD	1210923	wordpools/wasnorm_wordpool_576.txt	LTP372	ltpFR2	3	2	EXPERT	543	n/a	n/a	0	0	0
593.88623046875	n/a	WORD	1216279	wordpools/wasnorm_wordpool_576.txt	LTP372	ltpFR2	3	2	NOTEBOOK	959	n/a	n/a	0	0	0
596.68603515625	n/a	WORD	1222013	wordpools/wasnorm_wordpool_576.txt	LTP372	ltpFR2	3	2	CHURCH	307	n/a	n/a	0	0	0
599.31689453125	n/a	WORD	1227401	wordpools/wasnorm_wordpool_576.txt	LTP372	ltpFR2	3	2	HANDBAG	684	n/a	n/a	0	0	0
602.048828125	n/a	WORD	1232996	wordpools/wasnorm_wordpool_576.txt	LTP372	ltpFR2	3	2	KNAPSACK	783	n/a	n/a	0	0	0
604.66552734375	n/a	WORD	1238355	wordpools/wasnorm_wordpool_576.txt	LTP372	ltpFR2	3	2	COOK	372	n/a	n/a	0	0	0
607.0966796875	n/a	WORD	1243334	wordpools/wasnorm_wordpool_576.txt	LTP372	ltpFR2	3	2	COOKBOOK	373	n/a	n/a	0	0	0
609.52978515625	n/a	WORD	1248317	wordpools/wasnorm_wordpool_576.txt	LTP372	ltpFR2	3	2	SPOOL	1356	n/a	n/a	0	0	0
612.1943359375	n/a	WORD	1253774	wordpools/wasnorm_wordpool_576.txt	LTP372	ltpFR2	3	2	MAPLE	866	n/a	n/a	0	0	0
614.826171875	n/a	WORD	1259164	wordpools/wasnorm_wordpool_576.txt	LTP372	ltpFR2	3	2	COMET	353	n/a	n/a	0	0	0
617.50927734375	n/a	WORD	1264659	wordpools/wasnorm_wordpool_576.txt	LTP372	ltpFR2	3	2	DUSTPAN	509	n/a	n/a	0	0	0
620.30712890625	n/a	WORD	1270389	wordpools/wasnorm_wordpool_576.txt	LTP372	ltpFR2	3	2	TYPIST	1532	n/a	n/a	0	0	0
622.88916015625	n/a	WORD	1275677	wordpools/wasnorm_wordpool_576.txt	LTP372	ltpFR2	3	2	GLOBE	641	n/a	n/a	0	0	0
625.705078125	n/a	WORD	1281444	wordpools/wasnorm_wordpool_576.txt	LTP372	ltpFR2	3	2	INMATE	738	n/a	n/a	0	0	0
628.2197265625	n/a	WORD	1286594	wordpools/wasnorm_wordpool_576.txt	LTP372	ltpFR2	3	2	PLAZA	1088	n/a	n/a	0	0	0
630.90185546875	n/a	WORD	1292087	wordpools/wasnorm_wordpool_576.txt	LTP372	ltpFR2	3	2	ASIA	46	n/a	n/a	0	0	0
633.45166015625	n/a	WORD	1297309	wordpools/wasnorm_wordpool_576.txt	LTP372	ltpFR2	3	2	SALAD	1224	n/a	n/a	0	0	0
635.06689453125	n/a	START	1300617	n/a	LTP372	ltpFR2	3	n/a	n/a	n/a	4	n/a	n/a	n/a	n/a
636.12158203125	n/a	DISTRACTOR	1302777	n/a	LTP372	ltpFR2	3	2	n/a	n/a	n/a	n/a	0	0	0
636.1328125	n/a	PROB	1302800	n/a	LTP372	ltpFR2	3	n/a	n/a	n/a	4	16	9	3	4
637.91455078125	n/a	PROB	1306449	n/a	LTP372	ltpFR2	3	n/a	n/a	n/a	4	16	4	4	8
639.431640625	n/a	PROB	1309556	n/a	LTP372	ltpFR2	3	n/a	n/a	n/a	4	14	4	7	3
640.69775390625	n/a	PROB	1312149	n/a	LTP372	ltpFR2	3	n/a	n/a	n/a	4	9	1	3	5
641.79638671875	n/a	PROB	1314399	n/a	LTP372	ltpFR2	3	n/a	n/a	n/a	4	15	1	9	5
642.99560546875	n/a	PROB	1316855	n/a	LTP372	ltpFR2	3	n/a	n/a	n/a	4	9	2	3	4
644.16162109375	n/a	PROB	1319243	n/a	LTP372	ltpFR2	3	n/a	n/a	n/a	4	8	2	1	5
645.39453125	n/a	PROB	1321768	n/a	LTP372	ltpFR2	3	n/a	n/a	n/a	4	12	2	3	7
646.54541015625	n/a	PROB	1324125	n/a	LTP372	ltpFR2	3	n/a	n/a	n/a	4	17	2	6	9
648.17626953125	n/a	PROB	1327465	n/a	LTP372	ltpFR2	3	n/a	n/a	n/a	4	25	9	9	7
649.56005859375	n/a	PROB	1330299	n/a	LTP372	ltpFR2	3	n/a	n/a	n/a	4	17	6	6	5
650.7431640625	n/a	PROB	1332722	n/a	LTP372	ltpFR2	3	n/a	n/a	n/a	4	13	2	8	3
651.875	n/a	PROB	1335040	n/a	LTP372	ltpFR2	3	n/a	n/a	n/a	4	22	8	5	9
653.77392578125	n/a	PROB	1338929	n/a	LTP372	ltpFR2	3	n/a	n/a	n/a	4	20	5	8	7
655.10595703125	n/a	PROB	1341657	n/a	LTP372	ltpFR2	3	n/a	n/a	n/a	4	15	7	5	3
656.2890625	n/a	PROB	1344080	n/a	LTP372	ltpFR2	3	n/a	n/a	n/a	4	16	4	4	8
657.68212890625	n/a	STOP	1346933	n/a	LTP372	ltpFR2	3	n/a	n/a	n/a	4	n/a	n/a	n/a	n/a
660.93798828125	n/a	REC_START	1353601	n/a	LTP372	ltpFR2	3	2	n/a	n/a	n/a	n/a	0	0	0
662.27099609375	n/a	REC_WORD	1356331	wordpools/wasnorm_wordpool_576.txt	LTP372	ltpFR2	3	2	INMATE	738	n/a	n/a	0	0	0
664.61376953125	n/a	REC_WORD	1361129	wordpools/wasnorm_wordpool_576.txt	LTP372	ltpFR2	3	2	SALAD	1224	n/a	n/a	0	0	0
669.8486328125	n/a	REC_WORD	1371850	wordpools/wasnorm_wordpool_576.txt	LTP372	ltpFR2	3	2	PLAZA	1088	n/a	n/a	0	0	0
671.24853515625	n/a	REC_WORD	1374717	wordpools/wasnorm_wordpool_576.txt	LTP372	ltpFR2	3	2	ASIA	46	n/a	n/a	0	0	0
676.1162109375	n/a	REC_WORD	1384686	wordpools/wasnorm_wordpool_576.txt	LTP372	ltpFR2	3	2	EXPERT	543	n/a	n/a	0	0	0
677.33447265625	n/a	REC_WORD	1387181	wordpools/wasnorm_wordpool_576.txt	LTP372	ltpFR2	3	2	NOTEBOOK	959	n/a	n/a	0	0	0
678.4443359375	n/a	REC_WORD	1389454	wordpools/wasnorm_wordpool_576.txt	LTP372	ltpFR2	3	2	SUBMARINE	1398	n/a	n/a	0	0	0
680.02734375	n/a	REC_WORD	1392696	wordpools/wasnorm_wordpool_576.txt	LTP372	ltpFR2	3	2	CLOUD	328	n/a	n/a	0	0	0
682.236328125	n/a	REC_WORD	1397220	wordpools/wasnorm_wordpool_576.txt	LTP372	ltpFR2	3	2	CITRUS	313	n/a	n/a	0	0	0
683.3603515625	n/a	REC_WORD	1399522	wordpools/wasnorm_wordpool_576.txt	LTP372	ltpFR2	3	2	TURNIP	1521	n/a	n/a	0	0	0
684.2080078125	n/a	REC_WORD	1401258	wordpools/wasnorm_wordpool_576.txt	LTP372	ltpFR2	3	2	STAPLE	1371	n/a	n/a	0	0	0
686.24609375	n/a	REC_WORD	1405432	wordpools/wasnorm_wordpool_576.txt	LTP372	ltpFR2	3	2	GRIZZLY	662	n/a	n/a	0	0	0
692.02587890625	n/a	REC_WORD	1417269	wordpools/wasnorm_wordpool_576.txt	LTP372	ltpFR2	3	2	COOK	372	n/a	n/a	0	0	0
693.3779296875	n/a	REC_WORD	1420038	wordpools/wasnorm_wordpool_576.txt	LTP372	ltpFR2	3	2	COOKBOOK	373	n/a	n/a	0	0	0
702.74072265625	n/a	REC_WORD	1439213	wordpools/wasnorm_wordpool_576.txt	LTP372	ltpFR2	3	2	MAPLE	866	n/a	n/a	0	0	0
751.376953125	n/a	DISTRACTOR	1538820	n/a	LTP372	ltpFR2	3	3	n/a	n/a	n/a	n/a	0	0	0
751.376953125	n/a	START	1538820	n/a	LTP372	ltpFR2	3	n/a	n/a	n/a	5	n/a	n/a	n/a	n/a
751.39306640625	n/a	PROB	1538853	n/a	LTP372	ltpFR2	3	n/a	n/a	n/a	5	10	1	3	6
753.04296875	n/a	PROB	1542232	n/a	LTP372	ltpFR2	3	n/a	n/a	n/a	5	18	8	6	4
754.2587890625	n/a	PROB	1544722	n/a	LTP372	ltpFR2	3	n/a	n/a	n/a	5	13	2	9	2
755.47607421875	n/a	PROB	1547215	n/a	LTP372	ltpFR2	3	n/a	n/a	n/a	5	7	1	1	5
756.55908203125	n/a	PROB	1549433	n/a	LTP372	ltpFR2	3	n/a	n/a	n/a	5	18	2	7	9
758.27392578125	n/a	PROB	1552945	n/a	LTP372	ltpFR2	3	n/a	n/a	n/a	5	19	9	8	2
759.423828125	n/a	PROB	1555300	n/a	LTP372	ltpFR2	3	n/a	n/a	n/a	5	16	6	6	4
760.60693359375	n/a	PROB	1557723	n/a	LTP372	ltpFR2	3	n/a	n/a	n/a	5	14	4	3	7
761.921875	n/a	PROB	1560416	n/a	LTP372	ltpFR2	3	n/a	n/a	n/a	5	11	3	5	3
763.0546875	n/a	PROB	1562736	n/a	LTP372	ltpFR2	3	n/a	n/a	n/a	5	20	6	5	9
766.302734375	n/a	PROB	1569388	n/a	LTP372	ltpFR2	3	n/a	n/a	n/a	5	8	2	2	4
767.61962890625	n/a	PROB	1572085	n/a	LTP372	ltpFR2	3	n/a	n/a	n/a	5	21	9	9	3
769.05126953125	n/a	PROB	1575017	n/a	LTP372	ltpFR2	3	n/a	n/a	n/a	5	6	1	2	3
770.13427734375	n/a	PROB	1577235	n/a	LTP372	ltpFR2	3	n/a	n/a	n/a	5	19	8	3	8
771.3505859375	n/a	PROB	1579726	n/a	LTP372	ltpFR2	3	n/a	n/a	n/a	5	21	8	6	7
772.5341796875	n/a	PROB	1582150	n/a	LTP372	ltpFR2	3	n/a	n/a	n/a	5	24	6	9	9
773.96142578125	n/a	STOP	1585073	n/a	LTP372	ltpFR2	3	n/a	n/a	n/a	5	n/a	n/a	n/a	n/a
776.44921875	n/a	WORD	1590168	wordpools/wasnorm_wordpool_576.txt	LTP372	ltpFR2	3	3	BOX	159	n/a	n/a	0	0	0
778.947265625	n/a	WORD	1595284	wordpools/wasnorm_wordpool_576.txt	LTP372	ltpFR2	3	3	LONDON	843	n/a	n/a	0	0	0
781.74609375	n/a	WORD	1601016	wordpools/wasnorm_wordpool_576.txt	LTP372	ltpFR2	3	3	COUNTRY	388	n/a	n/a	0	0	0
784.51220703125	n/a	WORD	1606681	wordpools/wasnorm_wordpool_576.txt	LTP372	ltpFR2	3	3	MUFFIN	929	n/a	n/a	0	0	0
787.0927734375	n/a	WORD	1611966	wordpools/wasnorm_wordpool_576.txt	LTP372	ltpFR2	3	3	PACKAGE	997	n/a	n/a	0	0	0
789.74267578125	n/a	WORD	1617393	wordpools/wasnorm_wordpool_576.txt	LTP372	ltpFR2	3	3	TAXI	1438	n/a	n/a	0	0	0
792.52490234375	n/a	WORD	1623091	wordpools/wasnorm_wordpool_576.txt	LTP372	ltpFR2	3	3	DAISY	435	n/a	n/a	0	0	0
795.10546875	n/a	WORD	1628376	wordpools/wasnorm_wordpool_576.txt	LTP372	ltpFR2	3	3	HOSTESS	723	n/a	n/a	0	0	0
797.92041015625	n/a	WORD	1634141	wordpools/wasnorm_wordpool_576.txt	LTP372	ltpFR2	3	3	STAMP	1370	n/a	n/a	0	0	0
800.36962890625	n/a	WORD	1639157	wordpools/wasnorm_wordpool_576.txt	LTP372	ltpFR2	3	3	PUDDLE	1140	n/a	n/a	0	0	0
803.1513671875	n/a	WORD	1644854	wordpools/wasnorm_wordpool_576.txt	LTP372	ltpFR2	3	3	WIDOW	1608	n/a	n/a	0	0	0
805.783203125	n/a	WORD	1650244	wordpools/wasnorm_wordpool_576.txt	LTP372	ltpFR2	3	3	BANKER	84	n/a	n/a	0	0	0
808.46728515625	n/a	WORD	1655741	wordpools/wasnorm_wordpool_576.txt	LTP372	ltpFR2	3	3	WORKER	1621	n/a	n/a	0	0	0
811.14794921875	n/a	WORD	1661231	wordpools/wasnorm_wordpool_576.txt	LTP372	ltpFR2	3	3	SERVER	1272	n/a	n/a	0	0	0
813.8798828125	n/a	WORD	1666826	wordpools/wasnorm_wordpool_576.txt	LTP372	ltpFR2	3	3	COLLEGE	346	n/a	n/a	0	0	0
816.51318359375	n/a	WORD	1672219	wordpools/wasnorm_wordpool_576.txt	LTP372	ltpFR2	3	3	SCOTCH	1251	n/a	n/a	0	0	0
819.2607421875	n/a	WORD	1677846	wordpools/wasnorm_wordpool_576.txt	LTP372	ltpFR2	3	3	PLATE	1086	n/a	n/a	0	0	0
821.69384765625	n/a	WORD	1682829	wordpools/wasnorm_wordpool_576.txt	LTP372	ltpFR2	3	3	BATHTUB	100	n/a	n/a	0	0	0
824.29150390625	n/a	WORD	1688149	wordpools/wasnorm_wordpool_576.txt	LTP372	ltpFR2	3	3	SPONGE	1355	n/a	n/a	0	0	0
827.0068359375	n/a	WORD	1693710	wordpools/wasnorm_wordpool_576.txt	LTP372	ltpFR2	3	3	BARLEY	88	n/a	n/a	0	0	0
829.45654296875	n/a	WORD	1698727	wordpools/wasnorm_wordpool_576.txt	LTP372	ltpFR2	3	3	PEANUT	1032	n/a	n/a	0	0	0
832.1376953125	n/a	WORD	1704218	wordpools/wasnorm_wordpool_576.txt	LTP372	ltpFR2	3	3	PANTHER	1009	n/a	n/a	0	0	0
834.62060546875	n/a	WORD	1709303	wordpools/wasnorm_wordpool_576.txt	LTP372	ltpFR2	3	3	GREASE	660	n/a	n/a	0	0	0
837.21826171875	n/a	WORD	1714623	wordpools/wasnorm_wordpool_576.txt	LTP372	ltpFR2	3	3	TROUT	1511	n/a	n/a	0	0	0
838.83447265625	n/a	START	1717933	n/a	LTP372	ltpFR2	3	n/a	n/a	n/a	6	n/a	n/a	n/a	n/a
839.7373046875	n/a	DISTRACTOR	1719782	n/a	LTP372	ltpFR2	3	3	n/a	n/a	n/a	n/a	0	0	0
839.75	n/a	PROB	1719808	n/a	LTP372	ltpFR2	3	n/a	n/a	n/a	6	26	9	9	8
841.43408203125	n/a	PROB	1723257	n/a	LTP372	ltpFR2	3	n/a	n/a	n/a	6	15	1	9	5
842.5341796875	n/a	PROB	1725510	n/a	LTP372	ltpFR2	3	n/a	n/a	n/a	6	16	4	4	8
843.73291015625	n/a	PROB	1727965	n/a	LTP372	ltpFR2	3	n/a	n/a	n/a	6	18	6	8	4
844.98095703125	n/a	PROB	1730521	n/a	LTP372	ltpFR2	3	n/a	n/a	n/a	6	16	3	8	5
846.14794921875	n/a	PROB	1732911	n/a	LTP372	ltpFR2	3	n/a	n/a	n/a	6	21	9	4	8
847.39697265625	n/a	PROB	1735469	n/a	LTP372	ltpFR2	3	n/a	n/a	n/a	6	21	4	8	9
848.7626953125	n/a	PROB	1738266	n/a	LTP372	ltpFR2	3	n/a	n/a	n/a	6	14	5	5	4
849.87890625	n/a	PROB	1740552	n/a	LTP372	ltpFR2	3	n/a	n/a	n/a	6	26	9	9	8
851.12890625	n/a	PROB	1743112	n/a	LTP372	ltpFR2	3	n/a	n/a	n/a	6	11	8	2	1
852.177734375	n/a	PROB	1745260	n/a	LTP372	ltpFR2	3	n/a	n/a	n/a	6	14	1	6	7
853.3935546875	n/a	PROB	1747750	n/a	LTP372	ltpFR2	3	n/a	n/a	n/a	6	13	1	5	7
854.66064453125	n/a	PROB	1750345	n/a	LTP372	ltpFR2	3	n/a	n/a	n/a	6	19	7	8	4
856.10986328125	n/a	PROB	1753313	n/a	LTP372	ltpFR2	3	n/a	n/a	n/a	6	24	9	7	8
857.79150390625	n/a	PROB	1756757	n/a	LTP372	ltpFR2	3	n/a	n/a	n/a	6	15	9	2	4
859.04150390625	n/a	PROB	1759317	n/a	LTP372	ltpFR2	3	n/a	n/a	n/a	6	12	1	6	5
860.224609375	n/a	PROB	1761740	n/a	LTP372	ltpFR2	3	n/a	n/a	n/a	6	11	6	1	4
861.6904296875	n/a	STOP	1764742	n/a	LTP372	ltpFR2	3	n/a	n/a	n/a	6	n/a	n/a	n/a	n/a
864.67333984375	n/a	REC_START	1770851	n/a	LTP372	ltpFR2	3	3	n/a	n/a	n/a	n/a	0	0	0
865.8642578125	n/a	REC_WORD	1773290	wordpools/wasnorm_wordpool_576.txt	LTP372	ltpFR2	3	3	HOSTESS	723	n/a	n/a	0	0	0
866.95947265625	n/a	REC_WORD	1775533	wordpools/wasnorm_wordpool_576.txt	LTP372	ltpFR2	3	3	STAMP	1370	n/a	n/a	0	0	0
869.37744140625	n/a	REC_WORD	1780485	wordpools/wasnorm_wordpool_576.txt	LTP372	ltpFR2	3	3	WIDOW	1608	n/a	n/a	0	0	0
871.92529296875	n/a	REC_WORD	1785703	wordpools/wasnorm_wordpool_576.txt	LTP372	ltpFR2	3	3	BANKER	84	n/a	n/a	0	0	0
872.830078125	n/a	REC_WORD	1787556	wordpools/wasnorm_wordpool_576.txt	LTP372	ltpFR2	3	3	WORKER	1621	n/a	n/a	0	0	0
875.0771484375	n/a	REC_WORD	1792158	wordpools/wasnorm_wordpool_576.txt	LTP372	ltpFR2	3	3	SERVER	1272	n/a	n/a	0	0	0
877.1748046875	n/a	REC_WORD	1796454	wordpools/wasnorm_wordpool_576.txt	LTP372	ltpFR2	3	3	PLATE	1086	n/a	n/a	0	0	0
878.2060546875	n/a	REC_WORD	1798566	wordpools/wasnorm_wordpool_576.txt	LTP372	ltpFR2	3	3	BATHTUB	100	n/a	n/a	0	0	0
879.208984375	n/a	REC_WORD	1800620	wordpools/wasnorm_wordpool_576.txt	LTP372	ltpFR2	3	3	SPONGE	1355	n/a	n/a	0	0	0
881.30712890625	n/a	REC_WORD	1804917	wordpools/wasnorm_wordpool_576.txt	LTP372	ltpFR2	3	3	BARLEY	88	n/a	n/a	0	0	0
882.25	n/a	REC_WORD	1806848	wordpools/wasnorm_wordpool_576.txt	LTP372	ltpFR2	3	3	PEANUT	1032	n/a	n/a	0	0	0
884.43994140625	n/a	REC_WORD	1811333	wordpools/wasnorm_wordpool_576.txt	LTP372	ltpFR2	3	3	PANTHER	1009	n/a	n/a	0	0	0
885.36376953125	n/a	REC_WORD	1813225	wordpools/wasnorm_wordpool_576.txt	LTP372	ltpFR2	3	3	GREASE	660	n/a	n/a	0	0	0
886.181640625	n/a	REC_WORD	1814900	wordpools/wasnorm_wordpool_576.txt	LTP372	ltpFR2	3	3	TROUT	1511	n/a	n/a	0	0	0
888.61083984375	n/a	REC_WORD	1819875	wordpools/wasnorm_wordpool_576.txt	LTP372	ltpFR2	3	3	BOX	159	n/a	n/a	0	0	0
889.595703125	n/a	REC_WORD	1821892	wordpools/wasnorm_wordpool_576.txt	LTP372	ltpFR2	3	3	PACKAGE	997	n/a	n/a	0	0	0
890.82275390625	n/a	REC_WORD	1824405	wordpools/wasnorm_wordpool_576.txt	LTP372	ltpFR2	3	3	LONDON	843	n/a	n/a	0	0	0
891.74072265625	n/a	REC_WORD	1826285	wordpools/wasnorm_wordpool_576.txt	LTP372	ltpFR2	3	3	COUNTRY	388	n/a	n/a	0	0	0
893.71142578125	n/a	REC_WORD	1830321	wordpools/wasnorm_wordpool_576.txt	LTP372	ltpFR2	3	3	MUFFIN	929	n/a	n/a	0	0	0
896.6142578125	n/a	REC_WORD	1836266	wordpools/wasnorm_wordpool_576.txt	LTP372	ltpFR2	3	3	TAXI	1438	n/a	n/a	0	0	0
897.8994140625	n/a	REC_WORD	1838898	wordpools/wasnorm_wordpool_576.txt	LTP372	ltpFR2	3	3	DAISY	435	n/a	n/a	0	0	0
955.111328125	n/a	DISTRACTOR	1956068	n/a	LTP372	ltpFR2	3	4	n/a	n/a	n/a	n/a	0	0	0
955.111328125	n/a	START	1956068	n/a	LTP372	ltpFR2	3	n/a	n/a	n/a	7	n/a	n/a	n/a	n/a
955.12841796875	n/a	PROB	1956103	n/a	LTP372	ltpFR2	3	n/a	n/a	n/a	7	21	5	9	7
958.49462890625	n/a	PROB	1962997	n/a	LTP372	ltpFR2	3	n/a	n/a	n/a	7	16	7	3	6
959.71044921875	n/a	PROB	1965487	n/a	LTP372	ltpFR2	3	n/a	n/a	n/a	7	18	4	9	5
960.9921875	n/a	PROB	1968112	n/a	LTP372	ltpFR2	3	n/a	n/a	n/a	7	16	4	8	4
962.14111328125	n/a	PROB	1970465	n/a	LTP372	ltpFR2	3	n/a	n/a	n/a	7	24	8	7	9
963.4921875	n/a	PROB	1973232	n/a	LTP372	ltpFR2	3	n/a	n/a	n/a	7	20	9	6	5
965.0732421875	n/a	PROB	1976470	n/a	LTP372	ltpFR2	3	n/a	n/a	n/a	7	13	8	4	1
966.13916015625	n/a	PROB	1978653	n/a	LTP372	ltpFR2	3	n/a	n/a	n/a	7	24	9	6	9
967.43994140625	n/a	PROB	1981317	n/a	LTP372	ltpFR2	3	n/a	n/a	n/a	7	15	4	5	6
968.5888671875	n/a	PROB	1983670	n/a	LTP372	ltpFR2	3	n/a	n/a	n/a	7	22	6	8	8
969.93798828125	n/a	PROB	1986433	n/a	LTP372	ltpFR2	3	n/a	n/a	n/a	7	14	1	6	7
971.05419921875	n/a	PROB	1988719	n/a	LTP372	ltpFR2	3	n/a	n/a	n/a	7	17	8	5	4
972.3701171875	n/a	PROB	1991414	n/a	LTP372	ltpFR2	3	n/a	n/a	n/a	7	19	9	8	2
973.6201171875	n/a	PROB	1993974	n/a	LTP372	ltpFR2	3	n/a	n/a	n/a	7	23	6	8	9
975.31884765625	n/a	PROB	1997453	n/a	LTP372	ltpFR2	3	n/a	n/a	n/a	7	20	4	9	7
976.5859375	n/a	PROB	2000048	n/a	LTP372	ltpFR2	3	n/a	n/a	n/a	7	17	5	8	4
978.0419921875	n/a	STOP	2003030	n/a	LTP372	ltpFR2	3	n/a	n/a	n/a	7	n/a	n/a	n/a	n/a
980.11572265625	n/a	WORD	2007277	wordpools/wasnorm_wordpool_576.txt	LTP372	ltpFR2	3	4	HUSBAND	728	n/a	n/a	0	0	0
982.58251953125	n/a	WORD	2012329	wordpools/wasnorm_wordpool_576.txt	LTP372	ltpFR2	3	4	GALLON	618	n/a	n/a	0	0	0
985.0966796875	n/a	WORD	2017478	wordpools/wasnorm_wordpool_576.txt	LTP372	ltpFR2	3	4	TEACHER	1440	n/a	n/a	0	0	0
987.91259765625	n/a	WORD	2023245	wordpools/wasnorm_wordpool_576.txt	LTP372	ltpFR2	3	4	ROD	1203	n/a	n/a	0	0	0
990.51220703125	n/a	WORD	2028569	wordpools/wasnorm_wordpool_576.txt	LTP372	ltpFR2	3	4	PIMPLE	1071	n/a	n/a	0	0	0
993.060546875	n/a	WORD	2033788	wordpools/wasnorm_wordpool_576.txt	LTP372	ltpFR2	3	4	YACHT	1629	n/a	n/a	0	0	0
995.8583984375	n/a	WORD	2039518	wordpools/wasnorm_wordpool_576.txt	LTP372	ltpFR2	3	4	CANAL	226	n/a	n/a	0	0	0
998.291015625	n/a	WORD	2044500	wordpools/wasnorm_wordpool_576.txt	LTP372	ltpFR2	3	4	SPOUSE	1358	n/a	n/a	0	0	0
1000.77294921875	n/a	WORD	2049583	wordpools/wasnorm_wordpool_576.txt	LTP372	ltpFR2	3	4	EGYPT	519	n/a	n/a	0	0	0
1003.35498046875	n/a	WORD	2054871	wordpools/wasnorm_wordpool_576.txt	LTP372	ltpFR2	3	4	CABBAGE	210	n/a	n/a	0	0	0
1005.787109375	n/a	WORD	2059852	wordpools/wasnorm_wordpool_576.txt	LTP372	ltpFR2	3	4	CARROT	249	n/a	n/a	0	0	0
1008.3857421875	n/a	WORD	2065174	wordpools/wasnorm_wordpool_576.txt	LTP372	ltpFR2	3	4	HEADBAND	696	n/a	n/a	0	0	0
1011.06787109375	n/a	WORD	2070667	wordpools/wasnorm_wordpool_576.txt	LTP372	ltpFR2	3	4	PICNIC	1060	n/a	n/a	0	0	0
1013.55078125	n/a	WORD	2075752	wordpools/wasnorm_wordpool_576.txt	LTP372	ltpFR2	3	4	MARS	873	n/a	n/a	0	0	0
1016.2158203125	n/a	WORD	2081210	wordpools/wasnorm_wordpool_576.txt	LTP372	ltpFR2	3	4	CATTLE	261	n/a	n/a	0	0	0
1018.96337890625	n/a	WORD	2086837	wordpools/wasnorm_wordpool_576.txt	LTP372	ltpFR2	3	4	CLAM	315	n/a	n/a	0	0	0
1021.68017578125	n/a	WORD	2092401	wordpools/wasnorm_wordpool_576.txt	LTP372	ltpFR2	3	4	PLAID	1080	n/a	n/a	0	0	0
1024.39453125	n/a	WORD	2097960	wordpools/wasnorm_wordpool_576.txt	LTP372	ltpFR2	3	4	BROOK	177	n/a	n/a	0	0	0
1027.12744140625	n/a	WORD	2103557	wordpools/wasnorm_wordpool_576.txt	LTP372	ltpFR2	3	4	BIKE	125	n/a	n/a	0	0	0
1029.56005859375	n/a	WORD	2108539	wordpools/wasnorm_wordpool_576.txt	LTP372	ltpFR2	3	4	EMPIRE	530	n/a	n/a	0	0	0
1032.3740234375	n/a	WORD	2114302	wordpools/wasnorm_wordpool_576.txt	LTP372	ltpFR2	3	4	SCALLOP	1242	n/a	n/a	0	0	0
1034.82275390625	n/a	WORD	2119317	wordpools/wasnorm_wordpool_576.txt	LTP372	ltpFR2	3	4	FRECKLE	602	n/a	n/a	0	0	0
1037.57275390625	n/a	WORD	2124949	wordpools/wasnorm_wordpool_576.txt	LTP372	ltpFR2	3	4	MONEY	908	n/a	n/a	0	0	0
1040.32080078125	n/a	WORD	2130577	wordpools/wasnorm_wordpool_576.txt	LTP372	ltpFR2	3	4	DIME	466	n/a	n/a	0	0	0
1041.9365234375	n/a	START	2133886	n/a	LTP372	ltpFR2	3	n/a	n/a	n/a	8	n/a	n/a	n/a	n/a
1042.7548828125	n/a	DISTRACTOR	2135562	n/a	LTP372	ltpFR2	3	4	n/a	n/a	n/a	n/a	0	0	0
1042.7685546875	n/a	PROB	2135590	n/a	LTP372	ltpFR2	3	n/a	n/a	n/a	8	21	7	8	6
1044.50244140625	n/a	PROB	2139141	n/a	LTP372	ltpFR2	3	n/a	n/a	n/a	8	19	2	9	8
1046.23486328125	n/a	PROB	2142689	n/a	LTP372	ltpFR2	3	n/a	n/a	n/a	8	17	6	5	6
1047.634765625	n/a	PROB	2145556	n/a	LTP372	ltpFR2	3	n/a	n/a	n/a	8	22	8	8	6
1048.86669921875	n/a	PROB	2148079	n/a	LTP372	ltpFR2	3	n/a	n/a	n/a	8	17	4	5	8
1050.1826171875	n/a	PROB	2150774	n/a	LTP372	ltpFR2	3	n/a	n/a	n/a	8	21	5	9	7
1051.3984375	n/a	PROB	2153264	n/a	LTP372	ltpFR2	3	n/a	n/a	n/a	8	19	9	3	7
1052.58251953125	n/a	PROB	2155689	n/a	LTP372	ltpFR2	3	n/a	n/a	n/a	8	18	8	2	8
1054.08056640625	n/a	PROB	2158757	n/a	LTP372	ltpFR2	3	n/a	n/a	n/a	8	4	1	2	1
1055.21337890625	n/a	PROB	2161077	n/a	LTP372	ltpFR2	3	n/a	n/a	n/a	8	21	7	8	6
1056.8125	n/a	PROB	2164352	n/a	LTP372	ltpFR2	3	n/a	n/a	n/a	8	18	4	6	8
1058.01123046875	n/a	PROB	2166807	n/a	LTP372	ltpFR2	3	n/a	n/a	n/a	8	10	1	1	8
1059.37841796875	n/a	PROB	2169607	n/a	LTP372	ltpFR2	3	n/a	n/a	n/a	8	15	6	7	2
1060.578125	n/a	PROB	2172064	n/a	LTP372	ltpFR2	3	n/a	n/a	n/a	8	16	3	6	7
1061.76025390625	n/a	PROB	2174485	n/a	LTP372	ltpFR2	3	n/a	n/a	n/a	8	11	3	2	6
1062.97607421875	n/a	PROB	2176975	n/a	LTP372	ltpFR2	3	n/a	n/a	n/a	8	11	1	5	5
1064.14208984375	n/a	PROB	2179363	n/a	LTP372	ltpFR2	3	n/a	n/a	n/a	8	14	7	4	3
1065.7138671875	n/a	STOP	2182582	n/a	LTP372	ltpFR2	3	n/a	n/a	n/a	8	n/a	n/a	n/a	n/a
1067.69189453125	n/a	REC_START	2186633	n/a	LTP372	ltpFR2	3	4	n/a	n/a	n/a	n/a	0	0	0
1069.5068359375	n/a	REC_WORD	2190350	wordpools/wasnorm_wordpool_576.txt	LTP372	ltpFR2	3	4	HUSBAND	728	n/a	n/a	0	0	0
1070.7666015625	n/a	REC_WORD	2192930	wordpools/wasnorm_wordpool_576.txt	LTP372	ltpFR2	3	4	GALLON	618	n/a	n/a	0	0	0
1072.52587890625	n/a	REC_WORD	2196533	wordpools/wasnorm_wordpool_576.txt	LTP372	ltpFR2	3	4	TEACHER	1440	n/a	n/a	0	0	0
1073.65576171875	n/a	REC_WORD	2198847	wordpools/wasnorm_wordpool_576.txt	LTP372	ltpFR2	3	4	ROD	1203	n/a	n/a	0	0	0
1074.98046875	n/a	REC_WORD	2201560	wordpools/wasnorm_wordpool_576.txt	LTP372	ltpFR2	3	4	PIMPLE	1071	n/a	n/a	0	0	0
1076.30859375	n/a	REC_WORD	2204280	wordpools/wasnorm_wordpool_576.txt	LTP372	ltpFR2	3	4	FRECKLE	602	n/a	n/a	0	0	0
1077.7275390625	n/a	REC_WORD	2207186	wordpools/wasnorm_wordpool_576.txt	LTP372	ltpFR2	3	4	SPOUSE	1358	n/a	n/a	0	0	0
1081.37255859375	n/a	REC_WORD	2214651	wordpools/wasnorm_wordpool_576.txt	LTP372	ltpFR2	3	4	YACHT	1629	n/a	n/a	0	0	0
1085.38818359375	n/a	REC_WORD	2222875	wordpools/wasnorm_wordpool_576.txt	LTP372	ltpFR2	3	4	EGYPT	519	n/a	n/a	0	0	0
1087.97607421875	n/a	REC_WORD	2228175	wordpools/wasnorm_wordpool_576.txt	LTP372	ltpFR2	3	4	CABBAGE	210	n/a	n/a	0	0	0
1095.85888671875	n/a	REC_WORD	2244319	wordpools/wasnorm_wordpool_576.txt	LTP372	ltpFR2	3	4	HEADBAND	696	n/a	n/a	0	0	0
1101.14208984375	n/a	REC_WORD	2255139	wordpools/wasnorm_wordpool_576.txt	LTP372	ltpFR2	3	4	MARS	873	n/a	n/a	0	0	0
1102.6767578125	n/a	REC_WORD	2258282	wordpools/wasnorm_wordpool_576.txt	LTP372	ltpFR2	3	4	PICNIC	1060	n/a	n/a	0	0	0
1103.7666015625	n/a	REC_WORD	2260514	wordpools/wasnorm_wordpool_576.txt	LTP372	ltpFR2	3	4	PLAID	1080	n/a	n/a	0	0	0
1105.23388671875	n/a	REC_WORD	2263519	wordpools/wasnorm_wordpool_576.txt	LTP372	ltpFR2	3	4	CATTLE	261	n/a	n/a	0	0	0
1106.52880859375	n/a	REC_WORD	2266171	wordpools/wasnorm_wordpool_576.txt	LTP372	ltpFR2	3	4	CLAM	315	n/a	n/a	0	0	0
1109.07373046875	n/a	REC_WORD	2271383	wordpools/wasnorm_wordpool_576.txt	LTP372	ltpFR2	3	4	BROOK	177	n/a	n/a	0	0	0
1111.3466796875	n/a	REC_WORD	2276038	wordpools/wasnorm_wordpool_576.txt	LTP372	ltpFR2	3	4	CANAL	226	n/a	n/a	0	0	0
1112.92236328125	n/a	REC_WORD	2279265	wordpools/wasnorm_wordpool_576.txt	LTP372	ltpFR2	3	4	BIKE	125	n/a	n/a	0	0	0
1114.9326171875	n/a	REC_WORD	2283382	wordpools/wasnorm_wordpool_576.txt	LTP372	ltpFR2	3	4	EMPIRE	530	n/a	n/a	0	0	0
1115.91357421875	n/a	REC_WORD	2285391	wordpools/wasnorm_wordpool_576.txt	LTP372	ltpFR2	3	4	SCALLOP	1242	n/a	n/a	0	0	0
1123.419921875	n/a	REC_WORD	2300764	wordpools/wasnorm_wordpool_576.txt	LTP372	ltpFR2	3	4	MARS	873	n/a	n/a	0	0	0
1138.49755859375	n/a	REC_WORD	2331643	wordpools/wasnorm_wordpool_576.txt	LTP372	ltpFR2	3	4	MONEY	908	n/a	n/a	0	0	0
1139.5224609375	n/a	REC_WORD	2333742	wordpools/wasnorm_wordpool_576.txt	LTP372	ltpFR2	3	4	DIME	466	n/a	n/a	0	0	0
1158.1298828125	n/a	DISTRACTOR	2371850	n/a	LTP372	ltpFR2	3	5	n/a	n/a	n/a	n/a	0	0	0
1158.1298828125	n/a	START	2371850	n/a	LTP372	ltpFR2	3	n/a	n/a	n/a	9	n/a	n/a	n/a	n/a
1158.14697265625	n/a	PROB	2371885	n/a	LTP372	ltpFR2	3	n/a	n/a	n/a	9	16	7	7	2
1159.74609375	n/a	PROB	2375160	n/a	LTP372	ltpFR2	3	n/a	n/a	n/a	9	14	3	6	5
1161.01171875	n/a	PROB	2377752	n/a	LTP372	ltpFR2	3	n/a	n/a	n/a	9	25	5	9	8
1162.39501953125	n/a	PROB	2380585	n/a	LTP372	ltpFR2	3	n/a	n/a	n/a	9	8	1	2	5
1163.99365234375	n/a	PROB	2383859	n/a	LTP372	ltpFR2	3	n/a	n/a	n/a	9	5	2	2	1
1164.94384765625	n/a	PROB	2385805	n/a	LTP372	ltpFR2	3	n/a	n/a	n/a	9	19	3	9	7
1166.10986328125	n/a	PROB	2388193	n/a	LTP372	ltpFR2	3	n/a	n/a	n/a	9	8	1	3	4
1167.2255859375	n/a	PROB	2390478	n/a	LTP372	ltpFR2	3	n/a	n/a	n/a	9	14	1	4	9
1168.3916015625	n/a	PROB	2392866	n/a	LTP372	ltpFR2	3	n/a	n/a	n/a	9	16	7	2	9
1169.69189453125	n/a	PROB	2395529	n/a	LTP372	ltpFR2	3	n/a	n/a	n/a	9	24	9	9	6
1171.2734375	n/a	PROB	2398768	n/a	LTP372	ltpFR2	3	n/a	n/a	n/a	9	18	7	9	2
1172.6904296875	n/a	PROB	2401670	n/a	LTP372	ltpFR2	3	n/a	n/a	n/a	9	16	4	5	7
1173.78955078125	n/a	PROB	2403921	n/a	LTP372	ltpFR2	3	n/a	n/a	n/a	9	14	4	2	8
1175.2216796875	n/a	PROB	2406854	n/a	LTP372	ltpFR2	3	n/a	n/a	n/a	9	14	8	5	1
1176.60546875	n/a	PROB	2409688	n/a	LTP372	ltpFR2	3	n/a	n/a	n/a	9	15	2	6	7
1177.7705078125	n/a	PROB	2412074	n/a	LTP372	ltpFR2	3	n/a	n/a	n/a	9	17	7	7	3
1178.986328125	n/a	PROB	2414564	n/a	LTP372	ltpFR2	3	n/a	n/a	n/a	9	24	9	9	6
1180.2021484375	n/a	PROB	2417054	n/a	LTP372	ltpFR2	3	n/a	n/a	n/a	9	15	2	9	4
1181.41845703125	n/a	STOP	2419545	n/a	LTP372	ltpFR2	3	n/a	n/a	n/a	9	n/a	n/a	n/a	n/a
1183.35107421875	n/a	WORD	2423503	wordpools/wasnorm_wordpool_576.txt	LTP372	ltpFR2	3	5	SUNRISE	1407	n/a	n/a	0	0	0
1185.900390625	n/a	WORD	2428724	wordpools/wasnorm_wordpool_576.txt	LTP372	ltpFR2	3	5	TOMBSTONE	1478	n/a	n/a	0	0	0
1188.55029296875	n/a	WORD	2434151	wordpools/wasnorm_wordpool_576.txt	LTP372	ltpFR2	3	5	BEAVER	109	n/a	n/a	0	0	0
1190.98095703125	n/a	WORD	2439129	wordpools/wasnorm_wordpool_576.txt	LTP372	ltpFR2	3	5	OX	994	n/a	n/a	0	0	0
1193.61376953125	n/a	WORD	2444521	wordpools/wasnorm_wordpool_576.txt	LTP372	ltpFR2	3	5	FARMER	553	n/a	n/a	0	0	0
1196.294921875	n/a	WORD	2450012	wordpools/wasnorm_wordpool_576.txt	LTP372	ltpFR2	3	5	TURKEY	1520	n/a	n/a	0	0	0
1199.10986328125	n/a	WORD	2455777	wordpools/wasnorm_wordpool_576.txt	LTP372	ltpFR2	3	5	CIGAR	308	n/a	n/a	0	0	0
1201.5595703125	n/a	WORD	2460794	wordpools/wasnorm_wordpool_576.txt	LTP372	ltpFR2	3	5	GHETTO	633	n/a	n/a	0	0	0
1204.1748046875	n/a	WORD	2466150	wordpools/wasnorm_wordpool_576.txt	LTP372	ltpFR2	3	5	JELLY	755	n/a	n/a	0	0	0
1206.640625	n/a	WORD	2471200	wordpools/wasnorm_wordpool_576.txt	LTP372	ltpFR2	3	5	GUARD	667	n/a	n/a	0	0	0
1209.439453125	n/a	WORD	2476932	wordpools/wasnorm_wordpool_576.txt	LTP372	ltpFR2	3	5	ATLAS	53	n/a	n/a	0	0	0
1211.9873046875	n/a	WORD	2482150	wordpools/wasnorm_wordpool_576.txt	LTP372	ltpFR2	3	5	CHAPEL	280	n/a	n/a	0	0	0
1214.68701171875	n/a	WORD	2487679	wordpools/wasnorm_wordpool_576.txt	LTP372	ltpFR2	3	5	POET	1095	n/a	n/a	0	0	0
1217.46923828125	n/a	WORD	2493377	wordpools/wasnorm_wordpool_576.txt	LTP372	ltpFR2	3	5	WHISTLE	1606	n/a	n/a	0	0	0
1220.1669921875	n/a	WORD	2498902	wordpools/wasnorm_wordpool_576.txt	LTP372	ltpFR2	3	5	SMOG	1330	n/a	n/a	0	0	0
1222.96484375	n/a	WORD	2504632	wordpools/wasnorm_wordpool_576.txt	LTP372	ltpFR2	3	5	APRON	35	n/a	n/a	0	0	0
1225.7470703125	n/a	WORD	2510330	wordpools/wasnorm_wordpool_576.txt	LTP372	ltpFR2	3	5	KITCHEN	778	n/a	n/a	0	0	0
1228.345703125	n/a	WORD	2515652	wordpools/wasnorm_wordpool_576.txt	LTP372	ltpFR2	3	5	YARN	1631	n/a	n/a	0	0	0
1231.0615234375	n/a	WORD	2521214	wordpools/wasnorm_wordpool_576.txt	LTP372	ltpFR2	3	5	PADDLE	1000	n/a	n/a	0	0	0
1233.54443359375	n/a	WORD	2526299	wordpools/wasnorm_wordpool_576.txt	LTP372	ltpFR2	3	5	PIZZA	1079	n/a	n/a	0	0	0
1236.275390625	n/a	WORD	2531892	wordpools/wasnorm_wordpool_576.txt	LTP372	ltpFR2	3	5	TWISTER	1530	n/a	n/a	0	0	0
1238.95751953125	n/a	WORD	2537385	wordpools/wasnorm_wordpool_576.txt	LTP372	ltpFR2	3	5	VAGRANT	1544	n/a	n/a	0	0	0
1241.70751953125	n/a	WORD	2543017	wordpools/wasnorm_wordpool_576.txt	LTP372	ltpFR2	3	5	WORLD	1622	n/a	n/a	0	0	0
1244.205078125	n/a	WORD	2548132	wordpools/wasnorm_wordpool_576.txt	LTP372	ltpFR2	3	5	CYCLONE	431	n/a	n/a	0	0	0
1245.8212890625	n/a	START	2551442	n/a	LTP372	ltpFR2	3	n/a	n/a	n/a	10	n/a	n/a	n/a	n/a
1246.65625	n/a	DISTRACTOR	2553152	n/a	LTP372	ltpFR2	3	5	n/a	n/a	n/a	n/a	0	0	0
1246.67138671875	n/a	PROB	2553183	n/a	LTP372	ltpFR2	3	n/a	n/a	n/a	10	13	4	4	5
1248.35302734375	n/a	PROB	2556627	n/a	LTP372	ltpFR2	3	n/a	n/a	n/a	10	11	6	3	2
1249.47021484375	n/a	PROB	2558915	n/a	LTP372	ltpFR2	3	n/a	n/a	n/a	10	20	8	9	3
1250.6533203125	n/a	PROB	2561338	n/a	LTP372	ltpFR2	3	n/a	n/a	n/a	10	15	1	9	5
1251.98486328125	n/a	PROB	2564065	n/a	LTP372	ltpFR2	3	n/a	n/a	n/a	10	15	8	4	3
1253.083984375	n/a	PROB	2566316	n/a	LTP372	ltpFR2	3	n/a	n/a	n/a	10	19	7	5	7
1254.26708984375	n/a	PROB	2568739	n/a	LTP372	ltpFR2	3	n/a	n/a	n/a	10	12	2	7	3
1255.55078125	n/a	PROB	2571368	n/a	LTP372	ltpFR2	3	n/a	n/a	n/a	10	12	3	6	3
1256.68310546875	n/a	PROB	2573687	n/a	LTP372	ltpFR2	3	n/a	n/a	n/a	10	12	6	5	1
1257.83203125	n/a	PROB	2576040	n/a	LTP372	ltpFR2	3	n/a	n/a	n/a	10	20	5	8	7
1259.0146484375	n/a	PROB	2578462	n/a	LTP372	ltpFR2	3	n/a	n/a	n/a	10	15	1	9	5
1260.24658203125	n/a	PROB	2580985	n/a	LTP372	ltpFR2	3	n/a	n/a	n/a	10	24	9	7	8
1261.5146484375	n/a	PROB	2583582	n/a	LTP372	ltpFR2	3	n/a	n/a	n/a	10	14	6	5	3
1263.0458984375	n/a	PROB	2586718	n/a	LTP372	ltpFR2	3	n/a	n/a	n/a	10	19	4	6	9
1264.24560546875	n/a	PROB	2589175	n/a	LTP372	ltpFR2	3	n/a	n/a	n/a	10	14	2	3	9
1265.44580078125	n/a	PROB	2591633	n/a	LTP372	ltpFR2	3	n/a	n/a	n/a	10	10	1	8	1
1266.64453125	n/a	PROB	2594088	n/a	LTP372	ltpFR2	3	n/a	n/a	n/a	10	18	3	8	7
1268.04345703125	n/a	PROB	2596953	n/a	LTP372	ltpFR2	3	n/a	n/a	n/a	10	26	9	9	8
1269.2734375	n/a	STOP	2599472	n/a	LTP372	ltpFR2	3	n/a	n/a	n/a	10	n/a	n/a	n/a	n/a
1271.7265625	n/a	REC_START	2604496	n/a	LTP372	ltpFR2	3	5	n/a	n/a	n/a	n/a	0	0	0
1272.859375	n/a	REC_WORD	2606816	wordpools/wasnorm_wordpool_576.txt	LTP372	ltpFR2	3	5	WORLD	1622	n/a	n/a	0	0	0
1273.63623046875	n/a	REC_WORD	2608407	wordpools/wasnorm_wordpool_576.txt	LTP372	ltpFR2	3	5	CYCLONE	431	n/a	n/a	0	0	0
1276.7041015625	n/a	REC_WORD	2614690	wordpools/wasnorm_wordpool_576.txt	LTP372	ltpFR2	3	5	APRON	35	n/a	n/a	0	0	0
1277.52001953125	n/a	REC_WORD	2616361	wordpools/wasnorm_wordpool_576.txt	LTP372	ltpFR2	3	5	KITCHEN	778	n/a	n/a	0	0	0
1278.21337890625	n/a	REC_WORD	2617781	wordpools/wasnorm_wordpool_576.txt	LTP372	ltpFR2	3	5	YARN	1631	n/a	n/a	0	0	0
1279.0751953125	n/a	REC_WORD	2619546	wordpools/wasnorm_wordpool_576.txt	LTP372	ltpFR2	3	5	PADDLE	1000	n/a	n/a	0	0	0
1284.94384765625	n/a	REC_WORD	2631565	wordpools/wasnorm_wordpool_576.txt	LTP372	ltpFR2	3	5	POET	1095	n/a	n/a	0	0	0
1288.005859375	n/a	REC_WORD	2637836	wordpools/wasnorm_wordpool_576.txt	LTP372	ltpFR2	3	5	CHAPEL	280	n/a	n/a	0	0	0
1292.638671875	n/a	REC_WORD	2647324	wordpools/wasnorm_wordpool_576.txt	LTP372	ltpFR2	3	5	GUARD	667	n/a	n/a	0	0	0
1298.11279296875	n/a	REC_WORD	2658535	wordpools/wasnorm_wordpool_576.txt	LTP372	ltpFR2	3	5	OX	994	n/a	n/a	0	0	0
1299.28955078125	n/a	REC_WORD	2660945	wordpools/wasnorm_wordpool_576.txt	LTP372	ltpFR2	3	5	TURKEY	1520	n/a	n/a	0	0	0
1300.396484375	n/a	REC_WORD	2663212	wordpools/wasnorm_wordpool_576.txt	LTP372	ltpFR2	3	5	FARMER	553	n/a	n/a	0	0	0
1301.21240234375	n/a	REC_WORD	2664883	wordpools/wasnorm_wordpool_576.txt	LTP372	ltpFR2	3	5	CIGAR	308	n/a	n/a	0	0	0
1310.40234375	n/a	REC_WORD	2683704	wordpools/wasnorm_wordpool_576.txt	LTP372	ltpFR2	3	5	SUNRISE	1407	n/a	n/a	0	0	0
1313.94921875	n/a	REC_WORD	2690968	wordpools/wasnorm_wordpool_576.txt	LTP372	ltpFR2	3	5	TOMBSTONE	1478	n/a	n/a	0	0	0
1315.6220703125	n/a	REC_WORD	2694394	wordpools/wasnorm_wordpool_576.txt	LTP372	ltpFR2	3	5	BEAVER	109	n/a	n/a	0	0	0
1339.1513671875	n/a	REC_WORD	2742582	wordpools/wasnorm_wordpool_576.txt	LTP372	ltpFR2	3	5	TWISTER	1530	n/a	n/a	0	0	0
1343.26806640625	n/a	REC_WORD	2751013	wordpools/wasnorm_wordpool_576.txt	LTP372	ltpFR2	3	5	VAGRANT	1544	n/a	n/a	0	0	0
1362.16455078125	n/a	WORD	2789713	wordpools/wasnorm_wordpool_576.txt	LTP372	ltpFR2	3	6	BROTHER	179	n/a	n/a	0	0	0
1364.763671875	n/a	WORD	2795036	wordpools/wasnorm_wordpool_576.txt	LTP372	ltpFR2	3	6	TILE	1468	n/a	n/a	0	0	0
1367.2783203125	n/a	WORD	2800186	wordpools/wasnorm_wordpool_576.txt	LTP372	ltpFR2	3	6	GARLIC	624	n/a	n/a	0	0	0
1369.97705078125	n/a	WORD	2805713	wordpools/wasnorm_wordpool_576.txt	LTP372	ltpFR2	3	6	SUBWAY	1400	n/a	n/a	0	0	0
1372.47705078125	n/a	WORD	2810833	wordpools/wasnorm_wordpool_576.txt	LTP372	ltpFR2	3	6	BANQUET	86	n/a	n/a	0	0	0
1375.02490234375	n/a	WORD	2816051	wordpools/wasnorm_wordpool_576.txt	LTP372	ltpFR2	3	6	CLOCK	325	n/a	n/a	0	0	0
1377.77392578125	n/a	WORD	2821681	wordpools/wasnorm_wordpool_576.txt	LTP372	ltpFR2	3	6	FIDDLE	561	n/a	n/a	0	0	0
1380.23876953125	n/a	WORD	2826729	wordpools/wasnorm_wordpool_576.txt	LTP372	ltpFR2	3	6	FLUTE	585	n/a	n/a	0	0	0
1382.8876953125	n/a	WORD	2832154	wordpools/wasnorm_wordpool_576.txt	LTP372	ltpFR2	3	6	TUNNEL	1519	n/a	n/a	0	0	0
1385.62060546875	n/a	WORD	2837751	wordpools/wasnorm_wordpool_576.txt	LTP372	ltpFR2	3	6	BELLY	119	n/a	n/a	0	0	0
1388.3017578125	n/a	WORD	2843242	wordpools/wasnorm_wordpool_576.txt	LTP372	ltpFR2	3	6	DOUGHNUT	490	n/a	n/a	0	0	0
1390.73486328125	n/a	WORD	2848225	wordpools/wasnorm_wordpool_576.txt	LTP372	ltpFR2	3	6	BRANDY	169	n/a	n/a	0	0	0
1393.45068359375	n/a	WORD	2853787	wordpools/wasnorm_wordpool_576.txt	LTP372	ltpFR2	3	6	BULLET	194	n/a	n/a	0	0	0
1396.181640625	n/a	WORD	2859380	wordpools/wasnorm_wordpool_576.txt	LTP372	ltpFR2	3	6	RUG	1215	n/a	n/a	0	0	0
1398.98046875	n/a	WORD	2865112	wordpools/wasnorm_wordpool_576.txt	LTP372	ltpFR2	3	6	COCOON	339	n/a	n/a	0	0	0
1401.6630859375	n/a	WORD	2870606	wordpools/wasnorm_wordpool_576.txt	LTP372	ltpFR2	3	6	CREATURE	403	n/a	n/a	0	0	0
1404.47802734375	n/a	WORD	2876371	wordpools/wasnorm_wordpool_576.txt	LTP372	ltpFR2	3	6	MASK	876	n/a	n/a	0	0	0
1406.94287109375	n/a	WORD	2881419	wordpools/wasnorm_wordpool_576.txt	LTP372	ltpFR2	3	6	CRUTCH	417	n/a	n/a	0	0	0
1409.7578125	n/a	WORD	2887184	wordpools/wasnorm_wordpool_576.txt	LTP372	ltpFR2	3	6	WRIST	1626	n/a	n/a	0	0	0
1412.22412109375	n/a	WORD	2892235	wordpools/wasnorm_wordpool_576.txt	LTP372	ltpFR2	3	6	CHILD	299	n/a	n/a	0	0	0
1414.90576171875	n/a	WORD	2897727	wordpools/wasnorm_wordpool_576.txt	LTP372	ltpFR2	3	6	BLUEPRINT	142	n/a	n/a	0	0	0
1417.638671875	n/a	WORD	2903324	wordpools/wasnorm_wordpool_576.txt	LTP372	ltpFR2	3	6	PISTOL	1075	n/a	n/a	0	0	0
1420.15283203125	n/a	WORD	2908473	wordpools/wasnorm_wordpool_576.txt	LTP372	ltpFR2	3	6	TRENCH	1503	n/a	n/a	0	0	0
1422.63671875	n/a	WORD	2913560	wordpools/wasnorm_wordpool_576.txt	LTP372	ltpFR2	3	6	SLIME	1327	n/a	n/a	0	0	0
1424.25146484375	n/a	START	2916867	n/a	LTP372	ltpFR2	3	n/a	n/a	n/a	11	n/a	n/a	n/a	n/a
1425.25439453125	n/a	DISTRACTOR	2918921	n/a	LTP372	ltpFR2	3	6	n/a	n/a	n/a	n/a	0	0	0
1425.267578125	n/a	PROB	2918948	n/a	LTP372	ltpFR2	3	n/a	n/a	n/a	11	21	7	5	9
1427.0166015625	n/a	PROB	2922530	n/a	LTP372	ltpFR2	3	n/a	n/a	n/a	11	10	2	2	6
1428.46630859375	n/a	PROB	2925499	n/a	LTP372	ltpFR2	3	n/a	n/a	n/a	11	14	2	3	9
1429.6162109375	n/a	PROB	2927854	n/a	LTP372	ltpFR2	3	n/a	n/a	n/a	11	22	8	8	6
1430.8984375	n/a	PROB	2930480	n/a	LTP372	ltpFR2	3	n/a	n/a	n/a	11	21	7	9	5
1432.18017578125	n/a	PROB	2933105	n/a	LTP372	ltpFR2	3	n/a	n/a	n/a	11	12	3	1	8
1433.38037109375	n/a	PROB	2935563	n/a	LTP372	ltpFR2	3	n/a	n/a	n/a	11	12	6	1	5
1434.72998046875	n/a	PROB	2938327	n/a	LTP372	ltpFR2	3	n/a	n/a	n/a	11	15	8	1	6
1435.9453125	n/a	PROB	2940816	n/a	LTP372	ltpFR2	3	n/a	n/a	n/a	11	12	7	2	3
1437.078125	n/a	PROB	2943136	n/a	LTP372	ltpFR2	3	n/a	n/a	n/a	11	10	2	6	2
1438.2783203125	n/a	PROB	2945594	n/a	LTP372	ltpFR2	3	n/a	n/a	n/a	11	21	9	7	5
1439.51123046875	n/a	PROB	2948119	n/a	LTP372	ltpFR2	3	n/a	n/a	n/a	11	17	8	7	2
1440.84326171875	n/a	PROB	2950847	n/a	LTP372	ltpFR2	3	n/a	n/a	n/a	11	23	7	7	9
1442.14208984375	n/a	PROB	2953507	n/a	LTP372	ltpFR2	3	n/a	n/a	n/a	11	17	8	7	2
1443.375	n/a	PROB	2956032	n/a	LTP372	ltpFR2	3	n/a	n/a	n/a	11	21	8	6	7
1444.67578125	n/a	PROB	2958696	n/a	LTP372	ltpFR2	3	n/a	n/a	n/a	11	15	5	6	4
1446.02392578125	n/a	PROB	2961457	n/a	LTP372	ltpFR2	3	n/a	n/a	n/a	11	8	5	1	2
1447.13671875	n/a	STOP	2963736	n/a	LTP372	ltpFR2	3	n/a	n/a	n/a	11	n/a	n/a	n/a	n/a
1450.0888671875	n/a	REC_START	2969782	n/a	LTP372	ltpFR2	3	6	n/a	n/a	n/a	n/a	0	0	0
1451.3037109375	n/a	REC_WORD	2972270	wordpools/wasnorm_wordpool_576.txt	LTP372	ltpFR2	3	6	BROTHER	179	n/a	n/a	0	0	0
1452.77978515625	n/a	REC_WORD	2975293	wordpools/wasnorm_wordpool_576.txt	LTP372	ltpFR2	3	6	TILE	1468	n/a	n/a	0	0	0
1455.19677734375	n/a	REC_WORD	2980243	wordpools/wasnorm_wordpool_576.txt	LTP372	ltpFR2	3	6	SUBWAY	1400	n/a	n/a	0	0	0
1456.76171875	n/a	REC_WORD	2983448	wordpools/wasnorm_wordpool_576.txt	LTP372	ltpFR2	3	6	BANQUET	86	n/a	n/a	0	0	0
1458.42431640625	n/a	REC_WORD	2986853	wordpools/wasnorm_wordpool_576.txt	LTP372	ltpFR2	3	6	CLOCK	325	n/a	n/a	0	0	0
1469.42626953125	n/a	REC_WORD	3009385	wordpools/wasnorm_wordpool_576.txt	LTP372	ltpFR2	3	6	COCOON	339	n/a	n/a	0	0	0
1470.73291015625	n/a	REC_WORD	3012061	wordpools/wasnorm_wordpool_576.txt	LTP372	ltpFR2	3	6	CREATURE	403	n/a	n/a	0	0	0
1473.4560546875	n/a	REC_WORD	3017638	wordpools/wasnorm_wordpool_576.txt	LTP372	ltpFR2	3	6	CHILD	299	n/a	n/a	0	0	0
1474.66796875	n/a	REC_WORD	3020120	wordpools/wasnorm_wordpool_576.txt	LTP372	ltpFR2	3	6	PISTOL	1075	n/a	n/a	0	0	0
1477.66796875	n/a	REC_WORD	3026264	wordpools/wasnorm_wordpool_576.txt	LTP372	ltpFR2	3	6	BLUEPRINT	142	n/a	n/a	0	0	0
1487.03271484375	n/a	REC_WORD	3045443	wordpools/wasnorm_wordpool_576.txt	LTP372	ltpFR2	3	6	TRENCH	1503	n/a	n/a	0	0	0
1487.96533203125	n/a	REC_WORD	3047353	wordpools/wasnorm_wordpool_576.txt	LTP372	ltpFR2	3	6	SLIME	1327	n/a	n/a	0	0	0
1492.30517578125	n/a	REC_WORD	3056241	wordpools/wasnorm_wordpool_576.txt	LTP372	ltpFR2	3	6	BELLY	119	n/a	n/a	0	0	0
1494.1611328125	n/a	REC_WORD	3060042	wordpools/wasnorm_wordpool_576.txt	LTP372	ltpFR2	3	6	DOUGHNUT	490	n/a	n/a	0	0	0
1495.7763671875	n/a	REC_WORD	3063350	wordpools/wasnorm_wordpool_576.txt	LTP372	ltpFR2	3	6	BRANDY	169	n/a	n/a	0	0	0
1503.88623046875	n/a	REC_WORD	3079959	wordpools/wasnorm_wordpool_576.txt	LTP372	ltpFR2	3	6	CRUTCH	417	n/a	n/a	0	0	0
1506.1630859375	n/a	REC_WORD	3084622	wordpools/wasnorm_wordpool_576.txt	LTP372	ltpFR2	3	6	WRIST	1626	n/a	n/a	0	0	0
1540.5126953125	n/a	DISTRACTOR	3154970	n/a	LTP372	ltpFR2	3	7	n/a	n/a	n/a	n/a	0	0	0
1540.5126953125	n/a	START	3154970	n/a	LTP372	ltpFR2	3	n/a	n/a	n/a	12	n/a	n/a	n/a	n/a
1540.52880859375	n/a	PROB	3155003	n/a	LTP372	ltpFR2	3	n/a	n/a	n/a	12	19	4	6	9
1542.19384765625	n/a	PROB	3158413	n/a	LTP372	ltpFR2	3	n/a	n/a	n/a	12	19	2	9	8
1543.61083984375	n/a	PROB	3161315	n/a	LTP372	ltpFR2	3	n/a	n/a	n/a	12	11	1	3	7
1544.7109375	n/a	PROB	3163568	n/a	LTP372	ltpFR2	3	n/a	n/a	n/a	12	8	1	5	2
1545.95849609375	n/a	PROB	3166123	n/a	LTP372	ltpFR2	3	n/a	n/a	n/a	12	7	1	2	4
1547.40966796875	n/a	PROB	3169095	n/a	LTP372	ltpFR2	3	n/a	n/a	n/a	12	12	4	6	2
1548.67578125	n/a	PROB	3171688	n/a	LTP372	ltpFR2	3	n/a	n/a	n/a	12	13	4	4	5
1550.15673828125	n/a	PROB	3174721	n/a	LTP372	ltpFR2	3	n/a	n/a	n/a	12	19	4	7	8
1551.57373046875	n/a	PROB	3177623	n/a	LTP372	ltpFR2	3	n/a	n/a	n/a	12	5	1	1	3
1552.70654296875	n/a	PROB	3179943	n/a	LTP372	ltpFR2	3	n/a	n/a	n/a	12	16	3	9	4
1553.85546875	n/a	PROB	3182296	n/a	LTP372	ltpFR2	3	n/a	n/a	n/a	12	17	9	3	5
1555.13818359375	n/a	PROB	3184923	n/a	LTP372	ltpFR2	3	n/a	n/a	n/a	12	19	7	6	6
1556.4384765625	n/a	PROB	3187586	n/a	LTP372	ltpFR2	3	n/a	n/a	n/a	12	17	7	4	6
1557.7705078125	n/a	PROB	3190314	n/a	LTP372	ltpFR2	3	n/a	n/a	n/a	12	20	6	7	7
1559.00439453125	n/a	PROB	3192841	n/a	LTP372	ltpFR2	3	n/a	n/a	n/a	12	12	3	2	7
1560.16943359375	n/a	PROB	3195227	n/a	LTP372	ltpFR2	3	n/a	n/a	n/a	12	14	8	1	5
1561.46923828125	n/a	PROB	3197889	n/a	LTP372	ltpFR2	3	n/a	n/a	n/a	12	9	1	3	5
1562.55224609375	n/a	PROB	3200107	n/a	LTP372	ltpFR2	3	n/a	n/a	n/a	12	17	7	5	5
1563.67431640625	n/a	STOP	3202405	n/a	LTP372	ltpFR2	3	n/a	n/a	n/a	12	n/a	n/a	n/a	n/a
1565.5341796875	n/a	WORD	3206214	wordpools/wasnorm_wordpool_576.txt	LTP372	ltpFR2	3	7	PAPER	1011	n/a	n/a	0	0	0
1568.23193359375	n/a	WORD	3211739	wordpools/wasnorm_wordpool_576.txt	LTP372	ltpFR2	3	7	MATTRESS	879	n/a	n/a	0	0	0
1570.86376953125	n/a	WORD	3217129	wordpools/wasnorm_wordpool_576.txt	LTP372	ltpFR2	3	7	DRAGON	492	n/a	n/a	0	0	0
1573.61279296875	n/a	WORD	3222759	wordpools/wasnorm_wordpool_576.txt	LTP372	ltpFR2	3	7	CONVICT	371	n/a	n/a	0	0	0
1576.3779296875	n/a	WORD	3228422	wordpools/wasnorm_wordpool_576.txt	LTP372	ltpFR2	3	7	WRENCH	1625	n/a	n/a	0	0	0
1578.8095703125	n/a	WORD	3233402	wordpools/wasnorm_wordpool_576.txt	LTP372	ltpFR2	3	7	PLIERS	1089	n/a	n/a	0	0	0
1581.29150390625	n/a	WORD	3238485	wordpools/wasnorm_wordpool_576.txt	LTP372	ltpFR2	3	7	BALLOON	75	n/a	n/a	0	0	0
1583.9736328125	n/a	WORD	3243978	wordpools/wasnorm_wordpool_576.txt	LTP372	ltpFR2	3	7	OZONE	996	n/a	n/a	0	0	0
1586.62353515625	n/a	WORD	3249405	wordpools/wasnorm_wordpool_576.txt	LTP372	ltpFR2	3	7	ANTLER	29	n/a	n/a	0	0	0
1589.2880859375	n/a	WORD	3254862	wordpools/wasnorm_wordpool_576.txt	LTP372	ltpFR2	3	7	COFFEE	341	n/a	n/a	0	0	0
1591.7373046875	n/a	WORD	3259878	wordpools/wasnorm_wordpool_576.txt	LTP372	ltpFR2	3	7	INFANT	737	n/a	n/a	0	0	0
1594.2353515625	n/a	WORD	3264994	wordpools/wasnorm_wordpool_576.txt	LTP372	ltpFR2	3	7	STONE	1385	n/a	n/a	0	0	0
1596.96826171875	n/a	WORD	3270591	wordpools/wasnorm_wordpool_576.txt	LTP372	ltpFR2	3	7	GAZELLE	628	n/a	n/a	0	0	0
1599.5341796875	n/a	WORD	3275846	wordpools/wasnorm_wordpool_576.txt	LTP372	ltpFR2	3	7	BUREAU	199	n/a	n/a	0	0	0
1602.03173828125	n/a	WORD	3280961	wordpools/wasnorm_wordpool_576.txt	LTP372	ltpFR2	3	7	RABBIT	1152	n/a	n/a	0	0	0
1604.78076171875	n/a	WORD	3286591	wordpools/wasnorm_wordpool_576.txt	LTP372	ltpFR2	3	7	RADISH	1158	n/a	n/a	0	0	0
1607.4296875	n/a	WORD	3292016	wordpools/wasnorm_wordpool_576.txt	LTP372	ltpFR2	3	7	ROBOT	1200	n/a	n/a	0	0	0
1610.16162109375	n/a	WORD	3297611	wordpools/wasnorm_wordpool_576.txt	LTP372	ltpFR2	3	7	FLESH	579	n/a	n/a	0	0	0
1612.62744140625	n/a	WORD	3302661	wordpools/wasnorm_wordpool_576.txt	LTP372	ltpFR2	3	7	CLAMP	316	n/a	n/a	0	0	0
1615.142578125	n/a	WORD	3307812	wordpools/wasnorm_wordpool_576.txt	LTP372	ltpFR2	3	7	SWAMP	1416	n/a	n/a	0	0	0
1617.857421875	n/a	WORD	3313372	wordpools/wasnorm_wordpool_576.txt	LTP372	ltpFR2	3	7	PIGEON	1065	n/a	n/a	0	0	0
1620.37353515625	n/a	WORD	3318525	wordpools/wasnorm_wordpool_576.txt	LTP372	ltpFR2	3	7	KIDNEY	776	n/a	n/a	0	0	0
1622.92138671875	n/a	WORD	3323743	wordpools/wasnorm_wordpool_576.txt	LTP372	ltpFR2	3	7	TEMPLE	1448	n/a	n/a	0	0	0
1625.72119140625	n/a	WORD	3329477	wordpools/wasnorm_wordpool_576.txt	LTP372	ltpFR2	3	7	SHERIFF	1284	n/a	n/a	0	0	0
1627.3359375	n/a	START	3332784	n/a	LTP372	ltpFR2	3	n/a	n/a	n/a	13	n/a	n/a	n/a	n/a
1628.5048828125	n/a	DISTRACTOR	3335178	n/a	LTP372	ltpFR2	3	7	n/a	n/a	n/a	n/a	0	0	0
1628.52001953125	n/a	PROB	3335209	n/a	LTP372	ltpFR2	3	n/a	n/a	n/a	13	19	7	3	9
1630.80078125	n/a	PROB	3339880	n/a	LTP372	ltpFR2	3	n/a	n/a	n/a	13	18	9	6	3
1631.95068359375	n/a	PROB	3342235	n/a	LTP372	ltpFR2	3	n/a	n/a	n/a	13	19	3	8	8
1633.216796875	n/a	PROB	3344828	n/a	LTP372	ltpFR2	3	n/a	n/a	n/a	13	13	5	3	5
1636.08203125	n/a	PROB	3350696	n/a	LTP372	ltpFR2	3	n/a	n/a	n/a	13	13	3	1	9
1637.19775390625	n/a	PROB	3352981	n/a	LTP372	ltpFR2	3	n/a	n/a	n/a	13	14	4	2	8
1638.53173828125	n/a	PROB	3355713	n/a	LTP372	ltpFR2	3	n/a	n/a	n/a	13	15	2	5	8
1639.59765625	n/a	PROB	3357896	n/a	LTP372	ltpFR2	3	n/a	n/a	n/a	13	8	3	1	4
1640.94677734375	n/a	PROB	3360659	n/a	LTP372	ltpFR2	3	n/a	n/a	n/a	13	11	8	2	1
1642.04541015625	n/a	PROB	3362909	n/a	LTP372	ltpFR2	3	n/a	n/a	n/a	13	11	1	1	9
1643.21142578125	n/a	PROB	3365297	n/a	LTP372	ltpFR2	3	n/a	n/a	n/a	13	15	7	2	6
1644.361328125	n/a	PROB	3367652	n/a	LTP372	ltpFR2	3	n/a	n/a	n/a	13	16	7	6	3
1645.77734375	n/a	PROB	3370552	n/a	LTP372	ltpFR2	3	n/a	n/a	n/a	13	9	7	1	1
1646.87646484375	n/a	PROB	3372803	n/a	LTP372	ltpFR2	3	n/a	n/a	n/a	13	8	1	4	3
1648.3095703125	n/a	PROB	3375738	n/a	LTP372	ltpFR2	3	n/a	n/a	n/a	13	20	3	8	9
1650.47412109375	n/a	STOP	3380171	n/a	LTP372	ltpFR2	3	n/a	n/a	n/a	13	n/a	n/a	n/a	n/a
1653.1240234375	n/a	REC_START	3385598	n/a	LTP372	ltpFR2	3	7	n/a	n/a	n/a	n/a	0	0	0
1654.56201171875	n/a	REC_WORD	3388543	wordpools/wasnorm_wordpool_576.txt	LTP372	ltpFR2	3	7	PAPER	1011	n/a	n/a	0	0	0
1655.6513671875	n/a	REC_WORD	3390774	wordpools/wasnorm_wordpool_576.txt	LTP372	ltpFR2	3	7	MATTRESS	879	n/a	n/a	0	0	0
1662.77099609375	n/a	REC_WORD	3405355	wordpools/wasnorm_wordpool_576.txt	LTP372	ltpFR2	3	7	CONVICT	371	n/a	n/a	0	0	0
1670.353515625	n/a	REC_WORD	3420884	wordpools/wasnorm_wordpool_576.txt	LTP372	ltpFR2	3	7	GAZELLE	628	n/a	n/a	0	0	0
1671.90087890625	n/a	REC_WORD	3424053	wordpools/wasnorm_wordpool_576.txt	LTP372	ltpFR2	3	7	INFANT	737	n/a	n/a	0	0	0
1672.85986328125	n/a	REC_WORD	3426017	wordpools/wasnorm_wordpool_576.txt	LTP372	ltpFR2	3	7	STONE	1385	n/a	n/a	0	0	0
1677.78564453125	n/a	REC_WORD	3436105	wordpools/wasnorm_wordpool_576.txt	LTP372	ltpFR2	3	7	RABBIT	1152	n/a	n/a	0	0	0
1679.197265625	n/a	REC_WORD	3438996	wordpools/wasnorm_wordpool_576.txt	LTP372	ltpFR2	3	7	RADISH	1158	n/a	n/a	0	0	0
1681.96337890625	n/a	REC_WORD	3444661	wordpools/wasnorm_wordpool_576.txt	LTP372	ltpFR2	3	7	ROBOT	1200	n/a	n/a	0	0	0
1682.9365234375	n/a	REC_WORD	3446654	wordpools/wasnorm_wordpool_576.txt	LTP372	ltpFR2	3	7	FLESH	579	n/a	n/a	0	0	0
1684.30908203125	n/a	REC_WORD	3449465	wordpools/wasnorm_wordpool_576.txt	LTP372	ltpFR2	3	7	CLAMP	316	n/a	n/a	0	0	0
1686.46533203125	n/a	REC_WORD	3453881	wordpools/wasnorm_wordpool_576.txt	LTP372	ltpFR2	3	7	SWAMP	1416	n/a	n/a	0	0	0
1688.43212890625	n/a	REC_WORD	3457909	wordpools/wasnorm_wordpool_576.txt	LTP372	ltpFR2	3	7	TEMPLE	1448	n/a	n/a	0	0	0
1693.1298828125	n/a	REC_WORD	3467530	wordpools/wasnorm_wordpool_576.txt	LTP372	ltpFR2	3	7	SHERIFF	1284	n/a	n/a	0	0	0
1704.63037109375	n/a	REC_WORD	3491083	wordpools/wasnorm_wordpool_576.txt	LTP372	ltpFR2	3	7	PIGEON	1065	n/a	n/a	0	0	0
1705.82275390625	n/a	REC_WORD	3493525	wordpools/wasnorm_wordpool_576.txt	LTP372	ltpFR2	3	7	KIDNEY	776	n/a	n/a	0	0	0
1723.10009765625	n/a	REC_WORD	3528909	wordpools/wasnorm_wordpool_576.txt	LTP372	ltpFR2	3	7	DRAGON	492	n/a	n/a	0	0	0
1743.58154296875	n/a	WORD	3570855	wordpools/wasnorm_wordpool_576.txt	LTP372	ltpFR2	3	8	LAMP	798	n/a	n/a	0	0	0
1746.01220703125	n/a	WORD	3575833	wordpools/wasnorm_wordpool_576.txt	LTP372	ltpFR2	3	8	SCISSORS	1250	n/a	n/a	0	0	0
1748.6953125	n/a	WORD	3581328	wordpools/wasnorm_wordpool_576.txt	LTP372	ltpFR2	3	8	SCALPEL	1243	n/a	n/a	0	0	0
1751.494140625	n/a	WORD	3587060	wordpools/wasnorm_wordpool_576.txt	LTP372	ltpFR2	3	8	BACKBONE	66	n/a	n/a	0	0	0
1754.10791015625	n/a	WORD	3592413	wordpools/wasnorm_wordpool_576.txt	LTP372	ltpFR2	3	8	PENGUIN	1044	n/a	n/a	0	0	0
1756.65771484375	n/a	WORD	3597635	wordpools/wasnorm_wordpool_576.txt	LTP372	ltpFR2	3	8	NAPKIN	937	n/a	n/a	0	0	0
1759.123046875	n/a	WORD	3602684	wordpools/wasnorm_wordpool_576.txt	LTP372	ltpFR2	3	8	FEMALE	559	n/a	n/a	0	0	0
1761.78759765625	n/a	WORD	3608141	wordpools/wasnorm_wordpool_576.txt	LTP372	ltpFR2	3	8	SALMON	1227	n/a	n/a	0	0	0
1764.5205078125	n/a	WORD	3613738	wordpools/wasnorm_wordpool_576.txt	LTP372	ltpFR2	3	8	VIRUS	1572	n/a	n/a	0	0	0
1766.95166015625	n/a	WORD	3618717	wordpools/wasnorm_wordpool_576.txt	LTP372	ltpFR2	3	8	GROUND	666	n/a	n/a	0	0	0
1769.4853515625	n/a	WORD	3623906	wordpools/wasnorm_wordpool_576.txt	LTP372	ltpFR2	3	8	SKETCH	1315	n/a	n/a	0	0	0
1772.099609375	n/a	WORD	3629260	wordpools/wasnorm_wordpool_576.txt	LTP372	ltpFR2	3	8	MUSTARD	935	n/a	n/a	0	0	0
1774.91455078125	n/a	WORD	3635025	wordpools/wasnorm_wordpool_576.txt	LTP372	ltpFR2	3	8	BOYFRIEND	162	n/a	n/a	0	0	0
1777.6982421875	n/a	WORD	3640726	wordpools/wasnorm_wordpool_576.txt	LTP372	ltpFR2	3	8	LOVER	846	n/a	n/a	0	0	0
1780.14501953125	n/a	WORD	3645737	wordpools/wasnorm_wordpool_576.txt	LTP372	ltpFR2	3	8	LADDER	793	n/a	n/a	0	0	0
1782.84423828125	n/a	WORD	3651265	wordpools/wasnorm_wordpool_576.txt	LTP372	ltpFR2	3	8	LOFT	840	n/a	n/a	0	0	0
1785.29296875	n/a	WORD	3656280	wordpools/wasnorm_wordpool_576.txt	LTP372	ltpFR2	3	8	AWARD	63	n/a	n/a	0	0	0
1787.9921875	n/a	WORD	3661808	wordpools/wasnorm_wordpool_576.txt	LTP372	ltpFR2	3	8	FRIEND	606	n/a	n/a	0	0	0
1790.55810546875	n/a	WORD	3667063	wordpools/wasnorm_wordpool_576.txt	LTP372	ltpFR2	3	8	HARP	689	n/a	n/a	0	0	0
1793.37255859375	n/a	WORD	3672827	wordpools/wasnorm_wordpool_576.txt	LTP372	ltpFR2	3	8	TROMBONE	1508	n/a	n/a	0	0	0
1796.087890625	n/a	WORD	3678388	wordpools/wasnorm_wordpool_576.txt	LTP372	ltpFR2	3	8	GARBAGE	622	n/a	n/a	0	0	0
1798.75341796875	n/a	WORD	3683847	wordpools/wasnorm_wordpool_576.txt	LTP372	ltpFR2	3	8	AIRPLANE	12	n/a	n/a	0	0	0
1801.4365234375	n/a	WORD	3689342	wordpools/wasnorm_wordpool_576.txt	LTP372	ltpFR2	3	8	SCRIBBLE	1256	n/a	n/a	0	0	0
1804.21728515625	n/a	WORD	3695037	wordpools/wasnorm_wordpool_576.txt	LTP372	ltpFR2	3	8	CAMEL	223	n/a	n/a	0	0	0
1805.83349609375	n/a	START	3698347	n/a	LTP372	ltpFR2	3	n/a	n/a	n/a	14	n/a	n/a	n/a	n/a
1806.76953125	n/a	DISTRACTOR	3700264	n/a	LTP372	ltpFR2	3	8	n/a	n/a	n/a	n/a	0	0	0
1806.7822265625	n/a	PROB	3700290	n/a	LTP372	ltpFR2	3	n/a	n/a	n/a	14	17	8	2	7
1808.63330078125	n/a	PROB	3704081	n/a	LTP372	ltpFR2	3	n/a	n/a	n/a	14	9	2	1	6
1809.748046875	n/a	PROB	3706364	n/a	LTP372	ltpFR2	3	n/a	n/a	n/a	14	19	7	7	5
1811.14697265625	n/a	PROB	3709229	n/a	LTP372	ltpFR2	3	n/a	n/a	n/a	14	22	9	5	8
1812.48095703125	n/a	PROB	3711961	n/a	LTP372	ltpFR2	3	n/a	n/a	n/a	14	15	4	3	8
1813.6640625	n/a	PROB	3714384	n/a	LTP372	ltpFR2	3	n/a	n/a	n/a	14	22	7	6	9
1814.912109375	n/a	PROB	3716940	n/a	LTP372	ltpFR2	3	n/a	n/a	n/a	14	9	1	5	3
1816.36083984375	n/a	PROB	3719907	n/a	LTP372	ltpFR2	3	n/a	n/a	n/a	14	7	4	1	2
1817.6279296875	n/a	PROB	3722502	n/a	LTP372	ltpFR2	3	n/a	n/a	n/a	14	19	2	9	8
1818.91015625	n/a	PROB	3725128	n/a	LTP372	ltpFR2	3	n/a	n/a	n/a	14	21	9	9	3
1820.29296875	n/a	PROB	3727960	n/a	LTP372	ltpFR2	3	n/a	n/a	n/a	14	19	6	6	7
1821.85888671875	n/a	PROB	3731167	n/a	LTP372	ltpFR2	3	n/a	n/a	n/a	14	13	7	2	4
1823.15771484375	n/a	PROB	3733827	n/a	LTP372	ltpFR2	3	n/a	n/a	n/a	14	11	1	6	4
1824.923828125	n/a	PROB	3737444	n/a	LTP372	ltpFR2	3	n/a	n/a	n/a	14	17	3	5	9
1826.173828125	n/a	PROB	3740004	n/a	LTP372	ltpFR2	3	n/a	n/a	n/a	14	16	8	6	2
1828.36865234375	n/a	STOP	3744499	n/a	LTP372	ltpFR2	3	n/a	n/a	n/a	14	n/a	n/a	n/a	n/a
1831.67236328125	n/a	REC_START	3751265	n/a	LTP372	ltpFR2	3	8	n/a	n/a	n/a	n/a	0	0	0
1834.9853515625	n/a	REC_WORD	3758050	wordpools/wasnorm_wordpool_576.txt	LTP372	ltpFR2	3	8	BOYFRIEND	162	n/a	n/a	0	0	0
1835.96923828125	n/a	REC_WORD	3760065	wordpools/wasnorm_wordpool_576.txt	LTP372	ltpFR2	3	8	LOVER	846	n/a	n/a	0	0	0
1837.41455078125	n/a	REC_WORD	3763025	wordpools/wasnorm_wordpool_576.txt	LTP372	ltpFR2	3	8	FRIEND	606	n/a	n/a	0	0	0
1839.16650390625	n/a	REC_WORD	3766613	wordpools/wasnorm_wordpool_576.txt	LTP372	ltpFR2	3	8	LADDER	793	n/a	n/a	0	0	0
1840.33740234375	n/a	REC_WORD	3769011	wordpools/wasnorm_wordpool_576.txt	LTP372	ltpFR2	3	8	LOFT	840	n/a	n/a	0	0	0
1843.2900390625	n/a	REC_WORD	3775058	wordpools/wasnorm_wordpool_576.txt	LTP372	ltpFR2	3	8	HARP	689	n/a	n/a	0	0	0
1844.26220703125	n/a	REC_WORD	3777049	wordpools/wasnorm_wordpool_576.txt	LTP372	ltpFR2	3	8	TROMBONE	1508	n/a	n/a	0	0	0
1846.60400390625	n/a	REC_WORD	3781845	wordpools/wasnorm_wordpool_576.txt	LTP372	ltpFR2	3	8	GARBAGE	622	n/a	n/a	0	0	0
1848.34521484375	n/a	REC_WORD	3785411	wordpools/wasnorm_wordpool_576.txt	LTP372	ltpFR2	3	8	AIRPLANE	12	n/a	n/a	0	0	0
1849.3662109375	n/a	REC_WORD	3787502	wordpools/wasnorm_wordpool_576.txt	LTP372	ltpFR2	3	8	SCRIBBLE	1256	n/a	n/a	0	0	0
1850.76708984375	n/a	REC_WORD	3790371	wordpools/wasnorm_wordpool_576.txt	LTP372	ltpFR2	3	8	CAMEL	223	n/a	n/a	0	0	0
1853.44091796875	n/a	REC_WORD	3795847	wordpools/wasnorm_wordpool_576.txt	LTP372	ltpFR2	3	8	AWARD	63	n/a	n/a	0	0	0
1861.6484375	n/a	REC_WORD	3812656	wordpools/wasnorm_wordpool_576.txt	LTP372	ltpFR2	3	8	LAMP	798	n/a	n/a	0	0	0
1862.646484375	n/a	REC_WORD	3814700	wordpools/wasnorm_wordpool_576.txt	LTP372	ltpFR2	3	8	SCISSORS	1250	n/a	n/a	0	0	0
1863.734375	n/a	REC_WORD	3816928	wordpools/wasnorm_wordpool_576.txt	LTP372	ltpFR2	3	8	SCALPEL	1243	n/a	n/a	0	0	0
1908.21728515625	n/a	REST_REWET	3908029	n/a	LTP372	ltpFR2	3	8	n/a	n/a	n/a	n/a	0	0	0
2055.728515625	n/a	DISTRACTOR	4210132	n/a	LTP372	ltpFR2	3	9	n/a	n/a	n/a	n/a	0	0	0
2055.7294921875	n/a	START	4210134	n/a	LTP372	ltpFR2	3	n/a	n/a	n/a	15	n/a	n/a	n/a	n/a
2055.74560546875	n/a	PROB	4210167	n/a	LTP372	ltpFR2	3	n/a	n/a	n/a	15	17	4	4	9
2057.59521484375	n/a	PROB	4213955	n/a	LTP372	ltpFR2	3	n/a	n/a	n/a	15	22	9	6	7
2058.8603515625	n/a	PROB	4216546	n/a	LTP372	ltpFR2	3	n/a	n/a	n/a	15	10	1	7	2
2060.09326171875	n/a	PROB	4219071	n/a	LTP372	ltpFR2	3	n/a	n/a	n/a	15	15	7	2	6
2061.326171875	n/a	PROB	4221596	n/a	LTP372	ltpFR2	3	n/a	n/a	n/a	15	16	6	6	4
2062.41015625	n/a	PROB	4223816	n/a	LTP372	ltpFR2	3	n/a	n/a	n/a	15	25	9	8	8
2063.97509765625	n/a	PROB	4227021	n/a	LTP372	ltpFR2	3	n/a	n/a	n/a	15	10	3	4	3
2065.1240234375	n/a	PROB	4229374	n/a	LTP372	ltpFR2	3	n/a	n/a	n/a	15	13	3	8	2
2066.2568359375	n/a	PROB	4231694	n/a	LTP372	ltpFR2	3	n/a	n/a	n/a	15	17	7	2	8
2067.52392578125	n/a	PROB	4234289	n/a	LTP372	ltpFR2	3	n/a	n/a	n/a	15	21	6	6	9
2068.85595703125	n/a	PROB	4237017	n/a	LTP372	ltpFR2	3	n/a	n/a	n/a	15	10	3	3	4
2070.38916015625	n/a	PROB	4240157	n/a	LTP372	ltpFR2	3	n/a	n/a	n/a	15	15	9	4	2
2071.8876953125	n/a	PROB	4243226	n/a	LTP372	ltpFR2	3	n/a	n/a	n/a	15	12	9	1	2
2073.3037109375	n/a	PROB	4246126	n/a	LTP372	ltpFR2	3	n/a	n/a	n/a	15	15	4	8	3
2074.43798828125	n/a	PROB	4248449	n/a	LTP372	ltpFR2	3	n/a	n/a	n/a	15	10	2	2	6
2075.61962890625	n/a	PROB	4250869	n/a	LTP372	ltpFR2	3	n/a	n/a	n/a	15	20	8	6	6
2076.95166015625	n/a	PROB	4253597	n/a	LTP372	ltpFR2	3	n/a	n/a	n/a	15	16	6	8	2
2078.0517578125	n/a	PROB	4255850	n/a	LTP372	ltpFR2	3	n/a	n/a	n/a	15	10	2	7	1
2079.1845703125	n/a	STOP	4258170	n/a	LTP372	ltpFR2	3	n/a	n/a	n/a	15	n/a	n/a	n/a	n/a
2080.66748046875	n/a	WORD	4261207	wordpools/wasnorm_wordpool_576.txt	LTP372	ltpFR2	3	9	TOASTER	1472	n/a	n/a	0	0	0
2083.36572265625	n/a	WORD	4266733	wordpools/wasnorm_wordpool_576.txt	LTP372	ltpFR2	3	9	CHAUFFEUR	283	n/a	n/a	0	0	0
2086.1474609375	n/a	WORD	4272430	wordpools/wasnorm_wordpool_576.txt	LTP372	ltpFR2	3	9	HIGHWAY	707	n/a	n/a	0	0	0
2088.8125	n/a	WORD	4277888	wordpools/wasnorm_wordpool_576.txt	LTP372	ltpFR2	3	9	SPIDER	1351	n/a	n/a	0	0	0
2091.37841796875	n/a	WORD	4283143	wordpools/wasnorm_wordpool_576.txt	LTP372	ltpFR2	3	9	COD	340	n/a	n/a	0	0	0
2094.16015625	n/a	WORD	4288840	wordpools/wasnorm_wordpool_576.txt	LTP372	ltpFR2	3	9	STALLION	1369	n/a	n/a	0	0	0
2096.60986328125	n/a	WORD	4293857	wordpools/wasnorm_wordpool_576.txt	LTP372	ltpFR2	3	9	QUEEN	1149	n/a	n/a	0	0	0
2099.05810546875	n/a	WORD	4298871	wordpools/wasnorm_wordpool_576.txt	LTP372	ltpFR2	3	9	CRAB	397	n/a	n/a	0	0	0
2101.55810546875	n/a	WORD	4303991	wordpools/wasnorm_wordpool_576.txt	LTP372	ltpFR2	3	9	JELLO	754	n/a	n/a	0	0	0
2104.15478515625	n/a	WORD	4309309	wordpools/wasnorm_wordpool_576.txt	LTP372	ltpFR2	3	9	CUSTARD	429	n/a	n/a	0	0	0
2106.671875	n/a	WORD	4314464	wordpools/wasnorm_wordpool_576.txt	LTP372	ltpFR2	3	9	FRUIT	610	n/a	n/a	0	0	0
2109.20263671875	n/a	WORD	4319647	wordpools/wasnorm_wordpool_576.txt	LTP372	ltpFR2	3	9	SPARROW	1347	n/a	n/a	0	0	0
2111.8017578125	n/a	WORD	4324970	wordpools/wasnorm_wordpool_576.txt	LTP372	ltpFR2	3	9	CARRIAGE	248	n/a	n/a	0	0	0
2114.33349609375	n/a	WORD	4330155	wordpools/wasnorm_wordpool_576.txt	LTP372	ltpFR2	3	9	SEAGULL	1261	n/a	n/a	0	0	0
2117.13232421875	n/a	WORD	4335887	wordpools/wasnorm_wordpool_576.txt	LTP372	ltpFR2	3	9	STAR	1373	n/a	n/a	0	0	0
2119.5654296875	n/a	WORD	4340870	wordpools/wasnorm_wordpool_576.txt	LTP372	ltpFR2	3	9	CREVICE	405	n/a	n/a	0	0	0
2122.04638671875	n/a	WORD	4345951	wordpools/wasnorm_wordpool_576.txt	LTP372	ltpFR2	3	9	FILM	565	n/a	n/a	0	0	0
2124.59619140625	n/a	WORD	4351173	wordpools/wasnorm_wordpool_576.txt	LTP372	ltpFR2	3	9	PRIMATE	1123	n/a	n/a	0	0	0
2127.3271484375	n/a	WORD	4356766	wordpools/wasnorm_wordpool_576.txt	LTP372	ltpFR2	3	9	SPHINX	1349	n/a	n/a	0	0	0
2129.89306640625	n/a	WORD	4362021	wordpools/wasnorm_wordpool_576.txt	LTP372	ltpFR2	3	9	IGLOO	734	n/a	n/a	0	0	0
2132.708984375	n/a	WORD	4367788	wordpools/wasnorm_wordpool_576.txt	LTP372	ltpFR2	3	9	BANK	83	n/a	n/a	0	0	0
2135.23974609375	n/a	WORD	4372971	wordpools/wasnorm_wordpool_576.txt	LTP372	ltpFR2	3	9	PEPPER	1047	n/a	n/a	0	0	0
2137.8056640625	n/a	WORD	4378226	wordpools/wasnorm_wordpool_576.txt	LTP372	ltpFR2	3	9	RUST	1219	n/a	n/a	0	0	0
2140.23779296875	n/a	WORD	4383207	wordpools/wasnorm_wordpool_576.txt	LTP372	ltpFR2	3	9	MOTOR	922	n/a	n/a	0	0	0
2141.853515625	n/a	START	4386516	n/a	LTP372	ltpFR2	3	n/a	n/a	n/a	16	n/a	n/a	n/a	n/a
2142.93359375	n/a	DISTRACTOR	4388728	n/a	LTP372	ltpFR2	3	9	n/a	n/a	n/a	n/a	0	0	0
2142.9365234375	n/a	PROB	4388734	n/a	LTP372	ltpFR2	3	n/a	n/a	n/a	16	6	1	4	1
2144.62060546875	n/a	PROB	4392183	n/a	LTP372	ltpFR2	3	n/a	n/a	n/a	16	21	6	7	8
2146.66943359375	n/a	PROB	4396379	n/a	LTP372	ltpFR2	3	n/a	n/a	n/a	16	16	4	7	5
2147.88427734375	n/a	PROB	4398867	n/a	LTP372	ltpFR2	3	n/a	n/a	n/a	16	12	1	5	6
2149.25048828125	n/a	PROB	4401665	n/a	LTP372	ltpFR2	3	n/a	n/a	n/a	16	18	8	3	7
2150.3662109375	n/a	PROB	4403950	n/a	LTP372	ltpFR2	3	n/a	n/a	n/a	16	23	9	9	5
2151.68310546875	n/a	PROB	4406647	n/a	LTP372	ltpFR2	3	n/a	n/a	n/a	16	13	4	7	2
2152.9482421875	n/a	PROB	4409238	n/a	LTP372	ltpFR2	3	n/a	n/a	n/a	16	16	8	7	1
2154.3642578125	n/a	PROB	4412138	n/a	LTP372	ltpFR2	3	n/a	n/a	n/a	16	13	2	4	7
2155.5810546875	n/a	PROB	4414630	n/a	LTP372	ltpFR2	3	n/a	n/a	n/a	16	19	9	3	7
2156.84619140625	n/a	PROB	4417221	n/a	LTP372	ltpFR2	3	n/a	n/a	n/a	16	15	8	4	3
2157.99609375	n/a	PROB	4419576	n/a	LTP372	ltpFR2	3	n/a	n/a	n/a	16	17	9	1	7
2159.1953125	n/a	PROB	4422032	n/a	LTP372	ltpFR2	3	n/a	n/a	n/a	16	21	9	5	7
2160.36083984375	n/a	PROB	4424419	n/a	LTP372	ltpFR2	3	n/a	n/a	n/a	16	21	7	5	9
2162.578125	n/a	PROB	4428960	n/a	LTP372	ltpFR2	3	n/a	n/a	n/a	16	18	6	4	8
2163.72705078125	n/a	PROB	4431313	n/a	LTP372	ltpFR2	3	n/a	n/a	n/a	16	22	6	8	8
2165.208984375	n/a	STOP	4434348	n/a	LTP372	ltpFR2	3	n/a	n/a	n/a	16	n/a	n/a	n/a	n/a
2167.7919921875	n/a	REC_START	4439638	n/a	LTP372	ltpFR2	3	9	n/a	n/a	n/a	n/a	0	0	0
2169.419921875	n/a	REC_WORD	4442972	wordpools/wasnorm_wordpool_576.txt	LTP372	ltpFR2	3	9	CHAUFFEUR	283	n/a	n/a	0	0	0
2175.8994140625	n/a	REC_WORD	4456242	wordpools/wasnorm_wordpool_576.txt	LTP372	ltpFR2	3	9	QUEEN	1149	n/a	n/a	0	0	0
2177.70751953125	n/a	REC_WORD	4459945	wordpools/wasnorm_wordpool_576.txt	LTP372	ltpFR2	3	9	JELLY	755	n/a	n/a	0	0	0
2178.779296875	n/a	REC_WORD	4462140	wordpools/wasnorm_wordpool_576.txt	LTP372	ltpFR2	3	9	CUSTARD	429	n/a	n/a	0	0	0
2181.4892578125	n/a	REC_WORD	4467690	wordpools/wasnorm_wordpool_576.txt	LTP372	ltpFR2	3	9	FRUIT	610	n/a	n/a	0	0	0
2182.90625	n/a	REC_WORD	4470592	wordpools/wasnorm_wordpool_576.txt	LTP372	ltpFR2	3	9	SPARROW	1347	n/a	n/a	0	0	0
2190.52099609375	n/a	REC_WORD	4486187	wordpools/wasnorm_wordpool_576.txt	LTP372	ltpFR2	3	9	COD	340	n/a	n/a	0	0	0
2191.34619140625	n/a	REC_WORD	4487877	wordpools/wasnorm_wordpool_576.txt	LTP372	ltpFR2	3	9	SPIDER	1351	n/a	n/a	0	0	0
2195.625	n/a	REC_WORD	4496640	wordpools/wasnorm_wordpool_576.txt	LTP372	ltpFR2	3	9	CRAB	397	n/a	n/a	0	0	0
2202.36474609375	n/a	REC_WORD	4510443	wordpools/wasnorm_wordpool_576.txt	LTP372	ltpFR2	3	9	PIGEON	1065	n/a	n/a	0	0	0
2203.896484375	n/a	REC_WORD	4513580	wordpools/wasnorm_wordpool_576.txt	LTP372	ltpFR2	3	9	STAR	1373	n/a	n/a	0	0	0
2205.45068359375	n/a	REC_WORD	4516763	wordpools/wasnorm_wordpool_576.txt	LTP372	ltpFR2	3	9	CREVICE	405	n/a	n/a	0	0	0
2209.16943359375	n/a	REC_WORD	4524379	wordpools/wasnorm_wordpool_576.txt	LTP372	ltpFR2	3	9	FILM	565	n/a	n/a	0	0	0
2211.01123046875	n/a	REC_WORD	4528151	wordpools/wasnorm_wordpool_576.txt	LTP372	ltpFR2	3	9	PRIMATE	1123	n/a	n/a	0	0	0
2212.1123046875	n/a	REC_WORD	4530406	wordpools/wasnorm_wordpool_576.txt	LTP372	ltpFR2	3	9	SPHINX	1349	n/a	n/a	0	0	0
2216.3681640625	n/a	REC_WORD	4539122	wordpools/wasnorm_wordpool_576.txt	LTP372	ltpFR2	3	9	IGLOO	734	n/a	n/a	0	0	0
2218.58740234375	n/a	REC_WORD	4543667	wordpools/wasnorm_wordpool_576.txt	LTP372	ltpFR2	3	9	BANK	83	n/a	n/a	0	0	0
2219.791015625	n/a	REC_WORD	4546132	wordpools/wasnorm_wordpool_576.txt	LTP372	ltpFR2	3	9	PEPPER	1047	n/a	n/a	0	0	0
2220.7900390625	n/a	REC_WORD	4548178	wordpools/wasnorm_wordpool_576.txt	LTP372	ltpFR2	3	9	RUST	1219	n/a	n/a	0	0	0
2221.6611328125	n/a	REC_WORD	4549962	wordpools/wasnorm_wordpool_576.txt	LTP372	ltpFR2	3	9	MOTOR	922	n/a	n/a	0	0	0
2228.541015625	n/a	REC_WORD	4564052	wordpools/wasnorm_wordpool_576.txt	LTP372	ltpFR2	3	9	TOASTER	1472	n/a	n/a	0	0	0
2258.2138671875	n/a	DISTRACTOR	4624822	n/a	LTP372	ltpFR2	3	10	n/a	n/a	n/a	n/a	0	0	0
2258.2138671875	n/a	START	4624822	n/a	LTP372	ltpFR2	3	n/a	n/a	n/a	17	n/a	n/a	n/a	n/a
2258.23095703125	n/a	PROB	4624857	n/a	LTP372	ltpFR2	3	n/a	n/a	n/a	17	13	8	4	1
2260.0126953125	n/a	PROB	4628506	n/a	LTP372	ltpFR2	3	n/a	n/a	n/a	17	10	6	1	3
2261.27880859375	n/a	PROB	4631099	n/a	LTP372	ltpFR2	3	n/a	n/a	n/a	17	14	4	6	4
2262.41259765625	n/a	PROB	4633421	n/a	LTP372	ltpFR2	3	n/a	n/a	n/a	17	12	3	3	6
2263.5458984375	n/a	PROB	4635742	n/a	LTP372	ltpFR2	3	n/a	n/a	n/a	17	7	2	4	1
2264.66162109375	n/a	PROB	4638027	n/a	LTP372	ltpFR2	3	n/a	n/a	n/a	17	13	3	4	6
2266.1435546875	n/a	PROB	4641062	n/a	LTP372	ltpFR2	3	n/a	n/a	n/a	17	15	2	7	6
2267.32666015625	n/a	PROB	4643485	n/a	LTP372	ltpFR2	3	n/a	n/a	n/a	17	18	3	8	7
2268.4765625	n/a	PROB	4645840	n/a	LTP372	ltpFR2	3	n/a	n/a	n/a	17	6	4	1	1
2269.5263671875	n/a	PROB	4647990	n/a	LTP372	ltpFR2	3	n/a	n/a	n/a	17	19	7	9	3
2270.724609375	n/a	PROB	4650444	n/a	LTP372	ltpFR2	3	n/a	n/a	n/a	17	13	4	3	6
2272.15771484375	n/a	PROB	4653379	n/a	LTP372	ltpFR2	3	n/a	n/a	n/a	17	14	7	3	4
2273.2734375	n/a	PROB	4655664	n/a	LTP372	ltpFR2	3	n/a	n/a	n/a	17	8	4	2	2
2274.4404296875	n/a	PROB	4658054	n/a	LTP372	ltpFR2	3	n/a	n/a	n/a	17	24	8	9	7
2275.7392578125	n/a	PROB	4660714	n/a	LTP372	ltpFR2	3	n/a	n/a	n/a	17	14	4	9	1
2277.08837890625	n/a	PROB	4663477	n/a	LTP372	ltpFR2	3	n/a	n/a	n/a	17	12	3	8	1
2278.1884765625	n/a	PROB	4665730	n/a	LTP372	ltpFR2	3	n/a	n/a	n/a	17	10	1	5	4
2279.455078125	n/a	PROB	4668324	n/a	LTP372	ltpFR2	3	n/a	n/a	n/a	17	20	7	8	5
2280.6650390625	n/a	STOP	4670802	n/a	LTP372	ltpFR2	3	n/a	n/a	n/a	17	n/a	n/a	n/a	n/a
2283.3193359375	n/a	WORD	4676238	wordpools/wasnorm_wordpool_576.txt	LTP372	ltpFR2	3	10	CROWN	415	n/a	n/a	0	0	0
2285.7509765625	n/a	WORD	4681218	wordpools/wasnorm_wordpool_576.txt	LTP372	ltpFR2	3	10	CLOTHES	327	n/a	n/a	0	0	0
2288.51708984375	n/a	WORD	4686883	wordpools/wasnorm_wordpool_576.txt	LTP372	ltpFR2	3	10	LABEL	790	n/a	n/a	0	0	0
2291.31494140625	n/a	WORD	4692613	wordpools/wasnorm_wordpool_576.txt	LTP372	ltpFR2	3	10	PEBBLE	1035	n/a	n/a	0	0	0
2293.763671875	n/a	WORD	4697628	wordpools/wasnorm_wordpool_576.txt	LTP372	ltpFR2	3	10	SANDWICH	1232	n/a	n/a	0	0	0
2296.4794921875	n/a	WORD	4703190	wordpools/wasnorm_wordpool_576.txt	LTP372	ltpFR2	3	10	RATTLE	1170	n/a	n/a	0	0	0
2299.11083984375	n/a	WORD	4708579	wordpools/wasnorm_wordpool_576.txt	LTP372	ltpFR2	3	10	LIZARD	834	n/a	n/a	0	0	0
2301.560546875	n/a	WORD	4713596	wordpools/wasnorm_wordpool_576.txt	LTP372	ltpFR2	3	10	KLEENEX	782	n/a	n/a	0	0	0
2304.00830078125	n/a	WORD	4718609	wordpools/wasnorm_wordpool_576.txt	LTP372	ltpFR2	3	10	GIFT	635	n/a	n/a	0	0	0
2306.50830078125	n/a	WORD	4723729	wordpools/wasnorm_wordpool_576.txt	LTP372	ltpFR2	3	10	DRAWING	494	n/a	n/a	0	0	0
2309.189453125	n/a	WORD	4729220	wordpools/wasnorm_wordpool_576.txt	LTP372	ltpFR2	3	10	MEDAL	885	n/a	n/a	0	0	0
2311.67236328125	n/a	WORD	4734305	wordpools/wasnorm_wordpool_576.txt	LTP372	ltpFR2	3	10	FREEZER	604	n/a	n/a	0	0	0
2314.30322265625	n/a	WORD	4739693	wordpools/wasnorm_wordpool_576.txt	LTP372	ltpFR2	3	10	WAITRESS	1581	n/a	n/a	0	0	0
2316.751953125	n/a	WORD	4744708	wordpools/wasnorm_wordpool_576.txt	LTP372	ltpFR2	3	10	PRINCESS	1125	n/a	n/a	0	0	0
2319.53515625	n/a	WORD	4750408	wordpools/wasnorm_wordpool_576.txt	LTP372	ltpFR2	3	10	OUTFIT	988	n/a	n/a	0	0	0
2322.28271484375	n/a	WORD	4756035	wordpools/wasnorm_wordpool_576.txt	LTP372	ltpFR2	3	10	MARSH	874	n/a	n/a	0	0	0
2324.9150390625	n/a	WORD	4761426	wordpools/wasnorm_wordpool_576.txt	LTP372	ltpFR2	3	10	LAVA	804	n/a	n/a	0	0	0
2327.64892578125	n/a	WORD	4767025	wordpools/wasnorm_wordpool_576.txt	LTP372	ltpFR2	3	10	PECAN	1036	n/a	n/a	0	0	0
2330.396484375	n/a	WORD	4772652	wordpools/wasnorm_wordpool_576.txt	LTP372	ltpFR2	3	10	JAPAN	749	n/a	n/a	0	0	0
2333.0947265625	n/a	WORD	4778178	wordpools/wasnorm_wordpool_576.txt	LTP372	ltpFR2	3	10	EUROPE	541	n/a	n/a	0	0	0
2335.57763671875	n/a	WORD	4783263	wordpools/wasnorm_wordpool_576.txt	LTP372	ltpFR2	3	10	WAITER	1580	n/a	n/a	0	0	0
2338.2421875	n/a	WORD	4788720	wordpools/wasnorm_wordpool_576.txt	LTP372	ltpFR2	3	10	SCARF	1246	n/a	n/a	0	0	0
2341.04052734375	n/a	WORD	4794451	wordpools/wasnorm_wordpool_576.txt	LTP372	ltpFR2	3	10	PASTA	1021	n/a	n/a	0	0	0
2343.5400390625	n/a	WORD	4799570	wordpools/wasnorm_wordpool_576.txt	LTP372	ltpFR2	3	10	APPLE	33	n/a	n/a	0	0	0
2345.1552734375	n/a	START	4802878	n/a	LTP372	ltpFR2	3	n/a	n/a	n/a	18	n/a	n/a	n/a	n/a
2346.33203125	n/a	DISTRACTOR	4805288	n/a	LTP372	ltpFR2	3	10	n/a	n/a	n/a	n/a	0	0	0
2346.337890625	n/a	PROB	4805300	n/a	LTP372	ltpFR2	3	n/a	n/a	n/a	18	18	9	2	7
2348.35400390625	n/a	PROB	4809429	n/a	LTP372	ltpFR2	3	n/a	n/a	n/a	18	18	7	4	7
2349.6708984375	n/a	PROB	4812126	n/a	LTP372	ltpFR2	3	n/a	n/a	n/a	18	9	2	5	2
2350.8857421875	n/a	PROB	4814614	n/a	LTP372	ltpFR2	3	n/a	n/a	n/a	18	10	5	1	4
2352.35205078125	n/a	PROB	4817617	n/a	LTP372	ltpFR2	3	n/a	n/a	n/a	18	6	2	2	2
2353.501953125	n/a	PROB	4819972	n/a	LTP372	ltpFR2	3	n/a	n/a	n/a	18	21	9	5	7
2354.78369140625	n/a	PROB	4822597	n/a	LTP372	ltpFR2	3	n/a	n/a	n/a	18	17	5	4	8
2356.36669921875	n/a	PROB	4825839	n/a	LTP372	ltpFR2	3	n/a	n/a	n/a	18	21	7	5	9
2358.64990234375	n/a	PROB	4830515	n/a	LTP372	ltpFR2	3	n/a	n/a	n/a	18	13	2	2	9
2359.91455078125	n/a	PROB	4833105	n/a	LTP372	ltpFR2	3	n/a	n/a	n/a	18	18	5	7	6
2361.1806640625	n/a	PROB	4835698	n/a	LTP372	ltpFR2	3	n/a	n/a	n/a	18	9	1	6	2
2362.36376953125	n/a	PROB	4838121	n/a	LTP372	ltpFR2	3	n/a	n/a	n/a	18	21	9	7	5
2363.8466796875	n/a	PROB	4841158	n/a	LTP372	ltpFR2	3	n/a	n/a	n/a	18	11	3	2	6
2365.79541015625	n/a	PROB	4845149	n/a	LTP372	ltpFR2	3	n/a	n/a	n/a	18	8	6	1	1
2366.74462890625	n/a	PROB	4847093	n/a	LTP372	ltpFR2	3	n/a	n/a	n/a	18	16	2	5	9
2367.96826171875	n/a	STOP	4849599	n/a	LTP372	ltpFR2	3	n/a	n/a	n/a	18	n/a	n/a	n/a	n/a
2370.91015625	n/a	REC_START	4855624	n/a	LTP372	ltpFR2	3	10	n/a	n/a	n/a	n/a	0	0	0
2372.35107421875	n/a	REC_WORD	4858575	wordpools/wasnorm_wordpool_576.txt	LTP372	ltpFR2	3	10	CROWN	415	n/a	n/a	0	0	0
2373.7900390625	n/a	REC_WORD	4861522	wordpools/wasnorm_wordpool_576.txt	LTP372	ltpFR2	3	10	CLOTHES	327	n/a	n/a	0	0	0
2385.6640625	n/a	REC_WORD	4885840	wordpools/wasnorm_wordpool_576.txt	LTP372	ltpFR2	3	10	PRINCESS	1125	n/a	n/a	0	0	0
2388.40966796875	n/a	REC_WORD	4891463	wordpools/wasnorm_wordpool_576.txt	LTP372	ltpFR2	3	10	WAITER	1580	n/a	n/a	0	0	0
2389.82666015625	n/a	REC_WORD	4894365	wordpools/wasnorm_wordpool_576.txt	LTP372	ltpFR2	3	10	OUTFIT	988	n/a	n/a	0	0	0
2393.984375	n/a	REC_WORD	4902880	wordpools/wasnorm_wordpool_576.txt	LTP372	ltpFR2	3	10	FREEZER	604	n/a	n/a	0	0	0
2397.20166015625	n/a	REC_WORD	4909469	wordpools/wasnorm_wordpool_576.txt	LTP372	ltpFR2	3	10	GIFT	635	n/a	n/a	0	0	0
2398.517578125	n/a	REC_WORD	4912164	wordpools/wasnorm_wordpool_576.txt	LTP372	ltpFR2	3	10	DRAWING	494	n/a	n/a	0	0	0
2400.04638671875	n/a	REC_WORD	4915295	wordpools/wasnorm_wordpool_576.txt	LTP372	ltpFR2	3	10	MEDAL	885	n/a	n/a	0	0	0
2407.42724609375	n/a	REC_WORD	4930411	wordpools/wasnorm_wordpool_576.txt	LTP372	ltpFR2	3	10	LIZARD	834	n/a	n/a	0	0	0
2408.7900390625	n/a	REC_WORD	4933202	wordpools/wasnorm_wordpool_576.txt	LTP372	ltpFR2	3	10	KLEENEX	782	n/a	n/a	0	0	0
2431.63232421875	n/a	REC_WORD	4979983	wordpools/wasnorm_wordpool_576.txt	LTP372	ltpFR2	3	10	WAITER	1580	n/a	n/a	0	0	0
2433.50634765625	n/a	REC_WORD	4983821	wordpools/wasnorm_wordpool_576.txt	LTP372	ltpFR2	3	10	SCARF	1246	n/a	n/a	0	0	0
2435.21728515625	n/a	REC_WORD	4987325	wordpools/wasnorm_wordpool_576.txt	LTP372	ltpFR2	3	10	PASTA	1021	n/a	n/a	0	0	0
2436.6103515625	n/a	REC_WORD	4990178	wordpools/wasnorm_wordpool_576.txt	LTP372	ltpFR2	3	10	APPLE	33	n/a	n/a	0	0	0
2461.365234375	n/a	WORD	5040876	wordpools/wasnorm_wordpool_576.txt	LTP372	ltpFR2	3	11	HOOK	715	n/a	n/a	0	0	0
2464.064453125	n/a	WORD	5046404	wordpools/wasnorm_wordpool_576.txt	LTP372	ltpFR2	3	11	BLOUSE	139	n/a	n/a	0	0	0
2466.7802734375	n/a	WORD	5051966	wordpools/wasnorm_wordpool_576.txt	LTP372	ltpFR2	3	11	LETTUCE	814	n/a	n/a	0	0	0
2469.54638671875	n/a	WORD	5057631	wordpools/wasnorm_wordpool_576.txt	LTP372	ltpFR2	3	11	PARENT	1013	n/a	n/a	0	0	0
2472.27734375	n/a	WORD	5063224	wordpools/wasnorm_wordpool_576.txt	LTP372	ltpFR2	3	11	FINGER	567	n/a	n/a	0	0	0
2474.94287109375	n/a	WORD	5068683	wordpools/wasnorm_wordpool_576.txt	LTP372	ltpFR2	3	11	UMPIRE	1535	n/a	n/a	0	0	0
2477.60888671875	n/a	WORD	5074143	wordpools/wasnorm_wordpool_576.txt	LTP372	ltpFR2	3	11	DAUGHTER	442	n/a	n/a	0	0	0
2480.2900390625	n/a	WORD	5079634	wordpools/wasnorm_wordpool_576.txt	LTP372	ltpFR2	3	11	MATCH	878	n/a	n/a	0	0	0
2482.85595703125	n/a	WORD	5084889	wordpools/wasnorm_wordpool_576.txt	LTP372	ltpFR2	3	11	SODA	1341	n/a	n/a	0	0	0
2485.45458984375	n/a	WORD	5090211	wordpools/wasnorm_wordpool_576.txt	LTP372	ltpFR2	3	11	FLIPPER	580	n/a	n/a	0	0	0
2488.23681640625	n/a	WORD	5095909	wordpools/wasnorm_wordpool_576.txt	LTP372	ltpFR2	3	11	LEOPARD	812	n/a	n/a	0	0	0
2490.91845703125	n/a	WORD	5101401	wordpools/wasnorm_wordpool_576.txt	LTP372	ltpFR2	3	11	CRAYON	401	n/a	n/a	0	0	0
2493.38427734375	n/a	WORD	5106451	wordpools/wasnorm_wordpool_576.txt	LTP372	ltpFR2	3	11	LUNCH	849	n/a	n/a	0	0	0
2495.8154296875	n/a	WORD	5111430	wordpools/wasnorm_wordpool_576.txt	LTP372	ltpFR2	3	11	JUGGLER	763	n/a	n/a	0	0	0
2498.58203125	n/a	WORD	5117096	wordpools/wasnorm_wordpool_576.txt	LTP372	ltpFR2	3	11	CHAMPAGNE	278	n/a	n/a	0	0	0
2501.11328125	n/a	WORD	5122280	wordpools/wasnorm_wordpool_576.txt	LTP372	ltpFR2	3	11	GRAPE	654	n/a	n/a	0	0	0
2503.61328125	n/a	WORD	5127400	wordpools/wasnorm_wordpool_576.txt	LTP372	ltpFR2	3	11	SHORTS	1293	n/a	n/a	0	0	0
2506.0439453125	n/a	WORD	5132378	wordpools/wasnorm_wordpool_576.txt	LTP372	ltpFR2	3	11	SKIRT	1319	n/a	n/a	0	0	0
2508.8427734375	n/a	WORD	5138110	wordpools/wasnorm_wordpool_576.txt	LTP372	ltpFR2	3	11	SPOON	1357	n/a	n/a	0	0	0
2511.5087890625	n/a	WORD	5143570	wordpools/wasnorm_wordpool_576.txt	LTP372	ltpFR2	3	11	SLOPE	1328	n/a	n/a	0	0	0
2514.10693359375	n/a	WORD	5148891	wordpools/wasnorm_wordpool_576.txt	LTP372	ltpFR2	3	11	LODGE	839	n/a	n/a	0	0	0
2516.6396484375	n/a	WORD	5154078	wordpools/wasnorm_wordpool_576.txt	LTP372	ltpFR2	3	11	SOFTBALL	1343	n/a	n/a	0	0	0
2519.33740234375	n/a	WORD	5159603	wordpools/wasnorm_wordpool_576.txt	LTP372	ltpFR2	3	11	RELISH	1183	n/a	n/a	0	0	0
2521.83642578125	n/a	WORD	5164721	wordpools/wasnorm_wordpool_576.txt	LTP372	ltpFR2	3	11	CASHIER	254	n/a	n/a	0	0	0
2523.45361328125	n/a	START	5168033	n/a	LTP372	ltpFR2	3	n/a	n/a	n/a	19	n/a	n/a	n/a	n/a
2524.63330078125	n/a	DISTRACTOR	5170449	n/a	LTP372	ltpFR2	3	11	n/a	n/a	n/a	n/a	0	0	0
2524.63623046875	n/a	PROB	5170455	n/a	LTP372	ltpFR2	3	n/a	n/a	n/a	19	17	4	9	4
2527.6015625	n/a	PROB	5176528	n/a	LTP372	ltpFR2	3	n/a	n/a	n/a	19	13	9	3	1
2530.08203125	n/a	PROB	5181608	n/a	LTP372	ltpFR2	3	n/a	n/a	n/a	19	15	7	1	7
2531.3994140625	n/a	PROB	5184306	n/a	LTP372	ltpFR2	3	n/a	n/a	n/a	19	16	4	4	8
2532.4990234375	n/a	PROB	5186558	n/a	LTP372	ltpFR2	3	n/a	n/a	n/a	19	11	1	7	3
2533.96435546875	n/a	PROB	5189559	n/a	LTP372	ltpFR2	3	n/a	n/a	n/a	19	13	3	8	2
2535.06298828125	n/a	PROB	5191809	n/a	LTP372	ltpFR2	3	n/a	n/a	n/a	19	14	6	7	1
2536.3291015625	n/a	PROB	5194402	n/a	LTP372	ltpFR2	3	n/a	n/a	n/a	19	23	8	6	9
2537.912109375	n/a	PROB	5197644	n/a	LTP372	ltpFR2	3	n/a	n/a	n/a	19	19	7	4	8
2539.078125	n/a	PROB	5200032	n/a	LTP372	ltpFR2	3	n/a	n/a	n/a	19	12	4	5	3
2540.19384765625	n/a	PROB	5202317	n/a	LTP372	ltpFR2	3	n/a	n/a	n/a	19	16	3	6	7
2541.32666015625	n/a	PROB	5204637	n/a	LTP372	ltpFR2	3	n/a	n/a	n/a	19	14	3	2	9
2542.66064453125	n/a	PROB	5207369	n/a	LTP372	ltpFR2	3	n/a	n/a	n/a	19	10	1	6	3
2543.79296875	n/a	PROB	5209688	n/a	LTP372	ltpFR2	3	n/a	n/a	n/a	19	16	6	7	3
2545.05859375	n/a	PROB	5212280	n/a	LTP372	ltpFR2	3	n/a	n/a	n/a	19	19	7	5	7
2546.46484375	n/a	STOP	5215160	n/a	LTP372	ltpFR2	3	n/a	n/a	n/a	19	n/a	n/a	n/a	n/a
2549.32373046875	n/a	REC_START	5221015	n/a	LTP372	ltpFR2	3	11	n/a	n/a	n/a	n/a	0	0	0
2551.509765625	n/a	REC_WORD	5225492	wordpools/wasnorm_wordpool_576.txt	LTP372	ltpFR2	3	11	CASHIER	254	n/a	n/a	0	0	0
2553.71630859375	n/a	REC_WORD	5230011	wordpools/wasnorm_wordpool_576.txt	LTP372	ltpFR2	3	11	SOFTBALL	1343	n/a	n/a	0	0	0
2555.26953125	n/a	REC_WORD	5233192	wordpools/wasnorm_wordpool_576.txt	LTP372	ltpFR2	3	11	RELISH	1183	n/a	n/a	0	0	0
2558.529296875	n/a	REC_WORD	5239868	wordpools/wasnorm_wordpool_576.txt	LTP372	ltpFR2	3	11	UMPIRE	1535	n/a	n/a	0	0	0
2564.984375	n/a	REC_WORD	5253088	wordpools/wasnorm_wordpool_576.txt	LTP372	ltpFR2	3	11	LEOPARD	812	n/a	n/a	0	0	0
2566.06787109375	n/a	REC_WORD	5255307	wordpools/wasnorm_wordpool_576.txt	LTP372	ltpFR2	3	11	CRAYON	401	n/a	n/a	0	0	0
2567.072265625	n/a	REC_WORD	5257364	wordpools/wasnorm_wordpool_576.txt	LTP372	ltpFR2	3	11	LUNCH	849	n/a	n/a	0	0	0
2568.7158203125	n/a	REC_WORD	5260730	wordpools/wasnorm_wordpool_576.txt	LTP372	ltpFR2	3	11	JUGGLER	763	n/a	n/a	0	0	0
2569.86181640625	n/a	REC_WORD	5263077	wordpools/wasnorm_wordpool_576.txt	LTP372	ltpFR2	3	11	GRAPE	654	n/a	n/a	0	0	0
2570.57177734375	n/a	REC_WORD	5264531	wordpools/wasnorm_wordpool_576.txt	LTP372	ltpFR2	3	11	CHAMPAGNE	278	n/a	n/a	0	0	0
2580.12255859375	n/a	REC_WORD	5284091	wordpools/wasnorm_wordpool_576.txt	LTP372	ltpFR2	3	11	HOOK	715	n/a	n/a	0	0	0
2581.15966796875	n/a	REC_WORD	5286215	wordpools/wasnorm_wordpool_576.txt	LTP372	ltpFR2	3	11	BLOUSE	139	n/a	n/a	0	0	0
2582.11865234375	n/a	REC_WORD	5288179	wordpools/wasnorm_wordpool_576.txt	LTP372	ltpFR2	3	11	LETTUCE	814	n/a	n/a	0	0	0
2584.935546875	n/a	REC_WORD	5293948	wordpools/wasnorm_wordpool_576.txt	LTP372	ltpFR2	3	11	PARENT	1013	n/a	n/a	0	0	0
2586.029296875	n/a	REC_WORD	5296188	wordpools/wasnorm_wordpool_576.txt	LTP372	ltpFR2	3	11	FINGER	567	n/a	n/a	0	0	0
2590.783203125	n/a	REC_WORD	5305924	wordpools/wasnorm_wordpool_576.txt	LTP372	ltpFR2	3	11	DAUGHTER	442	n/a	n/a	0	0	0
2618.646484375	n/a	REC_WORD	5362988	wordpools/wasnorm_wordpool_576.txt	LTP372	ltpFR2	3	11	FLIPPER	580	n/a	n/a	0	0	0
2639.7626953125	n/a	WORD	5406234	wordpools/wasnorm_wordpool_576.txt	LTP372	ltpFR2	3	12	HERO	706	n/a	n/a	0	0	0
2642.36279296875	n/a	WORD	5411559	wordpools/wasnorm_wordpool_576.txt	LTP372	ltpFR2	3	12	BANJO	82	n/a	n/a	0	0	0
2644.9765625	n/a	WORD	5416912	wordpools/wasnorm_wordpool_576.txt	LTP372	ltpFR2	3	12	DRESSER	496	n/a	n/a	0	0	0
2647.46044921875	n/a	WORD	5421999	wordpools/wasnorm_wordpool_576.txt	LTP372	ltpFR2	3	12	PIGMENT	1066	n/a	n/a	0	0	0
2650.19140625	n/a	WORD	5427592	wordpools/wasnorm_wordpool_576.txt	LTP372	ltpFR2	3	12	CELLAR	267	n/a	n/a	0	0	0
2652.7734375	n/a	WORD	5432880	wordpools/wasnorm_wordpool_576.txt	LTP372	ltpFR2	3	12	HATCHET	691	n/a	n/a	0	0	0
2655.322265625	n/a	WORD	5438100	wordpools/wasnorm_wordpool_576.txt	LTP372	ltpFR2	3	12	PASSAGE	1019	n/a	n/a	0	0	0
2657.87109375	n/a	WORD	5443320	wordpools/wasnorm_wordpool_576.txt	LTP372	ltpFR2	3	12	DINER	467	n/a	n/a	0	0	0
2660.5703125	n/a	WORD	5448848	wordpools/wasnorm_wordpool_576.txt	LTP372	ltpFR2	3	12	DONOR	485	n/a	n/a	0	0	0
2663.23486328125	n/a	WORD	5454305	wordpools/wasnorm_wordpool_576.txt	LTP372	ltpFR2	3	12	MARKER	870	n/a	n/a	0	0	0
2665.833984375	n/a	WORD	5459628	wordpools/wasnorm_wordpool_576.txt	LTP372	ltpFR2	3	12	BINDER	127	n/a	n/a	0	0	0
2668.599609375	n/a	WORD	5465292	wordpools/wasnorm_wordpool_576.txt	LTP372	ltpFR2	3	12	FLOWER	584	n/a	n/a	0	0	0
2671.14794921875	n/a	WORD	5470511	wordpools/wasnorm_wordpool_576.txt	LTP372	ltpFR2	3	12	ORCHID	982	n/a	n/a	0	0	0
2673.8798828125	n/a	WORD	5476106	wordpools/wasnorm_wordpool_576.txt	LTP372	ltpFR2	3	12	SAUSAGE	1238	n/a	n/a	0	0	0
2676.3955078125	n/a	WORD	5481258	wordpools/wasnorm_wordpool_576.txt	LTP372	ltpFR2	3	12	SHARK	1275	n/a	n/a	0	0	0
2679.060546875	n/a	WORD	5486716	wordpools/wasnorm_wordpool_576.txt	LTP372	ltpFR2	3	12	CAFE	216	n/a	n/a	0	0	0
2681.67626953125	n/a	WORD	5492073	wordpools/wasnorm_wordpool_576.txt	LTP372	ltpFR2	3	12	VIKING	1565	n/a	n/a	0	0	0
2684.22412109375	n/a	WORD	5497291	wordpools/wasnorm_wordpool_576.txt	LTP372	ltpFR2	3	12	RAFT	1159	n/a	n/a	0	0	0
2686.75634765625	n/a	WORD	5502477	wordpools/wasnorm_wordpool_576.txt	LTP372	ltpFR2	3	12	MAILBOX	857	n/a	n/a	0	0	0
2689.50634765625	n/a	WORD	5508109	wordpools/wasnorm_wordpool_576.txt	LTP372	ltpFR2	3	12	PARSLEY	1016	n/a	n/a	0	0	0
2691.93701171875	n/a	WORD	5513087	wordpools/wasnorm_wordpool_576.txt	LTP372	ltpFR2	3	12	LIPSTICK	829	n/a	n/a	0	0	0
2694.5869140625	n/a	WORD	5518514	wordpools/wasnorm_wordpool_576.txt	LTP372	ltpFR2	3	12	POPCORN	1104	n/a	n/a	0	0	0
2697.3017578125	n/a	WORD	5524074	wordpools/wasnorm_wordpool_576.txt	LTP372	ltpFR2	3	12	LIVER	833	n/a	n/a	0	0	0
2699.73388671875	n/a	WORD	5529055	wordpools/wasnorm_wordpool_576.txt	LTP372	ltpFR2	3	12	DRUG	501	n/a	n/a	0	0	0
2701.349609375	n/a	START	5532364	n/a	LTP372	ltpFR2	3	n/a	n/a	n/a	20	n/a	n/a	n/a	n/a
2702.39697265625	n/a	DISTRACTOR	5534509	n/a	LTP372	ltpFR2	3	12	n/a	n/a	n/a	n/a	0	0	0
2702.4169921875	n/a	PROB	5534550	n/a	LTP372	ltpFR2	3	n/a	n/a	n/a	20	22	8	5	9
2704.11474609375	n/a	PROB	5538027	n/a	LTP372	ltpFR2	3	n/a	n/a	n/a	20	8	5	2	1
2705.41552734375	n/a	PROB	5540691	n/a	LTP372	ltpFR2	3	n/a	n/a	n/a	20	9	3	1	5
2706.763671875	n/a	PROB	5543452	n/a	LTP372	ltpFR2	3	n/a	n/a	n/a	20	14	5	2	7
2708.9794921875	n/a	PROB	5547990	n/a	LTP372	ltpFR2	3	n/a	n/a	n/a	20	20	9	3	8
2710.345703125	n/a	PROB	5550788	n/a	LTP372	ltpFR2	3	n/a	n/a	n/a	20	10	3	3	4
2711.57958984375	n/a	PROB	5553315	n/a	LTP372	ltpFR2	3	n/a	n/a	n/a	20	7	3	2	2
2712.77734375	n/a	PROB	5555768	n/a	LTP372	ltpFR2	3	n/a	n/a	n/a	20	13	9	3	1
2714.04345703125	n/a	PROB	5558361	n/a	LTP372	ltpFR2	3	n/a	n/a	n/a	20	19	9	9	1
2715.326171875	n/a	PROB	5560988	n/a	LTP372	ltpFR2	3	n/a	n/a	n/a	20	15	3	5	7
2716.4931640625	n/a	PROB	5563378	n/a	LTP372	ltpFR2	3	n/a	n/a	n/a	20	24	7	8	9
2718.0751953125	n/a	PROB	5566618	n/a	LTP372	ltpFR2	3	n/a	n/a	n/a	20	14	3	9	2
2719.25732421875	n/a	PROB	5569039	n/a	LTP372	ltpFR2	3	n/a	n/a	n/a	20	11	2	8	1
2720.44140625	n/a	PROB	5571464	n/a	LTP372	ltpFR2	3	n/a	n/a	n/a	20	10	1	6	3
2721.77294921875	n/a	PROB	5574191	n/a	LTP372	ltpFR2	3	n/a	n/a	n/a	20	14	5	3	6
2723.10595703125	n/a	PROB	5576921	n/a	LTP372	ltpFR2	3	n/a	n/a	n/a	20	11	2	3	6
2724.31201171875	n/a	STOP	5579391	n/a	LTP372	ltpFR2	3	n/a	n/a	n/a	20	n/a	n/a	n/a	n/a
2727.13818359375	n/a	REC_START	5585179	n/a	LTP372	ltpFR2	3	12	n/a	n/a	n/a	n/a	0	0	0
2728.89013671875	n/a	REC_WORD	5588767	wordpools/wasnorm_wordpool_576.txt	LTP372	ltpFR2	3	12	HERO	706	n/a	n/a	0	0	0
2731.5830078125	n/a	REC_WORD	5594282	wordpools/wasnorm_wordpool_576.txt	LTP372	ltpFR2	3	12	DRESSER	496	n/a	n/a	0	0	0
2737.19482421875	n/a	REC_WORD	5605775	wordpools/wasnorm_wordpool_576.txt	LTP372	ltpFR2	3	12	HATCHET	691	n/a	n/a	0	0	0
2740.34765625	n/a	REC_WORD	5612232	wordpools/wasnorm_wordpool_576.txt	LTP372	ltpFR2	3	12	CELLAR	267	n/a	n/a	0	0	0
2742.6884765625	n/a	REC_WORD	5617026	wordpools/wasnorm_wordpool_576.txt	LTP372	ltpFR2	3	12	PASSAGE	1019	n/a	n/a	0	0	0
2745.326171875	n/a	REC_WORD	5622428	wordpools/wasnorm_wordpool_576.txt	LTP372	ltpFR2	3	12	DINER	467	n/a	n/a	0	0	0
2748.2314453125	n/a	REC_WORD	5628378	wordpools/wasnorm_wordpool_576.txt	LTP372	ltpFR2	3	12	DONOR	485	n/a	n/a	0	0	0
2749.67626953125	n/a	REC_WORD	5631337	wordpools/wasnorm_wordpool_576.txt	LTP372	ltpFR2	3	12	MARKER	870	n/a	n/a	0	0	0
2751.74609375	n/a	REC_WORD	5635576	wordpools/wasnorm_wordpool_576.txt	LTP372	ltpFR2	3	12	BINDER	127	n/a	n/a	0	0	0
2756.31396484375	n/a	REC_WORD	5644931	wordpools/wasnorm_wordpool_576.txt	LTP372	ltpFR2	3	12	SHARK	1275	n/a	n/a	0	0	0
2757.75390625	n/a	REC_WORD	5647880	wordpools/wasnorm_wordpool_576.txt	LTP372	ltpFR2	3	12	VIKING	1565	n/a	n/a	0	0	0
2763.544921875	n/a	REC_WORD	5659740	wordpools/wasnorm_wordpool_576.txt	LTP372	ltpFR2	3	12	SAUSAGE	1238	n/a	n/a	0	0	0
2764.85986328125	n/a	REC_WORD	5662433	wordpools/wasnorm_wordpool_576.txt	LTP372	ltpFR2	3	12	FLOWER	584	n/a	n/a	0	0	0
2765.978515625	n/a	REC_WORD	5664724	wordpools/wasnorm_wordpool_576.txt	LTP372	ltpFR2	3	12	ORCHID	982	n/a	n/a	0	0	0
2768.849609375	n/a	REC_WORD	5670604	wordpools/wasnorm_wordpool_576.txt	LTP372	ltpFR2	3	12	CAFE	216	n/a	n/a	0	0	0
2799.33642578125	n/a	REC_WORD	5733041	wordpools/wasnorm_wordpool_576.txt	LTP372	ltpFR2	3	12	MAILBOX	857	n/a	n/a	0	0	0
2800.98974609375	n/a	REC_WORD	5736427	wordpools/wasnorm_wordpool_576.txt	LTP372	ltpFR2	3	12	PARSLEY	1016	n/a	n/a	0	0	0
2817.578125	n/a	WORD	5770400	wordpools/wasnorm_wordpool_576.txt	LTP372	ltpFR2	3	13	SUPPER	1411	n/a	n/a	0	0	0
2820.2587890625	n/a	WORD	5775890	wordpools/wasnorm_wordpool_576.txt	LTP372	ltpFR2	3	13	OMELET	976	n/a	n/a	0	0	0
2823.0068359375	n/a	WORD	5781518	wordpools/wasnorm_wordpool_576.txt	LTP372	ltpFR2	3	13	BACON	67	n/a	n/a	0	0	0
2825.8056640625	n/a	WORD	5787250	wordpools/wasnorm_wordpool_576.txt	LTP372	ltpFR2	3	13	CRATER	400	n/a	n/a	0	0	0
2828.45556640625	n/a	WORD	5792677	wordpools/wasnorm_wordpool_576.txt	LTP372	ltpFR2	3	13	IDOL	733	n/a	n/a	0	0	0
2830.9365234375	n/a	WORD	5797758	wordpools/wasnorm_wordpool_576.txt	LTP372	ltpFR2	3	13	LAKE	796	n/a	n/a	0	0	0
2833.65380859375	n/a	WORD	5803323	wordpools/wasnorm_wordpool_576.txt	LTP372	ltpFR2	3	13	SPACE	1345	n/a	n/a	0	0	0
2836.36865234375	n/a	WORD	5808883	wordpools/wasnorm_wordpool_576.txt	LTP372	ltpFR2	3	13	PISTON	1076	n/a	n/a	0	0	0
2839.08349609375	n/a	WORD	5814443	wordpools/wasnorm_wordpool_576.txt	LTP372	ltpFR2	3	13	MARKET	871	n/a	n/a	0	0	0
2841.54931640625	n/a	WORD	5819493	wordpools/wasnorm_wordpool_576.txt	LTP372	ltpFR2	3	13	SEAFOOD	1260	n/a	n/a	0	0	0
2844.21435546875	n/a	WORD	5824951	wordpools/wasnorm_wordpool_576.txt	LTP372	ltpFR2	3	13	PAIL	1002	n/a	n/a	0	0	0
2846.63037109375	n/a	WORD	5829899	wordpools/wasnorm_wordpool_576.txt	LTP372	ltpFR2	3	13	GAVEL	627	n/a	n/a	0	0	0
2849.06103515625	n/a	WORD	5834877	wordpools/wasnorm_wordpool_576.txt	LTP372	ltpFR2	3	13	POWDER	1117	n/a	n/a	0	0	0
2851.6279296875	n/a	WORD	5840134	wordpools/wasnorm_wordpool_576.txt	LTP372	ltpFR2	3	13	GIRL	637	n/a	n/a	0	0	0
2854.091796875	n/a	WORD	5845180	wordpools/wasnorm_wordpool_576.txt	LTP372	ltpFR2	3	13	RACKET	1155	n/a	n/a	0	0	0
2856.65869140625	n/a	WORD	5850437	wordpools/wasnorm_wordpool_576.txt	LTP372	ltpFR2	3	13	BABY	64	n/a	n/a	0	0	0
2859.33984375	n/a	WORD	5855928	wordpools/wasnorm_wordpool_576.txt	LTP372	ltpFR2	3	13	FLASK	576	n/a	n/a	0	0	0
2862.07177734375	n/a	WORD	5861523	wordpools/wasnorm_wordpool_576.txt	LTP372	ltpFR2	3	13	CHEMIST	292	n/a	n/a	0	0	0
2864.5546875	n/a	WORD	5866608	wordpools/wasnorm_wordpool_576.txt	LTP372	ltpFR2	3	13	AIRPORT	13	n/a	n/a	0	0	0
2867.25244140625	n/a	WORD	5872133	wordpools/wasnorm_wordpool_576.txt	LTP372	ltpFR2	3	13	LAPEL	800	n/a	n/a	0	0	0
2869.88427734375	n/a	WORD	5877523	wordpools/wasnorm_wordpool_576.txt	LTP372	ltpFR2	3	13	BRANCH	168	n/a	n/a	0	0	0
2872.50146484375	n/a	WORD	5882883	wordpools/wasnorm_wordpool_576.txt	LTP372	ltpFR2	3	13	PEACH	1031	n/a	n/a	0	0	0
2875.115234375	n/a	WORD	5888236	wordpools/wasnorm_wordpool_576.txt	LTP372	ltpFR2	3	13	RIFLE	1192	n/a	n/a	0	0	0
2877.79736328125	n/a	WORD	5893729	wordpools/wasnorm_wordpool_576.txt	LTP372	ltpFR2	3	13	BRACES	164	n/a	n/a	0	0	0
2879.4140625	n/a	START	5897040	n/a	LTP372	ltpFR2	3	n/a	n/a	n/a	21	n/a	n/a	n/a	n/a
2880.56103515625	n/a	DISTRACTOR	5899389	n/a	LTP372	ltpFR2	3	13	n/a	n/a	n/a	n/a	0	0	0
2880.56396484375	n/a	PROB	5899395	n/a	LTP372	ltpFR2	3	n/a	n/a	n/a	21	17	8	5	4
2882.6630859375	n/a	PROB	5903694	n/a	LTP372	ltpFR2	3	n/a	n/a	n/a	21	10	1	5	4
2883.9609375	n/a	PROB	5906352	n/a	LTP372	ltpFR2	3	n/a	n/a	n/a	21	19	9	8	2
2885.19384765625	n/a	PROB	5908877	n/a	LTP372	ltpFR2	3	n/a	n/a	n/a	21	19	4	6	9
2886.44482421875	n/a	PROB	5911439	n/a	LTP372	ltpFR2	3	n/a	n/a	n/a	21	11	7	3	1
2887.59375	n/a	PROB	5913792	n/a	LTP372	ltpFR2	3	n/a	n/a	n/a	21	13	1	9	3
2888.841796875	n/a	PROB	5916348	n/a	LTP372	ltpFR2	3	n/a	n/a	n/a	21	15	3	6	6
2889.974609375	n/a	PROB	5918668	n/a	LTP372	ltpFR2	3	n/a	n/a	n/a	21	21	9	3	9
2891.20751953125	n/a	PROB	5921193	n/a	LTP372	ltpFR2	3	n/a	n/a	n/a	21	23	8	8	7
2892.7236328125	n/a	PROB	5924298	n/a	LTP372	ltpFR2	3	n/a	n/a	n/a	21	17	8	8	1
2894.12255859375	n/a	PROB	5927163	n/a	LTP372	ltpFR2	3	n/a	n/a	n/a	21	18	4	8	6
2895.53955078125	n/a	PROB	5930065	n/a	LTP372	ltpFR2	3	n/a	n/a	n/a	21	12	7	4	1
2896.75537109375	n/a	PROB	5932555	n/a	LTP372	ltpFR2	3	n/a	n/a	n/a	21	13	1	6	6
2897.95458984375	n/a	PROB	5935011	n/a	LTP372	ltpFR2	3	n/a	n/a	n/a	21	24	9	7	8
2899.53857421875	n/a	PROB	5938255	n/a	LTP372	ltpFR2	3	n/a	n/a	n/a	21	16	3	8	5
2900.70361328125	n/a	PROB	5940641	n/a	LTP372	ltpFR2	3	n/a	n/a	n/a	21	18	3	7	8
2901.88623046875	n/a	PROB	5943063	n/a	LTP372	ltpFR2	3	n/a	n/a	n/a	21	11	2	3	6
2903.064453125	n/a	STOP	5945476	n/a	LTP372	ltpFR2	3	n/a	n/a	n/a	21	n/a	n/a	n/a	n/a
2905.2841796875	n/a	REC_START	5950022	n/a	LTP372	ltpFR2	3	13	n/a	n/a	n/a	n/a	0	0	0
2908.2470703125	n/a	REC_WORD	5956090	wordpools/wasnorm_wordpool_576.txt	LTP372	ltpFR2	3	13	SUPPER	1411	n/a	n/a	0	0	0
2909.47314453125	n/a	REC_WORD	5958601	wordpools/wasnorm_wordpool_576.txt	LTP372	ltpFR2	3	13	OMELET	976	n/a	n/a	0	0	0
2910.64111328125	n/a	REC_WORD	5960993	wordpools/wasnorm_wordpool_576.txt	LTP372	ltpFR2	3	13	BACON	67	n/a	n/a	0	0	0
2917.73486328125	n/a	REC_WORD	5975521	wordpools/wasnorm_wordpool_576.txt	LTP372	ltpFR2	3	13	GIRL	637	n/a	n/a	0	0	0
2921.919921875	n/a	REC_WORD	5984092	wordpools/wasnorm_wordpool_576.txt	LTP372	ltpFR2	3	13	RACKET	1155	n/a	n/a	0	0	0
2926.11474609375	n/a	REC_WORD	5992683	wordpools/wasnorm_wordpool_576.txt	LTP372	ltpFR2	3	13	BABY	64	n/a	n/a	0	0	0
2929.75048828125	n/a	REC_WORD	6000129	wordpools/wasnorm_wordpool_576.txt	LTP372	ltpFR2	3	13	CHEMIST	292	n/a	n/a	0	0	0
2930.8125	n/a	REC_WORD	6002304	wordpools/wasnorm_wordpool_576.txt	LTP372	ltpFR2	3	13	FLASK	576	n/a	n/a	0	0	0
2932.63720703125	n/a	REC_WORD	6006041	wordpools/wasnorm_wordpool_576.txt	LTP372	ltpFR2	3	13	AIRPORT	13	n/a	n/a	0	0	0
2934.74951171875	n/a	REC_WORD	6010367	wordpools/wasnorm_wordpool_576.txt	LTP372	ltpFR2	3	13	LAPEL	800	n/a	n/a	0	0	0
2936.34423828125	n/a	REC_WORD	6013633	wordpools/wasnorm_wordpool_576.txt	LTP372	ltpFR2	3	13	BRANCH	168	n/a	n/a	0	0	0
2937.5341796875	n/a	REC_WORD	6016070	wordpools/wasnorm_wordpool_576.txt	LTP372	ltpFR2	3	13	PEACH	1031	n/a	n/a	0	0	0
2943.19287109375	n/a	REC_WORD	6027659	wordpools/wasnorm_wordpool_576.txt	LTP372	ltpFR2	3	13	RIFLE	1192	n/a	n/a	0	0	0
2949.02685546875	n/a	REC_WORD	6039607	wordpools/wasnorm_wordpool_576.txt	LTP372	ltpFR2	3	13	SPACE	1345	n/a	n/a	0	0	0
2950.52587890625	n/a	REC_WORD	6042677	wordpools/wasnorm_wordpool_576.txt	LTP372	ltpFR2	3	13	PISTON	1076	n/a	n/a	0	0	0
2951.6240234375	n/a	REC_WORD	6044926	wordpools/wasnorm_wordpool_576.txt	LTP372	ltpFR2	3	13	MARKET	871	n/a	n/a	0	0	0
2954.3486328125	n/a	REC_WORD	6050506	wordpools/wasnorm_wordpool_576.txt	LTP372	ltpFR2	3	13	SEAFOOD	1260	n/a	n/a	0	0	0
2956.20068359375	n/a	REC_WORD	6054299	wordpools/wasnorm_wordpool_576.txt	LTP372	ltpFR2	3	13	PAIL	1002	n/a	n/a	0	0	0
2973.01025390625	n/a	REC_WORD	6088725	wordpools/wasnorm_wordpool_576.txt	LTP372	ltpFR2	3	13	CRATER	400	n/a	n/a	0	0	0
2974.48291015625	n/a	REC_WORD	6091741	wordpools/wasnorm_wordpool_576.txt	LTP372	ltpFR2	3	13	IDOL	733	n/a	n/a	0	0	0
2975.669921875	n/a	REC_WORD	6094172	wordpools/wasnorm_wordpool_576.txt	LTP372	ltpFR2	3	13	LAKE	796	n/a	n/a	0	0	0
2995.740234375	n/a	WORD	6135276	wordpools/wasnorm_wordpool_576.txt	LTP372	ltpFR2	3	14	ELBOW	520	n/a	n/a	0	0	0
2998.20654296875	n/a	WORD	6140327	wordpools/wasnorm_wordpool_576.txt	LTP372	ltpFR2	3	14	PERCH	1048	n/a	n/a	0	0	0
3000.7880859375	n/a	WORD	6145614	wordpools/wasnorm_wordpool_576.txt	LTP372	ltpFR2	3	14	PLAYGROUND	1087	n/a	n/a	0	0	0
3003.4541015625	n/a	WORD	6151074	wordpools/wasnorm_wordpool_576.txt	LTP372	ltpFR2	3	14	TRUCK	1512	n/a	n/a	0	0	0
3006.251953125	n/a	WORD	6156804	wordpools/wasnorm_wordpool_576.txt	LTP372	ltpFR2	3	14	TUBA	1515	n/a	n/a	0	0	0
3009.0009765625	n/a	WORD	6162434	wordpools/wasnorm_wordpool_576.txt	LTP372	ltpFR2	3	14	MESSAGE	888	n/a	n/a	0	0	0
3011.583984375	n/a	WORD	6167724	wordpools/wasnorm_wordpool_576.txt	LTP372	ltpFR2	3	14	MARINE	869	n/a	n/a	0	0	0
3014.31494140625	n/a	WORD	6173317	wordpools/wasnorm_wordpool_576.txt	LTP372	ltpFR2	3	14	CORAL	378	n/a	n/a	0	0	0
3016.94677734375	n/a	WORD	6178707	wordpools/wasnorm_wordpool_576.txt	LTP372	ltpFR2	3	14	KETCHUP	771	n/a	n/a	0	0	0
3019.728515625	n/a	WORD	6184404	wordpools/wasnorm_wordpool_576.txt	LTP372	ltpFR2	3	14	SURVEY	1414	n/a	n/a	0	0	0
3022.21044921875	n/a	WORD	6189487	wordpools/wasnorm_wordpool_576.txt	LTP372	ltpFR2	3	14	BOUQUET	157	n/a	n/a	0	0	0
3024.64453125	n/a	WORD	6194472	wordpools/wasnorm_wordpool_576.txt	LTP372	ltpFR2	3	14	ROBBER	1197	n/a	n/a	0	0	0
3027.4091796875	n/a	WORD	6200134	wordpools/wasnorm_wordpool_576.txt	LTP372	ltpFR2	3	14	THIEF	1456	n/a	n/a	0	0	0
3029.89013671875	n/a	WORD	6205215	wordpools/wasnorm_wordpool_576.txt	LTP372	ltpFR2	3	14	MOP	916	n/a	n/a	0	0	0
3032.5732421875	n/a	WORD	6210710	wordpools/wasnorm_wordpool_576.txt	LTP372	ltpFR2	3	14	THRONE	1461	n/a	n/a	0	0	0
3035.12109375	n/a	WORD	6215928	wordpools/wasnorm_wordpool_576.txt	LTP372	ltpFR2	3	14	FRAGRANCE	599	n/a	n/a	0	0	0
3037.7529296875	n/a	WORD	6221318	wordpools/wasnorm_wordpool_576.txt	LTP372	ltpFR2	3	14	MAILMAN	858	n/a	n/a	0	0	0
3040.23583984375	n/a	WORD	6226403	wordpools/wasnorm_wordpool_576.txt	LTP372	ltpFR2	3	14	GARDEN	623	n/a	n/a	0	0	0
3043.05078125	n/a	WORD	6232168	wordpools/wasnorm_wordpool_576.txt	LTP372	ltpFR2	3	14	SHRUB	1299	n/a	n/a	0	0	0
3045.73291015625	n/a	WORD	6237661	wordpools/wasnorm_wordpool_576.txt	LTP372	ltpFR2	3	14	PLUTO	1092	n/a	n/a	0	0	0
3048.44970703125	n/a	WORD	6243225	wordpools/wasnorm_wordpool_576.txt	LTP372	ltpFR2	3	14	POSTAGE	1113	n/a	n/a	0	0	0
3051.0634765625	n/a	WORD	6248578	wordpools/wasnorm_wordpool_576.txt	LTP372	ltpFR2	3	14	FIREMAN	569	n/a	n/a	0	0	0
3053.66357421875	n/a	WORD	6253903	wordpools/wasnorm_wordpool_576.txt	LTP372	ltpFR2	3	14	GUITAR	670	n/a	n/a	0	0	0
3056.3115234375	n/a	WORD	6259326	wordpools/wasnorm_wordpool_576.txt	LTP372	ltpFR2	3	14	MONSTER	912	n/a	n/a	0	0	0
3057.92724609375	n/a	START	6262635	n/a	LTP372	ltpFR2	3	n/a	n/a	n/a	22	n/a	n/a	n/a	n/a
3058.91259765625	n/a	DISTRACTOR	6264653	n/a	LTP372	ltpFR2	3	14	n/a	n/a	n/a	n/a	0	0	0
3058.92626953125	n/a	PROB	6264681	n/a	LTP372	ltpFR2	3	n/a	n/a	n/a	22	21	8	6	7
3060.70947265625	n/a	PROB	6268333	n/a	LTP372	ltpFR2	3	n/a	n/a	n/a	22	10	1	6	3
3062.4423828125	n/a	PROB	6271882	n/a	LTP372	ltpFR2	3	n/a	n/a	n/a	22	17	6	8	3
3063.89111328125	n/a	PROB	6274849	n/a	LTP372	ltpFR2	3	n/a	n/a	n/a	22	11	8	1	2
3065.0732421875	n/a	PROB	6277270	n/a	LTP372	ltpFR2	3	n/a	n/a	n/a	22	16	2	6	8
3066.2890625	n/a	PROB	6279760	n/a	LTP372	ltpFR2	3	n/a	n/a	n/a	22	15	2	8	5
3067.45703125	n/a	PROB	6282152	n/a	LTP372	ltpFR2	3	n/a	n/a	n/a	22	21	3	9	9
3068.63916015625	n/a	PROB	6284573	n/a	LTP372	ltpFR2	3	n/a	n/a	n/a	22	18	2	8	8
3069.837890625	n/a	PROB	6287028	n/a	LTP372	ltpFR2	3	n/a	n/a	n/a	22	9	3	4	2
3070.98681640625	n/a	PROB	6289381	n/a	LTP372	ltpFR2	3	n/a	n/a	n/a	22	17	9	3	5
3072.52099609375	n/a	PROB	6292523	n/a	LTP372	ltpFR2	3	n/a	n/a	n/a	22	20	6	8	6
3074.11865234375	n/a	PROB	6295795	n/a	LTP372	ltpFR2	3	n/a	n/a	n/a	22	18	6	9	3
3075.45263671875	n/a	PROB	6298527	n/a	LTP372	ltpFR2	3	n/a	n/a	n/a	22	5	2	2	1
3076.61865234375	n/a	PROB	6300915	n/a	LTP372	ltpFR2	3	n/a	n/a	n/a	22	12	5	3	4
3078.20068359375	n/a	PROB	6304155	n/a	LTP372	ltpFR2	3	n/a	n/a	n/a	22	21	9	7	5
3079.40087890625	n/a	PROB	6306613	n/a	LTP372	ltpFR2	3	n/a	n/a	n/a	22	19	6	9	4
3080.7197265625	n/a	STOP	6309314	n/a	LTP372	ltpFR2	3	n/a	n/a	n/a	22	n/a	n/a	n/a	n/a
