mstime	trial_type	stim_file	subject	experiment	session	trial	task	item_name	item_num	recog_resp	recog_conf	resp	answer	test_x	test_y	test_z	color_r	color_g	color_b	case	font
0	SESS_START	n/a	LTP139	ltpFR	10	n/a	n/a	n/a	n/a	1	4	n/a	n/a	0	0	0	n/a	n/a	n/a	n/a	n/a
35117	START	n/a	LTP139	ltpFR	10	n/a	n/a	n/a	n/a	n/a	n/a	n/a	n/a	n/a	n/a	n/a	n/a	n/a	n/a	n/a	n/a
35141	PROB	n/a	LTP139	ltpFR	10	n/a	n/a	n/a	n/a	n/a	n/a	n/a	17	8	3	6	n/a	n/a	n/a	n/a	n/a
37475	PROB	n/a	LTP139	ltpFR	10	n/a	n/a	n/a	n/a	n/a	n/a	n/a	18	4	6	8	n/a	n/a	n/a	n/a	n/a
39274	PROB	n/a	LTP139	ltpFR	10	n/a	n/a	n/a	n/a	n/a	n/a	n/a	18	7	5	6	n/a	n/a	n/a	n/a	n/a
41473	PROB	n/a	LTP139	ltpFR	10	n/a	n/a	n/a	n/a	n/a	n/a	n/a	9	5	2	2	n/a	n/a	n/a	n/a	n/a
42855	PROB	n/a	LTP139	ltpFR	10	n/a	n/a	n/a	n/a	n/a	n/a	n/a	10	4	4	2	n/a	n/a	n/a	n/a	n/a
44322	PROB	n/a	LTP139	ltpFR	10	n/a	n/a	n/a	n/a	n/a	n/a	n/a	16	1	7	8	n/a	n/a	n/a	n/a	n/a
45871	PROB	n/a	LTP139	ltpFR	10	n/a	n/a	n/a	n/a	n/a	n/a	n/a	12	7	4	1	n/a	n/a	n/a	n/a	n/a
47596	PROB	n/a	LTP139	ltpFR	10	n/a	n/a	n/a	n/a	n/a	n/a	n/a	10	7	2	1	n/a	n/a	n/a	n/a	n/a
49520	PROB	n/a	LTP139	ltpFR	10	n/a	n/a	n/a	n/a	n/a	n/a	n/a	7	4	1	2	n/a	n/a	n/a	n/a	n/a
51370	PROB	n/a	LTP139	ltpFR	10	n/a	n/a	n/a	n/a	n/a	n/a	n/a	18	4	6	8	n/a	n/a	n/a	n/a	n/a
53043	PROB	n/a	LTP139	ltpFR	10	n/a	n/a	n/a	n/a	n/a	n/a	n/a	15	5	7	3	n/a	n/a	n/a	n/a	n/a
54668	STOP	n/a	LTP139	ltpFR	10	n/a	n/a	n/a	n/a	n/a	n/a	n/a	n/a	n/a	n/a	n/a	n/a	n/a	n/a	n/a	n/a
81817	START	n/a	LTP139	ltpFR	10	n/a	n/a	n/a	n/a	n/a	n/a	n/a	n/a	n/a	n/a	n/a	n/a	n/a	n/a	n/a	n/a
83325	PROB	n/a	LTP139	ltpFR	10	n/a	n/a	n/a	n/a	n/a	n/a	n/a	12	6	5	1	n/a	n/a	n/a	n/a	n/a
84982	PROB	n/a	LTP139	ltpFR	10	n/a	n/a	n/a	n/a	n/a	n/a	n/a	23	7	7	9	n/a	n/a	n/a	n/a	n/a
86956	PROB	n/a	LTP139	ltpFR	10	n/a	n/a	n/a	n/a	n/a	n/a	n/a	15	4	2	7	n/a	n/a	n/a	n/a	n/a
89516	STOP	n/a	LTP139	ltpFR	10	n/a	n/a	n/a	n/a	n/a	n/a	n/a	n/a	n/a	n/a	n/a	n/a	n/a	n/a	n/a	n/a
90921	WORD	wordpools/wasnorm_wordpool.txt	LTP139	ltpFR	10	1	1	ANTELOPE	27	1	n/a	1	n/a	0	0	0	0.422607421875	0.5869140625	0	upper	zerothre.ttf
93929	START	n/a	LTP139	ltpFR	10	n/a	n/a	n/a	n/a	n/a	n/a	n/a	n/a	n/a	n/a	n/a	n/a	n/a	n/a	n/a	n/a
95070	PROB	n/a	LTP139	ltpFR	10	n/a	n/a	n/a	n/a	n/a	n/a	n/a	16	2	5	9	n/a	n/a	n/a	n/a	n/a
99202	PROB	n/a	LTP139	ltpFR	10	n/a	n/a	n/a	n/a	n/a	n/a	n/a	19	6	4	9	n/a	n/a	n/a	n/a	n/a
100739	STOP	n/a	LTP139	ltpFR	10	n/a	n/a	n/a	n/a	n/a	n/a	n/a	n/a	n/a	n/a	n/a	n/a	n/a	n/a	n/a	n/a
103034	WORD	wordpools/wasnorm_wordpool.txt	LTP139	ltpFR	10	1	1	CREATURE	403	n/a	n/a	1	n/a	0	0	0	0.422607421875	0.5869140625	0	upper	zerothre.ttf
106041	START	n/a	LTP139	ltpFR	10	n/a	n/a	n/a	n/a	n/a	n/a	n/a	n/a	n/a	n/a	n/a	n/a	n/a	n/a	n/a	n/a
107232	PROB	n/a	LTP139	ltpFR	10	n/a	n/a	n/a	n/a	n/a	n/a	n/a	9	3	3	3	n/a	n/a	n/a	n/a	n/a
108608	PROB	n/a	LTP139	ltpFR	10	n/a	n/a	n/a	n/a	n/a	n/a	n/a	13	4	4	5	n/a	n/a	n/a	n/a	n/a
114040	STOP	n/a	LTP139	ltpFR	10	n/a	n/a	n/a	n/a	n/a	n/a	n/a	n/a	n/a	n/a	n/a	n/a	n/a	n/a	n/a	n/a
115121	WORD	wordpools/wasnorm_wordpool.txt	LTP139	ltpFR	10	1	0	RECORD	1176	n/a	n/a	0	n/a	0	0	0	0.57763671875	0.412841796875	1	lower	amplitud.ttf
118129	START	n/a	LTP139	ltpFR	10	n/a	n/a	n/a	n/a	n/a	n/a	n/a	n/a	n/a	n/a	n/a	n/a	n/a	n/a	n/a	n/a
119195	PROB	n/a	LTP139	ltpFR	10	n/a	n/a	n/a	n/a	n/a	n/a	n/a	20	5	7	8	n/a	n/a	n/a	n/a	n/a
122378	PROB	n/a	LTP139	ltpFR	10	n/a	n/a	n/a	n/a	n/a	n/a	n/a	9	3	3	3	n/a	n/a	n/a	n/a	n/a
123536	PROB	n/a	LTP139	ltpFR	10	n/a	n/a	n/a	n/a	n/a	n/a	n/a	13	4	6	3	n/a	n/a	n/a	n/a	n/a
125027	STOP	n/a	LTP139	ltpFR	10	n/a	n/a	n/a	n/a	n/a	n/a	n/a	n/a	n/a	n/a	n/a	n/a	n/a	n/a	n/a	n/a
127200	WORD	wordpools/wasnorm_wordpool.txt	LTP139	ltpFR	10	1	0	OFFICE	972	n/a	n/a	1	n/a	0	0	0	0.57763671875	0.412841796875	1	lower	amplitud.ttf
130208	START	n/a	LTP139	ltpFR	10	n/a	n/a	n/a	n/a	n/a	n/a	n/a	n/a	n/a	n/a	n/a	n/a	n/a	n/a	n/a	n/a
131190	PROB	n/a	LTP139	ltpFR	10	n/a	n/a	n/a	n/a	n/a	n/a	n/a	15	8	2	5	n/a	n/a	n/a	n/a	n/a
132765	PROB	n/a	LTP139	ltpFR	10	n/a	n/a	n/a	n/a	n/a	n/a	n/a	17	8	1	8	n/a	n/a	n/a	n/a	n/a
134407	PROB	n/a	LTP139	ltpFR	10	n/a	n/a	n/a	n/a	n/a	n/a	n/a	7	1	1	5	n/a	n/a	n/a	n/a	n/a
135830	PROB	n/a	LTP139	ltpFR	10	n/a	n/a	n/a	n/a	n/a	n/a	n/a	12	2	3	7	n/a	n/a	n/a	n/a	n/a
137731	STOP	n/a	LTP139	ltpFR	10	n/a	n/a	n/a	n/a	n/a	n/a	n/a	n/a	n/a	n/a	n/a	n/a	n/a	n/a	n/a	n/a
139397	WORD	wordpools/wasnorm_wordpool.txt	LTP139	ltpFR	10	1	0	TAPE	1433	n/a	n/a	0	n/a	0	0	0	0.57763671875	0.412841796875	1	lower	amplitud.ttf
142404	START	n/a	LTP139	ltpFR	10	n/a	n/a	n/a	n/a	n/a	n/a	n/a	n/a	n/a	n/a	n/a	n/a	n/a	n/a	n/a	n/a
143454	PROB	n/a	LTP139	ltpFR	10	n/a	n/a	n/a	n/a	n/a	n/a	n/a	18	7	2	9	n/a	n/a	n/a	n/a	n/a
146118	PROB	n/a	LTP139	ltpFR	10	n/a	n/a	n/a	n/a	n/a	n/a	n/a	15	4	7	4	n/a	n/a	n/a	n/a	n/a
149019	STOP	n/a	LTP139	ltpFR	10	n/a	n/a	n/a	n/a	n/a	n/a	n/a	n/a	n/a	n/a	n/a	n/a	n/a	n/a	n/a	n/a
151284	WORD	wordpools/wasnorm_wordpool.txt	LTP139	ltpFR	10	1	1	COMPANION	357	n/a	n/a	1	n/a	0	0	0	0.422607421875	0.5869140625	0	upper	zerothre.ttf
154292	START	n/a	LTP139	ltpFR	10	n/a	n/a	n/a	n/a	n/a	n/a	n/a	n/a	n/a	n/a	n/a	n/a	n/a	n/a	n/a	n/a
155299	PROB	n/a	LTP139	ltpFR	10	n/a	n/a	n/a	n/a	n/a	n/a	n/a	22	9	6	7	n/a	n/a	n/a	n/a	n/a
158056	PROB	n/a	LTP139	ltpFR	10	n/a	n/a	n/a	n/a	n/a	n/a	n/a	16	2	5	9	n/a	n/a	n/a	n/a	n/a
160055	PROB	n/a	LTP139	ltpFR	10	n/a	n/a	n/a	n/a	n/a	n/a	n/a	8	4	2	2	n/a	n/a	n/a	n/a	n/a
161219	STOP	n/a	LTP139	ltpFR	10	n/a	n/a	n/a	n/a	n/a	n/a	n/a	n/a	n/a	n/a	n/a	n/a	n/a	n/a	n/a	n/a
163347	WORD	wordpools/wasnorm_wordpool.txt	LTP139	ltpFR	10	1	1	SAGE	1222	n/a	n/a	1	n/a	0	0	0	0.422607421875	0.5869140625	0	upper	zerothre.ttf
166354	START	n/a	LTP139	ltpFR	10	n/a	n/a	n/a	n/a	n/a	n/a	n/a	n/a	n/a	n/a	n/a	n/a	n/a	n/a	n/a	n/a
167495	PROB	n/a	LTP139	ltpFR	10	n/a	n/a	n/a	n/a	n/a	n/a	n/a	23	9	9	4	n/a	n/a	n/a	n/a	n/a
169319	PROB	n/a	LTP139	ltpFR	10	n/a	n/a	n/a	n/a	n/a	n/a	n/a	24	9	6	9	n/a	n/a	n/a	n/a	n/a
174354	STOP	n/a	LTP139	ltpFR	10	n/a	n/a	n/a	n/a	n/a	n/a	n/a	n/a	n/a	n/a	n/a	n/a	n/a	n/a	n/a	n/a
175326	WORD	wordpools/wasnorm_wordpool.txt	LTP139	ltpFR	10	1	1	DIAGRAM	456	n/a	n/a	0	n/a	0	0	0	0.422607421875	0.5869140625	0	upper	zerothre.ttf
178333	START	n/a	LTP139	ltpFR	10	n/a	n/a	n/a	n/a	n/a	n/a	n/a	n/a	n/a	n/a	n/a	n/a	n/a	n/a	n/a	n/a
179482	PROB	n/a	LTP139	ltpFR	10	n/a	n/a	n/a	n/a	n/a	n/a	n/a	12	6	2	5	n/a	n/a	n/a	n/a	n/a
182114	PROB	n/a	LTP139	ltpFR	10	n/a	n/a	n/a	n/a	n/a	n/a	n/a	19	4	6	9	n/a	n/a	n/a	n/a	n/a
184347	PROB	n/a	LTP139	ltpFR	10	n/a	n/a	n/a	n/a	n/a	n/a	n/a	10	8	1	1	n/a	n/a	n/a	n/a	n/a
185883	STOP	n/a	LTP139	ltpFR	10	n/a	n/a	n/a	n/a	n/a	n/a	n/a	n/a	n/a	n/a	n/a	n/a	n/a	n/a	n/a	n/a
187380	WORD	wordpools/wasnorm_wordpool.txt	LTP139	ltpFR	10	1	1	APARTMENT	30	n/a	n/a	0	n/a	0	0	0	0.422607421875	0.5869140625	0	upper	zerothre.ttf
190387	START	n/a	LTP139	ltpFR	10	n/a	n/a	n/a	n/a	n/a	n/a	n/a	n/a	n/a	n/a	n/a	n/a	n/a	n/a	n/a	n/a
191403	PROB	n/a	LTP139	ltpFR	10	n/a	n/a	n/a	n/a	n/a	n/a	n/a	16	7	5	4	n/a	n/a	n/a	n/a	n/a
193993	PROB	n/a	LTP139	ltpFR	10	n/a	n/a	n/a	n/a	n/a	n/a	n/a	19	6	9	4	n/a	n/a	n/a	n/a	n/a
198387	STOP	n/a	LTP139	ltpFR	10	n/a	n/a	n/a	n/a	n/a	n/a	n/a	n/a	n/a	n/a	n/a	n/a	n/a	n/a	n/a	n/a
199492	WORD	wordpools/wasnorm_wordpool.txt	LTP139	ltpFR	10	1	0	PARROT	1015	n/a	n/a	0	n/a	0	0	0	0.57763671875	0.412841796875	1	lower	amplitud.ttf
202500	START	n/a	LTP139	ltpFR	10	n/a	n/a	n/a	n/a	n/a	n/a	n/a	n/a	n/a	n/a	n/a	n/a	n/a	n/a	n/a	n/a
203332	PROB	n/a	LTP139	ltpFR	10	n/a	n/a	n/a	n/a	n/a	n/a	n/a	13	8	3	2	n/a	n/a	n/a	n/a	n/a
205490	PROB	n/a	LTP139	ltpFR	10	n/a	n/a	n/a	n/a	n/a	n/a	n/a	11	1	1	9	n/a	n/a	n/a	n/a	n/a
206830	PROB	n/a	LTP139	ltpFR	10	n/a	n/a	n/a	n/a	n/a	n/a	n/a	20	8	9	3	n/a	n/a	n/a	n/a	n/a
209380	STOP	n/a	LTP139	ltpFR	10	n/a	n/a	n/a	n/a	n/a	n/a	n/a	n/a	n/a	n/a	n/a	n/a	n/a	n/a	n/a	n/a
211313	WORD	wordpools/wasnorm_wordpool.txt	LTP139	ltpFR	10	1	0	JUDGE	761	n/a	n/a	1	n/a	0	0	0	0.57763671875	0.412841796875	1	lower	amplitud.ttf
214321	START	n/a	LTP139	ltpFR	10	n/a	n/a	n/a	n/a	n/a	n/a	n/a	n/a	n/a	n/a	n/a	n/a	n/a	n/a	n/a	n/a
215235	PROB	n/a	LTP139	ltpFR	10	n/a	n/a	n/a	n/a	n/a	n/a	n/a	14	1	8	5	n/a	n/a	n/a	n/a	n/a
216851	PROB	n/a	LTP139	ltpFR	10	n/a	n/a	n/a	n/a	n/a	n/a	n/a	15	5	7	3	n/a	n/a	n/a	n/a	n/a
218494	PROB	n/a	LTP139	ltpFR	10	n/a	n/a	n/a	n/a	n/a	n/a	n/a	10	5	4	1	n/a	n/a	n/a	n/a	n/a
220250	PROB	n/a	LTP139	ltpFR	10	n/a	n/a	n/a	n/a	n/a	n/a	n/a	20	9	9	2	n/a	n/a	n/a	n/a	n/a
221787	STOP	n/a	LTP139	ltpFR	10	n/a	n/a	n/a	n/a	n/a	n/a	n/a	n/a	n/a	n/a	n/a	n/a	n/a	n/a	n/a	n/a
223458	WORD	wordpools/wasnorm_wordpool.txt	LTP139	ltpFR	10	1	0	PORK	1108	n/a	n/a	0	n/a	0	0	0	0.57763671875	0.412841796875	1	lower	amplitud.ttf
226466	START	n/a	LTP139	ltpFR	10	n/a	n/a	n/a	n/a	n/a	n/a	n/a	n/a	n/a	n/a	n/a	n/a	n/a	n/a	n/a	n/a
227574	PROB	n/a	LTP139	ltpFR	10	n/a	n/a	n/a	n/a	n/a	n/a	n/a	8	1	5	2	n/a	n/a	n/a	n/a	n/a
229281	PROB	n/a	LTP139	ltpFR	10	n/a	n/a	n/a	n/a	n/a	n/a	n/a	10	3	3	4	n/a	n/a	n/a	n/a	n/a
231281	PROB	n/a	LTP139	ltpFR	10	n/a	n/a	n/a	n/a	n/a	n/a	n/a	19	2	8	9	n/a	n/a	n/a	n/a	n/a
233067	STOP	n/a	LTP139	ltpFR	10	n/a	n/a	n/a	n/a	n/a	n/a	n/a	n/a	n/a	n/a	n/a	n/a	n/a	n/a	n/a	n/a
235579	WORD	wordpools/wasnorm_wordpool.txt	LTP139	ltpFR	10	1	0	STY	1397	n/a	n/a	1	n/a	0	0	0	0.57763671875	0.412841796875	1	lower	amplitud.ttf
238587	START	n/a	LTP139	ltpFR	10	n/a	n/a	n/a	n/a	n/a	n/a	n/a	n/a	n/a	n/a	n/a	n/a	n/a	n/a	n/a	n/a
239469	PROB	n/a	LTP139	ltpFR	10	n/a	n/a	n/a	n/a	n/a	n/a	n/a	18	9	1	8	n/a	n/a	n/a	n/a	n/a
241018	PROB	n/a	LTP139	ltpFR	10	n/a	n/a	n/a	n/a	n/a	n/a	n/a	8	3	3	2	n/a	n/a	n/a	n/a	n/a
243017	PROB	n/a	LTP139	ltpFR	10	n/a	n/a	n/a	n/a	n/a	n/a	n/a	14	1	7	6	n/a	n/a	n/a	n/a	n/a
245179	STOP	n/a	LTP139	ltpFR	10	n/a	n/a	n/a	n/a	n/a	n/a	n/a	n/a	n/a	n/a	n/a	n/a	n/a	n/a	n/a	n/a
247766	WORD	wordpools/wasnorm_wordpool.txt	LTP139	ltpFR	10	1	0	PENGUIN	1044	n/a	n/a	1	n/a	0	0	0	0.57763671875	0.412841796875	1	lower	amplitud.ttf
250773	START	n/a	LTP139	ltpFR	10	n/a	n/a	n/a	n/a	n/a	n/a	n/a	n/a	n/a	n/a	n/a	n/a	n/a	n/a	n/a	n/a
251822	PROB	n/a	LTP139	ltpFR	10	n/a	n/a	n/a	n/a	n/a	n/a	n/a	11	7	1	3	n/a	n/a	n/a	n/a	n/a
253813	PROB	n/a	LTP139	ltpFR	10	n/a	n/a	n/a	n/a	n/a	n/a	n/a	11	3	2	6	n/a	n/a	n/a	n/a	n/a
255489	PROB	n/a	LTP139	ltpFR	10	n/a	n/a	n/a	n/a	n/a	n/a	n/a	18	9	4	5	n/a	n/a	n/a	n/a	n/a
257827	STOP	n/a	LTP139	ltpFR	10	n/a	n/a	n/a	n/a	n/a	n/a	n/a	n/a	n/a	n/a	n/a	n/a	n/a	n/a	n/a	n/a
259654	WORD	wordpools/wasnorm_wordpool.txt	LTP139	ltpFR	10	1	1	VAULT	1550	n/a	n/a	0	n/a	0	0	0	0.422607421875	0.5869140625	0	upper	zerothre.ttf
262662	START	n/a	LTP139	ltpFR	10	n/a	n/a	n/a	n/a	n/a	n/a	n/a	n/a	n/a	n/a	n/a	n/a	n/a	n/a	n/a	n/a
263735	PROB	n/a	LTP139	ltpFR	10	n/a	n/a	n/a	n/a	n/a	n/a	n/a	17	1	9	7	n/a	n/a	n/a	n/a	n/a
265352	PROB	n/a	LTP139	ltpFR	10	n/a	n/a	n/a	n/a	n/a	n/a	n/a	7	3	3	1	n/a	n/a	n/a	n/a	n/a
266784	PROB	n/a	LTP139	ltpFR	10	n/a	n/a	n/a	n/a	n/a	n/a	n/a	18	7	9	2	n/a	n/a	n/a	n/a	n/a
270662	STOP	n/a	LTP139	ltpFR	10	n/a	n/a	n/a	n/a	n/a	n/a	n/a	n/a	n/a	n/a	n/a	n/a	n/a	n/a	n/a	n/a
271749	WORD	wordpools/wasnorm_wordpool.txt	LTP139	ltpFR	10	1	1	CASHIER	254	n/a	n/a	1	n/a	0	0	0	0.422607421875	0.5869140625	0	upper	zerothre.ttf
274756	START	n/a	LTP139	ltpFR	10	n/a	n/a	n/a	n/a	n/a	n/a	n/a	n/a	n/a	n/a	n/a	n/a	n/a	n/a	n/a	n/a
275582	PROB	n/a	LTP139	ltpFR	10	n/a	n/a	n/a	n/a	n/a	n/a	n/a	19	2	8	9	n/a	n/a	n/a	n/a	n/a
277331	PROB	n/a	LTP139	ltpFR	10	n/a	n/a	n/a	n/a	n/a	n/a	n/a	16	7	1	8	n/a	n/a	n/a	n/a	n/a
280929	PROB	n/a	LTP139	ltpFR	10	n/a	n/a	n/a	n/a	n/a	n/a	n/a	10	1	2	7	n/a	n/a	n/a	n/a	n/a
282548	STOP	n/a	LTP139	ltpFR	10	n/a	n/a	n/a	n/a	n/a	n/a	n/a	n/a	n/a	n/a	n/a	n/a	n/a	n/a	n/a	n/a
284612	REC_START	n/a	LTP139	ltpFR	10	1	n/a	n/a	n/a	n/a	n/a	n/a	n/a	0	0	0	n/a	n/a	n/a	n/a	n/a
286512	REC_WORD	wordpools/wasnorm_wordpool.txt	LTP139	ltpFR	10	1	1	CASHIER	254	n/a	n/a	1	n/a	0	0	0	n/a	n/a	n/a	n/a	n/a
287424	REC_WORD	wordpools/wasnorm_wordpool.txt	LTP139	ltpFR	10	1	1	ANTELOPE	27	n/a	n/a	1	n/a	0	0	0	n/a	n/a	n/a	n/a	n/a
288244	REC_WORD	wordpools/wasnorm_wordpool.txt	LTP139	ltpFR	10	1	1	CREATURE	403	n/a	n/a	1	n/a	0	0	0	n/a	n/a	n/a	n/a	n/a
289137	REC_WORD	wordpools/wasnorm_wordpool.txt	LTP139	ltpFR	10	1	1	DIAGRAM	456	n/a	n/a	0	n/a	0	0	0	n/a	n/a	n/a	n/a	n/a
295602	REC_WORD	wordpools/wasnorm_wordpool.txt	LTP139	ltpFR	10	1	1	COMPANION	357	n/a	n/a	1	n/a	0	0	0	n/a	n/a	n/a	n/a	n/a
298734	REC_WORD	wordpools/wasnorm_wordpool.txt	LTP139	ltpFR	10	1	1	VAULT	1550	n/a	n/a	0	n/a	0	0	0	n/a	n/a	n/a	n/a	n/a
299408	REC_WORD	wordpools/wasnorm_wordpool.txt	LTP139	ltpFR	10	1	0	PENGUIN	1044	n/a	n/a	1	n/a	0	0	0	n/a	n/a	n/a	n/a	n/a
302346	REC_WORD	wordpools/wasnorm_wordpool.txt	LTP139	ltpFR	10	1	1	APARTMENT	30	n/a	n/a	0	n/a	0	0	0	n/a	n/a	n/a	n/a	n/a
308093	REC_WORD	wordpools/wasnorm_wordpool.txt	LTP139	ltpFR	10	1	0	RECORD	1176	n/a	n/a	0	n/a	0	0	0	n/a	n/a	n/a	n/a	n/a
308867	REC_WORD	wordpools/wasnorm_wordpool.txt	LTP139	ltpFR	10	1	0	TAPE	1433	n/a	n/a	0	n/a	0	0	0	n/a	n/a	n/a	n/a	n/a
314005	REC_WORD	wordpools/wasnorm_wordpool.txt	LTP139	ltpFR	10	1	0	OFFICE	972	n/a	n/a	1	n/a	0	0	0	n/a	n/a	n/a	n/a	n/a
335820	REC_WORD	wordpools/wasnorm_wordpool.txt	LTP139	ltpFR	10	1	0	PORK	1108	n/a	n/a	0	n/a	0	0	0	n/a	n/a	n/a	n/a	n/a
336663	REC_WORD	wordpools/wasnorm_wordpool.txt	LTP139	ltpFR	10	1	0	STY	1397	n/a	n/a	1	n/a	0	0	0	n/a	n/a	n/a	n/a	n/a
377504	WORD	wordpools/wasnorm_wordpool.txt	LTP139	ltpFR	10	2	0	SNACK	1331	n/a	n/a	0	n/a	0	0	0	0.57763671875	0.412841796875	1	lower	amplitud.ttf
381344	WORD	wordpools/wasnorm_wordpool.txt	LTP139	ltpFR	10	2	0	OTTER	986	n/a	n/a	1	n/a	0	0	0	0.57763671875	0.412841796875	1	lower	amplitud.ttf
385309	WORD	wordpools/wasnorm_wordpool.txt	LTP139	ltpFR	10	2	0	EARTH	515	n/a	n/a	1	n/a	0	0	0	0.57763671875	0.412841796875	1	lower	amplitud.ttf
389299	WORD	wordpools/wasnorm_wordpool.txt	LTP139	ltpFR	10	2	0	TOMATO	1476	n/a	n/a	0	n/a	0	0	0	0.57763671875	0.412841796875	1	lower	amplitud.ttf
393189	WORD	wordpools/wasnorm_wordpool.txt	LTP139	ltpFR	10	2	0	SPICE	1350	n/a	n/a	0	n/a	0	0	0	0.57763671875	0.412841796875	1	lower	amplitud.ttf
397012	WORD	wordpools/wasnorm_wordpool.txt	LTP139	ltpFR	10	2	0	ITEM	746	n/a	n/a	0	n/a	0	0	0	0.57763671875	0.412841796875	1	lower	amplitud.ttf
401111	WORD	wordpools/wasnorm_wordpool.txt	LTP139	ltpFR	10	2	0	HELMET	702	n/a	n/a	0	n/a	0	0	0	0.57763671875	0.412841796875	1	lower	amplitud.ttf
404968	WORD	wordpools/wasnorm_wordpool.txt	LTP139	ltpFR	10	2	0	CAP	236	n/a	n/a	0	n/a	0	0	0	0.57763671875	0.412841796875	1	lower	amplitud.ttf
408892	WORD	wordpools/wasnorm_wordpool.txt	LTP139	ltpFR	10	2	0	SUPERMARKET	1409	n/a	n/a	1	n/a	0	0	0	0.57763671875	0.412841796875	1	lower	amplitud.ttf
412940	WORD	wordpools/wasnorm_wordpool.txt	LTP139	ltpFR	10	2	0	ELECTRICIAN	521	n/a	n/a	1	n/a	0	0	0	0.57763671875	0.412841796875	1	lower	amplitud.ttf
417130	WORD	wordpools/wasnorm_wordpool.txt	LTP139	ltpFR	10	2	0	DRAWER	493	n/a	n/a	1	n/a	0	0	0	0.57763671875	0.412841796875	1	lower	amplitud.ttf
420946	WORD	wordpools/wasnorm_wordpool.txt	LTP139	ltpFR	10	2	0	WARDROBE	1587	n/a	n/a	1	n/a	0	0	0	0.57763671875	0.412841796875	1	lower	amplitud.ttf
425052	WORD	wordpools/wasnorm_wordpool.txt	LTP139	ltpFR	10	2	0	PLUMBER	1091	n/a	n/a	1	n/a	0	0	0	0.57763671875	0.412841796875	1	lower	amplitud.ttf
428901	WORD	wordpools/wasnorm_wordpool.txt	LTP139	ltpFR	10	2	0	BATH	98	n/a	n/a	1	n/a	0	0	0	0.57763671875	0.412841796875	1	lower	amplitud.ttf
432850	WORD	wordpools/wasnorm_wordpool.txt	LTP139	ltpFR	10	2	0	BEAN	105	n/a	n/a	0	n/a	0	0	0	0.57763671875	0.412841796875	1	lower	amplitud.ttf
436715	WORD	wordpools/wasnorm_wordpool.txt	LTP139	ltpFR	10	2	0	CHEF	290	n/a	n/a	1	n/a	0	0	0	0.57763671875	0.412841796875	1	lower	amplitud.ttf
439722	START	n/a	LTP139	ltpFR	10	n/a	n/a	n/a	n/a	n/a	n/a	n/a	n/a	n/a	n/a	n/a	n/a	n/a	n/a	n/a	n/a
440788	PROB	n/a	LTP139	ltpFR	10	n/a	n/a	n/a	n/a	n/a	n/a	n/a	15	8	5	2	n/a	n/a	n/a	n/a	n/a
443121	PROB	n/a	LTP139	ltpFR	10	n/a	n/a	n/a	n/a	n/a	n/a	n/a	15	9	4	2	n/a	n/a	n/a	n/a	n/a
445262	PROB	n/a	LTP139	ltpFR	10	n/a	n/a	n/a	n/a	n/a	n/a	n/a	20	4	8	8	n/a	n/a	n/a	n/a	n/a
447083	STOP	n/a	LTP139	ltpFR	10	n/a	n/a	n/a	n/a	n/a	n/a	n/a	n/a	n/a	n/a	n/a	n/a	n/a	n/a	n/a	n/a
449462	REC_START	n/a	LTP139	ltpFR	10	2	n/a	n/a	n/a	n/a	n/a	n/a	n/a	0	0	0	n/a	n/a	n/a	n/a	n/a
450385	REC_WORD	wordpools/wasnorm_wordpool.txt	LTP139	ltpFR	10	2	0	EARTH	515	n/a	n/a	1	n/a	0	0	0	n/a	n/a	n/a	n/a	n/a
451008	REC_WORD	wordpools/wasnorm_wordpool.txt	LTP139	ltpFR	10	2	0	OTTER	986	n/a	n/a	1	n/a	0	0	0	n/a	n/a	n/a	n/a	n/a
451427	REC_WORD	wordpools/wasnorm_wordpool.txt	LTP139	ltpFR	10	2	0	SNACK	1331	n/a	n/a	0	n/a	0	0	0	n/a	n/a	n/a	n/a	n/a
452255	REC_WORD	wordpools/wasnorm_wordpool.txt	LTP139	ltpFR	10	2	0	TOMATO	1476	n/a	n/a	0	n/a	0	0	0	n/a	n/a	n/a	n/a	n/a
452888	REC_WORD	wordpools/wasnorm_wordpool.txt	LTP139	ltpFR	10	2	0	SPICE	1350	n/a	n/a	0	n/a	0	0	0	n/a	n/a	n/a	n/a	n/a
453787	REC_WORD	wordpools/wasnorm_wordpool.txt	LTP139	ltpFR	10	2	0	BEAN	105	n/a	n/a	0	n/a	0	0	0	n/a	n/a	n/a	n/a	n/a
454386	REC_WORD	wordpools/wasnorm_wordpool.txt	LTP139	ltpFR	10	2	0	ITEM	746	n/a	n/a	0	n/a	0	0	0	n/a	n/a	n/a	n/a	n/a
454954	REC_WORD	wordpools/wasnorm_wordpool.txt	LTP139	ltpFR	10	2	0	HELMET	702	n/a	n/a	0	n/a	0	0	0	n/a	n/a	n/a	n/a	n/a
455553	REC_WORD	wordpools/wasnorm_wordpool.txt	LTP139	ltpFR	10	2	n/a	HAT	690	n/a	n/a	n/a	n/a	0	0	0	n/a	n/a	n/a	n/a	n/a
456750	REC_WORD	wordpools/wasnorm_wordpool.txt	LTP139	ltpFR	10	2	0	CHEF	290	n/a	n/a	1	n/a	0	0	0	n/a	n/a	n/a	n/a	n/a
457503	REC_WORD	wordpools/wasnorm_wordpool.txt	LTP139	ltpFR	10	2	0	SUPERMARKET	1409	n/a	n/a	1	n/a	0	0	0	n/a	n/a	n/a	n/a	n/a
477757	REC_WORD	wordpools/wasnorm_wordpool.txt	LTP139	ltpFR	10	2	0	DRAWER	493	n/a	n/a	1	n/a	0	0	0	n/a	n/a	n/a	n/a	n/a
479424	REC_WORD	wordpools/wasnorm_wordpool.txt	LTP139	ltpFR	10	2	0	ELECTRICIAN	521	n/a	n/a	1	n/a	0	0	0	n/a	n/a	n/a	n/a	n/a
482232	REC_WORD	wordpools/wasnorm_wordpool.txt	LTP139	ltpFR	10	2	0	PLUMBER	1091	n/a	n/a	1	n/a	0	0	0	n/a	n/a	n/a	n/a	n/a
483170	REC_WORD	wordpools/wasnorm_wordpool.txt	LTP139	ltpFR	10	2	0	BATH	98	n/a	n/a	1	n/a	0	0	0	n/a	n/a	n/a	n/a	n/a
485704	REC_WORD	wordpools/wasnorm_wordpool.txt	LTP139	ltpFR	10	2	0	WARDROBE	1587	n/a	n/a	1	n/a	0	0	0	n/a	n/a	n/a	n/a	n/a
539120	WORD	wordpools/wasnorm_wordpool.txt	LTP139	ltpFR	10	3	0	SUITCASE	1403	n/a	n/a	1	n/a	0	0	0	0.57763671875	0.412841796875	1	lower	amplitud.ttf
543169	WORD	wordpools/wasnorm_wordpool.txt	LTP139	ltpFR	10	3	0	FEATHER	557	n/a	n/a	0	n/a	0	0	0	0.57763671875	0.412841796875	1	lower	amplitud.ttf
547242	WORD	wordpools/wasnorm_wordpool.txt	LTP139	ltpFR	10	3	0	QUAIL	1147	n/a	n/a	0	n/a	0	0	0	0.57763671875	0.412841796875	1	lower	amplitud.ttf
551375	WORD	wordpools/wasnorm_wordpool.txt	LTP139	ltpFR	10	3	0	FOE	587	n/a	n/a	1	n/a	0	0	0	0.57763671875	0.412841796875	1	lower	amplitud.ttf
555532	WORD	wordpools/wasnorm_wordpool.txt	LTP139	ltpFR	10	3	0	RACK	1154	n/a	n/a	0	n/a	0	0	0	0.57763671875	0.412841796875	1	lower	amplitud.ttf
559489	WORD	wordpools/wasnorm_wordpool.txt	LTP139	ltpFR	10	3	0	LION	827	n/a	n/a	1	n/a	0	0	0	0.57763671875	0.412841796875	1	lower	amplitud.ttf
563496	WORD	wordpools/wasnorm_wordpool.txt	LTP139	ltpFR	10	3	0	WASHCLOTH	1591	n/a	n/a	0	n/a	0	0	0	0.57763671875	0.412841796875	1	lower	amplitud.ttf
567494	WORD	wordpools/wasnorm_wordpool.txt	LTP139	ltpFR	10	3	0	SNEAKER	1334	n/a	n/a	0	n/a	0	0	0	0.57763671875	0.412841796875	1	lower	amplitud.ttf
571593	WORD	wordpools/wasnorm_wordpool.txt	LTP139	ltpFR	10	3	0	HIGHWAY	707	n/a	n/a	1	n/a	0	0	0	0.57763671875	0.412841796875	1	lower	amplitud.ttf
575757	WORD	wordpools/wasnorm_wordpool.txt	LTP139	ltpFR	10	3	0	COLLAR	345	n/a	n/a	0	n/a	0	0	0	0.57763671875	0.412841796875	1	lower	amplitud.ttf
579722	WORD	wordpools/wasnorm_wordpool.txt	LTP139	ltpFR	10	3	0	SKIRT	1319	n/a	n/a	0	n/a	0	0	0	0.57763671875	0.412841796875	1	lower	amplitud.ttf
583564	WORD	wordpools/wasnorm_wordpool.txt	LTP139	ltpFR	10	3	0	ENEMY	534	n/a	n/a	1	n/a	0	0	0	0.57763671875	0.412841796875	1	lower	amplitud.ttf
587387	WORD	wordpools/wasnorm_wordpool.txt	LTP139	ltpFR	10	3	0	FLESH	579	n/a	n/a	0	n/a	0	0	0	0.57763671875	0.412841796875	1	lower	amplitud.ttf
591353	WORD	wordpools/wasnorm_wordpool.txt	LTP139	ltpFR	10	3	0	NEWSSTAND	949	n/a	n/a	1	n/a	0	0	0	0.57763671875	0.412841796875	1	lower	amplitud.ttf
595301	WORD	wordpools/wasnorm_wordpool.txt	LTP139	ltpFR	10	3	0	BRIEFCASE	175	n/a	n/a	0	n/a	0	0	0	0.57763671875	0.412841796875	1	lower	amplitud.ttf
599140	WORD	wordpools/wasnorm_wordpool.txt	LTP139	ltpFR	10	3	0	WAX	1597	n/a	n/a	0	n/a	0	0	0	0.57763671875	0.412841796875	1	lower	amplitud.ttf
602148	START	n/a	LTP139	ltpFR	10	n/a	n/a	n/a	n/a	n/a	n/a	n/a	n/a	n/a	n/a	n/a	n/a	n/a	n/a	n/a	n/a
603006	PROB	n/a	LTP139	ltpFR	10	n/a	n/a	n/a	n/a	n/a	n/a	n/a	23	8	8	7	n/a	n/a	n/a	n/a	n/a
605746	PROB	n/a	LTP139	ltpFR	10	n/a	n/a	n/a	n/a	n/a	n/a	n/a	13	7	3	3	n/a	n/a	n/a	n/a	n/a
610148	STOP	n/a	LTP139	ltpFR	10	n/a	n/a	n/a	n/a	n/a	n/a	n/a	n/a	n/a	n/a	n/a	n/a	n/a	n/a	n/a	n/a
612028	REC_START	n/a	LTP139	ltpFR	10	3	n/a	n/a	n/a	n/a	n/a	n/a	n/a	0	0	0	n/a	n/a	n/a	n/a	n/a
613175	REC_WORD	wordpools/wasnorm_wordpool.txt	LTP139	ltpFR	10	3	0	WAX	1597	n/a	n/a	0	n/a	0	0	0	n/a	n/a	n/a	n/a	n/a
613938	REC_WORD	wordpools/wasnorm_wordpool.txt	LTP139	ltpFR	10	3	0	FLESH	579	n/a	n/a	0	n/a	0	0	0	n/a	n/a	n/a	n/a	n/a
614592	REC_WORD	wordpools/wasnorm_wordpool.txt	LTP139	ltpFR	10	3	0	QUAIL	1147	n/a	n/a	0	n/a	0	0	0	n/a	n/a	n/a	n/a	n/a
615175	REC_WORD	wordpools/wasnorm_wordpool.txt	LTP139	ltpFR	10	3	0	FEATHER	557	n/a	n/a	0	n/a	0	0	0	n/a	n/a	n/a	n/a	n/a
615908	REC_WORD	wordpools/wasnorm_wordpool.txt	LTP139	ltpFR	10	3	0	SUITCASE	1403	n/a	n/a	1	n/a	0	0	0	n/a	n/a	n/a	n/a	n/a
617031	REC_WORD	wordpools/wasnorm_wordpool.txt	LTP139	ltpFR	10	3	0	BRIEFCASE	175	n/a	n/a	0	n/a	0	0	0	n/a	n/a	n/a	n/a	n/a
617984	REC_WORD	wordpools/wasnorm_wordpool.txt	LTP139	ltpFR	10	3	0	FOE	587	n/a	n/a	1	n/a	0	0	0	n/a	n/a	n/a	n/a	n/a
619216	REC_WORD	wordpools/wasnorm_wordpool.txt	LTP139	ltpFR	10	3	0	ENEMY	534	n/a	n/a	1	n/a	0	0	0	n/a	n/a	n/a	n/a	n/a
619905	REC_WORD	wordpools/wasnorm_wordpool.txt	LTP139	ltpFR	10	3	0	NEWSSTAND	949	n/a	n/a	1	n/a	0	0	0	n/a	n/a	n/a	n/a	n/a
626874	REC_WORD	wordpools/wasnorm_wordpool.txt	LTP139	ltpFR	10	3	0	RACK	1154	n/a	n/a	0	n/a	0	0	0	n/a	n/a	n/a	n/a	n/a
709361	WORD	wordpools/wasnorm_wordpool.txt	LTP139	ltpFR	10	4	1	FRUIT	610	n/a	n/a	1	n/a	0	0	0	0.422607421875	0.5869140625	0	upper	zerothre.ttf
713208	WORD	wordpools/wasnorm_wordpool.txt	LTP139	ltpFR	10	4	1	REINDEER	1181	n/a	n/a	1	n/a	0	0	0	0.422607421875	0.5869140625	0	upper	zerothre.ttf
717115	WORD	wordpools/wasnorm_wordpool.txt	LTP139	ltpFR	10	4	1	MANAGER	863	n/a	n/a	1	n/a	0	0	0	0.422607421875	0.5869140625	0	upper	zerothre.ttf
721315	WORD	wordpools/wasnorm_wordpool.txt	LTP139	ltpFR	10	4	0	ATHLETE	52	n/a	n/a	1	n/a	0	0	0	0.57763671875	0.412841796875	1	lower	amplitud.ttf
725488	WORD	wordpools/wasnorm_wordpool.txt	LTP139	ltpFR	10	4	0	ACROBAT	4	n/a	n/a	1	n/a	0	0	0	0.57763671875	0.412841796875	1	lower	amplitud.ttf
729453	WORD	wordpools/wasnorm_wordpool.txt	LTP139	ltpFR	10	4	0	BROCCOLI	176	n/a	n/a	0	n/a	0	0	0	0.57763671875	0.412841796875	1	lower	amplitud.ttf
733460	WORD	wordpools/wasnorm_wordpool.txt	LTP139	ltpFR	10	4	0	MOON	914	n/a	n/a	1	n/a	0	0	0	0.57763671875	0.412841796875	1	lower	amplitud.ttf
737542	WORD	wordpools/wasnorm_wordpool.txt	LTP139	ltpFR	10	4	1	SLUG	1329	n/a	n/a	1	n/a	0	0	0	0.422607421875	0.5869140625	0	upper	zerothre.ttf
741666	WORD	wordpools/wasnorm_wordpool.txt	LTP139	ltpFR	10	4	1	SNAIL	1332	n/a	n/a	1	n/a	0	0	0	0.422607421875	0.5869140625	0	upper	zerothre.ttf
745872	WORD	wordpools/wasnorm_wordpool.txt	LTP139	ltpFR	10	4	0	UMPIRE	1535	n/a	n/a	1	n/a	0	0	0	0.57763671875	0.412841796875	1	lower	amplitud.ttf
749945	WORD	wordpools/wasnorm_wordpool.txt	LTP139	ltpFR	10	4	0	PILOT	1070	n/a	n/a	1	n/a	0	0	0	0.57763671875	0.412841796875	1	lower	amplitud.ttf
753994	WORD	wordpools/wasnorm_wordpool.txt	LTP139	ltpFR	10	4	0	SPACE	1345	n/a	n/a	1	n/a	0	0	0	0.57763671875	0.412841796875	1	lower	amplitud.ttf
757934	WORD	wordpools/wasnorm_wordpool.txt	LTP139	ltpFR	10	4	0	SLEIGH	1325	n/a	n/a	1	n/a	0	0	0	0.57763671875	0.412841796875	1	lower	amplitud.ttf
761949	WORD	wordpools/wasnorm_wordpool.txt	LTP139	ltpFR	10	4	1	CREVICE	405	n/a	n/a	0	n/a	0	0	0	0.422607421875	0.5869140625	0	upper	zerothre.ttf
765814	WORD	wordpools/wasnorm_wordpool.txt	LTP139	ltpFR	10	4	1	PLASTER	1085	n/a	n/a	0	n/a	0	0	0	0.422607421875	0.5869140625	0	upper	zerothre.ttf
769988	WORD	wordpools/wasnorm_wordpool.txt	LTP139	ltpFR	10	4	1	STICKER	1382	n/a	n/a	0	n/a	0	0	0	0.422607421875	0.5869140625	0	upper	zerothre.ttf
775663	REC_START	n/a	LTP139	ltpFR	10	4	n/a	n/a	n/a	n/a	n/a	n/a	n/a	0	0	0	n/a	n/a	n/a	n/a	n/a
776511	REC_WORD	wordpools/wasnorm_wordpool.txt	LTP139	ltpFR	10	4	1	PLASTER	1085	n/a	n/a	0	n/a	0	0	0	n/a	n/a	n/a	n/a	n/a
777159	REC_WORD	wordpools/wasnorm_wordpool.txt	LTP139	ltpFR	10	4	1	STICKER	1382	n/a	n/a	0	n/a	0	0	0	n/a	n/a	n/a	n/a	n/a
777893	REC_WORD	wordpools/wasnorm_wordpool.txt	LTP139	ltpFR	10	4	1	CREVICE	405	n/a	n/a	0	n/a	0	0	0	n/a	n/a	n/a	n/a	n/a
778836	REC_WORD	wordpools/wasnorm_wordpool.txt	LTP139	ltpFR	10	4	0	SLEIGH	1325	n/a	n/a	1	n/a	0	0	0	n/a	n/a	n/a	n/a	n/a
781664	REC_WORD	wordpools/wasnorm_wordpool.txt	LTP139	ltpFR	10	4	1	REINDEER	1181	n/a	n/a	1	n/a	0	0	0	n/a	n/a	n/a	n/a	n/a
782477	REC_WORD	wordpools/wasnorm_wordpool.txt	LTP139	ltpFR	10	4	1	FRUIT	610	n/a	n/a	1	n/a	0	0	0	n/a	n/a	n/a	n/a	n/a
784398	REC_WORD	wordpools/wasnorm_wordpool.txt	LTP139	ltpFR	10	4	0	BROCCOLI	176	n/a	n/a	0	n/a	0	0	0	n/a	n/a	n/a	n/a	n/a
785869	REC_WORD	wordpools/wasnorm_wordpool.txt	LTP139	ltpFR	10	4	1	SNAIL	1332	n/a	n/a	1	n/a	0	0	0	n/a	n/a	n/a	n/a	n/a
786877	REC_WORD	wordpools/wasnorm_wordpool.txt	LTP139	ltpFR	10	4	0	UMPIRE	1535	n/a	n/a	1	n/a	0	0	0	n/a	n/a	n/a	n/a	n/a
787461	REC_WORD	wordpools/wasnorm_wordpool.txt	LTP139	ltpFR	10	4	0	PILOT	1070	n/a	n/a	1	n/a	0	0	0	n/a	n/a	n/a	n/a	n/a
788010	REC_WORD	wordpools/wasnorm_wordpool.txt	LTP139	ltpFR	10	4	1	SLUG	1329	n/a	n/a	1	n/a	0	0	0	n/a	n/a	n/a	n/a	n/a
790893	REC_WORD	wordpools/wasnorm_wordpool.txt	LTP139	ltpFR	10	4	0	ATHLETE	52	n/a	n/a	1	n/a	0	0	0	n/a	n/a	n/a	n/a	n/a
791447	REC_WORD	wordpools/wasnorm_wordpool.txt	LTP139	ltpFR	10	4	0	ACROBAT	4	n/a	n/a	1	n/a	0	0	0	n/a	n/a	n/a	n/a	n/a
792375	REC_WORD	wordpools/wasnorm_wordpool.txt	LTP139	ltpFR	10	4	1	MANAGER	863	n/a	n/a	1	n/a	0	0	0	n/a	n/a	n/a	n/a	n/a
821968	REC_WORD	wordpools/wasnorm_wordpool.txt	LTP139	ltpFR	10	4	0	SPACE	1345	n/a	n/a	1	n/a	0	0	0	n/a	n/a	n/a	n/a	n/a
822766	REC_WORD	wordpools/wasnorm_wordpool.txt	LTP139	ltpFR	10	4	0	MOON	914	n/a	n/a	1	n/a	0	0	0	n/a	n/a	n/a	n/a	n/a
875209	WORD	wordpools/wasnorm_wordpool.txt	LTP139	ltpFR	10	5	1	NIECE	952	n/a	n/a	1	n/a	0	0	0	0.422607421875	0.5869140625	0	upper	zerothre.ttf
879107	WORD	wordpools/wasnorm_wordpool.txt	LTP139	ltpFR	10	5	1	BALL	73	n/a	n/a	0	n/a	0	0	0	0.422607421875	0.5869140625	0	upper	zerothre.ttf
883290	WORD	wordpools/wasnorm_wordpool.txt	LTP139	ltpFR	10	5	1	KNOT	788	n/a	n/a	0	n/a	0	0	0	0.422607421875	0.5869140625	0	upper	zerothre.ttf
887339	WORD	wordpools/wasnorm_wordpool.txt	LTP139	ltpFR	10	5	1	SURF	1412	n/a	n/a	0	n/a	0	0	0	0.422607421875	0.5869140625	0	upper	zerothre.ttf
891304	WORD	wordpools/wasnorm_wordpool.txt	LTP139	ltpFR	10	5	1	DECK	443	n/a	n/a	0	n/a	0	0	0	0.422607421875	0.5869140625	0	upper	zerothre.ttf
895511	WORD	wordpools/wasnorm_wordpool.txt	LTP139	ltpFR	10	5	1	PORCH	1106	n/a	n/a	0	n/a	0	0	0	0.422607421875	0.5869140625	0	upper	zerothre.ttf
899326	WORD	wordpools/wasnorm_wordpool.txt	LTP139	ltpFR	10	5	1	CROSS	413	n/a	n/a	0	n/a	0	0	0	0.422607421875	0.5869140625	0	upper	zerothre.ttf
903392	WORD	wordpools/wasnorm_wordpool.txt	LTP139	ltpFR	10	5	1	RAILROAD	1162	n/a	n/a	0	n/a	0	0	0	0.422607421875	0.5869140625	0	upper	zerothre.ttf
907214	WORD	wordpools/wasnorm_wordpool.txt	LTP139	ltpFR	10	5	1	DRIVER	499	n/a	n/a	1	n/a	0	0	0	0.422607421875	0.5869140625	0	upper	zerothre.ttf
911405	WORD	wordpools/wasnorm_wordpool.txt	LTP139	ltpFR	10	5	1	PASSENGER	1020	n/a	n/a	1	n/a	0	0	0	0.422607421875	0.5869140625	0	upper	zerothre.ttf
915620	WORD	wordpools/wasnorm_wordpool.txt	LTP139	ltpFR	10	5	1	CABOOSE	214	n/a	n/a	0	n/a	0	0	0	0.422607421875	0.5869140625	0	upper	zerothre.ttf
919452	WORD	wordpools/wasnorm_wordpool.txt	LTP139	ltpFR	10	5	1	SLEEVE	1324	n/a	n/a	0	n/a	0	0	0	0.422607421875	0.5869140625	0	upper	zerothre.ttf
923351	WORD	wordpools/wasnorm_wordpool.txt	LTP139	ltpFR	10	5	1	ACTRESS	6	n/a	n/a	1	n/a	0	0	0	0.422607421875	0.5869140625	0	upper	zerothre.ttf
927283	WORD	wordpools/wasnorm_wordpool.txt	LTP139	ltpFR	10	5	1	GODDESS	646	n/a	n/a	0	n/a	0	0	0	0.422607421875	0.5869140625	0	upper	zerothre.ttf
931239	WORD	wordpools/wasnorm_wordpool.txt	LTP139	ltpFR	10	5	1	SHELF	1280	n/a	n/a	0	n/a	0	0	0	0.422607421875	0.5869140625	0	upper	zerothre.ttf
935388	WORD	wordpools/wasnorm_wordpool.txt	LTP139	ltpFR	10	5	1	AUTHOR	61	n/a	n/a	1	n/a	0	0	0	0.422607421875	0.5869140625	0	upper	zerothre.ttf
938396	START	n/a	LTP139	ltpFR	10	n/a	n/a	n/a	n/a	n/a	n/a	n/a	n/a	n/a	n/a	n/a	n/a	n/a	n/a	n/a	n/a
939320	PROB	n/a	LTP139	ltpFR	10	n/a	n/a	n/a	n/a	n/a	n/a	n/a	9	1	2	6	n/a	n/a	n/a	n/a	n/a
941119	PROB	n/a	LTP139	ltpFR	10	n/a	n/a	n/a	n/a	n/a	n/a	n/a	21	6	6	9	n/a	n/a	n/a	n/a	n/a
943893	PROB	n/a	LTP139	ltpFR	10	n/a	n/a	n/a	n/a	n/a	n/a	n/a	7	4	1	2	n/a	n/a	n/a	n/a	n/a
945427	PROB	n/a	LTP139	ltpFR	10	n/a	n/a	n/a	n/a	n/a	n/a	n/a	7	1	2	4	n/a	n/a	n/a	n/a	n/a
947042	PROB	n/a	LTP139	ltpFR	10	n/a	n/a	n/a	n/a	n/a	n/a	n/a	12	5	4	3	n/a	n/a	n/a	n/a	n/a
948999	PROB	n/a	LTP139	ltpFR	10	n/a	n/a	n/a	n/a	n/a	n/a	n/a	8	3	4	1	n/a	n/a	n/a	n/a	n/a
950575	PROB	n/a	LTP139	ltpFR	10	n/a	n/a	n/a	n/a	n/a	n/a	n/a	10	6	2	2	n/a	n/a	n/a	n/a	n/a
954396	STOP	n/a	LTP139	ltpFR	10	n/a	n/a	n/a	n/a	n/a	n/a	n/a	n/a	n/a	n/a	n/a	n/a	n/a	n/a	n/a	n/a
956214	REC_START	n/a	LTP139	ltpFR	10	5	n/a	n/a	n/a	n/a	n/a	n/a	n/a	0	0	0	n/a	n/a	n/a	n/a	n/a
957331	REC_WORD	wordpools/wasnorm_wordpool.txt	LTP139	ltpFR	10	5	1	ACTRESS	6	n/a	n/a	1	n/a	0	0	0	n/a	n/a	n/a	n/a	n/a
958344	REC_WORD	wordpools/wasnorm_wordpool.txt	LTP139	ltpFR	10	5	1	GODDESS	646	n/a	n/a	0	n/a	0	0	0	n/a	n/a	n/a	n/a	n/a
961133	REC_WORD	wordpools/wasnorm_wordpool.txt	LTP139	ltpFR	10	5	1	PASSENGER	1020	n/a	n/a	1	n/a	0	0	0	n/a	n/a	n/a	n/a	n/a
962056	REC_WORD	wordpools/wasnorm_wordpool.txt	LTP139	ltpFR	10	5	1	DRIVER	499	n/a	n/a	1	n/a	0	0	0	n/a	n/a	n/a	n/a	n/a
969040	REC_WORD	wordpools/wasnorm_wordpool.txt	LTP139	ltpFR	10	5	1	SURF	1412	n/a	n/a	0	n/a	0	0	0	n/a	n/a	n/a	n/a	n/a
970072	REC_WORD	wordpools/wasnorm_wordpool.txt	LTP139	ltpFR	10	5	1	DECK	443	n/a	n/a	0	n/a	0	0	0	n/a	n/a	n/a	n/a	n/a
971738	REC_WORD	wordpools/wasnorm_wordpool.txt	LTP139	ltpFR	10	5	1	PORCH	1106	n/a	n/a	0	n/a	0	0	0	n/a	n/a	n/a	n/a	n/a
976767	REC_WORD	wordpools/wasnorm_wordpool.txt	LTP139	ltpFR	10	5	1	KNOT	788	n/a	n/a	0	n/a	0	0	0	n/a	n/a	n/a	n/a	n/a
1057579	START	n/a	LTP139	ltpFR	10	n/a	n/a	n/a	n/a	n/a	n/a	n/a	n/a	n/a	n/a	n/a	n/a	n/a	n/a	n/a	n/a
1059085	PROB	n/a	LTP139	ltpFR	10	n/a	n/a	n/a	n/a	n/a	n/a	n/a	14	7	3	4	n/a	n/a	n/a	n/a	n/a
1060909	PROB	n/a	LTP139	ltpFR	10	n/a	n/a	n/a	n/a	n/a	n/a	n/a	18	7	3	8	n/a	n/a	n/a	n/a	n/a
1063526	PROB	n/a	LTP139	ltpFR	10	n/a	n/a	n/a	n/a	n/a	n/a	n/a	19	3	8	8	n/a	n/a	n/a	n/a	n/a
1065426	PROB	n/a	LTP139	ltpFR	10	n/a	n/a	n/a	n/a	n/a	n/a	n/a	14	6	3	5	n/a	n/a	n/a	n/a	n/a
1067199	PROB	n/a	LTP139	ltpFR	10	n/a	n/a	n/a	n/a	n/a	n/a	n/a	17	3	6	8	n/a	n/a	n/a	n/a	n/a
1069366	PROB	n/a	LTP139	ltpFR	10	n/a	n/a	n/a	n/a	n/a	n/a	n/a	10	1	1	8	n/a	n/a	n/a	n/a	n/a
1071089	PROB	n/a	LTP139	ltpFR	10	n/a	n/a	n/a	n/a	n/a	n/a	n/a	19	8	6	5	n/a	n/a	n/a	n/a	n/a
1072963	STOP	n/a	LTP139	ltpFR	10	n/a	n/a	n/a	n/a	n/a	n/a	n/a	n/a	n/a	n/a	n/a	n/a	n/a	n/a	n/a	n/a
1074680	WORD	wordpools/wasnorm_wordpool.txt	LTP139	ltpFR	10	6	1	EMPLOYER	532	n/a	n/a	1	n/a	0	0	0	0.422607421875	0.5869140625	0	upper	zerothre.ttf
1077687	START	n/a	LTP139	ltpFR	10	n/a	n/a	n/a	n/a	n/a	n/a	n/a	n/a	n/a	n/a	n/a	n/a	n/a	n/a	n/a	n/a
1078678	PROB	n/a	LTP139	ltpFR	10	n/a	n/a	n/a	n/a	n/a	n/a	n/a	10	1	6	3	n/a	n/a	n/a	n/a	n/a
1080802	PROB	n/a	LTP139	ltpFR	10	n/a	n/a	n/a	n/a	n/a	n/a	n/a	19	8	5	6	n/a	n/a	n/a	n/a	n/a
1084552	PROB	n/a	LTP139	ltpFR	10	n/a	n/a	n/a	n/a	n/a	n/a	n/a	19	6	7	6	n/a	n/a	n/a	n/a	n/a
1087326	PROB	n/a	LTP139	ltpFR	10	n/a	n/a	n/a	n/a	n/a	n/a	n/a	23	6	8	9	n/a	n/a	n/a	n/a	n/a
1093687	STOP	n/a	LTP139	ltpFR	10	n/a	n/a	n/a	n/a	n/a	n/a	n/a	n/a	n/a	n/a	n/a	n/a	n/a	n/a	n/a	n/a
1094665	WORD	wordpools/wasnorm_wordpool.txt	LTP139	ltpFR	10	6	1	ASSISTANT	48	n/a	n/a	1	n/a	0	0	0	0.422607421875	0.5869140625	0	upper	zerothre.ttf
1097672	START	n/a	LTP139	ltpFR	10	n/a	n/a	n/a	n/a	n/a	n/a	n/a	n/a	n/a	n/a	n/a	n/a	n/a	n/a	n/a	n/a
1098597	PROB	n/a	LTP139	ltpFR	10	n/a	n/a	n/a	n/a	n/a	n/a	n/a	13	6	1	6	n/a	n/a	n/a	n/a	n/a
1100262	PROB	n/a	LTP139	ltpFR	10	n/a	n/a	n/a	n/a	n/a	n/a	n/a	15	4	8	3	n/a	n/a	n/a	n/a	n/a
1102236	PROB	n/a	LTP139	ltpFR	10	n/a	n/a	n/a	n/a	n/a	n/a	n/a	18	9	7	2	n/a	n/a	n/a	n/a	n/a
1104852	PROB	n/a	LTP139	ltpFR	10	n/a	n/a	n/a	n/a	n/a	n/a	n/a	13	9	1	3	n/a	n/a	n/a	n/a	n/a
1106760	PROB	n/a	LTP139	ltpFR	10	n/a	n/a	n/a	n/a	n/a	n/a	n/a	12	3	6	3	n/a	n/a	n/a	n/a	n/a
1108984	PROB	n/a	LTP139	ltpFR	10	n/a	n/a	n/a	n/a	n/a	n/a	n/a	16	8	3	5	n/a	n/a	n/a	n/a	n/a
1113671	STOP	n/a	LTP139	ltpFR	10	n/a	n/a	n/a	n/a	n/a	n/a	n/a	n/a	n/a	n/a	n/a	n/a	n/a	n/a	n/a	n/a
1114541	WORD	wordpools/wasnorm_wordpool.txt	LTP139	ltpFR	10	6	1	NET	946	n/a	n/a	0	n/a	0	0	0	0.422607421875	0.5869140625	0	upper	zerothre.ttf
1117549	START	n/a	LTP139	ltpFR	10	n/a	n/a	n/a	n/a	n/a	n/a	n/a	n/a	n/a	n/a	n/a	n/a	n/a	n/a	n/a	n/a
1118706	PROB	n/a	LTP139	ltpFR	10	n/a	n/a	n/a	n/a	n/a	n/a	n/a	14	5	3	6	n/a	n/a	n/a	n/a	n/a
1121221	PROB	n/a	LTP139	ltpFR	10	n/a	n/a	n/a	n/a	n/a	n/a	n/a	15	4	5	6	n/a	n/a	n/a	n/a	n/a
1123887	PROB	n/a	LTP139	ltpFR	10	n/a	n/a	n/a	n/a	n/a	n/a	n/a	20	9	3	8	n/a	n/a	n/a	n/a	n/a
1127203	PROB	n/a	LTP139	ltpFR	10	n/a	n/a	n/a	n/a	n/a	n/a	n/a	11	6	3	2	n/a	n/a	n/a	n/a	n/a
1129411	PROB	n/a	LTP139	ltpFR	10	n/a	n/a	n/a	n/a	n/a	n/a	n/a	19	8	2	9	n/a	n/a	n/a	n/a	n/a
1133549	STOP	n/a	LTP139	ltpFR	10	n/a	n/a	n/a	n/a	n/a	n/a	n/a	n/a	n/a	n/a	n/a	n/a	n/a	n/a	n/a	n/a
1134543	WORD	wordpools/wasnorm_wordpool.txt	LTP139	ltpFR	10	6	1	TROUT	1511	n/a	n/a	1	n/a	0	0	0	0.422607421875	0.5869140625	0	upper	zerothre.ttf
1137550	START	n/a	LTP139	ltpFR	10	n/a	n/a	n/a	n/a	n/a	n/a	n/a	n/a	n/a	n/a	n/a	n/a	n/a	n/a	n/a	n/a
1138483	PROB	n/a	LTP139	ltpFR	10	n/a	n/a	n/a	n/a	n/a	n/a	n/a	16	7	3	6	n/a	n/a	n/a	n/a	n/a
1141156	PROB	n/a	LTP139	ltpFR	10	n/a	n/a	n/a	n/a	n/a	n/a	n/a	14	8	5	1	n/a	n/a	n/a	n/a	n/a
1144130	PROB	n/a	LTP139	ltpFR	10	n/a	n/a	n/a	n/a	n/a	n/a	n/a	16	5	4	7	n/a	n/a	n/a	n/a	n/a
1146021	PROB	n/a	LTP139	ltpFR	10	n/a	n/a	n/a	n/a	n/a	n/a	n/a	11	8	2	1	n/a	n/a	n/a	n/a	n/a
1147513	PROB	n/a	LTP139	ltpFR	10	n/a	n/a	n/a	n/a	n/a	n/a	n/a	16	1	7	8	n/a	n/a	n/a	n/a	n/a
1149128	PROB	n/a	LTP139	ltpFR	10	n/a	n/a	n/a	n/a	n/a	n/a	n/a	19	8	2	9	n/a	n/a	n/a	n/a	n/a
1150886	PROB	n/a	LTP139	ltpFR	10	n/a	n/a	n/a	n/a	n/a	n/a	n/a	9	5	3	1	n/a	n/a	n/a	n/a	n/a
1152460	STOP	n/a	LTP139	ltpFR	10	n/a	n/a	n/a	n/a	n/a	n/a	n/a	n/a	n/a	n/a	n/a	n/a	n/a	n/a	n/a	n/a
1154619	WORD	wordpools/wasnorm_wordpool.txt	LTP139	ltpFR	10	6	1	WAGON	1578	n/a	n/a	0	n/a	0	0	0	0.422607421875	0.5869140625	0	upper	zerothre.ttf
1157627	START	n/a	LTP139	ltpFR	10	n/a	n/a	n/a	n/a	n/a	n/a	n/a	n/a	n/a	n/a	n/a	n/a	n/a	n/a	n/a	n/a
1158808	PROB	n/a	LTP139	ltpFR	10	n/a	n/a	n/a	n/a	n/a	n/a	n/a	12	3	7	2	n/a	n/a	n/a	n/a	n/a
1160500	PROB	n/a	LTP139	ltpFR	10	n/a	n/a	n/a	n/a	n/a	n/a	n/a	25	9	9	7	n/a	n/a	n/a	n/a	n/a
1163748	PROB	n/a	LTP139	ltpFR	10	n/a	n/a	n/a	n/a	n/a	n/a	n/a	18	1	8	9	n/a	n/a	n/a	n/a	n/a
1166780	PROB	n/a	LTP139	ltpFR	10	n/a	n/a	n/a	n/a	n/a	n/a	n/a	18	1	9	8	n/a	n/a	n/a	n/a	n/a
1169812	PROB	n/a	LTP139	ltpFR	10	n/a	n/a	n/a	n/a	n/a	n/a	n/a	16	1	9	6	n/a	n/a	n/a	n/a	n/a
1172187	STOP	n/a	LTP139	ltpFR	10	n/a	n/a	n/a	n/a	n/a	n/a	n/a	n/a	n/a	n/a	n/a	n/a	n/a	n/a	n/a	n/a
1174711	WORD	wordpools/wasnorm_wordpool.txt	LTP139	ltpFR	10	6	1	HAYSTACK	694	n/a	n/a	0	n/a	0	0	0	0.422607421875	0.5869140625	0	upper	zerothre.ttf
1177718	START	n/a	LTP139	ltpFR	10	n/a	n/a	n/a	n/a	n/a	n/a	n/a	n/a	n/a	n/a	n/a	n/a	n/a	n/a	n/a	n/a
1178527	PROB	n/a	LTP139	ltpFR	10	n/a	n/a	n/a	n/a	n/a	n/a	n/a	12	1	9	2	n/a	n/a	n/a	n/a	n/a
1180209	PROB	n/a	LTP139	ltpFR	10	n/a	n/a	n/a	n/a	n/a	n/a	n/a	10	4	5	1	n/a	n/a	n/a	n/a	n/a
1182326	PROB	n/a	LTP139	ltpFR	10	n/a	n/a	n/a	n/a	n/a	n/a	n/a	9	4	4	1	n/a	n/a	n/a	n/a	n/a
1183757	PROB	n/a	LTP139	ltpFR	10	n/a	n/a	n/a	n/a	n/a	n/a	n/a	16	8	5	3	n/a	n/a	n/a	n/a	n/a
1185815	PROB	n/a	LTP139	ltpFR	10	n/a	n/a	n/a	n/a	n/a	n/a	n/a	15	9	1	5	n/a	n/a	n/a	n/a	n/a
1187341	PROB	n/a	LTP139	ltpFR	10	n/a	n/a	n/a	n/a	n/a	n/a	n/a	13	1	3	9	n/a	n/a	n/a	n/a	n/a
1193718	STOP	n/a	LTP139	ltpFR	10	n/a	n/a	n/a	n/a	n/a	n/a	n/a	n/a	n/a	n/a	n/a	n/a	n/a	n/a	n/a	n/a
1194812	WORD	wordpools/wasnorm_wordpool.txt	LTP139	ltpFR	10	6	1	QUARTER	1148	n/a	n/a	0	n/a	0	0	0	0.422607421875	0.5869140625	0	upper	zerothre.ttf
1197820	START	n/a	LTP139	ltpFR	10	n/a	n/a	n/a	n/a	n/a	n/a	n/a	n/a	n/a	n/a	n/a	n/a	n/a	n/a	n/a	n/a
1198677	PROB	n/a	LTP139	ltpFR	10	n/a	n/a	n/a	n/a	n/a	n/a	n/a	20	2	9	9	n/a	n/a	n/a	n/a	n/a
1200843	PROB	n/a	LTP139	ltpFR	10	n/a	n/a	n/a	n/a	n/a	n/a	n/a	11	1	7	3	n/a	n/a	n/a	n/a	n/a
1202901	PROB	n/a	LTP139	ltpFR	10	n/a	n/a	n/a	n/a	n/a	n/a	n/a	12	1	3	8	n/a	n/a	n/a	n/a	n/a
1205326	PROB	n/a	LTP139	ltpFR	10	n/a	n/a	n/a	n/a	n/a	n/a	n/a	14	6	6	2	n/a	n/a	n/a	n/a	n/a
1207525	PROB	n/a	LTP139	ltpFR	10	n/a	n/a	n/a	n/a	n/a	n/a	n/a	10	3	3	4	n/a	n/a	n/a	n/a	n/a
1209516	PROB	n/a	LTP139	ltpFR	10	n/a	n/a	n/a	n/a	n/a	n/a	n/a	13	5	5	3	n/a	n/a	n/a	n/a	n/a
1211056	PROB	n/a	LTP139	ltpFR	10	n/a	n/a	n/a	n/a	n/a	n/a	n/a	19	2	8	9	n/a	n/a	n/a	n/a	n/a
1212739	STOP	n/a	LTP139	ltpFR	10	n/a	n/a	n/a	n/a	n/a	n/a	n/a	n/a	n/a	n/a	n/a	n/a	n/a	n/a	n/a	n/a
1215005	WORD	wordpools/wasnorm_wordpool.txt	LTP139	ltpFR	10	6	1	GROUND	666	n/a	n/a	0	n/a	0	0	0	0.422607421875	0.5869140625	0	upper	zerothre.ttf
1218013	START	n/a	LTP139	ltpFR	10	n/a	n/a	n/a	n/a	n/a	n/a	n/a	n/a	n/a	n/a	n/a	n/a	n/a	n/a	n/a	n/a
1219070	PROB	n/a	LTP139	ltpFR	10	n/a	n/a	n/a	n/a	n/a	n/a	n/a	18	7	5	6	n/a	n/a	n/a	n/a	n/a
1226535	PROB	n/a	LTP139	ltpFR	10	n/a	n/a	n/a	n/a	n/a	n/a	n/a	18	5	4	9	n/a	n/a	n/a	n/a	n/a
1229150	PROB	n/a	LTP139	ltpFR	10	n/a	n/a	n/a	n/a	n/a	n/a	n/a	17	9	5	3	n/a	n/a	n/a	n/a	n/a
1231491	PROB	n/a	LTP139	ltpFR	10	n/a	n/a	n/a	n/a	n/a	n/a	n/a	17	4	8	5	n/a	n/a	n/a	n/a	n/a
1233644	STOP	n/a	LTP139	ltpFR	10	n/a	n/a	n/a	n/a	n/a	n/a	n/a	n/a	n/a	n/a	n/a	n/a	n/a	n/a	n/a	n/a
1234981	WORD	wordpools/wasnorm_wordpool.txt	LTP139	ltpFR	10	6	1	TORTOISE	1486	n/a	n/a	1	n/a	0	0	0	0.422607421875	0.5869140625	0	upper	zerothre.ttf
1237989	START	n/a	LTP139	ltpFR	10	n/a	n/a	n/a	n/a	n/a	n/a	n/a	n/a	n/a	n/a	n/a	n/a	n/a	n/a	n/a	n/a
1238863	PROB	n/a	LTP139	ltpFR	10	n/a	n/a	n/a	n/a	n/a	n/a	n/a	20	3	8	9	n/a	n/a	n/a	n/a	n/a
1242313	PROB	n/a	LTP139	ltpFR	10	n/a	n/a	n/a	n/a	n/a	n/a	n/a	24	9	7	8	n/a	n/a	n/a	n/a	n/a
1246185	PROB	n/a	LTP139	ltpFR	10	n/a	n/a	n/a	n/a	n/a	n/a	n/a	16	5	9	2	n/a	n/a	n/a	n/a	n/a
1249502	PROB	n/a	LTP139	ltpFR	10	n/a	n/a	n/a	n/a	n/a	n/a	n/a	15	5	7	3	n/a	n/a	n/a	n/a	n/a
1251401	PROB	n/a	LTP139	ltpFR	10	n/a	n/a	n/a	n/a	n/a	n/a	n/a	25	6	9	9	n/a	n/a	n/a	n/a	n/a
1253300	STOP	n/a	LTP139	ltpFR	10	n/a	n/a	n/a	n/a	n/a	n/a	n/a	n/a	n/a	n/a	n/a	n/a	n/a	n/a	n/a	n/a
1254940	WORD	wordpools/wasnorm_wordpool.txt	LTP139	ltpFR	10	6	1	MOP	916	n/a	n/a	0	n/a	0	0	0	0.422607421875	0.5869140625	0	upper	zerothre.ttf
1257948	START	n/a	LTP139	ltpFR	10	n/a	n/a	n/a	n/a	n/a	n/a	n/a	n/a	n/a	n/a	n/a	n/a	n/a	n/a	n/a	n/a
1259014	PROB	n/a	LTP139	ltpFR	10	n/a	n/a	n/a	n/a	n/a	n/a	n/a	23	9	8	6	n/a	n/a	n/a	n/a	n/a
1262888	PROB	n/a	LTP139	ltpFR	10	n/a	n/a	n/a	n/a	n/a	n/a	n/a	11	2	3	6	n/a	n/a	n/a	n/a	n/a
1265195	PROB	n/a	LTP139	ltpFR	10	n/a	n/a	n/a	n/a	n/a	n/a	n/a	15	3	3	9	n/a	n/a	n/a	n/a	n/a
1267604	PROB	n/a	LTP139	ltpFR	10	n/a	n/a	n/a	n/a	n/a	n/a	n/a	12	1	8	3	n/a	n/a	n/a	n/a	n/a
1269661	PROB	n/a	LTP139	ltpFR	10	n/a	n/a	n/a	n/a	n/a	n/a	n/a	20	9	2	9	n/a	n/a	n/a	n/a	n/a
1271511	PROB	n/a	LTP139	ltpFR	10	n/a	n/a	n/a	n/a	n/a	n/a	n/a	10	1	2	7	n/a	n/a	n/a	n/a	n/a
1273556	STOP	n/a	LTP139	ltpFR	10	n/a	n/a	n/a	n/a	n/a	n/a	n/a	n/a	n/a	n/a	n/a	n/a	n/a	n/a	n/a	n/a
1275058	WORD	wordpools/wasnorm_wordpool.txt	LTP139	ltpFR	10	6	1	RAKE	1164	n/a	n/a	0	n/a	0	0	0	0.422607421875	0.5869140625	0	upper	zerothre.ttf
1278066	START	n/a	LTP139	ltpFR	10	n/a	n/a	n/a	n/a	n/a	n/a	n/a	n/a	n/a	n/a	n/a	n/a	n/a	n/a	n/a	n/a
1279065	PROB	n/a	LTP139	ltpFR	10	n/a	n/a	n/a	n/a	n/a	n/a	n/a	13	7	1	5	n/a	n/a	n/a	n/a	n/a
1281681	PROB	n/a	LTP139	ltpFR	10	n/a	n/a	n/a	n/a	n/a	n/a	n/a	11	8	2	1	n/a	n/a	n/a	n/a	n/a
1284298	PROB	n/a	LTP139	ltpFR	10	n/a	n/a	n/a	n/a	n/a	n/a	n/a	11	3	1	5	n/a	n/a	n/a	n/a	n/a
1286096	PROB	n/a	LTP139	ltpFR	10	n/a	n/a	n/a	n/a	n/a	n/a	n/a	10	4	3	3	n/a	n/a	n/a	n/a	n/a
1288455	PROB	n/a	LTP139	ltpFR	10	n/a	n/a	n/a	n/a	n/a	n/a	n/a	19	5	8	6	n/a	n/a	n/a	n/a	n/a
1291061	PROB	n/a	LTP139	ltpFR	10	n/a	n/a	n/a	n/a	n/a	n/a	n/a	10	6	2	2	n/a	n/a	n/a	n/a	n/a
1292923	STOP	n/a	LTP139	ltpFR	10	n/a	n/a	n/a	n/a	n/a	n/a	n/a	n/a	n/a	n/a	n/a	n/a	n/a	n/a	n/a	n/a
1295109	WORD	wordpools/wasnorm_wordpool.txt	LTP139	ltpFR	10	6	1	TURTLE	1522	n/a	n/a	1	n/a	0	0	0	0.422607421875	0.5869140625	0	upper	zerothre.ttf
1298117	START	n/a	LTP139	ltpFR	10	n/a	n/a	n/a	n/a	n/a	n/a	n/a	n/a	n/a	n/a	n/a	n/a	n/a	n/a	n/a	n/a
1299141	PROB	n/a	LTP139	ltpFR	10	n/a	n/a	n/a	n/a	n/a	n/a	n/a	19	7	8	4	n/a	n/a	n/a	n/a	n/a
1302508	PROB	n/a	LTP139	ltpFR	10	n/a	n/a	n/a	n/a	n/a	n/a	n/a	19	7	4	8	n/a	n/a	n/a	n/a	n/a
1307573	PROB	n/a	LTP139	ltpFR	10	n/a	n/a	n/a	n/a	n/a	n/a	n/a	19	7	5	7	n/a	n/a	n/a	n/a	n/a
1309639	PROB	n/a	LTP139	ltpFR	10	n/a	n/a	n/a	n/a	n/a	n/a	n/a	9	4	2	3	n/a	n/a	n/a	n/a	n/a
1314105	STOP	n/a	LTP139	ltpFR	10	n/a	n/a	n/a	n/a	n/a	n/a	n/a	n/a	n/a	n/a	n/a	n/a	n/a	n/a	n/a	n/a
1315077	WORD	wordpools/wasnorm_wordpool.txt	LTP139	ltpFR	10	6	1	BATHTUB	100	n/a	n/a	0	n/a	0	0	0	0.422607421875	0.5869140625	0	upper	zerothre.ttf
1318085	START	n/a	LTP139	ltpFR	10	n/a	n/a	n/a	n/a	n/a	n/a	n/a	n/a	n/a	n/a	n/a	n/a	n/a	n/a	n/a	n/a
1319277	PROB	n/a	LTP139	ltpFR	10	n/a	n/a	n/a	n/a	n/a	n/a	n/a	7	2	3	2	n/a	n/a	n/a	n/a	n/a
1321609	PROB	n/a	LTP139	ltpFR	10	n/a	n/a	n/a	n/a	n/a	n/a	n/a	13	7	1	5	n/a	n/a	n/a	n/a	n/a
1324157	PROB	n/a	LTP139	ltpFR	10	n/a	n/a	n/a	n/a	n/a	n/a	n/a	18	7	7	4	n/a	n/a	n/a	n/a	n/a
1326533	PROB	n/a	LTP139	ltpFR	10	n/a	n/a	n/a	n/a	n/a	n/a	n/a	5	3	1	1	n/a	n/a	n/a	n/a	n/a
1327839	PROB	n/a	LTP139	ltpFR	10	n/a	n/a	n/a	n/a	n/a	n/a	n/a	10	1	1	8	n/a	n/a	n/a	n/a	n/a
1329997	PROB	n/a	LTP139	ltpFR	10	n/a	n/a	n/a	n/a	n/a	n/a	n/a	19	5	8	6	n/a	n/a	n/a	n/a	n/a
1332620	STOP	n/a	LTP139	ltpFR	10	n/a	n/a	n/a	n/a	n/a	n/a	n/a	n/a	n/a	n/a	n/a	n/a	n/a	n/a	n/a	n/a
1335079	WORD	wordpools/wasnorm_wordpool.txt	LTP139	ltpFR	10	6	1	TORNADO	1485	n/a	n/a	0	n/a	0	0	0	0.422607421875	0.5869140625	0	upper	zerothre.ttf
1338086	START	n/a	LTP139	ltpFR	10	n/a	n/a	n/a	n/a	n/a	n/a	n/a	n/a	n/a	n/a	n/a	n/a	n/a	n/a	n/a	n/a
1338977	PROB	n/a	LTP139	ltpFR	10	n/a	n/a	n/a	n/a	n/a	n/a	n/a	14	3	5	6	n/a	n/a	n/a	n/a	n/a
1342118	PROB	n/a	LTP139	ltpFR	10	n/a	n/a	n/a	n/a	n/a	n/a	n/a	14	6	6	4	n/a	n/a	n/a	n/a	n/a
1343585	PROB	n/a	LTP139	ltpFR	10	n/a	n/a	n/a	n/a	n/a	n/a	n/a	17	5	6	6	n/a	n/a	n/a	n/a	n/a
1347267	PROB	n/a	LTP139	ltpFR	10	n/a	n/a	n/a	n/a	n/a	n/a	n/a	9	4	1	4	n/a	n/a	n/a	n/a	n/a
1348974	PROB	n/a	LTP139	ltpFR	10	n/a	n/a	n/a	n/a	n/a	n/a	n/a	10	7	1	2	n/a	n/a	n/a	n/a	n/a
1350998	PROB	n/a	LTP139	ltpFR	10	n/a	n/a	n/a	n/a	n/a	n/a	n/a	17	3	9	5	n/a	n/a	n/a	n/a	n/a
1353660	STOP	n/a	LTP139	ltpFR	10	n/a	n/a	n/a	n/a	n/a	n/a	n/a	n/a	n/a	n/a	n/a	n/a	n/a	n/a	n/a	n/a
1355096	WORD	wordpools/wasnorm_wordpool.txt	LTP139	ltpFR	10	6	1	BOTTLE	153	n/a	n/a	0	n/a	0	0	0	0.422607421875	0.5869140625	0	upper	zerothre.ttf
1358104	START	n/a	LTP139	ltpFR	10	n/a	n/a	n/a	n/a	n/a	n/a	n/a	n/a	n/a	n/a	n/a	n/a	n/a	n/a	n/a	n/a
1359162	PROB	n/a	LTP139	ltpFR	10	n/a	n/a	n/a	n/a	n/a	n/a	n/a	5	2	1	2	n/a	n/a	n/a	n/a	n/a
1360694	PROB	n/a	LTP139	ltpFR	10	n/a	n/a	n/a	n/a	n/a	n/a	n/a	6	2	2	2	n/a	n/a	n/a	n/a	n/a
1361977	PROB	n/a	LTP139	ltpFR	10	n/a	n/a	n/a	n/a	n/a	n/a	n/a	17	4	8	5	n/a	n/a	n/a	n/a	n/a
1364544	PROB	n/a	LTP139	ltpFR	10	n/a	n/a	n/a	n/a	n/a	n/a	n/a	15	9	1	5	n/a	n/a	n/a	n/a	n/a
1366259	PROB	n/a	LTP139	ltpFR	10	n/a	n/a	n/a	n/a	n/a	n/a	n/a	15	8	5	2	n/a	n/a	n/a	n/a	n/a
1374104	STOP	n/a	LTP139	ltpFR	10	n/a	n/a	n/a	n/a	n/a	n/a	n/a	n/a	n/a	n/a	n/a	n/a	n/a	n/a	n/a	n/a
1375173	WORD	wordpools/wasnorm_wordpool.txt	LTP139	ltpFR	10	6	1	ROOST	1208	n/a	n/a	0	n/a	0	0	0	0.422607421875	0.5869140625	0	upper	zerothre.ttf
1378180	START	n/a	LTP139	ltpFR	10	n/a	n/a	n/a	n/a	n/a	n/a	n/a	n/a	n/a	n/a	n/a	n/a	n/a	n/a	n/a	n/a
1379171	PROB	n/a	LTP139	ltpFR	10	n/a	n/a	n/a	n/a	n/a	n/a	n/a	13	3	7	3	n/a	n/a	n/a	n/a	n/a
1382045	PROB	n/a	LTP139	ltpFR	10	n/a	n/a	n/a	n/a	n/a	n/a	n/a	20	7	7	6	n/a	n/a	n/a	n/a	n/a
1383936	PROB	n/a	LTP139	ltpFR	10	n/a	n/a	n/a	n/a	n/a	n/a	n/a	24	8	7	9	n/a	n/a	n/a	n/a	n/a
1387361	PROB	n/a	LTP139	ltpFR	10	n/a	n/a	n/a	n/a	n/a	n/a	n/a	14	9	3	2	n/a	n/a	n/a	n/a	n/a
1389792	PROB	n/a	LTP139	ltpFR	10	n/a	n/a	n/a	n/a	n/a	n/a	n/a	23	8	7	8	n/a	n/a	n/a	n/a	n/a
1394180	STOP	n/a	LTP139	ltpFR	10	n/a	n/a	n/a	n/a	n/a	n/a	n/a	n/a	n/a	n/a	n/a	n/a	n/a	n/a	n/a	n/a
1395941	REC_START	n/a	LTP139	ltpFR	10	6	n/a	n/a	n/a	n/a	n/a	n/a	n/a	0	0	0	n/a	n/a	n/a	n/a	n/a
1397417	REC_WORD	wordpools/wasnorm_wordpool.txt	LTP139	ltpFR	10	6	n/a	ROOSTER	1209	n/a	n/a	n/a	n/a	0	0	0	n/a	n/a	n/a	n/a	n/a
1398525	REC_WORD	wordpools/wasnorm_wordpool.txt	LTP139	ltpFR	10	6	1	WAGON	1578	n/a	n/a	0	n/a	0	0	0	n/a	n/a	n/a	n/a	n/a
1399461	REC_WORD	wordpools/wasnorm_wordpool.txt	LTP139	ltpFR	10	6	1	HAYSTACK	694	n/a	n/a	0	n/a	0	0	0	n/a	n/a	n/a	n/a	n/a
1420984	REC_WORD	wordpools/wasnorm_wordpool.txt	LTP139	ltpFR	10	6	1	TORTOISE	1486	n/a	n/a	1	n/a	0	0	0	n/a	n/a	n/a	n/a	n/a
1421753	REC_WORD	wordpools/wasnorm_wordpool.txt	LTP139	ltpFR	10	6	1	TURTLE	1522	n/a	n/a	1	n/a	0	0	0	n/a	n/a	n/a	n/a	n/a
1492789	START	n/a	LTP139	ltpFR	10	n/a	n/a	n/a	n/a	n/a	n/a	n/a	n/a	n/a	n/a	n/a	n/a	n/a	n/a	n/a	n/a
1494298	PROB	n/a	LTP139	ltpFR	10	n/a	n/a	n/a	n/a	n/a	n/a	n/a	25	9	8	6	n/a	n/a	n/a	n/a	n/a
1496829	PROB	n/a	LTP139	ltpFR	10	n/a	n/a	n/a	n/a	n/a	n/a	n/a	10	5	4	1	n/a	n/a	n/a	n/a	n/a
1498687	PROB	n/a	LTP139	ltpFR	10	n/a	n/a	n/a	n/a	n/a	n/a	n/a	23	7	7	9	n/a	n/a	n/a	n/a	n/a
1500420	STOP	n/a	LTP139	ltpFR	10	n/a	n/a	n/a	n/a	n/a	n/a	n/a	n/a	n/a	n/a	n/a	n/a	n/a	n/a	n/a	n/a
1501936	WORD	wordpools/wasnorm_wordpool.txt	LTP139	ltpFR	10	7	0	SCARF	1246	n/a	n/a	0	n/a	0	0	0	0.57763671875	0.412841796875	1	lower	amplitud.ttf
1504944	START	n/a	LTP139	ltpFR	10	n/a	n/a	n/a	n/a	n/a	n/a	n/a	n/a	n/a	n/a	n/a	n/a	n/a	n/a	n/a	n/a
1506068	PROB	n/a	LTP139	ltpFR	10	n/a	n/a	n/a	n/a	n/a	n/a	n/a	16	4	4	8	n/a	n/a	n/a	n/a	n/a
1508343	PROB	n/a	LTP139	ltpFR	10	n/a	n/a	n/a	n/a	n/a	n/a	n/a	23	7	7	9	n/a	n/a	n/a	n/a	n/a
1510317	PROB	n/a	LTP139	ltpFR	10	n/a	n/a	n/a	n/a	n/a	n/a	n/a	12	8	2	2	n/a	n/a	n/a	n/a	n/a
1511835	STOP	n/a	LTP139	ltpFR	10	n/a	n/a	n/a	n/a	n/a	n/a	n/a	n/a	n/a	n/a	n/a	n/a	n/a	n/a	n/a	n/a
1514023	WORD	wordpools/wasnorm_wordpool.txt	LTP139	ltpFR	10	7	0	DASHBOARD	441	n/a	n/a	1	n/a	0	0	0	0.57763671875	0.412841796875	1	lower	amplitud.ttf
1517031	START	n/a	LTP139	ltpFR	10	n/a	n/a	n/a	n/a	n/a	n/a	n/a	n/a	n/a	n/a	n/a	n/a	n/a	n/a	n/a	n/a
1518172	PROB	n/a	LTP139	ltpFR	10	n/a	n/a	n/a	n/a	n/a	n/a	n/a	15	2	5	8	n/a	n/a	n/a	n/a	n/a
1520630	PROB	n/a	LTP139	ltpFR	10	n/a	n/a	n/a	n/a	n/a	n/a	n/a	15	5	6	4	n/a	n/a	n/a	n/a	n/a
1522396	PROB	n/a	LTP139	ltpFR	10	n/a	n/a	n/a	n/a	n/a	n/a	n/a	20	9	8	3	n/a	n/a	n/a	n/a	n/a
1524588	STOP	n/a	LTP139	ltpFR	10	n/a	n/a	n/a	n/a	n/a	n/a	n/a	n/a	n/a	n/a	n/a	n/a	n/a	n/a	n/a	n/a
1526094	WORD	wordpools/wasnorm_wordpool.txt	LTP139	ltpFR	10	7	1	OATMEAL	967	n/a	n/a	0	n/a	0	0	0	0.422607421875	0.5869140625	0	upper	zerothre.ttf
1529102	START	n/a	LTP139	ltpFR	10	n/a	n/a	n/a	n/a	n/a	n/a	n/a	n/a	n/a	n/a	n/a	n/a	n/a	n/a	n/a	n/a
1530101	PROB	n/a	LTP139	ltpFR	10	n/a	n/a	n/a	n/a	n/a	n/a	n/a	22	5	9	8	n/a	n/a	n/a	n/a	n/a
1534966	PROB	n/a	LTP139	ltpFR	10	n/a	n/a	n/a	n/a	n/a	n/a	n/a	9	5	2	2	n/a	n/a	n/a	n/a	n/a
1536628	STOP	n/a	LTP139	ltpFR	10	n/a	n/a	n/a	n/a	n/a	n/a	n/a	n/a	n/a	n/a	n/a	n/a	n/a	n/a	n/a	n/a
1538023	WORD	wordpools/wasnorm_wordpool.txt	LTP139	ltpFR	10	7	1	REFRIGERATOR	1179	n/a	n/a	0	n/a	0	0	0	0.422607421875	0.5869140625	0	upper	zerothre.ttf
1541031	START	n/a	LTP139	ltpFR	10	n/a	n/a	n/a	n/a	n/a	n/a	n/a	n/a	n/a	n/a	n/a	n/a	n/a	n/a	n/a	n/a
1542171	PROB	n/a	LTP139	ltpFR	10	n/a	n/a	n/a	n/a	n/a	n/a	n/a	15	8	3	4	n/a	n/a	n/a	n/a	n/a
1545204	PROB	n/a	LTP139	ltpFR	10	n/a	n/a	n/a	n/a	n/a	n/a	n/a	22	4	9	9	n/a	n/a	n/a	n/a	n/a
1547947	STOP	n/a	LTP139	ltpFR	10	n/a	n/a	n/a	n/a	n/a	n/a	n/a	n/a	n/a	n/a	n/a	n/a	n/a	n/a	n/a	n/a
1549994	WORD	wordpools/wasnorm_wordpool.txt	LTP139	ltpFR	10	7	1	PARCEL	1012	n/a	n/a	0	n/a	0	0	0	0.422607421875	0.5869140625	0	upper	zerothre.ttf
1553001	START	n/a	LTP139	ltpFR	10	n/a	n/a	n/a	n/a	n/a	n/a	n/a	n/a	n/a	n/a	n/a	n/a	n/a	n/a	n/a	n/a
1553942	PROB	n/a	LTP139	ltpFR	10	n/a	n/a	n/a	n/a	n/a	n/a	n/a	18	3	7	8	n/a	n/a	n/a	n/a	n/a
1556417	PROB	n/a	LTP139	ltpFR	10	n/a	n/a	n/a	n/a	n/a	n/a	n/a	18	8	5	5	n/a	n/a	n/a	n/a	n/a
1558300	PROB	n/a	LTP139	ltpFR	10	n/a	n/a	n/a	n/a	n/a	n/a	n/a	15	4	6	5	n/a	n/a	n/a	n/a	n/a
1560723	STOP	n/a	LTP139	ltpFR	10	n/a	n/a	n/a	n/a	n/a	n/a	n/a	n/a	n/a	n/a	n/a	n/a	n/a	n/a	n/a	n/a
1562139	WORD	wordpools/wasnorm_wordpool.txt	LTP139	ltpFR	10	7	1	BOX	159	n/a	n/a	0	n/a	0	0	0	0.422607421875	0.5869140625	0	upper	zerothre.ttf
1565147	START	n/a	LTP139	ltpFR	10	n/a	n/a	n/a	n/a	n/a	n/a	n/a	n/a	n/a	n/a	n/a	n/a	n/a	n/a	n/a	n/a
1565988	PROB	n/a	LTP139	ltpFR	10	n/a	n/a	n/a	n/a	n/a	n/a	n/a	20	9	5	6	n/a	n/a	n/a	n/a	n/a
1569621	PROB	n/a	LTP139	ltpFR	10	n/a	n/a	n/a	n/a	n/a	n/a	n/a	11	5	3	3	n/a	n/a	n/a	n/a	n/a
1572075	STOP	n/a	LTP139	ltpFR	10	n/a	n/a	n/a	n/a	n/a	n/a	n/a	n/a	n/a	n/a	n/a	n/a	n/a	n/a	n/a	n/a
1574336	WORD	wordpools/wasnorm_wordpool.txt	LTP139	ltpFR	10	7	1	CLOWN	330	n/a	n/a	0	n/a	0	0	0	0.422607421875	0.5869140625	0	upper	zerothre.ttf
1577344	START	n/a	LTP139	ltpFR	10	n/a	n/a	n/a	n/a	n/a	n/a	n/a	n/a	n/a	n/a	n/a	n/a	n/a	n/a	n/a	n/a
1578485	PROB	n/a	LTP139	ltpFR	10	n/a	n/a	n/a	n/a	n/a	n/a	n/a	18	3	6	9	n/a	n/a	n/a	n/a	n/a
1580675	PROB	n/a	LTP139	ltpFR	10	n/a	n/a	n/a	n/a	n/a	n/a	n/a	11	2	7	2	n/a	n/a	n/a	n/a	n/a
1582707	PROB	n/a	LTP139	ltpFR	10	n/a	n/a	n/a	n/a	n/a	n/a	n/a	17	7	1	9	n/a	n/a	n/a	n/a	n/a
1584556	STOP	n/a	LTP139	ltpFR	10	n/a	n/a	n/a	n/a	n/a	n/a	n/a	n/a	n/a	n/a	n/a	n/a	n/a	n/a	n/a	n/a
1586465	WORD	wordpools/wasnorm_wordpool.txt	LTP139	ltpFR	10	7	1	TAXI	1438	n/a	n/a	0	n/a	0	0	0	0.422607421875	0.5869140625	0	upper	zerothre.ttf
1589473	START	n/a	LTP139	ltpFR	10	n/a	n/a	n/a	n/a	n/a	n/a	n/a	n/a	n/a	n/a	n/a	n/a	n/a	n/a	n/a	n/a
1590480	PROB	n/a	LTP139	ltpFR	10	n/a	n/a	n/a	n/a	n/a	n/a	n/a	18	6	5	7	n/a	n/a	n/a	n/a	n/a
1596011	STOP	n/a	LTP139	ltpFR	10	n/a	n/a	n/a	n/a	n/a	n/a	n/a	n/a	n/a	n/a	n/a	n/a	n/a	n/a	n/a	n/a
1598502	WORD	wordpools/wasnorm_wordpool.txt	LTP139	ltpFR	10	7	0	COBRA	336	n/a	n/a	1	n/a	0	0	0	0.57763671875	0.412841796875	1	lower	amplitud.ttf
1601510	START	n/a	LTP139	ltpFR	10	n/a	n/a	n/a	n/a	n/a	n/a	n/a	n/a	n/a	n/a	n/a	n/a	n/a	n/a	n/a	n/a
1602334	PROB	n/a	LTP139	ltpFR	10	n/a	n/a	n/a	n/a	n/a	n/a	n/a	20	7	8	5	n/a	n/a	n/a	n/a	n/a
1604908	PROB	n/a	LTP139	ltpFR	10	n/a	n/a	n/a	n/a	n/a	n/a	n/a	21	6	8	7	n/a	n/a	n/a	n/a	n/a
1609510	STOP	n/a	LTP139	ltpFR	10	n/a	n/a	n/a	n/a	n/a	n/a	n/a	n/a	n/a	n/a	n/a	n/a	n/a	n/a	n/a	n/a
1610415	WORD	wordpools/wasnorm_wordpool.txt	LTP139	ltpFR	10	7	0	WHALE	1601	n/a	n/a	1	n/a	0	0	0	0.57763671875	0.412841796875	1	lower	amplitud.ttf
1613423	START	n/a	LTP139	ltpFR	10	n/a	n/a	n/a	n/a	n/a	n/a	n/a	n/a	n/a	n/a	n/a	n/a	n/a	n/a	n/a	n/a
1614280	PROB	n/a	LTP139	ltpFR	10	n/a	n/a	n/a	n/a	n/a	n/a	n/a	15	7	3	5	n/a	n/a	n/a	n/a	n/a
1616962	PROB	n/a	LTP139	ltpFR	10	n/a	n/a	n/a	n/a	n/a	n/a	n/a	17	2	9	6	n/a	n/a	n/a	n/a	n/a
1621423	STOP	n/a	LTP139	ltpFR	10	n/a	n/a	n/a	n/a	n/a	n/a	n/a	n/a	n/a	n/a	n/a	n/a	n/a	n/a	n/a	n/a
1622444	WORD	wordpools/wasnorm_wordpool.txt	LTP139	ltpFR	10	7	0	TOURIST	1488	n/a	n/a	1	n/a	0	0	0	0.57763671875	0.412841796875	1	lower	amplitud.ttf
1625452	START	n/a	LTP139	ltpFR	10	n/a	n/a	n/a	n/a	n/a	n/a	n/a	n/a	n/a	n/a	n/a	n/a	n/a	n/a	n/a	n/a
1626368	PROB	n/a	LTP139	ltpFR	10	n/a	n/a	n/a	n/a	n/a	n/a	n/a	12	4	4	4	n/a	n/a	n/a	n/a	n/a
1628124	PROB	n/a	LTP139	ltpFR	10	n/a	n/a	n/a	n/a	n/a	n/a	n/a	7	2	4	1	n/a	n/a	n/a	n/a	n/a
1630848	PROB	n/a	LTP139	ltpFR	10	n/a	n/a	n/a	n/a	n/a	n/a	n/a	8	5	1	2	n/a	n/a	n/a	n/a	n/a
1632675	STOP	n/a	LTP139	ltpFR	10	n/a	n/a	n/a	n/a	n/a	n/a	n/a	n/a	n/a	n/a	n/a	n/a	n/a	n/a	n/a	n/a
1634606	WORD	wordpools/wasnorm_wordpool.txt	LTP139	ltpFR	10	7	1	DILL	465	n/a	n/a	0	n/a	0	0	0	0.422607421875	0.5869140625	0	upper	zerothre.ttf
1637614	START	n/a	LTP139	ltpFR	10	n/a	n/a	n/a	n/a	n/a	n/a	n/a	n/a	n/a	n/a	n/a	n/a	n/a	n/a	n/a	n/a
1638754	PROB	n/a	LTP139	ltpFR	10	n/a	n/a	n/a	n/a	n/a	n/a	n/a	14	7	4	3	n/a	n/a	n/a	n/a	n/a
1641253	PROB	n/a	LTP139	ltpFR	10	n/a	n/a	n/a	n/a	n/a	n/a	n/a	13	3	9	1	n/a	n/a	n/a	n/a	n/a
1645614	STOP	n/a	LTP139	ltpFR	10	n/a	n/a	n/a	n/a	n/a	n/a	n/a	n/a	n/a	n/a	n/a	n/a	n/a	n/a	n/a	n/a
1646768	WORD	wordpools/wasnorm_wordpool.txt	LTP139	ltpFR	10	7	1	GULL	671	n/a	n/a	0	n/a	0	0	0	0.422607421875	0.5869140625	0	upper	zerothre.ttf
1649775	START	n/a	LTP139	ltpFR	10	n/a	n/a	n/a	n/a	n/a	n/a	n/a	n/a	n/a	n/a	n/a	n/a	n/a	n/a	n/a	n/a
1650858	PROB	n/a	LTP139	ltpFR	10	n/a	n/a	n/a	n/a	n/a	n/a	n/a	14	9	1	4	n/a	n/a	n/a	n/a	n/a
1653024	PROB	n/a	LTP139	ltpFR	10	n/a	n/a	n/a	n/a	n/a	n/a	n/a	14	8	3	3	n/a	n/a	n/a	n/a	n/a
1655357	PROB	n/a	LTP139	ltpFR	10	n/a	n/a	n/a	n/a	n/a	n/a	n/a	19	9	5	5	n/a	n/a	n/a	n/a	n/a
1657580	STOP	n/a	LTP139	ltpFR	10	n/a	n/a	n/a	n/a	n/a	n/a	n/a	n/a	n/a	n/a	n/a	n/a	n/a	n/a	n/a	n/a
1658938	WORD	wordpools/wasnorm_wordpool.txt	LTP139	ltpFR	10	7	0	CHICK	296	n/a	n/a	0	n/a	0	0	0	0.57763671875	0.412841796875	1	lower	amplitud.ttf
1661946	START	n/a	LTP139	ltpFR	10	n/a	n/a	n/a	n/a	n/a	n/a	n/a	n/a	n/a	n/a	n/a	n/a	n/a	n/a	n/a	n/a
1663128	PROB	n/a	LTP139	ltpFR	10	n/a	n/a	n/a	n/a	n/a	n/a	n/a	12	6	2	4	n/a	n/a	n/a	n/a	n/a
1665927	PROB	n/a	LTP139	ltpFR	10	n/a	n/a	n/a	n/a	n/a	n/a	n/a	9	6	2	1	n/a	n/a	n/a	n/a	n/a
1668516	STOP	n/a	LTP139	ltpFR	10	n/a	n/a	n/a	n/a	n/a	n/a	n/a	n/a	n/a	n/a	n/a	n/a	n/a	n/a	n/a	n/a
1671009	WORD	wordpools/wasnorm_wordpool.txt	LTP139	ltpFR	10	7	0	RIBBON	1189	n/a	n/a	0	n/a	0	0	0	0.57763671875	0.412841796875	1	lower	amplitud.ttf
1674017	START	n/a	LTP139	ltpFR	10	n/a	n/a	n/a	n/a	n/a	n/a	n/a	n/a	n/a	n/a	n/a	n/a	n/a	n/a	n/a	n/a
1675149	PROB	n/a	LTP139	ltpFR	10	n/a	n/a	n/a	n/a	n/a	n/a	n/a	12	9	2	1	n/a	n/a	n/a	n/a	n/a
1678457	PROB	n/a	LTP139	ltpFR	10	n/a	n/a	n/a	n/a	n/a	n/a	n/a	8	5	2	1	n/a	n/a	n/a	n/a	n/a
1680628	STOP	n/a	LTP139	ltpFR	10	n/a	n/a	n/a	n/a	n/a	n/a	n/a	n/a	n/a	n/a	n/a	n/a	n/a	n/a	n/a	n/a
1682996	WORD	wordpools/wasnorm_wordpool.txt	LTP139	ltpFR	10	7	0	VILLAGE	1566	n/a	n/a	1	n/a	0	0	0	0.57763671875	0.412841796875	1	lower	amplitud.ttf
1686004	START	n/a	LTP139	ltpFR	10	n/a	n/a	n/a	n/a	n/a	n/a	n/a	n/a	n/a	n/a	n/a	n/a	n/a	n/a	n/a	n/a
1687153	PROB	n/a	LTP139	ltpFR	10	n/a	n/a	n/a	n/a	n/a	n/a	n/a	21	9	3	9	n/a	n/a	n/a	n/a	n/a
1690386	PROB	n/a	LTP139	ltpFR	10	n/a	n/a	n/a	n/a	n/a	n/a	n/a	16	5	5	6	n/a	n/a	n/a	n/a	n/a
1693803	STOP	n/a	LTP139	ltpFR	10	n/a	n/a	n/a	n/a	n/a	n/a	n/a	n/a	n/a	n/a	n/a	n/a	n/a	n/a	n/a	n/a
1695759	REC_START	n/a	LTP139	ltpFR	10	7	n/a	n/a	n/a	n/a	n/a	n/a	n/a	0	0	0	n/a	n/a	n/a	n/a	n/a
1697091	REC_WORD	wordpools/wasnorm_wordpool.txt	LTP139	ltpFR	10	7	1	DILL	465	n/a	n/a	0	n/a	0	0	0	n/a	n/a	n/a	n/a	n/a
1699600	REC_WORD	wordpools/wasnorm_wordpool.txt	LTP139	ltpFR	10	7	0	VILLAGE	1566	n/a	n/a	1	n/a	0	0	0	n/a	n/a	n/a	n/a	n/a
1700433	REC_WORD	wordpools/wasnorm_wordpool.txt	LTP139	ltpFR	10	7	0	WHALE	1601	n/a	n/a	1	n/a	0	0	0	n/a	n/a	n/a	n/a	n/a
1701306	REC_WORD	wordpools/wasnorm_wordpool.txt	LTP139	ltpFR	10	7	0	COBRA	336	n/a	n/a	1	n/a	0	0	0	n/a	n/a	n/a	n/a	n/a
1704050	REC_WORD	wordpools/wasnorm_wordpool.txt	LTP139	ltpFR	10	7	1	OATMEAL	967	n/a	n/a	0	n/a	0	0	0	n/a	n/a	n/a	n/a	n/a
1704780	REC_WORD	wordpools/wasnorm_wordpool.txt	LTP139	ltpFR	10	7	1	REFRIGERATOR	1179	n/a	n/a	0	n/a	0	0	0	n/a	n/a	n/a	n/a	n/a
1714825	REC_WORD	wordpools/wasnorm_wordpool.txt	LTP139	ltpFR	10	7	0	DASHBOARD	441	n/a	n/a	1	n/a	0	0	0	n/a	n/a	n/a	n/a	n/a
1726164	REC_WORD	wordpools/wasnorm_wordpool.txt	LTP139	ltpFR	10	7	n/a	FIGURE	-1	n/a	n/a	n/a	n/a	0	0	0	n/a	n/a	n/a	n/a	n/a
1795633	START	n/a	LTP139	ltpFR	10	n/a	n/a	n/a	n/a	n/a	n/a	n/a	n/a	n/a	n/a	n/a	n/a	n/a	n/a	n/a	n/a
1797139	PROB	n/a	LTP139	ltpFR	10	n/a	n/a	n/a	n/a	n/a	n/a	n/a	13	9	1	3	n/a	n/a	n/a	n/a	n/a
1798780	PROB	n/a	LTP139	ltpFR	10	n/a	n/a	n/a	n/a	n/a	n/a	n/a	19	4	6	9	n/a	n/a	n/a	n/a	n/a
1803632	STOP	n/a	LTP139	ltpFR	10	n/a	n/a	n/a	n/a	n/a	n/a	n/a	n/a	n/a	n/a	n/a	n/a	n/a	n/a	n/a	n/a
1804711	WORD	wordpools/wasnorm_wordpool.txt	LTP139	ltpFR	10	8	1	WOLF	1619	n/a	n/a	1	n/a	0	0	0	0.422607421875	0.5869140625	0	upper	zerothre.ttf
1807719	START	n/a	LTP139	ltpFR	10	n/a	n/a	n/a	n/a	n/a	n/a	n/a	n/a	n/a	n/a	n/a	n/a	n/a	n/a	n/a	n/a
1808710	PROB	n/a	LTP139	ltpFR	10	n/a	n/a	n/a	n/a	n/a	n/a	n/a	16	2	6	8	n/a	n/a	n/a	n/a	n/a
1810801	PROB	n/a	LTP139	ltpFR	10	n/a	n/a	n/a	n/a	n/a	n/a	n/a	13	7	3	3	n/a	n/a	n/a	n/a	n/a
1813108	PROB	n/a	LTP139	ltpFR	10	n/a	n/a	n/a	n/a	n/a	n/a	n/a	13	1	3	9	n/a	n/a	n/a	n/a	n/a
1815524	STOP	n/a	LTP139	ltpFR	10	n/a	n/a	n/a	n/a	n/a	n/a	n/a	n/a	n/a	n/a	n/a	n/a	n/a	n/a	n/a	n/a
1816890	WORD	wordpools/wasnorm_wordpool.txt	LTP139	ltpFR	10	8	1	GRAPE	654	n/a	n/a	1	n/a	0	0	0	0.422607421875	0.5869140625	0	upper	zerothre.ttf
1819898	START	n/a	LTP139	ltpFR	10	n/a	n/a	n/a	n/a	n/a	n/a	n/a	n/a	n/a	n/a	n/a	n/a	n/a	n/a	n/a	n/a
1820764	PROB	n/a	LTP139	ltpFR	10	n/a	n/a	n/a	n/a	n/a	n/a	n/a	15	6	5	4	n/a	n/a	n/a	n/a	n/a
1825237	PROB	n/a	LTP139	ltpFR	10	n/a	n/a	n/a	n/a	n/a	n/a	n/a	8	4	3	1	n/a	n/a	n/a	n/a	n/a
1827779	STOP	n/a	LTP139	ltpFR	10	n/a	n/a	n/a	n/a	n/a	n/a	n/a	n/a	n/a	n/a	n/a	n/a	n/a	n/a	n/a	n/a
1828870	WORD	wordpools/wasnorm_wordpool.txt	LTP139	ltpFR	10	8	1	PADDING	999	n/a	n/a	0	n/a	0	0	0	0.422607421875	0.5869140625	0	upper	zerothre.ttf
1831877	START	n/a	LTP139	ltpFR	10	n/a	n/a	n/a	n/a	n/a	n/a	n/a	n/a	n/a	n/a	n/a	n/a	n/a	n/a	n/a	n/a
1832843	PROB	n/a	LTP139	ltpFR	10	n/a	n/a	n/a	n/a	n/a	n/a	n/a	25	9	7	9	n/a	n/a	n/a	n/a	n/a
1839877	STOP	n/a	LTP139	ltpFR	10	n/a	n/a	n/a	n/a	n/a	n/a	n/a	n/a	n/a	n/a	n/a	n/a	n/a	n/a	n/a	n/a
1840873	WORD	wordpools/wasnorm_wordpool.txt	LTP139	ltpFR	10	8	1	LILY	821	n/a	n/a	1	n/a	0	0	0	0.422607421875	0.5869140625	0	upper	zerothre.ttf
1843881	START	n/a	LTP139	ltpFR	10	n/a	n/a	n/a	n/a	n/a	n/a	n/a	n/a	n/a	n/a	n/a	n/a	n/a	n/a	n/a	n/a
1845022	PROB	n/a	LTP139	ltpFR	10	n/a	n/a	n/a	n/a	n/a	n/a	n/a	14	7	3	4	n/a	n/a	n/a	n/a	n/a
1847754	PROB	n/a	LTP139	ltpFR	10	n/a	n/a	n/a	n/a	n/a	n/a	n/a	15	8	6	1	n/a	n/a	n/a	n/a	n/a
1851881	STOP	n/a	LTP139	ltpFR	10	n/a	n/a	n/a	n/a	n/a	n/a	n/a	n/a	n/a	n/a	n/a	n/a	n/a	n/a	n/a	n/a
1853078	WORD	wordpools/wasnorm_wordpool.txt	LTP139	ltpFR	10	8	1	LOFT	840	n/a	n/a	0	n/a	0	0	0	0.422607421875	0.5869140625	0	upper	zerothre.ttf
1856085	START	n/a	LTP139	ltpFR	10	n/a	n/a	n/a	n/a	n/a	n/a	n/a	n/a	n/a	n/a	n/a	n/a	n/a	n/a	n/a	n/a
1857234	PROB	n/a	LTP139	ltpFR	10	n/a	n/a	n/a	n/a	n/a	n/a	n/a	9	3	2	4	n/a	n/a	n/a	n/a	n/a
1859618	PROB	n/a	LTP139	ltpFR	10	n/a	n/a	n/a	n/a	n/a	n/a	n/a	16	7	4	5	n/a	n/a	n/a	n/a	n/a
1864085	STOP	n/a	LTP139	ltpFR	10	n/a	n/a	n/a	n/a	n/a	n/a	n/a	n/a	n/a	n/a	n/a	n/a	n/a	n/a	n/a	n/a
1865157	WORD	wordpools/wasnorm_wordpool.txt	LTP139	ltpFR	10	8	1	PILLOW	1069	n/a	n/a	0	n/a	0	0	0	0.422607421875	0.5869140625	0	upper	zerothre.ttf
1868164	START	n/a	LTP139	ltpFR	10	n/a	n/a	n/a	n/a	n/a	n/a	n/a	n/a	n/a	n/a	n/a	n/a	n/a	n/a	n/a	n/a
1869155	PROB	n/a	LTP139	ltpFR	10	n/a	n/a	n/a	n/a	n/a	n/a	n/a	18	6	5	7	n/a	n/a	n/a	n/a	n/a
1876164	STOP	n/a	LTP139	ltpFR	10	n/a	n/a	n/a	n/a	n/a	n/a	n/a	n/a	n/a	n/a	n/a	n/a	n/a	n/a	n/a	n/a
1877236	WORD	wordpools/wasnorm_wordpool.txt	LTP139	ltpFR	10	8	1	CREW	406	n/a	n/a	0	n/a	0	0	0	0.422607421875	0.5869140625	0	upper	zerothre.ttf
1880243	START	n/a	LTP139	ltpFR	10	n/a	n/a	n/a	n/a	n/a	n/a	n/a	n/a	n/a	n/a	n/a	n/a	n/a	n/a	n/a	n/a
1881109	PROB	n/a	LTP139	ltpFR	10	n/a	n/a	n/a	n/a	n/a	n/a	n/a	18	8	8	2	n/a	n/a	n/a	n/a	n/a
1883259	PROB	n/a	LTP139	ltpFR	10	n/a	n/a	n/a	n/a	n/a	n/a	n/a	22	8	8	6	n/a	n/a	n/a	n/a	n/a
1886174	PROB	n/a	LTP139	ltpFR	10	n/a	n/a	n/a	n/a	n/a	n/a	n/a	10	5	2	3	n/a	n/a	n/a	n/a	n/a
1888211	STOP	n/a	LTP139	ltpFR	10	n/a	n/a	n/a	n/a	n/a	n/a	n/a	n/a	n/a	n/a	n/a	n/a	n/a	n/a	n/a	n/a
1889449	WORD	wordpools/wasnorm_wordpool.txt	LTP139	ltpFR	10	8	1	CAGE	218	n/a	n/a	0	n/a	0	0	0	0.422607421875	0.5869140625	0	upper	zerothre.ttf
1892457	START	n/a	LTP139	ltpFR	10	n/a	n/a	n/a	n/a	n/a	n/a	n/a	n/a	n/a	n/a	n/a	n/a	n/a	n/a	n/a	n/a
1893597	PROB	n/a	LTP139	ltpFR	10	n/a	n/a	n/a	n/a	n/a	n/a	n/a	18	4	5	9	n/a	n/a	n/a	n/a	n/a
1896054	PROB	n/a	LTP139	ltpFR	10	n/a	n/a	n/a	n/a	n/a	n/a	n/a	14	6	3	2	n/a	n/a	n/a	n/a	n/a
1900457	STOP	n/a	LTP139	ltpFR	10	n/a	n/a	n/a	n/a	n/a	n/a	n/a	n/a	n/a	n/a	n/a	n/a	n/a	n/a	n/a	n/a
1901470	WORD	wordpools/wasnorm_wordpool.txt	LTP139	ltpFR	10	8	1	PELT	1040	n/a	n/a	0	n/a	0	0	0	0.422607421875	0.5869140625	0	upper	zerothre.ttf
1904477	START	n/a	LTP139	ltpFR	10	n/a	n/a	n/a	n/a	n/a	n/a	n/a	n/a	n/a	n/a	n/a	n/a	n/a	n/a	n/a	n/a
1905643	PROB	n/a	LTP139	ltpFR	10	n/a	n/a	n/a	n/a	n/a	n/a	n/a	8	1	6	1	n/a	n/a	n/a	n/a	n/a
1908008	PROB	n/a	LTP139	ltpFR	10	n/a	n/a	n/a	n/a	n/a	n/a	n/a	20	4	7	9	n/a	n/a	n/a	n/a	n/a
1911356	STOP	n/a	LTP139	ltpFR	10	n/a	n/a	n/a	n/a	n/a	n/a	n/a	n/a	n/a	n/a	n/a	n/a	n/a	n/a	n/a	n/a
1913507	WORD	wordpools/wasnorm_wordpool.txt	LTP139	ltpFR	10	8	1	VELVET	1555	n/a	n/a	0	n/a	0	0	0	0.422607421875	0.5869140625	0	upper	zerothre.ttf
1916515	START	n/a	LTP139	ltpFR	10	n/a	n/a	n/a	n/a	n/a	n/a	n/a	n/a	n/a	n/a	n/a	n/a	n/a	n/a	n/a	n/a
1917597	PROB	n/a	LTP139	ltpFR	10	n/a	n/a	n/a	n/a	n/a	n/a	n/a	10	3	5	2	n/a	n/a	n/a	n/a	n/a
1920703	PROB	n/a	LTP139	ltpFR	10	n/a	n/a	n/a	n/a	n/a	n/a	n/a	17	6	8	3	n/a	n/a	n/a	n/a	n/a
1923123	STOP	n/a	LTP139	ltpFR	10	n/a	n/a	n/a	n/a	n/a	n/a	n/a	n/a	n/a	n/a	n/a	n/a	n/a	n/a	n/a	n/a
1925685	WORD	wordpools/wasnorm_wordpool.txt	LTP139	ltpFR	10	8	1	BUFFALO	186	n/a	n/a	1	n/a	0	0	0	0.422607421875	0.5869140625	0	upper	zerothre.ttf
1928693	START	n/a	LTP139	ltpFR	10	n/a	n/a	n/a	n/a	n/a	n/a	n/a	n/a	n/a	n/a	n/a	n/a	n/a	n/a	n/a	n/a
1929526	PROB	n/a	LTP139	ltpFR	10	n/a	n/a	n/a	n/a	n/a	n/a	n/a	15	8	3	4	n/a	n/a	n/a	n/a	n/a
1932699	PROB	n/a	LTP139	ltpFR	10	n/a	n/a	n/a	n/a	n/a	n/a	n/a	12	4	2	6	n/a	n/a	n/a	n/a	n/a
1936692	STOP	n/a	LTP139	ltpFR	10	n/a	n/a	n/a	n/a	n/a	n/a	n/a	n/a	n/a	n/a	n/a	n/a	n/a	n/a	n/a	n/a
1937590	WORD	wordpools/wasnorm_wordpool.txt	LTP139	ltpFR	10	8	1	VET	1560	n/a	n/a	0	n/a	0	0	0	0.422607421875	0.5869140625	0	upper	zerothre.ttf
1940598	START	n/a	LTP139	ltpFR	10	n/a	n/a	n/a	n/a	n/a	n/a	n/a	n/a	n/a	n/a	n/a	n/a	n/a	n/a	n/a	n/a
1941472	PROB	n/a	LTP139	ltpFR	10	n/a	n/a	n/a	n/a	n/a	n/a	n/a	20	9	8	3	n/a	n/a	n/a	n/a	n/a
1945654	PROB	n/a	LTP139	ltpFR	10	n/a	n/a	n/a	n/a	n/a	n/a	n/a	16	5	6	5	n/a	n/a	n/a	n/a	n/a
1947931	STOP	n/a	LTP139	ltpFR	10	n/a	n/a	n/a	n/a	n/a	n/a	n/a	n/a	n/a	n/a	n/a	n/a	n/a	n/a	n/a	n/a
1949461	WORD	wordpools/wasnorm_wordpool.txt	LTP139	ltpFR	10	8	1	CHAMPAGNE	278	n/a	n/a	0	n/a	0	0	0	0.422607421875	0.5869140625	0	upper	zerothre.ttf
1952469	START	n/a	LTP139	ltpFR	10	n/a	n/a	n/a	n/a	n/a	n/a	n/a	n/a	n/a	n/a	n/a	n/a	n/a	n/a	n/a	n/a
1953335	PROB	n/a	LTP139	ltpFR	10	n/a	n/a	n/a	n/a	n/a	n/a	n/a	17	3	6	8	n/a	n/a	n/a	n/a	n/a
1955475	PROB	n/a	LTP139	ltpFR	10	n/a	n/a	n/a	n/a	n/a	n/a	n/a	9	3	1	5	n/a	n/a	n/a	n/a	n/a
1960469	STOP	n/a	LTP139	ltpFR	10	n/a	n/a	n/a	n/a	n/a	n/a	n/a	n/a	n/a	n/a	n/a	n/a	n/a	n/a	n/a	n/a
1961373	WORD	wordpools/wasnorm_wordpool.txt	LTP139	ltpFR	10	8	1	CANARY	227	n/a	n/a	1	n/a	0	0	0	0.422607421875	0.5869140625	0	upper	zerothre.ttf
1964381	START	n/a	LTP139	ltpFR	10	n/a	n/a	n/a	n/a	n/a	n/a	n/a	n/a	n/a	n/a	n/a	n/a	n/a	n/a	n/a	n/a
1965229	PROB	n/a	LTP139	ltpFR	10	n/a	n/a	n/a	n/a	n/a	n/a	n/a	20	9	4	7	n/a	n/a	n/a	n/a	n/a
1967845	PROB	n/a	LTP139	ltpFR	10	n/a	n/a	n/a	n/a	n/a	n/a	n/a	15	5	2	8	n/a	n/a	n/a	n/a	n/a
1972380	STOP	n/a	LTP139	ltpFR	10	n/a	n/a	n/a	n/a	n/a	n/a	n/a	n/a	n/a	n/a	n/a	n/a	n/a	n/a	n/a	n/a
1973544	WORD	wordpools/wasnorm_wordpool.txt	LTP139	ltpFR	10	8	1	JAR	750	n/a	n/a	0	n/a	0	0	0	0.422607421875	0.5869140625	0	upper	zerothre.ttf
1976552	START	n/a	LTP139	ltpFR	10	n/a	n/a	n/a	n/a	n/a	n/a	n/a	n/a	n/a	n/a	n/a	n/a	n/a	n/a	n/a	n/a
1977750	PROB	n/a	LTP139	ltpFR	10	n/a	n/a	n/a	n/a	n/a	n/a	n/a	20	8	9	3	n/a	n/a	n/a	n/a	n/a
1980325	PROB	n/a	LTP139	ltpFR	10	n/a	n/a	n/a	n/a	n/a	n/a	n/a	23	9	5	9	n/a	n/a	n/a	n/a	n/a
1984551	STOP	n/a	LTP139	ltpFR	10	n/a	n/a	n/a	n/a	n/a	n/a	n/a	n/a	n/a	n/a	n/a	n/a	n/a	n/a	n/a	n/a
1985640	WORD	wordpools/wasnorm_wordpool.txt	LTP139	ltpFR	10	8	1	SHEPHERD	1283	n/a	n/a	1	n/a	0	0	0	0.422607421875	0.5869140625	0	upper	zerothre.ttf
1988647	START	n/a	LTP139	ltpFR	10	n/a	n/a	n/a	n/a	n/a	n/a	n/a	n/a	n/a	n/a	n/a	n/a	n/a	n/a	n/a	n/a
1989463	PROB	n/a	LTP139	ltpFR	10	n/a	n/a	n/a	n/a	n/a	n/a	n/a	16	6	1	9	n/a	n/a	n/a	n/a	n/a
1992554	PROB	n/a	LTP139	ltpFR	10	n/a	n/a	n/a	n/a	n/a	n/a	n/a	6	2	3	1	n/a	n/a	n/a	n/a	n/a
1994628	PROB	n/a	LTP139	ltpFR	10	n/a	n/a	n/a	n/a	n/a	n/a	n/a	11	6	3	2	n/a	n/a	n/a	n/a	n/a
1996612	STOP	n/a	LTP139	ltpFR	10	n/a	n/a	n/a	n/a	n/a	n/a	n/a	n/a	n/a	n/a	n/a	n/a	n/a	n/a	n/a	n/a
1998411	REC_START	n/a	LTP139	ltpFR	10	8	n/a	n/a	n/a	n/a	n/a	n/a	n/a	0	0	0	n/a	n/a	n/a	n/a	n/a
1999448	REC_WORD	wordpools/wasnorm_wordpool.txt	LTP139	ltpFR	10	8	1	BUFFALO	186	n/a	n/a	1	n/a	0	0	0	n/a	n/a	n/a	n/a	n/a
2000082	REC_WORD	wordpools/wasnorm_wordpool.txt	LTP139	ltpFR	10	8	1	CANARY	227	n/a	n/a	1	n/a	0	0	0	n/a	n/a	n/a	n/a	n/a
2000925	REC_WORD	wordpools/wasnorm_wordpool.txt	LTP139	ltpFR	10	8	1	PELT	1040	n/a	n/a	0	n/a	0	0	0	n/a	n/a	n/a	n/a	n/a
2003539	REC_WORD	wordpools/wasnorm_wordpool.txt	LTP139	ltpFR	10	8	1	LOFT	840	n/a	n/a	0	n/a	0	0	0	n/a	n/a	n/a	n/a	n/a
2004287	REC_WORD	wordpools/wasnorm_wordpool.txt	LTP139	ltpFR	10	8	1	PILLOW	1069	n/a	n/a	0	n/a	0	0	0	n/a	n/a	n/a	n/a	n/a
2004871	REC_WORD	wordpools/wasnorm_wordpool.txt	LTP139	ltpFR	10	8	1	PADDING	999	n/a	n/a	0	n/a	0	0	0	n/a	n/a	n/a	n/a	n/a
2022266	REC_WORD	wordpools/wasnorm_wordpool.txt	LTP139	ltpFR	10	8	n/a	FLANNEL	574	n/a	n/a	n/a	n/a	0	0	0	n/a	n/a	n/a	n/a	n/a
2037098	REC_WORD	wordpools/wasnorm_wordpool.txt	LTP139	ltpFR	10	8	1	LILY	821	n/a	n/a	1	n/a	0	0	0	n/a	n/a	n/a	n/a	n/a
2044650	REC_WORD	wordpools/wasnorm_wordpool.txt	LTP139	ltpFR	10	8	1	CREW	406	n/a	n/a	0	n/a	0	0	0	n/a	n/a	n/a	n/a	n/a
2053984	REC_WORD	wordpools/wasnorm_wordpool.txt	LTP139	ltpFR	10	8	1	GRAPE	654	n/a	n/a	1	n/a	0	0	0	n/a	n/a	n/a	n/a	n/a
2055701	REC_WORD	wordpools/wasnorm_wordpool.txt	LTP139	ltpFR	10	8	1	WOLF	1619	n/a	n/a	1	n/a	0	0	0	n/a	n/a	n/a	n/a	n/a
2097166	START	n/a	LTP139	ltpFR	10	n/a	n/a	n/a	n/a	n/a	n/a	n/a	n/a	n/a	n/a	n/a	n/a	n/a	n/a	n/a	n/a
2098673	PROB	n/a	LTP139	ltpFR	10	n/a	n/a	n/a	n/a	n/a	n/a	n/a	12	2	6	4	n/a	n/a	n/a	n/a	n/a
2101340	PROB	n/a	LTP139	ltpFR	10	n/a	n/a	n/a	n/a	n/a	n/a	n/a	12	7	4	1	n/a	n/a	n/a	n/a	n/a
2104564	PROB	n/a	LTP139	ltpFR	10	n/a	n/a	n/a	n/a	n/a	n/a	n/a	13	9	1	3	n/a	n/a	n/a	n/a	n/a
2106862	PROB	n/a	LTP139	ltpFR	10	n/a	n/a	n/a	n/a	n/a	n/a	n/a	12	3	4	5	n/a	n/a	n/a	n/a	n/a
2109070	PROB	n/a	LTP139	ltpFR	10	n/a	n/a	n/a	n/a	n/a	n/a	n/a	19	6	8	5	n/a	n/a	n/a	n/a	n/a
2111270	PROB	n/a	LTP139	ltpFR	10	n/a	n/a	n/a	n/a	n/a	n/a	n/a	10	8	1	1	n/a	n/a	n/a	n/a	n/a
2112763	STOP	n/a	LTP139	ltpFR	10	n/a	n/a	n/a	n/a	n/a	n/a	n/a	n/a	n/a	n/a	n/a	n/a	n/a	n/a	n/a	n/a
2114126	WORD	wordpools/wasnorm_wordpool.txt	LTP139	ltpFR	10	9	0	WAIST	1579	n/a	n/a	1	n/a	0	0	0	0.57763671875	0.412841796875	1	lower	amplitud.ttf
2117134	START	n/a	LTP139	ltpFR	10	n/a	n/a	n/a	n/a	n/a	n/a	n/a	n/a	n/a	n/a	n/a	n/a	n/a	n/a	n/a	n/a
2118100	PROB	n/a	LTP139	ltpFR	10	n/a	n/a	n/a	n/a	n/a	n/a	n/a	17	3	5	9	n/a	n/a	n/a	n/a	n/a
2120732	PROB	n/a	LTP139	ltpFR	10	n/a	n/a	n/a	n/a	n/a	n/a	n/a	13	6	5	2	n/a	n/a	n/a	n/a	n/a
2122541	PROB	n/a	LTP139	ltpFR	10	n/a	n/a	n/a	n/a	n/a	n/a	n/a	12	4	5	3	n/a	n/a	n/a	n/a	n/a
2124449	PROB	n/a	LTP139	ltpFR	10	n/a	n/a	n/a	n/a	n/a	n/a	n/a	22	6	9	7	n/a	n/a	n/a	n/a	n/a
2127013	PROB	n/a	LTP139	ltpFR	10	n/a	n/a	n/a	n/a	n/a	n/a	n/a	19	8	3	8	n/a	n/a	n/a	n/a	n/a
2129280	PROB	n/a	LTP139	ltpFR	10	n/a	n/a	n/a	n/a	n/a	n/a	n/a	23	7	9	7	n/a	n/a	n/a	n/a	n/a
2131438	PROB	n/a	LTP139	ltpFR	10	n/a	n/a	n/a	n/a	n/a	n/a	n/a	17	8	1	8	n/a	n/a	n/a	n/a	n/a
2133035	STOP	n/a	LTP139	ltpFR	10	n/a	n/a	n/a	n/a	n/a	n/a	n/a	n/a	n/a	n/a	n/a	n/a	n/a	n/a	n/a	n/a
2133961	WORD	wordpools/wasnorm_wordpool.txt	LTP139	ltpFR	10	9	0	BLUEJAY	141	n/a	n/a	0	n/a	0	0	0	0.57763671875	0.412841796875	1	lower	amplitud.ttf
2136969	START	n/a	LTP139	ltpFR	10	n/a	n/a	n/a	n/a	n/a	n/a	n/a	n/a	n/a	n/a	n/a	n/a	n/a	n/a	n/a	n/a
2137985	PROB	n/a	LTP139	ltpFR	10	n/a	n/a	n/a	n/a	n/a	n/a	n/a	18	2	9	7	n/a	n/a	n/a	n/a	n/a
2139900	PROB	n/a	LTP139	ltpFR	10	n/a	n/a	n/a	n/a	n/a	n/a	n/a	15	7	5	3	n/a	n/a	n/a	n/a	n/a
2142326	PROB	n/a	LTP139	ltpFR	10	n/a	n/a	n/a	n/a	n/a	n/a	n/a	16	9	5	2	n/a	n/a	n/a	n/a	n/a
2144774	PROB	n/a	LTP139	ltpFR	10	n/a	n/a	n/a	n/a	n/a	n/a	n/a	11	3	5	3	n/a	n/a	n/a	n/a	n/a
2147390	PROB	n/a	LTP139	ltpFR	10	n/a	n/a	n/a	n/a	n/a	n/a	n/a	11	3	7	1	n/a	n/a	n/a	n/a	n/a
2148822	PROB	n/a	LTP139	ltpFR	10	n/a	n/a	n/a	n/a	n/a	n/a	n/a	23	7	9	7	n/a	n/a	n/a	n/a	n/a
2151155	PROB	n/a	LTP139	ltpFR	10	n/a	n/a	n/a	n/a	n/a	n/a	n/a	10	1	8	1	n/a	n/a	n/a	n/a	n/a
2152827	STOP	n/a	LTP139	ltpFR	10	n/a	n/a	n/a	n/a	n/a	n/a	n/a	n/a	n/a	n/a	n/a	n/a	n/a	n/a	n/a	n/a
2153970	WORD	wordpools/wasnorm_wordpool.txt	LTP139	ltpFR	10	9	1	COMMANDER	354	n/a	n/a	1	n/a	0	0	0	0.422607421875	0.5869140625	0	upper	zerothre.ttf
2156978	START	n/a	LTP139	ltpFR	10	n/a	n/a	n/a	n/a	n/a	n/a	n/a	n/a	n/a	n/a	n/a	n/a	n/a	n/a	n/a	n/a
2158094	PROB	n/a	LTP139	ltpFR	10	n/a	n/a	n/a	n/a	n/a	n/a	n/a	19	7	3	9	n/a	n/a	n/a	n/a	n/a
2160027	PROB	n/a	LTP139	ltpFR	10	n/a	n/a	n/a	n/a	n/a	n/a	n/a	8	2	3	3	n/a	n/a	n/a	n/a	n/a
2161801	PROB	n/a	LTP139	ltpFR	10	n/a	n/a	n/a	n/a	n/a	n/a	n/a	7	4	1	2	n/a	n/a	n/a	n/a	n/a
2163959	PROB	n/a	LTP139	ltpFR	10	n/a	n/a	n/a	n/a	n/a	n/a	n/a	19	4	8	7	n/a	n/a	n/a	n/a	n/a
2167267	PROB	n/a	LTP139	ltpFR	10	n/a	n/a	n/a	n/a	n/a	n/a	n/a	23	8	6	9	n/a	n/a	n/a	n/a	n/a
2172978	STOP	n/a	LTP139	ltpFR	10	n/a	n/a	n/a	n/a	n/a	n/a	n/a	n/a	n/a	n/a	n/a	n/a	n/a	n/a	n/a	n/a
2173872	WORD	wordpools/wasnorm_wordpool.txt	LTP139	ltpFR	10	9	1	EWE	542	n/a	n/a	1	n/a	0	0	0	0.422607421875	0.5869140625	0	upper	zerothre.ttf
2176879	START	n/a	LTP139	ltpFR	10	n/a	n/a	n/a	n/a	n/a	n/a	n/a	n/a	n/a	n/a	n/a	n/a	n/a	n/a	n/a	n/a
2177779	PROB	n/a	LTP139	ltpFR	10	n/a	n/a	n/a	n/a	n/a	n/a	n/a	16	8	4	4	n/a	n/a	n/a	n/a	n/a
2180304	PROB	n/a	LTP139	ltpFR	10	n/a	n/a	n/a	n/a	n/a	n/a	n/a	13	3	4	6	n/a	n/a	n/a	n/a	n/a
2183043	PROB	n/a	LTP139	ltpFR	10	n/a	n/a	n/a	n/a	n/a	n/a	n/a	16	7	5	4	n/a	n/a	n/a	n/a	n/a
2186285	PROB	n/a	LTP139	ltpFR	10	n/a	n/a	n/a	n/a	n/a	n/a	n/a	9	2	6	1	n/a	n/a	n/a	n/a	n/a
2188000	PROB	n/a	LTP139	ltpFR	10	n/a	n/a	n/a	n/a	n/a	n/a	n/a	14	3	3	8	n/a	n/a	n/a	n/a	n/a
2192878	STOP	n/a	LTP139	ltpFR	10	n/a	n/a	n/a	n/a	n/a	n/a	n/a	n/a	n/a	n/a	n/a	n/a	n/a	n/a	n/a	n/a
2193981	WORD	wordpools/wasnorm_wordpool.txt	LTP139	ltpFR	10	9	1	DEER	444	n/a	n/a	1	n/a	0	0	0	0.422607421875	0.5869140625	0	upper	zerothre.ttf
2196989	START	n/a	LTP139	ltpFR	10	n/a	n/a	n/a	n/a	n/a	n/a	n/a	n/a	n/a	n/a	n/a	n/a	n/a	n/a	n/a	n/a
2198146	PROB	n/a	LTP139	ltpFR	10	n/a	n/a	n/a	n/a	n/a	n/a	n/a	19	9	4	6	n/a	n/a	n/a	n/a	n/a
2200254	PROB	n/a	LTP139	ltpFR	10	n/a	n/a	n/a	n/a	n/a	n/a	n/a	8	5	2	1	n/a	n/a	n/a	n/a	n/a
2202170	PROB	n/a	LTP139	ltpFR	10	n/a	n/a	n/a	n/a	n/a	n/a	n/a	17	6	3	8	n/a	n/a	n/a	n/a	n/a
2205011	PROB	n/a	LTP139	ltpFR	10	n/a	n/a	n/a	n/a	n/a	n/a	n/a	16	4	5	8	n/a	n/a	n/a	n/a	n/a
2208184	PROB	n/a	LTP139	ltpFR	10	n/a	n/a	n/a	n/a	n/a	n/a	n/a	14	8	3	3	n/a	n/a	n/a	n/a	n/a
2212835	STOP	n/a	LTP139	ltpFR	10	n/a	n/a	n/a	n/a	n/a	n/a	n/a	n/a	n/a	n/a	n/a	n/a	n/a	n/a	n/a	n/a
2213991	WORD	wordpools/wasnorm_wordpool.txt	LTP139	ltpFR	10	9	1	SHOVEL	1295	n/a	n/a	0	n/a	0	0	0	0.422607421875	0.5869140625	0	upper	zerothre.ttf
2216999	START	n/a	LTP139	ltpFR	10	n/a	n/a	n/a	n/a	n/a	n/a	n/a	n/a	n/a	n/a	n/a	n/a	n/a	n/a	n/a	n/a
2217823	PROB	n/a	LTP139	ltpFR	10	n/a	n/a	n/a	n/a	n/a	n/a	n/a	18	3	9	6	n/a	n/a	n/a	n/a	n/a
2220180	PROB	n/a	LTP139	ltpFR	10	n/a	n/a	n/a	n/a	n/a	n/a	n/a	21	8	6	7	n/a	n/a	n/a	n/a	n/a
2223555	PROB	n/a	LTP139	ltpFR	10	n/a	n/a	n/a	n/a	n/a	n/a	n/a	9	5	3	1	n/a	n/a	n/a	n/a	n/a
2226312	PROB	n/a	LTP139	ltpFR	10	n/a	n/a	n/a	n/a	n/a	n/a	n/a	20	2	9	9	n/a	n/a	n/a	n/a	n/a
2228969	PROB	n/a	LTP139	ltpFR	10	n/a	n/a	n/a	n/a	n/a	n/a	n/a	11	6	3	2	n/a	n/a	n/a	n/a	n/a
2232999	STOP	n/a	LTP139	ltpFR	10	n/a	n/a	n/a	n/a	n/a	n/a	n/a	n/a	n/a	n/a	n/a	n/a	n/a	n/a	n/a	n/a
2234184	WORD	wordpools/wasnorm_wordpool.txt	LTP139	ltpFR	10	9	0	DIGGER	464	n/a	n/a	1	n/a	0	0	0	0.57763671875	0.412841796875	1	lower	amplitud.ttf
2237191	START	n/a	LTP139	ltpFR	10	n/a	n/a	n/a	n/a	n/a	n/a	n/a	n/a	n/a	n/a	n/a	n/a	n/a	n/a	n/a	n/a
2238066	PROB	n/a	LTP139	ltpFR	10	n/a	n/a	n/a	n/a	n/a	n/a	n/a	11	8	1	2	n/a	n/a	n/a	n/a	n/a
2240090	PROB	n/a	LTP139	ltpFR	10	n/a	n/a	n/a	n/a	n/a	n/a	n/a	20	7	7	6	n/a	n/a	n/a	n/a	n/a
2242206	PROB	n/a	LTP139	ltpFR	10	n/a	n/a	n/a	n/a	n/a	n/a	n/a	16	6	6	4	n/a	n/a	n/a	n/a	n/a
2245105	PROB	n/a	LTP139	ltpFR	10	n/a	n/a	n/a	n/a	n/a	n/a	n/a	9	2	2	5	n/a	n/a	n/a	n/a	n/a
2246946	PROB	n/a	LTP139	ltpFR	10	n/a	n/a	n/a	n/a	n/a	n/a	n/a	17	8	4	5	n/a	n/a	n/a	n/a	n/a
2249978	PROB	n/a	LTP139	ltpFR	10	n/a	n/a	n/a	n/a	n/a	n/a	n/a	14	1	5	8	n/a	n/a	n/a	n/a	n/a
2252011	STOP	n/a	LTP139	ltpFR	10	n/a	n/a	n/a	n/a	n/a	n/a	n/a	n/a	n/a	n/a	n/a	n/a	n/a	n/a	n/a	n/a
2254210	WORD	wordpools/wasnorm_wordpool.txt	LTP139	ltpFR	10	9	0	PALACE	1006	n/a	n/a	1	n/a	0	0	0	0.57763671875	0.412841796875	1	lower	amplitud.ttf
2257218	START	n/a	LTP139	ltpFR	10	n/a	n/a	n/a	n/a	n/a	n/a	n/a	n/a	n/a	n/a	n/a	n/a	n/a	n/a	n/a	n/a
2258233	PROB	n/a	LTP139	ltpFR	10	n/a	n/a	n/a	n/a	n/a	n/a	n/a	17	5	3	9	n/a	n/a	n/a	n/a	n/a
2261358	PROB	n/a	LTP139	ltpFR	10	n/a	n/a	n/a	n/a	n/a	n/a	n/a	18	9	2	7	n/a	n/a	n/a	n/a	n/a
2263990	PROB	n/a	LTP139	ltpFR	10	n/a	n/a	n/a	n/a	n/a	n/a	n/a	15	4	7	4	n/a	n/a	n/a	n/a	n/a
2266440	PROB	n/a	LTP139	ltpFR	10	n/a	n/a	n/a	n/a	n/a	n/a	n/a	19	8	4	7	n/a	n/a	n/a	n/a	n/a
2269246	PROB	n/a	LTP139	ltpFR	10	n/a	n/a	n/a	n/a	n/a	n/a	n/a	22	7	8	7	n/a	n/a	n/a	n/a	n/a
2273218	STOP	n/a	LTP139	ltpFR	10	n/a	n/a	n/a	n/a	n/a	n/a	n/a	n/a	n/a	n/a	n/a	n/a	n/a	n/a	n/a	n/a
2274061	WORD	wordpools/wasnorm_wordpool.txt	LTP139	ltpFR	10	9	0	ROBIN	1199	n/a	n/a	0	n/a	0	0	0	0.57763671875	0.412841796875	1	lower	amplitud.ttf
2277069	START	n/a	LTP139	ltpFR	10	n/a	n/a	n/a	n/a	n/a	n/a	n/a	n/a	n/a	n/a	n/a	n/a	n/a	n/a	n/a	n/a
2278010	PROB	n/a	LTP139	ltpFR	10	n/a	n/a	n/a	n/a	n/a	n/a	n/a	5	1	3	1	n/a	n/a	n/a	n/a	n/a
2279510	PROB	n/a	LTP139	ltpFR	10	n/a	n/a	n/a	n/a	n/a	n/a	n/a	16	7	4	5	n/a	n/a	n/a	n/a	n/a
2283617	PROB	n/a	LTP139	ltpFR	10	n/a	n/a	n/a	n/a	n/a	n/a	n/a	9	5	1	3	n/a	n/a	n/a	n/a	n/a
2285416	PROB	n/a	LTP139	ltpFR	10	n/a	n/a	n/a	n/a	n/a	n/a	n/a	10	4	4	2	n/a	n/a	n/a	n/a	n/a
2287789	PROB	n/a	LTP139	ltpFR	10	n/a	n/a	n/a	n/a	n/a	n/a	n/a	18	2	7	9	n/a	n/a	n/a	n/a	n/a
2289739	PROB	n/a	LTP139	ltpFR	10	n/a	n/a	n/a	n/a	n/a	n/a	n/a	21	8	8	5	n/a	n/a	n/a	n/a	n/a
2291963	STOP	n/a	LTP139	ltpFR	10	n/a	n/a	n/a	n/a	n/a	n/a	n/a	n/a	n/a	n/a	n/a	n/a	n/a	n/a	n/a	n/a
2294187	WORD	wordpools/wasnorm_wordpool.txt	LTP139	ltpFR	10	9	0	CELERY	266	n/a	n/a	0	n/a	0	0	0	0.57763671875	0.412841796875	1	lower	amplitud.ttf
2297195	START	n/a	LTP139	ltpFR	10	n/a	n/a	n/a	n/a	n/a	n/a	n/a	n/a	n/a	n/a	n/a	n/a	n/a	n/a	n/a	n/a
2298261	PROB	n/a	LTP139	ltpFR	10	n/a	n/a	n/a	n/a	n/a	n/a	n/a	10	1	1	8	n/a	n/a	n/a	n/a	n/a
2300528	PROB	n/a	LTP139	ltpFR	10	n/a	n/a	n/a	n/a	n/a	n/a	n/a	12	1	6	5	n/a	n/a	n/a	n/a	n/a
2302644	PROB	n/a	LTP139	ltpFR	10	n/a	n/a	n/a	n/a	n/a	n/a	n/a	10	1	5	4	n/a	n/a	n/a	n/a	n/a
2306659	PROB	n/a	LTP139	ltpFR	10	n/a	n/a	n/a	n/a	n/a	n/a	n/a	13	6	4	3	n/a	n/a	n/a	n/a	n/a
2309266	PROB	n/a	LTP139	ltpFR	10	n/a	n/a	n/a	n/a	n/a	n/a	n/a	8	1	5	2	n/a	n/a	n/a	n/a	n/a
2313195	STOP	n/a	LTP139	ltpFR	10	n/a	n/a	n/a	n/a	n/a	n/a	n/a	n/a	n/a	n/a	n/a	n/a	n/a	n/a	n/a	n/a
2314180	WORD	wordpools/wasnorm_wordpool.txt	LTP139	ltpFR	10	9	1	NUT	965	n/a	n/a	0	n/a	0	0	0	0.422607421875	0.5869140625	0	upper	zerothre.ttf
2317188	START	n/a	LTP139	ltpFR	10	n/a	n/a	n/a	n/a	n/a	n/a	n/a	n/a	n/a	n/a	n/a	n/a	n/a	n/a	n/a	n/a
2318195	PROB	n/a	LTP139	ltpFR	10	n/a	n/a	n/a	n/a	n/a	n/a	n/a	17	2	8	7	n/a	n/a	n/a	n/a	n/a
2320894	PROB	n/a	LTP139	ltpFR	10	n/a	n/a	n/a	n/a	n/a	n/a	n/a	15	2	5	8	n/a	n/a	n/a	n/a	n/a
2323852	PROB	n/a	LTP139	ltpFR	10	n/a	n/a	n/a	n/a	n/a	n/a	n/a	10	1	6	3	n/a	n/a	n/a	n/a	n/a
2326535	PROB	n/a	LTP139	ltpFR	10	n/a	n/a	n/a	n/a	n/a	n/a	n/a	22	7	8	7	n/a	n/a	n/a	n/a	n/a
2329191	PROB	n/a	LTP139	ltpFR	10	n/a	n/a	n/a	n/a	n/a	n/a	n/a	13	5	7	1	n/a	n/a	n/a	n/a	n/a
2333187	STOP	n/a	LTP139	ltpFR	10	n/a	n/a	n/a	n/a	n/a	n/a	n/a	n/a	n/a	n/a	n/a	n/a	n/a	n/a	n/a	n/a
2334231	WORD	wordpools/wasnorm_wordpool.txt	LTP139	ltpFR	10	9	1	FORT	595	n/a	n/a	0	n/a	0	0	0	0.422607421875	0.5869140625	0	upper	zerothre.ttf
2337239	START	n/a	LTP139	ltpFR	10	n/a	n/a	n/a	n/a	n/a	n/a	n/a	n/a	n/a	n/a	n/a	n/a	n/a	n/a	n/a	n/a
2338372	PROB	n/a	LTP139	ltpFR	10	n/a	n/a	n/a	n/a	n/a	n/a	n/a	9	3	2	4	n/a	n/a	n/a	n/a	n/a
2340687	PROB	n/a	LTP139	ltpFR	10	n/a	n/a	n/a	n/a	n/a	n/a	n/a	6	2	2	2	n/a	n/a	n/a	n/a	n/a
2342253	PROB	n/a	LTP139	ltpFR	10	n/a	n/a	n/a	n/a	n/a	n/a	n/a	12	7	1	4	n/a	n/a	n/a	n/a	n/a
2344587	PROB	n/a	LTP139	ltpFR	10	n/a	n/a	n/a	n/a	n/a	n/a	n/a	10	5	4	1	n/a	n/a	n/a	n/a	n/a
2347002	PROB	n/a	LTP139	ltpFR	10	n/a	n/a	n/a	n/a	n/a	n/a	n/a	13	5	1	7	n/a	n/a	n/a	n/a	n/a
2350026	PROB	n/a	LTP139	ltpFR	10	n/a	n/a	n/a	n/a	n/a	n/a	n/a	16	6	5	5	n/a	n/a	n/a	n/a	n/a
2353238	STOP	n/a	LTP139	ltpFR	10	n/a	n/a	n/a	n/a	n/a	n/a	n/a	n/a	n/a	n/a	n/a	n/a	n/a	n/a	n/a	n/a
2354325	WORD	wordpools/wasnorm_wordpool.txt	LTP139	ltpFR	10	9	1	BASEBALL	93	n/a	n/a	0	n/a	0	0	0	0.422607421875	0.5869140625	0	upper	zerothre.ttf
2357333	START	n/a	LTP139	ltpFR	10	n/a	n/a	n/a	n/a	n/a	n/a	n/a	n/a	n/a	n/a	n/a	n/a	n/a	n/a	n/a	n/a
2358223	PROB	n/a	LTP139	ltpFR	10	n/a	n/a	n/a	n/a	n/a	n/a	n/a	15	7	6	2	n/a	n/a	n/a	n/a	n/a
2361155	PROB	n/a	LTP139	ltpFR	10	n/a	n/a	n/a	n/a	n/a	n/a	n/a	9	1	3	5	n/a	n/a	n/a	n/a	n/a
2362788	PROB	n/a	LTP139	ltpFR	10	n/a	n/a	n/a	n/a	n/a	n/a	n/a	13	2	5	6	n/a	n/a	n/a	n/a	n/a
2364987	PROB	n/a	LTP139	ltpFR	10	n/a	n/a	n/a	n/a	n/a	n/a	n/a	8	4	3	1	n/a	n/a	n/a	n/a	n/a
2366671	PROB	n/a	LTP139	ltpFR	10	n/a	n/a	n/a	n/a	n/a	n/a	n/a	13	7	3	3	n/a	n/a	n/a	n/a	n/a
2369411	PROB	n/a	LTP139	ltpFR	10	n/a	n/a	n/a	n/a	n/a	n/a	n/a	21	3	9	9	n/a	n/a	n/a	n/a	n/a
2373332	STOP	n/a	LTP139	ltpFR	10	n/a	n/a	n/a	n/a	n/a	n/a	n/a	n/a	n/a	n/a	n/a	n/a	n/a	n/a	n/a	n/a
2374360	WORD	wordpools/wasnorm_wordpool.txt	LTP139	ltpFR	10	9	1	WRIST	1626	n/a	n/a	0	n/a	0	0	0	0.422607421875	0.5869140625	0	upper	zerothre.ttf
2377367	START	n/a	LTP139	ltpFR	10	n/a	n/a	n/a	n/a	n/a	n/a	n/a	n/a	n/a	n/a	n/a	n/a	n/a	n/a	n/a	n/a
2378525	PROB	n/a	LTP139	ltpFR	10	n/a	n/a	n/a	n/a	n/a	n/a	n/a	17	8	1	8	n/a	n/a	n/a	n/a	n/a
2380232	PROB	n/a	LTP139	ltpFR	10	n/a	n/a	n/a	n/a	n/a	n/a	n/a	19	4	8	7	n/a	n/a	n/a	n/a	n/a
2383556	PROB	n/a	LTP139	ltpFR	10	n/a	n/a	n/a	n/a	n/a	n/a	n/a	20	6	8	6	n/a	n/a	n/a	n/a	n/a
2387038	PROB	n/a	LTP139	ltpFR	10	n/a	n/a	n/a	n/a	n/a	n/a	n/a	15	7	5	3	n/a	n/a	n/a	n/a	n/a
2389137	PROB	n/a	LTP139	ltpFR	10	n/a	n/a	n/a	n/a	n/a	n/a	n/a	19	9	2	8	n/a	n/a	n/a	n/a	n/a
2393366	STOP	n/a	LTP139	ltpFR	10	n/a	n/a	n/a	n/a	n/a	n/a	n/a	n/a	n/a	n/a	n/a	n/a	n/a	n/a	n/a	n/a
2394569	WORD	wordpools/wasnorm_wordpool.txt	LTP139	ltpFR	10	9	0	PRESIDENT	1121	n/a	n/a	0	n/a	0	0	0	0.57763671875	0.412841796875	1	lower	amplitud.ttf
2397577	START	n/a	LTP139	ltpFR	10	n/a	n/a	n/a	n/a	n/a	n/a	n/a	n/a	n/a	n/a	n/a	n/a	n/a	n/a	n/a	n/a
2398518	PROB	n/a	LTP139	ltpFR	10	n/a	n/a	n/a	n/a	n/a	n/a	n/a	22	6	8	8	n/a	n/a	n/a	n/a	n/a
2401174	PROB	n/a	LTP139	ltpFR	10	n/a	n/a	n/a	n/a	n/a	n/a	n/a	11	9	1	1	n/a	n/a	n/a	n/a	n/a
2402757	PROB	n/a	LTP139	ltpFR	10	n/a	n/a	n/a	n/a	n/a	n/a	n/a	10	4	2	4	n/a	n/a	n/a	n/a	n/a
2404806	PROB	n/a	LTP139	ltpFR	10	n/a	n/a	n/a	n/a	n/a	n/a	n/a	22	9	9	4	n/a	n/a	n/a	n/a	n/a
2406889	PROB	n/a	LTP139	ltpFR	10	n/a	n/a	n/a	n/a	n/a	n/a	n/a	12	3	1	8	n/a	n/a	n/a	n/a	n/a
2410280	PROB	n/a	LTP139	ltpFR	10	n/a	n/a	n/a	n/a	n/a	n/a	n/a	14	2	5	7	n/a	n/a	n/a	n/a	n/a
2412707	STOP	n/a	LTP139	ltpFR	10	n/a	n/a	n/a	n/a	n/a	n/a	n/a	n/a	n/a	n/a	n/a	n/a	n/a	n/a	n/a	n/a
2414703	WORD	wordpools/wasnorm_wordpool.txt	LTP139	ltpFR	10	9	0	FOLLOWER	589	n/a	n/a	1	n/a	0	0	0	0.57763671875	0.412841796875	1	lower	amplitud.ttf
2417710	START	n/a	LTP139	ltpFR	10	n/a	n/a	n/a	n/a	n/a	n/a	n/a	n/a	n/a	n/a	n/a	n/a	n/a	n/a	n/a	n/a
2418669	PROB	n/a	LTP139	ltpFR	10	n/a	n/a	n/a	n/a	n/a	n/a	n/a	9	6	2	1	n/a	n/a	n/a	n/a	n/a
2420635	PROB	n/a	LTP139	ltpFR	10	n/a	n/a	n/a	n/a	n/a	n/a	n/a	15	8	1	6	n/a	n/a	n/a	n/a	n/a
2423108	PROB	n/a	LTP139	ltpFR	10	n/a	n/a	n/a	n/a	n/a	n/a	n/a	15	1	8	6	n/a	n/a	n/a	n/a	n/a
2425392	PROB	n/a	LTP139	ltpFR	10	n/a	n/a	n/a	n/a	n/a	n/a	n/a	16	1	6	9	n/a	n/a	n/a	n/a	n/a
2427931	PROB	n/a	LTP139	ltpFR	10	n/a	n/a	n/a	n/a	n/a	n/a	n/a	19	3	8	8	n/a	n/a	n/a	n/a	n/a
2429914	PROB	n/a	LTP139	ltpFR	10	n/a	n/a	n/a	n/a	n/a	n/a	n/a	15	9	4	2	n/a	n/a	n/a	n/a	n/a
2432316	STOP	n/a	LTP139	ltpFR	10	n/a	n/a	n/a	n/a	n/a	n/a	n/a	n/a	n/a	n/a	n/a	n/a	n/a	n/a	n/a	n/a
2435514	REC_START	n/a	LTP139	ltpFR	10	9	n/a	n/a	n/a	n/a	n/a	n/a	n/a	0	0	0	n/a	n/a	n/a	n/a	n/a
2437005	REC_WORD	wordpools/wasnorm_wordpool.txt	LTP139	ltpFR	10	9	0	PRESIDENT	1121	n/a	n/a	0	n/a	0	0	0	n/a	n/a	n/a	n/a	n/a
2437873	REC_WORD	wordpools/wasnorm_wordpool.txt	LTP139	ltpFR	10	9	0	FOLLOWER	589	n/a	n/a	1	n/a	0	0	0	n/a	n/a	n/a	n/a	n/a
2441091	REC_WORD	wordpools/wasnorm_wordpool.txt	LTP139	ltpFR	10	9	0	PALACE	1006	n/a	n/a	1	n/a	0	0	0	n/a	n/a	n/a	n/a	n/a
2450574	REC_WORD	wordpools/wasnorm_wordpool.txt	LTP139	ltpFR	10	9	1	NUT	965	n/a	n/a	0	n/a	0	0	0	n/a	n/a	n/a	n/a	n/a
2467880	REC_WORD	wordpools/wasnorm_wordpool.txt	LTP139	ltpFR	10	9	1	FORT	595	n/a	n/a	0	n/a	0	0	0	n/a	n/a	n/a	n/a	n/a
2541932	WORD	wordpools/wasnorm_wordpool.txt	LTP139	ltpFR	10	10	1	GRASSHOPPER	656	n/a	n/a	1	n/a	0	0	0	0.422607421875	0.5869140625	0	upper	zerothre.ttf
2545906	WORD	wordpools/wasnorm_wordpool.txt	LTP139	ltpFR	10	10	1	ICE	730	n/a	n/a	0	n/a	0	0	0	0.422607421875	0.5869140625	0	upper	zerothre.ttf
2549971	WORD	wordpools/wasnorm_wordpool.txt	LTP139	ltpFR	10	10	1	SEAL	1262	n/a	n/a	1	n/a	0	0	0	0.422607421875	0.5869140625	0	upper	zerothre.ttf
2554178	WORD	wordpools/wasnorm_wordpool.txt	LTP139	ltpFR	10	10	1	GATE	625	n/a	n/a	0	n/a	0	0	0	0.422607421875	0.5869140625	0	upper	zerothre.ttf
2558311	WORD	wordpools/wasnorm_wordpool.txt	LTP139	ltpFR	10	10	1	LOVER	846	n/a	n/a	1	n/a	0	0	0	0.422607421875	0.5869140625	0	upper	zerothre.ttf
2562200	WORD	wordpools/wasnorm_wordpool.txt	LTP139	ltpFR	10	10	1	TOMB	1477	n/a	n/a	0	n/a	0	0	0	0.422607421875	0.5869140625	0	upper	zerothre.ttf
2566249	WORD	wordpools/wasnorm_wordpool.txt	LTP139	ltpFR	10	10	0	SCOTCH	1251	n/a	n/a	0	n/a	0	0	0	0.57763671875	0.412841796875	1	lower	amplitud.ttf
2570147	WORD	wordpools/wasnorm_wordpool.txt	LTP139	ltpFR	10	10	0	SUPPER	1411	n/a	n/a	0	n/a	0	0	0	0.57763671875	0.412841796875	1	lower	amplitud.ttf
2574330	WORD	wordpools/wasnorm_wordpool.txt	LTP139	ltpFR	10	10	0	PICNIC	1060	n/a	n/a	0	n/a	0	0	0	0.57763671875	0.412841796875	1	lower	amplitud.ttf
2578211	WORD	wordpools/wasnorm_wordpool.txt	LTP139	ltpFR	10	10	1	WAVE	1596	n/a	n/a	0	n/a	0	0	0	0.422607421875	0.5869140625	0	upper	zerothre.ttf
2582135	WORD	wordpools/wasnorm_wordpool.txt	LTP139	ltpFR	10	10	1	CATERPILLAR	259	n/a	n/a	1	n/a	0	0	0	0.422607421875	0.5869140625	0	upper	zerothre.ttf
2586133	WORD	wordpools/wasnorm_wordpool.txt	LTP139	ltpFR	10	10	0	SWIMMER	1420	n/a	n/a	1	n/a	0	0	0	0.57763671875	0.412841796875	1	lower	amplitud.ttf
2590274	WORD	wordpools/wasnorm_wordpool.txt	LTP139	ltpFR	10	10	0	HEATER	698	n/a	n/a	1	n/a	0	0	0	0.57763671875	0.412841796875	1	lower	amplitud.ttf
2594331	WORD	wordpools/wasnorm_wordpool.txt	LTP139	ltpFR	10	10	0	CORPORATION	382	n/a	n/a	1	n/a	0	0	0	0.57763671875	0.412841796875	1	lower	amplitud.ttf
2598338	WORD	wordpools/wasnorm_wordpool.txt	LTP139	ltpFR	10	10	0	MONEY	908	n/a	n/a	0	n/a	0	0	0	0.57763671875	0.412841796875	1	lower	amplitud.ttf
2602395	WORD	wordpools/wasnorm_wordpool.txt	LTP139	ltpFR	10	10	0	TEAPOT	1442	n/a	n/a	0	n/a	0	0	0	0.57763671875	0.412841796875	1	lower	amplitud.ttf
2605403	START	n/a	LTP139	ltpFR	10	n/a	n/a	n/a	n/a	n/a	n/a	n/a	n/a	n/a	n/a	n/a	n/a	n/a	n/a	n/a	n/a
2606302	PROB	n/a	LTP139	ltpFR	10	n/a	n/a	n/a	n/a	n/a	n/a	n/a	12	3	5	4	n/a	n/a	n/a	n/a	n/a
2609067	PROB	n/a	LTP139	ltpFR	10	n/a	n/a	n/a	n/a	n/a	n/a	n/a	12	3	3	6	n/a	n/a	n/a	n/a	n/a
2611534	PROB	n/a	LTP139	ltpFR	10	n/a	n/a	n/a	n/a	n/a	n/a	n/a	14	4	4	6	n/a	n/a	n/a	n/a	n/a
2613940	PROB	n/a	LTP139	ltpFR	10	n/a	n/a	n/a	n/a	n/a	n/a	n/a	16	7	3	6	n/a	n/a	n/a	n/a	n/a
2616089	PROB	n/a	LTP139	ltpFR	10	n/a	n/a	n/a	n/a	n/a	n/a	n/a	25	9	8	8	n/a	n/a	n/a	n/a	n/a
2618205	PROB	n/a	LTP139	ltpFR	10	n/a	n/a	n/a	n/a	n/a	n/a	n/a	13	6	6	1	n/a	n/a	n/a	n/a	n/a
2621403	STOP	n/a	LTP139	ltpFR	10	n/a	n/a	n/a	n/a	n/a	n/a	n/a	n/a	n/a	n/a	n/a	n/a	n/a	n/a	n/a	n/a
2623162	REC_START	n/a	LTP139	ltpFR	10	10	n/a	n/a	n/a	n/a	n/a	n/a	n/a	0	0	0	n/a	n/a	n/a	n/a	n/a
2624409	REC_WORD	wordpools/wasnorm_wordpool.txt	LTP139	ltpFR	10	10	0	TEAPOT	1442	n/a	n/a	0	n/a	0	0	0	n/a	n/a	n/a	n/a	n/a
2625292	REC_WORD	wordpools/wasnorm_wordpool.txt	LTP139	ltpFR	10	10	0	MONEY	908	n/a	n/a	0	n/a	0	0	0	n/a	n/a	n/a	n/a	n/a
2626753	REC_WORD	wordpools/wasnorm_wordpool.txt	LTP139	ltpFR	10	10	1	GRASSHOPPER	656	n/a	n/a	1	n/a	0	0	0	n/a	n/a	n/a	n/a	n/a
2628046	REC_WORD	wordpools/wasnorm_wordpool.txt	LTP139	ltpFR	10	10	1	CATERPILLAR	259	n/a	n/a	1	n/a	0	0	0	n/a	n/a	n/a	n/a	n/a
2628984	REC_WORD	wordpools/wasnorm_wordpool.txt	LTP139	ltpFR	10	10	1	SEAL	1262	n/a	n/a	1	n/a	0	0	0	n/a	n/a	n/a	n/a	n/a
2630650	REC_WORD	wordpools/wasnorm_wordpool.txt	LTP139	ltpFR	10	10	1	GATE	625	n/a	n/a	0	n/a	0	0	0	n/a	n/a	n/a	n/a	n/a
2632755	REC_WORD	wordpools/wasnorm_wordpool.txt	LTP139	ltpFR	10	10	1	LOVER	846	n/a	n/a	1	n/a	0	0	0	n/a	n/a	n/a	n/a	n/a
2651717	REC_WORD	wordpools/wasnorm_wordpool.txt	LTP139	ltpFR	10	10	0	SWIMMER	1420	n/a	n/a	1	n/a	0	0	0	n/a	n/a	n/a	n/a	n/a
2659439	REC_WORD	wordpools/wasnorm_wordpool.txt	LTP139	ltpFR	10	10	0	SUPPER	1411	n/a	n/a	0	n/a	0	0	0	n/a	n/a	n/a	n/a	n/a
2698768	REST_REWET	n/a	LTP139	ltpFR	10	10	n/a	n/a	n/a	n/a	n/a	n/a	n/a	0	0	0	n/a	n/a	n/a	n/a	n/a
2905070	WORD	wordpools/wasnorm_wordpool.txt	LTP139	ltpFR	10	11	0	BLOCKADE	137	n/a	n/a	1	n/a	0	0	0	0.57763671875	0.412841796875	1	lower	amplitud.ttf
2909060	WORD	wordpools/wasnorm_wordpool.txt	LTP139	ltpFR	10	11	0	NOTEBOOK	959	n/a	n/a	1	n/a	0	0	0	0.57763671875	0.412841796875	1	lower	amplitud.ttf
2913075	WORD	wordpools/wasnorm_wordpool.txt	LTP139	ltpFR	10	11	0	BLUEPRINT	142	n/a	n/a	0	n/a	0	0	0	0.57763671875	0.412841796875	1	lower	amplitud.ttf
2916982	WORD	wordpools/wasnorm_wordpool.txt	LTP139	ltpFR	10	11	0	PEBBLE	1035	n/a	n/a	0	n/a	0	0	0	0.57763671875	0.412841796875	1	lower	amplitud.ttf
2921022	WORD	wordpools/wasnorm_wordpool.txt	LTP139	ltpFR	10	11	0	HANDCUFFS	685	n/a	n/a	0	n/a	0	0	0	0.57763671875	0.412841796875	1	lower	amplitud.ttf
2925204	WORD	wordpools/wasnorm_wordpool.txt	LTP139	ltpFR	10	11	0	WHEEL	1603	n/a	n/a	1	n/a	0	0	0	0.57763671875	0.412841796875	1	lower	amplitud.ttf
2929186	WORD	wordpools/wasnorm_wordpool.txt	LTP139	ltpFR	10	11	0	CHEESE	289	n/a	n/a	0	n/a	0	0	0	0.57763671875	0.412841796875	1	lower	amplitud.ttf
2933185	WORD	wordpools/wasnorm_wordpool.txt	LTP139	ltpFR	10	11	0	CONVENT	370	n/a	n/a	1	n/a	0	0	0	0.57763671875	0.412841796875	1	lower	amplitud.ttf
2937258	WORD	wordpools/wasnorm_wordpool.txt	LTP139	ltpFR	10	11	0	CELLAR	267	n/a	n/a	1	n/a	0	0	0	0.57763671875	0.412841796875	1	lower	amplitud.ttf
2941291	WORD	wordpools/wasnorm_wordpool.txt	LTP139	ltpFR	10	11	0	POCKET	1093	n/a	n/a	0	n/a	0	0	0	0.57763671875	0.412841796875	1	lower	amplitud.ttf
2945256	WORD	wordpools/wasnorm_wordpool.txt	LTP139	ltpFR	10	11	0	SHORTS	1293	n/a	n/a	0	n/a	0	0	0	0.57763671875	0.412841796875	1	lower	amplitud.ttf
2949438	WORD	wordpools/wasnorm_wordpool.txt	LTP139	ltpFR	10	11	0	HOSE	720	n/a	n/a	0	n/a	0	0	0	0.57763671875	0.412841796875	1	lower	amplitud.ttf
2953454	WORD	wordpools/wasnorm_wordpool.txt	LTP139	ltpFR	10	11	0	WATER	1594	n/a	n/a	0	n/a	0	0	0	0.57763671875	0.412841796875	1	lower	amplitud.ttf
2957410	WORD	wordpools/wasnorm_wordpool.txt	LTP139	ltpFR	10	11	0	KIDNEY	776	n/a	n/a	0	n/a	0	0	0	0.57763671875	0.412841796875	1	lower	amplitud.ttf
2961484	WORD	wordpools/wasnorm_wordpool.txt	LTP139	ltpFR	10	11	0	ASIA	46	n/a	n/a	1	n/a	0	0	0	0.57763671875	0.412841796875	1	lower	amplitud.ttf
2965449	WORD	wordpools/wasnorm_wordpool.txt	LTP139	ltpFR	10	11	0	CARAVAN	242	n/a	n/a	1	n/a	0	0	0	0.57763671875	0.412841796875	1	lower	amplitud.ttf
2968457	START	n/a	LTP139	ltpFR	10	n/a	n/a	n/a	n/a	n/a	n/a	n/a	n/a	n/a	n/a	n/a	n/a	n/a	n/a	n/a	n/a
2969406	PROB	n/a	LTP139	ltpFR	10	n/a	n/a	n/a	n/a	n/a	n/a	n/a	18	6	5	7	n/a	n/a	n/a	n/a	n/a
2972480	PROB	n/a	LTP139	ltpFR	10	n/a	n/a	n/a	n/a	n/a	n/a	n/a	12	4	3	5	n/a	n/a	n/a	n/a	n/a
2975171	STOP	n/a	LTP139	ltpFR	10	n/a	n/a	n/a	n/a	n/a	n/a	n/a	n/a	n/a	n/a	n/a	n/a	n/a	n/a	n/a	n/a
2978211	REC_START	n/a	LTP139	ltpFR	10	11	n/a	n/a	n/a	n/a	n/a	n/a	n/a	0	0	0	n/a	n/a	n/a	n/a	n/a
2979169	REC_WORD	wordpools/wasnorm_wordpool.txt	LTP139	ltpFR	10	11	0	BLOCKADE	137	n/a	n/a	1	n/a	0	0	0	n/a	n/a	n/a	n/a	n/a
2979987	REC_WORD	wordpools/wasnorm_wordpool.txt	LTP139	ltpFR	10	11	0	ASIA	46	n/a	n/a	1	n/a	0	0	0	n/a	n/a	n/a	n/a	n/a
2980780	REC_WORD	wordpools/wasnorm_wordpool.txt	LTP139	ltpFR	10	11	0	BLUEPRINT	142	n/a	n/a	0	n/a	0	0	0	n/a	n/a	n/a	n/a	n/a
2983334	REC_WORD	wordpools/wasnorm_wordpool.txt	LTP139	ltpFR	10	11	0	NOTEBOOK	959	n/a	n/a	1	n/a	0	0	0	n/a	n/a	n/a	n/a	n/a
2994983	REC_WORD	wordpools/wasnorm_wordpool.txt	LTP139	ltpFR	10	11	0	SHORTS	1293	n/a	n/a	0	n/a	0	0	0	n/a	n/a	n/a	n/a	n/a
2996514	REC_WORD	wordpools/wasnorm_wordpool.txt	LTP139	ltpFR	10	11	0	HOSE	720	n/a	n/a	0	n/a	0	0	0	n/a	n/a	n/a	n/a	n/a
3001667	REC_WORD	wordpools/wasnorm_wordpool.txt	LTP139	ltpFR	10	11	0	WHEEL	1603	n/a	n/a	1	n/a	0	0	0	n/a	n/a	n/a	n/a	n/a
3005723	REC_WORD	wordpools/wasnorm_wordpool.txt	LTP139	ltpFR	10	11	0	KIDNEY	776	n/a	n/a	0	n/a	0	0	0	n/a	n/a	n/a	n/a	n/a
3041163	REC_WORD	wordpools/wasnorm_wordpool.txt	LTP139	ltpFR	10	11	0	CONVENT	370	n/a	n/a	1	n/a	0	0	0	n/a	n/a	n/a	n/a	n/a
3072893	WORD	wordpools/wasnorm_wordpool.txt	LTP139	ltpFR	10	12	0	SHRINE	1298	n/a	n/a	1	n/a	0	0	0	0.57763671875	0.412841796875	1	lower	amplitud.ttf
3076867	WORD	wordpools/wasnorm_wordpool.txt	LTP139	ltpFR	10	12	0	VIKING	1565	n/a	n/a	1	n/a	0	0	0	0.57763671875	0.412841796875	1	lower	amplitud.ttf
3080866	WORD	wordpools/wasnorm_wordpool.txt	LTP139	ltpFR	10	12	0	CRAB	397	n/a	n/a	0	n/a	0	0	0	0.57763671875	0.412841796875	1	lower	amplitud.ttf
3085022	WORD	wordpools/wasnorm_wordpool.txt	LTP139	ltpFR	10	12	0	TYPIST	1532	n/a	n/a	1	n/a	0	0	0	0.57763671875	0.412841796875	1	lower	amplitud.ttf
3088854	WORD	wordpools/wasnorm_wordpool.txt	LTP139	ltpFR	10	12	0	TICK	1463	n/a	n/a	0	n/a	0	0	0	0.57763671875	0.412841796875	1	lower	amplitud.ttf
3093003	WORD	wordpools/wasnorm_wordpool.txt	LTP139	ltpFR	10	12	1	DRYER	503	n/a	n/a	0	n/a	0	0	0	0.422607421875	0.5869140625	0	upper	zerothre.ttf
3097118	WORD	wordpools/wasnorm_wordpool.txt	LTP139	ltpFR	10	12	1	REEF	1177	n/a	n/a	1	n/a	0	0	0	0.422607421875	0.5869140625	0	upper	zerothre.ttf
3101200	WORD	wordpools/wasnorm_wordpool.txt	LTP139	ltpFR	10	12	1	CITRUS	313	n/a	n/a	0	n/a	0	0	0	0.422607421875	0.5869140625	0	upper	zerothre.ttf
3105024	WORD	wordpools/wasnorm_wordpool.txt	LTP139	ltpFR	10	12	1	PUMPKIN	1142	n/a	n/a	1	n/a	0	0	0	0.422607421875	0.5869140625	0	upper	zerothre.ttf
3109180	WORD	wordpools/wasnorm_wordpool.txt	LTP139	ltpFR	10	12	1	SLACKS	1323	n/a	n/a	0	n/a	0	0	0	0.422607421875	0.5869140625	0	upper	zerothre.ttf
3113313	WORD	wordpools/wasnorm_wordpool.txt	LTP139	ltpFR	10	12	0	ROBE	1198	n/a	n/a	0	n/a	0	0	0	0.57763671875	0.412841796875	1	lower	amplitud.ttf
3117203	WORD	wordpools/wasnorm_wordpool.txt	LTP139	ltpFR	10	12	0	CANOE	233	n/a	n/a	1	n/a	0	0	0	0.57763671875	0.412841796875	1	lower	amplitud.ttf
3121185	WORD	wordpools/wasnorm_wordpool.txt	LTP139	ltpFR	10	12	0	LIVER	833	n/a	n/a	0	n/a	0	0	0	0.57763671875	0.412841796875	1	lower	amplitud.ttf
3125033	WORD	wordpools/wasnorm_wordpool.txt	LTP139	ltpFR	10	12	1	MERMAID	887	n/a	n/a	1	n/a	0	0	0	0.422607421875	0.5869140625	0	upper	zerothre.ttf
3128932	WORD	wordpools/wasnorm_wordpool.txt	LTP139	ltpFR	10	12	1	CARRIAGE	248	n/a	n/a	0	n/a	0	0	0	0.422607421875	0.5869140625	0	upper	zerothre.ttf
3133064	WORD	wordpools/wasnorm_wordpool.txt	LTP139	ltpFR	10	12	1	INFANT	737	n/a	n/a	1	n/a	0	0	0	0.422607421875	0.5869140625	0	upper	zerothre.ttf
3138737	REC_START	n/a	LTP139	ltpFR	10	12	n/a	n/a	n/a	n/a	n/a	n/a	n/a	0	0	0	n/a	n/a	n/a	n/a	n/a
3139979	REC_WORD	wordpools/wasnorm_wordpool.txt	LTP139	ltpFR	10	12	0	SHRINE	1298	n/a	n/a	1	n/a	0	0	0	n/a	n/a	n/a	n/a	n/a
3140737	REC_WORD	wordpools/wasnorm_wordpool.txt	LTP139	ltpFR	10	12	0	VIKING	1565	n/a	n/a	1	n/a	0	0	0	n/a	n/a	n/a	n/a	n/a
3141446	REC_WORD	wordpools/wasnorm_wordpool.txt	LTP139	ltpFR	10	12	0	TYPIST	1532	n/a	n/a	1	n/a	0	0	0	n/a	n/a	n/a	n/a	n/a
3142224	REC_WORD	wordpools/wasnorm_wordpool.txt	LTP139	ltpFR	10	12	0	CRAB	397	n/a	n/a	0	n/a	0	0	0	n/a	n/a	n/a	n/a	n/a
3167127	REC_WORD	wordpools/wasnorm_wordpool.txt	LTP139	ltpFR	10	12	0	LIVER	833	n/a	n/a	0	n/a	0	0	0	n/a	n/a	n/a	n/a	n/a
3179235	REC_WORD	wordpools/wasnorm_wordpool.txt	LTP139	ltpFR	10	12	1	MERMAID	887	n/a	n/a	1	n/a	0	0	0	n/a	n/a	n/a	n/a	n/a
3236803	REC_START	n/a	LTP139	ltpFR	10	1	n/a	n/a	n/a	n/a	n/a	n/a	n/a	0	0	0	n/a	n/a	n/a	n/a	n/a
3236835	RECOG_TARGET	n/a	LTP139	ltpFR	10	1	0	HEATER	698	1	4	1	n/a	0	0	0	n/a	n/a	n/a	n/a	n/a
3238013	RECOG_RESP	n/a	LTP139	ltpFR	10	1	0	HEATER	698	1	n/a	1	n/a	0	0	0	n/a	n/a	n/a	n/a	n/a
3239292	RECOG_CONF	n/a	LTP139	ltpFR	10	1	0	HEATER	698	n/a	4	1	n/a	0	0	0	n/a	n/a	n/a	n/a	n/a
3240775	RECOG_TARGET	n/a	LTP139	ltpFR	10	1	0	SUPPER	1411	1	4	0	n/a	0	0	0	n/a	n/a	n/a	n/a	n/a
3241636	RECOG_RESP	n/a	LTP139	ltpFR	10	1	0	SUPPER	1411	1	n/a	0	n/a	0	0	0	n/a	n/a	n/a	n/a	n/a
3242549	RECOG_CONF	n/a	LTP139	ltpFR	10	1	0	SUPPER	1411	n/a	4	0	n/a	0	0	0	n/a	n/a	n/a	n/a	n/a
3244191	RECOG_TARGET	n/a	LTP139	ltpFR	10	1	1	BATHTUB	100	1	5	0	n/a	0	0	0	n/a	n/a	n/a	n/a	n/a
3244854	RECOG_RESP	n/a	LTP139	ltpFR	10	1	1	BATHTUB	100	1	n/a	0	n/a	0	0	0	n/a	n/a	n/a	n/a	n/a
3245782	RECOG_CONF	n/a	LTP139	ltpFR	10	1	1	BATHTUB	100	n/a	5	0	n/a	0	0	0	n/a	n/a	n/a	n/a	n/a
3247316	RECOG_TARGET	n/a	LTP139	ltpFR	10	1	0	WAX	1597	1	5	0	n/a	0	0	0	n/a	n/a	n/a	n/a	n/a
3248068	RECOG_RESP	n/a	LTP139	ltpFR	10	1	0	WAX	1597	1	n/a	0	n/a	0	0	0	n/a	n/a	n/a	n/a	n/a
3249140	RECOG_CONF	n/a	LTP139	ltpFR	10	1	0	WAX	1597	n/a	5	0	n/a	0	0	0	n/a	n/a	n/a	n/a	n/a
3250564	RECOG_TARGET	n/a	LTP139	ltpFR	10	1	0	PEBBLE	1035	1	5	0	n/a	0	0	0	n/a	n/a	n/a	n/a	n/a
3251431	RECOG_RESP	n/a	LTP139	ltpFR	10	1	0	PEBBLE	1035	1	n/a	0	n/a	0	0	0	n/a	n/a	n/a	n/a	n/a
3252394	RECOG_CONF	n/a	LTP139	ltpFR	10	1	0	PEBBLE	1035	n/a	5	0	n/a	0	0	0	n/a	n/a	n/a	n/a	n/a
3254071	RECOG_TARGET	n/a	LTP139	ltpFR	10	1	0	BLOCKADE	137	1	5	1	n/a	0	0	0	n/a	n/a	n/a	n/a	n/a
3254779	RECOG_RESP	n/a	LTP139	ltpFR	10	1	0	BLOCKADE	137	1	n/a	1	n/a	0	0	0	n/a	n/a	n/a	n/a	n/a
3255727	RECOG_CONF	n/a	LTP139	ltpFR	10	1	0	BLOCKADE	137	n/a	5	1	n/a	0	0	0	n/a	n/a	n/a	n/a	n/a
3257504	RECOG_TARGET	n/a	LTP139	ltpFR	10	1	1	CASHIER	254	1	5	1	n/a	0	0	0	n/a	n/a	n/a	n/a	n/a
3258266	RECOG_RESP	n/a	LTP139	ltpFR	10	1	1	CASHIER	254	1	n/a	1	n/a	0	0	0	n/a	n/a	n/a	n/a	n/a
3259198	RECOG_CONF	n/a	LTP139	ltpFR	10	1	1	CASHIER	254	n/a	5	1	n/a	0	0	0	n/a	n/a	n/a	n/a	n/a
3260669	RECOG_LURE	n/a	LTP139	ltpFR	10	1	n/a	CAPTAIN	239	0	3	n/a	n/a	0	0	0	n/a	n/a	n/a	n/a	n/a
3263547	RECOG_RESP	n/a	LTP139	ltpFR	10	1	n/a	CAPTAIN	239	0	n/a	n/a	n/a	0	0	0	n/a	n/a	n/a	n/a	n/a
3264571	RECOG_CONF	n/a	LTP139	ltpFR	10	1	n/a	CAPTAIN	239	n/a	3	n/a	n/a	0	0	0	n/a	n/a	n/a	n/a	n/a
3266100	RECOG_TARGET	n/a	LTP139	ltpFR	10	1	1	MERMAID	887	1	5	1	n/a	0	0	0	n/a	n/a	n/a	n/a	n/a
3266778	RECOG_RESP	n/a	LTP139	ltpFR	10	1	1	MERMAID	887	1	n/a	1	n/a	0	0	0	n/a	n/a	n/a	n/a	n/a
3267780	RECOG_CONF	n/a	LTP139	ltpFR	10	1	1	MERMAID	887	n/a	5	1	n/a	0	0	0	n/a	n/a	n/a	n/a	n/a
3269424	RECOG_TARGET	n/a	LTP139	ltpFR	10	1	0	PLUMBER	1091	1	5	1	n/a	0	0	0	n/a	n/a	n/a	n/a	n/a
3270052	RECOG_RESP	n/a	LTP139	ltpFR	10	1	0	PLUMBER	1091	1	n/a	1	n/a	0	0	0	n/a	n/a	n/a	n/a	n/a
3271048	RECOG_CONF	n/a	LTP139	ltpFR	10	1	0	PLUMBER	1091	n/a	5	1	n/a	0	0	0	n/a	n/a	n/a	n/a	n/a
3272640	RECOG_TARGET	n/a	LTP139	ltpFR	10	1	0	ACROBAT	4	1	5	1	n/a	0	0	0	n/a	n/a	n/a	n/a	n/a
3273324	RECOG_RESP	n/a	LTP139	ltpFR	10	1	0	ACROBAT	4	1	n/a	1	n/a	0	0	0	n/a	n/a	n/a	n/a	n/a
3274226	RECOG_CONF	n/a	LTP139	ltpFR	10	1	0	ACROBAT	4	n/a	5	1	n/a	0	0	0	n/a	n/a	n/a	n/a	n/a
3275821	RECOG_TARGET	n/a	LTP139	ltpFR	10	1	1	REEF	1177	1	5	1	n/a	0	0	0	n/a	n/a	n/a	n/a	n/a
3276365	RECOG_RESP	n/a	LTP139	ltpFR	10	1	1	REEF	1177	1	n/a	1	n/a	0	0	0	n/a	n/a	n/a	n/a	n/a
3277288	RECOG_CONF	n/a	LTP139	ltpFR	10	1	1	REEF	1177	n/a	5	1	n/a	0	0	0	n/a	n/a	n/a	n/a	n/a
3278895	RECOG_TARGET	n/a	LTP139	ltpFR	10	1	0	SCOTCH	1251	0	4	0	n/a	0	0	0	n/a	n/a	n/a	n/a	n/a
3279697	RECOG_RESP	n/a	LTP139	ltpFR	10	1	0	SCOTCH	1251	0	n/a	0	n/a	0	0	0	n/a	n/a	n/a	n/a	n/a
3280828	RECOG_CONF	n/a	LTP139	ltpFR	10	1	0	SCOTCH	1251	n/a	4	0	n/a	0	0	0	n/a	n/a	n/a	n/a	n/a
3282261	RECOG_TARGET	n/a	LTP139	ltpFR	10	1	0	NOTEBOOK	959	1	5	1	n/a	0	0	0	n/a	n/a	n/a	n/a	n/a
3282938	RECOG_RESP	n/a	LTP139	ltpFR	10	1	0	NOTEBOOK	959	1	n/a	1	n/a	0	0	0	n/a	n/a	n/a	n/a	n/a
3283887	RECOG_CONF	n/a	LTP139	ltpFR	10	1	0	NOTEBOOK	959	n/a	5	1	n/a	0	0	0	n/a	n/a	n/a	n/a	n/a
3285594	RECOG_TARGET	n/a	LTP139	ltpFR	10	1	0	CANOE	233	1	5	1	n/a	0	0	0	n/a	n/a	n/a	n/a	n/a
3286270	RECOG_RESP	n/a	LTP139	ltpFR	10	1	0	CANOE	233	1	n/a	1	n/a	0	0	0	n/a	n/a	n/a	n/a	n/a
3287253	RECOG_CONF	n/a	LTP139	ltpFR	10	1	0	CANOE	233	n/a	5	1	n/a	0	0	0	n/a	n/a	n/a	n/a	n/a
3288825	RECOG_TARGET	n/a	LTP139	ltpFR	10	1	0	PILOT	1070	1	5	1	n/a	0	0	0	n/a	n/a	n/a	n/a	n/a
3289746	RECOG_RESP	n/a	LTP139	ltpFR	10	1	0	PILOT	1070	1	n/a	1	n/a	0	0	0	n/a	n/a	n/a	n/a	n/a
3290755	RECOG_CONF	n/a	LTP139	ltpFR	10	1	0	PILOT	1070	n/a	5	1	n/a	0	0	0	n/a	n/a	n/a	n/a	n/a
3292316	RECOG_LURE	n/a	LTP139	ltpFR	10	1	n/a	DIRT	472	0	3	n/a	n/a	0	0	0	n/a	n/a	n/a	n/a	n/a
3294822	RECOG_RESP	n/a	LTP139	ltpFR	10	1	n/a	DIRT	472	0	n/a	n/a	n/a	0	0	0	n/a	n/a	n/a	n/a	n/a
3295981	RECOG_CONF	n/a	LTP139	ltpFR	10	1	n/a	DIRT	472	n/a	3	n/a	n/a	0	0	0	n/a	n/a	n/a	n/a	n/a
3297581	RECOG_LURE	n/a	LTP139	ltpFR	10	1	n/a	PLANE	1081	0	4	n/a	n/a	0	0	0	n/a	n/a	n/a	n/a	n/a
3299549	RECOG_RESP	n/a	LTP139	ltpFR	10	1	n/a	PLANE	1081	0	n/a	n/a	n/a	0	0	0	n/a	n/a	n/a	n/a	n/a
3300674	RECOG_CONF	n/a	LTP139	ltpFR	10	1	n/a	PLANE	1081	n/a	4	n/a	n/a	0	0	0	n/a	n/a	n/a	n/a	n/a
3302346	RECOG_TARGET	n/a	LTP139	ltpFR	10	1	1	WAGON	1578	1	5	0	n/a	0	0	0	n/a	n/a	n/a	n/a	n/a
3302950	RECOG_RESP	n/a	LTP139	ltpFR	10	1	1	WAGON	1578	1	n/a	0	n/a	0	0	0	n/a	n/a	n/a	n/a	n/a
3303906	RECOG_CONF	n/a	LTP139	ltpFR	10	1	1	WAGON	1578	n/a	5	0	n/a	0	0	0	n/a	n/a	n/a	n/a	n/a
3305378	RECOG_TARGET	n/a	LTP139	ltpFR	10	1	1	LOFT	840	1	5	0	n/a	0	0	0	n/a	n/a	n/a	n/a	n/a
3305959	RECOG_RESP	n/a	LTP139	ltpFR	10	1	1	LOFT	840	1	n/a	0	n/a	0	0	0	n/a	n/a	n/a	n/a	n/a
3306949	RECOG_CONF	n/a	LTP139	ltpFR	10	1	1	LOFT	840	n/a	5	0	n/a	0	0	0	n/a	n/a	n/a	n/a	n/a
3315369	REC_START	n/a	LTP139	ltpFR	10	2	n/a	n/a	n/a	n/a	n/a	n/a	n/a	0	0	0	n/a	n/a	n/a	n/a	n/a
3315400	RECOG_TARGET	n/a	LTP139	ltpFR	10	2	0	STY	1397	1	5	1	n/a	0	0	0	n/a	n/a	n/a	n/a	n/a
3316208	RECOG_RESP	n/a	LTP139	ltpFR	10	2	0	STY	1397	1	n/a	1	n/a	0	0	0	n/a	n/a	n/a	n/a	n/a
3317240	RECOG_CONF	n/a	LTP139	ltpFR	10	2	0	STY	1397	n/a	5	1	n/a	0	0	0	n/a	n/a	n/a	n/a	n/a
3318714	RECOG_TARGET	n/a	LTP139	ltpFR	10	2	1	DECK	443	1	5	0	n/a	0	0	0	n/a	n/a	n/a	n/a	n/a
3319493	RECOG_RESP	n/a	LTP139	ltpFR	10	2	1	DECK	443	1	n/a	0	n/a	0	0	0	n/a	n/a	n/a	n/a	n/a
3320455	RECOG_CONF	n/a	LTP139	ltpFR	10	2	1	DECK	443	n/a	5	0	n/a	0	0	0	n/a	n/a	n/a	n/a	n/a
3321946	RECOG_TARGET	n/a	LTP139	ltpFR	10	2	1	NUT	965	1	5	0	n/a	0	0	0	n/a	n/a	n/a	n/a	n/a
3322594	RECOG_RESP	n/a	LTP139	ltpFR	10	2	1	NUT	965	1	n/a	0	n/a	0	0	0	n/a	n/a	n/a	n/a	n/a
3323593	RECOG_CONF	n/a	LTP139	ltpFR	10	2	1	NUT	965	n/a	5	0	n/a	0	0	0	n/a	n/a	n/a	n/a	n/a
3325137	RECOG_TARGET	n/a	LTP139	ltpFR	10	2	0	SNEAKER	1334	1	4	0	n/a	0	0	0	n/a	n/a	n/a	n/a	n/a
3326505	RECOG_RESP	n/a	LTP139	ltpFR	10	2	0	SNEAKER	1334	1	n/a	0	n/a	0	0	0	n/a	n/a	n/a	n/a	n/a
3327596	RECOG_CONF	n/a	LTP139	ltpFR	10	2	0	SNEAKER	1334	n/a	4	0	n/a	0	0	0	n/a	n/a	n/a	n/a	n/a
3329011	RECOG_LURE	n/a	LTP139	ltpFR	10	2	n/a	PICK	1058	0	4	n/a	n/a	0	0	0	n/a	n/a	n/a	n/a	n/a
3330383	RECOG_RESP	n/a	LTP139	ltpFR	10	2	n/a	PICK	1058	0	n/a	n/a	n/a	0	0	0	n/a	n/a	n/a	n/a	n/a
3331554	RECOG_CONF	n/a	LTP139	ltpFR	10	2	n/a	PICK	1058	n/a	4	n/a	n/a	0	0	0	n/a	n/a	n/a	n/a	n/a
3333142	RECOG_TARGET	n/a	LTP139	ltpFR	10	2	1	WRIST	1626	1	3	0	n/a	0	0	0	n/a	n/a	n/a	n/a	n/a
3334104	RECOG_RESP	n/a	LTP139	ltpFR	10	2	1	WRIST	1626	1	n/a	0	n/a	0	0	0	n/a	n/a	n/a	n/a	n/a
3335256	RECOG_CONF	n/a	LTP139	ltpFR	10	2	1	WRIST	1626	n/a	3	0	n/a	0	0	0	n/a	n/a	n/a	n/a	n/a
3336708	RECOG_TARGET	n/a	LTP139	ltpFR	10	2	0	FOLLOWER	589	1	4	1	n/a	0	0	0	n/a	n/a	n/a	n/a	n/a
3337749	RECOG_RESP	n/a	LTP139	ltpFR	10	2	0	FOLLOWER	589	1	n/a	1	n/a	0	0	0	n/a	n/a	n/a	n/a	n/a
3338860	RECOG_CONF	n/a	LTP139	ltpFR	10	2	0	FOLLOWER	589	n/a	4	1	n/a	0	0	0	n/a	n/a	n/a	n/a	n/a
3340324	RECOG_TARGET	n/a	LTP139	ltpFR	10	2	1	CREATURE	403	1	5	1	n/a	0	0	0	n/a	n/a	n/a	n/a	n/a
3340962	RECOG_RESP	n/a	LTP139	ltpFR	10	2	1	CREATURE	403	1	n/a	1	n/a	0	0	0	n/a	n/a	n/a	n/a	n/a
3341903	RECOG_CONF	n/a	LTP139	ltpFR	10	2	1	CREATURE	403	n/a	5	1	n/a	0	0	0	n/a	n/a	n/a	n/a	n/a
3343381	RECOG_TARGET	n/a	LTP139	ltpFR	10	2	1	DRYER	503	1	5	0	n/a	0	0	0	n/a	n/a	n/a	n/a	n/a
3343963	RECOG_RESP	n/a	LTP139	ltpFR	10	2	1	DRYER	503	1	n/a	0	n/a	0	0	0	n/a	n/a	n/a	n/a	n/a
3344885	RECOG_CONF	n/a	LTP139	ltpFR	10	2	1	DRYER	503	n/a	5	0	n/a	0	0	0	n/a	n/a	n/a	n/a	n/a
3346505	RECOG_TARGET	n/a	LTP139	ltpFR	10	2	1	KNOT	788	1	5	0	n/a	0	0	0	n/a	n/a	n/a	n/a	n/a
