mstime	trial_type	stim_file	subject	experiment	session	trial	task	item_name	item_num	recog_resp	recog_conf	resp	answer	test_x	test_y	test_z	color_r	color_g	color_b	case	font
0	SESS_START	n/a	LTP247	ltpFR	12	n/a	n/a	n/a	n/a	0	1	n/a	n/a	0	0	0	n/a	n/a	n/a	n/a	n/a
39181	START	n/a	LTP247	ltpFR	12	n/a	n/a	n/a	n/a	n/a	n/a	n/a	n/a	n/a	n/a	n/a	n/a	n/a	n/a	n/a	n/a
39231	PROB	n/a	LTP247	ltpFR	12	n/a	n/a	n/a	n/a	n/a	n/a	n/a	12	4	2	6	n/a	n/a	n/a	n/a	n/a
40937	PROB	n/a	LTP247	ltpFR	12	n/a	n/a	n/a	n/a	n/a	n/a	n/a	17	8	1	8	n/a	n/a	n/a	n/a	n/a
42476	PROB	n/a	LTP247	ltpFR	12	n/a	n/a	n/a	n/a	n/a	n/a	n/a	9	1	6	2	n/a	n/a	n/a	n/a	n/a
43782	PROB	n/a	LTP247	ltpFR	12	n/a	n/a	n/a	n/a	n/a	n/a	n/a	14	8	2	4	n/a	n/a	n/a	n/a	n/a
45153	PROB	n/a	LTP247	ltpFR	12	n/a	n/a	n/a	n/a	n/a	n/a	n/a	14	1	6	7	n/a	n/a	n/a	n/a	n/a
46877	PROB	n/a	LTP247	ltpFR	12	n/a	n/a	n/a	n/a	n/a	n/a	n/a	11	3	6	2	n/a	n/a	n/a	n/a	n/a
48181	PROB	n/a	LTP247	ltpFR	12	n/a	n/a	n/a	n/a	n/a	n/a	n/a	6	4	1	1	n/a	n/a	n/a	n/a	n/a
49670	PROB	n/a	LTP247	ltpFR	12	n/a	n/a	n/a	n/a	n/a	n/a	n/a	14	4	4	6	n/a	n/a	n/a	n/a	n/a
51628	PROB	n/a	LTP247	ltpFR	12	n/a	n/a	n/a	n/a	n/a	n/a	n/a	16	4	6	6	n/a	n/a	n/a	n/a	n/a
53317	PROB	n/a	LTP247	ltpFR	12	n/a	n/a	n/a	n/a	n/a	n/a	n/a	7	4	2	1	n/a	n/a	n/a	n/a	n/a
55241	PROB	n/a	LTP247	ltpFR	12	n/a	n/a	n/a	n/a	n/a	n/a	n/a	11	1	2	8	n/a	n/a	n/a	n/a	n/a
57212	PROB	n/a	LTP247	ltpFR	12	n/a	n/a	n/a	n/a	n/a	n/a	n/a	15	8	4	3	n/a	n/a	n/a	n/a	n/a
58491	STOP	n/a	LTP247	ltpFR	12	n/a	n/a	n/a	n/a	n/a	n/a	n/a	n/a	n/a	n/a	n/a	n/a	n/a	n/a	n/a	n/a
89873	START	n/a	LTP247	ltpFR	12	n/a	n/a	n/a	n/a	n/a	n/a	n/a	n/a	n/a	n/a	n/a	n/a	n/a	n/a	n/a	n/a
91390	PROB	n/a	LTP247	ltpFR	12	n/a	n/a	n/a	n/a	n/a	n/a	n/a	23	9	9	5	n/a	n/a	n/a	n/a	n/a
94841	PROB	n/a	LTP247	ltpFR	12	n/a	n/a	n/a	n/a	n/a	n/a	n/a	18	2	7	9	n/a	n/a	n/a	n/a	n/a
96916	STOP	n/a	LTP247	ltpFR	12	n/a	n/a	n/a	n/a	n/a	n/a	n/a	n/a	n/a	n/a	n/a	n/a	n/a	n/a	n/a	n/a
99006	WORD	wordpools/wasnorm_wordpool_less_exclusions.txt	LTP247	ltpFR	12	1	1	BELLY	119	0	n/a	0	n/a	0	0	0	0.422607421875	0.5869140625	0	lower	amplitud.ttf
102018	START	n/a	LTP247	ltpFR	12	n/a	n/a	n/a	n/a	n/a	n/a	n/a	n/a	n/a	n/a	n/a	n/a	n/a	n/a	n/a	n/a
103088	PROB	n/a	LTP247	ltpFR	12	n/a	n/a	n/a	n/a	n/a	n/a	n/a	10	5	2	3	n/a	n/a	n/a	n/a	n/a
104624	PROB	n/a	LTP247	ltpFR	12	n/a	n/a	n/a	n/a	n/a	n/a	n/a	16	7	1	8	n/a	n/a	n/a	n/a	n/a
106467	PROB	n/a	LTP247	ltpFR	12	n/a	n/a	n/a	n/a	n/a	n/a	n/a	20	6	5	9	n/a	n/a	n/a	n/a	n/a
108040	PROB	n/a	LTP247	ltpFR	12	n/a	n/a	n/a	n/a	n/a	n/a	n/a	14	3	9	2	n/a	n/a	n/a	n/a	n/a
109403	STOP	n/a	LTP247	ltpFR	12	n/a	n/a	n/a	n/a	n/a	n/a	n/a	n/a	n/a	n/a	n/a	n/a	n/a	n/a	n/a	n/a
111202	WORD	wordpools/wasnorm_wordpool_less_exclusions.txt	LTP247	ltpFR	12	1	1	CAULIFLOWER	262	n/a	n/a	0	n/a	0	0	0	0.422607421875	0.5869140625	0	lower	amplitud.ttf
114214	START	n/a	LTP247	ltpFR	12	n/a	n/a	n/a	n/a	n/a	n/a	n/a	n/a	n/a	n/a	n/a	n/a	n/a	n/a	n/a	n/a
115164	PROB	n/a	LTP247	ltpFR	12	n/a	n/a	n/a	n/a	n/a	n/a	n/a	11	1	4	6	n/a	n/a	n/a	n/a	n/a
116421	PROB	n/a	LTP247	ltpFR	12	n/a	n/a	n/a	n/a	n/a	n/a	n/a	16	7	5	4	n/a	n/a	n/a	n/a	n/a
117861	PROB	n/a	LTP247	ltpFR	12	n/a	n/a	n/a	n/a	n/a	n/a	n/a	18	9	2	7	n/a	n/a	n/a	n/a	n/a
119718	PROB	n/a	LTP247	ltpFR	12	n/a	n/a	n/a	n/a	n/a	n/a	n/a	14	1	7	6	n/a	n/a	n/a	n/a	n/a
121036	STOP	n/a	LTP247	ltpFR	12	n/a	n/a	n/a	n/a	n/a	n/a	n/a	n/a	n/a	n/a	n/a	n/a	n/a	n/a	n/a	n/a
123144	WORD	wordpools/wasnorm_wordpool_less_exclusions.txt	LTP247	ltpFR	12	1	1	TUBE	1516	n/a	n/a	0	n/a	0	0	0	0.422607421875	0.5869140625	0	lower	amplitud.ttf
126159	START	n/a	LTP247	ltpFR	12	n/a	n/a	n/a	n/a	n/a	n/a	n/a	n/a	n/a	n/a	n/a	n/a	n/a	n/a	n/a	n/a
127196	PROB	n/a	LTP247	ltpFR	12	n/a	n/a	n/a	n/a	n/a	n/a	n/a	16	5	3	8	n/a	n/a	n/a	n/a	n/a
128715	PROB	n/a	LTP247	ltpFR	12	n/a	n/a	n/a	n/a	n/a	n/a	n/a	4	2	1	1	n/a	n/a	n/a	n/a	n/a
130090	PROB	n/a	LTP247	ltpFR	12	n/a	n/a	n/a	n/a	n/a	n/a	n/a	17	5	4	8	n/a	n/a	n/a	n/a	n/a
131427	PROB	n/a	LTP247	ltpFR	12	n/a	n/a	n/a	n/a	n/a	n/a	n/a	14	3	7	4	n/a	n/a	n/a	n/a	n/a
132564	STOP	n/a	LTP247	ltpFR	12	n/a	n/a	n/a	n/a	n/a	n/a	n/a	n/a	n/a	n/a	n/a	n/a	n/a	n/a	n/a	n/a
135106	WORD	wordpools/wasnorm_wordpool_less_exclusions.txt	LTP247	ltpFR	12	1	0	CANAL	226	n/a	n/a	1	n/a	0	0	0	0.57763671875	0.412841796875	1	upper	zerothre.ttf
138121	START	n/a	LTP247	ltpFR	12	n/a	n/a	n/a	n/a	n/a	n/a	n/a	n/a	n/a	n/a	n/a	n/a	n/a	n/a	n/a	n/a
139292	PROB	n/a	LTP247	ltpFR	12	n/a	n/a	n/a	n/a	n/a	n/a	n/a	12	2	4	6	n/a	n/a	n/a	n/a	n/a
140744	PROB	n/a	LTP247	ltpFR	12	n/a	n/a	n/a	n/a	n/a	n/a	n/a	15	3	5	7	n/a	n/a	n/a	n/a	n/a
142385	PROB	n/a	LTP247	ltpFR	12	n/a	n/a	n/a	n/a	n/a	n/a	n/a	16	5	6	5	n/a	n/a	n/a	n/a	n/a
143856	PROB	n/a	LTP247	ltpFR	12	n/a	n/a	n/a	n/a	n/a	n/a	n/a	14	5	2	7	n/a	n/a	n/a	n/a	n/a
145956	STOP	n/a	LTP247	ltpFR	12	n/a	n/a	n/a	n/a	n/a	n/a	n/a	n/a	n/a	n/a	n/a	n/a	n/a	n/a	n/a	n/a
147121	WORD	wordpools/wasnorm_wordpool_less_exclusions.txt	LTP247	ltpFR	12	1	0	CORPORATION	382	n/a	n/a	1	n/a	0	0	0	0.57763671875	0.412841796875	1	upper	zerothre.ttf
150133	START	n/a	LTP247	ltpFR	12	n/a	n/a	n/a	n/a	n/a	n/a	n/a	n/a	n/a	n/a	n/a	n/a	n/a	n/a	n/a	n/a
151086	PROB	n/a	LTP247	ltpFR	12	n/a	n/a	n/a	n/a	n/a	n/a	n/a	9	3	3	3	n/a	n/a	n/a	n/a	n/a
152589	PROB	n/a	LTP247	ltpFR	12	n/a	n/a	n/a	n/a	n/a	n/a	n/a	13	7	4	2	n/a	n/a	n/a	n/a	n/a
154381	PROB	n/a	LTP247	ltpFR	12	n/a	n/a	n/a	n/a	n/a	n/a	n/a	19	9	5	5	n/a	n/a	n/a	n/a	n/a
155820	PROB	n/a	LTP247	ltpFR	12	n/a	n/a	n/a	n/a	n/a	n/a	n/a	11	6	1	4	n/a	n/a	n/a	n/a	n/a
156956	STOP	n/a	LTP247	ltpFR	12	n/a	n/a	n/a	n/a	n/a	n/a	n/a	n/a	n/a	n/a	n/a	n/a	n/a	n/a	n/a	n/a
159083	WORD	wordpools/wasnorm_wordpool_less_exclusions.txt	LTP247	ltpFR	12	1	0	SUIT	1402	n/a	n/a	1	n/a	0	0	0	0.57763671875	0.412841796875	1	upper	zerothre.ttf
162095	START	n/a	LTP247	ltpFR	12	n/a	n/a	n/a	n/a	n/a	n/a	n/a	n/a	n/a	n/a	n/a	n/a	n/a	n/a	n/a	n/a
163128	PROB	n/a	LTP247	ltpFR	12	n/a	n/a	n/a	n/a	n/a	n/a	n/a	17	5	6	6	n/a	n/a	n/a	n/a	n/a
164768	PROB	n/a	LTP247	ltpFR	12	n/a	n/a	n/a	n/a	n/a	n/a	n/a	21	8	6	7	n/a	n/a	n/a	n/a	n/a
166456	PROB	n/a	LTP247	ltpFR	12	n/a	n/a	n/a	n/a	n/a	n/a	n/a	15	5	8	2	n/a	n/a	n/a	n/a	n/a
168097	PROB	n/a	LTP247	ltpFR	12	n/a	n/a	n/a	n/a	n/a	n/a	n/a	17	6	9	2	n/a	n/a	n/a	n/a	n/a
169276	STOP	n/a	LTP247	ltpFR	12	n/a	n/a	n/a	n/a	n/a	n/a	n/a	n/a	n/a	n/a	n/a	n/a	n/a	n/a	n/a	n/a
171262	WORD	wordpools/wasnorm_wordpool_less_exclusions.txt	LTP247	ltpFR	12	1	0	ABDOMEN	1	n/a	n/a	0	n/a	0	0	0	0.57763671875	0.412841796875	1	upper	zerothre.ttf
174274	START	n/a	LTP247	ltpFR	12	n/a	n/a	n/a	n/a	n/a	n/a	n/a	n/a	n/a	n/a	n/a	n/a	n/a	n/a	n/a	n/a
175360	PROB	n/a	LTP247	ltpFR	12	n/a	n/a	n/a	n/a	n/a	n/a	n/a	21	3	9	9	n/a	n/a	n/a	n/a	n/a
177198	PROB	n/a	LTP247	ltpFR	12	n/a	n/a	n/a	n/a	n/a	n/a	n/a	18	7	3	8	n/a	n/a	n/a	n/a	n/a
178857	PROB	n/a	LTP247	ltpFR	12	n/a	n/a	n/a	n/a	n/a	n/a	n/a	19	8	7	4	n/a	n/a	n/a	n/a	n/a
180112	PROB	n/a	LTP247	ltpFR	12	n/a	n/a	n/a	n/a	n/a	n/a	n/a	17	3	7	7	n/a	n/a	n/a	n/a	n/a
181331	STOP	n/a	LTP247	ltpFR	12	n/a	n/a	n/a	n/a	n/a	n/a	n/a	n/a	n/a	n/a	n/a	n/a	n/a	n/a	n/a	n/a
183320	WORD	wordpools/wasnorm_wordpool_less_exclusions.txt	LTP247	ltpFR	12	1	0	REEF	1177	n/a	n/a	1	n/a	0	0	0	0.57763671875	0.412841796875	1	upper	zerothre.ttf
186335	START	n/a	LTP247	ltpFR	12	n/a	n/a	n/a	n/a	n/a	n/a	n/a	n/a	n/a	n/a	n/a	n/a	n/a	n/a	n/a	n/a
187239	PROB	n/a	LTP247	ltpFR	12	n/a	n/a	n/a	n/a	n/a	n/a	n/a	17	2	9	6	n/a	n/a	n/a	n/a	n/a
188574	PROB	n/a	LTP247	ltpFR	12	n/a	n/a	n/a	n/a	n/a	n/a	n/a	16	5	8	3	n/a	n/a	n/a	n/a	n/a
190046	PROB	n/a	LTP247	ltpFR	12	n/a	n/a	n/a	n/a	n/a	n/a	n/a	22	9	6	7	n/a	n/a	n/a	n/a	n/a
191467	PROB	n/a	LTP247	ltpFR	12	n/a	n/a	n/a	n/a	n/a	n/a	n/a	10	5	3	2	n/a	n/a	n/a	n/a	n/a
192924	STOP	n/a	LTP247	ltpFR	12	n/a	n/a	n/a	n/a	n/a	n/a	n/a	n/a	n/a	n/a	n/a	n/a	n/a	n/a	n/a	n/a
195318	WORD	wordpools/wasnorm_wordpool_less_exclusions.txt	LTP247	ltpFR	12	1	1	DONKEY	484	n/a	n/a	1	n/a	0	0	0	0.422607421875	0.5869140625	0	lower	amplitud.ttf
198330	START	n/a	LTP247	ltpFR	12	n/a	n/a	n/a	n/a	n/a	n/a	n/a	n/a	n/a	n/a	n/a	n/a	n/a	n/a	n/a	n/a
199217	PROB	n/a	LTP247	ltpFR	12	n/a	n/a	n/a	n/a	n/a	n/a	n/a	16	7	8	1	n/a	n/a	n/a	n/a	n/a
200807	PROB	n/a	LTP247	ltpFR	12	n/a	n/a	n/a	n/a	n/a	n/a	n/a	15	9	4	2	n/a	n/a	n/a	n/a	n/a
203029	PROB	n/a	LTP247	ltpFR	12	n/a	n/a	n/a	n/a	n/a	n/a	n/a	13	3	5	5	n/a	n/a	n/a	n/a	n/a
204584	PROB	n/a	LTP247	ltpFR	12	n/a	n/a	n/a	n/a	n/a	n/a	n/a	14	3	4	7	n/a	n/a	n/a	n/a	n/a
205980	STOP	n/a	LTP247	ltpFR	12	n/a	n/a	n/a	n/a	n/a	n/a	n/a	n/a	n/a	n/a	n/a	n/a	n/a	n/a	n/a	n/a
207464	WORD	wordpools/wasnorm_wordpool_less_exclusions.txt	LTP247	ltpFR	12	1	1	BUNNY	198	n/a	n/a	1	n/a	0	0	0	0.422607421875	0.5869140625	0	lower	amplitud.ttf
210476	START	n/a	LTP247	ltpFR	12	n/a	n/a	n/a	n/a	n/a	n/a	n/a	n/a	n/a	n/a	n/a	n/a	n/a	n/a	n/a	n/a
211631	PROB	n/a	LTP247	ltpFR	12	n/a	n/a	n/a	n/a	n/a	n/a	n/a	11	2	3	6	n/a	n/a	n/a	n/a	n/a
213036	PROB	n/a	LTP247	ltpFR	12	n/a	n/a	n/a	n/a	n/a	n/a	n/a	22	7	8	7	n/a	n/a	n/a	n/a	n/a
214559	PROB	n/a	LTP247	ltpFR	12	n/a	n/a	n/a	n/a	n/a	n/a	n/a	10	2	2	6	n/a	n/a	n/a	n/a	n/a
216047	PROB	n/a	LTP247	ltpFR	12	n/a	n/a	n/a	n/a	n/a	n/a	n/a	16	8	2	6	n/a	n/a	n/a	n/a	n/a
217780	STOP	n/a	LTP247	ltpFR	12	n/a	n/a	n/a	n/a	n/a	n/a	n/a	n/a	n/a	n/a	n/a	n/a	n/a	n/a	n/a	n/a
219325	WORD	wordpools/wasnorm_wordpool_less_exclusions.txt	LTP247	ltpFR	12	1	1	PLAZA	1088	n/a	n/a	0	n/a	0	0	0	0.422607421875	0.5869140625	0	lower	amplitud.ttf
222337	START	n/a	LTP247	ltpFR	12	n/a	n/a	n/a	n/a	n/a	n/a	n/a	n/a	n/a	n/a	n/a	n/a	n/a	n/a	n/a	n/a
223174	PROB	n/a	LTP247	ltpFR	12	n/a	n/a	n/a	n/a	n/a	n/a	n/a	13	2	5	6	n/a	n/a	n/a	n/a	n/a
225232	PROB	n/a	LTP247	ltpFR	12	n/a	n/a	n/a	n/a	n/a	n/a	n/a	11	7	1	3	n/a	n/a	n/a	n/a	n/a
226503	PROB	n/a	LTP247	ltpFR	12	n/a	n/a	n/a	n/a	n/a	n/a	n/a	14	3	3	8	n/a	n/a	n/a	n/a	n/a
227939	PROB	n/a	LTP247	ltpFR	12	n/a	n/a	n/a	n/a	n/a	n/a	n/a	10	1	4	5	n/a	n/a	n/a	n/a	n/a
229228	STOP	n/a	LTP247	ltpFR	12	n/a	n/a	n/a	n/a	n/a	n/a	n/a	n/a	n/a	n/a	n/a	n/a	n/a	n/a	n/a	n/a
231505	WORD	wordpools/wasnorm_wordpool_less_exclusions.txt	LTP247	ltpFR	12	1	1	SADDLE	1221	n/a	n/a	0	n/a	0	0	0	0.422607421875	0.5869140625	0	lower	amplitud.ttf
234517	START	n/a	LTP247	ltpFR	12	n/a	n/a	n/a	n/a	n/a	n/a	n/a	n/a	n/a	n/a	n/a	n/a	n/a	n/a	n/a	n/a
235571	PROB	n/a	LTP247	ltpFR	12	n/a	n/a	n/a	n/a	n/a	n/a	n/a	13	7	5	1	n/a	n/a	n/a	n/a	n/a
237090	PROB	n/a	LTP247	ltpFR	12	n/a	n/a	n/a	n/a	n/a	n/a	n/a	20	2	9	9	n/a	n/a	n/a	n/a	n/a
238883	PROB	n/a	LTP247	ltpFR	12	n/a	n/a	n/a	n/a	n/a	n/a	n/a	24	9	9	6	n/a	n/a	n/a	n/a	n/a
240637	PROB	n/a	LTP247	ltpFR	12	n/a	n/a	n/a	n/a	n/a	n/a	n/a	14	1	4	9	n/a	n/a	n/a	n/a	n/a
242212	STOP	n/a	LTP247	ltpFR	12	n/a	n/a	n/a	n/a	n/a	n/a	n/a	n/a	n/a	n/a	n/a	n/a	n/a	n/a	n/a	n/a
243413	WORD	wordpools/wasnorm_wordpool_less_exclusions.txt	LTP247	ltpFR	12	1	1	CATERPILLAR	259	n/a	n/a	1	n/a	0	0	0	0.422607421875	0.5869140625	0	lower	amplitud.ttf
246428	START	n/a	LTP247	ltpFR	12	n/a	n/a	n/a	n/a	n/a	n/a	n/a	n/a	n/a	n/a	n/a	n/a	n/a	n/a	n/a	n/a
247415	PROB	n/a	LTP247	ltpFR	12	n/a	n/a	n/a	n/a	n/a	n/a	n/a	23	9	7	7	n/a	n/a	n/a	n/a	n/a
249355	PROB	n/a	LTP247	ltpFR	12	n/a	n/a	n/a	n/a	n/a	n/a	n/a	9	2	4	3	n/a	n/a	n/a	n/a	n/a
251443	PROB	n/a	LTP247	ltpFR	12	n/a	n/a	n/a	n/a	n/a	n/a	n/a	14	9	3	2	n/a	n/a	n/a	n/a	n/a
252876	STOP	n/a	LTP247	ltpFR	12	n/a	n/a	n/a	n/a	n/a	n/a	n/a	n/a	n/a	n/a	n/a	n/a	n/a	n/a	n/a	n/a
255492	WORD	wordpools/wasnorm_wordpool_less_exclusions.txt	LTP247	ltpFR	12	1	0	PORCUPINE	1107	n/a	n/a	0	n/a	0	0	0	0.57763671875	0.412841796875	1	upper	zerothre.ttf
258507	START	n/a	LTP247	ltpFR	12	n/a	n/a	n/a	n/a	n/a	n/a	n/a	n/a	n/a	n/a	n/a	n/a	n/a	n/a	n/a	n/a
259545	PROB	n/a	LTP247	ltpFR	12	n/a	n/a	n/a	n/a	n/a	n/a	n/a	12	2	6	4	n/a	n/a	n/a	n/a	n/a
263125	PROB	n/a	LTP247	ltpFR	12	n/a	n/a	n/a	n/a	n/a	n/a	n/a	20	2	9	9	n/a	n/a	n/a	n/a	n/a
265156	STOP	n/a	LTP247	ltpFR	12	n/a	n/a	n/a	n/a	n/a	n/a	n/a	n/a	n/a	n/a	n/a	n/a	n/a	n/a	n/a	n/a
267407	WORD	wordpools/wasnorm_wordpool_less_exclusions.txt	LTP247	ltpFR	12	1	0	CHICKEN	297	n/a	n/a	1	n/a	0	0	0	0.57763671875	0.412841796875	1	upper	zerothre.ttf
270419	START	n/a	LTP247	ltpFR	12	n/a	n/a	n/a	n/a	n/a	n/a	n/a	n/a	n/a	n/a	n/a	n/a	n/a	n/a	n/a	n/a
271624	PROB	n/a	LTP247	ltpFR	12	n/a	n/a	n/a	n/a	n/a	n/a	n/a	20	9	7	4	n/a	n/a	n/a	n/a	n/a
273446	PROB	n/a	LTP247	ltpFR	12	n/a	n/a	n/a	n/a	n/a	n/a	n/a	13	2	3	8	n/a	n/a	n/a	n/a	n/a
275017	PROB	n/a	LTP247	ltpFR	12	n/a	n/a	n/a	n/a	n/a	n/a	n/a	22	2	5	5	n/a	n/a	n/a	n/a	n/a
278418	STOP	n/a	LTP247	ltpFR	12	n/a	n/a	n/a	n/a	n/a	n/a	n/a	n/a	n/a	n/a	n/a	n/a	n/a	n/a	n/a	n/a
279620	WORD	wordpools/wasnorm_wordpool_less_exclusions.txt	LTP247	ltpFR	12	1	0	HEN	703	n/a	n/a	1	n/a	0	0	0	0.57763671875	0.412841796875	1	upper	zerothre.ttf
282632	START	n/a	LTP247	ltpFR	12	n/a	n/a	n/a	n/a	n/a	n/a	n/a	n/a	n/a	n/a	n/a	n/a	n/a	n/a	n/a	n/a
283836	PROB	n/a	LTP247	ltpFR	12	n/a	n/a	n/a	n/a	n/a	n/a	n/a	20	3	8	9	n/a	n/a	n/a	n/a	n/a
285643	PROB	n/a	LTP247	ltpFR	12	n/a	n/a	n/a	n/a	n/a	n/a	n/a	11	6	4	1	n/a	n/a	n/a	n/a	n/a
286978	PROB	n/a	LTP247	ltpFR	12	n/a	n/a	n/a	n/a	n/a	n/a	n/a	15	5	8	2	n/a	n/a	n/a	n/a	n/a
289106	PROB	n/a	LTP247	ltpFR	12	n/a	n/a	n/a	n/a	n/a	n/a	n/a	11	6	3	2	n/a	n/a	n/a	n/a	n/a
290548	STOP	n/a	LTP247	ltpFR	12	n/a	n/a	n/a	n/a	n/a	n/a	n/a	n/a	n/a	n/a	n/a	n/a	n/a	n/a	n/a	n/a
292402	REC_START	n/a	LTP247	ltpFR	12	1	n/a	n/a	n/a	n/a	n/a	n/a	n/a	0	0	0	n/a	n/a	n/a	n/a	n/a
293843	REC_WORD	wordpools/wasnorm_wordpool_less_exclusions.txt	LTP247	ltpFR	12	1	0	HEN	703	n/a	n/a	1	n/a	0	0	0	n/a	n/a	n/a	n/a	n/a
294657	REC_WORD	wordpools/wasnorm_wordpool_less_exclusions.txt	LTP247	ltpFR	12	1	0	CHICKEN	297	n/a	n/a	1	n/a	0	0	0	n/a	n/a	n/a	n/a	n/a
295699	REC_WORD	wordpools/wasnorm_wordpool_less_exclusions.txt	LTP247	ltpFR	12	1	0	PORCUPINE	1107	n/a	n/a	0	n/a	0	0	0	n/a	n/a	n/a	n/a	n/a
297206	REC_WORD	wordpools/wasnorm_wordpool_less_exclusions.txt	LTP247	ltpFR	12	1	1	SADDLE	1221	n/a	n/a	0	n/a	0	0	0	n/a	n/a	n/a	n/a	n/a
298214	REC_WORD	wordpools/wasnorm_wordpool_less_exclusions.txt	LTP247	ltpFR	12	1	1	PLAZA	1088	n/a	n/a	0	n/a	0	0	0	n/a	n/a	n/a	n/a	n/a
299326	REC_WORD	wordpools/wasnorm_wordpool_less_exclusions.txt	LTP247	ltpFR	12	1	1	BUNNY	198	n/a	n/a	1	n/a	0	0	0	n/a	n/a	n/a	n/a	n/a
300379	REC_WORD	wordpools/wasnorm_wordpool_less_exclusions.txt	LTP247	ltpFR	12	1	1	DONKEY	484	n/a	n/a	1	n/a	0	0	0	n/a	n/a	n/a	n/a	n/a
302334	REC_WORD	wordpools/wasnorm_wordpool_less_exclusions.txt	LTP247	ltpFR	12	1	0	ABDOMEN	1	n/a	n/a	0	n/a	0	0	0	n/a	n/a	n/a	n/a	n/a
303841	REC_WORD	wordpools/wasnorm_wordpool_less_exclusions.txt	LTP247	ltpFR	12	1	0	CORPORATION	382	n/a	n/a	1	n/a	0	0	0	n/a	n/a	n/a	n/a	n/a
306460	REC_WORD	wordpools/wasnorm_wordpool_less_exclusions.txt	LTP247	ltpFR	12	1	0	REEF	1177	n/a	n/a	1	n/a	0	0	0	n/a	n/a	n/a	n/a	n/a
310870	REC_WORD	wordpools/wasnorm_wordpool_less_exclusions.txt	LTP247	ltpFR	12	1	1	BELLY	119	n/a	n/a	0	n/a	0	0	0	n/a	n/a	n/a	n/a	n/a
312147	REC_WORD	wordpools/wasnorm_wordpool_less_exclusions.txt	LTP247	ltpFR	12	1	1	CAULIFLOWER	262	n/a	n/a	0	n/a	0	0	0	n/a	n/a	n/a	n/a	n/a
314711	REC_WORD	wordpools/wasnorm_wordpool_less_exclusions.txt	LTP247	ltpFR	12	1	1	TUBE	1516	n/a	n/a	0	n/a	0	0	0	n/a	n/a	n/a	n/a	n/a
375766	WORD	wordpools/wasnorm_wordpool_less_exclusions.txt	LTP247	ltpFR	12	2	0	STEWARDESS	1381	n/a	n/a	1	n/a	0	0	0	0.57763671875	0.412841796875	1	upper	zerothre.ttf
379915	WORD	wordpools/wasnorm_wordpool_less_exclusions.txt	LTP247	ltpFR	12	2	0	GAZELLE	628	n/a	n/a	1	n/a	0	0	0	0.57763671875	0.412841796875	1	upper	zerothre.ttf
384081	WORD	wordpools/wasnorm_wordpool_less_exclusions.txt	LTP247	ltpFR	12	2	1	PANTS	1010	n/a	n/a	0	n/a	0	0	0	0.422607421875	0.5869140625	0	lower	amplitud.ttf
388096	WORD	wordpools/wasnorm_wordpool_less_exclusions.txt	LTP247	ltpFR	12	2	1	BERRY	122	n/a	n/a	0	n/a	0	0	0	0.422607421875	0.5869140625	0	lower	amplitud.ttf
392074	WORD	wordpools/wasnorm_wordpool_less_exclusions.txt	LTP247	ltpFR	12	2	1	STRAWBERRY	1391	n/a	n/a	0	n/a	0	0	0	0.422607421875	0.5869140625	0	lower	amplitud.ttf
396226	WORD	wordpools/wasnorm_wordpool_less_exclusions.txt	LTP247	ltpFR	12	2	1	SHARK	1275	n/a	n/a	1	n/a	0	0	0	0.422607421875	0.5869140625	0	lower	amplitud.ttf
400074	WORD	wordpools/wasnorm_wordpool_less_exclusions.txt	LTP247	ltpFR	12	2	0	FARM	552	n/a	n/a	1	n/a	0	0	0	0.57763671875	0.412841796875	1	upper	zerothre.ttf
404023	WORD	wordpools/wasnorm_wordpool_less_exclusions.txt	LTP247	ltpFR	12	2	0	NOSE	957	n/a	n/a	0	n/a	0	0	0	0.57763671875	0.412841796875	1	upper	zerothre.ttf
408155	WORD	wordpools/wasnorm_wordpool_less_exclusions.txt	LTP247	ltpFR	12	2	0	HANDKERCHIEF	686	n/a	n/a	0	n/a	0	0	0	0.57763671875	0.412841796875	1	upper	zerothre.ttf
412103	WORD	wordpools/wasnorm_wordpool_less_exclusions.txt	LTP247	ltpFR	12	2	1	BEAR	106	n/a	n/a	1	n/a	0	0	0	0.422607421875	0.5869140625	0	lower	amplitud.ttf
416269	WORD	wordpools/wasnorm_wordpool_less_exclusions.txt	LTP247	ltpFR	12	2	1	BEAST	108	n/a	n/a	1	n/a	0	0	0	0.422607421875	0.5869140625	0	lower	amplitud.ttf
420301	WORD	wordpools/wasnorm_wordpool_less_exclusions.txt	LTP247	ltpFR	12	2	1	BARRACUDA	90	n/a	n/a	1	n/a	0	0	0	0.422607421875	0.5869140625	0	lower	amplitud.ttf
424232	WORD	wordpools/wasnorm_wordpool_less_exclusions.txt	LTP247	ltpFR	12	2	1	LOUNGE	845	n/a	n/a	0	n/a	0	0	0	0.422607421875	0.5869140625	0	lower	amplitud.ttf
428360	WORD	wordpools/wasnorm_wordpool_less_exclusions.txt	LTP247	ltpFR	12	2	0	TICKET	1464	n/a	n/a	0	n/a	0	0	0	0.57763671875	0.412841796875	1	upper	zerothre.ttf
432229	WORD	wordpools/wasnorm_wordpool_less_exclusions.txt	LTP247	ltpFR	12	2	0	BUTTER	205	n/a	n/a	0	n/a	0	0	0	0.57763671875	0.412841796875	1	upper	zerothre.ttf
436343	WORD	wordpools/wasnorm_wordpool_less_exclusions.txt	LTP247	ltpFR	12	2	0	MOSS	918	n/a	n/a	0	n/a	0	0	0	0.57763671875	0.412841796875	1	upper	zerothre.ttf
439355	START	n/a	LTP247	ltpFR	12	n/a	n/a	n/a	n/a	n/a	n/a	n/a	n/a	n/a	n/a	n/a	n/a	n/a	n/a	n/a	n/a
440489	PROB	n/a	LTP247	ltpFR	12	n/a	n/a	n/a	n/a	n/a	n/a	n/a	17	3	9	5	n/a	n/a	n/a	n/a	n/a
442685	PROB	n/a	LTP247	ltpFR	12	n/a	n/a	n/a	n/a	n/a	n/a	n/a	16	6	9	1	n/a	n/a	n/a	n/a	n/a
444221	PROB	n/a	LTP247	ltpFR	12	n/a	n/a	n/a	n/a	n/a	n/a	n/a	16	3	4	9	n/a	n/a	n/a	n/a	n/a
445646	PROB	n/a	LTP247	ltpFR	12	n/a	n/a	n/a	n/a	n/a	n/a	n/a	9	2	4	3	n/a	n/a	n/a	n/a	n/a
446884	STOP	n/a	LTP247	ltpFR	12	n/a	n/a	n/a	n/a	n/a	n/a	n/a	n/a	n/a	n/a	n/a	n/a	n/a	n/a	n/a	n/a
449160	REC_START	n/a	LTP247	ltpFR	12	2	n/a	n/a	n/a	n/a	n/a	n/a	n/a	0	0	0	n/a	n/a	n/a	n/a	n/a
450981	REC_WORD	wordpools/wasnorm_wordpool_less_exclusions.txt	LTP247	ltpFR	12	2	0	STEWARDESS	1381	n/a	n/a	1	n/a	0	0	0	n/a	n/a	n/a	n/a	n/a
452163	REC_WORD	wordpools/wasnorm_wordpool_less_exclusions.txt	LTP247	ltpFR	12	2	0	GAZELLE	628	n/a	n/a	1	n/a	0	0	0	n/a	n/a	n/a	n/a	n/a
453909	REC_WORD	wordpools/wasnorm_wordpool_less_exclusions.txt	LTP247	ltpFR	12	2	1	PANTS	1010	n/a	n/a	0	n/a	0	0	0	n/a	n/a	n/a	n/a	n/a
454792	REC_WORD	wordpools/wasnorm_wordpool_less_exclusions.txt	LTP247	ltpFR	12	2	1	BERRY	122	n/a	n/a	0	n/a	0	0	0	n/a	n/a	n/a	n/a	n/a
455765	REC_WORD	wordpools/wasnorm_wordpool_less_exclusions.txt	LTP247	ltpFR	12	2	1	STRAWBERRY	1391	n/a	n/a	0	n/a	0	0	0	n/a	n/a	n/a	n/a	n/a
457601	REC_WORD	wordpools/wasnorm_wordpool_less_exclusions.txt	LTP247	ltpFR	12	2	1	SHARK	1275	n/a	n/a	1	n/a	0	0	0	n/a	n/a	n/a	n/a	n/a
458836	REC_WORD	wordpools/wasnorm_wordpool_less_exclusions.txt	LTP247	ltpFR	12	2	0	FARM	552	n/a	n/a	1	n/a	0	0	0	n/a	n/a	n/a	n/a	n/a
460035	REC_WORD	wordpools/wasnorm_wordpool_less_exclusions.txt	LTP247	ltpFR	12	2	1	BEAR	106	n/a	n/a	1	n/a	0	0	0	n/a	n/a	n/a	n/a	n/a
460913	REC_WORD	wordpools/wasnorm_wordpool_less_exclusions.txt	LTP247	ltpFR	12	2	1	BEAST	108	n/a	n/a	1	n/a	0	0	0	n/a	n/a	n/a	n/a	n/a
462051	REC_WORD	wordpools/wasnorm_wordpool_less_exclusions.txt	LTP247	ltpFR	12	2	0	BUTTER	205	n/a	n/a	0	n/a	0	0	0	n/a	n/a	n/a	n/a	n/a
462983	REC_WORD	wordpools/wasnorm_wordpool_less_exclusions.txt	LTP247	ltpFR	12	2	0	NOSE	957	n/a	n/a	0	n/a	0	0	0	n/a	n/a	n/a	n/a	n/a
464136	REC_WORD	wordpools/wasnorm_wordpool_less_exclusions.txt	LTP247	ltpFR	12	2	0	TICKET	1464	n/a	n/a	0	n/a	0	0	0	n/a	n/a	n/a	n/a	n/a
530667	START	n/a	LTP247	ltpFR	12	n/a	n/a	n/a	n/a	n/a	n/a	n/a	n/a	n/a	n/a	n/a	n/a	n/a	n/a	n/a	n/a
532172	PROB	n/a	LTP247	ltpFR	12	n/a	n/a	n/a	n/a	n/a	n/a	n/a	17	7	8	2	n/a	n/a	n/a	n/a	n/a
533946	PROB	n/a	LTP247	ltpFR	12	n/a	n/a	n/a	n/a	n/a	n/a	n/a	14	5	7	2	n/a	n/a	n/a	n/a	n/a
535933	PROB	n/a	LTP247	ltpFR	12	n/a	n/a	n/a	n/a	n/a	n/a	n/a	18	9	7	2	n/a	n/a	n/a	n/a	n/a
537388	PROB	n/a	LTP247	ltpFR	12	n/a	n/a	n/a	n/a	n/a	n/a	n/a	11	6	2	3	n/a	n/a	n/a	n/a	n/a
538898	PROB	n/a	LTP247	ltpFR	12	n/a	n/a	n/a	n/a	n/a	n/a	n/a	15	6	3	6	n/a	n/a	n/a	n/a	n/a
540618	PROB	n/a	LTP247	ltpFR	12	n/a	n/a	n/a	n/a	n/a	n/a	n/a	12	5	6	1	n/a	n/a	n/a	n/a	n/a
542093	PROB	n/a	LTP247	ltpFR	12	n/a	n/a	n/a	n/a	n/a	n/a	n/a	16	6	9	1	n/a	n/a	n/a	n/a	n/a
543427	PROB	n/a	LTP247	ltpFR	12	n/a	n/a	n/a	n/a	n/a	n/a	n/a	24	9	7	8	n/a	n/a	n/a	n/a	n/a
545104	PROB	n/a	LTP247	ltpFR	12	n/a	n/a	n/a	n/a	n/a	n/a	n/a	7	1	2	4	n/a	n/a	n/a	n/a	n/a
546459	STOP	n/a	LTP247	ltpFR	12	n/a	n/a	n/a	n/a	n/a	n/a	n/a	n/a	n/a	n/a	n/a	n/a	n/a	n/a	n/a	n/a
547512	WORD	wordpools/wasnorm_wordpool_less_exclusions.txt	LTP247	ltpFR	12	3	1	DOLL	481	n/a	n/a	0	n/a	0	0	0	0.422607421875	0.5869140625	0	lower	amplitud.ttf
550525	START	n/a	LTP247	ltpFR	12	n/a	n/a	n/a	n/a	n/a	n/a	n/a	n/a	n/a	n/a	n/a	n/a	n/a	n/a	n/a	n/a
551629	PROB	n/a	LTP247	ltpFR	12	n/a	n/a	n/a	n/a	n/a	n/a	n/a	11	6	1	4	n/a	n/a	n/a	n/a	n/a
553365	PROB	n/a	LTP247	ltpFR	12	n/a	n/a	n/a	n/a	n/a	n/a	n/a	18	6	7	5	n/a	n/a	n/a	n/a	n/a
554791	PROB	n/a	LTP247	ltpFR	12	n/a	n/a	n/a	n/a	n/a	n/a	n/a	15	6	7	2	n/a	n/a	n/a	n/a	n/a
556280	PROB	n/a	LTP247	ltpFR	12	n/a	n/a	n/a	n/a	n/a	n/a	n/a	19	9	8	2	n/a	n/a	n/a	n/a	n/a
557585	PROB	n/a	LTP247	ltpFR	12	n/a	n/a	n/a	n/a	n/a	n/a	n/a	8	1	2	5	n/a	n/a	n/a	n/a	n/a
558953	PROB	n/a	LTP247	ltpFR	12	n/a	n/a	n/a	n/a	n/a	n/a	n/a	20	9	6	5	n/a	n/a	n/a	n/a	n/a
560511	PROB	n/a	LTP247	ltpFR	12	n/a	n/a	n/a	n/a	n/a	n/a	n/a	19	6	8	5	n/a	n/a	n/a	n/a	n/a
562519	PROB	n/a	LTP247	ltpFR	12	n/a	n/a	n/a	n/a	n/a	n/a	n/a	14	6	6	2	n/a	n/a	n/a	n/a	n/a
563922	PROB	n/a	LTP247	ltpFR	12	n/a	n/a	n/a	n/a	n/a	n/a	n/a	22	9	7	6	n/a	n/a	n/a	n/a	n/a
565363	STOP	n/a	LTP247	ltpFR	12	n/a	n/a	n/a	n/a	n/a	n/a	n/a	n/a	n/a	n/a	n/a	n/a	n/a	n/a	n/a	n/a
567421	WORD	wordpools/wasnorm_wordpool_less_exclusions.txt	LTP247	ltpFR	12	3	1	FARMER	553	n/a	n/a	1	n/a	0	0	0	0.422607421875	0.5869140625	0	lower	amplitud.ttf
570433	START	n/a	LTP247	ltpFR	12	n/a	n/a	n/a	n/a	n/a	n/a	n/a	n/a	n/a	n/a	n/a	n/a	n/a	n/a	n/a	n/a
571571	PROB	n/a	LTP247	ltpFR	12	n/a	n/a	n/a	n/a	n/a	n/a	n/a	20	8	5	7	n/a	n/a	n/a	n/a	n/a
574344	PROB	n/a	LTP247	ltpFR	12	n/a	n/a	n/a	n/a	n/a	n/a	n/a	16	4	7	5	n/a	n/a	n/a	n/a	n/a
576289	PROB	n/a	LTP247	ltpFR	12	n/a	n/a	n/a	n/a	n/a	n/a	n/a	12	6	3	3	n/a	n/a	n/a	n/a	n/a
577911	PROB	n/a	LTP247	ltpFR	12	n/a	n/a	n/a	n/a	n/a	n/a	n/a	8	3	4	1	n/a	n/a	n/a	n/a	n/a
579366	PROB	n/a	LTP247	ltpFR	12	n/a	n/a	n/a	n/a	n/a	n/a	n/a	18	8	5	5	n/a	n/a	n/a	n/a	n/a
581073	PROB	n/a	LTP247	ltpFR	12	n/a	n/a	n/a	n/a	n/a	n/a	n/a	5	2	2	1	n/a	n/a	n/a	n/a	n/a
582494	PROB	n/a	LTP247	ltpFR	12	n/a	n/a	n/a	n/a	n/a	n/a	n/a	16	6	4	6	n/a	n/a	n/a	n/a	n/a
584285	PROB	n/a	LTP247	ltpFR	12	n/a	n/a	n/a	n/a	n/a	n/a	n/a	18	2	7	9	n/a	n/a	n/a	n/a	n/a
586044	STOP	n/a	LTP247	ltpFR	12	n/a	n/a	n/a	n/a	n/a	n/a	n/a	n/a	n/a	n/a	n/a	n/a	n/a	n/a	n/a	n/a
587312	WORD	wordpools/wasnorm_wordpool_less_exclusions.txt	LTP247	ltpFR	12	3	1	PITCHFORK	1078	n/a	n/a	0	n/a	0	0	0	0.422607421875	0.5869140625	0	lower	amplitud.ttf
590324	START	n/a	LTP247	ltpFR	12	n/a	n/a	n/a	n/a	n/a	n/a	n/a	n/a	n/a	n/a	n/a	n/a	n/a	n/a	n/a	n/a
591478	PROB	n/a	LTP247	ltpFR	12	n/a	n/a	n/a	n/a	n/a	n/a	n/a	6	2	1	3	n/a	n/a	n/a	n/a	n/a
592831	PROB	n/a	LTP247	ltpFR	12	n/a	n/a	n/a	n/a	n/a	n/a	n/a	7	2	3	2	n/a	n/a	n/a	n/a	n/a
594386	PROB	n/a	LTP247	ltpFR	12	n/a	n/a	n/a	n/a	n/a	n/a	n/a	22	9	6	7	n/a	n/a	n/a	n/a	n/a
595725	PROB	n/a	LTP247	ltpFR	12	n/a	n/a	n/a	n/a	n/a	n/a	n/a	11	8	2	1	n/a	n/a	n/a	n/a	n/a
596966	PROB	n/a	LTP247	ltpFR	12	n/a	n/a	n/a	n/a	n/a	n/a	n/a	13	5	1	7	n/a	n/a	n/a	n/a	n/a
598823	PROB	n/a	LTP247	ltpFR	12	n/a	n/a	n/a	n/a	n/a	n/a	n/a	5	1	1	3	n/a	n/a	n/a	n/a	n/a
600362	PROB	n/a	LTP247	ltpFR	12	n/a	n/a	n/a	n/a	n/a	n/a	n/a	23	7	8	8	n/a	n/a	n/a	n/a	n/a
602568	PROB	n/a	LTP247	ltpFR	12	n/a	n/a	n/a	n/a	n/a	n/a	n/a	14	2	3	9	n/a	n/a	n/a	n/a	n/a
606324	STOP	n/a	LTP247	ltpFR	12	n/a	n/a	n/a	n/a	n/a	n/a	n/a	n/a	n/a	n/a	n/a	n/a	n/a	n/a	n/a	n/a
607402	WORD	wordpools/wasnorm_wordpool_less_exclusions.txt	LTP247	ltpFR	12	3	0	CALENDAR	221	n/a	n/a	0	n/a	0	0	0	0.57763671875	0.412841796875	1	upper	zerothre.ttf
610417	START	n/a	LTP247	ltpFR	12	n/a	n/a	n/a	n/a	n/a	n/a	n/a	n/a	n/a	n/a	n/a	n/a	n/a	n/a	n/a	n/a
611320	PROB	n/a	LTP247	ltpFR	12	n/a	n/a	n/a	n/a	n/a	n/a	n/a	23	9	9	5	n/a	n/a	n/a	n/a	n/a
612890	PROB	n/a	LTP247	ltpFR	12	n/a	n/a	n/a	n/a	n/a	n/a	n/a	21	5	8	8	n/a	n/a	n/a	n/a	n/a
615101	PROB	n/a	LTP247	ltpFR	12	n/a	n/a	n/a	n/a	n/a	n/a	n/a	16	3	5	8	n/a	n/a	n/a	n/a	n/a
616905	PROB	n/a	LTP247	ltpFR	12	n/a	n/a	n/a	n/a	n/a	n/a	n/a	23	8	7	8	n/a	n/a	n/a	n/a	n/a
619033	PROB	n/a	LTP247	ltpFR	12	n/a	n/a	n/a	n/a	n/a	n/a	n/a	16	2	6	8	n/a	n/a	n/a	n/a	n/a
621321	PROB	n/a	LTP247	ltpFR	12	n/a	n/a	n/a	n/a	n/a	n/a	n/a	7	3	2	2	n/a	n/a	n/a	n/a	n/a
622794	PROB	n/a	LTP247	ltpFR	12	n/a	n/a	n/a	n/a	n/a	n/a	n/a	19	6	8	5	n/a	n/a	n/a	n/a	n/a
624844	STOP	n/a	LTP247	ltpFR	12	n/a	n/a	n/a	n/a	n/a	n/a	n/a	n/a	n/a	n/a	n/a	n/a	n/a	n/a	n/a	n/a
627363	WORD	wordpools/wasnorm_wordpool_less_exclusions.txt	LTP247	ltpFR	12	3	0	BRICK	172	n/a	n/a	0	n/a	0	0	0	0.57763671875	0.412841796875	1	upper	zerothre.ttf
630375	START	n/a	LTP247	ltpFR	12	n/a	n/a	n/a	n/a	n/a	n/a	n/a	n/a	n/a	n/a	n/a	n/a	n/a	n/a	n/a	n/a
631564	PROB	n/a	LTP247	ltpFR	12	n/a	n/a	n/a	n/a	n/a	n/a	n/a	22	4	9	9	n/a	n/a	n/a	n/a	n/a
633116	PROB	n/a	LTP247	ltpFR	12	n/a	n/a	n/a	n/a	n/a	n/a	n/a	16	9	5	2	n/a	n/a	n/a	n/a	n/a
634672	PROB	n/a	LTP247	ltpFR	12	n/a	n/a	n/a	n/a	n/a	n/a	n/a	20	5	8	7	n/a	n/a	n/a	n/a	n/a
636245	PROB	n/a	LTP247	ltpFR	12	n/a	n/a	n/a	n/a	n/a	n/a	n/a	19	7	9	3	n/a	n/a	n/a	n/a	n/a
637720	PROB	n/a	LTP247	ltpFR	12	n/a	n/a	n/a	n/a	n/a	n/a	n/a	19	8	6	5	n/a	n/a	n/a	n/a	n/a
639159	PROB	n/a	LTP247	ltpFR	12	n/a	n/a	n/a	n/a	n/a	n/a	n/a	13	4	8	1	n/a	n/a	n/a	n/a	n/a
641197	PROB	n/a	LTP247	ltpFR	12	n/a	n/a	n/a	n/a	n/a	n/a	n/a	18	8	2	8	n/a	n/a	n/a	n/a	n/a
642786	PROB	n/a	LTP247	ltpFR	12	n/a	n/a	n/a	n/a	n/a	n/a	n/a	18	2	7	9	n/a	n/a	n/a	n/a	n/a
644141	PROB	n/a	LTP247	ltpFR	12	n/a	n/a	n/a	n/a	n/a	n/a	n/a	10	3	4	3	n/a	n/a	n/a	n/a	n/a
645532	STOP	n/a	LTP247	ltpFR	12	n/a	n/a	n/a	n/a	n/a	n/a	n/a	n/a	n/a	n/a	n/a	n/a	n/a	n/a	n/a	n/a
647506	WORD	wordpools/wasnorm_wordpool_less_exclusions.txt	LTP247	ltpFR	12	3	0	SARDINE	1235	n/a	n/a	0	n/a	0	0	0	0.57763671875	0.412841796875	1	upper	zerothre.ttf
650518	START	n/a	LTP247	ltpFR	12	n/a	n/a	n/a	n/a	n/a	n/a	n/a	n/a	n/a	n/a	n/a	n/a	n/a	n/a	n/a	n/a
651723	PROB	n/a	LTP247	ltpFR	12	n/a	n/a	n/a	n/a	n/a	n/a	n/a	9	4	1	4	n/a	n/a	n/a	n/a	n/a
653125	PROB	n/a	LTP247	ltpFR	12	n/a	n/a	n/a	n/a	n/a	n/a	n/a	15	5	3	7	n/a	n/a	n/a	n/a	n/a
654798	PROB	n/a	LTP247	ltpFR	12	n/a	n/a	n/a	n/a	n/a	n/a	n/a	15	4	7	4	n/a	n/a	n/a	n/a	n/a
656336	PROB	n/a	LTP247	ltpFR	12	n/a	n/a	n/a	n/a	n/a	n/a	n/a	21	7	6	8	n/a	n/a	n/a	n/a	n/a
658313	PROB	n/a	LTP247	ltpFR	12	n/a	n/a	n/a	n/a	n/a	n/a	n/a	15	8	3	4	n/a	n/a	n/a	n/a	n/a
659887	PROB	n/a	LTP247	ltpFR	12	n/a	n/a	n/a	n/a	n/a	n/a	n/a	15	9	2	4	n/a	n/a	n/a	n/a	n/a
661841	PROB	n/a	LTP247	ltpFR	12	n/a	n/a	n/a	n/a	n/a	n/a	n/a	24	6	9	9	n/a	n/a	n/a	n/a	n/a
666518	STOP	n/a	LTP247	ltpFR	12	n/a	n/a	n/a	n/a	n/a	n/a	n/a	n/a	n/a	n/a	n/a	n/a	n/a	n/a	n/a	n/a
667713	WORD	wordpools/wasnorm_wordpool_less_exclusions.txt	LTP247	ltpFR	12	3	0	COMMUNITY	356	n/a	n/a	1	n/a	0	0	0	0.57763671875	0.412841796875	1	upper	zerothre.ttf
670728	START	n/a	LTP247	ltpFR	12	n/a	n/a	n/a	n/a	n/a	n/a	n/a	n/a	n/a	n/a	n/a	n/a	n/a	n/a	n/a	n/a
671695	PROB	n/a	LTP247	ltpFR	12	n/a	n/a	n/a	n/a	n/a	n/a	n/a	9	5	3	1	n/a	n/a	n/a	n/a	n/a
673134	PROB	n/a	LTP247	ltpFR	12	n/a	n/a	n/a	n/a	n/a	n/a	n/a	15	5	4	6	n/a	n/a	n/a	n/a	n/a
675208	PROB	n/a	LTP247	ltpFR	12	n/a	n/a	n/a	n/a	n/a	n/a	n/a	24	9	9	6	n/a	n/a	n/a	n/a	n/a
677182	PROB	n/a	LTP247	ltpFR	12	n/a	n/a	n/a	n/a	n/a	n/a	n/a	16	3	4	9	n/a	n/a	n/a	n/a	n/a
679026	PROB	n/a	LTP247	ltpFR	12	n/a	n/a	n/a	n/a	n/a	n/a	n/a	11	5	5	1	n/a	n/a	n/a	n/a	n/a
680343	PROB	n/a	LTP247	ltpFR	12	n/a	n/a	n/a	n/a	n/a	n/a	n/a	15	5	6	4	n/a	n/a	n/a	n/a	n/a
681783	PROB	n/a	LTP247	ltpFR	12	n/a	n/a	n/a	n/a	n/a	n/a	n/a	12	3	5	4	n/a	n/a	n/a	n/a	n/a
683540	PROB	n/a	LTP247	ltpFR	12	n/a	n/a	n/a	n/a	n/a	n/a	n/a	15	6	6	3	n/a	n/a	n/a	n/a	n/a
684998	PROB	n/a	LTP247	ltpFR	12	n/a	n/a	n/a	n/a	n/a	n/a	n/a	12	2	9	1	n/a	n/a	n/a	n/a	n/a
686515	STOP	n/a	LTP247	ltpFR	12	n/a	n/a	n/a	n/a	n/a	n/a	n/a	n/a	n/a	n/a	n/a	n/a	n/a	n/a	n/a	n/a
687759	WORD	wordpools/wasnorm_wordpool_less_exclusions.txt	LTP247	ltpFR	12	3	1	HIGHWAY	707	n/a	n/a	0	n/a	0	0	0	0.422607421875	0.5869140625	0	lower	amplitud.ttf
690770	START	n/a	LTP247	ltpFR	12	n/a	n/a	n/a	n/a	n/a	n/a	n/a	n/a	n/a	n/a	n/a	n/a	n/a	n/a	n/a	n/a
691938	PROB	n/a	LTP247	ltpFR	12	n/a	n/a	n/a	n/a	n/a	n/a	n/a	5	1	1	3	n/a	n/a	n/a	n/a	n/a
693193	PROB	n/a	LTP247	ltpFR	12	n/a	n/a	n/a	n/a	n/a	n/a	n/a	13	4	5	4	n/a	n/a	n/a	n/a	n/a
694986	PROB	n/a	LTP247	ltpFR	12	n/a	n/a	n/a	n/a	n/a	n/a	n/a	12	8	2	2	n/a	n/a	n/a	n/a	n/a
696539	PROB	n/a	LTP247	ltpFR	12	n/a	n/a	n/a	n/a	n/a	n/a	n/a	9	2	5	2	n/a	n/a	n/a	n/a	n/a
697961	PROB	n/a	LTP247	ltpFR	12	n/a	n/a	n/a	n/a	n/a	n/a	n/a	12	6	2	4	n/a	n/a	n/a	n/a	n/a
699499	PROB	n/a	LTP247	ltpFR	12	n/a	n/a	n/a	n/a	n/a	n/a	n/a	24	9	7	8	n/a	n/a	n/a	n/a	n/a
701273	PROB	n/a	LTP247	ltpFR	12	n/a	n/a	n/a	n/a	n/a	n/a	n/a	14	4	9	1	n/a	n/a	n/a	n/a	n/a
702846	PROB	n/a	LTP247	ltpFR	12	n/a	n/a	n/a	n/a	n/a	n/a	n/a	15	1	6	8	n/a	n/a	n/a	n/a	n/a
704484	PROB	n/a	LTP247	ltpFR	12	n/a	n/a	n/a	n/a	n/a	n/a	n/a	10	8	1	1	n/a	n/a	n/a	n/a	n/a
706451	STOP	n/a	LTP247	ltpFR	12	n/a	n/a	n/a	n/a	n/a	n/a	n/a	n/a	n/a	n/a	n/a	n/a	n/a	n/a	n/a	n/a
707918	WORD	wordpools/wasnorm_wordpool_less_exclusions.txt	LTP247	ltpFR	12	3	1	ALLIGATOR	16	n/a	n/a	1	n/a	0	0	0	0.422607421875	0.5869140625	0	lower	amplitud.ttf
710930	START	n/a	LTP247	ltpFR	12	n/a	n/a	n/a	n/a	n/a	n/a	n/a	n/a	n/a	n/a	n/a	n/a	n/a	n/a	n/a	n/a
712097	PROB	n/a	LTP247	ltpFR	12	n/a	n/a	n/a	n/a	n/a	n/a	n/a	11	2	8	1	n/a	n/a	n/a	n/a	n/a
713285	PROB	n/a	LTP247	ltpFR	12	n/a	n/a	n/a	n/a	n/a	n/a	n/a	12	5	6	1	n/a	n/a	n/a	n/a	n/a
714727	PROB	n/a	LTP247	ltpFR	12	n/a	n/a	n/a	n/a	n/a	n/a	n/a	13	4	7	2	n/a	n/a	n/a	n/a	n/a
716446	PROB	n/a	LTP247	ltpFR	12	n/a	n/a	n/a	n/a	n/a	n/a	n/a	10	8	1	1	n/a	n/a	n/a	n/a	n/a
718003	PROB	n/a	LTP247	ltpFR	12	n/a	n/a	n/a	n/a	n/a	n/a	n/a	6	1	4	1	n/a	n/a	n/a	n/a	n/a
719542	PROB	n/a	LTP247	ltpFR	12	n/a	n/a	n/a	n/a	n/a	n/a	n/a	14	8	1	5	n/a	n/a	n/a	n/a	n/a
721118	PROB	n/a	LTP247	ltpFR	12	n/a	n/a	n/a	n/a	n/a	n/a	n/a	23	7	7	9	n/a	n/a	n/a	n/a	n/a
723325	PROB	n/a	LTP247	ltpFR	12	n/a	n/a	n/a	n/a	n/a	n/a	n/a	20	7	8	5	n/a	n/a	n/a	n/a	n/a
724879	PROB	n/a	LTP247	ltpFR	12	n/a	n/a	n/a	n/a	n/a	n/a	n/a	12	1	3	8	n/a	n/a	n/a	n/a	n/a
726700	STOP	n/a	LTP247	ltpFR	12	n/a	n/a	n/a	n/a	n/a	n/a	n/a	n/a	n/a	n/a	n/a	n/a	n/a	n/a	n/a	n/a
727823	WORD	wordpools/wasnorm_wordpool_less_exclusions.txt	LTP247	ltpFR	12	3	0	RAM	1165	n/a	n/a	1	n/a	0	0	0	0.57763671875	0.412841796875	1	upper	zerothre.ttf
730838	START	n/a	LTP247	ltpFR	12	n/a	n/a	n/a	n/a	n/a	n/a	n/a	n/a	n/a	n/a	n/a	n/a	n/a	n/a	n/a	n/a
732006	PROB	n/a	LTP247	ltpFR	12	n/a	n/a	n/a	n/a	n/a	n/a	n/a	18	2	9	7	n/a	n/a	n/a	n/a	n/a
733615	PROB	n/a	LTP247	ltpFR	12	n/a	n/a	n/a	n/a	n/a	n/a	n/a	15	2	6	7	n/a	n/a	n/a	n/a	n/a
736121	PROB	n/a	LTP247	ltpFR	12	n/a	n/a	n/a	n/a	n/a	n/a	n/a	11	2	5	4	n/a	n/a	n/a	n/a	n/a
737878	PROB	n/a	LTP247	ltpFR	12	n/a	n/a	n/a	n/a	n/a	n/a	n/a	19	8	6	5	n/a	n/a	n/a	n/a	n/a
739433	PROB	n/a	LTP247	ltpFR	12	n/a	n/a	n/a	n/a	n/a	n/a	n/a	11	3	2	6	n/a	n/a	n/a	n/a	n/a
740792	PROB	n/a	LTP247	ltpFR	12	n/a	n/a	n/a	n/a	n/a	n/a	n/a	22	7	7	8	n/a	n/a	n/a	n/a	n/a
742511	PROB	n/a	LTP247	ltpFR	12	n/a	n/a	n/a	n/a	n/a	n/a	n/a	17	6	5	6	n/a	n/a	n/a	n/a	n/a
744054	PROB	n/a	LTP247	ltpFR	12	n/a	n/a	n/a	n/a	n/a	n/a	n/a	10	4	2	4	n/a	n/a	n/a	n/a	n/a
746204	STOP	n/a	LTP247	ltpFR	12	n/a	n/a	n/a	n/a	n/a	n/a	n/a	n/a	n/a	n/a	n/a	n/a	n/a	n/a	n/a	n/a
747681	WORD	wordpools/wasnorm_wordpool_less_exclusions.txt	LTP247	ltpFR	12	3	0	SERVANT	1271	n/a	n/a	1	n/a	0	0	0	0.57763671875	0.412841796875	1	upper	zerothre.ttf
750696	START	n/a	LTP247	ltpFR	12	n/a	n/a	n/a	n/a	n/a	n/a	n/a	n/a	n/a	n/a	n/a	n/a	n/a	n/a	n/a	n/a
751733	PROB	n/a	LTP247	ltpFR	12	n/a	n/a	n/a	n/a	n/a	n/a	n/a	18	4	7	7	n/a	n/a	n/a	n/a	n/a
753604	PROB	n/a	LTP247	ltpFR	12	n/a	n/a	n/a	n/a	n/a	n/a	n/a	18	8	6	3	n/a	n/a	n/a	n/a	n/a
755012	PROB	n/a	LTP247	ltpFR	12	n/a	n/a	n/a	n/a	n/a	n/a	n/a	15	4	4	7	n/a	n/a	n/a	n/a	n/a
757870	PROB	n/a	LTP247	ltpFR	12	n/a	n/a	n/a	n/a	n/a	n/a	n/a	15	7	7	1	n/a	n/a	n/a	n/a	n/a
759576	PROB	n/a	LTP247	ltpFR	12	n/a	n/a	n/a	n/a	n/a	n/a	n/a	18	6	7	5	n/a	n/a	n/a	n/a	n/a
761365	PROB	n/a	LTP247	ltpFR	12	n/a	n/a	n/a	n/a	n/a	n/a	n/a	21	3	9	9	n/a	n/a	n/a	n/a	n/a
763490	PROB	n/a	LTP247	ltpFR	12	n/a	n/a	n/a	n/a	n/a	n/a	n/a	12	4	7	1	n/a	n/a	n/a	n/a	n/a
764930	PROB	n/a	LTP247	ltpFR	12	n/a	n/a	n/a	n/a	n/a	n/a	n/a	9	3	2	4	n/a	n/a	n/a	n/a	n/a
766276	STOP	n/a	LTP247	ltpFR	12	n/a	n/a	n/a	n/a	n/a	n/a	n/a	n/a	n/a	n/a	n/a	n/a	n/a	n/a	n/a	n/a
767911	WORD	wordpools/wasnorm_wordpool_less_exclusions.txt	LTP247	ltpFR	12	3	0	GOO	648	n/a	n/a	0	n/a	0	0	0	0.57763671875	0.412841796875	1	upper	zerothre.ttf
770923	START	n/a	LTP247	ltpFR	12	n/a	n/a	n/a	n/a	n/a	n/a	n/a	n/a	n/a	n/a	n/a	n/a	n/a	n/a	n/a	n/a
772093	PROB	n/a	LTP247	ltpFR	12	n/a	n/a	n/a	n/a	n/a	n/a	n/a	12	2	1	9	n/a	n/a	n/a	n/a	n/a
773813	PROB	n/a	LTP247	ltpFR	12	n/a	n/a	n/a	n/a	n/a	n/a	n/a	8	1	4	3	n/a	n/a	n/a	n/a	n/a
775235	PROB	n/a	LTP247	ltpFR	12	n/a	n/a	n/a	n/a	n/a	n/a	n/a	19	3	9	7	n/a	n/a	n/a	n/a	n/a
777075	PROB	n/a	LTP247	ltpFR	12	n/a	n/a	n/a	n/a	n/a	n/a	n/a	14	5	1	8	n/a	n/a	n/a	n/a	n/a
778949	PROB	n/a	LTP247	ltpFR	12	n/a	n/a	n/a	n/a	n/a	n/a	n/a	15	5	4	6	n/a	n/a	n/a	n/a	n/a
780739	PROB	n/a	LTP247	ltpFR	12	n/a	n/a	n/a	n/a	n/a	n/a	n/a	16	4	6	6	n/a	n/a	n/a	n/a	n/a
782344	PROB	n/a	LTP247	ltpFR	12	n/a	n/a	n/a	n/a	n/a	n/a	n/a	17	8	5	4	n/a	n/a	n/a	n/a	n/a
783821	PROB	n/a	LTP247	ltpFR	12	n/a	n/a	n/a	n/a	n/a	n/a	n/a	12	3	5	4	n/a	n/a	n/a	n/a	n/a
785189	PROB	n/a	LTP247	ltpFR	12	n/a	n/a	n/a	n/a	n/a	n/a	n/a	15	3	8	4	n/a	n/a	n/a	n/a	n/a
786692	STOP	n/a	LTP247	ltpFR	12	n/a	n/a	n/a	n/a	n/a	n/a	n/a	n/a	n/a	n/a	n/a	n/a	n/a	n/a	n/a	n/a
787752	WORD	wordpools/wasnorm_wordpool_less_exclusions.txt	LTP247	ltpFR	12	3	0	BABY	64	n/a	n/a	0	n/a	0	0	0	0.57763671875	0.412841796875	1	upper	zerothre.ttf
790764	START	n/a	LTP247	ltpFR	12	n/a	n/a	n/a	n/a	n/a	n/a	n/a	n/a	n/a	n/a	n/a	n/a	n/a	n/a	n/a	n/a
791951	PROB	n/a	LTP247	ltpFR	12	n/a	n/a	n/a	n/a	n/a	n/a	n/a	9	1	6	2	n/a	n/a	n/a	n/a	n/a
793456	PROB	n/a	LTP247	ltpFR	12	n/a	n/a	n/a	n/a	n/a	n/a	n/a	13	8	4	1	n/a	n/a	n/a	n/a	n/a
795080	PROB	n/a	LTP247	ltpFR	12	n/a	n/a	n/a	n/a	n/a	n/a	n/a	19	6	6	7	n/a	n/a	n/a	n/a	n/a
796666	PROB	n/a	LTP247	ltpFR	12	n/a	n/a	n/a	n/a	n/a	n/a	n/a	13	2	5	6	n/a	n/a	n/a	n/a	n/a
798289	PROB	n/a	LTP247	ltpFR	12	n/a	n/a	n/a	n/a	n/a	n/a	n/a	17	3	8	6	n/a	n/a	n/a	n/a	n/a
799995	PROB	n/a	LTP247	ltpFR	12	n/a	n/a	n/a	n/a	n/a	n/a	n/a	15	4	8	3	n/a	n/a	n/a	n/a	n/a
801537	PROB	n/a	LTP247	ltpFR	12	n/a	n/a	n/a	n/a	n/a	n/a	n/a	11	4	4	3	n/a	n/a	n/a	n/a	n/a
802889	PROB	n/a	LTP247	ltpFR	12	n/a	n/a	n/a	n/a	n/a	n/a	n/a	17	8	3	6	n/a	n/a	n/a	n/a	n/a
804261	PROB	n/a	LTP247	ltpFR	12	n/a	n/a	n/a	n/a	n/a	n/a	n/a	12	5	3	4	n/a	n/a	n/a	n/a	n/a
805676	STOP	n/a	LTP247	ltpFR	12	n/a	n/a	n/a	n/a	n/a	n/a	n/a	n/a	n/a	n/a	n/a	n/a	n/a	n/a	n/a	n/a
807794	WORD	wordpools/wasnorm_wordpool_less_exclusions.txt	LTP247	ltpFR	12	3	1	STREET	1393	n/a	n/a	0	n/a	0	0	0	0.422607421875	0.5869140625	0	lower	amplitud.ttf
810806	START	n/a	LTP247	ltpFR	12	n/a	n/a	n/a	n/a	n/a	n/a	n/a	n/a	n/a	n/a	n/a	n/a	n/a	n/a	n/a	n/a
811843	PROB	n/a	LTP247	ltpFR	12	n/a	n/a	n/a	n/a	n/a	n/a	n/a	16	5	9	2	n/a	n/a	n/a	n/a	n/a
813448	PROB	n/a	LTP247	ltpFR	12	n/a	n/a	n/a	n/a	n/a	n/a	n/a	16	4	9	3	n/a	n/a	n/a	n/a	n/a
815369	PROB	n/a	LTP247	ltpFR	12	n/a	n/a	n/a	n/a	n/a	n/a	n/a	19	9	6	4	n/a	n/a	n/a	n/a	n/a
817093	PROB	n/a	LTP247	ltpFR	12	n/a	n/a	n/a	n/a	n/a	n/a	n/a	8	4	3	1	n/a	n/a	n/a	n/a	n/a
818284	PROB	n/a	LTP247	ltpFR	12	n/a	n/a	n/a	n/a	n/a	n/a	n/a	2	9	8	6	n/a	n/a	n/a	n/a	n/a
820158	PROB	n/a	LTP247	ltpFR	12	n/a	n/a	n/a	n/a	n/a	n/a	n/a	13	3	7	3	n/a	n/a	n/a	n/a	n/a
822831	PROB	n/a	LTP247	ltpFR	12	n/a	n/a	n/a	n/a	n/a	n/a	n/a	16	4	8	4	n/a	n/a	n/a	n/a	n/a
824503	PROB	n/a	LTP247	ltpFR	12	n/a	n/a	n/a	n/a	n/a	n/a	n/a	11	2	8	1	n/a	n/a	n/a	n/a	n/a
825668	STOP	n/a	LTP247	ltpFR	12	n/a	n/a	n/a	n/a	n/a	n/a	n/a	n/a	n/a	n/a	n/a	n/a	n/a	n/a	n/a	n/a
827703	WORD	wordpools/wasnorm_wordpool_less_exclusions.txt	LTP247	ltpFR	12	3	1	FLIPPER	580	n/a	n/a	0	n/a	0	0	0	0.422607421875	0.5869140625	0	lower	amplitud.ttf
830715	START	n/a	LTP247	ltpFR	12	n/a	n/a	n/a	n/a	n/a	n/a	n/a	n/a	n/a	n/a	n/a	n/a	n/a	n/a	n/a	n/a
831751	PROB	n/a	LTP247	ltpFR	12	n/a	n/a	n/a	n/a	n/a	n/a	n/a	7	3	1	2	n/a	n/a	n/a	n/a	n/a
833304	PROB	n/a	LTP247	ltpFR	12	n/a	n/a	n/a	n/a	n/a	n/a	n/a	21	7	5	9	n/a	n/a	n/a	n/a	n/a
837871	PROB	n/a	LTP247	ltpFR	12	n/a	n/a	n/a	n/a	n/a	n/a	n/a	18	3	8	7	n/a	n/a	n/a	n/a	n/a
839296	PROB	n/a	LTP247	ltpFR	12	n/a	n/a	n/a	n/a	n/a	n/a	n/a	12	6	3	3	n/a	n/a	n/a	n/a	n/a
840983	PROB	n/a	LTP247	ltpFR	12	n/a	n/a	n/a	n/a	n/a	n/a	n/a	23	5	9	9	n/a	n/a	n/a	n/a	n/a
842773	PROB	n/a	LTP247	ltpFR	12	n/a	n/a	n/a	n/a	n/a	n/a	n/a	18	7	3	8	n/a	n/a	n/a	n/a	n/a
844734	PROB	n/a	LTP247	ltpFR	12	n/a	n/a	n/a	n/a	n/a	n/a	n/a	20	9	5	6	n/a	n/a	n/a	n/a	n/a
846196	STOP	n/a	LTP247	ltpFR	12	n/a	n/a	n/a	n/a	n/a	n/a	n/a	n/a	n/a	n/a	n/a	n/a	n/a	n/a	n/a	n/a
847762	WORD	wordpools/wasnorm_wordpool_less_exclusions.txt	LTP247	ltpFR	12	3	1	KEEPER	769	n/a	n/a	0	n/a	0	0	0	0.422607421875	0.5869140625	0	lower	amplitud.ttf
850773	START	n/a	LTP247	ltpFR	12	n/a	n/a	n/a	n/a	n/a	n/a	n/a	n/a	n/a	n/a	n/a	n/a	n/a	n/a	n/a	n/a
851861	PROB	n/a	LTP247	ltpFR	12	n/a	n/a	n/a	n/a	n/a	n/a	n/a	20	7	5	8	n/a	n/a	n/a	n/a	n/a
853798	PROB	n/a	LTP247	ltpFR	12	n/a	n/a	n/a	n/a	n/a	n/a	n/a	12	8	3	1	n/a	n/a	n/a	n/a	n/a
855842	PROB	n/a	LTP247	ltpFR	12	n/a	n/a	n/a	n/a	n/a	n/a	n/a	17	9	5	3	n/a	n/a	n/a	n/a	n/a
857327	PROB	n/a	LTP247	ltpFR	12	n/a	n/a	n/a	n/a	n/a	n/a	n/a	20	6	8	6	n/a	n/a	n/a	n/a	n/a
858834	PROB	n/a	LTP247	ltpFR	12	n/a	n/a	n/a	n/a	n/a	n/a	n/a	12	7	1	4	n/a	n/a	n/a	n/a	n/a
860707	PROB	n/a	LTP247	ltpFR	12	n/a	n/a	n/a	n/a	n/a	n/a	n/a	12	1	8	3	n/a	n/a	n/a	n/a	n/a
862567	PROB	n/a	LTP247	ltpFR	12	n/a	n/a	n/a	n/a	n/a	n/a	n/a	10	1	6	3	n/a	n/a	n/a	n/a	n/a
864220	PROB	n/a	LTP247	ltpFR	12	n/a	n/a	n/a	n/a	n/a	n/a	n/a	16	6	3	7	n/a	n/a	n/a	n/a	n/a
866044	STOP	n/a	LTP247	ltpFR	12	n/a	n/a	n/a	n/a	n/a	n/a	n/a	n/a	n/a	n/a	n/a	n/a	n/a	n/a	n/a	n/a
868557	REC_START	n/a	LTP247	ltpFR	12	3	n/a	n/a	n/a	n/a	n/a	n/a	n/a	0	0	0	n/a	n/a	n/a	n/a	n/a
870043	REC_WORD	wordpools/wasnorm_wordpool_less_exclusions.txt	LTP247	ltpFR	12	3	1	KEEPER	769	n/a	n/a	0	n/a	0	0	0	n/a	n/a	n/a	n/a	n/a
870949	REC_WORD	wordpools/wasnorm_wordpool_less_exclusions.txt	LTP247	ltpFR	12	3	1	FLIPPER	580	n/a	n/a	0	n/a	0	0	0	n/a	n/a	n/a	n/a	n/a
872054	REC_WORD	wordpools/wasnorm_wordpool_less_exclusions.txt	LTP247	ltpFR	12	3	1	FARMER	553	n/a	n/a	1	n/a	0	0	0	n/a	n/a	n/a	n/a	n/a
873101	REC_WORD	wordpools/wasnorm_wordpool_less_exclusions.txt	LTP247	ltpFR	12	3	1	DOLL	481	n/a	n/a	0	n/a	0	0	0	n/a	n/a	n/a	n/a	n/a
874364	REC_WORD	wordpools/wasnorm_wordpool_less_exclusions.txt	LTP247	ltpFR	12	3	1	PITCHFORK	1078	n/a	n/a	0	n/a	0	0	0	n/a	n/a	n/a	n/a	n/a
875631	REC_WORD	wordpools/wasnorm_wordpool_less_exclusions.txt	LTP247	ltpFR	12	3	0	BABY	64	n/a	n/a	0	n/a	0	0	0	n/a	n/a	n/a	n/a	n/a
876688	REC_WORD	wordpools/wasnorm_wordpool_less_exclusions.txt	LTP247	ltpFR	12	3	0	GOO	648	n/a	n/a	0	n/a	0	0	0	n/a	n/a	n/a	n/a	n/a
877786	REC_WORD	wordpools/wasnorm_wordpool_less_exclusions.txt	LTP247	ltpFR	12	3	1	ALLIGATOR	16	n/a	n/a	1	n/a	0	0	0	n/a	n/a	n/a	n/a	n/a
878858	REC_WORD	wordpools/wasnorm_wordpool_less_exclusions.txt	LTP247	ltpFR	12	3	1	HIGHWAY	707	n/a	n/a	0	n/a	0	0	0	n/a	n/a	n/a	n/a	n/a
879891	REC_WORD	wordpools/wasnorm_wordpool_less_exclusions.txt	LTP247	ltpFR	12	3	1	STREET	1393	n/a	n/a	0	n/a	0	0	0	n/a	n/a	n/a	n/a	n/a
958010	WORD	wordpools/wasnorm_wordpool_less_exclusions.txt	LTP247	ltpFR	12	4	1	RIBBON	1189	n/a	n/a	0	n/a	0	0	0	0.422607421875	0.5869140625	0	lower	amplitud.ttf
962026	WORD	wordpools/wasnorm_wordpool_less_exclusions.txt	LTP247	ltpFR	12	4	1	WATER	1594	n/a	n/a	0	n/a	0	0	0	0.422607421875	0.5869140625	0	lower	amplitud.ttf
966141	WORD	wordpools/wasnorm_wordpool_less_exclusions.txt	LTP247	ltpFR	12	4	1	KETTLE	772	n/a	n/a	0	n/a	0	0	0	0.422607421875	0.5869140625	0	lower	amplitud.ttf
970106	WORD	wordpools/wasnorm_wordpool_less_exclusions.txt	LTP247	ltpFR	12	4	1	MOON	914	n/a	n/a	0	n/a	0	0	0	0.422607421875	0.5869140625	0	lower	amplitud.ttf
974168	WORD	wordpools/wasnorm_wordpool_less_exclusions.txt	LTP247	ltpFR	12	4	1	OTTER	986	n/a	n/a	1	n/a	0	0	0	0.422607421875	0.5869140625	0	lower	amplitud.ttf
978203	WORD	wordpools/wasnorm_wordpool_less_exclusions.txt	LTP247	ltpFR	12	4	1	PROFESSIONAL	1130	n/a	n/a	1	n/a	0	0	0	0.422607421875	0.5869140625	0	lower	amplitud.ttf
982135	WORD	wordpools/wasnorm_wordpool_less_exclusions.txt	LTP247	ltpFR	12	4	1	BUTLER	204	n/a	n/a	1	n/a	0	0	0	0.422607421875	0.5869140625	0	lower	amplitud.ttf
986183	WORD	wordpools/wasnorm_wordpool_less_exclusions.txt	LTP247	ltpFR	12	4	1	WAITRESS	1581	n/a	n/a	1	n/a	0	0	0	0.422607421875	0.5869140625	0	lower	amplitud.ttf
990014	WORD	wordpools/wasnorm_wordpool_less_exclusions.txt	LTP247	ltpFR	12	4	1	OCTOPUS	971	n/a	n/a	1	n/a	0	0	0	0.422607421875	0.5869140625	0	lower	amplitud.ttf
993929	WORD	wordpools/wasnorm_wordpool_less_exclusions.txt	LTP247	ltpFR	12	4	1	RULER	1216	n/a	n/a	0	n/a	0	0	0	0.422607421875	0.5869140625	0	lower	amplitud.ttf
998011	WORD	wordpools/wasnorm_wordpool_less_exclusions.txt	LTP247	ltpFR	12	4	1	RAIL	1161	n/a	n/a	0	n/a	0	0	0	0.422607421875	0.5869140625	0	lower	amplitud.ttf
1002077	WORD	wordpools/wasnorm_wordpool_less_exclusions.txt	LTP247	ltpFR	12	4	1	SUBMARINE	1398	n/a	n/a	0	n/a	0	0	0	0.422607421875	0.5869140625	0	lower	amplitud.ttf
1006025	WORD	wordpools/wasnorm_wordpool_less_exclusions.txt	LTP247	ltpFR	12	4	1	ATMOSPHERE	54	n/a	n/a	0	n/a	0	0	0	0.422607421875	0.5869140625	0	lower	amplitud.ttf
1010023	WORD	wordpools/wasnorm_wordpool_less_exclusions.txt	LTP247	ltpFR	12	4	1	VENT	1556	n/a	n/a	0	n/a	0	0	0	0.422607421875	0.5869140625	0	lower	amplitud.ttf
1013988	WORD	wordpools/wasnorm_wordpool_less_exclusions.txt	LTP247	ltpFR	12	4	1	PIKE	1067	n/a	n/a	0	n/a	0	0	0	0.422607421875	0.5869140625	0	lower	amplitud.ttf
1017920	WORD	wordpools/wasnorm_wordpool_less_exclusions.txt	LTP247	ltpFR	12	4	1	COMET	353	n/a	n/a	0	n/a	0	0	0	0.422607421875	0.5869140625	0	lower	amplitud.ttf
1020931	START	n/a	LTP247	ltpFR	12	n/a	n/a	n/a	n/a	n/a	n/a	n/a	n/a	n/a	n/a	n/a	n/a	n/a	n/a	n/a	n/a
1022035	PROB	n/a	LTP247	ltpFR	12	n/a	n/a	n/a	n/a	n/a	n/a	n/a	26	2	6	8	n/a	n/a	n/a	n/a	n/a
1023758	PROB	n/a	LTP247	ltpFR	12	n/a	n/a	n/a	n/a	n/a	n/a	n/a	20	6	6	8	n/a	n/a	n/a	n/a	n/a
1026867	PROB	n/a	LTP247	ltpFR	12	n/a	n/a	n/a	n/a	n/a	n/a	n/a	14	1	7	6	n/a	n/a	n/a	n/a	n/a
1028557	PROB	n/a	LTP247	ltpFR	12	n/a	n/a	n/a	n/a	n/a	n/a	n/a	13	5	3	5	n/a	n/a	n/a	n/a	n/a
1030096	PROB	n/a	LTP247	ltpFR	12	n/a	n/a	n/a	n/a	n/a	n/a	n/a	10	8	1	1	n/a	n/a	n/a	n/a	n/a
1031889	PROB	n/a	LTP247	ltpFR	12	n/a	n/a	n/a	n/a	n/a	n/a	n/a	15	4	4	7	n/a	n/a	n/a	n/a	n/a
1033826	PROB	n/a	LTP247	ltpFR	12	n/a	n/a	n/a	n/a	n/a	n/a	n/a	15	6	4	5	n/a	n/a	n/a	n/a	n/a
1035475	STOP	n/a	LTP247	ltpFR	12	n/a	n/a	n/a	n/a	n/a	n/a	n/a	n/a	n/a	n/a	n/a	n/a	n/a	n/a	n/a	n/a
1038883	REC_START	n/a	LTP247	ltpFR	12	4	n/a	n/a	n/a	n/a	n/a	n/a	n/a	0	0	0	n/a	n/a	n/a	n/a	n/a
1040393	REC_WORD	wordpools/wasnorm_wordpool_less_exclusions.txt	LTP247	ltpFR	12	4	1	RIBBON	1189	n/a	n/a	0	n/a	0	0	0	n/a	n/a	n/a	n/a	n/a
1041203	REC_WORD	wordpools/wasnorm_wordpool_less_exclusions.txt	LTP247	ltpFR	12	4	1	WATER	1594	n/a	n/a	0	n/a	0	0	0	n/a	n/a	n/a	n/a	n/a
1042180	REC_WORD	wordpools/wasnorm_wordpool_less_exclusions.txt	LTP247	ltpFR	12	4	1	KETTLE	772	n/a	n/a	0	n/a	0	0	0	n/a	n/a	n/a	n/a	n/a
1043173	REC_WORD	wordpools/wasnorm_wordpool_less_exclusions.txt	LTP247	ltpFR	12	4	1	MOON	914	n/a	n/a	0	n/a	0	0	0	n/a	n/a	n/a	n/a	n/a
1044545	REC_WORD	wordpools/wasnorm_wordpool_less_exclusions.txt	LTP247	ltpFR	12	4	1	COMET	353	n/a	n/a	0	n/a	0	0	0	n/a	n/a	n/a	n/a	n/a
1045862	REC_WORD	wordpools/wasnorm_wordpool_less_exclusions.txt	LTP247	ltpFR	12	4	1	BUTLER	204	n/a	n/a	1	n/a	0	0	0	n/a	n/a	n/a	n/a	n/a
1047084	REC_WORD	wordpools/wasnorm_wordpool_less_exclusions.txt	LTP247	ltpFR	12	4	1	PROFESSIONAL	1130	n/a	n/a	1	n/a	0	0	0	n/a	n/a	n/a	n/a	n/a
1056657	REC_WORD	wordpools/wasnorm_wordpool_less_exclusions.txt	LTP247	ltpFR	12	4	1	PIKE	1067	n/a	n/a	0	n/a	0	0	0	n/a	n/a	n/a	n/a	n/a
1125776	WORD	wordpools/wasnorm_wordpool_less_exclusions.txt	LTP247	ltpFR	12	5	1	RUST	1219	n/a	n/a	0	n/a	0	0	0	0.422607421875	0.5869140625	0	lower	amplitud.ttf
1129892	WORD	wordpools/wasnorm_wordpool_less_exclusions.txt	LTP247	ltpFR	12	5	1	GUARDIAN	668	n/a	n/a	1	n/a	0	0	0	0.422607421875	0.5869140625	0	lower	amplitud.ttf
1134041	WORD	wordpools/wasnorm_wordpool_less_exclusions.txt	LTP247	ltpFR	12	5	1	PUPIL	1143	n/a	n/a	1	n/a	0	0	0	0.422607421875	0.5869140625	0	lower	amplitud.ttf
1137872	WORD	wordpools/wasnorm_wordpool_less_exclusions.txt	LTP247	ltpFR	12	5	1	DANDELION	438	n/a	n/a	0	n/a	0	0	0	0.422607421875	0.5869140625	0	lower	amplitud.ttf
1141970	WORD	wordpools/wasnorm_wordpool_less_exclusions.txt	LTP247	ltpFR	12	5	1	COW	393	n/a	n/a	1	n/a	0	0	0	0.422607421875	0.5869140625	0	lower	amplitud.ttf
1145935	WORD	wordpools/wasnorm_wordpool_less_exclusions.txt	LTP247	ltpFR	12	5	1	CARTON	251	n/a	n/a	0	n/a	0	0	0	0.422607421875	0.5869140625	0	lower	amplitud.ttf
1150034	WORD	wordpools/wasnorm_wordpool_less_exclusions.txt	LTP247	ltpFR	12	5	1	GARAGE	621	n/a	n/a	0	n/a	0	0	0	0.422607421875	0.5869140625	0	lower	amplitud.ttf
1153882	WORD	wordpools/wasnorm_wordpool_less_exclusions.txt	LTP247	ltpFR	12	5	1	WHALE	1601	n/a	n/a	1	n/a	0	0	0	0.422607421875	0.5869140625	0	lower	amplitud.ttf
1158048	WORD	wordpools/wasnorm_wordpool_less_exclusions.txt	LTP247	ltpFR	12	5	1	ARMY	39	n/a	n/a	1	n/a	0	0	0	0.422607421875	0.5869140625	0	lower	amplitud.ttf
1162029	WORD	wordpools/wasnorm_wordpool_less_exclusions.txt	LTP247	ltpFR	12	5	1	SIBLING	1301	n/a	n/a	1	n/a	0	0	0	0.422607421875	0.5869140625	0	lower	amplitud.ttf
1166145	WORD	wordpools/wasnorm_wordpool_less_exclusions.txt	LTP247	ltpFR	12	5	1	TROUT	1511	n/a	n/a	1	n/a	0	0	0	0.422607421875	0.5869140625	0	lower	amplitud.ttf
1170323	WORD	wordpools/wasnorm_wordpool_less_exclusions.txt	LTP247	ltpFR	12	5	1	OBOE	969	n/a	n/a	0	n/a	0	0	0	0.422607421875	0.5869140625	0	lower	amplitud.ttf
1174475	WORD	wordpools/wasnorm_wordpool_less_exclusions.txt	LTP247	ltpFR	12	5	1	WINDSHIELD	1612	n/a	n/a	0	n/a	0	0	0	0.422607421875	0.5869140625	0	lower	amplitud.ttf
1178525	WORD	wordpools/wasnorm_wordpool_less_exclusions.txt	LTP247	ltpFR	12	5	1	FREEWAY	603	n/a	n/a	0	n/a	0	0	0	0.422607421875	0.5869140625	0	lower	amplitud.ttf
1182439	WORD	wordpools/wasnorm_wordpool_less_exclusions.txt	LTP247	ltpFR	12	5	1	PUB	1135	n/a	n/a	0	n/a	0	0	0	0.422607421875	0.5869140625	0	lower	amplitud.ttf
1186454	WORD	wordpools/wasnorm_wordpool_less_exclusions.txt	LTP247	ltpFR	12	5	1	PARTY	1018	n/a	n/a	0	n/a	0	0	0	0.422607421875	0.5869140625	0	lower	amplitud.ttf
1189466	START	n/a	LTP247	ltpFR	12	n/a	n/a	n/a	n/a	n/a	n/a	n/a	n/a	n/a	n/a	n/a	n/a	n/a	n/a	n/a	n/a
1190419	PROB	n/a	LTP247	ltpFR	12	n/a	n/a	n/a	n/a	n/a	n/a	n/a	11	3	1	7	n/a	n/a	n/a	n/a	n/a
1192343	PROB	n/a	LTP247	ltpFR	12	n/a	n/a	n/a	n/a	n/a	n/a	n/a	8	3	1	4	n/a	n/a	n/a	n/a	n/a
1194569	PROB	n/a	LTP247	ltpFR	12	n/a	n/a	n/a	n/a	n/a	n/a	n/a	12	3	4	5	n/a	n/a	n/a	n/a	n/a
1195932	STOP	n/a	LTP247	ltpFR	12	n/a	n/a	n/a	n/a	n/a	n/a	n/a	n/a	n/a	n/a	n/a	n/a	n/a	n/a	n/a	n/a
1199420	REC_START	n/a	LTP247	ltpFR	12	5	n/a	n/a	n/a	n/a	n/a	n/a	n/a	0	0	0	n/a	n/a	n/a	n/a	n/a
1202333	REC_WORD	wordpools/wasnorm_wordpool_less_exclusions.txt	LTP247	ltpFR	12	5	1	PARTY	1018	n/a	n/a	0	n/a	0	0	0	n/a	n/a	n/a	n/a	n/a
1203161	REC_WORD	wordpools/wasnorm_wordpool_less_exclusions.txt	LTP247	ltpFR	12	5	1	PUB	1135	n/a	n/a	0	n/a	0	0	0	n/a	n/a	n/a	n/a	n/a
1204254	REC_WORD	wordpools/wasnorm_wordpool_less_exclusions.txt	LTP247	ltpFR	12	5	1	TROUT	1511	n/a	n/a	1	n/a	0	0	0	n/a	n/a	n/a	n/a	n/a
1205281	REC_WORD	wordpools/wasnorm_wordpool_less_exclusions.txt	LTP247	ltpFR	12	5	1	DANDELION	438	n/a	n/a	0	n/a	0	0	0	n/a	n/a	n/a	n/a	n/a
1206364	REC_WORD	wordpools/wasnorm_wordpool_less_exclusions.txt	LTP247	ltpFR	12	5	1	ARMY	39	n/a	n/a	1	n/a	0	0	0	n/a	n/a	n/a	n/a	n/a
1207212	REC_WORD	wordpools/wasnorm_wordpool_less_exclusions.txt	LTP247	ltpFR	12	5	1	RUST	1219	n/a	n/a	0	n/a	0	0	0	n/a	n/a	n/a	n/a	n/a
1208090	REC_WORD	wordpools/wasnorm_wordpool_less_exclusions.txt	LTP247	ltpFR	12	5	1	GUARDIAN	668	n/a	n/a	1	n/a	0	0	0	n/a	n/a	n/a	n/a	n/a
1208978	REC_WORD	wordpools/wasnorm_wordpool_less_exclusions.txt	LTP247	ltpFR	12	5	1	PUPIL	1143	n/a	n/a	1	n/a	0	0	0	n/a	n/a	n/a	n/a	n/a
1209881	REC_WORD	wordpools/wasnorm_wordpool_less_exclusions.txt	LTP247	ltpFR	12	5	1	SIBLING	1301	n/a	n/a	1	n/a	0	0	0	n/a	n/a	n/a	n/a	n/a
1213408	REC_WORD	wordpools/wasnorm_wordpool_less_exclusions.txt	LTP247	ltpFR	12	5	1	WHALE	1601	n/a	n/a	1	n/a	0	0	0	n/a	n/a	n/a	n/a	n/a
1279272	START	n/a	LTP247	ltpFR	12	n/a	n/a	n/a	n/a	n/a	n/a	n/a	n/a	n/a	n/a	n/a	n/a	n/a	n/a	n/a	n/a
1280777	PROB	n/a	LTP247	ltpFR	12	n/a	n/a	n/a	n/a	n/a	n/a	n/a	20	4	9	7	n/a	n/a	n/a	n/a	n/a
1282647	PROB	n/a	LTP247	ltpFR	12	n/a	n/a	n/a	n/a	n/a	n/a	n/a	8	1	4	3	n/a	n/a	n/a	n/a	n/a
1284022	PROB	n/a	LTP247	ltpFR	12	n/a	n/a	n/a	n/a	n/a	n/a	n/a	9	3	2	4	n/a	n/a	n/a	n/a	n/a
1285780	STOP	n/a	LTP247	ltpFR	12	n/a	n/a	n/a	n/a	n/a	n/a	n/a	n/a	n/a	n/a	n/a	n/a	n/a	n/a	n/a	n/a
1288205	WORD	wordpools/wasnorm_wordpool_less_exclusions.txt	LTP247	ltpFR	12	6	0	BLOSSOM	138	n/a	n/a	0	n/a	0	0	0	0.57763671875	0.412841796875	1	upper	zerothre.ttf
1291217	START	n/a	LTP247	ltpFR	12	n/a	n/a	n/a	n/a	n/a	n/a	n/a	n/a	n/a	n/a	n/a	n/a	n/a	n/a	n/a	n/a
1292036	PROB	n/a	LTP247	ltpFR	12	n/a	n/a	n/a	n/a	n/a	n/a	n/a	18	8	9	1	n/a	n/a	n/a	n/a	n/a
1293304	PROB	n/a	LTP247	ltpFR	12	n/a	n/a	n/a	n/a	n/a	n/a	n/a	20	7	5	8	n/a	n/a	n/a	n/a	n/a
1294847	PROB	n/a	LTP247	ltpFR	12	n/a	n/a	n/a	n/a	n/a	n/a	n/a	11	2	1	8	n/a	n/a	n/a	n/a	n/a
1296182	PROB	n/a	LTP247	ltpFR	12	n/a	n/a	n/a	n/a	n/a	n/a	n/a	12	2	4	6	n/a	n/a	n/a	n/a	n/a
1297900	STOP	n/a	LTP247	ltpFR	12	n/a	n/a	n/a	n/a	n/a	n/a	n/a	n/a	n/a	n/a	n/a	n/a	n/a	n/a	n/a	n/a
1300281	WORD	wordpools/wasnorm_wordpool_less_exclusions.txt	LTP247	ltpFR	12	6	0	ORCHID	982	n/a	n/a	0	n/a	0	0	0	0.57763671875	0.412841796875	1	upper	zerothre.ttf
1303296	START	n/a	LTP247	ltpFR	12	n/a	n/a	n/a	n/a	n/a	n/a	n/a	n/a	n/a	n/a	n/a	n/a	n/a	n/a	n/a	n/a
1304132	PROB	n/a	LTP247	ltpFR	12	n/a	n/a	n/a	n/a	n/a	n/a	n/a	11	4	5	2	n/a	n/a	n/a	n/a	n/a
1305567	PROB	n/a	LTP247	ltpFR	12	n/a	n/a	n/a	n/a	n/a	n/a	n/a	14	1	6	7	n/a	n/a	n/a	n/a	n/a
1306939	PROB	n/a	LTP247	ltpFR	12	n/a	n/a	n/a	n/a	n/a	n/a	n/a	11	2	3	6	n/a	n/a	n/a	n/a	n/a
1308144	PROB	n/a	LTP247	ltpFR	12	n/a	n/a	n/a	n/a	n/a	n/a	n/a	6	3	2	1	n/a	n/a	n/a	n/a	n/a
1309417	PROB	n/a	LTP247	ltpFR	12	n/a	n/a	n/a	n/a	n/a	n/a	n/a	14	4	1	9	n/a	n/a	n/a	n/a	n/a
1311052	STOP	n/a	LTP247	ltpFR	12	n/a	n/a	n/a	n/a	n/a	n/a	n/a	n/a	n/a	n/a	n/a	n/a	n/a	n/a	n/a	n/a
1312428	WORD	wordpools/wasnorm_wordpool_less_exclusions.txt	LTP247	ltpFR	12	6	0	BROCCOLI	176	n/a	n/a	0	n/a	0	0	0	0.57763671875	0.412841796875	1	upper	zerothre.ttf
1315440	START	n/a	LTP247	ltpFR	12	n/a	n/a	n/a	n/a	n/a	n/a	n/a	n/a	n/a	n/a	n/a	n/a	n/a	n/a	n/a	n/a
1316393	PROB	n/a	LTP247	ltpFR	12	n/a	n/a	n/a	n/a	n/a	n/a	n/a	13	4	4	5	n/a	n/a	n/a	n/a	n/a
1317967	PROB	n/a	LTP247	ltpFR	12	n/a	n/a	n/a	n/a	n/a	n/a	n/a	14	3	8	3	n/a	n/a	n/a	n/a	n/a
1319924	PROB	n/a	LTP247	ltpFR	12	n/a	n/a	n/a	n/a	n/a	n/a	n/a	13	3	5	5	n/a	n/a	n/a	n/a	n/a
1321611	PROB	n/a	LTP247	ltpFR	12	n/a	n/a	n/a	n/a	n/a	n/a	n/a	13	8	2	3	n/a	n/a	n/a	n/a	n/a
1322796	STOP	n/a	LTP247	ltpFR	12	n/a	n/a	n/a	n/a	n/a	n/a	n/a	n/a	n/a	n/a	n/a	n/a	n/a	n/a	n/a	n/a
1324424	WORD	wordpools/wasnorm_wordpool_less_exclusions.txt	LTP247	ltpFR	12	6	0	PAINTING	1005	n/a	n/a	1	n/a	0	0	0	0.57763671875	0.412841796875	1	upper	zerothre.ttf
1327436	START	n/a	LTP247	ltpFR	12	n/a	n/a	n/a	n/a	n/a	n/a	n/a	n/a	n/a	n/a	n/a	n/a	n/a	n/a	n/a	n/a
1328537	PROB	n/a	LTP247	ltpFR	12	n/a	n/a	n/a	n/a	n/a	n/a	n/a	23	8	6	9	n/a	n/a	n/a	n/a	n/a
1330009	PROB	n/a	LTP247	ltpFR	12	n/a	n/a	n/a	n/a	n/a	n/a	n/a	12	6	3	3	n/a	n/a	n/a	n/a	n/a
1331497	PROB	n/a	LTP247	ltpFR	12	n/a	n/a	n/a	n/a	n/a	n/a	n/a	11	4	2	5	n/a	n/a	n/a	n/a	n/a
1332870	PROB	n/a	LTP247	ltpFR	12	n/a	n/a	n/a	n/a	n/a	n/a	n/a	17	9	2	6	n/a	n/a	n/a	n/a	n/a
1334355	STOP	n/a	LTP247	ltpFR	12	n/a	n/a	n/a	n/a	n/a	n/a	n/a	n/a	n/a	n/a	n/a	n/a	n/a	n/a	n/a	n/a
1336469	WORD	wordpools/wasnorm_wordpool_less_exclusions.txt	LTP247	ltpFR	12	6	0	SHIP	1286	n/a	n/a	1	n/a	0	0	0	0.57763671875	0.412841796875	1	upper	zerothre.ttf
1339481	START	n/a	LTP247	ltpFR	12	n/a	n/a	n/a	n/a	n/a	n/a	n/a	n/a	n/a	n/a	n/a	n/a	n/a	n/a	n/a	n/a
1340518	PROB	n/a	LTP247	ltpFR	12	n/a	n/a	n/a	n/a	n/a	n/a	n/a	12	3	3	6	n/a	n/a	n/a	n/a	n/a
1343192	PROB	n/a	LTP247	ltpFR	12	n/a	n/a	n/a	n/a	n/a	n/a	n/a	16	2	6	8	n/a	n/a	n/a	n/a	n/a
1345086	PROB	n/a	LTP247	ltpFR	12	n/a	n/a	n/a	n/a	n/a	n/a	n/a	17	6	7	4	n/a	n/a	n/a	n/a	n/a
1346564	STOP	n/a	LTP247	ltpFR	12	n/a	n/a	n/a	n/a	n/a	n/a	n/a	n/a	n/a	n/a	n/a	n/a	n/a	n/a	n/a	n/a
1348414	WORD	wordpools/wasnorm_wordpool_less_exclusions.txt	LTP247	ltpFR	12	6	0	NICOTINE	951	n/a	n/a	0	n/a	0	0	0	0.57763671875	0.412841796875	1	upper	zerothre.ttf
1351426	START	n/a	LTP247	ltpFR	12	n/a	n/a	n/a	n/a	n/a	n/a	n/a	n/a	n/a	n/a	n/a	n/a	n/a	n/a	n/a	n/a
1352564	PROB	n/a	LTP247	ltpFR	12	n/a	n/a	n/a	n/a	n/a	n/a	n/a	13	5	1	7	n/a	n/a	n/a	n/a	n/a
1354254	PROB	n/a	LTP247	ltpFR	12	n/a	n/a	n/a	n/a	n/a	n/a	n/a	17	8	2	7	n/a	n/a	n/a	n/a	n/a
1355740	PROB	n/a	LTP247	ltpFR	12	n/a	n/a	n/a	n/a	n/a	n/a	n/a	16	4	5	7	n/a	n/a	n/a	n/a	n/a
1357232	PROB	n/a	LTP247	ltpFR	12	n/a	n/a	n/a	n/a	n/a	n/a	n/a	19	4	7	8	n/a	n/a	n/a	n/a	n/a
1358515	STOP	n/a	LTP247	ltpFR	12	n/a	n/a	n/a	n/a	n/a	n/a	n/a	n/a	n/a	n/a	n/a	n/a	n/a	n/a	n/a	n/a
1360645	WORD	wordpools/wasnorm_wordpool_less_exclusions.txt	LTP247	ltpFR	12	6	0	MOVIE	927	n/a	n/a	1	n/a	0	0	0	0.57763671875	0.412841796875	1	upper	zerothre.ttf
1363656	START	n/a	LTP247	ltpFR	12	n/a	n/a	n/a	n/a	n/a	n/a	n/a	n/a	n/a	n/a	n/a	n/a	n/a	n/a	n/a	n/a
1364794	PROB	n/a	LTP247	ltpFR	12	n/a	n/a	n/a	n/a	n/a	n/a	n/a	24	8	9	7	n/a	n/a	n/a	n/a	n/a
1367149	PROB	n/a	LTP247	ltpFR	12	n/a	n/a	n/a	n/a	n/a	n/a	n/a	10	6	3	1	n/a	n/a	n/a	n/a	n/a
1368608	PROB	n/a	LTP247	ltpFR	12	n/a	n/a	n/a	n/a	n/a	n/a	n/a	20	5	7	4	n/a	n/a	n/a	n/a	n/a
1370108	STOP	n/a	LTP247	ltpFR	12	n/a	n/a	n/a	n/a	n/a	n/a	n/a	n/a	n/a	n/a	n/a	n/a	n/a	n/a	n/a	n/a
1372673	WORD	wordpools/wasnorm_wordpool_less_exclusions.txt	LTP247	ltpFR	12	6	0	DUNGEON	507	n/a	n/a	1	n/a	0	0	0	0.57763671875	0.412841796875	1	upper	zerothre.ttf
1375685	START	n/a	LTP247	ltpFR	12	n/a	n/a	n/a	n/a	n/a	n/a	n/a	n/a	n/a	n/a	n/a	n/a	n/a	n/a	n/a	n/a
1376886	PROB	n/a	LTP247	ltpFR	12	n/a	n/a	n/a	n/a	n/a	n/a	n/a	19	8	2	9	n/a	n/a	n/a	n/a	n/a
1378810	PROB	n/a	LTP247	ltpFR	12	n/a	n/a	n/a	n/a	n/a	n/a	n/a	12	5	5	2	n/a	n/a	n/a	n/a	n/a
1380717	PROB	n/a	LTP247	ltpFR	12	n/a	n/a	n/a	n/a	n/a	n/a	n/a	22	4	9	9	n/a	n/a	n/a	n/a	n/a
1382339	STOP	n/a	LTP247	ltpFR	12	n/a	n/a	n/a	n/a	n/a	n/a	n/a	n/a	n/a	n/a	n/a	n/a	n/a	n/a	n/a	n/a
1384602	WORD	wordpools/wasnorm_wordpool_less_exclusions.txt	LTP247	ltpFR	12	6	0	DIAGRAM	456	n/a	n/a	0	n/a	0	0	0	0.57763671875	0.412841796875	1	upper	zerothre.ttf
1387613	START	n/a	LTP247	ltpFR	12	n/a	n/a	n/a	n/a	n/a	n/a	n/a	n/a	n/a	n/a	n/a	n/a	n/a	n/a	n/a	n/a
1388563	PROB	n/a	LTP247	ltpFR	12	n/a	n/a	n/a	n/a	n/a	n/a	n/a	20	8	6	6	n/a	n/a	n/a	n/a	n/a
1390256	PROB	n/a	LTP247	ltpFR	12	n/a	n/a	n/a	n/a	n/a	n/a	n/a	16	3	7	6	n/a	n/a	n/a	n/a	n/a
1391876	PROB	n/a	LTP247	ltpFR	12	n/a	n/a	n/a	n/a	n/a	n/a	n/a	21	6	7	8	n/a	n/a	n/a	n/a	n/a
1393686	PROB	n/a	LTP247	ltpFR	12	n/a	n/a	n/a	n/a	n/a	n/a	n/a	8	3	4	1	n/a	n/a	n/a	n/a	n/a
1395061	STOP	n/a	LTP247	ltpFR	12	n/a	n/a	n/a	n/a	n/a	n/a	n/a	n/a	n/a	n/a	n/a	n/a	n/a	n/a	n/a	n/a
1396831	WORD	wordpools/wasnorm_wordpool_less_exclusions.txt	LTP247	ltpFR	12	6	0	GRATE	657	n/a	n/a	0	n/a	0	0	0	0.57763671875	0.412841796875	1	upper	zerothre.ttf
1399843	START	n/a	LTP247	ltpFR	12	n/a	n/a	n/a	n/a	n/a	n/a	n/a	n/a	n/a	n/a	n/a	n/a	n/a	n/a	n/a	n/a
1400997	PROB	n/a	LTP247	ltpFR	12	n/a	n/a	n/a	n/a	n/a	n/a	n/a	19	7	8	4	n/a	n/a	n/a	n/a	n/a
1402481	PROB	n/a	LTP247	ltpFR	12	n/a	n/a	n/a	n/a	n/a	n/a	n/a	13	1	7	5	n/a	n/a	n/a	n/a	n/a
1404858	PROB	n/a	LTP247	ltpFR	12	n/a	n/a	n/a	n/a	n/a	n/a	n/a	12	1	5	6	n/a	n/a	n/a	n/a	n/a
1406588	STOP	n/a	LTP247	ltpFR	12	n/a	n/a	n/a	n/a	n/a	n/a	n/a	n/a	n/a	n/a	n/a	n/a	n/a	n/a	n/a	n/a
1408709	WORD	wordpools/wasnorm_wordpool_less_exclusions.txt	LTP247	ltpFR	12	6	0	TWIG	1527	n/a	n/a	0	n/a	0	0	0	0.57763671875	0.412841796875	1	upper	zerothre.ttf
1411721	START	n/a	LTP247	ltpFR	12	n/a	n/a	n/a	n/a	n/a	n/a	n/a	n/a	n/a	n/a	n/a	n/a	n/a	n/a	n/a	n/a
1412758	PROB	n/a	LTP247	ltpFR	12	n/a	n/a	n/a	n/a	n/a	n/a	n/a	12	4	7	1	n/a	n/a	n/a	n/a	n/a
1414263	PROB	n/a	LTP247	ltpFR	12	n/a	n/a	n/a	n/a	n/a	n/a	n/a	16	1	6	9	n/a	n/a	n/a	n/a	n/a
1415749	PROB	n/a	LTP247	ltpFR	12	n/a	n/a	n/a	n/a	n/a	n/a	n/a	8	2	2	4	n/a	n/a	n/a	n/a	n/a
1417054	PROB	n/a	LTP247	ltpFR	12	n/a	n/a	n/a	n/a	n/a	n/a	n/a	17	7	2	8	n/a	n/a	n/a	n/a	n/a
1418499	STOP	n/a	LTP247	ltpFR	12	n/a	n/a	n/a	n/a	n/a	n/a	n/a	n/a	n/a	n/a	n/a	n/a	n/a	n/a	n/a	n/a
1420637	WORD	wordpools/wasnorm_wordpool_less_exclusions.txt	LTP247	ltpFR	12	6	0	HEDGE	699	n/a	n/a	1	n/a	0	0	0	0.57763671875	0.412841796875	1	upper	zerothre.ttf
1423649	START	n/a	LTP247	ltpFR	12	n/a	n/a	n/a	n/a	n/a	n/a	n/a	n/a	n/a	n/a	n/a	n/a	n/a	n/a	n/a	n/a
1424669	PROB	n/a	LTP247	ltpFR	12	n/a	n/a	n/a	n/a	n/a	n/a	n/a	22	7	6	9	n/a	n/a	n/a	n/a	n/a
1426222	PROB	n/a	LTP247	ltpFR	12	n/a	n/a	n/a	n/a	n/a	n/a	n/a	27	9	9	9	n/a	n/a	n/a	n/a	n/a
1428296	PROB	n/a	LTP247	ltpFR	12	n/a	n/a	n/a	n/a	n/a	n/a	n/a	17	5	4	8	n/a	n/a	n/a	n/a	n/a
1430229	STOP	n/a	LTP247	ltpFR	12	n/a	n/a	n/a	n/a	n/a	n/a	n/a	n/a	n/a	n/a	n/a	n/a	n/a	n/a	n/a	n/a
1432699	WORD	wordpools/wasnorm_wordpool_less_exclusions.txt	LTP247	ltpFR	12	6	0	PHOTO	1055	n/a	n/a	0	n/a	0	0	0	0.57763671875	0.412841796875	1	upper	zerothre.ttf
1435711	START	n/a	LTP247	ltpFR	12	n/a	n/a	n/a	n/a	n/a	n/a	n/a	n/a	n/a	n/a	n/a	n/a	n/a	n/a	n/a	n/a
1436614	PROB	n/a	LTP247	ltpFR	12	n/a	n/a	n/a	n/a	n/a	n/a	n/a	10	1	5	4	n/a	n/a	n/a	n/a	n/a
1438686	PROB	n/a	LTP247	ltpFR	12	n/a	n/a	n/a	n/a	n/a	n/a	n/a	16	9	3	4	n/a	n/a	n/a	n/a	n/a
1440141	PROB	n/a	LTP247	ltpFR	12	n/a	n/a	n/a	n/a	n/a	n/a	n/a	14	5	4	5	n/a	n/a	n/a	n/a	n/a
1441747	PROB	n/a	LTP247	ltpFR	12	n/a	n/a	n/a	n/a	n/a	n/a	n/a	9	6	2	1	n/a	n/a	n/a	n/a	n/a
1443036	STOP	n/a	LTP247	ltpFR	12	n/a	n/a	n/a	n/a	n/a	n/a	n/a	n/a	n/a	n/a	n/a	n/a	n/a	n/a	n/a	n/a
1444578	WORD	wordpools/wasnorm_wordpool_less_exclusions.txt	LTP247	ltpFR	12	6	0	MERMAID	887	n/a	n/a	1	n/a	0	0	0	0.57763671875	0.412841796875	1	upper	zerothre.ttf
1447589	START	n/a	LTP247	ltpFR	12	n/a	n/a	n/a	n/a	n/a	n/a	n/a	n/a	n/a	n/a	n/a	n/a	n/a	n/a	n/a	n/a
1448760	PROB	n/a	LTP247	ltpFR	12	n/a	n/a	n/a	n/a	n/a	n/a	n/a	15	8	3	4	n/a	n/a	n/a	n/a	n/a
1450162	PROB	n/a	LTP247	ltpFR	12	n/a	n/a	n/a	n/a	n/a	n/a	n/a	9	6	1	2	n/a	n/a	n/a	n/a	n/a
1451822	PROB	n/a	LTP247	ltpFR	12	n/a	n/a	n/a	n/a	n/a	n/a	n/a	9	4	1	4	n/a	n/a	n/a	n/a	n/a
1453207	PROB	n/a	LTP247	ltpFR	12	n/a	n/a	n/a	n/a	n/a	n/a	n/a	18	2	7	9	n/a	n/a	n/a	n/a	n/a
1454876	STOP	n/a	LTP247	ltpFR	12	n/a	n/a	n/a	n/a	n/a	n/a	n/a	n/a	n/a	n/a	n/a	n/a	n/a	n/a	n/a	n/a
1456421	WORD	wordpools/wasnorm_wordpool_less_exclusions.txt	LTP247	ltpFR	12	6	0	DAM	436	n/a	n/a	1	n/a	0	0	0	0.57763671875	0.412841796875	1	upper	zerothre.ttf
1459433	START	n/a	LTP247	ltpFR	12	n/a	n/a	n/a	n/a	n/a	n/a	n/a	n/a	n/a	n/a	n/a	n/a	n/a	n/a	n/a	n/a
1460588	PROB	n/a	LTP247	ltpFR	12	n/a	n/a	n/a	n/a	n/a	n/a	n/a	18	6	4	8	n/a	n/a	n/a	n/a	n/a
1462074	PROB	n/a	LTP247	ltpFR	12	n/a	n/a	n/a	n/a	n/a	n/a	n/a	20	4	7	9	n/a	n/a	n/a	n/a	n/a
1463951	PROB	n/a	LTP247	ltpFR	12	n/a	n/a	n/a	n/a	n/a	n/a	n/a	19	2	8	9	n/a	n/a	n/a	n/a	n/a
1465419	PROB	n/a	LTP247	ltpFR	12	n/a	n/a	n/a	n/a	n/a	n/a	n/a	10	3	5	2	n/a	n/a	n/a	n/a	n/a
1466868	STOP	n/a	LTP247	ltpFR	12	n/a	n/a	n/a	n/a	n/a	n/a	n/a	n/a	n/a	n/a	n/a	n/a	n/a	n/a	n/a	n/a
1468601	WORD	wordpools/wasnorm_wordpool_less_exclusions.txt	LTP247	ltpFR	12	6	0	CHIEF	298	n/a	n/a	1	n/a	0	0	0	0.57763671875	0.412841796875	1	upper	zerothre.ttf
1471613	START	n/a	LTP247	ltpFR	12	n/a	n/a	n/a	n/a	n/a	n/a	n/a	n/a	n/a	n/a	n/a	n/a	n/a	n/a	n/a	n/a
1472482	PROB	n/a	LTP247	ltpFR	12	n/a	n/a	n/a	n/a	n/a	n/a	n/a	10	3	3	4	n/a	n/a	n/a	n/a	n/a
1473885	PROB	n/a	LTP247	ltpFR	12	n/a	n/a	n/a	n/a	n/a	n/a	n/a	10	5	2	3	n/a	n/a	n/a	n/a	n/a
1475692	PROB	n/a	LTP247	ltpFR	12	n/a	n/a	n/a	n/a	n/a	n/a	n/a	17	5	3	9	n/a	n/a	n/a	n/a	n/a
1477850	PROB	n/a	LTP247	ltpFR	12	n/a	n/a	n/a	n/a	n/a	n/a	n/a	11	3	7	1	n/a	n/a	n/a	n/a	n/a
1479045	STOP	n/a	LTP247	ltpFR	12	n/a	n/a	n/a	n/a	n/a	n/a	n/a	n/a	n/a	n/a	n/a	n/a	n/a	n/a	n/a	n/a
1481366	REC_START	n/a	LTP247	ltpFR	12	6	n/a	n/a	n/a	n/a	n/a	n/a	n/a	0	0	0	n/a	n/a	n/a	n/a	n/a
1483117	REC_WORD	wordpools/wasnorm_wordpool_less_exclusions.txt	LTP247	ltpFR	12	6	0	CHIEF	298	n/a	n/a	1	n/a	0	0	0	n/a	n/a	n/a	n/a	n/a
1484030	REC_WORD	wordpools/wasnorm_wordpool_less_exclusions.txt	LTP247	ltpFR	12	6	0	DAM	436	n/a	n/a	1	n/a	0	0	0	n/a	n/a	n/a	n/a	n/a
1484693	REC_WORD	wordpools/wasnorm_wordpool_less_exclusions.txt	LTP247	ltpFR	12	6	0	MERMAID	887	n/a	n/a	1	n/a	0	0	0	n/a	n/a	n/a	n/a	n/a
1485726	REC_WORD	wordpools/wasnorm_wordpool_less_exclusions.txt	LTP247	ltpFR	12	6	0	BLOSSOM	138	n/a	n/a	0	n/a	0	0	0	n/a	n/a	n/a	n/a	n/a
1486764	REC_WORD	wordpools/wasnorm_wordpool_less_exclusions.txt	LTP247	ltpFR	12	6	0	ORCHID	982	n/a	n/a	0	n/a	0	0	0	n/a	n/a	n/a	n/a	n/a
1487646	REC_WORD	wordpools/wasnorm_wordpool_less_exclusions.txt	LTP247	ltpFR	12	6	0	BROCCOLI	176	n/a	n/a	0	n/a	0	0	0	n/a	n/a	n/a	n/a	n/a
1489941	REC_WORD	wordpools/wasnorm_wordpool_less_exclusions.txt	LTP247	ltpFR	12	6	0	TWIG	1527	n/a	n/a	0	n/a	0	0	0	n/a	n/a	n/a	n/a	n/a
1565415	WORD	wordpools/wasnorm_wordpool_less_exclusions.txt	LTP247	ltpFR	12	7	0	REGISTER	1180	n/a	n/a	1	n/a	0	0	0	0.57763671875	0.412841796875	1	upper	zerothre.ttf
1569582	WORD	wordpools/wasnorm_wordpool_less_exclusions.txt	LTP247	ltpFR	12	7	0	DRAWING	494	n/a	n/a	0	n/a	0	0	0	0.57763671875	0.412841796875	1	upper	zerothre.ttf
1573412	WORD	wordpools/wasnorm_wordpool_less_exclusions.txt	LTP247	ltpFR	12	7	0	SEAGULL	1261	n/a	n/a	1	n/a	0	0	0	0.57763671875	0.412841796875	1	upper	zerothre.ttf
1577278	WORD	wordpools/wasnorm_wordpool_less_exclusions.txt	LTP247	ltpFR	12	7	0	HORSE	719	n/a	n/a	1	n/a	0	0	0	0.57763671875	0.412841796875	1	upper	zerothre.ttf
1581176	WORD	wordpools/wasnorm_wordpool_less_exclusions.txt	LTP247	ltpFR	12	7	1	BRIDGE	174	n/a	n/a	0	n/a	0	0	0	0.422607421875	0.5869140625	0	lower	amplitud.ttf
1585291	WORD	wordpools/wasnorm_wordpool_less_exclusions.txt	LTP247	ltpFR	12	7	1	LAGOON	795	n/a	n/a	0	n/a	0	0	0	0.422607421875	0.5869140625	0	lower	amplitud.ttf
1589273	WORD	wordpools/wasnorm_wordpool_less_exclusions.txt	LTP247	ltpFR	12	7	1	PAIL	1002	n/a	n/a	0	n/a	0	0	0	0.422607421875	0.5869140625	0	lower	amplitud.ttf
1593221	WORD	wordpools/wasnorm_wordpool_less_exclusions.txt	LTP247	ltpFR	12	7	1	CRICKET	408	n/a	n/a	1	n/a	0	0	0	0.422607421875	0.5869140625	0	lower	amplitud.ttf
1597169	WORD	wordpools/wasnorm_wordpool_less_exclusions.txt	LTP247	ltpFR	12	7	1	ESCALATOR	539	n/a	n/a	0	n/a	0	0	0	0.422607421875	0.5869140625	0	lower	amplitud.ttf
1601302	WORD	wordpools/wasnorm_wordpool_less_exclusions.txt	LTP247	ltpFR	12	7	1	CATTLE	261	n/a	n/a	1	n/a	0	0	0	0.422607421875	0.5869140625	0	lower	amplitud.ttf
1605399	WORD	wordpools/wasnorm_wordpool_less_exclusions.txt	LTP247	ltpFR	12	7	0	MARSH	874	n/a	n/a	0	n/a	0	0	0	0.57763671875	0.412841796875	1	upper	zerothre.ttf
1609549	WORD	wordpools/wasnorm_wordpool_less_exclusions.txt	LTP247	ltpFR	12	7	0	STOCKING	1383	n/a	n/a	0	n/a	0	0	0	0.57763671875	0.412841796875	1	upper	zerothre.ttf
1613545	WORD	wordpools/wasnorm_wordpool_less_exclusions.txt	LTP247	ltpFR	12	7	0	SILK	1307	n/a	n/a	0	n/a	0	0	0	0.57763671875	0.412841796875	1	upper	zerothre.ttf
1617546	WORD	wordpools/wasnorm_wordpool_less_exclusions.txt	LTP247	ltpFR	12	7	0	STEP	1377	n/a	n/a	1	n/a	0	0	0	0.57763671875	0.412841796875	1	upper	zerothre.ttf
1621423	WORD	wordpools/wasnorm_wordpool_less_exclusions.txt	LTP247	ltpFR	12	7	1	PARSLEY	1016	n/a	n/a	0	n/a	0	0	0	0.422607421875	0.5869140625	0	lower	amplitud.ttf
1625405	WORD	wordpools/wasnorm_wordpool_less_exclusions.txt	LTP247	ltpFR	12	7	1	CACTUS	215	n/a	n/a	1	n/a	0	0	0	0.422607421875	0.5869140625	0	lower	amplitud.ttf
1631249	REC_START	n/a	LTP247	ltpFR	12	7	n/a	n/a	n/a	n/a	n/a	n/a	n/a	0	0	0	n/a	n/a	n/a	n/a	n/a
1632730	REC_WORD	wordpools/wasnorm_wordpool_less_exclusions.txt	LTP247	ltpFR	12	7	1	CACTUS	215	n/a	n/a	1	n/a	0	0	0	n/a	n/a	n/a	n/a	n/a
1633519	REC_WORD	wordpools/wasnorm_wordpool_less_exclusions.txt	LTP247	ltpFR	12	7	1	PARSLEY	1016	n/a	n/a	0	n/a	0	0	0	n/a	n/a	n/a	n/a	n/a
1634476	REC_WORD	wordpools/wasnorm_wordpool_less_exclusions.txt	LTP247	ltpFR	12	7	0	STEP	1377	n/a	n/a	1	n/a	0	0	0	n/a	n/a	n/a	n/a	n/a
1635310	REC_WORD	wordpools/wasnorm_wordpool_less_exclusions.txt	LTP247	ltpFR	12	7	1	LAGOON	795	n/a	n/a	0	n/a	0	0	0	n/a	n/a	n/a	n/a	n/a
1636771	REC_WORD	wordpools/wasnorm_wordpool_less_exclusions.txt	LTP247	ltpFR	12	7	1	BRIDGE	174	n/a	n/a	0	n/a	0	0	0	n/a	n/a	n/a	n/a	n/a
1645791	REC_WORD	wordpools/wasnorm_wordpool_less_exclusions.txt	LTP247	ltpFR	12	7	0	MARSH	874	n/a	n/a	0	n/a	0	0	0	n/a	n/a	n/a	n/a	n/a
1665027	REC_WORD	wordpools/wasnorm_wordpool_less_exclusions.txt	LTP247	ltpFR	12	7	0	SEAGULL	1261	n/a	n/a	1	n/a	0	0	0	n/a	n/a	n/a	n/a	n/a
1666015	REC_WORD	wordpools/wasnorm_wordpool_less_exclusions.txt	LTP247	ltpFR	12	7	0	HORSE	719	n/a	n/a	1	n/a	0	0	0	n/a	n/a	n/a	n/a	n/a
1669188	REC_WORD	wordpools/wasnorm_wordpool_less_exclusions.txt	LTP247	ltpFR	12	7	0	REGISTER	1180	n/a	n/a	1	n/a	0	0	0	n/a	n/a	n/a	n/a	n/a
1673747	REC_WORD	wordpools/wasnorm_wordpool_less_exclusions.txt	LTP247	ltpFR	12	7	0	DRAWING	494	n/a	n/a	0	n/a	0	0	0	n/a	n/a	n/a	n/a	n/a
1721906	WORD	wordpools/wasnorm_wordpool_less_exclusions.txt	LTP247	ltpFR	12	8	1	MAN	862	n/a	n/a	1	n/a	0	0	0	0.422607421875	0.5869140625	0	lower	amplitud.ttf
1726002	WORD	wordpools/wasnorm_wordpool_less_exclusions.txt	LTP247	ltpFR	12	8	1	FELLOW	558	n/a	n/a	1	n/a	0	0	0	0.422607421875	0.5869140625	0	lower	amplitud.ttf
1730084	WORD	wordpools/wasnorm_wordpool_less_exclusions.txt	LTP247	ltpFR	12	8	1	RUG	1215	n/a	n/a	0	n/a	0	0	0	0.422607421875	0.5869140625	0	lower	amplitud.ttf
1734253	WORD	wordpools/wasnorm_wordpool_less_exclusions.txt	LTP247	ltpFR	12	8	1	PLASTER	1085	n/a	n/a	0	n/a	0	0	0	0.422607421875	0.5869140625	0	lower	amplitud.ttf
1738367	WORD	wordpools/wasnorm_wordpool_less_exclusions.txt	LTP247	ltpFR	12	8	1	TAIL	1430	n/a	n/a	0	n/a	0	0	0	0.422607421875	0.5869140625	0	lower	amplitud.ttf
1742332	WORD	wordpools/wasnorm_wordpool_less_exclusions.txt	LTP247	ltpFR	12	8	1	BADGE	68	n/a	n/a	0	n/a	0	0	0	0.422607421875	0.5869140625	0	lower	amplitud.ttf
1746448	WORD	wordpools/wasnorm_wordpool_less_exclusions.txt	LTP247	ltpFR	12	8	1	ORANGE	980	n/a	n/a	0	n/a	0	0	0	0.422607421875	0.5869140625	0	lower	amplitud.ttf
1750379	WORD	wordpools/wasnorm_wordpool_less_exclusions.txt	LTP247	ltpFR	12	8	1	VELVET	1555	n/a	n/a	0	n/a	0	0	0	0.422607421875	0.5869140625	0	lower	amplitud.ttf
1754211	WORD	wordpools/wasnorm_wordpool_less_exclusions.txt	LTP247	ltpFR	12	8	1	VOLLEYBALL	1576	n/a	n/a	0	n/a	0	0	0	0.422607421875	0.5869140625	0	lower	amplitud.ttf
1758240	WORD	wordpools/wasnorm_wordpool_less_exclusions.txt	LTP247	ltpFR	12	8	1	TOOTHBRUSH	1482	n/a	n/a	0	n/a	0	0	0	0.422607421875	0.5869140625	0	lower	amplitud.ttf
1762141	WORD	wordpools/wasnorm_wordpool_less_exclusions.txt	LTP247	ltpFR	12	8	1	RECEPTIONIST	1174	n/a	n/a	1	n/a	0	0	0	0.422607421875	0.5869140625	0	lower	amplitud.ttf
1766257	WORD	wordpools/wasnorm_wordpool_less_exclusions.txt	LTP247	ltpFR	12	8	1	CUSHION	428	n/a	n/a	0	n/a	0	0	0	0.422607421875	0.5869140625	0	lower	amplitud.ttf
1770138	WORD	wordpools/wasnorm_wordpool_less_exclusions.txt	LTP247	ltpFR	12	8	1	VAMPIRE	1547	n/a	n/a	1	n/a	0	0	0	0.422607421875	0.5869140625	0	lower	amplitud.ttf
1774002	WORD	wordpools/wasnorm_wordpool_less_exclusions.txt	LTP247	ltpFR	12	8	1	FOOTBALL	591	n/a	n/a	0	n/a	0	0	0	0.422607421875	0.5869140625	0	lower	amplitud.ttf
1778084	WORD	wordpools/wasnorm_wordpool_less_exclusions.txt	LTP247	ltpFR	12	8	1	WITNESS	1618	n/a	n/a	1	n/a	0	0	0	0.422607421875	0.5869140625	0	lower	amplitud.ttf
1781929	WORD	wordpools/wasnorm_wordpool_less_exclusions.txt	LTP247	ltpFR	12	8	1	JUDGE	761	n/a	n/a	1	n/a	0	0	0	0.422607421875	0.5869140625	0	lower	amplitud.ttf
1788073	REC_START	n/a	LTP247	ltpFR	12	8	n/a	n/a	n/a	n/a	n/a	n/a	n/a	0	0	0	n/a	n/a	n/a	n/a	n/a
1789664	REC_WORD	wordpools/wasnorm_wordpool_less_exclusions.txt	LTP247	ltpFR	12	8	1	JUDGE	761	n/a	n/a	1	n/a	0	0	0	n/a	n/a	n/a	n/a	n/a
1790291	REC_WORD	wordpools/wasnorm_wordpool_less_exclusions.txt	LTP247	ltpFR	12	8	1	WITNESS	1618	n/a	n/a	1	n/a	0	0	0	n/a	n/a	n/a	n/a	n/a
1790856	REC_WORD	wordpools/wasnorm_wordpool_less_exclusions.txt	LTP247	ltpFR	12	8	1	VAMPIRE	1547	n/a	n/a	1	n/a	0	0	0	n/a	n/a	n/a	n/a	n/a
1791924	REC_WORD	wordpools/wasnorm_wordpool_less_exclusions.txt	LTP247	ltpFR	12	8	1	MAN	862	n/a	n/a	1	n/a	0	0	0	n/a	n/a	n/a	n/a	n/a
1792574	REC_WORD	wordpools/wasnorm_wordpool_less_exclusions.txt	LTP247	ltpFR	12	8	1	FELLOW	558	n/a	n/a	1	n/a	0	0	0	n/a	n/a	n/a	n/a	n/a
1793372	REC_WORD	wordpools/wasnorm_wordpool_less_exclusions.txt	LTP247	ltpFR	12	8	1	RECEPTIONIST	1174	n/a	n/a	1	n/a	0	0	0	n/a	n/a	n/a	n/a	n/a
1794372	REC_WORD_VV	wordpools/wasnorm_wordpool_less_exclusions.txt	LTP247	ltpFR	12	8	n/a	<>	-1	n/a	n/a	n/a	n/a	0	0	0	n/a	n/a	n/a	n/a	n/a
1799467	REC_WORD	wordpools/wasnorm_wordpool_less_exclusions.txt	LTP247	ltpFR	12	8	1	TAIL	1430	n/a	n/a	0	n/a	0	0	0	n/a	n/a	n/a	n/a	n/a
1800140	REC_WORD	wordpools/wasnorm_wordpool_less_exclusions.txt	LTP247	ltpFR	12	8	1	BADGE	68	n/a	n/a	0	n/a	0	0	0	n/a	n/a	n/a	n/a	n/a
1872372	WORD	wordpools/wasnorm_wordpool_less_exclusions.txt	LTP247	ltpFR	12	9	0	POTATO	1115	n/a	n/a	0	n/a	0	0	0	0.57763671875	0.412841796875	1	upper	zerothre.ttf
1876556	WORD	wordpools/wasnorm_wordpool_less_exclusions.txt	LTP247	ltpFR	12	9	0	BUCKET	184	n/a	n/a	1	n/a	0	0	0	0.57763671875	0.412841796875	1	upper	zerothre.ttf
1880654	WORD	wordpools/wasnorm_wordpool_less_exclusions.txt	LTP247	ltpFR	12	9	0	PUMP	1141	n/a	n/a	1	n/a	0	0	0	0.57763671875	0.412841796875	1	upper	zerothre.ttf
1884753	WORD	wordpools/wasnorm_wordpool_less_exclusions.txt	LTP247	ltpFR	12	9	0	PEAR	1033	n/a	n/a	0	n/a	0	0	0	0.57763671875	0.412841796875	1	upper	zerothre.ttf
1888618	WORD	wordpools/wasnorm_wordpool_less_exclusions.txt	LTP247	ltpFR	12	9	0	VINE	1568	n/a	n/a	0	n/a	0	0	0	0.57763671875	0.412841796875	1	upper	zerothre.ttf
1892549	WORD	wordpools/wasnorm_wordpool_less_exclusions.txt	LTP247	ltpFR	12	9	0	SPACE	1345	n/a	n/a	1	n/a	0	0	0	0.57763671875	0.412841796875	1	upper	zerothre.ttf
1896460	WORD	wordpools/wasnorm_wordpool_less_exclusions.txt	LTP247	ltpFR	12	9	0	SUN	1406	n/a	n/a	1	n/a	0	0	0	0.57763671875	0.412841796875	1	upper	zerothre.ttf
1900327	WORD	wordpools/wasnorm_wordpool_less_exclusions.txt	LTP247	ltpFR	12	9	0	HOME	712	n/a	n/a	1	n/a	0	0	0	0.57763671875	0.412841796875	1	upper	zerothre.ttf
1904226	WORD	wordpools/wasnorm_wordpool_less_exclusions.txt	LTP247	ltpFR	12	9	0	MAYONNAISE	880	n/a	n/a	0	n/a	0	0	0	0.57763671875	0.412841796875	1	upper	zerothre.ttf
1908272	WORD	wordpools/wasnorm_wordpool_less_exclusions.txt	LTP247	ltpFR	12	9	0	SCARECROW	1245	n/a	n/a	1	n/a	0	0	0	0.57763671875	0.412841796875	1	upper	zerothre.ttf
1912353	WORD	wordpools/wasnorm_wordpool_less_exclusions.txt	LTP247	ltpFR	12	9	0	VINEGAR	1569	n/a	n/a	0	n/a	0	0	0	0.57763671875	0.412841796875	1	upper	zerothre.ttf
1916556	WORD	wordpools/wasnorm_wordpool_less_exclusions.txt	LTP247	ltpFR	12	9	0	STABLE	1363	n/a	n/a	1	n/a	0	0	0	0.57763671875	0.412841796875	1	upper	zerothre.ttf
1920552	WORD	wordpools/wasnorm_wordpool_less_exclusions.txt	LTP247	ltpFR	12	9	0	HAY	693	n/a	n/a	0	n/a	0	0	0	0.57763671875	0.412841796875	1	upper	zerothre.ttf
1924418	WORD	wordpools/wasnorm_wordpool_less_exclusions.txt	LTP247	ltpFR	12	9	0	HAMPER	682	n/a	n/a	1	n/a	0	0	0	0.57763671875	0.412841796875	1	upper	zerothre.ttf
1928585	WORD	wordpools/wasnorm_wordpool_less_exclusions.txt	LTP247	ltpFR	12	9	0	LAPEL	800	n/a	n/a	0	n/a	0	0	0	0.57763671875	0.412841796875	1	upper	zerothre.ttf
1932567	WORD	wordpools/wasnorm_wordpool_less_exclusions.txt	LTP247	ltpFR	12	9	0	CHERRY	293	n/a	n/a	0	n/a	0	0	0	0.57763671875	0.412841796875	1	upper	zerothre.ttf
1935578	START	n/a	LTP247	ltpFR	12	n/a	n/a	n/a	n/a	n/a	n/a	n/a	n/a	n/a	n/a	n/a	n/a	n/a	n/a	n/a	n/a
1936464	PROB	n/a	LTP247	ltpFR	12	n/a	n/a	n/a	n/a	n/a	n/a	n/a	15	1	6	8	n/a	n/a	n/a	n/a	n/a
1938753	PROB	n/a	LTP247	ltpFR	12	n/a	n/a	n/a	n/a	n/a	n/a	n/a	17	5	7	5	n/a	n/a	n/a	n/a	n/a
1940192	PROB	n/a	LTP247	ltpFR	12	n/a	n/a	n/a	n/a	n/a	n/a	n/a	18	7	2	9	n/a	n/a	n/a	n/a	n/a
1942233	PROB	n/a	LTP247	ltpFR	12	n/a	n/a	n/a	n/a	n/a	n/a	n/a	9	1	5	3	n/a	n/a	n/a	n/a	n/a
1944144	PROB	n/a	LTP247	ltpFR	12	n/a	n/a	n/a	n/a	n/a	n/a	n/a	17	7	3	7	n/a	n/a	n/a	n/a	n/a
1945495	PROB	n/a	LTP247	ltpFR	12	n/a	n/a	n/a	n/a	n/a	n/a	n/a	16	7	7	2	n/a	n/a	n/a	n/a	n/a
1946887	PROB	n/a	LTP247	ltpFR	12	n/a	n/a	n/a	n/a	n/a	n/a	n/a	17	8	2	7	n/a	n/a	n/a	n/a	n/a
1948289	PROB	n/a	LTP247	ltpFR	12	n/a	n/a	n/a	n/a	n/a	n/a	n/a	20	3	8	9	n/a	n/a	n/a	n/a	n/a
1950315	STOP	n/a	LTP247	ltpFR	12	n/a	n/a	n/a	n/a	n/a	n/a	n/a	n/a	n/a	n/a	n/a	n/a	n/a	n/a	n/a	n/a
1953462	REC_START	n/a	LTP247	ltpFR	12	9	n/a	n/a	n/a	n/a	n/a	n/a	n/a	0	0	0	n/a	n/a	n/a	n/a	n/a
1957243	REC_WORD	wordpools/wasnorm_wordpool_less_exclusions.txt	LTP247	ltpFR	12	9	0	MAYONNAISE	880	n/a	n/a	0	n/a	0	0	0	n/a	n/a	n/a	n/a	n/a
1958221	REC_WORD	wordpools/wasnorm_wordpool_less_exclusions.txt	LTP247	ltpFR	12	9	0	VINEGAR	1569	n/a	n/a	0	n/a	0	0	0	n/a	n/a	n/a	n/a	n/a
1959264	REC_WORD	wordpools/wasnorm_wordpool_less_exclusions.txt	LTP247	ltpFR	12	9	0	PEAR	1033	n/a	n/a	0	n/a	0	0	0	n/a	n/a	n/a	n/a	n/a
1960118	REC_WORD	wordpools/wasnorm_wordpool_less_exclusions.txt	LTP247	ltpFR	12	9	0	POTATO	1115	n/a	n/a	0	n/a	0	0	0	n/a	n/a	n/a	n/a	n/a
1961375	REC_WORD	wordpools/wasnorm_wordpool_less_exclusions.txt	LTP247	ltpFR	12	9	0	BUCKET	184	n/a	n/a	1	n/a	0	0	0	n/a	n/a	n/a	n/a	n/a
1962312	REC_WORD	wordpools/wasnorm_wordpool_less_exclusions.txt	LTP247	ltpFR	12	9	0	SCARECROW	1245	n/a	n/a	1	n/a	0	0	0	n/a	n/a	n/a	n/a	n/a
1963506	REC_WORD	wordpools/wasnorm_wordpool_less_exclusions.txt	LTP247	ltpFR	12	9	0	SPACE	1345	n/a	n/a	1	n/a	0	0	0	n/a	n/a	n/a	n/a	n/a
1964621	REC_WORD	wordpools/wasnorm_wordpool_less_exclusions.txt	LTP247	ltpFR	12	9	0	SUN	1406	n/a	n/a	1	n/a	0	0	0	n/a	n/a	n/a	n/a	n/a
1965785	REC_WORD	wordpools/wasnorm_wordpool_less_exclusions.txt	LTP247	ltpFR	12	9	0	LAPEL	800	n/a	n/a	0	n/a	0	0	0	n/a	n/a	n/a	n/a	n/a
1969460	REC_WORD	wordpools/wasnorm_wordpool_less_exclusions.txt	LTP247	ltpFR	12	9	0	PUMP	1141	n/a	n/a	1	n/a	0	0	0	n/a	n/a	n/a	n/a	n/a
2035187	WORD	wordpools/wasnorm_wordpool_less_exclusions.txt	LTP247	ltpFR	12	10	0	BLUEJAY	141	n/a	n/a	0	n/a	0	0	0	0.57763671875	0.412841796875	1	upper	zerothre.ttf
2039168	WORD	wordpools/wasnorm_wordpool_less_exclusions.txt	LTP247	ltpFR	12	10	0	CAB	209	n/a	n/a	1	n/a	0	0	0	0.57763671875	0.412841796875	1	upper	zerothre.ttf
2043000	WORD	wordpools/wasnorm_wordpool_less_exclusions.txt	LTP247	ltpFR	12	10	0	SPOON	1357	n/a	n/a	0	n/a	0	0	0	0.57763671875	0.412841796875	1	upper	zerothre.ttf
2046914	WORD	wordpools/wasnorm_wordpool_less_exclusions.txt	LTP247	ltpFR	12	10	0	TOTE	1487	n/a	n/a	0	n/a	0	0	0	0.57763671875	0.412841796875	1	upper	zerothre.ttf
2051080	WORD	wordpools/wasnorm_wordpool_less_exclusions.txt	LTP247	ltpFR	12	10	1	SWAN	1417	n/a	n/a	1	n/a	0	0	0	0.422607421875	0.5869140625	0	lower	amplitud.ttf
2054995	WORD	wordpools/wasnorm_wordpool_less_exclusions.txt	LTP247	ltpFR	12	10	1	MOTOR	922	n/a	n/a	0	n/a	0	0	0	0.422607421875	0.5869140625	0	lower	amplitud.ttf
2058826	WORD	wordpools/wasnorm_wordpool_less_exclusions.txt	LTP247	ltpFR	12	10	0	LAKE	796	n/a	n/a	1	n/a	0	0	0	0.57763671875	0.412841796875	1	upper	zerothre.ttf
2062707	WORD	wordpools/wasnorm_wordpool_less_exclusions.txt	LTP247	ltpFR	12	10	0	SWIMMER	1420	n/a	n/a	1	n/a	0	0	0	0.57763671875	0.412841796875	1	upper	zerothre.ttf
2066870	WORD	wordpools/wasnorm_wordpool_less_exclusions.txt	LTP247	ltpFR	12	10	0	DOCUMENT	479	n/a	n/a	0	n/a	0	0	0	0.57763671875	0.412841796875	1	upper	zerothre.ttf
2071072	WORD	wordpools/wasnorm_wordpool_less_exclusions.txt	LTP247	ltpFR	12	10	0	CONDUCTOR	362	n/a	n/a	1	n/a	0	0	0	0.57763671875	0.412841796875	1	upper	zerothre.ttf
2075084	WORD	wordpools/wasnorm_wordpool_less_exclusions.txt	LTP247	ltpFR	12	10	1	TAG	1429	n/a	n/a	0	n/a	0	0	0	0.422607421875	0.5869140625	0	lower	amplitud.ttf
2079002	WORD	wordpools/wasnorm_wordpool_less_exclusions.txt	LTP247	ltpFR	12	10	1	DUCK	504	n/a	n/a	1	n/a	0	0	0	0.422607421875	0.5869140625	0	lower	amplitud.ttf
2082900	WORD	wordpools/wasnorm_wordpool_less_exclusions.txt	LTP247	ltpFR	12	10	1	LACE	792	n/a	n/a	0	n/a	0	0	0	0.422607421875	0.5869140625	0	lower	amplitud.ttf
2086848	WORD	wordpools/wasnorm_wordpool_less_exclusions.txt	LTP247	ltpFR	12	10	1	ROBE	1198	n/a	n/a	0	n/a	0	0	0	0.422607421875	0.5869140625	0	lower	amplitud.ttf
2091047	WORD	wordpools/wasnorm_wordpool_less_exclusions.txt	LTP247	ltpFR	12	10	1	RAFT	1159	n/a	n/a	0	n/a	0	0	0	0.422607421875	0.5869140625	0	lower	amplitud.ttf
2094979	WORD	wordpools/wasnorm_wordpool_less_exclusions.txt	LTP247	ltpFR	12	10	1	HOSE	720	n/a	n/a	0	n/a	0	0	0	0.422607421875	0.5869140625	0	lower	amplitud.ttf
2098007	START	n/a	LTP247	ltpFR	12	n/a	n/a	n/a	n/a	n/a	n/a	n/a	n/a	n/a	n/a	n/a	n/a	n/a	n/a	n/a	n/a
2098857	PROB	n/a	LTP247	ltpFR	12	n/a	n/a	n/a	n/a	n/a	n/a	n/a	10	6	2	2	n/a	n/a	n/a	n/a	n/a
2100714	PROB	n/a	LTP247	ltpFR	12	n/a	n/a	n/a	n/a	n/a	n/a	n/a	14	1	6	7	n/a	n/a	n/a	n/a	n/a
2102621	PROB	n/a	LTP247	ltpFR	12	n/a	n/a	n/a	n/a	n/a	n/a	n/a	14	2	5	7	n/a	n/a	n/a	n/a	n/a
2103893	PROB	n/a	LTP247	ltpFR	12	n/a	n/a	n/a	n/a	n/a	n/a	n/a	9	2	3	4	n/a	n/a	n/a	n/a	n/a
2105004	STOP	n/a	LTP247	ltpFR	12	n/a	n/a	n/a	n/a	n/a	n/a	n/a	n/a	n/a	n/a	n/a	n/a	n/a	n/a	n/a	n/a
2107912	REC_START	n/a	LTP247	ltpFR	12	10	n/a	n/a	n/a	n/a	n/a	n/a	n/a	0	0	0	n/a	n/a	n/a	n/a	n/a
2110012	REC_WORD	wordpools/wasnorm_wordpool_less_exclusions.txt	LTP247	ltpFR	12	10	1	RAFT	1159	n/a	n/a	0	n/a	0	0	0	n/a	n/a	n/a	n/a	n/a
2110760	REC_WORD	wordpools/wasnorm_wordpool_less_exclusions.txt	LTP247	ltpFR	12	10	1	HOSE	720	n/a	n/a	0	n/a	0	0	0	n/a	n/a	n/a	n/a	n/a
2111863	REC_WORD	wordpools/wasnorm_wordpool_less_exclusions.txt	LTP247	ltpFR	12	10	1	TAG	1429	n/a	n/a	0	n/a	0	0	0	n/a	n/a	n/a	n/a	n/a
2113030	REC_WORD	wordpools/wasnorm_wordpool_less_exclusions.txt	LTP247	ltpFR	12	10	1	DUCK	504	n/a	n/a	1	n/a	0	0	0	n/a	n/a	n/a	n/a	n/a
2115505	REC_WORD	wordpools/wasnorm_wordpool_less_exclusions.txt	LTP247	ltpFR	12	10	1	SWAN	1417	n/a	n/a	1	n/a	0	0	0	n/a	n/a	n/a	n/a	n/a
2116612	REC_WORD	wordpools/wasnorm_wordpool_less_exclusions.txt	LTP247	ltpFR	12	10	0	DOCUMENT	479	n/a	n/a	0	n/a	0	0	0	n/a	n/a	n/a	n/a	n/a
2117345	REC_WORD	wordpools/wasnorm_wordpool_less_exclusions.txt	LTP247	ltpFR	12	10	0	LAKE	796	n/a	n/a	1	n/a	0	0	0	n/a	n/a	n/a	n/a	n/a
2119835	REC_WORD	wordpools/wasnorm_wordpool_less_exclusions.txt	LTP247	ltpFR	12	10	0	BLUEJAY	141	n/a	n/a	0	n/a	0	0	0	n/a	n/a	n/a	n/a	n/a
2183559	REST_REWET	n/a	LTP247	ltpFR	12	10	n/a	n/a	n/a	n/a	n/a	n/a	n/a	0	0	0	n/a	n/a	n/a	n/a	n/a
2537781	START	n/a	LTP247	ltpFR	12	n/a	n/a	n/a	n/a	n/a	n/a	n/a	n/a	n/a	n/a	n/a	n/a	n/a	n/a	n/a	n/a
2539287	PROB	n/a	LTP247	ltpFR	12	n/a	n/a	n/a	n/a	n/a	n/a	n/a	12	3	7	2	n/a	n/a	n/a	n/a	n/a
2541144	PROB	n/a	LTP247	ltpFR	12	n/a	n/a	n/a	n/a	n/a	n/a	n/a	14	2	9	3	n/a	n/a	n/a	n/a	n/a
2543014	PROB	n/a	LTP247	ltpFR	12	n/a	n/a	n/a	n/a	n/a	n/a	n/a	2	8	3	1	n/a	n/a	n/a	n/a	n/a
2544212	STOP	n/a	LTP247	ltpFR	12	n/a	n/a	n/a	n/a	n/a	n/a	n/a	n/a	n/a	n/a	n/a	n/a	n/a	n/a	n/a	n/a
2546848	WORD	wordpools/wasnorm_wordpool_less_exclusions.txt	LTP247	ltpFR	12	11	1	OUTFIT	988	n/a	n/a	0	n/a	0	0	0	0.422607421875	0.5869140625	0	lower	amplitud.ttf
2549860	START	n/a	LTP247	ltpFR	12	n/a	n/a	n/a	n/a	n/a	n/a	n/a	n/a	n/a	n/a	n/a	n/a	n/a	n/a	n/a	n/a
2550743	PROB	n/a	LTP247	ltpFR	12	n/a	n/a	n/a	n/a	n/a	n/a	n/a	16	8	3	5	n/a	n/a	n/a	n/a	n/a
2552249	PROB	n/a	LTP247	ltpFR	12	n/a	n/a	n/a	n/a	n/a	n/a	n/a	14	2	6	6	n/a	n/a	n/a	n/a	n/a
2554574	PROB	n/a	LTP247	ltpFR	12	n/a	n/a	n/a	n/a	n/a	n/a	n/a	14	7	5	2	n/a	n/a	n/a	n/a	n/a
2556284	STOP	n/a	LTP247	ltpFR	12	n/a	n/a	n/a	n/a	n/a	n/a	n/a	n/a	n/a	n/a	n/a	n/a	n/a	n/a	n/a	n/a
2559011	WORD	wordpools/wasnorm_wordpool_less_exclusions.txt	LTP247	ltpFR	12	11	1	GARDEN	623	n/a	n/a	0	n/a	0	0	0	0.422607421875	0.5869140625	0	lower	amplitud.ttf
2562023	START	n/a	LTP247	ltpFR	12	n/a	n/a	n/a	n/a	n/a	n/a	n/a	n/a	n/a	n/a	n/a	n/a	n/a	n/a	n/a	n/a
2562942	PROB	n/a	LTP247	ltpFR	12	n/a	n/a	n/a	n/a	n/a	n/a	n/a	10	1	1	8	n/a	n/a	n/a	n/a	n/a
2564360	PROB	n/a	LTP247	ltpFR	12	n/a	n/a	n/a	n/a	n/a	n/a	n/a	19	3	8	8	n/a	n/a	n/a	n/a	n/a
2566272	PROB	n/a	LTP247	ltpFR	12	n/a	n/a	n/a	n/a	n/a	n/a	n/a	9	3	1	5	n/a	n/a	n/a	n/a	n/a
2567928	PROB	n/a	LTP247	ltpFR	12	n/a	n/a	n/a	n/a	n/a	n/a	n/a	12	2	2	8	n/a	n/a	n/a	n/a	n/a
2569284	STOP	n/a	LTP247	ltpFR	12	n/a	n/a	n/a	n/a	n/a	n/a	n/a	n/a	n/a	n/a	n/a	n/a	n/a	n/a	n/a	n/a
2570903	WORD	wordpools/wasnorm_wordpool_less_exclusions.txt	LTP247	ltpFR	12	11	0	POLITICIAN	1099	n/a	n/a	1	n/a	0	0	0	0.57763671875	0.412841796875	1	upper	zerothre.ttf
2573918	START	n/a	LTP247	ltpFR	12	n/a	n/a	n/a	n/a	n/a	n/a	n/a	n/a	n/a	n/a	n/a	n/a	n/a	n/a	n/a	n/a
2575004	PROB	n/a	LTP247	ltpFR	12	n/a	n/a	n/a	n/a	n/a	n/a	n/a	23	9	9	5	n/a	n/a	n/a	n/a	n/a
2576775	PROB	n/a	LTP247	ltpFR	12	n/a	n/a	n/a	n/a	n/a	n/a	n/a	21	8	9	4	n/a	n/a	n/a	n/a	n/a
2578699	PROB	n/a	LTP247	ltpFR	12	n/a	n/a	n/a	n/a	n/a	n/a	n/a	11	4	5	2	n/a	n/a	n/a	n/a	n/a
2580040	PROB	n/a	LTP247	ltpFR	12	n/a	n/a	n/a	n/a	n/a	n/a	n/a	16	7	8	1	n/a	n/a	n/a	n/a	n/a
2581348	STOP	n/a	LTP247	ltpFR	12	n/a	n/a	n/a	n/a	n/a	n/a	n/a	n/a	n/a	n/a	n/a	n/a	n/a	n/a	n/a	n/a
2582801	WORD	wordpools/wasnorm_wordpool_less_exclusions.txt	LTP247	ltpFR	12	11	0	CREW	406	n/a	n/a	1	n/a	0	0	0	0.57763671875	0.412841796875	1	upper	zerothre.ttf
2585813	START	n/a	LTP247	ltpFR	12	n/a	n/a	n/a	n/a	n/a	n/a	n/a	n/a	n/a	n/a	n/a	n/a	n/a	n/a	n/a	n/a
2587017	PROB	n/a	LTP247	ltpFR	12	n/a	n/a	n/a	n/a	n/a	n/a	n/a	14	3	6	5	n/a	n/a	n/a	n/a	n/a
2588820	PROB	n/a	LTP247	ltpFR	12	n/a	n/a	n/a	n/a	n/a	n/a	n/a	11	3	4	4	n/a	n/a	n/a	n/a	n/a
2590647	PROB	n/a	LTP247	ltpFR	12	n/a	n/a	n/a	n/a	n/a	n/a	n/a	13	7	3	3	n/a	n/a	n/a	n/a	n/a
2593812	STOP	n/a	LTP247	ltpFR	12	n/a	n/a	n/a	n/a	n/a	n/a	n/a	n/a	n/a	n/a	n/a	n/a	n/a	n/a	n/a	n/a
2594695	WORD	wordpools/wasnorm_wordpool_less_exclusions.txt	LTP247	ltpFR	12	11	0	SCALLOP	1242	n/a	n/a	0	n/a	0	0	0	0.57763671875	0.412841796875	1	upper	zerothre.ttf
2597707	START	n/a	LTP247	ltpFR	12	n/a	n/a	n/a	n/a	n/a	n/a	n/a	n/a	n/a	n/a	n/a	n/a	n/a	n/a	n/a	n/a
2598744	PROB	n/a	LTP247	ltpFR	12	n/a	n/a	n/a	n/a	n/a	n/a	n/a	12	9	1	2	n/a	n/a	n/a	n/a	n/a
2600183	PROB	n/a	LTP247	ltpFR	12	n/a	n/a	n/a	n/a	n/a	n/a	n/a	18	5	9	4	n/a	n/a	n/a	n/a	n/a
2601839	PROB	n/a	LTP247	ltpFR	12	n/a	n/a	n/a	n/a	n/a	n/a	n/a	11	8	1	2	n/a	n/a	n/a	n/a	n/a
2603626	PROB	n/a	LTP247	ltpFR	12	n/a	n/a	n/a	n/a	n/a	n/a	n/a	7	4	2	1	n/a	n/a	n/a	n/a	n/a
2605020	STOP	n/a	LTP247	ltpFR	12	n/a	n/a	n/a	n/a	n/a	n/a	n/a	n/a	n/a	n/a	n/a	n/a	n/a	n/a	n/a	n/a
2606771	WORD	wordpools/wasnorm_wordpool_less_exclusions.txt	LTP247	ltpFR	12	11	1	ENGINEER	536	n/a	n/a	1	n/a	0	0	0	0.422607421875	0.5869140625	0	lower	amplitud.ttf
2609786	START	n/a	LTP247	ltpFR	12	n/a	n/a	n/a	n/a	n/a	n/a	n/a	n/a	n/a	n/a	n/a	n/a	n/a	n/a	n/a	n/a
2610756	PROB	n/a	LTP247	ltpFR	12	n/a	n/a	n/a	n/a	n/a	n/a	n/a	16	9	4	3	n/a	n/a	n/a	n/a	n/a
2612358	PROB	n/a	LTP247	ltpFR	12	n/a	n/a	n/a	n/a	n/a	n/a	n/a	14	5	4	5	n/a	n/a	n/a	n/a	n/a
2614318	PROB	n/a	LTP247	ltpFR	12	n/a	n/a	n/a	n/a	n/a	n/a	n/a	21	7	6	8	n/a	n/a	n/a	n/a	n/a
2615788	PROB	n/a	LTP247	ltpFR	12	n/a	n/a	n/a	n/a	n/a	n/a	n/a	17	7	7	3	n/a	n/a	n/a	n/a	n/a
2617148	STOP	n/a	LTP247	ltpFR	12	n/a	n/a	n/a	n/a	n/a	n/a	n/a	n/a	n/a	n/a	n/a	n/a	n/a	n/a	n/a	n/a
2618937	WORD	wordpools/wasnorm_wordpool_less_exclusions.txt	LTP247	ltpFR	12	11	1	APRON	35	n/a	n/a	0	n/a	0	0	0	0.422607421875	0.5869140625	0	lower	amplitud.ttf
2621949	START	n/a	LTP247	ltpFR	12	n/a	n/a	n/a	n/a	n/a	n/a	n/a	n/a	n/a	n/a	n/a	n/a	n/a	n/a	n/a	n/a
2623086	PROB	n/a	LTP247	ltpFR	12	n/a	n/a	n/a	n/a	n/a	n/a	n/a	17	6	6	5	n/a	n/a	n/a	n/a	n/a
2624588	PROB	n/a	LTP247	ltpFR	12	n/a	n/a	n/a	n/a	n/a	n/a	n/a	16	8	5	3	n/a	n/a	n/a	n/a	n/a
2626161	PROB	n/a	LTP247	ltpFR	12	n/a	n/a	n/a	n/a	n/a	n/a	n/a	20	8	8	4	n/a	n/a	n/a	n/a	n/a
2627837	PROB	n/a	LTP247	ltpFR	12	n/a	n/a	n/a	n/a	n/a	n/a	n/a	15	4	6	5	n/a	n/a	n/a	n/a	n/a
2629468	STOP	n/a	LTP247	ltpFR	12	n/a	n/a	n/a	n/a	n/a	n/a	n/a	n/a	n/a	n/a	n/a	n/a	n/a	n/a	n/a	n/a
2631116	WORD	wordpools/wasnorm_wordpool_less_exclusions.txt	LTP247	ltpFR	12	11	1	WARDROBE	1587	n/a	n/a	0	n/a	0	0	0	0.422607421875	0.5869140625	0	lower	amplitud.ttf
2634128	START	n/a	LTP247	ltpFR	12	n/a	n/a	n/a	n/a	n/a	n/a	n/a	n/a	n/a	n/a	n/a	n/a	n/a	n/a	n/a	n/a
2635314	PROB	n/a	LTP247	ltpFR	12	n/a	n/a	n/a	n/a	n/a	n/a	n/a	13	3	5	5	n/a	n/a	n/a	n/a	n/a
2637135	PROB	n/a	LTP247	ltpFR	12	n/a	n/a	n/a	n/a	n/a	n/a	n/a	21	5	7	9	n/a	n/a	n/a	n/a	n/a
2639595	PROB	n/a	LTP247	ltpFR	12	n/a	n/a	n/a	n/a	n/a	n/a	n/a	10	2	4	4	n/a	n/a	n/a	n/a	n/a
2641676	STOP	n/a	LTP247	ltpFR	12	n/a	n/a	n/a	n/a	n/a	n/a	n/a	n/a	n/a	n/a	n/a	n/a	n/a	n/a	n/a	n/a
2643061	WORD	wordpools/wasnorm_wordpool_less_exclusions.txt	LTP247	ltpFR	12	11	1	LAUNDRY	803	n/a	n/a	0	n/a	0	0	0	0.422607421875	0.5869140625	0	lower	amplitud.ttf
2646073	START	n/a	LTP247	ltpFR	12	n/a	n/a	n/a	n/a	n/a	n/a	n/a	n/a	n/a	n/a	n/a	n/a	n/a	n/a	n/a	n/a
2647143	PROB	n/a	LTP247	ltpFR	12	n/a	n/a	n/a	n/a	n/a	n/a	n/a	7	3	2	2	n/a	n/a	n/a	n/a	n/a
2648967	PROB	n/a	LTP247	ltpFR	12	n/a	n/a	n/a	n/a	n/a	n/a	n/a	21	7	5	9	n/a	n/a	n/a	n/a	n/a
2650401	PROB	n/a	LTP247	ltpFR	12	n/a	n/a	n/a	n/a	n/a	n/a	n/a	20	8	4	8	n/a	n/a	n/a	n/a	n/a
2651975	PROB	n/a	LTP247	ltpFR	12	n/a	n/a	n/a	n/a	n/a	n/a	n/a	16	5	8	3	n/a	n/a	n/a	n/a	n/a
2653540	STOP	n/a	LTP247	ltpFR	12	n/a	n/a	n/a	n/a	n/a	n/a	n/a	n/a	n/a	n/a	n/a	n/a	n/a	n/a	n/a	n/a
2654972	WORD	wordpools/wasnorm_wordpool_less_exclusions.txt	LTP247	ltpFR	12	11	1	DRESSER	496	n/a	n/a	0	n/a	0	0	0	0.422607421875	0.5869140625	0	lower	amplitud.ttf
2657984	START	n/a	LTP247	ltpFR	12	n/a	n/a	n/a	n/a	n/a	n/a	n/a	n/a	n/a	n/a	n/a	n/a	n/a	n/a	n/a	n/a
2658837	PROB	n/a	LTP247	ltpFR	12	n/a	n/a	n/a	n/a	n/a	n/a	n/a	4	1	2	1	n/a	n/a	n/a	n/a	n/a
2660775	PROB	n/a	LTP247	ltpFR	12	n/a	n/a	n/a	n/a	n/a	n/a	n/a	19	4	8	7	n/a	n/a	n/a	n/a	n/a
2662180	PROB	n/a	LTP247	ltpFR	12	n/a	n/a	n/a	n/a	n/a	n/a	n/a	15	2	9	4	n/a	n/a	n/a	n/a	n/a
2663585	PROB	n/a	LTP247	ltpFR	12	n/a	n/a	n/a	n/a	n/a	n/a	n/a	14	5	4	5	n/a	n/a	n/a	n/a	n/a
2664860	STOP	n/a	LTP247	ltpFR	12	n/a	n/a	n/a	n/a	n/a	n/a	n/a	n/a	n/a	n/a	n/a	n/a	n/a	n/a	n/a	n/a
2666867	WORD	wordpools/wasnorm_wordpool_less_exclusions.txt	LTP247	ltpFR	12	11	1	PLANT	1083	n/a	n/a	0	n/a	0	0	0	0.422607421875	0.5869140625	0	lower	amplitud.ttf
2669879	START	n/a	LTP247	ltpFR	12	n/a	n/a	n/a	n/a	n/a	n/a	n/a	n/a	n/a	n/a	n/a	n/a	n/a	n/a	n/a	n/a
2670846	PROB	n/a	LTP247	ltpFR	12	n/a	n/a	n/a	n/a	n/a	n/a	n/a	14	2	3	9	n/a	n/a	n/a	n/a	n/a
2672552	PROB	n/a	LTP247	ltpFR	12	n/a	n/a	n/a	n/a	n/a	n/a	n/a	15	3	7	5	n/a	n/a	n/a	n/a	n/a
2674075	PROB	n/a	LTP247	ltpFR	12	n/a	n/a	n/a	n/a	n/a	n/a	n/a	12	6	5	1	n/a	n/a	n/a	n/a	n/a
2675631	PROB	n/a	LTP247	ltpFR	12	n/a	n/a	n/a	n/a	n/a	n/a	n/a	16	6	1	9	n/a	n/a	n/a	n/a	n/a
2677491	STOP	n/a	LTP247	ltpFR	12	n/a	n/a	n/a	n/a	n/a	n/a	n/a	n/a	n/a	n/a	n/a	n/a	n/a	n/a	n/a	n/a
2678792	WORD	wordpools/wasnorm_wordpool_less_exclusions.txt	LTP247	ltpFR	12	11	0	BALLOT	76	n/a	n/a	0	n/a	0	0	0	0.57763671875	0.412841796875	1	upper	zerothre.ttf
2681808	START	n/a	LTP247	ltpFR	12	n/a	n/a	n/a	n/a	n/a	n/a	n/a	n/a	n/a	n/a	n/a	n/a	n/a	n/a	n/a	n/a
2682808	PROB	n/a	LTP247	ltpFR	12	n/a	n/a	n/a	n/a	n/a	n/a	n/a	24	8	9	7	n/a	n/a	n/a	n/a	n/a
2685049	PROB	n/a	LTP247	ltpFR	12	n/a	n/a	n/a	n/a	n/a	n/a	n/a	15	4	4	7	n/a	n/a	n/a	n/a	n/a
2686689	PROB	n/a	LTP247	ltpFR	12	n/a	n/a	n/a	n/a	n/a	n/a	n/a	17	9	7	1	n/a	n/a	n/a	n/a	n/a
2688030	PROB	n/a	LTP247	ltpFR	12	n/a	n/a	n/a	n/a	n/a	n/a	n/a	15	8	4	3	n/a	n/a	n/a	n/a	n/a
2689244	STOP	n/a	LTP247	ltpFR	12	n/a	n/a	n/a	n/a	n/a	n/a	n/a	n/a	n/a	n/a	n/a	n/a	n/a	n/a	n/a	n/a
2690938	WORD	wordpools/wasnorm_wordpool_less_exclusions.txt	LTP247	ltpFR	12	11	0	OVAL	990	n/a	n/a	0	n/a	0	0	0	0.57763671875	0.412841796875	1	upper	zerothre.ttf
2693953	START	n/a	LTP247	ltpFR	12	n/a	n/a	n/a	n/a	n/a	n/a	n/a	n/a	n/a	n/a	n/a	n/a	n/a	n/a	n/a	n/a
2695040	PROB	n/a	LTP247	ltpFR	12	n/a	n/a	n/a	n/a	n/a	n/a	n/a	9	5	1	3	n/a	n/a	n/a	n/a	n/a
2696794	PROB	n/a	LTP247	ltpFR	12	n/a	n/a	n/a	n/a	n/a	n/a	n/a	15	9	5	1	n/a	n/a	n/a	n/a	n/a
2698082	PROB	n/a	LTP247	ltpFR	12	n/a	n/a	n/a	n/a	n/a	n/a	n/a	17	8	3	6	n/a	n/a	n/a	n/a	n/a
2699521	PROB	n/a	LTP247	ltpFR	12	n/a	n/a	n/a	n/a	n/a	n/a	n/a	14	8	5	1	n/a	n/a	n/a	n/a	n/a
2701268	STOP	n/a	LTP247	ltpFR	12	n/a	n/a	n/a	n/a	n/a	n/a	n/a	n/a	n/a	n/a	n/a	n/a	n/a	n/a	n/a	n/a
2702970	WORD	wordpools/wasnorm_wordpool_less_exclusions.txt	LTP247	ltpFR	12	11	0	HOOP	716	n/a	n/a	0	n/a	0	0	0	0.57763671875	0.412841796875	1	upper	zerothre.ttf
2705982	START	n/a	LTP247	ltpFR	12	n/a	n/a	n/a	n/a	n/a	n/a	n/a	n/a	n/a	n/a	n/a	n/a	n/a	n/a	n/a	n/a
2706901	PROB	n/a	LTP247	ltpFR	12	n/a	n/a	n/a	n/a	n/a	n/a	n/a	15	2	5	8	n/a	n/a	n/a	n/a	n/a
2708503	PROB	n/a	LTP247	ltpFR	12	n/a	n/a	n/a	n/a	n/a	n/a	n/a	22	8	6	8	n/a	n/a	n/a	n/a	n/a
2709960	PROB	n/a	LTP247	ltpFR	12	n/a	n/a	n/a	n/a	n/a	n/a	n/a	23	8	8	7	n/a	n/a	n/a	n/a	n/a
2712796	STOP	n/a	LTP247	ltpFR	12	n/a	n/a	n/a	n/a	n/a	n/a	n/a	n/a	n/a	n/a	n/a	n/a	n/a	n/a	n/a	n/a
2715079	WORD	wordpools/wasnorm_wordpool_less_exclusions.txt	LTP247	ltpFR	12	11	0	GLUE	643	n/a	n/a	0	n/a	0	0	0	0.57763671875	0.412841796875	1	upper	zerothre.ttf
2718094	START	n/a	LTP247	ltpFR	12	n/a	n/a	n/a	n/a	n/a	n/a	n/a	n/a	n/a	n/a	n/a	n/a	n/a	n/a	n/a	n/a
2718914	PROB	n/a	LTP247	ltpFR	12	n/a	n/a	n/a	n/a	n/a	n/a	n/a	14	4	6	4	n/a	n/a	n/a	n/a	n/a
2720499	PROB	n/a	LTP247	ltpFR	12	n/a	n/a	n/a	n/a	n/a	n/a	n/a	26	9	9	8	n/a	n/a	n/a	n/a	n/a
2722725	PROB	n/a	LTP247	ltpFR	12	n/a	n/a	n/a	n/a	n/a	n/a	n/a	12	5	3	4	n/a	n/a	n/a	n/a	n/a
2724383	PROB	n/a	LTP247	ltpFR	12	n/a	n/a	n/a	n/a	n/a	n/a	n/a	18	8	8	2	n/a	n/a	n/a	n/a	n/a
2725996	STOP	n/a	LTP247	ltpFR	12	n/a	n/a	n/a	n/a	n/a	n/a	n/a	n/a	n/a	n/a	n/a	n/a	n/a	n/a	n/a	n/a
2727262	WORD	wordpools/wasnorm_wordpool_less_exclusions.txt	LTP247	ltpFR	12	11	0	TAR	1435	n/a	n/a	0	n/a	0	0	0	0.57763671875	0.412841796875	1	upper	zerothre.ttf
2730273	START	n/a	LTP247	ltpFR	12	n/a	n/a	n/a	n/a	n/a	n/a	n/a	n/a	n/a	n/a	n/a	n/a	n/a	n/a	n/a	n/a
2731293	PROB	n/a	LTP247	ltpFR	12	n/a	n/a	n/a	n/a	n/a	n/a	n/a	16	8	5	3	n/a	n/a	n/a	n/a	n/a
2732913	PROB	n/a	LTP247	ltpFR	12	n/a	n/a	n/a	n/a	n/a	n/a	n/a	15	6	3	6	n/a	n/a	n/a	n/a	n/a
2734820	PROB	n/a	LTP247	ltpFR	12	n/a	n/a	n/a	n/a	n/a	n/a	n/a	19	7	7	5	n/a	n/a	n/a	n/a	n/a
2736242	PROB	n/a	LTP247	ltpFR	12	n/a	n/a	n/a	n/a	n/a	n/a	n/a	25	9	8	8	n/a	n/a	n/a	n/a	n/a
2737964	STOP	n/a	LTP247	ltpFR	12	n/a	n/a	n/a	n/a	n/a	n/a	n/a	n/a	n/a	n/a	n/a	n/a	n/a	n/a	n/a	n/a
2740077	REC_START	n/a	LTP247	ltpFR	12	11	n/a	n/a	n/a	n/a	n/a	n/a	n/a	0	0	0	n/a	n/a	n/a	n/a	n/a
2742915	REC_WORD	wordpools/wasnorm_wordpool_less_exclusions.txt	LTP247	ltpFR	12	11	0	TAR	1435	n/a	n/a	0	n/a	0	0	0	n/a	n/a	n/a	n/a	n/a
2743753	REC_WORD	wordpools/wasnorm_wordpool_less_exclusions.txt	LTP247	ltpFR	12	11	0	GLUE	643	n/a	n/a	0	n/a	0	0	0	n/a	n/a	n/a	n/a	n/a
2744577	REC_WORD	wordpools/wasnorm_wordpool_less_exclusions.txt	LTP247	ltpFR	12	11	0	OVAL	990	n/a	n/a	0	n/a	0	0	0	n/a	n/a	n/a	n/a	n/a
2745355	REC_WORD	wordpools/wasnorm_wordpool_less_exclusions.txt	LTP247	ltpFR	12	11	0	HOOP	716	n/a	n/a	0	n/a	0	0	0	n/a	n/a	n/a	n/a	n/a
2747031	REC_WORD	wordpools/wasnorm_wordpool_less_exclusions.txt	LTP247	ltpFR	12	11	0	SCALLOP	1242	n/a	n/a	0	n/a	0	0	0	n/a	n/a	n/a	n/a	n/a
2748393	REC_WORD	wordpools/wasnorm_wordpool_less_exclusions.txt	LTP247	ltpFR	12	11	1	OUTFIT	988	n/a	n/a	0	n/a	0	0	0	n/a	n/a	n/a	n/a	n/a
2749485	REC_WORD	wordpools/wasnorm_wordpool_less_exclusions.txt	LTP247	ltpFR	12	11	1	GARDEN	623	n/a	n/a	0	n/a	0	0	0	n/a	n/a	n/a	n/a	n/a
2751900	REC_WORD	wordpools/wasnorm_wordpool_less_exclusions.txt	LTP247	ltpFR	12	11	0	POLITICIAN	1099	n/a	n/a	1	n/a	0	0	0	n/a	n/a	n/a	n/a	n/a
2753581	REC_WORD	wordpools/wasnorm_wordpool_less_exclusions.txt	LTP247	ltpFR	12	11	0	CREW	406	n/a	n/a	1	n/a	0	0	0	n/a	n/a	n/a	n/a	n/a
2755362	REC_WORD	wordpools/wasnorm_wordpool_less_exclusions.txt	LTP247	ltpFR	12	11	1	WARDROBE	1587	n/a	n/a	0	n/a	0	0	0	n/a	n/a	n/a	n/a	n/a
2758415	REC_WORD	wordpools/wasnorm_wordpool_less_exclusions.txt	LTP247	ltpFR	12	11	1	ENGINEER	536	n/a	n/a	1	n/a	0	0	0	n/a	n/a	n/a	n/a	n/a
2826215	START	n/a	LTP247	ltpFR	12	n/a	n/a	n/a	n/a	n/a	n/a	n/a	n/a	n/a	n/a	n/a	n/a	n/a	n/a	n/a	n/a
2827724	PROB	n/a	LTP247	ltpFR	12	n/a	n/a	n/a	n/a	n/a	n/a	n/a	10	1	2	7	n/a	n/a	n/a	n/a	n/a
2829159	PROB	n/a	LTP247	ltpFR	12	n/a	n/a	n/a	n/a	n/a	n/a	n/a	21	6	7	8	n/a	n/a	n/a	n/a	n/a
2830698	PROB	n/a	LTP247	ltpFR	12	n/a	n/a	n/a	n/a	n/a	n/a	n/a	16	7	6	3	n/a	n/a	n/a	n/a	n/a
2832288	PROB	n/a	LTP247	ltpFR	12	n/a	n/a	n/a	n/a	n/a	n/a	n/a	13	5	5	3	n/a	n/a	n/a	n/a	n/a
2833944	PROB	n/a	LTP247	ltpFR	12	n/a	n/a	n/a	n/a	n/a	n/a	n/a	9	7	1	1	n/a	n/a	n/a	n/a	n/a
2836055	PROB	n/a	LTP247	ltpFR	12	n/a	n/a	n/a	n/a	n/a	n/a	n/a	19	6	4	9	n/a	n/a	n/a	n/a	n/a
2837389	PROB	n/a	LTP247	ltpFR	12	n/a	n/a	n/a	n/a	n/a	n/a	n/a	12	1	9	2	n/a	n/a	n/a	n/a	n/a
2839214	PROB	n/a	LTP247	ltpFR	12	n/a	n/a	n/a	n/a	n/a	n/a	n/a	7	1	3	3	n/a	n/a	n/a	n/a	n/a
2840963	STOP	n/a	LTP247	ltpFR	12	n/a	n/a	n/a	n/a	n/a	n/a	n/a	n/a	n/a	n/a	n/a	n/a	n/a	n/a	n/a	n/a
2843398	WORD	wordpools/wasnorm_wordpool_less_exclusions.txt	LTP247	ltpFR	12	12	0	HAMMER	680	n/a	n/a	0	n/a	0	0	0	0.57763671875	0.412841796875	1	upper	zerothre.ttf
2846410	START	n/a	LTP247	ltpFR	12	n/a	n/a	n/a	n/a	n/a	n/a	n/a	n/a	n/a	n/a	n/a	n/a	n/a	n/a	n/a	n/a
2847565	PROB	n/a	LTP247	ltpFR	12	n/a	n/a	n/a	n/a	n/a	n/a	n/a	10	4	4	2	n/a	n/a	n/a	n/a	n/a
2848950	PROB	n/a	LTP247	ltpFR	12	n/a	n/a	n/a	n/a	n/a	n/a	n/a	17	5	4	8	n/a	n/a	n/a	n/a	n/a
2850391	PROB	n/a	LTP247	ltpFR	12	n/a	n/a	n/a	n/a	n/a	n/a	n/a	4	2	1	1	n/a	n/a	n/a	n/a	n/a
2852062	PROB	n/a	LTP247	ltpFR	12	n/a	n/a	n/a	n/a	n/a	n/a	n/a	9	1	1	7	n/a	n/a	n/a	n/a	n/a
2853400	PROB	n/a	LTP247	ltpFR	12	n/a	n/a	n/a	n/a	n/a	n/a	n/a	14	1	5	8	n/a	n/a	n/a	n/a	n/a
2855060	PROB	n/a	LTP247	ltpFR	12	n/a	n/a	n/a	n/a	n/a	n/a	n/a	17	6	7	4	n/a	n/a	n/a	n/a	n/a
2856546	PROB	n/a	LTP247	ltpFR	12	n/a	n/a	n/a	n/a	n/a	n/a	n/a	19	4	6	9	n/a	n/a	n/a	n/a	n/a
2857951	PROB	n/a	LTP247	ltpFR	12	n/a	n/a	n/a	n/a	n/a	n/a	n/a	11	3	7	1	n/a	n/a	n/a	n/a	n/a
2859159	PROB	n/a	LTP247	ltpFR	12	n/a	n/a	n/a	n/a	n/a	n/a	n/a	21	8	9	4	n/a	n/a	n/a	n/a	n/a
2862410	STOP	n/a	LTP247	ltpFR	12	n/a	n/a	n/a	n/a	n/a	n/a	n/a	n/a	n/a	n/a	n/a	n/a	n/a	n/a	n/a	n/a
2863308	WORD	wordpools/wasnorm_wordpool_less_exclusions.txt	LTP247	ltpFR	12	12	0	NAIL	936	n/a	n/a	0	n/a	0	0	0	0.57763671875	0.412841796875	1	upper	zerothre.ttf
2866319	START	n/a	LTP247	ltpFR	12	n/a	n/a	n/a	n/a	n/a	n/a	n/a	n/a	n/a	n/a	n/a	n/a	n/a	n/a	n/a	n/a
2867219	PROB	n/a	LTP247	ltpFR	12	n/a	n/a	n/a	n/a	n/a	n/a	n/a	17	8	4	5	n/a	n/a	n/a	n/a	n/a
2868611	PROB	n/a	LTP247	ltpFR	12	n/a	n/a	n/a	n/a	n/a	n/a	n/a	15	4	7	4	n/a	n/a	n/a	n/a	n/a
2870347	PROB	n/a	LTP247	ltpFR	12	n/a	n/a	n/a	n/a	n/a	n/a	n/a	13	5	2	6	n/a	n/a	n/a	n/a	n/a
2872074	PROB	n/a	LTP247	ltpFR	12	n/a	n/a	n/a	n/a	n/a	n/a	n/a	15	6	6	3	n/a	n/a	n/a	n/a	n/a
2873811	PROB	n/a	LTP247	ltpFR	12	n/a	n/a	n/a	n/a	n/a	n/a	n/a	17	7	3	7	n/a	n/a	n/a	n/a	n/a
2875618	PROB	n/a	LTP247	ltpFR	12	n/a	n/a	n/a	n/a	n/a	n/a	n/a	14	1	6	7	n/a	n/a	n/a	n/a	n/a
2877625	PROB	n/a	LTP247	ltpFR	12	n/a	n/a	n/a	n/a	n/a	n/a	n/a	8	4	3	1	n/a	n/a	n/a	n/a	n/a
2879047	PROB	n/a	LTP247	ltpFR	12	n/a	n/a	n/a	n/a	n/a	n/a	n/a	11	6	2	3	n/a	n/a	n/a	n/a	n/a
2880368	PROB	n/a	LTP247	ltpFR	12	n/a	n/a	n/a	n/a	n/a	n/a	n/a	8	3	1	4	n/a	n/a	n/a	n/a	n/a
2881892	STOP	n/a	LTP247	ltpFR	12	n/a	n/a	n/a	n/a	n/a	n/a	n/a	n/a	n/a	n/a	n/a	n/a	n/a	n/a	n/a	n/a
2883534	WORD	wordpools/wasnorm_wordpool_less_exclusions.txt	LTP247	ltpFR	12	12	0	REINDEER	1181	n/a	n/a	1	n/a	0	0	0	0.57763671875	0.412841796875	1	upper	zerothre.ttf
2886546	START	n/a	LTP247	ltpFR	12	n/a	n/a	n/a	n/a	n/a	n/a	n/a	n/a	n/a	n/a	n/a	n/a	n/a	n/a	n/a	n/a
2887582	PROB	n/a	LTP247	ltpFR	12	n/a	n/a	n/a	n/a	n/a	n/a	n/a	15	8	6	1	n/a	n/a	n/a	n/a	n/a
2888918	PROB	n/a	LTP247	ltpFR	12	n/a	n/a	n/a	n/a	n/a	n/a	n/a	15	2	6	7	n/a	n/a	n/a	n/a	n/a
2890995	PROB	n/a	LTP247	ltpFR	12	n/a	n/a	n/a	n/a	n/a	n/a	n/a	17	8	8	1	n/a	n/a	n/a	n/a	n/a
2892832	PROB	n/a	LTP247	ltpFR	12	n/a	n/a	n/a	n/a	n/a	n/a	n/a	22	8	8	6	n/a	n/a	n/a	n/a	n/a
2894471	PROB	n/a	LTP247	ltpFR	12	n/a	n/a	n/a	n/a	n/a	n/a	n/a	19	8	3	8	n/a	n/a	n/a	n/a	n/a
2895911	PROB	n/a	LTP247	ltpFR	12	n/a	n/a	n/a	n/a	n/a	n/a	n/a	7	1	1	5	n/a	n/a	n/a	n/a	n/a
2897199	PROB	n/a	LTP247	ltpFR	12	n/a	n/a	n/a	n/a	n/a	n/a	n/a	18	8	4	6	n/a	n/a	n/a	n/a	n/a
2898788	PROB	n/a	LTP247	ltpFR	12	n/a	n/a	n/a	n/a	n/a	n/a	n/a	15	6	4	5	n/a	n/a	n/a	n/a	n/a
2900297	PROB	n/a	LTP247	ltpFR	12	n/a	n/a	n/a	n/a	n/a	n/a	n/a	11	1	1	9	n/a	n/a	n/a	n/a	n/a
2901420	STOP	n/a	LTP247	ltpFR	12	n/a	n/a	n/a	n/a	n/a	n/a	n/a	n/a	n/a	n/a	n/a	n/a	n/a	n/a	n/a	n/a
2903374	WORD	wordpools/wasnorm_wordpool_less_exclusions.txt	LTP247	ltpFR	12	12	0	TURKEY	1520	n/a	n/a	1	n/a	0	0	0	0.57763671875	0.412841796875	1	upper	zerothre.ttf
2906386	START	n/a	LTP247	ltpFR	12	n/a	n/a	n/a	n/a	n/a	n/a	n/a	n/a	n/a	n/a	n/a	n/a	n/a	n/a	n/a	n/a
2907240	PROB	n/a	LTP247	ltpFR	12	n/a	n/a	n/a	n/a	n/a	n/a	n/a	12	5	5	2	n/a	n/a	n/a	n/a	n/a
2908729	PROB	n/a	LTP247	ltpFR	12	n/a	n/a	n/a	n/a	n/a	n/a	n/a	14	7	1	6	n/a	n/a	n/a	n/a	n/a
2910703	PROB	n/a	LTP247	ltpFR	12	n/a	n/a	n/a	n/a	n/a	n/a	n/a	16	1	7	8	n/a	n/a	n/a	n/a	n/a
2912574	PROB	n/a	LTP247	ltpFR	12	n/a	n/a	n/a	n/a	n/a	n/a	n/a	20	4	8	8	n/a	n/a	n/a	n/a	n/a
2914316	PROB	n/a	LTP247	ltpFR	12	n/a	n/a	n/a	n/a	n/a	n/a	n/a	21	9	8	4	n/a	n/a	n/a	n/a	n/a
2915819	PROB	n/a	LTP247	ltpFR	12	n/a	n/a	n/a	n/a	n/a	n/a	n/a	10	4	2	4	n/a	n/a	n/a	n/a	n/a
2918394	PROB	n/a	LTP247	ltpFR	12	n/a	n/a	n/a	n/a	n/a	n/a	n/a	20	7	8	5	n/a	n/a	n/a	n/a	n/a
2920085	PROB	n/a	LTP247	ltpFR	12	n/a	n/a	n/a	n/a	n/a	n/a	n/a	22	6	9	7	n/a	n/a	n/a	n/a	n/a
2921540	STOP	n/a	LTP247	ltpFR	12	n/a	n/a	n/a	n/a	n/a	n/a	n/a	n/a	n/a	n/a	n/a	n/a	n/a	n/a	n/a	n/a
2923316	WORD	wordpools/wasnorm_wordpool_less_exclusions.txt	LTP247	ltpFR	12	12	0	GANG	619	n/a	n/a	1	n/a	0	0	0	0.57763671875	0.412841796875	1	upper	zerothre.ttf
2926328	START	n/a	LTP247	ltpFR	12	n/a	n/a	n/a	n/a	n/a	n/a	n/a	n/a	n/a	n/a	n/a	n/a	n/a	n/a	n/a	n/a
2927432	PROB	n/a	LTP247	ltpFR	12	n/a	n/a	n/a	n/a	n/a	n/a	n/a	13	7	2	4	n/a	n/a	n/a	n/a	n/a
2929604	PROB	n/a	LTP247	ltpFR	12	n/a	n/a	n/a	n/a	n/a	n/a	n/a	10	3	2	5	n/a	n/a	n/a	n/a	n/a
2931261	PROB	n/a	LTP247	ltpFR	12	n/a	n/a	n/a	n/a	n/a	n/a	n/a	22	9	8	5	n/a	n/a	n/a	n/a	n/a
2933051	PROB	n/a	LTP247	ltpFR	12	n/a	n/a	n/a	n/a	n/a	n/a	n/a	19	9	5	5	n/a	n/a	n/a	n/a	n/a
2934874	PROB	n/a	LTP247	ltpFR	12	n/a	n/a	n/a	n/a	n/a	n/a	n/a	12	5	5	2	n/a	n/a	n/a	n/a	n/a
2936199	PROB	n/a	LTP247	ltpFR	12	n/a	n/a	n/a	n/a	n/a	n/a	n/a	17	9	4	4	n/a	n/a	n/a	n/a	n/a
2937953	PROB	n/a	LTP247	ltpFR	12	n/a	n/a	n/a	n/a	n/a	n/a	n/a	8	2	3	3	n/a	n/a	n/a	n/a	n/a
2939913	PROB	n/a	LTP247	ltpFR	12	n/a	n/a	n/a	n/a	n/a	n/a	n/a	24	7	9	8	n/a	n/a	n/a	n/a	n/a
2942245	STOP	n/a	LTP247	ltpFR	12	n/a	n/a	n/a	n/a	n/a	n/a	n/a	n/a	n/a	n/a	n/a	n/a	n/a	n/a	n/a	n/a
2943543	WORD	wordpools/wasnorm_wordpool_less_exclusions.txt	LTP247	ltpFR	12	12	0	DICTIONARY	463	n/a	n/a	0	n/a	0	0	0	0.57763671875	0.412841796875	1	upper	zerothre.ttf
2946555	START	n/a	LTP247	ltpFR	12	n/a	n/a	n/a	n/a	n/a	n/a	n/a	n/a	n/a	n/a	n/a	n/a	n/a	n/a	n/a	n/a
2947659	PROB	n/a	LTP247	ltpFR	12	n/a	n/a	n/a	n/a	n/a	n/a	n/a	19	2	8	9	n/a	n/a	n/a	n/a	n/a
2949415	PROB	n/a	LTP247	ltpFR	12	n/a	n/a	n/a	n/a	n/a	n/a	n/a	19	9	2	8	n/a	n/a	n/a	n/a	n/a
2951319	PROB	n/a	LTP247	ltpFR	12	n/a	n/a	n/a	n/a	n/a	n/a	n/a	15	5	6	4	n/a	n/a	n/a	n/a	n/a
2953396	PROB	n/a	LTP247	ltpFR	12	n/a	n/a	n/a	n/a	n/a	n/a	n/a	16	8	3	5	n/a	n/a	n/a	n/a	n/a
2955020	PROB	n/a	LTP247	ltpFR	12	n/a	n/a	n/a	n/a	n/a	n/a	n/a	19	4	6	9	n/a	n/a	n/a	n/a	n/a
2956593	PROB	n/a	LTP247	ltpFR	12	n/a	n/a	n/a	n/a	n/a	n/a	n/a	14	9	4	1	n/a	n/a	n/a	n/a	n/a
2958145	PROB	n/a	LTP247	ltpFR	12	n/a	n/a	n/a	n/a	n/a	n/a	n/a	14	6	6	2	n/a	n/a	n/a	n/a	n/a
2959952	PROB	n/a	LTP247	ltpFR	12	n/a	n/a	n/a	n/a	n/a	n/a	n/a	21	9	7	5	n/a	n/a	n/a	n/a	n/a
2962388	STOP	n/a	LTP247	ltpFR	12	n/a	n/a	n/a	n/a	n/a	n/a	n/a	n/a	n/a	n/a	n/a	n/a	n/a	n/a	n/a	n/a
2963602	WORD	wordpools/wasnorm_wordpool_less_exclusions.txt	LTP247	ltpFR	12	12	0	RING	1193	n/a	n/a	0	n/a	0	0	0	0.57763671875	0.412841796875	1	upper	zerothre.ttf
2966614	START	n/a	LTP247	ltpFR	12	n/a	n/a	n/a	n/a	n/a	n/a	n/a	n/a	n/a	n/a	n/a	n/a	n/a	n/a	n/a	n/a
2967718	PROB	n/a	LTP247	ltpFR	12	n/a	n/a	n/a	n/a	n/a	n/a	n/a	16	1	9	6	n/a	n/a	n/a	n/a	n/a
2969440	PROB	n/a	LTP247	ltpFR	12	n/a	n/a	n/a	n/a	n/a	n/a	n/a	18	7	6	5	n/a	n/a	n/a	n/a	n/a
2971077	PROB	n/a	LTP247	ltpFR	12	n/a	n/a	n/a	n/a	n/a	n/a	n/a	13	3	5	5	n/a	n/a	n/a	n/a	n/a
2973068	PROB	n/a	LTP247	ltpFR	12	n/a	n/a	n/a	n/a	n/a	n/a	n/a	15	7	1	7	n/a	n/a	n/a	n/a	n/a
2975293	PROB	n/a	LTP247	ltpFR	12	n/a	n/a	n/a	n/a	n/a	n/a	n/a	17	8	3	6	n/a	n/a	n/a	n/a	n/a
2977167	PROB	n/a	LTP247	ltpFR	12	n/a	n/a	n/a	n/a	n/a	n/a	n/a	16	5	4	7	n/a	n/a	n/a	n/a	n/a
2978740	PROB	n/a	LTP247	ltpFR	12	n/a	n/a	n/a	n/a	n/a	n/a	n/a	18	3	8	7	n/a	n/a	n/a	n/a	n/a
2980095	PROB	n/a	LTP247	ltpFR	12	n/a	n/a	n/a	n/a	n/a	n/a	n/a	22	8	7	7	n/a	n/a	n/a	n/a	n/a
