onset	duration	trial_type	sample	stim_file	subject	experiment	session	trial	task	item_name	item_num	recog_resp	recog_conf	resp	color_r	color_g	color_b	case	font
333.282	n/a	SESS_START	166641	n/a	LTP245	ltpFR	1	n/a	n/a	n/a	n/a	0	3	n/a	n/a	n/a	n/a	n/a	n/a
397.332	n/a	WORD	198666	wordpools/wasnorm_wordpool_less_exclusions.txt	LTP245	ltpFR	1	1	1	HOSE	720	0	n/a	0	0.422607421875	0.5869140625	0	upper	amplitud.ttf
401.292	n/a	WORD	200646	wordpools/wasnorm_wordpool_less_exclusions.txt	LTP245	ltpFR	1	1	1	FACTORY	548	1	n/a	0	0.422607421875	0.5869140625	0	upper	amplitud.ttf
405.386	n/a	WORD	202693	wordpools/wasnorm_wordpool_less_exclusions.txt	LTP245	ltpFR	1	1	1	CHAIR	274	n/a	n/a	0	0.422607421875	0.5869140625	0	upper	amplitud.ttf
409.264	n/a	WORD	204632	wordpools/wasnorm_wordpool_less_exclusions.txt	LTP245	ltpFR	1	1	1	WINNER	1615	n/a	n/a	1	0.422607421875	0.5869140625	0	upper	amplitud.ttf
413.124	n/a	WORD	206562	wordpools/wasnorm_wordpool_less_exclusions.txt	LTP245	ltpFR	1	1	0	TECHNICIAN	1443	n/a	n/a	0	0.57763671875	0.412841796875	1	lower	zerothre.ttf
417.002	n/a	WORD	208501	wordpools/wasnorm_wordpool_less_exclusions.txt	LTP245	ltpFR	1	1	0	SKUNK	1321	n/a	n/a	0	0.57763671875	0.412841796875	1	lower	zerothre.ttf
420.914	n/a	WORD	210457	wordpools/wasnorm_wordpool_less_exclusions.txt	LTP245	ltpFR	1	1	0	DINNER	468	n/a	n/a	0	0.57763671875	0.412841796875	1	lower	zerothre.ttf
424.776	n/a	WORD	212388	wordpools/wasnorm_wordpool_less_exclusions.txt	LTP245	ltpFR	1	1	0	BREAST	171	n/a	n/a	0	0.57763671875	0.412841796875	1	lower	zerothre.ttf
428.818	n/a	WORD	214409	wordpools/wasnorm_wordpool_less_exclusions.txt	LTP245	ltpFR	1	1	0	VAULT	1550	n/a	n/a	1	0.57763671875	0.412841796875	1	lower	zerothre.ttf
432.648	n/a	WORD	216324	wordpools/wasnorm_wordpool_less_exclusions.txt	LTP245	ltpFR	1	1	0	LUMBER	848	n/a	n/a	1	0.57763671875	0.412841796875	1	lower	zerothre.ttf
436.624	n/a	WORD	218312	wordpools/wasnorm_wordpool_less_exclusions.txt	LTP245	ltpFR	1	1	1	TREE	1502	n/a	n/a	1	0.422607421875	0.5869140625	0	upper	amplitud.ttf
440.586	n/a	WORD	220293	wordpools/wasnorm_wordpool_less_exclusions.txt	LTP245	ltpFR	1	1	1	TAG	1429	n/a	n/a	0	0.422607421875	0.5869140625	0	upper	amplitud.ttf
444.796	n/a	WORD	222398	wordpools/wasnorm_wordpool_less_exclusions.txt	LTP245	ltpFR	1	1	0	PAIL	1002	n/a	n/a	2	0.57763671875	0.412841796875	1	lower	zerothre.ttf
444.894	n/a	KEY_MSG	222447	n/a	LTP245	ltpFR	1	1	n/a	n/a	n/a	n/a	n/a	n/a	n/a	n/a	n/a	n/a	n/a
448.922	n/a	WORD	224461	wordpools/wasnorm_wordpool_less_exclusions.txt	LTP245	ltpFR	1	1	0	SALESMAN	1225	n/a	n/a	0	0.57763671875	0.412841796875	1	lower	zerothre.ttf
452.982	n/a	WORD	226491	wordpools/wasnorm_wordpool_less_exclusions.txt	LTP245	ltpFR	1	1	1	OVEN	991	n/a	n/a	1	0.422607421875	0.5869140625	0	upper	amplitud.ttf
456.992	n/a	WORD	228496	wordpools/wasnorm_wordpool_less_exclusions.txt	LTP245	ltpFR	1	1	1	KITCHEN	778	n/a	n/a	0	0.422607421875	0.5869140625	0	upper	amplitud.ttf
462.834	n/a	REC_START	231417	n/a	LTP245	ltpFR	1	1	n/a	n/a	n/a	n/a	n/a	n/a	n/a	n/a	n/a	n/a	n/a
464.276	n/a	REC_WORD	232138	wordpools/wasnorm_wordpool_less_exclusions.txt	LTP245	ltpFR	1	1	1	KITCHEN	778	n/a	n/a	0	n/a	n/a	n/a	n/a	n/a
465.594	n/a	REC_WORD	232797	wordpools/wasnorm_wordpool_less_exclusions.txt	LTP245	ltpFR	1	1	1	OVEN	991	n/a	n/a	1	n/a	n/a	n/a	n/a	n/a
466.602	n/a	REC_WORD	233301	wordpools/wasnorm_wordpool_less_exclusions.txt	LTP245	ltpFR	1	1	0	LUMBER	848	n/a	n/a	1	n/a	n/a	n/a	n/a	n/a
468.102	n/a	REC_WORD	234051	wordpools/wasnorm_wordpool_less_exclusions.txt	LTP245	ltpFR	1	1	0	BREAST	171	n/a	n/a	0	n/a	n/a	n/a	n/a	n/a
470.996	n/a	REC_WORD	235498	wordpools/wasnorm_wordpool_less_exclusions.txt	LTP245	ltpFR	1	1	1	OVEN	991	n/a	n/a	1	n/a	n/a	n/a	n/a	n/a
475.87	n/a	REC_WORD	237935	wordpools/wasnorm_wordpool_less_exclusions.txt	LTP245	ltpFR	1	1	1	WINNER	1615	n/a	n/a	1	n/a	n/a	n/a	n/a	n/a
494.966	n/a	REC_WORD	247483	wordpools/wasnorm_wordpool_less_exclusions.txt	LTP245	ltpFR	1	1	0	VAULT	1550	n/a	n/a	1	n/a	n/a	n/a	n/a	n/a
554.55	n/a	WORD	277275	wordpools/wasnorm_wordpool_less_exclusions.txt	LTP245	ltpFR	1	2	0	PONY	1102	n/a	n/a	1	0.57763671875	0.412841796875	1	lower	zerothre.ttf
558.594	n/a	WORD	279297	wordpools/wasnorm_wordpool_less_exclusions.txt	LTP245	ltpFR	1	2	0	BATHTUB	100	n/a	n/a	1	0.57763671875	0.412841796875	1	lower	zerothre.ttf
562.722	n/a	WORD	281361	wordpools/wasnorm_wordpool_less_exclusions.txt	LTP245	ltpFR	1	2	1	DRESS	495	n/a	n/a	0	0.422607421875	0.5869140625	0	upper	amplitud.ttf
566.93	n/a	WORD	283465	wordpools/wasnorm_wordpool_less_exclusions.txt	LTP245	ltpFR	1	2	1	DINER	467	n/a	n/a	0	0.422607421875	0.5869140625	0	upper	amplitud.ttf
571.142	n/a	WORD	285571	wordpools/wasnorm_wordpool_less_exclusions.txt	LTP245	ltpFR	1	2	1	COOKBOOK	373	n/a	n/a	0	0.422607421875	0.5869140625	0	upper	amplitud.ttf
575.118	n/a	WORD	287559	wordpools/wasnorm_wordpool_less_exclusions.txt	LTP245	ltpFR	1	2	1	TUBE	1516	n/a	n/a	0	0.422607421875	0.5869140625	0	upper	amplitud.ttf
578.98	n/a	WORD	289490	wordpools/wasnorm_wordpool_less_exclusions.txt	LTP245	ltpFR	1	2	0	DUMP	505	n/a	n/a	1	0.57763671875	0.412841796875	1	lower	zerothre.ttf
583.074	n/a	WORD	291537	wordpools/wasnorm_wordpool_less_exclusions.txt	LTP245	ltpFR	1	2	0	WALRUS	1585	n/a	n/a	1	0.57763671875	0.412841796875	1	lower	zerothre.ttf
587.184	n/a	WORD	293592	wordpools/wasnorm_wordpool_less_exclusions.txt	LTP245	ltpFR	1	2	0	PERMIT	1051	n/a	n/a	0	0.57763671875	0.412841796875	1	lower	zerothre.ttf
591.144	n/a	WORD	295572	wordpools/wasnorm_wordpool_less_exclusions.txt	LTP245	ltpFR	1	2	0	VEHICLE	1553	n/a	n/a	1	0.57763671875	0.412841796875	1	lower	zerothre.ttf
595.34	n/a	WORD	297670	wordpools/wasnorm_wordpool_less_exclusions.txt	LTP245	ltpFR	1	2	1	BASKET	95	n/a	n/a	0	0.422607421875	0.5869140625	0	upper	amplitud.ttf
599.55	n/a	WORD	299775	wordpools/wasnorm_wordpool_less_exclusions.txt	LTP245	ltpFR	1	2	1	HORSE	719	n/a	n/a	1	0.422607421875	0.5869140625	0	upper	amplitud.ttf
603.51	n/a	WORD	301755	wordpools/wasnorm_wordpool_less_exclusions.txt	LTP245	ltpFR	1	2	1	INSECT	740	n/a	n/a	1	0.422607421875	0.5869140625	0	upper	amplitud.ttf
607.422	n/a	WORD	303711	wordpools/wasnorm_wordpool_less_exclusions.txt	LTP245	ltpFR	1	2	1	WORM	1623	n/a	n/a	1	0.422607421875	0.5869140625	0	upper	amplitud.ttf
611.366	n/a	WORD	305683	wordpools/wasnorm_wordpool_less_exclusions.txt	LTP245	ltpFR	1	2	0	COUNTRY	388	n/a	n/a	1	0.57763671875	0.412841796875	1	lower	zerothre.ttf
615.46	n/a	WORD	307730	wordpools/wasnorm_wordpool_less_exclusions.txt	LTP245	ltpFR	1	2	0	TOWN	1491	n/a	n/a	1	0.57763671875	0.412841796875	1	lower	zerothre.ttf
621.168	n/a	REC_START	310584	n/a	LTP245	ltpFR	1	2	n/a	n/a	n/a	n/a	n/a	n/a	n/a	n/a	n/a	n/a	n/a
622.3	n/a	REC_WORD	311150	wordpools/wasnorm_wordpool_less_exclusions.txt	LTP245	ltpFR	1	2	0	TOWN	1491	n/a	n/a	1	n/a	n/a	n/a	n/a	n/a
623.262	n/a	REC_WORD	311631	wordpools/wasnorm_wordpool_less_exclusions.txt	LTP245	ltpFR	1	2	0	COUNTRY	388	n/a	n/a	1	n/a	n/a	n/a	n/a	n/a
625.538	n/a	REC_WORD	312769	wordpools/wasnorm_wordpool_less_exclusions.txt	LTP245	ltpFR	1	2	1	INSECT	740	n/a	n/a	1	n/a	n/a	n/a	n/a	n/a
626.78	n/a	REC_WORD	313390	wordpools/wasnorm_wordpool_less_exclusions.txt	LTP245	ltpFR	1	2	1	WORM	1623	n/a	n/a	1	n/a	n/a	n/a	n/a	n/a
628.512	n/a	REC_WORD	314256	wordpools/wasnorm_wordpool_less_exclusions.txt	LTP245	ltpFR	1	2	1	HORSE	719	n/a	n/a	1	n/a	n/a	n/a	n/a	n/a
644.874	n/a	REC_WORD	322437	wordpools/wasnorm_wordpool_less_exclusions.txt	LTP245	ltpFR	1	2	0	PERMIT	1051	n/a	n/a	0	n/a	n/a	n/a	n/a	n/a
651.374	n/a	REC_WORD	325687	wordpools/wasnorm_wordpool_less_exclusions.txt	LTP245	ltpFR	1	2	0	WALRUS	1585	n/a	n/a	1	n/a	n/a	n/a	n/a	n/a
671.39	n/a	REC_WORD	335695	wordpools/wasnorm_wordpool_less_exclusions.txt	LTP245	ltpFR	1	2	n/a	TRUCK	1512	n/a	n/a	n/a	n/a	n/a	n/a	n/a	n/a
710.636	n/a	WORD	355318	wordpools/wasnorm_wordpool_less_exclusions.txt	LTP245	ltpFR	1	3	-1	CAKE	219	n/a	n/a	-1	1.0	1.0	1	upper	Verdana.ttf
714.614	n/a	WORD	357307	wordpools/wasnorm_wordpool_less_exclusions.txt	LTP245	ltpFR	1	3	-1	FLEA	577	n/a	n/a	-1	1.0	1.0	1	upper	Verdana.ttf
718.524	n/a	WORD	359262	wordpools/wasnorm_wordpool_less_exclusions.txt	LTP245	ltpFR	1	3	-1	PIANO	1057	n/a	n/a	-1	1.0	1.0	1	upper	Verdana.ttf
722.402	n/a	WORD	361201	wordpools/wasnorm_wordpool_less_exclusions.txt	LTP245	ltpFR	1	3	-1	MICROWAVE	892	n/a	n/a	-1	1.0	1.0	1	upper	Verdana.ttf
726.528	n/a	WORD	363264	wordpools/wasnorm_wordpool_less_exclusions.txt	LTP245	ltpFR	1	3	-1	COYOTE	396	n/a	n/a	-1	1.0	1.0	1	upper	Verdana.ttf
730.722	n/a	WORD	365361	wordpools/wasnorm_wordpool_less_exclusions.txt	LTP245	ltpFR	1	3	-1	ELM	527	n/a	n/a	-1	1.0	1.0	1	upper	Verdana.ttf
734.666	n/a	WORD	367333	wordpools/wasnorm_wordpool_less_exclusions.txt	LTP245	ltpFR	1	3	-1	SAP	1233	n/a	n/a	-1	1.0	1.0	1	upper	Verdana.ttf
738.494	n/a	WORD	369247	wordpools/wasnorm_wordpool_less_exclusions.txt	LTP245	ltpFR	1	3	-1	ROBE	1198	n/a	n/a	-1	1.0	1.0	1	upper	Verdana.ttf
742.722	n/a	WORD	371361	wordpools/wasnorm_wordpool_less_exclusions.txt	LTP245	ltpFR	1	3	-1	CABOOSE	214	n/a	n/a	-1	1.0	1.0	1	upper	Verdana.ttf
746.548	n/a	WORD	373274	wordpools/wasnorm_wordpool_less_exclusions.txt	LTP245	ltpFR	1	3	-1	CHIP	303	n/a	n/a	-1	1.0	1.0	1	upper	Verdana.ttf
750.71	n/a	WORD	375355	wordpools/wasnorm_wordpool_less_exclusions.txt	LTP245	ltpFR	1	3	-1	FISH	571	n/a	n/a	-1	1.0	1.0	1	upper	Verdana.ttf
754.902	n/a	WORD	377451	wordpools/wasnorm_wordpool_less_exclusions.txt	LTP245	ltpFR	1	3	-1	SUIT	1402	n/a	n/a	-1	1.0	1.0	1	upper	Verdana.ttf
758.812	n/a	WORD	379406	wordpools/wasnorm_wordpool_less_exclusions.txt	LTP245	ltpFR	1	3	-1	CORPORATION	382	n/a	n/a	-1	1.0	1.0	1	upper	Verdana.ttf
763.008	n/a	WORD	381504	wordpools/wasnorm_wordpool_less_exclusions.txt	LTP245	ltpFR	1	3	-1	RECEIPT	1173	n/a	n/a	-1	1.0	1.0	1	upper	Verdana.ttf
767.002	n/a	WORD	383501	wordpools/wasnorm_wordpool_less_exclusions.txt	LTP245	ltpFR	1	3	-1	PLANT	1083	n/a	n/a	-1	1.0	1.0	1	upper	Verdana.ttf
770.88	n/a	WORD	385440	wordpools/wasnorm_wordpool_less_exclusions.txt	LTP245	ltpFR	1	3	-1	CORN	381	n/a	n/a	-1	1.0	1.0	1	upper	Verdana.ttf
776.556	n/a	REC_START	388278	n/a	LTP245	ltpFR	1	3	n/a	n/a	n/a	n/a	n/a	n/a	n/a	n/a	n/a	n/a	n/a
777.428	n/a	REC_WORD	388714	wordpools/wasnorm_wordpool_less_exclusions.txt	LTP245	ltpFR	1	3	-1	PLANT	1083	n/a	n/a	-1	n/a	n/a	n/a	n/a	n/a
778.366	n/a	REC_WORD	389183	wordpools/wasnorm_wordpool_less_exclusions.txt	LTP245	ltpFR	1	3	-1	SUIT	1402	n/a	n/a	-1	n/a	n/a	n/a	n/a	n/a
779.524	n/a	REC_WORD	389762	wordpools/wasnorm_wordpool_less_exclusions.txt	LTP245	ltpFR	1	3	-1	RECEIPT	1173	n/a	n/a	-1	n/a	n/a	n/a	n/a	n/a
781.21	n/a	REC_WORD	390605	wordpools/wasnorm_wordpool_less_exclusions.txt	LTP245	ltpFR	1	3	-1	SAP	1233	n/a	n/a	-1	n/a	n/a	n/a	n/a	n/a
789.302	n/a	REC_WORD	394651	wordpools/wasnorm_wordpool_less_exclusions.txt	LTP245	ltpFR	1	3	-1	CORPORATION	382	n/a	n/a	-1	n/a	n/a	n/a	n/a	n/a
795.872	n/a	REC_WORD	397936	wordpools/wasnorm_wordpool_less_exclusions.txt	LTP245	ltpFR	1	3	-1	CORN	381	n/a	n/a	-1	n/a	n/a	n/a	n/a	n/a
803.05	n/a	REC_WORD	401525	wordpools/wasnorm_wordpool_less_exclusions.txt	LTP245	ltpFR	1	3	1	TREE	1502	n/a	n/a	1	n/a	n/a	n/a	n/a	n/a
807.978	n/a	REC_WORD	403989	wordpools/wasnorm_wordpool_less_exclusions.txt	LTP245	ltpFR	1	3	-1	CABOOSE	214	n/a	n/a	-1	n/a	n/a	n/a	n/a	n/a
814.084	n/a	REC_WORD	407042	wordpools/wasnorm_wordpool_less_exclusions.txt	LTP245	ltpFR	1	3	n/a	SADDLE	1221	n/a	n/a	n/a	n/a	n/a	n/a	n/a	n/a
921.09	n/a	WORD	460545	wordpools/wasnorm_wordpool_less_exclusions.txt	LTP245	ltpFR	1	4	1	THREAD	1460	n/a	n/a	0	0.422607421875	0.5869140625	0	upper	amplitud.ttf
925.218	n/a	WORD	462609	wordpools/wasnorm_wordpool_less_exclusions.txt	LTP245	ltpFR	1	4	1	SUITE	1404	n/a	n/a	0	0.422607421875	0.5869140625	0	upper	amplitud.ttf
929.078	n/a	WORD	464539	wordpools/wasnorm_wordpool_less_exclusions.txt	LTP245	ltpFR	1	4	1	LAWYER	806	n/a	n/a	1	0.422607421875	0.5869140625	0	upper	amplitud.ttf
933.138	n/a	WORD	466569	wordpools/wasnorm_wordpool_less_exclusions.txt	LTP245	ltpFR	1	4	1	SHRIMP	1297	n/a	n/a	1	0.422607421875	0.5869140625	0	upper	amplitud.ttf
937.2	n/a	WORD	468600	wordpools/wasnorm_wordpool_less_exclusions.txt	LTP245	ltpFR	1	4	1	TRUCK	1512	n/a	n/a	0	0.422607421875	0.5869140625	0	upper	amplitud.ttf
941.378	n/a	WORD	470689	wordpools/wasnorm_wordpool_less_exclusions.txt	LTP245	ltpFR	1	4	1	CAR	241	n/a	n/a	0	0.422607421875	0.5869140625	0	upper	amplitud.ttf
945.472	n/a	WORD	472736	wordpools/wasnorm_wordpool_less_exclusions.txt	LTP245	ltpFR	1	4	0	DISC	473	n/a	n/a	1	0.57763671875	0.412841796875	1	lower	zerothre.ttf
949.482	n/a	WORD	474741	wordpools/wasnorm_wordpool_less_exclusions.txt	LTP245	ltpFR	1	4	0	JURY	766	n/a	n/a	1	0.57763671875	0.412841796875	1	lower	zerothre.ttf
953.376	n/a	WORD	476688	wordpools/wasnorm_wordpool_less_exclusions.txt	LTP245	ltpFR	1	4	0	CHEST	295	n/a	n/a	1	0.57763671875	0.412841796875	1	lower	zerothre.ttf
957.204	n/a	WORD	478602	wordpools/wasnorm_wordpool_less_exclusions.txt	LTP245	ltpFR	1	4	0	TREASURE	1500	n/a	n/a	1	0.57763671875	0.412841796875	1	lower	zerothre.ttf
961.214	n/a	WORD	480607	wordpools/wasnorm_wordpool_less_exclusions.txt	LTP245	ltpFR	1	4	1	NECK	939	n/a	n/a	1	0.422607421875	0.5869140625	0	upper	amplitud.ttf
965.142	n/a	WORD	482571	wordpools/wasnorm_wordpool_less_exclusions.txt	LTP245	ltpFR	1	4	1	TWINE	1529	n/a	n/a	0	0.422607421875	0.5869140625	0	upper	amplitud.ttf
969.17	n/a	WORD	484585	wordpools/wasnorm_wordpool_less_exclusions.txt	LTP245	ltpFR	1	4	0	SURF	1412	n/a	n/a	1	0.57763671875	0.412841796875	1	lower	zerothre.ttf
973.146	n/a	WORD	486573	wordpools/wasnorm_wordpool_less_exclusions.txt	LTP245	ltpFR	1	4	0	CUE	422	n/a	n/a	0	0.57763671875	0.412841796875	1	lower	zerothre.ttf
977.158	n/a	WORD	488579	wordpools/wasnorm_wordpool_less_exclusions.txt	LTP245	ltpFR	1	4	0	PIRATE	1074	n/a	n/a	1	0.57763671875	0.412841796875	1	lower	zerothre.ttf
981.336	n/a	WORD	490668	wordpools/wasnorm_wordpool_less_exclusions.txt	LTP245	ltpFR	1	4	0	BRUNETTE	181	n/a	n/a	1	0.57763671875	0.412841796875	1	lower	zerothre.ttf
987.01	n/a	REC_START	493505	n/a	LTP245	ltpFR	1	4	n/a	n/a	n/a	n/a	n/a	n/a	n/a	n/a	n/a	n/a	n/a
988.132	n/a	REC_WORD	494066	wordpools/wasnorm_wordpool_less_exclusions.txt	LTP245	ltpFR	1	4	0	BRUNETTE	181	n/a	n/a	1	n/a	n/a	n/a	n/a	n/a
989.884	n/a	REC_WORD	494942	wordpools/wasnorm_wordpool_less_exclusions.txt	LTP245	ltpFR	1	4	0	PIRATE	1074	n/a	n/a	1	n/a	n/a	n/a	n/a	n/a
996.0	n/a	REC_WORD	498000	wordpools/wasnorm_wordpool_less_exclusions.txt	LTP245	ltpFR	1	4	0	TREASURE	1500	n/a	n/a	1	n/a	n/a	n/a	n/a	n/a
998.32	n/a	REC_WORD	499160	wordpools/wasnorm_wordpool_less_exclusions.txt	LTP245	ltpFR	1	4	0	CHEST	295	n/a	n/a	1	n/a	n/a	n/a	n/a	n/a
1006.87	n/a	REC_WORD	503435	wordpools/wasnorm_wordpool_less_exclusions.txt	LTP245	ltpFR	1	4	1	SHRIMP	1297	n/a	n/a	1	n/a	n/a	n/a	n/a	n/a
1011.674	n/a	REC_WORD	505837	wordpools/wasnorm_wordpool_less_exclusions.txt	LTP245	ltpFR	1	4	1	NECK	939	n/a	n/a	1	n/a	n/a	n/a	n/a	n/a
1030.472	n/a	REC_WORD	515236	wordpools/wasnorm_wordpool_less_exclusions.txt	LTP245	ltpFR	1	4	0	CUE	422	n/a	n/a	0	n/a	n/a	n/a	n/a	n/a
1070.72	n/a	WORD	535360	wordpools/wasnorm_wordpool_less_exclusions.txt	LTP245	ltpFR	1	5	-1	THESAURUS	1454	n/a	n/a	-1	1.0	1.0	1	upper	Verdana.ttf
1074.664	n/a	WORD	537332	wordpools/wasnorm_wordpool_less_exclusions.txt	LTP245	ltpFR	1	5	-1	DESK	452	n/a	n/a	-1	1.0	1.0	1	upper	Verdana.ttf
1078.524	n/a	WORD	539262	wordpools/wasnorm_wordpool_less_exclusions.txt	LTP245	ltpFR	1	5	-1	DESIGNER	451	n/a	n/a	-1	1.0	1.0	1	upper	Verdana.ttf
1082.552	n/a	WORD	541276	wordpools/wasnorm_wordpool_less_exclusions.txt	LTP245	ltpFR	1	5	-1	ATTIC	56	n/a	n/a	-1	1.0	1.0	1	upper	Verdana.ttf
1086.562	n/a	WORD	543281	wordpools/wasnorm_wordpool_less_exclusions.txt	LTP245	ltpFR	1	5	-1	SUPERMARKET	1409	n/a	n/a	-1	1.0	1.0	1	upper	Verdana.ttf
1090.556	n/a	WORD	545278	wordpools/wasnorm_wordpool_less_exclusions.txt	LTP245	ltpFR	1	5	-1	PLAZA	1088	n/a	n/a	-1	1.0	1.0	1	upper	Verdana.ttf
1094.402	n/a	WORD	547201	wordpools/wasnorm_wordpool_less_exclusions.txt	LTP245	ltpFR	1	5	-1	ACTRESS	6	n/a	n/a	-1	1.0	1.0	1	upper	Verdana.ttf
1098.396	n/a	WORD	549198	wordpools/wasnorm_wordpool_less_exclusions.txt	LTP245	ltpFR	1	5	-1	SCREEN	1253	n/a	n/a	-1	1.0	1.0	1	upper	Verdana.ttf
1102.424	n/a	WORD	551212	wordpools/wasnorm_wordpool_less_exclusions.txt	LTP245	ltpFR	1	5	-1	TAPE	1433	n/a	n/a	-1	1.0	1.0	1	upper	Verdana.ttf
1106.434	n/a	WORD	553217	wordpools/wasnorm_wordpool_less_exclusions.txt	LTP245	ltpFR	1	5	-1	TRUMPET	1513	n/a	n/a	-1	1.0	1.0	1	upper	Verdana.ttf
1110.544	n/a	WORD	555272	wordpools/wasnorm_wordpool_less_exclusions.txt	LTP245	ltpFR	1	5	-1	OFFICE	972	n/a	n/a	-1	1.0	1.0	1	upper	Verdana.ttf
1114.688	n/a	WORD	557344	wordpools/wasnorm_wordpool_less_exclusions.txt	LTP245	ltpFR	1	5	-1	JEANS	752	n/a	n/a	-1	1.0	1.0	1	upper	Verdana.ttf
1118.848	n/a	WORD	559424	wordpools/wasnorm_wordpool_less_exclusions.txt	LTP245	ltpFR	1	5	-1	DICTIONARY	463	n/a	n/a	-1	1.0	1.0	1	upper	Verdana.ttf
1123.024	n/a	WORD	561512	wordpools/wasnorm_wordpool_less_exclusions.txt	LTP245	ltpFR	1	5	-1	ARM	38	n/a	n/a	-1	1.0	1.0	1	upper	Verdana.ttf
1127.22	n/a	WORD	563610	wordpools/wasnorm_wordpool_less_exclusions.txt	LTP245	ltpFR	1	5	-1	SUPPER	1411	n/a	n/a	-1	1.0	1.0	1	upper	Verdana.ttf
1131.33	n/a	WORD	565665	wordpools/wasnorm_wordpool_less_exclusions.txt	LTP245	ltpFR	1	5	-1	SEAT	1264	n/a	n/a	-1	1.0	1.0	1	upper	Verdana.ttf
1137.206	n/a	REC_START	568603	n/a	LTP245	ltpFR	1	5	n/a	n/a	n/a	n/a	n/a	n/a	n/a	n/a	n/a	n/a	n/a
1139.336	n/a	REC_WORD	569668	wordpools/wasnorm_wordpool_less_exclusions.txt	LTP245	ltpFR	1	5	-1	DESIGNER	451	n/a	n/a	-1	n/a	n/a	n/a	n/a	n/a
1140.48	n/a	REC_WORD	570240	wordpools/wasnorm_wordpool_less_exclusions.txt	LTP245	ltpFR	1	5	-1	ACTRESS	6	n/a	n/a	-1	n/a	n/a	n/a	n/a	n/a
1143.306	n/a	REC_WORD	571653	wordpools/wasnorm_wordpool_less_exclusions.txt	LTP245	ltpFR	1	5	-1	SUPPER	1411	n/a	n/a	-1	n/a	n/a	n/a	n/a	n/a
1145.052	n/a	REC_WORD	572526	wordpools/wasnorm_wordpool_less_exclusions.txt	LTP245	ltpFR	1	5	-1	ARM	38	n/a	n/a	-1	n/a	n/a	n/a	n/a	n/a
1146.27	n/a	REC_WORD	573135	wordpools/wasnorm_wordpool_less_exclusions.txt	LTP245	ltpFR	1	5	-1	DICTIONARY	463	n/a	n/a	-1	n/a	n/a	n/a	n/a	n/a
1147.312	n/a	REC_WORD	573656	wordpools/wasnorm_wordpool_less_exclusions.txt	LTP245	ltpFR	1	5	-1	THESAURUS	1454	n/a	n/a	-1	n/a	n/a	n/a	n/a	n/a
1149.024	n/a	REC_WORD	574512	wordpools/wasnorm_wordpool_less_exclusions.txt	LTP245	ltpFR	1	5	-1	TAPE	1433	n/a	n/a	-1	n/a	n/a	n/a	n/a	n/a
1149.966	n/a	REC_WORD	574983	wordpools/wasnorm_wordpool_less_exclusions.txt	LTP245	ltpFR	1	5	-1	TRUMPET	1513	n/a	n/a	-1	n/a	n/a	n/a	n/a	n/a
1151.708	n/a	REC_WORD	575854	wordpools/wasnorm_wordpool_less_exclusions.txt	LTP245	ltpFR	1	5	-1	DESK	452	n/a	n/a	-1	n/a	n/a	n/a	n/a	n/a
1153.09	n/a	REC_WORD	576545	wordpools/wasnorm_wordpool_less_exclusions.txt	LTP245	ltpFR	1	5	-1	ATTIC	56	n/a	n/a	-1	n/a	n/a	n/a	n/a	n/a
1154.262	n/a	REC_WORD	577131	wordpools/wasnorm_wordpool_less_exclusions.txt	LTP245	ltpFR	1	5	-1	OFFICE	972	n/a	n/a	-1	n/a	n/a	n/a	n/a	n/a
1157.284	n/a	REC_WORD	578642	wordpools/wasnorm_wordpool_less_exclusions.txt	LTP245	ltpFR	1	5	-1	SUPERMARKET	1409	n/a	n/a	-1	n/a	n/a	n/a	n/a	n/a
1161.3	n/a	REC_WORD	580650	wordpools/wasnorm_wordpool_less_exclusions.txt	LTP245	ltpFR	1	5	-1	PLAZA	1088	n/a	n/a	-1	n/a	n/a	n/a	n/a	n/a
1255.73	n/a	WORD	627865	wordpools/wasnorm_wordpool_less_exclusions.txt	LTP245	ltpFR	1	6	0	BEVERAGE	123	n/a	n/a	0	0.57763671875	0.412841796875	1	lower	zerothre.ttf
1259.624	n/a	WORD	629812	wordpools/wasnorm_wordpool_less_exclusions.txt	LTP245	ltpFR	1	6	0	ACORN	3	n/a	n/a	0	0.57763671875	0.412841796875	1	lower	zerothre.ttf
1263.784	n/a	WORD	631892	wordpools/wasnorm_wordpool_less_exclusions.txt	LTP245	ltpFR	1	6	0	SUPERVISOR	1410	n/a	n/a	1	0.57763671875	0.412841796875	1	lower	zerothre.ttf
1267.612	n/a	WORD	633806	wordpools/wasnorm_wordpool_less_exclusions.txt	LTP245	ltpFR	1	6	0	RAFT	1159	n/a	n/a	1	0.57763671875	0.412841796875	1	lower	zerothre.ttf
1271.722	n/a	WORD	635861	wordpools/wasnorm_wordpool_less_exclusions.txt	LTP245	ltpFR	1	6	0	MOTH	920	n/a	n/a	0	0.57763671875	0.412841796875	1	lower	zerothre.ttf
1275.866	n/a	WORD	637933	wordpools/wasnorm_wordpool_less_exclusions.txt	LTP245	ltpFR	1	6	0	POLICE	1098	n/a	n/a	1	0.57763671875	0.412841796875	1	lower	zerothre.ttf
1279.842	n/a	WORD	639921	wordpools/wasnorm_wordpool_less_exclusions.txt	LTP245	ltpFR	1	6	0	BUFFALO	186	n/a	n/a	1	0.57763671875	0.412841796875	1	lower	zerothre.ttf
1283.87	n/a	WORD	641935	wordpools/wasnorm_wordpool_less_exclusions.txt	LTP245	ltpFR	1	6	0	SEAL	1262	n/a	n/a	1	0.57763671875	0.412841796875	1	lower	zerothre.ttf
1288.08	n/a	WORD	644040	wordpools/wasnorm_wordpool_less_exclusions.txt	LTP245	ltpFR	1	6	0	MUSHROOM	934	n/a	n/a	0	0.57763671875	0.412841796875	1	lower	zerothre.ttf
1291.958	n/a	WORD	645979	wordpools/wasnorm_wordpool_less_exclusions.txt	LTP245	ltpFR	1	6	0	BOUILLON	154	n/a	n/a	0	0.57763671875	0.412841796875	1	lower	zerothre.ttf
1295.968	n/a	WORD	647984	wordpools/wasnorm_wordpool_less_exclusions.txt	LTP245	ltpFR	1	6	0	SALOON	1228	n/a	n/a	1	0.57763671875	0.412841796875	1	lower	zerothre.ttf
1299.93	n/a	WORD	649965	wordpools/wasnorm_wordpool_less_exclusions.txt	LTP245	ltpFR	1	6	0	WORKER	1621	n/a	n/a	1	0.57763671875	0.412841796875	1	lower	zerothre.ttf
1304.124	n/a	WORD	652062	wordpools/wasnorm_wordpool_less_exclusions.txt	LTP245	ltpFR	1	6	0	TORCH	1484	n/a	n/a	1	0.57763671875	0.412841796875	1	lower	zerothre.ttf
1308.134	n/a	WORD	654067	wordpools/wasnorm_wordpool_less_exclusions.txt	LTP245	ltpFR	1	6	0	CHIMNEY	301	n/a	n/a	1	0.57763671875	0.412841796875	1	lower	zerothre.ttf
1312.112	n/a	WORD	656056	wordpools/wasnorm_wordpool_less_exclusions.txt	LTP245	ltpFR	1	6	0	PLIERS	1089	n/a	n/a	0	0.57763671875	0.412841796875	1	lower	zerothre.ttf
1316.006	n/a	WORD	658003	wordpools/wasnorm_wordpool_less_exclusions.txt	LTP245	ltpFR	1	6	0	HAMMER	680	n/a	n/a	0	0.57763671875	0.412841796875	1	lower	zerothre.ttf
1321.998	n/a	REC_START	660999	n/a	LTP245	ltpFR	1	6	n/a	n/a	n/a	n/a	n/a	n/a	n/a	n/a	n/a	n/a	n/a
1323.036	n/a	REC_WORD	661518	wordpools/wasnorm_wordpool_less_exclusions.txt	LTP245	ltpFR	1	6	0	HAMMER	680	n/a	n/a	0	n/a	n/a	n/a	n/a	n/a
1324.198	n/a	REC_WORD	662099	wordpools/wasnorm_wordpool_less_exclusions.txt	LTP245	ltpFR	1	6	n/a	BUILDING	191	n/a	n/a	n/a	n/a	n/a	n/a	n/a	n/a
1325.844	n/a	REC_WORD	662922	wordpools/wasnorm_wordpool_less_exclusions.txt	LTP245	ltpFR	1	6	0	PLIERS	1089	n/a	n/a	0	n/a	n/a	n/a	n/a	n/a
1328.572	n/a	REC_WORD	664286	wordpools/wasnorm_wordpool_less_exclusions.txt	LTP245	ltpFR	1	6	0	WORKER	1621	n/a	n/a	1	n/a	n/a	n/a	n/a	n/a
1406.39	n/a	WORD	703195	wordpools/wasnorm_wordpool_less_exclusions.txt	LTP245	ltpFR	1	7	0	DISH	474	n/a	n/a	0	0.57763671875	0.412841796875	1	lower	zerothre.ttf
1410.45	n/a	WORD	705225	wordpools/wasnorm_wordpool_less_exclusions.txt	LTP245	ltpFR	1	7	0	PLATE	1086	n/a	n/a	0	0.57763671875	0.412841796875	1	lower	zerothre.ttf
1414.278	n/a	WORD	707139	wordpools/wasnorm_wordpool_less_exclusions.txt	LTP245	ltpFR	1	7	0	FOREHEAD	592	n/a	n/a	0	0.57763671875	0.412841796875	1	lower	zerothre.ttf
1418.206	n/a	WORD	709103	wordpools/wasnorm_wordpool_less_exclusions.txt	LTP245	ltpFR	1	7	0	COD	340	n/a	n/a	0	0.57763671875	0.412841796875	1	lower	zerothre.ttf
1422.316	n/a	WORD	711158	wordpools/wasnorm_wordpool_less_exclusions.txt	LTP245	ltpFR	1	7	0	TABLET	1427	n/a	n/a	0	0.57763671875	0.412841796875	1	lower	zerothre.ttf
1426.228	n/a	WORD	713114	wordpools/wasnorm_wordpool_less_exclusions.txt	LTP245	ltpFR	1	7	0	SUN	1406	n/a	n/a	1	0.57763671875	0.412841796875	1	lower	zerothre.ttf
1430.288	n/a	WORD	715144	wordpools/wasnorm_wordpool_less_exclusions.txt	LTP245	ltpFR	1	7	0	ELK	526	n/a	n/a	1	0.57763671875	0.412841796875	1	lower	zerothre.ttf
1434.216	n/a	WORD	717108	wordpools/wasnorm_wordpool_less_exclusions.txt	LTP245	ltpFR	1	7	0	RAILROAD	1162	n/a	n/a	1	0.57763671875	0.412841796875	1	lower	zerothre.ttf
1438.276	n/a	WORD	719138	wordpools/wasnorm_wordpool_less_exclusions.txt	LTP245	ltpFR	1	7	0	STEM	1376	n/a	n/a	0	0.57763671875	0.412841796875	1	lower	zerothre.ttf
1442.102	n/a	WORD	721051	wordpools/wasnorm_wordpool_less_exclusions.txt	LTP245	ltpFR	1	7	0	FIREPLACE	570	n/a	n/a	0	0.57763671875	0.412841796875	1	lower	zerothre.ttf
1445.948	n/a	WORD	722974	wordpools/wasnorm_wordpool_less_exclusions.txt	LTP245	ltpFR	1	7	0	SWEATER	1419	n/a	n/a	1	0.57763671875	0.412841796875	1	lower	zerothre.ttf
1449.992	n/a	WORD	724996	wordpools/wasnorm_wordpool_less_exclusions.txt	LTP245	ltpFR	1	7	0	ASTEROID	50	n/a	n/a	1	0.57763671875	0.412841796875	1	lower	zerothre.ttf
1453.87	n/a	WORD	726935	wordpools/wasnorm_wordpool_less_exclusions.txt	LTP245	ltpFR	1	7	0	PAPER	1011	n/a	n/a	0	0.57763671875	0.412841796875	1	lower	zerothre.ttf
1457.748	n/a	WORD	728874	wordpools/wasnorm_wordpool_less_exclusions.txt	LTP245	ltpFR	1	7	0	WALL	1582	n/a	n/a	1	0.57763671875	0.412841796875	1	lower	zerothre.ttf
1461.858	n/a	WORD	730929	wordpools/wasnorm_wordpool_less_exclusions.txt	LTP245	ltpFR	1	7	0	PICTURE	1061	n/a	n/a	0	0.57763671875	0.412841796875	1	lower	zerothre.ttf
1466.002	n/a	WORD	733001	wordpools/wasnorm_wordpool_less_exclusions.txt	LTP245	ltpFR	1	7	0	SARDINE	1235	n/a	n/a	0	0.57763671875	0.412841796875	1	lower	zerothre.ttf
1471.876	n/a	REC_START	735938	n/a	LTP245	ltpFR	1	7	n/a	n/a	n/a	n/a	n/a	n/a	n/a	n/a	n/a	n/a	n/a
1473.732	n/a	REC_WORD	736866	wordpools/wasnorm_wordpool_less_exclusions.txt	LTP245	ltpFR	1	7	0	PICTURE	1061	n/a	n/a	0	n/a	n/a	n/a	n/a	n/a
1474.52	n/a	REC_WORD	737260	wordpools/wasnorm_wordpool_less_exclusions.txt	LTP245	ltpFR	1	7	0	SARDINE	1235	n/a	n/a	0	n/a	n/a	n/a	n/a	n/a
1476.186	n/a	REC_WORD	738093	wordpools/wasnorm_wordpool_less_exclusions.txt	LTP245	ltpFR	1	7	0	WALL	1582	n/a	n/a	1	n/a	n/a	n/a	n/a	n/a
1612.418	n/a	WORD	806209	wordpools/wasnorm_wordpool_less_exclusions.txt	LTP245	ltpFR	1	8	-1	LONDON	843	n/a	n/a	-1	1.0	1.0	1	upper	Verdana.ttf
1616.312	n/a	WORD	808156	wordpools/wasnorm_wordpool_less_exclusions.txt	LTP245	ltpFR	1	8	-1	PLASTER	1085	n/a	n/a	-1	1.0	1.0	1	upper	Verdana.ttf
1620.206	n/a	WORD	810103	wordpools/wasnorm_wordpool_less_exclusions.txt	LTP245	ltpFR	1	8	-1	LEMON	810	n/a	n/a	-1	1.0	1.0	1	upper	Verdana.ttf
1624.234	n/a	WORD	812117	wordpools/wasnorm_wordpool_less_exclusions.txt	LTP245	ltpFR	1	8	-1	ELEVATOR	524	n/a	n/a	-1	1.0	1.0	1	upper	Verdana.ttf
1628.228	n/a	WORD	814114	wordpools/wasnorm_wordpool_less_exclusions.txt	LTP245	ltpFR	1	8	-1	MOUNTAIN	924	n/a	n/a	-1	1.0	1.0	1	upper	Verdana.ttf
1632.272	n/a	WORD	816136	wordpools/wasnorm_wordpool_less_exclusions.txt	LTP245	ltpFR	1	8	-1	ATMOSPHERE	54	n/a	n/a	-1	1.0	1.0	1	upper	Verdana.ttf
1636.166	n/a	WORD	818083	wordpools/wasnorm_wordpool_less_exclusions.txt	LTP245	ltpFR	1	8	-1	FUGITIVE	612	n/a	n/a	-1	1.0	1.0	1	upper	Verdana.ttf
1640.176	n/a	WORD	820088	wordpools/wasnorm_wordpool_less_exclusions.txt	LTP245	ltpFR	1	8	-1	LID	817	n/a	n/a	-1	1.0	1.0	1	upper	Verdana.ttf
1644.288	n/a	WORD	822144	wordpools/wasnorm_wordpool_less_exclusions.txt	LTP245	ltpFR	1	8	-1	CYLINDER	432	n/a	n/a	-1	1.0	1.0	1	upper	Verdana.ttf
1648.266	n/a	WORD	824133	wordpools/wasnorm_wordpool_less_exclusions.txt	LTP245	ltpFR	1	8	-1	JUGGLER	763	n/a	n/a	-1	1.0	1.0	1	upper	Verdana.ttf
1652.244	n/a	WORD	826122	wordpools/wasnorm_wordpool_less_exclusions.txt	LTP245	ltpFR	1	8	-1	GYMNAST	675	n/a	n/a	-1	1.0	1.0	1	upper	Verdana.ttf
1656.338	n/a	WORD	828169	wordpools/wasnorm_wordpool_less_exclusions.txt	LTP245	ltpFR	1	8	-1	SNACK	1331	n/a	n/a	-1	1.0	1.0	1	upper	Verdana.ttf
1660.314	n/a	WORD	830157	wordpools/wasnorm_wordpool_less_exclusions.txt	LTP245	ltpFR	1	8	-1	FLEET	578	n/a	n/a	-1	1.0	1.0	1	upper	Verdana.ttf
1664.476	n/a	WORD	832238	wordpools/wasnorm_wordpool_less_exclusions.txt	LTP245	ltpFR	1	8	-1	CANYON	235	n/a	n/a	-1	1.0	1.0	1	upper	Verdana.ttf
1668.52	n/a	WORD	834260	wordpools/wasnorm_wordpool_less_exclusions.txt	LTP245	ltpFR	1	8	-1	ORANGE	980	n/a	n/a	-1	1.0	1.0	1	upper	Verdana.ttf
1672.48	n/a	WORD	836240	wordpools/wasnorm_wordpool_less_exclusions.txt	LTP245	ltpFR	1	8	-1	PATRIOT	1026	n/a	n/a	-1	1.0	1.0	1	upper	Verdana.ttf
1678.322	n/a	REC_START	839161	n/a	LTP245	ltpFR	1	8	n/a	n/a	n/a	n/a	n/a	n/a	n/a	n/a	n/a	n/a	n/a
1680.806	n/a	REC_WORD	840403	wordpools/wasnorm_wordpool_less_exclusions.txt	LTP245	ltpFR	1	8	-1	PATRIOT	1026	n/a	n/a	-1	n/a	n/a	n/a	n/a	n/a
1682.442	n/a	REC_WORD	841221	wordpools/wasnorm_wordpool_less_exclusions.txt	LTP245	ltpFR	1	8	-1	CANYON	235	n/a	n/a	-1	n/a	n/a	n/a	n/a	n/a
1688.238	n/a	REC_WORD	844119	wordpools/wasnorm_wordpool_less_exclusions.txt	LTP245	ltpFR	1	8	-1	LONDON	843	n/a	n/a	-1	n/a	n/a	n/a	n/a	n/a
1691.082	n/a	REC_WORD	845541	wordpools/wasnorm_wordpool_less_exclusions.txt	LTP245	ltpFR	1	8	-1	ELEVATOR	524	n/a	n/a	-1	n/a	n/a	n/a	n/a	n/a
1693.55	n/a	REC_WORD	846775	wordpools/wasnorm_wordpool_less_exclusions.txt	LTP245	ltpFR	1	8	-1	MOUNTAIN	924	n/a	n/a	-1	n/a	n/a	n/a	n/a	n/a
1707.944	n/a	REC_WORD	853972	wordpools/wasnorm_wordpool_less_exclusions.txt	LTP245	ltpFR	1	8	n/a	CONVICT	371	n/a	n/a	n/a	n/a	n/a	n/a	n/a	n/a
1712.734	n/a	REC_WORD	856367	wordpools/wasnorm_wordpool_less_exclusions.txt	LTP245	ltpFR	1	8	-1	ATMOSPHERE	54	n/a	n/a	-1	n/a	n/a	n/a	n/a	n/a
1787.06	n/a	WORD	893530	wordpools/wasnorm_wordpool_less_exclusions.txt	LTP245	ltpFR	1	9	1	PASSAGE	1019	n/a	n/a	0	0.422607421875	0.5869140625	0	upper	amplitud.ttf
1790.888	n/a	WORD	895444	wordpools/wasnorm_wordpool_less_exclusions.txt	LTP245	ltpFR	1	9	1	PAINTING	1005	n/a	n/a	0	0.422607421875	0.5869140625	0	upper	amplitud.ttf
1794.914	n/a	WORD	897457	wordpools/wasnorm_wordpool_less_exclusions.txt	LTP245	ltpFR	1	9	1	BOMB	147	n/a	n/a	0	0.422607421875	0.5869140625	0	upper	amplitud.ttf
1799.058	n/a	WORD	899529	wordpools/wasnorm_wordpool_less_exclusions.txt	LTP245	ltpFR	1	9	1	BURGLAR	200	n/a	n/a	1	0.422607421875	0.5869140625	0	upper	amplitud.ttf
1802.92	n/a	WORD	901460	wordpools/wasnorm_wordpool_less_exclusions.txt	LTP245	ltpFR	1	9	1	OREGANO	983	n/a	n/a	0	0.422607421875	0.5869140625	0	upper	amplitud.ttf
1806.93	n/a	WORD	903465	wordpools/wasnorm_wordpool_less_exclusions.txt	LTP245	ltpFR	1	9	1	SPICE	1350	n/a	n/a	0	0.422607421875	0.5869140625	0	upper	amplitud.ttf
1810.776	n/a	WORD	905388	wordpools/wasnorm_wordpool_less_exclusions.txt	LTP245	ltpFR	1	9	1	KEEPER	769	n/a	n/a	1	0.422607421875	0.5869140625	0	upper	amplitud.ttf
1814.786	n/a	WORD	907393	wordpools/wasnorm_wordpool_less_exclusions.txt	LTP245	ltpFR	1	9	1	LOBSTER	837	n/a	n/a	1	0.422607421875	0.5869140625	0	upper	amplitud.ttf
1818.896	n/a	WORD	909448	wordpools/wasnorm_wordpool_less_exclusions.txt	LTP245	ltpFR	1	9	1	PUBLISHER	1137	n/a	n/a	1	0.422607421875	0.5869140625	0	upper	amplitud.ttf
1822.84	n/a	WORD	911420	wordpools/wasnorm_wordpool_less_exclusions.txt	LTP245	ltpFR	1	9	1	SHORTCAKE	1292	n/a	n/a	0	0.422607421875	0.5869140625	0	upper	amplitud.ttf
1826.884	n/a	WORD	913442	wordpools/wasnorm_wordpool_less_exclusions.txt	LTP245	ltpFR	1	9	1	ALBUM	14	n/a	n/a	0	0.422607421875	0.5869140625	0	upper	amplitud.ttf
1830.828	n/a	WORD	915414	wordpools/wasnorm_wordpool_less_exclusions.txt	LTP245	ltpFR	1	9	1	HALL	677	n/a	n/a	0	0.422607421875	0.5869140625	0	upper	amplitud.ttf
1834.724	n/a	WORD	917362	wordpools/wasnorm_wordpool_less_exclusions.txt	LTP245	ltpFR	1	9	1	BEGGAR	117	n/a	n/a	1	0.422607421875	0.5869140625	0	upper	amplitud.ttf
1838.684	n/a	WORD	919342	wordpools/wasnorm_wordpool_less_exclusions.txt	LTP245	ltpFR	1	9	1	ELECTRON	522	n/a	n/a	0	0.422607421875	0.5869140625	0	upper	amplitud.ttf
1842.662	n/a	WORD	921331	wordpools/wasnorm_wordpool_less_exclusions.txt	LTP245	ltpFR	1	9	1	SPIDER	1351	n/a	n/a	1	0.422607421875	0.5869140625	0	upper	amplitud.ttf
1846.538	n/a	WORD	923269	wordpools/wasnorm_wordpool_less_exclusions.txt	LTP245	ltpFR	1	9	1	FLY	586	n/a	n/a	0	0.422607421875	0.5869140625	0	upper	amplitud.ttf
1852.232	n/a	REC_START	926116	n/a	LTP245	ltpFR	1	9	n/a	n/a	n/a	n/a	n/a	n/a	n/a	n/a	n/a	n/a	n/a
1853.494	n/a	REC_WORD	926747	wordpools/wasnorm_wordpool_less_exclusions.txt	LTP245	ltpFR	1	9	1	FLY	586	n/a	n/a	0	n/a	n/a	n/a	n/a	n/a
1854.676	n/a	REC_WORD	927338	wordpools/wasnorm_wordpool_less_exclusions.txt	LTP245	ltpFR	1	9	1	SPIDER	1351	n/a	n/a	1	n/a	n/a	n/a	n/a	n/a
1866.798	n/a	REC_WORD	933399	wordpools/wasnorm_wordpool_less_exclusions.txt	LTP245	ltpFR	1	9	1	INSECT	740	n/a	n/a	1	n/a	n/a	n/a	n/a	n/a
1903.22	n/a	REC_WORD	951610	wordpools/wasnorm_wordpool_less_exclusions.txt	LTP245	ltpFR	1	9	n/a	BEARD	107	n/a	n/a	n/a	n/a	n/a	n/a	n/a	n/a
1990.66	n/a	WORD	995330	wordpools/wasnorm_wordpool_less_exclusions.txt	LTP245	ltpFR	1	10	0	PANTHER	1009	n/a	n/a	1	0.57763671875	0.412841796875	1	lower	zerothre.ttf
1994.67	n/a	WORD	997335	wordpools/wasnorm_wordpool_less_exclusions.txt	LTP245	ltpFR	1	10	0	GLASS	639	n/a	n/a	0	0.57763671875	0.412841796875	1	lower	zerothre.ttf
1998.782	n/a	WORD	999391	wordpools/wasnorm_wordpool_less_exclusions.txt	LTP245	ltpFR	1	10	1	HERB	704	n/a	n/a	0	0.422607421875	0.5869140625	0	upper	amplitud.ttf
2002.658	n/a	WORD	1001329	wordpools/wasnorm_wordpool_less_exclusions.txt	LTP245	ltpFR	1	10	1	UMPIRE	1535	n/a	n/a	1	0.422607421875	0.5869140625	0	upper	amplitud.ttf
2006.536	n/a	WORD	1003268	wordpools/wasnorm_wordpool_less_exclusions.txt	LTP245	ltpFR	1	10	1	SOFTBALL	1343	n/a	n/a	0	0.422607421875	0.5869140625	0	upper	amplitud.ttf
2010.464	n/a	WORD	1005232	wordpools/wasnorm_wordpool_less_exclusions.txt	LTP245	ltpFR	1	10	1	CRUMB	416	n/a	n/a	0	0.422607421875	0.5869140625	0	upper	amplitud.ttf
2014.308	n/a	WORD	1007154	wordpools/wasnorm_wordpool_less_exclusions.txt	LTP245	ltpFR	1	10	0	SANDWICH	1232	n/a	n/a	0	0.57763671875	0.412841796875	1	lower	zerothre.ttf
2018.268	n/a	WORD	1009134	wordpools/wasnorm_wordpool_less_exclusions.txt	LTP245	ltpFR	1	10	0	CONDUCTOR	362	n/a	n/a	1	0.57763671875	0.412841796875	1	lower	zerothre.ttf
2022.412	n/a	WORD	1011206	wordpools/wasnorm_wordpool_less_exclusions.txt	LTP245	ltpFR	1	10	1	GUARDIAN	668	n/a	n/a	1	0.422607421875	0.5869140625	0	upper	amplitud.ttf
2026.49	n/a	WORD	1013245	wordpools/wasnorm_wordpool_less_exclusions.txt	LTP245	ltpFR	1	10	1	NOMAD	955	n/a	n/a	1	0.422607421875	0.5869140625	0	upper	amplitud.ttf
2030.684	n/a	WORD	1015342	wordpools/wasnorm_wordpool_less_exclusions.txt	LTP245	ltpFR	1	10	1	WHISKERS	1605	n/a	n/a	1	0.422607421875	0.5869140625	0	upper	amplitud.ttf
2034.678	n/a	WORD	1017339	wordpools/wasnorm_wordpool_less_exclusions.txt	LTP245	ltpFR	1	10	1	OLIVE	975	n/a	n/a	0	0.422607421875	0.5869140625	0	upper	amplitud.ttf
2038.788	n/a	WORD	1019394	wordpools/wasnorm_wordpool_less_exclusions.txt	LTP245	ltpFR	1	10	0	DRAWER	493	n/a	n/a	1	0.57763671875	0.412841796875	1	lower	zerothre.ttf
2042.766	n/a	WORD	1021383	wordpools/wasnorm_wordpool_less_exclusions.txt	LTP245	ltpFR	1	10	0	UNIFORM	1539	n/a	n/a	1	0.57763671875	0.412841796875	1	lower	zerothre.ttf
2046.592	n/a	WORD	1023296	wordpools/wasnorm_wordpool_less_exclusions.txt	LTP245	ltpFR	1	10	0	TRAIN	1494	n/a	n/a	1	0.57763671875	0.412841796875	1	lower	zerothre.ttf
2050.754	n/a	WORD	1025377	wordpools/wasnorm_wordpool_less_exclusions.txt	LTP245	ltpFR	1	10	0	VAGRANT	1544	n/a	n/a	0	0.57763671875	0.412841796875	1	lower	zerothre.ttf
2056.596	n/a	REC_START	1028298	n/a	LTP245	ltpFR	1	10	n/a	n/a	n/a	n/a	n/a	n/a	n/a	n/a	n/a	n/a	n/a
2057.484	n/a	REC_WORD	1028742	wordpools/wasnorm_wordpool_less_exclusions.txt	LTP245	ltpFR	1	10	0	VAGRANT	1544	n/a	n/a	0	n/a	n/a	n/a	n/a	n/a
2058.582	n/a	REC_WORD	1029291	wordpools/wasnorm_wordpool_less_exclusions.txt	LTP245	ltpFR	1	10	1	WHISKERS	1605	n/a	n/a	1	n/a	n/a	n/a	n/a	n/a
2060.178	n/a	REC_WORD	1030089	wordpools/wasnorm_wordpool_less_exclusions.txt	LTP245	ltpFR	1	10	1	OLIVE	975	n/a	n/a	0	n/a	n/a	n/a	n/a	n/a
2062.976	n/a	REC_WORD	1031488	wordpools/wasnorm_wordpool_less_exclusions.txt	LTP245	ltpFR	1	10	0	TRAIN	1494	n/a	n/a	1	n/a	n/a	n/a	n/a	n/a
2064.858	n/a	REC_WORD	1032429	wordpools/wasnorm_wordpool_less_exclusions.txt	LTP245	ltpFR	1	10	0	CONDUCTOR	362	n/a	n/a	1	n/a	n/a	n/a	n/a	n/a
2080.148	n/a	REC_WORD	1040074	wordpools/wasnorm_wordpool_less_exclusions.txt	LTP245	ltpFR	1	10	0	PANTHER	1009	n/a	n/a	1	n/a	n/a	n/a	n/a	n/a
2088.24	n/a	REC_WORD	1044120	wordpools/wasnorm_wordpool_less_exclusions.txt	LTP245	ltpFR	1	10	n/a	YOGA	-1	n/a	n/a	n/a	n/a	n/a	n/a	n/a	n/a
2124.024	n/a	REC_WORD	1062012	wordpools/wasnorm_wordpool_less_exclusions.txt	LTP245	ltpFR	1	10	0	PANTHER	1009	n/a	n/a	1	n/a	n/a	n/a	n/a	n/a
2208.67	n/a	WORD	1104335	wordpools/wasnorm_wordpool_less_exclusions.txt	LTP245	ltpFR	1	11	1	SCARECROW	1245	n/a	n/a	0	0.422607421875	0.5869140625	0	upper	amplitud.ttf
2212.88	n/a	WORD	1106440	wordpools/wasnorm_wordpool_less_exclusions.txt	LTP245	ltpFR	1	11	1	KANGAROO	768	n/a	n/a	1	0.422607421875	0.5869140625	0	upper	amplitud.ttf
2216.776	n/a	WORD	1108388	wordpools/wasnorm_wordpool_less_exclusions.txt	LTP245	ltpFR	1	11	1	BOSS	152	n/a	n/a	1	0.422607421875	0.5869140625	0	upper	amplitud.ttf
2220.802	n/a	WORD	1110401	wordpools/wasnorm_wordpool_less_exclusions.txt	LTP245	ltpFR	1	11	1	CLERK	321	n/a	n/a	1	0.422607421875	0.5869140625	0	upper	amplitud.ttf
2224.912	n/a	WORD	1112456	wordpools/wasnorm_wordpool_less_exclusions.txt	LTP245	ltpFR	1	11	1	SALMON	1227	n/a	n/a	1	0.422607421875	0.5869140625	0	upper	amplitud.ttf
2228.758	n/a	WORD	1114379	wordpools/wasnorm_wordpool_less_exclusions.txt	LTP245	ltpFR	1	11	1	PIGEON	1065	n/a	n/a	1	0.422607421875	0.5869140625	0	upper	amplitud.ttf
2232.602	n/a	WORD	1116301	wordpools/wasnorm_wordpool_less_exclusions.txt	LTP245	ltpFR	1	11	1	SPACE	1345	n/a	n/a	0	0.422607421875	0.5869140625	0	upper	amplitud.ttf
2236.446	n/a	WORD	1118223	wordpools/wasnorm_wordpool_less_exclusions.txt	LTP245	ltpFR	1	11	1	GALAXY	617	n/a	n/a	1	0.422607421875	0.5869140625	0	upper	amplitud.ttf
2240.522	n/a	WORD	1120261	wordpools/wasnorm_wordpool_less_exclusions.txt	LTP245	ltpFR	1	11	1	HURRICANE	727	n/a	n/a	1	0.422607421875	0.5869140625	0	upper	amplitud.ttf
2244.468	n/a	WORD	1122234	wordpools/wasnorm_wordpool_less_exclusions.txt	LTP245	ltpFR	1	11	1	POCKET	1093	n/a	n/a	0	0.422607421875	0.5869140625	0	upper	amplitud.ttf
2248.628	n/a	WORD	1124314	wordpools/wasnorm_wordpool_less_exclusions.txt	LTP245	ltpFR	1	11	1	CAP	236	n/a	n/a	0	0.422607421875	0.5869140625	0	upper	amplitud.ttf
2252.538	n/a	WORD	1126269	wordpools/wasnorm_wordpool_less_exclusions.txt	LTP245	ltpFR	1	11	1	VIKING	1565	n/a	n/a	1	0.422607421875	0.5869140625	0	upper	amplitud.ttf
2256.632	n/a	WORD	1128316	wordpools/wasnorm_wordpool_less_exclusions.txt	LTP245	ltpFR	1	11	1	PENCIL	1042	n/a	n/a	0	0.422607421875	0.5869140625	0	upper	amplitud.ttf
2260.476	n/a	WORD	1130238	wordpools/wasnorm_wordpool_less_exclusions.txt	LTP245	ltpFR	1	11	1	TENT	1449	n/a	n/a	0	0.422607421875	0.5869140625	0	upper	amplitud.ttf
2264.454	n/a	WORD	1132227	wordpools/wasnorm_wordpool_less_exclusions.txt	LTP245	ltpFR	1	11	1	TUNA	1518	n/a	n/a	1	0.422607421875	0.5869140625	0	upper	amplitud.ttf
2268.432	n/a	WORD	1134216	wordpools/wasnorm_wordpool_less_exclusions.txt	LTP245	ltpFR	1	11	1	LASER	801	n/a	n/a	n/a	0.422607421875	0.5869140625	0	upper	amplitud.ttf
2271.462	n/a	SLOW_MSG	1135731	n/a	LTP245	ltpFR	1	11	n/a	n/a	n/a	n/a	n/a	n/a	n/a	n/a	n/a	n/a	n/a
2275.656	n/a	REC_START	1137828	n/a	LTP245	ltpFR	1	11	n/a	n/a	n/a	n/a	n/a	n/a	n/a	n/a	n/a	n/a	n/a
2279.658	n/a	REC_WORD	1139829	wordpools/wasnorm_wordpool_less_exclusions.txt	LTP245	ltpFR	1	11	1	LASER	801	n/a	n/a	n/a	n/a	n/a	n/a	n/a	n/a
2302.524	n/a	REC_WORD	1151262	wordpools/wasnorm_wordpool_less_exclusions.txt	LTP245	ltpFR	1	11	n/a	LIGHT	-1	n/a	n/a	n/a	n/a	n/a	n/a	n/a	n/a
2374.658	n/a	WORD	1187329	wordpools/wasnorm_wordpool_less_exclusions.txt	LTP245	ltpFR	1	12	1	CAMEL	223	n/a	n/a	1	0.422607421875	0.5869140625	0	upper	amplitud.ttf
2378.668	n/a	WORD	1189334	wordpools/wasnorm_wordpool_less_exclusions.txt	LTP245	ltpFR	1	12	1	RIVER	1194	n/a	n/a	0	0.422607421875	0.5869140625	0	upper	amplitud.ttf
2382.546	n/a	WORD	1191273	wordpools/wasnorm_wordpool_less_exclusions.txt	LTP245	ltpFR	1	12	0	DETECTIVE	454	n/a	n/a	1	0.57763671875	0.412841796875	1	lower	zerothre.ttf
2386.374	n/a	WORD	1193187	wordpools/wasnorm_wordpool_less_exclusions.txt	LTP245	ltpFR	1	12	0	SHERIFF	1284	n/a	n/a	1	0.57763671875	0.412841796875	1	lower	zerothre.ttf
2390.252	n/a	WORD	1195126	wordpools/wasnorm_wordpool_less_exclusions.txt	LTP245	ltpFR	1	12	0	GOO	648	n/a	n/a	0	0.57763671875	0.412841796875	1	lower	zerothre.ttf
2394.296	n/a	WORD	1197148	wordpools/wasnorm_wordpool_less_exclusions.txt	LTP245	ltpFR	1	12	0	DOLL	481	n/a	n/a	1	0.57763671875	0.412841796875	1	lower	zerothre.ttf
2398.356	n/a	WORD	1199178	wordpools/wasnorm_wordpool_less_exclusions.txt	LTP245	ltpFR	1	12	0	APARTMENT	30	n/a	n/a	1	0.57763671875	0.412841796875	1	lower	zerothre.ttf
2402.418	n/a	WORD	1201209	wordpools/wasnorm_wordpool_less_exclusions.txt	LTP245	ltpFR	1	12	1	SCISSORS	1250	n/a	n/a	0	0.422607421875	0.5869140625	0	upper	amplitud.ttf
2406.578	n/a	WORD	1203289	wordpools/wasnorm_wordpool_less_exclusions.txt	LTP245	ltpFR	1	12	1	COMMANDER	354	n/a	n/a	1	0.422607421875	0.5869140625	0	upper	amplitud.ttf
2410.706	n/a	WORD	1205353	wordpools/wasnorm_wordpool_less_exclusions.txt	LTP245	ltpFR	1	12	1	SHEET	1279	n/a	n/a	0	0.422607421875	0.5869140625	0	upper	amplitud.ttf
2414.8	n/a	WORD	1207400	wordpools/wasnorm_wordpool_less_exclusions.txt	LTP245	ltpFR	1	12	0	NOTE	958	n/a	n/a	0	0.57763671875	0.412841796875	1	lower	zerothre.ttf
2418.644	n/a	WORD	1209322	wordpools/wasnorm_wordpool_less_exclusions.txt	LTP245	ltpFR	1	12	0	SWIMMER	1420	n/a	n/a	1	0.57763671875	0.412841796875	1	lower	zerothre.ttf
2422.67	n/a	WORD	1211335	wordpools/wasnorm_wordpool_less_exclusions.txt	LTP245	ltpFR	1	12	0	BANNER	85	n/a	n/a	0	0.57763671875	0.412841796875	1	lower	zerothre.ttf
2426.582	n/a	WORD	1213291	wordpools/wasnorm_wordpool_less_exclusions.txt	LTP245	ltpFR	1	12	1	AIRPORT	13	n/a	n/a	0	0.422607421875	0.5869140625	0	upper	amplitud.ttf
2430.626	n/a	WORD	1215313	wordpools/wasnorm_wordpool_less_exclusions.txt	LTP245	ltpFR	1	12	1	MAJOR	859	n/a	n/a	1	0.422607421875	0.5869140625	0	upper	amplitud.ttf
2434.602	n/a	WORD	1217301	wordpools/wasnorm_wordpool_less_exclusions.txt	LTP245	ltpFR	1	12	1	MARSH	874	n/a	n/a	0	0.422607421875	0.5869140625	0	upper	amplitud.ttf
2440.194	n/a	REC_START	1220097	n/a	LTP245	ltpFR	1	12	n/a	n/a	n/a	n/a	n/a	n/a	n/a	n/a	n/a	n/a	n/a
2440.874	n/a	REC_WORD	1220437	wordpools/wasnorm_wordpool_less_exclusions.txt	LTP245	ltpFR	1	12	1	MAJOR	859	n/a	n/a	1	n/a	n/a	n/a	n/a	n/a
2441.816	n/a	REC_WORD	1220908	wordpools/wasnorm_wordpool_less_exclusions.txt	LTP245	ltpFR	1	12	0	DETECTIVE	454	n/a	n/a	1	n/a	n/a	n/a	n/a	n/a
2443.048	n/a	REC_WORD	1221524	wordpools/wasnorm_wordpool_less_exclusions.txt	LTP245	ltpFR	1	12	0	SWIMMER	1420	n/a	n/a	1	n/a	n/a	n/a	n/a	n/a
2444.53	n/a	REC_WORD	1222265	wordpools/wasnorm_wordpool_less_exclusions.txt	LTP245	ltpFR	1	12	0	BANNER	85	n/a	n/a	0	n/a	n/a	n/a	n/a	n/a
2445.808	n/a	REC_WORD	1222904	wordpools/wasnorm_wordpool_less_exclusions.txt	LTP245	ltpFR	1	12	1	MARSH	874	n/a	n/a	0	n/a	n/a	n/a	n/a	n/a
2447.502	n/a	REC_WORD	1223751	wordpools/wasnorm_wordpool_less_exclusions.txt	LTP245	ltpFR	1	12	1	AIRPORT	13	n/a	n/a	0	n/a	n/a	n/a	n/a	n/a
2515.8	n/a	REST_REWET	1257900	n/a	LTP245	ltpFR	1	12	n/a	n/a	n/a	n/a	n/a	n/a	n/a	n/a	n/a	n/a	n/a
2673.848	n/a	WORD	1336924	wordpools/wasnorm_wordpool_less_exclusions.txt	LTP245	ltpFR	1	13	0	OX	994	n/a	n/a	0	0.57763671875	0.412841796875	1	lower	zerothre.ttf
2677.942	n/a	WORD	1338971	wordpools/wasnorm_wordpool_less_exclusions.txt	LTP245	ltpFR	1	13	0	SKIRT	1319	n/a	n/a	0	0.57763671875	0.412841796875	1	lower	zerothre.ttf
2681.986	n/a	WORD	1340993	wordpools/wasnorm_wordpool_less_exclusions.txt	LTP245	ltpFR	1	13	0	GUM	672	n/a	n/a	0	0.57763671875	0.412841796875	1	lower	zerothre.ttf
2686.014	n/a	WORD	1343007	wordpools/wasnorm_wordpool_less_exclusions.txt	LTP245	ltpFR	1	13	0	SALIVA	1226	n/a	n/a	0	0.57763671875	0.412841796875	1	lower	zerothre.ttf
2690.208	n/a	WORD	1345104	wordpools/wasnorm_wordpool_less_exclusions.txt	LTP245	ltpFR	1	13	0	VICTOR	1563	n/a	n/a	1	0.57763671875	0.412841796875	1	lower	zerothre.ttf
2694.118	n/a	WORD	1347059	wordpools/wasnorm_wordpool_less_exclusions.txt	LTP245	ltpFR	1	13	0	BONE	148	n/a	n/a	0	0.57763671875	0.412841796875	1	lower	zerothre.ttf
2698.178	n/a	WORD	1349089	wordpools/wasnorm_wordpool_less_exclusions.txt	LTP245	ltpFR	1	13	0	GRILL	661	n/a	n/a	1	0.57763671875	0.412841796875	1	lower	zerothre.ttf
2702.006	n/a	WORD	1351003	wordpools/wasnorm_wordpool_less_exclusions.txt	LTP245	ltpFR	1	13	0	SUBMARINE	1398	n/a	n/a	1	0.57763671875	0.412841796875	1	lower	zerothre.ttf
2705.9	n/a	WORD	1352950	wordpools/wasnorm_wordpool_less_exclusions.txt	LTP245	ltpFR	1	13	0	FOUNTAIN	597	n/a	n/a	1	0.57763671875	0.412841796875	1	lower	zerothre.ttf
2709.912	n/a	WORD	1354956	wordpools/wasnorm_wordpool_less_exclusions.txt	LTP245	ltpFR	1	13	0	TROPHY	1509	n/a	n/a	0	0.57763671875	0.412841796875	1	lower	zerothre.ttf
2713.79	n/a	WORD	1356895	wordpools/wasnorm_wordpool_less_exclusions.txt	LTP245	ltpFR	1	13	0	VASE	1549	n/a	n/a	0	0.57763671875	0.412841796875	1	lower	zerothre.ttf
2717.684	n/a	WORD	1358842	wordpools/wasnorm_wordpool_less_exclusions.txt	LTP245	ltpFR	1	13	0	GOAT	644	n/a	n/a	1	0.57763671875	0.412841796875	1	lower	zerothre.ttf
2721.544	n/a	WORD	1360772	wordpools/wasnorm_wordpool_less_exclusions.txt	LTP245	ltpFR	1	13	0	ANTELOPE	27	n/a	n/a	1	0.57763671875	0.412841796875	1	lower	zerothre.ttf
2725.588	n/a	WORD	1362794	wordpools/wasnorm_wordpool_less_exclusions.txt	LTP245	ltpFR	1	13	0	BOWL	158	n/a	n/a	0	0.57763671875	0.412841796875	1	lower	zerothre.ttf
2729.434	n/a	WORD	1364717	wordpools/wasnorm_wordpool_less_exclusions.txt	LTP245	ltpFR	1	13	0	GOWN	652	n/a	n/a	0	0.57763671875	0.412841796875	1	lower	zerothre.ttf
2733.278	n/a	WORD	1366639	wordpools/wasnorm_wordpool_less_exclusions.txt	LTP245	ltpFR	1	13	0	FOREST	593	n/a	n/a	0	0.57763671875	0.412841796875	1	lower	zerothre.ttf
2739.202	n/a	REC_START	1369601	n/a	LTP245	ltpFR	1	13	n/a	n/a	n/a	n/a	n/a	n/a	n/a	n/a	n/a	n/a	n/a
2740.146	n/a	REC_WORD	1370073	wordpools/wasnorm_wordpool_less_exclusions.txt	LTP245	ltpFR	1	13	0	FOREST	593	n/a	n/a	0	n/a	n/a	n/a	n/a	n/a
2741.452	n/a	REC_WORD	1370726	wordpools/wasnorm_wordpool_less_exclusions.txt	LTP245	ltpFR	1	13	0	GUM	672	n/a	n/a	0	n/a	n/a	n/a	n/a	n/a
2742.854	n/a	REC_WORD	1371427	wordpools/wasnorm_wordpool_less_exclusions.txt	LTP245	ltpFR	1	13	0	ANTELOPE	27	n/a	n/a	1	n/a	n/a	n/a	n/a	n/a
2791.458	n/a	REC_WORD	1395729	wordpools/wasnorm_wordpool_less_exclusions.txt	LTP245	ltpFR	1	13	0	FOREST	593	n/a	n/a	0	n/a	n/a	n/a	n/a	n/a
2909.684	n/a	WORD	1454842	wordpools/wasnorm_wordpool_less_exclusions.txt	LTP245	ltpFR	1	14	0	VET	1560	n/a	n/a	0	0.57763671875	0.412841796875	1	lower	zerothre.ttf
2913.71	n/a	WORD	1456855	wordpools/wasnorm_wordpool_less_exclusions.txt	LTP245	ltpFR	1	14	0	SAGE	1222	n/a	n/a	0	0.57763671875	0.412841796875	1	lower	zerothre.ttf
2917.556	n/a	WORD	1458778	wordpools/wasnorm_wordpool_less_exclusions.txt	LTP245	ltpFR	1	14	1	MOSQUITO	917	n/a	n/a	1	0.422607421875	0.5869140625	0	upper	amplitud.ttf
2921.616	n/a	WORD	1460808	wordpools/wasnorm_wordpool_less_exclusions.txt	LTP245	ltpFR	1	14	1	GRASSHOPPER	656	n/a	n/a	1	0.422607421875	0.5869140625	0	upper	amplitud.ttf
2925.526	n/a	WORD	1462763	wordpools/wasnorm_wordpool_less_exclusions.txt	LTP245	ltpFR	1	14	1	BULL	193	n/a	n/a	1	0.422607421875	0.5869140625	0	upper	amplitud.ttf
2929.57	n/a	WORD	1464785	wordpools/wasnorm_wordpool_less_exclusions.txt	LTP245	ltpFR	1	14	0	EWE	542	n/a	n/a	0	0.57763671875	0.412841796875	1	lower	zerothre.ttf
2933.448	n/a	WORD	1466724	wordpools/wasnorm_wordpool_less_exclusions.txt	LTP245	ltpFR	1	14	0	HERD	705	n/a	n/a	0	0.57763671875	0.412841796875	1	lower	zerothre.ttf
2937.608	n/a	WORD	1468804	wordpools/wasnorm_wordpool_less_exclusions.txt	LTP245	ltpFR	1	14	0	CARRIAGE	248	n/a	n/a	1	0.57763671875	0.412841796875	1	lower	zerothre.ttf
2941.686	n/a	WORD	1470843	wordpools/wasnorm_wordpool_less_exclusions.txt	LTP245	ltpFR	1	14	0	PARTY	1018	n/a	n/a	1	0.57763671875	0.412841796875	1	lower	zerothre.ttf
2945.68	n/a	WORD	1472840	wordpools/wasnorm_wordpool_less_exclusions.txt	LTP245	ltpFR	1	14	0	CATTLE	261	n/a	n/a	1	0.57763671875	0.412841796875	1	lower	zerothre.ttf
2949.856	n/a	WORD	1474928	wordpools/wasnorm_wordpool_less_exclusions.txt	LTP245	ltpFR	1	14	0	POPCORN	1104	n/a	n/a	0	0.57763671875	0.412841796875	1	lower	zerothre.ttf
2953.736	n/a	WORD	1476868	wordpools/wasnorm_wordpool_less_exclusions.txt	LTP245	ltpFR	1	14	1	GARLIC	624	n/a	n/a	0	0.422607421875	0.5869140625	0	upper	amplitud.ttf
2957.696	n/a	WORD	1478848	wordpools/wasnorm_wordpool_less_exclusions.txt	LTP245	ltpFR	1	14	1	SHEEP	1278	n/a	n/a	1	0.422607421875	0.5869140625	0	upper	amplitud.ttf
2961.888	n/a	WORD	1480944	wordpools/wasnorm_wordpool_less_exclusions.txt	LTP245	ltpFR	1	14	1	CREATURE	403	n/a	n/a	1	0.422607421875	0.5869140625	0	upper	amplitud.ttf
2966.016	n/a	WORD	1483008	wordpools/wasnorm_wordpool_less_exclusions.txt	LTP245	ltpFR	1	14	1	BASSINET	97	n/a	n/a	0	0.422607421875	0.5869140625	0	upper	amplitud.ttf
2970.144	n/a	WORD	1485072	wordpools/wasnorm_wordpool_less_exclusions.txt	LTP245	ltpFR	1	14	1	POWDER	1117	n/a	n/a	0	0.422607421875	0.5869140625	0	upper	amplitud.ttf
2976.27	n/a	REC_START	1488135	n/a	LTP245	ltpFR	1	14	n/a	n/a	n/a	n/a	n/a	n/a	n/a	n/a	n/a	n/a	n/a
2979.856	n/a	REC_WORD	1489928	wordpools/wasnorm_wordpool_less_exclusions.txt	LTP245	ltpFR	1	14	1	POWDER	1117	n/a	n/a	0	n/a	n/a	n/a	n/a	n/a
2984.706	n/a	REC_WORD	1492353	wordpools/wasnorm_wordpool_less_exclusions.txt	LTP245	ltpFR	1	14	n/a	SEAWEED	-1	n/a	n/a	n/a	n/a	n/a	n/a	n/a	n/a
3130.606	n/a	WORD	1565303	wordpools/wasnorm_wordpool_less_exclusions.txt	LTP245	ltpFR	1	15	1	FRIAR	605	n/a	n/a	0	0.422607421875	0.5869140625	0	upper	amplitud.ttf
3134.784	n/a	WORD	1567392	wordpools/wasnorm_wordpool_less_exclusions.txt	LTP245	ltpFR	1	15	1	YACHT	1629	n/a	n/a	0	0.422607421875	0.5869140625	0	upper	amplitud.ttf
3138.712	n/a	WORD	1569356	wordpools/wasnorm_wordpool_less_exclusions.txt	LTP245	ltpFR	1	15	1	VESSEL	1558	n/a	n/a	0	0.422607421875	0.5869140625	0	upper	amplitud.ttf
3142.822	n/a	WORD	1571411	wordpools/wasnorm_wordpool_less_exclusions.txt	LTP245	ltpFR	1	15	1	COCOON	339	n/a	n/a	0	0.422607421875	0.5869140625	0	upper	amplitud.ttf
3146.998	n/a	WORD	1573499	wordpools/wasnorm_wordpool_less_exclusions.txt	LTP245	ltpFR	1	15	1	ANTEATER	26	n/a	n/a	0	0.422607421875	0.5869140625	0	upper	amplitud.ttf
3151.192	n/a	WORD	1575596	wordpools/wasnorm_wordpool_less_exclusions.txt	LTP245	ltpFR	1	15	1	PLAID	1080	n/a	n/a	0	0.422607421875	0.5869140625	0	upper	amplitud.ttf
3155.07	n/a	WORD	1577535	wordpools/wasnorm_wordpool_less_exclusions.txt	LTP245	ltpFR	1	15	1	TROMBONE	1508	n/a	n/a	0	0.422607421875	0.5869140625	0	upper	amplitud.ttf
3159.148	n/a	WORD	1579574	wordpools/wasnorm_wordpool_less_exclusions.txt	LTP245	ltpFR	1	15	1	MAGICIAN	854	n/a	n/a	1	0.422607421875	0.5869140625	0	upper	amplitud.ttf
3163.292	n/a	WORD	1581646	wordpools/wasnorm_wordpool_less_exclusions.txt	LTP245	ltpFR	1	15	1	BACON	67	n/a	n/a	0	0.422607421875	0.5869140625	0	upper	amplitud.ttf
3167.136	n/a	WORD	1583568	wordpools/wasnorm_wordpool_less_exclusions.txt	LTP245	ltpFR	1	15	1	SAXOPHONE	1240	n/a	n/a	0	0.422607421875	0.5869140625	0	upper	amplitud.ttf
3171.146	n/a	WORD	1585573	wordpools/wasnorm_wordpool_less_exclusions.txt	LTP245	ltpFR	1	15	1	FAIRY	549	n/a	n/a	0	0.422607421875	0.5869140625	0	upper	amplitud.ttf
3175.24	n/a	WORD	1587620	wordpools/wasnorm_wordpool_less_exclusions.txt	LTP245	ltpFR	1	15	1	RAM	1165	n/a	n/a	1	0.422607421875	0.5869140625	0	upper	amplitud.ttf
3179.302	n/a	WORD	1589651	wordpools/wasnorm_wordpool_less_exclusions.txt	LTP245	ltpFR	1	15	1	PUCK	1138	n/a	n/a	0	0.422607421875	0.5869140625	0	upper	amplitud.ttf
3183.296	n/a	WORD	1591648	wordpools/wasnorm_wordpool_less_exclusions.txt	LTP245	ltpFR	1	15	1	OUTFIT	988	n/a	n/a	0	0.422607421875	0.5869140625	0	upper	amplitud.ttf
3187.138	n/a	WORD	1593569	wordpools/wasnorm_wordpool_less_exclusions.txt	LTP245	ltpFR	1	15	1	FREEWAY	603	n/a	n/a	0	0.422607421875	0.5869140625	0	upper	amplitud.ttf
3191.132	n/a	WORD	1595566	wordpools/wasnorm_wordpool_less_exclusions.txt	LTP245	ltpFR	1	15	1	JOURNAL	760	n/a	n/a	0	0.422607421875	0.5869140625	0	upper	amplitud.ttf
3197.108	n/a	REC_START	1598554	n/a	LTP245	ltpFR	1	15	n/a	n/a	n/a	n/a	n/a	n/a	n/a	n/a	n/a	n/a	n/a
3198.098	n/a	REC_WORD	1599049	wordpools/wasnorm_wordpool_less_exclusions.txt	LTP245	ltpFR	1	15	1	FREEWAY	603	n/a	n/a	0	n/a	n/a	n/a	n/a	n/a
3205.218	n/a	REC_WORD	1602609	wordpools/wasnorm_wordpool_less_exclusions.txt	LTP245	ltpFR	1	15	1	VESSEL	1558	n/a	n/a	0	n/a	n/a	n/a	n/a	n/a
3207.12	n/a	REC_WORD	1603560	wordpools/wasnorm_wordpool_less_exclusions.txt	LTP245	ltpFR	1	15	1	YACHT	1629	n/a	n/a	0	n/a	n/a	n/a	n/a	n/a
3226.202	n/a	REC_WORD	1613101	wordpools/wasnorm_wordpool_less_exclusions.txt	LTP245	ltpFR	1	15	n/a	MACHINE	852	n/a	n/a	n/a	n/a	n/a	n/a	n/a	n/a
3232.602	n/a	REC_WORD	1616301	wordpools/wasnorm_wordpool_less_exclusions.txt	LTP245	ltpFR	1	15	n/a	VETERAN	1561	n/a	n/a	n/a	n/a	n/a	n/a	n/a	n/a
3239.088	n/a	REC_WORD	1619544	wordpools/wasnorm_wordpool_less_exclusions.txt	LTP245	ltpFR	1	15	n/a	PET	-1	n/a	n/a	n/a	n/a	n/a	n/a	n/a	n/a
3240.41	n/a	REC_WORD	1620205	wordpools/wasnorm_wordpool_less_exclusions.txt	LTP245	ltpFR	1	15	n/a	ISLAND	745	n/a	n/a	n/a	n/a	n/a	n/a	n/a	n/a
3271.748	n/a	REC_WORD	1635874	wordpools/wasnorm_wordpool_less_exclusions.txt	LTP245	ltpFR	1	15	1	TREE	1502	n/a	n/a	1	n/a	n/a	n/a	n/a	n/a
3427.618	n/a	WORD	1713809	wordpools/wasnorm_wordpool_less_exclusions.txt	LTP245	ltpFR	1	16	-1	FRUIT	610	n/a	n/a	-1	1.0	1.0	1	upper	Verdana.ttf
3431.478	n/a	WORD	1715739	wordpools/wasnorm_wordpool_less_exclusions.txt	LTP245	ltpFR	1	16	-1	HOME	712	n/a	n/a	-1	1.0	1.0	1	upper	Verdana.ttf
3435.572	n/a	WORD	1717786	wordpools/wasnorm_wordpool_less_exclusions.txt	LTP245	ltpFR	1	16	-1	ROOF	1205	n/a	n/a	-1	1.0	1.0	1	upper	Verdana.ttf
3439.566	n/a	WORD	1719783	wordpools/wasnorm_wordpool_less_exclusions.txt	LTP245	ltpFR	1	16	-1	CHIME	300	n/a	n/a	-1	1.0	1.0	1	upper	Verdana.ttf
3443.56	n/a	WORD	1721780	wordpools/wasnorm_wordpool_less_exclusions.txt	LTP245	ltpFR	1	16	-1	CHAMBER	277	n/a	n/a	-1	1.0	1.0	1	upper	Verdana.ttf
3447.738	n/a	WORD	1723869	wordpools/wasnorm_wordpool_less_exclusions.txt	LTP245	ltpFR	1	16	-1	CELERY	266	n/a	n/a	-1	1.0	1.0	1	upper	Verdana.ttf
3451.632	n/a	WORD	1725816	wordpools/wasnorm_wordpool_less_exclusions.txt	LTP245	ltpFR	1	16	-1	COLLEGE	346	n/a	n/a	-1	1.0	1.0	1	upper	Verdana.ttf
3455.842	n/a	WORD	1727921	wordpools/wasnorm_wordpool_less_exclusions.txt	LTP245	ltpFR	1	16	-1	CONCRETE	361	n/a	n/a	-1	1.0	1.0	1	upper	Verdana.ttf
3459.786	n/a	WORD	1729893	wordpools/wasnorm_wordpool_less_exclusions.txt	LTP245	ltpFR	1	16	-1	HOUSE	725	n/a	n/a	-1	1.0	1.0	1	upper	Verdana.ttf
3463.83	n/a	WORD	1731915	wordpools/wasnorm_wordpool_less_exclusions.txt	LTP245	ltpFR	1	16	-1	VEIN	1554	n/a	n/a	-1	1.0	1.0	1	upper	Verdana.ttf
3468.006	n/a	WORD	1734003	wordpools/wasnorm_wordpool_less_exclusions.txt	LTP245	ltpFR	1	16	-1	JUNGLE	764	n/a	n/a	-1	1.0	1.0	1	upper	Verdana.ttf
3472.0	n/a	WORD	1736000	wordpools/wasnorm_wordpool_less_exclusions.txt	LTP245	ltpFR	1	16	-1	BANANA	77	n/a	n/a	-1	1.0	1.0	1	upper	Verdana.ttf
3475.944	n/a	WORD	1737972	wordpools/wasnorm_wordpool_less_exclusions.txt	LTP245	ltpFR	1	16	-1	BUNNY	198	n/a	n/a	-1	1.0	1.0	1	upper	Verdana.ttf
3479.806	n/a	WORD	1739903	wordpools/wasnorm_wordpool_less_exclusions.txt	LTP245	ltpFR	1	16	-1	BERRY	122	n/a	n/a	-1	1.0	1.0	1	upper	Verdana.ttf
3484.0	n/a	WORD	1742000	wordpools/wasnorm_wordpool_less_exclusions.txt	LTP245	ltpFR	1	16	-1	CHERRY	293	n/a	n/a	-1	1.0	1.0	1	upper	Verdana.ttf
3488.028	n/a	WORD	1744014	wordpools/wasnorm_wordpool_less_exclusions.txt	LTP245	ltpFR	1	16	-1	DOOR	486	n/a	n/a	-1	1.0	1.0	1	upper	Verdana.ttf
3493.788	n/a	REC_START	1746894	n/a	LTP245	ltpFR	1	16	n/a	n/a	n/a	n/a	n/a	n/a	n/a	n/a	n/a	n/a	n/a
3494.316	n/a	REC_WORD	1747158	wordpools/wasnorm_wordpool_less_exclusions.txt	LTP245	ltpFR	1	16	-1	BANANA	77	n/a	n/a	-1	n/a	n/a	n/a	n/a	n/a
3495.374	n/a	REC_WORD	1747687	wordpools/wasnorm_wordpool_less_exclusions.txt	LTP245	ltpFR	1	16	-1	BERRY	122	n/a	n/a	-1	n/a	n/a	n/a	n/a	n/a
3497.788	n/a	REC_WORD	1748894	wordpools/wasnorm_wordpool_less_exclusions.txt	LTP245	ltpFR	1	16	-1	CHERRY	293	n/a	n/a	-1	n/a	n/a	n/a	n/a	n/a
3499.086	n/a	REC_WORD	1749543	wordpools/wasnorm_wordpool_less_exclusions.txt	LTP245	ltpFR	1	16	-1	FRUIT	610	n/a	n/a	-1	n/a	n/a	n/a	n/a	n/a
3500.596	n/a	REC_WORD	1750298	wordpools/wasnorm_wordpool_less_exclusions.txt	LTP245	ltpFR	1	16	-1	CONCRETE	361	n/a	n/a	-1	n/a	n/a	n/a	n/a	n/a
3501.918	n/a	REC_WORD	1750959	wordpools/wasnorm_wordpool_less_exclusions.txt	LTP245	ltpFR	1	16	-1	HOUSE	725	n/a	n/a	-1	n/a	n/a	n/a	n/a	n/a
3503.31	n/a	REC_WORD	1751655	wordpools/wasnorm_wordpool_less_exclusions.txt	LTP245	ltpFR	1	16	-1	DOOR	486	n/a	n/a	-1	n/a	n/a	n/a	n/a	n/a
3505.076	n/a	REC_WORD	1752538	wordpools/wasnorm_wordpool_less_exclusions.txt	LTP245	ltpFR	1	16	-1	JUNGLE	764	n/a	n/a	-1	n/a	n/a	n/a	n/a	n/a
3514.42	n/a	REC_WORD	1757210	wordpools/wasnorm_wordpool_less_exclusions.txt	LTP245	ltpFR	1	16	0	GLASS	639	n/a	n/a	0	n/a	n/a	n/a	n/a	n/a
3595.884	n/a	REC_START	1797942	n/a	LTP245	ltpFR	1	n/a	n/a	n/a	n/a	n/a	n/a	n/a	n/a	n/a	n/a	n/a	n/a
3597.37	n/a	FFR_REC_WORD	1798685	wordpools/wasnorm_wordpool_less_exclusions.txt	LTP245	ltpFR	1	n/a	-1	CONCRETE	361	n/a	n/a	-1	n/a	n/a	n/a	n/a	n/a
3598.708	n/a	FFR_REC_WORD	1799354	wordpools/wasnorm_wordpool_less_exclusions.txt	LTP245	ltpFR	1	n/a	-1	JUNGLE	764	n/a	n/a	-1	n/a	n/a	n/a	n/a	n/a
3601.502	n/a	FFR_REC_WORD	1800751	wordpools/wasnorm_wordpool_less_exclusions.txt	LTP245	ltpFR	1	n/a	-1	DESK	452	n/a	n/a	-1	n/a	n/a	n/a	n/a	n/a
3602.914	n/a	FFR_REC_WORD	1801457	wordpools/wasnorm_wordpool_less_exclusions.txt	LTP245	ltpFR	1	n/a	-1	THESAURUS	1454	n/a	n/a	-1	n/a	n/a	n/a	n/a	n/a
3606.55	n/a	FFR_REC_WORD	1803275	wordpools/wasnorm_wordpool_less_exclusions.txt	LTP245	ltpFR	1	n/a	-1	DICTIONARY	463	n/a	n/a	-1	n/a	n/a	n/a	n/a	n/a
3609.474	n/a	FFR_REC_WORD	1804737	wordpools/wasnorm_wordpool_less_exclusions.txt	LTP245	ltpFR	1	n/a	-1	HOUSE	725	n/a	n/a	-1	n/a	n/a	n/a	n/a	n/a
3611.424	n/a	FFR_REC_WORD	1805712	wordpools/wasnorm_wordpool_less_exclusions.txt	LTP245	ltpFR	1	n/a	-1	ATTIC	56	n/a	n/a	-1	n/a	n/a	n/a	n/a	n/a
3613.01	n/a	FFR_REC_WORD	1806505	wordpools/wasnorm_wordpool_less_exclusions.txt	LTP245	ltpFR	1	n/a	-1	ATMOSPHERE	54	n/a	n/a	-1	n/a	n/a	n/a	n/a	n/a
3615.75	n/a	FFR_REC_WORD	1807875	wordpools/wasnorm_wordpool_less_exclusions.txt	LTP245	ltpFR	1	n/a	-1	BERRY	122	n/a	n/a	-1	n/a	n/a	n/a	n/a	n/a
3617.23	n/a	FFR_REC_WORD	1808615	wordpools/wasnorm_wordpool_less_exclusions.txt	LTP245	ltpFR	1	n/a	-1	CHERRY	293	n/a	n/a	-1	n/a	n/a	n/a	n/a	n/a
3619.002	n/a	FFR_REC_WORD	1809501	wordpools/wasnorm_wordpool_less_exclusions.txt	LTP245	ltpFR	1	n/a	-1	BANANA	77	n/a	n/a	-1	n/a	n/a	n/a	n/a	n/a
3621.146	n/a	FFR_REC_WORD	1810573	wordpools/wasnorm_wordpool_less_exclusions.txt	LTP245	ltpFR	1	n/a	0	GLASS	639	n/a	n/a	0	n/a	n/a	n/a	n/a	n/a
3625.462	n/a	FFR_REC_WORD	1812731	wordpools/wasnorm_wordpool_less_exclusions.txt	LTP245	ltpFR	1	n/a	0	VEHICLE	1553	n/a	n/a	1	n/a	n/a	n/a	n/a	n/a
3631.48	n/a	FFR_REC_WORD	1815740	wordpools/wasnorm_wordpool_less_exclusions.txt	LTP245	ltpFR	1	n/a	n/a	TICKET	1464	n/a	n/a	n/a	n/a	n/a	n/a	n/a	n/a
3639.996	n/a	FFR_REC_WORD	1819998	wordpools/wasnorm_wordpool_less_exclusions.txt	LTP245	ltpFR	1	n/a	0	HAMMER	680	n/a	n/a	0	n/a	n/a	n/a	n/a	n/a
3664.34	n/a	FFR_REC_WORD	1832170	wordpools/wasnorm_wordpool_less_exclusions.txt	LTP245	ltpFR	1	n/a	0	CUE	422	n/a	n/a	0	n/a	n/a	n/a	n/a	n/a
3677.086	n/a	FFR_REC_WORD	1838543	wordpools/wasnorm_wordpool_less_exclusions.txt	LTP245	ltpFR	1	n/a	0	EWE	542	n/a	n/a	0	n/a	n/a	n/a	n/a	n/a
3677.908	n/a	FFR_REC_WORD	1838954	wordpools/wasnorm_wordpool_less_exclusions.txt	LTP245	ltpFR	1	n/a	0	EWE	542	n/a	n/a	0	n/a	n/a	n/a	n/a	n/a
3686.152	n/a	FFR_REC_WORD	1843076	wordpools/wasnorm_wordpool_less_exclusions.txt	LTP245	ltpFR	1	n/a	-1	PLANT	1083	n/a	n/a	-1	n/a	n/a	n/a	n/a	n/a
3712.572	n/a	FFR_REC_WORD	1856286	wordpools/wasnorm_wordpool_less_exclusions.txt	LTP245	ltpFR	1	n/a	n/a	MARINE	869	n/a	n/a	n/a	n/a	n/a	n/a	n/a	n/a
3766.858	n/a	FFR_REC_WORD	1883429	wordpools/wasnorm_wordpool_less_exclusions.txt	LTP245	ltpFR	1	n/a	0	SEAL	1262	n/a	n/a	1	n/a	n/a	n/a	n/a	n/a
3780.094	n/a	FFR_REC_WORD	1890047	wordpools/wasnorm_wordpool_less_exclusions.txt	LTP245	ltpFR	1	n/a	n/a	BASEBALL	93	n/a	n/a	n/a	n/a	n/a	n/a	n/a	n/a
3785.89	n/a	FFR_REC_WORD	1892945	wordpools/wasnorm_wordpool_less_exclusions.txt	LTP245	ltpFR	1	n/a	1	SOFTBALL	1343	n/a	n/a	0	n/a	n/a	n/a	n/a	n/a
3796.062	n/a	FFR_REC_WORD	1898031	wordpools/wasnorm_wordpool_less_exclusions.txt	LTP245	ltpFR	1	n/a	-1	SUIT	1402	n/a	n/a	-1	n/a	n/a	n/a	n/a	n/a
3799.848	n/a	FFR_REC_WORD	1899924	wordpools/wasnorm_wordpool_less_exclusions.txt	LTP245	ltpFR	1	n/a	-1	OFFICE	972	n/a	n/a	-1	n/a	n/a	n/a	n/a	n/a
3805.196	n/a	FFR_REC_WORD	1902598	wordpools/wasnorm_wordpool_less_exclusions.txt	LTP245	ltpFR	1	n/a	1	PENCIL	1042	n/a	n/a	0	n/a	n/a	n/a	n/a	n/a
3880.846	n/a	FFR_REC_WORD	1940423	wordpools/wasnorm_wordpool_less_exclusions.txt	LTP245	ltpFR	1	n/a	n/a	BAKER	71	n/a	n/a	n/a	n/a	n/a	n/a	n/a	n/a
3928.926	n/a	REC_START	1964463	n/a	LTP245	ltpFR	1	1	n/a	n/a	n/a	n/a	n/a	n/a	n/a	n/a	n/a	n/a	n/a
3928.958	n/a	RECOG_TARGET	1964479	n/a	LTP245	ltpFR	1	1	0	POLICE	1098	0	1	1	n/a	n/a	n/a	n/a	n/a
3930.4	n/a	RECOG_RESP	1965200	n/a	LTP245	ltpFR	1	1	0	POLICE	1098	0	n/a	1	n/a	n/a	n/a	n/a	n/a
3931.538	n/a	RECOG_CONF	1965769	n/a	LTP245	ltpFR	1	1	0	POLICE	1098	n/a	1	1	n/a	n/a	n/a	n/a	n/a
3933.304	n/a	RECOG_LURE	1966652	n/a	LTP245	ltpFR	1	1	n/a	BULLY	196	0	2	n/a	n/a	n/a	n/a	n/a	n/a
3934.37	n/a	RECOG_RESP	1967185	n/a	LTP245	ltpFR	1	1	n/a	BULLY	196	0	n/a	n/a	n/a	n/a	n/a	n/a	n/a
3935.386	n/a	RECOG_CONF	1967693	n/a	LTP245	ltpFR	1	1	n/a	BULLY	196	n/a	2	n/a	n/a	n/a	n/a	n/a	n/a
3937.046	n/a	RECOG_LURE	1968523	n/a	LTP245	ltpFR	1	1	n/a	PAD	998	1	1	n/a	n/a	n/a	n/a	n/a	n/a
3938.748	n/a	RECOG_RESP	1969374	n/a	LTP245	ltpFR	1	1	n/a	PAD	998	1	n/a	n/a	n/a	n/a	n/a	n/a	n/a
3939.746	n/a	RECOG_CONF	1969873	n/a	LTP245	ltpFR	1	1	n/a	PAD	998	n/a	1	n/a	n/a	n/a	n/a	n/a	n/a
3941.624	n/a	RECOG_TARGET	1970812	n/a	LTP245	ltpFR	1	1	0	DISC	473	1	1	1	n/a	n/a	n/a	n/a	n/a
3942.496	n/a	RECOG_RESP	1971248	n/a	LTP245	ltpFR	1	1	0	DISC	473	1	n/a	1	n/a	n/a	n/a	n/a	n/a
3943.718	n/a	RECOG_CONF	1971859	n/a	LTP245	ltpFR	1	1	0	DISC	473	n/a	1	1	n/a	n/a	n/a	n/a	n/a
3945.602	n/a	RECOG_LURE	1972801	n/a	LTP245	ltpFR	1	1	n/a	MAPLE	866	1	5	n/a	n/a	n/a	n/a	n/a	n/a
3946.884	n/a	RECOG_RESP	1973442	n/a	LTP245	ltpFR	1	1	n/a	MAPLE	866	1	n/a	n/a	n/a	n/a	n/a	n/a	n/a
3947.73	n/a	RECOG_CONF	1973865	n/a	LTP245	ltpFR	1	1	n/a	MAPLE	866	n/a	5	n/a	n/a	n/a	n/a	n/a	n/a
3949.612	n/a	RECOG_TARGET	1974806	n/a	LTP245	ltpFR	1	1	-1	CORPORATION	382	1	5	-1	n/a	n/a	n/a	n/a	n/a
3950.364	n/a	RECOG_RESP	1975182	n/a	LTP245	ltpFR	1	1	-1	CORPORATION	382	1	n/a	-1	n/a	n/a	n/a	n/a	n/a
3951.3	n/a	RECOG_CONF	1975650	n/a	LTP245	ltpFR	1	1	-1	CORPORATION	382	n/a	5	-1	n/a	n/a	n/a	n/a	n/a
3953.106	n/a	RECOG_LURE	1976553	n/a	LTP245	ltpFR	1	1	n/a	CANE	231	1	3	n/a	n/a	n/a	n/a	n/a	n/a
3954.746	n/a	RECOG_RESP	1977373	n/a	LTP245	ltpFR	1	1	n/a	CANE	231	1	n/a	n/a	n/a	n/a	n/a	n/a	n/a
3955.59	n/a	RECOG_CONF	1977795	n/a	LTP245	ltpFR	1	1	n/a	CANE	231	n/a	3	n/a	n/a	n/a	n/a	n/a	n/a
3957.368	n/a	RECOG_LURE	1978684	n/a	LTP245	ltpFR	1	1	n/a	VAMPIRE	1547	1	5	n/a	n/a	n/a	n/a	n/a	n/a
3958.138	n/a	RECOG_RESP	1979069	n/a	LTP245	ltpFR	1	1	n/a	VAMPIRE	1547	1	n/a	n/a	n/a	n/a	n/a	n/a	n/a
3959.012	n/a	RECOG_CONF	1979506	n/a	LTP245	ltpFR	1	1	n/a	VAMPIRE	1547	n/a	5	n/a	n/a	n/a	n/a	n/a	n/a
3960.728	n/a	RECOG_TARGET	1980364	n/a	LTP245	ltpFR	1	1	-1	CHERRY	293	1	5	-1	n/a	n/a	n/a	n/a	n/a
3961.464	n/a	RECOG_RESP	1980732	n/a	LTP245	ltpFR	1	1	-1	CHERRY	293	1	n/a	-1	n/a	n/a	n/a	n/a	n/a
3962.362	n/a	RECOG_CONF	1981181	n/a	LTP245	ltpFR	1	1	-1	CHERRY	293	n/a	5	-1	n/a	n/a	n/a	n/a	n/a
3964.24	n/a	RECOG_TARGET	1982120	n/a	LTP245	ltpFR	1	1	1	LAWYER	806	1	5	1	n/a	n/a	n/a	n/a	n/a
3965.156	n/a	RECOG_RESP	1982578	n/a	LTP245	ltpFR	1	1	1	LAWYER	806	1	n/a	1	n/a	n/a	n/a	n/a	n/a
3966.132	n/a	RECOG_CONF	1983066	n/a	LTP245	ltpFR	1	1	1	LAWYER	806	n/a	5	1	n/a	n/a	n/a	n/a	n/a
3967.934	n/a	RECOG_TARGET	1983967	n/a	LTP245	ltpFR	1	1	-1	ELEVATOR	524	1	5	-1	n/a	n/a	n/a	n/a	n/a
3968.538	n/a	RECOG_RESP	1984269	n/a	LTP245	ltpFR	1	1	-1	ELEVATOR	524	1	n/a	-1	n/a	n/a	n/a	n/a	n/a
3969.34	n/a	RECOG_CONF	1984670	n/a	LTP245	ltpFR	1	1	-1	ELEVATOR	524	n/a	5	-1	n/a	n/a	n/a	n/a	n/a
3971.264	n/a	RECOG_TARGET	1985632	n/a	LTP245	ltpFR	1	1	-1	CHIP	303	0	2	-1	n/a	n/a	n/a	n/a	n/a
3972.2	n/a	RECOG_RESP	1986100	n/a	LTP245	ltpFR	1	1	-1	CHIP	303	0	n/a	-1	n/a	n/a	n/a	n/a	n/a
3973.43	n/a	RECOG_CONF	1986715	n/a	LTP245	ltpFR	1	1	-1	CHIP	303	n/a	2	-1	n/a	n/a	n/a	n/a	n/a
3975.124	n/a	RECOG_TARGET	1987562	n/a	LTP245	ltpFR	1	1	-1	JUNGLE	764	1	5	-1	n/a	n/a	n/a	n/a	n/a
3975.67	n/a	RECOG_RESP	1987835	n/a	LTP245	ltpFR	1	1	-1	JUNGLE	764	1	n/a	-1	n/a	n/a	n/a	n/a	n/a
3976.5	n/a	RECOG_CONF	1988250	n/a	LTP245	ltpFR	1	1	-1	JUNGLE	764	n/a	5	-1	n/a	n/a	n/a	n/a	n/a
3978.236	n/a	RECOG_TARGET	1989118	n/a	LTP245	ltpFR	1	1	1	SPICE	1350	1	5	0	n/a	n/a	n/a	n/a	n/a
3979.392	n/a	RECOG_RESP	1989696	n/a	LTP245	ltpFR	1	1	1	SPICE	1350	1	n/a	0	n/a	n/a	n/a	n/a	n/a
3980.23	n/a	RECOG_CONF	1990115	n/a	LTP245	ltpFR	1	1	1	SPICE	1350	n/a	5	0	n/a	n/a	n/a	n/a	n/a
3982.014	n/a	RECOG_TARGET	1991007	n/a	LTP245	ltpFR	1	1	-1	MOUNTAIN	924	1	5	-1	n/a	n/a	n/a	n/a	n/a
3982.562	n/a	RECOG_RESP	1991281	n/a	LTP245	ltpFR	1	1	-1	MOUNTAIN	924	1	n/a	-1	n/a	n/a	n/a	n/a	n/a
3983.394	n/a	RECOG_CONF	1991697	n/a	LTP245	ltpFR	1	1	-1	MOUNTAIN	924	n/a	5	-1	n/a	n/a	n/a	n/a	n/a
3985.31	n/a	RECOG_TARGET	1992655	n/a	LTP245	ltpFR	1	1	1	COMMANDER	354	1	5	1	n/a	n/a	n/a	n/a	n/a
3985.976	n/a	RECOG_RESP	1992988	n/a	LTP245	ltpFR	1	1	1	COMMANDER	354	1	n/a	1	n/a	n/a	n/a	n/a	n/a
3986.854	n/a	RECOG_CONF	1993427	n/a	LTP245	ltpFR	1	1	1	COMMANDER	354	n/a	5	1	n/a	n/a	n/a	n/a	n/a
3988.722	n/a	RECOG_LURE	1994361	n/a	LTP245	ltpFR	1	1	n/a	CANDY	230	1	4	n/a	n/a	n/a	n/a	n/a	n/a
3989.164	n/a	RECOG_RESP	1994582	n/a	LTP245	ltpFR	1	1	n/a	CANDY	230	1	n/a	n/a	n/a	n/a	n/a	n/a	n/a
3990.048	n/a	RECOG_CONF	1995024	n/a	LTP245	ltpFR	1	1	n/a	CANDY	230	n/a	4	n/a	n/a	n/a	n/a	n/a	n/a
3991.834	n/a	RECOG_LURE	1995917	n/a	LTP245	ltpFR	1	1	n/a	SHELL	1281	0	3	n/a	n/a	n/a	n/a	n/a	n/a
3992.482	n/a	RECOG_RESP	1996241	n/a	LTP245	ltpFR	1	1	n/a	SHELL	1281	0	n/a	n/a	n/a	n/a	n/a	n/a	n/a
3993.63	n/a	RECOG_CONF	1996815	n/a	LTP245	ltpFR	1	1	n/a	SHELL	1281	n/a	3	n/a	n/a	n/a	n/a	n/a	n/a
3995.278	n/a	RECOG_TARGET	1997639	n/a	LTP245	ltpFR	1	1	1	BACON	67	1	4	0	n/a	n/a	n/a	n/a	n/a
3996.122	n/a	RECOG_RESP	1998061	n/a	LTP245	ltpFR	1	1	1	BACON	67	1	n/a	0	n/a	n/a	n/a	n/a	n/a
3996.922	n/a	RECOG_CONF	1998461	n/a	LTP245	ltpFR	1	1	1	BACON	67	n/a	4	0	n/a	n/a	n/a	n/a	n/a
3998.69	n/a	RECOG_LURE	1999345	n/a	LTP245	ltpFR	1	1	n/a	WRIST	1626	1	2	n/a	n/a	n/a	n/a	n/a	n/a
3999.484	n/a	RECOG_RESP	1999742	n/a	LTP245	ltpFR	1	1	n/a	WRIST	1626	1	n/a	n/a	n/a	n/a	n/a	n/a	n/a
4000.652	n/a	RECOG_CONF	2000326	n/a	LTP245	ltpFR	1	1	n/a	WRIST	1626	n/a	2	n/a	n/a	n/a	n/a	n/a	n/a
4023.02	n/a	REC_START	2011510	n/a	LTP245	ltpFR	1	2	n/a	n/a	n/a	n/a	n/a	n/a	n/a	n/a	n/a	n/a	n/a
4023.052	n/a	RECOG_LURE	2011526	n/a	LTP245	ltpFR	1	2	n/a	MUSEUM	933	0	2	n/a	n/a	n/a	n/a	n/a	n/a
4024.638	n/a	RECOG_RESP	2012319	n/a	LTP245	ltpFR	1	2	n/a	MUSEUM	933	0	n/a	n/a	n/a	n/a	n/a	n/a	n/a
4025.598	n/a	RECOG_CONF	2012799	n/a	LTP245	ltpFR	1	2	n/a	MUSEUM	933	n/a	2	n/a	n/a	n/a	n/a	n/a	n/a
4027.314	n/a	RECOG_TARGET	2013657	n/a	LTP245	ltpFR	1	2	0	NOTE	958	0	1	0	n/a	n/a	n/a	n/a	n/a
4028.316	n/a	RECOG_RESP	2014158	n/a	LTP245	ltpFR	1	2	0	NOTE	958	0	n/a	0	n/a	n/a	n/a	n/a	n/a
4029.764	n/a	RECOG_CONF	2014882	n/a	LTP245	ltpFR	1	2	0	NOTE	958	n/a	1	0	n/a	n/a	n/a	n/a	n/a
4031.39	n/a	RECOG_LURE	2015695	n/a	LTP245	ltpFR	1	2	n/a	CAN	225	1	1	n/a	n/a	n/a	n/a	n/a	n/a
4032.228	n/a	RECOG_RESP	2016114	n/a	LTP245	ltpFR	1	2	n/a	CAN	225	1	n/a	n/a	n/a	n/a	n/a	n/a	n/a
4033.382	n/a	RECOG_CONF	2016691	n/a	LTP245	ltpFR	1	2	n/a	CAN	225	n/a	1	n/a	n/a	n/a	n/a	n/a	n/a
4035.202	n/a	RECOG_TARGET	2017601	n/a	LTP245	ltpFR	1	2	0	UNIFORM	1539	1	5	1	n/a	n/a	n/a	n/a	n/a
4035.716	n/a	RECOG_RESP	2017858	n/a	LTP245	ltpFR	1	2	0	UNIFORM	1539	1	n/a	1	n/a	n/a	n/a	n/a	n/a
4036.5	n/a	RECOG_CONF	2018250	n/a	LTP245	ltpFR	1	2	0	UNIFORM	1539	n/a	5	1	n/a	n/a	n/a	n/a	n/a
4038.532	n/a	RECOG_LURE	2019266	n/a	LTP245	ltpFR	1	2	n/a	PIGMENT	1066	1	3	n/a	n/a	n/a	n/a	n/a	n/a
4040.644	n/a	RECOG_RESP	2020322	n/a	LTP245	ltpFR	1	2	n/a	PIGMENT	1066	1	n/a	n/a	n/a	n/a	n/a	n/a	n/a
4041.46	n/a	RECOG_CONF	2020730	n/a	LTP245	ltpFR	1	2	n/a	PIGMENT	1066	n/a	3	n/a	n/a	n/a	n/a	n/a	n/a
4043.14	n/a	RECOG_TARGET	2021570	n/a	LTP245	ltpFR	1	2	0	COUNTRY	388	1	5	1	n/a	n/a	n/a	n/a	n/a
4043.746	n/a	RECOG_RESP	2021873	n/a	LTP245	ltpFR	1	2	0	COUNTRY	388	1	n/a	1	n/a	n/a	n/a	n/a	n/a
4044.556	n/a	RECOG_CONF	2022278	n/a	LTP245	ltpFR	1	2	0	COUNTRY	388	n/a	5	1	n/a	n/a	n/a	n/a	n/a
4046.37	n/a	RECOG_LURE	2023185	n/a	LTP245	ltpFR	1	2	n/a	BOOT	150	0	2	n/a	n/a	n/a	n/a	n/a	n/a
4047.302	n/a	RECOG_RESP	2023651	n/a	LTP245	ltpFR	1	2	n/a	BOOT	150	0	n/a	n/a	n/a	n/a	n/a	n/a	n/a
4048.186	n/a	RECOG_CONF	2024093	n/a	LTP245	ltpFR	1	2	n/a	BOOT	150	n/a	2	n/a	n/a	n/a	n/a	n/a	n/a
4049.964	n/a	RECOG_TARGET	2024982	n/a	LTP245	ltpFR	1	2	0	VAGRANT	1544	1	5	0	n/a	n/a	n/a	n/a	n/a
4050.56	n/a	RECOG_RESP	2025280	n/a	LTP245	ltpFR	1	2	0	VAGRANT	1544	1	n/a	0	n/a	n/a	n/a	n/a	n/a
4051.226	n/a	RECOG_CONF	2025613	n/a	LTP245	ltpFR	1	2	0	VAGRANT	1544	n/a	5	0	n/a	n/a	n/a	n/a	n/a
4053.008	n/a	RECOG_TARGET	2026504	n/a	LTP245	ltpFR	1	2	1	VIKING	1565	1	5	1	n/a	n/a	n/a	n/a	n/a
4053.626	n/a	RECOG_RESP	2026813	n/a	LTP245	ltpFR	1	2	1	VIKING	1565	1	n/a	1	n/a	n/a	n/a	n/a	n/a
4054.32	n/a	RECOG_CONF	2027160	n/a	LTP245	ltpFR	1	2	1	VIKING	1565	n/a	5	1	n/a	n/a	n/a	n/a	n/a
4056.272	n/a	RECOG_LURE	2028136	n/a	LTP245	ltpFR	1	2	n/a	TIDE	1465	1	5	n/a	n/a	n/a	n/a	n/a	n/a
4056.862	n/a	RECOG_RESP	2028431	n/a	LTP245	ltpFR	1	2	n/a	TIDE	1465	1	n/a	n/a	n/a	n/a	n/a	n/a	n/a
4057.658	n/a	RECOG_CONF	2028829	n/a	LTP245	ltpFR	1	2	n/a	TIDE	1465	n/a	5	n/a	n/a	n/a	n/a	n/a	n/a
4059.466	n/a	RECOG_LURE	2029733	n/a	LTP245	ltpFR	1	2	n/a	CRYSTAL	418	0	2	n/a	n/a	n/a	n/a	n/a	n/a
4060.628	n/a	RECOG_RESP	2030314	n/a	LTP245	ltpFR	1	2	n/a	CRYSTAL	418	0	n/a	n/a	n/a	n/a	n/a	n/a	n/a
4061.518	n/a	RECOG_CONF	2030759	n/a	LTP245	ltpFR	1	2	n/a	CRYSTAL	418	n/a	2	n/a	n/a	n/a	n/a	n/a	n/a
4063.26	n/a	RECOG_LURE	2031630	n/a	LTP245	ltpFR	1	2	n/a	LIZARD	834	0	3	n/a	n/a	n/a	n/a	n/a	n/a
4064.304	n/a	RECOG_RESP	2032152	n/a	LTP245	ltpFR	1	2	n/a	LIZARD	834	0	n/a	n/a	n/a	n/a	n/a	n/a	n/a
4065.282	n/a	RECOG_CONF	2032641	n/a	LTP245	ltpFR	1	2	n/a	LIZARD	834	n/a	3	n/a	n/a	n/a	n/a	n/a	n/a
4067.07	n/a	RECOG_TARGET	2033535	n/a	LTP245	ltpFR	1	2	0	SEAL	1262	1	5	1	n/a	n/a	n/a	n/a	n/a
4067.798	n/a	RECOG_RESP	2033899	n/a	LTP245	ltpFR	1	2	0	SEAL	1262	1	n/a	1	n/a	n/a	n/a	n/a	n/a
4068.65	n/a	RECOG_CONF	2034325	n/a	LTP245	ltpFR	1	2	0	SEAL	1262	n/a	5	1	n/a	n/a	n/a	n/a	n/a
4070.484	n/a	RECOG_TARGET	2035242	n/a	LTP245	ltpFR	1	2	-1	ATTIC	56	1	5	-1	n/a	n/a	n/a	n/a	n/a
4070.996	n/a	RECOG_RESP	2035498	n/a	LTP245	ltpFR	1	2	-1	ATTIC	56	1	n/a	-1	n/a	n/a	n/a	n/a	n/a
4071.884	n/a	RECOG_CONF	2035942	n/a	LTP245	ltpFR	1	2	-1	ATTIC	56	n/a	5	-1	n/a	n/a	n/a	n/a	n/a
4073.546	n/a	RECOG_LURE	2036773	n/a	LTP245	ltpFR	1	2	n/a	NOOSE	956	0	2	n/a	n/a	n/a	n/a	n/a	n/a
4075.154	n/a	RECOG_RESP	2037577	n/a	LTP245	ltpFR	1	2	n/a	NOOSE	956	0	n/a	n/a	n/a	n/a	n/a	n/a	n/a
4076.116	n/a	RECOG_CONF	2038058	n/a	LTP245	ltpFR	1	2	n/a	NOOSE	956	n/a	2	n/a	n/a	n/a	n/a	n/a	n/a
4077.79	n/a	RECOG_TARGET	2038895	n/a	LTP245	ltpFR	1	2	0	TORCH	1484	1	5	1	n/a	n/a	n/a	n/a	n/a
4078.62	n/a	RECOG_RESP	2039310	n/a	LTP245	ltpFR	1	2	0	TORCH	1484	1	n/a	1	n/a	n/a	n/a	n/a	n/a
4079.344	n/a	RECOG_CONF	2039672	n/a	LTP245	ltpFR	1	2	0	TORCH	1484	n/a	5	1	n/a	n/a	n/a	n/a	n/a
4081.216	n/a	RECOG_LURE	2040608	n/a	LTP245	ltpFR	1	2	n/a	BULLET	194	1	2	n/a	n/a	n/a	n/a	n/a	n/a
4081.732	n/a	RECOG_RESP	2040866	n/a	LTP245	ltpFR	1	2	n/a	BULLET	194	1	n/a	n/a	n/a	n/a	n/a	n/a	n/a
4082.68	n/a	RECOG_CONF	2041340	n/a	LTP245	ltpFR	1	2	n/a	BULLET	194	n/a	2	n/a	n/a	n/a	n/a	n/a	n/a
4084.462	n/a	RECOG_TARGET	2042231	n/a	LTP245	ltpFR	1	2	-1	CANYON	235	n/a	2	-1	n/a	n/a	n/a	n/a	n/a
4087.306	n/a	RECOG_CONF	2043653	n/a	LTP245	ltpFR	1	2	-1	CANYON	235	n/a	2	-1	n/a	n/a	n/a	n/a	n/a
4089.072	n/a	RECOG_LURE	2044536	n/a	LTP245	ltpFR	1	2	n/a	GLACIER	638	1	5	n/a	n/a	n/a	n/a	n/a	n/a
4090.584	n/a	RECOG_RESP	2045292	n/a	LTP245	ltpFR	1	2	n/a	GLACIER	638	1	n/a	n/a	n/a	n/a	n/a	n/a	n/a
4091.73	n/a	RECOG_CONF	2045865	n/a	LTP245	ltpFR	1	2	n/a	GLACIER	638	n/a	5	n/a	n/a	n/a	n/a	n/a	n/a
4093.382	n/a	RECOG_TARGET	2046691	n/a	LTP245	ltpFR	1	2	1	PUBLISHER	1137	1	5	1	n/a	n/a	n/a	n/a	n/a
4094.198	n/a	RECOG_RESP	2047099	n/a	LTP245	ltpFR	1	2	1	PUBLISHER	1137	1	n/a	1	n/a	n/a	n/a	n/a	n/a
4095.074	n/a	RECOG_CONF	2047537	n/a	LTP245	ltpFR	1	2	1	PUBLISHER	1137	n/a	5	1	n/a	n/a	n/a	n/a	n/a
4100.108	n/a	REC_START	2050054	n/a	LTP245	ltpFR	1	3	n/a	n/a	n/a	n/a	n/a	n/a	n/a	n/a	n/a	n/a	n/a
4100.138	n/a	RECOG_LURE	2050069	n/a	LTP245	ltpFR	1	3	n/a	MARS	873	0	2	n/a	n/a	n/a	n/a	n/a	n/a
4101.552	n/a	RECOG_RESP	2050776	n/a	LTP245	ltpFR	1	3	n/a	MARS	873	0	n/a	n/a	n/a	n/a	n/a	n/a	n/a
4102.28	n/a	RECOG_CONF	2051140	n/a	LTP245	ltpFR	1	3	n/a	MARS	873	n/a	2	n/a	n/a	n/a	n/a	n/a	n/a
4104.084	n/a	RECOG_TARGET	2052042	n/a	LTP245	ltpFR	1	3	1	VESSEL	1558	1	5	0	n/a	n/a	n/a	n/a	n/a
4104.734	n/a	RECOG_RESP	2052367	n/a	LTP245	ltpFR	1	3	1	VESSEL	1558	1	n/a	0	n/a	n/a	n/a	n/a	n/a
4105.408	n/a	RECOG_CONF	2052704	n/a	LTP245	ltpFR	1	3	1	VESSEL	1558	n/a	5	0	n/a	n/a	n/a	n/a	n/a
4107.128	n/a	RECOG_TARGET	2053564	n/a	LTP245	ltpFR	1	3	0	SALIVA	1226	1	5	0	n/a	n/a	n/a	n/a	n/a
4107.606	n/a	RECOG_RESP	2053803	n/a	LTP245	ltpFR	1	3	0	SALIVA	1226	1	n/a	0	n/a	n/a	n/a	n/a	n/a
4108.282	n/a	RECOG_CONF	2054141	n/a	LTP245	ltpFR	1	3	0	SALIVA	1226	n/a	5	0	n/a	n/a	n/a	n/a	n/a
4109.908	n/a	RECOG_LURE	2054954	n/a	LTP245	ltpFR	1	3	n/a	PORCH	1106	1	5	n/a	n/a	n/a	n/a	n/a	n/a
4110.348	n/a	RECOG_RESP	2055174	n/a	LTP245	ltpFR	1	3	n/a	PORCH	1106	1	n/a	n/a	n/a	n/a	n/a	n/a	n/a
4111.098	n/a	RECOG_CONF	2055549	n/a	LTP245	ltpFR	1	3	n/a	PORCH	1106	n/a	5	n/a	n/a	n/a	n/a	n/a	n/a
4112.854	n/a	RECOG_LURE	2056427	n/a	LTP245	ltpFR	1	3	n/a	SCARF	1246	0	2	n/a	n/a	n/a	n/a	n/a	n/a
4113.604	n/a	RECOG_RESP	2056802	n/a	LTP245	ltpFR	1	3	n/a	SCARF	1246	0	n/a	n/a	n/a	n/a	n/a	n/a	n/a
4114.428	n/a	RECOG_CONF	2057214	n/a	LTP245	ltpFR	1	3	n/a	SCARF	1246	n/a	2	n/a	n/a	n/a	n/a	n/a	n/a
4116.166	n/a	RECOG_TARGET	2058083	n/a	LTP245	ltpFR	1	3	1	MARSH	874	1	5	0	n/a	n/a	n/a	n/a	n/a
4116.752	n/a	RECOG_RESP	2058376	n/a	LTP245	ltpFR	1	3	1	MARSH	874	1	n/a	0	n/a	n/a	n/a	n/a	n/a
4117.472	n/a	RECOG_CONF	2058736	n/a	LTP245	ltpFR	1	3	1	MARSH	874	n/a	5	0	n/a	n/a	n/a	n/a	n/a
4119.194	n/a	RECOG_LURE	2059597	n/a	LTP245	ltpFR	1	3	n/a	MATTRESS	879	1	3	n/a	n/a	n/a	n/a	n/a	n/a
4119.94	n/a	RECOG_RESP	2059970	n/a	LTP245	ltpFR	1	3	n/a	MATTRESS	879	1	n/a	n/a	n/a	n/a	n/a	n/a	n/a
4120.73	n/a	RECOG_CONF	2060365	n/a	LTP245	ltpFR	1	3	n/a	MATTRESS	879	n/a	3	n/a	n/a	n/a	n/a	n/a	n/a
4122.474	n/a	RECOG_TARGET	2061237	n/a	LTP245	ltpFR	1	3	1	SHEET	1279	0	3	0	n/a	n/a	n/a	n/a	n/a
4123.14	n/a	RECOG_RESP	2061570	n/a	LTP245	ltpFR	1	3	1	SHEET	1279	0	n/a	0	n/a	n/a	n/a	n/a	n/a
4124.016	n/a	RECOG_CONF	2062008	n/a	LTP245	ltpFR	1	3	1	SHEET	1279	n/a	3	0	n/a	n/a	n/a	n/a	n/a
4125.884	n/a	RECOG_LURE	2062942	n/a	LTP245	ltpFR	1	3	n/a	WEED	1599	1	3	n/a	n/a	n/a	n/a	n/a	n/a
4126.462	n/a	RECOG_RESP	2063231	n/a	LTP245	ltpFR	1	3	n/a	WEED	1599	1	n/a	n/a	n/a	n/a	n/a	n/a	n/a
4127.506	n/a	RECOG_CONF	2063753	n/a	LTP245	ltpFR	1	3	n/a	WEED	1599	n/a	3	n/a	n/a	n/a	n/a	n/a	n/a
4129.212	n/a	RECOG_TARGET	2064606	n/a	LTP245	ltpFR	1	3	1	SPIDER	1351	1	5	1	n/a	n/a	n/a	n/a	n/a
4129.816	n/a	RECOG_RESP	2064908	n/a	LTP245	ltpFR	1	3	1	SPIDER	1351	1	n/a	1	n/a	n/a	n/a	n/a	n/a
4130.7	n/a	RECOG_CONF	2065350	n/a	LTP245	ltpFR	1	3	1	SPIDER	1351	n/a	5	1	n/a	n/a	n/a	n/a	n/a
4132.576	n/a	RECOG_TARGET	2066288	n/a	LTP245	ltpFR	1	3	1	HOSE	720	1	5	0	n/a	n/a	n/a	n/a	n/a
4132.886	n/a	RECOG_RESP	2066443	n/a	LTP245	ltpFR	1	3	1	HOSE	720	1	n/a	0	n/a	n/a	n/a	n/a	n/a
4133.778	n/a	RECOG_CONF	2066889	n/a	LTP245	ltpFR	1	3	1	HOSE	720	n/a	5	0	n/a	n/a	n/a	n/a	n/a
4135.57	n/a	RECOG_TARGET	2067785	n/a	LTP245	ltpFR	1	3	0	SALESMAN	1225	1	5	0	n/a	n/a	n/a	n/a	n/a
4136.242	n/a	RECOG_RESP	2068121	n/a	LTP245	ltpFR	1	3	0	SALESMAN	1225	1	n/a	0	n/a	n/a	n/a	n/a	n/a
4137.102	n/a	RECOG_CONF	2068551	n/a	LTP245	ltpFR	1	3	0	SALESMAN	1225	n/a	5	0	n/a	n/a	n/a	n/a	n/a
4138.882	n/a	RECOG_TARGET	2069441	n/a	LTP245	ltpFR	1	3	-1	DESK	452	1	5	-1	n/a	n/a	n/a	n/a	n/a
4139.856	n/a	RECOG_RESP	2069928	n/a	LTP245	ltpFR	1	3	-1	DESK	452	1	n/a	-1	n/a	n/a	n/a	n/a	n/a
4140.634	n/a	RECOG_CONF	2070317	n/a	LTP245	ltpFR	1	3	-1	DESK	452	n/a	5	-1	n/a	n/a	n/a	n/a	n/a
4142.56	n/a	RECOG_TARGET	2071280	n/a	LTP245	ltpFR	1	3	1	THREAD	1460	1	5	0	n/a	n/a	n/a	n/a	n/a
4143.104	n/a	RECOG_RESP	2071552	n/a	LTP245	ltpFR	1	3	1	THREAD	1460	1	n/a	0	n/a	n/a	n/a	n/a	n/a
4143.95	n/a	RECOG_CONF	2071975	n/a	LTP245	ltpFR	1	3	1	THREAD	1460	n/a	5	0	n/a	n/a	n/a	n/a	n/a
4145.738	n/a	RECOG_TARGET	2072869	n/a	LTP245	ltpFR	1	3	0	CONDUCTOR	362	1	5	1	n/a	n/a	n/a	n/a	n/a
4146.272	n/a	RECOG_RESP	2073136	n/a	LTP245	ltpFR	1	3	0	CONDUCTOR	362	1	n/a	1	n/a	n/a	n/a	n/a	n/a
4147.1	n/a	RECOG_CONF	2073550	n/a	LTP245	ltpFR	1	3	0	CONDUCTOR	362	n/a	5	1	n/a	n/a	n/a	n/a	n/a
4148.916	n/a	RECOG_TARGET	2074458	n/a	LTP245	ltpFR	1	3	1	TREE	1502	0	2	1	n/a	n/a	n/a	n/a	n/a
4149.594	n/a	RECOG_RESP	2074797	n/a	LTP245	ltpFR	1	3	1	TREE	1502	0	n/a	1	n/a	n/a	n/a	n/a	n/a
4150.394	n/a	RECOG_CONF	2075197	n/a	LTP245	ltpFR	1	3	1	TREE	1502	n/a	2	1	n/a	n/a	n/a	n/a	n/a
4152.162	n/a	RECOG_LURE	2076081	n/a	LTP245	ltpFR	1	3	n/a	TURTLE	1522	1	2	n/a	n/a	n/a	n/a	n/a	n/a
4152.436	n/a	RECOG_RESP	2076218	n/a	LTP245	ltpFR	1	3	n/a	TURTLE	1522	1	n/a	n/a	n/a	n/a	n/a	n/a	n/a
4154.348	n/a	RECOG_CONF	2077174	n/a	LTP245	ltpFR	1	3	n/a	TURTLE	1522	n/a	2	n/a	n/a	n/a	n/a	n/a	n/a
4156.156	n/a	RECOG_TARGET	2078078	n/a	LTP245	ltpFR	1	3	-1	MICROWAVE	892	1	2	-1	n/a	n/a	n/a	n/a	n/a
4156.758	n/a	RECOG_RESP	2078379	n/a	LTP245	ltpFR	1	3	-1	MICROWAVE	892	1	n/a	-1	n/a	n/a	n/a	n/a	n/a
4158.062	n/a	RECOG_CONF	2079031	n/a	LTP245	ltpFR	1	3	-1	MICROWAVE	892	n/a	2	-1	n/a	n/a	n/a	n/a	n/a
4159.784	n/a	RECOG_LURE	2079892	n/a	LTP245	ltpFR	1	3	n/a	HELMET	702	0	4	n/a	n/a	n/a	n/a	n/a	n/a
4160.932	n/a	RECOG_RESP	2080466	n/a	LTP245	ltpFR	1	3	n/a	HELMET	702	0	n/a	n/a	n/a	n/a	n/a	n/a	n/a
4161.7	n/a	RECOG_CONF	2080850	n/a	LTP245	ltpFR	1	3	n/a	HELMET	702	n/a	4	n/a	n/a	n/a	n/a	n/a	n/a
4163.43	n/a	RECOG_TARGET	2081715	n/a	LTP245	ltpFR	1	3	0	SWEATER	1419	0	2	1	n/a	n/a	n/a	n/a	n/a
4164.494	n/a	RECOG_RESP	2082247	n/a	LTP245	ltpFR	1	3	0	SWEATER	1419	0	n/a	1	n/a	n/a	n/a	n/a	n/a
4165.476	n/a	RECOG_CONF	2082738	n/a	LTP245	ltpFR	1	3	0	SWEATER	1419	n/a	2	1	n/a	n/a	n/a	n/a	n/a
4169.962	n/a	REC_START	2084981	n/a	LTP245	ltpFR	1	4	n/a	n/a	n/a	n/a	n/a	n/a	n/a	n/a	n/a	n/a	n/a
4170.002	n/a	RECOG_LURE	2085001	n/a	LTP245	ltpFR	1	4	n/a	LEVER	815	0	4	n/a	n/a	n/a	n/a	n/a	n/a
4171.158	n/a	RECOG_RESP	2085579	n/a	LTP245	ltpFR	1	4	n/a	LEVER	815	0	n/a	n/a	n/a	n/a	n/a	n/a	n/a
4171.932	n/a	RECOG_CONF	2085966	n/a	LTP245	ltpFR	1	4	n/a	LEVER	815	n/a	4	n/a	n/a	n/a	n/a	n/a	n/a
4173.582	n/a	RECOG_LURE	2086791	n/a	LTP245	ltpFR	1	4	n/a	GRASS	655	0	2	n/a	n/a	n/a	n/a	n/a	n/a
4174.18	n/a	RECOG_RESP	2087090	n/a	LTP245	ltpFR	1	4	n/a	GRASS	655	0	n/a	n/a	n/a	n/a	n/a	n/a	n/a
4175.2	n/a	RECOG_CONF	2087600	n/a	LTP245	ltpFR	1	4	n/a	GRASS	655	n/a	2	n/a	n/a	n/a	n/a	n/a	n/a
4176.844	n/a	RECOG_LURE	2088422	n/a	LTP245	ltpFR	1	4	n/a	ITEM	746	0	3	n/a	n/a	n/a	n/a	n/a	n/a
4177.392	n/a	RECOG_RESP	2088696	n/a	LTP245	ltpFR	1	4	n/a	ITEM	746	0	n/a	n/a	n/a	n/a	n/a	n/a	n/a
4178.256	n/a	RECOG_CONF	2089128	n/a	LTP245	ltpFR	1	4	n/a	ITEM	746	n/a	3	n/a	n/a	n/a	n/a	n/a	n/a
4180.02	n/a	RECOG_LURE	2090010	n/a	LTP245	ltpFR	1	4	n/a	FOLLOWER	589	0	3	n/a	n/a	n/a	n/a	n/a	n/a
4181.386	n/a	RECOG_RESP_VV	2090693	n/a	LTP245	ltpFR	1	4	n/a	FOLLOWER	589	1	n/a	n/a	n/a	n/a	n/a	n/a	n/a
4182.316	n/a	RECOG_RESP	2091158	n/a	LTP245	ltpFR	1	4	n/a	FOLLOWER	589	0	n/a	n/a	n/a	n/a	n/a	n/a	n/a
4184.436	n/a	RECOG_CONF	2092218	n/a	LTP245	ltpFR	1	4	n/a	FOLLOWER	589	n/a	3	n/a	n/a	n/a	n/a	n/a	n/a
4186.128	n/a	RECOG_LURE	2093064	n/a	LTP245	ltpFR	1	4	n/a	SCALE	1241	1	2	n/a	n/a	n/a	n/a	n/a	n/a
4187.222	n/a	RECOG_RESP	2093611	n/a	LTP245	ltpFR	1	4	n/a	SCALE	1241	1	n/a	n/a	n/a	n/a	n/a	n/a	n/a
4188.282	n/a	RECOG_CONF	2094141	n/a	LTP245	ltpFR	1	4	n/a	SCALE	1241	n/a	2	n/a	n/a	n/a	n/a	n/a	n/a
4190.022	n/a	RECOG_LURE	2095011	n/a	LTP245	ltpFR	1	4	n/a	MEAT	883	0	4	n/a	n/a	n/a	n/a	n/a	n/a
4190.862	n/a	RECOG_RESP	2095431	n/a	LTP245	ltpFR	1	4	n/a	MEAT	883	0	n/a	n/a	n/a	n/a	n/a	n/a	n/a
4191.696	n/a	RECOG_CONF	2095848	n/a	LTP245	ltpFR	1	4	n/a	MEAT	883	n/a	4	n/a	n/a	n/a	n/a	n/a	n/a
4193.402	n/a	RECOG_TARGET	2096701	n/a	LTP245	ltpFR	1	4	0	CATTLE	261	1	5	1	n/a	n/a	n/a	n/a	n/a
4194.394	n/a	RECOG_RESP	2097197	n/a	LTP245	ltpFR	1	4	0	CATTLE	261	1	n/a	1	n/a	n/a	n/a	n/a	n/a
4195.164	n/a	RECOG_CONF	2097582	n/a	LTP245	ltpFR	1	4	0	CATTLE	261	n/a	5	1	n/a	n/a	n/a	n/a	n/a
4197.162	n/a	RECOG_TARGET	2098581	n/a	LTP245	ltpFR	1	4	1	BOSS	152	1	5	1	n/a	n/a	n/a	n/a	n/a
4197.75	n/a	RECOG_RESP	2098875	n/a	LTP245	ltpFR	1	4	1	BOSS	152	1	n/a	1	n/a	n/a	n/a	n/a	n/a
4198.602	n/a	RECOG_CONF	2099301	n/a	LTP245	ltpFR	1	4	1	BOSS	152	n/a	5	1	n/a	n/a	n/a	n/a	n/a
4200.14	n/a	RECOG_TARGET	2100070	n/a	LTP245	ltpFR	1	4	-1	TRUMPET	1513	1	5	-1	n/a	n/a	n/a	n/a	n/a
4200.674	n/a	RECOG_RESP	2100337	n/a	LTP245	ltpFR	1	4	-1	TRUMPET	1513	1	n/a	-1	n/a	n/a	n/a	n/a	n/a
4201.406	n/a	RECOG_CONF	2100703	n/a	LTP245	ltpFR	1	4	-1	TRUMPET	1513	n/a	5	-1	n/a	n/a	n/a	n/a	n/a
4203.036	n/a	RECOG_TARGET	2101518	n/a	LTP245	ltpFR	1	4	-1	DICTIONARY	463	1	5	-1	n/a	n/a	n/a	n/a	n/a
4203.602	n/a	RECOG_RESP	2101801	n/a	LTP245	ltpFR	1	4	-1	DICTIONARY	463	1	n/a	-1	n/a	n/a	n/a	n/a	n/a
4204.248	n/a	RECOG_CONF	2102124	n/a	LTP245	ltpFR	1	4	-1	DICTIONARY	463	n/a	5	-1	n/a	n/a	n/a	n/a	n/a
4205.85	n/a	RECOG_LURE	2102925	n/a	LTP245	ltpFR	1	4	n/a	CELLO	268	0	2	n/a	n/a	n/a	n/a	n/a	n/a
4206.454	n/a	RECOG_RESP	2103227	n/a	LTP245	ltpFR	1	4	n/a	CELLO	268	0	n/a	n/a	n/a	n/a	n/a	n/a	n/a
4207.124	n/a	RECOG_CONF	2103562	n/a	LTP245	ltpFR	1	4	n/a	CELLO	268	n/a	2	n/a	n/a	n/a	n/a	n/a	n/a
4208.746	n/a	RECOG_LURE	2104373	n/a	LTP245	ltpFR	1	4	n/a	FIREMAN	569	0	4	n/a	n/a	n/a	n/a	n/a	n/a
4209.37	n/a	RECOG_RESP	2104685	n/a	LTP245	ltpFR	1	4	n/a	FIREMAN	569	0	n/a	n/a	n/a	n/a	n/a	n/a	n/a
4210.074	n/a	RECOG_CONF	2105037	n/a	LTP245	ltpFR	1	4	n/a	FIREMAN	569	n/a	4	n/a	n/a	n/a	n/a	n/a	n/a
4211.692	n/a	RECOG_LURE	2105846	n/a	LTP245	ltpFR	1	4	n/a	RAT	1169	0	3	n/a	n/a	n/a	n/a	n/a	n/a
4212.304	n/a	RECOG_RESP	2106152	n/a	LTP245	ltpFR	1	4	n/a	RAT	1169	0	n/a	n/a	n/a	n/a	n/a	n/a	n/a
4213.04	n/a	RECOG_CONF	2106520	n/a	LTP245	ltpFR	1	4	n/a	RAT	1169	n/a	3	n/a	n/a	n/a	n/a	n/a	n/a
4214.604	n/a	RECOG_TARGET	2107302	n/a	LTP245	ltpFR	1	4	-1	CAKE	219	1	2	-1	n/a	n/a	n/a	n/a	n/a
4215.05	n/a	RECOG_RESP	2107525	n/a	LTP245	ltpFR	1	4	-1	CAKE	219	1	n/a	-1	n/a	n/a	n/a	n/a	n/a
4215.8	n/a	RECOG_CONF	2107900	n/a	LTP245	ltpFR	1	4	-1	CAKE	219	n/a	2	-1	n/a	n/a	n/a	n/a	n/a
4217.382	n/a	RECOG_TARGET	2108691	n/a	LTP245	ltpFR	1	4	1	HURRICANE	727	1	1	1	n/a	n/a	n/a	n/a	n/a
4217.798	n/a	RECOG_RESP	2108899	n/a	LTP245	ltpFR	1	4	1	HURRICANE	727	1	n/a	1	n/a	n/a	n/a	n/a	n/a
4218.796	n/a	RECOG_CONF	2109398	n/a	LTP245	ltpFR	1	4	1	HURRICANE	727	n/a	1	1	n/a	n/a	n/a	n/a	n/a
4220.412	n/a	RECOG_LURE	2110206	n/a	LTP245	ltpFR	1	4	n/a	NEEDLE	941	0	3	n/a	n/a	n/a	n/a	n/a	n/a
4220.936	n/a	RECOG_RESP	2110468	n/a	LTP245	ltpFR	1	4	n/a	NEEDLE	941	0	n/a	n/a	n/a	n/a	n/a	n/a	n/a
4221.854	n/a	RECOG_CONF	2110927	n/a	LTP245	ltpFR	1	4	n/a	NEEDLE	941	n/a	3	n/a	n/a	n/a	n/a	n/a	n/a
4223.524	n/a	RECOG_LURE	2111762	n/a	LTP245	ltpFR	1	4	n/a	SHAMPOO	1274	1	1	n/a	n/a	n/a	n/a	n/a	n/a
4223.9	n/a	RECOG_RESP	2111950	n/a	LTP245	ltpFR	1	4	n/a	SHAMPOO	1274	1	n/a	n/a	n/a	n/a	n/a	n/a	n/a
4225.032	n/a	RECOG_CONF	2112516	n/a	LTP245	ltpFR	1	4	n/a	SHAMPOO	1274	n/a	1	n/a	n/a	n/a	n/a	n/a	n/a
4226.502	n/a	RECOG_LURE	2113251	n/a	LTP245	ltpFR	1	4	n/a	JAW	751	0	1	n/a	n/a	n/a	n/a	n/a	n/a
4226.964	n/a	RECOG_RESP	2113482	n/a	LTP245	ltpFR	1	4	n/a	JAW	751	0	n/a	n/a	n/a	n/a	n/a	n/a	n/a
4227.85	n/a	RECOG_CONF	2113925	n/a	LTP245	ltpFR	1	4	n/a	JAW	751	n/a	1	n/a	n/a	n/a	n/a	n/a	n/a
4229.382	n/a	RECOG_LURE	2114691	n/a	LTP245	ltpFR	1	4	n/a	THRONE	1461	1	5	n/a	n/a	n/a	n/a	n/a	n/a
4230.06	n/a	RECOG_RESP	2115030	n/a	LTP245	ltpFR	1	4	n/a	THRONE	1461	1	n/a	n/a	n/a	n/a	n/a	n/a	n/a
4230.85	n/a	RECOG_CONF	2115425	n/a	LTP245	ltpFR	1	4	n/a	THRONE	1461	n/a	5	n/a	n/a	n/a	n/a	n/a	n/a
4232.46	n/a	RECOG_LURE	2116230	n/a	LTP245	ltpFR	1	4	n/a	JEWEL	757	1	3	n/a	n/a	n/a	n/a	n/a	n/a
4233.958	n/a	RECOG_RESP	2116979	n/a	LTP245	ltpFR	1	4	n/a	JEWEL	757	1	n/a	n/a	n/a	n/a	n/a	n/a	n/a
4234.984	n/a	RECOG_CONF	2117492	n/a	LTP245	ltpFR	1	4	n/a	JEWEL	757	n/a	3	n/a	n/a	n/a	n/a	n/a	n/a
4256.75	n/a	REC_START	2128375	n/a	LTP245	ltpFR	1	5	n/a	n/a	n/a	n/a	n/a	n/a	n/a	n/a	n/a	n/a	n/a
4256.792	n/a	RECOG_LURE	2128396	n/a	LTP245	ltpFR	1	5	n/a	KNIGHT	786	0	5	n/a	n/a	n/a	n/a	n/a	n/a
4257.516	n/a	RECOG_RESP	2128758	n/a	LTP245	ltpFR	1	5	n/a	KNIGHT	786	0	n/a	n/a	n/a	n/a	n/a	n/a	n/a
4258.18	n/a	RECOG_CONF	2129090	n/a	LTP245	ltpFR	1	5	n/a	KNIGHT	786	n/a	5	n/a	n/a	n/a	n/a	n/a	n/a
4259.87	n/a	RECOG_TARGET	2129935	n/a	LTP245	ltpFR	1	5	0	SUPERVISOR	1410	0	1	1	n/a	n/a	n/a	n/a	n/a
4260.276	n/a	RECOG_RESP	2130138	n/a	LTP245	ltpFR	1	5	0	SUPERVISOR	1410	0	n/a	1	n/a	n/a	n/a	n/a	n/a
4261.178	n/a	RECOG_CONF	2130589	n/a	LTP245	ltpFR	1	5	0	SUPERVISOR	1410	n/a	1	1	n/a	n/a	n/a	n/a	n/a
4262.766	n/a	RECOG_TARGET	2131383	n/a	LTP245	ltpFR	1	5	1	PLAID	1080	1	5	0	n/a	n/a	n/a	n/a	n/a
4263.338	n/a	RECOG_RESP_VV	2131669	n/a	LTP245	ltpFR	1	5	1	PLAID	1080	0	n/a	0	n/a	n/a	n/a	n/a	n/a
4264.37	n/a	RECOG_RESP	2132185	n/a	LTP245	ltpFR	1	5	1	PLAID	1080	1	n/a	0	n/a	n/a	n/a	n/a	n/a
4265.138	n/a	RECOG_CONF	2132569	n/a	LTP245	ltpFR	1	5	1	PLAID	1080	n/a	5	0	n/a	n/a	n/a	n/a	n/a
4266.992	n/a	RECOG_TARGET	2133496	n/a	LTP245	ltpFR	1	5	0	PLIERS	1089	1	5	0	n/a	n/a	n/a	n/a	n/a
4267.802	n/a	RECOG_RESP	2133901	n/a	LTP245	ltpFR	1	5	0	PLIERS	1089	1	n/a	0	n/a	n/a	n/a	n/a	n/a
4268.37	n/a	RECOG_CONF	2134185	n/a	LTP245	ltpFR	1	5	0	PLIERS	1089	n/a	5	0	n/a	n/a	n/a	n/a	n/a
4270.104	n/a	RECOG_LURE	2135052	n/a	LTP245	ltpFR	1	5	n/a	TOMBSTONE	1478	0	5	n/a	n/a	n/a	n/a	n/a	n/a
4270.804	n/a	RECOG_RESP	2135402	n/a	LTP245	ltpFR	1	5	n/a	TOMBSTONE	1478	0	n/a	n/a	n/a	n/a	n/a	n/a	n/a
4271.388	n/a	RECOG_CONF	2135694	n/a	LTP245	ltpFR	1	5	n/a	TOMBSTONE	1478	n/a	5	n/a	n/a	n/a	n/a	n/a	n/a
4273.132	n/a	RECOG_TARGET	2136566	n/a	LTP245	ltpFR	1	5	-1	PIANO	1057	0	4	-1	n/a	n/a	n/a	n/a	n/a
4273.822	n/a	RECOG_RESP	2136911	n/a	LTP245	ltpFR	1	5	-1	PIANO	1057	0	n/a	-1	n/a	n/a	n/a	n/a	n/a
4274.414	n/a	RECOG_CONF	2137207	n/a	LTP245	ltpFR	1	5	-1	PIANO	1057	n/a	4	-1	n/a	n/a	n/a	n/a	n/a
4276.046	n/a	RECOG_TARGET	2138023	n/a	LTP245	ltpFR	1	5	0	APARTMENT	30	1	1	1	n/a	n/a	n/a	n/a	n/a
4276.738	n/a	RECOG_RESP	2138369	n/a	LTP245	ltpFR	1	5	0	APARTMENT	30	1	n/a	1	n/a	n/a	n/a	n/a	n/a
4277.772	n/a	RECOG_CONF	2138886	n/a	LTP245	ltpFR	1	5	0	APARTMENT	30	n/a	1	1	n/a	n/a	n/a	n/a	n/a
4279.392	n/a	RECOG_LURE	2139696	n/a	LTP245	ltpFR	1	5	n/a	COWBOY	395	1	4	n/a	n/a	n/a	n/a	n/a	n/a
4280.016	n/a	RECOG_RESP	2140008	n/a	LTP245	ltpFR	1	5	n/a	COWBOY	395	1	n/a	n/a	n/a	n/a	n/a	n/a	n/a
4280.986	n/a	RECOG_CONF	2140493	n/a	LTP245	ltpFR	1	5	n/a	COWBOY	395	n/a	4	n/a	n/a	n/a	n/a	n/a	n/a
4282.636	n/a	RECOG_LURE	2141318	n/a	LTP245	ltpFR	1	5	n/a	ROBBER	1197	1	2	n/a	n/a	n/a	n/a	n/a	n/a
4283.704	n/a	RECOG_RESP	2141852	n/a	LTP245	ltpFR	1	5	n/a	ROBBER	1197	1	n/a	n/a	n/a	n/a	n/a	n/a	n/a
4284.768	n/a	RECOG_CONF	2142384	n/a	LTP245	ltpFR	1	5	n/a	ROBBER	1197	n/a	2	n/a	n/a	n/a	n/a	n/a	n/a
4286.48	n/a	RECOG_LURE	2143240	n/a	LTP245	ltpFR	1	5	n/a	BANKER	84	0	4	n/a	n/a	n/a	n/a	n/a	n/a
4287.53	n/a	RECOG_RESP	2143765	n/a	LTP245	ltpFR	1	5	n/a	BANKER	84	0	n/a	n/a	n/a	n/a	n/a	n/a	n/a
4288.25	n/a	RECOG_CONF	2144125	n/a	LTP245	ltpFR	1	5	n/a	BANKER	84	n/a	4	n/a	n/a	n/a	n/a	n/a	n/a
4289.974	n/a	RECOG_LURE	2144987	n/a	LTP245	ltpFR	1	5	n/a	WARRIOR	1589	0	2	n/a	n/a	n/a	n/a	n/a	n/a
4290.61	n/a	RECOG_RESP	2145305	n/a	LTP245	ltpFR	1	5	n/a	WARRIOR	1589	0	n/a	n/a	n/a	n/a	n/a	n/a	n/a
4291.326	n/a	RECOG_CONF	2145663	n/a	LTP245	ltpFR	1	5	n/a	WARRIOR	1589	n/a	2	n/a	n/a	n/a	n/a	n/a	n/a
4292.904	n/a	RECOG_TARGET	2146452	n/a	LTP245	ltpFR	1	5	-1	CHAMBER	277	0	4	-1	n/a	n/a	n/a	n/a	n/a
4293.434	n/a	RECOG_RESP	2146717	n/a	LTP245	ltpFR	1	5	-1	CHAMBER	277	0	n/a	-1	n/a	n/a	n/a	n/a	n/a
4294.32	n/a	RECOG_CONF	2147160	n/a	LTP245	ltpFR	1	5	-1	CHAMBER	277	n/a	4	-1	n/a	n/a	n/a	n/a	n/a
4296.016	n/a	RECOG_LURE	2148008	n/a	LTP245	ltpFR	1	5	n/a	BOOTH	151	0	1	n/a	n/a	n/a	n/a	n/a	n/a
4296.97	n/a	RECOG_RESP	2148485	n/a	LTP245	ltpFR	1	5	n/a	BOOTH	151	0	n/a	n/a	n/a	n/a	n/a	n/a	n/a
4297.92	n/a	RECOG_CONF	2148960	n/a	LTP245	ltpFR	1	5	n/a	BOOTH	151	n/a	1	n/a	n/a	n/a	n/a	n/a	n/a
4299.61	n/a	RECOG_TARGET	2149805	n/a	LTP245	ltpFR	1	5	-1	THESAURUS	1454	1	5	-1	n/a	n/a	n/a	n/a	n/a
4299.894	n/a	RECOG_RESP	2149947	n/a	LTP245	ltpFR	1	5	-1	THESAURUS	1454	1	n/a	-1	n/a	n/a	n/a	n/a	n/a
4300.568	n/a	RECOG_CONF	2150284	n/a	LTP245	ltpFR	1	5	-1	THESAURUS	1454	n/a	5	-1	n/a	n/a	n/a	n/a	n/a
4302.222	n/a	RECOG_LURE	2151111	n/a	LTP245	ltpFR	1	5	n/a	CATCHER	258	0	2	n/a	n/a	n/a	n/a	n/a	n/a
4303.894	n/a	RECOG_RESP	2151947	n/a	LTP245	ltpFR	1	5	n/a	CATCHER	258	0	n/a	n/a	n/a	n/a	n/a	n/a	n/a
4304.656	n/a	RECOG_CONF	2152328	n/a	LTP245	ltpFR	1	5	n/a	CATCHER	258	n/a	2	n/a	n/a	n/a	n/a	n/a	n/a
4306.218	n/a	RECOG_TARGET	2153109	n/a	LTP245	ltpFR	1	5	1	CHAIR	274	1	5	0	n/a	n/a	n/a	n/a	n/a
4307.112	n/a	RECOG_RESP	2153556	n/a	LTP245	ltpFR	1	5	1	CHAIR	274	1	n/a	0	n/a	n/a	n/a	n/a	n/a
4307.9	n/a	RECOG_CONF	2153950	n/a	LTP245	ltpFR	1	5	1	CHAIR	274	n/a	5	0	n/a	n/a	n/a	n/a	n/a
4309.498	n/a	RECOG_LURE	2154749	n/a	LTP245	ltpFR	1	5	n/a	SPINE	1353	0	2	n/a	n/a	n/a	n/a	n/a	n/a
4311.9	n/a	RECOG_RESP	2155950	n/a	LTP245	ltpFR	1	5	n/a	SPINE	1353	0	n/a	n/a	n/a	n/a	n/a	n/a	n/a
4312.678	n/a	RECOG_CONF	2156339	n/a	LTP245	ltpFR	1	5	n/a	SPINE	1353	n/a	2	n/a	n/a	n/a	n/a	n/a	n/a
4314.406	n/a	RECOG_LURE	2157203	n/a	LTP245	ltpFR	1	5	n/a	STABLE	1363	0	4	n/a	n/a	n/a	n/a	n/a	n/a
4315.42	n/a	RECOG_RESP	2157710	n/a	LTP245	ltpFR	1	5	n/a	STABLE	1363	0	n/a	n/a	n/a	n/a	n/a	n/a	n/a
4316.326	n/a	RECOG_CONF	2158163	n/a	LTP245	ltpFR	1	5	n/a	STABLE	1363	n/a	4	n/a	n/a	n/a	n/a	n/a	n/a
4317.9	n/a	RECOG_LURE	2158950	n/a	LTP245	ltpFR	1	5	n/a	PADDLE	1000	0	3	n/a	n/a	n/a	n/a	n/a	n/a
4320.436	n/a	RECOG_RESP	2160218	n/a	LTP245	ltpFR	1	5	n/a	PADDLE	1000	0	n/a	n/a	n/a	n/a	n/a	n/a	n/a
4321.408	n/a	RECOG_CONF	2160704	n/a	LTP245	ltpFR	1	5	n/a	PADDLE	1000	n/a	3	n/a	n/a	n/a	n/a	n/a	n/a
4323.142	n/a	RECOG_TARGET	2161571	n/a	LTP245	ltpFR	1	5	-1	DOOR	486	1	5	-1	n/a	n/a	n/a	n/a	n/a
4324.968	n/a	RECOG_RESP	2162484	n/a	LTP245	ltpFR	1	5	-1	DOOR	486	1	n/a	-1	n/a	n/a	n/a	n/a	n/a
4325.822	n/a	RECOG_CONF	2162911	n/a	LTP245	ltpFR	1	5	-1	DOOR	486	n/a	5	-1	n/a	n/a	n/a	n/a	n/a
4330.23	n/a	REC_START	2165115	n/a	LTP245	ltpFR	1	6	n/a	n/a	n/a	n/a	n/a	n/a	n/a	n/a	n/a	n/a	n/a
4330.266	n/a	RECOG_LURE	2165133	n/a	LTP245	ltpFR	1	6	n/a	IGLOO	734	0	5	n/a	n/a	n/a	n/a	n/a	n/a
4331.224	n/a	RECOG_RESP	2165612	n/a	LTP245	ltpFR	1	6	n/a	IGLOO	734	0	n/a	n/a	n/a	n/a	n/a	n/a	n/a
4331.714	n/a	RECOG_CONF	2165857	n/a	LTP245	ltpFR	1	6	n/a	IGLOO	734	n/a	5	n/a	n/a	n/a	n/a	n/a	n/a
4333.478	n/a	RECOG_TARGET	2166739	n/a	LTP245	ltpFR	1	6	1	TROMBONE	1508	0	4	0	n/a	n/a	n/a	n/a	n/a
4335.402	n/a	RECOG_RESP	2167701	n/a	LTP245	ltpFR	1	6	1	TROMBONE	1508	0	n/a	0	n/a	n/a	n/a	n/a	n/a
4336.028	n/a	RECOG_CONF	2168014	n/a	LTP245	ltpFR	1	6	1	TROMBONE	1508	n/a	4	0	n/a	n/a	n/a	n/a	n/a
4337.822	n/a	RECOG_TARGET	2168911	n/a	LTP245	ltpFR	1	6	1	SHEEP	1278	1	5	1	n/a	n/a	n/a	n/a	n/a
4338.332	n/a	RECOG_RESP	2169166	n/a	LTP245	ltpFR	1	6	1	SHEEP	1278	1	n/a	1	n/a	n/a	n/a	n/a	n/a
4339.026	n/a	RECOG_CONF	2169513	n/a	LTP245	ltpFR	1	6	1	SHEEP	1278	n/a	5	1	n/a	n/a	n/a	n/a	n/a
4340.668	n/a	RECOG_LURE	2170334	n/a	LTP245	ltpFR	1	6	n/a	JAPAN	749	0	4	n/a	n/a	n/a	n/a	n/a	n/a
4341.334	n/a	RECOG_RESP	2170667	n/a	LTP245	ltpFR	1	6	n/a	JAPAN	749	0	n/a	n/a	n/a	n/a	n/a	n/a	n/a
4341.91	n/a	RECOG_CONF	2170955	n/a	LTP245	ltpFR	1	6	n/a	JAPAN	749	n/a	4	n/a	n/a	n/a	n/a	n/a	n/a
4343.63	n/a	RECOG_TARGET	2171815	n/a	LTP245	ltpFR	1	6	0	POPCORN	1104	1	5	0	n/a	n/a	n/a	n/a	n/a
4344.158	n/a	RECOG_RESP	2172079	n/a	LTP245	ltpFR	1	6	0	POPCORN	1104	1	n/a	0	n/a	n/a	n/a	n/a	n/a
4344.892	n/a	RECOG_CONF	2172446	n/a	LTP245	ltpFR	1	6	0	POPCORN	1104	n/a	5	0	n/a	n/a	n/a	n/a	n/a
4346.442	n/a	RECOG_TARGET	2173221	n/a	LTP245	ltpFR	1	6	1	SUITE	1404	1	5	0	n/a	n/a	n/a	n/a	n/a
4347.216	n/a	RECOG_RESP	2173608	n/a	LTP245	ltpFR	1	6	1	SUITE	1404	1	n/a	0	n/a	n/a	n/a	n/a	n/a
4347.868	n/a	RECOG_CONF	2173934	n/a	LTP245	ltpFR	1	6	1	SUITE	1404	n/a	5	0	n/a	n/a	n/a	n/a	n/a
4349.654	n/a	RECOG_TARGET	2174827	n/a	LTP245	ltpFR	1	6	1	HALL	677	1	5	0	n/a	n/a	n/a	n/a	n/a
4350.19	n/a	RECOG_RESP	2175095	n/a	LTP245	ltpFR	1	6	1	HALL	677	1	n/a	0	n/a	n/a	n/a	n/a	n/a
4350.822	n/a	RECOG_CONF	2175411	n/a	LTP245	ltpFR	1	6	1	HALL	677	n/a	5	0	n/a	n/a	n/a	n/a	n/a
4352.566	n/a	RECOG_LURE	2176283	n/a	LTP245	ltpFR	1	6	n/a	STOVE	1388	0	3	n/a	n/a	n/a	n/a	n/a	n/a
4353.224	n/a	RECOG_RESP	2176612	n/a	LTP245	ltpFR	1	6	n/a	STOVE	1388	0	n/a	n/a	n/a	n/a	n/a	n/a	n/a
4353.934	n/a	RECOG_CONF	2176967	n/a	LTP245	ltpFR	1	6	n/a	STOVE	1388	n/a	3	n/a	n/a	n/a	n/a	n/a	n/a
4355.562	n/a	RECOG_LURE	2177781	n/a	LTP245	ltpFR	1	6	n/a	YOKE	1632	0	2	n/a	n/a	n/a	n/a	n/a	n/a
4356.024	n/a	RECOG_RESP	2178012	n/a	LTP245	ltpFR	1	6	n/a	YOKE	1632	0	n/a	n/a	n/a	n/a	n/a	n/a	n/a
4356.734	n/a	RECOG_CONF	2178367	n/a	LTP245	ltpFR	1	6	n/a	YOKE	1632	n/a	2	n/a	n/a	n/a	n/a	n/a	n/a
4358.458	n/a	RECOG_LURE	2179229	n/a	LTP245	ltpFR	1	6	n/a	HANGER	687	1	1	n/a	n/a	n/a	n/a	n/a	n/a
4359.272	n/a	RECOG_RESP	2179636	n/a	LTP245	ltpFR	1	6	n/a	HANGER	687	1	n/a	n/a	n/a	n/a	n/a	n/a	n/a
4360.234	n/a	RECOG_CONF	2180117	n/a	LTP245	ltpFR	1	6	n/a	HANGER	687	n/a	1	n/a	n/a	n/a	n/a	n/a	n/a
4361.884	n/a	RECOG_LURE	2180942	n/a	LTP245	ltpFR	1	6	n/a	CHARCOAL	281	1	1	n/a	n/a	n/a	n/a	n/a	n/a
4362.552	n/a	RECOG_RESP	2181276	n/a	LTP245	ltpFR	1	6	n/a	CHARCOAL	281	1	n/a	n/a	n/a	n/a	n/a	n/a	n/a
4363.738	n/a	RECOG_CONF	2181869	n/a	LTP245	ltpFR	1	6	n/a	CHARCOAL	281	n/a	1	n/a	n/a	n/a	n/a	n/a	n/a
4365.348	n/a	RECOG_TARGET	2182674	n/a	LTP245	ltpFR	1	6	0	COD	340	1	5	0	n/a	n/a	n/a	n/a	n/a
4366.0	n/a	RECOG_RESP	2183000	n/a	LTP245	ltpFR	1	6	0	COD	340	1	n/a	0	n/a	n/a	n/a	n/a	n/a
4366.704	n/a	RECOG_CONF	2183352	n/a	LTP245	ltpFR	1	6	0	COD	340	n/a	5	0	n/a	n/a	n/a	n/a	n/a
4368.51	n/a	RECOG_TARGET	2184255	n/a	LTP245	ltpFR	1	6	-1	SCREEN	1253	0	3	-1	n/a	n/a	n/a	n/a	n/a
4368.914	n/a	RECOG_RESP	2184457	n/a	LTP245	ltpFR	1	6	-1	SCREEN	1253	0	n/a	-1	n/a	n/a	n/a	n/a	n/a
4369.916	n/a	RECOG_CONF	2184958	n/a	LTP245	ltpFR	1	6	-1	SCREEN	1253	n/a	3	-1	n/a	n/a	n/a	n/a	n/a
4371.488	n/a	RECOG_TARGET	2185744	n/a	LTP245	ltpFR	1	6	0	VEHICLE	1553	1	5	1	n/a	n/a	n/a	n/a	n/a
4372.052	n/a	RECOG_RESP	2186026	n/a	LTP245	ltpFR	1	6	0	VEHICLE	1553	1	n/a	1	n/a	n/a	n/a	n/a	n/a
4372.66	n/a	RECOG_CONF	2186330	n/a	LTP245	ltpFR	1	6	0	VEHICLE	1553	n/a	5	1	n/a	n/a	n/a	n/a	n/a
4374.334	n/a	RECOG_TARGET	2187167	n/a	LTP245	ltpFR	1	6	-1	CHIME	300	1	5	-1	n/a	n/a	n/a	n/a	n/a
4375.078	n/a	RECOG_RESP	2187539	n/a	LTP245	ltpFR	1	6	-1	CHIME	300	1	n/a	-1	n/a	n/a	n/a	n/a	n/a
4375.788	n/a	RECOG_CONF	2187894	n/a	LTP245	ltpFR	1	6	-1	CHIME	300	n/a	5	-1	n/a	n/a	n/a	n/a	n/a
4377.58	n/a	RECOG_LURE	2188790	n/a	LTP245	ltpFR	1	6	n/a	CARAVAN	242	1	4	n/a	n/a	n/a	n/a	n/a	n/a
4379.506	n/a	RECOG_RESP	2189753	n/a	LTP245	ltpFR	1	6	n/a	CARAVAN	242	1	n/a	n/a	n/a	n/a	n/a	n/a	n/a
4380.334	n/a	RECOG_CONF	2190167	n/a	LTP245	ltpFR	1	6	n/a	CARAVAN	242	n/a	4	n/a	n/a	n/a	n/a	n/a	n/a
4382.088	n/a	RECOG_TARGET	2191044	n/a	LTP245	ltpFR	1	6	1	CAP	236	1	5	0	n/a	n/a	n/a	n/a	n/a
4385.122	n/a	RECOG_RESP	2192561	n/a	LTP245	ltpFR	1	6	1	CAP	236	1	n/a	0	n/a	n/a	n/a	n/a	n/a
4385.886	n/a	RECOG_CONF	2192943	n/a	LTP245	ltpFR	1	6	1	CAP	236	n/a	5	0	n/a	n/a	n/a	n/a	n/a
4387.664	n/a	RECOG_TARGET	2193832	n/a	LTP245	ltpFR	1	6	0	SHERIFF	1284	1	5	1	n/a	n/a	n/a	n/a	n/a
4388.226	n/a	RECOG_RESP	2194113	n/a	LTP245	ltpFR	1	6	0	SHERIFF	1284	1	n/a	1	n/a	n/a	n/a	n/a	n/a
4388.994	n/a	RECOG_CONF	2194497	n/a	LTP245	ltpFR	1	6	0	SHERIFF	1284	n/a	5	1	n/a	n/a	n/a	n/a	n/a
4390.76	n/a	RECOG_TARGET	2195380	n/a	LTP245	ltpFR	1	6	1	TENT	1449	1	5	0	n/a	n/a	n/a	n/a	n/a
4391.222	n/a	RECOG_RESP	2195611	n/a	LTP245	ltpFR	1	6	1	TENT	1449	1	n/a	0	n/a	n/a	n/a	n/a	n/a
4391.956	n/a	RECOG_CONF	2195978	n/a	LTP245	ltpFR	1	6	1	TENT	1449	n/a	5	0	n/a	n/a	n/a	n/a	n/a
4393.522	n/a	RECOG_LURE	2196761	n/a	LTP245	ltpFR	1	6	n/a	SPIT	1354	1	3	n/a	n/a	n/a	n/a	n/a	n/a
4394.098	n/a	RECOG_RESP	2197049	n/a	LTP245	ltpFR	1	6	n/a	SPIT	1354	1	n/a	n/a	n/a	n/a	n/a	n/a	n/a
4394.934	n/a	RECOG_CONF	2197467	n/a	LTP245	ltpFR	1	6	n/a	SPIT	1354	n/a	3	n/a	n/a	n/a	n/a	n/a	n/a
4401.466	n/a	REC_START	2200733	n/a	LTP245	ltpFR	1	7	n/a	n/a	n/a	n/a	n/a	n/a	n/a	n/a	n/a	n/a	n/a
4401.494	n/a	RECOG_TARGET	2200747	n/a	LTP245	ltpFR	1	7	0	GUM	672	1	5	0	n/a	n/a	n/a	n/a	n/a
4402.092	n/a	RECOG_RESP	2201046	n/a	LTP245	ltpFR	1	7	0	GUM	672	1	n/a	0	n/a	n/a	n/a	n/a	n/a
4402.778	n/a	RECOG_CONF	2201389	n/a	LTP245	ltpFR	1	7	0	GUM	672	n/a	5	0	n/a	n/a	n/a	n/a	n/a
4404.356	n/a	RECOG_TARGET	2202178	n/a	LTP245	ltpFR	1	7	0	GOAT	644	1	5	1	n/a	n/a	n/a	n/a	n/a
4404.714	n/a	RECOG_RESP	2202357	n/a	LTP245	ltpFR	1	7	0	GOAT	644	1	n/a	1	n/a	n/a	n/a	n/a	n/a
4405.562	n/a	RECOG_CONF	2202781	n/a	LTP245	ltpFR	1	7	0	GOAT	644	n/a	5	1	n/a	n/a	n/a	n/a	n/a
4407.118	n/a	RECOG_TARGET	2203559	n/a	LTP245	ltpFR	1	7	0	GOWN	652	1	5	0	n/a	n/a	n/a	n/a	n/a
4408.256	n/a	RECOG_RESP	2204128	n/a	LTP245	ltpFR	1	7	0	GOWN	652	1	n/a	0	n/a	n/a	n/a	n/a	n/a
4408.976	n/a	RECOG_CONF	2204488	n/a	LTP245	ltpFR	1	7	0	GOWN	652	n/a	5	0	n/a	n/a	n/a	n/a	n/a
4410.664	n/a	RECOG_LURE	2205332	n/a	LTP245	ltpFR	1	7	n/a	STRANGER	1389	0	3	n/a	n/a	n/a	n/a	n/a	n/a
4411.376	n/a	RECOG_RESP	2205688	n/a	LTP245	ltpFR	1	7	n/a	STRANGER	1389	0	n/a	n/a	n/a	n/a	n/a	n/a	n/a
4412.03	n/a	RECOG_CONF	2206015	n/a	LTP245	ltpFR	1	7	n/a	STRANGER	1389	n/a	3	n/a	n/a	n/a	n/a	n/a	n/a
4413.642	n/a	RECOG_TARGET	2206821	n/a	LTP245	ltpFR	1	7	0	VICTOR	1563	1	5	1	n/a	n/a	n/a	n/a	n/a
4414.392	n/a	RECOG_RESP	2207196	n/a	LTP245	ltpFR	1	7	0	VICTOR	1563	1	n/a	1	n/a	n/a	n/a	n/a	n/a
4415.044	n/a	RECOG_CONF	2207522	n/a	LTP245	ltpFR	1	7	0	VICTOR	1563	n/a	5	1	n/a	n/a	n/a	n/a	n/a
4416.638	n/a	RECOG_LURE	2208319	n/a	LTP245	ltpFR	1	7	n/a	WATERFALL	1595	1	5	n/a	n/a	n/a	n/a	n/a	n/a
4417.13	n/a	RECOG_RESP	2208565	n/a	LTP245	ltpFR	1	7	n/a	WATERFALL	1595	1	n/a	n/a	n/a	n/a	n/a	n/a	n/a
4417.784	n/a	RECOG_CONF	2208892	n/a	LTP245	ltpFR	1	7	n/a	WATERFALL	1595	n/a	5	n/a	n/a	n/a	n/a	n/a	n/a
4419.368	n/a	RECOG_LURE	2209684	n/a	LTP245	ltpFR	1	7	n/a	FLOWER	584	1	3	n/a	n/a	n/a	n/a	n/a	n/a
4419.872	n/a	RECOG_RESP	2209936	n/a	LTP245	ltpFR	1	7	n/a	FLOWER	584	1	n/a	n/a	n/a	n/a	n/a	n/a	n/a
4420.614	n/a	RECOG_CONF	2210307	n/a	LTP245	ltpFR	1	7	n/a	FLOWER	584	n/a	3	n/a	n/a	n/a	n/a	n/a	n/a
4422.246	n/a	RECOG_TARGET	2211123	n/a	LTP245	ltpFR	1	7	1	PENCIL	1042	1	5	0	n/a	n/a	n/a	n/a	n/a
4422.84	n/a	RECOG_RESP	2211420	n/a	LTP245	ltpFR	1	7	1	PENCIL	1042	1	n/a	0	n/a	n/a	n/a	n/a	n/a
4423.486	n/a	RECOG_CONF	2211743	n/a	LTP245	ltpFR	1	7	1	PENCIL	1042	n/a	5	0	n/a	n/a	n/a	n/a	n/a
4425.224	n/a	RECOG_TARGET	2212612	n/a	LTP245	ltpFR	1	7	-1	SUPERMARKET	1409	1	5	-1	n/a	n/a	n/a	n/a	n/a
4425.698	n/a	RECOG_RESP	2212849	n/a	LTP245	ltpFR	1	7	-1	SUPERMARKET	1409	1	n/a	-1	n/a	n/a	n/a	n/a	n/a
4426.366	n/a	RECOG_CONF	2213183	n/a	LTP245	ltpFR	1	7	-1	SUPERMARKET	1409	n/a	5	-1	n/a	n/a	n/a	n/a	n/a
4428.036	n/a	RECOG_LURE	2214018	n/a	LTP245	ltpFR	1	7	n/a	PRINCE	1124	1	3	n/a	n/a	n/a	n/a	n/a	n/a
4428.478	n/a	RECOG_RESP	2214239	n/a	LTP245	ltpFR	1	7	n/a	PRINCE	1124	1	n/a	n/a	n/a	n/a	n/a	n/a	n/a
4429.22	n/a	RECOG_CONF	2214610	n/a	LTP245	ltpFR	1	7	n/a	PRINCE	1124	n/a	3	n/a	n/a	n/a	n/a	n/a	n/a
4430.9	n/a	RECOG_TARGET	2215450	n/a	LTP245	ltpFR	1	7	0	ACORN	3	0	n/a	0	n/a	n/a	n/a	n/a	n/a
4431.174	n/a	RECOG_RESP	2215587	n/a	LTP245	ltpFR	1	7	0	ACORN	3	0	n/a	0	n/a	n/a	n/a	n/a	n/a
4435.576	n/a	RECOG_TARGET	2217788	n/a	LTP245	ltpFR	1	7	-1	SEAT	1264	1	5	-1	n/a	n/a	n/a	n/a	n/a
4437.996	n/a	RECOG_RESP	2218998	n/a	LTP245	ltpFR	1	7	-1	SEAT	1264	1	n/a	-1	n/a	n/a	n/a	n/a	n/a
4439.06	n/a	RECOG_CONF	2219530	n/a	LTP245	ltpFR	1	7	-1	SEAT	1264	n/a	5	-1	n/a	n/a	n/a	n/a	n/a
4440.702	n/a	RECOG_LURE	2220351	n/a	LTP245	ltpFR	1	7	n/a	ACID	2	0	3	n/a	n/a	n/a	n/a	n/a	n/a
4441.456	n/a	RECOG_RESP	2220728	n/a	LTP245	ltpFR	1	7	n/a	ACID	2	0	n/a	n/a	n/a	n/a	n/a	n/a	n/a
4442.168	n/a	RECOG_CONF	2221084	n/a	LTP245	ltpFR	1	7	n/a	ACID	2	n/a	3	n/a	n/a	n/a	n/a	n/a	n/a
4443.798	n/a	RECOG_LURE	2221899	n/a	LTP245	ltpFR	1	7	n/a	KING	777	1	3	n/a	n/a	n/a	n/a	n/a	n/a
4444.39	n/a	RECOG_RESP	2222195	n/a	LTP245	ltpFR	1	7	n/a	KING	777	1	n/a	n/a	n/a	n/a	n/a	n/a	n/a
4445.294	n/a	RECOG_CONF	2222647	n/a	LTP245	ltpFR	1	7	n/a	KING	777	n/a	3	n/a	n/a	n/a	n/a	n/a	n/a
4446.942	n/a	RECOG_LURE	2223471	n/a	LTP245	ltpFR	1	7	n/a	POPE	1105	1	2	n/a	n/a	n/a	n/a	n/a	n/a
4449.342	n/a	RECOG_RESP	2224671	n/a	LTP245	ltpFR	1	7	n/a	POPE	1105	1	n/a	n/a	n/a	n/a	n/a	n/a	n/a
4450.796	n/a	RECOG_CONF	2225398	n/a	LTP245	ltpFR	1	7	n/a	POPE	1105	n/a	2	n/a	n/a	n/a	n/a	n/a	n/a
4452.502	n/a	RECOG_LURE	2226251	n/a	LTP245	ltpFR	1	7	n/a	HANDKERCHIEF	686	1	2	n/a	n/a	n/a	n/a	n/a	n/a
4453.948	n/a	RECOG_RESP	2226974	n/a	LTP245	ltpFR	1	7	n/a	HANDKERCHIEF	686	1	n/a	n/a	n/a	n/a	n/a	n/a	n/a
