mstime	trial_type	stim_file	subject	experiment	session	trial	task	item_name	item_num	recog_conf	resp	color_b	color_g	color_r	case	font
0	SESS_START	n/a	LTP180	ltpFR	1	n/a	n/a	n/a	n/a	1	n/a	n/a	n/a	n/a	n/a	n/a
203822	WORD	wordpools/wasnorm_wordpool_less_exclusions.txt	LTP180	ltpFR	1	1	0	LABYRINTH	791	n/a	n/a	0	0.5869140625	0.422607421875	upper	../fonts/zerothre.ttf
206852	SLOW_MSG	n/a	LTP180	ltpFR	1	1	n/a	n/a	n/a	5	n/a	n/a	n/a	n/a	n/a	n/a
209491	WORD	wordpools/wasnorm_wordpool_less_exclusions.txt	LTP180	ltpFR	1	1	0	FOUNTAIN	597	n/a	n/a	0	0.5869140625	0.422607421875	upper	../fonts/zerothre.ttf
212519	SLOW_MSG	n/a	LTP180	ltpFR	1	1	n/a	n/a	n/a	n/a	n/a	n/a	n/a	n/a	n/a	n/a
215128	WORD	wordpools/wasnorm_wordpool_less_exclusions.txt	LTP180	ltpFR	1	1	0	WATERFALL	1595	n/a	1	0	0.5869140625	0.422607421875	upper	../fonts/zerothre.ttf
219194	WORD	wordpools/wasnorm_wordpool_less_exclusions.txt	LTP180	ltpFR	1	1	0	VEIN	1554	n/a	0	0	0.5869140625	0.422607421875	upper	../fonts/zerothre.ttf
223276	WORD	wordpools/wasnorm_wordpool_less_exclusions.txt	LTP180	ltpFR	1	1	1	PUMP	1141	n/a	2	1	0.412841796875	0.57763671875	lower	../fonts/amplitud.ttf
225200	KEY_MSG	n/a	LTP180	ltpFR	1	1	n/a	n/a	n/a	n/a	n/a	n/a	n/a	n/a	n/a	n/a
227609	WORD	wordpools/wasnorm_wordpool_less_exclusions.txt	LTP180	ltpFR	1	1	1	BROOK	177	n/a	n/a	1	0.412841796875	0.57763671875	lower	../fonts/amplitud.ttf
230638	SLOW_MSG	n/a	LTP180	ltpFR	1	1	n/a	n/a	n/a	n/a	n/a	n/a	n/a	n/a	n/a	n/a
233163	WORD	wordpools/wasnorm_wordpool_less_exclusions.txt	LTP180	ltpFR	1	1	1	STRANGER	1389	n/a	1	1	0.412841796875	0.57763671875	lower	../fonts/amplitud.ttf
237346	WORD	wordpools/wasnorm_wordpool_less_exclusions.txt	LTP180	ltpFR	1	1	1	TOURIST	1488	n/a	1	1	0.412841796875	0.57763671875	lower	../fonts/amplitud.ttf
241377	WORD	wordpools/wasnorm_wordpool_less_exclusions.txt	LTP180	ltpFR	1	1	0	RODENT	1204	n/a	n/a	0	0.5869140625	0.422607421875	upper	../fonts/zerothre.ttf
244405	SLOW_MSG	n/a	LTP180	ltpFR	1	1	n/a	n/a	n/a	n/a	n/a	n/a	n/a	n/a	n/a	n/a
246916	WORD	wordpools/wasnorm_wordpool_less_exclusions.txt	LTP180	ltpFR	1	1	0	HEART	697	n/a	n/a	0	0.5869140625	0.422607421875	upper	../fonts/zerothre.ttf
249950	SLOW_MSG	n/a	LTP180	ltpFR	1	1	n/a	n/a	n/a	n/a	n/a	n/a	n/a	n/a	n/a	n/a
252620	WORD	wordpools/wasnorm_wordpool_less_exclusions.txt	LTP180	ltpFR	1	1	1	EARTH	515	n/a	0	1	0.412841796875	0.57763671875	lower	../fonts/amplitud.ttf
256686	WORD	wordpools/wasnorm_wordpool_less_exclusions.txt	LTP180	ltpFR	1	1	1	CORPORATION	382	n/a	n/a	1	0.412841796875	0.57763671875	lower	../fonts/amplitud.ttf
259731	SLOW_MSG	n/a	LTP180	ltpFR	1	1	n/a	n/a	n/a	n/a	n/a	n/a	n/a	n/a	n/a	n/a
262273	WORD	wordpools/wasnorm_wordpool_less_exclusions.txt	LTP180	ltpFR	1	1	1	TROPHY	1509	n/a	2	1	0.412841796875	0.57763671875	lower	../fonts/amplitud.ttf
263661	KEY_MSG	n/a	LTP180	ltpFR	1	1	n/a	n/a	n/a	n/a	n/a	n/a	n/a	n/a	n/a	n/a
266255	WORD	wordpools/wasnorm_wordpool_less_exclusions.txt	LTP180	ltpFR	1	1	1	BRACELET	163	n/a	2	1	0.412841796875	0.57763671875	lower	../fonts/amplitud.ttf
268045	KEY_MSG	n/a	LTP180	ltpFR	1	1	n/a	n/a	n/a	n/a	n/a	n/a	n/a	n/a	n/a	n/a
270691	WORD	wordpools/wasnorm_wordpool_less_exclusions.txt	LTP180	ltpFR	1	1	0	SUBURB	1399	n/a	1	0	0.5869140625	0.422607421875	upper	../fonts/zerothre.ttf
274738	WORD	wordpools/wasnorm_wordpool_less_exclusions.txt	LTP180	ltpFR	1	1	0	CHIME	300	n/a	0	0	0.5869140625	0.422607421875	upper	../fonts/zerothre.ttf
280728	REC_START	n/a	LTP180	ltpFR	1	1	n/a	n/a	n/a	n/a	n/a	n/a	n/a	n/a	n/a	n/a
281351	REC_WORD_VV	wordpools/wasnorm_wordpool_less_exclusions.txt	LTP180	ltpFR	1	1	n/a	<>	-1	n/a	n/a	n/a	n/a	n/a	n/a	n/a
285473	REC_WORD_VV	wordpools/wasnorm_wordpool_less_exclusions.txt	LTP180	ltpFR	1	1	n/a	<>	-1	n/a	n/a	n/a	n/a	n/a	n/a	n/a
286473	REC_WORD_VV	wordpools/wasnorm_wordpool_less_exclusions.txt	LTP180	ltpFR	1	1	n/a	<>	-1	n/a	n/a	n/a	n/a	n/a	n/a	n/a
287473	REC_WORD_VV	wordpools/wasnorm_wordpool_less_exclusions.txt	LTP180	ltpFR	1	1	n/a	<>	-1	n/a	n/a	n/a	n/a	n/a	n/a	n/a
288473	REC_WORD_VV	wordpools/wasnorm_wordpool_less_exclusions.txt	LTP180	ltpFR	1	1	n/a	<>	-1	n/a	n/a	n/a	n/a	n/a	n/a	n/a
290540	REC_WORD_VV	wordpools/wasnorm_wordpool_less_exclusions.txt	LTP180	ltpFR	1	1	n/a	<>	-1	n/a	n/a	n/a	n/a	n/a	n/a	n/a
291339	REC_WORD	wordpools/wasnorm_wordpool_less_exclusions.txt	LTP180	ltpFR	1	1	0	SUBURB	1399	n/a	1	n/a	n/a	n/a	n/a	n/a
292032	REC_WORD	wordpools/wasnorm_wordpool_less_exclusions.txt	LTP180	ltpFR	1	1	0	CHIME	300	n/a	0	n/a	n/a	n/a	n/a	n/a
293150	REC_WORD_VV	wordpools/wasnorm_wordpool_less_exclusions.txt	LTP180	ltpFR	1	1	n/a	<>	-1	n/a	n/a	n/a	n/a	n/a	n/a	n/a
294661	REC_WORD_VV	wordpools/wasnorm_wordpool_less_exclusions.txt	LTP180	ltpFR	1	1	n/a	<>	-1	n/a	n/a	n/a	n/a	n/a	n/a	n/a
295469	REC_WORD_VV	wordpools/wasnorm_wordpool_less_exclusions.txt	LTP180	ltpFR	1	1	n/a	<>	-1	n/a	n/a	n/a	n/a	n/a	n/a	n/a
296731	REC_WORD	wordpools/wasnorm_wordpool_less_exclusions.txt	LTP180	ltpFR	1	1	0	LABYRINTH	791	n/a	n/a	n/a	n/a	n/a	n/a	n/a
297569	REC_WORD	wordpools/wasnorm_wordpool_less_exclusions.txt	LTP180	ltpFR	1	1	0	VEIN	1554	n/a	0	n/a	n/a	n/a	n/a	n/a
298812	REC_WORD	wordpools/wasnorm_wordpool_less_exclusions.txt	LTP180	ltpFR	1	1	0	HEART	697	n/a	n/a	n/a	n/a	n/a	n/a	n/a
300313	REC_WORD	wordpools/wasnorm_wordpool_less_exclusions.txt	LTP180	ltpFR	1	1	1	TOURIST	1488	n/a	1	n/a	n/a	n/a	n/a	n/a
303649	REC_WORD_VV	wordpools/wasnorm_wordpool_less_exclusions.txt	LTP180	ltpFR	1	1	n/a	<>	-1	n/a	n/a	n/a	n/a	n/a	n/a	n/a
317818	REC_WORD	wordpools/wasnorm_wordpool_less_exclusions.txt	LTP180	ltpFR	1	1	0	CHIME	300	n/a	0	n/a	n/a	n/a	n/a	n/a
318818	REC_WORD_VV	wordpools/wasnorm_wordpool_less_exclusions.txt	LTP180	ltpFR	1	1	n/a	<>	-1	n/a	n/a	n/a	n/a	n/a	n/a	n/a
335144	REC_WORD	wordpools/wasnorm_wordpool_less_exclusions.txt	LTP180	ltpFR	1	1	0	RODENT	1204	n/a	n/a	n/a	n/a	n/a	n/a	n/a
339892	REC_WORD_VV	wordpools/wasnorm_wordpool_less_exclusions.txt	LTP180	ltpFR	1	1	n/a	<>	-1	n/a	n/a	n/a	n/a	n/a	n/a	n/a
340892	REC_WORD_VV	wordpools/wasnorm_wordpool_less_exclusions.txt	LTP180	ltpFR	1	1	n/a	<>	-1	n/a	n/a	n/a	n/a	n/a	n/a	n/a
383180	WORD	wordpools/wasnorm_wordpool_less_exclusions.txt	LTP180	ltpFR	1	2	1	RUG	1215	n/a	2	1	0.412841796875	0.57763671875	lower	../fonts/amplitud.ttf
386123	KEY_MSG	n/a	LTP180	ltpFR	1	2	n/a	n/a	n/a	n/a	n/a	n/a	n/a	n/a	n/a	n/a
388834	WORD	wordpools/wasnorm_wordpool_less_exclusions.txt	LTP180	ltpFR	1	2	1	WHEEL	1603	n/a	2	1	0.412841796875	0.57763671875	lower	../fonts/amplitud.ttf
391259	KEY_MSG	n/a	LTP180	ltpFR	1	2	n/a	n/a	n/a	n/a	n/a	n/a	n/a	n/a	n/a	n/a
393669	WORD	wordpools/wasnorm_wordpool_less_exclusions.txt	LTP180	ltpFR	1	2	1	FOX	598	n/a	1	1	0.412841796875	0.57763671875	lower	../fonts/amplitud.ttf
397583	WORD	wordpools/wasnorm_wordpool_less_exclusions.txt	LTP180	ltpFR	1	2	0	RAM	1165	n/a	3	0	0.5869140625	0.422607421875	upper	../fonts/zerothre.ttf
399423	KEY_MSG	n/a	LTP180	ltpFR	1	2	n/a	n/a	n/a	n/a	n/a	n/a	n/a	n/a	n/a	n/a
401917	WORD	wordpools/wasnorm_wordpool_less_exclusions.txt	LTP180	ltpFR	1	2	0	RASH	1167	n/a	2	0	0.5869140625	0.422607421875	upper	../fonts/zerothre.ttf
403924	KEY_MSG	n/a	LTP180	ltpFR	1	2	n/a	n/a	n/a	n/a	n/a	n/a	n/a	n/a	n/a	n/a
406352	WORD	wordpools/wasnorm_wordpool_less_exclusions.txt	LTP180	ltpFR	1	2	0	CATERPILLAR	259	n/a	0	0	0.5869140625	0.422607421875	upper	../fonts/zerothre.ttf
410214	WORD	wordpools/wasnorm_wordpool_less_exclusions.txt	LTP180	ltpFR	1	2	1	PIT	1077	n/a	0	1	0.412841796875	0.57763671875	lower	../fonts/amplitud.ttf
414329	WORD	wordpools/wasnorm_wordpool_less_exclusions.txt	LTP180	ltpFR	1	2	1	MAMMAL	861	n/a	1	1	0.412841796875	0.57763671875	lower	../fonts/amplitud.ttf
418512	WORD	wordpools/wasnorm_wordpool_less_exclusions.txt	LTP180	ltpFR	1	2	1	MECHANIC	884	n/a	1	1	0.412841796875	0.57763671875	lower	../fonts/amplitud.ttf
422644	WORD	wordpools/wasnorm_wordpool_less_exclusions.txt	LTP180	ltpFR	1	2	0	HOE	711	n/a	n/a	0	0.5869140625	0.422607421875	upper	../fonts/zerothre.ttf
425679	SLOW_MSG	n/a	LTP180	ltpFR	1	2	n/a	n/a	n/a	n/a	n/a	n/a	n/a	n/a	n/a	n/a
428200	WORD	wordpools/wasnorm_wordpool_less_exclusions.txt	LTP180	ltpFR	1	2	0	SHRIMP	1297	n/a	0	0	0.5869140625	0.422607421875	upper	../fonts/zerothre.ttf
432163	WORD	wordpools/wasnorm_wordpool_less_exclusions.txt	LTP180	ltpFR	1	2	0	INCENSE	735	n/a	0	0	0.5869140625	0.422607421875	upper	../fonts/zerothre.ttf
436329	WORD	wordpools/wasnorm_wordpool_less_exclusions.txt	LTP180	ltpFR	1	2	0	BACK	65	n/a	0	0	0.5869140625	0.422607421875	upper	../fonts/zerothre.ttf
440361	WORD	wordpools/wasnorm_wordpool_less_exclusions.txt	LTP180	ltpFR	1	2	0	SPINE	1353	n/a	1	0	0.5869140625	0.422607421875	upper	../fonts/zerothre.ttf
444476	WORD	wordpools/wasnorm_wordpool_less_exclusions.txt	LTP180	ltpFR	1	2	1	SLACKS	1323	n/a	0	1	0.412841796875	0.57763671875	lower	../fonts/amplitud.ttf
448324	WORD	wordpools/wasnorm_wordpool_less_exclusions.txt	LTP180	ltpFR	1	2	1	BELT	120	n/a	0	1	0.412841796875	0.57763671875	lower	../fonts/amplitud.ttf
454113	REC_START	n/a	LTP180	ltpFR	1	2	n/a	n/a	n/a	n/a	n/a	n/a	n/a	n/a	n/a	n/a
454350	REC_WORD_VV	wordpools/wasnorm_wordpool_less_exclusions.txt	LTP180	ltpFR	1	2	n/a	<>	-1	n/a	n/a	n/a	n/a	n/a	n/a	n/a
455135	REC_WORD	wordpools/wasnorm_wordpool_less_exclusions.txt	LTP180	ltpFR	1	2	0	SHRIMP	1297	n/a	0	n/a	n/a	n/a	n/a	n/a
456318	REC_WORD_VV	wordpools/wasnorm_wordpool_less_exclusions.txt	LTP180	ltpFR	1	2	n/a	<>	-1	n/a	n/a	n/a	n/a	n/a	n/a	n/a
456891	REC_WORD	wordpools/wasnorm_wordpool_less_exclusions.txt	LTP180	ltpFR	1	2	1	BELT	120	n/a	0	n/a	n/a	n/a	n/a	n/a
458313	REC_WORD	wordpools/wasnorm_wordpool_less_exclusions.txt	LTP180	ltpFR	1	2	1	RUG	1215	n/a	2	n/a	n/a	n/a	n/a	n/a
460144	REC_WORD	wordpools/wasnorm_wordpool_less_exclusions.txt	LTP180	ltpFR	1	2	1	PIT	1077	n/a	0	n/a	n/a	n/a	n/a	n/a
463970	REC_WORD	wordpools/wasnorm_wordpool_less_exclusions.txt	LTP180	ltpFR	1	2	n/a	RAT	1169	n/a	n/a	n/a	n/a	n/a	n/a	n/a
470037	REC_WORD	wordpools/wasnorm_wordpool_less_exclusions.txt	LTP180	ltpFR	1	2	1	RUG	1215	n/a	2	n/a	n/a	n/a	n/a	n/a
481954	REC_WORD	wordpools/wasnorm_wordpool_less_exclusions.txt	LTP180	ltpFR	1	2	0	RODENT	1204	n/a	n/a	n/a	n/a	n/a	n/a	n/a
512755	REC_WORD_VV	wordpools/wasnorm_wordpool_less_exclusions.txt	LTP180	ltpFR	1	2	n/a	<>	-1	n/a	n/a	n/a	n/a	n/a	n/a	n/a
540640	WORD	wordpools/wasnorm_wordpool_less_exclusions.txt	LTP180	ltpFR	1	3	-1	POWDER	1117	n/a	-1	1	1.0	1.0	upper	../fonts/Verdana.ttf
544470	WORD	wordpools/wasnorm_wordpool_less_exclusions.txt	LTP180	ltpFR	1	3	-1	KNAPSACK	783	n/a	-1	1	1.0	1.0	upper	../fonts/Verdana.ttf
548619	WORD	wordpools/wasnorm_wordpool_less_exclusions.txt	LTP180	ltpFR	1	3	-1	THERMOMETER	1453	n/a	-1	1	1.0	1.0	upper	../fonts/Verdana.ttf
552483	WORD	wordpools/wasnorm_wordpool_less_exclusions.txt	LTP180	ltpFR	1	3	-1	RADIATOR	1156	n/a	-1	1	1.0	1.0	upper	../fonts/Verdana.ttf
556432	WORD	wordpools/wasnorm_wordpool_less_exclusions.txt	LTP180	ltpFR	1	3	-1	POTATO	1115	n/a	-1	1	1.0	1.0	upper	../fonts/Verdana.ttf
560416	WORD	wordpools/wasnorm_wordpool_less_exclusions.txt	LTP180	ltpFR	1	3	-1	SCALLOP	1242	n/a	-1	1	1.0	1.0	upper	../fonts/Verdana.ttf
564495	WORD	wordpools/wasnorm_wordpool_less_exclusions.txt	LTP180	ltpFR	1	3	-1	BUSH	202	n/a	-1	1	1.0	1.0	upper	../fonts/Verdana.ttf
568331	WORD	wordpools/wasnorm_wordpool_less_exclusions.txt	LTP180	ltpFR	1	3	-1	DAUGHTER	442	n/a	-1	1	1.0	1.0	upper	../fonts/Verdana.ttf
572227	WORD	wordpools/wasnorm_wordpool_less_exclusions.txt	LTP180	ltpFR	1	3	-1	COOKBOOK	373	n/a	-1	1	1.0	1.0	upper	../fonts/Verdana.ttf
576390	WORD	wordpools/wasnorm_wordpool_less_exclusions.txt	LTP180	ltpFR	1	3	-1	SCOTCH	1251	n/a	-1	1	1.0	1.0	upper	../fonts/Verdana.ttf
580475	WORD	wordpools/wasnorm_wordpool_less_exclusions.txt	LTP180	ltpFR	1	3	-1	PRESIDENT	1121	n/a	-1	1	1.0	1.0	upper	../fonts/Verdana.ttf
584504	WORD	wordpools/wasnorm_wordpool_less_exclusions.txt	LTP180	ltpFR	1	3	-1	CROW	414	n/a	-1	1	1.0	1.0	upper	../fonts/Verdana.ttf
588486	WORD	wordpools/wasnorm_wordpool_less_exclusions.txt	LTP180	ltpFR	1	3	-1	NEST	945	n/a	-1	1	1.0	1.0	upper	../fonts/Verdana.ttf
592635	WORD	wordpools/wasnorm_wordpool_less_exclusions.txt	LTP180	ltpFR	1	3	-1	STRAWBERRY	1391	n/a	-1	1	1.0	1.0	upper	../fonts/Verdana.ttf
596589	WORD	wordpools/wasnorm_wordpool_less_exclusions.txt	LTP180	ltpFR	1	3	-1	CRAYON	401	n/a	-1	1	1.0	1.0	upper	../fonts/Verdana.ttf
600548	WORD	wordpools/wasnorm_wordpool_less_exclusions.txt	LTP180	ltpFR	1	3	-1	BARTENDER	92	n/a	-1	1	1.0	1.0	upper	../fonts/Verdana.ttf
606521	REC_START	n/a	LTP180	ltpFR	1	3	n/a	n/a	n/a	n/a	n/a	n/a	n/a	n/a	n/a	n/a
606800	REC_WORD_VV	wordpools/wasnorm_wordpool_less_exclusions.txt	LTP180	ltpFR	1	3	n/a	<>	-1	n/a	n/a	n/a	n/a	n/a	n/a	n/a
608137	REC_WORD	wordpools/wasnorm_wordpool_less_exclusions.txt	LTP180	ltpFR	1	3	-1	SCALLOP	1242	n/a	-1	n/a	n/a	n/a	n/a	n/a
609220	REC_WORD	wordpools/wasnorm_wordpool_less_exclusions.txt	LTP180	ltpFR	1	3	-1	POTATO	1115	n/a	-1	n/a	n/a	n/a	n/a	n/a
610911	REC_WORD	wordpools/wasnorm_wordpool_less_exclusions.txt	LTP180	ltpFR	1	3	-1	PRESIDENT	1121	n/a	-1	n/a	n/a	n/a	n/a	n/a
619416	REC_WORD	wordpools/wasnorm_wordpool_less_exclusions.txt	LTP180	ltpFR	1	3	-1	COOKBOOK	373	n/a	-1	n/a	n/a	n/a	n/a	n/a
620594	REC_WORD_VV	wordpools/wasnorm_wordpool_less_exclusions.txt	LTP180	ltpFR	1	3	n/a	<>	-1	n/a	n/a	n/a	n/a	n/a	n/a	n/a
620928	REC_WORD	wordpools/wasnorm_wordpool_less_exclusions.txt	LTP180	ltpFR	1	3	-1	DAUGHTER	442	n/a	-1	n/a	n/a	n/a	n/a	n/a
714881	WORD	wordpools/wasnorm_wordpool_less_exclusions.txt	LTP180	ltpFR	1	4	-1	ANKLE	24	n/a	-1	1	1.0	1.0	upper	../fonts/Verdana.ttf
718845	WORD	wordpools/wasnorm_wordpool_less_exclusions.txt	LTP180	ltpFR	1	4	-1	CRICKET	408	n/a	-1	1	1.0	1.0	upper	../fonts/Verdana.ttf
723045	WORD	wordpools/wasnorm_wordpool_less_exclusions.txt	LTP180	ltpFR	1	4	-1	CAMERA	224	n/a	-1	1	1.0	1.0	upper	../fonts/Verdana.ttf
727015	WORD	wordpools/wasnorm_wordpool_less_exclusions.txt	LTP180	ltpFR	1	4	-1	WALL	1582	n/a	-1	1	1.0	1.0	upper	../fonts/Verdana.ttf
731056	WORD	wordpools/wasnorm_wordpool_less_exclusions.txt	LTP180	ltpFR	1	4	-1	HOUSE	725	n/a	-1	1	1.0	1.0	upper	../fonts/Verdana.ttf
735205	WORD	wordpools/wasnorm_wordpool_less_exclusions.txt	LTP180	ltpFR	1	4	-1	BALLOON	75	n/a	-1	1	1.0	1.0	upper	../fonts/Verdana.ttf
739338	WORD	wordpools/wasnorm_wordpool_less_exclusions.txt	LTP180	ltpFR	1	4	-1	DYNAMITE	511	n/a	-1	1	1.0	1.0	upper	../fonts/Verdana.ttf
743403	WORD	wordpools/wasnorm_wordpool_less_exclusions.txt	LTP180	ltpFR	1	4	-1	RICE	1190	n/a	-1	1	1.0	1.0	upper	../fonts/Verdana.ttf
747334	WORD	wordpools/wasnorm_wordpool_less_exclusions.txt	LTP180	ltpFR	1	4	-1	BEAD	103	n/a	-1	1	1.0	1.0	upper	../fonts/Verdana.ttf
751249	WORD	wordpools/wasnorm_wordpool_less_exclusions.txt	LTP180	ltpFR	1	4	-1	JEWEL	757	n/a	-1	1	1.0	1.0	upper	../fonts/Verdana.ttf
755164	WORD	wordpools/wasnorm_wordpool_less_exclusions.txt	LTP180	ltpFR	1	4	-1	STAPLER	1372	n/a	-1	1	1.0	1.0	upper	../fonts/Verdana.ttf
759196	WORD	wordpools/wasnorm_wordpool_less_exclusions.txt	LTP180	ltpFR	1	4	-1	SHEET	1279	n/a	-1	1	1.0	1.0	upper	../fonts/Verdana.ttf
763328	WORD	wordpools/wasnorm_wordpool_less_exclusions.txt	LTP180	ltpFR	1	4	-1	BEET	115	n/a	-1	1	1.0	1.0	upper	../fonts/Verdana.ttf
767410	WORD	wordpools/wasnorm_wordpool_less_exclusions.txt	LTP180	ltpFR	1	4	-1	FINGERNAIL	568	n/a	-1	1	1.0	1.0	upper	../fonts/Verdana.ttf
771342	WORD	wordpools/wasnorm_wordpool_less_exclusions.txt	LTP180	ltpFR	1	4	-1	PLATE	1086	n/a	-1	1	1.0	1.0	upper	../fonts/Verdana.ttf
775357	WORD	wordpools/wasnorm_wordpool_less_exclusions.txt	LTP180	ltpFR	1	4	-1	COTTAGE	384	n/a	-1	1	1.0	1.0	upper	../fonts/Verdana.ttf
781247	REC_START	n/a	LTP180	ltpFR	1	4	n/a	n/a	n/a	n/a	n/a	n/a	n/a	n/a	n/a	n/a
781686	REC_WORD	wordpools/wasnorm_wordpool_less_exclusions.txt	LTP180	ltpFR	1	4	-1	COTTAGE	384	n/a	-1	n/a	n/a	n/a	n/a	n/a
782324	REC_WORD	wordpools/wasnorm_wordpool_less_exclusions.txt	LTP180	ltpFR	1	4	n/a	ANIMAL	23	n/a	n/a	n/a	n/a	n/a	n/a	n/a
783068	REC_WORD	wordpools/wasnorm_wordpool_less_exclusions.txt	LTP180	ltpFR	1	4	-1	CRICKET	408	n/a	-1	n/a	n/a	n/a	n/a	n/a
783910	REC_WORD_VV	wordpools/wasnorm_wordpool_less_exclusions.txt	LTP180	ltpFR	1	4	n/a	<>	-1	n/a	n/a	n/a	n/a	n/a	n/a	n/a
784684	REC_WORD	wordpools/wasnorm_wordpool_less_exclusions.txt	LTP180	ltpFR	1	4	-1	ANKLE	24	n/a	-1	n/a	n/a	n/a	n/a	n/a
787632	REC_WORD	wordpools/wasnorm_wordpool_less_exclusions.txt	LTP180	ltpFR	1	4	-1	COTTAGE	384	n/a	-1	n/a	n/a	n/a	n/a	n/a
788301	REC_WORD	wordpools/wasnorm_wordpool_less_exclusions.txt	LTP180	ltpFR	1	4	-1	HOUSE	725	n/a	-1	n/a	n/a	n/a	n/a	n/a
789253	REC_WORD	wordpools/wasnorm_wordpool_less_exclusions.txt	LTP180	ltpFR	1	4	-1	DYNAMITE	511	n/a	-1	n/a	n/a	n/a	n/a	n/a
795953	REC_WORD_VV	wordpools/wasnorm_wordpool_less_exclusions.txt	LTP180	ltpFR	1	4	n/a	<>	-1	n/a	n/a	n/a	n/a	n/a	n/a	n/a
796826	REC_WORD	wordpools/wasnorm_wordpool_less_exclusions.txt	LTP180	ltpFR	1	4	-1	FINGERNAIL	568	n/a	-1	n/a	n/a	n/a	n/a	n/a
808295	REC_WORD	wordpools/wasnorm_wordpool_less_exclusions.txt	LTP180	ltpFR	1	4	-1	ANKLE	24	n/a	-1	n/a	n/a	n/a	n/a	n/a
812181	REC_WORD	wordpools/wasnorm_wordpool_less_exclusions.txt	LTP180	ltpFR	1	4	-1	WALL	1582	n/a	-1	n/a	n/a	n/a	n/a	n/a
862485	WORD	wordpools/wasnorm_wordpool_less_exclusions.txt	LTP180	ltpFR	1	5	0	KNOB	787	n/a	n/a	0	0.5869140625	0.422607421875	upper	../fonts/zerothre.ttf
865515	SLOW_MSG	n/a	LTP180	ltpFR	1	5	n/a	n/a	n/a	n/a	n/a	n/a	n/a	n/a	n/a	n/a
867978	WORD	wordpools/wasnorm_wordpool_less_exclusions.txt	LTP180	ltpFR	1	5	0	COUGAR	387	n/a	1	0	0.5869140625	0.422607421875	upper	../fonts/zerothre.ttf
871805	WORD	wordpools/wasnorm_wordpool_less_exclusions.txt	LTP180	ltpFR	1	5	0	LAMB	797	n/a	1	0	0.5869140625	0.422607421875	upper	../fonts/zerothre.ttf
875970	WORD	wordpools/wasnorm_wordpool_less_exclusions.txt	LTP180	ltpFR	1	5	0	PECAN	1036	n/a	0	0	0.5869140625	0.422607421875	upper	../fonts/zerothre.ttf
879868	WORD	wordpools/wasnorm_wordpool_less_exclusions.txt	LTP180	ltpFR	1	5	0	FEATHER	557	n/a	0	0	0.5869140625	0.422607421875	upper	../fonts/zerothre.ttf
883983	WORD	wordpools/wasnorm_wordpool_less_exclusions.txt	LTP180	ltpFR	1	5	0	ELECTRICIAN	521	n/a	1	0	0.5869140625	0.422607421875	upper	../fonts/zerothre.ttf
887966	WORD	wordpools/wasnorm_wordpool_less_exclusions.txt	LTP180	ltpFR	1	5	0	BUBBLE	183	n/a	0	0	0.5869140625	0.422607421875	upper	../fonts/zerothre.ttf
891801	WORD	wordpools/wasnorm_wordpool_less_exclusions.txt	LTP180	ltpFR	1	5	0	GUM	672	n/a	0	0	0.5869140625	0.422607421875	upper	../fonts/zerothre.ttf
895845	WORD	wordpools/wasnorm_wordpool_less_exclusions.txt	LTP180	ltpFR	1	5	0	PEANUT	1032	n/a	0	0	0.5869140625	0.422607421875	upper	../fonts/zerothre.ttf
899710	WORD	wordpools/wasnorm_wordpool_less_exclusions.txt	LTP180	ltpFR	1	5	0	SHEPHERD	1283	n/a	1	0	0.5869140625	0.422607421875	upper	../fonts/zerothre.ttf
903627	WORD	wordpools/wasnorm_wordpool_less_exclusions.txt	LTP180	ltpFR	1	5	0	CRAB	397	n/a	0	0	0.5869140625	0.422607421875	upper	../fonts/zerothre.ttf
907723	WORD	wordpools/wasnorm_wordpool_less_exclusions.txt	LTP180	ltpFR	1	5	0	PIE	1062	n/a	1	0	0.5869140625	0.422607421875	upper	../fonts/zerothre.ttf
911755	WORD	wordpools/wasnorm_wordpool_less_exclusions.txt	LTP180	ltpFR	1	5	0	CHIMNEY	301	n/a	0	0	0.5869140625	0.422607421875	upper	../fonts/zerothre.ttf
915822	WORD	wordpools/wasnorm_wordpool_less_exclusions.txt	LTP180	ltpFR	1	5	0	TOAST	1471	n/a	1	0	0.5869140625	0.422607421875	upper	../fonts/zerothre.ttf
919742	WORD	wordpools/wasnorm_wordpool_less_exclusions.txt	LTP180	ltpFR	1	5	0	BREAD	170	n/a	0	0	0.5869140625	0.422607421875	upper	../fonts/zerothre.ttf
923801	WORD	wordpools/wasnorm_wordpool_less_exclusions.txt	LTP180	ltpFR	1	5	0	BISCUIT	130	n/a	0	0	0.5869140625	0.422607421875	upper	../fonts/zerothre.ttf
929741	REC_START	n/a	LTP180	ltpFR	1	5	n/a	n/a	n/a	n/a	n/a	n/a	n/a	n/a	n/a	n/a
931602	REC_WORD_VV	wordpools/wasnorm_wordpool_less_exclusions.txt	LTP180	ltpFR	1	5	n/a	<>	-1	n/a	n/a	n/a	n/a	n/a	n/a	n/a
933098	REC_WORD_VV	wordpools/wasnorm_wordpool_less_exclusions.txt	LTP180	ltpFR	1	5	n/a	<>	-1	n/a	n/a	n/a	n/a	n/a	n/a	n/a
934226	REC_WORD_VV	wordpools/wasnorm_wordpool_less_exclusions.txt	LTP180	ltpFR	1	5	n/a	<>	-1	n/a	n/a	n/a	n/a	n/a	n/a	n/a
935563	REC_WORD	wordpools/wasnorm_wordpool_less_exclusions.txt	LTP180	ltpFR	1	5	-1	CRICKET	408	n/a	-1	n/a	n/a	n/a	n/a	n/a
936091	REC_WORD	wordpools/wasnorm_wordpool_less_exclusions.txt	LTP180	ltpFR	1	5	0	COUGAR	387	n/a	1	n/a	n/a	n/a	n/a	n/a
937463	REC_WORD	wordpools/wasnorm_wordpool_less_exclusions.txt	LTP180	ltpFR	1	5	0	TOAST	1471	n/a	1	n/a	n/a	n/a	n/a	n/a
938167	REC_WORD	wordpools/wasnorm_wordpool_less_exclusions.txt	LTP180	ltpFR	1	5	0	BREAD	170	n/a	0	n/a	n/a	n/a	n/a	n/a
943370	REC_WORD	wordpools/wasnorm_wordpool_less_exclusions.txt	LTP180	ltpFR	1	5	0	SHEPHERD	1283	n/a	1	n/a	n/a	n/a	n/a	n/a
947011	REC_WORD	wordpools/wasnorm_wordpool_less_exclusions.txt	LTP180	ltpFR	1	5	0	PIE	1062	n/a	1	n/a	n/a	n/a	n/a	n/a
953522	REC_WORD	wordpools/wasnorm_wordpool_less_exclusions.txt	LTP180	ltpFR	1	5	0	TOAST	1471	n/a	1	n/a	n/a	n/a	n/a	n/a
956520	REC_WORD	wordpools/wasnorm_wordpool_less_exclusions.txt	LTP180	ltpFR	1	5	0	BREAD	170	n/a	0	n/a	n/a	n/a	n/a	n/a
962890	REC_WORD	wordpools/wasnorm_wordpool_less_exclusions.txt	LTP180	ltpFR	1	5	0	BISCUIT	130	n/a	0	n/a	n/a	n/a	n/a	n/a
1010946	WORD	wordpools/wasnorm_wordpool_less_exclusions.txt	LTP180	ltpFR	1	6	-1	DESSERT	453	n/a	-1	1	1.0	1.0	upper	../fonts/Verdana.ttf
1014811	WORD	wordpools/wasnorm_wordpool_less_exclusions.txt	LTP180	ltpFR	1	6	-1	DISH	474	n/a	-1	1	1.0	1.0	upper	../fonts/Verdana.ttf
1018759	WORD	wordpools/wasnorm_wordpool_less_exclusions.txt	LTP180	ltpFR	1	6	-1	DRAWING	494	n/a	-1	1	1.0	1.0	upper	../fonts/Verdana.ttf
1022625	WORD	wordpools/wasnorm_wordpool_less_exclusions.txt	LTP180	ltpFR	1	6	-1	PUDDLE	1140	n/a	-1	1	1.0	1.0	upper	../fonts/Verdana.ttf
1026554	WORD	wordpools/wasnorm_wordpool_less_exclusions.txt	LTP180	ltpFR	1	6	-1	HERB	704	n/a	-1	1	1.0	1.0	upper	../fonts/Verdana.ttf
1030507	WORD	wordpools/wasnorm_wordpool_less_exclusions.txt	LTP180	ltpFR	1	6	-1	OREGANO	983	n/a	-1	1	1.0	1.0	upper	../fonts/Verdana.ttf
1034333	WORD	wordpools/wasnorm_wordpool_less_exclusions.txt	LTP180	ltpFR	1	6	-1	GATE	625	n/a	-1	1	1.0	1.0	upper	../fonts/Verdana.ttf
1038231	WORD	wordpools/wasnorm_wordpool_less_exclusions.txt	LTP180	ltpFR	1	6	-1	WINGS	1614	n/a	-1	1	1.0	1.0	upper	../fonts/Verdana.ttf
1042330	WORD	wordpools/wasnorm_wordpool_less_exclusions.txt	LTP180	ltpFR	1	6	-1	SOCK	1339	n/a	-1	1	1.0	1.0	upper	../fonts/Verdana.ttf
1046263	WORD	wordpools/wasnorm_wordpool_less_exclusions.txt	LTP180	ltpFR	1	6	-1	CUP	424	n/a	-1	1	1.0	1.0	upper	../fonts/Verdana.ttf
1050327	WORD	wordpools/wasnorm_wordpool_less_exclusions.txt	LTP180	ltpFR	1	6	-1	CUSTARD	429	n/a	-1	1	1.0	1.0	upper	../fonts/Verdana.ttf
1054425	WORD	wordpools/wasnorm_wordpool_less_exclusions.txt	LTP180	ltpFR	1	6	-1	BOULDER	155	n/a	-1	1	1.0	1.0	upper	../fonts/Verdana.ttf
1058374	WORD	wordpools/wasnorm_wordpool_less_exclusions.txt	LTP180	ltpFR	1	6	-1	LIME	823	n/a	-1	1	1.0	1.0	upper	../fonts/Verdana.ttf
1062305	WORD	wordpools/wasnorm_wordpool_less_exclusions.txt	LTP180	ltpFR	1	6	-1	CLOUD	328	n/a	-1	1	1.0	1.0	upper	../fonts/Verdana.ttf
1066303	WORD	wordpools/wasnorm_wordpool_less_exclusions.txt	LTP180	ltpFR	1	6	-1	ERASER	538	n/a	-1	1	1.0	1.0	upper	../fonts/Verdana.ttf
1070285	WORD	wordpools/wasnorm_wordpool_less_exclusions.txt	LTP180	ltpFR	1	6	-1	PEN	1041	n/a	-1	1	1.0	1.0	upper	../fonts/Verdana.ttf
1076258	REC_START	n/a	LTP180	ltpFR	1	6	n/a	n/a	n/a	n/a	n/a	n/a	n/a	n/a	n/a	n/a
1076827	REC_WORD_VV	wordpools/wasnorm_wordpool_less_exclusions.txt	LTP180	ltpFR	1	6	n/a	<>	-1	n/a	n/a	n/a	n/a	n/a	n/a	n/a
1078243	REC_WORD	wordpools/wasnorm_wordpool_less_exclusions.txt	LTP180	ltpFR	1	6	-1	CLOUD	328	n/a	-1	n/a	n/a	n/a	n/a	n/a
1079610	REC_WORD_VV	wordpools/wasnorm_wordpool_less_exclusions.txt	LTP180	ltpFR	1	6	n/a	<>	-1	n/a	n/a	n/a	n/a	n/a	n/a	n/a
1079895	REC_WORD	wordpools/wasnorm_wordpool_less_exclusions.txt	LTP180	ltpFR	1	6	-1	DESSERT	453	n/a	-1	n/a	n/a	n/a	n/a	n/a
1081037	REC_WORD	wordpools/wasnorm_wordpool_less_exclusions.txt	LTP180	ltpFR	1	6	-1	BOULDER	155	n/a	-1	n/a	n/a	n/a	n/a	n/a
1083042	REC_WORD	wordpools/wasnorm_wordpool_less_exclusions.txt	LTP180	ltpFR	1	6	-1	SOCK	1339	n/a	-1	n/a	n/a	n/a	n/a	n/a
1101131	REC_WORD	wordpools/wasnorm_wordpool_less_exclusions.txt	LTP180	ltpFR	1	6	-1	CLOUD	328	n/a	-1	n/a	n/a	n/a	n/a	n/a
1106763	REC_WORD	wordpools/wasnorm_wordpool_less_exclusions.txt	LTP180	ltpFR	1	6	-1	BOULDER	155	n/a	-1	n/a	n/a	n/a	n/a	n/a
1118367	REC_WORD	wordpools/wasnorm_wordpool_less_exclusions.txt	LTP180	ltpFR	1	6	0	CHIMNEY	301	n/a	0	n/a	n/a	n/a	n/a	n/a
1128544	REC_WORD	wordpools/wasnorm_wordpool_less_exclusions.txt	LTP180	ltpFR	1	6	n/a	DESERT	-1	n/a	n/a	n/a	n/a	n/a	n/a	n/a
1129542	REC_WORD_VV	wordpools/wasnorm_wordpool_less_exclusions.txt	LTP180	ltpFR	1	6	n/a	<>	-1	n/a	n/a	n/a	n/a	n/a	n/a	n/a
1129926	REC_WORD	wordpools/wasnorm_wordpool_less_exclusions.txt	LTP180	ltpFR	1	6	-1	DESSERT	453	n/a	-1	n/a	n/a	n/a	n/a	n/a
1146622	REC_WORD_VV	wordpools/wasnorm_wordpool_less_exclusions.txt	LTP180	ltpFR	1	6	n/a	<>	-1	n/a	n/a	n/a	n/a	n/a	n/a	n/a
1146857	REC_WORD	wordpools/wasnorm_wordpool_less_exclusions.txt	LTP180	ltpFR	1	6	n/a	DOUBT	-1	n/a	n/a	n/a	n/a	n/a	n/a	n/a
1156630	WORD	wordpools/wasnorm_wordpool_less_exclusions.txt	LTP180	ltpFR	1	7	1	OTTER	986	n/a	1	1	0.412841796875	0.57763671875	lower	../fonts/amplitud.ttf
1160592	WORD	wordpools/wasnorm_wordpool_less_exclusions.txt	LTP180	ltpFR	1	7	1	TREE	1502	n/a	1	1	0.412841796875	0.57763671875	lower	../fonts/amplitud.ttf
1164657	WORD	wordpools/wasnorm_wordpool_less_exclusions.txt	LTP180	ltpFR	1	7	1	TOE	1473	n/a	1	1	0.412841796875	0.57763671875	lower	../fonts/amplitud.ttf
1168674	WORD	wordpools/wasnorm_wordpool_less_exclusions.txt	LTP180	ltpFR	1	7	0	SUBWAY	1400	n/a	0	0	0.5869140625	0.422607421875	upper	../fonts/zerothre.ttf
1172587	WORD	wordpools/wasnorm_wordpool_less_exclusions.txt	LTP180	ltpFR	1	7	0	COLESLAW	344	n/a	n/a	0	0.5869140625	0.422607421875	upper	../fonts/zerothre.ttf
1175616	SLOW_MSG	n/a	LTP180	ltpFR	1	7	n/a	n/a	n/a	n/a	n/a	n/a	n/a	n/a	n/a	n/a
1178175	WORD	wordpools/wasnorm_wordpool_less_exclusions.txt	LTP180	ltpFR	1	7	0	CLIPPERS	324	n/a	0	0	0.5869140625	0.422607421875	upper	../fonts/zerothre.ttf
1182358	WORD	wordpools/wasnorm_wordpool_less_exclusions.txt	LTP180	ltpFR	1	7	0	KNEE	784	n/a	0	0	0.5869140625	0.422607421875	upper	../fonts/zerothre.ttf
1186557	WORD	wordpools/wasnorm_wordpool_less_exclusions.txt	LTP180	ltpFR	1	7	0	STREAM	1392	n/a	0	0	0.5869140625	0.422607421875	upper	../fonts/zerothre.ttf
1190488	WORD	wordpools/wasnorm_wordpool_less_exclusions.txt	LTP180	ltpFR	1	7	0	VENT	1556	n/a	0	0	0.5869140625	0.422607421875	upper	../fonts/zerothre.ttf
1194672	WORD	wordpools/wasnorm_wordpool_less_exclusions.txt	LTP180	ltpFR	1	7	1	ROOT	1210	n/a	1	1	0.412841796875	0.57763671875	lower	../fonts/amplitud.ttf
1198502	WORD	wordpools/wasnorm_wordpool_less_exclusions.txt	LTP180	ltpFR	1	7	1	CUB	419	n/a	1	1	0.412841796875	0.57763671875	lower	../fonts/amplitud.ttf
1202400	WORD	wordpools/wasnorm_wordpool_less_exclusions.txt	LTP180	ltpFR	1	7	1	STEM	1376	n/a	1	1	0.412841796875	0.57763671875	lower	../fonts/amplitud.ttf
1206616	WORD	wordpools/wasnorm_wordpool_less_exclusions.txt	LTP180	ltpFR	1	7	0	FOE	587	n/a	1	0	0.5869140625	0.422607421875	upper	../fonts/zerothre.ttf
1210549	WORD	wordpools/wasnorm_wordpool_less_exclusions.txt	LTP180	ltpFR	1	7	0	ROOMMATE	1207	n/a	1	0	0.5869140625	0.422607421875	upper	../fonts/zerothre.ttf
1214495	WORD	wordpools/wasnorm_wordpool_less_exclusions.txt	LTP180	ltpFR	1	7	1	CLAY	320	n/a	0	1	0.412841796875	0.57763671875	lower	../fonts/amplitud.ttf
1218398	WORD	wordpools/wasnorm_wordpool_less_exclusions.txt	LTP180	ltpFR	1	7	1	MUSEUM	933	n/a	0	1	0.412841796875	0.57763671875	lower	../fonts/amplitud.ttf
1224166	REC_START	n/a	LTP180	ltpFR	1	7	n/a	n/a	n/a	n/a	n/a	n/a	n/a	n/a	n/a	n/a
1224700	REC_WORD	wordpools/wasnorm_wordpool_less_exclusions.txt	LTP180	ltpFR	1	7	1	MUSEUM	933	n/a	0	n/a	n/a	n/a	n/a	n/a
1225243	REC_WORD	wordpools/wasnorm_wordpool_less_exclusions.txt	LTP180	ltpFR	1	7	1	CLAY	320	n/a	0	n/a	n/a	n/a	n/a	n/a
1225707	REC_WORD	wordpools/wasnorm_wordpool_less_exclusions.txt	LTP180	ltpFR	1	7	1	TOE	1473	n/a	1	n/a	n/a	n/a	n/a	n/a
1226910	REC_WORD_VV	wordpools/wasnorm_wordpool_less_exclusions.txt	LTP180	ltpFR	1	7	n/a	<>	-1	n/a	n/a	n/a	n/a	n/a	n/a	n/a
1229632	REC_WORD_VV	wordpools/wasnorm_wordpool_less_exclusions.txt	LTP180	ltpFR	1	7	n/a	<>	-1	n/a	n/a	n/a	n/a	n/a	n/a	n/a
1230632	REC_WORD_VV	wordpools/wasnorm_wordpool_less_exclusions.txt	LTP180	ltpFR	1	7	n/a	<>	-1	n/a	n/a	n/a	n/a	n/a	n/a	n/a
1235979	REC_WORD	wordpools/wasnorm_wordpool_less_exclusions.txt	LTP180	ltpFR	1	7	1	ROOT	1210	n/a	1	n/a	n/a	n/a	n/a	n/a
1236782	REC_WORD	wordpools/wasnorm_wordpool_less_exclusions.txt	LTP180	ltpFR	1	7	1	STEM	1376	n/a	1	n/a	n/a	n/a	n/a	n/a
1247079	REC_WORD	wordpools/wasnorm_wordpool_less_exclusions.txt	LTP180	ltpFR	1	7	1	CUB	419	n/a	1	n/a	n/a	n/a	n/a	n/a
1257455	REC_WORD_VV	wordpools/wasnorm_wordpool_less_exclusions.txt	LTP180	ltpFR	1	7	n/a	<>	-1	n/a	n/a	n/a	n/a	n/a	n/a	n/a
1258198	REC_WORD	wordpools/wasnorm_wordpool_less_exclusions.txt	LTP180	ltpFR	1	7	1	OTTER	986	n/a	1	n/a	n/a	n/a	n/a	n/a
1304236	WORD	wordpools/wasnorm_wordpool_less_exclusions.txt	LTP180	ltpFR	1	8	1	BEAN	105	n/a	n/a	1	0.412841796875	0.57763671875	lower	../fonts/amplitud.ttf
1307265	SLOW_MSG	n/a	LTP180	ltpFR	1	8	n/a	n/a	n/a	n/a	n/a	n/a	n/a	n/a	n/a	n/a
1309973	WORD	wordpools/wasnorm_wordpool_less_exclusions.txt	LTP180	ltpFR	1	8	1	CROCODILE	411	n/a	n/a	1	0.412841796875	0.57763671875	lower	../fonts/amplitud.ttf
1313000	SLOW_MSG	n/a	LTP180	ltpFR	1	8	n/a	n/a	n/a	n/a	n/a	n/a	n/a	n/a	n/a	n/a
1315728	WORD	wordpools/wasnorm_wordpool_less_exclusions.txt	LTP180	ltpFR	1	8	1	MONGOOSE	909	n/a	1	1	0.412841796875	0.57763671875	lower	../fonts/amplitud.ttf
1319625	WORD	wordpools/wasnorm_wordpool_less_exclusions.txt	LTP180	ltpFR	1	8	1	LIZARD	834	n/a	1	1	0.412841796875	0.57763671875	lower	../fonts/amplitud.ttf
1323640	WORD	wordpools/wasnorm_wordpool_less_exclusions.txt	LTP180	ltpFR	1	8	1	SWAMP	1416	n/a	0	1	0.412841796875	0.57763671875	lower	../fonts/amplitud.ttf
1327605	WORD	wordpools/wasnorm_wordpool_less_exclusions.txt	LTP180	ltpFR	1	8	1	VINEGAR	1569	n/a	0	1	0.412841796875	0.57763671875	lower	../fonts/amplitud.ttf
1331637	WORD	wordpools/wasnorm_wordpool_less_exclusions.txt	LTP180	ltpFR	1	8	1	BLACKBERRY	132	n/a	1	1	0.412841796875	0.57763671875	lower	../fonts/amplitud.ttf
1335840	WORD	wordpools/wasnorm_wordpool_less_exclusions.txt	LTP180	ltpFR	1	8	1	RASPBERRY	1168	n/a	2	1	0.412841796875	0.57763671875	lower	../fonts/amplitud.ttf
1337861	KEY_MSG	n/a	LTP180	ltpFR	1	8	n/a	n/a	n/a	n/a	n/a	n/a	n/a	n/a	n/a	n/a
1340542	WORD	wordpools/wasnorm_wordpool_less_exclusions.txt	LTP180	ltpFR	1	8	1	PALM	1007	n/a	1	1	0.412841796875	0.57763671875	lower	../fonts/amplitud.ttf
1344705	WORD	wordpools/wasnorm_wordpool_less_exclusions.txt	LTP180	ltpFR	1	8	1	CEILING	265	n/a	0	1	0.412841796875	0.57763671875	lower	../fonts/amplitud.ttf
1348791	WORD	wordpools/wasnorm_wordpool_less_exclusions.txt	LTP180	ltpFR	1	8	1	MEAT	883	n/a	1	1	0.412841796875	0.57763671875	lower	../fonts/amplitud.ttf
1352616	WORD	wordpools/wasnorm_wordpool_less_exclusions.txt	LTP180	ltpFR	1	8	1	JUG	762	n/a	0	1	0.412841796875	0.57763671875	lower	../fonts/amplitud.ttf
1356564	WORD	wordpools/wasnorm_wordpool_less_exclusions.txt	LTP180	ltpFR	1	8	1	TREASURE	1500	n/a	0	1	0.412841796875	0.57763671875	lower	../fonts/amplitud.ttf
1360613	WORD	wordpools/wasnorm_wordpool_less_exclusions.txt	LTP180	ltpFR	1	8	1	SERGEANT	1269	n/a	1	1	0.412841796875	0.57763671875	lower	../fonts/amplitud.ttf
1364697	WORD	wordpools/wasnorm_wordpool_less_exclusions.txt	LTP180	ltpFR	1	8	1	TILE	1468	n/a	0	1	0.412841796875	0.57763671875	lower	../fonts/amplitud.ttf
1368744	WORD	wordpools/wasnorm_wordpool_less_exclusions.txt	LTP180	ltpFR	1	8	1	PAIL	1002	n/a	0	1	0.412841796875	0.57763671875	lower	../fonts/amplitud.ttf
1374516	REC_START	n/a	LTP180	ltpFR	1	8	n/a	n/a	n/a	n/a	n/a	n/a	n/a	n/a	n/a	n/a
1375169	REC_WORD_VV	wordpools/wasnorm_wordpool_less_exclusions.txt	LTP180	ltpFR	1	8	n/a	<>	-1	n/a	n/a	n/a	n/a	n/a	n/a	n/a
1377409	REC_WORD	wordpools/wasnorm_wordpool_less_exclusions.txt	LTP180	ltpFR	1	8	1	PAIL	1002	n/a	0	n/a	n/a	n/a	n/a	n/a
1378093	REC_WORD	wordpools/wasnorm_wordpool_less_exclusions.txt	LTP180	ltpFR	1	8	1	CROCODILE	411	n/a	n/a	n/a	n/a	n/a	n/a	n/a
1382493	REC_WORD	wordpools/wasnorm_wordpool_less_exclusions.txt	LTP180	ltpFR	1	8	1	LIZARD	834	n/a	1	n/a	n/a	n/a	n/a	n/a
1386534	REC_WORD	wordpools/wasnorm_wordpool_less_exclusions.txt	LTP180	ltpFR	1	8	1	JUG	762	n/a	0	n/a	n/a	n/a	n/a	n/a
1387721	REC_WORD	wordpools/wasnorm_wordpool_less_exclusions.txt	LTP180	ltpFR	1	8	1	TILE	1468	n/a	0	n/a	n/a	n/a	n/a	n/a
1393528	REC_WORD	wordpools/wasnorm_wordpool_less_exclusions.txt	LTP180	ltpFR	1	8	1	PAIL	1002	n/a	0	n/a	n/a	n/a	n/a	n/a
1405875	REC_WORD	wordpools/wasnorm_wordpool_less_exclusions.txt	LTP180	ltpFR	1	8	1	LIZARD	834	n/a	1	n/a	n/a	n/a	n/a	n/a
1426467	REC_WORD	wordpools/wasnorm_wordpool_less_exclusions.txt	LTP180	ltpFR	1	8	1	JUG	762	n/a	0	n/a	n/a	n/a	n/a	n/a
1454617	WORD	wordpools/wasnorm_wordpool_less_exclusions.txt	LTP180	ltpFR	1	9	1	VISITOR	1573	n/a	n/a	1	0.412841796875	0.57763671875	lower	../fonts/amplitud.ttf
1457651	SLOW_MSG	n/a	LTP180	ltpFR	1	9	n/a	n/a	n/a	n/a	n/a	n/a	n/a	n/a	n/a	n/a
1460289	WORD	wordpools/wasnorm_wordpool_less_exclusions.txt	LTP180	ltpFR	1	9	1	TRACTOR	1493	n/a	2	1	0.412841796875	0.57763671875	lower	../fonts/amplitud.ttf
1460741	KEY_MSG	n/a	LTP180	ltpFR	1	9	n/a	n/a	n/a	n/a	n/a	n/a	n/a	n/a	n/a	n/a
1464153	WORD	wordpools/wasnorm_wordpool_less_exclusions.txt	LTP180	ltpFR	1	9	1	CABLE	213	n/a	2	1	0.412841796875	0.57763671875	lower	../fonts/amplitud.ttf
1466697	KEY_MSG	n/a	LTP180	ltpFR	1	9	n/a	n/a	n/a	n/a	n/a	n/a	n/a	n/a	n/a	n/a
1469138	WORD	wordpools/wasnorm_wordpool_less_exclusions.txt	LTP180	ltpFR	1	9	1	FIREPLACE	570	n/a	2	1	0.412841796875	0.57763671875	lower	../fonts/amplitud.ttf
1470343	KEY_MSG	n/a	LTP180	ltpFR	1	9	n/a	n/a	n/a	n/a	n/a	n/a	n/a	n/a	n/a	n/a
1473287	WORD	wordpools/wasnorm_wordpool_less_exclusions.txt	LTP180	ltpFR	1	9	1	CHARCOAL	281	n/a	2	1	0.412841796875	0.57763671875	lower	../fonts/amplitud.ttf
1474895	KEY_MSG	n/a	LTP180	ltpFR	1	9	n/a	n/a	n/a	n/a	n/a	n/a	n/a	n/a	n/a	n/a
1477604	WORD	wordpools/wasnorm_wordpool_less_exclusions.txt	LTP180	ltpFR	1	9	1	FARMER	553	n/a	3	1	0.412841796875	0.57763671875	lower	../fonts/amplitud.ttf
1480314	KEY_MSG	n/a	LTP180	ltpFR	1	9	n/a	n/a	n/a	n/a	n/a	n/a	n/a	n/a	n/a	n/a
1482908	WORD	wordpools/wasnorm_wordpool_less_exclusions.txt	LTP180	ltpFR	1	9	1	OLIVE	975	n/a	2	1	0.412841796875	0.57763671875	lower	../fonts/amplitud.ttf
1484446	KEY_MSG	n/a	LTP180	ltpFR	1	9	n/a	n/a	n/a	n/a	n/a	n/a	n/a	n/a	n/a	n/a
1486958	WORD	wordpools/wasnorm_wordpool_less_exclusions.txt	LTP180	ltpFR	1	9	1	BARLEY	88	n/a	2	1	0.412841796875	0.57763671875	lower	../fonts/amplitud.ttf
1488428	KEY_MSG	n/a	LTP180	ltpFR	1	9	n/a	n/a	n/a	n/a	n/a	n/a	n/a	n/a	n/a	n/a
1491088	WORD	wordpools/wasnorm_wordpool_less_exclusions.txt	LTP180	ltpFR	1	9	1	SLEEVE	1324	n/a	2	1	0.412841796875	0.57763671875	lower	../fonts/amplitud.ttf
1492008	KEY_MSG	n/a	LTP180	ltpFR	1	9	n/a	n/a	n/a	n/a	n/a	n/a	n/a	n/a	n/a	n/a
1495287	WORD	wordpools/wasnorm_wordpool_less_exclusions.txt	LTP180	ltpFR	1	9	1	ROAD	1196	n/a	3	1	0.412841796875	0.57763671875	lower	../fonts/amplitud.ttf
1496827	KEY_MSG	n/a	LTP180	ltpFR	1	9	n/a	n/a	n/a	n/a	n/a	n/a	n/a	n/a	n/a	n/a
1499402	WORD	wordpools/wasnorm_wordpool_less_exclusions.txt	LTP180	ltpFR	1	9	1	SUN	1406	n/a	3	1	0.412841796875	0.57763671875	lower	../fonts/amplitud.ttf
1501310	KEY_MSG	n/a	LTP180	ltpFR	1	9	n/a	n/a	n/a	n/a	n/a	n/a	n/a	n/a	n/a	n/a
1504003	WORD	wordpools/wasnorm_wordpool_less_exclusions.txt	LTP180	ltpFR	1	9	1	ASSISTANT	48	n/a	3	1	0.412841796875	0.57763671875	lower	../fonts/amplitud.ttf
1505291	KEY_MSG	n/a	LTP180	ltpFR	1	9	n/a	n/a	n/a	n/a	n/a	n/a	n/a	n/a	n/a	n/a
1508052	WORD	wordpools/wasnorm_wordpool_less_exclusions.txt	LTP180	ltpFR	1	9	1	SHOWER	1296	n/a	2	1	0.412841796875	0.57763671875	lower	../fonts/amplitud.ttf
1509524	KEY_MSG	n/a	LTP180	ltpFR	1	9	n/a	n/a	n/a	n/a	n/a	n/a	n/a	n/a	n/a	n/a
1511953	WORD	wordpools/wasnorm_wordpool_less_exclusions.txt	LTP180	ltpFR	1	9	1	WASHCLOTH	1591	n/a	2	1	0.412841796875	0.57763671875	lower	../fonts/amplitud.ttf
1513640	KEY_MSG	n/a	LTP180	ltpFR	1	9	n/a	n/a	n/a	n/a	n/a	n/a	n/a	n/a	n/a	n/a
1515998	WORD	wordpools/wasnorm_wordpool_less_exclusions.txt	LTP180	ltpFR	1	9	1	FELLOW	558	n/a	3	1	0.412841796875	0.57763671875	lower	../fonts/amplitud.ttf
1517404	KEY_MSG	n/a	LTP180	ltpFR	1	9	n/a	n/a	n/a	n/a	n/a	n/a	n/a	n/a	n/a	n/a
1519948	WORD	wordpools/wasnorm_wordpool_less_exclusions.txt	LTP180	ltpFR	1	9	1	CHAIRPERSON	275	n/a	3	1	0.412841796875	0.57763671875	lower	../fonts/amplitud.ttf
1521134	KEY_MSG	n/a	LTP180	ltpFR	1	9	n/a	n/a	n/a	n/a	n/a	n/a	n/a	n/a	n/a	n/a
1525737	REC_START	n/a	LTP180	ltpFR	1	9	n/a	n/a	n/a	n/a	n/a	n/a	n/a	n/a	n/a	n/a
1526909	REC_WORD_VV	wordpools/wasnorm_wordpool_less_exclusions.txt	LTP180	ltpFR	1	9	n/a	<>	-1	n/a	n/a	n/a	n/a	n/a	n/a	n/a
1527483	REC_WORD	wordpools/wasnorm_wordpool_less_exclusions.txt	LTP180	ltpFR	1	9	1	PAIL	1002	n/a	0	n/a	n/a	n/a	n/a	n/a
1528296	REC_WORD_VV	wordpools/wasnorm_wordpool_less_exclusions.txt	LTP180	ltpFR	1	9	n/a	<>	-1	n/a	n/a	n/a	n/a	n/a	n/a	n/a
1529209	REC_WORD	wordpools/wasnorm_wordpool_less_exclusions.txt	LTP180	ltpFR	1	9	1	WASHCLOTH	1591	n/a	2	n/a	n/a	n/a	n/a	n/a
1530995	REC_WORD	wordpools/wasnorm_wordpool_less_exclusions.txt	LTP180	ltpFR	1	9	1	TILE	1468	n/a	0	n/a	n/a	n/a	n/a	n/a
1532831	REC_WORD	wordpools/wasnorm_wordpool_less_exclusions.txt	LTP180	ltpFR	1	9	1	CHAIRPERSON	275	n/a	3	n/a	n/a	n/a	n/a	n/a
1537889	REC_WORD	wordpools/wasnorm_wordpool_less_exclusions.txt	LTP180	ltpFR	1	9	1	WASHCLOTH	1591	n/a	2	n/a	n/a	n/a	n/a	n/a
1538889	REC_WORD_VV	wordpools/wasnorm_wordpool_less_exclusions.txt	LTP180	ltpFR	1	9	n/a	<>	-1	n/a	n/a	n/a	n/a	n/a	n/a	n/a
1606272	WORD	wordpools/wasnorm_wordpool_less_exclusions.txt	LTP180	ltpFR	1	10	1	FLY	586	n/a	1	1	0.412841796875	0.57763671875	lower	../fonts/amplitud.ttf
1610204	WORD	wordpools/wasnorm_wordpool_less_exclusions.txt	LTP180	ltpFR	1	10	1	HOME	712	n/a	0	1	0.412841796875	0.57763671875	lower	../fonts/amplitud.ttf
1614353	WORD	wordpools/wasnorm_wordpool_less_exclusions.txt	LTP180	ltpFR	1	10	1	KLEENEX	782	n/a	0	1	0.412841796875	0.57763671875	lower	../fonts/amplitud.ttf
1618234	WORD	wordpools/wasnorm_wordpool_less_exclusions.txt	LTP180	ltpFR	1	10	1	EAR	513	n/a	1	1	0.412841796875	0.57763671875	lower	../fonts/amplitud.ttf
1622086	WORD	wordpools/wasnorm_wordpool_less_exclusions.txt	LTP180	ltpFR	1	10	0	SACK	1220	n/a	0	0	0.5869140625	0.422607421875	upper	../fonts/zerothre.ttf
1626281	WORD	wordpools/wasnorm_wordpool_less_exclusions.txt	LTP180	ltpFR	1	10	0	BRIEFCASE	175	n/a	0	0	0.5869140625	0.422607421875	upper	../fonts/zerothre.ttf
1630396	WORD	wordpools/wasnorm_wordpool_less_exclusions.txt	LTP180	ltpFR	1	10	0	SNEAKER	1334	n/a	0	0	0.5869140625	0.422607421875	upper	../fonts/zerothre.ttf
1634328	WORD	wordpools/wasnorm_wordpool_less_exclusions.txt	LTP180	ltpFR	1	10	0	TOTE	1487	n/a	0	0	0.5869140625	0.422607421875	upper	../fonts/zerothre.ttf
1638493	WORD	wordpools/wasnorm_wordpool_less_exclusions.txt	LTP180	ltpFR	1	10	0	BEETLE	116	n/a	1	0	0.5869140625	0.422607421875	upper	../fonts/zerothre.ttf
1642694	WORD	wordpools/wasnorm_wordpool_less_exclusions.txt	LTP180	ltpFR	1	10	1	DONKEY	484	n/a	1	1	0.412841796875	0.57763671875	lower	../fonts/amplitud.ttf
1646843	WORD	wordpools/wasnorm_wordpool_less_exclusions.txt	LTP180	ltpFR	1	10	1	QUEEN	1149	n/a	1	1	0.412841796875	0.57763671875	lower	../fonts/amplitud.ttf
1650824	WORD	wordpools/wasnorm_wordpool_less_exclusions.txt	LTP180	ltpFR	1	10	1	PAGE	1001	n/a	0	1	0.412841796875	0.57763671875	lower	../fonts/amplitud.ttf
1654772	WORD	wordpools/wasnorm_wordpool_less_exclusions.txt	LTP180	ltpFR	1	10	1	LITERATURE	831	n/a	0	1	0.412841796875	0.57763671875	lower	../fonts/amplitud.ttf
1658687	WORD	wordpools/wasnorm_wordpool_less_exclusions.txt	LTP180	ltpFR	1	10	0	CROWN	415	n/a	0	0	0.5869140625	0.422607421875	upper	../fonts/zerothre.ttf
1662888	WORD	wordpools/wasnorm_wordpool_less_exclusions.txt	LTP180	ltpFR	1	10	0	TANGERINE	1431	n/a	0	0	0.5869140625	0.422607421875	upper	../fonts/zerothre.ttf
1667068	WORD	wordpools/wasnorm_wordpool_less_exclusions.txt	LTP180	ltpFR	1	10	0	BULLY	196	n/a	1	0	0.5869140625	0.422607421875	upper	../fonts/zerothre.ttf
1672908	REC_START	n/a	LTP180	ltpFR	1	10	n/a	n/a	n/a	n/a	n/a	n/a	n/a	n/a	n/a	n/a
1673192	REC_WORD	wordpools/wasnorm_wordpool_less_exclusions.txt	LTP180	ltpFR	1	10	0	BULLY	196	n/a	1	n/a	n/a	n/a	n/a	n/a
1673481	REC_WORD	wordpools/wasnorm_wordpool_less_exclusions.txt	LTP180	ltpFR	1	10	0	TANGERINE	1431	n/a	0	n/a	n/a	n/a	n/a	n/a
1674933	REC_WORD	wordpools/wasnorm_wordpool_less_exclusions.txt	LTP180	ltpFR	1	10	1	KLEENEX	782	n/a	0	n/a	n/a	n/a	n/a	n/a
1680356	REC_WORD	wordpools/wasnorm_wordpool_less_exclusions.txt	LTP180	ltpFR	1	10	0	BULLY	196	n/a	1	n/a	n/a	n/a	n/a	n/a
1691311	REC_WORD	wordpools/wasnorm_wordpool_less_exclusions.txt	LTP180	ltpFR	1	10	1	EAR	513	n/a	1	n/a	n/a	n/a	n/a	n/a
1698285	REC_WORD	wordpools/wasnorm_wordpool_less_exclusions.txt	LTP180	ltpFR	1	10	n/a	TIGER	1467	n/a	n/a	n/a	n/a	n/a	n/a	n/a
1753627	WORD	wordpools/wasnorm_wordpool_less_exclusions.txt	LTP180	ltpFR	1	11	1	CARAVAN	242	n/a	n/a	1	0.412841796875	0.57763671875	lower	../fonts/amplitud.ttf
1756657	SLOW_MSG	n/a	LTP180	ltpFR	1	11	n/a	n/a	n/a	n/a	n/a	n/a	n/a	n/a	n/a	n/a
1759065	WORD	wordpools/wasnorm_wordpool_less_exclusions.txt	LTP180	ltpFR	1	11	1	PASSENGER	1020	n/a	1	1	0.412841796875	0.57763671875	lower	../fonts/amplitud.ttf
1762900	WORD	wordpools/wasnorm_wordpool_less_exclusions.txt	LTP180	ltpFR	1	11	1	FROG	608	n/a	1	1	0.412841796875	0.57763671875	lower	../fonts/amplitud.ttf
1767028	WORD	wordpools/wasnorm_wordpool_less_exclusions.txt	LTP180	ltpFR	1	11	1	ASHTRAY	45	n/a	0	1	0.412841796875	0.57763671875	lower	../fonts/amplitud.ttf
1770960	WORD	wordpools/wasnorm_wordpool_less_exclusions.txt	LTP180	ltpFR	1	11	1	BRUNETTE	181	n/a	1	1	0.412841796875	0.57763671875	lower	../fonts/amplitud.ttf
1774974	WORD	wordpools/wasnorm_wordpool_less_exclusions.txt	LTP180	ltpFR	1	11	1	STICKER	1382	n/a	0	1	0.412841796875	0.57763671875	lower	../fonts/amplitud.ttf
1779080	WORD	wordpools/wasnorm_wordpool_less_exclusions.txt	LTP180	ltpFR	1	11	1	COD	340	n/a	1	1	0.412841796875	0.57763671875	lower	../fonts/amplitud.ttf
1782905	WORD	wordpools/wasnorm_wordpool_less_exclusions.txt	LTP180	ltpFR	1	11	1	MISTER	901	n/a	1	1	0.412841796875	0.57763671875	lower	../fonts/amplitud.ttf
1787104	WORD	wordpools/wasnorm_wordpool_less_exclusions.txt	LTP180	ltpFR	1	11	1	LADY	794	n/a	1	1	0.412841796875	0.57763671875	lower	../fonts/amplitud.ttf
1790936	WORD	wordpools/wasnorm_wordpool_less_exclusions.txt	LTP180	ltpFR	1	11	1	WHALE	1601	n/a	1	1	0.412841796875	0.57763671875	lower	../fonts/amplitud.ttf
1794884	WORD	wordpools/wasnorm_wordpool_less_exclusions.txt	LTP180	ltpFR	1	11	1	TELESCOPE	1446	n/a	0	1	0.412841796875	0.57763671875	lower	../fonts/amplitud.ttf
1798748	WORD	wordpools/wasnorm_wordpool_less_exclusions.txt	LTP180	ltpFR	1	11	1	BLUEPRINT	142	n/a	0	1	0.412841796875	0.57763671875	lower	../fonts/amplitud.ttf
1802764	WORD	wordpools/wasnorm_wordpool_less_exclusions.txt	LTP180	ltpFR	1	11	1	FOLDER	588	n/a	0	1	0.412841796875	0.57763671875	lower	../fonts/amplitud.ttf
1806829	WORD	wordpools/wasnorm_wordpool_less_exclusions.txt	LTP180	ltpFR	1	11	1	WHISKERS	1605	n/a	1	1	0.412841796875	0.57763671875	lower	../fonts/amplitud.ttf
1810659	WORD	wordpools/wasnorm_wordpool_less_exclusions.txt	LTP180	ltpFR	1	11	1	TAPE	1433	n/a	0	1	0.412841796875	0.57763671875	lower	../fonts/amplitud.ttf
1814725	WORD	wordpools/wasnorm_wordpool_less_exclusions.txt	LTP180	ltpFR	1	11	1	UNICORN	1538	n/a	1	1	0.412841796875	0.57763671875	lower	../fonts/amplitud.ttf
1820614	REC_START	n/a	LTP180	ltpFR	1	11	n/a	n/a	n/a	n/a	n/a	n/a	n/a	n/a	n/a	n/a
1821247	REC_WORD	wordpools/wasnorm_wordpool_less_exclusions.txt	LTP180	ltpFR	1	11	1	UNICORN	1538	n/a	1	n/a	n/a	n/a	n/a	n/a
1822247	REC_WORD_VV	wordpools/wasnorm_wordpool_less_exclusions.txt	LTP180	ltpFR	1	11	n/a	<>	-1	n/a	n/a	n/a	n/a	n/a	n/a	n/a
1823068	REC_WORD	wordpools/wasnorm_wordpool_less_exclusions.txt	LTP180	ltpFR	1	11	1	WHISKERS	1605	n/a	1	n/a	n/a	n/a	n/a	n/a
1824510	REC_WORD	wordpools/wasnorm_wordpool_less_exclusions.txt	LTP180	ltpFR	1	11	1	LADY	794	n/a	1	n/a	n/a	n/a	n/a	n/a
1825642	REC_WORD	wordpools/wasnorm_wordpool_less_exclusions.txt	LTP180	ltpFR	1	11	1	BRUNETTE	181	n/a	1	n/a	n/a	n/a	n/a	n/a
1842998	REC_WORD	wordpools/wasnorm_wordpool_less_exclusions.txt	LTP180	ltpFR	1	11	1	UNICORN	1538	n/a	1	n/a	n/a	n/a	n/a	n/a
1899796	WORD	wordpools/wasnorm_wordpool_less_exclusions.txt	LTP180	ltpFR	1	12	0	MONARCH	906	n/a	n/a	0	0.5869140625	0.422607421875	upper	../fonts/zerothre.ttf
1902832	SLOW_MSG	n/a	LTP180	ltpFR	1	12	n/a	n/a	n/a	n/a	n/a	n/a	n/a	n/a	n/a	n/a
1905486	WORD	wordpools/wasnorm_wordpool_less_exclusions.txt	LTP180	ltpFR	1	12	0	EMPEROR	529	n/a	0	0	0.5869140625	0.422607421875	upper	../fonts/zerothre.ttf
1909498	WORD	wordpools/wasnorm_wordpool_less_exclusions.txt	LTP180	ltpFR	1	12	0	BILL	126	n/a	0	0	0.5869140625	0.422607421875	upper	../fonts/zerothre.ttf
1913463	WORD	wordpools/wasnorm_wordpool_less_exclusions.txt	LTP180	ltpFR	1	12	0	CANARY	227	n/a	0	0	0.5869140625	0.422607421875	upper	../fonts/zerothre.ttf
1917595	WORD	wordpools/wasnorm_wordpool_less_exclusions.txt	LTP180	ltpFR	1	12	1	DIAGRAM	456	n/a	0	1	0.412841796875	0.57763671875	lower	../fonts/amplitud.ttf
1921544	WORD	wordpools/wasnorm_wordpool_less_exclusions.txt	LTP180	ltpFR	1	12	1	HORNET	718	n/a	0	1	0.412841796875	0.57763671875	lower	../fonts/amplitud.ttf
1925559	WORD	wordpools/wasnorm_wordpool_less_exclusions.txt	LTP180	ltpFR	1	12	1	DART	440	n/a	0	1	0.412841796875	0.57763671875	lower	../fonts/amplitud.ttf
1929657	WORD	wordpools/wasnorm_wordpool_less_exclusions.txt	LTP180	ltpFR	1	12	1	SHELTER	1282	n/a	0	1	0.412841796875	0.57763671875	lower	../fonts/amplitud.ttf
1933560	WORD	wordpools/wasnorm_wordpool_less_exclusions.txt	LTP180	ltpFR	1	12	1	CHART	282	n/a	0	1	0.412841796875	0.57763671875	lower	../fonts/amplitud.ttf
1937638	WORD	wordpools/wasnorm_wordpool_less_exclusions.txt	LTP180	ltpFR	1	12	1	PENCIL	1042	n/a	0	1	0.412841796875	0.57763671875	lower	../fonts/amplitud.ttf
1941569	WORD	wordpools/wasnorm_wordpool_less_exclusions.txt	LTP180	ltpFR	1	12	0	TUNNEL	1519	n/a	0	0	0.5869140625	0.422607421875	upper	../fonts/zerothre.ttf
1945769	WORD	wordpools/wasnorm_wordpool_less_exclusions.txt	LTP180	ltpFR	1	12	0	BOYFRIEND	162	n/a	1	0	0.5869140625	0.422607421875	upper	../fonts/zerothre.ttf
1949734	WORD	wordpools/wasnorm_wordpool_less_exclusions.txt	LTP180	ltpFR	1	12	1	CUSHION	428	n/a	0	1	0.412841796875	0.57763671875	lower	../fonts/amplitud.ttf
1953564	WORD	wordpools/wasnorm_wordpool_less_exclusions.txt	LTP180	ltpFR	1	12	1	INSECT	740	n/a	1	1	0.412841796875	0.57763671875	lower	../fonts/amplitud.ttf
1957697	WORD	wordpools/wasnorm_wordpool_less_exclusions.txt	LTP180	ltpFR	1	12	0	CHALK	276	n/a	0	0	0.5869140625	0.422607421875	upper	../fonts/zerothre.ttf
1961729	WORD	wordpools/wasnorm_wordpool_less_exclusions.txt	LTP180	ltpFR	1	12	0	KEEPER	769	n/a	0	0	0.5869140625	0.422607421875	upper	../fonts/zerothre.ttf
1967534	REC_START	n/a	LTP180	ltpFR	1	12	n/a	n/a	n/a	n/a	n/a	n/a	n/a	n/a	n/a	n/a
1968117	REC_WORD	wordpools/wasnorm_wordpool_less_exclusions.txt	LTP180	ltpFR	1	12	0	KEEPER	769	n/a	0	n/a	n/a	n/a	n/a	n/a
1968861	REC_WORD	wordpools/wasnorm_wordpool_less_exclusions.txt	LTP180	ltpFR	1	12	0	BOYFRIEND	162	n/a	1	n/a	n/a	n/a	n/a	n/a
1971126	REC_WORD_VV	wordpools/wasnorm_wordpool_less_exclusions.txt	LTP180	ltpFR	1	12	n/a	<>	-1	n/a	n/a	n/a	n/a	n/a	n/a	n/a
1971949	REC_WORD	wordpools/wasnorm_wordpool_less_exclusions.txt	LTP180	ltpFR	1	12	0	CHALK	276	n/a	0	n/a	n/a	n/a	n/a	n/a
1978644	REC_WORD	wordpools/wasnorm_wordpool_less_exclusions.txt	LTP180	ltpFR	1	12	0	TUNNEL	1519	n/a	0	n/a	n/a	n/a	n/a	n/a
1981199	REC_WORD_VV	wordpools/wasnorm_wordpool_less_exclusions.txt	LTP180	ltpFR	1	12	n/a	<>	-1	n/a	n/a	n/a	n/a	n/a	n/a	n/a
1988810	REC_WORD	wordpools/wasnorm_wordpool_less_exclusions.txt	LTP180	ltpFR	1	12	0	KEEPER	769	n/a	0	n/a	n/a	n/a	n/a	n/a
1993764	REC_WORD	wordpools/wasnorm_wordpool_less_exclusions.txt	LTP180	ltpFR	1	12	0	TUNNEL	1519	n/a	0	n/a	n/a	n/a	n/a	n/a
2026485	REC_WORD	wordpools/wasnorm_wordpool_less_exclusions.txt	LTP180	ltpFR	1	12	0	MONARCH	906	n/a	n/a	n/a	n/a	n/a	n/a	n/a
2027542	REC_WORD	wordpools/wasnorm_wordpool_less_exclusions.txt	LTP180	ltpFR	1	12	0	EMPEROR	529	n/a	0	n/a	n/a	n/a	n/a	n/a
2043170	REST_REWET	n/a	LTP180	ltpFR	1	12	n/a	n/a	n/a	n/a	n/a	n/a	n/a	n/a	n/a	n/a
2607998	WORD	wordpools/wasnorm_wordpool_less_exclusions.txt	LTP180	ltpFR	1	13	0	TAR	1435	n/a	0	0	0.5869140625	0.422607421875	upper	../fonts/zerothre.ttf
2611885	WORD	wordpools/wasnorm_wordpool_less_exclusions.txt	LTP180	ltpFR	1	13	0	COLT	349	n/a	0	0	0.5869140625	0.422607421875	upper	../fonts/zerothre.ttf
2616045	WORD	wordpools/wasnorm_wordpool_less_exclusions.txt	LTP180	ltpFR	1	13	0	HOSE	720	n/a	0	0	0.5869140625	0.422607421875	upper	../fonts/zerothre.ttf
2620127	WORD	wordpools/wasnorm_wordpool_less_exclusions.txt	LTP180	ltpFR	1	13	0	STEW	1380	n/a	0	0	0.5869140625	0.422607421875	upper	../fonts/zerothre.ttf
2624309	WORD	wordpools/wasnorm_wordpool_less_exclusions.txt	LTP180	ltpFR	1	13	0	MOTORCYCLE	923	n/a	1	0	0.5869140625	0.422607421875	upper	../fonts/zerothre.ttf
2628374	WORD	wordpools/wasnorm_wordpool_less_exclusions.txt	LTP180	ltpFR	1	13	0	GRATE	657	n/a	0	0	0.5869140625	0.422607421875	upper	../fonts/zerothre.ttf
2632339	WORD	wordpools/wasnorm_wordpool_less_exclusions.txt	LTP180	ltpFR	1	13	0	HARP	689	n/a	1	0	0.5869140625	0.422607421875	upper	../fonts/zerothre.ttf
2636188	WORD	wordpools/wasnorm_wordpool_less_exclusions.txt	LTP180	ltpFR	1	13	0	GROCERIES	663	n/a	1	0	0.5869140625	0.422607421875	upper	../fonts/zerothre.ttf
2640353	WORD	wordpools/wasnorm_wordpool_less_exclusions.txt	LTP180	ltpFR	1	13	0	WINDSHIELD	1612	n/a	0	0	0.5869140625	0.422607421875	upper	../fonts/zerothre.ttf
2644351	WORD	wordpools/wasnorm_wordpool_less_exclusions.txt	LTP180	ltpFR	1	13	0	VALVE	1546	n/a	0	0	0.5869140625	0.422607421875	upper	../fonts/zerothre.ttf
2648400	WORD	wordpools/wasnorm_wordpool_less_exclusions.txt	LTP180	ltpFR	1	13	0	CYLINDER	432	n/a	0	0	0.5869140625	0.422607421875	upper	../fonts/zerothre.ttf
2652518	WORD	wordpools/wasnorm_wordpool_less_exclusions.txt	LTP180	ltpFR	1	13	0	AUTOMOBILE	62	n/a	1	0	0.5869140625	0.422607421875	upper	../fonts/zerothre.ttf
2656380	WORD	wordpools/wasnorm_wordpool_less_exclusions.txt	LTP180	ltpFR	1	13	0	TUNA	1518	n/a	1	0	0.5869140625	0.422607421875	upper	../fonts/zerothre.ttf
2660400	WORD	wordpools/wasnorm_wordpool_less_exclusions.txt	LTP180	ltpFR	1	13	0	TANK	1432	n/a	1	0	0.5869140625	0.422607421875	upper	../fonts/zerothre.ttf
2664477	WORD	wordpools/wasnorm_wordpool_less_exclusions.txt	LTP180	ltpFR	1	13	0	HIGHWAY	707	n/a	0	0	0.5869140625	0.422607421875	upper	../fonts/zerothre.ttf
2668358	WORD	wordpools/wasnorm_wordpool_less_exclusions.txt	LTP180	ltpFR	1	13	0	WAVE	1596	n/a	1	0	0.5869140625	0.422607421875	upper	../fonts/zerothre.ttf
2674215	REC_START	n/a	LTP180	ltpFR	1	13	n/a	n/a	n/a	n/a	n/a	n/a	n/a	n/a	n/a	n/a
2674733	REC_WORD_VV	wordpools/wasnorm_wordpool_less_exclusions.txt	LTP180	ltpFR	1	13	n/a	<>	-1	n/a	n/a	n/a	n/a	n/a	n/a	n/a
2675227	REC_WORD	wordpools/wasnorm_wordpool_less_exclusions.txt	LTP180	ltpFR	1	13	0	HIGHWAY	707	n/a	0	n/a	n/a	n/a	n/a	n/a
2676190	REC_WORD	wordpools/wasnorm_wordpool_less_exclusions.txt	LTP180	ltpFR	1	13	0	TAR	1435	n/a	0	n/a	n/a	n/a	n/a	n/a
2677587	REC_WORD	wordpools/wasnorm_wordpool_less_exclusions.txt	LTP180	ltpFR	1	13	0	TUNA	1518	n/a	1	n/a	n/a	n/a	n/a	n/a
2680491	REC_WORD	wordpools/wasnorm_wordpool_less_exclusions.txt	LTP180	ltpFR	1	13	0	AUTOMOBILE	62	n/a	1	n/a	n/a	n/a	n/a	n/a
2681902	REC_WORD	wordpools/wasnorm_wordpool_less_exclusions.txt	LTP180	ltpFR	1	13	0	VALVE	1546	n/a	0	n/a	n/a	n/a	n/a	n/a
2693735	REC_WORD_VV	wordpools/wasnorm_wordpool_less_exclusions.txt	LTP180	ltpFR	1	13	n/a	<>	-1	n/a	n/a	n/a	n/a	n/a	n/a	n/a
2693985	REC_WORD	wordpools/wasnorm_wordpool_less_exclusions.txt	LTP180	ltpFR	1	13	-1	SOCK	1339	n/a	-1	n/a	n/a	n/a	n/a	n/a
2711685	REC_WORD	wordpools/wasnorm_wordpool_less_exclusions.txt	LTP180	ltpFR	1	13	n/a	TARP	-1	n/a	n/a	n/a	n/a	n/a	n/a	n/a
2754404	WORD	wordpools/wasnorm_wordpool_less_exclusions.txt	LTP180	ltpFR	1	14	0	BOXER	160	n/a	n/a	0	0.5869140625	0.422607421875	upper	../fonts/zerothre.ttf
2757433	SLOW_MSG	n/a	LTP180	ltpFR	1	14	n/a	n/a	n/a	n/a	n/a	n/a	n/a	n/a	n/a	n/a
2759838	WORD	wordpools/wasnorm_wordpool_less_exclusions.txt	LTP180	ltpFR	1	14	0	BATHTUB	100	n/a	0	0	0.5869140625	0.422607421875	upper	../fonts/zerothre.ttf
2764002	WORD	wordpools/wasnorm_wordpool_less_exclusions.txt	LTP180	ltpFR	1	14	0	TRUMPET	1513	n/a	0	0	0.5869140625	0.422607421875	upper	../fonts/zerothre.ttf
2768201	WORD	wordpools/wasnorm_wordpool_less_exclusions.txt	LTP180	ltpFR	1	14	1	GAZELLE	628	n/a	1	1	0.412841796875	0.57763671875	lower	../fonts/amplitud.ttf
2772300	WORD	wordpools/wasnorm_wordpool_less_exclusions.txt	LTP180	ltpFR	1	14	1	DRAWER	493	n/a	0	1	0.412841796875	0.57763671875	lower	../fonts/amplitud.ttf
2776248	WORD	wordpools/wasnorm_wordpool_less_exclusions.txt	LTP180	ltpFR	1	14	1	DESIGNER	451	n/a	1	1	0.412841796875	0.57763671875	lower	../fonts/amplitud.ttf
2780331	WORD	wordpools/wasnorm_wordpool_less_exclusions.txt	LTP180	ltpFR	1	14	1	EXPERT	543	n/a	1	1	0.412841796875	0.57763671875	lower	../fonts/amplitud.ttf
2784346	WORD	wordpools/wasnorm_wordpool_less_exclusions.txt	LTP180	ltpFR	1	14	0	CACTUS	215	n/a	0	0	0.5869140625	0.422607421875	upper	../fonts/zerothre.ttf
2788429	WORD	wordpools/wasnorm_wordpool_less_exclusions.txt	LTP180	ltpFR	1	14	0	DANDELION	438	n/a	n/a	0	0.5869140625	0.422607421875	upper	../fonts/zerothre.ttf
2791459	SLOW_MSG	n/a	LTP180	ltpFR	1	14	n/a	n/a	n/a	n/a	n/a	n/a	n/a	n/a	n/a	n/a
2794032	WORD	wordpools/wasnorm_wordpool_less_exclusions.txt	LTP180	ltpFR	1	14	0	PARSLEY	1016	n/a	n/a	0	0.5869140625	0.422607421875	upper	../fonts/zerothre.ttf
2797061	SLOW_MSG	n/a	LTP180	ltpFR	1	14	n/a	n/a	n/a	n/a	n/a	n/a	n/a	n/a	n/a	n/a
2799637	WORD	wordpools/wasnorm_wordpool_less_exclusions.txt	LTP180	ltpFR	1	14	0	BUGLE	189	n/a	n/a	0	0.5869140625	0.422607421875	upper	../fonts/zerothre.ttf
2802671	SLOW_MSG	n/a	LTP180	ltpFR	1	14	n/a	n/a	n/a	n/a	n/a	n/a	n/a	n/a	n/a	n/a
2805408	WORD	wordpools/wasnorm_wordpool_less_exclusions.txt	LTP180	ltpFR	1	14	0	PORT	1110	n/a	0	0	0.5869140625	0.422607421875	upper	../fonts/zerothre.ttf
2809541	WORD	wordpools/wasnorm_wordpool_less_exclusions.txt	LTP180	ltpFR	1	14	1	SNORKEL	1336	n/a	0	1	0.412841796875	0.57763671875	lower	../fonts/amplitud.ttf
2813505	WORD	wordpools/wasnorm_wordpool_less_exclusions.txt	LTP180	ltpFR	1	14	1	PIANO	1057	n/a	0	1	0.412841796875	0.57763671875	lower	../fonts/amplitud.ttf
2817487	WORD	wordpools/wasnorm_wordpool_less_exclusions.txt	LTP180	ltpFR	1	14	1	CANAL	226	n/a	1	1	0.412841796875	0.57763671875	lower	../fonts/amplitud.ttf
2821506	WORD	wordpools/wasnorm_wordpool_less_exclusions.txt	LTP180	ltpFR	1	14	1	BROCCOLI	176	n/a	1	1	0.412841796875	0.57763671875	lower	../fonts/amplitud.ttf
2827292	REC_START	n/a	LTP180	ltpFR	1	14	n/a	n/a	n/a	n/a	n/a	n/a	n/a	n/a	n/a	n/a
2827691	REC_WORD	wordpools/wasnorm_wordpool_less_exclusions.txt	LTP180	ltpFR	1	14	1	CANAL	226	n/a	1	n/a	n/a	n/a	n/a	n/a
2828529	REC_WORD	wordpools/wasnorm_wordpool_less_exclusions.txt	LTP180	ltpFR	1	14	1	BROCCOLI	176	n/a	1	n/a	n/a	n/a	n/a	n/a
2829529	REC_WORD_VV	wordpools/wasnorm_wordpool_less_exclusions.txt	LTP180	ltpFR	1	14	n/a	<>	-1	n/a	n/a	n/a	n/a	n/a	n/a	n/a
2839878	REC_WORD	wordpools/wasnorm_wordpool_less_exclusions.txt	LTP180	ltpFR	1	14	n/a	TORTOISE	1486	n/a	n/a	n/a	n/a	n/a	n/a	n/a
2840878	REC_WORD_VV	wordpools/wasnorm_wordpool_less_exclusions.txt	LTP180	ltpFR	1	14	n/a	<>	-1	n/a	n/a	n/a	n/a	n/a	n/a	n/a
2846398	REC_WORD	wordpools/wasnorm_wordpool_less_exclusions.txt	LTP180	ltpFR	1	14	0	TUNNEL	1519	n/a	0	n/a	n/a	n/a	n/a	n/a
2852345	REC_WORD_VV	wordpools/wasnorm_wordpool_less_exclusions.txt	LTP180	ltpFR	1	14	n/a	<>	-1	n/a	n/a	n/a	n/a	n/a	n/a	n/a
2856792	REC_WORD_VV	wordpools/wasnorm_wordpool_less_exclusions.txt	LTP180	ltpFR	1	14	n/a	<>	-1	n/a	n/a	n/a	n/a	n/a	n/a	n/a
2883913	REC_WORD	wordpools/wasnorm_wordpool_less_exclusions.txt	LTP180	ltpFR	1	14	0	PARSLEY	1016	n/a	n/a	n/a	n/a	n/a	n/a	n/a
2888338	REC_WORD	wordpools/wasnorm_wordpool_less_exclusions.txt	LTP180	ltpFR	1	14	0	PARSLEY	1016	n/a	n/a	n/a	n/a	n/a	n/a	n/a
2907178	WORD	wordpools/wasnorm_wordpool_less_exclusions.txt	LTP180	ltpFR	1	15	-1	WASHER	1592	n/a	-1	1	1.0	1.0	upper	../fonts/Verdana.ttf
2910990	WORD	wordpools/wasnorm_wordpool_less_exclusions.txt	LTP180	ltpFR	1	15	-1	SPATULA	1348	n/a	-1	1	1.0	1.0	upper	../fonts/Verdana.ttf
2915005	WORD	wordpools/wasnorm_wordpool_less_exclusions.txt	LTP180	ltpFR	1	15	-1	TULIP	1517	n/a	-1	1	1.0	1.0	upper	../fonts/Verdana.ttf
2918956	WORD	wordpools/wasnorm_wordpool_less_exclusions.txt	LTP180	ltpFR	1	15	-1	TRENCH	1503	n/a	-1	1	1.0	1.0	upper	../fonts/Verdana.ttf
2922936	WORD	wordpools/wasnorm_wordpool_less_exclusions.txt	LTP180	ltpFR	1	15	-1	OVEN	991	n/a	-1	1	1.0	1.0	upper	../fonts/Verdana.ttf
2927084	WORD	wordpools/wasnorm_wordpool_less_exclusions.txt	LTP180	ltpFR	1	15	-1	CHEF	290	n/a	-1	1	1.0	1.0	upper	../fonts/Verdana.ttf
2931233	WORD	wordpools/wasnorm_wordpool_less_exclusions.txt	LTP180	ltpFR	1	15	-1	MARKET	871	n/a	-1	1	1.0	1.0	upper	../fonts/Verdana.ttf
2935131	WORD	wordpools/wasnorm_wordpool_less_exclusions.txt	LTP180	ltpFR	1	15	-1	BOMB	147	n/a	-1	1	1.0	1.0	upper	../fonts/Verdana.ttf
2938995	WORD	wordpools/wasnorm_wordpool_less_exclusions.txt	LTP180	ltpFR	1	15	-1	CANNON	232	n/a	-1	1	1.0	1.0	upper	../fonts/Verdana.ttf
2942994	WORD	wordpools/wasnorm_wordpool_less_exclusions.txt	LTP180	ltpFR	1	15	-1	THICKET	1455	n/a	-1	1	1.0	1.0	upper	../fonts/Verdana.ttf
2946980	WORD	wordpools/wasnorm_wordpool_less_exclusions.txt	LTP180	ltpFR	1	15	-1	OCEAN	970	n/a	-1	1	1.0	1.0	upper	../fonts/Verdana.ttf
2950857	WORD	wordpools/wasnorm_wordpool_less_exclusions.txt	LTP180	ltpFR	1	15	-1	DAISY	435	n/a	-1	1	1.0	1.0	upper	../fonts/Verdana.ttf
2955072	WORD	wordpools/wasnorm_wordpool_less_exclusions.txt	LTP180	ltpFR	1	15	-1	BELLY	119	n/a	-1	1	1.0	1.0	upper	../fonts/Verdana.ttf
2959140	WORD	wordpools/wasnorm_wordpool_less_exclusions.txt	LTP180	ltpFR	1	15	-1	CUPBOARD	425	n/a	-1	1	1.0	1.0	upper	../fonts/Verdana.ttf
2963220	WORD	wordpools/wasnorm_wordpool_less_exclusions.txt	LTP180	ltpFR	1	15	-1	MUFFIN	929	n/a	-1	1	1.0	1.0	upper	../fonts/Verdana.ttf
2967369	WORD	wordpools/wasnorm_wordpool_less_exclusions.txt	LTP180	ltpFR	1	15	-1	BUTTER	205	n/a	-1	1	1.0	1.0	upper	../fonts/Verdana.ttf
2973241	REC_START	n/a	LTP180	ltpFR	1	15	n/a	n/a	n/a	n/a	n/a	n/a	n/a	n/a	n/a	n/a
2973889	REC_WORD	wordpools/wasnorm_wordpool_less_exclusions.txt	LTP180	ltpFR	1	15	-1	WASHER	1592	n/a	-1	n/a	n/a	n/a	n/a	n/a
2974448	REC_WORD	wordpools/wasnorm_wordpool_less_exclusions.txt	LTP180	ltpFR	1	15	-1	TULIP	1517	n/a	-1	n/a	n/a	n/a	n/a	n/a
2974902	REC_WORD	wordpools/wasnorm_wordpool_less_exclusions.txt	LTP180	ltpFR	1	15	-1	TRENCH	1503	n/a	-1	n/a	n/a	n/a	n/a	n/a
2975426	REC_WORD	wordpools/wasnorm_wordpool_less_exclusions.txt	LTP180	ltpFR	1	15	-1	BOMB	147	n/a	-1	n/a	n/a	n/a	n/a	n/a
2976668	REC_WORD	wordpools/wasnorm_wordpool_less_exclusions.txt	LTP180	ltpFR	1	15	-1	MUFFIN	929	n/a	-1	n/a	n/a	n/a	n/a	n/a
2977326	REC_WORD	wordpools/wasnorm_wordpool_less_exclusions.txt	LTP180	ltpFR	1	15	-1	BUTTER	205	n/a	-1	n/a	n/a	n/a	n/a	n/a
2978733	REC_WORD	wordpools/wasnorm_wordpool_less_exclusions.txt	LTP180	ltpFR	1	15	-1	OVEN	991	n/a	-1	n/a	n/a	n/a	n/a	n/a
3008700	REC_WORD	wordpools/wasnorm_wordpool_less_exclusions.txt	LTP180	ltpFR	1	15	-1	TULIP	1517	n/a	-1	n/a	n/a	n/a	n/a	n/a
3053661	WORD	wordpools/wasnorm_wordpool_less_exclusions.txt	LTP180	ltpFR	1	16	0	PENNY	1045	n/a	0	0	0.5869140625	0.422607421875	upper	../fonts/zerothre.ttf
3057492	WORD	wordpools/wasnorm_wordpool_less_exclusions.txt	LTP180	ltpFR	1	16	0	CASHIER	254	n/a	1	0	0.5869140625	0.422607421875	upper	../fonts/zerothre.ttf
3061423	WORD	wordpools/wasnorm_wordpool_less_exclusions.txt	LTP180	ltpFR	1	16	0	ALMOND	18	n/a	0	0	0.5869140625	0.422607421875	upper	../fonts/zerothre.ttf
3065555	WORD	wordpools/wasnorm_wordpool_less_exclusions.txt	LTP180	ltpFR	1	16	0	PORCUPINE	1107	n/a	0	0	0.5869140625	0.422607421875	upper	../fonts/zerothre.ttf
3069557	WORD	wordpools/wasnorm_wordpool_less_exclusions.txt	LTP180	ltpFR	1	16	0	CATTLE	261	n/a	1	0	0.5869140625	0.422607421875	upper	../fonts/zerothre.ttf
3073452	WORD	wordpools/wasnorm_wordpool_less_exclusions.txt	LTP180	ltpFR	1	16	0	ZIPPER	1636	n/a	0	0	0.5869140625	0.422607421875	upper	../fonts/zerothre.ttf
3077669	WORD	wordpools/wasnorm_wordpool_less_exclusions.txt	LTP180	ltpFR	1	16	0	FLANNEL	574	n/a	0	0	0.5869140625	0.422607421875	upper	../fonts/zerothre.ttf
3081649	WORD	wordpools/wasnorm_wordpool_less_exclusions.txt	LTP180	ltpFR	1	16	0	BULL	193	n/a	1	0	0.5869140625	0.422607421875	upper	../fonts/zerothre.ttf
3085621	WORD	wordpools/wasnorm_wordpool_less_exclusions.txt	LTP180	ltpFR	1	16	0	WINDOW	1611	n/a	0	0	0.5869140625	0.422607421875	upper	../fonts/zerothre.ttf
3089563	WORD	wordpools/wasnorm_wordpool_less_exclusions.txt	LTP180	ltpFR	1	16	0	OPERATOR	979	n/a	1	0	0.5869140625	0.422607421875	upper	../fonts/zerothre.ttf
3093645	WORD	wordpools/wasnorm_wordpool_less_exclusions.txt	LTP180	ltpFR	1	16	0	JAM	748	n/a	0	0	0.5869140625	0.422607421875	upper	../fonts/zerothre.ttf
3097845	WORD	wordpools/wasnorm_wordpool_less_exclusions.txt	LTP180	ltpFR	1	16	0	BUFFALO	186	n/a	1	0	0.5869140625	0.422607421875	upper	../fonts/zerothre.ttf
3101794	WORD	wordpools/wasnorm_wordpool_less_exclusions.txt	LTP180	ltpFR	1	16	0	MINT	898	n/a	0	0	0.5869140625	0.422607421875	upper	../fonts/zerothre.ttf
3105931	WORD	wordpools/wasnorm_wordpool_less_exclusions.txt	LTP180	ltpFR	1	16	0	ROOF	1205	n/a	1	0	0.5869140625	0.422607421875	upper	../fonts/zerothre.ttf
3109857	WORD	wordpools/wasnorm_wordpool_less_exclusions.txt	LTP180	ltpFR	1	16	0	GROUND	666	n/a	1	0	0.5869140625	0.422607421875	upper	../fonts/zerothre.ttf
3113988	WORD	wordpools/wasnorm_wordpool_less_exclusions.txt	LTP180	ltpFR	1	16	0	REGISTER	1180	n/a	0	0	0.5869140625	0.422607421875	upper	../fonts/zerothre.ttf
3119929	REC_START	n/a	LTP180	ltpFR	1	16	n/a	n/a	n/a	n/a	n/a	n/a	n/a	n/a	n/a	n/a
3120927	REC_WORD	wordpools/wasnorm_wordpool_less_exclusions.txt	LTP180	ltpFR	1	16	0	BUFFALO	186	n/a	1	n/a	n/a	n/a	n/a	n/a
3122144	REC_WORD	wordpools/wasnorm_wordpool_less_exclusions.txt	LTP180	ltpFR	1	16	0	ZIPPER	1636	n/a	0	n/a	n/a	n/a	n/a	n/a
3123416	REC_WORD	wordpools/wasnorm_wordpool_less_exclusions.txt	LTP180	ltpFR	1	16	0	ROOF	1205	n/a	1	n/a	n/a	n/a	n/a	n/a
3127192	REC_WORD	wordpools/wasnorm_wordpool_less_exclusions.txt	LTP180	ltpFR	1	16	0	TAR	1435	n/a	0	n/a	n/a	n/a	n/a	n/a
3132206	REC_WORD	wordpools/wasnorm_wordpool_less_exclusions.txt	LTP180	ltpFR	1	16	0	GROUND	666	n/a	1	n/a	n/a	n/a	n/a	n/a
3140756	REC_WORD	wordpools/wasnorm_wordpool_less_exclusions.txt	LTP180	ltpFR	1	16	0	BUFFALO	186	n/a	1	n/a	n/a	n/a	n/a	n/a
3147047	REC_WORD_VV	wordpools/wasnorm_wordpool_less_exclusions.txt	LTP180	ltpFR	1	16	n/a	<>	-1	n/a	n/a	n/a	n/a	n/a	n/a	n/a
3156296	REC_WORD	wordpools/wasnorm_wordpool_less_exclusions.txt	LTP180	ltpFR	1	16	0	ROOF	1205	n/a	1	n/a	n/a	n/a	n/a	n/a
3226061	REC_START	n/a	LTP180	ltpFR	1	n/a	n/a	n/a	n/a	n/a	n/a	n/a	n/a	n/a	n/a	n/a
3227019	FFR_REC_WORD	wordpools/wasnorm_wordpool_less_exclusions.txt	LTP180	ltpFR	1	n/a	0	LABYRINTH	791	n/a	n/a	n/a	n/a	n/a	n/a	n/a
3228670	FFR_REC_WORD_VV	wordpools/wasnorm_wordpool_less_exclusions.txt	LTP180	ltpFR	1	n/a	n/a	<>	-1	n/a	n/a	n/a	n/a	n/a	n/a	n/a
3229657	FFR_REC_WORD	wordpools/wasnorm_wordpool_less_exclusions.txt	LTP180	ltpFR	1	n/a	n/a	TIGER	1467	n/a	n/a	n/a	n/a	n/a	n/a	n/a
3230625	FFR_REC_WORD	wordpools/wasnorm_wordpool_less_exclusions.txt	LTP180	ltpFR	1	n/a	1	BRUNETTE	181	n/a	1	n/a	n/a	n/a	n/a	n/a
3231718	FFR_REC_WORD	wordpools/wasnorm_wordpool_less_exclusions.txt	LTP180	ltpFR	1	n/a	-1	DAUGHTER	442	n/a	-1	n/a	n/a	n/a	n/a	n/a
3233708	FFR_REC_WORD	wordpools/wasnorm_wordpool_less_exclusions.txt	LTP180	ltpFR	1	n/a	0	TUNNEL	1519	n/a	0	n/a	n/a	n/a	n/a	n/a
3239166	FFR_REC_WORD	wordpools/wasnorm_wordpool_less_exclusions.txt	LTP180	ltpFR	1	n/a	-1	WASHER	1592	n/a	-1	n/a	n/a	n/a	n/a	n/a
3240453	FFR_REC_WORD	wordpools/wasnorm_wordpool_less_exclusions.txt	LTP180	ltpFR	1	n/a	-1	OVEN	991	n/a	-1	n/a	n/a	n/a	n/a	n/a
3248734	FFR_REC_WORD	wordpools/wasnorm_wordpool_less_exclusions.txt	LTP180	ltpFR	1	n/a	0	DANDELION	438	n/a	n/a	n/a	n/a	n/a	n/a	n/a
3250600	FFR_REC_WORD	wordpools/wasnorm_wordpool_less_exclusions.txt	LTP180	ltpFR	1	n/a	0	COUGAR	387	n/a	1	n/a	n/a	n/a	n/a	n/a
3253523	FFR_REC_WORD	wordpools/wasnorm_wordpool_less_exclusions.txt	LTP180	ltpFR	1	n/a	1	CROCODILE	411	n/a	n/a	n/a	n/a	n/a	n/a	n/a
3259026	FFR_REC_WORD	wordpools/wasnorm_wordpool_less_exclusions.txt	LTP180	ltpFR	1	n/a	1	LADY	794	n/a	1	n/a	n/a	n/a	n/a	n/a
3261739	FFR_REC_WORD	wordpools/wasnorm_wordpool_less_exclusions.txt	LTP180	ltpFR	1	n/a	0	TAR	1435	n/a	0	n/a	n/a	n/a	n/a	n/a
3265212	FFR_REC_WORD	wordpools/wasnorm_wordpool_less_exclusions.txt	LTP180	ltpFR	1	n/a	0	ROOF	1205	n/a	1	n/a	n/a	n/a	n/a	n/a
3271971	FFR_REC_WORD	wordpools/wasnorm_wordpool_less_exclusions.txt	LTP180	ltpFR	1	n/a	0	JAM	748	n/a	0	n/a	n/a	n/a	n/a	n/a
3284762	FFR_REC_WORD	wordpools/wasnorm_wordpool_less_exclusions.txt	LTP180	ltpFR	1	n/a	-1	MUFFIN	929	n/a	-1	n/a	n/a	n/a	n/a	n/a
3285949	FFR_REC_WORD	wordpools/wasnorm_wordpool_less_exclusions.txt	LTP180	ltpFR	1	n/a	-1	BUTTER	205	n/a	-1	n/a	n/a	n/a	n/a	n/a
3289192	FFR_REC_WORD	wordpools/wasnorm_wordpool_less_exclusions.txt	LTP180	ltpFR	1	n/a	n/a	TIGER	1467	n/a	n/a	n/a	n/a	n/a	n/a	n/a
3298057	FFR_REC_WORD	wordpools/wasnorm_wordpool_less_exclusions.txt	LTP180	ltpFR	1	n/a	0	TANK	1432	n/a	1	n/a	n/a	n/a	n/a	n/a
3300352	FFR_REC_WORD	wordpools/wasnorm_wordpool_less_exclusions.txt	LTP180	ltpFR	1	n/a	-1	DYNAMITE	511	n/a	-1	n/a	n/a	n/a	n/a	n/a
3302033	FFR_REC_WORD	wordpools/wasnorm_wordpool_less_exclusions.txt	LTP180	ltpFR	1	n/a	-1	BOULDER	155	n/a	-1	n/a	n/a	n/a	n/a	n/a
3310688	FFR_REC_WORD	wordpools/wasnorm_wordpool_less_exclusions.txt	LTP180	ltpFR	1	n/a	-1	HOUSE	725	n/a	-1	n/a	n/a	n/a	n/a	n/a
3317119	FFR_REC_WORD	wordpools/wasnorm_wordpool_less_exclusions.txt	LTP180	ltpFR	1	n/a	-1	ANKLE	24	n/a	-1	n/a	n/a	n/a	n/a	n/a
3318017	FFR_REC_WORD	wordpools/wasnorm_wordpool_less_exclusions.txt	LTP180	ltpFR	1	n/a	-1	SOCK	1339	n/a	-1	n/a	n/a	n/a	n/a	n/a
3323759	FFR_REC_WORD	wordpools/wasnorm_wordpool_less_exclusions.txt	LTP180	ltpFR	1	n/a	1	WHISKERS	1605	n/a	1	n/a	n/a	n/a	n/a	n/a
3325869	FFR_REC_WORD	wordpools/wasnorm_wordpool_less_exclusions.txt	LTP180	ltpFR	1	n/a	1	WHISKERS	1605	n/a	1	n/a	n/a	n/a	n/a	n/a
3332219	FFR_REC_WORD	wordpools/wasnorm_wordpool_less_exclusions.txt	LTP180	ltpFR	1	n/a	0	FLANNEL	574	n/a	0	n/a	n/a	n/a	n/a	n/a
3352388	FFR_REC_WORD_VV	wordpools/wasnorm_wordpool_less_exclusions.txt	LTP180	ltpFR	1	n/a	n/a	<>	-1	n/a	n/a	n/a	n/a	n/a	n/a	n/a
3353426	FFR_REC_WORD	wordpools/wasnorm_wordpool_less_exclusions.txt	LTP180	ltpFR	1	n/a	n/a	MAN	862	n/a	n/a	n/a	n/a	n/a	n/a	n/a
3391036	FFR_REC_WORD	wordpools/wasnorm_wordpool_less_exclusions.txt	LTP180	ltpFR	1	n/a	n/a	PANTS	1010	n/a	n/a	n/a	n/a	n/a	n/a	n/a
3410466	FFR_REC_WORD	wordpools/wasnorm_wordpool_less_exclusions.txt	LTP180	ltpFR	1	n/a	0	TANK	1432	n/a	1	n/a	n/a	n/a	n/a	n/a
3419870	FFR_REC_WORD	wordpools/wasnorm_wordpool_less_exclusions.txt	LTP180	ltpFR	1	n/a	-1	BOULDER	155	n/a	-1	n/a	n/a	n/a	n/a	n/a
3438109	FFR_REC_WORD	wordpools/wasnorm_wordpool_less_exclusions.txt	LTP180	ltpFR	1	n/a	-1	WALL	1582	n/a	-1	n/a	n/a	n/a	n/a	n/a
3448680	FFR_REC_WORD	wordpools/wasnorm_wordpool_less_exclusions.txt	LTP180	ltpFR	1	n/a	1	KLEENEX	782	n/a	0	n/a	n/a	n/a	n/a	n/a
3453110	FFR_REC_WORD_VV	wordpools/wasnorm_wordpool_less_exclusions.txt	LTP180	ltpFR	1	n/a	n/a	<>	-1	n/a	n/a	n/a	n/a	n/a	n/a	n/a
3454110	FFR_REC_WORD_VV	wordpools/wasnorm_wordpool_less_exclusions.txt	LTP180	ltpFR	1	n/a	n/a	<>	-1	n/a	n/a	n/a	n/a	n/a	n/a	n/a
3455110	FFR_REC_WORD_VV	wordpools/wasnorm_wordpool_less_exclusions.txt	LTP180	ltpFR	1	n/a	n/a	<>	-1	n/a	n/a	n/a	n/a	n/a	n/a	n/a
3471742	FFR_REC_WORD	wordpools/wasnorm_wordpool_less_exclusions.txt	LTP180	ltpFR	1	n/a	1	GAZELLE	628	n/a	1	n/a	n/a	n/a	n/a	n/a
3480423	FFR_REC_WORD	wordpools/wasnorm_wordpool_less_exclusions.txt	LTP180	ltpFR	1	n/a	-1	TULIP	1517	n/a	-1	n/a	n/a	n/a	n/a	n/a
3484917	FFR_REC_WORD	wordpools/wasnorm_wordpool_less_exclusions.txt	LTP180	ltpFR	1	n/a	n/a	FLOWER	584	n/a	n/a	n/a	n/a	n/a	n/a	n/a
3491393	FFR_REC_WORD	wordpools/wasnorm_wordpool_less_exclusions.txt	LTP180	ltpFR	1	n/a	0	TUNNEL	1519	n/a	0	n/a	n/a	n/a	n/a	n/a
3517039	FFR_REC_WORD	wordpools/wasnorm_wordpool_less_exclusions.txt	LTP180	ltpFR	1	n/a	1	TROPHY	1509	n/a	2	n/a	n/a	n/a	n/a	n/a
3626857	REC_START	n/a	LTP180	ltpFR	1	1	n/a	n/a	n/a	n/a	n/a	n/a	n/a	n/a	n/a	n/a
3626906	RECOG_LURE	n/a	LTP180	ltpFR	1	1	n/a	CHEST	295	5	n/a	n/a	n/a	n/a	n/a	n/a
3628522	RECOG_RESP	n/a	LTP180	ltpFR	1	1	n/a	CHEST	295	n/a	n/a	n/a	n/a	n/a	n/a	n/a
3629818	RECOG_RESP_VV	n/a	LTP180	ltpFR	1	1	n/a	CHEST	295	5	n/a	n/a	n/a	n/a	n/a	n/a
3641954	RECOG_CONF	n/a	LTP180	ltpFR	1	1	n/a	CHEST	295	5	n/a	n/a	n/a	n/a	n/a	n/a
3644873	RECOG_LURE	n/a	LTP180	ltpFR	1	1	n/a	SPHINX	1349	4	n/a	n/a	n/a	n/a	n/a	n/a
3647011	RECOG_RESP	n/a	LTP180	ltpFR	1	1	n/a	SPHINX	1349	n/a	n/a	n/a	n/a	n/a	n/a	n/a
3650847	RECOG_CONF	n/a	LTP180	ltpFR	1	1	n/a	SPHINX	1349	4	n/a	n/a	n/a	n/a	n/a	n/a
3652870	RECOG_LURE	n/a	LTP180	ltpFR	1	1	n/a	TOASTER	1472	5	n/a	n/a	n/a	n/a	n/a	n/a
3654806	RECOG_RESP	n/a	LTP180	ltpFR	1	1	n/a	TOASTER	1472	n/a	n/a	n/a	n/a	n/a	n/a	n/a
3658361	RECOG_CONF	n/a	LTP180	ltpFR	1	1	n/a	TOASTER	1472	5	n/a	n/a	n/a	n/a	n/a	n/a
3660632	RECOG_TARGET	n/a	LTP180	ltpFR	1	1	1	QUEEN	1149	4	1	n/a	n/a	n/a	n/a	n/a
3662685	RECOG_RESP	n/a	LTP180	ltpFR	1	1	1	QUEEN	1149	n/a	1	n/a	n/a	n/a	n/a	n/a
3665004	RECOG_CONF	n/a	LTP180	ltpFR	1	1	1	QUEEN	1149	4	1	n/a	n/a	n/a	n/a	n/a
3667145	RECOG_TARGET	n/a	LTP180	ltpFR	1	1	0	TOTE	1487	5	0	n/a	n/a	n/a	n/a	n/a
3669111	RECOG_RESP	n/a	LTP180	ltpFR	1	1	0	TOTE	1487	n/a	0	n/a	n/a	n/a	n/a	n/a
3671650	RECOG_CONF	n/a	LTP180	ltpFR	1	1	0	TOTE	1487	5	0	n/a	n/a	n/a	n/a	n/a
3673715	RECOG_TARGET	n/a	LTP180	ltpFR	1	1	1	KLEENEX	782	5	0	n/a	n/a	n/a	n/a	n/a
3675378	RECOG_RESP_VV	n/a	LTP180	ltpFR	1	1	1	KLEENEX	782	n/a	0	n/a	n/a	n/a	n/a	n/a
3677673	RECOG_RESP	n/a	LTP180	ltpFR	1	1	1	KLEENEX	782	n/a	0	n/a	n/a	n/a	n/a	n/a
3678633	RECOG_CONF	n/a	LTP180	ltpFR	1	1	1	KLEENEX	782	5	0	n/a	n/a	n/a	n/a	n/a
3680992	RECOG_TARGET	n/a	LTP180	ltpFR	1	1	1	SERGEANT	1269	3	1	n/a	n/a	n/a	n/a	n/a
3683758	RECOG_RESP	n/a	LTP180	ltpFR	1	1	1	SERGEANT	1269	n/a	1	n/a	n/a	n/a	n/a	n/a
3686131	RECOG_CONF	n/a	LTP180	ltpFR	1	1	1	SERGEANT	1269	3	1	n/a	n/a	n/a	n/a	n/a
3688219	RECOG_LURE	n/a	LTP180	ltpFR	1	1	n/a	ENCYCLOPEDIA	533	5	n/a	n/a	n/a	n/a	n/a	n/a
3689556	RECOG_RESP	n/a	LTP180	ltpFR	1	1	n/a	ENCYCLOPEDIA	533	n/a	n/a	n/a	n/a	n/a	n/a	n/a
3691586	RECOG_CONF	n/a	LTP180	ltpFR	1	1	n/a	ENCYCLOPEDIA	533	5	n/a	n/a	n/a	n/a	n/a	n/a
3693546	RECOG_TARGET	n/a	LTP180	ltpFR	1	1	1	CANAL	226	3	1	n/a	n/a	n/a	n/a	n/a
3697752	RECOG_RESP	n/a	LTP180	ltpFR	1	1	1	CANAL	226	n/a	1	n/a	n/a	n/a	n/a	n/a
3699227	RECOG_CONF	n/a	LTP180	ltpFR	1	1	1	CANAL	226	3	1	n/a	n/a	n/a	n/a	n/a
3701252	RECOG_TARGET	n/a	LTP180	ltpFR	1	1	1	FROG	608	4	1	n/a	n/a	n/a	n/a	n/a
3702531	RECOG_RESP	n/a	LTP180	ltpFR	1	1	1	FROG	608	n/a	1	n/a	n/a	n/a	n/a	n/a
3706052	RECOG_CONF	n/a	LTP180	ltpFR	1	1	1	FROG	608	4	1	n/a	n/a	n/a	n/a	n/a
3707911	RECOG_TARGET	n/a	LTP180	ltpFR	1	1	1	MAMMAL	861	3	1	n/a	n/a	n/a	n/a	n/a
3709378	RECOG_RESP	n/a	LTP180	ltpFR	1	1	1	MAMMAL	861	n/a	1	n/a	n/a	n/a	n/a	n/a
3711050	RECOG_CONF	n/a	LTP180	ltpFR	1	1	1	MAMMAL	861	3	1	n/a	n/a	n/a	n/a	n/a
3712830	RECOG_LURE	n/a	LTP180	ltpFR	1	1	n/a	ORGAN	984	5	n/a	n/a	n/a	n/a	n/a	n/a
3714807	RECOG_RESP	n/a	LTP180	ltpFR	1	1	n/a	ORGAN	984	n/a	n/a	n/a	n/a	n/a	n/a	n/a
3716907	RECOG_CONF	n/a	LTP180	ltpFR	1	1	n/a	ORGAN	984	5	n/a	n/a	n/a	n/a	n/a	n/a
3718735	RECOG_LURE	n/a	LTP180	ltpFR	1	1	n/a	CUBE	420	5	n/a	n/a	n/a	n/a	n/a	n/a
3720277	RECOG_RESP	n/a	LTP180	ltpFR	1	1	n/a	CUBE	420	n/a	n/a	n/a	n/a	n/a	n/a	n/a
3722360	RECOG_CONF	n/a	LTP180	ltpFR	1	1	n/a	CUBE	420	5	n/a	n/a	n/a	n/a	n/a	n/a
3724221	RECOG_TARGET	n/a	LTP180	ltpFR	1	1	1	RUG	1215	1	2	n/a	n/a	n/a	n/a	n/a
3726020	RECOG_RESP	n/a	LTP180	ltpFR	1	1	1	RUG	1215	n/a	2	n/a	n/a	n/a	n/a	n/a
3727686	RECOG_CONF	n/a	LTP180	ltpFR	1	1	1	RUG	1215	1	2	n/a	n/a	n/a	n/a	n/a
3729441	RECOG_TARGET	n/a	LTP180	ltpFR	1	1	0	TOAST	1471	5	1	n/a	n/a	n/a	n/a	n/a
3730744	RECOG_RESP	n/a	LTP180	ltpFR	1	1	0	TOAST	1471	n/a	1	n/a	n/a	n/a	n/a	n/a
3732932	RECOG_CONF	n/a	LTP180	ltpFR	1	1	0	TOAST	1471	5	1	n/a	n/a	n/a	n/a	n/a
3735230	RECOG_TARGET	n/a	LTP180	ltpFR	1	1	1	CABLE	213	5	2	n/a	n/a	n/a	n/a	n/a
3736508	RECOG_RESP	n/a	LTP180	ltpFR	1	1	1	CABLE	213	n/a	2	n/a	n/a	n/a	n/a	n/a
3738028	RECOG_CONF	n/a	LTP180	ltpFR	1	1	1	CABLE	213	5	2	n/a	n/a	n/a	n/a	n/a
3740148	RECOG_TARGET	n/a	LTP180	ltpFR	1	1	1	CORPORATION	382	3	n/a	n/a	n/a	n/a	n/a	n/a
3741505	RECOG_RESP	n/a	LTP180	ltpFR	1	1	1	CORPORATION	382	n/a	n/a	n/a	n/a	n/a	n/a	n/a
3743517	RECOG_CONF	n/a	LTP180	ltpFR	1	1	1	CORPORATION	382	3	n/a	n/a	n/a	n/a	n/a	n/a
3745151	RECOG_TARGET	n/a	LTP180	ltpFR	1	1	1	STICKER	1382	4	0	n/a	n/a	n/a	n/a	n/a
3746481	RECOG_RESP	n/a	LTP180	ltpFR	1	1	1	STICKER	1382	n/a	0	n/a	n/a	n/a	n/a	n/a
3747883	RECOG_CONF	n/a	LTP180	ltpFR	1	1	1	STICKER	1382	4	0	n/a	n/a	n/a	n/a	n/a
3749838	RECOG_TARGET	n/a	LTP180	ltpFR	1	1	1	DESIGNER	451	5	1	n/a	n/a	n/a	n/a	n/a
3751575	RECOG_RESP	n/a	LTP180	ltpFR	1	1	1	DESIGNER	451	n/a	1	n/a	n/a	n/a	n/a	n/a
3753202	RECOG_CONF	n/a	LTP180	ltpFR	1	1	1	DESIGNER	451	5	1	n/a	n/a	n/a	n/a	n/a
3755054	RECOG_TARGET	n/a	LTP180	ltpFR	1	1	-1	PEN	1041	3	-1	n/a	n/a	n/a	n/a	n/a
3758054	RECOG_RESP_VV	n/a	LTP180	ltpFR	1	1	-1	PEN	1041	3	-1	n/a	n/a	n/a	n/a	n/a
3762254	RECOG_CONF	n/a	LTP180	ltpFR	1	1	-1	PEN	1041	3	-1	n/a	n/a	n/a	n/a	n/a
3770369	REC_START	n/a	LTP180	ltpFR	1	2	n/a	n/a	n/a	n/a	n/a	n/a	n/a	n/a	n/a	n/a
3770412	RECOG_TARGET	n/a	LTP180	ltpFR	1	2	-1	CLOUD	328	5	-1	n/a	n/a	n/a	n/a	n/a
3772627	RECOG_RESP	n/a	LTP180	ltpFR	1	2	-1	CLOUD	328	n/a	-1	n/a	n/a	n/a	n/a	n/a
3774092	RECOG_CONF	n/a	LTP180	ltpFR	1	2	-1	CLOUD	328	5	-1	n/a	n/a	n/a	n/a	n/a
3776138	RECOG_TARGET	n/a	LTP180	ltpFR	1	2	1	HORNET	718	5	0	n/a	n/a	n/a	n/a	n/a
3777308	RECOG_RESP	n/a	LTP180	ltpFR	1	2	1	HORNET	718	n/a	0	n/a	n/a	n/a	n/a	n/a
3779152	RECOG_CONF	n/a	LTP180	ltpFR	1	2	1	HORNET	718	5	0	n/a	n/a	n/a	n/a	n/a
3781041	RECOG_TARGET	n/a	LTP180	ltpFR	1	2	-1	CAMERA	224	3	-1	n/a	n/a	n/a	n/a	n/a
3783037	RECOG_RESP	n/a	LTP180	ltpFR	1	2	-1	CAMERA	224	n/a	-1	n/a	n/a	n/a	n/a	n/a
3785050	RECOG_CONF	n/a	LTP180	ltpFR	1	2	-1	CAMERA	224	3	-1	n/a	n/a	n/a	n/a	n/a
3786875	RECOG_LURE	n/a	LTP180	ltpFR	1	2	n/a	VILLAGE	1566	5	n/a	n/a	n/a	n/a	n/a	n/a
3788014	RECOG_RESP	n/a	LTP180	ltpFR	1	2	n/a	VILLAGE	1566	n/a	n/a	n/a	n/a	n/a	n/a	n/a
3790145	RECOG_CONF	n/a	LTP180	ltpFR	1	2	n/a	VILLAGE	1566	5	n/a	n/a	n/a	n/a	n/a	n/a
3792161	RECOG_TARGET	n/a	LTP180	ltpFR	1	2	0	EMPEROR	529	5	0	n/a	n/a	n/a	n/a	n/a
3793656	RECOG_RESP	n/a	LTP180	ltpFR	1	2	0	EMPEROR	529	n/a	0	n/a	n/a	n/a	n/a	n/a
3795515	RECOG_CONF	n/a	LTP180	ltpFR	1	2	0	EMPEROR	529	5	0	n/a	n/a	n/a	n/a	n/a
3797755	RECOG_TARGET	n/a	LTP180	ltpFR	1	2	1	EAR	513	5	1	n/a	n/a	n/a	n/a	n/a
3799527	RECOG_RESP	n/a	LTP180	ltpFR	1	2	1	EAR	513	n/a	1	n/a	n/a	n/a	n/a	n/a
3801210	RECOG_CONF	n/a	LTP180	ltpFR	1	2	1	EAR	513	5	1	n/a	n/a	n/a	n/a	n/a
3803219	RECOG_LURE	n/a	LTP180	ltpFR	1	2	n/a	CANVAS	234	5	n/a	n/a	n/a	n/a	n/a	n/a
3804657	RECOG_RESP	n/a	LTP180	ltpFR	1	2	n/a	CANVAS	234	n/a	n/a	n/a	n/a	n/a	n/a	n/a
3806213	RECOG_CONF	n/a	LTP180	ltpFR	1	2	n/a	CANVAS	234	5	n/a	n/a	n/a	n/a	n/a	n/a
3808121	RECOG_LURE	n/a	LTP180	ltpFR	1	2	n/a	ACID	2	5	n/a	n/a	n/a	n/a	n/a	n/a
3809405	RECOG_RESP	n/a	LTP180	ltpFR	1	2	n/a	ACID	2	n/a	n/a	n/a	n/a	n/a	n/a	n/a
3811164	RECOG_CONF	n/a	LTP180	ltpFR	1	2	n/a	ACID	2	5	n/a	n/a	n/a	n/a	n/a	n/a
3813194	RECOG_TARGET	n/a	LTP180	ltpFR	1	2	1	CUB	419	5	1	n/a	n/a	n/a	n/a	n/a
3814578	RECOG_RESP	n/a	LTP180	ltpFR	1	2	1	CUB	419	n/a	1	n/a	n/a	n/a	n/a	n/a
3815790	RECOG_CONF	n/a	LTP180	ltpFR	1	2	1	CUB	419	5	1	n/a	n/a	n/a	n/a	n/a
3817675	RECOG_TARGET	n/a	LTP180	ltpFR	1	2	-1	WINGS	1614	3	-1	n/a	n/a	n/a	n/a	n/a
3819107	RECOG_RESP	n/a	LTP180	ltpFR	1	2	-1	WINGS	1614	n/a	-1	n/a	n/a	n/a	n/a	n/a
3821148	RECOG_CONF	n/a	LTP180	ltpFR	1	2	-1	WINGS	1614	3	-1	n/a	n/a	n/a	n/a	n/a
3822844	RECOG_TARGET	n/a	LTP180	ltpFR	1	2	1	BRACELET	163	5	2	n/a	n/a	n/a	n/a	n/a
3824326	RECOG_RESP	n/a	LTP180	ltpFR	1	2	1	BRACELET	163	n/a	2	n/a	n/a	n/a	n/a	n/a
3825951	RECOG_CONF	n/a	LTP180	ltpFR	1	2	1	BRACELET	163	5	2	n/a	n/a	n/a	n/a	n/a
3827846	RECOG_LURE	n/a	LTP180	ltpFR	1	2	n/a	FIELD	562	1	n/a	n/a	n/a	n/a	n/a	n/a
3829736	RECOG_RESP	n/a	LTP180	ltpFR	1	2	n/a	FIELD	562	n/a	n/a	n/a	n/a	n/a	n/a	n/a
3830911	RECOG_CONF	n/a	LTP180	ltpFR	1	2	n/a	FIELD	562	1	n/a	n/a	n/a	n/a	n/a	n/a
3832748	RECOG_TARGET	n/a	LTP180	ltpFR	1	2	-1	WALL	1582	5	-1	n/a	n/a	n/a	n/a	n/a
3834656	RECOG_RESP	n/a	LTP180	ltpFR	1	2	-1	WALL	1582	n/a	-1	n/a	n/a	n/a	n/a	n/a
3836201	RECOG_CONF	n/a	LTP180	ltpFR	1	2	-1	WALL	1582	5	-1	n/a	n/a	n/a	n/a	n/a
3838117	RECOG_LURE	n/a	LTP180	ltpFR	1	2	n/a	RUNNER	1218	3	n/a	n/a	n/a	n/a	n/a	n/a
3839412	RECOG_RESP	n/a	LTP180	ltpFR	1	2	n/a	RUNNER	1218	n/a	n/a	n/a	n/a	n/a	n/a	n/a
3841213	RECOG_CONF	n/a	LTP180	ltpFR	1	2	n/a	RUNNER	1218	3	n/a	n/a	n/a	n/a	n/a	n/a
3842920	RECOG_TARGET	n/a	LTP180	ltpFR	1	2	0	FEATHER	557	5	0	n/a	n/a	n/a	n/a	n/a
3844216	RECOG_RESP	n/a	LTP180	ltpFR	1	2	0	FEATHER	557	n/a	0	n/a	n/a	n/a	n/a	n/a
3845736	RECOG_CONF	n/a	LTP180	ltpFR	1	2	0	FEATHER	557	5	0	n/a	n/a	n/a	n/a	n/a
3847553	RECOG_LURE	n/a	LTP180	ltpFR	1	2	n/a	PIRATE	1074	5	n/a	n/a	n/a	n/a	n/a	n/a
3848761	RECOG_RESP	n/a	LTP180	ltpFR	1	2	n/a	PIRATE	1074	n/a	n/a	n/a	n/a	n/a	n/a	n/a
3850578	RECOG_CONF	n/a	LTP180	ltpFR	1	2	n/a	PIRATE	1074	5	n/a	n/a	n/a	n/a	n/a	n/a
3852438	RECOG_TARGET	n/a	LTP180	ltpFR	1	2	0	CANARY	227	5	0	n/a	n/a	n/a	n/a	n/a
3853804	RECOG_RESP	n/a	LTP180	ltpFR	1	2	0	CANARY	227	n/a	0	n/a	n/a	n/a	n/a	n/a
3855835	RECOG_CONF	n/a	LTP180	ltpFR	1	2	0	CANARY	227	5	0	n/a	n/a	n/a	n/a	n/a
3857876	RECOG_LURE	n/a	LTP180	ltpFR	1	2	n/a	SERVANT	1271	3	n/a	n/a	n/a	n/a	n/a	n/a
3859441	RECOG_RESP	n/a	LTP180	ltpFR	1	2	n/a	SERVANT	1271	n/a	n/a	n/a	n/a	n/a	n/a	n/a
3860747	RECOG_CONF	n/a	LTP180	ltpFR	1	2	n/a	SERVANT	1271	3	n/a	n/a	n/a	n/a	n/a	n/a
3862493	RECOG_TARGET	n/a	LTP180	ltpFR	1	2	1	TOE	1473	5	1	n/a	n/a	n/a	n/a	n/a
3863511	RECOG_RESP	n/a	LTP180	ltpFR	1	2	1	TOE	1473	n/a	1	n/a	n/a	n/a	n/a	n/a
3864649	RECOG_CONF	n/a	LTP180	ltpFR	1	2	1	TOE	1473	5	1	n/a	n/a	n/a	n/a	n/a
3866763	RECOG_TARGET	n/a	LTP180	ltpFR	1	2	-1	TRENCH	1503	5	-1	n/a	n/a	n/a	n/a	n/a
3867723	RECOG_RESP	n/a	LTP180	ltpFR	1	2	-1	TRENCH	1503	n/a	-1	n/a	n/a	n/a	n/a	n/a
3869224	RECOG_CONF	n/a	LTP180	ltpFR	1	2	-1	TRENCH	1503	5	-1	n/a	n/a	n/a	n/a	n/a
3878635	REC_START	n/a	LTP180	ltpFR	1	3	n/a	n/a	n/a	n/a	n/a	n/a	n/a	n/a	n/a	n/a
3878688	RECOG_TARGET	n/a	LTP180	ltpFR	1	3	-1	CHEF	290	4	-1	n/a	n/a	n/a	n/a	n/a
3880575	RECOG_RESP	n/a	LTP180	ltpFR	1	3	-1	CHEF	290	n/a	-1	n/a	n/a	n/a	n/a	n/a
3881844	RECOG_CONF	n/a	LTP180	ltpFR	1	3	-1	CHEF	290	4	-1	n/a	n/a	n/a	n/a	n/a
3883656	RECOG_TARGET	n/a	LTP180	ltpFR	1	3	-1	TULIP	1517	5	-1	n/a	n/a	n/a	n/a	n/a
3884741	RECOG_RESP	n/a	LTP180	ltpFR	1	3	-1	TULIP	1517	n/a	-1	n/a	n/a	n/a	n/a	n/a
3886423	RECOG_CONF	n/a	LTP180	ltpFR	1	3	-1	TULIP	1517	5	-1	n/a	n/a	n/a	n/a	n/a
3888457	RECOG_TARGET	n/a	LTP180	ltpFR	1	3	-1	SCOTCH	1251	5	-1	n/a	n/a	n/a	n/a	n/a
3889885	RECOG_RESP	n/a	LTP180	ltpFR	1	3	-1	SCOTCH	1251	n/a	-1	n/a	n/a	n/a	n/a	n/a
3891540	RECOG_CONF	n/a	LTP180	ltpFR	1	3	-1	SCOTCH	1251	5	-1	n/a	n/a	n/a	n/a	n/a
3893426	RECOG_TARGET	n/a	LTP180	ltpFR	1	3	0	PARSLEY	1016	5	n/a	n/a	n/a	n/a	n/a	n/a
3894594	RECOG_RESP	n/a	LTP180	ltpFR	1	3	0	PARSLEY	1016	n/a	n/a	n/a	n/a	n/a	n/a	n/a
3896994	RECOG_CONF	n/a	LTP180	ltpFR	1	3	0	PARSLEY	1016	5	n/a	n/a	n/a	n/a	n/a	n/a
3898864	RECOG_TARGET	n/a	LTP180	ltpFR	1	3	-1	DISH	474	3	-1	n/a	n/a	n/a	n/a	n/a
3902078	RECOG_RESP	n/a	LTP180	ltpFR	1	3	-1	DISH	474	n/a	-1	n/a	n/a	n/a	n/a	n/a
3903423	RECOG_CONF	n/a	LTP180	ltpFR	1	3	-1	DISH	474	3	-1	n/a	n/a	n/a	n/a	n/a
3905241	RECOG_LURE	n/a	LTP180	ltpFR	1	3	n/a	OYSTER	995	5	n/a	n/a	n/a	n/a	n/a	n/a
3906342	RECOG_RESP	n/a	LTP180	ltpFR	1	3	n/a	OYSTER	995	n/a	n/a	n/a	n/a	n/a	n/a	n/a
3908097	RECOG_CONF	n/a	LTP180	ltpFR	1	3	n/a	OYSTER	995	5	n/a	n/a	n/a	n/a	n/a	n/a
3910105	RECOG_TARGET	n/a	LTP180	ltpFR	1	3	1	CHARCOAL	281	4	2	n/a	n/a	n/a	n/a	n/a
3911519	RECOG_RESP	n/a	LTP180	ltpFR	1	3	1	CHARCOAL	281	n/a	2	n/a	n/a	n/a	n/a	n/a
3912878	RECOG_CONF	n/a	LTP180	ltpFR	1	3	1	CHARCOAL	281	4	2	n/a	n/a	n/a	n/a	n/a
3914656	RECOG_LURE	n/a	LTP180	ltpFR	1	3	n/a	CINNAMON	310	4	n/a	n/a	n/a	n/a	n/a	n/a
3915970	RECOG_RESP	n/a	LTP180	ltpFR	1	3	n/a	CINNAMON	310	n/a	n/a	n/a	n/a	n/a	n/a	n/a
3917782	RECOG_CONF	n/a	LTP180	ltpFR	1	3	n/a	CINNAMON	310	4	n/a	n/a	n/a	n/a	n/a	n/a
3919625	RECOG_TARGET	n/a	LTP180	ltpFR	1	3	1	SLEEVE	1324	2	2	n/a	n/a	n/a	n/a	n/a
3921363	RECOG_RESP	n/a	LTP180	ltpFR	1	3	1	SLEEVE	1324	n/a	2	n/a	n/a	n/a	n/a	n/a
3922541	RECOG_CONF	n/a	LTP180	ltpFR	1	3	1	SLEEVE	1324	2	2	n/a	n/a	n/a	n/a	n/a
3924426	RECOG_TARGET	n/a	LTP180	ltpFR	1	3	0	MINT	898	5	0	n/a	n/a	n/a	n/a	n/a
3925578	RECOG_RESP	n/a	LTP180	ltpFR	1	3	0	MINT	898	n/a	0	n/a	n/a	n/a	n/a	n/a
3927656	RECOG_CONF	n/a	LTP180	ltpFR	1	3	0	MINT	898	5	0	n/a	n/a	n/a	n/a	n/a
3929629	RECOG_TARGET	n/a	LTP180	ltpFR	1	3	-1	DAISY	435	5	-1	n/a	n/a	n/a	n/a	n/a
3931197	RECOG_RESP	n/a	LTP180	ltpFR	1	3	-1	DAISY	435	n/a	-1	n/a	n/a	n/a	n/a	n/a
3932717	RECOG_CONF	n/a	LTP180	ltpFR	1	3	-1	DAISY	435	5	-1	n/a	n/a	n/a	n/a	n/a
3934699	RECOG_TARGET	n/a	LTP180	ltpFR	1	3	1	COD	340	5	1	n/a	n/a	n/a	n/a	n/a
3935865	RECOG_RESP	n/a	LTP180	ltpFR	1	3	1	COD	340	n/a	1	n/a	n/a	n/a	n/a	n/a
3937532	RECOG_CONF	n/a	LTP180	ltpFR	1	3	1	COD	340	5	1	n/a	n/a	n/a	n/a	n/a
3939483	RECOG_TARGET	n/a	LTP180	ltpFR	1	3	0	FLANNEL	574	5	0	n/a	n/a	n/a	n/a	n/a
3940994	RECOG_RESP	n/a	LTP180	ltpFR	1	3	0	FLANNEL	574	n/a	0	n/a	n/a	n/a	n/a	n/a
3942553	RECOG_CONF	n/a	LTP180	ltpFR	1	3	0	FLANNEL	574	5	0	n/a	n/a	n/a	n/a	n/a
3944670	RECOG_LURE	n/a	LTP180	ltpFR	1	3	n/a	NIGHTGOWN	953	5	n/a	n/a	n/a	n/a	n/a	n/a
3945931	RECOG_RESP	n/a	LTP180	ltpFR	1	3	n/a	NIGHTGOWN	953	n/a	n/a	n/a	n/a	n/a	n/a	n/a
3947381	RECOG_CONF	n/a	LTP180	ltpFR	1	3	n/a	NIGHTGOWN	953	5	n/a	n/a	n/a	n/a	n/a	n/a
3949305	RECOG_TARGET	n/a	LTP180	ltpFR	1	3	1	ASHTRAY	45	4	0	n/a	n/a	n/a	n/a	n/a
3950838	RECOG_RESP	n/a	LTP180	ltpFR	1	3	1	ASHTRAY	45	n/a	0	n/a	n/a	n/a	n/a	n/a
3952295	RECOG_CONF	n/a	LTP180	ltpFR	1	3	1	ASHTRAY	45	4	0	n/a	n/a	n/a	n/a	n/a
3954307	RECOG_TARGET	n/a	LTP180	ltpFR	1	3	1	OLIVE	975	5	2	n/a	n/a	n/a	n/a	n/a
3955587	RECOG_RESP	n/a	LTP180	ltpFR	1	3	1	OLIVE	975	n/a	2	n/a	n/a	n/a	n/a	n/a
3957151	RECOG_CONF	n/a	LTP180	ltpFR	1	3	1	OLIVE	975	5	2	n/a	n/a	n/a	n/a	n/a
3959124	RECOG_TARGET	n/a	LTP180	ltpFR	1	3	-1	BUTTER	205	5	-1	n/a	n/a	n/a	n/a	n/a
3960375	RECOG_RESP	n/a	LTP180	ltpFR	1	3	-1	BUTTER	205	n/a	-1	n/a	n/a	n/a	n/a	n/a
3961754	RECOG_CONF	n/a	LTP180	ltpFR	1	3	-1	BUTTER	205	5	-1	n/a	n/a	n/a	n/a	n/a
3963775	RECOG_LURE	n/a	LTP180	ltpFR	1	3	n/a	PRODUCER	1129	3	n/a	n/a	n/a	n/a	n/a	n/a
3965055	RECOG_RESP	n/a	LTP180	ltpFR	1	3	n/a	PRODUCER	1129	n/a	n/a	n/a	n/a	n/a	n/a	n/a
3966493	RECOG_CONF	n/a	LTP180	ltpFR	1	3	n/a	PRODUCER	1129	3	n/a	n/a	n/a	n/a	n/a	n/a
3968258	RECOG_TARGET	n/a	LTP180	ltpFR	1	3	1	HOME	712	5	0	n/a	n/a	n/a	n/a	n/a
3970613	RECOG_RESP	n/a	LTP180	ltpFR	1	3	1	HOME	712	n/a	0	n/a	n/a	n/a	n/a	n/a
3971909	RECOG_CONF	n/a	LTP180	ltpFR	1	3	1	HOME	712	5	0	n/a	n/a	n/a	n/a	n/a
3973784	RECOG_TARGET	n/a	LTP180	ltpFR	1	3	1	TAPE	1433	2	0	n/a	n/a	n/a	n/a	n/a
3976540	RECOG_RESP	n/a	LTP180	ltpFR	1	3	1	TAPE	1433	n/a	0	n/a	n/a	n/a	n/a	n/a
3978115	RECOG_CONF	n/a	LTP180	ltpFR	1	3	1	TAPE	1433	2	0	n/a	n/a	n/a	n/a	n/a
3985571	REC_START	n/a	LTP180	ltpFR	1	4	n/a	n/a	n/a	n/a	n/a	n/a	n/a	n/a	n/a	n/a
3985623	RECOG_LURE	n/a	LTP180	ltpFR	1	4	n/a	RAIL	1161	4	n/a	n/a	n/a	n/a	n/a	n/a
3987321	RECOG_RESP	n/a	LTP180	ltpFR	1	4	n/a	RAIL	1161	n/a	n/a	n/a	n/a	n/a	n/a	n/a
3988882	RECOG_CONF	n/a	LTP180	ltpFR	1	4	n/a	RAIL	1161	4	n/a	n/a	n/a	n/a	n/a	n/a
3990710	RECOG_TARGET	n/a	LTP180	ltpFR	1	4	-1	BOULDER	155	5	-1	n/a	n/a	n/a	n/a	n/a
3992532	RECOG_RESP	n/a	LTP180	ltpFR	1	4	-1	BOULDER	155	n/a	-1	n/a	n/a	n/a	n/a	n/a
3993947	RECOG_CONF	n/a	LTP180	ltpFR	1	4	-1	BOULDER	155	5	-1	n/a	n/a	n/a	n/a	n/a
3995949	RECOG_LURE	n/a	LTP180	ltpFR	1	4	n/a	SICKLE	1302	4	n/a	n/a	n/a	n/a	n/a	n/a
3997514	RECOG_RESP	n/a	LTP180	ltpFR	1	4	n/a	SICKLE	1302	n/a	n/a	n/a	n/a	n/a	n/a	n/a
3998901	RECOG_CONF	n/a	LTP180	ltpFR	1	4	n/a	SICKLE	1302	4	n/a	n/a	n/a	n/a	n/a	n/a
4000915	RECOG_TARGET	n/a	LTP180	ltpFR	1	4	1	MUSEUM	933	5	0	n/a	n/a	n/a	n/a	n/a
4002249	RECOG_RESP	n/a	LTP180	ltpFR	1	4	1	MUSEUM	933	n/a	0	n/a	n/a	n/a	n/a	n/a
4003706	RECOG_CONF	n/a	LTP180	ltpFR	1	4	1	MUSEUM	933	5	0	n/a	n/a	n/a	n/a	n/a
4005603	RECOG_LURE	n/a	LTP180	ltpFR	1	4	n/a	CAKE	219	4	n/a	n/a	n/a	n/a	n/a	n/a
4007166	RECOG_RESP	n/a	LTP180	ltpFR	1	4	n/a	CAKE	219	n/a	n/a	n/a	n/a	n/a	n/a	n/a
4008527	RECOG_CONF	n/a	LTP180	ltpFR	1	4	n/a	CAKE	219	4	n/a	n/a	n/a	n/a	n/a	n/a
4010484	RECOG_TARGET	n/a	LTP180	ltpFR	1	4	1	STEM	1376	5	1	n/a	n/a	n/a	n/a	n/a
4011693	RECOG_RESP	n/a	LTP180	ltpFR	1	4	1	STEM	1376	n/a	1	n/a	n/a	n/a	n/a	n/a
4013063	RECOG_CONF	n/a	LTP180	ltpFR	1	4	1	STEM	1376	5	1	n/a	n/a	n/a	n/a	n/a
4015135	RECOG_TARGET	n/a	LTP180	ltpFR	1	4	1	SHELTER	1282	3	0	n/a	n/a	n/a	n/a	n/a
4018951	RECOG_RESP	n/a	LTP180	ltpFR	1	4	1	SHELTER	1282	n/a	0	n/a	n/a	n/a	n/a	n/a
4020690	RECOG_CONF	n/a	LTP180	ltpFR	1	4	1	SHELTER	1282	3	0	n/a	n/a	n/a	n/a	n/a
4022550	RECOG_TARGET	n/a	LTP180	ltpFR	1	4	-1	BUSH	202	5	-1	n/a	n/a	n/a	n/a	n/a
4023893	RECOG_RESP	n/a	LTP180	ltpFR	1	4	-1	BUSH	202	n/a	-1	n/a	n/a	n/a	n/a	n/a
4026044	RECOG_CONF	n/a	LTP180	ltpFR	1	4	-1	BUSH	202	5	-1	n/a	n/a	n/a	n/a	n/a
4027934	RECOG_TARGET	n/a	LTP180	ltpFR	1	4	1	BROOK	177	4	n/a	n/a	n/a	n/a	n/a	n/a
4029235	RECOG_RESP	n/a	LTP180	ltpFR	1	4	1	BROOK	177	n/a	n/a	n/a	n/a	n/a	n/a	n/a
4030645	RECOG_CONF	n/a	LTP180	ltpFR	1	4	1	BROOK	177	4	n/a	n/a	n/a	n/a	n/a	n/a
4032567	RECOG_LURE	n/a	LTP180	ltpFR	1	4	n/a	SLUG	1329	3	n/a	n/a	n/a	n/a	n/a	n/a
4033821	RECOG_RESP	n/a	LTP180	ltpFR	1	4	n/a	SLUG	1329	n/a	n/a	n/a	n/a	n/a	n/a	n/a
4035103	RECOG_CONF	n/a	LTP180	ltpFR	1	4	n/a	SLUG	1329	3	n/a	n/a	n/a	n/a	n/a	n/a
4036984	RECOG_LURE	n/a	LTP180	ltpFR	1	4	n/a	TIE	1466	4	n/a	n/a	n/a	n/a	n/a	n/a
4038718	RECOG_RESP	n/a	LTP180	ltpFR	1	4	n/a	TIE	1466	n/a	n/a	n/a	n/a	n/a	n/a	n/a
4040694	RECOG_CONF	n/a	LTP180	ltpFR	1	4	n/a	TIE	1466	4	n/a	n/a	n/a	n/a	n/a	n/a
4042592	RECOG_TARGET	n/a	LTP180	ltpFR	1	4	-1	ERASER	538	5	-1	n/a	n/a	n/a	n/a	n/a
4043974	RECOG_RESP	n/a	LTP180	ltpFR	1	4	-1	ERASER	538	n/a	-1	n/a	n/a	n/a	n/a	n/a
4045676	RECOG_CONF	n/a	LTP180	ltpFR	1	4	-1	ERASER	538	5	-1	n/a	n/a	n/a	n/a	n/a
4047692	RECOG_LURE	n/a	LTP180	ltpFR	1	4	n/a	COOK	372	3	n/a	n/a	n/a	n/a	n/a	n/a
4050133	RECOG_RESP	n/a	LTP180	ltpFR	1	4	n/a	COOK	372	n/a	n/a	n/a	n/a	n/a	n/a	n/a
4051599	RECOG_CONF	n/a	LTP180	ltpFR	1	4	n/a	COOK	372	3	n/a	n/a	n/a	n/a	n/a	n/a
4053379	RECOG_LURE	n/a	LTP180	ltpFR	1	4	n/a	NEPHEW	942	5	n/a	n/a	n/a	n/a	n/a	n/a
4054524	RECOG_RESP	n/a	LTP180	ltpFR	1	4	n/a	NEPHEW	942	n/a	n/a	n/a	n/a	n/a	n/a	n/a
4055848	RECOG_CONF	n/a	LTP180	ltpFR	1	4	n/a	NEPHEW	942	5	n/a	n/a	n/a	n/a	n/a	n/a
4057662	RECOG_LURE	n/a	LTP180	ltpFR	1	4	n/a	DOUGH	489	4	n/a	n/a	n/a	n/a	n/a	n/a
4058985	RECOG_RESP	n/a	LTP180	ltpFR	1	4	n/a	DOUGH	489	n/a	n/a	n/a	n/a	n/a	n/a	n/a
4060362	RECOG_CONF	n/a	LTP180	ltpFR	1	4	n/a	DOUGH	489	4	n/a	n/a	n/a	n/a	n/a	n/a
4062202	RECOG_TARGET	n/a	LTP180	ltpFR	1	4	0	ROOMMATE	1207	5	1	n/a	n/a	n/a	n/a	n/a
4063514	RECOG_RESP	n/a	LTP180	ltpFR	1	4	0	ROOMMATE	1207	n/a	1	n/a	n/a	n/a	n/a	n/a
4065245	RECOG_CONF	n/a	LTP180	ltpFR	1	4	0	ROOMMATE	1207	5	1	n/a	n/a	n/a	n/a	n/a
4067097	RECOG_TARGET	n/a	LTP180	ltpFR	1	4	1	PENCIL	1042	3	0	n/a	n/a	n/a	n/a	n/a
4069243	RECOG_RESP	n/a	LTP180	ltpFR	1	4	1	PENCIL	1042	n/a	0	n/a	n/a	n/a	n/a	n/a
4070731	RECOG_CONF	n/a	LTP180	ltpFR	1	4	1	PENCIL	1042	3	0	n/a	n/a	n/a	n/a	n/a
4072317	RECOG_TARGET	n/a	LTP180	ltpFR	1	4	1	FLY	586	4	1	n/a	n/a	n/a	n/a	n/a
4074888	RECOG_RESP	n/a	LTP180	ltpFR	1	4	1	FLY	586	n/a	1	n/a	n/a	n/a	n/a	n/a
4076879	RECOG_CONF	n/a	LTP180	ltpFR	1	4	1	FLY	586	4	1	n/a	n/a	n/a	n/a	n/a
4078709	RECOG_TARGET	n/a	LTP180	ltpFR	1	4	0	DANDELION	438	5	n/a	n/a	n/a	n/a	n/a	n/a
4079891	RECOG_RESP	n/a	LTP180	ltpFR	1	4	0	DANDELION	438	n/a	n/a	n/a	n/a	n/a	n/a	n/a
4081550	RECOG_CONF	n/a	LTP180	ltpFR	1	4	0	DANDELION	438	5	n/a	n/a	n/a	n/a	n/a	n/a
4083393	RECOG_TARGET	n/a	LTP180	ltpFR	1	4	0	RASH	1167	4	2	n/a	n/a	n/a	n/a	n/a
4084551	RECOG_RESP	n/a	LTP180	ltpFR	1	4	0	RASH	1167	n/a	2	n/a	n/a	n/a	n/a	n/a
4086057	RECOG_CONF	n/a	LTP180	ltpFR	1	4	0	RASH	1167	4	2	n/a	n/a	n/a	n/a	n/a
4093324	REC_START	n/a	LTP180	ltpFR	1	5	n/a	n/a	n/a	n/a	n/a	n/a	n/a	n/a	n/a	n/a
4093380	RECOG_LURE	n/a	LTP180	ltpFR	1	5	n/a	CANDLE	229	4	n/a	n/a	n/a	n/a	n/a	n/a
4096232	RECOG_RESP	n/a	LTP180	ltpFR	1	5	n/a	CANDLE	229	n/a	n/a	n/a	n/a	n/a	n/a	n/a
4097734	RECOG_CONF	n/a	LTP180	ltpFR	1	5	n/a	CANDLE	229	4	n/a	n/a	n/a	n/a	n/a	n/a
4099590	RECOG_TARGET	n/a	LTP180	ltpFR	1	5	0	TUNA	1518	5	1	n/a	n/a	n/a	n/a	n/a
4100712	RECOG_RESP	n/a	LTP180	ltpFR	1	5	0	TUNA	1518	n/a	1	n/a	n/a	n/a	n/a	n/a
4102309	RECOG_CONF	n/a	LTP180	ltpFR	1	5	0	TUNA	1518	5	1	n/a	n/a	n/a	n/a	n/a
4104204	RECOG_TARGET	n/a	LTP180	ltpFR	1	5	-1	STRAWBERRY	1391	5	-1	n/a	n/a	n/a	n/a	n/a
4105392	RECOG_RESP	n/a	LTP180	ltpFR	1	5	-1	STRAWBERRY	1391	n/a	-1	n/a	n/a	n/a	n/a	n/a
4106835	RECOG_CONF	n/a	LTP180	ltpFR	1	5	-1	STRAWBERRY	1391	5	-1	n/a	n/a	n/a	n/a	n/a
4108772	RECOG_TARGET	n/a	LTP180	ltpFR	1	5	1	CHART	282	5	0	n/a	n/a	n/a	n/a	n/a
4110220	RECOG_RESP	n/a	LTP180	ltpFR	1	5	1	CHART	282	n/a	0	n/a	n/a	n/a	n/a	n/a
4111675	RECOG_CONF	n/a	LTP180	ltpFR	1	5	1	CHART	282	5	0	n/a	n/a	n/a	n/a	n/a
4113490	RECOG_LURE	n/a	LTP180	ltpFR	1	5	n/a	PUPPY	1144	4	n/a	n/a	n/a	n/a	n/a	n/a
4115169	RECOG_RESP	n/a	LTP180	ltpFR	1	5	n/a	PUPPY	1144	n/a	n/a	n/a	n/a	n/a	n/a	n/a
4116629	RECOG_CONF	n/a	LTP180	ltpFR	1	5	n/a	PUPPY	1144	4	n/a	n/a	n/a	n/a	n/a	n/a
4118592	RECOG_LURE	n/a	LTP180	ltpFR	1	5	n/a	CONTINENT	367	4	n/a	n/a	n/a	n/a	n/a	n/a
4120591	RECOG_RESP	n/a	LTP180	ltpFR	1	5	n/a	CONTINENT	367	n/a	n/a	n/a	n/a	n/a	n/a	n/a
4122197	RECOG_CONF	n/a	LTP180	ltpFR	1	5	n/a	CONTINENT	367	4	n/a	n/a	n/a	n/a	n/a	n/a
4124235	RECOG_TARGET	n/a	LTP180	ltpFR	1	5	1	BROCCOLI	176	5	1	n/a	n/a	n/a	n/a	n/a
4125414	RECOG_RESP	n/a	LTP180	ltpFR	1	5	1	BROCCOLI	176	n/a	1	n/a	n/a	n/a	n/a	n/a
4127162	RECOG_CONF	n/a	LTP180	ltpFR	1	5	1	BROCCOLI	176	5	1	n/a	n/a	n/a	n/a	n/a
4129047	RECOG_TARGET	n/a	LTP180	ltpFR	1	5	-1	CROW	414	5	-1	n/a	n/a	n/a	n/a	n/a
4130095	RECOG_RESP	n/a	LTP180	ltpFR	1	5	-1	CROW	414	n/a	-1	n/a	n/a	n/a	n/a	n/a
4131563	RECOG_CONF	n/a	LTP180	ltpFR	1	5	-1	CROW	414	5	-1	n/a	n/a	n/a	n/a	n/a
4133297	RECOG_LURE	n/a	LTP180	ltpFR	1	5	n/a	DIARY	460	1	n/a	n/a	n/a	n/a	n/a	n/a
4137020	RECOG_RESP	n/a	LTP180	ltpFR	1	5	n/a	DIARY	460	n/a	n/a	n/a	n/a	n/a	n/a	n/a
4138553	RECOG_CONF	n/a	LTP180	ltpFR	1	5	n/a	DIARY	460	1	n/a	n/a	n/a	n/a	n/a	n/a
4140557	RECOG_TARGET	n/a	LTP180	ltpFR	1	5	0	VALVE	1546	5	0	n/a	n/a	n/a	n/a	n/a
4142024	RECOG_RESP	n/a	LTP180	ltpFR	1	5	0	VALVE	1546	n/a	0	n/a	n/a	n/a	n/a	n/a
4143224	RECOG_CONF	n/a	LTP180	ltpFR	1	5	0	VALVE	1546	5	0	n/a	n/a	n/a	n/a	n/a
4144974	RECOG_TARGET	n/a	LTP180	ltpFR	1	5	0	BRIEFCASE	175	1	0	n/a	n/a	n/a	n/a	n/a
4149959	RECOG_RESP	n/a	LTP180	ltpFR	1	5	0	BRIEFCASE	175	n/a	0	n/a	n/a	n/a	n/a	n/a
4151100	RECOG_CONF	n/a	LTP180	ltpFR	1	5	0	BRIEFCASE	175	1	0	n/a	n/a	n/a	n/a	n/a
4152927	RECOG_TARGET	n/a	LTP180	ltpFR	1	5	1	RASPBERRY	1168	5	2	n/a	n/a	n/a	n/a	n/a
4153917	RECOG_RESP	n/a	LTP180	ltpFR	1	5	1	RASPBERRY	1168	n/a	2	n/a	n/a	n/a	n/a	n/a
4155428	RECOG_CONF	n/a	LTP180	ltpFR	1	5	1	RASPBERRY	1168	5	2	n/a	n/a	n/a	n/a	n/a
4157154	RECOG_TARGET	n/a	LTP180	ltpFR	1	5	-1	SPATULA	1348	5	-1	n/a	n/a	n/a	n/a	n/a
4158466	RECOG_RESP	n/a	LTP180	ltpFR	1	5	-1	SPATULA	1348	n/a	-1	n/a	n/a	n/a	n/a	n/a
4159976	RECOG_CONF	n/a	LTP180	ltpFR	1	5	-1	SPATULA	1348	5	-1	n/a	n/a	n/a	n/a	n/a
4161738	RECOG_TARGET	n/a	LTP180	ltpFR	1	5	0	BUBBLE	183	4	0	n/a	n/a	n/a	n/a	n/a
4163916	RECOG_RESP	n/a	LTP180	ltpFR	1	5	0	BUBBLE	183	n/a	0	n/a	n/a	n/a	n/a	n/a
4165266	RECOG_CONF	n/a	LTP180	ltpFR	1	5	0	BUBBLE	183	4	0	n/a	n/a	n/a	n/a	n/a
4166992	RECOG_LURE	n/a	LTP180	ltpFR	1	5	n/a	NOMAD	955	4	n/a	n/a	n/a	n/a	n/a	n/a
4168433	RECOG_RESP	n/a	LTP180	ltpFR	1	5	n/a	NOMAD	955	n/a	n/a	n/a	n/a	n/a	n/a	n/a
4169701	RECOG_CONF	n/a	LTP180	ltpFR	1	5	n/a	NOMAD	955	4	n/a	n/a	n/a	n/a	n/a	n/a
4171541	RECOG_TARGET	n/a	LTP180	ltpFR	1	5	0	FOE	587	4	1	n/a	n/a	n/a	n/a	n/a
4172948	RECOG_RESP	n/a	LTP180	ltpFR	1	5	0	FOE	587	n/a	1	n/a	n/a	n/a	n/a	n/a
4174258	RECOG_CONF	n/a	LTP180	ltpFR	1	5	0	FOE	587	4	1	n/a	n/a	n/a	n/a	n/a
4176181	RECOG_TARGET	n/a	LTP180	ltpFR	1	5	1	CUSHION	428	4	0	n/a	n/a	n/a	n/a	n/a
4177602	RECOG_RESP	n/a	LTP180	ltpFR	1	5	1	CUSHION	428	n/a	0	n/a	n/a	n/a	n/a	n/a
4179188	RECOG_CONF	n/a	LTP180	ltpFR	1	5	1	CUSHION	428	4	0	n/a	n/a	n/a	n/a	n/a
4181110	RECOG_TARGET	n/a	LTP180	ltpFR	1	5	1	SUN	1406	3	3	n/a	n/a	n/a	n/a	n/a
4182568	RECOG_RESP	n/a	LTP180	ltpFR	1	5	1	SUN	1406	n/a	3	n/a	n/a	n/a	n/a	n/a
4183993	RECOG_CONF	n/a	LTP180	ltpFR	1	5	1	SUN	1406	3	3	n/a	n/a	n/a	n/a	n/a
4185595	RECOG_TARGET	n/a	LTP180	ltpFR	1	5	0	REGISTER	1180	5	0	n/a	n/a	n/a	n/a	n/a
4187131	RECOG_RESP	n/a	LTP180	ltpFR	1	5	0	REGISTER	1180	n/a	0	n/a	n/a	n/a	n/a	n/a
4188448	RECOG_CONF	n/a	LTP180	ltpFR	1	5	0	REGISTER	1180	5	0	n/a	n/a	n/a	n/a	n/a
4190228	RECOG_LURE	n/a	LTP180	ltpFR	1	5	n/a	AUDIENCE	59	4	n/a	n/a	n/a	n/a	n/a	n/a
4191362	RECOG_RESP	n/a	LTP180	ltpFR	1	5	n/a	AUDIENCE	59	n/a	n/a	n/a	n/a	n/a	n/a	n/a
4192905	RECOG_CONF	n/a	LTP180	ltpFR	1	5	n/a	AUDIENCE	59	4	n/a	n/a	n/a	n/a	n/a	n/a
4201891	REC_START	n/a	LTP180	ltpFR	1	6	n/a	n/a	n/a	n/a	n/a	n/a	n/a	n/a	n/a	n/a
4201940	RECOG_LURE	n/a	LTP180	ltpFR	1	6	n/a	BOX	159	4	n/a	n/a	n/a	n/a	n/a	n/a
4204773	RECOG_RESP	n/a	LTP180	ltpFR	1	6	n/a	BOX	159	n/a	n/a	n/a	n/a	n/a	n/a	n/a
4205946	RECOG_CONF	n/a	LTP180	ltpFR	1	6	n/a	BOX	159	4	n/a	n/a	n/a	n/a	n/a	n/a
4207711	RECOG_TARGET	n/a	LTP180	ltpFR	1	6	1	WASHCLOTH	1591	5	2	n/a	n/a	n/a	n/a	n/a
4209590	RECOG_RESP	n/a	LTP180	ltpFR	1	6	1	WASHCLOTH	1591	n/a	2	n/a	n/a	n/a	n/a	n/a
4211009	RECOG_CONF	n/a	LTP180	ltpFR	1	6	1	WASHCLOTH	1591	5	2	n/a	n/a	n/a	n/a	n/a
4212980	RECOG_LURE	n/a	LTP180	ltpFR	1	6	n/a	LADDER	793	2	n/a	n/a	n/a	n/a	n/a	n/a
4216062	RECOG_RESP	n/a	LTP180	ltpFR	1	6	n/a	LADDER	793	n/a	n/a	n/a	n/a	n/a	n/a	n/a
4217789	RECOG_CONF	n/a	LTP180	ltpFR	1	6	n/a	LADDER	793	2	n/a	n/a	n/a	n/a	n/a	n/a
4219522	RECOG_LURE	n/a	LTP180	ltpFR	1	6	n/a	EMPLOYEE	531	5	n/a	n/a	n/a	n/a	n/a	n/a
4220955	RECOG_RESP	n/a	LTP180	ltpFR	1	6	n/a	EMPLOYEE	531	n/a	n/a	n/a	n/a	n/a	n/a	n/a
4222852	RECOG_CONF	n/a	LTP180	ltpFR	1	6	n/a	EMPLOYEE	531	5	n/a	n/a	n/a	n/a	n/a	n/a
4224742	RECOG_LURE	n/a	LTP180	ltpFR	1	6	n/a	VACUUM	1543	4	n/a	n/a	n/a	n/a	n/a	n/a
4226844	RECOG_RESP	n/a	LTP180	ltpFR	1	6	n/a	VACUUM	1543	n/a	n/a	n/a	n/a	n/a	n/a	n/a
4228079	RECOG_CONF	n/a	LTP180	ltpFR	1	6	n/a	VACUUM	1543	4	n/a	n/a	n/a	n/a	n/a	n/a
4230028	RECOG_TARGET	n/a	LTP180	ltpFR	1	6	0	BATHTUB	100	5	0	n/a	n/a	n/a	n/a	n/a
4231279	RECOG_RESP	n/a	LTP180	ltpFR	1	6	0	BATHTUB	100	n/a	0	n/a	n/a	n/a	n/a	n/a
4232645	RECOG_CONF	n/a	LTP180	ltpFR	1	6	0	BATHTUB	100	5	0	n/a	n/a	n/a	n/a	n/a
4234662	RECOG_TARGET	n/a	LTP180	ltpFR	1	6	1	TELESCOPE	1446	5	0	n/a	n/a	n/a	n/a	n/a
4235921	RECOG_RESP	n/a	LTP180	ltpFR	1	6	1	TELESCOPE	1446	n/a	0	n/a	n/a	n/a	n/a	n/a
4237390	RECOG_CONF	n/a	LTP180	ltpFR	1	6	1	TELESCOPE	1446	5	0	n/a	n/a	n/a	n/a	n/a
4238915	RECOG_TARGET	n/a	LTP180	ltpFR	1	6	-1	OREGANO	983	5	-1	n/a	n/a	n/a	n/a	n/a
4240478	RECOG_RESP	n/a	LTP180	ltpFR	1	6	-1	OREGANO	983	n/a	-1	n/a	n/a	n/a	n/a	n/a
4242196	RECOG_CONF	n/a	LTP180	ltpFR	1	6	-1	OREGANO	983	5	-1	n/a	n/a	n/a	n/a	n/a
4244282	RECOG_TARGET	n/a	LTP180	ltpFR	1	6	1	EXPERT	543	3	1	n/a	n/a	n/a	n/a	n/a
4246819	RECOG_RESP	n/a	LTP180	ltpFR	1	6	1	EXPERT	543	n/a	1	n/a	n/a	n/a	n/a	n/a
4247831	RECOG_CONF	n/a	LTP180	ltpFR	1	6	1	EXPERT	543	3	1	n/a	n/a	n/a	n/a	n/a
4250020	RECOG_LURE	n/a	LTP180	ltpFR	1	6	n/a	BEARD	107	5	n/a	n/a	n/a	n/a	n/a	n/a
4251770	RECOG_RESP	n/a	LTP180	ltpFR	1	6	n/a	BEARD	107	n/a	n/a	n/a	n/a	n/a	n/a	n/a
4253125	RECOG_CONF	n/a	LTP180	ltpFR	1	6	n/a	BEARD	107	5	n/a	n/a	n/a	n/a	n/a	n/a
4255173	RECOG_LURE	n/a	LTP180	ltpFR	1	6	n/a	THREAD	1460	2	n/a	n/a	n/a	n/a	n/a	n/a
4257701	RECOG_RESP	n/a	LTP180	ltpFR	1	6	n/a	THREAD	1460	n/a	n/a	n/a	n/a	n/a	n/a	n/a
4259039	RECOG_CONF	n/a	LTP180	ltpFR	1	6	n/a	THREAD	1460	2	n/a	n/a	n/a	n/a	n/a	n/a
4260529	RECOG_TARGET	n/a	LTP180	ltpFR	1	6	0	CATTLE	261	5	1	n/a	n/a	n/a	n/a	n/a
4261708	RECOG_RESP	n/a	LTP180	ltpFR	1	6	0	CATTLE	261	n/a	1	n/a	n/a	n/a	n/a	n/a
4263471	RECOG_CONF	n/a	LTP180	ltpFR	1	6	0	CATTLE	261	5	1	n/a	n/a	n/a	n/a	n/a
4265277	RECOG_TARGET	n/a	LTP180	ltpFR	1	6	-1	BARTENDER	92	5	-1	n/a	n/a	n/a	n/a	n/a
4266689	RECOG_RESP	n/a	LTP180	ltpFR	1	6	-1	BARTENDER	92	n/a	-1	n/a	n/a	n/a	n/a	n/a
4268073	RECOG_CONF	n/a	LTP180	ltpFR	1	6	-1	BARTENDER	92	5	-1	n/a	n/a	n/a	n/a	n/a
4270001	RECOG_TARGET	n/a	LTP180	ltpFR	1	6	0	BACK	65	5	0	n/a	n/a	n/a	n/a	n/a
4271580	RECOG_RESP	n/a	LTP180	ltpFR	1	6	0	BACK	65	n/a	0	n/a	n/a	n/a	n/a	n/a
4272959	RECOG_CONF	n/a	LTP180	ltpFR	1	6	0	BACK	65	5	0	n/a	n/a	n/a	n/a	n/a
4274731	RECOG_TARGET	n/a	LTP180	ltpFR	1	6	0	TAR	1435	5	0	n/a	n/a	n/a	n/a	n/a
4275718	RECOG_RESP	n/a	LTP180	ltpFR	1	6	0	TAR	1435	n/a	0	n/a	n/a	n/a	n/a	n/a
4277151	RECOG_CONF	n/a	LTP180	ltpFR	1	6	0	TAR	1435	5	0	n/a	n/a	n/a	n/a	n/a
4278783	RECOG_TARGET	n/a	LTP180	ltpFR	1	6	0	WINDSHIELD	1612	5	0	n/a	n/a	n/a	n/a	n/a
4280107	RECOG_RESP	n/a	LTP180	ltpFR	1	6	0	WINDSHIELD	1612	n/a	0	n/a	n/a	n/a	n/a	n/a
4281450	RECOG_CONF	n/a	LTP180	ltpFR	1	6	0	WINDSHIELD	1612	5	0	n/a	n/a	n/a	n/a	n/a
4283362	RECOG_TARGET	n/a	LTP180	ltpFR	1	6	-1	FINGERNAIL	568	5	-1	n/a	n/a	n/a	n/a	n/a
4284438	RECOG_RESP	n/a	LTP180	ltpFR	1	6	-1	FINGERNAIL	568	n/a	-1	n/a	n/a	n/a	n/a	n/a
4285913	RECOG_CONF	n/a	LTP180	ltpFR	1	6	-1	FINGERNAIL	568	5	-1	n/a	n/a	n/a	n/a	n/a
4287881	RECOG_LURE	n/a	LTP180	ltpFR	1	6	n/a	PUPIL	1143	1	n/a	n/a	n/a	n/a	n/a	n/a
4290302	RECOG_RESP	n/a	LTP180	ltpFR	1	6	n/a	PUPIL	1143	n/a	n/a	n/a	n/a	n/a	n/a	n/a
4293125	RECOG_CONF	n/a	LTP180	ltpFR	1	6	n/a	PUPIL	1143	1	n/a	n/a	n/a	n/a	n/a	n/a
4295140	RECOG_TARGET	n/a	LTP180	ltpFR	1	6	0	STEW	1380	5	0	n/a	n/a	n/a	n/a	n/a
4296067	RECOG_RESP	n/a	LTP180	ltpFR	1	6	0	STEW	1380	n/a	0	n/a	n/a	n/a	n/a	n/a
4297238	RECOG_CONF	n/a	LTP180	ltpFR	1	6	0	STEW	1380	5	0	n/a	n/a	n/a	n/a	n/a
4299088	RECOG_TARGET	n/a	LTP180	ltpFR	1	6	1	PASSENGER	1020	4	1	n/a	n/a	n/a	n/a	n/a
4300211	RECOG_RESP	n/a	LTP180	ltpFR	1	6	1	PASSENGER	1020	n/a	1	n/a	n/a	n/a	n/a	n/a
4301444	RECOG_CONF	n/a	LTP180	ltpFR	1	6	1	PASSENGER	1020	4	1	n/a	n/a	n/a	n/a	n/a
4308105	REC_START	n/a	LTP180	ltpFR	1	7	n/a	n/a	n/a	n/a	n/a	n/a	n/a	n/a	n/a	n/a
4308156	RECOG_LURE	n/a	LTP180	ltpFR	1	7	n/a	BLENDER	136	4	n/a	n/a	n/a	n/a	n/a	n/a
4310977	RECOG_RESP	n/a	LTP180	ltpFR	1	7	n/a	BLENDER	136	n/a	n/a	n/a	n/a	n/a	n/a	n/a
4312598	RECOG_CONF	n/a	LTP180	ltpFR	1	7	n/a	BLENDER	136	4	n/a	n/a	n/a	n/a	n/a	n/a
4314597	RECOG_TARGET	n/a	LTP180	ltpFR	1	7	0	PECAN	1036	1	0	n/a	n/a	n/a	n/a	n/a
4317222	RECOG_RESP	n/a	LTP180	ltpFR	1	7	0	PECAN	1036	n/a	0	n/a	n/a	n/a	n/a	n/a
4318732	RECOG_CONF	n/a	LTP180	ltpFR	1	7	0	PECAN	1036	1	0	n/a	n/a	n/a	n/a	n/a
4320502	RECOG_TARGET	n/a	LTP180	ltpFR	1	7	0	VEIN	1554	5	0	n/a	n/a	n/a	n/a	n/a
4323060	RECOG_RESP	n/a	LTP180	ltpFR	1	7	0	VEIN	1554	n/a	0	n/a	n/a	n/a	n/a	n/a
4324460	RECOG_CONF	n/a	LTP180	ltpFR	1	7	0	VEIN	1554	5	0	n/a	n/a	n/a	n/a	n/a
4326508	RECOG_TARGET	n/a	LTP180	ltpFR	1	7	1	BRUNETTE	181	5	1	n/a	n/a	n/a	n/a	n/a
4327591	RECOG_RESP	n/a	LTP180	ltpFR	1	7	1	BRUNETTE	181	n/a	1	n/a	n/a	n/a	n/a	n/a
4328962	RECOG_CONF	n/a	LTP180	ltpFR	1	7	1	BRUNETTE	181	5	1	n/a	n/a	n/a	n/a	n/a
4330729	RECOG_TARGET	n/a	LTP180	ltpFR	1	7	1	PUMP	1141	5	2	n/a	n/a	n/a	n/a	n/a
4331917	RECOG_RESP	n/a	LTP180	ltpFR	1	7	1	PUMP	1141	n/a	2	n/a	n/a	n/a	n/a	n/a
4333340	RECOG_CONF	n/a	LTP180	ltpFR	1	7	1	PUMP	1141	5	2	n/a	n/a	n/a	n/a	n/a
4335241	RECOG_TARGET	n/a	LTP180	ltpFR	1	7	1	TOURIST	1488	4	1	n/a	n/a	n/a	n/a	n/a
4336457	RECOG_RESP	n/a	LTP180	ltpFR	1	7	1	TOURIST	1488	n/a	1	n/a	n/a	n/a	n/a	n/a
4337667	RECOG_CONF	n/a	LTP180	ltpFR	1	7	1	TOURIST	1488	4	1	n/a	n/a	n/a	n/a	n/a
4339357	RECOG_TARGET	n/a	LTP180	ltpFR	1	7	-1	PLATE	1086	5	-1	n/a	n/a	n/a	n/a	n/a
4340384	RECOG_RESP	n/a	LTP180	ltpFR	1	7	-1	PLATE	1086	n/a	-1	n/a	n/a	n/a	n/a	n/a
4342207	RECOG_CONF	n/a	LTP180	ltpFR	1	7	-1	PLATE	1086	5	-1	n/a	n/a	n/a	n/a	n/a
4343925	RECOG_LURE	n/a	LTP180	ltpFR	1	7	n/a	CAN	225	3	n/a	n/a	n/a	n/a	n/a	n/a
4344942	RECOG_RESP	n/a	LTP180	ltpFR	1	7	n/a	CAN	225	n/a	n/a	n/a	n/a	n/a	n/a	n/a
4346208	RECOG_CONF	n/a	LTP180	ltpFR	1	7	n/a	CAN	225	3	n/a	n/a	n/a	n/a	n/a	n/a
4348073	RECOG_LURE	n/a	LTP180	ltpFR	1	7	n/a	PERCH	1048	5	n/a	n/a	n/a	n/a	n/a	n/a
4349301	RECOG_RESP	n/a	LTP180	ltpFR	1	7	n/a	PERCH	1048	n/a	n/a	n/a	n/a	n/a	n/a	n/a
4350835	RECOG_CONF	n/a	LTP180	ltpFR	1	7	n/a	PERCH	1048	5	n/a	n/a	n/a	n/a	n/a	n/a
4352808	RECOG_TARGET	n/a	LTP180	ltpFR	1	7	-1	MUFFIN	929	5	-1	n/a	n/a	n/a	n/a	n/a
