onset	duration	trial_type	sample	stim_file	subject	experiment	session	trial	task	item_name	item_num	recog_resp	recog_conf	resp	answer	test_x	test_y	test_z	color_r	color_g	color_b	case	font
312.576	n/a	SESS_START	156288	n/a	LTP111	ltpFR	9	n/a	n/a	n/a	n/a	0	3	n/a	n/a	0	0	0	n/a	n/a	n/a	n/a	n/a
338.55	n/a	START	169275	n/a	LTP111	ltpFR	9	n/a	n/a	n/a	n/a	n/a	n/a	n/a	n/a	n/a	n/a	n/a	n/a	n/a	n/a	n/a	n/a
338.574	n/a	PROB	169287	n/a	LTP111	ltpFR	9	n/a	n/a	n/a	n/a	n/a	n/a	n/a	23	9	8	6	n/a	n/a	n/a	n/a	n/a
346.396	n/a	PROB	173198	n/a	LTP111	ltpFR	9	n/a	n/a	n/a	n/a	n/a	n/a	n/a	10	2	1	7	n/a	n/a	n/a	n/a	n/a
348.494	n/a	PROB	174247	n/a	LTP111	ltpFR	9	n/a	n/a	n/a	n/a	n/a	n/a	n/a	1	9	2	8	n/a	n/a	n/a	n/a	n/a
351.716	n/a	PROB	175858	n/a	LTP111	ltpFR	9	n/a	n/a	n/a	n/a	n/a	n/a	n/a	19	8	2	9	n/a	n/a	n/a	n/a	n/a
358.548	n/a	STOP	179274	n/a	LTP111	ltpFR	9	n/a	n/a	n/a	n/a	n/a	n/a	n/a	n/a	n/a	n/a	n/a	n/a	n/a	n/a	n/a	n/a
393.094	n/a	WORD	196547	wordpools/wasnorm_wordpool.txt	LTP111	ltpFR	9	1	1	BERRY	122	1	n/a	1	n/a	0	0	0	0.57763671875	0.412841796875	1	upper	zerothre.ttf
397.114	n/a	WORD	198557	wordpools/wasnorm_wordpool.txt	LTP111	ltpFR	9	1	1	FIG	563	n/a	n/a	1	n/a	0	0	0	0.57763671875	0.412841796875	1	upper	zerothre.ttf
401.168	n/a	WORD	200584	wordpools/wasnorm_wordpool.txt	LTP111	ltpFR	9	1	1	ELECTRON	522	n/a	n/a	1	n/a	0	0	0	0.57763671875	0.412841796875	1	upper	zerothre.ttf
405.088	n/a	WORD	202544	wordpools/wasnorm_wordpool.txt	LTP111	ltpFR	9	1	1	FACE	547	n/a	n/a	0	n/a	0	0	0	0.57763671875	0.412841796875	1	upper	zerothre.ttf
409.25	n/a	WORD	204625	wordpools/wasnorm_wordpool.txt	LTP111	ltpFR	9	1	1	LUMBER	848	n/a	n/a	0	n/a	0	0	0	0.57763671875	0.412841796875	1	upper	zerothre.ttf
413.12	n/a	WORD	206560	wordpools/wasnorm_wordpool.txt	LTP111	ltpFR	9	1	1	CONTRACTOR	369	n/a	n/a	1	n/a	0	0	0	0.57763671875	0.412841796875	1	upper	zerothre.ttf
417.274	n/a	WORD	208637	wordpools/wasnorm_wordpool.txt	LTP111	ltpFR	9	1	1	PAIL	1002	n/a	n/a	0	n/a	0	0	0	0.57763671875	0.412841796875	1	upper	zerothre.ttf
421.22	n/a	WORD	210610	wordpools/wasnorm_wordpool.txt	LTP111	ltpFR	9	1	1	TWEEZERS	1526	n/a	n/a	0	n/a	0	0	0	0.57763671875	0.412841796875	1	upper	zerothre.ttf
425.114	n/a	WORD	212557	wordpools/wasnorm_wordpool.txt	LTP111	ltpFR	9	1	1	COUGAR	387	n/a	n/a	0	n/a	0	0	0	0.57763671875	0.412841796875	1	upper	zerothre.ttf
428.92	n/a	WORD	214460	wordpools/wasnorm_wordpool.txt	LTP111	ltpFR	9	1	1	CHIPMUNK	304	n/a	n/a	1	n/a	0	0	0	0.57763671875	0.412841796875	1	upper	zerothre.ttf
432.982	n/a	WORD	216491	wordpools/wasnorm_wordpool.txt	LTP111	ltpFR	9	1	1	WAVE	1596	n/a	n/a	0	n/a	0	0	0	0.57763671875	0.412841796875	1	upper	zerothre.ttf
437.076	n/a	WORD	218538	wordpools/wasnorm_wordpool.txt	LTP111	ltpFR	9	1	1	CRAB	397	n/a	n/a	1	n/a	0	0	0	0.57763671875	0.412841796875	1	upper	zerothre.ttf
441.014	n/a	WORD	220507	wordpools/wasnorm_wordpool.txt	LTP111	ltpFR	9	1	1	SUNSET	1408	n/a	n/a	1	n/a	0	0	0	0.57763671875	0.412841796875	1	upper	zerothre.ttf
445.192	n/a	WORD	222596	wordpools/wasnorm_wordpool.txt	LTP111	ltpFR	9	1	1	SUNRISE	1407	n/a	n/a	0	n/a	0	0	0	0.57763671875	0.412841796875	1	upper	zerothre.ttf
449.27	n/a	WORD	224635	wordpools/wasnorm_wordpool.txt	LTP111	ltpFR	9	1	1	KITTEN	780	n/a	n/a	1	n/a	0	0	0	0.57763671875	0.412841796875	1	upper	zerothre.ttf
453.098	n/a	WORD	226549	wordpools/wasnorm_wordpool.txt	LTP111	ltpFR	9	1	1	TOOL	1480	n/a	n/a	0	n/a	0	0	0	0.57763671875	0.412841796875	1	upper	zerothre.ttf
456.106	n/a	START	228053	n/a	LTP111	ltpFR	9	n/a	n/a	n/a	n/a	n/a	n/a	n/a	n/a	n/a	n/a	n/a	n/a	n/a	n/a	n/a	n/a
456.988	n/a	PROB	228494	n/a	LTP111	ltpFR	9	n/a	n/a	n/a	n/a	n/a	n/a	n/a	11	5	3	2	n/a	n/a	n/a	n/a	n/a
461.642	n/a	PROB	230821	n/a	LTP111	ltpFR	9	n/a	n/a	n/a	n/a	n/a	n/a	n/a	17	7	9	1	n/a	n/a	n/a	n/a	n/a
463.934	n/a	STOP	231967	n/a	LTP111	ltpFR	9	n/a	n/a	n/a	n/a	n/a	n/a	n/a	n/a	n/a	n/a	n/a	n/a	n/a	n/a	n/a	n/a
465.936	n/a	REC_START	232968	n/a	LTP111	ltpFR	9	1	n/a	n/a	n/a	n/a	n/a	n/a	n/a	0	0	0	n/a	n/a	n/a	n/a	n/a
469.218	n/a	REC_WORD	234609	wordpools/wasnorm_wordpool.txt	LTP111	ltpFR	9	1	1	ELECTRON	522	n/a	n/a	1	n/a	0	0	0	n/a	n/a	n/a	n/a	n/a
471.25	n/a	REC_WORD	235625	wordpools/wasnorm_wordpool.txt	LTP111	ltpFR	9	1	1	LUMBER	848	n/a	n/a	0	n/a	0	0	0	n/a	n/a	n/a	n/a	n/a
474.012	n/a	REC_WORD	237006	wordpools/wasnorm_wordpool.txt	LTP111	ltpFR	9	1	1	TWEEZERS	1526	n/a	n/a	0	n/a	0	0	0	n/a	n/a	n/a	n/a	n/a
476.392	n/a	REC_WORD	238196	wordpools/wasnorm_wordpool.txt	LTP111	ltpFR	9	1	1	CONTRACTOR	369	n/a	n/a	1	n/a	0	0	0	n/a	n/a	n/a	n/a	n/a
479.636	n/a	REC_WORD	239818	wordpools/wasnorm_wordpool.txt	LTP111	ltpFR	9	1	1	BERRY	122	n/a	n/a	1	n/a	0	0	0	n/a	n/a	n/a	n/a	n/a
482.168	n/a	REC_WORD	241084	wordpools/wasnorm_wordpool.txt	LTP111	ltpFR	9	1	1	FIG	563	n/a	n/a	1	n/a	0	0	0	n/a	n/a	n/a	n/a	n/a
485.128	n/a	REC_WORD	242564	wordpools/wasnorm_wordpool.txt	LTP111	ltpFR	9	1	1	PAIL	1002	n/a	n/a	0	n/a	0	0	0	n/a	n/a	n/a	n/a	n/a
489.996	n/a	REC_WORD	244998	wordpools/wasnorm_wordpool.txt	LTP111	ltpFR	9	1	1	COUGAR	387	n/a	n/a	0	n/a	0	0	0	n/a	n/a	n/a	n/a	n/a
492.69	n/a	REC_WORD	246345	wordpools/wasnorm_wordpool.txt	LTP111	ltpFR	9	1	1	CRAB	397	n/a	n/a	1	n/a	0	0	0	n/a	n/a	n/a	n/a	n/a
497.57	n/a	REC_WORD	248785	wordpools/wasnorm_wordpool.txt	LTP111	ltpFR	9	1	1	SUNRISE	1407	n/a	n/a	0	n/a	0	0	0	n/a	n/a	n/a	n/a	n/a
499.8	n/a	REC_WORD	249900	wordpools/wasnorm_wordpool.txt	LTP111	ltpFR	9	1	1	SUNSET	1408	n/a	n/a	1	n/a	0	0	0	n/a	n/a	n/a	n/a	n/a
507.876	n/a	REC_WORD	253938	wordpools/wasnorm_wordpool.txt	LTP111	ltpFR	9	1	1	TOOL	1480	n/a	n/a	0	n/a	0	0	0	n/a	n/a	n/a	n/a	n/a
523.42	n/a	REC_WORD	261710	wordpools/wasnorm_wordpool.txt	LTP111	ltpFR	9	1	1	KITTEN	780	n/a	n/a	1	n/a	0	0	0	n/a	n/a	n/a	n/a	n/a
544.912	n/a	START	272456	n/a	LTP111	ltpFR	9	n/a	n/a	n/a	n/a	n/a	n/a	n/a	n/a	n/a	n/a	n/a	n/a	n/a	n/a	n/a	n/a
546.418	n/a	PROB	273209	n/a	LTP111	ltpFR	9	n/a	n/a	n/a	n/a	n/a	n/a	n/a	15	2	4	9	n/a	n/a	n/a	n/a	n/a
552.912	n/a	STOP	276456	n/a	LTP111	ltpFR	9	n/a	n/a	n/a	n/a	n/a	n/a	n/a	n/a	n/a	n/a	n/a	n/a	n/a	n/a	n/a	n/a
553.91	n/a	WORD	276955	wordpools/wasnorm_wordpool.txt	LTP111	ltpFR	9	2	0	PUBLISHER	1137	n/a	n/a	0	n/a	0	0	0	0.422607421875	0.5869140625	0	lower	amplitud.ttf
556.916	n/a	START	278458	n/a	LTP111	ltpFR	9	n/a	n/a	n/a	n/a	n/a	n/a	n/a	n/a	n/a	n/a	n/a	n/a	n/a	n/a	n/a	n/a
558.03	n/a	PROB	279015	n/a	LTP111	ltpFR	9	n/a	n/a	n/a	n/a	n/a	n/a	n/a	14	2	8	4	n/a	n/a	n/a	n/a	n/a
564.916	n/a	STOP	282458	n/a	LTP111	ltpFR	9	n/a	n/a	n/a	n/a	n/a	n/a	n/a	n/a	n/a	n/a	n/a	n/a	n/a	n/a	n/a	n/a
565.78	n/a	WORD	282890	wordpools/wasnorm_wordpool.txt	LTP111	ltpFR	9	2	0	GUARD	667	n/a	n/a	0	n/a	0	0	0	0.422607421875	0.5869140625	0	lower	amplitud.ttf
568.784	n/a	START	284392	n/a	LTP111	ltpFR	9	n/a	n/a	n/a	n/a	n/a	n/a	n/a	n/a	n/a	n/a	n/a	n/a	n/a	n/a	n/a	n/a
569.766	n/a	PROB	284883	n/a	LTP111	ltpFR	9	n/a	n/a	n/a	n/a	n/a	n/a	n/a	9	6	1	2	n/a	n/a	n/a	n/a	n/a
573.004	n/a	PROB	286502	n/a	LTP111	ltpFR	9	n/a	n/a	n/a	n/a	n/a	n/a	n/a	17	1	9	7	n/a	n/a	n/a	n/a	n/a
576.784	n/a	STOP	288392	n/a	LTP111	ltpFR	9	n/a	n/a	n/a	n/a	n/a	n/a	n/a	n/a	n/a	n/a	n/a	n/a	n/a	n/a	n/a	n/a
577.748	n/a	WORD	288874	wordpools/wasnorm_wordpool.txt	LTP111	ltpFR	9	2	1	LID	817	n/a	n/a	0	n/a	0	0	0	0.57763671875	0.412841796875	1	upper	zerothre.ttf
580.754	n/a	START	290377	n/a	LTP111	ltpFR	9	n/a	n/a	n/a	n/a	n/a	n/a	n/a	n/a	n/a	n/a	n/a	n/a	n/a	n/a	n/a	n/a
581.586	n/a	PROB	290793	n/a	LTP111	ltpFR	9	n/a	n/a	n/a	n/a	n/a	n/a	n/a	17	2	8	7	n/a	n/a	n/a	n/a	n/a
588.754	n/a	STOP	294377	n/a	LTP111	ltpFR	9	n/a	n/a	n/a	n/a	n/a	n/a	n/a	n/a	n/a	n/a	n/a	n/a	n/a	n/a	n/a	n/a
589.702	n/a	WORD	294851	wordpools/wasnorm_wordpool.txt	LTP111	ltpFR	9	2	1	ARTERY	41	n/a	n/a	1	n/a	0	0	0	0.57763671875	0.412841796875	1	upper	zerothre.ttf
592.708	n/a	START	296354	n/a	LTP111	ltpFR	9	n/a	n/a	n/a	n/a	n/a	n/a	n/a	n/a	n/a	n/a	n/a	n/a	n/a	n/a	n/a	n/a
600.708	n/a	STOP	300354	n/a	LTP111	ltpFR	9	n/a	n/a	n/a	n/a	n/a	n/a	n/a	n/a	n/a	n/a	n/a	n/a	n/a	n/a	n/a	n/a
601.52	n/a	WORD	300760	wordpools/wasnorm_wordpool.txt	LTP111	ltpFR	9	2	0	TRANSPLANT	1496	n/a	n/a	0	n/a	0	0	0	0.422607421875	0.5869140625	0	lower	amplitud.ttf
604.526	n/a	START	302263	n/a	LTP111	ltpFR	9	n/a	n/a	n/a	n/a	n/a	n/a	n/a	n/a	n/a	n/a	n/a	n/a	n/a	n/a	n/a	n/a
605.55	n/a	PROB	302775	n/a	LTP111	ltpFR	9	n/a	n/a	n/a	n/a	n/a	n/a	n/a	20	4	9	7	n/a	n/a	n/a	n/a	n/a
612.07	n/a	STOP	306035	n/a	LTP111	ltpFR	9	n/a	n/a	n/a	n/a	n/a	n/a	n/a	n/a	n/a	n/a	n/a	n/a	n/a	n/a	n/a	n/a
613.54	n/a	WORD	306770	wordpools/wasnorm_wordpool.txt	LTP111	ltpFR	9	2	0	ASSISTANT	48	n/a	n/a	0	n/a	0	0	0	0.422607421875	0.5869140625	0	lower	amplitud.ttf
616.546	n/a	START	308273	n/a	LTP111	ltpFR	9	n/a	n/a	n/a	n/a	n/a	n/a	n/a	n/a	n/a	n/a	n/a	n/a	n/a	n/a	n/a	n/a
617.704	n/a	PROB	308852	n/a	LTP111	ltpFR	9	n/a	n/a	n/a	n/a	n/a	n/a	n/a	22	7	9	6	n/a	n/a	n/a	n/a	n/a
623.526	n/a	STOP	311763	n/a	LTP111	ltpFR	9	n/a	n/a	n/a	n/a	n/a	n/a	n/a	n/a	n/a	n/a	n/a	n/a	n/a	n/a	n/a	n/a
625.41	n/a	WORD	312705	wordpools/wasnorm_wordpool.txt	LTP111	ltpFR	9	2	0	OWNER	993	n/a	n/a	0	n/a	0	0	0	0.422607421875	0.5869140625	0	lower	amplitud.ttf
628.416	n/a	START	314208	n/a	LTP111	ltpFR	9	n/a	n/a	n/a	n/a	n/a	n/a	n/a	n/a	n/a	n/a	n/a	n/a	n/a	n/a	n/a	n/a
629.514	n/a	PROB	314757	n/a	LTP111	ltpFR	9	n/a	n/a	n/a	n/a	n/a	n/a	n/a	13	3	6	4	n/a	n/a	n/a	n/a	n/a
633.718	n/a	PROB	316859	n/a	LTP111	ltpFR	9	n/a	n/a	n/a	n/a	n/a	n/a	n/a	17	2	9	6	n/a	n/a	n/a	n/a	n/a
636.366	n/a	STOP	318183	n/a	LTP111	ltpFR	9	n/a	n/a	n/a	n/a	n/a	n/a	n/a	n/a	n/a	n/a	n/a	n/a	n/a	n/a	n/a	n/a
637.462	n/a	WORD	318731	wordpools/wasnorm_wordpool.txt	LTP111	ltpFR	9	2	0	BULLETIN	195	n/a	n/a	0	n/a	0	0	0	0.422607421875	0.5869140625	0	lower	amplitud.ttf
640.468	n/a	START	320234	n/a	LTP111	ltpFR	9	n/a	n/a	n/a	n/a	n/a	n/a	n/a	n/a	n/a	n/a	n/a	n/a	n/a	n/a	n/a	n/a
641.524	n/a	PROB	320762	n/a	LTP111	ltpFR	9	n/a	n/a	n/a	n/a	n/a	n/a	n/a	16	8	7	1	n/a	n/a	n/a	n/a	n/a
644.738	n/a	PROB	322369	n/a	LTP111	ltpFR	9	n/a	n/a	n/a	n/a	n/a	n/a	n/a	16	7	3	6	n/a	n/a	n/a	n/a	n/a
647.656	n/a	STOP	323828	n/a	LTP111	ltpFR	9	n/a	n/a	n/a	n/a	n/a	n/a	n/a	n/a	n/a	n/a	n/a	n/a	n/a	n/a	n/a	n/a
649.666	n/a	WORD	324833	wordpools/wasnorm_wordpool.txt	LTP111	ltpFR	9	2	1	DISC	473	n/a	n/a	0	n/a	0	0	0	0.57763671875	0.412841796875	1	upper	zerothre.ttf
652.672	n/a	START	326336	n/a	LTP111	ltpFR	9	n/a	n/a	n/a	n/a	n/a	n/a	n/a	n/a	n/a	n/a	n/a	n/a	n/a	n/a	n/a	n/a
653.628	n/a	PROB	326814	n/a	LTP111	ltpFR	9	n/a	n/a	n/a	n/a	n/a	n/a	n/a	16	9	5	2	n/a	n/a	n/a	n/a	n/a
660.672	n/a	STOP	330336	n/a	LTP111	ltpFR	9	n/a	n/a	n/a	n/a	n/a	n/a	n/a	n/a	n/a	n/a	n/a	n/a	n/a	n/a	n/a	n/a
661.794	n/a	WORD	330897	wordpools/wasnorm_wordpool.txt	LTP111	ltpFR	9	2	1	PRINTER	1126	n/a	n/a	n/a	n/a	0	0	0	0.57763671875	0.412841796875	1	upper	zerothre.ttf
664.816	n/a	SLOW_MSG	332408	n/a	LTP111	ltpFR	9	2	n/a	n/a	n/a	n/a	n/a	n/a	n/a	0	0	0	n/a	n/a	n/a	n/a	n/a
666.33	n/a	START	333165	n/a	LTP111	ltpFR	9	n/a	n/a	n/a	n/a	n/a	n/a	n/a	n/a	n/a	n/a	n/a	n/a	n/a	n/a	n/a	n/a
667.32	n/a	PROB	333660	n/a	LTP111	ltpFR	9	n/a	n/a	n/a	n/a	n/a	n/a	n/a	15	4	3	8	n/a	n/a	n/a	n/a	n/a
674.33	n/a	STOP	337165	n/a	LTP111	ltpFR	9	n/a	n/a	n/a	n/a	n/a	n/a	n/a	n/a	n/a	n/a	n/a	n/a	n/a	n/a	n/a	n/a
675.228	n/a	WORD	337614	wordpools/wasnorm_wordpool.txt	LTP111	ltpFR	9	2	1	DANDRUFF	439	n/a	n/a	0	n/a	0	0	0	0.57763671875	0.412841796875	1	upper	zerothre.ttf
678.232	n/a	START	339116	n/a	LTP111	ltpFR	9	n/a	n/a	n/a	n/a	n/a	n/a	n/a	n/a	n/a	n/a	n/a	n/a	n/a	n/a	n/a	n/a
679.406	n/a	PROB	339703	n/a	LTP111	ltpFR	9	n/a	n/a	n/a	n/a	n/a	n/a	n/a	18	7	9	2	n/a	n/a	n/a	n/a	n/a
686.232	n/a	STOP	343116	n/a	LTP111	ltpFR	9	n/a	n/a	n/a	n/a	n/a	n/a	n/a	n/a	n/a	n/a	n/a	n/a	n/a	n/a	n/a	n/a
687.23	n/a	WORD	343615	wordpools/wasnorm_wordpool.txt	LTP111	ltpFR	9	2	1	CLIPPERS	324	n/a	n/a	0	n/a	0	0	0	0.57763671875	0.412841796875	1	upper	zerothre.ttf
690.236	n/a	START	345118	n/a	LTP111	ltpFR	9	n/a	n/a	n/a	n/a	n/a	n/a	n/a	n/a	n/a	n/a	n/a	n/a	n/a	n/a	n/a	n/a
691.06	n/a	PROB	345530	n/a	LTP111	ltpFR	9	n/a	n/a	n/a	n/a	n/a	n/a	n/a	9	6	1	2	n/a	n/a	n/a	n/a	n/a
693.8	n/a	PROB	346900	n/a	LTP111	ltpFR	9	n/a	n/a	n/a	n/a	n/a	n/a	n/a	13	2	4	7	n/a	n/a	n/a	n/a	n/a
697.752	n/a	STOP	348876	n/a	LTP111	ltpFR	9	n/a	n/a	n/a	n/a	n/a	n/a	n/a	n/a	n/a	n/a	n/a	n/a	n/a	n/a	n/a	n/a
699.108	n/a	WORD	349554	wordpools/wasnorm_wordpool.txt	LTP111	ltpFR	9	2	1	STAKE	1368	n/a	n/a	0	n/a	0	0	0	0.57763671875	0.412841796875	1	upper	zerothre.ttf
702.114	n/a	START	351057	n/a	LTP111	ltpFR	9	n/a	n/a	n/a	n/a	n/a	n/a	n/a	n/a	n/a	n/a	n/a	n/a	n/a	n/a	n/a	n/a
703.162	n/a	PROB	351581	n/a	LTP111	ltpFR	9	n/a	n/a	n/a	n/a	n/a	n/a	n/a	13	8	2	3	n/a	n/a	n/a	n/a	n/a
707.8	n/a	PROB	353900	n/a	LTP111	ltpFR	9	n/a	n/a	n/a	n/a	n/a	n/a	n/a	12	1	2	9	n/a	n/a	n/a	n/a	n/a
709.44	n/a	STOP	354720	n/a	LTP111	ltpFR	9	n/a	n/a	n/a	n/a	n/a	n/a	n/a	n/a	n/a	n/a	n/a	n/a	n/a	n/a	n/a	n/a
711.236	n/a	WORD	355618	wordpools/wasnorm_wordpool.txt	LTP111	ltpFR	9	2	1	SHERIFF	1284	n/a	n/a	0	n/a	0	0	0	0.57763671875	0.412841796875	1	upper	zerothre.ttf
714.242	n/a	START	357121	n/a	LTP111	ltpFR	9	n/a	n/a	n/a	n/a	n/a	n/a	n/a	n/a	n/a	n/a	n/a	n/a	n/a	n/a	n/a	n/a
715.216	n/a	PROB	357608	n/a	LTP111	ltpFR	9	n/a	n/a	n/a	n/a	n/a	n/a	n/a	16	4	4	8	n/a	n/a	n/a	n/a	n/a
718.154	n/a	PROB	359077	n/a	LTP111	ltpFR	9	n/a	n/a	n/a	n/a	n/a	n/a	n/a	20	6	8	6	n/a	n/a	n/a	n/a	n/a
721.672	n/a	STOP	360836	n/a	LTP111	ltpFR	9	n/a	n/a	n/a	n/a	n/a	n/a	n/a	n/a	n/a	n/a	n/a	n/a	n/a	n/a	n/a	n/a
723.29	n/a	WORD	361645	wordpools/wasnorm_wordpool.txt	LTP111	ltpFR	9	2	0	CLERK	321	n/a	n/a	0	n/a	0	0	0	0.422607421875	0.5869140625	0	lower	amplitud.ttf
726.294	n/a	START	363147	n/a	LTP111	ltpFR	9	n/a	n/a	n/a	n/a	n/a	n/a	n/a	n/a	n/a	n/a	n/a	n/a	n/a	n/a	n/a	n/a
727.168	n/a	PROB	363584	n/a	LTP111	ltpFR	9	n/a	n/a	n/a	n/a	n/a	n/a	n/a	11	6	3	2	n/a	n/a	n/a	n/a	n/a
734.294	n/a	STOP	367147	n/a	LTP111	ltpFR	9	n/a	n/a	n/a	n/a	n/a	n/a	n/a	n/a	n/a	n/a	n/a	n/a	n/a	n/a	n/a	n/a
735.218	n/a	WORD	367609	wordpools/wasnorm_wordpool.txt	LTP111	ltpFR	9	2	0	ENCYCLOPEDIA	533	n/a	n/a	1	n/a	0	0	0	0.422607421875	0.5869140625	0	lower	amplitud.ttf
738.222	n/a	START	369111	n/a	LTP111	ltpFR	9	n/a	n/a	n/a	n/a	n/a	n/a	n/a	n/a	n/a	n/a	n/a	n/a	n/a	n/a	n/a	n/a
739.328	n/a	PROB	369664	n/a	LTP111	ltpFR	9	n/a	n/a	n/a	n/a	n/a	n/a	n/a	17	9	3	5	n/a	n/a	n/a	n/a	n/a
746.222	n/a	STOP	373111	n/a	LTP111	ltpFR	9	n/a	n/a	n/a	n/a	n/a	n/a	n/a	n/a	n/a	n/a	n/a	n/a	n/a	n/a	n/a	n/a
748.11	n/a	REC_START	374055	n/a	LTP111	ltpFR	9	2	n/a	n/a	n/a	n/a	n/a	n/a	n/a	0	0	0	n/a	n/a	n/a	n/a	n/a
751.238	n/a	REC_WORD	375619	wordpools/wasnorm_wordpool.txt	LTP111	ltpFR	9	2	0	ENCYCLOPEDIA	533	n/a	n/a	1	n/a	0	0	0	n/a	n/a	n/a	n/a	n/a
758.65	n/a	REC_WORD	379325	wordpools/wasnorm_wordpool.txt	LTP111	ltpFR	9	2	1	STAKE	1368	n/a	n/a	0	n/a	0	0	0	n/a	n/a	n/a	n/a	n/a
767.876	n/a	REC_WORD	383938	wordpools/wasnorm_wordpool.txt	LTP111	ltpFR	9	2	0	PUBLISHER	1137	n/a	n/a	0	n/a	0	0	0	n/a	n/a	n/a	n/a	n/a
772.352	n/a	REC_WORD	386176	wordpools/wasnorm_wordpool.txt	LTP111	ltpFR	9	2	0	GUARD	667	n/a	n/a	0	n/a	0	0	0	n/a	n/a	n/a	n/a	n/a
828.476	n/a	WORD	414238	wordpools/wasnorm_wordpool.txt	LTP111	ltpFR	9	3	1	CUE	422	n/a	n/a	0	n/a	0	0	0	0.57763671875	0.412841796875	1	upper	zerothre.ttf
832.64	n/a	WORD	416320	wordpools/wasnorm_wordpool.txt	LTP111	ltpFR	9	3	1	TUBE	1516	n/a	n/a	0	n/a	0	0	0	0.57763671875	0.412841796875	1	upper	zerothre.ttf
836.468	n/a	WORD	418234	wordpools/wasnorm_wordpool.txt	LTP111	ltpFR	9	3	1	BANQUET	86	n/a	n/a	0	n/a	0	0	0	0.57763671875	0.412841796875	1	upper	zerothre.ttf
840.42	n/a	WORD	420210	wordpools/wasnorm_wordpool.txt	LTP111	ltpFR	9	3	1	SUPPER	1411	n/a	n/a	0	n/a	0	0	0	0.57763671875	0.412841796875	1	upper	zerothre.ttf
844.584	n/a	WORD	422292	wordpools/wasnorm_wordpool.txt	LTP111	ltpFR	9	3	0	DIRECTOR	471	n/a	n/a	0	n/a	0	0	0	0.422607421875	0.5869140625	0	lower	amplitud.ttf
848.762	n/a	WORD	424381	wordpools/wasnorm_wordpool.txt	LTP111	ltpFR	9	3	0	CARDINAL	244	n/a	n/a	0	n/a	0	0	0	0.422607421875	0.5869140625	0	lower	amplitud.ttf
852.834	n/a	WORD	426417	wordpools/wasnorm_wordpool.txt	LTP111	ltpFR	9	3	0	LIZARD	834	n/a	n/a	0	n/a	0	0	0	0.422607421875	0.5869140625	0	lower	amplitud.ttf
856.762	n/a	WORD	428381	wordpools/wasnorm_wordpool.txt	LTP111	ltpFR	9	3	0	WALL	1582	n/a	n/a	1	n/a	0	0	0	0.422607421875	0.5869140625	0	lower	amplitud.ttf
860.782	n/a	WORD	430391	wordpools/wasnorm_wordpool.txt	LTP111	ltpFR	9	3	1	WINE	1613	n/a	n/a	0	n/a	0	0	0	0.57763671875	0.412841796875	1	upper	zerothre.ttf
864.87	n/a	WORD	432435	wordpools/wasnorm_wordpool.txt	LTP111	ltpFR	9	3	1	SHAMPOO	1274	n/a	n/a	0	n/a	0	0	0	0.57763671875	0.412841796875	1	upper	zerothre.ttf
868.806	n/a	WORD	434403	wordpools/wasnorm_wordpool.txt	LTP111	ltpFR	9	3	1	HORSE	719	n/a	n/a	1	n/a	0	0	0	0.57763671875	0.412841796875	1	upper	zerothre.ttf
872.668	n/a	WORD	436334	wordpools/wasnorm_wordpool.txt	LTP111	ltpFR	9	3	1	BEAVER	109	n/a	n/a	1	n/a	0	0	0	0.57763671875	0.412841796875	1	upper	zerothre.ttf
876.672	n/a	WORD	438336	wordpools/wasnorm_wordpool.txt	LTP111	ltpFR	9	3	0	CAGE	218	n/a	n/a	0	n/a	0	0	0	0.422607421875	0.5869140625	0	lower	amplitud.ttf
880.584	n/a	WORD	440292	wordpools/wasnorm_wordpool.txt	LTP111	ltpFR	9	3	0	COLT	349	n/a	n/a	0	n/a	0	0	0	0.422607421875	0.5869140625	0	lower	amplitud.ttf
884.588	n/a	WORD	442294	wordpools/wasnorm_wordpool.txt	LTP111	ltpFR	9	3	0	FURNITURE	616	n/a	n/a	1	n/a	0	0	0	0.422607421875	0.5869140625	0	lower	amplitud.ttf
888.776	n/a	WORD	444388	wordpools/wasnorm_wordpool.txt	LTP111	ltpFR	9	3	0	COCKTAIL	338	n/a	n/a	0	n/a	0	0	0	0.422607421875	0.5869140625	0	lower	amplitud.ttf
894.636	n/a	REC_START	447318	n/a	LTP111	ltpFR	9	3	n/a	n/a	n/a	n/a	n/a	n/a	n/a	0	0	0	n/a	n/a	n/a	n/a	n/a
897.044	n/a	REC_WORD	448522	wordpools/wasnorm_wordpool.txt	LTP111	ltpFR	9	3	0	COCKTAIL	338	n/a	n/a	0	n/a	0	0	0	n/a	n/a	n/a	n/a	n/a
901.296	n/a	REC_WORD	450648	wordpools/wasnorm_wordpool.txt	LTP111	ltpFR	9	3	0	DIRECTOR	471	n/a	n/a	0	n/a	0	0	0	n/a	n/a	n/a	n/a	n/a
903.7	n/a	REC_WORD	451850	wordpools/wasnorm_wordpool.txt	LTP111	ltpFR	9	3	1	CUE	422	n/a	n/a	0	n/a	0	0	0	n/a	n/a	n/a	n/a	n/a
905.74	n/a	REC_WORD	452870	wordpools/wasnorm_wordpool.txt	LTP111	ltpFR	9	3	1	BANQUET	86	n/a	n/a	0	n/a	0	0	0	n/a	n/a	n/a	n/a	n/a
907.152	n/a	REC_WORD	453576	wordpools/wasnorm_wordpool.txt	LTP111	ltpFR	9	3	1	SUPPER	1411	n/a	n/a	0	n/a	0	0	0	n/a	n/a	n/a	n/a	n/a
909.008	n/a	REC_WORD	454504	wordpools/wasnorm_wordpool.txt	LTP111	ltpFR	9	3	1	TUBE	1516	n/a	n/a	0	n/a	0	0	0	n/a	n/a	n/a	n/a	n/a
909.94	n/a	REC_WORD	454970	wordpools/wasnorm_wordpool.txt	LTP111	ltpFR	9	3	0	CARDINAL	244	n/a	n/a	0	n/a	0	0	0	n/a	n/a	n/a	n/a	n/a
912.19	n/a	REC_WORD	456095	wordpools/wasnorm_wordpool.txt	LTP111	ltpFR	9	3	0	LIZARD	834	n/a	n/a	0	n/a	0	0	0	n/a	n/a	n/a	n/a	n/a
916.306	n/a	REC_WORD	458153	wordpools/wasnorm_wordpool.txt	LTP111	ltpFR	9	3	0	WALL	1582	n/a	n/a	1	n/a	0	0	0	n/a	n/a	n/a	n/a	n/a
919.508	n/a	REC_WORD	459754	wordpools/wasnorm_wordpool.txt	LTP111	ltpFR	9	3	0	FURNITURE	616	n/a	n/a	1	n/a	0	0	0	n/a	n/a	n/a	n/a	n/a
924.078	n/a	REC_WORD	462039	wordpools/wasnorm_wordpool.txt	LTP111	ltpFR	9	3	1	HORSE	719	n/a	n/a	1	n/a	0	0	0	n/a	n/a	n/a	n/a	n/a
927.026	n/a	REC_WORD	463513	wordpools/wasnorm_wordpool.txt	LTP111	ltpFR	9	3	0	COLT	349	n/a	n/a	0	n/a	0	0	0	n/a	n/a	n/a	n/a	n/a
932.66	n/a	REC_WORD	466330	wordpools/wasnorm_wordpool.txt	LTP111	ltpFR	9	3	1	BEAVER	109	n/a	n/a	1	n/a	0	0	0	n/a	n/a	n/a	n/a	n/a
978.064	n/a	WORD	489032	wordpools/wasnorm_wordpool.txt	LTP111	ltpFR	9	4	1	GRASS	655	n/a	n/a	1	n/a	0	0	0	0.57763671875	0.412841796875	1	upper	zerothre.ttf
982.108	n/a	WORD	491054	wordpools/wasnorm_wordpool.txt	LTP111	ltpFR	9	4	1	VALLEY	1545	n/a	n/a	1	n/a	0	0	0	0.57763671875	0.412841796875	1	upper	zerothre.ttf
985.972	n/a	WORD	492986	wordpools/wasnorm_wordpool.txt	LTP111	ltpFR	9	4	1	PIZZA	1079	n/a	n/a	0	n/a	0	0	0	0.57763671875	0.412841796875	1	upper	zerothre.ttf
990.14	n/a	WORD	495070	wordpools/wasnorm_wordpool.txt	LTP111	ltpFR	9	4	1	YOLK	1633	n/a	n/a	0	n/a	0	0	0	0.57763671875	0.412841796875	1	upper	zerothre.ttf
994.336	n/a	WORD	497168	wordpools/wasnorm_wordpool.txt	LTP111	ltpFR	9	4	1	COOK	372	n/a	n/a	0	n/a	0	0	0	0.57763671875	0.412841796875	1	upper	zerothre.ttf
998.298	n/a	WORD	499149	wordpools/wasnorm_wordpool.txt	LTP111	ltpFR	9	4	1	STOVE	1388	n/a	n/a	0	n/a	0	0	0	0.57763671875	0.412841796875	1	upper	zerothre.ttf
1002.236	n/a	WORD	501118	wordpools/wasnorm_wordpool.txt	LTP111	ltpFR	9	4	1	DAM	436	n/a	n/a	1	n/a	0	0	0	0.57763671875	0.412841796875	1	upper	zerothre.ttf
1006.064	n/a	WORD	503032	wordpools/wasnorm_wordpool.txt	LTP111	ltpFR	9	4	1	SALMON	1227	n/a	n/a	0	n/a	0	0	0	0.57763671875	0.412841796875	1	upper	zerothre.ttf
1010.202	n/a	WORD	505101	wordpools/wasnorm_wordpool.txt	LTP111	ltpFR	9	4	1	BAKER	71	n/a	n/a	1	n/a	0	0	0	0.57763671875	0.412841796875	1	upper	zerothre.ttf
1014.206	n/a	WORD	507103	wordpools/wasnorm_wordpool.txt	LTP111	ltpFR	9	4	1	PRESIDENT	1121	n/a	n/a	1	n/a	0	0	0	0.57763671875	0.412841796875	1	upper	zerothre.ttf
1018.092	n/a	WORD	509046	wordpools/wasnorm_wordpool.txt	LTP111	ltpFR	9	4	1	FLASK	576	n/a	n/a	0	n/a	0	0	0	0.57763671875	0.412841796875	1	upper	zerothre.ttf
1022.104	n/a	WORD	511052	wordpools/wasnorm_wordpool.txt	LTP111	ltpFR	9	4	1	DRINK	498	n/a	n/a	0	n/a	0	0	0	0.57763671875	0.412841796875	1	upper	zerothre.ttf
1026.084	n/a	WORD	513042	wordpools/wasnorm_wordpool.txt	LTP111	ltpFR	9	4	1	GRATE	657	n/a	n/a	0	n/a	0	0	0	0.57763671875	0.412841796875	1	upper	zerothre.ttf
1030.136	n/a	WORD	515068	wordpools/wasnorm_wordpool.txt	LTP111	ltpFR	9	4	1	SKILLET	1317	n/a	n/a	0	n/a	0	0	0	0.57763671875	0.412841796875	1	upper	zerothre.ttf
1033.966	n/a	WORD	516983	wordpools/wasnorm_wordpool.txt	LTP111	ltpFR	9	4	1	MACARONI	851	n/a	n/a	0	n/a	0	0	0	0.57763671875	0.412841796875	1	upper	zerothre.ttf
1038.094	n/a	WORD	519047	wordpools/wasnorm_wordpool.txt	LTP111	ltpFR	9	4	1	SCALLOP	1242	n/a	n/a	0	n/a	0	0	0	0.57763671875	0.412841796875	1	upper	zerothre.ttf
1041.1	n/a	START	520550	n/a	LTP111	ltpFR	9	n/a	n/a	n/a	n/a	n/a	n/a	n/a	n/a	n/a	n/a	n/a	n/a	n/a	n/a	n/a	n/a
1042.0	n/a	PROB	521000	n/a	LTP111	ltpFR	9	n/a	n/a	n/a	n/a	n/a	n/a	n/a	10	7	2	1	n/a	n/a	n/a	n/a	n/a
1045.928	n/a	PROB	522964	n/a	LTP111	ltpFR	9	n/a	n/a	n/a	n/a	n/a	n/a	n/a	21	3	9	9	n/a	n/a	n/a	n/a	n/a
1048.274	n/a	PROB	524137	n/a	LTP111	ltpFR	9	n/a	n/a	n/a	n/a	n/a	n/a	n/a	23	8	8	7	n/a	n/a	n/a	n/a	n/a
1052.086	n/a	PROB	526043	n/a	LTP111	ltpFR	9	n/a	n/a	n/a	n/a	n/a	n/a	n/a	20	9	5	6	n/a	n/a	n/a	n/a	n/a
1054.384	n/a	PROB	527192	n/a	LTP111	ltpFR	9	n/a	n/a	n/a	n/a	n/a	n/a	n/a	12	1	2	9	n/a	n/a	n/a	n/a	n/a
1055.884	n/a	STOP	527942	n/a	LTP111	ltpFR	9	n/a	n/a	n/a	n/a	n/a	n/a	n/a	n/a	n/a	n/a	n/a	n/a	n/a	n/a	n/a	n/a
1058.846	n/a	REC_START	529423	n/a	LTP111	ltpFR	9	4	n/a	n/a	n/a	n/a	n/a	n/a	n/a	0	0	0	n/a	n/a	n/a	n/a	n/a
1060.772	n/a	REC_WORD	530386	wordpools/wasnorm_wordpool.txt	LTP111	ltpFR	9	4	1	GRASS	655	n/a	n/a	1	n/a	0	0	0	n/a	n/a	n/a	n/a	n/a
1062.498	n/a	REC_WORD	531249	wordpools/wasnorm_wordpool.txt	LTP111	ltpFR	9	4	1	VALLEY	1545	n/a	n/a	1	n/a	0	0	0	n/a	n/a	n/a	n/a	n/a
1066.23	n/a	REC_WORD	533115	wordpools/wasnorm_wordpool.txt	LTP111	ltpFR	9	4	1	PIZZA	1079	n/a	n/a	0	n/a	0	0	0	n/a	n/a	n/a	n/a	n/a
1067.446	n/a	REC_WORD	533723	wordpools/wasnorm_wordpool.txt	LTP111	ltpFR	9	4	1	YOLK	1633	n/a	n/a	0	n/a	0	0	0	n/a	n/a	n/a	n/a	n/a
1069.412	n/a	REC_WORD	534706	wordpools/wasnorm_wordpool.txt	LTP111	ltpFR	9	4	1	DRINK	498	n/a	n/a	0	n/a	0	0	0	n/a	n/a	n/a	n/a	n/a
1072.31	n/a	REC_WORD	536155	wordpools/wasnorm_wordpool.txt	LTP111	ltpFR	9	4	1	GRATE	657	n/a	n/a	0	n/a	0	0	0	n/a	n/a	n/a	n/a	n/a
1074.5	n/a	REC_WORD	537250	wordpools/wasnorm_wordpool.txt	LTP111	ltpFR	9	4	1	SALMON	1227	n/a	n/a	0	n/a	0	0	0	n/a	n/a	n/a	n/a	n/a
1077.544	n/a	REC_WORD	538772	wordpools/wasnorm_wordpool.txt	LTP111	ltpFR	9	4	1	SCALLOP	1242	n/a	n/a	0	n/a	0	0	0	n/a	n/a	n/a	n/a	n/a
1078.516	n/a	REC_WORD	539258	wordpools/wasnorm_wordpool.txt	LTP111	ltpFR	9	4	1	MACARONI	851	n/a	n/a	0	n/a	0	0	0	n/a	n/a	n/a	n/a	n/a
1084.568	n/a	REC_WORD	542284	wordpools/wasnorm_wordpool.txt	LTP111	ltpFR	9	4	1	DAM	436	n/a	n/a	1	n/a	0	0	0	n/a	n/a	n/a	n/a	n/a
1093.464	n/a	REC_WORD	546732	wordpools/wasnorm_wordpool.txt	LTP111	ltpFR	9	4	1	PRESIDENT	1121	n/a	n/a	1	n/a	0	0	0	n/a	n/a	n/a	n/a	n/a
1094.216	n/a	REC_WORD	547108	wordpools/wasnorm_wordpool.txt	LTP111	ltpFR	9	4	1	FLASK	576	n/a	n/a	0	n/a	0	0	0	n/a	n/a	n/a	n/a	n/a
1099.34	n/a	REC_WORD	549670	wordpools/wasnorm_wordpool.txt	LTP111	ltpFR	9	4	1	COOK	372	n/a	n/a	0	n/a	0	0	0	n/a	n/a	n/a	n/a	n/a
1099.714	n/a	REC_WORD	549857	wordpools/wasnorm_wordpool.txt	LTP111	ltpFR	9	4	1	SKILLET	1317	n/a	n/a	0	n/a	0	0	0	n/a	n/a	n/a	n/a	n/a
1100.612	n/a	REC_WORD	550306	wordpools/wasnorm_wordpool.txt	LTP111	ltpFR	9	4	1	BAKER	71	n/a	n/a	1	n/a	0	0	0	n/a	n/a	n/a	n/a	n/a
1140.86	n/a	WORD	570430	wordpools/wasnorm_wordpool.txt	LTP111	ltpFR	9	5	1	PAPER	1011	n/a	n/a	0	n/a	0	0	0	0.57763671875	0.412841796875	1	upper	zerothre.ttf
1144.94	n/a	WORD	572470	wordpools/wasnorm_wordpool.txt	LTP111	ltpFR	9	5	1	TABLET	1427	n/a	n/a	0	n/a	0	0	0	0.57763671875	0.412841796875	1	upper	zerothre.ttf
1148.776	n/a	WORD	574388	wordpools/wasnorm_wordpool.txt	LTP111	ltpFR	9	5	1	JUPITER	765	n/a	n/a	0	n/a	0	0	0	0.57763671875	0.412841796875	1	upper	zerothre.ttf
1152.954	n/a	WORD	576477	wordpools/wasnorm_wordpool.txt	LTP111	ltpFR	9	5	0	PLUTO	1092	n/a	n/a	1	n/a	0	0	0	0.422607421875	0.5869140625	0	lower	amplitud.ttf
1156.866	n/a	WORD	578433	wordpools/wasnorm_wordpool.txt	LTP111	ltpFR	9	5	0	PATRIOT	1026	n/a	n/a	0	n/a	0	0	0	0.422607421875	0.5869140625	0	lower	amplitud.ttf
1160.896	n/a	WORD	580448	wordpools/wasnorm_wordpool.txt	LTP111	ltpFR	9	5	0	COLONEL	348	n/a	n/a	0	n/a	0	0	0	0.422607421875	0.5869140625	0	lower	amplitud.ttf
1164.776	n/a	WORD	582388	wordpools/wasnorm_wordpool.txt	LTP111	ltpFR	9	5	0	BAG	69	n/a	n/a	0	n/a	0	0	0	0.422607421875	0.5869140625	0	lower	amplitud.ttf
1168.87	n/a	WORD	584435	wordpools/wasnorm_wordpool.txt	LTP111	ltpFR	9	5	0	MOLECULE	905	n/a	n/a	0	n/a	0	0	0	0.422607421875	0.5869140625	0	lower	amplitud.ttf
1172.924	n/a	WORD	586462	wordpools/wasnorm_wordpool.txt	LTP111	ltpFR	9	5	0	SAND	1230	n/a	n/a	0	n/a	0	0	0	0.422607421875	0.5869140625	0	lower	amplitud.ttf
1176.97	n/a	WORD	588485	wordpools/wasnorm_wordpool.txt	LTP111	ltpFR	9	5	1	PARROT	1015	n/a	n/a	0	n/a	0	0	0	0.57763671875	0.412841796875	1	upper	zerothre.ttf
1180.824	n/a	WORD	590412	wordpools/wasnorm_wordpool.txt	LTP111	ltpFR	9	5	1	POPCORN	1104	n/a	n/a	0	n/a	0	0	0	0.57763671875	0.412841796875	1	upper	zerothre.ttf
1184.902	n/a	WORD	592451	wordpools/wasnorm_wordpool.txt	LTP111	ltpFR	9	5	1	ROAD	1196	n/a	n/a	0	n/a	0	0	0	0.57763671875	0.412841796875	1	upper	zerothre.ttf
1188.74	n/a	WORD	594370	wordpools/wasnorm_wordpool.txt	LTP111	ltpFR	9	5	1	DUST	508	n/a	n/a	0	n/a	0	0	0	0.57763671875	0.412841796875	1	upper	zerothre.ttf
1192.626	n/a	WORD	596313	wordpools/wasnorm_wordpool.txt	LTP111	ltpFR	9	5	1	BLUEJAY	141	n/a	n/a	1	n/a	0	0	0	0.57763671875	0.412841796875	1	upper	zerothre.ttf
1196.564	n/a	WORD	598282	wordpools/wasnorm_wordpool.txt	LTP111	ltpFR	9	5	0	CHEMIST	292	n/a	n/a	0	n/a	0	0	0	0.422607421875	0.5869140625	0	lower	amplitud.ttf
1200.492	n/a	WORD	600246	wordpools/wasnorm_wordpool.txt	LTP111	ltpFR	9	5	0	ALMANAC	17	n/a	n/a	0	n/a	0	0	0	0.422607421875	0.5869140625	0	lower	amplitud.ttf
1203.496	n/a	START	601748	n/a	LTP111	ltpFR	9	n/a	n/a	n/a	n/a	n/a	n/a	n/a	n/a	n/a	n/a	n/a	n/a	n/a	n/a	n/a	n/a
1204.312	n/a	PROB	602156	n/a	LTP111	ltpFR	9	n/a	n/a	n/a	n/a	n/a	n/a	n/a	23	7	9	5	n/a	n/a	n/a	n/a	n/a
1210.318	n/a	STOP	605159	n/a	LTP111	ltpFR	9	n/a	n/a	n/a	n/a	n/a	n/a	n/a	n/a	n/a	n/a	n/a	n/a	n/a	n/a	n/a	n/a
1213.252	n/a	REC_START	606626	n/a	LTP111	ltpFR	9	5	n/a	n/a	n/a	n/a	n/a	n/a	n/a	0	0	0	n/a	n/a	n/a	n/a	n/a
1216.4	n/a	REC_WORD	608200	wordpools/wasnorm_wordpool.txt	LTP111	ltpFR	9	5	1	TABLET	1427	n/a	n/a	0	n/a	0	0	0	n/a	n/a	n/a	n/a	n/a
1217.472	n/a	REC_WORD	608736	wordpools/wasnorm_wordpool.txt	LTP111	ltpFR	9	5	1	PAPER	1011	n/a	n/a	0	n/a	0	0	0	n/a	n/a	n/a	n/a	n/a
1220.33	n/a	REC_WORD	610165	wordpools/wasnorm_wordpool.txt	LTP111	ltpFR	9	5	n/a	SATURN	1236	n/a	n/a	n/a	n/a	0	0	0	n/a	n/a	n/a	n/a	n/a
1220.892	n/a	REC_WORD	610446	wordpools/wasnorm_wordpool.txt	LTP111	ltpFR	9	5	1	JUPITER	765	n/a	n/a	0	n/a	0	0	0	n/a	n/a	n/a	n/a	n/a
1221.472	n/a	REC_WORD	610736	wordpools/wasnorm_wordpool.txt	LTP111	ltpFR	9	5	0	COLONEL	348	n/a	n/a	0	n/a	0	0	0	n/a	n/a	n/a	n/a	n/a
1222.226	n/a	REC_WORD	611113	wordpools/wasnorm_wordpool.txt	LTP111	ltpFR	9	5	0	PATRIOT	1026	n/a	n/a	0	n/a	0	0	0	n/a	n/a	n/a	n/a	n/a
1225.07	n/a	REC_WORD	612535	wordpools/wasnorm_wordpool.txt	LTP111	ltpFR	9	5	0	MOLECULE	905	n/a	n/a	0	n/a	0	0	0	n/a	n/a	n/a	n/a	n/a
1225.912	n/a	REC_WORD	612956	wordpools/wasnorm_wordpool.txt	LTP111	ltpFR	9	5	1	POPCORN	1104	n/a	n/a	0	n/a	0	0	0	n/a	n/a	n/a	n/a	n/a
1228.052	n/a	REC_WORD	614026	wordpools/wasnorm_wordpool.txt	LTP111	ltpFR	9	5	0	BAG	69	n/a	n/a	0	n/a	0	0	0	n/a	n/a	n/a	n/a	n/a
1230.746	n/a	REC_WORD	615373	wordpools/wasnorm_wordpool.txt	LTP111	ltpFR	9	5	1	ROAD	1196	n/a	n/a	0	n/a	0	0	0	n/a	n/a	n/a	n/a	n/a
1233.096	n/a	REC_WORD	616548	wordpools/wasnorm_wordpool.txt	LTP111	ltpFR	9	5	0	CHEMIST	292	n/a	n/a	0	n/a	0	0	0	n/a	n/a	n/a	n/a	n/a
1233.96	n/a	REC_WORD	616980	wordpools/wasnorm_wordpool.txt	LTP111	ltpFR	9	5	0	ALMANAC	17	n/a	n/a	0	n/a	0	0	0	n/a	n/a	n/a	n/a	n/a
1236.558	n/a	REC_WORD	618279	wordpools/wasnorm_wordpool.txt	LTP111	ltpFR	9	5	1	BLUEJAY	141	n/a	n/a	1	n/a	0	0	0	n/a	n/a	n/a	n/a	n/a
1293.968	n/a	START	646984	n/a	LTP111	ltpFR	9	n/a	n/a	n/a	n/a	n/a	n/a	n/a	n/a	n/a	n/a	n/a	n/a	n/a	n/a	n/a	n/a
1295.474	n/a	PROB	647737	n/a	LTP111	ltpFR	9	n/a	n/a	n/a	n/a	n/a	n/a	n/a	12	5	5	2	n/a	n/a	n/a	n/a	n/a
1298.362	n/a	PROB	649181	n/a	LTP111	ltpFR	9	n/a	n/a	n/a	n/a	n/a	n/a	n/a	14	7	3	4	n/a	n/a	n/a	n/a	n/a
1300.848	n/a	STOP	650424	n/a	LTP111	ltpFR	9	n/a	n/a	n/a	n/a	n/a	n/a	n/a	n/a	n/a	n/a	n/a	n/a	n/a	n/a	n/a	n/a
1303.032	n/a	WORD	651516	wordpools/wasnorm_wordpool.txt	LTP111	ltpFR	9	6	0	GODDESS	646	n/a	n/a	0	n/a	0	0	0	0.422607421875	0.5869140625	0	lower	amplitud.ttf
1306.038	n/a	START	653019	n/a	LTP111	ltpFR	9	n/a	n/a	n/a	n/a	n/a	n/a	n/a	n/a	n/a	n/a	n/a	n/a	n/a	n/a	n/a	n/a
1307.086	n/a	PROB	653543	n/a	LTP111	ltpFR	9	n/a	n/a	n/a	n/a	n/a	n/a	n/a	21	3	9	9	n/a	n/a	n/a	n/a	n/a
1310.914	n/a	PROB	655457	n/a	LTP111	ltpFR	9	n/a	n/a	n/a	n/a	n/a	n/a	n/a	10	3	3	4	n/a	n/a	n/a	n/a	n/a
1312.8	n/a	STOP	656400	n/a	LTP111	ltpFR	9	n/a	n/a	n/a	n/a	n/a	n/a	n/a	n/a	n/a	n/a	n/a	n/a	n/a	n/a	n/a	n/a
1315.142	n/a	WORD	657571	wordpools/wasnorm_wordpool.txt	LTP111	ltpFR	9	6	0	CHEERLEADER	288	n/a	n/a	0	n/a	0	0	0	0.422607421875	0.5869140625	0	lower	amplitud.ttf
1318.148	n/a	START	659074	n/a	LTP111	ltpFR	9	n/a	n/a	n/a	n/a	n/a	n/a	n/a	n/a	n/a	n/a	n/a	n/a	n/a	n/a	n/a	n/a
1326.148	n/a	STOP	663074	n/a	LTP111	ltpFR	9	n/a	n/a	n/a	n/a	n/a	n/a	n/a	n/a	n/a	n/a	n/a	n/a	n/a	n/a	n/a	n/a
1327.338	n/a	WORD	663669	wordpools/wasnorm_wordpool.txt	LTP111	ltpFR	9	6	0	MUG	930	n/a	n/a	1	n/a	0	0	0	0.422607421875	0.5869140625	0	lower	amplitud.ttf
1330.342	n/a	START	665171	n/a	LTP111	ltpFR	9	n/a	n/a	n/a	n/a	n/a	n/a	n/a	n/a	n/a	n/a	n/a	n/a	n/a	n/a	n/a	n/a
1331.282	n/a	PROB	665641	n/a	LTP111	ltpFR	9	n/a	n/a	n/a	n/a	n/a	n/a	n/a	20	6	6	8	n/a	n/a	n/a	n/a	n/a
1335.228	n/a	PROB	667614	n/a	LTP111	ltpFR	9	n/a	n/a	n/a	n/a	n/a	n/a	n/a	13	6	6	1	n/a	n/a	n/a	n/a	n/a
1338.08	n/a	STOP	669040	n/a	LTP111	ltpFR	9	n/a	n/a	n/a	n/a	n/a	n/a	n/a	n/a	n/a	n/a	n/a	n/a	n/a	n/a	n/a	n/a
1339.474	n/a	WORD	669737	wordpools/wasnorm_wordpool.txt	LTP111	ltpFR	9	6	0	BARREL	91	n/a	n/a	0	n/a	0	0	0	0.422607421875	0.5869140625	0	lower	amplitud.ttf
1342.478	n/a	START	671239	n/a	LTP111	ltpFR	9	n/a	n/a	n/a	n/a	n/a	n/a	n/a	n/a	n/a	n/a	n/a	n/a	n/a	n/a	n/a	n/a
1350.478	n/a	STOP	675239	n/a	LTP111	ltpFR	9	n/a	n/a	n/a	n/a	n/a	n/a	n/a	n/a	n/a	n/a	n/a	n/a	n/a	n/a	n/a	n/a
1351.668	n/a	WORD	675834	wordpools/wasnorm_wordpool.txt	LTP111	ltpFR	9	6	0	PARENT	1013	n/a	n/a	0	n/a	0	0	0	0.422607421875	0.5869140625	0	lower	amplitud.ttf
1354.674	n/a	START	677337	n/a	LTP111	ltpFR	9	n/a	n/a	n/a	n/a	n/a	n/a	n/a	n/a	n/a	n/a	n/a	n/a	n/a	n/a	n/a	n/a
1355.598	n/a	PROB	677799	n/a	LTP111	ltpFR	9	n/a	n/a	n/a	n/a	n/a	n/a	n/a	12	7	1	4	n/a	n/a	n/a	n/a	n/a
1359.118	n/a	PROB	679559	n/a	LTP111	ltpFR	9	n/a	n/a	n/a	n/a	n/a	n/a	n/a	13	5	3	5	n/a	n/a	n/a	n/a	n/a
1361.384	n/a	STOP	680692	n/a	LTP111	ltpFR	9	n/a	n/a	n/a	n/a	n/a	n/a	n/a	n/a	n/a	n/a	n/a	n/a	n/a	n/a	n/a	n/a
1363.822	n/a	WORD	681911	wordpools/wasnorm_wordpool.txt	LTP111	ltpFR	9	6	0	VITAMIN	1574	n/a	n/a	0	n/a	0	0	0	0.422607421875	0.5869140625	0	lower	amplitud.ttf
1366.826	n/a	START	683413	n/a	LTP111	ltpFR	9	n/a	n/a	n/a	n/a	n/a	n/a	n/a	n/a	n/a	n/a	n/a	n/a	n/a	n/a	n/a	n/a
1367.924	n/a	PROB	683962	n/a	LTP111	ltpFR	9	n/a	n/a	n/a	n/a	n/a	n/a	n/a	16	8	4	4	n/a	n/a	n/a	n/a	n/a
1374.826	n/a	STOP	687413	n/a	LTP111	ltpFR	9	n/a	n/a	n/a	n/a	n/a	n/a	n/a	n/a	n/a	n/a	n/a	n/a	n/a	n/a	n/a	n/a
1375.982	n/a	WORD	687991	wordpools/wasnorm_wordpool.txt	LTP111	ltpFR	9	6	0	ACORN	3	n/a	n/a	0	n/a	0	0	0	0.422607421875	0.5869140625	0	lower	amplitud.ttf
1378.988	n/a	START	689494	n/a	LTP111	ltpFR	9	n/a	n/a	n/a	n/a	n/a	n/a	n/a	n/a	n/a	n/a	n/a	n/a	n/a	n/a	n/a	n/a
1379.87	n/a	PROB	689935	n/a	LTP111	ltpFR	9	n/a	n/a	n/a	n/a	n/a	n/a	n/a	19	5	7	7	n/a	n/a	n/a	n/a	n/a
1386.986	n/a	STOP	693493	n/a	LTP111	ltpFR	9	n/a	n/a	n/a	n/a	n/a	n/a	n/a	n/a	n/a	n/a	n/a	n/a	n/a	n/a	n/a	n/a
1387.968	n/a	WORD	693984	wordpools/wasnorm_wordpool.txt	LTP111	ltpFR	9	6	0	LAMP	798	n/a	n/a	1	n/a	0	0	0	0.422607421875	0.5869140625	0	lower	amplitud.ttf
1390.974	n/a	START	695487	n/a	LTP111	ltpFR	9	n/a	n/a	n/a	n/a	n/a	n/a	n/a	n/a	n/a	n/a	n/a	n/a	n/a	n/a	n/a	n/a
1391.814	n/a	PROB	695907	n/a	LTP111	ltpFR	9	n/a	n/a	n/a	n/a	n/a	n/a	n/a	14	1	5	8	n/a	n/a	n/a	n/a	n/a
1397.736	n/a	STOP	698868	n/a	LTP111	ltpFR	9	n/a	n/a	n/a	n/a	n/a	n/a	n/a	n/a	n/a	n/a	n/a	n/a	n/a	n/a	n/a	n/a
1399.938	n/a	WORD	699969	wordpools/wasnorm_wordpool.txt	LTP111	ltpFR	9	6	0	LILY	821	n/a	n/a	0	n/a	0	0	0	0.422607421875	0.5869140625	0	lower	amplitud.ttf
1402.944	n/a	START	701472	n/a	LTP111	ltpFR	9	n/a	n/a	n/a	n/a	n/a	n/a	n/a	n/a	n/a	n/a	n/a	n/a	n/a	n/a	n/a	n/a
1410.944	n/a	STOP	705472	n/a	LTP111	ltpFR	9	n/a	n/a	n/a	n/a	n/a	n/a	n/a	n/a	n/a	n/a	n/a	n/a	n/a	n/a	n/a	n/a
1411.816	n/a	WORD	705908	wordpools/wasnorm_wordpool.txt	LTP111	ltpFR	9	6	0	SEED	1266	n/a	n/a	0	n/a	0	0	0	0.422607421875	0.5869140625	0	lower	amplitud.ttf
1414.822	n/a	START	707411	n/a	LTP111	ltpFR	9	n/a	n/a	n/a	n/a	n/a	n/a	n/a	n/a	n/a	n/a	n/a	n/a	n/a	n/a	n/a	n/a
1415.904	n/a	PROB	707952	n/a	LTP111	ltpFR	9	n/a	n/a	n/a	n/a	n/a	n/a	n/a	24	9	5	8	n/a	n/a	n/a	n/a	n/a
1421.834	n/a	STOP	710917	n/a	LTP111	ltpFR	9	n/a	n/a	n/a	n/a	n/a	n/a	n/a	n/a	n/a	n/a	n/a	n/a	n/a	n/a	n/a	n/a
1423.82	n/a	WORD	711910	wordpools/wasnorm_wordpool.txt	LTP111	ltpFR	9	6	0	RIB	1188	n/a	n/a	0	n/a	0	0	0	0.422607421875	0.5869140625	0	lower	amplitud.ttf
1426.824	n/a	START	713412	n/a	LTP111	ltpFR	9	n/a	n/a	n/a	n/a	n/a	n/a	n/a	n/a	n/a	n/a	n/a	n/a	n/a	n/a	n/a	n/a
1427.648	n/a	PROB	713824	n/a	LTP111	ltpFR	9	n/a	n/a	n/a	n/a	n/a	n/a	n/a	14	2	5	7	n/a	n/a	n/a	n/a	n/a
1431.676	n/a	PROB	715838	n/a	LTP111	ltpFR	9	n/a	n/a	n/a	n/a	n/a	n/a	n/a	12	5	5	2	n/a	n/a	n/a	n/a	n/a
1433.44	n/a	STOP	716720	n/a	LTP111	ltpFR	9	n/a	n/a	n/a	n/a	n/a	n/a	n/a	n/a	n/a	n/a	n/a	n/a	n/a	n/a	n/a	n/a
1435.822	n/a	WORD	717911	wordpools/wasnorm_wordpool.txt	LTP111	ltpFR	9	6	0	STEM	1376	n/a	n/a	0	n/a	0	0	0	0.422607421875	0.5869140625	0	lower	amplitud.ttf
1438.828	n/a	START	719414	n/a	LTP111	ltpFR	9	n/a	n/a	n/a	n/a	n/a	n/a	n/a	n/a	n/a	n/a	n/a	n/a	n/a	n/a	n/a	n/a
1439.942	n/a	PROB	719971	n/a	LTP111	ltpFR	9	n/a	n/a	n/a	n/a	n/a	n/a	n/a	16	1	8	7	n/a	n/a	n/a	n/a	n/a
1446.828	n/a	STOP	723414	n/a	LTP111	ltpFR	9	n/a	n/a	n/a	n/a	n/a	n/a	n/a	n/a	n/a	n/a	n/a	n/a	n/a	n/a	n/a	n/a
1447.842	n/a	WORD	723921	wordpools/wasnorm_wordpool.txt	LTP111	ltpFR	9	6	0	MILK	895	n/a	n/a	0	n/a	0	0	0	0.422607421875	0.5869140625	0	lower	amplitud.ttf
1450.846	n/a	START	725423	n/a	LTP111	ltpFR	9	n/a	n/a	n/a	n/a	n/a	n/a	n/a	n/a	n/a	n/a	n/a	n/a	n/a	n/a	n/a	n/a
1451.904	n/a	PROB	725952	n/a	LTP111	ltpFR	9	n/a	n/a	n/a	n/a	n/a	n/a	n/a	15	3	7	5	n/a	n/a	n/a	n/a	n/a
1454.216	n/a	PROB	727108	n/a	LTP111	ltpFR	9	n/a	n/a	n/a	n/a	n/a	n/a	n/a	10	1	3	6	n/a	n/a	n/a	n/a	n/a
1458.846	n/a	STOP	729423	n/a	LTP111	ltpFR	9	n/a	n/a	n/a	n/a	n/a	n/a	n/a	n/a	n/a	n/a	n/a	n/a	n/a	n/a	n/a	n/a
1459.836	n/a	WORD	729918	wordpools/wasnorm_wordpool.txt	LTP111	ltpFR	9	6	0	MOTHER	921	n/a	n/a	1	n/a	0	0	0	0.422607421875	0.5869140625	0	lower	amplitud.ttf
1462.84	n/a	START	731420	n/a	LTP111	ltpFR	9	n/a	n/a	n/a	n/a	n/a	n/a	n/a	n/a	n/a	n/a	n/a	n/a	n/a	n/a	n/a	n/a
1463.698	n/a	PROB	731849	n/a	LTP111	ltpFR	9	n/a	n/a	n/a	n/a	n/a	n/a	n/a	18	5	5	8	n/a	n/a	n/a	n/a	n/a
1465.654	n/a	PROB	732827	n/a	LTP111	ltpFR	9	n/a	n/a	n/a	n/a	n/a	n/a	n/a	18	5	5	8	n/a	n/a	n/a	n/a	n/a
1467.518	n/a	PROB	733759	n/a	LTP111	ltpFR	9	n/a	n/a	n/a	n/a	n/a	n/a	n/a	14	9	4	1	n/a	n/a	n/a	n/a	n/a
1470.05	n/a	STOP	735025	n/a	LTP111	ltpFR	9	n/a	n/a	n/a	n/a	n/a	n/a	n/a	n/a	n/a	n/a	n/a	n/a	n/a	n/a	n/a	n/a
1471.746	n/a	WORD	735873	wordpools/wasnorm_wordpool.txt	LTP111	ltpFR	9	6	0	VOLCANO	1575	n/a	n/a	1	n/a	0	0	0	0.422607421875	0.5869140625	0	lower	amplitud.ttf
1474.752	n/a	START	737376	n/a	LTP111	ltpFR	9	n/a	n/a	n/a	n/a	n/a	n/a	n/a	n/a	n/a	n/a	n/a	n/a	n/a	n/a	n/a	n/a
1475.808	n/a	PROB	737904	n/a	LTP111	ltpFR	9	n/a	n/a	n/a	n/a	n/a	n/a	n/a	20	9	2	9	n/a	n/a	n/a	n/a	n/a
1478.464	n/a	PROB	739232	n/a	LTP111	ltpFR	9	n/a	n/a	n/a	n/a	n/a	n/a	n/a	16	5	5	6	n/a	n/a	n/a	n/a	n/a
1481.498	n/a	STOP	740749	n/a	LTP111	ltpFR	9	n/a	n/a	n/a	n/a	n/a	n/a	n/a	n/a	n/a	n/a	n/a	n/a	n/a	n/a	n/a	n/a
1483.868	n/a	WORD	741934	wordpools/wasnorm_wordpool.txt	LTP111	ltpFR	9	6	0	LUNCH	849	n/a	n/a	0	n/a	0	0	0	0.422607421875	0.5869140625	0	lower	amplitud.ttf
1486.872	n/a	START	743436	n/a	LTP111	ltpFR	9	n/a	n/a	n/a	n/a	n/a	n/a	n/a	n/a	n/a	n/a	n/a	n/a	n/a	n/a	n/a	n/a
1487.762	n/a	PROB	743881	n/a	LTP111	ltpFR	9	n/a	n/a	n/a	n/a	n/a	n/a	n/a	11	7	1	3	n/a	n/a	n/a	n/a	n/a
1490.158	n/a	PROB	745079	n/a	LTP111	ltpFR	9	n/a	n/a	n/a	n/a	n/a	n/a	n/a	14	4	7	3	n/a	n/a	n/a	n/a	n/a
1494.872	n/a	STOP	747436	n/a	LTP111	ltpFR	9	n/a	n/a	n/a	n/a	n/a	n/a	n/a	n/a	n/a	n/a	n/a	n/a	n/a	n/a	n/a	n/a
1496.694	n/a	REC_START	748347	n/a	LTP111	ltpFR	9	6	n/a	n/a	n/a	n/a	n/a	n/a	n/a	0	0	0	n/a	n/a	n/a	n/a	n/a
1501.484	n/a	REC_WORD	750742	wordpools/wasnorm_wordpool.txt	LTP111	ltpFR	9	6	0	CHEERLEADER	288	n/a	n/a	0	n/a	0	0	0	n/a	n/a	n/a	n/a	n/a
1502.266	n/a	REC_WORD	751133	wordpools/wasnorm_wordpool.txt	LTP111	ltpFR	9	6	0	GODDESS	646	n/a	n/a	0	n/a	0	0	0	n/a	n/a	n/a	n/a	n/a
1503.13	n/a	REC_WORD	751565	wordpools/wasnorm_wordpool.txt	LTP111	ltpFR	9	6	0	ACORN	3	n/a	n/a	0	n/a	0	0	0	n/a	n/a	n/a	n/a	n/a
1504.292	n/a	REC_WORD	752146	wordpools/wasnorm_wordpool.txt	LTP111	ltpFR	9	6	0	MUG	930	n/a	n/a	1	n/a	0	0	0	n/a	n/a	n/a	n/a	n/a
1506.042	n/a	REC_WORD	753021	wordpools/wasnorm_wordpool.txt	LTP111	ltpFR	9	6	0	STEM	1376	n/a	n/a	0	n/a	0	0	0	n/a	n/a	n/a	n/a	n/a
1507.45	n/a	REC_WORD	753725	wordpools/wasnorm_wordpool.txt	LTP111	ltpFR	9	6	0	SEED	1266	n/a	n/a	0	n/a	0	0	0	n/a	n/a	n/a	n/a	n/a
1508.678	n/a	REC_WORD	754339	wordpools/wasnorm_wordpool.txt	LTP111	ltpFR	9	6	0	LILY	821	n/a	n/a	0	n/a	0	0	0	n/a	n/a	n/a	n/a	n/a
1509.884	n/a	REC_WORD	754942	wordpools/wasnorm_wordpool.txt	LTP111	ltpFR	9	6	0	PARENT	1013	n/a	n/a	0	n/a	0	0	0	n/a	n/a	n/a	n/a	n/a
1510.718	n/a	REC_WORD	755359	wordpools/wasnorm_wordpool.txt	LTP111	ltpFR	9	6	0	VITAMIN	1574	n/a	n/a	0	n/a	0	0	0	n/a	n/a	n/a	n/a	n/a
1511.61	n/a	REC_WORD	755805	wordpools/wasnorm_wordpool.txt	LTP111	ltpFR	9	6	0	MILK	895	n/a	n/a	0	n/a	0	0	0	n/a	n/a	n/a	n/a	n/a
1576.518	n/a	START	788259	n/a	LTP111	ltpFR	9	n/a	n/a	n/a	n/a	n/a	n/a	n/a	n/a	n/a	n/a	n/a	n/a	n/a	n/a	n/a	n/a
1578.026	n/a	PROB	789013	n/a	LTP111	ltpFR	9	n/a	n/a	n/a	n/a	n/a	n/a	n/a	20	4	9	7	n/a	n/a	n/a	n/a	n/a
1582.662	n/a	PROB	791331	n/a	LTP111	ltpFR	9	n/a	n/a	n/a	n/a	n/a	n/a	n/a	11	1	4	6	n/a	n/a	n/a	n/a	n/a
1587.114	n/a	PROB	793557	n/a	LTP111	ltpFR	9	n/a	n/a	n/a	n/a	n/a	n/a	n/a	11	6	2	3	n/a	n/a	n/a	n/a	n/a
1592.518	n/a	STOP	796259	n/a	LTP111	ltpFR	9	n/a	n/a	n/a	n/a	n/a	n/a	n/a	n/a	n/a	n/a	n/a	n/a	n/a	n/a	n/a	n/a
1593.348	n/a	WORD	796674	wordpools/wasnorm_wordpool.txt	LTP111	ltpFR	9	7	1	MACHINE	852	n/a	n/a	0	n/a	0	0	0	0.57763671875	0.412841796875	1	upper	zerothre.ttf
1596.354	n/a	START	798177	n/a	LTP111	ltpFR	9	n/a	n/a	n/a	n/a	n/a	n/a	n/a	n/a	n/a	n/a	n/a	n/a	n/a	n/a	n/a	n/a
1597.168	n/a	PROB	798584	n/a	LTP111	ltpFR	9	n/a	n/a	n/a	n/a	n/a	n/a	n/a	18	9	5	4	n/a	n/a	n/a	n/a	n/a
1601.016	n/a	PROB	800508	n/a	LTP111	ltpFR	9	n/a	n/a	n/a	n/a	n/a	n/a	n/a	15	5	2	8	n/a	n/a	n/a	n/a	n/a
1604.328	n/a	PROB	802164	n/a	LTP111	ltpFR	9	n/a	n/a	n/a	n/a	n/a	n/a	n/a	10	4	2	4	n/a	n/a	n/a	n/a	n/a
1606.184	n/a	PROB	803092	n/a	LTP111	ltpFR	9	n/a	n/a	n/a	n/a	n/a	n/a	n/a	14	1	6	7	n/a	n/a	n/a	n/a	n/a
1607.95	n/a	PROB	803975	n/a	LTP111	ltpFR	9	n/a	n/a	n/a	n/a	n/a	n/a	n/a	15	3	7	5	n/a	n/a	n/a	n/a	n/a
1609.546	n/a	PROB	804773	n/a	LTP111	ltpFR	9	n/a	n/a	n/a	n/a	n/a	n/a	n/a	15	8	6	3	n/a	n/a	n/a	n/a	n/a
1611.724	n/a	STOP	805862	n/a	LTP111	ltpFR	9	n/a	n/a	n/a	n/a	n/a	n/a	n/a	n/a	n/a	n/a	n/a	n/a	n/a	n/a	n/a	n/a
1613.45	n/a	WORD	806725	wordpools/wasnorm_wordpool.txt	LTP111	ltpFR	9	7	1	COCOON	339	n/a	n/a	n/a	n/a	0	0	0	0.57763671875	0.412841796875	1	upper	zerothre.ttf
1616.472	n/a	SLOW_MSG	808236	n/a	LTP111	ltpFR	9	7	n/a	n/a	n/a	n/a	n/a	n/a	n/a	0	0	0	n/a	n/a	n/a	n/a	n/a
1617.988	n/a	START	808994	n/a	LTP111	ltpFR	9	n/a	n/a	n/a	n/a	n/a	n/a	n/a	n/a	n/a	n/a	n/a	n/a	n/a	n/a	n/a	n/a
1618.87	n/a	PROB	809435	n/a	LTP111	ltpFR	9	n/a	n/a	n/a	n/a	n/a	n/a	n/a	23	8	6	9	n/a	n/a	n/a	n/a	n/a
1624.612	n/a	PROB	812306	n/a	LTP111	ltpFR	9	n/a	n/a	n/a	n/a	n/a	n/a	n/a	20	5	7	8	n/a	n/a	n/a	n/a	n/a
1629.924	n/a	PROB	814962	n/a	LTP111	ltpFR	9	n/a	n/a	n/a	n/a	n/a	n/a	n/a	20	7	4	9	n/a	n/a	n/a	n/a	n/a
1633.178	n/a	STOP	816589	n/a	LTP111	ltpFR	9	n/a	n/a	n/a	n/a	n/a	n/a	n/a	n/a	n/a	n/a	n/a	n/a	n/a	n/a	n/a	n/a
1634.876	n/a	WORD	817438	wordpools/wasnorm_wordpool.txt	LTP111	ltpFR	9	7	1	CLIMBER	323	n/a	n/a	0	n/a	0	0	0	0.57763671875	0.412841796875	1	upper	zerothre.ttf
1637.882	n/a	START	818941	n/a	LTP111	ltpFR	9	n/a	n/a	n/a	n/a	n/a	n/a	n/a	n/a	n/a	n/a	n/a	n/a	n/a	n/a	n/a	n/a
1638.998	n/a	PROB	819499	n/a	LTP111	ltpFR	9	n/a	n/a	n/a	n/a	n/a	n/a	n/a	17	5	5	7	n/a	n/a	n/a	n/a	n/a
1641.054	n/a	PROB	820527	n/a	LTP111	ltpFR	9	n/a	n/a	n/a	n/a	n/a	n/a	n/a	11	3	7	1	n/a	n/a	n/a	n/a	n/a
1643.374	n/a	PROB	821687	n/a	LTP111	ltpFR	9	n/a	n/a	n/a	n/a	n/a	n/a	n/a	17	6	8	3	n/a	n/a	n/a	n/a	n/a
1653.882	n/a	STOP	826941	n/a	LTP111	ltpFR	9	n/a	n/a	n/a	n/a	n/a	n/a	n/a	n/a	n/a	n/a	n/a	n/a	n/a	n/a	n/a	n/a
1655.062	n/a	WORD	827531	wordpools/wasnorm_wordpool.txt	LTP111	ltpFR	9	7	1	SKI	1316	n/a	n/a	0	n/a	0	0	0	0.57763671875	0.412841796875	1	upper	zerothre.ttf
1658.068	n/a	START	829034	n/a	LTP111	ltpFR	9	n/a	n/a	n/a	n/a	n/a	n/a	n/a	n/a	n/a	n/a	n/a	n/a	n/a	n/a	n/a	n/a
1659.09	n/a	PROB	829545	n/a	LTP111	ltpFR	9	n/a	n/a	n/a	n/a	n/a	n/a	n/a	18	9	5	4	n/a	n/a	n/a	n/a	n/a
1663.302	n/a	PROB	831651	n/a	LTP111	ltpFR	9	n/a	n/a	n/a	n/a	n/a	n/a	n/a	16	6	3	7	n/a	n/a	n/a	n/a	n/a
1666.806	n/a	PROB	833403	n/a	LTP111	ltpFR	9	n/a	n/a	n/a	n/a	n/a	n/a	n/a	21	9	6	6	n/a	n/a	n/a	n/a	n/a
1673.988	n/a	STOP	836994	n/a	LTP111	ltpFR	9	n/a	n/a	n/a	n/a	n/a	n/a	n/a	n/a	n/a	n/a	n/a	n/a	n/a	n/a	n/a	n/a
1675.27	n/a	WORD	837635	wordpools/wasnorm_wordpool.txt	LTP111	ltpFR	9	7	1	MALL	860	n/a	n/a	0	n/a	0	0	0	0.57763671875	0.412841796875	1	upper	zerothre.ttf
1678.276	n/a	START	839138	n/a	LTP111	ltpFR	9	n/a	n/a	n/a	n/a	n/a	n/a	n/a	n/a	n/a	n/a	n/a	n/a	n/a	n/a	n/a	n/a
1679.1	n/a	PROB	839550	n/a	LTP111	ltpFR	9	n/a	n/a	n/a	n/a	n/a	n/a	n/a	19	9	9	1	n/a	n/a	n/a	n/a	n/a
1682.864	n/a	PROB	841432	n/a	LTP111	ltpFR	9	n/a	n/a	n/a	n/a	n/a	n/a	n/a	19	8	5	6	n/a	n/a	n/a	n/a	n/a
1686.934	n/a	PROB	843467	n/a	LTP111	ltpFR	9	n/a	n/a	n/a	n/a	n/a	n/a	n/a	6	2	1	3	n/a	n/a	n/a	n/a	n/a
1691.11	n/a	PROB	845555	n/a	LTP111	ltpFR	9	n/a	n/a	n/a	n/a	n/a	n/a	n/a	14	5	4	5	n/a	n/a	n/a	n/a	n/a
1693.068	n/a	STOP	846534	n/a	LTP111	ltpFR	9	n/a	n/a	n/a	n/a	n/a	n/a	n/a	n/a	n/a	n/a	n/a	n/a	n/a	n/a	n/a	n/a
1695.456	n/a	WORD	847728	wordpools/wasnorm_wordpool.txt	LTP111	ltpFR	9	7	1	CHICKEN	297	n/a	n/a	1	n/a	0	0	0	0.57763671875	0.412841796875	1	upper	zerothre.ttf
1698.46	n/a	START	849230	n/a	LTP111	ltpFR	9	n/a	n/a	n/a	n/a	n/a	n/a	n/a	n/a	n/a	n/a	n/a	n/a	n/a	n/a	n/a	n/a
1699.302	n/a	PROB	849651	n/a	LTP111	ltpFR	9	n/a	n/a	n/a	n/a	n/a	n/a	n/a	12	5	1	6	n/a	n/a	n/a	n/a	n/a
1703.806	n/a	PROB	851903	n/a	LTP111	ltpFR	9	n/a	n/a	n/a	n/a	n/a	n/a	n/a	8	3	3	2	n/a	n/a	n/a	n/a	n/a
1707.168	n/a	PROB	853584	n/a	LTP111	ltpFR	9	n/a	n/a	n/a	n/a	n/a	n/a	n/a	14	2	4	8	n/a	n/a	n/a	n/a	n/a
1709.506	n/a	PROB	854753	n/a	LTP111	ltpFR	9	n/a	n/a	n/a	n/a	n/a	n/a	n/a	18	7	7	4	n/a	n/a	n/a	n/a	n/a
1713.894	n/a	STOP	856947	n/a	LTP111	ltpFR	9	n/a	n/a	n/a	n/a	n/a	n/a	n/a	n/a	n/a	n/a	n/a	n/a	n/a	n/a	n/a	n/a
1715.458	n/a	WORD	857729	wordpools/wasnorm_wordpool.txt	LTP111	ltpFR	9	7	1	INTESTINE	742	n/a	n/a	1	n/a	0	0	0	0.57763671875	0.412841796875	1	upper	zerothre.ttf
1718.464	n/a	START	859232	n/a	LTP111	ltpFR	9	n/a	n/a	n/a	n/a	n/a	n/a	n/a	n/a	n/a	n/a	n/a	n/a	n/a	n/a	n/a	n/a
1719.528	n/a	PROB	859764	n/a	LTP111	ltpFR	9	n/a	n/a	n/a	n/a	n/a	n/a	n/a	23	7	9	5	n/a	n/a	n/a	n/a	n/a
1726.38	n/a	PROB	863190	n/a	LTP111	ltpFR	9	n/a	n/a	n/a	n/a	n/a	n/a	n/a	15	5	6	1	n/a	n/a	n/a	n/a	n/a
1734.464	n/a	STOP	867232	n/a	LTP111	ltpFR	9	n/a	n/a	n/a	n/a	n/a	n/a	n/a	n/a	n/a	n/a	n/a	n/a	n/a	n/a	n/a	n/a
1735.652	n/a	WORD	867826	wordpools/wasnorm_wordpool.txt	LTP111	ltpFR	9	7	1	SWATTER	1418	n/a	n/a	0	n/a	0	0	0	0.57763671875	0.412841796875	1	upper	zerothre.ttf
1738.658	n/a	START	869329	n/a	LTP111	ltpFR	9	n/a	n/a	n/a	n/a	n/a	n/a	n/a	n/a	n/a	n/a	n/a	n/a	n/a	n/a	n/a	n/a
1739.664	n/a	PROB	869832	n/a	LTP111	ltpFR	9	n/a	n/a	n/a	n/a	n/a	n/a	n/a	13	5	1	7	n/a	n/a	n/a	n/a	n/a
1744.06	n/a	PROB	872030	n/a	LTP111	ltpFR	9	n/a	n/a	n/a	n/a	n/a	n/a	n/a	25	9	7	9	n/a	n/a	n/a	n/a	n/a
1750.418	n/a	PROB	875209	n/a	LTP111	ltpFR	9	n/a	n/a	n/a	n/a	n/a	n/a	n/a	8	1	2	5	n/a	n/a	n/a	n/a	n/a
1754.284	n/a	STOP	877142	n/a	LTP111	ltpFR	9	n/a	n/a	n/a	n/a	n/a	n/a	n/a	n/a	n/a	n/a	n/a	n/a	n/a	n/a	n/a	n/a
1755.572	n/a	WORD	877786	wordpools/wasnorm_wordpool.txt	LTP111	ltpFR	9	7	1	ROACH	1195	n/a	n/a	1	n/a	0	0	0	0.57763671875	0.412841796875	1	upper	zerothre.ttf
1758.576	n/a	START	879288	n/a	LTP111	ltpFR	9	n/a	n/a	n/a	n/a	n/a	n/a	n/a	n/a	n/a	n/a	n/a	n/a	n/a	n/a	n/a	n/a
1759.548	n/a	PROB	879774	n/a	LTP111	ltpFR	9	n/a	n/a	n/a	n/a	n/a	n/a	n/a	17	2	8	7	n/a	n/a	n/a	n/a	n/a
1763.17	n/a	PROB	881585	n/a	LTP111	ltpFR	9	n/a	n/a	n/a	n/a	n/a	n/a	n/a	11	2	2	7	n/a	n/a	n/a	n/a	n/a
1766.724	n/a	PROB	883362	n/a	LTP111	ltpFR	9	n/a	n/a	n/a	n/a	n/a	n/a	n/a	19	4	9	6	n/a	n/a	n/a	n/a	n/a
1770.57	n/a	PROB	885285	n/a	LTP111	ltpFR	9	n/a	n/a	n/a	n/a	n/a	n/a	n/a	16	2	5	9	n/a	n/a	n/a	n/a	n/a
1773.974	n/a	STOP	886987	n/a	LTP111	ltpFR	9	n/a	n/a	n/a	n/a	n/a	n/a	n/a	n/a	n/a	n/a	n/a	n/a	n/a	n/a	n/a	n/a
1775.69	n/a	WORD	887845	wordpools/wasnorm_wordpool.txt	LTP111	ltpFR	9	7	1	CAULIFLOWER	262	n/a	n/a	1	n/a	0	0	0	0.57763671875	0.412841796875	1	upper	zerothre.ttf
1778.694	n/a	START	889347	n/a	LTP111	ltpFR	9	n/a	n/a	n/a	n/a	n/a	n/a	n/a	n/a	n/a	n/a	n/a	n/a	n/a	n/a	n/a	n/a
1779.726	n/a	PROB	889863	n/a	LTP111	ltpFR	9	n/a	n/a	n/a	n/a	n/a	n/a	n/a	11	4	4	3	n/a	n/a	n/a	n/a	n/a
1783.096	n/a	PROB	891548	n/a	LTP111	ltpFR	9	n/a	n/a	n/a	n/a	n/a	n/a	n/a	19	7	9	3	n/a	n/a	n/a	n/a	n/a
1787.726	n/a	PROB	893863	n/a	LTP111	ltpFR	9	n/a	n/a	n/a	n/a	n/a	n/a	n/a	17	9	5	3	n/a	n/a	n/a	n/a	n/a
1794.696	n/a	STOP	897348	n/a	LTP111	ltpFR	9	n/a	n/a	n/a	n/a	n/a	n/a	n/a	n/a	n/a	n/a	n/a	n/a	n/a	n/a	n/a	n/a
1795.65	n/a	WORD	897825	wordpools/wasnorm_wordpool.txt	LTP111	ltpFR	9	7	1	DICTIONARY	463	n/a	n/a	1	n/a	0	0	0	0.57763671875	0.412841796875	1	upper	zerothre.ttf
1798.656	n/a	START	899328	n/a	LTP111	ltpFR	9	n/a	n/a	n/a	n/a	n/a	n/a	n/a	n/a	n/a	n/a	n/a	n/a	n/a	n/a	n/a	n/a
1799.72	n/a	PROB	899860	n/a	LTP111	ltpFR	9	n/a	n/a	n/a	n/a	n/a	n/a	n/a	16	3	8	5	n/a	n/a	n/a	n/a	n/a
1807.87	n/a	PROB	903935	n/a	LTP111	ltpFR	9	n/a	n/a	n/a	n/a	n/a	n/a	n/a	12	3	4	5	n/a	n/a	n/a	n/a	n/a
1814.656	n/a	STOP	907328	n/a	LTP111	ltpFR	9	n/a	n/a	n/a	n/a	n/a	n/a	n/a	n/a	n/a	n/a	n/a	n/a	n/a	n/a	n/a	n/a
1815.81	n/a	WORD	907905	wordpools/wasnorm_wordpool.txt	LTP111	ltpFR	9	7	1	CRICKET	408	n/a	n/a	1	n/a	0	0	0	0.57763671875	0.412841796875	1	upper	zerothre.ttf
1818.816	n/a	START	909408	n/a	LTP111	ltpFR	9	n/a	n/a	n/a	n/a	n/a	n/a	n/a	n/a	n/a	n/a	n/a	n/a	n/a	n/a	n/a	n/a
1819.88	n/a	PROB	909940	n/a	LTP111	ltpFR	9	n/a	n/a	n/a	n/a	n/a	n/a	n/a	10	1	3	6	n/a	n/a	n/a	n/a	n/a
1823.834	n/a	PROB	911917	n/a	LTP111	ltpFR	9	n/a	n/a	n/a	n/a	n/a	n/a	n/a	12	5	4	3	n/a	n/a	n/a	n/a	n/a
1829.82	n/a	PROB	914910	n/a	LTP111	ltpFR	9	n/a	n/a	n/a	n/a	n/a	n/a	n/a	9	4	4	5	n/a	n/a	n/a	n/a	n/a
1834.814	n/a	STOP	917407	n/a	LTP111	ltpFR	9	n/a	n/a	n/a	n/a	n/a	n/a	n/a	n/a	n/a	n/a	n/a	n/a	n/a	n/a	n/a	n/a
1835.854	n/a	WORD	917927	wordpools/wasnorm_wordpool.txt	LTP111	ltpFR	9	7	1	CHEF	290	n/a	n/a	1	n/a	0	0	0	0.57763671875	0.412841796875	1	upper	zerothre.ttf
1838.86	n/a	START	919430	n/a	LTP111	ltpFR	9	n/a	n/a	n/a	n/a	n/a	n/a	n/a	n/a	n/a	n/a	n/a	n/a	n/a	n/a	n/a	n/a
1839.808	n/a	PROB	919904	n/a	LTP111	ltpFR	9	n/a	n/a	n/a	n/a	n/a	n/a	n/a	10	4	5	1	n/a	n/a	n/a	n/a	n/a
1842.562	n/a	PROB	921281	n/a	LTP111	ltpFR	9	n/a	n/a	n/a	n/a	n/a	n/a	n/a	23	5	9	9	n/a	n/a	n/a	n/a	n/a
1847.016	n/a	PROB	923508	n/a	LTP111	ltpFR	9	n/a	n/a	n/a	n/a	n/a	n/a	n/a	14	6	6	2	n/a	n/a	n/a	n/a	n/a
1854.858	n/a	STOP	927429	n/a	LTP111	ltpFR	9	n/a	n/a	n/a	n/a	n/a	n/a	n/a	n/a	n/a	n/a	n/a	n/a	n/a	n/a	n/a	n/a
1855.79	n/a	WORD	927895	wordpools/wasnorm_wordpool.txt	LTP111	ltpFR	9	7	1	KETTLE	772	n/a	n/a	0	n/a	0	0	0	0.57763671875	0.412841796875	1	upper	zerothre.ttf
1858.794	n/a	START	929397	n/a	LTP111	ltpFR	9	n/a	n/a	n/a	n/a	n/a	n/a	n/a	n/a	n/a	n/a	n/a	n/a	n/a	n/a	n/a	n/a
1859.992	n/a	PROB	929996	n/a	LTP111	ltpFR	9	n/a	n/a	n/a	n/a	n/a	n/a	n/a	17	1	7	9	n/a	n/a	n/a	n/a	n/a
1869.422	n/a	PROB	934711	n/a	LTP111	ltpFR	9	n/a	n/a	n/a	n/a	n/a	n/a	n/a	11	1	3	7	n/a	n/a	n/a	n/a	n/a
1874.794	n/a	STOP	937397	n/a	LTP111	ltpFR	9	n/a	n/a	n/a	n/a	n/a	n/a	n/a	n/a	n/a	n/a	n/a	n/a	n/a	n/a	n/a	n/a
1875.892	n/a	WORD	937946	wordpools/wasnorm_wordpool.txt	LTP111	ltpFR	9	7	1	HANDCUFFS	685	n/a	n/a	0	n/a	0	0	0	0.57763671875	0.412841796875	1	upper	zerothre.ttf
1878.898	n/a	START	939449	n/a	LTP111	ltpFR	9	n/a	n/a	n/a	n/a	n/a	n/a	n/a	n/a	n/a	n/a	n/a	n/a	n/a	n/a	n/a	n/a
1880.078	n/a	PROB	940039	n/a	LTP111	ltpFR	9	n/a	n/a	n/a	n/a	n/a	n/a	n/a	12	8	3	1	n/a	n/a	n/a	n/a	n/a
1884.248	n/a	PROB	942124	n/a	LTP111	ltpFR	9	n/a	n/a	n/a	n/a	n/a	n/a	n/a	18	6	4	8	n/a	n/a	n/a	n/a	n/a
1887.502	n/a	PROB	943751	n/a	LTP111	ltpFR	9	n/a	n/a	n/a	n/a	n/a	n/a	n/a	1	4	5	4	n/a	n/a	n/a	n/a	n/a
1894.898	n/a	STOP	947449	n/a	LTP111	ltpFR	9	n/a	n/a	n/a	n/a	n/a	n/a	n/a	n/a	n/a	n/a	n/a	n/a	n/a	n/a	n/a	n/a
1895.76	n/a	WORD	947880	wordpools/wasnorm_wordpool.txt	LTP111	ltpFR	9	7	1	BADGE	68	n/a	n/a	0	n/a	0	0	0	0.57763671875	0.412841796875	1	upper	zerothre.ttf
1898.766	n/a	START	949383	n/a	LTP111	ltpFR	9	n/a	n/a	n/a	n/a	n/a	n/a	n/a	n/a	n/a	n/a	n/a	n/a	n/a	n/a	n/a	n/a
1899.68	n/a	PROB	949840	n/a	LTP111	ltpFR	9	n/a	n/a	n/a	n/a	n/a	n/a	n/a	18	9	2	7	n/a	n/a	n/a	n/a	n/a
1904.074	n/a	PROB	952037	n/a	LTP111	ltpFR	9	n/a	n/a	n/a	n/a	n/a	n/a	n/a	10	5	3	2	n/a	n/a	n/a	n/a	n/a
1906.898	n/a	PROB	953449	n/a	LTP111	ltpFR	9	n/a	n/a	n/a	n/a	n/a	n/a	n/a	21	3	9	9	n/a	n/a	n/a	n/a	n/a
1912.248	n/a	PROB	956124	n/a	LTP111	ltpFR	9	n/a	n/a	n/a	n/a	n/a	n/a	n/a	10	7	2	1	n/a	n/a	n/a	n/a	n/a
1914.374	n/a	STOP	957187	n/a	LTP111	ltpFR	9	n/a	n/a	n/a	n/a	n/a	n/a	n/a	n/a	n/a	n/a	n/a	n/a	n/a	n/a	n/a	n/a
1916.604	n/a	REC_START	958302	n/a	LTP111	ltpFR	9	7	n/a	n/a	n/a	n/a	n/a	n/a	n/a	0	0	0	n/a	n/a	n/a	n/a	n/a
1920.08	n/a	REC_WORD	960040	wordpools/wasnorm_wordpool.txt	LTP111	ltpFR	9	7	1	BADGE	68	n/a	n/a	0	n/a	0	0	0	n/a	n/a	n/a	n/a	n/a
1920.942	n/a	REC_WORD	960471	wordpools/wasnorm_wordpool.txt	LTP111	ltpFR	9	7	1	INTESTINE	742	n/a	n/a	1	n/a	0	0	0	n/a	n/a	n/a	n/a	n/a
1936.268	n/a	REC_WORD	968134	wordpools/wasnorm_wordpool.txt	LTP111	ltpFR	9	7	n/a	THORN	1459	n/a	n/a	n/a	n/a	0	0	0	n/a	n/a	n/a	n/a	n/a
2004.81	n/a	WORD	1002405	wordpools/wasnorm_wordpool.txt	LTP111	ltpFR	9	8	0	DIAMOND	458	n/a	n/a	0	n/a	0	0	0	0.422607421875	0.5869140625	0	lower	amplitud.ttf
2008.772	n/a	WORD	1004386	wordpools/wasnorm_wordpool.txt	LTP111	ltpFR	9	8	0	GEM	629	n/a	n/a	0	n/a	0	0	0	0.422607421875	0.5869140625	0	lower	amplitud.ttf
2012.6	n/a	WORD	1006300	wordpools/wasnorm_wordpool.txt	LTP111	ltpFR	9	8	1	LONDON	843	n/a	n/a	0	n/a	0	0	0	0.57763671875	0.412841796875	1	upper	zerothre.ttf
2016.73	n/a	WORD	1008365	wordpools/wasnorm_wordpool.txt	LTP111	ltpFR	9	8	1	HIKER	708	n/a	n/a	1	n/a	0	0	0	0.57763671875	0.412841796875	1	upper	zerothre.ttf
2020.774	n/a	WORD	1010387	wordpools/wasnorm_wordpool.txt	LTP111	ltpFR	9	8	1	DRIVER	499	n/a	n/a	1	n/a	0	0	0	0.57763671875	0.412841796875	1	upper	zerothre.ttf
2024.936	n/a	WORD	1012468	wordpools/wasnorm_wordpool.txt	LTP111	ltpFR	9	8	1	HAIL	676	n/a	n/a	0	n/a	0	0	0	0.57763671875	0.412841796875	1	upper	zerothre.ttf
2029.106	n/a	WORD	1014553	wordpools/wasnorm_wordpool.txt	LTP111	ltpFR	9	8	0	GRASSHOPPER	656	n/a	n/a	n/a	n/a	0	0	0	0.422607421875	0.5869140625	0	lower	amplitud.ttf
2032.128	n/a	SLOW_MSG	1016064	n/a	LTP111	ltpFR	9	8	n/a	n/a	n/a	n/a	n/a	n/a	n/a	0	0	0	n/a	n/a	n/a	n/a	n/a
2034.458	n/a	WORD	1017229	wordpools/wasnorm_wordpool.txt	LTP111	ltpFR	9	8	0	UMPIRE	1535	n/a	n/a	0	n/a	0	0	0	0.422607421875	0.5869140625	0	lower	amplitud.ttf
2038.37	n/a	WORD	1019185	wordpools/wasnorm_wordpool.txt	LTP111	ltpFR	9	8	0	PARIS	1014	n/a	n/a	1	n/a	0	0	0	0.422607421875	0.5869140625	0	lower	amplitud.ttf
2042.308	n/a	WORD	1021154	wordpools/wasnorm_wordpool.txt	LTP111	ltpFR	9	8	0	GROCERIES	663	n/a	n/a	1	n/a	0	0	0	0.422607421875	0.5869140625	0	lower	amplitud.ttf
2046.512	n/a	WORD	1023256	wordpools/wasnorm_wordpool.txt	LTP111	ltpFR	9	8	1	WAITER	1580	n/a	n/a	3	n/a	0	0	0	0.57763671875	0.412841796875	1	upper	zerothre.ttf
2047.894	n/a	KEY_MSG	1023947	n/a	LTP111	ltpFR	9	8	n/a	n/a	n/a	n/a	n/a	n/a	n/a	0	0	0	n/a	n/a	n/a	n/a	n/a
2050.608	n/a	WORD	1025304	wordpools/wasnorm_wordpool.txt	LTP111	ltpFR	9	8	1	FACTORY	548	n/a	n/a	1	n/a	0	0	0	0.57763671875	0.412841796875	1	upper	zerothre.ttf
2054.612	n/a	WORD	1027306	wordpools/wasnorm_wordpool.txt	LTP111	ltpFR	9	8	1	CLASS	318	n/a	n/a	0	n/a	0	0	0	0.57763671875	0.412841796875	1	upper	zerothre.ttf
2058.606	n/a	WORD	1029303	wordpools/wasnorm_wordpool.txt	LTP111	ltpFR	9	8	1	CAVE	263	n/a	n/a	0	n/a	0	0	0	0.57763671875	0.412841796875	1	upper	zerothre.ttf
2062.568	n/a	WORD	1031284	wordpools/wasnorm_wordpool.txt	LTP111	ltpFR	9	8	0	ASH	44	n/a	n/a	0	n/a	0	0	0	0.422607421875	0.5869140625	0	lower	amplitud.ttf
2066.738	n/a	WORD	1033369	wordpools/wasnorm_wordpool.txt	LTP111	ltpFR	9	8	0	TEACHER	1440	n/a	n/a	0	n/a	0	0	0	0.422607421875	0.5869140625	0	lower	amplitud.ttf
2072.608	n/a	REC_START	1036304	n/a	LTP111	ltpFR	9	8	n/a	n/a	n/a	n/a	n/a	n/a	n/a	0	0	0	n/a	n/a	n/a	n/a	n/a
2074.552	n/a	REC_WORD	1037276	wordpools/wasnorm_wordpool.txt	LTP111	ltpFR	9	8	0	TEACHER	1440	n/a	n/a	0	n/a	0	0	0	n/a	n/a	n/a	n/a	n/a
2075.082	n/a	REC_WORD	1037541	wordpools/wasnorm_wordpool.txt	LTP111	ltpFR	9	8	0	UMPIRE	1535	n/a	n/a	0	n/a	0	0	0	n/a	n/a	n/a	n/a	n/a
2075.97	n/a	REC_WORD	1037985	wordpools/wasnorm_wordpool.txt	LTP111	ltpFR	9	8	1	CAVE	263	n/a	n/a	0	n/a	0	0	0	n/a	n/a	n/a	n/a	n/a
2076.738	n/a	REC_WORD	1038369	wordpools/wasnorm_wordpool.txt	LTP111	ltpFR	9	8	0	PARIS	1014	n/a	n/a	1	n/a	0	0	0	n/a	n/a	n/a	n/a	n/a
2078.184	n/a	REC_WORD	1039092	wordpools/wasnorm_wordpool.txt	LTP111	ltpFR	9	8	0	GROCERIES	663	n/a	n/a	1	n/a	0	0	0	n/a	n/a	n/a	n/a	n/a
2081.96	n/a	REC_WORD	1040980	wordpools/wasnorm_wordpool.txt	LTP111	ltpFR	9	8	1	FACTORY	548	n/a	n/a	1	n/a	0	0	0	n/a	n/a	n/a	n/a	n/a
2082.66	n/a	REC_WORD	1041330	wordpools/wasnorm_wordpool.txt	LTP111	ltpFR	9	8	1	CLASS	318	n/a	n/a	0	n/a	0	0	0	n/a	n/a	n/a	n/a	n/a
2086.262	n/a	REC_WORD	1043131	wordpools/wasnorm_wordpool.txt	LTP111	ltpFR	9	8	0	DIAMOND	458	n/a	n/a	0	n/a	0	0	0	n/a	n/a	n/a	n/a	n/a
2087.044	n/a	REC_WORD	1043522	wordpools/wasnorm_wordpool.txt	LTP111	ltpFR	9	8	0	GEM	629	n/a	n/a	0	n/a	0	0	0	n/a	n/a	n/a	n/a	n/a
2090.606	n/a	REC_WORD	1045303	wordpools/wasnorm_wordpool.txt	LTP111	ltpFR	9	8	1	HIKER	708	n/a	n/a	1	n/a	0	0	0	n/a	n/a	n/a	n/a	n/a
2092.478	n/a	REC_WORD	1046239	wordpools/wasnorm_wordpool.txt	LTP111	ltpFR	9	8	1	DRIVER	499	n/a	n/a	1	n/a	0	0	0	n/a	n/a	n/a	n/a	n/a
2099.436	n/a	REC_WORD	1049718	wordpools/wasnorm_wordpool.txt	LTP111	ltpFR	9	8	1	HAIL	676	n/a	n/a	0	n/a	0	0	0	n/a	n/a	n/a	n/a	n/a
2155.262	n/a	WORD	1077631	wordpools/wasnorm_wordpool.txt	LTP111	ltpFR	9	9	0	TRENCH	1503	n/a	n/a	0	n/a	0	0	0	0.422607421875	0.5869140625	0	lower	amplitud.ttf
2159.332	n/a	WORD	1079666	wordpools/wasnorm_wordpool.txt	LTP111	ltpFR	9	9	0	WELL	1600	n/a	n/a	0	n/a	0	0	0	0.422607421875	0.5869140625	0	lower	amplitud.ttf
2163.534	n/a	WORD	1081767	wordpools/wasnorm_wordpool.txt	LTP111	ltpFR	9	9	0	NICKEL	950	n/a	n/a	0	n/a	0	0	0	0.422607421875	0.5869140625	0	lower	amplitud.ttf
2167.472	n/a	WORD	1083736	wordpools/wasnorm_wordpool.txt	LTP111	ltpFR	9	9	0	WHEAT	1602	n/a	n/a	0	n/a	0	0	0	0.422607421875	0.5869140625	0	lower	amplitud.ttf
2171.36	n/a	WORD	1085680	wordpools/wasnorm_wordpool.txt	LTP111	ltpFR	9	9	0	CUP	424	n/a	n/a	0	n/a	0	0	0	0.422607421875	0.5869140625	0	lower	amplitud.ttf
2175.246	n/a	WORD	1087623	wordpools/wasnorm_wordpool.txt	LTP111	ltpFR	9	9	0	CHEST	295	n/a	n/a	0	n/a	0	0	0	0.422607421875	0.5869140625	0	lower	amplitud.ttf
2179.176	n/a	WORD	1089588	wordpools/wasnorm_wordpool.txt	LTP111	ltpFR	9	9	0	REFEREE	1178	n/a	n/a	0	n/a	0	0	0	0.422607421875	0.5869140625	0	lower	amplitud.ttf
2183.212	n/a	WORD	1091606	wordpools/wasnorm_wordpool.txt	LTP111	ltpFR	9	9	0	STADIUM	1364	n/a	n/a	1	n/a	0	0	0	0.422607421875	0.5869140625	0	lower	amplitud.ttf
2187.126	n/a	WORD	1093563	wordpools/wasnorm_wordpool.txt	LTP111	ltpFR	9	9	0	CORN	381	n/a	n/a	0	n/a	0	0	0	0.422607421875	0.5869140625	0	lower	amplitud.ttf
2191.112	n/a	WORD	1095556	wordpools/wasnorm_wordpool.txt	LTP111	ltpFR	9	9	0	SAUSAGE	1238	n/a	n/a	0	n/a	0	0	0	0.422607421875	0.5869140625	0	lower	amplitud.ttf
2195.174	n/a	WORD	1097587	wordpools/wasnorm_wordpool.txt	LTP111	ltpFR	9	9	0	COB	334	n/a	n/a	0	n/a	0	0	0	0.422607421875	0.5869140625	0	lower	amplitud.ttf
2199.144	n/a	WORD	1099572	wordpools/wasnorm_wordpool.txt	LTP111	ltpFR	9	9	0	COSTUME	383	n/a	n/a	0	n/a	0	0	0	0.422607421875	0.5869140625	0	lower	amplitud.ttf
2203.24	n/a	WORD	1101620	wordpools/wasnorm_wordpool.txt	LTP111	ltpFR	9	9	0	SAUCER	1237	n/a	n/a	0	n/a	0	0	0	0.422607421875	0.5869140625	0	lower	amplitud.ttf
2207.334	n/a	WORD	1103667	wordpools/wasnorm_wordpool.txt	LTP111	ltpFR	9	9	0	JAR	750	n/a	n/a	0	n/a	0	0	0	0.422607421875	0.5869140625	0	lower	amplitud.ttf
2211.488	n/a	WORD	1105744	wordpools/wasnorm_wordpool.txt	LTP111	ltpFR	9	9	0	RAISIN	1163	n/a	n/a	0	n/a	0	0	0	0.422607421875	0.5869140625	0	lower	amplitud.ttf
2215.526	n/a	WORD	1107763	wordpools/wasnorm_wordpool.txt	LTP111	ltpFR	9	9	0	STRAWBERRY	1391	n/a	n/a	0	n/a	0	0	0	0.422607421875	0.5869140625	0	lower	amplitud.ttf
2218.53	n/a	START	1109265	n/a	LTP111	ltpFR	9	n/a	n/a	n/a	n/a	n/a	n/a	n/a	n/a	n/a	n/a	n/a	n/a	n/a	n/a	n/a	n/a
2219.462	n/a	PROB	1109731	n/a	LTP111	ltpFR	9	n/a	n/a	n/a	n/a	n/a	n/a	n/a	12	3	2	7	n/a	n/a	n/a	n/a	n/a
2222.81	n/a	PROB	1111405	n/a	LTP111	ltpFR	9	n/a	n/a	n/a	n/a	n/a	n/a	n/a	5	1	3	1	n/a	n/a	n/a	n/a	n/a
2226.53	n/a	STOP	1113265	n/a	LTP111	ltpFR	9	n/a	n/a	n/a	n/a	n/a	n/a	n/a	n/a	n/a	n/a	n/a	n/a	n/a	n/a	n/a	n/a
2228.452	n/a	REC_START	1114226	n/a	LTP111	ltpFR	9	9	n/a	n/a	n/a	n/a	n/a	n/a	n/a	0	0	0	n/a	n/a	n/a	n/a	n/a
2233.242	n/a	REC_WORD	1116621	wordpools/wasnorm_wordpool.txt	LTP111	ltpFR	9	9	0	WELL	1600	n/a	n/a	0	n/a	0	0	0	n/a	n/a	n/a	n/a	n/a
2235.256	n/a	REC_WORD	1117628	wordpools/wasnorm_wordpool.txt	LTP111	ltpFR	9	9	0	NICKEL	950	n/a	n/a	0	n/a	0	0	0	n/a	n/a	n/a	n/a	n/a
2237.476	n/a	REC_WORD	1118738	wordpools/wasnorm_wordpool.txt	LTP111	ltpFR	9	9	0	TRENCH	1503	n/a	n/a	0	n/a	0	0	0	n/a	n/a	n/a	n/a	n/a
2241.428	n/a	REC_WORD	1120714	wordpools/wasnorm_wordpool.txt	LTP111	ltpFR	9	9	0	REFEREE	1178	n/a	n/a	0	n/a	0	0	0	n/a	n/a	n/a	n/a	n/a
2243.692	n/a	REC_WORD	1121846	wordpools/wasnorm_wordpool.txt	LTP111	ltpFR	9	9	0	STADIUM	1364	n/a	n/a	1	n/a	0	0	0	n/a	n/a	n/a	n/a	n/a
2246.236	n/a	REC_WORD	1123118	wordpools/wasnorm_wordpool.txt	LTP111	ltpFR	9	9	0	COSTUME	383	n/a	n/a	0	n/a	0	0	0	n/a	n/a	n/a	n/a	n/a
2249.874	n/a	REC_WORD	1124937	wordpools/wasnorm_wordpool.txt	LTP111	ltpFR	9	9	0	CHEST	295	n/a	n/a	0	n/a	0	0	0	n/a	n/a	n/a	n/a	n/a
2253.824	n/a	REC_WORD	1126912	wordpools/wasnorm_wordpool.txt	LTP111	ltpFR	9	9	0	WHEAT	1602	n/a	n/a	0	n/a	0	0	0	n/a	n/a	n/a	n/a	n/a
2256.084	n/a	REC_WORD	1128042	wordpools/wasnorm_wordpool.txt	LTP111	ltpFR	9	9	0	CORN	381	n/a	n/a	0	n/a	0	0	0	n/a	n/a	n/a	n/a	n/a
2258.688	n/a	REC_WORD	1129344	wordpools/wasnorm_wordpool.txt	LTP111	ltpFR	9	9	0	COB	334	n/a	n/a	0	n/a	0	0	0	n/a	n/a	n/a	n/a	n/a
2262.34	n/a	REC_WORD	1131170	wordpools/wasnorm_wordpool.txt	LTP111	ltpFR	9	9	0	JAR	750	n/a	n/a	0	n/a	0	0	0	n/a	n/a	n/a	n/a	n/a
2264.632	n/a	REC_WORD	1132316	wordpools/wasnorm_wordpool.txt	LTP111	ltpFR	9	9	0	STRAWBERRY	1391	n/a	n/a	0	n/a	0	0	0	n/a	n/a	n/a	n/a	n/a
2272.308	n/a	REC_WORD	1136154	wordpools/wasnorm_wordpool.txt	LTP111	ltpFR	9	9	0	RAISIN	1163	n/a	n/a	0	n/a	0	0	0	n/a	n/a	n/a	n/a	n/a
2310.718	n/a	START	1155359	n/a	LTP111	ltpFR	9	n/a	n/a	n/a	n/a	n/a	n/a	n/a	n/a	n/a	n/a	n/a	n/a	n/a	n/a	n/a	n/a
2312.222	n/a	PROB	1156111	n/a	LTP111	ltpFR	9	n/a	n/a	n/a	n/a	n/a	n/a	n/a	24	8	8	8	n/a	n/a	n/a	n/a	n/a
2315.702	n/a	PROB	1157851	n/a	LTP111	ltpFR	9	n/a	n/a	n/a	n/a	n/a	n/a	n/a	12	1	3	8	n/a	n/a	n/a	n/a	n/a
2317.758	n/a	PROB	1158879	n/a	LTP111	ltpFR	9	n/a	n/a	n/a	n/a	n/a	n/a	n/a	16	7	5	6	n/a	n/a	n/a	n/a	n/a
2320.988	n/a	PROB	1160494	n/a	LTP111	ltpFR	9	n/a	n/a	n/a	n/a	n/a	n/a	n/a	19	9	3	6	n/a	n/a	n/a	n/a	n/a
2326.718	n/a	STOP	1163359	n/a	LTP111	ltpFR	9	n/a	n/a	n/a	n/a	n/a	n/a	n/a	n/a	n/a	n/a	n/a	n/a	n/a	n/a	n/a	n/a
2327.822	n/a	WORD	1163911	wordpools/wasnorm_wordpool.txt	LTP111	ltpFR	9	10	0	PELT	1040	n/a	n/a	0	n/a	0	0	0	0.422607421875	0.5869140625	0	lower	amplitud.ttf
2330.828	n/a	START	1165414	n/a	LTP111	ltpFR	9	n/a	n/a	n/a	n/a	n/a	n/a	n/a	n/a	n/a	n/a	n/a	n/a	n/a	n/a	n/a	n/a
2331.734	n/a	PROB	1165867	n/a	LTP111	ltpFR	9	n/a	n/a	n/a	n/a	n/a	n/a	n/a	17	2	8	7	n/a	n/a	n/a	n/a	n/a
2334.272	n/a	PROB	1167136	n/a	LTP111	ltpFR	9	n/a	n/a	n/a	n/a	n/a	n/a	n/a	18	9	2	7	n/a	n/a	n/a	n/a	n/a
2336.92	n/a	PROB	1168460	n/a	LTP111	ltpFR	9	n/a	n/a	n/a	n/a	n/a	n/a	n/a	14	9	4	1	n/a	n/a	n/a	n/a	n/a
2338.442	n/a	PROB	1169221	n/a	LTP111	ltpFR	9	n/a	n/a	n/a	n/a	n/a	n/a	n/a	11	2	6	3	n/a	n/a	n/a	n/a	n/a
2340.808	n/a	PROB	1170404	n/a	LTP111	ltpFR	9	n/a	n/a	n/a	n/a	n/a	n/a	n/a	11	1	8	2	n/a	n/a	n/a	n/a	n/a
2346.828	n/a	STOP	1173414	n/a	LTP111	ltpFR	9	n/a	n/a	n/a	n/a	n/a	n/a	n/a	n/a	n/a	n/a	n/a	n/a	n/a	n/a	n/a	n/a
2347.934	n/a	WORD	1173967	wordpools/wasnorm_wordpool.txt	LTP111	ltpFR	9	10	0	BELT	120	n/a	n/a	0	n/a	0	0	0	0.422607421875	0.5869140625	0	lower	amplitud.ttf
2350.938	n/a	START	1175469	n/a	LTP111	ltpFR	9	n/a	n/a	n/a	n/a	n/a	n/a	n/a	n/a	n/a	n/a	n/a	n/a	n/a	n/a	n/a	n/a
2351.786	n/a	PROB	1175893	n/a	LTP111	ltpFR	9	n/a	n/a	n/a	n/a	n/a	n/a	n/a	17	5	4	8	n/a	n/a	n/a	n/a	n/a
2357.212	n/a	PROB	1178606	n/a	LTP111	ltpFR	9	n/a	n/a	n/a	n/a	n/a	n/a	n/a	16	2	6	8	n/a	n/a	n/a	n/a	n/a
2360.002	n/a	PROB	1180001	n/a	LTP111	ltpFR	9	n/a	n/a	n/a	n/a	n/a	n/a	n/a	12	4	2	6	n/a	n/a	n/a	n/a	n/a
2366.938	n/a	STOP	1183469	n/a	LTP111	ltpFR	9	n/a	n/a	n/a	n/a	n/a	n/a	n/a	n/a	n/a	n/a	n/a	n/a	n/a	n/a	n/a	n/a
2367.96	n/a	WORD	1183980	wordpools/wasnorm_wordpool.txt	LTP111	ltpFR	9	10	0	HERB	704	n/a	n/a	n/a	n/a	0	0	0	0.422607421875	0.5869140625	0	lower	amplitud.ttf
2370.982	n/a	SLOW_MSG	1185491	n/a	LTP111	ltpFR	9	10	n/a	n/a	n/a	n/a	n/a	n/a	n/a	0	0	0	n/a	n/a	n/a	n/a	n/a
2372.496	n/a	START	1186248	n/a	LTP111	ltpFR	9	n/a	n/a	n/a	n/a	n/a	n/a	n/a	n/a	n/a	n/a	n/a	n/a	n/a	n/a	n/a	n/a
2373.302	n/a	PROB	1186651	n/a	LTP111	ltpFR	9	n/a	n/a	n/a	n/a	n/a	n/a	n/a	20	9	9	2	n/a	n/a	n/a	n/a	n/a
2376.924	n/a	PROB	1188462	n/a	LTP111	ltpFR	9	n/a	n/a	n/a	n/a	n/a	n/a	n/a	11	3	2	6	n/a	n/a	n/a	n/a	n/a
2382.86	n/a	PROB	1191430	n/a	LTP111	ltpFR	9	n/a	n/a	n/a	n/a	n/a	n/a	n/a	14	9	1	4	n/a	n/a	n/a	n/a	n/a
2385.272	n/a	PROB	1192636	n/a	LTP111	ltpFR	9	n/a	n/a	n/a	n/a	n/a	n/a	n/a	16	2	7	9	n/a	n/a	n/a	n/a	n/a
2387.766	n/a	STOP	1193883	n/a	LTP111	ltpFR	9	n/a	n/a	n/a	n/a	n/a	n/a	n/a	n/a	n/a	n/a	n/a	n/a	n/a	n/a	n/a	n/a
2389.652	n/a	WORD	1194826	wordpools/wasnorm_wordpool.txt	LTP111	ltpFR	9	10	0	PEBBLE	1035	n/a	n/a	0	n/a	0	0	0	0.422607421875	0.5869140625	0	lower	amplitud.ttf
2392.656	n/a	START	1196328	n/a	LTP111	ltpFR	9	n/a	n/a	n/a	n/a	n/a	n/a	n/a	n/a	n/a	n/a	n/a	n/a	n/a	n/a	n/a	n/a
2393.462	n/a	PROB	1196731	n/a	LTP111	ltpFR	9	n/a	n/a	n/a	n/a	n/a	n/a	n/a	15	3	7	5	n/a	n/a	n/a	n/a	n/a
2401.104	n/a	PROB	1200552	n/a	LTP111	ltpFR	9	n/a	n/a	n/a	n/a	n/a	n/a	n/a	17	7	7	3	n/a	n/a	n/a	n/a	n/a
2404.35	n/a	PROB	1202175	n/a	LTP111	ltpFR	9	n/a	n/a	n/a	n/a	n/a	n/a	n/a	13	4	6	3	n/a	n/a	n/a	n/a	n/a
2408.656	n/a	STOP	1204328	n/a	LTP111	ltpFR	9	n/a	n/a	n/a	n/a	n/a	n/a	n/a	n/a	n/a	n/a	n/a	n/a	n/a	n/a	n/a	n/a
2409.762	n/a	WORD	1204881	wordpools/wasnorm_wordpool.txt	LTP111	ltpFR	9	10	0	COTTAGE	384	n/a	n/a	1	n/a	0	0	0	0.422607421875	0.5869140625	0	lower	amplitud.ttf
2412.766	n/a	START	1206383	n/a	LTP111	ltpFR	9	n/a	n/a	n/a	n/a	n/a	n/a	n/a	n/a	n/a	n/a	n/a	n/a	n/a	n/a	n/a	n/a
2413.948	n/a	PROB	1206974	n/a	LTP111	ltpFR	9	n/a	n/a	n/a	n/a	n/a	n/a	n/a	11	5	1	5	n/a	n/a	n/a	n/a	n/a
2415.954	n/a	PROB	1207977	n/a	LTP111	ltpFR	9	n/a	n/a	n/a	n/a	n/a	n/a	n/a	18	5	8	5	n/a	n/a	n/a	n/a	n/a
2419.324	n/a	PROB	1209662	n/a	LTP111	ltpFR	9	n/a	n/a	n/a	n/a	n/a	n/a	n/a	20	5	7	8	n/a	n/a	n/a	n/a	n/a
2428.768	n/a	STOP	1214384	n/a	LTP111	ltpFR	9	n/a	n/a	n/a	n/a	n/a	n/a	n/a	n/a	n/a	n/a	n/a	n/a	n/a	n/a	n/a	n/a
2429.672	n/a	WORD	1214836	wordpools/wasnorm_wordpool.txt	LTP111	ltpFR	9	10	0	PEPPER	1047	n/a	n/a	0	n/a	0	0	0	0.422607421875	0.5869140625	0	lower	amplitud.ttf
2432.678	n/a	START	1216339	n/a	LTP111	ltpFR	9	n/a	n/a	n/a	n/a	n/a	n/a	n/a	n/a	n/a	n/a	n/a	n/a	n/a	n/a	n/a	n/a
2433.76	n/a	PROB	1216880	n/a	LTP111	ltpFR	9	n/a	n/a	n/a	n/a	n/a	n/a	n/a	24	6	9	9	n/a	n/a	n/a	n/a	n/a
2437.796	n/a	PROB	1218898	n/a	LTP111	ltpFR	9	n/a	n/a	n/a	n/a	n/a	n/a	n/a	9	2	5	2	n/a	n/a	n/a	n/a	n/a
2441.892	n/a	PROB	1220946	n/a	LTP111	ltpFR	9	n/a	n/a	n/a	n/a	n/a	n/a	n/a	17	9	4	5	n/a	n/a	n/a	n/a	n/a
2448.062	n/a	STOP	1224031	n/a	LTP111	ltpFR	9	n/a	n/a	n/a	n/a	n/a	n/a	n/a	n/a	n/a	n/a	n/a	n/a	n/a	n/a	n/a	n/a
2449.658	n/a	WORD	1224829	wordpools/wasnorm_wordpool.txt	LTP111	ltpFR	9	10	0	TOASTER	1472	n/a	n/a	0	n/a	0	0	0	0.422607421875	0.5869140625	0	lower	amplitud.ttf
2452.662	n/a	START	1226331	n/a	LTP111	ltpFR	9	n/a	n/a	n/a	n/a	n/a	n/a	n/a	n/a	n/a	n/a	n/a	n/a	n/a	n/a	n/a	n/a
2453.862	n/a	PROB	1226931	n/a	LTP111	ltpFR	9	n/a	n/a	n/a	n/a	n/a	n/a	n/a	19	9	8	2	n/a	n/a	n/a	n/a	n/a
2457.856	n/a	PROB	1228928	n/a	LTP111	ltpFR	9	n/a	n/a	n/a	n/a	n/a	n/a	n/a	13	3	4	6	n/a	n/a	n/a	n/a	n/a
2461.552	n/a	PROB	1230776	n/a	LTP111	ltpFR	9	n/a	n/a	n/a	n/a	n/a	n/a	n/a	20	8	5	7	n/a	n/a	n/a	n/a	n/a
2466.254	n/a	PROB	1233127	n/a	LTP111	ltpFR	9	n/a	n/a	n/a	n/a	n/a	n/a	n/a	13	1	3	9	n/a	n/a	n/a	n/a	n/a
2468.254	n/a	STOP	1234127	n/a	LTP111	ltpFR	9	n/a	n/a	n/a	n/a	n/a	n/a	n/a	n/a	n/a	n/a	n/a	n/a	n/a	n/a	n/a	n/a
2469.584	n/a	WORD	1234792	wordpools/wasnorm_wordpool.txt	LTP111	ltpFR	9	10	0	THIGH	1457	n/a	n/a	0	n/a	0	0	0	0.422607421875	0.5869140625	0	lower	amplitud.ttf
2472.59	n/a	START	1236295	n/a	LTP111	ltpFR	9	n/a	n/a	n/a	n/a	n/a	n/a	n/a	n/a	n/a	n/a	n/a	n/a	n/a	n/a	n/a	n/a
2473.504	n/a	PROB	1236752	n/a	LTP111	ltpFR	9	n/a	n/a	n/a	n/a	n/a	n/a	n/a	13	3	7	3	n/a	n/a	n/a	n/a	n/a
2482.518	n/a	PROB	1241259	n/a	LTP111	ltpFR	9	n/a	n/a	n/a	n/a	n/a	n/a	n/a	15	2	9	3	n/a	n/a	n/a	n/a	n/a
2488.59	n/a	STOP	1244295	n/a	LTP111	ltpFR	9	n/a	n/a	n/a	n/a	n/a	n/a	n/a	n/a	n/a	n/a	n/a	n/a	n/a	n/a	n/a	n/a
2489.41	n/a	WORD	1244705	wordpools/wasnorm_wordpool.txt	LTP111	ltpFR	9	10	0	BRIDGE	174	n/a	n/a	1	n/a	0	0	0	0.422607421875	0.5869140625	0	lower	amplitud.ttf
2492.416	n/a	START	1246208	n/a	LTP111	ltpFR	9	n/a	n/a	n/a	n/a	n/a	n/a	n/a	n/a	n/a	n/a	n/a	n/a	n/a	n/a	n/a	n/a
2493.256	n/a	PROB	1246628	n/a	LTP111	ltpFR	9	n/a	n/a	n/a	n/a	n/a	n/a	n/a	14	8	1	5	n/a	n/a	n/a	n/a	n/a
2496.662	n/a	PROB	1248331	n/a	LTP111	ltpFR	9	n/a	n/a	n/a	n/a	n/a	n/a	n/a	14	7	5	2	n/a	n/a	n/a	n/a	n/a
2501.348	n/a	PROB	1250674	n/a	LTP111	ltpFR	9	n/a	n/a	n/a	n/a	n/a	n/a	n/a	13	4	2	7	n/a	n/a	n/a	n/a	n/a
2505.636	n/a	PROB	1252818	n/a	LTP111	ltpFR	9	n/a	n/a	n/a	n/a	n/a	n/a	n/a	11	1	8	2	n/a	n/a	n/a	n/a	n/a
2507.8	n/a	STOP	1253900	n/a	LTP111	ltpFR	9	n/a	n/a	n/a	n/a	n/a	n/a	n/a	n/a	n/a	n/a	n/a	n/a	n/a	n/a	n/a	n/a
2509.346	n/a	WORD	1254673	wordpools/wasnorm_wordpool.txt	LTP111	ltpFR	9	10	0	SURF	1412	n/a	n/a	0	n/a	0	0	0	0.422607421875	0.5869140625	0	lower	amplitud.ttf
2512.352	n/a	START	1256176	n/a	LTP111	ltpFR	9	n/a	n/a	n/a	n/a	n/a	n/a	n/a	n/a	n/a	n/a	n/a	n/a	n/a	n/a	n/a	n/a
2513.55	n/a	PROB	1256775	n/a	LTP111	ltpFR	9	n/a	n/a	n/a	n/a	n/a	n/a	n/a	12	5	5	2	n/a	n/a	n/a	n/a	n/a
2515.264	n/a	PROB	1257632	n/a	LTP111	ltpFR	9	n/a	n/a	n/a	n/a	n/a	n/a	n/a	20	5	8	7	n/a	n/a	n/a	n/a	n/a
2518.612	n/a	PROB	1259306	n/a	LTP111	ltpFR	9	n/a	n/a	n/a	n/a	n/a	n/a	n/a	6	1	2	3	n/a	n/a	n/a	n/a	n/a
2520.742	n/a	PROB	1260371	n/a	LTP111	ltpFR	9	n/a	n/a	n/a	n/a	n/a	n/a	n/a	15	4	7	4	n/a	n/a	n/a	n/a	n/a
2528.352	n/a	STOP	1264176	n/a	LTP111	ltpFR	9	n/a	n/a	n/a	n/a	n/a	n/a	n/a	n/a	n/a	n/a	n/a	n/a	n/a	n/a	n/a	n/a
2529.306	n/a	WORD	1264653	wordpools/wasnorm_wordpool.txt	LTP111	ltpFR	9	10	0	SUITCASE	1403	n/a	n/a	0	n/a	0	0	0	0.422607421875	0.5869140625	0	lower	amplitud.ttf
2532.312	n/a	START	1266156	n/a	LTP111	ltpFR	9	n/a	n/a	n/a	n/a	n/a	n/a	n/a	n/a	n/a	n/a	n/a	n/a	n/a	n/a	n/a	n/a
2533.452	n/a	PROB	1266726	n/a	LTP111	ltpFR	9	n/a	n/a	n/a	n/a	n/a	n/a	n/a	12	1	5	6	n/a	n/a	n/a	n/a	n/a
2535.474	n/a	PROB	1267737	n/a	LTP111	ltpFR	9	n/a	n/a	n/a	n/a	n/a	n/a	n/a	13	5	2	6	n/a	n/a	n/a	n/a	n/a
2539.096	n/a	PROB	1269548	n/a	LTP111	ltpFR	9	n/a	n/a	n/a	n/a	n/a	n/a	n/a	13	4	1	7	n/a	n/a	n/a	n/a	n/a
2543.54	n/a	PROB	1271770	n/a	LTP111	ltpFR	9	n/a	n/a	n/a	n/a	n/a	n/a	n/a	14	8	4	2	n/a	n/a	n/a	n/a	n/a
2548.312	n/a	STOP	1274156	n/a	LTP111	ltpFR	9	n/a	n/a	n/a	n/a	n/a	n/a	n/a	n/a	n/a	n/a	n/a	n/a	n/a	n/a	n/a	n/a
2549.192	n/a	WORD	1274596	wordpools/wasnorm_wordpool.txt	LTP111	ltpFR	9	10	0	VICTIM	1562	n/a	n/a	0	n/a	0	0	0	0.422607421875	0.5869140625	0	lower	amplitud.ttf
2552.198	n/a	START	1276099	n/a	LTP111	ltpFR	9	n/a	n/a	n/a	n/a	n/a	n/a	n/a	n/a	n/a	n/a	n/a	n/a	n/a	n/a	n/a	n/a
2553.262	n/a	PROB	1276631	n/a	LTP111	ltpFR	9	n/a	n/a	n/a	n/a	n/a	n/a	n/a	10	6	3	1	n/a	n/a	n/a	n/a	n/a
2556.826	n/a	PROB	1278413	n/a	LTP111	ltpFR	9	n/a	n/a	n/a	n/a	n/a	n/a	n/a	19	4	6	9	n/a	n/a	n/a	n/a	n/a
2559.806	n/a	PROB	1279903	n/a	LTP111	ltpFR	9	n/a	n/a	n/a	n/a	n/a	n/a	n/a	19	4	7	8	n/a	n/a	n/a	n/a	n/a
2568.198	n/a	STOP	1284099	n/a	LTP111	ltpFR	9	n/a	n/a	n/a	n/a	n/a	n/a	n/a	n/a	n/a	n/a	n/a	n/a	n/a	n/a	n/a	n/a
2569.144	n/a	WORD	1284572	wordpools/wasnorm_wordpool.txt	LTP111	ltpFR	9	10	0	SATURN	1236	n/a	n/a	1	n/a	0	0	0	0.422607421875	0.5869140625	0	lower	amplitud.ttf
2572.15	n/a	START	1286075	n/a	LTP111	ltpFR	9	n/a	n/a	n/a	n/a	n/a	n/a	n/a	n/a	n/a	n/a	n/a	n/a	n/a	n/a	n/a	n/a
2573.106	n/a	PROB	1286553	n/a	LTP111	ltpFR	9	n/a	n/a	n/a	n/a	n/a	n/a	n/a	9	2	5	2	n/a	n/a	n/a	n/a	n/a
2576.536	n/a	PROB	1288268	n/a	LTP111	ltpFR	9	n/a	n/a	n/a	n/a	n/a	n/a	n/a	19	9	7	3	n/a	n/a	n/a	n/a	n/a
2579.292	n/a	PROB	1289646	n/a	LTP111	ltpFR	9	n/a	n/a	n/a	n/a	n/a	n/a	n/a	23	7	7	9	n/a	n/a	n/a	n/a	n/a
2587.368	n/a	STOP	1293684	n/a	LTP111	ltpFR	9	n/a	n/a	n/a	n/a	n/a	n/a	n/a	n/a	n/a	n/a	n/a	n/a	n/a	n/a	n/a	n/a
2589.022	n/a	WORD	1294511	wordpools/wasnorm_wordpool.txt	LTP111	ltpFR	9	10	0	MARS	873	n/a	n/a	0	n/a	0	0	0	0.422607421875	0.5869140625	0	lower	amplitud.ttf
2592.028	n/a	START	1296014	n/a	LTP111	ltpFR	9	n/a	n/a	n/a	n/a	n/a	n/a	n/a	n/a	n/a	n/a	n/a	n/a	n/a	n/a	n/a	n/a
2592.852	n/a	PROB	1296426	n/a	LTP111	ltpFR	9	n/a	n/a	n/a	n/a	n/a	n/a	n/a	20	7	7	6	n/a	n/a	n/a	n/a	n/a
2596.106	n/a	PROB	1298053	n/a	LTP111	ltpFR	9	n/a	n/a	n/a	n/a	n/a	n/a	n/a	20	9	6	7	n/a	n/a	n/a	n/a	n/a
2608.028	n/a	STOP	1304014	n/a	LTP111	ltpFR	9	n/a	n/a	n/a	n/a	n/a	n/a	n/a	n/a	n/a	n/a	n/a	n/a	n/a	n/a	n/a	n/a
2609.24	n/a	WORD	1304620	wordpools/wasnorm_wordpool.txt	LTP111	ltpFR	9	10	0	CLOVE	329	n/a	n/a	0	n/a	0	0	0	0.422607421875	0.5869140625	0	lower	amplitud.ttf
2612.246	n/a	START	1306123	n/a	LTP111	ltpFR	9	n/a	n/a	n/a	n/a	n/a	n/a	n/a	n/a	n/a	n/a	n/a	n/a	n/a	n/a	n/a	n/a
2613.376	n/a	PROB	1306688	n/a	LTP111	ltpFR	9	n/a	n/a	n/a	n/a	n/a	n/a	n/a	25	9	8	8	n/a	n/a	n/a	n/a	n/a
2621.4	n/a	PROB	1310700	n/a	LTP111	ltpFR	9	n/a	n/a	n/a	n/a	n/a	n/a	n/a	15	5	2	8	n/a	n/a	n/a	n/a	n/a
2623.608	n/a	PROB	1311804	n/a	LTP111	ltpFR	9	n/a	n/a	n/a	n/a	n/a	n/a	n/a	19	7	5	7	n/a	n/a	n/a	n/a	n/a
2627.584	n/a	STOP	1313792	n/a	LTP111	ltpFR	9	n/a	n/a	n/a	n/a	n/a	n/a	n/a	n/a	n/a	n/a	n/a	n/a	n/a	n/a	n/a	n/a
2629.334	n/a	WORD	1314667	wordpools/wasnorm_wordpool.txt	LTP111	ltpFR	9	10	0	VILLAGE	1566	n/a	n/a	0	n/a	0	0	0	0.422607421875	0.5869140625	0	lower	amplitud.ttf
2632.338	n/a	START	1316169	n/a	LTP111	ltpFR	9	n/a	n/a	n/a	n/a	n/a	n/a	n/a	n/a	n/a	n/a	n/a	n/a	n/a	n/a	n/a	n/a
2633.17	n/a	PROB	1316585	n/a	LTP111	ltpFR	9	n/a	n/a	n/a	n/a	n/a	n/a	n/a	14	4	7	3	n/a	n/a	n/a	n/a	n/a
2635.36	n/a	PROB	1317680	n/a	LTP111	ltpFR	9	n/a	n/a	n/a	n/a	n/a	n/a	n/a	21	7	5	9	n/a	n/a	n/a	n/a	n/a
2638.874	n/a	PROB	1319437	n/a	LTP111	ltpFR	9	n/a	n/a	n/a	n/a	n/a	n/a	n/a	15	4	9	4	n/a	n/a	n/a	n/a	n/a
2645.04	n/a	PROB	1322520	n/a	LTP111	ltpFR	9	n/a	n/a	n/a	n/a	n/a	n/a	n/a	13	1	5	7	n/a	n/a	n/a	n/a	n/a
2647.696	n/a	STOP	1323848	n/a	LTP111	ltpFR	9	n/a	n/a	n/a	n/a	n/a	n/a	n/a	n/a	n/a	n/a	n/a	n/a	n/a	n/a	n/a	n/a
2650.21	n/a	REC_START	1325105	n/a	LTP111	ltpFR	9	10	n/a	n/a	n/a	n/a	n/a	n/a	n/a	0	0	0	n/a	n/a	n/a	n/a	n/a
2653.446	n/a	REC_WORD	1326723	wordpools/wasnorm_wordpool.txt	LTP111	ltpFR	9	10	0	PELT	1040	n/a	n/a	0	n/a	0	0	0	n/a	n/a	n/a	n/a	n/a
2653.936	n/a	REC_WORD	1326968	wordpools/wasnorm_wordpool.txt	LTP111	ltpFR	9	10	0	BELT	120	n/a	n/a	0	n/a	0	0	0	n/a	n/a	n/a	n/a	n/a
2654.524	n/a	REC_WORD	1327262	wordpools/wasnorm_wordpool.txt	LTP111	ltpFR	9	10	0	PEBBLE	1035	n/a	n/a	0	n/a	0	0	0	n/a	n/a	n/a	n/a	n/a
2655.518	n/a	REC_WORD	1327759	wordpools/wasnorm_wordpool.txt	LTP111	ltpFR	9	10	0	COTTAGE	384	n/a	n/a	1	n/a	0	0	0	n/a	n/a	n/a	n/a	n/a
2657.728	n/a	REC_WORD	1328864	wordpools/wasnorm_wordpool.txt	LTP111	ltpFR	9	10	0	TOASTER	1472	n/a	n/a	0	n/a	0	0	0	n/a	n/a	n/a	n/a	n/a
2660.826	n/a	REC_WORD	1330413	wordpools/wasnorm_wordpool.txt	LTP111	ltpFR	9	10	0	CLOVE	329	n/a	n/a	0	n/a	0	0	0	n/a	n/a	n/a	n/a	n/a
2663.534	n/a	REC_WORD	1331767	wordpools/wasnorm_wordpool.txt	LTP111	ltpFR	9	10	0	VILLAGE	1566	n/a	n/a	0	n/a	0	0	0	n/a	n/a	n/a	n/a	n/a
2664.358	n/a	REC_WORD	1332179	wordpools/wasnorm_wordpool.txt	LTP111	ltpFR	9	10	0	BRIDGE	174	n/a	n/a	1	n/a	0	0	0	n/a	n/a	n/a	n/a	n/a
2665.03	n/a	REC_WORD	1332515	wordpools/wasnorm_wordpool.txt	LTP111	ltpFR	9	10	0	SURF	1412	n/a	n/a	0	n/a	0	0	0	n/a	n/a	n/a	n/a	n/a
2725.806	n/a	REST_REWET	1362903	n/a	LTP111	ltpFR	9	10	n/a	n/a	n/a	n/a	n/a	n/a	n/a	0	0	0	n/a	n/a	n/a	n/a	n/a
3204.156	n/a	START	1602078	n/a	LTP111	ltpFR	9	n/a	n/a	n/a	n/a	n/a	n/a	n/a	n/a	n/a	n/a	n/a	n/a	n/a	n/a	n/a	n/a
3205.664	n/a	PROB	1602832	n/a	LTP111	ltpFR	9	n/a	n/a	n/a	n/a	n/a	n/a	n/a	9	3	3	3	n/a	n/a	n/a	n/a	n/a
3207.604	n/a	PROB	1603802	n/a	LTP111	ltpFR	9	n/a	n/a	n/a	n/a	n/a	n/a	n/a	14	6	1	7	n/a	n/a	n/a	n/a	n/a
3212.156	n/a	STOP	1606078	n/a	LTP111	ltpFR	9	n/a	n/a	n/a	n/a	n/a	n/a	n/a	n/a	n/a	n/a	n/a	n/a	n/a	n/a	n/a	n/a
3213.346	n/a	WORD	1606673	wordpools/wasnorm_wordpool.txt	LTP111	ltpFR	9	11	0	OPERATOR	979	n/a	n/a	0	n/a	0	0	0	0.422607421875	0.5869140625	0	lower	amplitud.ttf
3216.352	n/a	START	1608176	n/a	LTP111	ltpFR	9	n/a	n/a	n/a	n/a	n/a	n/a	n/a	n/a	n/a	n/a	n/a	n/a	n/a	n/a	n/a	n/a
3217.508	n/a	PROB	1608754	n/a	LTP111	ltpFR	9	n/a	n/a	n/a	n/a	n/a	n/a	n/a	13	7	1	5	n/a	n/a	n/a	n/a	n/a
3219.898	n/a	PROB	1609949	n/a	LTP111	ltpFR	9	n/a	n/a	n/a	n/a	n/a	n/a	n/a	14	7	6	1	n/a	n/a	n/a	n/a	n/a
3222.832	n/a	STOP	1611416	n/a	LTP111	ltpFR	9	n/a	n/a	n/a	n/a	n/a	n/a	n/a	n/a	n/a	n/a	n/a	n/a	n/a	n/a	n/a	n/a
3225.25	n/a	WORD	1612625	wordpools/wasnorm_wordpool.txt	LTP111	ltpFR	9	11	0	SWIMMER	1420	n/a	n/a	0	n/a	0	0	0	0.422607421875	0.5869140625	0	lower	amplitud.ttf
3228.254	n/a	START	1614127	n/a	LTP111	ltpFR	9	n/a	n/a	n/a	n/a	n/a	n/a	n/a	n/a	n/a	n/a	n/a	n/a	n/a	n/a	n/a	n/a
3236.254	n/a	STOP	1618127	n/a	LTP111	ltpFR	9	n/a	n/a	n/a	n/a	n/a	n/a	n/a	n/a	n/a	n/a	n/a	n/a	n/a	n/a	n/a	n/a
3237.352	n/a	WORD	1618676	wordpools/wasnorm_wordpool.txt	LTP111	ltpFR	9	11	0	CAFE	216	n/a	n/a	0	n/a	0	0	0	0.422607421875	0.5869140625	0	lower	amplitud.ttf
3240.358	n/a	START	1620179	n/a	LTP111	ltpFR	9	n/a	n/a	n/a	n/a	n/a	n/a	n/a	n/a	n/a	n/a	n/a	n/a	n/a	n/a	n/a	n/a
3248.356	n/a	STOP	1624178	n/a	LTP111	ltpFR	9	n/a	n/a	n/a	n/a	n/a	n/a	n/a	n/a	n/a	n/a	n/a	n/a	n/a	n/a	n/a	n/a
3249.396	n/a	WORD	1624698	wordpools/wasnorm_wordpool.txt	LTP111	ltpFR	9	11	0	BANDANNA	80	n/a	n/a	0	n/a	0	0	0	0.422607421875	0.5869140625	0	lower	amplitud.ttf
3252.402	n/a	START	1626201	n/a	LTP111	ltpFR	9	n/a	n/a	n/a	n/a	n/a	n/a	n/a	n/a	n/a	n/a	n/a	n/a	n/a	n/a	n/a	n/a
3253.524	n/a	PROB	1626762	n/a	LTP111	ltpFR	9	n/a	n/a	n/a	n/a	n/a	n/a	n/a	18	7	8	3	n/a	n/a	n/a	n/a	n/a
3259.944	n/a	STOP	1629972	n/a	LTP111	ltpFR	9	n/a	n/a	n/a	n/a	n/a	n/a	n/a	n/a	n/a	n/a	n/a	n/a	n/a	n/a	n/a	n/a
3261.332	n/a	WORD	1630666	wordpools/wasnorm_wordpool.txt	LTP111	ltpFR	9	11	0	HEAD	695	n/a	n/a	0	n/a	0	0	0	0.422607421875	0.5869140625	0	lower	amplitud.ttf
3264.338	n/a	START	1632169	n/a	LTP111	ltpFR	9	n/a	n/a	n/a	n/a	n/a	n/a	n/a	n/a	n/a	n/a	n/a	n/a	n/a	n/a	n/a	n/a
3272.338	n/a	STOP	1636169	n/a	LTP111	ltpFR	9	n/a	n/a	n/a	n/a	n/a	n/a	n/a	n/a	n/a	n/a	n/a	n/a	n/a	n/a	n/a	n/a
3273.194	n/a	WORD	1636597	wordpools/wasnorm_wordpool.txt	LTP111	ltpFR	9	11	0	SECRETARY	1265	n/a	n/a	0	n/a	0	0	0	0.422607421875	0.5869140625	0	lower	amplitud.ttf
3276.198	n/a	START	1638099	n/a	LTP111	ltpFR	9	n/a	n/a	n/a	n/a	n/a	n/a	n/a	n/a	n/a	n/a	n/a	n/a	n/a	n/a	n/a	n/a
3277.322	n/a	PROB	1638661	n/a	LTP111	ltpFR	9	n/a	n/a	n/a	n/a	n/a	n/a	n/a	21	7	7	7	n/a	n/a	n/a	n/a	n/a
3278.872	n/a	PROB	1639436	n/a	LTP111	ltpFR	9	n/a	n/a	n/a	n/a	n/a	n/a	n/a	13	4	6	3	n/a	n/a	n/a	n/a	n/a
3284.198	n/a	STOP	1642099	n/a	LTP111	ltpFR	9	n/a	n/a	n/a	n/a	n/a	n/a	n/a	n/a	n/a	n/a	n/a	n/a	n/a	n/a	n/a	n/a
3285.396	n/a	WORD	1642698	wordpools/wasnorm_wordpool.txt	LTP111	ltpFR	9	11	1	SANDWICH	1232	n/a	n/a	0	n/a	0	0	0	0.57763671875	0.412841796875	1	upper	zerothre.ttf
3288.402	n/a	START	1644201	n/a	LTP111	ltpFR	9	n/a	n/a	n/a	n/a	n/a	n/a	n/a	n/a	n/a	n/a	n/a	n/a	n/a	n/a	n/a	n/a
3289.234	n/a	PROB	1644617	n/a	LTP111	ltpFR	9	n/a	n/a	n/a	n/a	n/a	n/a	n/a	14	4	6	4	n/a	n/a	n/a	n/a	n/a
3293.322	n/a	PROB	1646661	n/a	LTP111	ltpFR	9	n/a	n/a	n/a	n/a	n/a	n/a	n/a	18	8	9	1	n/a	n/a	n/a	n/a	n/a
3294.922	n/a	STOP	1647461	n/a	LTP111	ltpFR	9	n/a	n/a	n/a	n/a	n/a	n/a	n/a	n/a	n/a	n/a	n/a	n/a	n/a	n/a	n/a	n/a
3297.324	n/a	WORD	1648662	wordpools/wasnorm_wordpool.txt	LTP111	ltpFR	9	11	1	ACTRESS	6	n/a	n/a	0	n/a	0	0	0	0.57763671875	0.412841796875	1	upper	zerothre.ttf
3300.33	n/a	START	1650165	n/a	LTP111	ltpFR	9	n/a	n/a	n/a	n/a	n/a	n/a	n/a	n/a	n/a	n/a	n/a	n/a	n/a	n/a	n/a	n/a
3301.478	n/a	PROB	1650739	n/a	LTP111	ltpFR	9	n/a	n/a	n/a	n/a	n/a	n/a	n/a	23	8	6	9	n/a	n/a	n/a	n/a	n/a
3307.416	n/a	STOP	1653708	n/a	LTP111	ltpFR	9	n/a	n/a	n/a	n/a	n/a	n/a	n/a	n/a	n/a	n/a	n/a	n/a	n/a	n/a	n/a	n/a
3309.286	n/a	WORD	1654643	wordpools/wasnorm_wordpool.txt	LTP111	ltpFR	9	11	0	MARINE	869	n/a	n/a	0	n/a	0	0	0	0.422607421875	0.5869140625	0	lower	amplitud.ttf
3312.292	n/a	START	1656146	n/a	LTP111	ltpFR	9	n/a	n/a	n/a	n/a	n/a	n/a	n/a	n/a	n/a	n/a	n/a	n/a	n/a	n/a	n/a	n/a
3313.49	n/a	PROB	1656745	n/a	LTP111	ltpFR	9	n/a	n/a	n/a	n/a	n/a	n/a	n/a	11	4	1	6	n/a	n/a	n/a	n/a	n/a
3316.57	n/a	PROB	1658285	n/a	LTP111	ltpFR	9	n/a	n/a	n/a	n/a	n/a	n/a	n/a	11	7	3	1	n/a	n/a	n/a	n/a	n/a
3318.576	n/a	PROB	1659288	n/a	LTP111	ltpFR	9	n/a	n/a	n/a	n/a	n/a	n/a	n/a	14	9	1	4	n/a	n/a	n/a	n/a	n/a
3319.954	n/a	STOP	1659977	n/a	LTP111	ltpFR	9	n/a	n/a	n/a	n/a	n/a	n/a	n/a	n/a	n/a	n/a	n/a	n/a	n/a	n/a	n/a	n/a
3321.188	n/a	WORD	1660594	wordpools/wasnorm_wordpool.txt	LTP111	ltpFR	9	11	0	SOCK	1339	n/a	n/a	0	n/a	0	0	0	0.422607421875	0.5869140625	0	lower	amplitud.ttf
3324.194	n/a	START	1662097	n/a	LTP111	ltpFR	9	n/a	n/a	n/a	n/a	n/a	n/a	n/a	n/a	n/a	n/a	n/a	n/a	n/a	n/a	n/a	n/a
3325.21	n/a	PROB	1662605	n/a	LTP111	ltpFR	9	n/a	n/a	n/a	n/a	n/a	n/a	n/a	12	2	5	5	n/a	n/a	n/a	n/a	n/a
3327.108	n/a	PROB	1663554	n/a	LTP111	ltpFR	9	n/a	n/a	n/a	n/a	n/a	n/a	n/a	20	7	6	7	n/a	n/a	n/a	n/a	n/a
3332.194	n/a	STOP	1666097	n/a	LTP111	ltpFR	9	n/a	n/a	n/a	n/a	n/a	n/a	n/a	n/a	n/a	n/a	n/a	n/a	n/a	n/a	n/a	n/a
3333.142	n/a	WORD	1666571	wordpools/wasnorm_wordpool.txt	LTP111	ltpFR	9	11	1	RAZOR	1171	n/a	n/a	0	n/a	0	0	0	0.57763671875	0.412841796875	1	upper	zerothre.ttf
3336.146	n/a	START	1668073	n/a	LTP111	ltpFR	9	n/a	n/a	n/a	n/a	n/a	n/a	n/a	n/a	n/a	n/a	n/a	n/a	n/a	n/a	n/a	n/a
3337.154	n/a	PROB	1668577	n/a	LTP111	ltpFR	9	n/a	n/a	n/a	n/a	n/a	n/a	n/a	23	7	9	7	n/a	n/a	n/a	n/a	n/a
3340.558	n/a	PROB	1670279	n/a	LTP111	ltpFR	9	n/a	n/a	n/a	n/a	n/a	n/a	n/a	14	6	4	4	n/a	n/a	n/a	n/a	n/a
3342.762	n/a	STOP	1671381	n/a	LTP111	ltpFR	9	n/a	n/a	n/a	n/a	n/a	n/a	n/a	n/a	n/a	n/a	n/a	n/a	n/a	n/a	n/a	n/a
3345.178	n/a	WORD	1672589	wordpools/wasnorm_wordpool.txt	LTP111	ltpFR	9	11	1	DINER	467	n/a	n/a	n/a	n/a	0	0	0	0.57763671875	0.412841796875	1	upper	zerothre.ttf
3348.2	n/a	SLOW_MSG	1674100	n/a	LTP111	ltpFR	9	11	n/a	n/a	n/a	n/a	n/a	n/a	n/a	0	0	0	n/a	n/a	n/a	n/a	n/a
3349.716	n/a	START	1674858	n/a	LTP111	ltpFR	9	n/a	n/a	n/a	n/a	n/a	n/a	n/a	n/a	n/a	n/a	n/a	n/a	n/a	n/a	n/a	n/a
3350.664	n/a	PROB	1675332	n/a	LTP111	ltpFR	9	n/a	n/a	n/a	n/a	n/a	n/a	n/a	20	8	4	8	n/a	n/a	n/a	n/a	n/a
3354.968	n/a	PROB	1677484	n/a	LTP111	ltpFR	9	n/a	n/a	n/a	n/a	n/a	n/a	n/a	13	5	4	3	n/a	n/a	n/a	n/a	n/a
3357.634	n/a	STOP	1678817	n/a	LTP111	ltpFR	9	n/a	n/a	n/a	n/a	n/a	n/a	n/a	n/a	n/a	n/a	n/a	n/a	n/a	n/a	n/a	n/a
3358.822	n/a	WORD	1679411	wordpools/wasnorm_wordpool.txt	LTP111	ltpFR	9	11	1	STORE	1387	n/a	n/a	0	n/a	0	0	0	0.57763671875	0.412841796875	1	upper	zerothre.ttf
3361.826	n/a	START	1680913	n/a	LTP111	ltpFR	9	n/a	n/a	n/a	n/a	n/a	n/a	n/a	n/a	n/a	n/a	n/a	n/a	n/a	n/a	n/a	n/a
3362.984	n/a	PROB	1681492	n/a	LTP111	ltpFR	9	n/a	n/a	n/a	n/a	n/a	n/a	n/a	14	5	8	1	n/a	n/a	n/a	n/a	n/a
3369.826	n/a	STOP	1684913	n/a	LTP111	ltpFR	9	n/a	n/a	n/a	n/a	n/a	n/a	n/a	n/a	n/a	n/a	n/a	n/a	n/a	n/a	n/a	n/a
3370.984	n/a	WORD	1685492	wordpools/wasnorm_wordpool.txt	LTP111	ltpFR	9	11	1	CANOE	233	n/a	n/a	0	n/a	0	0	0	0.57763671875	0.412841796875	1	upper	zerothre.ttf
3373.988	n/a	START	1686994	n/a	LTP111	ltpFR	9	n/a	n/a	n/a	n/a	n/a	n/a	n/a	n/a	n/a	n/a	n/a	n/a	n/a	n/a	n/a	n/a
3375.086	n/a	PROB	1687543	n/a	LTP111	ltpFR	9	n/a	n/a	n/a	n/a	n/a	n/a	n/a	15	5	6	4	n/a	n/a	n/a	n/a	n/a
3381.834	n/a	STOP	1690917	n/a	LTP111	ltpFR	9	n/a	n/a	n/a	n/a	n/a	n/a	n/a	n/a	n/a	n/a	n/a	n/a	n/a	n/a	n/a	n/a
3382.878	n/a	WORD	1691439	wordpools/wasnorm_wordpool.txt	LTP111	ltpFR	9	11	1	ROOST	1208	n/a	n/a	0	n/a	0	0	0	0.57763671875	0.412841796875	1	upper	zerothre.ttf
3385.882	n/a	START	1692941	n/a	LTP111	ltpFR	9	n/a	n/a	n/a	n/a	n/a	n/a	n/a	n/a	n/a	n/a	n/a	n/a	n/a	n/a	n/a	n/a
3386.922	n/a	PROB	1693461	n/a	LTP111	ltpFR	9	n/a	n/a	n/a	n/a	n/a	n/a	n/a	15	1	5	9	n/a	n/a	n/a	n/a	n/a
3390.902	n/a	PROB	1695451	n/a	LTP111	ltpFR	9	n/a	n/a	n/a	n/a	n/a	n/a	n/a	8	4	2	2	n/a	n/a	n/a	n/a	n/a
3393.666	n/a	STOP	1696833	n/a	LTP111	ltpFR	9	n/a	n/a	n/a	n/a	n/a	n/a	n/a	n/a	n/a	n/a	n/a	n/a	n/a	n/a	n/a	n/a
3394.73	n/a	WORD	1697365	wordpools/wasnorm_wordpool.txt	LTP111	ltpFR	9	11	1	BIRD	129	n/a	n/a	0	n/a	0	0	0	0.57763671875	0.412841796875	1	upper	zerothre.ttf
3397.736	n/a	START	1698868	n/a	LTP111	ltpFR	9	n/a	n/a	n/a	n/a	n/a	n/a	n/a	n/a	n/a	n/a	n/a	n/a	n/a	n/a	n/a	n/a
3405.736	n/a	STOP	1702868	n/a	LTP111	ltpFR	9	n/a	n/a	n/a	n/a	n/a	n/a	n/a	n/a	n/a	n/a	n/a	n/a	n/a	n/a	n/a	n/a
3407.506	n/a	REC_START	1703753	n/a	LTP111	ltpFR	9	11	n/a	n/a	n/a	n/a	n/a	n/a	n/a	0	0	0	n/a	n/a	n/a	n/a	n/a
3411.672	n/a	REC_WORD	1705836	wordpools/wasnorm_wordpool.txt	LTP111	ltpFR	9	11	1	CANOE	233	n/a	n/a	0	n/a	0	0	0	n/a	n/a	n/a	n/a	n/a
3419.548	n/a	REC_WORD	1709774	wordpools/wasnorm_wordpool.txt	LTP111	ltpFR	9	11	0	MARINE	869	n/a	n/a	0	n/a	0	0	0	n/a	n/a	n/a	n/a	n/a
3494.658	n/a	WORD	1747329	wordpools/wasnorm_wordpool.txt	LTP111	ltpFR	9	12	1	LIST	830	n/a	n/a	0	n/a	0	0	0	0.57763671875	0.412841796875	1	upper	zerothre.ttf
3498.76	n/a	WORD	1749380	wordpools/wasnorm_wordpool.txt	LTP111	ltpFR	9	12	1	JAW	751	n/a	n/a	0	n/a	0	0	0	0.57763671875	0.412841796875	1	upper	zerothre.ttf
3502.672	n/a	WORD	1751336	wordpools/wasnorm_wordpool.txt	LTP111	ltpFR	9	12	1	SHOELACE	1289	n/a	n/a	0	n/a	0	0	0	0.57763671875	0.412841796875	1	upper	zerothre.ttf
3506.484	n/a	WORD	1753242	wordpools/wasnorm_wordpool.txt	LTP111	ltpFR	9	12	0	DOG	480	n/a	n/a	0	n/a	0	0	0	0.422607421875	0.5869140625	0	lower	amplitud.ttf
3510.522	n/a	WORD	1755261	wordpools/wasnorm_wordpool.txt	LTP111	ltpFR	9	12	0	NEEDLE	941	n/a	n/a	0	n/a	0	0	0	0.422607421875	0.5869140625	0	lower	amplitud.ttf
3514.516	n/a	WORD	1757258	wordpools/wasnorm_wordpool.txt	LTP111	ltpFR	9	12	0	SUPERVISOR	1410	n/a	n/a	0	n/a	0	0	0	0.422607421875	0.5869140625	0	lower	amplitud.ttf
3518.554	n/a	WORD	1759277	wordpools/wasnorm_wordpool.txt	LTP111	ltpFR	9	12	0	ZOO	1637	n/a	n/a	0	n/a	0	0	0	0.422607421875	0.5869140625	0	lower	amplitud.ttf
3522.45	n/a	WORD	1761225	wordpools/wasnorm_wordpool.txt	LTP111	ltpFR	9	12	0	BEAR	106	n/a	n/a	0	n/a	0	0	0	0.422607421875	0.5869140625	0	lower	amplitud.ttf
3526.32	n/a	WORD	1763160	wordpools/wasnorm_wordpool.txt	LTP111	ltpFR	9	12	1	TIGER	1467	n/a	n/a	1	n/a	0	0	0	0.57763671875	0.412841796875	1	upper	zerothre.ttf
3530.458	n/a	WORD	1765229	wordpools/wasnorm_wordpool.txt	LTP111	ltpFR	9	12	1	BUS	201	n/a	n/a	0	n/a	0	0	0	0.57763671875	0.412841796875	1	upper	zerothre.ttf
3534.47	n/a	WORD	1767235	wordpools/wasnorm_wordpool.txt	LTP111	ltpFR	9	12	0	BATTERY	101	n/a	n/a	0	n/a	0	0	0	0.422607421875	0.5869140625	0	lower	amplitud.ttf
3538.658	n/a	WORD	1769329	wordpools/wasnorm_wordpool.txt	LTP111	ltpFR	9	12	0	ANKLE	24	n/a	n/a	0	n/a	0	0	0	0.422607421875	0.5869140625	0	lower	amplitud.ttf
3542.494	n/a	WORD	1771247	wordpools/wasnorm_wordpool.txt	LTP111	ltpFR	9	12	0	ASTEROID	50	n/a	n/a	0	n/a	0	0	0	0.422607421875	0.5869140625	0	lower	amplitud.ttf
3546.53	n/a	WORD	1773265	wordpools/wasnorm_wordpool.txt	LTP111	ltpFR	9	12	1	PICKLE	1059	n/a	n/a	0	n/a	0	0	0	0.57763671875	0.412841796875	1	upper	zerothre.ttf
3550.384	n/a	WORD	1775192	wordpools/wasnorm_wordpool.txt	LTP111	ltpFR	9	12	1	CELERY	266	n/a	n/a	0	n/a	0	0	0	0.57763671875	0.412841796875	1	upper	zerothre.ttf
3554.222	n/a	WORD	1777111	wordpools/wasnorm_wordpool.txt	LTP111	ltpFR	9	12	1	PLAQUE	1084	n/a	n/a	0	n/a	0	0	0	0.57763671875	0.412841796875	1	upper	zerothre.ttf
3557.226	n/a	START	1778613	n/a	LTP111	ltpFR	9	n/a	n/a	n/a	n/a	n/a	n/a	n/a	n/a	n/a	n/a	n/a	n/a	n/a	n/a	n/a	n/a
3558.274	n/a	PROB	1779137	n/a	LTP111	ltpFR	9	n/a	n/a	n/a	n/a	n/a	n/a	n/a	10	2	2	6	n/a	n/a	n/a	n/a	n/a
3561.214	n/a	PROB	1780607	n/a	LTP111	ltpFR	9	n/a	n/a	n/a	n/a	n/a	n/a	n/a	10	4	1	5	n/a	n/a	n/a	n/a	n/a
3563.862	n/a	PROB	1781931	n/a	LTP111	ltpFR	9	n/a	n/a	n/a	n/a	n/a	n/a	n/a	6	1	3	2	n/a	n/a	n/a	n/a	n/a
3566.632	n/a	PROB	1783316	n/a	LTP111	ltpFR	9	n/a	n/a	n/a	n/a	n/a	n/a	n/a	15	7	7	1	n/a	n/a	n/a	n/a	n/a
3573.226	n/a	STOP	1786613	n/a	LTP111	ltpFR	9	n/a	n/a	n/a	n/a	n/a	n/a	n/a	n/a	n/a	n/a	n/a	n/a	n/a	n/a	n/a	n/a
3574.974	n/a	REC_START	1787487	n/a	LTP111	ltpFR	9	12	n/a	n/a	n/a	n/a	n/a	n/a	n/a	0	0	0	n/a	n/a	n/a	n/a	n/a
3577.418	n/a	REC_WORD	1788709	wordpools/wasnorm_wordpool.txt	LTP111	ltpFR	9	12	0	ZOO	1637	n/a	n/a	0	n/a	0	0	0	n/a	n/a	n/a	n/a	n/a
3578.74	n/a	REC_WORD	1789370	wordpools/wasnorm_wordpool.txt	LTP111	ltpFR	9	12	0	DOG	480	n/a	n/a	0	n/a	0	0	0	n/a	n/a	n/a	n/a	n/a
3580.46	n/a	REC_WORD	1790230	wordpools/wasnorm_wordpool.txt	LTP111	ltpFR	9	12	0	BEAR	106	n/a	n/a	0	n/a	0	0	0	n/a	n/a	n/a	n/a	n/a
3582.396	n/a	REC_WORD	1791198	wordpools/wasnorm_wordpool.txt	LTP111	ltpFR	9	12	0	SUPERVISOR	1410	n/a	n/a	0	n/a	0	0	0	n/a	n/a	n/a	n/a	n/a
3586.862	n/a	REC_WORD	1793431	wordpools/wasnorm_wordpool.txt	LTP111	ltpFR	9	12	0	ASTEROID	50	n/a	n/a	0	n/a	0	0	0	n/a	n/a	n/a	n/a	n/a
3588.168	n/a	REC_WORD	1794084	wordpools/wasnorm_wordpool.txt	LTP111	ltpFR	9	12	1	BUS	201	n/a	n/a	0	n/a	0	0	0	n/a	n/a	n/a	n/a	n/a
3588.776	n/a	REC_WORD	1794388	wordpools/wasnorm_wordpool.txt	LTP111	ltpFR	9	12	0	BATTERY	101	n/a	n/a	0	n/a	0	0	0	n/a	n/a	n/a	n/a	n/a
3590.298	n/a	REC_WORD	1795149	wordpools/wasnorm_wordpool.txt	LTP111	ltpFR	9	12	1	PLAQUE	1084	n/a	n/a	0	n/a	0	0	0	n/a	n/a	n/a	n/a	n/a
3592.712	n/a	REC_WORD	1796356	wordpools/wasnorm_wordpool.txt	LTP111	ltpFR	9	12	1	PICKLE	1059	n/a	n/a	0	n/a	0	0	0	n/a	n/a	n/a	n/a	n/a
3593.076	n/a	REC_WORD	1796538	wordpools/wasnorm_wordpool.txt	LTP111	ltpFR	9	12	1	CELERY	266	n/a	n/a	0	n/a	0	0	0	n/a	n/a	n/a	n/a	n/a
3594.304	n/a	REC_WORD	1797152	wordpools/wasnorm_wordpool.txt	LTP111	ltpFR	9	12	0	NEEDLE	941	n/a	n/a	0	n/a	0	0	0	n/a	n/a	n/a	n/a	n/a
3597.292	n/a	REC_WORD	1798646	wordpools/wasnorm_wordpool.txt	LTP111	ltpFR	9	12	n/a	SHOE	1288	n/a	n/a	n/a	n/a	0	0	0	n/a	n/a	n/a	n/a	n/a
3680.686	n/a	REC_START	1840343	n/a	LTP111	ltpFR	9	1	n/a	n/a	n/a	n/a	n/a	n/a	n/a	0	0	0	n/a	n/a	n/a	n/a	n/a
3680.71	n/a	RECOG_TARGET	1840355	n/a	LTP111	ltpFR	9	1	0	CAFE	216	1	1	0	n/a	0	0	0	n/a	n/a	n/a	n/a	n/a
3686.258	n/a	RECOG_RESP	1843129	n/a	LTP111	ltpFR	9	1	0	CAFE	216	1	n/a	0	n/a	0	0	0	n/a	n/a	n/a	n/a	n/a
3689.502	n/a	RECOG_CONF	1844751	n/a	LTP111	ltpFR	9	1	0	CAFE	216	n/a	1	0	n/a	0	0	0	n/a	n/a	n/a	n/a	n/a
3691.264	n/a	RECOG_TARGET	1845632	n/a	LTP111	ltpFR	9	1	0	GODDESS	646	1	4	0	n/a	0	0	0	n/a	n/a	n/a	n/a	n/a
3692.364	n/a	RECOG_RESP	1846182	n/a	LTP111	ltpFR	9	1	0	GODDESS	646	1	n/a	0	n/a	0	0	0	n/a	n/a	n/a	n/a	n/a
3693.452	n/a	RECOG_CONF	1846726	n/a	LTP111	ltpFR	9	1	0	GODDESS	646	n/a	4	0	n/a	0	0	0	n/a	n/a	n/a	n/a	n/a
3694.836	n/a	RECOG_LURE	1847418	n/a	LTP111	ltpFR	9	1	n/a	SPATULA	1348	0	2	n/a	n/a	0	0	0	n/a	n/a	n/a	n/a	n/a
3695.972	n/a	RECOG_RESP	1847986	n/a	LTP111	ltpFR	9	1	n/a	SPATULA	1348	0	n/a	n/a	n/a	0	0	0	n/a	n/a	n/a	n/a	n/a
3696.864	n/a	RECOG_CONF	1848432	n/a	LTP111	ltpFR	9	1	n/a	SPATULA	1348	n/a	2	n/a	n/a	0	0	0	n/a	n/a	n/a	n/a	n/a
3698.264	n/a	RECOG_TARGET	1849132	n/a	LTP111	ltpFR	9	1	0	SAUCER	1237	1	1	0	n/a	0	0	0	n/a	n/a	n/a	n/a	n/a
3699.584	n/a	RECOG_RESP	1849792	n/a	LTP111	ltpFR	9	1	0	SAUCER	1237	1	n/a	0	n/a	0	0	0	n/a	n/a	n/a	n/a	n/a
3701.066	n/a	RECOG_CONF	1850533	n/a	LTP111	ltpFR	9	1	0	SAUCER	1237	n/a	1	0	n/a	0	0	0	n/a	n/a	n/a	n/a	n/a
3702.726	n/a	RECOG_TARGET	1851363	n/a	LTP111	ltpFR	9	1	1	DRINK	498	1	1	0	n/a	0	0	0	n/a	n/a	n/a	n/a	n/a
3703.58	n/a	RECOG_RESP	1851790	n/a	LTP111	ltpFR	9	1	1	DRINK	498	1	n/a	0	n/a	0	0	0	n/a	n/a	n/a	n/a	n/a
3704.468	n/a	RECOG_CONF	1852234	n/a	LTP111	ltpFR	9	1	1	DRINK	498	n/a	1	0	n/a	0	0	0	n/a	n/a	n/a	n/a	n/a
3706.056	n/a	RECOG_LURE	1853028	n/a	LTP111	ltpFR	9	1	n/a	VETERAN	1561	0	3	n/a	n/a	0	0	0	n/a	n/a	n/a	n/a	n/a
3707.23	n/a	RECOG_RESP	1853615	n/a	LTP111	ltpFR	9	1	n/a	VETERAN	1561	0	n/a	n/a	n/a	0	0	0	n/a	n/a	n/a	n/a	n/a
3708.348	n/a	RECOG_CONF	1854174	n/a	LTP111	ltpFR	9	1	n/a	VETERAN	1561	n/a	3	n/a	n/a	0	0	0	n/a	n/a	n/a	n/a	n/a
3709.702	n/a	RECOG_TARGET	1854851	n/a	LTP111	ltpFR	9	1	0	VITAMIN	1574	1	5	0	n/a	0	0	0	n/a	n/a	n/a	n/a	n/a
3710.408	n/a	RECOG_RESP	1855204	n/a	LTP111	ltpFR	9	1	0	VITAMIN	1574	1	n/a	0	n/a	0	0	0	n/a	n/a	n/a	n/a	n/a
3711.272	n/a	RECOG_CONF	1855636	n/a	LTP111	ltpFR	9	1	0	VITAMIN	1574	n/a	5	0	n/a	0	0	0	n/a	n/a	n/a	n/a	n/a
3712.522	n/a	RECOG_TARGET	1856261	n/a	LTP111	ltpFR	9	1	1	SUNSET	1408	1	3	1	n/a	0	0	0	n/a	n/a	n/a	n/a	n/a
3713.432	n/a	RECOG_RESP	1856716	n/a	LTP111	ltpFR	9	1	1	SUNSET	1408	1	n/a	1	n/a	0	0	0	n/a	n/a	n/a	n/a	n/a
3714.284	n/a	RECOG_CONF	1857142	n/a	LTP111	ltpFR	9	1	1	SUNSET	1408	n/a	3	1	n/a	0	0	0	n/a	n/a	n/a	n/a	n/a
3715.56	n/a	RECOG_TARGET	1857780	n/a	LTP111	ltpFR	9	1	1	PARROT	1015	1	4	0	n/a	0	0	0	n/a	n/a	n/a	n/a	n/a
3716.33	n/a	RECOG_RESP	1858165	n/a	LTP111	ltpFR	9	1	1	PARROT	1015	1	n/a	0	n/a	0	0	0	n/a	n/a	n/a	n/a	n/a
3717.018	n/a	RECOG_CONF	1858509	n/a	LTP111	ltpFR	9	1	1	PARROT	1015	n/a	4	0	n/a	0	0	0	n/a	n/a	n/a	n/a	n/a
3718.5	n/a	RECOG_TARGET	1859250	n/a	LTP111	ltpFR	9	1	1	PIZZA	1079	1	5	0	n/a	0	0	0	n/a	n/a	n/a	n/a	n/a
3719.318	n/a	RECOG_RESP	1859659	n/a	LTP111	ltpFR	9	1	1	PIZZA	1079	1	n/a	0	n/a	0	0	0	n/a	n/a	n/a	n/a	n/a
3720.172	n/a	RECOG_CONF	1860086	n/a	LTP111	ltpFR	9	1	1	PIZZA	1079	n/a	5	0	n/a	0	0	0	n/a	n/a	n/a	n/a	n/a
3721.58	n/a	RECOG_LURE	1860790	n/a	LTP111	ltpFR	9	1	n/a	HUT	729	0	3	n/a	n/a	0	0	0	n/a	n/a	n/a	n/a	n/a
3722.476	n/a	RECOG_RESP	1861238	n/a	LTP111	ltpFR	9	1	n/a	HUT	729	0	n/a	n/a	n/a	0	0	0	n/a	n/a	n/a	n/a	n/a
3723.514	n/a	RECOG_CONF	1861757	n/a	LTP111	ltpFR	9	1	n/a	HUT	729	n/a	3	n/a	n/a	0	0	0	n/a	n/a	n/a	n/a	n/a
3724.868	n/a	RECOG_TARGET	1862434	n/a	LTP111	ltpFR	9	1	1	DAM	436	1	4	1	n/a	0	0	0	n/a	n/a	n/a	n/a	n/a
3725.844	n/a	RECOG_RESP	1862922	n/a	LTP111	ltpFR	9	1	1	DAM	436	1	n/a	1	n/a	0	0	0	n/a	n/a	n/a	n/a	n/a
3726.746	n/a	RECOG_CONF	1863373	n/a	LTP111	ltpFR	9	1	1	DAM	436	n/a	4	1	n/a	0	0	0	n/a	n/a	n/a	n/a	n/a
3728.172	n/a	RECOG_TARGET	1864086	n/a	LTP111	ltpFR	9	1	1	COUGAR	387	0	1	0	n/a	0	0	0	n/a	n/a	n/a	n/a	n/a
3730.178	n/a	RECOG_RESP	1865089	n/a	LTP111	ltpFR	9	1	1	COUGAR	387	0	n/a	0	n/a	0	0	0	n/a	n/a	n/a	n/a	n/a
3731.256	n/a	RECOG_CONF	1865628	n/a	LTP111	ltpFR	9	1	1	COUGAR	387	n/a	1	0	n/a	0	0	0	n/a	n/a	n/a	n/a	n/a
3732.658	n/a	RECOG_TARGET	1866329	n/a	LTP111	ltpFR	9	1	1	ARTERY	41	1	3	1	n/a	0	0	0	n/a	n/a	n/a	n/a	n/a
3734.35	n/a	RECOG_RESP	1867175	n/a	LTP111	ltpFR	9	1	1	ARTERY	41	1	n/a	1	n/a	0	0	0	n/a	n/a	n/a	n/a	n/a
3735.318	n/a	RECOG_CONF	1867659	n/a	LTP111	ltpFR	9	1	1	ARTERY	41	n/a	3	1	n/a	0	0	0	n/a	n/a	n/a	n/a	n/a
3736.63	n/a	RECOG_TARGET	1868315	n/a	LTP111	ltpFR	9	1	1	BANQUET	86	1	4	0	n/a	0	0	0	n/a	n/a	n/a	n/a	n/a
3737.522	n/a	RECOG_RESP	1868761	n/a	LTP111	ltpFR	9	1	1	BANQUET	86	1	n/a	0	n/a	0	0	0	n/a	n/a	n/a	n/a	n/a
3742.122	n/a	RECOG_CONF	1871061	n/a	LTP111	ltpFR	9	1	1	BANQUET	86	n/a	4	0	n/a	0	0	0	n/a	n/a	n/a	n/a	n/a
3743.546	n/a	RECOG_TARGET	1871773	n/a	LTP111	ltpFR	9	1	0	PELT	1040	1	3	0	n/a	0	0	0	n/a	n/a	n/a	n/a	n/a
3744.392	n/a	RECOG_RESP	1872196	n/a	LTP111	ltpFR	9	1	0	PELT	1040	1	n/a	0	n/a	0	0	0	n/a	n/a	n/a	n/a	n/a
3745.134	n/a	RECOG_CONF	1872567	n/a	LTP111	ltpFR	9	1	0	PELT	1040	n/a	3	0	n/a	0	0	0	n/a	n/a	n/a	n/a	n/a
3746.376	n/a	RECOG_LURE	1873188	n/a	LTP111	ltpFR	9	1	n/a	JAM	748	1	1	n/a	n/a	0	0	0	n/a	n/a	n/a	n/a	n/a
3747.32	n/a	RECOG_RESP	1873660	n/a	LTP111	ltpFR	9	1	n/a	JAM	748	1	n/a	n/a	n/a	0	0	0	n/a	n/a	n/a	n/a	n/a
3748.058	n/a	RECOG_CONF	1874029	n/a	LTP111	ltpFR	9	1	n/a	JAM	748	n/a	1	n/a	n/a	0	0	0	n/a	n/a	n/a	n/a	n/a
3749.364	n/a	RECOG_TARGET	1874682	n/a	LTP111	ltpFR	9	1	0	BATTERY	101	1	2	0	n/a	0	0	0	n/a	n/a	n/a	n/a	n/a
3750.284	n/a	RECOG_RESP	1875142	n/a	LTP111	ltpFR	9	1	0	BATTERY	101	1	n/a	0	n/a	0	0	0	n/a	n/a	n/a	n/a	n/a
3751.032	n/a	RECOG_CONF	1875516	n/a	LTP111	ltpFR	9	1	0	BATTERY	101	n/a	2	0	n/a	0	0	0	n/a	n/a	n/a	n/a	n/a
3752.334	n/a	RECOG_TARGET	1876167	n/a	LTP111	ltpFR	9	1	1	CAULIFLOWER	262	0	1	1	n/a	0	0	0	n/a	n/a	n/a	n/a	n/a
3754.084	n/a	RECOG_RESP	1877042	n/a	LTP111	ltpFR	9	1	1	CAULIFLOWER	262	0	n/a	1	n/a	0	0	0	n/a	n/a	n/a	n/a	n/a
3755.472	n/a	RECOG_CONF	1877736	n/a	LTP111	ltpFR	9	1	1	CAULIFLOWER	262	n/a	1	1	n/a	0	0	0	n/a	n/a	n/a	n/a	n/a
3756.74	n/a	RECOG_TARGET	1878370	n/a	LTP111	ltpFR	9	1	0	BANDANNA	80	1	4	0	n/a	0	0	0	n/a	n/a	n/a	n/a	n/a
3757.572	n/a	RECOG_RESP	1878786	n/a	LTP111	ltpFR	9	1	0	BANDANNA	80	1	n/a	0	n/a	0	0	0	n/a	n/a	n/a	n/a	n/a
3758.386	n/a	RECOG_CONF	1879193	n/a	LTP111	ltpFR	9	1	0	BANDANNA	80	n/a	4	0	n/a	0	0	0	n/a	n/a	n/a	n/a	n/a
3761.392	n/a	REC_START	1880696	n/a	LTP111	ltpFR	9	2	n/a	n/a	n/a	n/a	n/a	n/a	n/a	0	0	0	n/a	n/a	n/a	n/a	n/a
3761.418	n/a	RECOG_TARGET	1880709	n/a	LTP111	ltpFR	9	2	0	MOTHER	921	0	3	1	n/a	0	0	0	n/a	n/a	n/a	n/a	n/a
3762.518	n/a	RECOG_RESP	1881259	n/a	LTP111	ltpFR	9	2	0	MOTHER	921	0	n/a	1	n/a	0	0	0	n/a	n/a	n/a	n/a	n/a
3763.262	n/a	RECOG_CONF	1881631	n/a	LTP111	ltpFR	9	2	0	MOTHER	921	n/a	3	1	n/a	0	0	0	n/a	n/a	n/a	n/a	n/a
3764.598	n/a	RECOG_TARGET	1882299	n/a	LTP111	ltpFR	9	2	0	SUITCASE	1403	1	1	0	n/a	0	0	0	n/a	n/a	n/a	n/a	n/a
3765.732	n/a	RECOG_RESP	1882866	n/a	LTP111	ltpFR	9	2	0	SUITCASE	1403	1	n/a	0	n/a	0	0	0	n/a	n/a	n/a	n/a	n/a
3766.256	n/a	RECOG_CONF	1883128	n/a	LTP111	ltpFR	9	2	0	SUITCASE	1403	n/a	1	0	n/a	0	0	0	n/a	n/a	n/a	n/a	n/a
3767.594	n/a	RECOG_TARGET	1883797	n/a	LTP111	ltpFR	9	2	0	JAR	750	1	3	0	n/a	0	0	0	n/a	n/a	n/a	n/a	n/a
3768.684	n/a	RECOG_RESP	1884342	n/a	LTP111	ltpFR	9	2	0	JAR	750	1	n/a	0	n/a	0	0	0	n/a	n/a	n/a	n/a	n/a
3769.698	n/a	RECOG_CONF	1884849	n/a	LTP111	ltpFR	9	2	0	JAR	750	n/a	3	0	n/a	0	0	0	n/a	n/a	n/a	n/a	n/a
3770.89	n/a	RECOG_TARGET	1885445	n/a	LTP111	ltpFR	9	2	1	PICKLE	1059	1	4	0	n/a	0	0	0	n/a	n/a	n/a	n/a	n/a
3771.752	n/a	RECOG_RESP	1885876	n/a	LTP111	ltpFR	9	2	1	PICKLE	1059	1	n/a	0	n/a	0	0	0	n/a	n/a	n/a	n/a	n/a
3772.64	n/a	RECOG_CONF	1886320	n/a	LTP111	ltpFR	9	2	1	PICKLE	1059	n/a	4	0	n/a	0	0	0	n/a	n/a	n/a	n/a	n/a
3773.886	n/a	RECOG_TARGET	1886943	n/a	LTP111	ltpFR	9	2	0	DOG	480	1	3	0	n/a	0	0	0	n/a	n/a	n/a	n/a	n/a
3774.716	n/a	RECOG_RESP	1887358	n/a	LTP111	ltpFR	9	2	0	DOG	480	1	n/a	0	n/a	0	0	0	n/a	n/a	n/a	n/a	n/a
3775.524	n/a	RECOG_CONF	1887762	n/a	LTP111	ltpFR	9	2	0	DOG	480	n/a	3	0	n/a	0	0	0	n/a	n/a	n/a	n/a	n/a
3776.916	n/a	RECOG_LURE	1888458	n/a	LTP111	ltpFR	9	2	n/a	CLOCK	325	0	1	n/a	n/a	0	0	0	n/a	n/a	n/a	n/a	n/a
3779.15	n/a	RECOG_RESP	1889575	n/a	LTP111	ltpFR	9	2	n/a	CLOCK	325	0	n/a	n/a	n/a	0	0	0	n/a	n/a	n/a	n/a	n/a
3781.81	n/a	RECOG_CONF	1890905	n/a	LTP111	ltpFR	9	2	n/a	CLOCK	325	n/a	1	n/a	n/a	0	0	0	n/a	n/a	n/a	n/a	n/a
3783.208	n/a	RECOG_TARGET	1891604	n/a	LTP111	ltpFR	9	2	0	UMPIRE	1535	1	4	0	n/a	0	0	0	n/a	n/a	n/a	n/a	n/a
3784.858	n/a	RECOG_RESP	1892429	n/a	LTP111	ltpFR	9	2	0	UMPIRE	1535	1	n/a	0	n/a	0	0	0	n/a	n/a	n/a	n/a	n/a
3786.42	n/a	RECOG_CONF	1893210	n/a	LTP111	ltpFR	9	2	0	UMPIRE	1535	n/a	4	0	n/a	0	0	0	n/a	n/a	n/a	n/a	n/a
3787.996	n/a	RECOG_TARGET	1893998	n/a	LTP111	ltpFR	9	2	0	MARS	873	1	1	0	n/a	0	0	0	n/a	n/a	n/a	n/a	n/a
3790.19	n/a	RECOG_RESP	1895095	n/a	LTP111	ltpFR	9	2	0	MARS	873	1	n/a	0	n/a	0	0	0	n/a	n/a	n/a	n/a	n/a
3791.388	n/a	RECOG_CONF	1895694	n/a	LTP111	ltpFR	9	2	0	MARS	873	n/a	1	0	n/a	0	0	0	n/a	n/a	n/a	n/a	n/a
3792.99	n/a	RECOG_TARGET	1896495	n/a	LTP111	ltpFR	9	2	1	SKI	1316	1	1	0	n/a	0	0	0	n/a	n/a	n/a	n/a	n/a
3794.382	n/a	RECOG_RESP	1897191	n/a	LTP111	ltpFR	9	2	1	SKI	1316	1	n/a	0	n/a	0	0	0	n/a	n/a	n/a	n/a	n/a
3795.25	n/a	RECOG_CONF	1897625	n/a	LTP111	ltpFR	9	2	1	SKI	1316	n/a	1	0	n/a	0	0	0	n/a	n/a	n/a	n/a	n/a
3796.61	n/a	RECOG_TARGET	1898305	n/a	LTP111	ltpFR	9	2	1	COOK	372	1	1	0	n/a	0	0	0	n/a	n/a	n/a	n/a	n/a
3797.44	n/a	RECOG_RESP	1898720	n/a	LTP111	ltpFR	9	2	1	COOK	372	1	n/a	0	n/a	0	0	0	n/a	n/a	n/a	n/a	n/a
3798.442	n/a	RECOG_CONF	1899221	n/a	LTP111	ltpFR	9	2	1	COOK	372	n/a	1	0	n/a	0	0	0	n/a	n/a	n/a	n/a	n/a
3799.998	n/a	RECOG_TARGET	1899999	n/a	LTP111	ltpFR	9	2	0	OPERATOR	979	0	1	0	n/a	0	0	0	n/a	n/a	n/a	n/a	n/a
3801.634	n/a	RECOG_RESP	1900817	n/a	LTP111	ltpFR	9	2	0	OPERATOR	979	0	n/a	0	n/a	0	0	0	n/a	n/a	n/a	n/a	n/a
3802.692	n/a	RECOG_CONF	1901346	n/a	LTP111	ltpFR	9	2	0	OPERATOR	979	n/a	1	0	n/a	0	0	0	n/a	n/a	n/a	n/a	n/a
3804.118	n/a	RECOG_TARGET	1902059	n/a	LTP111	ltpFR	9	2	1	PRESIDENT	1121	1	3	1	n/a	0	0	0	n/a	n/a	n/a	n/a	n/a
3805.032	n/a	RECOG_RESP	1902516	n/a	LTP111	ltpFR	9	2	1	PRESIDENT	1121	1	n/a	1	n/a	0	0	0	n/a	n/a	n/a	n/a	n/a
3805.956	n/a	RECOG_CONF	1902978	n/a	LTP111	ltpFR	9	2	1	PRESIDENT	1121	n/a	3	1	n/a	0	0	0	n/a	n/a	n/a	n/a	n/a
3807.414	n/a	RECOG_LURE	1903707	n/a	LTP111	ltpFR	9	2	n/a	BARRACUDA	90	0	1	n/a	n/a	0	0	0	n/a	n/a	n/a	n/a	n/a
3808.808	n/a	RECOG_RESP	1904404	n/a	LTP111	ltpFR	9	2	n/a	BARRACUDA	90	0	n/a	n/a	n/a	0	0	0	n/a	n/a	n/a	n/a	n/a
3809.686	n/a	RECOG_CONF	1904843	n/a	LTP111	ltpFR	9	2	n/a	BARRACUDA	90	n/a	1	n/a	n/a	0	0	0	n/a	n/a	n/a	n/a	n/a
3811.118	n/a	RECOG_TARGET	1905559	n/a	LTP111	ltpFR	9	2	1	STORE	1387	0	2	0	n/a	0	0	0	n/a	n/a	n/a	n/a	n/a
3814.136	n/a	RECOG_RESP	1907068	n/a	LTP111	ltpFR	9	2	1	STORE	1387	0	n/a	0	n/a	0	0	0	n/a	n/a	n/a	n/a	n/a
3815.064	n/a	RECOG_CONF	1907532	n/a	LTP111	ltpFR	9	2	1	STORE	1387	n/a	2	0	n/a	0	0	0	n/a	n/a	n/a	n/a	n/a
3816.37	n/a	RECOG_TARGET	1908185	n/a	LTP111	ltpFR	9	2	1	HORSE	719	1	4	1	n/a	0	0	0	n/a	n/a	n/a	n/a	n/a
3817.33	n/a	RECOG_RESP	1908665	n/a	LTP111	ltpFR	9	2	1	HORSE	719	1	n/a	1	n/a	0	0	0	n/a	n/a	n/a	n/a	n/a
3818.168	n/a	RECOG_CONF	1909084	n/a	LTP111	ltpFR	9	2	1	HORSE	719	n/a	4	1	n/a	0	0	0	n/a	n/a	n/a	n/a	n/a
3819.474	n/a	RECOG_TARGET	1909737	n/a	LTP111	ltpFR	9	2	0	TRENCH	1503	1	5	0	n/a	0	0	0	n/a	n/a	n/a	n/a	n/a
3820.786	n/a	RECOG_RESP	1910393	n/a	LTP111	ltpFR	9	2	0	TRENCH	1503	1	n/a	0	n/a	0	0	0	n/a	n/a	n/a	n/a	n/a
3822.368	n/a	RECOG_CONF	1911184	n/a	LTP111	ltpFR	9	2	0	TRENCH	1503	n/a	5	0	n/a	0	0	0	n/a	n/a	n/a	n/a	n/a
3823.888	n/a	RECOG_TARGET	1911944	n/a	LTP111	ltpFR	9	2	1	DISC	473	1	3	0	n/a	0	0	0	n/a	n/a	n/a	n/a	n/a
3824.906	n/a	RECOG_RESP	1912453	n/a	LTP111	ltpFR	9	2	1	DISC	473	1	n/a	0	n/a	0	0	0	n/a	n/a	n/a	n/a	n/a
3825.77	n/a	RECOG_CONF	1912885	n/a	LTP111	ltpFR	9	2	1	DISC	473	n/a	3	0	n/a	0	0	0	n/a	n/a	n/a	n/a	n/a
3827.224	n/a	RECOG_TARGET	1913612	n/a	LTP111	ltpFR	9	2	1	TIGER	1467	1	4	1	n/a	0	0	0	n/a	n/a	n/a	n/a	n/a
3828.024	n/a	RECOG_RESP	1914012	n/a	LTP111	ltpFR	9	2	1	TIGER	1467	1	n/a	1	n/a	0	0	0	n/a	n/a	n/a	n/a	n/a
3828.824	n/a	RECOG_CONF	1914412	n/a	LTP111	ltpFR	9	2	1	TIGER	1467	n/a	4	1	n/a	0	0	0	n/a	n/a	n/a	n/a	n/a
3830.188	n/a	RECOG_TARGET	1915094	n/a	LTP111	ltpFR	9	2	0	NEEDLE	941	1	4	0	n/a	0	0	0	n/a	n/a	n/a	n/a	n/a
3831.044	n/a	RECOG_RESP	1915522	n/a	LTP111	ltpFR	9	2	0	NEEDLE	941	1	n/a	0	n/a	0	0	0	n/a	n/a	n/a	n/a	n/a
