onset	duration	trial_type	sample	stim_file	subject	experiment	session	trial	item_name	item_num	list	answer	test_x	test_y	test_z
231.32958984375	n/a	SESS_START	473763	n/a	LTP379	ltpFR2	9	n/a	n/a	n/a	n/a	n/a	0	0	0
245.1142578125	n/a	START	501994	n/a	LTP379	ltpFR2	9	n/a	n/a	n/a	-1	n/a	n/a	n/a	n/a
245.14501953125	n/a	PROB	502057	n/a	LTP379	ltpFR2	9	n/a	n/a	n/a	-1	14	6	2	6
246.9111328125	n/a	PROB	505674	n/a	LTP379	ltpFR2	9	n/a	n/a	n/a	-1	15	4	9	2
248.412109375	n/a	PROB	508748	n/a	LTP379	ltpFR2	9	n/a	n/a	n/a	-1	13	2	5	6
249.677734375	n/a	PROB	511340	n/a	LTP379	ltpFR2	9	n/a	n/a	n/a	-1	12	5	2	5
250.89404296875	n/a	PROB	513831	n/a	LTP379	ltpFR2	9	n/a	n/a	n/a	-1	8	2	3	3
252.078125	n/a	PROB	516256	n/a	LTP379	ltpFR2	9	n/a	n/a	n/a	-1	10	1	8	1
253.4296875	n/a	PROB	519024	n/a	LTP379	ltpFR2	9	n/a	n/a	n/a	-1	19	4	7	8
254.9619140625	n/a	PROB	522162	n/a	LTP379	ltpFR2	9	n/a	n/a	n/a	-1	14	7	1	6
256.5107421875	n/a	STOP	525334	n/a	LTP379	ltpFR2	9	n/a	n/a	n/a	-1	n/a	n/a	n/a	n/a
292.509765625	n/a	DISTRACTOR	599060	n/a	LTP379	ltpFR2	9	1	n/a	n/a	n/a	n/a	0	0	0
292.509765625	n/a	START	599060	n/a	LTP379	ltpFR2	9	n/a	n/a	n/a	1	n/a	n/a	n/a	n/a
292.52685546875	n/a	PROB	599095	n/a	LTP379	ltpFR2	9	n/a	n/a	n/a	1	6	1	1	4
293.6767578125	n/a	PROB	601450	n/a	LTP379	ltpFR2	9	n/a	n/a	n/a	1	6	4	1	1
294.62646484375	n/a	PROB	603395	n/a	LTP379	ltpFR2	9	n/a	n/a	n/a	1	19	8	8	3
296.07568359375	n/a	PROB	606363	n/a	LTP379	ltpFR2	9	n/a	n/a	n/a	1	13	1	3	9
297.359375	n/a	PROB	608992	n/a	LTP379	ltpFR2	9	n/a	n/a	n/a	1	20	8	6	6
299.9423828125	n/a	PROB	614282	n/a	LTP379	ltpFR2	9	n/a	n/a	n/a	1	14	9	3	2
301.50927734375	n/a	PROB	617491	n/a	LTP379	ltpFR2	9	n/a	n/a	n/a	1	15	9	1	5
303.20947265625	n/a	PROB	620973	n/a	LTP379	ltpFR2	9	n/a	n/a	n/a	1	13	6	6	1
304.29248046875	n/a	PROB	623191	n/a	LTP379	ltpFR2	9	n/a	n/a	n/a	1	17	8	5	4
306.17529296875	n/a	PROB	627047	n/a	LTP379	ltpFR2	9	n/a	n/a	n/a	1	19	4	6	9
308.3251953125	n/a	PROB	631450	n/a	LTP379	ltpFR2	9	n/a	n/a	n/a	1	16	8	2	6
310.69189453125	n/a	PROB	636297	n/a	LTP379	ltpFR2	9	n/a	n/a	n/a	1	17	5	6	6
312.591796875	n/a	PROB	640188	n/a	LTP379	ltpFR2	9	n/a	n/a	n/a	1	16	8	2	6
313.82421875	n/a	PROB	642712	n/a	LTP379	ltpFR2	9	n/a	n/a	n/a	1	10	1	8	1
314.80712890625	n/a	PROB	644725	n/a	LTP379	ltpFR2	9	n/a	n/a	n/a	1	19	9	4	6
316.15087890625	n/a	STOP	647477	n/a	LTP379	ltpFR2	9	n/a	n/a	n/a	1	n/a	n/a	n/a	n/a
317.69189453125	n/a	WORD	650633	wordpools/wasnorm_wordpool_576.txt	LTP379	ltpFR2	9	1	JURY	766	n/a	n/a	0	0	0
320.15869140625	n/a	WORD	655685	wordpools/wasnorm_wordpool_576.txt	LTP379	ltpFR2	9	1	SKETCH	1315	n/a	n/a	0	0	0
322.923828125	n/a	WORD	661348	wordpools/wasnorm_wordpool_576.txt	LTP379	ltpFR2	9	1	ROBOT	1200	n/a	n/a	0	0	0
325.6416015625	n/a	WORD	666914	wordpools/wasnorm_wordpool_576.txt	LTP379	ltpFR2	9	1	TYPIST	1532	n/a	n/a	0	0	0
328.1416015625	n/a	WORD	672034	wordpools/wasnorm_wordpool_576.txt	LTP379	ltpFR2	9	1	OFFICE	972	n/a	n/a	0	0	0
330.890625	n/a	WORD	677664	wordpools/wasnorm_wordpool_576.txt	LTP379	ltpFR2	9	1	BLOCKADE	137	n/a	n/a	0	0	0
333.6416015625	n/a	WORD	683298	wordpools/wasnorm_wordpool_576.txt	LTP379	ltpFR2	9	1	REBEL	1172	n/a	n/a	0	0	0
336.37451171875	n/a	WORD	688895	wordpools/wasnorm_wordpool_576.txt	LTP379	ltpFR2	9	1	SPHINX	1349	n/a	n/a	0	0	0
339.09033203125	n/a	WORD	694457	wordpools/wasnorm_wordpool_576.txt	LTP379	ltpFR2	9	1	COURSE	390	n/a	n/a	0	0	0
341.70703125	n/a	WORD	699816	wordpools/wasnorm_wordpool_576.txt	LTP379	ltpFR2	9	1	LADDER	793	n/a	n/a	0	0	0
344.22412109375	n/a	WORD	704971	wordpools/wasnorm_wordpool_576.txt	LTP379	ltpFR2	9	1	TUTU	1524	n/a	n/a	0	0	0
346.80615234375	n/a	WORD	710259	wordpools/wasnorm_wordpool_576.txt	LTP379	ltpFR2	9	1	HIGHWAY	707	n/a	n/a	0	0	0
349.47412109375	n/a	WORD	715723	wordpools/wasnorm_wordpool_576.txt	LTP379	ltpFR2	9	1	WASHER	1592	n/a	n/a	0	0	0
351.98974609375	n/a	WORD	720875	wordpools/wasnorm_wordpool_576.txt	LTP379	ltpFR2	9	1	QUAIL	1147	n/a	n/a	0	0	0
354.53955078125	n/a	WORD	726097	wordpools/wasnorm_wordpool_576.txt	LTP379	ltpFR2	9	1	MUMMY	932	n/a	n/a	0	0	0
357.03955078125	n/a	WORD	731217	wordpools/wasnorm_wordpool_576.txt	LTP379	ltpFR2	9	1	POLICE	1098	n/a	n/a	0	0	0
359.83837890625	n/a	WORD	736949	wordpools/wasnorm_wordpool_576.txt	LTP379	ltpFR2	9	1	HORNET	718	n/a	n/a	0	0	0
362.33935546875	n/a	WORD	742071	wordpools/wasnorm_wordpool_576.txt	LTP379	ltpFR2	9	1	BRANCH	168	n/a	n/a	0	0	0
365.1064453125	n/a	WORD	747738	wordpools/wasnorm_wordpool_576.txt	LTP379	ltpFR2	9	1	CABIN	211	n/a	n/a	0	0	0
367.73828125	n/a	WORD	753128	wordpools/wasnorm_wordpool_576.txt	LTP379	ltpFR2	9	1	DRUG	501	n/a	n/a	0	0	0
370.189453125	n/a	WORD	758148	wordpools/wasnorm_wordpool_576.txt	LTP379	ltpFR2	9	1	DUSTPAN	509	n/a	n/a	0	0	0
372.9052734375	n/a	WORD	763710	wordpools/wasnorm_wordpool_576.txt	LTP379	ltpFR2	9	1	DUST	508	n/a	n/a	0	0	0
375.40625	n/a	WORD	768832	wordpools/wasnorm_wordpool_576.txt	LTP379	ltpFR2	9	1	RACKET	1155	n/a	n/a	0	0	0
377.837890625	n/a	WORD	773812	wordpools/wasnorm_wordpool_576.txt	LTP379	ltpFR2	9	1	MUSTARD	935	n/a	n/a	0	0	0
379.4560546875	n/a	START	777126	n/a	LTP379	ltpFR2	9	n/a	n/a	n/a	2	n/a	n/a	n/a	n/a
380.3701171875	n/a	DISTRACTOR	778998	n/a	LTP379	ltpFR2	9	1	n/a	n/a	n/a	n/a	0	0	0
380.3720703125	n/a	PROB	779002	n/a	LTP379	ltpFR2	9	n/a	n/a	n/a	2	17	4	5	8
382.87109375	n/a	PROB	784120	n/a	LTP379	ltpFR2	9	n/a	n/a	n/a	2	20	6	8	6
384.20458984375	n/a	PROB	786851	n/a	LTP379	ltpFR2	9	n/a	n/a	n/a	2	5	1	2	2
385.2216796875	n/a	PROB	788934	n/a	LTP379	ltpFR2	9	n/a	n/a	n/a	2	19	3	9	7
386.671875	n/a	PROB	791904	n/a	LTP379	ltpFR2	9	n/a	n/a	n/a	2	16	4	7	5
388.45458984375	n/a	PROB	795555	n/a	LTP379	ltpFR2	9	n/a	n/a	n/a	2	8	4	2	2
390.1044921875	n/a	PROB	798934	n/a	LTP379	ltpFR2	9	n/a	n/a	n/a	2	19	9	3	7
391.73779296875	n/a	PROB	802279	n/a	LTP379	ltpFR2	9	n/a	n/a	n/a	2	16	1	8	7
393.9716796875	n/a	PROB	806854	n/a	LTP379	ltpFR2	9	n/a	n/a	n/a	2	18	5	7	6
395.48828125	n/a	PROB	809960	n/a	LTP379	ltpFR2	9	n/a	n/a	n/a	2	7	2	2	3
397.17138671875	n/a	PROB	813407	n/a	LTP379	ltpFR2	9	n/a	n/a	n/a	2	21	7	8	6
399.23828125	n/a	PROB	817640	n/a	LTP379	ltpFR2	9	n/a	n/a	n/a	2	24	8	8	8
400.6875	n/a	PROB	820608	n/a	LTP379	ltpFR2	9	n/a	n/a	n/a	2	16	6	1	9
401.9541015625	n/a	PROB	823202	n/a	LTP379	ltpFR2	9	n/a	n/a	n/a	2	15	6	6	3
403.1591796875	n/a	STOP	825670	n/a	LTP379	ltpFR2	9	n/a	n/a	n/a	2	n/a	n/a	n/a	n/a
405.22119140625	n/a	REC_START	829893	n/a	LTP379	ltpFR2	9	1	n/a	n/a	n/a	n/a	0	0	0
411.4140625	n/a	REC_WORD	842576	wordpools/wasnorm_wordpool_576.txt	LTP379	ltpFR2	9	1	JURY	766	n/a	n/a	0	0	0
412.51904296875	n/a	REC_WORD	844839	wordpools/wasnorm_wordpool_576.txt	LTP379	ltpFR2	9	1	SKETCH	1315	n/a	n/a	0	0	0
414.01513671875	n/a	REC_WORD	847903	wordpools/wasnorm_wordpool_576.txt	LTP379	ltpFR2	9	1	ROBOT	1200	n/a	n/a	0	0	0
415.3740234375	n/a	REC_WORD	850686	wordpools/wasnorm_wordpool_576.txt	LTP379	ltpFR2	9	1	TYPIST	1532	n/a	n/a	0	0	0
416.64306640625	n/a	REC_WORD	853285	wordpools/wasnorm_wordpool_576.txt	LTP379	ltpFR2	9	1	OFFICE	972	n/a	n/a	0	0	0
417.88671875	n/a	REC_WORD	855832	wordpools/wasnorm_wordpool_576.txt	LTP379	ltpFR2	9	1	BLOCKADE	137	n/a	n/a	0	0	0
419.10986328125	n/a	REC_WORD	858337	wordpools/wasnorm_wordpool_576.txt	LTP379	ltpFR2	9	1	REBEL	1172	n/a	n/a	0	0	0
420.419921875	n/a	REC_WORD	861020	wordpools/wasnorm_wordpool_576.txt	LTP379	ltpFR2	9	1	SPHINX	1349	n/a	n/a	0	0	0
425.7734375	n/a	REC_WORD	871984	wordpools/wasnorm_wordpool_576.txt	LTP379	ltpFR2	9	1	COURSE	390	n/a	n/a	0	0	0
427.16650390625	n/a	REC_WORD	874837	wordpools/wasnorm_wordpool_576.txt	LTP379	ltpFR2	9	1	LADDER	793	n/a	n/a	0	0	0
428.4775390625	n/a	REC_WORD	877522	wordpools/wasnorm_wordpool_576.txt	LTP379	ltpFR2	9	1	TUTU	1524	n/a	n/a	0	0	0
429.58251953125	n/a	REC_WORD	879785	wordpools/wasnorm_wordpool_576.txt	LTP379	ltpFR2	9	1	HIGHWAY	707	n/a	n/a	0	0	0
430.8662109375	n/a	REC_WORD	882414	wordpools/wasnorm_wordpool_576.txt	LTP379	ltpFR2	9	1	WASHER	1592	n/a	n/a	0	0	0
432.13232421875	n/a	REC_WORD	885007	wordpools/wasnorm_wordpool_576.txt	LTP379	ltpFR2	9	1	QUAIL	1147	n/a	n/a	0	0	0
433.4873046875	n/a	REC_WORD	887782	wordpools/wasnorm_wordpool_576.txt	LTP379	ltpFR2	9	1	MUMMY	932	n/a	n/a	0	0	0
434.97412109375	n/a	REC_WORD_VV	890827	wordpools/wasnorm_wordpool_576.txt	LTP379	ltpFR2	9	1	<>	-1	n/a	n/a	0	0	0
436.826171875	n/a	REC_WORD	894620	wordpools/wasnorm_wordpool_576.txt	LTP379	ltpFR2	9	1	POLICE	1098	n/a	n/a	0	0	0
437.96337890625	n/a	REC_WORD	896949	wordpools/wasnorm_wordpool_576.txt	LTP379	ltpFR2	9	1	HORNET	718	n/a	n/a	0	0	0
439.29296875	n/a	REC_WORD	899672	wordpools/wasnorm_wordpool_576.txt	LTP379	ltpFR2	9	1	BRANCH	168	n/a	n/a	0	0	0
440.5439453125	n/a	REC_WORD	902234	wordpools/wasnorm_wordpool_576.txt	LTP379	ltpFR2	9	1	CABIN	211	n/a	n/a	0	0	0
441.8291015625	n/a	REC_WORD	904866	wordpools/wasnorm_wordpool_576.txt	LTP379	ltpFR2	9	1	DRUG	501	n/a	n/a	0	0	0
443.283203125	n/a	REC_WORD	907844	wordpools/wasnorm_wordpool_576.txt	LTP379	ltpFR2	9	1	DUSTPAN	509	n/a	n/a	0	0	0
444.60009765625	n/a	REC_WORD	910541	wordpools/wasnorm_wordpool_576.txt	LTP379	ltpFR2	9	1	DUST	508	n/a	n/a	0	0	0
445.8046875	n/a	REC_WORD	913008	wordpools/wasnorm_wordpool_576.txt	LTP379	ltpFR2	9	1	RACKET	1155	n/a	n/a	0	0	0
446.95166015625	n/a	REC_WORD	915357	wordpools/wasnorm_wordpool_576.txt	LTP379	ltpFR2	9	1	MUSTARD	935	n/a	n/a	0	0	0
495.68359375	n/a	WORD	1015160	wordpools/wasnorm_wordpool_576.txt	LTP379	ltpFR2	9	2	BOUQUET	157	n/a	n/a	0	0	0
498.13330078125	n/a	WORD	1020177	wordpools/wasnorm_wordpool_576.txt	LTP379	ltpFR2	9	2	TABLE	1426	n/a	n/a	0	0	0
500.68310546875	n/a	WORD	1025399	wordpools/wasnorm_wordpool_576.txt	LTP379	ltpFR2	9	2	PAIL	1002	n/a	n/a	0	0	0
503.31591796875	n/a	WORD	1030791	wordpools/wasnorm_wordpool_576.txt	LTP379	ltpFR2	9	2	PUPPY	1144	n/a	n/a	0	0	0
506.09912109375	n/a	WORD	1036491	wordpools/wasnorm_wordpool_576.txt	LTP379	ltpFR2	9	2	SIDEWALK	1303	n/a	n/a	0	0	0
508.69921875	n/a	WORD	1041816	wordpools/wasnorm_wordpool_576.txt	LTP379	ltpFR2	9	2	PASSAGE	1019	n/a	n/a	0	0	0
511.2490234375	n/a	WORD	1047038	wordpools/wasnorm_wordpool_576.txt	LTP379	ltpFR2	9	2	DENTIST	447	n/a	n/a	0	0	0
513.9990234375	n/a	WORD	1052670	wordpools/wasnorm_wordpool_576.txt	LTP379	ltpFR2	9	2	HOOD	714	n/a	n/a	0	0	0
516.6826171875	n/a	WORD	1058166	wordpools/wasnorm_wordpool_576.txt	LTP379	ltpFR2	9	2	TRIBE	1505	n/a	n/a	0	0	0
519.2158203125	n/a	WORD	1063354	wordpools/wasnorm_wordpool_576.txt	LTP379	ltpFR2	9	2	CHURCH	307	n/a	n/a	0	0	0
521.71435546875	n/a	WORD	1068471	wordpools/wasnorm_wordpool_576.txt	LTP379	ltpFR2	9	2	PLATE	1086	n/a	n/a	0	0	0
524.38232421875	n/a	WORD	1073935	wordpools/wasnorm_wordpool_576.txt	LTP379	ltpFR2	9	2	UNCLE	1536	n/a	n/a	0	0	0
527.1484375	n/a	WORD	1079600	wordpools/wasnorm_wordpool_576.txt	LTP379	ltpFR2	9	2	REPORT	1184	n/a	n/a	0	0	0
529.59814453125	n/a	WORD	1084617	wordpools/wasnorm_wordpool_576.txt	LTP379	ltpFR2	9	2	CONVICT	371	n/a	n/a	0	0	0
532.365234375	n/a	WORD	1090284	wordpools/wasnorm_wordpool_576.txt	LTP379	ltpFR2	9	2	CHAUFFEUR	283	n/a	n/a	0	0	0
534.88037109375	n/a	WORD	1095435	wordpools/wasnorm_wordpool_576.txt	LTP379	ltpFR2	9	2	POET	1095	n/a	n/a	0	0	0
537.630859375	n/a	WORD	1101068	wordpools/wasnorm_wordpool_576.txt	LTP379	ltpFR2	9	2	PADDING	999	n/a	n/a	0	0	0
540.21484375	n/a	WORD	1106360	wordpools/wasnorm_wordpool_576.txt	LTP379	ltpFR2	9	2	AWARD	63	n/a	n/a	0	0	0
542.68115234375	n/a	WORD	1111411	wordpools/wasnorm_wordpool_576.txt	LTP379	ltpFR2	9	2	DIVER	476	n/a	n/a	0	0	0
545.11376953125	n/a	WORD	1116393	wordpools/wasnorm_wordpool_576.txt	LTP379	ltpFR2	9	2	SUMMIT	1405	n/a	n/a	0	0	0
547.64794921875	n/a	WORD	1121583	wordpools/wasnorm_wordpool_576.txt	LTP379	ltpFR2	9	2	CAPTIVE	240	n/a	n/a	0	0	0
550.23095703125	n/a	WORD	1126873	wordpools/wasnorm_wordpool_576.txt	LTP379	ltpFR2	9	2	SUSPECT	1415	n/a	n/a	0	0	0
552.7294921875	n/a	WORD	1131990	wordpools/wasnorm_wordpool_576.txt	LTP379	ltpFR2	9	2	BEEF	113	n/a	n/a	0	0	0
555.19775390625	n/a	WORD	1137045	wordpools/wasnorm_wordpool_576.txt	LTP379	ltpFR2	9	2	BUTCHER	203	n/a	n/a	0	0	0
556.8134765625	n/a	START	1140354	n/a	LTP379	ltpFR2	9	n/a	n/a	n/a	3	n/a	n/a	n/a	n/a
557.9306640625	n/a	DISTRACTOR	1142642	n/a	LTP379	ltpFR2	9	2	n/a	n/a	n/a	n/a	0	0	0
557.947265625	n/a	PROB	1142676	n/a	LTP379	ltpFR2	9	n/a	n/a	n/a	3	12	7	4	1
560.3974609375	n/a	PROB	1147694	n/a	LTP379	ltpFR2	9	n/a	n/a	n/a	3	10	3	6	1
561.779296875	n/a	PROB	1150524	n/a	LTP379	ltpFR2	9	n/a	n/a	n/a	3	6	1	4	1
562.8291015625	n/a	PROB	1152674	n/a	LTP379	ltpFR2	9	n/a	n/a	n/a	3	12	3	3	6
564.896484375	n/a	PROB	1156908	n/a	LTP379	ltpFR2	9	n/a	n/a	n/a	3	11	2	3	6
566.36328125	n/a	PROB	1159912	n/a	LTP379	ltpFR2	9	n/a	n/a	n/a	3	14	3	5	6
567.96337890625	n/a	PROB	1163189	n/a	LTP379	ltpFR2	9	n/a	n/a	n/a	3	17	9	6	2
570.0302734375	n/a	PROB	1167422	n/a	LTP379	ltpFR2	9	n/a	n/a	n/a	3	9	7	1	1
571.11328125	n/a	PROB	1169640	n/a	LTP379	ltpFR2	9	n/a	n/a	n/a	3	13	1	9	3
572.31298828125	n/a	PROB	1172097	n/a	LTP379	ltpFR2	9	n/a	n/a	n/a	3	14	5	3	6
573.7451171875	n/a	PROB	1175030	n/a	LTP379	ltpFR2	9	n/a	n/a	n/a	3	13	7	2	4
575.14599609375	n/a	PROB	1177899	n/a	LTP379	ltpFR2	9	n/a	n/a	n/a	3	11	6	3	2
576.76171875	n/a	PROB	1181208	n/a	LTP379	ltpFR2	9	n/a	n/a	n/a	3	23	7	9	7
580.81201171875	n/a	STOP	1189503	n/a	LTP379	ltpFR2	9	n/a	n/a	n/a	3	n/a	n/a	n/a	n/a
582.712890625	n/a	REC_START	1193396	n/a	LTP379	ltpFR2	9	2	n/a	n/a	n/a	n/a	0	0	0
591.76025390625	n/a	REC_WORD	1211925	wordpools/wasnorm_wordpool_576.txt	LTP379	ltpFR2	9	2	BOUQUET	157	n/a	n/a	0	0	0
592.99462890625	n/a	REC_WORD	1214453	wordpools/wasnorm_wordpool_576.txt	LTP379	ltpFR2	9	2	TABLE	1426	n/a	n/a	0	0	0
594.6513671875	n/a	REC_WORD	1217846	wordpools/wasnorm_wordpool_576.txt	LTP379	ltpFR2	9	2	PAIL	1002	n/a	n/a	0	0	0
596.103515625	n/a	REC_WORD	1220820	wordpools/wasnorm_wordpool_576.txt	LTP379	ltpFR2	9	2	PUPPY	1144	n/a	n/a	0	0	0
597.2822265625	n/a	REC_WORD	1223234	wordpools/wasnorm_wordpool_576.txt	LTP379	ltpFR2	9	2	SIDEWALK	1303	n/a	n/a	0	0	0
598.60009765625	n/a	REC_WORD	1225933	wordpools/wasnorm_wordpool_576.txt	LTP379	ltpFR2	9	2	PASSAGE	1019	n/a	n/a	0	0	0
601.201171875	n/a	REC_WORD	1231260	wordpools/wasnorm_wordpool_576.txt	LTP379	ltpFR2	9	2	DENTIST	447	n/a	n/a	0	0	0
602.05712890625	n/a	REC_WORD	1233013	wordpools/wasnorm_wordpool_576.txt	LTP379	ltpFR2	9	2	HOOD	714	n/a	n/a	0	0	0
604.5029296875	n/a	REC_WORD	1238022	wordpools/wasnorm_wordpool_576.txt	LTP379	ltpFR2	9	2	TRIBE	1505	n/a	n/a	0	0	0
608.10791015625	n/a	REC_WORD	1245405	wordpools/wasnorm_wordpool_576.txt	LTP379	ltpFR2	9	2	CHURCH	307	n/a	n/a	0	0	0
609.20703125	n/a	REC_WORD	1247656	wordpools/wasnorm_wordpool_576.txt	LTP379	ltpFR2	9	2	PLATE	1086	n/a	n/a	0	0	0
610.31005859375	n/a	REC_WORD	1249915	wordpools/wasnorm_wordpool_576.txt	LTP379	ltpFR2	9	2	UNCLE	1536	n/a	n/a	0	0	0
611.466796875	n/a	REC_WORD	1252284	wordpools/wasnorm_wordpool_576.txt	LTP379	ltpFR2	9	2	REPORT	1184	n/a	n/a	0	0	0
612.86962890625	n/a	REC_WORD	1255157	wordpools/wasnorm_wordpool_576.txt	LTP379	ltpFR2	9	2	PADDING	999	n/a	n/a	0	0	0
613.9736328125	n/a	REC_WORD	1257418	wordpools/wasnorm_wordpool_576.txt	LTP379	ltpFR2	9	2	AWARD	63	n/a	n/a	0	0	0
615.37548828125	n/a	REC_WORD	1260289	wordpools/wasnorm_wordpool_576.txt	LTP379	ltpFR2	9	2	DIVER	476	n/a	n/a	0	0	0
617.18359375	n/a	REC_WORD	1263992	wordpools/wasnorm_wordpool_576.txt	LTP379	ltpFR2	9	2	SUMMIT	1405	n/a	n/a	0	0	0
618.923828125	n/a	REC_WORD	1267556	wordpools/wasnorm_wordpool_576.txt	LTP379	ltpFR2	9	2	CONVICT	371	n/a	n/a	0	0	0
621.67333984375	n/a	REC_WORD	1273187	wordpools/wasnorm_wordpool_576.txt	LTP379	ltpFR2	9	2	CHAUFFEUR	283	n/a	n/a	0	0	0
623.1796875	n/a	REC_WORD	1276272	wordpools/wasnorm_wordpool_576.txt	LTP379	ltpFR2	9	2	POET	1095	n/a	n/a	0	0	0
627.43310546875	n/a	REC_WORD	1284983	wordpools/wasnorm_wordpool_576.txt	LTP379	ltpFR2	9	2	CAPTIVE	240	n/a	n/a	0	0	0
631.83837890625	n/a	REC_WORD	1294005	wordpools/wasnorm_wordpool_576.txt	LTP379	ltpFR2	9	2	BEEF	113	n/a	n/a	0	0	0
633.0830078125	n/a	REC_WORD	1296554	wordpools/wasnorm_wordpool_576.txt	LTP379	ltpFR2	9	2	BUTCHER	203	n/a	n/a	0	0	0
673.14208984375	n/a	DISTRACTOR	1378595	n/a	LTP379	ltpFR2	9	3	n/a	n/a	n/a	n/a	0	0	0
673.14208984375	n/a	START	1378595	n/a	LTP379	ltpFR2	9	n/a	n/a	n/a	4	n/a	n/a	n/a	n/a
673.15869140625	n/a	PROB	1378629	n/a	LTP379	ltpFR2	9	n/a	n/a	n/a	4	12	8	3	1
674.923828125	n/a	PROB	1382244	n/a	LTP379	ltpFR2	9	n/a	n/a	n/a	4	8	4	1	3
676.4580078125	n/a	PROB	1385386	n/a	LTP379	ltpFR2	9	n/a	n/a	n/a	4	15	3	3	9
678.7568359375	n/a	PROB	1390094	n/a	LTP379	ltpFR2	9	n/a	n/a	n/a	4	14	3	6	5
681.79052734375	n/a	PROB	1396307	n/a	LTP379	ltpFR2	9	n/a	n/a	n/a	4	14	7	1	6
683.1416015625	n/a	PROB	1399074	n/a	LTP379	ltpFR2	9	n/a	n/a	n/a	4	18	7	9	2
685.0244140625	n/a	PROB	1402930	n/a	LTP379	ltpFR2	9	n/a	n/a	n/a	4	5	1	1	3
686.04150390625	n/a	PROB	1405013	n/a	LTP379	ltpFR2	9	n/a	n/a	n/a	4	17	6	4	7
687.45751953125	n/a	PROB	1407913	n/a	LTP379	ltpFR2	9	n/a	n/a	n/a	4	15	4	3	8
688.9912109375	n/a	PROB	1411054	n/a	LTP379	ltpFR2	9	n/a	n/a	n/a	4	14	2	8	4
690.224609375	n/a	PROB	1413580	n/a	LTP379	ltpFR2	9	n/a	n/a	n/a	4	18	8	7	3
691.6416015625	n/a	PROB	1416482	n/a	LTP379	ltpFR2	9	n/a	n/a	n/a	4	5	2	2	1
692.64111328125	n/a	PROB	1418529	n/a	LTP379	ltpFR2	9	n/a	n/a	n/a	4	20	3	8	9
694.80615234375	n/a	PROB	1422963	n/a	LTP379	ltpFR2	9	n/a	n/a	n/a	4	18	9	6	3
696.55126953125	n/a	STOP	1426537	n/a	LTP379	ltpFR2	9	n/a	n/a	n/a	4	n/a	n/a	n/a	n/a
698.05712890625	n/a	WORD	1429621	wordpools/wasnorm_wordpool_576.txt	LTP379	ltpFR2	9	3	ISLAND	745	n/a	n/a	0	0	0
700.72314453125	n/a	WORD	1435081	wordpools/wasnorm_wordpool_576.txt	LTP379	ltpFR2	9	3	STREAM	1392	n/a	n/a	0	0	0
703.240234375	n/a	WORD	1440236	wordpools/wasnorm_wordpool_576.txt	LTP379	ltpFR2	9	3	LACE	792	n/a	n/a	0	0	0
705.755859375	n/a	WORD	1445388	wordpools/wasnorm_wordpool_576.txt	LTP379	ltpFR2	9	3	MARKET	871	n/a	n/a	0	0	0
708.43994140625	n/a	WORD	1450885	wordpools/wasnorm_wordpool_576.txt	LTP379	ltpFR2	9	3	BUBBLE	183	n/a	n/a	0	0	0
711.056640625	n/a	WORD	1456244	wordpools/wasnorm_wordpool_576.txt	LTP379	ltpFR2	9	3	VENUS	1557	n/a	n/a	0	0	0
713.8388671875	n/a	WORD	1461942	wordpools/wasnorm_wordpool_576.txt	LTP379	ltpFR2	9	3	RELISH	1183	n/a	n/a	0	0	0
716.5224609375	n/a	WORD	1467438	wordpools/wasnorm_wordpool_576.txt	LTP379	ltpFR2	9	3	KETCHUP	771	n/a	n/a	0	0	0
718.9736328125	n/a	WORD	1472458	wordpools/wasnorm_wordpool_576.txt	LTP379	ltpFR2	9	3	PICNIC	1060	n/a	n/a	0	0	0
721.771484375	n/a	WORD	1478188	wordpools/wasnorm_wordpool_576.txt	LTP379	ltpFR2	9	3	NIGHTGOWN	953	n/a	n/a	0	0	0
724.4892578125	n/a	WORD	1483754	wordpools/wasnorm_wordpool_576.txt	LTP379	ltpFR2	9	3	SKIRT	1319	n/a	n/a	0	0	0
727.1064453125	n/a	WORD	1489114	wordpools/wasnorm_wordpool_576.txt	LTP379	ltpFR2	9	3	FRANCE	601	n/a	n/a	0	0	0
729.705078125	n/a	WORD	1494436	wordpools/wasnorm_wordpool_576.txt	LTP379	ltpFR2	9	3	PISTON	1076	n/a	n/a	0	0	0
732.30615234375	n/a	WORD	1499763	wordpools/wasnorm_wordpool_576.txt	LTP379	ltpFR2	9	3	DRESS	495	n/a	n/a	0	0	0
734.85498046875	n/a	WORD	1504983	wordpools/wasnorm_wordpool_576.txt	LTP379	ltpFR2	9	3	WITNESS	1618	n/a	n/a	0	0	0
737.30615234375	n/a	WORD	1510003	wordpools/wasnorm_wordpool_576.txt	LTP379	ltpFR2	9	3	NOVEL	960	n/a	n/a	0	0	0
740.0888671875	n/a	WORD	1515702	wordpools/wasnorm_wordpool_576.txt	LTP379	ltpFR2	9	3	JEANS	752	n/a	n/a	0	0	0
742.52197265625	n/a	WORD	1520685	wordpools/wasnorm_wordpool_576.txt	LTP379	ltpFR2	9	3	HOSTESS	723	n/a	n/a	0	0	0
745.07177734375	n/a	WORD	1525907	wordpools/wasnorm_wordpool_576.txt	LTP379	ltpFR2	9	3	FIREMAN	569	n/a	n/a	0	0	0
747.8037109375	n/a	WORD	1531502	wordpools/wasnorm_wordpool_576.txt	LTP379	ltpFR2	9	3	COBRA	336	n/a	n/a	0	0	0
750.5546875	n/a	WORD	1537136	wordpools/wasnorm_wordpool_576.txt	LTP379	ltpFR2	9	3	WAITRESS	1581	n/a	n/a	0	0	0
753.1044921875	n/a	WORD	1542358	wordpools/wasnorm_wordpool_576.txt	LTP379	ltpFR2	9	3	PASTRY	1022	n/a	n/a	0	0	0
755.92041015625	n/a	WORD	1548125	wordpools/wasnorm_wordpool_576.txt	LTP379	ltpFR2	9	3	GUARD	667	n/a	n/a	0	0	0
758.62109375	n/a	WORD	1553656	wordpools/wasnorm_wordpool_576.txt	LTP379	ltpFR2	9	3	BADGE	68	n/a	n/a	0	0	0
760.23828125	n/a	START	1556968	n/a	LTP379	ltpFR2	9	n/a	n/a	n/a	5	n/a	n/a	n/a	n/a
761.2890625	n/a	DISTRACTOR	1559120	n/a	LTP379	ltpFR2	9	3	n/a	n/a	n/a	n/a	0	0	0
761.30419921875	n/a	PROB	1559151	n/a	LTP379	ltpFR2	9	n/a	n/a	n/a	5	12	2	2	8
763.2041015625	n/a	PROB	1563042	n/a	LTP379	ltpFR2	9	n/a	n/a	n/a	5	20	9	5	6
766.3212890625	n/a	PROB	1569426	n/a	LTP379	ltpFR2	9	n/a	n/a	n/a	5	18	8	8	2
768.037109375	n/a	PROB	1572940	n/a	LTP379	ltpFR2	9	n/a	n/a	n/a	5	18	7	4	7
770.02099609375	n/a	PROB	1577003	n/a	LTP379	ltpFR2	9	n/a	n/a	n/a	5	18	4	9	5
771.63671875	n/a	PROB	1580312	n/a	LTP379	ltpFR2	9	n/a	n/a	n/a	5	18	5	4	9
773.0869140625	n/a	PROB	1583282	n/a	LTP379	ltpFR2	9	n/a	n/a	n/a	5	11	1	6	4
774.35400390625	n/a	PROB	1585877	n/a	LTP379	ltpFR2	9	n/a	n/a	n/a	5	15	3	9	3
776.0537109375	n/a	PROB	1589358	n/a	LTP379	ltpFR2	9	n/a	n/a	n/a	5	13	2	3	8
777.90283203125	n/a	PROB	1593145	n/a	LTP379	ltpFR2	9	n/a	n/a	n/a	5	14	2	6	6
779.86962890625	n/a	PROB	1597173	n/a	LTP379	ltpFR2	9	n/a	n/a	n/a	5	15	4	7	4
781.58642578125	n/a	PROB	1600689	n/a	LTP379	ltpFR2	9	n/a	n/a	n/a	5	21	7	7	7
782.7666015625	n/a	STOP	1603106	n/a	LTP379	ltpFR2	9	n/a	n/a	n/a	5	n/a	n/a	n/a	n/a
786.1533203125	n/a	REC_START	1610042	n/a	LTP379	ltpFR2	9	3	n/a	n/a	n/a	n/a	0	0	0
805.06591796875	n/a	REC_WORD_VV	1648775	wordpools/wasnorm_wordpool_576.txt	LTP379	ltpFR2	9	3	<>	-1	n/a	n/a	0	0	0
807.6337890625	n/a	REC_WORD	1654034	wordpools/wasnorm_wordpool_576.txt	LTP379	ltpFR2	9	3	ISLAND	745	n/a	n/a	0	0	0
808.78955078125	n/a	REC_WORD	1656401	wordpools/wasnorm_wordpool_576.txt	LTP379	ltpFR2	9	3	STREAM	1392	n/a	n/a	0	0	0
810.15966796875	n/a	REC_WORD	1659207	wordpools/wasnorm_wordpool_576.txt	LTP379	ltpFR2	9	3	LACE	792	n/a	n/a	0	0	0
811.3115234375	n/a	REC_WORD	1661566	wordpools/wasnorm_wordpool_576.txt	LTP379	ltpFR2	9	3	MARKET	871	n/a	n/a	0	0	0
812.5595703125	n/a	REC_WORD	1664122	wordpools/wasnorm_wordpool_576.txt	LTP379	ltpFR2	9	3	BUBBLE	183	n/a	n/a	0	0	0
813.6318359375	n/a	REC_WORD	1666318	wordpools/wasnorm_wordpool_576.txt	LTP379	ltpFR2	9	3	VENUS	1557	n/a	n/a	0	0	0
815.20654296875	n/a	REC_WORD	1669543	wordpools/wasnorm_wordpool_576.txt	LTP379	ltpFR2	9	3	RELISH	1183	n/a	n/a	0	0	0
816.52734375	n/a	REC_WORD	1672248	wordpools/wasnorm_wordpool_576.txt	LTP379	ltpFR2	9	3	KETCHUP	771	n/a	n/a	0	0	0
819.3525390625	n/a	REC_WORD	1678034	wordpools/wasnorm_wordpool_576.txt	LTP379	ltpFR2	9	3	PICNIC	1060	n/a	n/a	0	0	0
820.38134765625	n/a	REC_WORD	1680141	wordpools/wasnorm_wordpool_576.txt	LTP379	ltpFR2	9	3	NIGHTGOWN	953	n/a	n/a	0	0	0
821.5322265625	n/a	REC_WORD	1682498	wordpools/wasnorm_wordpool_576.txt	LTP379	ltpFR2	9	3	SKIRT	1319	n/a	n/a	0	0	0
822.80224609375	n/a	REC_WORD	1685099	wordpools/wasnorm_wordpool_576.txt	LTP379	ltpFR2	9	3	FRANCE	601	n/a	n/a	0	0	0
824.12939453125	n/a	REC_WORD	1687817	wordpools/wasnorm_wordpool_576.txt	LTP379	ltpFR2	9	3	PISTON	1076	n/a	n/a	0	0	0
825.30712890625	n/a	REC_WORD	1690229	wordpools/wasnorm_wordpool_576.txt	LTP379	ltpFR2	9	3	DRESS	495	n/a	n/a	0	0	0
826.70703125	n/a	REC_WORD	1693096	wordpools/wasnorm_wordpool_576.txt	LTP379	ltpFR2	9	3	WITNESS	1618	n/a	n/a	0	0	0
827.9609375	n/a	REC_WORD	1695664	wordpools/wasnorm_wordpool_576.txt	LTP379	ltpFR2	9	3	NOVEL	960	n/a	n/a	0	0	0
829.4140625	n/a	REC_WORD	1698640	wordpools/wasnorm_wordpool_576.txt	LTP379	ltpFR2	9	3	HOSTESS	723	n/a	n/a	0	0	0
831.4169921875	n/a	REC_WORD	1702742	wordpools/wasnorm_wordpool_576.txt	LTP379	ltpFR2	9	3	JEANS	752	n/a	n/a	0	0	0
838.69384765625	n/a	REC_WORD	1717645	wordpools/wasnorm_wordpool_576.txt	LTP379	ltpFR2	9	3	FIREMAN	569	n/a	n/a	0	0	0
840.12060546875	n/a	REC_WORD	1720567	wordpools/wasnorm_wordpool_576.txt	LTP379	ltpFR2	9	3	COBRA	336	n/a	n/a	0	0	0
841.73974609375	n/a	REC_WORD	1723883	wordpools/wasnorm_wordpool_576.txt	LTP379	ltpFR2	9	3	WAITRESS	1581	n/a	n/a	0	0	0
843.0908203125	n/a	REC_WORD	1726650	wordpools/wasnorm_wordpool_576.txt	LTP379	ltpFR2	9	3	PASTRY	1022	n/a	n/a	0	0	0
844.44970703125	n/a	REC_WORD	1729433	wordpools/wasnorm_wordpool_576.txt	LTP379	ltpFR2	9	3	GUARD	667	n/a	n/a	0	0	0
845.66650390625	n/a	REC_WORD	1731925	wordpools/wasnorm_wordpool_576.txt	LTP379	ltpFR2	9	3	BADGE	68	n/a	n/a	0	0	0
876.58251953125	n/a	DISTRACTOR	1795241	n/a	LTP379	ltpFR2	9	4	n/a	n/a	n/a	n/a	0	0	0
876.58251953125	n/a	START	1795241	n/a	LTP379	ltpFR2	9	n/a	n/a	n/a	6	n/a	n/a	n/a	n/a
876.5986328125	n/a	PROB	1795274	n/a	LTP379	ltpFR2	9	n/a	n/a	n/a	6	13	4	6	3
878.0986328125	n/a	PROB	1798346	n/a	LTP379	ltpFR2	9	n/a	n/a	n/a	6	22	9	6	7
880.49853515625	n/a	PROB	1803261	n/a	LTP379	ltpFR2	9	n/a	n/a	n/a	6	14	5	8	1
882.54833984375	n/a	PROB	1807459	n/a	LTP379	ltpFR2	9	n/a	n/a	n/a	6	14	7	2	5
884.46533203125	n/a	PROB	1811385	n/a	LTP379	ltpFR2	9	n/a	n/a	n/a	6	15	7	6	2
885.982421875	n/a	PROB	1814492	n/a	LTP379	ltpFR2	9	n/a	n/a	n/a	6	13	2	2	9
887.54833984375	n/a	PROB	1817699	n/a	LTP379	ltpFR2	9	n/a	n/a	n/a	6	15	3	8	4
889.998046875	n/a	PROB	1822716	n/a	LTP379	ltpFR2	9	n/a	n/a	n/a	6	18	5	9	4
891.68115234375	n/a	PROB	1826163	n/a	LTP379	ltpFR2	9	n/a	n/a	n/a	6	14	4	6	4
892.84716796875	n/a	PROB	1828551	n/a	LTP379	ltpFR2	9	n/a	n/a	n/a	6	14	1	8	5
894.72998046875	n/a	PROB	1832407	n/a	LTP379	ltpFR2	9	n/a	n/a	n/a	6	16	6	4	6
896.7802734375	n/a	PROB	1836606	n/a	LTP379	ltpFR2	9	n/a	n/a	n/a	6	22	8	7	7
898.46484375	n/a	PROB	1840056	n/a	LTP379	ltpFR2	9	n/a	n/a	n/a	6	17	7	5	5
899.99072265625	n/a	STOP	1843181	n/a	LTP379	ltpFR2	9	n/a	n/a	n/a	6	n/a	n/a	n/a	n/a
901.5478515625	n/a	WORD	1846370	wordpools/wasnorm_wordpool_576.txt	LTP379	ltpFR2	9	4	SNAKE	1333	n/a	n/a	0	0	0
904.11474609375	n/a	WORD	1851627	wordpools/wasnorm_wordpool_576.txt	LTP379	ltpFR2	9	4	LOVER	846	n/a	n/a	0	0	0
906.64794921875	n/a	WORD	1856815	wordpools/wasnorm_wordpool_576.txt	LTP379	ltpFR2	9	4	BOYFRIEND	162	n/a	n/a	0	0	0
909.09765625	n/a	WORD	1861832	wordpools/wasnorm_wordpool_576.txt	LTP379	ltpFR2	9	4	CLIMBER	323	n/a	n/a	0	0	0
911.86376953125	n/a	WORD	1867497	wordpools/wasnorm_wordpool_576.txt	LTP379	ltpFR2	9	4	MAILBOX	857	n/a	n/a	0	0	0
914.63037109375	n/a	WORD	1873163	wordpools/wasnorm_wordpool_576.txt	LTP379	ltpFR2	9	4	PACKAGE	997	n/a	n/a	0	0	0
917.3134765625	n/a	WORD	1878658	wordpools/wasnorm_wordpool_576.txt	LTP379	ltpFR2	9	4	PUPIL	1143	n/a	n/a	0	0	0
919.87939453125	n/a	WORD	1883913	wordpools/wasnorm_wordpool_576.txt	LTP379	ltpFR2	9	4	PEACH	1031	n/a	n/a	0	0	0
922.46337890625	n/a	WORD	1889205	wordpools/wasnorm_wordpool_576.txt	LTP379	ltpFR2	9	4	GRIZZLY	662	n/a	n/a	0	0	0
925.26318359375	n/a	WORD	1894939	wordpools/wasnorm_wordpool_576.txt	LTP379	ltpFR2	9	4	WARDROBE	1587	n/a	n/a	0	0	0
927.81201171875	n/a	WORD	1900159	wordpools/wasnorm_wordpool_576.txt	LTP379	ltpFR2	9	4	OYSTER	995	n/a	n/a	0	0	0
930.56396484375	n/a	WORD	1905795	wordpools/wasnorm_wordpool_576.txt	LTP379	ltpFR2	9	4	SILK	1307	n/a	n/a	0	0	0
933.22998046875	n/a	WORD	1911255	wordpools/wasnorm_wordpool_576.txt	LTP379	ltpFR2	9	4	SUITCASE	1403	n/a	n/a	0	0	0
935.74462890625	n/a	WORD	1916405	wordpools/wasnorm_wordpool_576.txt	LTP379	ltpFR2	9	4	PASTA	1021	n/a	n/a	0	0	0
938.2958984375	n/a	WORD	1921630	wordpools/wasnorm_wordpool_576.txt	LTP379	ltpFR2	9	4	TOASTER	1472	n/a	n/a	0	0	0
941.11279296875	n/a	WORD	1927399	wordpools/wasnorm_wordpool_576.txt	LTP379	ltpFR2	9	4	DRAGON	492	n/a	n/a	0	0	0
943.8447265625	n/a	WORD	1932994	wordpools/wasnorm_wordpool_576.txt	LTP379	ltpFR2	9	4	CURTAIN	427	n/a	n/a	0	0	0
946.49560546875	n/a	WORD	1938423	wordpools/wasnorm_wordpool_576.txt	LTP379	ltpFR2	9	4	GUITAR	670	n/a	n/a	0	0	0
949.07958984375	n/a	WORD	1943715	wordpools/wasnorm_wordpool_576.txt	LTP379	ltpFR2	9	4	WHISTLE	1606	n/a	n/a	0	0	0
951.84423828125	n/a	WORD	1949377	wordpools/wasnorm_wordpool_576.txt	LTP379	ltpFR2	9	4	DRILL	497	n/a	n/a	0	0	0
954.26220703125	n/a	WORD	1954329	wordpools/wasnorm_wordpool_576.txt	LTP379	ltpFR2	9	4	TRACTOR	1493	n/a	n/a	0	0	0
956.744140625	n/a	WORD	1959412	wordpools/wasnorm_wordpool_576.txt	LTP379	ltpFR2	9	4	CLAM	315	n/a	n/a	0	0	0
959.4951171875	n/a	WORD	1965046	wordpools/wasnorm_wordpool_576.txt	LTP379	ltpFR2	9	4	NEUTRON	947	n/a	n/a	0	0	0
962.27783203125	n/a	WORD	1970745	wordpools/wasnorm_wordpool_576.txt	LTP379	ltpFR2	9	4	BEAST	108	n/a	n/a	0	0	0
963.89404296875	n/a	START	1974055	n/a	LTP379	ltpFR2	9	n/a	n/a	n/a	7	n/a	n/a	n/a	n/a
965.083984375	n/a	DISTRACTOR	1976492	n/a	LTP379	ltpFR2	9	4	n/a	n/a	n/a	n/a	0	0	0
965.0947265625	n/a	PROB	1976514	n/a	LTP379	ltpFR2	9	n/a	n/a	n/a	7	11	1	5	5
966.6279296875	n/a	PROB	1979654	n/a	LTP379	ltpFR2	9	n/a	n/a	n/a	7	13	4	2	7
968.16162109375	n/a	PROB	1982795	n/a	LTP379	ltpFR2	9	n/a	n/a	n/a	7	12	1	7	4
969.6279296875	n/a	PROB	1985798	n/a	LTP379	ltpFR2	9	n/a	n/a	n/a	7	13	9	1	3
970.8095703125	n/a	PROB	1988218	n/a	LTP379	ltpFR2	9	n/a	n/a	n/a	7	10	3	3	4
972.177734375	n/a	PROB	1991020	n/a	LTP379	ltpFR2	9	n/a	n/a	n/a	7	11	3	1	7
973.62744140625	n/a	PROB	1993989	n/a	LTP379	ltpFR2	9	n/a	n/a	n/a	7	11	8	2	1
974.70947265625	n/a	PROB	1996205	n/a	LTP379	ltpFR2	9	n/a	n/a	n/a	7	13	1	6	6
977.14453125	n/a	PROB	2001192	n/a	LTP379	ltpFR2	9	n/a	n/a	n/a	7	14	3	8	1
979.07763671875	n/a	PROB	2005151	n/a	LTP379	ltpFR2	9	n/a	n/a	n/a	7	8	1	4	3
981.04443359375	n/a	PROB	2009179	n/a	LTP379	ltpFR2	9	n/a	n/a	n/a	7	13	6	4	3
982.21044921875	n/a	PROB	2011567	n/a	LTP379	ltpFR2	9	n/a	n/a	n/a	7	9	5	3	1
983.42724609375	n/a	PROB	2014059	n/a	LTP379	ltpFR2	9	n/a	n/a	n/a	7	19	6	8	5
985.75927734375	n/a	PROB	2018835	n/a	LTP379	ltpFR2	9	n/a	n/a	n/a	7	17	7	3	7
987.18310546875	n/a	STOP	2021751	n/a	LTP379	ltpFR2	9	n/a	n/a	n/a	7	n/a	n/a	n/a	n/a
989.67724609375	n/a	REC_START	2026859	n/a	LTP379	ltpFR2	9	4	n/a	n/a	n/a	n/a	0	0	0
994.5078125	n/a	REC_WORD	2036752	wordpools/wasnorm_wordpool_576.txt	LTP379	ltpFR2	9	4	SNAKE	1333	n/a	n/a	0	0	0
995.70703125	n/a	REC_WORD	2039208	wordpools/wasnorm_wordpool_576.txt	LTP379	ltpFR2	9	4	LOVER	846	n/a	n/a	0	0	0
996.89306640625	n/a	REC_WORD	2041637	wordpools/wasnorm_wordpool_576.txt	LTP379	ltpFR2	9	4	BOYFRIEND	162	n/a	n/a	0	0	0
997.94580078125	n/a	REC_WORD	2043793	wordpools/wasnorm_wordpool_576.txt	LTP379	ltpFR2	9	4	CLIMBER	323	n/a	n/a	0	0	0
998.97265625	n/a	REC_WORD	2045896	wordpools/wasnorm_wordpool_576.txt	LTP379	ltpFR2	9	4	MAILBOX	857	n/a	n/a	0	0	0
1000.23681640625	n/a	REC_WORD	2048485	wordpools/wasnorm_wordpool_576.txt	LTP379	ltpFR2	9	4	PACKAGE	997	n/a	n/a	0	0	0
1001.4580078125	n/a	REC_WORD	2050986	wordpools/wasnorm_wordpool_576.txt	LTP379	ltpFR2	9	4	PUPIL	1143	n/a	n/a	0	0	0
1002.81396484375	n/a	REC_WORD	2053763	wordpools/wasnorm_wordpool_576.txt	LTP379	ltpFR2	9	4	PEACH	1031	n/a	n/a	0	0	0
1004.27685546875	n/a	REC_WORD	2056759	wordpools/wasnorm_wordpool_576.txt	LTP379	ltpFR2	9	4	GRIZZLY	662	n/a	n/a	0	0	0
1005.509765625	n/a	REC_WORD	2059284	wordpools/wasnorm_wordpool_576.txt	LTP379	ltpFR2	9	4	WARDROBE	1587	n/a	n/a	0	0	0
1008.37548828125	n/a	REC_WORD	2065153	wordpools/wasnorm_wordpool_576.txt	LTP379	ltpFR2	9	4	OYSTER	995	n/a	n/a	0	0	0
1009.56640625	n/a	REC_WORD	2067592	wordpools/wasnorm_wordpool_576.txt	LTP379	ltpFR2	9	4	SILK	1307	n/a	n/a	0	0	0
1012.03125	n/a	REC_WORD	2072640	wordpools/wasnorm_wordpool_576.txt	LTP379	ltpFR2	9	4	SUITCASE	1403	n/a	n/a	0	0	0
1014.04345703125	n/a	REC_WORD	2076761	wordpools/wasnorm_wordpool_576.txt	LTP379	ltpFR2	9	4	PASTA	1021	n/a	n/a	0	0	0
1015.4853515625	n/a	REC_WORD	2079714	wordpools/wasnorm_wordpool_576.txt	LTP379	ltpFR2	9	4	TOASTER	1472	n/a	n/a	0	0	0
1016.818359375	n/a	REC_WORD	2082444	wordpools/wasnorm_wordpool_576.txt	LTP379	ltpFR2	9	4	DRAGON	492	n/a	n/a	0	0	0
1020.5400390625	n/a	REC_WORD	2090066	wordpools/wasnorm_wordpool_576.txt	LTP379	ltpFR2	9	4	CURTAIN	427	n/a	n/a	0	0	0
1021.7041015625	n/a	REC_WORD	2092450	wordpools/wasnorm_wordpool_576.txt	LTP379	ltpFR2	9	4	GUITAR	670	n/a	n/a	0	0	0
1023.22314453125	n/a	REC_WORD	2095561	wordpools/wasnorm_wordpool_576.txt	LTP379	ltpFR2	9	4	WHISTLE	1606	n/a	n/a	0	0	0
1024.56298828125	n/a	REC_WORD	2098305	wordpools/wasnorm_wordpool_576.txt	LTP379	ltpFR2	9	4	DRILL	497	n/a	n/a	0	0	0
1025.73095703125	n/a	REC_WORD	2100697	wordpools/wasnorm_wordpool_576.txt	LTP379	ltpFR2	9	4	TRACTOR	1493	n/a	n/a	0	0	0
1027.248046875	n/a	REC_WORD	2103804	wordpools/wasnorm_wordpool_576.txt	LTP379	ltpFR2	9	4	CLAM	315	n/a	n/a	0	0	0
1028.6748046875	n/a	REC_WORD	2106726	wordpools/wasnorm_wordpool_576.txt	LTP379	ltpFR2	9	4	NEUTRON	947	n/a	n/a	0	0	0
1030.1328125	n/a	REC_WORD	2109712	wordpools/wasnorm_wordpool_576.txt	LTP379	ltpFR2	9	4	BEAST	108	n/a	n/a	0	0	0
1080.15625	n/a	WORD	2212160	wordpools/wasnorm_wordpool_576.txt	LTP379	ltpFR2	9	5	SHORTCAKE	1292	n/a	n/a	0	0	0
1082.80517578125	n/a	WORD	2217585	wordpools/wasnorm_wordpool_576.txt	LTP379	ltpFR2	9	5	CONTRACT	368	n/a	n/a	0	0	0
1085.30615234375	n/a	WORD	2222707	wordpools/wasnorm_wordpool_576.txt	LTP379	ltpFR2	9	5	POWDER	1117	n/a	n/a	0	0	0
1087.9052734375	n/a	WORD	2228030	wordpools/wasnorm_wordpool_576.txt	LTP379	ltpFR2	9	5	HUMAN	726	n/a	n/a	0	0	0
1090.40625	n/a	WORD	2233152	wordpools/wasnorm_wordpool_576.txt	LTP379	ltpFR2	9	5	BLENDER	136	n/a	n/a	0	0	0
1092.93896484375	n/a	WORD	2238339	wordpools/wasnorm_wordpool_576.txt	LTP379	ltpFR2	9	5	VIRUS	1572	n/a	n/a	0	0	0
1095.63916015625	n/a	WORD	2243869	wordpools/wasnorm_wordpool_576.txt	LTP379	ltpFR2	9	5	LUNCH	849	n/a	n/a	0	0	0
1098.3388671875	n/a	WORD	2249398	wordpools/wasnorm_wordpool_576.txt	LTP379	ltpFR2	9	5	LONDON	843	n/a	n/a	0	0	0
1100.8876953125	n/a	WORD	2254618	wordpools/wasnorm_wordpool_576.txt	LTP379	ltpFR2	9	5	GHETTO	633	n/a	n/a	0	0	0
1103.45458984375	n/a	WORD	2259875	wordpools/wasnorm_wordpool_576.txt	LTP379	ltpFR2	9	5	LAVA	804	n/a	n/a	0	0	0
1106.23876953125	n/a	WORD	2265577	wordpools/wasnorm_wordpool_576.txt	LTP379	ltpFR2	9	5	COUNTRY	388	n/a	n/a	0	0	0
1108.6875	n/a	WORD	2270592	wordpools/wasnorm_wordpool_576.txt	LTP379	ltpFR2	9	5	BULLET	194	n/a	n/a	0	0	0
1111.271484375	n/a	WORD	2275884	wordpools/wasnorm_wordpool_576.txt	LTP379	ltpFR2	9	5	STAPLE	1371	n/a	n/a	0	0	0
1114.05419921875	n/a	WORD	2281583	wordpools/wasnorm_wordpool_576.txt	LTP379	ltpFR2	9	5	HIKER	708	n/a	n/a	0	0	0
1116.7373046875	n/a	WORD	2287078	wordpools/wasnorm_wordpool_576.txt	LTP379	ltpFR2	9	5	CHAMPAGNE	278	n/a	n/a	0	0	0
1119.38720703125	n/a	WORD	2292505	wordpools/wasnorm_wordpool_576.txt	LTP379	ltpFR2	9	5	STONE	1385	n/a	n/a	0	0	0
1122.02099609375	n/a	WORD	2297899	wordpools/wasnorm_wordpool_576.txt	LTP379	ltpFR2	9	5	SPIDER	1351	n/a	n/a	0	0	0
1124.60400390625	n/a	WORD	2303189	wordpools/wasnorm_wordpool_576.txt	LTP379	ltpFR2	9	5	TERMITE	1451	n/a	n/a	0	0	0
1127.0869140625	n/a	WORD	2308274	wordpools/wasnorm_wordpool_576.txt	LTP379	ltpFR2	9	5	BANQUET	86	n/a	n/a	0	0	0
1129.7529296875	n/a	WORD	2313734	wordpools/wasnorm_wordpool_576.txt	LTP379	ltpFR2	9	5	SHIRT	1287	n/a	n/a	0	0	0
1132.43701171875	n/a	WORD	2319231	wordpools/wasnorm_wordpool_576.txt	LTP379	ltpFR2	9	5	SIBLING	1301	n/a	n/a	0	0	0
1135.20361328125	n/a	WORD	2324897	wordpools/wasnorm_wordpool_576.txt	LTP379	ltpFR2	9	5	GROUND	666	n/a	n/a	0	0	0
1137.63671875	n/a	WORD	2329880	wordpools/wasnorm_wordpool_576.txt	LTP379	ltpFR2	9	5	QUARTER	1148	n/a	n/a	0	0	0
1140.1533203125	n/a	WORD	2335034	wordpools/wasnorm_wordpool_576.txt	LTP379	ltpFR2	9	5	HANDBAG	684	n/a	n/a	0	0	0
1141.76953125	n/a	START	2338344	n/a	LTP379	ltpFR2	9	n/a	n/a	n/a	8	n/a	n/a	n/a	n/a
1142.849609375	n/a	DISTRACTOR	2340556	n/a	LTP379	ltpFR2	9	5	n/a	n/a	n/a	n/a	0	0	0
1142.8525390625	n/a	PROB	2340562	n/a	LTP379	ltpFR2	9	n/a	n/a	n/a	8	19	1	9	9
1144.818359375	n/a	PROB	2344588	n/a	LTP379	ltpFR2	9	n/a	n/a	n/a	8	6	1	1	4
1146.50341796875	n/a	PROB	2348039	n/a	LTP379	ltpFR2	9	n/a	n/a	n/a	8	9	1	2	6
1148.21923828125	n/a	PROB	2351553	n/a	LTP379	ltpFR2	9	n/a	n/a	n/a	8	15	9	4	2
1149.83544921875	n/a	PROB	2354863	n/a	LTP379	ltpFR2	9	n/a	n/a	n/a	8	21	9	6	6
1151.35302734375	n/a	PROB	2357971	n/a	LTP379	ltpFR2	9	n/a	n/a	n/a	8	21	9	3	9
1152.986328125	n/a	PROB	2361316	n/a	LTP379	ltpFR2	9	n/a	n/a	n/a	8	17	9	7	1
1154.76806640625	n/a	PROB	2364965	n/a	LTP379	ltpFR2	9	n/a	n/a	n/a	8	9	6	1	2
1156.8349609375	n/a	PROB	2369198	n/a	LTP379	ltpFR2	9	n/a	n/a	n/a	8	15	3	5	7
1158.1689453125	n/a	PROB	2371930	n/a	LTP379	ltpFR2	9	n/a	n/a	n/a	8	19	7	7	5
1159.6689453125	n/a	PROB	2375002	n/a	LTP379	ltpFR2	9	n/a	n/a	n/a	8	21	4	8	9
1161.7177734375	n/a	PROB	2379198	n/a	LTP379	ltpFR2	9	n/a	n/a	n/a	8	19	4	8	7
1165.15869140625	n/a	STOP	2386245	n/a	LTP379	ltpFR2	9	n/a	n/a	n/a	8	n/a	n/a	n/a	n/a
1167.56884765625	n/a	REC_START	2391181	n/a	LTP379	ltpFR2	9	5	n/a	n/a	n/a	n/a	0	0	0
1193.56494140625	n/a	REC_WORD	2444421	wordpools/wasnorm_wordpool_576.txt	LTP379	ltpFR2	9	5	SHORTCAKE	1292	n/a	n/a	0	0	0
1194.7607421875	n/a	REC_WORD	2446870	wordpools/wasnorm_wordpool_576.txt	LTP379	ltpFR2	9	5	CONTRACT	368	n/a	n/a	0	0	0
1195.9248046875	n/a	REC_WORD	2449254	wordpools/wasnorm_wordpool_576.txt	LTP379	ltpFR2	9	5	POWDER	1117	n/a	n/a	0	0	0
1196.90185546875	n/a	REC_WORD	2451255	wordpools/wasnorm_wordpool_576.txt	LTP379	ltpFR2	9	5	HUMAN	726	n/a	n/a	0	0	0
1198.32568359375	n/a	REC_WORD	2454171	wordpools/wasnorm_wordpool_576.txt	LTP379	ltpFR2	9	5	BLENDER	136	n/a	n/a	0	0	0
1199.36181640625	n/a	REC_WORD	2456293	wordpools/wasnorm_wordpool_576.txt	LTP379	ltpFR2	9	5	VIRUS	1572	n/a	n/a	0	0	0
1200.49267578125	n/a	REC_WORD	2458609	wordpools/wasnorm_wordpool_576.txt	LTP379	ltpFR2	9	5	LUNCH	849	n/a	n/a	0	0	0
1205.5166015625	n/a	REC_WORD	2468898	wordpools/wasnorm_wordpool_576.txt	LTP379	ltpFR2	9	5	LONDON	843	n/a	n/a	0	0	0
1206.8974609375	n/a	REC_WORD	2471726	wordpools/wasnorm_wordpool_576.txt	LTP379	ltpFR2	9	5	GHETTO	633	n/a	n/a	0	0	0
1207.9892578125	n/a	REC_WORD	2473962	wordpools/wasnorm_wordpool_576.txt	LTP379	ltpFR2	9	5	LAVA	804	n/a	n/a	0	0	0
1212.490234375	n/a	REC_WORD	2483180	wordpools/wasnorm_wordpool_576.txt	LTP379	ltpFR2	9	5	COUNTRY	388	n/a	n/a	0	0	0
1213.96142578125	n/a	REC_WORD	2486193	wordpools/wasnorm_wordpool_576.txt	LTP379	ltpFR2	9	5	BULLET	194	n/a	n/a	0	0	0
1215.03125	n/a	REC_WORD	2488384	wordpools/wasnorm_wordpool_576.txt	LTP379	ltpFR2	9	5	STAPLE	1371	n/a	n/a	0	0	0
1216.39697265625	n/a	REC_WORD	2491181	wordpools/wasnorm_wordpool_576.txt	LTP379	ltpFR2	9	5	HIKER	708	n/a	n/a	0	0	0
1217.63916015625	n/a	REC_WORD	2493725	wordpools/wasnorm_wordpool_576.txt	LTP379	ltpFR2	9	5	CHAMPAGNE	278	n/a	n/a	0	0	0
1219.20703125	n/a	REC_WORD	2496936	wordpools/wasnorm_wordpool_576.txt	LTP379	ltpFR2	9	5	STONE	1385	n/a	n/a	0	0	0
1220.455078125	n/a	REC_WORD	2499492	wordpools/wasnorm_wordpool_576.txt	LTP379	ltpFR2	9	5	SPIDER	1351	n/a	n/a	0	0	0
1221.94921875	n/a	REC_WORD	2502552	wordpools/wasnorm_wordpool_576.txt	LTP379	ltpFR2	9	5	TERMITE	1451	n/a	n/a	0	0	0
1223.60009765625	n/a	REC_WORD	2505933	wordpools/wasnorm_wordpool_576.txt	LTP379	ltpFR2	9	5	BANQUET	86	n/a	n/a	0	0	0
1224.93408203125	n/a	REC_WORD	2508665	wordpools/wasnorm_wordpool_576.txt	LTP379	ltpFR2	9	5	SHIRT	1287	n/a	n/a	0	0	0
1226.17578125	n/a	REC_WORD	2511208	wordpools/wasnorm_wordpool_576.txt	LTP379	ltpFR2	9	5	SIBLING	1301	n/a	n/a	0	0	0
1227.72900390625	n/a	REC_WORD	2514389	wordpools/wasnorm_wordpool_576.txt	LTP379	ltpFR2	9	5	GROUND	666	n/a	n/a	0	0	0
1229.1328125	n/a	REC_WORD	2517264	wordpools/wasnorm_wordpool_576.txt	LTP379	ltpFR2	9	5	QUARTER	1148	n/a	n/a	0	0	0
1230.2138671875	n/a	REC_WORD	2519478	wordpools/wasnorm_wordpool_576.txt	LTP379	ltpFR2	9	5	HANDBAG	684	n/a	n/a	0	0	0
1258.01513671875	n/a	DISTRACTOR	2576415	n/a	LTP379	ltpFR2	9	6	n/a	n/a	n/a	n/a	0	0	0
1258.01513671875	n/a	START	2576415	n/a	LTP379	ltpFR2	9	n/a	n/a	n/a	9	n/a	n/a	n/a	n/a
1258.03076171875	n/a	PROB	2576447	n/a	LTP379	ltpFR2	9	n/a	n/a	n/a	9	12	4	5	3
1259.796875	n/a	PROB	2580064	n/a	LTP379	ltpFR2	9	n/a	n/a	n/a	9	13	9	2	2
1261.34765625	n/a	PROB	2583240	n/a	LTP379	ltpFR2	9	n/a	n/a	n/a	9	10	4	1	5
1263.11474609375	n/a	PROB	2586859	n/a	LTP379	ltpFR2	9	n/a	n/a	n/a	9	15	3	7	5
1264.24755859375	n/a	PROB	2589179	n/a	LTP379	ltpFR2	9	n/a	n/a	n/a	9	15	4	5	6
1265.712890625	n/a	PROB	2592180	n/a	LTP379	ltpFR2	9	n/a	n/a	n/a	9	14	2	7	5
1267.74658203125	n/a	PROB	2596345	n/a	LTP379	ltpFR2	9	n/a	n/a	n/a	9	20	9	5	6
1269.99755859375	n/a	PROB	2600955	n/a	LTP379	ltpFR2	9	n/a	n/a	n/a	9	14	4	2	8
1271.5302734375	n/a	PROB	2604094	n/a	LTP379	ltpFR2	9	n/a	n/a	n/a	9	14	1	5	8
1273.6474609375	n/a	PROB	2608430	n/a	LTP379	ltpFR2	9	n/a	n/a	n/a	9	18	4	5	9
1275.61328125	n/a	PROB	2612456	n/a	LTP379	ltpFR2	9	n/a	n/a	n/a	9	17	6	2	9
1277.33056640625	n/a	PROB	2615973	n/a	LTP379	ltpFR2	9	n/a	n/a	n/a	9	12	5	2	5
1278.6630859375	n/a	PROB	2618702	n/a	LTP379	ltpFR2	9	n/a	n/a	n/a	9	13	9	2	2
1281.3994140625	n/a	STOP	2624306	n/a	LTP379	ltpFR2	9	n/a	n/a	n/a	9	n/a	n/a	n/a	n/a
1283.09716796875	n/a	WORD	2627783	wordpools/wasnorm_wordpool_576.txt	LTP379	ltpFR2	9	6	STAMP	1370	n/a	n/a	0	0	0
1285.7119140625	n/a	WORD	2633138	wordpools/wasnorm_wordpool_576.txt	LTP379	ltpFR2	9	6	VICTIM	1562	n/a	n/a	0	0	0
1288.4130859375	n/a	WORD	2638670	wordpools/wasnorm_wordpool_576.txt	LTP379	ltpFR2	9	6	MARKER	870	n/a	n/a	0	0	0
1291.0458984375	n/a	WORD	2644062	wordpools/wasnorm_wordpool_576.txt	LTP379	ltpFR2	9	6	CRAYON	401	n/a	n/a	0	0	0
1293.6796875	n/a	WORD	2649456	wordpools/wasnorm_wordpool_576.txt	LTP379	ltpFR2	9	6	BUREAU	199	n/a	n/a	0	0	0
1296.2958984375	n/a	WORD	2654814	wordpools/wasnorm_wordpool_576.txt	LTP379	ltpFR2	9	6	SWITCH	1422	n/a	n/a	0	0	0
1298.89453125	n/a	WORD	2660136	wordpools/wasnorm_wordpool_576.txt	LTP379	ltpFR2	9	6	DORM	488	n/a	n/a	0	0	0
1301.595703125	n/a	WORD	2665668	wordpools/wasnorm_wordpool_576.txt	LTP379	ltpFR2	9	6	MEDAL	885	n/a	n/a	0	0	0
1304.3623046875	n/a	WORD	2671334	wordpools/wasnorm_wordpool_576.txt	LTP379	ltpFR2	9	6	BABY	64	n/a	n/a	0	0	0
1306.79443359375	n/a	WORD	2676315	wordpools/wasnorm_wordpool_576.txt	LTP379	ltpFR2	9	6	PARENT	1013	n/a	n/a	0	0	0
1309.228515625	n/a	WORD	2681300	wordpools/wasnorm_wordpool_576.txt	LTP379	ltpFR2	9	6	YOLK	1633	n/a	n/a	0	0	0
1311.662109375	n/a	WORD	2686284	wordpools/wasnorm_wordpool_576.txt	LTP379	ltpFR2	9	6	FUNGUS	614	n/a	n/a	0	0	0
1314.22802734375	n/a	WORD	2691539	wordpools/wasnorm_wordpool_576.txt	LTP379	ltpFR2	9	6	HEART	697	n/a	n/a	0	0	0
1316.81103515625	n/a	WORD	2696829	wordpools/wasnorm_wordpool_576.txt	LTP379	ltpFR2	9	6	FRIAR	605	n/a	n/a	0	0	0
1319.42822265625	n/a	WORD	2702189	wordpools/wasnorm_wordpool_576.txt	LTP379	ltpFR2	9	6	HELMET	702	n/a	n/a	0	0	0
1321.876953125	n/a	WORD	2707204	wordpools/wasnorm_wordpool_576.txt	LTP379	ltpFR2	9	6	TOMBSTONE	1478	n/a	n/a	0	0	0
1324.31201171875	n/a	WORD	2712191	wordpools/wasnorm_wordpool_576.txt	LTP379	ltpFR2	9	6	FOOTBALL	591	n/a	n/a	0	0	0
1326.94482421875	n/a	WORD	2717583	wordpools/wasnorm_wordpool_576.txt	LTP379	ltpFR2	9	6	FLAG	573	n/a	n/a	0	0	0
1329.427734375	n/a	WORD	2722668	wordpools/wasnorm_wordpool_576.txt	LTP379	ltpFR2	9	6	PEDAL	1037	n/a	n/a	0	0	0
1332.14453125	n/a	WORD	2728232	wordpools/wasnorm_wordpool_576.txt	LTP379	ltpFR2	9	6	SHELTER	1282	n/a	n/a	0	0	0
1334.5947265625	n/a	WORD	2733250	wordpools/wasnorm_wordpool_576.txt	LTP379	ltpFR2	9	6	BLADE	134	n/a	n/a	0	0	0
1337.39453125	n/a	WORD	2738984	wordpools/wasnorm_wordpool_576.txt	LTP379	ltpFR2	9	6	SCALPEL	1243	n/a	n/a	0	0	0
1340.0771484375	n/a	WORD	2744478	wordpools/wasnorm_wordpool_576.txt	LTP379	ltpFR2	9	6	SAUSAGE	1238	n/a	n/a	0	0	0
1342.79345703125	n/a	WORD	2750041	wordpools/wasnorm_wordpool_576.txt	LTP379	ltpFR2	9	6	RIVER	1194	n/a	n/a	0	0	0
1344.41015625	n/a	START	2753352	n/a	LTP379	ltpFR2	9	n/a	n/a	n/a	10	n/a	n/a	n/a	n/a
1345.21337890625	n/a	DISTRACTOR	2754997	n/a	LTP379	ltpFR2	9	6	n/a	n/a	n/a	n/a	0	0	0
1345.22705078125	n/a	PROB	2755025	n/a	LTP379	ltpFR2	9	n/a	n/a	n/a	10	16	5	4	7
1347.92724609375	n/a	PROB	2760555	n/a	LTP379	ltpFR2	9	n/a	n/a	n/a	10	19	7	9	3
1349.77587890625	n/a	PROB	2764341	n/a	LTP379	ltpFR2	9	n/a	n/a	n/a	10	14	9	2	3
1351.39306640625	n/a	PROB	2767653	n/a	LTP379	ltpFR2	9	n/a	n/a	n/a	10	11	3	6	2
1353.4931640625	n/a	PROB	2771954	n/a	LTP379	ltpFR2	9	n/a	n/a	n/a	10	18	9	3	6
1355.2099609375	n/a	PROB	2775470	n/a	LTP379	ltpFR2	9	n/a	n/a	n/a	10	6	1	1	4
1356.22705078125	n/a	PROB	2777553	n/a	LTP379	ltpFR2	9	n/a	n/a	n/a	10	22	6	7	9
1359.2265625	n/a	PROB	2783696	n/a	LTP379	ltpFR2	9	n/a	n/a	n/a	10	11	2	5	4
1361.142578125	n/a	PROB	2787620	n/a	LTP379	ltpFR2	9	n/a	n/a	n/a	10	20	4	8	8
1362.6767578125	n/a	PROB	2790762	n/a	LTP379	ltpFR2	9	n/a	n/a	n/a	10	9	1	3	5
1363.9267578125	n/a	PROB	2793322	n/a	LTP379	ltpFR2	9	n/a	n/a	n/a	10	23	7	8	8
1366.32666015625	n/a	PROB	2798237	n/a	LTP379	ltpFR2	9	n/a	n/a	n/a	10	11	6	3	2
1367.646484375	n/a	STOP	2800940	n/a	LTP379	ltpFR2	9	n/a	n/a	n/a	10	n/a	n/a	n/a	n/a
1370.193359375	n/a	REC_START	2806156	n/a	LTP379	ltpFR2	9	6	n/a	n/a	n/a	n/a	0	0	0
1377.93798828125	n/a	REC_WORD	2822017	wordpools/wasnorm_wordpool_576.txt	LTP379	ltpFR2	9	6	STAMP	1370	n/a	n/a	0	0	0
1379.50732421875	n/a	REC_WORD	2825231	wordpools/wasnorm_wordpool_576.txt	LTP379	ltpFR2	9	6	VICTIM	1562	n/a	n/a	0	0	0
1380.77734375	n/a	REC_WORD	2827832	wordpools/wasnorm_wordpool_576.txt	LTP379	ltpFR2	9	6	MARKER	870	n/a	n/a	0	0	0
1381.955078125	n/a	REC_WORD	2830244	wordpools/wasnorm_wordpool_576.txt	LTP379	ltpFR2	9	6	CRAYON	401	n/a	n/a	0	0	0
1383.44921875	n/a	REC_WORD	2833304	wordpools/wasnorm_wordpool_576.txt	LTP379	ltpFR2	9	6	BUREAU	199	n/a	n/a	0	0	0
1385.365234375	n/a	REC_WORD	2837228	wordpools/wasnorm_wordpool_576.txt	LTP379	ltpFR2	9	6	SWITCH	1422	n/a	n/a	0	0	0
1387.26513671875	n/a	REC_WORD	2841119	wordpools/wasnorm_wordpool_576.txt	LTP379	ltpFR2	9	6	DORM	488	n/a	n/a	0	0	0
1388.31005859375	n/a	REC_WORD	2843259	wordpools/wasnorm_wordpool_576.txt	LTP379	ltpFR2	9	6	MEDAL	885	n/a	n/a	0	0	0
1389.60205078125	n/a	REC_WORD	2845905	wordpools/wasnorm_wordpool_576.txt	LTP379	ltpFR2	9	6	BABY	64	n/a	n/a	0	0	0
1390.81884765625	n/a	REC_WORD	2848397	wordpools/wasnorm_wordpool_576.txt	LTP379	ltpFR2	9	6	PARENT	1013	n/a	n/a	0	0	0
1393.39453125	n/a	REC_WORD	2853672	wordpools/wasnorm_wordpool_576.txt	LTP379	ltpFR2	9	6	YOLK	1633	n/a	n/a	0	0	0
1394.501953125	n/a	REC_WORD	2855940	wordpools/wasnorm_wordpool_576.txt	LTP379	ltpFR2	9	6	FUNGUS	614	n/a	n/a	0	0	0
1395.7724609375	n/a	REC_WORD	2858542	wordpools/wasnorm_wordpool_576.txt	LTP379	ltpFR2	9	6	HEART	697	n/a	n/a	0	0	0
1397.3095703125	n/a	REC_WORD	2861690	wordpools/wasnorm_wordpool_576.txt	LTP379	ltpFR2	9	6	FRIAR	605	n/a	n/a	0	0	0
1399.728515625	n/a	REC_WORD	2866644	wordpools/wasnorm_wordpool_576.txt	LTP379	ltpFR2	9	6	HELMET	702	n/a	n/a	0	0	0
1401.79052734375	n/a	REC_WORD	2870867	wordpools/wasnorm_wordpool_576.txt	LTP379	ltpFR2	9	6	TOMBSTONE	1478	n/a	n/a	0	0	0
1403.63232421875	n/a	REC_WORD	2874639	wordpools/wasnorm_wordpool_576.txt	LTP379	ltpFR2	9	6	FOOTBALL	591	n/a	n/a	0	0	0
1405.75439453125	n/a	REC_WORD	2878985	wordpools/wasnorm_wordpool_576.txt	LTP379	ltpFR2	9	6	FLAG	573	n/a	n/a	0	0	0
1407.38916015625	n/a	REC_WORD	2882333	wordpools/wasnorm_wordpool_576.txt	LTP379	ltpFR2	9	6	PEDAL	1037	n/a	n/a	0	0	0
1409.10302734375	n/a	REC_WORD	2885843	wordpools/wasnorm_wordpool_576.txt	LTP379	ltpFR2	9	6	SHELTER	1282	n/a	n/a	0	0	0
1414.52001953125	n/a	REC_WORD	2896937	wordpools/wasnorm_wordpool_576.txt	LTP379	ltpFR2	9	6	BLADE	134	n/a	n/a	0	0	0
1416.0712890625	n/a	REC_WORD	2900114	wordpools/wasnorm_wordpool_576.txt	LTP379	ltpFR2	9	6	SCALPEL	1243	n/a	n/a	0	0	0
1420.7080078125	n/a	REC_WORD	2909610	wordpools/wasnorm_wordpool_576.txt	LTP379	ltpFR2	9	6	SAUSAGE	1238	n/a	n/a	0	0	0
1422.26904296875	n/a	REC_WORD	2912807	wordpools/wasnorm_wordpool_576.txt	LTP379	ltpFR2	9	6	RIVER	1194	n/a	n/a	0	0	0
1460.65478515625	n/a	WORD	2991421	wordpools/wasnorm_wordpool_576.txt	LTP379	ltpFR2	9	7	COOKBOOK	373	n/a	n/a	0	0	0
1463.42138671875	n/a	WORD	2997087	wordpools/wasnorm_wordpool_576.txt	LTP379	ltpFR2	9	7	SCALLOP	1242	n/a	n/a	0	0	0
1466.1884765625	n/a	WORD	3002754	wordpools/wasnorm_wordpool_576.txt	LTP379	ltpFR2	9	7	GLOBE	641	n/a	n/a	0	0	0
1468.98828125	n/a	WORD	3008488	wordpools/wasnorm_wordpool_576.txt	LTP379	ltpFR2	9	7	LEADER	807	n/a	n/a	0	0	0
1471.58837890625	n/a	WORD	3013813	wordpools/wasnorm_wordpool_576.txt	LTP379	ltpFR2	9	7	COOK	372	n/a	n/a	0	0	0
1474.0380859375	n/a	WORD	3018830	wordpools/wasnorm_wordpool_576.txt	LTP379	ltpFR2	9	7	CHAPEL	280	n/a	n/a	0	0	0
1476.75341796875	n/a	WORD	3024391	wordpools/wasnorm_wordpool_576.txt	LTP379	ltpFR2	9	7	CROWN	415	n/a	n/a	0	0	0
1479.4873046875	n/a	WORD	3029990	wordpools/wasnorm_wordpool_576.txt	LTP379	ltpFR2	9	7	PRINCESS	1125	n/a	n/a	0	0	0
1482.22119140625	n/a	WORD	3035589	wordpools/wasnorm_wordpool_576.txt	LTP379	ltpFR2	9	7	MAILMAN	858	n/a	n/a	0	0	0
1484.970703125	n/a	WORD	3041220	wordpools/wasnorm_wordpool_576.txt	LTP379	ltpFR2	9	7	GYMNAST	675	n/a	n/a	0	0	0
1487.53662109375	n/a	WORD	3046475	wordpools/wasnorm_wordpool_576.txt	LTP379	ltpFR2	9	7	SHORTS	1293	n/a	n/a	0	0	0
1490.02099609375	n/a	WORD	3051563	wordpools/wasnorm_wordpool_576.txt	LTP379	ltpFR2	9	7	BISON	131	n/a	n/a	0	0	0
1492.53662109375	n/a	WORD	3056715	wordpools/wasnorm_wordpool_576.txt	LTP379	ltpFR2	9	7	PROTON	1132	n/a	n/a	0	0	0
1495.15380859375	n/a	WORD	3062075	wordpools/wasnorm_wordpool_576.txt	LTP379	ltpFR2	9	7	TEACHER	1440	n/a	n/a	0	0	0
1497.76953125	n/a	WORD	3067432	wordpools/wasnorm_wordpool_576.txt	LTP379	ltpFR2	9	7	SERVANT	1271	n/a	n/a	0	0	0
1500.41943359375	n/a	WORD	3072859	wordpools/wasnorm_wordpool_576.txt	LTP379	ltpFR2	9	7	BLUEPRINT	142	n/a	n/a	0	0	0
1502.986328125	n/a	WORD	3078116	wordpools/wasnorm_wordpool_576.txt	LTP379	ltpFR2	9	7	MACHINE	852	n/a	n/a	0	0	0
1505.486328125	n/a	WORD	3083236	wordpools/wasnorm_wordpool_576.txt	LTP379	ltpFR2	9	7	ARMY	39	n/a	n/a	0	0	0
1507.953125	n/a	WORD	3088288	wordpools/wasnorm_wordpool_576.txt	LTP379	ltpFR2	9	7	FLEET	578	n/a	n/a	0	0	0
1510.60302734375	n/a	WORD	3093715	wordpools/wasnorm_wordpool_576.txt	LTP379	ltpFR2	9	7	GIRL	637	n/a	n/a	0	0	0
1513.0859375	n/a	WORD	3098800	wordpools/wasnorm_wordpool_576.txt	LTP379	ltpFR2	9	7	MAMMAL	861	n/a	n/a	0	0	0
1515.5859375	n/a	WORD	3103920	wordpools/wasnorm_wordpool_576.txt	LTP379	ltpFR2	9	7	CABBAGE	210	n/a	n/a	0	0	0
1518.0361328125	n/a	WORD	3108938	wordpools/wasnorm_wordpool_576.txt	LTP379	ltpFR2	9	7	SUPPER	1411	n/a	n/a	0	0	0
1520.76806640625	n/a	WORD	3114533	wordpools/wasnorm_wordpool_576.txt	LTP379	ltpFR2	9	7	CRAB	397	n/a	n/a	0	0	0
1522.36865234375	n/a	START	3117811	n/a	LTP379	ltpFR2	9	n/a	n/a	n/a	11	n/a	n/a	n/a	n/a
1523.228515625	n/a	DISTRACTOR	3119572	n/a	LTP379	ltpFR2	9	7	n/a	n/a	n/a	n/a	0	0	0
1523.23583984375	n/a	PROB	3119587	n/a	LTP379	ltpFR2	9	n/a	n/a	n/a	11	20	7	8	5
1526.5185546875	n/a	PROB	3126310	n/a	LTP379	ltpFR2	9	n/a	n/a	n/a	11	7	4	1	2
1529.767578125	n/a	PROB	3132964	n/a	LTP379	ltpFR2	9	n/a	n/a	n/a	11	13	2	6	5
1531.80029296875	n/a	PROB	3137127	n/a	LTP379	ltpFR2	9	n/a	n/a	n/a	11	16	9	1	6
1533.03564453125	n/a	PROB	3139657	n/a	LTP379	ltpFR2	9	n/a	n/a	n/a	11	13	5	3	5
1534.3515625	n/a	PROB	3142352	n/a	LTP379	ltpFR2	9	n/a	n/a	n/a	11	9	5	2	2
1535.6513671875	n/a	PROB	3145014	n/a	LTP379	ltpFR2	9	n/a	n/a	n/a	11	17	5	6	6
1537.4013671875	n/a	PROB	3148598	n/a	LTP379	ltpFR2	9	n/a	n/a	n/a	11	5	1	2	2
1538.451171875	n/a	PROB	3150748	n/a	LTP379	ltpFR2	9	n/a	n/a	n/a	11	14	5	1	8
1540.30126953125	n/a	PROB	3154537	n/a	LTP379	ltpFR2	9	n/a	n/a	n/a	11	12	3	3	6
1541.88330078125	n/a	PROB	3157777	n/a	LTP379	ltpFR2	9	n/a	n/a	n/a	11	13	4	3	6
1543.568359375	n/a	PROB	3161228	n/a	LTP379	ltpFR2	9	n/a	n/a	n/a	11	19	7	8	4
1545.046875	n/a	STOP	3164256	n/a	LTP379	ltpFR2	9	n/a	n/a	n/a	11	n/a	n/a	n/a	n/a
1548.2021484375	n/a	REC_START	3170718	n/a	LTP379	ltpFR2	9	7	n/a	n/a	n/a	n/a	0	0	0
1554.2138671875	n/a	REC_WORD	3183030	wordpools/wasnorm_wordpool_576.txt	LTP379	ltpFR2	9	7	COOKBOOK	373	n/a	n/a	0	0	0
1555.31494140625	n/a	REC_WORD	3185285	wordpools/wasnorm_wordpool_576.txt	LTP379	ltpFR2	9	7	SCALLOP	1242	n/a	n/a	0	0	0
1556.90478515625	n/a	REC_WORD	3188541	wordpools/wasnorm_wordpool_576.txt	LTP379	ltpFR2	9	7	GLOBE	641	n/a	n/a	0	0	0
1558.0966796875	n/a	REC_WORD	3190982	wordpools/wasnorm_wordpool_576.txt	LTP379	ltpFR2	9	7	LEADER	807	n/a	n/a	0	0	0
1559.5126953125	n/a	REC_WORD	3193882	wordpools/wasnorm_wordpool_576.txt	LTP379	ltpFR2	9	7	COOK	372	n/a	n/a	0	0	0
1560.8173828125	n/a	REC_WORD	3196554	wordpools/wasnorm_wordpool_576.txt	LTP379	ltpFR2	9	7	CHAPEL	280	n/a	n/a	0	0	0
1562.3994140625	n/a	REC_WORD	3199794	wordpools/wasnorm_wordpool_576.txt	LTP379	ltpFR2	9	7	CROWN	415	n/a	n/a	0	0	0
1563.8193359375	n/a	REC_WORD	3202702	wordpools/wasnorm_wordpool_576.txt	LTP379	ltpFR2	9	7	PRINCESS	1125	n/a	n/a	0	0	0
1565.1796875	n/a	REC_WORD	3205488	wordpools/wasnorm_wordpool_576.txt	LTP379	ltpFR2	9	7	MAILMAN	858	n/a	n/a	0	0	0
1566.484375	n/a	REC_WORD	3208160	wordpools/wasnorm_wordpool_576.txt	LTP379	ltpFR2	9	7	GYMNAST	675	n/a	n/a	0	0	0
1567.865234375	n/a	REC_WORD	3210988	wordpools/wasnorm_wordpool_576.txt	LTP379	ltpFR2	9	7	SHORTS	1293	n/a	n/a	0	0	0
1570.84619140625	n/a	REC_WORD	3217093	wordpools/wasnorm_wordpool_576.txt	LTP379	ltpFR2	9	7	BISON	131	n/a	n/a	0	0	0
1572.13916015625	n/a	REC_WORD	3219741	wordpools/wasnorm_wordpool_576.txt	LTP379	ltpFR2	9	7	PROTON	1132	n/a	n/a	0	0	0
1577.86328125	n/a	REC_WORD	3231464	wordpools/wasnorm_wordpool_576.txt	LTP379	ltpFR2	9	7	TEACHER	1440	n/a	n/a	0	0	0
1579.3369140625	n/a	REC_WORD	3234482	wordpools/wasnorm_wordpool_576.txt	LTP379	ltpFR2	9	7	SERVANT	1271	n/a	n/a	0	0	0
1580.7939453125	n/a	REC_WORD	3237466	wordpools/wasnorm_wordpool_576.txt	LTP379	ltpFR2	9	7	BLUEPRINT	142	n/a	n/a	0	0	0
1581.93505859375	n/a	REC_WORD	3239803	wordpools/wasnorm_wordpool_576.txt	LTP379	ltpFR2	9	7	MACHINE	852	n/a	n/a	0	0	0
1583.5947265625	n/a	REC_WORD	3243202	wordpools/wasnorm_wordpool_576.txt	LTP379	ltpFR2	9	7	ARMY	39	n/a	n/a	0	0	0
1584.7158203125	n/a	REC_WORD	3245498	wordpools/wasnorm_wordpool_576.txt	LTP379	ltpFR2	9	7	FLEET	578	n/a	n/a	0	0	0
1586.31689453125	n/a	REC_WORD	3248777	wordpools/wasnorm_wordpool_576.txt	LTP379	ltpFR2	9	7	GIRL	637	n/a	n/a	0	0	0
1595.0234375	n/a	REC_WORD	3266608	wordpools/wasnorm_wordpool_576.txt	LTP379	ltpFR2	9	7	MAMMAL	861	n/a	n/a	0	0	0
1596.34326171875	n/a	REC_WORD	3269311	wordpools/wasnorm_wordpool_576.txt	LTP379	ltpFR2	9	7	CABBAGE	210	n/a	n/a	0	0	0
1597.5556640625	n/a	REC_WORD	3271794	wordpools/wasnorm_wordpool_576.txt	LTP379	ltpFR2	9	7	SUPPER	1411	n/a	n/a	0	0	0
1598.9873046875	n/a	REC_WORD	3274726	wordpools/wasnorm_wordpool_576.txt	LTP379	ltpFR2	9	7	CRAB	397	n/a	n/a	0	0	0
1638.64697265625	n/a	DISTRACTOR	3355949	n/a	LTP379	ltpFR2	9	8	n/a	n/a	n/a	n/a	0	0	0
1638.64697265625	n/a	START	3355949	n/a	LTP379	ltpFR2	9	n/a	n/a	n/a	12	n/a	n/a	n/a	n/a
1638.6630859375	n/a	PROB	3355982	n/a	LTP379	ltpFR2	9	n/a	n/a	n/a	12	10	4	3	3
1640.14697265625	n/a	PROB	3359021	n/a	LTP379	ltpFR2	9	n/a	n/a	n/a	12	22	7	7	8
1641.84521484375	n/a	PROB	3362499	n/a	LTP379	ltpFR2	9	n/a	n/a	n/a	12	11	4	1	6
1643.1630859375	n/a	PROB	3365198	n/a	LTP379	ltpFR2	9	n/a	n/a	n/a	12	17	1	9	7
1644.51318359375	n/a	PROB	3367963	n/a	LTP379	ltpFR2	9	n/a	n/a	n/a	12	12	8	2	2
1645.99609375	n/a	PROB	3371000	n/a	LTP379	ltpFR2	9	n/a	n/a	n/a	12	13	4	8	1
1647.44580078125	n/a	PROB	3373969	n/a	LTP379	ltpFR2	9	n/a	n/a	n/a	12	4	1	1	2
1648.64599609375	n/a	PROB	3376427	n/a	LTP379	ltpFR2	9	n/a	n/a	n/a	12	17	1	8	8
1650.080078125	n/a	PROB	3379364	n/a	LTP379	ltpFR2	9	n/a	n/a	n/a	12	12	4	4	4
1651.2958984375	n/a	PROB	3381854	n/a	LTP379	ltpFR2	9	n/a	n/a	n/a	12	11	1	6	4
1652.52978515625	n/a	PROB	3384381	n/a	LTP379	ltpFR2	9	n/a	n/a	n/a	12	17	6	9	2
1654.2626953125	n/a	PROB	3387930	n/a	LTP379	ltpFR2	9	n/a	n/a	n/a	12	16	4	4	8
1656.0126953125	n/a	PROB	3391514	n/a	LTP379	ltpFR2	9	n/a	n/a	n/a	12	16	5	2	9
1657.4296875	n/a	PROB	3394416	n/a	LTP379	ltpFR2	9	n/a	n/a	n/a	12	20	6	6	8
1659.0625	n/a	PROB	3397760	n/a	LTP379	ltpFR2	9	n/a	n/a	n/a	12	18	6	9	3
1660.96240234375	n/a	PROB	3401651	n/a	LTP379	ltpFR2	9	n/a	n/a	n/a	12	11	3	7	1
1661.99853515625	n/a	STOP	3403773	n/a	LTP379	ltpFR2	9	n/a	n/a	n/a	12	n/a	n/a	n/a	n/a
1663.84423828125	n/a	WORD	3407553	wordpools/wasnorm_wordpool_576.txt	LTP379	ltpFR2	9	8	SCULPTURE	1258	n/a	n/a	0	0	0
1666.4951171875	n/a	WORD	3412982	wordpools/wasnorm_wordpool_576.txt	LTP379	ltpFR2	9	8	LADY	794	n/a	n/a	0	0	0
1669.09521484375	n/a	WORD	3418307	wordpools/wasnorm_wordpool_576.txt	LTP379	ltpFR2	9	8	STALLION	1369	n/a	n/a	0	0	0
1671.8271484375	n/a	WORD	3423902	wordpools/wasnorm_wordpool_576.txt	LTP379	ltpFR2	9	8	CRITIC	410	n/a	n/a	0	0	0
1674.6279296875	n/a	WORD	3429638	wordpools/wasnorm_wordpool_576.txt	LTP379	ltpFR2	9	8	COCKTAIL	338	n/a	n/a	0	0	0
1677.11181640625	n/a	WORD	3434725	wordpools/wasnorm_wordpool_576.txt	LTP379	ltpFR2	9	8	SCOTCH	1251	n/a	n/a	0	0	0
1679.72705078125	n/a	WORD	3440081	wordpools/wasnorm_wordpool_576.txt	LTP379	ltpFR2	9	8	ANKLE	24	n/a	n/a	0	0	0
1682.41162109375	n/a	WORD	3445579	wordpools/wasnorm_wordpool_576.txt	LTP379	ltpFR2	9	8	ELBOW	520	n/a	n/a	0	0	0
1685.060546875	n/a	WORD	3451004	wordpools/wasnorm_wordpool_576.txt	LTP379	ltpFR2	9	8	PATROL	1027	n/a	n/a	0	0	0
1687.544921875	n/a	WORD	3456092	wordpools/wasnorm_wordpool_576.txt	LTP379	ltpFR2	9	8	POPCORN	1104	n/a	n/a	0	0	0
1690.19482421875	n/a	WORD	3461519	wordpools/wasnorm_wordpool_576.txt	LTP379	ltpFR2	9	8	FRECKLE	602	n/a	n/a	0	0	0
1692.693359375	n/a	WORD	3466636	wordpools/wasnorm_wordpool_576.txt	LTP379	ltpFR2	9	8	HEADBAND	696	n/a	n/a	0	0	0
1695.12744140625	n/a	WORD	3471621	wordpools/wasnorm_wordpool_576.txt	LTP379	ltpFR2	9	8	OX	994	n/a	n/a	0	0	0
1697.70947265625	n/a	WORD	3476909	wordpools/wasnorm_wordpool_576.txt	LTP379	ltpFR2	9	8	BUNNY	198	n/a	n/a	0	0	0
1700.21044921875	n/a	WORD	3482031	wordpools/wasnorm_wordpool_576.txt	LTP379	ltpFR2	9	8	PIANO	1057	n/a	n/a	0	0	0
1702.7431640625	n/a	WORD	3487218	wordpools/wasnorm_wordpool_576.txt	LTP379	ltpFR2	9	8	AUTHOR	61	n/a	n/a	0	0	0
1705.17724609375	n/a	WORD	3492203	wordpools/wasnorm_wordpool_576.txt	LTP379	ltpFR2	9	8	SNAIL	1332	n/a	n/a	0	0	0
1707.66015625	n/a	WORD	3497288	wordpools/wasnorm_wordpool_576.txt	LTP379	ltpFR2	9	8	FRAME	600	n/a	n/a	0	0	0
1710.29296875	n/a	WORD	3502680	wordpools/wasnorm_wordpool_576.txt	LTP379	ltpFR2	9	8	LASER	801	n/a	n/a	0	0	0
1712.9599609375	n/a	WORD	3508142	wordpools/wasnorm_wordpool_576.txt	LTP379	ltpFR2	9	8	CLAMP	316	n/a	n/a	0	0	0
1715.56005859375	n/a	WORD	3513467	wordpools/wasnorm_wordpool_576.txt	LTP379	ltpFR2	9	8	TREAT	1501	n/a	n/a	0	0	0
1718.19287109375	n/a	WORD	3518859	wordpools/wasnorm_wordpool_576.txt	LTP379	ltpFR2	9	8	ICING	732	n/a	n/a	0	0	0
1720.8916015625	n/a	WORD	3524386	wordpools/wasnorm_wordpool_576.txt	LTP379	ltpFR2	9	8	COWBOY	395	n/a	n/a	0	0	0
1723.69140625	n/a	WORD	3530120	wordpools/wasnorm_wordpool_576.txt	LTP379	ltpFR2	9	8	CRICKET	408	n/a	n/a	0	0	0
1725.29248046875	n/a	START	3533399	n/a	LTP379	ltpFR2	9	n/a	n/a	n/a	13	n/a	n/a	n/a	n/a
1726.37060546875	n/a	DISTRACTOR	3535607	n/a	LTP379	ltpFR2	9	8	n/a	n/a	n/a	n/a	0	0	0
1726.37646484375	n/a	PROB	3535619	n/a	LTP379	ltpFR2	9	n/a	n/a	n/a	13	8	4	3	1
1729.37548828125	n/a	PROB	3541761	n/a	LTP379	ltpFR2	9	n/a	n/a	n/a	13	14	9	1	4
1730.84130859375	n/a	PROB	3544763	n/a	LTP379	ltpFR2	9	n/a	n/a	n/a	13	16	1	6	9
1732.525390625	n/a	PROB	3548212	n/a	LTP379	ltpFR2	9	n/a	n/a	n/a	13	9	4	2	3
1736.09228515625	n/a	PROB	3555517	n/a	LTP379	ltpFR2	9	n/a	n/a	n/a	13	13	1	6	6
1737.30908203125	n/a	PROB	3558009	n/a	LTP379	ltpFR2	9	n/a	n/a	n/a	13	18	5	4	9
1738.69091796875	n/a	PROB	3560839	n/a	LTP379	ltpFR2	9	n/a	n/a	n/a	13	16	7	1	8
1740.00927734375	n/a	PROB	3563539	n/a	LTP379	ltpFR2	9	n/a	n/a	n/a	13	15	1	7	7
1741.27490234375	n/a	PROB	3566131	n/a	LTP379	ltpFR2	9	n/a	n/a	n/a	13	14	4	6	4
1742.5087890625	n/a	PROB	3568658	n/a	LTP379	ltpFR2	9	n/a	n/a	n/a	13	15	1	7	7
1743.958984375	n/a	PROB	3571628	n/a	LTP379	ltpFR2	9	n/a	n/a	n/a	13	11	4	5	2
1745.52490234375	n/a	PROB	3574835	n/a	LTP379	ltpFR2	9	n/a	n/a	n/a	13	18	7	6	5
1747.86962890625	n/a	STOP	3579637	n/a	LTP379	ltpFR2	9	n/a	n/a	n/a	13	n/a	n/a	n/a	n/a
1751.10986328125	n/a	REC_START	3586273	n/a	LTP379	ltpFR2	9	8	n/a	n/a	n/a	n/a	0	0	0
1761.9072265625	n/a	REC_WORD_VV	3608386	wordpools/wasnorm_wordpool_576.txt	LTP379	ltpFR2	9	8	<>	-1	n/a	n/a	0	0	0
1774.68896484375	n/a	REC_WORD	3634563	wordpools/wasnorm_wordpool_576.txt	LTP379	ltpFR2	9	8	SCULPTURE	1258	n/a	n/a	0	0	0
1776.10595703125	n/a	REC_WORD	3637465	wordpools/wasnorm_wordpool_576.txt	LTP379	ltpFR2	9	8	LADY	794	n/a	n/a	0	0	0
1777.5380859375	n/a	REC_WORD	3640398	wordpools/wasnorm_wordpool_576.txt	LTP379	ltpFR2	9	8	STALLION	1369	n/a	n/a	0	0	0
1779.5068359375	n/a	REC_WORD	3644430	wordpools/wasnorm_wordpool_576.txt	LTP379	ltpFR2	9	8	CRITIC	410	n/a	n/a	0	0	0
1783.27294921875	n/a	REC_WORD	3652143	wordpools/wasnorm_wordpool_576.txt	LTP379	ltpFR2	9	8	COCKTAIL	338	n/a	n/a	0	0	0
1784.57568359375	n/a	REC_WORD	3654811	wordpools/wasnorm_wordpool_576.txt	LTP379	ltpFR2	9	8	SCOTCH	1251	n/a	n/a	0	0	0
1786.1875	n/a	REC_WORD	3658112	wordpools/wasnorm_wordpool_576.txt	LTP379	ltpFR2	9	8	ANKLE	24	n/a	n/a	0	0	0
1787.91455078125	n/a	REC_WORD	3661649	wordpools/wasnorm_wordpool_576.txt	LTP379	ltpFR2	9	8	ELBOW	520	n/a	n/a	0	0	0
1789.50537109375	n/a	REC_WORD	3664907	wordpools/wasnorm_wordpool_576.txt	LTP379	ltpFR2	9	8	PATROL	1027	n/a	n/a	0	0	0
1791.3095703125	n/a	REC_WORD	3668602	wordpools/wasnorm_wordpool_576.txt	LTP379	ltpFR2	9	8	POPCORN	1104	n/a	n/a	0	0	0
1792.763671875	n/a	REC_WORD	3671580	wordpools/wasnorm_wordpool_576.txt	LTP379	ltpFR2	9	8	FRECKLE	602	n/a	n/a	0	0	0
1794.0166015625	n/a	REC_WORD	3674146	wordpools/wasnorm_wordpool_576.txt	LTP379	ltpFR2	9	8	HEADBAND	696	n/a	n/a	0	0	0
1800.93505859375	n/a	REC_WORD	3688315	wordpools/wasnorm_wordpool_576.txt	LTP379	ltpFR2	9	8	OX	994	n/a	n/a	0	0	0
1803.17724609375	n/a	REC_WORD	3692907	wordpools/wasnorm_wordpool_576.txt	LTP379	ltpFR2	9	8	BUNNY	198	n/a	n/a	0	0	0
1804.66015625	n/a	REC_WORD	3695944	wordpools/wasnorm_wordpool_576.txt	LTP379	ltpFR2	9	8	PIANO	1057	n/a	n/a	0	0	0
1807.39501953125	n/a	REC_WORD	3701545	wordpools/wasnorm_wordpool_576.txt	LTP379	ltpFR2	9	8	AUTHOR	61	n/a	n/a	0	0	0
1808.81689453125	n/a	REC_WORD	3704457	wordpools/wasnorm_wordpool_576.txt	LTP379	ltpFR2	9	8	SNAIL	1332	n/a	n/a	0	0	0
1810.51806640625	n/a	REC_WORD	3707941	wordpools/wasnorm_wordpool_576.txt	LTP379	ltpFR2	9	8	FRAME	600	n/a	n/a	0	0	0
1812.7548828125	n/a	REC_WORD	3712522	wordpools/wasnorm_wordpool_576.txt	LTP379	ltpFR2	9	8	LASER	801	n/a	n/a	0	0	0
1814.37255859375	n/a	REC_WORD	3715835	wordpools/wasnorm_wordpool_576.txt	LTP379	ltpFR2	9	8	CLAMP	316	n/a	n/a	0	0	0
1816.02783203125	n/a	REC_WORD	3719225	wordpools/wasnorm_wordpool_576.txt	LTP379	ltpFR2	9	8	ICING	732	n/a	n/a	0	0	0
1817.474609375	n/a	REC_WORD	3722188	wordpools/wasnorm_wordpool_576.txt	LTP379	ltpFR2	9	8	COWBOY	395	n/a	n/a	0	0	0
1819.216796875	n/a	REC_WORD	3725756	wordpools/wasnorm_wordpool_576.txt	LTP379	ltpFR2	9	8	CRICKET	408	n/a	n/a	0	0	0
1827.654296875	n/a	REST_REWET	3743036	n/a	LTP379	ltpFR2	9	8	n/a	n/a	n/a	n/a	0	0	0
2003.06298828125	n/a	WORD	4102273	wordpools/wasnorm_wordpool_576.txt	LTP379	ltpFR2	9	9	BEAVER	109	n/a	n/a	0	0	0
2005.7119140625	n/a	WORD	4107698	wordpools/wasnorm_wordpool_576.txt	LTP379	ltpFR2	9	9	NECKLACE	940	n/a	n/a	0	0	0
2008.27978515625	n/a	WORD	4112957	wordpools/wasnorm_wordpool_576.txt	LTP379	ltpFR2	9	9	TORTOISE	1486	n/a	n/a	0	0	0
2010.8447265625	n/a	WORD	4118210	wordpools/wasnorm_wordpool_576.txt	LTP379	ltpFR2	9	9	UMPIRE	1535	n/a	n/a	0	0	0
2013.61279296875	n/a	WORD	4123879	wordpools/wasnorm_wordpool_576.txt	LTP379	ltpFR2	9	9	SPOON	1357	n/a	n/a	0	0	0
2016.04541015625	n/a	WORD	4128861	wordpools/wasnorm_wordpool_576.txt	LTP379	ltpFR2	9	9	FLUTE	585	n/a	n/a	0	0	0
2018.54541015625	n/a	WORD	4133981	wordpools/wasnorm_wordpool_576.txt	LTP379	ltpFR2	9	9	TUBA	1515	n/a	n/a	0	0	0
2020.99560546875	n/a	WORD	4138999	wordpools/wasnorm_wordpool_576.txt	LTP379	ltpFR2	9	9	SHELF	1280	n/a	n/a	0	0	0
2023.7275390625	n/a	WORD	4144594	wordpools/wasnorm_wordpool_576.txt	LTP379	ltpFR2	9	9	BANKER	84	n/a	n/a	0	0	0
2026.51220703125	n/a	WORD	4150297	wordpools/wasnorm_wordpool_576.txt	LTP379	ltpFR2	9	9	NAPKIN	937	n/a	n/a	0	0	0
2029.04541015625	n/a	WORD	4155485	wordpools/wasnorm_wordpool_576.txt	LTP379	ltpFR2	9	9	KLEENEX	782	n/a	n/a	0	0	0
2031.8271484375	n/a	WORD	4161182	wordpools/wasnorm_wordpool_576.txt	LTP379	ltpFR2	9	9	BRACES	164	n/a	n/a	0	0	0
2034.51220703125	n/a	WORD	4166681	wordpools/wasnorm_wordpool_576.txt	LTP379	ltpFR2	9	9	COIN	343	n/a	n/a	0	0	0
2037.162109375	n/a	WORD	4172108	wordpools/wasnorm_wordpool_576.txt	LTP379	ltpFR2	9	9	SOFTBALL	1343	n/a	n/a	0	0	0
2039.64501953125	n/a	WORD	4177193	wordpools/wasnorm_wordpool_576.txt	LTP379	ltpFR2	9	9	PORTRAIT	1111	n/a	n/a	0	0	0
2042.11083984375	n/a	WORD	4182243	wordpools/wasnorm_wordpool_576.txt	LTP379	ltpFR2	9	9	EYELASH	546	n/a	n/a	0	0	0
2044.87646484375	n/a	WORD	4187907	wordpools/wasnorm_wordpool_576.txt	LTP379	ltpFR2	9	9	JUNGLE	764	n/a	n/a	0	0	0
2047.6767578125	n/a	WORD	4193642	wordpools/wasnorm_wordpool_576.txt	LTP379	ltpFR2	9	9	BELLY	119	n/a	n/a	0	0	0
2050.29443359375	n/a	WORD	4199003	wordpools/wasnorm_wordpool_576.txt	LTP379	ltpFR2	9	9	APPLE	33	n/a	n/a	0	0	0
2052.7763671875	n/a	WORD	4204086	wordpools/wasnorm_wordpool_576.txt	LTP379	ltpFR2	9	9	LETTUCE	814	n/a	n/a	0	0	0
2055.52734375	n/a	WORD	4209720	wordpools/wasnorm_wordpool_576.txt	LTP379	ltpFR2	9	9	SWORD	1423	n/a	n/a	0	0	0
2058.29443359375	n/a	WORD	4215387	wordpools/wasnorm_wordpool_576.txt	LTP379	ltpFR2	9	9	GRILL	661	n/a	n/a	0	0	0
2061.0771484375	n/a	WORD	4221086	wordpools/wasnorm_wordpool_576.txt	LTP379	ltpFR2	9	9	TABLET	1427	n/a	n/a	0	0	0
2063.69189453125	n/a	WORD	4226441	wordpools/wasnorm_wordpool_576.txt	LTP379	ltpFR2	9	9	VELVET	1555	n/a	n/a	0	0	0
2065.2939453125	n/a	START	4229722	n/a	LTP379	ltpFR2	9	n/a	n/a	n/a	14	n/a	n/a	n/a	n/a
2066.35009765625	n/a	DISTRACTOR	4231885	n/a	LTP379	ltpFR2	9	9	n/a	n/a	n/a	n/a	0	0	0
2066.35986328125	n/a	PROB	4231905	n/a	LTP379	ltpFR2	9	n/a	n/a	n/a	14	16	5	3	8
2069.4599609375	n/a	PROB	4238254	n/a	LTP379	ltpFR2	9	n/a	n/a	n/a	14	11	1	2	8
2070.9599609375	n/a	PROB	4241326	n/a	LTP379	ltpFR2	9	n/a	n/a	n/a	14	17	7	3	7
2072.49267578125	n/a	PROB	4244465	n/a	LTP379	ltpFR2	9	n/a	n/a	n/a	14	9	4	1	4
2074.19287109375	n/a	PROB	4247947	n/a	LTP379	ltpFR2	9	n/a	n/a	n/a	14	9	1	6	2
2075.79150390625	n/a	PROB	4251221	n/a	LTP379	ltpFR2	9	n/a	n/a	n/a	14	11	7	3	1
2076.95947265625	n/a	PROB	4253613	n/a	LTP379	ltpFR2	9	n/a	n/a	n/a	14	16	1	9	6
2078.12646484375	n/a	PROB	4256003	n/a	LTP379	ltpFR2	9	n/a	n/a	n/a	14	14	2	8	4
2079.392578125	n/a	PROB	4258596	n/a	LTP379	ltpFR2	9	n/a	n/a	n/a	14	10	5	2	3
2081.15966796875	n/a	PROB	4262215	n/a	LTP379	ltpFR2	9	n/a	n/a	n/a	14	10	8	1	1
2082.392578125	n/a	PROB	4264740	n/a	LTP379	ltpFR2	9	n/a	n/a	n/a	14	15	5	9	1
2083.80859375	n/a	PROB	4267640	n/a	LTP379	ltpFR2	9	n/a	n/a	n/a	14	20	4	8	8
2085.70849609375	n/a	PROB	4271531	n/a	LTP379	ltpFR2	9	n/a	n/a	n/a	14	18	8	9	1
2087.2255859375	n/a	PROB	4274638	n/a	LTP379	ltpFR2	9	n/a	n/a	n/a	14	26	9	9	8
2088.869140625	n/a	STOP	4278004	n/a	LTP379	ltpFR2	9	n/a	n/a	n/a	14	n/a	n/a	n/a	n/a
2091.109375	n/a	REC_START	4282592	n/a	LTP379	ltpFR2	9	9	n/a	n/a	n/a	n/a	0	0	0
2095.568359375	n/a	REC_WORD	4291724	wordpools/wasnorm_wordpool_576.txt	LTP379	ltpFR2	9	9	NECKLACE	940	n/a	n/a	0	0	0
2097.06494140625	n/a	REC_WORD	4294789	wordpools/wasnorm_wordpool_576.txt	LTP379	ltpFR2	9	9	BEAVER	109	n/a	n/a	0	0	0
2098.61083984375	n/a	REC_WORD	4297955	wordpools/wasnorm_wordpool_576.txt	LTP379	ltpFR2	9	9	TORTOISE	1486	n/a	n/a	0	0	0
2100.35009765625	n/a	REC_WORD	4301517	wordpools/wasnorm_wordpool_576.txt	LTP379	ltpFR2	9	9	UMPIRE	1535	n/a	n/a	0	0	0
2102.36083984375	n/a	REC_WORD	4305635	wordpools/wasnorm_wordpool_576.txt	LTP379	ltpFR2	9	9	SPOON	1357	n/a	n/a	0	0	0
2104.17578125	n/a	REC_WORD	4309352	wordpools/wasnorm_wordpool_576.txt	LTP379	ltpFR2	9	9	FLUTE	585	n/a	n/a	0	0	0
2105.88671875	n/a	REC_WORD	4312856	wordpools/wasnorm_wordpool_576.txt	LTP379	ltpFR2	9	9	TUBA	1515	n/a	n/a	0	0	0
2107.27294921875	n/a	REC_WORD	4315695	wordpools/wasnorm_wordpool_576.txt	LTP379	ltpFR2	9	9	SHELF	1280	n/a	n/a	0	0	0
2108.7607421875	n/a	REC_WORD	4318742	wordpools/wasnorm_wordpool_576.txt	LTP379	ltpFR2	9	9	BANKER	84	n/a	n/a	0	0	0
2109.9228515625	n/a	REC_WORD	4321122	wordpools/wasnorm_wordpool_576.txt	LTP379	ltpFR2	9	9	NAPKIN	937	n/a	n/a	0	0	0
2113.185546875	n/a	REC_WORD	4327804	wordpools/wasnorm_wordpool_576.txt	LTP379	ltpFR2	9	9	KLEENEX	782	n/a	n/a	0	0	0
2114.720703125	n/a	REC_WORD	4330948	wordpools/wasnorm_wordpool_576.txt	LTP379	ltpFR2	9	9	BRACES	164	n/a	n/a	0	0	0
2116.3076171875	n/a	REC_WORD	4334198	wordpools/wasnorm_wordpool_576.txt	LTP379	ltpFR2	9	9	COIN	343	n/a	n/a	0	0	0
2121.2333984375	n/a	REC_WORD	4344286	wordpools/wasnorm_wordpool_576.txt	LTP379	ltpFR2	9	9	SOFTBALL	1343	n/a	n/a	0	0	0
2122.8603515625	n/a	REC_WORD	4347618	wordpools/wasnorm_wordpool_576.txt	LTP379	ltpFR2	9	9	PORTRAIT	1111	n/a	n/a	0	0	0
2124.25244140625	n/a	REC_WORD	4350469	wordpools/wasnorm_wordpool_576.txt	LTP379	ltpFR2	9	9	EYELASH	546	n/a	n/a	0	0	0
2125.76708984375	n/a	REC_WORD	4353571	wordpools/wasnorm_wordpool_576.txt	LTP379	ltpFR2	9	9	JUNGLE	764	n/a	n/a	0	0	0
2127.37890625	n/a	REC_WORD	4356872	wordpools/wasnorm_wordpool_576.txt	LTP379	ltpFR2	9	9	BELLY	119	n/a	n/a	0	0	0
2128.86328125	n/a	REC_WORD	4359912	wordpools/wasnorm_wordpool_576.txt	LTP379	ltpFR2	9	9	APPLE	33	n/a	n/a	0	0	0
2130.05322265625	n/a	REC_WORD	4362349	wordpools/wasnorm_wordpool_576.txt	LTP379	ltpFR2	9	9	LETTUCE	814	n/a	n/a	0	0	0
2131.3662109375	n/a	REC_WORD	4365038	wordpools/wasnorm_wordpool_576.txt	LTP379	ltpFR2	9	9	SWORD	1423	n/a	n/a	0	0	0
2133.083984375	n/a	REC_WORD	4368556	wordpools/wasnorm_wordpool_576.txt	LTP379	ltpFR2	9	9	GRILL	661	n/a	n/a	0	0	0
2134.7919921875	n/a	REC_WORD	4372054	wordpools/wasnorm_wordpool_576.txt	LTP379	ltpFR2	9	9	TABLET	1427	n/a	n/a	0	0	0
2136.4169921875	n/a	REC_WORD	4375382	wordpools/wasnorm_wordpool_576.txt	LTP379	ltpFR2	9	9	VELVET	1555	n/a	n/a	0	0	0
2181.53857421875	n/a	DISTRACTOR	4467791	n/a	LTP379	ltpFR2	9	10	n/a	n/a	n/a	n/a	0	0	0
2181.53857421875	n/a	START	4467791	n/a	LTP379	ltpFR2	9	n/a	n/a	n/a	15	n/a	n/a	n/a	n/a
2181.5546875	n/a	PROB	4467824	n/a	LTP379	ltpFR2	9	n/a	n/a	n/a	15	18	8	8	2
2183.33837890625	n/a	PROB	4471477	n/a	LTP379	ltpFR2	9	n/a	n/a	n/a	15	17	8	6	3
2185.53857421875	n/a	PROB	4475983	n/a	LTP379	ltpFR2	9	n/a	n/a	n/a	15	14	6	6	2
2186.8203125	n/a	PROB	4478608	n/a	LTP379	ltpFR2	9	n/a	n/a	n/a	15	15	2	8	5
2187.97119140625	n/a	PROB	4480965	n/a	LTP379	ltpFR2	9	n/a	n/a	n/a	15	17	7	5	5
2189.404296875	n/a	PROB	4483900	n/a	LTP379	ltpFR2	9	n/a	n/a	n/a	15	14	9	3	2
2191.22119140625	n/a	PROB	4487621	n/a	LTP379	ltpFR2	9	n/a	n/a	n/a	15	18	5	4	9
2192.5869140625	n/a	PROB	4490418	n/a	LTP379	ltpFR2	9	n/a	n/a	n/a	15	20	8	9	3
2194.47119140625	n/a	PROB	4494277	n/a	LTP379	ltpFR2	9	n/a	n/a	n/a	15	16	5	4	7
2195.90380859375	n/a	PROB	4497211	n/a	LTP379	ltpFR2	9	n/a	n/a	n/a	15	10	8	1	1
2197.10400390625	n/a	PROB	4499669	n/a	LTP379	ltpFR2	9	n/a	n/a	n/a	15	9	3	5	1
2198.4208984375	n/a	PROB	4502366	n/a	LTP379	ltpFR2	9	n/a	n/a	n/a	15	8	3	2	3
2199.970703125	n/a	PROB	4505540	n/a	LTP379	ltpFR2	9	n/a	n/a	n/a	15	19	2	8	9
2201.5537109375	n/a	PROB	4508782	n/a	LTP379	ltpFR2	9	n/a	n/a	n/a	15	17	9	7	1
2203.35400390625	n/a	PROB	4512469	n/a	LTP379	ltpFR2	9	n/a	n/a	n/a	15	10	3	1	6
2205.5185546875	n/a	STOP	4516902	n/a	LTP379	ltpFR2	9	n/a	n/a	n/a	15	n/a	n/a	n/a	n/a
2206.4365234375	n/a	WORD	4518782	wordpools/wasnorm_wordpool_576.txt	LTP379	ltpFR2	9	10	MEAT	883	n/a	n/a	0	0	0
2209.00341796875	n/a	WORD	4524039	wordpools/wasnorm_wordpool_576.txt	LTP379	ltpFR2	9	10	COTTAGE	384	n/a	n/a	0	0	0
2211.486328125	n/a	WORD	4529124	wordpools/wasnorm_wordpool_576.txt	LTP379	ltpFR2	9	10	WRENCH	1625	n/a	n/a	0	0	0
2214.1865234375	n/a	WORD	4534654	wordpools/wasnorm_wordpool_576.txt	LTP379	ltpFR2	9	10	DINER	467	n/a	n/a	0	0	0
2216.91943359375	n/a	WORD	4540251	wordpools/wasnorm_wordpool_576.txt	LTP379	ltpFR2	9	10	EAGLE	512	n/a	n/a	0	0	0
2219.453125	n/a	WORD	4545440	wordpools/wasnorm_wordpool_576.txt	LTP379	ltpFR2	9	10	ITEM	746	n/a	n/a	0	0	0
2222.16943359375	n/a	WORD	4551003	wordpools/wasnorm_wordpool_576.txt	LTP379	ltpFR2	9	10	TWIG	1527	n/a	n/a	0	0	0
2224.68505859375	n/a	WORD	4556155	wordpools/wasnorm_wordpool_576.txt	LTP379	ltpFR2	9	10	OUTDOORS	987	n/a	n/a	0	0	0
2227.2021484375	n/a	WORD	4561310	wordpools/wasnorm_wordpool_576.txt	LTP379	ltpFR2	9	10	PATIENT	1024	n/a	n/a	0	0	0
2229.93603515625	n/a	WORD	4566909	wordpools/wasnorm_wordpool_576.txt	LTP379	ltpFR2	9	10	NURSE	963	n/a	n/a	0	0	0
2232.73486328125	n/a	WORD	4572641	wordpools/wasnorm_wordpool_576.txt	LTP379	ltpFR2	9	10	PARROT	1015	n/a	n/a	0	0	0
2235.43603515625	n/a	WORD	4578173	wordpools/wasnorm_wordpool_576.txt	LTP379	ltpFR2	9	10	BACKBONE	66	n/a	n/a	0	0	0
2237.9189453125	n/a	WORD	4583258	wordpools/wasnorm_wordpool_576.txt	LTP379	ltpFR2	9	10	PLASTER	1085	n/a	n/a	0	0	0
2240.6357421875	n/a	WORD	4588822	wordpools/wasnorm_wordpool_576.txt	LTP379	ltpFR2	9	10	BLOUSE	139	n/a	n/a	0	0	0
2243.41845703125	n/a	WORD	4594521	wordpools/wasnorm_wordpool_576.txt	LTP379	ltpFR2	9	10	PANTHER	1009	n/a	n/a	0	0	0
2245.935546875	n/a	WORD	4599676	wordpools/wasnorm_wordpool_576.txt	LTP379	ltpFR2	9	10	COCOON	339	n/a	n/a	0	0	0
2248.38525390625	n/a	WORD	4604693	wordpools/wasnorm_wordpool_576.txt	LTP379	ltpFR2	9	10	MISSILE	900	n/a	n/a	0	0	0
2250.83349609375	n/a	WORD	4609707	wordpools/wasnorm_wordpool_576.txt	LTP379	ltpFR2	9	10	ROCKET	1202	n/a	n/a	0	0	0
2253.53515625	n/a	WORD	4615240	wordpools/wasnorm_wordpool_576.txt	LTP379	ltpFR2	9	10	RADISH	1158	n/a	n/a	0	0	0
2256.13427734375	n/a	WORD	4620563	wordpools/wasnorm_wordpool_576.txt	LTP379	ltpFR2	9	10	FLOWER	584	n/a	n/a	0	0	0
2258.951171875	n/a	WORD	4626332	wordpools/wasnorm_wordpool_576.txt	LTP379	ltpFR2	9	10	LION	827	n/a	n/a	0	0	0
2261.3837890625	n/a	WORD	4631314	wordpools/wasnorm_wordpool_576.txt	LTP379	ltpFR2	9	10	PENGUIN	1044	n/a	n/a	0	0	0
2264.0341796875	n/a	WORD	4636742	wordpools/wasnorm_wordpool_576.txt	LTP379	ltpFR2	9	10	PIMPLE	1071	n/a	n/a	0	0	0
2266.5009765625	n/a	WORD	4641794	wordpools/wasnorm_wordpool_576.txt	LTP379	ltpFR2	9	10	BOX	159	n/a	n/a	0	0	0
2268.11767578125	n/a	START	4645105	n/a	LTP379	ltpFR2	9	n/a	n/a	n/a	16	n/a	n/a	n/a	n/a
2269.28759765625	n/a	DISTRACTOR	4647501	n/a	LTP379	ltpFR2	9	10	n/a	n/a	n/a	n/a	0	0	0
2269.30078125	n/a	PROB	4647528	n/a	LTP379	ltpFR2	9	n/a	n/a	n/a	16	21	7	6	8
2275.1337890625	n/a	PROB	4659474	n/a	LTP379	ltpFR2	9	n/a	n/a	n/a	16	18	7	6	5
2278.13330078125	n/a	PROB	4665617	n/a	LTP379	ltpFR2	9	n/a	n/a	n/a	16	23	8	7	8
2279.9833984375	n/a	PROB	4669406	n/a	LTP379	ltpFR2	9	n/a	n/a	n/a	16	19	4	8	7
2281.6826171875	n/a	PROB	4672886	n/a	LTP379	ltpFR2	9	n/a	n/a	n/a	16	6	1	2	3
2282.66552734375	n/a	PROB	4674899	n/a	LTP379	ltpFR2	9	n/a	n/a	n/a	16	23	5	9	9
2284.1162109375	n/a	PROB	4677870	n/a	LTP379	ltpFR2	9	n/a	n/a	n/a	16	14	4	5	5
2285.43310546875	n/a	PROB	4680567	n/a	LTP379	ltpFR2	9	n/a	n/a	n/a	16	8	1	4	3
2286.865234375	n/a	PROB	4683500	n/a	LTP379	ltpFR2	9	n/a	n/a	n/a	16	8	1	1	6
2287.96630859375	n/a	PROB	4685755	n/a	LTP379	ltpFR2	9	n/a	n/a	n/a	16	16	9	3	4
2289.56591796875	n/a	PROB	4689031	n/a	LTP379	ltpFR2	9	n/a	n/a	n/a	16	13	2	8	3
2290.77294921875	n/a	STOP	4691503	n/a	LTP379	ltpFR2	9	n/a	n/a	n/a	16	n/a	n/a	n/a	n/a
2293.98388671875	n/a	REC_START	4698079	n/a	LTP379	ltpFR2	9	10	n/a	n/a	n/a	n/a	0	0	0
2311.55126953125	n/a	REC_WORD_VV	4734057	wordpools/wasnorm_wordpool_576.txt	LTP379	ltpFR2	9	10	<>	-1	n/a	n/a	0	0	0
2322.34814453125	n/a	REC_WORD_VV	4756169	wordpools/wasnorm_wordpool_576.txt	LTP379	ltpFR2	9	10	<>	-1	n/a	n/a	0	0	0
2323.7509765625	n/a	REC_WORD	4759042	wordpools/wasnorm_wordpool_576.txt	LTP379	ltpFR2	9	10	MEAT	883	n/a	n/a	0	0	0
2324.7802734375	n/a	REC_WORD	4761150	wordpools/wasnorm_wordpool_576.txt	LTP379	ltpFR2	9	10	COTTAGE	384	n/a	n/a	0	0	0
2326.05810546875	n/a	REC_WORD	4763767	wordpools/wasnorm_wordpool_576.txt	LTP379	ltpFR2	9	10	WRENCH	1625	n/a	n/a	0	0	0
2331.19873046875	n/a	REC_WORD	4774295	wordpools/wasnorm_wordpool_576.txt	LTP379	ltpFR2	9	10	DINER	467	n/a	n/a	0	0	0
2343.16650390625	n/a	REC_WORD	4798805	wordpools/wasnorm_wordpool_576.txt	LTP379	ltpFR2	9	10	EAGLE	512	n/a	n/a	0	0	0
2344.1005859375	n/a	REC_WORD	4800718	wordpools/wasnorm_wordpool_576.txt	LTP379	ltpFR2	9	10	ITEM	746	n/a	n/a	0	0	0
2345.04736328125	n/a	REC_WORD	4802657	wordpools/wasnorm_wordpool_576.txt	LTP379	ltpFR2	9	10	TWIG	1527	n/a	n/a	0	0	0
2346.056640625	n/a	REC_WORD	4804724	wordpools/wasnorm_wordpool_576.txt	LTP379	ltpFR2	9	10	OUTDOORS	987	n/a	n/a	0	0	0
2347.30029296875	n/a	REC_WORD	4807271	wordpools/wasnorm_wordpool_576.txt	LTP379	ltpFR2	9	10	PATIENT	1024	n/a	n/a	0	0	0
2348.38916015625	n/a	REC_WORD	4809501	wordpools/wasnorm_wordpool_576.txt	LTP379	ltpFR2	9	10	NURSE	963	n/a	n/a	0	0	0
2349.60107421875	n/a	REC_WORD	4811983	wordpools/wasnorm_wordpool_576.txt	LTP379	ltpFR2	9	10	PARROT	1015	n/a	n/a	0	0	0
2353.02197265625	n/a	REC_WORD	4818989	wordpools/wasnorm_wordpool_576.txt	LTP379	ltpFR2	9	10	BACKBONE	66	n/a	n/a	0	0	0
2354.2802734375	n/a	REC_WORD	4821566	wordpools/wasnorm_wordpool_576.txt	LTP379	ltpFR2	9	10	PLASTER	1085	n/a	n/a	0	0	0
2357.13525390625	n/a	REC_WORD	4827413	wordpools/wasnorm_wordpool_576.txt	LTP379	ltpFR2	9	10	BLOUSE	139	n/a	n/a	0	0	0
2357.958984375	n/a	REC_WORD	4829100	wordpools/wasnorm_wordpool_576.txt	LTP379	ltpFR2	9	10	PANTHER	1009	n/a	n/a	0	0	0
2358.791015625	n/a	REC_WORD	4830804	wordpools/wasnorm_wordpool_576.txt	LTP379	ltpFR2	9	10	COCOON	339	n/a	n/a	0	0	0
2359.85498046875	n/a	REC_WORD	4832983	wordpools/wasnorm_wordpool_576.txt	LTP379	ltpFR2	9	10	MISSILE	900	n/a	n/a	0	0	0
2360.9541015625	n/a	REC_WORD	4835234	wordpools/wasnorm_wordpool_576.txt	LTP379	ltpFR2	9	10	ROCKET	1202	n/a	n/a	0	0	0
2361.994140625	n/a	REC_WORD	4837364	wordpools/wasnorm_wordpool_576.txt	LTP379	ltpFR2	9	10	RADISH	1158	n/a	n/a	0	0	0
2362.90283203125	n/a	REC_WORD	4839225	wordpools/wasnorm_wordpool_576.txt	LTP379	ltpFR2	9	10	FLOWER	584	n/a	n/a	0	0	0
2364.06591796875	n/a	REC_WORD	4841607	wordpools/wasnorm_wordpool_576.txt	LTP379	ltpFR2	9	10	LION	827	n/a	n/a	0	0	0
2365.27880859375	n/a	REC_WORD	4844091	wordpools/wasnorm_wordpool_576.txt	LTP379	ltpFR2	9	10	PENGUIN	1044	n/a	n/a	0	0	0
2366.36865234375	n/a	REC_WORD	4846323	wordpools/wasnorm_wordpool_576.txt	LTP379	ltpFR2	9	10	PIMPLE	1071	n/a	n/a	0	0	0
2367.4716796875	n/a	REC_WORD	4848582	wordpools/wasnorm_wordpool_576.txt	LTP379	ltpFR2	9	10	BOX	159	n/a	n/a	0	0	0
2384.42822265625	n/a	DISTRACTOR	4883309	n/a	LTP379	ltpFR2	9	11	n/a	n/a	n/a	n/a	0	0	0
2384.42919921875	n/a	START	4883311	n/a	LTP379	ltpFR2	9	n/a	n/a	n/a	17	n/a	n/a	n/a	n/a
2384.4453125	n/a	PROB	4883344	n/a	LTP379	ltpFR2	9	n/a	n/a	n/a	17	11	4	3	4
2386.412109375	n/a	PROB	4887372	n/a	LTP379	ltpFR2	9	n/a	n/a	n/a	17	18	9	7	2
2387.7939453125	n/a	PROB	4890202	n/a	LTP379	ltpFR2	9	n/a	n/a	n/a	17	12	4	1	7
2389.56201171875	n/a	PROB	4893823	n/a	LTP379	ltpFR2	9	n/a	n/a	n/a	17	16	4	9	3
2391.27783203125	n/a	PROB	4897337	n/a	LTP379	ltpFR2	9	n/a	n/a	n/a	17	10	5	4	1
2393.1279296875	n/a	PROB	4901126	n/a	LTP379	ltpFR2	9	n/a	n/a	n/a	17	17	7	6	4
2394.6279296875	n/a	PROB	4904198	n/a	LTP379	ltpFR2	9	n/a	n/a	n/a	17	9	6	1	2
2396.16064453125	n/a	PROB	4907337	n/a	LTP379	ltpFR2	9	n/a	n/a	n/a	17	14	4	8	2
2399.19482421875	n/a	PROB	4913551	n/a	LTP379	ltpFR2	9	n/a	n/a	n/a	17	13	1	6	6
2400.61083984375	n/a	PROB	4916451	n/a	LTP379	ltpFR2	9	n/a	n/a	n/a	17	6	3	1	2
2401.6767578125	n/a	PROB	4918634	n/a	LTP379	ltpFR2	9	n/a	n/a	n/a	17	10	8	1	1
2402.89453125	n/a	PROB	4921128	n/a	LTP379	ltpFR2	9	n/a	n/a	n/a	17	18	5	8	5
2404.21044921875	n/a	PROB	4923823	n/a	LTP379	ltpFR2	9	n/a	n/a	n/a	17	17	1	7	9
2405.96044921875	n/a	PROB	4927407	n/a	LTP379	ltpFR2	9	n/a	n/a	n/a	17	18	9	7	2
2407.61474609375	n/a	STOP	4930795	n/a	LTP379	ltpFR2	9	n/a	n/a	n/a	17	n/a	n/a	n/a	n/a
2409.37744140625	n/a	WORD	4934405	wordpools/wasnorm_wordpool_576.txt	LTP379	ltpFR2	9	11	PARSLEY	1016	n/a	n/a	0	0	0
2412.02734375	n/a	WORD	4939832	wordpools/wasnorm_wordpool_576.txt	LTP379	ltpFR2	9	11	YARN	1631	n/a	n/a	0	0	0
2414.64453125	n/a	WORD	4945192	wordpools/wasnorm_wordpool_576.txt	LTP379	ltpFR2	9	11	CREATURE	403	n/a	n/a	0	0	0
2417.37744140625	n/a	WORD	4950789	wordpools/wasnorm_wordpool_576.txt	LTP379	ltpFR2	9	11	HUSBAND	728	n/a	n/a	0	0	0
2420.09326171875	n/a	WORD	4956351	wordpools/wasnorm_wordpool_576.txt	LTP379	ltpFR2	9	11	CRIB	407	n/a	n/a	0	0	0
2422.77587890625	n/a	WORD	4961845	wordpools/wasnorm_wordpool_576.txt	LTP379	ltpFR2	9	11	CHEST	295	n/a	n/a	0	0	0
2425.54296875	n/a	WORD	4967512	wordpools/wasnorm_wordpool_576.txt	LTP379	ltpFR2	9	11	HONEY	713	n/a	n/a	0	0	0
2428.02685546875	n/a	WORD	4972599	wordpools/wasnorm_wordpool_576.txt	LTP379	ltpFR2	9	11	GOBLIN	645	n/a	n/a	0	0	0
2430.5927734375	n/a	WORD	4977854	wordpools/wasnorm_wordpool_576.txt	LTP379	ltpFR2	9	11	SEAGULL	1261	n/a	n/a	0	0	0
2433.04296875	n/a	WORD	4982872	wordpools/wasnorm_wordpool_576.txt	LTP379	ltpFR2	9	11	LIPSTICK	829	n/a	n/a	0	0	0
2435.7587890625	n/a	WORD	4988434	wordpools/wasnorm_wordpool_576.txt	LTP379	ltpFR2	9	11	COSTUME	383	n/a	n/a	0	0	0
2438.24267578125	n/a	WORD	4993521	wordpools/wasnorm_wordpool_576.txt	LTP379	ltpFR2	9	11	CATCHER	258	n/a	n/a	0	0	0
2440.724609375	n/a	WORD	4998604	wordpools/wasnorm_wordpool_576.txt	LTP379	ltpFR2	9	11	DONOR	485	n/a	n/a	0	0	0
2443.29248046875	n/a	WORD	5003863	wordpools/wasnorm_wordpool_576.txt	LTP379	ltpFR2	9	11	FILM	565	n/a	n/a	0	0	0
2445.7744140625	n/a	WORD	5008946	wordpools/wasnorm_wordpool_576.txt	LTP379	ltpFR2	9	11	ROD	1203	n/a	n/a	0	0	0
2448.4091796875	n/a	WORD	5014342	wordpools/wasnorm_wordpool_576.txt	LTP379	ltpFR2	9	11	CORAL	378	n/a	n/a	0	0	0
2451.1591796875	n/a	WORD	5019974	wordpools/wasnorm_wordpool_576.txt	LTP379	ltpFR2	9	11	SWIMMER	1420	n/a	n/a	0	0	0
2453.625	n/a	WORD	5025024	wordpools/wasnorm_wordpool_576.txt	LTP379	ltpFR2	9	11	TWISTER	1530	n/a	n/a	0	0	0
2456.4091796875	n/a	WORD	5030726	wordpools/wasnorm_wordpool_576.txt	LTP379	ltpFR2	9	11	CLOTHES	327	n/a	n/a	0	0	0
2459.1748046875	n/a	WORD	5036390	wordpools/wasnorm_wordpool_576.txt	LTP379	ltpFR2	9	11	DRESSER	496	n/a	n/a	0	0	0
2461.99169921875	n/a	WORD	5042159	wordpools/wasnorm_wordpool_576.txt	LTP379	ltpFR2	9	11	MONSTER	912	n/a	n/a	0	0	0
2464.44384765625	n/a	WORD	5047181	wordpools/wasnorm_wordpool_576.txt	LTP379	ltpFR2	9	11	KIDNEY	776	n/a	n/a	0	0	0
2467.1416015625	n/a	WORD	5052706	wordpools/wasnorm_wordpool_576.txt	LTP379	ltpFR2	9	11	WASP	1593	n/a	n/a	0	0	0
2469.79052734375	n/a	WORD	5058131	wordpools/wasnorm_wordpool_576.txt	LTP379	ltpFR2	9	11	SEAL	1262	n/a	n/a	0	0	0
2471.40869140625	n/a	START	5061445	n/a	LTP379	ltpFR2	9	n/a	n/a	n/a	18	n/a	n/a	n/a	n/a
2472.21044921875	n/a	DISTRACTOR	5063087	n/a	LTP379	ltpFR2	9	11	n/a	n/a	n/a	n/a	0	0	0
2472.224609375	n/a	PROB	5063116	n/a	LTP379	ltpFR2	9	n/a	n/a	n/a	18	9	2	1	6
2475.9072265625	n/a	PROB	5070658	n/a	LTP379	ltpFR2	9	n/a	n/a	n/a	18	14	6	4	4
2477.2412109375	n/a	PROB	5073390	n/a	LTP379	ltpFR2	9	n/a	n/a	n/a	18	19	6	7	6
2479.00732421875	n/a	PROB	5077007	n/a	LTP379	ltpFR2	9	n/a	n/a	n/a	18	10	6	1	3
2480.7734375	n/a	PROB	5080624	n/a	LTP379	ltpFR2	9	n/a	n/a	n/a	18	14	3	3	8
2482.357421875	n/a	PROB	5083868	n/a	LTP379	ltpFR2	9	n/a	n/a	n/a	18	16	1	7	8
2483.64013671875	n/a	PROB	5086495	n/a	LTP379	ltpFR2	9	n/a	n/a	n/a	18	19	3	8	8
2485.17431640625	n/a	PROB	5089637	n/a	LTP379	ltpFR2	9	n/a	n/a	n/a	18	11	3	7	1
2486.43994140625	n/a	PROB	5092229	n/a	LTP379	ltpFR2	9	n/a	n/a	n/a	18	11	5	1	5
2487.77294921875	n/a	PROB	5094959	n/a	LTP379	ltpFR2	9	n/a	n/a	n/a	18	18	8	5	5
2489.08984375	n/a	PROB	5097656	n/a	LTP379	ltpFR2	9	n/a	n/a	n/a	18	5	1	1	3
2490.89013671875	n/a	PROB	5101343	n/a	LTP379	ltpFR2	9	n/a	n/a	n/a	18	11	1	3	7
2492.30712890625	n/a	PROB	5104245	n/a	LTP379	ltpFR2	9	n/a	n/a	n/a	18	19	8	4	7
2494.02197265625	n/a	STOP	5107757	n/a	LTP379	ltpFR2	9	n/a	n/a	n/a	18	n/a	n/a	n/a	n/a
2497.3076171875	n/a	REC_START	5114486	n/a	LTP379	ltpFR2	9	11	n/a	n/a	n/a	n/a	0	0	0
2503.41064453125	n/a	REC_WORD_VV	5126985	wordpools/wasnorm_wordpool_576.txt	LTP379	ltpFR2	9	11	<>	-1	n/a	n/a	0	0	0
2507.15234375	n/a	REC_WORD	5134648	wordpools/wasnorm_wordpool_576.txt	LTP379	ltpFR2	9	11	PARSLEY	1016	n/a	n/a	0	0	0
2508.482421875	n/a	REC_WORD	5137372	wordpools/wasnorm_wordpool_576.txt	LTP379	ltpFR2	9	11	YARN	1631	n/a	n/a	0	0	0
2509.6513671875	n/a	REC_WORD	5139766	wordpools/wasnorm_wordpool_576.txt	LTP379	ltpFR2	9	11	CREATURE	403	n/a	n/a	0	0	0
2510.7734375	n/a	REC_WORD	5142064	wordpools/wasnorm_wordpool_576.txt	LTP379	ltpFR2	9	11	HUSBAND	728	n/a	n/a	0	0	0
2512.3232421875	n/a	REC_WORD	5145238	wordpools/wasnorm_wordpool_576.txt	LTP379	ltpFR2	9	11	CRIB	407	n/a	n/a	0	0	0
2515.4970703125	n/a	REC_WORD	5151738	wordpools/wasnorm_wordpool_576.txt	LTP379	ltpFR2	9	11	CHEST	295	n/a	n/a	0	0	0
2516.7451171875	n/a	REC_WORD	5154294	wordpools/wasnorm_wordpool_576.txt	LTP379	ltpFR2	9	11	HONEY	713	n/a	n/a	0	0	0
2518.35986328125	n/a	REC_WORD	5157601	wordpools/wasnorm_wordpool_576.txt	LTP379	ltpFR2	9	11	GOBLIN	645	n/a	n/a	0	0	0
2519.76025390625	n/a	REC_WORD	5160469	wordpools/wasnorm_wordpool_576.txt	LTP379	ltpFR2	9	11	SEAGULL	1261	n/a	n/a	0	0	0
2521.115234375	n/a	REC_WORD	5163244	wordpools/wasnorm_wordpool_576.txt	LTP379	ltpFR2	9	11	LIPSTICK	829	n/a	n/a	0	0	0
2522.828125	n/a	REC_WORD	5166752	wordpools/wasnorm_wordpool_576.txt	LTP379	ltpFR2	9	11	COSTUME	383	n/a	n/a	0	0	0
2524.35693359375	n/a	REC_WORD	5169883	wordpools/wasnorm_wordpool_576.txt	LTP379	ltpFR2	9	11	CATCHER	258	n/a	n/a	0	0	0
2525.89990234375	n/a	REC_WORD	5173043	wordpools/wasnorm_wordpool_576.txt	LTP379	ltpFR2	9	11	DONOR	485	n/a	n/a	0	0	0
2527.11376953125	n/a	REC_WORD	5175529	wordpools/wasnorm_wordpool_576.txt	LTP379	ltpFR2	9	11	FILM	565	n/a	n/a	0	0	0
2530.3447265625	n/a	REC_WORD	5182146	wordpools/wasnorm_wordpool_576.txt	LTP379	ltpFR2	9	11	ROD	1203	n/a	n/a	0	0	0
2531.73876953125	n/a	REC_WORD	5185001	wordpools/wasnorm_wordpool_576.txt	LTP379	ltpFR2	9	11	CORAL	378	n/a	n/a	0	0	0
2532.99267578125	n/a	REC_WORD	5187569	wordpools/wasnorm_wordpool_576.txt	LTP379	ltpFR2	9	11	SWIMMER	1420	n/a	n/a	0	0	0
2536.28955078125	n/a	REC_WORD	5194321	wordpools/wasnorm_wordpool_576.txt	LTP379	ltpFR2	9	11	TWISTER	1530	n/a	n/a	0	0	0
2537.81640625	n/a	REC_WORD	5197448	wordpools/wasnorm_wordpool_576.txt	LTP379	ltpFR2	9	11	CLOTHES	327	n/a	n/a	0	0	0
2539.2783203125	n/a	REC_WORD	5200442	wordpools/wasnorm_wordpool_576.txt	LTP379	ltpFR2	9	11	DRESSER	496	n/a	n/a	0	0	0
2540.7353515625	n/a	REC_WORD	5203426	wordpools/wasnorm_wordpool_576.txt	LTP379	ltpFR2	9	11	MONSTER	912	n/a	n/a	0	0	0
2547.51611328125	n/a	REC_WORD	5217313	wordpools/wasnorm_wordpool_576.txt	LTP379	ltpFR2	9	11	KIDNEY	776	n/a	n/a	0	0	0
2548.89306640625	n/a	REC_WORD	5220133	wordpools/wasnorm_wordpool_576.txt	LTP379	ltpFR2	9	11	WASP	1593	n/a	n/a	0	0	0
2550.35498046875	n/a	REC_WORD	5223127	wordpools/wasnorm_wordpool_576.txt	LTP379	ltpFR2	9	11	SEAL	1262	n/a	n/a	0	0	0
2587.76806640625	n/a	WORD	5299749	wordpools/wasnorm_wordpool_576.txt	LTP379	ltpFR2	9	12	TURKEY	1520	n/a	n/a	0	0	0
2590.23583984375	n/a	WORD	5304803	wordpools/wasnorm_wordpool_576.txt	LTP379	ltpFR2	9	12	CANYON	235	n/a	n/a	0	0	0
2592.66796875	n/a	WORD	5309784	wordpools/wasnorm_wordpool_576.txt	LTP379	ltpFR2	9	12	DOUGHNUT	490	n/a	n/a	0	0	0
2595.20166015625	n/a	WORD	5314973	wordpools/wasnorm_wordpool_576.txt	LTP379	ltpFR2	9	12	PERFUME	1049	n/a	n/a	0	0	0
2597.73486328125	n/a	WORD	5320161	wordpools/wasnorm_wordpool_576.txt	LTP379	ltpFR2	9	12	CIGAR	308	n/a	n/a	0	0	0
2600.21875	n/a	WORD	5325248	wordpools/wasnorm_wordpool_576.txt	LTP379	ltpFR2	9	12	BRANDY	169	n/a	n/a	0	0	0
2602.91845703125	n/a	WORD	5330777	wordpools/wasnorm_wordpool_576.txt	LTP379	ltpFR2	9	12	ACTOR	5	n/a	n/a	0	0	0
2605.38525390625	n/a	WORD	5335829	wordpools/wasnorm_wordpool_576.txt	LTP379	ltpFR2	9	12	STOVE	1388	n/a	n/a	0	0	0
2608.1513671875	n/a	WORD	5341494	wordpools/wasnorm_wordpool_576.txt	LTP379	ltpFR2	9	12	SKILLET	1317	n/a	n/a	0	0	0
2610.88427734375	n/a	WORD	5347091	wordpools/wasnorm_wordpool_576.txt	LTP379	ltpFR2	9	12	CATTLE	261	n/a	n/a	0	0	0
2613.60107421875	n/a	WORD	5352655	wordpools/wasnorm_wordpool_576.txt	LTP379	ltpFR2	9	12	BREAST	171	n/a	n/a	0	0	0
2616.083984375	n/a	WORD	5357740	wordpools/wasnorm_wordpool_576.txt	LTP379	ltpFR2	9	12	PORK	1108	n/a	n/a	0	0	0
2618.90087890625	n/a	WORD	5363509	wordpools/wasnorm_wordpool_576.txt	LTP379	ltpFR2	9	12	JELLO	754	n/a	n/a	0	0	0
2621.333984375	n/a	WORD	5368492	wordpools/wasnorm_wordpool_576.txt	LTP379	ltpFR2	9	12	SLOPE	1328	n/a	n/a	0	0	0
2624.083984375	n/a	WORD	5374124	wordpools/wasnorm_wordpool_576.txt	LTP379	ltpFR2	9	12	ROOSTER	1209	n/a	n/a	0	0	0
2626.716796875	n/a	WORD	5379516	wordpools/wasnorm_wordpool_576.txt	LTP379	ltpFR2	9	12	PLAZA	1088	n/a	n/a	0	0	0
2629.3837890625	n/a	WORD	5384978	wordpools/wasnorm_wordpool_576.txt	LTP379	ltpFR2	9	12	SISTER	1312	n/a	n/a	0	0	0
2631.966796875	n/a	WORD	5390268	wordpools/wasnorm_wordpool_576.txt	LTP379	ltpFR2	9	12	EMPIRE	530	n/a	n/a	0	0	0
2634.4833984375	n/a	WORD	5395422	wordpools/wasnorm_wordpool_576.txt	LTP379	ltpFR2	9	12	RIFLE	1192	n/a	n/a	0	0	0
2636.9833984375	n/a	WORD	5400542	wordpools/wasnorm_wordpool_576.txt	LTP379	ltpFR2	9	12	PISTOL	1075	n/a	n/a	0	0	0
2639.41650390625	n/a	WORD	5405525	wordpools/wasnorm_wordpool_576.txt	LTP379	ltpFR2	9	12	FOOT	590	n/a	n/a	0	0	0
2642.10009765625	n/a	WORD	5411021	wordpools/wasnorm_wordpool_576.txt	LTP379	ltpFR2	9	12	MILK	895	n/a	n/a	0	0	0
2644.6162109375	n/a	WORD	5416174	wordpools/wasnorm_wordpool_576.txt	LTP379	ltpFR2	9	12	EGYPT	519	n/a	n/a	0	0	0
2647.2001953125	n/a	WORD	5421466	wordpools/wasnorm_wordpool_576.txt	LTP379	ltpFR2	9	12	MILDEW	893	n/a	n/a	0	0	0
2648.81494140625	n/a	START	5424773	n/a	LTP379	ltpFR2	9	n/a	n/a	n/a	19	n/a	n/a	n/a	n/a
2649.77783203125	n/a	DISTRACTOR	5426745	n/a	LTP379	ltpFR2	9	12	n/a	n/a	n/a	n/a	0	0	0
2649.7822265625	n/a	PROB	5426754	n/a	LTP379	ltpFR2	9	n/a	n/a	n/a	19	15	9	4	2
2654.14892578125	n/a	PROB	5435697	n/a	LTP379	ltpFR2	9	n/a	n/a	n/a	19	19	6	5	8
2655.56591796875	n/a	PROB	5438599	n/a	LTP379	ltpFR2	9	n/a	n/a	n/a	19	13	1	7	5
2658.48291015625	n/a	PROB	5444573	n/a	LTP379	ltpFR2	9	n/a	n/a	n/a	19	16	3	4	9
2659.9326171875	n/a	PROB	5447542	n/a	LTP379	ltpFR2	9	n/a	n/a	n/a	19	10	8	1	1
2661.0986328125	n/a	PROB	5449930	n/a	LTP379	ltpFR2	9	n/a	n/a	n/a	19	19	9	4	6
2663.015625	n/a	PROB	5453856	n/a	LTP379	ltpFR2	9	n/a	n/a	n/a	19	23	8	8	7
2664.86474609375	n/a	PROB	5457643	n/a	LTP379	ltpFR2	9	n/a	n/a	n/a	19	15	6	6	3
2666.3486328125	n/a	PROB	5460682	n/a	LTP379	ltpFR2	9	n/a	n/a	n/a	19	16	2	7	7
2668.11572265625	n/a	PROB	5464301	n/a	LTP379	ltpFR2	9	n/a	n/a	n/a	19	12	1	9	2
2669.33154296875	n/a	PROB	5466791	n/a	LTP379	ltpFR2	9	n/a	n/a	n/a	19	13	5	1	7
2672.1025390625	n/a	STOP	5472466	n/a	LTP379	ltpFR2	9	n/a	n/a	n/a	19	n/a	n/a	n/a	n/a
2674.76416015625	n/a	REC_START	5477917	n/a	LTP379	ltpFR2	9	12	n/a	n/a	n/a	n/a	0	0	0
2677.89306640625	n/a	REC_WORD_VV	5484325	wordpools/wasnorm_wordpool_576.txt	LTP379	ltpFR2	9	12	<>	-1	n/a	n/a	0	0	0
2680.64892578125	n/a	REC_WORD	5489969	wordpools/wasnorm_wordpool_576.txt	LTP379	ltpFR2	9	12	TURKEY	1520	n/a	n/a	0	0	0
2681.42529296875	n/a	REC_WORD_VV	5491559	wordpools/wasnorm_wordpool_576.txt	LTP379	ltpFR2	9	12	<>	-1	n/a	n/a	0	0	0
2682.6328125	n/a	REC_WORD	5494032	wordpools/wasnorm_wordpool_576.txt	LTP379	ltpFR2	9	12	CANYON	235	n/a	n/a	0	0	0
2684.62109375	n/a	REC_WORD	5498104	wordpools/wasnorm_wordpool_576.txt	LTP379	ltpFR2	9	12	DOUGHNUT	490	n/a	n/a	0	0	0
2685.98876953125	n/a	REC_WORD	5500905	wordpools/wasnorm_wordpool_576.txt	LTP379	ltpFR2	9	12	PERFUME	1049	n/a	n/a	0	0	0
2688.06982421875	n/a	REC_WORD	5505167	wordpools/wasnorm_wordpool_576.txt	LTP379	ltpFR2	9	12	CIGAR	308	n/a	n/a	0	0	0
2689.8017578125	n/a	REC_WORD	5508714	wordpools/wasnorm_wordpool_576.txt	LTP379	ltpFR2	9	12	BRANDY	169	n/a	n/a	0	0	0
2691.31298828125	n/a	REC_WORD	5511809	wordpools/wasnorm_wordpool_576.txt	LTP379	ltpFR2	9	12	ACTOR	5	n/a	n/a	0	0	0
2695.2255859375	n/a	REC_WORD	5519822	wordpools/wasnorm_wordpool_576.txt	LTP379	ltpFR2	9	12	STOVE	1388	n/a	n/a	0	0	0
2696.78955078125	n/a	REC_WORD	5523025	wordpools/wasnorm_wordpool_576.txt	LTP379	ltpFR2	9	12	SKILLET	1317	n/a	n/a	0	0	0
2700.6005859375	n/a	REC_WORD	5530830	wordpools/wasnorm_wordpool_576.txt	LTP379	ltpFR2	9	12	CATTLE	261	n/a	n/a	0	0	0
2701.90234375	n/a	REC_WORD	5533496	wordpools/wasnorm_wordpool_576.txt	LTP379	ltpFR2	9	12	BREAST	171	n/a	n/a	0	0	0
2703.17822265625	n/a	REC_WORD	5536109	wordpools/wasnorm_wordpool_576.txt	LTP379	ltpFR2	9	12	PORK	1108	n/a	n/a	0	0	0
2704.62744140625	n/a	REC_WORD	5539077	wordpools/wasnorm_wordpool_576.txt	LTP379	ltpFR2	9	12	JELLO	754	n/a	n/a	0	0	0
2706.0625	n/a	REC_WORD	5542016	wordpools/wasnorm_wordpool_576.txt	LTP379	ltpFR2	9	12	SLOPE	1328	n/a	n/a	0	0	0
2707.453125	n/a	REC_WORD	5544864	wordpools/wasnorm_wordpool_576.txt	LTP379	ltpFR2	9	12	ROOSTER	1209	n/a	n/a	0	0	0
2708.951171875	n/a	REC_WORD	5547932	wordpools/wasnorm_wordpool_576.txt	LTP379	ltpFR2	9	12	PLAZA	1088	n/a	n/a	0	0	0
2710.4990234375	n/a	REC_WORD	5551102	wordpools/wasnorm_wordpool_576.txt	LTP379	ltpFR2	9	12	SISTER	1312	n/a	n/a	0	0	0
2715.0869140625	n/a	REC_WORD	5560498	wordpools/wasnorm_wordpool_576.txt	LTP379	ltpFR2	9	12	RIFLE	1192	n/a	n/a	0	0	0
2716.84521484375	n/a	REC_WORD	5564099	wordpools/wasnorm_wordpool_576.txt	LTP379	ltpFR2	9	12	PISTOL	1075	n/a	n/a	0	0	0
2717.966796875	n/a	REC_WORD	5566396	wordpools/wasnorm_wordpool_576.txt	LTP379	ltpFR2	9	12	FOOT	590	n/a	n/a	0	0	0
2719.32373046875	n/a	REC_WORD	5569175	wordpools/wasnorm_wordpool_576.txt	LTP379	ltpFR2	9	12	MILK	895	n/a	n/a	0	0	0
2720.7099609375	n/a	REC_WORD	5572014	wordpools/wasnorm_wordpool_576.txt	LTP379	ltpFR2	9	12	EGYPT	519	n/a	n/a	0	0	0
2721.95068359375	n/a	REC_WORD	5574555	wordpools/wasnorm_wordpool_576.txt	LTP379	ltpFR2	9	12	MILDEW	893	n/a	n/a	0	0	0
2765.1943359375	n/a	DISTRACTOR	5663118	n/a	LTP379	ltpFR2	9	13	n/a	n/a	n/a	n/a	0	0	0
2765.1943359375	n/a	START	5663118	n/a	LTP379	ltpFR2	9	n/a	n/a	n/a	20	n/a	n/a	n/a	n/a
2765.21044921875	n/a	PROB	5663151	n/a	LTP379	ltpFR2	9	n/a	n/a	n/a	20	11	5	4	2
2768.41064453125	n/a	PROB	5669705	n/a	LTP379	ltpFR2	9	n/a	n/a	n/a	20	21	7	5	9
2770.92724609375	n/a	PROB	5674859	n/a	LTP379	ltpFR2	9	n/a	n/a	n/a	20	15	5	6	4
2773.31005859375	n/a	PROB	5679739	n/a	LTP379	ltpFR2	9	n/a	n/a	n/a	20	13	3	1	9
2774.67626953125	n/a	PROB	5682537	n/a	LTP379	ltpFR2	9	n/a	n/a	n/a	20	15	2	4	9
2776.6103515625	n/a	PROB	5686498	n/a	LTP379	ltpFR2	9	n/a	n/a	n/a	20	9	5	2	2
2778.626953125	n/a	PROB	5690628	n/a	LTP379	ltpFR2	9	n/a	n/a	n/a	20	14	4	4	6
2779.94287109375	n/a	PROB	5693323	n/a	LTP379	ltpFR2	9	n/a	n/a	n/a	20	7	1	4	2
2781.47705078125	n/a	PROB	5696465	n/a	LTP379	ltpFR2	9	n/a	n/a	n/a	20	19	6	7	6
2783.06005859375	n/a	PROB	5699707	n/a	LTP379	ltpFR2	9	n/a	n/a	n/a	20	12	3	8	1
2784.7919921875	n/a	PROB	5703254	n/a	LTP379	ltpFR2	9	n/a	n/a	n/a	20	15	2	8	5
2786.1767578125	n/a	PROB	5706090	n/a	LTP379	ltpFR2	9	n/a	n/a	n/a	20	22	5	9	8
2788.26171875	n/a	STOP	5710360	n/a	LTP379	ltpFR2	9	n/a	n/a	n/a	20	n/a	n/a	n/a	n/a
2790.3095703125	n/a	WORD	5714554	wordpools/wasnorm_wordpool_576.txt	LTP379	ltpFR2	9	13	MAPLE	866	n/a	n/a	0	0	0
2793.0927734375	n/a	WORD	5720254	wordpools/wasnorm_wordpool_576.txt	LTP379	ltpFR2	9	13	TUNNEL	1519	n/a	n/a	0	0	0
2795.90966796875	n/a	WORD	5726023	wordpools/wasnorm_wordpool_576.txt	LTP379	ltpFR2	9	13	MATCH	878	n/a	n/a	0	0	0
2798.525390625	n/a	WORD	5731380	wordpools/wasnorm_wordpool_576.txt	LTP379	ltpFR2	9	13	CAMEL	223	n/a	n/a	0	0	0
2801.34228515625	n/a	WORD	5737149	wordpools/wasnorm_wordpool_576.txt	LTP379	ltpFR2	9	13	OINTMENT	974	n/a	n/a	0	0	0
2803.9091796875	n/a	WORD	5742406	wordpools/wasnorm_wordpool_576.txt	LTP379	ltpFR2	9	13	CANAL	226	n/a	n/a	0	0	0
2806.55908203125	n/a	WORD	5747833	wordpools/wasnorm_wordpool_576.txt	LTP379	ltpFR2	9	13	HARP	689	n/a	n/a	0	0	0
2809.1591796875	n/a	WORD	5753158	wordpools/wasnorm_wordpool_576.txt	LTP379	ltpFR2	9	13	CREVICE	405	n/a	n/a	0	0	0
2811.791015625	n/a	WORD	5758548	wordpools/wasnorm_wordpool_576.txt	LTP379	ltpFR2	9	13	LEG	809	n/a	n/a	0	0	0
2814.2578125	n/a	WORD	5763600	wordpools/wasnorm_wordpool_576.txt	LTP379	ltpFR2	9	13	CRUTCH	417	n/a	n/a	0	0	0
2816.97509765625	n/a	WORD	5769165	wordpools/wasnorm_wordpool_576.txt	LTP379	ltpFR2	9	13	COUNTY	389	n/a	n/a	0	0	0
2819.57470703125	n/a	WORD	5774489	wordpools/wasnorm_wordpool_576.txt	LTP379	ltpFR2	9	13	ASIA	46	n/a	n/a	0	0	0
2822.0078125	n/a	WORD	5779472	wordpools/wasnorm_wordpool_576.txt	LTP379	ltpFR2	9	13	HAMPER	682	n/a	n/a	0	0	0
2824.591796875	n/a	WORD	5784764	wordpools/wasnorm_wordpool_576.txt	LTP379	ltpFR2	9	13	FOREST	593	n/a	n/a	0	0	0
2827.32470703125	n/a	WORD	5790361	wordpools/wasnorm_wordpool_576.txt	LTP379	ltpFR2	9	13	SHERIFF	1284	n/a	n/a	0	0	0
2829.79052734375	n/a	WORD	5795411	wordpools/wasnorm_wordpool_576.txt	LTP379	ltpFR2	9	13	IDOL	733	n/a	n/a	0	0	0
2832.2744140625	n/a	WORD	5800498	wordpools/wasnorm_wordpool_576.txt	LTP379	ltpFR2	9	13	GARBAGE	622	n/a	n/a	0	0	0
2835.00732421875	n/a	WORD	5806095	wordpools/wasnorm_wordpool_576.txt	LTP379	ltpFR2	9	13	LIZARD	834	n/a	n/a	0	0	0
2837.4912109375	n/a	WORD	5811182	wordpools/wasnorm_wordpool_576.txt	LTP379	ltpFR2	9	13	ACTRESS	6	n/a	n/a	0	0	0
2840.20703125	n/a	WORD	5816744	wordpools/wasnorm_wordpool_576.txt	LTP379	ltpFR2	9	13	OUTFIT	988	n/a	n/a	0	0	0
2842.65625	n/a	WORD	5821760	wordpools/wasnorm_wordpool_576.txt	LTP379	ltpFR2	9	13	RECEIPT	1173	n/a	n/a	0	0	0
2845.1572265625	n/a	WORD	5826882	wordpools/wasnorm_wordpool_576.txt	LTP379	ltpFR2	9	13	JAPAN	749	n/a	n/a	0	0	0
2847.6240234375	n/a	WORD	5831934	wordpools/wasnorm_wordpool_576.txt	LTP379	ltpFR2	9	13	EUROPE	541	n/a	n/a	0	0	0
2850.423828125	n/a	WORD	5837668	wordpools/wasnorm_wordpool_576.txt	LTP379	ltpFR2	9	13	AIRPORT	13	n/a	n/a	0	0	0
2852.0400390625	n/a	START	5840978	n/a	LTP379	ltpFR2	9	n/a	n/a	n/a	21	n/a	n/a	n/a	n/a
2853.10791015625	n/a	DISTRACTOR	5843165	n/a	LTP379	ltpFR2	9	13	n/a	n/a	n/a	n/a	0	0	0
2853.1240234375	n/a	PROB	5843198	n/a	LTP379	ltpFR2	9	n/a	n/a	n/a	21	13	1	7	5
2855.82177734375	n/a	PROB	5848723	n/a	LTP379	ltpFR2	9	n/a	n/a	n/a	21	17	8	7	2
2858.1728515625	n/a	PROB	5853538	n/a	LTP379	ltpFR2	9	n/a	n/a	n/a	21	15	8	3	4
2860.12255859375	n/a	PROB	5857531	n/a	LTP379	ltpFR2	9	n/a	n/a	n/a	21	16	9	4	3
2861.8896484375	n/a	PROB	5861150	n/a	LTP379	ltpFR2	9	n/a	n/a	n/a	21	12	9	2	1
2863.9892578125	n/a	PROB	5865450	n/a	LTP379	ltpFR2	9	n/a	n/a	n/a	21	19	4	9	6
2865.90625	n/a	PROB	5869376	n/a	LTP379	ltpFR2	9	n/a	n/a	n/a	21	16	4	8	4
2867.771484375	n/a	PROB	5873196	n/a	LTP379	ltpFR2	9	n/a	n/a	n/a	21	17	4	4	9
2869.4892578125	n/a	PROB	5876714	n/a	LTP379	ltpFR2	9	n/a	n/a	n/a	21	19	5	6	8
2870.83837890625	n/a	PROB	5879477	n/a	LTP379	ltpFR2	9	n/a	n/a	n/a	21	18	6	3	9
2872.15625	n/a	PROB	5882176	n/a	LTP379	ltpFR2	9	n/a	n/a	n/a	21	4	1	2	1
2873.35595703125	n/a	PROB	5884633	n/a	LTP379	ltpFR2	9	n/a	n/a	n/a	21	15	4	2	9
2874.72509765625	n/a	STOP	5887437	n/a	LTP379	ltpFR2	9	n/a	n/a	n/a	21	n/a	n/a	n/a	n/a
2877.85498046875	n/a	REC_START	5893847	n/a	LTP379	ltpFR2	9	13	n/a	n/a	n/a	n/a	0	0	0
2881.06005859375	n/a	REC_WORD_VV	5900411	wordpools/wasnorm_wordpool_576.txt	LTP379	ltpFR2	9	13	<>	-1	n/a	n/a	0	0	0
2885.880859375	n/a	REC_WORD	5910284	wordpools/wasnorm_wordpool_576.txt	LTP379	ltpFR2	9	13	MAPLE	866	n/a	n/a	0	0	0
2886.9619140625	n/a	REC_WORD	5912498	wordpools/wasnorm_wordpool_576.txt	LTP379	ltpFR2	9	13	TUNNEL	1519	n/a	n/a	0	0	0
2888.01953125	n/a	REC_WORD	5914664	wordpools/wasnorm_wordpool_576.txt	LTP379	ltpFR2	9	13	MATCH	878	n/a	n/a	0	0	0
2889.27587890625	n/a	REC_WORD	5917237	wordpools/wasnorm_wordpool_576.txt	LTP379	ltpFR2	9	13	CAMEL	223	n/a	n/a	0	0	0
2890.86572265625	n/a	REC_WORD	5920493	wordpools/wasnorm_wordpool_576.txt	LTP379	ltpFR2	9	13	OINTMENT	974	n/a	n/a	0	0	0
2891.86474609375	n/a	REC_WORD	5922539	wordpools/wasnorm_wordpool_576.txt	LTP379	ltpFR2	9	13	CANAL	226	n/a	n/a	0	0	0
2893.064453125	n/a	REC_WORD	5924996	wordpools/wasnorm_wordpool_576.txt	LTP379	ltpFR2	9	13	HARP	689	n/a	n/a	0	0	0
2894.41943359375	n/a	REC_WORD	5927771	wordpools/wasnorm_wordpool_576.txt	LTP379	ltpFR2	9	13	CREVICE	405	n/a	n/a	0	0	0
2895.62158203125	n/a	REC_WORD	5930233	wordpools/wasnorm_wordpool_576.txt	LTP379	ltpFR2	9	13	LEG	809	n/a	n/a	0	0	0
2896.87255859375	n/a	REC_WORD	5932795	wordpools/wasnorm_wordpool_576.txt	LTP379	ltpFR2	9	13	CRUTCH	417	n/a	n/a	0	0	0
2899.7255859375	n/a	REC_WORD	5938638	wordpools/wasnorm_wordpool_576.txt	LTP379	ltpFR2	9	13	COUNTY	389	n/a	n/a	0	0	0
2900.92626953125	n/a	REC_WORD	5941097	wordpools/wasnorm_wordpool_576.txt	LTP379	ltpFR2	9	13	ASIA	46	n/a	n/a	0	0	0
2902.04345703125	n/a	REC_WORD	5943385	wordpools/wasnorm_wordpool_576.txt	LTP379	ltpFR2	9	13	HAMPER	682	n/a	n/a	0	0	0
2903.18115234375	n/a	REC_WORD	5945715	wordpools/wasnorm_wordpool_576.txt	LTP379	ltpFR2	9	13	FOREST	593	n/a	n/a	0	0	0
2904.63720703125	n/a	REC_WORD	5948697	wordpools/wasnorm_wordpool_576.txt	LTP379	ltpFR2	9	13	SHERIFF	1284	n/a	n/a	0	0	0
2905.93896484375	n/a	REC_WORD	5951363	wordpools/wasnorm_wordpool_576.txt	LTP379	ltpFR2	9	13	IDOL	733	n/a	n/a	0	0	0
2907.169921875	n/a	REC_WORD	5953884	wordpools/wasnorm_wordpool_576.txt	LTP379	ltpFR2	9	13	GARBAGE	622	n/a	n/a	0	0	0
2908.43408203125	n/a	REC_WORD	5956473	wordpools/wasnorm_wordpool_576.txt	LTP379	ltpFR2	9	13	LIZARD	834	n/a	n/a	0	0	0
2912.38916015625	n/a	REC_WORD	5964573	wordpools/wasnorm_wordpool_576.txt	LTP379	ltpFR2	9	13	ACTRESS	6	n/a	n/a	0	0	0
2915.498046875	n/a	REC_WORD	5970940	wordpools/wasnorm_wordpool_576.txt	LTP379	ltpFR2	9	13	OUTFIT	988	n/a	n/a	0	0	0
2916.65869140625	n/a	REC_WORD	5973317	wordpools/wasnorm_wordpool_576.txt	LTP379	ltpFR2	9	13	RECEIPT	1173	n/a	n/a	0	0	0
2918.33203125	n/a	REC_WORD	5976744	wordpools/wasnorm_wordpool_576.txt	LTP379	ltpFR2	9	13	JAPAN	749	n/a	n/a	0	0	0
2922.40185546875	n/a	REC_WORD	5985079	wordpools/wasnorm_wordpool_576.txt	LTP379	ltpFR2	9	13	EUROPE	541	n/a	n/a	0	0	0
2923.70654296875	n/a	REC_WORD	5987751	wordpools/wasnorm_wordpool_576.txt	LTP379	ltpFR2	9	13	AIRPORT	13	n/a	n/a	0	0	0
2968.318359375	n/a	WORD	6079116	wordpools/wasnorm_wordpool_576.txt	LTP379	ltpFR2	9	14	ICEBERG	731	n/a	n/a	0	0	0
2970.8681640625	n/a	WORD	6084338	wordpools/wasnorm_wordpool_576.txt	LTP379	ltpFR2	9	14	RECORD	1176	n/a	n/a	0	0	0
2973.40087890625	n/a	WORD	6089525	wordpools/wasnorm_wordpool_576.txt	LTP379	ltpFR2	9	14	TRANSPLANT	1496	n/a	n/a	0	0	0
2975.8681640625	n/a	WORD	6094578	wordpools/wasnorm_wordpool_576.txt	LTP379	ltpFR2	9	14	ROBBER	1197	n/a	n/a	0	0	0
