onset	duration	trial_type	sample	stim_file	subject	experiment	session	trial	task	item_name	item_num	recog_conf	resp	color_b	color_g	color_r	case	font
244.774	n/a	SESS_START	122387	n/a	LTP198	ltpFR	17	n/a	n/a	n/a	n/a	1	n/a	n/a	n/a	n/a	n/a	n/a
358.778	n/a	WORD	179389	wordpools/wasnorm_wordpool_less_exclusions.txt	LTP198	ltpFR	17	1	0	PUBLISHER	1137	n/a	1	0	0.5869140625	0.422607421875	upper	../fonts/zerothre.ttf
362.922	n/a	WORD	181461	wordpools/wasnorm_wordpool_less_exclusions.txt	LTP198	ltpFR	17	1	0	STREAM	1392	n/a	0	0	0.5869140625	0.422607421875	upper	../fonts/zerothre.ttf
367.148	n/a	WORD	183574	wordpools/wasnorm_wordpool_less_exclusions.txt	LTP198	ltpFR	17	1	1	FREEZER	604	n/a	0	1	0.412841796875	0.57763671875	lower	../fonts/amplitud.ttf
371.358	n/a	WORD	185679	wordpools/wasnorm_wordpool_less_exclusions.txt	LTP198	ltpFR	17	1	1	NOSE	957	n/a	1	1	0.412841796875	0.57763671875	lower	../fonts/amplitud.ttf
375.552	n/a	WORD	187776	wordpools/wasnorm_wordpool_less_exclusions.txt	LTP198	ltpFR	17	1	1	SCARECROW	1245	n/a	0	1	0.412841796875	0.57763671875	lower	../fonts/amplitud.ttf
379.614	n/a	WORD	189807	wordpools/wasnorm_wordpool_less_exclusions.txt	LTP198	ltpFR	17	1	1	TUBA	1515	n/a	0	1	0.412841796875	0.57763671875	lower	../fonts/amplitud.ttf
383.792	n/a	WORD	191896	wordpools/wasnorm_wordpool_less_exclusions.txt	LTP198	ltpFR	17	1	1	TOOTH	1481	n/a	0	1	0.412841796875	0.57763671875	lower	../fonts/amplitud.ttf
387.82	n/a	WORD	193910	wordpools/wasnorm_wordpool_less_exclusions.txt	LTP198	ltpFR	17	1	0	BIRD	129	n/a	0	0	0.5869140625	0.422607421875	upper	../fonts/zerothre.ttf
391.646	n/a	WORD	195823	wordpools/wasnorm_wordpool_less_exclusions.txt	LTP198	ltpFR	17	1	0	SPHINX	1349	n/a	0	0	0.5869140625	0.422607421875	upper	../fonts/zerothre.ttf
395.724	n/a	WORD	197862	wordpools/wasnorm_wordpool_less_exclusions.txt	LTP198	ltpFR	17	1	0	PAW	1029	n/a	0	0	0.5869140625	0.422607421875	upper	../fonts/zerothre.ttf
399.702	n/a	WORD	199851	wordpools/wasnorm_wordpool_less_exclusions.txt	LTP198	ltpFR	17	1	0	CAT	257	n/a	1	0	0.5869140625	0.422607421875	upper	../fonts/zerothre.ttf
403.846	n/a	WORD	201923	wordpools/wasnorm_wordpool_less_exclusions.txt	LTP198	ltpFR	17	1	0	BINDER	127	n/a	1	0	0.5869140625	0.422607421875	upper	../fonts/zerothre.ttf
407.756	n/a	WORD	203878	wordpools/wasnorm_wordpool_less_exclusions.txt	LTP198	ltpFR	17	1	0	CELLO	268	n/a	1	0	0.5869140625	0.422607421875	upper	../fonts/zerothre.ttf
411.666	n/a	WORD	205833	wordpools/wasnorm_wordpool_less_exclusions.txt	LTP198	ltpFR	17	1	1	OCEAN	970	n/a	1	1	0.412841796875	0.57763671875	lower	../fonts/amplitud.ttf
415.526	n/a	WORD	207763	wordpools/wasnorm_wordpool_less_exclusions.txt	LTP198	ltpFR	17	1	1	HEADBAND	696	n/a	0	1	0.412841796875	0.57763671875	lower	../fonts/amplitud.ttf
419.438	n/a	WORD	209719	wordpools/wasnorm_wordpool_less_exclusions.txt	LTP198	ltpFR	17	1	1	BANDANNA	80	n/a	0	1	0.412841796875	0.57763671875	lower	../fonts/amplitud.ttf
425.28	n/a	REC_START	212640	n/a	LTP198	ltpFR	17	1	n/a	n/a	n/a	n/a	n/a	n/a	n/a	n/a	n/a	n/a
425.848	n/a	REC_WORD	212924	wordpools/wasnorm_wordpool_less_exclusions.txt	LTP198	ltpFR	17	1	1	BANDANNA	80	n/a	0	n/a	n/a	n/a	n/a	n/a
426.736	n/a	REC_WORD	213368	wordpools/wasnorm_wordpool_less_exclusions.txt	LTP198	ltpFR	17	1	1	HEADBAND	696	n/a	0	n/a	n/a	n/a	n/a	n/a
427.754	n/a	REC_WORD	213877	wordpools/wasnorm_wordpool_less_exclusions.txt	LTP198	ltpFR	17	1	0	BIRD	129	n/a	0	n/a	n/a	n/a	n/a	n/a
428.302	n/a	REC_WORD	214151	wordpools/wasnorm_wordpool_less_exclusions.txt	LTP198	ltpFR	17	1	1	SCARECROW	1245	n/a	0	n/a	n/a	n/a	n/a	n/a
429.342	n/a	REC_WORD	214671	wordpools/wasnorm_wordpool_less_exclusions.txt	LTP198	ltpFR	17	1	1	TUBA	1515	n/a	0	n/a	n/a	n/a	n/a	n/a
430.204	n/a	REC_WORD	215102	wordpools/wasnorm_wordpool_less_exclusions.txt	LTP198	ltpFR	17	1	1	TOOTH	1481	n/a	0	n/a	n/a	n/a	n/a	n/a
431.038	n/a	REC_WORD	215519	wordpools/wasnorm_wordpool_less_exclusions.txt	LTP198	ltpFR	17	1	1	NOSE	957	n/a	1	n/a	n/a	n/a	n/a	n/a
431.83	n/a	REC_WORD	215915	wordpools/wasnorm_wordpool_less_exclusions.txt	LTP198	ltpFR	17	1	0	PUBLISHER	1137	n/a	1	n/a	n/a	n/a	n/a	n/a
432.548	n/a	REC_WORD	216274	wordpools/wasnorm_wordpool_less_exclusions.txt	LTP198	ltpFR	17	1	0	STREAM	1392	n/a	0	n/a	n/a	n/a	n/a	n/a
433.472	n/a	REC_WORD	216736	wordpools/wasnorm_wordpool_less_exclusions.txt	LTP198	ltpFR	17	1	1	OCEAN	970	n/a	1	n/a	n/a	n/a	n/a	n/a
434.174	n/a	REC_WORD	217087	wordpools/wasnorm_wordpool_less_exclusions.txt	LTP198	ltpFR	17	1	1	FREEZER	604	n/a	0	n/a	n/a	n/a	n/a	n/a
435.646	n/a	REC_WORD	217823	wordpools/wasnorm_wordpool_less_exclusions.txt	LTP198	ltpFR	17	1	0	SPHINX	1349	n/a	0	n/a	n/a	n/a	n/a	n/a
436.53	n/a	REC_WORD	218265	wordpools/wasnorm_wordpool_less_exclusions.txt	LTP198	ltpFR	17	1	0	PAW	1029	n/a	0	n/a	n/a	n/a	n/a	n/a
437.168	n/a	REC_WORD	218584	wordpools/wasnorm_wordpool_less_exclusions.txt	LTP198	ltpFR	17	1	0	CAT	257	n/a	1	n/a	n/a	n/a	n/a	n/a
469.536	n/a	REC_WORD	234768	wordpools/wasnorm_wordpool_less_exclusions.txt	LTP198	ltpFR	17	1	0	BINDER	127	n/a	1	n/a	n/a	n/a	n/a	n/a
551.342	n/a	WORD	275671	wordpools/wasnorm_wordpool_less_exclusions.txt	LTP198	ltpFR	17	2	1	POSSUM	1112	n/a	1	1	0.412841796875	0.57763671875	lower	../fonts/amplitud.ttf
555.336	n/a	WORD	277668	wordpools/wasnorm_wordpool_less_exclusions.txt	LTP198	ltpFR	17	2	1	LILY	821	n/a	0	1	0.412841796875	0.57763671875	lower	../fonts/amplitud.ttf
559.248	n/a	WORD	279624	wordpools/wasnorm_wordpool_less_exclusions.txt	LTP198	ltpFR	17	2	1	CLAMP	316	n/a	0	1	0.412841796875	0.57763671875	lower	../fonts/amplitud.ttf
563.192	n/a	WORD	281596	wordpools/wasnorm_wordpool_less_exclusions.txt	LTP198	ltpFR	17	2	0	HORIZON	717	n/a	0	0	0.5869140625	0.422607421875	upper	../fonts/zerothre.ttf
567.136	n/a	WORD	283568	wordpools/wasnorm_wordpool_less_exclusions.txt	LTP198	ltpFR	17	2	0	TRIBE	1505	n/a	1	0	0.5869140625	0.422607421875	upper	../fonts/zerothre.ttf
571.248	n/a	WORD	285624	wordpools/wasnorm_wordpool_less_exclusions.txt	LTP198	ltpFR	17	2	0	SCRIBBLE	1256	n/a	0	0	0.5869140625	0.422607421875	upper	../fonts/zerothre.ttf
575.124	n/a	WORD	287562	wordpools/wasnorm_wordpool_less_exclusions.txt	LTP198	ltpFR	17	2	0	PLATE	1086	n/a	0	0	0.5869140625	0.422607421875	upper	../fonts/zerothre.ttf
578.986	n/a	WORD	289493	wordpools/wasnorm_wordpool_less_exclusions.txt	LTP198	ltpFR	17	2	0	TURKEY	1520	n/a	0	0	0.5869140625	0.422607421875	upper	../fonts/zerothre.ttf
582.814	n/a	WORD	291407	wordpools/wasnorm_wordpool_less_exclusions.txt	LTP198	ltpFR	17	2	1	BUCKLE	185	n/a	0	1	0.412841796875	0.57763671875	lower	../fonts/amplitud.ttf
586.992	n/a	WORD	293496	wordpools/wasnorm_wordpool_less_exclusions.txt	LTP198	ltpFR	17	2	1	ROSE	1212	n/a	1	1	0.412841796875	0.57763671875	lower	../fonts/amplitud.ttf
590.836	n/a	WORD	295418	wordpools/wasnorm_wordpool_less_exclusions.txt	LTP198	ltpFR	17	2	0	SNOB	1335	n/a	0	0	0.5869140625	0.422607421875	upper	../fonts/zerothre.ttf
594.996	n/a	WORD	297498	wordpools/wasnorm_wordpool_less_exclusions.txt	LTP198	ltpFR	17	2	0	SADDLE	1221	n/a	1	0	0.5869140625	0.422607421875	upper	../fonts/zerothre.ttf
598.856	n/a	WORD	299428	wordpools/wasnorm_wordpool_less_exclusions.txt	LTP198	ltpFR	17	2	0	OX	994	n/a	1	0	0.5869140625	0.422607421875	upper	../fonts/zerothre.ttf
602.918	n/a	WORD	301459	wordpools/wasnorm_wordpool_less_exclusions.txt	LTP198	ltpFR	17	2	1	NOTEBOOK	959	n/a	0	1	0.412841796875	0.57763671875	lower	../fonts/amplitud.ttf
606.978	n/a	WORD	303489	wordpools/wasnorm_wordpool_less_exclusions.txt	LTP198	ltpFR	17	2	1	PAWN	1030	n/a	0	1	0.412841796875	0.57763671875	lower	../fonts/amplitud.ttf
610.906	n/a	WORD	305453	wordpools/wasnorm_wordpool_less_exclusions.txt	LTP198	ltpFR	17	2	1	MARKET	871	n/a	1	1	0.412841796875	0.57763671875	lower	../fonts/amplitud.ttf
616.596	n/a	REC_START	308298	n/a	LTP198	ltpFR	17	2	n/a	n/a	n/a	n/a	n/a	n/a	n/a	n/a	n/a	n/a
617.224	n/a	REC_WORD	308612	wordpools/wasnorm_wordpool_less_exclusions.txt	LTP198	ltpFR	17	2	1	PAWN	1030	n/a	0	n/a	n/a	n/a	n/a	n/a
618.038	n/a	REC_WORD	309019	wordpools/wasnorm_wordpool_less_exclusions.txt	LTP198	ltpFR	17	2	1	MARKET	871	n/a	1	n/a	n/a	n/a	n/a	n/a
619.834	n/a	REC_WORD	309917	wordpools/wasnorm_wordpool_less_exclusions.txt	LTP198	ltpFR	17	2	0	TRIBE	1505	n/a	1	n/a	n/a	n/a	n/a	n/a
620.852	n/a	REC_WORD	310426	wordpools/wasnorm_wordpool_less_exclusions.txt	LTP198	ltpFR	17	2	1	POSSUM	1112	n/a	1	n/a	n/a	n/a	n/a	n/a
621.794	n/a	REC_WORD	310897	wordpools/wasnorm_wordpool_less_exclusions.txt	LTP198	ltpFR	17	2	1	CLAMP	316	n/a	0	n/a	n/a	n/a	n/a	n/a
622.722	n/a	REC_WORD	311361	wordpools/wasnorm_wordpool_less_exclusions.txt	LTP198	ltpFR	17	2	1	LILY	821	n/a	0	n/a	n/a	n/a	n/a	n/a
623.646	n/a	REC_WORD	311823	wordpools/wasnorm_wordpool_less_exclusions.txt	LTP198	ltpFR	17	2	1	ROSE	1212	n/a	1	n/a	n/a	n/a	n/a	n/a
624.942	n/a	REC_WORD	312471	wordpools/wasnorm_wordpool_less_exclusions.txt	LTP198	ltpFR	17	2	0	SCRIBBLE	1256	n/a	0	n/a	n/a	n/a	n/a	n/a
625.96	n/a	REC_WORD	312980	wordpools/wasnorm_wordpool_less_exclusions.txt	LTP198	ltpFR	17	2	1	NOTEBOOK	959	n/a	0	n/a	n/a	n/a	n/a	n/a
627.846	n/a	REC_WORD	313923	wordpools/wasnorm_wordpool_less_exclusions.txt	LTP198	ltpFR	17	2	0	SNOB	1335	n/a	0	n/a	n/a	n/a	n/a	n/a
629.172	n/a	REC_WORD	314586	wordpools/wasnorm_wordpool_less_exclusions.txt	LTP198	ltpFR	17	2	n/a	BELT	120	n/a	n/a	n/a	n/a	n/a	n/a	n/a
629.916	n/a	REC_WORD	314958	wordpools/wasnorm_wordpool_less_exclusions.txt	LTP198	ltpFR	17	2	0	SADDLE	1221	n/a	1	n/a	n/a	n/a	n/a	n/a
630.968	n/a	REC_WORD	315484	wordpools/wasnorm_wordpool_less_exclusions.txt	LTP198	ltpFR	17	2	0	OX	994	n/a	1	n/a	n/a	n/a	n/a	n/a
686.18	n/a	REC_WORD	343090	wordpools/wasnorm_wordpool_less_exclusions.txt	LTP198	ltpFR	17	2	0	TURKEY	1520	n/a	0	n/a	n/a	n/a	n/a	n/a
702.336	n/a	WORD	351168	wordpools/wasnorm_wordpool_less_exclusions.txt	LTP198	ltpFR	17	3	1	ICING	732	n/a	0	1	0.412841796875	0.57763671875	lower	../fonts/amplitud.ttf
706.43	n/a	WORD	353215	wordpools/wasnorm_wordpool_less_exclusions.txt	LTP198	ltpFR	17	3	1	TROUT	1511	n/a	0	1	0.412841796875	0.57763671875	lower	../fonts/amplitud.ttf
710.59	n/a	WORD	355295	wordpools/wasnorm_wordpool_less_exclusions.txt	LTP198	ltpFR	17	3	1	UNCLE	1536	n/a	1	1	0.412841796875	0.57763671875	lower	../fonts/amplitud.ttf
714.802	n/a	WORD	357401	wordpools/wasnorm_wordpool_less_exclusions.txt	LTP198	ltpFR	17	3	1	NOTE	958	n/a	0	1	0.412841796875	0.57763671875	lower	../fonts/amplitud.ttf
719.012	n/a	WORD	359506	wordpools/wasnorm_wordpool_less_exclusions.txt	LTP198	ltpFR	17	3	0	ERASER	538	n/a	1	0	0.5869140625	0.422607421875	upper	../fonts/zerothre.ttf
723.224	n/a	WORD	361612	wordpools/wasnorm_wordpool_less_exclusions.txt	LTP198	ltpFR	17	3	0	BLACKBOARD	133	n/a	1	0	0.5869140625	0.422607421875	upper	../fonts/zerothre.ttf
727.35	n/a	WORD	363675	wordpools/wasnorm_wordpool_less_exclusions.txt	LTP198	ltpFR	17	3	0	ELECTRICIAN	521	n/a	1	0	0.5869140625	0.422607421875	upper	../fonts/zerothre.ttf
731.244	n/a	WORD	365622	wordpools/wasnorm_wordpool_less_exclusions.txt	LTP198	ltpFR	17	3	0	LAMP	798	n/a	1	0	0.5869140625	0.422607421875	upper	../fonts/zerothre.ttf
735.172	n/a	WORD	367586	wordpools/wasnorm_wordpool_less_exclusions.txt	LTP198	ltpFR	17	3	0	WHIP	1604	n/a	1	0	0.5869140625	0.422607421875	upper	../fonts/zerothre.ttf
739.332	n/a	WORD	369666	wordpools/wasnorm_wordpool_less_exclusions.txt	LTP198	ltpFR	17	3	1	MOVIE	927	n/a	0	1	0.412841796875	0.57763671875	lower	../fonts/amplitud.ttf
743.392	n/a	WORD	371696	wordpools/wasnorm_wordpool_less_exclusions.txt	LTP198	ltpFR	17	3	1	SALMON	1227	n/a	1	1	0.412841796875	0.57763671875	lower	../fonts/amplitud.ttf
747.586	n/a	WORD	373793	wordpools/wasnorm_wordpool_less_exclusions.txt	LTP198	ltpFR	17	3	1	OBOE	969	n/a	1	1	0.412841796875	0.57763671875	lower	../fonts/amplitud.ttf
751.714	n/a	WORD	375857	wordpools/wasnorm_wordpool_less_exclusions.txt	LTP198	ltpFR	17	3	1	WHEAT	1602	n/a	0	1	0.412841796875	0.57763671875	lower	../fonts/amplitud.ttf
755.724	n/a	WORD	377862	wordpools/wasnorm_wordpool_less_exclusions.txt	LTP198	ltpFR	17	3	0	FIREPLACE	570	n/a	1	0	0.5869140625	0.422607421875	upper	../fonts/zerothre.ttf
759.65	n/a	WORD	379825	wordpools/wasnorm_wordpool_less_exclusions.txt	LTP198	ltpFR	17	3	0	WORM	1623	n/a	0	0	0.5869140625	0.422607421875	upper	../fonts/zerothre.ttf
763.846	n/a	WORD	381923	wordpools/wasnorm_wordpool_less_exclusions.txt	LTP198	ltpFR	17	3	0	PIT	1077	n/a	1	0	0.5869140625	0.422607421875	upper	../fonts/zerothre.ttf
769.654	n/a	REC_START	384827	n/a	LTP198	ltpFR	17	3	n/a	n/a	n/a	n/a	n/a	n/a	n/a	n/a	n/a	n/a
770.526	n/a	REC_WORD	385263	wordpools/wasnorm_wordpool_less_exclusions.txt	LTP198	ltpFR	17	3	0	PIT	1077	n/a	1	n/a	n/a	n/a	n/a	n/a
771.4	n/a	REC_WORD	385700	wordpools/wasnorm_wordpool_less_exclusions.txt	LTP198	ltpFR	17	3	1	UNCLE	1536	n/a	1	n/a	n/a	n/a	n/a	n/a
772.042	n/a	REC_WORD	386021	wordpools/wasnorm_wordpool_less_exclusions.txt	LTP198	ltpFR	17	3	0	ELECTRICIAN	521	n/a	1	n/a	n/a	n/a	n/a	n/a
773.2	n/a	REC_WORD	386600	wordpools/wasnorm_wordpool_less_exclusions.txt	LTP198	ltpFR	17	3	1	TROUT	1511	n/a	0	n/a	n/a	n/a	n/a	n/a
773.968	n/a	REC_WORD	386984	wordpools/wasnorm_wordpool_less_exclusions.txt	LTP198	ltpFR	17	3	1	SALMON	1227	n/a	1	n/a	n/a	n/a	n/a	n/a
774.902	n/a	REC_WORD	387451	wordpools/wasnorm_wordpool_less_exclusions.txt	LTP198	ltpFR	17	3	0	WORM	1623	n/a	0	n/a	n/a	n/a	n/a	n/a
776.294	n/a	REC_WORD	388147	wordpools/wasnorm_wordpool_less_exclusions.txt	LTP198	ltpFR	17	3	1	NOTE	958	n/a	0	n/a	n/a	n/a	n/a	n/a
777.266	n/a	REC_WORD	388633	wordpools/wasnorm_wordpool_less_exclusions.txt	LTP198	ltpFR	17	3	0	BLACKBOARD	133	n/a	1	n/a	n/a	n/a	n/a	n/a
778.06	n/a	REC_WORD	389030	wordpools/wasnorm_wordpool_less_exclusions.txt	LTP198	ltpFR	17	3	0	ERASER	538	n/a	1	n/a	n/a	n/a	n/a	n/a
778.928	n/a	REC_WORD	389464	wordpools/wasnorm_wordpool_less_exclusions.txt	LTP198	ltpFR	17	3	1	MOVIE	927	n/a	0	n/a	n/a	n/a	n/a	n/a
779.78	n/a	REC_WORD	389890	wordpools/wasnorm_wordpool_less_exclusions.txt	LTP198	ltpFR	17	3	0	LAMP	798	n/a	1	n/a	n/a	n/a	n/a	n/a
780.788	n/a	REC_WORD	390394	wordpools/wasnorm_wordpool_less_exclusions.txt	LTP198	ltpFR	17	3	1	WHEAT	1602	n/a	0	n/a	n/a	n/a	n/a	n/a
781.616	n/a	REC_WORD	390808	wordpools/wasnorm_wordpool_less_exclusions.txt	LTP198	ltpFR	17	3	0	FIREPLACE	570	n/a	1	n/a	n/a	n/a	n/a	n/a
783.896	n/a	REC_WORD	391948	wordpools/wasnorm_wordpool_less_exclusions.txt	LTP198	ltpFR	17	3	1	OBOE	969	n/a	1	n/a	n/a	n/a	n/a	n/a
859.722	n/a	WORD	429861	wordpools/wasnorm_wordpool_less_exclusions.txt	LTP198	ltpFR	17	4	0	BUREAU	199	n/a	1	0	0.5869140625	0.422607421875	upper	../fonts/zerothre.ttf
863.582	n/a	WORD	431791	wordpools/wasnorm_wordpool_less_exclusions.txt	LTP198	ltpFR	17	4	0	SENATOR	1268	n/a	1	0	0.5869140625	0.422607421875	upper	../fonts/zerothre.ttf
867.408	n/a	WORD	433704	wordpools/wasnorm_wordpool_less_exclusions.txt	LTP198	ltpFR	17	4	1	FRIEND	606	n/a	0	1	0.412841796875	0.57763671875	lower	../fonts/amplitud.ttf
871.254	n/a	WORD	435627	wordpools/wasnorm_wordpool_less_exclusions.txt	LTP198	ltpFR	17	4	1	SIBLING	1301	n/a	1	1	0.412841796875	0.57763671875	lower	../fonts/amplitud.ttf
875.396	n/a	WORD	437698	wordpools/wasnorm_wordpool_less_exclusions.txt	LTP198	ltpFR	17	4	1	SCREW	1254	n/a	1	1	0.412841796875	0.57763671875	lower	../fonts/amplitud.ttf
879.574	n/a	WORD	439787	wordpools/wasnorm_wordpool_less_exclusions.txt	LTP198	ltpFR	17	4	0	NAIL	936	n/a	0	0	0.5869140625	0.422607421875	upper	../fonts/zerothre.ttf
883.702	n/a	WORD	441851	wordpools/wasnorm_wordpool_less_exclusions.txt	LTP198	ltpFR	17	4	0	CREW	406	n/a	1	0	0.5869140625	0.422607421875	upper	../fonts/zerothre.ttf
887.812	n/a	WORD	443906	wordpools/wasnorm_wordpool_less_exclusions.txt	LTP198	ltpFR	17	4	0	ASHTRAY	45	n/a	0	0	0.5869140625	0.422607421875	upper	../fonts/zerothre.ttf
891.672	n/a	WORD	445836	wordpools/wasnorm_wordpool_less_exclusions.txt	LTP198	ltpFR	17	4	0	WINE	1613	n/a	1	0	0.5869140625	0.422607421875	upper	../fonts/zerothre.ttf
895.718	n/a	WORD	447859	wordpools/wasnorm_wordpool_less_exclusions.txt	LTP198	ltpFR	17	4	0	TRICYCLE	1506	n/a	0	0	0.5869140625	0.422607421875	upper	../fonts/zerothre.ttf
899.628	n/a	WORD	449814	wordpools/wasnorm_wordpool_less_exclusions.txt	LTP198	ltpFR	17	4	0	HOSTESS	723	n/a	1	0	0.5869140625	0.422607421875	upper	../fonts/zerothre.ttf
903.688	n/a	WORD	451844	wordpools/wasnorm_wordpool_less_exclusions.txt	LTP198	ltpFR	17	4	1	BALLERINA	74	n/a	1	1	0.412841796875	0.57763671875	lower	../fonts/amplitud.ttf
907.9	n/a	WORD	453950	wordpools/wasnorm_wordpool_less_exclusions.txt	LTP198	ltpFR	17	4	1	OAR	966	n/a	0	1	0.412841796875	0.57763671875	lower	../fonts/amplitud.ttf
911.876	n/a	WORD	455938	wordpools/wasnorm_wordpool_less_exclusions.txt	LTP198	ltpFR	17	4	1	LUNCH	849	n/a	1	1	0.412841796875	0.57763671875	lower	../fonts/amplitud.ttf
915.72	n/a	WORD	457860	wordpools/wasnorm_wordpool_less_exclusions.txt	LTP198	ltpFR	17	4	1	CHOCOLATE	306	n/a	0	1	0.412841796875	0.57763671875	lower	../fonts/amplitud.ttf
919.798	n/a	WORD	459899	wordpools/wasnorm_wordpool_less_exclusions.txt	LTP198	ltpFR	17	4	1	PLAYGROUND	1087	n/a	1	1	0.412841796875	0.57763671875	lower	../fonts/amplitud.ttf
925.656	n/a	REC_START	462828	n/a	LTP198	ltpFR	17	4	n/a	n/a	n/a	n/a	n/a	n/a	n/a	n/a	n/a	n/a
926.434	n/a	REC_WORD	463217	wordpools/wasnorm_wordpool_less_exclusions.txt	LTP198	ltpFR	17	4	1	PLAYGROUND	1087	n/a	1	n/a	n/a	n/a	n/a	n/a
927.178	n/a	REC_WORD	463589	wordpools/wasnorm_wordpool_less_exclusions.txt	LTP198	ltpFR	17	4	1	SIBLING	1301	n/a	1	n/a	n/a	n/a	n/a	n/a
927.95	n/a	REC_WORD	463975	wordpools/wasnorm_wordpool_less_exclusions.txt	LTP198	ltpFR	17	4	1	FRIEND	606	n/a	0	n/a	n/a	n/a	n/a	n/a
928.644	n/a	REC_WORD	464322	wordpools/wasnorm_wordpool_less_exclusions.txt	LTP198	ltpFR	17	4	0	SENATOR	1268	n/a	1	n/a	n/a	n/a	n/a	n/a
929.622	n/a	REC_WORD	464811	wordpools/wasnorm_wordpool_less_exclusions.txt	LTP198	ltpFR	17	4	0	BUREAU	199	n/a	1	n/a	n/a	n/a	n/a	n/a
931.698	n/a	REC_WORD	465849	wordpools/wasnorm_wordpool_less_exclusions.txt	LTP198	ltpFR	17	4	0	NAIL	936	n/a	0	n/a	n/a	n/a	n/a	n/a
932.416	n/a	REC_WORD	466208	wordpools/wasnorm_wordpool_less_exclusions.txt	LTP198	ltpFR	17	4	1	SCREW	1254	n/a	1	n/a	n/a	n/a	n/a	n/a
933.474	n/a	REC_WORD	466737	wordpools/wasnorm_wordpool_less_exclusions.txt	LTP198	ltpFR	17	4	0	WINE	1613	n/a	1	n/a	n/a	n/a	n/a	n/a
934.362	n/a	REC_WORD	467181	wordpools/wasnorm_wordpool_less_exclusions.txt	LTP198	ltpFR	17	4	1	CHOCOLATE	306	n/a	0	n/a	n/a	n/a	n/a	n/a
935.34	n/a	REC_WORD	467670	wordpools/wasnorm_wordpool_less_exclusions.txt	LTP198	ltpFR	17	4	0	CREW	406	n/a	1	n/a	n/a	n/a	n/a	n/a
936.208	n/a	REC_WORD	468104	wordpools/wasnorm_wordpool_less_exclusions.txt	LTP198	ltpFR	17	4	1	LUNCH	849	n/a	1	n/a	n/a	n/a	n/a	n/a
937.294	n/a	REC_WORD	468647	wordpools/wasnorm_wordpool_less_exclusions.txt	LTP198	ltpFR	17	4	0	TRICYCLE	1506	n/a	0	n/a	n/a	n/a	n/a	n/a
938.422	n/a	REC_WORD	469211	wordpools/wasnorm_wordpool_less_exclusions.txt	LTP198	ltpFR	17	4	1	PLAYGROUND	1087	n/a	1	n/a	n/a	n/a	n/a	n/a
939.372	n/a	REC_WORD	469686	wordpools/wasnorm_wordpool_less_exclusions.txt	LTP198	ltpFR	17	4	0	HOSTESS	723	n/a	1	n/a	n/a	n/a	n/a	n/a
941.19	n/a	REC_WORD	470595	wordpools/wasnorm_wordpool_less_exclusions.txt	LTP198	ltpFR	17	4	1	BALLERINA	74	n/a	1	n/a	n/a	n/a	n/a	n/a
998.556	n/a	REC_WORD	499278	wordpools/wasnorm_wordpool_less_exclusions.txt	LTP198	ltpFR	17	4	0	WHIP	1604	n/a	1	n/a	n/a	n/a	n/a	n/a
1004.14	n/a	WORD	502070	wordpools/wasnorm_wordpool_less_exclusions.txt	LTP198	ltpFR	17	5	0	SILK	1307	n/a	0	0	0.5869140625	0.422607421875	upper	../fonts/zerothre.ttf
1007.968	n/a	WORD	503984	wordpools/wasnorm_wordpool_less_exclusions.txt	LTP198	ltpFR	17	5	0	BALL	73	n/a	1	0	0.5869140625	0.422607421875	upper	../fonts/zerothre.ttf
1012.062	n/a	WORD	506031	wordpools/wasnorm_wordpool_less_exclusions.txt	LTP198	ltpFR	17	5	0	SEAFOOD	1260	n/a	1	0	0.5869140625	0.422607421875	upper	../fonts/zerothre.ttf
1016.24	n/a	WORD	508120	wordpools/wasnorm_wordpool_less_exclusions.txt	LTP198	ltpFR	17	5	0	DANDRUFF	439	n/a	0	0	0.5869140625	0.422607421875	upper	../fonts/zerothre.ttf
1020.334	n/a	WORD	510167	wordpools/wasnorm_wordpool_less_exclusions.txt	LTP198	ltpFR	17	5	0	CONCRETE	361	n/a	1	0	0.5869140625	0.422607421875	upper	../fonts/zerothre.ttf
1024.526	n/a	WORD	512263	wordpools/wasnorm_wordpool_less_exclusions.txt	LTP198	ltpFR	17	5	0	LASH	802	n/a	1	0	0.5869140625	0.422607421875	upper	../fonts/zerothre.ttf
1028.636	n/a	WORD	514318	wordpools/wasnorm_wordpool_less_exclusions.txt	LTP198	ltpFR	17	5	0	PARSLEY	1016	n/a	0	0	0.5869140625	0.422607421875	upper	../fonts/zerothre.ttf
1032.598	n/a	WORD	516299	wordpools/wasnorm_wordpool_less_exclusions.txt	LTP198	ltpFR	17	5	0	STEW	1380	n/a	0	0	0.5869140625	0.422607421875	upper	../fonts/zerothre.ttf
1036.708	n/a	WORD	518354	wordpools/wasnorm_wordpool_less_exclusions.txt	LTP198	ltpFR	17	5	0	SPY	1360	n/a	1	0	0.5869140625	0.422607421875	upper	../fonts/zerothre.ttf
1040.568	n/a	WORD	520284	wordpools/wasnorm_wordpool_less_exclusions.txt	LTP198	ltpFR	17	5	0	BARRACUDA	90	n/a	1	0	0.5869140625	0.422607421875	upper	../fonts/zerothre.ttf
1044.764	n/a	WORD	522382	wordpools/wasnorm_wordpool_less_exclusions.txt	LTP198	ltpFR	17	5	0	PARCEL	1012	n/a	0	0	0.5869140625	0.422607421875	upper	../fonts/zerothre.ttf
1048.724	n/a	WORD	524362	wordpools/wasnorm_wordpool_less_exclusions.txt	LTP198	ltpFR	17	5	0	CUE	422	n/a	1	0	0.5869140625	0.422607421875	upper	../fonts/zerothre.ttf
1052.934	n/a	WORD	526467	wordpools/wasnorm_wordpool_less_exclusions.txt	LTP198	ltpFR	17	5	0	PUMPKIN	1142	n/a	1	0	0.5869140625	0.422607421875	upper	../fonts/zerothre.ttf
1057.078	n/a	WORD	528539	wordpools/wasnorm_wordpool_less_exclusions.txt	LTP198	ltpFR	17	5	0	SHORTCAKE	1292	n/a	0	0	0.5869140625	0.422607421875	upper	../fonts/zerothre.ttf
1060.906	n/a	WORD	530453	wordpools/wasnorm_wordpool_less_exclusions.txt	LTP198	ltpFR	17	5	0	TECHNICIAN	1443	n/a	1	0	0.5869140625	0.422607421875	upper	../fonts/zerothre.ttf
1065.018	n/a	WORD	532509	wordpools/wasnorm_wordpool_less_exclusions.txt	LTP198	ltpFR	17	5	0	MACHINE	852	n/a	1	0	0.5869140625	0.422607421875	upper	../fonts/zerothre.ttf
1070.658	n/a	REC_START	535329	n/a	LTP198	ltpFR	17	5	n/a	n/a	n/a	n/a	n/a	n/a	n/a	n/a	n/a	n/a
1071.042	n/a	REC_WORD	535521	wordpools/wasnorm_wordpool_less_exclusions.txt	LTP198	ltpFR	17	5	0	MACHINE	852	n/a	1	n/a	n/a	n/a	n/a	n/a
1071.83	n/a	REC_WORD	535915	wordpools/wasnorm_wordpool_less_exclusions.txt	LTP198	ltpFR	17	5	0	TECHNICIAN	1443	n/a	1	n/a	n/a	n/a	n/a	n/a
1072.868	n/a	REC_WORD	536434	wordpools/wasnorm_wordpool_less_exclusions.txt	LTP198	ltpFR	17	5	0	PUMPKIN	1142	n/a	1	n/a	n/a	n/a	n/a	n/a
1075.882	n/a	REC_WORD	537941	wordpools/wasnorm_wordpool_less_exclusions.txt	LTP198	ltpFR	17	5	0	SHORTCAKE	1292	n/a	0	n/a	n/a	n/a	n/a	n/a
1076.934	n/a	REC_WORD	538467	wordpools/wasnorm_wordpool_less_exclusions.txt	LTP198	ltpFR	17	5	0	CUE	422	n/a	1	n/a	n/a	n/a	n/a	n/a
1078.346	n/a	REC_WORD	539173	wordpools/wasnorm_wordpool_less_exclusions.txt	LTP198	ltpFR	17	5	0	SPY	1360	n/a	1	n/a	n/a	n/a	n/a	n/a
1079.702	n/a	REC_WORD	539851	wordpools/wasnorm_wordpool_less_exclusions.txt	LTP198	ltpFR	17	5	0	PARCEL	1012	n/a	0	n/a	n/a	n/a	n/a	n/a
1081.414	n/a	REC_WORD	540707	wordpools/wasnorm_wordpool_less_exclusions.txt	LTP198	ltpFR	17	5	0	MACHINE	852	n/a	1	n/a	n/a	n/a	n/a	n/a
1084.726	n/a	REC_WORD	542363	wordpools/wasnorm_wordpool_less_exclusions.txt	LTP198	ltpFR	17	5	0	SEAFOOD	1260	n/a	1	n/a	n/a	n/a	n/a	n/a
1085.47	n/a	REC_WORD	542735	wordpools/wasnorm_wordpool_less_exclusions.txt	LTP198	ltpFR	17	5	0	PARSLEY	1016	n/a	0	n/a	n/a	n/a	n/a	n/a
1086.044	n/a	REC_WORD	543022	wordpools/wasnorm_wordpool_less_exclusions.txt	LTP198	ltpFR	17	5	0	SILK	1307	n/a	0	n/a	n/a	n/a	n/a	n/a
1089.92	n/a	REC_WORD	544960	wordpools/wasnorm_wordpool_less_exclusions.txt	LTP198	ltpFR	17	5	0	BALL	73	n/a	1	n/a	n/a	n/a	n/a	n/a
1090.618	n/a	REC_WORD	545309	wordpools/wasnorm_wordpool_less_exclusions.txt	LTP198	ltpFR	17	5	0	DANDRUFF	439	n/a	0	n/a	n/a	n/a	n/a	n/a
1100.516	n/a	REC_WORD	550258	wordpools/wasnorm_wordpool_less_exclusions.txt	LTP198	ltpFR	17	5	0	CONCRETE	361	n/a	1	n/a	n/a	n/a	n/a	n/a
1150.224	n/a	WORD	575112	wordpools/wasnorm_wordpool_less_exclusions.txt	LTP198	ltpFR	17	6	0	SUBMARINE	1398	n/a	1	0	0.5869140625	0.422607421875	upper	../fonts/zerothre.ttf
1154.152	n/a	WORD	577076	wordpools/wasnorm_wordpool_less_exclusions.txt	LTP198	ltpFR	17	6	0	TIDE	1465	n/a	1	0	0.5869140625	0.422607421875	upper	../fonts/zerothre.ttf
1158.08	n/a	WORD	579040	wordpools/wasnorm_wordpool_less_exclusions.txt	LTP198	ltpFR	17	6	0	STUDENT	1395	n/a	1	0	0.5869140625	0.422607421875	upper	../fonts/zerothre.ttf
1162.206	n/a	WORD	581103	wordpools/wasnorm_wordpool_less_exclusions.txt	LTP198	ltpFR	17	6	0	PIZZA	1079	n/a	1	0	0.5869140625	0.422607421875	upper	../fonts/zerothre.ttf
1166.134	n/a	WORD	583067	wordpools/wasnorm_wordpool_less_exclusions.txt	LTP198	ltpFR	17	6	0	RESTAURANT	1187	n/a	1	0	0.5869140625	0.422607421875	upper	../fonts/zerothre.ttf
1170.062	n/a	WORD	585031	wordpools/wasnorm_wordpool_less_exclusions.txt	LTP198	ltpFR	17	6	0	FRUIT	610	n/a	1	0	0.5869140625	0.422607421875	upper	../fonts/zerothre.ttf
1173.956	n/a	WORD	586978	wordpools/wasnorm_wordpool_less_exclusions.txt	LTP198	ltpFR	17	6	0	GOVERNOR	651	n/a	1	0	0.5869140625	0.422607421875	upper	../fonts/zerothre.ttf
1178.1	n/a	WORD	589050	wordpools/wasnorm_wordpool_less_exclusions.txt	LTP198	ltpFR	17	6	0	SLIDE	1326	n/a	0	0	0.5869140625	0.422607421875	upper	../fonts/zerothre.ttf
1182.21	n/a	WORD	591105	wordpools/wasnorm_wordpool_less_exclusions.txt	LTP198	ltpFR	17	6	0	TREAD	1499	n/a	0	0	0.5869140625	0.422607421875	upper	../fonts/zerothre.ttf
1186.17	n/a	WORD	593085	wordpools/wasnorm_wordpool_less_exclusions.txt	LTP198	ltpFR	17	6	0	MILK	895	n/a	0	0	0.5869140625	0.422607421875	upper	../fonts/zerothre.ttf
1190.182	n/a	WORD	595091	wordpools/wasnorm_wordpool_less_exclusions.txt	LTP198	ltpFR	17	6	0	VEAL	1551	n/a	1	0	0.5869140625	0.422607421875	upper	../fonts/zerothre.ttf
1194.126	n/a	WORD	597063	wordpools/wasnorm_wordpool_less_exclusions.txt	LTP198	ltpFR	17	6	0	CAPITAL	238	n/a	1	0	0.5869140625	0.422607421875	upper	../fonts/zerothre.ttf
1198.286	n/a	WORD	599143	wordpools/wasnorm_wordpool_less_exclusions.txt	LTP198	ltpFR	17	6	0	INSTRUCTOR	741	n/a	1	0	0.5869140625	0.422607421875	upper	../fonts/zerothre.ttf
1202.182	n/a	WORD	601091	wordpools/wasnorm_wordpool_less_exclusions.txt	LTP198	ltpFR	17	6	0	BANDIT	81	n/a	1	0	0.5869140625	0.422607421875	upper	../fonts/zerothre.ttf
1206.34	n/a	WORD	603170	wordpools/wasnorm_wordpool_less_exclusions.txt	LTP198	ltpFR	17	6	0	PIGEON	1065	n/a	0	0	0.5869140625	0.422607421875	upper	../fonts/zerothre.ttf
1210.502	n/a	WORD	605251	wordpools/wasnorm_wordpool_less_exclusions.txt	LTP198	ltpFR	17	6	0	PARROT	1015	n/a	0	0	0.5869140625	0.422607421875	upper	../fonts/zerothre.ttf
1216.394	n/a	REC_START	608197	n/a	LTP198	ltpFR	17	6	n/a	n/a	n/a	n/a	n/a	n/a	n/a	n/a	n/a	n/a
1216.976	n/a	REC_WORD	608488	wordpools/wasnorm_wordpool_less_exclusions.txt	LTP198	ltpFR	17	6	0	PIGEON	1065	n/a	0	n/a	n/a	n/a	n/a	n/a
1217.616	n/a	REC_WORD	608808	wordpools/wasnorm_wordpool_less_exclusions.txt	LTP198	ltpFR	17	6	0	PARROT	1015	n/a	0	n/a	n/a	n/a	n/a	n/a
1218.712	n/a	REC_WORD	609356	wordpools/wasnorm_wordpool_less_exclusions.txt	LTP198	ltpFR	17	6	0	SUBMARINE	1398	n/a	1	n/a	n/a	n/a	n/a	n/a
1220.988	n/a	REC_WORD	610494	wordpools/wasnorm_wordpool_less_exclusions.txt	LTP198	ltpFR	17	6	0	TREAD	1499	n/a	0	n/a	n/a	n/a	n/a	n/a
1221.666	n/a	REC_WORD	610833	wordpools/wasnorm_wordpool_less_exclusions.txt	LTP198	ltpFR	17	6	0	SLIDE	1326	n/a	0	n/a	n/a	n/a	n/a	n/a
1222.564	n/a	REC_WORD	611282	wordpools/wasnorm_wordpool_less_exclusions.txt	LTP198	ltpFR	17	6	0	INSTRUCTOR	741	n/a	1	n/a	n/a	n/a	n/a	n/a
1224.36	n/a	REC_WORD	612180	wordpools/wasnorm_wordpool_less_exclusions.txt	LTP198	ltpFR	17	6	0	BANDIT	81	n/a	1	n/a	n/a	n/a	n/a	n/a
1225.592	n/a	REC_WORD	612796	wordpools/wasnorm_wordpool_less_exclusions.txt	LTP198	ltpFR	17	6	0	STUDENT	1395	n/a	1	n/a	n/a	n/a	n/a	n/a
1226.754	n/a	REC_WORD	613377	wordpools/wasnorm_wordpool_less_exclusions.txt	LTP198	ltpFR	17	6	0	GOVERNOR	651	n/a	1	n/a	n/a	n/a	n/a	n/a
1227.552	n/a	REC_WORD	613776	wordpools/wasnorm_wordpool_less_exclusions.txt	LTP198	ltpFR	17	6	0	CAPITAL	238	n/a	1	n/a	n/a	n/a	n/a	n/a
1230.152	n/a	REC_WORD	615076	wordpools/wasnorm_wordpool_less_exclusions.txt	LTP198	ltpFR	17	6	0	RESTAURANT	1187	n/a	1	n/a	n/a	n/a	n/a	n/a
1231.284	n/a	REC_WORD	615642	wordpools/wasnorm_wordpool_less_exclusions.txt	LTP198	ltpFR	17	6	0	VEAL	1551	n/a	1	n/a	n/a	n/a	n/a	n/a
1232.062	n/a	REC_WORD	616031	wordpools/wasnorm_wordpool_less_exclusions.txt	LTP198	ltpFR	17	6	0	MILK	895	n/a	0	n/a	n/a	n/a	n/a	n/a
1232.836	n/a	REC_WORD	616418	wordpools/wasnorm_wordpool_less_exclusions.txt	LTP198	ltpFR	17	6	0	PIZZA	1079	n/a	1	n/a	n/a	n/a	n/a	n/a
1233.938	n/a	REC_WORD	616969	wordpools/wasnorm_wordpool_less_exclusions.txt	LTP198	ltpFR	17	6	0	FRUIT	610	n/a	1	n/a	n/a	n/a	n/a	n/a
1237.88	n/a	REC_WORD	618940	wordpools/wasnorm_wordpool_less_exclusions.txt	LTP198	ltpFR	17	6	0	SLIDE	1326	n/a	0	n/a	n/a	n/a	n/a	n/a
1238.688	n/a	REC_WORD	619344	wordpools/wasnorm_wordpool_less_exclusions.txt	LTP198	ltpFR	17	6	0	TREAD	1499	n/a	0	n/a	n/a	n/a	n/a	n/a
1297.656	n/a	WORD	648828	wordpools/wasnorm_wordpool_less_exclusions.txt	LTP198	ltpFR	17	7	1	BASEBALL	93	n/a	0	1	0.412841796875	0.57763671875	lower	../fonts/amplitud.ttf
1301.734	n/a	WORD	650867	wordpools/wasnorm_wordpool_less_exclusions.txt	LTP198	ltpFR	17	7	1	TANK	1432	n/a	1	1	0.412841796875	0.57763671875	lower	../fonts/amplitud.ttf
1305.76	n/a	WORD	652880	wordpools/wasnorm_wordpool_less_exclusions.txt	LTP198	ltpFR	17	7	0	OTTER	986	n/a	1	0	0.5869140625	0.422607421875	upper	../fonts/zerothre.ttf
1309.988	n/a	WORD	654994	wordpools/wasnorm_wordpool_less_exclusions.txt	LTP198	ltpFR	17	7	0	MULE	931	n/a	1	0	0.5869140625	0.422607421875	upper	../fonts/zerothre.ttf
1313.916	n/a	WORD	656958	wordpools/wasnorm_wordpool_less_exclusions.txt	LTP198	ltpFR	17	7	0	NICKEL	950	n/a	0	0	0.5869140625	0.422607421875	upper	../fonts/zerothre.ttf
1317.876	n/a	WORD	658938	wordpools/wasnorm_wordpool_less_exclusions.txt	LTP198	ltpFR	17	7	1	VET	1560	n/a	1	1	0.412841796875	0.57763671875	lower	../fonts/amplitud.ttf
1321.704	n/a	WORD	660852	wordpools/wasnorm_wordpool_less_exclusions.txt	LTP198	ltpFR	17	7	1	FEATHER	557	n/a	0	1	0.412841796875	0.57763671875	lower	../fonts/amplitud.ttf
1325.764	n/a	WORD	662882	wordpools/wasnorm_wordpool_less_exclusions.txt	LTP198	ltpFR	17	7	1	GIRAFFE	636	n/a	1	1	0.412841796875	0.57763671875	lower	../fonts/amplitud.ttf
1329.758	n/a	WORD	664879	wordpools/wasnorm_wordpool_less_exclusions.txt	LTP198	ltpFR	17	7	0	KLEENEX	782	n/a	0	0	0.5869140625	0.422607421875	upper	../fonts/zerothre.ttf
1333.618	n/a	WORD	666809	wordpools/wasnorm_wordpool_less_exclusions.txt	LTP198	ltpFR	17	7	0	RAG	1160	n/a	0	0	0.5869140625	0.422607421875	upper	../fonts/zerothre.ttf
1337.664	n/a	WORD	668832	wordpools/wasnorm_wordpool_less_exclusions.txt	LTP198	ltpFR	17	7	0	BOTTLE	153	n/a	1	0	0.5869140625	0.422607421875	upper	../fonts/zerothre.ttf
1341.508	n/a	WORD	670754	wordpools/wasnorm_wordpool_less_exclusions.txt	LTP198	ltpFR	17	7	0	BARTENDER	92	n/a	1	0	0.5869140625	0.422607421875	upper	../fonts/zerothre.ttf
1345.668	n/a	WORD	672834	wordpools/wasnorm_wordpool_less_exclusions.txt	LTP198	ltpFR	17	7	0	CERAMICS	271	n/a	0	0	0.5869140625	0.422607421875	upper	../fonts/zerothre.ttf
1349.696	n/a	WORD	674848	wordpools/wasnorm_wordpool_less_exclusions.txt	LTP198	ltpFR	17	7	1	POTTERY	1116	n/a	0	1	0.412841796875	0.57763671875	lower	../fonts/amplitud.ttf
1353.84	n/a	WORD	676920	wordpools/wasnorm_wordpool_less_exclusions.txt	LTP198	ltpFR	17	7	1	GUARDIAN	668	n/a	1	1	0.412841796875	0.57763671875	lower	../fonts/amplitud.ttf
1357.702	n/a	WORD	678851	wordpools/wasnorm_wordpool_less_exclusions.txt	LTP198	ltpFR	17	7	1	WINGS	1614	n/a	0	1	0.412841796875	0.57763671875	lower	../fonts/amplitud.ttf
1363.358	n/a	REC_START	681679	n/a	LTP198	ltpFR	17	7	n/a	n/a	n/a	n/a	n/a	n/a	n/a	n/a	n/a	n/a
1364.262	n/a	REC_WORD	682131	wordpools/wasnorm_wordpool_less_exclusions.txt	LTP198	ltpFR	17	7	1	GUARDIAN	668	n/a	1	n/a	n/a	n/a	n/a	n/a
1365.114	n/a	REC_WORD	682557	wordpools/wasnorm_wordpool_less_exclusions.txt	LTP198	ltpFR	17	7	1	WINGS	1614	n/a	0	n/a	n/a	n/a	n/a	n/a
1366.096	n/a	REC_WORD	683048	wordpools/wasnorm_wordpool_less_exclusions.txt	LTP198	ltpFR	17	7	1	FEATHER	557	n/a	0	n/a	n/a	n/a	n/a	n/a
1367.704	n/a	REC_WORD	683852	wordpools/wasnorm_wordpool_less_exclusions.txt	LTP198	ltpFR	17	7	0	CERAMICS	271	n/a	0	n/a	n/a	n/a	n/a	n/a
1368.736	n/a	REC_WORD	684368	wordpools/wasnorm_wordpool_less_exclusions.txt	LTP198	ltpFR	17	7	1	POTTERY	1116	n/a	0	n/a	n/a	n/a	n/a	n/a
1369.61	n/a	REC_WORD	684805	wordpools/wasnorm_wordpool_less_exclusions.txt	LTP198	ltpFR	17	7	0	BOTTLE	153	n/a	1	n/a	n/a	n/a	n/a	n/a
1370.448	n/a	REC_WORD	685224	wordpools/wasnorm_wordpool_less_exclusions.txt	LTP198	ltpFR	17	7	0	RAG	1160	n/a	0	n/a	n/a	n/a	n/a	n/a
1371.354	n/a	REC_WORD	685677	wordpools/wasnorm_wordpool_less_exclusions.txt	LTP198	ltpFR	17	7	0	KLEENEX	782	n/a	0	n/a	n/a	n/a	n/a	n/a
1373.33	n/a	REC_WORD	686665	wordpools/wasnorm_wordpool_less_exclusions.txt	LTP198	ltpFR	17	7	1	BASEBALL	93	n/a	0	n/a	n/a	n/a	n/a	n/a
1374.448	n/a	REC_WORD	687224	wordpools/wasnorm_wordpool_less_exclusions.txt	LTP198	ltpFR	17	7	0	BARTENDER	92	n/a	1	n/a	n/a	n/a	n/a	n/a
1375.48	n/a	REC_WORD	687740	wordpools/wasnorm_wordpool_less_exclusions.txt	LTP198	ltpFR	17	7	1	VET	1560	n/a	1	n/a	n/a	n/a	n/a	n/a
1378.828	n/a	REC_WORD	689414	wordpools/wasnorm_wordpool_less_exclusions.txt	LTP198	ltpFR	17	7	0	OTTER	986	n/a	1	n/a	n/a	n/a	n/a	n/a
1379.736	n/a	REC_WORD	689868	wordpools/wasnorm_wordpool_less_exclusions.txt	LTP198	ltpFR	17	7	0	MULE	931	n/a	1	n/a	n/a	n/a	n/a	n/a
1380.51	n/a	REC_WORD	690255	wordpools/wasnorm_wordpool_less_exclusions.txt	LTP198	ltpFR	17	7	1	GIRAFFE	636	n/a	1	n/a	n/a	n/a	n/a	n/a
1464.276	n/a	WORD	732138	wordpools/wasnorm_wordpool_less_exclusions.txt	LTP198	ltpFR	17	8	1	SUITCASE	1403	n/a	1	1	0.412841796875	0.57763671875	lower	../fonts/amplitud.ttf
1468.154	n/a	WORD	734077	wordpools/wasnorm_wordpool_less_exclusions.txt	LTP198	ltpFR	17	8	1	HERO	706	n/a	1	1	0.412841796875	0.57763671875	lower	../fonts/amplitud.ttf
1472.314	n/a	WORD	736157	wordpools/wasnorm_wordpool_less_exclusions.txt	LTP198	ltpFR	17	8	1	MOTHER	921	n/a	1	1	0.412841796875	0.57763671875	lower	../fonts/amplitud.ttf
1476.326	n/a	WORD	738163	wordpools/wasnorm_wordpool_less_exclusions.txt	LTP198	ltpFR	17	8	1	PRODUCER	1129	n/a	1	1	0.412841796875	0.57763671875	lower	../fonts/amplitud.ttf
1480.254	n/a	WORD	740127	wordpools/wasnorm_wordpool_less_exclusions.txt	LTP198	ltpFR	17	8	1	SPINACH	1352	n/a	0	1	0.412841796875	0.57763671875	lower	../fonts/amplitud.ttf
1484.346	n/a	WORD	742173	wordpools/wasnorm_wordpool_less_exclusions.txt	LTP198	ltpFR	17	8	1	LITERATURE	831	n/a	0	1	0.412841796875	0.57763671875	lower	../fonts/amplitud.ttf
1488.192	n/a	WORD	744096	wordpools/wasnorm_wordpool_less_exclusions.txt	LTP198	ltpFR	17	8	1	PAPER	1011	n/a	0	1	0.412841796875	0.57763671875	lower	../fonts/amplitud.ttf
1492.384	n/a	WORD	746192	wordpools/wasnorm_wordpool_less_exclusions.txt	LTP198	ltpFR	17	8	1	LITTER	832	n/a	0	1	0.412841796875	0.57763671875	lower	../fonts/amplitud.ttf
1496.494	n/a	WORD	748247	wordpools/wasnorm_wordpool_less_exclusions.txt	LTP198	ltpFR	17	8	1	ATTORNEY	58	n/a	1	1	0.412841796875	0.57763671875	lower	../fonts/amplitud.ttf
1500.588	n/a	WORD	750294	wordpools/wasnorm_wordpool_less_exclusions.txt	LTP198	ltpFR	17	8	1	FUDGE	611	n/a	0	1	0.412841796875	0.57763671875	lower	../fonts/amplitud.ttf
1504.482	n/a	WORD	752241	wordpools/wasnorm_wordpool_less_exclusions.txt	LTP198	ltpFR	17	8	1	CAKE	219	n/a	0	1	0.412841796875	0.57763671875	lower	../fonts/amplitud.ttf
1508.476	n/a	WORD	754238	wordpools/wasnorm_wordpool_less_exclusions.txt	LTP198	ltpFR	17	8	1	WHEEL	1603	n/a	1	1	0.412841796875	0.57763671875	lower	../fonts/amplitud.ttf
1512.588	n/a	WORD	756294	wordpools/wasnorm_wordpool_less_exclusions.txt	LTP198	ltpFR	17	8	1	VEHICLE	1553	n/a	1	1	0.412841796875	0.57763671875	lower	../fonts/amplitud.ttf
1516.532	n/a	WORD	758266	wordpools/wasnorm_wordpool_less_exclusions.txt	LTP198	ltpFR	17	8	1	PATROL	1027	n/a	1	1	0.412841796875	0.57763671875	lower	../fonts/amplitud.ttf
1520.726	n/a	WORD	760363	wordpools/wasnorm_wordpool_less_exclusions.txt	LTP198	ltpFR	17	8	1	FAMILY	550	n/a	1	1	0.412841796875	0.57763671875	lower	../fonts/amplitud.ttf
1524.854	n/a	WORD	762427	wordpools/wasnorm_wordpool_less_exclusions.txt	LTP198	ltpFR	17	8	1	DIRECTOR	471	n/a	1	1	0.412841796875	0.57763671875	lower	../fonts/amplitud.ttf
1530.562	n/a	REC_START	765281	n/a	LTP198	ltpFR	17	8	n/a	n/a	n/a	n/a	n/a	n/a	n/a	n/a	n/a	n/a
1531.28	n/a	REC_WORD	765640	wordpools/wasnorm_wordpool_less_exclusions.txt	LTP198	ltpFR	17	8	1	DIRECTOR	471	n/a	1	n/a	n/a	n/a	n/a	n/a
1532.128	n/a	REC_WORD	766064	wordpools/wasnorm_wordpool_less_exclusions.txt	LTP198	ltpFR	17	8	1	PRODUCER	1129	n/a	1	n/a	n/a	n/a	n/a	n/a
1533.29	n/a	REC_WORD	766645	wordpools/wasnorm_wordpool_less_exclusions.txt	LTP198	ltpFR	17	8	1	CAKE	219	n/a	0	n/a	n/a	n/a	n/a	n/a
1534.018	n/a	REC_WORD	767009	wordpools/wasnorm_wordpool_less_exclusions.txt	LTP198	ltpFR	17	8	1	SPINACH	1352	n/a	0	n/a	n/a	n/a	n/a	n/a
1535.978	n/a	REC_WORD	767989	wordpools/wasnorm_wordpool_less_exclusions.txt	LTP198	ltpFR	17	8	n/a	BROWNIE	-1	n/a	n/a	n/a	n/a	n/a	n/a	n/a
1540.992	n/a	REC_WORD	770496	wordpools/wasnorm_wordpool_less_exclusions.txt	LTP198	ltpFR	17	8	1	ATTORNEY	58	n/a	1	n/a	n/a	n/a	n/a	n/a
1541.886	n/a	REC_WORD	770943	wordpools/wasnorm_wordpool_less_exclusions.txt	LTP198	ltpFR	17	8	1	HERO	706	n/a	1	n/a	n/a	n/a	n/a	n/a
1542.824	n/a	REC_WORD	771412	wordpools/wasnorm_wordpool_less_exclusions.txt	LTP198	ltpFR	17	8	1	MOTHER	921	n/a	1	n/a	n/a	n/a	n/a	n/a
1543.528	n/a	REC_WORD	771764	wordpools/wasnorm_wordpool_less_exclusions.txt	LTP198	ltpFR	17	8	1	FAMILY	550	n/a	1	n/a	n/a	n/a	n/a	n/a
1544.366	n/a	REC_WORD	772183	wordpools/wasnorm_wordpool_less_exclusions.txt	LTP198	ltpFR	17	8	1	PATROL	1027	n/a	1	n/a	n/a	n/a	n/a	n/a
1545.898	n/a	REC_WORD	772949	wordpools/wasnorm_wordpool_less_exclusions.txt	LTP198	ltpFR	17	8	1	WHEEL	1603	n/a	1	n/a	n/a	n/a	n/a	n/a
1546.904	n/a	REC_WORD	773452	wordpools/wasnorm_wordpool_less_exclusions.txt	LTP198	ltpFR	17	8	1	VEHICLE	1553	n/a	1	n/a	n/a	n/a	n/a	n/a
1556.718	n/a	REC_WORD	778359	wordpools/wasnorm_wordpool_less_exclusions.txt	LTP198	ltpFR	17	8	1	SUITCASE	1403	n/a	1	n/a	n/a	n/a	n/a	n/a
1622.674	n/a	WORD	811337	wordpools/wasnorm_wordpool_less_exclusions.txt	LTP198	ltpFR	17	9	-1	COP	376	n/a	-1	1	1.0	1.0	upper	../fonts/Verdana.ttf
1626.586	n/a	WORD	813293	wordpools/wasnorm_wordpool_less_exclusions.txt	LTP198	ltpFR	17	9	-1	BRAKE	166	n/a	-1	1	1.0	1.0	upper	../fonts/Verdana.ttf
1630.446	n/a	WORD	815223	wordpools/wasnorm_wordpool_less_exclusions.txt	LTP198	ltpFR	17	9	-1	DASHBOARD	441	n/a	-1	1	1.0	1.0	upper	../fonts/Verdana.ttf
1634.358	n/a	WORD	817179	wordpools/wasnorm_wordpool_less_exclusions.txt	LTP198	ltpFR	17	9	-1	TRUCK	1512	n/a	-1	1	1.0	1.0	upper	../fonts/Verdana.ttf
1638.418	n/a	WORD	819209	wordpools/wasnorm_wordpool_less_exclusions.txt	LTP198	ltpFR	17	9	-1	ROBIN	1199	n/a	-1	1	1.0	1.0	upper	../fonts/Verdana.ttf
1642.412	n/a	WORD	821206	wordpools/wasnorm_wordpool_less_exclusions.txt	LTP198	ltpFR	17	9	-1	DRIVEWAY	500	n/a	-1	1	1.0	1.0	upper	../fonts/Verdana.ttf
1646.356	n/a	WORD	823178	wordpools/wasnorm_wordpool_less_exclusions.txt	LTP198	ltpFR	17	9	-1	ROCK	1201	n/a	-1	1	1.0	1.0	upper	../fonts/Verdana.ttf
1650.484	n/a	WORD	825242	wordpools/wasnorm_wordpool_less_exclusions.txt	LTP198	ltpFR	17	9	-1	CHISEL	305	n/a	-1	1	1.0	1.0	upper	../fonts/Verdana.ttf
1654.478	n/a	WORD	827239	wordpools/wasnorm_wordpool_less_exclusions.txt	LTP198	ltpFR	17	9	-1	ICE	730	n/a	-1	1	1.0	1.0	upper	../fonts/Verdana.ttf
1658.538	n/a	WORD	829269	wordpools/wasnorm_wordpool_less_exclusions.txt	LTP198	ltpFR	17	9	-1	HEATER	698	n/a	-1	1	1.0	1.0	upper	../fonts/Verdana.ttf
1662.666	n/a	WORD	831333	wordpools/wasnorm_wordpool_less_exclusions.txt	LTP198	ltpFR	17	9	-1	MIRROR	899	n/a	-1	1	1.0	1.0	upper	../fonts/Verdana.ttf
1666.51	n/a	WORD	833255	wordpools/wasnorm_wordpool_less_exclusions.txt	LTP198	ltpFR	17	9	-1	CANVAS	234	n/a	-1	1	1.0	1.0	upper	../fonts/Verdana.ttf
1670.636	n/a	WORD	835318	wordpools/wasnorm_wordpool_less_exclusions.txt	LTP198	ltpFR	17	9	-1	MECHANIC	884	n/a	-1	1	1.0	1.0	upper	../fonts/Verdana.ttf
1674.814	n/a	WORD	837407	wordpools/wasnorm_wordpool_less_exclusions.txt	LTP198	ltpFR	17	9	-1	AUTOMOBILE	62	n/a	-1	1	1.0	1.0	upper	../fonts/Verdana.ttf
1678.658	n/a	WORD	839329	wordpools/wasnorm_wordpool_less_exclusions.txt	LTP198	ltpFR	17	9	-1	MISTER	901	n/a	-1	1	1.0	1.0	upper	../fonts/Verdana.ttf
1682.652	n/a	WORD	841326	wordpools/wasnorm_wordpool_less_exclusions.txt	LTP198	ltpFR	17	9	-1	KIWI	781	n/a	-1	1	1.0	1.0	upper	../fonts/Verdana.ttf
1688.444	n/a	REC_START	844222	n/a	LTP198	ltpFR	17	9	n/a	n/a	n/a	n/a	n/a	n/a	n/a	n/a	n/a	n/a
1688.918	n/a	REC_WORD	844459	wordpools/wasnorm_wordpool_less_exclusions.txt	LTP198	ltpFR	17	9	-1	KIWI	781	n/a	-1	n/a	n/a	n/a	n/a	n/a
1690.424	n/a	REC_WORD	845212	wordpools/wasnorm_wordpool_less_exclusions.txt	LTP198	ltpFR	17	9	-1	COP	376	n/a	-1	n/a	n/a	n/a	n/a	n/a
1691.272	n/a	REC_WORD	845636	wordpools/wasnorm_wordpool_less_exclusions.txt	LTP198	ltpFR	17	9	-1	BRAKE	166	n/a	-1	n/a	n/a	n/a	n/a	n/a
1692.22	n/a	REC_WORD	846110	wordpools/wasnorm_wordpool_less_exclusions.txt	LTP198	ltpFR	17	9	-1	DASHBOARD	441	n/a	-1	n/a	n/a	n/a	n/a	n/a
1693.458	n/a	REC_WORD	846729	wordpools/wasnorm_wordpool_less_exclusions.txt	LTP198	ltpFR	17	9	-1	TRUCK	1512	n/a	-1	n/a	n/a	n/a	n/a	n/a
1694.266	n/a	REC_WORD	847133	wordpools/wasnorm_wordpool_less_exclusions.txt	LTP198	ltpFR	17	9	-1	ROCK	1201	n/a	-1	n/a	n/a	n/a	n/a	n/a
1694.994	n/a	REC_WORD	847497	wordpools/wasnorm_wordpool_less_exclusions.txt	LTP198	ltpFR	17	9	-1	CHISEL	305	n/a	-1	n/a	n/a	n/a	n/a	n/a
1696.122	n/a	REC_WORD	848061	wordpools/wasnorm_wordpool_less_exclusions.txt	LTP198	ltpFR	17	9	-1	ROBIN	1199	n/a	-1	n/a	n/a	n/a	n/a	n/a
1697.024	n/a	REC_WORD	848512	wordpools/wasnorm_wordpool_less_exclusions.txt	LTP198	ltpFR	17	9	-1	HEATER	698	n/a	-1	n/a	n/a	n/a	n/a	n/a
1697.958	n/a	REC_WORD	848979	wordpools/wasnorm_wordpool_less_exclusions.txt	LTP198	ltpFR	17	9	-1	ICE	730	n/a	-1	n/a	n/a	n/a	n/a	n/a
1699.21	n/a	REC_WORD	849605	wordpools/wasnorm_wordpool_less_exclusions.txt	LTP198	ltpFR	17	9	-1	CANVAS	234	n/a	-1	n/a	n/a	n/a	n/a	n/a
1700.058	n/a	REC_WORD	850029	wordpools/wasnorm_wordpool_less_exclusions.txt	LTP198	ltpFR	17	9	-1	MIRROR	899	n/a	-1	n/a	n/a	n/a	n/a	n/a
1701.096	n/a	REC_WORD	850548	wordpools/wasnorm_wordpool_less_exclusions.txt	LTP198	ltpFR	17	9	-1	MECHANIC	884	n/a	-1	n/a	n/a	n/a	n/a	n/a
1704.258	n/a	REC_WORD	852129	wordpools/wasnorm_wordpool_less_exclusions.txt	LTP198	ltpFR	17	9	-1	AUTOMOBILE	62	n/a	-1	n/a	n/a	n/a	n/a	n/a
1716.8	n/a	REC_WORD	858400	wordpools/wasnorm_wordpool_less_exclusions.txt	LTP198	ltpFR	17	9	-1	DRIVEWAY	500	n/a	-1	n/a	n/a	n/a	n/a	n/a
1722.95	n/a	REC_WORD	861475	wordpools/wasnorm_wordpool_less_exclusions.txt	LTP198	ltpFR	17	9	-1	KIWI	781	n/a	-1	n/a	n/a	n/a	n/a	n/a
1774.184	n/a	WORD	887092	wordpools/wasnorm_wordpool_less_exclusions.txt	LTP198	ltpFR	17	10	-1	SOCIETY	1338	n/a	-1	1	1.0	1.0	upper	../fonts/Verdana.ttf
1778.13	n/a	WORD	889065	wordpools/wasnorm_wordpool_less_exclusions.txt	LTP198	ltpFR	17	10	-1	LOAF	835	n/a	-1	1	1.0	1.0	upper	../fonts/Verdana.ttf
1782.006	n/a	WORD	891003	wordpools/wasnorm_wordpool_less_exclusions.txt	LTP198	ltpFR	17	10	-1	TORTOISE	1486	n/a	-1	1	1.0	1.0	upper	../fonts/Verdana.ttf
1786.216	n/a	WORD	893108	wordpools/wasnorm_wordpool_less_exclusions.txt	LTP198	ltpFR	17	10	-1	CARDINAL	244	n/a	-1	1	1.0	1.0	upper	../fonts/Verdana.ttf
1790.41	n/a	WORD	895205	wordpools/wasnorm_wordpool_less_exclusions.txt	LTP198	ltpFR	17	10	-1	ROOST	1208	n/a	-1	1	1.0	1.0	upper	../fonts/Verdana.ttf
1794.322	n/a	WORD	897161	wordpools/wasnorm_wordpool_less_exclusions.txt	LTP198	ltpFR	17	10	-1	LIBRARY	816	n/a	-1	1	1.0	1.0	upper	../fonts/Verdana.ttf
1798.298	n/a	WORD	899149	wordpools/wasnorm_wordpool_less_exclusions.txt	LTP198	ltpFR	17	10	-1	CREATURE	403	n/a	-1	1	1.0	1.0	upper	../fonts/Verdana.ttf
1802.21	n/a	WORD	901105	wordpools/wasnorm_wordpool_less_exclusions.txt	LTP198	ltpFR	17	10	-1	SWAN	1417	n/a	-1	1	1.0	1.0	upper	../fonts/Verdana.ttf
1806.188	n/a	WORD	903094	wordpools/wasnorm_wordpool_less_exclusions.txt	LTP198	ltpFR	17	10	-1	PORCH	1106	n/a	-1	1	1.0	1.0	upper	../fonts/Verdana.ttf
1810.264	n/a	WORD	905132	wordpools/wasnorm_wordpool_less_exclusions.txt	LTP198	ltpFR	17	10	-1	BALCONY	72	n/a	-1	1	1.0	1.0	upper	../fonts/Verdana.ttf
1814.274	n/a	WORD	907137	wordpools/wasnorm_wordpool_less_exclusions.txt	LTP198	ltpFR	17	10	-1	PACKAGE	997	n/a	-1	1	1.0	1.0	upper	../fonts/Verdana.ttf
1818.286	n/a	WORD	909143	wordpools/wasnorm_wordpool_less_exclusions.txt	LTP198	ltpFR	17	10	-1	SEAL	1262	n/a	-1	1	1.0	1.0	upper	../fonts/Verdana.ttf
1822.512	n/a	WORD	911256	wordpools/wasnorm_wordpool_less_exclusions.txt	LTP198	ltpFR	17	10	-1	DIAPER	459	n/a	-1	1	1.0	1.0	upper	../fonts/Verdana.ttf
1826.656	n/a	WORD	913328	wordpools/wasnorm_wordpool_less_exclusions.txt	LTP198	ltpFR	17	10	-1	INFANT	737	n/a	-1	1	1.0	1.0	upper	../fonts/Verdana.ttf
1830.65	n/a	WORD	915325	wordpools/wasnorm_wordpool_less_exclusions.txt	LTP198	ltpFR	17	10	-1	BATH	98	n/a	-1	1	1.0	1.0	upper	../fonts/Verdana.ttf
1834.746	n/a	WORD	917373	wordpools/wasnorm_wordpool_less_exclusions.txt	LTP198	ltpFR	17	10	-1	MARGARINE	868	n/a	-1	1	1.0	1.0	upper	../fonts/Verdana.ttf
1840.804	n/a	REC_START	920402	n/a	LTP198	ltpFR	17	10	n/a	n/a	n/a	n/a	n/a	n/a	n/a	n/a	n/a	n/a
1841.052	n/a	REC_WORD	920526	wordpools/wasnorm_wordpool_less_exclusions.txt	LTP198	ltpFR	17	10	-1	MARGARINE	868	n/a	-1	n/a	n/a	n/a	n/a	n/a
1842.086	n/a	REC_WORD	921043	wordpools/wasnorm_wordpool_less_exclusions.txt	LTP198	ltpFR	17	10	-1	INFANT	737	n/a	-1	n/a	n/a	n/a	n/a	n/a
1842.898	n/a	REC_WORD	921449	wordpools/wasnorm_wordpool_less_exclusions.txt	LTP198	ltpFR	17	10	-1	DIAPER	459	n/a	-1	n/a	n/a	n/a	n/a	n/a
1843.772	n/a	REC_WORD	921886	wordpools/wasnorm_wordpool_less_exclusions.txt	LTP198	ltpFR	17	10	-1	BATH	98	n/a	-1	n/a	n/a	n/a	n/a	n/a
1844.6	n/a	REC_WORD	922300	wordpools/wasnorm_wordpool_less_exclusions.txt	LTP198	ltpFR	17	10	-1	PACKAGE	997	n/a	-1	n/a	n/a	n/a	n/a	n/a
1845.478	n/a	REC_WORD	922739	wordpools/wasnorm_wordpool_less_exclusions.txt	LTP198	ltpFR	17	10	-1	SEAL	1262	n/a	-1	n/a	n/a	n/a	n/a	n/a
1850.168	n/a	REC_WORD_VV	925084	wordpools/wasnorm_wordpool_less_exclusions.txt	LTP198	ltpFR	17	10	n/a	<>	-1	n/a	n/a	n/a	n/a	n/a	n/a	n/a
1853.4	n/a	REC_WORD_VV	926700	wordpools/wasnorm_wordpool_less_exclusions.txt	LTP198	ltpFR	17	10	n/a	<>	-1	n/a	n/a	n/a	n/a	n/a	n/a	n/a
1857.904	n/a	REC_WORD	928952	wordpools/wasnorm_wordpool_less_exclusions.txt	LTP198	ltpFR	17	10	-1	SOCIETY	1338	n/a	-1	n/a	n/a	n/a	n/a	n/a
1859.71	n/a	REC_WORD	929855	wordpools/wasnorm_wordpool_less_exclusions.txt	LTP198	ltpFR	17	10	-1	LOAF	835	n/a	-1	n/a	n/a	n/a	n/a	n/a
1860.898	n/a	REC_WORD	930449	wordpools/wasnorm_wordpool_less_exclusions.txt	LTP198	ltpFR	17	10	-1	CARDINAL	244	n/a	-1	n/a	n/a	n/a	n/a	n/a
1861.91	n/a	REC_WORD	930955	wordpools/wasnorm_wordpool_less_exclusions.txt	LTP198	ltpFR	17	10	-1	SWAN	1417	n/a	-1	n/a	n/a	n/a	n/a	n/a
1865.268	n/a	REC_WORD	932634	wordpools/wasnorm_wordpool_less_exclusions.txt	LTP198	ltpFR	17	10	-1	CREATURE	403	n/a	-1	n/a	n/a	n/a	n/a	n/a
1866.266	n/a	REC_WORD	933133	wordpools/wasnorm_wordpool_less_exclusions.txt	LTP198	ltpFR	17	10	-1	LIBRARY	816	n/a	-1	n/a	n/a	n/a	n/a	n/a
1867.352	n/a	REC_WORD	933676	wordpools/wasnorm_wordpool_less_exclusions.txt	LTP198	ltpFR	17	10	-1	PORCH	1106	n/a	-1	n/a	n/a	n/a	n/a	n/a
1868.35	n/a	REC_WORD	934175	wordpools/wasnorm_wordpool_less_exclusions.txt	LTP198	ltpFR	17	10	-1	BALCONY	72	n/a	-1	n/a	n/a	n/a	n/a	n/a
1869.942	n/a	REC_WORD	934971	wordpools/wasnorm_wordpool_less_exclusions.txt	LTP198	ltpFR	17	10	-1	TORTOISE	1486	n/a	-1	n/a	n/a	n/a	n/a	n/a
1876.576	n/a	REC_WORD	938288	wordpools/wasnorm_wordpool_less_exclusions.txt	LTP198	ltpFR	17	10	-1	ROOST	1208	n/a	-1	n/a	n/a	n/a	n/a	n/a
1945.264	n/a	WORD	972632	wordpools/wasnorm_wordpool_less_exclusions.txt	LTP198	ltpFR	17	11	1	SPIT	1354	n/a	0	1	0.412841796875	0.57763671875	lower	../fonts/amplitud.ttf
1949.292	n/a	WORD	974646	wordpools/wasnorm_wordpool_less_exclusions.txt	LTP198	ltpFR	17	11	1	DUNGEON	507	n/a	1	1	0.412841796875	0.57763671875	lower	../fonts/amplitud.ttf
1953.434	n/a	WORD	976717	wordpools/wasnorm_wordpool_less_exclusions.txt	LTP198	ltpFR	17	11	1	TIGER	1467	n/a	1	1	0.412841796875	0.57763671875	lower	../fonts/amplitud.ttf
1957.546	n/a	WORD	978773	wordpools/wasnorm_wordpool_less_exclusions.txt	LTP198	ltpFR	17	11	1	TOASTER	1472	n/a	0	1	0.412841796875	0.57763671875	lower	../fonts/amplitud.ttf
1961.458	n/a	WORD	980729	wordpools/wasnorm_wordpool_less_exclusions.txt	LTP198	ltpFR	17	11	1	EMPIRE	530	n/a	1	1	0.412841796875	0.57763671875	lower	../fonts/amplitud.ttf
1965.468	n/a	WORD	982734	wordpools/wasnorm_wordpool_less_exclusions.txt	LTP198	ltpFR	17	11	1	CROCODILE	411	n/a	1	1	0.412841796875	0.57763671875	lower	../fonts/amplitud.ttf
1969.662	n/a	WORD	984831	wordpools/wasnorm_wordpool_less_exclusions.txt	LTP198	ltpFR	17	11	1	LINT	826	n/a	0	1	0.412841796875	0.57763671875	lower	../fonts/amplitud.ttf
1973.556	n/a	WORD	986778	wordpools/wasnorm_wordpool_less_exclusions.txt	LTP198	ltpFR	17	11	1	LAUNDRY	803	n/a	0	1	0.412841796875	0.57763671875	lower	../fonts/amplitud.ttf
1977.734	n/a	WORD	988867	wordpools/wasnorm_wordpool_less_exclusions.txt	LTP198	ltpFR	17	11	1	GLUE	643	n/a	0	1	0.412841796875	0.57763671875	lower	../fonts/amplitud.ttf
1981.928	n/a	WORD	990964	wordpools/wasnorm_wordpool_less_exclusions.txt	LTP198	ltpFR	17	11	1	BUBBLE	183	n/a	0	1	0.412841796875	0.57763671875	lower	../fonts/amplitud.ttf
1985.888	n/a	WORD	992944	wordpools/wasnorm_wordpool_less_exclusions.txt	LTP198	ltpFR	17	11	1	ZOO	1637	n/a	1	1	0.412841796875	0.57763671875	lower	../fonts/amplitud.ttf
1989.998	n/a	WORD	994999	wordpools/wasnorm_wordpool_less_exclusions.txt	LTP198	ltpFR	17	11	1	TONGUE	1479	n/a	0	1	0.412841796875	0.57763671875	lower	../fonts/amplitud.ttf
1994.076	n/a	WORD	997038	wordpools/wasnorm_wordpool_less_exclusions.txt	LTP198	ltpFR	17	11	1	BUILDER	190	n/a	1	1	0.412841796875	0.57763671875	lower	../fonts/amplitud.ttf
1998.254	n/a	WORD	999127	wordpools/wasnorm_wordpool_less_exclusions.txt	LTP198	ltpFR	17	11	1	SERPENT	1270	n/a	0	1	0.412841796875	0.57763671875	lower	../fonts/amplitud.ttf
2002.462	n/a	WORD	1001231	wordpools/wasnorm_wordpool_less_exclusions.txt	LTP198	ltpFR	17	11	1	TANGERINE	1431	n/a	0	1	0.412841796875	0.57763671875	lower	../fonts/amplitud.ttf
2006.308	n/a	WORD	1003154	wordpools/wasnorm_wordpool_less_exclusions.txt	LTP198	ltpFR	17	11	1	CITRUS	313	n/a	0	1	0.412841796875	0.57763671875	lower	../fonts/amplitud.ttf
2012.134	n/a	REC_START	1006067	n/a	LTP198	ltpFR	17	11	n/a	n/a	n/a	n/a	n/a	n/a	n/a	n/a	n/a	n/a
2012.638	n/a	REC_WORD	1006319	wordpools/wasnorm_wordpool_less_exclusions.txt	LTP198	ltpFR	17	11	1	TANGERINE	1431	n/a	0	n/a	n/a	n/a	n/a	n/a
2013.55	n/a	REC_WORD	1006775	wordpools/wasnorm_wordpool_less_exclusions.txt	LTP198	ltpFR	17	11	1	CITRUS	313	n/a	0	n/a	n/a	n/a	n/a	n/a
2014.408	n/a	REC_WORD	1007204	wordpools/wasnorm_wordpool_less_exclusions.txt	LTP198	ltpFR	17	11	1	SPIT	1354	n/a	0	n/a	n/a	n/a	n/a	n/a
2015.37	n/a	REC_WORD	1007685	wordpools/wasnorm_wordpool_less_exclusions.txt	LTP198	ltpFR	17	11	1	DUNGEON	507	n/a	1	n/a	n/a	n/a	n/a	n/a
2016.11	n/a	REC_WORD	1008055	wordpools/wasnorm_wordpool_less_exclusions.txt	LTP198	ltpFR	17	11	1	ZOO	1637	n/a	1	n/a	n/a	n/a	n/a	n/a
2019.876	n/a	REC_WORD	1009938	wordpools/wasnorm_wordpool_less_exclusions.txt	LTP198	ltpFR	17	11	1	BUBBLE	183	n/a	0	n/a	n/a	n/a	n/a	n/a
2020.918	n/a	REC_WORD	1010459	wordpools/wasnorm_wordpool_less_exclusions.txt	LTP198	ltpFR	17	11	1	TONGUE	1479	n/a	0	n/a	n/a	n/a	n/a	n/a
2023.18	n/a	REC_WORD	1011590	wordpools/wasnorm_wordpool_less_exclusions.txt	LTP198	ltpFR	17	11	1	GLUE	643	n/a	0	n/a	n/a	n/a	n/a	n/a
2026.298	n/a	REC_WORD	1013149	wordpools/wasnorm_wordpool_less_exclusions.txt	LTP198	ltpFR	17	11	1	CROCODILE	411	n/a	1	n/a	n/a	n/a	n/a	n/a
2027.35	n/a	REC_WORD	1013675	wordpools/wasnorm_wordpool_less_exclusions.txt	LTP198	ltpFR	17	11	1	TIGER	1467	n/a	1	n/a	n/a	n/a	n/a	n/a
2028.152	n/a	REC_WORD	1014076	wordpools/wasnorm_wordpool_less_exclusions.txt	LTP198	ltpFR	17	11	1	SERPENT	1270	n/a	0	n/a	n/a	n/a	n/a	n/a
2033.182	n/a	REC_WORD	1016591	wordpools/wasnorm_wordpool_less_exclusions.txt	LTP198	ltpFR	17	11	1	LAUNDRY	803	n/a	0	n/a	n/a	n/a	n/a	n/a
2034.044	n/a	REC_WORD	1017022	wordpools/wasnorm_wordpool_less_exclusions.txt	LTP198	ltpFR	17	11	1	LINT	826	n/a	0	n/a	n/a	n/a	n/a	n/a
2045.22	n/a	REC_WORD	1022610	wordpools/wasnorm_wordpool_less_exclusions.txt	LTP198	ltpFR	17	11	1	TOASTER	1472	n/a	0	n/a	n/a	n/a	n/a	n/a
2060.948	n/a	REC_WORD_VV	1030474	wordpools/wasnorm_wordpool_less_exclusions.txt	LTP198	ltpFR	17	11	n/a	<>	-1	n/a	n/a	n/a	n/a	n/a	n/a	n/a
2097.406	n/a	WORD	1048703	wordpools/wasnorm_wordpool_less_exclusions.txt	LTP198	ltpFR	17	12	-1	KITE	779	n/a	-1	1	1.0	1.0	upper	../fonts/Verdana.ttf
2101.35	n/a	WORD	1050675	wordpools/wasnorm_wordpool_less_exclusions.txt	LTP198	ltpFR	17	12	-1	FLY	586	n/a	-1	1	1.0	1.0	upper	../fonts/Verdana.ttf
2105.544	n/a	WORD	1052772	wordpools/wasnorm_wordpool_less_exclusions.txt	LTP198	ltpFR	17	12	-1	SPATULA	1348	n/a	-1	1	1.0	1.0	upper	../fonts/Verdana.ttf
2109.588	n/a	WORD	1054794	wordpools/wasnorm_wordpool_less_exclusions.txt	LTP198	ltpFR	17	12	-1	CROSS	413	n/a	-1	1	1.0	1.0	upper	../fonts/Verdana.ttf
2113.532	n/a	WORD	1056766	wordpools/wasnorm_wordpool_less_exclusions.txt	LTP198	ltpFR	17	12	-1	CLERK	321	n/a	-1	1	1.0	1.0	upper	../fonts/Verdana.ttf
2117.426	n/a	WORD	1058713	wordpools/wasnorm_wordpool_less_exclusions.txt	LTP198	ltpFR	17	12	-1	MICROWAVE	892	n/a	-1	1	1.0	1.0	upper	../fonts/Verdana.ttf
2121.486	n/a	WORD	1060743	wordpools/wasnorm_wordpool_less_exclusions.txt	LTP198	ltpFR	17	12	-1	VAMPIRE	1547	n/a	-1	1	1.0	1.0	upper	../fonts/Verdana.ttf
2125.38	n/a	WORD	1062690	wordpools/wasnorm_wordpool_less_exclusions.txt	LTP198	ltpFR	17	12	-1	SALAD	1224	n/a	-1	1	1.0	1.0	upper	../fonts/Verdana.ttf
2129.326	n/a	WORD	1064663	wordpools/wasnorm_wordpool_less_exclusions.txt	LTP198	ltpFR	17	12	-1	NAVIGATOR	938	n/a	-1	1	1.0	1.0	upper	../fonts/Verdana.ttf
2133.304	n/a	WORD	1066652	wordpools/wasnorm_wordpool_less_exclusions.txt	LTP198	ltpFR	17	12	-1	ROCKET	1202	n/a	-1	1	1.0	1.0	upper	../fonts/Verdana.ttf
2137.18	n/a	WORD	1068590	wordpools/wasnorm_wordpool_less_exclusions.txt	LTP198	ltpFR	17	12	-1	FOOT	590	n/a	-1	1	1.0	1.0	upper	../fonts/Verdana.ttf
2141.158	n/a	WORD	1070579	wordpools/wasnorm_wordpool_less_exclusions.txt	LTP198	ltpFR	17	12	-1	FLANNEL	574	n/a	-1	1	1.0	1.0	upper	../fonts/Verdana.ttf
2145.052	n/a	WORD	1072526	wordpools/wasnorm_wordpool_less_exclusions.txt	LTP198	ltpFR	17	12	-1	CAULIFLOWER	262	n/a	-1	1	1.0	1.0	upper	../fonts/Verdana.ttf
2149.046	n/a	WORD	1074523	wordpools/wasnorm_wordpool_less_exclusions.txt	LTP198	ltpFR	17	12	-1	TURNIP	1521	n/a	-1	1	1.0	1.0	upper	../fonts/Verdana.ttf
2152.89	n/a	WORD	1076445	wordpools/wasnorm_wordpool_less_exclusions.txt	LTP198	ltpFR	17	12	-1	STAPLE	1371	n/a	-1	1	1.0	1.0	upper	../fonts/Verdana.ttf
2157.052	n/a	WORD	1078526	wordpools/wasnorm_wordpool_less_exclusions.txt	LTP198	ltpFR	17	12	-1	SHIRT	1287	n/a	-1	1	1.0	1.0	upper	../fonts/Verdana.ttf
2162.678	n/a	REC_START	1081339	n/a	LTP198	ltpFR	17	12	n/a	n/a	n/a	n/a	n/a	n/a	n/a	n/a	n/a	n/a
2164.398	n/a	REC_WORD	1082199	wordpools/wasnorm_wordpool_less_exclusions.txt	LTP198	ltpFR	17	12	-1	FLANNEL	574	n/a	-1	n/a	n/a	n/a	n/a	n/a
2165.332	n/a	REC_WORD	1082666	wordpools/wasnorm_wordpool_less_exclusions.txt	LTP198	ltpFR	17	12	-1	SHIRT	1287	n/a	-1	n/a	n/a	n/a	n/a	n/a
2166.14	n/a	REC_WORD	1083070	wordpools/wasnorm_wordpool_less_exclusions.txt	LTP198	ltpFR	17	12	-1	FLY	586	n/a	-1	n/a	n/a	n/a	n/a	n/a
2167.108	n/a	REC_WORD	1083554	wordpools/wasnorm_wordpool_less_exclusions.txt	LTP198	ltpFR	17	12	-1	KITE	779	n/a	-1	n/a	n/a	n/a	n/a	n/a
2168.468	n/a	REC_WORD	1084234	wordpools/wasnorm_wordpool_less_exclusions.txt	LTP198	ltpFR	17	12	-1	SPATULA	1348	n/a	-1	n/a	n/a	n/a	n/a	n/a
2169.552	n/a	REC_WORD	1084776	wordpools/wasnorm_wordpool_less_exclusions.txt	LTP198	ltpFR	17	12	-1	MICROWAVE	892	n/a	-1	n/a	n/a	n/a	n/a	n/a
2172.574	n/a	REC_WORD	1086287	wordpools/wasnorm_wordpool_less_exclusions.txt	LTP198	ltpFR	17	12	-1	STAPLE	1371	n/a	-1	n/a	n/a	n/a	n/a	n/a
2173.796	n/a	REC_WORD	1086898	wordpools/wasnorm_wordpool_less_exclusions.txt	LTP198	ltpFR	17	12	-1	SALAD	1224	n/a	-1	n/a	n/a	n/a	n/a	n/a
2174.83	n/a	REC_WORD	1087415	wordpools/wasnorm_wordpool_less_exclusions.txt	LTP198	ltpFR	17	12	-1	TURNIP	1521	n/a	-1	n/a	n/a	n/a	n/a	n/a
2175.678	n/a	REC_WORD	1087839	wordpools/wasnorm_wordpool_less_exclusions.txt	LTP198	ltpFR	17	12	-1	CAULIFLOWER	262	n/a	-1	n/a	n/a	n/a	n/a	n/a
2179.78	n/a	REC_WORD_VV	1089890	wordpools/wasnorm_wordpool_less_exclusions.txt	LTP198	ltpFR	17	12	n/a	<>	-1	n/a	n/a	n/a	n/a	n/a	n/a	n/a
2180.392	n/a	REC_WORD_VV	1090196	wordpools/wasnorm_wordpool_less_exclusions.txt	LTP198	ltpFR	17	12	n/a	<>	-1	n/a	n/a	n/a	n/a	n/a	n/a	n/a
2181.984	n/a	REC_WORD	1090992	wordpools/wasnorm_wordpool_less_exclusions.txt	LTP198	ltpFR	17	12	-1	VAMPIRE	1547	n/a	-1	n/a	n/a	n/a	n/a	n/a
2184.138	n/a	REC_WORD	1092069	wordpools/wasnorm_wordpool_less_exclusions.txt	LTP198	ltpFR	17	12	-1	NAVIGATOR	938	n/a	-1	n/a	n/a	n/a	n/a	n/a
2185.41	n/a	REC_WORD	1092705	wordpools/wasnorm_wordpool_less_exclusions.txt	LTP198	ltpFR	17	12	-1	ROCKET	1202	n/a	-1	n/a	n/a	n/a	n/a	n/a
2186.254	n/a	REC_WORD	1093127	wordpools/wasnorm_wordpool_less_exclusions.txt	LTP198	ltpFR	17	12	-1	FOOT	590	n/a	-1	n/a	n/a	n/a	n/a	n/a
2193.168	n/a	REC_WORD	1096584	wordpools/wasnorm_wordpool_less_exclusions.txt	LTP198	ltpFR	17	12	-1	CROSS	413	n/a	-1	n/a	n/a	n/a	n/a	n/a
2238.282	n/a	REST_REWET	1119141	n/a	LTP198	ltpFR	17	12	n/a	n/a	n/a	n/a	n/a	n/a	n/a	n/a	n/a	n/a
2595.088	n/a	WORD	1297544	wordpools/wasnorm_wordpool_less_exclusions.txt	LTP198	ltpFR	17	13	-1	SKIN	1318	n/a	-1	1	1.0	1.0	upper	../fonts/Verdana.ttf
2599.232	n/a	WORD	1299616	wordpools/wasnorm_wordpool_less_exclusions.txt	LTP198	ltpFR	17	13	-1	REFEREE	1178	n/a	-1	1	1.0	1.0	upper	../fonts/Verdana.ttf
2603.208	n/a	WORD	1301604	wordpools/wasnorm_wordpool_less_exclusions.txt	LTP198	ltpFR	17	13	-1	SOFTBALL	1343	n/a	-1	1	1.0	1.0	upper	../fonts/Verdana.ttf
2607.286	n/a	WORD	1303643	wordpools/wasnorm_wordpool_less_exclusions.txt	LTP198	ltpFR	17	13	-1	SALIVA	1226	n/a	-1	1	1.0	1.0	upper	../fonts/Verdana.ttf
2611.13	n/a	WORD	1305565	wordpools/wasnorm_wordpool_less_exclusions.txt	LTP198	ltpFR	17	13	-1	BLOUSE	139	n/a	-1	1	1.0	1.0	upper	../fonts/Verdana.ttf
2615.04	n/a	WORD	1307520	wordpools/wasnorm_wordpool_less_exclusions.txt	LTP198	ltpFR	17	13	-1	NEWSSTAND	949	n/a	-1	1	1.0	1.0	upper	../fonts/Verdana.ttf
2618.902	n/a	WORD	1309451	wordpools/wasnorm_wordpool_less_exclusions.txt	LTP198	ltpFR	17	13	-1	LIP	828	n/a	-1	1	1.0	1.0	upper	../fonts/Verdana.ttf
2622.812	n/a	WORD	1311406	wordpools/wasnorm_wordpool_less_exclusions.txt	LTP198	ltpFR	17	13	-1	CLOTHES	327	n/a	-1	1	1.0	1.0	upper	../fonts/Verdana.ttf
2627.006	n/a	WORD	1313503	wordpools/wasnorm_wordpool_less_exclusions.txt	LTP198	ltpFR	17	13	-1	NAPKIN	937	n/a	-1	1	1.0	1.0	upper	../fonts/Verdana.ttf
2631.0	n/a	WORD	1315500	wordpools/wasnorm_wordpool_less_exclusions.txt	LTP198	ltpFR	17	13	-1	SHOWER	1296	n/a	-1	1	1.0	1.0	upper	../fonts/Verdana.ttf
2634.828	n/a	WORD	1317414	wordpools/wasnorm_wordpool_less_exclusions.txt	LTP198	ltpFR	17	13	-1	MAGAZINE	853	n/a	-1	1	1.0	1.0	upper	../fonts/Verdana.ttf
2638.722	n/a	WORD	1319361	wordpools/wasnorm_wordpool_less_exclusions.txt	LTP198	ltpFR	17	13	-1	RASPBERRY	1168	n/a	-1	1	1.0	1.0	upper	../fonts/Verdana.ttf
2642.632	n/a	WORD	1321316	wordpools/wasnorm_wordpool_less_exclusions.txt	LTP198	ltpFR	17	13	-1	JAM	748	n/a	-1	1	1.0	1.0	upper	../fonts/Verdana.ttf
2646.528	n/a	WORD	1323264	wordpools/wasnorm_wordpool_less_exclusions.txt	LTP198	ltpFR	17	13	-1	ELEVATOR	524	n/a	-1	1	1.0	1.0	upper	../fonts/Verdana.ttf
2650.654	n/a	WORD	1325327	wordpools/wasnorm_wordpool_less_exclusions.txt	LTP198	ltpFR	17	13	-1	CLOCK	325	n/a	-1	1	1.0	1.0	upper	../fonts/Verdana.ttf
2654.532	n/a	WORD	1327266	wordpools/wasnorm_wordpool_less_exclusions.txt	LTP198	ltpFR	17	13	-1	SIREN	1310	n/a	-1	1	1.0	1.0	upper	../fonts/Verdana.ttf
2660.358	n/a	REC_START	1330179	n/a	LTP198	ltpFR	17	13	n/a	n/a	n/a	n/a	n/a	n/a	n/a	n/a	n/a	n/a
2660.842	n/a	REC_WORD	1330421	wordpools/wasnorm_wordpool_less_exclusions.txt	LTP198	ltpFR	17	13	-1	SIREN	1310	n/a	-1	n/a	n/a	n/a	n/a	n/a
2661.756	n/a	REC_WORD	1330878	wordpools/wasnorm_wordpool_less_exclusions.txt	LTP198	ltpFR	17	13	-1	RASPBERRY	1168	n/a	-1	n/a	n/a	n/a	n/a	n/a
2662.852	n/a	REC_WORD	1331426	wordpools/wasnorm_wordpool_less_exclusions.txt	LTP198	ltpFR	17	13	-1	JAM	748	n/a	-1	n/a	n/a	n/a	n/a	n/a
2664.24	n/a	REC_WORD	1332120	wordpools/wasnorm_wordpool_less_exclusions.txt	LTP198	ltpFR	17	13	-1	NEWSSTAND	949	n/a	-1	n/a	n/a	n/a	n/a	n/a
2665.062	n/a	REC_WORD	1332531	wordpools/wasnorm_wordpool_less_exclusions.txt	LTP198	ltpFR	17	13	-1	MAGAZINE	853	n/a	-1	n/a	n/a	n/a	n/a	n/a
2666.524	n/a	REC_WORD	1333262	wordpools/wasnorm_wordpool_less_exclusions.txt	LTP198	ltpFR	17	13	-1	SOFTBALL	1343	n/a	-1	n/a	n/a	n/a	n/a	n/a
2667.702	n/a	REC_WORD	1333851	wordpools/wasnorm_wordpool_less_exclusions.txt	LTP198	ltpFR	17	13	-1	REFEREE	1178	n/a	-1	n/a	n/a	n/a	n/a	n/a
2670.404	n/a	REC_WORD	1335202	wordpools/wasnorm_wordpool_less_exclusions.txt	LTP198	ltpFR	17	13	-1	SKIN	1318	n/a	-1	n/a	n/a	n/a	n/a	n/a
2671.558	n/a	REC_WORD	1335779	wordpools/wasnorm_wordpool_less_exclusions.txt	LTP198	ltpFR	17	13	-1	BLOUSE	139	n/a	-1	n/a	n/a	n/a	n/a	n/a
2672.5	n/a	REC_WORD	1336250	wordpools/wasnorm_wordpool_less_exclusions.txt	LTP198	ltpFR	17	13	-1	CLOTHES	327	n/a	-1	n/a	n/a	n/a	n/a	n/a
2673.524	n/a	REC_WORD	1336762	wordpools/wasnorm_wordpool_less_exclusions.txt	LTP198	ltpFR	17	13	-1	SHOWER	1296	n/a	-1	n/a	n/a	n/a	n/a	n/a
2674.522	n/a	REC_WORD	1337261	wordpools/wasnorm_wordpool_less_exclusions.txt	LTP198	ltpFR	17	13	-1	ELEVATOR	524	n/a	-1	n/a	n/a	n/a	n/a	n/a
2675.668	n/a	REC_WORD	1337834	wordpools/wasnorm_wordpool_less_exclusions.txt	LTP198	ltpFR	17	13	-1	LIP	828	n/a	-1	n/a	n/a	n/a	n/a	n/a
2681.462	n/a	REC_WORD_VV	1340731	wordpools/wasnorm_wordpool_less_exclusions.txt	LTP198	ltpFR	17	13	n/a	<>	-1	n/a	n/a	n/a	n/a	n/a	n/a	n/a
2706.518	n/a	REC_WORD	1353259	wordpools/wasnorm_wordpool_less_exclusions.txt	LTP198	ltpFR	17	13	-1	SIREN	1310	n/a	-1	n/a	n/a	n/a	n/a	n/a
2712.096	n/a	REC_WORD	1356048	wordpools/wasnorm_wordpool_less_exclusions.txt	LTP198	ltpFR	17	13	-1	SALIVA	1226	n/a	-1	n/a	n/a	n/a	n/a	n/a
2753.32	n/a	WORD	1376660	wordpools/wasnorm_wordpool_less_exclusions.txt	LTP198	ltpFR	17	14	1	FAIRY	549	n/a	1	1	0.412841796875	0.57763671875	lower	../fonts/amplitud.ttf
2757.53	n/a	WORD	1378765	wordpools/wasnorm_wordpool_less_exclusions.txt	LTP198	ltpFR	17	14	1	SARDINE	1235	n/a	0	1	0.412841796875	0.57763671875	lower	../fonts/amplitud.ttf
2761.64	n/a	WORD	1380820	wordpools/wasnorm_wordpool_less_exclusions.txt	LTP198	ltpFR	17	14	1	SAILOR	1223	n/a	1	1	0.412841796875	0.57763671875	lower	../fonts/amplitud.ttf
2765.65	n/a	WORD	1382825	wordpools/wasnorm_wordpool_less_exclusions.txt	LTP198	ltpFR	17	14	1	JOINT	758	n/a	0	1	0.412841796875	0.57763671875	lower	../fonts/amplitud.ttf
2769.746	n/a	WORD	1384873	wordpools/wasnorm_wordpool_less_exclusions.txt	LTP198	ltpFR	17	14	1	FIN	566	n/a	0	1	0.412841796875	0.57763671875	lower	../fonts/amplitud.ttf
2773.654	n/a	WORD	1386827	wordpools/wasnorm_wordpool_less_exclusions.txt	LTP198	ltpFR	17	14	1	WHALE	1601	n/a	1	1	0.412841796875	0.57763671875	lower	../fonts/amplitud.ttf
2777.566	n/a	WORD	1388783	wordpools/wasnorm_wordpool_less_exclusions.txt	LTP198	ltpFR	17	14	1	ORCHESTRA	981	n/a	0	1	0.412841796875	0.57763671875	lower	../fonts/amplitud.ttf
2781.544	n/a	WORD	1390772	wordpools/wasnorm_wordpool_less_exclusions.txt	LTP198	ltpFR	17	14	1	SUGAR	1401	n/a	0	1	0.412841796875	0.57763671875	lower	../fonts/amplitud.ttf
2785.554	n/a	WORD	1392777	wordpools/wasnorm_wordpool_less_exclusions.txt	LTP198	ltpFR	17	14	1	BLENDER	136	n/a	1	1	0.412841796875	0.57763671875	lower	../fonts/amplitud.ttf
2789.632	n/a	WORD	1394816	wordpools/wasnorm_wordpool_less_exclusions.txt	LTP198	ltpFR	17	14	1	RECIPE	1175	n/a	0	1	0.412841796875	0.57763671875	lower	../fonts/amplitud.ttf
2793.576	n/a	WORD	1396788	wordpools/wasnorm_wordpool_less_exclusions.txt	LTP198	ltpFR	17	14	1	CHEEK	287	n/a	1	1	0.412841796875	0.57763671875	lower	../fonts/amplitud.ttf
2797.47	n/a	WORD	1398735	wordpools/wasnorm_wordpool_less_exclusions.txt	LTP198	ltpFR	17	14	1	DECK	443	n/a	0	1	0.412841796875	0.57763671875	lower	../fonts/amplitud.ttf
2801.364	n/a	WORD	1400682	wordpools/wasnorm_wordpool_less_exclusions.txt	LTP198	ltpFR	17	14	1	RACK	1154	n/a	0	1	0.412841796875	0.57763671875	lower	../fonts/amplitud.ttf
2805.542	n/a	WORD	1402771	wordpools/wasnorm_wordpool_less_exclusions.txt	LTP198	ltpFR	17	14	1	DESIGNER	451	n/a	1	1	0.412841796875	0.57763671875	lower	../fonts/amplitud.ttf
2809.668	n/a	WORD	1404834	wordpools/wasnorm_wordpool_less_exclusions.txt	LTP198	ltpFR	17	14	1	HEN	703	n/a	0	1	0.412841796875	0.57763671875	lower	../fonts/amplitud.ttf
2813.68	n/a	WORD	1406840	wordpools/wasnorm_wordpool_less_exclusions.txt	LTP198	ltpFR	17	14	1	MAGICIAN	854	n/a	1	1	0.412841796875	0.57763671875	lower	../fonts/amplitud.ttf
2819.756	n/a	REC_START	1409878	n/a	LTP198	ltpFR	17	14	n/a	n/a	n/a	n/a	n/a	n/a	n/a	n/a	n/a	n/a
2820.458	n/a	REC_WORD	1410229	wordpools/wasnorm_wordpool_less_exclusions.txt	LTP198	ltpFR	17	14	1	MAGICIAN	854	n/a	1	n/a	n/a	n/a	n/a	n/a
2821.356	n/a	REC_WORD	1410678	wordpools/wasnorm_wordpool_less_exclusions.txt	LTP198	ltpFR	17	14	1	HEN	703	n/a	0	n/a	n/a	n/a	n/a	n/a
2822.24	n/a	REC_WORD	1411120	wordpools/wasnorm_wordpool_less_exclusions.txt	LTP198	ltpFR	17	14	1	SAILOR	1223	n/a	1	n/a	n/a	n/a	n/a	n/a
2823.268	n/a	REC_WORD	1411634	wordpools/wasnorm_wordpool_less_exclusions.txt	LTP198	ltpFR	17	14	1	BLENDER	136	n/a	1	n/a	n/a	n/a	n/a	n/a
2823.936	n/a	REC_WORD	1411968	wordpools/wasnorm_wordpool_less_exclusions.txt	LTP198	ltpFR	17	14	1	RECIPE	1175	n/a	0	n/a	n/a	n/a	n/a	n/a
2824.888	n/a	REC_WORD	1412444	wordpools/wasnorm_wordpool_less_exclusions.txt	LTP198	ltpFR	17	14	1	SARDINE	1235	n/a	0	n/a	n/a	n/a	n/a	n/a
2825.876	n/a	REC_WORD	1412938	wordpools/wasnorm_wordpool_less_exclusions.txt	LTP198	ltpFR	17	14	1	SUGAR	1401	n/a	0	n/a	n/a	n/a	n/a	n/a
2827.866	n/a	REC_WORD	1413933	wordpools/wasnorm_wordpool_less_exclusions.txt	LTP198	ltpFR	17	14	1	WHALE	1601	n/a	1	n/a	n/a	n/a	n/a	n/a
2828.6	n/a	REC_WORD	1414300	wordpools/wasnorm_wordpool_less_exclusions.txt	LTP198	ltpFR	17	14	1	FIN	566	n/a	0	n/a	n/a	n/a	n/a	n/a
2830.49	n/a	REC_WORD	1415245	wordpools/wasnorm_wordpool_less_exclusions.txt	LTP198	ltpFR	17	14	1	CHEEK	287	n/a	1	n/a	n/a	n/a	n/a	n/a
2831.314	n/a	REC_WORD	1415657	wordpools/wasnorm_wordpool_less_exclusions.txt	LTP198	ltpFR	17	14	1	FAIRY	549	n/a	1	n/a	n/a	n/a	n/a	n/a
2838.976	n/a	REC_WORD	1419488	wordpools/wasnorm_wordpool_less_exclusions.txt	LTP198	ltpFR	17	14	1	DESIGNER	451	n/a	1	n/a	n/a	n/a	n/a	n/a
2839.694	n/a	REC_WORD	1419847	wordpools/wasnorm_wordpool_less_exclusions.txt	LTP198	ltpFR	17	14	1	ORCHESTRA	981	n/a	0	n/a	n/a	n/a	n/a	n/a
2901.432	n/a	WORD	1450716	wordpools/wasnorm_wordpool_less_exclusions.txt	LTP198	ltpFR	17	15	0	TOY	1492	n/a	0	0	0.5869140625	0.422607421875	upper	../fonts/zerothre.ttf
2905.328	n/a	WORD	1452664	wordpools/wasnorm_wordpool_less_exclusions.txt	LTP198	ltpFR	17	15	0	HAMMOCK	681	n/a	1	0	0.5869140625	0.422607421875	upper	../fonts/zerothre.ttf
2909.554	n/a	WORD	1454777	wordpools/wasnorm_wordpool_less_exclusions.txt	LTP198	ltpFR	17	15	0	MOTEL	919	n/a	1	0	0.5869140625	0.422607421875	upper	../fonts/zerothre.ttf
2913.398	n/a	WORD	1456699	wordpools/wasnorm_wordpool_less_exclusions.txt	LTP198	ltpFR	17	15	0	CLOUD	328	n/a	1	0	0.5869140625	0.422607421875	upper	../fonts/zerothre.ttf
2917.592	n/a	WORD	1458796	wordpools/wasnorm_wordpool_less_exclusions.txt	LTP198	ltpFR	17	15	0	BADGE	68	n/a	0	0	0.5869140625	0.422607421875	upper	../fonts/zerothre.ttf
2921.804	n/a	WORD	1460902	wordpools/wasnorm_wordpool_less_exclusions.txt	LTP198	ltpFR	17	15	0	DINNER	468	n/a	1	0	0.5869140625	0.422607421875	upper	../fonts/zerothre.ttf
2925.714	n/a	WORD	1462857	wordpools/wasnorm_wordpool_less_exclusions.txt	LTP198	ltpFR	17	15	0	CHILD	299	n/a	0	0	0.5869140625	0.422607421875	upper	../fonts/zerothre.ttf
2929.608	n/a	WORD	1464804	wordpools/wasnorm_wordpool_less_exclusions.txt	LTP198	ltpFR	17	15	0	WICK	1607	n/a	0	0	0.5869140625	0.422607421875	upper	../fonts/zerothre.ttf
2933.602	n/a	WORD	1466801	wordpools/wasnorm_wordpool_less_exclusions.txt	LTP198	ltpFR	17	15	0	BRIDE	173	n/a	1	0	0.5869140625	0.422607421875	upper	../fonts/zerothre.ttf
2937.53	n/a	WORD	1468765	wordpools/wasnorm_wordpool_less_exclusions.txt	LTP198	ltpFR	17	15	0	OYSTER	995	n/a	1	0	0.5869140625	0.422607421875	upper	../fonts/zerothre.ttf
2941.624	n/a	WORD	1470812	wordpools/wasnorm_wordpool_less_exclusions.txt	LTP198	ltpFR	17	15	0	LIMOUSINE	824	n/a	1	0	0.5869140625	0.422607421875	upper	../fonts/zerothre.ttf
2945.584	n/a	WORD	1472792	wordpools/wasnorm_wordpool_less_exclusions.txt	LTP198	ltpFR	17	15	0	GARAGE	621	n/a	1	0	0.5869140625	0.422607421875	upper	../fonts/zerothre.ttf
2949.694	n/a	WORD	1474847	wordpools/wasnorm_wordpool_less_exclusions.txt	LTP198	ltpFR	17	15	0	TRAY	1498	n/a	0	0	0.5869140625	0.422607421875	upper	../fonts/zerothre.ttf
2953.806	n/a	WORD	1476903	wordpools/wasnorm_wordpool_less_exclusions.txt	LTP198	ltpFR	17	15	0	PUMP	1141	n/a	1	0	0.5869140625	0.422607421875	upper	../fonts/zerothre.ttf
2957.784	n/a	WORD	1478892	wordpools/wasnorm_wordpool_less_exclusions.txt	LTP198	ltpFR	17	15	0	CACTUS	215	n/a	1	0	0.5869140625	0.422607421875	upper	../fonts/zerothre.ttf
2961.744	n/a	WORD	1480872	wordpools/wasnorm_wordpool_less_exclusions.txt	LTP198	ltpFR	17	15	0	BLOSSOM	138	n/a	1	0	0.5869140625	0.422607421875	upper	../fonts/zerothre.ttf
2967.452	n/a	REC_START	1483726	n/a	LTP198	ltpFR	17	15	n/a	n/a	n/a	n/a	n/a	n/a	n/a	n/a	n/a	n/a
2967.832	n/a	REC_WORD	1483916	wordpools/wasnorm_wordpool_less_exclusions.txt	LTP198	ltpFR	17	15	0	CACTUS	215	n/a	1	n/a	n/a	n/a	n/a	n/a
2968.494	n/a	REC_WORD	1484247	wordpools/wasnorm_wordpool_less_exclusions.txt	LTP198	ltpFR	17	15	0	BLOSSOM	138	n/a	1	n/a	n/a	n/a	n/a	n/a
2969.328	n/a	REC_WORD	1484664	wordpools/wasnorm_wordpool_less_exclusions.txt	LTP198	ltpFR	17	15	0	PUMP	1141	n/a	1	n/a	n/a	n/a	n/a	n/a
2970.29	n/a	REC_WORD	1485145	wordpools/wasnorm_wordpool_less_exclusions.txt	LTP198	ltpFR	17	15	0	TRAY	1498	n/a	0	n/a	n/a	n/a	n/a	n/a
2971.552	n/a	REC_WORD	1485776	wordpools/wasnorm_wordpool_less_exclusions.txt	LTP198	ltpFR	17	15	0	GARAGE	621	n/a	1	n/a	n/a	n/a	n/a	n/a
2974.562	n/a	REC_WORD	1487281	wordpools/wasnorm_wordpool_less_exclusions.txt	LTP198	ltpFR	17	15	0	CHILD	299	n/a	0	n/a	n/a	n/a	n/a	n/a
2976.138	n/a	REC_WORD	1488069	wordpools/wasnorm_wordpool_less_exclusions.txt	LTP198	ltpFR	17	15	0	BRIDE	173	n/a	1	n/a	n/a	n/a	n/a	n/a
2977.464	n/a	REC_WORD	1488732	wordpools/wasnorm_wordpool_less_exclusions.txt	LTP198	ltpFR	17	15	0	LIMOUSINE	824	n/a	1	n/a	n/a	n/a	n/a	n/a
2980.372	n/a	REC_WORD	1490186	wordpools/wasnorm_wordpool_less_exclusions.txt	LTP198	ltpFR	17	15	0	HAMMOCK	681	n/a	1	n/a	n/a	n/a	n/a	n/a
2981.29	n/a	REC_WORD	1490645	wordpools/wasnorm_wordpool_less_exclusions.txt	LTP198	ltpFR	17	15	0	TOY	1492	n/a	0	n/a	n/a	n/a	n/a	n/a
2982.168	n/a	REC_WORD	1491084	wordpools/wasnorm_wordpool_less_exclusions.txt	LTP198	ltpFR	17	15	0	BADGE	68	n/a	0	n/a	n/a	n/a	n/a	n/a
2985.722	n/a	REC_WORD	1492861	wordpools/wasnorm_wordpool_less_exclusions.txt	LTP198	ltpFR	17	15	0	MOTEL	919	n/a	1	n/a	n/a	n/a	n/a	n/a
2986.744	n/a	REC_WORD	1493372	wordpools/wasnorm_wordpool_less_exclusions.txt	LTP198	ltpFR	17	15	0	CLOUD	328	n/a	1	n/a	n/a	n/a	n/a	n/a
2991.06	n/a	REC_WORD	1495530	wordpools/wasnorm_wordpool_less_exclusions.txt	LTP198	ltpFR	17	15	0	TOY	1492	n/a	0	n/a	n/a	n/a	n/a	n/a
2998.622	n/a	REC_WORD	1499311	wordpools/wasnorm_wordpool_less_exclusions.txt	LTP198	ltpFR	17	15	0	OYSTER	995	n/a	1	n/a	n/a	n/a	n/a	n/a
3049.148	n/a	WORD	1524574	wordpools/wasnorm_wordpool_less_exclusions.txt	LTP198	ltpFR	17	16	0	MAT	877	n/a	0	0	0.5869140625	0.422607421875	upper	../fonts/zerothre.ttf
3053.16	n/a	WORD	1526580	wordpools/wasnorm_wordpool_less_exclusions.txt	LTP198	ltpFR	17	16	0	EAGLE	512	n/a	1	0	0.5869140625	0.422607421875	upper	../fonts/zerothre.ttf
3057.104	n/a	WORD	1528552	wordpools/wasnorm_wordpool_less_exclusions.txt	LTP198	ltpFR	17	16	1	FACTORY	548	n/a	1	1	0.412841796875	0.57763671875	lower	../fonts/amplitud.ttf
3061.232	n/a	WORD	1530616	wordpools/wasnorm_wordpool_less_exclusions.txt	LTP198	ltpFR	17	16	1	VETERAN	1561	n/a	1	1	0.412841796875	0.57763671875	lower	../fonts/amplitud.ttf
3065.192	n/a	WORD	1532596	wordpools/wasnorm_wordpool_less_exclusions.txt	LTP198	ltpFR	17	16	1	MAJOR	859	n/a	1	1	0.412841796875	0.57763671875	lower	../fonts/amplitud.ttf
3069.07	n/a	WORD	1534535	wordpools/wasnorm_wordpool_less_exclusions.txt	LTP198	ltpFR	17	16	1	DONOR	485	n/a	1	1	0.412841796875	0.57763671875	lower	../fonts/amplitud.ttf
3072.998	n/a	WORD	1536499	wordpools/wasnorm_wordpool_less_exclusions.txt	LTP198	ltpFR	17	16	1	APPLICATION	34	n/a	0	1	0.412841796875	0.57763671875	lower	../fonts/amplitud.ttf
3077.058	n/a	WORD	1538529	wordpools/wasnorm_wordpool_less_exclusions.txt	LTP198	ltpFR	17	16	1	BLUEJAY	141	n/a	1	1	0.412841796875	0.57763671875	lower	../fonts/amplitud.ttf
3081.202	n/a	WORD	1540601	wordpools/wasnorm_wordpool_less_exclusions.txt	LTP198	ltpFR	17	16	0	HAT	690	n/a	0	0	0.5869140625	0.422607421875	upper	../fonts/zerothre.ttf
3085.262	n/a	WORD	1542631	wordpools/wasnorm_wordpool_less_exclusions.txt	LTP198	ltpFR	17	16	0	LABYRINTH	791	n/a	1	0	0.5869140625	0.422607421875	upper	../fonts/zerothre.ttf
3089.388	n/a	WORD	1544694	wordpools/wasnorm_wordpool_less_exclusions.txt	LTP198	ltpFR	17	16	0	CAFETERIA	217	n/a	1	0	0.5869140625	0.422607421875	upper	../fonts/zerothre.ttf
3093.432	n/a	WORD	1546716	wordpools/wasnorm_wordpool_less_exclusions.txt	LTP198	ltpFR	17	16	0	BEE	112	n/a	0	0	0.5869140625	0.422607421875	upper	../fonts/zerothre.ttf
3097.394	n/a	WORD	1548697	wordpools/wasnorm_wordpool_less_exclusions.txt	LTP198	ltpFR	17	16	1	HONEY	713	n/a	0	1	0.412841796875	0.57763671875	lower	../fonts/amplitud.ttf
3101.338	n/a	WORD	1550669	wordpools/wasnorm_wordpool_less_exclusions.txt	LTP198	ltpFR	17	16	1	SEA	1259	n/a	1	1	0.412841796875	0.57763671875	lower	../fonts/amplitud.ttf
3105.332	n/a	WORD	1552666	wordpools/wasnorm_wordpool_less_exclusions.txt	LTP198	ltpFR	17	16	0	MARINE	869	n/a	1	0	0.5869140625	0.422607421875	upper	../fonts/zerothre.ttf
3109.492	n/a	WORD	1554746	wordpools/wasnorm_wordpool_less_exclusions.txt	LTP198	ltpFR	17	16	0	COLLAR	345	n/a	0	0	0.5869140625	0.422607421875	upper	../fonts/zerothre.ttf
3115.352	n/a	REC_START	1557676	n/a	LTP198	ltpFR	17	16	n/a	n/a	n/a	n/a	n/a	n/a	n/a	n/a	n/a	n/a
3115.93	n/a	REC_WORD	1557965	wordpools/wasnorm_wordpool_less_exclusions.txt	LTP198	ltpFR	17	16	0	MARINE	869	n/a	1	n/a	n/a	n/a	n/a	n/a
3116.752	n/a	REC_WORD	1558376	wordpools/wasnorm_wordpool_less_exclusions.txt	LTP198	ltpFR	17	16	1	SEA	1259	n/a	1	n/a	n/a	n/a	n/a	n/a
3117.82	n/a	REC_WORD	1558910	wordpools/wasnorm_wordpool_less_exclusions.txt	LTP198	ltpFR	17	16	0	COLLAR	345	n/a	0	n/a	n/a	n/a	n/a	n/a
3119.158	n/a	REC_WORD	1559579	wordpools/wasnorm_wordpool_less_exclusions.txt	LTP198	ltpFR	17	16	0	MAT	877	n/a	0	n/a	n/a	n/a	n/a	n/a
3119.862	n/a	REC_WORD	1559931	wordpools/wasnorm_wordpool_less_exclusions.txt	LTP198	ltpFR	17	16	0	HAT	690	n/a	0	n/a	n/a	n/a	n/a	n/a
3120.51	n/a	REC_WORD	1560255	wordpools/wasnorm_wordpool_less_exclusions.txt	LTP198	ltpFR	17	16	0	EAGLE	512	n/a	1	n/a	n/a	n/a	n/a	n/a
3121.558	n/a	REC_WORD	1560779	wordpools/wasnorm_wordpool_less_exclusions.txt	LTP198	ltpFR	17	16	1	FACTORY	548	n/a	1	n/a	n/a	n/a	n/a	n/a
3122.516	n/a	REC_WORD	1561258	wordpools/wasnorm_wordpool_less_exclusions.txt	LTP198	ltpFR	17	16	0	LABYRINTH	791	n/a	1	n/a	n/a	n/a	n/a	n/a
3123.31	n/a	REC_WORD	1561655	wordpools/wasnorm_wordpool_less_exclusions.txt	LTP198	ltpFR	17	16	0	CAFETERIA	217	n/a	1	n/a	n/a	n/a	n/a	n/a
3127.778	n/a	REC_WORD	1563889	wordpools/wasnorm_wordpool_less_exclusions.txt	LTP198	ltpFR	17	16	1	VETERAN	1561	n/a	1	n/a	n/a	n/a	n/a	n/a
3128.492	n/a	REC_WORD	1564246	wordpools/wasnorm_wordpool_less_exclusions.txt	LTP198	ltpFR	17	16	1	MAJOR	859	n/a	1	n/a	n/a	n/a	n/a	n/a
3129.376	n/a	REC_WORD	1564688	wordpools/wasnorm_wordpool_less_exclusions.txt	LTP198	ltpFR	17	16	1	DONOR	485	n/a	1	n/a	n/a	n/a	n/a	n/a
3130.278	n/a	REC_WORD	1565139	wordpools/wasnorm_wordpool_less_exclusions.txt	LTP198	ltpFR	17	16	1	APPLICATION	34	n/a	0	n/a	n/a	n/a	n/a	n/a
3237.738	n/a	REC_START	1618869	n/a	LTP198	ltpFR	17	1	n/a	n/a	n/a	n/a	n/a	n/a	n/a	n/a	n/a	n/a
3237.77	n/a	RECOG_TARGET	1618885	n/a	LTP198	ltpFR	17	1	0	FIREPLACE	570	5	1	n/a	n/a	n/a	n/a	n/a
3238.894	n/a	RECOG_RESP	1619447	n/a	LTP198	ltpFR	17	1	0	FIREPLACE	570	n/a	1	n/a	n/a	n/a	n/a	n/a
3239.708	n/a	RECOG_CONF	1619854	n/a	LTP198	ltpFR	17	1	0	FIREPLACE	570	5	1	n/a	n/a	n/a	n/a	n/a
3241.282	n/a	RECOG_TARGET	1620641	n/a	LTP198	ltpFR	17	1	-1	PACKAGE	997	1	-1	n/a	n/a	n/a	n/a	n/a
3241.8	n/a	RECOG_RESP	1620900	n/a	LTP198	ltpFR	17	1	-1	PACKAGE	997	n/a	-1	n/a	n/a	n/a	n/a	n/a
3242.452	n/a	RECOG_CONF	1621226	n/a	LTP198	ltpFR	17	1	-1	PACKAGE	997	1	-1	n/a	n/a	n/a	n/a	n/a
3244.026	n/a	RECOG_LURE	1622013	n/a	LTP198	ltpFR	17	1	n/a	BLUEBERRY	140	3	n/a	n/a	n/a	n/a	n/a	n/a
3244.848	n/a	RECOG_RESP	1622424	n/a	LTP198	ltpFR	17	1	n/a	BLUEBERRY	140	n/a	n/a	n/a	n/a	n/a	n/a	n/a
3245.406	n/a	RECOG_CONF	1622703	n/a	LTP198	ltpFR	17	1	n/a	BLUEBERRY	140	3	n/a	n/a	n/a	n/a	n/a	n/a
3247.04	n/a	RECOG_LURE	1623520	n/a	LTP198	ltpFR	17	1	n/a	NIGHTGOWN	953	5	n/a	n/a	n/a	n/a	n/a	n/a
3247.716	n/a	RECOG_RESP	1623858	n/a	LTP198	ltpFR	17	1	n/a	NIGHTGOWN	953	n/a	n/a	n/a	n/a	n/a	n/a	n/a
3248.178	n/a	RECOG_CONF	1624089	n/a	LTP198	ltpFR	17	1	n/a	NIGHTGOWN	953	5	n/a	n/a	n/a	n/a	n/a	n/a
3249.736	n/a	RECOG_TARGET	1624868	n/a	LTP198	ltpFR	17	1	-1	FLANNEL	574	5	-1	n/a	n/a	n/a	n/a	n/a
3250.242	n/a	RECOG_RESP	1625121	n/a	LTP198	ltpFR	17	1	-1	FLANNEL	574	n/a	-1	n/a	n/a	n/a	n/a	n/a
3250.726	n/a	RECOG_CONF	1625363	n/a	LTP198	ltpFR	17	1	-1	FLANNEL	574	5	-1	n/a	n/a	n/a	n/a	n/a
3252.348	n/a	RECOG_TARGET	1626174	n/a	LTP198	ltpFR	17	1	0	EAGLE	512	5	1	n/a	n/a	n/a	n/a	n/a
3252.824	n/a	RECOG_RESP	1626412	n/a	LTP198	ltpFR	17	1	0	EAGLE	512	n/a	1	n/a	n/a	n/a	n/a	n/a
3253.36	n/a	RECOG_CONF	1626680	n/a	LTP198	ltpFR	17	1	0	EAGLE	512	5	1	n/a	n/a	n/a	n/a	n/a
3255.028	n/a	RECOG_TARGET	1627514	n/a	LTP198	ltpFR	17	1	0	TRIBE	1505	5	1	n/a	n/a	n/a	n/a	n/a
3255.682	n/a	RECOG_RESP	1627841	n/a	LTP198	ltpFR	17	1	0	TRIBE	1505	n/a	1	n/a	n/a	n/a	n/a	n/a
3256.39	n/a	RECOG_CONF	1628195	n/a	LTP198	ltpFR	17	1	0	TRIBE	1505	5	1	n/a	n/a	n/a	n/a	n/a
3257.974	n/a	RECOG_TARGET	1628987	n/a	LTP198	ltpFR	17	1	0	PUMP	1141	5	1	n/a	n/a	n/a	n/a	n/a
3258.482	n/a	RECOG_RESP	1629241	n/a	LTP198	ltpFR	17	1	0	PUMP	1141	n/a	1	n/a	n/a	n/a	n/a	n/a
3259.014	n/a	RECOG_CONF	1629507	n/a	LTP198	ltpFR	17	1	0	PUMP	1141	5	1	n/a	n/a	n/a	n/a	n/a
3260.602	n/a	RECOG_TARGET	1630301	n/a	LTP198	ltpFR	17	1	0	SNOB	1335	5	0	n/a	n/a	n/a	n/a	n/a
3261.244	n/a	RECOG_RESP	1630622	n/a	LTP198	ltpFR	17	1	0	SNOB	1335	n/a	0	n/a	n/a	n/a	n/a	n/a
3261.716	n/a	RECOG_CONF	1630858	n/a	LTP198	ltpFR	17	1	0	SNOB	1335	5	0	n/a	n/a	n/a	n/a	n/a
3263.382	n/a	RECOG_LURE	1631691	n/a	LTP198	ltpFR	17	1	n/a	HARE	688	3	n/a	n/a	n/a	n/a	n/a	n/a
3264.024	n/a	RECOG_RESP	1632012	n/a	LTP198	ltpFR	17	1	n/a	HARE	688	n/a	n/a	n/a	n/a	n/a	n/a	n/a
3264.53	n/a	RECOG_CONF	1632265	n/a	LTP198	ltpFR	17	1	n/a	HARE	688	3	n/a	n/a	n/a	n/a	n/a	n/a
3266.212	n/a	RECOG_TARGET	1633106	n/a	LTP198	ltpFR	17	1	1	CLAMP	316	5	0	n/a	n/a	n/a	n/a	n/a
3266.748	n/a	RECOG_RESP	1633374	n/a	LTP198	ltpFR	17	1	1	CLAMP	316	n/a	0	n/a	n/a	n/a	n/a	n/a
3267.252	n/a	RECOG_CONF	1633626	n/a	LTP198	ltpFR	17	1	1	CLAMP	316	5	0	n/a	n/a	n/a	n/a	n/a
3268.808	n/a	RECOG_TARGET	1634404	n/a	LTP198	ltpFR	17	1	1	MOVIE	927	5	0	n/a	n/a	n/a	n/a	n/a
3269.42	n/a	RECOG_RESP	1634710	n/a	LTP198	ltpFR	17	1	1	MOVIE	927	n/a	0	n/a	n/a	n/a	n/a	n/a
3269.88	n/a	RECOG_CONF	1634940	n/a	LTP198	ltpFR	17	1	1	MOVIE	927	5	0	n/a	n/a	n/a	n/a	n/a
3271.502	n/a	RECOG_TARGET	1635751	n/a	LTP198	ltpFR	17	1	0	COLLAR	345	5	0	n/a	n/a	n/a	n/a	n/a
3272.252	n/a	RECOG_RESP	1636126	n/a	LTP198	ltpFR	17	1	0	COLLAR	345	n/a	0	n/a	n/a	n/a	n/a	n/a
3272.764	n/a	RECOG_CONF	1636382	n/a	LTP198	ltpFR	17	1	0	COLLAR	345	5	0	n/a	n/a	n/a	n/a	n/a
3274.35	n/a	RECOG_TARGET	1637175	n/a	LTP198	ltpFR	17	1	0	CUE	422	5	1	n/a	n/a	n/a	n/a	n/a
3274.898	n/a	RECOG_RESP	1637449	n/a	LTP198	ltpFR	17	1	0	CUE	422	n/a	1	n/a	n/a	n/a	n/a	n/a
3275.396	n/a	RECOG_CONF	1637698	n/a	LTP198	ltpFR	17	1	0	CUE	422	5	1	n/a	n/a	n/a	n/a	n/a
3277.128	n/a	RECOG_TARGET	1638564	n/a	LTP198	ltpFR	17	1	1	BASEBALL	93	5	0	n/a	n/a	n/a	n/a	n/a
3277.614	n/a	RECOG_RESP	1638807	n/a	LTP198	ltpFR	17	1	1	BASEBALL	93	n/a	0	n/a	n/a	n/a	n/a	n/a
3278.096	n/a	RECOG_CONF	1639048	n/a	LTP198	ltpFR	17	1	1	BASEBALL	93	5	0	n/a	n/a	n/a	n/a	n/a
3279.742	n/a	RECOG_TARGET	1639871	n/a	LTP198	ltpFR	17	1	0	MULE	931	5	1	n/a	n/a	n/a	n/a	n/a
3280.376	n/a	RECOG_RESP	1640188	n/a	LTP198	ltpFR	17	1	0	MULE	931	n/a	1	n/a	n/a	n/a	n/a	n/a
3280.862	n/a	RECOG_CONF	1640431	n/a	LTP198	ltpFR	17	1	0	MULE	931	5	1	n/a	n/a	n/a	n/a	n/a
3282.47	n/a	RECOG_LURE	1641235	n/a	LTP198	ltpFR	17	1	n/a	FREEWAY	603	3	n/a	n/a	n/a	n/a	n/a	n/a
3283.02	n/a	RECOG_RESP_VV	1641510	n/a	LTP198	ltpFR	17	1	n/a	FREEWAY	603	n/a	n/a	n/a	n/a	n/a	n/a	n/a
3283.448	n/a	RECOG_RESP	1641724	n/a	LTP198	ltpFR	17	1	n/a	FREEWAY	603	n/a	n/a	n/a	n/a	n/a	n/a	n/a
3283.946	n/a	RECOG_CONF	1641973	n/a	LTP198	ltpFR	17	1	n/a	FREEWAY	603	3	n/a	n/a	n/a	n/a	n/a	n/a
3285.582	n/a	RECOG_TARGET	1642791	n/a	LTP198	ltpFR	17	1	-1	SOFTBALL	1343	5	-1	n/a	n/a	n/a	n/a	n/a
3286.196	n/a	RECOG_RESP	1643098	n/a	LTP198	ltpFR	17	1	-1	SOFTBALL	1343	n/a	-1	n/a	n/a	n/a	n/a	n/a
3286.704	n/a	RECOG_CONF	1643352	n/a	LTP198	ltpFR	17	1	-1	SOFTBALL	1343	5	-1	n/a	n/a	n/a	n/a	n/a
3288.246	n/a	RECOG_TARGET	1644123	n/a	LTP198	ltpFR	17	1	0	CACTUS	215	5	1	n/a	n/a	n/a	n/a	n/a
3288.812	n/a	RECOG_RESP	1644406	n/a	LTP198	ltpFR	17	1	0	CACTUS	215	n/a	1	n/a	n/a	n/a	n/a	n/a
3289.308	n/a	RECOG_CONF	1644654	n/a	LTP198	ltpFR	17	1	0	CACTUS	215	5	1	n/a	n/a	n/a	n/a	n/a
3291.008	n/a	RECOG_LURE	1645504	n/a	LTP198	ltpFR	17	1	n/a	ALBUM	14	3	n/a	n/a	n/a	n/a	n/a	n/a
3291.674	n/a	RECOG_RESP	1645837	n/a	LTP198	ltpFR	17	1	n/a	ALBUM	14	n/a	n/a	n/a	n/a	n/a	n/a	n/a
3292.182	n/a	RECOG_CONF	1646091	n/a	LTP198	ltpFR	17	1	n/a	ALBUM	14	3	n/a	n/a	n/a	n/a	n/a	n/a
3295.334	n/a	REC_START	1647667	n/a	LTP198	ltpFR	17	2	n/a	n/a	n/a	n/a	n/a	n/a	n/a	n/a	n/a	n/a
3295.368	n/a	RECOG_TARGET	1647684	n/a	LTP198	ltpFR	17	2	0	MARINE	869	5	1	n/a	n/a	n/a	n/a	n/a
3295.976	n/a	RECOG_RESP	1647988	n/a	LTP198	ltpFR	17	2	0	MARINE	869	n/a	1	n/a	n/a	n/a	n/a	n/a
3296.478	n/a	RECOG_CONF	1648239	n/a	LTP198	ltpFR	17	2	0	MARINE	869	5	1	n/a	n/a	n/a	n/a	n/a
3298.13	n/a	RECOG_TARGET	1649065	n/a	LTP198	ltpFR	17	2	1	MARKET	871	5	1	n/a	n/a	n/a	n/a	n/a
3298.766	n/a	RECOG_RESP	1649383	n/a	LTP198	ltpFR	17	2	1	MARKET	871	n/a	1	n/a	n/a	n/a	n/a	n/a
3299.284	n/a	RECOG_CONF	1649642	n/a	LTP198	ltpFR	17	2	1	MARKET	871	5	1	n/a	n/a	n/a	n/a	n/a
3300.894	n/a	RECOG_TARGET	1650447	n/a	LTP198	ltpFR	17	2	0	DANDRUFF	439	5	0	n/a	n/a	n/a	n/a	n/a
3301.586	n/a	RECOG_RESP	1650793	n/a	LTP198	ltpFR	17	2	0	DANDRUFF	439	n/a	0	n/a	n/a	n/a	n/a	n/a
3302.11	n/a	RECOG_CONF	1651055	n/a	LTP198	ltpFR	17	2	0	DANDRUFF	439	5	0	n/a	n/a	n/a	n/a	n/a
3303.572	n/a	RECOG_TARGET	1651786	n/a	LTP198	ltpFR	17	2	-1	SKIN	1318	5	-1	n/a	n/a	n/a	n/a	n/a
3304.124	n/a	RECOG_RESP	1652062	n/a	LTP198	ltpFR	17	2	-1	SKIN	1318	n/a	-1	n/a	n/a	n/a	n/a	n/a
3304.618	n/a	RECOG_CONF	1652309	n/a	LTP198	ltpFR	17	2	-1	SKIN	1318	5	-1	n/a	n/a	n/a	n/a	n/a
3306.302	n/a	RECOG_TARGET	1653151	n/a	LTP198	ltpFR	17	2	1	FEATHER	557	5	0	n/a	n/a	n/a	n/a	n/a
3307.078	n/a	RECOG_RESP	1653539	n/a	LTP198	ltpFR	17	2	1	FEATHER	557	n/a	0	n/a	n/a	n/a	n/a	n/a
3307.552	n/a	RECOG_CONF	1653776	n/a	LTP198	ltpFR	17	2	1	FEATHER	557	5	0	n/a	n/a	n/a	n/a	n/a
3309.098	n/a	RECOG_TARGET	1654549	n/a	LTP198	ltpFR	17	2	1	CITRUS	313	5	0	n/a	n/a	n/a	n/a	n/a
3309.93	n/a	RECOG_RESP	1654965	n/a	LTP198	ltpFR	17	2	1	CITRUS	313	n/a	0	n/a	n/a	n/a	n/a	n/a
3310.366	n/a	RECOG_CONF	1655183	n/a	LTP198	ltpFR	17	2	1	CITRUS	313	5	0	n/a	n/a	n/a	n/a	n/a
3311.894	n/a	RECOG_LURE	1655947	n/a	LTP198	ltpFR	17	2	n/a	FOREHEAD	592	3	n/a	n/a	n/a	n/a	n/a	n/a
3312.596	n/a	RECOG_RESP	1656298	n/a	LTP198	ltpFR	17	2	n/a	FOREHEAD	592	n/a	n/a	n/a	n/a	n/a	n/a	n/a
3313.128	n/a	RECOG_CONF	1656564	n/a	LTP198	ltpFR	17	2	n/a	FOREHEAD	592	3	n/a	n/a	n/a	n/a	n/a	n/a
3314.838	n/a	RECOG_TARGET	1657419	n/a	LTP198	ltpFR	17	2	-1	INFANT	737	4	-1	n/a	n/a	n/a	n/a	n/a
3315.56	n/a	RECOG_RESP	1657780	n/a	LTP198	ltpFR	17	2	-1	INFANT	737	n/a	-1	n/a	n/a	n/a	n/a	n/a
3316.104	n/a	RECOG_CONF	1658052	n/a	LTP198	ltpFR	17	2	-1	INFANT	737	4	-1	n/a	n/a	n/a	n/a	n/a
3317.768	n/a	RECOG_TARGET	1658884	n/a	LTP198	ltpFR	17	2	1	NOSE	957	5	1	n/a	n/a	n/a	n/a	n/a
3318.436	n/a	RECOG_RESP	1659218	n/a	LTP198	ltpFR	17	2	1	NOSE	957	n/a	1	n/a	n/a	n/a	n/a	n/a
3318.908	n/a	RECOG_CONF	1659454	n/a	LTP198	ltpFR	17	2	1	NOSE	957	5	1	n/a	n/a	n/a	n/a	n/a
3320.48	n/a	RECOG_LURE	1660240	n/a	LTP198	ltpFR	17	2	n/a	CARROT	249	5	n/a	n/a	n/a	n/a	n/a	n/a
3321.136	n/a	RECOG_RESP	1660568	n/a	LTP198	ltpFR	17	2	n/a	CARROT	249	n/a	n/a	n/a	n/a	n/a	n/a	n/a
3321.742	n/a	RECOG_CONF	1660871	n/a	LTP198	ltpFR	17	2	n/a	CARROT	249	5	n/a	n/a	n/a	n/a	n/a	n/a
3323.36	n/a	RECOG_TARGET	1661680	n/a	LTP198	ltpFR	17	2	0	MILK	895	4	0	n/a	n/a	n/a	n/a	n/a
3323.904	n/a	RECOG_RESP	1661952	n/a	LTP198	ltpFR	17	2	0	MILK	895	n/a	0	n/a	n/a	n/a	n/a	n/a
3324.42	n/a	RECOG_CONF	1662210	n/a	LTP198	ltpFR	17	2	0	MILK	895	4	0	n/a	n/a	n/a	n/a	n/a
3326.04	n/a	RECOG_TARGET	1663020	n/a	LTP198	ltpFR	17	2	-1	CANVAS	234	5	-1	n/a	n/a	n/a	n/a	n/a
3326.72	n/a	RECOG_RESP	1663360	n/a	LTP198	ltpFR	17	2	-1	CANVAS	234	n/a	-1	n/a	n/a	n/a	n/a	n/a
3327.21	n/a	RECOG_CONF	1663605	n/a	LTP198	ltpFR	17	2	-1	CANVAS	234	5	-1	n/a	n/a	n/a	n/a	n/a
3328.936	n/a	RECOG_TARGET	1664468	n/a	LTP198	ltpFR	17	2	1	ICING	732	5	0	n/a	n/a	n/a	n/a	n/a
3329.522	n/a	RECOG_RESP	1664761	n/a	LTP198	ltpFR	17	2	1	ICING	732	n/a	0	n/a	n/a	n/a	n/a	n/a
3329.984	n/a	RECOG_CONF	1664992	n/a	LTP198	ltpFR	17	2	1	ICING	732	5	0	n/a	n/a	n/a	n/a	n/a
3331.614	n/a	RECOG_TARGET	1665807	n/a	LTP198	ltpFR	17	2	-1	SHIRT	1287	3	-1	n/a	n/a	n/a	n/a	n/a
3332.58	n/a	RECOG_RESP	1666290	n/a	LTP198	ltpFR	17	2	-1	SHIRT	1287	n/a	-1	n/a	n/a	n/a	n/a	n/a
3333.112	n/a	RECOG_CONF	1666556	n/a	LTP198	ltpFR	17	2	-1	SHIRT	1287	3	-1	n/a	n/a	n/a	n/a	n/a
3334.676	n/a	RECOG_TARGET	1667338	n/a	LTP198	ltpFR	17	2	1	FRIEND	606	5	0	n/a	n/a	n/a	n/a	n/a
3335.22	n/a	RECOG_RESP	1667610	n/a	LTP198	ltpFR	17	2	1	FRIEND	606	n/a	0	n/a	n/a	n/a	n/a	n/a
3335.716	n/a	RECOG_CONF	1667858	n/a	LTP198	ltpFR	17	2	1	FRIEND	606	5	0	n/a	n/a	n/a	n/a	n/a
3337.372	n/a	RECOG_LURE	1668686	n/a	LTP198	ltpFR	17	2	n/a	BREAD	170	1	n/a	n/a	n/a	n/a	n/a	n/a
3338.202	n/a	RECOG_RESP	1669101	n/a	LTP198	ltpFR	17	2	n/a	BREAD	170	n/a	n/a	n/a	n/a	n/a	n/a	n/a
3338.788	n/a	RECOG_CONF	1669394	n/a	LTP198	ltpFR	17	2	n/a	BREAD	170	1	n/a	n/a	n/a	n/a	n/a	n/a
3340.336	n/a	RECOG_TARGET	1670168	n/a	LTP198	ltpFR	17	2	-1	SPATULA	1348	5	-1	n/a	n/a	n/a	n/a	n/a
3340.908	n/a	RECOG_RESP	1670454	n/a	LTP198	ltpFR	17	2	-1	SPATULA	1348	n/a	-1	n/a	n/a	n/a	n/a	n/a
3341.436	n/a	RECOG_CONF	1670718	n/a	LTP198	ltpFR	17	2	-1	SPATULA	1348	5	-1	n/a	n/a	n/a	n/a	n/a
3343.014	n/a	RECOG_LURE	1671507	n/a	LTP198	ltpFR	17	2	n/a	CHAMPAGNE	278	5	n/a	n/a	n/a	n/a	n/a	n/a
3343.672	n/a	RECOG_RESP	1671836	n/a	LTP198	ltpFR	17	2	n/a	CHAMPAGNE	278	n/a	n/a	n/a	n/a	n/a	n/a	n/a
3344.124	n/a	RECOG_CONF	1672062	n/a	LTP198	ltpFR	17	2	n/a	CHAMPAGNE	278	5	n/a	n/a	n/a	n/a	n/a	n/a
3345.692	n/a	RECOG_TARGET	1672846	n/a	LTP198	ltpFR	17	2	0	CHILD	299	5	0	n/a	n/a	n/a	n/a	n/a
3346.214	n/a	RECOG_RESP	1673107	n/a	LTP198	ltpFR	17	2	0	CHILD	299	n/a	0	n/a	n/a	n/a	n/a	n/a
3346.738	n/a	RECOG_CONF	1673369	n/a	LTP198	ltpFR	17	2	0	CHILD	299	5	0	n/a	n/a	n/a	n/a	n/a
3348.274	n/a	RECOG_TARGET	1674137	n/a	LTP198	ltpFR	17	2	1	LAUNDRY	803	5	0	n/a	n/a	n/a	n/a	n/a
3348.79	n/a	RECOG_RESP	1674395	n/a	LTP198	ltpFR	17	2	1	LAUNDRY	803	n/a	0	n/a	n/a	n/a	n/a	n/a
3349.284	n/a	RECOG_CONF	1674642	n/a	LTP198	ltpFR	17	2	1	LAUNDRY	803	5	0	n/a	n/a	n/a	n/a	n/a
3353.096	n/a	REC_START	1676548	n/a	LTP198	ltpFR	17	3	n/a	n/a	n/a	n/a	n/a	n/a	n/a	n/a	n/a	n/a
3353.132	n/a	RECOG_TARGET	1676566	n/a	LTP198	ltpFR	17	3	0	CREW	406	5	1	n/a	n/a	n/a	n/a	n/a
3353.722	n/a	RECOG_RESP	1676861	n/a	LTP198	ltpFR	17	3	0	CREW	406	n/a	1	n/a	n/a	n/a	n/a	n/a
3354.196	n/a	RECOG_CONF	1677098	n/a	LTP198	ltpFR	17	3	0	CREW	406	5	1	n/a	n/a	n/a	n/a	n/a
3355.778	n/a	RECOG_TARGET	1677889	n/a	LTP198	ltpFR	17	3	1	POTTERY	1116	5	0	n/a	n/a	n/a	n/a	n/a
3356.3	n/a	RECOG_RESP	1678150	n/a	LTP198	ltpFR	17	3	1	POTTERY	1116	n/a	0	n/a	n/a	n/a	n/a	n/a
3356.762	n/a	RECOG_CONF	1678381	n/a	LTP198	ltpFR	17	3	1	POTTERY	1116	5	0	n/a	n/a	n/a	n/a	n/a
3358.408	n/a	RECOG_TARGET	1679204	n/a	LTP198	ltpFR	17	3	0	TIDE	1465	5	1	n/a	n/a	n/a	n/a	n/a
3359.086	n/a	RECOG_RESP	1679543	n/a	LTP198	ltpFR	17	3	0	TIDE	1465	n/a	1	n/a	n/a	n/a	n/a	n/a
3359.596	n/a	RECOG_CONF	1679798	n/a	LTP198	ltpFR	17	3	0	TIDE	1465	5	1	n/a	n/a	n/a	n/a	n/a
3361.088	n/a	RECOG_TARGET	1680544	n/a	LTP198	ltpFR	17	3	0	PIT	1077	5	1	n/a	n/a	n/a	n/a	n/a
3361.9	n/a	RECOG_RESP	1680950	n/a	LTP198	ltpFR	17	3	0	PIT	1077	n/a	1	n/a	n/a	n/a	n/a	n/a
3362.41	n/a	RECOG_CONF	1681205	n/a	LTP198	ltpFR	17	3	0	PIT	1077	5	1	n/a	n/a	n/a	n/a	n/a
3363.9	n/a	RECOG_LURE	1681950	n/a	LTP198	ltpFR	17	3	n/a	EUROPE	541	4	n/a	n/a	n/a	n/a	n/a	n/a
3364.474	n/a	RECOG_RESP	1682237	n/a	LTP198	ltpFR	17	3	n/a	EUROPE	541	n/a	n/a	n/a	n/a	n/a	n/a	n/a
3364.93	n/a	RECOG_CONF	1682465	n/a	LTP198	ltpFR	17	3	n/a	EUROPE	541	4	n/a	n/a	n/a	n/a	n/a	n/a
3366.512	n/a	RECOG_LURE	1683256	n/a	LTP198	ltpFR	17	3	n/a	MATTRESS	879	5	n/a	n/a	n/a	n/a	n/a	n/a
3367.142	n/a	RECOG_RESP	1683571	n/a	LTP198	ltpFR	17	3	n/a	MATTRESS	879	n/a	n/a	n/a	n/a	n/a	n/a	n/a
3367.592	n/a	RECOG_CONF	1683796	n/a	LTP198	ltpFR	17	3	n/a	MATTRESS	879	5	n/a	n/a	n/a	n/a	n/a	n/a
3369.108	n/a	RECOG_TARGET	1684554	n/a	LTP198	ltpFR	17	3	1	HERO	706	5	1	n/a	n/a	n/a	n/a	n/a
3369.62	n/a	RECOG_RESP	1684810	n/a	LTP198	ltpFR	17	3	1	HERO	706	n/a	1	n/a	n/a	n/a	n/a	n/a
3370.092	n/a	RECOG_CONF	1685046	n/a	LTP198	ltpFR	17	3	1	HERO	706	5	1	n/a	n/a	n/a	n/a	n/a
3371.754	n/a	RECOG_TARGET	1685877	n/a	LTP198	ltpFR	17	3	1	VET	1560	5	1	n/a	n/a	n/a	n/a	n/a
3372.626	n/a	RECOG_RESP	1686313	n/a	LTP198	ltpFR	17	3	1	VET	1560	n/a	1	n/a	n/a	n/a	n/a	n/a
3373.058	n/a	RECOG_CONF	1686529	n/a	LTP198	ltpFR	17	3	1	VET	1560	5	1	n/a	n/a	n/a	n/a	n/a
3374.65	n/a	RECOG_LURE	1687325	n/a	LTP198	ltpFR	17	3	n/a	TENT	1449	3	n/a	n/a	n/a	n/a	n/a	n/a
3375.284	n/a	RECOG_RESP	1687642	n/a	LTP198	ltpFR	17	3	n/a	TENT	1449	n/a	n/a	n/a	n/a	n/a	n/a	n/a
3375.734	n/a	RECOG_CONF	1687867	n/a	LTP198	ltpFR	17	3	n/a	TENT	1449	3	n/a	n/a	n/a	n/a	n/a	n/a
3377.28	n/a	RECOG_TARGET	1688640	n/a	LTP198	ltpFR	17	3	1	RACK	1154	5	0	n/a	n/a	n/a	n/a	n/a
3377.844	n/a	RECOG_RESP	1688922	n/a	LTP198	ltpFR	17	3	1	RACK	1154	n/a	0	n/a	n/a	n/a	n/a	n/a
3378.326	n/a	RECOG_CONF	1689163	n/a	LTP198	ltpFR	17	3	1	RACK	1154	5	0	n/a	n/a	n/a	n/a	n/a
3379.992	n/a	RECOG_LURE	1689996	n/a	LTP198	ltpFR	17	3	n/a	SOCKET	1340	3	n/a	n/a	n/a	n/a	n/a	n/a
3380.668	n/a	RECOG_RESP	1690334	n/a	LTP198	ltpFR	17	3	n/a	SOCKET	1340	n/a	n/a	n/a	n/a	n/a	n/a	n/a
3381.182	n/a	RECOG_CONF	1690591	n/a	LTP198	ltpFR	17	3	n/a	SOCKET	1340	3	n/a	n/a	n/a	n/a	n/a	n/a
3382.788	n/a	RECOG_TARGET	1691394	n/a	LTP198	ltpFR	17	3	0	NAIL	936	5	0	n/a	n/a	n/a	n/a	n/a
3383.262	n/a	RECOG_RESP	1691631	n/a	LTP198	ltpFR	17	3	0	NAIL	936	n/a	0	n/a	n/a	n/a	n/a	n/a
3383.8	n/a	RECOG_CONF	1691900	n/a	LTP198	ltpFR	17	3	0	NAIL	936	5	0	n/a	n/a	n/a	n/a	n/a
3385.384	n/a	RECOG_TARGET	1692692	n/a	LTP198	ltpFR	17	3	0	KLEENEX	782	5	0	n/a	n/a	n/a	n/a	n/a
3385.95	n/a	RECOG_RESP	1692975	n/a	LTP198	ltpFR	17	3	0	KLEENEX	782	n/a	0	n/a	n/a	n/a	n/a	n/a
3386.494	n/a	RECOG_CONF	1693247	n/a	LTP198	ltpFR	17	3	0	KLEENEX	782	5	0	n/a	n/a	n/a	n/a	n/a
3387.914	n/a	RECOG_TARGET	1693957	n/a	LTP198	ltpFR	17	3	-1	TORTOISE	1486	5	-1	n/a	n/a	n/a	n/a	n/a
3388.464	n/a	RECOG_RESP	1694232	n/a	LTP198	ltpFR	17	3	-1	TORTOISE	1486	n/a	-1	n/a	n/a	n/a	n/a	n/a
3389.008	n/a	RECOG_CONF	1694504	n/a	LTP198	ltpFR	17	3	-1	TORTOISE	1486	5	-1	n/a	n/a	n/a	n/a	n/a
3390.492	n/a	RECOG_TARGET	1695246	n/a	LTP198	ltpFR	17	3	-1	ICE	730	3	-1	n/a	n/a	n/a	n/a	n/a
3391.158	n/a	RECOG_RESP_VV	1695579	n/a	LTP198	ltpFR	17	3	-1	ICE	730	n/a	-1	n/a	n/a	n/a	n/a	n/a
3391.502	n/a	RECOG_RESP	1695751	n/a	LTP198	ltpFR	17	3	-1	ICE	730	n/a	-1	n/a	n/a	n/a	n/a	n/a
3392.07	n/a	RECOG_CONF	1696035	n/a	LTP198	ltpFR	17	3	-1	ICE	730	3	-1	n/a	n/a	n/a	n/a	n/a
3393.488	n/a	RECOG_LURE	1696744	n/a	LTP198	ltpFR	17	3	n/a	CHURCH	307	5	n/a	n/a	n/a	n/a	n/a	n/a
3394.18	n/a	RECOG_RESP	1697090	n/a	LTP198	ltpFR	17	3	n/a	CHURCH	307	n/a	n/a	n/a	n/a	n/a	n/a	n/a
3394.656	n/a	RECOG_CONF	1697328	n/a	LTP198	ltpFR	17	3	n/a	CHURCH	307	5	n/a	n/a	n/a	n/a	n/a	n/a
3396.17	n/a	RECOG_TARGET	1698085	n/a	LTP198	ltpFR	17	3	0	HAT	690	3	0	n/a	n/a	n/a	n/a	n/a
3396.676	n/a	RECOG_RESP	1698338	n/a	LTP198	ltpFR	17	3	0	HAT	690	n/a	0	n/a	n/a	n/a	n/a	n/a
3397.286	n/a	RECOG_CONF	1698643	n/a	LTP198	ltpFR	17	3	0	HAT	690	3	0	n/a	n/a	n/a	n/a	n/a
3398.766	n/a	RECOG_TARGET	1699383	n/a	LTP198	ltpFR	17	3	0	RESTAURANT	1187	5	1	n/a	n/a	n/a	n/a	n/a
3399.348	n/a	RECOG_RESP	1699674	n/a	LTP198	ltpFR	17	3	0	RESTAURANT	1187	n/a	1	n/a	n/a	n/a	n/a	n/a
3399.846	n/a	RECOG_CONF	1699923	n/a	LTP198	ltpFR	17	3	0	RESTAURANT	1187	5	1	n/a	n/a	n/a	n/a	n/a
3401.346	n/a	RECOG_TARGET	1700673	n/a	LTP198	ltpFR	17	3	0	TOY	1492	5	0	n/a	n/a	n/a	n/a	n/a
3401.816	n/a	RECOG_RESP	1700908	n/a	LTP198	ltpFR	17	3	0	TOY	1492	n/a	0	n/a	n/a	n/a	n/a	n/a
3402.28	n/a	RECOG_CONF	1701140	n/a	LTP198	ltpFR	17	3	0	TOY	1492	5	0	n/a	n/a	n/a	n/a	n/a
3403.774	n/a	RECOG_TARGET	1701887	n/a	LTP198	ltpFR	17	3	-1	BATH	98	5	-1	n/a	n/a	n/a	n/a	n/a
3404.45	n/a	RECOG_RESP	1702225	n/a	LTP198	ltpFR	17	3	-1	BATH	98	n/a	-1	n/a	n/a	n/a	n/a	n/a
3404.864	n/a	RECOG_CONF	1702432	n/a	LTP198	ltpFR	17	3	-1	BATH	98	5	-1	n/a	n/a	n/a	n/a	n/a
3411.82	n/a	REC_START	1705910	n/a	LTP198	ltpFR	17	4	n/a	n/a	n/a	n/a	n/a	n/a	n/a	n/a	n/a	n/a
3411.862	n/a	RECOG_TARGET	1705931	n/a	LTP198	ltpFR	17	4	1	HEADBAND	696	5	0	n/a	n/a	n/a	n/a	n/a
3412.516	n/a	RECOG_RESP	1706258	n/a	LTP198	ltpFR	17	4	1	HEADBAND	696	n/a	0	n/a	n/a	n/a	n/a	n/a
3412.992	n/a	RECOG_CONF	1706496	n/a	LTP198	ltpFR	17	4	1	HEADBAND	696	5	0	n/a	n/a	n/a	n/a	n/a
3414.542	n/a	RECOG_LURE	1707271	n/a	LTP198	ltpFR	17	4	n/a	CRATER	400	3	n/a	n/a	n/a	n/a	n/a	n/a
3415.142	n/a	RECOG_RESP	1707571	n/a	LTP198	ltpFR	17	4	n/a	CRATER	400	n/a	n/a	n/a	n/a	n/a	n/a	n/a
3415.676	n/a	RECOG_CONF	1707838	n/a	LTP198	ltpFR	17	4	n/a	CRATER	400	3	n/a	n/a	n/a	n/a	n/a	n/a
3417.272	n/a	RECOG_TARGET	1708636	n/a	LTP198	ltpFR	17	4	0	HAMMOCK	681	5	1	n/a	n/a	n/a	n/a	n/a
3417.778	n/a	RECOG_RESP	1708889	n/a	LTP198	ltpFR	17	4	0	HAMMOCK	681	n/a	1	n/a	n/a	n/a	n/a	n/a
3418.246	n/a	RECOG_CONF	1709123	n/a	LTP198	ltpFR	17	4	0	HAMMOCK	681	5	1	n/a	n/a	n/a	n/a	n/a
3419.95	n/a	RECOG_TARGET	1709975	n/a	LTP198	ltpFR	17	4	0	SUBMARINE	1398	5	1	n/a	n/a	n/a	n/a	n/a
3420.476	n/a	RECOG_RESP	1710238	n/a	LTP198	ltpFR	17	4	0	SUBMARINE	1398	n/a	1	n/a	n/a	n/a	n/a	n/a
3420.926	n/a	RECOG_CONF	1710463	n/a	LTP198	ltpFR	17	4	0	SUBMARINE	1398	5	1	n/a	n/a	n/a	n/a	n/a
3422.562	n/a	RECOG_TARGET	1711281	n/a	LTP198	ltpFR	17	4	0	HORIZON	717	5	0	n/a	n/a	n/a	n/a	n/a
3423.048	n/a	RECOG_RESP	1711524	n/a	LTP198	ltpFR	17	4	0	HORIZON	717	n/a	0	n/a	n/a	n/a	n/a	n/a
3423.516	n/a	RECOG_CONF	1711758	n/a	LTP198	ltpFR	17	4	0	HORIZON	717	5	0	n/a	n/a	n/a	n/a	n/a
3425.076	n/a	RECOG_TARGET	1712538	n/a	LTP198	ltpFR	17	4	0	TURKEY	1520	5	0	n/a	n/a	n/a	n/a	n/a
3425.59	n/a	RECOG_RESP	1712795	n/a	LTP198	ltpFR	17	4	0	TURKEY	1520	n/a	0	n/a	n/a	n/a	n/a	n/a
3426.098	n/a	RECOG_CONF	1713049	n/a	LTP198	ltpFR	17	4	0	TURKEY	1520	5	0	n/a	n/a	n/a	n/a	n/a
3427.538	n/a	RECOG_TARGET	1713769	n/a	LTP198	ltpFR	17	4	1	WHALE	1601	5	1	n/a	n/a	n/a	n/a	n/a
3428.034	n/a	RECOG_RESP	1714017	n/a	LTP198	ltpFR	17	4	1	WHALE	1601	n/a	1	n/a	n/a	n/a	n/a	n/a
3428.492	n/a	RECOG_CONF	1714246	n/a	LTP198	ltpFR	17	4	1	WHALE	1601	5	1	n/a	n/a	n/a	n/a	n/a
3430.152	n/a	RECOG_TARGET	1715076	n/a	LTP198	ltpFR	17	4	-1	JAM	748	5	-1	n/a	n/a	n/a	n/a	n/a
3430.664	n/a	RECOG_RESP	1715332	n/a	LTP198	ltpFR	17	4	-1	JAM	748	n/a	-1	n/a	n/a	n/a	n/a	n/a
3431.152	n/a	RECOG_CONF	1715576	n/a	LTP198	ltpFR	17	4	-1	JAM	748	5	-1	n/a	n/a	n/a	n/a	n/a
3432.68	n/a	RECOG_LURE	1716340	n/a	LTP198	ltpFR	17	4	n/a	KING	777	3	n/a	n/a	n/a	n/a	n/a	n/a
3433.352	n/a	RECOG_RESP	1716676	n/a	LTP198	ltpFR	17	4	n/a	KING	777	n/a	n/a	n/a	n/a	n/a	n/a	n/a
3433.896	n/a	RECOG_CONF	1716948	n/a	LTP198	ltpFR	17	4	n/a	KING	777	3	n/a	n/a	n/a	n/a	n/a	n/a
3435.36	n/a	RECOG_TARGET	1717680	n/a	LTP198	ltpFR	17	4	0	OYSTER	995	5	1	n/a	n/a	n/a	n/a	n/a
3436.034	n/a	RECOG_RESP	1718017	n/a	LTP198	ltpFR	17	4	0	OYSTER	995	n/a	1	n/a	n/a	n/a	n/a	n/a
3436.532	n/a	RECOG_CONF	1718266	n/a	LTP198	ltpFR	17	4	0	OYSTER	995	5	1	n/a	n/a	n/a	n/a	n/a
3438.256	n/a	RECOG_TARGET	1719128	n/a	LTP198	ltpFR	17	4	-1	RASPBERRY	1168	5	-1	n/a	n/a	n/a	n/a	n/a
3438.744	n/a	RECOG_RESP	1719372	n/a	LTP198	ltpFR	17	4	-1	RASPBERRY	1168	n/a	-1	n/a	n/a	n/a	n/a	n/a
3439.222	n/a	RECOG_CONF	1719611	n/a	LTP198	ltpFR	17	4	-1	RASPBERRY	1168	5	-1	n/a	n/a	n/a	n/a	n/a
3440.82	n/a	RECOG_TARGET	1720410	n/a	LTP198	ltpFR	17	4	-1	MECHANIC	884	5	-1	n/a	n/a	n/a	n/a	n/a
3441.588	n/a	RECOG_RESP	1720794	n/a	LTP198	ltpFR	17	4	-1	MECHANIC	884	n/a	-1	n/a	n/a	n/a	n/a	n/a
3442.09	n/a	RECOG_CONF	1721045	n/a	LTP198	ltpFR	17	4	-1	MECHANIC	884	5	-1	n/a	n/a	n/a	n/a	n/a
3443.614	n/a	RECOG_TARGET	1721807	n/a	LTP198	ltpFR	17	4	1	DUNGEON	507	5	1	n/a	n/a	n/a	n/a	n/a
3444.252	n/a	RECOG_RESP_VV	1722126	n/a	LTP198	ltpFR	17	4	1	DUNGEON	507	n/a	1	n/a	n/a	n/a	n/a	n/a
3444.67	n/a	RECOG_RESP	1722335	n/a	LTP198	ltpFR	17	4	1	DUNGEON	507	n/a	1	n/a	n/a	n/a	n/a	n/a
3445.19	n/a	RECOG_CONF	1722595	n/a	LTP198	ltpFR	17	4	1	DUNGEON	507	5	1	n/a	n/a	n/a	n/a	n/a
3446.728	n/a	RECOG_LURE	1723364	n/a	LTP198	ltpFR	17	4	n/a	BLOCKADE	137	3	n/a	n/a	n/a	n/a	n/a	n/a
3447.348	n/a	RECOG_RESP	1723674	n/a	LTP198	ltpFR	17	4	n/a	BLOCKADE	137	n/a	n/a	n/a	n/a	n/a	n/a	n/a
3447.83	n/a	RECOG_CONF	1723915	n/a	LTP198	ltpFR	17	4	n/a	BLOCKADE	137	3	n/a	n/a	n/a	n/a	n/a	n/a
3449.488	n/a	RECOG_TARGET	1724744	n/a	LTP198	ltpFR	17	4	0	SENATOR	1268	5	1	n/a	n/a	n/a	n/a	n/a
3450.108	n/a	RECOG_RESP	1725054	n/a	LTP198	ltpFR	17	4	0	SENATOR	1268	n/a	1	n/a	n/a	n/a	n/a	n/a
3450.552	n/a	RECOG_CONF	1725276	n/a	LTP198	ltpFR	17	4	0	SENATOR	1268	5	1	n/a	n/a	n/a	n/a	n/a
3452.036	n/a	RECOG_TARGET	1726018	n/a	LTP198	ltpFR	17	4	1	BLENDER	136	5	1	n/a	n/a	n/a	n/a	n/a
3452.636	n/a	RECOG_RESP	1726318	n/a	LTP198	ltpFR	17	4	1	BLENDER	136	n/a	1	n/a	n/a	n/a	n/a	n/a
3453.152	n/a	RECOG_CONF	1726576	n/a	LTP198	ltpFR	17	4	1	BLENDER	136	5	1	n/a	n/a	n/a	n/a	n/a
3454.714	n/a	RECOG_TARGET	1727357	n/a	LTP198	ltpFR	17	4	1	LITTER	832	5	0	n/a	n/a	n/a	n/a	n/a
3455.432	n/a	RECOG_RESP	1727716	n/a	LTP198	ltpFR	17	4	1	LITTER	832	n/a	0	n/a	n/a	n/a	n/a	n/a
3456.004	n/a	RECOG_CONF	1728002	n/a	LTP198	ltpFR	17	4	1	LITTER	832	5	0	n/a	n/a	n/a	n/a	n/a
3457.476	n/a	RECOG_TARGET	1728738	n/a	LTP198	ltpFR	17	4	-1	AUTOMOBILE	62	5	-1	n/a	n/a	n/a	n/a	n/a
3458.084	n/a	RECOG_RESP	1729042	n/a	LTP198	ltpFR	17	4	-1	AUTOMOBILE	62	n/a	-1	n/a	n/a	n/a	n/a	n/a
3458.638	n/a	RECOG_CONF	1729319	n/a	LTP198	ltpFR	17	4	-1	AUTOMOBILE	62	5	-1	n/a	n/a	n/a	n/a	n/a
3460.208	n/a	RECOG_TARGET	1730104	n/a	LTP198	ltpFR	17	4	1	TOASTER	1472	5	0	n/a	n/a	n/a	n/a	n/a
3460.736	n/a	RECOG_RESP	1730368	n/a	LTP198	ltpFR	17	4	1	TOASTER	1472	n/a	0	n/a	n/a	n/a	n/a	n/a
3461.292	n/a	RECOG_CONF	1730646	n/a	LTP198	ltpFR	17	4	1	TOASTER	1472	5	0	n/a	n/a	n/a	n/a	n/a
3462.904	n/a	RECOG_TARGET	1731452	n/a	LTP198	ltpFR	17	4	1	UNCLE	1536	5	1	n/a	n/a	n/a	n/a	n/a
3463.468	n/a	RECOG_RESP	1731734	n/a	LTP198	ltpFR	17	4	1	UNCLE	1536	n/a	1	n/a	n/a	n/a	n/a	n/a
3463.974	n/a	RECOG_CONF	1731987	n/a	LTP198	ltpFR	17	4	1	UNCLE	1536	5	1	n/a	n/a	n/a	n/a	n/a
3482.056	n/a	REC_START	1741028	n/a	LTP198	ltpFR	17	5	n/a	n/a	n/a	n/a	n/a	n/a	n/a	n/a	n/a	n/a
3482.092	n/a	RECOG_TARGET	1741046	n/a	LTP198	ltpFR	17	5	-1	MICROWAVE	892	5	-1	n/a	n/a	n/a	n/a	n/a
3482.72	n/a	RECOG_RESP	1741360	n/a	LTP198	ltpFR	17	5	-1	MICROWAVE	892	n/a	-1	n/a	n/a	n/a	n/a	n/a
3483.258	n/a	RECOG_CONF	1741629	n/a	LTP198	ltpFR	17	5	-1	MICROWAVE	892	5	-1	n/a	n/a	n/a	n/a	n/a
3484.772	n/a	RECOG_LURE	1742386	n/a	LTP198	ltpFR	17	5	n/a	PROTRACTOR	1133	5	n/a	n/a	n/a	n/a	n/a	n/a
3485.356	n/a	RECOG_RESP	1742678	n/a	LTP198	ltpFR	17	5	n/a	PROTRACTOR	1133	n/a	n/a	n/a	n/a	n/a	n/a	n/a
3485.808	n/a	RECOG_CONF	1742904	n/a	LTP198	ltpFR	17	5	n/a	PROTRACTOR	1133	5	n/a	n/a	n/a	n/a	n/a	n/a
3487.434	n/a	RECOG_TARGET	1743717	n/a	LTP198	ltpFR	17	5	1	GUARDIAN	668	5	1	n/a	n/a	n/a	n/a	n/a
3488.118	n/a	RECOG_RESP	1744059	n/a	LTP198	ltpFR	17	5	1	GUARDIAN	668	n/a	1	n/a	n/a	n/a	n/a	n/a
3488.602	n/a	RECOG_CONF	1744301	n/a	LTP198	ltpFR	17	5	1	GUARDIAN	668	5	1	n/a	n/a	n/a	n/a	n/a
3490.096	n/a	RECOG_TARGET	1745048	n/a	LTP198	ltpFR	17	5	0	SLIDE	1326	4	0	n/a	n/a	n/a	n/a	n/a
