onset	duration	trial_type	sample	stim_file	subject	experiment	session	trial	task	item_name	item_num	recog_resp	recog_conf	resp	answer	test_x	test_y	test_z	color_r	color_g	color_b	case	font
232.236	n/a	SESS_START	116118	n/a	LTP237	ltpFR	11	n/a	n/a	n/a	n/a	1	1	n/a	n/a	0	0	0	n/a	n/a	n/a	n/a	n/a
255.432	n/a	START	127716	n/a	LTP237	ltpFR	11	n/a	n/a	n/a	n/a	n/a	n/a	n/a	n/a	n/a	n/a	n/a	n/a	n/a	n/a	n/a	n/a
255.464	n/a	PROB	127732	n/a	LTP237	ltpFR	11	n/a	n/a	n/a	n/a	n/a	n/a	n/a	11	5	2	4	n/a	n/a	n/a	n/a	n/a
257.694	n/a	PROB	128847	n/a	LTP237	ltpFR	11	n/a	n/a	n/a	n/a	n/a	n/a	n/a	21	8	5	8	n/a	n/a	n/a	n/a	n/a
259.308	n/a	PROB	129654	n/a	LTP237	ltpFR	11	n/a	n/a	n/a	n/a	n/a	n/a	n/a	16	2	9	5	n/a	n/a	n/a	n/a	n/a
260.674	n/a	PROB	130337	n/a	LTP237	ltpFR	11	n/a	n/a	n/a	n/a	n/a	n/a	n/a	10	6	3	1	n/a	n/a	n/a	n/a	n/a
262.136	n/a	PROB	131068	n/a	LTP237	ltpFR	11	n/a	n/a	n/a	n/a	n/a	n/a	n/a	15	4	4	7	n/a	n/a	n/a	n/a	n/a
263.568	n/a	PROB	131784	n/a	LTP237	ltpFR	11	n/a	n/a	n/a	n/a	n/a	n/a	n/a	12	2	6	4	n/a	n/a	n/a	n/a	n/a
264.75	n/a	PROB	132375	n/a	LTP237	ltpFR	11	n/a	n/a	n/a	n/a	n/a	n/a	n/a	18	3	6	9	n/a	n/a	n/a	n/a	n/a
266.398	n/a	PROB	133199	n/a	LTP237	ltpFR	11	n/a	n/a	n/a	n/a	n/a	n/a	n/a	12	1	9	2	n/a	n/a	n/a	n/a	n/a
267.496	n/a	PROB	133748	n/a	LTP237	ltpFR	11	n/a	n/a	n/a	n/a	n/a	n/a	n/a	14	1	5	8	n/a	n/a	n/a	n/a	n/a
269.194	n/a	PROB	134597	n/a	LTP237	ltpFR	11	n/a	n/a	n/a	n/a	n/a	n/a	n/a	11	3	6	2	n/a	n/a	n/a	n/a	n/a
271.956	n/a	PROB	135978	n/a	LTP237	ltpFR	11	n/a	n/a	n/a	n/a	n/a	n/a	n/a	15	5	2	8	n/a	n/a	n/a	n/a	n/a
275.272	n/a	STOP	137636	n/a	LTP237	ltpFR	11	n/a	n/a	n/a	n/a	n/a	n/a	n/a	n/a	n/a	n/a	n/a	n/a	n/a	n/a	n/a	n/a
299.798	n/a	WORD	149899	wordpools/wasnorm_wordpool_less_exclusions.txt	LTP237	ltpFR	11	1	1	SHACK	1273	0	n/a	0	n/a	0	0	0	0.422607421875	0.5869140625	0	upper	zerothre.ttf
303.924	n/a	WORD	151962	wordpools/wasnorm_wordpool_less_exclusions.txt	LTP237	ltpFR	11	1	1	BLACKBERRY	132	n/a	n/a	0	n/a	0	0	0	0.422607421875	0.5869140625	0	upper	zerothre.ttf
308.052	n/a	WORD	154026	wordpools/wasnorm_wordpool_less_exclusions.txt	LTP237	ltpFR	11	1	1	SPOOL	1356	n/a	n/a	0	n/a	0	0	0	0.422607421875	0.5869140625	0	upper	zerothre.ttf
312.096	n/a	WORD	156048	wordpools/wasnorm_wordpool_less_exclusions.txt	LTP237	ltpFR	11	1	1	SPY	1360	n/a	n/a	1	n/a	0	0	0	0.422607421875	0.5869140625	0	upper	zerothre.ttf
316.008	n/a	WORD	158004	wordpools/wasnorm_wordpool_less_exclusions.txt	LTP237	ltpFR	11	1	1	VALVE	1546	n/a	n/a	0	n/a	0	0	0	0.422607421875	0.5869140625	0	upper	zerothre.ttf
320.218	n/a	WORD	160109	wordpools/wasnorm_wordpool_less_exclusions.txt	LTP237	ltpFR	11	1	1	FOUNTAIN	597	n/a	n/a	0	n/a	0	0	0	0.422607421875	0.5869140625	0	upper	zerothre.ttf
324.312	n/a	WORD	162156	wordpools/wasnorm_wordpool_less_exclusions.txt	LTP237	ltpFR	11	1	1	NET	946	n/a	n/a	0	n/a	0	0	0	0.422607421875	0.5869140625	0	upper	zerothre.ttf
328.24	n/a	WORD	164120	wordpools/wasnorm_wordpool_less_exclusions.txt	LTP237	ltpFR	11	1	1	SCALLOP	1242	n/a	n/a	1	n/a	0	0	0	0.422607421875	0.5869140625	0	upper	zerothre.ttf
332.368	n/a	WORD	166184	wordpools/wasnorm_wordpool_less_exclusions.txt	LTP237	ltpFR	11	1	1	VEGETABLE	1552	n/a	n/a	0	n/a	0	0	0	0.422607421875	0.5869140625	0	upper	zerothre.ttf
336.328	n/a	WORD	168164	wordpools/wasnorm_wordpool_less_exclusions.txt	LTP237	ltpFR	11	1	1	MOSQUITO	917	n/a	n/a	1	n/a	0	0	0	0.422607421875	0.5869140625	0	upper	zerothre.ttf
340.338	n/a	WORD	170169	wordpools/wasnorm_wordpool_less_exclusions.txt	LTP237	ltpFR	11	1	1	BUG	187	n/a	n/a	1	n/a	0	0	0	0.422607421875	0.5869140625	0	upper	zerothre.ttf
344.232	n/a	WORD	172116	wordpools/wasnorm_wordpool_less_exclusions.txt	LTP237	ltpFR	11	1	1	POTTERY	1116	n/a	n/a	0	n/a	0	0	0	0.422607421875	0.5869140625	0	upper	zerothre.ttf
348.444	n/a	WORD	174222	wordpools/wasnorm_wordpool_less_exclusions.txt	LTP237	ltpFR	11	1	1	PLATE	1086	n/a	n/a	0	n/a	0	0	0	0.422607421875	0.5869140625	0	upper	zerothre.ttf
352.504	n/a	WORD	176252	wordpools/wasnorm_wordpool_less_exclusions.txt	LTP237	ltpFR	11	1	1	GRASSHOPPER	656	n/a	n/a	1	n/a	0	0	0	0.422607421875	0.5869140625	0	upper	zerothre.ttf
356.698	n/a	WORD	178349	wordpools/wasnorm_wordpool_less_exclusions.txt	LTP237	ltpFR	11	1	1	CITY	314	n/a	n/a	0	n/a	0	0	0	0.422607421875	0.5869140625	0	upper	zerothre.ttf
360.84	n/a	WORD	180420	wordpools/wasnorm_wordpool_less_exclusions.txt	LTP237	ltpFR	11	1	1	DETECTIVE	454	n/a	n/a	1	n/a	0	0	0	0.422607421875	0.5869140625	0	upper	zerothre.ttf
363.852	n/a	START	181926	n/a	LTP237	ltpFR	11	n/a	n/a	n/a	n/a	n/a	n/a	n/a	n/a	n/a	n/a	n/a	n/a	n/a	n/a	n/a	n/a
364.934	n/a	PROB	182467	n/a	LTP237	ltpFR	11	n/a	n/a	n/a	n/a	n/a	n/a	n/a	21	9	4	8	n/a	n/a	n/a	n/a	n/a
367.432	n/a	PROB	183716	n/a	LTP237	ltpFR	11	n/a	n/a	n/a	n/a	n/a	n/a	n/a	8	2	3	3	n/a	n/a	n/a	n/a	n/a
369.512	n/a	PROB	184756	n/a	LTP237	ltpFR	11	n/a	n/a	n/a	n/a	n/a	n/a	n/a	13	5	6	2	n/a	n/a	n/a	n/a	n/a
371.008	n/a	STOP	185504	n/a	LTP237	ltpFR	11	n/a	n/a	n/a	n/a	n/a	n/a	n/a	n/a	n/a	n/a	n/a	n/a	n/a	n/a	n/a	n/a
373.772	n/a	REC_START	186886	n/a	LTP237	ltpFR	11	1	n/a	n/a	n/a	n/a	n/a	n/a	n/a	0	0	0	n/a	n/a	n/a	n/a	n/a
375.398	n/a	REC_WORD	187699	wordpools/wasnorm_wordpool_less_exclusions.txt	LTP237	ltpFR	11	1	1	SPOOL	1356	n/a	n/a	0	n/a	0	0	0	n/a	n/a	n/a	n/a	n/a
377.134	n/a	REC_WORD	188567	wordpools/wasnorm_wordpool_less_exclusions.txt	LTP237	ltpFR	11	1	1	SPY	1360	n/a	n/a	1	n/a	0	0	0	n/a	n/a	n/a	n/a	n/a
378.646	n/a	REC_WORD	189323	wordpools/wasnorm_wordpool_less_exclusions.txt	LTP237	ltpFR	11	1	1	BUG	187	n/a	n/a	1	n/a	0	0	0	n/a	n/a	n/a	n/a	n/a
380.236	n/a	REC_WORD	190118	wordpools/wasnorm_wordpool_less_exclusions.txt	LTP237	ltpFR	11	1	1	GRASSHOPPER	656	n/a	n/a	1	n/a	0	0	0	n/a	n/a	n/a	n/a	n/a
381.892	n/a	REC_WORD	190946	wordpools/wasnorm_wordpool_less_exclusions.txt	LTP237	ltpFR	11	1	1	MOSQUITO	917	n/a	n/a	1	n/a	0	0	0	n/a	n/a	n/a	n/a	n/a
387.186	n/a	REC_WORD	193593	wordpools/wasnorm_wordpool_less_exclusions.txt	LTP237	ltpFR	11	1	1	BLACKBERRY	132	n/a	n/a	0	n/a	0	0	0	n/a	n/a	n/a	n/a	n/a
398.216	n/a	REC_WORD	199108	wordpools/wasnorm_wordpool_less_exclusions.txt	LTP237	ltpFR	11	1	1	VEGETABLE	1552	n/a	n/a	0	n/a	0	0	0	n/a	n/a	n/a	n/a	n/a
477.586	n/a	START	238793	n/a	LTP237	ltpFR	11	n/a	n/a	n/a	n/a	n/a	n/a	n/a	n/a	n/a	n/a	n/a	n/a	n/a	n/a	n/a	n/a
479.1	n/a	PROB	239550	n/a	LTP237	ltpFR	11	n/a	n/a	n/a	n/a	n/a	n/a	n/a	7	1	3	3	n/a	n/a	n/a	n/a	n/a
480.648	n/a	PROB	240324	n/a	LTP237	ltpFR	11	n/a	n/a	n/a	n/a	n/a	n/a	n/a	21	6	6	3	n/a	n/a	n/a	n/a	n/a
482.612	n/a	PROB	241306	n/a	LTP237	ltpFR	11	n/a	n/a	n/a	n/a	n/a	n/a	n/a	10	2	7	1	n/a	n/a	n/a	n/a	n/a
484.034	n/a	STOP	242017	n/a	LTP237	ltpFR	11	n/a	n/a	n/a	n/a	n/a	n/a	n/a	n/a	n/a	n/a	n/a	n/a	n/a	n/a	n/a	n/a
486.522	n/a	WORD	243261	wordpools/wasnorm_wordpool_less_exclusions.txt	LTP237	ltpFR	11	2	0	MOP	916	n/a	n/a	0	n/a	0	0	0	0.57763671875	0.412841796875	1	lower	amplitud.ttf
489.534	n/a	START	244767	n/a	LTP237	ltpFR	11	n/a	n/a	n/a	n/a	n/a	n/a	n/a	n/a	n/a	n/a	n/a	n/a	n/a	n/a	n/a	n/a
490.566	n/a	PROB	245283	n/a	LTP237	ltpFR	11	n/a	n/a	n/a	n/a	n/a	n/a	n/a	20	8	7	5	n/a	n/a	n/a	n/a	n/a
492.68	n/a	PROB	246340	n/a	LTP237	ltpFR	11	n/a	n/a	n/a	n/a	n/a	n/a	n/a	19	9	9	1	n/a	n/a	n/a	n/a	n/a
494.378	n/a	PROB	247189	n/a	LTP237	ltpFR	11	n/a	n/a	n/a	n/a	n/a	n/a	n/a	14	4	6	4	n/a	n/a	n/a	n/a	n/a
495.824	n/a	PROB	247912	n/a	LTP237	ltpFR	11	n/a	n/a	n/a	n/a	n/a	n/a	n/a	7	1	4	2	n/a	n/a	n/a	n/a	n/a
496.922	n/a	STOP	248461	n/a	LTP237	ltpFR	11	n/a	n/a	n/a	n/a	n/a	n/a	n/a	n/a	n/a	n/a	n/a	n/a	n/a	n/a	n/a	n/a
498.688	n/a	WORD	249344	wordpools/wasnorm_wordpool_less_exclusions.txt	LTP237	ltpFR	11	2	0	SPARROW	1347	n/a	n/a	0	n/a	0	0	0	0.57763671875	0.412841796875	1	lower	amplitud.ttf
501.7	n/a	START	250850	n/a	LTP237	ltpFR	11	n/a	n/a	n/a	n/a	n/a	n/a	n/a	n/a	n/a	n/a	n/a	n/a	n/a	n/a	n/a	n/a
502.896	n/a	PROB	251448	n/a	LTP237	ltpFR	11	n/a	n/a	n/a	n/a	n/a	n/a	n/a	13	4	7	2	n/a	n/a	n/a	n/a	n/a
504.728	n/a	PROB	252364	n/a	LTP237	ltpFR	11	n/a	n/a	n/a	n/a	n/a	n/a	n/a	8	2	3	3	n/a	n/a	n/a	n/a	n/a
506.46	n/a	PROB	253230	n/a	LTP237	ltpFR	11	n/a	n/a	n/a	n/a	n/a	n/a	n/a	6	3	2	1	n/a	n/a	n/a	n/a	n/a
507.79	n/a	PROB	253895	n/a	LTP237	ltpFR	11	n/a	n/a	n/a	n/a	n/a	n/a	n/a	15	2	9	4	n/a	n/a	n/a	n/a	n/a
509.172	n/a	STOP	254586	n/a	LTP237	ltpFR	11	n/a	n/a	n/a	n/a	n/a	n/a	n/a	n/a	n/a	n/a	n/a	n/a	n/a	n/a	n/a	n/a
510.736	n/a	WORD	255368	wordpools/wasnorm_wordpool_less_exclusions.txt	LTP237	ltpFR	11	2	0	ZEBRA	1635	n/a	n/a	1	n/a	0	0	0	0.57763671875	0.412841796875	1	lower	amplitud.ttf
513.748	n/a	START	256874	n/a	LTP237	ltpFR	11	n/a	n/a	n/a	n/a	n/a	n/a	n/a	n/a	n/a	n/a	n/a	n/a	n/a	n/a	n/a	n/a
514.78	n/a	PROB	257390	n/a	LTP237	ltpFR	11	n/a	n/a	n/a	n/a	n/a	n/a	n/a	19	5	6	8	n/a	n/a	n/a	n/a	n/a
517.176	n/a	PROB	258588	n/a	LTP237	ltpFR	11	n/a	n/a	n/a	n/a	n/a	n/a	n/a	9	1	2	6	n/a	n/a	n/a	n/a	n/a
520.212	n/a	STOP	260106	n/a	LTP237	ltpFR	11	n/a	n/a	n/a	n/a	n/a	n/a	n/a	n/a	n/a	n/a	n/a	n/a	n/a	n/a	n/a	n/a
522.9	n/a	WORD	261450	wordpools/wasnorm_wordpool_less_exclusions.txt	LTP237	ltpFR	11	2	0	LIVER	833	n/a	n/a	0	n/a	0	0	0	0.57763671875	0.412841796875	1	lower	amplitud.ttf
525.912	n/a	START	262956	n/a	LTP237	ltpFR	11	n/a	n/a	n/a	n/a	n/a	n/a	n/a	n/a	n/a	n/a	n/a	n/a	n/a	n/a	n/a	n/a
527.028	n/a	PROB	263514	n/a	LTP237	ltpFR	11	n/a	n/a	n/a	n/a	n/a	n/a	n/a	22	9	8	5	n/a	n/a	n/a	n/a	n/a
530.058	n/a	PROB	265029	n/a	LTP237	ltpFR	11	n/a	n/a	n/a	n/a	n/a	n/a	n/a	13	1	4	8	n/a	n/a	n/a	n/a	n/a
531.24	n/a	PROB	265620	n/a	LTP237	ltpFR	11	n/a	n/a	n/a	n/a	n/a	n/a	n/a	9	5	2	2	n/a	n/a	n/a	n/a	n/a
532.572	n/a	STOP	266286	n/a	LTP237	ltpFR	11	n/a	n/a	n/a	n/a	n/a	n/a	n/a	n/a	n/a	n/a	n/a	n/a	n/a	n/a	n/a	n/a
535.066	n/a	WORD	267533	wordpools/wasnorm_wordpool_less_exclusions.txt	LTP237	ltpFR	11	2	0	CASHEW	253	n/a	n/a	0	n/a	0	0	0	0.57763671875	0.412841796875	1	lower	amplitud.ttf
538.08	n/a	START	269040	n/a	LTP237	ltpFR	11	n/a	n/a	n/a	n/a	n/a	n/a	n/a	n/a	n/a	n/a	n/a	n/a	n/a	n/a	n/a	n/a
539.244	n/a	PROB	269622	n/a	LTP237	ltpFR	11	n/a	n/a	n/a	n/a	n/a	n/a	n/a	9	7	1	1	n/a	n/a	n/a	n/a	n/a
540.442	n/a	PROB	270221	n/a	LTP237	ltpFR	11	n/a	n/a	n/a	n/a	n/a	n/a	n/a	15	1	8	6	n/a	n/a	n/a	n/a	n/a
542.056	n/a	PROB	271028	n/a	LTP237	ltpFR	11	n/a	n/a	n/a	n/a	n/a	n/a	n/a	15	6	4	5	n/a	n/a	n/a	n/a	n/a
544.52	n/a	PROB	272260	n/a	LTP237	ltpFR	11	n/a	n/a	n/a	n/a	n/a	n/a	n/a	5	1	3	1	n/a	n/a	n/a	n/a	n/a
545.508	n/a	STOP	272754	n/a	LTP237	ltpFR	11	n/a	n/a	n/a	n/a	n/a	n/a	n/a	n/a	n/a	n/a	n/a	n/a	n/a	n/a	n/a	n/a
547.082	n/a	WORD	273541	wordpools/wasnorm_wordpool_less_exclusions.txt	LTP237	ltpFR	11	2	0	BEAST	108	n/a	n/a	1	n/a	0	0	0	0.57763671875	0.412841796875	1	lower	amplitud.ttf
550.094	n/a	START	275047	n/a	LTP237	ltpFR	11	n/a	n/a	n/a	n/a	n/a	n/a	n/a	n/a	n/a	n/a	n/a	n/a	n/a	n/a	n/a	n/a
551.276	n/a	PROB	275638	n/a	LTP237	ltpFR	11	n/a	n/a	n/a	n/a	n/a	n/a	n/a	17	4	5	8	n/a	n/a	n/a	n/a	n/a
553.056	n/a	PROB	276528	n/a	LTP237	ltpFR	11	n/a	n/a	n/a	n/a	n/a	n/a	n/a	6	2	1	3	n/a	n/a	n/a	n/a	n/a
555.188	n/a	PROB	277594	n/a	LTP237	ltpFR	11	n/a	n/a	n/a	n/a	n/a	n/a	n/a	14	1	7	6	n/a	n/a	n/a	n/a	n/a
556.764	n/a	STOP	278382	n/a	LTP237	ltpFR	11	n/a	n/a	n/a	n/a	n/a	n/a	n/a	n/a	n/a	n/a	n/a	n/a	n/a	n/a	n/a	n/a
559.014	n/a	WORD	279507	wordpools/wasnorm_wordpool_less_exclusions.txt	LTP237	ltpFR	11	2	0	GRIZZLY	662	n/a	n/a	1	n/a	0	0	0	0.57763671875	0.412841796875	1	lower	amplitud.ttf
562.026	n/a	START	281013	n/a	LTP237	ltpFR	11	n/a	n/a	n/a	n/a	n/a	n/a	n/a	n/a	n/a	n/a	n/a	n/a	n/a	n/a	n/a	n/a
562.858	n/a	PROB	281429	n/a	LTP237	ltpFR	11	n/a	n/a	n/a	n/a	n/a	n/a	n/a	10	4	2	4	n/a	n/a	n/a	n/a	n/a
564.64	n/a	PROB	282320	n/a	LTP237	ltpFR	11	n/a	n/a	n/a	n/a	n/a	n/a	n/a	17	1	9	7	n/a	n/a	n/a	n/a	n/a
565.854	n/a	PROB	282927	n/a	LTP237	ltpFR	11	n/a	n/a	n/a	n/a	n/a	n/a	n/a	22	8	9	5	n/a	n/a	n/a	n/a	n/a
570.026	n/a	STOP	285013	n/a	LTP237	ltpFR	11	n/a	n/a	n/a	n/a	n/a	n/a	n/a	n/a	n/a	n/a	n/a	n/a	n/a	n/a	n/a	n/a
571.214	n/a	WORD	285607	wordpools/wasnorm_wordpool_less_exclusions.txt	LTP237	ltpFR	11	2	0	TRENCH	1503	n/a	n/a	1	n/a	0	0	0	0.57763671875	0.412841796875	1	lower	amplitud.ttf
574.226	n/a	START	287113	n/a	LTP237	ltpFR	11	n/a	n/a	n/a	n/a	n/a	n/a	n/a	n/a	n/a	n/a	n/a	n/a	n/a	n/a	n/a	n/a
575.19	n/a	PROB	287595	n/a	LTP237	ltpFR	11	n/a	n/a	n/a	n/a	n/a	n/a	n/a	15	6	5	4	n/a	n/a	n/a	n/a	n/a
577.802	n/a	PROB	288901	n/a	LTP237	ltpFR	11	n/a	n/a	n/a	n/a	n/a	n/a	n/a	13	3	9	1	n/a	n/a	n/a	n/a	n/a
579.982	n/a	PROB	289991	n/a	LTP237	ltpFR	11	n/a	n/a	n/a	n/a	n/a	n/a	n/a	19	5	5	9	n/a	n/a	n/a	n/a	n/a
581.132	n/a	STOP	290566	n/a	LTP237	ltpFR	11	n/a	n/a	n/a	n/a	n/a	n/a	n/a	n/a	n/a	n/a	n/a	n/a	n/a	n/a	n/a	n/a
583.212	n/a	WORD	291606	wordpools/wasnorm_wordpool_less_exclusions.txt	LTP237	ltpFR	11	2	0	ROOF	1205	n/a	n/a	1	n/a	0	0	0	0.57763671875	0.412841796875	1	lower	amplitud.ttf
586.224	n/a	START	293112	n/a	LTP237	ltpFR	11	n/a	n/a	n/a	n/a	n/a	n/a	n/a	n/a	n/a	n/a	n/a	n/a	n/a	n/a	n/a	n/a
587.138	n/a	PROB	293569	n/a	LTP237	ltpFR	11	n/a	n/a	n/a	n/a	n/a	n/a	n/a	17	7	5	7	n/a	n/a	n/a	n/a	n/a
589.652	n/a	PROB	294826	n/a	LTP237	ltpFR	11	n/a	n/a	n/a	n/a	n/a	n/a	n/a	10	5	2	3	n/a	n/a	n/a	n/a	n/a
593.892	n/a	STOP	296946	n/a	LTP237	ltpFR	11	n/a	n/a	n/a	n/a	n/a	n/a	n/a	n/a	n/a	n/a	n/a	n/a	n/a	n/a	n/a	n/a
595.06	n/a	WORD	297530	wordpools/wasnorm_wordpool_less_exclusions.txt	LTP237	ltpFR	11	2	0	SHELTER	1282	n/a	n/a	1	n/a	0	0	0	0.57763671875	0.412841796875	1	lower	amplitud.ttf
598.072	n/a	START	299036	n/a	LTP237	ltpFR	11	n/a	n/a	n/a	n/a	n/a	n/a	n/a	n/a	n/a	n/a	n/a	n/a	n/a	n/a	n/a	n/a
598.922	n/a	PROB	299461	n/a	LTP237	ltpFR	11	n/a	n/a	n/a	n/a	n/a	n/a	n/a	12	2	4	6	n/a	n/a	n/a	n/a	n/a
600.204	n/a	PROB	300102	n/a	LTP237	ltpFR	11	n/a	n/a	n/a	n/a	n/a	n/a	n/a	9	5	3	1	n/a	n/a	n/a	n/a	n/a
601.37	n/a	PROB	300685	n/a	LTP237	ltpFR	11	n/a	n/a	n/a	n/a	n/a	n/a	n/a	12	1	4	7	n/a	n/a	n/a	n/a	n/a
602.8	n/a	PROB	301400	n/a	LTP237	ltpFR	11	n/a	n/a	n/a	n/a	n/a	n/a	n/a	15	5	2	8	n/a	n/a	n/a	n/a	n/a
606.074	n/a	STOP	303037	n/a	LTP237	ltpFR	11	n/a	n/a	n/a	n/a	n/a	n/a	n/a	n/a	n/a	n/a	n/a	n/a	n/a	n/a	n/a	n/a
607.076	n/a	WORD	303538	wordpools/wasnorm_wordpool_less_exclusions.txt	LTP237	ltpFR	11	2	0	PARROT	1015	n/a	n/a	0	n/a	0	0	0	0.57763671875	0.412841796875	1	lower	amplitud.ttf
610.09	n/a	START	305045	n/a	LTP237	ltpFR	11	n/a	n/a	n/a	n/a	n/a	n/a	n/a	n/a	n/a	n/a	n/a	n/a	n/a	n/a	n/a	n/a
611.288	n/a	PROB	305644	n/a	LTP237	ltpFR	11	n/a	n/a	n/a	n/a	n/a	n/a	n/a	16	6	3	7	n/a	n/a	n/a	n/a	n/a
613.302	n/a	PROB	306651	n/a	LTP237	ltpFR	11	n/a	n/a	n/a	n/a	n/a	n/a	n/a	15	5	6	4	n/a	n/a	n/a	n/a	n/a
614.266	n/a	PROB	307133	n/a	LTP237	ltpFR	11	n/a	n/a	n/a	n/a	n/a	n/a	n/a	26	9	8	9	n/a	n/a	n/a	n/a	n/a
616.248	n/a	PROB	308124	n/a	LTP237	ltpFR	11	n/a	n/a	n/a	n/a	n/a	n/a	n/a	6	1	1	4	n/a	n/a	n/a	n/a	n/a
617.534	n/a	STOP	308767	n/a	LTP237	ltpFR	11	n/a	n/a	n/a	n/a	n/a	n/a	n/a	n/a	n/a	n/a	n/a	n/a	n/a	n/a	n/a	n/a
619.242	n/a	WORD	309621	wordpools/wasnorm_wordpool_less_exclusions.txt	LTP237	ltpFR	11	2	0	STEREO	1378	n/a	n/a	1	n/a	0	0	0	0.57763671875	0.412841796875	1	lower	amplitud.ttf
622.256	n/a	START	311128	n/a	LTP237	ltpFR	11	n/a	n/a	n/a	n/a	n/a	n/a	n/a	n/a	n/a	n/a	n/a	n/a	n/a	n/a	n/a	n/a
623.12	n/a	PROB	311560	n/a	LTP237	ltpFR	11	n/a	n/a	n/a	n/a	n/a	n/a	n/a	14	5	1	8	n/a	n/a	n/a	n/a	n/a
624.618	n/a	PROB	312309	n/a	LTP237	ltpFR	11	n/a	n/a	n/a	n/a	n/a	n/a	n/a	9	2	1	6	n/a	n/a	n/a	n/a	n/a
626.182	n/a	PROB	313091	n/a	LTP237	ltpFR	11	n/a	n/a	n/a	n/a	n/a	n/a	n/a	1	6	9	1	n/a	n/a	n/a	n/a	n/a
627.13	n/a	PROB	313565	n/a	LTP237	ltpFR	11	n/a	n/a	n/a	n/a	n/a	n/a	n/a	19	9	3	7	n/a	n/a	n/a	n/a	n/a
629.148	n/a	STOP	314574	n/a	LTP237	ltpFR	11	n/a	n/a	n/a	n/a	n/a	n/a	n/a	n/a	n/a	n/a	n/a	n/a	n/a	n/a	n/a	n/a
631.308	n/a	WORD	315654	wordpools/wasnorm_wordpool_less_exclusions.txt	LTP237	ltpFR	11	2	0	PIT	1077	n/a	n/a	1	n/a	0	0	0	0.57763671875	0.412841796875	1	lower	amplitud.ttf
634.32	n/a	START	317160	n/a	LTP237	ltpFR	11	n/a	n/a	n/a	n/a	n/a	n/a	n/a	n/a	n/a	n/a	n/a	n/a	n/a	n/a	n/a	n/a
635.302	n/a	PROB	317651	n/a	LTP237	ltpFR	11	n/a	n/a	n/a	n/a	n/a	n/a	n/a	11	6	1	4	n/a	n/a	n/a	n/a	n/a
636.566	n/a	PROB	318283	n/a	LTP237	ltpFR	11	n/a	n/a	n/a	n/a	n/a	n/a	n/a	15	7	5	3	n/a	n/a	n/a	n/a	n/a
637.616	n/a	PROB	318808	n/a	LTP237	ltpFR	11	n/a	n/a	n/a	n/a	n/a	n/a	n/a	14	4	8	2	n/a	n/a	n/a	n/a	n/a
638.88	n/a	PROB	319440	n/a	LTP237	ltpFR	11	n/a	n/a	n/a	n/a	n/a	n/a	n/a	14	5	2	7	n/a	n/a	n/a	n/a	n/a
640.228	n/a	PROB	320114	n/a	LTP237	ltpFR	11	n/a	n/a	n/a	n/a	n/a	n/a	n/a	7	1	3	3	n/a	n/a	n/a	n/a	n/a
642.182	n/a	STOP	321091	n/a	LTP237	ltpFR	11	n/a	n/a	n/a	n/a	n/a	n/a	n/a	n/a	n/a	n/a	n/a	n/a	n/a	n/a	n/a	n/a
643.44	n/a	WORD	321720	wordpools/wasnorm_wordpool_less_exclusions.txt	LTP237	ltpFR	11	2	0	LAUNDRY	803	n/a	n/a	1	n/a	0	0	0	0.57763671875	0.412841796875	1	lower	amplitud.ttf
646.452	n/a	START	323226	n/a	LTP237	ltpFR	11	n/a	n/a	n/a	n/a	n/a	n/a	n/a	n/a	n/a	n/a	n/a	n/a	n/a	n/a	n/a	n/a
647.484	n/a	PROB	323742	n/a	LTP237	ltpFR	11	n/a	n/a	n/a	n/a	n/a	n/a	n/a	12	2	3	7	n/a	n/a	n/a	n/a	n/a
648.548	n/a	PROB	324274	n/a	LTP237	ltpFR	11	n/a	n/a	n/a	n/a	n/a	n/a	n/a	15	9	5	1	n/a	n/a	n/a	n/a	n/a
649.862	n/a	PROB	324931	n/a	LTP237	ltpFR	11	n/a	n/a	n/a	n/a	n/a	n/a	n/a	18	9	1	8	n/a	n/a	n/a	n/a	n/a
653.044	n/a	STOP	326522	n/a	LTP237	ltpFR	11	n/a	n/a	n/a	n/a	n/a	n/a	n/a	n/a	n/a	n/a	n/a	n/a	n/a	n/a	n/a	n/a
655.556	n/a	WORD	327778	wordpools/wasnorm_wordpool_less_exclusions.txt	LTP237	ltpFR	11	2	0	DOCK	477	n/a	n/a	1	n/a	0	0	0	0.57763671875	0.412841796875	1	lower	amplitud.ttf
658.568	n/a	START	329284	n/a	LTP237	ltpFR	11	n/a	n/a	n/a	n/a	n/a	n/a	n/a	n/a	n/a	n/a	n/a	n/a	n/a	n/a	n/a	n/a
659.716	n/a	PROB	329858	n/a	LTP237	ltpFR	11	n/a	n/a	n/a	n/a	n/a	n/a	n/a	18	9	7	2	n/a	n/a	n/a	n/a	n/a
661.414	n/a	PROB	330707	n/a	LTP237	ltpFR	11	n/a	n/a	n/a	n/a	n/a	n/a	n/a	11	2	4	5	n/a	n/a	n/a	n/a	n/a
666.568	n/a	STOP	333284	n/a	LTP237	ltpFR	11	n/a	n/a	n/a	n/a	n/a	n/a	n/a	n/a	n/a	n/a	n/a	n/a	n/a	n/a	n/a	n/a
667.604	n/a	WORD	333802	wordpools/wasnorm_wordpool_less_exclusions.txt	LTP237	ltpFR	11	2	0	VIKING	1565	n/a	n/a	1	n/a	0	0	0	0.57763671875	0.412841796875	1	lower	amplitud.ttf
670.616	n/a	START	335308	n/a	LTP237	ltpFR	11	n/a	n/a	n/a	n/a	n/a	n/a	n/a	n/a	n/a	n/a	n/a	n/a	n/a	n/a	n/a	n/a
671.598	n/a	PROB	335799	n/a	LTP237	ltpFR	11	n/a	n/a	n/a	n/a	n/a	n/a	n/a	15	4	9	2	n/a	n/a	n/a	n/a	n/a
672.962	n/a	PROB	336481	n/a	LTP237	ltpFR	11	n/a	n/a	n/a	n/a	n/a	n/a	n/a	17	2	7	8	n/a	n/a	n/a	n/a	n/a
674.81	n/a	PROB	337405	n/a	LTP237	ltpFR	11	n/a	n/a	n/a	n/a	n/a	n/a	n/a	8	5	2	1	n/a	n/a	n/a	n/a	n/a
675.958	n/a	PROB	337979	n/a	LTP237	ltpFR	11	n/a	n/a	n/a	n/a	n/a	n/a	n/a	20	8	6	6	n/a	n/a	n/a	n/a	n/a
677.654	n/a	STOP	338827	n/a	LTP237	ltpFR	11	n/a	n/a	n/a	n/a	n/a	n/a	n/a	n/a	n/a	n/a	n/a	n/a	n/a	n/a	n/a	n/a
680.502	n/a	REC_START	340251	n/a	LTP237	ltpFR	11	2	n/a	n/a	n/a	n/a	n/a	n/a	n/a	0	0	0	n/a	n/a	n/a	n/a	n/a
682.582	n/a	REC_WORD	341291	wordpools/wasnorm_wordpool_less_exclusions.txt	LTP237	ltpFR	11	2	0	MOP	916	n/a	n/a	0	n/a	0	0	0	n/a	n/a	n/a	n/a	n/a
684.294	n/a	REC_WORD	342147	wordpools/wasnorm_wordpool_less_exclusions.txt	LTP237	ltpFR	11	2	0	PARROT	1015	n/a	n/a	0	n/a	0	0	0	n/a	n/a	n/a	n/a	n/a
686.892	n/a	REC_WORD	343446	wordpools/wasnorm_wordpool_less_exclusions.txt	LTP237	ltpFR	11	2	0	BEAST	108	n/a	n/a	1	n/a	0	0	0	n/a	n/a	n/a	n/a	n/a
688.224	n/a	REC_WORD	344112	wordpools/wasnorm_wordpool_less_exclusions.txt	LTP237	ltpFR	11	2	0	GRIZZLY	662	n/a	n/a	1	n/a	0	0	0	n/a	n/a	n/a	n/a	n/a
693.712	n/a	REC_WORD	346856	wordpools/wasnorm_wordpool_less_exclusions.txt	LTP237	ltpFR	11	2	0	ZEBRA	1635	n/a	n/a	1	n/a	0	0	0	n/a	n/a	n/a	n/a	n/a
699.174	n/a	REC_WORD	349587	wordpools/wasnorm_wordpool_less_exclusions.txt	LTP237	ltpFR	11	2	0	ROOF	1205	n/a	n/a	1	n/a	0	0	0	n/a	n/a	n/a	n/a	n/a
701.908	n/a	REC_WORD	350954	wordpools/wasnorm_wordpool_less_exclusions.txt	LTP237	ltpFR	11	2	0	SHELTER	1282	n/a	n/a	1	n/a	0	0	0	n/a	n/a	n/a	n/a	n/a
712.32	n/a	REC_WORD	356160	wordpools/wasnorm_wordpool_less_exclusions.txt	LTP237	ltpFR	11	2	0	PIT	1077	n/a	n/a	1	n/a	0	0	0	n/a	n/a	n/a	n/a	n/a
714.09	n/a	REC_WORD	357045	wordpools/wasnorm_wordpool_less_exclusions.txt	LTP237	ltpFR	11	2	0	TRENCH	1503	n/a	n/a	1	n/a	0	0	0	n/a	n/a	n/a	n/a	n/a
773.382	n/a	START	386691	n/a	LTP237	ltpFR	11	n/a	n/a	n/a	n/a	n/a	n/a	n/a	n/a	n/a	n/a	n/a	n/a	n/a	n/a	n/a	n/a
774.894	n/a	PROB	387447	n/a	LTP237	ltpFR	11	n/a	n/a	n/a	n/a	n/a	n/a	n/a	15	4	6	5	n/a	n/a	n/a	n/a	n/a
776.226	n/a	PROB	388113	n/a	LTP237	ltpFR	11	n/a	n/a	n/a	n/a	n/a	n/a	n/a	8	3	3	2	n/a	n/a	n/a	n/a	n/a
777.358	n/a	PROB	388679	n/a	LTP237	ltpFR	11	n/a	n/a	n/a	n/a	n/a	n/a	n/a	15	8	1	7	n/a	n/a	n/a	n/a	n/a
779.206	n/a	PROB	389603	n/a	LTP237	ltpFR	11	n/a	n/a	n/a	n/a	n/a	n/a	n/a	14	2	6	6	n/a	n/a	n/a	n/a	n/a
780.91	n/a	STOP	390455	n/a	LTP237	ltpFR	11	n/a	n/a	n/a	n/a	n/a	n/a	n/a	n/a	n/a	n/a	n/a	n/a	n/a	n/a	n/a	n/a
782.534	n/a	WORD	391267	wordpools/wasnorm_wordpool_less_exclusions.txt	LTP237	ltpFR	11	3	0	CARPENTER	246	n/a	n/a	1	n/a	0	0	0	0.57763671875	0.412841796875	1	lower	amplitud.ttf
785.546	n/a	START	392773	n/a	LTP237	ltpFR	11	n/a	n/a	n/a	n/a	n/a	n/a	n/a	n/a	n/a	n/a	n/a	n/a	n/a	n/a	n/a	n/a
786.644	n/a	PROB	393322	n/a	LTP237	ltpFR	11	n/a	n/a	n/a	n/a	n/a	n/a	n/a	8	4	2	2	n/a	n/a	n/a	n/a	n/a
788.242	n/a	PROB	394121	n/a	LTP237	ltpFR	11	n/a	n/a	n/a	n/a	n/a	n/a	n/a	15	3	6	6	n/a	n/a	n/a	n/a	n/a
789.624	n/a	PROB	394812	n/a	LTP237	ltpFR	11	n/a	n/a	n/a	n/a	n/a	n/a	n/a	14	7	6	1	n/a	n/a	n/a	n/a	n/a
791.254	n/a	PROB	395627	n/a	LTP237	ltpFR	11	n/a	n/a	n/a	n/a	n/a	n/a	n/a	17	6	9	2	n/a	n/a	n/a	n/a	n/a
792.536	n/a	STOP	396268	n/a	LTP237	ltpFR	11	n/a	n/a	n/a	n/a	n/a	n/a	n/a	n/a	n/a	n/a	n/a	n/a	n/a	n/a	n/a	n/a
794.666	n/a	WORD	397333	wordpools/wasnorm_wordpool_less_exclusions.txt	LTP237	ltpFR	11	3	0	PIANO	1057	n/a	n/a	1	n/a	0	0	0	0.57763671875	0.412841796875	1	lower	amplitud.ttf
797.678	n/a	START	398839	n/a	LTP237	ltpFR	11	n/a	n/a	n/a	n/a	n/a	n/a	n/a	n/a	n/a	n/a	n/a	n/a	n/a	n/a	n/a	n/a
798.576	n/a	PROB	399288	n/a	LTP237	ltpFR	11	n/a	n/a	n/a	n/a	n/a	n/a	n/a	14	4	9	1	n/a	n/a	n/a	n/a	n/a
799.658	n/a	PROB	399829	n/a	LTP237	ltpFR	11	n/a	n/a	n/a	n/a	n/a	n/a	n/a	8	4	2	2	n/a	n/a	n/a	n/a	n/a
801.122	n/a	PROB	400561	n/a	LTP237	ltpFR	11	n/a	n/a	n/a	n/a	n/a	n/a	n/a	10	8	1	1	n/a	n/a	n/a	n/a	n/a
802.222	n/a	PROB	401111	n/a	LTP237	ltpFR	11	n/a	n/a	n/a	n/a	n/a	n/a	n/a	17	7	9	1	n/a	n/a	n/a	n/a	n/a
803.336	n/a	PROB	401668	n/a	LTP237	ltpFR	11	n/a	n/a	n/a	n/a	n/a	n/a	n/a	17	9	3	5	n/a	n/a	n/a	n/a	n/a
804.998	n/a	STOP	402499	n/a	LTP237	ltpFR	11	n/a	n/a	n/a	n/a	n/a	n/a	n/a	n/a	n/a	n/a	n/a	n/a	n/a	n/a	n/a	n/a
806.748	n/a	WORD	403374	wordpools/wasnorm_wordpool_less_exclusions.txt	LTP237	ltpFR	11	3	0	FRIAR	605	n/a	n/a	0	n/a	0	0	0	0.57763671875	0.412841796875	1	lower	amplitud.ttf
809.76	n/a	START	404880	n/a	LTP237	ltpFR	11	n/a	n/a	n/a	n/a	n/a	n/a	n/a	n/a	n/a	n/a	n/a	n/a	n/a	n/a	n/a	n/a
810.676	n/a	PROB	405338	n/a	LTP237	ltpFR	11	n/a	n/a	n/a	n/a	n/a	n/a	n/a	10	1	8	1	n/a	n/a	n/a	n/a	n/a
811.74	n/a	PROB	405870	n/a	LTP237	ltpFR	11	n/a	n/a	n/a	n/a	n/a	n/a	n/a	10	4	4	2	n/a	n/a	n/a	n/a	n/a
812.972	n/a	PROB	406486	n/a	LTP237	ltpFR	11	n/a	n/a	n/a	n/a	n/a	n/a	n/a	12	2	2	8	n/a	n/a	n/a	n/a	n/a
814.336	n/a	PROB	407168	n/a	LTP237	ltpFR	11	n/a	n/a	n/a	n/a	n/a	n/a	n/a	20	7	7	6	n/a	n/a	n/a	n/a	n/a
816.034	n/a	PROB	408017	n/a	LTP237	ltpFR	11	n/a	n/a	n/a	n/a	n/a	n/a	n/a	8	4	2	2	n/a	n/a	n/a	n/a	n/a
817.056	n/a	STOP	408528	n/a	LTP237	ltpFR	11	n/a	n/a	n/a	n/a	n/a	n/a	n/a	n/a	n/a	n/a	n/a	n/a	n/a	n/a	n/a	n/a
818.914	n/a	WORD	409457	wordpools/wasnorm_wordpool_less_exclusions.txt	LTP237	ltpFR	11	3	1	BIRD	129	n/a	n/a	1	n/a	0	0	0	0.422607421875	0.5869140625	0	upper	zerothre.ttf
821.926	n/a	START	410963	n/a	LTP237	ltpFR	11	n/a	n/a	n/a	n/a	n/a	n/a	n/a	n/a	n/a	n/a	n/a	n/a	n/a	n/a	n/a	n/a
822.874	n/a	PROB	411437	n/a	LTP237	ltpFR	11	n/a	n/a	n/a	n/a	n/a	n/a	n/a	20	7	7	6	n/a	n/a	n/a	n/a	n/a
824.356	n/a	PROB	412178	n/a	LTP237	ltpFR	11	n/a	n/a	n/a	n/a	n/a	n/a	n/a	20	4	8	8	n/a	n/a	n/a	n/a	n/a
826.036	n/a	PROB	413018	n/a	LTP237	ltpFR	11	n/a	n/a	n/a	n/a	n/a	n/a	n/a	14	5	6	3	n/a	n/a	n/a	n/a	n/a
827.884	n/a	PROB	413942	n/a	LTP237	ltpFR	11	n/a	n/a	n/a	n/a	n/a	n/a	n/a	15	3	9	3	n/a	n/a	n/a	n/a	n/a
829.088	n/a	STOP	414544	n/a	LTP237	ltpFR	11	n/a	n/a	n/a	n/a	n/a	n/a	n/a	n/a	n/a	n/a	n/a	n/a	n/a	n/a	n/a	n/a
830.912	n/a	WORD	415456	wordpools/wasnorm_wordpool_less_exclusions.txt	LTP237	ltpFR	11	3	1	NOTE	958	n/a	n/a	0	n/a	0	0	0	0.422607421875	0.5869140625	0	upper	zerothre.ttf
833.924	n/a	START	416962	n/a	LTP237	ltpFR	11	n/a	n/a	n/a	n/a	n/a	n/a	n/a	n/a	n/a	n/a	n/a	n/a	n/a	n/a	n/a	n/a
834.772	n/a	PROB	417386	n/a	LTP237	ltpFR	11	n/a	n/a	n/a	n/a	n/a	n/a	n/a	1	1	5	3	n/a	n/a	n/a	n/a	n/a
837.736	n/a	PROB	418868	n/a	LTP237	ltpFR	11	n/a	n/a	n/a	n/a	n/a	n/a	n/a	15	6	5	4	n/a	n/a	n/a	n/a	n/a
839.716	n/a	PROB	419858	n/a	LTP237	ltpFR	11	n/a	n/a	n/a	n/a	n/a	n/a	n/a	18	3	9	5	n/a	n/a	n/a	n/a	n/a
841.32	n/a	STOP	420660	n/a	LTP237	ltpFR	11	n/a	n/a	n/a	n/a	n/a	n/a	n/a	n/a	n/a	n/a	n/a	n/a	n/a	n/a	n/a	n/a
842.746	n/a	WORD	421373	wordpools/wasnorm_wordpool_less_exclusions.txt	LTP237	ltpFR	11	3	1	CONVENT	370	n/a	n/a	0	n/a	0	0	0	0.422607421875	0.5869140625	0	upper	zerothre.ttf
845.756	n/a	START	422878	n/a	LTP237	ltpFR	11	n/a	n/a	n/a	n/a	n/a	n/a	n/a	n/a	n/a	n/a	n/a	n/a	n/a	n/a	n/a	n/a
846.838	n/a	PROB	423419	n/a	LTP237	ltpFR	11	n/a	n/a	n/a	n/a	n/a	n/a	n/a	16	2	6	8	n/a	n/a	n/a	n/a	n/a
847.954	n/a	PROB	423977	n/a	LTP237	ltpFR	11	n/a	n/a	n/a	n/a	n/a	n/a	n/a	8	1	6	1	n/a	n/a	n/a	n/a	n/a
848.818	n/a	PROB	424409	n/a	LTP237	ltpFR	11	n/a	n/a	n/a	n/a	n/a	n/a	n/a	22	8	6	8	n/a	n/a	n/a	n/a	n/a
850.866	n/a	PROB	425433	n/a	LTP237	ltpFR	11	n/a	n/a	n/a	n/a	n/a	n/a	n/a	14	8	2	4	n/a	n/a	n/a	n/a	n/a
852.2	n/a	STOP	426100	n/a	LTP237	ltpFR	11	n/a	n/a	n/a	n/a	n/a	n/a	n/a	n/a	n/a	n/a	n/a	n/a	n/a	n/a	n/a	n/a
854.744	n/a	WORD	427372	wordpools/wasnorm_wordpool_less_exclusions.txt	LTP237	ltpFR	11	3	1	BADGE	68	n/a	n/a	0	n/a	0	0	0	0.422607421875	0.5869140625	0	upper	zerothre.ttf
857.756	n/a	START	428878	n/a	LTP237	ltpFR	11	n/a	n/a	n/a	n/a	n/a	n/a	n/a	n/a	n/a	n/a	n/a	n/a	n/a	n/a	n/a	n/a
858.722	n/a	PROB	429361	n/a	LTP237	ltpFR	11	n/a	n/a	n/a	n/a	n/a	n/a	n/a	16	1	6	9	n/a	n/a	n/a	n/a	n/a
860.236	n/a	PROB	430118	n/a	LTP237	ltpFR	11	n/a	n/a	n/a	n/a	n/a	n/a	n/a	17	4	5	8	n/a	n/a	n/a	n/a	n/a
862.132	n/a	PROB	431066	n/a	LTP237	ltpFR	11	n/a	n/a	n/a	n/a	n/a	n/a	n/a	15	6	1	8	n/a	n/a	n/a	n/a	n/a
863.846	n/a	PROB	431923	n/a	LTP237	ltpFR	11	n/a	n/a	n/a	n/a	n/a	n/a	n/a	11	1	3	7	n/a	n/a	n/a	n/a	n/a
865.456	n/a	STOP	432728	n/a	LTP237	ltpFR	11	n/a	n/a	n/a	n/a	n/a	n/a	n/a	n/a	n/a	n/a	n/a	n/a	n/a	n/a	n/a	n/a
866.726	n/a	WORD	433363	wordpools/wasnorm_wordpool_less_exclusions.txt	LTP237	ltpFR	11	3	1	GUARD	667	n/a	n/a	0	n/a	0	0	0	0.422607421875	0.5869140625	0	upper	zerothre.ttf
869.738	n/a	START	434869	n/a	LTP237	ltpFR	11	n/a	n/a	n/a	n/a	n/a	n/a	n/a	n/a	n/a	n/a	n/a	n/a	n/a	n/a	n/a	n/a
870.636	n/a	PROB	435318	n/a	LTP237	ltpFR	11	n/a	n/a	n/a	n/a	n/a	n/a	n/a	15	6	2	7	n/a	n/a	n/a	n/a	n/a
872.584	n/a	PROB	436292	n/a	LTP237	ltpFR	11	n/a	n/a	n/a	n/a	n/a	n/a	n/a	13	5	6	2	n/a	n/a	n/a	n/a	n/a
875.612	n/a	PROB	437806	n/a	LTP237	ltpFR	11	n/a	n/a	n/a	n/a	n/a	n/a	n/a	18	7	3	8	n/a	n/a	n/a	n/a	n/a
876.952	n/a	STOP	438476	n/a	LTP237	ltpFR	11	n/a	n/a	n/a	n/a	n/a	n/a	n/a	n/a	n/a	n/a	n/a	n/a	n/a	n/a	n/a	n/a
878.906	n/a	WORD	439453	wordpools/wasnorm_wordpool_less_exclusions.txt	LTP237	ltpFR	11	3	0	VEHICLE	1553	n/a	n/a	1	n/a	0	0	0	0.57763671875	0.412841796875	1	lower	amplitud.ttf
881.92	n/a	START	440960	n/a	LTP237	ltpFR	11	n/a	n/a	n/a	n/a	n/a	n/a	n/a	n/a	n/a	n/a	n/a	n/a	n/a	n/a	n/a	n/a
882.752	n/a	PROB	441376	n/a	LTP237	ltpFR	11	n/a	n/a	n/a	n/a	n/a	n/a	n/a	15	4	3	8	n/a	n/a	n/a	n/a	n/a
884.334	n/a	PROB	442167	n/a	LTP237	ltpFR	11	n/a	n/a	n/a	n/a	n/a	n/a	n/a	13	1	9	3	n/a	n/a	n/a	n/a	n/a
885.632	n/a	PROB	442816	n/a	LTP237	ltpFR	11	n/a	n/a	n/a	n/a	n/a	n/a	n/a	13	4	6	3	n/a	n/a	n/a	n/a	n/a
886.846	n/a	PROB	443423	n/a	LTP237	ltpFR	11	n/a	n/a	n/a	n/a	n/a	n/a	n/a	10	2	5	3	n/a	n/a	n/a	n/a	n/a
888.178	n/a	PROB	444089	n/a	LTP237	ltpFR	11	n/a	n/a	n/a	n/a	n/a	n/a	n/a	19	7	5	7	n/a	n/a	n/a	n/a	n/a
889.45	n/a	STOP	444725	n/a	LTP237	ltpFR	11	n/a	n/a	n/a	n/a	n/a	n/a	n/a	n/a	n/a	n/a	n/a	n/a	n/a	n/a	n/a	n/a
891.074	n/a	WORD	445537	wordpools/wasnorm_wordpool_less_exclusions.txt	LTP237	ltpFR	11	3	0	CAB	209	n/a	n/a	1	n/a	0	0	0	0.57763671875	0.412841796875	1	lower	amplitud.ttf
894.086	n/a	START	447043	n/a	LTP237	ltpFR	11	n/a	n/a	n/a	n/a	n/a	n/a	n/a	n/a	n/a	n/a	n/a	n/a	n/a	n/a	n/a	n/a
894.9	n/a	PROB	447450	n/a	LTP237	ltpFR	11	n/a	n/a	n/a	n/a	n/a	n/a	n/a	13	1	8	4	n/a	n/a	n/a	n/a	n/a
897.896	n/a	PROB	448948	n/a	LTP237	ltpFR	11	n/a	n/a	n/a	n/a	n/a	n/a	n/a	20	9	8	3	n/a	n/a	n/a	n/a	n/a
899.494	n/a	PROB	449747	n/a	LTP237	ltpFR	11	n/a	n/a	n/a	n/a	n/a	n/a	n/a	26	9	9	8	n/a	n/a	n/a	n/a	n/a
901.104	n/a	STOP	450552	n/a	LTP237	ltpFR	11	n/a	n/a	n/a	n/a	n/a	n/a	n/a	n/a	n/a	n/a	n/a	n/a	n/a	n/a	n/a	n/a
903.006	n/a	WORD	451503	wordpools/wasnorm_wordpool_less_exclusions.txt	LTP237	ltpFR	11	3	0	INTESTINE	742	n/a	n/a	1	n/a	0	0	0	0.57763671875	0.412841796875	1	lower	amplitud.ttf
906.018	n/a	START	453009	n/a	LTP237	ltpFR	11	n/a	n/a	n/a	n/a	n/a	n/a	n/a	n/a	n/a	n/a	n/a	n/a	n/a	n/a	n/a	n/a
906.85	n/a	PROB	453425	n/a	LTP237	ltpFR	11	n/a	n/a	n/a	n/a	n/a	n/a	n/a	3	1	1	1	n/a	n/a	n/a	n/a	n/a
907.782	n/a	PROB	453891	n/a	LTP237	ltpFR	11	n/a	n/a	n/a	n/a	n/a	n/a	n/a	13	5	1	7	n/a	n/a	n/a	n/a	n/a
909.396	n/a	PROB	454698	n/a	LTP237	ltpFR	11	n/a	n/a	n/a	n/a	n/a	n/a	n/a	13	7	4	2	n/a	n/a	n/a	n/a	n/a
911.328	n/a	PROB	455664	n/a	LTP237	ltpFR	11	n/a	n/a	n/a	n/a	n/a	n/a	n/a	11	7	1	3	n/a	n/a	n/a	n/a	n/a
912.952	n/a	STOP	456476	n/a	LTP237	ltpFR	11	n/a	n/a	n/a	n/a	n/a	n/a	n/a	n/a	n/a	n/a	n/a	n/a	n/a	n/a	n/a	n/a
914.938	n/a	WORD	457469	wordpools/wasnorm_wordpool_less_exclusions.txt	LTP237	ltpFR	11	3	0	ROOT	1210	n/a	n/a	0	n/a	0	0	0	0.57763671875	0.412841796875	1	lower	amplitud.ttf
917.95	n/a	START	458975	n/a	LTP237	ltpFR	11	n/a	n/a	n/a	n/a	n/a	n/a	n/a	n/a	n/a	n/a	n/a	n/a	n/a	n/a	n/a	n/a
918.882	n/a	PROB	459441	n/a	LTP237	ltpFR	11	n/a	n/a	n/a	n/a	n/a	n/a	n/a	12	2	4	6	n/a	n/a	n/a	n/a	n/a
920.18	n/a	PROB	460090	n/a	LTP237	ltpFR	11	n/a	n/a	n/a	n/a	n/a	n/a	n/a	15	1	7	7	n/a	n/a	n/a	n/a	n/a
922.394	n/a	PROB	461197	n/a	LTP237	ltpFR	11	n/a	n/a	n/a	n/a	n/a	n/a	n/a	11	2	6	3	n/a	n/a	n/a	n/a	n/a
924.848	n/a	STOP	462424	n/a	LTP237	ltpFR	11	n/a	n/a	n/a	n/a	n/a	n/a	n/a	n/a	n/a	n/a	n/a	n/a	n/a	n/a	n/a	n/a
926.97	n/a	WORD	463485	wordpools/wasnorm_wordpool_less_exclusions.txt	LTP237	ltpFR	11	3	0	PATRIOT	1026	n/a	n/a	1	n/a	0	0	0	0.57763671875	0.412841796875	1	lower	amplitud.ttf
929.982	n/a	START	464991	n/a	LTP237	ltpFR	11	n/a	n/a	n/a	n/a	n/a	n/a	n/a	n/a	n/a	n/a	n/a	n/a	n/a	n/a	n/a	n/a
930.964	n/a	PROB	465482	n/a	LTP237	ltpFR	11	n/a	n/a	n/a	n/a	n/a	n/a	n/a	12	1	7	4	n/a	n/a	n/a	n/a	n/a
933.66	n/a	PROB	466830	n/a	LTP237	ltpFR	11	n/a	n/a	n/a	n/a	n/a	n/a	n/a	9	5	1	3	n/a	n/a	n/a	n/a	n/a
935.14	n/a	PROB	467570	n/a	LTP237	ltpFR	11	n/a	n/a	n/a	n/a	n/a	n/a	n/a	15	4	7	4	n/a	n/a	n/a	n/a	n/a
937.618	n/a	STOP	468809	n/a	LTP237	ltpFR	11	n/a	n/a	n/a	n/a	n/a	n/a	n/a	n/a	n/a	n/a	n/a	n/a	n/a	n/a	n/a	n/a
938.852	n/a	WORD	469426	wordpools/wasnorm_wordpool_less_exclusions.txt	LTP237	ltpFR	11	3	1	MILITARY	894	n/a	n/a	1	n/a	0	0	0	0.422607421875	0.5869140625	0	upper	zerothre.ttf
941.864	n/a	START	470932	n/a	LTP237	ltpFR	11	n/a	n/a	n/a	n/a	n/a	n/a	n/a	n/a	n/a	n/a	n/a	n/a	n/a	n/a	n/a	n/a
943.028	n/a	PROB	471514	n/a	LTP237	ltpFR	11	n/a	n/a	n/a	n/a	n/a	n/a	n/a	19	8	4	7	n/a	n/a	n/a	n/a	n/a
944.728	n/a	PROB	472364	n/a	LTP237	ltpFR	11	n/a	n/a	n/a	n/a	n/a	n/a	n/a	10	3	2	5	n/a	n/a	n/a	n/a	n/a
946.574	n/a	PROB	473287	n/a	LTP237	ltpFR	11	n/a	n/a	n/a	n/a	n/a	n/a	n/a	16	4	5	7	n/a	n/a	n/a	n/a	n/a
948.022	n/a	PROB	474011	n/a	LTP237	ltpFR	11	n/a	n/a	n/a	n/a	n/a	n/a	n/a	12	5	5	2	n/a	n/a	n/a	n/a	n/a
949.072	n/a	STOP	474536	n/a	LTP237	ltpFR	11	n/a	n/a	n/a	n/a	n/a	n/a	n/a	n/a	n/a	n/a	n/a	n/a	n/a	n/a	n/a	n/a
950.918	n/a	WORD	475459	wordpools/wasnorm_wordpool_less_exclusions.txt	LTP237	ltpFR	11	3	1	PLUMBER	1091	n/a	n/a	1	n/a	0	0	0	0.422607421875	0.5869140625	0	upper	zerothre.ttf
953.93	n/a	START	476965	n/a	LTP237	ltpFR	11	n/a	n/a	n/a	n/a	n/a	n/a	n/a	n/a	n/a	n/a	n/a	n/a	n/a	n/a	n/a	n/a
954.912	n/a	PROB	477456	n/a	LTP237	ltpFR	11	n/a	n/a	n/a	n/a	n/a	n/a	n/a	9	2	1	6	n/a	n/a	n/a	n/a	n/a
956.444	n/a	PROB	478222	n/a	LTP237	ltpFR	11	n/a	n/a	n/a	n/a	n/a	n/a	n/a	16	2	8	6	n/a	n/a	n/a	n/a	n/a
957.642	n/a	PROB	478821	n/a	LTP237	ltpFR	11	n/a	n/a	n/a	n/a	n/a	n/a	n/a	4	1	2	1	n/a	n/a	n/a	n/a	n/a
958.872	n/a	PROB	479436	n/a	LTP237	ltpFR	11	n/a	n/a	n/a	n/a	n/a	n/a	n/a	21	5	8	8	n/a	n/a	n/a	n/a	n/a
960.994	n/a	STOP	480497	n/a	LTP237	ltpFR	11	n/a	n/a	n/a	n/a	n/a	n/a	n/a	n/a	n/a	n/a	n/a	n/a	n/a	n/a	n/a	n/a
962.916	n/a	WORD	481458	wordpools/wasnorm_wordpool_less_exclusions.txt	LTP237	ltpFR	11	3	1	BABY	64	n/a	n/a	1	n/a	0	0	0	0.422607421875	0.5869140625	0	upper	zerothre.ttf
965.93	n/a	START	482965	n/a	LTP237	ltpFR	11	n/a	n/a	n/a	n/a	n/a	n/a	n/a	n/a	n/a	n/a	n/a	n/a	n/a	n/a	n/a	n/a
966.828	n/a	PROB	483414	n/a	LTP237	ltpFR	11	n/a	n/a	n/a	n/a	n/a	n/a	n/a	17	1	9	7	n/a	n/a	n/a	n/a	n/a
968.026	n/a	PROB	484013	n/a	LTP237	ltpFR	11	n/a	n/a	n/a	n/a	n/a	n/a	n/a	16	6	7	3	n/a	n/a	n/a	n/a	n/a
969.208	n/a	PROB	484604	n/a	LTP237	ltpFR	11	n/a	n/a	n/a	n/a	n/a	n/a	n/a	13	2	9	2	n/a	n/a	n/a	n/a	n/a
970.69	n/a	PROB	485345	n/a	LTP237	ltpFR	11	n/a	n/a	n/a	n/a	n/a	n/a	n/a	17	9	3	5	n/a	n/a	n/a	n/a	n/a
972.386	n/a	STOP	486193	n/a	LTP237	ltpFR	11	n/a	n/a	n/a	n/a	n/a	n/a	n/a	n/a	n/a	n/a	n/a	n/a	n/a	n/a	n/a	n/a
975.814	n/a	REC_START	487907	n/a	LTP237	ltpFR	11	3	n/a	n/a	n/a	n/a	n/a	n/a	n/a	0	0	0	n/a	n/a	n/a	n/a	n/a
977.75	n/a	REC_WORD	488875	wordpools/wasnorm_wordpool_less_exclusions.txt	LTP237	ltpFR	11	3	1	MILITARY	894	n/a	n/a	1	n/a	0	0	0	n/a	n/a	n/a	n/a	n/a
978.938	n/a	REC_WORD	489469	wordpools/wasnorm_wordpool_less_exclusions.txt	LTP237	ltpFR	11	3	1	BABY	64	n/a	n/a	1	n/a	0	0	0	n/a	n/a	n/a	n/a	n/a
980.414	n/a	REC_WORD	490207	wordpools/wasnorm_wordpool_less_exclusions.txt	LTP237	ltpFR	11	3	0	FRIAR	605	n/a	n/a	0	n/a	0	0	0	n/a	n/a	n/a	n/a	n/a
1061.388	n/a	WORD	530694	wordpools/wasnorm_wordpool_less_exclusions.txt	LTP237	ltpFR	11	4	1	CIGAR	308	n/a	n/a	0	n/a	0	0	0	0.422607421875	0.5869140625	0	upper	zerothre.ttf
1065.416	n/a	WORD	532708	wordpools/wasnorm_wordpool_less_exclusions.txt	LTP237	ltpFR	11	4	1	FRAGRANCE	599	n/a	n/a	0	n/a	0	0	0	0.422607421875	0.5869140625	0	upper	zerothre.ttf
1069.51	n/a	WORD	534755	wordpools/wasnorm_wordpool_less_exclusions.txt	LTP237	ltpFR	11	4	0	FATHER	554	n/a	n/a	1	n/a	0	0	0	0.57763671875	0.412841796875	1	lower	amplitud.ttf
1073.504	n/a	WORD	536752	wordpools/wasnorm_wordpool_less_exclusions.txt	LTP237	ltpFR	11	4	0	SNACK	1331	n/a	n/a	0	n/a	0	0	0	0.57763671875	0.412841796875	1	lower	amplitud.ttf
1077.68	n/a	WORD	538840	wordpools/wasnorm_wordpool_less_exclusions.txt	LTP237	ltpFR	11	4	0	CAFETERIA	217	n/a	n/a	1	n/a	0	0	0	0.57763671875	0.412841796875	1	lower	amplitud.ttf
1081.692	n/a	WORD	540846	wordpools/wasnorm_wordpool_less_exclusions.txt	LTP237	ltpFR	11	4	0	CHEEK	287	n/a	n/a	0	n/a	0	0	0	0.57763671875	0.412841796875	1	lower	amplitud.ttf
1085.736	n/a	WORD	542868	wordpools/wasnorm_wordpool_less_exclusions.txt	LTP237	ltpFR	11	4	1	SWAMP	1416	n/a	n/a	0	n/a	0	0	0	0.422607421875	0.5869140625	0	upper	zerothre.ttf
1089.878	n/a	WORD	544939	wordpools/wasnorm_wordpool_less_exclusions.txt	LTP237	ltpFR	11	4	1	PARENT	1013	n/a	n/a	1	n/a	0	0	0	0.422607421875	0.5869140625	0	upper	zerothre.ttf
1093.872	n/a	WORD	546936	wordpools/wasnorm_wordpool_less_exclusions.txt	LTP237	ltpFR	11	4	1	GENERAL	630	n/a	n/a	1	n/a	0	0	0	0.422607421875	0.5869140625	0	upper	zerothre.ttf
1097.832	n/a	WORD	548916	wordpools/wasnorm_wordpool_less_exclusions.txt	LTP237	ltpFR	11	4	1	KNEE	784	n/a	n/a	0	n/a	0	0	0	0.422607421875	0.5869140625	0	upper	zerothre.ttf
1101.678	n/a	WORD	550839	wordpools/wasnorm_wordpool_less_exclusions.txt	LTP237	ltpFR	11	4	1	WATERFALL	1595	n/a	n/a	0	n/a	0	0	0	0.422607421875	0.5869140625	0	upper	zerothre.ttf
1105.822	n/a	WORD	552911	wordpools/wasnorm_wordpool_less_exclusions.txt	LTP237	ltpFR	11	4	1	COMMUNITY	356	n/a	n/a	0	n/a	0	0	0	0.422607421875	0.5869140625	0	upper	zerothre.ttf
1110.0	n/a	WORD	555000	wordpools/wasnorm_wordpool_less_exclusions.txt	LTP237	ltpFR	11	4	0	WINDSHIELD	1612	n/a	n/a	1	n/a	0	0	0	0.57763671875	0.412841796875	1	lower	amplitud.ttf
1113.926	n/a	WORD	556963	wordpools/wasnorm_wordpool_less_exclusions.txt	LTP237	ltpFR	11	4	0	COCOON	339	n/a	n/a	0	n/a	0	0	0	0.57763671875	0.412841796875	1	lower	amplitud.ttf
1117.854	n/a	WORD	558927	wordpools/wasnorm_wordpool_less_exclusions.txt	LTP237	ltpFR	11	4	0	TERMITE	1451	n/a	n/a	0	n/a	0	0	0	0.57763671875	0.412841796875	1	lower	amplitud.ttf
1121.898	n/a	WORD	560949	wordpools/wasnorm_wordpool_less_exclusions.txt	LTP237	ltpFR	11	4	0	PEDAL	1037	n/a	n/a	0	n/a	0	0	0	0.57763671875	0.412841796875	1	lower	amplitud.ttf
1127.524	n/a	REC_START	563762	n/a	LTP237	ltpFR	11	4	n/a	n/a	n/a	n/a	n/a	n/a	n/a	0	0	0	n/a	n/a	n/a	n/a	n/a
1133.242	n/a	REC_WORD	566621	wordpools/wasnorm_wordpool_less_exclusions.txt	LTP237	ltpFR	11	4	1	COMMUNITY	356	n/a	n/a	0	n/a	0	0	0	n/a	n/a	n/a	n/a	n/a
1135.076	n/a	REC_WORD	567538	wordpools/wasnorm_wordpool_less_exclusions.txt	LTP237	ltpFR	11	4	0	FATHER	554	n/a	n/a	1	n/a	0	0	0	n/a	n/a	n/a	n/a	n/a
1171.374	n/a	REC_WORD	585687	wordpools/wasnorm_wordpool_less_exclusions.txt	LTP237	ltpFR	11	4	0	TERMITE	1451	n/a	n/a	0	n/a	0	0	0	n/a	n/a	n/a	n/a	n/a
1179.844	n/a	REC_WORD	589922	wordpools/wasnorm_wordpool_less_exclusions.txt	LTP237	ltpFR	11	4	0	COCOON	339	n/a	n/a	0	n/a	0	0	0	n/a	n/a	n/a	n/a	n/a
1209.186	n/a	WORD	604593	wordpools/wasnorm_wordpool_less_exclusions.txt	LTP237	ltpFR	11	5	0	FRAME	600	n/a	n/a	0	n/a	0	0	0	0.57763671875	0.412841796875	1	lower	amplitud.ttf
1213.162	n/a	WORD	606581	wordpools/wasnorm_wordpool_less_exclusions.txt	LTP237	ltpFR	11	5	0	BIOLOGIST	128	n/a	n/a	1	n/a	0	0	0	0.57763671875	0.412841796875	1	lower	amplitud.ttf
1217.192	n/a	WORD	608596	wordpools/wasnorm_wordpool_less_exclusions.txt	LTP237	ltpFR	11	5	0	CHEMICAL	291	n/a	n/a	0	n/a	0	0	0	0.57763671875	0.412841796875	1	lower	amplitud.ttf
1221.384	n/a	WORD	610692	wordpools/wasnorm_wordpool_less_exclusions.txt	LTP237	ltpFR	11	5	0	CENT	270	n/a	n/a	0	n/a	0	0	0	0.57763671875	0.412841796875	1	lower	amplitud.ttf
1225.462	n/a	WORD	612731	wordpools/wasnorm_wordpool_less_exclusions.txt	LTP237	ltpFR	11	5	0	SPICE	1350	n/a	n/a	0	n/a	0	0	0	0.57763671875	0.412841796875	1	lower	amplitud.ttf
1229.54	n/a	WORD	614770	wordpools/wasnorm_wordpool_less_exclusions.txt	LTP237	ltpFR	11	5	0	LIMOUSINE	824	n/a	n/a	1	n/a	0	0	0	0.57763671875	0.412841796875	1	lower	amplitud.ttf
1233.7	n/a	WORD	616850	wordpools/wasnorm_wordpool_less_exclusions.txt	LTP237	ltpFR	11	5	0	RECEIPT	1173	n/a	n/a	0	n/a	0	0	0	0.57763671875	0.412841796875	1	lower	amplitud.ttf
1237.76	n/a	WORD	618880	wordpools/wasnorm_wordpool_less_exclusions.txt	LTP237	ltpFR	11	5	0	SCENERY	1247	n/a	n/a	1	n/a	0	0	0	0.57763671875	0.412841796875	1	lower	amplitud.ttf
1241.836	n/a	WORD	620918	wordpools/wasnorm_wordpool_less_exclusions.txt	LTP237	ltpFR	11	5	0	CREW	406	n/a	n/a	1	n/a	0	0	0	0.57763671875	0.412841796875	1	lower	amplitud.ttf
1245.832	n/a	WORD	622916	wordpools/wasnorm_wordpool_less_exclusions.txt	LTP237	ltpFR	11	5	0	AGENT	10	n/a	n/a	1	n/a	0	0	0	0.57763671875	0.412841796875	1	lower	amplitud.ttf
1249.726	n/a	WORD	624863	wordpools/wasnorm_wordpool_less_exclusions.txt	LTP237	ltpFR	11	5	0	FACTORY	548	n/a	n/a	0	n/a	0	0	0	0.57763671875	0.412841796875	1	lower	amplitud.ttf
1253.902	n/a	WORD	626951	wordpools/wasnorm_wordpool_less_exclusions.txt	LTP237	ltpFR	11	5	0	POPE	1105	n/a	n/a	1	n/a	0	0	0	0.57763671875	0.412841796875	1	lower	amplitud.ttf
1257.88	n/a	WORD	628940	wordpools/wasnorm_wordpool_less_exclusions.txt	LTP237	ltpFR	11	5	0	NUN	962	n/a	n/a	1	n/a	0	0	0	0.57763671875	0.412841796875	1	lower	amplitud.ttf
1261.858	n/a	WORD	630929	wordpools/wasnorm_wordpool_less_exclusions.txt	LTP237	ltpFR	11	5	0	VACUUM	1543	n/a	n/a	1	n/a	0	0	0	0.57763671875	0.412841796875	1	lower	amplitud.ttf
1265.802	n/a	WORD	632901	wordpools/wasnorm_wordpool_less_exclusions.txt	LTP237	ltpFR	11	5	0	RAG	1160	n/a	n/a	0	n/a	0	0	0	0.57763671875	0.412841796875	1	lower	amplitud.ttf
1269.762	n/a	WORD	634881	wordpools/wasnorm_wordpool_less_exclusions.txt	LTP237	ltpFR	11	5	0	OWL	992	n/a	n/a	1	n/a	0	0	0	0.57763671875	0.412841796875	1	lower	amplitud.ttf
1272.774	n/a	START	636387	n/a	LTP237	ltpFR	11	n/a	n/a	n/a	n/a	n/a	n/a	n/a	n/a	n/a	n/a	n/a	n/a	n/a	n/a	n/a	n/a
1273.758	n/a	PROB	636879	n/a	LTP237	ltpFR	11	n/a	n/a	n/a	n/a	n/a	n/a	n/a	16	3	7	6	n/a	n/a	n/a	n/a	n/a
1275.406	n/a	PROB	637703	n/a	LTP237	ltpFR	11	n/a	n/a	n/a	n/a	n/a	n/a	n/a	18	3	7	8	n/a	n/a	n/a	n/a	n/a
1276.72	n/a	PROB	638360	n/a	LTP237	ltpFR	11	n/a	n/a	n/a	n/a	n/a	n/a	n/a	16	6	1	9	n/a	n/a	n/a	n/a	n/a
1277.702	n/a	PROB	638851	n/a	LTP237	ltpFR	11	n/a	n/a	n/a	n/a	n/a	n/a	n/a	11	2	8	1	n/a	n/a	n/a	n/a	n/a
1278.932	n/a	PROB	639466	n/a	LTP237	ltpFR	11	n/a	n/a	n/a	n/a	n/a	n/a	n/a	11	3	6	2	n/a	n/a	n/a	n/a	n/a
1280.646	n/a	STOP	640323	n/a	LTP237	ltpFR	11	n/a	n/a	n/a	n/a	n/a	n/a	n/a	n/a	n/a	n/a	n/a	n/a	n/a	n/a	n/a	n/a
1282.662	n/a	REC_START	641331	n/a	LTP237	ltpFR	11	5	n/a	n/a	n/a	n/a	n/a	n/a	n/a	0	0	0	n/a	n/a	n/a	n/a	n/a
1283.744	n/a	REC_WORD	641872	wordpools/wasnorm_wordpool_less_exclusions.txt	LTP237	ltpFR	11	5	0	POPE	1105	n/a	n/a	1	n/a	0	0	0	n/a	n/a	n/a	n/a	n/a
1284.646	n/a	REC_WORD	642323	wordpools/wasnorm_wordpool_less_exclusions.txt	LTP237	ltpFR	11	5	0	NUN	962	n/a	n/a	1	n/a	0	0	0	n/a	n/a	n/a	n/a	n/a
1286.322	n/a	REC_WORD	643161	wordpools/wasnorm_wordpool_less_exclusions.txt	LTP237	ltpFR	11	5	0	VACUUM	1543	n/a	n/a	1	n/a	0	0	0	n/a	n/a	n/a	n/a	n/a
1383.412	n/a	WORD	691706	wordpools/wasnorm_wordpool_less_exclusions.txt	LTP237	ltpFR	11	6	1	AIRCRAFT	11	n/a	n/a	0	n/a	0	0	0	0.422607421875	0.5869140625	0	upper	zerothre.ttf
1387.306	n/a	WORD	693653	wordpools/wasnorm_wordpool_less_exclusions.txt	LTP237	ltpFR	11	6	1	LILY	821	n/a	n/a	0	n/a	0	0	0	0.422607421875	0.5869140625	0	upper	zerothre.ttf
1391.318	n/a	WORD	695659	wordpools/wasnorm_wordpool_less_exclusions.txt	LTP237	ltpFR	11	6	1	MONARCH	906	n/a	n/a	0	n/a	0	0	0	0.422607421875	0.5869140625	0	upper	zerothre.ttf
1395.144	n/a	WORD	697572	wordpools/wasnorm_wordpool_less_exclusions.txt	LTP237	ltpFR	11	6	1	QUEEN	1149	n/a	n/a	1	n/a	0	0	0	0.422607421875	0.5869140625	0	upper	zerothre.ttf
1399.122	n/a	WORD	699561	wordpools/wasnorm_wordpool_less_exclusions.txt	LTP237	ltpFR	11	6	1	SUBWAY	1400	n/a	n/a	0	n/a	0	0	0	0.422607421875	0.5869140625	0	upper	zerothre.ttf
1403.066	n/a	WORD	701533	wordpools/wasnorm_wordpool_less_exclusions.txt	LTP237	ltpFR	11	6	1	CATERPILLAR	259	n/a	n/a	1	n/a	0	0	0	0.422607421875	0.5869140625	0	upper	zerothre.ttf
1406.91	n/a	WORD	703455	wordpools/wasnorm_wordpool_less_exclusions.txt	LTP237	ltpFR	11	6	1	BEVERAGE	123	n/a	n/a	0	n/a	0	0	0	0.422607421875	0.5869140625	0	upper	zerothre.ttf
1410.77	n/a	WORD	705385	wordpools/wasnorm_wordpool_less_exclusions.txt	LTP237	ltpFR	11	6	1	SALOON	1228	n/a	n/a	0	n/a	0	0	0	0.422607421875	0.5869140625	0	upper	zerothre.ttf
1414.7	n/a	WORD	707350	wordpools/wasnorm_wordpool_less_exclusions.txt	LTP237	ltpFR	11	6	1	LAKE	796	n/a	n/a	1	n/a	0	0	0	0.422607421875	0.5869140625	0	upper	zerothre.ttf
1418.842	n/a	WORD	709421	wordpools/wasnorm_wordpool_less_exclusions.txt	LTP237	ltpFR	11	6	1	SPRINKLE	1359	n/a	n/a	0	n/a	0	0	0	0.422607421875	0.5869140625	0	upper	zerothre.ttf
1423.036	n/a	WORD	711518	wordpools/wasnorm_wordpool_less_exclusions.txt	LTP237	ltpFR	11	6	1	FUDGE	611	n/a	n/a	0	n/a	0	0	0	0.422607421875	0.5869140625	0	upper	zerothre.ttf
1426.946	n/a	WORD	713473	wordpools/wasnorm_wordpool_less_exclusions.txt	LTP237	ltpFR	11	6	1	BAY	102	n/a	n/a	0	n/a	0	0	0	0.422607421875	0.5869140625	0	upper	zerothre.ttf
1430.874	n/a	WORD	715437	wordpools/wasnorm_wordpool_less_exclusions.txt	LTP237	ltpFR	11	6	1	GUEST	669	n/a	n/a	1	n/a	0	0	0	0.422607421875	0.5869140625	0	upper	zerothre.ttf
1434.934	n/a	WORD	717467	wordpools/wasnorm_wordpool_less_exclusions.txt	LTP237	ltpFR	11	6	1	SNORKEL	1336	n/a	n/a	0	n/a	0	0	0	0.422607421875	0.5869140625	0	upper	zerothre.ttf
1438.912	n/a	WORD	719456	wordpools/wasnorm_wordpool_less_exclusions.txt	LTP237	ltpFR	11	6	1	SWATTER	1418	n/a	n/a	1	n/a	0	0	0	0.422607421875	0.5869140625	0	upper	zerothre.ttf
1442.772	n/a	WORD	721386	wordpools/wasnorm_wordpool_less_exclusions.txt	LTP237	ltpFR	11	6	1	FLIPPER	580	n/a	n/a	0	n/a	0	0	0	0.422607421875	0.5869140625	0	upper	zerothre.ttf
1445.786	n/a	START	722893	n/a	LTP237	ltpFR	11	n/a	n/a	n/a	n/a	n/a	n/a	n/a	n/a	n/a	n/a	n/a	n/a	n/a	n/a	n/a	n/a
1446.766	n/a	PROB	723383	n/a	LTP237	ltpFR	11	n/a	n/a	n/a	n/a	n/a	n/a	n/a	17	8	6	3	n/a	n/a	n/a	n/a	n/a
1448.848	n/a	PROB	724424	n/a	LTP237	ltpFR	11	n/a	n/a	n/a	n/a	n/a	n/a	n/a	21	5	9	7	n/a	n/a	n/a	n/a	n/a
1451.176	n/a	PROB	725588	n/a	LTP237	ltpFR	11	n/a	n/a	n/a	n/a	n/a	n/a	n/a	16	5	6	5	n/a	n/a	n/a	n/a	n/a
1452.726	n/a	PROB	726363	n/a	LTP237	ltpFR	11	n/a	n/a	n/a	n/a	n/a	n/a	n/a	16	4	5	7	n/a	n/a	n/a	n/a	n/a
1454.156	n/a	PROB	727078	n/a	LTP237	ltpFR	11	n/a	n/a	n/a	n/a	n/a	n/a	n/a	22	8	6	9	n/a	n/a	n/a	n/a	n/a
1456.086	n/a	PROB	728043	n/a	LTP237	ltpFR	11	n/a	n/a	n/a	n/a	n/a	n/a	n/a	19	8	7	4	n/a	n/a	n/a	n/a	n/a
1457.568	n/a	PROB	728784	n/a	LTP237	ltpFR	11	n/a	n/a	n/a	n/a	n/a	n/a	n/a	14	6	3	5	n/a	n/a	n/a	n/a	n/a
1459.532	n/a	PROB	729766	n/a	LTP237	ltpFR	11	n/a	n/a	n/a	n/a	n/a	n/a	n/a	19	7	8	4	n/a	n/a	n/a	n/a	n/a
1460.832	n/a	STOP	730416	n/a	LTP237	ltpFR	11	n/a	n/a	n/a	n/a	n/a	n/a	n/a	n/a	n/a	n/a	n/a	n/a	n/a	n/a	n/a	n/a
1463.694	n/a	REC_START	731847	n/a	LTP237	ltpFR	11	6	n/a	n/a	n/a	n/a	n/a	n/a	n/a	0	0	0	n/a	n/a	n/a	n/a	n/a
1465.44	n/a	REC_WORD	732720	wordpools/wasnorm_wordpool_less_exclusions.txt	LTP237	ltpFR	11	6	1	SWATTER	1418	n/a	n/a	1	n/a	0	0	0	n/a	n/a	n/a	n/a	n/a
1466.592	n/a	REC_WORD	733296	wordpools/wasnorm_wordpool_less_exclusions.txt	LTP237	ltpFR	11	6	1	FLIPPER	580	n/a	n/a	0	n/a	0	0	0	n/a	n/a	n/a	n/a	n/a
1468.678	n/a	REC_WORD	734339	wordpools/wasnorm_wordpool_less_exclusions.txt	LTP237	ltpFR	11	6	1	QUEEN	1149	n/a	n/a	1	n/a	0	0	0	n/a	n/a	n/a	n/a	n/a
1470.264	n/a	REC_WORD	735132	wordpools/wasnorm_wordpool_less_exclusions.txt	LTP237	ltpFR	11	6	1	AIRCRAFT	11	n/a	n/a	0	n/a	0	0	0	n/a	n/a	n/a	n/a	n/a
1474.49	n/a	REC_WORD	737245	wordpools/wasnorm_wordpool_less_exclusions.txt	LTP237	ltpFR	11	6	1	MONARCH	906	n/a	n/a	0	n/a	0	0	0	n/a	n/a	n/a	n/a	n/a
1567.172	n/a	START	783586	n/a	LTP237	ltpFR	11	n/a	n/a	n/a	n/a	n/a	n/a	n/a	n/a	n/a	n/a	n/a	n/a	n/a	n/a	n/a	n/a
1568.688	n/a	PROB	784344	n/a	LTP237	ltpFR	11	n/a	n/a	n/a	n/a	n/a	n/a	n/a	12	2	2	8	n/a	n/a	n/a	n/a	n/a
1570.452	n/a	PROB	785226	n/a	LTP237	ltpFR	11	n/a	n/a	n/a	n/a	n/a	n/a	n/a	4	2	1	1	n/a	n/a	n/a	n/a	n/a
1571.75	n/a	PROB	785875	n/a	LTP237	ltpFR	11	n/a	n/a	n/a	n/a	n/a	n/a	n/a	13	3	6	4	n/a	n/a	n/a	n/a	n/a
1573.146	n/a	PROB	786573	n/a	LTP237	ltpFR	11	n/a	n/a	n/a	n/a	n/a	n/a	n/a	16	3	9	4	n/a	n/a	n/a	n/a	n/a
1574.33	n/a	PROB	787165	n/a	LTP237	ltpFR	11	n/a	n/a	n/a	n/a	n/a	n/a	n/a	8	3	2	3	n/a	n/a	n/a	n/a	n/a
1575.728	n/a	PROB	787864	n/a	LTP237	ltpFR	11	n/a	n/a	n/a	n/a	n/a	n/a	n/a	12	6	5	1	n/a	n/a	n/a	n/a	n/a
1577.258	n/a	PROB	788629	n/a	LTP237	ltpFR	11	n/a	n/a	n/a	n/a	n/a	n/a	n/a	12	1	5	6	n/a	n/a	n/a	n/a	n/a
1578.506	n/a	PROB	789253	n/a	LTP237	ltpFR	11	n/a	n/a	n/a	n/a	n/a	n/a	n/a	18	3	7	8	n/a	n/a	n/a	n/a	n/a
1579.936	n/a	PROB	789968	n/a	LTP237	ltpFR	11	n/a	n/a	n/a	n/a	n/a	n/a	n/a	13	9	1	3	n/a	n/a	n/a	n/a	n/a
1580.886	n/a	PROB	790443	n/a	LTP237	ltpFR	11	n/a	n/a	n/a	n/a	n/a	n/a	n/a	12	1	3	8	n/a	n/a	n/a	n/a	n/a
1582.418	n/a	STOP	791209	n/a	LTP237	ltpFR	11	n/a	n/a	n/a	n/a	n/a	n/a	n/a	n/a	n/a	n/a	n/a	n/a	n/a	n/a	n/a	n/a
1584.096	n/a	WORD	792048	wordpools/wasnorm_wordpool_less_exclusions.txt	LTP237	ltpFR	11	7	1	TACK	1428	n/a	n/a	0	n/a	0	0	0	0.422607421875	0.5869140625	0	upper	zerothre.ttf
1587.11	n/a	START	793555	n/a	LTP237	ltpFR	11	n/a	n/a	n/a	n/a	n/a	n/a	n/a	n/a	n/a	n/a	n/a	n/a	n/a	n/a	n/a	n/a
1588.092	n/a	PROB	794046	n/a	LTP237	ltpFR	11	n/a	n/a	n/a	n/a	n/a	n/a	n/a	19	6	5	8	n/a	n/a	n/a	n/a	n/a
1590.654	n/a	PROB	795327	n/a	LTP237	ltpFR	11	n/a	n/a	n/a	n/a	n/a	n/a	n/a	20	9	9	2	n/a	n/a	n/a	n/a	n/a
1592.286	n/a	PROB	796143	n/a	LTP237	ltpFR	11	n/a	n/a	n/a	n/a	n/a	n/a	n/a	16	5	6	5	n/a	n/a	n/a	n/a	n/a
1593.634	n/a	PROB	796817	n/a	LTP237	ltpFR	11	n/a	n/a	n/a	n/a	n/a	n/a	n/a	12	4	4	4	n/a	n/a	n/a	n/a	n/a
1594.964	n/a	PROB	797482	n/a	LTP237	ltpFR	11	n/a	n/a	n/a	n/a	n/a	n/a	n/a	12	1	5	6	n/a	n/a	n/a	n/a	n/a
1599.276	n/a	PROB	799638	n/a	LTP237	ltpFR	11	n/a	n/a	n/a	n/a	n/a	n/a	n/a	10	1	6	3	n/a	n/a	n/a	n/a	n/a
1603.11	n/a	STOP	801555	n/a	LTP237	ltpFR	11	n/a	n/a	n/a	n/a	n/a	n/a	n/a	n/a	n/a	n/a	n/a	n/a	n/a	n/a	n/a	n/a
1604.134	n/a	WORD	802067	wordpools/wasnorm_wordpool_less_exclusions.txt	LTP237	ltpFR	11	7	1	COMET	353	n/a	n/a	0	n/a	0	0	0	0.422607421875	0.5869140625	0	upper	zerothre.ttf
1607.148	n/a	START	803574	n/a	LTP237	ltpFR	11	n/a	n/a	n/a	n/a	n/a	n/a	n/a	n/a	n/a	n/a	n/a	n/a	n/a	n/a	n/a	n/a
1608.262	n/a	PROB	804131	n/a	LTP237	ltpFR	11	n/a	n/a	n/a	n/a	n/a	n/a	n/a	17	6	2	9	n/a	n/a	n/a	n/a	n/a
1610.76	n/a	PROB	805380	n/a	LTP237	ltpFR	11	n/a	n/a	n/a	n/a	n/a	n/a	n/a	19	8	6	5	n/a	n/a	n/a	n/a	n/a
1612.406	n/a	PROB	806203	n/a	LTP237	ltpFR	11	n/a	n/a	n/a	n/a	n/a	n/a	n/a	9	2	6	1	n/a	n/a	n/a	n/a	n/a
1613.606	n/a	PROB	806803	n/a	LTP237	ltpFR	11	n/a	n/a	n/a	n/a	n/a	n/a	n/a	24	6	9	9	n/a	n/a	n/a	n/a	n/a
1615.868	n/a	PROB	807934	n/a	LTP237	ltpFR	11	n/a	n/a	n/a	n/a	n/a	n/a	n/a	16	6	6	4	n/a	n/a	n/a	n/a	n/a
1617.416	n/a	PROB	808708	n/a	LTP237	ltpFR	11	n/a	n/a	n/a	n/a	n/a	n/a	n/a	12	1	4	7	n/a	n/a	n/a	n/a	n/a
1618.896	n/a	PROB	809448	n/a	LTP237	ltpFR	11	n/a	n/a	n/a	n/a	n/a	n/a	n/a	20	8	4	8	n/a	n/a	n/a	n/a	n/a
1620.712	n/a	PROB	810356	n/a	LTP237	ltpFR	11	n/a	n/a	n/a	n/a	n/a	n/a	n/a	11	6	4	1	n/a	n/a	n/a	n/a	n/a
1621.874	n/a	STOP	810937	n/a	LTP237	ltpFR	11	n/a	n/a	n/a	n/a	n/a	n/a	n/a	n/a	n/a	n/a	n/a	n/a	n/a	n/a	n/a	n/a
1624.088	n/a	WORD	812044	wordpools/wasnorm_wordpool_less_exclusions.txt	LTP237	ltpFR	11	7	1	MAPLE	866	n/a	n/a	0	n/a	0	0	0	0.422607421875	0.5869140625	0	upper	zerothre.ttf
1627.1	n/a	START	813550	n/a	LTP237	ltpFR	11	n/a	n/a	n/a	n/a	n/a	n/a	n/a	n/a	n/a	n/a	n/a	n/a	n/a	n/a	n/a	n/a
1628.266	n/a	PROB	814133	n/a	LTP237	ltpFR	11	n/a	n/a	n/a	n/a	n/a	n/a	n/a	16	2	9	5	n/a	n/a	n/a	n/a	n/a
1629.88	n/a	PROB	814940	n/a	LTP237	ltpFR	11	n/a	n/a	n/a	n/a	n/a	n/a	n/a	8	5	2	1	n/a	n/a	n/a	n/a	n/a
1630.912	n/a	PROB	815456	n/a	LTP237	ltpFR	11	n/a	n/a	n/a	n/a	n/a	n/a	n/a	15	8	2	5	n/a	n/a	n/a	n/a	n/a
1632.842	n/a	PROB	816421	n/a	LTP237	ltpFR	11	n/a	n/a	n/a	n/a	n/a	n/a	n/a	16	5	6	5	n/a	n/a	n/a	n/a	n/a
1633.974	n/a	PROB	816987	n/a	LTP237	ltpFR	11	n/a	n/a	n/a	n/a	n/a	n/a	n/a	12	8	2	2	n/a	n/a	n/a	n/a	n/a
1635.472	n/a	PROB	817736	n/a	LTP237	ltpFR	11	n/a	n/a	n/a	n/a	n/a	n/a	n/a	17	9	6	2	n/a	n/a	n/a	n/a	n/a
1638.15	n/a	PROB	819075	n/a	LTP237	ltpFR	11	n/a	n/a	n/a	n/a	n/a	n/a	n/a	18	2	9	7	n/a	n/a	n/a	n/a	n/a
1643.1	n/a	STOP	821550	n/a	LTP237	ltpFR	11	n/a	n/a	n/a	n/a	n/a	n/a	n/a	n/a	n/a	n/a	n/a	n/a	n/a	n/a	n/a	n/a
1643.976	n/a	WORD	821988	wordpools/wasnorm_wordpool_less_exclusions.txt	LTP237	ltpFR	11	7	1	GUITAR	670	n/a	n/a	0	n/a	0	0	0	0.422607421875	0.5869140625	0	upper	zerothre.ttf
1646.988	n/a	START	823494	n/a	LTP237	ltpFR	11	n/a	n/a	n/a	n/a	n/a	n/a	n/a	n/a	n/a	n/a	n/a	n/a	n/a	n/a	n/a	n/a
1647.902	n/a	PROB	823951	n/a	LTP237	ltpFR	11	n/a	n/a	n/a	n/a	n/a	n/a	n/a	24	8	7	9	n/a	n/a	n/a	n/a	n/a
1650.666	n/a	PROB	825333	n/a	LTP237	ltpFR	11	n/a	n/a	n/a	n/a	n/a	n/a	n/a	26	8	9	9	n/a	n/a	n/a	n/a	n/a
1652.646	n/a	PROB	826323	n/a	LTP237	ltpFR	11	n/a	n/a	n/a	n/a	n/a	n/a	n/a	15	5	1	9	n/a	n/a	n/a	n/a	n/a
1655.342	n/a	PROB	827671	n/a	LTP237	ltpFR	11	n/a	n/a	n/a	n/a	n/a	n/a	n/a	13	3	2	8	n/a	n/a	n/a	n/a	n/a
1657.156	n/a	PROB	828578	n/a	LTP237	ltpFR	11	n/a	n/a	n/a	n/a	n/a	n/a	n/a	17	2	6	9	n/a	n/a	n/a	n/a	n/a
1659.404	n/a	PROB	829702	n/a	LTP237	ltpFR	11	n/a	n/a	n/a	n/a	n/a	n/a	n/a	11	3	2	6	n/a	n/a	n/a	n/a	n/a
1661.858	n/a	STOP	830929	n/a	LTP237	ltpFR	11	n/a	n/a	n/a	n/a	n/a	n/a	n/a	n/a	n/a	n/a	n/a	n/a	n/a	n/a	n/a	n/a
1663.996	n/a	WORD	831998	wordpools/wasnorm_wordpool_less_exclusions.txt	LTP237	ltpFR	11	7	1	CART	250	n/a	n/a	0	n/a	0	0	0	0.422607421875	0.5869140625	0	upper	zerothre.ttf
1667.008	n/a	START	833504	n/a	LTP237	ltpFR	11	n/a	n/a	n/a	n/a	n/a	n/a	n/a	n/a	n/a	n/a	n/a	n/a	n/a	n/a	n/a	n/a
1667.99	n/a	PROB	833995	n/a	LTP237	ltpFR	11	n/a	n/a	n/a	n/a	n/a	n/a	n/a	21	7	6	8	n/a	n/a	n/a	n/a	n/a
1671.352	n/a	PROB	835676	n/a	LTP237	ltpFR	11	n/a	n/a	n/a	n/a	n/a	n/a	n/a	24	8	7	9	n/a	n/a	n/a	n/a	n/a
1673.616	n/a	PROB	836808	n/a	LTP237	ltpFR	11	n/a	n/a	n/a	n/a	n/a	n/a	n/a	19	7	5	7	n/a	n/a	n/a	n/a	n/a
1675.58	n/a	PROB	837790	n/a	LTP237	ltpFR	11	n/a	n/a	n/a	n/a	n/a	n/a	n/a	12	1	9	2	n/a	n/a	n/a	n/a	n/a
1676.662	n/a	PROB	838331	n/a	LTP237	ltpFR	11	n/a	n/a	n/a	n/a	n/a	n/a	n/a	11	1	7	3	n/a	n/a	n/a	n/a	n/a
1678.108	n/a	PROB	839054	n/a	LTP237	ltpFR	11	n/a	n/a	n/a	n/a	n/a	n/a	n/a	13	4	6	3	n/a	n/a	n/a	n/a	n/a
1680.172	n/a	PROB	840086	n/a	LTP237	ltpFR	11	n/a	n/a	n/a	n/a	n/a	n/a	n/a	19	9	8	2	n/a	n/a	n/a	n/a	n/a
1682.42	n/a	STOP	841210	n/a	LTP237	ltpFR	11	n/a	n/a	n/a	n/a	n/a	n/a	n/a	n/a	n/a	n/a	n/a	n/a	n/a	n/a	n/a	n/a
1684.016	n/a	WORD	842008	wordpools/wasnorm_wordpool_less_exclusions.txt	LTP237	ltpFR	11	7	1	PASSENGER	1020	n/a	n/a	1	n/a	0	0	0	0.422607421875	0.5869140625	0	upper	zerothre.ttf
1687.03	n/a	START	843515	n/a	LTP237	ltpFR	11	n/a	n/a	n/a	n/a	n/a	n/a	n/a	n/a	n/a	n/a	n/a	n/a	n/a	n/a	n/a	n/a
1687.96	n/a	PROB	843980	n/a	LTP237	ltpFR	11	n/a	n/a	n/a	n/a	n/a	n/a	n/a	18	8	6	4	n/a	n/a	n/a	n/a	n/a
1689.542	n/a	PROB	844771	n/a	LTP237	ltpFR	11	n/a	n/a	n/a	n/a	n/a	n/a	n/a	9	1	2	6	n/a	n/a	n/a	n/a	n/a
1690.922	n/a	PROB	845461	n/a	LTP237	ltpFR	11	n/a	n/a	n/a	n/a	n/a	n/a	n/a	14	4	6	4	n/a	n/a	n/a	n/a	n/a
1691.988	n/a	PROB	845994	n/a	LTP237	ltpFR	11	n/a	n/a	n/a	n/a	n/a	n/a	n/a	14	2	3	9	n/a	n/a	n/a	n/a	n/a
1694.818	n/a	PROB	847409	n/a	LTP237	ltpFR	11	n/a	n/a	n/a	n/a	n/a	n/a	n/a	7	2	2	3	n/a	n/a	n/a	n/a	n/a
1697.514	n/a	PROB	848757	n/a	LTP237	ltpFR	11	n/a	n/a	n/a	n/a	n/a	n/a	n/a	20	4	4	8	n/a	n/a	n/a	n/a	n/a
1699.61	n/a	PROB	849805	n/a	LTP237	ltpFR	11	n/a	n/a	n/a	n/a	n/a	n/a	n/a	15	3	6	7	n/a	n/a	n/a	n/a	n/a
1701.58	n/a	STOP	850790	n/a	LTP237	ltpFR	11	n/a	n/a	n/a	n/a	n/a	n/a	n/a	n/a	n/a	n/a	n/a	n/a	n/a	n/a	n/a	n/a
1703.87	n/a	WORD	851935	wordpools/wasnorm_wordpool_less_exclusions.txt	LTP237	ltpFR	11	7	1	GLASS	639	n/a	n/a	0	n/a	0	0	0	0.422607421875	0.5869140625	0	upper	zerothre.ttf
1706.882	n/a	START	853441	n/a	LTP237	ltpFR	11	n/a	n/a	n/a	n/a	n/a	n/a	n/a	n/a	n/a	n/a	n/a	n/a	n/a	n/a	n/a	n/a
1707.998	n/a	PROB	853999	n/a	LTP237	ltpFR	11	n/a	n/a	n/a	n/a	n/a	n/a	n/a	11	5	4	2	n/a	n/a	n/a	n/a	n/a
1710.594	n/a	PROB	855297	n/a	LTP237	ltpFR	11	n/a	n/a	n/a	n/a	n/a	n/a	n/a	9	1	1	7	n/a	n/a	n/a	n/a	n/a
1712.674	n/a	PROB	856337	n/a	LTP237	ltpFR	11	n/a	n/a	n/a	n/a	n/a	n/a	n/a	13	5	2	6	n/a	n/a	n/a	n/a	n/a
1714.804	n/a	PROB	857402	n/a	LTP237	ltpFR	11	n/a	n/a	n/a	n/a	n/a	n/a	n/a	9	3	5	1	n/a	n/a	n/a	n/a	n/a
1717.0	n/a	PROB	858500	n/a	LTP237	ltpFR	11	n/a	n/a	n/a	n/a	n/a	n/a	n/a	13	3	7	3	n/a	n/a	n/a	n/a	n/a
1718.098	n/a	PROB	859049	n/a	LTP237	ltpFR	11	n/a	n/a	n/a	n/a	n/a	n/a	n/a	8	1	3	4	n/a	n/a	n/a	n/a	n/a
1719.78	n/a	PROB	859890	n/a	LTP237	ltpFR	11	n/a	n/a	n/a	n/a	n/a	n/a	n/a	19	8	2	9	n/a	n/a	n/a	n/a	n/a
1721.908	n/a	STOP	860954	n/a	LTP237	ltpFR	11	n/a	n/a	n/a	n/a	n/a	n/a	n/a	n/a	n/a	n/a	n/a	n/a	n/a	n/a	n/a	n/a
1724.006	n/a	WORD	862003	wordpools/wasnorm_wordpool_less_exclusions.txt	LTP237	ltpFR	11	7	1	TRUMPET	1513	n/a	n/a	0	n/a	0	0	0	0.422607421875	0.5869140625	0	upper	zerothre.ttf
1727.02	n/a	START	863510	n/a	LTP237	ltpFR	11	n/a	n/a	n/a	n/a	n/a	n/a	n/a	n/a	n/a	n/a	n/a	n/a	n/a	n/a	n/a	n/a
1728.05	n/a	PROB	864025	n/a	LTP237	ltpFR	11	n/a	n/a	n/a	n/a	n/a	n/a	n/a	12	4	4	4	n/a	n/a	n/a	n/a	n/a
1729.434	n/a	PROB	864717	n/a	LTP237	ltpFR	11	n/a	n/a	n/a	n/a	n/a	n/a	n/a	18	6	7	5	n/a	n/a	n/a	n/a	n/a
1732.296	n/a	PROB	866148	n/a	LTP237	ltpFR	11	n/a	n/a	n/a	n/a	n/a	n/a	n/a	1	5	4	8	n/a	n/a	n/a	n/a	n/a
1734.392	n/a	PROB	867196	n/a	LTP237	ltpFR	11	n/a	n/a	n/a	n/a	n/a	n/a	n/a	24	7	8	9	n/a	n/a	n/a	n/a	n/a
1737.654	n/a	PROB	868827	n/a	LTP237	ltpFR	11	n/a	n/a	n/a	n/a	n/a	n/a	n/a	8	3	2	2	n/a	n/a	n/a	n/a	n/a
1739.418	n/a	PROB	869709	n/a	LTP237	ltpFR	11	n/a	n/a	n/a	n/a	n/a	n/a	n/a	23	9	9	5	n/a	n/a	n/a	n/a	n/a
1741.692	n/a	STOP	870846	n/a	LTP237	ltpFR	11	n/a	n/a	n/a	n/a	n/a	n/a	n/a	n/a	n/a	n/a	n/a	n/a	n/a	n/a	n/a	n/a
1744.094	n/a	WORD	872047	wordpools/wasnorm_wordpool_less_exclusions.txt	LTP237	ltpFR	11	7	1	LINEN	825	n/a	n/a	0	n/a	0	0	0	0.422607421875	0.5869140625	0	upper	zerothre.ttf
1747.106	n/a	START	873553	n/a	LTP237	ltpFR	11	n/a	n/a	n/a	n/a	n/a	n/a	n/a	n/a	n/a	n/a	n/a	n/a	n/a	n/a	n/a	n/a
1747.956	n/a	PROB	873978	n/a	LTP237	ltpFR	11	n/a	n/a	n/a	n/a	n/a	n/a	n/a	24	6	9	9	n/a	n/a	n/a	n/a	n/a
1750.002	n/a	PROB	875001	n/a	LTP237	ltpFR	11	n/a	n/a	n/a	n/a	n/a	n/a	n/a	9	1	1	7	n/a	n/a	n/a	n/a	n/a
1751.368	n/a	PROB	875684	n/a	LTP237	ltpFR	11	n/a	n/a	n/a	n/a	n/a	n/a	n/a	11	7	1	3	n/a	n/a	n/a	n/a	n/a
1752.516	n/a	PROB	876258	n/a	LTP237	ltpFR	11	n/a	n/a	n/a	n/a	n/a	n/a	n/a	14	2	5	7	n/a	n/a	n/a	n/a	n/a
1754.198	n/a	PROB	877099	n/a	LTP237	ltpFR	11	n/a	n/a	n/a	n/a	n/a	n/a	n/a	19	4	9	6	n/a	n/a	n/a	n/a	n/a
1756.11	n/a	PROB	878055	n/a	LTP237	ltpFR	11	n/a	n/a	n/a	n/a	n/a	n/a	n/a	10	1	4	5	n/a	n/a	n/a	n/a	n/a
1758.424	n/a	PROB	879212	n/a	LTP237	ltpFR	11	n/a	n/a	n/a	n/a	n/a	n/a	n/a	13	4	5	4	n/a	n/a	n/a	n/a	n/a
1763.108	n/a	STOP	881554	n/a	LTP237	ltpFR	11	n/a	n/a	n/a	n/a	n/a	n/a	n/a	n/a	n/a	n/a	n/a	n/a	n/a	n/a	n/a	n/a
1764.014	n/a	WORD	882007	wordpools/wasnorm_wordpool_less_exclusions.txt	LTP237	ltpFR	11	7	1	FLESH	579	n/a	n/a	0	n/a	0	0	0	0.422607421875	0.5869140625	0	upper	zerothre.ttf
1767.028	n/a	START	883514	n/a	LTP237	ltpFR	11	n/a	n/a	n/a	n/a	n/a	n/a	n/a	n/a	n/a	n/a	n/a	n/a	n/a	n/a	n/a	n/a
1768.21	n/a	PROB	884105	n/a	LTP237	ltpFR	11	n/a	n/a	n/a	n/a	n/a	n/a	n/a	12	4	6	2	n/a	n/a	n/a	n/a	n/a
1769.69	n/a	PROB	884845	n/a	LTP237	ltpFR	11	n/a	n/a	n/a	n/a	n/a	n/a	n/a	15	3	4	8	n/a	n/a	n/a	n/a	n/a
1771.638	n/a	PROB	885819	n/a	LTP237	ltpFR	11	n/a	n/a	n/a	n/a	n/a	n/a	n/a	15	1	8	6	n/a	n/a	n/a	n/a	n/a
1773.468	n/a	PROB	886734	n/a	LTP237	ltpFR	11	n/a	n/a	n/a	n/a	n/a	n/a	n/a	16	2	5	9	n/a	n/a	n/a	n/a	n/a
1775.714	n/a	PROB	887857	n/a	LTP237	ltpFR	11	n/a	n/a	n/a	n/a	n/a	n/a	n/a	1	9	2	5	n/a	n/a	n/a	n/a	n/a
1777.23	n/a	PROB	888615	n/a	LTP237	ltpFR	11	n/a	n/a	n/a	n/a	n/a	n/a	n/a	16	8	5	3	n/a	n/a	n/a	n/a	n/a
1783.028	n/a	STOP	891514	n/a	LTP237	ltpFR	11	n/a	n/a	n/a	n/a	n/a	n/a	n/a	n/a	n/a	n/a	n/a	n/a	n/a	n/a	n/a	n/a
1784.118	n/a	WORD	892059	wordpools/wasnorm_wordpool_less_exclusions.txt	LTP237	ltpFR	11	7	1	RUST	1219	n/a	n/a	0	n/a	0	0	0	0.422607421875	0.5869140625	0	upper	zerothre.ttf
1787.13	n/a	START	893565	n/a	LTP237	ltpFR	11	n/a	n/a	n/a	n/a	n/a	n/a	n/a	n/a	n/a	n/a	n/a	n/a	n/a	n/a	n/a	n/a
1788.146	n/a	PROB	894073	n/a	LTP237	ltpFR	11	n/a	n/a	n/a	n/a	n/a	n/a	n/a	11	8	2	1	n/a	n/a	n/a	n/a	n/a
1789.61	n/a	PROB	894805	n/a	LTP237	ltpFR	11	n/a	n/a	n/a	n/a	n/a	n/a	n/a	20	6	7	7	n/a	n/a	n/a	n/a	n/a
1791.374	n/a	PROB	895687	n/a	LTP237	ltpFR	11	n/a	n/a	n/a	n/a	n/a	n/a	n/a	12	1	7	4	n/a	n/a	n/a	n/a	n/a
1793.388	n/a	PROB	896694	n/a	LTP237	ltpFR	11	n/a	n/a	n/a	n/a	n/a	n/a	n/a	14	6	3	5	n/a	n/a	n/a	n/a	n/a
1797.232	n/a	PROB	898616	n/a	LTP237	ltpFR	11	n/a	n/a	n/a	n/a	n/a	n/a	n/a	16	2	5	9	n/a	n/a	n/a	n/a	n/a
1798.53	n/a	PROB	899265	n/a	LTP237	ltpFR	11	n/a	n/a	n/a	n/a	n/a	n/a	n/a	12	8	2	2	n/a	n/a	n/a	n/a	n/a
1799.63	n/a	PROB	899815	n/a	LTP237	ltpFR	11	n/a	n/a	n/a	n/a	n/a	n/a	n/a	19	3	9	7	n/a	n/a	n/a	n/a	n/a
1803.13	n/a	STOP	901565	n/a	LTP237	ltpFR	11	n/a	n/a	n/a	n/a	n/a	n/a	n/a	n/a	n/a	n/a	n/a	n/a	n/a	n/a	n/a	n/a
1803.972	n/a	WORD	901986	wordpools/wasnorm_wordpool_less_exclusions.txt	LTP237	ltpFR	11	7	1	SWAN	1417	n/a	n/a	1	n/a	0	0	0	0.422607421875	0.5869140625	0	upper	zerothre.ttf
1806.984	n/a	START	903492	n/a	LTP237	ltpFR	11	n/a	n/a	n/a	n/a	n/a	n/a	n/a	n/a	n/a	n/a	n/a	n/a	n/a	n/a	n/a	n/a
1807.982	n/a	PROB	903991	n/a	LTP237	ltpFR	11	n/a	n/a	n/a	n/a	n/a	n/a	n/a	13	6	4	3	n/a	n/a	n/a	n/a	n/a
1809.53	n/a	PROB	904765	n/a	LTP237	ltpFR	11	n/a	n/a	n/a	n/a	n/a	n/a	n/a	15	8	3	4	n/a	n/a	n/a	n/a	n/a
1812.66	n/a	PROB	906330	n/a	LTP237	ltpFR	11	n/a	n/a	n/a	n/a	n/a	n/a	n/a	12	5	5	2	n/a	n/a	n/a	n/a	n/a
1813.692	n/a	PROB	906846	n/a	LTP237	ltpFR	11	n/a	n/a	n/a	n/a	n/a	n/a	n/a	11	7	1	3	n/a	n/a	n/a	n/a	n/a
1814.788	n/a	PROB	907394	n/a	LTP237	ltpFR	11	n/a	n/a	n/a	n/a	n/a	n/a	n/a	11	7	3	1	n/a	n/a	n/a	n/a	n/a
1815.888	n/a	PROB	907944	n/a	LTP237	ltpFR	11	n/a	n/a	n/a	n/a	n/a	n/a	n/a	15	1	8	6	n/a	n/a	n/a	n/a	n/a
1817.47	n/a	PROB	908735	n/a	LTP237	ltpFR	11	n/a	n/a	n/a	n/a	n/a	n/a	n/a	18	7	3	8	n/a	n/a	n/a	n/a	n/a
1819.148	n/a	PROB	909574	n/a	LTP237	ltpFR	11	n/a	n/a	n/a	n/a	n/a	n/a	n/a	16	8	3	5	n/a	n/a	n/a	n/a	n/a
1820.466	n/a	PROB	910233	n/a	LTP237	ltpFR	11	n/a	n/a	n/a	n/a	n/a	n/a	n/a	12	7	3	2	n/a	n/a	n/a	n/a	n/a
1821.918	n/a	STOP	910959	n/a	LTP237	ltpFR	11	n/a	n/a	n/a	n/a	n/a	n/a	n/a	n/a	n/a	n/a	n/a	n/a	n/a	n/a	n/a	n/a
1824.194	n/a	WORD	912097	wordpools/wasnorm_wordpool_less_exclusions.txt	LTP237	ltpFR	11	7	1	DUCK	504	n/a	n/a	1	n/a	0	0	0	0.422607421875	0.5869140625	0	upper	zerothre.ttf
1827.206	n/a	START	913603	n/a	LTP237	ltpFR	11	n/a	n/a	n/a	n/a	n/a	n/a	n/a	n/a	n/a	n/a	n/a	n/a	n/a	n/a	n/a	n/a
1828.02	n/a	PROB	914010	n/a	LTP237	ltpFR	11	n/a	n/a	n/a	n/a	n/a	n/a	n/a	11	3	3	5	n/a	n/a	n/a	n/a	n/a
1829.736	n/a	PROB	914868	n/a	LTP237	ltpFR	11	n/a	n/a	n/a	n/a	n/a	n/a	n/a	8	4	1	3	n/a	n/a	n/a	n/a	n/a
1831.5	n/a	PROB	915750	n/a	LTP237	ltpFR	11	n/a	n/a	n/a	n/a	n/a	n/a	n/a	5	1	3	1	n/a	n/a	n/a	n/a	n/a
1832.364	n/a	PROB	916182	n/a	LTP237	ltpFR	11	n/a	n/a	n/a	n/a	n/a	n/a	n/a	17	1	9	7	n/a	n/a	n/a	n/a	n/a
1833.496	n/a	PROB	916748	n/a	LTP237	ltpFR	11	n/a	n/a	n/a	n/a	n/a	n/a	n/a	12	3	3	6	n/a	n/a	n/a	n/a	n/a
1834.794	n/a	PROB	917397	n/a	LTP237	ltpFR	11	n/a	n/a	n/a	n/a	n/a	n/a	n/a	19	8	8	3	n/a	n/a	n/a	n/a	n/a
1836.692	n/a	PROB	918346	n/a	LTP237	ltpFR	11	n/a	n/a	n/a	n/a	n/a	n/a	n/a	14	9	1	4	n/a	n/a	n/a	n/a	n/a
1837.724	n/a	PROB	918862	n/a	LTP237	ltpFR	11	n/a	n/a	n/a	n/a	n/a	n/a	n/a	6	2	2	2	n/a	n/a	n/a	n/a	n/a
1838.756	n/a	PROB	919378	n/a	LTP237	ltpFR	11	n/a	n/a	n/a	n/a	n/a	n/a	n/a	11	2	8	1	n/a	n/a	n/a	n/a	n/a
1839.92	n/a	PROB	919960	n/a	LTP237	ltpFR	11	n/a	n/a	n/a	n/a	n/a	n/a	n/a	16	3	5	8	n/a	n/a	n/a	n/a	n/a
1842.158	n/a	STOP	921079	n/a	LTP237	ltpFR	11	n/a	n/a	n/a	n/a	n/a	n/a	n/a	n/a	n/a	n/a	n/a	n/a	n/a	n/a	n/a	n/a
1844.246	n/a	WORD	922123	wordpools/wasnorm_wordpool_less_exclusions.txt	LTP237	ltpFR	11	7	1	LEAF	808	n/a	n/a	0	n/a	0	0	0	0.422607421875	0.5869140625	0	upper	zerothre.ttf
1847.26	n/a	START	923630	n/a	LTP237	ltpFR	11	n/a	n/a	n/a	n/a	n/a	n/a	n/a	n/a	n/a	n/a	n/a	n/a	n/a	n/a	n/a	n/a
1848.24	n/a	PROB	924120	n/a	LTP237	ltpFR	11	n/a	n/a	n/a	n/a	n/a	n/a	n/a	11	5	4	2	n/a	n/a	n/a	n/a	n/a
1850.038	n/a	PROB	925019	n/a	LTP237	ltpFR	11	n/a	n/a	n/a	n/a	n/a	n/a	n/a	15	9	5	1	n/a	n/a	n/a	n/a	n/a
1851.47	n/a	PROB	925735	n/a	LTP237	ltpFR	11	n/a	n/a	n/a	n/a	n/a	n/a	n/a	13	6	5	2	n/a	n/a	n/a	n/a	n/a
1854.332	n/a	PROB	927166	n/a	LTP237	ltpFR	11	n/a	n/a	n/a	n/a	n/a	n/a	n/a	19	7	8	4	n/a	n/a	n/a	n/a	n/a
1856.246	n/a	PROB	928123	n/a	LTP237	ltpFR	11	n/a	n/a	n/a	n/a	n/a	n/a	n/a	16	6	9	1	n/a	n/a	n/a	n/a	n/a
1857.36	n/a	PROB	928680	n/a	LTP237	ltpFR	11	n/a	n/a	n/a	n/a	n/a	n/a	n/a	16	9	2	5	n/a	n/a	n/a	n/a	n/a
1861.438	n/a	PROB	930719	n/a	LTP237	ltpFR	11	n/a	n/a	n/a	n/a	n/a	n/a	n/a	16	6	4	6	n/a	n/a	n/a	n/a	n/a
1862.694	n/a	STOP	931347	n/a	LTP237	ltpFR	11	n/a	n/a	n/a	n/a	n/a	n/a	n/a	n/a	n/a	n/a	n/a	n/a	n/a	n/a	n/a	n/a
1864.4	n/a	WORD	932200	wordpools/wasnorm_wordpool_less_exclusions.txt	LTP237	ltpFR	11	7	1	WILDERNESS	1610	n/a	n/a	0	n/a	0	0	0	0.422607421875	0.5869140625	0	upper	zerothre.ttf
1867.412	n/a	START	933706	n/a	LTP237	ltpFR	11	n/a	n/a	n/a	n/a	n/a	n/a	n/a	n/a	n/a	n/a	n/a	n/a	n/a	n/a	n/a	n/a
1868.378	n/a	PROB	934189	n/a	LTP237	ltpFR	11	n/a	n/a	n/a	n/a	n/a	n/a	n/a	20	3	8	9	n/a	n/a	n/a	n/a	n/a
1872.72	n/a	PROB	936360	n/a	LTP237	ltpFR	11	n/a	n/a	n/a	n/a	n/a	n/a	n/a	18	9	8	1	n/a	n/a	n/a	n/a	n/a
1874.252	n/a	PROB	937126	n/a	LTP237	ltpFR	11	n/a	n/a	n/a	n/a	n/a	n/a	n/a	21	6	6	9	n/a	n/a	n/a	n/a	n/a
1878.794	n/a	PROB	939397	n/a	LTP237	ltpFR	11	n/a	n/a	n/a	n/a	n/a	n/a	n/a	12	9	1	2	n/a	n/a	n/a	n/a	n/a
1879.86	n/a	PROB	939930	n/a	LTP237	ltpFR	11	n/a	n/a	n/a	n/a	n/a	n/a	n/a	16	2	9	5	n/a	n/a	n/a	n/a	n/a
1883.412	n/a	STOP	941706	n/a	LTP237	ltpFR	11	n/a	n/a	n/a	n/a	n/a	n/a	n/a	n/a	n/a	n/a	n/a	n/a	n/a	n/a	n/a	n/a
1884.254	n/a	WORD	942127	wordpools/wasnorm_wordpool_less_exclusions.txt	LTP237	ltpFR	11	7	1	BUS	201	n/a	n/a	0	n/a	0	0	0	0.422607421875	0.5869140625	0	upper	zerothre.ttf
1887.266	n/a	START	943633	n/a	LTP237	ltpFR	11	n/a	n/a	n/a	n/a	n/a	n/a	n/a	n/a	n/a	n/a	n/a	n/a	n/a	n/a	n/a	n/a
1888.298	n/a	PROB	944149	n/a	LTP237	ltpFR	11	n/a	n/a	n/a	n/a	n/a	n/a	n/a	16	3	7	6	n/a	n/a	n/a	n/a	n/a
1889.612	n/a	PROB	944806	n/a	LTP237	ltpFR	11	n/a	n/a	n/a	n/a	n/a	n/a	n/a	16	3	5	8	n/a	n/a	n/a	n/a	n/a
1891.578	n/a	PROB	945789	n/a	LTP237	ltpFR	11	n/a	n/a	n/a	n/a	n/a	n/a	n/a	13	3	8	2	n/a	n/a	n/a	n/a	n/a
1894.056	n/a	PROB	947028	n/a	LTP237	ltpFR	11	n/a	n/a	n/a	n/a	n/a	n/a	n/a	14	6	1	7	n/a	n/a	n/a	n/a	n/a
1896.17	n/a	PROB	948085	n/a	LTP237	ltpFR	11	n/a	n/a	n/a	n/a	n/a	n/a	n/a	10	7	1	2	n/a	n/a	n/a	n/a	n/a
1897.534	n/a	PROB	948767	n/a	LTP237	ltpFR	11	n/a	n/a	n/a	n/a	n/a	n/a	n/a	11	4	3	4	n/a	n/a	n/a	n/a	n/a
1899.382	n/a	PROB	949691	n/a	LTP237	ltpFR	11	n/a	n/a	n/a	n/a	n/a	n/a	n/a	21	9	3	9	n/a	n/a	n/a	n/a	n/a
1901.446	n/a	PROB	950723	n/a	LTP237	ltpFR	11	n/a	n/a	n/a	n/a	n/a	n/a	n/a	11	8	1	2	n/a	n/a	n/a	n/a	n/a
1902.552	n/a	STOP	951276	n/a	LTP237	ltpFR	11	n/a	n/a	n/a	n/a	n/a	n/a	n/a	n/a	n/a	n/a	n/a	n/a	n/a	n/a	n/a	n/a
1905.14	n/a	REC_START	952570	n/a	LTP237	ltpFR	11	7	n/a	n/a	n/a	n/a	n/a	n/a	n/a	0	0	0	n/a	n/a	n/a	n/a	n/a
1908.032	n/a	REC_WORD	954016	wordpools/wasnorm_wordpool_less_exclusions.txt	LTP237	ltpFR	11	7	1	BUS	201	n/a	n/a	0	n/a	0	0	0	n/a	n/a	n/a	n/a	n/a
1909.166	n/a	REC_WORD	954583	wordpools/wasnorm_wordpool_less_exclusions.txt	LTP237	ltpFR	11	7	1	SWAN	1417	n/a	n/a	1	n/a	0	0	0	n/a	n/a	n/a	n/a	n/a
1911.19	n/a	REC_WORD	955595	wordpools/wasnorm_wordpool_less_exclusions.txt	LTP237	ltpFR	11	7	1	DUCK	504	n/a	n/a	1	n/a	0	0	0	n/a	n/a	n/a	n/a	n/a
1914.404	n/a	REC_WORD	957202	wordpools/wasnorm_wordpool_less_exclusions.txt	LTP237	ltpFR	11	7	1	WILDERNESS	1610	n/a	n/a	0	n/a	0	0	0	n/a	n/a	n/a	n/a	n/a
1916.264	n/a	REC_WORD	958132	wordpools/wasnorm_wordpool_less_exclusions.txt	LTP237	ltpFR	11	7	1	SWAMP	1416	n/a	n/a	0	n/a	0	0	0	n/a	n/a	n/a	n/a	n/a
2022.516	n/a	WORD	1011258	wordpools/wasnorm_wordpool_less_exclusions.txt	LTP237	ltpFR	11	8	1	GENTLEMAN	631	n/a	n/a	1	n/a	0	0	0	0.422607421875	0.5869140625	0	upper	zerothre.ttf
2026.494	n/a	WORD	1013247	wordpools/wasnorm_wordpool_less_exclusions.txt	LTP237	ltpFR	11	8	1	MOAT	903	n/a	n/a	0	n/a	0	0	0	0.422607421875	0.5869140625	0	upper	zerothre.ttf
2030.604	n/a	WORD	1015302	wordpools/wasnorm_wordpool_less_exclusions.txt	LTP237	ltpFR	11	8	0	GRAPE	654	n/a	n/a	0	n/a	0	0	0	0.57763671875	0.412841796875	1	lower	amplitud.ttf
2034.682	n/a	WORD	1017341	wordpools/wasnorm_wordpool_less_exclusions.txt	LTP237	ltpFR	11	8	0	DOUGH	489	n/a	n/a	0	n/a	0	0	0	0.57763671875	0.412841796875	1	lower	amplitud.ttf
2038.824	n/a	WORD	1019412	wordpools/wasnorm_wordpool_less_exclusions.txt	LTP237	ltpFR	11	8	0	OTTER	986	n/a	n/a	1	n/a	0	0	0	0.57763671875	0.412841796875	1	lower	amplitud.ttf
2042.836	n/a	WORD	1021418	wordpools/wasnorm_wordpool_less_exclusions.txt	LTP237	ltpFR	11	8	0	REEF	1177	n/a	n/a	1	n/a	0	0	0	0.57763671875	0.412841796875	1	lower	amplitud.ttf
2046.912	n/a	WORD	1023456	wordpools/wasnorm_wordpool_less_exclusions.txt	LTP237	ltpFR	11	8	1	SODA	1341	n/a	n/a	0	n/a	0	0	0	0.422607421875	0.5869140625	0	upper	zerothre.ttf
2050.742	n/a	WORD	1025371	wordpools/wasnorm_wordpool_less_exclusions.txt	LTP237	ltpFR	11	8	1	CHEF	290	n/a	n/a	1	n/a	0	0	0	0.422607421875	0.5869140625	0	upper	zerothre.ttf
2054.736	n/a	WORD	1027368	wordpools/wasnorm_wordpool_less_exclusions.txt	LTP237	ltpFR	11	8	0	SHOELACE	1289	n/a	n/a	2	n/a	0	0	0	0.57763671875	0.412841796875	1	lower	amplitud.ttf
2056.216	n/a	KEY_MSG	1028108	n/a	LTP237	ltpFR	11	8	n/a	n/a	n/a	n/a	n/a	n/a	n/a	0	0	0	n/a	n/a	n/a	n/a	n/a
2058.58	n/a	WORD	1029290	wordpools/wasnorm_wordpool_less_exclusions.txt	LTP237	ltpFR	11	8	0	LACE	792	n/a	n/a	0	n/a	0	0	0	0.57763671875	0.412841796875	1	lower	amplitud.ttf
2062.656	n/a	WORD	1031328	wordpools/wasnorm_wordpool_less_exclusions.txt	LTP237	ltpFR	11	8	0	CANOE	233	n/a	n/a	1	n/a	0	0	0	0.57763671875	0.412841796875	1	lower	amplitud.ttf
2066.7	n/a	WORD	1033350	wordpools/wasnorm_wordpool_less_exclusions.txt	LTP237	ltpFR	11	8	0	BUTTER	205	n/a	n/a	0	n/a	0	0	0	0.57763671875	0.412841796875	1	lower	amplitud.ttf
2070.844	n/a	WORD	1035422	wordpools/wasnorm_wordpool_less_exclusions.txt	LTP237	ltpFR	11	8	1	EWE	542	n/a	n/a	0	n/a	0	0	0	0.422607421875	0.5869140625	0	upper	zerothre.ttf
2075.038	n/a	WORD	1037519	wordpools/wasnorm_wordpool_less_exclusions.txt	LTP237	ltpFR	11	8	1	GOAT	644	n/a	n/a	1	n/a	0	0	0	0.422607421875	0.5869140625	0	upper	zerothre.ttf
2079.182	n/a	WORD	1039591	wordpools/wasnorm_wordpool_less_exclusions.txt	LTP237	ltpFR	11	8	1	JAM	748	n/a	n/a	0	n/a	0	0	0	0.422607421875	0.5869140625	0	upper	zerothre.ttf
2083.31	n/a	WORD	1041655	wordpools/wasnorm_wordpool_less_exclusions.txt	LTP237	ltpFR	11	8	1	ELBOW	520	n/a	n/a	0	n/a	0	0	0	0.422607421875	0.5869140625	0	upper	zerothre.ttf
2089.018	n/a	REC_START	1044509	n/a	LTP237	ltpFR	11	8	n/a	n/a	n/a	n/a	n/a	n/a	n/a	0	0	0	n/a	n/a	n/a	n/a	n/a
2092.29	n/a	REC_WORD	1046145	wordpools/wasnorm_wordpool_less_exclusions.txt	LTP237	ltpFR	11	8	1	GENTLEMAN	631	n/a	n/a	1	n/a	0	0	0	n/a	n/a	n/a	n/a	n/a
2093.262	n/a	REC_WORD	1046631	wordpools/wasnorm_wordpool_less_exclusions.txt	LTP237	ltpFR	11	8	0	GRAPE	654	n/a	n/a	0	n/a	0	0	0	n/a	n/a	n/a	n/a	n/a
2099.712	n/a	REC_WORD	1049856	wordpools/wasnorm_wordpool_less_exclusions.txt	LTP237	ltpFR	11	8	0	OTTER	986	n/a	n/a	1	n/a	0	0	0	n/a	n/a	n/a	n/a	n/a
2100.78	n/a	REC_WORD	1050390	wordpools/wasnorm_wordpool_less_exclusions.txt	LTP237	ltpFR	11	8	0	CANOE	233	n/a	n/a	1	n/a	0	0	0	n/a	n/a	n/a	n/a	n/a
2104.462	n/a	REC_WORD	1052231	wordpools/wasnorm_wordpool_less_exclusions.txt	LTP237	ltpFR	11	8	1	SODA	1341	n/a	n/a	0	n/a	0	0	0	n/a	n/a	n/a	n/a	n/a
2110.67	n/a	REC_WORD	1055335	wordpools/wasnorm_wordpool_less_exclusions.txt	LTP237	ltpFR	11	8	1	EWE	542	n/a	n/a	0	n/a	0	0	0	n/a	n/a	n/a	n/a	n/a
2192.682	n/a	WORD	1096341	wordpools/wasnorm_wordpool_less_exclusions.txt	LTP237	ltpFR	11	9	1	LIMB	822	n/a	n/a	0	n/a	0	0	0	0.422607421875	0.5869140625	0	upper	zerothre.ttf
2196.742	n/a	WORD	1098371	wordpools/wasnorm_wordpool_less_exclusions.txt	LTP237	ltpFR	11	9	1	TREE	1502	n/a	n/a	1	n/a	0	0	0	0.422607421875	0.5869140625	0	upper	zerothre.ttf
2200.57	n/a	WORD	1100285	wordpools/wasnorm_wordpool_less_exclusions.txt	LTP237	ltpFR	11	9	0	BUBBLE	183	n/a	n/a	0	n/a	0	0	0	0.57763671875	0.412841796875	1	lower	amplitud.ttf
2204.796	n/a	WORD	1102398	wordpools/wasnorm_wordpool_less_exclusions.txt	LTP237	ltpFR	11	9	0	FEAST	556	n/a	n/a	1	n/a	0	0	0	0.57763671875	0.412841796875	1	lower	amplitud.ttf
2208.956	n/a	WORD	1104478	wordpools/wasnorm_wordpool_less_exclusions.txt	LTP237	ltpFR	11	9	0	FINGERNAIL	568	n/a	n/a	0	n/a	0	0	0	0.57763671875	0.412841796875	1	lower	amplitud.ttf
2212.834	n/a	WORD	1106417	wordpools/wasnorm_wordpool_less_exclusions.txt	LTP237	ltpFR	11	9	1	CONDUCTOR	362	n/a	n/a	1	n/a	0	0	0	0.422607421875	0.5869140625	0	upper	zerothre.ttf
2216.696	n/a	WORD	1108348	wordpools/wasnorm_wordpool_less_exclusions.txt	LTP237	ltpFR	11	9	1	PICNIC	1060	n/a	n/a	0	n/a	0	0	0	0.422607421875	0.5869140625	0	upper	zerothre.ttf
2220.656	n/a	WORD	1110328	wordpools/wasnorm_wordpool_less_exclusions.txt	LTP237	ltpFR	11	9	0	ESSAY	540	n/a	n/a	0	n/a	0	0	0	0.57763671875	0.412841796875	1	lower	amplitud.ttf
2224.85	n/a	WORD	1112425	wordpools/wasnorm_wordpool_less_exclusions.txt	LTP237	ltpFR	11	9	0	CONTINENT	367	n/a	n/a	1	n/a	0	0	0	0.57763671875	0.412841796875	1	lower	amplitud.ttf
2229.06	n/a	WORD	1114530	wordpools/wasnorm_wordpool_less_exclusions.txt	LTP237	ltpFR	11	9	0	LAGOON	795	n/a	n/a	1	n/a	0	0	0	0.57763671875	0.412841796875	1	lower	amplitud.ttf
2233.036	n/a	WORD	1116518	wordpools/wasnorm_wordpool_less_exclusions.txt	LTP237	ltpFR	11	9	0	TAXI	1438	n/a	n/a	1	n/a	0	0	0	0.57763671875	0.412841796875	1	lower	amplitud.ttf
2237.114	n/a	WORD	1118557	wordpools/wasnorm_wordpool_less_exclusions.txt	LTP237	ltpFR	11	9	0	CLARINET	317	n/a	n/a	1	n/a	0	0	0	0.57763671875	0.412841796875	1	lower	amplitud.ttf
2241.042	n/a	WORD	1120521	wordpools/wasnorm_wordpool_less_exclusions.txt	LTP237	ltpFR	11	9	1	ACTOR	5	n/a	n/a	0	n/a	0	0	0	0.422607421875	0.5869140625	0	upper	zerothre.ttf
2245.036	n/a	WORD	1122518	wordpools/wasnorm_wordpool_less_exclusions.txt	LTP237	ltpFR	11	9	1	WOMAN	1620	n/a	n/a	1	n/a	0	0	0	0.422607421875	0.5869140625	0	upper	zerothre.ttf
2248.964	n/a	WORD	1124482	wordpools/wasnorm_wordpool_less_exclusions.txt	LTP237	ltpFR	11	9	1	BARRACUDA	90	n/a	n/a	1	n/a	0	0	0	0.422607421875	0.5869140625	0	upper	zerothre.ttf
2253.174	n/a	WORD	1126587	wordpools/wasnorm_wordpool_less_exclusions.txt	LTP237	ltpFR	11	9	1	SHRIMP	1297	n/a	n/a	1	n/a	0	0	0	0.422607421875	0.5869140625	0	upper	zerothre.ttf
2256.186	n/a	START	1128093	n/a	LTP237	ltpFR	11	n/a	n/a	n/a	n/a	n/a	n/a	n/a	n/a	n/a	n/a	n/a	n/a	n/a	n/a	n/a	n/a
2257.32	n/a	PROB	1128660	n/a	LTP237	ltpFR	11	n/a	n/a	n/a	n/a	n/a	n/a	n/a	18	4	6	8	n/a	n/a	n/a	n/a	n/a
2260.314	n/a	PROB	1130157	n/a	LTP237	ltpFR	11	n/a	n/a	n/a	n/a	n/a	n/a	n/a	14	2	9	3	n/a	n/a	n/a	n/a	n/a
2262.262	n/a	PROB	1131131	n/a	LTP237	ltpFR	11	n/a	n/a	n/a	n/a	n/a	n/a	n/a	12	1	8	3	n/a	n/a	n/a	n/a	n/a
2263.772	n/a	STOP	1131886	n/a	LTP237	ltpFR	11	n/a	n/a	n/a	n/a	n/a	n/a	n/a	n/a	n/a	n/a	n/a	n/a	n/a	n/a	n/a	n/a
2265.99	n/a	REC_START	1132995	n/a	LTP237	ltpFR	11	9	n/a	n/a	n/a	n/a	n/a	n/a	n/a	0	0	0	n/a	n/a	n/a	n/a	n/a
2270.016	n/a	REC_WORD	1135008	wordpools/wasnorm_wordpool_less_exclusions.txt	LTP237	ltpFR	11	9	1	BARRACUDA	90	n/a	n/a	1	n/a	0	0	0	n/a	n/a	n/a	n/a	n/a
2270.84	n/a	REC_WORD	1135420	wordpools/wasnorm_wordpool_less_exclusions.txt	LTP237	ltpFR	11	9	1	SHRIMP	1297	n/a	n/a	1	n/a	0	0	0	n/a	n/a	n/a	n/a	n/a
2352.794	n/a	START	1176397	n/a	LTP237	ltpFR	11	n/a	n/a	n/a	n/a	n/a	n/a	n/a	n/a	n/a	n/a	n/a	n/a	n/a	n/a	n/a	n/a
2354.308	n/a	PROB	1177154	n/a	LTP237	ltpFR	11	n/a	n/a	n/a	n/a	n/a	n/a	n/a	10	2	5	3	n/a	n/a	n/a	n/a	n/a
2356.138	n/a	PROB	1178069	n/a	LTP237	ltpFR	11	n/a	n/a	n/a	n/a	n/a	n/a	n/a	21	7	8	6	n/a	n/a	n/a	n/a	n/a
2358.186	n/a	PROB	1179093	n/a	LTP237	ltpFR	11	n/a	n/a	n/a	n/a	n/a	n/a	n/a	1	7	3	7	n/a	n/a	n/a	n/a	n/a
2359.398	n/a	STOP	1179699	n/a	LTP237	ltpFR	11	n/a	n/a	n/a	n/a	n/a	n/a	n/a	n/a	n/a	n/a	n/a	n/a	n/a	n/a	n/a	n/a
2361.88	n/a	WORD	1180940	wordpools/wasnorm_wordpool_less_exclusions.txt	LTP237	ltpFR	11	10	0	CLOCK	325	n/a	n/a	1	n/a	0	0	0	0.57763671875	0.412841796875	1	lower	amplitud.ttf
2364.892	n/a	START	1182446	n/a	LTP237	ltpFR	11	n/a	n/a	n/a	n/a	n/a	n/a	n/a	n/a	n/a	n/a	n/a	n/a	n/a	n/a	n/a	n/a
2366.106	n/a	PROB	1183053	n/a	LTP237	ltpFR	11	n/a	n/a	n/a	n/a	n/a	n/a	n/a	18	6	7	5	n/a	n/a	n/a	n/a	n/a
2367.904	n/a	PROB	1183952	n/a	LTP237	ltpFR	11	n/a	n/a	n/a	n/a	n/a	n/a	n/a	13	7	1	5	n/a	n/a	n/a	n/a	n/a
2370.252	n/a	PROB	1185126	n/a	LTP237	ltpFR	11	n/a	n/a	n/a	n/a	n/a	n/a	n/a	11	1	6	4	n/a	n/a	n/a	n/a	n/a
2372.892	n/a	STOP	1186446	n/a	LTP237	ltpFR	11	n/a	n/a	n/a	n/a	n/a	n/a	n/a	n/a	n/a	n/a	n/a	n/a	n/a	n/a	n/a	n/a
2374.112	n/a	WORD	1187056	wordpools/wasnorm_wordpool_less_exclusions.txt	LTP237	ltpFR	11	10	0	ACROBAT	4	n/a	n/a	1	n/a	0	0	0	0.57763671875	0.412841796875	1	lower	amplitud.ttf
2377.124	n/a	START	1188562	n/a	LTP237	ltpFR	11	n/a	n/a	n/a	n/a	n/a	n/a	n/a	n/a	n/a	n/a	n/a	n/a	n/a	n/a	n/a	n/a
2378.172	n/a	PROB	1189086	n/a	LTP237	ltpFR	11	n/a	n/a	n/a	n/a	n/a	n/a	n/a	15	1	8	6	n/a	n/a	n/a	n/a	n/a
2379.754	n/a	PROB	1189877	n/a	LTP237	ltpFR	11	n/a	n/a	n/a	n/a	n/a	n/a	n/a	11	6	2	3	n/a	n/a	n/a	n/a	n/a
2381.568	n/a	PROB	1190784	n/a	LTP237	ltpFR	11	n/a	n/a	n/a	n/a	n/a	n/a	n/a	12	2	8	2	n/a	n/a	n/a	n/a	n/a
2382.566	n/a	PROB	1191283	n/a	LTP237	ltpFR	11	n/a	n/a	n/a	n/a	n/a	n/a	n/a	14	8	4	2	n/a	n/a	n/a	n/a	n/a
2384.23	n/a	STOP	1192115	n/a	LTP237	ltpFR	11	n/a	n/a	n/a	n/a	n/a	n/a	n/a	n/a	n/a	n/a	n/a	n/a	n/a	n/a	n/a	n/a
2386.044	n/a	WORD	1193022	wordpools/wasnorm_wordpool_less_exclusions.txt	LTP237	ltpFR	11	10	1	GREASE	660	n/a	n/a	0	n/a	0	0	0	0.422607421875	0.5869140625	0	upper	zerothre.ttf
2389.056	n/a	START	1194528	n/a	LTP237	ltpFR	11	n/a	n/a	n/a	n/a	n/a	n/a	n/a	n/a	n/a	n/a	n/a	n/a	n/a	n/a	n/a	n/a
2390.238	n/a	PROB	1195119	n/a	LTP237	ltpFR	11	n/a	n/a	n/a	n/a	n/a	n/a	n/a	6	1	3	2	n/a	n/a	n/a	n/a	n/a
2391.868	n/a	PROB	1195934	n/a	LTP237	ltpFR	11	n/a	n/a	n/a	n/a	n/a	n/a	n/a	7	4	1	2	n/a	n/a	n/a	n/a	n/a
2397.058	n/a	STOP	1198529	n/a	LTP237	ltpFR	11	n/a	n/a	n/a	n/a	n/a	n/a	n/a	n/a	n/a	n/a	n/a	n/a	n/a	n/a	n/a	n/a
2397.91	n/a	WORD	1198955	wordpools/wasnorm_wordpool_less_exclusions.txt	LTP237	ltpFR	11	10	1	FAN	551	n/a	n/a	0	n/a	0	0	0	0.422607421875	0.5869140625	0	upper	zerothre.ttf
2400.922	n/a	START	1200461	n/a	LTP237	ltpFR	11	n/a	n/a	n/a	n/a	n/a	n/a	n/a	n/a	n/a	n/a	n/a	n/a	n/a	n/a	n/a	n/a
2401.772	n/a	PROB	1200886	n/a	LTP237	ltpFR	11	n/a	n/a	n/a	n/a	n/a	n/a	n/a	17	7	8	2	n/a	n/a	n/a	n/a	n/a
2403.602	n/a	PROB	1201801	n/a	LTP237	ltpFR	11	n/a	n/a	n/a	n/a	n/a	n/a	n/a	18	7	7	4	n/a	n/a	n/a	n/a	n/a
2405.7	n/a	PROB	1202850	n/a	LTP237	ltpFR	11	n/a	n/a	n/a	n/a	n/a	n/a	n/a	15	2	7	6	n/a	n/a	n/a	n/a	n/a
2407.164	n/a	PROB	1203582	n/a	LTP237	ltpFR	11	n/a	n/a	n/a	n/a	n/a	n/a	n/a	7	2	4	1	n/a	n/a	n/a	n/a	n/a
2408.75	n/a	STOP	1204375	n/a	LTP237	ltpFR	11	n/a	n/a	n/a	n/a	n/a	n/a	n/a	n/a	n/a	n/a	n/a	n/a	n/a	n/a	n/a	n/a
2409.76	n/a	WORD	1204880	wordpools/wasnorm_wordpool_less_exclusions.txt	LTP237	ltpFR	11	10	1	BROOK	177	n/a	n/a	0	n/a	0	0	0	0.422607421875	0.5869140625	0	upper	zerothre.ttf
2412.772	n/a	START	1206386	n/a	LTP237	ltpFR	11	n/a	n/a	n/a	n/a	n/a	n/a	n/a	n/a	n/a	n/a	n/a	n/a	n/a	n/a	n/a	n/a
2413.97	n/a	PROB	1206985	n/a	LTP237	ltpFR	11	n/a	n/a	n/a	n/a	n/a	n/a	n/a	19	9	9	1	n/a	n/a	n/a	n/a	n/a
2415.336	n/a	PROB	1207668	n/a	LTP237	ltpFR	11	n/a	n/a	n/a	n/a	n/a	n/a	n/a	21	6	7	8	n/a	n/a	n/a	n/a	n/a
2417.682	n/a	PROB	1208841	n/a	LTP237	ltpFR	11	n/a	n/a	n/a	n/a	n/a	n/a	n/a	19	8	9	2	n/a	n/a	n/a	n/a	n/a
2420.772	n/a	STOP	1210386	n/a	LTP237	ltpFR	11	n/a	n/a	n/a	n/a	n/a	n/a	n/a	n/a	n/a	n/a	n/a	n/a	n/a	n/a	n/a	n/a
2421.592	n/a	WORD	1210796	wordpools/wasnorm_wordpool_less_exclusions.txt	LTP237	ltpFR	11	10	1	STAIRS	1367	n/a	n/a	0	n/a	0	0	0	0.422607421875	0.5869140625	0	upper	zerothre.ttf
2424.606	n/a	START	1212303	n/a	LTP237	ltpFR	11	n/a	n/a	n/a	n/a	n/a	n/a	n/a	n/a	n/a	n/a	n/a	n/a	n/a	n/a	n/a	n/a
2425.57	n/a	PROB	1212785	n/a	LTP237	ltpFR	11	n/a	n/a	n/a	n/a	n/a	n/a	n/a	18	3	7	8	n/a	n/a	n/a	n/a	n/a
2427.25	n/a	PROB	1213625	n/a	LTP237	ltpFR	11	n/a	n/a	n/a	n/a	n/a	n/a	n/a	1	2	4	5	n/a	n/a	n/a	n/a	n/a
2429.298	n/a	PROB	1214649	n/a	LTP237	ltpFR	11	n/a	n/a	n/a	n/a	n/a	n/a	n/a	9	2	2	5	n/a	n/a	n/a	n/a	n/a
2432.414	n/a	STOP	1216207	n/a	LTP237	ltpFR	11	n/a	n/a	n/a	n/a	n/a	n/a	n/a	n/a	n/a	n/a	n/a	n/a	n/a	n/a	n/a	n/a
2433.774	n/a	WORD	1216887	wordpools/wasnorm_wordpool_less_exclusions.txt	LTP237	ltpFR	11	10	1	ANTEATER	26	n/a	n/a	1	n/a	0	0	0	0.422607421875	0.5869140625	0	upper	zerothre.ttf
2436.786	n/a	START	1218393	n/a	LTP237	ltpFR	11	n/a	n/a	n/a	n/a	n/a	n/a	n/a	n/a	n/a	n/a	n/a	n/a	n/a	n/a	n/a	n/a
2437.818	n/a	PROB	1218909	n/a	LTP237	ltpFR	11	n/a	n/a	n/a	n/a	n/a	n/a	n/a	14	5	2	7	n/a	n/a	n/a	n/a	n/a
2439.864	n/a	PROB	1219932	n/a	LTP237	ltpFR	11	n/a	n/a	n/a	n/a	n/a	n/a	n/a	15	9	3	4	n/a	n/a	n/a	n/a	n/a
2444.784	n/a	STOP	1222392	n/a	LTP237	ltpFR	11	n/a	n/a	n/a	n/a	n/a	n/a	n/a	n/a	n/a	n/a	n/a	n/a	n/a	n/a	n/a	n/a
2445.922	n/a	WORD	1222961	wordpools/wasnorm_wordpool_less_exclusions.txt	LTP237	ltpFR	11	10	0	INSTRUCTOR	741	n/a	n/a	3	n/a	0	0	0	0.57763671875	0.412841796875	1	lower	amplitud.ttf
2446.904	n/a	KEY_MSG	1223452	n/a	LTP237	ltpFR	11	10	n/a	n/a	n/a	n/a	n/a	n/a	n/a	0	0	0	n/a	n/a	n/a	n/a	n/a
2448.934	n/a	START	1224467	n/a	LTP237	ltpFR	11	n/a	n/a	n/a	n/a	n/a	n/a	n/a	n/a	n/a	n/a	n/a	n/a	n/a	n/a	n/a	n/a
2449.95	n/a	PROB	1224975	n/a	LTP237	ltpFR	11	n/a	n/a	n/a	n/a	n/a	n/a	n/a	23	6	9	8	n/a	n/a	n/a	n/a	n/a
2452.296	n/a	PROB	1226148	n/a	LTP237	ltpFR	11	n/a	n/a	n/a	n/a	n/a	n/a	n/a	18	2	7	9	n/a	n/a	n/a	n/a	n/a
2453.876	n/a	PROB	1226938	n/a	LTP237	ltpFR	11	n/a	n/a	n/a	n/a	n/a	n/a	n/a	11	5	5	1	n/a	n/a	n/a	n/a	n/a
2454.908	n/a	PROB	1227454	n/a	LTP237	ltpFR	11	n/a	n/a	n/a	n/a	n/a	n/a	n/a	14	4	4	6	n/a	n/a	n/a	n/a	n/a
2456.038	n/a	STOP	1228019	n/a	LTP237	ltpFR	11	n/a	n/a	n/a	n/a	n/a	n/a	n/a	n/a	n/a	n/a	n/a	n/a	n/a	n/a	n/a	n/a
2458.02	n/a	WORD	1229010	wordpools/wasnorm_wordpool_less_exclusions.txt	LTP237	ltpFR	11	10	0	GRADUATE	653	n/a	n/a	1	n/a	0	0	0	0.57763671875	0.412841796875	1	lower	amplitud.ttf
2461.034	n/a	START	1230517	n/a	LTP237	ltpFR	11	n/a	n/a	n/a	n/a	n/a	n/a	n/a	n/a	n/a	n/a	n/a	n/a	n/a	n/a	n/a	n/a
2462.148	n/a	PROB	1231074	n/a	LTP237	ltpFR	11	n/a	n/a	n/a	n/a	n/a	n/a	n/a	16	2	5	9	n/a	n/a	n/a	n/a	n/a
2463.496	n/a	PROB	1231748	n/a	LTP237	ltpFR	11	n/a	n/a	n/a	n/a	n/a	n/a	n/a	14	2	5	7	n/a	n/a	n/a	n/a	n/a
2465.344	n/a	PROB	1232672	n/a	LTP237	ltpFR	11	n/a	n/a	n/a	n/a	n/a	n/a	n/a	12	6	1	5	n/a	n/a	n/a	n/a	n/a
2468.28	n/a	STOP	1234140	n/a	LTP237	ltpFR	11	n/a	n/a	n/a	n/a	n/a	n/a	n/a	n/a	n/a	n/a	n/a	n/a	n/a	n/a	n/a	n/a
2470.054	n/a	WORD	1235027	wordpools/wasnorm_wordpool_less_exclusions.txt	LTP237	ltpFR	11	10	1	TAG	1429	n/a	n/a	0	n/a	0	0	0	0.422607421875	0.5869140625	0	upper	zerothre.ttf
2473.066	n/a	START	1236533	n/a	LTP237	ltpFR	11	n/a	n/a	n/a	n/a	n/a	n/a	n/a	n/a	n/a	n/a	n/a	n/a	n/a	n/a	n/a	n/a
2474.164	n/a	PROB	1237082	n/a	LTP237	ltpFR	11	n/a	n/a	n/a	n/a	n/a	n/a	n/a	7	1	3	3	n/a	n/a	n/a	n/a	n/a
2475.962	n/a	PROB	1237981	n/a	LTP237	ltpFR	11	n/a	n/a	n/a	n/a	n/a	n/a	n/a	11	6	3	2	n/a	n/a	n/a	n/a	n/a
2477.876	n/a	PROB	1238938	n/a	LTP237	ltpFR	11	n/a	n/a	n/a	n/a	n/a	n/a	n/a	11	6	9	3	n/a	n/a	n/a	n/a	n/a
2481.066	n/a	STOP	1240533	n/a	LTP237	ltpFR	11	n/a	n/a	n/a	n/a	n/a	n/a	n/a	n/a	n/a	n/a	n/a	n/a	n/a	n/a	n/a	n/a
2482.068	n/a	WORD	1241034	wordpools/wasnorm_wordpool_less_exclusions.txt	LTP237	ltpFR	11	10	1	WARDROBE	1587	n/a	n/a	0	n/a	0	0	0	0.422607421875	0.5869140625	0	upper	zerothre.ttf
2485.082	n/a	START	1242541	n/a	LTP237	ltpFR	11	n/a	n/a	n/a	n/a	n/a	n/a	n/a	n/a	n/a	n/a	n/a	n/a	n/a	n/a	n/a	n/a
2486.13	n/a	PROB	1243065	n/a	LTP237	ltpFR	11	n/a	n/a	n/a	n/a	n/a	n/a	n/a	14	1	7	6	n/a	n/a	n/a	n/a	n/a
2487.826	n/a	PROB	1243913	n/a	LTP237	ltpFR	11	n/a	n/a	n/a	n/a	n/a	n/a	n/a	19	8	2	9	n/a	n/a	n/a	n/a	n/a
2489.026	n/a	PROB	1244513	n/a	LTP237	ltpFR	11	n/a	n/a	n/a	n/a	n/a	n/a	n/a	17	4	6	7	n/a	n/a	n/a	n/a	n/a
2490.424	n/a	PROB	1245212	n/a	LTP237	ltpFR	11	n/a	n/a	n/a	n/a	n/a	n/a	n/a	7	1	2	4	n/a	n/a	n/a	n/a	n/a
2492.336	n/a	STOP	1246168	n/a	LTP237	ltpFR	11	n/a	n/a	n/a	n/a	n/a	n/a	n/a	n/a	n/a	n/a	n/a	n/a	n/a	n/a	n/a	n/a
2494.168	n/a	WORD	1247084	wordpools/wasnorm_wordpool_less_exclusions.txt	LTP237	ltpFR	11	10	1	PISTON	1076	n/a	n/a	1	n/a	0	0	0	0.422607421875	0.5869140625	0	upper	zerothre.ttf
2497.18	n/a	START	1248590	n/a	LTP237	ltpFR	11	n/a	n/a	n/a	n/a	n/a	n/a	n/a	n/a	n/a	n/a	n/a	n/a	n/a	n/a	n/a	n/a
2498.246	n/a	PROB	1249123	n/a	LTP237	ltpFR	11	n/a	n/a	n/a	n/a	n/a	n/a	n/a	9	3	5	1	n/a	n/a	n/a	n/a	n/a
2499.626	n/a	PROB	1249813	n/a	LTP237	ltpFR	11	n/a	n/a	n/a	n/a	n/a	n/a	n/a	20	9	8	3	n/a	n/a	n/a	n/a	n/a
2501.658	n/a	PROB	1250829	n/a	LTP237	ltpFR	11	n/a	n/a	n/a	n/a	n/a	n/a	n/a	10	3	6	1	n/a	n/a	n/a	n/a	n/a
2503.304	n/a	PROB	1251652	n/a	LTP237	ltpFR	11	n/a	n/a	n/a	n/a	n/a	n/a	n/a	17	7	1	9	n/a	n/a	n/a	n/a	n/a
2504.854	n/a	STOP	1252427	n/a	LTP237	ltpFR	11	n/a	n/a	n/a	n/a	n/a	n/a	n/a	n/a	n/a	n/a	n/a	n/a	n/a	n/a	n/a	n/a
2506.318	n/a	WORD	1253159	wordpools/wasnorm_wordpool_less_exclusions.txt	LTP237	ltpFR	11	10	0	TENT	1449	n/a	n/a	1	n/a	0	0	0	0.57763671875	0.412841796875	1	lower	amplitud.ttf
2509.33	n/a	START	1254665	n/a	LTP237	ltpFR	11	n/a	n/a	n/a	n/a	n/a	n/a	n/a	n/a	n/a	n/a	n/a	n/a	n/a	n/a	n/a	n/a
2510.46	n/a	PROB	1255230	n/a	LTP237	ltpFR	11	n/a	n/a	n/a	n/a	n/a	n/a	n/a	15	6	4	5	n/a	n/a	n/a	n/a	n/a
2511.726	n/a	PROB	1255863	n/a	LTP237	ltpFR	11	n/a	n/a	n/a	n/a	n/a	n/a	n/a	14	5	7	2	n/a	n/a	n/a	n/a	n/a
2513.69	n/a	PROB	1256845	n/a	LTP237	ltpFR	11	n/a	n/a	n/a	n/a	n/a	n/a	n/a	17	6	9	2	n/a	n/a	n/a	n/a	n/a
2515.854	n/a	STOP	1257927	n/a	LTP237	ltpFR	11	n/a	n/a	n/a	n/a	n/a	n/a	n/a	n/a	n/a	n/a	n/a	n/a	n/a	n/a	n/a	n/a
2518.466	n/a	WORD	1259233	wordpools/wasnorm_wordpool_less_exclusions.txt	LTP237	ltpFR	11	10	0	DUST	508	n/a	n/a	0	n/a	0	0	0	0.57763671875	0.412841796875	1	lower	amplitud.ttf
2521.478	n/a	START	1260739	n/a	LTP237	ltpFR	11	n/a	n/a	n/a	n/a	n/a	n/a	n/a	n/a	n/a	n/a	n/a	n/a	n/a	n/a	n/a	n/a
2522.576	n/a	PROB	1261288	n/a	LTP237	ltpFR	11	n/a	n/a	n/a	n/a	n/a	n/a	n/a	15	4	7	4	n/a	n/a	n/a	n/a	n/a
2523.924	n/a	PROB	1261962	n/a	LTP237	ltpFR	11	n/a	n/a	n/a	n/a	n/a	n/a	n/a	15	2	6	7	n/a	n/a	n/a	n/a	n/a
2525.638	n/a	PROB	1262819	n/a	LTP237	ltpFR	11	n/a	n/a	n/a	n/a	n/a	n/a	n/a	18	9	1	8	n/a	n/a	n/a	n/a	n/a
2527.052	n/a	PROB	1263526	n/a	LTP237	ltpFR	11	n/a	n/a	n/a	n/a	n/a	n/a	n/a	15	3	8	4	n/a	n/a	n/a	n/a	n/a
2529.03	n/a	STOP	1264515	n/a	LTP237	ltpFR	11	n/a	n/a	n/a	n/a	n/a	n/a	n/a	n/a	n/a	n/a	n/a	n/a	n/a	n/a	n/a	n/a
2530.464	n/a	WORD	1265232	wordpools/wasnorm_wordpool_less_exclusions.txt	LTP237	ltpFR	11	10	0	PUDDLE	1140	n/a	n/a	0	n/a	0	0	0	0.57763671875	0.412841796875	1	lower	amplitud.ttf
2533.476	n/a	START	1266738	n/a	LTP237	ltpFR	11	n/a	n/a	n/a	n/a	n/a	n/a	n/a	n/a	n/a	n/a	n/a	n/a	n/a	n/a	n/a	n/a
2534.592	n/a	PROB	1267296	n/a	LTP237	ltpFR	11	n/a	n/a	n/a	n/a	n/a	n/a	n/a	8	2	5	1	n/a	n/a	n/a	n/a	n/a
2535.938	n/a	PROB	1267969	n/a	LTP237	ltpFR	11	n/a	n/a	n/a	n/a	n/a	n/a	n/a	18	6	9	3	n/a	n/a	n/a	n/a	n/a
2538.852	n/a	PROB	1269426	n/a	LTP237	ltpFR	11	n/a	n/a	n/a	n/a	n/a	n/a	n/a	9	4	1	4	n/a	n/a	n/a	n/a	n/a
2541.144	n/a	STOP	1270572	n/a	LTP237	ltpFR	11	n/a	n/a	n/a	n/a	n/a	n/a	n/a	n/a	n/a	n/a	n/a	n/a	n/a	n/a	n/a	n/a
2542.414	n/a	WORD	1271207	wordpools/wasnorm_wordpool_less_exclusions.txt	LTP237	ltpFR	11	10	0	STREAM	1392	n/a	n/a	1	n/a	0	0	0	0.57763671875	0.412841796875	1	lower	amplitud.ttf
2545.426	n/a	START	1272713	n/a	LTP237	ltpFR	11	n/a	n/a	n/a	n/a	n/a	n/a	n/a	n/a	n/a	n/a	n/a	n/a	n/a	n/a	n/a	n/a
2546.574	n/a	PROB	1273287	n/a	LTP237	ltpFR	11	n/a	n/a	n/a	n/a	n/a	n/a	n/a	17	7	2	8	n/a	n/a	n/a	n/a	n/a
2548.206	n/a	PROB	1274103	n/a	LTP237	ltpFR	11	n/a	n/a	n/a	n/a	n/a	n/a	n/a	21	7	5	9	n/a	n/a	n/a	n/a	n/a
2551.284	n/a	PROB	1275642	n/a	LTP237	ltpFR	11	n/a	n/a	n/a	n/a	n/a	n/a	n/a	14	2	6	6	n/a	n/a	n/a	n/a	n/a
2552.64	n/a	STOP	1276320	n/a	LTP237	ltpFR	11	n/a	n/a	n/a	n/a	n/a	n/a	n/a	n/a	n/a	n/a	n/a	n/a	n/a	n/a	n/a	n/a
2555.346	n/a	REC_START	1277673	n/a	LTP237	ltpFR	11	10	n/a	n/a	n/a	n/a	n/a	n/a	n/a	0	0	0	n/a	n/a	n/a	n/a	n/a
2558.014	n/a	REC_WORD	1279007	wordpools/wasnorm_wordpool_less_exclusions.txt	LTP237	ltpFR	11	10	0	STREAM	1392	n/a	n/a	1	n/a	0	0	0	n/a	n/a	n/a	n/a	n/a
2559.78	n/a	REC_WORD	1279890	wordpools/wasnorm_wordpool_less_exclusions.txt	LTP237	ltpFR	11	10	0	PUDDLE	1140	n/a	n/a	0	n/a	0	0	0	n/a	n/a	n/a	n/a	n/a
2562.474	n/a	REC_WORD	1281237	wordpools/wasnorm_wordpool_less_exclusions.txt	LTP237	ltpFR	11	10	1	ANTEATER	26	n/a	n/a	1	n/a	0	0	0	n/a	n/a	n/a	n/a	n/a
2567.158	n/a	REC_WORD	1283579	wordpools/wasnorm_wordpool_less_exclusions.txt	LTP237	ltpFR	11	10	0	CLOCK	325	n/a	n/a	1	n/a	0	0	0	n/a	n/a	n/a	n/a	n/a
2573.19	n/a	REC_WORD	1286595	wordpools/wasnorm_wordpool_less_exclusions.txt	LTP237	ltpFR	11	10	1	WARDROBE	1587	n/a	n/a	0	n/a	0	0	0	n/a	n/a	n/a	n/a	n/a
2630.948	n/a	REST_REWET	1315474	n/a	LTP237	ltpFR	11	10	n/a	n/a	n/a	n/a	n/a	n/a	n/a	0	0	0	n/a	n/a	n/a	n/a	n/a
2886.786	n/a	START	1443393	n/a	LTP237	ltpFR	11	n/a	n/a	n/a	n/a	n/a	n/a	n/a	n/a	n/a	n/a	n/a	n/a	n/a	n/a	n/a	n/a
2888.302	n/a	PROB	1444151	n/a	LTP237	ltpFR	11	n/a	n/a	n/a	n/a	n/a	n/a	n/a	8	2	4	2	n/a	n/a	n/a	n/a	n/a
2889.632	n/a	PROB	1444816	n/a	LTP237	ltpFR	11	n/a	n/a	n/a	n/a	n/a	n/a	n/a	6	3	1	2	n/a	n/a	n/a	n/a	n/a
2891.23	n/a	PROB	1445615	n/a	LTP237	ltpFR	11	n/a	n/a	n/a	n/a	n/a	n/a	n/a	21	8	6	7	n/a	n/a	n/a	n/a	n/a
2893.26	n/a	PROB	1446630	n/a	LTP237	ltpFR	11	n/a	n/a	n/a	n/a	n/a	n/a	n/a	9	3	1	5	n/a	n/a	n/a	n/a	n/a
2894.874	n/a	PROB	1447437	n/a	LTP237	ltpFR	11	n/a	n/a	n/a	n/a	n/a	n/a	n/a	18	6	4	8	n/a	n/a	n/a	n/a	n/a
2896.09	n/a	PROB	1448045	n/a	LTP237	ltpFR	11	n/a	n/a	n/a	n/a	n/a	n/a	n/a	10	4	1	5	n/a	n/a	n/a	n/a	n/a
2897.622	n/a	PROB	1448811	n/a	LTP237	ltpFR	11	n/a	n/a	n/a	n/a	n/a	n/a	n/a	11	2	5	4	n/a	n/a	n/a	n/a	n/a
2899.52	n/a	PROB	1449760	n/a	LTP237	ltpFR	11	n/a	n/a	n/a	n/a	n/a	n/a	n/a	14	2	3	9	n/a	n/a	n/a	n/a	n/a
2902.788	n/a	STOP	1451394	n/a	LTP237	ltpFR	11	n/a	n/a	n/a	n/a	n/a	n/a	n/a	n/a	n/a	n/a	n/a	n/a	n/a	n/a	n/a	n/a
2904.012	n/a	WORD	1452006	wordpools/wasnorm_wordpool_less_exclusions.txt	LTP237	ltpFR	11	11	0	HEATER	698	n/a	n/a	1	n/a	0	0	0	0.57763671875	0.412841796875	1	lower	amplitud.ttf
2907.024	n/a	START	1453512	n/a	LTP237	ltpFR	11	n/a	n/a	n/a	n/a	n/a	n/a	n/a	n/a	n/a	n/a	n/a	n/a	n/a	n/a	n/a	n/a
2908.138	n/a	PROB	1454069	n/a	LTP237	ltpFR	11	n/a	n/a	n/a	n/a	n/a	n/a	n/a	17	4	6	7	n/a	n/a	n/a	n/a	n/a
2909.902	n/a	PROB	1454951	n/a	LTP237	ltpFR	11	n/a	n/a	n/a	n/a	n/a	n/a	n/a	16	4	8	4	n/a	n/a	n/a	n/a	n/a
2911.534	n/a	PROB	1455767	n/a	LTP237	ltpFR	11	n/a	n/a	n/a	n/a	n/a	n/a	n/a	8	4	2	2	n/a	n/a	n/a	n/a	n/a
2912.532	n/a	PROB	1456266	n/a	LTP237	ltpFR	11	n/a	n/a	n/a	n/a	n/a	n/a	n/a	18	6	3	9	n/a	n/a	n/a	n/a	n/a
2914.712	n/a	PROB	1457356	n/a	LTP237	ltpFR	11	n/a	n/a	n/a	n/a	n/a	n/a	n/a	18	4	5	9	n/a	n/a	n/a	n/a	n/a
2916.808	n/a	PROB	1458404	n/a	LTP237	ltpFR	11	n/a	n/a	n/a	n/a	n/a	n/a	n/a	4	1	1	2	n/a	n/a	n/a	n/a	n/a
2917.758	n/a	PROB	1458879	n/a	LTP237	ltpFR	11	n/a	n/a	n/a	n/a	n/a	n/a	n/a	17	2	7	8	n/a	n/a	n/a	n/a	n/a
2919.24	n/a	PROB	1459620	n/a	LTP237	ltpFR	11	n/a	n/a	n/a	n/a	n/a	n/a	n/a	12	2	4	6	n/a	n/a	n/a	n/a	n/a
2920.688	n/a	PROB	1460344	n/a	LTP237	ltpFR	11	n/a	n/a	n/a	n/a	n/a	n/a	n/a	5	1	2	2	n/a	n/a	n/a	n/a	n/a
2921.812	n/a	STOP	1460906	n/a	LTP237	ltpFR	11	n/a	n/a	n/a	n/a	n/a	n/a	n/a	n/a	n/a	n/a	n/a	n/a	n/a	n/a	n/a	n/a
2924.032	n/a	WORD	1462016	wordpools/wasnorm_wordpool_less_exclusions.txt	LTP237	ltpFR	11	11	0	TECHNICIAN	1443	n/a	n/a	1	n/a	0	0	0	0.57763671875	0.412841796875	1	lower	amplitud.ttf
2927.044	n/a	START	1463522	n/a	LTP237	ltpFR	11	n/a	n/a	n/a	n/a	n/a	n/a	n/a	n/a	n/a	n/a	n/a	n/a	n/a	n/a	n/a	n/a
2928.076	n/a	PROB	1464038	n/a	LTP237	ltpFR	11	n/a	n/a	n/a	n/a	n/a	n/a	n/a	10	4	1	5	n/a	n/a	n/a	n/a	n/a
2929.442	n/a	PROB	1464721	n/a	LTP237	ltpFR	11	n/a	n/a	n/a	n/a	n/a	n/a	n/a	19	2	9	8	n/a	n/a	n/a	n/a	n/a
2932.22	n/a	PROB	1466110	n/a	LTP237	ltpFR	11	n/a	n/a	n/a	n/a	n/a	n/a	n/a	8	1	5	2	n/a	n/a	n/a	n/a	n/a
2933.184	n/a	PROB	1466592	n/a	LTP237	ltpFR	11	n/a	n/a	n/a	n/a	n/a	n/a	n/a	15	1	6	8	n/a	n/a	n/a	n/a	n/a
2935.232	n/a	PROB	1467616	n/a	LTP237	ltpFR	11	n/a	n/a	n/a	n/a	n/a	n/a	n/a	5	1	3	1	n/a	n/a	n/a	n/a	n/a
2936.548	n/a	PROB	1468274	n/a	LTP237	ltpFR	11	n/a	n/a	n/a	n/a	n/a	n/a	n/a	18	3	8	7	n/a	n/a	n/a	n/a	n/a
2938.212	n/a	PROB	1469106	n/a	LTP237	ltpFR	11	n/a	n/a	n/a	n/a	n/a	n/a	n/a	13	1	6	6	n/a	n/a	n/a	n/a	n/a
2939.842	n/a	PROB	1469921	n/a	LTP237	ltpFR	11	n/a	n/a	n/a	n/a	n/a	n/a	n/a	8	2	5	1	n/a	n/a	n/a	n/a	n/a
2941.51	n/a	STOP	1470755	n/a	LTP237	ltpFR	11	n/a	n/a	n/a	n/a	n/a	n/a	n/a	n/a	n/a	n/a	n/a	n/a	n/a	n/a	n/a	n/a
2944.102	n/a	WORD	1472051	wordpools/wasnorm_wordpool_less_exclusions.txt	LTP237	ltpFR	11	11	0	SALESMAN	1225	n/a	n/a	1	n/a	0	0	0	0.57763671875	0.412841796875	1	lower	amplitud.ttf
2947.114	n/a	START	1473557	n/a	LTP237	ltpFR	11	n/a	n/a	n/a	n/a	n/a	n/a	n/a	n/a	n/a	n/a	n/a	n/a	n/a	n/a	n/a	n/a
2948.028	n/a	PROB	1474014	n/a	LTP237	ltpFR	11	n/a	n/a	n/a	n/a	n/a	n/a	n/a	25	7	9	9	n/a	n/a	n/a	n/a	n/a
2950.426	n/a	PROB	1475213	n/a	LTP237	ltpFR	11	n/a	n/a	n/a	n/a	n/a	n/a	n/a	19	3	9	7	n/a	n/a	n/a	n/a	n/a
2951.79	n/a	PROB	1475895	n/a	LTP237	ltpFR	11	n/a	n/a	n/a	n/a	n/a	n/a	n/a	19	8	7	4	n/a	n/a	n/a	n/a	n/a
2953.738	n/a	PROB	1476869	n/a	LTP237	ltpFR	11	n/a	n/a	n/a	n/a	n/a	n/a	n/a	18	2	9	7	n/a	n/a	n/a	n/a	n/a
2954.968	n/a	PROB	1477484	n/a	LTP237	ltpFR	11	n/a	n/a	n/a	n/a	n/a	n/a	n/a	12	5	4	3	n/a	n/a	n/a	n/a	n/a
2957.25	n/a	PROB	1478625	n/a	LTP237	ltpFR	11	n/a	n/a	n/a	n/a	n/a	n/a	n/a	19	1	9	9	n/a	n/a	n/a	n/a	n/a
2962.262	n/a	STOP	1481131	n/a	LTP237	ltpFR	11	n/a	n/a	n/a	n/a	n/a	n/a	n/a	n/a	n/a	n/a	n/a	n/a	n/a	n/a	n/a	n/a
2964.172	n/a	WORD	1482086	wordpools/wasnorm_wordpool_less_exclusions.txt	LTP237	ltpFR	11	11	0	SLEIGH	1325	n/a	n/a	1	n/a	0	0	0	0.57763671875	0.412841796875	1	lower	amplitud.ttf
2967.184	n/a	START	1483592	n/a	LTP237	ltpFR	11	n/a	n/a	n/a	n/a	n/a	n/a	n/a	n/a	n/a	n/a	n/a	n/a	n/a	n/a	n/a	n/a
2968.15	n/a	PROB	1484075	n/a	LTP237	ltpFR	11	n/a	n/a	n/a	n/a	n/a	n/a	n/a	16	7	2	7	n/a	n/a	n/a	n/a	n/a
2969.93	n/a	PROB	1484965	n/a	LTP237	ltpFR	11	n/a	n/a	n/a	n/a	n/a	n/a	n/a	15	9	3	3	n/a	n/a	n/a	n/a	n/a
2971.362	n/a	PROB	1485681	n/a	LTP237	ltpFR	11	n/a	n/a	n/a	n/a	n/a	n/a	n/a	16	7	7	2	n/a	n/a	n/a	n/a	n/a
2974.608	n/a	PROB	1487304	n/a	LTP237	ltpFR	11	n/a	n/a	n/a	n/a	n/a	n/a	n/a	15	7	6	3	n/a	n/a	n/a	n/a	n/a
2977.254	n/a	PROB	1488627	n/a	LTP237	ltpFR	11	n/a	n/a	n/a	n/a	n/a	n/a	n/a	15	3	8	3	n/a	n/a	n/a	n/a	n/a
2978.784	n/a	PROB	1489392	n/a	LTP237	ltpFR	11	n/a	n/a	n/a	n/a	n/a	n/a	n/a	14	3	8	3	n/a	n/a	n/a	n/a	n/a
2983.186	n/a	STOP	1491593	n/a	LTP237	ltpFR	11	n/a	n/a	n/a	n/a	n/a	n/a	n/a	n/a	n/a	n/a	n/a	n/a	n/a	n/a	n/a	n/a
2984.076	n/a	WORD	1492038	wordpools/wasnorm_wordpool_less_exclusions.txt	LTP237	ltpFR	11	11	0	PERSONNEL	1053	n/a	n/a	n/a	n/a	0	0	0	0.57763671875	0.412841796875	1	lower	amplitud.ttf
2987.104	n/a	SLOW_MSG	1493552	n/a	LTP237	ltpFR	11	11	n/a	n/a	n/a	n/a	n/a	n/a	n/a	0	0	0	n/a	n/a	n/a	n/a	n/a
2988.638	n/a	START	1494319	n/a	LTP237	ltpFR	11	n/a	n/a	n/a	n/a	n/a	n/a	n/a	n/a	n/a	n/a	n/a	n/a	n/a	n/a	n/a	n/a
2989.668	n/a	PROB	1494834	n/a	LTP237	ltpFR	11	n/a	n/a	n/a	n/a	n/a	n/a	n/a	20	6	6	8	n/a	n/a	n/a	n/a	n/a
2991.216	n/a	PROB	1495608	n/a	LTP237	ltpFR	11	n/a	n/a	n/a	n/a	n/a	n/a	n/a	10	3	5	2	n/a	n/a	n/a	n/a	n/a
2992.98	n/a	PROB	1496490	n/a	LTP237	ltpFR	11	n/a	n/a	n/a	n/a	n/a	n/a	n/a	12	7	1	4	n/a	n/a	n/a	n/a	n/a
2995.376	n/a	PROB	1497688	n/a	LTP237	ltpFR	11	n/a	n/a	n/a	n/a	n/a	n/a	n/a	13	1	4	8	n/a	n/a	n/a	n/a	n/a
2997.024	n/a	PROB	1498512	n/a	LTP237	ltpFR	11	n/a	n/a	n/a	n/a	n/a	n/a	n/a	14	3	8	3	n/a	n/a	n/a	n/a	n/a
2998.92	n/a	PROB	1499460	n/a	LTP237	ltpFR	11	n/a	n/a	n/a	n/a	n/a	n/a	n/a	15	5	7	3	n/a	n/a	n/a	n/a	n/a
3000.052	n/a	PROB	1500026	n/a	LTP237	ltpFR	11	n/a	n/a	n/a	n/a	n/a	n/a	n/a	14	4	2	8	n/a	n/a	n/a	n/a	n/a
3001.684	n/a	PROB	1500842	n/a	LTP237	ltpFR	11	n/a	n/a	n/a	n/a	n/a	n/a	n/a	22	6	9	7	n/a	n/a	n/a	n/a	n/a
3003.966	n/a	STOP	1501983	n/a	LTP237	ltpFR	11	n/a	n/a	n/a	n/a	n/a	n/a	n/a	n/a	n/a	n/a	n/a	n/a	n/a	n/a	n/a	n/a
3005.712	n/a	WORD	1502856	wordpools/wasnorm_wordpool_less_exclusions.txt	LTP237	ltpFR	11	11	0	DORM	488	n/a	n/a	1	n/a	0	0	0	0.57763671875	0.412841796875	1	lower	amplitud.ttf
3008.724	n/a	START	1504362	n/a	LTP237	ltpFR	11	n/a	n/a	n/a	n/a	n/a	n/a	n/a	n/a	n/a	n/a	n/a	n/a	n/a	n/a	n/a	n/a
3009.572	n/a	PROB	1504786	n/a	LTP237	ltpFR	11	n/a	n/a	n/a	n/a	n/a	n/a	n/a	16	1	7	8	n/a	n/a	n/a	n/a	n/a
3010.802	n/a	PROB	1505401	n/a	LTP237	ltpFR	11	n/a	n/a	n/a	n/a	n/a	n/a	n/a	12	1	3	8	n/a	n/a	n/a	n/a	n/a
3013.682	n/a	PROB	1506841	n/a	LTP237	ltpFR	11	n/a	n/a	n/a	n/a	n/a	n/a	n/a	15	7	6	2	n/a	n/a	n/a	n/a	n/a
3016.162	n/a	PROB	1508081	n/a	LTP237	ltpFR	11	n/a	n/a	n/a	n/a	n/a	n/a	n/a	19	4	9	6	n/a	n/a	n/a	n/a	n/a
3018.442	n/a	PROB	1509221	n/a	LTP237	ltpFR	11	n/a	n/a	n/a	n/a	n/a	n/a	n/a	20	9	7	4	n/a	n/a	n/a	n/a	n/a
3020.122	n/a	PROB	1510061	n/a	LTP237	ltpFR	11	n/a	n/a	n/a	n/a	n/a	n/a	n/a	9	1	2	6	n/a	n/a	n/a	n/a	n/a
3021.388	n/a	PROB	1510694	n/a	LTP237	ltpFR	11	n/a	n/a	n/a	n/a	n/a	n/a	n/a	1	6	8	5	n/a	n/a	n/a	n/a	n/a
3023.454	n/a	STOP	1511727	n/a	LTP237	ltpFR	11	n/a	n/a	n/a	n/a	n/a	n/a	n/a	n/a	n/a	n/a	n/a	n/a	n/a	n/a	n/a	n/a
3025.598	n/a	WORD	1512799	wordpools/wasnorm_wordpool_less_exclusions.txt	LTP237	ltpFR	11	11	0	BRICK	172	n/a	n/a	1	n/a	0	0	0	0.57763671875	0.412841796875	1	lower	amplitud.ttf
3028.61	n/a	START	1514305	n/a	LTP237	ltpFR	11	n/a	n/a	n/a	n/a	n/a	n/a	n/a	n/a	n/a	n/a	n/a	n/a	n/a	n/a	n/a	n/a
3029.792	n/a	PROB	1514896	n/a	LTP237	ltpFR	11	n/a	n/a	n/a	n/a	n/a	n/a	n/a	19	9	4	8	n/a	n/a	n/a	n/a	n/a
3031.756	n/a	PROB	1515878	n/a	LTP237	ltpFR	11	n/a	n/a	n/a	n/a	n/a	n/a	n/a	9	4	1	4	n/a	n/a	n/a	n/a	n/a
3033.868	n/a	PROB	1516934	n/a	LTP237	ltpFR	11	n/a	n/a	n/a	n/a	n/a	n/a	n/a	14	3	9	2	n/a	n/a	n/a	n/a	n/a
3036.498	n/a	PROB	1518249	n/a	LTP237	ltpFR	11	n/a	n/a	n/a	n/a	n/a	n/a	n/a	16	1	7	8	n/a	n/a	n/a	n/a	n/a
3038.728	n/a	PROB	1519364	n/a	LTP237	ltpFR	11	n/a	n/a	n/a	n/a	n/a	n/a	n/a	10	5	3	2	n/a	n/a	n/a	n/a	n/a
3041.192	n/a	PROB	1520596	n/a	LTP237	ltpFR	11	n/a	n/a	n/a	n/a	n/a	n/a	n/a	15	9	3	3	n/a	n/a	n/a	n/a	n/a
3043.552	n/a	STOP	1521776	n/a	LTP237	ltpFR	11	n/a	n/a	n/a	n/a	n/a	n/a	n/a	n/a	n/a	n/a	n/a	n/a	n/a	n/a	n/a	n/a
3045.636	n/a	WORD	1522818	wordpools/wasnorm_wordpool_less_exclusions.txt	LTP237	ltpFR	11	11	0	CREAM	402	n/a	n/a	0	n/a	0	0	0	0.57763671875	0.412841796875	1	lower	amplitud.ttf
3048.648	n/a	START	1524324	n/a	LTP237	ltpFR	11	n/a	n/a	n/a	n/a	n/a	n/a	n/a	n/a	n/a	n/a	n/a	n/a	n/a	n/a	n/a	n/a
3049.812	n/a	PROB	1524906	n/a	LTP237	ltpFR	11	n/a	n/a	n/a	n/a	n/a	n/a	n/a	21	8	4	9	n/a	n/a	n/a	n/a	n/a
3054.838	n/a	PROB	1527419	n/a	LTP237	ltpFR	11	n/a	n/a	n/a	n/a	n/a	n/a	n/a	9	2	4	3	n/a	n/a	n/a	n/a	n/a
3056.32	n/a	PROB	1528160	n/a	LTP237	ltpFR	11	n/a	n/a	n/a	n/a	n/a	n/a	n/a	17	4	8	5	n/a	n/a	n/a	n/a	n/a
3058.616	n/a	PROB	1529308	n/a	LTP237	ltpFR	11	n/a	n/a	n/a	n/a	n/a	n/a	n/a	25	7	9	9	n/a	n/a	n/a	n/a	n/a
3062.178	n/a	PROB	1531089	n/a	LTP237	ltpFR	11	n/a	n/a	n/a	n/a	n/a	n/a	n/a	14	3	8	3	n/a	n/a	n/a	n/a	n/a
3063.776	n/a	STOP	1531888	n/a	LTP237	ltpFR	11	n/a	n/a	n/a	n/a	n/a	n/a	n/a	n/a	n/a	n/a	n/a	n/a	n/a	n/a	n/a	n/a
3065.622	n/a	WORD	1532811	wordpools/wasnorm_wordpool_less_exclusions.txt	LTP237	ltpFR	11	11	0	ATHLETE	52	n/a	n/a	1	n/a	0	0	0	0.57763671875	0.412841796875	1	lower	amplitud.ttf
3068.636	n/a	START	1534318	n/a	LTP237	ltpFR	11	n/a	n/a	n/a	n/a	n/a	n/a	n/a	n/a	n/a	n/a	n/a	n/a	n/a	n/a	n/a	n/a
3069.55	n/a	PROB	1534775	n/a	LTP237	ltpFR	11	n/a	n/a	n/a	n/a	n/a	n/a	n/a	20	8	8	4	n/a	n/a	n/a	n/a	n/a
3071.164	n/a	PROB	1535582	n/a	LTP237	ltpFR	11	n/a	n/a	n/a	n/a	n/a	n/a	n/a	13	2	9	2	n/a	n/a	n/a	n/a	n/a
3072.58	n/a	PROB	1536290	n/a	LTP237	ltpFR	11	n/a	n/a	n/a	n/a	n/a	n/a	n/a	14	2	9	3	n/a	n/a	n/a	n/a	n/a
3074.51	n/a	PROB	1537255	n/a	LTP237	ltpFR	11	n/a	n/a	n/a	n/a	n/a	n/a	n/a	12	3	2	7	n/a	n/a	n/a	n/a	n/a
3076.106	n/a	PROB	1538053	n/a	LTP237	ltpFR	11	n/a	n/a	n/a	n/a	n/a	n/a	n/a	16	5	8	3	n/a	n/a	n/a	n/a	n/a
3077.838	n/a	PROB	1538919	n/a	LTP237	ltpFR	11	n/a	n/a	n/a	n/a	n/a	n/a	n/a	10	6	3	1	n/a	n/a	n/a	n/a	n/a
3079.168	n/a	PROB	1539584	n/a	LTP237	ltpFR	11	n/a	n/a	n/a	n/a	n/a	n/a	n/a	16	6	3	7	n/a	n/a	n/a	n/a	n/a
3080.318	n/a	PROB	1540159	n/a	LTP237	ltpFR	11	n/a	n/a	n/a	n/a	n/a	n/a	n/a	19	8	4	7	n/a	n/a	n/a	n/a	n/a
3081.998	n/a	PROB	1540999	n/a	LTP237	ltpFR	11	n/a	n/a	n/a	n/a	n/a	n/a	n/a	15	7	8	1	n/a	n/a	n/a	n/a	n/a
3084.616	n/a	STOP	1542308	n/a	LTP237	ltpFR	11	n/a	n/a	n/a	n/a	n/a	n/a	n/a	n/a	n/a	n/a	n/a	n/a	n/a	n/a	n/a	n/a
3085.526	n/a	WORD	1542763	wordpools/wasnorm_wordpool_less_exclusions.txt	LTP237	ltpFR	11	11	0	MOB	904	n/a	n/a	1	n/a	0	0	0	0.57763671875	0.412841796875	1	lower	amplitud.ttf
3088.54	n/a	START	1544270	n/a	LTP237	ltpFR	11	n/a	n/a	n/a	n/a	n/a	n/a	n/a	n/a	n/a	n/a	n/a	n/a	n/a	n/a	n/a	n/a
3089.688	n/a	PROB	1544844	n/a	LTP237	ltpFR	11	n/a	n/a	n/a	n/a	n/a	n/a	n/a	12	3	8	1	n/a	n/a	n/a	n/a	n/a
3091.668	n/a	PROB	1545834	n/a	LTP237	ltpFR	11	n/a	n/a	n/a	n/a	n/a	n/a	n/a	12	1	7	4	n/a	n/a	n/a	n/a	n/a
3094.146	n/a	PROB	1547073	n/a	LTP237	ltpFR	11	n/a	n/a	n/a	n/a	n/a	n/a	n/a	18	9	5	4	n/a	n/a	n/a	n/a	n/a
3097.142	n/a	PROB	1548571	n/a	LTP237	ltpFR	11	n/a	n/a	n/a	n/a	n/a	n/a	n/a	18	7	5	6	n/a	n/a	n/a	n/a	n/a
3098.806	n/a	PROB	1549403	n/a	LTP237	ltpFR	11	n/a	n/a	n/a	n/a	n/a	n/a	n/a	20	8	9	3	n/a	n/a	n/a	n/a	n/a
3101.602	n/a	PROB	1550801	n/a	LTP237	ltpFR	11	n/a	n/a	n/a	n/a	n/a	n/a	n/a	20	7	5	8	n/a	n/a	n/a	n/a	n/a
3103.32	n/a	STOP	1551660	n/a	LTP237	ltpFR	11	n/a	n/a	n/a	n/a	n/a	n/a	n/a	n/a	n/a	n/a	n/a	n/a	n/a	n/a	n/a	n/a
3105.48	n/a	WORD	1552740	wordpools/wasnorm_wordpool_less_exclusions.txt	LTP237	ltpFR	11	11	0	FAUCET	555	n/a	n/a	1	n/a	0	0	0	0.57763671875	0.412841796875	1	lower	amplitud.ttf
3108.492	n/a	START	1554246	n/a	LTP237	ltpFR	11	n/a	n/a	n/a	n/a	n/a	n/a	n/a	n/a	n/a	n/a	n/a	n/a	n/a	n/a	n/a	n/a
3109.624	n/a	PROB	1554812	n/a	LTP237	ltpFR	11	n/a	n/a	n/a	n/a	n/a	n/a	n/a	15	3	5	7	n/a	n/a	n/a	n/a	n/a
3110.804	n/a	PROB	1555402	n/a	LTP237	ltpFR	11	n/a	n/a	n/a	n/a	n/a	n/a	n/a	23	9	6	8	n/a	n/a	n/a	n/a	n/a
3112.802	n/a	PROB	1556401	n/a	LTP237	ltpFR	11	n/a	n/a	n/a	n/a	n/a	n/a	n/a	16	3	9	4	n/a	n/a	n/a	n/a	n/a
3114.932	n/a	PROB	1557466	n/a	LTP237	ltpFR	11	n/a	n/a	n/a	n/a	n/a	n/a	n/a	14	2	6	6	n/a	n/a	n/a	n/a	n/a
3117.18	n/a	PROB	1558590	n/a	LTP237	ltpFR	11	n/a	n/a	n/a	n/a	n/a	n/a	n/a	13	2	6	5	n/a	n/a	n/a	n/a	n/a
3118.96	n/a	PROB	1559480	n/a	LTP237	ltpFR	11	n/a	n/a	n/a	n/a	n/a	n/a	n/a	17	6	7	4	n/a	n/a	n/a	n/a	n/a
3122.088	n/a	PROB	1561044	n/a	LTP237	ltpFR	11	n/a	n/a	n/a	n/a	n/a	n/a	n/a	16	8	5	3	n/a	n/a	n/a	n/a	n/a
3123.312	n/a	STOP	1561656	n/a	LTP237	ltpFR	11	n/a	n/a	n/a	n/a	n/a	n/a	n/a	n/a	n/a	n/a	n/a	n/a	n/a	n/a	n/a	n/a
3125.368	n/a	WORD	1562684	wordpools/wasnorm_wordpool_less_exclusions.txt	LTP237	ltpFR	11	11	0	DIVER	476	n/a	n/a	1	n/a	0	0	0	0.57763671875	0.412841796875	1	lower	amplitud.ttf
3128.38	n/a	START	1564190	n/a	LTP237	ltpFR	11	n/a	n/a	n/a	n/a	n/a	n/a	n/a	n/a	n/a	n/a	n/a	n/a	n/a	n/a	n/a	n/a
3129.546	n/a	PROB	1564773	n/a	LTP237	ltpFR	11	n/a	n/a	n/a	n/a	n/a	n/a	n/a	13	2	6	5	n/a	n/a	n/a	n/a	n/a
3131.492	n/a	PROB	1565746	n/a	LTP237	ltpFR	11	n/a	n/a	n/a	n/a	n/a	n/a	n/a	10	4	2	4	n/a	n/a	n/a	n/a	n/a
3133.622	n/a	PROB	1566811	n/a	LTP237	ltpFR	11	n/a	n/a	n/a	n/a	n/a	n/a	n/a	24	7	8	9	n/a	n/a	n/a	n/a	n/a
