mstime	trial_type	stim_file	subject	experiment	session	trial	item_name	item_num	list	answer	test_x	test_y	test_z
0	SESS_START	n/a	LTP301	ltpFR2	5	n/a	n/a	n/a	n/a	n/a	0	0	0
61285	START	n/a	LTP301	ltpFR2	5	n/a	n/a	n/a	-1	n/a	n/a	n/a	n/a
61300	PROB	n/a	LTP301	ltpFR2	5	n/a	n/a	n/a	-1	16	2	5	9
65654	PROB	n/a	LTP301	ltpFR2	5	n/a	n/a	n/a	-1	16	9	4	3
73284	STOP	n/a	LTP301	ltpFR2	5	n/a	n/a	n/a	-1	n/a	n/a	n/a	n/a
114795	DISTRACTOR	n/a	LTP301	ltpFR2	5	1	n/a	n/a	n/a	n/a	0	0	0
114795	START	n/a	LTP301	ltpFR2	5	n/a	n/a	n/a	1	n/a	n/a	n/a	n/a
114812	PROB	n/a	LTP301	ltpFR2	5	n/a	n/a	n/a	1	18	7	4	7
117597	PROB	n/a	LTP301	ltpFR2	5	n/a	n/a	n/a	1	12	3	6	3
119515	PROB	n/a	LTP301	ltpFR2	5	n/a	n/a	n/a	1	10	2	5	3
121784	PROB	n/a	LTP301	ltpFR2	5	n/a	n/a	n/a	1	18	6	6	6
123953	PROB	n/a	LTP301	ltpFR2	5	n/a	n/a	n/a	1	15	4	9	2
128406	PROB	n/a	LTP301	ltpFR2	5	n/a	n/a	n/a	1	15	6	2	7
131358	PROB	n/a	LTP301	ltpFR2	5	n/a	n/a	n/a	1	7	3	3	1
133310	PROB	n/a	LTP301	ltpFR2	5	n/a	n/a	n/a	1	12	2	9	1
135128	PROB	n/a	LTP301	ltpFR2	5	n/a	n/a	n/a	1	12	6	2	4
138795	STOP	n/a	LTP301	ltpFR2	5	n/a	n/a	n/a	1	n/a	n/a	n/a	n/a
139949	WORD	wordpools/wasnorm_wordpool_576.txt	LTP301	ltpFR2	5	1	ORANGE	980	n/a	n/a	0	0	0
142735	WORD	wordpools/wasnorm_wordpool_576.txt	LTP301	ltpFR2	5	1	KEEPER	769	n/a	n/a	0	0	0
145453	WORD	wordpools/wasnorm_wordpool_576.txt	LTP301	ltpFR2	5	1	CASKET	255	n/a	n/a	0	0	0
148205	WORD	wordpools/wasnorm_wordpool_576.txt	LTP301	ltpFR2	5	1	TERMITE	1451	n/a	n/a	0	0	0
150992	WORD	wordpools/wasnorm_wordpool_576.txt	LTP301	ltpFR2	5	1	TAXI	1438	n/a	n/a	0	0	0
153644	WORD	wordpools/wasnorm_wordpool_576.txt	LTP301	ltpFR2	5	1	FLAG	573	n/a	n/a	0	0	0
156395	WORD	wordpools/wasnorm_wordpool_576.txt	LTP301	ltpFR2	5	1	HUMAN	726	n/a	n/a	0	0	0
158898	WORD	wordpools/wasnorm_wordpool_576.txt	LTP301	ltpFR2	5	1	GARLIC	624	n/a	n/a	0	0	0
161616	WORD	wordpools/wasnorm_wordpool_576.txt	LTP301	ltpFR2	5	1	GOBLIN	645	n/a	n/a	0	0	0
164319	WORD	wordpools/wasnorm_wordpool_576.txt	LTP301	ltpFR2	5	1	ONION	977	n/a	n/a	0	0	0
167121	WORD	wordpools/wasnorm_wordpool_576.txt	LTP301	ltpFR2	5	1	SANDWICH	1232	n/a	n/a	0	0	0
169556	WORD	wordpools/wasnorm_wordpool_576.txt	LTP301	ltpFR2	5	1	WITNESS	1618	n/a	n/a	0	0	0
172375	WORD	wordpools/wasnorm_wordpool_576.txt	LTP301	ltpFR2	5	1	FOREST	593	n/a	n/a	0	0	0
175094	WORD	wordpools/wasnorm_wordpool_576.txt	LTP301	ltpFR2	5	1	QUEEN	1149	n/a	n/a	0	0	0
177697	WORD	wordpools/wasnorm_wordpool_576.txt	LTP301	ltpFR2	5	1	FRAGRANCE	599	n/a	n/a	0	0	0
180332	WORD	wordpools/wasnorm_wordpool_576.txt	LTP301	ltpFR2	5	1	MILDEW	893	n/a	n/a	0	0	0
183051	WORD	wordpools/wasnorm_wordpool_576.txt	LTP301	ltpFR2	5	1	CABBAGE	210	n/a	n/a	0	0	0
185503	WORD	wordpools/wasnorm_wordpool_576.txt	LTP301	ltpFR2	5	1	APPLE	33	n/a	n/a	0	0	0
188005	WORD	wordpools/wasnorm_wordpool_576.txt	LTP301	ltpFR2	5	1	CHILD	299	n/a	n/a	0	0	0
190524	WORD	wordpools/wasnorm_wordpool_576.txt	LTP301	ltpFR2	5	1	SIBLING	1301	n/a	n/a	0	0	0
193243	WORD	wordpools/wasnorm_wordpool_576.txt	LTP301	ltpFR2	5	1	ZEBRA	1635	n/a	n/a	0	0	0
195679	WORD	wordpools/wasnorm_wordpool_576.txt	LTP301	ltpFR2	5	1	SPOUSE	1358	n/a	n/a	0	0	0
198514	WORD	wordpools/wasnorm_wordpool_576.txt	LTP301	ltpFR2	5	1	HUSBAND	728	n/a	n/a	0	0	0
201133	WORD	wordpools/wasnorm_wordpool_576.txt	LTP301	ltpFR2	5	1	SHOVEL	1295	n/a	n/a	0	0	0
202752	START	n/a	LTP301	ltpFR2	5	n/a	n/a	n/a	2	n/a	n/a	n/a	n/a
203684	DISTRACTOR	n/a	LTP301	ltpFR2	5	1	n/a	n/a	n/a	n/a	0	0	0
203702	PROB	n/a	LTP301	ltpFR2	5	n/a	n/a	n/a	2	17	2	8	7
206822	PROB	n/a	LTP301	ltpFR2	5	n/a	n/a	n/a	2	11	1	9	1
209189	PROB	n/a	LTP301	ltpFR2	5	n/a	n/a	n/a	2	12	3	1	5
212475	PROB	n/a	LTP301	ltpFR2	5	n/a	n/a	n/a	2	16	2	8	6
214995	PROB	n/a	LTP301	ltpFR2	5	n/a	n/a	n/a	2	14	6	5	3
219048	PROB	n/a	LTP301	ltpFR2	5	n/a	n/a	n/a	2	20	8	6	8
222200	PROB	n/a	LTP301	ltpFR2	5	n/a	n/a	n/a	2	9	4	4	1
226752	STOP	n/a	LTP301	ltpFR2	5	n/a	n/a	n/a	2	n/a	n/a	n/a	n/a
228707	REC_START	n/a	LTP301	ltpFR2	5	1	n/a	n/a	n/a	n/a	0	0	0
231939	REC_WORD	wordpools/wasnorm_wordpool_576.txt	LTP301	ltpFR2	5	1	GARLIC	624	n/a	n/a	0	0	0
232830	REC_WORD	wordpools/wasnorm_wordpool_576.txt	LTP301	ltpFR2	5	1	ONION	977	n/a	n/a	0	0	0
234105	REC_WORD	wordpools/wasnorm_wordpool_576.txt	LTP301	ltpFR2	5	1	SPOUSE	1358	n/a	n/a	0	0	0
235662	REC_WORD	wordpools/wasnorm_wordpool_576.txt	LTP301	ltpFR2	5	1	SIBLING	1301	n/a	n/a	0	0	0
236811	REC_WORD	wordpools/wasnorm_wordpool_576.txt	LTP301	ltpFR2	5	1	CHILD	299	n/a	n/a	0	0	0
238628	REC_WORD	wordpools/wasnorm_wordpool_576.txt	LTP301	ltpFR2	5	1	ORANGE	980	n/a	n/a	0	0	0
242036	REC_WORD	wordpools/wasnorm_wordpool_576.txt	LTP301	ltpFR2	5	1	KEEPER	769	n/a	n/a	0	0	0
261308	REC_WORD	wordpools/wasnorm_wordpool_576.txt	LTP301	ltpFR2	5	1	FRAGRANCE	599	n/a	n/a	0	0	0
268250	REC_WORD	wordpools/wasnorm_wordpool_576.txt	LTP301	ltpFR2	5	1	TAXI	1438	n/a	n/a	0	0	0
289463	REC_WORD	wordpools/wasnorm_wordpool_576.txt	LTP301	ltpFR2	5	1	HUSBAND	728	n/a	n/a	0	0	0
319164	WORD	wordpools/wasnorm_wordpool_576.txt	LTP301	ltpFR2	5	2	COCOON	339	n/a	n/a	0	0	0
321934	WORD	wordpools/wasnorm_wordpool_576.txt	LTP301	ltpFR2	5	2	PASTA	1021	n/a	n/a	0	0	0
324402	WORD	wordpools/wasnorm_wordpool_576.txt	LTP301	ltpFR2	5	2	HORNET	718	n/a	n/a	0	0	0
327004	WORD	wordpools/wasnorm_wordpool_576.txt	LTP301	ltpFR2	5	2	WORKER	1621	n/a	n/a	0	0	0
329473	WORD	wordpools/wasnorm_wordpool_576.txt	LTP301	ltpFR2	5	2	STOMACH	1384	n/a	n/a	0	0	0
332008	WORD	wordpools/wasnorm_wordpool_576.txt	LTP301	ltpFR2	5	2	POPCORN	1104	n/a	n/a	0	0	0
334711	WORD	wordpools/wasnorm_wordpool_576.txt	LTP301	ltpFR2	5	2	EAGLE	512	n/a	n/a	0	0	0
337479	WORD	wordpools/wasnorm_wordpool_576.txt	LTP301	ltpFR2	5	2	SNAIL	1332	n/a	n/a	0	0	0
340065	WORD	wordpools/wasnorm_wordpool_576.txt	LTP301	ltpFR2	5	2	TORTOISE	1486	n/a	n/a	0	0	0
342635	WORD	wordpools/wasnorm_wordpool_576.txt	LTP301	ltpFR2	5	2	LODGE	839	n/a	n/a	0	0	0
345119	WORD	wordpools/wasnorm_wordpool_576.txt	LTP301	ltpFR2	5	2	CRITIC	410	n/a	n/a	0	0	0
347571	WORD	wordpools/wasnorm_wordpool_576.txt	LTP301	ltpFR2	5	2	FILM	565	n/a	n/a	0	0	0
350223	WORD	wordpools/wasnorm_wordpool_576.txt	LTP301	ltpFR2	5	2	GARBAGE	622	n/a	n/a	0	0	0
352893	WORD	wordpools/wasnorm_wordpool_576.txt	LTP301	ltpFR2	5	2	OFFICE	972	n/a	n/a	0	0	0
355478	WORD	wordpools/wasnorm_wordpool_576.txt	LTP301	ltpFR2	5	2	BANKER	84	n/a	n/a	0	0	0
358013	WORD	wordpools/wasnorm_wordpool_576.txt	LTP301	ltpFR2	5	2	GRILL	661	n/a	n/a	0	0	0
360733	WORD	wordpools/wasnorm_wordpool_576.txt	LTP301	ltpFR2	5	2	FUNGUS	614	n/a	n/a	0	0	0
363484	WORD	wordpools/wasnorm_wordpool_576.txt	LTP301	ltpFR2	5	2	RADISH	1158	n/a	n/a	0	0	0
366153	WORD	wordpools/wasnorm_wordpool_576.txt	LTP301	ltpFR2	5	2	CRAYON	401	n/a	n/a	0	0	0
368956	WORD	wordpools/wasnorm_wordpool_576.txt	LTP301	ltpFR2	5	2	WOMAN	1620	n/a	n/a	0	0	0
371574	WORD	wordpools/wasnorm_wordpool_576.txt	LTP301	ltpFR2	5	2	PORTRAIT	1111	n/a	n/a	0	0	0
374293	WORD	wordpools/wasnorm_wordpool_576.txt	LTP301	ltpFR2	5	2	FLEET	578	n/a	n/a	0	0	0
376830	WORD	wordpools/wasnorm_wordpool_576.txt	LTP301	ltpFR2	5	2	TURTLE	1522	n/a	n/a	0	0	0
379564	WORD	wordpools/wasnorm_wordpool_576.txt	LTP301	ltpFR2	5	2	DANDRUFF	439	n/a	n/a	0	0	0
381182	START	n/a	LTP301	ltpFR2	5	n/a	n/a	n/a	3	n/a	n/a	n/a	n/a
382032	DISTRACTOR	n/a	LTP301	ltpFR2	5	2	n/a	n/a	n/a	n/a	0	0	0
382050	PROB	n/a	LTP301	ltpFR2	5	n/a	n/a	n/a	3	7	1	4	2
384135	PROB	n/a	LTP301	ltpFR2	5	n/a	n/a	n/a	3	16	4	9	3
386604	PROB	n/a	LTP301	ltpFR2	5	n/a	n/a	n/a	3	11	8	2	1
388538	PROB	n/a	LTP301	ltpFR2	5	n/a	n/a	n/a	3	26	9	8	9
395227	PROB	n/a	LTP301	ltpFR2	5	n/a	n/a	n/a	3	16	6	5	5
397029	PROB	n/a	LTP301	ltpFR2	5	n/a	n/a	n/a	3	17	3	8	6
400633	PROB	n/a	LTP301	ltpFR2	5	n/a	n/a	n/a	3	16	4	8	4
405181	STOP	n/a	LTP301	ltpFR2	5	n/a	n/a	n/a	3	n/a	n/a	n/a	n/a
407038	REC_START	n/a	LTP301	ltpFR2	5	2	n/a	n/a	n/a	n/a	0	0	0
410844	REC_WORD	wordpools/wasnorm_wordpool_576.txt	LTP301	ltpFR2	5	2	COCOON	339	n/a	n/a	0	0	0
497663	DISTRACTOR	n/a	LTP301	ltpFR2	5	3	n/a	n/a	n/a	n/a	0	0	0
497664	START	n/a	LTP301	ltpFR2	5	n/a	n/a	n/a	4	n/a	n/a	n/a	n/a
497697	PROB	n/a	LTP301	ltpFR2	5	n/a	n/a	n/a	4	16	2	8	6
500498	PROB	n/a	LTP301	ltpFR2	5	n/a	n/a	n/a	4	13	8	4	1
503034	PROB	n/a	LTP301	ltpFR2	5	n/a	n/a	n/a	4	16	6	6	4
504886	PROB	n/a	LTP301	ltpFR2	5	n/a	n/a	n/a	4	17	6	9	2
509724	PROB	n/a	LTP301	ltpFR2	5	n/a	n/a	n/a	4	13	8	4	1
512876	PROB	n/a	LTP301	ltpFR2	5	n/a	n/a	n/a	4	12	3	9	3
515044	PROB	n/a	LTP301	ltpFR2	5	n/a	n/a	n/a	4	17	4	8	5
521035	STOP	n/a	LTP301	ltpFR2	5	n/a	n/a	n/a	4	n/a	n/a	n/a	n/a
522651	WORD	wordpools/wasnorm_wordpool_576.txt	LTP301	ltpFR2	5	3	PIGEON	1065	n/a	n/a	0	0	0
525386	WORD	wordpools/wasnorm_wordpool_576.txt	LTP301	ltpFR2	5	3	RUST	1219	n/a	n/a	0	0	0
528021	WORD	wordpools/wasnorm_wordpool_576.txt	LTP301	ltpFR2	5	3	DAUGHTER	442	n/a	n/a	0	0	0
530824	WORD	wordpools/wasnorm_wordpool_576.txt	LTP301	ltpFR2	5	3	MOTOR	922	n/a	n/a	0	0	0
533276	WORD	wordpools/wasnorm_wordpool_576.txt	LTP301	ltpFR2	5	3	CHAUFFEUR	283	n/a	n/a	0	0	0
535962	WORD	wordpools/wasnorm_wordpool_576.txt	LTP301	ltpFR2	5	3	SILK	1307	n/a	n/a	0	0	0
538480	WORD	wordpools/wasnorm_wordpool_576.txt	LTP301	ltpFR2	5	3	CHEST	295	n/a	n/a	0	0	0
540999	WORD	wordpools/wasnorm_wordpool_576.txt	LTP301	ltpFR2	5	3	LEOPARD	812	n/a	n/a	0	0	0
543752	WORD	wordpools/wasnorm_wordpool_576.txt	LTP301	ltpFR2	5	3	PUPIL	1143	n/a	n/a	0	0	0
546236	WORD	wordpools/wasnorm_wordpool_576.txt	LTP301	ltpFR2	5	3	COUSIN	392	n/a	n/a	0	0	0
549022	WORD	wordpools/wasnorm_wordpool_576.txt	LTP301	ltpFR2	5	3	SCARF	1246	n/a	n/a	0	0	0
551725	WORD	wordpools/wasnorm_wordpool_576.txt	LTP301	ltpFR2	5	3	PAIL	1002	n/a	n/a	0	0	0
554160	WORD	wordpools/wasnorm_wordpool_576.txt	LTP301	ltpFR2	5	3	DUST	508	n/a	n/a	0	0	0
556863	WORD	wordpools/wasnorm_wordpool_576.txt	LTP301	ltpFR2	5	3	GHETTO	633	n/a	n/a	0	0	0
559497	WORD	wordpools/wasnorm_wordpool_576.txt	LTP301	ltpFR2	5	3	DINER	467	n/a	n/a	0	0	0
561950	WORD	wordpools/wasnorm_wordpool_576.txt	LTP301	ltpFR2	5	3	LADY	794	n/a	n/a	0	0	0
564753	WORD	wordpools/wasnorm_wordpool_576.txt	LTP301	ltpFR2	5	3	PARENT	1013	n/a	n/a	0	0	0
567471	WORD	wordpools/wasnorm_wordpool_576.txt	LTP301	ltpFR2	5	3	MATTRESS	879	n/a	n/a	0	0	0
570056	WORD	wordpools/wasnorm_wordpool_576.txt	LTP301	ltpFR2	5	3	FRAME	600	n/a	n/a	0	0	0
572793	WORD	wordpools/wasnorm_wordpool_576.txt	LTP301	ltpFR2	5	3	REBEL	1172	n/a	n/a	0	0	0
575444	WORD	wordpools/wasnorm_wordpool_576.txt	LTP301	ltpFR2	5	3	WAGON	1578	n/a	n/a	0	0	0
578096	WORD	wordpools/wasnorm_wordpool_576.txt	LTP301	ltpFR2	5	3	CANDY	230	n/a	n/a	0	0	0
580582	WORD	wordpools/wasnorm_wordpool_576.txt	LTP301	ltpFR2	5	3	PASTRY	1022	n/a	n/a	0	0	0
583050	WORD	wordpools/wasnorm_wordpool_576.txt	LTP301	ltpFR2	5	3	LION	827	n/a	n/a	0	0	0
584669	START	n/a	LTP301	ltpFR2	5	n/a	n/a	n/a	5	n/a	n/a	n/a	n/a
585684	DISTRACTOR	n/a	LTP301	ltpFR2	5	3	n/a	n/a	n/a	n/a	0	0	0
585703	PROB	n/a	LTP301	ltpFR2	5	n/a	n/a	n/a	5	18	7	8	3
590290	PROB	n/a	LTP301	ltpFR2	5	n/a	n/a	n/a	5	13	4	3	6
592993	PROB	n/a	LTP301	ltpFR2	5	n/a	n/a	n/a	5	12	3	7	2
595511	PROB	n/a	LTP301	ltpFR2	5	n/a	n/a	n/a	5	11	4	1	6
597212	PROB	n/a	LTP301	ltpFR2	5	n/a	n/a	n/a	5	19	7	4	8
600415	PROB	n/a	LTP301	ltpFR2	5	n/a	n/a	n/a	5	18	6	7	5
602550	PROB	n/a	LTP301	ltpFR2	5	n/a	n/a	n/a	5	10	5	3	2
604451	PROB	n/a	LTP301	ltpFR2	5	n/a	n/a	n/a	5	12	1	4	7
606738	PROB	n/a	LTP301	ltpFR2	5	n/a	n/a	n/a	5	8	1	6	1
608155	STOP	n/a	LTP301	ltpFR2	5	n/a	n/a	n/a	5	n/a	n/a	n/a	n/a
610523	REC_START	n/a	LTP301	ltpFR2	5	3	n/a	n/a	n/a	n/a	0	0	0
611460	REC_WORD	wordpools/wasnorm_wordpool_576.txt	LTP301	ltpFR2	5	3	LION	827	n/a	n/a	0	0	0
612487	REC_WORD	wordpools/wasnorm_wordpool_576.txt	LTP301	ltpFR2	5	3	LEOPARD	812	n/a	n/a	0	0	0
614508	REC_WORD	wordpools/wasnorm_wordpool_576.txt	LTP301	ltpFR2	5	3	PIGEON	1065	n/a	n/a	0	0	0
615794	REC_WORD_VV	wordpools/wasnorm_wordpool_576.txt	LTP301	ltpFR2	5	3	<>	-1	n/a	n/a	0	0	0
619303	REC_WORD	wordpools/wasnorm_wordpool_576.txt	LTP301	ltpFR2	5	3	PAIL	1002	n/a	n/a	0	0	0
622008	REC_WORD	wordpools/wasnorm_wordpool_576.txt	LTP301	ltpFR2	5	3	PORTRAIT	1111	n/a	n/a	0	0	0
630298	REC_WORD	wordpools/wasnorm_wordpool_576.txt	LTP301	ltpFR2	5	3	DAUGHTER	442	n/a	n/a	0	0	0
643094	REC_WORD	wordpools/wasnorm_wordpool_576.txt	LTP301	ltpFR2	5	3	CHILD	299	n/a	n/a	0	0	0
654159	REC_WORD	wordpools/wasnorm_wordpool_576.txt	LTP301	ltpFR2	5	3	WORKER	1621	n/a	n/a	0	0	0
655417	REC_WORD	wordpools/wasnorm_wordpool_576.txt	LTP301	ltpFR2	5	3	FILM	565	n/a	n/a	0	0	0
656470	REC_WORD	wordpools/wasnorm_wordpool_576.txt	LTP301	ltpFR2	5	3	CRITIC	410	n/a	n/a	0	0	0
701148	DISTRACTOR	n/a	LTP301	ltpFR2	5	4	n/a	n/a	n/a	n/a	0	0	0
701149	START	n/a	LTP301	ltpFR2	5	n/a	n/a	n/a	6	n/a	n/a	n/a	n/a
701182	PROB	n/a	LTP301	ltpFR2	5	n/a	n/a	n/a	6	9	3	5	1
703802	PROB	n/a	LTP301	ltpFR2	5	n/a	n/a	n/a	6	17	3	3	7
706486	PROB	n/a	LTP301	ltpFR2	5	n/a	n/a	n/a	6	13	9	3	1
710406	PROB	n/a	LTP301	ltpFR2	5	n/a	n/a	n/a	6	17	5	8	4
713008	PROB	n/a	LTP301	ltpFR2	5	n/a	n/a	n/a	6	19	5	9	5
714610	PROB	n/a	LTP301	ltpFR2	5	n/a	n/a	n/a	6	17	6	2	9
719113	PROB	n/a	LTP301	ltpFR2	5	n/a	n/a	n/a	6	8	2	1	5
722000	PROB	n/a	LTP301	ltpFR2	5	n/a	n/a	n/a	6	13	3	2	8
723980	STOP	n/a	LTP301	ltpFR2	5	n/a	n/a	n/a	6	n/a	n/a	n/a	n/a
726069	WORD	wordpools/wasnorm_wordpool_576.txt	LTP301	ltpFR2	5	4	RAZOR	1171	n/a	n/a	0	0	0
728571	WORD	wordpools/wasnorm_wordpool_576.txt	LTP301	ltpFR2	5	4	COOKBOOK	373	n/a	n/a	0	0	0
731157	WORD	wordpools/wasnorm_wordpool_576.txt	LTP301	ltpFR2	5	4	DIME	466	n/a	n/a	0	0	0
733626	WORD	wordpools/wasnorm_wordpool_576.txt	LTP301	ltpFR2	5	4	QUARTER	1148	n/a	n/a	0	0	0
736311	WORD	wordpools/wasnorm_wordpool_576.txt	LTP301	ltpFR2	5	4	POWDER	1117	n/a	n/a	0	0	0
738881	WORD	wordpools/wasnorm_wordpool_576.txt	LTP301	ltpFR2	5	4	SEAFOOD	1260	n/a	n/a	0	0	0
741415	WORD	wordpools/wasnorm_wordpool_576.txt	LTP301	ltpFR2	5	4	GAZELLE	628	n/a	n/a	0	0	0
744067	WORD	wordpools/wasnorm_wordpool_576.txt	LTP301	ltpFR2	5	4	QUAIL	1147	n/a	n/a	0	0	0
746621	WORD	wordpools/wasnorm_wordpool_576.txt	LTP301	ltpFR2	5	4	HAMPER	682	n/a	n/a	0	0	0
749355	WORD	wordpools/wasnorm_wordpool_576.txt	LTP301	ltpFR2	5	4	FIDDLE	561	n/a	n/a	0	0	0
752074	WORD	wordpools/wasnorm_wordpool_576.txt	LTP301	ltpFR2	5	4	MAILBOX	857	n/a	n/a	0	0	0
754711	WORD	wordpools/wasnorm_wordpool_576.txt	LTP301	ltpFR2	5	4	CRAB	397	n/a	n/a	0	0	0
757395	WORD	wordpools/wasnorm_wordpool_576.txt	LTP301	ltpFR2	5	4	HARP	689	n/a	n/a	0	0	0
759948	WORD	wordpools/wasnorm_wordpool_576.txt	LTP301	ltpFR2	5	4	GRAVE	658	n/a	n/a	0	0	0
762533	WORD	wordpools/wasnorm_wordpool_576.txt	LTP301	ltpFR2	5	4	VIKING	1565	n/a	n/a	0	0	0
765051	WORD	wordpools/wasnorm_wordpool_576.txt	LTP301	ltpFR2	5	4	COSTUME	383	n/a	n/a	0	0	0
767554	WORD	wordpools/wasnorm_wordpool_576.txt	LTP301	ltpFR2	5	4	VALVE	1546	n/a	n/a	0	0	0
770006	WORD	wordpools/wasnorm_wordpool_576.txt	LTP301	ltpFR2	5	4	BURGLAR	200	n/a	n/a	0	0	0
772726	WORD	wordpools/wasnorm_wordpool_576.txt	LTP301	ltpFR2	5	4	PERMIT	1051	n/a	n/a	0	0	0
775360	WORD	wordpools/wasnorm_wordpool_576.txt	LTP301	ltpFR2	5	4	BATHTUB	100	n/a	n/a	0	0	0
778162	WORD	wordpools/wasnorm_wordpool_576.txt	LTP301	ltpFR2	5	4	BEEF	113	n/a	n/a	0	0	0
780749	WORD	wordpools/wasnorm_wordpool_576.txt	LTP301	ltpFR2	5	4	SAUSAGE	1238	n/a	n/a	0	0	0
783333	WORD	wordpools/wasnorm_wordpool_576.txt	LTP301	ltpFR2	5	4	TUTU	1524	n/a	n/a	0	0	0
786136	WORD	wordpools/wasnorm_wordpool_576.txt	LTP301	ltpFR2	5	4	OX	994	n/a	n/a	0	0	0
787738	START	n/a	LTP301	ltpFR2	5	n/a	n/a	n/a	7	n/a	n/a	n/a	n/a
788700	DISTRACTOR	n/a	LTP301	ltpFR2	5	4	n/a	n/a	n/a	n/a	0	0	0
788706	PROB	n/a	LTP301	ltpFR2	5	n/a	n/a	n/a	7	13	1	6	6
791323	PROB	n/a	LTP301	ltpFR2	5	n/a	n/a	n/a	7	3	1	1	1
792859	PROB	n/a	LTP301	ltpFR2	5	n/a	n/a	n/a	7	25	9	7	9
795443	PROB	n/a	LTP301	ltpFR2	5	n/a	n/a	n/a	7	8	3	4	1
797780	PROB	n/a	LTP301	ltpFR2	5	n/a	n/a	n/a	7	21	8	7	6
801332	PROB	n/a	LTP301	ltpFR2	5	n/a	n/a	n/a	7	18	9	5	4
804601	PROB	n/a	LTP301	ltpFR2	5	n/a	n/a	n/a	7	13	3	8	2
806971	PROB	n/a	LTP301	ltpFR2	5	n/a	n/a	n/a	7	14	3	5	6
808756	PROB	n/a	LTP301	ltpFR2	5	n/a	n/a	n/a	7	7	1	1	5
810203	STOP	n/a	LTP301	ltpFR2	5	n/a	n/a	n/a	7	n/a	n/a	n/a	n/a
813609	REC_START	n/a	LTP301	ltpFR2	5	4	n/a	n/a	n/a	n/a	0	0	0
828372	REC_WORD_VV	wordpools/wasnorm_wordpool_576.txt	LTP301	ltpFR2	5	4	<>	-1	n/a	n/a	0	0	0
831879	REC_WORD	wordpools/wasnorm_wordpool_576.txt	LTP301	ltpFR2	5	4	CRAB	397	n/a	n/a	0	0	0
876447	REC_WORD	wordpools/wasnorm_wordpool_576.txt	LTP301	ltpFR2	5	4	TYPIST	1532	n/a	n/a	0	0	0
881677	REC_WORD	wordpools/wasnorm_wordpool_576.txt	LTP301	ltpFR2	5	4	BURGLAR	200	n/a	n/a	0	0	0
996227	DISTRACTOR	n/a	LTP301	ltpFR2	5	5	n/a	n/a	n/a	n/a	0	0	0
996227	START	n/a	LTP301	ltpFR2	5	n/a	n/a	n/a	8	n/a	n/a	n/a	n/a
996260	PROB	n/a	LTP301	ltpFR2	5	n/a	n/a	n/a	8	16	2	5	9
1003550	PROB	n/a	LTP301	ltpFR2	5	n/a	n/a	n/a	8	13	3	8	2
1005769	PROB	n/a	LTP301	ltpFR2	5	n/a	n/a	n/a	8	21	3	9	9
1007453	PROB	n/a	LTP301	ltpFR2	5	n/a	n/a	n/a	8	15	6	4	3
1009522	PROB	n/a	LTP301	ltpFR2	5	n/a	n/a	n/a	8	17	5	4	8
1012341	PROB	n/a	LTP301	ltpFR2	5	n/a	n/a	n/a	8	11	5	5	1
1013626	PROB	n/a	LTP301	ltpFR2	5	n/a	n/a	n/a	8	14	4	7	3
1017161	PROB	n/a	LTP301	ltpFR2	5	n/a	n/a	n/a	8	18	7	5	6
1019459	STOP	n/a	LTP301	ltpFR2	5	n/a	n/a	n/a	8	n/a	n/a	n/a	n/a
1021431	WORD	wordpools/wasnorm_wordpool_576.txt	LTP301	ltpFR2	5	5	IGLOO	734	n/a	n/a	0	0	0
1023868	WORD	wordpools/wasnorm_wordpool_576.txt	LTP301	ltpFR2	5	5	FIREMAN	569	n/a	n/a	0	0	0
1026436	WORD	wordpools/wasnorm_wordpool_576.txt	LTP301	ltpFR2	5	5	CARRIAGE	248	n/a	n/a	0	0	0
1029105	WORD	wordpools/wasnorm_wordpool_576.txt	LTP301	ltpFR2	5	5	STUDENT	1395	n/a	n/a	0	0	0
1031590	WORD	wordpools/wasnorm_wordpool_576.txt	LTP301	ltpFR2	5	5	SHELF	1280	n/a	n/a	0	0	0
1034092	WORD	wordpools/wasnorm_wordpool_576.txt	LTP301	ltpFR2	5	5	LIPSTICK	829	n/a	n/a	0	0	0
1036879	WORD	wordpools/wasnorm_wordpool_576.txt	LTP301	ltpFR2	5	5	MARROW	872	n/a	n/a	0	0	0
1039547	WORD	wordpools/wasnorm_wordpool_576.txt	LTP301	ltpFR2	5	5	BELLY	119	n/a	n/a	0	0	0
1042082	WORD	wordpools/wasnorm_wordpool_576.txt	LTP301	ltpFR2	5	5	DASHBOARD	441	n/a	n/a	0	0	0
1044885	WORD	wordpools/wasnorm_wordpool_576.txt	LTP301	ltpFR2	5	5	CROSS	413	n/a	n/a	0	0	0
1047704	WORD	wordpools/wasnorm_wordpool_576.txt	LTP301	ltpFR2	5	5	BUGGY	188	n/a	n/a	0	0	0
1050372	WORD	wordpools/wasnorm_wordpool_576.txt	LTP301	ltpFR2	5	5	SERVANT	1271	n/a	n/a	0	0	0
1052959	WORD	wordpools/wasnorm_wordpool_576.txt	LTP301	ltpFR2	5	5	COIN	343	n/a	n/a	0	0	0
1055678	WORD	wordpools/wasnorm_wordpool_576.txt	LTP301	ltpFR2	5	5	CASHIER	254	n/a	n/a	0	0	0
1058396	WORD	wordpools/wasnorm_wordpool_576.txt	LTP301	ltpFR2	5	5	COMPASS	358	n/a	n/a	0	0	0
1060849	WORD	wordpools/wasnorm_wordpool_576.txt	LTP301	ltpFR2	5	5	BANQUET	86	n/a	n/a	0	0	0
1063616	WORD	wordpools/wasnorm_wordpool_576.txt	LTP301	ltpFR2	5	5	BLACKBOARD	133	n/a	n/a	0	0	0
1066252	WORD	wordpools/wasnorm_wordpool_576.txt	LTP301	ltpFR2	5	5	SUITCASE	1403	n/a	n/a	0	0	0
1068788	WORD	wordpools/wasnorm_wordpool_576.txt	LTP301	ltpFR2	5	5	EGYPT	519	n/a	n/a	0	0	0
1071390	WORD	wordpools/wasnorm_wordpool_576.txt	LTP301	ltpFR2	5	5	TEMPLE	1448	n/a	n/a	0	0	0
1073843	WORD	wordpools/wasnorm_wordpool_576.txt	LTP301	ltpFR2	5	5	TEACHER	1440	n/a	n/a	0	0	0
1076544	WORD	wordpools/wasnorm_wordpool_576.txt	LTP301	ltpFR2	5	5	JELLY	755	n/a	n/a	0	0	0
1079163	WORD	wordpools/wasnorm_wordpool_576.txt	LTP301	ltpFR2	5	5	SEAL	1262	n/a	n/a	0	0	0
1081649	WORD	wordpools/wasnorm_wordpool_576.txt	LTP301	ltpFR2	5	5	PASSAGE	1019	n/a	n/a	0	0	0
1083266	START	n/a	LTP301	ltpFR2	5	n/a	n/a	n/a	9	n/a	n/a	n/a	n/a
1084341	DISTRACTOR	n/a	LTP301	ltpFR2	5	5	n/a	n/a	n/a	n/a	0	0	0
1084350	PROB	n/a	LTP301	ltpFR2	5	n/a	n/a	n/a	9	17	4	7	6
1087904	PROB	n/a	LTP301	ltpFR2	5	n/a	n/a	n/a	9	15	1	5	9
1090189	PROB	n/a	LTP301	ltpFR2	5	n/a	n/a	n/a	9	23	9	8	5
1095761	PROB	n/a	LTP301	ltpFR2	5	n/a	n/a	n/a	9	22	8	5	9
1103233	PROB	n/a	LTP301	ltpFR2	5	n/a	n/a	n/a	9	19	8	3	8
1105804	STOP	n/a	LTP301	ltpFR2	5	n/a	n/a	n/a	9	n/a	n/a	n/a	n/a
1109188	REC_START	n/a	LTP301	ltpFR2	5	5	n/a	n/a	n/a	n/a	0	0	0
1110764	REC_WORD	wordpools/wasnorm_wordpool_576.txt	LTP301	ltpFR2	5	5	STUDENT	1395	n/a	n/a	0	0	0
1111685	REC_WORD	wordpools/wasnorm_wordpool_576.txt	LTP301	ltpFR2	5	5	TEACHER	1440	n/a	n/a	0	0	0
1112701	REC_WORD	wordpools/wasnorm_wordpool_576.txt	LTP301	ltpFR2	5	5	BLACKBOARD	133	n/a	n/a	0	0	0
1116377	REC_WORD	wordpools/wasnorm_wordpool_576.txt	LTP301	ltpFR2	5	5	FIREMAN	569	n/a	n/a	0	0	0
1117996	REC_WORD	wordpools/wasnorm_wordpool_576.txt	LTP301	ltpFR2	5	5	CARRIAGE	248	n/a	n/a	0	0	0
1179772	REC_WORD	wordpools/wasnorm_wordpool_576.txt	LTP301	ltpFR2	5	5	BRIEFCASE	175	n/a	n/a	0	0	0
1199831	WORD	wordpools/wasnorm_wordpool_576.txt	LTP301	ltpFR2	5	6	SCULPTURE	1258	n/a	n/a	0	0	0
1202332	WORD	wordpools/wasnorm_wordpool_576.txt	LTP301	ltpFR2	5	6	ASIA	46	n/a	n/a	0	0	0
1205068	WORD	wordpools/wasnorm_wordpool_576.txt	LTP301	ltpFR2	5	6	POSSUM	1112	n/a	n/a	0	0	0
1207871	WORD	wordpools/wasnorm_wordpool_576.txt	LTP301	ltpFR2	5	6	LADDER	793	n/a	n/a	0	0	0
1210355	WORD	wordpools/wasnorm_wordpool_576.txt	LTP301	ltpFR2	5	6	OZONE	996	n/a	n/a	0	0	0
1213041	WORD	wordpools/wasnorm_wordpool_576.txt	LTP301	ltpFR2	5	6	BALLOON	75	n/a	n/a	0	0	0
1215861	WORD	wordpools/wasnorm_wordpool_576.txt	LTP301	ltpFR2	5	6	CLOUD	328	n/a	n/a	0	0	0
1218545	WORD	wordpools/wasnorm_wordpool_576.txt	LTP301	ltpFR2	5	6	NURSE	963	n/a	n/a	0	0	0
1221181	WORD	wordpools/wasnorm_wordpool_576.txt	LTP301	ltpFR2	5	6	ROBBER	1197	n/a	n/a	0	0	0
1223901	WORD	wordpools/wasnorm_wordpool_576.txt	LTP301	ltpFR2	5	6	PEDAL	1037	n/a	n/a	0	0	0
1226703	WORD	wordpools/wasnorm_wordpool_576.txt	LTP301	ltpFR2	5	6	BIKE	125	n/a	n/a	0	0	0
1229504	WORD	wordpools/wasnorm_wordpool_576.txt	LTP301	ltpFR2	5	6	KNAPSACK	783	n/a	n/a	0	0	0
1232190	WORD	wordpools/wasnorm_wordpool_576.txt	LTP301	ltpFR2	5	6	ANTLER	29	n/a	n/a	0	0	0
1234760	WORD	wordpools/wasnorm_wordpool_576.txt	LTP301	ltpFR2	5	6	CREATURE	403	n/a	n/a	0	0	0
1237244	WORD	wordpools/wasnorm_wordpool_576.txt	LTP301	ltpFR2	5	6	COLONEL	348	n/a	n/a	0	0	0
1239964	WORD	wordpools/wasnorm_wordpool_576.txt	LTP301	ltpFR2	5	6	BANK	83	n/a	n/a	0	0	0
1242499	WORD	wordpools/wasnorm_wordpool_576.txt	LTP301	ltpFR2	5	6	TUNNEL	1519	n/a	n/a	0	0	0
1245284	WORD	wordpools/wasnorm_wordpool_576.txt	LTP301	ltpFR2	5	6	PATIENT	1024	n/a	n/a	0	0	0
1248120	WORD	wordpools/wasnorm_wordpool_576.txt	LTP301	ltpFR2	5	6	LIGHTNING	820	n/a	n/a	0	0	0
1250840	WORD	wordpools/wasnorm_wordpool_576.txt	LTP301	ltpFR2	5	6	YARN	1631	n/a	n/a	0	0	0
1253391	WORD	wordpools/wasnorm_wordpool_576.txt	LTP301	ltpFR2	5	6	HELMET	702	n/a	n/a	0	0	0
1255927	WORD	wordpools/wasnorm_wordpool_576.txt	LTP301	ltpFR2	5	6	RACKET	1155	n/a	n/a	0	0	0
1258378	WORD	wordpools/wasnorm_wordpool_576.txt	LTP301	ltpFR2	5	6	FLASHLIGHT	575	n/a	n/a	0	0	0
1261064	WORD	wordpools/wasnorm_wordpool_576.txt	LTP301	ltpFR2	5	6	EUROPE	541	n/a	n/a	0	0	0
1262683	START	n/a	LTP301	ltpFR2	5	n/a	n/a	n/a	10	n/a	n/a	n/a	n/a
1263806	DISTRACTOR	n/a	LTP301	ltpFR2	5	6	n/a	n/a	n/a	n/a	0	0	0
1263817	PROB	n/a	LTP301	ltpFR2	5	n/a	n/a	n/a	10	17	5	9	3
1269672	PROB	n/a	LTP301	ltpFR2	5	n/a	n/a	n/a	10	13	6	6	1
1271223	PROB	n/a	LTP301	ltpFR2	5	n/a	n/a	n/a	10	23	8	7	8
1276327	PROB	n/a	LTP301	ltpFR2	5	n/a	n/a	n/a	10	12	4	1	7
1278579	PROB	n/a	LTP301	ltpFR2	5	n/a	n/a	n/a	10	19	6	7	6
1282716	PROB	n/a	LTP301	ltpFR2	5	n/a	n/a	n/a	10	11	7	3	1
1286668	STOP	n/a	LTP301	ltpFR2	5	n/a	n/a	n/a	10	n/a	n/a	n/a	n/a
1288454	REC_START	n/a	LTP301	ltpFR2	5	6	n/a	n/a	n/a	n/a	0	0	0
1289444	REC_WORD	wordpools/wasnorm_wordpool_576.txt	LTP301	ltpFR2	5	6	ROBBER	1197	n/a	n/a	0	0	0
1290834	REC_WORD	wordpools/wasnorm_wordpool_576.txt	LTP301	ltpFR2	5	6	LADDER	793	n/a	n/a	0	0	0
1322642	REC_WORD	wordpools/wasnorm_wordpool_576.txt	LTP301	ltpFR2	5	6	BUGGY	188	n/a	n/a	0	0	0
1338028	REC_WORD	wordpools/wasnorm_wordpool_576.txt	LTP301	ltpFR2	5	6	COIN	343	n/a	n/a	0	0	0
1338987	REC_WORD	wordpools/wasnorm_wordpool_576.txt	LTP301	ltpFR2	5	6	CASHIER	254	n/a	n/a	0	0	0
1340109	REC_WORD	wordpools/wasnorm_wordpool_576.txt	LTP301	ltpFR2	5	6	EGYPT	519	n/a	n/a	0	0	0
1341008	REC_WORD	wordpools/wasnorm_wordpool_576.txt	LTP301	ltpFR2	5	6	TEMPLE	1448	n/a	n/a	0	0	0
1379046	WORD	wordpools/wasnorm_wordpool_576.txt	LTP301	ltpFR2	5	7	STATUE	1374	n/a	n/a	0	0	0
1381665	WORD	wordpools/wasnorm_wordpool_576.txt	LTP301	ltpFR2	5	7	JUDGE	761	n/a	n/a	0	0	0
1384317	WORD	wordpools/wasnorm_wordpool_576.txt	LTP301	ltpFR2	5	7	SEAGULL	1261	n/a	n/a	0	0	0
1386820	WORD	wordpools/wasnorm_wordpool_576.txt	LTP301	ltpFR2	5	7	PRINCE	1124	n/a	n/a	0	0	0
1389622	WORD	wordpools/wasnorm_wordpool_576.txt	LTP301	ltpFR2	5	7	APRON	35	n/a	n/a	0	0	0
1392073	WORD	wordpools/wasnorm_wordpool_576.txt	LTP301	ltpFR2	5	7	BABY	64	n/a	n/a	0	0	0
1394693	WORD	wordpools/wasnorm_wordpool_576.txt	LTP301	ltpFR2	5	7	ROOSTER	1209	n/a	n/a	0	0	0
1397444	WORD	wordpools/wasnorm_wordpool_576.txt	LTP301	ltpFR2	5	7	BRIEFCASE	175	n/a	n/a	0	0	0
1400213	WORD	wordpools/wasnorm_wordpool_576.txt	LTP301	ltpFR2	5	7	RECEIPT	1173	n/a	n/a	0	0	0
1402766	WORD	wordpools/wasnorm_wordpool_576.txt	LTP301	ltpFR2	5	7	PROTON	1132	n/a	n/a	0	0	0
1405551	WORD	wordpools/wasnorm_wordpool_576.txt	LTP301	ltpFR2	5	7	HOSTESS	723	n/a	n/a	0	0	0
1407987	WORD	wordpools/wasnorm_wordpool_576.txt	LTP301	ltpFR2	5	7	IDOL	733	n/a	n/a	0	0	0
1410740	WORD	wordpools/wasnorm_wordpool_576.txt	LTP301	ltpFR2	5	7	SKILLET	1317	n/a	n/a	0	0	0
1413191	WORD	wordpools/wasnorm_wordpool_576.txt	LTP301	ltpFR2	5	7	YOLK	1633	n/a	n/a	0	0	0
1415677	WORD	wordpools/wasnorm_wordpool_576.txt	LTP301	ltpFR2	5	7	COCKTAIL	338	n/a	n/a	0	0	0
1418445	WORD	wordpools/wasnorm_wordpool_576.txt	LTP301	ltpFR2	5	7	FLASK	576	n/a	n/a	0	0	0
1421014	WORD	wordpools/wasnorm_wordpool_576.txt	LTP301	ltpFR2	5	7	SKIRT	1319	n/a	n/a	0	0	0
1423566	WORD	wordpools/wasnorm_wordpool_576.txt	LTP301	ltpFR2	5	7	CELLAR	267	n/a	n/a	0	0	0
1426168	WORD	wordpools/wasnorm_wordpool_576.txt	LTP301	ltpFR2	5	7	SWIMMER	1420	n/a	n/a	0	0	0
1428855	WORD	wordpools/wasnorm_wordpool_576.txt	LTP301	ltpFR2	5	7	COOK	372	n/a	n/a	0	0	0
1431472	WORD	wordpools/wasnorm_wordpool_576.txt	LTP301	ltpFR2	5	7	PLAYGROUND	1087	n/a	n/a	0	0	0
1434041	WORD	wordpools/wasnorm_wordpool_576.txt	LTP301	ltpFR2	5	7	DONKEY	484	n/a	n/a	0	0	0
1436560	WORD	wordpools/wasnorm_wordpool_576.txt	LTP301	ltpFR2	5	7	DRESS	495	n/a	n/a	0	0	0
1439045	WORD	wordpools/wasnorm_wordpool_576.txt	LTP301	ltpFR2	5	7	POLICE	1098	n/a	n/a	0	0	0
1440665	START	n/a	LTP301	ltpFR2	5	n/a	n/a	n/a	11	n/a	n/a	n/a	n/a
1441800	DISTRACTOR	n/a	LTP301	ltpFR2	5	7	n/a	n/a	n/a	n/a	0	0	0
1441815	PROB	n/a	LTP301	ltpFR2	5	n/a	n/a	n/a	11	9	3	5	1
1445267	PROB	n/a	LTP301	ltpFR2	5	n/a	n/a	n/a	11	18	7	3	8
1450138	PROB	n/a	LTP301	ltpFR2	5	n/a	n/a	n/a	11	21	8	5	8
1455644	PROB	n/a	LTP301	ltpFR2	5	n/a	n/a	n/a	11	11	4	5	2
1457812	PROB	n/a	LTP301	ltpFR2	5	n/a	n/a	n/a	11	13	3	2	8
1460380	PROB	n/a	LTP301	ltpFR2	5	n/a	n/a	n/a	11	9	3	4	1
1463892	STOP	n/a	LTP301	ltpFR2	5	n/a	n/a	n/a	11	n/a	n/a	n/a	n/a
1466485	REC_START	n/a	LTP301	ltpFR2	5	7	n/a	n/a	n/a	n/a	0	0	0
1470731	REC_WORD	wordpools/wasnorm_wordpool_576.txt	LTP301	ltpFR2	5	7	POLICE	1098	n/a	n/a	0	0	0
1471266	REC_WORD	wordpools/wasnorm_wordpool_576.txt	LTP301	ltpFR2	5	7	MAN	862	n/a	n/a	0	0	0
1472186	REC_WORD	wordpools/wasnorm_wordpool_576.txt	LTP301	ltpFR2	5	7	BRIEFCASE	175	n/a	n/a	0	0	0
1474116	REC_WORD	wordpools/wasnorm_wordpool_576.txt	LTP301	ltpFR2	5	7	SKILLET	1317	n/a	n/a	0	0	0
1477054	REC_WORD	wordpools/wasnorm_wordpool_576.txt	LTP301	ltpFR2	5	7	STATUE	1374	n/a	n/a	0	0	0
1478508	REC_WORD	wordpools/wasnorm_wordpool_576.txt	LTP301	ltpFR2	5	7	JUDGE	761	n/a	n/a	0	0	0
1504814	REC_WORD	wordpools/wasnorm_wordpool_576.txt	LTP301	ltpFR2	5	7	THIEF	1456	n/a	n/a	0	0	0
1556961	WORD	wordpools/wasnorm_wordpool_576.txt	LTP301	ltpFR2	5	8	JELLO	754	n/a	n/a	0	0	0
1559462	WORD	wordpools/wasnorm_wordpool_576.txt	LTP301	ltpFR2	5	8	CARROT	249	n/a	n/a	0	0	0
1561999	WORD	wordpools/wasnorm_wordpool_576.txt	LTP301	ltpFR2	5	8	PLAZA	1088	n/a	n/a	0	0	0
1564751	WORD	wordpools/wasnorm_wordpool_576.txt	LTP301	ltpFR2	5	8	VIRUS	1572	n/a	n/a	0	0	0
1567435	WORD	wordpools/wasnorm_wordpool_576.txt	LTP301	ltpFR2	5	8	ARM	38	n/a	n/a	0	0	0
1570188	WORD	wordpools/wasnorm_wordpool_576.txt	LTP301	ltpFR2	5	8	GIFT	635	n/a	n/a	0	0	0
1572708	WORD	wordpools/wasnorm_wordpool_576.txt	LTP301	ltpFR2	5	8	GLOBE	641	n/a	n/a	0	0	0
1575192	WORD	wordpools/wasnorm_wordpool_576.txt	LTP301	ltpFR2	5	8	BEAST	108	n/a	n/a	0	0	0
1577795	WORD	wordpools/wasnorm_wordpool_576.txt	LTP301	ltpFR2	5	8	LAVA	804	n/a	n/a	0	0	0
1580229	WORD	wordpools/wasnorm_wordpool_576.txt	LTP301	ltpFR2	5	8	CONTRACT	368	n/a	n/a	0	0	0
1582833	WORD	wordpools/wasnorm_wordpool_576.txt	LTP301	ltpFR2	5	8	FOX	598	n/a	n/a	0	0	0
1585350	WORD	wordpools/wasnorm_wordpool_576.txt	LTP301	ltpFR2	5	8	COUCH	386	n/a	n/a	0	0	0
1587887	WORD	wordpools/wasnorm_wordpool_576.txt	LTP301	ltpFR2	5	8	PADDING	999	n/a	n/a	0	0	0
1590622	WORD	wordpools/wasnorm_wordpool_576.txt	LTP301	ltpFR2	5	8	KETCHUP	771	n/a	n/a	0	0	0
1593290	WORD	wordpools/wasnorm_wordpool_576.txt	LTP301	ltpFR2	5	8	RELISH	1183	n/a	n/a	0	0	0
1595777	WORD	wordpools/wasnorm_wordpool_576.txt	LTP301	ltpFR2	5	8	PACKAGE	997	n/a	n/a	0	0	0
1598578	WORD	wordpools/wasnorm_wordpool_576.txt	LTP301	ltpFR2	5	8	ITEM	746	n/a	n/a	0	0	0
1601047	WORD	wordpools/wasnorm_wordpool_576.txt	LTP301	ltpFR2	5	8	PLIERS	1089	n/a	n/a	0	0	0
1603566	WORD	wordpools/wasnorm_wordpool_576.txt	LTP301	ltpFR2	5	8	ARMY	39	n/a	n/a	0	0	0
1606084	WORD	wordpools/wasnorm_wordpool_576.txt	LTP301	ltpFR2	5	8	SHRUB	1299	n/a	n/a	0	0	0
1608821	WORD	wordpools/wasnorm_wordpool_576.txt	LTP301	ltpFR2	5	8	EMPIRE	530	n/a	n/a	0	0	0
1611355	WORD	wordpools/wasnorm_wordpool_576.txt	LTP301	ltpFR2	5	8	PEACH	1031	n/a	n/a	0	0	0
1614191	WORD	wordpools/wasnorm_wordpool_576.txt	LTP301	ltpFR2	5	8	CATCHER	258	n/a	n/a	0	0	0
1616961	WORD	wordpools/wasnorm_wordpool_576.txt	LTP301	ltpFR2	5	8	SALAD	1224	n/a	n/a	0	0	0
1618578	START	n/a	LTP301	ltpFR2	5	n/a	n/a	n/a	12	n/a	n/a	n/a	n/a
1619683	DISTRACTOR	n/a	LTP301	ltpFR2	5	8	n/a	n/a	n/a	n/a	0	0	0
1619697	PROB	n/a	LTP301	ltpFR2	5	n/a	n/a	n/a	12	7	1	3	3
1624768	PROB	n/a	LTP301	ltpFR2	5	n/a	n/a	n/a	12	18	3	8	7
1627637	PROB	n/a	LTP301	ltpFR2	5	n/a	n/a	n/a	12	22	9	8	5
1633642	PROB	n/a	LTP301	ltpFR2	5	n/a	n/a	n/a	12	8	4	2	2
1636360	PROB	n/a	LTP301	ltpFR2	5	n/a	n/a	n/a	12	11	2	5	4
1638813	PROB	n/a	LTP301	ltpFR2	5	n/a	n/a	n/a	12	14	2	6	6
1642578	STOP	n/a	LTP301	ltpFR2	5	n/a	n/a	n/a	12	n/a	n/a	n/a	n/a
1644450	REC_START	n/a	LTP301	ltpFR2	5	8	n/a	n/a	n/a	n/a	0	0	0
1645365	REC_WORD	wordpools/wasnorm_wordpool_576.txt	LTP301	ltpFR2	5	8	EMPIRE	530	n/a	n/a	0	0	0
1646367	REC_WORD	wordpools/wasnorm_wordpool_576.txt	LTP301	ltpFR2	5	8	CATCHER	258	n/a	n/a	0	0	0
1647286	REC_WORD	wordpools/wasnorm_wordpool_576.txt	LTP301	ltpFR2	5	8	SHRUB	1299	n/a	n/a	0	0	0
1689355	REC_WORD	wordpools/wasnorm_wordpool_576.txt	LTP301	ltpFR2	5	8	FOX	598	n/a	n/a	0	0	0
1720998	REST_REWET	n/a	LTP301	ltpFR2	5	8	n/a	n/a	n/a	n/a	0	0	0
1887970	WORD	wordpools/wasnorm_wordpool_576.txt	LTP301	ltpFR2	5	9	PORK	1108	n/a	n/a	0	0	0
1890722	WORD	wordpools/wasnorm_wordpool_576.txt	LTP301	ltpFR2	5	9	CAPTIVE	240	n/a	n/a	0	0	0
1893457	WORD	wordpools/wasnorm_wordpool_576.txt	LTP301	ltpFR2	5	9	JAPAN	749	n/a	n/a	0	0	0
1896242	WORD	wordpools/wasnorm_wordpool_576.txt	LTP301	ltpFR2	5	9	PARROT	1015	n/a	n/a	0	0	0
1898946	WORD	wordpools/wasnorm_wordpool_576.txt	LTP301	ltpFR2	5	9	SUNRISE	1407	n/a	n/a	0	0	0
1901765	WORD	wordpools/wasnorm_wordpool_576.txt	LTP301	ltpFR2	5	9	TRACTOR	1493	n/a	n/a	0	0	0
1904332	WORD	wordpools/wasnorm_wordpool_576.txt	LTP301	ltpFR2	5	9	FARMER	553	n/a	n/a	0	0	0
1907068	WORD	wordpools/wasnorm_wordpool_576.txt	LTP301	ltpFR2	5	9	KIDNEY	776	n/a	n/a	0	0	0
1909805	WORD	wordpools/wasnorm_wordpool_576.txt	LTP301	ltpFR2	5	9	CHAPEL	280	n/a	n/a	0	0	0
1912372	WORD	wordpools/wasnorm_wordpool_576.txt	LTP301	ltpFR2	5	9	BROOK	177	n/a	n/a	0	0	0
1915175	WORD	wordpools/wasnorm_wordpool_576.txt	LTP301	ltpFR2	5	9	STREAM	1392	n/a	n/a	0	0	0
1917895	WORD	wordpools/wasnorm_wordpool_576.txt	LTP301	ltpFR2	5	9	LAGOON	795	n/a	n/a	0	0	0
1920379	WORD	wordpools/wasnorm_wordpool_576.txt	LTP301	ltpFR2	5	9	THIEF	1456	n/a	n/a	0	0	0
1923215	WORD	wordpools/wasnorm_wordpool_576.txt	LTP301	ltpFR2	5	9	BRAKE	166	n/a	n/a	0	0	0
1925918	WORD	wordpools/wasnorm_wordpool_576.txt	LTP301	ltpFR2	5	9	BEAVER	109	n/a	n/a	0	0	0
1928419	WORD	wordpools/wasnorm_wordpool_576.txt	LTP301	ltpFR2	5	9	FRIEND	606	n/a	n/a	0	0	0
1930889	WORD	wordpools/wasnorm_wordpool_576.txt	LTP301	ltpFR2	5	9	BUTCHER	203	n/a	n/a	0	0	0
1933590	WORD	wordpools/wasnorm_wordpool_576.txt	LTP301	ltpFR2	5	9	BODY	145	n/a	n/a	0	0	0
1936059	WORD	wordpools/wasnorm_wordpool_576.txt	LTP301	ltpFR2	5	9	AUTHOR	61	n/a	n/a	0	0	0
1938561	WORD	wordpools/wasnorm_wordpool_576.txt	LTP301	ltpFR2	5	9	REPORT	1184	n/a	n/a	0	0	0
1941063	WORD	wordpools/wasnorm_wordpool_576.txt	LTP301	ltpFR2	5	9	PALACE	1006	n/a	n/a	0	0	0
1943783	WORD	wordpools/wasnorm_wordpool_576.txt	LTP301	ltpFR2	5	9	CORAL	378	n/a	n/a	0	0	0
1946501	WORD	wordpools/wasnorm_wordpool_576.txt	LTP301	ltpFR2	5	9	PERCH	1048	n/a	n/a	0	0	0
1949320	WORD	wordpools/wasnorm_wordpool_576.txt	LTP301	ltpFR2	5	9	BUBBLE	183	n/a	n/a	0	0	0
1950939	START	n/a	LTP301	ltpFR2	5	n/a	n/a	n/a	13	n/a	n/a	n/a	n/a
1951741	DISTRACTOR	n/a	LTP301	ltpFR2	5	9	n/a	n/a	n/a	n/a	0	0	0
1951773	PROB	n/a	LTP301	ltpFR2	5	n/a	n/a	n/a	13	8	5	1	2
1955191	PROB	n/a	LTP301	ltpFR2	5	n/a	n/a	n/a	13	13	6	2	5
1959629	PROB	n/a	LTP301	ltpFR2	5	n/a	n/a	n/a	13	13	7	1	5
1963749	PROB	n/a	LTP301	ltpFR2	5	n/a	n/a	n/a	13	16	2	8	6
1965734	PROB	n/a	LTP301	ltpFR2	5	n/a	n/a	n/a	13	10	3	3	4
1968069	PROB	n/a	LTP301	ltpFR2	5	n/a	n/a	n/a	13	12	6	5	1
1970521	PROB	n/a	LTP301	ltpFR2	5	n/a	n/a	n/a	13	15	4	3	8
1973491	STOP	n/a	LTP301	ltpFR2	5	n/a	n/a	n/a	13	n/a	n/a	n/a	n/a
1976761	REC_START	n/a	LTP301	ltpFR2	5	9	n/a	n/a	n/a	n/a	0	0	0
1978943	REC_WORD	wordpools/wasnorm_wordpool_576.txt	LTP301	ltpFR2	5	9	THIEF	1456	n/a	n/a	0	0	0
1980000	REC_WORD	wordpools/wasnorm_wordpool_576.txt	LTP301	ltpFR2	5	9	CAPTIVE	240	n/a	n/a	0	0	0
1981111	REC_WORD	wordpools/wasnorm_wordpool_576.txt	LTP301	ltpFR2	5	9	JAPAN	749	n/a	n/a	0	0	0
1988697	REC_WORD	wordpools/wasnorm_wordpool_576.txt	LTP301	ltpFR2	5	9	PORK	1108	n/a	n/a	0	0	0
1992951	REC_WORD	wordpools/wasnorm_wordpool_576.txt	LTP301	ltpFR2	5	9	STREAM	1392	n/a	n/a	0	0	0
1994533	REC_WORD	wordpools/wasnorm_wordpool_576.txt	LTP301	ltpFR2	5	9	BROOK	177	n/a	n/a	0	0	0
1995442	REC_WORD	wordpools/wasnorm_wordpool_576.txt	LTP301	ltpFR2	5	9	LAGOON	795	n/a	n/a	0	0	0
2028910	REC_WORD	wordpools/wasnorm_wordpool_576.txt	LTP301	ltpFR2	5	9	KIDNEY	776	n/a	n/a	0	0	0
2067234	WORD	wordpools/wasnorm_wordpool_576.txt	LTP301	ltpFR2	5	10	LONDON	843	n/a	n/a	0	0	0
2069721	WORD	wordpools/wasnorm_wordpool_576.txt	LTP301	ltpFR2	5	10	HAWK	692	n/a	n/a	0	0	0
2072372	WORD	wordpools/wasnorm_wordpool_576.txt	LTP301	ltpFR2	5	10	WAITRESS	1581	n/a	n/a	0	0	0
2075024	WORD	wordpools/wasnorm_wordpool_576.txt	LTP301	ltpFR2	5	10	COUNTY	389	n/a	n/a	0	0	0
2077526	WORD	wordpools/wasnorm_wordpool_576.txt	LTP301	ltpFR2	5	10	CAMEL	223	n/a	n/a	0	0	0
2080112	WORD	wordpools/wasnorm_wordpool_576.txt	LTP301	ltpFR2	5	10	CATTLE	261	n/a	n/a	0	0	0
2082614	WORD	wordpools/wasnorm_wordpool_576.txt	LTP301	ltpFR2	5	10	BISON	131	n/a	n/a	0	0	0
2085300	WORD	wordpools/wasnorm_wordpool_576.txt	LTP301	ltpFR2	5	10	FRIAR	605	n/a	n/a	0	0	0
2087853	WORD	wordpools/wasnorm_wordpool_576.txt	LTP301	ltpFR2	5	10	CITRUS	313	n/a	n/a	0	0	0
2090521	WORD	wordpools/wasnorm_wordpool_576.txt	LTP301	ltpFR2	5	10	INFANT	737	n/a	n/a	0	0	0
2092990	WORD	wordpools/wasnorm_wordpool_576.txt	LTP301	ltpFR2	5	10	LEADER	807	n/a	n/a	0	0	0
2095676	WORD	wordpools/wasnorm_wordpool_576.txt	LTP301	ltpFR2	5	10	SUMMIT	1405	n/a	n/a	0	0	0
2098494	WORD	wordpools/wasnorm_wordpool_576.txt	LTP301	ltpFR2	5	10	MASK	876	n/a	n/a	0	0	0
2101146	WORD	wordpools/wasnorm_wordpool_576.txt	LTP301	ltpFR2	5	10	BOYFRIEND	162	n/a	n/a	0	0	0
2103799	WORD	wordpools/wasnorm_wordpool_576.txt	LTP301	ltpFR2	5	10	POET	1095	n/a	n/a	0	0	0
2106317	WORD	wordpools/wasnorm_wordpool_576.txt	LTP301	ltpFR2	5	10	LABEL	790	n/a	n/a	0	0	0
2109086	WORD	wordpools/wasnorm_wordpool_576.txt	LTP301	ltpFR2	5	10	SCISSORS	1250	n/a	n/a	0	0	0
2111639	WORD	wordpools/wasnorm_wordpool_576.txt	LTP301	ltpFR2	5	10	SISTER	1312	n/a	n/a	0	0	0
2114390	WORD	wordpools/wasnorm_wordpool_576.txt	LTP301	ltpFR2	5	10	TURNIP	1521	n/a	n/a	0	0	0
2117126	WORD	wordpools/wasnorm_wordpool_576.txt	LTP301	ltpFR2	5	10	KITCHEN	778	n/a	n/a	0	0	0
2119796	WORD	wordpools/wasnorm_wordpool_576.txt	LTP301	ltpFR2	5	10	HIKER	708	n/a	n/a	0	0	0
2122347	WORD	wordpools/wasnorm_wordpool_576.txt	LTP301	ltpFR2	5	10	BROTHER	179	n/a	n/a	0	0	0
2124883	WORD	wordpools/wasnorm_wordpool_576.txt	LTP301	ltpFR2	5	10	PARTNER	1017	n/a	n/a	0	0	0
2127585	WORD	wordpools/wasnorm_wordpool_576.txt	LTP301	ltpFR2	5	10	LOVER	846	n/a	n/a	0	0	0
2129203	START	n/a	LTP301	ltpFR2	5	n/a	n/a	n/a	14	n/a	n/a	n/a	n/a
2130042	DISTRACTOR	n/a	LTP301	ltpFR2	5	10	n/a	n/a	n/a	n/a	0	0	0
2130053	PROB	n/a	LTP301	ltpFR2	5	n/a	n/a	n/a	14	19	7	3	9
2136308	PROB	n/a	LTP301	ltpFR2	5	n/a	n/a	n/a	14	21	5	9	7
2140295	PROB	n/a	LTP301	ltpFR2	5	n/a	n/a	n/a	14	16	5	8	3
2142832	PROB	n/a	LTP301	ltpFR2	5	n/a	n/a	n/a	14	8	5	2	1
2145166	PROB	n/a	LTP301	ltpFR2	5	n/a	n/a	n/a	14	18	7	8	3
2153187	STOP	n/a	LTP301	ltpFR2	5	n/a	n/a	n/a	14	n/a	n/a	n/a	n/a
2155175	REC_START	n/a	LTP301	ltpFR2	5	10	n/a	n/a	n/a	n/a	0	0	0
2159262	REC_WORD	wordpools/wasnorm_wordpool_576.txt	LTP301	ltpFR2	5	10	BROTHER	179	n/a	n/a	0	0	0
2162461	REC_WORD	wordpools/wasnorm_wordpool_576.txt	LTP301	ltpFR2	5	10	LOVER	846	n/a	n/a	0	0	0
2164169	REC_WORD	wordpools/wasnorm_wordpool_576.txt	LTP301	ltpFR2	5	10	BOYFRIEND	162	n/a	n/a	0	0	0
2170180	REC_WORD	wordpools/wasnorm_wordpool_576.txt	LTP301	ltpFR2	5	10	SCISSORS	1250	n/a	n/a	0	0	0
2183727	REC_WORD	wordpools/wasnorm_wordpool_576.txt	LTP301	ltpFR2	5	10	VIRUS	1572	n/a	n/a	0	0	0
2224070	REC_WORD	wordpools/wasnorm_wordpool_576.txt	LTP301	ltpFR2	5	10	FRIAR	605	n/a	n/a	0	0	0
2245616	DISTRACTOR	n/a	LTP301	ltpFR2	5	11	n/a	n/a	n/a	n/a	0	0	0
2245616	START	n/a	LTP301	ltpFR2	5	n/a	n/a	n/a	15	n/a	n/a	n/a	n/a
2245634	PROB	n/a	LTP301	ltpFR2	5	n/a	n/a	n/a	15	13	4	8	1
2248870	PROB	n/a	LTP301	ltpFR2	5	n/a	n/a	n/a	15	16	3	4	9
2252907	PROB	n/a	LTP301	ltpFR2	5	n/a	n/a	n/a	15	18	5	8	5
2254574	PROB	n/a	LTP301	ltpFR2	5	n/a	n/a	n/a	15	23	7	8	8
2257209	PROB	n/a	LTP301	ltpFR2	5	n/a	n/a	n/a	15	24	7	8	9
2259829	PROB	n/a	LTP301	ltpFR2	5	n/a	n/a	n/a	15	13	9	1	3
2263832	PROB	n/a	LTP301	ltpFR2	5	n/a	n/a	n/a	15	12	9	5	1
2269616	STOP	n/a	LTP301	ltpFR2	5	n/a	n/a	n/a	15	n/a	n/a	n/a	n/a
2270470	WORD	wordpools/wasnorm_wordpool_576.txt	LTP301	ltpFR2	5	11	STOVE	1388	n/a	n/a	0	0	0
2273172	WORD	wordpools/wasnorm_wordpool_576.txt	LTP301	ltpFR2	5	11	TROMBONE	1508	n/a	n/a	0	0	0
2275709	WORD	wordpools/wasnorm_wordpool_576.txt	LTP301	ltpFR2	5	11	MISTER	901	n/a	n/a	0	0	0
2278243	WORD	wordpools/wasnorm_wordpool_576.txt	LTP301	ltpFR2	5	11	COBRA	336	n/a	n/a	0	0	0
2280880	WORD	wordpools/wasnorm_wordpool_576.txt	LTP301	ltpFR2	5	11	LEG	809	n/a	n/a	0	0	0
2283665	WORD	wordpools/wasnorm_wordpool_576.txt	LTP301	ltpFR2	5	11	TWEEZERS	1526	n/a	n/a	0	0	0
2286433	WORD	wordpools/wasnorm_wordpool_576.txt	LTP301	ltpFR2	5	11	CLAMP	316	n/a	n/a	0	0	0
2289086	WORD	wordpools/wasnorm_wordpool_576.txt	LTP301	ltpFR2	5	11	SNAKE	1333	n/a	n/a	0	0	0
2291756	WORD	wordpools/wasnorm_wordpool_576.txt	LTP301	ltpFR2	5	11	MESSAGE	888	n/a	n/a	0	0	0
2294290	WORD	wordpools/wasnorm_wordpool_576.txt	LTP301	ltpFR2	5	11	CAFE	216	n/a	n/a	0	0	0
2297076	WORD	wordpools/wasnorm_wordpool_576.txt	LTP301	ltpFR2	5	11	PECAN	1036	n/a	n/a	0	0	0
2299528	WORD	wordpools/wasnorm_wordpool_576.txt	LTP301	ltpFR2	5	11	CUSTARD	429	n/a	n/a	0	0	0
2302030	WORD	wordpools/wasnorm_wordpool_576.txt	LTP301	ltpFR2	5	11	CRIB	407	n/a	n/a	0	0	0
2304850	WORD	wordpools/wasnorm_wordpool_576.txt	LTP301	ltpFR2	5	11	BLOCKADE	137	n/a	n/a	0	0	0
2307384	WORD	wordpools/wasnorm_wordpool_576.txt	LTP301	ltpFR2	5	11	SCOTCH	1251	n/a	n/a	0	0	0
2310120	WORD	wordpools/wasnorm_wordpool_576.txt	LTP301	ltpFR2	5	11	SHIRT	1287	n/a	n/a	0	0	0
2312673	WORD	wordpools/wasnorm_wordpool_576.txt	LTP301	ltpFR2	5	11	HORSE	719	n/a	n/a	0	0	0
2315157	WORD	wordpools/wasnorm_wordpool_576.txt	LTP301	ltpFR2	5	11	SADDLE	1221	n/a	n/a	0	0	0
2317694	WORD	wordpools/wasnorm_wordpool_576.txt	LTP301	ltpFR2	5	11	LETTUCE	814	n/a	n/a	0	0	0
2320228	WORD	wordpools/wasnorm_wordpool_576.txt	LTP301	ltpFR2	5	11	POSTAGE	1113	n/a	n/a	0	0	0
2322681	WORD	wordpools/wasnorm_wordpool_576.txt	LTP301	ltpFR2	5	11	COD	340	n/a	n/a	0	0	0
2325332	WORD	wordpools/wasnorm_wordpool_576.txt	LTP301	ltpFR2	5	11	SCALLOP	1242	n/a	n/a	0	0	0
2328051	WORD	wordpools/wasnorm_wordpool_576.txt	LTP301	ltpFR2	5	11	CRICKET	408	n/a	n/a	0	0	0
2330587	WORD	wordpools/wasnorm_wordpool_576.txt	LTP301	ltpFR2	5	11	VAGRANT	1544	n/a	n/a	0	0	0
2332205	START	n/a	LTP301	ltpFR2	5	n/a	n/a	n/a	16	n/a	n/a	n/a	n/a
2333199	DISTRACTOR	n/a	LTP301	ltpFR2	5	11	n/a	n/a	n/a	n/a	0	0	0
2333222	PROB	n/a	LTP301	ltpFR2	5	n/a	n/a	n/a	16	16	2	8	4
2336308	PROB	n/a	LTP301	ltpFR2	5	n/a	n/a	n/a	16	11	7	1	3
2339294	PROB	n/a	LTP301	ltpFR2	5	n/a	n/a	n/a	16	10	1	1	8
2340729	PROB	n/a	LTP301	ltpFR2	5	n/a	n/a	n/a	16	20	5	8	7
2345717	PROB	n/a	LTP301	ltpFR2	5	n/a	n/a	n/a	16	16	5	2	9
2349119	PROB	n/a	LTP301	ltpFR2	5	n/a	n/a	n/a	16	13	3	8	2
2350838	PROB	n/a	LTP301	ltpFR2	5	n/a	n/a	n/a	16	17	2	6	9
2356205	STOP	n/a	LTP301	ltpFR2	5	n/a	n/a	n/a	16	n/a	n/a	n/a	n/a
2358027	REC_START	n/a	LTP301	ltpFR2	5	11	n/a	n/a	n/a	n/a	0	0	0
2359383	REC_WORD	wordpools/wasnorm_wordpool_576.txt	LTP301	ltpFR2	5	11	POSTAGE	1113	n/a	n/a	0	0	0
2362123	REC_WORD	wordpools/wasnorm_wordpool_576.txt	LTP301	ltpFR2	5	11	LEG	809	n/a	n/a	0	0	0
2366558	REC_WORD	wordpools/wasnorm_wordpool_576.txt	LTP301	ltpFR2	5	11	STOVE	1388	n/a	n/a	0	0	0
2372523	REC_WORD	wordpools/wasnorm_wordpool_576.txt	LTP301	ltpFR2	5	11	TROMBONE	1508	n/a	n/a	0	0	0
2377763	REC_WORD	wordpools/wasnorm_wordpool_576.txt	LTP301	ltpFR2	5	11	CUSTARD	429	n/a	n/a	0	0	0
2448703	WORD	wordpools/wasnorm_wordpool_576.txt	LTP301	ltpFR2	5	12	CHAMPAGNE	278	n/a	n/a	0	0	0
2451471	WORD	wordpools/wasnorm_wordpool_576.txt	LTP301	ltpFR2	5	12	CLOTHES	327	n/a	n/a	0	0	0
2454190	WORD	wordpools/wasnorm_wordpool_576.txt	LTP301	ltpFR2	5	12	TRANSPLANT	1496	n/a	n/a	0	0	0
2456976	WORD	wordpools/wasnorm_wordpool_576.txt	LTP301	ltpFR2	5	12	FRECKLE	602	n/a	n/a	0	0	0
2459494	WORD	wordpools/wasnorm_wordpool_576.txt	LTP301	ltpFR2	5	12	SLIDE	1326	n/a	n/a	0	0	0
2462163	WORD	wordpools/wasnorm_wordpool_576.txt	LTP301	ltpFR2	5	12	LIZARD	834	n/a	n/a	0	0	0
2464683	WORD	wordpools/wasnorm_wordpool_576.txt	LTP301	ltpFR2	5	12	BUCKET	184	n/a	n/a	0	0	0
2467234	WORD	wordpools/wasnorm_wordpool_576.txt	LTP301	ltpFR2	5	12	LAKE	796	n/a	n/a	0	0	0
2470003	WORD	wordpools/wasnorm_wordpool_576.txt	LTP301	ltpFR2	5	12	STONE	1385	n/a	n/a	0	0	0
2472471	WORD	wordpools/wasnorm_wordpool_576.txt	LTP301	ltpFR2	5	12	WORLD	1622	n/a	n/a	0	0	0
2474958	WORD	wordpools/wasnorm_wordpool_576.txt	LTP301	ltpFR2	5	12	FLOWER	584	n/a	n/a	0	0	0
2477442	WORD	wordpools/wasnorm_wordpool_576.txt	LTP301	ltpFR2	5	12	WIDOW	1608	n/a	n/a	0	0	0
2480061	WORD	wordpools/wasnorm_wordpool_576.txt	LTP301	ltpFR2	5	12	WRENCH	1625	n/a	n/a	0	0	0
2482613	WORD	wordpools/wasnorm_wordpool_576.txt	LTP301	ltpFR2	5	12	PIMPLE	1071	n/a	n/a	0	0	0
2485432	WORD	wordpools/wasnorm_wordpool_576.txt	LTP301	ltpFR2	5	12	EXPERT	543	n/a	n/a	0	0	0
2487952	WORD	wordpools/wasnorm_wordpool_576.txt	LTP301	ltpFR2	5	12	SLUG	1329	n/a	n/a	0	0	0
2490420	WORD	wordpools/wasnorm_wordpool_576.txt	LTP301	ltpFR2	5	12	SWORD	1423	n/a	n/a	0	0	0
2492873	WORD	wordpools/wasnorm_wordpool_576.txt	LTP301	ltpFR2	5	12	PREACHER	1119	n/a	n/a	0	0	0
2495557	WORD	wordpools/wasnorm_wordpool_576.txt	LTP301	ltpFR2	5	12	HEDGE	699	n/a	n/a	0	0	0
2498310	WORD	wordpools/wasnorm_wordpool_576.txt	LTP301	ltpFR2	5	12	ATLAS	53	n/a	n/a	0	0	0
2500813	WORD	wordpools/wasnorm_wordpool_576.txt	LTP301	ltpFR2	5	12	PLAID	1080	n/a	n/a	0	0	0
2503381	WORD	wordpools/wasnorm_wordpool_576.txt	LTP301	ltpFR2	5	12	ZIPPER	1636	n/a	n/a	0	0	0
2505967	WORD	wordpools/wasnorm_wordpool_576.txt	LTP301	ltpFR2	5	12	AIRPLANE	12	n/a	n/a	0	0	0
2508786	WORD	wordpools/wasnorm_wordpool_576.txt	LTP301	ltpFR2	5	12	PENGUIN	1044	n/a	n/a	0	0	0
2510403	START	n/a	LTP301	ltpFR2	5	n/a	n/a	n/a	17	n/a	n/a	n/a	n/a
2511370	DISTRACTOR	n/a	LTP301	ltpFR2	5	12	n/a	n/a	n/a	n/a	0	0	0
2511387	PROB	n/a	LTP301	ltpFR2	5	n/a	n/a	n/a	17	18	8	9	1
2514540	PROB	n/a	LTP301	ltpFR2	5	n/a	n/a	n/a	17	17	2	8	7
2517426	PROB	n/a	LTP301	ltpFR2	5	n/a	n/a	n/a	17	19	9	5	5
2519845	PROB	n/a	LTP301	ltpFR2	5	n/a	n/a	n/a	17	16	5	2	9
2525165	PROB	n/a	LTP301	ltpFR2	5	n/a	n/a	n/a	17	13	4	4	5
2529169	PROB	n/a	LTP301	ltpFR2	5	n/a	n/a	n/a	17	14	6	6	2
2531237	PROB	n/a	LTP301	ltpFR2	5	n/a	n/a	n/a	17	11	3	4	4
2533483	STOP	n/a	LTP301	ltpFR2	5	n/a	n/a	n/a	17	n/a	n/a	n/a	n/a
2536358	REC_START	n/a	LTP301	ltpFR2	5	12	n/a	n/a	n/a	n/a	0	0	0
2539472	REC_WORD	wordpools/wasnorm_wordpool_576.txt	LTP301	ltpFR2	5	12	ZIPPER	1636	n/a	n/a	0	0	0
2540786	REC_WORD	wordpools/wasnorm_wordpool_576.txt	LTP301	ltpFR2	5	12	HEDGE	699	n/a	n/a	0	0	0
2547257	REC_WORD	wordpools/wasnorm_wordpool_576.txt	LTP301	ltpFR2	5	12	CHAMPAGNE	278	n/a	n/a	0	0	0
2550511	REC_WORD	wordpools/wasnorm_wordpool_576.txt	LTP301	ltpFR2	5	12	ROUGE	1213	n/a	n/a	0	0	0
2627000	WORD	wordpools/wasnorm_wordpool_576.txt	LTP301	ltpFR2	5	13	BASEMENT	94	n/a	n/a	0	0	0
2629653	WORD	wordpools/wasnorm_wordpool_576.txt	LTP301	ltpFR2	5	13	PICTURE	1061	n/a	n/a	0	0	0
2632455	WORD	wordpools/wasnorm_wordpool_576.txt	LTP301	ltpFR2	5	13	CHEMIST	292	n/a	n/a	0	0	0
2635240	WORD	wordpools/wasnorm_wordpool_576.txt	LTP301	ltpFR2	5	13	COURSE	390	n/a	n/a	0	0	0
2637810	WORD	wordpools/wasnorm_wordpool_576.txt	LTP301	ltpFR2	5	13	HOUND	724	n/a	n/a	0	0	0
2640278	WORD	wordpools/wasnorm_wordpool_576.txt	LTP301	ltpFR2	5	13	WASP	1593	n/a	n/a	0	0	0
2642998	WORD	wordpools/wasnorm_wordpool_576.txt	LTP301	ltpFR2	5	13	PIANO	1057	n/a	n/a	0	0	0
2645800	WORD	wordpools/wasnorm_wordpool_576.txt	LTP301	ltpFR2	5	13	PEBBLE	1035	n/a	n/a	0	0	0
2648318	WORD	wordpools/wasnorm_wordpool_576.txt	LTP301	ltpFR2	5	13	CONVICT	371	n/a	n/a	0	0	0
2650771	WORD	wordpools/wasnorm_wordpool_576.txt	LTP301	ltpFR2	5	13	INMATE	738	n/a	n/a	0	0	0
2653572	WORD	wordpools/wasnorm_wordpool_576.txt	LTP301	ltpFR2	5	13	SOFTBALL	1343	n/a	n/a	0	0	0
2656374	WORD	wordpools/wasnorm_wordpool_576.txt	LTP301	ltpFR2	5	13	JOURNAL	760	n/a	n/a	0	0	0
2659177	WORD	wordpools/wasnorm_wordpool_576.txt	LTP301	ltpFR2	5	13	PISTOL	1075	n/a	n/a	0	0	0
2661730	WORD	wordpools/wasnorm_wordpool_576.txt	LTP301	ltpFR2	5	13	STAPLE	1371	n/a	n/a	0	0	0
2664198	WORD	wordpools/wasnorm_wordpool_576.txt	LTP301	ltpFR2	5	13	TABLET	1427	n/a	n/a	0	0	0
2667033	WORD	wordpools/wasnorm_wordpool_576.txt	LTP301	ltpFR2	5	13	SURVEY	1414	n/a	n/a	0	0	0
2669602	WORD	wordpools/wasnorm_wordpool_576.txt	LTP301	ltpFR2	5	13	SHERIFF	1284	n/a	n/a	0	0	0
2672271	WORD	wordpools/wasnorm_wordpool_576.txt	LTP301	ltpFR2	5	13	TUBA	1515	n/a	n/a	0	0	0
2674858	WORD	wordpools/wasnorm_wordpool_576.txt	LTP301	ltpFR2	5	13	NOTEBOOK	959	n/a	n/a	0	0	0
2677575	WORD	wordpools/wasnorm_wordpool_576.txt	LTP301	ltpFR2	5	13	NAPKIN	937	n/a	n/a	0	0	0
2680044	WORD	wordpools/wasnorm_wordpool_576.txt	LTP301	ltpFR2	5	13	MUSTARD	935	n/a	n/a	0	0	0
2682513	WORD	wordpools/wasnorm_wordpool_576.txt	LTP301	ltpFR2	5	13	CLOCK	325	n/a	n/a	0	0	0
2684983	WORD	wordpools/wasnorm_wordpool_576.txt	LTP301	ltpFR2	5	13	RATTLE	1170	n/a	n/a	0	0	0
2687785	WORD	wordpools/wasnorm_wordpool_576.txt	LTP301	ltpFR2	5	13	LOFT	840	n/a	n/a	0	0	0
2689402	START	n/a	LTP301	ltpFR2	5	n/a	n/a	n/a	18	n/a	n/a	n/a	n/a
2690419	DISTRACTOR	n/a	LTP301	ltpFR2	5	13	n/a	n/a	n/a	n/a	0	0	0
2690436	PROB	n/a	LTP301	ltpFR2	5	n/a	n/a	n/a	18	20	8	8	4
2693455	PROB	n/a	LTP301	ltpFR2	5	n/a	n/a	n/a	18	20	8	6	6
2695892	PROB	n/a	LTP301	ltpFR2	5	n/a	n/a	n/a	18	13	5	5	3
2697509	PROB	n/a	LTP301	ltpFR2	5	n/a	n/a	n/a	18	8	1	2	5
2700111	PROB	n/a	LTP301	ltpFR2	5	n/a	n/a	n/a	18	18	1	9	8
2704264	PROB	n/a	LTP301	ltpFR2	5	n/a	n/a	n/a	18	22	5	9	7
2711996	STOP	n/a	LTP301	ltpFR2	5	n/a	n/a	n/a	18	n/a	n/a	n/a	n/a
2715341	REC_START	n/a	LTP301	ltpFR2	5	13	n/a	n/a	n/a	n/a	0	0	0
2716962	REC_WORD	wordpools/wasnorm_wordpool_576.txt	LTP301	ltpFR2	5	13	RATTLE	1170	n/a	n/a	0	0	0
2718114	REC_WORD	wordpools/wasnorm_wordpool_576.txt	LTP301	ltpFR2	5	13	LIPSTICK	829	n/a	n/a	0	0	0
2719411	REC_WORD	wordpools/wasnorm_wordpool_576.txt	LTP301	ltpFR2	5	13	BASEMENT	94	n/a	n/a	0	0	0
2720955	REC_WORD	wordpools/wasnorm_wordpool_576.txt	LTP301	ltpFR2	5	13	CONVICT	371	n/a	n/a	0	0	0
2722399	REC_WORD	wordpools/wasnorm_wordpool_576.txt	LTP301	ltpFR2	5	13	INMATE	738	n/a	n/a	0	0	0
2763387	REC_WORD	wordpools/wasnorm_wordpool_576.txt	LTP301	ltpFR2	5	13	IGLOO	734	n/a	n/a	0	0	0
2854957	WORD	wordpools/wasnorm_wordpool_576.txt	LTP301	ltpFR2	5	14	CLAM	315	n/a	n/a	0	0	0
2857592	WORD	wordpools/wasnorm_wordpool_576.txt	LTP301	ltpFR2	5	14	OYSTER	995	n/a	n/a	0	0	0
2860077	WORD	wordpools/wasnorm_wordpool_576.txt	LTP301	ltpFR2	5	14	MARKER	870	n/a	n/a	0	0	0
2862730	WORD	wordpools/wasnorm_wordpool_576.txt	LTP301	ltpFR2	5	14	VELVET	1555	n/a	n/a	0	0	0
2865315	WORD	wordpools/wasnorm_wordpool_576.txt	LTP301	ltpFR2	5	14	BULLET	194	n/a	n/a	0	0	0
2867968	WORD	wordpools/wasnorm_wordpool_576.txt	LTP301	ltpFR2	5	14	MARS	873	n/a	n/a	0	0	0
2870704	WORD	wordpools/wasnorm_wordpool_576.txt	LTP301	ltpFR2	5	14	MARSH	874	n/a	n/a	0	0	0
2873171	WORD	wordpools/wasnorm_wordpool_576.txt	LTP301	ltpFR2	5	14	MONSTER	912	n/a	n/a	0	0	0
2875708	WORD	wordpools/wasnorm_wordpool_576.txt	LTP301	ltpFR2	5	14	GANGSTER	620	n/a	n/a	0	0	0
2878526	WORD	wordpools/wasnorm_wordpool_576.txt	LTP301	ltpFR2	5	14	HERO	706	n/a	n/a	0	0	0
2881178	WORD	wordpools/wasnorm_wordpool_576.txt	LTP301	ltpFR2	5	14	ACTOR	5	n/a	n/a	0	0	0
2883765	WORD	wordpools/wasnorm_wordpool_576.txt	LTP301	ltpFR2	5	14	SERVER	1272	n/a	n/a	0	0	0
2886232	WORD	wordpools/wasnorm_wordpool_576.txt	LTP301	ltpFR2	5	14	CUPBOARD	425	n/a	n/a	0	0	0
2888719	WORD	wordpools/wasnorm_wordpool_576.txt	LTP301	ltpFR2	5	14	SNACK	1331	n/a	n/a	0	0	0
2891286	WORD	wordpools/wasnorm_wordpool_576.txt	LTP301	ltpFR2	5	14	PICNIC	1060	n/a	n/a	0	0	0
2894105	WORD	wordpools/wasnorm_wordpool_576.txt	LTP301	ltpFR2	5	14	PLUTO	1092	n/a	n/a	0	0	0
2896892	WORD	wordpools/wasnorm_wordpool_576.txt	LTP301	ltpFR2	5	14	JUGGLER	763	n/a	n/a	0	0	0
2899360	WORD	wordpools/wasnorm_wordpool_576.txt	LTP301	ltpFR2	5	14	DOLPHIN	483	n/a	n/a	0	0	0
2901913	WORD	wordpools/wasnorm_wordpool_576.txt	LTP301	ltpFR2	5	14	OUTFIT	988	n/a	n/a	0	0	0
2904531	WORD	wordpools/wasnorm_wordpool_576.txt	LTP301	ltpFR2	5	14	COWBOY	395	n/a	n/a	0	0	0
2907316	WORD	wordpools/wasnorm_wordpool_576.txt	LTP301	ltpFR2	5	14	DRINK	498	n/a	n/a	0	0	0
2910135	WORD	wordpools/wasnorm_wordpool_576.txt	LTP301	ltpFR2	5	14	BARREL	91	n/a	n/a	0	0	0
2912587	WORD	wordpools/wasnorm_wordpool_576.txt	LTP301	ltpFR2	5	14	VENUS	1557	n/a	n/a	0	0	0
2915407	WORD	wordpools/wasnorm_wordpool_576.txt	LTP301	ltpFR2	5	14	CREVICE	405	n/a	n/a	0	0	0
2917025	START	n/a	LTP301	ltpFR2	5	n/a	n/a	n/a	19	n/a	n/a	n/a	n/a
2918217	DISTRACTOR	n/a	LTP301	ltpFR2	5	14	n/a	n/a	n/a	n/a	0	0	0
2918242	PROB	n/a	LTP301	ltpFR2	5	n/a	n/a	n/a	19	15	5	9	1
2921211	PROB	n/a	LTP301	ltpFR2	5	n/a	n/a	n/a	19	16	8	4	4
2924414	PROB	n/a	LTP301	ltpFR2	5	n/a	n/a	n/a	19	16	4	7	5
2927684	PROB	n/a	LTP301	ltpFR2	5	n/a	n/a	n/a	19	17	4	6	7
2930336	PROB	n/a	LTP301	ltpFR2	5	n/a	n/a	n/a	19	20	5	8	7
2934339	PROB	n/a	LTP301	ltpFR2	5	n/a	n/a	n/a	19	18	4	9	5
2937091	PROB	n/a	LTP301	ltpFR2	5	n/a	n/a	n/a	19	14	5	5	4
2941011	STOP	n/a	LTP301	ltpFR2	5	n/a	n/a	n/a	19	n/a	n/a	n/a	n/a
2942914	REC_START	n/a	LTP301	ltpFR2	5	14	n/a	n/a	n/a	n/a	0	0	0
2946227	REC_WORD	wordpools/wasnorm_wordpool_576.txt	LTP301	ltpFR2	5	14	CREVICE	405	n/a	n/a	0	0	0
2950680	REC_WORD	wordpools/wasnorm_wordpool_576.txt	LTP301	ltpFR2	5	14	PLUTO	1092	n/a	n/a	0	0	0
2951867	REC_WORD	wordpools/wasnorm_wordpool_576.txt	LTP301	ltpFR2	5	14	MARS	873	n/a	n/a	0	0	0
2953585	REC_WORD	wordpools/wasnorm_wordpool_576.txt	LTP301	ltpFR2	5	14	VENUS	1557	n/a	n/a	0	0	0
2955113	REC_WORD	wordpools/wasnorm_wordpool_576.txt	LTP301	ltpFR2	5	14	CLAM	315	n/a	n/a	0	0	0
2956649	REC_WORD	wordpools/wasnorm_wordpool_576.txt	LTP301	ltpFR2	5	14	OYSTER	995	n/a	n/a	0	0	0
2966551	REC_WORD	wordpools/wasnorm_wordpool_576.txt	LTP301	ltpFR2	5	14	GANGSTER	620	n/a	n/a	0	0	0
2968067	REC_WORD	wordpools/wasnorm_wordpool_576.txt	LTP301	ltpFR2	5	14	MONSTER	912	n/a	n/a	0	0	0
2971228	REC_WORD	wordpools/wasnorm_wordpool_576.txt	LTP301	ltpFR2	5	14	FARMER	553	n/a	n/a	0	0	0
2972260	REC_WORD	wordpools/wasnorm_wordpool_576.txt	LTP301	ltpFR2	5	14	TRACTOR	1493	n/a	n/a	0	0	0
3033371	DISTRACTOR	n/a	LTP301	ltpFR2	5	15	n/a	n/a	n/a	n/a	0	0	0
3033371	START	n/a	LTP301	ltpFR2	5	n/a	n/a	n/a	20	n/a	n/a	n/a	n/a
3033388	PROB	n/a	LTP301	ltpFR2	5	n/a	n/a	n/a	20	21	3	9	9
3035240	PROB	n/a	LTP301	ltpFR2	5	n/a	n/a	n/a	20	12	1	3	8
3037793	PROB	n/a	LTP301	ltpFR2	5	n/a	n/a	n/a	20	8	1	2	5
3039861	PROB	n/a	LTP301	ltpFR2	5	n/a	n/a	n/a	20	7	5	1	1
3041663	PROB	n/a	LTP301	ltpFR2	5	n/a	n/a	n/a	20	15	9	2	4
3044364	PROB	n/a	LTP301	ltpFR2	5	n/a	n/a	n/a	20	12	5	6	1
3047667	PROB	n/a	LTP301	ltpFR2	5	n/a	n/a	n/a	20	12	6	1	5
3049602	PROB	n/a	LTP301	ltpFR2	5	n/a	n/a	n/a	20	17	3	7	7
3052003	PROB	n/a	LTP301	ltpFR2	5	n/a	n/a	n/a	20	17	8	4	7
3057371	STOP	n/a	LTP301	ltpFR2	5	n/a	n/a	n/a	20	n/a	n/a	n/a	n/a
3058476	WORD	wordpools/wasnorm_wordpool_576.txt	LTP301	ltpFR2	5	15	BUREAU	199	n/a	n/a	0	0	0
3060929	WORD	wordpools/wasnorm_wordpool_576.txt	LTP301	ltpFR2	5	15	GALLON	618	n/a	n/a	0	0	0
3063546	WORD	wordpools/wasnorm_wordpool_576.txt	LTP301	ltpFR2	5	15	TYPIST	1532	n/a	n/a	0	0	0
3066099	WORD	wordpools/wasnorm_wordpool_576.txt	LTP301	ltpFR2	5	15	MOTEL	919	n/a	n/a	0	0	0
3068902	WORD	wordpools/wasnorm_wordpool_576.txt	LTP301	ltpFR2	5	15	FLUTE	585	n/a	n/a	0	0	0
3071386	WORD	wordpools/wasnorm_wordpool_576.txt	LTP301	ltpFR2	5	15	RECORD	1176	n/a	n/a	0	0	0
3073939	WORD	wordpools/wasnorm_wordpool_576.txt	LTP301	ltpFR2	5	15	TRENCH	1503	n/a	n/a	0	0	0
3076725	WORD	wordpools/wasnorm_wordpool_576.txt	LTP301	ltpFR2	5	15	CANAL	226	n/a	n/a	0	0	0
3079293	WORD	wordpools/wasnorm_wordpool_576.txt	LTP301	ltpFR2	5	15	SUPPER	1411	n/a	n/a	0	0	0
3082112	WORD	wordpools/wasnorm_wordpool_576.txt	LTP301	ltpFR2	5	15	TREAT	1501	n/a	n/a	0	0	0
3084715	WORD	wordpools/wasnorm_wordpool_576.txt	LTP301	ltpFR2	5	15	BLOUSE	139	n/a	n/a	0	0	0
3087266	WORD	wordpools/wasnorm_wordpool_576.txt	LTP301	ltpFR2	5	15	DENIM	446	n/a	n/a	0	0	0
3089903	WORD	wordpools/wasnorm_wordpool_576.txt	LTP301	ltpFR2	5	15	CASHEW	253	n/a	n/a	0	0	0
3092537	WORD	wordpools/wasnorm_wordpool_576.txt	LTP301	ltpFR2	5	15	PIZZA	1079	n/a	n/a	0	0	0
3095340	WORD	wordpools/wasnorm_wordpool_576.txt	LTP301	ltpFR2	5	15	SHELTER	1282	n/a	n/a	0	0	0
3097943	WORD	wordpools/wasnorm_wordpool_576.txt	LTP301	ltpFR2	5	15	TOURIST	1488	n/a	n/a	0	0	0
3100544	WORD	wordpools/wasnorm_wordpool_576.txt	LTP301	ltpFR2	5	15	BUG	187	n/a	n/a	0	0	0
3103062	WORD	wordpools/wasnorm_wordpool_576.txt	LTP301	ltpFR2	5	15	HANDBAG	684	n/a	n/a	0	0	0
3105849	WORD	wordpools/wasnorm_wordpool_576.txt	LTP301	ltpFR2	5	15	NOVEL	960	n/a	n/a	0	0	0
3108417	WORD	wordpools/wasnorm_wordpool_576.txt	LTP301	ltpFR2	5	15	JEANS	752	n/a	n/a	0	0	0
3110970	WORD	wordpools/wasnorm_wordpool_576.txt	LTP301	ltpFR2	5	15	TURKEY	1520	n/a	n/a	0	0	0
3113455	WORD	wordpools/wasnorm_wordpool_576.txt	LTP301	ltpFR2	5	15	ROBOT	1200	n/a	n/a	0	0	0
3116123	WORD	wordpools/wasnorm_wordpool_576.txt	LTP301	ltpFR2	5	15	DRESSER	496	n/a	n/a	0	0	0
3118643	WORD	wordpools/wasnorm_wordpool_576.txt	LTP301	ltpFR2	5	15	ISLAND	745	n/a	n/a	0	0	0
3120260	START	n/a	LTP301	ltpFR2	5	n/a	n/a	n/a	21	n/a	n/a	n/a	n/a
3121173	DISTRACTOR	n/a	LTP301	ltpFR2	5	15	n/a	n/a	n/a	n/a	0	0	0
3121194	PROB	n/a	LTP301	ltpFR2	5	n/a	n/a	n/a	21	18	8	2	8
3125766	PROB	n/a	LTP301	ltpFR2	5	n/a	n/a	n/a	21	16	5	9	2
3130085	PROB	n/a	LTP301	ltpFR2	5	n/a	n/a	n/a	21	10	3	2	5
3134038	PROB	n/a	LTP301	ltpFR2	5	n/a	n/a	n/a	21	15	8	2	5
3136357	PROB	n/a	LTP301	ltpFR2	5	n/a	n/a	n/a	21	7	2	3	2
3139576	PROB	n/a	LTP301	ltpFR2	5	n/a	n/a	n/a	21	3	1	1	1
3140728	PROB	n/a	LTP301	ltpFR2	5	n/a	n/a	n/a	21	10	6	1	3
3142812	STOP	n/a	LTP301	ltpFR2	5	n/a	n/a	n/a	21	n/a	n/a	n/a	n/a
3146216	REC_START	n/a	LTP301	ltpFR2	5	15	n/a	n/a	n/a	n/a	0	0	0
3148713	REC_WORD	wordpools/wasnorm_wordpool_576.txt	LTP301	ltpFR2	5	15	DRESSER	496	n/a	n/a	0	0	0
3149577	REC_WORD	wordpools/wasnorm_wordpool_576.txt	LTP301	ltpFR2	5	15	CLOTHES	327	n/a	n/a	0	0	0
3154397	REC_WORD	wordpools/wasnorm_wordpool_576.txt	LTP301	ltpFR2	5	15	CURTAIN	427	n/a	n/a	0	0	0
3175716	REC_WORD	wordpools/wasnorm_wordpool_576.txt	LTP301	ltpFR2	5	15	BUREAU	199	n/a	n/a	0	0	0
3211909	REC_WORD	wordpools/wasnorm_wordpool_576.txt	LTP301	ltpFR2	5	15	HERO	706	n/a	n/a	0	0	0
3236675	DISTRACTOR	n/a	LTP301	ltpFR2	5	16	n/a	n/a	n/a	n/a	0	0	0
3236675	START	n/a	LTP301	ltpFR2	5	n/a	n/a	n/a	22	n/a	n/a	n/a	n/a
3236691	PROB	n/a	LTP301	ltpFR2	5	n/a	n/a	n/a	22	24	7	8	9
3239326	PROB	n/a	LTP301	ltpFR2	5	n/a	n/a	n/a	22	21	8	9	4
3244948	PROB	n/a	LTP301	ltpFR2	5	n/a	n/a	n/a	22	18	7	8	3
3247917	PROB	n/a	LTP301	ltpFR2	5	n/a	n/a	n/a	22	21	6	6	7
3252303	PROB	n/a	LTP301	ltpFR2	5	n/a	n/a	n/a	22	12	2	5	5
3254539	PROB	n/a	LTP301	ltpFR2	5	n/a	n/a	n/a	22	12	4	2	6
3257574	PROB	n/a	LTP301	ltpFR2	5	n/a	n/a	n/a	22	12	3	5	4
3260556	STOP	n/a	LTP301	ltpFR2	5	n/a	n/a	n/a	22	n/a	n/a	n/a	n/a
3261679	WORD	wordpools/wasnorm_wordpool_576.txt	LTP301	ltpFR2	5	16	BRICK	172	n/a	n/a	0	0	0
3264330	WORD	wordpools/wasnorm_wordpool_576.txt	LTP301	ltpFR2	5	16	COUNTRY	388	n/a	n/a	0	0	0
3267000	WORD	wordpools/wasnorm_wordpool_576.txt	LTP301	ltpFR2	5	16	BOUQUET	157	n/a	n/a	0	0	0
3269584	WORD	wordpools/wasnorm_wordpool_576.txt	LTP301	ltpFR2	5	16	CANYON	235	n/a	n/a	0	0	0
3272036	WORD	wordpools/wasnorm_wordpool_576.txt	LTP301	ltpFR2	5	16	BLADE	134	n/a	n/a	0	0	0
3274623	WORD	wordpools/wasnorm_wordpool_576.txt	LTP301	ltpFR2	5	16	SCALPEL	1243	n/a	n/a	0	0	0
3277424	WORD	wordpools/wasnorm_wordpool_576.txt	LTP301	ltpFR2	5	16	FRANCE	601	n/a	n/a	0	0	0
3280060	WORD	wordpools/wasnorm_wordpool_576.txt	LTP301	ltpFR2	5	16	BARLEY	88	n/a	n/a	0	0	0
3282896	WORD	wordpools/wasnorm_wordpool_576.txt	LTP301	ltpFR2	5	16	PATROL	1027	n/a	n/a	0	0	0
3285665	WORD	wordpools/wasnorm_wordpool_576.txt	LTP301	ltpFR2	5	16	TABLE	1426	n/a	n/a	0	0	0
3288267	WORD	wordpools/wasnorm_wordpool_576.txt	LTP301	ltpFR2	5	16	FIREPLACE	570	n/a	n/a	0	0	0
3291086	WORD	wordpools/wasnorm_wordpool_576.txt	LTP301	ltpFR2	5	16	TART	1436	n/a	n/a	0	0	0
3293538	WORD	wordpools/wasnorm_wordpool_576.txt	LTP301	ltpFR2	5	16	ANKLE	24	n/a	n/a	0	0	0
3296357	WORD	wordpools/wasnorm_wordpool_576.txt	LTP301	ltpFR2	5	16	RAFT	1159	n/a	n/a	0	0	0
3299176	WORD	wordpools/wasnorm_wordpool_576.txt	LTP301	ltpFR2	5	16	HIGHWAY	707	n/a	n/a	0	0	0
3301946	WORD	wordpools/wasnorm_wordpool_576.txt	LTP301	ltpFR2	5	16	SIDEWALK	1303	n/a	n/a	0	0	0
3304648	WORD	wordpools/wasnorm_wordpool_576.txt	LTP301	ltpFR2	5	16	BOX	159	n/a	n/a	0	0	0
3307232	WORD	wordpools/wasnorm_wordpool_576.txt	LTP301	ltpFR2	5	16	LUNCH	849	n/a	n/a	0	0	0
3309719	WORD	wordpools/wasnorm_wordpool_576.txt	LTP301	ltpFR2	5	16	GUARD	667	n/a	n/a	0	0	0
3312470	WORD	wordpools/wasnorm_wordpool_576.txt	LTP301	ltpFR2	5	16	MARKET	871	n/a	n/a	0	0	0
3314956	WORD	wordpools/wasnorm_wordpool_576.txt	LTP301	ltpFR2	5	16	PADDLE	1000	n/a	n/a	0	0	0
3317458	WORD	wordpools/wasnorm_wordpool_576.txt	LTP301	ltpFR2	5	16	GRIZZLY	662	n/a	n/a	0	0	0
3320260	WORD	wordpools/wasnorm_wordpool_576.txt	LTP301	ltpFR2	5	16	BRANDY	169	n/a	n/a	0	0	0
3322746	WORD	wordpools/wasnorm_wordpool_576.txt	LTP301	ltpFR2	5	16	GRAVEL	659	n/a	n/a	0	0	0
3324363	START	n/a	LTP301	ltpFR2	5	n/a	n/a	n/a	23	n/a	n/a	n/a	n/a
3325282	DISTRACTOR	n/a	LTP301	ltpFR2	5	16	n/a	n/a	n/a	n/a	0	0	0
3325297	PROB	n/a	LTP301	ltpFR2	5	n/a	n/a	n/a	23	24	9	5	8
3329652	PROB	n/a	LTP301	ltpFR2	5	n/a	n/a	n/a	23	24	7	8	9
3332771	PROB	n/a	LTP301	ltpFR2	5	n/a	n/a	n/a	23	17	8	7	2
3335874	PROB	n/a	LTP301	ltpFR2	5	n/a	n/a	n/a	23	7	1	3	3
3337692	PROB	n/a	LTP301	ltpFR2	5	n/a	n/a	n/a	23	18	8	2	8
3341862	PROB	n/a	LTP301	ltpFR2	5	n/a	n/a	n/a	23	22	4	9	9
3344363	PROB	n/a	LTP301	ltpFR2	5	n/a	n/a	n/a	23	12	9	1	2
3347660	STOP	n/a	LTP301	ltpFR2	5	n/a	n/a	n/a	23	n/a	n/a	n/a	n/a
3350135	REC_START	n/a	LTP301	ltpFR2	5	16	n/a	n/a	n/a	n/a	0	0	0
3353754	REC_WORD	wordpools/wasnorm_wordpool_576.txt	LTP301	ltpFR2	5	16	MARKET	871	n/a	n/a	0	0	0
3355061	REC_WORD	wordpools/wasnorm_wordpool_576.txt	LTP301	ltpFR2	5	16	BOUQUET	157	n/a	n/a	0	0	0
3357664	REC_WORD	wordpools/wasnorm_wordpool_576.txt	LTP301	ltpFR2	5	16	BUILDING	191	n/a	n/a	0	0	0
3364432	REC_WORD	wordpools/wasnorm_wordpool_576.txt	LTP301	ltpFR2	5	16	CONCRETE	361	n/a	n/a	0	0	0
3373179	REC_WORD	wordpools/wasnorm_wordpool_576.txt	LTP301	ltpFR2	5	16	HAWK	692	n/a	n/a	0	0	0
3401204	REC_WORD	wordpools/wasnorm_wordpool_576.txt	LTP301	ltpFR2	5	16	BOX	159	n/a	n/a	0	0	0
3403351	REC_WORD	wordpools/wasnorm_wordpool_576.txt	LTP301	ltpFR2	5	16	BRANDY	169	n/a	n/a	0	0	0
3410321	REC_WORD	wordpools/wasnorm_wordpool_576.txt	LTP301	ltpFR2	5	16	BOUQUET	157	n/a	n/a	0	0	0
3426716	REST_REWET	n/a	LTP301	ltpFR2	5	16	n/a	n/a	n/a	n/a	0	0	0
3568166	WORD	wordpools/wasnorm_wordpool_576.txt	LTP301	ltpFR2	5	17	PERFUME	1049	n/a	n/a	0	0	0
3571002	WORD	wordpools/wasnorm_wordpool_576.txt	LTP301	ltpFR2	5	17	SHORTS	1293	n/a	n/a	0	0	0
3573738	WORD	wordpools/wasnorm_wordpool_576.txt	LTP301	ltpFR2	5	17	LAPEL	800	n/a	n/a	0	0	0
3576440	WORD	wordpools/wasnorm_wordpool_576.txt	LTP301	ltpFR2	5	17	TWISTER	1530	n/a	n/a	0	0	0
3579175	WORD	wordpools/wasnorm_wordpool_576.txt	LTP301	ltpFR2	5	17	OUTDOORS	987	n/a	n/a	0	0	0
3581762	WORD	wordpools/wasnorm_wordpool_576.txt	LTP301	ltpFR2	5	17	SLOPE	1328	n/a	n/a	0	0	0
3584396	WORD	wordpools/wasnorm_wordpool_576.txt	LTP301	ltpFR2	5	17	PUDDLE	1140	n/a	n/a	0	0	0
3586933	WORD	wordpools/wasnorm_wordpool_576.txt	LTP301	ltpFR2	5	17	UNCLE	1536	n/a	n/a	0	0	0
3589567	WORD	wordpools/wasnorm_wordpool_576.txt	LTP301	ltpFR2	5	17	SPOON	1357	n/a	n/a	0	0	0
3592153	WORD	wordpools/wasnorm_wordpool_576.txt	LTP301	ltpFR2	5	17	KNIFE	785	n/a	n/a	0	0	0
3594723	WORD	wordpools/wasnorm_wordpool_576.txt	LTP301	ltpFR2	5	17	TOMBSTONE	1478	n/a	n/a	0	0	0
3597390	WORD	wordpools/wasnorm_wordpool_576.txt	LTP301	ltpFR2	5	17	CROWN	415	n/a	n/a	0	0	0
3599843	WORD	wordpools/wasnorm_wordpool_576.txt	LTP301	ltpFR2	5	17	EYELASH	546	n/a	n/a	0	0	0
3602478	WORD	wordpools/wasnorm_wordpool_576.txt	LTP301	ltpFR2	5	17	CONCERT	360	n/a	n/a	0	0	0
3605230	WORD	wordpools/wasnorm_wordpool_576.txt	LTP301	ltpFR2	5	17	MISSILE	900	n/a	n/a	0	0	0
3607750	WORD	wordpools/wasnorm_wordpool_576.txt	LTP301	ltpFR2	5	17	CURTAIN	427	n/a	n/a	0	0	0
3610201	WORD	wordpools/wasnorm_wordpool_576.txt	LTP301	ltpFR2	5	17	NECKLACE	940	n/a	n/a	0	0	0
3612888	WORD	wordpools/wasnorm_wordpool_576.txt	LTP301	ltpFR2	5	17	WHISTLE	1606	n/a	n/a	0	0	0
3615422	WORD	wordpools/wasnorm_wordpool_576.txt	LTP301	ltpFR2	5	17	CYCLONE	431	n/a	n/a	0	0	0
3618158	WORD	wordpools/wasnorm_wordpool_576.txt	LTP301	ltpFR2	5	17	SMOG	1330	n/a	n/a	0	0	0
3620844	WORD	wordpools/wasnorm_wordpool_576.txt	LTP301	ltpFR2	5	17	CIGAR	308	n/a	n/a	0	0	0
3623462	WORD	wordpools/wasnorm_wordpool_576.txt	LTP301	ltpFR2	5	17	TRIBE	1505	n/a	n/a	0	0	0
3626231	WORD	wordpools/wasnorm_wordpool_576.txt	LTP301	ltpFR2	5	17	SHORTCAKE	1292	n/a	n/a	0	0	0
3628867	WORD	wordpools/wasnorm_wordpool_576.txt	LTP301	ltpFR2	5	17	MEDAL	885	n/a	n/a	0	0	0
3630485	START	n/a	LTP301	ltpFR2	5	n/a	n/a	n/a	24	n/a	n/a	n/a	n/a
3631471	DISTRACTOR	n/a	LTP301	ltpFR2	5	17	n/a	n/a	n/a	n/a	0	0	0
3631502	PROB	n/a	LTP301	ltpFR2	5	n/a	n/a	n/a	24	17	2	6	7
3637357	PROB	n/a	LTP301	ltpFR2	5	n/a	n/a	n/a	24	14	7	6	1
3640326	PROB	n/a	LTP301	ltpFR2	5	n/a	n/a	n/a	24	13	8	1	4
3642729	PROB	n/a	LTP301	ltpFR2	5	n/a	n/a	n/a	24	18	8	4	6
3644764	PROB	n/a	LTP301	ltpFR2	5	n/a	n/a	n/a	24	8	3	3	2
3646849	PROB	n/a	LTP301	ltpFR2	5	n/a	n/a	n/a	24	9	2	1	6
3648968	PROB	n/a	LTP301	ltpFR2	5	n/a	n/a	n/a	24	10	3	1	6
3651937	PROB	n/a	LTP301	ltpFR2	5	n/a	n/a	n/a	24	4	2	1	1
3653379	STOP	n/a	LTP301	ltpFR2	5	n/a	n/a	n/a	24	n/a	n/a	n/a	n/a
3656390	REC_START	n/a	LTP301	ltpFR2	5	17	n/a	n/a	n/a	n/a	0	0	0
3658434	REC_WORD	wordpools/wasnorm_wordpool_576.txt	LTP301	ltpFR2	5	17	TRIBE	1505	n/a	n/a	0	0	0
3659162	REC_WORD	wordpools/wasnorm_wordpool_576.txt	LTP301	ltpFR2	5	17	SHORTCAKE	1292	n/a	n/a	0	0	0
3660276	REC_WORD	wordpools/wasnorm_wordpool_576.txt	LTP301	ltpFR2	5	17	SMOG	1330	n/a	n/a	0	0	0
3663886	REC_WORD	wordpools/wasnorm_wordpool_576.txt	LTP301	ltpFR2	5	17	PADDLE	1000	n/a	n/a	0	0	0
3746866	DISTRACTOR	n/a	LTP301	ltpFR2	5	18	n/a	n/a	n/a	n/a	0	0	0
3746866	START	n/a	LTP301	ltpFR2	5	n/a	n/a	n/a	25	n/a	n/a	n/a	n/a
3746882	PROB	n/a	LTP301	ltpFR2	5	n/a	n/a	n/a	25	1	3	9	5
3751302	PROB	n/a	LTP301	ltpFR2	5	n/a	n/a	n/a	25	18	7	5	6
3755355	PROB	n/a	LTP301	ltpFR2	5	n/a	n/a	n/a	25	14	2	3	9
3758776	PROB	n/a	LTP301	ltpFR2	5	n/a	n/a	n/a	25	22	8	7	7
3762394	PROB	n/a	LTP301	ltpFR2	5	n/a	n/a	n/a	25	19	6	4	9
3765665	PROB	n/a	LTP301	ltpFR2	5	n/a	n/a	n/a	25	11	5	5	1
3767298	PROB	n/a	LTP301	ltpFR2	5	n/a	n/a	n/a	25	9	4	1	4
3770866	STOP	n/a	LTP301	ltpFR2	5	n/a	n/a	n/a	25	n/a	n/a	n/a	n/a
3771753	WORD	wordpools/wasnorm_wordpool_576.txt	LTP301	ltpFR2	5	18	SWAMP	1416	n/a	n/a	0	0	0
3774554	WORD	wordpools/wasnorm_wordpool_576.txt	LTP301	ltpFR2	5	18	SUSPECT	1415	n/a	n/a	0	0	0
3777040	WORD	wordpools/wasnorm_wordpool_576.txt	LTP301	ltpFR2	5	18	RIVER	1194	n/a	n/a	0	0	0
3779626	WORD	wordpools/wasnorm_wordpool_576.txt	LTP301	ltpFR2	5	18	DENTIST	447	n/a	n/a	0	0	0
3782461	WORD	wordpools/wasnorm_wordpool_576.txt	LTP301	ltpFR2	5	18	BACKBONE	66	n/a	n/a	0	0	0
3785146	WORD	wordpools/wasnorm_wordpool_576.txt	LTP301	ltpFR2	5	18	POISON	1096	n/a	n/a	0	0	0
3787716	WORD	wordpools/wasnorm_wordpool_576.txt	LTP301	ltpFR2	5	18	DANCER	437	n/a	n/a	0	0	0
3790234	WORD	wordpools/wasnorm_wordpool_576.txt	LTP301	ltpFR2	5	18	HAND	683	n/a	n/a	0	0	0
3793036	WORD	wordpools/wasnorm_wordpool_576.txt	LTP301	ltpFR2	5	18	FINGER	567	n/a	n/a	0	0	0
3795572	WORD	wordpools/wasnorm_wordpool_576.txt	LTP301	ltpFR2	5	18	PLASTER	1085	n/a	n/a	0	0	0
3798324	WORD	wordpools/wasnorm_wordpool_576.txt	LTP301	ltpFR2	5	18	MAPLE	866	n/a	n/a	0	0	0
3801110	WORD	wordpools/wasnorm_wordpool_576.txt	LTP301	ltpFR2	5	18	SWITCH	1422	n/a	n/a	0	0	0
3803730	WORD	wordpools/wasnorm_wordpool_576.txt	LTP301	ltpFR2	5	18	LAMP	798	n/a	n/a	0	0	0
3806464	WORD	wordpools/wasnorm_wordpool_576.txt	LTP301	ltpFR2	5	18	HEADBAND	696	n/a	n/a	0	0	0
3809000	WORD	wordpools/wasnorm_wordpool_576.txt	LTP301	ltpFR2	5	18	SKETCH	1315	n/a	n/a	0	0	0
3811468	WORD	wordpools/wasnorm_wordpool_576.txt	LTP301	ltpFR2	5	18	BANJO	82	n/a	n/a	0	0	0
3814154	WORD	wordpools/wasnorm_wordpool_576.txt	LTP301	ltpFR2	5	18	POCKET	1093	n/a	n/a	0	0	0
3816724	WORD	wordpools/wasnorm_wordpool_576.txt	LTP301	ltpFR2	5	18	MONEY	908	n/a	n/a	0	0	0
3819342	WORD	wordpools/wasnorm_wordpool_576.txt	LTP301	ltpFR2	5	18	GUITAR	670	n/a	n/a	0	0	0
3822127	WORD	wordpools/wasnorm_wordpool_576.txt	LTP301	ltpFR2	5	18	BLUEPRINT	142	n/a	n/a	0	0	0
3824747	WORD	wordpools/wasnorm_wordpool_576.txt	LTP301	ltpFR2	5	18	VICTIM	1562	n/a	n/a	0	0	0
3827415	WORD	wordpools/wasnorm_wordpool_576.txt	LTP301	ltpFR2	5	18	SPONGE	1355	n/a	n/a	0	0	0
3829951	WORD	wordpools/wasnorm_wordpool_576.txt	LTP301	ltpFR2	5	18	TILE	1468	n/a	n/a	0	0	0
3832770	WORD	wordpools/wasnorm_wordpool_576.txt	LTP301	ltpFR2	5	18	ATOM	55	n/a	n/a	0	0	0
3834388	START	n/a	LTP301	ltpFR2	5	n/a	n/a	n/a	26	n/a	n/a	n/a	n/a
3835576	DISTRACTOR	n/a	LTP301	ltpFR2	5	18	n/a	n/a	n/a	n/a	0	0	0
3835588	PROB	n/a	LTP301	ltpFR2	5	n/a	n/a	n/a	26	14	9	2	3
3840426	PROB	n/a	LTP301	ltpFR2	5	n/a	n/a	n/a	26	20	8	5	7
3843545	PROB	n/a	LTP301	ltpFR2	5	n/a	n/a	n/a	26	20	8	4	6
3845781	PROB	n/a	LTP301	ltpFR2	5	n/a	n/a	n/a	26	11	3	1	7
3849350	PROB	n/a	LTP301	ltpFR2	5	n/a	n/a	n/a	26	11	5	3	3
3851185	PROB	n/a	LTP301	ltpFR2	5	n/a	n/a	n/a	26	24	8	7	9
3853453	PROB	n/a	LTP301	ltpFR2	5	n/a	n/a	n/a	26	8	1	3	4
3855255	PROB	n/a	LTP301	ltpFR2	5	n/a	n/a	n/a	26	14	4	5	5
3858388	STOP	n/a	LTP301	ltpFR2	5	n/a	n/a	n/a	26	n/a	n/a	n/a	n/a
3860176	REC_START	n/a	LTP301	ltpFR2	5	18	n/a	n/a	n/a	n/a	0	0	0
3860972	REC_WORD	wordpools/wasnorm_wordpool_576.txt	LTP301	ltpFR2	5	18	BLUEPRINT	142	n/a	n/a	0	0	0
3861932	REC_WORD	wordpools/wasnorm_wordpool_576.txt	LTP301	ltpFR2	5	18	SPONGE	1355	n/a	n/a	0	0	0
3866797	REC_WORD	wordpools/wasnorm_wordpool_576.txt	LTP301	ltpFR2	5	18	MONEY	908	n/a	n/a	0	0	0
3868599	REC_WORD	wordpools/wasnorm_wordpool_576.txt	LTP301	ltpFR2	5	18	SPOON	1357	n/a	n/a	0	0	0
3887859	REC_WORD	wordpools/wasnorm_wordpool_576.txt	LTP301	ltpFR2	5	18	BED	110	n/a	n/a	0	0	0
3992670	WORD	wordpools/wasnorm_wordpool_576.txt	LTP301	ltpFR2	5	19	GAVEL	627	n/a	n/a	0	0	0
3995305	WORD	wordpools/wasnorm_wordpool_576.txt	LTP301	ltpFR2	5	19	HATCHET	691	n/a	n/a	0	0	0
3998057	WORD	wordpools/wasnorm_wordpool_576.txt	LTP301	ltpFR2	5	19	DAISY	435	n/a	n/a	0	0	0
4000660	WORD	wordpools/wasnorm_wordpool_576.txt	LTP301	ltpFR2	5	19	PAPER	1011	n/a	n/a	0	0	0
4003395	WORD	wordpools/wasnorm_wordpool_576.txt	LTP301	ltpFR2	5	19	STAR	1373	n/a	n/a	0	0	0
4005881	WORD	wordpools/wasnorm_wordpool_576.txt	LTP301	ltpFR2	5	19	SPACE	1345	n/a	n/a	0	0	0
4008616	WORD	wordpools/wasnorm_wordpool_576.txt	LTP301	ltpFR2	5	19	GREASE	660	n/a	n/a	0	0	0
4011068	WORD	wordpools/wasnorm_wordpool_576.txt	LTP301	ltpFR2	5	19	JURY	766	n/a	n/a	0	0	0
4013771	WORD	wordpools/wasnorm_wordpool_576.txt	LTP301	ltpFR2	5	19	PLATE	1086	n/a	n/a	0	0	0
4016589	WORD	wordpools/wasnorm_wordpool_576.txt	LTP301	ltpFR2	5	19	HONEY	713	n/a	n/a	0	0	0
4019408	WORD	wordpools/wasnorm_wordpool_576.txt	LTP301	ltpFR2	5	19	ACTRESS	6	n/a	n/a	0	0	0
4022227	WORD	wordpools/wasnorm_wordpool_576.txt	LTP301	ltpFR2	5	19	LILY	821	n/a	n/a	0	0	0
4024747	WORD	wordpools/wasnorm_wordpool_576.txt	LTP301	ltpFR2	5	19	BREAST	171	n/a	n/a	0	0	0
4027398	WORD	wordpools/wasnorm_wordpool_576.txt	LTP301	ltpFR2	5	19	PISTON	1076	n/a	n/a	0	0	0
4029951	WORD	wordpools/wasnorm_wordpool_576.txt	LTP301	ltpFR2	5	19	PIGMENT	1066	n/a	n/a	0	0	0
4032737	WORD	wordpools/wasnorm_wordpool_576.txt	LTP301	ltpFR2	5	19	ICING	732	n/a	n/a	0	0	0
4035204	WORD	wordpools/wasnorm_wordpool_576.txt	LTP301	ltpFR2	5	19	NEUTRON	947	n/a	n/a	0	0	0
4037958	WORD	wordpools/wasnorm_wordpool_576.txt	LTP301	ltpFR2	5	19	GROUND	666	n/a	n/a	0	0	0
4040660	WORD	wordpools/wasnorm_wordpool_576.txt	LTP301	ltpFR2	5	19	DRIVER	499	n/a	n/a	0	0	0
4043144	WORD	wordpools/wasnorm_wordpool_576.txt	LTP301	ltpFR2	5	19	SUBWAY	1400	n/a	n/a	0	0	0
4045596	WORD	wordpools/wasnorm_wordpool_576.txt	LTP301	ltpFR2	5	19	MILK	895	n/a	n/a	0	0	0
4048265	WORD	wordpools/wasnorm_wordpool_576.txt	LTP301	ltpFR2	5	19	WIFE	1609	n/a	n/a	0	0	0
4050952	WORD	wordpools/wasnorm_wordpool_576.txt	LTP301	ltpFR2	5	19	BACON	67	n/a	n/a	0	0	0
4053721	WORD	wordpools/wasnorm_wordpool_576.txt	LTP301	ltpFR2	5	19	OMELET	976	n/a	n/a	0	0	0
4055338	START	n/a	LTP301	ltpFR2	5	n/a	n/a	n/a	27	n/a	n/a	n/a	n/a
4056232	DISTRACTOR	n/a	LTP301	ltpFR2	5	19	n/a	n/a	n/a	n/a	0	0	0
4056255	PROB	n/a	LTP301	ltpFR2	5	n/a	n/a	n/a	27	17	4	6	7
4059058	PROB	n/a	LTP301	ltpFR2	5	n/a	n/a	n/a	27	11	2	7	2
4063094	PROB	n/a	LTP301	ltpFR2	5	n/a	n/a	n/a	27	9	6	1	2
4065380	PROB	n/a	LTP301	ltpFR2	5	n/a	n/a	n/a	27	155	9	1	5
4068215	PROB	n/a	LTP301	ltpFR2	5	n/a	n/a	n/a	27	21	4	8	9
4074320	PROB	n/a	LTP301	ltpFR2	5	n/a	n/a	n/a	27	17	7	6	2
4079338	STOP	n/a	LTP301	ltpFR2	5	n/a	n/a	n/a	27	n/a	n/a	n/a	n/a
4081226	REC_START	n/a	LTP301	ltpFR2	5	19	n/a	n/a	n/a	n/a	0	0	0
4083063	REC_WORD	wordpools/wasnorm_wordpool_576.txt	LTP301	ltpFR2	5	19	BACON	67	n/a	n/a	0	0	0
4083972	REC_WORD	wordpools/wasnorm_wordpool_576.txt	LTP301	ltpFR2	5	19	LILY	821	n/a	n/a	0	0	0
4085119	REC_WORD	wordpools/wasnorm_wordpool_576.txt	LTP301	ltpFR2	5	19	DAISY	435	n/a	n/a	0	0	0
4093197	REC_WORD	wordpools/wasnorm_wordpool_576.txt	LTP301	ltpFR2	5	19	GAVEL	627	n/a	n/a	0	0	0
4094094	REC_WORD	wordpools/wasnorm_wordpool_576.txt	LTP301	ltpFR2	5	19	HATCHET	691	n/a	n/a	0	0	0
4101638	REC_WORD	wordpools/wasnorm_wordpool_576.txt	LTP301	ltpFR2	5	19	SERVER	1272	n/a	n/a	0	0	0
4104302	REC_WORD	wordpools/wasnorm_wordpool_576.txt	LTP301	ltpFR2	5	19	WAITRESS	1581	n/a	n/a	0	0	0
4171652	DISTRACTOR	n/a	LTP301	ltpFR2	5	20	n/a	n/a	n/a	n/a	0	0	0
4171652	START	n/a	LTP301	ltpFR2	5	n/a	n/a	n/a	28	n/a	n/a	n/a	n/a
4171669	PROB	n/a	LTP301	ltpFR2	5	n/a	n/a	n/a	28	12	6	2	4
4174170	PROB	n/a	LTP301	ltpFR2	5	n/a	n/a	n/a	28	18	6	7	5
4177273	PROB	n/a	LTP301	ltpFR2	5	n/a	n/a	n/a	28	18	8	7	3
4180977	PROB	n/a	LTP301	ltpFR2	5	n/a	n/a	n/a	28	14	4	9	1
4182594	PROB	n/a	LTP301	ltpFR2	5	n/a	n/a	n/a	28	10	1	1	8
4184178	PROB	n/a	LTP301	ltpFR2	5	n/a	n/a	n/a	28	11	7	1	3
4185897	PROB	n/a	LTP301	ltpFR2	5	n/a	n/a	n/a	28	15	5	8	2
4187498	PROB	n/a	LTP301	ltpFR2	5	n/a	n/a	n/a	28	10	4	5	1
4190033	PROB	n/a	LTP301	ltpFR2	5	n/a	n/a	n/a	28	3	1	1	1
4191234	PROB	n/a	LTP301	ltpFR2	5	n/a	n/a	n/a	28	11	2	8	1
4193136	PROB	n/a	LTP301	ltpFR2	5	n/a	n/a	n/a	28	9	6	1	2
4194764	STOP	n/a	LTP301	ltpFR2	5	n/a	n/a	n/a	28	n/a	n/a	n/a	n/a
4196555	WORD	wordpools/wasnorm_wordpool_576.txt	LTP301	ltpFR2	5	20	TWIG	1527	n/a	n/a	0	0	0
4199124	WORD	wordpools/wasnorm_wordpool_576.txt	LTP301	ltpFR2	5	20	ELBOW	520	n/a	n/a	0	0	0
4201627	WORD	wordpools/wasnorm_wordpool_576.txt	LTP301	ltpFR2	5	20	HOOK	715	n/a	n/a	0	0	0
4204161	WORD	wordpools/wasnorm_wordpool_576.txt	LTP301	ltpFR2	5	20	WRIST	1626	n/a	n/a	0	0	0
4206614	WORD	wordpools/wasnorm_wordpool_576.txt	LTP301	ltpFR2	5	20	GRAPE	654	n/a	n/a	0	0	0
4209166	WORD	wordpools/wasnorm_wordpool_576.txt	LTP301	ltpFR2	5	20	FRUIT	610	n/a	n/a	0	0	0
4211702	WORD	wordpools/wasnorm_wordpool_576.txt	LTP301	ltpFR2	5	20	GYMNAST	675	n/a	n/a	0	0	0
4214403	WORD	wordpools/wasnorm_wordpool_576.txt	LTP301	ltpFR2	5	20	CRATER	400	n/a	n/a	0	0	0
4216890	WORD	wordpools/wasnorm_wordpool_576.txt	LTP301	ltpFR2	5	20	FOOTBALL	591	n/a	n/a	0	0	0
4219324	WORD	wordpools/wasnorm_wordpool_576.txt	LTP301	ltpFR2	5	20	COFFEE	341	n/a	n/a	0	0	0
4221911	WORD	wordpools/wasnorm_wordpool_576.txt	LTP301	ltpFR2	5	20	CLIMBER	323	n/a	n/a	0	0	0
4224579	WORD	wordpools/wasnorm_wordpool_576.txt	LTP301	ltpFR2	5	20	BRANCH	168	n/a	n/a	0	0	0
4227281	WORD	wordpools/wasnorm_wordpool_576.txt	LTP301	ltpFR2	5	20	SHOULDER	1294	n/a	n/a	0	0	0
4229851	WORD	wordpools/wasnorm_wordpool_576.txt	LTP301	ltpFR2	5	20	WARDROBE	1587	n/a	n/a	0	0	0
4232485	WORD	wordpools/wasnorm_wordpool_576.txt	LTP301	ltpFR2	5	20	OUTLAW	989	n/a	n/a	0	0	0
4235087	WORD	wordpools/wasnorm_wordpool_576.txt	LTP301	ltpFR2	5	20	WHISKERS	1605	n/a	n/a	0	0	0
4237539	WORD	wordpools/wasnorm_wordpool_576.txt	LTP301	ltpFR2	5	20	STICKER	1382	n/a	n/a	0	0	0
4240342	WORD	wordpools/wasnorm_wordpool_576.txt	LTP301	ltpFR2	5	20	UMPIRE	1535	n/a	n/a	0	0	0
4243061	WORD	wordpools/wasnorm_wordpool_576.txt	LTP301	ltpFR2	5	20	DIVER	476	n/a	n/a	0	0	0
4245596	WORD	wordpools/wasnorm_wordpool_576.txt	LTP301	ltpFR2	5	20	MARINE	869	n/a	n/a	0	0	0
4248131	WORD	wordpools/wasnorm_wordpool_576.txt	LTP301	ltpFR2	5	20	SCARECROW	1245	n/a	n/a	0	0	0
4250968	WORD	wordpools/wasnorm_wordpool_576.txt	LTP301	ltpFR2	5	20	MUFFIN	929	n/a	n/a	0	0	0
4253654	WORD	wordpools/wasnorm_wordpool_576.txt	LTP301	ltpFR2	5	20	PEANUT	1032	n/a	n/a	0	0	0
4256322	WORD	wordpools/wasnorm_wordpool_576.txt	LTP301	ltpFR2	5	20	HEART	697	n/a	n/a	0	0	0
4257941	START	n/a	LTP301	ltpFR2	5	n/a	n/a	n/a	29	n/a	n/a	n/a	n/a
4258935	DISTRACTOR	n/a	LTP301	ltpFR2	5	20	n/a	n/a	n/a	n/a	0	0	0
4258958	PROB	n/a	LTP301	ltpFR2	5	n/a	n/a	n/a	29	11	1	8	2
4261109	PROB	n/a	LTP301	ltpFR2	5	n/a	n/a	n/a	29	4	2	1	1
4262560	PROB	n/a	LTP301	ltpFR2	5	n/a	n/a	n/a	29	12	5	2	5
4264262	PROB	n/a	LTP301	ltpFR2	5	n/a	n/a	n/a	29	21	8	7	6
4267114	PROB	n/a	LTP301	ltpFR2	5	n/a	n/a	n/a	29	15	1	8	6
4269149	PROB	n/a	LTP301	ltpFR2	5	n/a	n/a	n/a	29	12	7	4	1
4270968	PROB	n/a	LTP301	ltpFR2	5	n/a	n/a	n/a	29	1	3	7	1
4273019	PROB	n/a	LTP301	ltpFR2	5	n/a	n/a	n/a	29	6	2	3	1
4275171	PROB	n/a	LTP301	ltpFR2	5	n/a	n/a	n/a	29	6	1	4	1
4276405	PROB	n/a	LTP301	ltpFR2	5	n/a	n/a	n/a	29	7	4	4	1
4281941	STOP	n/a	LTP301	ltpFR2	5	n/a	n/a	n/a	29	n/a	n/a	n/a	n/a
4283863	REC_START	n/a	LTP301	ltpFR2	5	20	n/a	n/a	n/a	n/a	0	0	0
4284499	REC_WORD	wordpools/wasnorm_wordpool_576.txt	LTP301	ltpFR2	5	20	SPORT	-1	n/a	n/a	0	0	0
4285800	REC_WORD	wordpools/wasnorm_wordpool_576.txt	LTP301	ltpFR2	5	20	FOOTBALL	591	n/a	n/a	0	0	0
4298359	REC_WORD	wordpools/wasnorm_wordpool_576.txt	LTP301	ltpFR2	5	20	SWIMMER	1420	n/a	n/a	0	0	0
4300150	REC_WORD	wordpools/wasnorm_wordpool_576.txt	LTP301	ltpFR2	5	20	TWIG	1527	n/a	n/a	0	0	0
4301068	REC_WORD	wordpools/wasnorm_wordpool_576.txt	LTP301	ltpFR2	5	20	BRANCH	168	n/a	n/a	0	0	0
4321064	REC_WORD	wordpools/wasnorm_wordpool_576.txt	LTP301	ltpFR2	5	20	SHOULDER	1294	n/a	n/a	0	0	0
4338742	REC_WORD	wordpools/wasnorm_wordpool_576.txt	LTP301	ltpFR2	5	20	WEDGE	-1	n/a	n/a	0	0	0
4342594	REC_WORD	wordpools/wasnorm_wordpool_576.txt	LTP301	ltpFR2	5	20	WARDROBE	1587	n/a	n/a	0	0	0
4374487	DISTRACTOR	n/a	LTP301	ltpFR2	5	21	n/a	n/a	n/a	n/a	0	0	0
4374487	START	n/a	LTP301	ltpFR2	5	n/a	n/a	n/a	30	n/a	n/a	n/a	n/a
4374520	PROB	n/a	LTP301	ltpFR2	5	n/a	n/a	n/a	30	17	9	2	6
4378674	PROB	n/a	LTP301	ltpFR2	5	n/a	n/a	n/a	30	17	9	1	7
4381109	PROB	n/a	LTP301	ltpFR2	5	n/a	n/a	n/a	30	14	2	5	7
4387297	PROB	n/a	LTP301	ltpFR2	5	n/a	n/a	n/a	30	14	9	1	4
4389266	PROB	n/a	LTP301	ltpFR2	5	n/a	n/a	n/a	30	13	5	3	4
4393135	PROB	n/a	LTP301	ltpFR2	5	n/a	n/a	n/a	30	19	1	9	9
4396088	PROB	n/a	LTP301	ltpFR2	5	n/a	n/a	n/a	30	12	2	9	1
4397796	STOP	n/a	LTP301	ltpFR2	5	n/a	n/a	n/a	30	n/a	n/a	n/a	n/a
4399541	WORD	wordpools/wasnorm_wordpool_576.txt	LTP301	ltpFR2	5	21	CRUTCH	417	n/a	n/a	0	0	0
4402126	WORD	wordpools/wasnorm_wordpool_576.txt	LTP301	ltpFR2	5	21	PILOT	1070	n/a	n/a	0	0	0
4404713	WORD	wordpools/wasnorm_wordpool_576.txt	LTP301	ltpFR2	5	21	COLLEGE	346	n/a	n/a	0	0	0
4407264	WORD	wordpools/wasnorm_wordpool_576.txt	LTP301	ltpFR2	5	21	HOOD	714	n/a	n/a	0	0	0
4409967	WORD	wordpools/wasnorm_wordpool_576.txt	LTP301	ltpFR2	5	21	OINTMENT	974	n/a	n/a	0	0	0
4412786	WORD	wordpools/wasnorm_wordpool_576.txt	LTP301	ltpFR2	5	21	NOMAD	955	n/a	n/a	0	0	0
4415354	WORD	wordpools/wasnorm_wordpool_576.txt	LTP301	ltpFR2	5	21	YACHT	1629	n/a	n/a	0	0	0
4418123	WORD	wordpools/wasnorm_wordpool_576.txt	LTP301	ltpFR2	5	21	DRUG	501	n/a	n/a	0	0	0
4420626	WORD	wordpools/wasnorm_wordpool_576.txt	LTP301	ltpFR2	5	21	NIGHTGOWN	953	n/a	n/a	0	0	0
4423394	WORD	wordpools/wasnorm_wordpool_576.txt	LTP301	ltpFR2	5	21	CEILING	265	n/a	n/a	0	0	0
4426063	WORD	wordpools/wasnorm_wordpool_576.txt	LTP301	ltpFR2	5	21	MOP	916	n/a	n/a	0	0	0
4428548	WORD	wordpools/wasnorm_wordpool_576.txt	LTP301	ltpFR2	5	21	SPHINX	1349	n/a	n/a	0	0	0
4431234	WORD	wordpools/wasnorm_wordpool_576.txt	LTP301	ltpFR2	5	21	MUMMY	932	n/a	n/a	0	0	0
4433804	WORD	wordpools/wasnorm_wordpool_576.txt	LTP301	ltpFR2	5	21	FOOT	590	n/a	n/a	0	0	0
4436288	WORD	wordpools/wasnorm_wordpool_576.txt	LTP301	ltpFR2	5	21	STALLION	1369	n/a	n/a	0	0	0
4438974	WORD	wordpools/wasnorm_wordpool_576.txt	LTP301	ltpFR2	5	21	KLEENEX	782	n/a	n/a	0	0	0
4441727	WORD	wordpools/wasnorm_wordpool_576.txt	LTP301	ltpFR2	5	21	COMET	353	n/a	n/a	0	0	0
4444178	WORD	wordpools/wasnorm_wordpool_576.txt	LTP301	ltpFR2	5	21	ROCKET	1202	n/a	n/a	0	0	0
4446915	WORD	wordpools/wasnorm_wordpool_576.txt	LTP301	ltpFR2	5	21	DORM	488	n/a	n/a	0	0	0
4449717	WORD	wordpools/wasnorm_wordpool_576.txt	LTP301	ltpFR2	5	21	LACE	792	n/a	n/a	0	0	0
4452335	WORD	wordpools/wasnorm_wordpool_576.txt	LTP301	ltpFR2	5	21	DUSTPAN	509	n/a	n/a	0	0	0
4454854	WORD	wordpools/wasnorm_wordpool_576.txt	LTP301	ltpFR2	5	21	ROBIN	1199	n/a	n/a	0	0	0
4457305	WORD	wordpools/wasnorm_wordpool_576.txt	LTP301	ltpFR2	5	21	AWARD	63	n/a	n/a	0	0	0
4459892	WORD	wordpools/wasnorm_wordpool_576.txt	LTP301	ltpFR2	5	21	BRACES	164	n/a	n/a	0	0	0
4461509	START	n/a	LTP301	ltpFR2	5	n/a	n/a	n/a	31	n/a	n/a	n/a	n/a
4462420	DISTRACTOR	n/a	LTP301	ltpFR2	5	21	n/a	n/a	n/a	n/a	0	0	0
4462426	PROB	n/a	LTP301	ltpFR2	5	n/a	n/a	n/a	31	13	9	1	3
4465713	PROB	n/a	LTP301	ltpFR2	5	n/a	n/a	n/a	31	21	6	9	8
4476739	PROB	n/a	LTP301	ltpFR2	5	n/a	n/a	n/a	31	13	3	2	8
4480108	PROB	n/a	LTP301	ltpFR2	5	n/a	n/a	n/a	31	11	3	4	4
4482994	PROB	n/a	LTP301	ltpFR2	5	n/a	n/a	n/a	31	10	4	1	5
4484740	STOP	n/a	LTP301	ltpFR2	5	n/a	n/a	n/a	31	n/a	n/a	n/a	n/a
4487347	REC_START	n/a	LTP301	ltpFR2	5	21	n/a	n/a	n/a	n/a	0	0	0
4488149	REC_WORD	wordpools/wasnorm_wordpool_576.txt	LTP301	ltpFR2	5	21	DUSTPAN	509	n/a	n/a	0	0	0
4489556	REC_WORD	wordpools/wasnorm_wordpool_576.txt	LTP301	ltpFR2	5	21	AWARD	63	n/a	n/a	0	0	0
4490995	REC_WORD	wordpools/wasnorm_wordpool_576.txt	LTP301	ltpFR2	5	21	COMET	353	n/a	n/a	0	0	0
4492319	REC_WORD	wordpools/wasnorm_wordpool_576.txt	LTP301	ltpFR2	5	21	ROCKET	1202	n/a	n/a	0	0	0
4519220	REC_WORD	wordpools/wasnorm_wordpool_576.txt	LTP301	ltpFR2	5	21	COLLEGE	346	n/a	n/a	0	0	0
4532068	REC_WORD	wordpools/wasnorm_wordpool_576.txt	LTP301	ltpFR2	5	21	TEACHER	1440	n/a	n/a	0	0	0
4593837	DISTRACTOR	n/a	LTP301	ltpFR2	5	22	n/a	n/a	n/a	n/a	0	0	0
4593837	START	n/a	LTP301	ltpFR2	5	n/a	n/a	n/a	32	n/a	n/a	n/a	n/a
4593870	PROB	n/a	LTP301	ltpFR2	5	n/a	n/a	n/a	32	12	3	8	1
4596889	PROB	n/a	LTP301	ltpFR2	5	n/a	n/a	n/a	32	14	9	1	4
4599157	PROB	n/a	LTP301	ltpFR2	5	n/a	n/a	n/a	32	17	5	8	4
4601359	PROB	n/a	LTP301	ltpFR2	5	n/a	n/a	n/a	32	19	5	9	5
4604094	PROB	n/a	LTP301	ltpFR2	5	n/a	n/a	n/a	32	12	1	5	6
4607180	PROB	n/a	LTP301	ltpFR2	5	n/a	n/a	n/a	32	10	3	1	6
4609667	PROB	n/a	LTP301	ltpFR2	5	n/a	n/a	n/a	32	24	6	9	9
4617837	STOP	n/a	LTP301	ltpFR2	5	n/a	n/a	n/a	32	n/a	n/a	n/a	n/a
4618924	WORD	wordpools/wasnorm_wordpool_576.txt	LTP301	ltpFR2	5	22	ULCER	1533	n/a	n/a	0	0	0
4621643	WORD	wordpools/wasnorm_wordpool_576.txt	LTP301	ltpFR2	5	22	SLIME	1327	n/a	n/a	0	0	0
4624328	WORD	wordpools/wasnorm_wordpool_576.txt	LTP301	ltpFR2	5	22	THREAD	1460	n/a	n/a	0	0	0
4627130	WORD	wordpools/wasnorm_wordpool_576.txt	LTP301	ltpFR2	5	22	LUMBER	848	n/a	n/a	0	0	0
4629950	WORD	wordpools/wasnorm_wordpool_576.txt	LTP301	ltpFR2	5	22	TRUCK	1512	n/a	n/a	0	0	0
4632752	WORD	wordpools/wasnorm_wordpool_576.txt	LTP301	ltpFR2	5	22	BUNNY	198	n/a	n/a	0	0	0
4635504	WORD	wordpools/wasnorm_wordpool_576.txt	LTP301	ltpFR2	5	22	RABBIT	1152	n/a	n/a	0	0	0
4638106	WORD	wordpools/wasnorm_wordpool_576.txt	LTP301	ltpFR2	5	22	LIVER	833	n/a	n/a	0	0	0
4640742	WORD	wordpools/wasnorm_wordpool_576.txt	LTP301	ltpFR2	5	22	SPOOL	1356	n/a	n/a	0	0	0
4643544	WORD	wordpools/wasnorm_wordpool_576.txt	LTP301	ltpFR2	5	22	AGENT	10	n/a	n/a	0	0	0
4646029	WORD	wordpools/wasnorm_wordpool_576.txt	LTP301	ltpFR2	5	22	MEAT	883	n/a	n/a	0	0	0
4648766	WORD	wordpools/wasnorm_wordpool_576.txt	LTP301	ltpFR2	5	22	FLIPPER	580	n/a	n/a	0	0	0
4651550	WORD	wordpools/wasnorm_wordpool_576.txt	LTP301	ltpFR2	5	22	SCRIBBLE	1256	n/a	n/a	0	0	0
4654336	WORD	wordpools/wasnorm_wordpool_576.txt	LTP301	ltpFR2	5	22	FOREHEAD	592	n/a	n/a	0	0	0
4656789	WORD	wordpools/wasnorm_wordpool_576.txt	LTP301	ltpFR2	5	22	BADGE	68	n/a	n/a	0	0	0
4659240	WORD	wordpools/wasnorm_wordpool_576.txt	LTP301	ltpFR2	5	22	COTTAGE	384	n/a	n/a	0	0	0
4661960	WORD	wordpools/wasnorm_wordpool_576.txt	LTP301	ltpFR2	5	22	CABIN	211	n/a	n/a	0	0	0
4664428	WORD	wordpools/wasnorm_wordpool_576.txt	LTP301	ltpFR2	5	22	BEAKER	104	n/a	n/a	0	0	0
4666947	WORD	wordpools/wasnorm_wordpool_576.txt	LTP301	ltpFR2	5	22	AIRPORT	13	n/a	n/a	0	0	0
4669449	WORD	wordpools/wasnorm_wordpool_576.txt	LTP301	ltpFR2	5	22	ICEBERG	731	n/a	n/a	0	0	0
4672151	WORD	wordpools/wasnorm_wordpool_576.txt	LTP301	ltpFR2	5	22	ROD	1203	n/a	n/a	0	0	0
4674837	WORD	wordpools/wasnorm_wordpool_576.txt	LTP301	ltpFR2	5	22	LASER	801	n/a	n/a	0	0	0
4677539	WORD	wordpools/wasnorm_wordpool_576.txt	LTP301	ltpFR2	5	22	RIFLE	1192	n/a	n/a	0	0	0
4680091	WORD	wordpools/wasnorm_wordpool_576.txt	LTP301	ltpFR2	5	22	PRINCESS	1125	n/a	n/a	0	0	0
4681710	START	n/a	LTP301	ltpFR2	5	n/a	n/a	n/a	33	n/a	n/a	n/a	n/a
4682553	DISTRACTOR	n/a	LTP301	ltpFR2	5	22	n/a	n/a	n/a	n/a	0	0	0
4682559	PROB	n/a	LTP301	ltpFR2	5	n/a	n/a	n/a	33	15	4	8	1
4686396	PROB	n/a	LTP301	ltpFR2	5	n/a	n/a	n/a	33	16	1	9	6
4689482	PROB	n/a	LTP301	ltpFR2	5	n/a	n/a	n/a	33	16	8	4	4
4692969	PROB	n/a	LTP301	ltpFR2	5	n/a	n/a	n/a	33	20	9	6	5
4696404	PROB	n/a	LTP301	ltpFR2	5	n/a	n/a	n/a	33	16	7	3	6
4698991	PROB	n/a	LTP301	ltpFR2	5	n/a	n/a	n/a	33	21	4	8	9
4702977	PROB	n/a	LTP301	ltpFR2	5	n/a	n/a	n/a	33	13	9	2	2
4704964	STOP	n/a	LTP301	ltpFR2	5	n/a	n/a	n/a	33	n/a	n/a	n/a	n/a
4707547	REC_START	n/a	LTP301	ltpFR2	5	22	n/a	n/a	n/a	n/a	0	0	0
4708404	REC_WORD	wordpools/wasnorm_wordpool_576.txt	LTP301	ltpFR2	5	22	RIFLE	1192	n/a	n/a	0	0	0
4709420	REC_WORD	wordpools/wasnorm_wordpool_576.txt	LTP301	ltpFR2	5	22	LASER	801	n/a	n/a	0	0	0
4711378	REC_WORD	wordpools/wasnorm_wordpool_576.txt	LTP301	ltpFR2	5	22	BEAKER	104	n/a	n/a	0	0	0
4713941	REC_WORD	wordpools/wasnorm_wordpool_576.txt	LTP301	ltpFR2	5	22	GLASS	639	n/a	n/a	0	0	0
4728219	REC_WORD	wordpools/wasnorm_wordpool_576.txt	LTP301	ltpFR2	5	22	CHEMIST	292	n/a	n/a	0	0	0
4742211	REC_WORD	wordpools/wasnorm_wordpool_576.txt	LTP301	ltpFR2	5	22	ARM	38	n/a	n/a	0	0	0
4808699	WORD	wordpools/wasnorm_wordpool_576.txt	LTP301	ltpFR2	5	23	CHIPMUNK	304	n/a	n/a	0	0	0
4811150	WORD	wordpools/wasnorm_wordpool_576.txt	LTP301	ltpFR2	5	23	PEPPER	1047	n/a	n/a	0	0	0
4813820	WORD	wordpools/wasnorm_wordpool_576.txt	LTP301	ltpFR2	5	23	WAITER	1580	n/a	n/a	0	0	0
4816554	WORD	wordpools/wasnorm_wordpool_576.txt	LTP301	ltpFR2	5	23	MAMMAL	861	n/a	n/a	0	0	0
4819256	WORD	wordpools/wasnorm_wordpool_576.txt	LTP301	ltpFR2	5	23	BOARD	143	n/a	n/a	0	0	0
4821709	WORD	wordpools/wasnorm_wordpool_576.txt	LTP301	ltpFR2	5	23	SPIDER	1351	n/a	n/a	0	0	0
4824478	WORD	wordpools/wasnorm_wordpool_576.txt	LTP301	ltpFR2	5	23	GARDEN	623	n/a	n/a	0	0	0
4827146	WORD	wordpools/wasnorm_wordpool_576.txt	LTP301	ltpFR2	5	23	ORCHID	982	n/a	n/a	0	0	0
4829633	WORD	wordpools/wasnorm_wordpool_576.txt	LTP301	ltpFR2	5	23	FEMALE	559	n/a	n/a	0	0	0
4832101	WORD	wordpools/wasnorm_wordpool_576.txt	LTP301	ltpFR2	5	23	SALT	1229	n/a	n/a	0	0	0
4834921	WORD	wordpools/wasnorm_wordpool_576.txt	LTP301	ltpFR2	5	23	SUNSET	1408	n/a	n/a	0	0	0
4837505	WORD	wordpools/wasnorm_wordpool_576.txt	LTP301	ltpFR2	5	23	PARSLEY	1016	n/a	n/a	0	0	0
4840257	WORD	wordpools/wasnorm_wordpool_576.txt	LTP301	ltpFR2	5	23	SPARROW	1347	n/a	n/a	0	0	0
4842827	WORD	wordpools/wasnorm_wordpool_576.txt	LTP301	ltpFR2	5	23	PRIMATE	1123	n/a	n/a	0	0	0
4845629	WORD	wordpools/wasnorm_wordpool_576.txt	LTP301	ltpFR2	5	23	STAKE	1368	n/a	n/a	0	0	0
4848247	WORD	wordpools/wasnorm_wordpool_576.txt	LTP301	ltpFR2	5	23	XEROX	1628	n/a	n/a	0	0	0
4851000	WORD	wordpools/wasnorm_wordpool_576.txt	LTP301	ltpFR2	5	23	RUG	1215	n/a	n/a	0	0	0
4853535	WORD	wordpools/wasnorm_wordpool_576.txt	LTP301	ltpFR2	5	23	PUPPY	1144	n/a	n/a	0	0	0
4856221	WORD	wordpools/wasnorm_wordpool_576.txt	LTP301	ltpFR2	5	23	MACHINE	852	n/a	n/a	0	0	0
4858940	WORD	wordpools/wasnorm_wordpool_576.txt	LTP301	ltpFR2	5	23	SODA	1341	n/a	n/a	0	0	0
4861726	WORD	wordpools/wasnorm_wordpool_576.txt	LTP301	ltpFR2	5	23	JUNGLE	764	n/a	n/a	0	0	0
4864561	WORD	wordpools/wasnorm_wordpool_576.txt	LTP301	ltpFR2	5	23	DRAGON	492	n/a	n/a	0	0	0
4867330	WORD	wordpools/wasnorm_wordpool_576.txt	LTP301	ltpFR2	5	23	MATCH	878	n/a	n/a	0	0	0
4870032	WORD	wordpools/wasnorm_wordpool_576.txt	LTP301	ltpFR2	5	23	THRONE	1461	n/a	n/a	0	0	0
4871651	START	n/a	LTP301	ltpFR2	5	n/a	n/a	n/a	34	n/a	n/a	n/a	n/a
4872768	DISTRACTOR	n/a	LTP301	ltpFR2	5	23	n/a	n/a	n/a	n/a	0	0	0
4872802	PROB	n/a	LTP301	ltpFR2	5	n/a	n/a	n/a	34	17	9	4	8
4876271	PROB	n/a	LTP301	ltpFR2	5	n/a	n/a	n/a	34	8	5	2	1
4878372	PROB	n/a	LTP301	ltpFR2	5	n/a	n/a	n/a	34	8	3	1	4
4880859	PROB	n/a	LTP301	ltpFR2	5	n/a	n/a	n/a	34	15	8	3	4
4883928	PROB	n/a	LTP301	ltpFR2	5	n/a	n/a	n/a	34	15	7	2	6
4888414	PROB	n/a	LTP301	ltpFR2	5	n/a	n/a	n/a	34	13	4	5	4
4890934	PROB	n/a	LTP301	ltpFR2	5	n/a	n/a	n/a	34	13	9	1	3
4894948	STOP	n/a	LTP301	ltpFR2	5	n/a	n/a	n/a	34	n/a	n/a	n/a	n/a
4897589	REC_START	n/a	LTP301	ltpFR2	5	23	n/a	n/a	n/a	n/a	0	0	0
4898295	REC_WORD	wordpools/wasnorm_wordpool_576.txt	LTP301	ltpFR2	5	23	WAITER	1580	n/a	n/a	0	0	0
4899420	REC_WORD	wordpools/wasnorm_wordpool_576.txt	LTP301	ltpFR2	5	23	MATCH	878	n/a	n/a	0	0	0
4904367	REC_WORD	wordpools/wasnorm_wordpool_576.txt	LTP301	ltpFR2	5	23	PEPPER	1047	n/a	n/a	0	0	0
4925960	REC_WORD	wordpools/wasnorm_wordpool_576.txt	LTP301	ltpFR2	5	23	GARDEN	623	n/a	n/a	0	0	0
4926849	REC_WORD	wordpools/wasnorm_wordpool_576.txt	LTP301	ltpFR2	5	23	ORCHID	982	n/a	n/a	0	0	0
4957004	REC_WORD	wordpools/wasnorm_wordpool_576.txt	LTP301	ltpFR2	5	23	CRATE	-1	n/a	n/a	0	0	0
4988064	DISTRACTOR	n/a	LTP301	ltpFR2	5	24	n/a	n/a	n/a	n/a	0	0	0
4988064	START	n/a	LTP301	ltpFR2	5	n/a	n/a	n/a	35	n/a	n/a	n/a	n/a
4988080	PROB	n/a	LTP301	ltpFR2	5	n/a	n/a	n/a	35	15	6	8	1
4992167	PROB	n/a	LTP301	ltpFR2	5	n/a	n/a	n/a	35	5	2	1	2
4994085	PROB	n/a	LTP301	ltpFR2	5	n/a	n/a	n/a	35	18	2	9	7
4997255	PROB	n/a	LTP301	ltpFR2	5	n/a	n/a	n/a	35	16	7	5	4
5000357	PROB	n/a	LTP301	ltpFR2	5	n/a	n/a	n/a	35	16	7	1	8
5002827	PROB	n/a	LTP301	ltpFR2	5	n/a	n/a	n/a	35	13	6	1	6
5005595	PROB	n/a	LTP301	ltpFR2	5	n/a	n/a	n/a	35	9	1	7	1
5007664	PROB	n/a	LTP301	ltpFR2	5	n/a	n/a	n/a	35	16	6	7	3
5009682	PROB	n/a	LTP301	ltpFR2	5	n/a	n/a	n/a	35	16	6	6	4
5011820	STOP	n/a	LTP301	ltpFR2	5	n/a	n/a	n/a	35	n/a	n/a	n/a	n/a
5013068	WORD	wordpools/wasnorm_wordpool_576.txt	LTP301	ltpFR2	5	24	MAILMAN	858	n/a	n/a	0	0	0
5015553	WORD	wordpools/wasnorm_wordpool_576.txt	LTP301	ltpFR2	5	24	STAMP	1370	n/a	n/a	0	0	0
5018038	WORD	wordpools/wasnorm_wordpool_576.txt	LTP301	ltpFR2	5	24	DRILL	497	n/a	n/a	0	0	0
5020642	WORD	wordpools/wasnorm_wordpool_576.txt	LTP301	ltpFR2	5	24	BLENDER	136	n/a	n/a	0	0	0
5023193	WORD	wordpools/wasnorm_wordpool_576.txt	LTP301	ltpFR2	5	24	PUDDING	1139	n/a	n/a	0	0	0
5025896	WORD	wordpools/wasnorm_wordpool_576.txt	LTP301	ltpFR2	5	24	GLOVE	642	n/a	n/a	0	0	0
5028480	WORD	wordpools/wasnorm_wordpool_576.txt	LTP301	ltpFR2	5	24	VALLEY	1545	n/a	n/a	0	0	0
5031300	WORD	wordpools/wasnorm_wordpool_576.txt	LTP301	ltpFR2	5	24	SALMON	1227	n/a	n/a	0	0	0
5034085	WORD	wordpools/wasnorm_wordpool_576.txt	LTP301	ltpFR2	5	24	DOUGHNUT	490	n/a	n/a	0	0	0
5036838	WORD	wordpools/wasnorm_wordpool_576.txt	LTP301	ltpFR2	5	24	GLASS	639	n/a	n/a	0	0	0
5039523	WORD	wordpools/wasnorm_wordpool_576.txt	LTP301	ltpFR2	5	24	BINDER	127	n/a	n/a	0	0	0
5042258	WORD	wordpools/wasnorm_wordpool_576.txt	LTP301	ltpFR2	5	24	TOASTER	1472	n/a	n/a	0	0	0
5044832	WORD	wordpools/wasnorm_wordpool_576.txt	LTP301	ltpFR2	5	24	WASHER	1592	n/a	n/a	0	0	0
5047650	WORD	wordpools/wasnorm_wordpool_576.txt	LTP301	ltpFR2	5	24	TROUT	1511	n/a	n/a	0	0	0
5050139	WORD	wordpools/wasnorm_wordpool_576.txt	LTP301	ltpFR2	5	24	DONOR	485	n/a	n/a	0	0	0
5052738	WORD	wordpools/wasnorm_wordpool_576.txt	LTP301	ltpFR2	5	24	FLESH	579	n/a	n/a	0	0	0
5055360	WORD	wordpools/wasnorm_wordpool_576.txt	LTP301	ltpFR2	5	24	CHURCH	307	n/a	n/a	0	0	0
5057792	WORD	wordpools/wasnorm_wordpool_576.txt	LTP301	ltpFR2	5	24	PANTHER	1009	n/a	n/a	0	0	0
5060276	WORD	wordpools/wasnorm_wordpool_576.txt	LTP301	ltpFR2	5	24	WINDOW	1611	n/a	n/a	0	0	0
5062980	WORD	wordpools/wasnorm_wordpool_576.txt	LTP301	ltpFR2	5	24	DRAWING	494	n/a	n/a	0	0	0
5065649	WORD	wordpools/wasnorm_wordpool_576.txt	LTP301	ltpFR2	5	24	LUGGAGE	847	n/a	n/a	0	0	0
5068337	WORD	wordpools/wasnorm_wordpool_576.txt	LTP301	ltpFR2	5	24	SHARK	1275	n/a	n/a	0	0	0
5070936	WORD	wordpools/wasnorm_wordpool_576.txt	LTP301	ltpFR2	5	24	FREEZER	604	n/a	n/a	0	0	0
5073692	WORD	wordpools/wasnorm_wordpool_576.txt	LTP301	ltpFR2	5	24	GIRL	637	n/a	n/a	0	0	0
5075306	START	n/a	LTP301	ltpFR2	5	n/a	n/a	n/a	36	n/a	n/a	n/a	n/a
5076139	DISTRACTOR	n/a	LTP301	ltpFR2	5	24	n/a	n/a	n/a	n/a	0	0	0
5076156	PROB	n/a	LTP301	ltpFR2	5	n/a	n/a	n/a	36	8	2	2	4
5080308	PROB	n/a	LTP301	ltpFR2	5	n/a	n/a	n/a	36	13	1	6	6
5082076	PROB	n/a	LTP301	ltpFR2	5	n/a	n/a	n/a	36	7	2	1	4
5085396	PROB	n/a	LTP301	ltpFR2	5	n/a	n/a	n/a	36	16	2	6	6
5087515	PROB	n/a	LTP301	ltpFR2	5	n/a	n/a	n/a	36	9	5	3	1
5090820	PROB	n/a	LTP301	ltpFR2	5	n/a	n/a	n/a	36	7	1	1	5
5092855	PROB	n/a	LTP301	ltpFR2	5	n/a	n/a	n/a	36	18	9	1	8
5094707	PROB	n/a	LTP301	ltpFR2	5	n/a	n/a	n/a	36	12	4	1	7
5099306	STOP	n/a	LTP301	ltpFR2	5	n/a	n/a	n/a	36	n/a	n/a	n/a	n/a
5101229	REC_START	n/a	LTP301	ltpFR2	5	24	n/a	n/a	n/a	n/a	0	0	0
5102064	REC_WORD	wordpools/wasnorm_wordpool_576.txt	LTP301	ltpFR2	5	24	WINDOW	1611	n/a	n/a	0	0	0
5103062	REC_WORD	wordpools/wasnorm_wordpool_576.txt	LTP301	ltpFR2	5	24	LUGGAGE	847	n/a	n/a	0	0	0
5104787	REC_WORD	wordpools/wasnorm_wordpool_576.txt	LTP301	ltpFR2	5	24	GIRL	637	n/a	n/a	0	0	0
5108527	REC_WORD	wordpools/wasnorm_wordpool_576.txt	LTP301	ltpFR2	5	24	MAMMAL	861	n/a	n/a	0	0	0
5117485	REC_WORD	wordpools/wasnorm_wordpool_576.txt	LTP301	ltpFR2	5	24	PANTHER	1009	n/a	n/a	0	0	0
5121862	REC_WORD	wordpools/wasnorm_wordpool_576.txt	LTP301	ltpFR2	5	24	MAILMAN	858	n/a	n/a	0	0	0
5123698	REC_WORD	wordpools/wasnorm_wordpool_576.txt	LTP301	ltpFR2	5	24	STAMP	1370	n/a	n/a	0	0	0
5134144	REC_WORD	wordpools/wasnorm_wordpool_576.txt	LTP301	ltpFR2	5	24	POSTAGE	1113	n/a	n/a	0	0	0
5181409	SESS_END	n/a	LTP301	ltpFR2	5	24	n/a	n/a	n/a	n/a	0	0	0
