onset	duration	trial_type	sample	stim_file	subject	experiment	session	trial	task	item_name	item_num	recog_resp	recog_conf	resp	color_r	color_g	color_b	case	font
248.146	n/a	SESS_START	124073	n/a	LTP260	ltpFR	3	n/a	n/a	n/a	n/a	1	3	n/a	n/a	n/a	n/a	n/a	n/a
353.608	n/a	WORD	176804	wordpools/wasnorm_wordpool_less_exclusions.txt	LTP260	ltpFR	3	1	1	BATH	98	0	n/a	0	0.422607421875	0.5869140625	0	lower	amplitud.ttf
357.59	n/a	WORD	178795	wordpools/wasnorm_wordpool_less_exclusions.txt	LTP260	ltpFR	3	1	1	WATER	1594	n/a	n/a	0	0.422607421875	0.5869140625	0	lower	amplitud.ttf
361.79	n/a	WORD	180895	wordpools/wasnorm_wordpool_less_exclusions.txt	LTP260	ltpFR	3	1	1	CHEF	290	n/a	n/a	1	0.422607421875	0.5869140625	0	lower	amplitud.ttf
365.838	n/a	WORD	182919	wordpools/wasnorm_wordpool_less_exclusions.txt	LTP260	ltpFR	3	1	1	SPATULA	1348	n/a	n/a	0	0.422607421875	0.5869140625	0	lower	amplitud.ttf
369.92	n/a	WORD	184960	wordpools/wasnorm_wordpool_less_exclusions.txt	LTP260	ltpFR	3	1	0	MACARONI	851	n/a	n/a	0	0.57763671875	0.412841796875	1	upper	zerothre.ttf
373.836	n/a	WORD	186918	wordpools/wasnorm_wordpool_less_exclusions.txt	LTP260	ltpFR	3	1	0	RUNNER	1218	n/a	n/a	1	0.57763671875	0.412841796875	1	upper	zerothre.ttf
377.834	n/a	WORD	188917	wordpools/wasnorm_wordpool_less_exclusions.txt	LTP260	ltpFR	3	1	0	CLOUD	328	n/a	n/a	1	0.57763671875	0.412841796875	1	upper	zerothre.ttf
381.766	n/a	WORD	190883	wordpools/wasnorm_wordpool_less_exclusions.txt	LTP260	ltpFR	3	1	0	CANDIDATE	228	n/a	n/a	1	0.57763671875	0.412841796875	1	upper	zerothre.ttf
385.664	n/a	WORD	192832	wordpools/wasnorm_wordpool_less_exclusions.txt	LTP260	ltpFR	3	1	1	DRUM	502	n/a	n/a	0	0.422607421875	0.5869140625	0	lower	amplitud.ttf
389.596	n/a	WORD	194798	wordpools/wasnorm_wordpool_less_exclusions.txt	LTP260	ltpFR	3	1	1	SPAGHETTI	1346	n/a	n/a	0	0.422607421875	0.5869140625	0	lower	amplitud.ttf
393.628	n/a	WORD	196814	wordpools/wasnorm_wordpool_less_exclusions.txt	LTP260	ltpFR	3	1	1	POOL	1103	n/a	n/a	0	0.422607421875	0.5869140625	0	lower	amplitud.ttf
397.644	n/a	WORD	198822	wordpools/wasnorm_wordpool_less_exclusions.txt	LTP260	ltpFR	3	1	1	ATHLETE	52	n/a	n/a	1	0.422607421875	0.5869140625	0	lower	amplitud.ttf
401.476	n/a	WORD	200738	wordpools/wasnorm_wordpool_less_exclusions.txt	LTP260	ltpFR	3	1	0	BRIEFCASE	175	n/a	n/a	1	0.57763671875	0.412841796875	1	upper	zerothre.ttf
405.556	n/a	WORD	202778	wordpools/wasnorm_wordpool_less_exclusions.txt	LTP260	ltpFR	3	1	0	JUDGE	761	n/a	n/a	1	0.57763671875	0.412841796875	1	upper	zerothre.ttf
409.756	n/a	WORD	204878	wordpools/wasnorm_wordpool_less_exclusions.txt	LTP260	ltpFR	3	1	0	LILY	821	n/a	n/a	0	0.57763671875	0.412841796875	1	upper	zerothre.ttf
413.654	n/a	WORD	206827	wordpools/wasnorm_wordpool_less_exclusions.txt	LTP260	ltpFR	3	1	0	TULIP	1517	n/a	n/a	0	0.57763671875	0.412841796875	1	upper	zerothre.ttf
419.546	n/a	REC_START	209773	n/a	LTP260	ltpFR	3	1	n/a	n/a	n/a	n/a	n/a	n/a	n/a	n/a	n/a	n/a	n/a
420.358	n/a	REC_WORD	210179	wordpools/wasnorm_wordpool_less_exclusions.txt	LTP260	ltpFR	3	1	0	LILY	821	n/a	n/a	0	n/a	n/a	n/a	n/a	n/a
421.59	n/a	REC_WORD	210795	wordpools/wasnorm_wordpool_less_exclusions.txt	LTP260	ltpFR	3	1	0	TULIP	1517	n/a	n/a	0	n/a	n/a	n/a	n/a	n/a
422.908	n/a	REC_WORD	211454	wordpools/wasnorm_wordpool_less_exclusions.txt	LTP260	ltpFR	3	1	0	CLOUD	328	n/a	n/a	1	n/a	n/a	n/a	n/a	n/a
424.288	n/a	REC_WORD	212144	wordpools/wasnorm_wordpool_less_exclusions.txt	LTP260	ltpFR	3	1	0	RUNNER	1218	n/a	n/a	1	n/a	n/a	n/a	n/a	n/a
425.722	n/a	REC_WORD	212861	wordpools/wasnorm_wordpool_less_exclusions.txt	LTP260	ltpFR	3	1	1	ATHLETE	52	n/a	n/a	1	n/a	n/a	n/a	n/a	n/a
427.102	n/a	REC_WORD	213551	wordpools/wasnorm_wordpool_less_exclusions.txt	LTP260	ltpFR	3	1	0	JUDGE	761	n/a	n/a	1	n/a	n/a	n/a	n/a	n/a
428.372	n/a	REC_WORD	214186	wordpools/wasnorm_wordpool_less_exclusions.txt	LTP260	ltpFR	3	1	0	BRIEFCASE	175	n/a	n/a	1	n/a	n/a	n/a	n/a	n/a
429.762	n/a	REC_WORD	214881	wordpools/wasnorm_wordpool_less_exclusions.txt	LTP260	ltpFR	3	1	1	BATH	98	n/a	n/a	0	n/a	n/a	n/a	n/a	n/a
431.15	n/a	REC_WORD	215575	wordpools/wasnorm_wordpool_less_exclusions.txt	LTP260	ltpFR	3	1	1	WATER	1594	n/a	n/a	0	n/a	n/a	n/a	n/a	n/a
432.84	n/a	REC_WORD	216420	wordpools/wasnorm_wordpool_less_exclusions.txt	LTP260	ltpFR	3	1	1	CHEF	290	n/a	n/a	1	n/a	n/a	n/a	n/a	n/a
434.144	n/a	REC_WORD	217072	wordpools/wasnorm_wordpool_less_exclusions.txt	LTP260	ltpFR	3	1	1	SPATULA	1348	n/a	n/a	0	n/a	n/a	n/a	n/a	n/a
436.448	n/a	REC_WORD	218224	wordpools/wasnorm_wordpool_less_exclusions.txt	LTP260	ltpFR	3	1	0	MACARONI	851	n/a	n/a	0	n/a	n/a	n/a	n/a	n/a
437.998	n/a	REC_WORD	218999	wordpools/wasnorm_wordpool_less_exclusions.txt	LTP260	ltpFR	3	1	1	SPAGHETTI	1346	n/a	n/a	0	n/a	n/a	n/a	n/a	n/a
440.31	n/a	REC_WORD	220155	wordpools/wasnorm_wordpool_less_exclusions.txt	LTP260	ltpFR	3	1	0	CANDIDATE	228	n/a	n/a	1	n/a	n/a	n/a	n/a	n/a
500.82	n/a	WORD	250410	wordpools/wasnorm_wordpool_less_exclusions.txt	LTP260	ltpFR	3	2	0	SPIT	1354	n/a	n/a	0	0.57763671875	0.412841796875	1	upper	zerothre.ttf
504.736	n/a	WORD	252368	wordpools/wasnorm_wordpool_less_exclusions.txt	LTP260	ltpFR	3	2	0	WASHER	1592	n/a	n/a	1	0.57763671875	0.412841796875	1	upper	zerothre.ttf
508.734	n/a	WORD	254367	wordpools/wasnorm_wordpool_less_exclusions.txt	LTP260	ltpFR	3	2	0	CHEST	295	n/a	n/a	1	0.57763671875	0.412841796875	1	upper	zerothre.ttf
512.734	n/a	WORD	256367	wordpools/wasnorm_wordpool_less_exclusions.txt	LTP260	ltpFR	3	2	1	FUR	615	n/a	n/a	0	0.422607421875	0.5869140625	0	lower	amplitud.ttf
516.882	n/a	WORD	258441	wordpools/wasnorm_wordpool_less_exclusions.txt	LTP260	ltpFR	3	2	1	UNIFORM	1539	n/a	n/a	0	0.422607421875	0.5869140625	0	lower	amplitud.ttf
520.93	n/a	WORD	260465	wordpools/wasnorm_wordpool_less_exclusions.txt	LTP260	ltpFR	3	2	1	LIZARD	834	n/a	n/a	1	0.422607421875	0.5869140625	0	lower	amplitud.ttf
525.148	n/a	WORD	262574	wordpools/wasnorm_wordpool_less_exclusions.txt	LTP260	ltpFR	3	2	1	CRAB	397	n/a	n/a	1	0.422607421875	0.5869140625	0	lower	amplitud.ttf
529.348	n/a	WORD	264674	wordpools/wasnorm_wordpool_less_exclusions.txt	LTP260	ltpFR	3	2	1	BAKER	71	n/a	n/a	1	0.422607421875	0.5869140625	0	lower	amplitud.ttf
533.312	n/a	WORD	266656	wordpools/wasnorm_wordpool_less_exclusions.txt	LTP260	ltpFR	3	2	1	CHAMPAGNE	278	n/a	n/a	0	0.422607421875	0.5869140625	0	lower	amplitud.ttf
537.16	n/a	WORD	268580	wordpools/wasnorm_wordpool_less_exclusions.txt	LTP260	ltpFR	3	2	0	DRINK	498	n/a	n/a	1	0.57763671875	0.412841796875	1	upper	zerothre.ttf
541.108	n/a	WORD	270554	wordpools/wasnorm_wordpool_less_exclusions.txt	LTP260	ltpFR	3	2	0	COBRA	336	n/a	n/a	0	0.57763671875	0.412841796875	1	upper	zerothre.ttf
545.31	n/a	WORD	272655	wordpools/wasnorm_wordpool_less_exclusions.txt	LTP260	ltpFR	3	2	0	SHERIFF	1284	n/a	n/a	0	0.57763671875	0.412841796875	1	upper	zerothre.ttf
549.372	n/a	WORD	274686	wordpools/wasnorm_wordpool_less_exclusions.txt	LTP260	ltpFR	3	2	1	COTTAGE	384	n/a	n/a	0	0.422607421875	0.5869140625	0	lower	amplitud.ttf
553.44	n/a	WORD	276720	wordpools/wasnorm_wordpool_less_exclusions.txt	LTP260	ltpFR	3	2	1	JUNGLE	764	n/a	n/a	0	0.422607421875	0.5869140625	0	lower	amplitud.ttf
557.522	n/a	WORD	278761	wordpools/wasnorm_wordpool_less_exclusions.txt	LTP260	ltpFR	3	2	0	SUBMARINE	1398	n/a	n/a	1	0.57763671875	0.412841796875	1	upper	zerothre.ttf
561.554	n/a	WORD	280777	wordpools/wasnorm_wordpool_less_exclusions.txt	LTP260	ltpFR	3	2	0	WEED	1599	n/a	n/a	0	0.57763671875	0.412841796875	1	upper	zerothre.ttf
567.16	n/a	REC_START	283580	n/a	LTP260	ltpFR	3	2	n/a	n/a	n/a	n/a	n/a	n/a	n/a	n/a	n/a	n/a	n/a
568.59	n/a	REC_WORD	284295	wordpools/wasnorm_wordpool_less_exclusions.txt	LTP260	ltpFR	3	2	0	WEED	1599	n/a	n/a	0	n/a	n/a	n/a	n/a	n/a
569.884	n/a	REC_WORD	284942	wordpools/wasnorm_wordpool_less_exclusions.txt	LTP260	ltpFR	3	2	1	LIZARD	834	n/a	n/a	1	n/a	n/a	n/a	n/a	n/a
573.552	n/a	REC_WORD	286776	wordpools/wasnorm_wordpool_less_exclusions.txt	LTP260	ltpFR	3	2	1	JUNGLE	764	n/a	n/a	0	n/a	n/a	n/a	n/a	n/a
579.066	n/a	REC_WORD	289533	wordpools/wasnorm_wordpool_less_exclusions.txt	LTP260	ltpFR	3	2	1	CHAMPAGNE	278	n/a	n/a	0	n/a	n/a	n/a	n/a	n/a
581.524	n/a	REC_WORD	290762	wordpools/wasnorm_wordpool_less_exclusions.txt	LTP260	ltpFR	3	2	1	COTTAGE	384	n/a	n/a	0	n/a	n/a	n/a	n/a	n/a
585.036	n/a	REC_WORD	292518	wordpools/wasnorm_wordpool_less_exclusions.txt	LTP260	ltpFR	3	2	n/a	SNAKE	1333	n/a	n/a	n/a	n/a	n/a	n/a	n/a	n/a
590.322	n/a	REC_WORD	295161	wordpools/wasnorm_wordpool_less_exclusions.txt	LTP260	ltpFR	3	2	0	CHEST	295	n/a	n/a	1	n/a	n/a	n/a	n/a	n/a
602.506	n/a	REC_WORD	301253	wordpools/wasnorm_wordpool_less_exclusions.txt	LTP260	ltpFR	3	2	0	SPIT	1354	n/a	n/a	0	n/a	n/a	n/a	n/a	n/a
615.558	n/a	REC_WORD	307779	wordpools/wasnorm_wordpool_less_exclusions.txt	LTP260	ltpFR	3	2	0	COBRA	336	n/a	n/a	0	n/a	n/a	n/a	n/a	n/a
648.52	n/a	WORD	324260	wordpools/wasnorm_wordpool_less_exclusions.txt	LTP260	ltpFR	3	3	-1	BUGLE	189	n/a	n/a	-1	1.0	1.0	1	upper	Verdana.ttf
652.564	n/a	WORD	326282	wordpools/wasnorm_wordpool_less_exclusions.txt	LTP260	ltpFR	3	3	-1	STEREO	1378	n/a	n/a	-1	1.0	1.0	1	upper	Verdana.ttf
656.484	n/a	WORD	328242	wordpools/wasnorm_wordpool_less_exclusions.txt	LTP260	ltpFR	3	3	-1	SHEARS	1276	n/a	n/a	-1	1.0	1.0	1	upper	Verdana.ttf
660.38	n/a	WORD	330190	wordpools/wasnorm_wordpool_less_exclusions.txt	LTP260	ltpFR	3	3	-1	GREASE	660	n/a	n/a	-1	1.0	1.0	1	upper	Verdana.ttf
664.278	n/a	WORD	332139	wordpools/wasnorm_wordpool_less_exclusions.txt	LTP260	ltpFR	3	3	-1	FILM	565	n/a	n/a	-1	1.0	1.0	1	upper	Verdana.ttf
668.11	n/a	WORD	334055	wordpools/wasnorm_wordpool_less_exclusions.txt	LTP260	ltpFR	3	3	-1	SIGN	1305	n/a	n/a	-1	1.0	1.0	1	upper	Verdana.ttf
672.092	n/a	WORD	336046	wordpools/wasnorm_wordpool_less_exclusions.txt	LTP260	ltpFR	3	3	-1	TENT	1449	n/a	n/a	-1	1.0	1.0	1	upper	Verdana.ttf
675.94	n/a	WORD	337970	wordpools/wasnorm_wordpool_less_exclusions.txt	LTP260	ltpFR	3	3	-1	CUPBOARD	425	n/a	n/a	-1	1.0	1.0	1	upper	Verdana.ttf
679.922	n/a	WORD	339961	wordpools/wasnorm_wordpool_less_exclusions.txt	LTP260	ltpFR	3	3	-1	SHINGLE	1285	n/a	n/a	-1	1.0	1.0	1	upper	Verdana.ttf
683.884	n/a	WORD	341942	wordpools/wasnorm_wordpool_less_exclusions.txt	LTP260	ltpFR	3	3	-1	TOMATO	1476	n/a	n/a	-1	1.0	1.0	1	upper	Verdana.ttf
688.036	n/a	WORD	344018	wordpools/wasnorm_wordpool_less_exclusions.txt	LTP260	ltpFR	3	3	-1	SALT	1229	n/a	n/a	-1	1.0	1.0	1	upper	Verdana.ttf
691.984	n/a	WORD	345992	wordpools/wasnorm_wordpool_less_exclusions.txt	LTP260	ltpFR	3	3	-1	SIDING	1304	n/a	n/a	-1	1.0	1.0	1	upper	Verdana.ttf
696.034	n/a	WORD	348017	wordpools/wasnorm_wordpool_less_exclusions.txt	LTP260	ltpFR	3	3	-1	EYELASH	546	n/a	n/a	-1	1.0	1.0	1	upper	Verdana.ttf
700.234	n/a	WORD	350117	wordpools/wasnorm_wordpool_less_exclusions.txt	LTP260	ltpFR	3	3	-1	SAGE	1222	n/a	n/a	-1	1.0	1.0	1	upper	Verdana.ttf
704.3	n/a	WORD	352150	wordpools/wasnorm_wordpool_less_exclusions.txt	LTP260	ltpFR	3	3	-1	DECK	443	n/a	n/a	-1	1.0	1.0	1	upper	Verdana.ttf
708.314	n/a	WORD	354157	wordpools/wasnorm_wordpool_less_exclusions.txt	LTP260	ltpFR	3	3	-1	ANCHOR	21	n/a	n/a	-1	1.0	1.0	1	upper	Verdana.ttf
714.222	n/a	REC_START	357111	n/a	LTP260	ltpFR	3	3	n/a	n/a	n/a	n/a	n/a	n/a	n/a	n/a	n/a	n/a	n/a
714.948	n/a	REC_WORD	357474	wordpools/wasnorm_wordpool_less_exclusions.txt	LTP260	ltpFR	3	3	-1	ANCHOR	21	n/a	n/a	-1	n/a	n/a	n/a	n/a	n/a
716.218	n/a	REC_WORD	358109	wordpools/wasnorm_wordpool_less_exclusions.txt	LTP260	ltpFR	3	3	-1	DECK	443	n/a	n/a	-1	n/a	n/a	n/a	n/a	n/a
717.232	n/a	REC_WORD	358616	wordpools/wasnorm_wordpool_less_exclusions.txt	LTP260	ltpFR	3	3	-1	SIDING	1304	n/a	n/a	-1	n/a	n/a	n/a	n/a	n/a
718.46	n/a	REC_WORD	359230	wordpools/wasnorm_wordpool_less_exclusions.txt	LTP260	ltpFR	3	3	-1	SHINGLE	1285	n/a	n/a	-1	n/a	n/a	n/a	n/a	n/a
719.748	n/a	REC_WORD	359874	wordpools/wasnorm_wordpool_less_exclusions.txt	LTP260	ltpFR	3	3	-1	SIGN	1305	n/a	n/a	-1	n/a	n/a	n/a	n/a	n/a
721.196	n/a	REC_WORD	360598	wordpools/wasnorm_wordpool_less_exclusions.txt	LTP260	ltpFR	3	3	-1	BUGLE	189	n/a	n/a	-1	n/a	n/a	n/a	n/a	n/a
722.39	n/a	REC_WORD	361195	wordpools/wasnorm_wordpool_less_exclusions.txt	LTP260	ltpFR	3	3	n/a	CABINET	212	n/a	n/a	n/a	n/a	n/a	n/a	n/a	n/a
723.558	n/a	REC_WORD	361779	wordpools/wasnorm_wordpool_less_exclusions.txt	LTP260	ltpFR	3	3	-1	STEREO	1378	n/a	n/a	-1	n/a	n/a	n/a	n/a	n/a
725.114	n/a	REC_WORD	362557	wordpools/wasnorm_wordpool_less_exclusions.txt	LTP260	ltpFR	3	3	-1	FILM	565	n/a	n/a	-1	n/a	n/a	n/a	n/a	n/a
726.85	n/a	REC_WORD	363425	wordpools/wasnorm_wordpool_less_exclusions.txt	LTP260	ltpFR	3	3	-1	TOMATO	1476	n/a	n/a	-1	n/a	n/a	n/a	n/a	n/a
728.408	n/a	REC_WORD	364204	wordpools/wasnorm_wordpool_less_exclusions.txt	LTP260	ltpFR	3	3	-1	SAGE	1222	n/a	n/a	-1	n/a	n/a	n/a	n/a	n/a
730.608	n/a	REC_WORD	365304	wordpools/wasnorm_wordpool_less_exclusions.txt	LTP260	ltpFR	3	3	-1	SALT	1229	n/a	n/a	-1	n/a	n/a	n/a	n/a	n/a
732.35	n/a	REC_WORD	366175	wordpools/wasnorm_wordpool_less_exclusions.txt	LTP260	ltpFR	3	3	-1	EYELASH	546	n/a	n/a	-1	n/a	n/a	n/a	n/a	n/a
746.648	n/a	REC_WORD	373324	wordpools/wasnorm_wordpool_less_exclusions.txt	LTP260	ltpFR	3	3	-1	TENT	1449	n/a	n/a	-1	n/a	n/a	n/a	n/a	n/a
831.116	n/a	WORD	415558	wordpools/wasnorm_wordpool_less_exclusions.txt	LTP260	ltpFR	3	4	0	BALCONY	72	n/a	n/a	1	0.57763671875	0.412841796875	1	upper	zerothre.ttf
835.014	n/a	WORD	417507	wordpools/wasnorm_wordpool_less_exclusions.txt	LTP260	ltpFR	3	4	0	NEWSSTAND	949	n/a	n/a	1	0.57763671875	0.412841796875	1	upper	zerothre.ttf
839.03	n/a	WORD	419515	wordpools/wasnorm_wordpool_less_exclusions.txt	LTP260	ltpFR	3	4	0	PAINTING	1005	n/a	n/a	1	0.57763671875	0.412841796875	1	upper	zerothre.ttf
843.164	n/a	WORD	421582	wordpools/wasnorm_wordpool_less_exclusions.txt	LTP260	ltpFR	3	4	0	PICTURE	1061	n/a	n/a	1	0.57763671875	0.412841796875	1	upper	zerothre.ttf
847.296	n/a	WORD	423648	wordpools/wasnorm_wordpool_less_exclusions.txt	LTP260	ltpFR	3	4	0	ROCKET	1202	n/a	n/a	1	0.57763671875	0.412841796875	1	upper	zerothre.ttf
851.396	n/a	WORD	425698	wordpools/wasnorm_wordpool_less_exclusions.txt	LTP260	ltpFR	3	4	0	HANDKERCHIEF	686	n/a	n/a	0	0.57763671875	0.412841796875	1	upper	zerothre.ttf
855.544	n/a	WORD	427772	wordpools/wasnorm_wordpool_less_exclusions.txt	LTP260	ltpFR	3	4	0	LAVA	804	n/a	n/a	1	0.57763671875	0.412841796875	1	upper	zerothre.ttf
859.642	n/a	WORD	429821	wordpools/wasnorm_wordpool_less_exclusions.txt	LTP260	ltpFR	3	4	0	WAREHOUSE	1588	n/a	n/a	1	0.57763671875	0.412841796875	1	upper	zerothre.ttf
863.772	n/a	WORD	431886	wordpools/wasnorm_wordpool_less_exclusions.txt	LTP260	ltpFR	3	4	0	POSSUM	1112	n/a	n/a	1	0.57763671875	0.412841796875	1	upper	zerothre.ttf
867.688	n/a	WORD	433844	wordpools/wasnorm_wordpool_less_exclusions.txt	LTP260	ltpFR	3	4	0	DISH	474	n/a	n/a	0	0.57763671875	0.412841796875	1	upper	zerothre.ttf
871.522	n/a	WORD	435761	wordpools/wasnorm_wordpool_less_exclusions.txt	LTP260	ltpFR	3	4	0	CONTAINER	366	n/a	n/a	0	0.57763671875	0.412841796875	1	upper	zerothre.ttf
875.616	n/a	WORD	437808	wordpools/wasnorm_wordpool_less_exclusions.txt	LTP260	ltpFR	3	4	0	CHIPMUNK	304	n/a	n/a	0	0.57763671875	0.412841796875	1	upper	zerothre.ttf
879.702	n/a	WORD	439851	wordpools/wasnorm_wordpool_less_exclusions.txt	LTP260	ltpFR	3	4	0	CAPTAIN	239	n/a	n/a	1	0.57763671875	0.412841796875	1	upper	zerothre.ttf
883.634	n/a	WORD	441817	wordpools/wasnorm_wordpool_less_exclusions.txt	LTP260	ltpFR	3	4	0	BOSS	152	n/a	n/a	1	0.57763671875	0.412841796875	1	upper	zerothre.ttf
887.45	n/a	WORD	443725	wordpools/wasnorm_wordpool_less_exclusions.txt	LTP260	ltpFR	3	4	0	PORK	1108	n/a	n/a	1	0.57763671875	0.412841796875	1	upper	zerothre.ttf
891.662	n/a	WORD	445831	wordpools/wasnorm_wordpool_less_exclusions.txt	LTP260	ltpFR	3	4	0	PUPIL	1143	n/a	n/a	0	0.57763671875	0.412841796875	1	upper	zerothre.ttf
897.338	n/a	REC_START	448669	n/a	LTP260	ltpFR	3	4	n/a	n/a	n/a	n/a	n/a	n/a	n/a	n/a	n/a	n/a	n/a
898.502	n/a	REC_WORD	449251	wordpools/wasnorm_wordpool_less_exclusions.txt	LTP260	ltpFR	3	4	0	PUPIL	1143	n/a	n/a	0	n/a	n/a	n/a	n/a	n/a
900.97	n/a	REC_WORD	450485	wordpools/wasnorm_wordpool_less_exclusions.txt	LTP260	ltpFR	3	4	0	PORK	1108	n/a	n/a	1	n/a	n/a	n/a	n/a	n/a
902.87	n/a	REC_WORD	451435	wordpools/wasnorm_wordpool_less_exclusions.txt	LTP260	ltpFR	3	4	0	BALCONY	72	n/a	n/a	1	n/a	n/a	n/a	n/a	n/a
904.414	n/a	REC_WORD	452207	wordpools/wasnorm_wordpool_less_exclusions.txt	LTP260	ltpFR	3	4	0	POSSUM	1112	n/a	n/a	1	n/a	n/a	n/a	n/a	n/a
905.832	n/a	REC_WORD	452916	wordpools/wasnorm_wordpool_less_exclusions.txt	LTP260	ltpFR	3	4	0	CHIPMUNK	304	n/a	n/a	0	n/a	n/a	n/a	n/a	n/a
907.912	n/a	REC_WORD	453956	wordpools/wasnorm_wordpool_less_exclusions.txt	LTP260	ltpFR	3	4	0	LAVA	804	n/a	n/a	1	n/a	n/a	n/a	n/a	n/a
910.048	n/a	REC_WORD	455024	wordpools/wasnorm_wordpool_less_exclusions.txt	LTP260	ltpFR	3	4	0	NEWSSTAND	949	n/a	n/a	1	n/a	n/a	n/a	n/a	n/a
913.262	n/a	REC_WORD	456631	wordpools/wasnorm_wordpool_less_exclusions.txt	LTP260	ltpFR	3	4	0	WAREHOUSE	1588	n/a	n/a	1	n/a	n/a	n/a	n/a	n/a
914.832	n/a	REC_WORD	457416	wordpools/wasnorm_wordpool_less_exclusions.txt	LTP260	ltpFR	3	4	0	PAINTING	1005	n/a	n/a	1	n/a	n/a	n/a	n/a	n/a
916.408	n/a	REC_WORD	458204	wordpools/wasnorm_wordpool_less_exclusions.txt	LTP260	ltpFR	3	4	0	PICTURE	1061	n/a	n/a	1	n/a	n/a	n/a	n/a	n/a
919.494	n/a	REC_WORD	459747	wordpools/wasnorm_wordpool_less_exclusions.txt	LTP260	ltpFR	3	4	0	ROCKET	1202	n/a	n/a	1	n/a	n/a	n/a	n/a	n/a
922.984	n/a	REC_WORD	461492	wordpools/wasnorm_wordpool_less_exclusions.txt	LTP260	ltpFR	3	4	0	CAPTAIN	239	n/a	n/a	1	n/a	n/a	n/a	n/a	n/a
978.212	n/a	WORD	489106	wordpools/wasnorm_wordpool_less_exclusions.txt	LTP260	ltpFR	3	5	-1	SCALPEL	1243	n/a	n/a	-1	1.0	1.0	1	upper	Verdana.ttf
982.346	n/a	WORD	491173	wordpools/wasnorm_wordpool_less_exclusions.txt	LTP260	ltpFR	3	5	-1	JOURNAL	760	n/a	n/a	-1	1.0	1.0	1	upper	Verdana.ttf
986.21	n/a	WORD	493105	wordpools/wasnorm_wordpool_less_exclusions.txt	LTP260	ltpFR	3	5	-1	PROTON	1132	n/a	n/a	-1	1.0	1.0	1	upper	Verdana.ttf
990.392	n/a	WORD	495196	wordpools/wasnorm_wordpool_less_exclusions.txt	LTP260	ltpFR	3	5	-1	BAY	102	n/a	n/a	-1	1.0	1.0	1	upper	Verdana.ttf
994.474	n/a	WORD	497237	wordpools/wasnorm_wordpool_less_exclusions.txt	LTP260	ltpFR	3	5	-1	PEDAL	1037	n/a	n/a	-1	1.0	1.0	1	upper	Verdana.ttf
998.356	n/a	WORD	499178	wordpools/wasnorm_wordpool_less_exclusions.txt	LTP260	ltpFR	3	5	-1	TRICYCLE	1506	n/a	n/a	-1	1.0	1.0	1	upper	Verdana.ttf
1002.238	n/a	WORD	501119	wordpools/wasnorm_wordpool_less_exclusions.txt	LTP260	ltpFR	3	5	-1	MEDAL	885	n/a	n/a	-1	1.0	1.0	1	upper	Verdana.ttf
1006.102	n/a	WORD	503051	wordpools/wasnorm_wordpool_less_exclusions.txt	LTP260	ltpFR	3	5	-1	ICEBERG	731	n/a	n/a	-1	1.0	1.0	1	upper	Verdana.ttf
1010.252	n/a	WORD	505126	wordpools/wasnorm_wordpool_less_exclusions.txt	LTP260	ltpFR	3	5	-1	DEPUTY	450	n/a	n/a	-1	1.0	1.0	1	upper	Verdana.ttf
1014.148	n/a	WORD	507074	wordpools/wasnorm_wordpool_less_exclusions.txt	LTP260	ltpFR	3	5	-1	SATURN	1236	n/a	n/a	-1	1.0	1.0	1	upper	Verdana.ttf
1018.366	n/a	WORD	509183	wordpools/wasnorm_wordpool_less_exclusions.txt	LTP260	ltpFR	3	5	-1	SPACE	1345	n/a	n/a	-1	1.0	1.0	1	upper	Verdana.ttf
1022.432	n/a	WORD	511216	wordpools/wasnorm_wordpool_less_exclusions.txt	LTP260	ltpFR	3	5	-1	BADGE	68	n/a	n/a	-1	1.0	1.0	1	upper	Verdana.ttf
1026.38	n/a	WORD	513190	wordpools/wasnorm_wordpool_less_exclusions.txt	LTP260	ltpFR	3	5	-1	TREASURE	1500	n/a	n/a	-1	1.0	1.0	1	upper	Verdana.ttf
1030.212	n/a	WORD	515106	wordpools/wasnorm_wordpool_less_exclusions.txt	LTP260	ltpFR	3	5	-1	WHALE	1601	n/a	n/a	-1	1.0	1.0	1	upper	Verdana.ttf
1034.36	n/a	WORD	517180	wordpools/wasnorm_wordpool_less_exclusions.txt	LTP260	ltpFR	3	5	-1	BOULEVARD	156	n/a	n/a	-1	1.0	1.0	1	upper	Verdana.ttf
1038.46	n/a	WORD	519230	wordpools/wasnorm_wordpool_less_exclusions.txt	LTP260	ltpFR	3	5	-1	HIGHWAY	707	n/a	n/a	-1	1.0	1.0	1	upper	Verdana.ttf
1044.284	n/a	REC_START	522142	n/a	LTP260	ltpFR	3	5	n/a	n/a	n/a	n/a	n/a	n/a	n/a	n/a	n/a	n/a	n/a
1045.164	n/a	REC_WORD	522582	wordpools/wasnorm_wordpool_less_exclusions.txt	LTP260	ltpFR	3	5	-1	HIGHWAY	707	n/a	n/a	-1	n/a	n/a	n/a	n/a	n/a
1046.572	n/a	REC_WORD	523286	wordpools/wasnorm_wordpool_less_exclusions.txt	LTP260	ltpFR	3	5	-1	BOULEVARD	156	n/a	n/a	-1	n/a	n/a	n/a	n/a	n/a
1047.934	n/a	REC_WORD	523967	wordpools/wasnorm_wordpool_less_exclusions.txt	LTP260	ltpFR	3	5	-1	BAY	102	n/a	n/a	-1	n/a	n/a	n/a	n/a	n/a
1049.106	n/a	REC_WORD	524553	wordpools/wasnorm_wordpool_less_exclusions.txt	LTP260	ltpFR	3	5	-1	ICEBERG	731	n/a	n/a	-1	n/a	n/a	n/a	n/a	n/a
1050.4	n/a	REC_WORD	525200	wordpools/wasnorm_wordpool_less_exclusions.txt	LTP260	ltpFR	3	5	-1	WHALE	1601	n/a	n/a	-1	n/a	n/a	n/a	n/a	n/a
1052.266	n/a	REC_WORD	526133	wordpools/wasnorm_wordpool_less_exclusions.txt	LTP260	ltpFR	3	5	-1	DEPUTY	450	n/a	n/a	-1	n/a	n/a	n/a	n/a	n/a
1053.956	n/a	REC_WORD	526978	wordpools/wasnorm_wordpool_less_exclusions.txt	LTP260	ltpFR	3	5	-1	PEDAL	1037	n/a	n/a	-1	n/a	n/a	n/a	n/a	n/a
1055.252	n/a	REC_WORD	527626	wordpools/wasnorm_wordpool_less_exclusions.txt	LTP260	ltpFR	3	5	-1	MEDAL	885	n/a	n/a	-1	n/a	n/a	n/a	n/a	n/a
1056.738	n/a	REC_WORD	528369	wordpools/wasnorm_wordpool_less_exclusions.txt	LTP260	ltpFR	3	5	-1	TRICYCLE	1506	n/a	n/a	-1	n/a	n/a	n/a	n/a	n/a
1062.292	n/a	REC_WORD	531146	wordpools/wasnorm_wordpool_less_exclusions.txt	LTP260	ltpFR	3	5	-1	SPACE	1345	n/a	n/a	-1	n/a	n/a	n/a	n/a	n/a
1063.546	n/a	REC_WORD	531773	wordpools/wasnorm_wordpool_less_exclusions.txt	LTP260	ltpFR	3	5	-1	SATURN	1236	n/a	n/a	-1	n/a	n/a	n/a	n/a	n/a
1064.9	n/a	REC_WORD	532450	wordpools/wasnorm_wordpool_less_exclusions.txt	LTP260	ltpFR	3	5	-1	TREASURE	1500	n/a	n/a	-1	n/a	n/a	n/a	n/a	n/a
1081.104	n/a	REC_WORD	540552	wordpools/wasnorm_wordpool_less_exclusions.txt	LTP260	ltpFR	3	5	-1	JOURNAL	760	n/a	n/a	-1	n/a	n/a	n/a	n/a	n/a
1082.244	n/a	REC_WORD	541122	wordpools/wasnorm_wordpool_less_exclusions.txt	LTP260	ltpFR	3	5	-1	SCALPEL	1243	n/a	n/a	-1	n/a	n/a	n/a	n/a	n/a
1094.874	n/a	REC_WORD	547437	wordpools/wasnorm_wordpool_less_exclusions.txt	LTP260	ltpFR	3	5	-1	PROTON	1132	n/a	n/a	-1	n/a	n/a	n/a	n/a	n/a
1113.93	n/a	REC_WORD	556965	wordpools/wasnorm_wordpool_less_exclusions.txt	LTP260	ltpFR	3	5	-1	BADGE	68	n/a	n/a	-1	n/a	n/a	n/a	n/a	n/a
1160.608	n/a	WORD	580304	wordpools/wasnorm_wordpool_less_exclusions.txt	LTP260	ltpFR	3	6	-1	PIE	1062	n/a	n/a	-1	1.0	1.0	1	upper	Verdana.ttf
1164.492	n/a	WORD	582246	wordpools/wasnorm_wordpool_less_exclusions.txt	LTP260	ltpFR	3	6	-1	JELLO	754	n/a	n/a	-1	1.0	1.0	1	upper	Verdana.ttf
1168.372	n/a	WORD	584186	wordpools/wasnorm_wordpool_less_exclusions.txt	LTP260	ltpFR	3	6	-1	BACK	65	n/a	n/a	-1	1.0	1.0	1	upper	Verdana.ttf
1172.506	n/a	WORD	586253	wordpools/wasnorm_wordpool_less_exclusions.txt	LTP260	ltpFR	3	6	-1	SPINE	1353	n/a	n/a	-1	1.0	1.0	1	upper	Verdana.ttf
1176.52	n/a	WORD	588260	wordpools/wasnorm_wordpool_less_exclusions.txt	LTP260	ltpFR	3	6	-1	CHALK	276	n/a	n/a	-1	1.0	1.0	1	upper	Verdana.ttf
1180.452	n/a	WORD	590226	wordpools/wasnorm_wordpool_less_exclusions.txt	LTP260	ltpFR	3	6	-1	RUM	1217	n/a	n/a	-1	1.0	1.0	1	upper	Verdana.ttf
1184.618	n/a	WORD	592309	wordpools/wasnorm_wordpool_less_exclusions.txt	LTP260	ltpFR	3	6	-1	POLYESTER	1100	n/a	n/a	-1	1.0	1.0	1	upper	Verdana.ttf
1188.632	n/a	WORD	594316	wordpools/wasnorm_wordpool_less_exclusions.txt	LTP260	ltpFR	3	6	-1	TUNNEL	1519	n/a	n/a	-1	1.0	1.0	1	upper	Verdana.ttf
1192.648	n/a	WORD	596324	wordpools/wasnorm_wordpool_less_exclusions.txt	LTP260	ltpFR	3	6	-1	VALVE	1546	n/a	n/a	-1	1.0	1.0	1	upper	Verdana.ttf
1196.748	n/a	WORD	598374	wordpools/wasnorm_wordpool_less_exclusions.txt	LTP260	ltpFR	3	6	-1	PUB	1135	n/a	n/a	-1	1.0	1.0	1	upper	Verdana.ttf
1200.662	n/a	WORD	600331	wordpools/wasnorm_wordpool_less_exclusions.txt	LTP260	ltpFR	3	6	-1	CLIMBER	323	n/a	n/a	-1	1.0	1.0	1	upper	Verdana.ttf
1204.678	n/a	WORD	602339	wordpools/wasnorm_wordpool_less_exclusions.txt	LTP260	ltpFR	3	6	-1	AUTOMOBILE	62	n/a	n/a	-1	1.0	1.0	1	upper	Verdana.ttf
1208.776	n/a	WORD	604388	wordpools/wasnorm_wordpool_less_exclusions.txt	LTP260	ltpFR	3	6	-1	CLOCK	325	n/a	n/a	-1	1.0	1.0	1	upper	Verdana.ttf
1212.972	n/a	WORD	606486	wordpools/wasnorm_wordpool_less_exclusions.txt	LTP260	ltpFR	3	6	-1	JUG	762	n/a	n/a	-1	1.0	1.0	1	upper	Verdana.ttf
1217.074	n/a	WORD	608537	wordpools/wasnorm_wordpool_less_exclusions.txt	LTP260	ltpFR	3	6	-1	CREEK	404	n/a	n/a	-1	1.0	1.0	1	upper	Verdana.ttf
1221.124	n/a	WORD	610562	wordpools/wasnorm_wordpool_less_exclusions.txt	LTP260	ltpFR	3	6	-1	ROCK	1201	n/a	n/a	-1	1.0	1.0	1	upper	Verdana.ttf
1226.946	n/a	REC_START	613473	n/a	LTP260	ltpFR	3	6	n/a	n/a	n/a	n/a	n/a	n/a	n/a	n/a	n/a	n/a	n/a
1227.724	n/a	REC_WORD	613862	wordpools/wasnorm_wordpool_less_exclusions.txt	LTP260	ltpFR	3	6	-1	CREEK	404	n/a	n/a	-1	n/a	n/a	n/a	n/a	n/a
1228.846	n/a	REC_WORD	614423	wordpools/wasnorm_wordpool_less_exclusions.txt	LTP260	ltpFR	3	6	-1	ROCK	1201	n/a	n/a	-1	n/a	n/a	n/a	n/a	n/a
1230.1	n/a	REC_WORD	615050	wordpools/wasnorm_wordpool_less_exclusions.txt	LTP260	ltpFR	3	6	-1	TUNNEL	1519	n/a	n/a	-1	n/a	n/a	n/a	n/a	n/a
1231.246	n/a	REC_WORD	615623	wordpools/wasnorm_wordpool_less_exclusions.txt	LTP260	ltpFR	3	6	-1	CLIMBER	323	n/a	n/a	-1	n/a	n/a	n/a	n/a	n/a
1232.632	n/a	REC_WORD	616316	wordpools/wasnorm_wordpool_less_exclusions.txt	LTP260	ltpFR	3	6	-1	AUTOMOBILE	62	n/a	n/a	-1	n/a	n/a	n/a	n/a	n/a
1234.024	n/a	REC_WORD	617012	wordpools/wasnorm_wordpool_less_exclusions.txt	LTP260	ltpFR	3	6	-1	VALVE	1546	n/a	n/a	-1	n/a	n/a	n/a	n/a	n/a
1235.412	n/a	REC_WORD	617706	wordpools/wasnorm_wordpool_less_exclusions.txt	LTP260	ltpFR	3	6	-1	PUB	1135	n/a	n/a	-1	n/a	n/a	n/a	n/a	n/a
1236.778	n/a	REC_WORD	618389	wordpools/wasnorm_wordpool_less_exclusions.txt	LTP260	ltpFR	3	6	-1	PIE	1062	n/a	n/a	-1	n/a	n/a	n/a	n/a	n/a
1238.068	n/a	REC_WORD	619034	wordpools/wasnorm_wordpool_less_exclusions.txt	LTP260	ltpFR	3	6	-1	JELLO	754	n/a	n/a	-1	n/a	n/a	n/a	n/a	n/a
1239.496	n/a	REC_WORD	619748	wordpools/wasnorm_wordpool_less_exclusions.txt	LTP260	ltpFR	3	6	-1	RUM	1217	n/a	n/a	-1	n/a	n/a	n/a	n/a	n/a
1240.868	n/a	REC_WORD	620434	wordpools/wasnorm_wordpool_less_exclusions.txt	LTP260	ltpFR	3	6	-1	JUG	762	n/a	n/a	-1	n/a	n/a	n/a	n/a	n/a
1242.1	n/a	REC_WORD	621050	wordpools/wasnorm_wordpool_less_exclusions.txt	LTP260	ltpFR	3	6	-1	POLYESTER	1100	n/a	n/a	-1	n/a	n/a	n/a	n/a	n/a
1243.656	n/a	REC_WORD	621828	wordpools/wasnorm_wordpool_less_exclusions.txt	LTP260	ltpFR	3	6	-1	BACK	65	n/a	n/a	-1	n/a	n/a	n/a	n/a	n/a
1244.714	n/a	REC_WORD	622357	wordpools/wasnorm_wordpool_less_exclusions.txt	LTP260	ltpFR	3	6	-1	SPINE	1353	n/a	n/a	-1	n/a	n/a	n/a	n/a	n/a
1259.646	n/a	REC_WORD	629823	wordpools/wasnorm_wordpool_less_exclusions.txt	LTP260	ltpFR	3	6	-1	CLOCK	325	n/a	n/a	-1	n/a	n/a	n/a	n/a	n/a
1320.738	n/a	WORD	660369	wordpools/wasnorm_wordpool_less_exclusions.txt	LTP260	ltpFR	3	7	1	CRICKET	408	n/a	n/a	1	0.422607421875	0.5869140625	0	lower	amplitud.ttf
1324.854	n/a	WORD	662427	wordpools/wasnorm_wordpool_less_exclusions.txt	LTP260	ltpFR	3	7	1	INSECT	740	n/a	n/a	1	0.422607421875	0.5869140625	0	lower	amplitud.ttf
1328.782	n/a	WORD	664391	wordpools/wasnorm_wordpool_less_exclusions.txt	LTP260	ltpFR	3	7	1	WRITER	1627	n/a	n/a	1	0.422607421875	0.5869140625	0	lower	amplitud.ttf
1332.9	n/a	WORD	666450	wordpools/wasnorm_wordpool_less_exclusions.txt	LTP260	ltpFR	3	7	1	DICE	461	n/a	n/a	0	0.422607421875	0.5869140625	0	lower	amplitud.ttf
1336.966	n/a	WORD	668483	wordpools/wasnorm_wordpool_less_exclusions.txt	LTP260	ltpFR	3	7	1	ORANGE	980	n/a	n/a	1	0.422607421875	0.5869140625	0	lower	amplitud.ttf
1340.948	n/a	WORD	670474	wordpools/wasnorm_wordpool_less_exclusions.txt	LTP260	ltpFR	3	7	1	DICTIONARY	463	n/a	n/a	0	0.422607421875	0.5869140625	0	lower	amplitud.ttf
1344.83	n/a	WORD	672415	wordpools/wasnorm_wordpool_less_exclusions.txt	LTP260	ltpFR	3	7	1	BANDANNA	80	n/a	n/a	0	0.422607421875	0.5869140625	0	lower	amplitud.ttf
1348.812	n/a	WORD	674406	wordpools/wasnorm_wordpool_less_exclusions.txt	LTP260	ltpFR	3	7	1	STRAWBERRY	1391	n/a	n/a	1	0.422607421875	0.5869140625	0	lower	amplitud.ttf
1352.91	n/a	WORD	676455	wordpools/wasnorm_wordpool_less_exclusions.txt	LTP260	ltpFR	3	7	1	DANCER	437	n/a	n/a	1	0.422607421875	0.5869140625	0	lower	amplitud.ttf
1356.858	n/a	WORD	678429	wordpools/wasnorm_wordpool_less_exclusions.txt	LTP260	ltpFR	3	7	1	LEMON	810	n/a	n/a	1	0.422607421875	0.5869140625	0	lower	amplitud.ttf
1360.892	n/a	WORD	680446	wordpools/wasnorm_wordpool_less_exclusions.txt	LTP260	ltpFR	3	7	1	PAGE	1001	n/a	n/a	0	0.422607421875	0.5869140625	0	lower	amplitud.ttf
1364.954	n/a	WORD	682477	wordpools/wasnorm_wordpool_less_exclusions.txt	LTP260	ltpFR	3	7	1	JOKER	759	n/a	n/a	1	0.422607421875	0.5869140625	0	lower	amplitud.ttf
1368.938	n/a	WORD	684469	wordpools/wasnorm_wordpool_less_exclusions.txt	LTP260	ltpFR	3	7	1	DOLPHIN	483	n/a	n/a	1	0.422607421875	0.5869140625	0	lower	amplitud.ttf
1372.988	n/a	WORD	686494	wordpools/wasnorm_wordpool_less_exclusions.txt	LTP260	ltpFR	3	7	1	OCEAN	970	n/a	n/a	1	0.422607421875	0.5869140625	0	lower	amplitud.ttf
1376.918	n/a	WORD	688459	wordpools/wasnorm_wordpool_less_exclusions.txt	LTP260	ltpFR	3	7	1	SHRUB	1299	n/a	n/a	1	0.422607421875	0.5869140625	0	lower	amplitud.ttf
1381.132	n/a	WORD	690566	wordpools/wasnorm_wordpool_less_exclusions.txt	LTP260	ltpFR	3	7	1	LIMB	822	n/a	n/a	1	0.422607421875	0.5869140625	0	lower	amplitud.ttf
1386.84	n/a	REC_START	693420	n/a	LTP260	ltpFR	3	7	n/a	n/a	n/a	n/a	n/a	n/a	n/a	n/a	n/a	n/a	n/a
1387.606	n/a	REC_WORD	693803	wordpools/wasnorm_wordpool_less_exclusions.txt	LTP260	ltpFR	3	7	1	LIMB	822	n/a	n/a	1	n/a	n/a	n/a	n/a	n/a
1388.54	n/a	REC_WORD	694270	wordpools/wasnorm_wordpool_less_exclusions.txt	LTP260	ltpFR	3	7	1	SHRUB	1299	n/a	n/a	1	n/a	n/a	n/a	n/a	n/a
1389.786	n/a	REC_WORD	694893	wordpools/wasnorm_wordpool_less_exclusions.txt	LTP260	ltpFR	3	7	1	OCEAN	970	n/a	n/a	1	n/a	n/a	n/a	n/a	n/a
1391.08	n/a	REC_WORD	695540	wordpools/wasnorm_wordpool_less_exclusions.txt	LTP260	ltpFR	3	7	1	DOLPHIN	483	n/a	n/a	1	n/a	n/a	n/a	n/a	n/a
1392.456	n/a	REC_WORD	696228	wordpools/wasnorm_wordpool_less_exclusions.txt	LTP260	ltpFR	3	7	1	WRITER	1627	n/a	n/a	1	n/a	n/a	n/a	n/a	n/a
1393.5	n/a	REC_WORD	696750	wordpools/wasnorm_wordpool_less_exclusions.txt	LTP260	ltpFR	3	7	1	BANDANNA	80	n/a	n/a	0	n/a	n/a	n/a	n/a	n/a
1394.958	n/a	REC_WORD	697479	wordpools/wasnorm_wordpool_less_exclusions.txt	LTP260	ltpFR	3	7	1	PAGE	1001	n/a	n/a	0	n/a	n/a	n/a	n/a	n/a
1396.124	n/a	REC_WORD	698062	wordpools/wasnorm_wordpool_less_exclusions.txt	LTP260	ltpFR	3	7	1	DICTIONARY	463	n/a	n/a	0	n/a	n/a	n/a	n/a	n/a
1397.482	n/a	REC_WORD	698741	wordpools/wasnorm_wordpool_less_exclusions.txt	LTP260	ltpFR	3	7	1	DICE	461	n/a	n/a	0	n/a	n/a	n/a	n/a	n/a
1399.21	n/a	REC_WORD	699605	wordpools/wasnorm_wordpool_less_exclusions.txt	LTP260	ltpFR	3	7	1	INSECT	740	n/a	n/a	1	n/a	n/a	n/a	n/a	n/a
1400.328	n/a	REC_WORD	700164	wordpools/wasnorm_wordpool_less_exclusions.txt	LTP260	ltpFR	3	7	1	CRICKET	408	n/a	n/a	1	n/a	n/a	n/a	n/a	n/a
1404.25	n/a	REC_WORD	702125	wordpools/wasnorm_wordpool_less_exclusions.txt	LTP260	ltpFR	3	7	1	DANCER	437	n/a	n/a	1	n/a	n/a	n/a	n/a	n/a
1405.76	n/a	REC_WORD	702880	wordpools/wasnorm_wordpool_less_exclusions.txt	LTP260	ltpFR	3	7	1	ORANGE	980	n/a	n/a	1	n/a	n/a	n/a	n/a	n/a
1406.788	n/a	REC_WORD	703394	wordpools/wasnorm_wordpool_less_exclusions.txt	LTP260	ltpFR	3	7	1	STRAWBERRY	1391	n/a	n/a	1	n/a	n/a	n/a	n/a	n/a
1408.166	n/a	REC_WORD	704083	wordpools/wasnorm_wordpool_less_exclusions.txt	LTP260	ltpFR	3	7	1	LEMON	810	n/a	n/a	1	n/a	n/a	n/a	n/a	n/a
1409.828	n/a	REC_WORD	704914	wordpools/wasnorm_wordpool_less_exclusions.txt	LTP260	ltpFR	3	7	1	JOKER	759	n/a	n/a	1	n/a	n/a	n/a	n/a	n/a
1467.382	n/a	WORD	733691	wordpools/wasnorm_wordpool_less_exclusions.txt	LTP260	ltpFR	3	8	1	CAMERA	224	n/a	n/a	2	0.422607421875	0.5869140625	0	lower	amplitud.ttf
1468.502	n/a	KEY_MSG	734251	n/a	LTP260	ltpFR	3	8	n/a	n/a	n/a	n/a	n/a	n/a	n/a	n/a	n/a	n/a	n/a
1471.462	n/a	WORD	735731	wordpools/wasnorm_wordpool_less_exclusions.txt	LTP260	ltpFR	3	8	1	NIECE	952	n/a	n/a	1	0.422607421875	0.5869140625	0	lower	amplitud.ttf
1475.646	n/a	WORD	737823	wordpools/wasnorm_wordpool_less_exclusions.txt	LTP260	ltpFR	3	8	1	PUDDLE	1140	n/a	n/a	0	0.422607421875	0.5869140625	0	lower	amplitud.ttf
1479.496	n/a	WORD	739748	wordpools/wasnorm_wordpool_less_exclusions.txt	LTP260	ltpFR	3	8	1	TREAD	1499	n/a	n/a	0	0.422607421875	0.5869140625	0	lower	amplitud.ttf
1483.66	n/a	WORD	741830	wordpools/wasnorm_wordpool_less_exclusions.txt	LTP260	ltpFR	3	8	1	FAUCET	555	n/a	n/a	0	0.422607421875	0.5869140625	0	lower	amplitud.ttf
1487.86	n/a	WORD	743930	wordpools/wasnorm_wordpool_less_exclusions.txt	LTP260	ltpFR	3	8	1	GRAPE	654	n/a	n/a	1	0.422607421875	0.5869140625	0	lower	amplitud.ttf
1491.858	n/a	WORD	745929	wordpools/wasnorm_wordpool_less_exclusions.txt	LTP260	ltpFR	3	8	1	COW	393	n/a	n/a	1	0.422607421875	0.5869140625	0	lower	amplitud.ttf
1495.89	n/a	WORD	747945	wordpools/wasnorm_wordpool_less_exclusions.txt	LTP260	ltpFR	3	8	1	ZEBRA	1635	n/a	n/a	1	0.422607421875	0.5869140625	0	lower	amplitud.ttf
1499.888	n/a	WORD	749944	wordpools/wasnorm_wordpool_less_exclusions.txt	LTP260	ltpFR	3	8	1	SUPERVISOR	1410	n/a	n/a	1	0.422607421875	0.5869140625	0	lower	amplitud.ttf
1503.854	n/a	WORD	751927	wordpools/wasnorm_wordpool_less_exclusions.txt	LTP260	ltpFR	3	8	1	LAGOON	795	n/a	n/a	0	0.422607421875	0.5869140625	0	lower	amplitud.ttf
1508.002	n/a	WORD	754001	wordpools/wasnorm_wordpool_less_exclusions.txt	LTP260	ltpFR	3	8	1	DOLLAR	482	n/a	n/a	0	0.422607421875	0.5869140625	0	lower	amplitud.ttf
1512.036	n/a	WORD	756018	wordpools/wasnorm_wordpool_less_exclusions.txt	LTP260	ltpFR	3	8	1	BRAN	167	n/a	n/a	0	0.422607421875	0.5869140625	0	lower	amplitud.ttf
1516.252	n/a	WORD	758126	wordpools/wasnorm_wordpool_less_exclusions.txt	LTP260	ltpFR	3	8	1	KITTEN	780	n/a	n/a	1	0.422607421875	0.5869140625	0	lower	amplitud.ttf
1520.268	n/a	WORD	760134	wordpools/wasnorm_wordpool_less_exclusions.txt	LTP260	ltpFR	3	8	1	WHISKERS	1605	n/a	n/a	0	0.422607421875	0.5869140625	0	lower	amplitud.ttf
1524.132	n/a	WORD	762066	wordpools/wasnorm_wordpool_less_exclusions.txt	LTP260	ltpFR	3	8	1	OFFICE	972	n/a	n/a	0	0.422607421875	0.5869140625	0	lower	amplitud.ttf
1528.06	n/a	WORD	764030	wordpools/wasnorm_wordpool_less_exclusions.txt	LTP260	ltpFR	3	8	1	HAIL	676	n/a	n/a	0	0.422607421875	0.5869140625	0	lower	amplitud.ttf
1533.72	n/a	REC_START	766860	n/a	LTP260	ltpFR	3	8	n/a	n/a	n/a	n/a	n/a	n/a	n/a	n/a	n/a	n/a	n/a
1534.6	n/a	REC_WORD	767300	wordpools/wasnorm_wordpool_less_exclusions.txt	LTP260	ltpFR	3	8	1	HAIL	676	n/a	n/a	0	n/a	n/a	n/a	n/a	n/a
1535.91	n/a	REC_WORD	767955	wordpools/wasnorm_wordpool_less_exclusions.txt	LTP260	ltpFR	3	8	1	OFFICE	972	n/a	n/a	0	n/a	n/a	n/a	n/a	n/a
1536.884	n/a	REC_WORD	768442	wordpools/wasnorm_wordpool_less_exclusions.txt	LTP260	ltpFR	3	8	1	SUPERVISOR	1410	n/a	n/a	1	n/a	n/a	n/a	n/a	n/a
1538.456	n/a	REC_WORD	769228	wordpools/wasnorm_wordpool_less_exclusions.txt	LTP260	ltpFR	3	8	1	DOLLAR	482	n/a	n/a	0	n/a	n/a	n/a	n/a	n/a
1539.522	n/a	REC_WORD	769761	wordpools/wasnorm_wordpool_less_exclusions.txt	LTP260	ltpFR	3	8	1	LAGOON	795	n/a	n/a	0	n/a	n/a	n/a	n/a	n/a
1540.762	n/a	REC_WORD	770381	wordpools/wasnorm_wordpool_less_exclusions.txt	LTP260	ltpFR	3	8	1	COW	393	n/a	n/a	1	n/a	n/a	n/a	n/a	n/a
1541.944	n/a	REC_WORD	770972	wordpools/wasnorm_wordpool_less_exclusions.txt	LTP260	ltpFR	3	8	1	ZEBRA	1635	n/a	n/a	1	n/a	n/a	n/a	n/a	n/a
1543.188	n/a	REC_WORD	771594	wordpools/wasnorm_wordpool_less_exclusions.txt	LTP260	ltpFR	3	8	1	KITTEN	780	n/a	n/a	1	n/a	n/a	n/a	n/a	n/a
1544.426	n/a	REC_WORD	772213	wordpools/wasnorm_wordpool_less_exclusions.txt	LTP260	ltpFR	3	8	1	WHISKERS	1605	n/a	n/a	0	n/a	n/a	n/a	n/a	n/a
1547.038	n/a	REC_WORD	773519	wordpools/wasnorm_wordpool_less_exclusions.txt	LTP260	ltpFR	3	8	1	CAMERA	224	n/a	n/a	2	n/a	n/a	n/a	n/a	n/a
1548.878	n/a	REC_WORD	774439	wordpools/wasnorm_wordpool_less_exclusions.txt	LTP260	ltpFR	3	8	1	FAUCET	555	n/a	n/a	0	n/a	n/a	n/a	n/a	n/a
1550.13	n/a	REC_WORD	775065	wordpools/wasnorm_wordpool_less_exclusions.txt	LTP260	ltpFR	3	8	1	PUDDLE	1140	n/a	n/a	0	n/a	n/a	n/a	n/a	n/a
1551.37	n/a	REC_WORD	775685	wordpools/wasnorm_wordpool_less_exclusions.txt	LTP260	ltpFR	3	8	1	TREAD	1499	n/a	n/a	0	n/a	n/a	n/a	n/a	n/a
1552.62	n/a	REC_WORD	776310	wordpools/wasnorm_wordpool_less_exclusions.txt	LTP260	ltpFR	3	8	1	NIECE	952	n/a	n/a	1	n/a	n/a	n/a	n/a	n/a
1616.334	n/a	WORD	808167	wordpools/wasnorm_wordpool_less_exclusions.txt	LTP260	ltpFR	3	9	1	TRAIN	1494	n/a	n/a	1	0.422607421875	0.5869140625	0	lower	amplitud.ttf
1620.2	n/a	WORD	810100	wordpools/wasnorm_wordpool_less_exclusions.txt	LTP260	ltpFR	3	9	1	BANDIT	81	n/a	n/a	1	0.422607421875	0.5869140625	0	lower	amplitud.ttf
1624.03	n/a	WORD	812015	wordpools/wasnorm_wordpool_less_exclusions.txt	LTP260	ltpFR	3	9	1	OUTLAW	989	n/a	n/a	1	0.422607421875	0.5869140625	0	lower	amplitud.ttf
1627.896	n/a	WORD	813948	wordpools/wasnorm_wordpool_less_exclusions.txt	LTP260	ltpFR	3	9	1	BLUEBERRY	140	n/a	n/a	0	0.422607421875	0.5869140625	0	lower	amplitud.ttf
1631.84	n/a	WORD	815920	wordpools/wasnorm_wordpool_less_exclusions.txt	LTP260	ltpFR	3	9	1	NUT	965	n/a	n/a	1	0.422607421875	0.5869140625	0	lower	amplitud.ttf
1636.026	n/a	WORD	818013	wordpools/wasnorm_wordpool_less_exclusions.txt	LTP260	ltpFR	3	9	1	GRASSHOPPER	656	n/a	n/a	1	0.422607421875	0.5869140625	0	lower	amplitud.ttf
1639.89	n/a	WORD	819945	wordpools/wasnorm_wordpool_less_exclusions.txt	LTP260	ltpFR	3	9	0	MARS	873	n/a	n/a	1	0.57763671875	0.412841796875	1	upper	zerothre.ttf
1643.94	n/a	WORD	821970	wordpools/wasnorm_wordpool_less_exclusions.txt	LTP260	ltpFR	3	9	0	GARDEN	623	n/a	n/a	1	0.57763671875	0.412841796875	1	upper	zerothre.ttf
1647.838	n/a	WORD	823919	wordpools/wasnorm_wordpool_less_exclusions.txt	LTP260	ltpFR	3	9	0	CACTUS	215	n/a	n/a	1	0.57763671875	0.412841796875	1	upper	zerothre.ttf
1652.054	n/a	WORD	826027	wordpools/wasnorm_wordpool_less_exclusions.txt	LTP260	ltpFR	3	9	0	TORTOISE	1486	n/a	n/a	1	0.57763671875	0.412841796875	1	upper	zerothre.ttf
1655.952	n/a	WORD	827976	wordpools/wasnorm_wordpool_less_exclusions.txt	LTP260	ltpFR	3	9	1	PEARL	1034	n/a	n/a	0	0.422607421875	0.5869140625	0	lower	amplitud.ttf
1659.916	n/a	WORD	829958	wordpools/wasnorm_wordpool_less_exclusions.txt	LTP260	ltpFR	3	9	1	RAKE	1164	n/a	n/a	0	0.422607421875	0.5869140625	0	lower	amplitud.ttf
1663.798	n/a	WORD	831899	wordpools/wasnorm_wordpool_less_exclusions.txt	LTP260	ltpFR	3	9	0	CARDINAL	244	n/a	n/a	0	0.57763671875	0.412841796875	1	upper	zerothre.ttf
1667.882	n/a	WORD	833941	wordpools/wasnorm_wordpool_less_exclusions.txt	LTP260	ltpFR	3	9	0	BEAD	103	n/a	n/a	0	0.57763671875	0.412841796875	1	upper	zerothre.ttf
1671.896	n/a	WORD	835948	wordpools/wasnorm_wordpool_less_exclusions.txt	LTP260	ltpFR	3	9	0	DIGGER	464	n/a	n/a	1	0.57763671875	0.412841796875	1	upper	zerothre.ttf
1675.76	n/a	WORD	837880	wordpools/wasnorm_wordpool_less_exclusions.txt	LTP260	ltpFR	3	9	0	REEF	1177	n/a	n/a	1	0.57763671875	0.412841796875	1	upper	zerothre.ttf
1681.602	n/a	REC_START	840801	n/a	LTP260	ltpFR	3	9	n/a	n/a	n/a	n/a	n/a	n/a	n/a	n/a	n/a	n/a	n/a
1682.596	n/a	REC_WORD	841298	wordpools/wasnorm_wordpool_less_exclusions.txt	LTP260	ltpFR	3	9	0	REEF	1177	n/a	n/a	1	n/a	n/a	n/a	n/a	n/a
1683.73	n/a	REC_WORD	841865	wordpools/wasnorm_wordpool_less_exclusions.txt	LTP260	ltpFR	3	9	0	DIGGER	464	n/a	n/a	1	n/a	n/a	n/a	n/a	n/a
1685.008	n/a	REC_WORD	842504	wordpools/wasnorm_wordpool_less_exclusions.txt	LTP260	ltpFR	3	9	1	TRAIN	1494	n/a	n/a	1	n/a	n/a	n/a	n/a	n/a
1686.416	n/a	REC_WORD	843208	wordpools/wasnorm_wordpool_less_exclusions.txt	LTP260	ltpFR	3	9	1	OUTLAW	989	n/a	n/a	1	n/a	n/a	n/a	n/a	n/a
1687.75	n/a	REC_WORD	843875	wordpools/wasnorm_wordpool_less_exclusions.txt	LTP260	ltpFR	3	9	1	BANDIT	81	n/a	n/a	1	n/a	n/a	n/a	n/a	n/a
1689.142	n/a	REC_WORD	844571	wordpools/wasnorm_wordpool_less_exclusions.txt	LTP260	ltpFR	3	9	0	BEAD	103	n/a	n/a	0	n/a	n/a	n/a	n/a	n/a
1690.404	n/a	REC_WORD	845202	wordpools/wasnorm_wordpool_less_exclusions.txt	LTP260	ltpFR	3	9	1	PEARL	1034	n/a	n/a	0	n/a	n/a	n/a	n/a	n/a
1691.746	n/a	REC_WORD	845873	wordpools/wasnorm_wordpool_less_exclusions.txt	LTP260	ltpFR	3	9	0	GARDEN	623	n/a	n/a	1	n/a	n/a	n/a	n/a	n/a
1693.354	n/a	REC_WORD	846677	wordpools/wasnorm_wordpool_less_exclusions.txt	LTP260	ltpFR	3	9	1	GRASSHOPPER	656	n/a	n/a	1	n/a	n/a	n/a	n/a	n/a
1694.754	n/a	REC_WORD	847377	wordpools/wasnorm_wordpool_less_exclusions.txt	LTP260	ltpFR	3	9	1	BLUEBERRY	140	n/a	n/a	0	n/a	n/a	n/a	n/a	n/a
1696.052	n/a	REC_WORD	848026	wordpools/wasnorm_wordpool_less_exclusions.txt	LTP260	ltpFR	3	9	1	NUT	965	n/a	n/a	1	n/a	n/a	n/a	n/a	n/a
1697.306	n/a	REC_WORD	848653	wordpools/wasnorm_wordpool_less_exclusions.txt	LTP260	ltpFR	3	9	0	TORTOISE	1486	n/a	n/a	1	n/a	n/a	n/a	n/a	n/a
1699.524	n/a	REC_WORD	849762	wordpools/wasnorm_wordpool_less_exclusions.txt	LTP260	ltpFR	3	9	1	RAKE	1164	n/a	n/a	0	n/a	n/a	n/a	n/a	n/a
1701.68	n/a	REC_WORD	850840	wordpools/wasnorm_wordpool_less_exclusions.txt	LTP260	ltpFR	3	9	0	CACTUS	215	n/a	n/a	1	n/a	n/a	n/a	n/a	n/a
1718.316	n/a	REC_WORD	859158	wordpools/wasnorm_wordpool_less_exclusions.txt	LTP260	ltpFR	3	9	0	MARS	873	n/a	n/a	1	n/a	n/a	n/a	n/a	n/a
1787.288	n/a	WORD	893644	wordpools/wasnorm_wordpool_less_exclusions.txt	LTP260	ltpFR	3	10	0	CLOTHES	327	n/a	n/a	1	0.57763671875	0.412841796875	1	upper	zerothre.ttf
1791.37	n/a	WORD	895685	wordpools/wasnorm_wordpool_less_exclusions.txt	LTP260	ltpFR	3	10	0	NUCLEUS	961	n/a	n/a	0	0.57763671875	0.412841796875	1	upper	zerothre.ttf
1795.536	n/a	WORD	897768	wordpools/wasnorm_wordpool_less_exclusions.txt	LTP260	ltpFR	3	10	0	COBWEB	337	n/a	n/a	0	0.57763671875	0.412841796875	1	upper	zerothre.ttf
1799.668	n/a	WORD	899834	wordpools/wasnorm_wordpool_less_exclusions.txt	LTP260	ltpFR	3	10	0	STRAW	1390	n/a	n/a	0	0.57763671875	0.412841796875	1	upper	zerothre.ttf
1803.566	n/a	WORD	901783	wordpools/wasnorm_wordpool_less_exclusions.txt	LTP260	ltpFR	3	10	0	STUDENT	1395	n/a	n/a	1	0.57763671875	0.412841796875	1	upper	zerothre.ttf
1807.766	n/a	WORD	903883	wordpools/wasnorm_wordpool_less_exclusions.txt	LTP260	ltpFR	3	10	0	COLESLAW	344	n/a	n/a	0	0.57763671875	0.412841796875	1	upper	zerothre.ttf
1811.73	n/a	WORD	905865	wordpools/wasnorm_wordpool_less_exclusions.txt	LTP260	ltpFR	3	10	0	INTESTINE	742	n/a	n/a	0	0.57763671875	0.412841796875	1	upper	zerothre.ttf
1815.864	n/a	WORD	907932	wordpools/wasnorm_wordpool_less_exclusions.txt	LTP260	ltpFR	3	10	0	DESK	452	n/a	n/a	1	0.57763671875	0.412841796875	1	upper	zerothre.ttf
1819.878	n/a	WORD	909939	wordpools/wasnorm_wordpool_less_exclusions.txt	LTP260	ltpFR	3	10	0	LAMP	798	n/a	n/a	1	0.57763671875	0.412841796875	1	upper	zerothre.ttf
1823.76	n/a	WORD	911880	wordpools/wasnorm_wordpool_less_exclusions.txt	LTP260	ltpFR	3	10	0	SHARK	1275	n/a	n/a	1	0.57763671875	0.412841796875	1	upper	zerothre.ttf
1827.876	n/a	WORD	913938	wordpools/wasnorm_wordpool_less_exclusions.txt	LTP260	ltpFR	3	10	0	SCALLOP	1242	n/a	n/a	1	0.57763671875	0.412841796875	1	upper	zerothre.ttf
1831.856	n/a	WORD	915928	wordpools/wasnorm_wordpool_less_exclusions.txt	LTP260	ltpFR	3	10	0	SWITCH	1422	n/a	n/a	0	0.57763671875	0.412841796875	1	upper	zerothre.ttf
1835.89	n/a	WORD	917945	wordpools/wasnorm_wordpool_less_exclusions.txt	LTP260	ltpFR	3	10	0	VEAL	1551	n/a	n/a	1	0.57763671875	0.412841796875	1	upper	zerothre.ttf
1839.772	n/a	WORD	919886	wordpools/wasnorm_wordpool_less_exclusions.txt	LTP260	ltpFR	3	10	0	LOBBY	836	n/a	n/a	1	0.57763671875	0.412841796875	1	upper	zerothre.ttf
1843.636	n/a	WORD	921818	wordpools/wasnorm_wordpool_less_exclusions.txt	LTP260	ltpFR	3	10	0	RESORT	1186	n/a	n/a	1	0.57763671875	0.412841796875	1	upper	zerothre.ttf
1847.568	n/a	WORD	923784	wordpools/wasnorm_wordpool_less_exclusions.txt	LTP260	ltpFR	3	10	0	BEVERAGE	123	n/a	n/a	0	0.57763671875	0.412841796875	1	upper	zerothre.ttf
1853.458	n/a	REC_START	926729	n/a	LTP260	ltpFR	3	10	n/a	n/a	n/a	n/a	n/a	n/a	n/a	n/a	n/a	n/a	n/a
1854.434	n/a	REC_WORD	927217	wordpools/wasnorm_wordpool_less_exclusions.txt	LTP260	ltpFR	3	10	0	BEVERAGE	123	n/a	n/a	0	n/a	n/a	n/a	n/a	n/a
1856.052	n/a	REC_WORD	928026	wordpools/wasnorm_wordpool_less_exclusions.txt	LTP260	ltpFR	3	10	0	LOBBY	836	n/a	n/a	1	n/a	n/a	n/a	n/a	n/a
1858.03	n/a	REC_WORD	929015	wordpools/wasnorm_wordpool_less_exclusions.txt	LTP260	ltpFR	3	10	n/a	HOTEL	-1	n/a	n/a	n/a	n/a	n/a	n/a	n/a	n/a
1859.804	n/a	REC_WORD	929902	wordpools/wasnorm_wordpool_less_exclusions.txt	LTP260	ltpFR	3	10	0	VEAL	1551	n/a	n/a	1	n/a	n/a	n/a	n/a	n/a
1861.28	n/a	REC_WORD	930640	wordpools/wasnorm_wordpool_less_exclusions.txt	LTP260	ltpFR	3	10	0	SHARK	1275	n/a	n/a	1	n/a	n/a	n/a	n/a	n/a
1862.77	n/a	REC_WORD	931385	wordpools/wasnorm_wordpool_less_exclusions.txt	LTP260	ltpFR	3	10	0	SCALLOP	1242	n/a	n/a	1	n/a	n/a	n/a	n/a	n/a
1867.402	n/a	REC_WORD	933701	wordpools/wasnorm_wordpool_less_exclusions.txt	LTP260	ltpFR	3	10	0	STUDENT	1395	n/a	n/a	1	n/a	n/a	n/a	n/a	n/a
1869.084	n/a	REC_WORD	934542	wordpools/wasnorm_wordpool_less_exclusions.txt	LTP260	ltpFR	3	10	0	INTESTINE	742	n/a	n/a	0	n/a	n/a	n/a	n/a	n/a
1870.668	n/a	REC_WORD	935334	wordpools/wasnorm_wordpool_less_exclusions.txt	LTP260	ltpFR	3	10	0	DESK	452	n/a	n/a	1	n/a	n/a	n/a	n/a	n/a
1871.914	n/a	REC_WORD	935957	wordpools/wasnorm_wordpool_less_exclusions.txt	LTP260	ltpFR	3	10	0	LAMP	798	n/a	n/a	1	n/a	n/a	n/a	n/a	n/a
1873.088	n/a	REC_WORD	936544	wordpools/wasnorm_wordpool_less_exclusions.txt	LTP260	ltpFR	3	10	0	SWITCH	1422	n/a	n/a	0	n/a	n/a	n/a	n/a	n/a
1874.41	n/a	REC_WORD	937205	wordpools/wasnorm_wordpool_less_exclusions.txt	LTP260	ltpFR	3	10	0	COBWEB	337	n/a	n/a	0	n/a	n/a	n/a	n/a	n/a
1875.636	n/a	REC_WORD	937818	wordpools/wasnorm_wordpool_less_exclusions.txt	LTP260	ltpFR	3	10	0	NUCLEUS	961	n/a	n/a	0	n/a	n/a	n/a	n/a	n/a
1876.904	n/a	REC_WORD	938452	wordpools/wasnorm_wordpool_less_exclusions.txt	LTP260	ltpFR	3	10	0	STRAW	1390	n/a	n/a	0	n/a	n/a	n/a	n/a	n/a
1878.334	n/a	REC_WORD	939167	wordpools/wasnorm_wordpool_less_exclusions.txt	LTP260	ltpFR	3	10	0	COLESLAW	344	n/a	n/a	0	n/a	n/a	n/a	n/a	n/a
1940.958	n/a	WORD	970479	wordpools/wasnorm_wordpool_less_exclusions.txt	LTP260	ltpFR	3	11	1	VIOLIN	1571	n/a	n/a	0	0.422607421875	0.5869140625	0	lower	amplitud.ttf
1944.902	n/a	WORD	972451	wordpools/wasnorm_wordpool_less_exclusions.txt	LTP260	ltpFR	3	11	1	NOTE	958	n/a	n/a	0	0.422607421875	0.5869140625	0	lower	amplitud.ttf
1949.002	n/a	WORD	974501	wordpools/wasnorm_wordpool_less_exclusions.txt	LTP260	ltpFR	3	11	0	CUE	422	n/a	n/a	0	0.57763671875	0.412841796875	1	upper	zerothre.ttf
1952.904	n/a	WORD	976452	wordpools/wasnorm_wordpool_less_exclusions.txt	LTP260	ltpFR	3	11	0	SUITE	1404	n/a	n/a	1	0.57763671875	0.412841796875	1	upper	zerothre.ttf
1956.852	n/a	WORD	978426	wordpools/wasnorm_wordpool_less_exclusions.txt	LTP260	ltpFR	3	11	0	FLEA	577	n/a	n/a	0	0.57763671875	0.412841796875	1	upper	zerothre.ttf
1960.73	n/a	WORD	980365	wordpools/wasnorm_wordpool_less_exclusions.txt	LTP260	ltpFR	3	11	0	CIGARETTE	309	n/a	n/a	0	0.57763671875	0.412841796875	1	upper	zerothre.ttf
1964.948	n/a	WORD	982474	wordpools/wasnorm_wordpool_less_exclusions.txt	LTP260	ltpFR	3	11	0	PHILOSOPHER	1054	n/a	n/a	1	0.57763671875	0.412841796875	1	upper	zerothre.ttf
1968.814	n/a	WORD	984407	wordpools/wasnorm_wordpool_less_exclusions.txt	LTP260	ltpFR	3	11	1	TERRITORY	1452	n/a	n/a	0	0.422607421875	0.5869140625	0	lower	amplitud.ttf
1972.864	n/a	WORD	986432	wordpools/wasnorm_wordpool_less_exclusions.txt	LTP260	ltpFR	3	11	1	ASTEROID	50	n/a	n/a	0	0.422607421875	0.5869140625	0	lower	amplitud.ttf
1976.728	n/a	WORD	988364	wordpools/wasnorm_wordpool_less_exclusions.txt	LTP260	ltpFR	3	11	1	SHIP	1286	n/a	n/a	0	0.422607421875	0.5869140625	0	lower	amplitud.ttf
1980.56	n/a	WORD	990280	wordpools/wasnorm_wordpool_less_exclusions.txt	LTP260	ltpFR	3	11	1	LIGHTER	819	n/a	n/a	0	0.422607421875	0.5869140625	0	lower	amplitud.ttf
1984.676	n/a	WORD	992338	wordpools/wasnorm_wordpool_less_exclusions.txt	LTP260	ltpFR	3	11	0	GENTLEMAN	631	n/a	n/a	1	0.57763671875	0.412841796875	1	upper	zerothre.ttf
1988.74	n/a	WORD	994370	wordpools/wasnorm_wordpool_less_exclusions.txt	LTP260	ltpFR	3	11	0	WOMAN	1620	n/a	n/a	1	0.57763671875	0.412841796875	1	upper	zerothre.ttf
1992.956	n/a	WORD	996478	wordpools/wasnorm_wordpool_less_exclusions.txt	LTP260	ltpFR	3	11	0	BUG	187	n/a	n/a	0	0.57763671875	0.412841796875	1	upper	zerothre.ttf
1996.918	n/a	WORD	998459	wordpools/wasnorm_wordpool_less_exclusions.txt	LTP260	ltpFR	3	11	1	POTATO	1115	n/a	n/a	1	0.422607421875	0.5869140625	0	lower	amplitud.ttf
2001.138	n/a	WORD	1000569	wordpools/wasnorm_wordpool_less_exclusions.txt	LTP260	ltpFR	3	11	1	RAFT	1159	n/a	n/a	0	0.422607421875	0.5869140625	0	lower	amplitud.ttf
2006.978	n/a	REC_START	1003489	n/a	LTP260	ltpFR	3	11	n/a	n/a	n/a	n/a	n/a	n/a	n/a	n/a	n/a	n/a	n/a
2007.824	n/a	REC_WORD	1003912	wordpools/wasnorm_wordpool_less_exclusions.txt	LTP260	ltpFR	3	11	1	RAFT	1159	n/a	n/a	0	n/a	n/a	n/a	n/a	n/a
2008.898	n/a	REC_WORD	1004449	wordpools/wasnorm_wordpool_less_exclusions.txt	LTP260	ltpFR	3	11	1	SHIP	1286	n/a	n/a	0	n/a	n/a	n/a	n/a	n/a
2010.174	n/a	REC_WORD	1005087	wordpools/wasnorm_wordpool_less_exclusions.txt	LTP260	ltpFR	3	11	1	TERRITORY	1452	n/a	n/a	0	n/a	n/a	n/a	n/a	n/a
2011.594	n/a	REC_WORD	1005797	wordpools/wasnorm_wordpool_less_exclusions.txt	LTP260	ltpFR	3	11	1	ASTEROID	50	n/a	n/a	0	n/a	n/a	n/a	n/a	n/a
2012.76	n/a	REC_WORD	1006380	wordpools/wasnorm_wordpool_less_exclusions.txt	LTP260	ltpFR	3	11	0	SUITE	1404	n/a	n/a	1	n/a	n/a	n/a	n/a	n/a
2014.024	n/a	REC_WORD	1007012	wordpools/wasnorm_wordpool_less_exclusions.txt	LTP260	ltpFR	3	11	0	PHILOSOPHER	1054	n/a	n/a	1	n/a	n/a	n/a	n/a	n/a
2015.58	n/a	REC_WORD	1007790	wordpools/wasnorm_wordpool_less_exclusions.txt	LTP260	ltpFR	3	11	0	GENTLEMAN	631	n/a	n/a	1	n/a	n/a	n/a	n/a	n/a
2016.856	n/a	REC_WORD	1008428	wordpools/wasnorm_wordpool_less_exclusions.txt	LTP260	ltpFR	3	11	0	WOMAN	1620	n/a	n/a	1	n/a	n/a	n/a	n/a	n/a
2018.118	n/a	REC_WORD	1009059	wordpools/wasnorm_wordpool_less_exclusions.txt	LTP260	ltpFR	3	11	1	POTATO	1115	n/a	n/a	1	n/a	n/a	n/a	n/a	n/a
2019.39	n/a	REC_WORD	1009695	wordpools/wasnorm_wordpool_less_exclusions.txt	LTP260	ltpFR	3	11	0	CIGARETTE	309	n/a	n/a	0	n/a	n/a	n/a	n/a	n/a
2020.786	n/a	REC_WORD	1010393	wordpools/wasnorm_wordpool_less_exclusions.txt	LTP260	ltpFR	3	11	1	LIGHTER	819	n/a	n/a	0	n/a	n/a	n/a	n/a	n/a
2021.956	n/a	REC_WORD	1010978	wordpools/wasnorm_wordpool_less_exclusions.txt	LTP260	ltpFR	3	11	0	FLEA	577	n/a	n/a	0	n/a	n/a	n/a	n/a	n/a
2023.594	n/a	REC_WORD	1011797	wordpools/wasnorm_wordpool_less_exclusions.txt	LTP260	ltpFR	3	11	0	BUG	187	n/a	n/a	0	n/a	n/a	n/a	n/a	n/a
2026.736	n/a	REC_WORD	1013368	wordpools/wasnorm_wordpool_less_exclusions.txt	LTP260	ltpFR	3	11	0	CUE	422	n/a	n/a	0	n/a	n/a	n/a	n/a	n/a
2027.91	n/a	REC_WORD	1013955	wordpools/wasnorm_wordpool_less_exclusions.txt	LTP260	ltpFR	3	11	1	VIOLIN	1571	n/a	n/a	0	n/a	n/a	n/a	n/a	n/a
2029.348	n/a	REC_WORD	1014674	wordpools/wasnorm_wordpool_less_exclusions.txt	LTP260	ltpFR	3	11	1	NOTE	958	n/a	n/a	0	n/a	n/a	n/a	n/a	n/a
2107.678	n/a	WORD	1053839	wordpools/wasnorm_wordpool_less_exclusions.txt	LTP260	ltpFR	3	12	1	WORKER	1621	n/a	n/a	1	0.422607421875	0.5869140625	0	lower	amplitud.ttf
2111.776	n/a	WORD	1055888	wordpools/wasnorm_wordpool_less_exclusions.txt	LTP260	ltpFR	3	12	1	FARMER	553	n/a	n/a	1	0.422607421875	0.5869140625	0	lower	amplitud.ttf
2115.674	n/a	WORD	1057837	wordpools/wasnorm_wordpool_less_exclusions.txt	LTP260	ltpFR	3	12	1	KNEE	784	n/a	n/a	1	0.422607421875	0.5869140625	0	lower	amplitud.ttf
2119.64	n/a	WORD	1059820	wordpools/wasnorm_wordpool_less_exclusions.txt	LTP260	ltpFR	3	12	1	SHOULDER	1294	n/a	n/a	1	0.422607421875	0.5869140625	0	lower	amplitud.ttf
2123.774	n/a	WORD	1061887	wordpools/wasnorm_wordpool_less_exclusions.txt	LTP260	ltpFR	3	12	1	HALL	677	n/a	n/a	0	0.422607421875	0.5869140625	0	lower	amplitud.ttf
2127.856	n/a	WORD	1063928	wordpools/wasnorm_wordpool_less_exclusions.txt	LTP260	ltpFR	3	12	1	DORM	488	n/a	n/a	0	0.422607421875	0.5869140625	0	lower	amplitud.ttf
2131.816	n/a	WORD	1065908	wordpools/wasnorm_wordpool_less_exclusions.txt	LTP260	ltpFR	3	12	1	DIAMOND	458	n/a	n/a	0	0.422607421875	0.5869140625	0	lower	amplitud.ttf
2136.004	n/a	WORD	1068002	wordpools/wasnorm_wordpool_less_exclusions.txt	LTP260	ltpFR	3	12	1	BUGGY	188	n/a	n/a	0	0.422607421875	0.5869140625	0	lower	amplitud.ttf
2140.186	n/a	WORD	1070093	wordpools/wasnorm_wordpool_less_exclusions.txt	LTP260	ltpFR	3	12	1	MAMMAL	861	n/a	n/a	1	0.422607421875	0.5869140625	0	lower	amplitud.ttf
2144.168	n/a	WORD	1072084	wordpools/wasnorm_wordpool_less_exclusions.txt	LTP260	ltpFR	3	12	1	BLOCKADE	137	n/a	n/a	0	0.422607421875	0.5869140625	0	lower	amplitud.ttf
2148.012	n/a	WORD	1074006	wordpools/wasnorm_wordpool_less_exclusions.txt	LTP260	ltpFR	3	12	1	CONSUMER	365	n/a	n/a	1	0.422607421875	0.5869140625	0	lower	amplitud.ttf
2152.014	n/a	WORD	1076007	wordpools/wasnorm_wordpool_less_exclusions.txt	LTP260	ltpFR	3	12	1	RUBY	1214	n/a	n/a	0	0.422607421875	0.5869140625	0	lower	amplitud.ttf
2156.014	n/a	WORD	1078007	wordpools/wasnorm_wordpool_less_exclusions.txt	LTP260	ltpFR	3	12	1	SIBLING	1301	n/a	n/a	1	0.422607421875	0.5869140625	0	lower	amplitud.ttf
2160.112	n/a	WORD	1080056	wordpools/wasnorm_wordpool_less_exclusions.txt	LTP260	ltpFR	3	12	1	GUARDIAN	668	n/a	n/a	1	0.422607421875	0.5869140625	0	lower	amplitud.ttf
2163.994	n/a	WORD	1081997	wordpools/wasnorm_wordpool_less_exclusions.txt	LTP260	ltpFR	3	12	1	POET	1095	n/a	n/a	1	0.422607421875	0.5869140625	0	lower	amplitud.ttf
2167.976	n/a	WORD	1083988	wordpools/wasnorm_wordpool_less_exclusions.txt	LTP260	ltpFR	3	12	1	WINDSHIELD	1612	n/a	n/a	0	0.422607421875	0.5869140625	0	lower	amplitud.ttf
2173.714	n/a	REC_START	1086857	n/a	LTP260	ltpFR	3	12	n/a	n/a	n/a	n/a	n/a	n/a	n/a	n/a	n/a	n/a	n/a
2174.68	n/a	REC_WORD	1087340	wordpools/wasnorm_wordpool_less_exclusions.txt	LTP260	ltpFR	3	12	1	WINDSHIELD	1612	n/a	n/a	0	n/a	n/a	n/a	n/a	n/a
2175.894	n/a	REC_WORD	1087947	wordpools/wasnorm_wordpool_less_exclusions.txt	LTP260	ltpFR	3	12	1	BUGGY	188	n/a	n/a	0	n/a	n/a	n/a	n/a	n/a
2177.188	n/a	REC_WORD	1088594	wordpools/wasnorm_wordpool_less_exclusions.txt	LTP260	ltpFR	3	12	1	RUBY	1214	n/a	n/a	0	n/a	n/a	n/a	n/a	n/a
2178.406	n/a	REC_WORD	1089203	wordpools/wasnorm_wordpool_less_exclusions.txt	LTP260	ltpFR	3	12	1	DIAMOND	458	n/a	n/a	0	n/a	n/a	n/a	n/a	n/a
2179.684	n/a	REC_WORD	1089842	wordpools/wasnorm_wordpool_less_exclusions.txt	LTP260	ltpFR	3	12	1	DORM	488	n/a	n/a	0	n/a	n/a	n/a	n/a	n/a
2180.942	n/a	REC_WORD	1090471	wordpools/wasnorm_wordpool_less_exclusions.txt	LTP260	ltpFR	3	12	1	HALL	677	n/a	n/a	0	n/a	n/a	n/a	n/a	n/a
2181.358	n/a	REC_WORD	1090679	wordpools/wasnorm_wordpool_less_exclusions.txt	LTP260	ltpFR	3	12	n/a	WAY	-1	n/a	n/a	n/a	n/a	n/a	n/a	n/a	n/a
2183.198	n/a	REC_WORD	1091599	wordpools/wasnorm_wordpool_less_exclusions.txt	LTP260	ltpFR	3	12	1	HALL	677	n/a	n/a	0	n/a	n/a	n/a	n/a	n/a
2185.81	n/a	REC_WORD	1092905	wordpools/wasnorm_wordpool_less_exclusions.txt	LTP260	ltpFR	3	12	1	WORKER	1621	n/a	n/a	1	n/a	n/a	n/a	n/a	n/a
2187.044	n/a	REC_WORD	1093522	wordpools/wasnorm_wordpool_less_exclusions.txt	LTP260	ltpFR	3	12	1	FARMER	553	n/a	n/a	1	n/a	n/a	n/a	n/a	n/a
2188.362	n/a	REC_WORD	1094181	wordpools/wasnorm_wordpool_less_exclusions.txt	LTP260	ltpFR	3	12	1	KNEE	784	n/a	n/a	1	n/a	n/a	n/a	n/a	n/a
2189.582	n/a	REC_WORD	1094791	wordpools/wasnorm_wordpool_less_exclusions.txt	LTP260	ltpFR	3	12	1	SHOULDER	1294	n/a	n/a	1	n/a	n/a	n/a	n/a	n/a
2190.886	n/a	REC_WORD	1095443	wordpools/wasnorm_wordpool_less_exclusions.txt	LTP260	ltpFR	3	12	1	SIBLING	1301	n/a	n/a	1	n/a	n/a	n/a	n/a	n/a
2192.35	n/a	REC_WORD	1096175	wordpools/wasnorm_wordpool_less_exclusions.txt	LTP260	ltpFR	3	12	1	GUARDIAN	668	n/a	n/a	1	n/a	n/a	n/a	n/a	n/a
2193.928	n/a	REC_WORD	1096964	wordpools/wasnorm_wordpool_less_exclusions.txt	LTP260	ltpFR	3	12	1	POET	1095	n/a	n/a	1	n/a	n/a	n/a	n/a	n/a
2214.8	n/a	REC_WORD	1107400	wordpools/wasnorm_wordpool_less_exclusions.txt	LTP260	ltpFR	3	12	1	MAMMAL	861	n/a	n/a	1	n/a	n/a	n/a	n/a	n/a
2249.366	n/a	REST_REWET	1124683	n/a	LTP260	ltpFR	3	12	n/a	n/a	n/a	n/a	n/a	n/a	n/a	n/a	n/a	n/a	n/a
2486.594	n/a	WORD	1243297	wordpools/wasnorm_wordpool_less_exclusions.txt	LTP260	ltpFR	3	13	0	PORCUPINE	1107	n/a	n/a	0	0.57763671875	0.412841796875	1	upper	zerothre.ttf
2490.542	n/a	WORD	1245271	wordpools/wasnorm_wordpool_less_exclusions.txt	LTP260	ltpFR	3	13	0	TOOTHPASTE	1483	n/a	n/a	0	0.57763671875	0.412841796875	1	upper	zerothre.ttf
2494.608	n/a	WORD	1247304	wordpools/wasnorm_wordpool_less_exclusions.txt	LTP260	ltpFR	3	13	0	TELESCOPE	1446	n/a	n/a	1	0.57763671875	0.412841796875	1	upper	zerothre.ttf
2498.554	n/a	WORD	1249277	wordpools/wasnorm_wordpool_less_exclusions.txt	LTP260	ltpFR	3	13	0	MOSS	918	n/a	n/a	0	0.57763671875	0.412841796875	1	upper	zerothre.ttf
2502.67	n/a	WORD	1251335	wordpools/wasnorm_wordpool_less_exclusions.txt	LTP260	ltpFR	3	13	1	BUSH	202	n/a	n/a	1	0.422607421875	0.5869140625	0	lower	amplitud.ttf
2506.716	n/a	WORD	1253358	wordpools/wasnorm_wordpool_less_exclusions.txt	LTP260	ltpFR	3	13	1	FLASHLIGHT	575	n/a	n/a	0	0.422607421875	0.5869140625	0	lower	amplitud.ttf
2510.586	n/a	WORD	1255293	wordpools/wasnorm_wordpool_less_exclusions.txt	LTP260	ltpFR	3	13	1	PEPPER	1047	n/a	n/a	1	0.422607421875	0.5869140625	0	lower	amplitud.ttf
2514.564	n/a	WORD	1257282	wordpools/wasnorm_wordpool_less_exclusions.txt	LTP260	ltpFR	3	13	1	OTTER	986	n/a	n/a	1	0.422607421875	0.5869140625	0	lower	amplitud.ttf
2518.78	n/a	WORD	1259390	wordpools/wasnorm_wordpool_less_exclusions.txt	LTP260	ltpFR	3	13	0	COMB	351	n/a	n/a	0	0.57763671875	0.412841796875	1	upper	zerothre.ttf
2522.932	n/a	WORD	1261466	wordpools/wasnorm_wordpool_less_exclusions.txt	LTP260	ltpFR	3	13	0	NECK	939	n/a	n/a	1	0.57763671875	0.412841796875	1	upper	zerothre.ttf
2526.98	n/a	WORD	1263490	wordpools/wasnorm_wordpool_less_exclusions.txt	LTP260	ltpFR	3	13	0	TOWEL	1489	n/a	n/a	1	0.57763671875	0.412841796875	1	upper	zerothre.ttf
2530.828	n/a	WORD	1265414	wordpools/wasnorm_wordpool_less_exclusions.txt	LTP260	ltpFR	3	13	0	TUNA	1518	n/a	n/a	1	0.57763671875	0.412841796875	1	upper	zerothre.ttf
2534.694	n/a	WORD	1267347	wordpools/wasnorm_wordpool_less_exclusions.txt	LTP260	ltpFR	3	13	1	BRACELET	163	n/a	n/a	0	0.422607421875	0.5869140625	0	lower	amplitud.ttf
2538.56	n/a	WORD	1269280	wordpools/wasnorm_wordpool_less_exclusions.txt	LTP260	ltpFR	3	13	1	EARRING	514	n/a	n/a	0	0.422607421875	0.5869140625	0	lower	amplitud.ttf
2542.688	n/a	WORD	1271344	wordpools/wasnorm_wordpool_less_exclusions.txt	LTP260	ltpFR	3	13	1	PATIO	1025	n/a	n/a	0	0.422607421875	0.5869140625	0	lower	amplitud.ttf
2546.672	n/a	WORD	1273336	wordpools/wasnorm_wordpool_less_exclusions.txt	LTP260	ltpFR	3	13	1	TROUT	1511	n/a	n/a	1	0.422607421875	0.5869140625	0	lower	amplitud.ttf
2552.312	n/a	REC_START	1276156	n/a	LTP260	ltpFR	3	13	n/a	n/a	n/a	n/a	n/a	n/a	n/a	n/a	n/a	n/a	n/a
2553.118	n/a	REC_WORD	1276559	wordpools/wasnorm_wordpool_less_exclusions.txt	LTP260	ltpFR	3	13	1	PATIO	1025	n/a	n/a	0	n/a	n/a	n/a	n/a	n/a
2554.41	n/a	REC_WORD	1277205	wordpools/wasnorm_wordpool_less_exclusions.txt	LTP260	ltpFR	3	13	1	EARRING	514	n/a	n/a	0	n/a	n/a	n/a	n/a	n/a
2555.706	n/a	REC_WORD	1277853	wordpools/wasnorm_wordpool_less_exclusions.txt	LTP260	ltpFR	3	13	1	BRACELET	163	n/a	n/a	0	n/a	n/a	n/a	n/a	n/a
2557.45	n/a	REC_WORD	1278725	wordpools/wasnorm_wordpool_less_exclusions.txt	LTP260	ltpFR	3	13	0	NECK	939	n/a	n/a	1	n/a	n/a	n/a	n/a	n/a
2558.688	n/a	REC_WORD	1279344	wordpools/wasnorm_wordpool_less_exclusions.txt	LTP260	ltpFR	3	13	0	TOWEL	1489	n/a	n/a	1	n/a	n/a	n/a	n/a	n/a
2559.902	n/a	REC_WORD	1279951	wordpools/wasnorm_wordpool_less_exclusions.txt	LTP260	ltpFR	3	13	0	COMB	351	n/a	n/a	0	n/a	n/a	n/a	n/a	n/a
2561.244	n/a	REC_WORD	1280622	wordpools/wasnorm_wordpool_less_exclusions.txt	LTP260	ltpFR	3	13	0	PORCUPINE	1107	n/a	n/a	0	n/a	n/a	n/a	n/a	n/a
2562.714	n/a	REC_WORD	1281357	wordpools/wasnorm_wordpool_less_exclusions.txt	LTP260	ltpFR	3	13	1	OTTER	986	n/a	n/a	1	n/a	n/a	n/a	n/a	n/a
2563.96	n/a	REC_WORD	1281980	wordpools/wasnorm_wordpool_less_exclusions.txt	LTP260	ltpFR	3	13	0	TUNA	1518	n/a	n/a	1	n/a	n/a	n/a	n/a	n/a
2569.496	n/a	REC_WORD	1284748	wordpools/wasnorm_wordpool_less_exclusions.txt	LTP260	ltpFR	3	13	0	TOOTHPASTE	1483	n/a	n/a	0	n/a	n/a	n/a	n/a	n/a
2570.624	n/a	REC_WORD	1285312	wordpools/wasnorm_wordpool_less_exclusions.txt	LTP260	ltpFR	3	13	0	MOSS	918	n/a	n/a	0	n/a	n/a	n/a	n/a	n/a
2572.486	n/a	REC_WORD	1286243	wordpools/wasnorm_wordpool_less_exclusions.txt	LTP260	ltpFR	3	13	1	BUSH	202	n/a	n/a	1	n/a	n/a	n/a	n/a	n/a
2573.63	n/a	REC_WORD	1286815	wordpools/wasnorm_wordpool_less_exclusions.txt	LTP260	ltpFR	3	13	1	FLASHLIGHT	575	n/a	n/a	0	n/a	n/a	n/a	n/a	n/a
2577.188	n/a	REC_WORD	1288594	wordpools/wasnorm_wordpool_less_exclusions.txt	LTP260	ltpFR	3	13	0	TELESCOPE	1446	n/a	n/a	1	n/a	n/a	n/a	n/a	n/a
2593.374	n/a	REC_WORD	1296687	wordpools/wasnorm_wordpool_less_exclusions.txt	LTP260	ltpFR	3	13	1	PEPPER	1047	n/a	n/a	1	n/a	n/a	n/a	n/a	n/a
2632.536	n/a	WORD	1316268	wordpools/wasnorm_wordpool_less_exclusions.txt	LTP260	ltpFR	3	14	-1	BATHTUB	100	n/a	n/a	-1	1.0	1.0	1	upper	Verdana.ttf
2636.4	n/a	WORD	1318200	wordpools/wasnorm_wordpool_less_exclusions.txt	LTP260	ltpFR	3	14	-1	NAPKIN	937	n/a	n/a	-1	1.0	1.0	1	upper	Verdana.ttf
2640.582	n/a	WORD	1320291	wordpools/wasnorm_wordpool_less_exclusions.txt	LTP260	ltpFR	3	14	-1	BASKETBALL	96	n/a	n/a	-1	1.0	1.0	1	upper	Verdana.ttf
2644.614	n/a	WORD	1322307	wordpools/wasnorm_wordpool_less_exclusions.txt	LTP260	ltpFR	3	14	-1	UMPIRE	1535	n/a	n/a	-1	1.0	1.0	1	upper	Verdana.ttf
2648.68	n/a	WORD	1324340	wordpools/wasnorm_wordpool_less_exclusions.txt	LTP260	ltpFR	3	14	-1	LANDSCAPE	799	n/a	n/a	-1	1.0	1.0	1	upper	Verdana.ttf
2652.794	n/a	WORD	1326397	wordpools/wasnorm_wordpool_less_exclusions.txt	LTP260	ltpFR	3	14	-1	EDITORIAL	517	n/a	n/a	-1	1.0	1.0	1	upper	Verdana.ttf
2656.626	n/a	WORD	1328313	wordpools/wasnorm_wordpool_less_exclusions.txt	LTP260	ltpFR	3	14	-1	BERRY	122	n/a	n/a	-1	1.0	1.0	1	upper	Verdana.ttf
2660.808	n/a	WORD	1330404	wordpools/wasnorm_wordpool_less_exclusions.txt	LTP260	ltpFR	3	14	-1	POTTERY	1116	n/a	n/a	-1	1.0	1.0	1	upper	Verdana.ttf
2665.024	n/a	WORD	1332512	wordpools/wasnorm_wordpool_less_exclusions.txt	LTP260	ltpFR	3	14	-1	GOVERNOR	651	n/a	n/a	-1	1.0	1.0	1	upper	Verdana.ttf
2669.09	n/a	WORD	1334545	wordpools/wasnorm_wordpool_less_exclusions.txt	LTP260	ltpFR	3	14	-1	RECEPTIONIST	1174	n/a	n/a	-1	1.0	1.0	1	upper	Verdana.ttf
2673.258	n/a	WORD	1336629	wordpools/wasnorm_wordpool_less_exclusions.txt	LTP260	ltpFR	3	14	-1	YARD	1630	n/a	n/a	-1	1.0	1.0	1	upper	Verdana.ttf
2677.44	n/a	WORD	1338720	wordpools/wasnorm_wordpool_less_exclusions.txt	LTP260	ltpFR	3	14	-1	BINDER	127	n/a	n/a	-1	1.0	1.0	1	upper	Verdana.ttf
2681.588	n/a	WORD	1340794	wordpools/wasnorm_wordpool_less_exclusions.txt	LTP260	ltpFR	3	14	-1	WAVE	1596	n/a	n/a	-1	1.0	1.0	1	upper	Verdana.ttf
2685.568	n/a	WORD	1342784	wordpools/wasnorm_wordpool_less_exclusions.txt	LTP260	ltpFR	3	14	-1	WASHCLOTH	1591	n/a	n/a	-1	1.0	1.0	1	upper	Verdana.ttf
2689.402	n/a	WORD	1344701	wordpools/wasnorm_wordpool_less_exclusions.txt	LTP260	ltpFR	3	14	-1	VACUUM	1543	n/a	n/a	-1	1.0	1.0	1	upper	Verdana.ttf
2693.518	n/a	WORD	1346759	wordpools/wasnorm_wordpool_less_exclusions.txt	LTP260	ltpFR	3	14	-1	PUMPKIN	1142	n/a	n/a	-1	1.0	1.0	1	upper	Verdana.ttf
2699.274	n/a	REC_START	1349637	n/a	LTP260	ltpFR	3	14	n/a	n/a	n/a	n/a	n/a	n/a	n/a	n/a	n/a	n/a	n/a
2700.372	n/a	REC_WORD	1350186	wordpools/wasnorm_wordpool_less_exclusions.txt	LTP260	ltpFR	3	14	-1	PUMPKIN	1142	n/a	n/a	-1	n/a	n/a	n/a	n/a	n/a
2701.74	n/a	REC_WORD	1350870	wordpools/wasnorm_wordpool_less_exclusions.txt	LTP260	ltpFR	3	14	-1	POTTERY	1116	n/a	n/a	-1	n/a	n/a	n/a	n/a	n/a
2703.382	n/a	REC_WORD	1351691	wordpools/wasnorm_wordpool_less_exclusions.txt	LTP260	ltpFR	3	14	-1	BATHTUB	100	n/a	n/a	-1	n/a	n/a	n/a	n/a	n/a
2704.876	n/a	REC_WORD	1352438	wordpools/wasnorm_wordpool_less_exclusions.txt	LTP260	ltpFR	3	14	-1	NAPKIN	937	n/a	n/a	-1	n/a	n/a	n/a	n/a	n/a
2706.188	n/a	REC_WORD	1353094	wordpools/wasnorm_wordpool_less_exclusions.txt	LTP260	ltpFR	3	14	-1	WASHCLOTH	1591	n/a	n/a	-1	n/a	n/a	n/a	n/a	n/a
2707.89	n/a	REC_WORD	1353945	wordpools/wasnorm_wordpool_less_exclusions.txt	LTP260	ltpFR	3	14	-1	BERRY	122	n/a	n/a	-1	n/a	n/a	n/a	n/a	n/a
2709.212	n/a	REC_WORD	1354606	wordpools/wasnorm_wordpool_less_exclusions.txt	LTP260	ltpFR	3	14	-1	GOVERNOR	651	n/a	n/a	-1	n/a	n/a	n/a	n/a	n/a
2710.502	n/a	REC_WORD	1355251	wordpools/wasnorm_wordpool_less_exclusions.txt	LTP260	ltpFR	3	14	n/a	SECRETARY	1265	n/a	n/a	n/a	n/a	n/a	n/a	n/a	n/a
2712.57	n/a	REC_WORD	1356285	wordpools/wasnorm_wordpool_less_exclusions.txt	LTP260	ltpFR	3	14	-1	VACUUM	1543	n/a	n/a	-1	n/a	n/a	n/a	n/a	n/a
2714.148	n/a	REC_WORD	1357074	wordpools/wasnorm_wordpool_less_exclusions.txt	LTP260	ltpFR	3	14	-1	BINDER	127	n/a	n/a	-1	n/a	n/a	n/a	n/a	n/a
2715.558	n/a	REC_WORD	1357779	wordpools/wasnorm_wordpool_less_exclusions.txt	LTP260	ltpFR	3	14	-1	BASKETBALL	96	n/a	n/a	-1	n/a	n/a	n/a	n/a	n/a
2716.966	n/a	REC_WORD	1358483	wordpools/wasnorm_wordpool_less_exclusions.txt	LTP260	ltpFR	3	14	-1	UMPIRE	1535	n/a	n/a	-1	n/a	n/a	n/a	n/a	n/a
2719.108	n/a	REC_WORD	1359554	wordpools/wasnorm_wordpool_less_exclusions.txt	LTP260	ltpFR	3	14	-1	EDITORIAL	517	n/a	n/a	-1	n/a	n/a	n/a	n/a	n/a
2720.604	n/a	REC_WORD	1360302	wordpools/wasnorm_wordpool_less_exclusions.txt	LTP260	ltpFR	3	14	-1	LANDSCAPE	799	n/a	n/a	-1	n/a	n/a	n/a	n/a	n/a
2722.092	n/a	REC_WORD	1361046	wordpools/wasnorm_wordpool_less_exclusions.txt	LTP260	ltpFR	3	14	-1	YARD	1630	n/a	n/a	-1	n/a	n/a	n/a	n/a	n/a
2792.378	n/a	WORD	1396189	wordpools/wasnorm_wordpool_less_exclusions.txt	LTP260	ltpFR	3	15	0	INFANT	737	n/a	n/a	1	0.57763671875	0.412841796875	1	upper	zerothre.ttf
2796.276	n/a	WORD	1398138	wordpools/wasnorm_wordpool_less_exclusions.txt	LTP260	ltpFR	3	15	0	CHILD	299	n/a	n/a	1	0.57763671875	0.412841796875	1	upper	zerothre.ttf
2800.39	n/a	WORD	1400195	wordpools/wasnorm_wordpool_less_exclusions.txt	LTP260	ltpFR	3	15	0	PERCH	1048	n/a	n/a	1	0.57763671875	0.412841796875	1	upper	zerothre.ttf
2804.61	n/a	WORD	1402305	wordpools/wasnorm_wordpool_less_exclusions.txt	LTP260	ltpFR	3	15	0	MONGOOSE	909	n/a	n/a	0	0.57763671875	0.412841796875	1	upper	zerothre.ttf
2808.658	n/a	WORD	1404329	wordpools/wasnorm_wordpool_less_exclusions.txt	LTP260	ltpFR	3	15	0	DRIVEWAY	500	n/a	n/a	1	0.57763671875	0.412841796875	1	upper	zerothre.ttf
2812.572	n/a	WORD	1406286	wordpools/wasnorm_wordpool_less_exclusions.txt	LTP260	ltpFR	3	15	0	CONCRETE	361	n/a	n/a	1	0.57763671875	0.412841796875	1	upper	zerothre.ttf
2816.57	n/a	WORD	1408285	wordpools/wasnorm_wordpool_less_exclusions.txt	LTP260	ltpFR	3	15	0	SANDWICH	1232	n/a	n/a	0	0.57763671875	0.412841796875	1	upper	zerothre.ttf
2820.486	n/a	WORD	1410243	wordpools/wasnorm_wordpool_less_exclusions.txt	LTP260	ltpFR	3	15	0	GARAGE	621	n/a	n/a	1	0.57763671875	0.412841796875	1	upper	zerothre.ttf
2824.352	n/a	WORD	1412176	wordpools/wasnorm_wordpool_less_exclusions.txt	LTP260	ltpFR	3	15	0	APE	31	n/a	n/a	1	0.57763671875	0.412841796875	1	upper	zerothre.ttf
2828.414	n/a	WORD	1414207	wordpools/wasnorm_wordpool_less_exclusions.txt	LTP260	ltpFR	3	15	0	SAP	1233	n/a	n/a	0	0.57763671875	0.412841796875	1	upper	zerothre.ttf
2832.244	n/a	WORD	1416122	wordpools/wasnorm_wordpool_less_exclusions.txt	LTP260	ltpFR	3	15	0	LAUNDRY	803	n/a	n/a	0	0.57763671875	0.412841796875	1	upper	zerothre.ttf
2836.312	n/a	WORD	1418156	wordpools/wasnorm_wordpool_less_exclusions.txt	LTP260	ltpFR	3	15	0	FEAST	556	n/a	n/a	1	0.57763671875	0.412841796875	1	upper	zerothre.ttf
2840.276	n/a	WORD	1420138	wordpools/wasnorm_wordpool_less_exclusions.txt	LTP260	ltpFR	3	15	0	MOUTH	926	n/a	n/a	0	0.57763671875	0.412841796875	1	upper	zerothre.ttf
2844.494	n/a	WORD	1422247	wordpools/wasnorm_wordpool_less_exclusions.txt	LTP260	ltpFR	3	15	0	KIDNEY	776	n/a	n/a	0	0.57763671875	0.412841796875	1	upper	zerothre.ttf
2848.558	n/a	WORD	1424279	wordpools/wasnorm_wordpool_less_exclusions.txt	LTP260	ltpFR	3	15	0	MOTOR	922	n/a	n/a	1	0.57763671875	0.412841796875	1	upper	zerothre.ttf
2852.408	n/a	WORD	1426204	wordpools/wasnorm_wordpool_less_exclusions.txt	LTP260	ltpFR	3	15	0	TAXI	1438	n/a	n/a	1	0.57763671875	0.412841796875	1	upper	zerothre.ttf
2858.298	n/a	REC_START	1429149	n/a	LTP260	ltpFR	3	15	n/a	n/a	n/a	n/a	n/a	n/a	n/a	n/a	n/a	n/a	n/a
2859.308	n/a	REC_WORD	1429654	wordpools/wasnorm_wordpool_less_exclusions.txt	LTP260	ltpFR	3	15	0	MOTOR	922	n/a	n/a	1	n/a	n/a	n/a	n/a	n/a
2860.486	n/a	REC_WORD	1430243	wordpools/wasnorm_wordpool_less_exclusions.txt	LTP260	ltpFR	3	15	0	TAXI	1438	n/a	n/a	1	n/a	n/a	n/a	n/a	n/a
2862.074	n/a	REC_WORD	1431037	wordpools/wasnorm_wordpool_less_exclusions.txt	LTP260	ltpFR	3	15	0	DRIVEWAY	500	n/a	n/a	1	n/a	n/a	n/a	n/a	n/a
2864.374	n/a	REC_WORD	1432187	wordpools/wasnorm_wordpool_less_exclusions.txt	LTP260	ltpFR	3	15	0	CONCRETE	361	n/a	n/a	1	n/a	n/a	n/a	n/a	n/a
2865.77	n/a	REC_WORD	1432885	wordpools/wasnorm_wordpool_less_exclusions.txt	LTP260	ltpFR	3	15	0	GARAGE	621	n/a	n/a	1	n/a	n/a	n/a	n/a	n/a
2867.136	n/a	REC_WORD	1433568	wordpools/wasnorm_wordpool_less_exclusions.txt	LTP260	ltpFR	3	15	0	PERCH	1048	n/a	n/a	1	n/a	n/a	n/a	n/a	n/a
2868.254	n/a	REC_WORD	1434127	wordpools/wasnorm_wordpool_less_exclusions.txt	LTP260	ltpFR	3	15	0	MONGOOSE	909	n/a	n/a	0	n/a	n/a	n/a	n/a	n/a
2869.5	n/a	REC_WORD	1434750	wordpools/wasnorm_wordpool_less_exclusions.txt	LTP260	ltpFR	3	15	0	SANDWICH	1232	n/a	n/a	0	n/a	n/a	n/a	n/a	n/a
2870.678	n/a	REC_WORD	1435339	wordpools/wasnorm_wordpool_less_exclusions.txt	LTP260	ltpFR	3	15	0	SAP	1233	n/a	n/a	0	n/a	n/a	n/a	n/a	n/a
2871.804	n/a	REC_WORD	1435902	wordpools/wasnorm_wordpool_less_exclusions.txt	LTP260	ltpFR	3	15	0	FEAST	556	n/a	n/a	1	n/a	n/a	n/a	n/a	n/a
2873.038	n/a	REC_WORD	1436519	wordpools/wasnorm_wordpool_less_exclusions.txt	LTP260	ltpFR	3	15	0	MOUTH	926	n/a	n/a	0	n/a	n/a	n/a	n/a	n/a
2874.106	n/a	REC_WORD	1437053	wordpools/wasnorm_wordpool_less_exclusions.txt	LTP260	ltpFR	3	15	0	KIDNEY	776	n/a	n/a	0	n/a	n/a	n/a	n/a	n/a
2876.238	n/a	REC_WORD	1438119	wordpools/wasnorm_wordpool_less_exclusions.txt	LTP260	ltpFR	3	15	0	INFANT	737	n/a	n/a	1	n/a	n/a	n/a	n/a	n/a
2877.352	n/a	REC_WORD	1438676	wordpools/wasnorm_wordpool_less_exclusions.txt	LTP260	ltpFR	3	15	0	CHILD	299	n/a	n/a	1	n/a	n/a	n/a	n/a	n/a
2878.584	n/a	REC_WORD	1439292	wordpools/wasnorm_wordpool_less_exclusions.txt	LTP260	ltpFR	3	15	0	APE	31	n/a	n/a	1	n/a	n/a	n/a	n/a	n/a
2904.454	n/a	REC_WORD	1452227	wordpools/wasnorm_wordpool_less_exclusions.txt	LTP260	ltpFR	3	15	0	LAUNDRY	803	n/a	n/a	0	n/a	n/a	n/a	n/a	n/a
2950.18	n/a	WORD	1475090	wordpools/wasnorm_wordpool_less_exclusions.txt	LTP260	ltpFR	3	16	0	SPONGE	1355	n/a	n/a	0	0.57763671875	0.412841796875	1	upper	zerothre.ttf
2954.096	n/a	WORD	1477048	wordpools/wasnorm_wordpool_less_exclusions.txt	LTP260	ltpFR	3	16	0	BOULDER	155	n/a	n/a	1	0.57763671875	0.412841796875	1	upper	zerothre.ttf
2957.994	n/a	WORD	1478997	wordpools/wasnorm_wordpool_less_exclusions.txt	LTP260	ltpFR	3	16	1	GEM	629	n/a	n/a	0	0.422607421875	0.5869140625	0	lower	amplitud.ttf
2961.96	n/a	WORD	1480980	wordpools/wasnorm_wordpool_less_exclusions.txt	LTP260	ltpFR	3	16	1	CHERRY	293	n/a	n/a	1	0.422607421875	0.5869140625	0	lower	amplitud.ttf
2966.174	n/a	WORD	1483087	wordpools/wasnorm_wordpool_less_exclusions.txt	LTP260	ltpFR	3	16	1	EMPEROR	529	n/a	n/a	1	0.422607421875	0.5869140625	0	lower	amplitud.ttf
2970.108	n/a	WORD	1485054	wordpools/wasnorm_wordpool_less_exclusions.txt	LTP260	ltpFR	3	16	1	PIPE	1073	n/a	n/a	1	0.422607421875	0.5869140625	0	lower	amplitud.ttf
2974.102	n/a	WORD	1487051	wordpools/wasnorm_wordpool_less_exclusions.txt	LTP260	ltpFR	3	16	0	VILLAGE	1566	n/a	n/a	1	0.57763671875	0.412841796875	1	upper	zerothre.ttf
2978.004	n/a	WORD	1489002	wordpools/wasnorm_wordpool_less_exclusions.txt	LTP260	ltpFR	3	16	0	HOME	712	n/a	n/a	1	0.57763671875	0.412841796875	1	upper	zerothre.ttf
2982.052	n/a	WORD	1491026	wordpools/wasnorm_wordpool_less_exclusions.txt	LTP260	ltpFR	3	16	0	COSTUME	383	n/a	n/a	1	0.57763671875	0.412841796875	1	upper	zerothre.ttf
2985.948	n/a	WORD	1492974	wordpools/wasnorm_wordpool_less_exclusions.txt	LTP260	ltpFR	3	16	0	PAW	1029	n/a	n/a	0	0.57763671875	0.412841796875	1	upper	zerothre.ttf
2989.964	n/a	WORD	1494982	wordpools/wasnorm_wordpool_less_exclusions.txt	LTP260	ltpFR	3	16	1	CAT	257	n/a	n/a	1	0.422607421875	0.5869140625	0	lower	amplitud.ttf
2994.066	n/a	WORD	1497033	wordpools/wasnorm_wordpool_less_exclusions.txt	LTP260	ltpFR	3	16	1	POLE	1097	n/a	n/a	0	0.422607421875	0.5869140625	0	lower	amplitud.ttf
2997.914	n/a	WORD	1498957	wordpools/wasnorm_wordpool_less_exclusions.txt	LTP260	ltpFR	3	16	1	SHAMPOO	1274	n/a	n/a	0	0.422607421875	0.5869140625	0	lower	amplitud.ttf
3001.778	n/a	WORD	1500889	wordpools/wasnorm_wordpool_less_exclusions.txt	LTP260	ltpFR	3	16	1	HOSTESS	723	n/a	n/a	1	0.422607421875	0.5869140625	0	lower	amplitud.ttf
3005.91	n/a	WORD	1502955	wordpools/wasnorm_wordpool_less_exclusions.txt	LTP260	ltpFR	3	16	0	PILOT	1070	n/a	n/a	1	0.57763671875	0.412841796875	1	upper	zerothre.ttf
3010.094	n/a	WORD	1505047	wordpools/wasnorm_wordpool_less_exclusions.txt	LTP260	ltpFR	3	16	0	KING	777	n/a	n/a	1	0.57763671875	0.412841796875	1	upper	zerothre.ttf
3015.984	n/a	REC_START	1507992	n/a	LTP260	ltpFR	3	16	n/a	n/a	n/a	n/a	n/a	n/a	n/a	n/a	n/a	n/a	n/a
3016.64	n/a	REC_WORD	1508320	wordpools/wasnorm_wordpool_less_exclusions.txt	LTP260	ltpFR	3	16	0	PILOT	1070	n/a	n/a	1	n/a	n/a	n/a	n/a	n/a
3017.958	n/a	REC_WORD	1508979	wordpools/wasnorm_wordpool_less_exclusions.txt	LTP260	ltpFR	3	16	0	KING	777	n/a	n/a	1	n/a	n/a	n/a	n/a	n/a
3020.5	n/a	REC_WORD	1510250	wordpools/wasnorm_wordpool_less_exclusions.txt	LTP260	ltpFR	3	16	0	VILLAGE	1566	n/a	n/a	1	n/a	n/a	n/a	n/a	n/a
3021.732	n/a	REC_WORD	1510866	wordpools/wasnorm_wordpool_less_exclusions.txt	LTP260	ltpFR	3	16	0	HOME	712	n/a	n/a	1	n/a	n/a	n/a	n/a	n/a
3023.04	n/a	REC_WORD	1511520	wordpools/wasnorm_wordpool_less_exclusions.txt	LTP260	ltpFR	3	16	1	EMPEROR	529	n/a	n/a	1	n/a	n/a	n/a	n/a	n/a
3024.888	n/a	REC_WORD	1512444	wordpools/wasnorm_wordpool_less_exclusions.txt	LTP260	ltpFR	3	16	1	HOSTESS	723	n/a	n/a	1	n/a	n/a	n/a	n/a	n/a
3026.128	n/a	REC_WORD	1513064	wordpools/wasnorm_wordpool_less_exclusions.txt	LTP260	ltpFR	3	16	1	SHAMPOO	1274	n/a	n/a	0	n/a	n/a	n/a	n/a	n/a
3028.134	n/a	REC_WORD	1514067	wordpools/wasnorm_wordpool_less_exclusions.txt	LTP260	ltpFR	3	16	1	CAT	257	n/a	n/a	1	n/a	n/a	n/a	n/a	n/a
3029.266	n/a	REC_WORD	1514633	wordpools/wasnorm_wordpool_less_exclusions.txt	LTP260	ltpFR	3	16	0	PAW	1029	n/a	n/a	0	n/a	n/a	n/a	n/a	n/a
3030.414	n/a	REC_WORD	1515207	wordpools/wasnorm_wordpool_less_exclusions.txt	LTP260	ltpFR	3	16	1	POLE	1097	n/a	n/a	0	n/a	n/a	n/a	n/a	n/a
3031.684	n/a	REC_WORD	1515842	wordpools/wasnorm_wordpool_less_exclusions.txt	LTP260	ltpFR	3	16	0	BOULDER	155	n/a	n/a	1	n/a	n/a	n/a	n/a	n/a
3032.782	n/a	REC_WORD	1516391	wordpools/wasnorm_wordpool_less_exclusions.txt	LTP260	ltpFR	3	16	0	SPONGE	1355	n/a	n/a	0	n/a	n/a	n/a	n/a	n/a
3036.49	n/a	REC_WORD	1518245	wordpools/wasnorm_wordpool_less_exclusions.txt	LTP260	ltpFR	3	16	1	CHERRY	293	n/a	n/a	1	n/a	n/a	n/a	n/a	n/a
3037.756	n/a	REC_WORD	1518878	wordpools/wasnorm_wordpool_less_exclusions.txt	LTP260	ltpFR	3	16	1	GEM	629	n/a	n/a	0	n/a	n/a	n/a	n/a	n/a
3041.816	n/a	REC_WORD	1520908	wordpools/wasnorm_wordpool_less_exclusions.txt	LTP260	ltpFR	3	16	0	COSTUME	383	n/a	n/a	1	n/a	n/a	n/a	n/a	n/a
3146.03	n/a	REC_START	1573015	n/a	LTP260	ltpFR	3	1	n/a	n/a	n/a	n/a	n/a	n/a	n/a	n/a	n/a	n/a	n/a
3146.08	n/a	RECOG_TARGET	1573040	n/a	LTP260	ltpFR	3	1	1	CHEF	290	1	5	1	n/a	n/a	n/a	n/a	n/a
3147.622	n/a	RECOG_RESP	1573811	n/a	LTP260	ltpFR	3	1	1	CHEF	290	1	n/a	1	n/a	n/a	n/a	n/a	n/a
3148.69	n/a	RECOG_CONF	1574345	n/a	LTP260	ltpFR	3	1	1	CHEF	290	n/a	5	1	n/a	n/a	n/a	n/a	n/a
3150.548	n/a	RECOG_TARGET	1575274	n/a	LTP260	ltpFR	3	1	-1	SPINE	1353	1	5	-1	n/a	n/a	n/a	n/a	n/a
3151.274	n/a	RECOG_RESP	1575637	n/a	LTP260	ltpFR	3	1	-1	SPINE	1353	1	n/a	-1	n/a	n/a	n/a	n/a	n/a
3152.102	n/a	RECOG_CONF	1576051	n/a	LTP260	ltpFR	3	1	-1	SPINE	1353	n/a	5	-1	n/a	n/a	n/a	n/a	n/a
3153.772	n/a	RECOG_TARGET	1576886	n/a	LTP260	ltpFR	3	1	1	DRUM	502	0	3	0	n/a	n/a	n/a	n/a	n/a
3154.8	n/a	RECOG_RESP	1577400	n/a	LTP260	ltpFR	3	1	1	DRUM	502	0	n/a	0	n/a	n/a	n/a	n/a	n/a
3155.774	n/a	RECOG_CONF	1577887	n/a	LTP260	ltpFR	3	1	1	DRUM	502	n/a	3	0	n/a	n/a	n/a	n/a	n/a
3157.524	n/a	RECOG_TARGET	1578762	n/a	LTP260	ltpFR	3	1	0	PORCUPINE	1107	1	5	0	n/a	n/a	n/a	n/a	n/a
3158.218	n/a	RECOG_RESP	1579109	n/a	LTP260	ltpFR	3	1	0	PORCUPINE	1107	1	n/a	0	n/a	n/a	n/a	n/a	n/a
3159.016	n/a	RECOG_CONF	1579508	n/a	LTP260	ltpFR	3	1	0	PORCUPINE	1107	n/a	5	0	n/a	n/a	n/a	n/a	n/a
3160.586	n/a	RECOG_TARGET	1580293	n/a	LTP260	ltpFR	3	1	0	APE	31	1	5	1	n/a	n/a	n/a	n/a	n/a
3161.432	n/a	RECOG_RESP	1580716	n/a	LTP260	ltpFR	3	1	0	APE	31	1	n/a	1	n/a	n/a	n/a	n/a	n/a
3162.22	n/a	RECOG_CONF	1581110	n/a	LTP260	ltpFR	3	1	0	APE	31	n/a	5	1	n/a	n/a	n/a	n/a	n/a
3163.964	n/a	RECOG_TARGET	1581982	n/a	LTP260	ltpFR	3	1	0	STRAW	1390	1	5	0	n/a	n/a	n/a	n/a	n/a
3164.6	n/a	RECOG_RESP	1582300	n/a	LTP260	ltpFR	3	1	0	STRAW	1390	1	n/a	0	n/a	n/a	n/a	n/a	n/a
3165.392	n/a	RECOG_CONF	1582696	n/a	LTP260	ltpFR	3	1	0	STRAW	1390	n/a	5	0	n/a	n/a	n/a	n/a	n/a
3166.89	n/a	RECOG_TARGET	1583445	n/a	LTP260	ltpFR	3	1	0	GENTLEMAN	631	1	5	1	n/a	n/a	n/a	n/a	n/a
3167.548	n/a	RECOG_RESP	1583774	n/a	LTP260	ltpFR	3	1	0	GENTLEMAN	631	1	n/a	1	n/a	n/a	n/a	n/a	n/a
3168.306	n/a	RECOG_CONF	1584153	n/a	LTP260	ltpFR	3	1	0	GENTLEMAN	631	n/a	5	1	n/a	n/a	n/a	n/a	n/a
3169.934	n/a	RECOG_LURE	1584967	n/a	LTP260	ltpFR	3	1	n/a	SKULL	1320	0	4	n/a	n/a	n/a	n/a	n/a	n/a
3170.864	n/a	RECOG_RESP	1585432	n/a	LTP260	ltpFR	3	1	n/a	SKULL	1320	0	n/a	n/a	n/a	n/a	n/a	n/a	n/a
3171.738	n/a	RECOG_CONF	1585869	n/a	LTP260	ltpFR	3	1	n/a	SKULL	1320	n/a	4	n/a	n/a	n/a	n/a	n/a	n/a
3173.334	n/a	RECOG_TARGET	1586667	n/a	LTP260	ltpFR	3	1	-1	BATHTUB	100	1	5	-1	n/a	n/a	n/a	n/a	n/a
3173.932	n/a	RECOG_RESP	1586966	n/a	LTP260	ltpFR	3	1	-1	BATHTUB	100	1	n/a	-1	n/a	n/a	n/a	n/a	n/a
3174.83	n/a	RECOG_CONF	1587415	n/a	LTP260	ltpFR	3	1	-1	BATHTUB	100	n/a	5	-1	n/a	n/a	n/a	n/a	n/a
3176.564	n/a	RECOG_TARGET	1588282	n/a	LTP260	ltpFR	3	1	0	BOULDER	155	1	5	1	n/a	n/a	n/a	n/a	n/a
3177.196	n/a	RECOG_RESP	1588598	n/a	LTP260	ltpFR	3	1	0	BOULDER	155	1	n/a	1	n/a	n/a	n/a	n/a	n/a
3177.904	n/a	RECOG_CONF	1588952	n/a	LTP260	ltpFR	3	1	0	BOULDER	155	n/a	5	1	n/a	n/a	n/a	n/a	n/a
3179.542	n/a	RECOG_LURE	1589771	n/a	LTP260	ltpFR	3	1	n/a	LINEN	825	0	3	n/a	n/a	n/a	n/a	n/a	n/a
3180.26	n/a	RECOG_RESP	1590130	n/a	LTP260	ltpFR	3	1	n/a	LINEN	825	0	n/a	n/a	n/a	n/a	n/a	n/a	n/a
3181.068	n/a	RECOG_CONF	1590534	n/a	LTP260	ltpFR	3	1	n/a	LINEN	825	n/a	3	n/a	n/a	n/a	n/a	n/a	n/a
3182.834	n/a	RECOG_TARGET	1591417	n/a	LTP260	ltpFR	3	1	1	BATH	98	1	5	0	n/a	n/a	n/a	n/a	n/a
3183.572	n/a	RECOG_RESP	1591786	n/a	LTP260	ltpFR	3	1	1	BATH	98	1	n/a	0	n/a	n/a	n/a	n/a	n/a
3184.32	n/a	RECOG_CONF	1592160	n/a	LTP260	ltpFR	3	1	1	BATH	98	n/a	5	0	n/a	n/a	n/a	n/a	n/a
3186.048	n/a	RECOG_TARGET	1593024	n/a	LTP260	ltpFR	3	1	0	CIGARETTE	309	1	5	0	n/a	n/a	n/a	n/a	n/a
3186.654	n/a	RECOG_RESP	1593327	n/a	LTP260	ltpFR	3	1	0	CIGARETTE	309	1	n/a	0	n/a	n/a	n/a	n/a	n/a
3187.374	n/a	RECOG_CONF	1593687	n/a	LTP260	ltpFR	3	1	0	CIGARETTE	309	n/a	5	0	n/a	n/a	n/a	n/a	n/a
3189.094	n/a	RECOG_LURE	1594547	n/a	LTP260	ltpFR	3	1	n/a	WALLET	1583	0	4	n/a	n/a	n/a	n/a	n/a	n/a
3189.998	n/a	RECOG_RESP	1594999	n/a	LTP260	ltpFR	3	1	n/a	WALLET	1583	0	n/a	n/a	n/a	n/a	n/a	n/a	n/a
3190.906	n/a	RECOG_CONF	1595453	n/a	LTP260	ltpFR	3	1	n/a	WALLET	1583	n/a	4	n/a	n/a	n/a	n/a	n/a	n/a
3192.572	n/a	RECOG_LURE	1596286	n/a	LTP260	ltpFR	3	1	n/a	CHARCOAL	281	0	5	n/a	n/a	n/a	n/a	n/a	n/a
3193.274	n/a	RECOG_RESP	1596637	n/a	LTP260	ltpFR	3	1	n/a	CHARCOAL	281	0	n/a	n/a	n/a	n/a	n/a	n/a	n/a
3194.118	n/a	RECOG_CONF	1597059	n/a	LTP260	ltpFR	3	1	n/a	CHARCOAL	281	n/a	5	n/a	n/a	n/a	n/a	n/a	n/a
3195.786	n/a	RECOG_TARGET	1597893	n/a	LTP260	ltpFR	3	1	0	PERCH	1048	1	5	1	n/a	n/a	n/a	n/a	n/a
3196.442	n/a	RECOG_RESP	1598221	n/a	LTP260	ltpFR	3	1	0	PERCH	1048	1	n/a	1	n/a	n/a	n/a	n/a	n/a
3197.212	n/a	RECOG_CONF	1598606	n/a	LTP260	ltpFR	3	1	0	PERCH	1048	n/a	5	1	n/a	n/a	n/a	n/a	n/a
3198.764	n/a	RECOG_TARGET	1599382	n/a	LTP260	ltpFR	3	1	-1	CUPBOARD	425	1	5	-1	n/a	n/a	n/a	n/a	n/a
3199.806	n/a	RECOG_RESP	1599903	n/a	LTP260	ltpFR	3	1	-1	CUPBOARD	425	1	n/a	-1	n/a	n/a	n/a	n/a	n/a
3200.594	n/a	RECOG_CONF	1600297	n/a	LTP260	ltpFR	3	1	-1	CUPBOARD	425	n/a	5	-1	n/a	n/a	n/a	n/a	n/a
3202.21	n/a	RECOG_TARGET	1601105	n/a	LTP260	ltpFR	3	1	-1	LANDSCAPE	799	1	5	-1	n/a	n/a	n/a	n/a	n/a
3202.91	n/a	RECOG_RESP	1601455	n/a	LTP260	ltpFR	3	1	-1	LANDSCAPE	799	1	n/a	-1	n/a	n/a	n/a	n/a	n/a
3203.738	n/a	RECOG_CONF	1601869	n/a	LTP260	ltpFR	3	1	-1	LANDSCAPE	799	n/a	5	-1	n/a	n/a	n/a	n/a	n/a
3205.408	n/a	RECOG_TARGET	1602704	n/a	LTP260	ltpFR	3	1	-1	WAVE	1596	1	3	-1	n/a	n/a	n/a	n/a	n/a
3206.062	n/a	RECOG_RESP	1603031	n/a	LTP260	ltpFR	3	1	-1	WAVE	1596	1	n/a	-1	n/a	n/a	n/a	n/a	n/a
3206.8	n/a	RECOG_CONF	1603400	n/a	LTP260	ltpFR	3	1	-1	WAVE	1596	n/a	3	-1	n/a	n/a	n/a	n/a	n/a
3208.482	n/a	RECOG_TARGET	1604241	n/a	LTP260	ltpFR	3	1	1	EARRING	514	1	4	0	n/a	n/a	n/a	n/a	n/a
3209.874	n/a	RECOG_RESP	1604937	n/a	LTP260	ltpFR	3	1	1	EARRING	514	1	n/a	0	n/a	n/a	n/a	n/a	n/a
3210.622	n/a	RECOG_CONF	1605311	n/a	LTP260	ltpFR	3	1	1	EARRING	514	n/a	4	0	n/a	n/a	n/a	n/a	n/a
3215.162	n/a	REC_START	1607581	n/a	LTP260	ltpFR	3	2	n/a	n/a	n/a	n/a	n/a	n/a	n/a	n/a	n/a	n/a	n/a
3215.224	n/a	RECOG_TARGET	1607612	n/a	LTP260	ltpFR	3	2	0	INTESTINE	742	1	5	0	n/a	n/a	n/a	n/a	n/a
3216.016	n/a	RECOG_RESP	1608008	n/a	LTP260	ltpFR	3	2	0	INTESTINE	742	1	n/a	0	n/a	n/a	n/a	n/a	n/a
3216.714	n/a	RECOG_CONF	1608357	n/a	LTP260	ltpFR	3	2	0	INTESTINE	742	n/a	5	0	n/a	n/a	n/a	n/a	n/a
3218.306	n/a	RECOG_LURE	1609153	n/a	LTP260	ltpFR	3	2	n/a	FRECKLE	602	0	5	n/a	n/a	n/a	n/a	n/a	n/a
3218.94	n/a	RECOG_RESP	1609470	n/a	LTP260	ltpFR	3	2	n/a	FRECKLE	602	0	n/a	n/a	n/a	n/a	n/a	n/a	n/a
3219.678	n/a	RECOG_CONF	1609839	n/a	LTP260	ltpFR	3	2	n/a	FRECKLE	602	n/a	5	n/a	n/a	n/a	n/a	n/a	n/a
3221.368	n/a	RECOG_TARGET	1610684	n/a	LTP260	ltpFR	3	2	0	REEF	1177	1	3	1	n/a	n/a	n/a	n/a	n/a
3222.272	n/a	RECOG_RESP	1611136	n/a	LTP260	ltpFR	3	2	0	REEF	1177	1	n/a	1	n/a	n/a	n/a	n/a	n/a
3222.95	n/a	RECOG_CONF	1611475	n/a	LTP260	ltpFR	3	2	0	REEF	1177	n/a	3	1	n/a	n/a	n/a	n/a	n/a
3224.648	n/a	RECOG_TARGET	1612324	n/a	LTP260	ltpFR	3	2	-1	JOURNAL	760	1	4	-1	n/a	n/a	n/a	n/a	n/a
3225.196	n/a	RECOG_RESP	1612598	n/a	LTP260	ltpFR	3	2	-1	JOURNAL	760	1	n/a	-1	n/a	n/a	n/a	n/a	n/a
3225.924	n/a	RECOG_CONF	1612962	n/a	LTP260	ltpFR	3	2	-1	JOURNAL	760	n/a	4	-1	n/a	n/a	n/a	n/a	n/a
3227.474	n/a	RECOG_LURE	1613737	n/a	LTP260	ltpFR	3	2	n/a	FEATHER	557	0	4	n/a	n/a	n/a	n/a	n/a	n/a
3228.274	n/a	RECOG_RESP	1614137	n/a	LTP260	ltpFR	3	2	n/a	FEATHER	557	0	n/a	n/a	n/a	n/a	n/a	n/a	n/a
3229.186	n/a	RECOG_CONF	1614593	n/a	LTP260	ltpFR	3	2	n/a	FEATHER	557	n/a	4	n/a	n/a	n/a	n/a	n/a	n/a
3230.836	n/a	RECOG_LURE	1615418	n/a	LTP260	ltpFR	3	2	n/a	TROMBONE	1508	0	5	n/a	n/a	n/a	n/a	n/a	n/a
3231.826	n/a	RECOG_RESP	1615913	n/a	LTP260	ltpFR	3	2	n/a	TROMBONE	1508	0	n/a	n/a	n/a	n/a	n/a	n/a	n/a
3232.978	n/a	RECOG_CONF	1616489	n/a	LTP260	ltpFR	3	2	n/a	TROMBONE	1508	n/a	5	n/a	n/a	n/a	n/a	n/a	n/a
3234.616	n/a	RECOG_TARGET	1617308	n/a	LTP260	ltpFR	3	2	1	FLASHLIGHT	575	1	3	0	n/a	n/a	n/a	n/a	n/a
3235.314	n/a	RECOG_RESP	1617657	n/a	LTP260	ltpFR	3	2	1	FLASHLIGHT	575	1	n/a	0	n/a	n/a	n/a	n/a	n/a
3235.992	n/a	RECOG_CONF	1617996	n/a	LTP260	ltpFR	3	2	1	FLASHLIGHT	575	n/a	3	0	n/a	n/a	n/a	n/a	n/a
3237.564	n/a	RECOG_TARGET	1618782	n/a	LTP260	ltpFR	3	2	-1	DEPUTY	450	1	3	-1	n/a	n/a	n/a	n/a	n/a
3238.236	n/a	RECOG_RESP	1619118	n/a	LTP260	ltpFR	3	2	-1	DEPUTY	450	1	n/a	-1	n/a	n/a	n/a	n/a	n/a
3239.154	n/a	RECOG_CONF	1619577	n/a	LTP260	ltpFR	3	2	-1	DEPUTY	450	n/a	3	-1	n/a	n/a	n/a	n/a	n/a
3240.608	n/a	RECOG_TARGET	1620304	n/a	LTP260	ltpFR	3	2	-1	BERRY	122	1	5	-1	n/a	n/a	n/a	n/a	n/a
3241.186	n/a	RECOG_RESP	1620593	n/a	LTP260	ltpFR	3	2	-1	BERRY	122	1	n/a	-1	n/a	n/a	n/a	n/a	n/a
3241.878	n/a	RECOG_CONF	1620939	n/a	LTP260	ltpFR	3	2	-1	BERRY	122	n/a	5	-1	n/a	n/a	n/a	n/a	n/a
3243.42	n/a	RECOG_TARGET	1621710	n/a	LTP260	ltpFR	3	2	1	OTTER	986	1	5	1	n/a	n/a	n/a	n/a	n/a
3243.974	n/a	RECOG_RESP	1621987	n/a	LTP260	ltpFR	3	2	1	OTTER	986	1	n/a	1	n/a	n/a	n/a	n/a	n/a
3244.662	n/a	RECOG_CONF	1622331	n/a	LTP260	ltpFR	3	2	1	OTTER	986	n/a	5	1	n/a	n/a	n/a	n/a	n/a
3246.212	n/a	RECOG_TARGET	1623106	n/a	LTP260	ltpFR	3	2	-1	BINDER	127	1	5	-1	n/a	n/a	n/a	n/a	n/a
3246.842	n/a	RECOG_RESP	1623421	n/a	LTP260	ltpFR	3	2	-1	BINDER	127	1	n/a	-1	n/a	n/a	n/a	n/a	n/a
3247.546	n/a	RECOG_CONF	1623773	n/a	LTP260	ltpFR	3	2	-1	BINDER	127	n/a	5	-1	n/a	n/a	n/a	n/a	n/a
3249.206	n/a	RECOG_TARGET	1624603	n/a	LTP260	ltpFR	3	2	1	NIECE	952	1	5	1	n/a	n/a	n/a	n/a	n/a
3249.806	n/a	RECOG_RESP	1624903	n/a	LTP260	ltpFR	3	2	1	NIECE	952	1	n/a	1	n/a	n/a	n/a	n/a	n/a
3250.47	n/a	RECOG_CONF	1625235	n/a	LTP260	ltpFR	3	2	1	NIECE	952	n/a	5	1	n/a	n/a	n/a	n/a	n/a
3252.164	n/a	RECOG_TARGET	1626082	n/a	LTP260	ltpFR	3	2	1	ATHLETE	52	1	3	1	n/a	n/a	n/a	n/a	n/a
3252.788	n/a	RECOG_RESP	1626394	n/a	LTP260	ltpFR	3	2	1	ATHLETE	52	1	n/a	1	n/a	n/a	n/a	n/a	n/a
3253.952	n/a	RECOG_CONF	1626976	n/a	LTP260	ltpFR	3	2	1	ATHLETE	52	n/a	3	1	n/a	n/a	n/a	n/a	n/a
3255.616	n/a	RECOG_LURE	1627808	n/a	LTP260	ltpFR	3	2	n/a	WASP	1593	0	3	n/a	n/a	n/a	n/a	n/a	n/a
3256.366	n/a	RECOG_RESP	1628183	n/a	LTP260	ltpFR	3	2	n/a	WASP	1593	0	n/a	n/a	n/a	n/a	n/a	n/a	n/a
3257.174	n/a	RECOG_CONF	1628587	n/a	LTP260	ltpFR	3	2	n/a	WASP	1593	n/a	3	n/a	n/a	n/a	n/a	n/a	n/a
3258.86	n/a	RECOG_TARGET	1629430	n/a	LTP260	ltpFR	3	2	0	CONCRETE	361	1	5	1	n/a	n/a	n/a	n/a	n/a
3259.53	n/a	RECOG_RESP	1629765	n/a	LTP260	ltpFR	3	2	0	CONCRETE	361	1	n/a	1	n/a	n/a	n/a	n/a	n/a
3260.238	n/a	RECOG_CONF	1630119	n/a	LTP260	ltpFR	3	2	0	CONCRETE	361	n/a	5	1	n/a	n/a	n/a	n/a	n/a
3261.99	n/a	RECOG_TARGET	1630995	n/a	LTP260	ltpFR	3	2	-1	BUGLE	189	1	5	-1	n/a	n/a	n/a	n/a	n/a
3262.572	n/a	RECOG_RESP	1631286	n/a	LTP260	ltpFR	3	2	-1	BUGLE	189	1	n/a	-1	n/a	n/a	n/a	n/a	n/a
3263.35	n/a	RECOG_CONF	1631675	n/a	LTP260	ltpFR	3	2	-1	BUGLE	189	n/a	5	-1	n/a	n/a	n/a	n/a	n/a
3264.968	n/a	RECOG_TARGET	1632484	n/a	LTP260	ltpFR	3	2	1	EMPEROR	529	1	5	1	n/a	n/a	n/a	n/a	n/a
3265.606	n/a	RECOG_RESP	1632803	n/a	LTP260	ltpFR	3	2	1	EMPEROR	529	1	n/a	1	n/a	n/a	n/a	n/a	n/a
3266.364	n/a	RECOG_CONF	1633182	n/a	LTP260	ltpFR	3	2	1	EMPEROR	529	n/a	5	1	n/a	n/a	n/a	n/a	n/a
3268.046	n/a	RECOG_LURE	1634023	n/a	LTP260	ltpFR	3	2	n/a	SCALE	1241	0	3	n/a	n/a	n/a	n/a	n/a	n/a
3268.934	n/a	RECOG_RESP	1634467	n/a	LTP260	ltpFR	3	2	n/a	SCALE	1241	0	n/a	n/a	n/a	n/a	n/a	n/a	n/a
3269.776	n/a	RECOG_CONF	1634888	n/a	LTP260	ltpFR	3	2	n/a	SCALE	1241	n/a	3	n/a	n/a	n/a	n/a	n/a	n/a
3271.358	n/a	RECOG_LURE	1635679	n/a	LTP260	ltpFR	3	2	n/a	CATHEDRAL	260	0	4	n/a	n/a	n/a	n/a	n/a	n/a
3272.462	n/a	RECOG_RESP	1636231	n/a	LTP260	ltpFR	3	2	n/a	CATHEDRAL	260	0	n/a	n/a	n/a	n/a	n/a	n/a	n/a
3273.618	n/a	RECOG_CONF	1636809	n/a	LTP260	ltpFR	3	2	n/a	CATHEDRAL	260	n/a	4	n/a	n/a	n/a	n/a	n/a	n/a
3275.17	n/a	RECOG_TARGET	1637585	n/a	LTP260	ltpFR	3	2	0	TULIP	1517	1	3	0	n/a	n/a	n/a	n/a	n/a
3276.138	n/a	RECOG_RESP	1638069	n/a	LTP260	ltpFR	3	2	0	TULIP	1517	1	n/a	0	n/a	n/a	n/a	n/a	n/a
3276.882	n/a	RECOG_CONF	1638441	n/a	LTP260	ltpFR	3	2	0	TULIP	1517	n/a	3	0	n/a	n/a	n/a	n/a	n/a
3280.72	n/a	REC_START	1640360	n/a	LTP260	ltpFR	3	3	n/a	n/a	n/a	n/a	n/a	n/a	n/a	n/a	n/a	n/a	n/a
3280.778	n/a	RECOG_TARGET	1640389	n/a	LTP260	ltpFR	3	3	-1	STEREO	1378	1	5	-1	n/a	n/a	n/a	n/a	n/a
3281.478	n/a	RECOG_RESP	1640739	n/a	LTP260	ltpFR	3	3	-1	STEREO	1378	1	n/a	-1	n/a	n/a	n/a	n/a	n/a
3282.18	n/a	RECOG_CONF	1641090	n/a	LTP260	ltpFR	3	3	-1	STEREO	1378	n/a	5	-1	n/a	n/a	n/a	n/a	n/a
3283.722	n/a	RECOG_TARGET	1641861	n/a	LTP260	ltpFR	3	3	1	RAKE	1164	1	5	0	n/a	n/a	n/a	n/a	n/a
3284.256	n/a	RECOG_RESP	1642128	n/a	LTP260	ltpFR	3	3	1	RAKE	1164	1	n/a	0	n/a	n/a	n/a	n/a	n/a
3284.914	n/a	RECOG_CONF	1642457	n/a	LTP260	ltpFR	3	3	1	RAKE	1164	n/a	5	0	n/a	n/a	n/a	n/a	n/a
3286.548	n/a	RECOG_TARGET	1643274	n/a	LTP260	ltpFR	3	3	1	POLE	1097	1	5	0	n/a	n/a	n/a	n/a	n/a
3287.1	n/a	RECOG_RESP	1643550	n/a	LTP260	ltpFR	3	3	1	POLE	1097	1	n/a	0	n/a	n/a	n/a	n/a	n/a
3287.798	n/a	RECOG_CONF	1643899	n/a	LTP260	ltpFR	3	3	1	POLE	1097	n/a	5	0	n/a	n/a	n/a	n/a	n/a
3289.544	n/a	RECOG_TARGET	1644772	n/a	LTP260	ltpFR	3	3	1	TROUT	1511	1	3	1	n/a	n/a	n/a	n/a	n/a
3290.672	n/a	RECOG_RESP	1645336	n/a	LTP260	ltpFR	3	3	1	TROUT	1511	1	n/a	1	n/a	n/a	n/a	n/a	n/a
3291.54	n/a	RECOG_CONF	1645770	n/a	LTP260	ltpFR	3	3	1	TROUT	1511	n/a	3	1	n/a	n/a	n/a	n/a	n/a
3293.156	n/a	RECOG_TARGET	1646578	n/a	LTP260	ltpFR	3	3	0	LAUNDRY	803	1	5	0	n/a	n/a	n/a	n/a	n/a
3293.9	n/a	RECOG_RESP	1646950	n/a	LTP260	ltpFR	3	3	0	LAUNDRY	803	1	n/a	0	n/a	n/a	n/a	n/a	n/a
3294.594	n/a	RECOG_CONF	1647297	n/a	LTP260	ltpFR	3	3	0	LAUNDRY	803	n/a	5	0	n/a	n/a	n/a	n/a	n/a
3296.186	n/a	RECOG_TARGET	1648093	n/a	LTP260	ltpFR	3	3	1	DOLPHIN	483	1	5	1	n/a	n/a	n/a	n/a	n/a
3296.994	n/a	RECOG_RESP	1648497	n/a	LTP260	ltpFR	3	3	1	DOLPHIN	483	1	n/a	1	n/a	n/a	n/a	n/a	n/a
3297.696	n/a	RECOG_CONF	1648848	n/a	LTP260	ltpFR	3	3	1	DOLPHIN	483	n/a	5	1	n/a	n/a	n/a	n/a	n/a
3299.3	n/a	RECOG_TARGET	1649650	n/a	LTP260	ltpFR	3	3	1	SHOULDER	1294	1	5	1	n/a	n/a	n/a	n/a	n/a
3299.906	n/a	RECOG_RESP	1649953	n/a	LTP260	ltpFR	3	3	1	SHOULDER	1294	1	n/a	1	n/a	n/a	n/a	n/a	n/a
3300.69	n/a	RECOG_CONF	1650345	n/a	LTP260	ltpFR	3	3	1	SHOULDER	1294	n/a	5	1	n/a	n/a	n/a	n/a	n/a
3302.26	n/a	RECOG_TARGET	1651130	n/a	LTP260	ltpFR	3	3	1	SPATULA	1348	1	3	0	n/a	n/a	n/a	n/a	n/a
3302.98	n/a	RECOG_RESP	1651490	n/a	LTP260	ltpFR	3	3	1	SPATULA	1348	1	n/a	0	n/a	n/a	n/a	n/a	n/a
3303.882	n/a	RECOG_CONF	1651941	n/a	LTP260	ltpFR	3	3	1	SPATULA	1348	n/a	3	0	n/a	n/a	n/a	n/a	n/a
3305.556	n/a	RECOG_LURE	1652778	n/a	LTP260	ltpFR	3	3	n/a	DASHBOARD	441	1	1	n/a	n/a	n/a	n/a	n/a	n/a
3306.486	n/a	RECOG_RESP	1653243	n/a	LTP260	ltpFR	3	3	n/a	DASHBOARD	441	1	n/a	n/a	n/a	n/a	n/a	n/a	n/a
3307.544	n/a	RECOG_CONF	1653772	n/a	LTP260	ltpFR	3	3	n/a	DASHBOARD	441	n/a	1	n/a	n/a	n/a	n/a	n/a	n/a
3309.152	n/a	RECOG_TARGET	1654576	n/a	LTP260	ltpFR	3	3	1	DICTIONARY	463	1	5	0	n/a	n/a	n/a	n/a	n/a
3309.784	n/a	RECOG_RESP	1654892	n/a	LTP260	ltpFR	3	3	1	DICTIONARY	463	1	n/a	0	n/a	n/a	n/a	n/a	n/a
3310.528	n/a	RECOG_CONF	1655264	n/a	LTP260	ltpFR	3	3	1	DICTIONARY	463	n/a	5	0	n/a	n/a	n/a	n/a	n/a
3312.048	n/a	RECOG_TARGET	1656024	n/a	LTP260	ltpFR	3	3	-1	WASHCLOTH	1591	1	5	-1	n/a	n/a	n/a	n/a	n/a
3312.684	n/a	RECOG_RESP	1656342	n/a	LTP260	ltpFR	3	3	-1	WASHCLOTH	1591	1	n/a	-1	n/a	n/a	n/a	n/a	n/a
3313.432	n/a	RECOG_CONF	1656716	n/a	LTP260	ltpFR	3	3	-1	WASHCLOTH	1591	n/a	5	-1	n/a	n/a	n/a	n/a	n/a
3315.056	n/a	RECOG_TARGET	1657528	n/a	LTP260	ltpFR	3	3	0	SPONGE	1355	1	5	0	n/a	n/a	n/a	n/a	n/a
3315.632	n/a	RECOG_RESP	1657816	n/a	LTP260	ltpFR	3	3	0	SPONGE	1355	1	n/a	0	n/a	n/a	n/a	n/a	n/a
3316.456	n/a	RECOG_CONF	1658228	n/a	LTP260	ltpFR	3	3	0	SPONGE	1355	n/a	5	0	n/a	n/a	n/a	n/a	n/a
3318.168	n/a	RECOG_TARGET	1659084	n/a	LTP260	ltpFR	3	3	1	ORANGE	980	1	5	1	n/a	n/a	n/a	n/a	n/a
3318.74	n/a	RECOG_RESP	1659370	n/a	LTP260	ltpFR	3	3	1	ORANGE	980	1	n/a	1	n/a	n/a	n/a	n/a	n/a
3319.518	n/a	RECOG_CONF	1659759	n/a	LTP260	ltpFR	3	3	1	ORANGE	980	n/a	5	1	n/a	n/a	n/a	n/a	n/a
3321.182	n/a	RECOG_TARGET	1660591	n/a	LTP260	ltpFR	3	3	1	LIGHTER	819	1	5	0	n/a	n/a	n/a	n/a	n/a
3321.792	n/a	RECOG_RESP	1660896	n/a	LTP260	ltpFR	3	3	1	LIGHTER	819	1	n/a	0	n/a	n/a	n/a	n/a	n/a
3322.562	n/a	RECOG_CONF	1661281	n/a	LTP260	ltpFR	3	3	1	LIGHTER	819	n/a	5	0	n/a	n/a	n/a	n/a	n/a
3324.126	n/a	RECOG_TARGET	1662063	n/a	LTP260	ltpFR	3	3	-1	TENT	1449	1	5	-1	n/a	n/a	n/a	n/a	n/a
3324.736	n/a	RECOG_RESP	1662368	n/a	LTP260	ltpFR	3	3	-1	TENT	1449	1	n/a	-1	n/a	n/a	n/a	n/a	n/a
3325.524	n/a	RECOG_CONF	1662762	n/a	LTP260	ltpFR	3	3	-1	TENT	1449	n/a	5	-1	n/a	n/a	n/a	n/a	n/a
3327.12	n/a	RECOG_TARGET	1663560	n/a	LTP260	ltpFR	3	3	0	WOMAN	1620	1	4	1	n/a	n/a	n/a	n/a	n/a
3327.71	n/a	RECOG_RESP	1663855	n/a	LTP260	ltpFR	3	3	0	WOMAN	1620	1	n/a	1	n/a	n/a	n/a	n/a	n/a
3328.976	n/a	RECOG_CONF	1664488	n/a	LTP260	ltpFR	3	3	0	WOMAN	1620	n/a	4	1	n/a	n/a	n/a	n/a	n/a
3330.57	n/a	RECOG_TARGET	1665285	n/a	LTP260	ltpFR	3	3	0	VILLAGE	1566	1	4	1	n/a	n/a	n/a	n/a	n/a
3331.162	n/a	RECOG_RESP	1665581	n/a	LTP260	ltpFR	3	3	0	VILLAGE	1566	1	n/a	1	n/a	n/a	n/a	n/a	n/a
3331.93	n/a	RECOG_CONF	1665965	n/a	LTP260	ltpFR	3	3	0	VILLAGE	1566	n/a	4	1	n/a	n/a	n/a	n/a	n/a
3333.614	n/a	RECOG_LURE	1666807	n/a	LTP260	ltpFR	3	3	n/a	PAINT	1003	1	3	n/a	n/a	n/a	n/a	n/a	n/a
3334.246	n/a	RECOG_RESP	1667123	n/a	LTP260	ltpFR	3	3	n/a	PAINT	1003	1	n/a	n/a	n/a	n/a	n/a	n/a	n/a
3334.994	n/a	RECOG_CONF	1667497	n/a	LTP260	ltpFR	3	3	n/a	PAINT	1003	n/a	3	n/a	n/a	n/a	n/a	n/a	n/a
3336.572	n/a	RECOG_TARGET	1668286	n/a	LTP260	ltpFR	3	3	0	LAVA	804	1	5	1	n/a	n/a	n/a	n/a	n/a
3337.1	n/a	RECOG_RESP	1668550	n/a	LTP260	ltpFR	3	3	0	LAVA	804	1	n/a	1	n/a	n/a	n/a	n/a	n/a
3337.848	n/a	RECOG_CONF	1668924	n/a	LTP260	ltpFR	3	3	0	LAVA	804	n/a	5	1	n/a	n/a	n/a	n/a	n/a
3339.536	n/a	RECOG_TARGET	1669768	n/a	LTP260	ltpFR	3	3	0	CHEST	295	1	4	1	n/a	n/a	n/a	n/a	n/a
3340.102	n/a	RECOG_RESP	1670051	n/a	LTP260	ltpFR	3	3	0	CHEST	295	1	n/a	1	n/a	n/a	n/a	n/a	n/a
3340.86	n/a	RECOG_CONF	1670430	n/a	LTP260	ltpFR	3	3	0	CHEST	295	n/a	4	1	n/a	n/a	n/a	n/a	n/a
3347.142	n/a	REC_START	1673571	n/a	LTP260	ltpFR	3	4	n/a	n/a	n/a	n/a	n/a	n/a	n/a	n/a	n/a	n/a	n/a
3347.198	n/a	RECOG_TARGET	1673599	n/a	LTP260	ltpFR	3	4	1	PUDDLE	1140	1	4	0	n/a	n/a	n/a	n/a	n/a
3347.94	n/a	RECOG_RESP	1673970	n/a	LTP260	ltpFR	3	4	1	PUDDLE	1140	1	n/a	0	n/a	n/a	n/a	n/a	n/a
3348.664	n/a	RECOG_CONF	1674332	n/a	LTP260	ltpFR	3	4	1	PUDDLE	1140	n/a	4	0	n/a	n/a	n/a	n/a	n/a
3350.206	n/a	RECOG_TARGET	1675103	n/a	LTP260	ltpFR	3	4	1	GEM	629	1	5	0	n/a	n/a	n/a	n/a	n/a
3350.76	n/a	RECOG_RESP	1675380	n/a	LTP260	ltpFR	3	4	1	GEM	629	1	n/a	0	n/a	n/a	n/a	n/a	n/a
3351.478	n/a	RECOG_CONF	1675739	n/a	LTP260	ltpFR	3	4	1	GEM	629	n/a	5	0	n/a	n/a	n/a	n/a	n/a
3353.02	n/a	RECOG_LURE	1676510	n/a	LTP260	ltpFR	3	4	n/a	MARROW	872	0	4	n/a	n/a	n/a	n/a	n/a	n/a
3353.902	n/a	RECOG_RESP	1676951	n/a	LTP260	ltpFR	3	4	n/a	MARROW	872	0	n/a	n/a	n/a	n/a	n/a	n/a	n/a
3354.682	n/a	RECOG_CONF	1677341	n/a	LTP260	ltpFR	3	4	n/a	MARROW	872	n/a	4	n/a	n/a	n/a	n/a	n/a	n/a
3356.266	n/a	RECOG_TARGET	1678133	n/a	LTP260	ltpFR	3	4	0	KIDNEY	776	1	4	0	n/a	n/a	n/a	n/a	n/a
3356.906	n/a	RECOG_RESP	1678453	n/a	LTP260	ltpFR	3	4	0	KIDNEY	776	1	n/a	0	n/a	n/a	n/a	n/a	n/a
3357.674	n/a	RECOG_CONF	1678837	n/a	LTP260	ltpFR	3	4	0	KIDNEY	776	n/a	4	0	n/a	n/a	n/a	n/a	n/a
3359.296	n/a	RECOG_TARGET	1679648	n/a	LTP260	ltpFR	3	4	0	CHIPMUNK	304	1	3	0	n/a	n/a	n/a	n/a	n/a
3360.054	n/a	RECOG_RESP	1680027	n/a	LTP260	ltpFR	3	4	0	CHIPMUNK	304	1	n/a	0	n/a	n/a	n/a	n/a	n/a
3360.758	n/a	RECOG_CONF	1680379	n/a	LTP260	ltpFR	3	4	0	CHIPMUNK	304	n/a	3	0	n/a	n/a	n/a	n/a	n/a
3362.324	n/a	RECOG_TARGET	1681162	n/a	LTP260	ltpFR	3	4	0	PORK	1108	1	3	1	n/a	n/a	n/a	n/a	n/a
3363.012	n/a	RECOG_RESP	1681506	n/a	LTP260	ltpFR	3	4	0	PORK	1108	1	n/a	1	n/a	n/a	n/a	n/a	n/a
3363.74	n/a	RECOG_CONF	1681870	n/a	LTP260	ltpFR	3	4	0	PORK	1108	n/a	3	1	n/a	n/a	n/a	n/a	n/a
3365.264	n/a	RECOG_TARGET	1682632	n/a	LTP260	ltpFR	3	4	0	CUE	422	1	5	0	n/a	n/a	n/a	n/a	n/a
3366.364	n/a	RECOG_RESP	1683182	n/a	LTP260	ltpFR	3	4	0	CUE	422	1	n/a	0	n/a	n/a	n/a	n/a	n/a
3367.204	n/a	RECOG_CONF	1683602	n/a	LTP260	ltpFR	3	4	0	CUE	422	n/a	5	0	n/a	n/a	n/a	n/a	n/a
3368.932	n/a	RECOG_TARGET	1684466	n/a	LTP260	ltpFR	3	4	1	GRAPE	654	0	2	1	n/a	n/a	n/a	n/a	n/a
3369.848	n/a	RECOG_RESP	1684924	n/a	LTP260	ltpFR	3	4	1	GRAPE	654	0	n/a	1	n/a	n/a	n/a	n/a	n/a
3370.956	n/a	RECOG_CONF	1685478	n/a	LTP260	ltpFR	3	4	1	GRAPE	654	n/a	2	1	n/a	n/a	n/a	n/a	n/a
3372.73	n/a	RECOG_LURE	1686365	n/a	LTP260	ltpFR	3	4	n/a	ROOF	1205	0	3	n/a	n/a	n/a	n/a	n/a	n/a
3373.714	n/a	RECOG_RESP	1686857	n/a	LTP260	ltpFR	3	4	n/a	ROOF	1205	0	n/a	n/a	n/a	n/a	n/a	n/a	n/a
3374.488	n/a	RECOG_CONF	1687244	n/a	LTP260	ltpFR	3	4	n/a	ROOF	1205	n/a	3	n/a	n/a	n/a	n/a	n/a	n/a
3376.142	n/a	RECOG_LURE	1688071	n/a	LTP260	ltpFR	3	4	n/a	BATHROOM	99	0	3	n/a	n/a	n/a	n/a	n/a	n/a
3377.022	n/a	RECOG_RESP	1688511	n/a	LTP260	ltpFR	3	4	n/a	BATHROOM	99	0	n/a	n/a	n/a	n/a	n/a	n/a	n/a
3377.95	n/a	RECOG_CONF	1688975	n/a	LTP260	ltpFR	3	4	n/a	BATHROOM	99	n/a	3	n/a	n/a	n/a	n/a	n/a	n/a
3379.672	n/a	RECOG_TARGET	1689836	n/a	LTP260	ltpFR	3	4	-1	SALT	1229	1	5	-1	n/a	n/a	n/a	n/a	n/a
3380.324	n/a	RECOG_RESP	1690162	n/a	LTP260	ltpFR	3	4	-1	SALT	1229	1	n/a	-1	n/a	n/a	n/a	n/a	n/a
3381.082	n/a	RECOG_CONF	1690541	n/a	LTP260	ltpFR	3	4	-1	SALT	1229	n/a	5	-1	n/a	n/a	n/a	n/a	n/a
3382.6	n/a	RECOG_TARGET	1691300	n/a	LTP260	ltpFR	3	4	1	POET	1095	1	5	1	n/a	n/a	n/a	n/a	n/a
3383.366	n/a	RECOG_RESP	1691683	n/a	LTP260	ltpFR	3	4	1	POET	1095	1	n/a	1	n/a	n/a	n/a	n/a	n/a
3384.096	n/a	RECOG_CONF	1692048	n/a	LTP260	ltpFR	3	4	1	POET	1095	n/a	5	1	n/a	n/a	n/a	n/a	n/a
3385.778	n/a	RECOG_TARGET	1692889	n/a	LTP260	ltpFR	3	4	1	NUT	965	1	5	1	n/a	n/a	n/a	n/a	n/a
3386.282	n/a	RECOG_RESP	1693141	n/a	LTP260	ltpFR	3	4	1	NUT	965	1	n/a	1	n/a	n/a	n/a	n/a	n/a
3387.01	n/a	RECOG_CONF	1693505	n/a	LTP260	ltpFR	3	4	1	NUT	965	n/a	5	1	n/a	n/a	n/a	n/a	n/a
3388.642	n/a	RECOG_TARGET	1694321	n/a	LTP260	ltpFR	3	4	1	KNEE	784	1	5	1	n/a	n/a	n/a	n/a	n/a
3389.43	n/a	RECOG_RESP	1694715	n/a	LTP260	ltpFR	3	4	1	KNEE	784	1	n/a	1	n/a	n/a	n/a	n/a	n/a
3390.202	n/a	RECOG_CONF	1695101	n/a	LTP260	ltpFR	3	4	1	KNEE	784	n/a	5	1	n/a	n/a	n/a	n/a	n/a
3391.752	n/a	RECOG_TARGET	1695876	n/a	LTP260	ltpFR	3	4	0	CONTAINER	366	1	5	0	n/a	n/a	n/a	n/a	n/a
3392.388	n/a	RECOG_RESP	1696194	n/a	LTP260	ltpFR	3	4	0	CONTAINER	366	1	n/a	0	n/a	n/a	n/a	n/a	n/a
3393.086	n/a	RECOG_CONF	1696543	n/a	LTP260	ltpFR	3	4	0	CONTAINER	366	n/a	5	0	n/a	n/a	n/a	n/a	n/a
3394.796	n/a	RECOG_TARGET	1697398	n/a	LTP260	ltpFR	3	4	-1	JELLO	754	1	5	-1	n/a	n/a	n/a	n/a	n/a
3395.42	n/a	RECOG_RESP	1697710	n/a	LTP260	ltpFR	3	4	-1	JELLO	754	1	n/a	-1	n/a	n/a	n/a	n/a	n/a
3396.12	n/a	RECOG_CONF	1698060	n/a	LTP260	ltpFR	3	4	-1	JELLO	754	n/a	5	-1	n/a	n/a	n/a	n/a	n/a
3397.758	n/a	RECOG_TARGET	1698879	n/a	LTP260	ltpFR	3	4	0	PAINTING	1005	1	5	1	n/a	n/a	n/a	n/a	n/a
3398.514	n/a	RECOG_RESP	1699257	n/a	LTP260	ltpFR	3	4	0	PAINTING	1005	1	n/a	1	n/a	n/a	n/a	n/a	n/a
3399.222	n/a	RECOG_CONF	1699611	n/a	LTP260	ltpFR	3	4	0	PAINTING	1005	n/a	5	1	n/a	n/a	n/a	n/a	n/a
3400.802	n/a	RECOG_TARGET	1700401	n/a	LTP260	ltpFR	3	4	1	HAIL	676	1	5	0	n/a	n/a	n/a	n/a	n/a
3401.396	n/a	RECOG_RESP	1700698	n/a	LTP260	ltpFR	3	4	1	HAIL	676	1	n/a	0	n/a	n/a	n/a	n/a	n/a
3402.106	n/a	RECOG_CONF	1701053	n/a	LTP260	ltpFR	3	4	1	HAIL	676	n/a	5	0	n/a	n/a	n/a	n/a	n/a
3403.798	n/a	RECOG_TARGET	1701899	n/a	LTP260	ltpFR	3	4	0	SAP	1233	1	5	0	n/a	n/a	n/a	n/a	n/a
3404.36	n/a	RECOG_RESP	1702180	n/a	LTP260	ltpFR	3	4	0	SAP	1233	1	n/a	0	n/a	n/a	n/a	n/a	n/a
3405.08	n/a	RECOG_CONF	1702540	n/a	LTP260	ltpFR	3	4	0	SAP	1233	n/a	5	0	n/a	n/a	n/a	n/a	n/a
3406.676	n/a	RECOG_TARGET	1703338	n/a	LTP260	ltpFR	3	4	1	HOSTESS	723	1	5	1	n/a	n/a	n/a	n/a	n/a
3407.284	n/a	RECOG_RESP	1703642	n/a	LTP260	ltpFR	3	4	1	HOSTESS	723	1	n/a	1	n/a	n/a	n/a	n/a	n/a
3408.062	n/a	RECOG_CONF	1704031	n/a	LTP260	ltpFR	3	4	1	HOSTESS	723	n/a	5	1	n/a	n/a	n/a	n/a	n/a
3411.586	n/a	REC_START	1705793	n/a	LTP260	ltpFR	3	5	n/a	n/a	n/a	n/a	n/a	n/a	n/a	n/a	n/a	n/a	n/a
3411.628	n/a	RECOG_TARGET	1705814	n/a	LTP260	ltpFR	3	5	-1	VALVE	1546	1	5	-1	n/a	n/a	n/a	n/a	n/a
3412.354	n/a	RECOG_RESP	1706177	n/a	LTP260	ltpFR	3	5	-1	VALVE	1546	1	n/a	-1	n/a	n/a	n/a	n/a	n/a
3413.066	n/a	RECOG_CONF	1706533	n/a	LTP260	ltpFR	3	5	-1	VALVE	1546	n/a	5	-1	n/a	n/a	n/a	n/a	n/a
3414.722	n/a	RECOG_TARGET	1707361	n/a	LTP260	ltpFR	3	5	-1	JUG	762	1	5	-1	n/a	n/a	n/a	n/a	n/a
3415.336	n/a	RECOG_RESP	1707668	n/a	LTP260	ltpFR	3	5	-1	JUG	762	1	n/a	-1	n/a	n/a	n/a	n/a	n/a
3416.01	n/a	RECOG_CONF	1708005	n/a	LTP260	ltpFR	3	5	-1	JUG	762	n/a	5	-1	n/a	n/a	n/a	n/a	n/a
3417.702	n/a	RECOG_TARGET	1708851	n/a	LTP260	ltpFR	3	5	-1	SHEARS	1276	1	5	-1	n/a	n/a	n/a	n/a	n/a
3418.594	n/a	RECOG_RESP	1709297	n/a	LTP260	ltpFR	3	5	-1	SHEARS	1276	1	n/a	-1	n/a	n/a	n/a	n/a	n/a
3419.292	n/a	RECOG_CONF	1709646	n/a	LTP260	ltpFR	3	5	-1	SHEARS	1276	n/a	5	-1	n/a	n/a	n/a	n/a	n/a
3420.88	n/a	RECOG_TARGET	1710440	n/a	LTP260	ltpFR	3	5	1	CHAMPAGNE	278	1	5	0	n/a	n/a	n/a	n/a	n/a
3421.438	n/a	RECOG_RESP	1710719	n/a	LTP260	ltpFR	3	5	1	CHAMPAGNE	278	1	n/a	0	n/a	n/a	n/a	n/a	n/a
3422.186	n/a	RECOG_CONF	1711093	n/a	LTP260	ltpFR	3	5	1	CHAMPAGNE	278	n/a	5	0	n/a	n/a	n/a	n/a	n/a
3423.704	n/a	RECOG_TARGET	1711852	n/a	LTP260	ltpFR	3	5	0	PAW	1029	1	5	0	n/a	n/a	n/a	n/a	n/a
3424.318	n/a	RECOG_RESP	1712159	n/a	LTP260	ltpFR	3	5	0	PAW	1029	1	n/a	0	n/a	n/a	n/a	n/a	n/a
3425.04	n/a	RECOG_CONF	1712520	n/a	LTP260	ltpFR	3	5	0	PAW	1029	n/a	5	0	n/a	n/a	n/a	n/a	n/a
3426.634	n/a	RECOG_TARGET	1713317	n/a	LTP260	ltpFR	3	5	1	GRASSHOPPER	656	1	5	1	n/a	n/a	n/a	n/a	n/a
3427.196	n/a	RECOG_RESP	1713598	n/a	LTP260	ltpFR	3	5	1	GRASSHOPPER	656	1	n/a	1	n/a	n/a	n/a	n/a	n/a
3427.924	n/a	RECOG_CONF	1713962	n/a	LTP260	ltpFR	3	5	1	GRASSHOPPER	656	n/a	5	1	n/a	n/a	n/a	n/a	n/a
3429.48	n/a	RECOG_LURE	1714740	n/a	LTP260	ltpFR	3	5	n/a	SCULPTURE	1258	0	2	n/a	n/a	n/a	n/a	n/a	n/a
3430.418	n/a	RECOG_RESP	1715209	n/a	LTP260	ltpFR	3	5	n/a	SCULPTURE	1258	0	n/a	n/a	n/a	n/a	n/a	n/a	n/a
3431.286	n/a	RECOG_CONF	1715643	n/a	LTP260	ltpFR	3	5	n/a	SCULPTURE	1258	n/a	2	n/a	n/a	n/a	n/a	n/a	n/a
3432.926	n/a	RECOG_TARGET	1716463	n/a	LTP260	ltpFR	3	5	1	GUARDIAN	668	1	5	1	n/a	n/a	n/a	n/a	n/a
3433.87	n/a	RECOG_RESP	1716935	n/a	LTP260	ltpFR	3	5	1	GUARDIAN	668	1	n/a	1	n/a	n/a	n/a	n/a	n/a
3434.55	n/a	RECOG_CONF	1717275	n/a	LTP260	ltpFR	3	5	1	GUARDIAN	668	n/a	5	1	n/a	n/a	n/a	n/a	n/a
3436.172	n/a	RECOG_TARGET	1718086	n/a	LTP260	ltpFR	3	5	0	NEWSSTAND	949	1	5	1	n/a	n/a	n/a	n/a	n/a
