onset	duration	trial_type	sample	stim_file	subject	experiment	session	trial	task	item_name	item_num	recog_resp	recog_conf	resp	color_r	color_g	color_b	case	font
362.534	n/a	SESS_START	181267	n/a	LTP278	ltpFR	1	n/a	n/a	n/a	n/a	1	1	n/a	n/a	n/a	n/a	n/a	n/a
453.45	n/a	WORD	226725	wordpools/wasnorm_wordpool_less_exclusions.txt	LTP278	ltpFR	1	1	0	PURSE	1145	1	5	1	0.57763671875	0.412841796875	1	upper	amplitud.ttf
457.46	n/a	WORD	228730	wordpools/wasnorm_wordpool_less_exclusions.txt	LTP278	ltpFR	1	1	0	TULIP	1517	0	n/a	0	0.57763671875	0.412841796875	1	upper	amplitud.ttf
461.354	n/a	WORD	230677	wordpools/wasnorm_wordpool_less_exclusions.txt	LTP278	ltpFR	1	1	0	NUN	962	n/a	n/a	1	0.57763671875	0.412841796875	1	upper	amplitud.ttf
465.532	n/a	WORD	232766	wordpools/wasnorm_wordpool_less_exclusions.txt	LTP278	ltpFR	1	1	0	BAKER	71	n/a	n/a	1	0.57763671875	0.412841796875	1	upper	amplitud.ttf
469.544	n/a	WORD	234772	wordpools/wasnorm_wordpool_less_exclusions.txt	LTP278	ltpFR	1	1	1	MECHANIC	884	n/a	n/a	1	0.422607421875	0.5869140625	0	lower	zerothre.ttf
473.604	n/a	WORD	236802	wordpools/wasnorm_wordpool_less_exclusions.txt	LTP278	ltpFR	1	1	1	DASHBOARD	441	n/a	n/a	0	0.422607421875	0.5869140625	0	lower	zerothre.ttf
477.514	n/a	WORD	238757	wordpools/wasnorm_wordpool_less_exclusions.txt	LTP278	ltpFR	1	1	1	FLEA	577	n/a	n/a	1	0.422607421875	0.5869140625	0	lower	zerothre.ttf
481.392	n/a	WORD	240696	wordpools/wasnorm_wordpool_less_exclusions.txt	LTP278	ltpFR	1	1	1	WHISKERS	1605	n/a	n/a	0	0.422607421875	0.5869140625	0	lower	zerothre.ttf
485.302	n/a	WORD	242651	wordpools/wasnorm_wordpool_less_exclusions.txt	LTP278	ltpFR	1	1	0	MEADOW	881	n/a	n/a	1	0.57763671875	0.412841796875	1	upper	amplitud.ttf
489.464	n/a	WORD	244732	wordpools/wasnorm_wordpool_less_exclusions.txt	LTP278	ltpFR	1	1	0	MOSQUITO	917	n/a	n/a	0	0.57763671875	0.412841796875	1	upper	amplitud.ttf
493.424	n/a	WORD	246712	wordpools/wasnorm_wordpool_less_exclusions.txt	LTP278	ltpFR	1	1	0	BALCONY	72	n/a	n/a	1	0.57763671875	0.412841796875	1	upper	amplitud.ttf
497.652	n/a	WORD	248826	wordpools/wasnorm_wordpool_less_exclusions.txt	LTP278	ltpFR	1	1	0	APARTMENT	30	n/a	n/a	1	0.57763671875	0.412841796875	1	upper	amplitud.ttf
501.496	n/a	WORD	250748	wordpools/wasnorm_wordpool_less_exclusions.txt	LTP278	ltpFR	1	1	1	BANANA	77	n/a	n/a	1	0.422607421875	0.5869140625	0	lower	zerothre.ttf
505.356	n/a	WORD	252678	wordpools/wasnorm_wordpool_less_exclusions.txt	LTP278	ltpFR	1	1	1	WAIST	1579	n/a	n/a	0	0.422607421875	0.5869140625	0	lower	zerothre.ttf
509.3	n/a	WORD	254650	wordpools/wasnorm_wordpool_less_exclusions.txt	LTP278	ltpFR	1	1	1	MOTH	920	n/a	n/a	1	0.422607421875	0.5869140625	0	lower	zerothre.ttf
513.178	n/a	WORD	256589	wordpools/wasnorm_wordpool_less_exclusions.txt	LTP278	ltpFR	1	1	1	CAP	236	n/a	n/a	0	0.422607421875	0.5869140625	0	lower	zerothre.ttf
519.054	n/a	REC_START	259527	n/a	LTP278	ltpFR	1	1	n/a	n/a	n/a	n/a	n/a	n/a	n/a	n/a	n/a	n/a	n/a
519.824	n/a	REC_WORD	259912	wordpools/wasnorm_wordpool_less_exclusions.txt	LTP278	ltpFR	1	1	1	CAP	236	n/a	n/a	0	n/a	n/a	n/a	n/a	n/a
521.326	n/a	REC_WORD	260663	wordpools/wasnorm_wordpool_less_exclusions.txt	LTP278	ltpFR	1	1	1	FLEA	577	n/a	n/a	1	n/a	n/a	n/a	n/a	n/a
522.882	n/a	REC_WORD	261441	wordpools/wasnorm_wordpool_less_exclusions.txt	LTP278	ltpFR	1	1	0	MOSQUITO	917	n/a	n/a	0	n/a	n/a	n/a	n/a	n/a
524.692	n/a	REC_WORD	262346	wordpools/wasnorm_wordpool_less_exclusions.txt	LTP278	ltpFR	1	1	0	MEADOW	881	n/a	n/a	1	n/a	n/a	n/a	n/a	n/a
527.888	n/a	REC_WORD	263944	wordpools/wasnorm_wordpool_less_exclusions.txt	LTP278	ltpFR	1	1	0	NUN	962	n/a	n/a	1	n/a	n/a	n/a	n/a	n/a
533.02	n/a	REC_WORD	266510	wordpools/wasnorm_wordpool_less_exclusions.txt	LTP278	ltpFR	1	1	0	PURSE	1145	n/a	n/a	1	n/a	n/a	n/a	n/a	n/a
535.068	n/a	REC_WORD	267534	wordpools/wasnorm_wordpool_less_exclusions.txt	LTP278	ltpFR	1	1	1	WAIST	1579	n/a	n/a	0	n/a	n/a	n/a	n/a	n/a
536.874	n/a	REC_WORD	268437	wordpools/wasnorm_wordpool_less_exclusions.txt	LTP278	ltpFR	1	1	1	WHISKERS	1605	n/a	n/a	0	n/a	n/a	n/a	n/a	n/a
544.816	n/a	REC_WORD	272408	wordpools/wasnorm_wordpool_less_exclusions.txt	LTP278	ltpFR	1	1	1	MECHANIC	884	n/a	n/a	1	n/a	n/a	n/a	n/a	n/a
549.842	n/a	REC_WORD	274921	wordpools/wasnorm_wordpool_less_exclusions.txt	LTP278	ltpFR	1	1	n/a	BUTCHER	203	n/a	n/a	n/a	n/a	n/a	n/a	n/a	n/a
575.22	n/a	REC_WORD	287610	wordpools/wasnorm_wordpool_less_exclusions.txt	LTP278	ltpFR	1	1	1	CAP	236	n/a	n/a	0	n/a	n/a	n/a	n/a	n/a
599.782	n/a	WORD	299891	wordpools/wasnorm_wordpool_less_exclusions.txt	LTP278	ltpFR	1	2	1	METEOR	889	n/a	n/a	0	0.422607421875	0.5869140625	0	lower	zerothre.ttf
603.612	n/a	WORD	301806	wordpools/wasnorm_wordpool_less_exclusions.txt	LTP278	ltpFR	1	2	1	CHAMPION	279	n/a	n/a	1	0.422607421875	0.5869140625	0	lower	zerothre.ttf
607.572	n/a	WORD	303786	wordpools/wasnorm_wordpool_less_exclusions.txt	LTP278	ltpFR	1	2	0	FOX	598	n/a	n/a	1	0.57763671875	0.412841796875	1	upper	amplitud.ttf
611.7	n/a	WORD	305850	wordpools/wasnorm_wordpool_less_exclusions.txt	LTP278	ltpFR	1	2	0	SHARK	1275	n/a	n/a	1	0.57763671875	0.412841796875	1	upper	amplitud.ttf
615.594	n/a	WORD	307797	wordpools/wasnorm_wordpool_less_exclusions.txt	LTP278	ltpFR	1	2	0	PLUTO	1092	n/a	n/a	1	0.57763671875	0.412841796875	1	upper	amplitud.ttf
619.62	n/a	WORD	309810	wordpools/wasnorm_wordpool_less_exclusions.txt	LTP278	ltpFR	1	2	0	VICTOR	1563	n/a	n/a	1	0.57763671875	0.412841796875	1	upper	amplitud.ttf
623.482	n/a	WORD	311741	wordpools/wasnorm_wordpool_less_exclusions.txt	LTP278	ltpFR	1	2	1	SEED	1266	n/a	n/a	1	0.422607421875	0.5869140625	0	lower	zerothre.ttf
627.51	n/a	WORD	313755	wordpools/wasnorm_wordpool_less_exclusions.txt	LTP278	ltpFR	1	2	1	ROSE	1212	n/a	n/a	1	0.422607421875	0.5869140625	0	lower	zerothre.ttf
631.652	n/a	WORD	315826	wordpools/wasnorm_wordpool_less_exclusions.txt	LTP278	ltpFR	1	2	0	BUFFALO	186	n/a	n/a	1	0.57763671875	0.412841796875	1	upper	amplitud.ttf
635.764	n/a	WORD	317882	wordpools/wasnorm_wordpool_less_exclusions.txt	LTP278	ltpFR	1	2	0	TREASURE	1500	n/a	n/a	1	0.57763671875	0.412841796875	1	upper	amplitud.ttf
639.624	n/a	WORD	319812	wordpools/wasnorm_wordpool_less_exclusions.txt	LTP278	ltpFR	1	2	0	DIME	466	n/a	n/a	0	0.57763671875	0.412841796875	1	upper	amplitud.ttf
643.668	n/a	WORD	321834	wordpools/wasnorm_wordpool_less_exclusions.txt	LTP278	ltpFR	1	2	0	LAUNDRY	803	n/a	n/a	1	0.57763671875	0.412841796875	1	upper	amplitud.ttf
647.496	n/a	WORD	323748	wordpools/wasnorm_wordpool_less_exclusions.txt	LTP278	ltpFR	1	2	1	ROOM	1206	n/a	n/a	0	0.422607421875	0.5869140625	0	lower	zerothre.ttf
651.356	n/a	WORD	325678	wordpools/wasnorm_wordpool_less_exclusions.txt	LTP278	ltpFR	1	2	1	SPINACH	1352	n/a	n/a	1	0.422607421875	0.5869140625	0	lower	zerothre.ttf
655.384	n/a	WORD	327692	wordpools/wasnorm_wordpool_less_exclusions.txt	LTP278	ltpFR	1	2	1	TROUT	1511	n/a	n/a	1	0.422607421875	0.5869140625	0	lower	zerothre.ttf
659.228	n/a	WORD	329614	wordpools/wasnorm_wordpool_less_exclusions.txt	LTP278	ltpFR	1	2	1	STOCKING	1383	n/a	n/a	0	0.422607421875	0.5869140625	0	lower	zerothre.ttf
665.154	n/a	REC_START	332577	n/a	LTP278	ltpFR	1	2	n/a	n/a	n/a	n/a	n/a	n/a	n/a	n/a	n/a	n/a	n/a
665.652	n/a	REC_WORD	332826	wordpools/wasnorm_wordpool_less_exclusions.txt	LTP278	ltpFR	1	2	1	STOCKING	1383	n/a	n/a	0	n/a	n/a	n/a	n/a	n/a
667.488	n/a	REC_WORD	333744	wordpools/wasnorm_wordpool_less_exclusions.txt	LTP278	ltpFR	1	2	1	TROUT	1511	n/a	n/a	1	n/a	n/a	n/a	n/a	n/a
670.13	n/a	REC_WORD	335065	wordpools/wasnorm_wordpool_less_exclusions.txt	LTP278	ltpFR	1	2	1	CHAMPION	279	n/a	n/a	1	n/a	n/a	n/a	n/a	n/a
672.59	n/a	REC_WORD	336295	wordpools/wasnorm_wordpool_less_exclusions.txt	LTP278	ltpFR	1	2	0	VICTOR	1563	n/a	n/a	1	n/a	n/a	n/a	n/a	n/a
674.732	n/a	REC_WORD	337366	wordpools/wasnorm_wordpool_less_exclusions.txt	LTP278	ltpFR	1	2	0	BUFFALO	186	n/a	n/a	1	n/a	n/a	n/a	n/a	n/a
676.744	n/a	REC_WORD	338372	wordpools/wasnorm_wordpool_less_exclusions.txt	LTP278	ltpFR	1	2	0	DIME	466	n/a	n/a	0	n/a	n/a	n/a	n/a	n/a
699.346	n/a	REC_WORD	349673	wordpools/wasnorm_wordpool_less_exclusions.txt	LTP278	ltpFR	1	2	1	SPINACH	1352	n/a	n/a	1	n/a	n/a	n/a	n/a	n/a
707.564	n/a	REC_WORD	353782	wordpools/wasnorm_wordpool_less_exclusions.txt	LTP278	ltpFR	1	2	0	FOX	598	n/a	n/a	1	n/a	n/a	n/a	n/a	n/a
744.27	n/a	WORD	372135	wordpools/wasnorm_wordpool_less_exclusions.txt	LTP278	ltpFR	1	3	0	RIVER	1194	n/a	n/a	1	0.57763671875	0.412841796875	1	upper	amplitud.ttf
748.132	n/a	WORD	374066	wordpools/wasnorm_wordpool_less_exclusions.txt	LTP278	ltpFR	1	3	0	CREEK	404	n/a	n/a	1	0.57763671875	0.412841796875	1	upper	amplitud.ttf
752.292	n/a	WORD	376146	wordpools/wasnorm_wordpool_less_exclusions.txt	LTP278	ltpFR	1	3	0	WASP	1593	n/a	n/a	0	0.57763671875	0.412841796875	1	upper	amplitud.ttf
756.436	n/a	WORD	378218	wordpools/wasnorm_wordpool_less_exclusions.txt	LTP278	ltpFR	1	3	0	CONSUMER	365	n/a	n/a	1	0.57763671875	0.412841796875	1	upper	amplitud.ttf
760.63	n/a	WORD	380315	wordpools/wasnorm_wordpool_less_exclusions.txt	LTP278	ltpFR	1	3	0	RECEPTIONIST	1174	n/a	n/a	1	0.57763671875	0.412841796875	1	upper	amplitud.ttf
764.756	n/a	WORD	382378	wordpools/wasnorm_wordpool_less_exclusions.txt	LTP278	ltpFR	1	3	0	TAXI	1438	n/a	n/a	1	0.57763671875	0.412841796875	1	upper	amplitud.ttf
768.75	n/a	WORD	384375	wordpools/wasnorm_wordpool_less_exclusions.txt	LTP278	ltpFR	1	3	1	KEY	773	n/a	n/a	0	0.422607421875	0.5869140625	0	lower	zerothre.ttf
772.678	n/a	WORD	386339	wordpools/wasnorm_wordpool_less_exclusions.txt	LTP278	ltpFR	1	3	1	PATH	1023	n/a	n/a	0	0.422607421875	0.5869140625	0	lower	zerothre.ttf
776.772	n/a	WORD	388386	wordpools/wasnorm_wordpool_less_exclusions.txt	LTP278	ltpFR	1	3	1	PEDESTRIAN	1038	n/a	n/a	1	0.422607421875	0.5869140625	0	lower	zerothre.ttf
780.666	n/a	WORD	390333	wordpools/wasnorm_wordpool_less_exclusions.txt	LTP278	ltpFR	1	3	1	POLYESTER	1100	n/a	n/a	0	0.422607421875	0.5869140625	0	lower	zerothre.ttf
784.742	n/a	WORD	392371	wordpools/wasnorm_wordpool_less_exclusions.txt	LTP278	ltpFR	1	3	1	MERMAID	887	n/a	n/a	1	0.422607421875	0.5869140625	0	lower	zerothre.ttf
788.82	n/a	WORD	394410	wordpools/wasnorm_wordpool_less_exclusions.txt	LTP278	ltpFR	1	3	0	RAZOR	1171	n/a	n/a	0	0.57763671875	0.412841796875	1	upper	amplitud.ttf
792.914	n/a	WORD	396457	wordpools/wasnorm_wordpool_less_exclusions.txt	LTP278	ltpFR	1	3	0	THIMBLE	1458	n/a	n/a	0	0.57763671875	0.412841796875	1	upper	amplitud.ttf
796.974	n/a	WORD	398487	wordpools/wasnorm_wordpool_less_exclusions.txt	LTP278	ltpFR	1	3	1	BLOUSE	139	n/a	n/a	0	0.422607421875	0.5869140625	0	lower	zerothre.ttf
800.802	n/a	WORD	400401	wordpools/wasnorm_wordpool_less_exclusions.txt	LTP278	ltpFR	1	3	1	WHALE	1601	n/a	n/a	1	0.422607421875	0.5869140625	0	lower	zerothre.ttf
804.998	n/a	WORD	402499	wordpools/wasnorm_wordpool_less_exclusions.txt	LTP278	ltpFR	1	3	1	CACTUS	215	n/a	n/a	1	0.422607421875	0.5869140625	0	lower	zerothre.ttf
810.672	n/a	REC_START	405336	n/a	LTP278	ltpFR	1	3	n/a	n/a	n/a	n/a	n/a	n/a	n/a	n/a	n/a	n/a	n/a
811.366	n/a	REC_WORD	405683	wordpools/wasnorm_wordpool_less_exclusions.txt	LTP278	ltpFR	1	3	1	CACTUS	215	n/a	n/a	1	n/a	n/a	n/a	n/a	n/a
812.878	n/a	REC_WORD	406439	wordpools/wasnorm_wordpool_less_exclusions.txt	LTP278	ltpFR	1	3	1	WHALE	1601	n/a	n/a	1	n/a	n/a	n/a	n/a	n/a
814.404	n/a	REC_WORD	407202	wordpools/wasnorm_wordpool_less_exclusions.txt	LTP278	ltpFR	1	3	0	THIMBLE	1458	n/a	n/a	0	n/a	n/a	n/a	n/a	n/a
816.08	n/a	REC_WORD	408040	wordpools/wasnorm_wordpool_less_exclusions.txt	LTP278	ltpFR	1	3	0	RIVER	1194	n/a	n/a	1	n/a	n/a	n/a	n/a	n/a
821.634	n/a	REC_WORD	410817	wordpools/wasnorm_wordpool_less_exclusions.txt	LTP278	ltpFR	1	3	0	CREEK	404	n/a	n/a	1	n/a	n/a	n/a	n/a	n/a
831.472	n/a	REC_WORD	415736	wordpools/wasnorm_wordpool_less_exclusions.txt	LTP278	ltpFR	1	3	1	MERMAID	887	n/a	n/a	1	n/a	n/a	n/a	n/a	n/a
837.49	n/a	REC_WORD	418745	wordpools/wasnorm_wordpool_less_exclusions.txt	LTP278	ltpFR	1	3	1	BLOUSE	139	n/a	n/a	0	n/a	n/a	n/a	n/a	n/a
845.154	n/a	REC_WORD	422577	wordpools/wasnorm_wordpool_less_exclusions.txt	LTP278	ltpFR	1	3	0	RECEPTIONIST	1174	n/a	n/a	1	n/a	n/a	n/a	n/a	n/a
846.154	n/a	REC_WORD_VV	423077	wordpools/wasnorm_wordpool_less_exclusions.txt	LTP278	ltpFR	1	3	n/a	<>	-1	n/a	n/a	n/a	n/a	n/a	n/a	n/a	n/a
846.95	n/a	REC_WORD	423475	wordpools/wasnorm_wordpool_less_exclusions.txt	LTP278	ltpFR	1	3	0	CONSUMER	365	n/a	n/a	1	n/a	n/a	n/a	n/a	n/a
893.266	n/a	WORD	446633	wordpools/wasnorm_wordpool_less_exclusions.txt	LTP278	ltpFR	1	4	1	MOTOR	922	n/a	n/a	0	0.422607421875	0.5869140625	0	lower	zerothre.ttf
897.476	n/a	WORD	448738	wordpools/wasnorm_wordpool_less_exclusions.txt	LTP278	ltpFR	1	4	1	FOLLOWER	589	n/a	n/a	1	0.422607421875	0.5869140625	0	lower	zerothre.ttf
901.654	n/a	WORD	450827	wordpools/wasnorm_wordpool_less_exclusions.txt	LTP278	ltpFR	1	4	1	DICTATOR	462	n/a	n/a	1	0.422607421875	0.5869140625	0	lower	zerothre.ttf
905.482	n/a	WORD	452741	wordpools/wasnorm_wordpool_less_exclusions.txt	LTP278	ltpFR	1	4	1	CATCHER	258	n/a	n/a	1	0.422607421875	0.5869140625	0	lower	zerothre.ttf
909.676	n/a	WORD	454838	wordpools/wasnorm_wordpool_less_exclusions.txt	LTP278	ltpFR	1	4	1	POT	1114	n/a	n/a	1	0.422607421875	0.5869140625	0	lower	zerothre.ttf
913.536	n/a	WORD	456768	wordpools/wasnorm_wordpool_less_exclusions.txt	LTP278	ltpFR	1	4	1	SKILLET	1317	n/a	n/a	0	0.422607421875	0.5869140625	0	lower	zerothre.ttf
917.496	n/a	WORD	458748	wordpools/wasnorm_wordpool_less_exclusions.txt	LTP278	ltpFR	1	4	1	WATERFALL	1595	n/a	n/a	0	0.422607421875	0.5869140625	0	lower	zerothre.ttf
921.49	n/a	WORD	460745	wordpools/wasnorm_wordpool_less_exclusions.txt	LTP278	ltpFR	1	4	1	BASEBALL	93	n/a	n/a	0	0.422607421875	0.5869140625	0	lower	zerothre.ttf
925.668	n/a	WORD	462834	wordpools/wasnorm_wordpool_less_exclusions.txt	LTP278	ltpFR	1	4	1	STEP	1377	n/a	n/a	0	0.422607421875	0.5869140625	0	lower	zerothre.ttf
929.812	n/a	WORD	464906	wordpools/wasnorm_wordpool_less_exclusions.txt	LTP278	ltpFR	1	4	1	HAIL	676	n/a	n/a	1	0.422607421875	0.5869140625	0	lower	zerothre.ttf
933.656	n/a	WORD	466828	wordpools/wasnorm_wordpool_less_exclusions.txt	LTP278	ltpFR	1	4	1	WAGON	1578	n/a	n/a	0	0.422607421875	0.5869140625	0	lower	zerothre.ttf
937.85	n/a	WORD	468925	wordpools/wasnorm_wordpool_less_exclusions.txt	LTP278	ltpFR	1	4	1	ARROW	40	n/a	n/a	0	0.422607421875	0.5869140625	0	lower	zerothre.ttf
941.694	n/a	WORD	470847	wordpools/wasnorm_wordpool_less_exclusions.txt	LTP278	ltpFR	1	4	1	COWBOY	395	n/a	n/a	1	0.422607421875	0.5869140625	0	lower	zerothre.ttf
945.656	n/a	WORD	472828	wordpools/wasnorm_wordpool_less_exclusions.txt	LTP278	ltpFR	1	4	1	DANCER	437	n/a	n/a	1	0.422607421875	0.5869140625	0	lower	zerothre.ttf
949.8	n/a	WORD	474900	wordpools/wasnorm_wordpool_less_exclusions.txt	LTP278	ltpFR	1	4	1	PARROT	1015	n/a	n/a	1	0.422607421875	0.5869140625	0	lower	zerothre.ttf
953.844	n/a	WORD	476922	wordpools/wasnorm_wordpool_less_exclusions.txt	LTP278	ltpFR	1	4	1	EMERALD	528	n/a	n/a	0	0.422607421875	0.5869140625	0	lower	zerothre.ttf
959.586	n/a	REC_START	479793	n/a	LTP278	ltpFR	1	4	n/a	n/a	n/a	n/a	n/a	n/a	n/a	n/a	n/a	n/a	n/a
960.258	n/a	REC_WORD	480129	wordpools/wasnorm_wordpool_less_exclusions.txt	LTP278	ltpFR	1	4	1	EMERALD	528	n/a	n/a	0	n/a	n/a	n/a	n/a	n/a
961.598	n/a	REC_WORD	480799	wordpools/wasnorm_wordpool_less_exclusions.txt	LTP278	ltpFR	1	4	1	PARROT	1015	n/a	n/a	1	n/a	n/a	n/a	n/a	n/a
962.77	n/a	REC_WORD	481385	wordpools/wasnorm_wordpool_less_exclusions.txt	LTP278	ltpFR	1	4	1	FOLLOWER	589	n/a	n/a	1	n/a	n/a	n/a	n/a	n/a
964.16	n/a	REC_WORD	482080	wordpools/wasnorm_wordpool_less_exclusions.txt	LTP278	ltpFR	1	4	1	POT	1114	n/a	n/a	1	n/a	n/a	n/a	n/a	n/a
965.272	n/a	REC_WORD	482636	wordpools/wasnorm_wordpool_less_exclusions.txt	LTP278	ltpFR	1	4	1	SKILLET	1317	n/a	n/a	0	n/a	n/a	n/a	n/a	n/a
966.272	n/a	REC_WORD_VV	483136	wordpools/wasnorm_wordpool_less_exclusions.txt	LTP278	ltpFR	1	4	n/a	<>	-1	n/a	n/a	n/a	n/a	n/a	n/a	n/a	n/a
967.266	n/a	REC_WORD	483633	wordpools/wasnorm_wordpool_less_exclusions.txt	LTP278	ltpFR	1	4	1	MOTOR	922	n/a	n/a	0	n/a	n/a	n/a	n/a	n/a
989.774	n/a	REC_WORD	494887	wordpools/wasnorm_wordpool_less_exclusions.txt	LTP278	ltpFR	1	4	1	WATERFALL	1595	n/a	n/a	0	n/a	n/a	n/a	n/a	n/a
991.154	n/a	REC_WORD	495577	wordpools/wasnorm_wordpool_less_exclusions.txt	LTP278	ltpFR	1	4	1	HAIL	676	n/a	n/a	1	n/a	n/a	n/a	n/a	n/a
994.302	n/a	REC_WORD	497151	wordpools/wasnorm_wordpool_less_exclusions.txt	LTP278	ltpFR	1	4	1	WAGON	1578	n/a	n/a	0	n/a	n/a	n/a	n/a	n/a
1008.758	n/a	REC_WORD	504379	wordpools/wasnorm_wordpool_less_exclusions.txt	LTP278	ltpFR	1	4	1	EMERALD	528	n/a	n/a	0	n/a	n/a	n/a	n/a	n/a
1012.058	n/a	REC_WORD	506029	wordpools/wasnorm_wordpool_less_exclusions.txt	LTP278	ltpFR	1	4	1	ARROW	40	n/a	n/a	0	n/a	n/a	n/a	n/a	n/a
1049.534	n/a	WORD	524767	wordpools/wasnorm_wordpool_less_exclusions.txt	LTP278	ltpFR	1	5	1	EXPLOSION	544	n/a	n/a	0	0.422607421875	0.5869140625	0	lower	zerothre.ttf
1053.662	n/a	WORD	526831	wordpools/wasnorm_wordpool_less_exclusions.txt	LTP278	ltpFR	1	5	1	BOAT	144	n/a	n/a	0	0.422607421875	0.5869140625	0	lower	zerothre.ttf
1057.806	n/a	WORD	528903	wordpools/wasnorm_wordpool_less_exclusions.txt	LTP278	ltpFR	1	5	1	BROOK	177	n/a	n/a	0	0.422607421875	0.5869140625	0	lower	zerothre.ttf
1062.0	n/a	WORD	531000	wordpools/wasnorm_wordpool_less_exclusions.txt	LTP278	ltpFR	1	5	1	ROBIN	1199	n/a	n/a	1	0.422607421875	0.5869140625	0	lower	zerothre.ttf
1066.026	n/a	WORD	533013	wordpools/wasnorm_wordpool_less_exclusions.txt	LTP278	ltpFR	1	5	1	BATTERY	101	n/a	n/a	0	0.422607421875	0.5869140625	0	lower	zerothre.ttf
1070.138	n/a	WORD	535069	wordpools/wasnorm_wordpool_less_exclusions.txt	LTP278	ltpFR	1	5	1	SPIT	1354	n/a	n/a	0	0.422607421875	0.5869140625	0	lower	zerothre.ttf
1073.966	n/a	WORD	536983	wordpools/wasnorm_wordpool_less_exclusions.txt	LTP278	ltpFR	1	5	0	JAW	751	n/a	n/a	0	0.57763671875	0.412841796875	1	upper	amplitud.ttf
1078.06	n/a	WORD	539030	wordpools/wasnorm_wordpool_less_exclusions.txt	LTP278	ltpFR	1	5	0	ISLAND	745	n/a	n/a	1	0.57763671875	0.412841796875	1	upper	amplitud.ttf
1081.97	n/a	WORD	540985	wordpools/wasnorm_wordpool_less_exclusions.txt	LTP278	ltpFR	1	5	0	FAMILY	550	n/a	n/a	1	0.57763671875	0.412841796875	1	upper	amplitud.ttf
1086.032	n/a	WORD	543016	wordpools/wasnorm_wordpool_less_exclusions.txt	LTP278	ltpFR	1	5	0	BOX	159	n/a	n/a	0	0.57763671875	0.412841796875	1	upper	amplitud.ttf
1090.208	n/a	WORD	545104	wordpools/wasnorm_wordpool_less_exclusions.txt	LTP278	ltpFR	1	5	1	FACTORY	548	n/a	n/a	0	0.422607421875	0.5869140625	0	lower	zerothre.ttf
1094.386	n/a	WORD	547193	wordpools/wasnorm_wordpool_less_exclusions.txt	LTP278	ltpFR	1	5	1	PADDLE	1000	n/a	n/a	0	0.422607421875	0.5869140625	0	lower	zerothre.ttf
1098.462	n/a	WORD	549231	wordpools/wasnorm_wordpool_less_exclusions.txt	LTP278	ltpFR	1	5	0	KEEPER	769	n/a	n/a	1	0.57763671875	0.412841796875	1	upper	amplitud.ttf
1102.34	n/a	WORD	551170	wordpools/wasnorm_wordpool_less_exclusions.txt	LTP278	ltpFR	1	5	0	TAVERN	1437	n/a	n/a	1	0.57763671875	0.412841796875	1	upper	amplitud.ttf
1106.484	n/a	WORD	553242	wordpools/wasnorm_wordpool_less_exclusions.txt	LTP278	ltpFR	1	5	0	BAIT	70	n/a	n/a	0	0.57763671875	0.412841796875	1	upper	amplitud.ttf
1110.644	n/a	WORD	555322	wordpools/wasnorm_wordpool_less_exclusions.txt	LTP278	ltpFR	1	5	0	FISH	571	n/a	n/a	0	0.57763671875	0.412841796875	1	upper	amplitud.ttf
1116.702	n/a	REC_START	558351	n/a	LTP278	ltpFR	1	5	n/a	n/a	n/a	n/a	n/a	n/a	n/a	n/a	n/a	n/a	n/a
1118.178	n/a	REC_WORD	559089	wordpools/wasnorm_wordpool_less_exclusions.txt	LTP278	ltpFR	1	5	0	FISH	571	n/a	n/a	0	n/a	n/a	n/a	n/a	n/a
1120.328	n/a	REC_WORD	560164	wordpools/wasnorm_wordpool_less_exclusions.txt	LTP278	ltpFR	1	5	1	PADDLE	1000	n/a	n/a	0	n/a	n/a	n/a	n/a	n/a
1123.434	n/a	REC_WORD	561717	wordpools/wasnorm_wordpool_less_exclusions.txt	LTP278	ltpFR	1	5	0	JAW	751	n/a	n/a	0	n/a	n/a	n/a	n/a	n/a
1129.766	n/a	REC_WORD	564883	wordpools/wasnorm_wordpool_less_exclusions.txt	LTP278	ltpFR	1	5	0	BOX	159	n/a	n/a	0	n/a	n/a	n/a	n/a	n/a
1137.54	n/a	REC_WORD	568770	wordpools/wasnorm_wordpool_less_exclusions.txt	LTP278	ltpFR	1	5	0	KEEPER	769	n/a	n/a	1	n/a	n/a	n/a	n/a	n/a
1147.35	n/a	REC_WORD	573675	wordpools/wasnorm_wordpool_less_exclusions.txt	LTP278	ltpFR	1	5	1	FACTORY	548	n/a	n/a	0	n/a	n/a	n/a	n/a	n/a
1198.73	n/a	WORD	599365	wordpools/wasnorm_wordpool_less_exclusions.txt	LTP278	ltpFR	1	6	-1	ACROBAT	4	n/a	n/a	-1	1.0	1.0	1	upper	Verdana.ttf
1202.874	n/a	WORD	601437	wordpools/wasnorm_wordpool_less_exclusions.txt	LTP278	ltpFR	1	6	-1	UNCLE	1536	n/a	n/a	-1	1.0	1.0	1	upper	Verdana.ttf
1206.72	n/a	WORD	603360	wordpools/wasnorm_wordpool_less_exclusions.txt	LTP278	ltpFR	1	6	-1	MISSILE	900	n/a	n/a	-1	1.0	1.0	1	upper	Verdana.ttf
1210.664	n/a	WORD	605332	wordpools/wasnorm_wordpool_less_exclusions.txt	LTP278	ltpFR	1	6	-1	ANCHOR	21	n/a	n/a	-1	1.0	1.0	1	upper	Verdana.ttf
1214.508	n/a	WORD	607254	wordpools/wasnorm_wordpool_less_exclusions.txt	LTP278	ltpFR	1	6	-1	OAR	966	n/a	n/a	-1	1.0	1.0	1	upper	Verdana.ttf
1218.436	n/a	WORD	609218	wordpools/wasnorm_wordpool_less_exclusions.txt	LTP278	ltpFR	1	6	-1	KNAPSACK	783	n/a	n/a	-1	1.0	1.0	1	upper	Verdana.ttf
1222.562	n/a	WORD	611281	wordpools/wasnorm_wordpool_less_exclusions.txt	LTP278	ltpFR	1	6	-1	TOOTHBRUSH	1482	n/a	n/a	-1	1.0	1.0	1	upper	Verdana.ttf
1226.59	n/a	WORD	613295	wordpools/wasnorm_wordpool_less_exclusions.txt	LTP278	ltpFR	1	6	-1	CHIP	303	n/a	n/a	-1	1.0	1.0	1	upper	Verdana.ttf
1230.434	n/a	WORD	615217	wordpools/wasnorm_wordpool_less_exclusions.txt	LTP278	ltpFR	1	6	-1	STAKE	1368	n/a	n/a	-1	1.0	1.0	1	upper	Verdana.ttf
1234.428	n/a	WORD	617214	wordpools/wasnorm_wordpool_less_exclusions.txt	LTP278	ltpFR	1	6	-1	VETERAN	1561	n/a	n/a	-1	1.0	1.0	1	upper	Verdana.ttf
1238.406	n/a	WORD	619203	wordpools/wasnorm_wordpool_less_exclusions.txt	LTP278	ltpFR	1	6	-1	TUBE	1516	n/a	n/a	-1	1.0	1.0	1	upper	Verdana.ttf
1242.266	n/a	WORD	621133	wordpools/wasnorm_wordpool_less_exclusions.txt	LTP278	ltpFR	1	6	-1	DRILL	497	n/a	n/a	-1	1.0	1.0	1	upper	Verdana.ttf
1246.36	n/a	WORD	623180	wordpools/wasnorm_wordpool_less_exclusions.txt	LTP278	ltpFR	1	6	-1	BOULDER	155	n/a	n/a	-1	1.0	1.0	1	upper	Verdana.ttf
1250.354	n/a	WORD	625177	wordpools/wasnorm_wordpool_less_exclusions.txt	LTP278	ltpFR	1	6	-1	SNORKEL	1336	n/a	n/a	-1	1.0	1.0	1	upper	Verdana.ttf
1254.248	n/a	WORD	627124	wordpools/wasnorm_wordpool_less_exclusions.txt	LTP278	ltpFR	1	6	-1	BOOT	150	n/a	n/a	-1	1.0	1.0	1	upper	Verdana.ttf
1258.292	n/a	WORD	629146	wordpools/wasnorm_wordpool_less_exclusions.txt	LTP278	ltpFR	1	6	-1	CANVAS	234	n/a	n/a	-1	1.0	1.0	1	upper	Verdana.ttf
1263.968	n/a	REC_START	631984	n/a	LTP278	ltpFR	1	6	n/a	n/a	n/a	n/a	n/a	n/a	n/a	n/a	n/a	n/a	n/a
1265.188	n/a	REC_WORD	632594	wordpools/wasnorm_wordpool_less_exclusions.txt	LTP278	ltpFR	1	6	-1	CANVAS	234	n/a	n/a	-1	n/a	n/a	n/a	n/a	n/a
1266.698	n/a	REC_WORD	633349	wordpools/wasnorm_wordpool_less_exclusions.txt	LTP278	ltpFR	1	6	-1	BOOT	150	n/a	n/a	-1	n/a	n/a	n/a	n/a	n/a
1267.994	n/a	REC_WORD	633997	wordpools/wasnorm_wordpool_less_exclusions.txt	LTP278	ltpFR	1	6	-1	UNCLE	1536	n/a	n/a	-1	n/a	n/a	n/a	n/a	n/a
1269.332	n/a	REC_WORD	634666	wordpools/wasnorm_wordpool_less_exclusions.txt	LTP278	ltpFR	1	6	-1	ACROBAT	4	n/a	n/a	-1	n/a	n/a	n/a	n/a	n/a
1271.284	n/a	REC_WORD	635642	wordpools/wasnorm_wordpool_less_exclusions.txt	LTP278	ltpFR	1	6	-1	KNAPSACK	783	n/a	n/a	-1	n/a	n/a	n/a	n/a	n/a
1272.88	n/a	REC_WORD	636440	wordpools/wasnorm_wordpool_less_exclusions.txt	LTP278	ltpFR	1	6	-1	TOOTHBRUSH	1482	n/a	n/a	-1	n/a	n/a	n/a	n/a	n/a
1274.404	n/a	REC_WORD	637202	wordpools/wasnorm_wordpool_less_exclusions.txt	LTP278	ltpFR	1	6	-1	CHIP	303	n/a	n/a	-1	n/a	n/a	n/a	n/a	n/a
1279.672	n/a	REC_WORD	639836	wordpools/wasnorm_wordpool_less_exclusions.txt	LTP278	ltpFR	1	6	-1	OAR	966	n/a	n/a	-1	n/a	n/a	n/a	n/a	n/a
1290.804	n/a	REC_WORD	645402	wordpools/wasnorm_wordpool_less_exclusions.txt	LTP278	ltpFR	1	6	-1	VETERAN	1561	n/a	n/a	-1	n/a	n/a	n/a	n/a	n/a
1353.686	n/a	WORD	676843	wordpools/wasnorm_wordpool_less_exclusions.txt	LTP278	ltpFR	1	7	0	GOVERNOR	651	n/a	n/a	1	0.57763671875	0.412841796875	1	upper	amplitud.ttf
1357.564	n/a	WORD	678782	wordpools/wasnorm_wordpool_less_exclusions.txt	LTP278	ltpFR	1	7	0	SUBURB	1399	n/a	n/a	1	0.57763671875	0.412841796875	1	upper	amplitud.ttf
1361.54	n/a	WORD	680770	wordpools/wasnorm_wordpool_less_exclusions.txt	LTP278	ltpFR	1	7	0	FIG	563	n/a	n/a	1	0.57763671875	0.412841796875	1	upper	amplitud.ttf
1365.434	n/a	WORD	682717	wordpools/wasnorm_wordpool_less_exclusions.txt	LTP278	ltpFR	1	7	0	CABINET	212	n/a	n/a	1	0.57763671875	0.412841796875	1	upper	amplitud.ttf
1369.496	n/a	WORD	684748	wordpools/wasnorm_wordpool_less_exclusions.txt	LTP278	ltpFR	1	7	0	TENT	1449	n/a	n/a	1	0.57763671875	0.412841796875	1	upper	amplitud.ttf
1373.656	n/a	WORD	686828	wordpools/wasnorm_wordpool_less_exclusions.txt	LTP278	ltpFR	1	7	0	SHEPHERD	1283	n/a	n/a	1	0.57763671875	0.412841796875	1	upper	amplitud.ttf
1377.65	n/a	WORD	688825	wordpools/wasnorm_wordpool_less_exclusions.txt	LTP278	ltpFR	1	7	0	XEROX	1628	n/a	n/a	0	0.57763671875	0.412841796875	1	upper	amplitud.ttf
1381.528	n/a	WORD	690764	wordpools/wasnorm_wordpool_less_exclusions.txt	LTP278	ltpFR	1	7	0	DORM	488	n/a	n/a	1	0.57763671875	0.412841796875	1	upper	amplitud.ttf
1385.538	n/a	WORD	692769	wordpools/wasnorm_wordpool_less_exclusions.txt	LTP278	ltpFR	1	7	0	GOAT	644	n/a	n/a	1	0.57763671875	0.412841796875	1	upper	amplitud.ttf
1389.716	n/a	WORD	694858	wordpools/wasnorm_wordpool_less_exclusions.txt	LTP278	ltpFR	1	7	0	PEAR	1033	n/a	n/a	0	0.57763671875	0.412841796875	1	upper	amplitud.ttf
1393.792	n/a	WORD	696896	wordpools/wasnorm_wordpool_less_exclusions.txt	LTP278	ltpFR	1	7	0	PRUNE	1134	n/a	n/a	0	0.57763671875	0.412841796875	1	upper	amplitud.ttf
1397.852	n/a	WORD	698926	wordpools/wasnorm_wordpool_less_exclusions.txt	LTP278	ltpFR	1	7	0	RAISIN	1163	n/a	n/a	0	0.57763671875	0.412841796875	1	upper	amplitud.ttf
1401.814	n/a	WORD	700907	wordpools/wasnorm_wordpool_less_exclusions.txt	LTP278	ltpFR	1	7	0	TILE	1468	n/a	n/a	1	0.57763671875	0.412841796875	1	upper	amplitud.ttf
1406.008	n/a	WORD	703004	wordpools/wasnorm_wordpool_less_exclusions.txt	LTP278	ltpFR	1	7	0	GLASS	639	n/a	n/a	0	0.57763671875	0.412841796875	1	upper	amplitud.ttf
1410.202	n/a	WORD	705101	wordpools/wasnorm_wordpool_less_exclusions.txt	LTP278	ltpFR	1	7	0	LILY	821	n/a	n/a	0	0.57763671875	0.412841796875	1	upper	amplitud.ttf
1414.162	n/a	WORD	707081	wordpools/wasnorm_wordpool_less_exclusions.txt	LTP278	ltpFR	1	7	0	QUAIL	1147	n/a	n/a	1	0.57763671875	0.412841796875	1	upper	amplitud.ttf
1419.988	n/a	REC_START	709994	n/a	LTP278	ltpFR	1	7	n/a	n/a	n/a	n/a	n/a	n/a	n/a	n/a	n/a	n/a	n/a
1420.59	n/a	REC_WORD	710295	wordpools/wasnorm_wordpool_less_exclusions.txt	LTP278	ltpFR	1	7	0	QUAIL	1147	n/a	n/a	1	n/a	n/a	n/a	n/a	n/a
1422.154	n/a	REC_WORD	711077	wordpools/wasnorm_wordpool_less_exclusions.txt	LTP278	ltpFR	1	7	0	GLASS	639	n/a	n/a	0	n/a	n/a	n/a	n/a	n/a
1424.708	n/a	REC_WORD	712354	wordpools/wasnorm_wordpool_less_exclusions.txt	LTP278	ltpFR	1	7	0	CABINET	212	n/a	n/a	1	n/a	n/a	n/a	n/a	n/a
1425.736	n/a	REC_WORD	712868	wordpools/wasnorm_wordpool_less_exclusions.txt	LTP278	ltpFR	1	7	0	FIG	563	n/a	n/a	1	n/a	n/a	n/a	n/a	n/a
1427.006	n/a	REC_WORD	713503	wordpools/wasnorm_wordpool_less_exclusions.txt	LTP278	ltpFR	1	7	0	PRUNE	1134	n/a	n/a	0	n/a	n/a	n/a	n/a	n/a
1428.248	n/a	REC_WORD	714124	wordpools/wasnorm_wordpool_less_exclusions.txt	LTP278	ltpFR	1	7	0	PEAR	1033	n/a	n/a	0	n/a	n/a	n/a	n/a	n/a
1429.488	n/a	REC_WORD	714744	wordpools/wasnorm_wordpool_less_exclusions.txt	LTP278	ltpFR	1	7	0	GOAT	644	n/a	n/a	1	n/a	n/a	n/a	n/a	n/a
1441.118	n/a	REC_WORD	720559	wordpools/wasnorm_wordpool_less_exclusions.txt	LTP278	ltpFR	1	7	0	GOVERNOR	651	n/a	n/a	1	n/a	n/a	n/a	n/a	n/a
1442.966	n/a	REC_WORD	721483	wordpools/wasnorm_wordpool_less_exclusions.txt	LTP278	ltpFR	1	7	0	SHEPHERD	1283	n/a	n/a	1	n/a	n/a	n/a	n/a	n/a
1462.03	n/a	REC_WORD	731015	wordpools/wasnorm_wordpool_less_exclusions.txt	LTP278	ltpFR	1	7	0	QUAIL	1147	n/a	n/a	1	n/a	n/a	n/a	n/a	n/a
1499.32	n/a	WORD	749660	wordpools/wasnorm_wordpool_less_exclusions.txt	LTP278	ltpFR	1	8	1	SAGE	1222	n/a	n/a	1	0.422607421875	0.5869140625	0	lower	zerothre.ttf
1503.348	n/a	WORD	751674	wordpools/wasnorm_wordpool_less_exclusions.txt	LTP278	ltpFR	1	8	1	DUMP	505	n/a	n/a	0	0.422607421875	0.5869140625	0	lower	zerothre.ttf
1507.424	n/a	WORD	753712	wordpools/wasnorm_wordpool_less_exclusions.txt	LTP278	ltpFR	1	8	1	CLAM	315	n/a	n/a	1	0.422607421875	0.5869140625	0	lower	zerothre.ttf
1511.536	n/a	WORD	755768	wordpools/wasnorm_wordpool_less_exclusions.txt	LTP278	ltpFR	1	8	1	RACCOON	1153	n/a	n/a	1	0.422607421875	0.5869140625	0	lower	zerothre.ttf
1515.696	n/a	WORD	757848	wordpools/wasnorm_wordpool_less_exclusions.txt	LTP278	ltpFR	1	8	1	DETERGENT	455	n/a	n/a	0	0.422607421875	0.5869140625	0	lower	zerothre.ttf
1519.856	n/a	WORD	759928	wordpools/wasnorm_wordpool_less_exclusions.txt	LTP278	ltpFR	1	8	1	FORK	594	n/a	n/a	0	0.422607421875	0.5869140625	0	lower	zerothre.ttf
1523.8	n/a	WORD	761900	wordpools/wasnorm_wordpool_less_exclusions.txt	LTP278	ltpFR	1	8	1	MOUSE	925	n/a	n/a	1	0.422607421875	0.5869140625	0	lower	zerothre.ttf
1527.712	n/a	WORD	763856	wordpools/wasnorm_wordpool_less_exclusions.txt	LTP278	ltpFR	1	8	1	CRATER	400	n/a	n/a	0	0.422607421875	0.5869140625	0	lower	zerothre.ttf
1531.638	n/a	WORD	765819	wordpools/wasnorm_wordpool_less_exclusions.txt	LTP278	ltpFR	1	8	1	GALAXY	617	n/a	n/a	0	0.422607421875	0.5869140625	0	lower	zerothre.ttf
1535.666	n/a	WORD	767833	wordpools/wasnorm_wordpool_less_exclusions.txt	LTP278	ltpFR	1	8	1	BUBBLE	183	n/a	n/a	0	0.422607421875	0.5869140625	0	lower	zerothre.ttf
1539.576	n/a	WORD	769788	wordpools/wasnorm_wordpool_less_exclusions.txt	LTP278	ltpFR	1	8	1	ORNAMENT	985	n/a	n/a	0	0.422607421875	0.5869140625	0	lower	zerothre.ttf
1543.738	n/a	WORD	771869	wordpools/wasnorm_wordpool_less_exclusions.txt	LTP278	ltpFR	1	8	1	TREE	1502	n/a	n/a	1	0.422607421875	0.5869140625	0	lower	zerothre.ttf
1547.898	n/a	WORD	773949	wordpools/wasnorm_wordpool_less_exclusions.txt	LTP278	ltpFR	1	8	1	SADDLE	1221	n/a	n/a	0	0.422607421875	0.5869140625	0	lower	zerothre.ttf
1552.076	n/a	WORD	776038	wordpools/wasnorm_wordpool_less_exclusions.txt	LTP278	ltpFR	1	8	1	CHEST	295	n/a	n/a	0	0.422607421875	0.5869140625	0	lower	zerothre.ttf
1556.02	n/a	WORD	778010	wordpools/wasnorm_wordpool_less_exclusions.txt	LTP278	ltpFR	1	8	1	CHICK	296	n/a	n/a	1	0.422607421875	0.5869140625	0	lower	zerothre.ttf
1559.88	n/a	WORD	779940	wordpools/wasnorm_wordpool_less_exclusions.txt	LTP278	ltpFR	1	8	1	SEAFOOD	1260	n/a	n/a	1	0.422607421875	0.5869140625	0	lower	zerothre.ttf
1565.938	n/a	REC_START	782969	n/a	LTP278	ltpFR	1	8	n/a	n/a	n/a	n/a	n/a	n/a	n/a	n/a	n/a	n/a	n/a
1566.394	n/a	REC_WORD	783197	wordpools/wasnorm_wordpool_less_exclusions.txt	LTP278	ltpFR	1	8	1	SEAFOOD	1260	n/a	n/a	1	n/a	n/a	n/a	n/a	n/a
1567.972	n/a	REC_WORD	783986	wordpools/wasnorm_wordpool_less_exclusions.txt	LTP278	ltpFR	1	8	1	CLAM	315	n/a	n/a	1	n/a	n/a	n/a	n/a	n/a
1569.296	n/a	REC_WORD	784648	wordpools/wasnorm_wordpool_less_exclusions.txt	LTP278	ltpFR	1	8	1	FORK	594	n/a	n/a	0	n/a	n/a	n/a	n/a	n/a
1573.028	n/a	REC_WORD	786514	wordpools/wasnorm_wordpool_less_exclusions.txt	LTP278	ltpFR	1	8	1	CHEST	295	n/a	n/a	0	n/a	n/a	n/a	n/a	n/a
1592.1	n/a	REC_WORD_VV	796050	wordpools/wasnorm_wordpool_less_exclusions.txt	LTP278	ltpFR	1	8	n/a	<>	-1	n/a	n/a	n/a	n/a	n/a	n/a	n/a	n/a
1641.56	n/a	REST_REWET	820780	n/a	LTP278	ltpFR	1	8	n/a	n/a	n/a	n/a	n/a	n/a	n/a	n/a	n/a	n/a	n/a
2039.422	n/a	WORD	1019711	wordpools/wasnorm_wordpool_less_exclusions.txt	LTP278	ltpFR	1	9	0	BEEF	113	n/a	n/a	1	0.57763671875	0.412841796875	1	upper	amplitud.ttf
2043.382	n/a	WORD	1021691	wordpools/wasnorm_wordpool_less_exclusions.txt	LTP278	ltpFR	1	9	0	LIST	830	n/a	n/a	0	0.57763671875	0.412841796875	1	upper	amplitud.ttf
2047.36	n/a	WORD	1023680	wordpools/wasnorm_wordpool_less_exclusions.txt	LTP278	ltpFR	1	9	0	OFFICE	972	n/a	n/a	1	0.57763671875	0.412841796875	1	upper	amplitud.ttf
2051.436	n/a	WORD	1025718	wordpools/wasnorm_wordpool_less_exclusions.txt	LTP278	ltpFR	1	9	0	CARTON	251	n/a	n/a	0	0.57763671875	0.412841796875	1	upper	amplitud.ttf
2055.298	n/a	WORD	1027649	wordpools/wasnorm_wordpool_less_exclusions.txt	LTP278	ltpFR	1	9	1	PACKAGE	997	n/a	n/a	0	0.422607421875	0.5869140625	0	lower	zerothre.ttf
2059.492	n/a	WORD	1029746	wordpools/wasnorm_wordpool_less_exclusions.txt	LTP278	ltpFR	1	9	1	JOKER	759	n/a	n/a	1	0.422607421875	0.5869140625	0	lower	zerothre.ttf
2063.436	n/a	WORD	1031718	wordpools/wasnorm_wordpool_less_exclusions.txt	LTP278	ltpFR	1	9	1	TERMITE	1451	n/a	n/a	1	0.422607421875	0.5869140625	0	lower	zerothre.ttf
2067.612	n/a	WORD	1033806	wordpools/wasnorm_wordpool_less_exclusions.txt	LTP278	ltpFR	1	9	1	RESTAURANT	1187	n/a	n/a	0	0.422607421875	0.5869140625	0	lower	zerothre.ttf
2071.44	n/a	WORD	1035720	wordpools/wasnorm_wordpool_less_exclusions.txt	LTP278	ltpFR	1	9	0	DIGGER	464	n/a	n/a	0	0.57763671875	0.412841796875	1	upper	amplitud.ttf
2075.65	n/a	WORD	1037825	wordpools/wasnorm_wordpool_less_exclusions.txt	LTP278	ltpFR	1	9	0	TOTE	1487	n/a	n/a	1	0.57763671875	0.412841796875	1	upper	amplitud.ttf
2079.662	n/a	WORD	1039831	wordpools/wasnorm_wordpool_less_exclusions.txt	LTP278	ltpFR	1	9	1	WORLD	1622	n/a	n/a	1	0.422607421875	0.5869140625	0	lower	zerothre.ttf
2083.756	n/a	WORD	1041878	wordpools/wasnorm_wordpool_less_exclusions.txt	LTP278	ltpFR	1	9	1	UNIVERSE	1540	n/a	n/a	1	0.422607421875	0.5869140625	0	lower	zerothre.ttf
2087.584	n/a	WORD	1043792	wordpools/wasnorm_wordpool_less_exclusions.txt	LTP278	ltpFR	1	9	1	SPOON	1357	n/a	n/a	0	0.422607421875	0.5869140625	0	lower	zerothre.ttf
2091.794	n/a	WORD	1045897	wordpools/wasnorm_wordpool_less_exclusions.txt	LTP278	ltpFR	1	9	1	BOUILLON	154	n/a	n/a	0	0.422607421875	0.5869140625	0	lower	zerothre.ttf
2095.638	n/a	WORD	1047819	wordpools/wasnorm_wordpool_less_exclusions.txt	LTP278	ltpFR	1	9	0	WAITER	1580	n/a	n/a	1	0.57763671875	0.412841796875	1	upper	amplitud.ttf
2099.55	n/a	WORD	1049775	wordpools/wasnorm_wordpool_less_exclusions.txt	LTP278	ltpFR	1	9	0	BULL	193	n/a	n/a	1	0.57763671875	0.412841796875	1	upper	amplitud.ttf
2105.624	n/a	REC_START	1052812	n/a	LTP278	ltpFR	1	9	n/a	n/a	n/a	n/a	n/a	n/a	n/a	n/a	n/a	n/a	n/a
2106.404	n/a	REC_WORD	1053202	wordpools/wasnorm_wordpool_less_exclusions.txt	LTP278	ltpFR	1	9	0	BULL	193	n/a	n/a	1	n/a	n/a	n/a	n/a	n/a
2107.732	n/a	REC_WORD	1053866	wordpools/wasnorm_wordpool_less_exclusions.txt	LTP278	ltpFR	1	9	0	BEEF	113	n/a	n/a	1	n/a	n/a	n/a	n/a	n/a
2109.112	n/a	REC_WORD	1054556	wordpools/wasnorm_wordpool_less_exclusions.txt	LTP278	ltpFR	1	9	1	BOUILLON	154	n/a	n/a	0	n/a	n/a	n/a	n/a	n/a
2110.694	n/a	REC_WORD	1055347	wordpools/wasnorm_wordpool_less_exclusions.txt	LTP278	ltpFR	1	9	0	WAITER	1580	n/a	n/a	1	n/a	n/a	n/a	n/a	n/a
2112.072	n/a	REC_WORD	1056036	wordpools/wasnorm_wordpool_less_exclusions.txt	LTP278	ltpFR	1	9	1	RESTAURANT	1187	n/a	n/a	0	n/a	n/a	n/a	n/a	n/a
2114.324	n/a	REC_WORD	1057162	wordpools/wasnorm_wordpool_less_exclusions.txt	LTP278	ltpFR	1	9	0	TOTE	1487	n/a	n/a	1	n/a	n/a	n/a	n/a	n/a
2117.316	n/a	REC_WORD	1058658	wordpools/wasnorm_wordpool_less_exclusions.txt	LTP278	ltpFR	1	9	1	UNIVERSE	1540	n/a	n/a	1	n/a	n/a	n/a	n/a	n/a
2119.556	n/a	REC_WORD	1059778	wordpools/wasnorm_wordpool_less_exclusions.txt	LTP278	ltpFR	1	9	1	WORLD	1622	n/a	n/a	1	n/a	n/a	n/a	n/a	n/a
2125.92	n/a	REC_WORD	1062960	wordpools/wasnorm_wordpool_less_exclusions.txt	LTP278	ltpFR	1	9	1	SPOON	1357	n/a	n/a	0	n/a	n/a	n/a	n/a	n/a
2149.93	n/a	REC_WORD	1074965	wordpools/wasnorm_wordpool_less_exclusions.txt	LTP278	ltpFR	1	9	0	OFFICE	972	n/a	n/a	1	n/a	n/a	n/a	n/a	n/a
2161.254	n/a	REC_WORD	1080627	wordpools/wasnorm_wordpool_less_exclusions.txt	LTP278	ltpFR	1	9	1	JOKER	759	n/a	n/a	1	n/a	n/a	n/a	n/a	n/a
2188.9	n/a	WORD	1094450	wordpools/wasnorm_wordpool_less_exclusions.txt	LTP278	ltpFR	1	10	0	CALCULATOR	220	n/a	n/a	0	0.57763671875	0.412841796875	1	upper	amplitud.ttf
2192.828	n/a	WORD	1096414	wordpools/wasnorm_wordpool_less_exclusions.txt	LTP278	ltpFR	1	10	0	COMMITTEE	355	n/a	n/a	1	0.57763671875	0.412841796875	1	upper	amplitud.ttf
2196.922	n/a	WORD	1098461	wordpools/wasnorm_wordpool_less_exclusions.txt	LTP278	ltpFR	1	10	0	LIVER	833	n/a	n/a	0	0.57763671875	0.412841796875	1	upper	amplitud.ttf
2201.116	n/a	WORD	1100558	wordpools/wasnorm_wordpool_less_exclusions.txt	LTP278	ltpFR	1	10	0	CHART	282	n/a	n/a	0	0.57763671875	0.412841796875	1	upper	amplitud.ttf
2205.326	n/a	WORD	1102663	wordpools/wasnorm_wordpool_less_exclusions.txt	LTP278	ltpFR	1	10	0	VESSEL	1558	n/a	n/a	1	0.57763671875	0.412841796875	1	upper	amplitud.ttf
2209.204	n/a	WORD	1104602	wordpools/wasnorm_wordpool_less_exclusions.txt	LTP278	ltpFR	1	10	0	PORT	1110	n/a	n/a	0	0.57763671875	0.412841796875	1	upper	amplitud.ttf
2213.332	n/a	WORD	1106666	wordpools/wasnorm_wordpool_less_exclusions.txt	LTP278	ltpFR	1	10	0	FENCE	560	n/a	n/a	1	0.57763671875	0.412841796875	1	upper	amplitud.ttf
2217.208	n/a	WORD	1108604	wordpools/wasnorm_wordpool_less_exclusions.txt	LTP278	ltpFR	1	10	0	VISITOR	1573	n/a	n/a	1	0.57763671875	0.412841796875	1	upper	amplitud.ttf
2221.17	n/a	WORD	1110585	wordpools/wasnorm_wordpool_less_exclusions.txt	LTP278	ltpFR	1	10	0	BASSINET	97	n/a	n/a	0	0.57763671875	0.412841796875	1	upper	amplitud.ttf
2225.23	n/a	WORD	1112615	wordpools/wasnorm_wordpool_less_exclusions.txt	LTP278	ltpFR	1	10	0	CLERK	321	n/a	n/a	1	0.57763671875	0.412841796875	1	upper	amplitud.ttf
2229.24	n/a	WORD	1114620	wordpools/wasnorm_wordpool_less_exclusions.txt	LTP278	ltpFR	1	10	0	SUPERVISOR	1410	n/a	n/a	1	0.57763671875	0.412841796875	1	upper	amplitud.ttf
2233.136	n/a	WORD	1116568	wordpools/wasnorm_wordpool_less_exclusions.txt	LTP278	ltpFR	1	10	0	GALLON	618	n/a	n/a	1	0.57763671875	0.412841796875	1	upper	amplitud.ttf
2237.03	n/a	WORD	1118515	wordpools/wasnorm_wordpool_less_exclusions.txt	LTP278	ltpFR	1	10	0	MARROW	872	n/a	n/a	0	0.57763671875	0.412841796875	1	upper	amplitud.ttf
2241.19	n/a	WORD	1120595	wordpools/wasnorm_wordpool_less_exclusions.txt	LTP278	ltpFR	1	10	0	SOCIETY	1338	n/a	n/a	1	0.57763671875	0.412841796875	1	upper	amplitud.ttf
2245.266	n/a	WORD	1122633	wordpools/wasnorm_wordpool_less_exclusions.txt	LTP278	ltpFR	1	10	0	DEODORANT	448	n/a	n/a	0	0.57763671875	0.412841796875	1	upper	amplitud.ttf
2249.178	n/a	WORD	1124589	wordpools/wasnorm_wordpool_less_exclusions.txt	LTP278	ltpFR	1	10	0	OINTMENT	974	n/a	n/a	0	0.57763671875	0.412841796875	1	upper	amplitud.ttf
2255.12	n/a	REC_START	1127560	n/a	LTP278	ltpFR	1	10	n/a	n/a	n/a	n/a	n/a	n/a	n/a	n/a	n/a	n/a	n/a
2255.83	n/a	REC_WORD	1127915	wordpools/wasnorm_wordpool_less_exclusions.txt	LTP278	ltpFR	1	10	0	DEODORANT	448	n/a	n/a	0	n/a	n/a	n/a	n/a	n/a
2257.334	n/a	REC_WORD	1128667	wordpools/wasnorm_wordpool_less_exclusions.txt	LTP278	ltpFR	1	10	0	OINTMENT	974	n/a	n/a	0	n/a	n/a	n/a	n/a	n/a
2297.89	n/a	REC_WORD	1148945	wordpools/wasnorm_wordpool_less_exclusions.txt	LTP278	ltpFR	1	10	n/a	BUTTON	207	n/a	n/a	n/a	n/a	n/a	n/a	n/a	n/a
2309.306	n/a	REC_WORD	1154653	wordpools/wasnorm_wordpool_less_exclusions.txt	LTP278	ltpFR	1	10	0	CLERK	321	n/a	n/a	1	n/a	n/a	n/a	n/a	n/a
2335.35	n/a	WORD	1167675	wordpools/wasnorm_wordpool_less_exclusions.txt	LTP278	ltpFR	1	11	1	PATROL	1027	n/a	n/a	1	0.422607421875	0.5869140625	0	lower	zerothre.ttf
2339.494	n/a	WORD	1169747	wordpools/wasnorm_wordpool_less_exclusions.txt	LTP278	ltpFR	1	11	1	LADY	794	n/a	n/a	1	0.422607421875	0.5869140625	0	lower	zerothre.ttf
2343.504	n/a	WORD	1171752	wordpools/wasnorm_wordpool_less_exclusions.txt	LTP278	ltpFR	1	11	0	NOMAD	955	n/a	n/a	1	0.57763671875	0.412841796875	1	upper	amplitud.ttf
2347.65	n/a	WORD	1173825	wordpools/wasnorm_wordpool_less_exclusions.txt	LTP278	ltpFR	1	11	0	VINEGAR	1569	n/a	n/a	0	0.57763671875	0.412841796875	1	upper	amplitud.ttf
2351.826	n/a	WORD	1175913	wordpools/wasnorm_wordpool_less_exclusions.txt	LTP278	ltpFR	1	11	0	DRIVER	499	n/a	n/a	1	0.57763671875	0.412841796875	1	upper	amplitud.ttf
2355.87	n/a	WORD	1177935	wordpools/wasnorm_wordpool_less_exclusions.txt	LTP278	ltpFR	1	11	0	RING	1193	n/a	n/a	0	0.57763671875	0.412841796875	1	upper	amplitud.ttf
2359.698	n/a	WORD	1179849	wordpools/wasnorm_wordpool_less_exclusions.txt	LTP278	ltpFR	1	11	1	DISHWASHER	475	n/a	n/a	0	0.422607421875	0.5869140625	0	lower	zerothre.ttf
2363.542	n/a	WORD	1181771	wordpools/wasnorm_wordpool_less_exclusions.txt	LTP278	ltpFR	1	11	1	BROTHER	179	n/a	n/a	1	0.422607421875	0.5869140625	0	lower	zerothre.ttf
2367.536	n/a	WORD	1183768	wordpools/wasnorm_wordpool_less_exclusions.txt	LTP278	ltpFR	1	11	1	JAR	750	n/a	n/a	0	0.422607421875	0.5869140625	0	lower	zerothre.ttf
2371.664	n/a	WORD	1185832	wordpools/wasnorm_wordpool_less_exclusions.txt	LTP278	ltpFR	1	11	0	JAM	748	n/a	n/a	0	0.57763671875	0.412841796875	1	upper	amplitud.ttf
2375.774	n/a	WORD	1187887	wordpools/wasnorm_wordpool_less_exclusions.txt	LTP278	ltpFR	1	11	0	DRUM	502	n/a	n/a	1	0.57763671875	0.412841796875	1	upper	amplitud.ttf
2379.684	n/a	WORD	1189842	wordpools/wasnorm_wordpool_less_exclusions.txt	LTP278	ltpFR	1	11	0	CHIME	300	n/a	n/a	0	0.57763671875	0.412841796875	1	upper	amplitud.ttf
2383.746	n/a	WORD	1191873	wordpools/wasnorm_wordpool_less_exclusions.txt	LTP278	ltpFR	1	11	0	VASE	1549	n/a	n/a	0	0.57763671875	0.412841796875	1	upper	amplitud.ttf
2387.59	n/a	WORD	1193795	wordpools/wasnorm_wordpool_less_exclusions.txt	LTP278	ltpFR	1	11	1	STEW	1380	n/a	n/a	0	0.422607421875	0.5869140625	0	lower	zerothre.ttf
2391.618	n/a	WORD	1195809	wordpools/wasnorm_wordpool_less_exclusions.txt	LTP278	ltpFR	1	11	1	SIRLOIN	1311	n/a	n/a	1	0.422607421875	0.5869140625	0	lower	zerothre.ttf
2395.644	n/a	WORD	1197822	wordpools/wasnorm_wordpool_less_exclusions.txt	LTP278	ltpFR	1	11	1	THORN	1459	n/a	n/a	0	0.422607421875	0.5869140625	0	lower	zerothre.ttf
2401.452	n/a	REC_START	1200726	n/a	LTP278	ltpFR	1	11	n/a	n/a	n/a	n/a	n/a	n/a	n/a	n/a	n/a	n/a	n/a
2401.886	n/a	REC_WORD	1200943	wordpools/wasnorm_wordpool_less_exclusions.txt	LTP278	ltpFR	1	11	1	SIRLOIN	1311	n/a	n/a	1	n/a	n/a	n/a	n/a	n/a
2403.036	n/a	REC_WORD	1201518	wordpools/wasnorm_wordpool_less_exclusions.txt	LTP278	ltpFR	1	11	1	STEW	1380	n/a	n/a	0	n/a	n/a	n/a	n/a	n/a
2404.374	n/a	REC_WORD	1202187	wordpools/wasnorm_wordpool_less_exclusions.txt	LTP278	ltpFR	1	11	1	LADY	794	n/a	n/a	1	n/a	n/a	n/a	n/a	n/a
2405.504	n/a	REC_WORD	1202752	wordpools/wasnorm_wordpool_less_exclusions.txt	LTP278	ltpFR	1	11	1	THORN	1459	n/a	n/a	0	n/a	n/a	n/a	n/a	n/a
2410.516	n/a	REC_WORD	1205258	wordpools/wasnorm_wordpool_less_exclusions.txt	LTP278	ltpFR	1	11	0	CHIME	300	n/a	n/a	0	n/a	n/a	n/a	n/a	n/a
2412.08	n/a	REC_WORD	1206040	wordpools/wasnorm_wordpool_less_exclusions.txt	LTP278	ltpFR	1	11	0	JAM	748	n/a	n/a	0	n/a	n/a	n/a	n/a	n/a
2420.676	n/a	REC_WORD	1210338	wordpools/wasnorm_wordpool_less_exclusions.txt	LTP278	ltpFR	1	11	0	VINEGAR	1569	n/a	n/a	0	n/a	n/a	n/a	n/a	n/a
2474.368	n/a	REC_WORD	1237184	wordpools/wasnorm_wordpool_less_exclusions.txt	LTP278	ltpFR	1	11	1	DISHWASHER	475	n/a	n/a	0	n/a	n/a	n/a	n/a	n/a
2481.568	n/a	WORD	1240784	wordpools/wasnorm_wordpool_less_exclusions.txt	LTP278	ltpFR	1	12	0	AIRPLANE	12	n/a	n/a	1	0.57763671875	0.412841796875	1	upper	amplitud.ttf
2485.662	n/a	WORD	1242831	wordpools/wasnorm_wordpool_less_exclusions.txt	LTP278	ltpFR	1	12	0	BARLEY	88	n/a	n/a	0	0.57763671875	0.412841796875	1	upper	amplitud.ttf
2489.806	n/a	WORD	1244903	wordpools/wasnorm_wordpool_less_exclusions.txt	LTP278	ltpFR	1	12	0	FLY	586	n/a	n/a	0	0.57763671875	0.412841796875	1	upper	amplitud.ttf
2493.75	n/a	WORD	1246875	wordpools/wasnorm_wordpool_less_exclusions.txt	LTP278	ltpFR	1	12	0	STEWARDESS	1381	n/a	n/a	1	0.57763671875	0.412841796875	1	upper	amplitud.ttf
2497.894	n/a	WORD	1248947	wordpools/wasnorm_wordpool_less_exclusions.txt	LTP278	ltpFR	1	12	0	ALMOND	18	n/a	n/a	0	0.57763671875	0.412841796875	1	upper	amplitud.ttf
2501.804	n/a	WORD	1250902	wordpools/wasnorm_wordpool_less_exclusions.txt	LTP278	ltpFR	1	12	0	POSTAGE	1113	n/a	n/a	1	0.57763671875	0.412841796875	1	upper	amplitud.ttf
2505.666	n/a	WORD	1252833	wordpools/wasnorm_wordpool_less_exclusions.txt	LTP278	ltpFR	1	12	0	CABIN	211	n/a	n/a	1	0.57763671875	0.412841796875	1	upper	amplitud.ttf
2509.592	n/a	WORD	1254796	wordpools/wasnorm_wordpool_less_exclusions.txt	LTP278	ltpFR	1	12	0	CAULIFLOWER	262	n/a	n/a	0	0.57763671875	0.412841796875	1	upper	amplitud.ttf
2513.62	n/a	WORD	1256810	wordpools/wasnorm_wordpool_less_exclusions.txt	LTP278	ltpFR	1	12	0	CAFETERIA	217	n/a	n/a	1	0.57763671875	0.412841796875	1	upper	amplitud.ttf
2517.548	n/a	WORD	1258774	wordpools/wasnorm_wordpool_less_exclusions.txt	LTP278	ltpFR	1	12	0	MASK	876	n/a	n/a	0	0.57763671875	0.412841796875	1	upper	amplitud.ttf
2521.642	n/a	WORD	1260821	wordpools/wasnorm_wordpool_less_exclusions.txt	LTP278	ltpFR	1	12	0	FRECKLE	602	n/a	n/a	0	0.57763671875	0.412841796875	1	upper	amplitud.ttf
2525.57	n/a	WORD	1262785	wordpools/wasnorm_wordpool_less_exclusions.txt	LTP278	ltpFR	1	12	0	DISH	474	n/a	n/a	0	0.57763671875	0.412841796875	1	upper	amplitud.ttf
2529.414	n/a	WORD	1264707	wordpools/wasnorm_wordpool_less_exclusions.txt	LTP278	ltpFR	1	12	0	MEAL	882	n/a	n/a	0	0.57763671875	0.412841796875	1	upper	amplitud.ttf
2533.29	n/a	WORD	1266645	wordpools/wasnorm_wordpool_less_exclusions.txt	LTP278	ltpFR	1	12	0	NAIL	936	n/a	n/a	0	0.57763671875	0.412841796875	1	upper	amplitud.ttf
2537.202	n/a	WORD	1268601	wordpools/wasnorm_wordpool_less_exclusions.txt	LTP278	ltpFR	1	12	0	HAND	683	n/a	n/a	0	0.57763671875	0.412841796875	1	upper	amplitud.ttf
2541.046	n/a	WORD	1270523	wordpools/wasnorm_wordpool_less_exclusions.txt	LTP278	ltpFR	1	12	0	FIREPLACE	570	n/a	n/a	1	0.57763671875	0.412841796875	1	upper	amplitud.ttf
2546.988	n/a	REC_START	1273494	n/a	LTP278	ltpFR	1	12	n/a	n/a	n/a	n/a	n/a	n/a	n/a	n/a	n/a	n/a	n/a
2547.248	n/a	REC_WORD	1273624	wordpools/wasnorm_wordpool_less_exclusions.txt	LTP278	ltpFR	1	12	0	FIREPLACE	570	n/a	n/a	1	n/a	n/a	n/a	n/a	n/a
2548.248	n/a	REC_WORD_VV	1274124	wordpools/wasnorm_wordpool_less_exclusions.txt	LTP278	ltpFR	1	12	n/a	<>	-1	n/a	n/a	n/a	n/a	n/a	n/a	n/a	n/a
2548.92	n/a	REC_WORD	1274460	wordpools/wasnorm_wordpool_less_exclusions.txt	LTP278	ltpFR	1	12	0	AIRPLANE	12	n/a	n/a	1	n/a	n/a	n/a	n/a	n/a
2550.148	n/a	REC_WORD	1275074	wordpools/wasnorm_wordpool_less_exclusions.txt	LTP278	ltpFR	1	12	0	FLY	586	n/a	n/a	0	n/a	n/a	n/a	n/a	n/a
2551.39	n/a	REC_WORD	1275695	wordpools/wasnorm_wordpool_less_exclusions.txt	LTP278	ltpFR	1	12	0	STEWARDESS	1381	n/a	n/a	1	n/a	n/a	n/a	n/a	n/a
2552.87	n/a	REC_WORD	1276435	wordpools/wasnorm_wordpool_less_exclusions.txt	LTP278	ltpFR	1	12	0	HAND	683	n/a	n/a	0	n/a	n/a	n/a	n/a	n/a
2554.286	n/a	REC_WORD	1277143	wordpools/wasnorm_wordpool_less_exclusions.txt	LTP278	ltpFR	1	12	0	NAIL	936	n/a	n/a	0	n/a	n/a	n/a	n/a	n/a
2555.724	n/a	REC_WORD	1277862	wordpools/wasnorm_wordpool_less_exclusions.txt	LTP278	ltpFR	1	12	0	MASK	876	n/a	n/a	0	n/a	n/a	n/a	n/a	n/a
2557.584	n/a	REC_WORD	1278792	wordpools/wasnorm_wordpool_less_exclusions.txt	LTP278	ltpFR	1	12	0	BARLEY	88	n/a	n/a	0	n/a	n/a	n/a	n/a	n/a
2560.748	n/a	REC_WORD	1280374	wordpools/wasnorm_wordpool_less_exclusions.txt	LTP278	ltpFR	1	12	0	ALMOND	18	n/a	n/a	0	n/a	n/a	n/a	n/a	n/a
2626.654	n/a	WORD	1313327	wordpools/wasnorm_wordpool_less_exclusions.txt	LTP278	ltpFR	1	13	1	CORAL	378	n/a	n/a	1	0.422607421875	0.5869140625	0	lower	zerothre.ttf
2630.698	n/a	WORD	1315349	wordpools/wasnorm_wordpool_less_exclusions.txt	LTP278	ltpFR	1	13	1	CONCRETE	361	n/a	n/a	0	0.422607421875	0.5869140625	0	lower	zerothre.ttf
2634.874	n/a	WORD	1317437	wordpools/wasnorm_wordpool_less_exclusions.txt	LTP278	ltpFR	1	13	1	LUGGAGE	847	n/a	n/a	0	0.422607421875	0.5869140625	0	lower	zerothre.ttf
2638.718	n/a	WORD	1319359	wordpools/wasnorm_wordpool_less_exclusions.txt	LTP278	ltpFR	1	13	1	CARDINAL	244	n/a	n/a	1	0.422607421875	0.5869140625	0	lower	zerothre.ttf
2642.662	n/a	WORD	1321331	wordpools/wasnorm_wordpool_less_exclusions.txt	LTP278	ltpFR	1	13	1	GRAVEL	659	n/a	n/a	0	0.422607421875	0.5869140625	0	lower	zerothre.ttf
2646.774	n/a	WORD	1323387	wordpools/wasnorm_wordpool_less_exclusions.txt	LTP278	ltpFR	1	13	1	TAR	1435	n/a	n/a	0	0.422607421875	0.5869140625	0	lower	zerothre.ttf
2650.8	n/a	WORD	1325400	wordpools/wasnorm_wordpool_less_exclusions.txt	LTP278	ltpFR	1	13	1	CHAUFFEUR	283	n/a	n/a	1	0.422607421875	0.5869140625	0	lower	zerothre.ttf
2654.944	n/a	WORD	1327472	wordpools/wasnorm_wordpool_less_exclusions.txt	LTP278	ltpFR	1	13	1	LIPSTICK	829	n/a	n/a	0	0.422607421875	0.5869140625	0	lower	zerothre.ttf
2658.906	n/a	WORD	1329453	wordpools/wasnorm_wordpool_less_exclusions.txt	LTP278	ltpFR	1	13	1	DUCK	504	n/a	n/a	1	0.422607421875	0.5869140625	0	lower	zerothre.ttf
2662.916	n/a	WORD	1331458	wordpools/wasnorm_wordpool_less_exclusions.txt	LTP278	ltpFR	1	13	1	GROCERIES	663	n/a	n/a	0	0.422607421875	0.5869140625	0	lower	zerothre.ttf
2667.094	n/a	WORD	1333547	wordpools/wasnorm_wordpool_less_exclusions.txt	LTP278	ltpFR	1	13	1	REFRIGERATOR	1179	n/a	n/a	0	0.422607421875	0.5869140625	0	lower	zerothre.ttf
2671.27	n/a	WORD	1335635	wordpools/wasnorm_wordpool_less_exclusions.txt	LTP278	ltpFR	1	13	1	FREEWAY	603	n/a	n/a	0	0.422607421875	0.5869140625	0	lower	zerothre.ttf
2675.198	n/a	WORD	1337599	wordpools/wasnorm_wordpool_less_exclusions.txt	LTP278	ltpFR	1	13	1	BOWL	158	n/a	n/a	0	0.422607421875	0.5869140625	0	lower	zerothre.ttf
2679.192	n/a	WORD	1339596	wordpools/wasnorm_wordpool_less_exclusions.txt	LTP278	ltpFR	1	13	1	HAT	690	n/a	n/a	0	0.422607421875	0.5869140625	0	lower	zerothre.ttf
2683.236	n/a	WORD	1341618	wordpools/wasnorm_wordpool_less_exclusions.txt	LTP278	ltpFR	1	13	1	LAKE	796	n/a	n/a	0	0.422607421875	0.5869140625	0	lower	zerothre.ttf
2687.38	n/a	WORD	1343690	wordpools/wasnorm_wordpool_less_exclusions.txt	LTP278	ltpFR	1	13	1	COBBLER	335	n/a	n/a	1	0.422607421875	0.5869140625	0	lower	zerothre.ttf
2693.156	n/a	REC_START	1346578	n/a	LTP278	ltpFR	1	13	n/a	n/a	n/a	n/a	n/a	n/a	n/a	n/a	n/a	n/a	n/a
2693.476	n/a	REC_WORD	1346738	wordpools/wasnorm_wordpool_less_exclusions.txt	LTP278	ltpFR	1	13	1	CHAUFFEUR	283	n/a	n/a	1	n/a	n/a	n/a	n/a	n/a
2694.972	n/a	REC_WORD	1347486	wordpools/wasnorm_wordpool_less_exclusions.txt	LTP278	ltpFR	1	13	1	COBBLER	335	n/a	n/a	1	n/a	n/a	n/a	n/a	n/a
2696.174	n/a	REC_WORD	1348087	wordpools/wasnorm_wordpool_less_exclusions.txt	LTP278	ltpFR	1	13	1	CONCRETE	361	n/a	n/a	0	n/a	n/a	n/a	n/a	n/a
2697.484	n/a	REC_WORD	1348742	wordpools/wasnorm_wordpool_less_exclusions.txt	LTP278	ltpFR	1	13	1	TAR	1435	n/a	n/a	0	n/a	n/a	n/a	n/a	n/a
2698.69	n/a	REC_WORD	1349345	wordpools/wasnorm_wordpool_less_exclusions.txt	LTP278	ltpFR	1	13	1	GRAVEL	659	n/a	n/a	0	n/a	n/a	n/a	n/a	n/a
2699.918	n/a	REC_WORD	1349959	wordpools/wasnorm_wordpool_less_exclusions.txt	LTP278	ltpFR	1	13	1	LIPSTICK	829	n/a	n/a	0	n/a	n/a	n/a	n/a	n/a
2701.258	n/a	REC_WORD	1350629	wordpools/wasnorm_wordpool_less_exclusions.txt	LTP278	ltpFR	1	13	1	GROCERIES	663	n/a	n/a	0	n/a	n/a	n/a	n/a	n/a
2702.502	n/a	REC_WORD	1351251	wordpools/wasnorm_wordpool_less_exclusions.txt	LTP278	ltpFR	1	13	1	HAT	690	n/a	n/a	0	n/a	n/a	n/a	n/a	n/a
2703.7	n/a	REC_WORD	1351850	wordpools/wasnorm_wordpool_less_exclusions.txt	LTP278	ltpFR	1	13	1	REFRIGERATOR	1179	n/a	n/a	0	n/a	n/a	n/a	n/a	n/a
2705.264	n/a	REC_WORD	1352632	wordpools/wasnorm_wordpool_less_exclusions.txt	LTP278	ltpFR	1	13	1	BOWL	158	n/a	n/a	0	n/a	n/a	n/a	n/a	n/a
2725.992	n/a	REC_WORD	1362996	wordpools/wasnorm_wordpool_less_exclusions.txt	LTP278	ltpFR	1	13	1	LAKE	796	n/a	n/a	0	n/a	n/a	n/a	n/a	n/a
2775.616	n/a	WORD	1387808	wordpools/wasnorm_wordpool_less_exclusions.txt	LTP278	ltpFR	1	14	-1	MOSS	918	n/a	n/a	-1	1.0	1.0	1	upper	Verdana.ttf
2779.578	n/a	WORD	1389789	wordpools/wasnorm_wordpool_less_exclusions.txt	LTP278	ltpFR	1	14	-1	HEDGE	699	n/a	n/a	-1	1.0	1.0	1	upper	Verdana.ttf
2783.638	n/a	WORD	1391819	wordpools/wasnorm_wordpool_less_exclusions.txt	LTP278	ltpFR	1	14	-1	SKATE	1313	n/a	n/a	-1	1.0	1.0	1	upper	Verdana.ttf
2787.516	n/a	WORD	1393758	wordpools/wasnorm_wordpool_less_exclusions.txt	LTP278	ltpFR	1	14	-1	GLACIER	638	n/a	n/a	-1	1.0	1.0	1	upper	Verdana.ttf
2791.46	n/a	WORD	1395730	wordpools/wasnorm_wordpool_less_exclusions.txt	LTP278	ltpFR	1	14	-1	SPY	1360	n/a	n/a	-1	1.0	1.0	1	upper	Verdana.ttf
2795.404	n/a	WORD	1397702	wordpools/wasnorm_wordpool_less_exclusions.txt	LTP278	ltpFR	1	14	-1	BENCH	121	n/a	n/a	-1	1.0	1.0	1	upper	Verdana.ttf
2799.33	n/a	WORD	1399665	wordpools/wasnorm_wordpool_less_exclusions.txt	LTP278	ltpFR	1	14	-1	DRESSER	496	n/a	n/a	-1	1.0	1.0	1	upper	Verdana.ttf
2803.524	n/a	WORD	1401762	wordpools/wasnorm_wordpool_less_exclusions.txt	LTP278	ltpFR	1	14	-1	ROOF	1205	n/a	n/a	-1	1.0	1.0	1	upper	Verdana.ttf
2807.468	n/a	WORD	1403734	wordpools/wasnorm_wordpool_less_exclusions.txt	LTP278	ltpFR	1	14	-1	DRINK	498	n/a	n/a	-1	1.0	1.0	1	upper	Verdana.ttf
2811.596	n/a	WORD	1405798	wordpools/wasnorm_wordpool_less_exclusions.txt	LTP278	ltpFR	1	14	-1	ROAD	1196	n/a	n/a	-1	1.0	1.0	1	upper	Verdana.ttf
2815.658	n/a	WORD	1407829	wordpools/wasnorm_wordpool_less_exclusions.txt	LTP278	ltpFR	1	14	-1	GRIZZLY	662	n/a	n/a	-1	1.0	1.0	1	upper	Verdana.ttf
2819.734	n/a	WORD	1409867	wordpools/wasnorm_wordpool_less_exclusions.txt	LTP278	ltpFR	1	14	-1	LOFT	840	n/a	n/a	-1	1.0	1.0	1	upper	Verdana.ttf
2823.846	n/a	WORD	1411923	wordpools/wasnorm_wordpool_less_exclusions.txt	LTP278	ltpFR	1	14	-1	SHERIFF	1284	n/a	n/a	-1	1.0	1.0	1	upper	Verdana.ttf
2827.94	n/a	WORD	1413970	wordpools/wasnorm_wordpool_less_exclusions.txt	LTP278	ltpFR	1	14	-1	COMMUNITY	356	n/a	n/a	-1	1.0	1.0	1	upper	Verdana.ttf
2831.816	n/a	WORD	1415908	wordpools/wasnorm_wordpool_less_exclusions.txt	LTP278	ltpFR	1	14	-1	NIGHTGOWN	953	n/a	n/a	-1	1.0	1.0	1	upper	Verdana.ttf
2835.928	n/a	WORD	1417964	wordpools/wasnorm_wordpool_less_exclusions.txt	LTP278	ltpFR	1	14	-1	COURSE	390	n/a	n/a	-1	1.0	1.0	1	upper	Verdana.ttf
2841.652	n/a	REC_START	1420826	n/a	LTP278	ltpFR	1	14	n/a	n/a	n/a	n/a	n/a	n/a	n/a	n/a	n/a	n/a	n/a
2842.256	n/a	REC_WORD	1421128	wordpools/wasnorm_wordpool_less_exclusions.txt	LTP278	ltpFR	1	14	-1	DRINK	498	n/a	n/a	-1	n/a	n/a	n/a	n/a	n/a
2843.362	n/a	REC_WORD	1421681	wordpools/wasnorm_wordpool_less_exclusions.txt	LTP278	ltpFR	1	14	-1	COURSE	390	n/a	n/a	-1	n/a	n/a	n/a	n/a	n/a
2844.61	n/a	REC_WORD	1422305	wordpools/wasnorm_wordpool_less_exclusions.txt	LTP278	ltpFR	1	14	-1	NIGHTGOWN	953	n/a	n/a	-1	n/a	n/a	n/a	n/a	n/a
2846.08	n/a	REC_WORD	1423040	wordpools/wasnorm_wordpool_less_exclusions.txt	LTP278	ltpFR	1	14	-1	HEDGE	699	n/a	n/a	-1	n/a	n/a	n/a	n/a	n/a
2847.056	n/a	REC_WORD	1423528	wordpools/wasnorm_wordpool_less_exclusions.txt	LTP278	ltpFR	1	14	-1	SPY	1360	n/a	n/a	-1	n/a	n/a	n/a	n/a	n/a
2848.372	n/a	REC_WORD	1424186	wordpools/wasnorm_wordpool_less_exclusions.txt	LTP278	ltpFR	1	14	-1	SHERIFF	1284	n/a	n/a	-1	n/a	n/a	n/a	n/a	n/a
2850.986	n/a	REC_WORD	1425493	wordpools/wasnorm_wordpool_less_exclusions.txt	LTP278	ltpFR	1	14	-1	GLACIER	638	n/a	n/a	-1	n/a	n/a	n/a	n/a	n/a
2867.832	n/a	REC_WORD	1433916	wordpools/wasnorm_wordpool_less_exclusions.txt	LTP278	ltpFR	1	14	-1	DRESSER	496	n/a	n/a	-1	n/a	n/a	n/a	n/a	n/a
2873.458	n/a	REC_WORD	1436729	wordpools/wasnorm_wordpool_less_exclusions.txt	LTP278	ltpFR	1	14	n/a	SHELL	1281	n/a	n/a	n/a	n/a	n/a	n/a	n/a	n/a
2886.158	n/a	REC_WORD	1443079	wordpools/wasnorm_wordpool_less_exclusions.txt	LTP278	ltpFR	1	14	-1	SKATE	1313	n/a	n/a	-1	n/a	n/a	n/a	n/a	n/a
2941.37	n/a	WORD	1470685	wordpools/wasnorm_wordpool_less_exclusions.txt	LTP278	ltpFR	1	15	-1	MANSION	864	n/a	n/a	-1	1.0	1.0	1	upper	Verdana.ttf
2945.382	n/a	WORD	1472691	wordpools/wasnorm_wordpool_less_exclusions.txt	LTP278	ltpFR	1	15	-1	BLADE	134	n/a	n/a	-1	1.0	1.0	1	upper	Verdana.ttf
2949.36	n/a	WORD	1474680	wordpools/wasnorm_wordpool_less_exclusions.txt	LTP278	ltpFR	1	15	-1	LAMP	798	n/a	n/a	-1	1.0	1.0	1	upper	Verdana.ttf
2953.388	n/a	WORD	1476694	wordpools/wasnorm_wordpool_less_exclusions.txt	LTP278	ltpFR	1	15	-1	GLOVE	642	n/a	n/a	-1	1.0	1.0	1	upper	Verdana.ttf
2957.548	n/a	WORD	1478774	wordpools/wasnorm_wordpool_less_exclusions.txt	LTP278	ltpFR	1	15	-1	AUDIENCE	59	n/a	n/a	-1	1.0	1.0	1	upper	Verdana.ttf
2961.674	n/a	WORD	1480837	wordpools/wasnorm_wordpool_less_exclusions.txt	LTP278	ltpFR	1	15	-1	PEOPLE	1046	n/a	n/a	-1	1.0	1.0	1	upper	Verdana.ttf
2965.536	n/a	WORD	1482768	wordpools/wasnorm_wordpool_less_exclusions.txt	LTP278	ltpFR	1	15	-1	STAPLER	1372	n/a	n/a	-1	1.0	1.0	1	upper	Verdana.ttf
2969.48	n/a	WORD	1484740	wordpools/wasnorm_wordpool_less_exclusions.txt	LTP278	ltpFR	1	15	-1	BRIEFCASE	175	n/a	n/a	-1	1.0	1.0	1	upper	Verdana.ttf
2973.54	n/a	WORD	1486770	wordpools/wasnorm_wordpool_less_exclusions.txt	LTP278	ltpFR	1	15	-1	ARM	38	n/a	n/a	-1	1.0	1.0	1	upper	Verdana.ttf
2977.452	n/a	WORD	1488726	wordpools/wasnorm_wordpool_less_exclusions.txt	LTP278	ltpFR	1	15	-1	SLEEVE	1324	n/a	n/a	-1	1.0	1.0	1	upper	Verdana.ttf
2981.278	n/a	WORD	1490639	wordpools/wasnorm_wordpool_less_exclusions.txt	LTP278	ltpFR	1	15	-1	JUPITER	765	n/a	n/a	-1	1.0	1.0	1	upper	Verdana.ttf
2985.422	n/a	WORD	1492711	wordpools/wasnorm_wordpool_less_exclusions.txt	LTP278	ltpFR	1	15	-1	MONARCH	906	n/a	n/a	-1	1.0	1.0	1	upper	Verdana.ttf
2989.584	n/a	WORD	1494792	wordpools/wasnorm_wordpool_less_exclusions.txt	LTP278	ltpFR	1	15	-1	BUS	201	n/a	n/a	-1	1.0	1.0	1	upper	Verdana.ttf
2993.76	n/a	WORD	1496880	wordpools/wasnorm_wordpool_less_exclusions.txt	LTP278	ltpFR	1	15	-1	LASER	801	n/a	n/a	-1	1.0	1.0	1	upper	Verdana.ttf
2997.622	n/a	WORD	1498811	wordpools/wasnorm_wordpool_less_exclusions.txt	LTP278	ltpFR	1	15	-1	PAW	1029	n/a	n/a	-1	1.0	1.0	1	upper	Verdana.ttf
3001.516	n/a	WORD	1500758	wordpools/wasnorm_wordpool_less_exclusions.txt	LTP278	ltpFR	1	15	-1	SIDING	1304	n/a	n/a	-1	1.0	1.0	1	upper	Verdana.ttf
3007.274	n/a	REC_START	1503637	n/a	LTP278	ltpFR	1	15	n/a	n/a	n/a	n/a	n/a	n/a	n/a	n/a	n/a	n/a	n/a
3007.838	n/a	REC_WORD	1503919	wordpools/wasnorm_wordpool_less_exclusions.txt	LTP278	ltpFR	1	15	-1	SIDING	1304	n/a	n/a	-1	n/a	n/a	n/a	n/a	n/a
3009.08	n/a	REC_WORD	1504540	wordpools/wasnorm_wordpool_less_exclusions.txt	LTP278	ltpFR	1	15	-1	PAW	1029	n/a	n/a	-1	n/a	n/a	n/a	n/a	n/a
3010.196	n/a	REC_WORD	1505098	wordpools/wasnorm_wordpool_less_exclusions.txt	LTP278	ltpFR	1	15	-1	BUS	201	n/a	n/a	-1	n/a	n/a	n/a	n/a	n/a
3011.132	n/a	REC_WORD	1505566	wordpools/wasnorm_wordpool_less_exclusions.txt	LTP278	ltpFR	1	15	-1	MANSION	864	n/a	n/a	-1	n/a	n/a	n/a	n/a	n/a
3012.696	n/a	REC_WORD	1506348	wordpools/wasnorm_wordpool_less_exclusions.txt	LTP278	ltpFR	1	15	-1	ARM	38	n/a	n/a	-1	n/a	n/a	n/a	n/a	n/a
3013.586	n/a	REC_WORD	1506793	wordpools/wasnorm_wordpool_less_exclusions.txt	LTP278	ltpFR	1	15	-1	SLEEVE	1324	n/a	n/a	-1	n/a	n/a	n/a	n/a	n/a
3015.838	n/a	REC_WORD	1507919	wordpools/wasnorm_wordpool_less_exclusions.txt	LTP278	ltpFR	1	15	-1	AUDIENCE	59	n/a	n/a	-1	n/a	n/a	n/a	n/a	n/a
3017.618	n/a	REC_WORD	1508809	wordpools/wasnorm_wordpool_less_exclusions.txt	LTP278	ltpFR	1	15	-1	PEOPLE	1046	n/a	n/a	-1	n/a	n/a	n/a	n/a	n/a
3019.656	n/a	REC_WORD	1509828	wordpools/wasnorm_wordpool_less_exclusions.txt	LTP278	ltpFR	1	15	-1	JUPITER	765	n/a	n/a	-1	n/a	n/a	n/a	n/a	n/a
3045.288	n/a	REC_WORD	1522644	wordpools/wasnorm_wordpool_less_exclusions.txt	LTP278	ltpFR	1	15	n/a	OTTER	986	n/a	n/a	n/a	n/a	n/a	n/a	n/a	n/a
3057.58	n/a	REC_WORD	1528790	wordpools/wasnorm_wordpool_less_exclusions.txt	LTP278	ltpFR	1	15	-1	SIDING	1304	n/a	n/a	-1	n/a	n/a	n/a	n/a	n/a
3085.824	n/a	WORD	1542912	wordpools/wasnorm_wordpool_less_exclusions.txt	LTP278	ltpFR	1	16	-1	ASHTRAY	45	n/a	n/a	-1	1.0	1.0	1	upper	Verdana.ttf
3089.736	n/a	WORD	1544868	wordpools/wasnorm_wordpool_less_exclusions.txt	LTP278	ltpFR	1	16	-1	SEAL	1262	n/a	n/a	-1	1.0	1.0	1	upper	Verdana.ttf
3093.646	n/a	WORD	1546823	wordpools/wasnorm_wordpool_less_exclusions.txt	LTP278	ltpFR	1	16	-1	FIDDLE	561	n/a	n/a	-1	1.0	1.0	1	upper	Verdana.ttf
3097.856	n/a	WORD	1548928	wordpools/wasnorm_wordpool_less_exclusions.txt	LTP278	ltpFR	1	16	-1	RADIATOR	1156	n/a	n/a	-1	1.0	1.0	1	upper	Verdana.ttf
3101.834	n/a	WORD	1550917	wordpools/wasnorm_wordpool_less_exclusions.txt	LTP278	ltpFR	1	16	-1	OX	994	n/a	n/a	-1	1.0	1.0	1	upper	Verdana.ttf
3105.912	n/a	WORD	1552956	wordpools/wasnorm_wordpool_less_exclusions.txt	LTP278	ltpFR	1	16	-1	BISON	131	n/a	n/a	-1	1.0	1.0	1	upper	Verdana.ttf
3109.906	n/a	WORD	1554953	wordpools/wasnorm_wordpool_less_exclusions.txt	LTP278	ltpFR	1	16	-1	BAND	78	n/a	n/a	-1	1.0	1.0	1	upper	Verdana.ttf
3114.016	n/a	WORD	1557008	wordpools/wasnorm_wordpool_less_exclusions.txt	LTP278	ltpFR	1	16	-1	PASSENGER	1020	n/a	n/a	-1	1.0	1.0	1	upper	Verdana.ttf
3117.926	n/a	WORD	1558963	wordpools/wasnorm_wordpool_less_exclusions.txt	LTP278	ltpFR	1	16	-1	POOL	1103	n/a	n/a	-1	1.0	1.0	1	upper	Verdana.ttf
3121.804	n/a	WORD	1560902	wordpools/wasnorm_wordpool_less_exclusions.txt	LTP278	ltpFR	1	16	-1	WHIP	1604	n/a	n/a	-1	1.0	1.0	1	upper	Verdana.ttf
3125.748	n/a	WORD	1562874	wordpools/wasnorm_wordpool_less_exclusions.txt	LTP278	ltpFR	1	16	-1	HOSTESS	723	n/a	n/a	-1	1.0	1.0	1	upper	Verdana.ttf
3129.842	n/a	WORD	1564921	wordpools/wasnorm_wordpool_less_exclusions.txt	LTP278	ltpFR	1	16	-1	TROPHY	1509	n/a	n/a	-1	1.0	1.0	1	upper	Verdana.ttf
3133.804	n/a	WORD	1566902	wordpools/wasnorm_wordpool_less_exclusions.txt	LTP278	ltpFR	1	16	-1	FLESH	579	n/a	n/a	-1	1.0	1.0	1	upper	Verdana.ttf
3137.764	n/a	WORD	1568882	wordpools/wasnorm_wordpool_less_exclusions.txt	LTP278	ltpFR	1	16	-1	VELVET	1555	n/a	n/a	-1	1.0	1.0	1	upper	Verdana.ttf
3141.674	n/a	WORD	1570837	wordpools/wasnorm_wordpool_less_exclusions.txt	LTP278	ltpFR	1	16	-1	BREAD	170	n/a	n/a	-1	1.0	1.0	1	upper	Verdana.ttf
3145.686	n/a	WORD	1572843	wordpools/wasnorm_wordpool_less_exclusions.txt	LTP278	ltpFR	1	16	-1	COOKIE	374	n/a	n/a	-1	1.0	1.0	1	upper	Verdana.ttf
3151.478	n/a	REC_START	1575739	n/a	LTP278	ltpFR	1	16	n/a	n/a	n/a	n/a	n/a	n/a	n/a	n/a	n/a	n/a	n/a
3152.044	n/a	REC_WORD	1576022	wordpools/wasnorm_wordpool_less_exclusions.txt	LTP278	ltpFR	1	16	-1	COOKIE	374	n/a	n/a	-1	n/a	n/a	n/a	n/a	n/a
3153.474	n/a	REC_WORD	1576737	wordpools/wasnorm_wordpool_less_exclusions.txt	LTP278	ltpFR	1	16	-1	BAND	78	n/a	n/a	-1	n/a	n/a	n/a	n/a	n/a
3154.884	n/a	REC_WORD	1577442	wordpools/wasnorm_wordpool_less_exclusions.txt	LTP278	ltpFR	1	16	-1	BISON	131	n/a	n/a	-1	n/a	n/a	n/a	n/a	n/a
3156.17	n/a	REC_WORD	1578085	wordpools/wasnorm_wordpool_less_exclusions.txt	LTP278	ltpFR	1	16	-1	WHIP	1604	n/a	n/a	-1	n/a	n/a	n/a	n/a	n/a
3165.264	n/a	REC_WORD	1582632	wordpools/wasnorm_wordpool_less_exclusions.txt	LTP278	ltpFR	1	16	-1	ASHTRAY	45	n/a	n/a	-1	n/a	n/a	n/a	n/a	n/a
3201.154	n/a	REC_WORD	1600577	wordpools/wasnorm_wordpool_less_exclusions.txt	LTP278	ltpFR	1	16	-1	BISON	131	n/a	n/a	-1	n/a	n/a	n/a	n/a	n/a
3218.666	n/a	REC_WORD	1609333	wordpools/wasnorm_wordpool_less_exclusions.txt	LTP278	ltpFR	1	16	-1	HOSTESS	723	n/a	n/a	-1	n/a	n/a	n/a	n/a	n/a
3243.592	n/a	REC_START	1621796	n/a	LTP278	ltpFR	1	n/a	n/a	n/a	n/a	n/a	n/a	n/a	n/a	n/a	n/a	n/a	n/a
3245.786	n/a	FFR_REC_WORD	1622893	wordpools/wasnorm_wordpool_less_exclusions.txt	LTP278	ltpFR	1	n/a	-1	WHIP	1604	n/a	n/a	-1	n/a	n/a	n/a	n/a	n/a
3246.904	n/a	FFR_REC_WORD	1623452	wordpools/wasnorm_wordpool_less_exclusions.txt	LTP278	ltpFR	1	n/a	-1	MANSION	864	n/a	n/a	-1	n/a	n/a	n/a	n/a	n/a
3248.17	n/a	FFR_REC_WORD	1624085	wordpools/wasnorm_wordpool_less_exclusions.txt	LTP278	ltpFR	1	n/a	0	GOVERNOR	651	n/a	n/a	1	n/a	n/a	n/a	n/a	n/a
3249.234	n/a	FFR_REC_WORD	1624617	wordpools/wasnorm_wordpool_less_exclusions.txt	LTP278	ltpFR	1	n/a	-1	BISON	131	n/a	n/a	-1	n/a	n/a	n/a	n/a	n/a
3250.36	n/a	FFR_REC_WORD	1625180	wordpools/wasnorm_wordpool_less_exclusions.txt	LTP278	ltpFR	1	n/a	0	BEEF	113	n/a	n/a	1	n/a	n/a	n/a	n/a	n/a
3252.896	n/a	FFR_REC_WORD	1626448	wordpools/wasnorm_wordpool_less_exclusions.txt	LTP278	ltpFR	1	n/a	0	BUFFALO	186	n/a	n/a	1	n/a	n/a	n/a	n/a	n/a
3254.182	n/a	FFR_REC_WORD	1627091	wordpools/wasnorm_wordpool_less_exclusions.txt	LTP278	ltpFR	1	n/a	-1	ASHTRAY	45	n/a	n/a	-1	n/a	n/a	n/a	n/a	n/a
3255.264	n/a	FFR_REC_WORD	1627632	wordpools/wasnorm_wordpool_less_exclusions.txt	LTP278	ltpFR	1	n/a	0	CAULIFLOWER	262	n/a	n/a	0	n/a	n/a	n/a	n/a	n/a
3256.562	n/a	FFR_REC_WORD	1628281	wordpools/wasnorm_wordpool_less_exclusions.txt	LTP278	ltpFR	1	n/a	n/a	PLANE	1081	n/a	n/a	n/a	n/a	n/a	n/a	n/a	n/a
3258.488	n/a	FFR_REC_WORD	1629244	wordpools/wasnorm_wordpool_less_exclusions.txt	LTP278	ltpFR	1	n/a	0	AIRPLANE	12	n/a	n/a	1	n/a	n/a	n/a	n/a	n/a
3259.476	n/a	FFR_REC_WORD	1629738	wordpools/wasnorm_wordpool_less_exclusions.txt	LTP278	ltpFR	1	n/a	0	FLY	586	n/a	n/a	0	n/a	n/a	n/a	n/a	n/a
3262.584	n/a	FFR_REC_WORD	1631292	wordpools/wasnorm_wordpool_less_exclusions.txt	LTP278	ltpFR	1	n/a	1	RESTAURANT	1187	n/a	n/a	0	n/a	n/a	n/a	n/a	n/a
3265.352	n/a	FFR_REC_WORD	1632676	wordpools/wasnorm_wordpool_less_exclusions.txt	LTP278	ltpFR	1	n/a	0	FIG	563	n/a	n/a	1	n/a	n/a	n/a	n/a	n/a
3266.774	n/a	FFR_REC_WORD	1633387	wordpools/wasnorm_wordpool_less_exclusions.txt	LTP278	ltpFR	1	n/a	0	GOAT	644	n/a	n/a	1	n/a	n/a	n/a	n/a	n/a
3267.836	n/a	FFR_REC_WORD	1633918	wordpools/wasnorm_wordpool_less_exclusions.txt	LTP278	ltpFR	1	n/a	0	PEAR	1033	n/a	n/a	0	n/a	n/a	n/a	n/a	n/a
3268.968	n/a	FFR_REC_WORD	1634484	wordpools/wasnorm_wordpool_less_exclusions.txt	LTP278	ltpFR	1	n/a	0	PRUNE	1134	n/a	n/a	0	n/a	n/a	n/a	n/a	n/a
3272.136	n/a	FFR_REC_WORD	1636068	wordpools/wasnorm_wordpool_less_exclusions.txt	LTP278	ltpFR	1	n/a	0	JAW	751	n/a	n/a	0	n/a	n/a	n/a	n/a	n/a
3273.208	n/a	FFR_REC_WORD	1636604	wordpools/wasnorm_wordpool_less_exclusions.txt	LTP278	ltpFR	1	n/a	0	JAM	748	n/a	n/a	0	n/a	n/a	n/a	n/a	n/a
3280.532	n/a	FFR_REC_WORD	1640266	wordpools/wasnorm_wordpool_less_exclusions.txt	LTP278	ltpFR	1	n/a	0	OFFICE	972	n/a	n/a	1	n/a	n/a	n/a	n/a	n/a
3282.298	n/a	FFR_REC_WORD	1641149	wordpools/wasnorm_wordpool_less_exclusions.txt	LTP278	ltpFR	1	n/a	1	MECHANIC	884	n/a	n/a	1	n/a	n/a	n/a	n/a	n/a
3287.272	n/a	FFR_REC_WORD	1643636	wordpools/wasnorm_wordpool_less_exclusions.txt	LTP278	ltpFR	1	n/a	-1	HOSTESS	723	n/a	n/a	-1	n/a	n/a	n/a	n/a	n/a
3290.256	n/a	FFR_REC_WORD	1645128	wordpools/wasnorm_wordpool_less_exclusions.txt	LTP278	ltpFR	1	n/a	0	PORT	1110	n/a	n/a	0	n/a	n/a	n/a	n/a	n/a
3297.414	n/a	FFR_REC_WORD	1648707	wordpools/wasnorm_wordpool_less_exclusions.txt	LTP278	ltpFR	1	n/a	1	CHEST	295	n/a	n/a	0	n/a	n/a	n/a	n/a	n/a
3298.722	n/a	FFR_REC_WORD	1649361	wordpools/wasnorm_wordpool_less_exclusions.txt	LTP278	ltpFR	1	n/a	1	WHISKERS	1605	n/a	n/a	0	n/a	n/a	n/a	n/a	n/a
3299.722	n/a	FFR_REC_WORD_VV	1649861	wordpools/wasnorm_wordpool_less_exclusions.txt	LTP278	ltpFR	1	n/a	n/a	<>	-1	n/a	n/a	n/a	n/a	n/a	n/a	n/a	n/a
3304.134	n/a	FFR_REC_WORD	1652067	wordpools/wasnorm_wordpool_less_exclusions.txt	LTP278	ltpFR	1	n/a	-1	NIGHTGOWN	953	n/a	n/a	-1	n/a	n/a	n/a	n/a	n/a
3310.44	n/a	FFR_REC_WORD	1655220	wordpools/wasnorm_wordpool_less_exclusions.txt	LTP278	ltpFR	1	n/a	0	PURSE	1145	n/a	n/a	1	n/a	n/a	n/a	n/a	n/a
3311.898	n/a	FFR_REC_WORD	1655949	wordpools/wasnorm_wordpool_less_exclusions.txt	LTP278	ltpFR	1	n/a	1	HAT	690	n/a	n/a	0	n/a	n/a	n/a	n/a	n/a
3313.0	n/a	FFR_REC_WORD	1656500	wordpools/wasnorm_wordpool_less_exclusions.txt	LTP278	ltpFR	1	n/a	1	CONCRETE	361	n/a	n/a	0	n/a	n/a	n/a	n/a	n/a
3313.972	n/a	FFR_REC_WORD	1656986	wordpools/wasnorm_wordpool_less_exclusions.txt	LTP278	ltpFR	1	n/a	1	GRAVEL	659	n/a	n/a	0	n/a	n/a	n/a	n/a	n/a
3315.004	n/a	FFR_REC_WORD	1657502	wordpools/wasnorm_wordpool_less_exclusions.txt	LTP278	ltpFR	1	n/a	1	TAR	1435	n/a	n/a	0	n/a	n/a	n/a	n/a	n/a
3315.844	n/a	FFR_REC_WORD	1657922	wordpools/wasnorm_wordpool_less_exclusions.txt	LTP278	ltpFR	1	n/a	1	REFRIGERATOR	1179	n/a	n/a	0	n/a	n/a	n/a	n/a	n/a
3317.056	n/a	FFR_REC_WORD	1658528	wordpools/wasnorm_wordpool_less_exclusions.txt	LTP278	ltpFR	1	n/a	0	BULL	193	n/a	n/a	1	n/a	n/a	n/a	n/a	n/a
3318.508	n/a	FFR_REC_WORD	1659254	wordpools/wasnorm_wordpool_less_exclusions.txt	LTP278	ltpFR	1	n/a	1	GROCERIES	663	n/a	n/a	0	n/a	n/a	n/a	n/a	n/a
3321.354	n/a	FFR_REC_WORD	1660677	wordpools/wasnorm_wordpool_less_exclusions.txt	LTP278	ltpFR	1	n/a	1	LAKE	796	n/a	n/a	0	n/a	n/a	n/a	n/a	n/a
3322.648	n/a	FFR_REC_WORD	1661324	wordpools/wasnorm_wordpool_less_exclusions.txt	LTP278	ltpFR	1	n/a	-1	SKATE	1313	n/a	n/a	-1	n/a	n/a	n/a	n/a	n/a
3327.452	n/a	FFR_REC_WORD	1663726	wordpools/wasnorm_wordpool_less_exclusions.txt	LTP278	ltpFR	1	n/a	-1	JUPITER	765	n/a	n/a	-1	n/a	n/a	n/a	n/a	n/a
3331.672	n/a	FFR_REC_WORD	1665836	wordpools/wasnorm_wordpool_less_exclusions.txt	LTP278	ltpFR	1	n/a	1	UNIVERSE	1540	n/a	n/a	1	n/a	n/a	n/a	n/a	n/a
3332.592	n/a	FFR_REC_WORD	1666296	wordpools/wasnorm_wordpool_less_exclusions.txt	LTP278	ltpFR	1	n/a	1	GALAXY	617	n/a	n/a	0	n/a	n/a	n/a	n/a	n/a
3333.558	n/a	FFR_REC_WORD	1666779	wordpools/wasnorm_wordpool_less_exclusions.txt	LTP278	ltpFR	1	n/a	1	UNIVERSE	1540	n/a	n/a	1	n/a	n/a	n/a	n/a	n/a
3334.5	n/a	FFR_REC_WORD	1667250	wordpools/wasnorm_wordpool_less_exclusions.txt	LTP278	ltpFR	1	n/a	n/a	GLOBE	641	n/a	n/a	n/a	n/a	n/a	n/a	n/a	n/a
3337.28	n/a	FFR_REC_WORD	1668640	wordpools/wasnorm_wordpool_less_exclusions.txt	LTP278	ltpFR	1	n/a	1	WORLD	1622	n/a	n/a	1	n/a	n/a	n/a	n/a	n/a
3343.754	n/a	FFR_REC_WORD	1671877	wordpools/wasnorm_wordpool_less_exclusions.txt	LTP278	ltpFR	1	n/a	1	SPOON	1357	n/a	n/a	0	n/a	n/a	n/a	n/a	n/a
3344.822	n/a	FFR_REC_WORD	1672411	wordpools/wasnorm_wordpool_less_exclusions.txt	LTP278	ltpFR	1	n/a	1	FORK	594	n/a	n/a	0	n/a	n/a	n/a	n/a	n/a
3347.916	n/a	FFR_REC_WORD	1673958	wordpools/wasnorm_wordpool_less_exclusions.txt	LTP278	ltpFR	1	n/a	0	RIVER	1194	n/a	n/a	1	n/a	n/a	n/a	n/a	n/a
3348.874	n/a	FFR_REC_WORD	1674437	wordpools/wasnorm_wordpool_less_exclusions.txt	LTP278	ltpFR	1	n/a	1	BROOK	177	n/a	n/a	0	n/a	n/a	n/a	n/a	n/a
3349.656	n/a	FFR_REC_WORD	1674828	wordpools/wasnorm_wordpool_less_exclusions.txt	LTP278	ltpFR	1	n/a	0	CREEK	404	n/a	n/a	1	n/a	n/a	n/a	n/a	n/a
3357.494	n/a	FFR_REC_WORD	1678747	wordpools/wasnorm_wordpool_less_exclusions.txt	LTP278	ltpFR	1	n/a	-1	ARM	38	n/a	n/a	-1	n/a	n/a	n/a	n/a	n/a
3358.238	n/a	FFR_REC_WORD	1679119	wordpools/wasnorm_wordpool_less_exclusions.txt	LTP278	ltpFR	1	n/a	-1	SLEEVE	1324	n/a	n/a	-1	n/a	n/a	n/a	n/a	n/a
3359.38	n/a	FFR_REC_WORD	1679690	wordpools/wasnorm_wordpool_less_exclusions.txt	LTP278	ltpFR	1	n/a	-1	AUDIENCE	59	n/a	n/a	-1	n/a	n/a	n/a	n/a	n/a
3360.442	n/a	FFR_REC_WORD	1680221	wordpools/wasnorm_wordpool_less_exclusions.txt	LTP278	ltpFR	1	n/a	-1	PEOPLE	1046	n/a	n/a	-1	n/a	n/a	n/a	n/a	n/a
3362.728	n/a	FFR_REC_WORD	1681364	wordpools/wasnorm_wordpool_less_exclusions.txt	LTP278	ltpFR	1	n/a	n/a	FINGER	567	n/a	n/a	n/a	n/a	n/a	n/a	n/a	n/a
3363.636	n/a	FFR_REC_WORD	1681818	wordpools/wasnorm_wordpool_less_exclusions.txt	LTP278	ltpFR	1	n/a	0	HAND	683	n/a	n/a	0	n/a	n/a	n/a	n/a	n/a
3364.634	n/a	FFR_REC_WORD	1682317	wordpools/wasnorm_wordpool_less_exclusions.txt	LTP278	ltpFR	1	n/a	0	NAIL	936	n/a	n/a	0	n/a	n/a	n/a	n/a	n/a
3368.126	n/a	FFR_REC_WORD	1684063	wordpools/wasnorm_wordpool_less_exclusions.txt	LTP278	ltpFR	1	n/a	n/a	OTTER	986	n/a	n/a	n/a	n/a	n/a	n/a	n/a	n/a
3370.056	n/a	FFR_REC_WORD	1685028	wordpools/wasnorm_wordpool_less_exclusions.txt	LTP278	ltpFR	1	n/a	-1	TROPHY	1509	n/a	n/a	-1	n/a	n/a	n/a	n/a	n/a
3375.014	n/a	FFR_REC_WORD	1687507	wordpools/wasnorm_wordpool_less_exclusions.txt	LTP278	ltpFR	1	n/a	1	CHICK	296	n/a	n/a	1	n/a	n/a	n/a	n/a	n/a
3376.67	n/a	FFR_REC_WORD	1688335	wordpools/wasnorm_wordpool_less_exclusions.txt	LTP278	ltpFR	1	n/a	-1	CHIP	303	n/a	n/a	-1	n/a	n/a	n/a	n/a	n/a
3382.412	n/a	FFR_REC_WORD	1691206	wordpools/wasnorm_wordpool_less_exclusions.txt	LTP278	ltpFR	1	n/a	0	CHIME	300	n/a	n/a	0	n/a	n/a	n/a	n/a	n/a
3413.188	n/a	FFR_REC_WORD	1706594	wordpools/wasnorm_wordpool_less_exclusions.txt	LTP278	ltpFR	1	n/a	0	CONSUMER	365	n/a	n/a	1	n/a	n/a	n/a	n/a	n/a
3417.208	n/a	FFR_REC_WORD	1708604	wordpools/wasnorm_wordpool_less_exclusions.txt	LTP278	ltpFR	1	n/a	1	FOLLOWER	589	n/a	n/a	1	n/a	n/a	n/a	n/a	n/a
3439.868	n/a	FFR_REC_WORD	1719934	wordpools/wasnorm_wordpool_less_exclusions.txt	LTP278	ltpFR	1	n/a	1	SPINACH	1352	n/a	n/a	1	n/a	n/a	n/a	n/a	n/a
3459.454	n/a	FFR_REC_WORD	1729727	wordpools/wasnorm_wordpool_less_exclusions.txt	LTP278	ltpFR	1	n/a	1	DANCER	437	n/a	n/a	1	n/a	n/a	n/a	n/a	n/a
3488.658	n/a	FFR_REC_WORD	1744329	wordpools/wasnorm_wordpool_less_exclusions.txt	LTP278	ltpFR	1	n/a	-1	DRESSER	496	n/a	n/a	-1	n/a	n/a	n/a	n/a	n/a
3492.664	n/a	FFR_REC_WORD	1746332	wordpools/wasnorm_wordpool_less_exclusions.txt	LTP278	ltpFR	1	n/a	-1	ACROBAT	4	n/a	n/a	-1	n/a	n/a	n/a	n/a	n/a
3499.454	n/a	FFR_REC_WORD	1749727	wordpools/wasnorm_wordpool_less_exclusions.txt	LTP278	ltpFR	1	n/a	n/a	MOWER	928	n/a	n/a	n/a	n/a	n/a	n/a	n/a	n/a
3501.154	n/a	FFR_REC_WORD	1750577	wordpools/wasnorm_wordpool_less_exclusions.txt	LTP278	ltpFR	1	n/a	1	MOTOR	922	n/a	n/a	0	n/a	n/a	n/a	n/a	n/a
3505.824	n/a	FFR_REC_WORD	1752912	wordpools/wasnorm_wordpool_less_exclusions.txt	LTP278	ltpFR	1	n/a	1	POT	1114	n/a	n/a	1	n/a	n/a	n/a	n/a	n/a
3506.608	n/a	FFR_REC_WORD	1753304	wordpools/wasnorm_wordpool_less_exclusions.txt	LTP278	ltpFR	1	n/a	1	SKILLET	1317	n/a	n/a	0	n/a	n/a	n/a	n/a	n/a
3530.418	n/a	FFR_REC_WORD	1765209	wordpools/wasnorm_wordpool_less_exclusions.txt	LTP278	ltpFR	1	n/a	0	THIMBLE	1458	n/a	n/a	0	n/a	n/a	n/a	n/a	n/a
3536.898	n/a	FFR_REC_WORD_VV	1768449	wordpools/wasnorm_wordpool_less_exclusions.txt	LTP278	ltpFR	1	n/a	n/a	<>	-1	n/a	n/a	n/a	n/a	n/a	n/a	n/a	n/a
3845.32	n/a	REC_START	1922660	n/a	LTP278	ltpFR	1	1	n/a	n/a	n/a	n/a	n/a	n/a	n/a	n/a	n/a	n/a	n/a
3845.352	n/a	RECOG_TARGET	1922676	n/a	LTP278	ltpFR	1	1	1	BASEBALL	93	1	5	0	n/a	n/a	n/a	n/a	n/a
3846.73	n/a	RECOG_RESP	1923365	n/a	LTP278	ltpFR	1	1	1	BASEBALL	93	1	n/a	0	n/a	n/a	n/a	n/a	n/a
3850.23	n/a	RECOG_CONF	1925115	n/a	LTP278	ltpFR	1	1	1	BASEBALL	93	n/a	5	0	n/a	n/a	n/a	n/a	n/a
3852.408	n/a	RECOG_TARGET	1926204	n/a	LTP278	ltpFR	1	1	-1	UNCLE	1536	1	5	-1	n/a	n/a	n/a	n/a	n/a
3853.224	n/a	RECOG_RESP	1926612	n/a	LTP278	ltpFR	1	1	-1	UNCLE	1536	1	n/a	-1	n/a	n/a	n/a	n/a	n/a
3854.41	n/a	RECOG_CONF	1927205	n/a	LTP278	ltpFR	1	1	-1	UNCLE	1536	n/a	5	-1	n/a	n/a	n/a	n/a	n/a
3856.452	n/a	RECOG_TARGET	1928226	n/a	LTP278	ltpFR	1	1	0	DRIVER	499	0	1	1	n/a	n/a	n/a	n/a	n/a
3857.76	n/a	RECOG_RESP	1928880	n/a	LTP278	ltpFR	1	1	0	DRIVER	499	0	n/a	1	n/a	n/a	n/a	n/a	n/a
3858.94	n/a	RECOG_CONF	1929470	n/a	LTP278	ltpFR	1	1	0	DRIVER	499	n/a	1	1	n/a	n/a	n/a	n/a	n/a
3861.028	n/a	RECOG_TARGET	1930514	n/a	LTP278	ltpFR	1	1	0	BEEF	113	1	4	1	n/a	n/a	n/a	n/a	n/a
3861.74	n/a	RECOG_RESP	1930870	n/a	LTP278	ltpFR	1	1	0	BEEF	113	1	n/a	1	n/a	n/a	n/a	n/a	n/a
3862.66	n/a	RECOG_CONF	1931330	n/a	LTP278	ltpFR	1	1	0	BEEF	113	n/a	4	1	n/a	n/a	n/a	n/a	n/a
3864.606	n/a	RECOG_TARGET	1932303	n/a	LTP278	ltpFR	1	1	-1	ASHTRAY	45	1	5	-1	n/a	n/a	n/a	n/a	n/a
3865.234	n/a	RECOG_RESP	1932617	n/a	LTP278	ltpFR	1	1	-1	ASHTRAY	45	1	n/a	-1	n/a	n/a	n/a	n/a	n/a
3866.21	n/a	RECOG_CONF	1933105	n/a	LTP278	ltpFR	1	1	-1	ASHTRAY	45	n/a	5	-1	n/a	n/a	n/a	n/a	n/a
3868.15	n/a	RECOG_TARGET	1934075	n/a	LTP278	ltpFR	1	1	0	LAUNDRY	803	1	2	1	n/a	n/a	n/a	n/a	n/a
3869.31	n/a	RECOG_RESP	1934655	n/a	LTP278	ltpFR	1	1	0	LAUNDRY	803	1	n/a	1	n/a	n/a	n/a	n/a	n/a
3870.38	n/a	RECOG_CONF	1935190	n/a	LTP278	ltpFR	1	1	0	LAUNDRY	803	n/a	2	1	n/a	n/a	n/a	n/a	n/a
3872.294	n/a	RECOG_TARGET	1936147	n/a	LTP278	ltpFR	1	1	1	BROTHER	179	1	1	1	n/a	n/a	n/a	n/a	n/a
3873.43	n/a	RECOG_RESP	1936715	n/a	LTP278	ltpFR	1	1	1	BROTHER	179	1	n/a	1	n/a	n/a	n/a	n/a	n/a
3874.37	n/a	RECOG_CONF	1937185	n/a	LTP278	ltpFR	1	1	1	BROTHER	179	n/a	1	1	n/a	n/a	n/a	n/a	n/a
3876.388	n/a	RECOG_LURE	1938194	n/a	LTP278	ltpFR	1	1	n/a	HUT	729	0	1	n/a	n/a	n/a	n/a	n/a	n/a
3877.56	n/a	RECOG_RESP	1938780	n/a	LTP278	ltpFR	1	1	n/a	HUT	729	0	n/a	n/a	n/a	n/a	n/a	n/a	n/a
3878.57	n/a	RECOG_CONF	1939285	n/a	LTP278	ltpFR	1	1	n/a	HUT	729	n/a	1	n/a	n/a	n/a	n/a	n/a	n/a
3880.4	n/a	RECOG_TARGET	1940200	n/a	LTP278	ltpFR	1	1	0	XEROX	1628	0	2	0	n/a	n/a	n/a	n/a	n/a
3881.864	n/a	RECOG_RESP	1940932	n/a	LTP278	ltpFR	1	1	0	XEROX	1628	0	n/a	0	n/a	n/a	n/a	n/a	n/a
3883.41	n/a	RECOG_CONF	1941705	n/a	LTP278	ltpFR	1	1	0	XEROX	1628	n/a	2	0	n/a	n/a	n/a	n/a	n/a
3885.558	n/a	RECOG_LURE	1942779	n/a	LTP278	ltpFR	1	1	n/a	TREAD	1499	0	3	n/a	n/a	n/a	n/a	n/a	n/a
3886.704	n/a	RECOG_RESP	1943352	n/a	LTP278	ltpFR	1	1	n/a	TREAD	1499	0	n/a	n/a	n/a	n/a	n/a	n/a	n/a
3887.99	n/a	RECOG_CONF	1943995	n/a	LTP278	ltpFR	1	1	n/a	TREAD	1499	n/a	3	n/a	n/a	n/a	n/a	n/a	n/a
3890.002	n/a	RECOG_TARGET	1945001	n/a	LTP278	ltpFR	1	1	1	DISHWASHER	475	1	5	0	n/a	n/a	n/a	n/a	n/a
3890.816	n/a	RECOG_RESP	1945408	n/a	LTP278	ltpFR	1	1	1	DISHWASHER	475	1	n/a	0	n/a	n/a	n/a	n/a	n/a
3891.65	n/a	RECOG_CONF	1945825	n/a	LTP278	ltpFR	1	1	1	DISHWASHER	475	n/a	5	0	n/a	n/a	n/a	n/a	n/a
3893.598	n/a	RECOG_TARGET	1946799	n/a	LTP278	ltpFR	1	1	0	DISH	474	1	5	0	n/a	n/a	n/a	n/a	n/a
3894.416	n/a	RECOG_RESP	1947208	n/a	LTP278	ltpFR	1	1	0	DISH	474	1	n/a	0	n/a	n/a	n/a	n/a	n/a
3895.33	n/a	RECOG_CONF	1947665	n/a	LTP278	ltpFR	1	1	0	DISH	474	n/a	5	0	n/a	n/a	n/a	n/a	n/a
3897.158	n/a	RECOG_TARGET	1948579	n/a	LTP278	ltpFR	1	1	-1	ARM	38	1	4	-1	n/a	n/a	n/a	n/a	n/a
3897.896	n/a	RECOG_RESP	1948948	n/a	LTP278	ltpFR	1	1	-1	ARM	38	1	n/a	-1	n/a	n/a	n/a	n/a	n/a
3898.79	n/a	RECOG_CONF	1949395	n/a	LTP278	ltpFR	1	1	-1	ARM	38	n/a	4	-1	n/a	n/a	n/a	n/a	n/a
3900.802	n/a	RECOG_TARGET	1950401	n/a	LTP278	ltpFR	1	1	-1	BENCH	121	0	1	-1	n/a	n/a	n/a	n/a	n/a
3902.49	n/a	RECOG_RESP	1951245	n/a	LTP278	ltpFR	1	1	-1	BENCH	121	0	n/a	-1	n/a	n/a	n/a	n/a	n/a
3903.4	n/a	RECOG_CONF	1951700	n/a	LTP278	ltpFR	1	1	-1	BENCH	121	n/a	1	-1	n/a	n/a	n/a	n/a	n/a
3905.246	n/a	RECOG_LURE	1952623	n/a	LTP278	ltpFR	1	1	n/a	WITCH	1617	1	1	n/a	n/a	n/a	n/a	n/a	n/a
3907.686	n/a	RECOG_RESP	1953843	n/a	LTP278	ltpFR	1	1	n/a	WITCH	1617	1	n/a	n/a	n/a	n/a	n/a	n/a	n/a
3908.72	n/a	RECOG_CONF	1954360	n/a	LTP278	ltpFR	1	1	n/a	WITCH	1617	n/a	1	n/a	n/a	n/a	n/a	n/a	n/a
3910.704	n/a	RECOG_LURE	1955352	n/a	LTP278	ltpFR	1	1	n/a	OATS	968	1	1	n/a	n/a	n/a	n/a	n/a	n/a
3911.72	n/a	RECOG_RESP	1955860	n/a	LTP278	ltpFR	1	1	n/a	OATS	968	1	n/a	n/a	n/a	n/a	n/a	n/a	n/a
3912.6	n/a	RECOG_CONF	1956300	n/a	LTP278	ltpFR	1	1	n/a	OATS	968	n/a	1	n/a	n/a	n/a	n/a	n/a	n/a
3914.482	n/a	RECOG_TARGET	1957241	n/a	LTP278	ltpFR	1	1	1	PACKAGE	997	1	3	0	n/a	n/a	n/a	n/a	n/a
3915.576	n/a	RECOG_RESP	1957788	n/a	LTP278	ltpFR	1	1	1	PACKAGE	997	1	n/a	0	n/a	n/a	n/a	n/a	n/a
3916.44	n/a	RECOG_CONF	1958220	n/a	LTP278	ltpFR	1	1	1	PACKAGE	997	n/a	3	0	n/a	n/a	n/a	n/a	n/a
3918.394	n/a	RECOG_TARGET	1959197	n/a	LTP278	ltpFR	1	1	0	POSTAGE	1113	1	4	1	n/a	n/a	n/a	n/a	n/a
3919.17	n/a	RECOG_RESP	1959585	n/a	LTP278	ltpFR	1	1	0	POSTAGE	1113	1	n/a	1	n/a	n/a	n/a	n/a	n/a
3920.01	n/a	RECOG_CONF	1960005	n/a	LTP278	ltpFR	1	1	0	POSTAGE	1113	n/a	4	1	n/a	n/a	n/a	n/a	n/a
3921.904	n/a	RECOG_LURE	1960952	n/a	LTP278	ltpFR	1	1	n/a	SALMON	1227	1	1	n/a	n/a	n/a	n/a	n/a	n/a
3922.576	n/a	RECOG_RESP	1961288	n/a	LTP278	ltpFR	1	1	n/a	SALMON	1227	1	n/a	n/a	n/a	n/a	n/a	n/a	n/a
3924.36	n/a	RECOG_CONF	1962180	n/a	LTP278	ltpFR	1	1	n/a	SALMON	1227	n/a	1	n/a	n/a	n/a	n/a	n/a	n/a
3926.098	n/a	RECOG_TARGET	1963049	n/a	LTP278	ltpFR	1	1	-1	HEDGE	699	1	4	-1	n/a	n/a	n/a	n/a	n/a
3928.18	n/a	RECOG_RESP	1964090	n/a	LTP278	ltpFR	1	1	-1	HEDGE	699	1	n/a	-1	n/a	n/a	n/a	n/a	n/a
3929.2	n/a	RECOG_CONF	1964600	n/a	LTP278	ltpFR	1	1	-1	HEDGE	699	n/a	4	-1	n/a	n/a	n/a	n/a	n/a
3935.174	n/a	REC_START	1967587	n/a	LTP278	ltpFR	1	2	n/a	n/a	n/a	n/a	n/a	n/a	n/a	n/a	n/a	n/a	n/a
3935.202	n/a	RECOG_TARGET	1967601	n/a	LTP278	ltpFR	1	2	0	RAZOR	1171	1	2	0	n/a	n/a	n/a	n/a	n/a
3936.914	n/a	RECOG_RESP	1968457	n/a	LTP278	ltpFR	1	2	0	RAZOR	1171	1	n/a	0	n/a	n/a	n/a	n/a	n/a
3938.664	n/a	RECOG_CONF	1969332	n/a	LTP278	ltpFR	1	2	0	RAZOR	1171	n/a	2	0	n/a	n/a	n/a	n/a	n/a
3940.526	n/a	RECOG_TARGET	1970263	n/a	LTP278	ltpFR	1	2	-1	DRILL	497	1	5	-1	n/a	n/a	n/a	n/a	n/a
3941.374	n/a	RECOG_RESP	1970687	n/a	LTP278	ltpFR	1	2	-1	DRILL	497	1	n/a	-1	n/a	n/a	n/a	n/a	n/a
3942.304	n/a	RECOG_CONF	1971152	n/a	LTP278	ltpFR	1	2	-1	DRILL	497	n/a	5	-1	n/a	n/a	n/a	n/a	n/a
3944.52	n/a	RECOG_TARGET	1972260	n/a	LTP278	ltpFR	1	2	-1	CANVAS	234	1	1	-1	n/a	n/a	n/a	n/a	n/a
3945.914	n/a	RECOG_RESP	1972957	n/a	LTP278	ltpFR	1	2	-1	CANVAS	234	1	n/a	-1	n/a	n/a	n/a	n/a	n/a
3946.894	n/a	RECOG_CONF	1973447	n/a	LTP278	ltpFR	1	2	-1	CANVAS	234	n/a	1	-1	n/a	n/a	n/a	n/a	n/a
3948.798	n/a	RECOG_LURE	1974399	n/a	LTP278	ltpFR	1	2	n/a	COLOGNE	347	0	5	n/a	n/a	n/a	n/a	n/a	n/a
3949.838	n/a	RECOG_RESP	1974919	n/a	LTP278	ltpFR	1	2	n/a	COLOGNE	347	0	n/a	n/a	n/a	n/a	n/a	n/a	n/a
3950.904	n/a	RECOG_CONF	1975452	n/a	LTP278	ltpFR	1	2	n/a	COLOGNE	347	n/a	5	n/a	n/a	n/a	n/a	n/a	n/a
3952.958	n/a	RECOG_TARGET	1976479	n/a	LTP278	ltpFR	1	2	1	RACCOON	1153	1	3	1	n/a	n/a	n/a	n/a	n/a
3953.868	n/a	RECOG_RESP	1976934	n/a	LTP278	ltpFR	1	2	1	RACCOON	1153	1	n/a	1	n/a	n/a	n/a	n/a	n/a
3954.804	n/a	RECOG_CONF	1977402	n/a	LTP278	ltpFR	1	2	1	RACCOON	1153	n/a	3	1	n/a	n/a	n/a	n/a	n/a
3956.588	n/a	RECOG_TARGET	1978294	n/a	LTP278	ltpFR	1	2	1	POT	1114	1	5	1	n/a	n/a	n/a	n/a	n/a
3957.47	n/a	RECOG_RESP	1978735	n/a	LTP278	ltpFR	1	2	1	POT	1114	1	n/a	1	n/a	n/a	n/a	n/a	n/a
3958.454	n/a	RECOG_CONF	1979227	n/a	LTP278	ltpFR	1	2	1	POT	1114	n/a	5	1	n/a	n/a	n/a	n/a	n/a
3960.532	n/a	RECOG_TARGET	1980266	n/a	LTP278	ltpFR	1	2	1	TERMITE	1451	1	4	1	n/a	n/a	n/a	n/a	n/a
3961.28	n/a	RECOG_RESP	1980640	n/a	LTP278	ltpFR	1	2	1	TERMITE	1451	1	n/a	1	n/a	n/a	n/a	n/a	n/a
3962.164	n/a	RECOG_CONF	1981082	n/a	LTP278	ltpFR	1	2	1	TERMITE	1451	n/a	4	1	n/a	n/a	n/a	n/a	n/a
3964.092	n/a	RECOG_TARGET	1982046	n/a	LTP278	ltpFR	1	2	1	SPOON	1357	1	5	0	n/a	n/a	n/a	n/a	n/a
3964.73	n/a	RECOG_RESP	1982365	n/a	LTP278	ltpFR	1	2	1	SPOON	1357	1	n/a	0	n/a	n/a	n/a	n/a	n/a
3965.564	n/a	RECOG_CONF	1982782	n/a	LTP278	ltpFR	1	2	1	SPOON	1357	n/a	5	0	n/a	n/a	n/a	n/a	n/a
3967.522	n/a	RECOG_TARGET	1983761	n/a	LTP278	ltpFR	1	2	0	STEWARDESS	1381	1	5	1	n/a	n/a	n/a	n/a	n/a
3968.344	n/a	RECOG_RESP	1984172	n/a	LTP278	ltpFR	1	2	0	STEWARDESS	1381	1	n/a	1	n/a	n/a	n/a	n/a	n/a
3969.254	n/a	RECOG_CONF	1984627	n/a	LTP278	ltpFR	1	2	0	STEWARDESS	1381	n/a	5	1	n/a	n/a	n/a	n/a	n/a
3971.032	n/a	RECOG_TARGET	1985516	n/a	LTP278	ltpFR	1	2	-1	BREAD	170	0	3	-1	n/a	n/a	n/a	n/a	n/a
3971.794	n/a	RECOG_RESP	1985897	n/a	LTP278	ltpFR	1	2	-1	BREAD	170	0	n/a	-1	n/a	n/a	n/a	n/a	n/a
3972.704	n/a	RECOG_CONF	1986352	n/a	LTP278	ltpFR	1	2	-1	BREAD	170	n/a	3	-1	n/a	n/a	n/a	n/a	n/a
3974.494	n/a	RECOG_TARGET	1987247	n/a	LTP278	ltpFR	1	2	1	BOUILLON	154	1	5	0	n/a	n/a	n/a	n/a	n/a
3975.43	n/a	RECOG_RESP	1987715	n/a	LTP278	ltpFR	1	2	1	BOUILLON	154	1	n/a	0	n/a	n/a	n/a	n/a	n/a
3976.274	n/a	RECOG_CONF	1988137	n/a	LTP278	ltpFR	1	2	1	BOUILLON	154	n/a	5	0	n/a	n/a	n/a	n/a	n/a
3978.272	n/a	RECOG_TARGET	1989136	n/a	LTP278	ltpFR	1	2	0	DIGGER	464	1	3	0	n/a	n/a	n/a	n/a	n/a
3979.24	n/a	RECOG_RESP	1989620	n/a	LTP278	ltpFR	1	2	0	DIGGER	464	1	n/a	0	n/a	n/a	n/a	n/a	n/a
3980.144	n/a	RECOG_CONF	1990072	n/a	LTP278	ltpFR	1	2	0	DIGGER	464	n/a	3	0	n/a	n/a	n/a	n/a	n/a
3982.084	n/a	RECOG_TARGET	1991042	n/a	LTP278	ltpFR	1	2	0	BAIT	70	1	2	0	n/a	n/a	n/a	n/a	n/a
3983.104	n/a	RECOG_RESP	1991552	n/a	LTP278	ltpFR	1	2	0	BAIT	70	1	n/a	0	n/a	n/a	n/a	n/a	n/a
3984.194	n/a	RECOG_CONF	1992097	n/a	LTP278	ltpFR	1	2	0	BAIT	70	n/a	2	0	n/a	n/a	n/a	n/a	n/a
3986.16	n/a	RECOG_LURE	1993080	n/a	LTP278	ltpFR	1	2	n/a	REPORT	1184	1	1	n/a	n/a	n/a	n/a	n/a	n/a
3986.67	n/a	RECOG_RESP	1993335	n/a	LTP278	ltpFR	1	2	n/a	REPORT	1184	1	n/a	n/a	n/a	n/a	n/a	n/a	n/a
3989.124	n/a	RECOG_CONF	1994562	n/a	LTP278	ltpFR	1	2	n/a	REPORT	1184	n/a	1	n/a	n/a	n/a	n/a	n/a	n/a
3991.02	n/a	RECOG_TARGET	1995510	n/a	LTP278	ltpFR	1	2	0	VISITOR	1573	1	3	1	n/a	n/a	n/a	n/a	n/a
3992.194	n/a	RECOG_RESP	1996097	n/a	LTP278	ltpFR	1	2	0	VISITOR	1573	1	n/a	1	n/a	n/a	n/a	n/a	n/a
3993.694	n/a	RECOG_CONF	1996847	n/a	LTP278	ltpFR	1	2	0	VISITOR	1573	n/a	3	1	n/a	n/a	n/a	n/a	n/a
3995.712	n/a	RECOG_TARGET	1997856	n/a	LTP278	ltpFR	1	2	-1	MANSION	864	1	5	-1	n/a	n/a	n/a	n/a	n/a
3996.634	n/a	RECOG_RESP	1998317	n/a	LTP278	ltpFR	1	2	-1	MANSION	864	1	n/a	-1	n/a	n/a	n/a	n/a	n/a
3997.614	n/a	RECOG_CONF	1998807	n/a	LTP278	ltpFR	1	2	-1	MANSION	864	n/a	5	-1	n/a	n/a	n/a	n/a	n/a
3999.59	n/a	RECOG_TARGET	1999795	n/a	LTP278	ltpFR	1	2	-1	LASER	801	1	5	-1	n/a	n/a	n/a	n/a	n/a
4000.3	n/a	RECOG_RESP	2000150	n/a	LTP278	ltpFR	1	2	-1	LASER	801	1	n/a	-1	n/a	n/a	n/a	n/a	n/a
4001.194	n/a	RECOG_CONF	2000597	n/a	LTP278	ltpFR	1	2	-1	LASER	801	n/a	5	-1	n/a	n/a	n/a	n/a	n/a
4002.984	n/a	RECOG_LURE	2001492	n/a	LTP278	ltpFR	1	2	n/a	YOKE	1632	0	5	n/a	n/a	n/a	n/a	n/a	n/a
4003.97	n/a	RECOG_RESP	2001985	n/a	LTP278	ltpFR	1	2	n/a	YOKE	1632	0	n/a	n/a	n/a	n/a	n/a	n/a	n/a
4005.164	n/a	RECOG_CONF	2002582	n/a	LTP278	ltpFR	1	2	n/a	YOKE	1632	n/a	5	n/a	n/a	n/a	n/a	n/a	n/a
4007.244	n/a	RECOG_TARGET	2003622	n/a	LTP278	ltpFR	1	2	0	OINTMENT	974	1	5	0	n/a	n/a	n/a	n/a	n/a
4008.124	n/a	RECOG_RESP	2004062	n/a	LTP278	ltpFR	1	2	0	OINTMENT	974	1	n/a	0	n/a	n/a	n/a	n/a	n/a
4009.014	n/a	RECOG_CONF	2004507	n/a	LTP278	ltpFR	1	2	0	OINTMENT	974	n/a	5	0	n/a	n/a	n/a	n/a	n/a
4010.872	n/a	RECOG_LURE	2005436	n/a	LTP278	ltpFR	1	2	n/a	TICKET	1464	0	2	n/a	n/a	n/a	n/a	n/a	n/a
4011.694	n/a	RECOG_RESP	2005847	n/a	LTP278	ltpFR	1	2	n/a	TICKET	1464	0	n/a	n/a	n/a	n/a	n/a	n/a	n/a
4012.654	n/a	RECOG_CONF	2006327	n/a	LTP278	ltpFR	1	2	n/a	TICKET	1464	n/a	2	n/a	n/a	n/a	n/a	n/a	n/a
4016.398	n/a	REC_START	2008199	n/a	LTP278	ltpFR	1	3	n/a	n/a	n/a	n/a	n/a	n/a	n/a	n/a	n/a	n/a	n/a
4016.432	n/a	RECOG_TARGET	2008216	n/a	LTP278	ltpFR	1	3	1	SEAFOOD	1260	1	5	1	n/a	n/a	n/a	n/a	n/a
4017.222	n/a	RECOG_RESP	2008611	n/a	LTP278	ltpFR	1	3	1	SEAFOOD	1260	1	n/a	1	n/a	n/a	n/a	n/a	n/a
4018.148	n/a	RECOG_CONF	2009074	n/a	LTP278	ltpFR	1	3	1	SEAFOOD	1260	n/a	5	1	n/a	n/a	n/a	n/a	n/a
4019.992	n/a	RECOG_TARGET	2009996	n/a	LTP278	ltpFR	1	3	1	FORK	594	1	5	0	n/a	n/a	n/a	n/a	n/a
4021.018	n/a	RECOG_RESP	2010509	n/a	LTP278	ltpFR	1	3	1	FORK	594	1	n/a	0	n/a	n/a	n/a	n/a	n/a
4021.928	n/a	RECOG_CONF	2010964	n/a	LTP278	ltpFR	1	3	1	FORK	594	n/a	5	0	n/a	n/a	n/a	n/a	n/a
4023.738	n/a	RECOG_TARGET	2011869	n/a	LTP278	ltpFR	1	3	1	ORNAMENT	985	1	2	0	n/a	n/a	n/a	n/a	n/a
4025.018	n/a	RECOG_RESP	2012509	n/a	LTP278	ltpFR	1	3	1	ORNAMENT	985	1	n/a	0	n/a	n/a	n/a	n/a	n/a
4025.938	n/a	RECOG_CONF	2012969	n/a	LTP278	ltpFR	1	3	1	ORNAMENT	985	n/a	2	0	n/a	n/a	n/a	n/a	n/a
4027.732	n/a	RECOG_TARGET	2013866	n/a	LTP278	ltpFR	1	3	1	HAT	690	1	5	0	n/a	n/a	n/a	n/a	n/a
4028.398	n/a	RECOG_RESP	2014199	n/a	LTP278	ltpFR	1	3	1	HAT	690	1	n/a	0	n/a	n/a	n/a	n/a	n/a
4029.278	n/a	RECOG_CONF	2014639	n/a	LTP278	ltpFR	1	3	1	HAT	690	n/a	5	0	n/a	n/a	n/a	n/a	n/a
4031.21	n/a	RECOG_TARGET	2015605	n/a	LTP278	ltpFR	1	3	1	MOUSE	925	1	1	1	n/a	n/a	n/a	n/a	n/a
4032.738	n/a	RECOG_RESP	2016369	n/a	LTP278	ltpFR	1	3	1	MOUSE	925	1	n/a	1	n/a	n/a	n/a	n/a	n/a
4033.688	n/a	RECOG_CONF	2016844	n/a	LTP278	ltpFR	1	3	1	MOUSE	925	n/a	1	1	n/a	n/a	n/a	n/a	n/a
4035.47	n/a	RECOG_TARGET	2017735	n/a	LTP278	ltpFR	1	3	-1	TOOTHBRUSH	1482	1	4	-1	n/a	n/a	n/a	n/a	n/a
4036.238	n/a	RECOG_RESP	2018119	n/a	LTP278	ltpFR	1	3	-1	TOOTHBRUSH	1482	1	n/a	-1	n/a	n/a	n/a	n/a	n/a
4037.278	n/a	RECOG_CONF	2018639	n/a	LTP278	ltpFR	1	3	-1	TOOTHBRUSH	1482	n/a	4	-1	n/a	n/a	n/a	n/a	n/a
4039.198	n/a	RECOG_TARGET	2019599	n/a	LTP278	ltpFR	1	3	-1	LAMP	798	0	2	-1	n/a	n/a	n/a	n/a	n/a
4040.188	n/a	RECOG_RESP	2020094	n/a	LTP278	ltpFR	1	3	-1	LAMP	798	0	n/a	-1	n/a	n/a	n/a	n/a	n/a
4041.128	n/a	RECOG_CONF	2020564	n/a	LTP278	ltpFR	1	3	-1	LAMP	798	n/a	2	-1	n/a	n/a	n/a	n/a	n/a
4042.91	n/a	RECOG_TARGET	2021455	n/a	LTP278	ltpFR	1	3	-1	ACROBAT	4	1	5	-1	n/a	n/a	n/a	n/a	n/a
4043.934	n/a	RECOG_RESP	2021967	n/a	LTP278	ltpFR	1	3	-1	ACROBAT	4	1	n/a	-1	n/a	n/a	n/a	n/a	n/a
4044.748	n/a	RECOG_CONF	2022374	n/a	LTP278	ltpFR	1	3	-1	ACROBAT	4	n/a	5	-1	n/a	n/a	n/a	n/a	n/a
4046.604	n/a	RECOG_LURE	2023302	n/a	LTP278	ltpFR	1	3	n/a	HUSBAND	728	0	1	n/a	n/a	n/a	n/a	n/a	n/a
4047.408	n/a	RECOG_RESP	2023704	n/a	LTP278	ltpFR	1	3	n/a	HUSBAND	728	0	n/a	n/a	n/a	n/a	n/a	n/a	n/a
4048.298	n/a	RECOG_CONF	2024149	n/a	LTP278	ltpFR	1	3	n/a	HUSBAND	728	n/a	1	n/a	n/a	n/a	n/a	n/a	n/a
4049.966	n/a	RECOG_TARGET	2024983	n/a	LTP278	ltpFR	1	3	-1	SLEEVE	1324	1	5	-1	n/a	n/a	n/a	n/a	n/a
4051.278	n/a	RECOG_RESP	2025639	n/a	LTP278	ltpFR	1	3	-1	SLEEVE	1324	1	n/a	-1	n/a	n/a	n/a	n/a	n/a
4052.228	n/a	RECOG_CONF	2026114	n/a	LTP278	ltpFR	1	3	-1	SLEEVE	1324	n/a	5	-1	n/a	n/a	n/a	n/a	n/a
4054.076	n/a	RECOG_TARGET	2027038	n/a	LTP278	ltpFR	1	3	-1	SKATE	1313	1	5	-1	n/a	n/a	n/a	n/a	n/a
4054.828	n/a	RECOG_RESP	2027414	n/a	LTP278	ltpFR	1	3	-1	SKATE	1313	1	n/a	-1	n/a	n/a	n/a	n/a	n/a
4055.808	n/a	RECOG_CONF	2027904	n/a	LTP278	ltpFR	1	3	-1	SKATE	1313	n/a	5	-1	n/a	n/a	n/a	n/a	n/a
4057.72	n/a	RECOG_TARGET	2028860	n/a	LTP278	ltpFR	1	3	-1	MISSILE	900	0	1	-1	n/a	n/a	n/a	n/a	n/a
4058.918	n/a	RECOG_RESP	2029459	n/a	LTP278	ltpFR	1	3	-1	MISSILE	900	0	n/a	-1	n/a	n/a	n/a	n/a	n/a
4060.368	n/a	RECOG_CONF	2030184	n/a	LTP278	ltpFR	1	3	-1	MISSILE	900	n/a	1	-1	n/a	n/a	n/a	n/a	n/a
4062.348	n/a	RECOG_TARGET	2031174	n/a	LTP278	ltpFR	1	3	-1	KNAPSACK	783	1	3	-1	n/a	n/a	n/a	n/a	n/a
4063.214	n/a	RECOG_RESP	2031607	n/a	LTP278	ltpFR	1	3	-1	KNAPSACK	783	1	n/a	-1	n/a	n/a	n/a	n/a	n/a
4064.398	n/a	RECOG_CONF	2032199	n/a	LTP278	ltpFR	1	3	-1	KNAPSACK	783	n/a	3	-1	n/a	n/a	n/a	n/a	n/a
4066.174	n/a	RECOG_TARGET	2033087	n/a	LTP278	ltpFR	1	3	0	CABIN	211	1	4	1	n/a	n/a	n/a	n/a	n/a
4067.074	n/a	RECOG_RESP	2033537	n/a	LTP278	ltpFR	1	3	0	CABIN	211	1	n/a	1	n/a	n/a	n/a	n/a	n/a
4068.008	n/a	RECOG_CONF	2034004	n/a	LTP278	ltpFR	1	3	0	CABIN	211	n/a	4	1	n/a	n/a	n/a	n/a	n/a
4069.802	n/a	RECOG_TARGET	2034901	n/a	LTP278	ltpFR	1	3	1	PEDESTRIAN	1038	0	4	1	n/a	n/a	n/a	n/a	n/a
4071.154	n/a	RECOG_RESP	2035577	n/a	LTP278	ltpFR	1	3	1	PEDESTRIAN	1038	0	n/a	1	n/a	n/a	n/a	n/a	n/a
4072.068	n/a	RECOG_CONF	2036034	n/a	LTP278	ltpFR	1	3	1	PEDESTRIAN	1038	n/a	4	1	n/a	n/a	n/a	n/a	n/a
4073.896	n/a	RECOG_TARGET	2036948	n/a	LTP278	ltpFR	1	3	0	SHEPHERD	1283	1	5	1	n/a	n/a	n/a	n/a	n/a
4074.964	n/a	RECOG_RESP	2037482	n/a	LTP278	ltpFR	1	3	0	SHEPHERD	1283	1	n/a	1	n/a	n/a	n/a	n/a	n/a
4075.858	n/a	RECOG_CONF	2037929	n/a	LTP278	ltpFR	1	3	0	SHEPHERD	1283	n/a	5	1	n/a	n/a	n/a	n/a	n/a
4077.774	n/a	RECOG_TARGET	2038887	n/a	LTP278	ltpFR	1	3	1	MOTOR	922	1	5	0	n/a	n/a	n/a	n/a	n/a
4078.488	n/a	RECOG_RESP	2039244	n/a	LTP278	ltpFR	1	3	1	MOTOR	922	1	n/a	0	n/a	n/a	n/a	n/a	n/a
4079.408	n/a	RECOG_CONF	2039704	n/a	LTP278	ltpFR	1	3	1	MOTOR	922	n/a	5	0	n/a	n/a	n/a	n/a	n/a
4081.152	n/a	RECOG_TARGET	2040576	n/a	LTP278	ltpFR	1	3	1	CATCHER	258	1	4	1	n/a	n/a	n/a	n/a	n/a
4082.638	n/a	RECOG_RESP	2041319	n/a	LTP278	ltpFR	1	3	1	CATCHER	258	1	n/a	1	n/a	n/a	n/a	n/a	n/a
4083.568	n/a	RECOG_CONF	2041784	n/a	LTP278	ltpFR	1	3	1	CATCHER	258	n/a	4	1	n/a	n/a	n/a	n/a	n/a
4085.662	n/a	RECOG_LURE	2042831	n/a	LTP278	ltpFR	1	3	n/a	NIECE	952	0	5	n/a	n/a	n/a	n/a	n/a	n/a
4086.748	n/a	RECOG_RESP	2043374	n/a	LTP278	ltpFR	1	3	n/a	NIECE	952	0	n/a	n/a	n/a	n/a	n/a	n/a	n/a
4087.618	n/a	RECOG_CONF	2043809	n/a	LTP278	ltpFR	1	3	n/a	NIECE	952	n/a	5	n/a	n/a	n/a	n/a	n/a	n/a
4089.54	n/a	RECOG_TARGET	2044770	n/a	LTP278	ltpFR	1	3	-1	NIGHTGOWN	953	1	5	-1	n/a	n/a	n/a	n/a	n/a
4090.42	n/a	RECOG_RESP	2045210	n/a	LTP278	ltpFR	1	3	-1	NIGHTGOWN	953	1	n/a	-1	n/a	n/a	n/a	n/a	n/a
4091.29	n/a	RECOG_CONF	2045645	n/a	LTP278	ltpFR	1	3	-1	NIGHTGOWN	953	n/a	5	-1	n/a	n/a	n/a	n/a	n/a
4094.92	n/a	REC_START	2047460	n/a	LTP278	ltpFR	1	4	n/a	n/a	n/a	n/a	n/a	n/a	n/a	n/a	n/a	n/a	n/a
4094.95	n/a	RECOG_LURE	2047475	n/a	LTP278	ltpFR	1	4	n/a	TORCH	1484	1	3	n/a	n/a	n/a	n/a	n/a	n/a
4096.19	n/a	RECOG_RESP	2048095	n/a	LTP278	ltpFR	1	4	n/a	TORCH	1484	1	n/a	n/a	n/a	n/a	n/a	n/a	n/a
4097.23	n/a	RECOG_CONF	2048615	n/a	LTP278	ltpFR	1	4	n/a	TORCH	1484	n/a	3	n/a	n/a	n/a	n/a	n/a	n/a
4099.026	n/a	RECOG_LURE	2049513	n/a	LTP278	ltpFR	1	4	n/a	SURF	1412	0	2	n/a	n/a	n/a	n/a	n/a	n/a
4099.98	n/a	RECOG_RESP	2049990	n/a	LTP278	ltpFR	1	4	n/a	SURF	1412	0	n/a	n/a	n/a	n/a	n/a	n/a	n/a
4101.22	n/a	RECOG_CONF	2050610	n/a	LTP278	ltpFR	1	4	n/a	SURF	1412	n/a	2	n/a	n/a	n/a	n/a	n/a	n/a
4102.988	n/a	RECOG_TARGET	2051494	n/a	LTP278	ltpFR	1	4	1	BOWL	158	1	5	0	n/a	n/a	n/a	n/a	n/a
4103.93	n/a	RECOG_RESP	2051965	n/a	LTP278	ltpFR	1	4	1	BOWL	158	1	n/a	0	n/a	n/a	n/a	n/a	n/a
4104.72	n/a	RECOG_CONF	2052360	n/a	LTP278	ltpFR	1	4	1	BOWL	158	n/a	5	0	n/a	n/a	n/a	n/a	n/a
4106.466	n/a	RECOG_TARGET	2053233	n/a	LTP278	ltpFR	1	4	0	MARROW	872	1	4	0	n/a	n/a	n/a	n/a	n/a
4107.26	n/a	RECOG_RESP	2053630	n/a	LTP278	ltpFR	1	4	0	MARROW	872	1	n/a	0	n/a	n/a	n/a	n/a	n/a
4108.23	n/a	RECOG_CONF	2054115	n/a	LTP278	ltpFR	1	4	0	MARROW	872	n/a	4	0	n/a	n/a	n/a	n/a	n/a
4110.11	n/a	RECOG_TARGET	2055055	n/a	LTP278	ltpFR	1	4	0	ISLAND	745	0	4	1	n/a	n/a	n/a	n/a	n/a
4110.956	n/a	RECOG_RESP	2055478	n/a	LTP278	ltpFR	1	4	0	ISLAND	745	0	n/a	1	n/a	n/a	n/a	n/a	n/a
4111.84	n/a	RECOG_CONF	2055920	n/a	LTP278	ltpFR	1	4	0	ISLAND	745	n/a	4	1	n/a	n/a	n/a	n/a	n/a
4113.638	n/a	RECOG_TARGET	2056819	n/a	LTP278	ltpFR	1	4	-1	COOKIE	374	1	5	-1	n/a	n/a	n/a	n/a	n/a
4114.476	n/a	RECOG_RESP	2057238	n/a	LTP278	ltpFR	1	4	-1	COOKIE	374	1	n/a	-1	n/a	n/a	n/a	n/a	n/a
4115.28	n/a	RECOG_CONF	2057640	n/a	LTP278	ltpFR	1	4	-1	COOKIE	374	n/a	5	-1	n/a	n/a	n/a	n/a	n/a
4117.05	n/a	RECOG_TARGET	2058525	n/a	LTP278	ltpFR	1	4	1	COWBOY	395	1	3	1	n/a	n/a	n/a	n/a	n/a
4117.896	n/a	RECOG_RESP	2058948	n/a	LTP278	ltpFR	1	4	1	COWBOY	395	1	n/a	1	n/a	n/a	n/a	n/a	n/a
4118.74	n/a	RECOG_CONF	2059370	n/a	LTP278	ltpFR	1	4	1	COWBOY	395	n/a	3	1	n/a	n/a	n/a	n/a	n/a
4120.444	n/a	RECOG_TARGET	2060222	n/a	LTP278	ltpFR	1	4	-1	GRIZZLY	662	1	2	-1	n/a	n/a	n/a	n/a	n/a
4121.286	n/a	RECOG_RESP	2060643	n/a	LTP278	ltpFR	1	4	-1	GRIZZLY	662	1	n/a	-1	n/a	n/a	n/a	n/a	n/a
4122.2	n/a	RECOG_CONF	2061100	n/a	LTP278	ltpFR	1	4	-1	GRIZZLY	662	n/a	2	-1	n/a	n/a	n/a	n/a	n/a
4123.906	n/a	RECOG_TARGET	2061953	n/a	LTP278	ltpFR	1	4	0	LIVER	833	1	4	0	n/a	n/a	n/a	n/a	n/a
4124.516	n/a	RECOG_RESP	2062258	n/a	LTP278	ltpFR	1	4	0	LIVER	833	1	n/a	0	n/a	n/a	n/a	n/a	n/a
4125.36	n/a	RECOG_CONF	2062680	n/a	LTP278	ltpFR	1	4	0	LIVER	833	n/a	4	0	n/a	n/a	n/a	n/a	n/a
4127.318	n/a	RECOG_TARGET	2063659	n/a	LTP278	ltpFR	1	4	-1	MONARCH	906	1	5	-1	n/a	n/a	n/a	n/a	n/a
4128.006	n/a	RECOG_RESP	2064003	n/a	LTP278	ltpFR	1	4	-1	MONARCH	906	1	n/a	-1	n/a	n/a	n/a	n/a	n/a
4128.91	n/a	RECOG_CONF	2064455	n/a	LTP278	ltpFR	1	4	-1	MONARCH	906	n/a	5	-1	n/a	n/a	n/a	n/a	n/a
4130.78	n/a	RECOG_TARGET	2065390	n/a	LTP278	ltpFR	1	4	-1	ANCHOR	21	1	5	-1	n/a	n/a	n/a	n/a	n/a
4131.726	n/a	RECOG_RESP	2065863	n/a	LTP278	ltpFR	1	4	-1	ANCHOR	21	1	n/a	-1	n/a	n/a	n/a	n/a	n/a
4132.58	n/a	RECOG_CONF	2066290	n/a	LTP278	ltpFR	1	4	-1	ANCHOR	21	n/a	5	-1	n/a	n/a	n/a	n/a	n/a
4134.324	n/a	RECOG_TARGET	2067162	n/a	LTP278	ltpFR	1	4	-1	FIDDLE	561	0	3	-1	n/a	n/a	n/a	n/a	n/a
4135.5	n/a	RECOG_RESP	2067750	n/a	LTP278	ltpFR	1	4	-1	FIDDLE	561	0	n/a	-1	n/a	n/a	n/a	n/a	n/a
4136.264	n/a	RECOG_CONF	2068132	n/a	LTP278	ltpFR	1	4	-1	FIDDLE	561	n/a	3	-1	n/a	n/a	n/a	n/a	n/a
4138.168	n/a	RECOG_TARGET	2069084	n/a	LTP278	ltpFR	1	4	1	STEW	1380	1	5	0	n/a	n/a	n/a	n/a	n/a
4138.916	n/a	RECOG_RESP	2069458	n/a	LTP278	ltpFR	1	4	1	STEW	1380	1	n/a	0	n/a	n/a	n/a	n/a	n/a
4139.75	n/a	RECOG_CONF	2069875	n/a	LTP278	ltpFR	1	4	1	STEW	1380	n/a	5	0	n/a	n/a	n/a	n/a	n/a
4141.63	n/a	RECOG_TARGET	2070815	n/a	LTP278	ltpFR	1	4	-1	RADIATOR	1156	1	1	-1	n/a	n/a	n/a	n/a	n/a
4142.93	n/a	RECOG_RESP	2071465	n/a	LTP278	ltpFR	1	4	-1	RADIATOR	1156	1	n/a	-1	n/a	n/a	n/a	n/a	n/a
4143.88	n/a	RECOG_CONF	2071940	n/a	LTP278	ltpFR	1	4	-1	RADIATOR	1156	n/a	1	-1	n/a	n/a	n/a	n/a	n/a
4145.774	n/a	RECOG_TARGET	2072887	n/a	LTP278	ltpFR	1	4	0	FOX	598	1	4	1	n/a	n/a	n/a	n/a	n/a
4146.586	n/a	RECOG_RESP	2073293	n/a	LTP278	ltpFR	1	4	0	FOX	598	1	n/a	1	n/a	n/a	n/a	n/a	n/a
4147.46	n/a	RECOG_CONF	2073730	n/a	LTP278	ltpFR	1	4	0	FOX	598	n/a	4	1	n/a	n/a	n/a	n/a	n/a
4149.284	n/a	RECOG_TARGET	2074642	n/a	LTP278	ltpFR	1	4	-1	STAKE	1368	1	4	-1	n/a	n/a	n/a	n/a	n/a
4150.686	n/a	RECOG_RESP	2075343	n/a	LTP278	ltpFR	1	4	-1	STAKE	1368	1	n/a	-1	n/a	n/a	n/a	n/a	n/a
4151.56	n/a	RECOG_CONF	2075780	n/a	LTP278	ltpFR	1	4	-1	STAKE	1368	n/a	4	-1	n/a	n/a	n/a	n/a	n/a
4153.512	n/a	RECOG_TARGET	2076756	n/a	LTP278	ltpFR	1	4	0	GALLON	618	1	5	1	n/a	n/a	n/a	n/a	n/a
4154.22	n/a	RECOG_RESP	2077110	n/a	LTP278	ltpFR	1	4	0	GALLON	618	1	n/a	1	n/a	n/a	n/a	n/a	n/a
4154.94	n/a	RECOG_CONF	2077470	n/a	LTP278	ltpFR	1	4	0	GALLON	618	n/a	5	1	n/a	n/a	n/a	n/a	n/a
4156.958	n/a	RECOG_TARGET	2078479	n/a	LTP278	ltpFR	1	4	1	TREE	1502	1	3	1	n/a	n/a	n/a	n/a	n/a
4157.682	n/a	RECOG_RESP	2078841	n/a	LTP278	ltpFR	1	4	1	TREE	1502	1	n/a	1	n/a	n/a	n/a	n/a	n/a
4158.482	n/a	RECOG_CONF	2079241	n/a	LTP278	ltpFR	1	4	1	TREE	1502	n/a	3	1	n/a	n/a	n/a	n/a	n/a
4160.436	n/a	RECOG_TARGET	2080218	n/a	LTP278	ltpFR	1	4	0	DEODORANT	448	1	5	0	n/a	n/a	n/a	n/a	n/a
4161.156	n/a	RECOG_RESP	2080578	n/a	LTP278	ltpFR	1	4	0	DEODORANT	448	1	n/a	0	n/a	n/a	n/a	n/a	n/a
4161.962	n/a	RECOG_CONF	2080981	n/a	LTP278	ltpFR	1	4	0	DEODORANT	448	n/a	5	0	n/a	n/a	n/a	n/a	n/a
4164.014	n/a	RECOG_TARGET	2082007	n/a	LTP278	ltpFR	1	4	-1	PAW	1029	1	5	-1	n/a	n/a	n/a	n/a	n/a
4164.726	n/a	RECOG_RESP	2082363	n/a	LTP278	ltpFR	1	4	-1	PAW	1029	1	n/a	-1	n/a	n/a	n/a	n/a	n/a
4165.452	n/a	RECOG_CONF	2082726	n/a	LTP278	ltpFR	1	4	-1	PAW	1029	n/a	5	-1	n/a	n/a	n/a	n/a	n/a
4169.064	n/a	REC_START	2084532	n/a	LTP278	ltpFR	1	5	n/a	n/a	n/a	n/a	n/a	n/a	n/a	n/a	n/a	n/a	n/a
4169.106	n/a	RECOG_TARGET	2084553	n/a	LTP278	ltpFR	1	5	0	MOSQUITO	917	1	4	0	n/a	n/a	n/a	n/a	n/a
4169.914	n/a	RECOG_RESP	2084957	n/a	LTP278	ltpFR	1	5	0	MOSQUITO	917	1	n/a	0	n/a	n/a	n/a	n/a	n/a
4170.834	n/a	RECOG_CONF	2085417	n/a	LTP278	ltpFR	1	5	0	MOSQUITO	917	n/a	4	0	n/a	n/a	n/a	n/a	n/a
4172.668	n/a	RECOG_TARGET	2086334	n/a	LTP278	ltpFR	1	5	1	LIPSTICK	829	1	5	0	n/a	n/a	n/a	n/a	n/a
4173.398	n/a	RECOG_RESP	2086699	n/a	LTP278	ltpFR	1	5	1	LIPSTICK	829	1	n/a	0	n/a	n/a	n/a	n/a	n/a
4174.194	n/a	RECOG_CONF	2087097	n/a	LTP278	ltpFR	1	5	1	LIPSTICK	829	n/a	5	0	n/a	n/a	n/a	n/a	n/a
4176.08	n/a	RECOG_TARGET	2088040	n/a	LTP278	ltpFR	1	5	0	TENT	1449	1	5	1	n/a	n/a	n/a	n/a	n/a
4176.954	n/a	RECOG_RESP	2088477	n/a	LTP278	ltpFR	1	5	0	TENT	1449	1	n/a	1	n/a	n/a	n/a	n/a	n/a
4177.814	n/a	RECOG_CONF	2088907	n/a	LTP278	ltpFR	1	5	0	TENT	1449	n/a	5	1	n/a	n/a	n/a	n/a	n/a
4179.59	n/a	RECOG_LURE	2089795	n/a	LTP278	ltpFR	1	5	n/a	BED	110	0	2	n/a	n/a	n/a	n/a	n/a	n/a
4180.674	n/a	RECOG_RESP	2090337	n/a	LTP278	ltpFR	1	5	n/a	BED	110	0	n/a	n/a	n/a	n/a	n/a	n/a	n/a
4181.684	n/a	RECOG_CONF	2090842	n/a	LTP278	ltpFR	1	5	n/a	BED	110	n/a	2	n/a	n/a	n/a	n/a	n/a	n/a
4183.368	n/a	RECOG_TARGET	2091684	n/a	LTP278	ltpFR	1	5	-1	PASSENGER	1020	1	1	-1	n/a	n/a	n/a	n/a	n/a
4185.428	n/a	RECOG_RESP	2092714	n/a	LTP278	ltpFR	1	5	-1	PASSENGER	1020	1	n/a	-1	n/a	n/a	n/a	n/a	n/a
4186.604	n/a	RECOG_CONF	2093302	n/a	LTP278	ltpFR	1	5	-1	PASSENGER	1020	n/a	1	-1	n/a	n/a	n/a	n/a	n/a
4188.478	n/a	RECOG_TARGET	2094239	n/a	LTP278	ltpFR	1	5	-1	SPY	1360	1	4	-1	n/a	n/a	n/a	n/a	n/a
4189.148	n/a	RECOG_RESP	2094574	n/a	LTP278	ltpFR	1	5	-1	SPY	1360	1	n/a	-1	n/a	n/a	n/a	n/a	n/a
4189.914	n/a	RECOG_CONF	2094957	n/a	LTP278	ltpFR	1	5	-1	SPY	1360	n/a	4	-1	n/a	n/a	n/a	n/a	n/a
4191.856	n/a	RECOG_TARGET	2095928	n/a	LTP278	ltpFR	1	5	0	DORM	488	1	3	1	n/a	n/a	n/a	n/a	n/a
4192.644	n/a	RECOG_RESP	2096322	n/a	LTP278	ltpFR	1	5	0	DORM	488	1	n/a	1	n/a	n/a	n/a	n/a	n/a
4193.504	n/a	RECOG_CONF	2096752	n/a	LTP278	ltpFR	1	5	0	DORM	488	n/a	3	1	n/a	n/a	n/a	n/a	n/a
4195.218	n/a	RECOG_TARGET	2097609	n/a	LTP278	ltpFR	1	5	0	KEEPER	769	1	4	1	n/a	n/a	n/a	n/a	n/a
4196.624	n/a	RECOG_RESP	2098312	n/a	LTP278	ltpFR	1	5	0	KEEPER	769	1	n/a	1	n/a	n/a	n/a	n/a	n/a
4197.674	n/a	RECOG_CONF	2098837	n/a	LTP278	ltpFR	1	5	0	KEEPER	769	n/a	4	1	n/a	n/a	n/a	n/a	n/a
4199.51	n/a	RECOG_TARGET	2099755	n/a	LTP278	ltpFR	1	5	1	TROUT	1511	1	2	1	n/a	n/a	n/a	n/a	n/a
4200.654	n/a	RECOG_RESP	2100327	n/a	LTP278	ltpFR	1	5	1	TROUT	1511	1	n/a	1	n/a	n/a	n/a	n/a	n/a
4201.664	n/a	RECOG_CONF	2100832	n/a	LTP278	ltpFR	1	5	1	TROUT	1511	n/a	2	1	n/a	n/a	n/a	n/a	n/a
4203.604	n/a	RECOG_TARGET	2101802	n/a	LTP278	ltpFR	1	5	1	CHAUFFEUR	283	1	4	1	n/a	n/a	n/a	n/a	n/a
4204.408	n/a	RECOG_RESP	2102204	n/a	LTP278	ltpFR	1	5	1	CHAUFFEUR	283	1	n/a	1	n/a	n/a	n/a	n/a	n/a
4205.304	n/a	RECOG_CONF	2102652	n/a	LTP278	ltpFR	1	5	1	CHAUFFEUR	283	n/a	4	1	n/a	n/a	n/a	n/a	n/a
4207.2	n/a	RECOG_TARGET	2103600	n/a	LTP278	ltpFR	1	5	-1	COURSE	390	1	4	-1	n/a	n/a	n/a	n/a	n/a
4207.918	n/a	RECOG_RESP	2103959	n/a	LTP278	ltpFR	1	5	-1	COURSE	390	1	n/a	-1	n/a	n/a	n/a	n/a	n/a
4208.974	n/a	RECOG_CONF	2104487	n/a	LTP278	ltpFR	1	5	-1	COURSE	390	n/a	4	-1	n/a	n/a	n/a	n/a	n/a
4210.844	n/a	RECOG_TARGET	2105422	n/a	LTP278	ltpFR	1	5	-1	TROPHY	1509	1	4	-1	n/a	n/a	n/a	n/a	n/a
4211.698	n/a	RECOG_RESP	2105849	n/a	LTP278	ltpFR	1	5	-1	TROPHY	1509	1	n/a	-1	n/a	n/a	n/a	n/a	n/a
4212.724	n/a	RECOG_CONF	2106362	n/a	LTP278	ltpFR	1	5	-1	TROPHY	1509	n/a	4	-1	n/a	n/a	n/a	n/a	n/a
4214.722	n/a	RECOG_TARGET	2107361	n/a	LTP278	ltpFR	1	5	1	SPIT	1354	1	5	0	n/a	n/a	n/a	n/a	n/a
4215.464	n/a	RECOG_RESP	2107732	n/a	LTP278	ltpFR	1	5	1	SPIT	1354	1	n/a	0	n/a	n/a	n/a	n/a	n/a
4216.294	n/a	RECOG_CONF	2108147	n/a	LTP278	ltpFR	1	5	1	SPIT	1354	n/a	5	0	n/a	n/a	n/a	n/a	n/a
4218.134	n/a	RECOG_LURE	2109067	n/a	LTP278	ltpFR	1	5	n/a	STABLE	1363	1	1	n/a	n/a	n/a	n/a	n/a	n/a
4218.984	n/a	RECOG_RESP	2109492	n/a	LTP278	ltpFR	1	5	n/a	STABLE	1363	1	n/a	n/a	n/a	n/a	n/a	n/a	n/a
4220.174	n/a	RECOG_CONF	2110087	n/a	LTP278	ltpFR	1	5	n/a	STABLE	1363	n/a	1	n/a	n/a	n/a	n/a	n/a	n/a
4222.06	n/a	RECOG_TARGET	2111030	n/a	LTP278	ltpFR	1	5	1	LUGGAGE	847	1	3	0	n/a	n/a	n/a	n/a	n/a
4222.998	n/a	RECOG_RESP	2111499	n/a	LTP278	ltpFR	1	5	1	LUGGAGE	847	1	n/a	0	n/a	n/a	n/a	n/a	n/a
4223.824	n/a	RECOG_CONF	2111912	n/a	LTP278	ltpFR	1	5	1	LUGGAGE	847	n/a	3	0	n/a	n/a	n/a	n/a	n/a
4225.772	n/a	RECOG_TARGET	2112886	n/a	LTP278	ltpFR	1	5	0	LILY	821	1	4	0	n/a	n/a	n/a	n/a	n/a
4226.724	n/a	RECOG_RESP	2113362	n/a	LTP278	ltpFR	1	5	0	LILY	821	1	n/a	0	n/a	n/a	n/a	n/a	n/a
4227.784	n/a	RECOG_CONF	2113892	n/a	LTP278	ltpFR	1	5	0	LILY	821	n/a	4	0	n/a	n/a	n/a	n/a	n/a
4229.65	n/a	RECOG_TARGET	2114825	n/a	LTP278	ltpFR	1	5	1	MERMAID	887	1	5	1	n/a	n/a	n/a	n/a	n/a
