mstime	trial_type	stim_file	subject	experiment	session	trial	task	item_name	item_num	recog_resp	recog_conf	resp	color_r	color_g	color_b	case	font
0	SESS_START	n/a	LTP127	ltpFR	17	n/a	n/a	n/a	n/a	1	2	n/a	n/a	n/a	n/a	n/a	n/a
84360	WORD	wordpools/wasnorm_wordpool.txt	LTP127	ltpFR	17	1	0	ROBIN	1199	0	n/a	0	0.57763671875	0.412841796875	1	upper	amplitud.ttf
88191	WORD	wordpools/wasnorm_wordpool.txt	LTP127	ltpFR	17	1	0	PERCH	1048	n/a	n/a	0	0.57763671875	0.412841796875	1	upper	amplitud.ttf
92398	WORD	wordpools/wasnorm_wordpool.txt	LTP127	ltpFR	17	1	0	TUNA	1518	n/a	n/a	0	0.57763671875	0.412841796875	1	upper	amplitud.ttf
96364	WORD	wordpools/wasnorm_wordpool.txt	LTP127	ltpFR	17	1	1	SEA	1259	n/a	n/a	0	0.422607421875	0.5869140625	0	lower	zerothre.ttf
100245	WORD	wordpools/wasnorm_wordpool.txt	LTP127	ltpFR	17	1	1	MEDAL	885	n/a	n/a	0	0.422607421875	0.5869140625	0	lower	zerothre.ttf
104402	WORD	wordpools/wasnorm_wordpool.txt	LTP127	ltpFR	17	1	0	HEAD	695	n/a	n/a	0	0.57763671875	0.412841796875	1	upper	amplitud.ttf
108268	WORD	wordpools/wasnorm_wordpool.txt	LTP127	ltpFR	17	1	0	HAT	690	n/a	n/a	0	0.57763671875	0.412841796875	1	upper	amplitud.ttf
112190	WORD	wordpools/wasnorm_wordpool.txt	LTP127	ltpFR	17	1	0	CONVICT	371	n/a	n/a	1	0.57763671875	0.412841796875	1	upper	amplitud.ttf
116290	WORD	wordpools/wasnorm_wordpool.txt	LTP127	ltpFR	17	1	1	MOB	904	n/a	n/a	0	0.422607421875	0.5869140625	0	lower	zerothre.ttf
120179	WORD	wordpools/wasnorm_wordpool.txt	LTP127	ltpFR	17	1	1	COUGAR	387	n/a	n/a	1	0.422607421875	0.5869140625	0	lower	zerothre.ttf
124011	WORD	wordpools/wasnorm_wordpool.txt	LTP127	ltpFR	17	1	1	PIE	1062	n/a	n/a	0	0.422607421875	0.5869140625	0	lower	zerothre.ttf
128018	WORD	wordpools/wasnorm_wordpool.txt	LTP127	ltpFR	17	1	1	LOCK	838	n/a	n/a	0	0.422607421875	0.5869140625	0	lower	zerothre.ttf
131900	WORD	wordpools/wasnorm_wordpool.txt	LTP127	ltpFR	17	1	1	SLIDE	1326	n/a	n/a	0	0.422607421875	0.5869140625	0	lower	zerothre.ttf
135749	WORD	wordpools/wasnorm_wordpool.txt	LTP127	ltpFR	17	1	1	FOREHEAD	592	n/a	n/a	1	0.422607421875	0.5869140625	0	lower	zerothre.ttf
139881	WORD	wordpools/wasnorm_wordpool.txt	LTP127	ltpFR	17	1	0	VICTIM	1562	n/a	n/a	1	0.57763671875	0.412841796875	1	upper	amplitud.ttf
143763	WORD	wordpools/wasnorm_wordpool.txt	LTP127	ltpFR	17	1	0	PELT	1040	n/a	n/a	0	0.57763671875	0.412841796875	1	upper	amplitud.ttf
149611	REC_START	n/a	LTP127	ltpFR	17	1	n/a	n/a	n/a	n/a	n/a	n/a	n/a	n/a	n/a	n/a	n/a
150773	REC_WORD	wordpools/wasnorm_wordpool.txt	LTP127	ltpFR	17	1	0	PELT	1040	n/a	n/a	0	n/a	n/a	n/a	n/a	n/a
151392	REC_WORD	wordpools/wasnorm_wordpool.txt	LTP127	ltpFR	17	1	0	VICTIM	1562	n/a	n/a	1	n/a	n/a	n/a	n/a	n/a
152170	REC_WORD	wordpools/wasnorm_wordpool.txt	LTP127	ltpFR	17	1	0	CONVICT	371	n/a	n/a	1	n/a	n/a	n/a	n/a	n/a
153991	REC_WORD	wordpools/wasnorm_wordpool.txt	LTP127	ltpFR	17	1	0	HEAD	695	n/a	n/a	0	n/a	n/a	n/a	n/a	n/a
155732	REC_WORD	wordpools/wasnorm_wordpool.txt	LTP127	ltpFR	17	1	0	HAT	690	n/a	n/a	0	n/a	n/a	n/a	n/a	n/a
156675	REC_WORD	wordpools/wasnorm_wordpool.txt	LTP127	ltpFR	17	1	1	FOREHEAD	592	n/a	n/a	1	n/a	n/a	n/a	n/a	n/a
158730	REC_WORD	wordpools/wasnorm_wordpool.txt	LTP127	ltpFR	17	1	0	HEAD	695	n/a	n/a	0	n/a	n/a	n/a	n/a	n/a
166368	REC_WORD	wordpools/wasnorm_wordpool.txt	LTP127	ltpFR	17	1	0	TUNA	1518	n/a	n/a	0	n/a	n/a	n/a	n/a	n/a
167136	REC_WORD	wordpools/wasnorm_wordpool.txt	LTP127	ltpFR	17	1	n/a	BIRD	129	n/a	n/a	n/a	n/a	n/a	n/a	n/a	n/a
168633	REC_WORD	wordpools/wasnorm_wordpool.txt	LTP127	ltpFR	17	1	1	COUGAR	387	n/a	n/a	1	n/a	n/a	n/a	n/a	n/a
170538	REC_WORD	wordpools/wasnorm_wordpool.txt	LTP127	ltpFR	17	1	0	PERCH	1048	n/a	n/a	0	n/a	n/a	n/a	n/a	n/a
171391	REC_WORD	wordpools/wasnorm_wordpool.txt	LTP127	ltpFR	17	1	1	SEA	1259	n/a	n/a	0	n/a	n/a	n/a	n/a	n/a
172569	REC_WORD	wordpools/wasnorm_wordpool.txt	LTP127	ltpFR	17	1	n/a	OCEAN	970	n/a	n/a	n/a	n/a	n/a	n/a	n/a	n/a
178819	REC_WORD	wordpools/wasnorm_wordpool.txt	LTP127	ltpFR	17	1	1	MEDAL	885	n/a	n/a	0	n/a	n/a	n/a	n/a	n/a
184072	REC_WORD	wordpools/wasnorm_wordpool.txt	LTP127	ltpFR	17	1	1	MOB	904	n/a	n/a	0	n/a	n/a	n/a	n/a	n/a
254190	WORD	wordpools/wasnorm_wordpool.txt	LTP127	ltpFR	17	2	1	PAGE	1001	n/a	n/a	0	0.422607421875	0.5869140625	0	lower	zerothre.ttf
258064	WORD	wordpools/wasnorm_wordpool.txt	LTP127	ltpFR	17	2	1	COUCH	386	n/a	n/a	0	0.422607421875	0.5869140625	0	lower	zerothre.ttf
262112	WORD	wordpools/wasnorm_wordpool.txt	LTP127	ltpFR	17	2	0	CUSHION	428	n/a	n/a	1	0.57763671875	0.412841796875	1	upper	amplitud.ttf
265994	WORD	wordpools/wasnorm_wordpool.txt	LTP127	ltpFR	17	2	0	CRAB	397	n/a	n/a	0	0.57763671875	0.412841796875	1	upper	amplitud.ttf
269859	WORD	wordpools/wasnorm_wordpool.txt	LTP127	ltpFR	17	2	0	FLOWER	584	n/a	n/a	0	0.57763671875	0.412841796875	1	upper	amplitud.ttf
274016	WORD	wordpools/wasnorm_wordpool.txt	LTP127	ltpFR	17	2	0	FAUCET	555	n/a	n/a	0	0.57763671875	0.412841796875	1	upper	amplitud.ttf
278040	WORD	wordpools/wasnorm_wordpool.txt	LTP127	ltpFR	17	2	1	WHALE	1601	n/a	n/a	1	0.422607421875	0.5869140625	0	lower	zerothre.ttf
281972	WORD	wordpools/wasnorm_wordpool.txt	LTP127	ltpFR	17	2	1	KEEPER	769	n/a	n/a	1	0.422607421875	0.5869140625	0	lower	zerothre.ttf
286104	WORD	wordpools/wasnorm_wordpool.txt	LTP127	ltpFR	17	2	1	BLACKBERRY	132	n/a	n/a	1	0.422607421875	0.5869140625	0	lower	zerothre.ttf
290152	WORD	wordpools/wasnorm_wordpool.txt	LTP127	ltpFR	17	2	0	VINE	1568	n/a	n/a	2	0.57763671875	0.412841796875	1	upper	amplitud.ttf
291361	KEY_MSG	n/a	LTP127	ltpFR	17	2	n/a	n/a	n/a	n/a	n/a	n/a	n/a	n/a	n/a	n/a	n/a
294217	WORD	wordpools/wasnorm_wordpool.txt	LTP127	ltpFR	17	2	0	SERVER	1272	n/a	n/a	0	0.57763671875	0.412841796875	1	upper	amplitud.ttf
298249	WORD	wordpools/wasnorm_wordpool.txt	LTP127	ltpFR	17	2	0	CARD	243	n/a	n/a	0	0.57763671875	0.412841796875	1	upper	amplitud.ttf
302098	WORD	wordpools/wasnorm_wordpool.txt	LTP127	ltpFR	17	2	0	SIDEWALK	1303	n/a	n/a	1	0.57763671875	0.412841796875	1	upper	amplitud.ttf
306030	WORD	wordpools/wasnorm_wordpool.txt	LTP127	ltpFR	17	2	1	CAFETERIA	217	n/a	n/a	0	0.422607421875	0.5869140625	0	lower	zerothre.ttf
310162	WORD	wordpools/wasnorm_wordpool.txt	LTP127	ltpFR	17	2	1	STAPLER	1372	n/a	n/a	0	0.422607421875	0.5869140625	0	lower	zerothre.ttf
314235	WORD	wordpools/wasnorm_wordpool.txt	LTP127	ltpFR	17	2	1	ALMANAC	17	n/a	n/a	0	0.422607421875	0.5869140625	0	lower	zerothre.ttf
320142	REC_START	n/a	LTP127	ltpFR	17	2	n/a	n/a	n/a	n/a	n/a	n/a	n/a	n/a	n/a	n/a	n/a
321304	REC_WORD	wordpools/wasnorm_wordpool.txt	LTP127	ltpFR	17	2	0	SERVER	1272	n/a	n/a	0	n/a	n/a	n/a	n/a	n/a
322317	REC_WORD	wordpools/wasnorm_wordpool.txt	LTP127	ltpFR	17	2	0	CARD	243	n/a	n/a	0	n/a	n/a	n/a	n/a	n/a
323025	REC_WORD	wordpools/wasnorm_wordpool.txt	LTP127	ltpFR	17	2	1	STAPLER	1372	n/a	n/a	0	n/a	n/a	n/a	n/a	n/a
324587	REC_WORD	wordpools/wasnorm_wordpool.txt	LTP127	ltpFR	17	2	0	VINE	1568	n/a	n/a	2	n/a	n/a	n/a	n/a	n/a
325315	REC_WORD	wordpools/wasnorm_wordpool.txt	LTP127	ltpFR	17	2	1	BLACKBERRY	132	n/a	n/a	1	n/a	n/a	n/a	n/a	n/a
326103	REC_WORD	wordpools/wasnorm_wordpool.txt	LTP127	ltpFR	17	2	1	ALMANAC	17	n/a	n/a	0	n/a	n/a	n/a	n/a	n/a
327350	REC_WORD	wordpools/wasnorm_wordpool.txt	LTP127	ltpFR	17	2	1	CAFETERIA	217	n/a	n/a	0	n/a	n/a	n/a	n/a	n/a
329196	REC_WORD	wordpools/wasnorm_wordpool.txt	LTP127	ltpFR	17	2	1	WHALE	1601	n/a	n/a	1	n/a	n/a	n/a	n/a	n/a
329920	REC_WORD	wordpools/wasnorm_wordpool.txt	LTP127	ltpFR	17	2	1	KEEPER	769	n/a	n/a	1	n/a	n/a	n/a	n/a	n/a
335128	REC_WORD_VV	wordpools/wasnorm_wordpool.txt	LTP127	ltpFR	17	2	n/a	<>	-1	n/a	n/a	n/a	n/a	n/a	n/a	n/a	n/a
342172	REC_WORD	wordpools/wasnorm_wordpool.txt	LTP127	ltpFR	17	2	0	FLOWER	584	n/a	n/a	0	n/a	n/a	n/a	n/a	n/a
345544	REC_WORD	wordpools/wasnorm_wordpool.txt	LTP127	ltpFR	17	2	0	CUSHION	428	n/a	n/a	1	n/a	n/a	n/a	n/a	n/a
346257	REC_WORD	wordpools/wasnorm_wordpool.txt	LTP127	ltpFR	17	2	0	CRAB	397	n/a	n/a	0	n/a	n/a	n/a	n/a	n/a
351590	REC_WORD	wordpools/wasnorm_wordpool.txt	LTP127	ltpFR	17	2	1	COUCH	386	n/a	n/a	0	n/a	n/a	n/a	n/a	n/a
352369	REC_WORD	wordpools/wasnorm_wordpool.txt	LTP127	ltpFR	17	2	1	PAGE	1001	n/a	n/a	0	n/a	n/a	n/a	n/a	n/a
407727	WORD	wordpools/wasnorm_wordpool.txt	LTP127	ltpFR	17	3	0	FRECKLE	602	n/a	n/a	0	0.57763671875	0.412841796875	1	upper	amplitud.ttf
411784	WORD	wordpools/wasnorm_wordpool.txt	LTP127	ltpFR	17	3	0	EYELASH	546	n/a	n/a	0	0.57763671875	0.412841796875	1	upper	amplitud.ttf
415882	WORD	wordpools/wasnorm_wordpool.txt	LTP127	ltpFR	17	3	0	LOOP	844	n/a	n/a	0	0.57763671875	0.412841796875	1	upper	amplitud.ttf
419964	WORD	wordpools/wasnorm_wordpool.txt	LTP127	ltpFR	17	3	0	BATHTUB	100	n/a	n/a	1	0.57763671875	0.412841796875	1	upper	amplitud.ttf
424163	WORD	wordpools/wasnorm_wordpool.txt	LTP127	ltpFR	17	3	0	MEADOW	881	n/a	n/a	1	0.57763671875	0.412841796875	1	upper	amplitud.ttf
427978	WORD	wordpools/wasnorm_wordpool.txt	LTP127	ltpFR	17	3	0	TILE	1468	n/a	n/a	0	0.57763671875	0.412841796875	1	upper	amplitud.ttf
432085	WORD	wordpools/wasnorm_wordpool.txt	LTP127	ltpFR	17	3	0	RAFT	1159	n/a	n/a	0	0.57763671875	0.412841796875	1	upper	amplitud.ttf
436225	WORD	wordpools/wasnorm_wordpool.txt	LTP127	ltpFR	17	3	0	BOAT	144	n/a	n/a	1	0.57763671875	0.412841796875	1	upper	amplitud.ttf
440266	WORD	wordpools/wasnorm_wordpool.txt	LTP127	ltpFR	17	3	0	ARTICLE	42	n/a	n/a	0	0.57763671875	0.412841796875	1	upper	amplitud.ttf
444440	WORD	wordpools/wasnorm_wordpool.txt	LTP127	ltpFR	17	3	0	NOVEL	960	n/a	n/a	0	0.57763671875	0.412841796875	1	upper	amplitud.ttf
448289	WORD	wordpools/wasnorm_wordpool.txt	LTP127	ltpFR	17	3	0	RAKE	1164	n/a	n/a	1	0.57763671875	0.412841796875	1	upper	amplitud.ttf
452404	WORD	wordpools/wasnorm_wordpool.txt	LTP127	ltpFR	17	3	0	FLOOR	581	n/a	n/a	1	0.57763671875	0.412841796875	1	upper	amplitud.ttf
456243	WORD	wordpools/wasnorm_wordpool.txt	LTP127	ltpFR	17	3	0	COB	334	n/a	n/a	0	0.57763671875	0.412841796875	1	upper	amplitud.ttf
460401	WORD	wordpools/wasnorm_wordpool.txt	LTP127	ltpFR	17	3	0	KNOT	788	n/a	n/a	0	0.57763671875	0.412841796875	1	upper	amplitud.ttf
464350	WORD	wordpools/wasnorm_wordpool.txt	LTP127	ltpFR	17	3	0	STUMP	1396	n/a	n/a	1	0.57763671875	0.412841796875	1	upper	amplitud.ttf
468197	WORD	wordpools/wasnorm_wordpool.txt	LTP127	ltpFR	17	3	0	REFRIGERATOR	1179	n/a	n/a	1	0.57763671875	0.412841796875	1	upper	amplitud.ttf
474229	REC_START	n/a	LTP127	ltpFR	17	3	n/a	n/a	n/a	n/a	n/a	n/a	n/a	n/a	n/a	n/a	n/a
475022	REC_WORD	wordpools/wasnorm_wordpool.txt	LTP127	ltpFR	17	3	0	REFRIGERATOR	1179	n/a	n/a	1	n/a	n/a	n/a	n/a	n/a
477187	REC_WORD	wordpools/wasnorm_wordpool.txt	LTP127	ltpFR	17	3	n/a	KNOB	787	n/a	n/a	n/a	n/a	n/a	n/a	n/a	n/a
477915	REC_WORD	wordpools/wasnorm_wordpool.txt	LTP127	ltpFR	17	3	0	RAKE	1164	n/a	n/a	1	n/a	n/a	n/a	n/a	n/a
478484	REC_WORD	wordpools/wasnorm_wordpool.txt	LTP127	ltpFR	17	3	0	FLOOR	581	n/a	n/a	1	n/a	n/a	n/a	n/a	n/a
479966	REC_WORD	wordpools/wasnorm_wordpool.txt	LTP127	ltpFR	17	3	0	KNOT	788	n/a	n/a	0	n/a	n/a	n/a	n/a	n/a
482685	REC_WORD	wordpools/wasnorm_wordpool.txt	LTP127	ltpFR	17	3	0	COB	334	n/a	n/a	0	n/a	n/a	n/a	n/a	n/a
486296	REC_WORD	wordpools/wasnorm_wordpool.txt	LTP127	ltpFR	17	3	0	TILE	1468	n/a	n/a	0	n/a	n/a	n/a	n/a	n/a
487070	REC_WORD	wordpools/wasnorm_wordpool.txt	LTP127	ltpFR	17	3	0	MEADOW	881	n/a	n/a	1	n/a	n/a	n/a	n/a	n/a
488846	REC_WORD	wordpools/wasnorm_wordpool.txt	LTP127	ltpFR	17	3	0	BATHTUB	100	n/a	n/a	1	n/a	n/a	n/a	n/a	n/a
490397	REC_WORD	wordpools/wasnorm_wordpool.txt	LTP127	ltpFR	17	3	0	RAFT	1159	n/a	n/a	0	n/a	n/a	n/a	n/a	n/a
491041	REC_WORD	wordpools/wasnorm_wordpool.txt	LTP127	ltpFR	17	3	0	BOAT	144	n/a	n/a	1	n/a	n/a	n/a	n/a	n/a
498404	REC_WORD	wordpools/wasnorm_wordpool.txt	LTP127	ltpFR	17	3	0	ARTICLE	42	n/a	n/a	0	n/a	n/a	n/a	n/a	n/a
499149	REC_WORD	wordpools/wasnorm_wordpool.txt	LTP127	ltpFR	17	3	0	NOVEL	960	n/a	n/a	0	n/a	n/a	n/a	n/a	n/a
499885	REC_WORD	wordpools/wasnorm_wordpool.txt	LTP127	ltpFR	17	3	n/a	BOOK	149	n/a	n/a	n/a	n/a	n/a	n/a	n/a	n/a
506326	REC_WORD	wordpools/wasnorm_wordpool.txt	LTP127	ltpFR	17	3	0	EYELASH	546	n/a	n/a	0	n/a	n/a	n/a	n/a	n/a
507553	REC_WORD	wordpools/wasnorm_wordpool.txt	LTP127	ltpFR	17	3	0	FRECKLE	602	n/a	n/a	0	n/a	n/a	n/a	n/a	n/a
509239	REC_WORD	wordpools/wasnorm_wordpool.txt	LTP127	ltpFR	17	3	0	LOOP	844	n/a	n/a	0	n/a	n/a	n/a	n/a	n/a
579508	WORD	wordpools/wasnorm_wordpool.txt	LTP127	ltpFR	17	4	-1	NEWSSTAND	949	n/a	n/a	-1	1.0	1.0	1	upper	Verdana.ttf
583416	WORD	wordpools/wasnorm_wordpool.txt	LTP127	ltpFR	17	4	-1	PRIMATE	1123	n/a	n/a	-1	1.0	1.0	1	upper	Verdana.ttf
587431	WORD	wordpools/wasnorm_wordpool.txt	LTP127	ltpFR	17	4	-1	INFANT	737	n/a	n/a	-1	1.0	1.0	1	upper	Verdana.ttf
591520	WORD	wordpools/wasnorm_wordpool.txt	LTP127	ltpFR	17	4	-1	VALVE	1546	n/a	n/a	-1	1.0	1.0	1	upper	Verdana.ttf
595552	WORD	wordpools/wasnorm_wordpool.txt	LTP127	ltpFR	17	4	-1	VEHICLE	1553	n/a	n/a	-1	1.0	1.0	1	upper	Verdana.ttf
599750	WORD	wordpools/wasnorm_wordpool.txt	LTP127	ltpFR	17	4	-1	MOTOR	922	n/a	n/a	-1	1.0	1.0	1	upper	Verdana.ttf
603791	WORD	wordpools/wasnorm_wordpool.txt	LTP127	ltpFR	17	4	-1	ZOO	1637	n/a	n/a	-1	1.0	1.0	1	upper	Verdana.ttf
607831	WORD	wordpools/wasnorm_wordpool.txt	LTP127	ltpFR	17	4	-1	FLEET	578	n/a	n/a	-1	1.0	1.0	1	upper	Verdana.ttf
611896	WORD	wordpools/wasnorm_wordpool.txt	LTP127	ltpFR	17	4	-1	COMMANDER	354	n/a	n/a	-1	1.0	1.0	1	upper	Verdana.ttf
615795	WORD	wordpools/wasnorm_wordpool.txt	LTP127	ltpFR	17	4	-1	JUG	762	n/a	n/a	-1	1.0	1.0	1	upper	Verdana.ttf
619743	WORD	wordpools/wasnorm_wordpool.txt	LTP127	ltpFR	17	4	-1	KNUCKLE	789	n/a	n/a	-1	1.0	1.0	1	upper	Verdana.ttf
623792	WORD	wordpools/wasnorm_wordpool.txt	LTP127	ltpFR	17	4	-1	LIZARD	834	n/a	n/a	-1	1.0	1.0	1	upper	Verdana.ttf
627990	WORD	wordpools/wasnorm_wordpool.txt	LTP127	ltpFR	17	4	-1	DILL	465	n/a	n/a	-1	1.0	1.0	1	upper	Verdana.ttf
631931	WORD	wordpools/wasnorm_wordpool.txt	LTP127	ltpFR	17	4	-1	DOCUMENT	479	n/a	n/a	-1	1.0	1.0	1	upper	Verdana.ttf
635846	WORD	wordpools/wasnorm_wordpool.txt	LTP127	ltpFR	17	4	-1	STRAW	1390	n/a	n/a	-1	1.0	1.0	1	upper	Verdana.ttf
639936	WORD	wordpools/wasnorm_wordpool.txt	LTP127	ltpFR	17	4	-1	FIELD	562	n/a	n/a	-1	1.0	1.0	1	upper	Verdana.ttf
645685	REC_START	n/a	LTP127	ltpFR	17	4	n/a	n/a	n/a	n/a	n/a	n/a	n/a	n/a	n/a	n/a	n/a
646787	REC_WORD	wordpools/wasnorm_wordpool.txt	LTP127	ltpFR	17	4	-1	DILL	465	n/a	n/a	-1	n/a	n/a	n/a	n/a	n/a
647446	REC_WORD	wordpools/wasnorm_wordpool.txt	LTP127	ltpFR	17	4	-1	DOCUMENT	479	n/a	n/a	-1	n/a	n/a	n/a	n/a	n/a
648279	REC_WORD	wordpools/wasnorm_wordpool.txt	LTP127	ltpFR	17	4	-1	STRAW	1390	n/a	n/a	-1	n/a	n/a	n/a	n/a	n/a
649142	REC_WORD	wordpools/wasnorm_wordpool.txt	LTP127	ltpFR	17	4	-1	FIELD	562	n/a	n/a	-1	n/a	n/a	n/a	n/a	n/a
650658	REC_WORD	wordpools/wasnorm_wordpool.txt	LTP127	ltpFR	17	4	0	MEADOW	881	n/a	n/a	1	n/a	n/a	n/a	n/a	n/a
652205	REC_WORD	wordpools/wasnorm_wordpool.txt	LTP127	ltpFR	17	4	-1	COMMANDER	354	n/a	n/a	-1	n/a	n/a	n/a	n/a	n/a
655163	REC_WORD	wordpools/wasnorm_wordpool.txt	LTP127	ltpFR	17	4	-1	FLEET	578	n/a	n/a	-1	n/a	n/a	n/a	n/a	n/a
656959	REC_WORD	wordpools/wasnorm_wordpool.txt	LTP127	ltpFR	17	4	n/a	NAVY	-1	n/a	n/a	n/a	n/a	n/a	n/a	n/a	n/a
660037	REC_WORD	wordpools/wasnorm_wordpool.txt	LTP127	ltpFR	17	4	-1	KNUCKLE	789	n/a	n/a	-1	n/a	n/a	n/a	n/a	n/a
662097	REC_WORD	wordpools/wasnorm_wordpool.txt	LTP127	ltpFR	17	4	-1	MOTOR	922	n/a	n/a	-1	n/a	n/a	n/a	n/a	n/a
662585	REC_WORD	wordpools/wasnorm_wordpool.txt	LTP127	ltpFR	17	4	-1	VALVE	1546	n/a	n/a	-1	n/a	n/a	n/a	n/a	n/a
663255	REC_WORD	wordpools/wasnorm_wordpool.txt	LTP127	ltpFR	17	4	-1	VEHICLE	1553	n/a	n/a	-1	n/a	n/a	n/a	n/a	n/a
665056	REC_WORD	wordpools/wasnorm_wordpool.txt	LTP127	ltpFR	17	4	n/a	CAR	241	n/a	n/a	n/a	n/a	n/a	n/a	n/a	n/a
668623	REC_WORD	wordpools/wasnorm_wordpool.txt	LTP127	ltpFR	17	4	-1	INFANT	737	n/a	n/a	-1	n/a	n/a	n/a	n/a	n/a
669371	REC_WORD	wordpools/wasnorm_wordpool.txt	LTP127	ltpFR	17	4	-1	ZOO	1637	n/a	n/a	-1	n/a	n/a	n/a	n/a	n/a
671082	REC_WORD	wordpools/wasnorm_wordpool.txt	LTP127	ltpFR	17	4	-1	PRIMATE	1123	n/a	n/a	-1	n/a	n/a	n/a	n/a	n/a
677408	REC_WORD	wordpools/wasnorm_wordpool.txt	LTP127	ltpFR	17	4	-1	NEWSSTAND	949	n/a	n/a	-1	n/a	n/a	n/a	n/a	n/a
765950	WORD	wordpools/wasnorm_wordpool.txt	LTP127	ltpFR	17	5	1	ARCHITECT	36	n/a	n/a	1	0.422607421875	0.5869140625	0	lower	zerothre.ttf
769957	WORD	wordpools/wasnorm_wordpool.txt	LTP127	ltpFR	17	5	1	BULL	193	n/a	n/a	1	0.422607421875	0.5869140625	0	lower	zerothre.ttf
773797	WORD	wordpools/wasnorm_wordpool.txt	LTP127	ltpFR	17	5	1	MILK	895	n/a	n/a	0	0.422607421875	0.5869140625	0	lower	zerothre.ttf
777995	WORD	wordpools/wasnorm_wordpool.txt	LTP127	ltpFR	17	5	1	MONEY	908	n/a	n/a	0	0.422607421875	0.5869140625	0	lower	zerothre.ttf
781902	WORD	wordpools/wasnorm_wordpool.txt	LTP127	ltpFR	17	5	1	AGENT	10	n/a	n/a	1	0.422607421875	0.5869140625	0	lower	zerothre.ttf
786043	WORD	wordpools/wasnorm_wordpool.txt	LTP127	ltpFR	17	5	1	SAUSAGE	1238	n/a	n/a	0	0.422607421875	0.5869140625	0	lower	zerothre.ttf
790008	WORD	wordpools/wasnorm_wordpool.txt	LTP127	ltpFR	17	5	1	ORCHESTRA	981	n/a	n/a	1	0.422607421875	0.5869140625	0	lower	zerothre.ttf
793981	WORD	wordpools/wasnorm_wordpool.txt	LTP127	ltpFR	17	5	1	CELLO	268	n/a	n/a	0	0.422607421875	0.5869140625	0	lower	zerothre.ttf
798147	WORD	wordpools/wasnorm_wordpool.txt	LTP127	ltpFR	17	5	1	SKETCH	1315	n/a	n/a	0	0.422607421875	0.5869140625	0	lower	zerothre.ttf
802228	WORD	wordpools/wasnorm_wordpool.txt	LTP127	ltpFR	17	5	1	WELL	1600	n/a	n/a	0	0.422607421875	0.5869140625	0	lower	zerothre.ttf
806378	WORD	wordpools/wasnorm_wordpool.txt	LTP127	ltpFR	17	5	1	FARMER	553	n/a	n/a	1	0.422607421875	0.5869140625	0	lower	zerothre.ttf
810318	WORD	wordpools/wasnorm_wordpool.txt	LTP127	ltpFR	17	5	1	PAINTING	1005	n/a	n/a	0	0.422607421875	0.5869140625	0	lower	zerothre.ttf
814507	WORD	wordpools/wasnorm_wordpool.txt	LTP127	ltpFR	17	5	1	HEART	697	n/a	n/a	0	0.422607421875	0.5869140625	0	lower	zerothre.ttf
818573	WORD	wordpools/wasnorm_wordpool.txt	LTP127	ltpFR	17	5	1	CANAL	226	n/a	n/a	0	0.422607421875	0.5869140625	0	lower	zerothre.ttf
822406	WORD	wordpools/wasnorm_wordpool.txt	LTP127	ltpFR	17	5	1	COACH	331	n/a	n/a	1	0.422607421875	0.5869140625	0	lower	zerothre.ttf
826354	WORD	wordpools/wasnorm_wordpool.txt	LTP127	ltpFR	17	5	1	RABBIT	1152	n/a	n/a	1	0.422607421875	0.5869140625	0	lower	zerothre.ttf
832444	REC_START	n/a	LTP127	ltpFR	17	5	n/a	n/a	n/a	n/a	n/a	n/a	n/a	n/a	n/a	n/a	n/a
833102	REC_WORD	wordpools/wasnorm_wordpool.txt	LTP127	ltpFR	17	5	1	HEART	697	n/a	n/a	0	n/a	n/a	n/a	n/a	n/a
833866	REC_WORD	wordpools/wasnorm_wordpool.txt	LTP127	ltpFR	17	5	1	COACH	331	n/a	n/a	1	n/a	n/a	n/a	n/a	n/a
834429	REC_WORD	wordpools/wasnorm_wordpool.txt	LTP127	ltpFR	17	5	1	CANAL	226	n/a	n/a	0	n/a	n/a	n/a	n/a	n/a
835157	REC_WORD	wordpools/wasnorm_wordpool.txt	LTP127	ltpFR	17	5	1	RABBIT	1152	n/a	n/a	1	n/a	n/a	n/a	n/a	n/a
838450	REC_WORD	wordpools/wasnorm_wordpool.txt	LTP127	ltpFR	17	5	1	PAINTING	1005	n/a	n/a	0	n/a	n/a	n/a	n/a	n/a
838978	REC_WORD	wordpools/wasnorm_wordpool.txt	LTP127	ltpFR	17	5	1	SKETCH	1315	n/a	n/a	0	n/a	n/a	n/a	n/a	n/a
839987	REC_WORD	wordpools/wasnorm_wordpool.txt	LTP127	ltpFR	17	5	n/a	DRAWING	494	n/a	n/a	n/a	n/a	n/a	n/a	n/a	n/a
840890	REC_WORD	wordpools/wasnorm_wordpool.txt	LTP127	ltpFR	17	5	1	ORCHESTRA	981	n/a	n/a	1	n/a	n/a	n/a	n/a	n/a
841698	REC_WORD	wordpools/wasnorm_wordpool.txt	LTP127	ltpFR	17	5	1	CELLO	268	n/a	n/a	0	n/a	n/a	n/a	n/a	n/a
847944	REC_WORD	wordpools/wasnorm_wordpool.txt	LTP127	ltpFR	17	5	1	ARCHITECT	36	n/a	n/a	1	n/a	n/a	n/a	n/a	n/a
848787	REC_WORD	wordpools/wasnorm_wordpool.txt	LTP127	ltpFR	17	5	1	BULL	193	n/a	n/a	1	n/a	n/a	n/a	n/a	n/a
849869	REC_WORD	wordpools/wasnorm_wordpool.txt	LTP127	ltpFR	17	5	1	WELL	1600	n/a	n/a	0	n/a	n/a	n/a	n/a	n/a
850588	REC_WORD	wordpools/wasnorm_wordpool.txt	LTP127	ltpFR	17	5	1	FARMER	553	n/a	n/a	1	n/a	n/a	n/a	n/a	n/a
853247	REC_WORD	wordpools/wasnorm_wordpool.txt	LTP127	ltpFR	17	5	1	AGENT	10	n/a	n/a	1	n/a	n/a	n/a	n/a	n/a
854050	REC_WORD	wordpools/wasnorm_wordpool.txt	LTP127	ltpFR	17	5	1	MONEY	908	n/a	n/a	0	n/a	n/a	n/a	n/a	n/a
901856	REC_WORD	wordpools/wasnorm_wordpool.txt	LTP127	ltpFR	17	5	1	SAUSAGE	1238	n/a	n/a	0	n/a	n/a	n/a	n/a	n/a
939472	WORD	wordpools/wasnorm_wordpool.txt	LTP127	ltpFR	17	6	0	NICOTINE	951	n/a	n/a	0	0.57763671875	0.412841796875	1	upper	amplitud.ttf
943396	WORD	wordpools/wasnorm_wordpool.txt	LTP127	ltpFR	17	6	0	BUGGY	188	n/a	n/a	0	0.57763671875	0.412841796875	1	upper	amplitud.ttf
947502	WORD	wordpools/wasnorm_wordpool.txt	LTP127	ltpFR	17	6	0	BEAD	103	n/a	n/a	0	0.57763671875	0.412841796875	1	upper	amplitud.ttf
951534	WORD	wordpools/wasnorm_wordpool.txt	LTP127	ltpFR	17	6	0	GOLD	647	n/a	n/a	0	0.57763671875	0.412841796875	1	upper	amplitud.ttf
955475	WORD	wordpools/wasnorm_wordpool.txt	LTP127	ltpFR	17	6	0	COLT	349	n/a	n/a	1	0.57763671875	0.412841796875	1	upper	amplitud.ttf
959639	WORD	wordpools/wasnorm_wordpool.txt	LTP127	ltpFR	17	6	0	PIPE	1073	n/a	n/a	0	0.57763671875	0.412841796875	1	upper	amplitud.ttf
963829	WORD	wordpools/wasnorm_wordpool.txt	LTP127	ltpFR	17	6	0	PARSLEY	1016	n/a	n/a	0	0.57763671875	0.412841796875	1	upper	amplitud.ttf
967803	WORD	wordpools/wasnorm_wordpool.txt	LTP127	ltpFR	17	6	0	WEED	1599	n/a	n/a	1	0.57763671875	0.412841796875	1	upper	amplitud.ttf
971985	WORD	wordpools/wasnorm_wordpool.txt	LTP127	ltpFR	17	6	0	SUITE	1404	n/a	n/a	1	0.57763671875	0.412841796875	1	upper	amplitud.ttf
975800	WORD	wordpools/wasnorm_wordpool.txt	LTP127	ltpFR	17	6	0	DORM	488	n/a	n/a	1	0.57763671875	0.412841796875	1	upper	amplitud.ttf
979890	WORD	wordpools/wasnorm_wordpool.txt	LTP127	ltpFR	17	6	0	LUGGAGE	847	n/a	n/a	1	0.57763671875	0.412841796875	1	upper	amplitud.ttf
983797	WORD	wordpools/wasnorm_wordpool.txt	LTP127	ltpFR	17	6	0	COLOGNE	347	n/a	n/a	0	0.57763671875	0.412841796875	1	upper	amplitud.ttf
987729	WORD	wordpools/wasnorm_wordpool.txt	LTP127	ltpFR	17	6	0	AIRCRAFT	11	n/a	n/a	1	0.57763671875	0.412841796875	1	upper	amplitud.ttf
991653	WORD	wordpools/wasnorm_wordpool.txt	LTP127	ltpFR	17	6	0	CONVENT	370	n/a	n/a	1	0.57763671875	0.412841796875	1	upper	amplitud.ttf
995593	WORD	wordpools/wasnorm_wordpool.txt	LTP127	ltpFR	17	6	0	SACK	1220	n/a	n/a	0	0.57763671875	0.412841796875	1	upper	amplitud.ttf
999750	WORD	wordpools/wasnorm_wordpool.txt	LTP127	ltpFR	17	6	0	GARAGE	621	n/a	n/a	0	0.57763671875	0.412841796875	1	upper	amplitud.ttf
1005482	REC_START	n/a	LTP127	ltpFR	17	6	n/a	n/a	n/a	n/a	n/a	n/a	n/a	n/a	n/a	n/a	n/a
1006589	REC_WORD	wordpools/wasnorm_wordpool.txt	LTP127	ltpFR	17	6	0	GARAGE	621	n/a	n/a	0	n/a	n/a	n/a	n/a	n/a
1007572	REC_WORD	wordpools/wasnorm_wordpool.txt	LTP127	ltpFR	17	6	0	SACK	1220	n/a	n/a	0	n/a	n/a	n/a	n/a	n/a
1008415	REC_WORD	wordpools/wasnorm_wordpool.txt	LTP127	ltpFR	17	6	0	SUITE	1404	n/a	n/a	1	n/a	n/a	n/a	n/a	n/a
1009722	REC_WORD	wordpools/wasnorm_wordpool.txt	LTP127	ltpFR	17	6	0	DORM	488	n/a	n/a	1	n/a	n/a	n/a	n/a	n/a
1010191	REC_WORD	wordpools/wasnorm_wordpool.txt	LTP127	ltpFR	17	6	0	LUGGAGE	847	n/a	n/a	1	n/a	n/a	n/a	n/a	n/a
1010850	REC_WORD	wordpools/wasnorm_wordpool.txt	LTP127	ltpFR	17	6	0	COLOGNE	347	n/a	n/a	0	n/a	n/a	n/a	n/a	n/a
1016906	REC_WORD	wordpools/wasnorm_wordpool.txt	LTP127	ltpFR	17	6	0	BUGGY	188	n/a	n/a	0	n/a	n/a	n/a	n/a	n/a
1018896	REC_WORD	wordpools/wasnorm_wordpool.txt	LTP127	ltpFR	17	6	0	BEAD	103	n/a	n/a	0	n/a	n/a	n/a	n/a	n/a
1019550	REC_WORD	wordpools/wasnorm_wordpool.txt	LTP127	ltpFR	17	6	0	COLT	349	n/a	n/a	1	n/a	n/a	n/a	n/a	n/a
1022433	REC_WORD	wordpools/wasnorm_wordpool.txt	LTP127	ltpFR	17	6	0	NICOTINE	951	n/a	n/a	0	n/a	n/a	n/a	n/a	n/a
1023995	REC_WORD	wordpools/wasnorm_wordpool.txt	LTP127	ltpFR	17	6	0	PIPE	1073	n/a	n/a	0	n/a	n/a	n/a	n/a	n/a
1025900	REC_WORD	wordpools/wasnorm_wordpool.txt	LTP127	ltpFR	17	6	n/a	SMOKE	-1	n/a	n/a	n/a	n/a	n/a	n/a	n/a	n/a
1026848	REC_WORD	wordpools/wasnorm_wordpool.txt	LTP127	ltpFR	17	6	0	WEED	1599	n/a	n/a	1	n/a	n/a	n/a	n/a	n/a
1031014	REC_WORD	wordpools/wasnorm_wordpool.txt	LTP127	ltpFR	17	6	n/a	SMOKE	-1	n/a	n/a	n/a	n/a	n/a	n/a	n/a	n/a
1062991	REC_WORD	wordpools/wasnorm_wordpool.txt	LTP127	ltpFR	17	6	0	GOLD	647	n/a	n/a	0	n/a	n/a	n/a	n/a	n/a
1065186	REC_WORD	wordpools/wasnorm_wordpool.txt	LTP127	ltpFR	17	6	1	MONEY	908	n/a	n/a	0	n/a	n/a	n/a	n/a	n/a
1119541	WORD	wordpools/wasnorm_wordpool.txt	LTP127	ltpFR	17	7	0	CRATER	400	n/a	n/a	1	0.57763671875	0.412841796875	1	upper	amplitud.ttf
1123606	WORD	wordpools/wasnorm_wordpool.txt	LTP127	ltpFR	17	7	0	CREVICE	405	n/a	n/a	1	0.57763671875	0.412841796875	1	upper	amplitud.ttf
1127813	WORD	wordpools/wasnorm_wordpool.txt	LTP127	ltpFR	17	7	0	SKULL	1320	n/a	n/a	0	0.57763671875	0.412841796875	1	upper	amplitud.ttf
1131820	WORD	wordpools/wasnorm_wordpool.txt	LTP127	ltpFR	17	7	0	TRANSPLANT	1496	n/a	n/a	0	0.57763671875	0.412841796875	1	upper	amplitud.ttf
1135652	WORD	wordpools/wasnorm_wordpool.txt	LTP127	ltpFR	17	7	1	CHICKEN	297	n/a	n/a	1	0.422607421875	0.5869140625	0	lower	zerothre.ttf
1139650	WORD	wordpools/wasnorm_wordpool.txt	LTP127	ltpFR	17	7	1	SUPERVISOR	1410	n/a	n/a	1	0.422607421875	0.5869140625	0	lower	zerothre.ttf
1143690	WORD	wordpools/wasnorm_wordpool.txt	LTP127	ltpFR	17	7	1	CLAMP	316	n/a	n/a	0	0.422607421875	0.5869140625	0	lower	zerothre.ttf
1147806	WORD	wordpools/wasnorm_wordpool.txt	LTP127	ltpFR	17	7	1	MARSH	874	n/a	n/a	0	0.422607421875	0.5869140625	0	lower	zerothre.ttf
1151746	WORD	wordpools/wasnorm_wordpool.txt	LTP127	ltpFR	17	7	1	EMPLOYEE	531	n/a	n/a	1	0.422607421875	0.5869140625	0	lower	zerothre.ttf
1155786	WORD	wordpools/wasnorm_wordpool.txt	LTP127	ltpFR	17	7	0	YARD	1630	n/a	n/a	1	0.57763671875	0.412841796875	1	upper	amplitud.ttf
1159910	WORD	wordpools/wasnorm_wordpool.txt	LTP127	ltpFR	17	7	0	MOWER	928	n/a	n/a	1	0.57763671875	0.412841796875	1	upper	amplitud.ttf
1163842	WORD	wordpools/wasnorm_wordpool.txt	LTP127	ltpFR	17	7	1	SISTER	1312	n/a	n/a	1	0.422607421875	0.5869140625	0	lower	zerothre.ttf
1167665	WORD	wordpools/wasnorm_wordpool.txt	LTP127	ltpFR	17	7	1	STOCKING	1383	n/a	n/a	0	0.422607421875	0.5869140625	0	lower	zerothre.ttf
1171722	WORD	wordpools/wasnorm_wordpool.txt	LTP127	ltpFR	17	7	1	EGG	518	n/a	n/a	1	0.422607421875	0.5869140625	0	lower	zerothre.ttf
1175929	WORD	wordpools/wasnorm_wordpool.txt	LTP127	ltpFR	17	7	0	DRIVEWAY	500	n/a	n/a	1	0.57763671875	0.412841796875	1	upper	amplitud.ttf
1179761	WORD	wordpools/wasnorm_wordpool.txt	LTP127	ltpFR	17	7	0	RAT	1169	n/a	n/a	0	0.57763671875	0.412841796875	1	upper	amplitud.ttf
1185452	REC_START	n/a	LTP127	ltpFR	17	7	n/a	n/a	n/a	n/a	n/a	n/a	n/a	n/a	n/a	n/a	n/a
1187113	REC_WORD	wordpools/wasnorm_wordpool.txt	LTP127	ltpFR	17	7	0	RAT	1169	n/a	n/a	0	n/a	n/a	n/a	n/a	n/a
1187856	REC_WORD	wordpools/wasnorm_wordpool.txt	LTP127	ltpFR	17	7	0	DRIVEWAY	500	n/a	n/a	1	n/a	n/a	n/a	n/a	n/a
1189168	REC_WORD	wordpools/wasnorm_wordpool.txt	LTP127	ltpFR	17	7	1	EGG	518	n/a	n/a	1	n/a	n/a	n/a	n/a	n/a
1189767	REC_WORD	wordpools/wasnorm_wordpool.txt	LTP127	ltpFR	17	7	1	CHICKEN	297	n/a	n/a	1	n/a	n/a	n/a	n/a	n/a
1192107	REC_WORD	wordpools/wasnorm_wordpool.txt	LTP127	ltpFR	17	7	1	EGG	518	n/a	n/a	1	n/a	n/a	n/a	n/a	n/a
1194082	REC_WORD	wordpools/wasnorm_wordpool.txt	LTP127	ltpFR	17	7	1	SISTER	1312	n/a	n/a	1	n/a	n/a	n/a	n/a	n/a
1194821	REC_WORD	wordpools/wasnorm_wordpool.txt	LTP127	ltpFR	17	7	1	CLAMP	316	n/a	n/a	0	n/a	n/a	n/a	n/a	n/a
1195599	REC_WORD	wordpools/wasnorm_wordpool.txt	LTP127	ltpFR	17	7	1	SUPERVISOR	1410	n/a	n/a	1	n/a	n/a	n/a	n/a	n/a
1198148	REC_WORD	wordpools/wasnorm_wordpool.txt	LTP127	ltpFR	17	7	1	EMPLOYEE	531	n/a	n/a	1	n/a	n/a	n/a	n/a	n/a
1199186	REC_WORD	wordpools/wasnorm_wordpool.txt	LTP127	ltpFR	17	7	n/a	WORK	-1	n/a	n/a	n/a	n/a	n/a	n/a	n/a	n/a
1201760	REC_WORD	wordpools/wasnorm_wordpool.txt	LTP127	ltpFR	17	7	0	CREVICE	405	n/a	n/a	1	n/a	n/a	n/a	n/a	n/a
1202398	REC_WORD	wordpools/wasnorm_wordpool.txt	LTP127	ltpFR	17	7	n/a	CRACK	-1	n/a	n/a	n/a	n/a	n/a	n/a	n/a	n/a
1203995	REC_WORD	wordpools/wasnorm_wordpool.txt	LTP127	ltpFR	17	7	0	YARD	1630	n/a	n/a	1	n/a	n/a	n/a	n/a	n/a
1204753	REC_WORD	wordpools/wasnorm_wordpool.txt	LTP127	ltpFR	17	7	0	MOWER	928	n/a	n/a	1	n/a	n/a	n/a	n/a	n/a
1206010	REC_WORD	wordpools/wasnorm_wordpool.txt	LTP127	ltpFR	17	7	0	CRATER	400	n/a	n/a	1	n/a	n/a	n/a	n/a	n/a
1207098	REC_WORD	wordpools/wasnorm_wordpool.txt	LTP127	ltpFR	17	7	n/a	CRACK	-1	n/a	n/a	n/a	n/a	n/a	n/a	n/a	n/a
1222403	REC_WORD	wordpools/wasnorm_wordpool.txt	LTP127	ltpFR	17	7	1	STOCKING	1383	n/a	n/a	0	n/a	n/a	n/a	n/a	n/a
1277460	WORD	wordpools/wasnorm_wordpool.txt	LTP127	ltpFR	17	8	-1	ARMY	39	n/a	n/a	-1	1.0	1.0	1	upper	Verdana.ttf
1281417	WORD	wordpools/wasnorm_wordpool.txt	LTP127	ltpFR	17	8	-1	BEAN	105	n/a	n/a	-1	1.0	1.0	1	upper	Verdana.ttf
1285466	WORD	wordpools/wasnorm_wordpool.txt	LTP127	ltpFR	17	8	-1	DOUGHNUT	490	n/a	n/a	-1	1.0	1.0	1	upper	Verdana.ttf
1289281	WORD	wordpools/wasnorm_wordpool.txt	LTP127	ltpFR	17	8	-1	BUNNY	198	n/a	n/a	-1	1.0	1.0	1	upper	Verdana.ttf
1293471	WORD	wordpools/wasnorm_wordpool.txt	LTP127	ltpFR	17	8	-1	SHOP	1290	n/a	n/a	-1	1.0	1.0	1	upper	Verdana.ttf
1297602	WORD	wordpools/wasnorm_wordpool.txt	LTP127	ltpFR	17	8	-1	SHEPHERD	1283	n/a	n/a	-1	1.0	1.0	1	upper	Verdana.ttf
1301584	WORD	wordpools/wasnorm_wordpool.txt	LTP127	ltpFR	17	8	-1	COMPASS	358	n/a	n/a	-1	1.0	1.0	1	upper	Verdana.ttf
1305741	WORD	wordpools/wasnorm_wordpool.txt	LTP127	ltpFR	17	8	-1	BEAKER	104	n/a	n/a	-1	1.0	1.0	1	upper	Verdana.ttf
1309923	WORD	wordpools/wasnorm_wordpool.txt	LTP127	ltpFR	17	8	-1	SCIENTIST	1249	n/a	n/a	-1	1.0	1.0	1	upper	Verdana.ttf
1313955	WORD	wordpools/wasnorm_wordpool.txt	LTP127	ltpFR	17	8	-1	CREATURE	403	n/a	n/a	-1	1.0	1.0	1	upper	Verdana.ttf
1317987	WORD	wordpools/wasnorm_wordpool.txt	LTP127	ltpFR	17	8	-1	UNIFORM	1539	n/a	n/a	-1	1.0	1.0	1	upper	Verdana.ttf
1321835	WORD	wordpools/wasnorm_wordpool.txt	LTP127	ltpFR	17	8	-1	TOOTHPASTE	1483	n/a	n/a	-1	1.0	1.0	1	upper	Verdana.ttf
1325784	WORD	wordpools/wasnorm_wordpool.txt	LTP127	ltpFR	17	8	-1	EMERALD	528	n/a	n/a	-1	1.0	1.0	1	upper	Verdana.ttf
1329874	WORD	wordpools/wasnorm_wordpool.txt	LTP127	ltpFR	17	8	-1	SPINACH	1352	n/a	n/a	-1	1.0	1.0	1	upper	Verdana.ttf
1333989	WORD	wordpools/wasnorm_wordpool.txt	LTP127	ltpFR	17	8	-1	CHEMIST	292	n/a	n/a	-1	1.0	1.0	1	upper	Verdana.ttf
1338046	WORD	wordpools/wasnorm_wordpool.txt	LTP127	ltpFR	17	8	-1	TOOTHBRUSH	1482	n/a	n/a	-1	1.0	1.0	1	upper	Verdana.ttf
1343995	REC_START	n/a	LTP127	ltpFR	17	8	n/a	n/a	n/a	n/a	n/a	n/a	n/a	n/a	n/a	n/a	n/a
1346160	REC_WORD	wordpools/wasnorm_wordpool.txt	LTP127	ltpFR	17	8	-1	TOOTHPASTE	1483	n/a	n/a	-1	n/a	n/a	n/a	n/a	n/a
1347058	REC_WORD	wordpools/wasnorm_wordpool.txt	LTP127	ltpFR	17	8	-1	TOOTHBRUSH	1482	n/a	n/a	-1	n/a	n/a	n/a	n/a	n/a
1347966	REC_WORD	wordpools/wasnorm_wordpool.txt	LTP127	ltpFR	17	8	n/a	TEETH	-1	n/a	n/a	n/a	n/a	n/a	n/a	n/a	n/a
1348914	REC_WORD	wordpools/wasnorm_wordpool.txt	LTP127	ltpFR	17	8	-1	BEAKER	104	n/a	n/a	-1	n/a	n/a	n/a	n/a	n/a
1349876	REC_WORD	wordpools/wasnorm_wordpool.txt	LTP127	ltpFR	17	8	-1	SCIENTIST	1249	n/a	n/a	-1	n/a	n/a	n/a	n/a	n/a
1352620	REC_WORD	wordpools/wasnorm_wordpool.txt	LTP127	ltpFR	17	8	-1	CHEMIST	292	n/a	n/a	-1	n/a	n/a	n/a	n/a	n/a
1353498	REC_WORD	wordpools/wasnorm_wordpool.txt	LTP127	ltpFR	17	8	n/a	SCIENCE	-1	n/a	n/a	n/a	n/a	n/a	n/a	n/a	n/a
1356781	REC_WORD	wordpools/wasnorm_wordpool.txt	LTP127	ltpFR	17	8	-1	EMERALD	528	n/a	n/a	-1	n/a	n/a	n/a	n/a	n/a
1357479	REC_WORD	wordpools/wasnorm_wordpool.txt	LTP127	ltpFR	17	8	-1	DOUGHNUT	490	n/a	n/a	-1	n/a	n/a	n/a	n/a	n/a
1358183	REC_WORD	wordpools/wasnorm_wordpool.txt	LTP127	ltpFR	17	8	-1	BEAN	105	n/a	n/a	-1	n/a	n/a	n/a	n/a	n/a
1359380	REC_WORD	wordpools/wasnorm_wordpool.txt	LTP127	ltpFR	17	8	-1	SHOP	1290	n/a	n/a	-1	n/a	n/a	n/a	n/a	n/a
1361480	REC_WORD	wordpools/wasnorm_wordpool.txt	LTP127	ltpFR	17	8	-1	SHEPHERD	1283	n/a	n/a	-1	n/a	n/a	n/a	n/a	n/a
1366928	REC_WORD	wordpools/wasnorm_wordpool.txt	LTP127	ltpFR	17	8	-1	UNIFORM	1539	n/a	n/a	-1	n/a	n/a	n/a	n/a	n/a
1369926	REC_WORD	wordpools/wasnorm_wordpool.txt	LTP127	ltpFR	17	8	-1	BUNNY	198	n/a	n/a	-1	n/a	n/a	n/a	n/a	n/a
1370679	REC_WORD	wordpools/wasnorm_wordpool.txt	LTP127	ltpFR	17	8	-1	ARMY	39	n/a	n/a	-1	n/a	n/a	n/a	n/a	n/a
1451914	WORD	wordpools/wasnorm_wordpool.txt	LTP127	ltpFR	17	9	0	VIKING	1565	n/a	n/a	1	0.57763671875	0.412841796875	1	upper	amplitud.ttf
1455988	WORD	wordpools/wasnorm_wordpool.txt	LTP127	ltpFR	17	9	0	WALLET	1583	n/a	n/a	0	0.57763671875	0.412841796875	1	upper	amplitud.ttf
1460086	WORD	wordpools/wasnorm_wordpool.txt	LTP127	ltpFR	17	9	1	POCKET	1093	n/a	n/a	0	0.422607421875	0.5869140625	0	lower	zerothre.ttf
1463927	WORD	wordpools/wasnorm_wordpool.txt	LTP127	ltpFR	17	9	1	HIP	710	n/a	n/a	1	0.422607421875	0.5869140625	0	lower	zerothre.ttf
1467958	WORD	wordpools/wasnorm_wordpool.txt	LTP127	ltpFR	17	9	1	RADIO	1157	n/a	n/a	0	0.422607421875	0.5869140625	0	lower	zerothre.ttf
1472165	WORD	wordpools/wasnorm_wordpool.txt	LTP127	ltpFR	17	9	1	DECK	443	n/a	n/a	0	0.422607421875	0.5869140625	0	lower	zerothre.ttf
1476147	WORD	wordpools/wasnorm_wordpool.txt	LTP127	ltpFR	17	9	1	OAR	966	n/a	n/a	0	0.422607421875	0.5869140625	0	lower	zerothre.ttf
1480146	WORD	wordpools/wasnorm_wordpool.txt	LTP127	ltpFR	17	9	1	CROCODILE	411	n/a	n/a	1	0.422607421875	0.5869140625	0	lower	zerothre.ttf
1484061	WORD	wordpools/wasnorm_wordpool.txt	LTP127	ltpFR	17	9	0	ANT	25	n/a	n/a	0	0.57763671875	0.412841796875	1	upper	amplitud.ttf
1488126	WORD	wordpools/wasnorm_wordpool.txt	LTP127	ltpFR	17	9	0	SERVANT	1271	n/a	n/a	1	0.57763671875	0.412841796875	1	upper	amplitud.ttf
1491950	WORD	wordpools/wasnorm_wordpool.txt	LTP127	ltpFR	17	9	0	PAW	1029	n/a	n/a	0	0.57763671875	0.412841796875	1	upper	amplitud.ttf
1496048	WORD	wordpools/wasnorm_wordpool.txt	LTP127	ltpFR	17	9	0	HARP	689	n/a	n/a	0	0.57763671875	0.412841796875	1	upper	amplitud.ttf
1500097	WORD	wordpools/wasnorm_wordpool.txt	LTP127	ltpFR	17	9	0	ELBOW	520	n/a	n/a	1	0.57763671875	0.412841796875	1	upper	amplitud.ttf
1504237	WORD	wordpools/wasnorm_wordpool.txt	LTP127	ltpFR	17	9	0	PORT	1110	n/a	n/a	1	0.57763671875	0.412841796875	1	upper	amplitud.ttf
1508395	WORD	wordpools/wasnorm_wordpool.txt	LTP127	ltpFR	17	9	1	CARDINAL	244	n/a	n/a	1	0.422607421875	0.5869140625	0	lower	zerothre.ttf
1512493	WORD	wordpools/wasnorm_wordpool.txt	LTP127	ltpFR	17	9	1	HAND	683	n/a	n/a	1	0.422607421875	0.5869140625	0	lower	zerothre.ttf
1518359	REC_START	n/a	LTP127	ltpFR	17	9	n/a	n/a	n/a	n/a	n/a	n/a	n/a	n/a	n/a	n/a	n/a
1519052	REC_WORD	wordpools/wasnorm_wordpool.txt	LTP127	ltpFR	17	9	1	HAND	683	n/a	n/a	1	n/a	n/a	n/a	n/a	n/a
1519895	REC_WORD	wordpools/wasnorm_wordpool.txt	LTP127	ltpFR	17	9	0	ELBOW	520	n/a	n/a	1	n/a	n/a	n/a	n/a	n/a
1522355	REC_WORD	wordpools/wasnorm_wordpool.txt	LTP127	ltpFR	17	9	1	CARDINAL	244	n/a	n/a	1	n/a	n/a	n/a	n/a	n/a
1523013	REC_WORD	wordpools/wasnorm_wordpool.txt	LTP127	ltpFR	17	9	1	CROCODILE	411	n/a	n/a	1	n/a	n/a	n/a	n/a	n/a
1524151	REC_WORD	wordpools/wasnorm_wordpool.txt	LTP127	ltpFR	17	9	n/a	ANIMAL	23	n/a	n/a	n/a	n/a	n/a	n/a	n/a	n/a
1526351	REC_WORD	wordpools/wasnorm_wordpool.txt	LTP127	ltpFR	17	9	1	DECK	443	n/a	n/a	0	n/a	n/a	n/a	n/a	n/a
1527064	REC_WORD	wordpools/wasnorm_wordpool.txt	LTP127	ltpFR	17	9	1	RADIO	1157	n/a	n/a	0	n/a	n/a	n/a	n/a	n/a
1528017	REC_WORD	wordpools/wasnorm_wordpool.txt	LTP127	ltpFR	17	9	1	OAR	966	n/a	n/a	0	n/a	n/a	n/a	n/a	n/a
1530451	REC_WORD	wordpools/wasnorm_wordpool.txt	LTP127	ltpFR	17	9	1	HIP	710	n/a	n/a	1	n/a	n/a	n/a	n/a	n/a
1531115	REC_WORD	wordpools/wasnorm_wordpool.txt	LTP127	ltpFR	17	9	1	POCKET	1093	n/a	n/a	0	n/a	n/a	n/a	n/a	n/a
1531713	REC_WORD	wordpools/wasnorm_wordpool.txt	LTP127	ltpFR	17	9	0	WALLET	1583	n/a	n/a	0	n/a	n/a	n/a	n/a	n/a
1532262	REC_WORD	wordpools/wasnorm_wordpool.txt	LTP127	ltpFR	17	9	0	VIKING	1565	n/a	n/a	1	n/a	n/a	n/a	n/a	n/a
1556921	REC_WORD	wordpools/wasnorm_wordpool.txt	LTP127	ltpFR	17	9	0	ANT	25	n/a	n/a	0	n/a	n/a	n/a	n/a	n/a
1617415	WORD	wordpools/wasnorm_wordpool.txt	LTP127	ltpFR	17	10	1	GOBLIN	645	n/a	n/a	1	0.422607421875	0.5869140625	0	lower	zerothre.ttf
1621595	WORD	wordpools/wasnorm_wordpool.txt	LTP127	ltpFR	17	10	1	SHEET	1279	n/a	n/a	0	0.422607421875	0.5869140625	0	lower	zerothre.ttf
1625470	WORD	wordpools/wasnorm_wordpool.txt	LTP127	ltpFR	17	10	1	RING	1193	n/a	n/a	0	0.422607421875	0.5869140625	0	lower	zerothre.ttf
1629460	WORD	wordpools/wasnorm_wordpool.txt	LTP127	ltpFR	17	10	1	QUILL	1150	n/a	n/a	0	0.422607421875	0.5869140625	0	lower	zerothre.ttf
1633675	WORD	wordpools/wasnorm_wordpool.txt	LTP127	ltpFR	17	10	1	BUILDER	190	n/a	n/a	0	0.422607421875	0.5869140625	0	lower	zerothre.ttf
1637515	WORD	wordpools/wasnorm_wordpool.txt	LTP127	ltpFR	17	10	1	BUILDING	191	n/a	n/a	0	0.422607421875	0.5869140625	0	lower	zerothre.ttf
1641538	WORD	wordpools/wasnorm_wordpool.txt	LTP127	ltpFR	17	10	1	HOUND	724	n/a	n/a	1	0.422607421875	0.5869140625	0	lower	zerothre.ttf
1645396	WORD	wordpools/wasnorm_wordpool.txt	LTP127	ltpFR	17	10	1	JEANS	752	n/a	n/a	0	0.422607421875	0.5869140625	0	lower	zerothre.ttf
1649244	WORD	wordpools/wasnorm_wordpool.txt	LTP127	ltpFR	17	10	1	PEARL	1034	n/a	n/a	0	0.422607421875	0.5869140625	0	lower	zerothre.ttf
1653076	WORD	wordpools/wasnorm_wordpool.txt	LTP127	ltpFR	17	10	1	BLACKBOARD	133	n/a	n/a	0	0.422607421875	0.5869140625	0	lower	zerothre.ttf
1656958	WORD	wordpools/wasnorm_wordpool.txt	LTP127	ltpFR	17	10	1	CAT	257	n/a	n/a	1	0.422607421875	0.5869140625	0	lower	zerothre.ttf
1660981	WORD	wordpools/wasnorm_wordpool.txt	LTP127	ltpFR	17	10	1	CANDIDATE	228	n/a	n/a	1	0.422607421875	0.5869140625	0	lower	zerothre.ttf
1664888	WORD	wordpools/wasnorm_wordpool.txt	LTP127	ltpFR	17	10	1	LEMON	810	n/a	n/a	0	0.422607421875	0.5869140625	0	lower	zerothre.ttf
1669054	WORD	wordpools/wasnorm_wordpool.txt	LTP127	ltpFR	17	10	1	APPLICATION	34	n/a	n/a	0	0.422607421875	0.5869140625	0	lower	zerothre.ttf
1673119	WORD	wordpools/wasnorm_wordpool.txt	LTP127	ltpFR	17	10	1	MINK	897	n/a	n/a	0	0.422607421875	0.5869140625	0	lower	zerothre.ttf
1677285	WORD	wordpools/wasnorm_wordpool.txt	LTP127	ltpFR	17	10	1	RACCOON	1153	n/a	n/a	1	0.422607421875	0.5869140625	0	lower	zerothre.ttf
1683141	REC_START	n/a	LTP127	ltpFR	17	10	n/a	n/a	n/a	n/a	n/a	n/a	n/a	n/a	n/a	n/a	n/a
1684163	REC_WORD	wordpools/wasnorm_wordpool.txt	LTP127	ltpFR	17	10	1	RACCOON	1153	n/a	n/a	1	n/a	n/a	n/a	n/a	n/a
1685131	REC_WORD	wordpools/wasnorm_wordpool.txt	LTP127	ltpFR	17	10	1	MINK	897	n/a	n/a	0	n/a	n/a	n/a	n/a	n/a
1686014	REC_WORD	wordpools/wasnorm_wordpool.txt	LTP127	ltpFR	17	10	1	RACCOON	1153	n/a	n/a	1	n/a	n/a	n/a	n/a	n/a
1687356	REC_WORD	wordpools/wasnorm_wordpool.txt	LTP127	ltpFR	17	10	1	APPLICATION	34	n/a	n/a	0	n/a	n/a	n/a	n/a	n/a
1689611	REC_WORD	wordpools/wasnorm_wordpool.txt	LTP127	ltpFR	17	10	1	SHEET	1279	n/a	n/a	0	n/a	n/a	n/a	n/a	n/a
1690549	REC_WORD	wordpools/wasnorm_wordpool.txt	LTP127	ltpFR	17	10	1	JEANS	752	n/a	n/a	0	n/a	n/a	n/a	n/a	n/a
1691242	REC_WORD	wordpools/wasnorm_wordpool.txt	LTP127	ltpFR	17	10	1	GOBLIN	645	n/a	n/a	1	n/a	n/a	n/a	n/a	n/a
1694226	REC_WORD	wordpools/wasnorm_wordpool.txt	LTP127	ltpFR	17	10	1	RING	1193	n/a	n/a	0	n/a	n/a	n/a	n/a	n/a
1695089	REC_WORD	wordpools/wasnorm_wordpool.txt	LTP127	ltpFR	17	10	1	PEARL	1034	n/a	n/a	0	n/a	n/a	n/a	n/a	n/a
1696760	REC_WORD	wordpools/wasnorm_wordpool.txt	LTP127	ltpFR	17	10	1	QUILL	1150	n/a	n/a	0	n/a	n/a	n/a	n/a	n/a
1699948	REC_WORD	wordpools/wasnorm_wordpool.txt	LTP127	ltpFR	17	10	1	BUILDING	191	n/a	n/a	0	n/a	n/a	n/a	n/a	n/a
1700556	REC_WORD	wordpools/wasnorm_wordpool.txt	LTP127	ltpFR	17	10	1	BUILDER	190	n/a	n/a	0	n/a	n/a	n/a	n/a	n/a
1769251	WORD	wordpools/wasnorm_wordpool.txt	LTP127	ltpFR	17	11	0	GANG	619	n/a	n/a	1	0.57763671875	0.412841796875	1	upper	amplitud.ttf
1773418	WORD	wordpools/wasnorm_wordpool.txt	LTP127	ltpFR	17	11	0	FIG	563	n/a	n/a	0	0.57763671875	0.412841796875	1	upper	amplitud.ttf
1777274	WORD	wordpools/wasnorm_wordpool.txt	LTP127	ltpFR	17	11	0	OPERA	978	n/a	n/a	1	0.57763671875	0.412841796875	1	upper	amplitud.ttf
1781356	WORD	wordpools/wasnorm_wordpool.txt	LTP127	ltpFR	17	11	0	CACTUS	215	n/a	n/a	1	0.57763671875	0.412841796875	1	upper	amplitud.ttf
1785487	WORD	wordpools/wasnorm_wordpool.txt	LTP127	ltpFR	17	11	0	CANDY	230	n/a	n/a	0	0.57763671875	0.412841796875	1	upper	amplitud.ttf
1789577	WORD	wordpools/wasnorm_wordpool.txt	LTP127	ltpFR	17	11	0	LIEUTENANT	818	n/a	n/a	1	0.57763671875	0.412841796875	1	upper	amplitud.ttf
1793477	WORD	wordpools/wasnorm_wordpool.txt	LTP127	ltpFR	17	11	0	INN	739	n/a	n/a	0	0.57763671875	0.412841796875	1	upper	amplitud.ttf
1797566	WORD	wordpools/wasnorm_wordpool.txt	LTP127	ltpFR	17	11	0	FAMILY	550	n/a	n/a	1	0.57763671875	0.412841796875	1	upper	amplitud.ttf
1801698	WORD	wordpools/wasnorm_wordpool.txt	LTP127	ltpFR	17	11	0	COLONEL	348	n/a	n/a	1	0.57763671875	0.412841796875	1	upper	amplitud.ttf
1805772	WORD	wordpools/wasnorm_wordpool.txt	LTP127	ltpFR	17	11	0	TRAIN	1494	n/a	n/a	0	0.57763671875	0.412841796875	1	upper	amplitud.ttf
1809887	WORD	wordpools/wasnorm_wordpool.txt	LTP127	ltpFR	17	11	0	ENGINEER	536	n/a	n/a	1	0.57763671875	0.412841796875	1	upper	amplitud.ttf
1813969	WORD	wordpools/wasnorm_wordpool.txt	LTP127	ltpFR	17	11	0	COOKIE	374	n/a	n/a	0	0.57763671875	0.412841796875	1	upper	amplitud.ttf
1818059	WORD	wordpools/wasnorm_wordpool.txt	LTP127	ltpFR	17	11	0	SHRIMP	1297	n/a	n/a	0	0.57763671875	0.412841796875	1	upper	amplitud.ttf
1821916	WORD	wordpools/wasnorm_wordpool.txt	LTP127	ltpFR	17	11	0	SARDINE	1235	n/a	n/a	0	0.57763671875	0.412841796875	1	upper	amplitud.ttf
1825823	WORD	wordpools/wasnorm_wordpool.txt	LTP127	ltpFR	17	11	0	LIMB	822	n/a	n/a	1	0.57763671875	0.412841796875	1	upper	amplitud.ttf
1829963	WORD	wordpools/wasnorm_wordpool.txt	LTP127	ltpFR	17	11	0	GLOVE	642	n/a	n/a	0	0.57763671875	0.412841796875	1	upper	amplitud.ttf
1835703	REC_START	n/a	LTP127	ltpFR	17	11	n/a	n/a	n/a	n/a	n/a	n/a	n/a	n/a	n/a	n/a	n/a
1836536	REC_WORD	wordpools/wasnorm_wordpool.txt	LTP127	ltpFR	17	11	0	LIMB	822	n/a	n/a	1	n/a	n/a	n/a	n/a	n/a
1837294	REC_WORD	wordpools/wasnorm_wordpool.txt	LTP127	ltpFR	17	11	0	GLOVE	642	n/a	n/a	0	n/a	n/a	n/a	n/a	n/a
1838486	REC_WORD	wordpools/wasnorm_wordpool.txt	LTP127	ltpFR	17	11	1	HAND	683	n/a	n/a	1	n/a	n/a	n/a	n/a	n/a
1839554	REC_WORD	wordpools/wasnorm_wordpool.txt	LTP127	ltpFR	17	11	0	TRAIN	1494	n/a	n/a	0	n/a	n/a	n/a	n/a	n/a
1842647	REC_WORD	wordpools/wasnorm_wordpool.txt	LTP127	ltpFR	17	11	0	ENGINEER	536	n/a	n/a	1	n/a	n/a	n/a	n/a	n/a
1844757	REC_WORD	wordpools/wasnorm_wordpool.txt	LTP127	ltpFR	17	11	0	LIEUTENANT	818	n/a	n/a	1	n/a	n/a	n/a	n/a	n/a
1845515	REC_WORD	wordpools/wasnorm_wordpool.txt	LTP127	ltpFR	17	11	0	COLONEL	348	n/a	n/a	1	n/a	n/a	n/a	n/a	n/a
1848075	REC_WORD	wordpools/wasnorm_wordpool.txt	LTP127	ltpFR	17	11	0	COOKIE	374	n/a	n/a	0	n/a	n/a	n/a	n/a	n/a
1848933	REC_WORD	wordpools/wasnorm_wordpool.txt	LTP127	ltpFR	17	11	0	SHRIMP	1297	n/a	n/a	0	n/a	n/a	n/a	n/a	n/a
1854161	REC_WORD	wordpools/wasnorm_wordpool.txt	LTP127	ltpFR	17	11	0	OPERA	978	n/a	n/a	1	n/a	n/a	n/a	n/a	n/a
1855388	REC_WORD	wordpools/wasnorm_wordpool.txt	LTP127	ltpFR	17	11	0	CANDY	230	n/a	n/a	0	n/a	n/a	n/a	n/a	n/a
1894454	REC_WORD	wordpools/wasnorm_wordpool.txt	LTP127	ltpFR	17	11	1	MOB	904	n/a	n/a	0	n/a	n/a	n/a	n/a	n/a
1895108	REC_WORD	wordpools/wasnorm_wordpool.txt	LTP127	ltpFR	17	11	0	FAMILY	550	n/a	n/a	1	n/a	n/a	n/a	n/a	n/a
1949962	WORD	wordpools/wasnorm_wordpool.txt	LTP127	ltpFR	17	12	-1	SUMMIT	1405	n/a	n/a	-1	1.0	1.0	1	upper	Verdana.ttf
1953794	WORD	wordpools/wasnorm_wordpool.txt	LTP127	ltpFR	17	12	-1	MOUNTAIN	924	n/a	n/a	-1	1.0	1.0	1	upper	Verdana.ttf
1957876	WORD	wordpools/wasnorm_wordpool.txt	LTP127	ltpFR	17	12	-1	BUCKET	184	n/a	n/a	-1	1.0	1.0	1	upper	Verdana.ttf
1961766	WORD	wordpools/wasnorm_wordpool.txt	LTP127	ltpFR	17	12	-1	BLADE	134	n/a	n/a	-1	1.0	1.0	1	upper	Verdana.ttf
1965715	WORD	wordpools/wasnorm_wordpool.txt	LTP127	ltpFR	17	12	-1	SKELETON	1314	n/a	n/a	-1	1.0	1.0	1	upper	Verdana.ttf
1969647	WORD	wordpools/wasnorm_wordpool.txt	LTP127	ltpFR	17	12	-1	SYRINGE	1424	n/a	n/a	-1	1.0	1.0	1	upper	Verdana.ttf
1973845	WORD	wordpools/wasnorm_wordpool.txt	LTP127	ltpFR	17	12	-1	ULCER	1533	n/a	n/a	-1	1.0	1.0	1	upper	Verdana.ttf
1977702	WORD	wordpools/wasnorm_wordpool.txt	LTP127	ltpFR	17	12	-1	PAIL	1002	n/a	n/a	-1	1.0	1.0	1	upper	Verdana.ttf
1981909	WORD	wordpools/wasnorm_wordpool.txt	LTP127	ltpFR	17	12	-1	POOL	1103	n/a	n/a	-1	1.0	1.0	1	upper	Verdana.ttf
1985841	WORD	wordpools/wasnorm_wordpool.txt	LTP127	ltpFR	17	12	-1	INVENTOR	743	n/a	n/a	-1	1.0	1.0	1	upper	Verdana.ttf
1989773	WORD	wordpools/wasnorm_wordpool.txt	LTP127	ltpFR	17	12	-1	BREAST	171	n/a	n/a	-1	1.0	1.0	1	upper	Verdana.ttf
1993663	WORD	wordpools/wasnorm_wordpool.txt	LTP127	ltpFR	17	12	-1	RAZOR	1171	n/a	n/a	-1	1.0	1.0	1	upper	Verdana.ttf
1997603	WORD	wordpools/wasnorm_wordpool.txt	LTP127	ltpFR	17	12	-1	MARINE	869	n/a	n/a	-1	1.0	1.0	1	upper	Verdana.ttf
2001445	WORD	wordpools/wasnorm_wordpool.txt	LTP127	ltpFR	17	12	-1	GOO	648	n/a	n/a	-1	1.0	1.0	1	upper	Verdana.ttf
2005393	WORD	wordpools/wasnorm_wordpool.txt	LTP127	ltpFR	17	12	-1	BANDANNA	80	n/a	n/a	-1	1.0	1.0	1	upper	Verdana.ttf
2009400	WORD	wordpools/wasnorm_wordpool.txt	LTP127	ltpFR	17	12	-1	UNIVERSE	1540	n/a	n/a	-1	1.0	1.0	1	upper	Verdana.ttf
2014998	REC_START	n/a	LTP127	ltpFR	17	12	n/a	n/a	n/a	n/a	n/a	n/a	n/a	n/a	n/a	n/a	n/a
2015726	REC_WORD	wordpools/wasnorm_wordpool.txt	LTP127	ltpFR	17	12	-1	UNIVERSE	1540	n/a	n/a	-1	n/a	n/a	n/a	n/a	n/a
2016764	REC_WORD	wordpools/wasnorm_wordpool.txt	LTP127	ltpFR	17	12	-1	MOUNTAIN	924	n/a	n/a	-1	n/a	n/a	n/a	n/a	n/a
2017547	REC_WORD	wordpools/wasnorm_wordpool.txt	LTP127	ltpFR	17	12	-1	SUMMIT	1405	n/a	n/a	-1	n/a	n/a	n/a	n/a	n/a
2018839	REC_WORD	wordpools/wasnorm_wordpool.txt	LTP127	ltpFR	17	12	n/a	CLIMB	-1	n/a	n/a	n/a	n/a	n/a	n/a	n/a	n/a
2019946	REC_WORD	wordpools/wasnorm_wordpool.txt	LTP127	ltpFR	17	12	-1	MARINE	869	n/a	n/a	-1	n/a	n/a	n/a	n/a	n/a
2020835	REC_WORD	wordpools/wasnorm_wordpool.txt	LTP127	ltpFR	17	12	-1	BANDANNA	80	n/a	n/a	-1	n/a	n/a	n/a	n/a	n/a
2024047	REC_WORD	wordpools/wasnorm_wordpool.txt	LTP127	ltpFR	17	12	-1	BUCKET	184	n/a	n/a	-1	n/a	n/a	n/a	n/a	n/a
2024786	REC_WORD	wordpools/wasnorm_wordpool.txt	LTP127	ltpFR	17	12	-1	PAIL	1002	n/a	n/a	-1	n/a	n/a	n/a	n/a	n/a
2025649	REC_WORD	wordpools/wasnorm_wordpool.txt	LTP127	ltpFR	17	12	-1	BUCKET	184	n/a	n/a	-1	n/a	n/a	n/a	n/a	n/a
2029764	REC_WORD	wordpools/wasnorm_wordpool.txt	LTP127	ltpFR	17	12	-1	GOO	648	n/a	n/a	-1	n/a	n/a	n/a	n/a	n/a
2030607	REC_WORD	wordpools/wasnorm_wordpool.txt	LTP127	ltpFR	17	12	-1	BLADE	134	n/a	n/a	-1	n/a	n/a	n/a	n/a	n/a
2032184	REC_WORD	wordpools/wasnorm_wordpool.txt	LTP127	ltpFR	17	12	-1	SYRINGE	1424	n/a	n/a	-1	n/a	n/a	n/a	n/a	n/a
2033755	REC_WORD	wordpools/wasnorm_wordpool.txt	LTP127	ltpFR	17	12	-1	POOL	1103	n/a	n/a	-1	n/a	n/a	n/a	n/a	n/a
2035646	REC_WORD	wordpools/wasnorm_wordpool.txt	LTP127	ltpFR	17	12	-1	INVENTOR	743	n/a	n/a	-1	n/a	n/a	n/a	n/a	n/a
2036574	REC_WORD	wordpools/wasnorm_wordpool.txt	LTP127	ltpFR	17	12	-1	BREAST	171	n/a	n/a	-1	n/a	n/a	n/a	n/a	n/a
2052173	REC_WORD	wordpools/wasnorm_wordpool.txt	LTP127	ltpFR	17	12	-1	RAZOR	1171	n/a	n/a	-1	n/a	n/a	n/a	n/a	n/a
2090620	REST_REWET	n/a	LTP127	ltpFR	17	12	n/a	n/a	n/a	n/a	n/a	n/a	n/a	n/a	n/a	n/a	n/a
2305262	WORD	wordpools/wasnorm_wordpool.txt	LTP127	ltpFR	17	13	1	MAILMAN	858	n/a	n/a	1	0.422607421875	0.5869140625	0	lower	zerothre.ttf
2309109	WORD	wordpools/wasnorm_wordpool.txt	LTP127	ltpFR	17	13	1	PARCEL	1012	n/a	n/a	0	0.422607421875	0.5869140625	0	lower	zerothre.ttf
2313033	WORD	wordpools/wasnorm_wordpool.txt	LTP127	ltpFR	17	13	1	CHEDDAR	286	n/a	n/a	0	0.422607421875	0.5869140625	0	lower	zerothre.ttf
2317090	WORD	wordpools/wasnorm_wordpool.txt	LTP127	ltpFR	17	13	1	SCREW	1254	n/a	n/a	0	0.422607421875	0.5869140625	0	lower	zerothre.ttf
2320905	WORD	wordpools/wasnorm_wordpool.txt	LTP127	ltpFR	17	13	1	MOSQUITO	917	n/a	n/a	1	0.422607421875	0.5869140625	0	lower	zerothre.ttf
2324762	WORD	wordpools/wasnorm_wordpool.txt	LTP127	ltpFR	17	13	1	REPORT	1184	n/a	n/a	0	0.422607421875	0.5869140625	0	lower	zerothre.ttf
2328944	WORD	wordpools/wasnorm_wordpool.txt	LTP127	ltpFR	17	13	0	PAPER	1011	n/a	n/a	0	0.57763671875	0.412841796875	1	upper	amplitud.ttf
2332876	WORD	wordpools/wasnorm_wordpool.txt	LTP127	ltpFR	17	13	0	WRITER	1627	n/a	n/a	1	0.57763671875	0.412841796875	1	upper	amplitud.ttf
2336983	WORD	wordpools/wasnorm_wordpool.txt	LTP127	ltpFR	17	13	0	GRASSHOPPER	656	n/a	n/a	1	0.57763671875	0.412841796875	1	upper	amplitud.ttf
2340873	WORD	wordpools/wasnorm_wordpool.txt	LTP127	ltpFR	17	13	0	HONEY	713	n/a	n/a	0	0.57763671875	0.412841796875	1	upper	amplitud.ttf
2344947	WORD	wordpools/wasnorm_wordpool.txt	LTP127	ltpFR	17	13	1	MAPLE	866	n/a	n/a	1	0.422607421875	0.5869140625	0	lower	zerothre.ttf
2349153	WORD	wordpools/wasnorm_wordpool.txt	LTP127	ltpFR	17	13	1	BELLY	119	n/a	n/a	1	0.422607421875	0.5869140625	0	lower	zerothre.ttf
2353085	WORD	wordpools/wasnorm_wordpool.txt	LTP127	ltpFR	17	13	0	STAKE	1368	n/a	n/a	0	0.57763671875	0.412841796875	1	upper	amplitud.ttf
2356901	WORD	wordpools/wasnorm_wordpool.txt	LTP127	ltpFR	17	13	0	SECRETARY	1265	n/a	n/a	1	0.57763671875	0.412841796875	1	upper	amplitud.ttf
2360966	WORD	wordpools/wasnorm_wordpool.txt	LTP127	ltpFR	17	13	0	TRAITOR	1495	n/a	n/a	1	0.57763671875	0.412841796875	1	upper	amplitud.ttf
2365064	WORD	wordpools/wasnorm_wordpool.txt	LTP127	ltpFR	17	13	0	FIREPLACE	570	n/a	n/a	1	0.57763671875	0.412841796875	1	upper	amplitud.ttf
2370930	REC_START	n/a	LTP127	ltpFR	17	13	n/a	n/a	n/a	n/a	n/a	n/a	n/a	n/a	n/a	n/a	n/a
2372501	REC_WORD	wordpools/wasnorm_wordpool.txt	LTP127	ltpFR	17	13	0	SECRETARY	1265	n/a	n/a	1	n/a	n/a	n/a	n/a	n/a
2373394	REC_WORD	wordpools/wasnorm_wordpool.txt	LTP127	ltpFR	17	13	0	TRAITOR	1495	n/a	n/a	1	n/a	n/a	n/a	n/a	n/a
2374442	REC_WORD	wordpools/wasnorm_wordpool.txt	LTP127	ltpFR	17	13	1	MAPLE	866	n/a	n/a	1	n/a	n/a	n/a	n/a	n/a
2375080	REC_WORD	wordpools/wasnorm_wordpool.txt	LTP127	ltpFR	17	13	1	BELLY	119	n/a	n/a	1	n/a	n/a	n/a	n/a	n/a
2376073	REC_WORD	wordpools/wasnorm_wordpool.txt	LTP127	ltpFR	17	13	n/a	TREE	1502	n/a	n/a	n/a	n/a	n/a	n/a	n/a	n/a
2377310	REC_WORD	wordpools/wasnorm_wordpool.txt	LTP127	ltpFR	17	13	0	HONEY	713	n/a	n/a	0	n/a	n/a	n/a	n/a	n/a
2379241	REC_WORD	wordpools/wasnorm_wordpool.txt	LTP127	ltpFR	17	13	0	FIREPLACE	570	n/a	n/a	1	n/a	n/a	n/a	n/a	n/a
2382079	REC_WORD	wordpools/wasnorm_wordpool.txt	LTP127	ltpFR	17	13	0	GRASSHOPPER	656	n/a	n/a	1	n/a	n/a	n/a	n/a	n/a
2382983	REC_WORD	wordpools/wasnorm_wordpool.txt	LTP127	ltpFR	17	13	0	WRITER	1627	n/a	n/a	1	n/a	n/a	n/a	n/a	n/a
2384215	REC_WORD	wordpools/wasnorm_wordpool.txt	LTP127	ltpFR	17	13	0	PAPER	1011	n/a	n/a	0	n/a	n/a	n/a	n/a	n/a
2384878	REC_WORD	wordpools/wasnorm_wordpool.txt	LTP127	ltpFR	17	13	1	REPORT	1184	n/a	n/a	0	n/a	n/a	n/a	n/a	n/a
2385826	REC_WORD	wordpools/wasnorm_wordpool.txt	LTP127	ltpFR	17	13	n/a	NEWSPAPER	948	n/a	n/a	n/a	n/a	n/a	n/a	n/a	n/a
2388824	REC_WORD	wordpools/wasnorm_wordpool.txt	LTP127	ltpFR	17	13	1	MOSQUITO	917	n/a	n/a	1	n/a	n/a	n/a	n/a	n/a
2391154	REC_WORD	wordpools/wasnorm_wordpool.txt	LTP127	ltpFR	17	13	1	SCREW	1254	n/a	n/a	0	n/a	n/a	n/a	n/a	n/a
2393045	REC_WORD	wordpools/wasnorm_wordpool.txt	LTP127	ltpFR	17	13	1	MAILMAN	858	n/a	n/a	1	n/a	n/a	n/a	n/a	n/a
2394067	REC_WORD	wordpools/wasnorm_wordpool.txt	LTP127	ltpFR	17	13	1	PARCEL	1012	n/a	n/a	0	n/a	n/a	n/a	n/a	n/a
2394935	REC_WORD	wordpools/wasnorm_wordpool.txt	LTP127	ltpFR	17	13	1	CHEDDAR	286	n/a	n/a	0	n/a	n/a	n/a	n/a	n/a
2479024	WORD	wordpools/wasnorm_wordpool.txt	LTP127	ltpFR	17	14	-1	MAT	877	n/a	n/a	-1	1.0	1.0	1	upper	Verdana.ttf
2482964	WORD	wordpools/wasnorm_wordpool.txt	LTP127	ltpFR	17	14	-1	WORKER	1621	n/a	n/a	-1	1.0	1.0	1	upper	Verdana.ttf
2486780	WORD	wordpools/wasnorm_wordpool.txt	LTP127	ltpFR	17	14	-1	CANARY	227	n/a	n/a	-1	1.0	1.0	1	upper	Verdana.ttf
2490636	WORD	wordpools/wasnorm_wordpool.txt	LTP127	ltpFR	17	14	-1	ERASER	538	n/a	n/a	-1	1.0	1.0	1	upper	Verdana.ttf
2494685	WORD	wordpools/wasnorm_wordpool.txt	LTP127	ltpFR	17	14	-1	SILVERWARE	1308	n/a	n/a	-1	1.0	1.0	1	upper	Verdana.ttf
2498767	WORD	wordpools/wasnorm_wordpool.txt	LTP127	ltpFR	17	14	-1	UTENSIL	1542	n/a	n/a	-1	1.0	1.0	1	upper	Verdana.ttf
2502899	WORD	wordpools/wasnorm_wordpool.txt	LTP127	ltpFR	17	14	-1	CHIEF	298	n/a	n/a	-1	1.0	1.0	1	upper	Verdana.ttf
2506714	WORD	wordpools/wasnorm_wordpool.txt	LTP127	ltpFR	17	14	-1	STALLION	1369	n/a	n/a	-1	1.0	1.0	1	upper	Verdana.ttf
2510529	WORD	wordpools/wasnorm_wordpool.txt	LTP127	ltpFR	17	14	-1	CHAMPAGNE	278	n/a	n/a	-1	1.0	1.0	1	upper	Verdana.ttf
2514462	WORD	wordpools/wasnorm_wordpool.txt	LTP127	ltpFR	17	14	-1	MUG	930	n/a	n/a	-1	1.0	1.0	1	upper	Verdana.ttf
2518651	WORD	wordpools/wasnorm_wordpool.txt	LTP127	ltpFR	17	14	-1	DART	440	n/a	n/a	-1	1.0	1.0	1	upper	Verdana.ttf
2522508	WORD	wordpools/wasnorm_wordpool.txt	LTP127	ltpFR	17	14	-1	PLASTER	1085	n/a	n/a	-1	1.0	1.0	1	upper	Verdana.ttf
2526599	WORD	wordpools/wasnorm_wordpool.txt	LTP127	ltpFR	17	14	-1	CORPORATION	382	n/a	n/a	-1	1.0	1.0	1	upper	Verdana.ttf
2530597	WORD	wordpools/wasnorm_wordpool.txt	LTP127	ltpFR	17	14	-1	FEATHER	557	n/a	n/a	-1	1.0	1.0	1	upper	Verdana.ttf
2534512	WORD	wordpools/wasnorm_wordpool.txt	LTP127	ltpFR	17	14	-1	UNICORN	1538	n/a	n/a	-1	1.0	1.0	1	upper	Verdana.ttf
2538519	WORD	wordpools/wasnorm_wordpool.txt	LTP127	ltpFR	17	14	-1	LEADER	807	n/a	n/a	-1	1.0	1.0	1	upper	Verdana.ttf
2544269	REC_START	n/a	LTP127	ltpFR	17	14	n/a	n/a	n/a	n/a	n/a	n/a	n/a	n/a	n/a	n/a	n/a
2545381	REC_WORD	wordpools/wasnorm_wordpool.txt	LTP127	ltpFR	17	14	-1	LEADER	807	n/a	n/a	-1	n/a	n/a	n/a	n/a	n/a
2545975	REC_WORD	wordpools/wasnorm_wordpool.txt	LTP127	ltpFR	17	14	-1	PLASTER	1085	n/a	n/a	-1	n/a	n/a	n/a	n/a	n/a
2546688	REC_WORD	wordpools/wasnorm_wordpool.txt	LTP127	ltpFR	17	14	-1	CORPORATION	382	n/a	n/a	-1	n/a	n/a	n/a	n/a	n/a
2547651	REC_WORD	wordpools/wasnorm_wordpool.txt	LTP127	ltpFR	17	14	-1	DART	440	n/a	n/a	-1	n/a	n/a	n/a	n/a	n/a
2548983	REC_WORD	wordpools/wasnorm_wordpool.txt	LTP127	ltpFR	17	14	-1	UNICORN	1538	n/a	n/a	-1	n/a	n/a	n/a	n/a	n/a
2550250	REC_WORD	wordpools/wasnorm_wordpool.txt	LTP127	ltpFR	17	14	-1	STALLION	1369	n/a	n/a	-1	n/a	n/a	n/a	n/a	n/a
2551069	REC_WORD	wordpools/wasnorm_wordpool.txt	LTP127	ltpFR	17	14	n/a	HORSE	719	n/a	n/a	n/a	n/a	n/a	n/a	n/a	n/a
2552944	REC_WORD	wordpools/wasnorm_wordpool.txt	LTP127	ltpFR	17	14	-1	CANARY	227	n/a	n/a	-1	n/a	n/a	n/a	n/a	n/a
2554291	REC_WORD	wordpools/wasnorm_wordpool.txt	LTP127	ltpFR	17	14	-1	WORKER	1621	n/a	n/a	-1	n/a	n/a	n/a	n/a	n/a
2554835	REC_WORD	wordpools/wasnorm_wordpool.txt	LTP127	ltpFR	17	14	-1	MUG	930	n/a	n/a	-1	n/a	n/a	n/a	n/a	n/a
2555563	REC_WORD	wordpools/wasnorm_wordpool.txt	LTP127	ltpFR	17	14	-1	MAT	877	n/a	n/a	-1	n/a	n/a	n/a	n/a	n/a
2558881	REC_WORD	wordpools/wasnorm_wordpool.txt	LTP127	ltpFR	17	14	-1	LEADER	807	n/a	n/a	-1	n/a	n/a	n/a	n/a	n/a
2564198	REC_WORD	wordpools/wasnorm_wordpool.txt	LTP127	ltpFR	17	14	-1	CHAMPAGNE	278	n/a	n/a	-1	n/a	n/a	n/a	n/a	n/a
2569436	REC_WORD	wordpools/wasnorm_wordpool.txt	LTP127	ltpFR	17	14	-1	FEATHER	557	n/a	n/a	-1	n/a	n/a	n/a	n/a	n/a
2690425	WORD	wordpools/wasnorm_wordpool.txt	LTP127	ltpFR	17	15	1	CRITIC	410	n/a	n/a	1	0.422607421875	0.5869140625	0	lower	zerothre.ttf
2694239	WORD	wordpools/wasnorm_wordpool.txt	LTP127	ltpFR	17	15	1	PUB	1135	n/a	n/a	0	0.422607421875	0.5869140625	0	lower	zerothre.ttf
2698297	WORD	wordpools/wasnorm_wordpool.txt	LTP127	ltpFR	17	15	1	DOUGH	489	n/a	n/a	0	0.422607421875	0.5869140625	0	lower	zerothre.ttf
2702395	WORD	wordpools/wasnorm_wordpool.txt	LTP127	ltpFR	17	15	1	PASTRY	1022	n/a	n/a	0	0.422607421875	0.5869140625	0	lower	zerothre.ttf
2706327	WORD	wordpools/wasnorm_wordpool.txt	LTP127	ltpFR	17	15	0	WASHER	1592	n/a	n/a	0	0.57763671875	0.412841796875	1	upper	amplitud.ttf
2710225	WORD	wordpools/wasnorm_wordpool.txt	LTP127	ltpFR	17	15	0	DETERGENT	455	n/a	n/a	0	0.57763671875	0.412841796875	1	upper	amplitud.ttf
2714275	WORD	wordpools/wasnorm_wordpool.txt	LTP127	ltpFR	17	15	0	COMPANION	357	n/a	n/a	1	0.57763671875	0.412841796875	1	upper	amplitud.ttf
2718306	WORD	wordpools/wasnorm_wordpool.txt	LTP127	ltpFR	17	15	0	FIN	566	n/a	n/a	0	0.57763671875	0.412841796875	1	upper	amplitud.ttf
2722221	WORD	wordpools/wasnorm_wordpool.txt	LTP127	ltpFR	17	15	0	SAND	1230	n/a	n/a	0	0.57763671875	0.412841796875	1	upper	amplitud.ttf
2726053	WORD	wordpools/wasnorm_wordpool.txt	LTP127	ltpFR	17	15	0	HUSBAND	728	n/a	n/a	1	0.57763671875	0.412841796875	1	upper	amplitud.ttf
2730143	WORD	wordpools/wasnorm_wordpool.txt	LTP127	ltpFR	17	15	1	ROBE	1198	n/a	n/a	0	0.422607421875	0.5869140625	0	lower	zerothre.ttf
2734142	WORD	wordpools/wasnorm_wordpool.txt	LTP127	ltpFR	17	15	1	MERMAID	887	n/a	n/a	1	0.422607421875	0.5869140625	0	lower	zerothre.ttf
2738248	WORD	wordpools/wasnorm_wordpool.txt	LTP127	ltpFR	17	15	0	PASSENGER	1020	n/a	n/a	0	0.57763671875	0.412841796875	1	upper	amplitud.ttf
2742139	WORD	wordpools/wasnorm_wordpool.txt	LTP127	ltpFR	17	15	0	HELICOPTER	701	n/a	n/a	1	0.57763671875	0.412841796875	1	upper	amplitud.ttf
2746071	WORD	wordpools/wasnorm_wordpool.txt	LTP127	ltpFR	17	15	1	JELLY	755	n/a	n/a	0	0.422607421875	0.5869140625	0	lower	zerothre.ttf
2750186	WORD	wordpools/wasnorm_wordpool.txt	LTP127	ltpFR	17	15	1	CELERY	266	n/a	n/a	1	0.422607421875	0.5869140625	0	lower	zerothre.ttf
2755976	REC_START	n/a	LTP127	ltpFR	17	15	n/a	n/a	n/a	n/a	n/a	n/a	n/a	n/a	n/a	n/a	n/a
2756381	REC_WORD_VV	wordpools/wasnorm_wordpool.txt	LTP127	ltpFR	17	15	n/a	<>	-1	n/a	n/a	n/a	n/a	n/a	n/a	n/a	n/a
2758141	REC_WORD	wordpools/wasnorm_wordpool.txt	LTP127	ltpFR	17	15	1	JELLY	755	n/a	n/a	0	n/a	n/a	n/a	n/a	n/a
2758735	REC_WORD	wordpools/wasnorm_wordpool.txt	LTP127	ltpFR	17	15	1	CELERY	266	n/a	n/a	1	n/a	n/a	n/a	n/a	n/a
2760376	REC_WORD	wordpools/wasnorm_wordpool.txt	LTP127	ltpFR	17	15	1	DOUGH	489	n/a	n/a	0	n/a	n/a	n/a	n/a	n/a
2760974	REC_WORD	wordpools/wasnorm_wordpool.txt	LTP127	ltpFR	17	15	1	PASTRY	1022	n/a	n/a	0	n/a	n/a	n/a	n/a	n/a
2761773	REC_WORD	wordpools/wasnorm_wordpool.txt	LTP127	ltpFR	17	15	1	PUB	1135	n/a	n/a	0	n/a	n/a	n/a	n/a	n/a
2762411	REC_WORD	wordpools/wasnorm_wordpool.txt	LTP127	ltpFR	17	15	1	CRITIC	410	n/a	n/a	1	n/a	n/a	n/a	n/a	n/a
2764282	REC_WORD	wordpools/wasnorm_wordpool.txt	LTP127	ltpFR	17	15	n/a	RESTAURANT	1187	n/a	n/a	n/a	n/a	n/a	n/a	n/a	n/a
2766392	REC_WORD	wordpools/wasnorm_wordpool.txt	LTP127	ltpFR	17	15	0	WASHER	1592	n/a	n/a	0	n/a	n/a	n/a	n/a	n/a
2768048	REC_WORD	wordpools/wasnorm_wordpool.txt	LTP127	ltpFR	17	15	0	DETERGENT	455	n/a	n/a	0	n/a	n/a	n/a	n/a	n/a
2768822	REC_WORD	wordpools/wasnorm_wordpool.txt	LTP127	ltpFR	17	15	0	PASSENGER	1020	n/a	n/a	0	n/a	n/a	n/a	n/a	n/a
2773351	REC_WORD	wordpools/wasnorm_wordpool.txt	LTP127	ltpFR	17	15	0	COMPANION	357	n/a	n/a	1	n/a	n/a	n/a	n/a	n/a
2774898	REC_WORD	wordpools/wasnorm_wordpool.txt	LTP127	ltpFR	17	15	0	HELICOPTER	701	n/a	n/a	1	n/a	n/a	n/a	n/a	n/a
2776285	REC_WORD	wordpools/wasnorm_wordpool.txt	LTP127	ltpFR	17	15	0	FIN	566	n/a	n/a	0	n/a	n/a	n/a	n/a	n/a
2776888	REC_WORD	wordpools/wasnorm_wordpool.txt	LTP127	ltpFR	17	15	0	SAND	1230	n/a	n/a	0	n/a	n/a	n/a	n/a	n/a
2855224	WORD	wordpools/wasnorm_wordpool.txt	LTP127	ltpFR	17	16	1	VAN	1548	n/a	n/a	0	0.422607421875	0.5869140625	0	lower	zerothre.ttf
2859197	WORD	wordpools/wasnorm_wordpool.txt	LTP127	ltpFR	17	16	1	PEDAL	1037	n/a	n/a	0	0.422607421875	0.5869140625	0	lower	zerothre.ttf
2863021	WORD	wordpools/wasnorm_wordpool.txt	LTP127	ltpFR	17	16	1	GHETTO	633	n/a	n/a	0	0.422607421875	0.5869140625	0	lower	zerothre.ttf
2866861	WORD	wordpools/wasnorm_wordpool.txt	LTP127	ltpFR	17	16	1	PIGEON	1065	n/a	n/a	1	0.422607421875	0.5869140625	0	lower	zerothre.ttf
2870743	WORD	wordpools/wasnorm_wordpool.txt	LTP127	ltpFR	17	16	1	EDITORIAL	517	n/a	n/a	0	0.422607421875	0.5869140625	0	lower	zerothre.ttf
2874841	WORD	wordpools/wasnorm_wordpool.txt	LTP127	ltpFR	17	16	1	CAPITAL	238	n/a	n/a	0	0.422607421875	0.5869140625	0	lower	zerothre.ttf
2878990	WORD	wordpools/wasnorm_wordpool.txt	LTP127	ltpFR	17	16	1	EAGLE	512	n/a	n/a	1	0.422607421875	0.5869140625	0	lower	zerothre.ttf
2882972	WORD	wordpools/wasnorm_wordpool.txt	LTP127	ltpFR	17	16	1	CITIZEN	312	n/a	n/a	1	0.422607421875	0.5869140625	0	lower	zerothre.ttf
2886804	WORD	wordpools/wasnorm_wordpool.txt	LTP127	ltpFR	17	16	1	THORN	1459	n/a	n/a	0	0.422607421875	0.5869140625	0	lower	zerothre.ttf
2890794	WORD	wordpools/wasnorm_wordpool.txt	LTP127	ltpFR	17	16	1	DANDELION	438	n/a	n/a	1	0.422607421875	0.5869140625	0	lower	zerothre.ttf
2894826	WORD	wordpools/wasnorm_wordpool.txt	LTP127	ltpFR	17	16	1	IDOL	733	n/a	n/a	1	0.422607421875	0.5869140625	0	lower	zerothre.ttf
2898958	WORD	wordpools/wasnorm_wordpool.txt	LTP127	ltpFR	17	16	1	PALM	1007	n/a	n/a	1	0.422607421875	0.5869140625	0	lower	zerothre.ttf
2902990	WORD	wordpools/wasnorm_wordpool.txt	LTP127	ltpFR	17	16	1	PATRIOT	1026	n/a	n/a	1	0.422607421875	0.5869140625	0	lower	zerothre.ttf
2907013	WORD	wordpools/wasnorm_wordpool.txt	LTP127	ltpFR	17	16	1	BASSINET	97	n/a	n/a	1	0.422607421875	0.5869140625	0	lower	zerothre.ttf
2911020	WORD	wordpools/wasnorm_wordpool.txt	LTP127	ltpFR	17	16	1	TEACHER	1440	n/a	n/a	1	0.422607421875	0.5869140625	0	lower	zerothre.ttf
2915002	WORD	wordpools/wasnorm_wordpool.txt	LTP127	ltpFR	17	16	1	PROFESSOR	1131	n/a	n/a	1	0.422607421875	0.5869140625	0	lower	zerothre.ttf
2920718	REC_START	n/a	LTP127	ltpFR	17	16	n/a	n/a	n/a	n/a	n/a	n/a	n/a	n/a	n/a	n/a	n/a
2922344	REC_WORD	wordpools/wasnorm_wordpool.txt	LTP127	ltpFR	17	16	1	TEACHER	1440	n/a	n/a	1	n/a	n/a	n/a	n/a	n/a
2923072	REC_WORD	wordpools/wasnorm_wordpool.txt	LTP127	ltpFR	17	16	1	PATRIOT	1026	n/a	n/a	1	n/a	n/a	n/a	n/a	n/a
2923960	REC_WORD	wordpools/wasnorm_wordpool.txt	LTP127	ltpFR	17	16	1	CITIZEN	312	n/a	n/a	1	n/a	n/a	n/a	n/a	n/a
2925387	REC_WORD	wordpools/wasnorm_wordpool.txt	LTP127	ltpFR	17	16	n/a	PERSON	1052	n/a	n/a	n/a	n/a	n/a	n/a	n/a	n/a
2927373	REC_WORD	wordpools/wasnorm_wordpool.txt	LTP127	ltpFR	17	16	1	PROFESSOR	1131	n/a	n/a	1	n/a	n/a	n/a	n/a	n/a
2929149	REC_WORD	wordpools/wasnorm_wordpool.txt	LTP127	ltpFR	17	16	1	BASSINET	97	n/a	n/a	1	n/a	n/a	n/a	n/a	n/a
2932576	REC_WORD	wordpools/wasnorm_wordpool.txt	LTP127	ltpFR	17	16	1	VAN	1548	n/a	n/a	0	n/a	n/a	n/a	n/a	n/a
2933259	REC_WORD	wordpools/wasnorm_wordpool.txt	LTP127	ltpFR	17	16	1	PEDAL	1037	n/a	n/a	0	n/a	n/a	n/a	n/a	n/a
2934646	REC_WORD	wordpools/wasnorm_wordpool.txt	LTP127	ltpFR	17	16	1	EAGLE	512	n/a	n/a	1	n/a	n/a	n/a	n/a	n/a
2936258	REC_WORD	wordpools/wasnorm_wordpool.txt	LTP127	ltpFR	17	16	1	PIGEON	1065	n/a	n/a	1	n/a	n/a	n/a	n/a	n/a
2936946	REC_WORD	wordpools/wasnorm_wordpool.txt	LTP127	ltpFR	17	16	n/a	BIRD	129	n/a	n/a	n/a	n/a	n/a	n/a	n/a	n/a
2939186	REC_WORD	wordpools/wasnorm_wordpool.txt	LTP127	ltpFR	17	16	1	GHETTO	633	n/a	n/a	0	n/a	n/a	n/a	n/a	n/a
2940847	REC_WORD	wordpools/wasnorm_wordpool.txt	LTP127	ltpFR	17	16	1	CAPITAL	238	n/a	n/a	0	n/a	n/a	n/a	n/a	n/a
2945147	REC_WORD	wordpools/wasnorm_wordpool.txt	LTP127	ltpFR	17	16	1	DANDELION	438	n/a	n/a	1	n/a	n/a	n/a	n/a	n/a
3108992	REC_START	n/a	LTP127	ltpFR	17	1	n/a	n/a	n/a	n/a	n/a	n/a	n/a	n/a	n/a	n/a	n/a
3109033	RECOG_LURE	n/a	LTP127	ltpFR	17	1	n/a	SIGNATURE	1306	0	5	n/a	n/a	n/a	n/a	n/a	n/a
3109875	RECOG_RESP	n/a	LTP127	ltpFR	17	1	n/a	SIGNATURE	1306	0	n/a	n/a	n/a	n/a	n/a	n/a	n/a
3110693	RECOG_CONF	n/a	LTP127	ltpFR	17	1	n/a	SIGNATURE	1306	n/a	5	n/a	n/a	n/a	n/a	n/a	n/a
3112316	RECOG_TARGET	n/a	LTP127	ltpFR	17	1	0	COLONEL	348	1	5	1	n/a	n/a	n/a	n/a	n/a
3113357	RECOG_RESP	n/a	LTP127	ltpFR	17	1	0	COLONEL	348	1	n/a	1	n/a	n/a	n/a	n/a	n/a
3114064	RECOG_CONF	n/a	LTP127	ltpFR	17	1	0	COLONEL	348	n/a	5	1	n/a	n/a	n/a	n/a	n/a
3115564	RECOG_TARGET	n/a	LTP127	ltpFR	17	1	0	HUSBAND	728	1	5	1	n/a	n/a	n/a	n/a	n/a
3116180	RECOG_RESP	n/a	LTP127	ltpFR	17	1	0	HUSBAND	728	1	n/a	1	n/a	n/a	n/a	n/a	n/a
3116729	RECOG_CONF	n/a	LTP127	ltpFR	17	1	0	HUSBAND	728	n/a	5	1	n/a	n/a	n/a	n/a	n/a
3118348	RECOG_TARGET	n/a	LTP127	ltpFR	17	1	0	DRIVEWAY	500	0	3	1	n/a	n/a	n/a	n/a	n/a
3119064	RECOG_RESP	n/a	LTP127	ltpFR	17	1	0	DRIVEWAY	500	0	n/a	1	n/a	n/a	n/a	n/a	n/a
3119802	RECOG_CONF	n/a	LTP127	ltpFR	17	1	0	DRIVEWAY	500	n/a	3	1	n/a	n/a	n/a	n/a	n/a
3121272	RECOG_TARGET	n/a	LTP127	ltpFR	17	1	-1	MOTOR	922	1	5	-1	n/a	n/a	n/a	n/a	n/a
3121907	RECOG_RESP	n/a	LTP127	ltpFR	17	1	-1	MOTOR	922	1	n/a	-1	n/a	n/a	n/a	n/a	n/a
3122366	RECOG_CONF	n/a	LTP127	ltpFR	17	1	-1	MOTOR	922	n/a	5	-1	n/a	n/a	n/a	n/a	n/a
3123978	RECOG_TARGET	n/a	LTP127	ltpFR	17	1	0	HARP	689	1	5	0	n/a	n/a	n/a	n/a	n/a
3124541	RECOG_RESP	n/a	LTP127	ltpFR	17	1	0	HARP	689	1	n/a	0	n/a	n/a	n/a	n/a	n/a
3125085	RECOG_CONF	n/a	LTP127	ltpFR	17	1	0	HARP	689	n/a	5	0	n/a	n/a	n/a	n/a	n/a
3126610	RECOG_TARGET	n/a	LTP127	ltpFR	17	1	1	COUCH	386	1	5	0	n/a	n/a	n/a	n/a	n/a
3127205	RECOG_RESP	n/a	LTP127	ltpFR	17	1	1	COUCH	386	1	n/a	0	n/a	n/a	n/a	n/a	n/a
3127734	RECOG_CONF	n/a	LTP127	ltpFR	17	1	1	COUCH	386	n/a	5	0	n/a	n/a	n/a	n/a	n/a
3129294	RECOG_TARGET	n/a	LTP127	ltpFR	17	1	1	PAGE	1001	1	5	0	n/a	n/a	n/a	n/a	n/a
3129989	RECOG_RESP	n/a	LTP127	ltpFR	17	1	1	PAGE	1001	1	n/a	0	n/a	n/a	n/a	n/a	n/a
3130608	RECOG_CONF	n/a	LTP127	ltpFR	17	1	1	PAGE	1001	n/a	5	0	n/a	n/a	n/a	n/a	n/a
3132050	RECOG_LURE	n/a	LTP127	ltpFR	17	1	n/a	CAN	225	0	4	n/a	n/a	n/a	n/a	n/a	n/a
3132778	RECOG_RESP	n/a	LTP127	ltpFR	17	1	n/a	CAN	225	0	n/a	n/a	n/a	n/a	n/a	n/a	n/a
3133172	RECOG_CONF	n/a	LTP127	ltpFR	17	1	n/a	CAN	225	n/a	4	n/a	n/a	n/a	n/a	n/a	n/a
3134757	RECOG_LURE	n/a	LTP127	ltpFR	17	1	n/a	JET	756	0	3	n/a	n/a	n/a	n/a	n/a	n/a
3136295	RECOG_RESP	n/a	LTP127	ltpFR	17	1	n/a	JET	756	0	n/a	n/a	n/a	n/a	n/a	n/a	n/a
3136893	RECOG_CONF	n/a	LTP127	ltpFR	17	1	n/a	JET	756	n/a	3	n/a	n/a	n/a	n/a	n/a	n/a
3138340	RECOG_LURE	n/a	LTP127	ltpFR	17	1	n/a	YOKE	1632	0	5	n/a	n/a	n/a	n/a	n/a	n/a
3139068	RECOG_RESP	n/a	LTP127	ltpFR	17	1	n/a	YOKE	1632	0	n/a	n/a	n/a	n/a	n/a	n/a	n/a
3139537	RECOG_CONF	n/a	LTP127	ltpFR	17	1	n/a	YOKE	1632	n/a	5	n/a	n/a	n/a	n/a	n/a	n/a
3141055	RECOG_TARGET	n/a	LTP127	ltpFR	17	1	1	CANDIDATE	228	1	5	1	n/a	n/a	n/a	n/a	n/a
3141673	RECOG_RESP	n/a	LTP127	ltpFR	17	1	1	CANDIDATE	228	1	n/a	1	n/a	n/a	n/a	n/a	n/a
3142300	RECOG_CONF	n/a	LTP127	ltpFR	17	1	1	CANDIDATE	228	n/a	5	1	n/a	n/a	n/a	n/a	n/a
3143712	RECOG_TARGET	n/a	LTP127	ltpFR	17	1	-1	SHEPHERD	1283	1	5	-1	n/a	n/a	n/a	n/a	n/a
3144336	RECOG_RESP	n/a	LTP127	ltpFR	17	1	-1	SHEPHERD	1283	1	n/a	-1	n/a	n/a	n/a	n/a	n/a
3145019	RECOG_CONF	n/a	LTP127	ltpFR	17	1	-1	SHEPHERD	1283	n/a	5	-1	n/a	n/a	n/a	n/a	n/a
3146346	RECOG_TARGET	n/a	LTP127	ltpFR	17	1	1	RABBIT	1152	0	4	1	n/a	n/a	n/a	n/a	n/a
3146931	RECOG_RESP_VV	n/a	LTP127	ltpFR	17	1	1	RABBIT	1152	1	n/a	1	n/a	n/a	n/a	n/a	n/a
3147380	RECOG_RESP	n/a	LTP127	ltpFR	17	1	1	RABBIT	1152	0	n/a	1	n/a	n/a	n/a	n/a	n/a
3147849	RECOG_CONF	n/a	LTP127	ltpFR	17	1	1	RABBIT	1152	n/a	4	1	n/a	n/a	n/a	n/a	n/a
3149412	RECOG_TARGET	n/a	LTP127	ltpFR	17	1	0	FLOWER	584	1	4	0	n/a	n/a	n/a	n/a	n/a
3151281	RECOG_RESP	n/a	LTP127	ltpFR	17	1	0	FLOWER	584	1	n/a	0	n/a	n/a	n/a	n/a	n/a
3151941	RECOG_CONF	n/a	LTP127	ltpFR	17	1	0	FLOWER	584	n/a	4	0	n/a	n/a	n/a	n/a	n/a
3153385	RECOG_TARGET	n/a	LTP127	ltpFR	17	1	0	MEADOW	881	1	5	1	n/a	n/a	n/a	n/a	n/a
3154513	RECOG_RESP	n/a	LTP127	ltpFR	17	1	0	MEADOW	881	1	n/a	1	n/a	n/a	n/a	n/a	n/a
3155057	RECOG_CONF	n/a	LTP127	ltpFR	17	1	0	MEADOW	881	n/a	5	1	n/a	n/a	n/a	n/a	n/a
3156608	RECOG_LURE	n/a	LTP127	ltpFR	17	1	n/a	TOURIST	1488	0	2	n/a	n/a	n/a	n/a	n/a	n/a
3158424	RECOG_RESP	n/a	LTP127	ltpFR	17	1	n/a	TOURIST	1488	0	n/a	n/a	n/a	n/a	n/a	n/a	n/a
3158953	RECOG_CONF	n/a	LTP127	ltpFR	17	1	n/a	TOURIST	1488	n/a	2	n/a	n/a	n/a	n/a	n/a	n/a
3160441	RECOG_TARGET	n/a	LTP127	ltpFR	17	1	0	TRAITOR	1495	1	5	1	n/a	n/a	n/a	n/a	n/a
3161098	RECOG_RESP	n/a	LTP127	ltpFR	17	1	0	TRAITOR	1495	1	n/a	1	n/a	n/a	n/a	n/a	n/a
3161642	RECOG_CONF	n/a	LTP127	ltpFR	17	1	0	TRAITOR	1495	n/a	5	1	n/a	n/a	n/a	n/a	n/a
3163147	RECOG_LURE	n/a	LTP127	ltpFR	17	1	n/a	LIBRARY	816	0	4	n/a	n/a	n/a	n/a	n/a	n/a
3166990	RECOG_RESP	n/a	LTP127	ltpFR	17	1	n/a	LIBRARY	816	0	n/a	n/a	n/a	n/a	n/a	n/a	n/a
3167529	RECOG_CONF	n/a	LTP127	ltpFR	17	1	n/a	LIBRARY	816	n/a	4	n/a	n/a	n/a	n/a	n/a	n/a
3169012	RECOG_LURE	n/a	LTP127	ltpFR	17	1	n/a	LID	817	0	2	n/a	n/a	n/a	n/a	n/a	n/a
3170223	RECOG_RESP	n/a	LTP127	ltpFR	17	1	n/a	LID	817	0	n/a	n/a	n/a	n/a	n/a	n/a	n/a
3170886	RECOG_CONF	n/a	LTP127	ltpFR	17	1	n/a	LID	817	n/a	2	n/a	n/a	n/a	n/a	n/a	n/a
3175081	REC_START	n/a	LTP127	ltpFR	17	2	n/a	n/a	n/a	n/a	n/a	n/a	n/a	n/a	n/a	n/a	n/a
3175118	RECOG_TARGET	n/a	LTP127	ltpFR	17	2	1	LEMON	810	0	1	0	n/a	n/a	n/a	n/a	n/a
3177530	RECOG_RESP	n/a	LTP127	ltpFR	17	2	1	LEMON	810	0	n/a	0	n/a	n/a	n/a	n/a	n/a
3178528	RECOG_CONF	n/a	LTP127	ltpFR	17	2	1	LEMON	810	n/a	1	0	n/a	n/a	n/a	n/a	n/a
3180091	RECOG_LURE	n/a	LTP127	ltpFR	17	2	n/a	BOULDER	155	0	4	n/a	n/a	n/a	n/a	n/a	n/a
3180898	RECOG_RESP	n/a	LTP127	ltpFR	17	2	n/a	BOULDER	155	0	n/a	n/a	n/a	n/a	n/a	n/a	n/a
3181372	RECOG_CONF	n/a	LTP127	ltpFR	17	2	n/a	BOULDER	155	n/a	4	n/a	n/a	n/a	n/a	n/a	n/a
3182907	RECOG_TARGET	n/a	LTP127	ltpFR	17	2	0	CUSHION	428	1	5	1	n/a	n/a	n/a	n/a	n/a
3183512	RECOG_RESP	n/a	LTP127	ltpFR	17	2	0	CUSHION	428	1	n/a	1	n/a	n/a	n/a	n/a	n/a
3184121	RECOG_CONF	n/a	LTP127	ltpFR	17	2	0	CUSHION	428	n/a	5	1	n/a	n/a	n/a	n/a	n/a
3185407	RECOG_TARGET	n/a	LTP127	ltpFR	17	2	1	KEEPER	769	1	5	1	n/a	n/a	n/a	n/a	n/a
3186001	RECOG_RESP	n/a	LTP127	ltpFR	17	2	1	KEEPER	769	1	n/a	1	n/a	n/a	n/a	n/a	n/a
3186545	RECOG_CONF	n/a	LTP127	ltpFR	17	2	1	KEEPER	769	n/a	5	1	n/a	n/a	n/a	n/a	n/a
3187897	RECOG_TARGET	n/a	LTP127	ltpFR	17	2	1	BUILDER	190	1	5	0	n/a	n/a	n/a	n/a	n/a
3188386	RECOG_RESP	n/a	LTP127	ltpFR	17	2	1	BUILDER	190	1	n/a	0	n/a	n/a	n/a	n/a	n/a
3188907	RECOG_CONF	n/a	LTP127	ltpFR	17	2	1	BUILDER	190	n/a	5	0	n/a	n/a	n/a	n/a	n/a
3190229	RECOG_TARGET	n/a	LTP127	ltpFR	17	2	0	COOKIE	374	1	5	0	n/a	n/a	n/a	n/a	n/a
3190810	RECOG_RESP	n/a	LTP127	ltpFR	17	2	0	COOKIE	374	1	n/a	0	n/a	n/a	n/a	n/a	n/a
3191354	RECOG_CONF	n/a	LTP127	ltpFR	17	2	0	COOKIE	374	n/a	5	0	n/a	n/a	n/a	n/a	n/a
3192753	RECOG_LURE	n/a	LTP127	ltpFR	17	2	n/a	PEAR	1033	0	5	n/a	n/a	n/a	n/a	n/a	n/a
3193409	RECOG_RESP	n/a	LTP127	ltpFR	17	2	n/a	PEAR	1033	0	n/a	n/a	n/a	n/a	n/a	n/a	n/a
3193888	RECOG_CONF	n/a	LTP127	ltpFR	17	2	n/a	PEAR	1033	n/a	5	n/a	n/a	n/a	n/a	n/a	n/a
3195395	RECOG_LURE	n/a	LTP127	ltpFR	17	2	n/a	ROOST	1208	0	5	n/a	n/a	n/a	n/a	n/a	n/a
3196078	RECOG_RESP	n/a	LTP127	ltpFR	17	2	n/a	ROOST	1208	0	n/a	n/a	n/a	n/a	n/a	n/a	n/a
3196552	RECOG_CONF	n/a	LTP127	ltpFR	17	2	n/a	ROOST	1208	n/a	5	n/a	n/a	n/a	n/a	n/a	n/a
3198043	RECOG_TARGET	n/a	LTP127	ltpFR	17	2	0	FAMILY	550	1	5	1	n/a	n/a	n/a	n/a	n/a
3198802	RECOG_RESP	n/a	LTP127	ltpFR	17	2	0	FAMILY	550	1	n/a	1	n/a	n/a	n/a	n/a	n/a
3199323	RECOG_CONF	n/a	LTP127	ltpFR	17	2	0	FAMILY	550	n/a	5	1	n/a	n/a	n/a	n/a	n/a
3200792	RECOG_TARGET	n/a	LTP127	ltpFR	17	2	1	PALM	1007	1	5	1	n/a	n/a	n/a	n/a	n/a
3201356	RECOG_RESP	n/a	LTP127	ltpFR	17	2	1	PALM	1007	1	n/a	1	n/a	n/a	n/a	n/a	n/a
3201815	RECOG_CONF	n/a	LTP127	ltpFR	17	2	1	PALM	1007	n/a	5	1	n/a	n/a	n/a	n/a	n/a
3203342	RECOG_TARGET	n/a	LTP127	ltpFR	17	2	0	CACTUS	215	1	5	1	n/a	n/a	n/a	n/a	n/a
3203880	RECOG_RESP	n/a	LTP127	ltpFR	17	2	0	CACTUS	215	1	n/a	1	n/a	n/a	n/a	n/a	n/a
3204424	RECOG_CONF	n/a	LTP127	ltpFR	17	2	0	CACTUS	215	n/a	5	1	n/a	n/a	n/a	n/a	n/a
3205957	RECOG_TARGET	n/a	LTP127	ltpFR	17	2	0	PORT	1110	1	5	1	n/a	n/a	n/a	n/a	n/a
3206474	RECOG_RESP	n/a	LTP127	ltpFR	17	2	0	PORT	1110	1	n/a	1	n/a	n/a	n/a	n/a	n/a
3207185	RECOG_CONF	n/a	LTP127	ltpFR	17	2	0	PORT	1110	n/a	5	1	n/a	n/a	n/a	n/a	n/a
3208523	RECOG_LURE	n/a	LTP127	ltpFR	17	2	n/a	CABBAGE	210	0	3	n/a	n/a	n/a	n/a	n/a	n/a
3209248	RECOG_RESP	n/a	LTP127	ltpFR	17	2	n/a	CABBAGE	210	0	n/a	n/a	n/a	n/a	n/a	n/a	n/a
3209827	RECOG_CONF	n/a	LTP127	ltpFR	17	2	n/a	CABBAGE	210	n/a	3	n/a	n/a	n/a	n/a	n/a	n/a
3211205	RECOG_TARGET	n/a	LTP127	ltpFR	17	2	0	NICOTINE	951	1	5	0	n/a	n/a	n/a	n/a	n/a
3211782	RECOG_RESP	n/a	LTP127	ltpFR	17	2	0	NICOTINE	951	1	n/a	0	n/a	n/a	n/a	n/a	n/a
3212303	RECOG_CONF	n/a	LTP127	ltpFR	17	2	0	NICOTINE	951	n/a	5	0	n/a	n/a	n/a	n/a	n/a
3213804	RECOG_TARGET	n/a	LTP127	ltpFR	17	2	1	MINK	897	1	5	0	n/a	n/a	n/a	n/a	n/a
3214636	RECOG_RESP	n/a	LTP127	ltpFR	17	2	1	MINK	897	1	n/a	0	n/a	n/a	n/a	n/a	n/a
3215165	RECOG_CONF	n/a	LTP127	ltpFR	17	2	1	MINK	897	n/a	5	0	n/a	n/a	n/a	n/a	n/a
3216595	RECOG_TARGET	n/a	LTP127	ltpFR	17	2	0	ROBIN	1199	1	2	0	n/a	n/a	n/a	n/a	n/a
3217245	RECOG_RESP	n/a	LTP127	ltpFR	17	2	0	ROBIN	1199	1	n/a	0	n/a	n/a	n/a	n/a	n/a
3217889	RECOG_CONF	n/a	LTP127	ltpFR	17	2	0	ROBIN	1199	n/a	2	0	n/a	n/a	n/a	n/a	n/a
3219387	RECOG_TARGET	n/a	LTP127	ltpFR	17	2	0	CANDY	230	1	5	0	n/a	n/a	n/a	n/a	n/a
3219984	RECOG_RESP	n/a	LTP127	ltpFR	17	2	0	CANDY	230	1	n/a	0	n/a	n/a	n/a	n/a	n/a
3220528	RECOG_CONF	n/a	LTP127	ltpFR	17	2	0	CANDY	230	n/a	5	0	n/a	n/a	n/a	n/a	n/a
3221993	RECOG_TARGET	n/a	LTP127	ltpFR	17	2	-1	BREAST	171	1	5	-1	n/a	n/a	n/a	n/a	n/a
3222583	RECOG_RESP	n/a	LTP127	ltpFR	17	2	-1	BREAST	171	1	n/a	-1	n/a	n/a	n/a	n/a	n/a
3223052	RECOG_CONF	n/a	LTP127	ltpFR	17	2	-1	BREAST	171	n/a	5	-1	n/a	n/a	n/a	n/a	n/a
3224476	RECOG_TARGET	n/a	LTP127	ltpFR	17	2	-1	EMERALD	528	1	5	-1	n/a	n/a	n/a	n/a	n/a
3225127	RECOG_RESP	n/a	LTP127	ltpFR	17	2	-1	EMERALD	528	1	n/a	-1	n/a	n/a	n/a	n/a	n/a
3225759	RECOG_CONF	n/a	LTP127	ltpFR	17	2	-1	EMERALD	528	n/a	5	-1	n/a	n/a	n/a	n/a	n/a
3227141	RECOG_LURE	n/a	LTP127	ltpFR	17	2	n/a	FRIEND	606	1	2	n/a	n/a	n/a	n/a	n/a	n/a
3228075	RECOG_RESP	n/a	LTP127	ltpFR	17	2	n/a	FRIEND	606	1	n/a	n/a	n/a	n/a	n/a	n/a	n/a
3228654	RECOG_CONF	n/a	LTP127	ltpFR	17	2	n/a	FRIEND	606	n/a	2	n/a	n/a	n/a	n/a	n/a	n/a
3231890	REC_START	n/a	LTP127	ltpFR	17	3	n/a	n/a	n/a	n/a	n/a	n/a	n/a	n/a	n/a	n/a	n/a
3231923	RECOG_TARGET	n/a	LTP127	ltpFR	17	3	1	CHEDDAR	286	1	5	0	n/a	n/a	n/a	n/a	n/a
3232563	RECOG_RESP	n/a	LTP127	ltpFR	17	3	1	CHEDDAR	286	1	n/a	0	n/a	n/a	n/a	n/a	n/a
3233107	RECOG_CONF	n/a	LTP127	ltpFR	17	3	1	CHEDDAR	286	n/a	5	0	n/a	n/a	n/a	n/a	n/a
3234481	RECOG_TARGET	n/a	LTP127	ltpFR	17	3	0	COB	334	1	5	0	n/a	n/a	n/a	n/a	n/a
3235252	RECOG_RESP	n/a	LTP127	ltpFR	17	3	0	COB	334	1	n/a	0	n/a	n/a	n/a	n/a	n/a
3235721	RECOG_CONF	n/a	LTP127	ltpFR	17	3	0	COB	334	n/a	5	0	n/a	n/a	n/a	n/a	n/a
3237238	RECOG_TARGET	n/a	LTP127	ltpFR	17	3	1	MAPLE	866	1	5	1	n/a	n/a	n/a	n/a	n/a
3238001	RECOG_RESP	n/a	LTP127	ltpFR	17	3	1	MAPLE	866	1	n/a	1	n/a	n/a	n/a	n/a	n/a
3238545	RECOG_CONF	n/a	LTP127	ltpFR	17	3	1	MAPLE	866	n/a	5	1	n/a	n/a	n/a	n/a	n/a
3240012	RECOG_TARGET	n/a	LTP127	ltpFR	17	3	0	SAND	1230	1	5	0	n/a	n/a	n/a	n/a	n/a
3241383	RECOG_RESP	n/a	LTP127	ltpFR	17	3	0	SAND	1230	1	n/a	0	n/a	n/a	n/a	n/a	n/a
3241881	RECOG_CONF	n/a	LTP127	ltpFR	17	3	0	SAND	1230	n/a	5	0	n/a	n/a	n/a	n/a	n/a
3243378	RECOG_TARGET	n/a	LTP127	ltpFR	17	3	-1	DOUGHNUT	490	1	5	-1	n/a	n/a	n/a	n/a	n/a
3244317	RECOG_RESP	n/a	LTP127	ltpFR	17	3	-1	DOUGHNUT	490	1	n/a	-1	n/a	n/a	n/a	n/a	n/a
3244855	RECOG_CONF	n/a	LTP127	ltpFR	17	3	-1	DOUGHNUT	490	n/a	5	-1	n/a	n/a	n/a	n/a	n/a
3246385	RECOG_TARGET	n/a	LTP127	ltpFR	17	3	-1	UNIVERSE	1540	1	5	-1	n/a	n/a	n/a	n/a	n/a
3246971	RECOG_RESP	n/a	LTP127	ltpFR	17	3	-1	UNIVERSE	1540	1	n/a	-1	n/a	n/a	n/a	n/a	n/a
3247422	RECOG_CONF	n/a	LTP127	ltpFR	17	3	-1	UNIVERSE	1540	n/a	5	-1	n/a	n/a	n/a	n/a	n/a
3248958	RECOG_TARGET	n/a	LTP127	ltpFR	17	3	1	COUGAR	387	1	5	1	n/a	n/a	n/a	n/a	n/a
3249540	RECOG_RESP	n/a	LTP127	ltpFR	17	3	1	COUGAR	387	1	n/a	1	n/a	n/a	n/a	n/a	n/a
3249973	RECOG_CONF	n/a	LTP127	ltpFR	17	3	1	COUGAR	387	n/a	5	1	n/a	n/a	n/a	n/a	n/a
3251532	RECOG_TARGET	n/a	LTP127	ltpFR	17	3	0	SIDEWALK	1303	1	5	1	n/a	n/a	n/a	n/a	n/a
3253960	RECOG_RESP	n/a	LTP127	ltpFR	17	3	0	SIDEWALK	1303	1	n/a	1	n/a	n/a	n/a	n/a	n/a
3254486	RECOG_CONF	n/a	LTP127	ltpFR	17	3	0	SIDEWALK	1303	n/a	5	1	n/a	n/a	n/a	n/a	n/a
3256206	RECOG_TARGET	n/a	LTP127	ltpFR	17	3	1	EGG	518	1	5	1	n/a	n/a	n/a	n/a	n/a
3258504	RECOG_RESP	n/a	LTP127	ltpFR	17	3	1	EGG	518	1	n/a	1	n/a	n/a	n/a	n/a	n/a
3259223	RECOG_CONF	n/a	LTP127	ltpFR	17	3	1	EGG	518	n/a	5	1	n/a	n/a	n/a	n/a	n/a
3260921	RECOG_TARGET	n/a	LTP127	ltpFR	17	3	0	LIEUTENANT	818	1	5	1	n/a	n/a	n/a	n/a	n/a
3261567	RECOG_RESP	n/a	LTP127	ltpFR	17	3	0	LIEUTENANT	818	1	n/a	1	n/a	n/a	n/a	n/a	n/a
3262346	RECOG_CONF	n/a	LTP127	ltpFR	17	3	0	LIEUTENANT	818	n/a	5	1	n/a	n/a	n/a	n/a	n/a
3263936	RECOG_LURE	n/a	LTP127	ltpFR	17	3	n/a	TREAT	1501	0	4	n/a	n/a	n/a	n/a	n/a	n/a
3264970	RECOG_RESP	n/a	LTP127	ltpFR	17	3	n/a	TREAT	1501	0	n/a	n/a	n/a	n/a	n/a	n/a	n/a
3265688	RECOG_CONF	n/a	LTP127	ltpFR	17	3	n/a	TREAT	1501	n/a	4	n/a	n/a	n/a	n/a	n/a	n/a
3267202	RECOG_LURE	n/a	LTP127	ltpFR	17	3	n/a	SALESMAN	1225	0	2	n/a	n/a	n/a	n/a	n/a	n/a
3268033	RECOG_RESP	n/a	LTP127	ltpFR	17	3	n/a	SALESMAN	1225	0	n/a	n/a	n/a	n/a	n/a	n/a	n/a
3268661	RECOG_CONF	n/a	LTP127	ltpFR	17	3	n/a	SALESMAN	1225	n/a	2	n/a	n/a	n/a	n/a	n/a	n/a
3270043	RECOG_TARGET	n/a	LTP127	ltpFR	17	3	1	CITIZEN	312	1	5	1	n/a	n/a	n/a	n/a	n/a
3270682	RECOG_RESP	n/a	LTP127	ltpFR	17	3	1	CITIZEN	312	1	n/a	1	n/a	n/a	n/a	n/a	n/a
3271301	RECOG_CONF	n/a	LTP127	ltpFR	17	3	1	CITIZEN	312	n/a	5	1	n/a	n/a	n/a	n/a	n/a
3272692	RECOG_LURE	n/a	LTP127	ltpFR	17	3	n/a	NEWSPAPER	948	1	5	n/a	n/a	n/a	n/a	n/a	n/a
3273460	RECOG_RESP	n/a	LTP127	ltpFR	17	3	n/a	NEWSPAPER	948	1	n/a	n/a	n/a	n/a	n/a	n/a	n/a
3273981	RECOG_CONF	n/a	LTP127	ltpFR	17	3	n/a	NEWSPAPER	948	n/a	5	n/a	n/a	n/a	n/a	n/a	n/a
3275541	RECOG_LURE	n/a	LTP127	ltpFR	17	3	n/a	BERRY	122	1	3	n/a	n/a	n/a	n/a	n/a	n/a
3277790	RECOG_RESP	n/a	LTP127	ltpFR	17	3	n/a	BERRY	122	1	n/a	n/a	n/a	n/a	n/a	n/a	n/a
3279137	RECOG_CONF	n/a	LTP127	ltpFR	17	3	n/a	BERRY	122	n/a	3	n/a	n/a	n/a	n/a	n/a	n/a
3281390	RECOG_TARGET	n/a	LTP127	ltpFR	17	3	-1	SCIENTIST	1249	1	5	-1	n/a	n/a	n/a	n/a	n/a
3282460	RECOG_RESP	n/a	LTP127	ltpFR	17	3	-1	SCIENTIST	1249	1	n/a	-1	n/a	n/a	n/a	n/a	n/a
3283106	RECOG_CONF	n/a	LTP127	ltpFR	17	3	-1	SCIENTIST	1249	n/a	5	-1	n/a	n/a	n/a	n/a	n/a
3284487	RECOG_TARGET	n/a	LTP127	ltpFR	17	3	1	SEA	1259	1	5	0	n/a	n/a	n/a	n/a	n/a
3286456	RECOG_RESP	n/a	LTP127	ltpFR	17	3	1	SEA	1259	1	n/a	0	n/a	n/a	n/a	n/a	n/a
3286995	RECOG_CONF	n/a	LTP127	ltpFR	17	3	1	SEA	1259	n/a	5	0	n/a	n/a	n/a	n/a	n/a
3288354	RECOG_TARGET	n/a	LTP127	ltpFR	17	3	1	COACH	331	1	5	1	n/a	n/a	n/a	n/a	n/a
3289424	RECOG_RESP	n/a	LTP127	ltpFR	17	3	1	COACH	331	1	n/a	1	n/a	n/a	n/a	n/a	n/a
3289991	RECOG_CONF	n/a	LTP127	ltpFR	17	3	1	COACH	331	n/a	5	1	n/a	n/a	n/a	n/a	n/a
3291436	RECOG_TARGET	n/a	LTP127	ltpFR	17	3	1	CELERY	266	1	5	1	n/a	n/a	n/a	n/a	n/a
3293056	RECOG_RESP	n/a	LTP127	ltpFR	17	3	1	CELERY	266	1	n/a	1	n/a	n/a	n/a	n/a	n/a
3293716	RECOG_CONF	n/a	LTP127	ltpFR	17	3	1	CELERY	266	n/a	5	1	n/a	n/a	n/a	n/a	n/a
3295200	RECOG_LURE	n/a	LTP127	ltpFR	17	3	n/a	CLOCK	325	0	4	n/a	n/a	n/a	n/a	n/a	n/a
3295884	RECOG_RESP	n/a	LTP127	ltpFR	17	3	n/a	CLOCK	325	0	n/a	n/a	n/a	n/a	n/a	n/a	n/a
3296378	RECOG_CONF	n/a	LTP127	ltpFR	17	3	n/a	CLOCK	325	n/a	4	n/a	n/a	n/a	n/a	n/a	n/a
3308035	REC_START	n/a	LTP127	ltpFR	17	4	n/a	n/a	n/a	n/a	n/a	n/a	n/a	n/a	n/a	n/a	n/a
3308071	RECOG_LURE	n/a	LTP127	ltpFR	17	4	n/a	SYRUP	1425	0	5	n/a	n/a	n/a	n/a	n/a	n/a
3309008	RECOG_RESP	n/a	LTP127	ltpFR	17	4	n/a	SYRUP	1425	0	n/a	n/a	n/a	n/a	n/a	n/a	n/a
3309526	RECOG_CONF	n/a	LTP127	ltpFR	17	4	n/a	SYRUP	1425	n/a	5	n/a	n/a	n/a	n/a	n/a	n/a
3311036	RECOG_TARGET	n/a	LTP127	ltpFR	17	4	0	FRECKLE	602	1	5	0	n/a	n/a	n/a	n/a	n/a
3311831	RECOG_RESP	n/a	LTP127	ltpFR	17	4	0	FRECKLE	602	1	n/a	0	n/a	n/a	n/a	n/a	n/a
3312329	RECOG_CONF	n/a	LTP127	ltpFR	17	4	0	FRECKLE	602	n/a	5	0	n/a	n/a	n/a	n/a	n/a
3313877	RECOG_TARGET	n/a	LTP127	ltpFR	17	4	-1	COMPASS	358	1	5	-1	n/a	n/a	n/a	n/a	n/a
3314580	RECOG_RESP	n/a	LTP127	ltpFR	17	4	-1	COMPASS	358	1	n/a	-1	n/a	n/a	n/a	n/a	n/a
3315129	RECOG_CONF	n/a	LTP127	ltpFR	17	4	-1	COMPASS	358	n/a	5	-1	n/a	n/a	n/a	n/a	n/a
3316509	RECOG_TARGET	n/a	LTP127	ltpFR	17	4	1	PROFESSOR	1131	1	5	1	n/a	n/a	n/a	n/a	n/a
3319763	RECOG_RESP	n/a	LTP127	ltpFR	17	4	1	PROFESSOR	1131	1	n/a	1	n/a	n/a	n/a	n/a	n/a
3320330	RECOG_CONF	n/a	LTP127	ltpFR	17	4	1	PROFESSOR	1131	n/a	5	1	n/a	n/a	n/a	n/a	n/a
3321849	RECOG_LURE	n/a	LTP127	ltpFR	17	4	n/a	BALLOT	76	0	5	n/a	n/a	n/a	n/a	n/a	n/a
3323185	RECOG_RESP	n/a	LTP127	ltpFR	17	4	n/a	BALLOT	76	0	n/a	n/a	n/a	n/a	n/a	n/a	n/a
3323674	RECOG_CONF	n/a	LTP127	ltpFR	17	4	n/a	BALLOT	76	n/a	5	n/a	n/a	n/a	n/a	n/a	n/a
3325173	RECOG_TARGET	n/a	LTP127	ltpFR	17	4	-1	WORKER	1621	1	5	-1	n/a	n/a	n/a	n/a	n/a
3326094	RECOG_RESP	n/a	LTP127	ltpFR	17	4	-1	WORKER	1621	1	n/a	-1	n/a	n/a	n/a	n/a	n/a
3326597	RECOG_CONF	n/a	LTP127	ltpFR	17	4	-1	WORKER	1621	n/a	5	-1	n/a	n/a	n/a	n/a	n/a
3327997	RECOG_LURE	n/a	LTP127	ltpFR	17	4	n/a	LEVER	815	0	5	n/a	n/a	n/a	n/a	n/a	n/a
3329416	RECOG_RESP	n/a	LTP127	ltpFR	17	4	n/a	LEVER	815	0	n/a	n/a	n/a	n/a	n/a	n/a	n/a
3329895	RECOG_CONF	n/a	LTP127	ltpFR	17	4	n/a	LEVER	815	n/a	5	n/a	n/a	n/a	n/a	n/a	n/a
3331254	RECOG_TARGET	n/a	LTP127	ltpFR	17	4	0	PAW	1029	1	3	0	n/a	n/a	n/a	n/a	n/a
3332938	RECOG_RESP_VV	n/a	LTP127	ltpFR	17	4	0	PAW	1029	0	n/a	0	n/a	n/a	n/a	n/a	n/a
3334016	RECOG_RESP	n/a	LTP127	ltpFR	17	4	0	PAW	1029	1	n/a	0	n/a	n/a	n/a	n/a	n/a
3334989	RECOG_CONF	n/a	LTP127	ltpFR	17	4	0	PAW	1029	n/a	3	0	n/a	n/a	n/a	n/a	n/a
3336486	RECOG_TARGET	n/a	LTP127	ltpFR	17	4	0	CREVICE	405	1	5	1	n/a	n/a	n/a	n/a	n/a
3337134	RECOG_RESP	n/a	LTP127	ltpFR	17	4	0	CREVICE	405	1	n/a	1	n/a	n/a	n/a	n/a	n/a
3337678	RECOG_CONF	n/a	LTP127	ltpFR	17	4	0	CREVICE	405	n/a	5	1	n/a	n/a	n/a	n/a	n/a
3339260	RECOG_LURE	n/a	LTP127	ltpFR	17	4	n/a	ATTORNEY	58	0	5	n/a	n/a	n/a	n/a	n/a	n/a
3339997	RECOG_RESP	n/a	LTP127	ltpFR	17	4	n/a	ATTORNEY	58	0	n/a	n/a	n/a	n/a	n/a	n/a	n/a
3340425	RECOG_CONF	n/a	LTP127	ltpFR	17	4	n/a	ATTORNEY	58	n/a	5	n/a	n/a	n/a	n/a	n/a	n/a
3341975	RECOG_TARGET	n/a	LTP127	ltpFR	17	4	0	CONVICT	371	1	5	1	n/a	n/a	n/a	n/a	n/a
3342726	RECOG_RESP	n/a	LTP127	ltpFR	17	4	0	CONVICT	371	1	n/a	1	n/a	n/a	n/a	n/a	n/a
3343229	RECOG_CONF	n/a	LTP127	ltpFR	17	4	0	CONVICT	371	n/a	5	1	n/a	n/a	n/a	n/a	n/a
3344758	RECOG_TARGET	n/a	LTP127	ltpFR	17	4	-1	TOOTHBRUSH	1482	1	5	-1	n/a	n/a	n/a	n/a	n/a
3345684	RECOG_RESP	n/a	LTP127	ltpFR	17	4	-1	TOOTHBRUSH	1482	1	n/a	-1	n/a	n/a	n/a	n/a	n/a
3346367	RECOG_CONF	n/a	LTP127	ltpFR	17	4	-1	TOOTHBRUSH	1482	n/a	5	-1	n/a	n/a	n/a	n/a	n/a
3347915	RECOG_TARGET	n/a	LTP127	ltpFR	17	4	1	FOREHEAD	592	1	5	1	n/a	n/a	n/a	n/a	n/a
3348628	RECOG_RESP	n/a	LTP127	ltpFR	17	4	1	FOREHEAD	592	1	n/a	1	n/a	n/a	n/a	n/a	n/a
3349226	RECOG_CONF	n/a	LTP127	ltpFR	17	4	1	FOREHEAD	592	n/a	5	1	n/a	n/a	n/a	n/a	n/a
3350672	RECOG_TARGET	n/a	LTP127	ltpFR	17	4	1	SCREW	1254	1	5	0	n/a	n/a	n/a	n/a	n/a
3351591	RECOG_RESP	n/a	LTP127	ltpFR	17	4	1	SCREW	1254	1	n/a	0	n/a	n/a	n/a	n/a	n/a
3352166	RECOG_CONF	n/a	LTP127	ltpFR	17	4	1	SCREW	1254	n/a	5	0	n/a	n/a	n/a	n/a	n/a
3353646	RECOG_TARGET	n/a	LTP127	ltpFR	17	4	-1	MOUNTAIN	924	1	5	-1	n/a	n/a	n/a	n/a	n/a
3357457	RECOG_RESP	n/a	LTP127	ltpFR	17	4	-1	MOUNTAIN	924	1	n/a	-1	n/a	n/a	n/a	n/a	n/a
3358001	RECOG_CONF	n/a	LTP127	ltpFR	17	4	-1	MOUNTAIN	924	n/a	5	-1	n/a	n/a	n/a	n/a	n/a
3359519	RECOG_TARGET	n/a	LTP127	ltpFR	17	4	0	ANT	25	1	5	0	n/a	n/a	n/a	n/a	n/a
3360486	RECOG_RESP	n/a	LTP127	ltpFR	17	4	0	ANT	25	1	n/a	0	n/a	n/a	n/a	n/a	n/a
3361118	RECOG_CONF	n/a	LTP127	ltpFR	17	4	0	ANT	25	n/a	5	0	n/a	n/a	n/a	n/a	n/a
3362551	RECOG_TARGET	n/a	LTP127	ltpFR	17	4	-1	CHIEF	298	1	5	-1	n/a	n/a	n/a	n/a	n/a
3363199	RECOG_RESP	n/a	LTP127	ltpFR	17	4	-1	CHIEF	298	1	n/a	-1	n/a	n/a	n/a	n/a	n/a
3363823	RECOG_CONF	n/a	LTP127	ltpFR	17	4	-1	CHIEF	298	n/a	5	-1	n/a	n/a	n/a	n/a	n/a
3365326	RECOG_TARGET	n/a	LTP127	ltpFR	17	4	0	FIREPLACE	570	1	5	1	n/a	n/a	n/a	n/a	n/a
3366397	RECOG_RESP	n/a	LTP127	ltpFR	17	4	0	FIREPLACE	570	1	n/a	1	n/a	n/a	n/a	n/a	n/a
3368173	RECOG_CONF	n/a	LTP127	ltpFR	17	4	0	FIREPLACE	570	n/a	5	1	n/a	n/a	n/a	n/a	n/a
3369682	RECOG_TARGET	n/a	LTP127	ltpFR	17	4	1	GHETTO	633	1	5	0	n/a	n/a	n/a	n/a	n/a
3373272	RECOG_RESP	n/a	LTP127	ltpFR	17	4	1	GHETTO	633	1	n/a	0	n/a	n/a	n/a	n/a	n/a
3373850	RECOG_CONF	n/a	LTP127	ltpFR	17	4	1	GHETTO	633	n/a	5	0	n/a	n/a	n/a	n/a	n/a
3375473	RECOG_TARGET	n/a	LTP127	ltpFR	17	4	1	HIP	710	1	5	1	n/a	n/a	n/a	n/a	n/a
3376544	RECOG_RESP	n/a	LTP127	ltpFR	17	4	1	HIP	710	1	n/a	1	n/a	n/a	n/a	n/a	n/a
3377088	RECOG_CONF	n/a	LTP127	ltpFR	17	4	1	HIP	710	n/a	5	1	n/a	n/a	n/a	n/a	n/a
3392441	REC_START	n/a	LTP127	ltpFR	17	5	n/a	n/a	n/a	n/a	n/a	n/a	n/a	n/a	n/a	n/a	n/a
3392475	RECOG_TARGET	n/a	LTP127	ltpFR	17	5	-1	FLEET	578	1	5	-1	n/a	n/a	n/a	n/a	n/a
3393379	RECOG_RESP	n/a	LTP127	ltpFR	17	5	-1	FLEET	578	1	n/a	-1	n/a	n/a	n/a	n/a	n/a
3393872	RECOG_CONF	n/a	LTP127	ltpFR	17	5	-1	FLEET	578	n/a	5	-1	n/a	n/a	n/a	n/a	n/a
3395424	RECOG_TARGET	n/a	LTP127	ltpFR	17	5	1	REPORT	1184	1	5	0	n/a	n/a	n/a	n/a	n/a
3396252	RECOG_RESP	n/a	LTP127	ltpFR	17	5	1	REPORT	1184	1	n/a	0	n/a	n/a	n/a	n/a	n/a
3396698	RECOG_CONF	n/a	LTP127	ltpFR	17	5	1	REPORT	1184	n/a	5	0	n/a	n/a	n/a	n/a	n/a
3398155	RECOG_LURE	n/a	LTP127	ltpFR	17	5	n/a	WINDOW	1611	0	4	n/a	n/a	n/a	n/a	n/a	n/a
3399036	RECOG_RESP	n/a	LTP127	ltpFR	17	5	n/a	WINDOW	1611	0	n/a	n/a	n/a	n/a	n/a	n/a	n/a
3399482	RECOG_CONF	n/a	LTP127	ltpFR	17	5	n/a	WINDOW	1611	n/a	4	n/a	n/a	n/a	n/a	n/a	n/a
3400954	RECOG_LURE	n/a	LTP127	ltpFR	17	5	n/a	ROOT	1210	0	2	n/a	n/a	n/a	n/a	n/a	n/a
3401565	RECOG_RESP	n/a	LTP127	ltpFR	17	5	n/a	ROOT	1210	0	n/a	n/a	n/a	n/a	n/a	n/a	n/a
3402034	RECOG_CONF	n/a	LTP127	ltpFR	17	5	n/a	ROOT	1210	n/a	2	n/a	n/a	n/a	n/a	n/a	n/a
3403454	RECOG_TARGET	n/a	LTP127	ltpFR	17	5	0	STUMP	1396	1	5	1	n/a	n/a	n/a	n/a	n/a
3404473	RECOG_RESP	n/a	LTP127	ltpFR	17	5	0	STUMP	1396	1	n/a	1	n/a	n/a	n/a	n/a	n/a
3405058	RECOG_CONF	n/a	LTP127	ltpFR	17	5	0	STUMP	1396	n/a	5	1	n/a	n/a	n/a	n/a	n/a
3406619	RECOG_TARGET	n/a	LTP127	ltpFR	17	5	0	SKULL	1320	1	5	0	n/a	n/a	n/a	n/a	n/a
3407302	RECOG_RESP	n/a	LTP127	ltpFR	17	5	0	SKULL	1320	1	n/a	0	n/a	n/a	n/a	n/a	n/a
3407836	RECOG_CONF	n/a	LTP127	ltpFR	17	5	0	SKULL	1320	n/a	5	0	n/a	n/a	n/a	n/a	n/a
3409336	RECOG_LURE	n/a	LTP127	ltpFR	17	5	n/a	DONOR	485	0	4	n/a	n/a	n/a	n/a	n/a	n/a
3410126	RECOG_RESP	n/a	LTP127	ltpFR	17	5	n/a	DONOR	485	0	n/a	n/a	n/a	n/a	n/a	n/a	n/a
3410545	RECOG_CONF	n/a	LTP127	ltpFR	17	5	n/a	DONOR	485	n/a	4	n/a	n/a	n/a	n/a	n/a	n/a
3411992	RECOG_LURE	n/a	LTP127	ltpFR	17	5	n/a	OUTDOORS	987	0	5	n/a	n/a	n/a	n/a	n/a	n/a
3412590	RECOG_RESP	n/a	LTP127	ltpFR	17	5	n/a	OUTDOORS	987	0	n/a	n/a	n/a	n/a	n/a	n/a	n/a
3413039	RECOG_CONF	n/a	LTP127	ltpFR	17	5	n/a	OUTDOORS	987	n/a	5	n/a	n/a	n/a	n/a	n/a	n/a
3414376	RECOG_LURE	n/a	LTP127	ltpFR	17	5	n/a	DIAL	457	0	4	n/a	n/a	n/a	n/a	n/a	n/a
3418297	RECOG_RESP	n/a	LTP127	ltpFR	17	5	n/a	DIAL	457	0	n/a	n/a	n/a	n/a	n/a	n/a	n/a
3419734	RECOG_CONF	n/a	LTP127	ltpFR	17	5	n/a	DIAL	457	n/a	4	n/a	n/a	n/a	n/a	n/a	n/a
3421340	RECOG_LURE	n/a	LTP127	ltpFR	17	5	n/a	PIANO	1057	0	5	n/a	n/a	n/a	n/a	n/a	n/a
3422912	RECOG_RESP	n/a	LTP127	ltpFR	17	5	n/a	PIANO	1057	0	n/a	n/a	n/a	n/a	n/a	n/a	n/a
3423475	RECOG_CONF	n/a	LTP127	ltpFR	17	5	n/a	PIANO	1057	n/a	5	n/a	n/a	n/a	n/a	n/a	n/a
3425087	RECOG_TARGET	n/a	LTP127	ltpFR	17	5	0	SERVER	1272	0	2	0	n/a	n/a	n/a	n/a	n/a
3425860	RECOG_RESP_VV	n/a	LTP127	ltpFR	17	5	0	SERVER	1272	1	n/a	0	n/a	n/a	n/a	n/a	n/a
3426723	RECOG_RESP	n/a	LTP127	ltpFR	17	5	0	SERVER	1272	0	n/a	0	n/a	n/a	n/a	n/a	n/a
3427546	RECOG_CONF	n/a	LTP127	ltpFR	17	5	0	SERVER	1272	n/a	2	0	n/a	n/a	n/a	n/a	n/a
3429178	RECOG_LURE	n/a	LTP127	ltpFR	17	5	n/a	CABIN	211	0	2	n/a	n/a	n/a	n/a	n/a	n/a
3430280	RECOG_RESP	n/a	LTP127	ltpFR	17	5	n/a	CABIN	211	0	n/a	n/a	n/a	n/a	n/a	n/a	n/a
3430968	RECOG_CONF	n/a	LTP127	ltpFR	17	5	n/a	CABIN	211	n/a	2	n/a	n/a	n/a	n/a	n/a	n/a
3432394	RECOG_TARGET	n/a	LTP127	ltpFR	17	5	1	AGENT	10	1	5	1	n/a	n/a	n/a	n/a	n/a
3433727	RECOG_RESP	n/a	LTP127	ltpFR	17	5	1	AGENT	10	1	n/a	1	n/a	n/a	n/a	n/a	n/a
3434331	RECOG_CONF	n/a	LTP127	ltpFR	17	5	1	AGENT	10	n/a	5	1	n/a	n/a	n/a	n/a	n/a
3435917	RECOG_TARGET	n/a	LTP127	ltpFR	17	5	0	CONVENT	370	1	5	1	n/a	n/a	n/a	n/a	n/a
3436685	RECOG_RESP	n/a	LTP127	ltpFR	17	5	0	CONVENT	370	1	n/a	1	n/a	n/a	n/a	n/a	n/a
3437643	RECOG_CONF	n/a	LTP127	ltpFR	17	5	0	CONVENT	370	n/a	5	1	n/a	n/a	n/a	n/a	n/a
3439342	RECOG_LURE	n/a	LTP127	ltpFR	17	5	n/a	SHELTER	1282	0	4	n/a	n/a	n/a	n/a	n/a	n/a
3440656	RECOG_RESP	n/a	LTP127	ltpFR	17	5	n/a	SHELTER	1282	0	n/a	n/a	n/a	n/a	n/a	n/a	n/a
3441246	RECOG_CONF	n/a	LTP127	ltpFR	17	5	n/a	SHELTER	1282	n/a	4	n/a	n/a	n/a	n/a	n/a	n/a
3442764	RECOG_TARGET	n/a	LTP127	ltpFR	17	5	1	MERMAID	887	1	5	1	n/a	n/a	n/a	n/a	n/a
3443844	RECOG_RESP	n/a	LTP127	ltpFR	17	5	1	MERMAID	887	1	n/a	1	n/a	n/a	n/a	n/a	n/a
3444408	RECOG_CONF	n/a	LTP127	ltpFR	17	5	1	MERMAID	887	n/a	5	1	n/a	n/a	n/a	n/a	n/a
3446080	RECOG_LURE	n/a	LTP127	ltpFR	17	5	n/a	CERAMICS	271	0	4	n/a	n/a	n/a	n/a	n/a	n/a
3448823	RECOG_RESP	n/a	LTP127	ltpFR	17	5	n/a	CERAMICS	271	0	n/a	n/a	n/a	n/a	n/a	n/a	n/a
3449406	RECOG_CONF	n/a	LTP127	ltpFR	17	5	n/a	CERAMICS	271	n/a	4	n/a	n/a	n/a	n/a	n/a	n/a
3451036	RECOG_TARGET	n/a	LTP127	ltpFR	17	5	0	DETERGENT	455	1	5	0	n/a	n/a	n/a	n/a	n/a
3451891	RECOG_RESP	n/a	LTP127	ltpFR	17	5	0	DETERGENT	455	1	n/a	0	n/a	n/a	n/a	n/a	n/a
3452435	RECOG_CONF	n/a	LTP127	ltpFR	17	5	0	DETERGENT	455	n/a	5	0	n/a	n/a	n/a	n/a	n/a
3454102	RECOG_TARGET	n/a	LTP127	ltpFR	17	5	0	SHRIMP	1297	1	2	0	n/a	n/a	n/a	n/a	n/a
3458685	RECOG_RESP	n/a	LTP127	ltpFR	17	5	0	SHRIMP	1297	1	n/a	0	n/a	n/a	n/a	n/a	n/a
3459533	RECOG_CONF	n/a	LTP127	ltpFR	17	5	0	SHRIMP	1297	n/a	2	0	n/a	n/a	n/a	n/a	n/a
3461301	RECOG_TARGET	n/a	LTP127	ltpFR	17	5	0	RAT	1169	1	5	0	n/a	n/a	n/a	n/a	n/a
3463075	RECOG_RESP	n/a	LTP127	ltpFR	17	5	0	RAT	1169	1	n/a	0	n/a	n/a	n/a	n/a	n/a
3463616	RECOG_CONF	n/a	LTP127	ltpFR	17	5	0	RAT	1169	n/a	5	0	n/a	n/a	n/a	n/a	n/a
3483630	REC_START	n/a	LTP127	ltpFR	17	6	n/a	n/a	n/a	n/a	n/a	n/a	n/a	n/a	n/a	n/a	n/a
3483667	RECOG_TARGET	n/a	LTP127	ltpFR	17	6	1	BLACKBOARD	133	1	5	0	n/a	n/a	n/a	n/a	n/a
3485002	RECOG_RESP	n/a	LTP127	ltpFR	17	6	1	BLACKBOARD	133	1	n/a	0	n/a	n/a	n/a	n/a	n/a
3485616	RECOG_CONF	n/a	LTP127	ltpFR	17	6	1	BLACKBOARD	133	n/a	5	0	n/a	n/a	n/a	n/a	n/a
3487074	RECOG_LURE	n/a	LTP127	ltpFR	17	6	n/a	SOFA	1342	0	3	n/a	n/a	n/a	n/a	n/a	n/a
3488184	RECOG_RESP	n/a	LTP127	ltpFR	17	6	n/a	SOFA	1342	0	n/a	n/a	n/a	n/a	n/a	n/a	n/a
3488823	RECOG_CONF	n/a	LTP127	ltpFR	17	6	n/a	SOFA	1342	n/a	3	n/a	n/a	n/a	n/a	n/a	n/a
3490131	RECOG_LURE	n/a	LTP127	ltpFR	17	6	n/a	FIDDLE	561	0	5	n/a	n/a	n/a	n/a	n/a	n/a
3490809	RECOG_RESP	n/a	LTP127	ltpFR	17	6	n/a	FIDDLE	561	0	n/a	n/a	n/a	n/a	n/a	n/a	n/a
3491357	RECOG_CONF	n/a	LTP127	ltpFR	17	6	n/a	FIDDLE	561	n/a	5	n/a	n/a	n/a	n/a	n/a	n/a
3492797	RECOG_LURE	n/a	LTP127	ltpFR	17	6	n/a	HOME	712	0	4	n/a	n/a	n/a	n/a	n/a	n/a
3493373	RECOG_RESP	n/a	LTP127	ltpFR	17	6	n/a	HOME	712	0	n/a	n/a	n/a	n/a	n/a	n/a	n/a
3493951	RECOG_CONF	n/a	LTP127	ltpFR	17	6	n/a	HOME	712	n/a	4	n/a	n/a	n/a	n/a	n/a	n/a
3495397	RECOG_TARGET	n/a	LTP127	ltpFR	17	6	1	PATRIOT	1026	1	5	1	n/a	n/a	n/a	n/a	n/a
3496062	RECOG_RESP	n/a	LTP127	ltpFR	17	6	1	PATRIOT	1026	1	n/a	1	n/a	n/a	n/a	n/a	n/a
3496595	RECOG_CONF	n/a	LTP127	ltpFR	17	6	1	PATRIOT	1026	n/a	5	1	n/a	n/a	n/a	n/a	n/a
3498253	RECOG_TARGET	n/a	LTP127	ltpFR	17	6	1	STOCKING	1383	1	5	0	n/a	n/a	n/a	n/a	n/a
3501734	RECOG_RESP	n/a	LTP127	ltpFR	17	6	1	STOCKING	1383	1	n/a	0	n/a	n/a	n/a	n/a	n/a
3502213	RECOG_CONF	n/a	LTP127	ltpFR	17	6	1	STOCKING	1383	n/a	5	0	n/a	n/a	n/a	n/a	n/a
3503784	RECOG_TARGET	n/a	LTP127	ltpFR	17	6	1	CANAL	226	1	5	0	n/a	n/a	n/a	n/a	n/a
3504328	RECOG_RESP	n/a	LTP127	ltpFR	17	6	1	CANAL	226	1	n/a	0	n/a	n/a	n/a	n/a	n/a
3504872	RECOG_CONF	n/a	LTP127	ltpFR	17	6	1	CANAL	226	n/a	5	0	n/a	n/a	n/a	n/a	n/a
3506293	RECOG_TARGET	n/a	LTP127	ltpFR	17	6	0	AIRCRAFT	11	1	5	1	n/a	n/a	n/a	n/a	n/a
3508887	RECOG_RESP	n/a	LTP127	ltpFR	17	6	0	AIRCRAFT	11	1	n/a	1	n/a	n/a	n/a	n/a	n/a
3509795	RECOG_CONF	n/a	LTP127	ltpFR	17	6	0	AIRCRAFT	11	n/a	5	1	n/a	n/a	n/a	n/a	n/a
3511299	RECOG_LURE	n/a	LTP127	ltpFR	17	6	n/a	MONARCH	906	0	4	n/a	n/a	n/a	n/a	n/a	n/a
3514400	RECOG_RESP	n/a	LTP127	ltpFR	17	6	n/a	MONARCH	906	0	n/a	n/a	n/a	n/a	n/a	n/a	n/a
3515013	RECOG_CONF	n/a	LTP127	ltpFR	17	6	n/a	MONARCH	906	n/a	4	n/a	n/a	n/a	n/a	n/a	n/a
3516705	RECOG_TARGET	n/a	LTP127	ltpFR	17	6	0	EYELASH	546	1	5	0	n/a	n/a	n/a	n/a	n/a
3517538	RECOG_RESP	n/a	LTP127	ltpFR	17	6	0	EYELASH	546	1	n/a	0	n/a	n/a	n/a	n/a	n/a
3518299	RECOG_CONF	n/a	LTP127	ltpFR	17	6	0	EYELASH	546	n/a	5	0	n/a	n/a	n/a	n/a	n/a
3520112	RECOG_TARGET	n/a	LTP127	ltpFR	17	6	-1	SYRINGE	1424	1	5	-1	n/a	n/a	n/a	n/a	n/a
3521130	RECOG_RESP	n/a	LTP127	ltpFR	17	6	-1	SYRINGE	1424	1	n/a	-1	n/a	n/a	n/a	n/a	n/a
3521968	RECOG_CONF	n/a	LTP127	ltpFR	17	6	-1	SYRINGE	1424	n/a	5	-1	n/a	n/a	n/a	n/a	n/a
3523761	RECOG_TARGET	n/a	LTP127	ltpFR	17	6	-1	BEAN	105	1	4	-1	n/a	n/a	n/a	n/a	n/a
3530568	RECOG_RESP	n/a	LTP127	ltpFR	17	6	-1	BEAN	105	1	n/a	-1	n/a	n/a	n/a	n/a	n/a
3531336	RECOG_CONF	n/a	LTP127	ltpFR	17	6	-1	BEAN	105	n/a	4	-1	n/a	n/a	n/a	n/a	n/a
3532982	RECOG_LURE	n/a	LTP127	ltpFR	17	6	n/a	FISH	571	0	5	n/a	n/a	n/a	n/a	n/a	n/a
3535652	RECOG_RESP	n/a	LTP127	ltpFR	17	6	n/a	FISH	571	0	n/a	n/a	n/a	n/a	n/a	n/a	n/a
3536116	RECOG_CONF	n/a	LTP127	ltpFR	17	6	n/a	FISH	571	n/a	5	n/a	n/a	n/a	n/a	n/a	n/a
3537772	RECOG_TARGET	n/a	LTP127	ltpFR	17	6	0	PERCH	1048	1	5	0	n/a	n/a	n/a	n/a	n/a
3538420	RECOG_RESP	n/a	LTP127	ltpFR	17	6	0	PERCH	1048	1	n/a	0	n/a	n/a	n/a	n/a	n/a
3538964	RECOG_CONF	n/a	LTP127	ltpFR	17	6	0	PERCH	1048	n/a	5	0	n/a	n/a	n/a	n/a	n/a
3540481	RECOG_TARGET	n/a	LTP127	ltpFR	17	6	0	GLOVE	642	1	5	0	n/a	n/a	n/a	n/a	n/a
3541074	RECOG_RESP	n/a	LTP127	ltpFR	17	6	0	GLOVE	642	1	n/a	0	n/a	n/a	n/a	n/a	n/a
3541631	RECOG_CONF	n/a	LTP127	ltpFR	17	6	0	GLOVE	642	n/a	5	0	n/a	n/a	n/a	n/a	n/a
3543079	RECOG_TARGET	n/a	LTP127	ltpFR	17	6	1	SUPERVISOR	1410	1	5	1	n/a	n/a	n/a	n/a	n/a
3543643	RECOG_RESP	n/a	LTP127	ltpFR	17	6	1	SUPERVISOR	1410	1	n/a	1	n/a	n/a	n/a	n/a	n/a
3544275	RECOG_CONF	n/a	LTP127	ltpFR	17	6	1	SUPERVISOR	1410	n/a	5	1	n/a	n/a	n/a	n/a	n/a
3545603	RECOG_TARGET	n/a	LTP127	ltpFR	17	6	1	SKETCH	1315	1	5	0	n/a	n/a	n/a	n/a	n/a
3546352	RECOG_RESP	n/a	LTP127	ltpFR	17	6	1	SKETCH	1315	1	n/a	0	n/a	n/a	n/a	n/a	n/a
3546850	RECOG_CONF	n/a	LTP127	ltpFR	17	6	1	SKETCH	1315	n/a	5	0	n/a	n/a	n/a	n/a	n/a
3548295	RECOG_LURE	n/a	LTP127	ltpFR	17	6	n/a	MEAL	882	0	4	n/a	n/a	n/a	n/a	n/a	n/a
3548742	RECOG_RESP	n/a	LTP127	ltpFR	17	6	n/a	MEAL	882	0	n/a	n/a	n/a	n/a	n/a	n/a	n/a
3549755	RECOG_CONF	n/a	LTP127	ltpFR	17	6	n/a	MEAL	882	n/a	4	n/a	n/a	n/a	n/a	n/a	n/a
3551319	RECOG_TARGET	n/a	LTP127	ltpFR	17	6	-1	SKELETON	1314	1	5	-1	n/a	n/a	n/a	n/a	n/a
3554554	RECOG_RESP	n/a	LTP127	ltpFR	17	6	-1	SKELETON	1314	1	n/a	-1	n/a	n/a	n/a	n/a	n/a
3555144	RECOG_CONF	n/a	LTP127	ltpFR	17	6	-1	SKELETON	1314	n/a	5	-1	n/a	n/a	n/a	n/a	n/a
3556616	RECOG_TARGET	n/a	LTP127	ltpFR	17	6	0	LUGGAGE	847	1	5	1	n/a	n/a	n/a	n/a	n/a
3557307	RECOG_RESP	n/a	LTP127	ltpFR	17	6	0	LUGGAGE	847	1	n/a	1	n/a	n/a	n/a	n/a	n/a
3557916	RECOG_CONF	n/a	LTP127	ltpFR	17	6	0	LUGGAGE	847	n/a	5	1	n/a	n/a	n/a	n/a	n/a
3561216	REC_START	n/a	LTP127	ltpFR	17	7	n/a	n/a	n/a	n/a	n/a	n/a	n/a	n/a	n/a	n/a	n/a
3561247	RECOG_TARGET	n/a	LTP127	ltpFR	17	7	1	SLIDE	1326	1	2	0	n/a	n/a	n/a	n/a	n/a
3562219	RECOG_RESP	n/a	LTP127	ltpFR	17	7	1	SLIDE	1326	1	n/a	0	n/a	n/a	n/a	n/a	n/a
3562757	RECOG_CONF	n/a	LTP127	ltpFR	17	7	1	SLIDE	1326	n/a	2	0	n/a	n/a	n/a	n/a	n/a
3564255	RECOG_TARGET	n/a	LTP127	ltpFR	17	7	1	BULL	193	1	5	1	n/a	n/a	n/a	n/a	n/a
3564828	RECOG_RESP	n/a	LTP127	ltpFR	17	7	1	BULL	193	1	n/a	1	n/a	n/a	n/a	n/a	n/a
3565470	RECOG_CONF	n/a	LTP127	ltpFR	17	7	1	BULL	193	n/a	5	1	n/a	n/a	n/a	n/a	n/a
3566979	RECOG_TARGET	n/a	LTP127	ltpFR	17	7	0	NOVEL	960	1	5	0	n/a	n/a	n/a	n/a	n/a
3567531	RECOG_RESP	n/a	LTP127	ltpFR	17	7	0	NOVEL	960	1	n/a	0	n/a	n/a	n/a	n/a	n/a
3568554	RECOG_CONF	n/a	LTP127	ltpFR	17	7	0	NOVEL	960	n/a	5	0	n/a	n/a	n/a	n/a	n/a
3570178	RECOG_LURE	n/a	LTP127	ltpFR	17	7	n/a	KING	777	0	3	n/a	n/a	n/a	n/a	n/a	n/a
3572316	RECOG_RESP	n/a	LTP127	ltpFR	17	7	n/a	KING	777	0	n/a	n/a	n/a	n/a	n/a	n/a	n/a
3572924	RECOG_CONF	n/a	LTP127	ltpFR	17	7	n/a	KING	777	n/a	3	n/a	n/a	n/a	n/a	n/a	n/a
3574377	RECOG_TARGET	n/a	LTP127	ltpFR	17	7	-1	COMMANDER	354	1	2	-1	n/a	n/a	n/a	n/a	n/a
3574970	RECOG_RESP	n/a	LTP127	ltpFR	17	7	-1	COMMANDER	354	1	n/a	-1	n/a	n/a	n/a	n/a	n/a
3575947	RECOG_CONF	n/a	LTP127	ltpFR	17	7	-1	COMMANDER	354	n/a	2	-1	n/a	n/a	n/a	n/a	n/a
3577418	RECOG_TARGET	n/a	LTP127	ltpFR	17	7	1	JEANS	752	1	5	0	n/a	n/a	n/a	n/a	n/a
3579190	RECOG_RESP	n/a	LTP127	ltpFR	17	7	1	JEANS	752	1	n/a	0	n/a	n/a	n/a	n/a	n/a
3579804	RECOG_CONF	n/a	LTP127	ltpFR	17	7	1	JEANS	752	n/a	5	0	n/a	n/a	n/a	n/a	n/a
3581375	RECOG_LURE	n/a	LTP127	ltpFR	17	7	n/a	ADOLESCENT	7	0	4	n/a	n/a	n/a	n/a	n/a	n/a
3582063	RECOG_RESP	n/a	LTP127	ltpFR	17	7	n/a	ADOLESCENT	7	0	n/a	n/a	n/a	n/a	n/a	n/a	n/a
3582522	RECOG_CONF	n/a	LTP127	ltpFR	17	7	n/a	ADOLESCENT	7	n/a	4	n/a	n/a	n/a	n/a	n/a	n/a
3584114	RECOG_TARGET	n/a	LTP127	ltpFR	17	7	0	BUGGY	188	1	5	0	n/a	n/a	n/a	n/a	n/a
3584787	RECOG_RESP	n/a	LTP127	ltpFR	17	7	0	BUGGY	188	1	n/a	0	n/a	n/a	n/a	n/a	n/a
3585354	RECOG_CONF	n/a	LTP127	ltpFR	17	7	0	BUGGY	188	n/a	5	0	n/a	n/a	n/a	n/a	n/a
3586888	RECOG_TARGET	n/a	LTP127	ltpFR	17	7	-1	CORPORATION	382	1	5	-1	n/a	n/a	n/a	n/a	n/a
3587656	RECOG_RESP	n/a	LTP127	ltpFR	17	7	-1	CORPORATION	382	1	n/a	-1	n/a	n/a	n/a	n/a	n/a
3588205	RECOG_CONF	n/a	LTP127	ltpFR	17	7	-1	CORPORATION	382	n/a	5	-1	n/a	n/a	n/a	n/a	n/a
3589696	RECOG_LURE	n/a	LTP127	ltpFR	17	7	n/a	PORTRAIT	1111	1	2	n/a	n/a	n/a	n/a	n/a	n/a
3590774	RECOG_RESP	n/a	LTP127	ltpFR	17	7	n/a	PORTRAIT	1111	1	n/a	n/a	n/a	n/a	n/a	n/a	n/a
3591422	RECOG_CONF	n/a	LTP127	ltpFR	17	7	n/a	PORTRAIT	1111	n/a	2	n/a	n/a	n/a	n/a	n/a	n/a
3592919	RECOG_TARGET	n/a	LTP127	ltpFR	17	7	1	ORCHESTRA	981	1	5	1	n/a	n/a	n/a	n/a	n/a
3593567	RECOG_RESP	n/a	LTP127	ltpFR	17	7	1	ORCHESTRA	981	1	n/a	1	n/a	n/a	n/a	n/a	n/a
3594111	RECOG_CONF	n/a	LTP127	ltpFR	17	7	1	ORCHESTRA	981	n/a	5	1	n/a	n/a	n/a	n/a	n/a
3595635	RECOG_LURE	n/a	LTP127	ltpFR	17	7	n/a	MASK	876	0	3	n/a	n/a	n/a	n/a	n/a	n/a
3597438	RECOG_RESP	n/a	LTP127	ltpFR	17	7	n/a	MASK	876	0	n/a	n/a	n/a	n/a	n/a	n/a	n/a
3598007	RECOG_CONF	n/a	LTP127	ltpFR	17	7	n/a	MASK	876	n/a	3	n/a	n/a	n/a	n/a	n/a	n/a
3599476	RECOG_TARGET	n/a	LTP127	ltpFR	17	7	0	BEAD	103	1	5	0	n/a	n/a	n/a	n/a	n/a
3599983	RECOG_RESP	n/a	LTP127	ltpFR	17	7	0	BEAD	103	1	n/a	0	n/a	n/a	n/a	n/a	n/a
3600521	RECOG_CONF	n/a	LTP127	ltpFR	17	7	0	BEAD	103	n/a	5	0	n/a	n/a	n/a	n/a	n/a
3602033	RECOG_TARGET	n/a	LTP127	ltpFR	17	7	1	PUB	1135	1	5	0	n/a	n/a	n/a	n/a	n/a
3602806	RECOG_RESP	n/a	LTP127	ltpFR	17	7	1	PUB	1135	1	n/a	0	n/a	n/a	n/a	n/a	n/a
3603350	RECOG_CONF	n/a	LTP127	ltpFR	17	7	1	PUB	1135	n/a	5	0	n/a	n/a	n/a	n/a	n/a
3604765	RECOG_LURE	n/a	LTP127	ltpFR	17	7	n/a	GUARDIAN	668	1	2	n/a	n/a	n/a	n/a	n/a	n/a
3606219	RECOG_RESP	n/a	LTP127	ltpFR	17	7	n/a	GUARDIAN	668	1	n/a	n/a	n/a	n/a	n/a	n/a	n/a
3607216	RECOG_CONF	n/a	LTP127	ltpFR	17	7	n/a	GUARDIAN	668	n/a	2	n/a	n/a	n/a	n/a	n/a	n/a
3608797	RECOG_TARGET	n/a	LTP127	ltpFR	17	7	1	CHICKEN	297	1	5	1	n/a	n/a	n/a	n/a	n/a
3610000	RECOG_RESP	n/a	LTP127	ltpFR	17	7	1	CHICKEN	297	1	n/a	1	n/a	n/a	n/a	n/a	n/a
3610511	RECOG_CONF	n/a	LTP127	ltpFR	17	7	1	CHICKEN	297	n/a	5	1	n/a	n/a	n/a	n/a	n/a
3611946	RECOG_TARGET	n/a	LTP127	ltpFR	17	7	1	MOSQUITO	917	1	5	1	n/a	n/a	n/a	n/a	n/a
3612504	RECOG_RESP	n/a	LTP127	ltpFR	17	7	1	MOSQUITO	917	1	n/a	1	n/a	n/a	n/a	n/a	n/a
3613025	RECOG_CONF	n/a	LTP127	ltpFR	17	7	1	MOSQUITO	917	n/a	5	1	n/a	n/a	n/a	n/a	n/a
3614495	RECOG_TARGET	n/a	LTP127	ltpFR	17	7	0	WASHER	1592	1	5	0	n/a	n/a	n/a	n/a	n/a
3615033	RECOG_RESP	n/a	LTP127	ltpFR	17	7	0	WASHER	1592	1	n/a	0	n/a	n/a	n/a	n/a	n/a
3615697	RECOG_CONF	n/a	LTP127	ltpFR	17	7	0	WASHER	1592	n/a	5	0	n/a	n/a	n/a	n/a	n/a
3617169	RECOG_TARGET	n/a	LTP127	ltpFR	17	7	-1	ARMY	39	1	5	-1	n/a	n/a	n/a	n/a	n/a
3617682	RECOG_RESP	n/a	LTP127	ltpFR	17	7	-1	ARMY	39	1	n/a	-1	n/a	n/a	n/a	n/a	n/a
3618281	RECOG_CONF	n/a	LTP127	ltpFR	17	7	-1	ARMY	39	n/a	5	-1	n/a	n/a	n/a	n/a	n/a
3619851	RECOG_LURE	n/a	LTP127	ltpFR	17	7	n/a	PLAZA	1088	0	4	n/a	n/a	n/a	n/a	n/a	n/a
3620489	RECOG_RESP	n/a	LTP127	ltpFR	17	7	n/a	PLAZA	1088	0	n/a	n/a	n/a	n/a	n/a	n/a	n/a
3620905	RECOG_CONF	n/a	LTP127	ltpFR	17	7	n/a	PLAZA	1088	n/a	4	n/a	n/a	n/a	n/a	n/a	n/a
3624146	REC_START	n/a	LTP127	ltpFR	17	8	n/a	n/a	n/a	n/a	n/a	n/a	n/a	n/a	n/a	n/a	n/a
3624183	RECOG_TARGET	n/a	LTP127	ltpFR	17	8	1	CROCODILE	411	1	5	1	n/a	n/a	n/a	n/a	n/a
3624869	RECOG_RESP	n/a	LTP127	ltpFR	17	8	1	CROCODILE	411	1	n/a	1	n/a	n/a	n/a	n/a	n/a
3625348	RECOG_CONF	n/a	LTP127	ltpFR	17	8	1	CROCODILE	411	n/a	5	1	n/a	n/a	n/a	n/a	n/a
3626807	RECOG_LURE	n/a	LTP127	ltpFR	17	8	n/a	CAP	236	0	3	n/a	n/a	n/a	n/a	n/a	n/a
3627493	RECOG_RESP	n/a	LTP127	ltpFR	17	8	n/a	CAP	236	0	n/a	n/a	n/a	n/a	n/a	n/a	n/a
3628092	RECOG_CONF	n/a	LTP127	ltpFR	17	8	n/a	CAP	236	n/a	3	n/a	n/a	n/a	n/a	n/a	n/a
3629506	RECOG_LURE	n/a	LTP127	ltpFR	17	8	n/a	SNAKE	1333	0	4	n/a	n/a	n/a	n/a	n/a	n/a
3630062	RECOG_RESP	n/a	LTP127	ltpFR	17	8	n/a	SNAKE	1333	0	n/a	n/a	n/a	n/a	n/a	n/a	n/a
3630536	RECOG_CONF	n/a	LTP127	ltpFR	17	8	n/a	SNAKE	1333	n/a	4	n/a	n/a	n/a	n/a	n/a	n/a
3632064	RECOG_TARGET	n/a	LTP127	ltpFR	17	8	-1	PAIL	1002	1	5	-1	n/a	n/a	n/a	n/a	n/a
3632577	RECOG_RESP	n/a	LTP127	ltpFR	17	8	-1	PAIL	1002	1	n/a	-1	n/a	n/a	n/a	n/a	n/a
3633200	RECOG_CONF	n/a	LTP127	ltpFR	17	8	-1	PAIL	1002	n/a	5	-1	n/a	n/a	n/a	n/a	n/a
3634763	RECOG_TARGET	n/a	LTP127	ltpFR	17	8	1	PIGEON	1065	1	5	1	n/a	n/a	n/a	n/a	n/a
3635884	RECOG_RESP	n/a	LTP127	ltpFR	17	8	1	PIGEON	1065	1	n/a	1	n/a	n/a	n/a	n/a	n/a
3636428	RECOG_CONF	n/a	LTP127	ltpFR	17	8	1	PIGEON	1065	n/a	5	1	n/a	n/a	n/a	n/a	n/a
3637928	RECOG_TARGET	n/a	LTP127	ltpFR	17	8	0	HEAD	695	1	5	0	n/a	n/a	n/a	n/a	n/a
3638458	RECOG_RESP	n/a	LTP127	ltpFR	17	8	0	HEAD	695	1	n/a	0	n/a	n/a	n/a	n/a	n/a
3638956	RECOG_CONF	n/a	LTP127	ltpFR	17	8	0	HEAD	695	n/a	5	0	n/a	n/a	n/a	n/a	n/a
3640462	RECOG_TARGET	n/a	LTP127	ltpFR	17	8	0	STAKE	1368	1	5	0	n/a	n/a	n/a	n/a	n/a
3641022	RECOG_RESP	n/a	LTP127	ltpFR	17	8	0	STAKE	1368	1	n/a	0	n/a	n/a	n/a	n/a	n/a
3641511	RECOG_CONF	n/a	LTP127	ltpFR	17	8	0	STAKE	1368	n/a	5	0	n/a	n/a	n/a	n/a	n/a
3642927	RECOG_TARGET	n/a	LTP127	ltpFR	17	8	1	WELL	1600	1	5	0	n/a	n/a	n/a	n/a	n/a
3643512	RECOG_RESP	n/a	LTP127	ltpFR	17	8	1	WELL	1600	1	n/a	0	n/a	n/a	n/a	n/a	n/a
3644084	RECOG_CONF	n/a	LTP127	ltpFR	17	8	1	WELL	1600	n/a	5	0	n/a	n/a	n/a	n/a	n/a
3645477	RECOG_TARGET	n/a	LTP127	ltpFR	17	8	1	FARMER	553	1	5	1	n/a	n/a	n/a	n/a	n/a
3645956	RECOG_RESP	n/a	LTP127	ltpFR	17	8	1	FARMER	553	1	n/a	1	n/a	n/a	n/a	n/a	n/a
3646459	RECOG_CONF	n/a	LTP127	ltpFR	17	8	1	FARMER	553	n/a	5	1	n/a	n/a	n/a	n/a	n/a
