onset	duration	trial_type	sample	stim_file	subject	experiment	session	trial	task	item_name	item_num	recog_resp	recog_conf	resp	color_r	color_g	color_b	case	font
418.856	n/a	SESS_START	209428	n/a	LTP281	ltpFR	1	n/a	n/a	n/a	n/a	0	5	n/a	n/a	n/a	n/a	n/a	n/a
477.964	n/a	WORD	238982	wordpools/wasnorm_wordpool_less_exclusions.txt	LTP281	ltpFR	1	1	1	PUMPKIN	1142	1	n/a	0	0.422607421875	0.5869140625	0	lower	zerothre.ttf
482.058	n/a	WORD	241029	wordpools/wasnorm_wordpool_less_exclusions.txt	LTP281	ltpFR	1	1	1	CASHIER	254	n/a	n/a	1	0.422607421875	0.5869140625	0	lower	zerothre.ttf
486.186	n/a	WORD	243093	wordpools/wasnorm_wordpool_less_exclusions.txt	LTP281	ltpFR	1	1	1	WALLET	1583	n/a	n/a	0	0.422607421875	0.5869140625	0	lower	zerothre.ttf
490.198	n/a	WORD	245099	wordpools/wasnorm_wordpool_less_exclusions.txt	LTP281	ltpFR	1	1	0	VET	1560	n/a	n/a	1	0.57763671875	0.412841796875	1	upper	amplitud.ttf
494.04	n/a	WORD	247020	wordpools/wasnorm_wordpool_less_exclusions.txt	LTP281	ltpFR	1	1	0	HEN	703	n/a	n/a	0	0.57763671875	0.412841796875	1	upper	amplitud.ttf
498.084	n/a	WORD	249042	wordpools/wasnorm_wordpool_less_exclusions.txt	LTP281	ltpFR	1	1	0	SHRINE	1298	n/a	n/a	0	0.57763671875	0.412841796875	1	upper	amplitud.ttf
502.23	n/a	WORD	251115	wordpools/wasnorm_wordpool_less_exclusions.txt	LTP281	ltpFR	1	1	1	LEOPARD	812	n/a	n/a	1	0.422607421875	0.5869140625	0	lower	zerothre.ttf
506.258	n/a	WORD	253129	wordpools/wasnorm_wordpool_less_exclusions.txt	LTP281	ltpFR	1	1	1	BOLT	146	n/a	n/a	0	0.422607421875	0.5869140625	0	lower	zerothre.ttf
510.384	n/a	WORD	255192	wordpools/wasnorm_wordpool_less_exclusions.txt	LTP281	ltpFR	1	1	0	COLLEGE	346	n/a	n/a	0	0.57763671875	0.412841796875	1	upper	amplitud.ttf
514.362	n/a	WORD	257181	wordpools/wasnorm_wordpool_less_exclusions.txt	LTP281	ltpFR	1	1	0	VAULT	1550	n/a	n/a	0	0.57763671875	0.412841796875	1	upper	amplitud.ttf
518.572	n/a	WORD	259286	wordpools/wasnorm_wordpool_less_exclusions.txt	LTP281	ltpFR	1	1	0	GUARD	667	n/a	n/a	1	0.57763671875	0.412841796875	1	upper	amplitud.ttf
522.416	n/a	WORD	261208	wordpools/wasnorm_wordpool_less_exclusions.txt	LTP281	ltpFR	1	1	0	RICE	1190	n/a	n/a	0	0.57763671875	0.412841796875	1	upper	amplitud.ttf
526.61	n/a	WORD	263305	wordpools/wasnorm_wordpool_less_exclusions.txt	LTP281	ltpFR	1	1	0	WHEAT	1602	n/a	n/a	1	0.57763671875	0.412841796875	1	upper	amplitud.ttf
530.82	n/a	WORD	265410	wordpools/wasnorm_wordpool_less_exclusions.txt	LTP281	ltpFR	1	1	1	SMOG	1330	n/a	n/a	0	0.422607421875	0.5869140625	0	lower	zerothre.ttf
534.764	n/a	WORD	267382	wordpools/wasnorm_wordpool_less_exclusions.txt	LTP281	ltpFR	1	1	1	CEILING	265	n/a	n/a	0	0.422607421875	0.5869140625	0	lower	zerothre.ttf
538.974	n/a	WORD	269487	wordpools/wasnorm_wordpool_less_exclusions.txt	LTP281	ltpFR	1	1	1	BREAST	171	n/a	n/a	0	0.422607421875	0.5869140625	0	lower	zerothre.ttf
544.85	n/a	REC_START	272425	n/a	LTP281	ltpFR	1	1	n/a	n/a	n/a	n/a	n/a	n/a	n/a	n/a	n/a	n/a	n/a
546.076	n/a	REC_WORD	273038	wordpools/wasnorm_wordpool_less_exclusions.txt	LTP281	ltpFR	1	1	1	BREAST	171	n/a	n/a	0	n/a	n/a	n/a	n/a	n/a
547.238	n/a	REC_WORD	273619	wordpools/wasnorm_wordpool_less_exclusions.txt	LTP281	ltpFR	1	1	1	CEILING	265	n/a	n/a	0	n/a	n/a	n/a	n/a	n/a
548.802	n/a	REC_WORD	274401	wordpools/wasnorm_wordpool_less_exclusions.txt	LTP281	ltpFR	1	1	0	RICE	1190	n/a	n/a	0	n/a	n/a	n/a	n/a	n/a
550.36	n/a	REC_WORD	275180	wordpools/wasnorm_wordpool_less_exclusions.txt	LTP281	ltpFR	1	1	0	SHRINE	1298	n/a	n/a	0	n/a	n/a	n/a	n/a	n/a
561.484	n/a	REC_WORD	280742	wordpools/wasnorm_wordpool_less_exclusions.txt	LTP281	ltpFR	1	1	0	VAULT	1550	n/a	n/a	0	n/a	n/a	n/a	n/a	n/a
571.464	n/a	REC_WORD	285732	wordpools/wasnorm_wordpool_less_exclusions.txt	LTP281	ltpFR	1	1	1	SMOG	1330	n/a	n/a	0	n/a	n/a	n/a	n/a	n/a
578.784	n/a	REC_WORD	289392	wordpools/wasnorm_wordpool_less_exclusions.txt	LTP281	ltpFR	1	1	0	WHEAT	1602	n/a	n/a	1	n/a	n/a	n/a	n/a	n/a
592.282	n/a	REC_WORD	296141	wordpools/wasnorm_wordpool_less_exclusions.txt	LTP281	ltpFR	1	1	0	GUARD	667	n/a	n/a	1	n/a	n/a	n/a	n/a	n/a
630.538	n/a	WORD	315269	wordpools/wasnorm_wordpool_less_exclusions.txt	LTP281	ltpFR	1	2	0	CHEF	290	n/a	n/a	1	0.57763671875	0.412841796875	1	upper	amplitud.ttf
634.666	n/a	WORD	317333	wordpools/wasnorm_wordpool_less_exclusions.txt	LTP281	ltpFR	1	2	0	GRILL	661	n/a	n/a	1	0.57763671875	0.412841796875	1	upper	amplitud.ttf
638.81	n/a	WORD	319405	wordpools/wasnorm_wordpool_less_exclusions.txt	LTP281	ltpFR	1	2	0	WIRE	1616	n/a	n/a	0	0.57763671875	0.412841796875	1	upper	amplitud.ttf
642.654	n/a	WORD	321327	wordpools/wasnorm_wordpool_less_exclusions.txt	LTP281	ltpFR	1	2	1	CHIMNEY	301	n/a	n/a	1	0.422607421875	0.5869140625	0	lower	zerothre.ttf
646.682	n/a	WORD	323341	wordpools/wasnorm_wordpool_less_exclusions.txt	LTP281	ltpFR	1	2	1	FIELD	562	n/a	n/a	1	0.422607421875	0.5869140625	0	lower	zerothre.ttf
650.876	n/a	WORD	325438	wordpools/wasnorm_wordpool_less_exclusions.txt	LTP281	ltpFR	1	2	1	BOMB	147	n/a	n/a	0	0.422607421875	0.5869140625	0	lower	zerothre.ttf
654.986	n/a	WORD	327493	wordpools/wasnorm_wordpool_less_exclusions.txt	LTP281	ltpFR	1	2	1	TUBA	1515	n/a	n/a	0	0.422607421875	0.5869140625	0	lower	zerothre.ttf
659.098	n/a	WORD	329549	wordpools/wasnorm_wordpool_less_exclusions.txt	LTP281	ltpFR	1	2	0	CREEK	404	n/a	n/a	0	0.57763671875	0.412841796875	1	upper	amplitud.ttf
663.208	n/a	WORD	331604	wordpools/wasnorm_wordpool_less_exclusions.txt	LTP281	ltpFR	1	2	0	SWIMMER	1420	n/a	n/a	1	0.57763671875	0.412841796875	1	upper	amplitud.ttf
667.27	n/a	WORD	333635	wordpools/wasnorm_wordpool_less_exclusions.txt	LTP281	ltpFR	1	2	1	COMPASS	358	n/a	n/a	0	0.422607421875	0.5869140625	0	lower	zerothre.ttf
671.196	n/a	WORD	335598	wordpools/wasnorm_wordpool_less_exclusions.txt	LTP281	ltpFR	1	2	1	SEAL	1262	n/a	n/a	1	0.422607421875	0.5869140625	0	lower	zerothre.ttf
675.106	n/a	WORD	337553	wordpools/wasnorm_wordpool_less_exclusions.txt	LTP281	ltpFR	1	2	1	SLIDE	1326	n/a	n/a	0	0.422607421875	0.5869140625	0	lower	zerothre.ttf
679.168	n/a	WORD	339584	wordpools/wasnorm_wordpool_less_exclusions.txt	LTP281	ltpFR	1	2	1	FLOWER	584	n/a	n/a	1	0.422607421875	0.5869140625	0	lower	zerothre.ttf
683.262	n/a	WORD	341631	wordpools/wasnorm_wordpool_less_exclusions.txt	LTP281	ltpFR	1	2	0	TELEPHONE	1445	n/a	n/a	0	0.57763671875	0.412841796875	1	upper	amplitud.ttf
687.156	n/a	WORD	343578	wordpools/wasnorm_wordpool_less_exclusions.txt	LTP281	ltpFR	1	2	0	FIREPLACE	570	n/a	n/a	0	0.57763671875	0.412841796875	1	upper	amplitud.ttf
691.066	n/a	WORD	345533	wordpools/wasnorm_wordpool_less_exclusions.txt	LTP281	ltpFR	1	2	0	STRANGER	1389	n/a	n/a	1	0.57763671875	0.412841796875	1	upper	amplitud.ttf
696.858	n/a	REC_START	348429	n/a	LTP281	ltpFR	1	2	n/a	n/a	n/a	n/a	n/a	n/a	n/a	n/a	n/a	n/a	n/a
697.648	n/a	REC_WORD	348824	wordpools/wasnorm_wordpool_less_exclusions.txt	LTP281	ltpFR	1	2	0	STRANGER	1389	n/a	n/a	1	n/a	n/a	n/a	n/a	n/a
699.472	n/a	REC_WORD	349736	wordpools/wasnorm_wordpool_less_exclusions.txt	LTP281	ltpFR	1	2	1	CHIMNEY	301	n/a	n/a	1	n/a	n/a	n/a	n/a	n/a
707.526	n/a	REC_WORD	353763	wordpools/wasnorm_wordpool_less_exclusions.txt	LTP281	ltpFR	1	2	0	FIREPLACE	570	n/a	n/a	0	n/a	n/a	n/a	n/a	n/a
708.526	n/a	REC_WORD_VV	354263	wordpools/wasnorm_wordpool_less_exclusions.txt	LTP281	ltpFR	1	2	n/a	<>	-1	n/a	n/a	n/a	n/a	n/a	n/a	n/a	n/a
712.018	n/a	REC_WORD	356009	wordpools/wasnorm_wordpool_less_exclusions.txt	LTP281	ltpFR	1	2	1	FLOWER	584	n/a	n/a	1	n/a	n/a	n/a	n/a	n/a
715.202	n/a	REC_WORD	357601	wordpools/wasnorm_wordpool_less_exclusions.txt	LTP281	ltpFR	1	2	1	SEAL	1262	n/a	n/a	1	n/a	n/a	n/a	n/a	n/a
726.79	n/a	REC_WORD	363395	wordpools/wasnorm_wordpool_less_exclusions.txt	LTP281	ltpFR	1	2	1	COMPASS	358	n/a	n/a	0	n/a	n/a	n/a	n/a	n/a
757.848	n/a	REC_WORD	378924	wordpools/wasnorm_wordpool_less_exclusions.txt	LTP281	ltpFR	1	2	0	STRANGER	1389	n/a	n/a	1	n/a	n/a	n/a	n/a	n/a
775.31	n/a	WORD	387655	wordpools/wasnorm_wordpool_less_exclusions.txt	LTP281	ltpFR	1	3	-1	NOSE	957	n/a	n/a	-1	1.0	1.0	1	upper	Verdana.ttf
779.32	n/a	WORD	389660	wordpools/wasnorm_wordpool_less_exclusions.txt	LTP281	ltpFR	1	3	-1	LINT	826	n/a	n/a	-1	1.0	1.0	1	upper	Verdana.ttf
783.462	n/a	WORD	391731	wordpools/wasnorm_wordpool_less_exclusions.txt	LTP281	ltpFR	1	3	-1	RASH	1167	n/a	n/a	-1	1.0	1.0	1	upper	Verdana.ttf
787.556	n/a	WORD	393778	wordpools/wasnorm_wordpool_less_exclusions.txt	LTP281	ltpFR	1	3	-1	KNUCKLE	789	n/a	n/a	-1	1.0	1.0	1	upper	Verdana.ttf
791.518	n/a	WORD	395759	wordpools/wasnorm_wordpool_less_exclusions.txt	LTP281	ltpFR	1	3	-1	BUTLER	204	n/a	n/a	-1	1.0	1.0	1	upper	Verdana.ttf
795.38	n/a	WORD	397690	wordpools/wasnorm_wordpool_less_exclusions.txt	LTP281	ltpFR	1	3	-1	COAL	332	n/a	n/a	-1	1.0	1.0	1	upper	Verdana.ttf
799.208	n/a	WORD	399604	wordpools/wasnorm_wordpool_less_exclusions.txt	LTP281	ltpFR	1	3	-1	ANKLE	24	n/a	n/a	-1	1.0	1.0	1	upper	Verdana.ttf
803.084	n/a	WORD	401542	wordpools/wasnorm_wordpool_less_exclusions.txt	LTP281	ltpFR	1	3	-1	KNEE	784	n/a	n/a	-1	1.0	1.0	1	upper	Verdana.ttf
807.012	n/a	WORD	403506	wordpools/wasnorm_wordpool_less_exclusions.txt	LTP281	ltpFR	1	3	-1	FLEA	577	n/a	n/a	-1	1.0	1.0	1	upper	Verdana.ttf
810.856	n/a	WORD	405428	wordpools/wasnorm_wordpool_less_exclusions.txt	LTP281	ltpFR	1	3	-1	PLAZA	1088	n/a	n/a	-1	1.0	1.0	1	upper	Verdana.ttf
815.066	n/a	WORD	407533	wordpools/wasnorm_wordpool_less_exclusions.txt	LTP281	ltpFR	1	3	-1	OVAL	990	n/a	n/a	-1	1.0	1.0	1	upper	Verdana.ttf
819.178	n/a	WORD	409589	wordpools/wasnorm_wordpool_less_exclusions.txt	LTP281	ltpFR	1	3	-1	SHELF	1280	n/a	n/a	-1	1.0	1.0	1	upper	Verdana.ttf
823.238	n/a	WORD	411619	wordpools/wasnorm_wordpool_less_exclusions.txt	LTP281	ltpFR	1	3	-1	FRAGRANCE	599	n/a	n/a	-1	1.0	1.0	1	upper	Verdana.ttf
827.364	n/a	WORD	413682	wordpools/wasnorm_wordpool_less_exclusions.txt	LTP281	ltpFR	1	3	-1	DRYER	503	n/a	n/a	-1	1.0	1.0	1	upper	Verdana.ttf
831.276	n/a	WORD	415638	wordpools/wasnorm_wordpool_less_exclusions.txt	LTP281	ltpFR	1	3	-1	SOFA	1342	n/a	n/a	-1	1.0	1.0	1	upper	Verdana.ttf
835.486	n/a	WORD	417743	wordpools/wasnorm_wordpool_less_exclusions.txt	LTP281	ltpFR	1	3	-1	CUSHION	428	n/a	n/a	-1	1.0	1.0	1	upper	Verdana.ttf
841.46	n/a	REC_START	420730	n/a	LTP281	ltpFR	1	3	n/a	n/a	n/a	n/a	n/a	n/a	n/a	n/a	n/a	n/a	n/a
842.656	n/a	REC_WORD	421328	wordpools/wasnorm_wordpool_less_exclusions.txt	LTP281	ltpFR	1	3	-1	SOFA	1342	n/a	n/a	-1	n/a	n/a	n/a	n/a	n/a
843.94	n/a	REC_WORD	421970	wordpools/wasnorm_wordpool_less_exclusions.txt	LTP281	ltpFR	1	3	-1	CUSHION	428	n/a	n/a	-1	n/a	n/a	n/a	n/a	n/a
845.264	n/a	REC_WORD	422632	wordpools/wasnorm_wordpool_less_exclusions.txt	LTP281	ltpFR	1	3	-1	PLAZA	1088	n/a	n/a	-1	n/a	n/a	n/a	n/a	n/a
846.496	n/a	REC_WORD	423248	wordpools/wasnorm_wordpool_less_exclusions.txt	LTP281	ltpFR	1	3	-1	LINT	826	n/a	n/a	-1	n/a	n/a	n/a	n/a	n/a
847.666	n/a	REC_WORD	423833	wordpools/wasnorm_wordpool_less_exclusions.txt	LTP281	ltpFR	1	3	-1	FLEA	577	n/a	n/a	-1	n/a	n/a	n/a	n/a	n/a
854.75	n/a	REC_WORD	427375	wordpools/wasnorm_wordpool_less_exclusions.txt	LTP281	ltpFR	1	3	-1	BUTLER	204	n/a	n/a	-1	n/a	n/a	n/a	n/a	n/a
857.19	n/a	REC_WORD	428595	wordpools/wasnorm_wordpool_less_exclusions.txt	LTP281	ltpFR	1	3	-1	KNEE	784	n/a	n/a	-1	n/a	n/a	n/a	n/a	n/a
923.156	n/a	WORD	461578	wordpools/wasnorm_wordpool_less_exclusions.txt	LTP281	ltpFR	1	4	-1	MUSHROOM	934	n/a	n/a	-1	1.0	1.0	1	upper	Verdana.ttf
927.234	n/a	WORD	463617	wordpools/wasnorm_wordpool_less_exclusions.txt	LTP281	ltpFR	1	4	-1	MERMAID	887	n/a	n/a	-1	1.0	1.0	1	upper	Verdana.ttf
931.096	n/a	WORD	465548	wordpools/wasnorm_wordpool_less_exclusions.txt	LTP281	ltpFR	1	4	-1	WRITER	1627	n/a	n/a	-1	1.0	1.0	1	upper	Verdana.ttf
935.14	n/a	WORD	467570	wordpools/wasnorm_wordpool_less_exclusions.txt	LTP281	ltpFR	1	4	-1	NOVEL	960	n/a	n/a	-1	1.0	1.0	1	upper	Verdana.ttf
939.034	n/a	WORD	469517	wordpools/wasnorm_wordpool_less_exclusions.txt	LTP281	ltpFR	1	4	-1	PIKE	1067	n/a	n/a	-1	1.0	1.0	1	upper	Verdana.ttf
942.91	n/a	WORD	471455	wordpools/wasnorm_wordpool_less_exclusions.txt	LTP281	ltpFR	1	4	-1	HOOK	715	n/a	n/a	-1	1.0	1.0	1	upper	Verdana.ttf
947.022	n/a	WORD	473511	wordpools/wasnorm_wordpool_less_exclusions.txt	LTP281	ltpFR	1	4	-1	NUCLEUS	961	n/a	n/a	-1	1.0	1.0	1	upper	Verdana.ttf
951.098	n/a	WORD	475549	wordpools/wasnorm_wordpool_less_exclusions.txt	LTP281	ltpFR	1	4	-1	PLUMBER	1091	n/a	n/a	-1	1.0	1.0	1	upper	Verdana.ttf
955.026	n/a	WORD	477513	wordpools/wasnorm_wordpool_less_exclusions.txt	LTP281	ltpFR	1	4	-1	SIRLOIN	1311	n/a	n/a	-1	1.0	1.0	1	upper	Verdana.ttf
958.92	n/a	WORD	479460	wordpools/wasnorm_wordpool_less_exclusions.txt	LTP281	ltpFR	1	4	-1	BOUILLON	154	n/a	n/a	-1	1.0	1.0	1	upper	Verdana.ttf
962.948	n/a	WORD	481474	wordpools/wasnorm_wordpool_less_exclusions.txt	LTP281	ltpFR	1	4	-1	PELICAN	1039	n/a	n/a	-1	1.0	1.0	1	upper	Verdana.ttf
967.124	n/a	WORD	483562	wordpools/wasnorm_wordpool_less_exclusions.txt	LTP281	ltpFR	1	4	-1	PARSLEY	1016	n/a	n/a	-1	1.0	1.0	1	upper	Verdana.ttf
971.252	n/a	WORD	485626	wordpools/wasnorm_wordpool_less_exclusions.txt	LTP281	ltpFR	1	4	-1	ASIA	46	n/a	n/a	-1	1.0	1.0	1	upper	Verdana.ttf
975.112	n/a	WORD	487556	wordpools/wasnorm_wordpool_less_exclusions.txt	LTP281	ltpFR	1	4	-1	LOBSTER	837	n/a	n/a	-1	1.0	1.0	1	upper	Verdana.ttf
979.24	n/a	WORD	489620	wordpools/wasnorm_wordpool_less_exclusions.txt	LTP281	ltpFR	1	4	-1	BUTTERFLY	206	n/a	n/a	-1	1.0	1.0	1	upper	Verdana.ttf
983.168	n/a	WORD	491584	wordpools/wasnorm_wordpool_less_exclusions.txt	LTP281	ltpFR	1	4	-1	TILE	1468	n/a	n/a	-1	1.0	1.0	1	upper	Verdana.ttf
988.926	n/a	REC_START	494463	n/a	LTP281	ltpFR	1	4	n/a	n/a	n/a	n/a	n/a	n/a	n/a	n/a	n/a	n/a	n/a
989.988	n/a	REC_WORD	494994	wordpools/wasnorm_wordpool_less_exclusions.txt	LTP281	ltpFR	1	4	-1	TILE	1468	n/a	n/a	-1	n/a	n/a	n/a	n/a	n/a
991.356	n/a	REC_WORD	495678	wordpools/wasnorm_wordpool_less_exclusions.txt	LTP281	ltpFR	1	4	-1	BUTTERFLY	206	n/a	n/a	-1	n/a	n/a	n/a	n/a	n/a
992.736	n/a	REC_WORD	496368	wordpools/wasnorm_wordpool_less_exclusions.txt	LTP281	ltpFR	1	4	-1	ASIA	46	n/a	n/a	-1	n/a	n/a	n/a	n/a	n/a
994.088	n/a	REC_WORD	497044	wordpools/wasnorm_wordpool_less_exclusions.txt	LTP281	ltpFR	1	4	-1	PELICAN	1039	n/a	n/a	-1	n/a	n/a	n/a	n/a	n/a
995.766	n/a	REC_WORD_VV	497883	wordpools/wasnorm_wordpool_less_exclusions.txt	LTP281	ltpFR	1	4	n/a	<>	-1	n/a	n/a	n/a	n/a	n/a	n/a	n/a	n/a
996.47	n/a	REC_WORD	498235	wordpools/wasnorm_wordpool_less_exclusions.txt	LTP281	ltpFR	1	4	-1	BOUILLON	154	n/a	n/a	-1	n/a	n/a	n/a	n/a	n/a
998.43	n/a	REC_WORD	499215	wordpools/wasnorm_wordpool_less_exclusions.txt	LTP281	ltpFR	1	4	-1	SIRLOIN	1311	n/a	n/a	-1	n/a	n/a	n/a	n/a	n/a
1000.42	n/a	REC_WORD	500210	wordpools/wasnorm_wordpool_less_exclusions.txt	LTP281	ltpFR	1	4	-1	NOVEL	960	n/a	n/a	-1	n/a	n/a	n/a	n/a	n/a
1001.872	n/a	REC_WORD	500936	wordpools/wasnorm_wordpool_less_exclusions.txt	LTP281	ltpFR	1	4	-1	WRITER	1627	n/a	n/a	-1	n/a	n/a	n/a	n/a	n/a
1010.396	n/a	REC_WORD	505198	wordpools/wasnorm_wordpool_less_exclusions.txt	LTP281	ltpFR	1	4	-1	HOOK	715	n/a	n/a	-1	n/a	n/a	n/a	n/a	n/a
1014.126	n/a	REC_WORD	507063	wordpools/wasnorm_wordpool_less_exclusions.txt	LTP281	ltpFR	1	4	-1	NUCLEUS	961	n/a	n/a	-1	n/a	n/a	n/a	n/a	n/a
1070.588	n/a	WORD	535294	wordpools/wasnorm_wordpool_less_exclusions.txt	LTP281	ltpFR	1	5	0	ELM	527	n/a	n/a	0	0.57763671875	0.412841796875	1	upper	amplitud.ttf
1074.482	n/a	WORD	537241	wordpools/wasnorm_wordpool_less_exclusions.txt	LTP281	ltpFR	1	5	0	FIG	563	n/a	n/a	0	0.57763671875	0.412841796875	1	upper	amplitud.ttf
1078.576	n/a	WORD	539288	wordpools/wasnorm_wordpool_less_exclusions.txt	LTP281	ltpFR	1	5	0	APARTMENT	30	n/a	n/a	1	0.57763671875	0.412841796875	1	upper	amplitud.ttf
1082.77	n/a	WORD	541385	wordpools/wasnorm_wordpool_less_exclusions.txt	LTP281	ltpFR	1	5	0	ARCHITECT	36	n/a	n/a	1	0.57763671875	0.412841796875	1	upper	amplitud.ttf
1086.648	n/a	WORD	543324	wordpools/wasnorm_wordpool_less_exclusions.txt	LTP281	ltpFR	1	5	0	POPCORN	1104	n/a	n/a	0	0.57763671875	0.412841796875	1	upper	amplitud.ttf
1090.758	n/a	WORD	545379	wordpools/wasnorm_wordpool_less_exclusions.txt	LTP281	ltpFR	1	5	0	SENATE	1267	n/a	n/a	1	0.57763671875	0.412841796875	1	upper	amplitud.ttf
1094.62	n/a	WORD	547310	wordpools/wasnorm_wordpool_less_exclusions.txt	LTP281	ltpFR	1	5	0	PERCH	1048	n/a	n/a	0	0.57763671875	0.412841796875	1	upper	amplitud.ttf
1098.796	n/a	WORD	549398	wordpools/wasnorm_wordpool_less_exclusions.txt	LTP281	ltpFR	1	5	0	BALLERINA	74	n/a	n/a	1	0.57763671875	0.412841796875	1	upper	amplitud.ttf
1102.824	n/a	WORD	551412	wordpools/wasnorm_wordpool_less_exclusions.txt	LTP281	ltpFR	1	5	0	RACCOON	1153	n/a	n/a	0	0.57763671875	0.412841796875	1	upper	amplitud.ttf
1106.784	n/a	WORD	553392	wordpools/wasnorm_wordpool_less_exclusions.txt	LTP281	ltpFR	1	5	0	YARN	1631	n/a	n/a	0	0.57763671875	0.412841796875	1	upper	amplitud.ttf
1110.728	n/a	WORD	555364	wordpools/wasnorm_wordpool_less_exclusions.txt	LTP281	ltpFR	1	5	0	STRING	1394	n/a	n/a	0	0.57763671875	0.412841796875	1	upper	amplitud.ttf
1114.772	n/a	WORD	557386	wordpools/wasnorm_wordpool_less_exclusions.txt	LTP281	ltpFR	1	5	0	EARRING	514	n/a	n/a	0	0.57763671875	0.412841796875	1	upper	amplitud.ttf
1118.716	n/a	WORD	559358	wordpools/wasnorm_wordpool_less_exclusions.txt	LTP281	ltpFR	1	5	0	TREASURE	1500	n/a	n/a	0	0.57763671875	0.412841796875	1	upper	amplitud.ttf
1122.928	n/a	WORD	561464	wordpools/wasnorm_wordpool_less_exclusions.txt	LTP281	ltpFR	1	5	0	POSSUM	1112	n/a	n/a	0	0.57763671875	0.412841796875	1	upper	amplitud.ttf
1127.088	n/a	WORD	563544	wordpools/wasnorm_wordpool_less_exclusions.txt	LTP281	ltpFR	1	5	0	CUSTARD	429	n/a	n/a	0	0.57763671875	0.412841796875	1	upper	amplitud.ttf
1130.932	n/a	WORD	565466	wordpools/wasnorm_wordpool_less_exclusions.txt	LTP281	ltpFR	1	5	0	BRICK	172	n/a	n/a	0	0.57763671875	0.412841796875	1	upper	amplitud.ttf
1136.64	n/a	REC_START	568320	n/a	LTP281	ltpFR	1	5	n/a	n/a	n/a	n/a	n/a	n/a	n/a	n/a	n/a	n/a	n/a
1137.962	n/a	REC_WORD	568981	wordpools/wasnorm_wordpool_less_exclusions.txt	LTP281	ltpFR	1	5	0	BRICK	172	n/a	n/a	0	n/a	n/a	n/a	n/a	n/a
1139.476	n/a	REC_WORD	569738	wordpools/wasnorm_wordpool_less_exclusions.txt	LTP281	ltpFR	1	5	0	CUSTARD	429	n/a	n/a	0	n/a	n/a	n/a	n/a	n/a
1141.24	n/a	REC_WORD	570620	wordpools/wasnorm_wordpool_less_exclusions.txt	LTP281	ltpFR	1	5	0	RACCOON	1153	n/a	n/a	0	n/a	n/a	n/a	n/a	n/a
1143.218	n/a	REC_WORD	571609	wordpools/wasnorm_wordpool_less_exclusions.txt	LTP281	ltpFR	1	5	0	POSSUM	1112	n/a	n/a	0	n/a	n/a	n/a	n/a	n/a
1147.028	n/a	REC_WORD	573514	wordpools/wasnorm_wordpool_less_exclusions.txt	LTP281	ltpFR	1	5	0	EARRING	514	n/a	n/a	0	n/a	n/a	n/a	n/a	n/a
1149.178	n/a	REC_WORD	574589	wordpools/wasnorm_wordpool_less_exclusions.txt	LTP281	ltpFR	1	5	0	ARCHITECT	36	n/a	n/a	1	n/a	n/a	n/a	n/a	n/a
1150.992	n/a	REC_WORD	575496	wordpools/wasnorm_wordpool_less_exclusions.txt	LTP281	ltpFR	1	5	0	APARTMENT	30	n/a	n/a	1	n/a	n/a	n/a	n/a	n/a
1155.558	n/a	REC_WORD	577779	wordpools/wasnorm_wordpool_less_exclusions.txt	LTP281	ltpFR	1	5	0	BALLERINA	74	n/a	n/a	1	n/a	n/a	n/a	n/a	n/a
1162.822	n/a	REC_WORD	581411	wordpools/wasnorm_wordpool_less_exclusions.txt	LTP281	ltpFR	1	5	0	YARN	1631	n/a	n/a	0	n/a	n/a	n/a	n/a	n/a
1164.44	n/a	REC_WORD	582220	wordpools/wasnorm_wordpool_less_exclusions.txt	LTP281	ltpFR	1	5	0	STRING	1394	n/a	n/a	0	n/a	n/a	n/a	n/a	n/a
1217.404	n/a	WORD	608702	wordpools/wasnorm_wordpool_less_exclusions.txt	LTP281	ltpFR	1	6	1	DICTATOR	462	n/a	n/a	1	0.422607421875	0.5869140625	0	lower	zerothre.ttf
1221.516	n/a	WORD	610758	wordpools/wasnorm_wordpool_less_exclusions.txt	LTP281	ltpFR	1	6	1	CANDIDATE	228	n/a	n/a	1	0.422607421875	0.5869140625	0	lower	zerothre.ttf
1225.526	n/a	WORD	612763	wordpools/wasnorm_wordpool_less_exclusions.txt	LTP281	ltpFR	1	6	1	CHEERLEADER	288	n/a	n/a	1	0.422607421875	0.5869140625	0	lower	zerothre.ttf
1229.536	n/a	WORD	614768	wordpools/wasnorm_wordpool_less_exclusions.txt	LTP281	ltpFR	1	6	1	ROBIN	1199	n/a	n/a	1	0.422607421875	0.5869140625	0	lower	zerothre.ttf
1233.698	n/a	WORD	616849	wordpools/wasnorm_wordpool_less_exclusions.txt	LTP281	ltpFR	1	6	1	POET	1095	n/a	n/a	1	0.422607421875	0.5869140625	0	lower	zerothre.ttf
1237.792	n/a	WORD	618896	wordpools/wasnorm_wordpool_less_exclusions.txt	LTP281	ltpFR	1	6	1	HEADBAND	696	n/a	n/a	0	0.422607421875	0.5869140625	0	lower	zerothre.ttf
1241.902	n/a	WORD	620951	wordpools/wasnorm_wordpool_less_exclusions.txt	LTP281	ltpFR	1	6	1	EAGLE	512	n/a	n/a	1	0.422607421875	0.5869140625	0	lower	zerothre.ttf
1245.73	n/a	WORD	622865	wordpools/wasnorm_wordpool_less_exclusions.txt	LTP281	ltpFR	1	6	1	ANIMAL	23	n/a	n/a	1	0.422607421875	0.5869140625	0	lower	zerothre.ttf
1249.89	n/a	WORD	624945	wordpools/wasnorm_wordpool_less_exclusions.txt	LTP281	ltpFR	1	6	1	HEEL	700	n/a	n/a	0	0.422607421875	0.5869140625	0	lower	zerothre.ttf
1254.0	n/a	WORD	627000	wordpools/wasnorm_wordpool_less_exclusions.txt	LTP281	ltpFR	1	6	1	TOENAIL	1474	n/a	n/a	0	0.422607421875	0.5869140625	0	lower	zerothre.ttf
1257.894	n/a	WORD	628947	wordpools/wasnorm_wordpool_less_exclusions.txt	LTP281	ltpFR	1	6	1	MAMMAL	861	n/a	n/a	1	0.422607421875	0.5869140625	0	lower	zerothre.ttf
1261.888	n/a	WORD	630944	wordpools/wasnorm_wordpool_less_exclusions.txt	LTP281	ltpFR	1	6	1	CAGE	218	n/a	n/a	0	0.422607421875	0.5869140625	0	lower	zerothre.ttf
1266.066	n/a	WORD	633033	wordpools/wasnorm_wordpool_less_exclusions.txt	LTP281	ltpFR	1	6	1	NET	946	n/a	n/a	0	0.422607421875	0.5869140625	0	lower	zerothre.ttf
1270.126	n/a	WORD	635063	wordpools/wasnorm_wordpool_less_exclusions.txt	LTP281	ltpFR	1	6	1	FLIPPER	580	n/a	n/a	0	0.422607421875	0.5869140625	0	lower	zerothre.ttf
1274.02	n/a	WORD	637010	wordpools/wasnorm_wordpool_less_exclusions.txt	LTP281	ltpFR	1	6	1	WOMAN	1620	n/a	n/a	1	0.422607421875	0.5869140625	0	lower	zerothre.ttf
1278.114	n/a	WORD	639057	wordpools/wasnorm_wordpool_less_exclusions.txt	LTP281	ltpFR	1	6	1	GIRL	637	n/a	n/a	1	0.422607421875	0.5869140625	0	lower	zerothre.ttf
1283.906	n/a	REC_START	641953	n/a	LTP281	ltpFR	1	6	n/a	n/a	n/a	n/a	n/a	n/a	n/a	n/a	n/a	n/a	n/a
1284.96	n/a	REC_WORD	642480	wordpools/wasnorm_wordpool_less_exclusions.txt	LTP281	ltpFR	1	6	1	GIRL	637	n/a	n/a	1	n/a	n/a	n/a	n/a	n/a
1286.004	n/a	REC_WORD	643002	wordpools/wasnorm_wordpool_less_exclusions.txt	LTP281	ltpFR	1	6	1	WOMAN	1620	n/a	n/a	1	n/a	n/a	n/a	n/a	n/a
1287.376	n/a	REC_WORD	643688	wordpools/wasnorm_wordpool_less_exclusions.txt	LTP281	ltpFR	1	6	1	POET	1095	n/a	n/a	1	n/a	n/a	n/a	n/a	n/a
1288.718	n/a	REC_WORD	644359	wordpools/wasnorm_wordpool_less_exclusions.txt	LTP281	ltpFR	1	6	1	TOENAIL	1474	n/a	n/a	0	n/a	n/a	n/a	n/a	n/a
1289.938	n/a	REC_WORD	644969	wordpools/wasnorm_wordpool_less_exclusions.txt	LTP281	ltpFR	1	6	1	DICTATOR	462	n/a	n/a	1	n/a	n/a	n/a	n/a	n/a
1291.182	n/a	REC_WORD	645591	wordpools/wasnorm_wordpool_less_exclusions.txt	LTP281	ltpFR	1	6	1	CANDIDATE	228	n/a	n/a	1	n/a	n/a	n/a	n/a	n/a
1293.39	n/a	REC_WORD	646695	wordpools/wasnorm_wordpool_less_exclusions.txt	LTP281	ltpFR	1	6	1	HEEL	700	n/a	n/a	0	n/a	n/a	n/a	n/a	n/a
1298.802	n/a	REC_WORD	649401	wordpools/wasnorm_wordpool_less_exclusions.txt	LTP281	ltpFR	1	6	1	EAGLE	512	n/a	n/a	1	n/a	n/a	n/a	n/a	n/a
1299.994	n/a	REC_WORD	649997	wordpools/wasnorm_wordpool_less_exclusions.txt	LTP281	ltpFR	1	6	1	MAMMAL	861	n/a	n/a	1	n/a	n/a	n/a	n/a	n/a
1304.35	n/a	REC_WORD	652175	wordpools/wasnorm_wordpool_less_exclusions.txt	LTP281	ltpFR	1	6	1	ANIMAL	23	n/a	n/a	1	n/a	n/a	n/a	n/a	n/a
1365.902	n/a	WORD	682951	wordpools/wasnorm_wordpool_less_exclusions.txt	LTP281	ltpFR	1	7	1	CALF	222	n/a	n/a	2	0.422607421875	0.5869140625	0	lower	zerothre.ttf
1368.2	n/a	KEY_MSG	684100	n/a	LTP281	ltpFR	1	7	n/a	n/a	n/a	n/a	n/a	n/a	n/a	n/a	n/a	n/a	n/a
1370.662	n/a	WORD	685331	wordpools/wasnorm_wordpool_less_exclusions.txt	LTP281	ltpFR	1	7	1	SHEEP	1278	n/a	n/a	1	0.422607421875	0.5869140625	0	lower	zerothre.ttf
1374.722	n/a	WORD	687361	wordpools/wasnorm_wordpool_less_exclusions.txt	LTP281	ltpFR	1	7	0	PILOT	1070	n/a	n/a	1	0.57763671875	0.412841796875	1	upper	amplitud.ttf
1378.932	n/a	WORD	689466	wordpools/wasnorm_wordpool_less_exclusions.txt	LTP281	ltpFR	1	7	0	KITE	779	n/a	n/a	0	0.57763671875	0.412841796875	1	upper	amplitud.ttf
1382.976	n/a	WORD	691488	wordpools/wasnorm_wordpool_less_exclusions.txt	LTP281	ltpFR	1	7	0	BERRY	122	n/a	n/a	0	0.57763671875	0.412841796875	1	upper	amplitud.ttf
1387.07	n/a	WORD	693535	wordpools/wasnorm_wordpool_less_exclusions.txt	LTP281	ltpFR	1	7	0	FREEZER	604	n/a	n/a	1	0.57763671875	0.412841796875	1	upper	amplitud.ttf
1390.98	n/a	WORD	695490	wordpools/wasnorm_wordpool_less_exclusions.txt	LTP281	ltpFR	1	7	0	FAMILY	550	n/a	n/a	1	0.57763671875	0.412841796875	1	upper	amplitud.ttf
1395.124	n/a	WORD	697562	wordpools/wasnorm_wordpool_less_exclusions.txt	LTP281	ltpFR	1	7	0	APE	31	n/a	n/a	0	0.57763671875	0.412841796875	1	upper	amplitud.ttf
1399.32	n/a	WORD	699660	wordpools/wasnorm_wordpool_less_exclusions.txt	LTP281	ltpFR	1	7	1	MAILBOX	857	n/a	n/a	0	0.422607421875	0.5869140625	0	lower	zerothre.ttf
1403.198	n/a	WORD	701599	wordpools/wasnorm_wordpool_less_exclusions.txt	LTP281	ltpFR	1	7	1	CHERRY	293	n/a	n/a	0	0.422607421875	0.5869140625	0	lower	zerothre.ttf
1407.374	n/a	WORD	703687	wordpools/wasnorm_wordpool_less_exclusions.txt	LTP281	ltpFR	1	7	1	PEOPLE	1046	n/a	n/a	1	0.422607421875	0.5869140625	0	lower	zerothre.ttf
1411.534	n/a	WORD	705767	wordpools/wasnorm_wordpool_less_exclusions.txt	LTP281	ltpFR	1	7	1	MAT	877	n/a	n/a	0	0.422607421875	0.5869140625	0	lower	zerothre.ttf
1415.478	n/a	WORD	707739	wordpools/wasnorm_wordpool_less_exclusions.txt	LTP281	ltpFR	1	7	0	BUGGY	188	n/a	n/a	0	0.57763671875	0.412841796875	1	upper	amplitud.ttf
1419.34	n/a	WORD	709670	wordpools/wasnorm_wordpool_less_exclusions.txt	LTP281	ltpFR	1	7	0	BEVERAGE	123	n/a	n/a	0	0.57763671875	0.412841796875	1	upper	amplitud.ttf
1423.35	n/a	WORD	711675	wordpools/wasnorm_wordpool_less_exclusions.txt	LTP281	ltpFR	1	7	1	STRAW	1390	n/a	n/a	0	0.422607421875	0.5869140625	0	lower	zerothre.ttf
1427.476	n/a	WORD	713738	wordpools/wasnorm_wordpool_less_exclusions.txt	LTP281	ltpFR	1	7	1	GREASE	660	n/a	n/a	0	0.422607421875	0.5869140625	0	lower	zerothre.ttf
1433.436	n/a	REC_START	716718	n/a	LTP281	ltpFR	1	7	n/a	n/a	n/a	n/a	n/a	n/a	n/a	n/a	n/a	n/a	n/a
1434.362	n/a	REC_WORD	717181	wordpools/wasnorm_wordpool_less_exclusions.txt	LTP281	ltpFR	1	7	1	GREASE	660	n/a	n/a	0	n/a	n/a	n/a	n/a	n/a
1435.97	n/a	REC_WORD	717985	wordpools/wasnorm_wordpool_less_exclusions.txt	LTP281	ltpFR	1	7	0	APE	31	n/a	n/a	0	n/a	n/a	n/a	n/a	n/a
1437.442	n/a	REC_WORD	718721	wordpools/wasnorm_wordpool_less_exclusions.txt	LTP281	ltpFR	1	7	0	BUGGY	188	n/a	n/a	0	n/a	n/a	n/a	n/a	n/a
1443.402	n/a	REC_WORD	721701	wordpools/wasnorm_wordpool_less_exclusions.txt	LTP281	ltpFR	1	7	0	KITE	779	n/a	n/a	0	n/a	n/a	n/a	n/a	n/a
1459.284	n/a	REC_WORD	729642	wordpools/wasnorm_wordpool_less_exclusions.txt	LTP281	ltpFR	1	7	1	CHERRY	293	n/a	n/a	0	n/a	n/a	n/a	n/a	n/a
1515.248	n/a	WORD	757624	wordpools/wasnorm_wordpool_less_exclusions.txt	LTP281	ltpFR	1	8	0	SCREWDRIVER	1255	n/a	n/a	0	0.57763671875	0.412841796875	1	upper	amplitud.ttf
1519.374	n/a	WORD	759687	wordpools/wasnorm_wordpool_less_exclusions.txt	LTP281	ltpFR	1	8	0	NICOTINE	951	n/a	n/a	0	0.57763671875	0.412841796875	1	upper	amplitud.ttf
1523.286	n/a	WORD	761643	wordpools/wasnorm_wordpool_less_exclusions.txt	LTP281	ltpFR	1	8	0	CAMEL	223	n/a	n/a	1	0.57763671875	0.412841796875	1	upper	amplitud.ttf
1527.512	n/a	WORD	763756	wordpools/wasnorm_wordpool_less_exclusions.txt	LTP281	ltpFR	1	8	0	PIANO	1057	n/a	n/a	1	0.57763671875	0.412841796875	1	upper	amplitud.ttf
1531.656	n/a	WORD	765828	wordpools/wasnorm_wordpool_less_exclusions.txt	LTP281	ltpFR	1	8	0	SICKLE	1302	n/a	n/a	0	0.57763671875	0.412841796875	1	upper	amplitud.ttf
1535.534	n/a	WORD	767767	wordpools/wasnorm_wordpool_less_exclusions.txt	LTP281	ltpFR	1	8	0	PEPPER	1047	n/a	n/a	0	0.57763671875	0.412841796875	1	upper	amplitud.ttf
1539.362	n/a	WORD	769681	wordpools/wasnorm_wordpool_less_exclusions.txt	LTP281	ltpFR	1	8	0	VOLLEYBALL	1576	n/a	n/a	1	0.57763671875	0.412841796875	1	upper	amplitud.ttf
1543.306	n/a	WORD	771653	wordpools/wasnorm_wordpool_less_exclusions.txt	LTP281	ltpFR	1	8	0	KEYBOARD	774	n/a	n/a	1	0.57763671875	0.412841796875	1	upper	amplitud.ttf
1547.3	n/a	WORD	773650	wordpools/wasnorm_wordpool_less_exclusions.txt	LTP281	ltpFR	1	8	0	SPRINKLE	1359	n/a	n/a	0	0.57763671875	0.412841796875	1	upper	amplitud.ttf
1551.394	n/a	WORD	775697	wordpools/wasnorm_wordpool_less_exclusions.txt	LTP281	ltpFR	1	8	0	HOSE	720	n/a	n/a	0	0.57763671875	0.412841796875	1	upper	amplitud.ttf
1555.488	n/a	WORD	777744	wordpools/wasnorm_wordpool_less_exclusions.txt	LTP281	ltpFR	1	8	0	SEAGULL	1261	n/a	n/a	1	0.57763671875	0.412841796875	1	upper	amplitud.ttf
1559.364	n/a	WORD	779682	wordpools/wasnorm_wordpool_less_exclusions.txt	LTP281	ltpFR	1	8	0	DOORBELL	487	n/a	n/a	0	0.57763671875	0.412841796875	1	upper	amplitud.ttf
1563.426	n/a	WORD	781713	wordpools/wasnorm_wordpool_less_exclusions.txt	LTP281	ltpFR	1	8	0	PASSENGER	1020	n/a	n/a	1	0.57763671875	0.412841796875	1	upper	amplitud.ttf
1567.602	n/a	WORD	783801	wordpools/wasnorm_wordpool_less_exclusions.txt	LTP281	ltpFR	1	8	0	BATH	98	n/a	n/a	1	0.57763671875	0.412841796875	1	upper	amplitud.ttf
1571.762	n/a	WORD	785881	wordpools/wasnorm_wordpool_less_exclusions.txt	LTP281	ltpFR	1	8	0	TOILET	1475	n/a	n/a	0	0.57763671875	0.412841796875	1	upper	amplitud.ttf
1575.69	n/a	WORD	787845	wordpools/wasnorm_wordpool_less_exclusions.txt	LTP281	ltpFR	1	8	0	SQUID	1361	n/a	n/a	1	0.57763671875	0.412841796875	1	upper	amplitud.ttf
1581.4	n/a	REC_START	790700	n/a	LTP281	ltpFR	1	8	n/a	n/a	n/a	n/a	n/a	n/a	n/a	n/a	n/a	n/a	n/a
1582.074	n/a	REC_WORD	791037	wordpools/wasnorm_wordpool_less_exclusions.txt	LTP281	ltpFR	1	8	0	TOILET	1475	n/a	n/a	0	n/a	n/a	n/a	n/a	n/a
1583.568	n/a	REC_WORD	791784	wordpools/wasnorm_wordpool_less_exclusions.txt	LTP281	ltpFR	1	8	0	SQUID	1361	n/a	n/a	1	n/a	n/a	n/a	n/a	n/a
1585.698	n/a	REC_WORD	792849	wordpools/wasnorm_wordpool_less_exclusions.txt	LTP281	ltpFR	1	8	0	SCREWDRIVER	1255	n/a	n/a	0	n/a	n/a	n/a	n/a	n/a
1586.698	n/a	REC_WORD_VV	793349	wordpools/wasnorm_wordpool_less_exclusions.txt	LTP281	ltpFR	1	8	n/a	<>	-1	n/a	n/a	n/a	n/a	n/a	n/a	n/a	n/a
1588.902	n/a	REC_WORD	794451	wordpools/wasnorm_wordpool_less_exclusions.txt	LTP281	ltpFR	1	8	0	PIANO	1057	n/a	n/a	1	n/a	n/a	n/a	n/a	n/a
1590.93	n/a	REC_WORD	795465	wordpools/wasnorm_wordpool_less_exclusions.txt	LTP281	ltpFR	1	8	0	KEYBOARD	774	n/a	n/a	1	n/a	n/a	n/a	n/a	n/a
1594.606	n/a	REC_WORD	797303	wordpools/wasnorm_wordpool_less_exclusions.txt	LTP281	ltpFR	1	8	0	FAMILY	550	n/a	n/a	1	n/a	n/a	n/a	n/a	n/a
1605.694	n/a	REC_WORD	802847	wordpools/wasnorm_wordpool_less_exclusions.txt	LTP281	ltpFR	1	8	0	DOORBELL	487	n/a	n/a	0	n/a	n/a	n/a	n/a	n/a
1625.672	n/a	REC_WORD	812836	wordpools/wasnorm_wordpool_less_exclusions.txt	LTP281	ltpFR	1	8	0	PASSENGER	1020	n/a	n/a	1	n/a	n/a	n/a	n/a	n/a
1635.274	n/a	REC_WORD	817637	wordpools/wasnorm_wordpool_less_exclusions.txt	LTP281	ltpFR	1	8	0	SEAGULL	1261	n/a	n/a	1	n/a	n/a	n/a	n/a	n/a
1657.004	n/a	REST_REWET	828502	n/a	LTP281	ltpFR	1	8	n/a	n/a	n/a	n/a	n/a	n/a	n/a	n/a	n/a	n/a	n/a
1941.366	n/a	WORD	970683	wordpools/wasnorm_wordpool_less_exclusions.txt	LTP281	ltpFR	1	9	1	NEPTUNE	943	n/a	n/a	1	0.422607421875	0.5869140625	0	lower	zerothre.ttf
1945.528	n/a	WORD	972764	wordpools/wasnorm_wordpool_less_exclusions.txt	LTP281	ltpFR	1	9	1	HAND	683	n/a	n/a	1	0.422607421875	0.5869140625	0	lower	zerothre.ttf
1949.554	n/a	WORD	974777	wordpools/wasnorm_wordpool_less_exclusions.txt	LTP281	ltpFR	1	9	1	CANAL	226	n/a	n/a	1	0.422607421875	0.5869140625	0	lower	zerothre.ttf
1953.448	n/a	WORD	976724	wordpools/wasnorm_wordpool_less_exclusions.txt	LTP281	ltpFR	1	9	1	CHAIN	273	n/a	n/a	0	0.422607421875	0.5869140625	0	lower	zerothre.ttf
1957.294	n/a	WORD	978647	wordpools/wasnorm_wordpool_less_exclusions.txt	LTP281	ltpFR	1	9	1	THUMB	1462	n/a	n/a	1	0.422607421875	0.5869140625	0	lower	zerothre.ttf
1961.222	n/a	WORD	980611	wordpools/wasnorm_wordpool_less_exclusions.txt	LTP281	ltpFR	1	9	1	CIRCUS	311	n/a	n/a	1	0.422607421875	0.5869140625	0	lower	zerothre.ttf
1965.332	n/a	WORD	982666	wordpools/wasnorm_wordpool_less_exclusions.txt	LTP281	ltpFR	1	9	1	GYMNAST	675	n/a	n/a	1	0.422607421875	0.5869140625	0	lower	zerothre.ttf
1969.492	n/a	WORD	984746	wordpools/wasnorm_wordpool_less_exclusions.txt	LTP281	ltpFR	1	9	1	SAW	1239	n/a	n/a	0	0.422607421875	0.5869140625	0	lower	zerothre.ttf
1973.668	n/a	WORD	986834	wordpools/wasnorm_wordpool_less_exclusions.txt	LTP281	ltpFR	1	9	1	FAIRY	549	n/a	n/a	1	0.422607421875	0.5869140625	0	lower	zerothre.ttf
1977.63	n/a	WORD	988815	wordpools/wasnorm_wordpool_less_exclusions.txt	LTP281	ltpFR	1	9	1	PRINCE	1124	n/a	n/a	1	0.422607421875	0.5869140625	0	lower	zerothre.ttf
1981.624	n/a	WORD	990812	wordpools/wasnorm_wordpool_less_exclusions.txt	LTP281	ltpFR	1	9	1	TIMBER	1469	n/a	n/a	0	0.422607421875	0.5869140625	0	lower	zerothre.ttf
1985.484	n/a	WORD	992742	wordpools/wasnorm_wordpool_less_exclusions.txt	LTP281	ltpFR	1	9	1	ENGINE	535	n/a	n/a	0	0.422607421875	0.5869140625	0	lower	zerothre.ttf
1989.378	n/a	WORD	994689	wordpools/wasnorm_wordpool_less_exclusions.txt	LTP281	ltpFR	1	9	1	RUST	1219	n/a	n/a	0	0.422607421875	0.5869140625	0	lower	zerothre.ttf
1993.54	n/a	WORD	996770	wordpools/wasnorm_wordpool_less_exclusions.txt	LTP281	ltpFR	1	9	1	SCAPEGOAT	1244	n/a	n/a	1	0.422607421875	0.5869140625	0	lower	zerothre.ttf
1997.566	n/a	WORD	998783	wordpools/wasnorm_wordpool_less_exclusions.txt	LTP281	ltpFR	1	9	1	ROOSTER	1209	n/a	n/a	1	0.422607421875	0.5869140625	0	lower	zerothre.ttf
2001.744	n/a	WORD	1000872	wordpools/wasnorm_wordpool_less_exclusions.txt	LTP281	ltpFR	1	9	1	SURF	1412	n/a	n/a	0	0.422607421875	0.5869140625	0	lower	zerothre.ttf
2007.802	n/a	REC_START	1003901	n/a	LTP281	ltpFR	1	9	n/a	n/a	n/a	n/a	n/a	n/a	n/a	n/a	n/a	n/a	n/a
2009.154	n/a	REC_WORD	1004577	wordpools/wasnorm_wordpool_less_exclusions.txt	LTP281	ltpFR	1	9	1	SURF	1412	n/a	n/a	0	n/a	n/a	n/a	n/a	n/a
2011.164	n/a	REC_WORD	1005582	wordpools/wasnorm_wordpool_less_exclusions.txt	LTP281	ltpFR	1	9	1	NEPTUNE	943	n/a	n/a	1	n/a	n/a	n/a	n/a	n/a
2014.922	n/a	REC_WORD	1007461	wordpools/wasnorm_wordpool_less_exclusions.txt	LTP281	ltpFR	1	9	n/a	WAVE	1596	n/a	n/a	n/a	n/a	n/a	n/a	n/a	n/a
2016.832	n/a	REC_WORD	1008416	wordpools/wasnorm_wordpool_less_exclusions.txt	LTP281	ltpFR	1	9	1	HAND	683	n/a	n/a	1	n/a	n/a	n/a	n/a	n/a
2018.826	n/a	REC_WORD	1009413	wordpools/wasnorm_wordpool_less_exclusions.txt	LTP281	ltpFR	1	9	1	THUMB	1462	n/a	n/a	1	n/a	n/a	n/a	n/a	n/a
2034.662	n/a	REC_WORD	1017331	wordpools/wasnorm_wordpool_less_exclusions.txt	LTP281	ltpFR	1	9	1	SCAPEGOAT	1244	n/a	n/a	1	n/a	n/a	n/a	n/a	n/a
2054.602	n/a	REC_WORD	1027301	wordpools/wasnorm_wordpool_less_exclusions.txt	LTP281	ltpFR	1	9	1	FAIRY	549	n/a	n/a	1	n/a	n/a	n/a	n/a	n/a
2060.576	n/a	REC_WORD	1030288	wordpools/wasnorm_wordpool_less_exclusions.txt	LTP281	ltpFR	1	9	1	CANAL	226	n/a	n/a	1	n/a	n/a	n/a	n/a	n/a
2088.716	n/a	WORD	1044358	wordpools/wasnorm_wordpool_less_exclusions.txt	LTP281	ltpFR	1	10	0	CLOTHES	327	n/a	n/a	0	0.57763671875	0.412841796875	1	upper	amplitud.ttf
2092.676	n/a	WORD	1046338	wordpools/wasnorm_wordpool_less_exclusions.txt	LTP281	ltpFR	1	10	0	THESAURUS	1454	n/a	n/a	0	0.57763671875	0.412841796875	1	upper	amplitud.ttf
2096.554	n/a	WORD	1048277	wordpools/wasnorm_wordpool_less_exclusions.txt	LTP281	ltpFR	1	10	1	SCRIBBLE	1256	n/a	n/a	0	0.422607421875	0.5869140625	0	lower	zerothre.ttf
2100.764	n/a	WORD	1050382	wordpools/wasnorm_wordpool_less_exclusions.txt	LTP281	ltpFR	1	10	1	LAPEL	800	n/a	n/a	0	0.422607421875	0.5869140625	0	lower	zerothre.ttf
2104.658	n/a	WORD	1052329	wordpools/wasnorm_wordpool_less_exclusions.txt	LTP281	ltpFR	1	10	1	FLAG	573	n/a	n/a	0	0.422607421875	0.5869140625	0	lower	zerothre.ttf
2108.802	n/a	WORD	1054401	wordpools/wasnorm_wordpool_less_exclusions.txt	LTP281	ltpFR	1	10	1	HARP	689	n/a	n/a	0	0.422607421875	0.5869140625	0	lower	zerothre.ttf
2112.68	n/a	WORD	1056340	wordpools/wasnorm_wordpool_less_exclusions.txt	LTP281	ltpFR	1	10	0	BOOK	149	n/a	n/a	0	0.57763671875	0.412841796875	1	upper	amplitud.ttf
2116.724	n/a	WORD	1058362	wordpools/wasnorm_wordpool_less_exclusions.txt	LTP281	ltpFR	1	10	0	DOLPHIN	483	n/a	n/a	1	0.57763671875	0.412841796875	1	upper	amplitud.ttf
2120.768	n/a	WORD	1060384	wordpools/wasnorm_wordpool_less_exclusions.txt	LTP281	ltpFR	1	10	0	DIRECTOR	471	n/a	n/a	1	0.57763671875	0.412841796875	1	upper	amplitud.ttf
2124.628	n/a	WORD	1062314	wordpools/wasnorm_wordpool_less_exclusions.txt	LTP281	ltpFR	1	10	0	BOSS	152	n/a	n/a	1	0.57763671875	0.412841796875	1	upper	amplitud.ttf
2128.472	n/a	WORD	1064236	wordpools/wasnorm_wordpool_less_exclusions.txt	LTP281	ltpFR	1	10	1	ASSISTANT	48	n/a	n/a	1	0.422607421875	0.5869140625	0	lower	zerothre.ttf
2132.534	n/a	WORD	1066267	wordpools/wasnorm_wordpool_less_exclusions.txt	LTP281	ltpFR	1	10	1	SNORKEL	1336	n/a	n/a	0	0.422607421875	0.5869140625	0	lower	zerothre.ttf
2136.51	n/a	WORD	1068255	wordpools/wasnorm_wordpool_less_exclusions.txt	LTP281	ltpFR	1	10	1	ENCYCLOPEDIA	533	n/a	n/a	0	0.422607421875	0.5869140625	0	lower	zerothre.ttf
2140.438	n/a	WORD	1070219	wordpools/wasnorm_wordpool_less_exclusions.txt	LTP281	ltpFR	1	10	1	PARIS	1014	n/a	n/a	1	0.422607421875	0.5869140625	0	lower	zerothre.ttf
2144.45	n/a	WORD	1072225	wordpools/wasnorm_wordpool_less_exclusions.txt	LTP281	ltpFR	1	10	0	FRANCE	601	n/a	n/a	1	0.57763671875	0.412841796875	1	upper	amplitud.ttf
2148.642	n/a	WORD	1074321	wordpools/wasnorm_wordpool_less_exclusions.txt	LTP281	ltpFR	1	10	0	FIN	566	n/a	n/a	0	0.57763671875	0.412841796875	1	upper	amplitud.ttf
2154.37	n/a	REC_START	1077185	n/a	LTP281	ltpFR	1	10	n/a	n/a	n/a	n/a	n/a	n/a	n/a	n/a	n/a	n/a	n/a
2154.948	n/a	REC_WORD	1077474	wordpools/wasnorm_wordpool_less_exclusions.txt	LTP281	ltpFR	1	10	0	FIN	566	n/a	n/a	0	n/a	n/a	n/a	n/a	n/a
2156.79	n/a	REC_WORD	1078395	wordpools/wasnorm_wordpool_less_exclusions.txt	LTP281	ltpFR	1	10	1	PARIS	1014	n/a	n/a	1	n/a	n/a	n/a	n/a	n/a
2158.144	n/a	REC_WORD	1079072	wordpools/wasnorm_wordpool_less_exclusions.txt	LTP281	ltpFR	1	10	0	FRANCE	601	n/a	n/a	1	n/a	n/a	n/a	n/a	n/a
2160.032	n/a	REC_WORD	1080016	wordpools/wasnorm_wordpool_less_exclusions.txt	LTP281	ltpFR	1	10	0	DOLPHIN	483	n/a	n/a	1	n/a	n/a	n/a	n/a	n/a
2161.396	n/a	REC_WORD	1080698	wordpools/wasnorm_wordpool_less_exclusions.txt	LTP281	ltpFR	1	10	0	DIRECTOR	471	n/a	n/a	1	n/a	n/a	n/a	n/a	n/a
2162.956	n/a	REC_WORD	1081478	wordpools/wasnorm_wordpool_less_exclusions.txt	LTP281	ltpFR	1	10	0	BOSS	152	n/a	n/a	1	n/a	n/a	n/a	n/a	n/a
2164.13	n/a	REC_WORD	1082065	wordpools/wasnorm_wordpool_less_exclusions.txt	LTP281	ltpFR	1	10	1	LAPEL	800	n/a	n/a	0	n/a	n/a	n/a	n/a	n/a
2172.718	n/a	REC_WORD	1086359	wordpools/wasnorm_wordpool_less_exclusions.txt	LTP281	ltpFR	1	10	0	BOOK	149	n/a	n/a	0	n/a	n/a	n/a	n/a	n/a
2179.526	n/a	REC_WORD	1089763	wordpools/wasnorm_wordpool_less_exclusions.txt	LTP281	ltpFR	1	10	0	THESAURUS	1454	n/a	n/a	0	n/a	n/a	n/a	n/a	n/a
2180.762	n/a	REC_WORD	1090381	wordpools/wasnorm_wordpool_less_exclusions.txt	LTP281	ltpFR	1	10	1	ENCYCLOPEDIA	533	n/a	n/a	0	n/a	n/a	n/a	n/a	n/a
2181.762	n/a	REC_WORD_VV	1090881	wordpools/wasnorm_wordpool_less_exclusions.txt	LTP281	ltpFR	1	10	n/a	<>	-1	n/a	n/a	n/a	n/a	n/a	n/a	n/a	n/a
2235.416	n/a	WORD	1117708	wordpools/wasnorm_wordpool_less_exclusions.txt	LTP281	ltpFR	1	11	0	CLOSET	326	n/a	n/a	0	0.57763671875	0.412841796875	1	upper	amplitud.ttf
2239.278	n/a	WORD	1119639	wordpools/wasnorm_wordpool_less_exclusions.txt	LTP281	ltpFR	1	11	0	CINNAMON	310	n/a	n/a	0	0.57763671875	0.412841796875	1	upper	amplitud.ttf
2243.386	n/a	WORD	1121693	wordpools/wasnorm_wordpool_less_exclusions.txt	LTP281	ltpFR	1	11	0	ONION	977	n/a	n/a	0	0.57763671875	0.412841796875	1	upper	amplitud.ttf
2247.548	n/a	WORD	1123774	wordpools/wasnorm_wordpool_less_exclusions.txt	LTP281	ltpFR	1	11	0	FUR	615	n/a	n/a	0	0.57763671875	0.412841796875	1	upper	amplitud.ttf
2251.558	n/a	WORD	1125779	wordpools/wasnorm_wordpool_less_exclusions.txt	LTP281	ltpFR	1	11	0	HARE	688	n/a	n/a	0	0.57763671875	0.412841796875	1	upper	amplitud.ttf
2255.752	n/a	WORD	1127876	wordpools/wasnorm_wordpool_less_exclusions.txt	LTP281	ltpFR	1	11	0	HINGE	709	n/a	n/a	0	0.57763671875	0.412841796875	1	upper	amplitud.ttf
2259.662	n/a	WORD	1129831	wordpools/wasnorm_wordpool_less_exclusions.txt	LTP281	ltpFR	1	11	0	WAGON	1578	n/a	n/a	1	0.57763671875	0.412841796875	1	upper	amplitud.ttf
2263.74	n/a	WORD	1131870	wordpools/wasnorm_wordpool_less_exclusions.txt	LTP281	ltpFR	1	11	0	RECORD	1176	n/a	n/a	0	0.57763671875	0.412841796875	1	upper	amplitud.ttf
2267.65	n/a	WORD	1133825	wordpools/wasnorm_wordpool_less_exclusions.txt	LTP281	ltpFR	1	11	0	SISTER	1312	n/a	n/a	1	0.57763671875	0.412841796875	1	upper	amplitud.ttf
2271.71	n/a	WORD	1135855	wordpools/wasnorm_wordpool_less_exclusions.txt	LTP281	ltpFR	1	11	0	CAR	241	n/a	n/a	1	0.57763671875	0.412841796875	1	upper	amplitud.ttf
2275.788	n/a	WORD	1137894	wordpools/wasnorm_wordpool_less_exclusions.txt	LTP281	ltpFR	1	11	0	DIRT	472	n/a	n/a	0	0.57763671875	0.412841796875	1	upper	amplitud.ttf
2279.898	n/a	WORD	1139949	wordpools/wasnorm_wordpool_less_exclusions.txt	LTP281	ltpFR	1	11	0	SHOVEL	1295	n/a	n/a	1	0.57763671875	0.412841796875	1	upper	amplitud.ttf
2283.96	n/a	WORD	1141980	wordpools/wasnorm_wordpool_less_exclusions.txt	LTP281	ltpFR	1	11	0	HORSE	719	n/a	n/a	1	0.57763671875	0.412841796875	1	upper	amplitud.ttf
2288.07	n/a	WORD	1144035	wordpools/wasnorm_wordpool_less_exclusions.txt	LTP281	ltpFR	1	11	0	COMET	353	n/a	n/a	1	0.57763671875	0.412841796875	1	upper	amplitud.ttf
2292.03	n/a	WORD	1146015	wordpools/wasnorm_wordpool_less_exclusions.txt	LTP281	ltpFR	1	11	0	TWIN	1528	n/a	n/a	1	0.57763671875	0.412841796875	1	upper	amplitud.ttf
2296.176	n/a	WORD	1148088	wordpools/wasnorm_wordpool_less_exclusions.txt	LTP281	ltpFR	1	11	0	PLIERS	1089	n/a	n/a	0	0.57763671875	0.412841796875	1	upper	amplitud.ttf
2302.134	n/a	REC_START	1151067	n/a	LTP281	ltpFR	1	11	n/a	n/a	n/a	n/a	n/a	n/a	n/a	n/a	n/a	n/a	n/a
2303.076	n/a	REC_WORD	1151538	wordpools/wasnorm_wordpool_less_exclusions.txt	LTP281	ltpFR	1	11	0	PLIERS	1089	n/a	n/a	0	n/a	n/a	n/a	n/a	n/a
2304.114	n/a	REC_WORD	1152057	wordpools/wasnorm_wordpool_less_exclusions.txt	LTP281	ltpFR	1	11	0	SISTER	1312	n/a	n/a	1	n/a	n/a	n/a	n/a	n/a
2306.878	n/a	REC_WORD	1153439	wordpools/wasnorm_wordpool_less_exclusions.txt	LTP281	ltpFR	1	11	n/a	SIBLING	1301	n/a	n/a	n/a	n/a	n/a	n/a	n/a	n/a
2308.652	n/a	REC_WORD	1154326	wordpools/wasnorm_wordpool_less_exclusions.txt	LTP281	ltpFR	1	11	0	TWIN	1528	n/a	n/a	1	n/a	n/a	n/a	n/a	n/a
2310.078	n/a	REC_WORD	1155039	wordpools/wasnorm_wordpool_less_exclusions.txt	LTP281	ltpFR	1	11	0	HARE	688	n/a	n/a	0	n/a	n/a	n/a	n/a	n/a
2311.59	n/a	REC_WORD	1155795	wordpools/wasnorm_wordpool_less_exclusions.txt	LTP281	ltpFR	1	11	0	CINNAMON	310	n/a	n/a	0	n/a	n/a	n/a	n/a	n/a
2313.114	n/a	REC_WORD	1156557	wordpools/wasnorm_wordpool_less_exclusions.txt	LTP281	ltpFR	1	11	0	HINGE	709	n/a	n/a	0	n/a	n/a	n/a	n/a	n/a
2315.494	n/a	REC_WORD	1157747	wordpools/wasnorm_wordpool_less_exclusions.txt	LTP281	ltpFR	1	11	0	ONION	977	n/a	n/a	0	n/a	n/a	n/a	n/a	n/a
2336.234	n/a	REC_WORD	1168117	wordpools/wasnorm_wordpool_less_exclusions.txt	LTP281	ltpFR	1	11	0	COMET	353	n/a	n/a	1	n/a	n/a	n/a	n/a	n/a
2342.078	n/a	REC_WORD	1171039	wordpools/wasnorm_wordpool_less_exclusions.txt	LTP281	ltpFR	1	11	0	SHOVEL	1295	n/a	n/a	1	n/a	n/a	n/a	n/a	n/a
2384.778	n/a	WORD	1192389	wordpools/wasnorm_wordpool_less_exclusions.txt	LTP281	ltpFR	1	12	-1	NUN	962	n/a	n/a	-1	1.0	1.0	1	upper	Verdana.ttf
2388.922	n/a	WORD	1194461	wordpools/wasnorm_wordpool_less_exclusions.txt	LTP281	ltpFR	1	12	-1	TYPIST	1532	n/a	n/a	-1	1.0	1.0	1	upper	Verdana.ttf
2392.848	n/a	WORD	1196424	wordpools/wasnorm_wordpool_less_exclusions.txt	LTP281	ltpFR	1	12	-1	MARGARINE	868	n/a	n/a	-1	1.0	1.0	1	upper	Verdana.ttf
2396.842	n/a	WORD	1198421	wordpools/wasnorm_wordpool_less_exclusions.txt	LTP281	ltpFR	1	12	-1	FEAST	556	n/a	n/a	-1	1.0	1.0	1	upper	Verdana.ttf
2400.67	n/a	WORD	1200335	wordpools/wasnorm_wordpool_less_exclusions.txt	LTP281	ltpFR	1	12	-1	JOKER	759	n/a	n/a	-1	1.0	1.0	1	upper	Verdana.ttf
2404.614	n/a	WORD	1202307	wordpools/wasnorm_wordpool_less_exclusions.txt	LTP281	ltpFR	1	12	-1	VICTOR	1563	n/a	n/a	-1	1.0	1.0	1	upper	Verdana.ttf
2408.708	n/a	WORD	1204354	wordpools/wasnorm_wordpool_less_exclusions.txt	LTP281	ltpFR	1	12	-1	WORKER	1621	n/a	n/a	-1	1.0	1.0	1	upper	Verdana.ttf
2412.552	n/a	WORD	1206276	wordpools/wasnorm_wordpool_less_exclusions.txt	LTP281	ltpFR	1	12	-1	CLIFF	322	n/a	n/a	-1	1.0	1.0	1	upper	Verdana.ttf
2416.68	n/a	WORD	1208340	wordpools/wasnorm_wordpool_less_exclusions.txt	LTP281	ltpFR	1	12	-1	DIAGRAM	456	n/a	n/a	-1	1.0	1.0	1	upper	Verdana.ttf
2420.59	n/a	WORD	1210295	wordpools/wasnorm_wordpool_less_exclusions.txt	LTP281	ltpFR	1	12	-1	ALBUM	14	n/a	n/a	-1	1.0	1.0	1	upper	Verdana.ttf
2424.502	n/a	WORD	1212251	wordpools/wasnorm_wordpool_less_exclusions.txt	LTP281	ltpFR	1	12	-1	DECK	443	n/a	n/a	-1	1.0	1.0	1	upper	Verdana.ttf
2428.446	n/a	WORD	1214223	wordpools/wasnorm_wordpool_less_exclusions.txt	LTP281	ltpFR	1	12	-1	LAGOON	795	n/a	n/a	-1	1.0	1.0	1	upper	Verdana.ttf
2432.522	n/a	WORD	1216261	wordpools/wasnorm_wordpool_less_exclusions.txt	LTP281	ltpFR	1	12	-1	TURNIP	1521	n/a	n/a	-1	1.0	1.0	1	upper	Verdana.ttf
2436.484	n/a	WORD	1218242	wordpools/wasnorm_wordpool_less_exclusions.txt	LTP281	ltpFR	1	12	-1	CAULIFLOWER	262	n/a	n/a	-1	1.0	1.0	1	upper	Verdana.ttf
2440.346	n/a	WORD	1220173	wordpools/wasnorm_wordpool_less_exclusions.txt	LTP281	ltpFR	1	12	-1	MUFFIN	929	n/a	n/a	-1	1.0	1.0	1	upper	Verdana.ttf
2444.44	n/a	WORD	1222220	wordpools/wasnorm_wordpool_less_exclusions.txt	LTP281	ltpFR	1	12	-1	OATS	968	n/a	n/a	-1	1.0	1.0	1	upper	Verdana.ttf
2450.248	n/a	REC_START	1225124	n/a	LTP281	ltpFR	1	12	n/a	n/a	n/a	n/a	n/a	n/a	n/a	n/a	n/a	n/a	n/a
2451.946	n/a	REC_WORD	1225973	wordpools/wasnorm_wordpool_less_exclusions.txt	LTP281	ltpFR	1	12	-1	MUFFIN	929	n/a	n/a	-1	n/a	n/a	n/a	n/a	n/a
2453.354	n/a	REC_WORD	1226677	wordpools/wasnorm_wordpool_less_exclusions.txt	LTP281	ltpFR	1	12	-1	OATS	968	n/a	n/a	-1	n/a	n/a	n/a	n/a	n/a
2454.504	n/a	REC_WORD	1227252	wordpools/wasnorm_wordpool_less_exclusions.txt	LTP281	ltpFR	1	12	-1	CAULIFLOWER	262	n/a	n/a	-1	n/a	n/a	n/a	n/a	n/a
2456.892	n/a	REC_WORD	1228446	wordpools/wasnorm_wordpool_less_exclusions.txt	LTP281	ltpFR	1	12	-1	TYPIST	1532	n/a	n/a	-1	n/a	n/a	n/a	n/a	n/a
2476.894	n/a	REC_WORD	1238447	wordpools/wasnorm_wordpool_less_exclusions.txt	LTP281	ltpFR	1	12	-1	DECK	443	n/a	n/a	-1	n/a	n/a	n/a	n/a	n/a
2484.906	n/a	REC_WORD	1242453	wordpools/wasnorm_wordpool_less_exclusions.txt	LTP281	ltpFR	1	12	-1	NUN	962	n/a	n/a	-1	n/a	n/a	n/a	n/a	n/a
2532.01	n/a	WORD	1266005	wordpools/wasnorm_wordpool_less_exclusions.txt	LTP281	ltpFR	1	13	0	BLACKBOARD	133	n/a	n/a	1	0.57763671875	0.412841796875	1	upper	amplitud.ttf
2536.07	n/a	WORD	1268035	wordpools/wasnorm_wordpool_less_exclusions.txt	LTP281	ltpFR	1	13	0	CHECKERS	285	n/a	n/a	1	0.57763671875	0.412841796875	1	upper	amplitud.ttf
2539.98	n/a	WORD	1269990	wordpools/wasnorm_wordpool_less_exclusions.txt	LTP281	ltpFR	1	13	0	MARKER	870	n/a	n/a	1	0.57763671875	0.412841796875	1	upper	amplitud.ttf
2544.024	n/a	WORD	1272012	wordpools/wasnorm_wordpool_less_exclusions.txt	LTP281	ltpFR	1	13	0	CANARY	227	n/a	n/a	0	0.57763671875	0.412841796875	1	upper	amplitud.ttf
2547.986	n/a	WORD	1273993	wordpools/wasnorm_wordpool_less_exclusions.txt	LTP281	ltpFR	1	13	1	WORM	1623	n/a	n/a	1	0.422607421875	0.5869140625	0	lower	zerothre.ttf
2551.914	n/a	WORD	1275957	wordpools/wasnorm_wordpool_less_exclusions.txt	LTP281	ltpFR	1	13	1	CROSS	413	n/a	n/a	0	0.422607421875	0.5869140625	0	lower	zerothre.ttf
2555.824	n/a	WORD	1277912	wordpools/wasnorm_wordpool_less_exclusions.txt	LTP281	ltpFR	1	13	1	TEMPLE	1448	n/a	n/a	1	0.422607421875	0.5869140625	0	lower	zerothre.ttf
2559.934	n/a	WORD	1279967	wordpools/wasnorm_wordpool_less_exclusions.txt	LTP281	ltpFR	1	13	0	BLACKBERRY	132	n/a	n/a	0	0.57763671875	0.412841796875	1	upper	amplitud.ttf
2563.962	n/a	WORD	1281981	wordpools/wasnorm_wordpool_less_exclusions.txt	LTP281	ltpFR	1	13	0	FRIEND	606	n/a	n/a	1	0.57763671875	0.412841796875	1	upper	amplitud.ttf
2567.89	n/a	WORD	1283945	wordpools/wasnorm_wordpool_less_exclusions.txt	LTP281	ltpFR	1	13	0	FOE	587	n/a	n/a	1	0.57763671875	0.412841796875	1	upper	amplitud.ttf
2572.066	n/a	WORD	1286033	wordpools/wasnorm_wordpool_less_exclusions.txt	LTP281	ltpFR	1	13	0	LENS	811	n/a	n/a	0	0.57763671875	0.412841796875	1	upper	amplitud.ttf
2576.044	n/a	WORD	1288022	wordpools/wasnorm_wordpool_less_exclusions.txt	LTP281	ltpFR	1	13	1	ICING	732	n/a	n/a	0	0.422607421875	0.5869140625	0	lower	zerothre.ttf
2580.106	n/a	WORD	1290053	wordpools/wasnorm_wordpool_less_exclusions.txt	LTP281	ltpFR	1	13	1	SEAFOOD	1260	n/a	n/a	0	0.422607421875	0.5869140625	0	lower	zerothre.ttf
2584.116	n/a	WORD	1292058	wordpools/wasnorm_wordpool_less_exclusions.txt	LTP281	ltpFR	1	13	1	REPTILE	1185	n/a	n/a	1	0.422607421875	0.5869140625	0	lower	zerothre.ttf
2587.978	n/a	WORD	1293989	wordpools/wasnorm_wordpool_less_exclusions.txt	LTP281	ltpFR	1	13	1	AFRICA	9	n/a	n/a	0	0.422607421875	0.5869140625	0	lower	zerothre.ttf
2591.838	n/a	WORD	1295919	wordpools/wasnorm_wordpool_less_exclusions.txt	LTP281	ltpFR	1	13	1	SCALLOP	1242	n/a	n/a	0	0.422607421875	0.5869140625	0	lower	zerothre.ttf
2597.68	n/a	REC_START	1298840	n/a	LTP281	ltpFR	1	13	n/a	n/a	n/a	n/a	n/a	n/a	n/a	n/a	n/a	n/a	n/a
2598.236	n/a	REC_WORD	1299118	wordpools/wasnorm_wordpool_less_exclusions.txt	LTP281	ltpFR	1	13	1	SCALLOP	1242	n/a	n/a	0	n/a	n/a	n/a	n/a	n/a
2599.58	n/a	REC_WORD	1299790	wordpools/wasnorm_wordpool_less_exclusions.txt	LTP281	ltpFR	1	13	1	SEAFOOD	1260	n/a	n/a	0	n/a	n/a	n/a	n/a	n/a
2600.646	n/a	REC_WORD	1300323	wordpools/wasnorm_wordpool_less_exclusions.txt	LTP281	ltpFR	1	13	0	CANARY	227	n/a	n/a	0	n/a	n/a	n/a	n/a	n/a
2601.89	n/a	REC_WORD	1300945	wordpools/wasnorm_wordpool_less_exclusions.txt	LTP281	ltpFR	1	13	1	ICING	732	n/a	n/a	0	n/a	n/a	n/a	n/a	n/a
2603.842	n/a	REC_WORD	1301921	wordpools/wasnorm_wordpool_less_exclusions.txt	LTP281	ltpFR	1	13	0	FRIEND	606	n/a	n/a	1	n/a	n/a	n/a	n/a	n/a
2604.886	n/a	REC_WORD	1302443	wordpools/wasnorm_wordpool_less_exclusions.txt	LTP281	ltpFR	1	13	0	FOE	587	n/a	n/a	1	n/a	n/a	n/a	n/a	n/a
2617.652	n/a	REC_WORD	1308826	wordpools/wasnorm_wordpool_less_exclusions.txt	LTP281	ltpFR	1	13	1	TEMPLE	1448	n/a	n/a	1	n/a	n/a	n/a	n/a	n/a
2638.096	n/a	REC_WORD	1319048	wordpools/wasnorm_wordpool_less_exclusions.txt	LTP281	ltpFR	1	13	1	REPTILE	1185	n/a	n/a	1	n/a	n/a	n/a	n/a	n/a
2681.488	n/a	WORD	1340744	wordpools/wasnorm_wordpool_less_exclusions.txt	LTP281	ltpFR	1	14	1	MOUTH	926	n/a	n/a	1	0.422607421875	0.5869140625	0	lower	zerothre.ttf
2685.582	n/a	WORD	1342791	wordpools/wasnorm_wordpool_less_exclusions.txt	LTP281	ltpFR	1	14	1	BUTTON	207	n/a	n/a	0	0.422607421875	0.5869140625	0	lower	zerothre.ttf
2689.692	n/a	WORD	1344846	wordpools/wasnorm_wordpool_less_exclusions.txt	LTP281	ltpFR	1	14	1	GANG	619	n/a	n/a	0	0.422607421875	0.5869140625	0	lower	zerothre.ttf
2693.836	n/a	WORD	1346918	wordpools/wasnorm_wordpool_less_exclusions.txt	LTP281	ltpFR	1	14	1	OTTER	986	n/a	n/a	1	0.422607421875	0.5869140625	0	lower	zerothre.ttf
2697.698	n/a	WORD	1348849	wordpools/wasnorm_wordpool_less_exclusions.txt	LTP281	ltpFR	1	14	1	BROOK	177	n/a	n/a	1	0.422607421875	0.5869140625	0	lower	zerothre.ttf
2701.742	n/a	WORD	1350871	wordpools/wasnorm_wordpool_less_exclusions.txt	LTP281	ltpFR	1	14	1	WHALE	1601	n/a	n/a	0	0.422607421875	0.5869140625	0	lower	zerothre.ttf
2705.586	n/a	WORD	1352793	wordpools/wasnorm_wordpool_less_exclusions.txt	LTP281	ltpFR	1	14	0	BRIDGE	174	n/a	n/a	1	0.57763671875	0.412841796875	1	upper	amplitud.ttf
2709.696	n/a	WORD	1354848	wordpools/wasnorm_wordpool_less_exclusions.txt	LTP281	ltpFR	1	14	0	CATCHER	258	n/a	n/a	1	0.57763671875	0.412841796875	1	upper	amplitud.ttf
2713.906	n/a	WORD	1356953	wordpools/wasnorm_wordpool_less_exclusions.txt	LTP281	ltpFR	1	14	1	WARDROBE	1587	n/a	n/a	0	0.422607421875	0.5869140625	0	lower	zerothre.ttf
2718.034	n/a	WORD	1359017	wordpools/wasnorm_wordpool_less_exclusions.txt	LTP281	ltpFR	1	14	1	TRUMPET	1513	n/a	n/a	0	0.422607421875	0.5869140625	0	lower	zerothre.ttf
2722.16	n/a	WORD	1361080	wordpools/wasnorm_wordpool_less_exclusions.txt	LTP281	ltpFR	1	14	0	STEREO	1378	n/a	n/a	0	0.57763671875	0.412841796875	1	upper	amplitud.ttf
2726.156	n/a	WORD	1363078	wordpools/wasnorm_wordpool_less_exclusions.txt	LTP281	ltpFR	1	14	0	TORCH	1484	n/a	n/a	0	0.57763671875	0.412841796875	1	upper	amplitud.ttf
2730.3	n/a	WORD	1365150	wordpools/wasnorm_wordpool_less_exclusions.txt	LTP281	ltpFR	1	14	0	BARLEY	88	n/a	n/a	0	0.57763671875	0.412841796875	1	upper	amplitud.ttf
2734.476	n/a	WORD	1367238	wordpools/wasnorm_wordpool_less_exclusions.txt	LTP281	ltpFR	1	14	0	BRACES	164	n/a	n/a	0	0.57763671875	0.412841796875	1	upper	amplitud.ttf
2738.404	n/a	WORD	1369202	wordpools/wasnorm_wordpool_less_exclusions.txt	LTP281	ltpFR	1	14	0	STAFF	1365	n/a	n/a	0	0.57763671875	0.412841796875	1	upper	amplitud.ttf
2742.266	n/a	WORD	1371133	wordpools/wasnorm_wordpool_less_exclusions.txt	LTP281	ltpFR	1	14	0	SALT	1229	n/a	n/a	0	0.57763671875	0.412841796875	1	upper	amplitud.ttf
2747.99	n/a	REC_START	1373995	n/a	LTP281	ltpFR	1	14	n/a	n/a	n/a	n/a	n/a	n/a	n/a	n/a	n/a	n/a	n/a
2748.664	n/a	REC_WORD	1374332	wordpools/wasnorm_wordpool_less_exclusions.txt	LTP281	ltpFR	1	14	0	BRACES	164	n/a	n/a	0	n/a	n/a	n/a	n/a	n/a
2749.708	n/a	REC_WORD	1374854	wordpools/wasnorm_wordpool_less_exclusions.txt	LTP281	ltpFR	1	14	0	SALT	1229	n/a	n/a	0	n/a	n/a	n/a	n/a	n/a
2751.152	n/a	REC_WORD	1375576	wordpools/wasnorm_wordpool_less_exclusions.txt	LTP281	ltpFR	1	14	0	STAFF	1365	n/a	n/a	0	n/a	n/a	n/a	n/a	n/a
2752.152	n/a	REC_WORD_VV	1376076	wordpools/wasnorm_wordpool_less_exclusions.txt	LTP281	ltpFR	1	14	n/a	<>	-1	n/a	n/a	n/a	n/a	n/a	n/a	n/a	n/a
2752.974	n/a	REC_WORD	1376487	wordpools/wasnorm_wordpool_less_exclusions.txt	LTP281	ltpFR	1	14	0	TORCH	1484	n/a	n/a	0	n/a	n/a	n/a	n/a	n/a
2774.11	n/a	REC_WORD	1387055	wordpools/wasnorm_wordpool_less_exclusions.txt	LTP281	ltpFR	1	14	1	MOUTH	926	n/a	n/a	1	n/a	n/a	n/a	n/a	n/a
2777.444	n/a	REC_WORD	1388722	wordpools/wasnorm_wordpool_less_exclusions.txt	LTP281	ltpFR	1	14	1	TRUMPET	1513	n/a	n/a	0	n/a	n/a	n/a	n/a	n/a
2828.404	n/a	WORD	1414202	wordpools/wasnorm_wordpool_less_exclusions.txt	LTP281	ltpFR	1	15	1	MICROSCOPE	891	n/a	n/a	2	0.422607421875	0.5869140625	0	lower	zerothre.ttf
2829.702	n/a	KEY_MSG	1414851	n/a	LTP281	ltpFR	1	15	n/a	n/a	n/a	n/a	n/a	n/a	n/a	n/a	n/a	n/a	n/a
2832.232	n/a	WORD	1416116	wordpools/wasnorm_wordpool_less_exclusions.txt	LTP281	ltpFR	1	15	1	JACKET	747	n/a	n/a	0	0.422607421875	0.5869140625	0	lower	zerothre.ttf
2836.076	n/a	WORD	1418038	wordpools/wasnorm_wordpool_less_exclusions.txt	LTP281	ltpFR	1	15	1	DOVE	491	n/a	n/a	1	0.422607421875	0.5869140625	0	lower	zerothre.ttf
2840.288	n/a	WORD	1420144	wordpools/wasnorm_wordpool_less_exclusions.txt	LTP281	ltpFR	1	15	1	HAWK	692	n/a	n/a	1	0.422607421875	0.5869140625	0	lower	zerothre.ttf
2844.264	n/a	WORD	1422132	wordpools/wasnorm_wordpool_less_exclusions.txt	LTP281	ltpFR	1	15	1	GAZELLE	628	n/a	n/a	0	0.422607421875	0.5869140625	0	lower	zerothre.ttf
2848.474	n/a	WORD	1424237	wordpools/wasnorm_wordpool_less_exclusions.txt	LTP281	ltpFR	1	15	1	PENGUIN	1044	n/a	n/a	1	0.422607421875	0.5869140625	0	lower	zerothre.ttf
2852.452	n/a	WORD	1426226	wordpools/wasnorm_wordpool_less_exclusions.txt	LTP281	ltpFR	1	15	1	SIDING	1304	n/a	n/a	0	0.422607421875	0.5869140625	0	lower	zerothre.ttf
2856.512	n/a	WORD	1428256	wordpools/wasnorm_wordpool_less_exclusions.txt	LTP281	ltpFR	1	15	1	DUCK	504	n/a	n/a	1	0.422607421875	0.5869140625	0	lower	zerothre.ttf
2860.64	n/a	WORD	1430320	wordpools/wasnorm_wordpool_less_exclusions.txt	LTP281	ltpFR	1	15	1	TWEEZERS	1526	n/a	n/a	0	0.422607421875	0.5869140625	0	lower	zerothre.ttf
2864.784	n/a	WORD	1432392	wordpools/wasnorm_wordpool_less_exclusions.txt	LTP281	ltpFR	1	15	1	ZEBRA	1635	n/a	n/a	1	0.422607421875	0.5869140625	0	lower	zerothre.ttf
2868.828	n/a	WORD	1434414	wordpools/wasnorm_wordpool_less_exclusions.txt	LTP281	ltpFR	1	15	1	TUBE	1516	n/a	n/a	0	0.422607421875	0.5869140625	0	lower	zerothre.ttf
2872.956	n/a	WORD	1436478	wordpools/wasnorm_wordpool_less_exclusions.txt	LTP281	ltpFR	1	15	1	TIDE	1465	n/a	n/a	0	0.422607421875	0.5869140625	0	lower	zerothre.ttf
2876.982	n/a	WORD	1438491	wordpools/wasnorm_wordpool_less_exclusions.txt	LTP281	ltpFR	1	15	1	GARAGE	621	n/a	n/a	0	0.422607421875	0.5869140625	0	lower	zerothre.ttf
2880.926	n/a	WORD	1440463	wordpools/wasnorm_wordpool_less_exclusions.txt	LTP281	ltpFR	1	15	1	PIGEON	1065	n/a	n/a	1	0.422607421875	0.5869140625	0	lower	zerothre.ttf
2885.104	n/a	WORD	1442552	wordpools/wasnorm_wordpool_less_exclusions.txt	LTP281	ltpFR	1	15	1	RANCH	1166	n/a	n/a	1	0.422607421875	0.5869140625	0	lower	zerothre.ttf
2889.032	n/a	WORD	1444516	wordpools/wasnorm_wordpool_less_exclusions.txt	LTP281	ltpFR	1	15	1	COTTAGE	384	n/a	n/a	0	0.422607421875	0.5869140625	0	lower	zerothre.ttf
2895.106	n/a	REC_START	1447553	n/a	LTP281	ltpFR	1	15	n/a	n/a	n/a	n/a	n/a	n/a	n/a	n/a	n/a	n/a	n/a
2896.076	n/a	REC_WORD	1448038	wordpools/wasnorm_wordpool_less_exclusions.txt	LTP281	ltpFR	1	15	1	COTTAGE	384	n/a	n/a	0	n/a	n/a	n/a	n/a	n/a
2897.854	n/a	REC_WORD	1448927	wordpools/wasnorm_wordpool_less_exclusions.txt	LTP281	ltpFR	1	15	1	TIDE	1465	n/a	n/a	0	n/a	n/a	n/a	n/a	n/a
2899.264	n/a	REC_WORD	1449632	wordpools/wasnorm_wordpool_less_exclusions.txt	LTP281	ltpFR	1	15	1	GARAGE	621	n/a	n/a	0	n/a	n/a	n/a	n/a	n/a
2901.054	n/a	REC_WORD	1450527	wordpools/wasnorm_wordpool_less_exclusions.txt	LTP281	ltpFR	1	15	1	DUCK	504	n/a	n/a	1	n/a	n/a	n/a	n/a	n/a
2902.546	n/a	REC_WORD	1451273	wordpools/wasnorm_wordpool_less_exclusions.txt	LTP281	ltpFR	1	15	1	PIGEON	1065	n/a	n/a	1	n/a	n/a	n/a	n/a	n/a
2944.846	n/a	REC_WORD	1472423	wordpools/wasnorm_wordpool_less_exclusions.txt	LTP281	ltpFR	1	15	1	TWEEZERS	1526	n/a	n/a	0	n/a	n/a	n/a	n/a	n/a
2949.222	n/a	REC_WORD	1474611	wordpools/wasnorm_wordpool_less_exclusions.txt	LTP281	ltpFR	1	15	1	SIDING	1304	n/a	n/a	0	n/a	n/a	n/a	n/a	n/a
2950.848	n/a	REC_WORD	1475424	wordpools/wasnorm_wordpool_less_exclusions.txt	LTP281	ltpFR	1	15	1	TUBE	1516	n/a	n/a	0	n/a	n/a	n/a	n/a	n/a
2976.254	n/a	WORD	1488127	wordpools/wasnorm_wordpool_less_exclusions.txt	LTP281	ltpFR	1	16	-1	OZONE	996	n/a	n/a	-1	1.0	1.0	1	upper	Verdana.ttf
2980.446	n/a	WORD	1490223	wordpools/wasnorm_wordpool_less_exclusions.txt	LTP281	ltpFR	1	16	-1	CUP	424	n/a	n/a	-1	1.0	1.0	1	upper	Verdana.ttf
2984.59	n/a	WORD	1492295	wordpools/wasnorm_wordpool_less_exclusions.txt	LTP281	ltpFR	1	16	-1	CAFE	216	n/a	n/a	-1	1.0	1.0	1	upper	Verdana.ttf
2988.468	n/a	WORD	1494234	wordpools/wasnorm_wordpool_less_exclusions.txt	LTP281	ltpFR	1	16	-1	MARS	873	n/a	n/a	-1	1.0	1.0	1	upper	Verdana.ttf
2992.612	n/a	WORD	1496306	wordpools/wasnorm_wordpool_less_exclusions.txt	LTP281	ltpFR	1	16	-1	CELLAR	267	n/a	n/a	-1	1.0	1.0	1	upper	Verdana.ttf
2996.556	n/a	WORD	1498278	wordpools/wasnorm_wordpool_less_exclusions.txt	LTP281	ltpFR	1	16	-1	TABLET	1427	n/a	n/a	-1	1.0	1.0	1	upper	Verdana.ttf
3000.616	n/a	WORD	1500308	wordpools/wasnorm_wordpool_less_exclusions.txt	LTP281	ltpFR	1	16	-1	SATURN	1236	n/a	n/a	-1	1.0	1.0	1	upper	Verdana.ttf
3004.66	n/a	WORD	1502330	wordpools/wasnorm_wordpool_less_exclusions.txt	LTP281	ltpFR	1	16	-1	EMERALD	528	n/a	n/a	-1	1.0	1.0	1	upper	Verdana.ttf
3008.82	n/a	WORD	1504410	wordpools/wasnorm_wordpool_less_exclusions.txt	LTP281	ltpFR	1	16	-1	RUBY	1214	n/a	n/a	-1	1.0	1.0	1	upper	Verdana.ttf
3012.898	n/a	WORD	1506449	wordpools/wasnorm_wordpool_less_exclusions.txt	LTP281	ltpFR	1	16	-1	BOUQUET	157	n/a	n/a	-1	1.0	1.0	1	upper	Verdana.ttf
3017.008	n/a	WORD	1508504	wordpools/wasnorm_wordpool_less_exclusions.txt	LTP281	ltpFR	1	16	-1	RAKE	1164	n/a	n/a	-1	1.0	1.0	1	upper	Verdana.ttf
3020.936	n/a	WORD	1510468	wordpools/wasnorm_wordpool_less_exclusions.txt	LTP281	ltpFR	1	16	-1	DOOR	486	n/a	n/a	-1	1.0	1.0	1	upper	Verdana.ttf
3024.914	n/a	WORD	1512457	wordpools/wasnorm_wordpool_less_exclusions.txt	LTP281	ltpFR	1	16	-1	CLAY	320	n/a	n/a	-1	1.0	1.0	1	upper	Verdana.ttf
3028.992	n/a	WORD	1514496	wordpools/wasnorm_wordpool_less_exclusions.txt	LTP281	ltpFR	1	16	-1	WAREHOUSE	1588	n/a	n/a	-1	1.0	1.0	1	upper	Verdana.ttf
3033.152	n/a	WORD	1516576	wordpools/wasnorm_wordpool_less_exclusions.txt	LTP281	ltpFR	1	16	-1	MEDAL	885	n/a	n/a	-1	1.0	1.0	1	upper	Verdana.ttf
3037.33	n/a	WORD	1518665	wordpools/wasnorm_wordpool_less_exclusions.txt	LTP281	ltpFR	1	16	-1	ROSE	1212	n/a	n/a	-1	1.0	1.0	1	upper	Verdana.ttf
3043.304	n/a	REC_START	1521652	n/a	LTP281	ltpFR	1	16	n/a	n/a	n/a	n/a	n/a	n/a	n/a	n/a	n/a	n/a	n/a
3044.722	n/a	REC_WORD	1522361	wordpools/wasnorm_wordpool_less_exclusions.txt	LTP281	ltpFR	1	16	-1	ROSE	1212	n/a	n/a	-1	n/a	n/a	n/a	n/a	n/a
3045.95	n/a	REC_WORD	1522975	wordpools/wasnorm_wordpool_less_exclusions.txt	LTP281	ltpFR	1	16	-1	BOUQUET	157	n/a	n/a	-1	n/a	n/a	n/a	n/a	n/a
3047.724	n/a	REC_WORD	1523862	wordpools/wasnorm_wordpool_less_exclusions.txt	LTP281	ltpFR	1	16	-1	EMERALD	528	n/a	n/a	-1	n/a	n/a	n/a	n/a	n/a
3049.144	n/a	REC_WORD	1524572	wordpools/wasnorm_wordpool_less_exclusions.txt	LTP281	ltpFR	1	16	-1	RUBY	1214	n/a	n/a	-1	n/a	n/a	n/a	n/a	n/a
3056.684	n/a	REC_WORD	1528342	wordpools/wasnorm_wordpool_less_exclusions.txt	LTP281	ltpFR	1	16	-1	WAREHOUSE	1588	n/a	n/a	-1	n/a	n/a	n/a	n/a	n/a
3057.684	n/a	REC_WORD_VV	1528842	wordpools/wasnorm_wordpool_less_exclusions.txt	LTP281	ltpFR	1	16	n/a	<>	-1	n/a	n/a	n/a	n/a	n/a	n/a	n/a	n/a
3065.39	n/a	REC_WORD	1532695	wordpools/wasnorm_wordpool_less_exclusions.txt	LTP281	ltpFR	1	16	-1	CUP	424	n/a	n/a	-1	n/a	n/a	n/a	n/a	n/a
3066.564	n/a	REC_WORD	1533282	wordpools/wasnorm_wordpool_less_exclusions.txt	LTP281	ltpFR	1	16	-1	CAFE	216	n/a	n/a	-1	n/a	n/a	n/a	n/a	n/a
3068.352	n/a	REC_WORD	1534176	wordpools/wasnorm_wordpool_less_exclusions.txt	LTP281	ltpFR	1	16	-1	RAKE	1164	n/a	n/a	-1	n/a	n/a	n/a	n/a	n/a
3069.986	n/a	REC_WORD	1534993	wordpools/wasnorm_wordpool_less_exclusions.txt	LTP281	ltpFR	1	16	-1	DOOR	486	n/a	n/a	-1	n/a	n/a	n/a	n/a	n/a
3076.914	n/a	REC_WORD	1538457	wordpools/wasnorm_wordpool_less_exclusions.txt	LTP281	ltpFR	1	16	-1	ROSE	1212	n/a	n/a	-1	n/a	n/a	n/a	n/a	n/a
3140.776	n/a	REC_START	1570388	n/a	LTP281	ltpFR	1	n/a	n/a	n/a	n/a	n/a	n/a	n/a	n/a	n/a	n/a	n/a	n/a
3142.018	n/a	FFR_REC_WORD	1571009	wordpools/wasnorm_wordpool_less_exclusions.txt	LTP281	ltpFR	1	n/a	-1	EMERALD	528	n/a	n/a	-1	n/a	n/a	n/a	n/a	n/a
3143.364	n/a	FFR_REC_WORD	1571682	wordpools/wasnorm_wordpool_less_exclusions.txt	LTP281	ltpFR	1	n/a	-1	RUBY	1214	n/a	n/a	-1	n/a	n/a	n/a	n/a	n/a
3144.96	n/a	FFR_REC_WORD	1572480	wordpools/wasnorm_wordpool_less_exclusions.txt	LTP281	ltpFR	1	n/a	-1	ROSE	1212	n/a	n/a	-1	n/a	n/a	n/a	n/a	n/a
3146.442	n/a	FFR_REC_WORD	1573221	wordpools/wasnorm_wordpool_less_exclusions.txt	LTP281	ltpFR	1	n/a	-1	BOUQUET	157	n/a	n/a	-1	n/a	n/a	n/a	n/a	n/a
3148.946	n/a	FFR_REC_WORD	1574473	wordpools/wasnorm_wordpool_less_exclusions.txt	LTP281	ltpFR	1	n/a	-1	WAREHOUSE	1588	n/a	n/a	-1	n/a	n/a	n/a	n/a	n/a
3149.946	n/a	FFR_REC_WORD_VV	1574973	wordpools/wasnorm_wordpool_less_exclusions.txt	LTP281	ltpFR	1	n/a	n/a	<>	-1	n/a	n/a	n/a	n/a	n/a	n/a	n/a	n/a
3150.822	n/a	FFR_REC_WORD	1575411	wordpools/wasnorm_wordpool_less_exclusions.txt	LTP281	ltpFR	1	n/a	-1	RAKE	1164	n/a	n/a	-1	n/a	n/a	n/a	n/a	n/a
3152.458	n/a	FFR_REC_WORD	1576229	wordpools/wasnorm_wordpool_less_exclusions.txt	LTP281	ltpFR	1	n/a	-1	DOOR	486	n/a	n/a	-1	n/a	n/a	n/a	n/a	n/a
3161.844	n/a	FFR_REC_WORD	1580922	wordpools/wasnorm_wordpool_less_exclusions.txt	LTP281	ltpFR	1	n/a	n/a	PORCUPINE	1107	n/a	n/a	n/a	n/a	n/a	n/a	n/a	n/a
3163.494	n/a	FFR_REC_WORD	1581747	wordpools/wasnorm_wordpool_less_exclusions.txt	LTP281	ltpFR	1	n/a	1	DUCK	504	n/a	n/a	1	n/a	n/a	n/a	n/a	n/a
3164.786	n/a	FFR_REC_WORD	1582393	wordpools/wasnorm_wordpool_less_exclusions.txt	LTP281	ltpFR	1	n/a	1	PIGEON	1065	n/a	n/a	1	n/a	n/a	n/a	n/a	n/a
3166.348	n/a	FFR_REC_WORD	1583174	wordpools/wasnorm_wordpool_less_exclusions.txt	LTP281	ltpFR	1	n/a	1	EAGLE	512	n/a	n/a	1	n/a	n/a	n/a	n/a	n/a
3175.926	n/a	FFR_REC_WORD	1587963	wordpools/wasnorm_wordpool_less_exclusions.txt	LTP281	ltpFR	1	n/a	0	EARRING	514	n/a	n/a	0	n/a	n/a	n/a	n/a	n/a
3180.456	n/a	FFR_REC_WORD	1590228	wordpools/wasnorm_wordpool_less_exclusions.txt	LTP281	ltpFR	1	n/a	1	COMPASS	358	n/a	n/a	0	n/a	n/a	n/a	n/a	n/a
3182.17	n/a	FFR_REC_WORD	1591085	wordpools/wasnorm_wordpool_less_exclusions.txt	LTP281	ltpFR	1	n/a	0	HINGE	709	n/a	n/a	0	n/a	n/a	n/a	n/a	n/a
3191.212	n/a	FFR_REC_WORD	1595606	wordpools/wasnorm_wordpool_less_exclusions.txt	LTP281	ltpFR	1	n/a	1	CIRCUS	311	n/a	n/a	1	n/a	n/a	n/a	n/a	n/a
3202.944	n/a	FFR_REC_WORD	1601472	wordpools/wasnorm_wordpool_less_exclusions.txt	LTP281	ltpFR	1	n/a	n/a	SIBLING	1301	n/a	n/a	n/a	n/a	n/a	n/a	n/a	n/a
3204.442	n/a	FFR_REC_WORD	1602221	wordpools/wasnorm_wordpool_less_exclusions.txt	LTP281	ltpFR	1	n/a	0	TWIN	1528	n/a	n/a	1	n/a	n/a	n/a	n/a	n/a
3206.636	n/a	FFR_REC_WORD	1603318	wordpools/wasnorm_wordpool_less_exclusions.txt	LTP281	ltpFR	1	n/a	0	FRIEND	606	n/a	n/a	1	n/a	n/a	n/a	n/a	n/a
3207.988	n/a	FFR_REC_WORD	1603994	wordpools/wasnorm_wordpool_less_exclusions.txt	LTP281	ltpFR	1	n/a	0	FOE	587	n/a	n/a	1	n/a	n/a	n/a	n/a	n/a
3215.072	n/a	FFR_REC_WORD	1607536	wordpools/wasnorm_wordpool_less_exclusions.txt	LTP281	ltpFR	1	n/a	0	SISTER	1312	n/a	n/a	1	n/a	n/a	n/a	n/a	n/a
3223.558	n/a	FFR_REC_WORD	1611779	wordpools/wasnorm_wordpool_less_exclusions.txt	LTP281	ltpFR	1	n/a	-1	MARS	873	n/a	n/a	-1	n/a	n/a	n/a	n/a	n/a
3224.78	n/a	FFR_REC_WORD	1612390	wordpools/wasnorm_wordpool_less_exclusions.txt	LTP281	ltpFR	1	n/a	-1	SATURN	1236	n/a	n/a	-1	n/a	n/a	n/a	n/a	n/a
3226.168	n/a	FFR_REC_WORD	1613084	wordpools/wasnorm_wordpool_less_exclusions.txt	LTP281	ltpFR	1	n/a	-1	OZONE	996	n/a	n/a	-1	n/a	n/a	n/a	n/a	n/a
3228.398	n/a	FFR_REC_WORD	1614199	wordpools/wasnorm_wordpool_less_exclusions.txt	LTP281	ltpFR	1	n/a	-1	CAFE	216	n/a	n/a	-1	n/a	n/a	n/a	n/a	n/a
3229.954	n/a	FFR_REC_WORD	1614977	wordpools/wasnorm_wordpool_less_exclusions.txt	LTP281	ltpFR	1	n/a	-1	CUP	424	n/a	n/a	-1	n/a	n/a	n/a	n/a	n/a
3234.988	n/a	FFR_REC_WORD	1617494	wordpools/wasnorm_wordpool_less_exclusions.txt	LTP281	ltpFR	1	n/a	0	YARN	1631	n/a	n/a	0	n/a	n/a	n/a	n/a	n/a
3236.758	n/a	FFR_REC_WORD	1618379	wordpools/wasnorm_wordpool_less_exclusions.txt	LTP281	ltpFR	1	n/a	0	STRING	1394	n/a	n/a	0	n/a	n/a	n/a	n/a	n/a
3238.634	n/a	FFR_REC_WORD	1619317	wordpools/wasnorm_wordpool_less_exclusions.txt	LTP281	ltpFR	1	n/a	1	TUBE	1516	n/a	n/a	0	n/a	n/a	n/a	n/a	n/a
3240.146	n/a	FFR_REC_WORD	1620073	wordpools/wasnorm_wordpool_less_exclusions.txt	LTP281	ltpFR	1	n/a	1	SIDING	1304	n/a	n/a	0	n/a	n/a	n/a	n/a	n/a
3241.578	n/a	FFR_REC_WORD	1620789	wordpools/wasnorm_wordpool_less_exclusions.txt	LTP281	ltpFR	1	n/a	1	GARAGE	621	n/a	n/a	0	n/a	n/a	n/a	n/a	n/a
3252.608	n/a	FFR_REC_WORD	1626304	wordpools/wasnorm_wordpool_less_exclusions.txt	LTP281	ltpFR	1	n/a	0	FAMILY	550	n/a	n/a	1	n/a	n/a	n/a	n/a	n/a
3270.138	n/a	FFR_REC_WORD	1635069	wordpools/wasnorm_wordpool_less_exclusions.txt	LTP281	ltpFR	1	n/a	0	ARCHITECT	36	n/a	n/a	1	n/a	n/a	n/a	n/a	n/a
3287.548	n/a	FFR_REC_WORD	1643774	wordpools/wasnorm_wordpool_less_exclusions.txt	LTP281	ltpFR	1	n/a	-1	HOOK	715	n/a	n/a	-1	n/a	n/a	n/a	n/a	n/a
3310.294	n/a	FFR_REC_WORD	1655147	wordpools/wasnorm_wordpool_less_exclusions.txt	LTP281	ltpFR	1	n/a	n/a	DIME	466	n/a	n/a	n/a	n/a	n/a	n/a	n/a	n/a
3348.122	n/a	FFR_REC_WORD	1674061	wordpools/wasnorm_wordpool_less_exclusions.txt	LTP281	ltpFR	1	n/a	0	SCREWDRIVER	1255	n/a	n/a	0	n/a	n/a	n/a	n/a	n/a
3352.388	n/a	FFR_REC_WORD	1676194	wordpools/wasnorm_wordpool_less_exclusions.txt	LTP281	ltpFR	1	n/a	0	BOOK	149	n/a	n/a	0	n/a	n/a	n/a	n/a	n/a
3366.934	n/a	FFR_REC_WORD	1683467	wordpools/wasnorm_wordpool_less_exclusions.txt	LTP281	ltpFR	1	n/a	-1	WRITER	1627	n/a	n/a	-1	n/a	n/a	n/a	n/a	n/a
3371.236	n/a	FFR_REC_WORD	1685618	wordpools/wasnorm_wordpool_less_exclusions.txt	LTP281	ltpFR	1	n/a	n/a	AUTHOR	61	n/a	n/a	n/a	n/a	n/a	n/a	n/a	n/a
3407.732	n/a	FFR_REC_WORD	1703866	wordpools/wasnorm_wordpool_less_exclusions.txt	LTP281	ltpFR	1	n/a	1	MOUTH	926	n/a	n/a	1	n/a	n/a	n/a	n/a	n/a
3410.566	n/a	FFR_REC_WORD	1705283	wordpools/wasnorm_wordpool_less_exclusions.txt	LTP281	ltpFR	1	n/a	n/a	PALM	1007	n/a	n/a	n/a	n/a	n/a	n/a	n/a	n/a
3412.772	n/a	FFR_REC_WORD	1706386	wordpools/wasnorm_wordpool_less_exclusions.txt	LTP281	ltpFR	1	n/a	1	THUMB	1462	n/a	n/a	1	n/a	n/a	n/a	n/a	n/a
3420.488	n/a	FFR_REC_WORD	1710244	wordpools/wasnorm_wordpool_less_exclusions.txt	LTP281	ltpFR	1	n/a	n/a	SALIVA	1226	n/a	n/a	n/a	n/a	n/a	n/a	n/a	n/a
3440.464	n/a	FFR_REC_WORD_VV	1720232	wordpools/wasnorm_wordpool_less_exclusions.txt	LTP281	ltpFR	1	n/a	n/a	<>	-1	n/a	n/a	n/a	n/a	n/a	n/a	n/a	n/a
3748.878	n/a	REC_START	1874439	n/a	LTP281	ltpFR	1	1	n/a	n/a	n/a	n/a	n/a	n/a	n/a	n/a	n/a	n/a	n/a
3748.91	n/a	RECOG_LURE	1874455	n/a	LTP281	ltpFR	1	1	n/a	HOE	711	0	2	n/a	n/a	n/a	n/a	n/a	n/a
3750.648	n/a	RECOG_RESP	1875324	n/a	LTP281	ltpFR	1	1	n/a	HOE	711	0	n/a	n/a	n/a	n/a	n/a	n/a	n/a
3752.498	n/a	RECOG_CONF	1876249	n/a	LTP281	ltpFR	1	1	n/a	HOE	711	n/a	2	n/a	n/a	n/a	n/a	n/a	n/a
3754.418	n/a	RECOG_LURE	1877209	n/a	LTP281	ltpFR	1	1	n/a	SOFTBALL	1343	0	3	n/a	n/a	n/a	n/a	n/a	n/a
3755.548	n/a	RECOG_RESP	1877774	n/a	LTP281	ltpFR	1	1	n/a	SOFTBALL	1343	0	n/a	n/a	n/a	n/a	n/a	n/a	n/a
3756.798	n/a	RECOG_CONF	1878399	n/a	LTP281	ltpFR	1	1	n/a	SOFTBALL	1343	n/a	3	n/a	n/a	n/a	n/a	n/a	n/a
3758.894	n/a	RECOG_TARGET	1879447	n/a	LTP281	ltpFR	1	1	-1	KNEE	784	1	4	-1	n/a	n/a	n/a	n/a	n/a
3760.258	n/a	RECOG_RESP	1880129	n/a	LTP281	ltpFR	1	1	-1	KNEE	784	1	n/a	-1	n/a	n/a	n/a	n/a	n/a
3761.458	n/a	RECOG_CONF	1880729	n/a	LTP281	ltpFR	1	1	-1	KNEE	784	n/a	4	-1	n/a	n/a	n/a	n/a	n/a
3763.288	n/a	RECOG_LURE	1881644	n/a	LTP281	ltpFR	1	1	n/a	POTTERY	1116	0	4	n/a	n/a	n/a	n/a	n/a	n/a
3764.612	n/a	RECOG_RESP	1882306	n/a	LTP281	ltpFR	1	1	n/a	POTTERY	1116	0	n/a	n/a	n/a	n/a	n/a	n/a	n/a
3765.798	n/a	RECOG_CONF	1882899	n/a	LTP281	ltpFR	1	1	n/a	POTTERY	1116	n/a	4	n/a	n/a	n/a	n/a	n/a	n/a
3767.764	n/a	RECOG_LURE	1883882	n/a	LTP281	ltpFR	1	1	n/a	BLUEPRINT	142	0	4	n/a	n/a	n/a	n/a	n/a	n/a
3768.578	n/a	RECOG_RESP	1884289	n/a	LTP281	ltpFR	1	1	n/a	BLUEPRINT	142	0	n/a	n/a	n/a	n/a	n/a	n/a	n/a
3769.748	n/a	RECOG_CONF	1884874	n/a	LTP281	ltpFR	1	1	n/a	BLUEPRINT	142	n/a	4	n/a	n/a	n/a	n/a	n/a	n/a
3771.842	n/a	RECOG_TARGET	1885921	n/a	LTP281	ltpFR	1	1	-1	MARS	873	1	5	-1	n/a	n/a	n/a	n/a	n/a
3772.712	n/a	RECOG_RESP	1886356	n/a	LTP281	ltpFR	1	1	-1	MARS	873	1	n/a	-1	n/a	n/a	n/a	n/a	n/a
3773.828	n/a	RECOG_CONF	1886914	n/a	LTP281	ltpFR	1	1	-1	MARS	873	n/a	5	-1	n/a	n/a	n/a	n/a	n/a
3775.736	n/a	RECOG_TARGET	1887868	n/a	LTP281	ltpFR	1	1	1	PEOPLE	1046	0	2	1	n/a	n/a	n/a	n/a	n/a
3776.698	n/a	RECOG_RESP	1888349	n/a	LTP281	ltpFR	1	1	1	PEOPLE	1046	0	n/a	1	n/a	n/a	n/a	n/a	n/a
3779.238	n/a	RECOG_CONF	1889619	n/a	LTP281	ltpFR	1	1	1	PEOPLE	1046	n/a	2	1	n/a	n/a	n/a	n/a	n/a
3781.312	n/a	RECOG_TARGET	1890656	n/a	LTP281	ltpFR	1	1	1	ENCYCLOPEDIA	533	1	5	0	n/a	n/a	n/a	n/a	n/a
3782.032	n/a	RECOG_RESP	1891016	n/a	LTP281	ltpFR	1	1	1	ENCYCLOPEDIA	533	1	n/a	0	n/a	n/a	n/a	n/a	n/a
3783.198	n/a	RECOG_CONF	1891599	n/a	LTP281	ltpFR	1	1	1	ENCYCLOPEDIA	533	n/a	5	0	n/a	n/a	n/a	n/a	n/a
3785.022	n/a	RECOG_LURE	1892511	n/a	LTP281	ltpFR	1	1	n/a	FILM	565	0	2	n/a	n/a	n/a	n/a	n/a	n/a
3786.672	n/a	RECOG_RESP	1893336	n/a	LTP281	ltpFR	1	1	n/a	FILM	565	0	n/a	n/a	n/a	n/a	n/a	n/a	n/a
3787.668	n/a	RECOG_CONF	1893834	n/a	LTP281	ltpFR	1	1	n/a	FILM	565	n/a	2	n/a	n/a	n/a	n/a	n/a	n/a
3789.366	n/a	RECOG_LURE	1894683	n/a	LTP281	ltpFR	1	1	n/a	PERSON	1052	1	2	n/a	n/a	n/a	n/a	n/a	n/a
3790.322	n/a	RECOG_RESP	1895161	n/a	LTP281	ltpFR	1	1	n/a	PERSON	1052	1	n/a	n/a	n/a	n/a	n/a	n/a	n/a
3791.548	n/a	RECOG_CONF	1895774	n/a	LTP281	ltpFR	1	1	n/a	PERSON	1052	n/a	2	n/a	n/a	n/a	n/a	n/a	n/a
3793.244	n/a	RECOG_LURE	1896622	n/a	LTP281	ltpFR	1	1	n/a	CHIMPANZEE	302	0	4	n/a	n/a	n/a	n/a	n/a	n/a
3794.808	n/a	RECOG_RESP	1897404	n/a	LTP281	ltpFR	1	1	n/a	CHIMPANZEE	302	0	n/a	n/a	n/a	n/a	n/a	n/a	n/a
3796.578	n/a	RECOG_CONF	1898289	n/a	LTP281	ltpFR	1	1	n/a	CHIMPANZEE	302	n/a	4	n/a	n/a	n/a	n/a	n/a	n/a
3798.272	n/a	RECOG_LURE	1899136	n/a	LTP281	ltpFR	1	1	n/a	GODDESS	646	0	4	n/a	n/a	n/a	n/a	n/a	n/a
3799.138	n/a	RECOG_RESP	1899569	n/a	LTP281	ltpFR	1	1	n/a	GODDESS	646	0	n/a	n/a	n/a	n/a	n/a	n/a	n/a
3800.148	n/a	RECOG_CONF	1900074	n/a	LTP281	ltpFR	1	1	n/a	GODDESS	646	n/a	4	n/a	n/a	n/a	n/a	n/a	n/a
3802.43	n/a	RECOG_TARGET	1901215	n/a	LTP281	ltpFR	1	1	0	CAR	241	0	4	1	n/a	n/a	n/a	n/a	n/a
3803.468	n/a	RECOG_RESP	1901734	n/a	LTP281	ltpFR	1	1	0	CAR	241	0	n/a	1	n/a	n/a	n/a	n/a	n/a
3804.848	n/a	RECOG_CONF	1902424	n/a	LTP281	ltpFR	1	1	0	CAR	241	n/a	4	1	n/a	n/a	n/a	n/a	n/a
3806.824	n/a	RECOG_LURE	1903412	n/a	LTP281	ltpFR	1	1	n/a	SACK	1220	0	2	n/a	n/a	n/a	n/a	n/a	n/a
3807.524	n/a	RECOG_RESP	1903762	n/a	LTP281	ltpFR	1	1	n/a	SACK	1220	0	n/a	n/a	n/a	n/a	n/a	n/a	n/a
3808.668	n/a	RECOG_CONF	1904334	n/a	LTP281	ltpFR	1	1	n/a	SACK	1220	n/a	2	n/a	n/a	n/a	n/a	n/a	n/a
3810.37	n/a	RECOG_TARGET	1905185	n/a	LTP281	ltpFR	1	1	1	BREAST	171	1	5	0	n/a	n/a	n/a	n/a	n/a
3811.088	n/a	RECOG_RESP	1905544	n/a	LTP281	ltpFR	1	1	1	BREAST	171	1	n/a	0	n/a	n/a	n/a	n/a	n/a
3812.118	n/a	RECOG_CONF	1906059	n/a	LTP281	ltpFR	1	1	1	BREAST	171	n/a	5	0	n/a	n/a	n/a	n/a	n/a
3814.562	n/a	RECOG_TARGET	1907281	n/a	LTP281	ltpFR	1	1	-1	TYPIST	1532	1	5	-1	n/a	n/a	n/a	n/a	n/a
3815.264	n/a	RECOG_RESP	1907632	n/a	LTP281	ltpFR	1	1	-1	TYPIST	1532	1	n/a	-1	n/a	n/a	n/a	n/a	n/a
3817.338	n/a	RECOG_CONF	1908669	n/a	LTP281	ltpFR	1	1	-1	TYPIST	1532	n/a	5	-1	n/a	n/a	n/a	n/a	n/a
3818.79	n/a	RECOG_TARGET	1909395	n/a	LTP281	ltpFR	1	1	0	BLACKBOARD	133	0	1	1	n/a	n/a	n/a	n/a	n/a
3820.164	n/a	RECOG_RESP	1910082	n/a	LTP281	ltpFR	1	1	0	BLACKBOARD	133	0	n/a	1	n/a	n/a	n/a	n/a	n/a
3821.428	n/a	RECOG_CONF	1910714	n/a	LTP281	ltpFR	1	1	0	BLACKBOARD	133	n/a	1	1	n/a	n/a	n/a	n/a	n/a
3823.066	n/a	RECOG_TARGET	1911533	n/a	LTP281	ltpFR	1	1	0	BOOK	149	1	4	0	n/a	n/a	n/a	n/a	n/a
3823.724	n/a	RECOG_RESP	1911862	n/a	LTP281	ltpFR	1	1	0	BOOK	149	1	n/a	0	n/a	n/a	n/a	n/a	n/a
3824.808	n/a	RECOG_CONF	1912404	n/a	LTP281	ltpFR	1	1	0	BOOK	149	n/a	4	0	n/a	n/a	n/a	n/a	n/a
3826.528	n/a	RECOG_LURE	1913264	n/a	LTP281	ltpFR	1	1	n/a	BANDAGE	79	0	1	n/a	n/a	n/a	n/a	n/a	n/a
3827.384	n/a	RECOG_RESP	1913692	n/a	LTP281	ltpFR	1	1	n/a	BANDAGE	79	0	n/a	n/a	n/a	n/a	n/a	n/a	n/a
3828.338	n/a	RECOG_CONF	1914169	n/a	LTP281	ltpFR	1	1	n/a	BANDAGE	79	n/a	1	n/a	n/a	n/a	n/a	n/a	n/a
3830.122	n/a	RECOG_LURE	1915061	n/a	LTP281	ltpFR	1	1	n/a	CHESS	294	1	3	n/a	n/a	n/a	n/a	n/a	n/a
3830.988	n/a	RECOG_RESP	1915494	n/a	LTP281	ltpFR	1	1	n/a	CHESS	294	1	n/a	n/a	n/a	n/a	n/a	n/a	n/a
3832.218	n/a	RECOG_CONF	1916109	n/a	LTP281	ltpFR	1	1	n/a	CHESS	294	n/a	3	n/a	n/a	n/a	n/a	n/a	n/a
3844.476	n/a	REC_START	1922238	n/a	LTP281	ltpFR	1	2	n/a	n/a	n/a	n/a	n/a	n/a	n/a	n/a	n/a	n/a	n/a
3844.5	n/a	RECOG_TARGET	1922250	n/a	LTP281	ltpFR	1	2	-1	PIKE	1067	0	2	-1	n/a	n/a	n/a	n/a	n/a
3845.68	n/a	RECOG_RESP	1922840	n/a	LTP281	ltpFR	1	2	-1	PIKE	1067	0	n/a	-1	n/a	n/a	n/a	n/a	n/a
3846.566	n/a	RECOG_CONF	1923283	n/a	LTP281	ltpFR	1	2	-1	PIKE	1067	n/a	2	-1	n/a	n/a	n/a	n/a	n/a
3848.096	n/a	RECOG_LURE	1924048	n/a	LTP281	ltpFR	1	2	n/a	STEM	1376	0	4	n/a	n/a	n/a	n/a	n/a	n/a
3848.946	n/a	RECOG_RESP	1924473	n/a	LTP281	ltpFR	1	2	n/a	STEM	1376	0	n/a	n/a	n/a	n/a	n/a	n/a	n/a
3849.916	n/a	RECOG_CONF	1924958	n/a	LTP281	ltpFR	1	2	n/a	STEM	1376	n/a	4	n/a	n/a	n/a	n/a	n/a	n/a
3851.508	n/a	RECOG_LURE	1925754	n/a	LTP281	ltpFR	1	2	n/a	BEER	114	0	5	n/a	n/a	n/a	n/a	n/a	n/a
3852.146	n/a	RECOG_RESP	1926073	n/a	LTP281	ltpFR	1	2	n/a	BEER	114	0	n/a	n/a	n/a	n/a	n/a	n/a	n/a
3853.166	n/a	RECOG_CONF	1926583	n/a	LTP281	ltpFR	1	2	n/a	BEER	114	n/a	5	n/a	n/a	n/a	n/a	n/a	n/a
3854.918	n/a	RECOG_LURE	1927459	n/a	LTP281	ltpFR	1	2	n/a	TICKET	1464	0	2	n/a	n/a	n/a	n/a	n/a	n/a
3855.456	n/a	RECOG_RESP	1927728	n/a	LTP281	ltpFR	1	2	n/a	TICKET	1464	0	n/a	n/a	n/a	n/a	n/a	n/a	n/a
3856.506	n/a	RECOG_CONF	1928253	n/a	LTP281	ltpFR	1	2	n/a	TICKET	1464	n/a	2	n/a	n/a	n/a	n/a	n/a	n/a
3858.08	n/a	RECOG_LURE	1929040	n/a	LTP281	ltpFR	1	2	n/a	HOME	712	0	1	n/a	n/a	n/a	n/a	n/a	n/a
3858.696	n/a	RECOG_RESP	1929348	n/a	LTP281	ltpFR	1	2	n/a	HOME	712	0	n/a	n/a	n/a	n/a	n/a	n/a	n/a
3859.536	n/a	RECOG_CONF	1929768	n/a	LTP281	ltpFR	1	2	n/a	HOME	712	n/a	1	n/a	n/a	n/a	n/a	n/a	n/a
3861.344	n/a	RECOG_TARGET	1930672	n/a	LTP281	ltpFR	1	2	1	ICING	732	1	5	0	n/a	n/a	n/a	n/a	n/a
3862.366	n/a	RECOG_RESP	1931183	n/a	LTP281	ltpFR	1	2	1	ICING	732	1	n/a	0	n/a	n/a	n/a	n/a	n/a
3863.116	n/a	RECOG_CONF	1931558	n/a	LTP281	ltpFR	1	2	1	ICING	732	n/a	5	0	n/a	n/a	n/a	n/a	n/a
3864.77	n/a	RECOG_LURE	1932385	n/a	LTP281	ltpFR	1	2	n/a	PILL	1068	0	2	n/a	n/a	n/a	n/a	n/a	n/a
3865.416	n/a	RECOG_RESP	1932708	n/a	LTP281	ltpFR	1	2	n/a	PILL	1068	0	n/a	n/a	n/a	n/a	n/a	n/a	n/a
3866.356	n/a	RECOG_CONF	1933178	n/a	LTP281	ltpFR	1	2	n/a	PILL	1068	n/a	2	n/a	n/a	n/a	n/a	n/a	n/a
3867.966	n/a	RECOG_LURE	1933983	n/a	LTP281	ltpFR	1	2	n/a	SPICE	1350	1	3	n/a	n/a	n/a	n/a	n/a	n/a
3868.966	n/a	RECOG_RESP	1934483	n/a	LTP281	ltpFR	1	2	n/a	SPICE	1350	1	n/a	n/a	n/a	n/a	n/a	n/a	n/a
3870.206	n/a	RECOG_CONF	1935103	n/a	LTP281	ltpFR	1	2	n/a	SPICE	1350	n/a	3	n/a	n/a	n/a	n/a	n/a	n/a
3871.96	n/a	RECOG_TARGET	1935980	n/a	LTP281	ltpFR	1	2	0	FIN	566	0	1	0	n/a	n/a	n/a	n/a	n/a
3872.672	n/a	RECOG_RESP	1936336	n/a	LTP281	ltpFR	1	2	0	FIN	566	0	n/a	0	n/a	n/a	n/a	n/a	n/a
3874.106	n/a	RECOG_CONF	1937053	n/a	LTP281	ltpFR	1	2	0	FIN	566	n/a	1	0	n/a	n/a	n/a	n/a	n/a
3875.756	n/a	RECOG_TARGET	1937878	n/a	LTP281	ltpFR	1	2	1	ROOSTER	1209	1	5	1	n/a	n/a	n/a	n/a	n/a
3876.466	n/a	RECOG_RESP	1938233	n/a	LTP281	ltpFR	1	2	1	ROOSTER	1209	1	n/a	1	n/a	n/a	n/a	n/a	n/a
3877.236	n/a	RECOG_CONF	1938618	n/a	LTP281	ltpFR	1	2	1	ROOSTER	1209	n/a	5	1	n/a	n/a	n/a	n/a	n/a
3878.918	n/a	RECOG_LURE	1939459	n/a	LTP281	ltpFR	1	2	n/a	CATHEDRAL	260	1	3	n/a	n/a	n/a	n/a	n/a	n/a
3880.242	n/a	RECOG_RESP	1940121	n/a	LTP281	ltpFR	1	2	n/a	CATHEDRAL	260	1	n/a	n/a	n/a	n/a	n/a	n/a	n/a
3881.176	n/a	RECOG_CONF	1940588	n/a	LTP281	ltpFR	1	2	n/a	CATHEDRAL	260	n/a	3	n/a	n/a	n/a	n/a	n/a	n/a
3882.828	n/a	RECOG_LURE	1941414	n/a	LTP281	ltpFR	1	2	n/a	YARD	1630	1	5	n/a	n/a	n/a	n/a	n/a	n/a
3883.482	n/a	RECOG_RESP	1941741	n/a	LTP281	ltpFR	1	2	n/a	YARD	1630	1	n/a	n/a	n/a	n/a	n/a	n/a	n/a
3884.166	n/a	RECOG_CONF	1942083	n/a	LTP281	ltpFR	1	2	n/a	YARD	1630	n/a	5	n/a	n/a	n/a	n/a	n/a	n/a
3885.824	n/a	RECOG_LURE	1942912	n/a	LTP281	ltpFR	1	2	n/a	PORCH	1106	1	1	n/a	n/a	n/a	n/a	n/a	n/a
3887.852	n/a	RECOG_RESP	1943926	n/a	LTP281	ltpFR	1	2	n/a	PORCH	1106	1	n/a	n/a	n/a	n/a	n/a	n/a	n/a
3888.726	n/a	RECOG_CONF	1944363	n/a	LTP281	ltpFR	1	2	n/a	PORCH	1106	n/a	1	n/a	n/a	n/a	n/a	n/a	n/a
3890.6	n/a	RECOG_TARGET	1945300	n/a	LTP281	ltpFR	1	2	-1	ANKLE	24	1	4	-1	n/a	n/a	n/a	n/a	n/a
3891.716	n/a	RECOG_RESP	1945858	n/a	LTP281	ltpFR	1	2	-1	ANKLE	24	1	n/a	-1	n/a	n/a	n/a	n/a	n/a
3893.326	n/a	RECOG_CONF	1946663	n/a	LTP281	ltpFR	1	2	-1	ANKLE	24	n/a	4	-1	n/a	n/a	n/a	n/a	n/a
3894.944	n/a	RECOG_LURE	1947472	n/a	LTP281	ltpFR	1	2	n/a	WATERFALL	1595	0	2	n/a	n/a	n/a	n/a	n/a	n/a
3896.016	n/a	RECOG_RESP	1948008	n/a	LTP281	ltpFR	1	2	n/a	WATERFALL	1595	0	n/a	n/a	n/a	n/a	n/a	n/a	n/a
3897.336	n/a	RECOG_CONF	1948668	n/a	LTP281	ltpFR	1	2	n/a	WATERFALL	1595	n/a	2	n/a	n/a	n/a	n/a	n/a	n/a
3898.904	n/a	RECOG_TARGET	1949452	n/a	LTP281	ltpFR	1	2	1	CEILING	265	1	2	0	n/a	n/a	n/a	n/a	n/a
3899.872	n/a	RECOG_RESP	1949936	n/a	LTP281	ltpFR	1	2	1	CEILING	265	1	n/a	0	n/a	n/a	n/a	n/a	n/a
3900.866	n/a	RECOG_CONF	1950433	n/a	LTP281	ltpFR	1	2	1	CEILING	265	n/a	2	0	n/a	n/a	n/a	n/a	n/a
3902.748	n/a	RECOG_TARGET	1951374	n/a	LTP281	ltpFR	1	2	-1	DRYER	503	1	1	-1	n/a	n/a	n/a	n/a	n/a
3903.386	n/a	RECOG_RESP	1951693	n/a	LTP281	ltpFR	1	2	-1	DRYER	503	1	n/a	-1	n/a	n/a	n/a	n/a	n/a
3905.396	n/a	RECOG_CONF	1952698	n/a	LTP281	ltpFR	1	2	-1	DRYER	503	n/a	1	-1	n/a	n/a	n/a	n/a	n/a
3907.092	n/a	RECOG_LURE	1953546	n/a	LTP281	ltpFR	1	2	n/a	FORK	594	1	1	n/a	n/a	n/a	n/a	n/a	n/a
3907.772	n/a	RECOG_RESP	1953886	n/a	LTP281	ltpFR	1	2	n/a	FORK	594	1	n/a	n/a	n/a	n/a	n/a	n/a	n/a
3908.856	n/a	RECOG_CONF	1954428	n/a	LTP281	ltpFR	1	2	n/a	FORK	594	n/a	1	n/a	n/a	n/a	n/a	n/a	n/a
3910.536	n/a	RECOG_LURE	1955268	n/a	LTP281	ltpFR	1	2	n/a	MISTER	901	1	1	n/a	n/a	n/a	n/a	n/a	n/a
3911.892	n/a	RECOG_RESP	1955946	n/a	LTP281	ltpFR	1	2	n/a	MISTER	901	1	n/a	n/a	n/a	n/a	n/a	n/a	n/a
3913.846	n/a	RECOG_CONF	1956923	n/a	LTP281	ltpFR	1	2	n/a	MISTER	901	n/a	1	n/a	n/a	n/a	n/a	n/a	n/a
3915.496	n/a	RECOG_TARGET	1957748	n/a	LTP281	ltpFR	1	2	1	WORM	1623	1	4	1	n/a	n/a	n/a	n/a	n/a
3916.176	n/a	RECOG_RESP	1958088	n/a	LTP281	ltpFR	1	2	1	WORM	1623	1	n/a	1	n/a	n/a	n/a	n/a	n/a
3917.006	n/a	RECOG_CONF	1958503	n/a	LTP281	ltpFR	1	2	1	WORM	1623	n/a	4	1	n/a	n/a	n/a	n/a	n/a
3923.986	n/a	REC_START	1961993	n/a	LTP281	ltpFR	1	3	n/a	n/a	n/a	n/a	n/a	n/a	n/a	n/a	n/a	n/a	n/a
3924.016	n/a	RECOG_LURE	1962008	n/a	LTP281	ltpFR	1	3	n/a	LUMBER	848	1	4	n/a	n/a	n/a	n/a	n/a	n/a
3924.986	n/a	RECOG_RESP	1962493	n/a	LTP281	ltpFR	1	3	n/a	LUMBER	848	1	n/a	n/a	n/a	n/a	n/a	n/a	n/a
3925.726	n/a	RECOG_CONF	1962863	n/a	LTP281	ltpFR	1	3	n/a	LUMBER	848	n/a	4	n/a	n/a	n/a	n/a	n/a	n/a
3927.394	n/a	RECOG_TARGET	1963697	n/a	LTP281	ltpFR	1	3	0	PIANO	1057	1	4	1	n/a	n/a	n/a	n/a	n/a
3928.022	n/a	RECOG_RESP	1964011	n/a	LTP281	ltpFR	1	3	0	PIANO	1057	1	n/a	1	n/a	n/a	n/a	n/a	n/a
3929.156	n/a	RECOG_CONF	1964578	n/a	LTP281	ltpFR	1	3	0	PIANO	1057	n/a	4	1	n/a	n/a	n/a	n/a	n/a
3930.64	n/a	RECOG_TARGET	1965320	n/a	LTP281	ltpFR	1	3	1	FLOWER	584	1	5	1	n/a	n/a	n/a	n/a	n/a
3931.486	n/a	RECOG_RESP	1965743	n/a	LTP281	ltpFR	1	3	1	FLOWER	584	1	n/a	1	n/a	n/a	n/a	n/a	n/a
3932.526	n/a	RECOG_CONF	1966263	n/a	LTP281	ltpFR	1	3	1	FLOWER	584	n/a	5	1	n/a	n/a	n/a	n/a	n/a
3933.986	n/a	RECOG_LURE	1966993	n/a	LTP281	ltpFR	1	3	n/a	UNDERWEAR	1537	1	2	n/a	n/a	n/a	n/a	n/a	n/a
3934.792	n/a	RECOG_RESP	1967396	n/a	LTP281	ltpFR	1	3	n/a	UNDERWEAR	1537	1	n/a	n/a	n/a	n/a	n/a	n/a	n/a
3936.446	n/a	RECOG_CONF	1968223	n/a	LTP281	ltpFR	1	3	n/a	UNDERWEAR	1537	n/a	2	n/a	n/a	n/a	n/a	n/a	n/a
3938.062	n/a	RECOG_TARGET	1969031	n/a	LTP281	ltpFR	1	3	1	TOENAIL	1474	1	5	0	n/a	n/a	n/a	n/a	n/a
3938.772	n/a	RECOG_RESP	1969386	n/a	LTP281	ltpFR	1	3	1	TOENAIL	1474	1	n/a	0	n/a	n/a	n/a	n/a	n/a
3939.556	n/a	RECOG_CONF	1969778	n/a	LTP281	ltpFR	1	3	1	TOENAIL	1474	n/a	5	0	n/a	n/a	n/a	n/a	n/a
3941.376	n/a	RECOG_TARGET	1970688	n/a	LTP281	ltpFR	1	3	1	HEEL	700	1	1	0	n/a	n/a	n/a	n/a	n/a
3942.118	n/a	RECOG_RESP	1971059	n/a	LTP281	ltpFR	1	3	1	HEEL	700	1	n/a	0	n/a	n/a	n/a	n/a	n/a
3943.378	n/a	RECOG_CONF	1971689	n/a	LTP281	ltpFR	1	3	1	HEEL	700	n/a	1	0	n/a	n/a	n/a	n/a	n/a
3945.002	n/a	RECOG_TARGET	1972501	n/a	LTP281	ltpFR	1	3	1	HEADBAND	696	1	5	0	n/a	n/a	n/a	n/a	n/a
3945.678	n/a	RECOG_RESP	1972839	n/a	LTP281	ltpFR	1	3	1	HEADBAND	696	1	n/a	0	n/a	n/a	n/a	n/a	n/a
3946.568	n/a	RECOG_CONF	1973284	n/a	LTP281	ltpFR	1	3	1	HEADBAND	696	n/a	5	0	n/a	n/a	n/a	n/a	n/a
3948.198	n/a	RECOG_TARGET	1974099	n/a	LTP281	ltpFR	1	3	-1	TURNIP	1521	0	2	-1	n/a	n/a	n/a	n/a	n/a
3949.242	n/a	RECOG_RESP	1974621	n/a	LTP281	ltpFR	1	3	-1	TURNIP	1521	0	n/a	-1	n/a	n/a	n/a	n/a	n/a
3950.278	n/a	RECOG_CONF	1975139	n/a	LTP281	ltpFR	1	3	-1	TURNIP	1521	n/a	2	-1	n/a	n/a	n/a	n/a	n/a
3951.892	n/a	RECOG_TARGET	1975946	n/a	LTP281	ltpFR	1	3	0	SENATE	1267	1	5	1	n/a	n/a	n/a	n/a	n/a
3953.132	n/a	RECOG_RESP	1976566	n/a	LTP281	ltpFR	1	3	0	SENATE	1267	1	n/a	1	n/a	n/a	n/a	n/a	n/a
3953.708	n/a	RECOG_CONF	1976854	n/a	LTP281	ltpFR	1	3	0	SENATE	1267	n/a	5	1	n/a	n/a	n/a	n/a	n/a
3955.47	n/a	RECOG_LURE	1977735	n/a	LTP281	ltpFR	1	3	n/a	DUNGEON	507	0	5	n/a	n/a	n/a	n/a	n/a	n/a
3956.398	n/a	RECOG_RESP	1978199	n/a	LTP281	ltpFR	1	3	n/a	DUNGEON	507	0	n/a	n/a	n/a	n/a	n/a	n/a	n/a
3957.138	n/a	RECOG_CONF	1978569	n/a	LTP281	ltpFR	1	3	n/a	DUNGEON	507	n/a	5	n/a	n/a	n/a	n/a	n/a	n/a
3958.766	n/a	RECOG_TARGET	1979383	n/a	LTP281	ltpFR	1	3	1	SIDING	1304	1	5	0	n/a	n/a	n/a	n/a	n/a
3959.972	n/a	RECOG_RESP	1979986	n/a	LTP281	ltpFR	1	3	1	SIDING	1304	1	n/a	0	n/a	n/a	n/a	n/a	n/a
3961.108	n/a	RECOG_CONF	1980554	n/a	LTP281	ltpFR	1	3	1	SIDING	1304	n/a	5	0	n/a	n/a	n/a	n/a	n/a
3962.91	n/a	RECOG_TARGET	1981455	n/a	LTP281	ltpFR	1	3	0	POSSUM	1112	1	5	0	n/a	n/a	n/a	n/a	n/a
3963.628	n/a	RECOG_RESP	1981814	n/a	LTP281	ltpFR	1	3	0	POSSUM	1112	1	n/a	0	n/a	n/a	n/a	n/a	n/a
3964.578	n/a	RECOG_CONF	1982289	n/a	LTP281	ltpFR	1	3	0	POSSUM	1112	n/a	5	0	n/a	n/a	n/a	n/a	n/a
3966.288	n/a	RECOG_LURE	1983144	n/a	LTP281	ltpFR	1	3	n/a	BARK	87	0	1	n/a	n/a	n/a	n/a	n/a	n/a
3967.348	n/a	RECOG_RESP	1983674	n/a	LTP281	ltpFR	1	3	n/a	BARK	87	0	n/a	n/a	n/a	n/a	n/a	n/a	n/a
3967.898	n/a	RECOG_CONF	1983949	n/a	LTP281	ltpFR	1	3	n/a	BARK	87	n/a	1	n/a	n/a	n/a	n/a	n/a	n/a
3969.6	n/a	RECOG_TARGET	1984800	n/a	LTP281	ltpFR	1	3	0	APARTMENT	30	1	2	1	n/a	n/a	n/a	n/a	n/a
3970.362	n/a	RECOG_RESP	1985181	n/a	LTP281	ltpFR	1	3	0	APARTMENT	30	1	n/a	1	n/a	n/a	n/a	n/a	n/a
3972.498	n/a	RECOG_CONF	1986249	n/a	LTP281	ltpFR	1	3	0	APARTMENT	30	n/a	2	1	n/a	n/a	n/a	n/a	n/a
3973.91	n/a	RECOG_TARGET	1986955	n/a	LTP281	ltpFR	1	3	0	POPCORN	1104	1	4	0	n/a	n/a	n/a	n/a	n/a
3974.618	n/a	RECOG_RESP	1987309	n/a	LTP281	ltpFR	1	3	0	POPCORN	1104	1	n/a	0	n/a	n/a	n/a	n/a	n/a
3975.418	n/a	RECOG_CONF	1987709	n/a	LTP281	ltpFR	1	3	0	POPCORN	1104	n/a	4	0	n/a	n/a	n/a	n/a	n/a
3977.122	n/a	RECOG_TARGET	1988561	n/a	LTP281	ltpFR	1	3	1	CALF	222	0	1	2	n/a	n/a	n/a	n/a	n/a
3978.258	n/a	RECOG_RESP	1989129	n/a	LTP281	ltpFR	1	3	1	CALF	222	0	n/a	2	n/a	n/a	n/a	n/a	n/a
3979.308	n/a	RECOG_CONF	1989654	n/a	LTP281	ltpFR	1	3	1	CALF	222	n/a	1	2	n/a	n/a	n/a	n/a	n/a
3980.966	n/a	RECOG_LURE	1990483	n/a	LTP281	ltpFR	1	3	n/a	WIFE	1609	1	3	n/a	n/a	n/a	n/a	n/a	n/a
3982.488	n/a	RECOG_RESP	1991244	n/a	LTP281	ltpFR	1	3	n/a	WIFE	1609	1	n/a	n/a	n/a	n/a	n/a	n/a	n/a
3983.258	n/a	RECOG_CONF	1991629	n/a	LTP281	ltpFR	1	3	n/a	WIFE	1609	n/a	3	n/a	n/a	n/a	n/a	n/a	n/a
3984.678	n/a	RECOG_LURE	1992339	n/a	LTP281	ltpFR	1	3	n/a	COMPUTER	359	1	4	n/a	n/a	n/a	n/a	n/a	n/a
3985.518	n/a	RECOG_RESP	1992759	n/a	LTP281	ltpFR	1	3	n/a	COMPUTER	359	1	n/a	n/a	n/a	n/a	n/a	n/a	n/a
3986.508	n/a	RECOG_CONF	1993254	n/a	LTP281	ltpFR	1	3	n/a	COMPUTER	359	n/a	4	n/a	n/a	n/a	n/a	n/a	n/a
3988.804	n/a	RECOG_LURE	1994402	n/a	LTP281	ltpFR	1	3	n/a	CEREAL	272	1	3	n/a	n/a	n/a	n/a	n/a	n/a
3989.392	n/a	RECOG_RESP	1994696	n/a	LTP281	ltpFR	1	3	n/a	CEREAL	272	1	n/a	n/a	n/a	n/a	n/a	n/a	n/a
3990.478	n/a	RECOG_CONF	1995239	n/a	LTP281	ltpFR	1	3	n/a	CEREAL	272	n/a	3	n/a	n/a	n/a	n/a	n/a	n/a
3992.082	n/a	RECOG_TARGET	1996041	n/a	LTP281	ltpFR	1	3	0	APE	31	1	5	0	n/a	n/a	n/a	n/a	n/a
3992.738	n/a	RECOG_RESP	1996369	n/a	LTP281	ltpFR	1	3	0	APE	31	1	n/a	0	n/a	n/a	n/a	n/a	n/a
3993.508	n/a	RECOG_CONF	1996754	n/a	LTP281	ltpFR	1	3	0	APE	31	n/a	5	0	n/a	n/a	n/a	n/a	n/a
3998.876	n/a	REC_START	1999438	n/a	LTP281	ltpFR	1	4	n/a	n/a	n/a	n/a	n/a	n/a	n/a	n/a	n/a	n/a	n/a
3998.906	n/a	RECOG_TARGET	1999453	n/a	LTP281	ltpFR	1	4	1	HAWK	692	1	5	1	n/a	n/a	n/a	n/a	n/a
3999.85	n/a	RECOG_RESP	1999925	n/a	LTP281	ltpFR	1	4	1	HAWK	692	1	n/a	1	n/a	n/a	n/a	n/a	n/a
4000.406	n/a	RECOG_CONF	2000203	n/a	LTP281	ltpFR	1	4	1	HAWK	692	n/a	5	1	n/a	n/a	n/a	n/a	n/a
4002.068	n/a	RECOG_LURE	2001034	n/a	LTP281	ltpFR	1	4	n/a	EARTH	515	0	1	n/a	n/a	n/a	n/a	n/a	n/a
4002.796	n/a	RECOG_RESP	2001398	n/a	LTP281	ltpFR	1	4	n/a	EARTH	515	0	n/a	n/a	n/a	n/a	n/a	n/a	n/a
4003.546	n/a	RECOG_CONF	2001773	n/a	LTP281	ltpFR	1	4	n/a	EARTH	515	n/a	1	n/a	n/a	n/a	n/a	n/a	n/a
4005.23	n/a	RECOG_LURE	2002615	n/a	LTP281	ltpFR	1	4	n/a	SENATOR	1268	1	5	n/a	n/a	n/a	n/a	n/a	n/a
4005.81	n/a	RECOG_RESP	2002905	n/a	LTP281	ltpFR	1	4	n/a	SENATOR	1268	1	n/a	n/a	n/a	n/a	n/a	n/a	n/a
4006.466	n/a	RECOG_CONF	2003233	n/a	LTP281	ltpFR	1	4	n/a	SENATOR	1268	n/a	5	n/a	n/a	n/a	n/a	n/a	n/a
4008.226	n/a	RECOG_TARGET	2004113	n/a	LTP281	ltpFR	1	4	0	STAFF	1365	1	5	0	n/a	n/a	n/a	n/a	n/a
4009.426	n/a	RECOG_RESP	2004713	n/a	LTP281	ltpFR	1	4	0	STAFF	1365	1	n/a	0	n/a	n/a	n/a	n/a	n/a
4009.886	n/a	RECOG_RESP_VV	2004943	n/a	LTP281	ltpFR	1	4	0	STAFF	1365	n/a	5	0	n/a	n/a	n/a	n/a	n/a
4011.156	n/a	RECOG_CONF	2005578	n/a	LTP281	ltpFR	1	4	0	STAFF	1365	n/a	5	0	n/a	n/a	n/a	n/a	n/a
4012.952	n/a	RECOG_TARGET	2006476	n/a	LTP281	ltpFR	1	4	1	POET	1095	1	4	1	n/a	n/a	n/a	n/a	n/a
4013.716	n/a	RECOG_RESP	2006858	n/a	LTP281	ltpFR	1	4	1	POET	1095	1	n/a	1	n/a	n/a	n/a	n/a	n/a
4014.726	n/a	RECOG_CONF	2007363	n/a	LTP281	ltpFR	1	4	1	POET	1095	n/a	4	1	n/a	n/a	n/a	n/a	n/a
4016.414	n/a	RECOG_TARGET	2008207	n/a	LTP281	ltpFR	1	4	-1	BUTTERFLY	206	1	5	-1	n/a	n/a	n/a	n/a	n/a
4017.082	n/a	RECOG_RESP	2008541	n/a	LTP281	ltpFR	1	4	-1	BUTTERFLY	206	1	n/a	-1	n/a	n/a	n/a	n/a	n/a
4017.616	n/a	RECOG_CONF	2008808	n/a	LTP281	ltpFR	1	4	-1	BUTTERFLY	206	n/a	5	-1	n/a	n/a	n/a	n/a	n/a
4019.492	n/a	RECOG_LURE	2009746	n/a	LTP281	ltpFR	1	4	n/a	STAR	1373	0	5	n/a	n/a	n/a	n/a	n/a	n/a
4020.256	n/a	RECOG_RESP	2010128	n/a	LTP281	ltpFR	1	4	n/a	STAR	1373	0	n/a	n/a	n/a	n/a	n/a	n/a	n/a
4021.116	n/a	RECOG_CONF	2010558	n/a	LTP281	ltpFR	1	4	n/a	STAR	1373	n/a	5	n/a	n/a	n/a	n/a	n/a	n/a
4022.904	n/a	RECOG_LURE	2011452	n/a	LTP281	ltpFR	1	4	n/a	CATTLE	261	0	1	n/a	n/a	n/a	n/a	n/a	n/a
4023.882	n/a	RECOG_RESP	2011941	n/a	LTP281	ltpFR	1	4	n/a	CATTLE	261	0	n/a	n/a	n/a	n/a	n/a	n/a	n/a
4024.636	n/a	RECOG_CONF	2012318	n/a	LTP281	ltpFR	1	4	n/a	CATTLE	261	n/a	1	n/a	n/a	n/a	n/a	n/a	n/a
4026.3	n/a	RECOG_TARGET	2013150	n/a	LTP281	ltpFR	1	4	0	BOSS	152	1	5	1	n/a	n/a	n/a	n/a	n/a
4026.972	n/a	RECOG_RESP	2013486	n/a	LTP281	ltpFR	1	4	0	BOSS	152	1	n/a	1	n/a	n/a	n/a	n/a	n/a
4027.656	n/a	RECOG_CONF	2013828	n/a	LTP281	ltpFR	1	4	0	BOSS	152	n/a	5	1	n/a	n/a	n/a	n/a	n/a
4029.428	n/a	RECOG_LURE	2014714	n/a	LTP281	ltpFR	1	4	n/a	HELICOPTER	701	0	2	n/a	n/a	n/a	n/a	n/a	n/a
4030.196	n/a	RECOG_RESP	2015098	n/a	LTP281	ltpFR	1	4	n/a	HELICOPTER	701	0	n/a	n/a	n/a	n/a	n/a	n/a	n/a
4031.456	n/a	RECOG_CONF	2015728	n/a	LTP281	ltpFR	1	4	n/a	HELICOPTER	701	n/a	2	n/a	n/a	n/a	n/a	n/a	n/a
4033.24	n/a	RECOG_LURE	2016620	n/a	LTP281	ltpFR	1	4	n/a	EMPIRE	530	1	2	n/a	n/a	n/a	n/a	n/a	n/a
4034.156	n/a	RECOG_RESP	2017078	n/a	LTP281	ltpFR	1	4	n/a	EMPIRE	530	1	n/a	n/a	n/a	n/a	n/a	n/a	n/a
4035.266	n/a	RECOG_CONF	2017633	n/a	LTP281	ltpFR	1	4	n/a	EMPIRE	530	n/a	2	n/a	n/a	n/a	n/a	n/a	n/a
4036.834	n/a	RECOG_TARGET	2018417	n/a	LTP281	ltpFR	1	4	0	HINGE	709	1	5	0	n/a	n/a	n/a	n/a	n/a
4037.546	n/a	RECOG_RESP	2018773	n/a	LTP281	ltpFR	1	4	0	HINGE	709	1	n/a	0	n/a	n/a	n/a	n/a	n/a
4038.296	n/a	RECOG_CONF	2019148	n/a	LTP281	ltpFR	1	4	0	HINGE	709	n/a	5	0	n/a	n/a	n/a	n/a	n/a
4040.012	n/a	RECOG_TARGET	2020006	n/a	LTP281	ltpFR	1	4	0	VAULT	1550	1	5	0	n/a	n/a	n/a	n/a	n/a
4040.876	n/a	RECOG_RESP	2020438	n/a	LTP281	ltpFR	1	4	0	VAULT	1550	1	n/a	0	n/a	n/a	n/a	n/a	n/a
4041.626	n/a	RECOG_CONF	2020813	n/a	LTP281	ltpFR	1	4	0	VAULT	1550	n/a	5	0	n/a	n/a	n/a	n/a	n/a
4043.208	n/a	RECOG_LURE	2021604	n/a	LTP281	ltpFR	1	4	n/a	ELF	525	0	5	n/a	n/a	n/a	n/a	n/a	n/a
4043.936	n/a	RECOG_RESP	2021968	n/a	LTP281	ltpFR	1	4	n/a	ELF	525	0	n/a	n/a	n/a	n/a	n/a	n/a	n/a
4044.816	n/a	RECOG_CONF	2022408	n/a	LTP281	ltpFR	1	4	n/a	ELF	525	n/a	5	n/a	n/a	n/a	n/a	n/a	n/a
4046.652	n/a	RECOG_LURE	2023326	n/a	LTP281	ltpFR	1	4	n/a	PLUTO	1092	1	1	n/a	n/a	n/a	n/a	n/a	n/a
4048.646	n/a	RECOG_RESP	2024323	n/a	LTP281	ltpFR	1	4	n/a	PLUTO	1092	1	n/a	n/a	n/a	n/a	n/a	n/a	n/a
4049.246	n/a	RECOG_CONF	2024623	n/a	LTP281	ltpFR	1	4	n/a	PLUTO	1092	n/a	1	n/a	n/a	n/a	n/a	n/a	n/a
4051.062	n/a	RECOG_TARGET	2025531	n/a	LTP281	ltpFR	1	4	-1	EMERALD	528	1	5	-1	n/a	n/a	n/a	n/a	n/a
4051.936	n/a	RECOG_RESP	2025968	n/a	LTP281	ltpFR	1	4	-1	EMERALD	528	1	n/a	-1	n/a	n/a	n/a	n/a	n/a
4052.706	n/a	RECOG_CONF	2026353	n/a	LTP281	ltpFR	1	4	-1	EMERALD	528	n/a	5	-1	n/a	n/a	n/a	n/a	n/a
4054.008	n/a	RECOG_TARGET	2027004	n/a	LTP281	ltpFR	1	4	1	OTTER	986	1	1	1	n/a	n/a	n/a	n/a	n/a
4055.222	n/a	RECOG_RESP	2027611	n/a	LTP281	ltpFR	1	4	1	OTTER	986	1	n/a	1	n/a	n/a	n/a	n/a	n/a
4056.066	n/a	RECOG_CONF	2028033	n/a	LTP281	ltpFR	1	4	1	OTTER	986	n/a	1	1	n/a	n/a	n/a	n/a	n/a
4057.752	n/a	RECOG_TARGET	2028876	n/a	LTP281	ltpFR	1	4	0	CAMEL	223	1	2	1	n/a	n/a	n/a	n/a	n/a
4058.316	n/a	RECOG_RESP	2029158	n/a	LTP281	ltpFR	1	4	0	CAMEL	223	1	n/a	1	n/a	n/a	n/a	n/a	n/a
4059.066	n/a	RECOG_CONF	2029533	n/a	LTP281	ltpFR	1	4	0	CAMEL	223	n/a	2	1	n/a	n/a	n/a	n/a	n/a
4060.798	n/a	RECOG_TARGET	2030399	n/a	LTP281	ltpFR	1	4	-1	MUSHROOM	934	1	5	-1	n/a	n/a	n/a	n/a	n/a
4061.346	n/a	RECOG_RESP	2030673	n/a	LTP281	ltpFR	1	4	-1	MUSHROOM	934	1	n/a	-1	n/a	n/a	n/a	n/a	n/a
4062.036	n/a	RECOG_CONF	2031018	n/a	LTP281	ltpFR	1	4	-1	MUSHROOM	934	n/a	5	-1	n/a	n/a	n/a	n/a	n/a
4063.66	n/a	RECOG_LURE	2031830	n/a	LTP281	ltpFR	1	4	n/a	PLANET	1082	1	5	n/a	n/a	n/a	n/a	n/a	n/a
4064.316	n/a	RECOG_RESP	2032158	n/a	LTP281	ltpFR	1	4	n/a	PLANET	1082	1	n/a	n/a	n/a	n/a	n/a	n/a	n/a
4065.276	n/a	RECOG_CONF	2032638	n/a	LTP281	ltpFR	1	4	n/a	PLANET	1082	n/a	5	n/a	n/a	n/a	n/a	n/a	n/a
4073.468	n/a	REC_START	2036734	n/a	LTP281	ltpFR	1	5	n/a	n/a	n/a	n/a	n/a	n/a	n/a	n/a	n/a	n/a	n/a
4073.496	n/a	RECOG_TARGET	2036748	n/a	LTP281	ltpFR	1	5	1	WALLET	1583	0	2	0	n/a	n/a	n/a	n/a	n/a
4074.432	n/a	RECOG_RESP	2037216	n/a	LTP281	ltpFR	1	5	1	WALLET	1583	0	n/a	0	n/a	n/a	n/a	n/a	n/a
4075.348	n/a	RECOG_CONF	2037674	n/a	LTP281	ltpFR	1	5	1	WALLET	1583	n/a	2	0	n/a	n/a	n/a	n/a	n/a
4076.956	n/a	RECOG_TARGET	2038478	n/a	LTP281	ltpFR	1	5	1	HAND	683	0	1	1	n/a	n/a	n/a	n/a	n/a
4077.728	n/a	RECOG_RESP	2038864	n/a	LTP281	ltpFR	1	5	1	HAND	683	0	n/a	1	n/a	n/a	n/a	n/a	n/a
4079.702	n/a	RECOG_CONF	2039851	n/a	LTP281	ltpFR	1	5	1	HAND	683	n/a	1	1	n/a	n/a	n/a	n/a	n/a
4081.284	n/a	RECOG_TARGET	2040642	n/a	LTP281	ltpFR	1	5	-1	BOUILLON	154	1	5	-1	n/a	n/a	n/a	n/a	n/a
4081.948	n/a	RECOG_RESP	2040974	n/a	LTP281	ltpFR	1	5	-1	BOUILLON	154	1	n/a	-1	n/a	n/a	n/a	n/a	n/a
4082.798	n/a	RECOG_CONF	2041399	n/a	LTP281	ltpFR	1	5	-1	BOUILLON	154	n/a	5	-1	n/a	n/a	n/a	n/a	n/a
4084.196	n/a	RECOG_TARGET	2042098	n/a	LTP281	ltpFR	1	5	0	DIRECTOR	471	1	4	1	n/a	n/a	n/a	n/a	n/a
4084.848	n/a	RECOG_RESP	2042424	n/a	LTP281	ltpFR	1	5	0	DIRECTOR	471	1	n/a	1	n/a	n/a	n/a	n/a	n/a
4085.558	n/a	RECOG_CONF	2042779	n/a	LTP281	ltpFR	1	5	0	DIRECTOR	471	n/a	4	1	n/a	n/a	n/a	n/a	n/a
4087.676	n/a	RECOG_LURE	2043838	n/a	LTP281	ltpFR	1	5	n/a	VITAMIN	1574	0	5	n/a	n/a	n/a	n/a	n/a	n/a
4088.428	n/a	RECOG_RESP	2044214	n/a	LTP281	ltpFR	1	5	n/a	VITAMIN	1574	0	n/a	n/a	n/a	n/a	n/a	n/a	n/a
4089.118	n/a	RECOG_CONF	2044559	n/a	LTP281	ltpFR	1	5	n/a	VITAMIN	1574	n/a	5	n/a	n/a	n/a	n/a	n/a	n/a
4090.854	n/a	RECOG_TARGET	2045427	n/a	LTP281	ltpFR	1	5	1	MAMMAL	861	1	4	1	n/a	n/a	n/a	n/a	n/a
4091.438	n/a	RECOG_RESP	2045719	n/a	LTP281	ltpFR	1	5	1	MAMMAL	861	1	n/a	1	n/a	n/a	n/a	n/a	n/a
4092.348	n/a	RECOG_CONF	2046174	n/a	LTP281	ltpFR	1	5	1	MAMMAL	861	n/a	4	1	n/a	n/a	n/a	n/a	n/a
4094.082	n/a	RECOG_LURE	2047041	n/a	LTP281	ltpFR	1	5	n/a	DOLLAR	482	0	2	n/a	n/a	n/a	n/a	n/a	n/a
4094.934	n/a	RECOG_RESP	2047467	n/a	LTP281	ltpFR	1	5	n/a	DOLLAR	482	0	n/a	n/a	n/a	n/a	n/a	n/a	n/a
4095.928	n/a	RECOG_CONF	2047964	n/a	LTP281	ltpFR	1	5	n/a	DOLLAR	482	n/a	2	n/a	n/a	n/a	n/a	n/a	n/a
4097.478	n/a	RECOG_TARGET	2048739	n/a	LTP281	ltpFR	1	5	-1	CLAY	320	1	4	-1	n/a	n/a	n/a	n/a	n/a
4098.848	n/a	RECOG_RESP	2049424	n/a	LTP281	ltpFR	1	5	-1	CLAY	320	1	n/a	-1	n/a	n/a	n/a	n/a	n/a
4099.728	n/a	RECOG_CONF	2049864	n/a	LTP281	ltpFR	1	5	-1	CLAY	320	n/a	4	-1	n/a	n/a	n/a	n/a	n/a
4101.538	n/a	RECOG_TARGET	2050769	n/a	LTP281	ltpFR	1	5	0	SQUID	1361	1	5	1	n/a	n/a	n/a	n/a	n/a
4102.154	n/a	RECOG_RESP	2051077	n/a	LTP281	ltpFR	1	5	0	SQUID	1361	1	n/a	1	n/a	n/a	n/a	n/a	n/a
4103.178	n/a	RECOG_CONF	2051589	n/a	LTP281	ltpFR	1	5	0	SQUID	1361	n/a	5	1	n/a	n/a	n/a	n/a	n/a
4104.516	n/a	RECOG_TARGET	2052258	n/a	LTP281	ltpFR	1	5	1	LAPEL	800	1	5	0	n/a	n/a	n/a	n/a	n/a
4105.298	n/a	RECOG_RESP	2052649	n/a	LTP281	ltpFR	1	5	1	LAPEL	800	1	n/a	0	n/a	n/a	n/a	n/a	n/a
4106.278	n/a	RECOG_CONF	2053139	n/a	LTP281	ltpFR	1	5	1	LAPEL	800	n/a	5	0	n/a	n/a	n/a	n/a	n/a
4107.728	n/a	RECOG_TARGET	2053864	n/a	LTP281	ltpFR	1	5	1	PRINCE	1124	1	5	1	n/a	n/a	n/a	n/a	n/a
4108.344	n/a	RECOG_RESP	2054172	n/a	LTP281	ltpFR	1	5	1	PRINCE	1124	1	n/a	1	n/a	n/a	n/a	n/a	n/a
4109.398	n/a	RECOG_CONF	2054699	n/a	LTP281	ltpFR	1	5	1	PRINCE	1124	n/a	5	1	n/a	n/a	n/a	n/a	n/a
4111.008	n/a	RECOG_LURE	2055504	n/a	LTP281	ltpFR	1	5	n/a	FLOUR	583	0	4	n/a	n/a	n/a	n/a	n/a	n/a
4111.704	n/a	RECOG_RESP	2055852	n/a	LTP281	ltpFR	1	5	n/a	FLOUR	583	0	n/a	n/a	n/a	n/a	n/a	n/a	n/a
4112.858	n/a	RECOG_CONF	2056429	n/a	LTP281	ltpFR	1	5	n/a	FLOUR	583	n/a	4	n/a	n/a	n/a	n/a	n/a	n/a
4114.618	n/a	RECOG_TARGET	2057309	n/a	LTP281	ltpFR	1	5	0	FRANCE	601	1	5	1	n/a	n/a	n/a	n/a	n/a
4115.678	n/a	RECOG_RESP	2057839	n/a	LTP281	ltpFR	1	5	0	FRANCE	601	1	n/a	1	n/a	n/a	n/a	n/a	n/a
4116.558	n/a	RECOG_CONF	2058279	n/a	LTP281	ltpFR	1	5	0	FRANCE	601	n/a	5	1	n/a	n/a	n/a	n/a	n/a
4118.28	n/a	RECOG_LURE	2059140	n/a	LTP281	ltpFR	1	5	n/a	MATCH	878	1	1	n/a	n/a	n/a	n/a	n/a	n/a
4120.088	n/a	RECOG_RESP	2060044	n/a	LTP281	ltpFR	1	5	n/a	MATCH	878	1	n/a	n/a	n/a	n/a	n/a	n/a	n/a
4120.888	n/a	RECOG_CONF	2060444	n/a	LTP281	ltpFR	1	5	n/a	MATCH	878	n/a	1	n/a	n/a	n/a	n/a	n/a	n/a
4122.922	n/a	RECOG_LURE	2061461	n/a	LTP281	ltpFR	1	5	n/a	JAW	751	0	1	n/a	n/a	n/a	n/a	n/a	n/a
4123.898	n/a	RECOG_RESP	2061949	n/a	LTP281	ltpFR	1	5	n/a	JAW	751	0	n/a	n/a	n/a	n/a	n/a	n/a	n/a
4125.078	n/a	RECOG_CONF	2062539	n/a	LTP281	ltpFR	1	5	n/a	JAW	751	n/a	1	n/a	n/a	n/a	n/a	n/a	n/a
4127.166	n/a	RECOG_TARGET	2063583	n/a	LTP281	ltpFR	1	5	0	GRILL	661	1	2	1	n/a	n/a	n/a	n/a	n/a
4128.008	n/a	RECOG_RESP	2064004	n/a	LTP281	ltpFR	1	5	0	GRILL	661	1	n/a	1	n/a	n/a	n/a	n/a	n/a
4129.458	n/a	RECOG_CONF	2064729	n/a	LTP281	ltpFR	1	5	0	GRILL	661	n/a	2	1	n/a	n/a	n/a	n/a	n/a
4130.928	n/a	RECOG_TARGET	2065464	n/a	LTP281	ltpFR	1	5	0	BUGGY	188	1	5	0	n/a	n/a	n/a	n/a	n/a
4131.808	n/a	RECOG_RESP	2065904	n/a	LTP281	ltpFR	1	5	0	BUGGY	188	1	n/a	0	n/a	n/a	n/a	n/a	n/a
4132.628	n/a	RECOG_CONF	2066314	n/a	LTP281	ltpFR	1	5	0	BUGGY	188	n/a	5	0	n/a	n/a	n/a	n/a	n/a
4134.438	n/a	RECOG_TARGET	2067219	n/a	LTP281	ltpFR	1	5	-1	DECK	443	1	5	-1	n/a	n/a	n/a	n/a	n/a
4135.164	n/a	RECOG_RESP	2067582	n/a	LTP281	ltpFR	1	5	-1	DECK	443	1	n/a	-1	n/a	n/a	n/a	n/a	n/a
4136.218	n/a	RECOG_CONF	2068109	n/a	LTP281	ltpFR	1	5	-1	DECK	443	n/a	5	-1	n/a	n/a	n/a	n/a	n/a
4137.966	n/a	RECOG_TARGET	2068983	n/a	LTP281	ltpFR	1	5	-1	HOOK	715	1	5	-1	n/a	n/a	n/a	n/a	n/a
4138.504	n/a	RECOG_RESP	2069252	n/a	LTP281	ltpFR	1	5	-1	HOOK	715	1	n/a	-1	n/a	n/a	n/a	n/a	n/a
4139.408	n/a	RECOG_CONF	2069704	n/a	LTP281	ltpFR	1	5	-1	HOOK	715	n/a	5	-1	n/a	n/a	n/a	n/a	n/a
4141.046	n/a	RECOG_LURE	2070523	n/a	LTP281	ltpFR	1	5	n/a	PROFESSIONAL	1130	0	3	n/a	n/a	n/a	n/a	n/a	n/a
4141.878	n/a	RECOG_RESP	2070939	n/a	LTP281	ltpFR	1	5	n/a	PROFESSIONAL	1130	0	n/a	n/a	n/a	n/a	n/a	n/a	n/a
4143.278	n/a	RECOG_CONF	2071639	n/a	LTP281	ltpFR	1	5	n/a	PROFESSIONAL	1130	n/a	3	n/a	n/a	n/a	n/a	n/a	n/a
4147.048	n/a	REC_START	2073524	n/a	LTP281	ltpFR	1	6	n/a	n/a	n/a	n/a	n/a	n/a	n/a	n/a	n/a	n/a	n/a
4147.086	n/a	RECOG_TARGET	2073543	n/a	LTP281	ltpFR	1	6	0	HEN	703	1	4	0	n/a	n/a	n/a	n/a	n/a
4148.038	n/a	RECOG_RESP	2074019	n/a	LTP281	ltpFR	1	6	0	HEN	703	1	n/a	0	n/a	n/a	n/a	n/a	n/a
4148.758	n/a	RECOG_CONF	2074379	n/a	LTP281	ltpFR	1	6	0	HEN	703	n/a	4	0	n/a	n/a	n/a	n/a	n/a
4150.514	n/a	RECOG_TARGET	2075257	n/a	LTP281	ltpFR	1	6	-1	WAREHOUSE	1588	1	5	-1	n/a	n/a	n/a	n/a	n/a
4151.118	n/a	RECOG_RESP	2075559	n/a	LTP281	ltpFR	1	6	-1	WAREHOUSE	1588	1	n/a	-1	n/a	n/a	n/a	n/a	n/a
4152.088	n/a	RECOG_CONF	2076044	n/a	LTP281	ltpFR	1	6	-1	WAREHOUSE	1588	n/a	5	-1	n/a	n/a	n/a	n/a	n/a
4153.426	n/a	RECOG_TARGET	2076713	n/a	LTP281	ltpFR	1	6	-1	SHELF	1280	1	3	-1	n/a	n/a	n/a	n/a	n/a
4153.854	n/a	RECOG_RESP	2076927	n/a	LTP281	ltpFR	1	6	-1	SHELF	1280	1	n/a	-1	n/a	n/a	n/a	n/a	n/a
4155.498	n/a	RECOG_CONF	2077749	n/a	LTP281	ltpFR	1	6	-1	SHELF	1280	n/a	3	-1	n/a	n/a	n/a	n/a	n/a
4157.09	n/a	RECOG_TARGET	2078545	n/a	LTP281	ltpFR	1	6	0	HORSE	719	1	4	1	n/a	n/a	n/a	n/a	n/a
4157.554	n/a	RECOG_RESP	2078777	n/a	LTP281	ltpFR	1	6	0	HORSE	719	1	n/a	1	n/a	n/a	n/a	n/a	n/a
4158.58	n/a	RECOG_CONF	2079290	n/a	LTP281	ltpFR	1	6	0	HORSE	719	n/a	4	1	n/a	n/a	n/a	n/a	n/a
4160.152	n/a	RECOG_LURE	2080076	n/a	LTP281	ltpFR	1	6	n/a	BANDIT	81	0	1	n/a	n/a	n/a	n/a	n/a	n/a
4160.89	n/a	RECOG_RESP	2080445	n/a	LTP281	ltpFR	1	6	n/a	BANDIT	81	0	n/a	n/a	n/a	n/a	n/a	n/a	n/a
4162.1	n/a	RECOG_CONF	2081050	n/a	LTP281	ltpFR	1	6	n/a	BANDIT	81	n/a	1	n/a	n/a	n/a	n/a	n/a	n/a
4163.63	n/a	RECOG_LURE	2081815	n/a	LTP281	ltpFR	1	6	n/a	PUCK	1138	0	2	n/a	n/a	n/a	n/a	n/a	n/a
4164.694	n/a	RECOG_RESP	2082347	n/a	LTP281	ltpFR	1	6	n/a	PUCK	1138	0	n/a	n/a	n/a	n/a	n/a	n/a	n/a
4166.39	n/a	RECOG_CONF	2083195	n/a	LTP281	ltpFR	1	6	n/a	PUCK	1138	n/a	2	n/a	n/a	n/a	n/a	n/a	n/a
4167.956	n/a	RECOG_LURE	2083978	n/a	LTP281	ltpFR	1	6	n/a	DOLL	481	1	3	n/a	n/a	n/a	n/a	n/a	n/a
4168.58	n/a	RECOG_RESP	2084290	n/a	LTP281	ltpFR	1	6	n/a	DOLL	481	1	n/a	n/a	n/a	n/a	n/a	n/a	n/a
4169.61	n/a	RECOG_CONF	2084805	n/a	LTP281	ltpFR	1	6	n/a	DOLL	481	n/a	3	n/a	n/a	n/a	n/a	n/a	n/a
4171.252	n/a	RECOG_TARGET	2085626	n/a	LTP281	ltpFR	1	6	0	CLOSET	326	0	2	0	n/a	n/a	n/a	n/a	n/a
4171.92	n/a	RECOG_RESP	2085960	n/a	LTP281	ltpFR	1	6	0	CLOSET	326	0	n/a	0	n/a	n/a	n/a	n/a	n/a
4173.06	n/a	RECOG_CONF	2086530	n/a	LTP281	ltpFR	1	6	0	CLOSET	326	n/a	2	0	n/a	n/a	n/a	n/a	n/a
4174.73	n/a	RECOG_TARGET	2087365	n/a	LTP281	ltpFR	1	6	1	JACKET	747	1	2	0	n/a	n/a	n/a	n/a	n/a
4175.18	n/a	RECOG_RESP	2087590	n/a	LTP281	ltpFR	1	6	1	JACKET	747	1	n/a	0	n/a	n/a	n/a	n/a	n/a
4176.12	n/a	RECOG_CONF	2088060	n/a	LTP281	ltpFR	1	6	1	JACKET	747	n/a	2	0	n/a	n/a	n/a	n/a	n/a
4177.692	n/a	RECOG_LURE	2088846	n/a	LTP281	ltpFR	1	6	n/a	PIE	1062	0	4	n/a	n/a	n/a	n/a	n/a	n/a
4178.53	n/a	RECOG_RESP	2089265	n/a	LTP281	ltpFR	1	6	n/a	PIE	1062	0	n/a	n/a	n/a	n/a	n/a	n/a	n/a
4179.32	n/a	RECOG_CONF	2089660	n/a	LTP281	ltpFR	1	6	n/a	PIE	1062	n/a	4	n/a	n/a	n/a	n/a	n/a	n/a
