onset	duration	trial_type	sample	stim_file	subject	experiment	session	trial	task	item_name	item_num	recog_conf	resp	answer	test_x	test_y	test_z	color_b	color_g	color_r	case	font
232.096	n/a	SESS_START	116048	n/a	LTP277	ltpFR	12	n/a	n/a	n/a	n/a	3	n/a	n/a	0	0	0	n/a	n/a	n/a	n/a	n/a
257.774	n/a	START	128887	n/a	LTP277	ltpFR	12	n/a	n/a	n/a	n/a	n/a	n/a	n/a	n/a	n/a	n/a	n/a	n/a	n/a	n/a	n/a
257.824	n/a	PROB	128912	n/a	LTP277	ltpFR	12	n/a	n/a	n/a	n/a	n/a	n/a	10	5	1	4	n/a	n/a	n/a	n/a	n/a
259.764	n/a	PROB	129882	n/a	LTP277	ltpFR	12	n/a	n/a	n/a	n/a	n/a	n/a	7	1	2	4	n/a	n/a	n/a	n/a	n/a
260.97	n/a	PROB	130485	n/a	LTP277	ltpFR	12	n/a	n/a	n/a	n/a	n/a	n/a	23	5	9	9	n/a	n/a	n/a	n/a	n/a
262.894	n/a	PROB	131447	n/a	LTP277	ltpFR	12	n/a	n/a	n/a	n/a	n/a	n/a	19	4	8	7	n/a	n/a	n/a	n/a	n/a
264.7	n/a	PROB	132350	n/a	LTP277	ltpFR	12	n/a	n/a	n/a	n/a	n/a	n/a	14	7	6	1	n/a	n/a	n/a	n/a	n/a
266.306	n/a	PROB	133153	n/a	LTP277	ltpFR	12	n/a	n/a	n/a	n/a	n/a	n/a	16	2	7	7	n/a	n/a	n/a	n/a	n/a
267.912	n/a	PROB	133956	n/a	LTP277	ltpFR	12	n/a	n/a	n/a	n/a	n/a	n/a	12	7	3	2	n/a	n/a	n/a	n/a	n/a
269.3	n/a	PROB	134650	n/a	LTP277	ltpFR	12	n/a	n/a	n/a	n/a	n/a	n/a	15	4	3	8	n/a	n/a	n/a	n/a	n/a
271.29	n/a	PROB	135645	n/a	LTP277	ltpFR	12	n/a	n/a	n/a	n/a	n/a	n/a	15	2	9	4	n/a	n/a	n/a	n/a	n/a
273.03	n/a	PROB	136515	n/a	LTP277	ltpFR	12	n/a	n/a	n/a	n/a	n/a	n/a	9	3	4	2	n/a	n/a	n/a	n/a	n/a
274.654	n/a	PROB	137327	n/a	LTP277	ltpFR	12	n/a	n/a	n/a	n/a	n/a	n/a	8	2	3	3	n/a	n/a	n/a	n/a	n/a
277.776	n/a	STOP	138888	n/a	LTP277	ltpFR	12	n/a	n/a	n/a	n/a	n/a	n/a	n/a	n/a	n/a	n/a	n/a	n/a	n/a	n/a	n/a
305.506	n/a	START	152753	n/a	LTP277	ltpFR	12	n/a	n/a	n/a	n/a	n/a	n/a	n/a	n/a	n/a	n/a	n/a	n/a	n/a	n/a	n/a
307.012	n/a	PROB	153506	n/a	LTP277	ltpFR	12	n/a	n/a	n/a	n/a	n/a	n/a	20	6	5	9	n/a	n/a	n/a	n/a	n/a
309.136	n/a	PROB	154568	n/a	LTP277	ltpFR	12	n/a	n/a	n/a	n/a	n/a	n/a	19	5	6	8	n/a	n/a	n/a	n/a	n/a
311.446	n/a	PROB	155723	n/a	LTP277	ltpFR	12	n/a	n/a	n/a	n/a	n/a	n/a	7	1	2	4	n/a	n/a	n/a	n/a	n/a
312.818	n/a	STOP	156409	n/a	LTP277	ltpFR	12	n/a	n/a	n/a	n/a	n/a	n/a	n/a	n/a	n/a	n/a	n/a	n/a	n/a	n/a	n/a
314.374	n/a	WORD	157187	wordpools/wasnorm_wordpool_less_exclusions.txt	LTP277	ltpFR	12	1	0	PAGE	1001	n/a	0	n/a	0	0	0	1	0.412841796875	0.57763671875	lower	../fonts/zerothre.ttf
317.386	n/a	START	158693	n/a	LTP277	ltpFR	12	n/a	n/a	n/a	n/a	n/a	n/a	n/a	n/a	n/a	n/a	n/a	n/a	n/a	n/a	n/a
318.406	n/a	PROB	159203	n/a	LTP277	ltpFR	12	n/a	n/a	n/a	n/a	n/a	n/a	6	1	2	3	n/a	n/a	n/a	n/a	n/a
319.576	n/a	PROB	159788	n/a	LTP277	ltpFR	12	n/a	n/a	n/a	n/a	n/a	n/a	18	8	9	1	n/a	n/a	n/a	n/a	n/a
321.2	n/a	PROB	160600	n/a	LTP277	ltpFR	12	n/a	n/a	n/a	n/a	n/a	n/a	21	7	8	6	n/a	n/a	n/a	n/a	n/a
323.524	n/a	PROB	161762	n/a	LTP277	ltpFR	12	n/a	n/a	n/a	n/a	n/a	n/a	14	7	6	1	n/a	n/a	n/a	n/a	n/a
325.002	n/a	STOP	162501	n/a	LTP277	ltpFR	12	n/a	n/a	n/a	n/a	n/a	n/a	n/a	n/a	n/a	n/a	n/a	n/a	n/a	n/a	n/a
326.452	n/a	WORD	163226	wordpools/wasnorm_wordpool_less_exclusions.txt	LTP277	ltpFR	12	1	0	BOLT	146	n/a	0	n/a	0	0	0	1	0.412841796875	0.57763671875	lower	../fonts/zerothre.ttf
329.464	n/a	START	164732	n/a	LTP277	ltpFR	12	n/a	n/a	n/a	n/a	n/a	n/a	n/a	n/a	n/a	n/a	n/a	n/a	n/a	n/a	n/a
330.368	n/a	PROB	165184	n/a	LTP277	ltpFR	12	n/a	n/a	n/a	n/a	n/a	n/a	15	6	5	4	n/a	n/a	n/a	n/a	n/a
332.074	n/a	PROB	166037	n/a	LTP277	ltpFR	12	n/a	n/a	n/a	n/a	n/a	n/a	15	4	2	7	n/a	n/a	n/a	n/a	n/a
334.132	n/a	PROB	167066	n/a	LTP277	ltpFR	12	n/a	n/a	n/a	n/a	n/a	n/a	15	3	7	5	n/a	n/a	n/a	n/a	n/a
337.464	n/a	STOP	168732	n/a	LTP277	ltpFR	12	n/a	n/a	n/a	n/a	n/a	n/a	n/a	n/a	n/a	n/a	n/a	n/a	n/a	n/a	n/a
338.6	n/a	WORD	169300	wordpools/wasnorm_wordpool_less_exclusions.txt	LTP277	ltpFR	12	1	0	RAG	1160	n/a	0	n/a	0	0	0	1	0.412841796875	0.57763671875	lower	../fonts/zerothre.ttf
341.612	n/a	START	170806	n/a	LTP277	ltpFR	12	n/a	n/a	n/a	n/a	n/a	n/a	n/a	n/a	n/a	n/a	n/a	n/a	n/a	n/a	n/a
342.446	n/a	PROB	171223	n/a	LTP277	ltpFR	12	n/a	n/a	n/a	n/a	n/a	n/a	14	2	6	6	n/a	n/a	n/a	n/a	n/a
344.422	n/a	PROB	172211	n/a	LTP277	ltpFR	12	n/a	n/a	n/a	n/a	n/a	n/a	20	9	6	5	n/a	n/a	n/a	n/a	n/a
345.976	n/a	PROB	172988	n/a	LTP277	ltpFR	12	n/a	n/a	n/a	n/a	n/a	n/a	7	5	1	1	n/a	n/a	n/a	n/a	n/a
347.148	n/a	PROB	173574	n/a	LTP277	ltpFR	12	n/a	n/a	n/a	n/a	n/a	n/a	14	5	5	4	n/a	n/a	n/a	n/a	n/a
348.388	n/a	STOP	174194	n/a	LTP277	ltpFR	12	n/a	n/a	n/a	n/a	n/a	n/a	n/a	n/a	n/a	n/a	n/a	n/a	n/a	n/a	n/a
350.78	n/a	WORD	175390	wordpools/wasnorm_wordpool_less_exclusions.txt	LTP277	ltpFR	12	1	0	BELT	120	n/a	0	n/a	0	0	0	1	0.412841796875	0.57763671875	lower	../fonts/zerothre.ttf
353.792	n/a	START	176896	n/a	LTP277	ltpFR	12	n/a	n/a	n/a	n/a	n/a	n/a	n/a	n/a	n/a	n/a	n/a	n/a	n/a	n/a	n/a
354.66	n/a	PROB	177330	n/a	LTP277	ltpFR	12	n/a	n/a	n/a	n/a	n/a	n/a	19	6	7	6	n/a	n/a	n/a	n/a	n/a
357.606	n/a	PROB	178803	n/a	LTP277	ltpFR	12	n/a	n/a	n/a	n/a	n/a	n/a	13	7	5	1	n/a	n/a	n/a	n/a	n/a
360.266	n/a	PROB	180133	n/a	LTP277	ltpFR	12	n/a	n/a	n/a	n/a	n/a	n/a	17	7	7	3	n/a	n/a	n/a	n/a	n/a
361.628	n/a	STOP	180814	n/a	LTP277	ltpFR	12	n/a	n/a	n/a	n/a	n/a	n/a	n/a	n/a	n/a	n/a	n/a	n/a	n/a	n/a	n/a
362.926	n/a	WORD	181463	wordpools/wasnorm_wordpool_less_exclusions.txt	LTP277	ltpFR	12	1	0	FOX	598	n/a	0	n/a	0	0	0	1	0.412841796875	0.57763671875	lower	../fonts/zerothre.ttf
365.938	n/a	START	182969	n/a	LTP277	ltpFR	12	n/a	n/a	n/a	n/a	n/a	n/a	n/a	n/a	n/a	n/a	n/a	n/a	n/a	n/a	n/a
366.958	n/a	PROB	183479	n/a	LTP277	ltpFR	12	n/a	n/a	n/a	n/a	n/a	n/a	16	4	3	9	n/a	n/a	n/a	n/a	n/a
368.948	n/a	PROB	184474	n/a	LTP277	ltpFR	12	n/a	n/a	n/a	n/a	n/a	n/a	17	4	6	7	n/a	n/a	n/a	n/a	n/a
373.938	n/a	STOP	186969	n/a	LTP277	ltpFR	12	n/a	n/a	n/a	n/a	n/a	n/a	n/a	n/a	n/a	n/a	n/a	n/a	n/a	n/a	n/a
375.022	n/a	WORD	187511	wordpools/wasnorm_wordpool_less_exclusions.txt	LTP277	ltpFR	12	1	0	SCAPEGOAT	1244	n/a	0	n/a	0	0	0	1	0.412841796875	0.57763671875	lower	../fonts/zerothre.ttf
378.034	n/a	START	189017	n/a	LTP277	ltpFR	12	n/a	n/a	n/a	n/a	n/a	n/a	n/a	n/a	n/a	n/a	n/a	n/a	n/a	n/a	n/a
379.052	n/a	PROB	189526	n/a	LTP277	ltpFR	12	n/a	n/a	n/a	n/a	n/a	n/a	13	5	1	7	n/a	n/a	n/a	n/a	n/a
380.524	n/a	PROB	190262	n/a	LTP277	ltpFR	12	n/a	n/a	n/a	n/a	n/a	n/a	12	3	1	8	n/a	n/a	n/a	n/a	n/a
382.014	n/a	PROB	191007	n/a	LTP277	ltpFR	12	n/a	n/a	n/a	n/a	n/a	n/a	15	1	7	7	n/a	n/a	n/a	n/a	n/a
383.654	n/a	PROB	191827	n/a	LTP277	ltpFR	12	n/a	n/a	n/a	n/a	n/a	n/a	8	2	4	2	n/a	n/a	n/a	n/a	n/a
385.878	n/a	STOP	192939	n/a	LTP277	ltpFR	12	n/a	n/a	n/a	n/a	n/a	n/a	n/a	n/a	n/a	n/a	n/a	n/a	n/a	n/a	n/a
387.034	n/a	WORD	193517	wordpools/wasnorm_wordpool_less_exclusions.txt	LTP277	ltpFR	12	1	0	TREASURE	1500	n/a	0	n/a	0	0	0	1	0.412841796875	0.57763671875	lower	../fonts/zerothre.ttf
390.046	n/a	START	195023	n/a	LTP277	ltpFR	12	n/a	n/a	n/a	n/a	n/a	n/a	n/a	n/a	n/a	n/a	n/a	n/a	n/a	n/a	n/a
391.2	n/a	PROB	195600	n/a	LTP277	ltpFR	12	n/a	n/a	n/a	n/a	n/a	n/a	17	8	7	2	n/a	n/a	n/a	n/a	n/a
393.072	n/a	PROB	196536	n/a	LTP277	ltpFR	12	n/a	n/a	n/a	n/a	n/a	n/a	16	2	5	9	n/a	n/a	n/a	n/a	n/a
394.848	n/a	PROB	197424	n/a	LTP277	ltpFR	12	n/a	n/a	n/a	n/a	n/a	n/a	18	8	9	1	n/a	n/a	n/a	n/a	n/a
398.046	n/a	STOP	199023	n/a	LTP277	ltpFR	12	n/a	n/a	n/a	n/a	n/a	n/a	n/a	n/a	n/a	n/a	n/a	n/a	n/a	n/a	n/a
399.08	n/a	WORD	199540	wordpools/wasnorm_wordpool_less_exclusions.txt	LTP277	ltpFR	12	1	0	LINT	826	n/a	0	n/a	0	0	0	1	0.412841796875	0.57763671875	lower	../fonts/zerothre.ttf
402.092	n/a	START	201046	n/a	LTP277	ltpFR	12	n/a	n/a	n/a	n/a	n/a	n/a	n/a	n/a	n/a	n/a	n/a	n/a	n/a	n/a	n/a
402.928	n/a	PROB	201464	n/a	LTP277	ltpFR	12	n/a	n/a	n/a	n/a	n/a	n/a	23	8	6	9	n/a	n/a	n/a	n/a	n/a
407.31	n/a	PROB	203655	n/a	LTP277	ltpFR	12	n/a	n/a	n/a	n/a	n/a	n/a	15	7	6	2	n/a	n/a	n/a	n/a	n/a
408.992	n/a	STOP	204496	n/a	LTP277	ltpFR	12	n/a	n/a	n/a	n/a	n/a	n/a	n/a	n/a	n/a	n/a	n/a	n/a	n/a	n/a	n/a
411.094	n/a	WORD	205547	wordpools/wasnorm_wordpool_less_exclusions.txt	LTP277	ltpFR	12	1	0	PRODUCER	1129	n/a	1	n/a	0	0	0	1	0.412841796875	0.57763671875	lower	../fonts/zerothre.ttf
414.104	n/a	START	207052	n/a	LTP277	ltpFR	12	n/a	n/a	n/a	n/a	n/a	n/a	n/a	n/a	n/a	n/a	n/a	n/a	n/a	n/a	n/a
415.158	n/a	PROB	207579	n/a	LTP277	ltpFR	12	n/a	n/a	n/a	n/a	n/a	n/a	21	9	9	3	n/a	n/a	n/a	n/a	n/a
416.53	n/a	PROB	208265	n/a	LTP277	ltpFR	12	n/a	n/a	n/a	n/a	n/a	n/a	18	7	8	3	n/a	n/a	n/a	n/a	n/a
418.552	n/a	PROB	209276	n/a	LTP277	ltpFR	12	n/a	n/a	n/a	n/a	n/a	n/a	16	2	6	8	n/a	n/a	n/a	n/a	n/a
420.128	n/a	PROB	210064	n/a	LTP277	ltpFR	12	n/a	n/a	n/a	n/a	n/a	n/a	15	4	6	5	n/a	n/a	n/a	n/a	n/a
421.544	n/a	STOP	210772	n/a	LTP277	ltpFR	12	n/a	n/a	n/a	n/a	n/a	n/a	n/a	n/a	n/a	n/a	n/a	n/a	n/a	n/a	n/a
423.24	n/a	WORD	211620	wordpools/wasnorm_wordpool_less_exclusions.txt	LTP277	ltpFR	12	1	0	SCREEN	1253	n/a	0	n/a	0	0	0	1	0.412841796875	0.57763671875	lower	../fonts/zerothre.ttf
426.252	n/a	START	213126	n/a	LTP277	ltpFR	12	n/a	n/a	n/a	n/a	n/a	n/a	n/a	n/a	n/a	n/a	n/a	n/a	n/a	n/a	n/a
427.172	n/a	PROB	213586	n/a	LTP277	ltpFR	12	n/a	n/a	n/a	n/a	n/a	n/a	16	3	7	6	n/a	n/a	n/a	n/a	n/a
428.41	n/a	PROB	214205	n/a	LTP277	ltpFR	12	n/a	n/a	n/a	n/a	n/a	n/a	15	4	7	4	n/a	n/a	n/a	n/a	n/a
430.066	n/a	PROB	215033	n/a	LTP277	ltpFR	12	n/a	n/a	n/a	n/a	n/a	n/a	9	2	1	6	n/a	n/a	n/a	n/a	n/a
431.89	n/a	PROB	215945	n/a	LTP277	ltpFR	12	n/a	n/a	n/a	n/a	n/a	n/a	11	8	2	1	n/a	n/a	n/a	n/a	n/a
433.944	n/a	STOP	216972	n/a	LTP277	ltpFR	12	n/a	n/a	n/a	n/a	n/a	n/a	n/a	n/a	n/a	n/a	n/a	n/a	n/a	n/a	n/a
435.252	n/a	WORD	217626	wordpools/wasnorm_wordpool_less_exclusions.txt	LTP277	ltpFR	12	1	0	DIRECTOR	471	n/a	1	n/a	0	0	0	1	0.412841796875	0.57763671875	lower	../fonts/zerothre.ttf
438.264	n/a	START	219132	n/a	LTP277	ltpFR	12	n/a	n/a	n/a	n/a	n/a	n/a	n/a	n/a	n/a	n/a	n/a	n/a	n/a	n/a	n/a
439.466	n/a	PROB	219733	n/a	LTP277	ltpFR	12	n/a	n/a	n/a	n/a	n/a	n/a	17	9	3	5	n/a	n/a	n/a	n/a	n/a
441.558	n/a	PROB	220779	n/a	LTP277	ltpFR	12	n/a	n/a	n/a	n/a	n/a	n/a	22	9	7	6	n/a	n/a	n/a	n/a	n/a
443.634	n/a	PROB	221817	n/a	LTP277	ltpFR	12	n/a	n/a	n/a	n/a	n/a	n/a	12	5	4	3	n/a	n/a	n/a	n/a	n/a
445.546	n/a	STOP	222773	n/a	LTP277	ltpFR	12	n/a	n/a	n/a	n/a	n/a	n/a	n/a	n/a	n/a	n/a	n/a	n/a	n/a	n/a	n/a
447.314	n/a	WORD	223657	wordpools/wasnorm_wordpool_less_exclusions.txt	LTP277	ltpFR	12	1	0	TICKET	1464	n/a	0	n/a	0	0	0	1	0.412841796875	0.57763671875	lower	../fonts/zerothre.ttf
450.326	n/a	START	225163	n/a	LTP277	ltpFR	12	n/a	n/a	n/a	n/a	n/a	n/a	n/a	n/a	n/a	n/a	n/a	n/a	n/a	n/a	n/a
451.38	n/a	PROB	225690	n/a	LTP277	ltpFR	12	n/a	n/a	n/a	n/a	n/a	n/a	24	7	9	7	n/a	n/a	n/a	n/a	n/a
458.326	n/a	STOP	229163	n/a	LTP277	ltpFR	12	n/a	n/a	n/a	n/a	n/a	n/a	n/a	n/a	n/a	n/a	n/a	n/a	n/a	n/a	n/a
459.16	n/a	WORD	229580	wordpools/wasnorm_wordpool_less_exclusions.txt	LTP277	ltpFR	12	1	0	IRON	744	n/a	0	n/a	0	0	0	1	0.412841796875	0.57763671875	lower	../fonts/zerothre.ttf
462.172	n/a	START	231086	n/a	LTP277	ltpFR	12	n/a	n/a	n/a	n/a	n/a	n/a	n/a	n/a	n/a	n/a	n/a	n/a	n/a	n/a	n/a
463.342	n/a	PROB	231671	n/a	LTP277	ltpFR	12	n/a	n/a	n/a	n/a	n/a	n/a	14	3	5	6	n/a	n/a	n/a	n/a	n/a
465.384	n/a	PROB	232692	n/a	LTP277	ltpFR	12	n/a	n/a	n/a	n/a	n/a	n/a	17	9	2	6	n/a	n/a	n/a	n/a	n/a
470.172	n/a	STOP	235086	n/a	LTP277	ltpFR	12	n/a	n/a	n/a	n/a	n/a	n/a	n/a	n/a	n/a	n/a	n/a	n/a	n/a	n/a	n/a
471.156	n/a	WORD	235578	wordpools/wasnorm_wordpool_less_exclusions.txt	LTP277	ltpFR	12	1	0	MEDAL	885	n/a	0	n/a	0	0	0	1	0.412841796875	0.57763671875	lower	../fonts/zerothre.ttf
474.168	n/a	START	237084	n/a	LTP277	ltpFR	12	n/a	n/a	n/a	n/a	n/a	n/a	n/a	n/a	n/a	n/a	n/a	n/a	n/a	n/a	n/a
475.154	n/a	PROB	237577	n/a	LTP277	ltpFR	12	n/a	n/a	n/a	n/a	n/a	n/a	9	5	1	3	n/a	n/a	n/a	n/a	n/a
477.178	n/a	PROB	238589	n/a	LTP277	ltpFR	12	n/a	n/a	n/a	n/a	n/a	n/a	11	6	3	2	n/a	n/a	n/a	n/a	n/a
479.102	n/a	PROB	239551	n/a	LTP277	ltpFR	12	n/a	n/a	n/a	n/a	n/a	n/a	17	9	2	5	n/a	n/a	n/a	n/a	n/a
480.972	n/a	STOP	240486	n/a	LTP277	ltpFR	12	n/a	n/a	n/a	n/a	n/a	n/a	n/a	n/a	n/a	n/a	n/a	n/a	n/a	n/a	n/a
483.284	n/a	WORD	241642	wordpools/wasnorm_wordpool_less_exclusions.txt	LTP277	ltpFR	12	1	0	ALMOND	18	n/a	0	n/a	0	0	0	1	0.412841796875	0.57763671875	lower	../fonts/zerothre.ttf
486.298	n/a	START	243149	n/a	LTP277	ltpFR	12	n/a	n/a	n/a	n/a	n/a	n/a	n/a	n/a	n/a	n/a	n/a	n/a	n/a	n/a	n/a
487.268	n/a	PROB	243634	n/a	LTP277	ltpFR	12	n/a	n/a	n/a	n/a	n/a	n/a	17	9	5	3	n/a	n/a	n/a	n/a	n/a
489.96	n/a	PROB	244980	n/a	LTP277	ltpFR	12	n/a	n/a	n/a	n/a	n/a	n/a	16	3	4	9	n/a	n/a	n/a	n/a	n/a
492.1	n/a	PROB	246050	n/a	LTP277	ltpFR	12	n/a	n/a	n/a	n/a	n/a	n/a	10	7	2	1	n/a	n/a	n/a	n/a	n/a
494.172	n/a	STOP	247086	n/a	LTP277	ltpFR	12	n/a	n/a	n/a	n/a	n/a	n/a	n/a	n/a	n/a	n/a	n/a	n/a	n/a	n/a	n/a
495.498	n/a	WORD	247749	wordpools/wasnorm_wordpool_less_exclusions.txt	LTP277	ltpFR	12	1	0	BASKET	95	n/a	0	n/a	0	0	0	1	0.412841796875	0.57763671875	lower	../fonts/zerothre.ttf
498.51	n/a	START	249255	n/a	LTP277	ltpFR	12	n/a	n/a	n/a	n/a	n/a	n/a	n/a	n/a	n/a	n/a	n/a	n/a	n/a	n/a	n/a
499.512	n/a	PROB	249756	n/a	LTP277	ltpFR	12	n/a	n/a	n/a	n/a	n/a	n/a	19	3	7	9	n/a	n/a	n/a	n/a	n/a
501.238	n/a	PROB	250619	n/a	LTP277	ltpFR	12	n/a	n/a	n/a	n/a	n/a	n/a	22	9	4	9	n/a	n/a	n/a	n/a	n/a
504.132	n/a	PROB	252066	n/a	LTP277	ltpFR	12	n/a	n/a	n/a	n/a	n/a	n/a	15	6	1	8	n/a	n/a	n/a	n/a	n/a
505.748	n/a	STOP	252874	n/a	LTP277	ltpFR	12	n/a	n/a	n/a	n/a	n/a	n/a	n/a	n/a	n/a	n/a	n/a	n/a	n/a	n/a	n/a
508.316	n/a	REC_START	254158	n/a	LTP277	ltpFR	12	1	n/a	n/a	n/a	n/a	n/a	n/a	0	0	0	n/a	n/a	n/a	n/a	n/a
509.146	n/a	REC_WORD	254573	wordpools/wasnorm_wordpool_less_exclusions.txt	LTP277	ltpFR	12	1	0	BASKET	95	n/a	0	n/a	0	0	0	n/a	n/a	n/a	n/a	n/a
517.208	n/a	REC_WORD	258604	wordpools/wasnorm_wordpool_less_exclusions.txt	LTP277	ltpFR	12	1	0	IRON	744	n/a	0	n/a	0	0	0	n/a	n/a	n/a	n/a	n/a
517.566	n/a	REC_WORD	258783	wordpools/wasnorm_wordpool_less_exclusions.txt	LTP277	ltpFR	12	1	0	MEDAL	885	n/a	0	n/a	0	0	0	n/a	n/a	n/a	n/a	n/a
520.366	n/a	REC_WORD_VV	260183	wordpools/wasnorm_wordpool_less_exclusions.txt	LTP277	ltpFR	12	1	n/a	<>	-1	n/a	n/a	n/a	0	0	0	n/a	n/a	n/a	n/a	n/a
521.084	n/a	REC_WORD_VV	260542	wordpools/wasnorm_wordpool_less_exclusions.txt	LTP277	ltpFR	12	1	n/a	<>	-1	n/a	n/a	n/a	0	0	0	n/a	n/a	n/a	n/a	n/a
521.682	n/a	REC_WORD	260841	wordpools/wasnorm_wordpool_less_exclusions.txt	LTP277	ltpFR	12	1	0	DIRECTOR	471	n/a	1	n/a	0	0	0	n/a	n/a	n/a	n/a	n/a
522.682	n/a	REC_WORD_VV	261341	wordpools/wasnorm_wordpool_less_exclusions.txt	LTP277	ltpFR	12	1	n/a	<>	-1	n/a	n/a	n/a	0	0	0	n/a	n/a	n/a	n/a	n/a
522.82	n/a	REC_WORD	261410	wordpools/wasnorm_wordpool_less_exclusions.txt	LTP277	ltpFR	12	1	0	PRODUCER	1129	n/a	1	n/a	0	0	0	n/a	n/a	n/a	n/a	n/a
530.878	n/a	REC_WORD	265439	wordpools/wasnorm_wordpool_less_exclusions.txt	LTP277	ltpFR	12	1	0	PAGE	1001	n/a	0	n/a	0	0	0	n/a	n/a	n/a	n/a	n/a
532.514	n/a	REC_WORD	266257	wordpools/wasnorm_wordpool_less_exclusions.txt	LTP277	ltpFR	12	1	0	BOLT	146	n/a	0	n/a	0	0	0	n/a	n/a	n/a	n/a	n/a
534.216	n/a	REC_WORD	267108	wordpools/wasnorm_wordpool_less_exclusions.txt	LTP277	ltpFR	12	1	0	RAG	1160	n/a	0	n/a	0	0	0	n/a	n/a	n/a	n/a	n/a
535.268	n/a	REC_WORD	267634	wordpools/wasnorm_wordpool_less_exclusions.txt	LTP277	ltpFR	12	1	0	BELT	120	n/a	0	n/a	0	0	0	n/a	n/a	n/a	n/a	n/a
536.338	n/a	REC_WORD	268169	wordpools/wasnorm_wordpool_less_exclusions.txt	LTP277	ltpFR	12	1	0	FOX	598	n/a	0	n/a	0	0	0	n/a	n/a	n/a	n/a	n/a
538.482	n/a	REC_WORD	269241	wordpools/wasnorm_wordpool_less_exclusions.txt	LTP277	ltpFR	12	1	0	SCAPEGOAT	1244	n/a	0	n/a	0	0	0	n/a	n/a	n/a	n/a	n/a
557.418	n/a	REC_WORD	278709	wordpools/wasnorm_wordpool_less_exclusions.txt	LTP277	ltpFR	12	1	0	LINT	826	n/a	0	n/a	0	0	0	n/a	n/a	n/a	n/a	n/a
558.282	n/a	REC_WORD	279141	wordpools/wasnorm_wordpool_less_exclusions.txt	LTP277	ltpFR	12	1	0	TREASURE	1500	n/a	0	n/a	0	0	0	n/a	n/a	n/a	n/a	n/a
598.426	n/a	WORD	299213	wordpools/wasnorm_wordpool_less_exclusions.txt	LTP277	ltpFR	12	2	1	GOAT	644	n/a	1	n/a	0	0	0	0	0.5869140625	0.422607421875	upper	../fonts/amplitud.ttf
602.49	n/a	WORD	301245	wordpools/wasnorm_wordpool_less_exclusions.txt	LTP277	ltpFR	12	2	1	BUN	197	n/a	0	n/a	0	0	0	0	0.5869140625	0.422607421875	upper	../fonts/amplitud.ttf
606.472	n/a	WORD	303236	wordpools/wasnorm_wordpool_less_exclusions.txt	LTP277	ltpFR	12	2	1	TAPE	1433	n/a	0	n/a	0	0	0	0	0.5869140625	0.422607421875	upper	../fonts/amplitud.ttf
610.504	n/a	WORD	305252	wordpools/wasnorm_wordpool_less_exclusions.txt	LTP277	ltpFR	12	2	1	TIE	1466	n/a	0	n/a	0	0	0	0	0.5869140625	0.422607421875	upper	../fonts/amplitud.ttf
614.454	n/a	WORD	307227	wordpools/wasnorm_wordpool_less_exclusions.txt	LTP277	ltpFR	12	2	0	OTTER	986	n/a	0	n/a	0	0	0	1	0.412841796875	0.57763671875	lower	../fonts/zerothre.ttf
618.586	n/a	WORD	309293	wordpools/wasnorm_wordpool_less_exclusions.txt	LTP277	ltpFR	12	2	0	MONGOOSE	909	n/a	1	n/a	0	0	0	1	0.412841796875	0.57763671875	lower	../fonts/zerothre.ttf
622.584	n/a	WORD	311292	wordpools/wasnorm_wordpool_less_exclusions.txt	LTP277	ltpFR	12	2	0	CARTON	251	n/a	1	n/a	0	0	0	1	0.412841796875	0.57763671875	lower	../fonts/zerothre.ttf
626.8	n/a	WORD	313400	wordpools/wasnorm_wordpool_less_exclusions.txt	LTP277	ltpFR	12	2	0	WATERFALL	1595	n/a	1	n/a	0	0	0	1	0.412841796875	0.57763671875	lower	../fonts/zerothre.ttf
630.866	n/a	WORD	315433	wordpools/wasnorm_wordpool_less_exclusions.txt	LTP277	ltpFR	12	2	1	LIGHTNING	820	n/a	1	n/a	0	0	0	0	0.5869140625	0.422607421875	upper	../fonts/amplitud.ttf
635.082	n/a	WORD	317541	wordpools/wasnorm_wordpool_less_exclusions.txt	LTP277	ltpFR	12	2	1	COAT	333	n/a	0	n/a	0	0	0	0	0.5869140625	0.422607421875	upper	../fonts/amplitud.ttf
638.998	n/a	WORD	319499	wordpools/wasnorm_wordpool_less_exclusions.txt	LTP277	ltpFR	12	2	0	CELLO	268	n/a	0	n/a	0	0	0	1	0.412841796875	0.57763671875	lower	../fonts/zerothre.ttf
643.162	n/a	WORD	321581	wordpools/wasnorm_wordpool_less_exclusions.txt	LTP277	ltpFR	12	2	0	CAPTAIN	239	n/a	1	n/a	0	0	0	1	0.412841796875	0.57763671875	lower	../fonts/zerothre.ttf
647.378	n/a	WORD	323689	wordpools/wasnorm_wordpool_less_exclusions.txt	LTP277	ltpFR	12	2	0	CARRIAGE	248	n/a	1	n/a	0	0	0	1	0.412841796875	0.57763671875	lower	../fonts/zerothre.ttf
651.528	n/a	WORD	325764	wordpools/wasnorm_wordpool_less_exclusions.txt	LTP277	ltpFR	12	2	0	ZEBRA	1635	n/a	1	n/a	0	0	0	1	0.412841796875	0.57763671875	lower	../fonts/zerothre.ttf
655.626	n/a	WORD	327813	wordpools/wasnorm_wordpool_less_exclusions.txt	LTP277	ltpFR	12	2	1	CANOE	233	n/a	1	n/a	0	0	0	0	0.5869140625	0.422607421875	upper	../fonts/amplitud.ttf
659.81	n/a	WORD	329905	wordpools/wasnorm_wordpool_less_exclusions.txt	LTP277	ltpFR	12	2	1	NOMAD	955	n/a	0	n/a	0	0	0	0	0.5869140625	0.422607421875	upper	../fonts/amplitud.ttf
662.822	n/a	START	331411	n/a	LTP277	ltpFR	12	n/a	n/a	n/a	n/a	n/a	n/a	n/a	n/a	n/a	n/a	n/a	n/a	n/a	n/a	n/a
663.674	n/a	PROB	331837	n/a	LTP277	ltpFR	12	n/a	n/a	n/a	n/a	n/a	n/a	17	6	6	5	n/a	n/a	n/a	n/a	n/a
665.432	n/a	PROB	332716	n/a	LTP277	ltpFR	12	n/a	n/a	n/a	n/a	n/a	n/a	14	9	3	2	n/a	n/a	n/a	n/a	n/a
666.92	n/a	PROB	333460	n/a	LTP277	ltpFR	12	n/a	n/a	n/a	n/a	n/a	n/a	15	5	8	2	n/a	n/a	n/a	n/a	n/a
669.532	n/a	STOP	334766	n/a	LTP277	ltpFR	12	n/a	n/a	n/a	n/a	n/a	n/a	n/a	n/a	n/a	n/a	n/a	n/a	n/a	n/a	n/a
672.626	n/a	REC_START	336313	n/a	LTP277	ltpFR	12	2	n/a	n/a	n/a	n/a	n/a	n/a	0	0	0	n/a	n/a	n/a	n/a	n/a
672.708	n/a	REC_WORD	336354	wordpools/wasnorm_wordpool_less_exclusions.txt	LTP277	ltpFR	12	2	1	LIGHTNING	820	n/a	1	n/a	0	0	0	n/a	n/a	n/a	n/a	n/a
673.394	n/a	REC_WORD	336697	wordpools/wasnorm_wordpool_less_exclusions.txt	LTP277	ltpFR	12	2	1	COAT	333	n/a	0	n/a	0	0	0	n/a	n/a	n/a	n/a	n/a
673.974	n/a	REC_WORD	336987	wordpools/wasnorm_wordpool_less_exclusions.txt	LTP277	ltpFR	12	2	0	CARRIAGE	248	n/a	1	n/a	0	0	0	n/a	n/a	n/a	n/a	n/a
674.624	n/a	REC_WORD	337312	wordpools/wasnorm_wordpool_less_exclusions.txt	LTP277	ltpFR	12	2	0	CELLO	268	n/a	0	n/a	0	0	0	n/a	n/a	n/a	n/a	n/a
675.294	n/a	REC_WORD	337647	wordpools/wasnorm_wordpool_less_exclusions.txt	LTP277	ltpFR	12	2	0	CAPTAIN	239	n/a	1	n/a	0	0	0	n/a	n/a	n/a	n/a	n/a
677.296	n/a	REC_WORD	338648	wordpools/wasnorm_wordpool_less_exclusions.txt	LTP277	ltpFR	12	2	1	NOMAD	955	n/a	0	n/a	0	0	0	n/a	n/a	n/a	n/a	n/a
679.088	n/a	REC_WORD_VV	339544	wordpools/wasnorm_wordpool_less_exclusions.txt	LTP277	ltpFR	12	2	n/a	<>	-1	n/a	n/a	n/a	0	0	0	n/a	n/a	n/a	n/a	n/a
691.072	n/a	REC_WORD	345536	wordpools/wasnorm_wordpool_less_exclusions.txt	LTP277	ltpFR	12	2	1	GOAT	644	n/a	1	n/a	0	0	0	n/a	n/a	n/a	n/a	n/a
691.738	n/a	REC_WORD	345869	wordpools/wasnorm_wordpool_less_exclusions.txt	LTP277	ltpFR	12	2	1	BUN	197	n/a	0	n/a	0	0	0	n/a	n/a	n/a	n/a	n/a
695.4	n/a	REC_WORD	347700	wordpools/wasnorm_wordpool_less_exclusions.txt	LTP277	ltpFR	12	2	1	TAPE	1433	n/a	0	n/a	0	0	0	n/a	n/a	n/a	n/a	n/a
715.358	n/a	REC_WORD	357679	wordpools/wasnorm_wordpool_less_exclusions.txt	LTP277	ltpFR	12	2	0	MONGOOSE	909	n/a	1	n/a	0	0	0	n/a	n/a	n/a	n/a	n/a
720.066	n/a	REC_WORD	360033	wordpools/wasnorm_wordpool_less_exclusions.txt	LTP277	ltpFR	12	2	0	CARTON	251	n/a	1	n/a	0	0	0	n/a	n/a	n/a	n/a	n/a
721.214	n/a	REC_WORD	360607	wordpools/wasnorm_wordpool_less_exclusions.txt	LTP277	ltpFR	12	2	0	WATERFALL	1595	n/a	1	n/a	0	0	0	n/a	n/a	n/a	n/a	n/a
724.182	n/a	REC_WORD	362091	wordpools/wasnorm_wordpool_less_exclusions.txt	LTP277	ltpFR	12	2	1	LIGHTNING	820	n/a	1	n/a	0	0	0	n/a	n/a	n/a	n/a	n/a
765.9	n/a	WORD	382950	wordpools/wasnorm_wordpool_less_exclusions.txt	LTP277	ltpFR	12	3	1	SALESMAN	1225	n/a	1	n/a	0	0	0	0	0.5869140625	0.422607421875	upper	../fonts/amplitud.ttf
769.932	n/a	WORD	384966	wordpools/wasnorm_wordpool_less_exclusions.txt	LTP277	ltpFR	12	3	1	BUGGY	188	n/a	1	n/a	0	0	0	0	0.5869140625	0.422607421875	upper	../fonts/amplitud.ttf
773.88	n/a	WORD	386940	wordpools/wasnorm_wordpool_less_exclusions.txt	LTP277	ltpFR	12	3	1	PADDING	999	n/a	1	n/a	0	0	0	0	0.5869140625	0.422607421875	upper	../fonts/amplitud.ttf
778.028	n/a	WORD	389014	wordpools/wasnorm_wordpool_less_exclusions.txt	LTP277	ltpFR	12	3	1	DANDELION	438	n/a	1	n/a	0	0	0	0	0.5869140625	0.422607421875	upper	../fonts/amplitud.ttf
781.894	n/a	WORD	390947	wordpools/wasnorm_wordpool_less_exclusions.txt	LTP277	ltpFR	12	3	1	TELESCOPE	1446	n/a	0	n/a	0	0	0	0	0.5869140625	0.422607421875	upper	../fonts/amplitud.ttf
785.858	n/a	WORD	392929	wordpools/wasnorm_wordpool_less_exclusions.txt	LTP277	ltpFR	12	3	1	ACTRESS	6	n/a	0	n/a	0	0	0	0	0.5869140625	0.422607421875	upper	../fonts/amplitud.ttf
789.806	n/a	WORD	394903	wordpools/wasnorm_wordpool_less_exclusions.txt	LTP277	ltpFR	12	3	1	ANIMAL	23	n/a	1	n/a	0	0	0	0	0.5869140625	0.422607421875	upper	../fonts/amplitud.ttf
793.856	n/a	WORD	396928	wordpools/wasnorm_wordpool_less_exclusions.txt	LTP277	ltpFR	12	3	1	COYOTE	396	n/a	1	n/a	0	0	0	0	0.5869140625	0.422607421875	upper	../fonts/amplitud.ttf
797.988	n/a	WORD	398994	wordpools/wasnorm_wordpool_less_exclusions.txt	LTP277	ltpFR	12	3	1	TUBE	1516	n/a	0	n/a	0	0	0	0	0.5869140625	0.422607421875	upper	../fonts/amplitud.ttf
801.82	n/a	WORD	400910	wordpools/wasnorm_wordpool_less_exclusions.txt	LTP277	ltpFR	12	3	1	CUSTOMER	430	n/a	1	n/a	0	0	0	0	0.5869140625	0.422607421875	upper	../fonts/amplitud.ttf
805.766	n/a	WORD	402883	wordpools/wasnorm_wordpool_less_exclusions.txt	LTP277	ltpFR	12	3	1	GREASE	660	n/a	1	n/a	0	0	0	0	0.5869140625	0.422607421875	upper	../fonts/amplitud.ttf
809.95	n/a	WORD	404975	wordpools/wasnorm_wordpool_less_exclusions.txt	LTP277	ltpFR	12	3	1	FAUCET	555	n/a	0	n/a	0	0	0	0	0.5869140625	0.422607421875	upper	../fonts/amplitud.ttf
814.15	n/a	WORD	407075	wordpools/wasnorm_wordpool_less_exclusions.txt	LTP277	ltpFR	12	3	1	LOLLIPOP	842	n/a	0	n/a	0	0	0	0	0.5869140625	0.422607421875	upper	../fonts/amplitud.ttf
818.266	n/a	WORD	409133	wordpools/wasnorm_wordpool_less_exclusions.txt	LTP277	ltpFR	12	3	1	BENCH	121	n/a	0	n/a	0	0	0	0	0.5869140625	0.422607421875	upper	../fonts/amplitud.ttf
822.398	n/a	WORD	411199	wordpools/wasnorm_wordpool_less_exclusions.txt	LTP277	ltpFR	12	3	1	FOREST	593	n/a	0	n/a	0	0	0	0	0.5869140625	0.422607421875	upper	../fonts/amplitud.ttf
826.264	n/a	WORD	413132	wordpools/wasnorm_wordpool_less_exclusions.txt	LTP277	ltpFR	12	3	1	WILDERNESS	1610	n/a	1	n/a	0	0	0	0	0.5869140625	0.422607421875	upper	../fonts/amplitud.ttf
829.274	n/a	START	414637	n/a	LTP277	ltpFR	12	n/a	n/a	n/a	n/a	n/a	n/a	n/a	n/a	n/a	n/a	n/a	n/a	n/a	n/a	n/a
830.144	n/a	PROB	415072	n/a	LTP277	ltpFR	12	n/a	n/a	n/a	n/a	n/a	n/a	13	4	7	2	n/a	n/a	n/a	n/a	n/a
833.02	n/a	PROB	416510	n/a	LTP277	ltpFR	12	n/a	n/a	n/a	n/a	n/a	n/a	15	3	8	4	n/a	n/a	n/a	n/a	n/a
834.946	n/a	PROB	417473	n/a	LTP277	ltpFR	12	n/a	n/a	n/a	n/a	n/a	n/a	20	8	7	5	n/a	n/a	n/a	n/a	n/a
836.548	n/a	STOP	418274	n/a	LTP277	ltpFR	12	n/a	n/a	n/a	n/a	n/a	n/a	n/a	n/a	n/a	n/a	n/a	n/a	n/a	n/a	n/a
839.164	n/a	REC_START	419582	n/a	LTP277	ltpFR	12	3	n/a	n/a	n/a	n/a	n/a	n/a	0	0	0	n/a	n/a	n/a	n/a	n/a
839.24	n/a	REC_WORD	419620	wordpools/wasnorm_wordpool_less_exclusions.txt	LTP277	ltpFR	12	3	1	FAUCET	555	n/a	0	n/a	0	0	0	n/a	n/a	n/a	n/a	n/a
839.722	n/a	REC_WORD	419861	wordpools/wasnorm_wordpool_less_exclusions.txt	LTP277	ltpFR	12	3	1	LOLLIPOP	842	n/a	0	n/a	0	0	0	n/a	n/a	n/a	n/a	n/a
840.484	n/a	REC_WORD	420242	wordpools/wasnorm_wordpool_less_exclusions.txt	LTP277	ltpFR	12	3	1	BENCH	121	n/a	0	n/a	0	0	0	n/a	n/a	n/a	n/a	n/a
840.874	n/a	REC_WORD	420437	wordpools/wasnorm_wordpool_less_exclusions.txt	LTP277	ltpFR	12	3	1	FOREST	593	n/a	0	n/a	0	0	0	n/a	n/a	n/a	n/a	n/a
841.482	n/a	REC_WORD	420741	wordpools/wasnorm_wordpool_less_exclusions.txt	LTP277	ltpFR	12	3	1	WILDERNESS	1610	n/a	1	n/a	0	0	0	n/a	n/a	n/a	n/a	n/a
842.566	n/a	REC_WORD_VV	421283	wordpools/wasnorm_wordpool_less_exclusions.txt	LTP277	ltpFR	12	3	n/a	<>	-1	n/a	n/a	n/a	0	0	0	n/a	n/a	n/a	n/a	n/a
844.238	n/a	REC_WORD	422119	wordpools/wasnorm_wordpool_less_exclusions.txt	LTP277	ltpFR	12	3	1	SALESMAN	1225	n/a	1	n/a	0	0	0	n/a	n/a	n/a	n/a	n/a
846.004	n/a	REC_WORD_VV	423002	wordpools/wasnorm_wordpool_less_exclusions.txt	LTP277	ltpFR	12	3	n/a	<>	-1	n/a	n/a	n/a	0	0	0	n/a	n/a	n/a	n/a	n/a
846.468	n/a	REC_WORD	423234	wordpools/wasnorm_wordpool_less_exclusions.txt	LTP277	ltpFR	12	3	1	BUGGY	188	n/a	1	n/a	0	0	0	n/a	n/a	n/a	n/a	n/a
847.696	n/a	REC_WORD	423848	wordpools/wasnorm_wordpool_less_exclusions.txt	LTP277	ltpFR	12	3	1	PADDING	999	n/a	1	n/a	0	0	0	n/a	n/a	n/a	n/a	n/a
848.944	n/a	REC_WORD	424472	wordpools/wasnorm_wordpool_less_exclusions.txt	LTP277	ltpFR	12	3	1	TELESCOPE	1446	n/a	0	n/a	0	0	0	n/a	n/a	n/a	n/a	n/a
849.952	n/a	REC_WORD	424976	wordpools/wasnorm_wordpool_less_exclusions.txt	LTP277	ltpFR	12	3	1	ACTRESS	6	n/a	0	n/a	0	0	0	n/a	n/a	n/a	n/a	n/a
850.868	n/a	REC_WORD	425434	wordpools/wasnorm_wordpool_less_exclusions.txt	LTP277	ltpFR	12	3	1	ANIMAL	23	n/a	1	n/a	0	0	0	n/a	n/a	n/a	n/a	n/a
851.722	n/a	REC_WORD	425861	wordpools/wasnorm_wordpool_less_exclusions.txt	LTP277	ltpFR	12	3	1	COYOTE	396	n/a	1	n/a	0	0	0	n/a	n/a	n/a	n/a	n/a
858.304	n/a	REC_WORD	429152	wordpools/wasnorm_wordpool_less_exclusions.txt	LTP277	ltpFR	12	3	1	CUSTOMER	430	n/a	1	n/a	0	0	0	n/a	n/a	n/a	n/a	n/a
861.87	n/a	REC_WORD	430935	wordpools/wasnorm_wordpool_less_exclusions.txt	LTP277	ltpFR	12	3	1	TUBE	1516	n/a	0	n/a	0	0	0	n/a	n/a	n/a	n/a	n/a
875.982	n/a	REC_WORD_VV	437991	wordpools/wasnorm_wordpool_less_exclusions.txt	LTP277	ltpFR	12	3	n/a	<>	-1	n/a	n/a	n/a	0	0	0	n/a	n/a	n/a	n/a	n/a
933.406	n/a	START	466703	n/a	LTP277	ltpFR	12	n/a	n/a	n/a	n/a	n/a	n/a	n/a	n/a	n/a	n/a	n/a	n/a	n/a	n/a	n/a
934.912	n/a	PROB	467456	n/a	LTP277	ltpFR	12	n/a	n/a	n/a	n/a	n/a	n/a	16	2	5	9	n/a	n/a	n/a	n/a	n/a
936.952	n/a	PROB	468476	n/a	LTP277	ltpFR	12	n/a	n/a	n/a	n/a	n/a	n/a	14	8	2	4	n/a	n/a	n/a	n/a	n/a
938.324	n/a	PROB	469162	n/a	LTP277	ltpFR	12	n/a	n/a	n/a	n/a	n/a	n/a	17	4	8	5	n/a	n/a	n/a	n/a	n/a
940.414	n/a	PROB	470207	n/a	LTP277	ltpFR	12	n/a	n/a	n/a	n/a	n/a	n/a	17	9	7	4	n/a	n/a	n/a	n/a	n/a
942.656	n/a	PROB	471328	n/a	LTP277	ltpFR	12	n/a	n/a	n/a	n/a	n/a	n/a	19	5	6	8	n/a	n/a	n/a	n/a	n/a
944.53	n/a	PROB	472265	n/a	LTP277	ltpFR	12	n/a	n/a	n/a	n/a	n/a	n/a	18	6	5	7	n/a	n/a	n/a	n/a	n/a
946.07	n/a	PROB	473035	n/a	LTP277	ltpFR	12	n/a	n/a	n/a	n/a	n/a	n/a	17	5	8	4	n/a	n/a	n/a	n/a	n/a
949.406	n/a	STOP	474703	n/a	LTP277	ltpFR	12	n/a	n/a	n/a	n/a	n/a	n/a	n/a	n/a	n/a	n/a	n/a	n/a	n/a	n/a	n/a
950.57	n/a	WORD	475285	wordpools/wasnorm_wordpool_less_exclusions.txt	LTP277	ltpFR	12	4	0	BROCCOLI	176	n/a	0	n/a	0	0	0	1	0.412841796875	0.57763671875	lower	../fonts/zerothre.ttf
953.584	n/a	START	476792	n/a	LTP277	ltpFR	12	n/a	n/a	n/a	n/a	n/a	n/a	n/a	n/a	n/a	n/a	n/a	n/a	n/a	n/a	n/a
954.57	n/a	PROB	477285	n/a	LTP277	ltpFR	12	n/a	n/a	n/a	n/a	n/a	n/a	20	9	9	2	n/a	n/a	n/a	n/a	n/a
955.976	n/a	PROB	477988	n/a	LTP277	ltpFR	12	n/a	n/a	n/a	n/a	n/a	n/a	22	5	8	9	n/a	n/a	n/a	n/a	n/a
958.886	n/a	PROB	479443	n/a	LTP277	ltpFR	12	n/a	n/a	n/a	n/a	n/a	n/a	16	4	7	5	n/a	n/a	n/a	n/a	n/a
960.476	n/a	PROB	480238	n/a	LTP277	ltpFR	12	n/a	n/a	n/a	n/a	n/a	n/a	18	7	2	9	n/a	n/a	n/a	n/a	n/a
962.718	n/a	PROB	481359	n/a	LTP277	ltpFR	12	n/a	n/a	n/a	n/a	n/a	n/a	11	3	5	3	n/a	n/a	n/a	n/a	n/a
966.714	n/a	PROB	483357	n/a	LTP277	ltpFR	12	n/a	n/a	n/a	n/a	n/a	n/a	15	7	2	6	n/a	n/a	n/a	n/a	n/a
968.94	n/a	STOP	484470	n/a	LTP277	ltpFR	12	n/a	n/a	n/a	n/a	n/a	n/a	n/a	n/a	n/a	n/a	n/a	n/a	n/a	n/a	n/a
970.53	n/a	WORD	485265	wordpools/wasnorm_wordpool_less_exclusions.txt	LTP277	ltpFR	12	4	0	PICKLE	1059	n/a	0	n/a	0	0	0	1	0.412841796875	0.57763671875	lower	../fonts/zerothre.ttf
973.542	n/a	START	486771	n/a	LTP277	ltpFR	12	n/a	n/a	n/a	n/a	n/a	n/a	n/a	n/a	n/a	n/a	n/a	n/a	n/a	n/a	n/a
974.614	n/a	PROB	487307	n/a	LTP277	ltpFR	12	n/a	n/a	n/a	n/a	n/a	n/a	13	2	3	8	n/a	n/a	n/a	n/a	n/a
976.454	n/a	PROB	488227	n/a	LTP277	ltpFR	12	n/a	n/a	n/a	n/a	n/a	n/a	8	2	2	6	n/a	n/a	n/a	n/a	n/a
977.89	n/a	PROB	488945	n/a	LTP277	ltpFR	12	n/a	n/a	n/a	n/a	n/a	n/a	19	2	8	9	n/a	n/a	n/a	n/a	n/a
979.866	n/a	PROB	489933	n/a	LTP277	ltpFR	12	n/a	n/a	n/a	n/a	n/a	n/a	15	7	4	4	n/a	n/a	n/a	n/a	n/a
981.556	n/a	PROB	490778	n/a	LTP277	ltpFR	12	n/a	n/a	n/a	n/a	n/a	n/a	18	3	7	8	n/a	n/a	n/a	n/a	n/a
983.562	n/a	PROB	491781	n/a	LTP277	ltpFR	12	n/a	n/a	n/a	n/a	n/a	n/a	16	2	8	6	n/a	n/a	n/a	n/a	n/a
986.424	n/a	PROB	493212	n/a	LTP277	ltpFR	12	n/a	n/a	n/a	n/a	n/a	n/a	20	9	3	8	n/a	n/a	n/a	n/a	n/a
989.038	n/a	STOP	494519	n/a	LTP277	ltpFR	12	n/a	n/a	n/a	n/a	n/a	n/a	n/a	n/a	n/a	n/a	n/a	n/a	n/a	n/a	n/a
990.608	n/a	WORD	495304	wordpools/wasnorm_wordpool_less_exclusions.txt	LTP277	ltpFR	12	4	1	BLOSSOM	138	n/a	1	n/a	0	0	0	0	0.5869140625	0.422607421875	upper	../fonts/amplitud.ttf
993.62	n/a	START	496810	n/a	LTP277	ltpFR	12	n/a	n/a	n/a	n/a	n/a	n/a	n/a	n/a	n/a	n/a	n/a	n/a	n/a	n/a	n/a
994.556	n/a	PROB	497278	n/a	LTP277	ltpFR	12	n/a	n/a	n/a	n/a	n/a	n/a	19	9	2	8	n/a	n/a	n/a	n/a	n/a
996.278	n/a	PROB	498139	n/a	LTP277	ltpFR	12	n/a	n/a	n/a	n/a	n/a	n/a	17	7	5	5	n/a	n/a	n/a	n/a	n/a
998.186	n/a	PROB	499093	n/a	LTP277	ltpFR	12	n/a	n/a	n/a	n/a	n/a	n/a	11	3	6	2	n/a	n/a	n/a	n/a	n/a
1000.746	n/a	PROB	500373	n/a	LTP277	ltpFR	12	n/a	n/a	n/a	n/a	n/a	n/a	11	7	1	3	n/a	n/a	n/a	n/a	n/a
1003.52	n/a	PROB	501760	n/a	LTP277	ltpFR	12	n/a	n/a	n/a	n/a	n/a	n/a	4	1	2	1	n/a	n/a	n/a	n/a	n/a
1004.628	n/a	PROB	502314	n/a	LTP277	ltpFR	12	n/a	n/a	n/a	n/a	n/a	n/a	10	3	6	1	n/a	n/a	n/a	n/a	n/a
1006.768	n/a	PROB	503384	n/a	LTP277	ltpFR	12	n/a	n/a	n/a	n/a	n/a	n/a	19	8	2	9	n/a	n/a	n/a	n/a	n/a
1008.96	n/a	STOP	504480	n/a	LTP277	ltpFR	12	n/a	n/a	n/a	n/a	n/a	n/a	n/a	n/a	n/a	n/a	n/a	n/a	n/a	n/a	n/a
1010.734	n/a	WORD	505367	wordpools/wasnorm_wordpool_less_exclusions.txt	LTP277	ltpFR	12	4	1	SUIT	1402	n/a	0	n/a	0	0	0	0	0.5869140625	0.422607421875	upper	../fonts/amplitud.ttf
1013.748	n/a	START	506874	n/a	LTP277	ltpFR	12	n/a	n/a	n/a	n/a	n/a	n/a	n/a	n/a	n/a	n/a	n/a	n/a	n/a	n/a	n/a
1014.9	n/a	PROB	507450	n/a	LTP277	ltpFR	12	n/a	n/a	n/a	n/a	n/a	n/a	15	1	7	7	n/a	n/a	n/a	n/a	n/a
1018.214	n/a	PROB	509107	n/a	LTP277	ltpFR	12	n/a	n/a	n/a	n/a	n/a	n/a	13	8	1	4	n/a	n/a	n/a	n/a	n/a
1022.178	n/a	PROB	511089	n/a	LTP277	ltpFR	12	n/a	n/a	n/a	n/a	n/a	n/a	14	3	2	9	n/a	n/a	n/a	n/a	n/a
1026.328	n/a	PROB	513164	n/a	LTP277	ltpFR	12	n/a	n/a	n/a	n/a	n/a	n/a	13	5	6	2	n/a	n/a	n/a	n/a	n/a
1028.248	n/a	STOP	514124	n/a	LTP277	ltpFR	12	n/a	n/a	n/a	n/a	n/a	n/a	n/a	n/a	n/a	n/a	n/a	n/a	n/a	n/a	n/a
1030.878	n/a	WORD	515439	wordpools/wasnorm_wordpool_less_exclusions.txt	LTP277	ltpFR	12	4	1	CATERPILLAR	259	n/a	1	n/a	0	0	0	0	0.5869140625	0.422607421875	upper	../fonts/amplitud.ttf
1033.89	n/a	START	516945	n/a	LTP277	ltpFR	12	n/a	n/a	n/a	n/a	n/a	n/a	n/a	n/a	n/a	n/a	n/a	n/a	n/a	n/a	n/a
1034.744	n/a	PROB	517372	n/a	LTP277	ltpFR	12	n/a	n/a	n/a	n/a	n/a	n/a	21	9	7	5	n/a	n/a	n/a	n/a	n/a
1037.42	n/a	PROB	518710	n/a	LTP277	ltpFR	12	n/a	n/a	n/a	n/a	n/a	n/a	13	1	9	3	n/a	n/a	n/a	n/a	n/a
1038.926	n/a	PROB	519463	n/a	LTP277	ltpFR	12	n/a	n/a	n/a	n/a	n/a	n/a	16	9	5	2	n/a	n/a	n/a	n/a	n/a
1042.238	n/a	PROB	521119	n/a	LTP277	ltpFR	12	n/a	n/a	n/a	n/a	n/a	n/a	15	5	7	3	n/a	n/a	n/a	n/a	n/a
1044.73	n/a	PROB	522365	n/a	LTP277	ltpFR	12	n/a	n/a	n/a	n/a	n/a	n/a	1	8	8	2	n/a	n/a	n/a	n/a	n/a
1049.892	n/a	STOP	524946	n/a	LTP277	ltpFR	12	n/a	n/a	n/a	n/a	n/a	n/a	n/a	n/a	n/a	n/a	n/a	n/a	n/a	n/a	n/a
1050.988	n/a	WORD	525494	wordpools/wasnorm_wordpool_less_exclusions.txt	LTP277	ltpFR	12	4	1	DISH	474	n/a	0	n/a	0	0	0	0	0.5869140625	0.422607421875	upper	../fonts/amplitud.ttf
1054.0	n/a	START	527000	n/a	LTP277	ltpFR	12	n/a	n/a	n/a	n/a	n/a	n/a	n/a	n/a	n/a	n/a	n/a	n/a	n/a	n/a	n/a
1055.07	n/a	PROB	527535	n/a	LTP277	ltpFR	12	n/a	n/a	n/a	n/a	n/a	n/a	12	4	1	7	n/a	n/a	n/a	n/a	n/a
1057.026	n/a	PROB	528513	n/a	LTP277	ltpFR	12	n/a	n/a	n/a	n/a	n/a	n/a	17	8	3	6	n/a	n/a	n/a	n/a	n/a
1059.418	n/a	PROB	529709	n/a	LTP277	ltpFR	12	n/a	n/a	n/a	n/a	n/a	n/a	13	9	3	1	n/a	n/a	n/a	n/a	n/a
1062.282	n/a	PROB	531141	n/a	LTP277	ltpFR	12	n/a	n/a	n/a	n/a	n/a	n/a	17	7	4	6	n/a	n/a	n/a	n/a	n/a
1066.95	n/a	PROB	533475	n/a	LTP277	ltpFR	12	n/a	n/a	n/a	n/a	n/a	n/a	14	3	7	4	n/a	n/a	n/a	n/a	n/a
1069.482	n/a	STOP	534741	n/a	LTP277	ltpFR	12	n/a	n/a	n/a	n/a	n/a	n/a	n/a	n/a	n/a	n/a	n/a	n/a	n/a	n/a	n/a
1071.016	n/a	WORD	535508	wordpools/wasnorm_wordpool_less_exclusions.txt	LTP277	ltpFR	12	4	1	TURKEY	1520	n/a	1	n/a	0	0	0	0	0.5869140625	0.422607421875	upper	../fonts/amplitud.ttf
1074.028	n/a	START	537014	n/a	LTP277	ltpFR	12	n/a	n/a	n/a	n/a	n/a	n/a	n/a	n/a	n/a	n/a	n/a	n/a	n/a	n/a	n/a
1074.862	n/a	PROB	537431	n/a	LTP277	ltpFR	12	n/a	n/a	n/a	n/a	n/a	n/a	11	5	2	4	n/a	n/a	n/a	n/a	n/a
1077.072	n/a	PROB	538536	n/a	LTP277	ltpFR	12	n/a	n/a	n/a	n/a	n/a	n/a	11	1	2	8	n/a	n/a	n/a	n/a	n/a
1079.732	n/a	PROB	539866	n/a	LTP277	ltpFR	12	n/a	n/a	n/a	n/a	n/a	n/a	16	4	7	5	n/a	n/a	n/a	n/a	n/a
1081.922	n/a	PROB	540961	n/a	LTP277	ltpFR	12	n/a	n/a	n/a	n/a	n/a	n/a	22	5	9	8	n/a	n/a	n/a	n/a	n/a
1085.938	n/a	PROB	542969	n/a	LTP277	ltpFR	12	n/a	n/a	n/a	n/a	n/a	n/a	5	2	1	2	n/a	n/a	n/a	n/a	n/a
1087.06	n/a	PROB	543530	n/a	LTP277	ltpFR	12	n/a	n/a	n/a	n/a	n/a	n/a	6	1	3	2	n/a	n/a	n/a	n/a	n/a
1088.996	n/a	STOP	544498	n/a	LTP277	ltpFR	12	n/a	n/a	n/a	n/a	n/a	n/a	n/a	n/a	n/a	n/a	n/a	n/a	n/a	n/a	n/a
1090.974	n/a	WORD	545487	wordpools/wasnorm_wordpool_less_exclusions.txt	LTP277	ltpFR	12	4	0	BEETLE	116	n/a	0	n/a	0	0	0	1	0.412841796875	0.57763671875	lower	../fonts/zerothre.ttf
1093.988	n/a	START	546994	n/a	LTP277	ltpFR	12	n/a	n/a	n/a	n/a	n/a	n/a	n/a	n/a	n/a	n/a	n/a	n/a	n/a	n/a	n/a
1095.09	n/a	PROB	547545	n/a	LTP277	ltpFR	12	n/a	n/a	n/a	n/a	n/a	n/a	15	5	5	5	n/a	n/a	n/a	n/a	n/a
1096.394	n/a	PROB	548197	n/a	LTP277	ltpFR	12	n/a	n/a	n/a	n/a	n/a	n/a	10	1	3	6	n/a	n/a	n/a	n/a	n/a
1098.87	n/a	PROB	549435	n/a	LTP277	ltpFR	12	n/a	n/a	n/a	n/a	n/a	n/a	20	5	9	6	n/a	n/a	n/a	n/a	n/a
1101.246	n/a	PROB	550623	n/a	LTP277	ltpFR	12	n/a	n/a	n/a	n/a	n/a	n/a	14	7	1	6	n/a	n/a	n/a	n/a	n/a
1103.656	n/a	PROB	551828	n/a	LTP277	ltpFR	12	n/a	n/a	n/a	n/a	n/a	n/a	15	8	5	2	n/a	n/a	n/a	n/a	n/a
1106.266	n/a	PROB	553133	n/a	LTP277	ltpFR	12	n/a	n/a	n/a	n/a	n/a	n/a	14	7	2	5	n/a	n/a	n/a	n/a	n/a
1108.74	n/a	STOP	554370	n/a	LTP277	ltpFR	12	n/a	n/a	n/a	n/a	n/a	n/a	n/a	n/a	n/a	n/a	n/a	n/a	n/a	n/a	n/a
1111.168	n/a	WORD	555584	wordpools/wasnorm_wordpool_less_exclusions.txt	LTP277	ltpFR	12	4	0	CAFE	216	n/a	1	n/a	0	0	0	1	0.412841796875	0.57763671875	lower	../fonts/zerothre.ttf
1114.18	n/a	START	557090	n/a	LTP277	ltpFR	12	n/a	n/a	n/a	n/a	n/a	n/a	n/a	n/a	n/a	n/a	n/a	n/a	n/a	n/a	n/a
1115.066	n/a	PROB	557533	n/a	LTP277	ltpFR	12	n/a	n/a	n/a	n/a	n/a	n/a	15	5	7	3	n/a	n/a	n/a	n/a	n/a
1118.262	n/a	PROB	559131	n/a	LTP277	ltpFR	12	n/a	n/a	n/a	n/a	n/a	n/a	19	6	4	9	n/a	n/a	n/a	n/a	n/a
1120.27	n/a	PROB	560135	n/a	LTP277	ltpFR	12	n/a	n/a	n/a	n/a	n/a	n/a	18	8	7	3	n/a	n/a	n/a	n/a	n/a
1123.048	n/a	PROB	561524	n/a	LTP277	ltpFR	12	n/a	n/a	n/a	n/a	n/a	n/a	21	7	7	7	n/a	n/a	n/a	n/a	n/a
1124.62	n/a	PROB	562310	n/a	LTP277	ltpFR	12	n/a	n/a	n/a	n/a	n/a	n/a	15	1	7	7	n/a	n/a	n/a	n/a	n/a
1126.576	n/a	PROB	563288	n/a	LTP277	ltpFR	12	n/a	n/a	n/a	n/a	n/a	n/a	13	5	1	7	n/a	n/a	n/a	n/a	n/a
1128.586	n/a	PROB	564293	n/a	LTP277	ltpFR	12	n/a	n/a	n/a	n/a	n/a	n/a	18	5	7	6	n/a	n/a	n/a	n/a	n/a
1130.126	n/a	STOP	565063	n/a	LTP277	ltpFR	12	n/a	n/a	n/a	n/a	n/a	n/a	n/a	n/a	n/a	n/a	n/a	n/a	n/a	n/a	n/a
1131.262	n/a	WORD	565631	wordpools/wasnorm_wordpool_less_exclusions.txt	LTP277	ltpFR	12	4	0	ELECTRON	522	n/a	0	n/a	0	0	0	1	0.412841796875	0.57763671875	lower	../fonts/zerothre.ttf
1134.274	n/a	START	567137	n/a	LTP277	ltpFR	12	n/a	n/a	n/a	n/a	n/a	n/a	n/a	n/a	n/a	n/a	n/a	n/a	n/a	n/a	n/a
1135.242	n/a	PROB	567621	n/a	LTP277	ltpFR	12	n/a	n/a	n/a	n/a	n/a	n/a	16	5	3	8	n/a	n/a	n/a	n/a	n/a
1137.084	n/a	PROB	568542	n/a	LTP277	ltpFR	12	n/a	n/a	n/a	n/a	n/a	n/a	10	4	2	4	n/a	n/a	n/a	n/a	n/a
1139.376	n/a	PROB	569688	n/a	LTP277	ltpFR	12	n/a	n/a	n/a	n/a	n/a	n/a	19	8	8	3	n/a	n/a	n/a	n/a	n/a
1141.684	n/a	PROB	570842	n/a	LTP277	ltpFR	12	n/a	n/a	n/a	n/a	n/a	n/a	11	5	2	4	n/a	n/a	n/a	n/a	n/a
1144.21	n/a	PROB	572105	n/a	LTP277	ltpFR	12	n/a	n/a	n/a	n/a	n/a	n/a	17	4	6	7	n/a	n/a	n/a	n/a	n/a
1146.888	n/a	PROB	573444	n/a	LTP277	ltpFR	12	n/a	n/a	n/a	n/a	n/a	n/a	13	6	4	3	n/a	n/a	n/a	n/a	n/a
1148.46	n/a	PROB	574230	n/a	LTP277	ltpFR	12	n/a	n/a	n/a	n/a	n/a	n/a	16	7	3	6	n/a	n/a	n/a	n/a	n/a
1149.75	n/a	STOP	574875	n/a	LTP277	ltpFR	12	n/a	n/a	n/a	n/a	n/a	n/a	n/a	n/a	n/a	n/a	n/a	n/a	n/a	n/a	n/a
1151.406	n/a	WORD	575703	wordpools/wasnorm_wordpool_less_exclusions.txt	LTP277	ltpFR	12	4	1	CHURCH	307	n/a	0	n/a	0	0	0	0	0.5869140625	0.422607421875	upper	../fonts/amplitud.ttf
1154.418	n/a	START	577209	n/a	LTP277	ltpFR	12	n/a	n/a	n/a	n/a	n/a	n/a	n/a	n/a	n/a	n/a	n/a	n/a	n/a	n/a	n/a
1155.622	n/a	PROB	577811	n/a	LTP277	ltpFR	12	n/a	n/a	n/a	n/a	n/a	n/a	16	3	5	8	n/a	n/a	n/a	n/a	n/a
1157.528	n/a	PROB	578764	n/a	LTP277	ltpFR	12	n/a	n/a	n/a	n/a	n/a	n/a	13	4	6	3	n/a	n/a	n/a	n/a	n/a
1161.51	n/a	PROB	580755	n/a	LTP277	ltpFR	12	n/a	n/a	n/a	n/a	n/a	n/a	14	2	8	4	n/a	n/a	n/a	n/a	n/a
1162.798	n/a	PROB	581399	n/a	LTP277	ltpFR	12	n/a	n/a	n/a	n/a	n/a	n/a	4	1	2	1	n/a	n/a	n/a	n/a	n/a
1164.204	n/a	PROB	582102	n/a	LTP277	ltpFR	12	n/a	n/a	n/a	n/a	n/a	n/a	22	9	5	8	n/a	n/a	n/a	n/a	n/a
1165.828	n/a	PROB	582914	n/a	LTP277	ltpFR	12	n/a	n/a	n/a	n/a	n/a	n/a	16	6	1	9	n/a	n/a	n/a	n/a	n/a
1170.4	n/a	STOP	585200	n/a	LTP277	ltpFR	12	n/a	n/a	n/a	n/a	n/a	n/a	n/a	n/a	n/a	n/a	n/a	n/a	n/a	n/a	n/a
1171.332	n/a	WORD	585666	wordpools/wasnorm_wordpool_less_exclusions.txt	LTP277	ltpFR	12	4	1	CROSS	413	n/a	0	n/a	0	0	0	0	0.5869140625	0.422607421875	upper	../fonts/amplitud.ttf
1174.344	n/a	START	587172	n/a	LTP277	ltpFR	12	n/a	n/a	n/a	n/a	n/a	n/a	n/a	n/a	n/a	n/a	n/a	n/a	n/a	n/a	n/a
1175.312	n/a	PROB	587656	n/a	LTP277	ltpFR	12	n/a	n/a	n/a	n/a	n/a	n/a	19	4	9	6	n/a	n/a	n/a	n/a	n/a
1177.454	n/a	PROB	588727	n/a	LTP277	ltpFR	12	n/a	n/a	n/a	n/a	n/a	n/a	15	1	9	5	n/a	n/a	n/a	n/a	n/a
1179.28	n/a	PROB	589640	n/a	LTP277	ltpFR	12	n/a	n/a	n/a	n/a	n/a	n/a	10	7	2	1	n/a	n/a	n/a	n/a	n/a
1181.204	n/a	PROB	590602	n/a	LTP277	ltpFR	12	n/a	n/a	n/a	n/a	n/a	n/a	10	4	2	4	n/a	n/a	n/a	n/a	n/a
1183.11	n/a	PROB	591555	n/a	LTP277	ltpFR	12	n/a	n/a	n/a	n/a	n/a	n/a	17	7	1	9	n/a	n/a	n/a	n/a	n/a
1185.066	n/a	PROB	592533	n/a	LTP277	ltpFR	12	n/a	n/a	n/a	n/a	n/a	n/a	15	9	2	4	n/a	n/a	n/a	n/a	n/a
1186.79	n/a	PROB	593395	n/a	LTP277	ltpFR	12	n/a	n/a	n/a	n/a	n/a	n/a	11	6	3	2	n/a	n/a	n/a	n/a	n/a
1188.396	n/a	PROB	594198	n/a	LTP277	ltpFR	12	n/a	n/a	n/a	n/a	n/a	n/a	10	5	3	2	n/a	n/a	n/a	n/a	n/a
1190.216	n/a	STOP	595108	n/a	LTP277	ltpFR	12	n/a	n/a	n/a	n/a	n/a	n/a	n/a	n/a	n/a	n/a	n/a	n/a	n/a	n/a	n/a
1191.208	n/a	WORD	595604	wordpools/wasnorm_wordpool_less_exclusions.txt	LTP277	ltpFR	12	4	1	SWING	1421	n/a	0	n/a	0	0	0	0	0.5869140625	0.422607421875	upper	../fonts/amplitud.ttf
1194.22	n/a	START	597110	n/a	LTP277	ltpFR	12	n/a	n/a	n/a	n/a	n/a	n/a	n/a	n/a	n/a	n/a	n/a	n/a	n/a	n/a	n/a
1195.356	n/a	PROB	597678	n/a	LTP277	ltpFR	12	n/a	n/a	n/a	n/a	n/a	n/a	9	1	6	2	n/a	n/a	n/a	n/a	n/a
1197.112	n/a	PROB	598556	n/a	LTP277	ltpFR	12	n/a	n/a	n/a	n/a	n/a	n/a	16	8	6	2	n/a	n/a	n/a	n/a	n/a
1199.722	n/a	PROB	599861	n/a	LTP277	ltpFR	12	n/a	n/a	n/a	n/a	n/a	n/a	12	2	2	8	n/a	n/a	n/a	n/a	n/a
1202.116	n/a	PROB	601058	n/a	LTP277	ltpFR	12	n/a	n/a	n/a	n/a	n/a	n/a	21	9	4	8	n/a	n/a	n/a	n/a	n/a
1205.212	n/a	PROB	602606	n/a	LTP277	ltpFR	12	n/a	n/a	n/a	n/a	n/a	n/a	19	5	9	5	n/a	n/a	n/a	n/a	n/a
1210.22	n/a	STOP	605110	n/a	LTP277	ltpFR	12	n/a	n/a	n/a	n/a	n/a	n/a	n/a	n/a	n/a	n/a	n/a	n/a	n/a	n/a	n/a
1211.368	n/a	WORD	605684	wordpools/wasnorm_wordpool_less_exclusions.txt	LTP277	ltpFR	12	4	0	PICNIC	1060	n/a	0	n/a	0	0	0	1	0.412841796875	0.57763671875	lower	../fonts/zerothre.ttf
1214.38	n/a	START	607190	n/a	LTP277	ltpFR	12	n/a	n/a	n/a	n/a	n/a	n/a	n/a	n/a	n/a	n/a	n/a	n/a	n/a	n/a	n/a
1215.434	n/a	PROB	607717	n/a	LTP277	ltpFR	12	n/a	n/a	n/a	n/a	n/a	n/a	8	5	1	2	n/a	n/a	n/a	n/a	n/a
1219.432	n/a	PROB	609716	n/a	LTP277	ltpFR	12	n/a	n/a	n/a	n/a	n/a	n/a	20	9	8	3	n/a	n/a	n/a	n/a	n/a
1221.706	n/a	PROB	610853	n/a	LTP277	ltpFR	12	n/a	n/a	n/a	n/a	n/a	n/a	7	2	2	3	n/a	n/a	n/a	n/a	n/a
1224.168	n/a	PROB	612084	n/a	LTP277	ltpFR	12	n/a	n/a	n/a	n/a	n/a	n/a	20	8	8	4	n/a	n/a	n/a	n/a	n/a
1226.04	n/a	PROB	613020	n/a	LTP277	ltpFR	12	n/a	n/a	n/a	n/a	n/a	n/a	13	3	7	3	n/a	n/a	n/a	n/a	n/a
1227.78	n/a	PROB	613890	n/a	LTP277	ltpFR	12	n/a	n/a	n/a	n/a	n/a	n/a	12	3	3	6	n/a	n/a	n/a	n/a	n/a
1229.722	n/a	STOP	614861	n/a	LTP277	ltpFR	12	n/a	n/a	n/a	n/a	n/a	n/a	n/a	n/a	n/a	n/a	n/a	n/a	n/a	n/a	n/a
1231.51	n/a	WORD	615755	wordpools/wasnorm_wordpool_less_exclusions.txt	LTP277	ltpFR	12	4	0	BUG	187	n/a	0	n/a	0	0	0	1	0.412841796875	0.57763671875	lower	../fonts/zerothre.ttf
1234.522	n/a	START	617261	n/a	LTP277	ltpFR	12	n/a	n/a	n/a	n/a	n/a	n/a	n/a	n/a	n/a	n/a	n/a	n/a	n/a	n/a	n/a
1235.71	n/a	PROB	617855	n/a	LTP277	ltpFR	12	n/a	n/a	n/a	n/a	n/a	n/a	18	1	9	8	n/a	n/a	n/a	n/a	n/a
1236.998	n/a	PROB	618499	n/a	LTP277	ltpFR	12	n/a	n/a	n/a	n/a	n/a	n/a	12	2	5	5	n/a	n/a	n/a	n/a	n/a
1238.622	n/a	PROB	619311	n/a	LTP277	ltpFR	12	n/a	n/a	n/a	n/a	n/a	n/a	11	3	4	4	n/a	n/a	n/a	n/a	n/a
1240.946	n/a	PROB	620473	n/a	LTP277	ltpFR	12	n/a	n/a	n/a	n/a	n/a	n/a	16	9	1	6	n/a	n/a	n/a	n/a	n/a
1242.452	n/a	PROB	621226	n/a	LTP277	ltpFR	12	n/a	n/a	n/a	n/a	n/a	n/a	7	2	4	1	n/a	n/a	n/a	n/a	n/a
1243.89	n/a	PROB	621945	n/a	LTP277	ltpFR	12	n/a	n/a	n/a	n/a	n/a	n/a	18	6	9	3	n/a	n/a	n/a	n/a	n/a
1245.512	n/a	PROB	622756	n/a	LTP277	ltpFR	12	n/a	n/a	n/a	n/a	n/a	n/a	17	8	8	1	n/a	n/a	n/a	n/a	n/a
1247.138	n/a	PROB	623569	n/a	LTP277	ltpFR	12	n/a	n/a	n/a	n/a	n/a	n/a	9	1	3	5	n/a	n/a	n/a	n/a	n/a
1249.324	n/a	STOP	624662	n/a	LTP277	ltpFR	12	n/a	n/a	n/a	n/a	n/a	n/a	n/a	n/a	n/a	n/a	n/a	n/a	n/a	n/a	n/a
1251.588	n/a	WORD	625794	wordpools/wasnorm_wordpool_less_exclusions.txt	LTP277	ltpFR	12	4	0	COMMUNITY	356	n/a	0	n/a	0	0	0	1	0.412841796875	0.57763671875	lower	../fonts/zerothre.ttf
1254.6	n/a	START	627300	n/a	LTP277	ltpFR	12	n/a	n/a	n/a	n/a	n/a	n/a	n/a	n/a	n/a	n/a	n/a	n/a	n/a	n/a	n/a
1255.638	n/a	PROB	627819	n/a	LTP277	ltpFR	12	n/a	n/a	n/a	n/a	n/a	n/a	21	7	6	8	n/a	n/a	n/a	n/a	n/a
1260.17	n/a	PROB	630085	n/a	LTP277	ltpFR	12	n/a	n/a	n/a	n/a	n/a	n/a	18	8	8	2	n/a	n/a	n/a	n/a	n/a
1261.944	n/a	PROB	630972	n/a	LTP277	ltpFR	12	n/a	n/a	n/a	n/a	n/a	n/a	11	6	1	4	n/a	n/a	n/a	n/a	n/a
1263.4	n/a	PROB	631700	n/a	LTP277	ltpFR	12	n/a	n/a	n/a	n/a	n/a	n/a	17	5	5	7	n/a	n/a	n/a	n/a	n/a
1264.672	n/a	PROB	632336	n/a	LTP277	ltpFR	12	n/a	n/a	n/a	n/a	n/a	n/a	18	4	7	9	n/a	n/a	n/a	n/a	n/a
1266.178	n/a	PROB	633089	n/a	LTP277	ltpFR	12	n/a	n/a	n/a	n/a	n/a	n/a	11	5	2	4	n/a	n/a	n/a	n/a	n/a
1267.934	n/a	PROB	633967	n/a	LTP277	ltpFR	12	n/a	n/a	n/a	n/a	n/a	n/a	19	4	9	5	n/a	n/a	n/a	n/a	n/a
1269.684	n/a	STOP	634842	n/a	LTP277	ltpFR	12	n/a	n/a	n/a	n/a	n/a	n/a	n/a	n/a	n/a	n/a	n/a	n/a	n/a	n/a	n/a
1272.518	n/a	REC_START	636259	n/a	LTP277	ltpFR	12	4	n/a	n/a	n/a	n/a	n/a	n/a	0	0	0	n/a	n/a	n/a	n/a	n/a
1274.574	n/a	REC_WORD_VV	637287	wordpools/wasnorm_wordpool_less_exclusions.txt	LTP277	ltpFR	12	4	n/a	<>	-1	n/a	n/a	n/a	0	0	0	n/a	n/a	n/a	n/a	n/a
1277.9	n/a	REC_WORD	638950	wordpools/wasnorm_wordpool_less_exclusions.txt	LTP277	ltpFR	12	4	0	BROCCOLI	176	n/a	0	n/a	0	0	0	n/a	n/a	n/a	n/a	n/a
1278.884	n/a	REC_WORD	639442	wordpools/wasnorm_wordpool_less_exclusions.txt	LTP277	ltpFR	12	4	0	PICKLE	1059	n/a	0	n/a	0	0	0	n/a	n/a	n/a	n/a	n/a
1281.262	n/a	REC_WORD	640631	wordpools/wasnorm_wordpool_less_exclusions.txt	LTP277	ltpFR	12	4	1	BLOSSOM	138	n/a	1	n/a	0	0	0	n/a	n/a	n/a	n/a	n/a
1291.008	n/a	REC_WORD	645504	wordpools/wasnorm_wordpool_less_exclusions.txt	LTP277	ltpFR	12	4	1	CATERPILLAR	259	n/a	1	n/a	0	0	0	n/a	n/a	n/a	n/a	n/a
1302.568	n/a	REC_WORD	651284	wordpools/wasnorm_wordpool_less_exclusions.txt	LTP277	ltpFR	12	4	1	TURKEY	1520	n/a	1	n/a	0	0	0	n/a	n/a	n/a	n/a	n/a
1308.048	n/a	REC_WORD	654024	wordpools/wasnorm_wordpool_less_exclusions.txt	LTP277	ltpFR	12	4	0	BEETLE	116	n/a	0	n/a	0	0	0	n/a	n/a	n/a	n/a	n/a
1311.336	n/a	REC_WORD	655668	wordpools/wasnorm_wordpool_less_exclusions.txt	LTP277	ltpFR	12	4	0	PICNIC	1060	n/a	0	n/a	0	0	0	n/a	n/a	n/a	n/a	n/a
1327.91	n/a	REC_WORD	663955	wordpools/wasnorm_wordpool_less_exclusions.txt	LTP277	ltpFR	12	4	1	CHURCH	307	n/a	0	n/a	0	0	0	n/a	n/a	n/a	n/a	n/a
1328.78	n/a	REC_WORD	664390	wordpools/wasnorm_wordpool_less_exclusions.txt	LTP277	ltpFR	12	4	1	CROSS	413	n/a	0	n/a	0	0	0	n/a	n/a	n/a	n/a	n/a
1331.362	n/a	REC_WORD	665681	wordpools/wasnorm_wordpool_less_exclusions.txt	LTP277	ltpFR	12	4	1	SWING	1421	n/a	0	n/a	0	0	0	n/a	n/a	n/a	n/a	n/a
1335.216	n/a	REC_WORD	667608	wordpools/wasnorm_wordpool_less_exclusions.txt	LTP277	ltpFR	12	4	0	BUG	187	n/a	0	n/a	0	0	0	n/a	n/a	n/a	n/a	n/a
1357.76	n/a	WORD	678880	wordpools/wasnorm_wordpool_less_exclusions.txt	LTP277	ltpFR	12	5	0	CHARCOAL	281	n/a	0	n/a	0	0	0	1	0.412841796875	0.57763671875	lower	../fonts/zerothre.ttf
1361.792	n/a	WORD	680896	wordpools/wasnorm_wordpool_less_exclusions.txt	LTP277	ltpFR	12	5	0	PLUM	1090	n/a	0	n/a	0	0	0	1	0.412841796875	0.57763671875	lower	../fonts/zerothre.ttf
1365.74	n/a	WORD	682870	wordpools/wasnorm_wordpool_less_exclusions.txt	LTP277	ltpFR	12	5	0	FOE	587	n/a	1	n/a	0	0	0	1	0.412841796875	0.57763671875	lower	../fonts/zerothre.ttf
1369.922	n/a	WORD	684961	wordpools/wasnorm_wordpool_less_exclusions.txt	LTP277	ltpFR	12	5	0	ROOMMATE	1207	n/a	1	n/a	0	0	0	1	0.412841796875	0.57763671875	lower	../fonts/zerothre.ttf
1374.124	n/a	WORD	687062	wordpools/wasnorm_wordpool_less_exclusions.txt	LTP277	ltpFR	12	5	0	BEET	115	n/a	1	n/a	0	0	0	1	0.412841796875	0.57763671875	lower	../fonts/zerothre.ttf
1378.138	n/a	WORD	689069	wordpools/wasnorm_wordpool_less_exclusions.txt	LTP277	ltpFR	12	5	0	GEM	629	n/a	0	n/a	0	0	0	1	0.412841796875	0.57763671875	lower	../fonts/zerothre.ttf
1382.12	n/a	WORD	691060	wordpools/wasnorm_wordpool_less_exclusions.txt	LTP277	ltpFR	12	5	0	DOLL	481	n/a	0	n/a	0	0	0	1	0.412841796875	0.57763671875	lower	../fonts/zerothre.ttf
1386.02	n/a	WORD	693010	wordpools/wasnorm_wordpool_less_exclusions.txt	LTP277	ltpFR	12	5	0	COOLER	375	n/a	1	n/a	0	0	0	1	0.412841796875	0.57763671875	lower	../fonts/zerothre.ttf
1389.85	n/a	WORD	694925	wordpools/wasnorm_wordpool_less_exclusions.txt	LTP277	ltpFR	12	5	0	RAM	1165	n/a	1	n/a	0	0	0	1	0.412841796875	0.57763671875	lower	../fonts/zerothre.ttf
1393.916	n/a	WORD	696958	wordpools/wasnorm_wordpool_less_exclusions.txt	LTP277	ltpFR	12	5	0	ZOO	1637	n/a	1	n/a	0	0	0	1	0.412841796875	0.57763671875	lower	../fonts/zerothre.ttf
1397.764	n/a	WORD	698882	wordpools/wasnorm_wordpool_less_exclusions.txt	LTP277	ltpFR	12	5	0	OWNER	993	n/a	1	n/a	0	0	0	1	0.412841796875	0.57763671875	lower	../fonts/zerothre.ttf
1401.862	n/a	WORD	700931	wordpools/wasnorm_wordpool_less_exclusions.txt	LTP277	ltpFR	12	5	0	MUSEUM	933	n/a	1	n/a	0	0	0	1	0.412841796875	0.57763671875	lower	../fonts/zerothre.ttf
1405.912	n/a	WORD	702956	wordpools/wasnorm_wordpool_less_exclusions.txt	LTP277	ltpFR	12	5	0	TILE	1468	n/a	0	n/a	0	0	0	1	0.412841796875	0.57763671875	lower	../fonts/zerothre.ttf
1409.844	n/a	WORD	704922	wordpools/wasnorm_wordpool_less_exclusions.txt	LTP277	ltpFR	12	5	0	CONSUMER	365	n/a	1	n/a	0	0	0	1	0.412841796875	0.57763671875	lower	../fonts/zerothre.ttf
1413.826	n/a	WORD	706913	wordpools/wasnorm_wordpool_less_exclusions.txt	LTP277	ltpFR	12	5	0	CLAY	320	n/a	1	n/a	0	0	0	1	0.412841796875	0.57763671875	lower	../fonts/zerothre.ttf
1418.04	n/a	WORD	709020	wordpools/wasnorm_wordpool_less_exclusions.txt	LTP277	ltpFR	12	5	0	VOLCANO	1575	n/a	1	n/a	0	0	0	1	0.412841796875	0.57763671875	lower	../fonts/zerothre.ttf
1424.032	n/a	REC_START	712016	n/a	LTP277	ltpFR	12	5	n/a	n/a	n/a	n/a	n/a	n/a	0	0	0	n/a	n/a	n/a	n/a	n/a
1424.376	n/a	REC_WORD	712188	wordpools/wasnorm_wordpool_less_exclusions.txt	LTP277	ltpFR	12	5	0	TILE	1468	n/a	0	n/a	0	0	0	n/a	n/a	n/a	n/a	n/a
1424.728	n/a	REC_WORD	712364	wordpools/wasnorm_wordpool_less_exclusions.txt	LTP277	ltpFR	12	5	0	CONSUMER	365	n/a	1	n/a	0	0	0	n/a	n/a	n/a	n/a	n/a
1425.424	n/a	REC_WORD	712712	wordpools/wasnorm_wordpool_less_exclusions.txt	LTP277	ltpFR	12	5	0	CLAY	320	n/a	1	n/a	0	0	0	n/a	n/a	n/a	n/a	n/a
1425.936	n/a	REC_WORD	712968	wordpools/wasnorm_wordpool_less_exclusions.txt	LTP277	ltpFR	12	5	0	VOLCANO	1575	n/a	1	n/a	0	0	0	n/a	n/a	n/a	n/a	n/a
1428.184	n/a	REC_WORD	714092	wordpools/wasnorm_wordpool_less_exclusions.txt	LTP277	ltpFR	12	5	0	CHARCOAL	281	n/a	0	n/a	0	0	0	n/a	n/a	n/a	n/a	n/a
1428.952	n/a	REC_WORD	714476	wordpools/wasnorm_wordpool_less_exclusions.txt	LTP277	ltpFR	12	5	0	PLUM	1090	n/a	0	n/a	0	0	0	n/a	n/a	n/a	n/a	n/a
1429.914	n/a	REC_WORD	714957	wordpools/wasnorm_wordpool_less_exclusions.txt	LTP277	ltpFR	12	5	0	BEET	115	n/a	1	n/a	0	0	0	n/a	n/a	n/a	n/a	n/a
1430.698	n/a	REC_WORD	715349	wordpools/wasnorm_wordpool_less_exclusions.txt	LTP277	ltpFR	12	5	0	FOE	587	n/a	1	n/a	0	0	0	n/a	n/a	n/a	n/a	n/a
1431.544	n/a	REC_WORD	715772	wordpools/wasnorm_wordpool_less_exclusions.txt	LTP277	ltpFR	12	5	0	ROOMMATE	1207	n/a	1	n/a	0	0	0	n/a	n/a	n/a	n/a	n/a
1435.868	n/a	REC_WORD	717934	wordpools/wasnorm_wordpool_less_exclusions.txt	LTP277	ltpFR	12	5	0	RAM	1165	n/a	1	n/a	0	0	0	n/a	n/a	n/a	n/a	n/a
1438.826	n/a	REC_WORD	719413	wordpools/wasnorm_wordpool_less_exclusions.txt	LTP277	ltpFR	12	5	0	ZOO	1637	n/a	1	n/a	0	0	0	n/a	n/a	n/a	n/a	n/a
1439.744	n/a	REC_WORD	719872	wordpools/wasnorm_wordpool_less_exclusions.txt	LTP277	ltpFR	12	5	0	MUSEUM	933	n/a	1	n/a	0	0	0	n/a	n/a	n/a	n/a	n/a
1442.386	n/a	REC_WORD	721193	wordpools/wasnorm_wordpool_less_exclusions.txt	LTP277	ltpFR	12	5	0	TILE	1468	n/a	0	n/a	0	0	0	n/a	n/a	n/a	n/a	n/a
1503.066	n/a	WORD	751533	wordpools/wasnorm_wordpool_less_exclusions.txt	LTP277	ltpFR	12	6	0	UNIFORM	1539	n/a	1	n/a	0	0	0	1	0.412841796875	0.57763671875	lower	../fonts/zerothre.ttf
1506.932	n/a	WORD	753466	wordpools/wasnorm_wordpool_less_exclusions.txt	LTP277	ltpFR	12	6	0	STOMACH	1384	n/a	0	n/a	0	0	0	1	0.412841796875	0.57763671875	lower	../fonts/zerothre.ttf
1510.93	n/a	WORD	755465	wordpools/wasnorm_wordpool_less_exclusions.txt	LTP277	ltpFR	12	6	0	BACON	67	n/a	1	n/a	0	0	0	1	0.412841796875	0.57763671875	lower	../fonts/zerothre.ttf
1514.81	n/a	WORD	757405	wordpools/wasnorm_wordpool_less_exclusions.txt	LTP277	ltpFR	12	6	0	ORNAMENT	985	n/a	0	n/a	0	0	0	1	0.412841796875	0.57763671875	lower	../fonts/zerothre.ttf
1518.978	n/a	WORD	759489	wordpools/wasnorm_wordpool_less_exclusions.txt	LTP277	ltpFR	12	6	1	PORCUPINE	1107	n/a	1	n/a	0	0	0	0	0.5869140625	0.422607421875	upper	../fonts/amplitud.ttf
1523.01	n/a	WORD	761505	wordpools/wasnorm_wordpool_less_exclusions.txt	LTP277	ltpFR	12	6	1	DISC	473	n/a	0	n/a	0	0	0	0	0.5869140625	0.422607421875	upper	../fonts/amplitud.ttf
1526.974	n/a	WORD	763487	wordpools/wasnorm_wordpool_less_exclusions.txt	LTP277	ltpFR	12	6	1	TROMBONE	1508	n/a	1	n/a	0	0	0	0	0.5869140625	0.422607421875	upper	../fonts/amplitud.ttf
1531.04	n/a	WORD	765520	wordpools/wasnorm_wordpool_less_exclusions.txt	LTP277	ltpFR	12	6	1	SWORD	1423	n/a	1	n/a	0	0	0	0	0.5869140625	0.422607421875	upper	../fonts/amplitud.ttf
1535.054	n/a	WORD	767527	wordpools/wasnorm_wordpool_less_exclusions.txt	LTP277	ltpFR	12	6	1	FORK	594	n/a	1	n/a	0	0	0	0	0.5869140625	0.422607421875	upper	../fonts/amplitud.ttf
1538.968	n/a	WORD	769484	wordpools/wasnorm_wordpool_less_exclusions.txt	LTP277	ltpFR	12	6	0	ENEMY	534	n/a	1	n/a	0	0	0	1	0.412841796875	0.57763671875	lower	../fonts/zerothre.ttf
1543.17	n/a	WORD	771585	wordpools/wasnorm_wordpool_less_exclusions.txt	LTP277	ltpFR	12	6	0	RESTAURANT	1187	n/a	1	n/a	0	0	0	1	0.412841796875	0.57763671875	lower	../fonts/zerothre.ttf
1547.152	n/a	WORD	773576	wordpools/wasnorm_wordpool_less_exclusions.txt	LTP277	ltpFR	12	6	0	BUFFALO	186	n/a	1	n/a	0	0	0	1	0.412841796875	0.57763671875	lower	../fonts/zerothre.ttf
1551.368	n/a	WORD	775684	wordpools/wasnorm_wordpool_less_exclusions.txt	LTP277	ltpFR	12	6	0	SHEPHERD	1283	n/a	0	n/a	0	0	0	1	0.412841796875	0.57763671875	lower	../fonts/zerothre.ttf
1555.348	n/a	WORD	777674	wordpools/wasnorm_wordpool_less_exclusions.txt	LTP277	ltpFR	12	6	1	GUEST	669	n/a	1	n/a	0	0	0	0	0.5869140625	0.422607421875	upper	../fonts/amplitud.ttf
1559.466	n/a	WORD	779733	wordpools/wasnorm_wordpool_less_exclusions.txt	LTP277	ltpFR	12	6	1	FORT	595	n/a	0	n/a	0	0	0	0	0.5869140625	0.422607421875	upper	../fonts/amplitud.ttf
1563.664	n/a	WORD	781832	wordpools/wasnorm_wordpool_less_exclusions.txt	LTP277	ltpFR	12	6	1	THIGH	1457	n/a	1	n/a	0	0	0	0	0.5869140625	0.422607421875	upper	../fonts/amplitud.ttf
1566.676	n/a	START	783338	n/a	LTP277	ltpFR	12	n/a	n/a	n/a	n/a	n/a	n/a	n/a	n/a	n/a	n/a	n/a	n/a	n/a	n/a	n/a
1567.528	n/a	PROB	783764	n/a	LTP277	ltpFR	12	n/a	n/a	n/a	n/a	n/a	n/a	13	2	7	4	n/a	n/a	n/a	n/a	n/a
1569.852	n/a	PROB	784926	n/a	LTP277	ltpFR	12	n/a	n/a	n/a	n/a	n/a	n/a	11	4	4	3	n/a	n/a	n/a	n/a	n/a
1572.464	n/a	PROB	786232	n/a	LTP277	ltpFR	12	n/a	n/a	n/a	n/a	n/a	n/a	15	6	1	8	n/a	n/a	n/a	n/a	n/a
1574.238	n/a	PROB	787119	n/a	LTP277	ltpFR	12	n/a	n/a	n/a	n/a	n/a	n/a	11	8	1	2	n/a	n/a	n/a	n/a	n/a
1576.094	n/a	PROB	788047	n/a	LTP277	ltpFR	12	n/a	n/a	n/a	n/a	n/a	n/a	8	2	5	1	n/a	n/a	n/a	n/a	n/a
1577.97	n/a	PROB	788985	n/a	LTP277	ltpFR	12	n/a	n/a	n/a	n/a	n/a	n/a	9	1	2	6	n/a	n/a	n/a	n/a	n/a
1582.678	n/a	STOP	791339	n/a	LTP277	ltpFR	12	n/a	n/a	n/a	n/a	n/a	n/a	n/a	n/a	n/a	n/a	n/a	n/a	n/a	n/a	n/a
1584.628	n/a	REC_START	792314	n/a	LTP277	ltpFR	12	6	n/a	n/a	n/a	n/a	n/a	n/a	0	0	0	n/a	n/a	n/a	n/a	n/a
1585.526	n/a	REC_WORD	792763	wordpools/wasnorm_wordpool_less_exclusions.txt	LTP277	ltpFR	12	6	1	GUEST	669	n/a	1	n/a	0	0	0	n/a	n/a	n/a	n/a	n/a
1586.074	n/a	REC_WORD	793037	wordpools/wasnorm_wordpool_less_exclusions.txt	LTP277	ltpFR	12	6	1	FORT	595	n/a	0	n/a	0	0	0	n/a	n/a	n/a	n/a	n/a
1586.96	n/a	REC_WORD	793480	wordpools/wasnorm_wordpool_less_exclusions.txt	LTP277	ltpFR	12	6	1	THIGH	1457	n/a	1	n/a	0	0	0	n/a	n/a	n/a	n/a	n/a
1589.09	n/a	REC_WORD_VV	794545	wordpools/wasnorm_wordpool_less_exclusions.txt	LTP277	ltpFR	12	6	n/a	<>	-1	n/a	n/a	n/a	0	0	0	n/a	n/a	n/a	n/a	n/a
1595.096	n/a	REC_WORD	797548	wordpools/wasnorm_wordpool_less_exclusions.txt	LTP277	ltpFR	12	6	0	UNIFORM	1539	n/a	1	n/a	0	0	0	n/a	n/a	n/a	n/a	n/a
1597.168	n/a	REC_WORD	798584	wordpools/wasnorm_wordpool_less_exclusions.txt	LTP277	ltpFR	12	6	0	BACON	67	n/a	1	n/a	0	0	0	n/a	n/a	n/a	n/a	n/a
1597.942	n/a	REC_WORD	798971	wordpools/wasnorm_wordpool_less_exclusions.txt	LTP277	ltpFR	12	6	0	ORNAMENT	985	n/a	0	n/a	0	0	0	n/a	n/a	n/a	n/a	n/a
1599.908	n/a	REC_WORD	799954	wordpools/wasnorm_wordpool_less_exclusions.txt	LTP277	ltpFR	12	6	1	PORCUPINE	1107	n/a	1	n/a	0	0	0	n/a	n/a	n/a	n/a	n/a
1600.934	n/a	REC_WORD	800467	wordpools/wasnorm_wordpool_less_exclusions.txt	LTP277	ltpFR	12	6	1	DISC	473	n/a	0	n/a	0	0	0	n/a	n/a	n/a	n/a	n/a
1602.686	n/a	REC_WORD	801343	wordpools/wasnorm_wordpool_less_exclusions.txt	LTP277	ltpFR	12	6	1	TROMBONE	1508	n/a	1	n/a	0	0	0	n/a	n/a	n/a	n/a	n/a
1603.51	n/a	REC_WORD	801755	wordpools/wasnorm_wordpool_less_exclusions.txt	LTP277	ltpFR	12	6	1	SWORD	1423	n/a	1	n/a	0	0	0	n/a	n/a	n/a	n/a	n/a
1604.032	n/a	REC_WORD	802016	wordpools/wasnorm_wordpool_less_exclusions.txt	LTP277	ltpFR	12	6	1	FORK	594	n/a	1	n/a	0	0	0	n/a	n/a	n/a	n/a	n/a
1660.284	n/a	REST_REWET	830142	n/a	LTP277	ltpFR	12	6	n/a	n/a	n/a	n/a	n/a	n/a	0	0	0	n/a	n/a	n/a	n/a	n/a
1916.546	n/a	START	958273	n/a	LTP277	ltpFR	12	n/a	n/a	n/a	n/a	n/a	n/a	n/a	n/a	n/a	n/a	n/a	n/a	n/a	n/a	n/a
1918.052	n/a	PROB	959026	n/a	LTP277	ltpFR	12	n/a	n/a	n/a	n/a	n/a	n/a	16	8	1	7	n/a	n/a	n/a	n/a	n/a
1920.26	n/a	PROB	960130	n/a	LTP277	ltpFR	12	n/a	n/a	n/a	n/a	n/a	n/a	6	3	2	1	n/a	n/a	n/a	n/a	n/a
1921.698	n/a	PROB	960849	n/a	LTP277	ltpFR	12	n/a	n/a	n/a	n/a	n/a	n/a	21	9	9	3	n/a	n/a	n/a	n/a	n/a
1923.024	n/a	STOP	961512	n/a	LTP277	ltpFR	12	n/a	n/a	n/a	n/a	n/a	n/a	n/a	n/a	n/a	n/a	n/a	n/a	n/a	n/a	n/a
1925.464	n/a	WORD	962732	wordpools/wasnorm_wordpool_less_exclusions.txt	LTP277	ltpFR	12	7	1	HOSE	720	n/a	1	n/a	0	0	0	0	0.5869140625	0.422607421875	upper	../fonts/amplitud.ttf
1928.476	n/a	START	964238	n/a	LTP277	ltpFR	12	n/a	n/a	n/a	n/a	n/a	n/a	n/a	n/a	n/a	n/a	n/a	n/a	n/a	n/a	n/a
1929.594	n/a	PROB	964797	n/a	LTP277	ltpFR	12	n/a	n/a	n/a	n/a	n/a	n/a	12	5	3	4	n/a	n/a	n/a	n/a	n/a
1931.55	n/a	PROB	965775	n/a	LTP277	ltpFR	12	n/a	n/a	n/a	n/a	n/a	n/a	17	5	5	7	n/a	n/a	n/a	n/a	n/a
1933.178	n/a	PROB	966589	n/a	LTP277	ltpFR	12	n/a	n/a	n/a	n/a	n/a	n/a	12	9	1	2	n/a	n/a	n/a	n/a	n/a
1934.944	n/a	STOP	967472	n/a	LTP277	ltpFR	12	n/a	n/a	n/a	n/a	n/a	n/a	n/a	n/a	n/a	n/a	n/a	n/a	n/a	n/a	n/a
1937.31	n/a	WORD	968655	wordpools/wasnorm_wordpool_less_exclusions.txt	LTP277	ltpFR	12	7	1	MEAL	882	n/a	0	n/a	0	0	0	0	0.5869140625	0.422607421875	upper	../fonts/amplitud.ttf
1940.322	n/a	START	970161	n/a	LTP277	ltpFR	12	n/a	n/a	n/a	n/a	n/a	n/a	n/a	n/a	n/a	n/a	n/a	n/a	n/a	n/a	n/a
1941.19	n/a	PROB	970595	n/a	LTP277	ltpFR	12	n/a	n/a	n/a	n/a	n/a	n/a	14	9	1	4	n/a	n/a	n/a	n/a	n/a
1942.68	n/a	PROB	971340	n/a	LTP277	ltpFR	12	n/a	n/a	n/a	n/a	n/a	n/a	13	6	2	5	n/a	n/a	n/a	n/a	n/a
1944.268	n/a	PROB	972134	n/a	LTP277	ltpFR	12	n/a	n/a	n/a	n/a	n/a	n/a	16	6	9	1	n/a	n/a	n/a	n/a	n/a
1948.322	n/a	STOP	974161	n/a	LTP277	ltpFR	12	n/a	n/a	n/a	n/a	n/a	n/a	n/a	n/a	n/a	n/a	n/a	n/a	n/a	n/a	n/a
1949.488	n/a	WORD	974744	wordpools/wasnorm_wordpool_less_exclusions.txt	LTP277	ltpFR	12	7	1	SERVER	1272	n/a	1	n/a	0	0	0	0	0.5869140625	0.422607421875	upper	../fonts/amplitud.ttf
1952.502	n/a	START	976251	n/a	LTP277	ltpFR	12	n/a	n/a	n/a	n/a	n/a	n/a	n/a	n/a	n/a	n/a	n/a	n/a	n/a	n/a	n/a
1953.454	n/a	PROB	976727	n/a	LTP277	ltpFR	12	n/a	n/a	n/a	n/a	n/a	n/a	12	4	2	6	n/a	n/a	n/a	n/a	n/a
1955.362	n/a	PROB	977681	n/a	LTP277	ltpFR	12	n/a	n/a	n/a	n/a	n/a	n/a	14	8	3	3	n/a	n/a	n/a	n/a	n/a
1957.166	n/a	PROB	978583	n/a	LTP277	ltpFR	12	n/a	n/a	n/a	n/a	n/a	n/a	10	2	3	5	n/a	n/a	n/a	n/a	n/a
1959.314	n/a	STOP	979657	n/a	LTP277	ltpFR	12	n/a	n/a	n/a	n/a	n/a	n/a	n/a	n/a	n/a	n/a	n/a	n/a	n/a	n/a	n/a
1961.686	n/a	WORD	980843	wordpools/wasnorm_wordpool_less_exclusions.txt	LTP277	ltpFR	12	7	1	BLOCKADE	137	n/a	1	n/a	0	0	0	0	0.5869140625	0.422607421875	upper	../fonts/amplitud.ttf
1964.698	n/a	START	982349	n/a	LTP277	ltpFR	12	n/a	n/a	n/a	n/a	n/a	n/a	n/a	n/a	n/a	n/a	n/a	n/a	n/a	n/a	n/a
1965.8	n/a	PROB	982900	n/a	LTP277	ltpFR	12	n/a	n/a	n/a	n/a	n/a	n/a	14	3	5	6	n/a	n/a	n/a	n/a	n/a
1967.69	n/a	PROB	983845	n/a	LTP277	ltpFR	12	n/a	n/a	n/a	n/a	n/a	n/a	13	9	3	1	n/a	n/a	n/a	n/a	n/a
1970.118	n/a	PROB	985059	n/a	LTP277	ltpFR	12	n/a	n/a	n/a	n/a	n/a	n/a	16	4	7	5	n/a	n/a	n/a	n/a	n/a
1971.594	n/a	STOP	985797	n/a	LTP277	ltpFR	12	n/a	n/a	n/a	n/a	n/a	n/a	n/a	n/a	n/a	n/a	n/a	n/a	n/a	n/a	n/a
1973.598	n/a	WORD	986799	wordpools/wasnorm_wordpool_less_exclusions.txt	LTP277	ltpFR	12	7	1	SCOUT	1252	n/a	1	n/a	0	0	0	0	0.5869140625	0.422607421875	upper	../fonts/amplitud.ttf
1976.61	n/a	START	988305	n/a	LTP277	ltpFR	12	n/a	n/a	n/a	n/a	n/a	n/a	n/a	n/a	n/a	n/a	n/a	n/a	n/a	n/a	n/a
1977.714	n/a	PROB	988857	n/a	LTP277	ltpFR	12	n/a	n/a	n/a	n/a	n/a	n/a	21	4	8	9	n/a	n/a	n/a	n/a	n/a
1981.092	n/a	PROB	990546	n/a	LTP277	ltpFR	12	n/a	n/a	n/a	n/a	n/a	n/a	18	5	9	4	n/a	n/a	n/a	n/a	n/a
1983.034	n/a	PROB	991517	n/a	LTP277	ltpFR	12	n/a	n/a	n/a	n/a	n/a	n/a	17	9	3	4	n/a	n/a	n/a	n/a	n/a
1984.53	n/a	STOP	992265	n/a	LTP277	ltpFR	12	n/a	n/a	n/a	n/a	n/a	n/a	n/a	n/a	n/a	n/a	n/a	n/a	n/a	n/a	n/a
1985.558	n/a	WORD	992779	wordpools/wasnorm_wordpool_less_exclusions.txt	LTP277	ltpFR	12	7	1	BATHTUB	100	n/a	0	n/a	0	0	0	0	0.5869140625	0.422607421875	upper	../fonts/amplitud.ttf
1988.57	n/a	START	994285	n/a	LTP277	ltpFR	12	n/a	n/a	n/a	n/a	n/a	n/a	n/a	n/a	n/a	n/a	n/a	n/a	n/a	n/a	n/a
1989.642	n/a	PROB	994821	n/a	LTP277	ltpFR	12	n/a	n/a	n/a	n/a	n/a	n/a	14	4	2	8	n/a	n/a	n/a	n/a	n/a
1991.132	n/a	PROB	995566	n/a	LTP277	ltpFR	12	n/a	n/a	n/a	n/a	n/a	n/a	10	4	2	4	n/a	n/a	n/a	n/a	n/a
1993.256	n/a	PROB	996628	n/a	LTP277	ltpFR	12	n/a	n/a	n/a	n/a	n/a	n/a	17	5	7	5	n/a	n/a	n/a	n/a	n/a
1994.912	n/a	PROB	997456	n/a	LTP277	ltpFR	12	n/a	n/a	n/a	n/a	n/a	n/a	19	5	5	9	n/a	n/a	n/a	n/a	n/a
1996.412	n/a	STOP	998206	n/a	LTP277	ltpFR	12	n/a	n/a	n/a	n/a	n/a	n/a	n/a	n/a	n/a	n/a	n/a	n/a	n/a	n/a	n/a
1997.656	n/a	WORD	998828	wordpools/wasnorm_wordpool_less_exclusions.txt	LTP277	ltpFR	12	7	1	MARBLE	867	n/a	0	n/a	0	0	0	0	0.5869140625	0.422607421875	upper	../fonts/amplitud.ttf
2000.668	n/a	START	1000334	n/a	LTP277	ltpFR	12	n/a	n/a	n/a	n/a	n/a	n/a	n/a	n/a	n/a	n/a	n/a	n/a	n/a	n/a	n/a
2001.856	n/a	PROB	1000928	n/a	LTP277	ltpFR	12	n/a	n/a	n/a	n/a	n/a	n/a	11	5	2	4	n/a	n/a	n/a	n/a	n/a
2003.31	n/a	PROB	1001655	n/a	LTP277	ltpFR	12	n/a	n/a	n/a	n/a	n/a	n/a	15	6	4	5	n/a	n/a	n/a	n/a	n/a
2004.7	n/a	PROB	1002350	n/a	LTP277	ltpFR	12	n/a	n/a	n/a	n/a	n/a	n/a	17	6	2	9	n/a	n/a	n/a	n/a	n/a
2006.254	n/a	PROB	1003127	n/a	LTP277	ltpFR	12	n/a	n/a	n/a	n/a	n/a	n/a	19	8	2	9	n/a	n/a	n/a	n/a	n/a
2007.578	n/a	STOP	1003789	n/a	LTP277	ltpFR	12	n/a	n/a	n/a	n/a	n/a	n/a	n/a	n/a	n/a	n/a	n/a	n/a	n/a	n/a	n/a
2009.736	n/a	WORD	1004868	wordpools/wasnorm_wordpool_less_exclusions.txt	LTP277	ltpFR	12	7	1	CUB	419	n/a	0	n/a	0	0	0	0	0.5869140625	0.422607421875	upper	../fonts/amplitud.ttf
2012.748	n/a	START	1006374	n/a	LTP277	ltpFR	12	n/a	n/a	n/a	n/a	n/a	n/a	n/a	n/a	n/a	n/a	n/a	n/a	n/a	n/a	n/a
2013.868	n/a	PROB	1006934	n/a	LTP277	ltpFR	12	n/a	n/a	n/a	n/a	n/a	n/a	11	6	3	2	n/a	n/a	n/a	n/a	n/a
2015.708	n/a	PROB	1007854	n/a	LTP277	ltpFR	12	n/a	n/a	n/a	n/a	n/a	n/a	8	5	1	2	n/a	n/a	n/a	n/a	n/a
2020.748	n/a	STOP	1010374	n/a	LTP277	ltpFR	12	n/a	n/a	n/a	n/a	n/a	n/a	n/a	n/a	n/a	n/a	n/a	n/a	n/a	n/a	n/a
2021.796	n/a	WORD	1010898	wordpools/wasnorm_wordpool_less_exclusions.txt	LTP277	ltpFR	12	7	1	CORAL	378	n/a	0	n/a	0	0	0	0	0.5869140625	0.422607421875	upper	../fonts/amplitud.ttf
2024.81	n/a	START	1012405	n/a	LTP277	ltpFR	12	n/a	n/a	n/a	n/a	n/a	n/a	n/a	n/a	n/a	n/a	n/a	n/a	n/a	n/a	n/a
2025.646	n/a	PROB	1012823	n/a	LTP277	ltpFR	12	n/a	n/a	n/a	n/a	n/a	n/a	15	7	2	6	n/a	n/a	n/a	n/a	n/a
2027.334	n/a	PROB	1013667	n/a	LTP277	ltpFR	12	n/a	n/a	n/a	n/a	n/a	n/a	11	8	1	2	n/a	n/a	n/a	n/a	n/a
2028.842	n/a	PROB	1014421	n/a	LTP277	ltpFR	12	n/a	n/a	n/a	n/a	n/a	n/a	17	6	4	7	n/a	n/a	n/a	n/a	n/a
2030.264	n/a	PROB	1015132	n/a	LTP277	ltpFR	12	n/a	n/a	n/a	n/a	n/a	n/a	6	1	3	2	n/a	n/a	n/a	n/a	n/a
2031.502	n/a	STOP	1015751	n/a	LTP277	ltpFR	12	n/a	n/a	n/a	n/a	n/a	n/a	n/a	n/a	n/a	n/a	n/a	n/a	n/a	n/a	n/a
2033.91	n/a	WORD	1016955	wordpools/wasnorm_wordpool_less_exclusions.txt	LTP277	ltpFR	12	7	1	SNACK	1331	n/a	0	n/a	0	0	0	0	0.5869140625	0.422607421875	upper	../fonts/amplitud.ttf
2036.924	n/a	START	1018462	n/a	LTP277	ltpFR	12	n/a	n/a	n/a	n/a	n/a	n/a	n/a	n/a	n/a	n/a	n/a	n/a	n/a	n/a	n/a
2037.994	n/a	PROB	1018997	n/a	LTP277	ltpFR	12	n/a	n/a	n/a	n/a	n/a	n/a	13	4	4	5	n/a	n/a	n/a	n/a	n/a
2039.4	n/a	PROB	1019700	n/a	LTP277	ltpFR	12	n/a	n/a	n/a	n/a	n/a	n/a	11	3	2	6	n/a	n/a	n/a	n/a	n/a
2042.344	n/a	PROB	1021172	n/a	LTP277	ltpFR	12	n/a	n/a	n/a	n/a	n/a	n/a	17	7	3	7	n/a	n/a	n/a	n/a	n/a
2043.958	n/a	STOP	1021979	n/a	LTP277	ltpFR	12	n/a	n/a	n/a	n/a	n/a	n/a	n/a	n/a	n/a	n/a	n/a	n/a	n/a	n/a	n/a
2045.924	n/a	WORD	1022962	wordpools/wasnorm_wordpool_less_exclusions.txt	LTP277	ltpFR	12	7	1	LUNCH	849	n/a	n/a	n/a	0	0	0	0	0.5869140625	0.422607421875	upper	../fonts/amplitud.ttf
2048.97	n/a	SLOW_MSG	1024485	n/a	LTP277	ltpFR	12	7	n/a	n/a	n/a	n/a	n/a	n/a	0	0	0	n/a	n/a	n/a	n/a	n/a
2050.492	n/a	START	1025246	n/a	LTP277	ltpFR	12	n/a	n/a	n/a	n/a	n/a	n/a	n/a	n/a	n/a	n/a	n/a	n/a	n/a	n/a	n/a
2051.63	n/a	PROB	1025815	n/a	LTP277	ltpFR	12	n/a	n/a	n/a	n/a	n/a	n/a	16	1	9	6	n/a	n/a	n/a	n/a	n/a
2052.952	n/a	PROB	1026476	n/a	LTP277	ltpFR	12	n/a	n/a	n/a	n/a	n/a	n/a	14	2	5	7	n/a	n/a	n/a	n/a	n/a
2054.722	n/a	PROB	1027361	n/a	LTP277	ltpFR	12	n/a	n/a	n/a	n/a	n/a	n/a	20	6	8	6	n/a	n/a	n/a	n/a	n/a
2058.492	n/a	STOP	1029246	n/a	LTP277	ltpFR	12	n/a	n/a	n/a	n/a	n/a	n/a	n/a	n/a	n/a	n/a	n/a	n/a	n/a	n/a	n/a
2059.71	n/a	WORD	1029855	wordpools/wasnorm_wordpool_less_exclusions.txt	LTP277	ltpFR	12	7	1	OUTDOORS	987	n/a	0	n/a	0	0	0	0	0.5869140625	0.422607421875	upper	../fonts/amplitud.ttf
2062.722	n/a	START	1031361	n/a	LTP277	ltpFR	12	n/a	n/a	n/a	n/a	n/a	n/a	n/a	n/a	n/a	n/a	n/a	n/a	n/a	n/a	n/a
2063.826	n/a	PROB	1031913	n/a	LTP277	ltpFR	12	n/a	n/a	n/a	n/a	n/a	n/a	19	6	9	4	n/a	n/a	n/a	n/a	n/a
2065.516	n/a	PROB	1032758	n/a	LTP277	ltpFR	12	n/a	n/a	n/a	n/a	n/a	n/a	22	7	9	6	n/a	n/a	n/a	n/a	n/a
2068.394	n/a	PROB	1034197	n/a	LTP277	ltpFR	12	n/a	n/a	n/a	n/a	n/a	n/a	15	1	5	9	n/a	n/a	n/a	n/a	n/a
2069.792	n/a	STOP	1034896	n/a	LTP277	ltpFR	12	n/a	n/a	n/a	n/a	n/a	n/a	n/a	n/a	n/a	n/a	n/a	n/a	n/a	n/a	n/a
2071.774	n/a	WORD	1035887	wordpools/wasnorm_wordpool_less_exclusions.txt	LTP277	ltpFR	12	7	1	PORCH	1106	n/a	0	n/a	0	0	0	0	0.5869140625	0.422607421875	upper	../fonts/amplitud.ttf
2074.786	n/a	START	1037393	n/a	LTP277	ltpFR	12	n/a	n/a	n/a	n/a	n/a	n/a	n/a	n/a	n/a	n/a	n/a	n/a	n/a	n/a	n/a
2075.988	n/a	PROB	1037994	n/a	LTP277	ltpFR	12	n/a	n/a	n/a	n/a	n/a	n/a	24	7	8	9	n/a	n/a	n/a	n/a	n/a
2078.448	n/a	PROB	1039224	n/a	LTP277	ltpFR	12	n/a	n/a	n/a	n/a	n/a	n/a	21	5	8	8	n/a	n/a	n/a	n/a	n/a
2082.776	n/a	STOP	1041388	n/a	LTP277	ltpFR	12	n/a	n/a	n/a	n/a	n/a	n/a	n/a	n/a	n/a	n/a	n/a	n/a	n/a	n/a	n/a
2083.684	n/a	WORD	1041842	wordpools/wasnorm_wordpool_less_exclusions.txt	LTP277	ltpFR	12	7	1	MONK	910	n/a	1	n/a	0	0	0	0	0.5869140625	0.422607421875	upper	../fonts/amplitud.ttf
2086.698	n/a	START	1043349	n/a	LTP277	ltpFR	12	n/a	n/a	n/a	n/a	n/a	n/a	n/a	n/a	n/a	n/a	n/a	n/a	n/a	n/a	n/a
2087.55	n/a	PROB	1043775	n/a	LTP277	ltpFR	12	n/a	n/a	n/a	n/a	n/a	n/a	5	1	2	2	n/a	n/a	n/a	n/a	n/a
2088.822	n/a	PROB	1044411	n/a	LTP277	ltpFR	12	n/a	n/a	n/a	n/a	n/a	n/a	18	3	4	9	n/a	n/a	n/a	n/a	n/a
2090.896	n/a	PROB	1045448	n/a	LTP277	ltpFR	12	n/a	n/a	n/a	n/a	n/a	n/a	4	2	1	1	n/a	n/a	n/a	n/a	n/a
2093.472	n/a	STOP	1046736	n/a	LTP277	ltpFR	12	n/a	n/a	n/a	n/a	n/a	n/a	n/a	n/a	n/a	n/a	n/a	n/a	n/a	n/a	n/a
2095.898	n/a	WORD	1047949	wordpools/wasnorm_wordpool_less_exclusions.txt	LTP277	ltpFR	12	7	1	BROOK	177	n/a	0	n/a	0	0	0	0	0.5869140625	0.422607421875	upper	../fonts/amplitud.ttf
2098.91	n/a	START	1049455	n/a	LTP277	ltpFR	12	n/a	n/a	n/a	n/a	n/a	n/a	n/a	n/a	n/a	n/a	n/a	n/a	n/a	n/a	n/a
2099.914	n/a	PROB	1049957	n/a	LTP277	ltpFR	12	n/a	n/a	n/a	n/a	n/a	n/a	22	9	9	4	n/a	n/a	n/a	n/a	n/a
2101.418	n/a	PROB	1050709	n/a	LTP277	ltpFR	12	n/a	n/a	n/a	n/a	n/a	n/a	16	3	7	6	n/a	n/a	n/a	n/a	n/a
2102.99	n/a	PROB	1051495	n/a	LTP277	ltpFR	12	n/a	n/a	n/a	n/a	n/a	n/a	26	9	9	7	n/a	n/a	n/a	n/a	n/a
2106.514	n/a	STOP	1053257	n/a	LTP277	ltpFR	12	n/a	n/a	n/a	n/a	n/a	n/a	n/a	n/a	n/a	n/a	n/a	n/a	n/a	n/a	n/a
2107.978	n/a	WORD	1053989	wordpools/wasnorm_wordpool_less_exclusions.txt	LTP277	ltpFR	12	7	1	GRIZZLY	662	n/a	1	n/a	0	0	0	0	0.5869140625	0.422607421875	upper	../fonts/amplitud.ttf
2110.99	n/a	START	1055495	n/a	LTP277	ltpFR	12	n/a	n/a	n/a	n/a	n/a	n/a	n/a	n/a	n/a	n/a	n/a	n/a	n/a	n/a	n/a
2111.81	n/a	PROB	1055905	n/a	LTP277	ltpFR	12	n/a	n/a	n/a	n/a	n/a	n/a	17	7	5	5	n/a	n/a	n/a	n/a	n/a
2114.368	n/a	PROB	1057184	n/a	LTP277	ltpFR	12	n/a	n/a	n/a	n/a	n/a	n/a	15	5	9	1	n/a	n/a	n/a	n/a	n/a
2118.988	n/a	STOP	1059494	n/a	LTP277	ltpFR	12	n/a	n/a	n/a	n/a	n/a	n/a	n/a	n/a	n/a	n/a	n/a	n/a	n/a	n/a	n/a
2120.978	n/a	REC_START	1060489	n/a	LTP277	ltpFR	12	7	n/a	n/a	n/a	n/a	n/a	n/a	0	0	0	n/a	n/a	n/a	n/a	n/a
2121.962	n/a	REC_WORD	1060981	wordpools/wasnorm_wordpool_less_exclusions.txt	LTP277	ltpFR	12	7	1	BROOK	177	n/a	0	n/a	0	0	0	n/a	n/a	n/a	n/a	n/a
2122.392	n/a	REC_WORD	1061196	wordpools/wasnorm_wordpool_less_exclusions.txt	LTP277	ltpFR	12	7	1	GRIZZLY	662	n/a	1	n/a	0	0	0	n/a	n/a	n/a	n/a	n/a
2123.11	n/a	REC_WORD	1061555	wordpools/wasnorm_wordpool_less_exclusions.txt	LTP277	ltpFR	12	7	1	MONK	910	n/a	1	n/a	0	0	0	n/a	n/a	n/a	n/a	n/a
2126.734	n/a	REC_WORD	1063367	wordpools/wasnorm_wordpool_less_exclusions.txt	LTP277	ltpFR	12	7	1	HOSE	720	n/a	1	n/a	0	0	0	n/a	n/a	n/a	n/a	n/a
2131.714	n/a	REC_WORD	1065857	wordpools/wasnorm_wordpool_less_exclusions.txt	LTP277	ltpFR	12	7	1	MEAL	882	n/a	0	n/a	0	0	0	n/a	n/a	n/a	n/a	n/a
2132.18	n/a	REC_WORD	1066090	wordpools/wasnorm_wordpool_less_exclusions.txt	LTP277	ltpFR	12	7	1	SERVER	1272	n/a	1	n/a	0	0	0	n/a	n/a	n/a	n/a	n/a
2134.244	n/a	REC_WORD	1067122	wordpools/wasnorm_wordpool_less_exclusions.txt	LTP277	ltpFR	12	7	1	BLOCKADE	137	n/a	1	n/a	0	0	0	n/a	n/a	n/a	n/a	n/a
2135.754	n/a	REC_WORD	1067877	wordpools/wasnorm_wordpool_less_exclusions.txt	LTP277	ltpFR	12	7	1	BATHTUB	100	n/a	0	n/a	0	0	0	n/a	n/a	n/a	n/a	n/a
2136.57	n/a	REC_WORD	1068285	wordpools/wasnorm_wordpool_less_exclusions.txt	LTP277	ltpFR	12	7	1	MARBLE	867	n/a	0	n/a	0	0	0	n/a	n/a	n/a	n/a	n/a
2144.044	n/a	REC_WORD	1072022	wordpools/wasnorm_wordpool_less_exclusions.txt	LTP277	ltpFR	12	7	1	SNACK	1331	n/a	0	n/a	0	0	0	n/a	n/a	n/a	n/a	n/a
2145.008	n/a	REC_WORD	1072504	wordpools/wasnorm_wordpool_less_exclusions.txt	LTP277	ltpFR	12	7	1	LUNCH	849	n/a	n/a	n/a	0	0	0	n/a	n/a	n/a	n/a	n/a
2149.388	n/a	REC_WORD	1074694	wordpools/wasnorm_wordpool_less_exclusions.txt	LTP277	ltpFR	12	7	1	CUB	419	n/a	0	n/a	0	0	0	n/a	n/a	n/a	n/a	n/a
2150.522	n/a	REC_WORD	1075261	wordpools/wasnorm_wordpool_less_exclusions.txt	LTP277	ltpFR	12	7	1	SCOUT	1252	n/a	1	n/a	0	0	0	n/a	n/a	n/a	n/a	n/a
2175.492	n/a	REC_WORD	1087746	wordpools/wasnorm_wordpool_less_exclusions.txt	LTP277	ltpFR	12	7	1	BROOK	177	n/a	0	n/a	0	0	0	n/a	n/a	n/a	n/a	n/a
2221.764	n/a	WORD	1110882	wordpools/wasnorm_wordpool_less_exclusions.txt	LTP277	ltpFR	12	8	0	TAVERN	1437	n/a	1	n/a	0	0	0	1	0.412841796875	0.57763671875	lower	../fonts/zerothre.ttf
2225.712	n/a	WORD	1112856	wordpools/wasnorm_wordpool_less_exclusions.txt	LTP277	ltpFR	12	8	0	VAGRANT	1544	n/a	1	n/a	0	0	0	1	0.412841796875	0.57763671875	lower	../fonts/zerothre.ttf
2229.86	n/a	WORD	1114930	wordpools/wasnorm_wordpool_less_exclusions.txt	LTP277	ltpFR	12	8	0	RIBBON	1189	n/a	0	n/a	0	0	0	1	0.412841796875	0.57763671875	lower	../fonts/zerothre.ttf
2233.926	n/a	WORD	1116963	wordpools/wasnorm_wordpool_less_exclusions.txt	LTP277	ltpFR	12	8	0	CHAMPION	279	n/a	1	n/a	0	0	0	1	0.412841796875	0.57763671875	lower	../fonts/zerothre.ttf
2237.858	n/a	WORD	1118929	wordpools/wasnorm_wordpool_less_exclusions.txt	LTP277	ltpFR	12	8	0	WAGON	1578	n/a	1	n/a	0	0	0	1	0.412841796875	0.57763671875	lower	../fonts/zerothre.ttf
2241.94	n/a	WORD	1120970	wordpools/wasnorm_wordpool_less_exclusions.txt	LTP277	ltpFR	12	8	0	MARROW	872	n/a	1	n/a	0	0	0	1	0.412841796875	0.57763671875	lower	../fonts/zerothre.ttf
2245.986	n/a	WORD	1122993	wordpools/wasnorm_wordpool_less_exclusions.txt	LTP277	ltpFR	12	8	0	HEDGE	699	n/a	1	n/a	0	0	0	1	0.412841796875	0.57763671875	lower	../fonts/zerothre.ttf
2250.188	n/a	WORD	1125094	wordpools/wasnorm_wordpool_less_exclusions.txt	LTP277	ltpFR	12	8	0	LEAF	808	n/a	1	n/a	0	0	0	1	0.412841796875	0.57763671875	lower	../fonts/zerothre.ttf
2254.354	n/a	WORD	1127177	wordpools/wasnorm_wordpool_less_exclusions.txt	LTP277	ltpFR	12	8	0	NOTE	958	n/a	0	n/a	0	0	0	1	0.412841796875	0.57763671875	lower	../fonts/zerothre.ttf
2258.252	n/a	WORD	1129126	wordpools/wasnorm_wordpool_less_exclusions.txt	LTP277	ltpFR	12	8	0	FURNITURE	616	n/a	1	n/a	0	0	0	1	0.412841796875	0.57763671875	lower	../fonts/zerothre.ttf
2262.384	n/a	WORD	1131192	wordpools/wasnorm_wordpool_less_exclusions.txt	LTP277	ltpFR	12	8	0	CART	250	n/a	1	n/a	0	0	0	1	0.412841796875	0.57763671875	lower	../fonts/zerothre.ttf
2266.216	n/a	WORD	1133108	wordpools/wasnorm_wordpool_less_exclusions.txt	LTP277	ltpFR	12	8	0	WRIST	1626	n/a	0	n/a	0	0	0	1	0.412841796875	0.57763671875	lower	../fonts/zerothre.ttf
2270.064	n/a	WORD	1135032	wordpools/wasnorm_wordpool_less_exclusions.txt	LTP277	ltpFR	12	8	0	MAILBOX	857	n/a	1	n/a	0	0	0	1	0.412841796875	0.57763671875	lower	../fonts/zerothre.ttf
2274.096	n/a	WORD	1137048	wordpools/wasnorm_wordpool_less_exclusions.txt	LTP277	ltpFR	12	8	0	SWIMMER	1420	n/a	1	n/a	0	0	0	1	0.412841796875	0.57763671875	lower	../fonts/zerothre.ttf
2278.212	n/a	WORD	1139106	wordpools/wasnorm_wordpool_less_exclusions.txt	LTP277	ltpFR	12	8	0	MARSH	874	n/a	1	n/a	0	0	0	1	0.412841796875	0.57763671875	lower	../fonts/zerothre.ttf
2282.26	n/a	WORD	1141130	wordpools/wasnorm_wordpool_less_exclusions.txt	LTP277	ltpFR	12	8	0	CREVICE	405	n/a	1	n/a	0	0	0	1	0.412841796875	0.57763671875	lower	../fonts/zerothre.ttf
2285.272	n/a	START	1142636	n/a	LTP277	ltpFR	12	n/a	n/a	n/a	n/a	n/a	n/a	n/a	n/a	n/a	n/a	n/a	n/a	n/a	n/a	n/a
2286.126	n/a	PROB	1143063	n/a	LTP277	ltpFR	12	n/a	n/a	n/a	n/a	n/a	n/a	15	8	5	3	n/a	n/a	n/a	n/a	n/a
2288.6	n/a	PROB	1144300	n/a	LTP277	ltpFR	12	n/a	n/a	n/a	n/a	n/a	n/a	9	5	1	3	n/a	n/a	n/a	n/a	n/a
2290.556	n/a	PROB	1145278	n/a	LTP277	ltpFR	12	n/a	n/a	n/a	n/a	n/a	n/a	14	5	9	3	n/a	n/a	n/a	n/a	n/a
2292.45	n/a	PROB	1146225	n/a	LTP277	ltpFR	12	n/a	n/a	n/a	n/a	n/a	n/a	19	9	5	5	n/a	n/a	n/a	n/a	n/a
2294.558	n/a	PROB	1147279	n/a	LTP277	ltpFR	12	n/a	n/a	n/a	n/a	n/a	n/a	19	8	8	3	n/a	n/a	n/a	n/a	n/a
2296.164	n/a	PROB	1148082	n/a	LTP277	ltpFR	12	n/a	n/a	n/a	n/a	n/a	n/a	14	1	7	6	n/a	n/a	n/a	n/a	n/a
2297.752	n/a	PROB	1148876	n/a	LTP277	ltpFR	12	n/a	n/a	n/a	n/a	n/a	n/a	13	3	4	6	n/a	n/a	n/a	n/a	n/a
2301.274	n/a	STOP	1150637	n/a	LTP277	ltpFR	12	n/a	n/a	n/a	n/a	n/a	n/a	n/a	n/a	n/a	n/a	n/a	n/a	n/a	n/a	n/a
2303.158	n/a	REC_START	1151579	n/a	LTP277	ltpFR	12	8	n/a	n/a	n/a	n/a	n/a	n/a	0	0	0	n/a	n/a	n/a	n/a	n/a
2303.37	n/a	REC_WORD	1151685	wordpools/wasnorm_wordpool_less_exclusions.txt	LTP277	ltpFR	12	8	0	HEDGE	699	n/a	1	n/a	0	0	0	n/a	n/a	n/a	n/a	n/a
2304.092	n/a	REC_WORD	1152046	wordpools/wasnorm_wordpool_less_exclusions.txt	LTP277	ltpFR	12	8	0	LEAF	808	n/a	1	n/a	0	0	0	n/a	n/a	n/a	n/a	n/a
2304.786	n/a	REC_WORD	1152393	wordpools/wasnorm_wordpool_less_exclusions.txt	LTP277	ltpFR	12	8	0	CART	250	n/a	1	n/a	0	0	0	n/a	n/a	n/a	n/a	n/a
2306.3	n/a	REC_WORD	1153150	wordpools/wasnorm_wordpool_less_exclusions.txt	LTP277	ltpFR	12	8	0	FURNITURE	616	n/a	1	n/a	0	0	0	n/a	n/a	n/a	n/a	n/a
2310.198	n/a	REC_WORD	1155099	wordpools/wasnorm_wordpool_less_exclusions.txt	LTP277	ltpFR	12	8	0	WRIST	1626	n/a	0	n/a	0	0	0	n/a	n/a	n/a	n/a	n/a
2310.794	n/a	REC_WORD	1155397	wordpools/wasnorm_wordpool_less_exclusions.txt	LTP277	ltpFR	12	8	0	SWIMMER	1420	n/a	1	n/a	0	0	0	n/a	n/a	n/a	n/a	n/a
2311.626	n/a	REC_WORD	1155813	wordpools/wasnorm_wordpool_less_exclusions.txt	LTP277	ltpFR	12	8	0	CREVICE	405	n/a	1	n/a	0	0	0	n/a	n/a	n/a	n/a	n/a
2312.978	n/a	REC_WORD	1156489	wordpools/wasnorm_wordpool_less_exclusions.txt	LTP277	ltpFR	12	8	0	MARSH	874	n/a	1	n/a	0	0	0	n/a	n/a	n/a	n/a	n/a
2321.392	n/a	REC_WORD	1160696	wordpools/wasnorm_wordpool_less_exclusions.txt	LTP277	ltpFR	12	8	0	TAVERN	1437	n/a	1	n/a	0	0	0	n/a	n/a	n/a	n/a	n/a
2322.97	n/a	REC_WORD	1161485	wordpools/wasnorm_wordpool_less_exclusions.txt	LTP277	ltpFR	12	8	0	VAGRANT	1544	n/a	1	n/a	0	0	0	n/a	n/a	n/a	n/a	n/a
2325.028	n/a	REC_WORD	1162514	wordpools/wasnorm_wordpool_less_exclusions.txt	LTP277	ltpFR	12	8	0	RIBBON	1189	n/a	0	n/a	0	0	0	n/a	n/a	n/a	n/a	n/a
2326.762	n/a	REC_WORD	1163381	wordpools/wasnorm_wordpool_less_exclusions.txt	LTP277	ltpFR	12	8	0	CHAMPION	279	n/a	1	n/a	0	0	0	n/a	n/a	n/a	n/a	n/a
2327.422	n/a	REC_WORD	1163711	wordpools/wasnorm_wordpool_less_exclusions.txt	LTP277	ltpFR	12	8	0	WAGON	1578	n/a	1	n/a	0	0	0	n/a	n/a	n/a	n/a	n/a
2341.594	n/a	REC_WORD	1170797	wordpools/wasnorm_wordpool_less_exclusions.txt	LTP277	ltpFR	12	8	0	MAILBOX	857	n/a	1	n/a	0	0	0	n/a	n/a	n/a	n/a	n/a
2398.238	n/a	START	1199119	n/a	LTP277	ltpFR	12	n/a	n/a	n/a	n/a	n/a	n/a	n/a	n/a	n/a	n/a	n/a	n/a	n/a	n/a	n/a
2399.742	n/a	PROB	1199871	n/a	LTP277	ltpFR	12	n/a	n/a	n/a	n/a	n/a	n/a	11	4	3	4	n/a	n/a	n/a	n/a	n/a
2402.052	n/a	PROB	1201026	n/a	LTP277	ltpFR	12	n/a	n/a	n/a	n/a	n/a	n/a	16	8	6	2	n/a	n/a	n/a	n/a	n/a
2404.042	n/a	PROB	1202021	n/a	LTP277	ltpFR	12	n/a	n/a	n/a	n/a	n/a	n/a	16	7	1	8	n/a	n/a	n/a	n/a	n/a
2405.666	n/a	PROB	1202833	n/a	LTP277	ltpFR	12	n/a	n/a	n/a	n/a	n/a	n/a	18	4	6	8	n/a	n/a	n/a	n/a	n/a
2407.254	n/a	PROB	1203627	n/a	LTP277	ltpFR	12	n/a	n/a	n/a	n/a	n/a	n/a	13	3	5	5	n/a	n/a	n/a	n/a	n/a
2409.294	n/a	PROB	1204647	n/a	LTP277	ltpFR	12	n/a	n/a	n/a	n/a	n/a	n/a	16	3	9	3	n/a	n/a	n/a	n/a	n/a
2411.17	n/a	PROB	1205585	n/a	LTP277	ltpFR	12	n/a	n/a	n/a	n/a	n/a	n/a	14	1	6	7	n/a	n/a	n/a	n/a	n/a
2412.762	n/a	STOP	1206381	n/a	LTP277	ltpFR	12	n/a	n/a	n/a	n/a	n/a	n/a	n/a	n/a	n/a	n/a	n/a	n/a	n/a	n/a	n/a
2415.42	n/a	WORD	1207710	wordpools/wasnorm_wordpool_less_exclusions.txt	LTP277	ltpFR	12	9	0	ALBUM	14	n/a	0	n/a	0	0	0	1	0.412841796875	0.57763671875	lower	../fonts/zerothre.ttf
2418.432	n/a	START	1209216	n/a	LTP277	ltpFR	12	n/a	n/a	n/a	n/a	n/a	n/a	n/a	n/a	n/a	n/a	n/a	n/a	n/a	n/a	n/a
2419.466	n/a	PROB	1209733	n/a	LTP277	ltpFR	12	n/a	n/a	n/a	n/a	n/a	n/a	15	4	8	3	n/a	n/a	n/a	n/a	n/a
2421.008	n/a	PROB	1210504	n/a	LTP277	ltpFR	12	n/a	n/a	n/a	n/a	n/a	n/a	20	9	4	7	n/a	n/a	n/a	n/a	n/a
2423.834	n/a	PROB	1211917	n/a	LTP277	ltpFR	12	n/a	n/a	n/a	n/a	n/a	n/a	5	1	2	2	n/a	n/a	n/a	n/a	n/a
2425.108	n/a	PROB	1212554	n/a	LTP277	ltpFR	12	n/a	n/a	n/a	n/a	n/a	n/a	14	6	4	4	n/a	n/a	n/a	n/a	n/a
2426.412	n/a	PROB	1213206	n/a	LTP277	ltpFR	12	n/a	n/a	n/a	n/a	n/a	n/a	19	4	7	8	n/a	n/a	n/a	n/a	n/a
2429.004	n/a	PROB	1214502	n/a	LTP277	ltpFR	12	n/a	n/a	n/a	n/a	n/a	n/a	12	2	4	6	n/a	n/a	n/a	n/a	n/a
2430.56	n/a	PROB	1215280	n/a	LTP277	ltpFR	12	n/a	n/a	n/a	n/a	n/a	n/a	17	3	6	8	n/a	n/a	n/a	n/a	n/a
2434.432	n/a	STOP	1217216	n/a	LTP277	ltpFR	12	n/a	n/a	n/a	n/a	n/a	n/a	n/a	n/a	n/a	n/a	n/a	n/a	n/a	n/a	n/a
2435.346	n/a	WORD	1217673	wordpools/wasnorm_wordpool_less_exclusions.txt	LTP277	ltpFR	12	9	0	DIAGRAM	456	n/a	0	n/a	0	0	0	1	0.412841796875	0.57763671875	lower	../fonts/zerothre.ttf
2438.358	n/a	START	1219179	n/a	LTP277	ltpFR	12	n/a	n/a	n/a	n/a	n/a	n/a	n/a	n/a	n/a	n/a	n/a	n/a	n/a	n/a	n/a
2439.528	n/a	PROB	1219764	n/a	LTP277	ltpFR	12	n/a	n/a	n/a	n/a	n/a	n/a	15	5	2	8	n/a	n/a	n/a	n/a	n/a
2443.26	n/a	PROB	1221630	n/a	LTP277	ltpFR	12	n/a	n/a	n/a	n/a	n/a	n/a	23	8	8	7	n/a	n/a	n/a	n/a	n/a
2445.884	n/a	PROB	1222942	n/a	LTP277	ltpFR	12	n/a	n/a	n/a	n/a	n/a	n/a	24	9	6	9	n/a	n/a	n/a	n/a	n/a
2449.65	n/a	PROB	1224825	n/a	LTP277	ltpFR	12	n/a	n/a	n/a	n/a	n/a	n/a	12	6	5	1	n/a	n/a	n/a	n/a	n/a
2452.36	n/a	PROB	1226180	n/a	LTP277	ltpFR	12	n/a	n/a	n/a	n/a	n/a	n/a	20	4	8	8	n/a	n/a	n/a	n/a	n/a
2454.14	n/a	STOP	1227070	n/a	LTP277	ltpFR	12	n/a	n/a	n/a	n/a	n/a	n/a	n/a	n/a	n/a	n/a	n/a	n/a	n/a	n/a	n/a
2455.438	n/a	WORD	1227719	wordpools/wasnorm_wordpool_less_exclusions.txt	LTP277	ltpFR	12	9	1	BUSH	202	n/a	0	n/a	0	0	0	0	0.5869140625	0.422607421875	upper	../fonts/amplitud.ttf
2458.452	n/a	START	1229226	n/a	LTP277	ltpFR	12	n/a	n/a	n/a	n/a	n/a	n/a	n/a	n/a	n/a	n/a	n/a	n/a	n/a	n/a	n/a
2459.42	n/a	PROB	1229710	n/a	LTP277	ltpFR	12	n/a	n/a	n/a	n/a	n/a	n/a	14	5	6	3	n/a	n/a	n/a	n/a	n/a
2462.7	n/a	PROB	1231350	n/a	LTP277	ltpFR	12	n/a	n/a	n/a	n/a	n/a	n/a	18	9	5	4	n/a	n/a	n/a	n/a	n/a
2466.014	n/a	PROB	1233007	n/a	LTP277	ltpFR	12	n/a	n/a	n/a	n/a	n/a	n/a	12	1	2	9	n/a	n/a	n/a	n/a	n/a
2467.702	n/a	PROB	1233851	n/a	LTP277	ltpFR	12	n/a	n/a	n/a	n/a	n/a	n/a	18	6	8	4	n/a	n/a	n/a	n/a	n/a
2469.29	n/a	PROB	1234645	n/a	LTP277	ltpFR	12	n/a	n/a	n/a	n/a	n/a	n/a	17	1	9	7	n/a	n/a	n/a	n/a	n/a
2470.83	n/a	PROB	1235415	n/a	LTP277	ltpFR	12	n/a	n/a	n/a	n/a	n/a	n/a	16	8	7	1	n/a	n/a	n/a	n/a	n/a
2473.484	n/a	STOP	1236742	n/a	LTP277	ltpFR	12	n/a	n/a	n/a	n/a	n/a	n/a	n/a	n/a	n/a	n/a	n/a	n/a	n/a	n/a	n/a
2475.348	n/a	WORD	1237674	wordpools/wasnorm_wordpool_less_exclusions.txt	LTP277	ltpFR	12	9	1	LOBSTER	837	n/a	1	n/a	0	0	0	0	0.5869140625	0.422607421875	upper	../fonts/amplitud.ttf
2478.36	n/a	START	1239180	n/a	LTP277	ltpFR	12	n/a	n/a	n/a	n/a	n/a	n/a	n/a	n/a	n/a	n/a	n/a	n/a	n/a	n/a	n/a
2479.564	n/a	PROB	1239782	n/a	LTP277	ltpFR	12	n/a	n/a	n/a	n/a	n/a	n/a	11	6	4	1	n/a	n/a	n/a	n/a	n/a
2481.622	n/a	PROB	1240811	n/a	LTP277	ltpFR	12	n/a	n/a	n/a	n/a	n/a	n/a	14	8	3	3	n/a	n/a	n/a	n/a	n/a
2485.736	n/a	PROB	1242868	n/a	LTP277	ltpFR	12	n/a	n/a	n/a	n/a	n/a	n/a	8	3	3	2	n/a	n/a	n/a	n/a	n/a
2494.36	n/a	STOP	1247180	n/a	LTP277	ltpFR	12	n/a	n/a	n/a	n/a	n/a	n/a	n/a	n/a	n/a	n/a	n/a	n/a	n/a	n/a	n/a
2495.358	n/a	WORD	1247679	wordpools/wasnorm_wordpool_less_exclusions.txt	LTP277	ltpFR	12	9	1	WIRE	1616	n/a	0	n/a	0	0	0	0	0.5869140625	0.422607421875	upper	../fonts/amplitud.ttf
2498.37	n/a	START	1249185	n/a	LTP277	ltpFR	12	n/a	n/a	n/a	n/a	n/a	n/a	n/a	n/a	n/a	n/a	n/a	n/a	n/a	n/a	n/a
2499.542	n/a	PROB	1249771	n/a	LTP277	ltpFR	12	n/a	n/a	n/a	n/a	n/a	n/a	10	6	3	1	n/a	n/a	n/a	n/a	n/a
2504.342	n/a	PROB	1252171	n/a	LTP277	ltpFR	12	n/a	n/a	n/a	n/a	n/a	n/a	13	9	3	1	n/a	n/a	n/a	n/a	n/a
2507.254	n/a	PROB	1253627	n/a	LTP277	ltpFR	12	n/a	n/a	n/a	n/a	n/a	n/a	12	5	4	3	n/a	n/a	n/a	n/a	n/a
2509.946	n/a	PROB	1254973	n/a	LTP277	ltpFR	12	n/a	n/a	n/a	n/a	n/a	n/a	11	1	7	3	n/a	n/a	n/a	n/a	n/a
2512.19	n/a	PROB	1256095	n/a	LTP277	ltpFR	12	n/a	n/a	n/a	n/a	n/a	n/a	21	9	9	3	n/a	n/a	n/a	n/a	n/a
2513.942	n/a	STOP	1256971	n/a	LTP277	ltpFR	12	n/a	n/a	n/a	n/a	n/a	n/a	n/a	n/a	n/a	n/a	n/a	n/a	n/a	n/a	n/a
2515.284	n/a	WORD	1257642	wordpools/wasnorm_wordpool_less_exclusions.txt	LTP277	ltpFR	12	9	1	BRIDGE	174	n/a	0	n/a	0	0	0	0	0.5869140625	0.422607421875	upper	../fonts/amplitud.ttf
2518.296	n/a	START	1259148	n/a	LTP277	ltpFR	12	n/a	n/a	n/a	n/a	n/a	n/a	n/a	n/a	n/a	n/a	n/a	n/a	n/a	n/a	n/a
2519.164	n/a	PROB	1259582	n/a	LTP277	ltpFR	12	n/a	n/a	n/a	n/a	n/a	n/a	14	4	8	2	n/a	n/a	n/a	n/a	n/a
2521.208	n/a	PROB	1260604	n/a	LTP277	ltpFR	12	n/a	n/a	n/a	n/a	n/a	n/a	8	1	3	5	n/a	n/a	n/a	n/a	n/a
2522.846	n/a	PROB	1261423	n/a	LTP277	ltpFR	12	n/a	n/a	n/a	n/a	n/a	n/a	8	4	1	3	n/a	n/a	n/a	n/a	n/a
2525.404	n/a	PROB	1262702	n/a	LTP277	ltpFR	12	n/a	n/a	n/a	n/a	n/a	n/a	8	1	4	3	n/a	n/a	n/a	n/a	n/a
2526.762	n/a	PROB	1263381	n/a	LTP277	ltpFR	12	n/a	n/a	n/a	n/a	n/a	n/a	13	5	6	2	n/a	n/a	n/a	n/a	n/a
2529.824	n/a	PROB	1264912	n/a	LTP277	ltpFR	12	n/a	n/a	n/a	n/a	n/a	n/a	18	9	8	1	n/a	n/a	n/a	n/a	n/a
2532.266	n/a	PROB	1266133	n/a	LTP277	ltpFR	12	n/a	n/a	n/a	n/a	n/a	n/a	13	2	7	4	n/a	n/a	n/a	n/a	n/a
2533.944	n/a	STOP	1266972	n/a	LTP277	ltpFR	12	n/a	n/a	n/a	n/a	n/a	n/a	n/a	n/a	n/a	n/a	n/a	n/a	n/a	n/a	n/a
2535.512	n/a	WORD	1267756	wordpools/wasnorm_wordpool_less_exclusions.txt	LTP277	ltpFR	12	9	1	CELERY	266	n/a	1	n/a	0	0	0	0	0.5869140625	0.422607421875	upper	../fonts/amplitud.ttf
2538.524	n/a	START	1269262	n/a	LTP277	ltpFR	12	n/a	n/a	n/a	n/a	n/a	n/a	n/a	n/a	n/a	n/a	n/a	n/a	n/a	n/a	n/a
2539.594	n/a	PROB	1269797	n/a	LTP277	ltpFR	12	n/a	n/a	n/a	n/a	n/a	n/a	10	6	2	2	n/a	n/a	n/a	n/a	n/a
2541.016	n/a	PROB	1270508	n/a	LTP277	ltpFR	12	n/a	n/a	n/a	n/a	n/a	n/a	13	3	5	5	n/a	n/a	n/a	n/a	n/a
2543.142	n/a	PROB	1271571	n/a	LTP277	ltpFR	12	n/a	n/a	n/a	n/a	n/a	n/a	12	4	2	7	n/a	n/a	n/a	n/a	n/a
2546.57	n/a	PROB	1273285	n/a	LTP277	ltpFR	12	n/a	n/a	n/a	n/a	n/a	n/a	17	8	3	6	n/a	n/a	n/a	n/a	n/a
2554.524	n/a	STOP	1277262	n/a	LTP277	ltpFR	12	n/a	n/a	n/a	n/a	n/a	n/a	n/a	n/a	n/a	n/a	n/a	n/a	n/a	n/a	n/a
2555.62	n/a	WORD	1277810	wordpools/wasnorm_wordpool_less_exclusions.txt	LTP277	ltpFR	12	9	1	DANDRUFF	439	n/a	0	n/a	0	0	0	0	0.5869140625	0.422607421875	upper	../fonts/amplitud.ttf
2558.634	n/a	START	1279317	n/a	LTP277	ltpFR	12	n/a	n/a	n/a	n/a	n/a	n/a	n/a	n/a	n/a	n/a	n/a	n/a	n/a	n/a	n/a
2559.788	n/a	PROB	1279894	n/a	LTP277	ltpFR	12	n/a	n/a	n/a	n/a	n/a	n/a	7	2	2	3	n/a	n/a	n/a	n/a	n/a
2561.996	n/a	PROB	1280998	n/a	LTP277	ltpFR	12	n/a	n/a	n/a	n/a	n/a	n/a	19	9	1	9	n/a	n/a	n/a	n/a	n/a
2563.988	n/a	PROB	1281994	n/a	LTP277	ltpFR	12	n/a	n/a	n/a	n/a	n/a	n/a	12	4	1	7	n/a	n/a	n/a	n/a	n/a
2566.646	n/a	PROB	1283323	n/a	LTP277	ltpFR	12	n/a	n/a	n/a	n/a	n/a	n/a	1	7	1	5	n/a	n/a	n/a	n/a	n/a
2568.27	n/a	PROB	1284135	n/a	LTP277	ltpFR	12	n/a	n/a	n/a	n/a	n/a	n/a	20	3	9	8	n/a	n/a	n/a	n/a	n/a
2570.662	n/a	PROB	1285331	n/a	LTP277	ltpFR	12	n/a	n/a	n/a	n/a	n/a	n/a	13	7	1	5	n/a	n/a	n/a	n/a	n/a
2574.634	n/a	STOP	1287317	n/a	LTP277	ltpFR	12	n/a	n/a	n/a	n/a	n/a	n/a	n/a	n/a	n/a	n/a	n/a	n/a	n/a	n/a	n/a
2575.848	n/a	WORD	1287924	wordpools/wasnorm_wordpool_less_exclusions.txt	LTP277	ltpFR	12	9	0	JUPITER	765	n/a	0	n/a	0	0	0	1	0.412841796875	0.57763671875	lower	../fonts/zerothre.ttf
2578.862	n/a	START	1289431	n/a	LTP277	ltpFR	12	n/a	n/a	n/a	n/a	n/a	n/a	n/a	n/a	n/a	n/a	n/a	n/a	n/a	n/a	n/a
2579.864	n/a	PROB	1289932	n/a	LTP277	ltpFR	12	n/a	n/a	n/a	n/a	n/a	n/a	18	6	5	7	n/a	n/a	n/a	n/a	n/a
2583.896	n/a	PROB	1291948	n/a	LTP277	ltpFR	12	n/a	n/a	n/a	n/a	n/a	n/a	10	4	1	5	n/a	n/a	n/a	n/a	n/a
2585.752	n/a	PROB	1292876	n/a	LTP277	ltpFR	12	n/a	n/a	n/a	n/a	n/a	n/a	9	3	3	3	n/a	n/a	n/a	n/a	n/a
2587.31	n/a	PROB	1293655	n/a	LTP277	ltpFR	12	n/a	n/a	n/a	n/a	n/a	n/a	12	1	8	3	n/a	n/a	n/a	n/a	n/a
2589.082	n/a	PROB	1294541	n/a	LTP277	ltpFR	12	n/a	n/a	n/a	n/a	n/a	n/a	13	7	4	2	n/a	n/a	n/a	n/a	n/a
2593.714	n/a	STOP	1296857	n/a	LTP277	ltpFR	12	n/a	n/a	n/a	n/a	n/a	n/a	n/a	n/a	n/a	n/a	n/a	n/a	n/a	n/a	n/a
2595.96	n/a	WORD	1297980	wordpools/wasnorm_wordpool_less_exclusions.txt	LTP277	ltpFR	12	9	0	STUMP	1396	n/a	0	n/a	0	0	0	1	0.412841796875	0.57763671875	lower	../fonts/zerothre.ttf
2598.972	n/a	START	1299486	n/a	LTP277	ltpFR	12	n/a	n/a	n/a	n/a	n/a	n/a	n/a	n/a	n/a	n/a	n/a	n/a	n/a	n/a	n/a
2599.89	n/a	PROB	1299945	n/a	LTP277	ltpFR	12	n/a	n/a	n/a	n/a	n/a	n/a	19	2	9	8	n/a	n/a	n/a	n/a	n/a
2602.92	n/a	PROB	1301460	n/a	LTP277	ltpFR	12	n/a	n/a	n/a	n/a	n/a	n/a	12	8	2	2	n/a	n/a	n/a	n/a	n/a
2604.508	n/a	PROB	1302254	n/a	LTP277	ltpFR	12	n/a	n/a	n/a	n/a	n/a	n/a	12	1	4	7	n/a	n/a	n/a	n/a	n/a
2606.232	n/a	PROB	1303116	n/a	LTP277	ltpFR	12	n/a	n/a	n/a	n/a	n/a	n/a	8	5	2	1	n/a	n/a	n/a	n/a	n/a
2608.272	n/a	PROB	1304136	n/a	LTP277	ltpFR	12	n/a	n/a	n/a	n/a	n/a	n/a	13	5	4	4	n/a	n/a	n/a	n/a	n/a
2609.946	n/a	PROB	1304973	n/a	LTP277	ltpFR	12	n/a	n/a	n/a	n/a	n/a	n/a	6	1	4	1	n/a	n/a	n/a	n/a	n/a
2612.018	n/a	PROB	1306009	n/a	LTP277	ltpFR	12	n/a	n/a	n/a	n/a	n/a	n/a	13	4	4	5	n/a	n/a	n/a	n/a	n/a
2614.668	n/a	STOP	1307334	n/a	LTP277	ltpFR	12	n/a	n/a	n/a	n/a	n/a	n/a	n/a	n/a	n/a	n/a	n/a	n/a	n/a	n/a	n/a
2615.952	n/a	WORD	1307976	wordpools/wasnorm_wordpool_less_exclusions.txt	LTP277	ltpFR	12	9	0	CITIZEN	312	n/a	1	n/a	0	0	0	1	0.412841796875	0.57763671875	lower	../fonts/zerothre.ttf
2618.964	n/a	START	1309482	n/a	LTP277	ltpFR	12	n/a	n/a	n/a	n/a	n/a	n/a	n/a	n/a	n/a	n/a	n/a	n/a	n/a	n/a	n/a
2619.784	n/a	PROB	1309892	n/a	LTP277	ltpFR	12	n/a	n/a	n/a	n/a	n/a	n/a	13	5	2	6	n/a	n/a	n/a	n/a	n/a
2621.59	n/a	PROB	1310795	n/a	LTP277	ltpFR	12	n/a	n/a	n/a	n/a	n/a	n/a	18	7	5	6	n/a	n/a	n/a	n/a	n/a
2623.53	n/a	PROB	1311765	n/a	LTP277	ltpFR	12	n/a	n/a	n/a	n/a	n/a	n/a	17	8	3	6	n/a	n/a	n/a	n/a	n/a
2625.338	n/a	PROB	1312669	n/a	LTP277	ltpFR	12	n/a	n/a	n/a	n/a	n/a	n/a	9	5	2	2	n/a	n/a	n/a	n/a	n/a
2627.246	n/a	PROB	1313623	n/a	LTP277	ltpFR	12	n/a	n/a	n/a	n/a	n/a	n/a	12	3	7	2	n/a	n/a	n/a	n/a	n/a
2628.834	n/a	PROB	1314417	n/a	LTP277	ltpFR	12	n/a	n/a	n/a	n/a	n/a	n/a	10	3	3	4	n/a	n/a	n/a	n/a	n/a
2634.966	n/a	STOP	1317483	n/a	LTP277	ltpFR	12	n/a	n/a	n/a	n/a	n/a	n/a	n/a	n/a	n/a	n/a	n/a	n/a	n/a	n/a	n/a
2636.146	n/a	WORD	1318073	wordpools/wasnorm_wordpool_less_exclusions.txt	LTP277	ltpFR	12	9	1	SENATOR	1268	n/a	3	n/a	0	0	0	0	0.5869140625	0.422607421875	upper	../fonts/amplitud.ttf
2637.87	n/a	KEY_MSG	1318935	n/a	LTP277	ltpFR	12	9	n/a	n/a	n/a	n/a	n/a	n/a	0	0	0	n/a	n/a	n/a	n/a	n/a
2639.392	n/a	START	1319696	n/a	LTP277	ltpFR	12	n/a	n/a	n/a	n/a	n/a	n/a	n/a	n/a	n/a	n/a	n/a	n/a	n/a	n/a	n/a
2640.228	n/a	PROB	1320114	n/a	LTP277	ltpFR	12	n/a	n/a	n/a	n/a	n/a	n/a	21	8	8	5	n/a	n/a	n/a	n/a	n/a
2641.986	n/a	PROB	1320993	n/a	LTP277	ltpFR	12	n/a	n/a	n/a	n/a	n/a	n/a	10	1	7	2	n/a	n/a	n/a	n/a	n/a
2645.08	n/a	PROB	1322540	n/a	LTP277	ltpFR	12	n/a	n/a	n/a	n/a	n/a	n/a	21	9	5	7	n/a	n/a	n/a	n/a	n/a
2647.656	n/a	PROB	1323828	n/a	LTP277	ltpFR	12	n/a	n/a	n/a	n/a	n/a	n/a	12	3	4	5	n/a	n/a	n/a	n/a	n/a
2649.882	n/a	PROB	1324941	n/a	LTP277	ltpFR	12	n/a	n/a	n/a	n/a	n/a	n/a	20	4	9	7	n/a	n/a	n/a	n/a	n/a
2651.94	n/a	PROB	1325970	n/a	LTP277	ltpFR	12	n/a	n/a	n/a	n/a	n/a	n/a	16	1	9	6	n/a	n/a	n/a	n/a	n/a
2655.394	n/a	STOP	1327697	n/a	LTP277	ltpFR	12	n/a	n/a	n/a	n/a	n/a	n/a	n/a	n/a	n/a	n/a	n/a	n/a	n/a	n/a	n/a
2656.39	n/a	WORD	1328195	wordpools/wasnorm_wordpool_less_exclusions.txt	LTP277	ltpFR	12	9	1	PASSAGE	1019	n/a	0	n/a	0	0	0	0	0.5869140625	0.422607421875	upper	../fonts/amplitud.ttf
2659.402	n/a	START	1329701	n/a	LTP277	ltpFR	12	n/a	n/a	n/a	n/a	n/a	n/a	n/a	n/a	n/a	n/a	n/a	n/a	n/a	n/a	n/a
2660.522	n/a	PROB	1330261	n/a	LTP277	ltpFR	12	n/a	n/a	n/a	n/a	n/a	n/a	12	5	2	5	n/a	n/a	n/a	n/a	n/a
2662.528	n/a	PROB	1331264	n/a	LTP277	ltpFR	12	n/a	n/a	n/a	n/a	n/a	n/a	20	8	6	6	n/a	n/a	n/a	n/a	n/a
2664.856	n/a	PROB	1332428	n/a	LTP277	ltpFR	12	n/a	n/a	n/a	n/a	n/a	n/a	13	4	4	5	n/a	n/a	n/a	n/a	n/a
2667.08	n/a	PROB	1333540	n/a	LTP277	ltpFR	12	n/a	n/a	n/a	n/a	n/a	n/a	15	3	4	8	n/a	n/a	n/a	n/a	n/a
2669.322	n/a	PROB	1334661	n/a	LTP277	ltpFR	12	n/a	n/a	n/a	n/a	n/a	n/a	20	4	9	7	n/a	n/a	n/a	n/a	n/a
2671.48	n/a	PROB	1335740	n/a	LTP277	ltpFR	12	n/a	n/a	n/a	n/a	n/a	n/a	26	8	9	9	n/a	n/a	n/a	n/a	n/a
2674.144	n/a	STOP	1337072	n/a	LTP277	ltpFR	12	n/a	n/a	n/a	n/a	n/a	n/a	n/a	n/a	n/a	n/a	n/a	n/a	n/a	n/a	n/a
2676.518	n/a	WORD	1338259	wordpools/wasnorm_wordpool_less_exclusions.txt	LTP277	ltpFR	12	9	0	SHELF	1280	n/a	1	n/a	0	0	0	1	0.412841796875	0.57763671875	lower	../fonts/zerothre.ttf
2679.53	n/a	START	1339765	n/a	LTP277	ltpFR	12	n/a	n/a	n/a	n/a	n/a	n/a	n/a	n/a	n/a	n/a	n/a	n/a	n/a	n/a	n/a
2680.666	n/a	PROB	1340333	n/a	LTP277	ltpFR	12	n/a	n/a	n/a	n/a	n/a	n/a	21	7	7	7	n/a	n/a	n/a	n/a	n/a
2681.938	n/a	PROB	1340969	n/a	LTP277	ltpFR	12	n/a	n/a	n/a	n/a	n/a	n/a	6	3	1	2	n/a	n/a	n/a	n/a	n/a
2685.298	n/a	PROB	1342649	n/a	LTP277	ltpFR	12	n/a	n/a	n/a	n/a	n/a	n/a	13	6	3	4	n/a	n/a	n/a	n/a	n/a
2687.826	n/a	PROB	1343913	n/a	LTP277	ltpFR	12	n/a	n/a	n/a	n/a	n/a	n/a	14	6	6	2	n/a	n/a	n/a	n/a	n/a
2689.836	n/a	PROB	1344918	n/a	LTP277	ltpFR	12	n/a	n/a	n/a	n/a	n/a	n/a	19	6	7	6	n/a	n/a	n/a	n/a	n/a
2692.446	n/a	PROB	1346223	n/a	LTP277	ltpFR	12	n/a	n/a	n/a	n/a	n/a	n/a	19	6	4	9	n/a	n/a	n/a	n/a	n/a
2695.08	n/a	STOP	1347540	n/a	LTP277	ltpFR	12	n/a	n/a	n/a	n/a	n/a	n/a	n/a	n/a	n/a	n/a	n/a	n/a	n/a	n/a	n/a
2696.46	n/a	WORD	1348230	wordpools/wasnorm_wordpool_less_exclusions.txt	LTP277	ltpFR	12	9	0	SURF	1412	n/a	1	n/a	0	0	0	1	0.412841796875	0.57763671875	lower	../fonts/zerothre.ttf
2699.472	n/a	START	1349736	n/a	LTP277	ltpFR	12	n/a	n/a	n/a	n/a	n/a	n/a	n/a	n/a	n/a	n/a	n/a	n/a	n/a	n/a	n/a
2700.458	n/a	PROB	1350229	n/a	LTP277	ltpFR	12	n/a	n/a	n/a	n/a	n/a	n/a	13	2	7	4	n/a	n/a	n/a	n/a	n/a
2702.832	n/a	PROB	1351416	n/a	LTP277	ltpFR	12	n/a	n/a	n/a	n/a	n/a	n/a	20	7	5	8	n/a	n/a	n/a	n/a	n/a
2706.682	n/a	PROB	1353341	n/a	LTP277	ltpFR	12	n/a	n/a	n/a	n/a	n/a	n/a	18	4	8	6	n/a	n/a	n/a	n/a	n/a
2708.622	n/a	PROB	1354311	n/a	LTP277	ltpFR	12	n/a	n/a	n/a	n/a	n/a	n/a	17	7	1	9	n/a	n/a	n/a	n/a	n/a
2711.316	n/a	PROB	1355658	n/a	LTP277	ltpFR	12	n/a	n/a	n/a	n/a	n/a	n/a	17	7	7	3	n/a	n/a	n/a	n/a	n/a
2715.474	n/a	STOP	1357737	n/a	LTP277	ltpFR	12	n/a	n/a	n/a	n/a	n/a	n/a	n/a	n/a	n/a	n/a	n/a	n/a	n/a	n/a	n/a
2716.602	n/a	WORD	1358301	wordpools/wasnorm_wordpool_less_exclusions.txt	LTP277	ltpFR	12	9	0	DIGGER	464	n/a	1	n/a	0	0	0	1	0.412841796875	0.57763671875	lower	../fonts/zerothre.ttf
2719.614	n/a	START	1359807	n/a	LTP277	ltpFR	12	n/a	n/a	n/a	n/a	n/a	n/a	n/a	n/a	n/a	n/a	n/a	n/a	n/a	n/a	n/a
2720.736	n/a	PROB	1360368	n/a	LTP277	ltpFR	12	n/a	n/a	n/a	n/a	n/a	n/a	9	4	1	4	n/a	n/a	n/a	n/a	n/a
2721.99	n/a	PROB	1360995	n/a	LTP277	ltpFR	12	n/a	n/a	n/a	n/a	n/a	n/a	18	2	9	7	n/a	n/a	n/a	n/a	n/a
2723.464	n/a	PROB	1361732	n/a	LTP277	ltpFR	12	n/a	n/a	n/a	n/a	n/a	n/a	22	6	8	8	n/a	n/a	n/a	n/a	n/a
2726.658	n/a	PROB	1363329	n/a	LTP277	ltpFR	12	n/a	n/a	n/a	n/a	n/a	n/a	19	8	9	2	n/a	n/a	n/a	n/a	n/a
2728.632	n/a	PROB	1364316	n/a	LTP277	ltpFR	12	n/a	n/a	n/a	n/a	n/a	n/a	8	1	6	1	n/a	n/a	n/a	n/a	n/a
2729.836	n/a	PROB	1364918	n/a	LTP277	ltpFR	12	n/a	n/a	n/a	n/a	n/a	n/a	9	5	2	2	n/a	n/a	n/a	n/a	n/a
2731.662	n/a	PROB	1365831	n/a	LTP277	ltpFR	12	n/a	n/a	n/a	n/a	n/a	n/a	22	9	6	7	n/a	n/a	n/a	n/a	n/a
2734.41	n/a	STOP	1367205	n/a	LTP277	ltpFR	12	n/a	n/a	n/a	n/a	n/a	n/a	n/a	n/a	n/a	n/a	n/a	n/a	n/a	n/a	n/a
2737.552	n/a	REC_START	1368776	n/a	LTP277	ltpFR	12	9	n/a	n/a	n/a	n/a	n/a	n/a	0	0	0	n/a	n/a	n/a	n/a	n/a
2738.274	n/a	REC_WORD	1369137	wordpools/wasnorm_wordpool_less_exclusions.txt	LTP277	ltpFR	12	9	0	SHELF	1280	n/a	1	n/a	0	0	0	n/a	n/a	n/a	n/a	n/a
2738.86	n/a	REC_WORD	1369430	wordpools/wasnorm_wordpool_less_exclusions.txt	LTP277	ltpFR	12	9	0	SURF	1412	n/a	1	n/a	0	0	0	n/a	n/a	n/a	n/a	n/a
2739.81	n/a	REC_WORD	1369905	wordpools/wasnorm_wordpool_less_exclusions.txt	LTP277	ltpFR	12	9	0	DIGGER	464	n/a	1	n/a	0	0	0	n/a	n/a	n/a	n/a	n/a
2742.108	n/a	REC_WORD	1371054	wordpools/wasnorm_wordpool_less_exclusions.txt	LTP277	ltpFR	12	9	0	DIGGER	464	n/a	1	n/a	0	0	0	n/a	n/a	n/a	n/a	n/a
2743.348	n/a	REC_WORD_VV	1371674	wordpools/wasnorm_wordpool_less_exclusions.txt	LTP277	ltpFR	12	9	n/a	<>	-1	n/a	n/a	n/a	0	0	0	n/a	n/a	n/a	n/a	n/a
2743.92	n/a	REC_WORD_VV	1371960	wordpools/wasnorm_wordpool_less_exclusions.txt	LTP277	ltpFR	12	9	n/a	<>	-1	n/a	n/a	n/a	0	0	0	n/a	n/a	n/a	n/a	n/a
2745.004	n/a	REC_WORD	1372502	wordpools/wasnorm_wordpool_less_exclusions.txt	LTP277	ltpFR	12	9	1	SENATOR	1268	n/a	3	n/a	0	0	0	n/a	n/a	n/a	n/a	n/a
2750.172	n/a	REC_WORD	1375086	wordpools/wasnorm_wordpool_less_exclusions.txt	LTP277	ltpFR	12	9	0	ALBUM	14	n/a	0	n/a	0	0	0	n/a	n/a	n/a	n/a	n/a
2751.146	n/a	REC_WORD	1375573	wordpools/wasnorm_wordpool_less_exclusions.txt	LTP277	ltpFR	12	9	0	DIAGRAM	456	n/a	0	n/a	0	0	0	n/a	n/a	n/a	n/a	n/a
2752.178	n/a	REC_WORD	1376089	wordpools/wasnorm_wordpool_less_exclusions.txt	LTP277	ltpFR	12	9	1	BUSH	202	n/a	0	n/a	0	0	0	n/a	n/a	n/a	n/a	n/a
2753.872	n/a	REC_WORD	1376936	wordpools/wasnorm_wordpool_less_exclusions.txt	LTP277	ltpFR	12	9	1	LOBSTER	837	n/a	1	n/a	0	0	0	n/a	n/a	n/a	n/a	n/a
2754.73	n/a	REC_WORD	1377365	wordpools/wasnorm_wordpool_less_exclusions.txt	LTP277	ltpFR	12	9	1	WIRE	1616	n/a	0	n/a	0	0	0	n/a	n/a	n/a	n/a	n/a
2759.292	n/a	REC_WORD	1379646	wordpools/wasnorm_wordpool_less_exclusions.txt	LTP277	ltpFR	12	9	1	BRIDGE	174	n/a	0	n/a	0	0	0	n/a	n/a	n/a	n/a	n/a
2762.008	n/a	REC_WORD_VV	1381004	wordpools/wasnorm_wordpool_less_exclusions.txt	LTP277	ltpFR	12	9	n/a	<>	-1	n/a	n/a	n/a	0	0	0	n/a	n/a	n/a	n/a	n/a
2763.008	n/a	REC_WORD_VV	1381504	wordpools/wasnorm_wordpool_less_exclusions.txt	LTP277	ltpFR	12	9	n/a	<>	-1	n/a	n/a	n/a	0	0	0	n/a	n/a	n/a	n/a	n/a
2763.634	n/a	REC_WORD	1381817	wordpools/wasnorm_wordpool_less_exclusions.txt	LTP277	ltpFR	12	9	1	CELERY	266	n/a	1	n/a	0	0	0	n/a	n/a	n/a	n/a	n/a
2765.898	n/a	REC_WORD	1382949	wordpools/wasnorm_wordpool_less_exclusions.txt	LTP277	ltpFR	12	9	1	DANDRUFF	439	n/a	0	n/a	0	0	0	n/a	n/a	n/a	n/a	n/a
2846.5	n/a	WORD	1423250	wordpools/wasnorm_wordpool_less_exclusions.txt	LTP277	ltpFR	12	10	1	POTATO	1115	n/a	1	n/a	0	0	0	0	0.5869140625	0.422607421875	upper	../fonts/amplitud.ttf
2850.498	n/a	WORD	1425249	wordpools/wasnorm_wordpool_less_exclusions.txt	LTP277	ltpFR	12	10	1	ELK	526	n/a	1	n/a	0	0	0	0	0.5869140625	0.422607421875	upper	../fonts/amplitud.ttf
2854.662	n/a	WORD	1427331	wordpools/wasnorm_wordpool_less_exclusions.txt	LTP277	ltpFR	12	10	1	WINE	1613	n/a	1	n/a	0	0	0	0	0.5869140625	0.422607421875	upper	../fonts/amplitud.ttf
2858.68	n/a	WORD	1429340	wordpools/wasnorm_wordpool_less_exclusions.txt	LTP277	ltpFR	12	10	1	TUTU	1524	n/a	0	n/a	0	0	0	0	0.5869140625	0.422607421875	upper	../fonts/amplitud.ttf
2862.796	n/a	WORD	1431398	wordpools/wasnorm_wordpool_less_exclusions.txt	LTP277	ltpFR	12	10	0	MOOSE	915	n/a	1	n/a	0	0	0	1	0.412841796875	0.57763671875	lower	../fonts/zerothre.ttf
2866.678	n/a	WORD	1433339	wordpools/wasnorm_wordpool_less_exclusions.txt	LTP277	ltpFR	12	10	0	HAMBURGER	679	n/a	1	n/a	0	0	0	1	0.412841796875	0.57763671875	lower	../fonts/zerothre.ttf
2870.592	n/a	WORD	1435296	wordpools/wasnorm_wordpool_less_exclusions.txt	LTP277	ltpFR	12	10	1	BASKETBALL	96	n/a	1	n/a	0	0	0	0	0.5869140625	0.422607421875	upper	../fonts/amplitud.ttf
2874.44	n/a	WORD	1437220	wordpools/wasnorm_wordpool_less_exclusions.txt	LTP277	ltpFR	12	10	1	NUN	962	n/a	1	n/a	0	0	0	0	0.5869140625	0.422607421875	upper	../fonts/amplitud.ttf
2878.64	n/a	WORD	1439320	wordpools/wasnorm_wordpool_less_exclusions.txt	LTP277	ltpFR	12	10	1	SAP	1233	n/a	0	n/a	0	0	0	0	0.5869140625	0.422607421875	upper	../fonts/amplitud.ttf
2882.654	n/a	WORD	1441327	wordpools/wasnorm_wordpool_less_exclusions.txt	LTP277	ltpFR	12	10	1	BUS	201	n/a	0	n/a	0	0	0	0	0.5869140625	0.422607421875	upper	../fonts/amplitud.ttf
2886.57	n/a	WORD	1443285	wordpools/wasnorm_wordpool_less_exclusions.txt	LTP277	ltpFR	12	10	0	DRILL	497	n/a	0	n/a	0	0	0	1	0.412841796875	0.57763671875	lower	../fonts/zerothre.ttf
2890.736	n/a	WORD	1445368	wordpools/wasnorm_wordpool_less_exclusions.txt	LTP277	ltpFR	12	10	0	CABINET	212	n/a	1	n/a	0	0	0	1	0.412841796875	0.57763671875	lower	../fonts/zerothre.ttf
2894.616	n/a	WORD	1447308	wordpools/wasnorm_wordpool_less_exclusions.txt	LTP277	ltpFR	12	10	0	CAR	241	n/a	1	n/a	0	0	0	1	0.412841796875	0.57763671875	lower	../fonts/zerothre.ttf
2898.466	n/a	WORD	1449233	wordpools/wasnorm_wordpool_less_exclusions.txt	LTP277	ltpFR	12	10	0	VAN	1548	n/a	1	n/a	0	0	0	1	0.412841796875	0.57763671875	lower	../fonts/zerothre.ttf
2902.498	n/a	WORD	1451249	wordpools/wasnorm_wordpool_less_exclusions.txt	LTP277	ltpFR	12	10	0	TYPIST	1532	n/a	1	n/a	0	0	0	1	0.412841796875	0.57763671875	lower	../fonts/zerothre.ttf
2906.564	n/a	WORD	1453282	wordpools/wasnorm_wordpool_less_exclusions.txt	LTP277	ltpFR	12	10	0	EMPLOYEE	531	n/a	1	n/a	0	0	0	1	0.412841796875	0.57763671875	lower	../fonts/zerothre.ttf
2912.186	n/a	REC_START	1456093	n/a	LTP277	ltpFR	12	10	n/a	n/a	n/a	n/a	n/a	n/a	0	0	0	n/a	n/a	n/a	n/a	n/a
2912.54	n/a	REC_WORD	1456270	wordpools/wasnorm_wordpool_less_exclusions.txt	LTP277	ltpFR	12	10	0	DRILL	497	n/a	0	n/a	0	0	0	n/a	n/a	n/a	n/a	n/a
2913.112	n/a	REC_WORD	1456556	wordpools/wasnorm_wordpool_less_exclusions.txt	LTP277	ltpFR	12	10	0	CABINET	212	n/a	1	n/a	0	0	0	n/a	n/a	n/a	n/a	n/a
2913.672	n/a	REC_WORD	1456836	wordpools/wasnorm_wordpool_less_exclusions.txt	LTP277	ltpFR	12	10	0	VAN	1548	n/a	1	n/a	0	0	0	n/a	n/a	n/a	n/a	n/a
2914.344	n/a	REC_WORD	1457172	wordpools/wasnorm_wordpool_less_exclusions.txt	LTP277	ltpFR	12	10	0	CAR	241	n/a	1	n/a	0	0	0	n/a	n/a	n/a	n/a	n/a
2915.042	n/a	REC_WORD	1457521	wordpools/wasnorm_wordpool_less_exclusions.txt	LTP277	ltpFR	12	10	0	TYPIST	1532	n/a	1	n/a	0	0	0	n/a	n/a	n/a	n/a	n/a
2915.686	n/a	REC_WORD	1457843	wordpools/wasnorm_wordpool_less_exclusions.txt	LTP277	ltpFR	12	10	0	EMPLOYEE	531	n/a	1	n/a	0	0	0	n/a	n/a	n/a	n/a	n/a
2919.388	n/a	REC_WORD	1459694	wordpools/wasnorm_wordpool_less_exclusions.txt	LTP277	ltpFR	12	10	1	NUN	962	n/a	1	n/a	0	0	0	n/a	n/a	n/a	n/a	n/a
2920.196	n/a	REC_WORD	1460098	wordpools/wasnorm_wordpool_less_exclusions.txt	LTP277	ltpFR	12	10	1	BASKETBALL	96	n/a	1	n/a	0	0	0	n/a	n/a	n/a	n/a	n/a
2921.52	n/a	REC_WORD	1460760	wordpools/wasnorm_wordpool_less_exclusions.txt	LTP277	ltpFR	12	10	1	BUS	201	n/a	0	n/a	0	0	0	n/a	n/a	n/a	n/a	n/a
2932.58	n/a	REC_WORD	1466290	wordpools/wasnorm_wordpool_less_exclusions.txt	LTP277	ltpFR	12	10	1	POTATO	1115	n/a	1	n/a	0	0	0	n/a	n/a	n/a	n/a	n/a
2933.284	n/a	REC_WORD	1466642	wordpools/wasnorm_wordpool_less_exclusions.txt	LTP277	ltpFR	12	10	1	ELK	526	n/a	1	n/a	0	0	0	n/a	n/a	n/a	n/a	n/a
2933.896	n/a	REC_WORD	1466948	wordpools/wasnorm_wordpool_less_exclusions.txt	LTP277	ltpFR	12	10	0	MOOSE	915	n/a	1	n/a	0	0	0	n/a	n/a	n/a	n/a	n/a
2934.52	n/a	REC_WORD	1467260	wordpools/wasnorm_wordpool_less_exclusions.txt	LTP277	ltpFR	12	10	0	HAMBURGER	679	n/a	1	n/a	0	0	0	n/a	n/a	n/a	n/a	n/a
2938.82	n/a	REC_WORD	1469410	wordpools/wasnorm_wordpool_less_exclusions.txt	LTP277	ltpFR	12	10	1	TUTU	1524	n/a	0	n/a	0	0	0	n/a	n/a	n/a	n/a	n/a
2943.18	n/a	REC_WORD	1471590	wordpools/wasnorm_wordpool_less_exclusions.txt	LTP277	ltpFR	12	10	1	WINE	1613	n/a	1	n/a	0	0	0	n/a	n/a	n/a	n/a	n/a
2974.88	n/a	REC_WORD	1487440	wordpools/wasnorm_wordpool_less_exclusions.txt	LTP277	ltpFR	12	10	n/a	DRIVE	-1	n/a	n/a	n/a	0	0	0	n/a	n/a	n/a	n/a	n/a
2992.46	n/a	START	1496230	n/a	LTP277	ltpFR	12	n/a	n/a	n/a	n/a	n/a	n/a	n/a	n/a	n/a	n/a	n/a	n/a	n/a	n/a	n/a
2993.964	n/a	PROB	1496982	n/a	LTP277	ltpFR	12	n/a	n/a	n/a	n/a	n/a	n/a	27	8	9	8	n/a	n/a	n/a	n/a	n/a
2997.192	n/a	PROB	1498596	n/a	LTP277	ltpFR	12	n/a	n/a	n/a	n/a	n/a	n/a	20	8	3	9	n/a	n/a	n/a	n/a	n/a
2999.536	n/a	STOP	1499768	n/a	LTP277	ltpFR	12	n/a	n/a	n/a	n/a	n/a	n/a	n/a	n/a	n/a	n/a	n/a	n/a	n/a	n/a	n/a
3001.56	n/a	WORD	1500780	wordpools/wasnorm_wordpool_less_exclusions.txt	LTP277	ltpFR	12	11	1	SHELL	1281	n/a	0	n/a	0	0	0	0	0.5869140625	0.422607421875	upper	../fonts/amplitud.ttf
3004.572	n/a	START	1502286	n/a	LTP277	ltpFR	12	n/a	n/a	n/a	n/a	n/a	n/a	n/a	n/a	n/a	n/a	n/a	n/a	n/a	n/a	n/a
3005.658	n/a	PROB	1502829	n/a	LTP277	ltpFR	12	n/a	n/a	n/a	n/a	n/a	n/a	13	7	5	1	n/a	n/a	n/a	n/a	n/a
3009.354	n/a	PROB	1504677	n/a	LTP277	ltpFR	12	n/a	n/a	n/a	n/a	n/a	n/a	10	8	1	1	n/a	n/a	n/a	n/a	n/a
