onset	duration	trial_type	sample	stim_file	subject	experiment	session	trial	task	item_name	item_num	recog_resp	recog_conf	resp	answer	test_x	test_y	test_z	color_r	color_g	color_b	case	font
232.618	n/a	SESS_START	116309	n/a	LTP127	ltpFR	8	n/a	n/a	n/a	n/a	0	3	n/a	n/a	0	0	0	n/a	n/a	n/a	n/a	n/a
290.808	n/a	START	145404	n/a	LTP127	ltpFR	8	n/a	n/a	n/a	n/a	n/a	n/a	n/a	n/a	n/a	n/a	n/a	n/a	n/a	n/a	n/a	n/a
290.834	n/a	PROB	145417	n/a	LTP127	ltpFR	8	n/a	n/a	n/a	n/a	n/a	n/a	n/a	15	6	6	3	n/a	n/a	n/a	n/a	n/a
293.05	n/a	PROB	146525	n/a	LTP127	ltpFR	8	n/a	n/a	n/a	n/a	n/a	n/a	n/a	19	4	7	8	n/a	n/a	n/a	n/a	n/a
296.332	n/a	PROB	148166	n/a	LTP127	ltpFR	8	n/a	n/a	n/a	n/a	n/a	n/a	n/a	10	2	4	4	n/a	n/a	n/a	n/a	n/a
298.04	n/a	PROB	149020	n/a	LTP127	ltpFR	8	n/a	n/a	n/a	n/a	n/a	n/a	n/a	13	7	4	2	n/a	n/a	n/a	n/a	n/a
300.03	n/a	PROB	150015	n/a	LTP127	ltpFR	8	n/a	n/a	n/a	n/a	n/a	n/a	n/a	12	4	7	1	n/a	n/a	n/a	n/a	n/a
302.28	n/a	PROB	151140	n/a	LTP127	ltpFR	8	n/a	n/a	n/a	n/a	n/a	n/a	n/a	17	9	4	5	n/a	n/a	n/a	n/a	n/a
305.93	n/a	PROB	152965	n/a	LTP127	ltpFR	8	n/a	n/a	n/a	n/a	n/a	n/a	n/a	20	7	9	4	n/a	n/a	n/a	n/a	n/a
308.686	n/a	PROB	154343	n/a	LTP127	ltpFR	8	n/a	n/a	n/a	n/a	n/a	n/a	n/a	11	7	3	1	n/a	n/a	n/a	n/a	n/a
310.196	n/a	STOP	155098	n/a	LTP127	ltpFR	8	n/a	n/a	n/a	n/a	n/a	n/a	n/a	n/a	n/a	n/a	n/a	n/a	n/a	n/a	n/a	n/a
359.68	n/a	START	179840	n/a	LTP127	ltpFR	8	n/a	n/a	n/a	n/a	n/a	n/a	n/a	n/a	n/a	n/a	n/a	n/a	n/a	n/a	n/a	n/a
361.188	n/a	PROB	180594	n/a	LTP127	ltpFR	8	n/a	n/a	n/a	n/a	n/a	n/a	n/a	21	8	6	5	n/a	n/a	n/a	n/a	n/a
363.162	n/a	PROB	181581	n/a	LTP127	ltpFR	8	n/a	n/a	n/a	n/a	n/a	n/a	n/a	20	9	7	4	n/a	n/a	n/a	n/a	n/a
365.46	n/a	PROB	182730	n/a	LTP127	ltpFR	8	n/a	n/a	n/a	n/a	n/a	n/a	n/a	15	3	6	6	n/a	n/a	n/a	n/a	n/a
367.52	n/a	STOP	183760	n/a	LTP127	ltpFR	8	n/a	n/a	n/a	n/a	n/a	n/a	n/a	n/a	n/a	n/a	n/a	n/a	n/a	n/a	n/a	n/a
368.634	n/a	WORD	184317	wordpools/wasnorm_wordpool.txt	LTP127	ltpFR	8	1	1	SUNRISE	1407	1	n/a	0	n/a	0	0	0	0.422607421875	0.5869140625	0	lower	zerothre.ttf
371.642	n/a	START	185821	n/a	LTP127	ltpFR	8	n/a	n/a	n/a	n/a	n/a	n/a	n/a	n/a	n/a	n/a	n/a	n/a	n/a	n/a	n/a	n/a
372.834	n/a	PROB	186417	n/a	LTP127	ltpFR	8	n/a	n/a	n/a	n/a	n/a	n/a	n/a	20	9	9	2	n/a	n/a	n/a	n/a	n/a
376.792	n/a	PROB	188396	n/a	LTP127	ltpFR	8	n/a	n/a	n/a	n/a	n/a	n/a	n/a	15	4	8	3	n/a	n/a	n/a	n/a	n/a
378.424	n/a	STOP	189212	n/a	LTP127	ltpFR	8	n/a	n/a	n/a	n/a	n/a	n/a	n/a	n/a	n/a	n/a	n/a	n/a	n/a	n/a	n/a	n/a
380.68	n/a	WORD	190340	wordpools/wasnorm_wordpool.txt	LTP127	ltpFR	8	1	1	MOON	914	n/a	n/a	0	n/a	0	0	0	0.422607421875	0.5869140625	0	lower	zerothre.ttf
383.688	n/a	START	191844	n/a	LTP127	ltpFR	8	n/a	n/a	n/a	n/a	n/a	n/a	n/a	n/a	n/a	n/a	n/a	n/a	n/a	n/a	n/a	n/a
384.538	n/a	PROB	192269	n/a	LTP127	ltpFR	8	n/a	n/a	n/a	n/a	n/a	n/a	n/a	17	1	9	7	n/a	n/a	n/a	n/a	n/a
386.462	n/a	PROB	193231	n/a	LTP127	ltpFR	8	n/a	n/a	n/a	n/a	n/a	n/a	n/a	8	3	1	4	n/a	n/a	n/a	n/a	n/a
388.52	n/a	PROB	194260	n/a	LTP127	ltpFR	8	n/a	n/a	n/a	n/a	n/a	n/a	n/a	11	2	8	1	n/a	n/a	n/a	n/a	n/a
390.224	n/a	STOP	195112	n/a	LTP127	ltpFR	8	n/a	n/a	n/a	n/a	n/a	n/a	n/a	n/a	n/a	n/a	n/a	n/a	n/a	n/a	n/a	n/a
392.668	n/a	WORD	196334	wordpools/wasnorm_wordpool.txt	LTP127	ltpFR	8	1	1	CAKE	219	n/a	n/a	0	n/a	0	0	0	0.422607421875	0.5869140625	0	lower	zerothre.ttf
395.676	n/a	START	197838	n/a	LTP127	ltpFR	8	n/a	n/a	n/a	n/a	n/a	n/a	n/a	n/a	n/a	n/a	n/a	n/a	n/a	n/a	n/a	n/a
396.736	n/a	PROB	198368	n/a	LTP127	ltpFR	8	n/a	n/a	n/a	n/a	n/a	n/a	n/a	21	8	5	8	n/a	n/a	n/a	n/a	n/a
400.034	n/a	PROB	200017	n/a	LTP127	ltpFR	8	n/a	n/a	n/a	n/a	n/a	n/a	n/a	19	7	9	3	n/a	n/a	n/a	n/a	n/a
401.966	n/a	PROB	200983	n/a	LTP127	ltpFR	8	n/a	n/a	n/a	n/a	n/a	n/a	n/a	24	9	9	6	n/a	n/a	n/a	n/a	n/a
403.514	n/a	STOP	201757	n/a	LTP127	ltpFR	8	n/a	n/a	n/a	n/a	n/a	n/a	n/a	n/a	n/a	n/a	n/a	n/a	n/a	n/a	n/a	n/a
404.724	n/a	WORD	202362	wordpools/wasnorm_wordpool.txt	LTP127	ltpFR	8	1	1	ANTELOPE	27	n/a	n/a	1	n/a	0	0	0	0.422607421875	0.5869140625	0	lower	zerothre.ttf
407.732	n/a	START	203866	n/a	LTP127	ltpFR	8	n/a	n/a	n/a	n/a	n/a	n/a	n/a	n/a	n/a	n/a	n/a	n/a	n/a	n/a	n/a	n/a
408.714	n/a	PROB	204357	n/a	LTP127	ltpFR	8	n/a	n/a	n/a	n/a	n/a	n/a	n/a	15	7	3	5	n/a	n/a	n/a	n/a	n/a
410.38	n/a	PROB	205190	n/a	LTP127	ltpFR	8	n/a	n/a	n/a	n/a	n/a	n/a	n/a	9	2	6	1	n/a	n/a	n/a	n/a	n/a
412.472	n/a	PROB	206236	n/a	LTP127	ltpFR	8	n/a	n/a	n/a	n/a	n/a	n/a	n/a	15	6	2	7	n/a	n/a	n/a	n/a	n/a
414.946	n/a	STOP	207473	n/a	LTP127	ltpFR	8	n/a	n/a	n/a	n/a	n/a	n/a	n/a	n/a	n/a	n/a	n/a	n/a	n/a	n/a	n/a	n/a
416.612	n/a	WORD	208306	wordpools/wasnorm_wordpool.txt	LTP127	ltpFR	8	1	1	SENATE	1267	n/a	n/a	1	n/a	0	0	0	0.422607421875	0.5869140625	0	lower	zerothre.ttf
419.62	n/a	START	209810	n/a	LTP127	ltpFR	8	n/a	n/a	n/a	n/a	n/a	n/a	n/a	n/a	n/a	n/a	n/a	n/a	n/a	n/a	n/a	n/a
420.486	n/a	PROB	210243	n/a	LTP127	ltpFR	8	n/a	n/a	n/a	n/a	n/a	n/a	n/a	10	2	2	6	n/a	n/a	n/a	n/a	n/a
423.876	n/a	PROB	211938	n/a	LTP127	ltpFR	8	n/a	n/a	n/a	n/a	n/a	n/a	n/a	13	7	1	5	n/a	n/a	n/a	n/a	n/a
426.826	n/a	STOP	213413	n/a	LTP127	ltpFR	8	n/a	n/a	n/a	n/a	n/a	n/a	n/a	n/a	n/a	n/a	n/a	n/a	n/a	n/a	n/a	n/a
428.474	n/a	WORD	214237	wordpools/wasnorm_wordpool.txt	LTP127	ltpFR	8	1	1	BAKER	71	n/a	n/a	1	n/a	0	0	0	0.422607421875	0.5869140625	0	lower	zerothre.ttf
431.482	n/a	START	215741	n/a	LTP127	ltpFR	8	n/a	n/a	n/a	n/a	n/a	n/a	n/a	n/a	n/a	n/a	n/a	n/a	n/a	n/a	n/a	n/a
432.306	n/a	PROB	216153	n/a	LTP127	ltpFR	8	n/a	n/a	n/a	n/a	n/a	n/a	n/a	12	5	1	6	n/a	n/a	n/a	n/a	n/a
435.724	n/a	PROB	217862	n/a	LTP127	ltpFR	8	n/a	n/a	n/a	n/a	n/a	n/a	n/a	12	1	7	4	n/a	n/a	n/a	n/a	n/a
438.172	n/a	STOP	219086	n/a	LTP127	ltpFR	8	n/a	n/a	n/a	n/a	n/a	n/a	n/a	n/a	n/a	n/a	n/a	n/a	n/a	n/a	n/a	n/a
440.438	n/a	WORD	220219	wordpools/wasnorm_wordpool.txt	LTP127	ltpFR	8	1	1	CHOCOLATE	306	n/a	n/a	0	n/a	0	0	0	0.422607421875	0.5869140625	0	lower	zerothre.ttf
443.446	n/a	START	221723	n/a	LTP127	ltpFR	8	n/a	n/a	n/a	n/a	n/a	n/a	n/a	n/a	n/a	n/a	n/a	n/a	n/a	n/a	n/a	n/a
444.262	n/a	PROB	222131	n/a	LTP127	ltpFR	8	n/a	n/a	n/a	n/a	n/a	n/a	n/a	13	4	4	5	n/a	n/a	n/a	n/a	n/a
446.544	n/a	PROB	223272	n/a	LTP127	ltpFR	8	n/a	n/a	n/a	n/a	n/a	n/a	n/a	14	2	3	9	n/a	n/a	n/a	n/a	n/a
448.778	n/a	PROB	224389	n/a	LTP127	ltpFR	8	n/a	n/a	n/a	n/a	n/a	n/a	n/a	153	5	9	1	n/a	n/a	n/a	n/a	n/a
450.596	n/a	STOP	225298	n/a	LTP127	ltpFR	8	n/a	n/a	n/a	n/a	n/a	n/a	n/a	n/a	n/a	n/a	n/a	n/a	n/a	n/a	n/a	n/a
452.434	n/a	WORD	226217	wordpools/wasnorm_wordpool.txt	LTP127	ltpFR	8	1	1	THORN	1459	n/a	n/a	1	n/a	0	0	0	0.422607421875	0.5869140625	0	lower	zerothre.ttf
455.442	n/a	START	227721	n/a	LTP127	ltpFR	8	n/a	n/a	n/a	n/a	n/a	n/a	n/a	n/a	n/a	n/a	n/a	n/a	n/a	n/a	n/a	n/a
456.334	n/a	PROB	228167	n/a	LTP127	ltpFR	8	n/a	n/a	n/a	n/a	n/a	n/a	n/a	13	4	2	6	n/a	n/a	n/a	n/a	n/a
458.042	n/a	PROB	229021	n/a	LTP127	ltpFR	8	n/a	n/a	n/a	n/a	n/a	n/a	n/a	10	1	1	8	n/a	n/a	n/a	n/a	n/a
459.782	n/a	PROB	229891	n/a	LTP127	ltpFR	8	n/a	n/a	n/a	n/a	n/a	n/a	n/a	24	9	8	7	n/a	n/a	n/a	n/a	n/a
463.268	n/a	STOP	231634	n/a	LTP127	ltpFR	8	n/a	n/a	n/a	n/a	n/a	n/a	n/a	n/a	n/a	n/a	n/a	n/a	n/a	n/a	n/a	n/a
464.43	n/a	WORD	232215	wordpools/wasnorm_wordpool.txt	LTP127	ltpFR	8	1	1	DOUGH	489	n/a	n/a	0	n/a	0	0	0	0.422607421875	0.5869140625	0	lower	zerothre.ttf
467.438	n/a	START	233719	n/a	LTP127	ltpFR	8	n/a	n/a	n/a	n/a	n/a	n/a	n/a	n/a	n/a	n/a	n/a	n/a	n/a	n/a	n/a	n/a
468.48	n/a	PROB	234240	n/a	LTP127	ltpFR	8	n/a	n/a	n/a	n/a	n/a	n/a	n/a	19	7	4	8	n/a	n/a	n/a	n/a	n/a
470.896	n/a	PROB	235448	n/a	LTP127	ltpFR	8	n/a	n/a	n/a	n/a	n/a	n/a	n/a	9	3	3	3	n/a	n/a	n/a	n/a	n/a
472.17	n/a	PROB	236085	n/a	LTP127	ltpFR	8	n/a	n/a	n/a	n/a	n/a	n/a	n/a	17	8	5	4	n/a	n/a	n/a	n/a	n/a
474.342	n/a	STOP	237171	n/a	LTP127	ltpFR	8	n/a	n/a	n/a	n/a	n/a	n/a	n/a	n/a	n/a	n/a	n/a	n/a	n/a	n/a	n/a	n/a
476.27	n/a	WORD	238135	wordpools/wasnorm_wordpool.txt	LTP127	ltpFR	8	1	1	BARN	89	n/a	n/a	0	n/a	0	0	0	0.422607421875	0.5869140625	0	lower	zerothre.ttf
479.278	n/a	START	239639	n/a	LTP127	ltpFR	8	n/a	n/a	n/a	n/a	n/a	n/a	n/a	n/a	n/a	n/a	n/a	n/a	n/a	n/a	n/a	n/a
480.226	n/a	PROB	240113	n/a	LTP127	ltpFR	8	n/a	n/a	n/a	n/a	n/a	n/a	n/a	11	5	5	1	n/a	n/a	n/a	n/a	n/a
481.5	n/a	PROB	240750	n/a	LTP127	ltpFR	8	n/a	n/a	n/a	n/a	n/a	n/a	n/a	21	9	8	4	n/a	n/a	n/a	n/a	n/a
483.584	n/a	PROB	241792	n/a	LTP127	ltpFR	8	n/a	n/a	n/a	n/a	n/a	n/a	n/a	18	5	8	5	n/a	n/a	n/a	n/a	n/a
485.416	n/a	PROB	242708	n/a	LTP127	ltpFR	8	n/a	n/a	n/a	n/a	n/a	n/a	n/a	15	8	2	3	n/a	n/a	n/a	n/a	n/a
486.966	n/a	STOP	243483	n/a	LTP127	ltpFR	8	n/a	n/a	n/a	n/a	n/a	n/a	n/a	n/a	n/a	n/a	n/a	n/a	n/a	n/a	n/a	n/a
488.466	n/a	WORD	244233	wordpools/wasnorm_wordpool.txt	LTP127	ltpFR	8	1	1	PAPER	1011	n/a	n/a	0	n/a	0	0	0	0.422607421875	0.5869140625	0	lower	zerothre.ttf
491.474	n/a	START	245737	n/a	LTP127	ltpFR	8	n/a	n/a	n/a	n/a	n/a	n/a	n/a	n/a	n/a	n/a	n/a	n/a	n/a	n/a	n/a	n/a
492.314	n/a	PROB	246157	n/a	LTP127	ltpFR	8	n/a	n/a	n/a	n/a	n/a	n/a	n/a	11	2	2	7	n/a	n/a	n/a	n/a	n/a
494.122	n/a	PROB	247061	n/a	LTP127	ltpFR	8	n/a	n/a	n/a	n/a	n/a	n/a	n/a	16	5	8	3	n/a	n/a	n/a	n/a	n/a
497.154	n/a	PROB	248577	n/a	LTP127	ltpFR	8	n/a	n/a	n/a	n/a	n/a	n/a	n/a	19	9	7	3	n/a	n/a	n/a	n/a	n/a
499.022	n/a	STOP	249511	n/a	LTP127	ltpFR	8	n/a	n/a	n/a	n/a	n/a	n/a	n/a	n/a	n/a	n/a	n/a	n/a	n/a	n/a	n/a	n/a
500.386	n/a	WORD	250193	wordpools/wasnorm_wordpool.txt	LTP127	ltpFR	8	1	1	SHEET	1279	n/a	n/a	0	n/a	0	0	0	0.422607421875	0.5869140625	0	lower	zerothre.ttf
503.394	n/a	START	251697	n/a	LTP127	ltpFR	8	n/a	n/a	n/a	n/a	n/a	n/a	n/a	n/a	n/a	n/a	n/a	n/a	n/a	n/a	n/a	n/a
504.228	n/a	PROB	252114	n/a	LTP127	ltpFR	8	n/a	n/a	n/a	n/a	n/a	n/a	n/a	12	6	3	3	n/a	n/a	n/a	n/a	n/a
505.952	n/a	PROB	252976	n/a	LTP127	ltpFR	8	n/a	n/a	n/a	n/a	n/a	n/a	n/a	10	1	5	4	n/a	n/a	n/a	n/a	n/a
507.542	n/a	PROB	253771	n/a	LTP127	ltpFR	8	n/a	n/a	n/a	n/a	n/a	n/a	n/a	12	9	1	2	n/a	n/a	n/a	n/a	n/a
509.366	n/a	PROB	254683	n/a	LTP127	ltpFR	8	n/a	n/a	n/a	n/a	n/a	n/a	n/a	20	3	9	8	n/a	n/a	n/a	n/a	n/a
511.296	n/a	STOP	255648	n/a	LTP127	ltpFR	8	n/a	n/a	n/a	n/a	n/a	n/a	n/a	n/a	n/a	n/a	n/a	n/a	n/a	n/a	n/a	n/a
512.308	n/a	WORD	256154	wordpools/wasnorm_wordpool.txt	LTP127	ltpFR	8	1	1	WOUND	1624	n/a	n/a	0	n/a	0	0	0	0.422607421875	0.5869140625	0	lower	zerothre.ttf
515.316	n/a	START	257658	n/a	LTP127	ltpFR	8	n/a	n/a	n/a	n/a	n/a	n/a	n/a	n/a	n/a	n/a	n/a	n/a	n/a	n/a	n/a	n/a
516.248	n/a	PROB	258124	n/a	LTP127	ltpFR	8	n/a	n/a	n/a	n/a	n/a	n/a	n/a	23	8	7	8	n/a	n/a	n/a	n/a	n/a
518.49	n/a	PROB	259245	n/a	LTP127	ltpFR	8	n/a	n/a	n/a	n/a	n/a	n/a	n/a	20	9	7	4	n/a	n/a	n/a	n/a	n/a
520.314	n/a	PROB	260157	n/a	LTP127	ltpFR	8	n/a	n/a	n/a	n/a	n/a	n/a	n/a	11	1	2	8	n/a	n/a	n/a	n/a	n/a
521.506	n/a	PROB	260753	n/a	LTP127	ltpFR	8	n/a	n/a	n/a	n/a	n/a	n/a	n/a	1	5	4	1	n/a	n/a	n/a	n/a	n/a
523.096	n/a	STOP	261548	n/a	LTP127	ltpFR	8	n/a	n/a	n/a	n/a	n/a	n/a	n/a	n/a	n/a	n/a	n/a	n/a	n/a	n/a	n/a	n/a
524.362	n/a	WORD	262181	wordpools/wasnorm_wordpool.txt	LTP127	ltpFR	8	1	1	SERVER	1272	n/a	n/a	1	n/a	0	0	0	0.422607421875	0.5869140625	0	lower	zerothre.ttf
527.37	n/a	START	263685	n/a	LTP127	ltpFR	8	n/a	n/a	n/a	n/a	n/a	n/a	n/a	n/a	n/a	n/a	n/a	n/a	n/a	n/a	n/a	n/a
528.344	n/a	PROB	264172	n/a	LTP127	ltpFR	8	n/a	n/a	n/a	n/a	n/a	n/a	n/a	13	4	7	2	n/a	n/a	n/a	n/a	n/a
530.562	n/a	PROB	265281	n/a	LTP127	ltpFR	8	n/a	n/a	n/a	n/a	n/a	n/a	n/a	21	6	9	6	n/a	n/a	n/a	n/a	n/a
532.636	n/a	PROB	266318	n/a	LTP127	ltpFR	8	n/a	n/a	n/a	n/a	n/a	n/a	n/a	12	1	3	8	n/a	n/a	n/a	n/a	n/a
534.48	n/a	STOP	267240	n/a	LTP127	ltpFR	8	n/a	n/a	n/a	n/a	n/a	n/a	n/a	n/a	n/a	n/a	n/a	n/a	n/a	n/a	n/a	n/a
536.218	n/a	WORD	268109	wordpools/wasnorm_wordpool.txt	LTP127	ltpFR	8	1	1	BEGGAR	117	n/a	n/a	1	n/a	0	0	0	0.422607421875	0.5869140625	0	lower	zerothre.ttf
539.226	n/a	START	269613	n/a	LTP127	ltpFR	8	n/a	n/a	n/a	n/a	n/a	n/a	n/a	n/a	n/a	n/a	n/a	n/a	n/a	n/a	n/a	n/a
540.3	n/a	PROB	270150	n/a	LTP127	ltpFR	8	n/a	n/a	n/a	n/a	n/a	n/a	n/a	14	2	8	4	n/a	n/a	n/a	n/a	n/a
543.216	n/a	PROB	271608	n/a	LTP127	ltpFR	8	n/a	n/a	n/a	n/a	n/a	n/a	n/a	14	7	6	1	n/a	n/a	n/a	n/a	n/a
546.648	n/a	STOP	273324	n/a	LTP127	ltpFR	8	n/a	n/a	n/a	n/a	n/a	n/a	n/a	n/a	n/a	n/a	n/a	n/a	n/a	n/a	n/a	n/a
548.372	n/a	WORD	274186	wordpools/wasnorm_wordpool.txt	LTP127	ltpFR	8	1	1	NOMAD	955	n/a	n/a	1	n/a	0	0	0	0.422607421875	0.5869140625	0	lower	zerothre.ttf
551.38	n/a	START	275690	n/a	LTP127	ltpFR	8	n/a	n/a	n/a	n/a	n/a	n/a	n/a	n/a	n/a	n/a	n/a	n/a	n/a	n/a	n/a	n/a
552.572	n/a	PROB	276286	n/a	LTP127	ltpFR	8	n/a	n/a	n/a	n/a	n/a	n/a	n/a	14	5	6	3	n/a	n/a	n/a	n/a	n/a
559.38	n/a	STOP	279690	n/a	LTP127	ltpFR	8	n/a	n/a	n/a	n/a	n/a	n/a	n/a	n/a	n/a	n/a	n/a	n/a	n/a	n/a	n/a	n/a
561.11	n/a	REC_START	280555	n/a	LTP127	ltpFR	8	1	n/a	n/a	n/a	n/a	n/a	n/a	n/a	0	0	0	n/a	n/a	n/a	n/a	n/a
563.644	n/a	REC_WORD	281822	wordpools/wasnorm_wordpool.txt	LTP127	ltpFR	8	1	1	SERVER	1272	n/a	n/a	1	n/a	0	0	0	n/a	n/a	n/a	n/a	n/a
564.786	n/a	REC_WORD	282393	wordpools/wasnorm_wordpool.txt	LTP127	ltpFR	8	1	1	BEGGAR	117	n/a	n/a	1	n/a	0	0	0	n/a	n/a	n/a	n/a	n/a
565.65	n/a	REC_WORD	282825	wordpools/wasnorm_wordpool.txt	LTP127	ltpFR	8	1	1	NOMAD	955	n/a	n/a	1	n/a	0	0	0	n/a	n/a	n/a	n/a	n/a
567.122	n/a	REC_WORD	283561	wordpools/wasnorm_wordpool.txt	LTP127	ltpFR	8	1	1	PAPER	1011	n/a	n/a	0	n/a	0	0	0	n/a	n/a	n/a	n/a	n/a
569.094	n/a	REC_WORD	284547	wordpools/wasnorm_wordpool.txt	LTP127	ltpFR	8	1	1	SHEET	1279	n/a	n/a	0	n/a	0	0	0	n/a	n/a	n/a	n/a	n/a
570.206	n/a	REC_WORD	285103	wordpools/wasnorm_wordpool.txt	LTP127	ltpFR	8	1	1	BARN	89	n/a	n/a	0	n/a	0	0	0	n/a	n/a	n/a	n/a	n/a
572.636	n/a	REC_WORD	286318	wordpools/wasnorm_wordpool.txt	LTP127	ltpFR	8	1	1	DOUGH	489	n/a	n/a	0	n/a	0	0	0	n/a	n/a	n/a	n/a	n/a
573.334	n/a	REC_WORD	286667	wordpools/wasnorm_wordpool.txt	LTP127	ltpFR	8	1	1	THORN	1459	n/a	n/a	1	n/a	0	0	0	n/a	n/a	n/a	n/a	n/a
574.894	n/a	REC_WORD	287447	wordpools/wasnorm_wordpool.txt	LTP127	ltpFR	8	1	1	BAKER	71	n/a	n/a	1	n/a	0	0	0	n/a	n/a	n/a	n/a	n/a
576.526	n/a	REC_WORD	288263	wordpools/wasnorm_wordpool.txt	LTP127	ltpFR	8	1	1	SENATE	1267	n/a	n/a	1	n/a	0	0	0	n/a	n/a	n/a	n/a	n/a
581.754	n/a	REC_WORD	290877	wordpools/wasnorm_wordpool.txt	LTP127	ltpFR	8	1	1	CAKE	219	n/a	n/a	0	n/a	0	0	0	n/a	n/a	n/a	n/a	n/a
582.896	n/a	REC_WORD	291448	wordpools/wasnorm_wordpool.txt	LTP127	ltpFR	8	1	1	MOON	914	n/a	n/a	0	n/a	0	0	0	n/a	n/a	n/a	n/a	n/a
588.11	n/a	REC_WORD	294055	wordpools/wasnorm_wordpool.txt	LTP127	ltpFR	8	1	1	SUNRISE	1407	n/a	n/a	0	n/a	0	0	0	n/a	n/a	n/a	n/a	n/a
621.576	n/a	REC_WORD	310788	wordpools/wasnorm_wordpool.txt	LTP127	ltpFR	8	1	1	CHOCOLATE	306	n/a	n/a	0	n/a	0	0	0	n/a	n/a	n/a	n/a	n/a
646.368	n/a	WORD	323184	wordpools/wasnorm_wordpool.txt	LTP127	ltpFR	8	2	0	SHELF	1280	n/a	n/a	1	n/a	0	0	0	0.57763671875	0.412841796875	1	upper	amplitud.ttf
650.208	n/a	WORD	325104	wordpools/wasnorm_wordpool.txt	LTP127	ltpFR	8	2	0	BINDER	127	n/a	n/a	0	n/a	0	0	0	0.57763671875	0.412841796875	1	upper	amplitud.ttf
654.258	n/a	WORD	327129	wordpools/wasnorm_wordpool.txt	LTP127	ltpFR	8	2	0	GRILL	661	n/a	n/a	1	n/a	0	0	0	0.57763671875	0.412841796875	1	upper	amplitud.ttf
658.322	n/a	WORD	329161	wordpools/wasnorm_wordpool.txt	LTP127	ltpFR	8	2	0	BANDANNA	80	n/a	n/a	0	n/a	0	0	0	0.57763671875	0.412841796875	1	upper	amplitud.ttf
662.38	n/a	WORD	331190	wordpools/wasnorm_wordpool.txt	LTP127	ltpFR	8	2	0	TRUMPET	1513	n/a	n/a	0	n/a	0	0	0	0.57763671875	0.412841796875	1	upper	amplitud.ttf
666.412	n/a	WORD	333206	wordpools/wasnorm_wordpool.txt	LTP127	ltpFR	8	2	0	TEAPOT	1442	n/a	n/a	0	n/a	0	0	0	0.57763671875	0.412841796875	1	upper	amplitud.ttf
670.294	n/a	WORD	335147	wordpools/wasnorm_wordpool.txt	LTP127	ltpFR	8	2	0	SURF	1412	n/a	n/a	1	n/a	0	0	0	0.57763671875	0.412841796875	1	upper	amplitud.ttf
674.25	n/a	WORD	337125	wordpools/wasnorm_wordpool.txt	LTP127	ltpFR	8	2	0	RUBY	1214	n/a	n/a	0	n/a	0	0	0	0.57763671875	0.412841796875	1	upper	amplitud.ttf
678.232	n/a	WORD	339116	wordpools/wasnorm_wordpool.txt	LTP127	ltpFR	8	2	0	SHACK	1273	n/a	n/a	1	n/a	0	0	0	0.57763671875	0.412841796875	1	upper	amplitud.ttf
682.25	n/a	WORD	341125	wordpools/wasnorm_wordpool.txt	LTP127	ltpFR	8	2	0	SIDING	1304	n/a	n/a	1	n/a	0	0	0	0.57763671875	0.412841796875	1	upper	amplitud.ttf
686.23	n/a	WORD	343115	wordpools/wasnorm_wordpool.txt	LTP127	ltpFR	8	2	0	VIOLA	1570	n/a	n/a	0	n/a	0	0	0	0.57763671875	0.412841796875	1	upper	amplitud.ttf
690.388	n/a	WORD	345194	wordpools/wasnorm_wordpool.txt	LTP127	ltpFR	8	2	0	LETTUCE	814	n/a	n/a	0	n/a	0	0	0	0.57763671875	0.412841796875	1	upper	amplitud.ttf
694.454	n/a	WORD	347227	wordpools/wasnorm_wordpool.txt	LTP127	ltpFR	8	2	0	PAN	1008	n/a	n/a	0	n/a	0	0	0	0.57763671875	0.412841796875	1	upper	amplitud.ttf
698.286	n/a	WORD	349143	wordpools/wasnorm_wordpool.txt	LTP127	ltpFR	8	2	0	COW	393	n/a	n/a	1	n/a	0	0	0	0.57763671875	0.412841796875	1	upper	amplitud.ttf
702.234	n/a	WORD	351117	wordpools/wasnorm_wordpool.txt	LTP127	ltpFR	8	2	0	SIGN	1305	n/a	n/a	0	n/a	0	0	0	0.57763671875	0.412841796875	1	upper	amplitud.ttf
706.05	n/a	WORD	353025	wordpools/wasnorm_wordpool.txt	LTP127	ltpFR	8	2	0	TURNIP	1521	n/a	n/a	0	n/a	0	0	0	0.57763671875	0.412841796875	1	upper	amplitud.ttf
709.058	n/a	START	354529	n/a	LTP127	ltpFR	8	n/a	n/a	n/a	n/a	n/a	n/a	n/a	n/a	n/a	n/a	n/a	n/a	n/a	n/a	n/a	n/a
709.916	n/a	PROB	354958	n/a	LTP127	ltpFR	8	n/a	n/a	n/a	n/a	n/a	n/a	n/a	17	6	2	9	n/a	n/a	n/a	n/a	n/a
712.382	n/a	PROB	356191	n/a	LTP127	ltpFR	8	n/a	n/a	n/a	n/a	n/a	n/a	n/a	22	8	5	9	n/a	n/a	n/a	n/a	n/a
715.922	n/a	STOP	357961	n/a	LTP127	ltpFR	8	n/a	n/a	n/a	n/a	n/a	n/a	n/a	n/a	n/a	n/a	n/a	n/a	n/a	n/a	n/a	n/a
718.838	n/a	REC_START	359419	n/a	LTP127	ltpFR	8	2	n/a	n/a	n/a	n/a	n/a	n/a	n/a	0	0	0	n/a	n/a	n/a	n/a	n/a
720.444	n/a	REC_WORD	360222	wordpools/wasnorm_wordpool.txt	LTP127	ltpFR	8	2	0	SHELF	1280	n/a	n/a	1	n/a	0	0	0	n/a	n/a	n/a	n/a	n/a
721.488	n/a	REC_WORD	360744	wordpools/wasnorm_wordpool.txt	LTP127	ltpFR	8	2	0	BINDER	127	n/a	n/a	0	n/a	0	0	0	n/a	n/a	n/a	n/a	n/a
724.954	n/a	REC_WORD	362477	wordpools/wasnorm_wordpool.txt	LTP127	ltpFR	8	2	0	TRUMPET	1513	n/a	n/a	0	n/a	0	0	0	n/a	n/a	n/a	n/a	n/a
726.48	n/a	REC_WORD	363240	wordpools/wasnorm_wordpool.txt	LTP127	ltpFR	8	2	0	VIOLA	1570	n/a	n/a	0	n/a	0	0	0	n/a	n/a	n/a	n/a	n/a
729.924	n/a	REC_WORD	364962	wordpools/wasnorm_wordpool.txt	LTP127	ltpFR	8	2	0	LETTUCE	814	n/a	n/a	0	n/a	0	0	0	n/a	n/a	n/a	n/a	n/a
730.91	n/a	REC_WORD	365455	wordpools/wasnorm_wordpool.txt	LTP127	ltpFR	8	2	0	PAN	1008	n/a	n/a	0	n/a	0	0	0	n/a	n/a	n/a	n/a	n/a
731.924	n/a	REC_WORD	365962	wordpools/wasnorm_wordpool.txt	LTP127	ltpFR	8	2	0	TURNIP	1521	n/a	n/a	0	n/a	0	0	0	n/a	n/a	n/a	n/a	n/a
732.936	n/a	REC_WORD	366468	wordpools/wasnorm_wordpool.txt	LTP127	ltpFR	8	2	0	SURF	1412	n/a	n/a	1	n/a	0	0	0	n/a	n/a	n/a	n/a	n/a
741.174	n/a	REC_WORD	370587	wordpools/wasnorm_wordpool.txt	LTP127	ltpFR	8	2	0	COW	393	n/a	n/a	1	n/a	0	0	0	n/a	n/a	n/a	n/a	n/a
806.294	n/a	START	403147	n/a	LTP127	ltpFR	8	n/a	n/a	n/a	n/a	n/a	n/a	n/a	n/a	n/a	n/a	n/a	n/a	n/a	n/a	n/a	n/a
807.802	n/a	PROB	403901	n/a	LTP127	ltpFR	8	n/a	n/a	n/a	n/a	n/a	n/a	n/a	13	2	6	5	n/a	n/a	n/a	n/a	n/a
809.934	n/a	PROB	404967	n/a	LTP127	ltpFR	8	n/a	n/a	n/a	n/a	n/a	n/a	n/a	18	5	6	7	n/a	n/a	n/a	n/a	n/a
811.9	n/a	PROB	405950	n/a	LTP127	ltpFR	8	n/a	n/a	n/a	n/a	n/a	n/a	n/a	16	3	4	9	n/a	n/a	n/a	n/a	n/a
814.65	n/a	PROB	407325	n/a	LTP127	ltpFR	8	n/a	n/a	n/a	n/a	n/a	n/a	n/a	8	1	5	2	n/a	n/a	n/a	n/a	n/a
817.6	n/a	PROB	408800	n/a	LTP127	ltpFR	8	n/a	n/a	n/a	n/a	n/a	n/a	n/a	10	1	6	3	n/a	n/a	n/a	n/a	n/a
819.582	n/a	PROB	409791	n/a	LTP127	ltpFR	8	n/a	n/a	n/a	n/a	n/a	n/a	n/a	19	9	1	9	n/a	n/a	n/a	n/a	n/a
821.832	n/a	STOP	410916	n/a	LTP127	ltpFR	8	n/a	n/a	n/a	n/a	n/a	n/a	n/a	n/a	n/a	n/a	n/a	n/a	n/a	n/a	n/a	n/a
823.332	n/a	WORD	411666	wordpools/wasnorm_wordpool.txt	LTP127	ltpFR	8	3	0	RAISIN	1163	n/a	n/a	0	n/a	0	0	0	0.57763671875	0.412841796875	1	upper	amplitud.ttf
826.338	n/a	START	413169	n/a	LTP127	ltpFR	8	n/a	n/a	n/a	n/a	n/a	n/a	n/a	n/a	n/a	n/a	n/a	n/a	n/a	n/a	n/a	n/a
827.246	n/a	PROB	413623	n/a	LTP127	ltpFR	8	n/a	n/a	n/a	n/a	n/a	n/a	n/a	20	4	9	7	n/a	n/a	n/a	n/a	n/a
829.946	n/a	PROB	414973	n/a	LTP127	ltpFR	8	n/a	n/a	n/a	n/a	n/a	n/a	n/a	20	6	5	9	n/a	n/a	n/a	n/a	n/a
832.712	n/a	PROB	416356	n/a	LTP127	ltpFR	8	n/a	n/a	n/a	n/a	n/a	n/a	n/a	14	4	2	8	n/a	n/a	n/a	n/a	n/a
834.594	n/a	PROB	417297	n/a	LTP127	ltpFR	8	n/a	n/a	n/a	n/a	n/a	n/a	n/a	5	1	3	1	n/a	n/a	n/a	n/a	n/a
835.952	n/a	PROB	417976	n/a	LTP127	ltpFR	8	n/a	n/a	n/a	n/a	n/a	n/a	n/a	25	9	8	8	n/a	n/a	n/a	n/a	n/a
839.044	n/a	PROB	419522	n/a	LTP127	ltpFR	8	n/a	n/a	n/a	n/a	n/a	n/a	n/a	11	8	2	1	n/a	n/a	n/a	n/a	n/a
841.344	n/a	STOP	420672	n/a	LTP127	ltpFR	8	n/a	n/a	n/a	n/a	n/a	n/a	n/a	n/a	n/a	n/a	n/a	n/a	n/a	n/a	n/a	n/a
843.384	n/a	WORD	421692	wordpools/wasnorm_wordpool.txt	LTP127	ltpFR	8	3	0	DINOSAUR	469	n/a	n/a	1	n/a	0	0	0	0.57763671875	0.412841796875	1	upper	amplitud.ttf
846.39	n/a	START	423195	n/a	LTP127	ltpFR	8	n/a	n/a	n/a	n/a	n/a	n/a	n/a	n/a	n/a	n/a	n/a	n/a	n/a	n/a	n/a	n/a
847.556	n/a	PROB	423778	n/a	LTP127	ltpFR	8	n/a	n/a	n/a	n/a	n/a	n/a	n/a	11	1	9	1	n/a	n/a	n/a	n/a	n/a
848.732	n/a	PROB	424366	n/a	LTP127	ltpFR	8	n/a	n/a	n/a	n/a	n/a	n/a	n/a	18	1	9	7	n/a	n/a	n/a	n/a	n/a
850.764	n/a	PROB	425382	n/a	LTP127	ltpFR	8	n/a	n/a	n/a	n/a	n/a	n/a	n/a	18	8	9	1	n/a	n/a	n/a	n/a	n/a
855.78	n/a	PROB	427890	n/a	LTP127	ltpFR	8	n/a	n/a	n/a	n/a	n/a	n/a	n/a	19	4	8	7	n/a	n/a	n/a	n/a	n/a
858.18	n/a	PROB	429090	n/a	LTP127	ltpFR	8	n/a	n/a	n/a	n/a	n/a	n/a	n/a	17	9	6	2	n/a	n/a	n/a	n/a	n/a
862.392	n/a	STOP	431196	n/a	LTP127	ltpFR	8	n/a	n/a	n/a	n/a	n/a	n/a	n/a	n/a	n/a	n/a	n/a	n/a	n/a	n/a	n/a	n/a
863.536	n/a	WORD	431768	wordpools/wasnorm_wordpool.txt	LTP127	ltpFR	8	3	0	STABLE	1363	n/a	n/a	1	n/a	0	0	0	0.57763671875	0.412841796875	1	upper	amplitud.ttf
866.544	n/a	START	433272	n/a	LTP127	ltpFR	8	n/a	n/a	n/a	n/a	n/a	n/a	n/a	n/a	n/a	n/a	n/a	n/a	n/a	n/a	n/a	n/a
867.626	n/a	PROB	433813	n/a	LTP127	ltpFR	8	n/a	n/a	n/a	n/a	n/a	n/a	n/a	18	6	8	4	n/a	n/a	n/a	n/a	n/a
869.658	n/a	PROB	434829	n/a	LTP127	ltpFR	8	n/a	n/a	n/a	n/a	n/a	n/a	n/a	8	1	3	4	n/a	n/a	n/a	n/a	n/a
871.534	n/a	PROB	435767	n/a	LTP127	ltpFR	8	n/a	n/a	n/a	n/a	n/a	n/a	n/a	20	8	6	6	n/a	n/a	n/a	n/a	n/a
873.582	n/a	PROB	436791	n/a	LTP127	ltpFR	8	n/a	n/a	n/a	n/a	n/a	n/a	n/a	24	7	9	8	n/a	n/a	n/a	n/a	n/a
878.556	n/a	PROB	439278	n/a	LTP127	ltpFR	8	n/a	n/a	n/a	n/a	n/a	n/a	n/a	10	2	2	6	n/a	n/a	n/a	n/a	n/a
881.05	n/a	STOP	440525	n/a	LTP127	ltpFR	8	n/a	n/a	n/a	n/a	n/a	n/a	n/a	n/a	n/a	n/a	n/a	n/a	n/a	n/a	n/a	n/a
883.704	n/a	WORD	441852	wordpools/wasnorm_wordpool.txt	LTP127	ltpFR	8	3	1	BARLEY	88	n/a	n/a	1	n/a	0	0	0	0.422607421875	0.5869140625	0	lower	zerothre.ttf
886.712	n/a	START	443356	n/a	LTP127	ltpFR	8	n/a	n/a	n/a	n/a	n/a	n/a	n/a	n/a	n/a	n/a	n/a	n/a	n/a	n/a	n/a	n/a
887.728	n/a	PROB	443864	n/a	LTP127	ltpFR	8	n/a	n/a	n/a	n/a	n/a	n/a	n/a	18	9	3	5	n/a	n/a	n/a	n/a	n/a
890.262	n/a	PROB	445131	n/a	LTP127	ltpFR	8	n/a	n/a	n/a	n/a	n/a	n/a	n/a	20	5	7	8	n/a	n/a	n/a	n/a	n/a
893.844	n/a	PROB	446922	n/a	LTP127	ltpFR	8	n/a	n/a	n/a	n/a	n/a	n/a	n/a	16	8	3	5	n/a	n/a	n/a	n/a	n/a
895.56	n/a	PROB	447780	n/a	LTP127	ltpFR	8	n/a	n/a	n/a	n/a	n/a	n/a	n/a	17	5	9	5	n/a	n/a	n/a	n/a	n/a
902.712	n/a	STOP	451356	n/a	LTP127	ltpFR	8	n/a	n/a	n/a	n/a	n/a	n/a	n/a	n/a	n/a	n/a	n/a	n/a	n/a	n/a	n/a	n/a
903.882	n/a	WORD	451941	wordpools/wasnorm_wordpool.txt	LTP127	ltpFR	8	3	1	BEETLE	116	n/a	n/a	1	n/a	0	0	0	0.422607421875	0.5869140625	0	lower	zerothre.ttf
906.89	n/a	START	453445	n/a	LTP127	ltpFR	8	n/a	n/a	n/a	n/a	n/a	n/a	n/a	n/a	n/a	n/a	n/a	n/a	n/a	n/a	n/a	n/a
908.006	n/a	PROB	454003	n/a	LTP127	ltpFR	8	n/a	n/a	n/a	n/a	n/a	n/a	n/a	14	3	9	2	n/a	n/a	n/a	n/a	n/a
911.622	n/a	PROB	455811	n/a	LTP127	ltpFR	8	n/a	n/a	n/a	n/a	n/a	n/a	n/a	18	8	1	9	n/a	n/a	n/a	n/a	n/a
913.83	n/a	PROB	456915	n/a	LTP127	ltpFR	8	n/a	n/a	n/a	n/a	n/a	n/a	n/a	16	9	4	3	n/a	n/a	n/a	n/a	n/a
917.12	n/a	PROB	458560	n/a	LTP127	ltpFR	8	n/a	n/a	n/a	n/a	n/a	n/a	n/a	18	7	2	9	n/a	n/a	n/a	n/a	n/a
919.336	n/a	PROB	459668	n/a	LTP127	ltpFR	8	n/a	n/a	n/a	n/a	n/a	n/a	n/a	24	7	8	9	n/a	n/a	n/a	n/a	n/a
922.548	n/a	STOP	461274	n/a	LTP127	ltpFR	8	n/a	n/a	n/a	n/a	n/a	n/a	n/a	n/a	n/a	n/a	n/a	n/a	n/a	n/a	n/a	n/a
923.942	n/a	WORD	461971	wordpools/wasnorm_wordpool.txt	LTP127	ltpFR	8	3	0	MOSQUITO	917	n/a	n/a	0	n/a	0	0	0	0.57763671875	0.412841796875	1	upper	amplitud.ttf
926.95	n/a	START	463475	n/a	LTP127	ltpFR	8	n/a	n/a	n/a	n/a	n/a	n/a	n/a	n/a	n/a	n/a	n/a	n/a	n/a	n/a	n/a	n/a
927.984	n/a	PROB	463992	n/a	LTP127	ltpFR	8	n/a	n/a	n/a	n/a	n/a	n/a	n/a	15	6	5	4	n/a	n/a	n/a	n/a	n/a
929.974	n/a	PROB	464987	n/a	LTP127	ltpFR	8	n/a	n/a	n/a	n/a	n/a	n/a	n/a	18	7	5	7	n/a	n/a	n/a	n/a	n/a
932.432	n/a	PROB	466216	n/a	LTP127	ltpFR	8	n/a	n/a	n/a	n/a	n/a	n/a	n/a	16	1	9	6	n/a	n/a	n/a	n/a	n/a
935.664	n/a	PROB	467832	n/a	LTP127	ltpFR	8	n/a	n/a	n/a	n/a	n/a	n/a	n/a	15	5	3	7	n/a	n/a	n/a	n/a	n/a
937.314	n/a	PROB	468657	n/a	LTP127	ltpFR	8	n/a	n/a	n/a	n/a	n/a	n/a	n/a	12	4	6	2	n/a	n/a	n/a	n/a	n/a
938.954	n/a	PROB	469477	n/a	LTP127	ltpFR	8	n/a	n/a	n/a	n/a	n/a	n/a	n/a	18	3	9	6	n/a	n/a	n/a	n/a	n/a
942.95	n/a	STOP	471475	n/a	LTP127	ltpFR	8	n/a	n/a	n/a	n/a	n/a	n/a	n/a	n/a	n/a	n/a	n/a	n/a	n/a	n/a	n/a	n/a
943.844	n/a	WORD	471922	wordpools/wasnorm_wordpool.txt	LTP127	ltpFR	8	3	0	OYSTER	995	n/a	n/a	0	n/a	0	0	0	0.57763671875	0.412841796875	1	upper	amplitud.ttf
946.854	n/a	START	473427	n/a	LTP127	ltpFR	8	n/a	n/a	n/a	n/a	n/a	n/a	n/a	n/a	n/a	n/a	n/a	n/a	n/a	n/a	n/a	n/a
947.752	n/a	PROB	473876	n/a	LTP127	ltpFR	8	n/a	n/a	n/a	n/a	n/a	n/a	n/a	15	8	1	6	n/a	n/a	n/a	n/a	n/a
951.176	n/a	PROB	475588	n/a	LTP127	ltpFR	8	n/a	n/a	n/a	n/a	n/a	n/a	n/a	14	2	3	9	n/a	n/a	n/a	n/a	n/a
956.166	n/a	PROB	478083	n/a	LTP127	ltpFR	8	n/a	n/a	n/a	n/a	n/a	n/a	n/a	13	6	3	4	n/a	n/a	n/a	n/a	n/a
958.54	n/a	PROB	479270	n/a	LTP127	ltpFR	8	n/a	n/a	n/a	n/a	n/a	n/a	n/a	19	8	7	4	n/a	n/a	n/a	n/a	n/a
961.114	n/a	PROB	480557	n/a	LTP127	ltpFR	8	n/a	n/a	n/a	n/a	n/a	n/a	n/a	11	2	2	7	n/a	n/a	n/a	n/a	n/a
962.67	n/a	STOP	481335	n/a	LTP127	ltpFR	8	n/a	n/a	n/a	n/a	n/a	n/a	n/a	n/a	n/a	n/a	n/a	n/a	n/a	n/a	n/a	n/a
963.796	n/a	WORD	481898	wordpools/wasnorm_wordpool.txt	LTP127	ltpFR	8	3	1	CLIMBER	323	n/a	n/a	1	n/a	0	0	0	0.422607421875	0.5869140625	0	lower	zerothre.ttf
966.806	n/a	START	483403	n/a	LTP127	ltpFR	8	n/a	n/a	n/a	n/a	n/a	n/a	n/a	n/a	n/a	n/a	n/a	n/a	n/a	n/a	n/a	n/a
967.73	n/a	PROB	483865	n/a	LTP127	ltpFR	8	n/a	n/a	n/a	n/a	n/a	n/a	n/a	25	9	9	6	n/a	n/a	n/a	n/a	n/a
970.702	n/a	PROB	485351	n/a	LTP127	ltpFR	8	n/a	n/a	n/a	n/a	n/a	n/a	n/a	24	8	7	9	n/a	n/a	n/a	n/a	n/a
976.06	n/a	PROB	488030	n/a	LTP127	ltpFR	8	n/a	n/a	n/a	n/a	n/a	n/a	n/a	15	8	1	6	n/a	n/a	n/a	n/a	n/a
978.942	n/a	PROB	489471	n/a	LTP127	ltpFR	8	n/a	n/a	n/a	n/a	n/a	n/a	n/a	21	8	9	4	n/a	n/a	n/a	n/a	n/a
982.568	n/a	STOP	491284	n/a	LTP127	ltpFR	8	n/a	n/a	n/a	n/a	n/a	n/a	n/a	n/a	n/a	n/a	n/a	n/a	n/a	n/a	n/a	n/a
983.632	n/a	WORD	491816	wordpools/wasnorm_wordpool.txt	LTP127	ltpFR	8	3	1	WATERFALL	1595	n/a	n/a	0	n/a	0	0	0	0.422607421875	0.5869140625	0	lower	zerothre.ttf
986.642	n/a	START	493321	n/a	LTP127	ltpFR	8	n/a	n/a	n/a	n/a	n/a	n/a	n/a	n/a	n/a	n/a	n/a	n/a	n/a	n/a	n/a	n/a
987.458	n/a	PROB	493729	n/a	LTP127	ltpFR	8	n/a	n/a	n/a	n/a	n/a	n/a	n/a	21	9	4	8	n/a	n/a	n/a	n/a	n/a
989.748	n/a	PROB	494874	n/a	LTP127	ltpFR	8	n/a	n/a	n/a	n/a	n/a	n/a	n/a	15	8	2	5	n/a	n/a	n/a	n/a	n/a
991.198	n/a	PROB	495599	n/a	LTP127	ltpFR	8	n/a	n/a	n/a	n/a	n/a	n/a	n/a	24	5	9	9	n/a	n/a	n/a	n/a	n/a
993.604	n/a	PROB	496802	n/a	LTP127	ltpFR	8	n/a	n/a	n/a	n/a	n/a	n/a	n/a	13	1	9	3	n/a	n/a	n/a	n/a	n/a
997.496	n/a	PROB	498748	n/a	LTP127	ltpFR	8	n/a	n/a	n/a	n/a	n/a	n/a	n/a	16	7	3	6	n/a	n/a	n/a	n/a	n/a
1001.144	n/a	STOP	500572	n/a	LTP127	ltpFR	8	n/a	n/a	n/a	n/a	n/a	n/a	n/a	n/a	n/a	n/a	n/a	n/a	n/a	n/a	n/a	n/a
1003.836	n/a	WORD	501918	wordpools/wasnorm_wordpool.txt	LTP127	ltpFR	8	3	1	WAX	1597	n/a	n/a	0	n/a	0	0	0	0.422607421875	0.5869140625	0	lower	zerothre.ttf
1006.844	n/a	START	503422	n/a	LTP127	ltpFR	8	n/a	n/a	n/a	n/a	n/a	n/a	n/a	n/a	n/a	n/a	n/a	n/a	n/a	n/a	n/a	n/a
1007.918	n/a	PROB	503959	n/a	LTP127	ltpFR	8	n/a	n/a	n/a	n/a	n/a	n/a	n/a	18	6	9	3	n/a	n/a	n/a	n/a	n/a
1011.266	n/a	PROB	505633	n/a	LTP127	ltpFR	8	n/a	n/a	n/a	n/a	n/a	n/a	n/a	14	5	3	6	n/a	n/a	n/a	n/a	n/a
1013.856	n/a	PROB	506928	n/a	LTP127	ltpFR	8	n/a	n/a	n/a	n/a	n/a	n/a	n/a	11	6	4	1	n/a	n/a	n/a	n/a	n/a
1015.248	n/a	PROB	507624	n/a	LTP127	ltpFR	8	n/a	n/a	n/a	n/a	n/a	n/a	n/a	16	6	2	8	n/a	n/a	n/a	n/a	n/a
1017.572	n/a	PROB	508786	n/a	LTP127	ltpFR	8	n/a	n/a	n/a	n/a	n/a	n/a	n/a	21	6	6	5	n/a	n/a	n/a	n/a	n/a
1022.844	n/a	STOP	511422	n/a	LTP127	ltpFR	8	n/a	n/a	n/a	n/a	n/a	n/a	n/a	n/a	n/a	n/a	n/a	n/a	n/a	n/a	n/a	n/a
1023.804	n/a	WORD	511902	wordpools/wasnorm_wordpool.txt	LTP127	ltpFR	8	3	1	DIME	466	n/a	n/a	0	n/a	0	0	0	0.422607421875	0.5869140625	0	lower	zerothre.ttf
1026.812	n/a	START	513406	n/a	LTP127	ltpFR	8	n/a	n/a	n/a	n/a	n/a	n/a	n/a	n/a	n/a	n/a	n/a	n/a	n/a	n/a	n/a	n/a
1027.662	n/a	PROB	513831	n/a	LTP127	ltpFR	8	n/a	n/a	n/a	n/a	n/a	n/a	n/a	15	7	6	4	n/a	n/a	n/a	n/a	n/a
1029.444	n/a	PROB	514722	n/a	LTP127	ltpFR	8	n/a	n/a	n/a	n/a	n/a	n/a	n/a	8	3	1	4	n/a	n/a	n/a	n/a	n/a
1032.584	n/a	PROB	516292	n/a	LTP127	ltpFR	8	n/a	n/a	n/a	n/a	n/a	n/a	n/a	19	4	9	6	n/a	n/a	n/a	n/a	n/a
1036.026	n/a	PROB	518013	n/a	LTP127	ltpFR	8	n/a	n/a	n/a	n/a	n/a	n/a	n/a	20	5	6	9	n/a	n/a	n/a	n/a	n/a
1037.8	n/a	PROB	518900	n/a	LTP127	ltpFR	8	n/a	n/a	n/a	n/a	n/a	n/a	n/a	19	3	9	6	n/a	n/a	n/a	n/a	n/a
1041.29	n/a	STOP	520645	n/a	LTP127	ltpFR	8	n/a	n/a	n/a	n/a	n/a	n/a	n/a	n/a	n/a	n/a	n/a	n/a	n/a	n/a	n/a	n/a
1044.006	n/a	WORD	522003	wordpools/wasnorm_wordpool.txt	LTP127	ltpFR	8	3	1	TOAST	1471	n/a	n/a	0	n/a	0	0	0	0.422607421875	0.5869140625	0	lower	zerothre.ttf
1047.014	n/a	START	523507	n/a	LTP127	ltpFR	8	n/a	n/a	n/a	n/a	n/a	n/a	n/a	n/a	n/a	n/a	n/a	n/a	n/a	n/a	n/a	n/a
1047.872	n/a	PROB	523936	n/a	LTP127	ltpFR	8	n/a	n/a	n/a	n/a	n/a	n/a	n/a	19	2	9	8	n/a	n/a	n/a	n/a	n/a
1051.928	n/a	PROB	525964	n/a	LTP127	ltpFR	8	n/a	n/a	n/a	n/a	n/a	n/a	n/a	7	2	2	3	n/a	n/a	n/a	n/a	n/a
1053.836	n/a	PROB	526918	n/a	LTP127	ltpFR	8	n/a	n/a	n/a	n/a	n/a	n/a	n/a	10	2	1	7	n/a	n/a	n/a	n/a	n/a
1055.744	n/a	PROB	527872	n/a	LTP127	ltpFR	8	n/a	n/a	n/a	n/a	n/a	n/a	n/a	16	5	4	7	n/a	n/a	n/a	n/a	n/a
1058.708	n/a	PROB	529354	n/a	LTP127	ltpFR	8	n/a	n/a	n/a	n/a	n/a	n/a	n/a	22	9	7	6	n/a	n/a	n/a	n/a	n/a
1061.476	n/a	STOP	530738	n/a	LTP127	ltpFR	8	n/a	n/a	n/a	n/a	n/a	n/a	n/a	n/a	n/a	n/a	n/a	n/a	n/a	n/a	n/a	n/a
1064.018	n/a	WORD	532009	wordpools/wasnorm_wordpool.txt	LTP127	ltpFR	8	3	1	OATS	968	n/a	n/a	0	n/a	0	0	0	0.422607421875	0.5869140625	0	lower	zerothre.ttf
1067.024	n/a	START	533512	n/a	LTP127	ltpFR	8	n/a	n/a	n/a	n/a	n/a	n/a	n/a	n/a	n/a	n/a	n/a	n/a	n/a	n/a	n/a	n/a
1067.908	n/a	PROB	533954	n/a	LTP127	ltpFR	8	n/a	n/a	n/a	n/a	n/a	n/a	n/a	22	8	7	7	n/a	n/a	n/a	n/a	n/a
1069.882	n/a	PROB	534941	n/a	LTP127	ltpFR	8	n/a	n/a	n/a	n/a	n/a	n/a	n/a	20	7	7	6	n/a	n/a	n/a	n/a	n/a
1072.298	n/a	PROB	536149	n/a	LTP127	ltpFR	8	n/a	n/a	n/a	n/a	n/a	n/a	n/a	16	7	8	1	n/a	n/a	n/a	n/a	n/a
1074.046	n/a	PROB	537023	n/a	LTP127	ltpFR	8	n/a	n/a	n/a	n/a	n/a	n/a	n/a	4	1	1	2	n/a	n/a	n/a	n/a	n/a
1075.288	n/a	PROB	537644	n/a	LTP127	ltpFR	8	n/a	n/a	n/a	n/a	n/a	n/a	n/a	17	9	2	6	n/a	n/a	n/a	n/a	n/a
1077.662	n/a	PROB	538831	n/a	LTP127	ltpFR	8	n/a	n/a	n/a	n/a	n/a	n/a	n/a	20	5	7	8	n/a	n/a	n/a	n/a	n/a
1079.78	n/a	PROB	539890	n/a	LTP127	ltpFR	8	n/a	n/a	n/a	n/a	n/a	n/a	n/a	16	6	7	3	n/a	n/a	n/a	n/a	n/a
1082.334	n/a	STOP	541167	n/a	LTP127	ltpFR	8	n/a	n/a	n/a	n/a	n/a	n/a	n/a	n/a	n/a	n/a	n/a	n/a	n/a	n/a	n/a	n/a
1083.92	n/a	WORD	541960	wordpools/wasnorm_wordpool.txt	LTP127	ltpFR	8	3	0	RUST	1219	n/a	n/a	3	n/a	0	0	0	0.57763671875	0.412841796875	1	upper	amplitud.ttf
1085.636	n/a	KEY_MSG	542818	n/a	LTP127	ltpFR	8	3	n/a	n/a	n/a	n/a	n/a	n/a	n/a	0	0	0	n/a	n/a	n/a	n/a	n/a
1087.152	n/a	START	543576	n/a	LTP127	ltpFR	8	n/a	n/a	n/a	n/a	n/a	n/a	n/a	n/a	n/a	n/a	n/a	n/a	n/a	n/a	n/a	n/a
1088.318	n/a	PROB	544159	n/a	LTP127	ltpFR	8	n/a	n/a	n/a	n/a	n/a	n/a	n/a	12	3	2	7	n/a	n/a	n/a	n/a	n/a
1090.792	n/a	PROB	545396	n/a	LTP127	ltpFR	8	n/a	n/a	n/a	n/a	n/a	n/a	n/a	19	7	9	3	n/a	n/a	n/a	n/a	n/a
1096.366	n/a	PROB	548183	n/a	LTP127	ltpFR	8	n/a	n/a	n/a	n/a	n/a	n/a	n/a	11	2	1	8	n/a	n/a	n/a	n/a	n/a
1097.814	n/a	PROB	548907	n/a	LTP127	ltpFR	8	n/a	n/a	n/a	n/a	n/a	n/a	n/a	20	8	9	3	n/a	n/a	n/a	n/a	n/a
1102.646	n/a	STOP	551323	n/a	LTP127	ltpFR	8	n/a	n/a	n/a	n/a	n/a	n/a	n/a	n/a	n/a	n/a	n/a	n/a	n/a	n/a	n/a	n/a
1104.064	n/a	WORD	552032	wordpools/wasnorm_wordpool.txt	LTP127	ltpFR	8	3	0	PUMP	1141	n/a	n/a	1	n/a	0	0	0	0.57763671875	0.412841796875	1	upper	amplitud.ttf
1107.072	n/a	START	553536	n/a	LTP127	ltpFR	8	n/a	n/a	n/a	n/a	n/a	n/a	n/a	n/a	n/a	n/a	n/a	n/a	n/a	n/a	n/a	n/a
1108.254	n/a	PROB	554127	n/a	LTP127	ltpFR	8	n/a	n/a	n/a	n/a	n/a	n/a	n/a	18	3	8	7	n/a	n/a	n/a	n/a	n/a
1111.51	n/a	PROB	555755	n/a	LTP127	ltpFR	8	n/a	n/a	n/a	n/a	n/a	n/a	n/a	9	4	2	3	n/a	n/a	n/a	n/a	n/a
1115.402	n/a	PROB	557701	n/a	LTP127	ltpFR	8	n/a	n/a	n/a	n/a	n/a	n/a	n/a	16	9	1	6	n/a	n/a	n/a	n/a	n/a
1117.118	n/a	PROB	558559	n/a	LTP127	ltpFR	8	n/a	n/a	n/a	n/a	n/a	n/a	n/a	10	2	6	2	n/a	n/a	n/a	n/a	n/a
1121.632	n/a	STOP	560816	n/a	LTP127	ltpFR	8	n/a	n/a	n/a	n/a	n/a	n/a	n/a	n/a	n/a	n/a	n/a	n/a	n/a	n/a	n/a	n/a
1124.116	n/a	WORD	562058	wordpools/wasnorm_wordpool.txt	LTP127	ltpFR	8	3	0	PAIL	1002	n/a	n/a	0	n/a	0	0	0	0.57763671875	0.412841796875	1	upper	amplitud.ttf
1127.124	n/a	START	563562	n/a	LTP127	ltpFR	8	n/a	n/a	n/a	n/a	n/a	n/a	n/a	n/a	n/a	n/a	n/a	n/a	n/a	n/a	n/a	n/a
1128.048	n/a	PROB	564024	n/a	LTP127	ltpFR	8	n/a	n/a	n/a	n/a	n/a	n/a	n/a	19	3	8	6	n/a	n/a	n/a	n/a	n/a
1132.812	n/a	PROB	566406	n/a	LTP127	ltpFR	8	n/a	n/a	n/a	n/a	n/a	n/a	n/a	12	3	5	4	n/a	n/a	n/a	n/a	n/a
1134.728	n/a	PROB	567364	n/a	LTP127	ltpFR	8	n/a	n/a	n/a	n/a	n/a	n/a	n/a	12	8	8	2	n/a	n/a	n/a	n/a	n/a
1138.136	n/a	PROB	569068	n/a	LTP127	ltpFR	8	n/a	n/a	n/a	n/a	n/a	n/a	n/a	11	5	2	4	n/a	n/a	n/a	n/a	n/a
1142.168	n/a	STOP	571084	n/a	LTP127	ltpFR	8	n/a	n/a	n/a	n/a	n/a	n/a	n/a	n/a	n/a	n/a	n/a	n/a	n/a	n/a	n/a	n/a
1145.002	n/a	REC_START	572501	n/a	LTP127	ltpFR	8	3	n/a	n/a	n/a	n/a	n/a	n/a	n/a	0	0	0	n/a	n/a	n/a	n/a	n/a
1146.822	n/a	REC_WORD	573411	wordpools/wasnorm_wordpool.txt	LTP127	ltpFR	8	3	0	PAIL	1002	n/a	n/a	0	n/a	0	0	0	n/a	n/a	n/a	n/a	n/a
1147.526	n/a	REC_WORD	573763	wordpools/wasnorm_wordpool.txt	LTP127	ltpFR	8	3	0	PUMP	1141	n/a	n/a	1	n/a	0	0	0	n/a	n/a	n/a	n/a	n/a
1148.424	n/a	REC_WORD	574212	wordpools/wasnorm_wordpool.txt	LTP127	ltpFR	8	3	1	WAX	1597	n/a	n/a	0	n/a	0	0	0	n/a	n/a	n/a	n/a	n/a
1150.598	n/a	REC_WORD	575299	wordpools/wasnorm_wordpool.txt	LTP127	ltpFR	8	3	n/a	DIVER	476	n/a	n/a	n/a	n/a	0	0	0	n/a	n/a	n/a	n/a	n/a
1154.366	n/a	REC_WORD	577183	wordpools/wasnorm_wordpool.txt	LTP127	ltpFR	8	3	1	TOAST	1471	n/a	n/a	0	n/a	0	0	0	n/a	n/a	n/a	n/a	n/a
1155.272	n/a	REC_WORD	577636	wordpools/wasnorm_wordpool.txt	LTP127	ltpFR	8	3	1	OATS	968	n/a	n/a	0	n/a	0	0	0	n/a	n/a	n/a	n/a	n/a
1158.138	n/a	REC_WORD	579069	wordpools/wasnorm_wordpool.txt	LTP127	ltpFR	8	3	0	DINOSAUR	469	n/a	n/a	1	n/a	0	0	0	n/a	n/a	n/a	n/a	n/a
1159.47	n/a	REC_WORD	579735	wordpools/wasnorm_wordpool.txt	LTP127	ltpFR	8	3	0	STABLE	1363	n/a	n/a	1	n/a	0	0	0	n/a	n/a	n/a	n/a	n/a
1162.038	n/a	REC_WORD	581019	wordpools/wasnorm_wordpool.txt	LTP127	ltpFR	8	3	0	RAISIN	1163	n/a	n/a	0	n/a	0	0	0	n/a	n/a	n/a	n/a	n/a
1199.686	n/a	REC_WORD	599843	wordpools/wasnorm_wordpool.txt	LTP127	ltpFR	8	3	1	BARLEY	88	n/a	n/a	1	n/a	0	0	0	n/a	n/a	n/a	n/a	n/a
1235.332	n/a	WORD	617666	wordpools/wasnorm_wordpool.txt	LTP127	ltpFR	8	4	1	ROPE	1211	n/a	n/a	0	n/a	0	0	0	0.422607421875	0.5869140625	0	lower	zerothre.ttf
1239.506	n/a	WORD	619753	wordpools/wasnorm_wordpool.txt	LTP127	ltpFR	8	4	1	TOOTHPASTE	1483	n/a	n/a	0	n/a	0	0	0	0.422607421875	0.5869140625	0	lower	zerothre.ttf
1243.62	n/a	WORD	621810	wordpools/wasnorm_wordpool.txt	LTP127	ltpFR	8	4	1	SPIT	1354	n/a	n/a	0	n/a	0	0	0	0.422607421875	0.5869140625	0	lower	zerothre.ttf
1247.602	n/a	WORD	623801	wordpools/wasnorm_wordpool.txt	LTP127	ltpFR	8	4	0	PLASTER	1085	n/a	n/a	1	n/a	0	0	0	0.57763671875	0.412841796875	1	upper	amplitud.ttf
1251.56	n/a	WORD	625780	wordpools/wasnorm_wordpool.txt	LTP127	ltpFR	8	4	0	ESSAY	540	n/a	n/a	0	n/a	0	0	0	0.57763671875	0.412841796875	1	upper	amplitud.ttf
1255.502	n/a	WORD	627751	wordpools/wasnorm_wordpool.txt	LTP127	ltpFR	8	4	0	GARLIC	624	n/a	n/a	0	n/a	0	0	0	0.57763671875	0.412841796875	1	upper	amplitud.ttf
1259.458	n/a	WORD	629729	wordpools/wasnorm_wordpool.txt	LTP127	ltpFR	8	4	0	SALESMAN	1225	n/a	n/a	1	n/a	0	0	0	0.57763671875	0.412841796875	1	upper	amplitud.ttf
1263.282	n/a	WORD	631641	wordpools/wasnorm_wordpool.txt	LTP127	ltpFR	8	4	0	LUMBER	848	n/a	n/a	1	n/a	0	0	0	0.57763671875	0.412841796875	1	upper	amplitud.ttf
1267.138	n/a	WORD	633569	wordpools/wasnorm_wordpool.txt	LTP127	ltpFR	8	4	1	BISCUIT	130	n/a	n/a	0	n/a	0	0	0	0.422607421875	0.5869140625	0	lower	zerothre.ttf
1271.122	n/a	WORD	635561	wordpools/wasnorm_wordpool.txt	LTP127	ltpFR	8	4	1	VETERAN	1561	n/a	n/a	1	n/a	0	0	0	0.422607421875	0.5869140625	0	lower	zerothre.ttf
1275.262	n/a	WORD	637631	wordpools/wasnorm_wordpool.txt	LTP127	ltpFR	8	4	1	WARRIOR	1589	n/a	n/a	1	n/a	0	0	0	0.422607421875	0.5869140625	0	lower	zerothre.ttf
1279.278	n/a	WORD	639639	wordpools/wasnorm_wordpool.txt	LTP127	ltpFR	8	4	1	MONARCH	906	n/a	n/a	1	n/a	0	0	0	0.422607421875	0.5869140625	0	lower	zerothre.ttf
1283.168	n/a	WORD	641584	wordpools/wasnorm_wordpool.txt	LTP127	ltpFR	8	4	1	PALACE	1006	n/a	n/a	0	n/a	0	0	0	0.422607421875	0.5869140625	0	lower	zerothre.ttf
1287.066	n/a	WORD	643533	wordpools/wasnorm_wordpool.txt	LTP127	ltpFR	8	4	0	PAD	998	n/a	n/a	0	n/a	0	0	0	0.57763671875	0.412841796875	1	upper	amplitud.ttf
1291.232	n/a	WORD	645616	wordpools/wasnorm_wordpool.txt	LTP127	ltpFR	8	4	0	SECRETARY	1265	n/a	n/a	1	n/a	0	0	0	0.57763671875	0.412841796875	1	upper	amplitud.ttf
1295.24	n/a	WORD	647620	wordpools/wasnorm_wordpool.txt	LTP127	ltpFR	8	4	0	HEATER	698	n/a	n/a	1	n/a	0	0	0	0.57763671875	0.412841796875	1	upper	amplitud.ttf
1298.246	n/a	START	649123	n/a	LTP127	ltpFR	8	n/a	n/a	n/a	n/a	n/a	n/a	n/a	n/a	n/a	n/a	n/a	n/a	n/a	n/a	n/a	n/a
1299.188	n/a	PROB	649594	n/a	LTP127	ltpFR	8	n/a	n/a	n/a	n/a	n/a	n/a	n/a	13	3	2	8	n/a	n/a	n/a	n/a	n/a
1301.128	n/a	PROB	650564	n/a	LTP127	ltpFR	8	n/a	n/a	n/a	n/a	n/a	n/a	n/a	8	6	1	1	n/a	n/a	n/a	n/a	n/a
1303.952	n/a	PROB	651976	n/a	LTP127	ltpFR	8	n/a	n/a	n/a	n/a	n/a	n/a	n/a	14	4	3	7	n/a	n/a	n/a	n/a	n/a
1305.744	n/a	STOP	652872	n/a	LTP127	ltpFR	8	n/a	n/a	n/a	n/a	n/a	n/a	n/a	n/a	n/a	n/a	n/a	n/a	n/a	n/a	n/a	n/a
1308.136	n/a	REC_START	654068	n/a	LTP127	ltpFR	8	4	n/a	n/a	n/a	n/a	n/a	n/a	n/a	0	0	0	n/a	n/a	n/a	n/a	n/a
1308.9	n/a	REC_WORD	654450	wordpools/wasnorm_wordpool.txt	LTP127	ltpFR	8	4	0	PAD	998	n/a	n/a	0	n/a	0	0	0	n/a	n/a	n/a	n/a	n/a
1309.568	n/a	REC_WORD	654784	wordpools/wasnorm_wordpool.txt	LTP127	ltpFR	8	4	0	SECRETARY	1265	n/a	n/a	1	n/a	0	0	0	n/a	n/a	n/a	n/a	n/a
1311.468	n/a	REC_WORD	655734	wordpools/wasnorm_wordpool.txt	LTP127	ltpFR	8	4	1	PALACE	1006	n/a	n/a	0	n/a	0	0	0	n/a	n/a	n/a	n/a	n/a
1312.466	n/a	REC_WORD	656233	wordpools/wasnorm_wordpool.txt	LTP127	ltpFR	8	4	1	WARRIOR	1589	n/a	n/a	1	n/a	0	0	0	n/a	n/a	n/a	n/a	n/a
1313.34	n/a	REC_WORD	656670	wordpools/wasnorm_wordpool.txt	LTP127	ltpFR	8	4	1	VETERAN	1561	n/a	n/a	1	n/a	0	0	0	n/a	n/a	n/a	n/a	n/a
1314.372	n/a	REC_WORD	657186	wordpools/wasnorm_wordpool.txt	LTP127	ltpFR	8	4	1	MONARCH	906	n/a	n/a	1	n/a	0	0	0	n/a	n/a	n/a	n/a	n/a
1317.026	n/a	REC_WORD	658513	wordpools/wasnorm_wordpool.txt	LTP127	ltpFR	8	4	0	SALESMAN	1225	n/a	n/a	1	n/a	0	0	0	n/a	n/a	n/a	n/a	n/a
1318.184	n/a	REC_WORD	659092	wordpools/wasnorm_wordpool.txt	LTP127	ltpFR	8	4	0	GARLIC	624	n/a	n/a	0	n/a	0	0	0	n/a	n/a	n/a	n/a	n/a
1319.686	n/a	REC_WORD	659843	wordpools/wasnorm_wordpool.txt	LTP127	ltpFR	8	4	0	PLASTER	1085	n/a	n/a	1	n/a	0	0	0	n/a	n/a	n/a	n/a	n/a
1320.584	n/a	REC_WORD	660292	wordpools/wasnorm_wordpool.txt	LTP127	ltpFR	8	4	0	LUMBER	848	n/a	n/a	1	n/a	0	0	0	n/a	n/a	n/a	n/a	n/a
1328.382	n/a	REC_WORD	664191	wordpools/wasnorm_wordpool.txt	LTP127	ltpFR	8	4	1	TOOTHPASTE	1483	n/a	n/a	0	n/a	0	0	0	n/a	n/a	n/a	n/a	n/a
1329.564	n/a	REC_WORD	664782	wordpools/wasnorm_wordpool.txt	LTP127	ltpFR	8	4	1	SPIT	1354	n/a	n/a	0	n/a	0	0	0	n/a	n/a	n/a	n/a	n/a
1330.906	n/a	REC_WORD	665453	wordpools/wasnorm_wordpool.txt	LTP127	ltpFR	8	4	1	ROPE	1211	n/a	n/a	0	n/a	0	0	0	n/a	n/a	n/a	n/a	n/a
1332.158	n/a	REC_WORD	666079	wordpools/wasnorm_wordpool.txt	LTP127	ltpFR	8	4	0	ESSAY	540	n/a	n/a	0	n/a	0	0	0	n/a	n/a	n/a	n/a	n/a
1396.534	n/a	WORD	698267	wordpools/wasnorm_wordpool.txt	LTP127	ltpFR	8	5	0	STETHOSCOPE	1379	n/a	n/a	0	n/a	0	0	0	0.57763671875	0.412841796875	1	upper	amplitud.ttf
1400.698	n/a	WORD	700349	wordpools/wasnorm_wordpool.txt	LTP127	ltpFR	8	5	0	SCALPEL	1243	n/a	n/a	0	n/a	0	0	0	0.57763671875	0.412841796875	1	upper	amplitud.ttf
1404.89	n/a	WORD	702445	wordpools/wasnorm_wordpool.txt	LTP127	ltpFR	8	5	0	STADIUM	1364	n/a	n/a	1	n/a	0	0	0	0.57763671875	0.412841796875	1	upper	amplitud.ttf
1408.88	n/a	WORD	704440	wordpools/wasnorm_wordpool.txt	LTP127	ltpFR	8	5	0	VOLCANO	1575	n/a	n/a	1	n/a	0	0	0	0.57763671875	0.412841796875	1	upper	amplitud.ttf
1412.762	n/a	WORD	706381	wordpools/wasnorm_wordpool.txt	LTP127	ltpFR	8	5	0	PICNIC	1060	n/a	n/a	1	n/a	0	0	0	0.57763671875	0.412841796875	1	upper	amplitud.ttf
1416.718	n/a	WORD	708359	wordpools/wasnorm_wordpool.txt	LTP127	ltpFR	8	5	0	JAW	751	n/a	n/a	0	n/a	0	0	0	0.57763671875	0.412841796875	1	upper	amplitud.ttf
1420.618	n/a	WORD	710309	wordpools/wasnorm_wordpool.txt	LTP127	ltpFR	8	5	0	ALLIGATOR	16	n/a	n/a	1	n/a	0	0	0	0.57763671875	0.412841796875	1	upper	amplitud.ttf
1424.776	n/a	WORD	712388	wordpools/wasnorm_wordpool.txt	LTP127	ltpFR	8	5	0	CHEMICAL	291	n/a	n/a	0	n/a	0	0	0	0.57763671875	0.412841796875	1	upper	amplitud.ttf
1428.832	n/a	WORD	714416	wordpools/wasnorm_wordpool.txt	LTP127	ltpFR	8	5	0	OATMEAL	967	n/a	n/a	0	n/a	0	0	0	0.57763671875	0.412841796875	1	upper	amplitud.ttf
1432.798	n/a	WORD	716399	wordpools/wasnorm_wordpool.txt	LTP127	ltpFR	8	5	0	CUFF	423	n/a	n/a	0	n/a	0	0	0	0.57763671875	0.412841796875	1	upper	amplitud.ttf
1436.896	n/a	WORD	718448	wordpools/wasnorm_wordpool.txt	LTP127	ltpFR	8	5	0	KETTLE	772	n/a	n/a	1	n/a	0	0	0	0.57763671875	0.412841796875	1	upper	amplitud.ttf
1441.054	n/a	WORD	720527	wordpools/wasnorm_wordpool.txt	LTP127	ltpFR	8	5	0	OVEN	991	n/a	n/a	1	n/a	0	0	0	0.57763671875	0.412841796875	1	upper	amplitud.ttf
1445.21	n/a	WORD	722605	wordpools/wasnorm_wordpool.txt	LTP127	ltpFR	8	5	0	SHUTTER	1300	n/a	n/a	1	n/a	0	0	0	0.57763671875	0.412841796875	1	upper	amplitud.ttf
1449.184	n/a	WORD	724592	wordpools/wasnorm_wordpool.txt	LTP127	ltpFR	8	5	0	AIRPORT	13	n/a	n/a	1	n/a	0	0	0	0.57763671875	0.412841796875	1	upper	amplitud.ttf
1453.024	n/a	WORD	726512	wordpools/wasnorm_wordpool.txt	LTP127	ltpFR	8	5	0	CHESS	294	n/a	n/a	0	n/a	0	0	0	0.57763671875	0.412841796875	1	upper	amplitud.ttf
1457.24	n/a	WORD	728620	wordpools/wasnorm_wordpool.txt	LTP127	ltpFR	8	5	0	CHEMIST	292	n/a	n/a	1	n/a	0	0	0	0.57763671875	0.412841796875	1	upper	amplitud.ttf
1463.148	n/a	REC_START	731574	n/a	LTP127	ltpFR	8	5	n/a	n/a	n/a	n/a	n/a	n/a	n/a	0	0	0	n/a	n/a	n/a	n/a	n/a
1465.736	n/a	REC_WORD	732868	wordpools/wasnorm_wordpool.txt	LTP127	ltpFR	8	5	0	CHEMIST	292	n/a	n/a	1	n/a	0	0	0	n/a	n/a	n/a	n/a	n/a
1466.43	n/a	REC_WORD	733215	wordpools/wasnorm_wordpool.txt	LTP127	ltpFR	8	5	0	CHEMICAL	291	n/a	n/a	0	n/a	0	0	0	n/a	n/a	n/a	n/a	n/a
1468.25	n/a	REC_WORD	734125	wordpools/wasnorm_wordpool.txt	LTP127	ltpFR	8	5	0	OATMEAL	967	n/a	n/a	0	n/a	0	0	0	n/a	n/a	n/a	n/a	n/a
1469.214	n/a	REC_WORD	734607	wordpools/wasnorm_wordpool.txt	LTP127	ltpFR	8	5	0	SHUTTER	1300	n/a	n/a	1	n/a	0	0	0	n/a	n/a	n/a	n/a	n/a
1470.212	n/a	REC_WORD	735106	wordpools/wasnorm_wordpool.txt	LTP127	ltpFR	8	5	0	AIRPORT	13	n/a	n/a	1	n/a	0	0	0	n/a	n/a	n/a	n/a	n/a
1471.378	n/a	REC_WORD	735689	wordpools/wasnorm_wordpool.txt	LTP127	ltpFR	8	5	0	CUFF	423	n/a	n/a	0	n/a	0	0	0	n/a	n/a	n/a	n/a	n/a
1472.266	n/a	REC_WORD	736133	wordpools/wasnorm_wordpool.txt	LTP127	ltpFR	8	5	0	ALLIGATOR	16	n/a	n/a	1	n/a	0	0	0	n/a	n/a	n/a	n/a	n/a
1474.722	n/a	REC_WORD	737361	wordpools/wasnorm_wordpool.txt	LTP127	ltpFR	8	5	0	JAW	751	n/a	n/a	0	n/a	0	0	0	n/a	n/a	n/a	n/a	n/a
1476.042	n/a	REC_WORD	738021	wordpools/wasnorm_wordpool.txt	LTP127	ltpFR	8	5	0	SCALPEL	1243	n/a	n/a	0	n/a	0	0	0	n/a	n/a	n/a	n/a	n/a
1476.762	n/a	REC_WORD	738381	wordpools/wasnorm_wordpool.txt	LTP127	ltpFR	8	5	0	STETHOSCOPE	1379	n/a	n/a	0	n/a	0	0	0	n/a	n/a	n/a	n/a	n/a
1478.312	n/a	REC_WORD	739156	wordpools/wasnorm_wordpool.txt	LTP127	ltpFR	8	5	0	STADIUM	1364	n/a	n/a	1	n/a	0	0	0	n/a	n/a	n/a	n/a	n/a
1480.034	n/a	REC_WORD	740017	wordpools/wasnorm_wordpool.txt	LTP127	ltpFR	8	5	0	PICNIC	1060	n/a	n/a	1	n/a	0	0	0	n/a	n/a	n/a	n/a	n/a
1480.928	n/a	REC_WORD	740464	wordpools/wasnorm_wordpool.txt	LTP127	ltpFR	8	5	0	VOLCANO	1575	n/a	n/a	1	n/a	0	0	0	n/a	n/a	n/a	n/a	n/a
1558.018	n/a	WORD	779009	wordpools/wasnorm_wordpool.txt	LTP127	ltpFR	8	6	1	NAVIGATOR	938	n/a	n/a	1	n/a	0	0	0	0.422607421875	0.5869140625	0	lower	zerothre.ttf
1561.858	n/a	WORD	780929	wordpools/wasnorm_wordpool.txt	LTP127	ltpFR	8	6	1	KEY	773	n/a	n/a	0	n/a	0	0	0	0.422607421875	0.5869140625	0	lower	zerothre.ttf
1565.94	n/a	WORD	782970	wordpools/wasnorm_wordpool.txt	LTP127	ltpFR	8	6	1	PRODUCER	1129	n/a	n/a	1	n/a	0	0	0	0.422607421875	0.5869140625	0	lower	zerothre.ttf
1569.856	n/a	WORD	784928	wordpools/wasnorm_wordpool.txt	LTP127	ltpFR	8	6	1	EGG	518	n/a	n/a	0	n/a	0	0	0	0.422607421875	0.5869140625	0	lower	zerothre.ttf
1573.922	n/a	WORD	786961	wordpools/wasnorm_wordpool.txt	LTP127	ltpFR	8	6	0	YOKE	1632	n/a	n/a	2	n/a	0	0	0	0.57763671875	0.412841796875	1	upper	amplitud.ttf
1576.512	n/a	KEY_MSG	788256	n/a	LTP127	ltpFR	8	6	n/a	n/a	n/a	n/a	n/a	n/a	n/a	0	0	0	n/a	n/a	n/a	n/a	n/a
1578.97	n/a	WORD	789485	wordpools/wasnorm_wordpool.txt	LTP127	ltpFR	8	6	0	PLANE	1081	n/a	n/a	1	n/a	0	0	0	0.57763671875	0.412841796875	1	upper	amplitud.ttf
1582.878	n/a	WORD	791439	wordpools/wasnorm_wordpool.txt	LTP127	ltpFR	8	6	0	FUGITIVE	612	n/a	n/a	1	n/a	0	0	0	0.57763671875	0.412841796875	1	upper	amplitud.ttf
1586.876	n/a	WORD	793438	wordpools/wasnorm_wordpool.txt	LTP127	ltpFR	8	6	0	BEAVER	109	n/a	n/a	0	n/a	0	0	0	0.57763671875	0.412841796875	1	upper	amplitud.ttf
1591.0	n/a	WORD	795500	wordpools/wasnorm_wordpool.txt	LTP127	ltpFR	8	6	0	GREASE	660	n/a	n/a	0	n/a	0	0	0	0.57763671875	0.412841796875	1	upper	amplitud.ttf
1595.048	n/a	WORD	797524	wordpools/wasnorm_wordpool.txt	LTP127	ltpFR	8	6	1	CONVICT	371	n/a	n/a	1	n/a	0	0	0	0.422607421875	0.5869140625	0	lower	zerothre.ttf
1599.064	n/a	WORD	799532	wordpools/wasnorm_wordpool.txt	LTP127	ltpFR	8	6	1	CORPORATION	382	n/a	n/a	1	n/a	0	0	0	0.422607421875	0.5869140625	0	lower	zerothre.ttf
1603.088	n/a	WORD	801544	wordpools/wasnorm_wordpool.txt	LTP127	ltpFR	8	6	0	MOP	916	n/a	n/a	0	n/a	0	0	0	0.57763671875	0.412841796875	1	upper	amplitud.ttf
1607.078	n/a	WORD	803539	wordpools/wasnorm_wordpool.txt	LTP127	ltpFR	8	6	0	CLOSET	326	n/a	n/a	1	n/a	0	0	0	0.57763671875	0.412841796875	1	upper	amplitud.ttf
1611.26	n/a	WORD	805630	wordpools/wasnorm_wordpool.txt	LTP127	ltpFR	8	6	0	DRYER	503	n/a	n/a	1	n/a	0	0	0	0.57763671875	0.412841796875	1	upper	amplitud.ttf
1615.41	n/a	WORD	807705	wordpools/wasnorm_wordpool.txt	LTP127	ltpFR	8	6	1	LASER	801	n/a	n/a	0	n/a	0	0	0	0.422607421875	0.5869140625	0	lower	zerothre.ttf
1619.408	n/a	WORD	809704	wordpools/wasnorm_wordpool.txt	LTP127	ltpFR	8	6	1	TUNNEL	1519	n/a	n/a	0	n/a	0	0	0	0.422607421875	0.5869140625	0	lower	zerothre.ttf
1622.416	n/a	START	811208	n/a	LTP127	ltpFR	8	n/a	n/a	n/a	n/a	n/a	n/a	n/a	n/a	n/a	n/a	n/a	n/a	n/a	n/a	n/a	n/a
1623.224	n/a	PROB	811612	n/a	LTP127	ltpFR	8	n/a	n/a	n/a	n/a	n/a	n/a	n/a	18	8	8	2	n/a	n/a	n/a	n/a	n/a
1626.014	n/a	PROB	813007	n/a	LTP127	ltpFR	8	n/a	n/a	n/a	n/a	n/a	n/a	n/a	9	2	2	5	n/a	n/a	n/a	n/a	n/a
1627.822	n/a	PROB	813911	n/a	LTP127	ltpFR	8	n/a	n/a	n/a	n/a	n/a	n/a	n/a	20	9	5	6	n/a	n/a	n/a	n/a	n/a
1630.204	n/a	PROB	815102	n/a	LTP127	ltpFR	8	n/a	n/a	n/a	n/a	n/a	n/a	n/a	14	7	4	3	n/a	n/a	n/a	n/a	n/a
1631.98	n/a	PROB	815990	n/a	LTP127	ltpFR	8	n/a	n/a	n/a	n/a	n/a	n/a	n/a	11	3	1	7	n/a	n/a	n/a	n/a	n/a
1633.33	n/a	PROB	816665	n/a	LTP127	ltpFR	8	n/a	n/a	n/a	n/a	n/a	n/a	n/a	14	5	7	2	n/a	n/a	n/a	n/a	n/a
1635.528	n/a	PROB	817764	n/a	LTP127	ltpFR	8	n/a	n/a	n/a	n/a	n/a	n/a	n/a	18	8	7	3	n/a	n/a	n/a	n/a	n/a
1637.146	n/a	STOP	818573	n/a	LTP127	ltpFR	8	n/a	n/a	n/a	n/a	n/a	n/a	n/a	n/a	n/a	n/a	n/a	n/a	n/a	n/a	n/a	n/a
1640.218	n/a	REC_START	820109	n/a	LTP127	ltpFR	8	6	n/a	n/a	n/a	n/a	n/a	n/a	n/a	0	0	0	n/a	n/a	n/a	n/a	n/a
1641.974	n/a	REC_WORD	820987	wordpools/wasnorm_wordpool.txt	LTP127	ltpFR	8	6	1	NAVIGATOR	938	n/a	n/a	1	n/a	0	0	0	n/a	n/a	n/a	n/a	n/a
1643.082	n/a	REC_WORD	821541	wordpools/wasnorm_wordpool.txt	LTP127	ltpFR	8	6	1	KEY	773	n/a	n/a	0	n/a	0	0	0	n/a	n/a	n/a	n/a	n/a
1643.84	n/a	REC_WORD	821920	wordpools/wasnorm_wordpool.txt	LTP127	ltpFR	8	6	1	PRODUCER	1129	n/a	n/a	1	n/a	0	0	0	n/a	n/a	n/a	n/a	n/a
1645.058	n/a	REC_WORD	822529	wordpools/wasnorm_wordpool.txt	LTP127	ltpFR	8	6	n/a	AIRPLANE	12	n/a	n/a	n/a	n/a	0	0	0	n/a	n/a	n/a	n/a	n/a
1649.966	n/a	REC_WORD	824983	wordpools/wasnorm_wordpool.txt	LTP127	ltpFR	8	6	1	EGG	518	n/a	n/a	0	n/a	0	0	0	n/a	n/a	n/a	n/a	n/a
1650.856	n/a	REC_WORD	825428	wordpools/wasnorm_wordpool.txt	LTP127	ltpFR	8	6	0	YOKE	1632	n/a	n/a	2	n/a	0	0	0	n/a	n/a	n/a	n/a	n/a
1654.88	n/a	REC_WORD	827440	wordpools/wasnorm_wordpool.txt	LTP127	ltpFR	8	6	0	MOP	916	n/a	n/a	0	n/a	0	0	0	n/a	n/a	n/a	n/a	n/a
1659.346	n/a	REC_WORD	829673	wordpools/wasnorm_wordpool.txt	LTP127	ltpFR	8	6	1	CORPORATION	382	n/a	n/a	1	n/a	0	0	0	n/a	n/a	n/a	n/a	n/a
1728.5	n/a	START	864250	n/a	LTP127	ltpFR	8	n/a	n/a	n/a	n/a	n/a	n/a	n/a	n/a	n/a	n/a	n/a	n/a	n/a	n/a	n/a	n/a
1730.008	n/a	PROB	865004	n/a	LTP127	ltpFR	8	n/a	n/a	n/a	n/a	n/a	n/a	n/a	17	7	2	8	n/a	n/a	n/a	n/a	n/a
1731.95	n/a	PROB	865975	n/a	LTP127	ltpFR	8	n/a	n/a	n/a	n/a	n/a	n/a	n/a	15	2	4	9	n/a	n/a	n/a	n/a	n/a
1733.848	n/a	PROB	866924	n/a	LTP127	ltpFR	8	n/a	n/a	n/a	n/a	n/a	n/a	n/a	10	4	4	2	n/a	n/a	n/a	n/a	n/a
1736.0	n/a	STOP	868000	n/a	LTP127	ltpFR	8	n/a	n/a	n/a	n/a	n/a	n/a	n/a	n/a	n/a	n/a	n/a	n/a	n/a	n/a	n/a	n/a
1737.556	n/a	WORD	868778	wordpools/wasnorm_wordpool.txt	LTP127	ltpFR	8	7	0	SAXOPHONE	1240	n/a	n/a	1	n/a	0	0	0	0.57763671875	0.412841796875	1	upper	amplitud.ttf
1740.564	n/a	START	870282	n/a	LTP127	ltpFR	8	n/a	n/a	n/a	n/a	n/a	n/a	n/a	n/a	n/a	n/a	n/a	n/a	n/a	n/a	n/a	n/a
1741.554	n/a	PROB	870777	n/a	LTP127	ltpFR	8	n/a	n/a	n/a	n/a	n/a	n/a	n/a	13	7	4	2	n/a	n/a	n/a	n/a	n/a
1744.37	n/a	PROB	872185	n/a	LTP127	ltpFR	8	n/a	n/a	n/a	n/a	n/a	n/a	n/a	11	7	2	2	n/a	n/a	n/a	n/a	n/a
1746.178	n/a	PROB	873089	n/a	LTP127	ltpFR	8	n/a	n/a	n/a	n/a	n/a	n/a	n/a	16	5	7	4	n/a	n/a	n/a	n/a	n/a
1748.168	n/a	STOP	874084	n/a	LTP127	ltpFR	8	n/a	n/a	n/a	n/a	n/a	n/a	n/a	n/a	n/a	n/a	n/a	n/a	n/a	n/a	n/a	n/a
1749.46	n/a	WORD	874730	wordpools/wasnorm_wordpool.txt	LTP127	ltpFR	8	7	0	BAND	78	n/a	n/a	1	n/a	0	0	0	0.57763671875	0.412841796875	1	upper	amplitud.ttf
1752.468	n/a	START	876234	n/a	LTP127	ltpFR	8	n/a	n/a	n/a	n/a	n/a	n/a	n/a	n/a	n/a	n/a	n/a	n/a	n/a	n/a	n/a	n/a
1753.56	n/a	PROB	876780	n/a	LTP127	ltpFR	8	n/a	n/a	n/a	n/a	n/a	n/a	n/a	11	1	4	6	n/a	n/a	n/a	n/a	n/a
1754.8	n/a	PROB	877400	n/a	LTP127	ltpFR	8	n/a	n/a	n/a	n/a	n/a	n/a	n/a	23	8	9	5	n/a	n/a	n/a	n/a	n/a
1760.468	n/a	STOP	880234	n/a	LTP127	ltpFR	8	n/a	n/a	n/a	n/a	n/a	n/a	n/a	n/a	n/a	n/a	n/a	n/a	n/a	n/a	n/a	n/a
1761.632	n/a	WORD	880816	wordpools/wasnorm_wordpool.txt	LTP127	ltpFR	8	7	0	ANIMAL	23	n/a	n/a	1	n/a	0	0	0	0.57763671875	0.412841796875	1	upper	amplitud.ttf
1764.64	n/a	START	882320	n/a	LTP127	ltpFR	8	n/a	n/a	n/a	n/a	n/a	n/a	n/a	n/a	n/a	n/a	n/a	n/a	n/a	n/a	n/a	n/a
1765.564	n/a	PROB	882782	n/a	LTP127	ltpFR	8	n/a	n/a	n/a	n/a	n/a	n/a	n/a	15	2	8	5	n/a	n/a	n/a	n/a	n/a
1766.98	n/a	PROB	883490	n/a	LTP127	ltpFR	8	n/a	n/a	n/a	n/a	n/a	n/a	n/a	7	1	4	2	n/a	n/a	n/a	n/a	n/a
1769.596	n/a	PROB	884798	n/a	LTP127	ltpFR	8	n/a	n/a	n/a	n/a	n/a	n/a	n/a	5	1	3	1	n/a	n/a	n/a	n/a	n/a
1772.64	n/a	STOP	886320	n/a	LTP127	ltpFR	8	n/a	n/a	n/a	n/a	n/a	n/a	n/a	n/a	n/a	n/a	n/a	n/a	n/a	n/a	n/a	n/a
1773.494	n/a	WORD	886747	wordpools/wasnorm_wordpool.txt	LTP127	ltpFR	8	7	0	FIELD	562	n/a	n/a	1	n/a	0	0	0	0.57763671875	0.412841796875	1	upper	amplitud.ttf
1776.502	n/a	START	888251	n/a	LTP127	ltpFR	8	n/a	n/a	n/a	n/a	n/a	n/a	n/a	n/a	n/a	n/a	n/a	n/a	n/a	n/a	n/a	n/a
1777.468	n/a	PROB	888734	n/a	LTP127	ltpFR	8	n/a	n/a	n/a	n/a	n/a	n/a	n/a	6	2	3	1	n/a	n/a	n/a	n/a	n/a
1779.318	n/a	PROB	889659	n/a	LTP127	ltpFR	8	n/a	n/a	n/a	n/a	n/a	n/a	n/a	14	6	5	3	n/a	n/a	n/a	n/a	n/a
1781.008	n/a	PROB	890504	n/a	LTP127	ltpFR	8	n/a	n/a	n/a	n/a	n/a	n/a	n/a	16	9	1	6	n/a	n/a	n/a	n/a	n/a
1784.504	n/a	STOP	892252	n/a	LTP127	ltpFR	8	n/a	n/a	n/a	n/a	n/a	n/a	n/a	n/a	n/a	n/a	n/a	n/a	n/a	n/a	n/a	n/a
1785.35	n/a	WORD	892675	wordpools/wasnorm_wordpool.txt	LTP127	ltpFR	8	7	1	GARDEN	623	n/a	n/a	1	n/a	0	0	0	0.422607421875	0.5869140625	0	lower	zerothre.ttf
1788.358	n/a	START	894179	n/a	LTP127	ltpFR	8	n/a	n/a	n/a	n/a	n/a	n/a	n/a	n/a	n/a	n/a	n/a	n/a	n/a	n/a	n/a	n/a
1789.298	n/a	PROB	894649	n/a	LTP127	ltpFR	8	n/a	n/a	n/a	n/a	n/a	n/a	n/a	15	5	2	8	n/a	n/a	n/a	n/a	n/a
1791.098	n/a	PROB	895549	n/a	LTP127	ltpFR	8	n/a	n/a	n/a	n/a	n/a	n/a	n/a	20	8	6	6	n/a	n/a	n/a	n/a	n/a
1793.414	n/a	PROB	896707	n/a	LTP127	ltpFR	8	n/a	n/a	n/a	n/a	n/a	n/a	n/a	112	1	2	9	n/a	n/a	n/a	n/a	n/a
1795.642	n/a	STOP	897821	n/a	LTP127	ltpFR	8	n/a	n/a	n/a	n/a	n/a	n/a	n/a	n/a	n/a	n/a	n/a	n/a	n/a	n/a	n/a	n/a
1797.38	n/a	WORD	898690	wordpools/wasnorm_wordpool.txt	LTP127	ltpFR	8	7	1	SANDPAPER	1231	n/a	n/a	0	n/a	0	0	0	0.422607421875	0.5869140625	0	lower	zerothre.ttf
1800.386	n/a	START	900193	n/a	LTP127	ltpFR	8	n/a	n/a	n/a	n/a	n/a	n/a	n/a	n/a	n/a	n/a	n/a	n/a	n/a	n/a	n/a	n/a
1801.302	n/a	PROB	900651	n/a	LTP127	ltpFR	8	n/a	n/a	n/a	n/a	n/a	n/a	n/a	21	7	6	8	n/a	n/a	n/a	n/a	n/a
1803.194	n/a	PROB	901597	n/a	LTP127	ltpFR	8	n/a	n/a	n/a	n/a	n/a	n/a	n/a	17	1	8	8	n/a	n/a	n/a	n/a	n/a
1806.094	n/a	PROB	903047	n/a	LTP127	ltpFR	8	n/a	n/a	n/a	n/a	n/a	n/a	n/a	18	5	4	9	n/a	n/a	n/a	n/a	n/a
1808.172	n/a	STOP	904086	n/a	LTP127	ltpFR	8	n/a	n/a	n/a	n/a	n/a	n/a	n/a	n/a	n/a	n/a	n/a	n/a	n/a	n/a	n/a	n/a
1809.318	n/a	WORD	904659	wordpools/wasnorm_wordpool.txt	LTP127	ltpFR	8	7	1	FACTORY	548	n/a	n/a	0	n/a	0	0	0	0.422607421875	0.5869140625	0	lower	zerothre.ttf
1812.326	n/a	START	906163	n/a	LTP127	ltpFR	8	n/a	n/a	n/a	n/a	n/a	n/a	n/a	n/a	n/a	n/a	n/a	n/a	n/a	n/a	n/a	n/a
1813.274	n/a	PROB	906637	n/a	LTP127	ltpFR	8	n/a	n/a	n/a	n/a	n/a	n/a	n/a	17	2	7	8	n/a	n/a	n/a	n/a	n/a
1815.722	n/a	PROB	907861	n/a	LTP127	ltpFR	8	n/a	n/a	n/a	n/a	n/a	n/a	n/a	14	4	2	7	n/a	n/a	n/a	n/a	n/a
1818.844	n/a	STOP	909422	n/a	LTP127	ltpFR	8	n/a	n/a	n/a	n/a	n/a	n/a	n/a	n/a	n/a	n/a	n/a	n/a	n/a	n/a	n/a	n/a
1821.398	n/a	WORD	910699	wordpools/wasnorm_wordpool.txt	LTP127	ltpFR	8	7	1	COMMUNITY	356	n/a	n/a	1	n/a	0	0	0	0.422607421875	0.5869140625	0	lower	zerothre.ttf
1824.406	n/a	START	912203	n/a	LTP127	ltpFR	8	n/a	n/a	n/a	n/a	n/a	n/a	n/a	n/a	n/a	n/a	n/a	n/a	n/a	n/a	n/a	n/a
1825.388	n/a	PROB	912694	n/a	LTP127	ltpFR	8	n/a	n/a	n/a	n/a	n/a	n/a	n/a	14	2	7	6	n/a	n/a	n/a	n/a	n/a
1827.854	n/a	PROB	913927	n/a	LTP127	ltpFR	8	n/a	n/a	n/a	n/a	n/a	n/a	n/a	22	7	8	7	n/a	n/a	n/a	n/a	n/a
1830.17	n/a	PROB	915085	n/a	LTP127	ltpFR	8	n/a	n/a	n/a	n/a	n/a	n/a	n/a	12	4	2	6	n/a	n/a	n/a	n/a	n/a
1831.812	n/a	STOP	915906	n/a	LTP127	ltpFR	8	n/a	n/a	n/a	n/a	n/a	n/a	n/a	n/a	n/a	n/a	n/a	n/a	n/a	n/a	n/a	n/a
1833.236	n/a	WORD	916618	wordpools/wasnorm_wordpool.txt	LTP127	ltpFR	8	7	1	POISON	1096	n/a	n/a	0	n/a	0	0	0	0.422607421875	0.5869140625	0	lower	zerothre.ttf
1836.242	n/a	START	918121	n/a	LTP127	ltpFR	8	n/a	n/a	n/a	n/a	n/a	n/a	n/a	n/a	n/a	n/a	n/a	n/a	n/a	n/a	n/a	n/a
1837.392	n/a	PROB	918696	n/a	LTP127	ltpFR	8	n/a	n/a	n/a	n/a	n/a	n/a	n/a	18	6	7	5	n/a	n/a	n/a	n/a	n/a
1839.25	n/a	PROB	919625	n/a	LTP127	ltpFR	8	n/a	n/a	n/a	n/a	n/a	n/a	n/a	1	6	1	6	n/a	n/a	n/a	n/a	n/a
1844.244	n/a	STOP	922122	n/a	LTP127	ltpFR	8	n/a	n/a	n/a	n/a	n/a	n/a	n/a	n/a	n/a	n/a	n/a	n/a	n/a	n/a	n/a	n/a
1845.39	n/a	WORD	922695	wordpools/wasnorm_wordpool.txt	LTP127	ltpFR	8	7	1	PIER	1063	n/a	n/a	0	n/a	0	0	0	0.422607421875	0.5869140625	0	lower	zerothre.ttf
1848.398	n/a	START	924199	n/a	LTP127	ltpFR	8	n/a	n/a	n/a	n/a	n/a	n/a	n/a	n/a	n/a	n/a	n/a	n/a	n/a	n/a	n/a	n/a
1849.238	n/a	PROB	924619	n/a	LTP127	ltpFR	8	n/a	n/a	n/a	n/a	n/a	n/a	n/a	18	5	7	6	n/a	n/a	n/a	n/a	n/a
1851.462	n/a	PROB	925731	n/a	LTP127	ltpFR	8	n/a	n/a	n/a	n/a	n/a	n/a	n/a	12	2	9	1	n/a	n/a	n/a	n/a	n/a
1853.178	n/a	PROB	926589	n/a	LTP127	ltpFR	8	n/a	n/a	n/a	n/a	n/a	n/a	n/a	8	2	5	2	n/a	n/a	n/a	n/a	n/a
1856.382	n/a	STOP	928191	n/a	LTP127	ltpFR	8	n/a	n/a	n/a	n/a	n/a	n/a	n/a	n/a	n/a	n/a	n/a	n/a	n/a	n/a	n/a	n/a
1857.444	n/a	WORD	928722	wordpools/wasnorm_wordpool.txt	LTP127	ltpFR	8	7	0	VIKING	1565	n/a	n/a	1	n/a	0	0	0	0.57763671875	0.412841796875	1	upper	amplitud.ttf
1860.452	n/a	START	930226	n/a	LTP127	ltpFR	8	n/a	n/a	n/a	n/a	n/a	n/a	n/a	n/a	n/a	n/a	n/a	n/a	n/a	n/a	n/a	n/a
1861.544	n/a	PROB	930772	n/a	LTP127	ltpFR	8	n/a	n/a	n/a	n/a	n/a	n/a	n/a	21	8	8	5	n/a	n/a	n/a	n/a	n/a
1863.344	n/a	PROB	931672	n/a	LTP127	ltpFR	8	n/a	n/a	n/a	n/a	n/a	n/a	n/a	22	6	9	7	n/a	n/a	n/a	n/a	n/a
1867.958	n/a	STOP	933979	n/a	LTP127	ltpFR	8	n/a	n/a	n/a	n/a	n/a	n/a	n/a	n/a	n/a	n/a	n/a	n/a	n/a	n/a	n/a	n/a
1869.49	n/a	WORD	934745	wordpools/wasnorm_wordpool.txt	LTP127	ltpFR	8	7	0	SOCK	1339	n/a	n/a	0	n/a	0	0	0	0.57763671875	0.412841796875	1	upper	amplitud.ttf
1872.498	n/a	START	936249	n/a	LTP127	ltpFR	8	n/a	n/a	n/a	n/a	n/a	n/a	n/a	n/a	n/a	n/a	n/a	n/a	n/a	n/a	n/a	n/a
1873.39	n/a	PROB	936695	n/a	LTP127	ltpFR	8	n/a	n/a	n/a	n/a	n/a	n/a	n/a	19	8	7	4	n/a	n/a	n/a	n/a	n/a
1875.914	n/a	PROB	937957	n/a	LTP127	ltpFR	8	n/a	n/a	n/a	n/a	n/a	n/a	n/a	11	9	1	1	n/a	n/a	n/a	n/a	n/a
1877.28	n/a	PROB	938640	n/a	LTP127	ltpFR	8	n/a	n/a	n/a	n/a	n/a	n/a	n/a	8	2	4	2	n/a	n/a	n/a	n/a	n/a
1879.088	n/a	STOP	939544	n/a	LTP127	ltpFR	8	n/a	n/a	n/a	n/a	n/a	n/a	n/a	n/a	n/a	n/a	n/a	n/a	n/a	n/a	n/a	n/a
1881.404	n/a	WORD	940702	wordpools/wasnorm_wordpool.txt	LTP127	ltpFR	8	7	1	KEEPER	769	n/a	n/a	1	n/a	0	0	0	0.422607421875	0.5869140625	0	lower	zerothre.ttf
1884.412	n/a	START	942206	n/a	LTP127	ltpFR	8	n/a	n/a	n/a	n/a	n/a	n/a	n/a	n/a	n/a	n/a	n/a	n/a	n/a	n/a	n/a	n/a
1885.236	n/a	PROB	942618	n/a	LTP127	ltpFR	8	n/a	n/a	n/a	n/a	n/a	n/a	n/a	18	6	8	4	n/a	n/a	n/a	n/a	n/a
1887.986	n/a	PROB	943993	n/a	LTP127	ltpFR	8	n/a	n/a	n/a	n/a	n/a	n/a	n/a	16	3	8	5	n/a	n/a	n/a	n/a	n/a
1890.26	n/a	PROB	945130	n/a	LTP127	ltpFR	8	n/a	n/a	n/a	n/a	n/a	n/a	n/a	20	9	6	5	n/a	n/a	n/a	n/a	n/a
1892.216	n/a	STOP	946108	n/a	LTP127	ltpFR	8	n/a	n/a	n/a	n/a	n/a	n/a	n/a	n/a	n/a	n/a	n/a	n/a	n/a	n/a	n/a	n/a
1893.358	n/a	WORD	946679	wordpools/wasnorm_wordpool.txt	LTP127	ltpFR	8	7	1	BLOSSOM	138	n/a	n/a	1	n/a	0	0	0	0.422607421875	0.5869140625	0	lower	zerothre.ttf
1896.366	n/a	START	948183	n/a	LTP127	ltpFR	8	n/a	n/a	n/a	n/a	n/a	n/a	n/a	n/a	n/a	n/a	n/a	n/a	n/a	n/a	n/a	n/a
1897.458	n/a	PROB	948729	n/a	LTP127	ltpFR	8	n/a	n/a	n/a	n/a	n/a	n/a	n/a	11	4	3	4	n/a	n/a	n/a	n/a	n/a
1899.748	n/a	PROB	949874	n/a	LTP127	ltpFR	8	n/a	n/a	n/a	n/a	n/a	n/a	n/a	17	7	1	9	n/a	n/a	n/a	n/a	n/a
1902.232	n/a	PROB	951116	n/a	LTP127	ltpFR	8	n/a	n/a	n/a	n/a	n/a	n/a	n/a	15	5	3	7	n/a	n/a	n/a	n/a	n/a
1903.68	n/a	STOP	951840	n/a	LTP127	ltpFR	8	n/a	n/a	n/a	n/a	n/a	n/a	n/a	n/a	n/a	n/a	n/a	n/a	n/a	n/a	n/a	n/a
1905.422	n/a	WORD	952711	wordpools/wasnorm_wordpool.txt	LTP127	ltpFR	8	7	0	CONTRACTOR	369	n/a	n/a	0	n/a	0	0	0	0.57763671875	0.412841796875	1	upper	amplitud.ttf
1908.43	n/a	START	954215	n/a	LTP127	ltpFR	8	n/a	n/a	n/a	n/a	n/a	n/a	n/a	n/a	n/a	n/a	n/a	n/a	n/a	n/a	n/a	n/a
1909.612	n/a	PROB	954806	n/a	LTP127	ltpFR	8	n/a	n/a	n/a	n/a	n/a	n/a	n/a	17	8	8	1	n/a	n/a	n/a	n/a	n/a
1911.952	n/a	PROB	955976	n/a	LTP127	ltpFR	8	n/a	n/a	n/a	n/a	n/a	n/a	n/a	14	6	5	3	n/a	n/a	n/a	n/a	n/a
1915.056	n/a	STOP	957528	n/a	LTP127	ltpFR	8	n/a	n/a	n/a	n/a	n/a	n/a	n/a	n/a	n/a	n/a	n/a	n/a	n/a	n/a	n/a	n/a
1917.402	n/a	WORD	958701	wordpools/wasnorm_wordpool.txt	LTP127	ltpFR	8	7	0	HOSE	720	n/a	n/a	1	n/a	0	0	0	0.57763671875	0.412841796875	1	upper	amplitud.ttf
1920.41	n/a	START	960205	n/a	LTP127	ltpFR	8	n/a	n/a	n/a	n/a	n/a	n/a	n/a	n/a	n/a	n/a	n/a	n/a	n/a	n/a	n/a	n/a
1921.234	n/a	PROB	960617	n/a	LTP127	ltpFR	8	n/a	n/a	n/a	n/a	n/a	n/a	n/a	14	1	6	7	n/a	n/a	n/a	n/a	n/a
1922.974	n/a	PROB	961487	n/a	LTP127	ltpFR	8	n/a	n/a	n/a	n/a	n/a	n/a	n/a	7	1	3	3	n/a	n/a	n/a	n/a	n/a
1924.708	n/a	PROB	962354	n/a	LTP127	ltpFR	8	n/a	n/a	n/a	n/a	n/a	n/a	n/a	19	7	9	3	n/a	n/a	n/a	n/a	n/a
1927.33	n/a	STOP	963665	n/a	LTP127	ltpFR	8	n/a	n/a	n/a	n/a	n/a	n/a	n/a	n/a	n/a	n/a	n/a	n/a	n/a	n/a	n/a	n/a
1930.332	n/a	REC_START	965166	n/a	LTP127	ltpFR	8	7	n/a	n/a	n/a	n/a	n/a	n/a	n/a	0	0	0	n/a	n/a	n/a	n/a	n/a
1932.192	n/a	REC_WORD	966096	wordpools/wasnorm_wordpool.txt	LTP127	ltpFR	8	7	0	HOSE	720	n/a	n/a	1	n/a	0	0	0	n/a	n/a	n/a	n/a	n/a
1933.01	n/a	REC_WORD_VV	966505	wordpools/wasnorm_wordpool.txt	LTP127	ltpFR	8	7	n/a	<>	-1	n/a	n/a	n/a	n/a	0	0	0	n/a	n/a	n/a	n/a	n/a
1934.636	n/a	REC_WORD	967318	wordpools/wasnorm_wordpool.txt	LTP127	ltpFR	8	7	0	CONTRACTOR	369	n/a	n/a	0	n/a	0	0	0	n/a	n/a	n/a	n/a	n/a
1936.798	n/a	REC_WORD	968399	wordpools/wasnorm_wordpool.txt	LTP127	ltpFR	8	7	1	BLOSSOM	138	n/a	n/a	1	n/a	0	0	0	n/a	n/a	n/a	n/a	n/a
1938.39	n/a	REC_WORD	969195	wordpools/wasnorm_wordpool.txt	LTP127	ltpFR	8	7	0	FIELD	562	n/a	n/a	1	n/a	0	0	0	n/a	n/a	n/a	n/a	n/a
1940.16	n/a	REC_WORD	970080	wordpools/wasnorm_wordpool.txt	LTP127	ltpFR	8	7	1	COMMUNITY	356	n/a	n/a	1	n/a	0	0	0	n/a	n/a	n/a	n/a	n/a
1941.796	n/a	REC_WORD	970898	wordpools/wasnorm_wordpool.txt	LTP127	ltpFR	8	7	1	GARDEN	623	n/a	n/a	1	n/a	0	0	0	n/a	n/a	n/a	n/a	n/a
1943.028	n/a	REC_WORD	971514	wordpools/wasnorm_wordpool.txt	LTP127	ltpFR	8	7	1	FACTORY	548	n/a	n/a	0	n/a	0	0	0	n/a	n/a	n/a	n/a	n/a
1944.056	n/a	REC_WORD	972028	wordpools/wasnorm_wordpool.txt	LTP127	ltpFR	8	7	1	SANDPAPER	1231	n/a	n/a	0	n/a	0	0	0	n/a	n/a	n/a	n/a	n/a
1945.588	n/a	REC_WORD	972794	wordpools/wasnorm_wordpool.txt	LTP127	ltpFR	8	7	0	VIKING	1565	n/a	n/a	1	n/a	0	0	0	n/a	n/a	n/a	n/a	n/a
1949.034	n/a	REC_WORD	974517	wordpools/wasnorm_wordpool.txt	LTP127	ltpFR	8	7	0	BAND	78	n/a	n/a	1	n/a	0	0	0	n/a	n/a	n/a	n/a	n/a
1950.446	n/a	REC_WORD	975223	wordpools/wasnorm_wordpool.txt	LTP127	ltpFR	8	7	0	ANIMAL	23	n/a	n/a	1	n/a	0	0	0	n/a	n/a	n/a	n/a	n/a
1951.5	n/a	REC_WORD	975750	wordpools/wasnorm_wordpool.txt	LTP127	ltpFR	8	7	0	SAXOPHONE	1240	n/a	n/a	1	n/a	0	0	0	n/a	n/a	n/a	n/a	n/a
2017.238	n/a	WORD	1008619	wordpools/wasnorm_wordpool.txt	LTP127	ltpFR	8	8	0	COB	334	n/a	n/a	0	n/a	0	0	0	0.57763671875	0.412841796875	1	upper	amplitud.ttf
2021.062	n/a	WORD	1010531	wordpools/wasnorm_wordpool.txt	LTP127	ltpFR	8	8	0	VALVE	1546	n/a	n/a	0	n/a	0	0	0	0.57763671875	0.412841796875	1	upper	amplitud.ttf
2024.894	n/a	WORD	1012447	wordpools/wasnorm_wordpool.txt	LTP127	ltpFR	8	8	1	CHAUFFEUR	283	n/a	n/a	1	n/a	0	0	0	0.422607421875	0.5869140625	0	lower	zerothre.ttf
2028.876	n/a	WORD	1014438	wordpools/wasnorm_wordpool.txt	LTP127	ltpFR	8	8	1	AUTOMOBILE	62	n/a	n/a	0	n/a	0	0	0	0.422607421875	0.5869140625	0	lower	zerothre.ttf
2032.918	n/a	WORD	1016459	wordpools/wasnorm_wordpool.txt	LTP127	ltpFR	8	8	1	CORN	381	n/a	n/a	1	n/a	0	0	0	0.422607421875	0.5869140625	0	lower	zerothre.ttf
2036.89	n/a	WORD	1018445	wordpools/wasnorm_wordpool.txt	LTP127	ltpFR	8	8	0	TOMATO	1476	n/a	n/a	0	n/a	0	0	0	0.57763671875	0.412841796875	1	upper	amplitud.ttf
2041.08	n/a	WORD	1020540	wordpools/wasnorm_wordpool.txt	LTP127	ltpFR	8	8	0	SAUSAGE	1238	n/a	n/a	0	n/a	0	0	0	0.57763671875	0.412841796875	1	upper	amplitud.ttf
2045.254	n/a	WORD	1022627	wordpools/wasnorm_wordpool.txt	LTP127	ltpFR	8	8	0	BEEF	113	n/a	n/a	0	n/a	0	0	0	0.57763671875	0.412841796875	1	upper	amplitud.ttf
2049.438	n/a	WORD	1024719	wordpools/wasnorm_wordpool.txt	LTP127	ltpFR	8	8	0	COYOTE	396	n/a	n/a	1	n/a	0	0	0	0.57763671875	0.412841796875	1	upper	amplitud.ttf
2053.27	n/a	WORD	1026635	wordpools/wasnorm_wordpool.txt	LTP127	ltpFR	8	8	0	TICK	1463	n/a	n/a	0	n/a	0	0	0	0.57763671875	0.412841796875	1	upper	amplitud.ttf
2057.418	n/a	WORD	1028709	wordpools/wasnorm_wordpool.txt	LTP127	ltpFR	8	8	0	BLOCKADE	137	n/a	n/a	1	n/a	0	0	0	0.57763671875	0.412841796875	1	upper	amplitud.ttf
2061.366	n/a	WORD	1030683	wordpools/wasnorm_wordpool.txt	LTP127	ltpFR	8	8	1	DANCER	437	n/a	n/a	1	n/a	0	0	0	0.422607421875	0.5869140625	0	lower	zerothre.ttf
2065.282	n/a	WORD	1032641	wordpools/wasnorm_wordpool.txt	LTP127	ltpFR	8	8	1	LOBSTER	837	n/a	n/a	1	n/a	0	0	0	0.422607421875	0.5869140625	0	lower	zerothre.ttf
2069.264	n/a	WORD	1034632	wordpools/wasnorm_wordpool.txt	LTP127	ltpFR	8	8	1	BUS	201	n/a	n/a	0	n/a	0	0	0	0.422607421875	0.5869140625	0	lower	zerothre.ttf
2073.238	n/a	WORD	1036619	wordpools/wasnorm_wordpool.txt	LTP127	ltpFR	8	8	1	INSECT	740	n/a	n/a	1	n/a	0	0	0	0.422607421875	0.5869140625	0	lower	zerothre.ttf
2077.378	n/a	WORD	1038689	wordpools/wasnorm_wordpool.txt	LTP127	ltpFR	8	8	1	BEAKER	104	n/a	n/a	0	n/a	0	0	0	0.422607421875	0.5869140625	0	lower	zerothre.ttf
2083.368	n/a	REC_START	1041684	n/a	LTP127	ltpFR	8	8	n/a	n/a	n/a	n/a	n/a	n/a	n/a	0	0	0	n/a	n/a	n/a	n/a	n/a
2084.52	n/a	REC_WORD	1042260	wordpools/wasnorm_wordpool.txt	LTP127	ltpFR	8	8	1	BEAKER	104	n/a	n/a	0	n/a	0	0	0	n/a	n/a	n/a	n/a	n/a
2085.274	n/a	REC_WORD	1042637	wordpools/wasnorm_wordpool.txt	LTP127	ltpFR	8	8	1	INSECT	740	n/a	n/a	1	n/a	0	0	0	n/a	n/a	n/a	n/a	n/a
2087.24	n/a	REC_WORD	1043620	wordpools/wasnorm_wordpool.txt	LTP127	ltpFR	8	8	1	DANCER	437	n/a	n/a	1	n/a	0	0	0	n/a	n/a	n/a	n/a	n/a
2089.416	n/a	REC_WORD	1044708	wordpools/wasnorm_wordpool.txt	LTP127	ltpFR	8	8	1	AUTOMOBILE	62	n/a	n/a	0	n/a	0	0	0	n/a	n/a	n/a	n/a	n/a
2090.32	n/a	REC_WORD	1045160	wordpools/wasnorm_wordpool.txt	LTP127	ltpFR	8	8	1	CHAUFFEUR	283	n/a	n/a	1	n/a	0	0	0	n/a	n/a	n/a	n/a	n/a
2093.042	n/a	REC_WORD	1046521	wordpools/wasnorm_wordpool.txt	LTP127	ltpFR	8	8	0	COYOTE	396	n/a	n/a	1	n/a	0	0	0	n/a	n/a	n/a	n/a	n/a
2094.01	n/a	REC_WORD	1047005	wordpools/wasnorm_wordpool.txt	LTP127	ltpFR	8	8	0	TICK	1463	n/a	n/a	0	n/a	0	0	0	n/a	n/a	n/a	n/a	n/a
2095.192	n/a	REC_WORD	1047596	wordpools/wasnorm_wordpool.txt	LTP127	ltpFR	8	8	0	TOMATO	1476	n/a	n/a	0	n/a	0	0	0	n/a	n/a	n/a	n/a	n/a
2096.354	n/a	REC_WORD	1048177	wordpools/wasnorm_wordpool.txt	LTP127	ltpFR	8	8	0	BEEF	113	n/a	n/a	0	n/a	0	0	0	n/a	n/a	n/a	n/a	n/a
2105.114	n/a	REC_WORD	1052557	wordpools/wasnorm_wordpool.txt	LTP127	ltpFR	8	8	0	VALVE	1546	n/a	n/a	0	n/a	0	0	0	n/a	n/a	n/a	n/a	n/a
2108.254	n/a	REC_WORD	1054127	wordpools/wasnorm_wordpool.txt	LTP127	ltpFR	8	8	0	COB	334	n/a	n/a	0	n/a	0	0	0	n/a	n/a	n/a	n/a	n/a
2109.396	n/a	REC_WORD	1054698	wordpools/wasnorm_wordpool.txt	LTP127	ltpFR	8	8	1	CORN	381	n/a	n/a	1	n/a	0	0	0	n/a	n/a	n/a	n/a	n/a
2182.38	n/a	WORD	1091190	wordpools/wasnorm_wordpool.txt	LTP127	ltpFR	8	9	1	HAWK	692	n/a	n/a	1	n/a	0	0	0	0.422607421875	0.5869140625	0	lower	zerothre.ttf
2186.562	n/a	WORD	1093281	wordpools/wasnorm_wordpool.txt	LTP127	ltpFR	8	9	1	PELICAN	1039	n/a	n/a	1	n/a	0	0	0	0.422607421875	0.5869140625	0	lower	zerothre.ttf
2190.728	n/a	WORD	1095364	wordpools/wasnorm_wordpool.txt	LTP127	ltpFR	8	9	1	UNDERWEAR	1537	n/a	n/a	0	n/a	0	0	0	0.422607421875	0.5869140625	0	lower	zerothre.ttf
2194.71	n/a	WORD	1097355	wordpools/wasnorm_wordpool.txt	LTP127	ltpFR	8	9	1	POLITICIAN	1099	n/a	n/a	1	n/a	0	0	0	0.422607421875	0.5869140625	0	lower	zerothre.ttf
2198.874	n/a	WORD	1099437	wordpools/wasnorm_wordpool.txt	LTP127	ltpFR	8	9	1	FREEWAY	603	n/a	n/a	0	n/a	0	0	0	0.422607421875	0.5869140625	0	lower	zerothre.ttf
2202.924	n/a	WORD	1101462	wordpools/wasnorm_wordpool.txt	LTP127	ltpFR	8	9	1	SWAN	1417	n/a	n/a	1	n/a	0	0	0	0.422607421875	0.5869140625	0	lower	zerothre.ttf
2206.856	n/a	WORD	1103428	wordpools/wasnorm_wordpool.txt	LTP127	ltpFR	8	9	1	PADDING	999	n/a	n/a	0	n/a	0	0	0	0.422607421875	0.5869140625	0	lower	zerothre.ttf
2210.93	n/a	WORD	1105465	wordpools/wasnorm_wordpool.txt	LTP127	ltpFR	8	9	1	PRESIDENT	1121	n/a	n/a	1	n/a	0	0	0	0.422607421875	0.5869140625	0	lower	zerothre.ttf
2214.962	n/a	WORD	1107481	wordpools/wasnorm_wordpool.txt	LTP127	ltpFR	8	9	1	GRASSHOPPER	656	n/a	n/a	1	n/a	0	0	0	0.422607421875	0.5869140625	0	lower	zerothre.ttf
2219.036	n/a	WORD	1109518	wordpools/wasnorm_wordpool.txt	LTP127	ltpFR	8	9	1	GRASS	655	n/a	n/a	1	n/a	0	0	0	0.422607421875	0.5869140625	0	lower	zerothre.ttf
2223.234	n/a	WORD	1111617	wordpools/wasnorm_wordpool.txt	LTP127	ltpFR	8	9	1	DIARY	460	n/a	n/a	0	n/a	0	0	0	0.422607421875	0.5869140625	0	lower	zerothre.ttf
2227.076	n/a	WORD	1113538	wordpools/wasnorm_wordpool.txt	LTP127	ltpFR	8	9	1	SPICE	1350	n/a	n/a	0	n/a	0	0	0	0.422607421875	0.5869140625	0	lower	zerothre.ttf
2231.14	n/a	WORD	1115570	wordpools/wasnorm_wordpool.txt	LTP127	ltpFR	8	9	1	MAPLE	866	n/a	n/a	1	n/a	0	0	0	0.422607421875	0.5869140625	0	lower	zerothre.ttf
2235.064	n/a	WORD	1117532	wordpools/wasnorm_wordpool.txt	LTP127	ltpFR	8	9	1	OLIVE	975	n/a	n/a	1	n/a	0	0	0	0.422607421875	0.5869140625	0	lower	zerothre.ttf
2239.156	n/a	WORD	1119578	wordpools/wasnorm_wordpool.txt	LTP127	ltpFR	8	9	1	PRAIRIE	1118	n/a	n/a	1	n/a	0	0	0	0.422607421875	0.5869140625	0	lower	zerothre.ttf
2243.138	n/a	WORD	1121569	wordpools/wasnorm_wordpool.txt	LTP127	ltpFR	8	9	1	ROBIN	1199	n/a	n/a	1	n/a	0	0	0	0.422607421875	0.5869140625	0	lower	zerothre.ttf
2246.144	n/a	START	1123072	n/a	LTP127	ltpFR	8	n/a	n/a	n/a	n/a	n/a	n/a	n/a	n/a	n/a	n/a	n/a	n/a	n/a	n/a	n/a	n/a
2247.07	n/a	PROB	1123535	n/a	LTP127	ltpFR	8	n/a	n/a	n/a	n/a	n/a	n/a	n/a	15	4	9	2	n/a	n/a	n/a	n/a	n/a
2249.202	n/a	PROB	1124601	n/a	LTP127	ltpFR	8	n/a	n/a	n/a	n/a	n/a	n/a	n/a	18	9	3	5	n/a	n/a	n/a	n/a	n/a
2251.36	n/a	PROB	1125680	n/a	LTP127	ltpFR	8	n/a	n/a	n/a	n/a	n/a	n/a	n/a	10	6	2	2	n/a	n/a	n/a	n/a	n/a
2254.05	n/a	STOP	1127025	n/a	LTP127	ltpFR	8	n/a	n/a	n/a	n/a	n/a	n/a	n/a	n/a	n/a	n/a	n/a	n/a	n/a	n/a	n/a	n/a
2256.034	n/a	REC_START	1128017	n/a	LTP127	ltpFR	8	9	n/a	n/a	n/a	n/a	n/a	n/a	n/a	0	0	0	n/a	n/a	n/a	n/a	n/a
2257.346	n/a	REC_WORD	1128673	wordpools/wasnorm_wordpool.txt	LTP127	ltpFR	8	9	1	PELICAN	1039	n/a	n/a	1	n/a	0	0	0	n/a	n/a	n/a	n/a	n/a
2258.15	n/a	REC_WORD	1129075	wordpools/wasnorm_wordpool.txt	LTP127	ltpFR	8	9	1	HAWK	692	n/a	n/a	1	n/a	0	0	0	n/a	n/a	n/a	n/a	n/a
2259.142	n/a	REC_WORD	1129571	wordpools/wasnorm_wordpool.txt	LTP127	ltpFR	8	9	1	POLITICIAN	1099	n/a	n/a	1	n/a	0	0	0	n/a	n/a	n/a	n/a	n/a
2260.41	n/a	REC_WORD	1130205	wordpools/wasnorm_wordpool.txt	LTP127	ltpFR	8	9	1	UNDERWEAR	1537	n/a	n/a	0	n/a	0	0	0	n/a	n/a	n/a	n/a	n/a
2261.318	n/a	REC_WORD	1130659	wordpools/wasnorm_wordpool.txt	LTP127	ltpFR	8	9	1	FREEWAY	603	n/a	n/a	0	n/a	0	0	0	n/a	n/a	n/a	n/a	n/a
2262.954	n/a	REC_WORD	1131477	wordpools/wasnorm_wordpool.txt	LTP127	ltpFR	8	9	1	PRESIDENT	1121	n/a	n/a	1	n/a	0	0	0	n/a	n/a	n/a	n/a	n/a
2263.796	n/a	REC_WORD	1131898	wordpools/wasnorm_wordpool.txt	LTP127	ltpFR	8	9	1	PADDING	999	n/a	n/a	0	n/a	0	0	0	n/a	n/a	n/a	n/a	n/a
2264.75	n/a	REC_WORD	1132375	wordpools/wasnorm_wordpool.txt	LTP127	ltpFR	8	9	1	SWAN	1417	n/a	n/a	1	n/a	0	0	0	n/a	n/a	n/a	n/a	n/a
2266.656	n/a	REC_WORD	1133328	wordpools/wasnorm_wordpool.txt	LTP127	ltpFR	8	9	1	ROBIN	1199	n/a	n/a	1	n/a	0	0	0	n/a	n/a	n/a	n/a	n/a
2267.788	n/a	REC_WORD	1133894	wordpools/wasnorm_wordpool.txt	LTP127	ltpFR	8	9	1	PRAIRIE	1118	n/a	n/a	1	n/a	0	0	0	n/a	n/a	n/a	n/a	n/a
2268.74	n/a	REC_WORD	1134370	wordpools/wasnorm_wordpool.txt	LTP127	ltpFR	8	9	1	GRASSHOPPER	656	n/a	n/a	1	n/a	0	0	0	n/a	n/a	n/a	n/a	n/a
2269.862	n/a	REC_WORD	1134931	wordpools/wasnorm_wordpool.txt	LTP127	ltpFR	8	9	1	GRASS	655	n/a	n/a	1	n/a	0	0	0	n/a	n/a	n/a	n/a	n/a
2343.824	n/a	START	1171912	n/a	LTP127	ltpFR	8	n/a	n/a	n/a	n/a	n/a	n/a	n/a	n/a	n/a	n/a	n/a	n/a	n/a	n/a	n/a	n/a
2345.34	n/a	PROB	1172670	n/a	LTP127	ltpFR	8	n/a	n/a	n/a	n/a	n/a	n/a	n/a	10	1	8	1	n/a	n/a	n/a	n/a	n/a
2346.788	n/a	PROB	1173394	n/a	LTP127	ltpFR	8	n/a	n/a	n/a	n/a	n/a	n/a	n/a	12	8	3	1	n/a	n/a	n/a	n/a	n/a
2348.614	n/a	PROB	1174307	n/a	LTP127	ltpFR	8	n/a	n/a	n/a	n/a	n/a	n/a	n/a	14	8	4	2	n/a	n/a	n/a	n/a	n/a
2350.496	n/a	PROB	1175248	n/a	LTP127	ltpFR	8	n/a	n/a	n/a	n/a	n/a	n/a	n/a	14	4	3	7	n/a	n/a	n/a	n/a	n/a
2352.32	n/a	PROB	1176160	n/a	LTP127	ltpFR	8	n/a	n/a	n/a	n/a	n/a	n/a	n/a	14	3	2	9	n/a	n/a	n/a	n/a	n/a
2354.354	n/a	PROB	1177177	n/a	LTP127	ltpFR	8	n/a	n/a	n/a	n/a	n/a	n/a	n/a	24	9	7	8	n/a	n/a	n/a	n/a	n/a
2356.552	n/a	PROB	1178276	n/a	LTP127	ltpFR	8	n/a	n/a	n/a	n/a	n/a	n/a	n/a	20	7	4	9	n/a	n/a	n/a	n/a	n/a
2358.64	n/a	STOP	1179320	n/a	LTP127	ltpFR	8	n/a	n/a	n/a	n/a	n/a	n/a	n/a	n/a	n/a	n/a	n/a	n/a	n/a	n/a	n/a	n/a
2360.826	n/a	WORD	1180413	wordpools/wasnorm_wordpool.txt	LTP127	ltpFR	8	10	1	LIEUTENANT	818	n/a	n/a	1	n/a	0	0	0	0.422607421875	0.5869140625	0	lower	zerothre.ttf
2363.834	n/a	START	1181917	n/a	LTP127	ltpFR	8	n/a	n/a	n/a	n/a	n/a	n/a	n/a	n/a	n/a	n/a	n/a	n/a	n/a	n/a	n/a	n/a
2364.834	n/a	PROB	1182417	n/a	LTP127	ltpFR	8	n/a	n/a	n/a	n/a	n/a	n/a	n/a	12	1	6	5	n/a	n/a	n/a	n/a	n/a
2366.232	n/a	PROB	1183116	n/a	LTP127	ltpFR	8	n/a	n/a	n/a	n/a	n/a	n/a	n/a	18	6	4	8	n/a	n/a	n/a	n/a	n/a
2368.816	n/a	PROB	1184408	n/a	LTP127	ltpFR	8	n/a	n/a	n/a	n/a	n/a	n/a	n/a	20	7	9	4	n/a	n/a	n/a	n/a	n/a
2371.556	n/a	PROB	1185778	n/a	LTP127	ltpFR	8	n/a	n/a	n/a	n/a	n/a	n/a	n/a	7	5	1	1	n/a	n/a	n/a	n/a	n/a
2372.84	n/a	PROB	1186420	n/a	LTP127	ltpFR	8	n/a	n/a	n/a	n/a	n/a	n/a	n/a	15	6	2	7	n/a	n/a	n/a	n/a	n/a
2374.94	n/a	PROB	1187470	n/a	LTP127	ltpFR	8	n/a	n/a	n/a	n/a	n/a	n/a	n/a	18	6	8	5	n/a	n/a	n/a	n/a	n/a
2379.836	n/a	STOP	1189918	n/a	LTP127	ltpFR	8	n/a	n/a	n/a	n/a	n/a	n/a	n/a	n/a	n/a	n/a	n/a	n/a	n/a	n/a	n/a	n/a
2380.778	n/a	WORD	1190389	wordpools/wasnorm_wordpool.txt	LTP127	ltpFR	8	10	1	PATRIOT	1026	n/a	n/a	1	n/a	0	0	0	0.422607421875	0.5869140625	0	lower	zerothre.ttf
2383.786	n/a	START	1191893	n/a	LTP127	ltpFR	8	n/a	n/a	n/a	n/a	n/a	n/a	n/a	n/a	n/a	n/a	n/a	n/a	n/a	n/a	n/a	n/a
2384.776	n/a	PROB	1192388	n/a	LTP127	ltpFR	8	n/a	n/a	n/a	n/a	n/a	n/a	n/a	12	3	7	2	n/a	n/a	n/a	n/a	n/a
2387.118	n/a	PROB	1193559	n/a	LTP127	ltpFR	8	n/a	n/a	n/a	n/a	n/a	n/a	n/a	145	1	9	4	n/a	n/a	n/a	n/a	n/a
2388.71	n/a	PROB	1194355	n/a	LTP127	ltpFR	8	n/a	n/a	n/a	n/a	n/a	n/a	n/a	17	5	4	8	n/a	n/a	n/a	n/a	n/a
2391.468	n/a	PROB	1195734	n/a	LTP127	ltpFR	8	n/a	n/a	n/a	n/a	n/a	n/a	n/a	12	3	3	6	n/a	n/a	n/a	n/a	n/a
2393.816	n/a	PROB	1196908	n/a	LTP127	ltpFR	8	n/a	n/a	n/a	n/a	n/a	n/a	n/a	8	4	3	1	n/a	n/a	n/a	n/a	n/a
2396.224	n/a	PROB	1198112	n/a	LTP127	ltpFR	8	n/a	n/a	n/a	n/a	n/a	n/a	n/a	20	5	9	6	n/a	n/a	n/a	n/a	n/a
2399.786	n/a	STOP	1199893	n/a	LTP127	ltpFR	8	n/a	n/a	n/a	n/a	n/a	n/a	n/a	n/a	n/a	n/a	n/a	n/a	n/a	n/a	n/a	n/a
2400.69	n/a	WORD	1200345	wordpools/wasnorm_wordpool.txt	LTP127	ltpFR	8	10	0	BUTTON	207	n/a	n/a	0	n/a	0	0	0	0.57763671875	0.412841796875	1	upper	amplitud.ttf
2403.698	n/a	START	1201849	n/a	LTP127	ltpFR	8	n/a	n/a	n/a	n/a	n/a	n/a	n/a	n/a	n/a	n/a	n/a	n/a	n/a	n/a	n/a	n/a
2404.778	n/a	PROB	1202389	n/a	LTP127	ltpFR	8	n/a	n/a	n/a	n/a	n/a	n/a	n/a	15	8	4	3	n/a	n/a	n/a	n/a	n/a
2406.846	n/a	PROB	1203423	n/a	LTP127	ltpFR	8	n/a	n/a	n/a	n/a	n/a	n/a	n/a	11	2	6	3	n/a	n/a	n/a	n/a	n/a
2408.986	n/a	PROB	1204493	n/a	LTP127	ltpFR	8	n/a	n/a	n/a	n/a	n/a	n/a	n/a	18	8	9	1	n/a	n/a	n/a	n/a	n/a
2411.536	n/a	PROB	1205768	n/a	LTP127	ltpFR	8	n/a	n/a	n/a	n/a	n/a	n/a	n/a	21	9	3	9	n/a	n/a	n/a	n/a	n/a
2414.46	n/a	PROB	1207230	n/a	LTP127	ltpFR	8	n/a	n/a	n/a	n/a	n/a	n/a	n/a	9	2	4	3	n/a	n/a	n/a	n/a	n/a
2419.698	n/a	STOP	1209849	n/a	LTP127	ltpFR	8	n/a	n/a	n/a	n/a	n/a	n/a	n/a	n/a	n/a	n/a	n/a	n/a	n/a	n/a	n/a	n/a
2420.874	n/a	WORD	1210437	wordpools/wasnorm_wordpool.txt	LTP127	ltpFR	8	10	0	STRAW	1390	n/a	n/a	0	n/a	0	0	0	0.57763671875	0.412841796875	1	upper	amplitud.ttf
2423.882	n/a	START	1211941	n/a	LTP127	ltpFR	8	n/a	n/a	n/a	n/a	n/a	n/a	n/a	n/a	n/a	n/a	n/a	n/a	n/a	n/a	n/a	n/a
2424.74	n/a	PROB	1212370	n/a	LTP127	ltpFR	8	n/a	n/a	n/a	n/a	n/a	n/a	n/a	13	8	1	4	n/a	n/a	n/a	n/a	n/a
2427.264	n/a	PROB	1213632	n/a	LTP127	ltpFR	8	n/a	n/a	n/a	n/a	n/a	n/a	n/a	9	4	4	1	n/a	n/a	n/a	n/a	n/a
2429.332	n/a	PROB	1214666	n/a	LTP127	ltpFR	8	n/a	n/a	n/a	n/a	n/a	n/a	n/a	21	7	8	6	n/a	n/a	n/a	n/a	n/a
2432.546	n/a	PROB	1216273	n/a	LTP127	ltpFR	8	n/a	n/a	n/a	n/a	n/a	n/a	n/a	9	5	3	1	n/a	n/a	n/a	n/a	n/a
2434.712	n/a	PROB	1217356	n/a	LTP127	ltpFR	8	n/a	n/a	n/a	n/a	n/a	n/a	n/a	14	7	5	2	n/a	n/a	n/a	n/a	n/a
2436.496	n/a	PROB	1218248	n/a	LTP127	ltpFR	8	n/a	n/a	n/a	n/a	n/a	n/a	n/a	12	1	6	5	n/a	n/a	n/a	n/a	n/a
2438.572	n/a	STOP	1219286	n/a	LTP127	ltpFR	8	n/a	n/a	n/a	n/a	n/a	n/a	n/a	n/a	n/a	n/a	n/a	n/a	n/a	n/a	n/a	n/a
2440.718	n/a	WORD	1220359	wordpools/wasnorm_wordpool.txt	LTP127	ltpFR	8	10	0	SEAFOOD	1260	n/a	n/a	0	n/a	0	0	0	0.57763671875	0.412841796875	1	upper	amplitud.ttf
2443.726	n/a	START	1221863	n/a	LTP127	ltpFR	8	n/a	n/a	n/a	n/a	n/a	n/a	n/a	n/a	n/a	n/a	n/a	n/a	n/a	n/a	n/a	n/a
2444.592	n/a	PROB	1222296	n/a	LTP127	ltpFR	8	n/a	n/a	n/a	n/a	n/a	n/a	n/a	9	5	1	3	n/a	n/a	n/a	n/a	n/a
2446.092	n/a	PROB	1223046	n/a	LTP127	ltpFR	8	n/a	n/a	n/a	n/a	n/a	n/a	n/a	11	1	7	3	n/a	n/a	n/a	n/a	n/a
2449.566	n/a	PROB	1224783	n/a	LTP127	ltpFR	8	n/a	n/a	n/a	n/a	n/a	n/a	n/a	21	6	9	6	n/a	n/a	n/a	n/a	n/a
2451.6	n/a	PROB	1225800	n/a	LTP127	ltpFR	8	n/a	n/a	n/a	n/a	n/a	n/a	n/a	20	9	5	6	n/a	n/a	n/a	n/a	n/a
2453.566	n/a	PROB	1226783	n/a	LTP127	ltpFR	8	n/a	n/a	n/a	n/a	n/a	n/a	n/a	18	8	2	7	n/a	n/a	n/a	n/a	n/a
2456.99	n/a	PROB	1228495	n/a	LTP127	ltpFR	8	n/a	n/a	n/a	n/a	n/a	n/a	n/a	19	9	8	2	n/a	n/a	n/a	n/a	n/a
2459.598	n/a	STOP	1229799	n/a	LTP127	ltpFR	8	n/a	n/a	n/a	n/a	n/a	n/a	n/a	n/a	n/a	n/a	n/a	n/a	n/a	n/a	n/a	n/a
2460.63	n/a	WORD	1230315	wordpools/wasnorm_wordpool.txt	LTP127	ltpFR	8	10	0	FIN	566	n/a	n/a	0	n/a	0	0	0	0.57763671875	0.412841796875	1	upper	amplitud.ttf
2463.638	n/a	START	1231819	n/a	LTP127	ltpFR	8	n/a	n/a	n/a	n/a	n/a	n/a	n/a	n/a	n/a	n/a	n/a	n/a	n/a	n/a	n/a	n/a
2464.494	n/a	PROB	1232247	n/a	LTP127	ltpFR	8	n/a	n/a	n/a	n/a	n/a	n/a	n/a	16	6	8	2	n/a	n/a	n/a	n/a	n/a
2467.304	n/a	PROB	1233652	n/a	LTP127	ltpFR	8	n/a	n/a	n/a	n/a	n/a	n/a	n/a	23	9	6	8	n/a	n/a	n/a	n/a	n/a
2470.602	n/a	PROB	1235301	n/a	LTP127	ltpFR	8	n/a	n/a	n/a	n/a	n/a	n/a	n/a	4	1	2	1	n/a	n/a	n/a	n/a	n/a
2472.052	n/a	PROB	1236026	n/a	LTP127	ltpFR	8	n/a	n/a	n/a	n/a	n/a	n/a	n/a	21	4	9	8	n/a	n/a	n/a	n/a	n/a
2474.068	n/a	PROB	1237034	n/a	LTP127	ltpFR	8	n/a	n/a	n/a	n/a	n/a	n/a	n/a	20	5	7	8	n/a	n/a	n/a	n/a	n/a
2476.79	n/a	PROB	1238395	n/a	LTP127	ltpFR	8	n/a	n/a	n/a	n/a	n/a	n/a	n/a	13	7	1	5	n/a	n/a	n/a	n/a	n/a
2479.374	n/a	STOP	1239687	n/a	LTP127	ltpFR	8	n/a	n/a	n/a	n/a	n/a	n/a	n/a	n/a	n/a	n/a	n/a	n/a	n/a	n/a	n/a	n/a
2480.516	n/a	WORD	1240258	wordpools/wasnorm_wordpool.txt	LTP127	ltpFR	8	10	1	STUDENT	1395	n/a	n/a	1	n/a	0	0	0	0.422607421875	0.5869140625	0	lower	zerothre.ttf
2483.522	n/a	START	1241761	n/a	LTP127	ltpFR	8	n/a	n/a	n/a	n/a	n/a	n/a	n/a	n/a	n/a	n/a	n/a	n/a	n/a	n/a	n/a	n/a
2484.588	n/a	PROB	1242294	n/a	LTP127	ltpFR	8	n/a	n/a	n/a	n/a	n/a	n/a	n/a	15	1	8	5	n/a	n/a	n/a	n/a	n/a
2486.864	n/a	PROB	1243432	n/a	LTP127	ltpFR	8	n/a	n/a	n/a	n/a	n/a	n/a	n/a	10	3	1	6	n/a	n/a	n/a	n/a	n/a
2490.412	n/a	PROB	1245206	n/a	LTP127	ltpFR	8	n/a	n/a	n/a	n/a	n/a	n/a	n/a	12	2	1	9	n/a	n/a	n/a	n/a	n/a
2492.836	n/a	PROB	1246418	n/a	LTP127	ltpFR	8	n/a	n/a	n/a	n/a	n/a	n/a	n/a	15	2	8	5	n/a	n/a	n/a	n/a	n/a
2494.776	n/a	PROB	1247388	n/a	LTP127	ltpFR	8	n/a	n/a	n/a	n/a	n/a	n/a	n/a	10	1	8	1	n/a	n/a	n/a	n/a	n/a
2496.368	n/a	PROB	1248184	n/a	LTP127	ltpFR	8	n/a	n/a	n/a	n/a	n/a	n/a	n/a	17	7	7	3	n/a	n/a	n/a	n/a	n/a
2499.524	n/a	STOP	1249762	n/a	LTP127	ltpFR	8	n/a	n/a	n/a	n/a	n/a	n/a	n/a	n/a	n/a	n/a	n/a	n/a	n/a	n/a	n/a	n/a
2500.36	n/a	WORD	1250180	wordpools/wasnorm_wordpool.txt	LTP127	ltpFR	8	10	1	GEM	629	n/a	n/a	1	n/a	0	0	0	0.422607421875	0.5869140625	0	lower	zerothre.ttf
2503.366	n/a	START	1251683	n/a	LTP127	ltpFR	8	n/a	n/a	n/a	n/a	n/a	n/a	n/a	n/a	n/a	n/a	n/a	n/a	n/a	n/a	n/a	n/a
2504.44	n/a	PROB	1252220	n/a	LTP127	ltpFR	8	n/a	n/a	n/a	n/a	n/a	n/a	n/a	17	9	2	6	n/a	n/a	n/a	n/a	n/a
2508.39	n/a	PROB	1254195	n/a	LTP127	ltpFR	8	n/a	n/a	n/a	n/a	n/a	n/a	n/a	19	8	6	5	n/a	n/a	n/a	n/a	n/a
2510.582	n/a	PROB	1255291	n/a	LTP127	ltpFR	8	n/a	n/a	n/a	n/a	n/a	n/a	n/a	11	6	4	1	n/a	n/a	n/a	n/a	n/a
2511.932	n/a	PROB	1255966	n/a	LTP127	ltpFR	8	n/a	n/a	n/a	n/a	n/a	n/a	n/a	15	5	7	4	n/a	n/a	n/a	n/a	n/a
2514.814	n/a	PROB	1257407	n/a	LTP127	ltpFR	8	n/a	n/a	n/a	n/a	n/a	n/a	n/a	10	4	5	1	n/a	n/a	n/a	n/a	n/a
2516.962	n/a	PROB	1258481	n/a	LTP127	ltpFR	8	n/a	n/a	n/a	n/a	n/a	n/a	n/a	17	2	7	8	n/a	n/a	n/a	n/a	n/a
2519.024	n/a	STOP	1259512	n/a	LTP127	ltpFR	8	n/a	n/a	n/a	n/a	n/a	n/a	n/a	n/a	n/a	n/a	n/a	n/a	n/a	n/a	n/a	n/a
2520.336	n/a	WORD	1260168	wordpools/wasnorm_wordpool.txt	LTP127	ltpFR	8	10	0	DRIVER	499	n/a	n/a	0	n/a	0	0	0	0.57763671875	0.412841796875	1	upper	amplitud.ttf
2523.344	n/a	START	1261672	n/a	LTP127	ltpFR	8	n/a	n/a	n/a	n/a	n/a	n/a	n/a	n/a	n/a	n/a	n/a	n/a	n/a	n/a	n/a	n/a
2524.478	n/a	PROB	1262239	n/a	LTP127	ltpFR	8	n/a	n/a	n/a	n/a	n/a	n/a	n/a	14	2	5	7	n/a	n/a	n/a	n/a	n/a
2529.484	n/a	PROB	1264742	n/a	LTP127	ltpFR	8	n/a	n/a	n/a	n/a	n/a	n/a	n/a	15	6	8	1	n/a	n/a	n/a	n/a	n/a
2531.492	n/a	PROB	1265746	n/a	LTP127	ltpFR	8	n/a	n/a	n/a	n/a	n/a	n/a	n/a	16	9	5	2	n/a	n/a	n/a	n/a	n/a
2533.358	n/a	PROB	1266679	n/a	LTP127	ltpFR	8	n/a	n/a	n/a	n/a	n/a	n/a	n/a	15	1	9	5	n/a	n/a	n/a	n/a	n/a
2534.824	n/a	PROB	1267412	n/a	LTP127	ltpFR	8	n/a	n/a	n/a	n/a	n/a	n/a	n/a	17	6	3	9	n/a	n/a	n/a	n/a	n/a
2539.346	n/a	STOP	1269673	n/a	LTP127	ltpFR	8	n/a	n/a	n/a	n/a	n/a	n/a	n/a	n/a	n/a	n/a	n/a	n/a	n/a	n/a	n/a	n/a
2540.406	n/a	WORD	1270203	wordpools/wasnorm_wordpool.txt	LTP127	ltpFR	8	10	0	REPTILE	1185	n/a	n/a	0	n/a	0	0	0	0.57763671875	0.412841796875	1	upper	amplitud.ttf
2543.414	n/a	START	1271707	n/a	LTP127	ltpFR	8	n/a	n/a	n/a	n/a	n/a	n/a	n/a	n/a	n/a	n/a	n/a	n/a	n/a	n/a	n/a	n/a
2544.33	n/a	PROB	1272165	n/a	LTP127	ltpFR	8	n/a	n/a	n/a	n/a	n/a	n/a	n/a	19	8	8	3	n/a	n/a	n/a	n/a	n/a
2546.212	n/a	PROB	1273106	n/a	LTP127	ltpFR	8	n/a	n/a	n/a	n/a	n/a	n/a	n/a	11	8	1	2	n/a	n/a	n/a	n/a	n/a
2547.802	n/a	PROB	1273901	n/a	LTP127	ltpFR	8	n/a	n/a	n/a	n/a	n/a	n/a	n/a	12	3	7	2	n/a	n/a	n/a	n/a	n/a
2549.744	n/a	PROB	1274872	n/a	LTP127	ltpFR	8	n/a	n/a	n/a	n/a	n/a	n/a	n/a	15	4	7	4	n/a	n/a	n/a	n/a	n/a
2552.286	n/a	PROB	1276143	n/a	LTP127	ltpFR	8	n/a	n/a	n/a	n/a	n/a	n/a	n/a	19	2	9	8	n/a	n/a	n/a	n/a	n/a
2554.826	n/a	PROB	1277413	n/a	LTP127	ltpFR	8	n/a	n/a	n/a	n/a	n/a	n/a	n/a	13	6	2	5	n/a	n/a	n/a	n/a	n/a
2559.414	n/a	STOP	1279707	n/a	LTP127	ltpFR	8	n/a	n/a	n/a	n/a	n/a	n/a	n/a	n/a	n/a	n/a	n/a	n/a	n/a	n/a	n/a	n/a
2560.416	n/a	WORD	1280208	wordpools/wasnorm_wordpool.txt	LTP127	ltpFR	8	10	0	KNOT	788	n/a	n/a	0	n/a	0	0	0	0.57763671875	0.412841796875	1	upper	amplitud.ttf
2563.424	n/a	START	1281712	n/a	LTP127	ltpFR	8	n/a	n/a	n/a	n/a	n/a	n/a	n/a	n/a	n/a	n/a	n/a	n/a	n/a	n/a	n/a	n/a
2564.532	n/a	PROB	1282266	n/a	LTP127	ltpFR	8	n/a	n/a	n/a	n/a	n/a	n/a	n/a	15	5	3	7	n/a	n/a	n/a	n/a	n/a
2566.04	n/a	PROB	1283020	n/a	LTP127	ltpFR	8	n/a	n/a	n/a	n/a	n/a	n/a	n/a	20	3	8	9	n/a	n/a	n/a	n/a	n/a
2569.106	n/a	PROB	1284553	n/a	LTP127	ltpFR	8	n/a	n/a	n/a	n/a	n/a	n/a	n/a	19	3	9	7	n/a	n/a	n/a	n/a	n/a
2571.996	n/a	PROB	1285998	n/a	LTP127	ltpFR	8	n/a	n/a	n/a	n/a	n/a	n/a	n/a	20	5	6	9	n/a	n/a	n/a	n/a	n/a
2574.486	n/a	PROB	1287243	n/a	LTP127	ltpFR	8	n/a	n/a	n/a	n/a	n/a	n/a	n/a	14	6	4	4	n/a	n/a	n/a	n/a	n/a
2576.212	n/a	PROB	1288106	n/a	LTP127	ltpFR	8	n/a	n/a	n/a	n/a	n/a	n/a	n/a	14	7	4	3	n/a	n/a	n/a	n/a	n/a
2578.028	n/a	STOP	1289014	n/a	LTP127	ltpFR	8	n/a	n/a	n/a	n/a	n/a	n/a	n/a	n/a	n/a	n/a	n/a	n/a	n/a	n/a	n/a	n/a
2580.576	n/a	WORD	1290288	wordpools/wasnorm_wordpool.txt	LTP127	ltpFR	8	10	0	MALL	860	n/a	n/a	1	n/a	0	0	0	0.57763671875	0.412841796875	1	upper	amplitud.ttf
2583.586	n/a	START	1291793	n/a	LTP127	ltpFR	8	n/a	n/a	n/a	n/a	n/a	n/a	n/a	n/a	n/a	n/a	n/a	n/a	n/a	n/a	n/a	n/a
2584.692	n/a	PROB	1292346	n/a	LTP127	ltpFR	8	n/a	n/a	n/a	n/a	n/a	n/a	n/a	19	7	6	6	n/a	n/a	n/a	n/a	n/a
2588.35	n/a	PROB	1294175	n/a	LTP127	ltpFR	8	n/a	n/a	n/a	n/a	n/a	n/a	n/a	14	2	6	6	n/a	n/a	n/a	n/a	n/a
2590.082	n/a	PROB	1295041	n/a	LTP127	ltpFR	8	n/a	n/a	n/a	n/a	n/a	n/a	n/a	17	7	6	4	n/a	n/a	n/a	n/a	n/a
2594.872	n/a	PROB	1297436	n/a	LTP127	ltpFR	8	n/a	n/a	n/a	n/a	n/a	n/a	n/a	17	7	2	8	n/a	n/a	n/a	n/a	n/a
2596.814	n/a	PROB	1298407	n/a	LTP127	ltpFR	8	n/a	n/a	n/a	n/a	n/a	n/a	n/a	22	8	5	9	n/a	n/a	n/a	n/a	n/a
2599.556	n/a	STOP	1299778	n/a	LTP127	ltpFR	8	n/a	n/a	n/a	n/a	n/a	n/a	n/a	n/a	n/a	n/a	n/a	n/a	n/a	n/a	n/a	n/a
2600.638	n/a	WORD	1300319	wordpools/wasnorm_wordpool.txt	LTP127	ltpFR	8	10	1	COBRA	336	n/a	n/a	1	n/a	0	0	0	0.422607421875	0.5869140625	0	lower	zerothre.ttf
2603.646	n/a	START	1301823	n/a	LTP127	ltpFR	8	n/a	n/a	n/a	n/a	n/a	n/a	n/a	n/a	n/a	n/a	n/a	n/a	n/a	n/a	n/a	n/a
2604.604	n/a	PROB	1302302	n/a	LTP127	ltpFR	8	n/a	n/a	n/a	n/a	n/a	n/a	n/a	14	2	5	7	n/a	n/a	n/a	n/a	n/a
2609.136	n/a	PROB	1304568	n/a	LTP127	ltpFR	8	n/a	n/a	n/a	n/a	n/a	n/a	n/a	12	1	8	3	n/a	n/a	n/a	n/a	n/a
2612.476	n/a	PROB	1306238	n/a	LTP127	ltpFR	8	n/a	n/a	n/a	n/a	n/a	n/a	n/a	25	9	8	8	n/a	n/a	n/a	n/a	n/a
2615.85	n/a	PROB	1307925	n/a	LTP127	ltpFR	8	n/a	n/a	n/a	n/a	n/a	n/a	n/a	12	3	6	3	n/a	n/a	n/a	n/a	n/a
2619.646	n/a	STOP	1309823	n/a	LTP127	ltpFR	8	n/a	n/a	n/a	n/a	n/a	n/a	n/a	n/a	n/a	n/a	n/a	n/a	n/a	n/a	n/a	n/a
2620.682	n/a	WORD	1310341	wordpools/wasnorm_wordpool.txt	LTP127	ltpFR	8	10	1	SCOTCH	1251	n/a	n/a	0	n/a	0	0	0	0.422607421875	0.5869140625	0	lower	zerothre.ttf
2623.69	n/a	START	1311845	n/a	LTP127	ltpFR	8	n/a	n/a	n/a	n/a	n/a	n/a	n/a	n/a	n/a	n/a	n/a	n/a	n/a	n/a	n/a	n/a
2624.664	n/a	PROB	1312332	n/a	LTP127	ltpFR	8	n/a	n/a	n/a	n/a	n/a	n/a	n/a	13	3	6	4	n/a	n/a	n/a	n/a	n/a
2626.714	n/a	PROB	1313357	n/a	LTP127	ltpFR	8	n/a	n/a	n/a	n/a	n/a	n/a	n/a	14	3	4	7	n/a	n/a	n/a	n/a	n/a
2628.512	n/a	PROB	1314256	n/a	LTP127	ltpFR	8	n/a	n/a	n/a	n/a	n/a	n/a	n/a	21	9	4	8	n/a	n/a	n/a	n/a	n/a
2630.728	n/a	PROB	1315364	n/a	LTP127	ltpFR	8	n/a	n/a	n/a	n/a	n/a	n/a	n/a	21	3	9	9	n/a	n/a	n/a	n/a	n/a
2632.694	n/a	PROB	1316347	n/a	LTP127	ltpFR	8	n/a	n/a	n/a	n/a	n/a	n/a	n/a	8	4	3	1	n/a	n/a	n/a	n/a	n/a
2634.826	n/a	PROB	1317413	n/a	LTP127	ltpFR	8	n/a	n/a	n/a	n/a	n/a	n/a	n/a	16	6	4	6	n/a	n/a	n/a	n/a	n/a
2636.226	n/a	PROB	1318113	n/a	LTP127	ltpFR	8	n/a	n/a	n/a	n/a	n/a	n/a	n/a	14	4	1	9	n/a	n/a	n/a	n/a	n/a
2639.69	n/a	STOP	1319845	n/a	LTP127	ltpFR	8	n/a	n/a	n/a	n/a	n/a	n/a	n/a	n/a	n/a	n/a	n/a	n/a	n/a	n/a	n/a	n/a
2640.726	n/a	WORD	1320363	wordpools/wasnorm_wordpool.txt	LTP127	ltpFR	8	10	1	PICKLE	1059	n/a	n/a	0	n/a	0	0	0	0.422607421875	0.5869140625	0	lower	zerothre.ttf
2643.734	n/a	START	1321867	n/a	LTP127	ltpFR	8	n/a	n/a	n/a	n/a	n/a	n/a	n/a	n/a	n/a	n/a	n/a	n/a	n/a	n/a	n/a	n/a
2644.616	n/a	PROB	1322308	n/a	LTP127	ltpFR	8	n/a	n/a	n/a	n/a	n/a	n/a	n/a	18	8	5	5	n/a	n/a	n/a	n/a	n/a
2646.966	n/a	PROB	1323483	n/a	LTP127	ltpFR	8	n/a	n/a	n/a	n/a	n/a	n/a	n/a	14	4	6	4	n/a	n/a	n/a	n/a	n/a
2648.49	n/a	PROB	1324245	n/a	LTP127	ltpFR	8	n/a	n/a	n/a	n/a	n/a	n/a	n/a	17	8	8	1	n/a	n/a	n/a	n/a	n/a
2651.122	n/a	PROB	1325561	n/a	LTP127	ltpFR	8	n/a	n/a	n/a	n/a	n/a	n/a	n/a	5	1	1	3	n/a	n/a	n/a	n/a	n/a
2652.246	n/a	PROB	1326123	n/a	LTP127	ltpFR	8	n/a	n/a	n/a	n/a	n/a	n/a	n/a	22	7	8	7	n/a	n/a	n/a	n/a	n/a
2654.112	n/a	PROB	1327056	n/a	LTP127	ltpFR	8	n/a	n/a	n/a	n/a	n/a	n/a	n/a	15	8	5	2	n/a	n/a	n/a	n/a	n/a
2659.734	n/a	STOP	1329867	n/a	LTP127	ltpFR	8	n/a	n/a	n/a	n/a	n/a	n/a	n/a	n/a	n/a	n/a	n/a	n/a	n/a	n/a	n/a	n/a
2660.728	n/a	WORD	1330364	wordpools/wasnorm_wordpool.txt	LTP127	ltpFR	8	10	1	DILL	465	n/a	n/a	0	n/a	0	0	0	0.422607421875	0.5869140625	0	lower	zerothre.ttf
2663.736	n/a	START	1331868	n/a	LTP127	ltpFR	8	n/a	n/a	n/a	n/a	n/a	n/a	n/a	n/a	n/a	n/a	n/a	n/a	n/a	n/a	n/a	n/a
2664.768	n/a	PROB	1332384	n/a	LTP127	ltpFR	8	n/a	n/a	n/a	n/a	n/a	n/a	n/a	21	5	8	8	n/a	n/a	n/a	n/a	n/a
2667.5	n/a	PROB	1333750	n/a	LTP127	ltpFR	8	n/a	n/a	n/a	n/a	n/a	n/a	n/a	18	1	9	8	n/a	n/a	n/a	n/a	n/a
2668.942	n/a	PROB	1334471	n/a	LTP127	ltpFR	8	n/a	n/a	n/a	n/a	n/a	n/a	n/a	18	4	8	6	n/a	n/a	n/a	n/a	n/a
2671.5	n/a	PROB	1335750	n/a	LTP127	ltpFR	8	n/a	n/a	n/a	n/a	n/a	n/a	n/a	14	5	2	7	n/a	n/a	n/a	n/a	n/a
2674.44	n/a	PROB	1337220	n/a	LTP127	ltpFR	8	n/a	n/a	n/a	n/a	n/a	n/a	n/a	13	3	8	2	n/a	n/a	n/a	n/a	n/a
2678.226	n/a	STOP	1339113	n/a	LTP127	ltpFR	8	n/a	n/a	n/a	n/a	n/a	n/a	n/a	n/a	n/a	n/a	n/a	n/a	n/a	n/a	n/a	n/a
2681.622	n/a	REC_START	1340811	n/a	LTP127	ltpFR	8	10	n/a	n/a	n/a	n/a	n/a	n/a	n/a	0	0	0	n/a	n/a	n/a	n/a	n/a
2683.354	n/a	REC_WORD	1341677	wordpools/wasnorm_wordpool.txt	LTP127	ltpFR	8	10	1	DILL	465	n/a	n/a	0	n/a	0	0	0	n/a	n/a	n/a	n/a	n/a
2684.032	n/a	REC_WORD	1342016	wordpools/wasnorm_wordpool.txt	LTP127	ltpFR	8	10	1	PICKLE	1059	n/a	n/a	0	n/a	0	0	0	n/a	n/a	n/a	n/a	n/a
2684.69	n/a	REC_WORD	1342345	wordpools/wasnorm_wordpool.txt	LTP127	ltpFR	8	10	1	SCOTCH	1251	n/a	n/a	0	n/a	0	0	0	n/a	n/a	n/a	n/a	n/a
2686.926	n/a	REC_WORD	1343463	wordpools/wasnorm_wordpool.txt	LTP127	ltpFR	8	10	1	PATRIOT	1026	n/a	n/a	1	n/a	0	0	0	n/a	n/a	n/a	n/a	n/a
2687.798	n/a	REC_WORD	1343899	wordpools/wasnorm_wordpool.txt	LTP127	ltpFR	8	10	1	LIEUTENANT	818	n/a	n/a	1	n/a	0	0	0	n/a	n/a	n/a	n/a	n/a
2690.866	n/a	REC_WORD	1345433	wordpools/wasnorm_wordpool.txt	LTP127	ltpFR	8	10	1	STUDENT	1395	n/a	n/a	1	n/a	0	0	0	n/a	n/a	n/a	n/a	n/a
2737.05	n/a	REC_WORD	1368525	wordpools/wasnorm_wordpool.txt	LTP127	ltpFR	8	10	0	DRIVER	499	n/a	n/a	0	n/a	0	0	0	n/a	n/a	n/a	n/a	n/a
2757.224	n/a	REST_REWET	1378612	n/a	LTP127	ltpFR	8	10	n/a	n/a	n/a	n/a	n/a	n/a	n/a	0	0	0	n/a	n/a	n/a	n/a	n/a
3117.932	n/a	WORD	1558966	wordpools/wasnorm_wordpool.txt	LTP127	ltpFR	8	11	0	RAFT	1159	n/a	n/a	1	n/a	0	0	0	0.57763671875	0.412841796875	1	upper	amplitud.ttf
3121.914	n/a	WORD	1560957	wordpools/wasnorm_wordpool.txt	LTP127	ltpFR	8	11	0	LAGOON	795	n/a	n/a	1	n/a	0	0	0	0.57763671875	0.412841796875	1	upper	amplitud.ttf
3125.93	n/a	WORD	1562965	wordpools/wasnorm_wordpool.txt	LTP127	ltpFR	8	11	0	CORD	379	n/a	n/a	0	n/a	0	0	0	0.57763671875	0.412841796875	1	upper	amplitud.ttf
3129.886	n/a	WORD	1564943	wordpools/wasnorm_wordpool.txt	LTP127	ltpFR	8	11	0	LIPSTICK	829	n/a	n/a	0	n/a	0	0	0	0.57763671875	0.412841796875	1	upper	amplitud.ttf
3133.852	n/a	WORD	1566926	wordpools/wasnorm_wordpool.txt	LTP127	ltpFR	8	11	0	TAPE	1433	n/a	n/a	0	n/a	0	0	0	0.57763671875	0.412841796875	1	upper	amplitud.ttf
3137.776	n/a	WORD	1568888	wordpools/wasnorm_wordpool.txt	LTP127	ltpFR	8	11	0	PLANT	1083	n/a	n/a	0	n/a	0	0	0	0.57763671875	0.412841796875	1	upper	amplitud.ttf
3141.7	n/a	WORD	1570850	wordpools/wasnorm_wordpool.txt	LTP127	ltpFR	8	11	0	STRING	1394	n/a	n/a	0	n/a	0	0	0	0.57763671875	0.412841796875	1	upper	amplitud.ttf
3145.59	n/a	WORD	1572795	wordpools/wasnorm_wordpool.txt	LTP127	ltpFR	8	11	0	HUT	729	n/a	n/a	1	n/a	0	0	0	0.57763671875	0.412841796875	1	upper	amplitud.ttf
3149.472	n/a	WORD	1574736	wordpools/wasnorm_wordpool.txt	LTP127	ltpFR	8	11	0	PATIO	1025	n/a	n/a	1	n/a	0	0	0	0.57763671875	0.412841796875	1	upper	amplitud.ttf
3153.314	n/a	WORD	1576657	wordpools/wasnorm_wordpool.txt	LTP127	ltpFR	8	11	0	GORILLA	650	n/a	n/a	1	n/a	0	0	0	0.57763671875	0.412841796875	1	upper	amplitud.ttf
3157.186	n/a	WORD	1578593	wordpools/wasnorm_wordpool.txt	LTP127	ltpFR	8	11	0	HATCHET	691	n/a	n/a	0	n/a	0	0	0	0.57763671875	0.412841796875	1	upper	amplitud.ttf
3161.244	n/a	WORD	1580622	wordpools/wasnorm_wordpool.txt	LTP127	ltpFR	8	11	0	SHEEP	1278	n/a	n/a	1	n/a	0	0	0	0.57763671875	0.412841796875	1	upper	amplitud.ttf
3165.226	n/a	WORD	1582613	wordpools/wasnorm_wordpool.txt	LTP127	ltpFR	8	11	0	CITRUS	313	n/a	n/a	0	n/a	0	0	0	0.57763671875	0.412841796875	1	upper	amplitud.ttf
3169.3	n/a	WORD	1584650	wordpools/wasnorm_wordpool.txt	LTP127	ltpFR	8	11	0	SHORTCAKE	1292	n/a	n/a	0	n/a	0	0	0	0.57763671875	0.412841796875	1	upper	amplitud.ttf
3173.458	n/a	WORD	1586729	wordpools/wasnorm_wordpool.txt	LTP127	ltpFR	8	11	0	OBOE	969	n/a	n/a	1	n/a	0	0	0	0.57763671875	0.412841796875	1	upper	amplitud.ttf
3177.406	n/a	WORD	1588703	wordpools/wasnorm_wordpool.txt	LTP127	ltpFR	8	11	0	DANDELION	438	n/a	n/a	0	n/a	0	0	0	0.57763671875	0.412841796875	1	upper	amplitud.ttf
3180.414	n/a	START	1590207	n/a	LTP127	ltpFR	8	n/a	n/a	n/a	n/a	n/a	n/a	n/a	n/a	n/a	n/a	n/a	n/a	n/a	n/a	n/a	n/a
3181.588	n/a	PROB	1590794	n/a	LTP127	ltpFR	8	n/a	n/a	n/a	n/a	n/a	n/a	n/a	15	4	2	9	n/a	n/a	n/a	n/a	n/a
3183.578	n/a	PROB	1591789	n/a	LTP127	ltpFR	8	n/a	n/a	n/a	n/a	n/a	n/a	n/a	18	4	5	8	n/a	n/a	n/a	n/a	n/a
3185.736	n/a	PROB	1592868	n/a	LTP127	ltpFR	8	n/a	n/a	n/a	n/a	n/a	n/a	n/a	21	9	6	6	n/a	n/a	n/a	n/a	n/a
3188.452	n/a	PROB	1594226	n/a	LTP127	ltpFR	8	n/a	n/a	n/a	n/a	n/a	n/a	n/a	10	4	2	4	n/a	n/a	n/a	n/a	n/a
3191.768	n/a	PROB	1595884	n/a	LTP127	ltpFR	8	n/a	n/a	n/a	n/a	n/a	n/a	n/a	15	4	2	9	n/a	n/a	n/a	n/a	n/a
3193.824	n/a	PROB	1596912	n/a	LTP127	ltpFR	8	n/a	n/a	n/a	n/a	n/a	n/a	n/a	8	3	1	4	n/a	n/a	n/a	n/a	n/a
3195.604	n/a	STOP	1597802	n/a	LTP127	ltpFR	8	n/a	n/a	n/a	n/a	n/a	n/a	n/a	n/a	n/a	n/a	n/a	n/a	n/a	n/a	n/a	n/a
3198.15	n/a	REC_START	1599075	n/a	LTP127	ltpFR	8	11	n/a	n/a	n/a	n/a	n/a	n/a	n/a	0	0	0	n/a	n/a	n/a	n/a	n/a
3198.474	n/a	REC_WORD_VV	1599237	wordpools/wasnorm_wordpool.txt	LTP127	ltpFR	8	11	n/a	<>	-1	n/a	n/a	n/a	n/a	0	0	0	n/a	n/a	n/a	n/a	n/a
3200.818	n/a	REC_WORD	1600409	wordpools/wasnorm_wordpool.txt	LTP127	ltpFR	8	11	0	OBOE	969	n/a	n/a	1	n/a	0	0	0	n/a	n/a	n/a	n/a	n/a
3201.736	n/a	REC_WORD	1600868	wordpools/wasnorm_wordpool.txt	LTP127	ltpFR	8	11	0	PATIO	1025	n/a	n/a	1	n/a	0	0	0	n/a	n/a	n/a	n/a	n/a
3202.764	n/a	REC_WORD	1601382	wordpools/wasnorm_wordpool.txt	LTP127	ltpFR	8	11	0	GORILLA	650	n/a	n/a	1	n/a	0	0	0	n/a	n/a	n/a	n/a	n/a
3203.702	n/a	REC_WORD	1601851	wordpools/wasnorm_wordpool.txt	LTP127	ltpFR	8	11	0	SHEEP	1278	n/a	n/a	1	n/a	0	0	0	n/a	n/a	n/a	n/a	n/a
3204.624	n/a	REC_WORD	1602312	wordpools/wasnorm_wordpool.txt	LTP127	ltpFR	8	11	0	CITRUS	313	n/a	n/a	0	n/a	0	0	0	n/a	n/a	n/a	n/a	n/a
3206.984	n/a	REC_WORD	1603492	wordpools/wasnorm_wordpool.txt	LTP127	ltpFR	8	11	0	STRING	1394	n/a	n/a	0	n/a	0	0	0	n/a	n/a	n/a	n/a	n/a
3208.466	n/a	REC_WORD	1604233	wordpools/wasnorm_wordpool.txt	LTP127	ltpFR	8	11	0	CORD	379	n/a	n/a	0	n/a	0	0	0	n/a	n/a	n/a	n/a	n/a
3209.36	n/a	REC_WORD	1604680	wordpools/wasnorm_wordpool.txt	LTP127	ltpFR	8	11	0	RAFT	1159	n/a	n/a	1	n/a	0	0	0	n/a	n/a	n/a	n/a	n/a
3210.122	n/a	REC_WORD	1605061	wordpools/wasnorm_wordpool.txt	LTP127	ltpFR	8	11	0	LAGOON	795	n/a	n/a	1	n/a	0	0	0	n/a	n/a	n/a	n/a	n/a
3211.42	n/a	REC_WORD	1605710	wordpools/wasnorm_wordpool.txt	LTP127	ltpFR	8	11	0	LIPSTICK	829	n/a	n/a	0	n/a	0	0	0	n/a	n/a	n/a	n/a	n/a
3212.448	n/a	REC_WORD	1606224	wordpools/wasnorm_wordpool.txt	LTP127	ltpFR	8	11	0	TAPE	1433	n/a	n/a	0	n/a	0	0	0	n/a	n/a	n/a	n/a	n/a
3217.876	n/a	REC_WORD	1608938	wordpools/wasnorm_wordpool.txt	LTP127	ltpFR	8	11	0	HUT	729	n/a	n/a	1	n/a	0	0	0	n/a	n/a	n/a	n/a	n/a
3232.618	n/a	REC_WORD	1616309	wordpools/wasnorm_wordpool.txt	LTP127	ltpFR	8	11	0	DANDELION	438	n/a	n/a	0	n/a	0	0	0	n/a	n/a	n/a	n/a	n/a
3242.156	n/a	REC_WORD	1621078	wordpools/wasnorm_wordpool.txt	LTP127	ltpFR	8	11	0	PATIO	1025	n/a	n/a	1	n/a	0	0	0	n/a	n/a	n/a	n/a	n/a
3287.856	n/a	START	1643928	n/a	LTP127	ltpFR	8	n/a	n/a	n/a	n/a	n/a	n/a	n/a	n/a	n/a	n/a	n/a	n/a	n/a	n/a	n/a	n/a
3289.364	n/a	PROB	1644682	n/a	LTP127	ltpFR	8	n/a	n/a	n/a	n/a	n/a	n/a	n/a	18	3	9	6	n/a	n/a	n/a	n/a	n/a
3291.296	n/a	PROB	1645648	n/a	LTP127	ltpFR	8	n/a	n/a	n/a	n/a	n/a	n/a	n/a	18	8	3	7	n/a	n/a	n/a	n/a	n/a
3292.554	n/a	PROB	1646277	n/a	LTP127	ltpFR	8	n/a	n/a	n/a	n/a	n/a	n/a	n/a	15	7	1	6	n/a	n/a	n/a	n/a	n/a
3294.578	n/a	STOP	1647289	n/a	LTP127	ltpFR	8	n/a	n/a	n/a	n/a	n/a	n/a	n/a	n/a	n/a	n/a	n/a	n/a	n/a	n/a	n/a	n/a
3296.72	n/a	WORD	1648360	wordpools/wasnorm_wordpool.txt	LTP127	ltpFR	8	12	1	CHURCH	307	n/a	n/a	0	n/a	0	0	0	0.422607421875	0.5869140625	0	lower	zerothre.ttf
3299.728	n/a	START	1649864	n/a	LTP127	ltpFR	8	n/a	n/a	n/a	n/a	n/a	n/a	n/a	n/a	n/a	n/a	n/a	n/a	n/a	n/a	n/a	n/a
3300.61	n/a	PROB	1650305	n/a	LTP127	ltpFR	8	n/a	n/a	n/a	n/a	n/a	n/a	n/a	13	5	5	2	n/a	n/a	n/a	n/a	n/a
3303.868	n/a	PROB	1651934	n/a	LTP127	ltpFR	8	n/a	n/a	n/a	n/a	n/a	n/a	n/a	3	1	1	1	n/a	n/a	n/a	n/a	n/a
3307.728	n/a	STOP	1653864	n/a	LTP127	ltpFR	8	n/a	n/a	n/a	n/a	n/a	n/a	n/a	n/a	n/a	n/a	n/a	n/a	n/a	n/a	n/a	n/a
3308.942	n/a	WORD	1654471	wordpools/wasnorm_wordpool.txt	LTP127	ltpFR	8	12	1	AMBULANCE	19	n/a	n/a	0	n/a	0	0	0	0.422607421875	0.5869140625	0	lower	zerothre.ttf
3311.948	n/a	START	1655974	n/a	LTP127	ltpFR	8	n/a	n/a	n/a	n/a	n/a	n/a	n/a	n/a	n/a	n/a	n/a	n/a	n/a	n/a	n/a	n/a
3312.998	n/a	PROB	1656499	n/a	LTP127	ltpFR	8	n/a	n/a	n/a	n/a	n/a	n/a	n/a	8	3	2	3	n/a	n/a	n/a	n/a	n/a
3314.722	n/a	PROB	1657361	n/a	LTP127	ltpFR	8	n/a	n/a	n/a	n/a	n/a	n/a	n/a	19	4	7	8	n/a	n/a	n/a	n/a	n/a
3318.012	n/a	PROB	1659006	n/a	LTP127	ltpFR	8	n/a	n/a	n/a	n/a	n/a	n/a	n/a	10	1	8	1	n/a	n/a	n/a	n/a	n/a
3319.554	n/a	STOP	1659777	n/a	LTP127	ltpFR	8	n/a	n/a	n/a	n/a	n/a	n/a	n/a	n/a	n/a	n/a	n/a	n/a	n/a	n/a	n/a	n/a
3321.054	n/a	WORD	1660527	wordpools/wasnorm_wordpool.txt	LTP127	ltpFR	8	12	1	CRUTCH	417	n/a	n/a	0	n/a	0	0	0	0.422607421875	0.5869140625	0	lower	zerothre.ttf
3324.062	n/a	START	1662031	n/a	LTP127	ltpFR	8	n/a	n/a	n/a	n/a	n/a	n/a	n/a	n/a	n/a	n/a	n/a	n/a	n/a	n/a	n/a	n/a
3324.928	n/a	PROB	1662464	n/a	LTP127	ltpFR	8	n/a	n/a	n/a	n/a	n/a	n/a	n/a	12	7	3	2	n/a	n/a	n/a	n/a	n/a
3326.478	n/a	PROB	1663239	n/a	LTP127	ltpFR	8	n/a	n/a	n/a	n/a	n/a	n/a	n/a	21	6	8	7	n/a	n/a	n/a	n/a	n/a
3328.168	n/a	PROB	1664084	n/a	LTP127	ltpFR	8	n/a	n/a	n/a	n/a	n/a	n/a	n/a	21	8	8	5	n/a	n/a	n/a	n/a	n/a
3332.062	n/a	STOP	1666031	n/a	LTP127	ltpFR	8	n/a	n/a	n/a	n/a	n/a	n/a	n/a	n/a	n/a	n/a	n/a	n/a	n/a	n/a	n/a	n/a
3332.9	n/a	WORD	1666450	wordpools/wasnorm_wordpool.txt	LTP127	ltpFR	8	12	1	SAPPHIRE	1234	n/a	n/a	0	n/a	0	0	0	0.422607421875	0.5869140625	0	lower	zerothre.ttf
3335.908	n/a	START	1667954	n/a	LTP127	ltpFR	8	n/a	n/a	n/a	n/a	n/a	n/a	n/a	n/a	n/a	n/a	n/a	n/a	n/a	n/a	n/a	n/a
3336.79	n/a	PROB	1668395	n/a	LTP127	ltpFR	8	n/a	n/a	n/a	n/a	n/a	n/a	n/a	14	5	4	5	n/a	n/a	n/a	n/a	n/a
3338.74	n/a	PROB	1669370	n/a	LTP127	ltpFR	8	n/a	n/a	n/a	n/a	n/a	n/a	n/a	19	4	7	8	n/a	n/a	n/a	n/a	n/a
3340.69	n/a	PROB	1670345	n/a	LTP127	ltpFR	8	n/a	n/a	n/a	n/a	n/a	n/a	n/a	19	9	5	5	n/a	n/a	n/a	n/a	n/a
3343.132	n/a	STOP	1671566	n/a	LTP127	ltpFR	8	n/a	n/a	n/a	n/a	n/a	n/a	n/a	n/a	n/a	n/a	n/a	n/a	n/a	n/a	n/a	n/a
3345.022	n/a	WORD	1672511	wordpools/wasnorm_wordpool.txt	LTP127	ltpFR	8	12	1	NOTEBOOK	959	n/a	n/a	0	n/a	0	0	0	0.422607421875	0.5869140625	0	lower	zerothre.ttf
3348.03	n/a	START	1674015	n/a	LTP127	ltpFR	8	n/a	n/a	n/a	n/a	n/a	n/a	n/a	n/a	n/a	n/a	n/a	n/a	n/a	n/a	n/a	n/a
3348.912	n/a	PROB	1674456	n/a	LTP127	ltpFR	8	n/a	n/a	n/a	n/a	n/a	n/a	n/a	21	9	7	5	n/a	n/a	n/a	n/a	n/a
3350.886	n/a	PROB	1675443	n/a	LTP127	ltpFR	8	n/a	n/a	n/a	n/a	n/a	n/a	n/a	22	6	8	8	n/a	n/a	n/a	n/a	n/a
3352.994	n/a	PROB	1676497	n/a	LTP127	ltpFR	8	n/a	n/a	n/a	n/a	n/a	n/a	n/a	18	6	8	4	n/a	n/a	n/a	n/a	n/a
3354.956	n/a	STOP	1677478	n/a	LTP127	ltpFR	8	n/a	n/a	n/a	n/a	n/a	n/a	n/a	n/a	n/a	n/a	n/a	n/a	n/a	n/a	n/a	n/a
3357.002	n/a	WORD	1678501	wordpools/wasnorm_wordpool.txt	LTP127	ltpFR	8	12	1	INSTRUCTOR	741	n/a	n/a	0	n/a	0	0	0	0.422607421875	0.5869140625	0	lower	zerothre.ttf
3360.01	n/a	START	1680005	n/a	LTP127	ltpFR	8	n/a	n/a	n/a	n/a	n/a	n/a	n/a	n/a	n/a	n/a	n/a	n/a	n/a	n/a	n/a	n/a
3360.934	n/a	PROB	1680467	n/a	LTP127	ltpFR	8	n/a	n/a	n/a	n/a	n/a	n/a	n/a	23	6	8	9	n/a	n/a	n/a	n/a	n/a
3363.392	n/a	PROB	1681696	n/a	LTP127	ltpFR	8	n/a	n/a	n/a	n/a	n/a	n/a	n/a	12	6	3	3	n/a	n/a	n/a	n/a	n/a
3368.01	n/a	STOP	1684005	n/a	LTP127	ltpFR	8	n/a	n/a	n/a	n/a	n/a	n/a	n/a	n/a	n/a	n/a	n/a	n/a	n/a	n/a	n/a	n/a
3369.032	n/a	WORD	1684516	wordpools/wasnorm_wordpool.txt	LTP127	ltpFR	8	12	1	PROFESSOR	1131	n/a	n/a	1	n/a	0	0	0	0.422607421875	0.5869140625	0	lower	zerothre.ttf
3372.038	n/a	START	1686019	n/a	LTP127	ltpFR	8	n/a	n/a	n/a	n/a	n/a	n/a	n/a	n/a	n/a	n/a	n/a	n/a	n/a	n/a	n/a	n/a
3373.114	n/a	PROB	1686557	n/a	LTP127	ltpFR	8	n/a	n/a	n/a	n/a	n/a	n/a	n/a	9	4	2	3	n/a	n/a	n/a	n/a	n/a
3374.954	n/a	PROB	1687477	n/a	LTP127	ltpFR	8	n/a	n/a	n/a	n/a	n/a	n/a	n/a	20	6	8	8	n/a	n/a	n/a	n/a	n/a
3376.978	n/a	PROB	1688489	n/a	LTP127	ltpFR	8	n/a	n/a	n/a	n/a	n/a	n/a	n/a	14	3	8	3	n/a	n/a	n/a	n/a	n/a
3379.614	n/a	STOP	1689807	n/a	LTP127	ltpFR	8	n/a	n/a	n/a	n/a	n/a	n/a	n/a	n/a	n/a	n/a	n/a	n/a	n/a	n/a	n/a	n/a
3381.236	n/a	WORD	1690618	wordpools/wasnorm_wordpool.txt	LTP127	ltpFR	8	12	1	PRIEST	1122	n/a	n/a	1	n/a	0	0	0	0.422607421875	0.5869140625	0	lower	zerothre.ttf
3384.244	n/a	START	1692122	n/a	LTP127	ltpFR	8	n/a	n/a	n/a	n/a	n/a	n/a	n/a	n/a	n/a	n/a	n/a	n/a	n/a	n/a	n/a	n/a
3385.194	n/a	PROB	1692597	n/a	LTP127	ltpFR	8	n/a	n/a	n/a	n/a	n/a	n/a	n/a	15	1	9	5	n/a	n/a	n/a	n/a	n/a
3386.842	n/a	PROB	1693421	n/a	LTP127	ltpFR	8	n/a	n/a	n/a	n/a	n/a	n/a	n/a	13	4	3	6	n/a	n/a	n/a	n/a	n/a
3389.324	n/a	PROB	1694662	n/a	LTP127	ltpFR	8	n/a	n/a	n/a	n/a	n/a	n/a	n/a	9	5	3	1	n/a	n/a	n/a	n/a	n/a
3391.446	n/a	STOP	1695723	n/a	LTP127	ltpFR	8	n/a	n/a	n/a	n/a	n/a	n/a	n/a	n/a	n/a	n/a	n/a	n/a	n/a	n/a	n/a	n/a
3393.448	n/a	WORD	1696724	wordpools/wasnorm_wordpool.txt	LTP127	ltpFR	8	12	1	SWAMP	1416	n/a	n/a	0	n/a	0	0	0	0.422607421875	0.5869140625	0	lower	zerothre.ttf
3396.456	n/a	START	1698228	n/a	LTP127	ltpFR	8	n/a	n/a	n/a	n/a	n/a	n/a	n/a	n/a	n/a	n/a	n/a	n/a	n/a	n/a	n/a	n/a
3397.448	n/a	PROB	1698724	n/a	LTP127	ltpFR	8	n/a	n/a	n/a	n/a	n/a	n/a	n/a	18	9	3	6	n/a	n/a	n/a	n/a	n/a
3399.314	n/a	PROB	1699657	n/a	LTP127	ltpFR	8	n/a	n/a	n/a	n/a	n/a	n/a	n/a	9	1	6	2	n/a	n/a	n/a	n/a	n/a
3401.206	n/a	PROB	1700603	n/a	LTP127	ltpFR	8	n/a	n/a	n/a	n/a	n/a	n/a	n/a	11	4	6	1	n/a	n/a	n/a	n/a	n/a
3404.458	n/a	STOP	1702229	n/a	LTP127	ltpFR	8	n/a	n/a	n/a	n/a	n/a	n/a	n/a	n/a	n/a	n/a	n/a	n/a	n/a	n/a	n/a	n/a
3405.338	n/a	WORD	1702669	wordpools/wasnorm_wordpool.txt	LTP127	ltpFR	8	12	1	SKIN	1318	n/a	n/a	1	n/a	0	0	0	0.422607421875	0.5869140625	0	lower	zerothre.ttf
3408.344	n/a	START	1704172	n/a	LTP127	ltpFR	8	n/a	n/a	n/a	n/a	n/a	n/a	n/a	n/a	n/a	n/a	n/a	n/a	n/a	n/a	n/a	n/a
3409.294	n/a	PROB	1704647	n/a	LTP127	ltpFR	8	n/a	n/a	n/a	n/a	n/a	n/a	n/a	12	6	3	3	n/a	n/a	n/a	n/a	n/a
3411.026	n/a	PROB	1705513	n/a	LTP127	ltpFR	8	n/a	n/a	n/a	n/a	n/a	n/a	n/a	16	7	6	3	n/a	n/a	n/a	n/a	n/a
3416.344	n/a	STOP	1708172	n/a	LTP127	ltpFR	8	n/a	n/a	n/a	n/a	n/a	n/a	n/a	n/a	n/a	n/a	n/a	n/a	n/a	n/a	n/a	n/a
3417.176	n/a	WORD	1708588	wordpools/wasnorm_wordpool.txt	LTP127	ltpFR	8	12	1	COP	376	n/a	n/a	1	n/a	0	0	0	0.422607421875	0.5869140625	0	lower	zerothre.ttf
3420.184	n/a	START	1710092	n/a	LTP127	ltpFR	8	n/a	n/a	n/a	n/a	n/a	n/a	n/a	n/a	n/a	n/a	n/a	n/a	n/a	n/a	n/a	n/a
