mstime	trial_type	stim_file	subject	experiment	session	trial	item_name	item_num	list	answer	test_x	test_y	test_z
0	SESS_START	n/a	LTP325	ltpFR2	9	n/a	n/a	n/a	n/a	n/a	0	0	0
16290	START	n/a	LTP325	ltpFR2	9	n/a	n/a	n/a	-1	n/a	n/a	n/a	n/a
16306	PROB	n/a	LTP325	ltpFR2	9	n/a	n/a	n/a	-1	15	7	4	4
18909	PROB	n/a	LTP325	ltpFR2	9	n/a	n/a	n/a	-1	12	2	4	6
20341	PROB	n/a	LTP325	ltpFR2	9	n/a	n/a	n/a	-1	18	5	8	5
22078	PROB	n/a	LTP325	ltpFR2	9	n/a	n/a	n/a	-1	15	2	5	8
23814	PROB	n/a	LTP325	ltpFR2	9	n/a	n/a	n/a	-1	12	4	6	2
28289	STOP	n/a	LTP325	ltpFR2	9	n/a	n/a	n/a	-1	n/a	n/a	n/a	n/a
55570	WORD	wordpools/wasnorm_wordpool_576.txt	LTP325	ltpFR2	9	1	MOTEL	919	n/a	n/a	0	0	0
58349	WORD	wordpools/wasnorm_wordpool_576.txt	LTP325	ltpFR2	9	1	OUTFIT	988	n/a	n/a	0	0	0
60836	WORD	wordpools/wasnorm_wordpool_576.txt	LTP325	ltpFR2	9	1	SWAMP	1416	n/a	n/a	0	0	0
63378	WORD	wordpools/wasnorm_wordpool_576.txt	LTP325	ltpFR2	9	1	LAGOON	795	n/a	n/a	0	0	0
65974	WORD	wordpools/wasnorm_wordpool_576.txt	LTP325	ltpFR2	9	1	APRON	35	n/a	n/a	0	0	0
68783	WORD	wordpools/wasnorm_wordpool_576.txt	LTP325	ltpFR2	9	1	PIMPLE	1071	n/a	n/a	0	0	0
71251	WORD	wordpools/wasnorm_wordpool_576.txt	LTP325	ltpFR2	9	1	YACHT	1629	n/a	n/a	0	0	0
73947	WORD	wordpools/wasnorm_wordpool_576.txt	LTP325	ltpFR2	9	1	PAIL	1002	n/a	n/a	0	0	0
76398	WORD	wordpools/wasnorm_wordpool_576.txt	LTP325	ltpFR2	9	1	COUNTRY	388	n/a	n/a	0	0	0
78986	WORD	wordpools/wasnorm_wordpool_576.txt	LTP325	ltpFR2	9	1	TRENCH	1503	n/a	n/a	0	0	0
81621	WORD	wordpools/wasnorm_wordpool_576.txt	LTP325	ltpFR2	9	1	LUNCH	849	n/a	n/a	0	0	0
84255	WORD	wordpools/wasnorm_wordpool_576.txt	LTP325	ltpFR2	9	1	CABBAGE	210	n/a	n/a	0	0	0
86997	WORD	wordpools/wasnorm_wordpool_576.txt	LTP325	ltpFR2	9	1	GARBAGE	622	n/a	n/a	0	0	0
89783	WORD	wordpools/wasnorm_wordpool_576.txt	LTP325	ltpFR2	9	1	PORK	1108	n/a	n/a	0	0	0
92295	WORD	wordpools/wasnorm_wordpool_576.txt	LTP325	ltpFR2	9	1	PIZZA	1079	n/a	n/a	0	0	0
94999	WORD	wordpools/wasnorm_wordpool_576.txt	LTP325	ltpFR2	9	1	SPOOL	1356	n/a	n/a	0	0	0
97634	WORD	wordpools/wasnorm_wordpool_576.txt	LTP325	ltpFR2	9	1	BANQUET	86	n/a	n/a	0	0	0
100286	WORD	wordpools/wasnorm_wordpool_576.txt	LTP325	ltpFR2	9	1	PLATE	1086	n/a	n/a	0	0	0
103073	WORD	wordpools/wasnorm_wordpool_576.txt	LTP325	ltpFR2	9	1	NIGHTGOWN	953	n/a	n/a	0	0	0
105892	WORD	wordpools/wasnorm_wordpool_576.txt	LTP325	ltpFR2	9	1	OFFICE	972	n/a	n/a	0	0	0
108677	WORD	wordpools/wasnorm_wordpool_576.txt	LTP325	ltpFR2	9	1	DORM	488	n/a	n/a	0	0	0
111432	WORD	wordpools/wasnorm_wordpool_576.txt	LTP325	ltpFR2	9	1	COCOON	339	n/a	n/a	0	0	0
114033	WORD	wordpools/wasnorm_wordpool_576.txt	LTP325	ltpFR2	9	1	THREAD	1460	n/a	n/a	0	0	0
116752	WORD	wordpools/wasnorm_wordpool_576.txt	LTP325	ltpFR2	9	1	SKILLET	1317	n/a	n/a	0	0	0
118369	START	n/a	LTP325	ltpFR2	9	n/a	n/a	n/a	1	n/a	n/a	n/a	n/a
119328	DISTRACTOR	n/a	LTP325	ltpFR2	9	1	n/a	n/a	n/a	n/a	0	0	0
119336	PROB	n/a	LTP325	ltpFR2	9	n/a	n/a	n/a	1	18	6	8	7
124977	PROB	n/a	LTP325	ltpFR2	9	n/a	n/a	n/a	1	16	5	5	6
126208	PROB	n/a	LTP325	ltpFR2	9	n/a	n/a	n/a	1	12	5	1	6
127894	PROB	n/a	LTP325	ltpFR2	9	n/a	n/a	n/a	1	17	7	8	2
129628	PROB	n/a	LTP325	ltpFR2	9	n/a	n/a	n/a	1	15	4	2	9
131562	PROB	n/a	LTP325	ltpFR2	9	n/a	n/a	n/a	1	23	5	9	9
133833	PROB	n/a	LTP325	ltpFR2	9	n/a	n/a	n/a	1	18	4	8	6
136100	PROB	n/a	LTP325	ltpFR2	9	n/a	n/a	n/a	1	14	6	5	3
138321	PROB	n/a	LTP325	ltpFR2	9	n/a	n/a	n/a	1	15	3	7	5
141922	STOP	n/a	LTP325	ltpFR2	9	n/a	n/a	n/a	1	n/a	n/a	n/a	n/a
144127	REC_START	n/a	LTP325	ltpFR2	9	1	n/a	n/a	n/a	n/a	0	0	0
145812	REC_WORD	wordpools/wasnorm_wordpool_576.txt	LTP325	ltpFR2	9	1	MOTEL	919	n/a	n/a	0	0	0
149882	REC_WORD	wordpools/wasnorm_wordpool_576.txt	LTP325	ltpFR2	9	1	SWAMP	1416	n/a	n/a	0	0	0
151696	REC_WORD	wordpools/wasnorm_wordpool_576.txt	LTP325	ltpFR2	9	1	LAGOON	795	n/a	n/a	0	0	0
153576	REC_WORD	wordpools/wasnorm_wordpool_576.txt	LTP325	ltpFR2	9	1	PAIL	1002	n/a	n/a	0	0	0
156766	REC_WORD	wordpools/wasnorm_wordpool_576.txt	LTP325	ltpFR2	9	1	APRON	35	n/a	n/a	0	0	0
159744	REC_WORD	wordpools/wasnorm_wordpool_576.txt	LTP325	ltpFR2	9	1	LUNCH	849	n/a	n/a	0	0	0
161354	REC_WORD	wordpools/wasnorm_wordpool_576.txt	LTP325	ltpFR2	9	1	PLATE	1086	n/a	n/a	0	0	0
163288	REC_WORD	wordpools/wasnorm_wordpool_576.txt	LTP325	ltpFR2	9	1	CABBAGE	210	n/a	n/a	0	0	0
165559	REC_WORD	wordpools/wasnorm_wordpool_576.txt	LTP325	ltpFR2	9	1	BANQUET	86	n/a	n/a	0	0	0
170039	REC_WORD	wordpools/wasnorm_wordpool_576.txt	LTP325	ltpFR2	9	1	PIZZA	1079	n/a	n/a	0	0	0
197255	REC_WORD	wordpools/wasnorm_wordpool_576.txt	LTP325	ltpFR2	9	1	GARBAGE	622	n/a	n/a	0	0	0
208747	REC_WORD	wordpools/wasnorm_wordpool_576.txt	LTP325	ltpFR2	9	1	OUTFIT	988	n/a	n/a	0	0	0
234549	DISTRACTOR	n/a	LTP325	ltpFR2	9	2	n/a	n/a	n/a	n/a	0	0	0
234549	START	n/a	LTP325	ltpFR2	9	n/a	n/a	n/a	2	n/a	n/a	n/a	n/a
234564	PROB	n/a	LTP325	ltpFR2	9	n/a	n/a	n/a	2	19	9	5	5
236198	PROB	n/a	LTP325	ltpFR2	9	n/a	n/a	n/a	2	13	1	3	9
238351	PROB	n/a	LTP325	ltpFR2	9	n/a	n/a	n/a	2	14	5	2	7
241471	PROB	n/a	LTP325	ltpFR2	9	n/a	n/a	n/a	2	11	8	1	2
242755	PROB	n/a	LTP325	ltpFR2	9	n/a	n/a	n/a	2	17	4	6	7
244822	PROB	n/a	LTP325	ltpFR2	9	n/a	n/a	n/a	2	16	7	7	2
246290	PROB	n/a	LTP325	ltpFR2	9	n/a	n/a	n/a	2	11	5	5	1
247458	PROB	n/a	LTP325	ltpFR2	9	n/a	n/a	n/a	2	6	1	2	3
249176	PROB	n/a	LTP325	ltpFR2	9	n/a	n/a	n/a	2	12	9	1	2
250511	PROB	n/a	LTP325	ltpFR2	9	n/a	n/a	n/a	2	9	3	1	5
252931	PROB	n/a	LTP325	ltpFR2	9	n/a	n/a	n/a	2	20	8	8	4
255432	PROB	n/a	LTP325	ltpFR2	9	n/a	n/a	n/a	2	15	6	7	2
257615	STOP	n/a	LTP325	ltpFR2	9	n/a	n/a	n/a	2	n/a	n/a	n/a	n/a
259475	WORD	wordpools/wasnorm_wordpool_576.txt	LTP325	ltpFR2	9	2	CHAPEL	280	n/a	n/a	0	0	0
261987	WORD	wordpools/wasnorm_wordpool_576.txt	LTP325	ltpFR2	9	2	PENGUIN	1044	n/a	n/a	0	0	0
264640	WORD	wordpools/wasnorm_wordpool_576.txt	LTP325	ltpFR2	9	2	SKETCH	1315	n/a	n/a	0	0	0
267099	WORD	wordpools/wasnorm_wordpool_576.txt	LTP325	ltpFR2	9	2	LASER	801	n/a	n/a	0	0	0
269794	WORD	wordpools/wasnorm_wordpool_576.txt	LTP325	ltpFR2	9	2	LADY	794	n/a	n/a	0	0	0
272478	WORD	wordpools/wasnorm_wordpool_576.txt	LTP325	ltpFR2	9	2	BEAVER	109	n/a	n/a	0	0	0
275231	WORD	wordpools/wasnorm_wordpool_576.txt	LTP325	ltpFR2	9	2	BEAST	108	n/a	n/a	0	0	0
277675	WORD	wordpools/wasnorm_wordpool_576.txt	LTP325	ltpFR2	9	2	PANTHER	1009	n/a	n/a	0	0	0
280259	WORD	wordpools/wasnorm_wordpool_576.txt	LTP325	ltpFR2	9	2	RATTLE	1170	n/a	n/a	0	0	0
282704	WORD	wordpools/wasnorm_wordpool_576.txt	LTP325	ltpFR2	9	2	SHELF	1280	n/a	n/a	0	0	0
285315	WORD	wordpools/wasnorm_wordpool_576.txt	LTP325	ltpFR2	9	2	KEEPER	769	n/a	n/a	0	0	0
287958	WORD	wordpools/wasnorm_wordpool_576.txt	LTP325	ltpFR2	9	2	SCULPTURE	1258	n/a	n/a	0	0	0
290761	WORD	wordpools/wasnorm_wordpool_576.txt	LTP325	ltpFR2	9	2	JELLO	754	n/a	n/a	0	0	0
293529	WORD	wordpools/wasnorm_wordpool_576.txt	LTP325	ltpFR2	9	2	TOMBSTONE	1478	n/a	n/a	0	0	0
296049	WORD	wordpools/wasnorm_wordpool_576.txt	LTP325	ltpFR2	9	2	SCARECROW	1245	n/a	n/a	0	0	0
298601	WORD	wordpools/wasnorm_wordpool_576.txt	LTP325	ltpFR2	9	2	SURVEY	1414	n/a	n/a	0	0	0
301161	WORD	wordpools/wasnorm_wordpool_576.txt	LTP325	ltpFR2	9	2	MARKET	871	n/a	n/a	0	0	0
303898	WORD	wordpools/wasnorm_wordpool_576.txt	LTP325	ltpFR2	9	2	ACTRESS	6	n/a	n/a	0	0	0
306673	WORD	wordpools/wasnorm_wordpool_576.txt	LTP325	ltpFR2	9	2	FLASHLIGHT	575	n/a	n/a	0	0	0
309318	WORD	wordpools/wasnorm_wordpool_576.txt	LTP325	ltpFR2	9	2	PARSLEY	1016	n/a	n/a	0	0	0
311944	WORD	wordpools/wasnorm_wordpool_576.txt	LTP325	ltpFR2	9	2	CAMEL	223	n/a	n/a	0	0	0
314572	WORD	wordpools/wasnorm_wordpool_576.txt	LTP325	ltpFR2	9	2	OX	994	n/a	n/a	0	0	0
317076	WORD	wordpools/wasnorm_wordpool_576.txt	LTP325	ltpFR2	9	2	KIDNEY	776	n/a	n/a	0	0	0
319499	WORD	wordpools/wasnorm_wordpool_576.txt	LTP325	ltpFR2	9	2	PEBBLE	1035	n/a	n/a	0	0	0
321113	START	n/a	LTP325	ltpFR2	9	n/a	n/a	n/a	3	n/a	n/a	n/a	n/a
321912	DISTRACTOR	n/a	LTP325	ltpFR2	9	2	n/a	n/a	n/a	n/a	0	0	0
321919	PROB	n/a	LTP325	ltpFR2	9	n/a	n/a	n/a	3	15	1	8	6
324704	PROB	n/a	LTP325	ltpFR2	9	n/a	n/a	n/a	3	17	8	8	1
326755	PROB	n/a	LTP325	ltpFR2	9	n/a	n/a	n/a	3	15	8	3	4
329743	PROB	n/a	LTP325	ltpFR2	9	n/a	n/a	n/a	3	17	7	6	4
331326	PROB	n/a	LTP325	ltpFR2	9	n/a	n/a	n/a	3	22	8	8	6
333861	PROB	n/a	LTP325	ltpFR2	9	n/a	n/a	n/a	3	16	5	3	8
336328	PROB	n/a	LTP325	ltpFR2	9	n/a	n/a	n/a	3	13	3	4	5
340433	PROB	n/a	LTP325	ltpFR2	9	n/a	n/a	n/a	3	17	2	8	7
342936	PROB	n/a	LTP325	ltpFR2	9	n/a	n/a	n/a	3	12	3	2	7
344642	STOP	n/a	LTP325	ltpFR2	9	n/a	n/a	n/a	3	n/a	n/a	n/a	n/a
346873	REC_START	n/a	LTP325	ltpFR2	9	2	n/a	n/a	n/a	n/a	0	0	0
349112	REC_WORD	wordpools/wasnorm_wordpool_576.txt	LTP325	ltpFR2	9	2	PENGUIN	1044	n/a	n/a	0	0	0
350649	REC_WORD	wordpools/wasnorm_wordpool_576.txt	LTP325	ltpFR2	9	2	CHAPEL	280	n/a	n/a	0	0	0
353338	REC_WORD	wordpools/wasnorm_wordpool_576.txt	LTP325	ltpFR2	9	2	PANTHER	1009	n/a	n/a	0	0	0
355156	REC_WORD	wordpools/wasnorm_wordpool_576.txt	LTP325	ltpFR2	9	2	CAMEL	223	n/a	n/a	0	0	0
356980	REC_WORD	wordpools/wasnorm_wordpool_576.txt	LTP325	ltpFR2	9	2	OX	994	n/a	n/a	0	0	0
358642	REC_WORD	wordpools/wasnorm_wordpool_576.txt	LTP325	ltpFR2	9	2	RATTLE	1170	n/a	n/a	0	0	0
360795	REC_WORD	wordpools/wasnorm_wordpool_576.txt	LTP325	ltpFR2	9	2	ACTRESS	6	n/a	n/a	0	0	0
363483	REC_WORD	wordpools/wasnorm_wordpool_576.txt	LTP325	ltpFR2	9	2	TOMBSTONE	1478	n/a	n/a	0	0	0
365613	REC_WORD	wordpools/wasnorm_wordpool_576.txt	LTP325	ltpFR2	9	2	SCARECROW	1245	n/a	n/a	0	0	0
370344	REC_WORD	wordpools/wasnorm_wordpool_576.txt	LTP325	ltpFR2	9	2	SKETCH	1315	n/a	n/a	0	0	0
384311	REC_WORD	wordpools/wasnorm_wordpool_576.txt	LTP325	ltpFR2	9	2	LADY	794	n/a	n/a	0	0	0
386869	REC_WORD	wordpools/wasnorm_wordpool_576.txt	LTP325	ltpFR2	9	2	BEAVER	109	n/a	n/a	0	0	0
388642	REC_WORD	wordpools/wasnorm_wordpool_576.txt	LTP325	ltpFR2	9	2	BEAST	108	n/a	n/a	0	0	0
437328	DISTRACTOR	n/a	LTP325	ltpFR2	9	3	n/a	n/a	n/a	n/a	0	0	0
437328	START	n/a	LTP325	ltpFR2	9	n/a	n/a	n/a	4	n/a	n/a	n/a	n/a
437343	PROB	n/a	LTP325	ltpFR2	9	n/a	n/a	n/a	4	16	3	8	5
439797	PROB	n/a	LTP325	ltpFR2	9	n/a	n/a	n/a	4	18	4	6	8
441281	PROB	n/a	LTP325	ltpFR2	9	n/a	n/a	n/a	4	16	8	1	7
443049	PROB	n/a	LTP325	ltpFR2	9	n/a	n/a	n/a	4	16	4	7	5
445334	PROB	n/a	LTP325	ltpFR2	9	n/a	n/a	n/a	4	15	6	8	1
447218	PROB	n/a	LTP325	ltpFR2	9	n/a	n/a	n/a	4	24	6	9	9
450605	PROB	n/a	LTP325	ltpFR2	9	n/a	n/a	n/a	4	12	3	5	4
452823	PROB	n/a	LTP325	ltpFR2	9	n/a	n/a	n/a	4	19	9	2	8
455041	PROB	n/a	LTP325	ltpFR2	9	n/a	n/a	n/a	4	24	6	9	9
457644	PROB	n/a	LTP325	ltpFR2	9	n/a	n/a	n/a	4	19	8	7	4
461254	STOP	n/a	LTP325	ltpFR2	9	n/a	n/a	n/a	4	n/a	n/a	n/a	n/a
462482	WORD	wordpools/wasnorm_wordpool_576.txt	LTP325	ltpFR2	9	3	CANAL	226	n/a	n/a	0	0	0
464950	WORD	wordpools/wasnorm_wordpool_576.txt	LTP325	ltpFR2	9	3	HEADBAND	696	n/a	n/a	0	0	0
467422	WORD	wordpools/wasnorm_wordpool_576.txt	LTP325	ltpFR2	9	3	PERCH	1048	n/a	n/a	0	0	0
470121	WORD	wordpools/wasnorm_wordpool_576.txt	LTP325	ltpFR2	9	3	THRONE	1461	n/a	n/a	0	0	0
472840	WORD	wordpools/wasnorm_wordpool_576.txt	LTP325	ltpFR2	9	3	MUMMY	932	n/a	n/a	0	0	0
475291	WORD	wordpools/wasnorm_wordpool_576.txt	LTP325	ltpFR2	9	3	MARS	873	n/a	n/a	0	0	0
478062	WORD	wordpools/wasnorm_wordpool_576.txt	LTP325	ltpFR2	9	3	PLUTO	1092	n/a	n/a	0	0	0
480529	WORD	wordpools/wasnorm_wordpool_576.txt	LTP325	ltpFR2	9	3	LAVA	804	n/a	n/a	0	0	0
483037	WORD	wordpools/wasnorm_wordpool_576.txt	LTP325	ltpFR2	9	3	MARINE	869	n/a	n/a	0	0	0
485634	WORD	wordpools/wasnorm_wordpool_576.txt	LTP325	ltpFR2	9	3	BUTCHER	203	n/a	n/a	0	0	0
488201	WORD	wordpools/wasnorm_wordpool_576.txt	LTP325	ltpFR2	9	3	ZEBRA	1635	n/a	n/a	0	0	0
490904	WORD	wordpools/wasnorm_wordpool_576.txt	LTP325	ltpFR2	9	3	TRUCK	1512	n/a	n/a	0	0	0
493479	WORD	wordpools/wasnorm_wordpool_576.txt	LTP325	ltpFR2	9	3	STREAM	1392	n/a	n/a	0	0	0
496292	WORD	wordpools/wasnorm_wordpool_576.txt	LTP325	ltpFR2	9	3	DRESS	495	n/a	n/a	0	0	0
499035	WORD	wordpools/wasnorm_wordpool_576.txt	LTP325	ltpFR2	9	3	CRATER	400	n/a	n/a	0	0	0
501552	WORD	wordpools/wasnorm_wordpool_576.txt	LTP325	ltpFR2	9	3	LEG	809	n/a	n/a	0	0	0
504082	WORD	wordpools/wasnorm_wordpool_576.txt	LTP325	ltpFR2	9	3	NOTEBOOK	959	n/a	n/a	0	0	0
506658	WORD	wordpools/wasnorm_wordpool_576.txt	LTP325	ltpFR2	9	3	PUPPY	1144	n/a	n/a	0	0	0
509435	WORD	wordpools/wasnorm_wordpool_576.txt	LTP325	ltpFR2	9	3	RIFLE	1192	n/a	n/a	0	0	0
511962	WORD	wordpools/wasnorm_wordpool_576.txt	LTP325	ltpFR2	9	3	FUNGUS	614	n/a	n/a	0	0	0
514640	WORD	wordpools/wasnorm_wordpool_576.txt	LTP325	ltpFR2	9	3	CREATURE	403	n/a	n/a	0	0	0
517459	WORD	wordpools/wasnorm_wordpool_576.txt	LTP325	ltpFR2	9	3	MAMMAL	861	n/a	n/a	0	0	0
520012	WORD	wordpools/wasnorm_wordpool_576.txt	LTP325	ltpFR2	9	3	PEANUT	1032	n/a	n/a	0	0	0
522797	WORD	wordpools/wasnorm_wordpool_576.txt	LTP325	ltpFR2	9	3	SILK	1307	n/a	n/a	0	0	0
524406	START	n/a	LTP325	ltpFR2	9	n/a	n/a	n/a	5	n/a	n/a	n/a	n/a
525592	DISTRACTOR	n/a	LTP325	ltpFR2	9	3	n/a	n/a	n/a	n/a	0	0	0
525600	PROB	n/a	LTP325	ltpFR2	9	n/a	n/a	n/a	5	8	3	2	3
528218	PROB	n/a	LTP325	ltpFR2	9	n/a	n/a	n/a	5	13	4	1	8
531086	PROB	n/a	LTP325	ltpFR2	9	n/a	n/a	n/a	5	10	2	3	5
533221	PROB	n/a	LTP325	ltpFR2	9	n/a	n/a	n/a	5	16	4	7	5
536824	PROB	n/a	LTP325	ltpFR2	9	n/a	n/a	n/a	5	19	7	7	5
538507	PROB	n/a	LTP325	ltpFR2	9	n/a	n/a	n/a	5	9	1	6	2
540294	PROB	n/a	LTP325	ltpFR2	9	n/a	n/a	n/a	5	11	3	5	3
542496	PROB	n/a	LTP325	ltpFR2	9	n/a	n/a	n/a	5	21	9	4	8
545848	PROB	n/a	LTP325	ltpFR2	9	n/a	n/a	n/a	5	13	1	9	3
547273	STOP	n/a	LTP325	ltpFR2	9	n/a	n/a	n/a	5	n/a	n/a	n/a	n/a
550168	REC_START	n/a	LTP325	ltpFR2	9	3	n/a	n/a	n/a	n/a	0	0	0
566787	REC_WORD	wordpools/wasnorm_wordpool_576.txt	LTP325	ltpFR2	9	3	PUPPY	1144	n/a	n/a	0	0	0
568585	REC_WORD	wordpools/wasnorm_wordpool_576.txt	LTP325	ltpFR2	9	3	RIFLE	1192	n/a	n/a	0	0	0
570199	REC_WORD	wordpools/wasnorm_wordpool_576.txt	LTP325	ltpFR2	9	3	BUTCHER	203	n/a	n/a	0	0	0
571682	REC_WORD	wordpools/wasnorm_wordpool_576.txt	LTP325	ltpFR2	9	3	ZEBRA	1635	n/a	n/a	0	0	0
582412	REC_WORD	wordpools/wasnorm_wordpool_576.txt	LTP325	ltpFR2	9	3	CANAL	226	n/a	n/a	0	0	0
583499	REC_WORD	wordpools/wasnorm_wordpool_576.txt	LTP325	ltpFR2	9	3	HEADBAND	696	n/a	n/a	0	0	0
597881	REC_WORD	wordpools/wasnorm_wordpool_576.txt	LTP325	ltpFR2	9	3	TRUCK	1512	n/a	n/a	0	0	0
616845	REC_WORD	wordpools/wasnorm_wordpool_576.txt	LTP325	ltpFR2	9	3	CRATER	400	n/a	n/a	0	0	0
618203	REC_WORD	wordpools/wasnorm_wordpool_576.txt	LTP325	ltpFR2	9	3	DRESS	495	n/a	n/a	0	0	0
619382	REC_WORD	wordpools/wasnorm_wordpool_576.txt	LTP325	ltpFR2	9	3	LEG	809	n/a	n/a	0	0	0
640641	WORD	wordpools/wasnorm_wordpool_576.txt	LTP325	ltpFR2	9	4	CHEMIST	292	n/a	n/a	0	0	0
643226	WORD	wordpools/wasnorm_wordpool_576.txt	LTP325	ltpFR2	9	4	FINGER	567	n/a	n/a	0	0	0
645979	WORD	wordpools/wasnorm_wordpool_576.txt	LTP325	ltpFR2	9	4	NAPKIN	937	n/a	n/a	0	0	0
648731	WORD	wordpools/wasnorm_wordpool_576.txt	LTP325	ltpFR2	9	4	COOK	372	n/a	n/a	0	0	0
651366	WORD	wordpools/wasnorm_wordpool_576.txt	LTP325	ltpFR2	9	4	LAMP	798	n/a	n/a	0	0	0
653936	WORD	wordpools/wasnorm_wordpool_576.txt	LTP325	ltpFR2	9	4	VELVET	1555	n/a	n/a	0	0	0
656721	WORD	wordpools/wasnorm_wordpool_576.txt	LTP325	ltpFR2	9	4	CARROT	249	n/a	n/a	0	0	0
659223	WORD	wordpools/wasnorm_wordpool_576.txt	LTP325	ltpFR2	9	4	VALVE	1546	n/a	n/a	0	0	0
661842	WORD	wordpools/wasnorm_wordpool_576.txt	LTP325	ltpFR2	9	4	WRENCH	1625	n/a	n/a	0	0	0
664509	WORD	wordpools/wasnorm_wordpool_576.txt	LTP325	ltpFR2	9	4	TART	1436	n/a	n/a	0	0	0
667029	WORD	wordpools/wasnorm_wordpool_576.txt	LTP325	ltpFR2	9	4	PASTRY	1022	n/a	n/a	0	0	0
669732	WORD	wordpools/wasnorm_wordpool_576.txt	LTP325	ltpFR2	9	4	CRAYON	401	n/a	n/a	0	0	0
672233	WORD	wordpools/wasnorm_wordpool_576.txt	LTP325	ltpFR2	9	4	SUBWAY	1400	n/a	n/a	0	0	0
674852	WORD	wordpools/wasnorm_wordpool_576.txt	LTP325	ltpFR2	9	4	CASHIER	254	n/a	n/a	0	0	0
677370	WORD	wordpools/wasnorm_wordpool_576.txt	LTP325	ltpFR2	9	4	COIN	343	n/a	n/a	0	0	0
679906	WORD	wordpools/wasnorm_wordpool_576.txt	LTP325	ltpFR2	9	4	VAGRANT	1544	n/a	n/a	0	0	0
682577	WORD	wordpools/wasnorm_wordpool_576.txt	LTP325	ltpFR2	9	4	HOOK	715	n/a	n/a	0	0	0
685243	WORD	wordpools/wasnorm_wordpool_576.txt	LTP325	ltpFR2	9	4	HAND	683	n/a	n/a	0	0	0
687749	WORD	wordpools/wasnorm_wordpool_576.txt	LTP325	ltpFR2	9	4	PRIMATE	1123	n/a	n/a	0	0	0
690497	WORD	wordpools/wasnorm_wordpool_576.txt	LTP325	ltpFR2	9	4	SUMMIT	1405	n/a	n/a	0	0	0
693232	WORD	wordpools/wasnorm_wordpool_576.txt	LTP325	ltpFR2	9	4	IGLOO	734	n/a	n/a	0	0	0
695735	WORD	wordpools/wasnorm_wordpool_576.txt	LTP325	ltpFR2	9	4	HUSBAND	728	n/a	n/a	0	0	0
698420	WORD	wordpools/wasnorm_wordpool_576.txt	LTP325	ltpFR2	9	4	MISTER	901	n/a	n/a	0	0	0
700923	WORD	wordpools/wasnorm_wordpool_576.txt	LTP325	ltpFR2	9	4	SWITCH	1422	n/a	n/a	0	0	0
702528	START	n/a	LTP325	ltpFR2	9	n/a	n/a	n/a	6	n/a	n/a	n/a	n/a
703555	DISTRACTOR	n/a	LTP325	ltpFR2	9	4	n/a	n/a	n/a	n/a	0	0	0
703562	PROB	n/a	LTP325	ltpFR2	9	n/a	n/a	n/a	6	18	5	8	5
705359	PROB	n/a	LTP325	ltpFR2	9	n/a	n/a	n/a	6	19	8	7	4
708027	PROB	n/a	LTP325	ltpFR2	9	n/a	n/a	n/a	6	12	4	2	6
709679	PROB	n/a	LTP325	ltpFR2	9	n/a	n/a	n/a	6	14	8	5	1
712263	PROB	n/a	LTP325	ltpFR2	9	n/a	n/a	n/a	6	16	1	9	6
713699	PROB	n/a	LTP325	ltpFR2	9	n/a	n/a	n/a	6	11	1	2	8
715199	PROB	n/a	LTP325	ltpFR2	9	n/a	n/a	n/a	6	18	7	3	8
716834	PROB	n/a	LTP325	ltpFR2	9	n/a	n/a	n/a	6	16	5	7	4
718904	PROB	n/a	LTP325	ltpFR2	9	n/a	n/a	n/a	6	14	6	5	3
721304	PROB	n/a	LTP325	ltpFR2	9	n/a	n/a	n/a	6	21	4	9	8
725304	STOP	n/a	LTP325	ltpFR2	9	n/a	n/a	n/a	6	n/a	n/a	n/a	n/a
728329	REC_START	n/a	LTP325	ltpFR2	9	4	n/a	n/a	n/a	n/a	0	0	0
736934	REC_WORD	wordpools/wasnorm_wordpool_576.txt	LTP325	ltpFR2	9	4	CLIMATE	-1	n/a	n/a	0	0	0
818763	WORD	wordpools/wasnorm_wordpool_576.txt	LTP325	ltpFR2	9	5	BANK	83	n/a	n/a	0	0	0
821218	WORD	wordpools/wasnorm_wordpool_576.txt	LTP325	ltpFR2	9	5	STOVE	1388	n/a	n/a	0	0	0
823868	WORD	wordpools/wasnorm_wordpool_576.txt	LTP325	ltpFR2	9	5	LUGGAGE	847	n/a	n/a	0	0	0
826469	WORD	wordpools/wasnorm_wordpool_576.txt	LTP325	ltpFR2	9	5	TILE	1468	n/a	n/a	0	0	0
829059	WORD	wordpools/wasnorm_wordpool_576.txt	LTP325	ltpFR2	9	5	PERFUME	1049	n/a	n/a	0	0	0
831807	WORD	wordpools/wasnorm_wordpool_576.txt	LTP325	ltpFR2	9	5	SERVER	1272	n/a	n/a	0	0	0
834393	WORD	wordpools/wasnorm_wordpool_576.txt	LTP325	ltpFR2	9	5	CRUTCH	417	n/a	n/a	0	0	0
837066	WORD	wordpools/wasnorm_wordpool_576.txt	LTP325	ltpFR2	9	5	HEART	697	n/a	n/a	0	0	0
839732	WORD	wordpools/wasnorm_wordpool_576.txt	LTP325	ltpFR2	9	5	MESSAGE	888	n/a	n/a	0	0	0
842283	WORD	wordpools/wasnorm_wordpool_576.txt	LTP325	ltpFR2	9	5	SCRIBBLE	1256	n/a	n/a	0	0	0
844719	WORD	wordpools/wasnorm_wordpool_576.txt	LTP325	ltpFR2	9	5	DONOR	485	n/a	n/a	0	0	0
847270	WORD	wordpools/wasnorm_wordpool_576.txt	LTP325	ltpFR2	9	5	TRANSPLANT	1496	n/a	n/a	0	0	0
849906	WORD	wordpools/wasnorm_wordpool_576.txt	LTP325	ltpFR2	9	5	MOP	916	n/a	n/a	0	0	0
852408	WORD	wordpools/wasnorm_wordpool_576.txt	LTP325	ltpFR2	9	5	SUPPER	1411	n/a	n/a	0	0	0
855143	WORD	wordpools/wasnorm_wordpool_576.txt	LTP325	ltpFR2	9	5	SUITCASE	1403	n/a	n/a	0	0	0
857647	WORD	wordpools/wasnorm_wordpool_576.txt	LTP325	ltpFR2	9	5	ARM	38	n/a	n/a	0	0	0
860148	WORD	wordpools/wasnorm_wordpool_576.txt	LTP325	ltpFR2	9	5	FREEZER	604	n/a	n/a	0	0	0
862834	WORD	wordpools/wasnorm_wordpool_576.txt	LTP325	ltpFR2	9	5	SCARF	1246	n/a	n/a	0	0	0
865369	WORD	wordpools/wasnorm_wordpool_576.txt	LTP325	ltpFR2	9	5	PASSAGE	1019	n/a	n/a	0	0	0
868138	WORD	wordpools/wasnorm_wordpool_576.txt	LTP325	ltpFR2	9	5	RUST	1219	n/a	n/a	0	0	0
870925	WORD	wordpools/wasnorm_wordpool_576.txt	LTP325	ltpFR2	9	5	TYPIST	1532	n/a	n/a	0	0	0
873377	WORD	wordpools/wasnorm_wordpool_576.txt	LTP325	ltpFR2	9	5	LAKE	796	n/a	n/a	0	0	0
875980	WORD	wordpools/wasnorm_wordpool_576.txt	LTP325	ltpFR2	9	5	DRAGON	492	n/a	n/a	0	0	0
878465	WORD	wordpools/wasnorm_wordpool_576.txt	LTP325	ltpFR2	9	5	RAFT	1159	n/a	n/a	0	0	0
880084	START	n/a	LTP325	ltpFR2	9	n/a	n/a	n/a	7	n/a	n/a	n/a	n/a
880901	DISTRACTOR	n/a	LTP325	ltpFR2	9	5	n/a	n/a	n/a	n/a	0	0	0
880917	PROB	n/a	LTP325	ltpFR2	9	n/a	n/a	n/a	7	12	2	8	2
882686	PROB	n/a	LTP325	ltpFR2	9	n/a	n/a	n/a	7	21	7	8	8
885920	PROB	n/a	LTP325	ltpFR2	9	n/a	n/a	n/a	7	15	2	7	6
889122	PROB	n/a	LTP325	ltpFR2	9	n/a	n/a	n/a	7	17	5	4	8
891574	PROB	n/a	LTP325	ltpFR2	9	n/a	n/a	n/a	7	10	2	7	1
893376	PROB	n/a	LTP325	ltpFR2	9	n/a	n/a	n/a	7	14	1	9	4
894812	PROB	n/a	LTP325	ltpFR2	9	n/a	n/a	n/a	7	23	7	6	9
900617	PROB	n/a	LTP325	ltpFR2	9	n/a	n/a	n/a	7	13	2	6	5
902551	STOP	n/a	LTP325	ltpFR2	9	n/a	n/a	n/a	7	n/a	n/a	n/a	n/a
905904	REC_START	n/a	LTP325	ltpFR2	9	5	n/a	n/a	n/a	n/a	0	0	0
909701	REC_WORD	wordpools/wasnorm_wordpool_576.txt	LTP325	ltpFR2	9	5	ARM	38	n/a	n/a	0	0	0
910792	REC_WORD	wordpools/wasnorm_wordpool_576.txt	LTP325	ltpFR2	9	5	SCARF	1246	n/a	n/a	0	0	0
912022	REC_WORD	wordpools/wasnorm_wordpool_576.txt	LTP325	ltpFR2	9	5	FREEZER	604	n/a	n/a	0	0	0
952134	REC_WORD	wordpools/wasnorm_wordpool_576.txt	LTP325	ltpFR2	9	5	CRUTCH	417	n/a	n/a	0	0	0
953419	REC_WORD	wordpools/wasnorm_wordpool_576.txt	LTP325	ltpFR2	9	5	HEART	697	n/a	n/a	0	0	0
955099	REC_WORD	wordpools/wasnorm_wordpool_576.txt	LTP325	ltpFR2	9	5	DONOR	485	n/a	n/a	0	0	0
956317	REC_WORD	wordpools/wasnorm_wordpool_576.txt	LTP325	ltpFR2	9	5	TRANSPLANT	1496	n/a	n/a	0	0	0
996326	DISTRACTOR	n/a	LTP325	ltpFR2	9	6	n/a	n/a	n/a	n/a	0	0	0
996327	START	n/a	LTP325	ltpFR2	9	n/a	n/a	n/a	8	n/a	n/a	n/a	n/a
996341	PROB	n/a	LTP325	ltpFR2	9	n/a	n/a	n/a	8	17	3	9	5
1000079	PROB	n/a	LTP325	ltpFR2	9	n/a	n/a	n/a	8	21	5	9	7
1003129	PROB	n/a	LTP325	ltpFR2	9	n/a	n/a	n/a	8	17	1	7	9
1004932	PROB	n/a	LTP325	ltpFR2	9	n/a	n/a	n/a	8	11	5	2	4
1007116	PROB	n/a	LTP325	ltpFR2	9	n/a	n/a	n/a	8	17	1	8	8
1008869	PROB	n/a	LTP325	ltpFR2	9	n/a	n/a	n/a	8	9	4	4	1
1010335	PROB	n/a	LTP325	ltpFR2	9	n/a	n/a	n/a	8	24	9	7	8
1014090	PROB	n/a	LTP325	ltpFR2	9	n/a	n/a	n/a	8	10	2	6	2
1016457	PROB	n/a	LTP325	ltpFR2	9	n/a	n/a	n/a	8	15	4	3	8
1019236	STOP	n/a	LTP325	ltpFR2	9	n/a	n/a	n/a	8	n/a	n/a	n/a	n/a
1021379	WORD	wordpools/wasnorm_wordpool_576.txt	LTP325	ltpFR2	9	6	BELLY	119	n/a	n/a	0	0	0
1024108	WORD	wordpools/wasnorm_wordpool_576.txt	LTP325	ltpFR2	9	6	PREACHER	1119	n/a	n/a	0	0	0
1026745	WORD	wordpools/wasnorm_wordpool_576.txt	LTP325	ltpFR2	9	6	MEAT	883	n/a	n/a	0	0	0
1029429	WORD	wordpools/wasnorm_wordpool_576.txt	LTP325	ltpFR2	9	6	TUBA	1515	n/a	n/a	0	0	0
1032048	WORD	wordpools/wasnorm_wordpool_576.txt	LTP325	ltpFR2	9	6	CAPTIVE	240	n/a	n/a	0	0	0
1034718	WORD	wordpools/wasnorm_wordpool_576.txt	LTP325	ltpFR2	9	6	WASHER	1592	n/a	n/a	0	0	0
1037169	WORD	wordpools/wasnorm_wordpool_576.txt	LTP325	ltpFR2	9	6	HAMPER	682	n/a	n/a	0	0	0
1039888	WORD	wordpools/wasnorm_wordpool_576.txt	LTP325	ltpFR2	9	6	QUEEN	1149	n/a	n/a	0	0	0
1042497	WORD	wordpools/wasnorm_wordpool_576.txt	LTP325	ltpFR2	9	6	EMPIRE	530	n/a	n/a	0	0	0
1045082	WORD	wordpools/wasnorm_wordpool_576.txt	LTP325	ltpFR2	9	6	FOREHEAD	592	n/a	n/a	0	0	0
1047544	WORD	wordpools/wasnorm_wordpool_576.txt	LTP325	ltpFR2	9	6	BRAKE	166	n/a	n/a	0	0	0
1050235	WORD	wordpools/wasnorm_wordpool_576.txt	LTP325	ltpFR2	9	6	DRIVER	499	n/a	n/a	0	0	0
1053006	WORD	wordpools/wasnorm_wordpool_576.txt	LTP325	ltpFR2	9	6	STAMP	1370	n/a	n/a	0	0	0
1055585	WORD	wordpools/wasnorm_wordpool_576.txt	LTP325	ltpFR2	9	6	SHOULDER	1294	n/a	n/a	0	0	0
1058055	WORD	wordpools/wasnorm_wordpool_576.txt	LTP325	ltpFR2	9	6	SIBLING	1301	n/a	n/a	0	0	0
1060845	WORD	wordpools/wasnorm_wordpool_576.txt	LTP325	ltpFR2	9	6	SPIDER	1351	n/a	n/a	0	0	0
1063630	WORD	wordpools/wasnorm_wordpool_576.txt	LTP325	ltpFR2	9	6	EYELASH	546	n/a	n/a	0	0	0
1066277	WORD	wordpools/wasnorm_wordpool_576.txt	LTP325	ltpFR2	9	6	COTTAGE	384	n/a	n/a	0	0	0
1068913	WORD	wordpools/wasnorm_wordpool_576.txt	LTP325	ltpFR2	9	6	CATTLE	261	n/a	n/a	0	0	0
1071402	WORD	wordpools/wasnorm_wordpool_576.txt	LTP325	ltpFR2	9	6	SISTER	1312	n/a	n/a	0	0	0
1074086	WORD	wordpools/wasnorm_wordpool_576.txt	LTP325	ltpFR2	9	6	FOX	598	n/a	n/a	0	0	0
1076837	WORD	wordpools/wasnorm_wordpool_576.txt	LTP325	ltpFR2	9	6	COBRA	336	n/a	n/a	0	0	0
1079590	WORD	wordpools/wasnorm_wordpool_576.txt	LTP325	ltpFR2	9	6	RECORD	1176	n/a	n/a	0	0	0
1082294	WORD	wordpools/wasnorm_wordpool_576.txt	LTP325	ltpFR2	9	6	FOOT	590	n/a	n/a	0	0	0
1083912	START	n/a	LTP325	ltpFR2	9	n/a	n/a	n/a	9	n/a	n/a	n/a	n/a
1084822	DISTRACTOR	n/a	LTP325	ltpFR2	9	6	n/a	n/a	n/a	n/a	0	0	0
1084828	PROB	n/a	LTP325	ltpFR2	9	n/a	n/a	n/a	9	9	3	2	4
1087862	PROB	n/a	LTP325	ltpFR2	9	n/a	n/a	n/a	9	16	6	8	2
1089513	PROB	n/a	LTP325	ltpFR2	9	n/a	n/a	n/a	9	10	7	2	1
1091032	PROB	n/a	LTP325	ltpFR2	9	n/a	n/a	n/a	9	12	1	3	8
1092721	PROB	n/a	LTP325	ltpFR2	9	n/a	n/a	n/a	9	14	4	4	6
1094367	PROB	n/a	LTP325	ltpFR2	9	n/a	n/a	n/a	9	18	3	7	8
1096186	PROB	n/a	LTP325	ltpFR2	9	n/a	n/a	n/a	9	14	5	3	6
1099155	PROB	n/a	LTP325	ltpFR2	9	n/a	n/a	n/a	9	17	3	8	6
1100925	PROB	n/a	LTP325	ltpFR2	9	n/a	n/a	n/a	9	13	5	2	6
1104445	PROB	n/a	LTP325	ltpFR2	9	n/a	n/a	n/a	9	19	9	9	1
1107912	STOP	n/a	LTP325	ltpFR2	9	n/a	n/a	n/a	9	n/a	n/a	n/a	n/a
1109802	REC_START	n/a	LTP325	ltpFR2	9	6	n/a	n/a	n/a	n/a	0	0	0
1111746	REC_WORD	wordpools/wasnorm_wordpool_576.txt	LTP325	ltpFR2	9	6	SIBLING	1301	n/a	n/a	0	0	0
1113034	REC_WORD	wordpools/wasnorm_wordpool_576.txt	LTP325	ltpFR2	9	6	SISTER	1312	n/a	n/a	0	0	0
1114775	REC_WORD	wordpools/wasnorm_wordpool_576.txt	LTP325	ltpFR2	9	6	FOX	598	n/a	n/a	0	0	0
1116743	REC_WORD	wordpools/wasnorm_wordpool_576.txt	LTP325	ltpFR2	9	6	CATTLE	261	n/a	n/a	0	0	0
1118294	REC_WORD	wordpools/wasnorm_wordpool_576.txt	LTP325	ltpFR2	9	6	COBRA	336	n/a	n/a	0	0	0
1129619	REC_WORD	wordpools/wasnorm_wordpool_576.txt	LTP325	ltpFR2	9	6	BRAKE	166	n/a	n/a	0	0	0
1130756	REC_WORD	wordpools/wasnorm_wordpool_576.txt	LTP325	ltpFR2	9	6	DRIVER	499	n/a	n/a	0	0	0
1132259	REC_WORD	wordpools/wasnorm_wordpool_576.txt	LTP325	ltpFR2	9	6	QUEEN	1149	n/a	n/a	0	0	0
1133622	REC_WORD	wordpools/wasnorm_wordpool_576.txt	LTP325	ltpFR2	9	6	EMPIRE	530	n/a	n/a	0	0	0
1134944	REC_WORD	wordpools/wasnorm_wordpool_576.txt	LTP325	ltpFR2	9	6	CAPTIVE	240	n/a	n/a	0	0	0
1200240	DISTRACTOR	n/a	LTP325	ltpFR2	9	7	n/a	n/a	n/a	n/a	0	0	0
1200240	START	n/a	LTP325	ltpFR2	9	n/a	n/a	n/a	10	n/a	n/a	n/a	n/a
1200254	PROB	n/a	LTP325	ltpFR2	9	n/a	n/a	n/a	10	17	5	6	6
1202009	PROB	n/a	LTP325	ltpFR2	9	n/a	n/a	n/a	10	9	4	1	4
1203675	PROB	n/a	LTP325	ltpFR2	9	n/a	n/a	n/a	10	21	9	9	3
1205776	PROB	n/a	LTP325	ltpFR2	9	n/a	n/a	n/a	10	16	4	4	8
1207847	PROB	n/a	LTP325	ltpFR2	9	n/a	n/a	n/a	10	14	1	4	9
1209598	PROB	n/a	LTP325	ltpFR2	9	n/a	n/a	n/a	10	18	3	7	8
1211081	PROB	n/a	LTP325	ltpFR2	9	n/a	n/a	n/a	10	13	7	2	4
1212932	PROB	n/a	LTP325	ltpFR2	9	n/a	n/a	n/a	10	12	4	3	5
1216485	PROB	n/a	LTP325	ltpFR2	9	n/a	n/a	n/a	10	19	8	4	7
1218904	PROB	n/a	LTP325	ltpFR2	9	n/a	n/a	n/a	10	10	7	2	1
1220421	PROB	n/a	LTP325	ltpFR2	9	n/a	n/a	n/a	10	17	7	3	7
1222306	PROB	n/a	LTP325	ltpFR2	9	n/a	n/a	n/a	10	14	9	4	1
1223701	STOP	n/a	LTP325	ltpFR2	9	n/a	n/a	n/a	10	n/a	n/a	n/a	n/a
1225276	WORD	wordpools/wasnorm_wordpool_576.txt	LTP325	ltpFR2	9	7	TORTOISE	1486	n/a	n/a	0	0	0
1228079	WORD	wordpools/wasnorm_wordpool_576.txt	LTP325	ltpFR2	9	7	STAPLE	1371	n/a	n/a	0	0	0
1230682	WORD	wordpools/wasnorm_wordpool_576.txt	LTP325	ltpFR2	9	7	GLOBE	641	n/a	n/a	0	0	0
1233448	WORD	wordpools/wasnorm_wordpool_576.txt	LTP325	ltpFR2	9	7	CHEST	295	n/a	n/a	0	0	0
1235926	WORD	wordpools/wasnorm_wordpool_576.txt	LTP325	ltpFR2	9	7	GAZELLE	628	n/a	n/a	0	0	0
1238637	WORD	wordpools/wasnorm_wordpool_576.txt	LTP325	ltpFR2	9	7	PASTA	1021	n/a	n/a	0	0	0
1241422	WORD	wordpools/wasnorm_wordpool_576.txt	LTP325	ltpFR2	9	7	MILK	895	n/a	n/a	0	0	0
1243942	WORD	wordpools/wasnorm_wordpool_576.txt	LTP325	ltpFR2	9	7	CRAB	397	n/a	n/a	0	0	0
1246401	WORD	wordpools/wasnorm_wordpool_576.txt	LTP325	ltpFR2	9	7	DIVER	476	n/a	n/a	0	0	0
1249179	WORD	wordpools/wasnorm_wordpool_576.txt	LTP325	ltpFR2	9	7	SPOON	1357	n/a	n/a	0	0	0
1251881	WORD	wordpools/wasnorm_wordpool_576.txt	LTP325	ltpFR2	9	7	MATCH	878	n/a	n/a	0	0	0
1254582	WORD	wordpools/wasnorm_wordpool_576.txt	LTP325	ltpFR2	9	7	WRIST	1626	n/a	n/a	0	0	0
1257110	WORD	wordpools/wasnorm_wordpool_576.txt	LTP325	ltpFR2	9	7	BANJO	82	n/a	n/a	0	0	0
1259887	WORD	wordpools/wasnorm_wordpool_576.txt	LTP325	ltpFR2	9	7	AIRPLANE	12	n/a	n/a	0	0	0
1262406	WORD	wordpools/wasnorm_wordpool_576.txt	LTP325	ltpFR2	9	7	BUNNY	198	n/a	n/a	0	0	0
1265225	WORD	wordpools/wasnorm_wordpool_576.txt	LTP325	ltpFR2	9	7	CELLAR	267	n/a	n/a	0	0	0
1267828	WORD	wordpools/wasnorm_wordpool_576.txt	LTP325	ltpFR2	9	7	BASEMENT	94	n/a	n/a	0	0	0
1270572	WORD	wordpools/wasnorm_wordpool_576.txt	LTP325	ltpFR2	9	7	HONEY	713	n/a	n/a	0	0	0
1273314	WORD	wordpools/wasnorm_wordpool_576.txt	LTP325	ltpFR2	9	7	FLEET	578	n/a	n/a	0	0	0
1275817	WORD	wordpools/wasnorm_wordpool_576.txt	LTP325	ltpFR2	9	7	ARMY	39	n/a	n/a	0	0	0
1278385	WORD	wordpools/wasnorm_wordpool_576.txt	LTP325	ltpFR2	9	7	SPONGE	1355	n/a	n/a	0	0	0
1280865	WORD	wordpools/wasnorm_wordpool_576.txt	LTP325	ltpFR2	9	7	ZIPPER	1636	n/a	n/a	0	0	0
1283600	WORD	wordpools/wasnorm_wordpool_576.txt	LTP325	ltpFR2	9	7	MOTOR	922	n/a	n/a	0	0	0
1286335	WORD	wordpools/wasnorm_wordpool_576.txt	LTP325	ltpFR2	9	7	TRACTOR	1493	n/a	n/a	0	0	0
1287944	START	n/a	LTP325	ltpFR2	9	n/a	n/a	n/a	11	n/a	n/a	n/a	n/a
1288778	DISTRACTOR	n/a	LTP325	ltpFR2	9	7	n/a	n/a	n/a	n/a	0	0	0
1288789	PROB	n/a	LTP325	ltpFR2	9	n/a	n/a	n/a	11	13	4	2	7
1291195	PROB	n/a	LTP325	ltpFR2	9	n/a	n/a	n/a	11	11	6	2	3
1293580	PROB	n/a	LTP325	ltpFR2	9	n/a	n/a	n/a	11	20	5	6	9
1299117	PROB	n/a	LTP325	ltpFR2	9	n/a	n/a	n/a	11	9	7	1	1
1300553	PROB	n/a	LTP325	ltpFR2	9	n/a	n/a	n/a	11	10	1	7	2
1302405	PROB	n/a	LTP325	ltpFR2	9	n/a	n/a	n/a	11	8	3	4	1
1303956	PROB	n/a	LTP325	ltpFR2	9	n/a	n/a	n/a	11	16	1	9	6
1305223	PROB	n/a	LTP325	ltpFR2	9	n/a	n/a	n/a	11	18	7	2	9
1307273	PROB	n/a	LTP325	ltpFR2	9	n/a	n/a	n/a	11	18	6	9	3
1309878	PROB	n/a	LTP325	ltpFR2	9	n/a	n/a	n/a	11	13	5	3	5
1311704	STOP	n/a	LTP325	ltpFR2	9	n/a	n/a	n/a	11	n/a	n/a	n/a	n/a
1313832	REC_START	n/a	LTP325	ltpFR2	9	7	n/a	n/a	n/a	n/a	0	0	0
1315096	REC_WORD	wordpools/wasnorm_wordpool_576.txt	LTP325	ltpFR2	9	7	SPONGE	1355	n/a	n/a	0	0	0
1319918	REC_WORD	wordpools/wasnorm_wordpool_576.txt	LTP325	ltpFR2	9	7	ARMY	39	n/a	n/a	0	0	0
1320887	REC_WORD	wordpools/wasnorm_wordpool_576.txt	LTP325	ltpFR2	9	7	FLEET	578	n/a	n/a	0	0	0
1322149	REC_WORD	wordpools/wasnorm_wordpool_576.txt	LTP325	ltpFR2	9	7	HONEY	713	n/a	n/a	0	0	0
1328590	REC_WORD	wordpools/wasnorm_wordpool_576.txt	LTP325	ltpFR2	9	7	TRACTOR	1493	n/a	n/a	0	0	0
1329812	REC_WORD	wordpools/wasnorm_wordpool_576.txt	LTP325	ltpFR2	9	7	MOTOR	922	n/a	n/a	0	0	0
1347237	REC_WORD	wordpools/wasnorm_wordpool_576.txt	LTP325	ltpFR2	9	7	GAZELLE	628	n/a	n/a	0	0	0
1348899	REC_WORD	wordpools/wasnorm_wordpool_576.txt	LTP325	ltpFR2	9	7	MILK	895	n/a	n/a	0	0	0
1352035	REC_WORD	wordpools/wasnorm_wordpool_576.txt	LTP325	ltpFR2	9	7	CRAB	397	n/a	n/a	0	0	0
1353350	REC_WORD	wordpools/wasnorm_wordpool_576.txt	LTP325	ltpFR2	9	7	DIVER	476	n/a	n/a	0	0	0
1404302	WORD	wordpools/wasnorm_wordpool_576.txt	LTP325	ltpFR2	9	8	SIDEWALK	1303	n/a	n/a	0	0	0
1406972	WORD	wordpools/wasnorm_wordpool_576.txt	LTP325	ltpFR2	9	8	GRAVEL	659	n/a	n/a	0	0	0
1409507	WORD	wordpools/wasnorm_wordpool_576.txt	LTP325	ltpFR2	9	8	BUCKET	184	n/a	n/a	0	0	0
1412258	WORD	wordpools/wasnorm_wordpool_576.txt	LTP325	ltpFR2	9	8	WORLD	1622	n/a	n/a	0	0	0
1414982	WORD	wordpools/wasnorm_wordpool_576.txt	LTP325	ltpFR2	9	8	HANDBAG	684	n/a	n/a	0	0	0
1417731	WORD	wordpools/wasnorm_wordpool_576.txt	LTP325	ltpFR2	9	8	BRANCH	168	n/a	n/a	0	0	0
1420149	WORD	wordpools/wasnorm_wordpool_576.txt	LTP325	ltpFR2	9	8	SPARROW	1347	n/a	n/a	0	0	0
1422951	WORD	wordpools/wasnorm_wordpool_576.txt	LTP325	ltpFR2	9	8	HORSE	719	n/a	n/a	0	0	0
1425419	WORD	wordpools/wasnorm_wordpool_576.txt	LTP325	ltpFR2	9	8	DRESSER	496	n/a	n/a	0	0	0
1427905	WORD	wordpools/wasnorm_wordpool_576.txt	LTP325	ltpFR2	9	8	PRINCE	1124	n/a	n/a	0	0	0
1430323	WORD	wordpools/wasnorm_wordpool_576.txt	LTP325	ltpFR2	9	8	DASHBOARD	441	n/a	n/a	0	0	0
1433076	WORD	wordpools/wasnorm_wordpool_576.txt	LTP325	ltpFR2	9	8	BUREAU	199	n/a	n/a	0	0	0
1435545	WORD	wordpools/wasnorm_wordpool_576.txt	LTP325	ltpFR2	9	8	COFFEE	341	n/a	n/a	0	0	0
1438234	WORD	wordpools/wasnorm_wordpool_576.txt	LTP325	ltpFR2	9	8	PLASTER	1085	n/a	n/a	0	0	0
1440817	WORD	wordpools/wasnorm_wordpool_576.txt	LTP325	ltpFR2	9	8	POSTAGE	1113	n/a	n/a	0	0	0
1443255	WORD	wordpools/wasnorm_wordpool_576.txt	LTP325	ltpFR2	9	8	COWBOY	395	n/a	n/a	0	0	0
1446004	WORD	wordpools/wasnorm_wordpool_576.txt	LTP325	ltpFR2	9	8	CEILING	265	n/a	n/a	0	0	0
1448461	WORD	wordpools/wasnorm_wordpool_576.txt	LTP325	ltpFR2	9	8	COOKBOOK	373	n/a	n/a	0	0	0
1450924	WORD	wordpools/wasnorm_wordpool_576.txt	LTP325	ltpFR2	9	8	ICEBERG	731	n/a	n/a	0	0	0
1453693	WORD	wordpools/wasnorm_wordpool_576.txt	LTP325	ltpFR2	9	8	SPACE	1345	n/a	n/a	0	0	0
1456477	WORD	wordpools/wasnorm_wordpool_576.txt	LTP325	ltpFR2	9	8	ROCKET	1202	n/a	n/a	0	0	0
1459003	WORD	wordpools/wasnorm_wordpool_576.txt	LTP325	ltpFR2	9	8	CARRIAGE	248	n/a	n/a	0	0	0
1461749	WORD	wordpools/wasnorm_wordpool_576.txt	LTP325	ltpFR2	9	8	CORAL	378	n/a	n/a	0	0	0
1464384	WORD	wordpools/wasnorm_wordpool_576.txt	LTP325	ltpFR2	9	8	PECAN	1036	n/a	n/a	0	0	0
1465993	START	n/a	LTP325	ltpFR2	9	n/a	n/a	n/a	12	n/a	n/a	n/a	n/a
1466936	DISTRACTOR	n/a	LTP325	ltpFR2	9	8	n/a	n/a	n/a	n/a	0	0	0
1466945	PROB	n/a	LTP325	ltpFR2	9	n/a	n/a	n/a	12	17	5	5	7
1468822	PROB	n/a	LTP325	ltpFR2	9	n/a	n/a	n/a	12	10	6	3	1
1470706	PROB	n/a	LTP325	ltpFR2	9	n/a	n/a	n/a	12	9	1	1	7
1472189	PROB	n/a	LTP325	ltpFR2	9	n/a	n/a	n/a	12	20	7	9	4
1474944	PROB	n/a	LTP325	ltpFR2	9	n/a	n/a	n/a	12	14	5	4	5
1476225	PROB	n/a	LTP325	ltpFR2	9	n/a	n/a	n/a	12	18	8	8	2
1477594	PROB	n/a	LTP325	ltpFR2	9	n/a	n/a	n/a	12	15	7	2	6
1479948	PROB	n/a	LTP325	ltpFR2	9	n/a	n/a	n/a	12	18	9	4	5
1481898	PROB	n/a	LTP325	ltpFR2	9	n/a	n/a	n/a	12	21	8	5	8
1484215	PROB	n/a	LTP325	ltpFR2	9	n/a	n/a	n/a	12	12	6	1	5
1486450	PROB	n/a	LTP325	ltpFR2	9	n/a	n/a	n/a	12	9	1	4	4
1487920	PROB	n/a	LTP325	ltpFR2	9	n/a	n/a	n/a	12	15	5	4	6
1489607	STOP	n/a	LTP325	ltpFR2	9	n/a	n/a	n/a	12	n/a	n/a	n/a	n/a
1491924	REC_START	n/a	LTP325	ltpFR2	9	8	n/a	n/a	n/a	n/a	0	0	0
1493914	REC_WORD	wordpools/wasnorm_wordpool_576.txt	LTP325	ltpFR2	9	8	BUREAU	199	n/a	n/a	0	0	0
1497611	REC_WORD	wordpools/wasnorm_wordpool_576.txt	LTP325	ltpFR2	9	8	WORLD	1622	n/a	n/a	0	0	0
1499074	REC_WORD	wordpools/wasnorm_wordpool_576.txt	LTP325	ltpFR2	9	8	HANDBAG	684	n/a	n/a	0	0	0
1504185	REC_WORD	wordpools/wasnorm_wordpool_576.txt	LTP325	ltpFR2	9	8	DRESSER	496	n/a	n/a	0	0	0
1505465	REC_WORD	wordpools/wasnorm_wordpool_576.txt	LTP325	ltpFR2	9	8	SPARROW	1347	n/a	n/a	0	0	0
1507552	REC_WORD	wordpools/wasnorm_wordpool_576.txt	LTP325	ltpFR2	9	8	TWIG	1527	n/a	n/a	0	0	0
1509058	REC_WORD	wordpools/wasnorm_wordpool_576.txt	LTP325	ltpFR2	9	8	HORSE	719	n/a	n/a	0	0	0
1510569	REC_WORD	wordpools/wasnorm_wordpool_576.txt	LTP325	ltpFR2	9	8	PRINCE	1124	n/a	n/a	0	0	0
1512129	REC_WORD	wordpools/wasnorm_wordpool_576.txt	LTP325	ltpFR2	9	8	CARRIAGE	248	n/a	n/a	0	0	0
1566588	REC_WORD	wordpools/wasnorm_wordpool_576.txt	LTP325	ltpFR2	9	8	PECAN	1036	n/a	n/a	0	0	0
1568464	REST_REWET	n/a	LTP325	ltpFR2	9	8	n/a	n/a	n/a	n/a	0	0	0
1775315	WORD	wordpools/wasnorm_wordpool_576.txt	LTP325	ltpFR2	9	9	PERMIT	1051	n/a	n/a	0	0	0
1778032	WORD	wordpools/wasnorm_wordpool_576.txt	LTP325	ltpFR2	9	9	GOBLIN	645	n/a	n/a	0	0	0
1780817	WORD	wordpools/wasnorm_wordpool_576.txt	LTP325	ltpFR2	9	9	COSTUME	383	n/a	n/a	0	0	0
1783489	WORD	wordpools/wasnorm_wordpool_576.txt	LTP325	ltpFR2	9	9	FIREPLACE	570	n/a	n/a	0	0	0
1786205	WORD	wordpools/wasnorm_wordpool_576.txt	LTP325	ltpFR2	9	9	LEOPARD	812	n/a	n/a	0	0	0
1789011	WORD	wordpools/wasnorm_wordpool_576.txt	LTP325	ltpFR2	9	9	PAPER	1011	n/a	n/a	0	0	0
1791810	WORD	wordpools/wasnorm_wordpool_576.txt	LTP325	ltpFR2	9	9	SEAGULL	1261	n/a	n/a	0	0	0
1794227	WORD	wordpools/wasnorm_wordpool_576.txt	LTP325	ltpFR2	9	9	CUSTARD	429	n/a	n/a	0	0	0
1796914	WORD	wordpools/wasnorm_wordpool_576.txt	LTP325	ltpFR2	9	9	SEAFOOD	1260	n/a	n/a	0	0	0
1799583	WORD	wordpools/wasnorm_wordpool_576.txt	LTP325	ltpFR2	9	9	SCALLOP	1242	n/a	n/a	0	0	0
1802301	WORD	wordpools/wasnorm_wordpool_576.txt	LTP325	ltpFR2	9	9	BARLEY	88	n/a	n/a	0	0	0
1804855	WORD	wordpools/wasnorm_wordpool_576.txt	LTP325	ltpFR2	9	9	FIREMAN	569	n/a	n/a	0	0	0
1807458	WORD	wordpools/wasnorm_wordpool_576.txt	LTP325	ltpFR2	9	9	PRINCESS	1125	n/a	n/a	0	0	0
1810062	WORD	wordpools/wasnorm_wordpool_576.txt	LTP325	ltpFR2	9	9	WHISKERS	1605	n/a	n/a	0	0	0
1812611	WORD	wordpools/wasnorm_wordpool_576.txt	LTP325	ltpFR2	9	9	FRUIT	610	n/a	n/a	0	0	0
1815397	WORD	wordpools/wasnorm_wordpool_576.txt	LTP325	ltpFR2	9	9	FRIAR	605	n/a	n/a	0	0	0
1817833	WORD	wordpools/wasnorm_wordpool_576.txt	LTP325	ltpFR2	9	9	TEMPLE	1448	n/a	n/a	0	0	0
1820267	WORD	wordpools/wasnorm_wordpool_576.txt	LTP325	ltpFR2	9	9	DRINK	498	n/a	n/a	0	0	0
1823039	WORD	wordpools/wasnorm_wordpool_576.txt	LTP325	ltpFR2	9	9	BISON	131	n/a	n/a	0	0	0
1825505	WORD	wordpools/wasnorm_wordpool_576.txt	LTP325	ltpFR2	9	9	TAXI	1438	n/a	n/a	0	0	0
1828290	WORD	wordpools/wasnorm_wordpool_576.txt	LTP325	ltpFR2	9	9	BRANDY	169	n/a	n/a	0	0	0
1830911	WORD	wordpools/wasnorm_wordpool_576.txt	LTP325	ltpFR2	9	9	AWARD	63	n/a	n/a	0	0	0
1833663	WORD	wordpools/wasnorm_wordpool_576.txt	LTP325	ltpFR2	9	9	SUNSET	1408	n/a	n/a	0	0	0
1836115	WORD	wordpools/wasnorm_wordpool_576.txt	LTP325	ltpFR2	9	9	PILOT	1070	n/a	n/a	0	0	0
1837734	START	n/a	LTP325	ltpFR2	9	n/a	n/a	n/a	13	n/a	n/a	n/a	n/a
1838747	DISTRACTOR	n/a	LTP325	ltpFR2	9	9	n/a	n/a	n/a	n/a	0	0	0
1838751	PROB	n/a	LTP325	ltpFR2	9	n/a	n/a	n/a	13	18	7	9	2
1841036	PROB	n/a	LTP325	ltpFR2	9	n/a	n/a	n/a	13	16	2	8	6
1842370	PROB	n/a	LTP325	ltpFR2	9	n/a	n/a	n/a	13	10	3	5	2
1845188	PROB	n/a	LTP325	ltpFR2	9	n/a	n/a	n/a	13	20	5	7	8
1848709	PROB	n/a	LTP325	ltpFR2	9	n/a	n/a	n/a	13	9	3	3	3
1850294	PROB	n/a	LTP325	ltpFR2	9	n/a	n/a	n/a	13	18	6	6	6
1854715	PROB	n/a	LTP325	ltpFR2	9	n/a	n/a	n/a	13	8	2	1	5
1857198	PROB	n/a	LTP325	ltpFR2	9	n/a	n/a	n/a	13	8	5	1	2
1861734	STOP	n/a	LTP325	ltpFR2	9	n/a	n/a	n/a	13	n/a	n/a	n/a	n/a
1863673	REC_START	n/a	LTP325	ltpFR2	9	9	n/a	n/a	n/a	n/a	0	0	0
1865047	REC_WORD	wordpools/wasnorm_wordpool_576.txt	LTP325	ltpFR2	9	9	TEMPLE	1448	n/a	n/a	0	0	0
1866470	REC_WORD	wordpools/wasnorm_wordpool_576.txt	LTP325	ltpFR2	9	9	FRIAR	605	n/a	n/a	0	0	0
1871912	REC_WORD	wordpools/wasnorm_wordpool_576.txt	LTP325	ltpFR2	9	9	TAXI	1438	n/a	n/a	0	0	0
1873244	REC_WORD	wordpools/wasnorm_wordpool_576.txt	LTP325	ltpFR2	9	9	BRANDY	169	n/a	n/a	0	0	0
1879422	REC_WORD	wordpools/wasnorm_wordpool_576.txt	LTP325	ltpFR2	9	9	GOBLIN	645	n/a	n/a	0	0	0
1880898	REC_WORD	wordpools/wasnorm_wordpool_576.txt	LTP325	ltpFR2	9	9	COSTUME	383	n/a	n/a	0	0	0
1882823	REC_WORD	wordpools/wasnorm_wordpool_576.txt	LTP325	ltpFR2	9	9	FIREPLACE	570	n/a	n/a	0	0	0
1883823	REC_WORD_VV	wordpools/wasnorm_wordpool_576.txt	LTP325	ltpFR2	9	9	<>	-1	n/a	n/a	0	0	0
1884695	REC_WORD	wordpools/wasnorm_wordpool_576.txt	LTP325	ltpFR2	9	9	LEOPARD	812	n/a	n/a	0	0	0
1891848	REC_WORD	wordpools/wasnorm_wordpool_576.txt	LTP325	ltpFR2	9	9	BISON	131	n/a	n/a	0	0	0
1901363	REC_WORD	wordpools/wasnorm_wordpool_576.txt	LTP325	ltpFR2	9	9	PRINCESS	1125	n/a	n/a	0	0	0
1902903	REC_WORD	wordpools/wasnorm_wordpool_576.txt	LTP325	ltpFR2	9	9	FRUIT	610	n/a	n/a	0	0	0
1910174	REC_WORD	wordpools/wasnorm_wordpool_576.txt	LTP325	ltpFR2	9	9	SCALLOP	1242	n/a	n/a	0	0	0
1954101	DISTRACTOR	n/a	LTP325	ltpFR2	9	10	n/a	n/a	n/a	n/a	0	0	0
1954101	START	n/a	LTP325	ltpFR2	9	n/a	n/a	n/a	14	n/a	n/a	n/a	n/a
1954118	PROB	n/a	LTP325	ltpFR2	9	n/a	n/a	n/a	14	13	4	4	5
1956746	PROB	n/a	LTP325	ltpFR2	9	n/a	n/a	n/a	14	13	3	5	5
1957996	PROB	n/a	LTP325	ltpFR2	9	n/a	n/a	n/a	14	18	3	7	8
1959498	PROB	n/a	LTP325	ltpFR2	9	n/a	n/a	n/a	14	14	1	8	5
1961415	PROB	n/a	LTP325	ltpFR2	9	n/a	n/a	n/a	14	25	9	9	7
1964969	PROB	n/a	LTP325	ltpFR2	9	n/a	n/a	n/a	14	6	2	2	2
1966770	PROB	n/a	LTP325	ltpFR2	9	n/a	n/a	n/a	14	15	8	1	6
1969305	PROB	n/a	LTP325	ltpFR2	9	n/a	n/a	n/a	14	11	1	3	7
1970505	PROB	n/a	LTP325	ltpFR2	9	n/a	n/a	n/a	14	19	6	5	8
1972256	PROB	n/a	LTP325	ltpFR2	9	n/a	n/a	n/a	14	10	5	2	3
1974592	PROB	n/a	LTP325	ltpFR2	9	n/a	n/a	n/a	14	18	9	7	2
1976826	STOP	n/a	LTP325	ltpFR2	9	n/a	n/a	n/a	14	n/a	n/a	n/a	n/a
1979188	WORD	wordpools/wasnorm_wordpool_576.txt	LTP325	ltpFR2	9	10	ROOSTER	1209	n/a	n/a	0	0	0
1981809	WORD	wordpools/wasnorm_wordpool_576.txt	LTP325	ltpFR2	9	10	BEAKER	104	n/a	n/a	0	0	0
1984577	WORD	wordpools/wasnorm_wordpool_576.txt	LTP325	ltpFR2	9	10	ORCHID	982	n/a	n/a	0	0	0
1987087	WORD	wordpools/wasnorm_wordpool_576.txt	LTP325	ltpFR2	9	10	BOX	159	n/a	n/a	0	0	0
1989673	WORD	wordpools/wasnorm_wordpool_576.txt	LTP325	ltpFR2	9	10	SCISSORS	1250	n/a	n/a	0	0	0
1992150	WORD	wordpools/wasnorm_wordpool_576.txt	LTP325	ltpFR2	9	10	TWEEZERS	1526	n/a	n/a	0	0	0
1994704	WORD	wordpools/wasnorm_wordpool_576.txt	LTP325	ltpFR2	9	10	BLENDER	136	n/a	n/a	0	0	0
1997478	WORD	wordpools/wasnorm_wordpool_576.txt	LTP325	ltpFR2	9	10	QUAIL	1147	n/a	n/a	0	0	0
2000047	WORD	wordpools/wasnorm_wordpool_576.txt	LTP325	ltpFR2	9	10	BLOCKADE	137	n/a	n/a	0	0	0
2002610	WORD	wordpools/wasnorm_wordpool_576.txt	LTP325	ltpFR2	9	10	CHILD	299	n/a	n/a	0	0	0
2005229	WORD	wordpools/wasnorm_wordpool_576.txt	LTP325	ltpFR2	9	10	CLAMP	316	n/a	n/a	0	0	0
2007949	WORD	wordpools/wasnorm_wordpool_576.txt	LTP325	ltpFR2	9	10	GREASE	660	n/a	n/a	0	0	0
2010700	WORD	wordpools/wasnorm_wordpool_576.txt	LTP325	ltpFR2	9	10	SWIMMER	1420	n/a	n/a	0	0	0
2013402	WORD	wordpools/wasnorm_wordpool_576.txt	LTP325	ltpFR2	9	10	GIFT	635	n/a	n/a	0	0	0
2015989	WORD	wordpools/wasnorm_wordpool_576.txt	LTP325	ltpFR2	9	10	SHRUB	1299	n/a	n/a	0	0	0
2018540	WORD	wordpools/wasnorm_wordpool_576.txt	LTP325	ltpFR2	9	10	HEDGE	699	n/a	n/a	0	0	0
2021175	WORD	wordpools/wasnorm_wordpool_576.txt	LTP325	ltpFR2	9	10	LIZARD	834	n/a	n/a	0	0	0
2023612	WORD	wordpools/wasnorm_wordpool_576.txt	LTP325	ltpFR2	9	10	BACKBONE	66	n/a	n/a	0	0	0
2026296	WORD	wordpools/wasnorm_wordpool_576.txt	LTP325	ltpFR2	9	10	VICTIM	1562	n/a	n/a	0	0	0
2028783	WORD	wordpools/wasnorm_wordpool_576.txt	LTP325	ltpFR2	9	10	HAWK	692	n/a	n/a	0	0	0
2031205	WORD	wordpools/wasnorm_wordpool_576.txt	LTP325	ltpFR2	9	10	DONKEY	484	n/a	n/a	0	0	0
2033670	WORD	wordpools/wasnorm_wordpool_576.txt	LTP325	ltpFR2	9	10	RIVER	1194	n/a	n/a	0	0	0
2036309	WORD	wordpools/wasnorm_wordpool_576.txt	LTP325	ltpFR2	9	10	CUPBOARD	425	n/a	n/a	0	0	0
2038909	WORD	wordpools/wasnorm_wordpool_576.txt	LTP325	ltpFR2	9	10	DINER	467	n/a	n/a	0	0	0
2040527	START	n/a	LTP325	ltpFR2	9	n/a	n/a	n/a	15	n/a	n/a	n/a	n/a
2041647	DISTRACTOR	n/a	LTP325	ltpFR2	9	10	n/a	n/a	n/a	n/a	0	0	0
2041661	PROB	n/a	LTP325	ltpFR2	9	n/a	n/a	n/a	15	6	3	1	2
2043560	PROB	n/a	LTP325	ltpFR2	9	n/a	n/a	n/a	15	13	1	9	3
2044930	PROB	n/a	LTP325	ltpFR2	9	n/a	n/a	n/a	15	20	5	7	8
2048314	PROB	n/a	LTP325	ltpFR2	9	n/a	n/a	n/a	15	19	4	9	6
2050300	PROB	n/a	LTP325	ltpFR2	9	n/a	n/a	n/a	15	8	1	4	3
2052168	PROB	n/a	LTP325	ltpFR2	9	n/a	n/a	n/a	15	17	6	5	6
2054219	PROB	n/a	LTP325	ltpFR2	9	n/a	n/a	n/a	15	2	7	6	8
2056942	PROB	n/a	LTP325	ltpFR2	9	n/a	n/a	n/a	15	18	6	6	6
2060160	PROB	n/a	LTP325	ltpFR2	9	n/a	n/a	n/a	15	16	4	6	6
2061460	PROB	n/a	LTP325	ltpFR2	9	n/a	n/a	n/a	15	9	2	5	2
2063468	STOP	n/a	LTP325	ltpFR2	9	n/a	n/a	n/a	15	n/a	n/a	n/a	n/a
2066468	REC_START	n/a	LTP325	ltpFR2	9	10	n/a	n/a	n/a	n/a	0	0	0
2067436	REC_WORD	wordpools/wasnorm_wordpool_576.txt	LTP325	ltpFR2	9	10	CUPBOARD	425	n/a	n/a	0	0	0
2069360	REC_WORD	wordpools/wasnorm_wordpool_576.txt	LTP325	ltpFR2	9	10	DINER	467	n/a	n/a	0	0	0
2071436	REC_WORD	wordpools/wasnorm_wordpool_576.txt	LTP325	ltpFR2	9	10	VICTIM	1562	n/a	n/a	0	0	0
2072464	REC_WORD	wordpools/wasnorm_wordpool_576.txt	LTP325	ltpFR2	9	10	HAWK	692	n/a	n/a	0	0	0
2074000	REC_WORD	wordpools/wasnorm_wordpool_576.txt	LTP325	ltpFR2	9	10	DONKEY	484	n/a	n/a	0	0	0
2075268	REC_WORD	wordpools/wasnorm_wordpool_576.txt	LTP325	ltpFR2	9	10	RIVER	1194	n/a	n/a	0	0	0
2115446	REC_WORD	wordpools/wasnorm_wordpool_576.txt	LTP325	ltpFR2	9	10	SHRUB	1299	n/a	n/a	0	0	0
2116667	REC_WORD	wordpools/wasnorm_wordpool_576.txt	LTP325	ltpFR2	9	10	HEDGE	699	n/a	n/a	0	0	0
2118533	REC_WORD	wordpools/wasnorm_wordpool_576.txt	LTP325	ltpFR2	9	10	LIZARD	834	n/a	n/a	0	0	0
2119636	REC_WORD	wordpools/wasnorm_wordpool_576.txt	LTP325	ltpFR2	9	10	BACKBONE	66	n/a	n/a	0	0	0
2121641	REC_WORD	wordpools/wasnorm_wordpool_576.txt	LTP325	ltpFR2	9	10	SCISSORS	1250	n/a	n/a	0	0	0
2123027	REC_WORD	wordpools/wasnorm_wordpool_576.txt	LTP325	ltpFR2	9	10	TWEEZERS	1526	n/a	n/a	0	0	0
2124561	REC_WORD	wordpools/wasnorm_wordpool_576.txt	LTP325	ltpFR2	9	10	BLENDER	136	n/a	n/a	0	0	0
2127198	REC_WORD	wordpools/wasnorm_wordpool_576.txt	LTP325	ltpFR2	9	10	ROOSTER	1209	n/a	n/a	0	0	0
2128651	REC_WORD	wordpools/wasnorm_wordpool_576.txt	LTP325	ltpFR2	9	10	BEAKER	104	n/a	n/a	0	0	0
2130106	REC_WORD	wordpools/wasnorm_wordpool_576.txt	LTP325	ltpFR2	9	10	ORCHID	982	n/a	n/a	0	0	0
2132500	REC_WORD	wordpools/wasnorm_wordpool_576.txt	LTP325	ltpFR2	9	10	BOX	159	n/a	n/a	0	0	0
2156906	WORD	wordpools/wasnorm_wordpool_576.txt	LTP325	ltpFR2	9	11	PACKAGE	997	n/a	n/a	0	0	0
2159496	WORD	wordpools/wasnorm_wordpool_576.txt	LTP325	ltpFR2	9	11	JURY	766	n/a	n/a	0	0	0
2162249	WORD	wordpools/wasnorm_wordpool_576.txt	LTP325	ltpFR2	9	11	DUST	508	n/a	n/a	0	0	0
2165052	WORD	wordpools/wasnorm_wordpool_576.txt	LTP325	ltpFR2	9	11	CHIPMUNK	304	n/a	n/a	0	0	0
2167837	WORD	wordpools/wasnorm_wordpool_576.txt	LTP325	ltpFR2	9	11	GAVEL	627	n/a	n/a	0	0	0
2170466	WORD	wordpools/wasnorm_wordpool_576.txt	LTP325	ltpFR2	9	11	JUDGE	761	n/a	n/a	0	0	0
2173207	WORD	wordpools/wasnorm_wordpool_576.txt	LTP325	ltpFR2	9	11	WITNESS	1618	n/a	n/a	0	0	0
2175872	WORD	wordpools/wasnorm_wordpool_576.txt	LTP325	ltpFR2	9	11	ANKLE	24	n/a	n/a	0	0	0
2178579	WORD	wordpools/wasnorm_wordpool_576.txt	LTP325	ltpFR2	9	11	FARMER	553	n/a	n/a	0	0	0
2181208	WORD	wordpools/wasnorm_wordpool_576.txt	LTP325	ltpFR2	9	11	PUDDING	1139	n/a	n/a	0	0	0
2183794	WORD	wordpools/wasnorm_wordpool_576.txt	LTP325	ltpFR2	9	11	HOUND	724	n/a	n/a	0	0	0
2186579	WORD	wordpools/wasnorm_wordpool_576.txt	LTP325	ltpFR2	9	11	PARROT	1015	n/a	n/a	0	0	0
2189132	WORD	wordpools/wasnorm_wordpool_576.txt	LTP325	ltpFR2	9	11	GLASS	639	n/a	n/a	0	0	0
2191935	WORD	wordpools/wasnorm_wordpool_576.txt	LTP325	ltpFR2	9	11	MAILBOX	857	n/a	n/a	0	0	0
2194369	WORD	wordpools/wasnorm_wordpool_576.txt	LTP325	ltpFR2	9	11	SEAL	1262	n/a	n/a	0	0	0
2196905	WORD	wordpools/wasnorm_wordpool_576.txt	LTP325	ltpFR2	9	11	EAGLE	512	n/a	n/a	0	0	0
2199530	WORD	wordpools/wasnorm_wordpool_576.txt	LTP325	ltpFR2	9	11	LABEL	790	n/a	n/a	0	0	0
2202183	WORD	wordpools/wasnorm_wordpool_576.txt	LTP325	ltpFR2	9	11	MONEY	908	n/a	n/a	0	0	0
2204886	WORD	wordpools/wasnorm_wordpool_576.txt	LTP325	ltpFR2	9	11	VALLEY	1545	n/a	n/a	0	0	0
2207362	WORD	wordpools/wasnorm_wordpool_576.txt	LTP325	ltpFR2	9	11	LODGE	839	n/a	n/a	0	0	0
2209999	WORD	wordpools/wasnorm_wordpool_576.txt	LTP325	ltpFR2	9	11	COLLEGE	346	n/a	n/a	0	0	0
2212458	WORD	wordpools/wasnorm_wordpool_576.txt	LTP325	ltpFR2	9	11	MILDEW	893	n/a	n/a	0	0	0
2215036	WORD	wordpools/wasnorm_wordpool_576.txt	LTP325	ltpFR2	9	11	JUNGLE	764	n/a	n/a	0	0	0
2217838	WORD	wordpools/wasnorm_wordpool_576.txt	LTP325	ltpFR2	9	11	TROUT	1511	n/a	n/a	0	0	0
2219449	START	n/a	LTP325	ltpFR2	9	n/a	n/a	n/a	16	n/a	n/a	n/a	n/a
2220354	DISTRACTOR	n/a	LTP325	ltpFR2	9	11	n/a	n/a	n/a	n/a	0	0	0
2220365	PROB	n/a	LTP325	ltpFR2	9	n/a	n/a	n/a	16	18	9	1	8
2222042	PROB	n/a	LTP325	ltpFR2	9	n/a	n/a	n/a	16	16	2	9	5
2224409	PROB	n/a	LTP325	ltpFR2	9	n/a	n/a	n/a	16	17	3	9	5
2226494	PROB	n/a	LTP325	ltpFR2	9	n/a	n/a	n/a	16	15	7	2	6
2228395	PROB	n/a	LTP325	ltpFR2	9	n/a	n/a	n/a	16	18	9	7	2
2230398	PROB	n/a	LTP325	ltpFR2	9	n/a	n/a	n/a	16	13	7	5	1
2232349	PROB	n/a	LTP325	ltpFR2	9	n/a	n/a	n/a	16	19	9	1	9
2233936	PROB	n/a	LTP325	ltpFR2	9	n/a	n/a	n/a	16	15	6	1	8
2236537	PROB	n/a	LTP325	ltpFR2	9	n/a	n/a	n/a	16	16	9	3	4
2238472	PROB	n/a	LTP325	ltpFR2	9	n/a	n/a	n/a	16	17	2	7	8
2240706	PROB	n/a	LTP325	ltpFR2	9	n/a	n/a	n/a	16	19	8	2	9
2242283	STOP	n/a	LTP325	ltpFR2	9	n/a	n/a	n/a	16	n/a	n/a	n/a	n/a
2245326	REC_START	n/a	LTP325	ltpFR2	9	11	n/a	n/a	n/a	n/a	0	0	0
2246491	REC_WORD	wordpools/wasnorm_wordpool_576.txt	LTP325	ltpFR2	9	11	MILDEW	893	n/a	n/a	0	0	0
2260274	REC_WORD	wordpools/wasnorm_wordpool_576.txt	LTP325	ltpFR2	9	11	FARMER	553	n/a	n/a	0	0	0
2263388	REC_WORD	wordpools/wasnorm_wordpool_576.txt	LTP325	ltpFR2	9	11	HOUND	724	n/a	n/a	0	0	0
2264837	REC_WORD	wordpools/wasnorm_wordpool_576.txt	LTP325	ltpFR2	9	11	PARROT	1015	n/a	n/a	0	0	0
2270961	REC_WORD	wordpools/wasnorm_wordpool_576.txt	LTP325	ltpFR2	9	11	JURY	766	n/a	n/a	0	0	0
2273539	REC_WORD	wordpools/wasnorm_wordpool_576.txt	LTP325	ltpFR2	9	11	BOX	159	n/a	n/a	0	0	0
2274953	REC_WORD	wordpools/wasnorm_wordpool_576.txt	LTP325	ltpFR2	9	11	DUST	508	n/a	n/a	0	0	0
2277329	REC_WORD	wordpools/wasnorm_wordpool_576.txt	LTP325	ltpFR2	9	11	WITNESS	1618	n/a	n/a	0	0	0
2279341	REC_WORD	wordpools/wasnorm_wordpool_576.txt	LTP325	ltpFR2	9	11	JUDGE	761	n/a	n/a	0	0	0
2280607	REC_WORD	wordpools/wasnorm_wordpool_576.txt	LTP325	ltpFR2	9	11	CHIPMUNK	304	n/a	n/a	0	0	0
2282019	REC_WORD	wordpools/wasnorm_wordpool_576.txt	LTP325	ltpFR2	9	11	GAVEL	627	n/a	n/a	0	0	0
2335784	DISTRACTOR	n/a	LTP325	ltpFR2	9	12	n/a	n/a	n/a	n/a	0	0	0
2335784	START	n/a	LTP325	ltpFR2	9	n/a	n/a	n/a	17	n/a	n/a	n/a	n/a
2335801	PROB	n/a	LTP325	ltpFR2	9	n/a	n/a	n/a	17	21	8	7	6
2339318	PROB	n/a	LTP325	ltpFR2	9	n/a	n/a	n/a	17	14	4	5	5
2340603	PROB	n/a	LTP325	ltpFR2	9	n/a	n/a	n/a	17	20	7	4	9
2344255	PROB	n/a	LTP325	ltpFR2	9	n/a	n/a	n/a	17	15	4	6	5
2345724	PROB	n/a	LTP325	ltpFR2	9	n/a	n/a	n/a	17	21	7	5	9
2348976	PROB	n/a	LTP325	ltpFR2	9	n/a	n/a	n/a	17	10	5	3	2
2351828	PROB	n/a	LTP325	ltpFR2	9	n/a	n/a	n/a	17	17	7	6	4
2353346	PROB	n/a	LTP325	ltpFR2	9	n/a	n/a	n/a	17	13	3	5	5
2354831	PROB	n/a	LTP325	ltpFR2	9	n/a	n/a	n/a	17	16	4	6	6
2356214	PROB	n/a	LTP325	ltpFR2	9	n/a	n/a	n/a	17	12	2	1	9
2359784	STOP	n/a	LTP325	ltpFR2	9	n/a	n/a	n/a	17	n/a	n/a	n/a	n/a
2360871	WORD	wordpools/wasnorm_wordpool_576.txt	LTP325	ltpFR2	9	12	CRIB	407	n/a	n/a	0	0	0
2363405	WORD	wordpools/wasnorm_wordpool_576.txt	LTP325	ltpFR2	9	12	BUGGY	188	n/a	n/a	0	0	0
2366008	WORD	wordpools/wasnorm_wordpool_576.txt	LTP325	ltpFR2	9	12	STAR	1373	n/a	n/a	0	0	0
2368796	WORD	wordpools/wasnorm_wordpool_576.txt	LTP325	ltpFR2	9	12	SUNRISE	1407	n/a	n/a	0	0	0
2371411	WORD	wordpools/wasnorm_wordpool_576.txt	LTP325	ltpFR2	9	12	BRACES	164	n/a	n/a	0	0	0
2373981	WORD	wordpools/wasnorm_wordpool_576.txt	LTP325	ltpFR2	9	12	MARROW	872	n/a	n/a	0	0	0
2376532	WORD	wordpools/wasnorm_wordpool_576.txt	LTP325	ltpFR2	9	12	DIME	466	n/a	n/a	0	0	0
2379284	WORD	wordpools/wasnorm_wordpool_576.txt	LTP325	ltpFR2	9	12	UMPIRE	1535	n/a	n/a	0	0	0
2381837	WORD	wordpools/wasnorm_wordpool_576.txt	LTP325	ltpFR2	9	12	CATCHER	258	n/a	n/a	0	0	0
2384622	WORD	wordpools/wasnorm_wordpool_576.txt	LTP325	ltpFR2	9	12	BLUEPRINT	142	n/a	n/a	0	0	0
2387390	WORD	wordpools/wasnorm_wordpool_576.txt	LTP325	ltpFR2	9	12	TUTU	1524	n/a	n/a	0	0	0
2390077	WORD	wordpools/wasnorm_wordpool_576.txt	LTP325	ltpFR2	9	12	TEACHER	1440	n/a	n/a	0	0	0
2392662	WORD	wordpools/wasnorm_wordpool_576.txt	LTP325	ltpFR2	9	12	SHARK	1275	n/a	n/a	0	0	0
2395463	WORD	wordpools/wasnorm_wordpool_576.txt	LTP325	ltpFR2	9	12	HOOD	714	n/a	n/a	0	0	0
2398199	WORD	wordpools/wasnorm_wordpool_576.txt	LTP325	ltpFR2	9	12	HELMET	702	n/a	n/a	0	0	0
2400724	WORD	wordpools/wasnorm_wordpool_576.txt	LTP325	ltpFR2	9	12	MARSH	874	n/a	n/a	0	0	0
2403353	WORD	wordpools/wasnorm_wordpool_576.txt	LTP325	ltpFR2	9	12	IDOL	733	n/a	n/a	0	0	0
2405973	WORD	wordpools/wasnorm_wordpool_576.txt	LTP325	ltpFR2	9	12	HIKER	708	n/a	n/a	0	0	0
2408663	WORD	wordpools/wasnorm_wordpool_576.txt	LTP325	ltpFR2	9	12	TWIG	1527	n/a	n/a	0	0	0
2411176	WORD	wordpools/wasnorm_wordpool_576.txt	LTP325	ltpFR2	9	12	RABBIT	1152	n/a	n/a	0	0	0
2413713	WORD	wordpools/wasnorm_wordpool_576.txt	LTP325	ltpFR2	9	12	TURTLE	1522	n/a	n/a	0	0	0
2416264	WORD	wordpools/wasnorm_wordpool_576.txt	LTP325	ltpFR2	9	12	HIGHWAY	707	n/a	n/a	0	0	0
2418850	WORD	wordpools/wasnorm_wordpool_576.txt	LTP325	ltpFR2	9	12	EGYPT	519	n/a	n/a	0	0	0
2421391	WORD	wordpools/wasnorm_wordpool_576.txt	LTP325	ltpFR2	9	12	FOREST	593	n/a	n/a	0	0	0
2423004	START	n/a	LTP325	ltpFR2	9	n/a	n/a	n/a	18	n/a	n/a	n/a	n/a
2423932	DISTRACTOR	n/a	LTP325	ltpFR2	9	12	n/a	n/a	n/a	n/a	0	0	0
2423938	PROB	n/a	LTP325	ltpFR2	9	n/a	n/a	n/a	18	19	9	4	6
2427422	PROB	n/a	LTP325	ltpFR2	9	n/a	n/a	n/a	18	18	4	6	8
2429223	PROB	n/a	LTP325	ltpFR2	9	n/a	n/a	n/a	18	18	5	4	9
2431026	PROB	n/a	LTP325	ltpFR2	9	n/a	n/a	n/a	18	15	6	4	5
2432276	PROB	n/a	LTP325	ltpFR2	9	n/a	n/a	n/a	18	14	8	2	4
2433661	PROB	n/a	LTP325	ltpFR2	9	n/a	n/a	n/a	18	14	4	3	7
2434946	PROB	n/a	LTP325	ltpFR2	9	n/a	n/a	n/a	18	19	6	8	5
2437664	PROB	n/a	LTP325	ltpFR2	9	n/a	n/a	n/a	18	11	1	9	1
2439066	PROB	n/a	LTP325	ltpFR2	9	n/a	n/a	n/a	18	19	9	9	1
2440633	PROB	n/a	LTP325	ltpFR2	9	n/a	n/a	n/a	18	12	5	6	1
2442184	PROB	n/a	LTP325	ltpFR2	9	n/a	n/a	n/a	18	17	3	7	7
2443686	PROB	n/a	LTP325	ltpFR2	9	n/a	n/a	n/a	18	9	1	5	3
2447004	STOP	n/a	LTP325	ltpFR2	9	n/a	n/a	n/a	18	n/a	n/a	n/a	n/a
2448841	REC_START	n/a	LTP325	ltpFR2	9	12	n/a	n/a	n/a	n/a	0	0	0
2450074	REC_WORD	wordpools/wasnorm_wordpool_576.txt	LTP325	ltpFR2	9	12	HIGHWAY	707	n/a	n/a	0	0	0
2452130	REC_WORD	wordpools/wasnorm_wordpool_576.txt	LTP325	ltpFR2	9	12	RABBIT	1152	n/a	n/a	0	0	0
2453850	REC_WORD	wordpools/wasnorm_wordpool_576.txt	LTP325	ltpFR2	9	12	TWIG	1527	n/a	n/a	0	0	0
2516223	REC_WORD	wordpools/wasnorm_wordpool_576.txt	LTP325	ltpFR2	9	12	BRACES	164	n/a	n/a	0	0	0
2539309	WORD	wordpools/wasnorm_wordpool_576.txt	LTP325	ltpFR2	9	13	CYCLONE	431	n/a	n/a	0	0	0
2541796	WORD	wordpools/wasnorm_wordpool_576.txt	LTP325	ltpFR2	9	13	DRUG	501	n/a	n/a	0	0	0
2544281	WORD	wordpools/wasnorm_wordpool_576.txt	LTP325	ltpFR2	9	13	TUNNEL	1519	n/a	n/a	0	0	0
2546802	WORD	wordpools/wasnorm_wordpool_576.txt	LTP325	ltpFR2	9	13	OYSTER	995	n/a	n/a	0	0	0
2549453	WORD	wordpools/wasnorm_wordpool_576.txt	LTP325	ltpFR2	9	13	ICING	732	n/a	n/a	0	0	0
2551972	WORD	wordpools/wasnorm_wordpool_576.txt	LTP325	ltpFR2	9	13	INFANT	737	n/a	n/a	0	0	0
2554473	WORD	wordpools/wasnorm_wordpool_576.txt	LTP325	ltpFR2	9	13	POWDER	1117	n/a	n/a	0	0	0
2556911	WORD	wordpools/wasnorm_wordpool_576.txt	LTP325	ltpFR2	9	13	BADGE	68	n/a	n/a	0	0	0
2559378	WORD	wordpools/wasnorm_wordpool_576.txt	LTP325	ltpFR2	9	13	TWISTER	1530	n/a	n/a	0	0	0
2561930	WORD	wordpools/wasnorm_wordpool_576.txt	LTP325	ltpFR2	9	13	ATOM	55	n/a	n/a	0	0	0
2564449	WORD	wordpools/wasnorm_wordpool_576.txt	LTP325	ltpFR2	9	13	PIGEON	1065	n/a	n/a	0	0	0
2567101	WORD	wordpools/wasnorm_wordpool_576.txt	LTP325	ltpFR2	9	13	CREVICE	405	n/a	n/a	0	0	0
2569788	WORD	wordpools/wasnorm_wordpool_576.txt	LTP325	ltpFR2	9	13	COUSIN	392	n/a	n/a	0	0	0
2572422	WORD	wordpools/wasnorm_wordpool_576.txt	LTP325	ltpFR2	9	13	WIFE	1609	n/a	n/a	0	0	0
2575258	WORD	wordpools/wasnorm_wordpool_576.txt	LTP325	ltpFR2	9	13	EUROPE	541	n/a	n/a	0	0	0
2578045	WORD	wordpools/wasnorm_wordpool_576.txt	LTP325	ltpFR2	9	13	FRANCE	601	n/a	n/a	0	0	0
2580763	WORD	wordpools/wasnorm_wordpool_576.txt	LTP325	ltpFR2	9	13	SLIME	1327	n/a	n/a	0	0	0
2583414	WORD	wordpools/wasnorm_wordpool_576.txt	LTP325	ltpFR2	9	13	TREAT	1501	n/a	n/a	0	0	0
2586034	WORD	wordpools/wasnorm_wordpool_576.txt	LTP325	ltpFR2	9	13	SHORTCAKE	1292	n/a	n/a	0	0	0
2588653	WORD	wordpools/wasnorm_wordpool_576.txt	LTP325	ltpFR2	9	13	SHIRT	1287	n/a	n/a	0	0	0
2591438	WORD	wordpools/wasnorm_wordpool_576.txt	LTP325	ltpFR2	9	13	LETTUCE	814	n/a	n/a	0	0	0
2594041	WORD	wordpools/wasnorm_wordpool_576.txt	LTP325	ltpFR2	9	13	PARENT	1013	n/a	n/a	0	0	0
2596492	WORD	wordpools/wasnorm_wordpool_576.txt	LTP325	ltpFR2	9	13	PARTNER	1017	n/a	n/a	0	0	0
2599210	WORD	wordpools/wasnorm_wordpool_576.txt	LTP325	ltpFR2	9	13	CLOTHES	327	n/a	n/a	0	0	0
2600815	START	n/a	LTP325	ltpFR2	9	n/a	n/a	n/a	19	n/a	n/a	n/a	n/a
2601653	DISTRACTOR	n/a	LTP325	ltpFR2	9	13	n/a	n/a	n/a	n/a	0	0	0
2601663	PROB	n/a	LTP325	ltpFR2	9	n/a	n/a	n/a	19	13	8	1	4
2603446	PROB	n/a	LTP325	ltpFR2	9	n/a	n/a	n/a	19	15	3	7	5
2604681	PROB	n/a	LTP325	ltpFR2	9	n/a	n/a	n/a	19	9	4	4	1
2606133	PROB	n/a	LTP325	ltpFR2	9	n/a	n/a	n/a	19	13	5	5	3
2607333	PROB	n/a	LTP325	ltpFR2	9	n/a	n/a	n/a	19	19	7	7	5
2609318	PROB	n/a	LTP325	ltpFR2	9	n/a	n/a	n/a	19	14	2	9	3
2611554	PROB	n/a	LTP325	ltpFR2	9	n/a	n/a	n/a	19	17	6	2	9
2613906	PROB	n/a	LTP325	ltpFR2	9	n/a	n/a	n/a	19	12	6	4	2
2615072	PROB	n/a	LTP325	ltpFR2	9	n/a	n/a	n/a	19	13	8	3	2
2616824	PROB	n/a	LTP325	ltpFR2	9	n/a	n/a	n/a	19	23	9	5	9
2620930	PROB	n/a	LTP325	ltpFR2	9	n/a	n/a	n/a	19	14	2	9	3
2624467	STOP	n/a	LTP325	ltpFR2	9	n/a	n/a	n/a	19	n/a	n/a	n/a	n/a
2626634	REC_START	n/a	LTP325	ltpFR2	9	13	n/a	n/a	n/a	n/a	0	0	0
2629173	REC_WORD	wordpools/wasnorm_wordpool_576.txt	LTP325	ltpFR2	9	13	INFANT	737	n/a	n/a	0	0	0
2630875	REC_WORD	wordpools/wasnorm_wordpool_576.txt	LTP325	ltpFR2	9	13	POWDER	1117	n/a	n/a	0	0	0
2632423	REC_WORD	wordpools/wasnorm_wordpool_576.txt	LTP325	ltpFR2	9	13	PARENT	1013	n/a	n/a	0	0	0
2634195	REC_WORD	wordpools/wasnorm_wordpool_576.txt	LTP325	ltpFR2	9	13	PARTNER	1017	n/a	n/a	0	0	0
2646738	REC_WORD	wordpools/wasnorm_wordpool_576.txt	LTP325	ltpFR2	9	13	LETTUCE	814	n/a	n/a	0	0	0
2648268	REC_WORD	wordpools/wasnorm_wordpool_576.txt	LTP325	ltpFR2	9	13	OYSTER	995	n/a	n/a	0	0	0
2649901	REC_WORD	wordpools/wasnorm_wordpool_576.txt	LTP325	ltpFR2	9	13	ICING	732	n/a	n/a	0	0	0
2651380	REC_WORD	wordpools/wasnorm_wordpool_576.txt	LTP325	ltpFR2	9	13	TREAT	1501	n/a	n/a	0	0	0
2652820	REC_WORD	wordpools/wasnorm_wordpool_576.txt	LTP325	ltpFR2	9	13	SHORTCAKE	1292	n/a	n/a	0	0	0
2663482	REC_WORD	wordpools/wasnorm_wordpool_576.txt	LTP325	ltpFR2	9	13	TUNNEL	1519	n/a	n/a	0	0	0
2664964	REC_WORD	wordpools/wasnorm_wordpool_576.txt	LTP325	ltpFR2	9	13	DRUG	501	n/a	n/a	0	0	0
2666286	REC_WORD	wordpools/wasnorm_wordpool_576.txt	LTP325	ltpFR2	9	13	CYCLONE	431	n/a	n/a	0	0	0
2667941	REC_WORD	wordpools/wasnorm_wordpool_576.txt	LTP325	ltpFR2	9	13	TWISTER	1530	n/a	n/a	0	0	0
2669812	REC_WORD	wordpools/wasnorm_wordpool_576.txt	LTP325	ltpFR2	9	13	PIGEON	1065	n/a	n/a	0	0	0
2671436	REC_WORD	wordpools/wasnorm_wordpool_576.txt	LTP325	ltpFR2	9	13	CREVICE	405	n/a	n/a	0	0	0
2684609	REC_WORD	wordpools/wasnorm_wordpool_576.txt	LTP325	ltpFR2	9	13	COUSIN	392	n/a	n/a	0	0	0
2717056	DISTRACTOR	n/a	LTP325	ltpFR2	9	14	n/a	n/a	n/a	n/a	0	0	0
2717057	START	n/a	LTP325	ltpFR2	9	n/a	n/a	n/a	20	n/a	n/a	n/a	n/a
2717071	PROB	n/a	LTP325	ltpFR2	9	n/a	n/a	n/a	20	15	5	7	3
2718723	PROB	n/a	LTP325	ltpFR2	9	n/a	n/a	n/a	20	14	3	7	4
2720340	PROB	n/a	LTP325	ltpFR2	9	n/a	n/a	n/a	20	18	5	4	9
2722993	PROB	n/a	LTP325	ltpFR2	9	n/a	n/a	n/a	20	11	8	1	2
2724210	PROB	n/a	LTP325	ltpFR2	9	n/a	n/a	n/a	20	9	6	2	1
2726129	PROB	n/a	LTP325	ltpFR2	9	n/a	n/a	n/a	20	13	7	4	2
2727897	PROB	n/a	LTP325	ltpFR2	9	n/a	n/a	n/a	20	12	1	4	7
2730031	PROB	n/a	LTP325	ltpFR2	9	n/a	n/a	n/a	20	16	9	6	1
2732050	PROB	n/a	LTP325	ltpFR2	9	n/a	n/a	n/a	20	13	9	1	3
2734602	PROB	n/a	LTP325	ltpFR2	9	n/a	n/a	n/a	20	10	7	2	1
2736036	PROB	n/a	LTP325	ltpFR2	9	n/a	n/a	n/a	20	19	6	7	6
2741056	STOP	n/a	LTP325	ltpFR2	9	n/a	n/a	n/a	20	n/a	n/a	n/a	n/a
2741893	WORD	wordpools/wasnorm_wordpool_576.txt	LTP325	ltpFR2	9	14	COCKTAIL	338	n/a	n/a	0	0	0
2744455	WORD	wordpools/wasnorm_wordpool_576.txt	LTP325	ltpFR2	9	14	BARREL	91	n/a	n/a	0	0	0
2746959	WORD	wordpools/wasnorm_wordpool_576.txt	LTP325	ltpFR2	9	14	SHERIFF	1284	n/a	n/a	0	0	0
2749577	WORD	wordpools/wasnorm_wordpool_576.txt	LTP325	ltpFR2	9	14	SNAIL	1332	n/a	n/a	0	0	0
2752034	WORD	wordpools/wasnorm_wordpool_576.txt	LTP325	ltpFR2	9	14	MONSTER	912	n/a	n/a	0	0	0
2754636	WORD	wordpools/wasnorm_wordpool_576.txt	LTP325	ltpFR2	9	14	SOFTBALL	1343	n/a	n/a	0	0	0
2757100	WORD	wordpools/wasnorm_wordpool_576.txt	LTP325	ltpFR2	9	14	GRAPE	654	n/a	n/a	0	0	0
2759589	WORD	wordpools/wasnorm_wordpool_576.txt	LTP325	ltpFR2	9	14	CITRUS	313	n/a	n/a	0	0	0
2762105	WORD	wordpools/wasnorm_wordpool_576.txt	LTP325	ltpFR2	9	14	COUCH	386	n/a	n/a	0	0	0
2764757	WORD	wordpools/wasnorm_wordpool_576.txt	LTP325	ltpFR2	9	14	SALAD	1224	n/a	n/a	0	0	0
2767358	WORD	wordpools/wasnorm_wordpool_576.txt	LTP325	ltpFR2	9	14	RADISH	1158	n/a	n/a	0	0	0
2769812	WORD	wordpools/wasnorm_wordpool_576.txt	LTP325	ltpFR2	9	14	SCOTCH	1251	n/a	n/a	0	0	0
2772480	WORD	wordpools/wasnorm_wordpool_576.txt	LTP325	ltpFR2	9	14	CLOUD	328	n/a	n/a	0	0	0
2775232	WORD	wordpools/wasnorm_wordpool_576.txt	LTP325	ltpFR2	9	14	CHAMPAGNE	278	n/a	n/a	0	0	0
2777935	WORD	wordpools/wasnorm_wordpool_576.txt	LTP325	ltpFR2	9	14	TABLE	1426	n/a	n/a	0	0	0
2780420	WORD	wordpools/wasnorm_wordpool_576.txt	LTP325	ltpFR2	9	14	KLEENEX	782	n/a	n/a	0	0	0
2783122	WORD	wordpools/wasnorm_wordpool_576.txt	LTP325	ltpFR2	9	14	KNIFE	785	n/a	n/a	0	0	0
2785709	WORD	wordpools/wasnorm_wordpool_576.txt	LTP325	ltpFR2	9	14	SCALPEL	1243	n/a	n/a	0	0	0
2788360	WORD	wordpools/wasnorm_wordpool_576.txt	LTP325	ltpFR2	9	14	SODA	1341	n/a	n/a	0	0	0
2791162	WORD	wordpools/wasnorm_wordpool_576.txt	LTP325	ltpFR2	9	14	TURNIP	1521	n/a	n/a	0	0	0
2793750	WORD	wordpools/wasnorm_wordpool_576.txt	LTP325	ltpFR2	9	14	OZONE	996	n/a	n/a	0	0	0
2796484	WORD	wordpools/wasnorm_wordpool_576.txt	LTP325	ltpFR2	9	14	AIRPORT	13	n/a	n/a	0	0	0
2799253	WORD	wordpools/wasnorm_wordpool_576.txt	LTP325	ltpFR2	9	14	JAPAN	749	n/a	n/a	0	0	0
2801739	WORD	wordpools/wasnorm_wordpool_576.txt	LTP325	ltpFR2	9	14	FLAG	573	n/a	n/a	0	0	0
2803358	START	n/a	LTP325	ltpFR2	9	n/a	n/a	n/a	21	n/a	n/a	n/a	n/a
2804258	DISTRACTOR	n/a	LTP325	ltpFR2	9	14	n/a	n/a	n/a	n/a	0	0	0
2804274	PROB	n/a	LTP325	ltpFR2	9	n/a	n/a	n/a	21	23	8	5	9
2808560	PROB	n/a	LTP325	ltpFR2	9	n/a	n/a	n/a	21	16	4	7	5
2811080	PROB	n/a	LTP325	ltpFR2	9	n/a	n/a	n/a	21	17	5	5	7
2812463	PROB	n/a	LTP325	ltpFR2	9	n/a	n/a	n/a	21	12	4	3	4
2817101	PROB	n/a	LTP325	ltpFR2	9	n/a	n/a	n/a	21	16	7	8	1
2818970	PROB	n/a	LTP325	ltpFR2	9	n/a	n/a	n/a	21	19	7	5	7
2820654	PROB	n/a	LTP325	ltpFR2	9	n/a	n/a	n/a	21	15	5	1	9
2822290	PROB	n/a	LTP325	ltpFR2	9	n/a	n/a	n/a	21	12	8	3	1
2824708	PROB	n/a	LTP325	ltpFR2	9	n/a	n/a	n/a	21	14	4	8	2
2826155	STOP	n/a	LTP325	ltpFR2	9	n/a	n/a	n/a	21	n/a	n/a	n/a	n/a
2829146	REC_START	n/a	LTP325	ltpFR2	9	14	n/a	n/a	n/a	n/a	0	0	0
2830877	REC_WORD	wordpools/wasnorm_wordpool_576.txt	LTP325	ltpFR2	9	14	AIRPORT	13	n/a	n/a	0	0	0
2832387	REC_WORD	wordpools/wasnorm_wordpool_576.txt	LTP325	ltpFR2	9	14	JAPAN	749	n/a	n/a	0	0	0
2833687	REC_WORD	wordpools/wasnorm_wordpool_576.txt	LTP325	ltpFR2	9	14	FLAG	573	n/a	n/a	0	0	0
2838818	REC_WORD	wordpools/wasnorm_wordpool_576.txt	LTP325	ltpFR2	9	14	KNIFE	785	n/a	n/a	0	0	0
2839988	REC_WORD	wordpools/wasnorm_wordpool_576.txt	LTP325	ltpFR2	9	14	SCALPEL	1243	n/a	n/a	0	0	0
2847221	REC_WORD	wordpools/wasnorm_wordpool_576.txt	LTP325	ltpFR2	9	14	SALAD	1224	n/a	n/a	0	0	0
2849698	REC_WORD	wordpools/wasnorm_wordpool_576.txt	LTP325	ltpFR2	9	14	GRAPE	654	n/a	n/a	0	0	0
2850591	REC_WORD	wordpools/wasnorm_wordpool_576.txt	LTP325	ltpFR2	9	14	CITRUS	313	n/a	n/a	0	0	0
2851591	REC_WORD_VV	wordpools/wasnorm_wordpool_576.txt	LTP325	ltpFR2	9	14	<>	-1	n/a	n/a	0	0	0
2852521	REC_WORD	wordpools/wasnorm_wordpool_576.txt	LTP325	ltpFR2	9	14	COUCH	386	n/a	n/a	0	0	0
2877831	REC_WORD	wordpools/wasnorm_wordpool_576.txt	LTP325	ltpFR2	9	14	OZONE	996	n/a	n/a	0	0	0
2891427	REC_WORD	wordpools/wasnorm_wordpool_576.txt	LTP325	ltpFR2	9	14	CLOUD	328	n/a	n/a	0	0	0
2919583	WORD	wordpools/wasnorm_wordpool_576.txt	LTP325	ltpFR2	9	15	KETCHUP	771	n/a	n/a	0	0	0
2922020	WORD	wordpools/wasnorm_wordpool_576.txt	LTP325	ltpFR2	9	15	FRIEND	606	n/a	n/a	0	0	0
2924764	WORD	wordpools/wasnorm_wordpool_576.txt	LTP325	ltpFR2	9	15	TOURIST	1488	n/a	n/a	0	0	0
2927574	WORD	wordpools/wasnorm_wordpool_576.txt	LTP325	ltpFR2	9	15	LONDON	843	n/a	n/a	0	0	0
2930109	WORD	wordpools/wasnorm_wordpool_576.txt	LTP325	ltpFR2	9	15	SMOG	1330	n/a	n/a	0	0	0
2932679	WORD	wordpools/wasnorm_wordpool_576.txt	LTP325	ltpFR2	9	15	GRIZZLY	662	n/a	n/a	0	0	0
2935413	WORD	wordpools/wasnorm_wordpool_576.txt	LTP325	ltpFR2	9	15	ASIA	46	n/a	n/a	0	0	0
2938083	WORD	wordpools/wasnorm_wordpool_576.txt	LTP325	ltpFR2	9	15	EXPERT	543	n/a	n/a	0	0	0
2940526	WORD	wordpools/wasnorm_wordpool_576.txt	LTP325	ltpFR2	9	15	KITCHEN	778	n/a	n/a	0	0	0
2943146	WORD	wordpools/wasnorm_wordpool_576.txt	LTP325	ltpFR2	9	15	LION	827	n/a	n/a	0	0	0
2945899	WORD	wordpools/wasnorm_wordpool_576.txt	LTP325	ltpFR2	9	15	ROBBER	1197	n/a	n/a	0	0	0
2948658	WORD	wordpools/wasnorm_wordpool_576.txt	LTP325	ltpFR2	9	15	SUSPECT	1415	n/a	n/a	0	0	0
2951093	WORD	wordpools/wasnorm_wordpool_576.txt	LTP325	ltpFR2	9	15	JEANS	752	n/a	n/a	0	0	0
2953912	WORD	wordpools/wasnorm_wordpool_576.txt	LTP325	ltpFR2	9	15	SHOVEL	1295	n/a	n/a	0	0	0
2956397	WORD	wordpools/wasnorm_wordpool_576.txt	LTP325	ltpFR2	9	15	BOYFRIEND	162	n/a	n/a	0	0	0
2958927	WORD	wordpools/wasnorm_wordpool_576.txt	LTP325	ltpFR2	9	15	COUNTY	389	n/a	n/a	0	0	0
2961578	WORD	wordpools/wasnorm_wordpool_576.txt	LTP325	ltpFR2	9	15	COMET	353	n/a	n/a	0	0	0
2964236	WORD	wordpools/wasnorm_wordpool_576.txt	LTP325	ltpFR2	9	15	PICNIC	1060	n/a	n/a	0	0	0
2966984	WORD	wordpools/wasnorm_wordpool_576.txt	LTP325	ltpFR2	9	15	SNACK	1331	n/a	n/a	0	0	0
2969417	WORD	wordpools/wasnorm_wordpool_576.txt	LTP325	ltpFR2	9	15	LIGHTNING	820	n/a	n/a	0	0	0
2971955	WORD	wordpools/wasnorm_wordpool_576.txt	LTP325	ltpFR2	9	15	BATHTUB	100	n/a	n/a	0	0	0
2974556	WORD	wordpools/wasnorm_wordpool_576.txt	LTP325	ltpFR2	9	15	BLADE	134	n/a	n/a	0	0	0
2977297	WORD	wordpools/wasnorm_wordpool_576.txt	LTP325	ltpFR2	9	15	MAPLE	866	n/a	n/a	0	0	0
2979878	WORD	wordpools/wasnorm_wordpool_576.txt	LTP325	ltpFR2	9	15	MUSTARD	935	n/a	n/a	0	0	0
2981485	START	n/a	LTP325	ltpFR2	9	n/a	n/a	n/a	22	n/a	n/a	n/a	n/a
2982433	DISTRACTOR	n/a	LTP325	ltpFR2	9	15	n/a	n/a	n/a	n/a	0	0	0
2982446	PROB	n/a	LTP325	ltpFR2	9	n/a	n/a	n/a	22	10	7	2	1
2984203	PROB	n/a	LTP325	ltpFR2	9	n/a	n/a	n/a	22	14	5	6	3
2986604	PROB	n/a	LTP325	ltpFR2	9	n/a	n/a	n/a	22	16	8	3	5
2988255	PROB	n/a	LTP325	ltpFR2	9	n/a	n/a	n/a	22	26	9	9	8
2991060	PROB	n/a	LTP325	ltpFR2	9	n/a	n/a	n/a	22	12	7	1	4
2992944	PROB	n/a	LTP325	ltpFR2	9	n/a	n/a	n/a	22	14	6	5	3
2994795	PROB	n/a	LTP325	ltpFR2	9	n/a	n/a	n/a	22	20	8	7	5
2998562	PROB	n/a	LTP325	ltpFR2	9	n/a	n/a	n/a	22	5	1	2	2
3000117	PROB	n/a	LTP325	ltpFR2	9	n/a	n/a	n/a	22	14	4	2	8
3001545	PROB	n/a	LTP325	ltpFR2	9	n/a	n/a	n/a	22	17	5	4	8
3004314	STOP	n/a	LTP325	ltpFR2	9	n/a	n/a	n/a	22	n/a	n/a	n/a	n/a
3007334	REC_START	n/a	LTP325	ltpFR2	9	15	n/a	n/a	n/a	n/a	0	0	0
3008775	REC_WORD	wordpools/wasnorm_wordpool_576.txt	LTP325	ltpFR2	9	15	KETCHUP	771	n/a	n/a	0	0	0
3010239	REC_WORD	wordpools/wasnorm_wordpool_576.txt	LTP325	ltpFR2	9	15	FRIEND	606	n/a	n/a	0	0	0
3012002	REC_WORD	wordpools/wasnorm_wordpool_576.txt	LTP325	ltpFR2	9	15	TOURIST	1488	n/a	n/a	0	0	0
3014252	REC_WORD	wordpools/wasnorm_wordpool_576.txt	LTP325	ltpFR2	9	15	LONDON	843	n/a	n/a	0	0	0
3016302	REC_WORD	wordpools/wasnorm_wordpool_576.txt	LTP325	ltpFR2	9	15	ASIA	46	n/a	n/a	0	0	0
3018296	REC_WORD	wordpools/wasnorm_wordpool_576.txt	LTP325	ltpFR2	9	15	KITCHEN	778	n/a	n/a	0	0	0
3043434	REC_WORD	wordpools/wasnorm_wordpool_576.txt	LTP325	ltpFR2	9	15	LION	827	n/a	n/a	0	0	0
3045413	REC_WORD	wordpools/wasnorm_wordpool_576.txt	LTP325	ltpFR2	9	15	ROBBER	1197	n/a	n/a	0	0	0
3047465	REC_WORD	wordpools/wasnorm_wordpool_576.txt	LTP325	ltpFR2	9	15	BURGLAR	200	n/a	n/a	0	0	0
3048938	REC_WORD	wordpools/wasnorm_wordpool_576.txt	LTP325	ltpFR2	9	15	SUSPECT	1415	n/a	n/a	0	0	0
3052320	REC_WORD	wordpools/wasnorm_wordpool_576.txt	LTP325	ltpFR2	9	15	JEANS	752	n/a	n/a	0	0	0
3053904	REC_WORD	wordpools/wasnorm_wordpool_576.txt	LTP325	ltpFR2	9	15	SHOVEL	1295	n/a	n/a	0	0	0
3055716	REC_WORD	wordpools/wasnorm_wordpool_576.txt	LTP325	ltpFR2	9	15	BOYFRIEND	162	n/a	n/a	0	0	0
3097776	WORD	wordpools/wasnorm_wordpool_576.txt	LTP325	ltpFR2	9	16	STICKER	1382	n/a	n/a	0	0	0
3100346	WORD	wordpools/wasnorm_wordpool_576.txt	LTP325	ltpFR2	9	16	TROMBONE	1508	n/a	n/a	0	0	0
3102832	WORD	wordpools/wasnorm_wordpool_576.txt	LTP325	ltpFR2	9	16	PORTRAIT	1111	n/a	n/a	0	0	0
3105417	WORD	wordpools/wasnorm_wordpool_576.txt	LTP325	ltpFR2	9	16	TERMITE	1451	n/a	n/a	0	0	0
3108086	WORD	wordpools/wasnorm_wordpool_576.txt	LTP325	ltpFR2	9	16	WASP	1593	n/a	n/a	0	0	0
3110521	WORD	wordpools/wasnorm_wordpool_576.txt	LTP325	ltpFR2	9	16	FRECKLE	602	n/a	n/a	0	0	0
3112939	WORD	wordpools/wasnorm_wordpool_576.txt	LTP325	ltpFR2	9	16	COD	340	n/a	n/a	0	0	0
3115441	WORD	wordpools/wasnorm_wordpool_576.txt	LTP325	ltpFR2	9	16	OINTMENT	974	n/a	n/a	0	0	0
3118061	WORD	wordpools/wasnorm_wordpool_576.txt	LTP325	ltpFR2	9	16	LOFT	840	n/a	n/a	0	0	0
3120646	WORD	wordpools/wasnorm_wordpool_576.txt	LTP325	ltpFR2	9	16	CRITIC	410	n/a	n/a	0	0	0
3123086	WORD	wordpools/wasnorm_wordpool_576.txt	LTP325	ltpFR2	9	16	FIDDLE	561	n/a	n/a	0	0	0
3125684	WORD	wordpools/wasnorm_wordpool_576.txt	LTP325	ltpFR2	9	16	ISLAND	745	n/a	n/a	0	0	0
3128152	WORD	wordpools/wasnorm_wordpool_576.txt	LTP325	ltpFR2	9	16	FRAME	600	n/a	n/a	0	0	0
3130893	WORD	wordpools/wasnorm_wordpool_576.txt	LTP325	ltpFR2	9	16	SLUG	1329	n/a	n/a	0	0	0
3133394	WORD	wordpools/wasnorm_wordpool_576.txt	LTP325	ltpFR2	9	16	POCKET	1093	n/a	n/a	0	0	0
3135942	WORD	wordpools/wasnorm_wordpool_576.txt	LTP325	ltpFR2	9	16	DENIM	446	n/a	n/a	0	0	0
3138660	WORD	wordpools/wasnorm_wordpool_576.txt	LTP325	ltpFR2	9	16	CLIMBER	323	n/a	n/a	0	0	0
3141335	WORD	wordpools/wasnorm_wordpool_576.txt	LTP325	ltpFR2	9	16	SLOPE	1328	n/a	n/a	0	0	0
3143898	WORD	wordpools/wasnorm_wordpool_576.txt	LTP325	ltpFR2	9	16	SALMON	1227	n/a	n/a	0	0	0
3146339	WORD	wordpools/wasnorm_wordpool_576.txt	LTP325	ltpFR2	9	16	LIPSTICK	829	n/a	n/a	0	0	0
3148968	WORD	wordpools/wasnorm_wordpool_576.txt	LTP325	ltpFR2	9	16	DRILL	497	n/a	n/a	0	0	0
3151453	WORD	wordpools/wasnorm_wordpool_576.txt	LTP325	ltpFR2	9	16	ACTOR	5	n/a	n/a	0	0	0
3153990	WORD	wordpools/wasnorm_wordpool_576.txt	LTP325	ltpFR2	9	16	BROOK	177	n/a	n/a	0	0	0
3156741	WORD	wordpools/wasnorm_wordpool_576.txt	LTP325	ltpFR2	9	16	FLOWER	584	n/a	n/a	0	0	0
3158350	START	n/a	LTP325	ltpFR2	9	n/a	n/a	n/a	23	n/a	n/a	n/a	n/a
3159519	DISTRACTOR	n/a	LTP325	ltpFR2	9	16	n/a	n/a	n/a	n/a	0	0	0
3159526	PROB	n/a	LTP325	ltpFR2	9	n/a	n/a	n/a	23	10	7	2	1
3161160	PROB	n/a	LTP325	ltpFR2	9	n/a	n/a	n/a	23	19	7	6	6
3162947	PROB	n/a	LTP325	ltpFR2	9	n/a	n/a	n/a	23	17	7	7	3
3164412	PROB	n/a	LTP325	ltpFR2	9	n/a	n/a	n/a	23	12	5	3	4
3167148	PROB	n/a	LTP325	ltpFR2	9	n/a	n/a	n/a	23	21	8	9	4
3169869	PROB	n/a	LTP325	ltpFR2	9	n/a	n/a	n/a	23	15	2	4	9
3172705	PROB	n/a	LTP325	ltpFR2	9	n/a	n/a	n/a	23	11	5	1	5
3173955	PROB	n/a	LTP325	ltpFR2	9	n/a	n/a	n/a	23	11	2	6	3
3175840	PROB	n/a	LTP325	ltpFR2	9	n/a	n/a	n/a	23	13	5	6	2
3177624	PROB	n/a	LTP325	ltpFR2	9	n/a	n/a	n/a	23	14	2	3	9
3181602	STOP	n/a	LTP325	ltpFR2	9	n/a	n/a	n/a	23	n/a	n/a	n/a	n/a
3184263	REC_START	n/a	LTP325	ltpFR2	9	16	n/a	n/a	n/a	n/a	0	0	0
3185303	REC_WORD	wordpools/wasnorm_wordpool_576.txt	LTP325	ltpFR2	9	16	DRILL	497	n/a	n/a	0	0	0
3186709	REC_WORD	wordpools/wasnorm_wordpool_576.txt	LTP325	ltpFR2	9	16	ACTOR	5	n/a	n/a	0	0	0
3190406	REC_WORD	wordpools/wasnorm_wordpool_576.txt	LTP325	ltpFR2	9	16	CRITIC	410	n/a	n/a	0	0	0
3192583	REC_WORD	wordpools/wasnorm_wordpool_576.txt	LTP325	ltpFR2	9	16	COD	340	n/a	n/a	0	0	0
3193670	REC_WORD	wordpools/wasnorm_wordpool_576.txt	LTP325	ltpFR2	9	16	LOFT	840	n/a	n/a	0	0	0
3194767	REC_WORD	wordpools/wasnorm_wordpool_576.txt	LTP325	ltpFR2	9	16	SALMON	1227	n/a	n/a	0	0	0
3196574	REC_WORD	wordpools/wasnorm_wordpool_576.txt	LTP325	ltpFR2	9	16	LIPSTICK	829	n/a	n/a	0	0	0
3199987	REC_WORD	wordpools/wasnorm_wordpool_576.txt	LTP325	ltpFR2	9	16	STICKER	1382	n/a	n/a	0	0	0
3201315	REC_WORD	wordpools/wasnorm_wordpool_576.txt	LTP325	ltpFR2	9	16	TROMBONE	1508	n/a	n/a	0	0	0
3203056	REC_WORD	wordpools/wasnorm_wordpool_576.txt	LTP325	ltpFR2	9	16	PORTRAIT	1111	n/a	n/a	0	0	0
3204571	REC_WORD	wordpools/wasnorm_wordpool_576.txt	LTP325	ltpFR2	9	16	FRECKLE	602	n/a	n/a	0	0	0
3206952	REC_WORD	wordpools/wasnorm_wordpool_576.txt	LTP325	ltpFR2	9	16	TERMITE	1451	n/a	n/a	0	0	0
3208389	REC_WORD	wordpools/wasnorm_wordpool_576.txt	LTP325	ltpFR2	9	16	WASP	1593	n/a	n/a	0	0	0
3220578	REC_WORD	wordpools/wasnorm_wordpool_576.txt	LTP325	ltpFR2	9	16	FIDDLE	561	n/a	n/a	0	0	0
3260806	REST_REWET	n/a	LTP325	ltpFR2	9	16	n/a	n/a	n/a	n/a	0	0	0
3472574	DISTRACTOR	n/a	LTP325	ltpFR2	9	17	n/a	n/a	n/a	n/a	0	0	0
3472574	START	n/a	LTP325	ltpFR2	9	n/a	n/a	n/a	24	n/a	n/a	n/a	n/a
3472589	PROB	n/a	LTP325	ltpFR2	9	n/a	n/a	n/a	24	20	9	7	4
3475111	PROB	n/a	LTP325	ltpFR2	9	n/a	n/a	n/a	24	11	1	1	9
3476364	PROB	n/a	LTP325	ltpFR2	9	n/a	n/a	n/a	24	17	8	7	2
3477832	PROB	n/a	LTP325	ltpFR2	9	n/a	n/a	n/a	24	9	1	6	2
3479818	PROB	n/a	LTP325	ltpFR2	9	n/a	n/a	n/a	24	21	8	4	9
3485200	PROB	n/a	LTP325	ltpFR2	9	n/a	n/a	n/a	24	21	6	7	8
3487568	PROB	n/a	LTP325	ltpFR2	9	n/a	n/a	n/a	24	10	3	2	5
3489454	PROB	n/a	LTP325	ltpFR2	9	n/a	n/a	n/a	24	13	4	5	4
3492774	PROB	n/a	LTP325	ltpFR2	9	n/a	n/a	n/a	24	15	4	5	6
3496574	STOP	n/a	LTP325	ltpFR2	9	n/a	n/a	n/a	24	n/a	n/a	n/a	n/a
3497427	WORD	wordpools/wasnorm_wordpool_576.txt	LTP325	ltpFR2	9	17	STOMACH	1384	n/a	n/a	0	0	0
3499932	WORD	wordpools/wasnorm_wordpool_576.txt	LTP325	ltpFR2	9	17	VIKING	1565	n/a	n/a	0	0	0
3502583	WORD	wordpools/wasnorm_wordpool_576.txt	LTP325	ltpFR2	9	17	MISSILE	900	n/a	n/a	0	0	0
3505019	WORD	wordpools/wasnorm_wordpool_576.txt	LTP325	ltpFR2	9	17	INMATE	738	n/a	n/a	0	0	0
3507721	WORD	wordpools/wasnorm_wordpool_576.txt	LTP325	ltpFR2	9	17	DANCER	437	n/a	n/a	0	0	0
3510472	WORD	wordpools/wasnorm_wordpool_576.txt	LTP325	ltpFR2	9	17	CURTAIN	427	n/a	n/a	0	0	0
3513092	WORD	wordpools/wasnorm_wordpool_576.txt	LTP325	ltpFR2	9	17	CONCERT	360	n/a	n/a	0	0	0
3515829	WORD	wordpools/wasnorm_wordpool_576.txt	LTP325	ltpFR2	9	17	FRAGRANCE	599	n/a	n/a	0	0	0
3518313	WORD	wordpools/wasnorm_wordpool_576.txt	LTP325	ltpFR2	9	17	GARDEN	623	n/a	n/a	0	0	0
3520900	WORD	wordpools/wasnorm_wordpool_576.txt	LTP325	ltpFR2	9	17	SALT	1229	n/a	n/a	0	0	0
3523451	WORD	wordpools/wasnorm_wordpool_576.txt	LTP325	ltpFR2	9	17	PEPPER	1047	n/a	n/a	0	0	0
3526253	WORD	wordpools/wasnorm_wordpool_576.txt	LTP325	ltpFR2	9	17	POPCORN	1104	n/a	n/a	0	0	0
3528856	WORD	wordpools/wasnorm_wordpool_576.txt	LTP325	ltpFR2	9	17	CIGAR	308	n/a	n/a	0	0	0
3531575	WORD	wordpools/wasnorm_wordpool_576.txt	LTP325	ltpFR2	9	17	OUTLAW	989	n/a	n/a	0	0	0
3534226	WORD	wordpools/wasnorm_wordpool_576.txt	LTP325	ltpFR2	9	17	PUDDLE	1140	n/a	n/a	0	0	0
3537014	WORD	wordpools/wasnorm_wordpool_576.txt	LTP325	ltpFR2	9	17	LAPEL	800	n/a	n/a	0	0	0
3539732	WORD	wordpools/wasnorm_wordpool_576.txt	LTP325	ltpFR2	9	17	CASHEW	253	n/a	n/a	0	0	0
3542284	WORD	wordpools/wasnorm_wordpool_576.txt	LTP325	ltpFR2	9	17	SANDWICH	1232	n/a	n/a	0	0	0
3545003	WORD	wordpools/wasnorm_wordpool_576.txt	LTP325	ltpFR2	9	17	GRILL	661	n/a	n/a	0	0	0
3547537	WORD	wordpools/wasnorm_wordpool_576.txt	LTP325	ltpFR2	9	17	WAGON	1578	n/a	n/a	0	0	0
3550340	WORD	wordpools/wasnorm_wordpool_576.txt	LTP325	ltpFR2	9	17	CABIN	211	n/a	n/a	0	0	0
3552876	WORD	wordpools/wasnorm_wordpool_576.txt	LTP325	ltpFR2	9	17	LOVER	846	n/a	n/a	0	0	0
3555578	WORD	wordpools/wasnorm_wordpool_576.txt	LTP325	ltpFR2	9	17	DRAWING	494	n/a	n/a	0	0	0
3558214	WORD	wordpools/wasnorm_wordpool_576.txt	LTP325	ltpFR2	9	17	WINDOW	1611	n/a	n/a	0	0	0
3559833	START	n/a	LTP325	ltpFR2	9	n/a	n/a	n/a	25	n/a	n/a	n/a	n/a
3560757	DISTRACTOR	n/a	LTP325	ltpFR2	9	17	n/a	n/a	n/a	n/a	0	0	0
3560766	PROB	n/a	LTP325	ltpFR2	9	n/a	n/a	n/a	25	22	8	7	7
3563000	PROB	n/a	LTP325	ltpFR2	9	n/a	n/a	n/a	25	12	3	7	2
3564283	PROB	n/a	LTP325	ltpFR2	9	n/a	n/a	n/a	25	14	1	7	6
3566920	PROB	n/a	LTP325	ltpFR2	9	n/a	n/a	n/a	25	19	7	8	4
3571505	PROB	n/a	LTP325	ltpFR2	9	n/a	n/a	n/a	25	19	8	4	7
3574575	PROB	n/a	LTP325	ltpFR2	9	n/a	n/a	n/a	25	12	2	8	2
3575976	PROB	n/a	LTP325	ltpFR2	9	n/a	n/a	n/a	25	13	6	5	2
3577878	PROB	n/a	LTP325	ltpFR2	9	n/a	n/a	n/a	25	13	2	4	7
3580849	PROB	n/a	LTP325	ltpFR2	9	n/a	n/a	n/a	25	18	8	9	1
3583832	STOP	n/a	LTP325	ltpFR2	9	n/a	n/a	n/a	25	n/a	n/a	n/a	n/a
3585604	REC_START	n/a	LTP325	ltpFR2	9	17	n/a	n/a	n/a	n/a	0	0	0
3589737	REC_WORD	wordpools/wasnorm_wordpool_576.txt	LTP325	ltpFR2	9	17	LAPEL	800	n/a	n/a	0	0	0
3591839	REC_WORD	wordpools/wasnorm_wordpool_576.txt	LTP325	ltpFR2	9	17	CABIN	211	n/a	n/a	0	0	0
3613406	REC_WORD	wordpools/wasnorm_wordpool_576.txt	LTP325	ltpFR2	9	17	SALT	1229	n/a	n/a	0	0	0
3614664	REC_WORD	wordpools/wasnorm_wordpool_576.txt	LTP325	ltpFR2	9	17	PEPPER	1047	n/a	n/a	0	0	0
3615903	REC_WORD	wordpools/wasnorm_wordpool_576.txt	LTP325	ltpFR2	9	17	POPCORN	1104	n/a	n/a	0	0	0
3676041	WORD	wordpools/wasnorm_wordpool_576.txt	LTP325	ltpFR2	9	18	NOVEL	960	n/a	n/a	0	0	0
3678485	WORD	wordpools/wasnorm_wordpool_576.txt	LTP325	ltpFR2	9	18	CHAUFFEUR	283	n/a	n/a	0	0	0
3680922	WORD	wordpools/wasnorm_wordpool_576.txt	LTP325	ltpFR2	9	18	CONTRACT	368	n/a	n/a	0	0	0
3683640	WORD	wordpools/wasnorm_wordpool_576.txt	LTP325	ltpFR2	9	18	KNAPSACK	783	n/a	n/a	0	0	0
3686450	WORD	wordpools/wasnorm_wordpool_576.txt	LTP325	ltpFR2	9	18	COURSE	390	n/a	n/a	0	0	0
3688995	WORD	wordpools/wasnorm_wordpool_576.txt	LTP325	ltpFR2	9	18	TURKEY	1520	n/a	n/a	0	0	0
3691503	WORD	wordpools/wasnorm_wordpool_576.txt	LTP325	ltpFR2	9	18	BANKER	84	n/a	n/a	0	0	0
3694116	WORD	wordpools/wasnorm_wordpool_576.txt	LTP325	ltpFR2	9	18	HERO	706	n/a	n/a	0	0	0
3696620	WORD	wordpools/wasnorm_wordpool_576.txt	LTP325	ltpFR2	9	18	BLOUSE	139	n/a	n/a	0	0	0
3699309	WORD	wordpools/wasnorm_wordpool_576.txt	LTP325	ltpFR2	9	18	REPORT	1184	n/a	n/a	0	0	0
3702008	WORD	wordpools/wasnorm_wordpool_576.txt	LTP325	ltpFR2	9	18	PEACH	1031	n/a	n/a	0	0	0
3704564	WORD	wordpools/wasnorm_wordpool_576.txt	LTP325	ltpFR2	9	18	MATTRESS	879	n/a	n/a	0	0	0
3707328	WORD	wordpools/wasnorm_wordpool_576.txt	LTP325	ltpFR2	9	18	PADDING	999	n/a	n/a	0	0	0
3709930	WORD	wordpools/wasnorm_wordpool_576.txt	LTP325	ltpFR2	9	18	ATLAS	53	n/a	n/a	0	0	0
3712487	WORD	wordpools/wasnorm_wordpool_576.txt	LTP325	ltpFR2	9	18	MAILMAN	858	n/a	n/a	0	0	0
3715035	WORD	wordpools/wasnorm_wordpool_576.txt	LTP325	ltpFR2	9	18	REBEL	1172	n/a	n/a	0	0	0
3717775	WORD	wordpools/wasnorm_wordpool_576.txt	LTP325	ltpFR2	9	18	BOUQUET	157	n/a	n/a	0	0	0
3720489	WORD	wordpools/wasnorm_wordpool_576.txt	LTP325	ltpFR2	9	18	XEROX	1628	n/a	n/a	0	0	0
3723245	WORD	wordpools/wasnorm_wordpool_576.txt	LTP325	ltpFR2	9	18	ROBIN	1199	n/a	n/a	0	0	0
3725994	WORD	wordpools/wasnorm_wordpool_576.txt	LTP325	ltpFR2	9	18	AUTHOR	61	n/a	n/a	0	0	0
3728681	WORD	wordpools/wasnorm_wordpool_576.txt	LTP325	ltpFR2	9	18	JOURNAL	760	n/a	n/a	0	0	0
3731132	WORD	wordpools/wasnorm_wordpool_576.txt	LTP325	ltpFR2	9	18	BALLOON	75	n/a	n/a	0	0	0
3733851	WORD	wordpools/wasnorm_wordpool_576.txt	LTP325	ltpFR2	9	18	BRIEFCASE	175	n/a	n/a	0	0	0
3736472	WORD	wordpools/wasnorm_wordpool_576.txt	LTP325	ltpFR2	9	18	BINDER	127	n/a	n/a	0	0	0
3738089	START	n/a	LTP325	ltpFR2	9	n/a	n/a	n/a	26	n/a	n/a	n/a	n/a
3738902	DISTRACTOR	n/a	LTP325	ltpFR2	9	18	n/a	n/a	n/a	n/a	0	0	0
3738906	PROB	n/a	LTP325	ltpFR2	9	n/a	n/a	n/a	26	14	9	4	1
3740640	PROB	n/a	LTP325	ltpFR2	9	n/a	n/a	n/a	26	16	9	4	3
3743809	PROB	n/a	LTP325	ltpFR2	9	n/a	n/a	n/a	26	5	2	1	2
3745628	PROB	n/a	LTP325	ltpFR2	9	n/a	n/a	n/a	26	21	7	8	6
3748545	PROB	n/a	LTP325	ltpFR2	9	n/a	n/a	n/a	26	17	9	5	3
3751165	PROB	n/a	LTP325	ltpFR2	9	n/a	n/a	n/a	26	15	7	3	5
3752568	PROB	n/a	LTP325	ltpFR2	9	n/a	n/a	n/a	26	9	1	1	7
3754003	PROB	n/a	LTP325	ltpFR2	9	n/a	n/a	n/a	26	13	2	5	6
3756687	PROB	n/a	LTP325	ltpFR2	9	n/a	n/a	n/a	26	21	8	6	7
3760849	STOP	n/a	LTP325	ltpFR2	9	n/a	n/a	n/a	26	n/a	n/a	n/a	n/a
3763896	REC_START	n/a	LTP325	ltpFR2	9	18	n/a	n/a	n/a	n/a	0	0	0
3766420	REC_WORD	wordpools/wasnorm_wordpool_576.txt	LTP325	ltpFR2	9	18	REBEL	1172	n/a	n/a	0	0	0
3767835	REC_WORD	wordpools/wasnorm_wordpool_576.txt	LTP325	ltpFR2	9	18	BOUQUET	157	n/a	n/a	0	0	0
3791081	REC_WORD	wordpools/wasnorm_wordpool_576.txt	LTP325	ltpFR2	9	18	NOVEL	960	n/a	n/a	0	0	0
3792630	REC_WORD	wordpools/wasnorm_wordpool_576.txt	LTP325	ltpFR2	9	18	CONTRACT	368	n/a	n/a	0	0	0
3798367	REC_WORD	wordpools/wasnorm_wordpool_576.txt	LTP325	ltpFR2	9	18	CHAUFFEUR	283	n/a	n/a	0	0	0
3800373	REC_WORD	wordpools/wasnorm_wordpool_576.txt	LTP325	ltpFR2	9	18	AUTHOR	61	n/a	n/a	0	0	0
3801875	REC_WORD	wordpools/wasnorm_wordpool_576.txt	LTP325	ltpFR2	9	18	JOURNAL	760	n/a	n/a	0	0	0
3803495	REC_WORD	wordpools/wasnorm_wordpool_576.txt	LTP325	ltpFR2	9	18	BINDER	127	n/a	n/a	0	0	0
3808923	REC_WORD	wordpools/wasnorm_wordpool_576.txt	LTP325	ltpFR2	9	18	ROBIN	1199	n/a	n/a	0	0	0
3812409	REC_WORD	wordpools/wasnorm_wordpool_576.txt	LTP325	ltpFR2	9	18	HERO	706	n/a	n/a	0	0	0
3814034	REC_WORD	wordpools/wasnorm_wordpool_576.txt	LTP325	ltpFR2	9	18	BLOUSE	139	n/a	n/a	0	0	0
3817957	REC_WORD	wordpools/wasnorm_wordpool_576.txt	LTP325	ltpFR2	9	18	PEACH	1031	n/a	n/a	0	0	0
3819411	REC_WORD	wordpools/wasnorm_wordpool_576.txt	LTP325	ltpFR2	9	18	MATTRESS	879	n/a	n/a	0	0	0
3820978	REC_WORD	wordpools/wasnorm_wordpool_576.txt	LTP325	ltpFR2	9	18	XEROX	1628	n/a	n/a	0	0	0
3874507	DISTRACTOR	n/a	LTP325	ltpFR2	9	19	n/a	n/a	n/a	n/a	0	0	0
3874507	START	n/a	LTP325	ltpFR2	9	n/a	n/a	n/a	27	n/a	n/a	n/a	n/a
3874522	PROB	n/a	LTP325	ltpFR2	9	n/a	n/a	n/a	27	10	2	3	5
3876885	PROB	n/a	LTP325	ltpFR2	9	n/a	n/a	n/a	27	20	8	4	8
3879220	PROB	n/a	LTP325	ltpFR2	9	n/a	n/a	n/a	27	14	5	1	8
3881488	PROB	n/a	LTP325	ltpFR2	9	n/a	n/a	n/a	27	20	3	8	9
3884858	PROB	n/a	LTP325	ltpFR2	9	n/a	n/a	n/a	27	13	6	6	1
3886508	PROB	n/a	LTP325	ltpFR2	9	n/a	n/a	n/a	27	13	2	4	7
3889661	PROB	n/a	LTP325	ltpFR2	9	n/a	n/a	n/a	27	16	8	6	2
3891112	PROB	n/a	LTP325	ltpFR2	9	n/a	n/a	n/a	27	6	4	1	1
3898507	STOP	n/a	LTP325	ltpFR2	9	n/a	n/a	n/a	27	n/a	n/a	n/a	n/a
3899436	WORD	wordpools/wasnorm_wordpool_576.txt	LTP325	ltpFR2	9	19	AGENT	10	n/a	n/a	0	0	0
3902097	WORD	wordpools/wasnorm_wordpool_576.txt	LTP325	ltpFR2	9	19	PUPIL	1143	n/a	n/a	0	0	0
3904658	WORD	wordpools/wasnorm_wordpool_576.txt	LTP325	ltpFR2	9	19	STUDENT	1395	n/a	n/a	0	0	0
3907336	WORD	wordpools/wasnorm_wordpool_576.txt	LTP325	ltpFR2	9	19	PROTON	1132	n/a	n/a	0	0	0
3910111	WORD	wordpools/wasnorm_wordpool_576.txt	LTP325	ltpFR2	9	19	CONVICT	371	n/a	n/a	0	0	0
3912849	WORD	wordpools/wasnorm_wordpool_576.txt	LTP325	ltpFR2	9	19	COMPASS	358	n/a	n/a	0	0	0
3915399	WORD	wordpools/wasnorm_wordpool_576.txt	LTP325	ltpFR2	9	19	GIRL	637	n/a	n/a	0	0	0
3917961	WORD	wordpools/wasnorm_wordpool_576.txt	LTP325	ltpFR2	9	19	THIEF	1456	n/a	n/a	0	0	0
3920615	WORD	wordpools/wasnorm_wordpool_576.txt	LTP325	ltpFR2	9	19	DAISY	435	n/a	n/a	0	0	0
3923299	WORD	wordpools/wasnorm_wordpool_576.txt	LTP325	ltpFR2	9	19	ITEM	746	n/a	n/a	0	0	0
3925892	WORD	wordpools/wasnorm_wordpool_576.txt	LTP325	ltpFR2	9	19	POET	1095	n/a	n/a	0	0	0
3928553	WORD	wordpools/wasnorm_wordpool_576.txt	LTP325	ltpFR2	9	19	BIKE	125	n/a	n/a	0	0	0
3931206	WORD	wordpools/wasnorm_wordpool_576.txt	LTP325	ltpFR2	9	19	BEEF	113	n/a	n/a	0	0	0
3933992	WORD	wordpools/wasnorm_wordpool_576.txt	LTP325	ltpFR2	9	19	SAUSAGE	1238	n/a	n/a	0	0	0
3936511	WORD	wordpools/wasnorm_wordpool_576.txt	LTP325	ltpFR2	9	19	DUSTPAN	509	n/a	n/a	0	0	0
3939031	WORD	wordpools/wasnorm_wordpool_576.txt	LTP325	ltpFR2	9	19	WOMAN	1620	n/a	n/a	0	0	0
3941749	WORD	wordpools/wasnorm_wordpool_576.txt	LTP325	ltpFR2	9	19	POLICE	1098	n/a	n/a	0	0	0
3944534	WORD	wordpools/wasnorm_wordpool_576.txt	LTP325	ltpFR2	9	19	LIVER	833	n/a	n/a	0	0	0
3947225	WORD	wordpools/wasnorm_wordpool_576.txt	LTP325	ltpFR2	9	19	GUITAR	670	n/a	n/a	0	0	0
3949807	WORD	wordpools/wasnorm_wordpool_576.txt	LTP325	ltpFR2	9	19	WHISTLE	1606	n/a	n/a	0	0	0
3952279	WORD	wordpools/wasnorm_wordpool_576.txt	LTP325	ltpFR2	9	19	DANDRUFF	439	n/a	n/a	0	0	0
3954894	WORD	wordpools/wasnorm_wordpool_576.txt	LTP325	ltpFR2	9	19	BURGLAR	200	n/a	n/a	0	0	0
3957412	WORD	wordpools/wasnorm_wordpool_576.txt	LTP325	ltpFR2	9	19	MASK	876	n/a	n/a	0	0	0
3959882	WORD	wordpools/wasnorm_wordpool_576.txt	LTP325	ltpFR2	9	19	BUBBLE	183	n/a	n/a	0	0	0
3961487	START	n/a	LTP325	ltpFR2	9	n/a	n/a	n/a	28	n/a	n/a	n/a	n/a
3962325	DISTRACTOR	n/a	LTP325	ltpFR2	9	19	n/a	n/a	n/a	n/a	0	0	0
3962333	PROB	n/a	LTP325	ltpFR2	9	n/a	n/a	n/a	28	12	2	6	4
3964423	PROB	n/a	LTP325	ltpFR2	9	n/a	n/a	n/a	28	17	8	2	7
3966776	PROB	n/a	LTP325	ltpFR2	9	n/a	n/a	n/a	28	20	7	7	6
3968537	PROB	n/a	LTP325	ltpFR2	9	n/a	n/a	n/a	28	6	1	4	1
3969929	PROB	n/a	LTP325	ltpFR2	9	n/a	n/a	n/a	28	1	4	7	8
3971810	PROB	n/a	LTP325	ltpFR2	9	n/a	n/a	n/a	28	16	5	5	6
3973291	PROB	n/a	LTP325	ltpFR2	9	n/a	n/a	n/a	28	21	5	7	9
3976845	PROB	n/a	LTP325	ltpFR2	9	n/a	n/a	n/a	28	18	9	5	4
3978680	PROB	n/a	LTP325	ltpFR2	9	n/a	n/a	n/a	28	9	2	1	6
3980498	PROB	n/a	LTP325	ltpFR2	9	n/a	n/a	n/a	28	17	4	9	4
3982668	PROB	n/a	LTP325	ltpFR2	9	n/a	n/a	n/a	28	8	4	2	4
3984576	STOP	n/a	LTP325	ltpFR2	9	n/a	n/a	n/a	28	n/a	n/a	n/a	n/a
3987356	REC_START	n/a	LTP325	ltpFR2	9	19	n/a	n/a	n/a	n/a	0	0	0
3992183	REC_WORD	wordpools/wasnorm_wordpool_576.txt	LTP325	ltpFR2	9	19	CONVICT	371	n/a	n/a	0	0	0
3994181	REC_WORD	wordpools/wasnorm_wordpool_576.txt	LTP325	ltpFR2	9	19	BURGLAR	200	n/a	n/a	0	0	0
3995522	REC_WORD	wordpools/wasnorm_wordpool_576.txt	LTP325	ltpFR2	9	19	BEEF	113	n/a	n/a	0	0	0
3998500	REC_WORD	wordpools/wasnorm_wordpool_576.txt	LTP325	ltpFR2	9	19	GIRL	637	n/a	n/a	0	0	0
3999744	REC_WORD	wordpools/wasnorm_wordpool_576.txt	LTP325	ltpFR2	9	19	WOMAN	1620	n/a	n/a	0	0	0
4001358	REC_WORD	wordpools/wasnorm_wordpool_576.txt	LTP325	ltpFR2	9	19	DAISY	435	n/a	n/a	0	0	0
4002992	REC_WORD	wordpools/wasnorm_wordpool_576.txt	LTP325	ltpFR2	9	19	ITEM	746	n/a	n/a	0	0	0
4005184	REC_WORD	wordpools/wasnorm_wordpool_576.txt	LTP325	ltpFR2	9	19	POLICE	1098	n/a	n/a	0	0	0
4008865	REC_WORD	wordpools/wasnorm_wordpool_576.txt	LTP325	ltpFR2	9	19	SAUSAGE	1238	n/a	n/a	0	0	0
4009865	REC_WORD_VV	wordpools/wasnorm_wordpool_576.txt	LTP325	ltpFR2	9	19	<>	-1	n/a	n/a	0	0	0
4010633	REC_WORD	wordpools/wasnorm_wordpool_576.txt	LTP325	ltpFR2	9	19	BEEF	113	n/a	n/a	0	0	0
4012136	REC_WORD	wordpools/wasnorm_wordpool_576.txt	LTP325	ltpFR2	9	19	LIVER	833	n/a	n/a	0	0	0
4014640	REC_WORD	wordpools/wasnorm_wordpool_576.txt	LTP325	ltpFR2	9	19	GUITAR	670	n/a	n/a	0	0	0
4018594	REC_WORD	wordpools/wasnorm_wordpool_576.txt	LTP325	ltpFR2	9	19	WHISTLE	1606	n/a	n/a	0	0	0
4029701	REC_WORD	wordpools/wasnorm_wordpool_576.txt	LTP325	ltpFR2	9	19	BIKE	125	n/a	n/a	0	0	0
4033931	REC_WORD	wordpools/wasnorm_wordpool_576.txt	LTP325	ltpFR2	9	19	MASK	876	n/a	n/a	0	0	0
4077782	DISTRACTOR	n/a	LTP325	ltpFR2	9	20	n/a	n/a	n/a	n/a	0	0	0
4077782	START	n/a	LTP325	ltpFR2	9	n/a	n/a	n/a	29	n/a	n/a	n/a	n/a
4077796	PROB	n/a	LTP325	ltpFR2	9	n/a	n/a	n/a	29	18	9	7	2
4079783	PROB	n/a	LTP325	ltpFR2	9	n/a	n/a	n/a	29	19	3	9	7
4081766	PROB	n/a	LTP325	ltpFR2	9	n/a	n/a	n/a	29	15	7	5	3
4084820	PROB	n/a	LTP325	ltpFR2	9	n/a	n/a	n/a	29	8	5	2	1
4087688	PROB	n/a	LTP325	ltpFR2	9	n/a	n/a	n/a	29	14	7	1	6
4090289	PROB	n/a	LTP325	ltpFR2	9	n/a	n/a	n/a	29	27	9	9	7
4094643	PROB	n/a	LTP325	ltpFR2	9	n/a	n/a	n/a	29	17	8	1	8
4097011	PROB	n/a	LTP325	ltpFR2	9	n/a	n/a	n/a	29	10	8	1	1
4098713	PROB	n/a	LTP325	ltpFR2	9	n/a	n/a	n/a	29	10	2	6	2
4100814	STOP	n/a	LTP325	ltpFR2	9	n/a	n/a	n/a	29	n/a	n/a	n/a	n/a
4102873	WORD	wordpools/wasnorm_wordpool_576.txt	LTP325	ltpFR2	9	20	STAKE	1368	n/a	n/a	0	0	0
4105524	WORD	wordpools/wasnorm_wordpool_576.txt	LTP325	ltpFR2	9	20	LUMBER	848	n/a	n/a	0	0	0
4107995	WORD	wordpools/wasnorm_wordpool_576.txt	LTP325	ltpFR2	9	20	SHELTER	1282	n/a	n/a	0	0	0
4110522	WORD	wordpools/wasnorm_wordpool_576.txt	LTP325	ltpFR2	9	20	RAZOR	1171	n/a	n/a	0	0	0
4113009	WORD	wordpools/wasnorm_wordpool_576.txt	LTP325	ltpFR2	9	20	GLOVE	642	n/a	n/a	0	0	0
4115499	WORD	wordpools/wasnorm_wordpool_576.txt	LTP325	ltpFR2	9	20	PATIENT	1024	n/a	n/a	0	0	0
4117929	WORD	wordpools/wasnorm_wordpool_576.txt	LTP325	ltpFR2	9	20	GUARD	667	n/a	n/a	0	0	0
4120420	WORD	wordpools/wasnorm_wordpool_576.txt	LTP325	ltpFR2	9	20	UNCLE	1536	n/a	n/a	0	0	0
4122850	WORD	wordpools/wasnorm_wordpool_576.txt	LTP325	ltpFR2	9	20	LACE	792	n/a	n/a	0	0	0
4125475	WORD	wordpools/wasnorm_wordpool_576.txt	LTP325	ltpFR2	9	20	RELISH	1183	n/a	n/a	0	0	0
4128271	WORD	wordpools/wasnorm_wordpool_576.txt	LTP325	ltpFR2	9	20	FLUTE	585	n/a	n/a	0	0	0
4130697	WORD	wordpools/wasnorm_wordpool_576.txt	LTP325	ltpFR2	9	20	NURSE	963	n/a	n/a	0	0	0
4133498	WORD	wordpools/wasnorm_wordpool_576.txt	LTP325	ltpFR2	9	20	BULLET	194	n/a	n/a	0	0	0
4136035	WORD	wordpools/wasnorm_wordpool_576.txt	LTP325	ltpFR2	9	20	BREAST	171	n/a	n/a	0	0	0
4138779	WORD	wordpools/wasnorm_wordpool_576.txt	LTP325	ltpFR2	9	20	ULCER	1533	n/a	n/a	0	0	0
4141264	WORD	wordpools/wasnorm_wordpool_576.txt	LTP325	ltpFR2	9	20	FLIPPER	580	n/a	n/a	0	0	0
4143859	WORD	wordpools/wasnorm_wordpool_576.txt	LTP325	ltpFR2	9	20	DOLPHIN	483	n/a	n/a	0	0	0
4146661	WORD	wordpools/wasnorm_wordpool_576.txt	LTP325	ltpFR2	9	20	DAUGHTER	442	n/a	n/a	0	0	0
4149237	WORD	wordpools/wasnorm_wordpool_576.txt	LTP325	ltpFR2	9	20	BROTHER	179	n/a	n/a	0	0	0
4151850	WORD	wordpools/wasnorm_wordpool_576.txt	LTP325	ltpFR2	9	20	BABY	64	n/a	n/a	0	0	0
4154407	WORD	wordpools/wasnorm_wordpool_576.txt	LTP325	ltpFR2	9	20	ELBOW	520	n/a	n/a	0	0	0
4157202	WORD	wordpools/wasnorm_wordpool_576.txt	LTP325	ltpFR2	9	20	CASKET	255	n/a	n/a	0	0	0
4159739	WORD	wordpools/wasnorm_wordpool_576.txt	LTP325	ltpFR2	9	20	GANGSTER	620	n/a	n/a	0	0	0
4162524	WORD	wordpools/wasnorm_wordpool_576.txt	LTP325	ltpFR2	9	20	COLONEL	348	n/a	n/a	0	0	0
4164133	START	n/a	LTP325	ltpFR2	9	n/a	n/a	n/a	30	n/a	n/a	n/a	n/a
4165103	DISTRACTOR	n/a	LTP325	ltpFR2	9	20	n/a	n/a	n/a	n/a	0	0	0
4165110	PROB	n/a	LTP325	ltpFR2	9	n/a	n/a	n/a	30	21	5	8	8
4167551	PROB	n/a	LTP325	ltpFR2	9	n/a	n/a	n/a	30	14	5	8	1
4169568	PROB	n/a	LTP325	ltpFR2	9	n/a	n/a	n/a	30	14	6	1	7
4172456	PROB	n/a	LTP325	ltpFR2	9	n/a	n/a	n/a	30	16	3	7	6
4173956	PROB	n/a	LTP325	ltpFR2	9	n/a	n/a	n/a	30	5	3	1	1
4176859	PROB	n/a	LTP325	ltpFR2	9	n/a	n/a	n/a	30	16	7	7	2
4178509	PROB	n/a	LTP325	ltpFR2	9	n/a	n/a	n/a	30	5	1	2	2
4180446	PROB	n/a	LTP325	ltpFR2	9	n/a	n/a	n/a	30	12	8	2	2
4181665	PROB	n/a	LTP325	ltpFR2	9	n/a	n/a	n/a	30	13	5	4	4
4184097	PROB	n/a	LTP325	ltpFR2	9	n/a	n/a	n/a	30	8	1	1	6
4185649	PROB	n/a	LTP325	ltpFR2	9	n/a	n/a	n/a	30	14	3	9	2
4187713	STOP	n/a	LTP325	ltpFR2	9	n/a	n/a	n/a	30	n/a	n/a	n/a	n/a
4190055	REC_START	n/a	LTP325	ltpFR2	9	20	n/a	n/a	n/a	n/a	0	0	0
4192915	REC_WORD	wordpools/wasnorm_wordpool_576.txt	LTP325	ltpFR2	9	20	BROTHER	179	n/a	n/a	0	0	0
4194115	REC_WORD	wordpools/wasnorm_wordpool_576.txt	LTP325	ltpFR2	9	20	SISTER	1312	n/a	n/a	0	0	0
4197324	REC_WORD	wordpools/wasnorm_wordpool_576.txt	LTP325	ltpFR2	9	20	BABY	64	n/a	n/a	0	0	0
4198540	REC_WORD	wordpools/wasnorm_wordpool_576.txt	LTP325	ltpFR2	9	20	CASKET	255	n/a	n/a	0	0	0
4200242	REC_WORD	wordpools/wasnorm_wordpool_576.txt	LTP325	ltpFR2	9	20	COLONEL	348	n/a	n/a	0	0	0
4203527	REC_WORD	wordpools/wasnorm_wordpool_576.txt	LTP325	ltpFR2	9	20	GANGSTER	620	n/a	n/a	0	0	0
4211682	REC_WORD	wordpools/wasnorm_wordpool_576.txt	LTP325	ltpFR2	9	20	NURSE	963	n/a	n/a	0	0	0
4213355	REC_WORD	wordpools/wasnorm_wordpool_576.txt	LTP325	ltpFR2	9	20	BULLET	194	n/a	n/a	0	0	0
4214689	REC_WORD	wordpools/wasnorm_wordpool_576.txt	LTP325	ltpFR2	9	20	BREAST	171	n/a	n/a	0	0	0
4234342	REC_WORD	wordpools/wasnorm_wordpool_576.txt	LTP325	ltpFR2	9	20	ELBOW	520	n/a	n/a	0	0	0
4280510	DISTRACTOR	n/a	LTP325	ltpFR2	9	21	n/a	n/a	n/a	n/a	0	0	0
4280510	START	n/a	LTP325	ltpFR2	9	n/a	n/a	n/a	31	n/a	n/a	n/a	n/a
4280524	PROB	n/a	LTP325	ltpFR2	9	n/a	n/a	n/a	31	17	3	9	5
4282929	PROB	n/a	LTP325	ltpFR2	9	n/a	n/a	n/a	31	18	6	6	6
4285597	PROB	n/a	LTP325	ltpFR2	9	n/a	n/a	n/a	31	14	2	7	5
4287732	PROB	n/a	LTP325	ltpFR2	9	n/a	n/a	n/a	31	10	4	4	2
4289615	PROB	n/a	LTP325	ltpFR2	9	n/a	n/a	n/a	31	13	2	5	6
4291516	PROB	n/a	LTP325	ltpFR2	9	n/a	n/a	n/a	31	15	5	4	6
4293217	PROB	n/a	LTP325	ltpFR2	9	n/a	n/a	n/a	31	16	7	7	2
4294870	PROB	n/a	LTP325	ltpFR2	9	n/a	n/a	n/a	31	11	3	3	5
4297387	PROB	n/a	LTP325	ltpFR2	9	n/a	n/a	n/a	31	13	4	2	7
4300075	PROB	n/a	LTP325	ltpFR2	9	n/a	n/a	n/a	31	9	2	4	3
4302611	PROB	n/a	LTP325	ltpFR2	9	n/a	n/a	n/a	31	15	5	5	5
4304157	STOP	n/a	LTP325	ltpFR2	9	n/a	n/a	n/a	31	n/a	n/a	n/a	n/a
4305684	WORD	wordpools/wasnorm_wordpool_576.txt	LTP325	ltpFR2	9	21	PICTURE	1061	n/a	n/a	0	0	0
4308231	WORD	wordpools/wasnorm_wordpool_576.txt	LTP325	ltpFR2	9	21	ROBOT	1200	n/a	n/a	0	0	0
4311018	WORD	wordpools/wasnorm_wordpool_576.txt	LTP325	ltpFR2	9	21	MACHINE	852	n/a	n/a	0	0	0
4313820	WORD	wordpools/wasnorm_wordpool_576.txt	LTP325	ltpFR2	9	21	MARKER	870	n/a	n/a	0	0	0
4316304	WORD	wordpools/wasnorm_wordpool_576.txt	LTP325	ltpFR2	9	21	CANDY	230	n/a	n/a	0	0	0
4319111	WORD	wordpools/wasnorm_wordpool_576.txt	LTP325	ltpFR2	9	21	FEMALE	559	n/a	n/a	0	0	0
4321809	WORD	wordpools/wasnorm_wordpool_576.txt	LTP325	ltpFR2	9	21	SPHINX	1349	n/a	n/a	0	0	0
4324561	WORD	wordpools/wasnorm_wordpool_576.txt	LTP325	ltpFR2	9	21	STATUE	1374	n/a	n/a	0	0	0
4327113	WORD	wordpools/wasnorm_wordpool_576.txt	LTP325	ltpFR2	9	21	PLAID	1080	n/a	n/a	0	0	0
4329816	WORD	wordpools/wasnorm_wordpool_576.txt	LTP325	ltpFR2	9	21	PIANO	1057	n/a	n/a	0	0	0
4332583	WORD	wordpools/wasnorm_wordpool_576.txt	LTP325	ltpFR2	9	21	FLASK	576	n/a	n/a	0	0	0
4335042	WORD	wordpools/wasnorm_wordpool_576.txt	LTP325	ltpFR2	9	21	PIGMENT	1066	n/a	n/a	0	0	0
4337555	WORD	wordpools/wasnorm_wordpool_576.txt	LTP325	ltpFR2	9	21	DENTIST	447	n/a	n/a	0	0	0
4340090	WORD	wordpools/wasnorm_wordpool_576.txt	LTP325	ltpFR2	9	21	VIRUS	1572	n/a	n/a	0	0	0
4342898	WORD	wordpools/wasnorm_wordpool_576.txt	LTP325	ltpFR2	9	21	PLAZA	1088	n/a	n/a	0	0	0
4345678	WORD	wordpools/wasnorm_wordpool_576.txt	LTP325	ltpFR2	9	21	CROWN	415	n/a	n/a	0	0	0
4348480	WORD	wordpools/wasnorm_wordpool_576.txt	LTP325	ltpFR2	9	21	HARP	689	n/a	n/a	0	0	0
4351255	WORD	wordpools/wasnorm_wordpool_576.txt	LTP325	ltpFR2	9	21	PISTON	1076	n/a	n/a	0	0	0
4353725	WORD	wordpools/wasnorm_wordpool_576.txt	LTP325	ltpFR2	9	21	RACKET	1155	n/a	n/a	0	0	0
4356487	WORD	wordpools/wasnorm_wordpool_576.txt	LTP325	ltpFR2	9	21	JUGGLER	763	n/a	n/a	0	0	0
4358972	WORD	wordpools/wasnorm_wordpool_576.txt	LTP325	ltpFR2	9	21	LILY	821	n/a	n/a	0	0	0
4361731	WORD	wordpools/wasnorm_wordpool_576.txt	LTP325	ltpFR2	9	21	RECEIPT	1173	n/a	n/a	0	0	0
4364427	WORD	wordpools/wasnorm_wordpool_576.txt	LTP325	ltpFR2	9	21	SHORTS	1293	n/a	n/a	0	0	0
4366887	WORD	wordpools/wasnorm_wordpool_576.txt	LTP325	ltpFR2	9	21	TABLET	1427	n/a	n/a	0	0	0
4368496	START	n/a	LTP325	ltpFR2	9	n/a	n/a	n/a	32	n/a	n/a	n/a	n/a
4369588	DISTRACTOR	n/a	LTP325	ltpFR2	9	21	n/a	n/a	n/a	n/a	0	0	0
4369598	PROB	n/a	LTP325	ltpFR2	9	n/a	n/a	n/a	32	24	6	9	9
4374232	PROB	n/a	LTP325	ltpFR2	9	n/a	n/a	n/a	32	20	4	7	9
4376568	PROB	n/a	LTP325	ltpFR2	9	n/a	n/a	n/a	32	15	7	6	2
4378989	PROB	n/a	LTP325	ltpFR2	9	n/a	n/a	n/a	32	12	2	2	8
4380689	PROB	n/a	LTP325	ltpFR2	9	n/a	n/a	n/a	32	19	3	8	8
4383223	PROB	n/a	LTP325	ltpFR2	9	n/a	n/a	n/a	32	14	7	6	1
4385643	PROB	n/a	LTP325	ltpFR2	9	n/a	n/a	n/a	32	16	5	3	8
4388378	PROB	n/a	LTP325	ltpFR2	9	n/a	n/a	n/a	32	9	2	1	6
4390747	PROB	n/a	LTP325	ltpFR2	9	n/a	n/a	n/a	32	10	1	4	5
4392440	STOP	n/a	LTP325	ltpFR2	9	n/a	n/a	n/a	32	n/a	n/a	n/a	n/a
4394299	REC_START	n/a	LTP325	ltpFR2	9	21	n/a	n/a	n/a	n/a	0	0	0
4398622	REC_WORD	wordpools/wasnorm_wordpool_576.txt	LTP325	ltpFR2	9	21	SHORTS	1293	n/a	n/a	0	0	0
4400217	REC_WORD	wordpools/wasnorm_wordpool_576.txt	LTP325	ltpFR2	9	21	PISTON	1076	n/a	n/a	0	0	0
4401891	REC_WORD	wordpools/wasnorm_wordpool_576.txt	LTP325	ltpFR2	9	21	HARP	689	n/a	n/a	0	0	0
4403538	REC_WORD	wordpools/wasnorm_wordpool_576.txt	LTP325	ltpFR2	9	21	CROWN	415	n/a	n/a	0	0	0
4411516	REC_WORD	wordpools/wasnorm_wordpool_576.txt	LTP325	ltpFR2	9	21	PICTURE	1061	n/a	n/a	0	0	0
4413633	REC_WORD	wordpools/wasnorm_wordpool_576.txt	LTP325	ltpFR2	9	21	MACHINE	852	n/a	n/a	0	0	0
4415106	REC_WORD	wordpools/wasnorm_wordpool_576.txt	LTP325	ltpFR2	9	21	ROBOT	1200	n/a	n/a	0	0	0
4419184	REC_WORD	wordpools/wasnorm_wordpool_576.txt	LTP325	ltpFR2	9	21	MARKER	870	n/a	n/a	0	0	0
4432978	REC_WORD	wordpools/wasnorm_wordpool_576.txt	LTP325	ltpFR2	9	21	FEMALE	559	n/a	n/a	0	0	0
4446251	REC_WORD	wordpools/wasnorm_wordpool_576.txt	LTP325	ltpFR2	9	21	SPHINX	1349	n/a	n/a	0	0	0
4448923	REC_WORD	wordpools/wasnorm_wordpool_576.txt	LTP325	ltpFR2	9	21	STATUE	1374	n/a	n/a	0	0	0
4450685	REC_WORD	wordpools/wasnorm_wordpool_576.txt	LTP325	ltpFR2	9	21	PIANO	1057	n/a	n/a	0	0	0
4452271	REC_WORD	wordpools/wasnorm_wordpool_576.txt	LTP325	ltpFR2	9	21	PLAID	1080	n/a	n/a	0	0	0
4453928	REC_WORD	wordpools/wasnorm_wordpool_576.txt	LTP325	ltpFR2	9	21	FLASK	576	n/a	n/a	0	0	0
4484774	WORD	wordpools/wasnorm_wordpool_576.txt	LTP325	ltpFR2	9	22	BOARD	143	n/a	n/a	0	0	0
4487590	WORD	wordpools/wasnorm_wordpool_576.txt	LTP325	ltpFR2	9	22	BLACKBOARD	133	n/a	n/a	0	0	0
4490193	WORD	wordpools/wasnorm_wordpool_576.txt	LTP325	ltpFR2	9	22	BUG	187	n/a	n/a	0	0	0
4492946	WORD	wordpools/wasnorm_wordpool_576.txt	LTP325	ltpFR2	9	22	LADDER	793	n/a	n/a	0	0	0
4495430	WORD	wordpools/wasnorm_wordpool_576.txt	LTP325	ltpFR2	9	22	TOASTER	1472	n/a	n/a	0	0	0
4497967	WORD	wordpools/wasnorm_wordpool_576.txt	LTP325	ltpFR2	9	22	YOLK	1633	n/a	n/a	0	0	0
4500485	WORD	wordpools/wasnorm_wordpool_576.txt	LTP325	ltpFR2	9	22	PEDAL	1037	n/a	n/a	0	0	0
4502955	WORD	wordpools/wasnorm_wordpool_576.txt	LTP325	ltpFR2	9	22	CAFE	216	n/a	n/a	0	0	0
4505774	WORD	wordpools/wasnorm_wordpool_576.txt	LTP325	ltpFR2	9	22	PALACE	1006	n/a	n/a	0	0	0
4508492	WORD	wordpools/wasnorm_wordpool_576.txt	LTP325	ltpFR2	9	22	CLAM	315	n/a	n/a	0	0	0
4511062	WORD	wordpools/wasnorm_wordpool_576.txt	LTP325	ltpFR2	9	22	WARDROBE	1587	n/a	n/a	0	0	0
4513680	WORD	wordpools/wasnorm_wordpool_576.txt	LTP325	ltpFR2	9	22	BRICK	172	n/a	n/a	0	0	0
4516415	WORD	wordpools/wasnorm_wordpool_576.txt	LTP325	ltpFR2	9	22	FILM	565	n/a	n/a	0	0	0
4519001	WORD	wordpools/wasnorm_wordpool_576.txt	LTP325	ltpFR2	9	22	MEDAL	885	n/a	n/a	0	0	0
4521703	WORD	wordpools/wasnorm_wordpool_576.txt	LTP325	ltpFR2	9	22	NECKLACE	940	n/a	n/a	0	0	0
4524254	WORD	wordpools/wasnorm_wordpool_576.txt	LTP325	ltpFR2	9	22	CRICKET	408	n/a	n/a	0	0	0
4526907	WORD	wordpools/wasnorm_wordpool_576.txt	LTP325	ltpFR2	9	22	CHURCH	307	n/a	n/a	0	0	0
4529627	WORD	wordpools/wasnorm_wordpool_576.txt	LTP325	ltpFR2	9	22	JELLY	755	n/a	n/a	0	0	0
4532145	WORD	wordpools/wasnorm_wordpool_576.txt	LTP325	ltpFR2	9	22	OUTDOORS	987	n/a	n/a	0	0	0
4534863	WORD	wordpools/wasnorm_wordpool_576.txt	LTP325	ltpFR2	9	22	DOUGHNUT	490	n/a	n/a	0	0	0
4537400	WORD	wordpools/wasnorm_wordpool_576.txt	LTP325	ltpFR2	9	22	BACON	67	n/a	n/a	0	0	0
4540134	WORD	wordpools/wasnorm_wordpool_576.txt	LTP325	ltpFR2	9	22	QUARTER	1148	n/a	n/a	0	0	0
4542819	WORD	wordpools/wasnorm_wordpool_576.txt	LTP325	ltpFR2	9	22	WIDOW	1608	n/a	n/a	0	0	0
4545591	WORD	wordpools/wasnorm_wordpool_576.txt	LTP325	ltpFR2	9	22	SPOUSE	1358	n/a	n/a	0	0	0
4547206	START	n/a	LTP325	ltpFR2	9	n/a	n/a	n/a	33	n/a	n/a	n/a	n/a
4548364	DISTRACTOR	n/a	LTP325	ltpFR2	9	22	n/a	n/a	n/a	n/a	0	0	0
4548374	PROB	n/a	LTP325	ltpFR2	9	n/a	n/a	n/a	33	20	9	8	3
4552477	PROB	n/a	LTP325	ltpFR2	9	n/a	n/a	n/a	33	17	4	4	9
4556948	PROB	n/a	LTP325	ltpFR2	9	n/a	n/a	n/a	33	18	8	5	5
4558497	PROB	n/a	LTP325	ltpFR2	9	n/a	n/a	n/a	33	10	2	4	4
4560399	PROB	n/a	LTP325	ltpFR2	9	n/a	n/a	n/a	33	11	5	2	4
4562501	PROB	n/a	LTP325	ltpFR2	9	n/a	n/a	n/a	33	18	9	7	2
4564251	PROB	n/a	LTP325	ltpFR2	9	n/a	n/a	n/a	33	7	3	3	1
4565838	PROB	n/a	LTP325	ltpFR2	9	n/a	n/a	n/a	33	9	4	1	4
4567355	PROB	n/a	LTP325	ltpFR2	9	n/a	n/a	n/a	33	18	4	6	8
4571192	STOP	n/a	LTP325	ltpFR2	9	n/a	n/a	n/a	33	n/a	n/a	n/a	n/a
4573094	REC_START	n/a	LTP325	ltpFR2	9	22	n/a	n/a	n/a	n/a	0	0	0
4574958	REC_WORD	wordpools/wasnorm_wordpool_576.txt	LTP325	ltpFR2	9	22	OUTDOORS	987	n/a	n/a	0	0	0
4575958	REC_WORD_VV	wordpools/wasnorm_wordpool_576.txt	LTP325	ltpFR2	9	22	<>	-1	n/a	n/a	0	0	0
4576893	REC_WORD	wordpools/wasnorm_wordpool_576.txt	LTP325	ltpFR2	9	22	DOUGHNUT	490	n/a	n/a	0	0	0
4578554	REC_WORD	wordpools/wasnorm_wordpool_576.txt	LTP325	ltpFR2	9	22	BACON	67	n/a	n/a	0	0	0
4580755	REC_WORD	wordpools/wasnorm_wordpool_576.txt	LTP325	ltpFR2	9	22	QUARTER	1148	n/a	n/a	0	0	0
4582356	REC_WORD	wordpools/wasnorm_wordpool_576.txt	LTP325	ltpFR2	9	22	WIDOW	1608	n/a	n/a	0	0	0
4584028	REC_WORD	wordpools/wasnorm_wordpool_576.txt	LTP325	ltpFR2	9	22	SPOUSE	1358	n/a	n/a	0	0	0
4590399	REC_WORD	wordpools/wasnorm_wordpool_576.txt	LTP325	ltpFR2	9	22	CHURCH	307	n/a	n/a	0	0	0
4591905	REC_WORD	wordpools/wasnorm_wordpool_576.txt	LTP325	ltpFR2	9	22	JELLY	755	n/a	n/a	0	0	0
4599981	REC_WORD	wordpools/wasnorm_wordpool_576.txt	LTP325	ltpFR2	9	22	LADDER	793	n/a	n/a	0	0	0
4601275	REC_WORD	wordpools/wasnorm_wordpool_576.txt	LTP325	ltpFR2	9	22	TOASTER	1472	n/a	n/a	0	0	0
4602924	REC_WORD	wordpools/wasnorm_wordpool_576.txt	LTP325	ltpFR2	9	22	YOLK	1633	n/a	n/a	0	0	0
4615796	REC_WORD	wordpools/wasnorm_wordpool_576.txt	LTP325	ltpFR2	9	22	OUTFIT	988	n/a	n/a	0	0	0
4617987	REC_WORD	wordpools/wasnorm_wordpool_576.txt	LTP325	ltpFR2	9	22	CLAM	315	n/a	n/a	0	0	0
4663516	DISTRACTOR	n/a	LTP325	ltpFR2	9	23	n/a	n/a	n/a	n/a	0	0	0
4663516	START	n/a	LTP325	ltpFR2	9	n/a	n/a	n/a	34	n/a	n/a	n/a	n/a
4663531	PROB	n/a	LTP325	ltpFR2	9	n/a	n/a	n/a	34	20	8	3	9
4666284	PROB	n/a	LTP325	ltpFR2	9	n/a	n/a	n/a	34	24	6	9	9
4668502	PROB	n/a	LTP325	ltpFR2	9	n/a	n/a	n/a	34	20	5	9	6
4670705	PROB	n/a	LTP325	ltpFR2	9	n/a	n/a	n/a	34	19	4	7	8
4672641	PROB	n/a	LTP325	ltpFR2	9	n/a	n/a	n/a	34	12	5	6	1
4674659	PROB	n/a	LTP325	ltpFR2	9	n/a	n/a	n/a	34	20	6	8	6
4677276	PROB	n/a	LTP325	ltpFR2	9	n/a	n/a	n/a	34	11	3	2	6
4680130	PROB	n/a	LTP325	ltpFR2	9	n/a	n/a	n/a	34	25	8	8	9
4683082	PROB	n/a	LTP325	ltpFR2	9	n/a	n/a	n/a	34	14	5	4	5
4687515	STOP	n/a	LTP325	ltpFR2	9	n/a	n/a	n/a	34	n/a	n/a	n/a	n/a
4688419	WORD	wordpools/wasnorm_wordpool_576.txt	LTP325	ltpFR2	9	23	SERVANT	1271	n/a	n/a	0	0	0
4691168	WORD	wordpools/wasnorm_wordpool_576.txt	LTP325	ltpFR2	9	23	PISTOL	1075	n/a	n/a	0	0	0
4693621	WORD	wordpools/wasnorm_wordpool_576.txt	LTP325	ltpFR2	9	23	APPLE	33	n/a	n/a	0	0	0
4696425	WORD	wordpools/wasnorm_wordpool_576.txt	LTP325	ltpFR2	9	23	RUG	1215	n/a	n/a	0	0	0
4699075	WORD	wordpools/wasnorm_wordpool_576.txt	LTP325	ltpFR2	9	23	GROUND	666	n/a	n/a	0	0	0
4701678	WORD	wordpools/wasnorm_wordpool_576.txt	LTP325	ltpFR2	9	23	BODY	145	n/a	n/a	0	0	0
