mstime	trial_type	stim_file	subject	experiment	session	trial	item_name	item_num	list	answer	test_x	test_y	test_z
0	SESS_START	n/a	LTP386	ltpFR2	21	n/a	n/a	n/a	n/a	n/a	0	0	0
10919	START	n/a	LTP386	ltpFR2	21	n/a	n/a	n/a	-1	n/a	n/a	n/a	n/a
10950	PROB	n/a	LTP386	ltpFR2	21	n/a	n/a	n/a	-1	13	6	6	1
13017	PROB	n/a	LTP386	ltpFR2	21	n/a	n/a	n/a	-1	7	3	3	1
14300	PROB	n/a	LTP386	ltpFR2	21	n/a	n/a	n/a	-1	8	3	3	2
15784	PROB	n/a	LTP386	ltpFR2	21	n/a	n/a	n/a	-1	16	7	1	8
17300	PROB	n/a	LTP386	ltpFR2	21	n/a	n/a	n/a	-1	11	3	5	3
19000	PROB	n/a	LTP386	ltpFR2	21	n/a	n/a	n/a	-1	5	4	2	1
20083	PROB	n/a	LTP386	ltpFR2	21	n/a	n/a	n/a	-1	16	8	5	3
21904	STOP	n/a	LTP386	ltpFR2	21	n/a	n/a	n/a	-1	n/a	n/a	n/a	n/a
56233	DISTRACTOR	n/a	LTP386	ltpFR2	21	1	n/a	n/a	n/a	n/a	0	0	0
56233	START	n/a	LTP386	ltpFR2	21	n/a	n/a	n/a	1	n/a	n/a	n/a	n/a
56249	PROB	n/a	LTP386	ltpFR2	21	n/a	n/a	n/a	1	20	6	6	8
57466	PROB	n/a	LTP386	ltpFR2	21	n/a	n/a	n/a	1	13	1	8	4
58833	PROB	n/a	LTP386	ltpFR2	21	n/a	n/a	n/a	1	19	2	9	8
60249	PROB	n/a	LTP386	ltpFR2	21	n/a	n/a	n/a	1	12	2	4	6
61333	PROB	n/a	LTP386	ltpFR2	21	n/a	n/a	n/a	1	17	2	9	6
62933	PROB	n/a	LTP386	ltpFR2	21	n/a	n/a	n/a	1	20	6	5	9
64149	PROB	n/a	LTP386	ltpFR2	21	n/a	n/a	n/a	1	13	5	5	3
65567	PROB	n/a	LTP386	ltpFR2	21	n/a	n/a	n/a	1	20	9	6	5
66700	PROB	n/a	LTP386	ltpFR2	21	n/a	n/a	n/a	1	10	1	8	1
67933	PROB	n/a	LTP386	ltpFR2	21	n/a	n/a	n/a	1	20	3	9	8
69784	PROB	n/a	LTP386	ltpFR2	21	n/a	n/a	n/a	1	22	7	8	7
71833	PROB	n/a	LTP386	ltpFR2	21	n/a	n/a	n/a	1	15	8	3	4
72949	PROB	n/a	LTP386	ltpFR2	21	n/a	n/a	n/a	1	20	6	8	6
74767	PROB	n/a	LTP386	ltpFR2	21	n/a	n/a	n/a	1	6	3	1	2
75849	PROB	n/a	LTP386	ltpFR2	21	n/a	n/a	n/a	1	18	4	7	7
77166	PROB	n/a	LTP386	ltpFR2	21	n/a	n/a	n/a	1	19	5	5	9
80233	STOP	n/a	LTP386	ltpFR2	21	n/a	n/a	n/a	1	n/a	n/a	n/a	n/a
81449	WORD	wordpools/wasnorm_wordpool_576.txt	LTP386	ltpFR2	21	1	RECORD	1176	n/a	n/a	0	0	0
83932	WORD	wordpools/wasnorm_wordpool_576.txt	LTP386	ltpFR2	21	1	SCOTCH	1251	n/a	n/a	0	0	0
86750	WORD	wordpools/wasnorm_wordpool_576.txt	LTP386	ltpFR2	21	1	COURSE	390	n/a	n/a	0	0	0
89466	WORD	wordpools/wasnorm_wordpool_576.txt	LTP386	ltpFR2	21	1	PERCH	1048	n/a	n/a	0	0	0
92032	WORD	wordpools/wasnorm_wordpool_576.txt	LTP386	ltpFR2	21	1	BUREAU	199	n/a	n/a	0	0	0
94550	WORD	wordpools/wasnorm_wordpool_576.txt	LTP386	ltpFR2	21	1	FARMER	553	n/a	n/a	0	0	0
97366	WORD	wordpools/wasnorm_wordpool_576.txt	LTP386	ltpFR2	21	1	PERMIT	1051	n/a	n/a	0	0	0
100182	WORD	wordpools/wasnorm_wordpool_576.txt	LTP386	ltpFR2	21	1	LAMP	798	n/a	n/a	0	0	0
102882	WORD	wordpools/wasnorm_wordpool_576.txt	LTP386	ltpFR2	21	1	COUSIN	392	n/a	n/a	0	0	0
105600	WORD	wordpools/wasnorm_wordpool_576.txt	LTP386	ltpFR2	21	1	LILY	821	n/a	n/a	0	0	0
108032	WORD	wordpools/wasnorm_wordpool_576.txt	LTP386	ltpFR2	21	1	TURNIP	1521	n/a	n/a	0	0	0
110499	WORD	wordpools/wasnorm_wordpool_576.txt	LTP386	ltpFR2	21	1	CASHEW	253	n/a	n/a	0	0	0
113149	WORD	wordpools/wasnorm_wordpool_576.txt	LTP386	ltpFR2	21	1	LADDER	793	n/a	n/a	0	0	0
115733	WORD	wordpools/wasnorm_wordpool_576.txt	LTP386	ltpFR2	21	1	EUROPE	541	n/a	n/a	0	0	0
118282	WORD	wordpools/wasnorm_wordpool_576.txt	LTP386	ltpFR2	21	1	BREAST	171	n/a	n/a	0	0	0
120899	WORD	wordpools/wasnorm_wordpool_576.txt	LTP386	ltpFR2	21	1	SCARECROW	1245	n/a	n/a	0	0	0
123415	WORD	wordpools/wasnorm_wordpool_576.txt	LTP386	ltpFR2	21	1	BARLEY	88	n/a	n/a	0	0	0
126032	WORD	wordpools/wasnorm_wordpool_576.txt	LTP386	ltpFR2	21	1	STICKER	1382	n/a	n/a	0	0	0
128583	WORD	wordpools/wasnorm_wordpool_576.txt	LTP386	ltpFR2	21	1	SCALPEL	1243	n/a	n/a	0	0	0
131098	WORD	wordpools/wasnorm_wordpool_576.txt	LTP386	ltpFR2	21	1	LUGGAGE	847	n/a	n/a	0	0	0
133832	WORD	wordpools/wasnorm_wordpool_576.txt	LTP386	ltpFR2	21	1	DRESSER	496	n/a	n/a	0	0	0
136482	WORD	wordpools/wasnorm_wordpool_576.txt	LTP386	ltpFR2	21	1	CHEST	295	n/a	n/a	0	0	0
139148	WORD	wordpools/wasnorm_wordpool_576.txt	LTP386	ltpFR2	21	1	FRANCE	601	n/a	n/a	0	0	0
141699	WORD	wordpools/wasnorm_wordpool_576.txt	LTP386	ltpFR2	21	1	HUSBAND	728	n/a	n/a	0	0	0
143315	START	n/a	LTP386	ltpFR2	21	n/a	n/a	n/a	2	n/a	n/a	n/a	n/a
144252	DISTRACTOR	n/a	LTP386	ltpFR2	21	1	n/a	n/a	n/a	n/a	0	0	0
144265	PROB	n/a	LTP386	ltpFR2	21	n/a	n/a	n/a	2	8	2	2	4
145632	PROB	n/a	LTP386	ltpFR2	21	n/a	n/a	n/a	2	11	4	4	3
147081	PROB	n/a	LTP386	ltpFR2	21	n/a	n/a	n/a	2	16	9	7	1
148633	PROB	n/a	LTP386	ltpFR2	21	n/a	n/a	n/a	2	15	3	7	5
150365	PROB	n/a	LTP386	ltpFR2	21	n/a	n/a	n/a	2	14	8	1	5
151782	PROB	n/a	LTP386	ltpFR2	21	n/a	n/a	n/a	2	24	6	9	9
153616	PROB	n/a	LTP386	ltpFR2	21	n/a	n/a	n/a	2	18	8	5	5
154699	PROB	n/a	LTP386	ltpFR2	21	n/a	n/a	n/a	2	16	3	4	9
156015	PROB	n/a	LTP386	ltpFR2	21	n/a	n/a	n/a	2	11	5	5	1
156998	PROB	n/a	LTP386	ltpFR2	21	n/a	n/a	n/a	2	13	2	4	7
158798	PROB	n/a	LTP386	ltpFR2	21	n/a	n/a	n/a	2	16	4	7	5
161716	PROB	n/a	LTP386	ltpFR2	21	n/a	n/a	n/a	2	11	1	2	8
162732	PROB	n/a	LTP386	ltpFR2	21	n/a	n/a	n/a	2	16	8	2	6
164549	PROB	n/a	LTP386	ltpFR2	21	n/a	n/a	n/a	2	14	2	6	6
165649	PROB	n/a	LTP386	ltpFR2	21	n/a	n/a	n/a	2	16	3	5	8
166774	STOP	n/a	LTP386	ltpFR2	21	n/a	n/a	n/a	2	n/a	n/a	n/a	n/a
169232	REC_START	n/a	LTP386	ltpFR2	21	1	n/a	n/a	n/a	n/a	0	0	0
169629	REC_WORD	wordpools/wasnorm_wordpool_576.txt	LTP386	ltpFR2	21	1	RECORD	1176	n/a	n/a	0	0	0
170366	REC_WORD	wordpools/wasnorm_wordpool_576.txt	LTP386	ltpFR2	21	1	SCOTCH	1251	n/a	n/a	0	0	0
171418	REC_WORD	wordpools/wasnorm_wordpool_576.txt	LTP386	ltpFR2	21	1	COURSE	390	n/a	n/a	0	0	0
172400	REC_WORD	wordpools/wasnorm_wordpool_576.txt	LTP386	ltpFR2	21	1	EUROPE	541	n/a	n/a	0	0	0
173402	REC_WORD	wordpools/wasnorm_wordpool_576.txt	LTP386	ltpFR2	21	1	LILY	821	n/a	n/a	0	0	0
178837	REC_WORD	wordpools/wasnorm_wordpool_576.txt	LTP386	ltpFR2	21	1	SCALPEL	1243	n/a	n/a	0	0	0
259664	DISTRACTOR	n/a	LTP386	ltpFR2	21	2	n/a	n/a	n/a	n/a	0	0	0
259664	START	n/a	LTP386	ltpFR2	21	n/a	n/a	n/a	3	n/a	n/a	n/a	n/a
259681	PROB	n/a	LTP386	ltpFR2	21	n/a	n/a	n/a	3	21	5	8	8
261197	PROB	n/a	LTP386	ltpFR2	21	n/a	n/a	n/a	3	10	5	2	3
262396	PROB	n/a	LTP386	ltpFR2	21	n/a	n/a	n/a	3	13	9	2	2
263396	PROB	n/a	LTP386	ltpFR2	21	n/a	n/a	n/a	3	17	5	3	9
264830	PROB	n/a	LTP386	ltpFR2	21	n/a	n/a	n/a	3	17	1	7	9
266363	PROB	n/a	LTP386	ltpFR2	21	n/a	n/a	n/a	3	16	2	9	5
267930	PROB	n/a	LTP386	ltpFR2	21	n/a	n/a	n/a	3	16	3	5	8
269213	PROB	n/a	LTP386	ltpFR2	21	n/a	n/a	n/a	3	12	3	8	1
271430	PROB	n/a	LTP386	ltpFR2	21	n/a	n/a	n/a	3	11	1	5	5
272396	PROB	n/a	LTP386	ltpFR2	21	n/a	n/a	n/a	3	9	2	3	4
273980	PROB	n/a	LTP386	ltpFR2	21	n/a	n/a	n/a	3	24	8	7	9
275764	PROB	n/a	LTP386	ltpFR2	21	n/a	n/a	n/a	3	13	4	3	6
278180	PROB	n/a	LTP386	ltpFR2	21	n/a	n/a	n/a	3	18	1	9	8
279380	PROB	n/a	LTP386	ltpFR2	21	n/a	n/a	n/a	3	19	5	5	9
280380	PROB	n/a	LTP386	ltpFR2	21	n/a	n/a	n/a	3	11	6	2	3
283664	STOP	n/a	LTP386	ltpFR2	21	n/a	n/a	n/a	3	n/a	n/a	n/a	n/a
284529	WORD	wordpools/wasnorm_wordpool_576.txt	LTP386	ltpFR2	21	2	PANTHER	1009	n/a	n/a	0	0	0
286963	WORD	wordpools/wasnorm_wordpool_576.txt	LTP386	ltpFR2	21	2	MESSAGE	888	n/a	n/a	0	0	0
289630	WORD	wordpools/wasnorm_wordpool_576.txt	LTP386	ltpFR2	21	2	BANK	83	n/a	n/a	0	0	0
292096	WORD	wordpools/wasnorm_wordpool_576.txt	LTP386	ltpFR2	21	2	WHISKERS	1605	n/a	n/a	0	0	0
294529	WORD	wordpools/wasnorm_wordpool_576.txt	LTP386	ltpFR2	21	2	SPIDER	1351	n/a	n/a	0	0	0
296979	WORD	wordpools/wasnorm_wordpool_576.txt	LTP386	ltpFR2	21	2	AWARD	63	n/a	n/a	0	0	0
299813	WORD	wordpools/wasnorm_wordpool_576.txt	LTP386	ltpFR2	21	2	MEDAL	885	n/a	n/a	0	0	0
302547	WORD	wordpools/wasnorm_wordpool_576.txt	LTP386	ltpFR2	21	2	SLUG	1329	n/a	n/a	0	0	0
305079	WORD	wordpools/wasnorm_wordpool_576.txt	LTP386	ltpFR2	21	2	CLIMBER	323	n/a	n/a	0	0	0
307796	WORD	wordpools/wasnorm_wordpool_576.txt	LTP386	ltpFR2	21	2	PACKAGE	997	n/a	n/a	0	0	0
310547	WORD	wordpools/wasnorm_wordpool_576.txt	LTP386	ltpFR2	21	2	POSTAGE	1113	n/a	n/a	0	0	0
313112	WORD	wordpools/wasnorm_wordpool_576.txt	LTP386	ltpFR2	21	2	ROBBER	1197	n/a	n/a	0	0	0
315697	WORD	wordpools/wasnorm_wordpool_576.txt	LTP386	ltpFR2	21	2	SWITCH	1422	n/a	n/a	0	0	0
318329	WORD	wordpools/wasnorm_wordpool_576.txt	LTP386	ltpFR2	21	2	BLENDER	136	n/a	n/a	0	0	0
320896	WORD	wordpools/wasnorm_wordpool_576.txt	LTP386	ltpFR2	21	2	QUEEN	1149	n/a	n/a	0	0	0
323613	WORD	wordpools/wasnorm_wordpool_576.txt	LTP386	ltpFR2	21	2	COCOON	339	n/a	n/a	0	0	0
326262	WORD	wordpools/wasnorm_wordpool_576.txt	LTP386	ltpFR2	21	2	ACTRESS	6	n/a	n/a	0	0	0
329012	WORD	wordpools/wasnorm_wordpool_576.txt	LTP386	ltpFR2	21	2	DASHBOARD	441	n/a	n/a	0	0	0
331446	WORD	wordpools/wasnorm_wordpool_576.txt	LTP386	ltpFR2	21	2	COSTUME	383	n/a	n/a	0	0	0
334229	WORD	wordpools/wasnorm_wordpool_576.txt	LTP386	ltpFR2	21	2	SPARROW	1347	n/a	n/a	0	0	0
337012	WORD	wordpools/wasnorm_wordpool_576.txt	LTP386	ltpFR2	21	2	MOP	916	n/a	n/a	0	0	0
339713	WORD	wordpools/wasnorm_wordpool_576.txt	LTP386	ltpFR2	21	2	DRIVER	499	n/a	n/a	0	0	0
342245	WORD	wordpools/wasnorm_wordpool_576.txt	LTP386	ltpFR2	21	2	VENUS	1557	n/a	n/a	0	0	0
345045	WORD	wordpools/wasnorm_wordpool_576.txt	LTP386	ltpFR2	21	2	RELISH	1183	n/a	n/a	0	0	0
346646	START	n/a	LTP386	ltpFR2	21	n/a	n/a	n/a	4	n/a	n/a	n/a	n/a
347835	DISTRACTOR	n/a	LTP386	ltpFR2	21	2	n/a	n/a	n/a	n/a	0	0	0
347845	PROB	n/a	LTP386	ltpFR2	21	n/a	n/a	n/a	4	22	8	7	7
349962	PROB	n/a	LTP386	ltpFR2	21	n/a	n/a	n/a	4	25	9	9	7
351929	PROB	n/a	LTP386	ltpFR2	21	n/a	n/a	n/a	4	15	9	5	1
352928	PROB	n/a	LTP386	ltpFR2	21	n/a	n/a	n/a	4	10	1	3	6
354212	PROB	n/a	LTP386	ltpFR2	21	n/a	n/a	n/a	4	18	8	5	5
355195	PROB	n/a	LTP386	ltpFR2	21	n/a	n/a	n/a	4	16	5	8	3
356713	PROB	n/a	LTP386	ltpFR2	21	n/a	n/a	n/a	4	14	5	6	3
359345	PROB	n/a	LTP386	ltpFR2	21	n/a	n/a	n/a	4	27	9	9	9
360713	PROB	n/a	LTP386	ltpFR2	21	n/a	n/a	n/a	4	26	9	9	8
362162	PROB	n/a	LTP386	ltpFR2	21	n/a	n/a	n/a	4	16	1	8	7
364028	PROB	n/a	LTP386	ltpFR2	21	n/a	n/a	n/a	4	18	7	9	2
365528	PROB	n/a	LTP386	ltpFR2	21	n/a	n/a	n/a	4	17	3	5	9
367028	PROB	n/a	LTP386	ltpFR2	21	n/a	n/a	n/a	4	20	5	9	6
368312	PROB	n/a	LTP386	ltpFR2	21	n/a	n/a	n/a	4	13	4	7	2
369684	STOP	n/a	LTP386	ltpFR2	21	n/a	n/a	n/a	4	n/a	n/a	n/a	n/a
372429	REC_START	n/a	LTP386	ltpFR2	21	2	n/a	n/a	n/a	n/a	0	0	0
373654	REC_WORD	wordpools/wasnorm_wordpool_576.txt	LTP386	ltpFR2	21	2	PANTHER	1009	n/a	n/a	0	0	0
374367	REC_WORD	wordpools/wasnorm_wordpool_576.txt	LTP386	ltpFR2	21	2	WHISKERS	1605	n/a	n/a	0	0	0
375577	REC_WORD	wordpools/wasnorm_wordpool_576.txt	LTP386	ltpFR2	21	2	MESSAGE	888	n/a	n/a	0	0	0
376764	REC_WORD	wordpools/wasnorm_wordpool_576.txt	LTP386	ltpFR2	21	2	BANK	83	n/a	n/a	0	0	0
377716	REC_WORD	wordpools/wasnorm_wordpool_576.txt	LTP386	ltpFR2	21	2	MOP	916	n/a	n/a	0	0	0
378511	REC_WORD	wordpools/wasnorm_wordpool_576.txt	LTP386	ltpFR2	21	2	COCOON	339	n/a	n/a	0	0	0
382009	REC_WORD	wordpools/wasnorm_wordpool_576.txt	LTP386	ltpFR2	21	2	VENUS	1557	n/a	n/a	0	0	0
388388	REC_WORD	wordpools/wasnorm_wordpool_576.txt	LTP386	ltpFR2	21	2	QUEEN	1149	n/a	n/a	0	0	0
462877	WORD	wordpools/wasnorm_wordpool_576.txt	LTP386	ltpFR2	21	3	WAITER	1580	n/a	n/a	0	0	0
465510	WORD	wordpools/wasnorm_wordpool_576.txt	LTP386	ltpFR2	21	3	BUCKET	184	n/a	n/a	0	0	0
467960	WORD	wordpools/wasnorm_wordpool_576.txt	LTP386	ltpFR2	21	3	FOOT	590	n/a	n/a	0	0	0
470744	WORD	wordpools/wasnorm_wordpool_576.txt	LTP386	ltpFR2	21	3	HAND	683	n/a	n/a	0	0	0
473493	WORD	wordpools/wasnorm_wordpool_576.txt	LTP386	ltpFR2	21	3	CRIB	407	n/a	n/a	0	0	0
476260	WORD	wordpools/wasnorm_wordpool_576.txt	LTP386	ltpFR2	21	3	FOREST	593	n/a	n/a	0	0	0
478877	WORD	wordpools/wasnorm_wordpool_576.txt	LTP386	ltpFR2	21	3	BISON	131	n/a	n/a	0	0	0
481410	WORD	wordpools/wasnorm_wordpool_576.txt	LTP386	ltpFR2	21	3	SPACE	1345	n/a	n/a	0	0	0
483893	WORD	wordpools/wasnorm_wordpool_576.txt	LTP386	ltpFR2	21	3	SUITCASE	1403	n/a	n/a	0	0	0
486694	WORD	wordpools/wasnorm_wordpool_576.txt	LTP386	ltpFR2	21	3	SCRIBBLE	1256	n/a	n/a	0	0	0
489493	WORD	wordpools/wasnorm_wordpool_576.txt	LTP386	ltpFR2	21	3	ASIA	46	n/a	n/a	0	0	0
491976	WORD	wordpools/wasnorm_wordpool_576.txt	LTP386	ltpFR2	21	3	LONDON	843	n/a	n/a	0	0	0
494410	WORD	wordpools/wasnorm_wordpool_576.txt	LTP386	ltpFR2	21	3	BEAVER	109	n/a	n/a	0	0	0
497026	WORD	wordpools/wasnorm_wordpool_576.txt	LTP386	ltpFR2	21	3	KIDNEY	776	n/a	n/a	0	0	0
499627	WORD	wordpools/wasnorm_wordpool_576.txt	LTP386	ltpFR2	21	3	SUNSET	1408	n/a	n/a	0	0	0
502176	WORD	wordpools/wasnorm_wordpool_576.txt	LTP386	ltpFR2	21	3	SILK	1307	n/a	n/a	0	0	0
504793	WORD	wordpools/wasnorm_wordpool_576.txt	LTP386	ltpFR2	21	3	VELVET	1555	n/a	n/a	0	0	0
507343	WORD	wordpools/wasnorm_wordpool_576.txt	LTP386	ltpFR2	21	3	PADDLE	1000	n/a	n/a	0	0	0
509860	WORD	wordpools/wasnorm_wordpool_576.txt	LTP386	ltpFR2	21	3	CRATER	400	n/a	n/a	0	0	0
512376	WORD	wordpools/wasnorm_wordpool_576.txt	LTP386	ltpFR2	21	3	SNAKE	1333	n/a	n/a	0	0	0
514859	WORD	wordpools/wasnorm_wordpool_576.txt	LTP386	ltpFR2	21	3	STOMACH	1384	n/a	n/a	0	0	0
517644	WORD	wordpools/wasnorm_wordpool_576.txt	LTP386	ltpFR2	21	3	FLOWER	584	n/a	n/a	0	0	0
520176	WORD	wordpools/wasnorm_wordpool_576.txt	LTP386	ltpFR2	21	3	RAZOR	1171	n/a	n/a	0	0	0
522843	WORD	wordpools/wasnorm_wordpool_576.txt	LTP386	ltpFR2	21	3	HEDGE	699	n/a	n/a	0	0	0
524459	START	n/a	LTP386	ltpFR2	21	n/a	n/a	n/a	5	n/a	n/a	n/a	n/a
525500	DISTRACTOR	n/a	LTP386	ltpFR2	21	3	n/a	n/a	n/a	n/a	0	0	0
525509	PROB	n/a	LTP386	ltpFR2	21	n/a	n/a	n/a	5	7	2	4	1
527560	PROB	n/a	LTP386	ltpFR2	21	n/a	n/a	n/a	5	13	5	3	5
529026	PROB	n/a	LTP386	ltpFR2	21	n/a	n/a	n/a	5	20	6	7	7
530359	PROB	n/a	LTP386	ltpFR2	21	n/a	n/a	n/a	5	19	5	9	5
531577	PROB	n/a	LTP386	ltpFR2	21	n/a	n/a	n/a	5	16	8	2	6
532660	PROB	n/a	LTP386	ltpFR2	21	n/a	n/a	n/a	5	17	4	8	5
534376	PROB	n/a	LTP386	ltpFR2	21	n/a	n/a	n/a	5	15	2	9	4
535909	PROB	n/a	LTP386	ltpFR2	21	n/a	n/a	n/a	5	20	4	8	8
537159	PROB	n/a	LTP386	ltpFR2	21	n/a	n/a	n/a	5	19	3	7	9
538459	PROB	n/a	LTP386	ltpFR2	21	n/a	n/a	n/a	5	23	8	6	9
540992	PROB	n/a	LTP386	ltpFR2	21	n/a	n/a	n/a	5	18	7	3	8
542192	PROB	n/a	LTP386	ltpFR2	21	n/a	n/a	n/a	5	12	4	3	5
545159	PROB	n/a	LTP386	ltpFR2	21	n/a	n/a	n/a	5	17	7	3	7
546409	PROB	n/a	LTP386	ltpFR2	21	n/a	n/a	n/a	5	10	2	1	7
547762	STOP	n/a	LTP386	ltpFR2	21	n/a	n/a	n/a	5	n/a	n/a	n/a	n/a
550293	REC_START	n/a	LTP386	ltpFR2	21	3	n/a	n/a	n/a	n/a	0	0	0
551424	REC_WORD	wordpools/wasnorm_wordpool_576.txt	LTP386	ltpFR2	21	3	WAITER	1580	n/a	n/a	0	0	0
552248	REC_WORD	wordpools/wasnorm_wordpool_576.txt	LTP386	ltpFR2	21	3	FOOT	590	n/a	n/a	0	0	0
553236	REC_WORD	wordpools/wasnorm_wordpool_576.txt	LTP386	ltpFR2	21	3	HAND	683	n/a	n/a	0	0	0
640742	WORD	wordpools/wasnorm_wordpool_576.txt	LTP386	ltpFR2	21	4	OINTMENT	974	n/a	n/a	0	0	0
643208	WORD	wordpools/wasnorm_wordpool_576.txt	LTP386	ltpFR2	21	4	DRUG	501	n/a	n/a	0	0	0
645908	WORD	wordpools/wasnorm_wordpool_576.txt	LTP386	ltpFR2	21	4	BACON	67	n/a	n/a	0	0	0
648542	WORD	wordpools/wasnorm_wordpool_576.txt	LTP386	ltpFR2	21	4	HEART	697	n/a	n/a	0	0	0
651324	WORD	wordpools/wasnorm_wordpool_576.txt	LTP386	ltpFR2	21	4	DANCER	437	n/a	n/a	0	0	0
653857	WORD	wordpools/wasnorm_wordpool_576.txt	LTP386	ltpFR2	21	4	TUTU	1524	n/a	n/a	0	0	0
656658	WORD	wordpools/wasnorm_wordpool_576.txt	LTP386	ltpFR2	21	4	GOBLIN	645	n/a	n/a	0	0	0
659391	WORD	wordpools/wasnorm_wordpool_576.txt	LTP386	ltpFR2	21	4	MONEY	908	n/a	n/a	0	0	0
661891	WORD	wordpools/wasnorm_wordpool_576.txt	LTP386	ltpFR2	21	4	RATTLE	1170	n/a	n/a	0	0	0
664357	WORD	wordpools/wasnorm_wordpool_576.txt	LTP386	ltpFR2	21	4	HONEY	713	n/a	n/a	0	0	0
667024	WORD	wordpools/wasnorm_wordpool_576.txt	LTP386	ltpFR2	21	4	PROTON	1132	n/a	n/a	0	0	0
669824	WORD	wordpools/wasnorm_wordpool_576.txt	LTP386	ltpFR2	21	4	COWBOY	395	n/a	n/a	0	0	0
672290	WORD	wordpools/wasnorm_wordpool_576.txt	LTP386	ltpFR2	21	4	OMELET	976	n/a	n/a	0	0	0
674758	WORD	wordpools/wasnorm_wordpool_576.txt	LTP386	ltpFR2	21	4	INFANT	737	n/a	n/a	0	0	0
677207	WORD	wordpools/wasnorm_wordpool_576.txt	LTP386	ltpFR2	21	4	TEMPLE	1448	n/a	n/a	0	0	0
679924	WORD	wordpools/wasnorm_wordpool_576.txt	LTP386	ltpFR2	21	4	RACKET	1155	n/a	n/a	0	0	0
682524	WORD	wordpools/wasnorm_wordpool_576.txt	LTP386	ltpFR2	21	4	RIVER	1194	n/a	n/a	0	0	0
685340	WORD	wordpools/wasnorm_wordpool_576.txt	LTP386	ltpFR2	21	4	TAXI	1438	n/a	n/a	0	0	0
688140	WORD	wordpools/wasnorm_wordpool_576.txt	LTP386	ltpFR2	21	4	CHIPMUNK	304	n/a	n/a	0	0	0
690940	WORD	wordpools/wasnorm_wordpool_576.txt	LTP386	ltpFR2	21	4	TWIG	1527	n/a	n/a	0	0	0
693507	WORD	wordpools/wasnorm_wordpool_576.txt	LTP386	ltpFR2	21	4	DUSTPAN	509	n/a	n/a	0	0	0
696073	WORD	wordpools/wasnorm_wordpool_576.txt	LTP386	ltpFR2	21	4	MILDEW	893	n/a	n/a	0	0	0
698724	WORD	wordpools/wasnorm_wordpool_576.txt	LTP386	ltpFR2	21	4	BOYFRIEND	162	n/a	n/a	0	0	0
701423	WORD	wordpools/wasnorm_wordpool_576.txt	LTP386	ltpFR2	21	4	PASTA	1021	n/a	n/a	0	0	0
703040	START	n/a	LTP386	ltpFR2	21	n/a	n/a	n/a	6	n/a	n/a	n/a	n/a
703936	DISTRACTOR	n/a	LTP386	ltpFR2	21	4	n/a	n/a	n/a	n/a	0	0	0
703940	PROB	n/a	LTP386	ltpFR2	21	n/a	n/a	n/a	6	18	6	6	6
705973	PROB	n/a	LTP386	ltpFR2	21	n/a	n/a	n/a	6	22	6	8	8
707658	PROB	n/a	LTP386	ltpFR2	21	n/a	n/a	n/a	6	17	4	5	6
709873	PROB	n/a	LTP386	ltpFR2	21	n/a	n/a	n/a	6	12	6	1	5
711724	PROB	n/a	LTP386	ltpFR2	21	n/a	n/a	n/a	6	8	1	2	5
712807	PROB	n/a	LTP386	ltpFR2	21	n/a	n/a	n/a	6	9	4	4	1
713774	PROB	n/a	LTP386	ltpFR2	21	n/a	n/a	n/a	6	14	4	3	7
715156	PROB	n/a	LTP386	ltpFR2	21	n/a	n/a	n/a	6	5	2	1	2
716140	PROB	n/a	LTP386	ltpFR2	21	n/a	n/a	n/a	6	15	2	9	4
717840	PROB	n/a	LTP386	ltpFR2	21	n/a	n/a	n/a	6	16	9	2	7
719708	PROB	n/a	LTP386	ltpFR2	21	n/a	n/a	n/a	6	120	8	6	6
721440	PROB	n/a	LTP386	ltpFR2	21	n/a	n/a	n/a	6	14	3	8	3
723356	PROB	n/a	LTP386	ltpFR2	21	n/a	n/a	n/a	6	20	6	6	8
724574	PROB	n/a	LTP386	ltpFR2	21	n/a	n/a	n/a	6	19	8	9	2
726190	STOP	n/a	LTP386	ltpFR2	21	n/a	n/a	n/a	6	n/a	n/a	n/a	n/a
728790	REC_START	n/a	LTP386	ltpFR2	21	4	n/a	n/a	n/a	n/a	0	0	0
730109	REC_WORD	wordpools/wasnorm_wordpool_576.txt	LTP386	ltpFR2	21	4	OINTMENT	974	n/a	n/a	0	0	0
731152	REC_WORD	wordpools/wasnorm_wordpool_576.txt	LTP386	ltpFR2	21	4	DRUG	501	n/a	n/a	0	0	0
732650	REC_WORD	wordpools/wasnorm_wordpool_576.txt	LTP386	ltpFR2	21	4	BACON	67	n/a	n/a	0	0	0
819255	WORD	wordpools/wasnorm_wordpool_576.txt	LTP386	ltpFR2	21	5	WORLD	1622	n/a	n/a	0	0	0
821773	WORD	wordpools/wasnorm_wordpool_576.txt	LTP386	ltpFR2	21	5	ATLAS	53	n/a	n/a	0	0	0
824405	WORD	wordpools/wasnorm_wordpool_576.txt	LTP386	ltpFR2	21	5	BIKE	125	n/a	n/a	0	0	0
827122	WORD	wordpools/wasnorm_wordpool_576.txt	LTP386	ltpFR2	21	5	THREAD	1460	n/a	n/a	0	0	0
829689	WORD	wordpools/wasnorm_wordpool_576.txt	LTP386	ltpFR2	21	5	POSSUM	1112	n/a	n/a	0	0	0
832405	WORD	wordpools/wasnorm_wordpool_576.txt	LTP386	ltpFR2	21	5	PIMPLE	1071	n/a	n/a	0	0	0
835121	WORD	wordpools/wasnorm_wordpool_576.txt	LTP386	ltpFR2	21	5	HELMET	702	n/a	n/a	0	0	0
837656	WORD	wordpools/wasnorm_wordpool_576.txt	LTP386	ltpFR2	21	5	PALACE	1006	n/a	n/a	0	0	0
840088	WORD	wordpools/wasnorm_wordpool_576.txt	LTP386	ltpFR2	21	5	COMET	353	n/a	n/a	0	0	0
842788	WORD	wordpools/wasnorm_wordpool_576.txt	LTP386	ltpFR2	21	5	ROCKET	1202	n/a	n/a	0	0	0
845405	WORD	wordpools/wasnorm_wordpool_576.txt	LTP386	ltpFR2	21	5	YARN	1631	n/a	n/a	0	0	0
848088	WORD	wordpools/wasnorm_wordpool_576.txt	LTP386	ltpFR2	21	5	PEDAL	1037	n/a	n/a	0	0	0
850521	WORD	wordpools/wasnorm_wordpool_576.txt	LTP386	ltpFR2	21	5	YACHT	1629	n/a	n/a	0	0	0
853204	WORD	wordpools/wasnorm_wordpool_576.txt	LTP386	ltpFR2	21	5	ORCHID	982	n/a	n/a	0	0	0
855788	WORD	wordpools/wasnorm_wordpool_576.txt	LTP386	ltpFR2	21	5	POET	1095	n/a	n/a	0	0	0
858539	WORD	wordpools/wasnorm_wordpool_576.txt	LTP386	ltpFR2	21	5	PORTRAIT	1111	n/a	n/a	0	0	0
861238	WORD	wordpools/wasnorm_wordpool_576.txt	LTP386	ltpFR2	21	5	OX	994	n/a	n/a	0	0	0
864021	WORD	wordpools/wasnorm_wordpool_576.txt	LTP386	ltpFR2	21	5	HUMAN	726	n/a	n/a	0	0	0
866788	WORD	wordpools/wasnorm_wordpool_576.txt	LTP386	ltpFR2	21	5	FRECKLE	602	n/a	n/a	0	0	0
869488	WORD	wordpools/wasnorm_wordpool_576.txt	LTP386	ltpFR2	21	5	HOOD	714	n/a	n/a	0	0	0
871988	WORD	wordpools/wasnorm_wordpool_576.txt	LTP386	ltpFR2	21	5	PAIL	1002	n/a	n/a	0	0	0
874705	WORD	wordpools/wasnorm_wordpool_576.txt	LTP386	ltpFR2	21	5	IDOL	733	n/a	n/a	0	0	0
877237	WORD	wordpools/wasnorm_wordpool_576.txt	LTP386	ltpFR2	21	5	PADDING	999	n/a	n/a	0	0	0
879755	WORD	wordpools/wasnorm_wordpool_576.txt	LTP386	ltpFR2	21	5	PISTON	1076	n/a	n/a	0	0	0
881371	START	n/a	LTP386	ltpFR2	21	n/a	n/a	n/a	7	n/a	n/a	n/a	n/a
882494	DISTRACTOR	n/a	LTP386	ltpFR2	21	5	n/a	n/a	n/a	n/a	0	0	0
882504	PROB	n/a	LTP386	ltpFR2	21	n/a	n/a	n/a	7	21	9	8	4
894254	PROB	n/a	LTP386	ltpFR2	21	n/a	n/a	n/a	7	21	8	8	5
897171	PROB	n/a	LTP386	ltpFR2	21	n/a	n/a	n/a	7	13	3	4	6
898154	PROB	n/a	LTP386	ltpFR2	21	n/a	n/a	n/a	7	26	9	9	8
899571	PROB	n/a	LTP386	ltpFR2	21	n/a	n/a	n/a	7	10	8	1	1
901121	PROB	n/a	LTP386	ltpFR2	21	n/a	n/a	n/a	7	15	4	9	2
902204	PROB	n/a	LTP386	ltpFR2	21	n/a	n/a	n/a	7	14	4	7	3
903337	PROB	n/a	LTP386	ltpFR2	21	n/a	n/a	n/a	7	22	6	8	8
905068	STOP	n/a	LTP386	ltpFR2	21	n/a	n/a	n/a	7	n/a	n/a	n/a	n/a
907137	REC_START	n/a	LTP386	ltpFR2	21	5	n/a	n/a	n/a	n/a	0	0	0
915753	REC_WORD	wordpools/wasnorm_wordpool_576.txt	LTP386	ltpFR2	21	5	WORLD	1622	n/a	n/a	0	0	0
916754	REC_WORD	wordpools/wasnorm_wordpool_576.txt	LTP386	ltpFR2	21	5	ATLAS	53	n/a	n/a	0	0	0
917657	REC_WORD	wordpools/wasnorm_wordpool_576.txt	LTP386	ltpFR2	21	5	BIKE	125	n/a	n/a	0	0	0
997553	DISTRACTOR	n/a	LTP386	ltpFR2	21	6	n/a	n/a	n/a	n/a	0	0	0
997554	START	n/a	LTP386	ltpFR2	21	n/a	n/a	n/a	8	n/a	n/a	n/a	n/a
997570	PROB	n/a	LTP386	ltpFR2	21	n/a	n/a	n/a	8	19	3	7	9
999502	PROB	n/a	LTP386	ltpFR2	21	n/a	n/a	n/a	8	8	1	6	1
1000502	PROB	n/a	LTP386	ltpFR2	21	n/a	n/a	n/a	8	24	6	8	8
1001902	PROB	n/a	LTP386	ltpFR2	21	n/a	n/a	n/a	8	10	6	2	2
1002952	PROB	n/a	LTP386	ltpFR2	21	n/a	n/a	n/a	8	17	3	7	7
1004219	PROB	n/a	LTP386	ltpFR2	21	n/a	n/a	n/a	8	16	8	5	3
1005436	PROB	n/a	LTP386	ltpFR2	21	n/a	n/a	n/a	8	18	7	7	4
1006720	PROB	n/a	LTP386	ltpFR2	21	n/a	n/a	n/a	8	18	9	6	3
1008136	PROB	n/a	LTP386	ltpFR2	21	n/a	n/a	n/a	8	21	9	8	4
1009687	PROB	n/a	LTP386	ltpFR2	21	n/a	n/a	n/a	8	13	6	1	6
1010753	PROB	n/a	LTP386	ltpFR2	21	n/a	n/a	n/a	8	21	5	8	8
1012202	PROB	n/a	LTP386	ltpFR2	21	n/a	n/a	n/a	8	14	4	9	1
1013302	PROB	n/a	LTP386	ltpFR2	21	n/a	n/a	n/a	8	12	8	1	3
1014919	PROB	n/a	LTP386	ltpFR2	21	n/a	n/a	n/a	8	13	1	7	5
1016269	PROB	n/a	LTP386	ltpFR2	21	n/a	n/a	n/a	8	17	7	5	5
1017502	PROB	n/a	LTP386	ltpFR2	21	n/a	n/a	n/a	8	18	4	5	9
1018553	PROB	n/a	LTP386	ltpFR2	21	n/a	n/a	n/a	8	14	7	6	1
1019802	PROB	n/a	LTP386	ltpFR2	21	n/a	n/a	n/a	8	15	6	4	5
1020823	STOP	n/a	LTP386	ltpFR2	21	n/a	n/a	n/a	8	n/a	n/a	n/a	n/a
1022402	WORD	wordpools/wasnorm_wordpool_576.txt	LTP386	ltpFR2	21	6	SHARK	1275	n/a	n/a	0	0	0
1025135	WORD	wordpools/wasnorm_wordpool_576.txt	LTP386	ltpFR2	21	6	PERFUME	1049	n/a	n/a	0	0	0
1027570	WORD	wordpools/wasnorm_wordpool_576.txt	LTP386	ltpFR2	21	6	CIGAR	308	n/a	n/a	0	0	0
1030319	WORD	wordpools/wasnorm_wordpool_576.txt	LTP386	ltpFR2	21	6	SUBWAY	1400	n/a	n/a	0	0	0
1032969	WORD	wordpools/wasnorm_wordpool_576.txt	LTP386	ltpFR2	21	6	TEACHER	1440	n/a	n/a	0	0	0
1035686	WORD	wordpools/wasnorm_wordpool_576.txt	LTP386	ltpFR2	21	6	LASER	801	n/a	n/a	0	0	0
1038502	WORD	wordpools/wasnorm_wordpool_576.txt	LTP386	ltpFR2	21	6	SADDLE	1221	n/a	n/a	0	0	0
1041085	WORD	wordpools/wasnorm_wordpool_576.txt	LTP386	ltpFR2	21	6	GUARD	667	n/a	n/a	0	0	0
1043818	WORD	wordpools/wasnorm_wordpool_576.txt	LTP386	ltpFR2	21	6	VAGRANT	1544	n/a	n/a	0	0	0
1046636	WORD	wordpools/wasnorm_wordpool_576.txt	LTP386	ltpFR2	21	6	TOMBSTONE	1478	n/a	n/a	0	0	0
1049168	WORD	wordpools/wasnorm_wordpool_576.txt	LTP386	ltpFR2	21	6	COCKTAIL	338	n/a	n/a	0	0	0
1051918	WORD	wordpools/wasnorm_wordpool_576.txt	LTP386	ltpFR2	21	6	DOLPHIN	483	n/a	n/a	0	0	0
1054502	WORD	wordpools/wasnorm_wordpool_576.txt	LTP386	ltpFR2	21	6	FLIPPER	580	n/a	n/a	0	0	0
1057252	WORD	wordpools/wasnorm_wordpool_576.txt	LTP386	ltpFR2	21	6	SALAD	1224	n/a	n/a	0	0	0
1059851	WORD	wordpools/wasnorm_wordpool_576.txt	LTP386	ltpFR2	21	6	BARREL	91	n/a	n/a	0	0	0
1062318	WORD	wordpools/wasnorm_wordpool_576.txt	LTP386	ltpFR2	21	6	HORSE	719	n/a	n/a	0	0	0
1065035	WORD	wordpools/wasnorm_wordpool_576.txt	LTP386	ltpFR2	21	6	GARLIC	624	n/a	n/a	0	0	0
1067619	WORD	wordpools/wasnorm_wordpool_576.txt	LTP386	ltpFR2	21	6	BADGE	68	n/a	n/a	0	0	0
1070218	WORD	wordpools/wasnorm_wordpool_576.txt	LTP386	ltpFR2	21	6	RAFT	1159	n/a	n/a	0	0	0
1072769	WORD	wordpools/wasnorm_wordpool_576.txt	LTP386	ltpFR2	21	6	YOLK	1633	n/a	n/a	0	0	0
1075518	WORD	wordpools/wasnorm_wordpool_576.txt	LTP386	ltpFR2	21	6	SHIRT	1287	n/a	n/a	0	0	0
1078118	WORD	wordpools/wasnorm_wordpool_576.txt	LTP386	ltpFR2	21	6	ICEBERG	731	n/a	n/a	0	0	0
1080818	WORD	wordpools/wasnorm_wordpool_576.txt	LTP386	ltpFR2	21	6	KLEENEX	782	n/a	n/a	0	0	0
1083535	WORD	wordpools/wasnorm_wordpool_576.txt	LTP386	ltpFR2	21	6	CREATURE	403	n/a	n/a	0	0	0
1085151	START	n/a	LTP386	ltpFR2	21	n/a	n/a	n/a	9	n/a	n/a	n/a	n/a
1086316	DISTRACTOR	n/a	LTP386	ltpFR2	21	6	n/a	n/a	n/a	n/a	0	0	0
1086318	PROB	n/a	LTP386	ltpFR2	21	n/a	n/a	n/a	9	11	6	4	1
1088168	PROB	n/a	LTP386	ltpFR2	21	n/a	n/a	n/a	9	14	2	8	4
1089801	PROB	n/a	LTP386	ltpFR2	21	n/a	n/a	n/a	9	22	9	9	4
1091669	PROB	n/a	LTP386	ltpFR2	21	n/a	n/a	n/a	9	12	7	3	2
1092719	PROB	n/a	LTP386	ltpFR2	21	n/a	n/a	n/a	9	19	4	8	7
1094134	PROB	n/a	LTP386	ltpFR2	21	n/a	n/a	n/a	9	6	1	4	1
1095602	PROB	n/a	LTP386	ltpFR2	21	n/a	n/a	n/a	9	20	8	8	4
1096851	PROB	n/a	LTP386	ltpFR2	21	n/a	n/a	n/a	9	16	6	2	8
1098168	PROB	n/a	LTP386	ltpFR2	21	n/a	n/a	n/a	9	18	2	7	9
1099801	PROB	n/a	LTP386	ltpFR2	21	n/a	n/a	n/a	9	14	4	6	4
1100801	PROB	n/a	LTP386	ltpFR2	21	n/a	n/a	n/a	9	9	2	3	4
1102851	PROB	n/a	LTP386	ltpFR2	21	n/a	n/a	n/a	9	14	2	3	9
1104652	PROB	n/a	LTP386	ltpFR2	21	n/a	n/a	n/a	9	21	5	7	9
1106001	PROB	n/a	LTP386	ltpFR2	21	n/a	n/a	n/a	9	8	3	2	3
1107922	STOP	n/a	LTP386	ltpFR2	21	n/a	n/a	n/a	9	n/a	n/a	n/a	n/a
1110918	REC_START	n/a	LTP386	ltpFR2	21	6	n/a	n/a	n/a	n/a	0	0	0
1112566	REC_WORD	wordpools/wasnorm_wordpool_576.txt	LTP386	ltpFR2	21	6	FLIPPER	580	n/a	n/a	0	0	0
1113606	REC_WORD	wordpools/wasnorm_wordpool_576.txt	LTP386	ltpFR2	21	6	YOLK	1633	n/a	n/a	0	0	0
1115240	REC_WORD	wordpools/wasnorm_wordpool_576.txt	LTP386	ltpFR2	21	6	BARREL	91	n/a	n/a	0	0	0
1119987	REC_WORD	wordpools/wasnorm_wordpool_576.txt	LTP386	ltpFR2	21	6	BADGE	68	n/a	n/a	0	0	0
1123207	REC_WORD	wordpools/wasnorm_wordpool_576.txt	LTP386	ltpFR2	21	6	GARLIC	624	n/a	n/a	0	0	0
1201383	WORD	wordpools/wasnorm_wordpool_576.txt	LTP386	ltpFR2	21	7	FRAME	600	n/a	n/a	0	0	0
1204183	WORD	wordpools/wasnorm_wordpool_576.txt	LTP386	ltpFR2	21	7	GYMNAST	675	n/a	n/a	0	0	0
1206983	WORD	wordpools/wasnorm_wordpool_576.txt	LTP386	ltpFR2	21	7	HOUND	724	n/a	n/a	0	0	0
1209799	WORD	wordpools/wasnorm_wordpool_576.txt	LTP386	ltpFR2	21	7	HANDBAG	684	n/a	n/a	0	0	0
1212299	WORD	wordpools/wasnorm_wordpool_576.txt	LTP386	ltpFR2	21	7	BEEF	113	n/a	n/a	0	0	0
1215049	WORD	wordpools/wasnorm_wordpool_576.txt	LTP386	ltpFR2	21	7	FRUIT	610	n/a	n/a	0	0	0
1217650	WORD	wordpools/wasnorm_wordpool_576.txt	LTP386	ltpFR2	21	7	CITRUS	313	n/a	n/a	0	0	0
1220332	WORD	wordpools/wasnorm_wordpool_576.txt	LTP386	ltpFR2	21	7	DRAWING	494	n/a	n/a	0	0	0
1222999	WORD	wordpools/wasnorm_wordpool_576.txt	LTP386	ltpFR2	21	7	PUDDLE	1140	n/a	n/a	0	0	0
1225717	WORD	wordpools/wasnorm_wordpool_576.txt	LTP386	ltpFR2	21	7	LEG	809	n/a	n/a	0	0	0
1228449	WORD	wordpools/wasnorm_wordpool_576.txt	LTP386	ltpFR2	21	7	MARROW	872	n/a	n/a	0	0	0
1231199	WORD	wordpools/wasnorm_wordpool_576.txt	LTP386	ltpFR2	21	7	MARKET	871	n/a	n/a	0	0	0
1233849	WORD	wordpools/wasnorm_wordpool_576.txt	LTP386	ltpFR2	21	7	VIRUS	1572	n/a	n/a	0	0	0
1236650	WORD	wordpools/wasnorm_wordpool_576.txt	LTP386	ltpFR2	21	7	DUST	508	n/a	n/a	0	0	0
1239199	WORD	wordpools/wasnorm_wordpool_576.txt	LTP386	ltpFR2	21	7	NAPKIN	937	n/a	n/a	0	0	0
1241666	WORD	wordpools/wasnorm_wordpool_576.txt	LTP386	ltpFR2	21	7	FIREPLACE	570	n/a	n/a	0	0	0
1244315	WORD	wordpools/wasnorm_wordpool_576.txt	LTP386	ltpFR2	21	7	AUTHOR	61	n/a	n/a	0	0	0
1246865	WORD	wordpools/wasnorm_wordpool_576.txt	LTP386	ltpFR2	21	7	STAMP	1370	n/a	n/a	0	0	0
1249633	WORD	wordpools/wasnorm_wordpool_576.txt	LTP386	ltpFR2	21	7	ANTLER	29	n/a	n/a	0	0	0
1252065	WORD	wordpools/wasnorm_wordpool_576.txt	LTP386	ltpFR2	21	7	OUTLAW	989	n/a	n/a	0	0	0
1254832	WORD	wordpools/wasnorm_wordpool_576.txt	LTP386	ltpFR2	21	7	CEILING	265	n/a	n/a	0	0	0
1257499	WORD	wordpools/wasnorm_wordpool_576.txt	LTP386	ltpFR2	21	7	ANKLE	24	n/a	n/a	0	0	0
1260015	WORD	wordpools/wasnorm_wordpool_576.txt	LTP386	ltpFR2	21	7	ELBOW	520	n/a	n/a	0	0	0
1262482	WORD	wordpools/wasnorm_wordpool_576.txt	LTP386	ltpFR2	21	7	MEAT	883	n/a	n/a	0	0	0
1264099	START	n/a	LTP386	ltpFR2	21	n/a	n/a	n/a	10	n/a	n/a	n/a	n/a
1264991	DISTRACTOR	n/a	LTP386	ltpFR2	21	7	n/a	n/a	n/a	n/a	0	0	0
1264999	PROB	n/a	LTP386	ltpFR2	21	n/a	n/a	n/a	10	17	2	6	9
1266898	PROB	n/a	LTP386	ltpFR2	21	n/a	n/a	n/a	10	16	7	2	7
1268265	PROB	n/a	LTP386	ltpFR2	21	n/a	n/a	n/a	10	14	2	4	8
1270448	PROB	n/a	LTP386	ltpFR2	21	n/a	n/a	n/a	10	19	5	5	9
1271348	PROB	n/a	LTP386	ltpFR2	21	n/a	n/a	n/a	10	11	5	3	3
1272683	PROB	n/a	LTP386	ltpFR2	21	n/a	n/a	n/a	10	22	7	8	6
1274666	PROB	n/a	LTP386	ltpFR2	21	n/a	n/a	n/a	10	14	9	1	4
1275716	PROB	n/a	LTP386	ltpFR2	21	n/a	n/a	n/a	10	19	5	6	8
1277432	PROB	n/a	LTP386	ltpFR2	21	n/a	n/a	n/a	10	24	6	8	8
1279465	PROB	n/a	LTP386	ltpFR2	21	n/a	n/a	n/a	10	15	4	4	7
1280882	PROB	n/a	LTP386	ltpFR2	21	n/a	n/a	n/a	10	10	4	4	2
1282098	PROB	n/a	LTP386	ltpFR2	21	n/a	n/a	n/a	10	17	9	5	3
1283248	PROB	n/a	LTP386	ltpFR2	21	n/a	n/a	n/a	10	21	9	5	7
1284733	PROB	n/a	LTP386	ltpFR2	21	n/a	n/a	n/a	10	16	9	3	4
1286098	PROB	n/a	LTP386	ltpFR2	21	n/a	n/a	n/a	10	10	6	3	1
1287448	STOP	n/a	LTP386	ltpFR2	21	n/a	n/a	n/a	10	n/a	n/a	n/a	n/a
1289999	REC_START	n/a	LTP386	ltpFR2	21	7	n/a	n/a	n/a	n/a	0	0	0
1291644	REC_WORD	wordpools/wasnorm_wordpool_576.txt	LTP386	ltpFR2	21	7	BEEF	113	n/a	n/a	0	0	0
1292464	REC_WORD	wordpools/wasnorm_wordpool_576.txt	LTP386	ltpFR2	21	7	MEAT	883	n/a	n/a	0	0	0
1295860	REC_WORD	wordpools/wasnorm_wordpool_576.txt	LTP386	ltpFR2	21	7	ELBOW	520	n/a	n/a	0	0	0
1296787	REC_WORD	wordpools/wasnorm_wordpool_576.txt	LTP386	ltpFR2	21	7	ANKLE	24	n/a	n/a	0	0	0
1297727	REC_WORD	wordpools/wasnorm_wordpool_576.txt	LTP386	ltpFR2	21	7	MARROW	872	n/a	n/a	0	0	0
1380464	DISTRACTOR	n/a	LTP386	ltpFR2	21	8	n/a	n/a	n/a	n/a	0	0	0
1380464	START	n/a	LTP386	ltpFR2	21	n/a	n/a	n/a	11	n/a	n/a	n/a	n/a
1380480	PROB	n/a	LTP386	ltpFR2	21	n/a	n/a	n/a	11	23	7	7	9
1383197	PROB	n/a	LTP386	ltpFR2	21	n/a	n/a	n/a	11	18	5	9	4
1384447	PROB	n/a	LTP386	ltpFR2	21	n/a	n/a	n/a	11	9	5	3	1
1386880	PROB	n/a	LTP386	ltpFR2	21	n/a	n/a	n/a	11	23	8	6	9
1388664	PROB	n/a	LTP386	ltpFR2	21	n/a	n/a	n/a	11	13	5	4	4
1390497	PROB	n/a	LTP386	ltpFR2	21	n/a	n/a	n/a	11	18	1	8	9
1391397	PROB	n/a	LTP386	ltpFR2	21	n/a	n/a	n/a	11	10	6	3	1
1392397	PROB	n/a	LTP386	ltpFR2	21	n/a	n/a	n/a	11	23	7	7	9
1393781	PROB	n/a	LTP386	ltpFR2	21	n/a	n/a	n/a	11	19	8	9	2
1396497	PROB	n/a	LTP386	ltpFR2	21	n/a	n/a	n/a	11	18	5	7	6
1397947	PROB	n/a	LTP386	ltpFR2	21	n/a	n/a	n/a	11	23	6	9	8
1400447	PROB	n/a	LTP386	ltpFR2	21	n/a	n/a	n/a	11	14	3	4	7
1401913	PROB	n/a	LTP386	ltpFR2	21	n/a	n/a	n/a	11	10	7	3	1
1404464	STOP	n/a	LTP386	ltpFR2	21	n/a	n/a	n/a	11	n/a	n/a	n/a	n/a
1405598	WORD	wordpools/wasnorm_wordpool_576.txt	LTP386	ltpFR2	21	8	MASK	876	n/a	n/a	0	0	0
1408213	WORD	wordpools/wasnorm_wordpool_576.txt	LTP386	ltpFR2	21	8	HATCHET	691	n/a	n/a	0	0	0
1410731	WORD	wordpools/wasnorm_wordpool_576.txt	LTP386	ltpFR2	21	8	LAPEL	800	n/a	n/a	0	0	0
1413230	WORD	wordpools/wasnorm_wordpool_576.txt	LTP386	ltpFR2	21	8	ZIPPER	1636	n/a	n/a	0	0	0
1415781	WORD	wordpools/wasnorm_wordpool_576.txt	LTP386	ltpFR2	21	8	TUNNEL	1519	n/a	n/a	0	0	0
1418363	WORD	wordpools/wasnorm_wordpool_576.txt	LTP386	ltpFR2	21	8	CASHIER	254	n/a	n/a	0	0	0
1421130	WORD	wordpools/wasnorm_wordpool_576.txt	LTP386	ltpFR2	21	8	BRACES	164	n/a	n/a	0	0	0
1423664	WORD	wordpools/wasnorm_wordpool_576.txt	LTP386	ltpFR2	21	8	XEROX	1628	n/a	n/a	0	0	0
1426463	WORD	wordpools/wasnorm_wordpool_576.txt	LTP386	ltpFR2	21	8	KNIFE	785	n/a	n/a	0	0	0
1428929	WORD	wordpools/wasnorm_wordpool_576.txt	LTP386	ltpFR2	21	8	FINGER	567	n/a	n/a	0	0	0
1431413	WORD	wordpools/wasnorm_wordpool_576.txt	LTP386	ltpFR2	21	8	SHORTS	1293	n/a	n/a	0	0	0
1434029	WORD	wordpools/wasnorm_wordpool_576.txt	LTP386	ltpFR2	21	8	SWIMMER	1420	n/a	n/a	0	0	0
1436664	WORD	wordpools/wasnorm_wordpool_576.txt	LTP386	ltpFR2	21	8	SODA	1341	n/a	n/a	0	0	0
1439096	WORD	wordpools/wasnorm_wordpool_576.txt	LTP386	ltpFR2	21	8	BALLOON	75	n/a	n/a	0	0	0
1441879	WORD	wordpools/wasnorm_wordpool_576.txt	LTP386	ltpFR2	21	8	ICING	732	n/a	n/a	0	0	0
1444580	WORD	wordpools/wasnorm_wordpool_576.txt	LTP386	ltpFR2	21	8	SKETCH	1315	n/a	n/a	0	0	0
1447346	WORD	wordpools/wasnorm_wordpool_576.txt	LTP386	ltpFR2	21	8	GIRL	637	n/a	n/a	0	0	0
1450163	WORD	wordpools/wasnorm_wordpool_576.txt	LTP386	ltpFR2	21	8	SPHINX	1349	n/a	n/a	0	0	0
1452796	WORD	wordpools/wasnorm_wordpool_576.txt	LTP386	ltpFR2	21	8	PLAID	1080	n/a	n/a	0	0	0
1455379	WORD	wordpools/wasnorm_wordpool_576.txt	LTP386	ltpFR2	21	8	BUTCHER	203	n/a	n/a	0	0	0
1458096	WORD	wordpools/wasnorm_wordpool_576.txt	LTP386	ltpFR2	21	8	APPLE	33	n/a	n/a	0	0	0
1460912	WORD	wordpools/wasnorm_wordpool_576.txt	LTP386	ltpFR2	21	8	LABEL	790	n/a	n/a	0	0	0
1463713	WORD	wordpools/wasnorm_wordpool_576.txt	LTP386	ltpFR2	21	8	TUBA	1515	n/a	n/a	0	0	0
1466479	WORD	wordpools/wasnorm_wordpool_576.txt	LTP386	ltpFR2	21	8	PIANO	1057	n/a	n/a	0	0	0
1468096	START	n/a	LTP386	ltpFR2	21	n/a	n/a	n/a	12	n/a	n/a	n/a	n/a
1468945	DISTRACTOR	n/a	LTP386	ltpFR2	21	8	n/a	n/a	n/a	n/a	0	0	0
1468962	PROB	n/a	LTP386	ltpFR2	21	n/a	n/a	n/a	12	15	7	1	7
1471829	PROB	n/a	LTP386	ltpFR2	21	n/a	n/a	n/a	12	11	1	1	9
1472945	PROB	n/a	LTP386	ltpFR2	21	n/a	n/a	n/a	12	19	2	9	8
1474546	PROB	n/a	LTP386	ltpFR2	21	n/a	n/a	n/a	12	9	3	3	3
1476145	PROB	n/a	LTP386	ltpFR2	21	n/a	n/a	n/a	12	13	1	8	4
1477895	PROB	n/a	LTP386	ltpFR2	21	n/a	n/a	n/a	12	11	3	4	4
1479162	PROB	n/a	LTP386	ltpFR2	21	n/a	n/a	n/a	12	6	2	3	1
1480295	PROB	n/a	LTP386	ltpFR2	21	n/a	n/a	n/a	12	14	2	4	8
1482095	PROB	n/a	LTP386	ltpFR2	21	n/a	n/a	n/a	12	23	9	6	8
1484079	PROB	n/a	LTP386	ltpFR2	21	n/a	n/a	n/a	12	15	8	1	6
1485329	PROB	n/a	LTP386	ltpFR2	21	n/a	n/a	n/a	12	20	5	9	6
1486879	PROB	n/a	LTP386	ltpFR2	21	n/a	n/a	n/a	12	12	3	7	2
1488145	PROB	n/a	LTP386	ltpFR2	21	n/a	n/a	n/a	12	6	2	1	3
1489245	PROB	n/a	LTP386	ltpFR2	21	n/a	n/a	n/a	12	13	5	1	7
1490445	PROB	n/a	LTP386	ltpFR2	21	n/a	n/a	n/a	12	12	6	1	5
1491478	STOP	n/a	LTP386	ltpFR2	21	n/a	n/a	n/a	12	n/a	n/a	n/a	n/a
1493980	REC_START	n/a	LTP386	ltpFR2	21	8	n/a	n/a	n/a	n/a	0	0	0
1494952	REC_WORD	wordpools/wasnorm_wordpool_576.txt	LTP386	ltpFR2	21	8	MASK	876	n/a	n/a	0	0	0
1500948	REC_WORD	wordpools/wasnorm_wordpool_576.txt	LTP386	ltpFR2	21	8	PIANO	1057	n/a	n/a	0	0	0
1570527	REST_REWET	n/a	LTP386	ltpFR2	21	8	n/a	n/a	n/a	n/a	0	0	0
1741375	DISTRACTOR	n/a	LTP386	ltpFR2	21	9	n/a	n/a	n/a	n/a	0	0	0
1741375	START	n/a	LTP386	ltpFR2	21	n/a	n/a	n/a	13	n/a	n/a	n/a	n/a
1741391	PROB	n/a	LTP386	ltpFR2	21	n/a	n/a	n/a	13	19	7	5	7
1743241	PROB	n/a	LTP386	ltpFR2	21	n/a	n/a	n/a	13	15	7	3	5
1744676	PROB	n/a	LTP386	ltpFR2	21	n/a	n/a	n/a	13	12	2	8	2
1745676	PROB	n/a	LTP386	ltpFR2	21	n/a	n/a	n/a	13	9	1	6	2
1746858	PROB	n/a	LTP386	ltpFR2	21	n/a	n/a	n/a	13	7	5	1	1
1747908	PROB	n/a	LTP386	ltpFR2	21	n/a	n/a	n/a	13	8	4	3	1
1748925	PROB	n/a	LTP386	ltpFR2	21	n/a	n/a	n/a	13	9	2	5	2
1749941	PROB	n/a	LTP386	ltpFR2	21	n/a	n/a	n/a	13	9	5	2	2
1750875	PROB	n/a	LTP386	ltpFR2	21	n/a	n/a	n/a	13	22	9	4	9
1753108	PROB	n/a	LTP386	ltpFR2	21	n/a	n/a	n/a	13	6	4	1	1
1754008	PROB	n/a	LTP386	ltpFR2	21	n/a	n/a	n/a	13	21	4	8	9
1755908	PROB	n/a	LTP386	ltpFR2	21	n/a	n/a	n/a	13	20	3	9	8
1757824	PROB	n/a	LTP386	ltpFR2	21	n/a	n/a	n/a	13	14	2	3	9
1759024	PROB	n/a	LTP386	ltpFR2	21	n/a	n/a	n/a	13	22	6	9	9
1761158	PROB	n/a	LTP386	ltpFR2	21	n/a	n/a	n/a	13	18	6	8	4
1762791	PROB	n/a	LTP386	ltpFR2	21	n/a	n/a	n/a	13	16	4	4	8
1763886	STOP	n/a	LTP386	ltpFR2	21	n/a	n/a	n/a	13	n/a	n/a	n/a	n/a
1766324	WORD	wordpools/wasnorm_wordpool_576.txt	LTP386	ltpFR2	21	9	FOOTBALL	591	n/a	n/a	0	0	0
1768891	WORD	wordpools/wasnorm_wordpool_576.txt	LTP386	ltpFR2	21	9	TRIBE	1505	n/a	n/a	0	0	0
1771592	WORD	wordpools/wasnorm_wordpool_576.txt	LTP386	ltpFR2	21	9	HARP	689	n/a	n/a	0	0	0
1774291	WORD	wordpools/wasnorm_wordpool_576.txt	LTP386	ltpFR2	21	9	WASHER	1592	n/a	n/a	0	0	0
1776907	WORD	wordpools/wasnorm_wordpool_576.txt	LTP386	ltpFR2	21	9	CLOTHES	327	n/a	n/a	0	0	0
1779542	WORD	wordpools/wasnorm_wordpool_576.txt	LTP386	ltpFR2	21	9	COUNTRY	388	n/a	n/a	0	0	0
1781991	WORD	wordpools/wasnorm_wordpool_576.txt	LTP386	ltpFR2	21	9	CRAB	397	n/a	n/a	0	0	0
1784775	WORD	wordpools/wasnorm_wordpool_576.txt	LTP386	ltpFR2	21	9	JELLO	754	n/a	n/a	0	0	0
1787542	WORD	wordpools/wasnorm_wordpool_576.txt	LTP386	ltpFR2	21	9	PARTNER	1017	n/a	n/a	0	0	0
1790257	WORD	wordpools/wasnorm_wordpool_576.txt	LTP386	ltpFR2	21	9	FUNGUS	614	n/a	n/a	0	0	0
1793074	WORD	wordpools/wasnorm_wordpool_576.txt	LTP386	ltpFR2	21	9	COIN	343	n/a	n/a	0	0	0
1795524	WORD	wordpools/wasnorm_wordpool_576.txt	LTP386	ltpFR2	21	9	SWORD	1423	n/a	n/a	0	0	0
1798057	WORD	wordpools/wasnorm_wordpool_576.txt	LTP386	ltpFR2	21	9	POCKET	1093	n/a	n/a	0	0	0
1800575	WORD	wordpools/wasnorm_wordpool_576.txt	LTP386	ltpFR2	21	9	PREACHER	1119	n/a	n/a	0	0	0
1803007	WORD	wordpools/wasnorm_wordpool_576.txt	LTP386	ltpFR2	21	9	FLASK	576	n/a	n/a	0	0	0
1805824	WORD	wordpools/wasnorm_wordpool_576.txt	LTP386	ltpFR2	21	9	GANGSTER	620	n/a	n/a	0	0	0
1808474	WORD	wordpools/wasnorm_wordpool_576.txt	LTP386	ltpFR2	21	9	AIRPORT	13	n/a	n/a	0	0	0
1810907	WORD	wordpools/wasnorm_wordpool_576.txt	LTP386	ltpFR2	21	9	JAPAN	749	n/a	n/a	0	0	0
1813340	WORD	wordpools/wasnorm_wordpool_576.txt	LTP386	ltpFR2	21	9	ISLAND	745	n/a	n/a	0	0	0
1816157	WORD	wordpools/wasnorm_wordpool_576.txt	LTP386	ltpFR2	21	9	WOMAN	1620	n/a	n/a	0	0	0
1818890	WORD	wordpools/wasnorm_wordpool_576.txt	LTP386	ltpFR2	21	9	DANDRUFF	439	n/a	n/a	0	0	0
1821674	WORD	wordpools/wasnorm_wordpool_576.txt	LTP386	ltpFR2	21	9	TRANSPLANT	1496	n/a	n/a	0	0	0
1824107	WORD	wordpools/wasnorm_wordpool_576.txt	LTP386	ltpFR2	21	9	FLESH	579	n/a	n/a	0	0	0
1826790	WORD	wordpools/wasnorm_wordpool_576.txt	LTP386	ltpFR2	21	9	UMPIRE	1535	n/a	n/a	0	0	0
1828407	START	n/a	LTP386	ltpFR2	21	n/a	n/a	n/a	14	n/a	n/a	n/a	n/a
1829558	DISTRACTOR	n/a	LTP386	ltpFR2	21	9	n/a	n/a	n/a	n/a	0	0	0
1829574	PROB	n/a	LTP386	ltpFR2	21	n/a	n/a	n/a	14	15	4	7	4
1831057	PROB	n/a	LTP386	ltpFR2	21	n/a	n/a	n/a	14	19	8	5	7
1832907	PROB	n/a	LTP386	ltpFR2	21	n/a	n/a	n/a	14	26	8	9	9
1834541	PROB	n/a	LTP386	ltpFR2	21	n/a	n/a	n/a	14	13	6	6	1
1835558	PROB	n/a	LTP386	ltpFR2	21	n/a	n/a	n/a	14	15	7	3	5
1837290	PROB	n/a	LTP386	ltpFR2	21	n/a	n/a	n/a	14	19	5	5	9
1838240	PROB	n/a	LTP386	ltpFR2	21	n/a	n/a	n/a	14	17	8	3	6
1840873	PROB	n/a	LTP386	ltpFR2	21	n/a	n/a	n/a	14	19	3	8	8
1842823	PROB	n/a	LTP386	ltpFR2	21	n/a	n/a	n/a	14	22	7	7	8
1844807	PROB	n/a	LTP386	ltpFR2	21	n/a	n/a	n/a	14	11	7	3	1
1845923	PROB	n/a	LTP386	ltpFR2	21	n/a	n/a	n/a	14	15	4	3	8
1847140	PROB	n/a	LTP386	ltpFR2	21	n/a	n/a	n/a	14	13	8	3	2
1848557	PROB	n/a	LTP386	ltpFR2	21	n/a	n/a	n/a	14	15	7	5	3
1852401	STOP	n/a	LTP386	ltpFR2	21	n/a	n/a	n/a	14	n/a	n/a	n/a	n/a
1854191	REC_START	n/a	LTP386	ltpFR2	21	9	n/a	n/a	n/a	n/a	0	0	0
1854829	REC_WORD	wordpools/wasnorm_wordpool_576.txt	LTP386	ltpFR2	21	9	BALL	73	n/a	n/a	0	0	0
1855120	REC_WORD	wordpools/wasnorm_wordpool_576.txt	LTP386	ltpFR2	21	9	TRIBE	1505	n/a	n/a	0	0	0
1855629	REC_WORD	wordpools/wasnorm_wordpool_576.txt	LTP386	ltpFR2	21	9	HARP	689	n/a	n/a	0	0	0
1944639	WORD	wordpools/wasnorm_wordpool_576.txt	LTP386	ltpFR2	21	10	RUG	1215	n/a	n/a	0	0	0
1947122	WORD	wordpools/wasnorm_wordpool_576.txt	LTP386	ltpFR2	21	10	PLASTER	1085	n/a	n/a	0	0	0
1949872	WORD	wordpools/wasnorm_wordpool_576.txt	LTP386	ltpFR2	21	10	DONOR	485	n/a	n/a	0	0	0
1952455	WORD	wordpools/wasnorm_wordpool_576.txt	LTP386	ltpFR2	21	10	PUPPY	1144	n/a	n/a	0	0	0
1955272	WORD	wordpools/wasnorm_wordpool_576.txt	LTP386	ltpFR2	21	10	CONVICT	371	n/a	n/a	0	0	0
1957772	WORD	wordpools/wasnorm_wordpool_576.txt	LTP386	ltpFR2	21	10	CABIN	211	n/a	n/a	0	0	0
1960572	WORD	wordpools/wasnorm_wordpool_576.txt	LTP386	ltpFR2	21	10	JUDGE	761	n/a	n/a	0	0	0
1963055	WORD	wordpools/wasnorm_wordpool_576.txt	LTP386	ltpFR2	21	10	PECAN	1036	n/a	n/a	0	0	0
1965838	WORD	wordpools/wasnorm_wordpool_576.txt	LTP386	ltpFR2	21	10	SALMON	1227	n/a	n/a	0	0	0
1968271	WORD	wordpools/wasnorm_wordpool_576.txt	LTP386	ltpFR2	21	10	PLUTO	1092	n/a	n/a	0	0	0
1970772	WORD	wordpools/wasnorm_wordpool_576.txt	LTP386	ltpFR2	21	10	WIFE	1609	n/a	n/a	0	0	0
1973238	WORD	wordpools/wasnorm_wordpool_576.txt	LTP386	ltpFR2	21	10	WIDOW	1608	n/a	n/a	0	0	0
1975788	WORD	wordpools/wasnorm_wordpool_576.txt	LTP386	ltpFR2	21	10	BUNNY	198	n/a	n/a	0	0	0
1978321	WORD	wordpools/wasnorm_wordpool_576.txt	LTP386	ltpFR2	21	10	LOFT	840	n/a	n/a	0	0	0
1981054	WORD	wordpools/wasnorm_wordpool_576.txt	LTP386	ltpFR2	21	10	PEPPER	1047	n/a	n/a	0	0	0
1983622	WORD	wordpools/wasnorm_wordpool_576.txt	LTP386	ltpFR2	21	10	SALT	1229	n/a	n/a	0	0	0
1986338	WORD	wordpools/wasnorm_wordpool_576.txt	LTP386	ltpFR2	21	10	CANYON	235	n/a	n/a	0	0	0
1988838	WORD	wordpools/wasnorm_wordpool_576.txt	LTP386	ltpFR2	21	10	SUMMIT	1405	n/a	n/a	0	0	0
1991539	WORD	wordpools/wasnorm_wordpool_576.txt	LTP386	ltpFR2	21	10	SPOUSE	1358	n/a	n/a	0	0	0
1994038	WORD	wordpools/wasnorm_wordpool_576.txt	LTP386	ltpFR2	21	10	WITNESS	1618	n/a	n/a	0	0	0
1996638	WORD	wordpools/wasnorm_wordpool_576.txt	LTP386	ltpFR2	21	10	TORTOISE	1486	n/a	n/a	0	0	0
1999471	WORD	wordpools/wasnorm_wordpool_576.txt	LTP386	ltpFR2	21	10	BUGGY	188	n/a	n/a	0	0	0
2002004	WORD	wordpools/wasnorm_wordpool_576.txt	LTP386	ltpFR2	21	10	MUMMY	932	n/a	n/a	0	0	0
2004672	WORD	wordpools/wasnorm_wordpool_576.txt	LTP386	ltpFR2	21	10	COD	340	n/a	n/a	0	0	0
2006288	START	n/a	LTP386	ltpFR2	21	n/a	n/a	n/a	15	n/a	n/a	n/a	n/a
2007399	DISTRACTOR	n/a	LTP386	ltpFR2	21	10	n/a	n/a	n/a	n/a	0	0	0
2007404	PROB	n/a	LTP386	ltpFR2	21	n/a	n/a	n/a	15	7	2	2	3
2009071	PROB	n/a	LTP386	ltpFR2	21	n/a	n/a	n/a	15	15	2	5	8
2010287	PROB	n/a	LTP386	ltpFR2	21	n/a	n/a	n/a	15	20	9	7	4
2012605	PROB	n/a	LTP386	ltpFR2	21	n/a	n/a	n/a	15	17	1	8	8
2014021	PROB	n/a	LTP386	ltpFR2	21	n/a	n/a	n/a	15	8	2	5	1
2015471	PROB	n/a	LTP386	ltpFR2	21	n/a	n/a	n/a	15	20	7	6	7
2017421	PROB	n/a	LTP386	ltpFR2	21	n/a	n/a	n/a	15	15	1	7	7
2018387	PROB	n/a	LTP386	ltpFR2	21	n/a	n/a	n/a	15	16	5	2	9
2019487	PROB	n/a	LTP386	ltpFR2	21	n/a	n/a	n/a	15	15	4	5	6
2020837	PROB	n/a	LTP386	ltpFR2	21	n/a	n/a	n/a	15	11	3	6	2
2023254	PROB	n/a	LTP386	ltpFR2	21	n/a	n/a	n/a	15	9	3	3	3
2024337	PROB	n/a	LTP386	ltpFR2	21	n/a	n/a	n/a	15	19	9	2	8
2025837	PROB	n/a	LTP386	ltpFR2	21	n/a	n/a	n/a	15	13	5	5	3
2027504	PROB	n/a	LTP386	ltpFR2	21	n/a	n/a	n/a	15	20	5	8	7
2029238	STOP	n/a	LTP386	ltpFR2	21	n/a	n/a	n/a	15	n/a	n/a	n/a	n/a
2032137	REC_START	n/a	LTP386	ltpFR2	21	10	n/a	n/a	n/a	n/a	0	0	0
2033402	REC_WORD	wordpools/wasnorm_wordpool_576.txt	LTP386	ltpFR2	21	10	WIFE	1609	n/a	n/a	0	0	0
2034583	REC_WORD	wordpools/wasnorm_wordpool_576.txt	LTP386	ltpFR2	21	10	CANYON	235	n/a	n/a	0	0	0
2043353	REC_WORD	wordpools/wasnorm_wordpool_576.txt	LTP386	ltpFR2	21	10	RUG	1215	n/a	n/a	0	0	0
2044334	REC_WORD	wordpools/wasnorm_wordpool_576.txt	LTP386	ltpFR2	21	10	SALMON	1227	n/a	n/a	0	0	0
2122570	WORD	wordpools/wasnorm_wordpool_576.txt	LTP386	ltpFR2	21	11	STAPLE	1371	n/a	n/a	0	0	0
2125102	WORD	wordpools/wasnorm_wordpool_576.txt	LTP386	ltpFR2	21	11	MARSH	874	n/a	n/a	0	0	0
2127653	WORD	wordpools/wasnorm_wordpool_576.txt	LTP386	ltpFR2	21	11	SWAMP	1416	n/a	n/a	0	0	0
2130185	WORD	wordpools/wasnorm_wordpool_576.txt	LTP386	ltpFR2	21	11	POISON	1096	n/a	n/a	0	0	0
2132686	WORD	wordpools/wasnorm_wordpool_576.txt	LTP386	ltpFR2	21	11	TERMITE	1451	n/a	n/a	0	0	0
2135152	WORD	wordpools/wasnorm_wordpool_576.txt	LTP386	ltpFR2	21	11	CHAMPAGNE	278	n/a	n/a	0	0	0
2137852	WORD	wordpools/wasnorm_wordpool_576.txt	LTP386	ltpFR2	21	11	CORAL	378	n/a	n/a	0	0	0
2140636	WORD	wordpools/wasnorm_wordpool_576.txt	LTP386	ltpFR2	21	11	LAGOON	795	n/a	n/a	0	0	0
2143269	WORD	wordpools/wasnorm_wordpool_576.txt	LTP386	ltpFR2	21	11	MAILBOX	857	n/a	n/a	0	0	0
2145935	WORD	wordpools/wasnorm_wordpool_576.txt	LTP386	ltpFR2	21	11	LIGHTNING	820	n/a	n/a	0	0	0
2148636	WORD	wordpools/wasnorm_wordpool_576.txt	LTP386	ltpFR2	21	11	ARM	38	n/a	n/a	0	0	0
2151169	WORD	wordpools/wasnorm_wordpool_576.txt	LTP386	ltpFR2	21	11	CRUTCH	417	n/a	n/a	0	0	0
2153753	WORD	wordpools/wasnorm_wordpool_576.txt	LTP386	ltpFR2	21	11	LODGE	839	n/a	n/a	0	0	0
2156452	WORD	wordpools/wasnorm_wordpool_576.txt	LTP386	ltpFR2	21	11	MOTEL	919	n/a	n/a	0	0	0
2159018	WORD	wordpools/wasnorm_wordpool_576.txt	LTP386	ltpFR2	21	11	PARROT	1015	n/a	n/a	0	0	0
2161536	WORD	wordpools/wasnorm_wordpool_576.txt	LTP386	ltpFR2	21	11	PILOT	1070	n/a	n/a	0	0	0
2164002	WORD	wordpools/wasnorm_wordpool_576.txt	LTP386	ltpFR2	21	11	FLAG	573	n/a	n/a	0	0	0
2166502	WORD	wordpools/wasnorm_wordpool_576.txt	LTP386	ltpFR2	21	11	PATROL	1027	n/a	n/a	0	0	0
2168952	WORD	wordpools/wasnorm_wordpool_576.txt	LTP386	ltpFR2	21	11	HAMPER	682	n/a	n/a	0	0	0
2171653	WORD	wordpools/wasnorm_wordpool_576.txt	LTP386	ltpFR2	21	11	VICTIM	1562	n/a	n/a	0	0	0
2174418	WORD	wordpools/wasnorm_wordpool_576.txt	LTP386	ltpFR2	21	11	BULLET	194	n/a	n/a	0	0	0
2177218	WORD	wordpools/wasnorm_wordpool_576.txt	LTP386	ltpFR2	21	11	BOUQUET	157	n/a	n/a	0	0	0
2179769	WORD	wordpools/wasnorm_wordpool_576.txt	LTP386	ltpFR2	21	11	CABBAGE	210	n/a	n/a	0	0	0
2182569	WORD	wordpools/wasnorm_wordpool_576.txt	LTP386	ltpFR2	21	11	PIGEON	1065	n/a	n/a	0	0	0
2184185	START	n/a	LTP386	ltpFR2	21	n/a	n/a	n/a	16	n/a	n/a	n/a	n/a
2185244	DISTRACTOR	n/a	LTP386	ltpFR2	21	11	n/a	n/a	n/a	n/a	0	0	0
2185251	PROB	n/a	LTP386	ltpFR2	21	n/a	n/a	n/a	16	20	8	5	7
2188051	PROB	n/a	LTP386	ltpFR2	21	n/a	n/a	n/a	16	17	3	7	7
2189418	PROB	n/a	LTP386	ltpFR2	21	n/a	n/a	n/a	16	16	9	2	5
2190885	PROB	n/a	LTP386	ltpFR2	21	n/a	n/a	n/a	16	19	8	5	6
2192569	PROB	n/a	LTP386	ltpFR2	21	n/a	n/a	n/a	16	18	9	1	8
2194001	PROB	n/a	LTP386	ltpFR2	21	n/a	n/a	n/a	16	21	6	9	6
2195636	PROB	n/a	LTP386	ltpFR2	21	n/a	n/a	n/a	16	12	2	1	9
2196719	PROB	n/a	LTP386	ltpFR2	21	n/a	n/a	n/a	16	13	5	3	5
2197885	PROB	n/a	LTP386	ltpFR2	21	n/a	n/a	n/a	16	13	4	8	1
2199251	PROB	n/a	LTP386	ltpFR2	21	n/a	n/a	n/a	16	26	9	8	9
2200585	PROB	n/a	LTP386	ltpFR2	21	n/a	n/a	n/a	16	13	5	6	2
2201851	PROB	n/a	LTP386	ltpFR2	21	n/a	n/a	n/a	16	11	8	1	2
2203334	PROB	n/a	LTP386	ltpFR2	21	n/a	n/a	n/a	16	15	5	8	2
2205034	PROB	n/a	LTP386	ltpFR2	21	n/a	n/a	n/a	16	12	4	2	6
2208185	STOP	n/a	LTP386	ltpFR2	21	n/a	n/a	n/a	16	n/a	n/a	n/a	n/a
2210135	REC_START	n/a	LTP386	ltpFR2	21	11	n/a	n/a	n/a	n/a	0	0	0
2210851	REC_WORD	wordpools/wasnorm_wordpool_576.txt	LTP386	ltpFR2	21	11	MARSH	874	n/a	n/a	0	0	0
2212220	REC_WORD	wordpools/wasnorm_wordpool_576.txt	LTP386	ltpFR2	21	11	SWAMP	1416	n/a	n/a	0	0	0
2300567	DISTRACTOR	n/a	LTP386	ltpFR2	21	12	n/a	n/a	n/a	n/a	0	0	0
2300567	START	n/a	LTP386	ltpFR2	21	n/a	n/a	n/a	17	n/a	n/a	n/a	n/a
2300584	PROB	n/a	LTP386	ltpFR2	21	n/a	n/a	n/a	17	7	1	3	3
2302734	PROB	n/a	LTP386	ltpFR2	21	n/a	n/a	n/a	17	12	1	8	4
2304767	PROB	n/a	LTP386	ltpFR2	21	n/a	n/a	n/a	17	22	9	9	4
2306516	PROB	n/a	LTP386	ltpFR2	21	n/a	n/a	n/a	17	25	9	8	8
2309250	PROB	n/a	LTP386	ltpFR2	21	n/a	n/a	n/a	17	11	6	4	1
2310717	PROB	n/a	LTP386	ltpFR2	21	n/a	n/a	n/a	17	16	4	8	4
2311899	PROB	n/a	LTP386	ltpFR2	21	n/a	n/a	n/a	17	19	2	8	9
2313550	PROB	n/a	LTP386	ltpFR2	21	n/a	n/a	n/a	17	7	5	1	1
2314634	PROB	n/a	LTP386	ltpFR2	21	n/a	n/a	n/a	17	12	2	9	1
2315784	PROB	n/a	LTP386	ltpFR2	21	n/a	n/a	n/a	17	15	8	1	6
2317266	PROB	n/a	LTP386	ltpFR2	21	n/a	n/a	n/a	17	15	9	5	1
2318366	PROB	n/a	LTP386	ltpFR2	21	n/a	n/a	n/a	17	14	2	4	8
2319916	PROB	n/a	LTP386	ltpFR2	21	n/a	n/a	n/a	17	12	4	6	2
2320983	PROB	n/a	LTP386	ltpFR2	21	n/a	n/a	n/a	17	19	9	2	8
2322216	PROB	n/a	LTP386	ltpFR2	21	n/a	n/a	n/a	17	17	1	9	7
2323327	STOP	n/a	LTP386	ltpFR2	21	n/a	n/a	n/a	17	n/a	n/a	n/a	n/a
2325784	WORD	wordpools/wasnorm_wordpool_576.txt	LTP386	ltpFR2	21	12	BUG	187	n/a	n/a	0	0	0
2328333	WORD	wordpools/wasnorm_wordpool_576.txt	LTP386	ltpFR2	21	12	GRILL	661	n/a	n/a	0	0	0
2331016	WORD	wordpools/wasnorm_wordpool_576.txt	LTP386	ltpFR2	21	12	DINER	467	n/a	n/a	0	0	0
2333583	WORD	wordpools/wasnorm_wordpool_576.txt	LTP386	ltpFR2	21	12	MUFFIN	929	n/a	n/a	0	0	0
2336199	WORD	wordpools/wasnorm_wordpool_576.txt	LTP386	ltpFR2	21	12	TOASTER	1472	n/a	n/a	0	0	0
2338932	WORD	wordpools/wasnorm_wordpool_576.txt	LTP386	ltpFR2	21	12	SPONGE	1355	n/a	n/a	0	0	0
2341733	WORD	wordpools/wasnorm_wordpool_576.txt	LTP386	ltpFR2	21	12	MISSILE	900	n/a	n/a	0	0	0
2344449	WORD	wordpools/wasnorm_wordpool_576.txt	LTP386	ltpFR2	21	12	PEANUT	1032	n/a	n/a	0	0	0
2347149	WORD	wordpools/wasnorm_wordpool_576.txt	LTP386	ltpFR2	21	12	PARENT	1013	n/a	n/a	0	0	0
2349650	WORD	wordpools/wasnorm_wordpool_576.txt	LTP386	ltpFR2	21	12	DRAGON	492	n/a	n/a	0	0	0
2352316	WORD	wordpools/wasnorm_wordpool_576.txt	LTP386	ltpFR2	21	12	CONTRACT	368	n/a	n/a	0	0	0
2355132	WORD	wordpools/wasnorm_wordpool_576.txt	LTP386	ltpFR2	21	12	SHELTER	1282	n/a	n/a	0	0	0
2357949	WORD	wordpools/wasnorm_wordpool_576.txt	LTP386	ltpFR2	21	12	SMOG	1330	n/a	n/a	0	0	0
2360600	WORD	wordpools/wasnorm_wordpool_576.txt	LTP386	ltpFR2	21	12	ITEM	746	n/a	n/a	0	0	0
2363165	WORD	wordpools/wasnorm_wordpool_576.txt	LTP386	ltpFR2	21	12	COBRA	336	n/a	n/a	0	0	0
2365750	WORD	wordpools/wasnorm_wordpool_576.txt	LTP386	ltpFR2	21	12	CRICKET	408	n/a	n/a	0	0	0
2368215	WORD	wordpools/wasnorm_wordpool_576.txt	LTP386	ltpFR2	21	12	COOKBOOK	373	n/a	n/a	0	0	0
2370666	WORD	wordpools/wasnorm_wordpool_576.txt	LTP386	ltpFR2	21	12	LAKE	796	n/a	n/a	0	0	0
2373365	WORD	wordpools/wasnorm_wordpool_576.txt	LTP386	ltpFR2	21	12	CARRIAGE	248	n/a	n/a	0	0	0
2375798	WORD	wordpools/wasnorm_wordpool_576.txt	LTP386	ltpFR2	21	12	STONE	1385	n/a	n/a	0	0	0
2378432	WORD	wordpools/wasnorm_wordpool_576.txt	LTP386	ltpFR2	21	12	LAVA	804	n/a	n/a	0	0	0
2381048	WORD	wordpools/wasnorm_wordpool_576.txt	LTP386	ltpFR2	21	12	POWDER	1117	n/a	n/a	0	0	0
2383699	WORD	wordpools/wasnorm_wordpool_576.txt	LTP386	ltpFR2	21	12	POPCORN	1104	n/a	n/a	0	0	0
2386298	WORD	wordpools/wasnorm_wordpool_576.txt	LTP386	ltpFR2	21	12	CONCERT	360	n/a	n/a	0	0	0
2387915	START	n/a	LTP386	ltpFR2	21	n/a	n/a	n/a	18	n/a	n/a	n/a	n/a
2388775	DISTRACTOR	n/a	LTP386	ltpFR2	21	12	n/a	n/a	n/a	n/a	0	0	0
2388783	PROB	n/a	LTP386	ltpFR2	21	n/a	n/a	n/a	18	19	9	4	6
2390783	PROB	n/a	LTP386	ltpFR2	21	n/a	n/a	n/a	18	9	3	5	1
2392348	PROB	n/a	LTP386	ltpFR2	21	n/a	n/a	n/a	18	11	5	4	2
2393649	PROB	n/a	LTP386	ltpFR2	21	n/a	n/a	n/a	18	21	7	5	9
2394948	PROB	n/a	LTP386	ltpFR2	21	n/a	n/a	n/a	18	18	4	6	8
2396165	PROB	n/a	LTP386	ltpFR2	21	n/a	n/a	n/a	18	7	2	4	1
2397398	PROB	n/a	LTP386	ltpFR2	21	n/a	n/a	n/a	18	14	5	5	4
2398498	PROB	n/a	LTP386	ltpFR2	21	n/a	n/a	n/a	18	13	4	5	4
2400515	PROB	n/a	LTP386	ltpFR2	21	n/a	n/a	n/a	18	10	1	4	5
2401766	PROB	n/a	LTP386	ltpFR2	21	n/a	n/a	n/a	18	17	7	6	4
2402898	PROB	n/a	LTP386	ltpFR2	21	n/a	n/a	n/a	18	14	3	7	4
2404181	PROB	n/a	LTP386	ltpFR2	21	n/a	n/a	n/a	18	15	4	4	7
2405381	PROB	n/a	LTP386	ltpFR2	21	n/a	n/a	n/a	18	14	5	6	3
2407281	PROB	n/a	LTP386	ltpFR2	21	n/a	n/a	n/a	18	15	6	6	3
2409381	PROB	n/a	LTP386	ltpFR2	21	n/a	n/a	n/a	18	14	6	2	6
2410898	STOP	n/a	LTP386	ltpFR2	21	n/a	n/a	n/a	18	n/a	n/a	n/a	n/a
2413866	REC_START	n/a	LTP386	ltpFR2	21	12	n/a	n/a	n/a	n/a	0	0	0
2488861	REC_WORD_VV	wordpools/wasnorm_wordpool_576.txt	LTP386	ltpFR2	21	12	<>	-1	n/a	n/a	0	0	0
2504313	DISTRACTOR	n/a	LTP386	ltpFR2	21	13	n/a	n/a	n/a	n/a	0	0	0
2504313	START	n/a	LTP386	ltpFR2	21	n/a	n/a	n/a	19	n/a	n/a	n/a	n/a
2504330	PROB	n/a	LTP386	ltpFR2	21	n/a	n/a	n/a	19	22	9	6	7
2506180	PROB	n/a	LTP386	ltpFR2	21	n/a	n/a	n/a	19	21	7	6	8
2509230	PROB	n/a	LTP386	ltpFR2	21	n/a	n/a	n/a	19	25	8	8	9
2511080	PROB	n/a	LTP386	ltpFR2	21	n/a	n/a	n/a	19	13	2	5	6
2512263	PROB	n/a	LTP386	ltpFR2	21	n/a	n/a	n/a	19	21	7	5	9
2513731	PROB	n/a	LTP386	ltpFR2	21	n/a	n/a	n/a	19	21	6	6	9
2515246	PROB	n/a	LTP386	ltpFR2	21	n/a	n/a	n/a	19	13	2	4	7
2517280	PROB	n/a	LTP386	ltpFR2	21	n/a	n/a	n/a	19	22	9	5	9
2518747	PROB	n/a	LTP386	ltpFR2	21	n/a	n/a	n/a	19	16	4	5	7
2520346	PROB	n/a	LTP386	ltpFR2	21	n/a	n/a	n/a	19	12	7	2	3
2522697	PROB	n/a	LTP386	ltpFR2	21	n/a	n/a	n/a	19	13	9	2	2
2523781	PROB	n/a	LTP386	ltpFR2	21	n/a	n/a	n/a	19	9	3	1	5
2525013	PROB	n/a	LTP386	ltpFR2	21	n/a	n/a	n/a	19	16	5	6	5
2526263	PROB	n/a	LTP386	ltpFR2	21	n/a	n/a	n/a	19	20	7	5	8
2527822	STOP	n/a	LTP386	ltpFR2	21	n/a	n/a	n/a	19	n/a	n/a	n/a	n/a
2529379	WORD	wordpools/wasnorm_wordpool_576.txt	LTP386	ltpFR2	21	13	TRUCK	1512	n/a	n/a	0	0	0
2532113	WORD	wordpools/wasnorm_wordpool_576.txt	LTP386	ltpFR2	21	13	GRAVE	658	n/a	n/a	0	0	0
2534879	WORD	wordpools/wasnorm_wordpool_576.txt	LTP386	ltpFR2	21	13	DIVER	476	n/a	n/a	0	0	0
2537647	WORD	wordpools/wasnorm_wordpool_576.txt	LTP386	ltpFR2	21	13	CELLAR	267	n/a	n/a	0	0	0
2540313	WORD	wordpools/wasnorm_wordpool_576.txt	LTP386	ltpFR2	21	13	RABBIT	1152	n/a	n/a	0	0	0
2542946	WORD	wordpools/wasnorm_wordpool_576.txt	LTP386	ltpFR2	21	13	BLACKBOARD	133	n/a	n/a	0	0	0
2545379	WORD	wordpools/wasnorm_wordpool_576.txt	LTP386	ltpFR2	21	13	BOARD	143	n/a	n/a	0	0	0
2548096	WORD	wordpools/wasnorm_wordpool_576.txt	LTP386	ltpFR2	21	13	VALVE	1546	n/a	n/a	0	0	0
2550862	WORD	wordpools/wasnorm_wordpool_576.txt	LTP386	ltpFR2	21	13	ROBOT	1200	n/a	n/a	0	0	0
2553412	WORD	wordpools/wasnorm_wordpool_576.txt	LTP386	ltpFR2	21	13	BRAKE	166	n/a	n/a	0	0	0
2556029	WORD	wordpools/wasnorm_wordpool_576.txt	LTP386	ltpFR2	21	13	WHISTLE	1606	n/a	n/a	0	0	0
2558547	WORD	wordpools/wasnorm_wordpool_576.txt	LTP386	ltpFR2	21	13	BLOUSE	139	n/a	n/a	0	0	0
2561312	WORD	wordpools/wasnorm_wordpool_576.txt	LTP386	ltpFR2	21	13	PICNIC	1060	n/a	n/a	0	0	0
2563896	WORD	wordpools/wasnorm_wordpool_576.txt	LTP386	ltpFR2	21	13	MOTOR	922	n/a	n/a	0	0	0
2566329	WORD	wordpools/wasnorm_wordpool_576.txt	LTP386	ltpFR2	21	13	JOURNAL	760	n/a	n/a	0	0	0
2568912	WORD	wordpools/wasnorm_wordpool_576.txt	LTP386	ltpFR2	21	13	EYELASH	546	n/a	n/a	0	0	0
2571663	WORD	wordpools/wasnorm_wordpool_576.txt	LTP386	ltpFR2	21	13	JUGGLER	763	n/a	n/a	0	0	0
2574445	WORD	wordpools/wasnorm_wordpool_576.txt	LTP386	ltpFR2	21	13	CATTLE	261	n/a	n/a	0	0	0
2577129	WORD	wordpools/wasnorm_wordpool_576.txt	LTP386	ltpFR2	21	13	ONION	977	n/a	n/a	0	0	0
2579613	WORD	wordpools/wasnorm_wordpool_576.txt	LTP386	ltpFR2	21	13	FRAGRANCE	599	n/a	n/a	0	0	0
2582362	WORD	wordpools/wasnorm_wordpool_576.txt	LTP386	ltpFR2	21	13	TROMBONE	1508	n/a	n/a	0	0	0
2585112	WORD	wordpools/wasnorm_wordpool_576.txt	LTP386	ltpFR2	21	13	MATTRESS	879	n/a	n/a	0	0	0
2587680	WORD	wordpools/wasnorm_wordpool_576.txt	LTP386	ltpFR2	21	13	TROUT	1511	n/a	n/a	0	0	0
2590162	WORD	wordpools/wasnorm_wordpool_576.txt	LTP386	ltpFR2	21	13	TURTLE	1522	n/a	n/a	0	0	0
2591780	START	n/a	LTP386	ltpFR2	21	n/a	n/a	n/a	20	n/a	n/a	n/a	n/a
2592581	DISTRACTOR	n/a	LTP386	ltpFR2	21	13	n/a	n/a	n/a	n/a	0	0	0
2592596	PROB	n/a	LTP386	ltpFR2	21	n/a	n/a	n/a	20	12	5	6	1
2594696	PROB	n/a	LTP386	ltpFR2	21	n/a	n/a	n/a	20	14	1	6	7
2596062	PROB	n/a	LTP386	ltpFR2	21	n/a	n/a	n/a	20	8	3	3	2
2597379	PROB	n/a	LTP386	ltpFR2	21	n/a	n/a	n/a	20	20	9	5	6
2598429	PROB	n/a	LTP386	ltpFR2	21	n/a	n/a	n/a	20	11	2	5	4
2599629	PROB	n/a	LTP386	ltpFR2	21	n/a	n/a	n/a	20	10	3	1	6
2600862	PROB	n/a	LTP386	ltpFR2	21	n/a	n/a	n/a	20	14	7	5	2
2603145	PROB	n/a	LTP386	ltpFR2	21	n/a	n/a	n/a	20	16	5	9	3
2605312	PROB	n/a	LTP386	ltpFR2	21	n/a	n/a	n/a	20	12	1	9	2
2606345	PROB	n/a	LTP386	ltpFR2	21	n/a	n/a	n/a	20	15	7	2	6
2608579	PROB	n/a	LTP386	ltpFR2	21	n/a	n/a	n/a	20	19	9	4	6
2609596	PROB	n/a	LTP386	ltpFR2	21	n/a	n/a	n/a	20	17	9	5	3
2610962	PROB	n/a	LTP386	ltpFR2	21	n/a	n/a	n/a	20	13	3	5	5
2612112	PROB	n/a	LTP386	ltpFR2	21	n/a	n/a	n/a	20	9	3	2	4
2613646	PROB	n/a	LTP386	ltpFR2	21	n/a	n/a	n/a	20	20	9	3	8
2614936	STOP	n/a	LTP386	ltpFR2	21	n/a	n/a	n/a	20	n/a	n/a	n/a	n/a
2617596	REC_START	n/a	LTP386	ltpFR2	21	13	n/a	n/a	n/a	n/a	0	0	0
2618435	REC_WORD	wordpools/wasnorm_wordpool_576.txt	LTP386	ltpFR2	21	13	TRUCK	1512	n/a	n/a	0	0	0
2619102	REC_WORD	wordpools/wasnorm_wordpool_576.txt	LTP386	ltpFR2	21	13	GRAVE	658	n/a	n/a	0	0	0
2621775	REC_WORD	wordpools/wasnorm_wordpool_576.txt	LTP386	ltpFR2	21	13	TAIL	1430	n/a	n/a	0	0	0
2708043	DISTRACTOR	n/a	LTP386	ltpFR2	21	14	n/a	n/a	n/a	n/a	0	0	0
2708044	START	n/a	LTP386	ltpFR2	21	n/a	n/a	n/a	21	n/a	n/a	n/a	n/a
2708060	PROB	n/a	LTP386	ltpFR2	21	n/a	n/a	n/a	21	18	1	8	9
2709711	PROB	n/a	LTP386	ltpFR2	21	n/a	n/a	n/a	21	21	8	8	5
2711027	PROB	n/a	LTP386	ltpFR2	21	n/a	n/a	n/a	21	23	9	7	7
2712327	PROB	n/a	LTP386	ltpFR2	21	n/a	n/a	n/a	21	17	7	3	7
2713510	PROB	n/a	LTP386	ltpFR2	21	n/a	n/a	n/a	21	9	2	1	6
2714761	PROB	n/a	LTP386	ltpFR2	21	n/a	n/a	n/a	21	9	1	4	4
2715761	PROB	n/a	LTP386	ltpFR2	21	n/a	n/a	n/a	21	13	6	3	4
2717077	PROB	n/a	LTP386	ltpFR2	21	n/a	n/a	n/a	21	21	9	6	6
2718227	PROB	n/a	LTP386	ltpFR2	21	n/a	n/a	n/a	21	15	3	7	5
2720043	PROB	n/a	LTP386	ltpFR2	21	n/a	n/a	n/a	21	26	8	9	7
2722193	PROB	n/a	LTP386	ltpFR2	21	n/a	n/a	n/a	21	11	4	2	5
2723810	PROB	n/a	LTP386	ltpFR2	21	n/a	n/a	n/a	21	19	3	9	7
2725043	PROB	n/a	LTP386	ltpFR2	21	n/a	n/a	n/a	21	11	2	6	3
2726594	PROB	n/a	LTP386	ltpFR2	21	n/a	n/a	n/a	21	21	9	5	8
2728611	PROB	n/a	LTP386	ltpFR2	21	n/a	n/a	n/a	21	16	8	3	5
2730493	PROB	n/a	LTP386	ltpFR2	21	n/a	n/a	n/a	21	12	6	5	1
2731589	STOP	n/a	LTP386	ltpFR2	21	n/a	n/a	n/a	21	n/a	n/a	n/a	n/a
2733060	WORD	wordpools/wasnorm_wordpool_576.txt	LTP386	ltpFR2	21	14	PICTURE	1061	n/a	n/a	0	0	0
2735661	WORD	wordpools/wasnorm_wordpool_576.txt	LTP386	ltpFR2	21	14	SEAL	1262	n/a	n/a	0	0	0
2738476	WORD	wordpools/wasnorm_wordpool_576.txt	LTP386	ltpFR2	21	14	OUTFIT	988	n/a	n/a	0	0	0
2741126	WORD	wordpools/wasnorm_wordpool_576.txt	LTP386	ltpFR2	21	14	VIKING	1565	n/a	n/a	0	0	0
2743893	WORD	wordpools/wasnorm_wordpool_576.txt	LTP386	ltpFR2	21	14	BANQUET	86	n/a	n/a	0	0	0
2746393	WORD	wordpools/wasnorm_wordpool_576.txt	LTP386	ltpFR2	21	14	SAUSAGE	1238	n/a	n/a	0	0	0
2749026	WORD	wordpools/wasnorm_wordpool_576.txt	LTP386	ltpFR2	21	14	ULCER	1533	n/a	n/a	0	0	0
2751826	WORD	wordpools/wasnorm_wordpool_576.txt	LTP386	ltpFR2	21	14	CHEMIST	292	n/a	n/a	0	0	0
2754376	WORD	wordpools/wasnorm_wordpool_576.txt	LTP386	ltpFR2	21	14	BABY	64	n/a	n/a	0	0	0
2757043	WORD	wordpools/wasnorm_wordpool_576.txt	LTP386	ltpFR2	21	14	TILE	1468	n/a	n/a	0	0	0
2759544	WORD	wordpools/wasnorm_wordpool_576.txt	LTP386	ltpFR2	21	14	LOVER	846	n/a	n/a	0	0	0
2762293	WORD	wordpools/wasnorm_wordpool_576.txt	LTP386	ltpFR2	21	14	BODY	145	n/a	n/a	0	0	0
2764760	WORD	wordpools/wasnorm_wordpool_576.txt	LTP386	ltpFR2	21	14	MACHINE	852	n/a	n/a	0	0	0
2767309	WORD	wordpools/wasnorm_wordpool_576.txt	LTP386	ltpFR2	21	14	BEAKER	104	n/a	n/a	0	0	0
2769744	WORD	wordpools/wasnorm_wordpool_576.txt	LTP386	ltpFR2	21	14	LIVER	833	n/a	n/a	0	0	0
2772409	WORD	wordpools/wasnorm_wordpool_576.txt	LTP386	ltpFR2	21	14	KETCHUP	771	n/a	n/a	0	0	0
2775059	WORD	wordpools/wasnorm_wordpool_576.txt	LTP386	ltpFR2	21	14	OZONE	996	n/a	n/a	0	0	0
2777760	WORD	wordpools/wasnorm_wordpool_576.txt	LTP386	ltpFR2	21	14	GLOBE	641	n/a	n/a	0	0	0
2780509	WORD	wordpools/wasnorm_wordpool_576.txt	LTP386	ltpFR2	21	14	SCULPTURE	1258	n/a	n/a	0	0	0
2783159	WORD	wordpools/wasnorm_wordpool_576.txt	LTP386	ltpFR2	21	14	CHILD	299	n/a	n/a	0	0	0
2785677	WORD	wordpools/wasnorm_wordpool_576.txt	LTP386	ltpFR2	21	14	HIGHWAY	707	n/a	n/a	0	0	0
2788276	WORD	wordpools/wasnorm_wordpool_576.txt	LTP386	ltpFR2	21	14	SIDEWALK	1303	n/a	n/a	0	0	0
2790760	WORD	wordpools/wasnorm_wordpool_576.txt	LTP386	ltpFR2	21	14	STATUE	1374	n/a	n/a	0	0	0
2793509	WORD	wordpools/wasnorm_wordpool_576.txt	LTP386	ltpFR2	21	14	FOX	598	n/a	n/a	0	0	0
2795126	START	n/a	LTP386	ltpFR2	21	n/a	n/a	n/a	22	n/a	n/a	n/a	n/a
2796324	DISTRACTOR	n/a	LTP386	ltpFR2	21	14	n/a	n/a	n/a	n/a	0	0	0
2796326	PROB	n/a	LTP386	ltpFR2	21	n/a	n/a	n/a	22	14	7	4	3
2798476	PROB	n/a	LTP386	ltpFR2	21	n/a	n/a	n/a	22	9	3	2	4
2800275	PROB	n/a	LTP386	ltpFR2	21	n/a	n/a	n/a	22	10	1	5	4
2801975	PROB	n/a	LTP386	ltpFR2	21	n/a	n/a	n/a	22	24	8	8	8
2803892	PROB	n/a	LTP386	ltpFR2	21	n/a	n/a	n/a	22	10	5	3	2
2805925	PROB	n/a	LTP386	ltpFR2	21	n/a	n/a	n/a	22	19	5	9	1
2806942	PROB	n/a	LTP386	ltpFR2	21	n/a	n/a	n/a	22	19	5	6	8
2808626	PROB	n/a	LTP386	ltpFR2	21	n/a	n/a	n/a	22	16	9	3	4
2809743	PROB	n/a	LTP386	ltpFR2	21	n/a	n/a	n/a	22	11	1	1	9
2810560	PROB	n/a	LTP386	ltpFR2	21	n/a	n/a	n/a	22	15	3	8	4
2812342	PROB	n/a	LTP386	ltpFR2	21	n/a	n/a	n/a	22	14	5	7	2
2814092	PROB	n/a	LTP386	ltpFR2	21	n/a	n/a	n/a	22	16	4	9	3
2815992	PROB	n/a	LTP386	ltpFR2	21	n/a	n/a	n/a	22	6	3	2	1
2817025	PROB	n/a	LTP386	ltpFR2	21	n/a	n/a	n/a	22	18	5	6	7
2818287	STOP	n/a	LTP386	ltpFR2	21	n/a	n/a	n/a	22	n/a	n/a	n/a	n/a
2821026	REC_START	n/a	LTP386	ltpFR2	21	14	n/a	n/a	n/a	n/a	0	0	0
2822237	REC_WORD	wordpools/wasnorm_wordpool_576.txt	LTP386	ltpFR2	21	14	PICTURE	1061	n/a	n/a	0	0	0
2823111	REC_WORD	wordpools/wasnorm_wordpool_576.txt	LTP386	ltpFR2	21	14	SEAL	1262	n/a	n/a	0	0	0
2825340	REC_WORD	wordpools/wasnorm_wordpool_576.txt	LTP386	ltpFR2	21	14	ULCER	1533	n/a	n/a	0	0	0
2911457	DISTRACTOR	n/a	LTP386	ltpFR2	21	15	n/a	n/a	n/a	n/a	0	0	0
2911458	START	n/a	LTP386	ltpFR2	21	n/a	n/a	n/a	23	n/a	n/a	n/a	n/a
2911474	PROB	n/a	LTP386	ltpFR2	21	n/a	n/a	n/a	23	13	4	7	2
2913357	PROB	n/a	LTP386	ltpFR2	21	n/a	n/a	n/a	23	20	5	9	6
2914725	PROB	n/a	LTP386	ltpFR2	21	n/a	n/a	n/a	23	18	7	6	5
2915874	PROB	n/a	LTP386	ltpFR2	21	n/a	n/a	n/a	23	3	1	1	1
2916675	PROB	n/a	LTP386	ltpFR2	21	n/a	n/a	n/a	23	16	7	1	8
2918207	PROB	n/a	LTP386	ltpFR2	21	n/a	n/a	n/a	23	13	2	6	5
2919290	PROB	n/a	LTP386	ltpFR2	21	n/a	n/a	n/a	23	20	7	9	4
2920524	PROB	n/a	LTP386	ltpFR2	21	n/a	n/a	n/a	23	9	2	4	3
2921658	PROB	n/a	LTP386	ltpFR2	21	n/a	n/a	n/a	23	18	2	9	7
2923541	PROB	n/a	LTP386	ltpFR2	21	n/a	n/a	n/a	23	13	9	2	2
2924575	PROB	n/a	LTP386	ltpFR2	21	n/a	n/a	n/a	23	16	6	5	5
2925790	PROB	n/a	LTP386	ltpFR2	21	n/a	n/a	n/a	23	18	3	9	6
2927057	PROB	n/a	LTP386	ltpFR2	21	n/a	n/a	n/a	23	10	2	3	5
2928490	PROB	n/a	LTP386	ltpFR2	21	n/a	n/a	n/a	23	25	9	9	7
2930374	PROB	n/a	LTP386	ltpFR2	21	n/a	n/a	n/a	23	13	4	6	3
2931457	PROB	n/a	LTP386	ltpFR2	21	n/a	n/a	n/a	23	16	5	8	3
2932940	PROB	n/a	LTP386	ltpFR2	21	n/a	n/a	n/a	23	17	5	6	6
2934986	STOP	n/a	LTP386	ltpFR2	21	n/a	n/a	n/a	23	n/a	n/a	n/a	n/a
2936407	WORD	wordpools/wasnorm_wordpool_576.txt	LTP386	ltpFR2	21	15	QUAIL	1147	n/a	n/a	0	0	0
2939123	WORD	wordpools/wasnorm_wordpool_576.txt	LTP386	ltpFR2	21	15	PRINCESS	1125	n/a	n/a	0	0	0
2941857	WORD	wordpools/wasnorm_wordpool_576.txt	LTP386	ltpFR2	21	15	RIFLE	1192	n/a	n/a	0	0	0
2944340	WORD	wordpools/wasnorm_wordpool_576.txt	LTP386	ltpFR2	21	15	FIREMAN	569	n/a	n/a	0	0	0
2947007	WORD	wordpools/wasnorm_wordpool_576.txt	LTP386	ltpFR2	21	15	EGYPT	519	n/a	n/a	0	0	0
2949541	WORD	wordpools/wasnorm_wordpool_576.txt	LTP386	ltpFR2	21	15	KEEPER	769	n/a	n/a	0	0	0
2952173	WORD	wordpools/wasnorm_wordpool_576.txt	LTP386	ltpFR2	21	15	PIZZA	1079	n/a	n/a	0	0	0
2954906	WORD	wordpools/wasnorm_wordpool_576.txt	LTP386	ltpFR2	21	15	PASTRY	1022	n/a	n/a	0	0	0
2957574	WORD	wordpools/wasnorm_wordpool_576.txt	LTP386	ltpFR2	21	15	CANAL	226	n/a	n/a	0	0	0
2960273	WORD	wordpools/wasnorm_wordpool_576.txt	LTP386	ltpFR2	21	15	BROOK	177	n/a	n/a	0	0	0
2963023	WORD	wordpools/wasnorm_wordpool_576.txt	LTP386	ltpFR2	21	15	CATCHER	258	n/a	n/a	0	0	0
2965806	WORD	wordpools/wasnorm_wordpool_576.txt	LTP386	ltpFR2	21	15	TART	1436	n/a	n/a	0	0	0
2968624	WORD	wordpools/wasnorm_wordpool_576.txt	LTP386	ltpFR2	21	15	MARS	873	n/a	n/a	0	0	0
2971106	WORD	wordpools/wasnorm_wordpool_576.txt	LTP386	ltpFR2	21	15	ARMY	39	n/a	n/a	0	0	0
2973873	WORD	wordpools/wasnorm_wordpool_576.txt	LTP386	ltpFR2	21	15	MARINE	869	n/a	n/a	0	0	0
2976423	WORD	wordpools/wasnorm_wordpool_576.txt	LTP386	ltpFR2	21	15	SKILLET	1317	n/a	n/a	0	0	0
2979056	WORD	wordpools/wasnorm_wordpool_576.txt	LTP386	ltpFR2	21	15	LEOPARD	812	n/a	n/a	0	0	0
2981740	WORD	wordpools/wasnorm_wordpool_576.txt	LTP386	ltpFR2	21	15	PRIMATE	1123	n/a	n/a	0	0	0
2984273	WORD	wordpools/wasnorm_wordpool_576.txt	LTP386	ltpFR2	21	15	ATOM	55	n/a	n/a	0	0	0
2986989	WORD	wordpools/wasnorm_wordpool_576.txt	LTP386	ltpFR2	21	15	THRONE	1461	n/a	n/a	0	0	0
2989789	WORD	wordpools/wasnorm_wordpool_576.txt	LTP386	ltpFR2	21	15	ROBIN	1199	n/a	n/a	0	0	0
2992473	WORD	wordpools/wasnorm_wordpool_576.txt	LTP386	ltpFR2	21	15	COUNTY	389	n/a	n/a	0	0	0
2995139	WORD	wordpools/wasnorm_wordpool_576.txt	LTP386	ltpFR2	21	15	SANDWICH	1232	n/a	n/a	0	0	0
2997657	WORD	wordpools/wasnorm_wordpool_576.txt	LTP386	ltpFR2	21	15	BURGLAR	200	n/a	n/a	0	0	0
2999273	START	n/a	LTP386	ltpFR2	21	n/a	n/a	n/a	24	n/a	n/a	n/a	n/a
3000362	DISTRACTOR	n/a	LTP386	ltpFR2	21	15	n/a	n/a	n/a	n/a	0	0	0
3000372	PROB	n/a	LTP386	ltpFR2	21	n/a	n/a	n/a	24	14	4	9	1
3002172	PROB	n/a	LTP386	ltpFR2	21	n/a	n/a	n/a	24	17	8	1	8
3003573	PROB	n/a	LTP386	ltpFR2	21	n/a	n/a	n/a	24	11	6	4	1
3004506	PROB	n/a	LTP386	ltpFR2	21	n/a	n/a	n/a	24	21	7	7	7
3005540	PROB	n/a	LTP386	ltpFR2	21	n/a	n/a	n/a	24	13	4	6	3
3006489	PROB	n/a	LTP386	ltpFR2	21	n/a	n/a	n/a	24	16	3	6	7
3008072	PROB	n/a	LTP386	ltpFR2	21	n/a	n/a	n/a	24	18	9	5	4
3009206	PROB	n/a	LTP386	ltpFR2	21	n/a	n/a	n/a	24	19	3	8	8
3011972	PROB	n/a	LTP386	ltpFR2	21	n/a	n/a	n/a	24	16	1	7	8
3014022	PROB	n/a	LTP386	ltpFR2	21	n/a	n/a	n/a	24	12	7	4	1
3015056	PROB	n/a	LTP386	ltpFR2	21	n/a	n/a	n/a	24	13	4	5	4
3016856	PROB	n/a	LTP386	ltpFR2	21	n/a	n/a	n/a	24	10	6	1	3
3018022	PROB	n/a	LTP386	ltpFR2	21	n/a	n/a	n/a	24	12	7	3	2
3019172	PROB	n/a	LTP386	ltpFR2	21	n/a	n/a	n/a	24	13	9	1	3
3020489	PROB	n/a	LTP386	ltpFR2	21	n/a	n/a	n/a	24	12	7	4	1
3021813	STOP	n/a	LTP386	ltpFR2	21	n/a	n/a	n/a	24	n/a	n/a	n/a	n/a
3025223	REC_START	n/a	LTP386	ltpFR2	21	15	n/a	n/a	n/a	n/a	0	0	0
3025700	REC_WORD	wordpools/wasnorm_wordpool_576.txt	LTP386	ltpFR2	21	15	QUAIL	1147	n/a	n/a	0	0	0
3026429	REC_WORD	wordpools/wasnorm_wordpool_576.txt	LTP386	ltpFR2	21	15	PRINCESS	1125	n/a	n/a	0	0	0
3027349	REC_WORD	wordpools/wasnorm_wordpool_576.txt	LTP386	ltpFR2	21	15	RIFLE	1192	n/a	n/a	0	0	0
3029950	REC_WORD	wordpools/wasnorm_wordpool_576.txt	LTP386	ltpFR2	21	15	BROOK	177	n/a	n/a	0	0	0
3115655	WORD	wordpools/wasnorm_wordpool_576.txt	LTP386	ltpFR2	21	16	DIME	466	n/a	n/a	0	0	0
3118437	WORD	wordpools/wasnorm_wordpool_576.txt	LTP386	ltpFR2	21	16	FRIAR	605	n/a	n/a	0	0	0
3121154	WORD	wordpools/wasnorm_wordpool_576.txt	LTP386	ltpFR2	21	16	SCARF	1246	n/a	n/a	0	0	0
3123722	WORD	wordpools/wasnorm_wordpool_576.txt	LTP386	ltpFR2	21	16	NOMAD	955	n/a	n/a	0	0	0
3126254	WORD	wordpools/wasnorm_wordpool_576.txt	LTP386	ltpFR2	21	16	FIDDLE	561	n/a	n/a	0	0	0
3129054	WORD	wordpools/wasnorm_wordpool_576.txt	LTP386	ltpFR2	21	16	BANJO	82	n/a	n/a	0	0	0
3131688	WORD	wordpools/wasnorm_wordpool_576.txt	LTP386	ltpFR2	21	16	OUTDOORS	987	n/a	n/a	0	0	0
3134321	WORD	wordpools/wasnorm_wordpool_576.txt	LTP386	ltpFR2	21	16	OFFICE	972	n/a	n/a	0	0	0
3137054	WORD	wordpools/wasnorm_wordpool_576.txt	LTP386	ltpFR2	21	16	BRIEFCASE	175	n/a	n/a	0	0	0
3139738	WORD	wordpools/wasnorm_wordpool_576.txt	LTP386	ltpFR2	21	16	PUPIL	1143	n/a	n/a	0	0	0
3142555	WORD	wordpools/wasnorm_wordpool_576.txt	LTP386	ltpFR2	21	16	SEAGULL	1261	n/a	n/a	0	0	0
3145320	WORD	wordpools/wasnorm_wordpool_576.txt	LTP386	ltpFR2	21	16	LETTUCE	814	n/a	n/a	0	0	0
3148120	WORD	wordpools/wasnorm_wordpool_576.txt	LTP386	ltpFR2	21	16	SLOPE	1328	n/a	n/a	0	0	0
3150904	WORD	wordpools/wasnorm_wordpool_576.txt	LTP386	ltpFR2	21	16	PLAZA	1088	n/a	n/a	0	0	0
3153354	WORD	wordpools/wasnorm_wordpool_576.txt	LTP386	ltpFR2	21	16	CARROT	249	n/a	n/a	0	0	0
3155987	WORD	wordpools/wasnorm_wordpool_576.txt	LTP386	ltpFR2	21	16	TOURIST	1488	n/a	n/a	0	0	0
3158554	WORD	wordpools/wasnorm_wordpool_576.txt	LTP386	ltpFR2	21	16	LADY	794	n/a	n/a	0	0	0
3161037	WORD	wordpools/wasnorm_wordpool_576.txt	LTP386	ltpFR2	21	16	VALLEY	1545	n/a	n/a	0	0	0
3163721	WORD	wordpools/wasnorm_wordpool_576.txt	LTP386	ltpFR2	21	16	SURVEY	1414	n/a	n/a	0	0	0
3166187	WORD	wordpools/wasnorm_wordpool_576.txt	LTP386	ltpFR2	21	16	PAPER	1011	n/a	n/a	0	0	0
3168937	WORD	wordpools/wasnorm_wordpool_576.txt	LTP386	ltpFR2	21	16	DOUGHNUT	490	n/a	n/a	0	0	0
3171571	WORD	wordpools/wasnorm_wordpool_576.txt	LTP386	ltpFR2	21	16	PIGMENT	1066	n/a	n/a	0	0	0
3174120	WORD	wordpools/wasnorm_wordpool_576.txt	LTP386	ltpFR2	21	16	STREAM	1392	n/a	n/a	0	0	0
3176671	WORD	wordpools/wasnorm_wordpool_576.txt	LTP386	ltpFR2	21	16	FOREHEAD	592	n/a	n/a	0	0	0
3178287	START	n/a	LTP386	ltpFR2	21	n/a	n/a	n/a	25	n/a	n/a	n/a	n/a
3179284	DISTRACTOR	n/a	LTP386	ltpFR2	21	16	n/a	n/a	n/a	n/a	0	0	0
3179286	PROB	n/a	LTP386	ltpFR2	21	n/a	n/a	n/a	25	16	3	9	4
3181120	PROB	n/a	LTP386	ltpFR2	21	n/a	n/a	n/a	25	14	6	7	1
3183086	PROB	n/a	LTP386	ltpFR2	21	n/a	n/a	n/a	25	15	9	1	5
3184136	PROB	n/a	LTP386	ltpFR2	21	n/a	n/a	n/a	25	14	5	2	7
3185771	PROB	n/a	LTP386	ltpFR2	21	n/a	n/a	n/a	25	18	9	5	4
3188520	PROB	n/a	LTP386	ltpFR2	21	n/a	n/a	n/a	25	14	2	8	4
3191520	PROB	n/a	LTP386	ltpFR2	21	n/a	n/a	n/a	25	18	4	8	6
3192704	PROB	n/a	LTP386	ltpFR2	21	n/a	n/a	n/a	25	12	5	1	6
3193737	PROB	n/a	LTP386	ltpFR2	21	n/a	n/a	n/a	25	15	6	8	3
3195320	PROB	n/a	LTP386	ltpFR2	21	n/a	n/a	n/a	25	5	1	3	1
3196170	PROB	n/a	LTP386	ltpFR2	21	n/a	n/a	n/a	25	7	2	1	4
3198170	PROB	n/a	LTP386	ltpFR2	21	n/a	n/a	n/a	25	18	7	7	4
3199420	PROB	n/a	LTP386	ltpFR2	21	n/a	n/a	n/a	25	16	5	4	7
3202287	STOP	n/a	LTP386	ltpFR2	21	n/a	n/a	n/a	25	n/a	n/a	n/a	n/a
3204237	REC_START	n/a	LTP386	ltpFR2	21	16	n/a	n/a	n/a	n/a	0	0	0
3205322	REC_WORD	wordpools/wasnorm_wordpool_576.txt	LTP386	ltpFR2	21	16	DIME	466	n/a	n/a	0	0	0
3205763	REC_WORD	wordpools/wasnorm_wordpool_576.txt	LTP386	ltpFR2	21	16	FRIAR	605	n/a	n/a	0	0	0
3206273	REC_WORD	wordpools/wasnorm_wordpool_576.txt	LTP386	ltpFR2	21	16	SCARF	1246	n/a	n/a	0	0	0
3280769	REST_REWET	n/a	LTP386	ltpFR2	21	16	n/a	n/a	n/a	n/a	0	0	0
3434216	WORD	wordpools/wasnorm_wordpool_576.txt	LTP386	ltpFR2	21	17	NURSE	963	n/a	n/a	0	0	0
3436949	WORD	wordpools/wasnorm_wordpool_576.txt	LTP386	ltpFR2	21	17	SPOON	1357	n/a	n/a	0	0	0
3439700	WORD	wordpools/wasnorm_wordpool_576.txt	LTP386	ltpFR2	21	17	BLADE	134	n/a	n/a	0	0	0
3442466	WORD	wordpools/wasnorm_wordpool_576.txt	LTP386	ltpFR2	21	17	SUPPER	1411	n/a	n/a	0	0	0
3445282	WORD	wordpools/wasnorm_wordpool_576.txt	LTP386	ltpFR2	21	17	SISTER	1312	n/a	n/a	0	0	0
3448082	WORD	wordpools/wasnorm_wordpool_576.txt	LTP386	ltpFR2	21	17	DRILL	497	n/a	n/a	0	0	0
3450567	WORD	wordpools/wasnorm_wordpool_576.txt	LTP386	ltpFR2	21	17	TREAT	1501	n/a	n/a	0	0	0
3453016	WORD	wordpools/wasnorm_wordpool_576.txt	LTP386	ltpFR2	21	17	STOVE	1388	n/a	n/a	0	0	0
3455533	WORD	wordpools/wasnorm_wordpool_576.txt	LTP386	ltpFR2	21	17	PRINCE	1124	n/a	n/a	0	0	0
3458316	WORD	wordpools/wasnorm_wordpool_576.txt	LTP386	ltpFR2	21	17	HEADBAND	696	n/a	n/a	0	0	0
3460882	WORD	wordpools/wasnorm_wordpool_576.txt	LTP386	ltpFR2	21	17	TWEEZERS	1526	n/a	n/a	0	0	0
3463633	WORD	wordpools/wasnorm_wordpool_576.txt	LTP386	ltpFR2	21	17	SERVER	1272	n/a	n/a	0	0	0
3466232	WORD	wordpools/wasnorm_wordpool_576.txt	LTP386	ltpFR2	21	17	PORK	1108	n/a	n/a	0	0	0
3468965	WORD	wordpools/wasnorm_wordpool_576.txt	LTP386	ltpFR2	21	17	BROTHER	179	n/a	n/a	0	0	0
3471716	WORD	wordpools/wasnorm_wordpool_576.txt	LTP386	ltpFR2	21	17	UNCLE	1536	n/a	n/a	0	0	0
3474349	WORD	wordpools/wasnorm_wordpool_576.txt	LTP386	ltpFR2	21	17	SERVANT	1271	n/a	n/a	0	0	0
3477099	WORD	wordpools/wasnorm_wordpool_576.txt	LTP386	ltpFR2	21	17	GRAVEL	659	n/a	n/a	0	0	0
3479533	WORD	wordpools/wasnorm_wordpool_576.txt	LTP386	ltpFR2	21	17	MISTER	901	n/a	n/a	0	0	0
3482115	WORD	wordpools/wasnorm_wordpool_576.txt	LTP386	ltpFR2	21	17	TRACTOR	1493	n/a	n/a	0	0	0
3484666	WORD	wordpools/wasnorm_wordpool_576.txt	LTP386	ltpFR2	21	17	PISTOL	1075	n/a	n/a	0	0	0
3487365	WORD	wordpools/wasnorm_wordpool_576.txt	LTP386	ltpFR2	21	17	CROSS	413	n/a	n/a	0	0	0
3490165	WORD	wordpools/wasnorm_wordpool_576.txt	LTP386	ltpFR2	21	17	GAZELLE	628	n/a	n/a	0	0	0
3492583	WORD	wordpools/wasnorm_wordpool_576.txt	LTP386	ltpFR2	21	17	BATHTUB	100	n/a	n/a	0	0	0
3495015	WORD	wordpools/wasnorm_wordpool_576.txt	LTP386	ltpFR2	21	17	COUCH	386	n/a	n/a	0	0	0
3496616	START	n/a	LTP386	ltpFR2	21	n/a	n/a	n/a	26	n/a	n/a	n/a	n/a
3497607	DISTRACTOR	n/a	LTP386	ltpFR2	21	17	n/a	n/a	n/a	n/a	0	0	0
3497616	PROB	n/a	LTP386	ltpFR2	21	n/a	n/a	n/a	26	22	8	6	8
3500515	PROB	n/a	LTP386	ltpFR2	21	n/a	n/a	n/a	26	15	5	4	6
3503282	PROB	n/a	LTP386	ltpFR2	21	n/a	n/a	n/a	26	26	8	8	9
3504683	PROB	n/a	LTP386	ltpFR2	21	n/a	n/a	n/a	26	10	2	2	6
3505932	PROB	n/a	LTP386	ltpFR2	21	n/a	n/a	n/a	26	18	5	7	6
3507783	PROB	n/a	LTP386	ltpFR2	21	n/a	n/a	n/a	26	13	3	5	5
3508948	PROB	n/a	LTP386	ltpFR2	21	n/a	n/a	n/a	26	18	2	9	7
3510465	PROB	n/a	LTP386	ltpFR2	21	n/a	n/a	n/a	26	24	8	8	6
3511932	PROB	n/a	LTP386	ltpFR2	21	n/a	n/a	n/a	26	15	5	8	2
3513515	PROB	n/a	LTP386	ltpFR2	21	n/a	n/a	n/a	26	13	6	2	5
3514616	PROB	n/a	LTP386	ltpFR2	21	n/a	n/a	n/a	26	26	7	9	8
3516265	PROB	n/a	LTP386	ltpFR2	21	n/a	n/a	n/a	26	18	7	5	6
3517682	PROB	n/a	LTP386	ltpFR2	21	n/a	n/a	n/a	26	16	2	8	6
3519308	STOP	n/a	LTP386	ltpFR2	21	n/a	n/a	n/a	26	n/a	n/a	n/a	n/a
3522432	REC_START	n/a	LTP386	ltpFR2	21	17	n/a	n/a	n/a	n/a	0	0	0
3524789	REC_WORD	wordpools/wasnorm_wordpool_576.txt	LTP386	ltpFR2	21	17	SPOON	1357	n/a	n/a	0	0	0
3526083	REC_WORD	wordpools/wasnorm_wordpool_576.txt	LTP386	ltpFR2	21	17	BLADE	134	n/a	n/a	0	0	0
3529022	REC_WORD	wordpools/wasnorm_wordpool_576.txt	LTP386	ltpFR2	21	17	COUGH	-1	n/a	n/a	0	0	0
3612880	DISTRACTOR	n/a	LTP386	ltpFR2	21	18	n/a	n/a	n/a	n/a	0	0	0
3612880	START	n/a	LTP386	ltpFR2	21	n/a	n/a	n/a	27	n/a	n/a	n/a	n/a
3612897	PROB	n/a	LTP386	ltpFR2	21	n/a	n/a	n/a	27	7	1	1	5
3615530	PROB	n/a	LTP386	ltpFR2	21	n/a	n/a	n/a	27	15	5	1	9
3616631	PROB	n/a	LTP386	ltpFR2	21	n/a	n/a	n/a	27	19	5	9	5
3617748	PROB	n/a	LTP386	ltpFR2	21	n/a	n/a	n/a	27	23	9	7	7
3618963	PROB	n/a	LTP386	ltpFR2	21	n/a	n/a	n/a	27	16	3	4	9
3620030	PROB	n/a	LTP386	ltpFR2	21	n/a	n/a	n/a	27	19	6	5	8
3621447	PROB	n/a	LTP386	ltpFR2	21	n/a	n/a	n/a	27	14	6	2	6
3622847	PROB	n/a	LTP386	ltpFR2	21	n/a	n/a	n/a	27	10	1	2	7
3624396	PROB	n/a	LTP386	ltpFR2	21	n/a	n/a	n/a	27	5	1	2	1
3625664	PROB	n/a	LTP386	ltpFR2	21	n/a	n/a	n/a	27	10	3	4	3
3627147	PROB	n/a	LTP386	ltpFR2	21	n/a	n/a	n/a	27	14	1	6	7
3629063	PROB	n/a	LTP386	ltpFR2	21	n/a	n/a	n/a	27	18	7	3	8
3630180	PROB	n/a	LTP386	ltpFR2	21	n/a	n/a	n/a	27	15	1	8	6
3631996	PROB	n/a	LTP386	ltpFR2	21	n/a	n/a	n/a	27	10	1	4	5
3633180	PROB	n/a	LTP386	ltpFR2	21	n/a	n/a	n/a	27	15	3	9	3
3634496	PROB	n/a	LTP386	ltpFR2	21	n/a	n/a	n/a	27	15	2	6	7
3636144	STOP	n/a	LTP386	ltpFR2	21	n/a	n/a	n/a	27	n/a	n/a	n/a	n/a
3638080	WORD	wordpools/wasnorm_wordpool_576.txt	LTP386	ltpFR2	21	18	LIPSTICK	829	n/a	n/a	0	0	0
3640647	WORD	wordpools/wasnorm_wordpool_576.txt	LTP386	ltpFR2	21	18	CAPTIVE	240	n/a	n/a	0	0	0
3643380	WORD	wordpools/wasnorm_wordpool_576.txt	LTP386	ltpFR2	21	18	TYPIST	1532	n/a	n/a	0	0	0
3646163	WORD	wordpools/wasnorm_wordpool_576.txt	LTP386	ltpFR2	21	18	TRENCH	1503	n/a	n/a	0	0	0
3648896	WORD	wordpools/wasnorm_wordpool_576.txt	LTP386	ltpFR2	21	18	SHOVEL	1295	n/a	n/a	0	0	0
3651697	WORD	wordpools/wasnorm_wordpool_576.txt	LTP386	ltpFR2	21	18	WINDOW	1611	n/a	n/a	0	0	0
3654163	WORD	wordpools/wasnorm_wordpool_576.txt	LTP386	ltpFR2	21	18	BLUEPRINT	142	n/a	n/a	0	0	0
3656664	WORD	wordpools/wasnorm_wordpool_576.txt	LTP386	ltpFR2	21	18	CUSTARD	429	n/a	n/a	0	0	0
3659396	WORD	wordpools/wasnorm_wordpool_576.txt	LTP386	ltpFR2	21	18	MILK	895	n/a	n/a	0	0	0
3662213	WORD	wordpools/wasnorm_wordpool_576.txt	LTP386	ltpFR2	21	18	BASEMENT	94	n/a	n/a	0	0	0
3664663	WORD	wordpools/wasnorm_wordpool_576.txt	LTP386	ltpFR2	21	18	COLONEL	348	n/a	n/a	0	0	0
3667362	WORD	wordpools/wasnorm_wordpool_576.txt	LTP386	ltpFR2	21	18	MARKER	870	n/a	n/a	0	0	0
3669962	WORD	wordpools/wasnorm_wordpool_576.txt	LTP386	ltpFR2	21	18	CRAYON	401	n/a	n/a	0	0	0
3672496	WORD	wordpools/wasnorm_wordpool_576.txt	LTP386	ltpFR2	21	18	COMPASS	358	n/a	n/a	0	0	0
3674929	WORD	wordpools/wasnorm_wordpool_576.txt	LTP386	ltpFR2	21	18	PEACH	1031	n/a	n/a	0	0	0
3677396	WORD	wordpools/wasnorm_wordpool_576.txt	LTP386	ltpFR2	21	18	WARDROBE	1587	n/a	n/a	0	0	0
3680146	WORD	wordpools/wasnorm_wordpool_576.txt	LTP386	ltpFR2	21	18	GALLON	618	n/a	n/a	0	0	0
3682862	WORD	wordpools/wasnorm_wordpool_576.txt	LTP386	ltpFR2	21	18	NEUTRON	947	n/a	n/a	0	0	0
3685680	WORD	wordpools/wasnorm_wordpool_576.txt	LTP386	ltpFR2	21	18	TABLE	1426	n/a	n/a	0	0	0
3688279	WORD	wordpools/wasnorm_wordpool_576.txt	LTP386	ltpFR2	21	18	SUSPECT	1415	n/a	n/a	0	0	0
3690780	WORD	wordpools/wasnorm_wordpool_576.txt	LTP386	ltpFR2	21	18	MAILMAN	858	n/a	n/a	0	0	0
3693379	WORD	wordpools/wasnorm_wordpool_576.txt	LTP386	ltpFR2	21	18	GIFT	635	n/a	n/a	0	0	0
3695945	WORD	wordpools/wasnorm_wordpool_576.txt	LTP386	ltpFR2	21	18	AIRPLANE	12	n/a	n/a	0	0	0
3698696	WORD	wordpools/wasnorm_wordpool_576.txt	LTP386	ltpFR2	21	18	GLASS	639	n/a	n/a	0	0	0
3700312	START	n/a	LTP386	ltpFR2	21	n/a	n/a	n/a	28	n/a	n/a	n/a	n/a
3701495	DISTRACTOR	n/a	LTP386	ltpFR2	21	18	n/a	n/a	n/a	n/a	0	0	0
3701512	PROB	n/a	LTP386	ltpFR2	21	n/a	n/a	n/a	28	19	9	8	2
3703012	PROB	n/a	LTP386	ltpFR2	21	n/a	n/a	n/a	28	15	8	6	1
3704829	PROB	n/a	LTP386	ltpFR2	21	n/a	n/a	n/a	28	17	5	4	8
3706445	PROB	n/a	LTP386	ltpFR2	21	n/a	n/a	n/a	28	11	6	4	1
3707495	PROB	n/a	LTP386	ltpFR2	21	n/a	n/a	n/a	28	8	5	1	2
3709129	PROB	n/a	LTP386	ltpFR2	21	n/a	n/a	n/a	28	12	5	4	3
3712462	PROB	n/a	LTP386	ltpFR2	21	n/a	n/a	n/a	28	10	3	3	4
3713579	PROB	n/a	LTP386	ltpFR2	21	n/a	n/a	n/a	28	21	3	9	9
3715713	PROB	n/a	LTP386	ltpFR2	21	n/a	n/a	n/a	28	14	9	4	1
3716845	PROB	n/a	LTP386	ltpFR2	21	n/a	n/a	n/a	28	14	9	4	1
3717912	PROB	n/a	LTP386	ltpFR2	21	n/a	n/a	n/a	28	14	5	8	1
3719779	PROB	n/a	LTP386	ltpFR2	21	n/a	n/a	n/a	28	12	1	2	9
3720663	PROB	n/a	LTP386	ltpFR2	21	n/a	n/a	n/a	28	10	1	1	8
3721696	PROB	n/a	LTP386	ltpFR2	21	n/a	n/a	n/a	28	10	7	2	1
3722842	STOP	n/a	LTP386	ltpFR2	21	n/a	n/a	n/a	28	n/a	n/a	n/a	n/a
3726229	REC_START	n/a	LTP386	ltpFR2	21	18	n/a	n/a	n/a	n/a	0	0	0
3726468	REC_WORD	wordpools/wasnorm_wordpool_576.txt	LTP386	ltpFR2	21	18	LIPSTICK	829	n/a	n/a	0	0	0
3727884	REC_WORD	wordpools/wasnorm_wordpool_576.txt	LTP386	ltpFR2	21	18	CAPTIVE	240	n/a	n/a	0	0	0
3728734	REC_WORD	wordpools/wasnorm_wordpool_576.txt	LTP386	ltpFR2	21	18	TYPIST	1532	n/a	n/a	0	0	0
3816678	WORD	wordpools/wasnorm_wordpool_576.txt	LTP386	ltpFR2	21	19	DONKEY	484	n/a	n/a	0	0	0
3819460	WORD	wordpools/wasnorm_wordpool_576.txt	LTP386	ltpFR2	21	19	CHURCH	307	n/a	n/a	0	0	0
3821893	WORD	wordpools/wasnorm_wordpool_576.txt	LTP386	ltpFR2	21	19	SHELF	1280	n/a	n/a	0	0	0
3824527	WORD	wordpools/wasnorm_wordpool_576.txt	LTP386	ltpFR2	21	19	PASSAGE	1019	n/a	n/a	0	0	0
3827193	WORD	wordpools/wasnorm_wordpool_576.txt	LTP386	ltpFR2	21	19	TABLET	1427	n/a	n/a	0	0	0
3829893	WORD	wordpools/wasnorm_wordpool_576.txt	LTP386	ltpFR2	21	19	CAMEL	223	n/a	n/a	0	0	0
3832510	WORD	wordpools/wasnorm_wordpool_576.txt	LTP386	ltpFR2	21	19	MAMMAL	861	n/a	n/a	0	0	0
3835043	WORD	wordpools/wasnorm_wordpool_576.txt	LTP386	ltpFR2	21	19	MAPLE	866	n/a	n/a	0	0	0
3837827	WORD	wordpools/wasnorm_wordpool_576.txt	LTP386	ltpFR2	21	19	IGLOO	734	n/a	n/a	0	0	0
3840393	WORD	wordpools/wasnorm_wordpool_576.txt	LTP386	ltpFR2	21	19	CYCLONE	431	n/a	n/a	0	0	0
3842943	WORD	wordpools/wasnorm_wordpool_576.txt	LTP386	ltpFR2	21	19	SEAFOOD	1260	n/a	n/a	0	0	0
3845594	WORD	wordpools/wasnorm_wordpool_576.txt	LTP386	ltpFR2	21	19	CLAM	315	n/a	n/a	0	0	0
3848260	WORD	wordpools/wasnorm_wordpool_576.txt	LTP386	ltpFR2	21	19	NOTEBOOK	959	n/a	n/a	0	0	0
3851076	WORD	wordpools/wasnorm_wordpool_576.txt	LTP386	ltpFR2	21	19	DRINK	498	n/a	n/a	0	0	0
3853793	WORD	wordpools/wasnorm_wordpool_576.txt	LTP386	ltpFR2	21	19	TWISTER	1530	n/a	n/a	0	0	0
3856226	WORD	wordpools/wasnorm_wordpool_576.txt	LTP386	ltpFR2	21	19	LIZARD	834	n/a	n/a	0	0	0
3858960	WORD	wordpools/wasnorm_wordpool_576.txt	LTP386	ltpFR2	21	19	REBEL	1172	n/a	n/a	0	0	0
3861443	WORD	wordpools/wasnorm_wordpool_576.txt	LTP386	ltpFR2	21	19	JUNGLE	764	n/a	n/a	0	0	0
3864243	WORD	wordpools/wasnorm_wordpool_576.txt	LTP386	ltpFR2	21	19	WORKER	1621	n/a	n/a	0	0	0
3866893	WORD	wordpools/wasnorm_wordpool_576.txt	LTP386	ltpFR2	21	19	COFFEE	341	n/a	n/a	0	0	0
3869493	WORD	wordpools/wasnorm_wordpool_576.txt	LTP386	ltpFR2	21	19	SOFTBALL	1343	n/a	n/a	0	0	0
3872059	WORD	wordpools/wasnorm_wordpool_576.txt	LTP386	ltpFR2	21	19	GROUND	666	n/a	n/a	0	0	0
3874644	WORD	wordpools/wasnorm_wordpool_576.txt	LTP386	ltpFR2	21	19	BEAST	108	n/a	n/a	0	0	0
3877409	WORD	wordpools/wasnorm_wordpool_576.txt	LTP386	ltpFR2	21	19	PEBBLE	1035	n/a	n/a	0	0	0
3879026	START	n/a	LTP386	ltpFR2	21	n/a	n/a	n/a	29	n/a	n/a	n/a	n/a
3880046	DISTRACTOR	n/a	LTP386	ltpFR2	21	19	n/a	n/a	n/a	n/a	0	0	0
3880059	PROB	n/a	LTP386	ltpFR2	21	n/a	n/a	n/a	29	12	4	5	3
3883026	PROB	n/a	LTP386	ltpFR2	21	n/a	n/a	n/a	29	8	1	3	4
3884076	PROB	n/a	LTP386	ltpFR2	21	n/a	n/a	n/a	29	17	7	3	7
3885326	PROB	n/a	LTP386	ltpFR2	21	n/a	n/a	n/a	29	19	9	5	5
3886292	PROB	n/a	LTP386	ltpFR2	21	n/a	n/a	n/a	29	12	2	2	8
3887777	PROB	n/a	LTP386	ltpFR2	21	n/a	n/a	n/a	29	12	3	3	6
3889242	PROB	n/a	LTP386	ltpFR2	21	n/a	n/a	n/a	29	23	6	8	9
3891126	PROB	n/a	LTP386	ltpFR2	21	n/a	n/a	n/a	29	14	8	4	2
3892627	PROB	n/a	LTP386	ltpFR2	21	n/a	n/a	n/a	29	11	3	1	7
3893710	PROB	n/a	LTP386	ltpFR2	21	n/a	n/a	n/a	29	11	8	2	1
3895042	PROB	n/a	LTP386	ltpFR2	21	n/a	n/a	n/a	29	18	7	3	8
3896242	PROB	n/a	LTP386	ltpFR2	21	n/a	n/a	n/a	29	18	7	4	7
3897892	PROB	n/a	LTP386	ltpFR2	21	n/a	n/a	n/a	29	20	6	5	9
3899242	PROB	n/a	LTP386	ltpFR2	21	n/a	n/a	n/a	29	14	7	4	3
3900643	PROB	n/a	LTP386	ltpFR2	21	n/a	n/a	n/a	29	19	7	1	9
3901657	STOP	n/a	LTP386	ltpFR2	21	n/a	n/a	n/a	29	n/a	n/a	n/a	n/a
3904909	REC_START	n/a	LTP386	ltpFR2	21	19	n/a	n/a	n/a	n/a	0	0	0
3906194	REC_WORD	wordpools/wasnorm_wordpool_576.txt	LTP386	ltpFR2	21	19	DONKEY	484	n/a	n/a	0	0	0
3995374	WORD	wordpools/wasnorm_wordpool_576.txt	LTP386	ltpFR2	21	20	CLOUD	328	n/a	n/a	0	0	0
3998074	WORD	wordpools/wasnorm_wordpool_576.txt	LTP386	ltpFR2	21	20	STAR	1373	n/a	n/a	0	0	0
4000675	WORD	wordpools/wasnorm_wordpool_576.txt	LTP386	ltpFR2	21	20	ZEBRA	1635	n/a	n/a	0	0	0
4003491	WORD	wordpools/wasnorm_wordpool_576.txt	LTP386	ltpFR2	21	20	CHAPEL	280	n/a	n/a	0	0	0
4006241	WORD	wordpools/wasnorm_wordpool_576.txt	LTP386	ltpFR2	21	20	GRIZZLY	662	n/a	n/a	0	0	0
4008841	WORD	wordpools/wasnorm_wordpool_576.txt	LTP386	ltpFR2	21	20	ORANGE	980	n/a	n/a	0	0	0
4011407	WORD	wordpools/wasnorm_wordpool_576.txt	LTP386	ltpFR2	21	20	FLASHLIGHT	575	n/a	n/a	0	0	0
4013874	WORD	wordpools/wasnorm_wordpool_576.txt	LTP386	ltpFR2	21	20	SLIME	1327	n/a	n/a	0	0	0
4016307	WORD	wordpools/wasnorm_wordpool_576.txt	LTP386	ltpFR2	21	20	PARSLEY	1016	n/a	n/a	0	0	0
4018907	WORD	wordpools/wasnorm_wordpool_576.txt	LTP386	ltpFR2	21	20	SCISSORS	1250	n/a	n/a	0	0	0
4021407	WORD	wordpools/wasnorm_wordpool_576.txt	LTP386	ltpFR2	21	20	COOK	372	n/a	n/a	0	0	0
4024124	WORD	wordpools/wasnorm_wordpool_576.txt	LTP386	ltpFR2	21	20	NIGHTGOWN	953	n/a	n/a	0	0	0
4026575	WORD	wordpools/wasnorm_wordpool_576.txt	LTP386	ltpFR2	21	20	RUST	1219	n/a	n/a	0	0	0
4029007	WORD	wordpools/wasnorm_wordpool_576.txt	LTP386	ltpFR2	21	20	HAWK	692	n/a	n/a	0	0	0
4031474	WORD	wordpools/wasnorm_wordpool_576.txt	LTP386	ltpFR2	21	20	SHORTCAKE	1292	n/a	n/a	0	0	0
4034190	WORD	wordpools/wasnorm_wordpool_576.txt	LTP386	ltpFR2	21	20	CLAMP	316	n/a	n/a	0	0	0
4036658	WORD	wordpools/wasnorm_wordpool_576.txt	LTP386	ltpFR2	21	20	DAISY	435	n/a	n/a	0	0	0
4039423	WORD	wordpools/wasnorm_wordpool_576.txt	LTP386	ltpFR2	21	20	CASKET	255	n/a	n/a	0	0	0
4041890	WORD	wordpools/wasnorm_wordpool_576.txt	LTP386	ltpFR2	21	20	NECKLACE	940	n/a	n/a	0	0	0
4044624	WORD	wordpools/wasnorm_wordpool_576.txt	LTP386	ltpFR2	21	20	BRANCH	168	n/a	n/a	0	0	0
4047373	WORD	wordpools/wasnorm_wordpool_576.txt	LTP386	ltpFR2	21	20	SHRUB	1299	n/a	n/a	0	0	0
4050007	WORD	wordpools/wasnorm_wordpool_576.txt	LTP386	ltpFR2	21	20	GARDEN	623	n/a	n/a	0	0	0
4052490	WORD	wordpools/wasnorm_wordpool_576.txt	LTP386	ltpFR2	21	20	WAGON	1578	n/a	n/a	0	0	0
4055006	WORD	wordpools/wasnorm_wordpool_576.txt	LTP386	ltpFR2	21	20	BLOCKADE	137	n/a	n/a	0	0	0
4056608	START	n/a	LTP386	ltpFR2	21	n/a	n/a	n/a	30	n/a	n/a	n/a	n/a
4057746	DISTRACTOR	n/a	LTP386	ltpFR2	21	20	n/a	n/a	n/a	n/a	0	0	0
4057757	PROB	n/a	LTP386	ltpFR2	21	n/a	n/a	n/a	30	12	5	4	4
4061624	PROB	n/a	LTP386	ltpFR2	21	n/a	n/a	n/a	30	12	1	8	3
4062856	PROB	n/a	LTP386	ltpFR2	21	n/a	n/a	n/a	30	14	8	4	2
4064406	PROB	n/a	LTP386	ltpFR2	21	n/a	n/a	n/a	30	199	9	6	4
4066541	PROB	n/a	LTP386	ltpFR2	21	n/a	n/a	n/a	30	15	1	8	6
4068390	PROB	n/a	LTP386	ltpFR2	21	n/a	n/a	n/a	30	11	1	1	9
4069290	PROB	n/a	LTP386	ltpFR2	21	n/a	n/a	n/a	30	10	5	3	2
4070973	PROB	n/a	LTP386	ltpFR2	21	n/a	n/a	n/a	30	17	5	6	6
4072290	PROB	n/a	LTP386	ltpFR2	21	n/a	n/a	n/a	30	6	3	2	1
4073423	PROB	n/a	LTP386	ltpFR2	21	n/a	n/a	n/a	30	6	1	1	4
4074390	PROB	n/a	LTP386	ltpFR2	21	n/a	n/a	n/a	30	23	8	6	9
4076090	PROB	n/a	LTP386	ltpFR2	21	n/a	n/a	n/a	30	12	3	5	4
4077473	PROB	n/a	LTP386	ltpFR2	21	n/a	n/a	n/a	30	25	9	8	7
4079550	STOP	n/a	LTP386	ltpFR2	21	n/a	n/a	n/a	30	n/a	n/a	n/a	n/a
4082390	REC_START	n/a	LTP386	ltpFR2	21	20	n/a	n/a	n/a	n/a	0	0	0
4084824	REC_WORD	wordpools/wasnorm_wordpool_576.txt	LTP386	ltpFR2	21	20	ZEBRA	1635	n/a	n/a	0	0	0
4086221	REC_WORD	wordpools/wasnorm_wordpool_576.txt	LTP386	ltpFR2	21	20	CHAPEL	280	n/a	n/a	0	0	0
4086770	REC_WORD	wordpools/wasnorm_wordpool_576.txt	LTP386	ltpFR2	21	20	CLOUD	328	n/a	n/a	0	0	0
4172871	WORD	wordpools/wasnorm_wordpool_576.txt	LTP386	ltpFR2	21	21	POLICE	1098	n/a	n/a	0	0	0
4175338	WORD	wordpools/wasnorm_wordpool_576.txt	LTP386	ltpFR2	21	21	REPORT	1184	n/a	n/a	0	0	0
4178038	WORD	wordpools/wasnorm_wordpool_576.txt	LTP386	ltpFR2	21	21	BINDER	127	n/a	n/a	0	0	0
4180756	WORD	wordpools/wasnorm_wordpool_576.txt	LTP386	ltpFR2	21	21	CLOCK	325	n/a	n/a	0	0	0
4183338	WORD	wordpools/wasnorm_wordpool_576.txt	LTP386	ltpFR2	21	21	HORNET	718	n/a	n/a	0	0	0
4186105	WORD	wordpools/wasnorm_wordpool_576.txt	LTP386	ltpFR2	21	21	HIKER	708	n/a	n/a	0	0	0
4188739	WORD	wordpools/wasnorm_wordpool_576.txt	LTP386	ltpFR2	21	21	BACKBONE	66	n/a	n/a	0	0	0
4191488	WORD	wordpools/wasnorm_wordpool_576.txt	LTP386	ltpFR2	21	21	JELLY	755	n/a	n/a	0	0	0
4194021	WORD	wordpools/wasnorm_wordpool_576.txt	LTP386	ltpFR2	21	21	GREASE	660	n/a	n/a	0	0	0
4196504	WORD	wordpools/wasnorm_wordpool_576.txt	LTP386	ltpFR2	21	21	FEMALE	559	n/a	n/a	0	0	0
4199104	WORD	wordpools/wasnorm_wordpool_576.txt	LTP386	ltpFR2	21	21	SHERIFF	1284	n/a	n/a	0	0	0
4201821	WORD	wordpools/wasnorm_wordpool_576.txt	LTP386	ltpFR2	21	21	CUPBOARD	425	n/a	n/a	0	0	0
4204539	WORD	wordpools/wasnorm_wordpool_576.txt	LTP386	ltpFR2	21	21	TURKEY	1520	n/a	n/a	0	0	0
4207154	WORD	wordpools/wasnorm_wordpool_576.txt	LTP386	ltpFR2	21	21	CHAUFFEUR	283	n/a	n/a	0	0	0
4209854	WORD	wordpools/wasnorm_wordpool_576.txt	LTP386	ltpFR2	21	21	ROOSTER	1209	n/a	n/a	0	0	0
4212437	WORD	wordpools/wasnorm_wordpool_576.txt	LTP386	ltpFR2	21	21	DRESS	495	n/a	n/a	0	0	0
4215171	WORD	wordpools/wasnorm_wordpool_576.txt	LTP386	ltpFR2	21	21	LACE	792	n/a	n/a	0	0	0
4217722	WORD	wordpools/wasnorm_wordpool_576.txt	LTP386	ltpFR2	21	21	WASP	1593	n/a	n/a	0	0	0
4220254	WORD	wordpools/wasnorm_wordpool_576.txt	LTP386	ltpFR2	21	21	RADISH	1158	n/a	n/a	0	0	0
4222971	WORD	wordpools/wasnorm_wordpool_576.txt	LTP386	ltpFR2	21	21	GARBAGE	622	n/a	n/a	0	0	0
4225705	WORD	wordpools/wasnorm_wordpool_576.txt	LTP386	ltpFR2	21	21	SHOULDER	1294	n/a	n/a	0	0	0
4228204	WORD	wordpools/wasnorm_wordpool_576.txt	LTP386	ltpFR2	21	21	AGENT	10	n/a	n/a	0	0	0
4230705	WORD	wordpools/wasnorm_wordpool_576.txt	LTP386	ltpFR2	21	21	MUSTARD	935	n/a	n/a	0	0	0
4233387	WORD	wordpools/wasnorm_wordpool_576.txt	LTP386	ltpFR2	21	21	JEANS	752	n/a	n/a	0	0	0
4235004	START	n/a	LTP386	ltpFR2	21	n/a	n/a	n/a	31	n/a	n/a	n/a	n/a
4236033	DISTRACTOR	n/a	LTP386	ltpFR2	21	21	n/a	n/a	n/a	n/a	0	0	0
4236037	PROB	n/a	LTP386	ltpFR2	21	n/a	n/a	n/a	31	12	1	4	7
4237887	PROB	n/a	LTP386	ltpFR2	21	n/a	n/a	n/a	31	6	2	3	1
4238937	PROB	n/a	LTP386	ltpFR2	21	n/a	n/a	n/a	31	14	6	1	7
4240555	PROB	n/a	LTP386	ltpFR2	21	n/a	n/a	n/a	31	21	8	4	9
4241738	PROB	n/a	LTP386	ltpFR2	21	n/a	n/a	n/a	31	17	1	7	9
4242854	PROB	n/a	LTP386	ltpFR2	21	n/a	n/a	n/a	31	9	2	6	1
4244621	PROB	n/a	LTP386	ltpFR2	21	n/a	n/a	n/a	31	18	8	5	5
4245605	PROB	n/a	LTP386	ltpFR2	21	n/a	n/a	n/a	31	11	6	1	4
4246820	PROB	n/a	LTP386	ltpFR2	21	n/a	n/a	n/a	31	9	5	2	2
4248370	PROB	n/a	LTP386	ltpFR2	21	n/a	n/a	n/a	31	12	1	9	2
4249487	PROB	n/a	LTP386	ltpFR2	21	n/a	n/a	n/a	31	18	9	3	6
4250970	PROB	n/a	LTP386	ltpFR2	21	n/a	n/a	n/a	31	19	9	8	2
4252688	PROB	n/a	LTP386	ltpFR2	21	n/a	n/a	n/a	31	21	9	6	6
4254187	PROB	n/a	LTP386	ltpFR2	21	n/a	n/a	n/a	31	12	1	8	3
4255704	PROB	n/a	LTP386	ltpFR2	21	n/a	n/a	n/a	31	13	5	5	3
4256837	PROB	n/a	LTP386	ltpFR2	21	n/a	n/a	n/a	31	9	3	4	2
4258099	STOP	n/a	LTP386	ltpFR2	21	n/a	n/a	n/a	31	n/a	n/a	n/a	n/a
4260920	REC_START	n/a	LTP386	ltpFR2	21	21	n/a	n/a	n/a	n/a	0	0	0
4262176	REC_WORD	wordpools/wasnorm_wordpool_576.txt	LTP386	ltpFR2	21	21	SHERIFF	1284	n/a	n/a	0	0	0
4265717	REC_WORD	wordpools/wasnorm_wordpool_576.txt	LTP386	ltpFR2	21	21	POLICE	1098	n/a	n/a	0	0	0
4351369	DISTRACTOR	n/a	LTP386	ltpFR2	21	22	n/a	n/a	n/a	n/a	0	0	0
4351369	START	n/a	LTP386	ltpFR2	21	n/a	n/a	n/a	32	n/a	n/a	n/a	n/a
4351385	PROB	n/a	LTP386	ltpFR2	21	n/a	n/a	n/a	32	20	3	9	8
4353419	PROB	n/a	LTP386	ltpFR2	21	n/a	n/a	n/a	32	20	7	9	4
4354785	PROB	n/a	LTP386	ltpFR2	21	n/a	n/a	n/a	32	13	4	7	2
4355985	PROB	n/a	LTP386	ltpFR2	21	n/a	n/a	n/a	32	15	3	8	4
4357252	PROB	n/a	LTP386	ltpFR2	21	n/a	n/a	n/a	32	22	8	6	7
4359518	PROB	n/a	LTP386	ltpFR2	21	n/a	n/a	n/a	32	19	8	5	6
4361252	PROB	n/a	LTP386	ltpFR2	21	n/a	n/a	n/a	32	26	9	9	8
4362619	PROB	n/a	LTP386	ltpFR2	21	n/a	n/a	n/a	32	16	7	1	8
4364852	PROB	n/a	LTP386	ltpFR2	21	n/a	n/a	n/a	32	25	8	8	9
4366569	PROB	n/a	LTP386	ltpFR2	21	n/a	n/a	n/a	32	100	1	4	5
4367835	PROB	n/a	LTP386	ltpFR2	21	n/a	n/a	n/a	32	11	2	1	8
4369669	PROB	n/a	LTP386	ltpFR2	21	n/a	n/a	n/a	32	13	3	2	8
4371052	PROB	n/a	LTP386	ltpFR2	21	n/a	n/a	n/a	32	17	6	7	4
4372385	PROB	n/a	LTP386	ltpFR2	21	n/a	n/a	n/a	32	15	6	1	8
4374086	STOP	n/a	LTP386	ltpFR2	21	n/a	n/a	n/a	32	n/a	n/a	n/a	n/a
4376569	WORD	wordpools/wasnorm_wordpool_576.txt	LTP386	ltpFR2	21	22	STUDENT	1395	n/a	n/a	0	0	0
4379002	WORD	wordpools/wasnorm_wordpool_576.txt	LTP386	ltpFR2	21	22	COLLEGE	346	n/a	n/a	0	0	0
4381835	WORD	wordpools/wasnorm_wordpool_576.txt	LTP386	ltpFR2	21	22	APRON	35	n/a	n/a	0	0	0
4384652	WORD	wordpools/wasnorm_wordpool_576.txt	LTP386	ltpFR2	21	22	BRANDY	169	n/a	n/a	0	0	0
4387468	WORD	wordpools/wasnorm_wordpool_576.txt	LTP386	ltpFR2	21	22	PLAYGROUND	1087	n/a	n/a	0	0	0
4390235	WORD	wordpools/wasnorm_wordpool_576.txt	LTP386	ltpFR2	21	22	SPOOL	1356	n/a	n/a	0	0	0
4392686	WORD	wordpools/wasnorm_wordpool_576.txt	LTP386	ltpFR2	21	22	SKIRT	1319	n/a	n/a	0	0	0
4395435	WORD	wordpools/wasnorm_wordpool_576.txt	LTP386	ltpFR2	21	22	SNACK	1331	n/a	n/a	0	0	0
4398051	WORD	wordpools/wasnorm_wordpool_576.txt	LTP386	ltpFR2	21	22	INMATE	738	n/a	n/a	0	0	0
4400619	WORD	wordpools/wasnorm_wordpool_576.txt	LTP386	ltpFR2	21	22	CREVICE	405	n/a	n/a	0	0	0
4403135	WORD	wordpools/wasnorm_wordpool_576.txt	LTP386	ltpFR2	21	22	LUNCH	849	n/a	n/a	0	0	0
4405702	WORD	wordpools/wasnorm_wordpool_576.txt	LTP386	ltpFR2	21	22	GRAPE	654	n/a	n/a	0	0	0
4408334	WORD	wordpools/wasnorm_wordpool_576.txt	LTP386	ltpFR2	21	22	ACTOR	5	n/a	n/a	0	0	0
4410968	WORD	wordpools/wasnorm_wordpool_576.txt	LTP386	ltpFR2	21	22	CRITIC	410	n/a	n/a	0	0	0
4413535	WORD	wordpools/wasnorm_wordpool_576.txt	LTP386	ltpFR2	21	22	DENTIST	447	n/a	n/a	0	0	0
4416034	WORD	wordpools/wasnorm_wordpool_576.txt	LTP386	ltpFR2	21	22	GHETTO	633	n/a	n/a	0	0	0
4418535	WORD	wordpools/wasnorm_wordpool_576.txt	LTP386	ltpFR2	21	22	FREEZER	604	n/a	n/a	0	0	0
4421268	WORD	wordpools/wasnorm_wordpool_576.txt	LTP386	ltpFR2	21	22	DAUGHTER	442	n/a	n/a	0	0	0
4424068	WORD	wordpools/wasnorm_wordpool_576.txt	LTP386	ltpFR2	21	22	PATIENT	1024	n/a	n/a	0	0	0
4426801	WORD	wordpools/wasnorm_wordpool_576.txt	LTP386	ltpFR2	21	22	SIBLING	1301	n/a	n/a	0	0	0
4429267	WORD	wordpools/wasnorm_wordpool_576.txt	LTP386	ltpFR2	21	22	WAITRESS	1581	n/a	n/a	0	0	0
4431967	WORD	wordpools/wasnorm_wordpool_576.txt	LTP386	ltpFR2	21	22	HOSTESS	723	n/a	n/a	0	0	0
4434585	WORD	wordpools/wasnorm_wordpool_576.txt	LTP386	ltpFR2	21	22	SLIDE	1326	n/a	n/a	0	0	0
4437367	WORD	wordpools/wasnorm_wordpool_576.txt	LTP386	ltpFR2	21	22	SUNRISE	1407	n/a	n/a	0	0	0
4438984	START	n/a	LTP386	ltpFR2	21	n/a	n/a	n/a	33	n/a	n/a	n/a	n/a
4439941	DISTRACTOR	n/a	LTP386	ltpFR2	21	22	n/a	n/a	n/a	n/a	0	0	0
4439951	PROB	n/a	LTP386	ltpFR2	21	n/a	n/a	n/a	33	10	3	2	5
4442301	PROB	n/a	LTP386	ltpFR2	21	n/a	n/a	n/a	33	17	7	3	7
4443552	PROB	n/a	LTP386	ltpFR2	21	n/a	n/a	n/a	33	19	6	8	5
4445384	PROB	n/a	LTP386	ltpFR2	21	n/a	n/a	n/a	33	17	6	7	4
4448467	PROB	n/a	LTP386	ltpFR2	21	n/a	n/a	n/a	33	19	9	3	7
4449585	PROB	n/a	LTP386	ltpFR2	21	n/a	n/a	n/a	33	21	9	7	5
4450768	PROB	n/a	LTP386	ltpFR2	21	n/a	n/a	n/a	33	16	6	4	6
4451768	PROB	n/a	LTP386	ltpFR2	21	n/a	n/a	n/a	33	11	3	5	3
4452850	PROB	n/a	LTP386	ltpFR2	21	n/a	n/a	n/a	33	11	2	8	1
4453850	PROB	n/a	LTP386	ltpFR2	21	n/a	n/a	n/a	33	12	6	4	2
4454834	PROB	n/a	LTP386	ltpFR2	21	n/a	n/a	n/a	33	14	7	1	6
4456551	PROB	n/a	LTP386	ltpFR2	21	n/a	n/a	n/a	33	13	4	1	8
4458250	PROB	n/a	LTP386	ltpFR2	21	n/a	n/a	n/a	33	6	3	2	1
4459450	PROB	n/a	LTP386	ltpFR2	21	n/a	n/a	n/a	33	133	8	3	2
4461674	STOP	n/a	LTP386	ltpFR2	21	n/a	n/a	n/a	33	n/a	n/a	n/a	n/a
4464935	REC_START	n/a	LTP386	ltpFR2	21	22	n/a	n/a	n/a	n/a	0	0	0
4467106	REC_WORD	wordpools/wasnorm_wordpool_576.txt	LTP386	ltpFR2	21	22	STUDENT	1395	n/a	n/a	0	0	0
4468086	REC_WORD	wordpools/wasnorm_wordpool_576.txt	LTP386	ltpFR2	21	22	COLLEGE	346	n/a	n/a	0	0	0
4469686	REC_WORD	wordpools/wasnorm_wordpool_576.txt	LTP386	ltpFR2	21	22	APRON	35	n/a	n/a	0	0	0
4470438	REC_WORD	wordpools/wasnorm_wordpool_576.txt	LTP386	ltpFR2	21	22	SKIRT	1319	n/a	n/a	0	0	0
4473889	REC_WORD	wordpools/wasnorm_wordpool_576.txt	LTP386	ltpFR2	21	22	PLAYGROUND	1087	n/a	n/a	0	0	0
4474970	REC_WORD	wordpools/wasnorm_wordpool_576.txt	LTP386	ltpFR2	21	22	SNACK	1331	n/a	n/a	0	0	0
4555399	DISTRACTOR	n/a	LTP386	ltpFR2	21	23	n/a	n/a	n/a	n/a	0	0	0
4555399	START	n/a	LTP386	ltpFR2	21	n/a	n/a	n/a	34	n/a	n/a	n/a	n/a
4555415	PROB	n/a	LTP386	ltpFR2	21	n/a	n/a	n/a	34	13	9	3	1
4557049	PROB	n/a	LTP386	ltpFR2	21	n/a	n/a	n/a	34	13	2	4	7
4558650	PROB	n/a	LTP386	ltpFR2	21	n/a	n/a	n/a	34	17	8	3	6
4560382	PROB	n/a	LTP386	ltpFR2	21	n/a	n/a	n/a	34	18	2	8	8
4561949	PROB	n/a	LTP386	ltpFR2	21	n/a	n/a	n/a	34	10	7	2	1
4563132	PROB	n/a	LTP386	ltpFR2	21	n/a	n/a	n/a	34	12	5	4	3
4564716	PROB	n/a	LTP386	ltpFR2	21	n/a	n/a	n/a	34	15	3	7	5
4565849	PROB	n/a	LTP386	ltpFR2	21	n/a	n/a	n/a	34	23	7	8	8
4569015	PROB	n/a	LTP386	ltpFR2	21	n/a	n/a	n/a	34	13	2	4	7
4570499	PROB	n/a	LTP386	ltpFR2	21	n/a	n/a	n/a	34	12	4	5	3
4571832	PROB	n/a	LTP386	ltpFR2	21	n/a	n/a	n/a	34	11	4	6	1
4572749	PROB	n/a	LTP386	ltpFR2	21	n/a	n/a	n/a	34	7	2	3	2
4575399	PROB	n/a	LTP386	ltpFR2	21	n/a	n/a	n/a	34	14	3	3	8
4577048	PROB	n/a	LTP386	ltpFR2	21	n/a	n/a	n/a	34	10	3	1	6
4578172	STOP	n/a	LTP386	ltpFR2	21	n/a	n/a	n/a	34	n/a	n/a	n/a	n/a
4580498	WORD	wordpools/wasnorm_wordpool_576.txt	LTP386	ltpFR2	21	23	EMPIRE	530	n/a	n/a	0	0	0
4583148	WORD	wordpools/wasnorm_wordpool_576.txt	LTP386	ltpFR2	21	23	CURTAIN	427	n/a	n/a	0	0	0
4585948	WORD	wordpools/wasnorm_wordpool_576.txt	LTP386	ltpFR2	21	23	MONSTER	912	n/a	n/a	0	0	0
4588616	WORD	wordpools/wasnorm_wordpool_576.txt	LTP386	ltpFR2	21	23	LEADER	807	n/a	n/a	0	0	0
4591065	WORD	wordpools/wasnorm_wordpool_576.txt	LTP386	ltpFR2	21	23	FLUTE	585	n/a	n/a	0	0	0
4593699	WORD	wordpools/wasnorm_wordpool_576.txt	LTP386	ltpFR2	21	23	MATCH	878	n/a	n/a	0	0	0
4596231	WORD	wordpools/wasnorm_wordpool_576.txt	LTP386	ltpFR2	21	23	PUDDING	1139	n/a	n/a	0	0	0
4598682	WORD	wordpools/wasnorm_wordpool_576.txt	LTP386	ltpFR2	21	23	COTTAGE	384	n/a	n/a	0	0	0
4601365	WORD	wordpools/wasnorm_wordpool_576.txt	LTP386	ltpFR2	21	23	ROD	1203	n/a	n/a	0	0	0
4604048	WORD	wordpools/wasnorm_wordpool_576.txt	LTP386	ltpFR2	21	23	FILM	565	n/a	n/a	0	0	0
4606732	WORD	wordpools/wasnorm_wordpool_576.txt	LTP386	ltpFR2	21	23	EXPERT	543	n/a	n/a	0	0	0
4609398	WORD	wordpools/wasnorm_wordpool_576.txt	LTP386	ltpFR2	21	23	CAFE	216	n/a	n/a	0	0	0
4612165	WORD	wordpools/wasnorm_wordpool_576.txt	LTP386	ltpFR2	21	23	DORM	488	n/a	n/a	0	0	0
4614848	WORD	wordpools/wasnorm_wordpool_576.txt	LTP386	ltpFR2	21	23	RECEIPT	1173	n/a	n/a	0	0	0
4617281	WORD	wordpools/wasnorm_wordpool_576.txt	LTP386	ltpFR2	21	23	BUBBLE	183	n/a	n/a	0	0	0
4619782	WORD	wordpools/wasnorm_wordpool_576.txt	LTP386	ltpFR2	21	23	STAKE	1368	n/a	n/a	0	0	0
4622298	WORD	wordpools/wasnorm_wordpool_576.txt	LTP386	ltpFR2	21	23	LUMBER	848	n/a	n/a	0	0	0
4624981	WORD	wordpools/wasnorm_wordpool_576.txt	LTP386	ltpFR2	21	23	EAGLE	512	n/a	n/a	0	0	0
4627582	WORD	wordpools/wasnorm_wordpool_576.txt	LTP386	ltpFR2	21	23	PENGUIN	1044	n/a	n/a	0	0	0
4630198	WORD	wordpools/wasnorm_wordpool_576.txt	LTP386	ltpFR2	21	23	BELLY	119	n/a	n/a	0	0	0
4633014	WORD	wordpools/wasnorm_wordpool_576.txt	LTP386	ltpFR2	21	23	FLEET	578	n/a	n/a	0	0	0
4635782	WORD	wordpools/wasnorm_wordpool_576.txt	LTP386	ltpFR2	21	23	QUARTER	1148	n/a	n/a	0	0	0
4638549	WORD	wordpools/wasnorm_wordpool_576.txt	LTP386	ltpFR2	21	23	HOOK	715	n/a	n/a	0	0	0
4641181	WORD	wordpools/wasnorm_wordpool_576.txt	LTP386	ltpFR2	21	23	SCALLOP	1242	n/a	n/a	0	0	0
4642798	START	n/a	LTP386	ltpFR2	21	n/a	n/a	n/a	35	n/a	n/a	n/a	n/a
4643798	DISTRACTOR	n/a	LTP386	ltpFR2	21	23	n/a	n/a	n/a	n/a	0	0	0
4643814	PROB	n/a	LTP386	ltpFR2	21	n/a	n/a	n/a	35	16	3	6	7
4645331	PROB	n/a	LTP386	ltpFR2	21	n/a	n/a	n/a	35	16	5	7	4
4647164	PROB	n/a	LTP386	ltpFR2	21	n/a	n/a	n/a	35	14	9	3	2
4648765	PROB	n/a	LTP386	ltpFR2	21	n/a	n/a	n/a	35	11	4	5	2
4650014	PROB	n/a	LTP386	ltpFR2	21	n/a	n/a	n/a	35	19	8	5	6
4651864	PROB	n/a	LTP386	ltpFR2	21	n/a	n/a	n/a	35	20	4	9	7
4654131	PROB	n/a	LTP386	ltpFR2	21	n/a	n/a	n/a	35	21	7	5	9
4655797	PROB	n/a	LTP386	ltpFR2	21	n/a	n/a	n/a	35	9	2	5	2
4657297	PROB	n/a	LTP386	ltpFR2	21	n/a	n/a	n/a	35	10	3	5	2
4658997	PROB	n/a	LTP386	ltpFR2	21	n/a	n/a	n/a	35	13	1	8	4
4660231	PROB	n/a	LTP386	ltpFR2	21	n/a	n/a	n/a	35	9	2	4	3
4662014	PROB	n/a	LTP386	ltpFR2	21	n/a	n/a	n/a	35	19	4	8	7
4664114	PROB	n/a	LTP386	ltpFR2	21	n/a	n/a	n/a	35	16	5	9	2
4665648	STOP	n/a	LTP386	ltpFR2	21	n/a	n/a	n/a	35	n/a	n/a	n/a	n/a
4668715	REC_START	n/a	LTP386	ltpFR2	21	23	n/a	n/a	n/a	n/a	0	0	0
4669199	REC_WORD	wordpools/wasnorm_wordpool_576.txt	LTP386	ltpFR2	21	23	SCALLOP	1242	n/a	n/a	0	0	0
4759179	WORD	wordpools/wasnorm_wordpool_576.txt	LTP386	ltpFR2	21	24	GLOVE	642	n/a	n/a	0	0	0
4761829	WORD	wordpools/wasnorm_wordpool_576.txt	LTP386	ltpFR2	21	24	CROWN	415	n/a	n/a	0	0	0
4764647	WORD	wordpools/wasnorm_wordpool_576.txt	LTP386	ltpFR2	21	24	STALLION	1369	n/a	n/a	0	0	0
4767296	WORD	wordpools/wasnorm_wordpool_576.txt	LTP386	ltpFR2	21	24	PLIERS	1089	n/a	n/a	0	0	0
4769996	WORD	wordpools/wasnorm_wordpool_576.txt	LTP386	ltpFR2	21	24	KNAPSACK	783	n/a	n/a	0	0	0
4772512	WORD	wordpools/wasnorm_wordpool_576.txt	LTP386	ltpFR2	21	24	FRIEND	606	n/a	n/a	0	0	0
4775062	WORD	wordpools/wasnorm_wordpool_576.txt	LTP386	ltpFR2	21	24	BANKER	84	n/a	n/a	0	0	0
4777630	WORD	wordpools/wasnorm_wordpool_576.txt	LTP386	ltpFR2	21	24	GUITAR	670	n/a	n/a	0	0	0
4780229	WORD	wordpools/wasnorm_wordpool_576.txt	LTP386	ltpFR2	21	24	WRIST	1626	n/a	n/a	0	0	0
4782780	WORD	wordpools/wasnorm_wordpool_576.txt	LTP386	ltpFR2	21	24	LION	827	n/a	n/a	0	0	0
4785596	WORD	wordpools/wasnorm_wordpool_576.txt	LTP386	ltpFR2	21	24	OYSTER	995	n/a	n/a	0	0	0
4788312	WORD	wordpools/wasnorm_wordpool_576.txt	LTP386	ltpFR2	21	24	SNAIL	1332	n/a	n/a	0	0	0
4790812	WORD	wordpools/wasnorm_wordpool_576.txt	LTP386	ltpFR2	21	24	KITCHEN	778	n/a	n/a	0	0	0
4793546	WORD	wordpools/wasnorm_wordpool_576.txt	LTP386	ltpFR2	21	24	PLATE	1086	n/a	n/a	0	0	0
4796045	WORD	wordpools/wasnorm_wordpool_576.txt	LTP386	ltpFR2	21	24	HERO	706	n/a	n/a	0	0	0
4798812	WORD	wordpools/wasnorm_wordpool_576.txt	LTP386	ltpFR2	21	24	BOX	159	n/a	n/a	0	0	0
4801428	WORD	wordpools/wasnorm_wordpool_576.txt	LTP386	ltpFR2	21	24	WRENCH	1625	n/a	n/a	0	0	0
4803862	WORD	wordpools/wasnorm_wordpool_576.txt	LTP386	ltpFR2	21	24	GAVEL	627	n/a	n/a	0	0	0
4806679	WORD	wordpools/wasnorm_wordpool_576.txt	LTP386	ltpFR2	21	24	JURY	766	n/a	n/a	0	0	0
4809245	WORD	wordpools/wasnorm_wordpool_576.txt	LTP386	ltpFR2	21	24	NOVEL	960	n/a	n/a	0	0	0
4811845	WORD	wordpools/wasnorm_wordpool_576.txt	LTP386	ltpFR2	21	24	BRICK	172	n/a	n/a	0	0	0
4814345	WORD	wordpools/wasnorm_wordpool_576.txt	LTP386	ltpFR2	21	24	CANDY	230	n/a	n/a	0	0	0
4817095	WORD	wordpools/wasnorm_wordpool_576.txt	LTP386	ltpFR2	21	24	THIEF	1456	n/a	n/a	0	0	0
4819696	WORD	wordpools/wasnorm_wordpool_576.txt	LTP386	ltpFR2	21	24	DENIM	446	n/a	n/a	0	0	0
4821312	START	n/a	LTP386	ltpFR2	21	n/a	n/a	n/a	36	n/a	n/a	n/a	n/a
4822199	DISTRACTOR	n/a	LTP386	ltpFR2	21	24	n/a	n/a	n/a	n/a	0	0	0
4822211	PROB	n/a	LTP386	ltpFR2	21	n/a	n/a	n/a	36	19	3	9	7
4823579	PROB	n/a	LTP386	ltpFR2	21	n/a	n/a	n/a	36	13	9	3	1
4824596	PROB	n/a	LTP386	ltpFR2	21	n/a	n/a	n/a	36	17	8	9	2
4826245	PROB	n/a	LTP386	ltpFR2	21	n/a	n/a	n/a	36	24	9	7	8
4828511	PROB	n/a	LTP386	ltpFR2	21	n/a	n/a	n/a	36	14	4	4	6
4829928	PROB	n/a	LTP386	ltpFR2	21	n/a	n/a	n/a	36	16	8	4	4
4831045	PROB	n/a	LTP386	ltpFR2	21	n/a	n/a	n/a	36	21	5	9	7
4832662	PROB	n/a	LTP386	ltpFR2	21	n/a	n/a	n/a	36	14	4	8	2
4834395	PROB	n/a	LTP386	ltpFR2	21	n/a	n/a	n/a	36	17	8	2	7
4835811	PROB	n/a	LTP386	ltpFR2	21	n/a	n/a	n/a	36	12	1	3	8
4837295	PROB	n/a	LTP386	ltpFR2	21	n/a	n/a	n/a	36	19	5	7	7
4838828	PROB	n/a	LTP386	ltpFR2	21	n/a	n/a	n/a	36	11	1	7	3
4839878	PROB	n/a	LTP386	ltpFR2	21	n/a	n/a	n/a	36	12	1	7	4
4841928	PROB	n/a	LTP386	ltpFR2	21	n/a	n/a	n/a	36	14	8	3	3
4844021	STOP	n/a	LTP386	ltpFR2	21	n/a	n/a	n/a	36	n/a	n/a	n/a	n/a
4847095	REC_START	n/a	LTP386	ltpFR2	21	24	n/a	n/a	n/a	n/a	0	0	0
4848199	REC_WORD	wordpools/wasnorm_wordpool_576.txt	LTP386	ltpFR2	21	24	GLOVE	642	n/a	n/a	0	0	0
