mstime	trial_type	stim_file	subject	experiment	session	trial	item_name	item_num	list	answer	test_x	test_y	test_z
0	SESS_START	n/a	LTP123	ltpFR2	14	n/a	n/a	n/a	n/a	n/a	0	0	0
15755	START	n/a	LTP123	ltpFR2	14	n/a	n/a	n/a	-1	n/a	n/a	n/a	n/a
15779	PROB	n/a	LTP123	ltpFR2	14	n/a	n/a	n/a	-1	18	6	7	5
18915	PROB	n/a	LTP123	ltpFR2	14	n/a	n/a	n/a	-1	15	7	2	6
21116	PROB	n/a	LTP123	ltpFR2	14	n/a	n/a	n/a	-1	17	2	9	6
22901	PROB	n/a	LTP123	ltpFR2	14	n/a	n/a	n/a	-1	21	5	8	8
25103	PROB	n/a	LTP123	ltpFR2	14	n/a	n/a	n/a	-1	17	6	8	3
26933	STOP	n/a	LTP123	ltpFR2	14	n/a	n/a	n/a	-1	n/a	n/a	n/a	n/a
62668	DISTRACTOR	n/a	LTP123	ltpFR2	14	1	n/a	n/a	n/a	n/a	0	0	0
62668	START	n/a	LTP123	ltpFR2	14	n/a	n/a	n/a	1	n/a	n/a	n/a	n/a
62700	PROB	n/a	LTP123	ltpFR2	14	n/a	n/a	n/a	1	16	7	4	5
65302	PROB	n/a	LTP123	ltpFR2	14	n/a	n/a	n/a	1	13	2	5	6
67338	PROB	n/a	LTP123	ltpFR2	14	n/a	n/a	n/a	1	21	9	8	4
68972	PROB	n/a	LTP123	ltpFR2	14	n/a	n/a	n/a	1	12	3	3	6
70606	PROB	n/a	LTP123	ltpFR2	14	n/a	n/a	n/a	1	14	3	7	4
72091	PROB	n/a	LTP123	ltpFR2	14	n/a	n/a	n/a	1	10	1	3	6
73459	PROB	n/a	LTP123	ltpFR2	14	n/a	n/a	n/a	1	15	8	2	5
74743	PROB	n/a	LTP123	ltpFR2	14	n/a	n/a	n/a	1	12	2	5	5
75860	PROB	n/a	LTP123	ltpFR2	14	n/a	n/a	n/a	1	13	1	4	8
77583	PROB	n/a	LTP123	ltpFR2	14	n/a	n/a	n/a	1	14	7	2	5
79597	PROB	n/a	LTP123	ltpFR2	14	n/a	n/a	n/a	1	13	1	4	8
81332	PROB	n/a	LTP123	ltpFR2	14	n/a	n/a	n/a	1	14	3	9	2
83000	PROB	n/a	LTP123	ltpFR2	14	n/a	n/a	n/a	1	16	8	2	6
84167	PROB	n/a	LTP123	ltpFR2	14	n/a	n/a	n/a	1	9	2	2	5
85639	STOP	n/a	LTP123	ltpFR2	14	n/a	n/a	n/a	1	n/a	n/a	n/a	n/a
87587	WORD	wordpools/wasnorm_wordpool_576.txt	LTP123	ltpFR2	14	1	VALLEY	1545	n/a	n/a	0	0	0
90272	WORD	wordpools/wasnorm_wordpool_576.txt	LTP123	ltpFR2	14	1	MAILMAN	858	n/a	n/a	0	0	0
92741	WORD	wordpools/wasnorm_wordpool_576.txt	LTP123	ltpFR2	14	1	IDOL	733	n/a	n/a	0	0	0
95293	WORD	wordpools/wasnorm_wordpool_576.txt	LTP123	ltpFR2	14	1	FRAGRANCE	599	n/a	n/a	0	0	0
98029	WORD	wordpools/wasnorm_wordpool_576.txt	LTP123	ltpFR2	14	1	ONION	977	n/a	n/a	0	0	0
100831	WORD	wordpools/wasnorm_wordpool_576.txt	LTP123	ltpFR2	14	1	LIGHTNING	820	n/a	n/a	0	0	0
103467	WORD	wordpools/wasnorm_wordpool_576.txt	LTP123	ltpFR2	14	1	VAGRANT	1544	n/a	n/a	0	0	0
106268	WORD	wordpools/wasnorm_wordpool_576.txt	LTP123	ltpFR2	14	1	JELLO	754	n/a	n/a	0	0	0
108720	WORD	wordpools/wasnorm_wordpool_576.txt	LTP123	ltpFR2	14	1	SCULPTURE	1258	n/a	n/a	0	0	0
111189	WORD	wordpools/wasnorm_wordpool_576.txt	LTP123	ltpFR2	14	1	BISON	131	n/a	n/a	0	0	0
113941	WORD	wordpools/wasnorm_wordpool_576.txt	LTP123	ltpFR2	14	1	LUGGAGE	847	n/a	n/a	0	0	0
116628	WORD	wordpools/wasnorm_wordpool_576.txt	LTP123	ltpFR2	14	1	AIRPORT	13	n/a	n/a	0	0	0
119262	WORD	wordpools/wasnorm_wordpool_576.txt	LTP123	ltpFR2	14	1	BEAST	108	n/a	n/a	0	0	0
121765	WORD	wordpools/wasnorm_wordpool_576.txt	LTP123	ltpFR2	14	1	COCOON	339	n/a	n/a	0	0	0
124401	WORD	wordpools/wasnorm_wordpool_576.txt	LTP123	ltpFR2	14	1	ANKLE	24	n/a	n/a	0	0	0
127102	WORD	wordpools/wasnorm_wordpool_576.txt	LTP123	ltpFR2	14	1	PACKAGE	997	n/a	n/a	0	0	0
129620	WORD	wordpools/wasnorm_wordpool_576.txt	LTP123	ltpFR2	14	1	COWBOY	395	n/a	n/a	0	0	0
132072	WORD	wordpools/wasnorm_wordpool_576.txt	LTP123	ltpFR2	14	1	HIGHWAY	707	n/a	n/a	0	0	0
134825	WORD	wordpools/wasnorm_wordpool_576.txt	LTP123	ltpFR2	14	1	FILM	565	n/a	n/a	0	0	0
137310	WORD	wordpools/wasnorm_wordpool_576.txt	LTP123	ltpFR2	14	1	PARROT	1015	n/a	n/a	0	0	0
139945	WORD	wordpools/wasnorm_wordpool_576.txt	LTP123	ltpFR2	14	1	SPARROW	1347	n/a	n/a	0	0	0
142397	WORD	wordpools/wasnorm_wordpool_576.txt	LTP123	ltpFR2	14	1	SCALPEL	1243	n/a	n/a	0	0	0
145021	WORD	wordpools/wasnorm_wordpool_576.txt	LTP123	ltpFR2	14	1	BUCKET	184	n/a	n/a	0	0	0
147652	WORD	wordpools/wasnorm_wordpool_576.txt	LTP123	ltpFR2	14	1	FIDDLE	561	n/a	n/a	0	0	0
149270	START	n/a	LTP123	ltpFR2	14	n/a	n/a	n/a	2	n/a	n/a	n/a	n/a
150070	DISTRACTOR	n/a	LTP123	ltpFR2	14	1	n/a	n/a	n/a	n/a	0	0	0
150086	PROB	n/a	LTP123	ltpFR2	14	n/a	n/a	n/a	2	13	4	1	8
151955	PROB	n/a	LTP123	ltpFR2	14	n/a	n/a	n/a	2	22	9	7	6
155491	PROB	n/a	LTP123	ltpFR2	14	n/a	n/a	n/a	2	20	9	2	9
157225	PROB	n/a	LTP123	ltpFR2	14	n/a	n/a	n/a	2	15	1	7	7
158527	PROB	n/a	LTP123	ltpFR2	14	n/a	n/a	n/a	2	4	2	1	1
160312	PROB	n/a	LTP123	ltpFR2	14	n/a	n/a	n/a	2	14	1	5	8
162229	PROB	n/a	LTP123	ltpFR2	14	n/a	n/a	n/a	2	10	1	3	6
164048	PROB	n/a	LTP123	ltpFR2	14	n/a	n/a	n/a	2	17	2	6	9
165999	PROB	n/a	LTP123	ltpFR2	14	n/a	n/a	n/a	2	25	9	8	8
168101	PROB	n/a	LTP123	ltpFR2	14	n/a	n/a	n/a	2	11	2	3	6
170270	PROB	n/a	LTP123	ltpFR2	14	n/a	n/a	n/a	2	15	6	7	2
172442	STOP	n/a	LTP123	ltpFR2	14	n/a	n/a	n/a	2	n/a	n/a	n/a	n/a
175174	REC_START	n/a	LTP123	ltpFR2	14	1	n/a	n/a	n/a	n/a	0	0	0
175733	REC_WORD	wordpools/wasnorm_wordpool_576.txt	LTP123	ltpFR2	14	1	SCULPTURE	1258	n/a	n/a	0	0	0
176426	REC_WORD	wordpools/wasnorm_wordpool_576.txt	LTP123	ltpFR2	14	1	SCALPEL	1243	n/a	n/a	0	0	0
178262	REC_WORD	wordpools/wasnorm_wordpool_576.txt	LTP123	ltpFR2	14	1	SPARROW	1347	n/a	n/a	0	0	0
179463	REC_WORD	wordpools/wasnorm_wordpool_576.txt	LTP123	ltpFR2	14	1	PARROT	1015	n/a	n/a	0	0	0
180676	REC_WORD	wordpools/wasnorm_wordpool_576.txt	LTP123	ltpFR2	14	1	VALLEY	1545	n/a	n/a	0	0	0
181314	REC_WORD	wordpools/wasnorm_wordpool_576.txt	LTP123	ltpFR2	14	1	MAILMAN	858	n/a	n/a	0	0	0
182181	REC_WORD	wordpools/wasnorm_wordpool_576.txt	LTP123	ltpFR2	14	1	PACKAGE	997	n/a	n/a	0	0	0
183205	REC_WORD	wordpools/wasnorm_wordpool_576.txt	LTP123	ltpFR2	14	1	AIRPORT	13	n/a	n/a	0	0	0
183990	REC_WORD	wordpools/wasnorm_wordpool_576.txt	LTP123	ltpFR2	14	1	LUGGAGE	847	n/a	n/a	0	0	0
184974	REC_WORD	wordpools/wasnorm_wordpool_576.txt	LTP123	ltpFR2	14	1	ANKLE	24	n/a	n/a	0	0	0
186748	REC_WORD	wordpools/wasnorm_wordpool_576.txt	LTP123	ltpFR2	14	1	COWBOY	395	n/a	n/a	0	0	0
193507	REC_WORD	wordpools/wasnorm_wordpool_576.txt	LTP123	ltpFR2	14	1	LIGHTNING	820	n/a	n/a	0	0	0
196588	REC_WORD	wordpools/wasnorm_wordpool_576.txt	LTP123	ltpFR2	14	1	HIGHWAY	707	n/a	n/a	0	0	0
211806	REC_WORD	wordpools/wasnorm_wordpool_576.txt	LTP123	ltpFR2	14	1	BISON	131	n/a	n/a	0	0	0
219332	REC_WORD	wordpools/wasnorm_wordpool_576.txt	LTP123	ltpFR2	14	1	VAGRANT	1544	n/a	n/a	0	0	0
219957	REC_WORD	wordpools/wasnorm_wordpool_576.txt	LTP123	ltpFR2	14	1	FRAGRANCE	599	n/a	n/a	0	0	0
220957	REC_WORD_VV	wordpools/wasnorm_wordpool_576.txt	LTP123	ltpFR2	14	1	<>	-1	n/a	n/a	0	0	0
265796	DISTRACTOR	n/a	LTP123	ltpFR2	14	2	n/a	n/a	n/a	n/a	0	0	0
265796	START	n/a	LTP123	ltpFR2	14	n/a	n/a	n/a	3	n/a	n/a	n/a	n/a
265829	PROB	n/a	LTP123	ltpFR2	14	n/a	n/a	n/a	3	13	1	8	4
267513	PROB	n/a	LTP123	ltpFR2	14	n/a	n/a	n/a	3	11	1	2	8
268748	PROB	n/a	LTP123	ltpFR2	14	n/a	n/a	n/a	3	18	9	7	2
270532	PROB	n/a	LTP123	ltpFR2	14	n/a	n/a	n/a	3	19	5	8	6
272668	PROB	n/a	LTP123	ltpFR2	14	n/a	n/a	n/a	3	6	1	2	3
273819	PROB	n/a	LTP123	ltpFR2	14	n/a	n/a	n/a	3	9	4	4	1
275053	PROB	n/a	LTP123	ltpFR2	14	n/a	n/a	n/a	3	23	8	6	9
276871	PROB	n/a	LTP123	ltpFR2	14	n/a	n/a	n/a	3	7	1	4	2
278456	PROB	n/a	LTP123	ltpFR2	14	n/a	n/a	n/a	3	15	3	3	9
280357	PROB	n/a	LTP123	ltpFR2	14	n/a	n/a	n/a	3	12	9	1	2
281859	PROB	n/a	LTP123	ltpFR2	14	n/a	n/a	n/a	3	14	5	6	3
283510	PROB	n/a	LTP123	ltpFR2	14	n/a	n/a	n/a	3	12	8	2	2
284611	PROB	n/a	LTP123	ltpFR2	14	n/a	n/a	n/a	3	12	7	4	1
285978	PROB	n/a	LTP123	ltpFR2	14	n/a	n/a	n/a	3	17	6	3	8
289796	STOP	n/a	LTP123	ltpFR2	14	n/a	n/a	n/a	3	n/a	n/a	n/a	n/a
290966	WORD	wordpools/wasnorm_wordpool_576.txt	LTP123	ltpFR2	14	2	SPACE	1345	n/a	n/a	0	0	0
293752	WORD	wordpools/wasnorm_wordpool_576.txt	LTP123	ltpFR2	14	2	VENUS	1557	n/a	n/a	0	0	0
296187	WORD	wordpools/wasnorm_wordpool_576.txt	LTP123	ltpFR2	14	2	REBEL	1172	n/a	n/a	0	0	0
298957	WORD	wordpools/wasnorm_wordpool_576.txt	LTP123	ltpFR2	14	2	CHURCH	307	n/a	n/a	0	0	0
301659	WORD	wordpools/wasnorm_wordpool_576.txt	LTP123	ltpFR2	14	2	PARTNER	1017	n/a	n/a	0	0	0
304160	WORD	wordpools/wasnorm_wordpool_576.txt	LTP123	ltpFR2	14	2	GHETTO	633	n/a	n/a	0	0	0
306762	WORD	wordpools/wasnorm_wordpool_576.txt	LTP123	ltpFR2	14	2	THREAD	1460	n/a	n/a	0	0	0
309331	WORD	wordpools/wasnorm_wordpool_576.txt	LTP123	ltpFR2	14	2	COUNTRY	388	n/a	n/a	0	0	0
311932	WORD	wordpools/wasnorm_wordpool_576.txt	LTP123	ltpFR2	14	2	KNIFE	785	n/a	n/a	0	0	0
314518	WORD	wordpools/wasnorm_wordpool_576.txt	LTP123	ltpFR2	14	2	HATCHET	691	n/a	n/a	0	0	0
317053	WORD	wordpools/wasnorm_wordpool_576.txt	LTP123	ltpFR2	14	2	JAPAN	749	n/a	n/a	0	0	0
319856	WORD	wordpools/wasnorm_wordpool_576.txt	LTP123	ltpFR2	14	2	GREASE	660	n/a	n/a	0	0	0
322458	WORD	wordpools/wasnorm_wordpool_576.txt	LTP123	ltpFR2	14	2	NOTEBOOK	959	n/a	n/a	0	0	0
324910	WORD	wordpools/wasnorm_wordpool_576.txt	LTP123	ltpFR2	14	2	HERO	706	n/a	n/a	0	0	0
327347	WORD	wordpools/wasnorm_wordpool_576.txt	LTP123	ltpFR2	14	2	PISTON	1076	n/a	n/a	0	0	0
330081	WORD	wordpools/wasnorm_wordpool_576.txt	LTP123	ltpFR2	14	2	FLAG	573	n/a	n/a	0	0	0
332549	WORD	wordpools/wasnorm_wordpool_576.txt	LTP123	ltpFR2	14	2	CRUTCH	417	n/a	n/a	0	0	0
335018	WORD	wordpools/wasnorm_wordpool_576.txt	LTP123	ltpFR2	14	2	HEADBAND	696	n/a	n/a	0	0	0
337621	WORD	wordpools/wasnorm_wordpool_576.txt	LTP123	ltpFR2	14	2	BANK	83	n/a	n/a	0	0	0
340289	WORD	wordpools/wasnorm_wordpool_576.txt	LTP123	ltpFR2	14	2	DIME	466	n/a	n/a	0	0	0
342724	WORD	wordpools/wasnorm_wordpool_576.txt	LTP123	ltpFR2	14	2	BRAKE	166	n/a	n/a	0	0	0
345293	WORD	wordpools/wasnorm_wordpool_576.txt	LTP123	ltpFR2	14	2	FOREHEAD	592	n/a	n/a	0	0	0
347945	WORD	wordpools/wasnorm_wordpool_576.txt	LTP123	ltpFR2	14	2	CRAYON	401	n/a	n/a	0	0	0
350681	WORD	wordpools/wasnorm_wordpool_576.txt	LTP123	ltpFR2	14	2	JEANS	752	n/a	n/a	0	0	0
352300	START	n/a	LTP123	ltpFR2	14	n/a	n/a	n/a	4	n/a	n/a	n/a	n/a
353308	DISTRACTOR	n/a	LTP123	ltpFR2	14	2	n/a	n/a	n/a	n/a	0	0	0
353333	PROB	n/a	LTP123	ltpFR2	14	n/a	n/a	n/a	4	12	7	2	3
355167	PROB	n/a	LTP123	ltpFR2	14	n/a	n/a	n/a	4	16	5	6	5
356451	PROB	n/a	LTP123	ltpFR2	14	n/a	n/a	n/a	4	14	6	7	1
358153	PROB	n/a	LTP123	ltpFR2	14	n/a	n/a	n/a	4	18	7	7	4
360155	PROB	n/a	LTP123	ltpFR2	14	n/a	n/a	n/a	4	6	4	1	1
361224	PROB	n/a	LTP123	ltpFR2	14	n/a	n/a	n/a	4	4	2	1	1
362373	PROB	n/a	LTP123	ltpFR2	14	n/a	n/a	n/a	4	17	1	8	8
364174	PROB	n/a	LTP123	ltpFR2	14	n/a	n/a	n/a	4	20	9	5	6
365792	PROB	n/a	LTP123	ltpFR2	14	n/a	n/a	n/a	4	12	1	7	4
367162	PROB	n/a	LTP123	ltpFR2	14	n/a	n/a	n/a	4	15	3	6	6
369033	PROB	n/a	LTP123	ltpFR2	14	n/a	n/a	n/a	4	10	2	1	7
370580	PROB	n/a	LTP123	ltpFR2	14	n/a	n/a	n/a	4	18	5	5	8
371830	PROB	n/a	LTP123	ltpFR2	14	n/a	n/a	n/a	4	16	3	5	8
374115	PROB	n/a	LTP123	ltpFR2	14	n/a	n/a	n/a	4	14	4	8	2
375546	STOP	n/a	LTP123	ltpFR2	14	n/a	n/a	n/a	4	n/a	n/a	n/a	n/a
378086	REC_START	n/a	LTP123	ltpFR2	14	2	n/a	n/a	n/a	n/a	0	0	0
378740	REC_WORD	wordpools/wasnorm_wordpool_576.txt	LTP123	ltpFR2	14	2	HEADBAND	696	n/a	n/a	0	0	0
379407	REC_WORD	wordpools/wasnorm_wordpool_576.txt	LTP123	ltpFR2	14	2	FOREHEAD	592	n/a	n/a	0	0	0
380264	REC_WORD	wordpools/wasnorm_wordpool_576.txt	LTP123	ltpFR2	14	2	CRUTCH	417	n/a	n/a	0	0	0
381204	REC_WORD	wordpools/wasnorm_wordpool_576.txt	LTP123	ltpFR2	14	2	HERO	706	n/a	n/a	0	0	0
389046	REC_WORD	wordpools/wasnorm_wordpool_576.txt	LTP123	ltpFR2	14	2	JAPAN	749	n/a	n/a	0	0	0
391482	REC_WORD	wordpools/wasnorm_wordpool_576.txt	LTP123	ltpFR2	14	2	SPACE	1345	n/a	n/a	0	0	0
392313	REC_WORD	wordpools/wasnorm_wordpool_576.txt	LTP123	ltpFR2	14	2	VENUS	1557	n/a	n/a	0	0	0
393011	REC_WORD	wordpools/wasnorm_wordpool_576.txt	LTP123	ltpFR2	14	2	GREASE	660	n/a	n/a	0	0	0
395263	REC_WORD	wordpools/wasnorm_wordpool_576.txt	LTP123	ltpFR2	14	2	JEANS	752	n/a	n/a	0	0	0
404749	REC_WORD	wordpools/wasnorm_wordpool_576.txt	LTP123	ltpFR2	14	2	CRAYON	401	n/a	n/a	0	0	0
422155	REC_WORD	wordpools/wasnorm_wordpool_576.txt	LTP123	ltpFR2	14	2	CHURCH	307	n/a	n/a	0	0	0
422709	REC_WORD	wordpools/wasnorm_wordpool_576.txt	LTP123	ltpFR2	14	2	REBEL	1172	n/a	n/a	0	0	0
423837	REC_WORD	wordpools/wasnorm_wordpool_576.txt	LTP123	ltpFR2	14	2	PARTNER	1017	n/a	n/a	0	0	0
426194	REC_WORD	wordpools/wasnorm_wordpool_576.txt	LTP123	ltpFR2	14	2	BANK	83	n/a	n/a	0	0	0
426841	REC_WORD	wordpools/wasnorm_wordpool_576.txt	LTP123	ltpFR2	14	2	DIME	466	n/a	n/a	0	0	0
437480	REC_WORD	wordpools/wasnorm_wordpool_576.txt	LTP123	ltpFR2	14	2	NOTEBOOK	959	n/a	n/a	0	0	0
442973	REC_WORD	wordpools/wasnorm_wordpool_576.txt	LTP123	ltpFR2	14	2	HERO	706	n/a	n/a	0	0	0
468709	DISTRACTOR	n/a	LTP123	ltpFR2	14	3	n/a	n/a	n/a	n/a	0	0	0
468709	START	n/a	LTP123	ltpFR2	14	n/a	n/a	n/a	5	n/a	n/a	n/a	n/a
468741	PROB	n/a	LTP123	ltpFR2	14	n/a	n/a	n/a	5	14	5	1	8
470943	PROB	n/a	LTP123	ltpFR2	14	n/a	n/a	n/a	5	12	3	6	3
472728	PROB	n/a	LTP123	ltpFR2	14	n/a	n/a	n/a	5	14	3	2	9
474579	PROB	n/a	LTP123	ltpFR2	14	n/a	n/a	n/a	5	8	2	5	1
476548	PROB	n/a	LTP123	ltpFR2	14	n/a	n/a	n/a	5	12	1	6	5
477848	PROB	n/a	LTP123	ltpFR2	14	n/a	n/a	n/a	5	15	8	4	3
479416	PROB	n/a	LTP123	ltpFR2	14	n/a	n/a	n/a	5	21	7	9	5
483436	PROB	n/a	LTP123	ltpFR2	14	n/a	n/a	n/a	5	13	9	3	1
484788	PROB	n/a	LTP123	ltpFR2	14	n/a	n/a	n/a	5	13	5	3	5
486238	PROB	n/a	LTP123	ltpFR2	14	n/a	n/a	n/a	5	16	8	2	6
487390	PROB	n/a	LTP123	ltpFR2	14	n/a	n/a	n/a	5	17	4	8	5
489207	PROB	n/a	LTP123	ltpFR2	14	n/a	n/a	n/a	5	17	2	7	8
492709	STOP	n/a	LTP123	ltpFR2	14	n/a	n/a	n/a	5	n/a	n/a	n/a	n/a
493662	WORD	wordpools/wasnorm_wordpool_576.txt	LTP123	ltpFR2	14	3	JUNGLE	764	n/a	n/a	0	0	0
496330	WORD	wordpools/wasnorm_wordpool_576.txt	LTP123	ltpFR2	14	3	PRIMATE	1123	n/a	n/a	0	0	0
499049	WORD	wordpools/wasnorm_wordpool_576.txt	LTP123	ltpFR2	14	3	CLAMP	316	n/a	n/a	0	0	0
501617	WORD	wordpools/wasnorm_wordpool_576.txt	LTP123	ltpFR2	14	3	ROCKET	1202	n/a	n/a	0	0	0
504453	WORD	wordpools/wasnorm_wordpool_576.txt	LTP123	ltpFR2	14	3	CRATER	400	n/a	n/a	0	0	0
507223	WORD	wordpools/wasnorm_wordpool_576.txt	LTP123	ltpFR2	14	3	SWORD	1423	n/a	n/a	0	0	0
509690	WORD	wordpools/wasnorm_wordpool_576.txt	LTP123	ltpFR2	14	3	POSSUM	1112	n/a	n/a	0	0	0
512328	WORD	wordpools/wasnorm_wordpool_576.txt	LTP123	ltpFR2	14	3	PIGEON	1065	n/a	n/a	0	0	0
515111	WORD	wordpools/wasnorm_wordpool_576.txt	LTP123	ltpFR2	14	3	CREVICE	405	n/a	n/a	0	0	0
517647	WORD	wordpools/wasnorm_wordpool_576.txt	LTP123	ltpFR2	14	3	SHERIFF	1284	n/a	n/a	0	0	0
520083	WORD	wordpools/wasnorm_wordpool_576.txt	LTP123	ltpFR2	14	3	CATTLE	261	n/a	n/a	0	0	0
522851	WORD	wordpools/wasnorm_wordpool_576.txt	LTP123	ltpFR2	14	3	COSTUME	383	n/a	n/a	0	0	0
525670	WORD	wordpools/wasnorm_wordpool_576.txt	LTP123	ltpFR2	14	3	CANYON	235	n/a	n/a	0	0	0
528439	WORD	wordpools/wasnorm_wordpool_576.txt	LTP123	ltpFR2	14	3	SUMMIT	1405	n/a	n/a	0	0	0
530908	WORD	wordpools/wasnorm_wordpool_576.txt	LTP123	ltpFR2	14	3	CRITIC	410	n/a	n/a	0	0	0
533710	WORD	wordpools/wasnorm_wordpool_576.txt	LTP123	ltpFR2	14	3	STAR	1373	n/a	n/a	0	0	0
536396	WORD	wordpools/wasnorm_wordpool_576.txt	LTP123	ltpFR2	14	3	MUFFIN	929	n/a	n/a	0	0	0
538881	WORD	wordpools/wasnorm_wordpool_576.txt	LTP123	ltpFR2	14	3	SERVER	1272	n/a	n/a	0	0	0
541583	WORD	wordpools/wasnorm_wordpool_576.txt	LTP123	ltpFR2	14	3	ACTRESS	6	n/a	n/a	0	0	0
544185	WORD	wordpools/wasnorm_wordpool_576.txt	LTP123	ltpFR2	14	3	SEAGULL	1261	n/a	n/a	0	0	0
546854	WORD	wordpools/wasnorm_wordpool_576.txt	LTP123	ltpFR2	14	3	SALMON	1227	n/a	n/a	0	0	0
549657	WORD	wordpools/wasnorm_wordpool_576.txt	LTP123	ltpFR2	14	3	SCOTCH	1251	n/a	n/a	0	0	0
552292	WORD	wordpools/wasnorm_wordpool_576.txt	LTP123	ltpFR2	14	3	TURTLE	1522	n/a	n/a	0	0	0
555060	WORD	wordpools/wasnorm_wordpool_576.txt	LTP123	ltpFR2	14	3	PEACH	1031	n/a	n/a	0	0	0
556679	START	n/a	LTP123	ltpFR2	14	n/a	n/a	n/a	6	n/a	n/a	n/a	n/a
557817	DISTRACTOR	n/a	LTP123	ltpFR2	14	3	n/a	n/a	n/a	n/a	0	0	0
557830	PROB	n/a	LTP123	ltpFR2	14	n/a	n/a	n/a	6	16	3	4	9
560131	PROB	n/a	LTP123	ltpFR2	14	n/a	n/a	n/a	6	4	1	2	1
561366	PROB	n/a	LTP123	ltpFR2	14	n/a	n/a	n/a	6	18	6	6	6
562650	PROB	n/a	LTP123	ltpFR2	14	n/a	n/a	n/a	6	20	8	4	8
564401	PROB	n/a	LTP123	ltpFR2	14	n/a	n/a	n/a	6	10	2	4	4
565987	PROB	n/a	LTP123	ltpFR2	14	n/a	n/a	n/a	6	10	3	1	6
567270	PROB	n/a	LTP123	ltpFR2	14	n/a	n/a	n/a	6	11	6	3	2
569271	PROB	n/a	LTP123	ltpFR2	14	n/a	n/a	n/a	6	13	8	3	2
571374	PROB	n/a	LTP123	ltpFR2	14	n/a	n/a	n/a	6	13	6	2	5
572874	PROB	n/a	LTP123	ltpFR2	14	n/a	n/a	n/a	6	16	3	9	4
575093	PROB	n/a	LTP123	ltpFR2	14	n/a	n/a	n/a	6	13	4	2	7
576917	PROB	n/a	LTP123	ltpFR2	14	n/a	n/a	n/a	6	13	5	4	4
578596	PROB	n/a	LTP123	ltpFR2	14	n/a	n/a	n/a	6	7	1	1	5
579826	STOP	n/a	LTP123	ltpFR2	14	n/a	n/a	n/a	6	n/a	n/a	n/a	n/a
582633	REC_START	n/a	LTP123	ltpFR2	14	3	n/a	n/a	n/a	n/a	0	0	0
583802	REC_WORD	wordpools/wasnorm_wordpool_576.txt	LTP123	ltpFR2	14	3	SCOTCH	1251	n/a	n/a	0	0	0
584802	REC_WORD_VV	wordpools/wasnorm_wordpool_576.txt	LTP123	ltpFR2	14	3	<>	-1	n/a	n/a	0	0	0
585981	REC_WORD	wordpools/wasnorm_wordpool_576.txt	LTP123	ltpFR2	14	3	CANYON	235	n/a	n/a	0	0	0
587647	REC_WORD	wordpools/wasnorm_wordpool_576.txt	LTP123	ltpFR2	14	3	CREVICE	405	n/a	n/a	0	0	0
588297	REC_WORD	wordpools/wasnorm_wordpool_576.txt	LTP123	ltpFR2	14	3	SUMMIT	1405	n/a	n/a	0	0	0
589341	REC_WORD	wordpools/wasnorm_wordpool_576.txt	LTP123	ltpFR2	14	3	JUNGLE	764	n/a	n/a	0	0	0
589858	REC_WORD	wordpools/wasnorm_wordpool_576.txt	LTP123	ltpFR2	14	3	SWORD	1423	n/a	n/a	0	0	0
590588	REC_WORD	wordpools/wasnorm_wordpool_576.txt	LTP123	ltpFR2	14	3	SALMON	1227	n/a	n/a	0	0	0
591388	REC_WORD	wordpools/wasnorm_wordpool_576.txt	LTP123	ltpFR2	14	3	SEAGULL	1261	n/a	n/a	0	0	0
594388	REC_WORD	wordpools/wasnorm_wordpool_576.txt	LTP123	ltpFR2	14	3	STAR	1373	n/a	n/a	0	0	0
595388	REC_WORD_VV	wordpools/wasnorm_wordpool_576.txt	LTP123	ltpFR2	14	3	<>	-1	n/a	n/a	0	0	0
596259	REC_WORD	wordpools/wasnorm_wordpool_576.txt	LTP123	ltpFR2	14	3	CRATER	400	n/a	n/a	0	0	0
596919	REC_WORD	wordpools/wasnorm_wordpool_576.txt	LTP123	ltpFR2	14	3	ROCKET	1202	n/a	n/a	0	0	0
604530	REC_WORD	wordpools/wasnorm_wordpool_576.txt	LTP123	ltpFR2	14	3	PEACH	1031	n/a	n/a	0	0	0
605072	REC_WORD	wordpools/wasnorm_wordpool_576.txt	LTP123	ltpFR2	14	3	SCOTCH	1251	n/a	n/a	0	0	0
609768	REC_WORD	wordpools/wasnorm_wordpool_576.txt	LTP123	ltpFR2	14	3	ACTRESS	6	n/a	n/a	0	0	0
610307	REC_WORD	wordpools/wasnorm_wordpool_576.txt	LTP123	ltpFR2	14	3	SERVER	1272	n/a	n/a	0	0	0
611009	REC_WORD	wordpools/wasnorm_wordpool_576.txt	LTP123	ltpFR2	14	3	CRITIC	410	n/a	n/a	0	0	0
622278	REC_WORD	wordpools/wasnorm_wordpool_576.txt	LTP123	ltpFR2	14	3	SHERIFF	1284	n/a	n/a	0	0	0
631312	REC_WORD	wordpools/wasnorm_wordpool_576.txt	LTP123	ltpFR2	14	3	POSSUM	1112	n/a	n/a	0	0	0
673289	WORD	wordpools/wasnorm_wordpool_576.txt	LTP123	ltpFR2	14	4	HELMET	702	n/a	n/a	0	0	0
676041	WORD	wordpools/wasnorm_wordpool_576.txt	LTP123	ltpFR2	14	4	WIFE	1609	n/a	n/a	0	0	0
678876	WORD	wordpools/wasnorm_wordpool_576.txt	LTP123	ltpFR2	14	4	BUG	187	n/a	n/a	0	0	0
681562	WORD	wordpools/wasnorm_wordpool_576.txt	LTP123	ltpFR2	14	4	WASP	1593	n/a	n/a	0	0	0
684330	WORD	wordpools/wasnorm_wordpool_576.txt	LTP123	ltpFR2	14	4	OYSTER	995	n/a	n/a	0	0	0
686999	WORD	wordpools/wasnorm_wordpool_576.txt	LTP123	ltpFR2	14	4	SPOON	1357	n/a	n/a	0	0	0
689768	WORD	wordpools/wasnorm_wordpool_576.txt	LTP123	ltpFR2	14	4	GAVEL	627	n/a	n/a	0	0	0
692604	WORD	wordpools/wasnorm_wordpool_576.txt	LTP123	ltpFR2	14	4	LAMP	798	n/a	n/a	0	0	0
695073	WORD	wordpools/wasnorm_wordpool_576.txt	LTP123	ltpFR2	14	4	MARSH	874	n/a	n/a	0	0	0
697858	WORD	wordpools/wasnorm_wordpool_576.txt	LTP123	ltpFR2	14	4	BUNNY	198	n/a	n/a	0	0	0
700594	WORD	wordpools/wasnorm_wordpool_576.txt	LTP123	ltpFR2	14	4	GRIZZLY	662	n/a	n/a	0	0	0
703229	WORD	wordpools/wasnorm_wordpool_576.txt	LTP123	ltpFR2	14	4	POPCORN	1104	n/a	n/a	0	0	0
705797	WORD	wordpools/wasnorm_wordpool_576.txt	LTP123	ltpFR2	14	4	CONVICT	371	n/a	n/a	0	0	0
708383	WORD	wordpools/wasnorm_wordpool_576.txt	LTP123	ltpFR2	14	4	VICTIM	1562	n/a	n/a	0	0	0
711053	WORD	wordpools/wasnorm_wordpool_576.txt	LTP123	ltpFR2	14	4	HOOD	714	n/a	n/a	0	0	0
713837	WORD	wordpools/wasnorm_wordpool_576.txt	LTP123	ltpFR2	14	4	COTTAGE	384	n/a	n/a	0	0	0
716490	WORD	wordpools/wasnorm_wordpool_576.txt	LTP123	ltpFR2	14	4	NURSE	963	n/a	n/a	0	0	0
718958	WORD	wordpools/wasnorm_wordpool_576.txt	LTP123	ltpFR2	14	4	WITNESS	1618	n/a	n/a	0	0	0
721494	WORD	wordpools/wasnorm_wordpool_576.txt	LTP123	ltpFR2	14	4	LION	827	n/a	n/a	0	0	0
724296	WORD	wordpools/wasnorm_wordpool_576.txt	LTP123	ltpFR2	14	4	WASHER	1592	n/a	n/a	0	0	0
726965	WORD	wordpools/wasnorm_wordpool_576.txt	LTP123	ltpFR2	14	4	SPOOL	1356	n/a	n/a	0	0	0
729534	WORD	wordpools/wasnorm_wordpool_576.txt	LTP123	ltpFR2	14	4	TAXI	1438	n/a	n/a	0	0	0
732053	WORD	wordpools/wasnorm_wordpool_576.txt	LTP123	ltpFR2	14	4	TRUCK	1512	n/a	n/a	0	0	0
734837	WORD	wordpools/wasnorm_wordpool_576.txt	LTP123	ltpFR2	14	4	ROBOT	1200	n/a	n/a	0	0	0
736456	START	n/a	LTP123	ltpFR2	14	n/a	n/a	n/a	7	n/a	n/a	n/a	n/a
737391	DISTRACTOR	n/a	LTP123	ltpFR2	14	4	n/a	n/a	n/a	n/a	0	0	0
737406	PROB	n/a	LTP123	ltpFR2	14	n/a	n/a	n/a	7	23	7	8	8
740125	PROB	n/a	LTP123	ltpFR2	14	n/a	n/a	n/a	7	19	9	9	1
741660	PROB	n/a	LTP123	ltpFR2	14	n/a	n/a	n/a	7	17	2	8	7
743061	PROB	n/a	LTP123	ltpFR2	14	n/a	n/a	n/a	7	23	8	7	8
744862	PROB	n/a	LTP123	ltpFR2	14	n/a	n/a	n/a	7	9	4	2	3
746664	PROB	n/a	LTP123	ltpFR2	14	n/a	n/a	n/a	7	20	5	7	8
748632	PROB	n/a	LTP123	ltpFR2	14	n/a	n/a	n/a	7	19	8	2	9
750083	PROB	n/a	LTP123	ltpFR2	14	n/a	n/a	n/a	7	11	2	7	2
751635	PROB	n/a	LTP123	ltpFR2	14	n/a	n/a	n/a	7	15	9	5	1
752968	PROB	n/a	LTP123	ltpFR2	14	n/a	n/a	n/a	7	7	1	2	4
754303	PROB	n/a	LTP123	ltpFR2	14	n/a	n/a	n/a	7	16	3	4	9
755909	PROB	n/a	LTP123	ltpFR2	14	n/a	n/a	n/a	7	13	8	4	1
757355	PROB	n/a	LTP123	ltpFR2	14	n/a	n/a	n/a	7	15	5	4	6
759032	STOP	n/a	LTP123	ltpFR2	14	n/a	n/a	n/a	7	n/a	n/a	n/a	n/a
762360	REC_START	n/a	LTP123	ltpFR2	14	4	n/a	n/a	n/a	n/a	0	0	0
762971	REC_WORD	wordpools/wasnorm_wordpool_576.txt	LTP123	ltpFR2	14	4	SPOOL	1356	n/a	n/a	0	0	0
763971	REC_WORD_VV	wordpools/wasnorm_wordpool_576.txt	LTP123	ltpFR2	14	4	<>	-1	n/a	n/a	0	0	0
764282	REC_WORD	wordpools/wasnorm_wordpool_576.txt	LTP123	ltpFR2	14	4	CONVICT	371	n/a	n/a	0	0	0
765282	REC_WORD_VV	wordpools/wasnorm_wordpool_576.txt	LTP123	ltpFR2	14	4	<>	-1	n/a	n/a	0	0	0
765954	REC_WORD	wordpools/wasnorm_wordpool_576.txt	LTP123	ltpFR2	14	4	GAVEL	627	n/a	n/a	0	0	0
766667	REC_WORD_VV	wordpools/wasnorm_wordpool_576.txt	LTP123	ltpFR2	14	4	<>	-1	n/a	n/a	0	0	0
767667	REC_WORD_VV	wordpools/wasnorm_wordpool_576.txt	LTP123	ltpFR2	14	4	<>	-1	n/a	n/a	0	0	0
768632	REC_WORD	wordpools/wasnorm_wordpool_576.txt	LTP123	ltpFR2	14	4	VICTIM	1562	n/a	n/a	0	0	0
773629	REC_WORD	wordpools/wasnorm_wordpool_576.txt	LTP123	ltpFR2	14	4	SUSPECT	1415	n/a	n/a	0	0	0
775490	REC_WORD	wordpools/wasnorm_wordpool_576.txt	LTP123	ltpFR2	14	4	WIFE	1609	n/a	n/a	0	0	0
779910	REC_WORD	wordpools/wasnorm_wordpool_576.txt	LTP123	ltpFR2	14	4	COSTUME	383	n/a	n/a	0	0	0
783189	REC_WORD	wordpools/wasnorm_wordpool_576.txt	LTP123	ltpFR2	14	4	HELMET	702	n/a	n/a	0	0	0
784705	REC_WORD	wordpools/wasnorm_wordpool_576.txt	LTP123	ltpFR2	14	4	HOOD	714	n/a	n/a	0	0	0
787753	REC_WORD	wordpools/wasnorm_wordpool_576.txt	LTP123	ltpFR2	14	4	BUCKET	184	n/a	n/a	0	0	0
788925	REC_WORD	wordpools/wasnorm_wordpool_576.txt	LTP123	ltpFR2	14	4	POPCORN	1104	n/a	n/a	0	0	0
799859	REC_WORD	wordpools/wasnorm_wordpool_576.txt	LTP123	ltpFR2	14	4	TRUCK	1512	n/a	n/a	0	0	0
800726	REC_WORD	wordpools/wasnorm_wordpool_576.txt	LTP123	ltpFR2	14	4	TAXI	1438	n/a	n/a	0	0	0
809439	REC_WORD	wordpools/wasnorm_wordpool_576.txt	LTP123	ltpFR2	14	4	BUG	187	n/a	n/a	0	0	0
810638	REC_WORD	wordpools/wasnorm_wordpool_576.txt	LTP123	ltpFR2	14	4	WASP	1593	n/a	n/a	0	0	0
827855	REC_WORD	wordpools/wasnorm_wordpool_576.txt	LTP123	ltpFR2	14	4	WITNESS	1618	n/a	n/a	0	0	0
835312	REC_WORD	wordpools/wasnorm_wordpool_576.txt	LTP123	ltpFR2	14	4	BUNNY	198	n/a	n/a	0	0	0
835735	REC_WORD	wordpools/wasnorm_wordpool_576.txt	LTP123	ltpFR2	14	4	GRIZZLY	662	n/a	n/a	0	0	0
853015	WORD	wordpools/wasnorm_wordpool_576.txt	LTP123	ltpFR2	14	5	ICING	732	n/a	n/a	0	0	0
855767	WORD	wordpools/wasnorm_wordpool_576.txt	LTP123	ltpFR2	14	5	DENIM	446	n/a	n/a	0	0	0
858319	WORD	wordpools/wasnorm_wordpool_576.txt	LTP123	ltpFR2	14	5	PLAID	1080	n/a	n/a	0	0	0
861038	WORD	wordpools/wasnorm_wordpool_576.txt	LTP123	ltpFR2	14	5	PLIERS	1089	n/a	n/a	0	0	0
863674	WORD	wordpools/wasnorm_wordpool_576.txt	LTP123	ltpFR2	14	5	LUMBER	848	n/a	n/a	0	0	0
866159	WORD	wordpools/wasnorm_wordpool_576.txt	LTP123	ltpFR2	14	5	PILOT	1070	n/a	n/a	0	0	0
868795	WORD	wordpools/wasnorm_wordpool_576.txt	LTP123	ltpFR2	14	5	NOMAD	955	n/a	n/a	0	0	0
871513	WORD	wordpools/wasnorm_wordpool_576.txt	LTP123	ltpFR2	14	5	TURNIP	1521	n/a	n/a	0	0	0
874299	WORD	wordpools/wasnorm_wordpool_576.txt	LTP123	ltpFR2	14	5	SUBWAY	1400	n/a	n/a	0	0	0
877001	WORD	wordpools/wasnorm_wordpool_576.txt	LTP123	ltpFR2	14	5	CROSS	413	n/a	n/a	0	0	0
879536	WORD	wordpools/wasnorm_wordpool_576.txt	LTP123	ltpFR2	14	5	XEROX	1628	n/a	n/a	0	0	0
882139	WORD	wordpools/wasnorm_wordpool_576.txt	LTP123	ltpFR2	14	5	PIGMENT	1066	n/a	n/a	0	0	0
884640	WORD	wordpools/wasnorm_wordpool_576.txt	LTP123	ltpFR2	14	5	WORLD	1622	n/a	n/a	0	0	0
887293	WORD	wordpools/wasnorm_wordpool_576.txt	LTP123	ltpFR2	14	5	FRUIT	610	n/a	n/a	0	0	0
889762	WORD	wordpools/wasnorm_wordpool_576.txt	LTP123	ltpFR2	14	5	CRAB	397	n/a	n/a	0	0	0
892532	WORD	wordpools/wasnorm_wordpool_576.txt	LTP123	ltpFR2	14	5	RUG	1215	n/a	n/a	0	0	0
895299	WORD	wordpools/wasnorm_wordpool_576.txt	LTP123	ltpFR2	14	5	GRAPE	654	n/a	n/a	0	0	0
898118	WORD	wordpools/wasnorm_wordpool_576.txt	LTP123	ltpFR2	14	5	OUTDOORS	987	n/a	n/a	0	0	0
900604	WORD	wordpools/wasnorm_wordpool_576.txt	LTP123	ltpFR2	14	5	COIN	343	n/a	n/a	0	0	0
903206	WORD	wordpools/wasnorm_wordpool_576.txt	LTP123	ltpFR2	14	5	TOURIST	1488	n/a	n/a	0	0	0
905891	WORD	wordpools/wasnorm_wordpool_576.txt	LTP123	ltpFR2	14	5	ATLAS	53	n/a	n/a	0	0	0
908428	WORD	wordpools/wasnorm_wordpool_576.txt	LTP123	ltpFR2	14	5	BLUEPRINT	142	n/a	n/a	0	0	0
911195	WORD	wordpools/wasnorm_wordpool_576.txt	LTP123	ltpFR2	14	5	TRANSPLANT	1496	n/a	n/a	0	0	0
913647	WORD	wordpools/wasnorm_wordpool_576.txt	LTP123	ltpFR2	14	5	KIDNEY	776	n/a	n/a	0	0	0
915266	START	n/a	LTP123	ltpFR2	14	n/a	n/a	n/a	8	n/a	n/a	n/a	n/a
916216	DISTRACTOR	n/a	LTP123	ltpFR2	14	5	n/a	n/a	n/a	n/a	0	0	0
916232	PROB	n/a	LTP123	ltpFR2	14	n/a	n/a	n/a	8	18	9	8	1
918000	PROB	n/a	LTP123	ltpFR2	14	n/a	n/a	n/a	8	11	2	1	8
919385	PROB	n/a	LTP123	ltpFR2	14	n/a	n/a	n/a	8	17	5	8	4
921387	PROB	n/a	LTP123	ltpFR2	14	n/a	n/a	n/a	8	11	1	6	4
922571	PROB	n/a	LTP123	ltpFR2	14	n/a	n/a	n/a	8	12	2	8	2
923661	PROB	n/a	LTP123	ltpFR2	14	n/a	n/a	n/a	8	10	1	6	3
925390	PROB	n/a	LTP123	ltpFR2	14	n/a	n/a	n/a	8	9	6	2	1
926791	PROB	n/a	LTP123	ltpFR2	14	n/a	n/a	n/a	8	23	7	5	9
930043	PROB	n/a	LTP123	ltpFR2	14	n/a	n/a	n/a	8	15	5	5	5
931195	PROB	n/a	LTP123	ltpFR2	14	n/a	n/a	n/a	8	17	7	4	6
932763	PROB	n/a	LTP123	ltpFR2	14	n/a	n/a	n/a	8	18	5	5	8
933996	PROB	n/a	LTP123	ltpFR2	14	n/a	n/a	n/a	8	25	9	9	7
936082	PROB	n/a	LTP123	ltpFR2	14	n/a	n/a	n/a	8	9	2	3	4
937879	STOP	n/a	LTP123	ltpFR2	14	n/a	n/a	n/a	8	n/a	n/a	n/a	n/a
941102	REC_START	n/a	LTP123	ltpFR2	14	5	n/a	n/a	n/a	n/a	0	0	0
941722	REC_WORD	wordpools/wasnorm_wordpool_576.txt	LTP123	ltpFR2	14	5	BLUEPRINT	142	n/a	n/a	0	0	0
942272	REC_WORD	wordpools/wasnorm_wordpool_576.txt	LTP123	ltpFR2	14	5	ATLAS	53	n/a	n/a	0	0	0
942879	REC_WORD	wordpools/wasnorm_wordpool_576.txt	LTP123	ltpFR2	14	5	WORLD	1622	n/a	n/a	0	0	0
944537	REC_WORD	wordpools/wasnorm_wordpool_576.txt	LTP123	ltpFR2	14	5	FRUIT	610	n/a	n/a	0	0	0
945132	REC_WORD	wordpools/wasnorm_wordpool_576.txt	LTP123	ltpFR2	14	5	GRAPE	654	n/a	n/a	0	0	0
945611	REC_WORD	wordpools/wasnorm_wordpool_576.txt	LTP123	ltpFR2	14	5	OUTDOORS	987	n/a	n/a	0	0	0
946611	REC_WORD_VV	wordpools/wasnorm_wordpool_576.txt	LTP123	ltpFR2	14	5	<>	-1	n/a	n/a	0	0	0
952159	REC_WORD	wordpools/wasnorm_wordpool_576.txt	LTP123	ltpFR2	14	5	PILOT	1070	n/a	n/a	0	0	0
952799	REC_WORD	wordpools/wasnorm_wordpool_576.txt	LTP123	ltpFR2	14	5	PLIERS	1089	n/a	n/a	0	0	0
953799	REC_WORD_VV	wordpools/wasnorm_wordpool_576.txt	LTP123	ltpFR2	14	5	<>	-1	n/a	n/a	0	0	0
957781	REC_WORD	wordpools/wasnorm_wordpool_576.txt	LTP123	ltpFR2	14	5	TOURIST	1488	n/a	n/a	0	0	0
960369	REC_WORD	wordpools/wasnorm_wordpool_576.txt	LTP123	ltpFR2	14	5	DENIM	446	n/a	n/a	0	0	0
960890	REC_WORD	wordpools/wasnorm_wordpool_576.txt	LTP123	ltpFR2	14	5	LUMBER	848	n/a	n/a	0	0	0
962695	REC_WORD	wordpools/wasnorm_wordpool_576.txt	LTP123	ltpFR2	14	5	JEANS	752	n/a	n/a	0	0	0
963695	REC_WORD_VV	wordpools/wasnorm_wordpool_576.txt	LTP123	ltpFR2	14	5	<>	-1	n/a	n/a	0	0	0
965663	REC_WORD_VV	wordpools/wasnorm_wordpool_576.txt	LTP123	ltpFR2	14	5	<>	-1	n/a	n/a	0	0	0
967638	REC_WORD	wordpools/wasnorm_wordpool_576.txt	LTP123	ltpFR2	14	5	PLAID	1080	n/a	n/a	0	0	0
978471	REC_WORD	wordpools/wasnorm_wordpool_576.txt	LTP123	ltpFR2	14	5	NURSE	963	n/a	n/a	0	0	0
984382	REC_WORD	wordpools/wasnorm_wordpool_576.txt	LTP123	ltpFR2	14	5	NOMAD	955	n/a	n/a	0	0	0
992317	REC_WORD	wordpools/wasnorm_wordpool_576.txt	LTP123	ltpFR2	14	5	LAMP	798	n/a	n/a	0	0	0
1000974	REC_WORD	wordpools/wasnorm_wordpool_576.txt	LTP123	ltpFR2	14	5	XEROX	1628	n/a	n/a	0	0	0
1013548	REC_WORD_VV	wordpools/wasnorm_wordpool_576.txt	LTP123	ltpFR2	14	5	<>	-1	n/a	n/a	0	0	0
1013956	REC_WORD	wordpools/wasnorm_wordpool_576.txt	LTP123	ltpFR2	14	5	TRANSPLANT	1496	n/a	n/a	0	0	0
1014776	REC_WORD	wordpools/wasnorm_wordpool_576.txt	LTP123	ltpFR2	14	5	KIDNEY	776	n/a	n/a	0	0	0
1031726	DISTRACTOR	n/a	LTP123	ltpFR2	14	6	n/a	n/a	n/a	n/a	0	0	0
1031726	START	n/a	LTP123	ltpFR2	14	n/a	n/a	n/a	9	n/a	n/a	n/a	n/a
1031758	PROB	n/a	LTP123	ltpFR2	14	n/a	n/a	n/a	9	13	6	1	6
1033661	PROB	n/a	LTP123	ltpFR2	14	n/a	n/a	n/a	9	21	9	5	7
1038664	PROB	n/a	LTP123	ltpFR2	14	n/a	n/a	n/a	9	6	2	2	2
1039714	PROB	n/a	LTP123	ltpFR2	14	n/a	n/a	n/a	9	25	8	8	9
1041784	PROB	n/a	LTP123	ltpFR2	14	n/a	n/a	n/a	9	18	7	5	6
1043801	PROB	n/a	LTP123	ltpFR2	14	n/a	n/a	n/a	9	12	2	3	7
1045619	PROB	n/a	LTP123	ltpFR2	14	n/a	n/a	n/a	9	13	7	3	3
1046820	PROB	n/a	LTP123	ltpFR2	14	n/a	n/a	n/a	9	9	2	5	2
1048222	PROB	n/a	LTP123	ltpFR2	14	n/a	n/a	n/a	9	12	9	1	2
1049339	PROB	n/a	LTP123	ltpFR2	14	n/a	n/a	n/a	9	14	6	3	5
1051278	PROB	n/a	LTP123	ltpFR2	14	n/a	n/a	n/a	9	13	8	3	2
1052875	PROB	n/a	LTP123	ltpFR2	14	n/a	n/a	n/a	9	21	6	9	6
1054843	STOP	n/a	LTP123	ltpFR2	14	n/a	n/a	n/a	9	n/a	n/a	n/a	n/a
1056728	WORD	wordpools/wasnorm_wordpool_576.txt	LTP123	ltpFR2	14	6	VELVET	1555	n/a	n/a	0	0	0
1059531	WORD	wordpools/wasnorm_wordpool_576.txt	LTP123	ltpFR2	14	6	OX	994	n/a	n/a	0	0	0
1062266	WORD	wordpools/wasnorm_wordpool_576.txt	LTP123	ltpFR2	14	6	CREATURE	403	n/a	n/a	0	0	0
1064752	WORD	wordpools/wasnorm_wordpool_576.txt	LTP123	ltpFR2	14	6	LIVER	833	n/a	n/a	0	0	0
1067487	WORD	wordpools/wasnorm_wordpool_576.txt	LTP123	ltpFR2	14	6	FLESH	579	n/a	n/a	0	0	0
1070040	WORD	wordpools/wasnorm_wordpool_576.txt	LTP123	ltpFR2	14	6	LAVA	804	n/a	n/a	0	0	0
1072674	WORD	wordpools/wasnorm_wordpool_576.txt	LTP123	ltpFR2	14	6	POLICE	1098	n/a	n/a	0	0	0
1075444	WORD	wordpools/wasnorm_wordpool_576.txt	LTP123	ltpFR2	14	6	TUBA	1515	n/a	n/a	0	0	0
1077895	WORD	wordpools/wasnorm_wordpool_576.txt	LTP123	ltpFR2	14	6	GANGSTER	620	n/a	n/a	0	0	0
1080548	WORD	wordpools/wasnorm_wordpool_576.txt	LTP123	ltpFR2	14	6	COD	340	n/a	n/a	0	0	0
1083049	WORD	wordpools/wasnorm_wordpool_576.txt	LTP123	ltpFR2	14	6	COUNTY	389	n/a	n/a	0	0	0
1085673	WORD	wordpools/wasnorm_wordpool_576.txt	LTP123	ltpFR2	14	6	BLACKBOARD	133	n/a	n/a	0	0	0
1088403	WORD	wordpools/wasnorm_wordpool_576.txt	LTP123	ltpFR2	14	6	FUNGUS	614	n/a	n/a	0	0	0
1090872	WORD	wordpools/wasnorm_wordpool_576.txt	LTP123	ltpFR2	14	6	BANQUET	86	n/a	n/a	0	0	0
1093357	WORD	wordpools/wasnorm_wordpool_576.txt	LTP123	ltpFR2	14	6	LONDON	843	n/a	n/a	0	0	0
1095860	WORD	wordpools/wasnorm_wordpool_576.txt	LTP123	ltpFR2	14	6	INMATE	738	n/a	n/a	0	0	0
1098646	WORD	wordpools/wasnorm_wordpool_576.txt	LTP123	ltpFR2	14	6	SUNSET	1408	n/a	n/a	0	0	0
1101364	WORD	wordpools/wasnorm_wordpool_576.txt	LTP123	ltpFR2	14	6	PLATE	1086	n/a	n/a	0	0	0
1104083	WORD	wordpools/wasnorm_wordpool_576.txt	LTP123	ltpFR2	14	6	GRILL	661	n/a	n/a	0	0	0
1106618	WORD	wordpools/wasnorm_wordpool_576.txt	LTP123	ltpFR2	14	6	LODGE	839	n/a	n/a	0	0	0
1109242	WORD	wordpools/wasnorm_wordpool_576.txt	LTP123	ltpFR2	14	6	DRAGON	492	n/a	n/a	0	0	0
1111906	WORD	wordpools/wasnorm_wordpool_576.txt	LTP123	ltpFR2	14	6	PORK	1108	n/a	n/a	0	0	0
1114358	WORD	wordpools/wasnorm_wordpool_576.txt	LTP123	ltpFR2	14	6	DRAWING	494	n/a	n/a	0	0	0
1116827	WORD	wordpools/wasnorm_wordpool_576.txt	LTP123	ltpFR2	14	6	PICTURE	1061	n/a	n/a	0	0	0
1118446	START	n/a	LTP123	ltpFR2	14	n/a	n/a	n/a	10	n/a	n/a	n/a	n/a
1119328	DISTRACTOR	n/a	LTP123	ltpFR2	14	6	n/a	n/a	n/a	n/a	0	0	0
1119345	PROB	n/a	LTP123	ltpFR2	14	n/a	n/a	n/a	10	12	2	1	9
1120896	PROB	n/a	LTP123	ltpFR2	14	n/a	n/a	n/a	10	13	2	9	2
1123015	PROB	n/a	LTP123	ltpFR2	14	n/a	n/a	n/a	10	17	8	6	3
1124882	PROB	n/a	LTP123	ltpFR2	14	n/a	n/a	n/a	10	22	9	7	6
1126717	PROB	n/a	LTP123	ltpFR2	14	n/a	n/a	n/a	10	14	7	6	1
1128352	PROB	n/a	LTP123	ltpFR2	14	n/a	n/a	n/a	10	17	6	9	2
1130371	PROB	n/a	LTP123	ltpFR2	14	n/a	n/a	n/a	10	11	4	6	1
1131555	PROB	n/a	LTP123	ltpFR2	14	n/a	n/a	n/a	10	16	6	1	9
1132873	PROB	n/a	LTP123	ltpFR2	14	n/a	n/a	n/a	10	14	3	6	5
1134473	PROB	n/a	LTP123	ltpFR2	14	n/a	n/a	n/a	10	12	1	7	4
1135947	PROB	n/a	LTP123	ltpFR2	14	n/a	n/a	n/a	10	10	3	2	5
1137592	PROB	n/a	LTP123	ltpFR2	14	n/a	n/a	n/a	10	17	8	4	5
1139279	PROB	n/a	LTP123	ltpFR2	14	n/a	n/a	n/a	10	11	6	1	4
1142446	STOP	n/a	LTP123	ltpFR2	14	n/a	n/a	n/a	10	n/a	n/a	n/a	n/a
1144366	REC_START	n/a	LTP123	ltpFR2	14	6	n/a	n/a	n/a	n/a	0	0	0
1144835	REC_WORD	wordpools/wasnorm_wordpool_576.txt	LTP123	ltpFR2	14	6	LODGE	839	n/a	n/a	0	0	0
1145400	REC_WORD	wordpools/wasnorm_wordpool_576.txt	LTP123	ltpFR2	14	6	DRAWING	494	n/a	n/a	0	0	0
1145910	REC_WORD	wordpools/wasnorm_wordpool_576.txt	LTP123	ltpFR2	14	6	PICTURE	1061	n/a	n/a	0	0	0
1146490	REC_WORD	wordpools/wasnorm_wordpool_576.txt	LTP123	ltpFR2	14	6	LAVA	804	n/a	n/a	0	0	0
1148616	REC_WORD	wordpools/wasnorm_wordpool_576.txt	LTP123	ltpFR2	14	6	LIVER	833	n/a	n/a	0	0	0
1149616	REC_WORD_VV	wordpools/wasnorm_wordpool_576.txt	LTP123	ltpFR2	14	6	<>	-1	n/a	n/a	0	0	0
1151445	REC_WORD	wordpools/wasnorm_wordpool_576.txt	LTP123	ltpFR2	14	6	FLESH	579	n/a	n/a	0	0	0
1155104	REC_WORD	wordpools/wasnorm_wordpool_576.txt	LTP123	ltpFR2	14	6	LONDON	843	n/a	n/a	0	0	0
1159244	REC_WORD	wordpools/wasnorm_wordpool_576.txt	LTP123	ltpFR2	14	6	COD	340	n/a	n/a	0	0	0
1160966	REC_WORD	wordpools/wasnorm_wordpool_576.txt	LTP123	ltpFR2	14	6	PORK	1108	n/a	n/a	0	0	0
1172358	REC_WORD	wordpools/wasnorm_wordpool_576.txt	LTP123	ltpFR2	14	6	GANGSTER	620	n/a	n/a	0	0	0
1176369	REC_WORD	wordpools/wasnorm_wordpool_576.txt	LTP123	ltpFR2	14	6	POLICE	1098	n/a	n/a	0	0	0
1183731	REC_WORD	wordpools/wasnorm_wordpool_576.txt	LTP123	ltpFR2	14	6	VELVET	1555	n/a	n/a	0	0	0
1192072	REC_WORD	wordpools/wasnorm_wordpool_576.txt	LTP123	ltpFR2	14	6	SUNSET	1408	n/a	n/a	0	0	0
1209003	REC_WORD	wordpools/wasnorm_wordpool_576.txt	LTP123	ltpFR2	14	6	DRAGON	492	n/a	n/a	0	0	0
1235021	WORD	wordpools/wasnorm_wordpool_576.txt	LTP123	ltpFR2	14	7	FLASHLIGHT	575	n/a	n/a	0	0	0
1237645	WORD	wordpools/wasnorm_wordpool_576.txt	LTP123	ltpFR2	14	7	BOARD	143	n/a	n/a	0	0	0
1240092	WORD	wordpools/wasnorm_wordpool_576.txt	LTP123	ltpFR2	14	7	SODA	1341	n/a	n/a	0	0	0
1242694	WORD	wordpools/wasnorm_wordpool_576.txt	LTP123	ltpFR2	14	7	TERMITE	1451	n/a	n/a	0	0	0
1245529	WORD	wordpools/wasnorm_wordpool_576.txt	LTP123	ltpFR2	14	7	FRIEND	606	n/a	n/a	0	0	0
1248248	WORD	wordpools/wasnorm_wordpool_576.txt	LTP123	ltpFR2	14	7	ROBIN	1199	n/a	n/a	0	0	0
1250850	WORD	wordpools/wasnorm_wordpool_576.txt	LTP123	ltpFR2	14	7	YOLK	1633	n/a	n/a	0	0	0
1253602	WORD	wordpools/wasnorm_wordpool_576.txt	LTP123	ltpFR2	14	7	SKILLET	1317	n/a	n/a	0	0	0
1256338	WORD	wordpools/wasnorm_wordpool_576.txt	LTP123	ltpFR2	14	7	LAPEL	800	n/a	n/a	0	0	0
1258823	WORD	wordpools/wasnorm_wordpool_576.txt	LTP123	ltpFR2	14	7	SHORTS	1293	n/a	n/a	0	0	0
1261309	WORD	wordpools/wasnorm_wordpool_576.txt	LTP123	ltpFR2	14	7	BOYFRIEND	162	n/a	n/a	0	0	0
1264061	WORD	wordpools/wasnorm_wordpool_576.txt	LTP123	ltpFR2	14	7	BLENDER	136	n/a	n/a	0	0	0
1266879	WORD	wordpools/wasnorm_wordpool_576.txt	LTP123	ltpFR2	14	7	FLUTE	585	n/a	n/a	0	0	0
1269599	WORD	wordpools/wasnorm_wordpool_576.txt	LTP123	ltpFR2	14	7	WHISTLE	1606	n/a	n/a	0	0	0
1272084	WORD	wordpools/wasnorm_wordpool_576.txt	LTP123	ltpFR2	14	7	FLASK	576	n/a	n/a	0	0	0
1274753	WORD	wordpools/wasnorm_wordpool_576.txt	LTP123	ltpFR2	14	7	HIKER	708	n/a	n/a	0	0	0
1277389	WORD	wordpools/wasnorm_wordpool_576.txt	LTP123	ltpFR2	14	7	TORTOISE	1486	n/a	n/a	0	0	0
1280090	WORD	wordpools/wasnorm_wordpool_576.txt	LTP123	ltpFR2	14	7	VIKING	1565	n/a	n/a	0	0	0
1282877	WORD	wordpools/wasnorm_wordpool_576.txt	LTP123	ltpFR2	14	7	OMELET	976	n/a	n/a	0	0	0
1285680	WORD	wordpools/wasnorm_wordpool_576.txt	LTP123	ltpFR2	14	7	FRECKLE	602	n/a	n/a	0	0	0
1288230	WORD	wordpools/wasnorm_wordpool_576.txt	LTP123	ltpFR2	14	7	LASER	801	n/a	n/a	0	0	0
1290883	WORD	wordpools/wasnorm_wordpool_576.txt	LTP123	ltpFR2	14	7	COURSE	390	n/a	n/a	0	0	0
1293534	WORD	wordpools/wasnorm_wordpool_576.txt	LTP123	ltpFR2	14	7	ROOSTER	1209	n/a	n/a	0	0	0
1296370	WORD	wordpools/wasnorm_wordpool_576.txt	LTP123	ltpFR2	14	7	YACHT	1629	n/a	n/a	0	0	0
1297989	START	n/a	LTP123	ltpFR2	14	n/a	n/a	n/a	11	n/a	n/a	n/a	n/a
1298843	DISTRACTOR	n/a	LTP123	ltpFR2	14	7	n/a	n/a	n/a	n/a	0	0	0
1298855	PROB	n/a	LTP123	ltpFR2	14	n/a	n/a	n/a	11	19	9	8	2
1300489	PROB	n/a	LTP123	ltpFR2	14	n/a	n/a	n/a	11	18	9	3	6
1302241	PROB	n/a	LTP123	ltpFR2	14	n/a	n/a	n/a	11	21	6	9	6
1304043	PROB	n/a	LTP123	ltpFR2	14	n/a	n/a	n/a	11	8	1	3	4
1305494	PROB	n/a	LTP123	ltpFR2	14	n/a	n/a	n/a	11	20	4	7	9
1306978	PROB	n/a	LTP123	ltpFR2	14	n/a	n/a	n/a	11	13	4	8	1
1308817	PROB	n/a	LTP123	ltpFR2	14	n/a	n/a	n/a	11	14	6	6	2
1310698	PROB	n/a	LTP123	ltpFR2	14	n/a	n/a	n/a	11	14	3	5	6
1312232	PROB	n/a	LTP123	ltpFR2	14	n/a	n/a	n/a	11	11	3	3	5
1313883	PROB	n/a	LTP123	ltpFR2	14	n/a	n/a	n/a	11	24	7	8	9
1315768	PROB	n/a	LTP123	ltpFR2	14	n/a	n/a	n/a	11	24	9	9	6
1318471	PROB	n/a	LTP123	ltpFR2	14	n/a	n/a	n/a	11	19	2	9	8
1320741	STOP	n/a	LTP123	ltpFR2	14	n/a	n/a	n/a	11	n/a	n/a	n/a	n/a
1323792	REC_START	n/a	LTP123	ltpFR2	14	7	n/a	n/a	n/a	n/a	0	0	0
1324592	REC_WORD	wordpools/wasnorm_wordpool_576.txt	LTP123	ltpFR2	14	7	ROOSTER	1209	n/a	n/a	0	0	0
1325030	REC_WORD	wordpools/wasnorm_wordpool_576.txt	LTP123	ltpFR2	14	7	ROBIN	1199	n/a	n/a	0	0	0
1325463	REC_WORD	wordpools/wasnorm_wordpool_576.txt	LTP123	ltpFR2	14	7	YOLK	1633	n/a	n/a	0	0	0
1325980	REC_WORD	wordpools/wasnorm_wordpool_576.txt	LTP123	ltpFR2	14	7	EGG	518	n/a	n/a	0	0	0
1326393	REC_WORD	wordpools/wasnorm_wordpool_576.txt	LTP123	ltpFR2	14	7	SKILLET	1317	n/a	n/a	0	0	0
1327179	REC_WORD	wordpools/wasnorm_wordpool_576.txt	LTP123	ltpFR2	14	7	OMELET	976	n/a	n/a	0	0	0
1328474	REC_WORD	wordpools/wasnorm_wordpool_576.txt	LTP123	ltpFR2	14	7	BLENDER	136	n/a	n/a	0	0	0
1328881	REC_WORD	wordpools/wasnorm_wordpool_576.txt	LTP123	ltpFR2	14	7	FRECKLE	602	n/a	n/a	0	0	0
1329485	REC_WORD	wordpools/wasnorm_wordpool_576.txt	LTP123	ltpFR2	14	7	LASER	801	n/a	n/a	0	0	0
1331684	REC_WORD	wordpools/wasnorm_wordpool_576.txt	LTP123	ltpFR2	14	7	FRIEND	606	n/a	n/a	0	0	0
1332253	REC_WORD	wordpools/wasnorm_wordpool_576.txt	LTP123	ltpFR2	14	7	BOYFRIEND	162	n/a	n/a	0	0	0
1332758	REC_WORD	wordpools/wasnorm_wordpool_576.txt	LTP123	ltpFR2	14	7	SHORTS	1293	n/a	n/a	0	0	0
1334178	REC_WORD	wordpools/wasnorm_wordpool_576.txt	LTP123	ltpFR2	14	7	FLASHLIGHT	575	n/a	n/a	0	0	0
1336080	REC_WORD	wordpools/wasnorm_wordpool_576.txt	LTP123	ltpFR2	14	7	OUTDOORS	987	n/a	n/a	0	0	0
1337080	REC_WORD_VV	wordpools/wasnorm_wordpool_576.txt	LTP123	ltpFR2	14	7	<>	-1	n/a	n/a	0	0	0
1349128	REC_WORD	wordpools/wasnorm_wordpool_576.txt	LTP123	ltpFR2	14	7	COURSE	390	n/a	n/a	0	0	0
1367085	REC_WORD	wordpools/wasnorm_wordpool_576.txt	LTP123	ltpFR2	14	7	FLASK	576	n/a	n/a	0	0	0
1367878	REC_WORD	wordpools/wasnorm_wordpool_576.txt	LTP123	ltpFR2	14	7	FLUTE	585	n/a	n/a	0	0	0
1374288	REC_WORD	wordpools/wasnorm_wordpool_576.txt	LTP123	ltpFR2	14	7	SODA	1341	n/a	n/a	0	0	0
1414447	WORD	wordpools/wasnorm_wordpool_576.txt	LTP123	ltpFR2	14	8	BELLY	119	n/a	n/a	0	0	0
1417083	WORD	wordpools/wasnorm_wordpool_576.txt	LTP123	ltpFR2	14	8	TREAT	1501	n/a	n/a	0	0	0
1419652	WORD	wordpools/wasnorm_wordpool_576.txt	LTP123	ltpFR2	14	8	RECORD	1176	n/a	n/a	0	0	0
1422371	WORD	wordpools/wasnorm_wordpool_576.txt	LTP123	ltpFR2	14	8	MOTEL	919	n/a	n/a	0	0	0
1425056	WORD	wordpools/wasnorm_wordpool_576.txt	LTP123	ltpFR2	14	8	CAMEL	223	n/a	n/a	0	0	0
1427842	WORD	wordpools/wasnorm_wordpool_576.txt	LTP123	ltpFR2	14	8	PATROL	1027	n/a	n/a	0	0	0
1430644	WORD	wordpools/wasnorm_wordpool_576.txt	LTP123	ltpFR2	14	8	FRANCE	601	n/a	n/a	0	0	0
1433446	WORD	wordpools/wasnorm_wordpool_576.txt	LTP123	ltpFR2	14	8	POWDER	1117	n/a	n/a	0	0	0
1436070	WORD	wordpools/wasnorm_wordpool_576.txt	LTP123	ltpFR2	14	8	SERVANT	1271	n/a	n/a	0	0	0
1438783	WORD	wordpools/wasnorm_wordpool_576.txt	LTP123	ltpFR2	14	8	CATCHER	258	n/a	n/a	0	0	0
1441236	WORD	wordpools/wasnorm_wordpool_576.txt	LTP123	ltpFR2	14	8	CANDY	230	n/a	n/a	0	0	0
1444004	WORD	wordpools/wasnorm_wordpool_576.txt	LTP123	ltpFR2	14	8	SURVEY	1414	n/a	n/a	0	0	0
1446473	WORD	wordpools/wasnorm_wordpool_576.txt	LTP123	ltpFR2	14	8	DUST	508	n/a	n/a	0	0	0
1449097	WORD	wordpools/wasnorm_wordpool_576.txt	LTP123	ltpFR2	14	8	BACON	67	n/a	n/a	0	0	0
1451716	WORD	wordpools/wasnorm_wordpool_576.txt	LTP123	ltpFR2	14	8	COOK	372	n/a	n/a	0	0	0
1454213	WORD	wordpools/wasnorm_wordpool_576.txt	LTP123	ltpFR2	14	8	LIZARD	834	n/a	n/a	0	0	0
1456932	WORD	wordpools/wasnorm_wordpool_576.txt	LTP123	ltpFR2	14	8	COBRA	336	n/a	n/a	0	0	0
1459450	WORD	wordpools/wasnorm_wordpool_576.txt	LTP123	ltpFR2	14	8	STAPLE	1371	n/a	n/a	0	0	0
1462074	WORD	wordpools/wasnorm_wordpool_576.txt	LTP123	ltpFR2	14	8	BARREL	91	n/a	n/a	0	0	0
1464538	WORD	wordpools/wasnorm_wordpool_576.txt	LTP123	ltpFR2	14	8	CHAMPAGNE	278	n/a	n/a	0	0	0
1467007	WORD	wordpools/wasnorm_wordpool_576.txt	LTP123	ltpFR2	14	8	GUITAR	670	n/a	n/a	0	0	0
1469659	WORD	wordpools/wasnorm_wordpool_576.txt	LTP123	ltpFR2	14	8	CASKET	255	n/a	n/a	0	0	0
1472227	WORD	wordpools/wasnorm_wordpool_576.txt	LTP123	ltpFR2	14	8	KNAPSACK	783	n/a	n/a	0	0	0
1475047	WORD	wordpools/wasnorm_wordpool_576.txt	LTP123	ltpFR2	14	8	PLASTER	1085	n/a	n/a	0	0	0
1476665	START	n/a	LTP123	ltpFR2	14	n/a	n/a	n/a	12	n/a	n/a	n/a	n/a
1477856	DISTRACTOR	n/a	LTP123	ltpFR2	14	8	n/a	n/a	n/a	n/a	0	0	0
1477881	PROB	n/a	LTP123	ltpFR2	14	n/a	n/a	n/a	12	7	1	2	4
1479683	PROB	n/a	LTP123	ltpFR2	14	n/a	n/a	n/a	12	16	5	2	9
1481652	PROB	n/a	LTP123	ltpFR2	14	n/a	n/a	n/a	12	20	8	6	6
1483386	PROB	n/a	LTP123	ltpFR2	14	n/a	n/a	n/a	12	18	6	8	4
1484987	PROB	n/a	LTP123	ltpFR2	14	n/a	n/a	n/a	12	15	9	5	1
1486472	PROB	n/a	LTP123	ltpFR2	14	n/a	n/a	n/a	12	7	3	1	3
1487789	PROB	n/a	LTP123	ltpFR2	14	n/a	n/a	n/a	12	14	8	5	1
1489324	PROB	n/a	LTP123	ltpFR2	14	n/a	n/a	n/a	12	20	3	9	8
1490876	PROB	n/a	LTP123	ltpFR2	14	n/a	n/a	n/a	12	17	7	4	6
1492860	PROB	n/a	LTP123	ltpFR2	14	n/a	n/a	n/a	12	21	8	4	9
1494445	PROB	n/a	LTP123	ltpFR2	14	n/a	n/a	n/a	12	14	6	5	3
1495997	PROB	n/a	LTP123	ltpFR2	14	n/a	n/a	n/a	12	14	8	1	5
1497714	PROB	n/a	LTP123	ltpFR2	14	n/a	n/a	n/a	12	15	8	3	4
1499164	STOP	n/a	LTP123	ltpFR2	14	n/a	n/a	n/a	12	n/a	n/a	n/a	n/a
1502619	REC_START	n/a	LTP123	ltpFR2	14	8	n/a	n/a	n/a	n/a	0	0	0
1502684	REC_WORD	wordpools/wasnorm_wordpool_576.txt	LTP123	ltpFR2	14	8	KNAPSACK	783	n/a	n/a	0	0	0
1503684	REC_WORD_VV	wordpools/wasnorm_wordpool_576.txt	LTP123	ltpFR2	14	8	<>	-1	n/a	n/a	0	0	0
1505303	REC_WORD	wordpools/wasnorm_wordpool_576.txt	LTP123	ltpFR2	14	8	PLASTER	1085	n/a	n/a	0	0	0
1506303	REC_WORD_VV	wordpools/wasnorm_wordpool_576.txt	LTP123	ltpFR2	14	8	<>	-1	n/a	n/a	0	0	0
1507083	REC_WORD	wordpools/wasnorm_wordpool_576.txt	LTP123	ltpFR2	14	8	CASKET	255	n/a	n/a	0	0	0
1508639	REC_WORD	wordpools/wasnorm_wordpool_576.txt	LTP123	ltpFR2	14	8	CHAMPAGNE	278	n/a	n/a	0	0	0
1509639	REC_WORD_VV	wordpools/wasnorm_wordpool_576.txt	LTP123	ltpFR2	14	8	<>	-1	n/a	n/a	0	0	0
1538501	REC_WORD	wordpools/wasnorm_wordpool_576.txt	LTP123	ltpFR2	14	8	SERVANT	1271	n/a	n/a	0	0	0
1539501	REC_WORD_VV	wordpools/wasnorm_wordpool_576.txt	LTP123	ltpFR2	14	8	<>	-1	n/a	n/a	0	0	0
1541019	REC_WORD	wordpools/wasnorm_wordpool_576.txt	LTP123	ltpFR2	14	8	FRANCE	601	n/a	n/a	0	0	0
1541916	REC_WORD	wordpools/wasnorm_wordpool_576.txt	LTP123	ltpFR2	14	8	MOTEL	919	n/a	n/a	0	0	0
1542791	REC_WORD	wordpools/wasnorm_wordpool_576.txt	LTP123	ltpFR2	14	8	POWDER	1117	n/a	n/a	0	0	0
1543512	REC_WORD	wordpools/wasnorm_wordpool_576.txt	LTP123	ltpFR2	14	8	DUST	508	n/a	n/a	0	0	0
1548311	REC_WORD	wordpools/wasnorm_wordpool_576.txt	LTP123	ltpFR2	14	8	COOK	372	n/a	n/a	0	0	0
1573250	REC_WORD	wordpools/wasnorm_wordpool_576.txt	LTP123	ltpFR2	14	8	GUITAR	670	n/a	n/a	0	0	0
1579162	REST_REWET	n/a	LTP123	ltpFR2	14	8	n/a	n/a	n/a	n/a	0	0	0
1967107	DISTRACTOR	n/a	LTP123	ltpFR2	14	9	n/a	n/a	n/a	n/a	0	0	0
1967107	START	n/a	LTP123	ltpFR2	14	n/a	n/a	n/a	13	n/a	n/a	n/a	n/a
1967139	PROB	n/a	LTP123	ltpFR2	14	n/a	n/a	n/a	13	26	9	8	9
1969762	PROB	n/a	LTP123	ltpFR2	14	n/a	n/a	n/a	13	10	3	3	4
1971426	PROB	n/a	LTP123	ltpFR2	14	n/a	n/a	n/a	13	6	2	2	2
1972410	PROB	n/a	LTP123	ltpFR2	14	n/a	n/a	n/a	13	12	2	3	7
1973678	PROB	n/a	LTP123	ltpFR2	14	n/a	n/a	n/a	13	23	7	8	8
1978198	PROB	n/a	LTP123	ltpFR2	14	n/a	n/a	n/a	13	13	7	2	4
1979866	PROB	n/a	LTP123	ltpFR2	14	n/a	n/a	n/a	13	19	7	8	4
1983353	PROB	n/a	LTP123	ltpFR2	14	n/a	n/a	n/a	13	10	4	3	3
1985120	PROB	n/a	LTP123	ltpFR2	14	n/a	n/a	n/a	13	17	2	8	7
1986438	PROB	n/a	LTP123	ltpFR2	14	n/a	n/a	n/a	13	19	1	9	9
1987689	PROB	n/a	LTP123	ltpFR2	14	n/a	n/a	n/a	13	19	9	9	1
1988890	PROB	n/a	LTP123	ltpFR2	14	n/a	n/a	n/a	13	13	1	6	6
1990742	STOP	n/a	LTP123	ltpFR2	14	n/a	n/a	n/a	13	n/a	n/a	n/a	n/a
1991960	WORD	wordpools/wasnorm_wordpool_576.txt	LTP123	ltpFR2	14	9	CLIMBER	323	n/a	n/a	0	0	0
1994762	WORD	wordpools/wasnorm_wordpool_576.txt	LTP123	ltpFR2	14	9	PASSAGE	1019	n/a	n/a	0	0	0
1997414	WORD	wordpools/wasnorm_wordpool_576.txt	LTP123	ltpFR2	14	9	STOVE	1388	n/a	n/a	0	0	0
2000038	WORD	wordpools/wasnorm_wordpool_576.txt	LTP123	ltpFR2	14	9	MAMMAL	861	n/a	n/a	0	0	0
2002802	WORD	wordpools/wasnorm_wordpool_576.txt	LTP123	ltpFR2	14	9	EMPIRE	530	n/a	n/a	0	0	0
2005620	WORD	wordpools/wasnorm_wordpool_576.txt	LTP123	ltpFR2	14	9	SOFTBALL	1343	n/a	n/a	0	0	0
2008122	WORD	wordpools/wasnorm_wordpool_576.txt	LTP123	ltpFR2	14	9	SCALLOP	1242	n/a	n/a	0	0	0
2010691	WORD	wordpools/wasnorm_wordpool_576.txt	LTP123	ltpFR2	14	9	MEAT	883	n/a	n/a	0	0	0
2013277	WORD	wordpools/wasnorm_wordpool_576.txt	LTP123	ltpFR2	14	9	GLOVE	642	n/a	n/a	0	0	0
2015812	WORD	wordpools/wasnorm_wordpool_576.txt	LTP123	ltpFR2	14	9	WAITRESS	1581	n/a	n/a	0	0	0
2018480	WORD	wordpools/wasnorm_wordpool_576.txt	LTP123	ltpFR2	14	9	QUAIL	1147	n/a	n/a	0	0	0
2021166	WORD	wordpools/wasnorm_wordpool_576.txt	LTP123	ltpFR2	14	9	EAGLE	512	n/a	n/a	0	0	0
2023852	WORD	wordpools/wasnorm_wordpool_576.txt	LTP123	ltpFR2	14	9	BUTCHER	203	n/a	n/a	0	0	0
2026320	WORD	wordpools/wasnorm_wordpool_576.txt	LTP123	ltpFR2	14	9	MUSTARD	935	n/a	n/a	0	0	0
2028889	WORD	wordpools/wasnorm_wordpool_576.txt	LTP123	ltpFR2	14	9	CHAPEL	280	n/a	n/a	0	0	0
2031708	WORD	wordpools/wasnorm_wordpool_576.txt	LTP123	ltpFR2	14	9	SMOG	1330	n/a	n/a	0	0	0
2034331	WORD	wordpools/wasnorm_wordpool_576.txt	LTP123	ltpFR2	14	9	AGENT	10	n/a	n/a	0	0	0
2036950	WORD	wordpools/wasnorm_wordpool_576.txt	LTP123	ltpFR2	14	9	BLADE	134	n/a	n/a	0	0	0
2039531	WORD	wordpools/wasnorm_wordpool_576.txt	LTP123	ltpFR2	14	9	BROOK	177	n/a	n/a	0	0	0
2042154	WORD	wordpools/wasnorm_wordpool_576.txt	LTP123	ltpFR2	14	9	ISLAND	745	n/a	n/a	0	0	0
2044801	WORD	wordpools/wasnorm_wordpool_576.txt	LTP123	ltpFR2	14	9	BEAKER	104	n/a	n/a	0	0	0
2047520	WORD	wordpools/wasnorm_wordpool_576.txt	LTP123	ltpFR2	14	9	OFFICE	972	n/a	n/a	0	0	0
2050089	WORD	wordpools/wasnorm_wordpool_576.txt	LTP123	ltpFR2	14	9	KETCHUP	771	n/a	n/a	0	0	0
2052525	WORD	wordpools/wasnorm_wordpool_576.txt	LTP123	ltpFR2	14	9	POSTAGE	1113	n/a	n/a	0	0	0
2054143	START	n/a	LTP123	ltpFR2	14	n/a	n/a	n/a	14	n/a	n/a	n/a	n/a
2054959	DISTRACTOR	n/a	LTP123	ltpFR2	14	9	n/a	n/a	n/a	n/a	0	0	0
2054976	PROB	n/a	LTP123	ltpFR2	14	n/a	n/a	n/a	14	18	7	3	8
2056511	PROB	n/a	LTP123	ltpFR2	14	n/a	n/a	n/a	14	23	6	8	9
2058662	PROB	n/a	LTP123	ltpFR2	14	n/a	n/a	n/a	14	20	7	8	5
2060614	PROB	n/a	LTP123	ltpFR2	14	n/a	n/a	n/a	14	9	1	3	5
2062365	PROB	n/a	LTP123	ltpFR2	14	n/a	n/a	n/a	14	11	1	4	6
2063700	PROB	n/a	LTP123	ltpFR2	14	n/a	n/a	n/a	14	15	4	2	9
2066953	PROB	n/a	LTP123	ltpFR2	14	n/a	n/a	n/a	14	15	2	6	7
2069321	PROB	n/a	LTP123	ltpFR2	14	n/a	n/a	n/a	14	17	3	7	7
2070756	PROB	n/a	LTP123	ltpFR2	14	n/a	n/a	n/a	14	17	6	4	7
2071923	PROB	n/a	LTP123	ltpFR2	14	n/a	n/a	n/a	14	7	4	1	2
2073274	PROB	n/a	LTP123	ltpFR2	14	n/a	n/a	n/a	14	15	8	4	3
2075542	PROB	n/a	LTP123	ltpFR2	14	n/a	n/a	n/a	14	11	5	2	4
2077353	STOP	n/a	LTP123	ltpFR2	14	n/a	n/a	n/a	14	n/a	n/a	n/a	n/a
2080130	REC_START	n/a	LTP123	ltpFR2	14	9	n/a	n/a	n/a	n/a	0	0	0
2080324	REC_WORD	wordpools/wasnorm_wordpool_576.txt	LTP123	ltpFR2	14	9	POSTAGE	1113	n/a	n/a	0	0	0
2081026	REC_WORD	wordpools/wasnorm_wordpool_576.txt	LTP123	ltpFR2	14	9	BEAKER	104	n/a	n/a	0	0	0
2082441	REC_WORD	wordpools/wasnorm_wordpool_576.txt	LTP123	ltpFR2	14	9	CLIMBER	323	n/a	n/a	0	0	0
2083741	REC_WORD	wordpools/wasnorm_wordpool_576.txt	LTP123	ltpFR2	14	9	AGENT	10	n/a	n/a	0	0	0
2084331	REC_WORD	wordpools/wasnorm_wordpool_576.txt	LTP123	ltpFR2	14	9	OFFICE	972	n/a	n/a	0	0	0
2086087	REC_WORD	wordpools/wasnorm_wordpool_576.txt	LTP123	ltpFR2	14	9	KNIFE	785	n/a	n/a	0	0	0
2088165	REC_WORD	wordpools/wasnorm_wordpool_576.txt	LTP123	ltpFR2	14	9	MUSTARD	935	n/a	n/a	0	0	0
2088748	REC_WORD	wordpools/wasnorm_wordpool_576.txt	LTP123	ltpFR2	14	9	KETCHUP	771	n/a	n/a	0	0	0
2090575	REC_WORD	wordpools/wasnorm_wordpool_576.txt	LTP123	ltpFR2	14	9	MAMMAL	861	n/a	n/a	0	0	0
2092842	REC_WORD	wordpools/wasnorm_wordpool_576.txt	LTP123	ltpFR2	14	9	MEAT	883	n/a	n/a	0	0	0
2093493	REC_WORD	wordpools/wasnorm_wordpool_576.txt	LTP123	ltpFR2	14	9	BUTCHER	203	n/a	n/a	0	0	0
2095455	REC_WORD	wordpools/wasnorm_wordpool_576.txt	LTP123	ltpFR2	14	9	WAITRESS	1581	n/a	n/a	0	0	0
2112330	REC_WORD	wordpools/wasnorm_wordpool_576.txt	LTP123	ltpFR2	14	9	ISLAND	745	n/a	n/a	0	0	0
2123872	REC_WORD	wordpools/wasnorm_wordpool_576.txt	LTP123	ltpFR2	14	9	MARSH	874	n/a	n/a	0	0	0
2125286	REC_WORD	wordpools/wasnorm_wordpool_576.txt	LTP123	ltpFR2	14	9	SCALLOP	1242	n/a	n/a	0	0	0
2146047	REC_WORD	wordpools/wasnorm_wordpool_576.txt	LTP123	ltpFR2	14	9	SOFTBALL	1343	n/a	n/a	0	0	0
2146793	REC_WORD	wordpools/wasnorm_wordpool_576.txt	LTP123	ltpFR2	14	9	GLOVE	642	n/a	n/a	0	0	0
2170753	DISTRACTOR	n/a	LTP123	ltpFR2	14	10	n/a	n/a	n/a	n/a	0	0	0
2170754	START	n/a	LTP123	ltpFR2	14	n/a	n/a	n/a	15	n/a	n/a	n/a	n/a
2170785	PROB	n/a	LTP123	ltpFR2	14	n/a	n/a	n/a	15	17	6	7	4
2172787	PROB	n/a	LTP123	ltpFR2	14	n/a	n/a	n/a	15	10	1	8	1
2174021	PROB	n/a	LTP123	ltpFR2	14	n/a	n/a	n/a	15	12	6	4	2
2175205	PROB	n/a	LTP123	ltpFR2	14	n/a	n/a	n/a	15	17	7	6	4
2176607	PROB	n/a	LTP123	ltpFR2	14	n/a	n/a	n/a	15	17	7	1	9
2177857	PROB	n/a	LTP123	ltpFR2	14	n/a	n/a	n/a	15	21	8	6	7
2180310	PROB	n/a	LTP123	ltpFR2	14	n/a	n/a	n/a	15	12	5	3	4
2181810	PROB	n/a	LTP123	ltpFR2	14	n/a	n/a	n/a	15	17	6	8	3
2184179	PROB	n/a	LTP123	ltpFR2	14	n/a	n/a	n/a	15	21	9	7	5
2188232	PROB	n/a	LTP123	ltpFR2	14	n/a	n/a	n/a	15	16	2	8	6
2189484	PROB	n/a	LTP123	ltpFR2	14	n/a	n/a	n/a	15	10	1	5	4
2190802	PROB	n/a	LTP123	ltpFR2	14	n/a	n/a	n/a	15	20	9	3	8
2192319	PROB	n/a	LTP123	ltpFR2	14	n/a	n/a	n/a	15	17	2	8	7
2193557	STOP	n/a	LTP123	ltpFR2	14	n/a	n/a	n/a	15	n/a	n/a	n/a	n/a
2195822	WORD	wordpools/wasnorm_wordpool_576.txt	LTP123	ltpFR2	14	10	COLONEL	348	n/a	n/a	0	0	0
2198341	WORD	wordpools/wasnorm_wordpool_576.txt	LTP123	ltpFR2	14	10	MARINE	869	n/a	n/a	0	0	0
2200827	WORD	wordpools/wasnorm_wordpool_576.txt	LTP123	ltpFR2	14	10	WAGON	1578	n/a	n/a	0	0	0
2203413	WORD	wordpools/wasnorm_wordpool_576.txt	LTP123	ltpFR2	14	10	LETTUCE	814	n/a	n/a	0	0	0
2205880	WORD	wordpools/wasnorm_wordpool_576.txt	LTP123	ltpFR2	14	10	AIRPLANE	12	n/a	n/a	0	0	0
2208504	WORD	wordpools/wasnorm_wordpool_576.txt	LTP123	ltpFR2	14	10	DRINK	498	n/a	n/a	0	0	0
2211134	WORD	wordpools/wasnorm_wordpool_576.txt	LTP123	ltpFR2	14	10	CAPTIVE	240	n/a	n/a	0	0	0
2213637	WORD	wordpools/wasnorm_wordpool_576.txt	LTP123	ltpFR2	14	10	PUDDING	1139	n/a	n/a	0	0	0
2216261	WORD	wordpools/wasnorm_wordpool_576.txt	LTP123	ltpFR2	14	10	INFANT	737	n/a	n/a	0	0	0
2218808	WORD	wordpools/wasnorm_wordpool_576.txt	LTP123	ltpFR2	14	10	WORKER	1621	n/a	n/a	0	0	0
2221293	WORD	wordpools/wasnorm_wordpool_576.txt	LTP123	ltpFR2	14	10	VIRUS	1572	n/a	n/a	0	0	0
2224078	WORD	wordpools/wasnorm_wordpool_576.txt	LTP123	ltpFR2	14	10	WRENCH	1625	n/a	n/a	0	0	0
2226897	WORD	wordpools/wasnorm_wordpool_576.txt	LTP123	ltpFR2	14	10	BOX	159	n/a	n/a	0	0	0
2229649	WORD	wordpools/wasnorm_wordpool_576.txt	LTP123	ltpFR2	14	10	PIZZA	1079	n/a	n/a	0	0	0
2232401	WORD	wordpools/wasnorm_wordpool_576.txt	LTP123	ltpFR2	14	10	TOMBSTONE	1478	n/a	n/a	0	0	0
2234886	WORD	wordpools/wasnorm_wordpool_576.txt	LTP123	ltpFR2	14	10	GRAVE	658	n/a	n/a	0	0	0
2237472	WORD	wordpools/wasnorm_wordpool_576.txt	LTP123	ltpFR2	14	10	NECKLACE	940	n/a	n/a	0	0	0
2240025	WORD	wordpools/wasnorm_wordpool_576.txt	LTP123	ltpFR2	14	10	SPONGE	1355	n/a	n/a	0	0	0
2242543	WORD	wordpools/wasnorm_wordpool_576.txt	LTP123	ltpFR2	14	10	RACKET	1155	n/a	n/a	0	0	0
2245095	WORD	wordpools/wasnorm_wordpool_576.txt	LTP123	ltpFR2	14	10	ORCHID	982	n/a	n/a	0	0	0
2247864	WORD	wordpools/wasnorm_wordpool_576.txt	LTP123	ltpFR2	14	10	EUROPE	541	n/a	n/a	0	0	0
2250500	WORD	wordpools/wasnorm_wordpool_576.txt	LTP123	ltpFR2	14	10	TYPIST	1532	n/a	n/a	0	0	0
2252984	WORD	wordpools/wasnorm_wordpool_576.txt	LTP123	ltpFR2	14	10	BABY	64	n/a	n/a	0	0	0
2255587	WORD	wordpools/wasnorm_wordpool_576.txt	LTP123	ltpFR2	14	10	HEDGE	699	n/a	n/a	0	0	0
2257205	START	n/a	LTP123	ltpFR2	14	n/a	n/a	n/a	16	n/a	n/a	n/a	n/a
2258153	DISTRACTOR	n/a	LTP123	ltpFR2	14	10	n/a	n/a	n/a	n/a	0	0	0
2258173	PROB	n/a	LTP123	ltpFR2	14	n/a	n/a	n/a	16	18	7	6	5
2259973	PROB	n/a	LTP123	ltpFR2	14	n/a	n/a	n/a	16	13	2	4	7
2262026	PROB	n/a	LTP123	ltpFR2	14	n/a	n/a	n/a	16	21	8	9	4
2263694	PROB	n/a	LTP123	ltpFR2	14	n/a	n/a	n/a	16	22	7	7	8
2266228	PROB	n/a	LTP123	ltpFR2	14	n/a	n/a	n/a	16	16	8	4	4
2267846	PROB	n/a	LTP123	ltpFR2	14	n/a	n/a	n/a	16	16	9	5	2
2269515	PROB	n/a	LTP123	ltpFR2	14	n/a	n/a	n/a	16	15	8	2	5
2270816	PROB	n/a	LTP123	ltpFR2	14	n/a	n/a	n/a	16	12	7	3	2
2272283	PROB	n/a	LTP123	ltpFR2	14	n/a	n/a	n/a	16	11	6	3	2
2273701	PROB	n/a	LTP123	ltpFR2	14	n/a	n/a	n/a	16	16	9	6	1
2275269	PROB	n/a	LTP123	ltpFR2	14	n/a	n/a	n/a	16	25	9	8	8
2277437	PROB	n/a	LTP123	ltpFR2	14	n/a	n/a	n/a	16	19	3	9	7
2281205	STOP	n/a	LTP123	ltpFR2	14	n/a	n/a	n/a	16	n/a	n/a	n/a	n/a
2283093	REC_START	n/a	LTP123	ltpFR2	14	10	n/a	n/a	n/a	n/a	0	0	0
2283571	REC_WORD	wordpools/wasnorm_wordpool_576.txt	LTP123	ltpFR2	14	10	TYPIST	1532	n/a	n/a	0	0	0
2284566	REC_WORD	wordpools/wasnorm_wordpool_576.txt	LTP123	ltpFR2	14	10	ORCHID	982	n/a	n/a	0	0	0
2286006	REC_WORD	wordpools/wasnorm_wordpool_576.txt	LTP123	ltpFR2	14	10	INFANT	737	n/a	n/a	0	0	0
2286479	REC_WORD	wordpools/wasnorm_wordpool_576.txt	LTP123	ltpFR2	14	10	BABY	64	n/a	n/a	0	0	0
2287013	REC_WORD	wordpools/wasnorm_wordpool_576.txt	LTP123	ltpFR2	14	10	BOX	159	n/a	n/a	0	0	0
2293027	REC_WORD	wordpools/wasnorm_wordpool_576.txt	LTP123	ltpFR2	14	10	AIRPLANE	12	n/a	n/a	0	0	0
2294027	REC_WORD_VV	wordpools/wasnorm_wordpool_576.txt	LTP123	ltpFR2	14	10	<>	-1	n/a	n/a	0	0	0
2294512	REC_WORD	wordpools/wasnorm_wordpool_576.txt	LTP123	ltpFR2	14	10	TOMBSTONE	1478	n/a	n/a	0	0	0
2295414	REC_WORD	wordpools/wasnorm_wordpool_576.txt	LTP123	ltpFR2	14	10	GRAVE	658	n/a	n/a	0	0	0
2296165	REC_WORD	wordpools/wasnorm_wordpool_576.txt	LTP123	ltpFR2	14	10	PIZZA	1079	n/a	n/a	0	0	0
2296974	REC_WORD	wordpools/wasnorm_wordpool_576.txt	LTP123	ltpFR2	14	10	MARINE	869	n/a	n/a	0	0	0
2297777	REC_WORD	wordpools/wasnorm_wordpool_576.txt	LTP123	ltpFR2	14	10	COLONEL	348	n/a	n/a	0	0	0
2300338	REC_WORD	wordpools/wasnorm_wordpool_576.txt	LTP123	ltpFR2	14	10	WAGON	1578	n/a	n/a	0	0	0
2301338	REC_WORD_VV	wordpools/wasnorm_wordpool_576.txt	LTP123	ltpFR2	14	10	<>	-1	n/a	n/a	0	0	0
2309454	REC_WORD	wordpools/wasnorm_wordpool_576.txt	LTP123	ltpFR2	14	10	NECKLACE	940	n/a	n/a	0	0	0
2313749	REC_WORD	wordpools/wasnorm_wordpool_576.txt	LTP123	ltpFR2	14	10	EUROPE	541	n/a	n/a	0	0	0
2335122	REC_WORD	wordpools/wasnorm_wordpool_576.txt	LTP123	ltpFR2	14	10	AGENT	10	n/a	n/a	0	0	0
2342105	REC_WORD	wordpools/wasnorm_wordpool_576.txt	LTP123	ltpFR2	14	10	MARINE	869	n/a	n/a	0	0	0
2343688	REC_WORD	wordpools/wasnorm_wordpool_576.txt	LTP123	ltpFR2	14	10	COLONEL	348	n/a	n/a	0	0	0
2373716	DISTRACTOR	n/a	LTP123	ltpFR2	14	11	n/a	n/a	n/a	n/a	0	0	0
2373716	START	n/a	LTP123	ltpFR2	14	n/a	n/a	n/a	17	n/a	n/a	n/a	n/a
2373748	PROB	n/a	LTP123	ltpFR2	14	n/a	n/a	n/a	17	12	7	1	4
2375465	PROB	n/a	LTP123	ltpFR2	14	n/a	n/a	n/a	17	22	6	7	9
2377418	PROB	n/a	LTP123	ltpFR2	14	n/a	n/a	n/a	17	12	1	3	8
2380219	PROB	n/a	LTP123	ltpFR2	14	n/a	n/a	n/a	17	13	4	5	4
2382389	PROB	n/a	LTP123	ltpFR2	14	n/a	n/a	n/a	17	21	9	9	3
2383955	PROB	n/a	LTP123	ltpFR2	14	n/a	n/a	n/a	17	15	8	2	5
2385141	PROB	n/a	LTP123	ltpFR2	14	n/a	n/a	n/a	17	8	2	5	1
2386824	PROB	n/a	LTP123	ltpFR2	14	n/a	n/a	n/a	17	19	4	9	6
2388293	PROB	n/a	LTP123	ltpFR2	14	n/a	n/a	n/a	17	19	6	6	7
2389844	PROB	n/a	LTP123	ltpFR2	14	n/a	n/a	n/a	17	21	8	4	9
2392363	PROB	n/a	LTP123	ltpFR2	14	n/a	n/a	n/a	17	8	4	1	3
2393781	PROB	n/a	LTP123	ltpFR2	14	n/a	n/a	n/a	17	9	6	1	2
2395949	PROB	n/a	LTP123	ltpFR2	14	n/a	n/a	n/a	17	19	8	5	6
2397533	STOP	n/a	LTP123	ltpFR2	14	n/a	n/a	n/a	17	n/a	n/a	n/a	n/a
2398951	WORD	wordpools/wasnorm_wordpool_576.txt	LTP123	ltpFR2	14	11	LABEL	790	n/a	n/a	0	0	0
2401387	WORD	wordpools/wasnorm_wordpool_576.txt	LTP123	ltpFR2	14	11	BACKBONE	66	n/a	n/a	0	0	0
2403839	WORD	wordpools/wasnorm_wordpool_576.txt	LTP123	ltpFR2	14	11	MARROW	872	n/a	n/a	0	0	0
2406307	WORD	wordpools/wasnorm_wordpool_576.txt	LTP123	ltpFR2	14	11	RAZOR	1171	n/a	n/a	0	0	0
2408809	WORD	wordpools/wasnorm_wordpool_576.txt	LTP123	ltpFR2	14	11	MOP	916	n/a	n/a	0	0	0
2411261	WORD	wordpools/wasnorm_wordpool_576.txt	LTP123	ltpFR2	14	11	SHELF	1280	n/a	n/a	0	0	0
2413980	WORD	wordpools/wasnorm_wordpool_576.txt	LTP123	ltpFR2	14	11	MISSILE	900	n/a	n/a	0	0	0
2416482	WORD	wordpools/wasnorm_wordpool_576.txt	LTP123	ltpFR2	14	11	BLOCKADE	137	n/a	n/a	0	0	0
2419017	WORD	wordpools/wasnorm_wordpool_576.txt	LTP123	ltpFR2	14	11	BANKER	84	n/a	n/a	0	0	0
2421819	WORD	wordpools/wasnorm_wordpool_576.txt	LTP123	ltpFR2	14	11	PANTHER	1009	n/a	n/a	0	0	0
2424656	WORD	wordpools/wasnorm_wordpool_576.txt	LTP123	ltpFR2	14	11	TABLE	1426	n/a	n/a	0	0	0
2427474	WORD	wordpools/wasnorm_wordpool_576.txt	LTP123	ltpFR2	14	11	QUARTER	1148	n/a	n/a	0	0	0
2429960	WORD	wordpools/wasnorm_wordpool_576.txt	LTP123	ltpFR2	14	11	MILK	895	n/a	n/a	0	0	0
2432712	WORD	wordpools/wasnorm_wordpool_576.txt	LTP123	ltpFR2	14	11	PADDING	999	n/a	n/a	0	0	0
2435531	WORD	wordpools/wasnorm_wordpool_576.txt	LTP123	ltpFR2	14	11	HEART	697	n/a	n/a	0	0	0
2438049	WORD	wordpools/wasnorm_wordpool_576.txt	LTP123	ltpFR2	14	11	DONOR	485	n/a	n/a	0	0	0
2440534	WORD	wordpools/wasnorm_wordpool_576.txt	LTP123	ltpFR2	14	11	YARN	1631	n/a	n/a	0	0	0
2443103	WORD	wordpools/wasnorm_wordpool_576.txt	LTP123	ltpFR2	14	11	BEAVER	109	n/a	n/a	0	0	0
2445838	WORD	wordpools/wasnorm_wordpool_576.txt	LTP123	ltpFR2	14	11	ELBOW	520	n/a	n/a	0	0	0
2448592	WORD	wordpools/wasnorm_wordpool_576.txt	LTP123	ltpFR2	14	11	BUBBLE	183	n/a	n/a	0	0	0
2451093	WORD	wordpools/wasnorm_wordpool_576.txt	LTP123	ltpFR2	14	11	CRIB	407	n/a	n/a	0	0	0
2453595	WORD	wordpools/wasnorm_wordpool_576.txt	LTP123	ltpFR2	14	11	KITCHEN	778	n/a	n/a	0	0	0
2456147	WORD	wordpools/wasnorm_wordpool_576.txt	LTP123	ltpFR2	14	11	BARLEY	88	n/a	n/a	0	0	0
2458967	WORD	wordpools/wasnorm_wordpool_576.txt	LTP123	ltpFR2	14	11	PRINCESS	1125	n/a	n/a	0	0	0
2460585	START	n/a	LTP123	ltpFR2	14	n/a	n/a	n/a	18	n/a	n/a	n/a	n/a
2461442	DISTRACTOR	n/a	LTP123	ltpFR2	14	11	n/a	n/a	n/a	n/a	0	0	0
2461469	PROB	n/a	LTP123	ltpFR2	14	n/a	n/a	n/a	18	17	7	1	9
2463103	PROB	n/a	LTP123	ltpFR2	14	n/a	n/a	n/a	18	13	1	7	5
2465238	PROB	n/a	LTP123	ltpFR2	14	n/a	n/a	n/a	18	16	3	7	6
2467639	PROB	n/a	LTP123	ltpFR2	14	n/a	n/a	n/a	18	18	9	2	7
2469207	PROB	n/a	LTP123	ltpFR2	14	n/a	n/a	n/a	18	5	3	1	1
2470358	PROB	n/a	LTP123	ltpFR2	14	n/a	n/a	n/a	18	18	4	9	5
2472176	PROB	n/a	LTP123	ltpFR2	14	n/a	n/a	n/a	18	18	6	6	6
2473444	PROB	n/a	LTP123	ltpFR2	14	n/a	n/a	n/a	18	24	8	7	9
2476501	PROB	n/a	LTP123	ltpFR2	14	n/a	n/a	n/a	18	18	5	4	9
2478247	PROB	n/a	LTP123	ltpFR2	14	n/a	n/a	n/a	18	15	4	7	4
2479933	PROB	n/a	LTP123	ltpFR2	14	n/a	n/a	n/a	18	24	7	8	9
2481835	PROB	n/a	LTP123	ltpFR2	14	n/a	n/a	n/a	18	10	3	4	3
2483688	STOP	n/a	LTP123	ltpFR2	14	n/a	n/a	n/a	18	n/a	n/a	n/a	n/a
2486405	REC_START	n/a	LTP123	ltpFR2	14	11	n/a	n/a	n/a	n/a	0	0	0
2486788	REC_WORD	wordpools/wasnorm_wordpool_576.txt	LTP123	ltpFR2	14	11	PRINCESS	1125	n/a	n/a	0	0	0
2487448	REC_WORD	wordpools/wasnorm_wordpool_576.txt	LTP123	ltpFR2	14	11	BLOCKADE	137	n/a	n/a	0	0	0
2488077	REC_WORD	wordpools/wasnorm_wordpool_576.txt	LTP123	ltpFR2	14	11	MISSILE	900	n/a	n/a	0	0	0
2489730	REC_WORD	wordpools/wasnorm_wordpool_576.txt	LTP123	ltpFR2	14	11	HEART	697	n/a	n/a	0	0	0
2490290	REC_WORD	wordpools/wasnorm_wordpool_576.txt	LTP123	ltpFR2	14	11	DONOR	485	n/a	n/a	0	0	0
2490970	REC_WORD	wordpools/wasnorm_wordpool_576.txt	LTP123	ltpFR2	14	11	BACKBONE	66	n/a	n/a	0	0	0
2491980	REC_WORD	wordpools/wasnorm_wordpool_576.txt	LTP123	ltpFR2	14	11	MARROW	872	n/a	n/a	0	0	0
2499172	REC_WORD	wordpools/wasnorm_wordpool_576.txt	LTP123	ltpFR2	14	11	KITCHEN	778	n/a	n/a	0	0	0
2502052	REC_WORD	wordpools/wasnorm_wordpool_576.txt	LTP123	ltpFR2	14	11	SHELF	1280	n/a	n/a	0	0	0
2508031	REC_WORD	wordpools/wasnorm_wordpool_576.txt	LTP123	ltpFR2	14	11	CRIB	407	n/a	n/a	0	0	0
2516087	REC_WORD	wordpools/wasnorm_wordpool_576.txt	LTP123	ltpFR2	14	11	MILK	895	n/a	n/a	0	0	0
2521173	REC_WORD	wordpools/wasnorm_wordpool_576.txt	LTP123	ltpFR2	14	11	BARLEY	88	n/a	n/a	0	0	0
2554813	REC_WORD	wordpools/wasnorm_wordpool_576.txt	LTP123	ltpFR2	14	11	BANK	83	n/a	n/a	0	0	0
2577060	WORD	wordpools/wasnorm_wordpool_576.txt	LTP123	ltpFR2	14	12	ZIPPER	1636	n/a	n/a	0	0	0
2579879	WORD	wordpools/wasnorm_wordpool_576.txt	LTP123	ltpFR2	14	12	ZEBRA	1635	n/a	n/a	0	0	0
2582649	WORD	wordpools/wasnorm_wordpool_576.txt	LTP123	ltpFR2	14	12	OUTLAW	989	n/a	n/a	0	0	0
2585217	WORD	wordpools/wasnorm_wordpool_576.txt	LTP123	ltpFR2	14	12	SANDWICH	1232	n/a	n/a	0	0	0
2588021	WORD	wordpools/wasnorm_wordpool_576.txt	LTP123	ltpFR2	14	12	CUSTARD	429	n/a	n/a	0	0	0
2590688	WORD	wordpools/wasnorm_wordpool_576.txt	LTP123	ltpFR2	14	12	CARRIAGE	248	n/a	n/a	0	0	0
2593457	WORD	wordpools/wasnorm_wordpool_576.txt	LTP123	ltpFR2	14	12	TABLET	1427	n/a	n/a	0	0	0
2596242	WORD	wordpools/wasnorm_wordpool_576.txt	LTP123	ltpFR2	14	12	OZONE	996	n/a	n/a	0	0	0
2599078	WORD	wordpools/wasnorm_wordpool_576.txt	LTP123	ltpFR2	14	12	BRANDY	169	n/a	n/a	0	0	0
2601647	WORD	wordpools/wasnorm_wordpool_576.txt	LTP123	ltpFR2	14	12	RATTLE	1170	n/a	n/a	0	0	0
2604132	WORD	wordpools/wasnorm_wordpool_576.txt	LTP123	ltpFR2	14	12	BRICK	172	n/a	n/a	0	0	0
2606617	WORD	wordpools/wasnorm_wordpool_576.txt	LTP123	ltpFR2	14	12	BUGGY	188	n/a	n/a	0	0	0
2609402	WORD	wordpools/wasnorm_wordpool_576.txt	LTP123	ltpFR2	14	12	STREAM	1392	n/a	n/a	0	0	0
2612056	WORD	wordpools/wasnorm_wordpool_576.txt	LTP123	ltpFR2	14	12	BATHTUB	100	n/a	n/a	0	0	0
2614691	WORD	wordpools/wasnorm_wordpool_576.txt	LTP123	ltpFR2	14	12	ASIA	46	n/a	n/a	0	0	0
2617159	WORD	wordpools/wasnorm_wordpool_576.txt	LTP123	ltpFR2	14	12	FINGER	567	n/a	n/a	0	0	0
2619861	WORD	wordpools/wasnorm_wordpool_576.txt	LTP123	ltpFR2	14	12	ARM	38	n/a	n/a	0	0	0
2622463	WORD	wordpools/wasnorm_wordpool_576.txt	LTP123	ltpFR2	14	12	WRIST	1626	n/a	n/a	0	0	0
2625200	WORD	wordpools/wasnorm_wordpool_576.txt	LTP123	ltpFR2	14	12	GALLON	618	n/a	n/a	0	0	0
2627852	WORD	wordpools/wasnorm_wordpool_576.txt	LTP123	ltpFR2	14	12	EGYPT	519	n/a	n/a	0	0	0
2630475	WORD	wordpools/wasnorm_wordpool_576.txt	LTP123	ltpFR2	14	12	TEMPLE	1448	n/a	n/a	0	0	0
2632972	WORD	wordpools/wasnorm_wordpool_576.txt	LTP123	ltpFR2	14	12	JELLY	755	n/a	n/a	0	0	0
2635790	WORD	wordpools/wasnorm_wordpool_576.txt	LTP123	ltpFR2	14	12	SHELTER	1282	n/a	n/a	0	0	0
2638376	WORD	wordpools/wasnorm_wordpool_576.txt	LTP123	ltpFR2	14	12	ANTLER	29	n/a	n/a	0	0	0
2639995	START	n/a	LTP123	ltpFR2	14	n/a	n/a	n/a	19	n/a	n/a	n/a	n/a
2641064	DISTRACTOR	n/a	LTP123	ltpFR2	14	12	n/a	n/a	n/a	n/a	0	0	0
2641078	PROB	n/a	LTP123	ltpFR2	14	n/a	n/a	n/a	19	19	7	3	9
2643063	PROB	n/a	LTP123	ltpFR2	14	n/a	n/a	n/a	19	10	2	2	6
2644597	PROB	n/a	LTP123	ltpFR2	14	n/a	n/a	n/a	19	8	3	2	3
2647032	PROB	n/a	LTP123	ltpFR2	14	n/a	n/a	n/a	19	4	2	1	1
2648334	PROB	n/a	LTP123	ltpFR2	14	n/a	n/a	n/a	19	13	4	3	6
2650202	PROB	n/a	LTP123	ltpFR2	14	n/a	n/a	n/a	19	19	6	4	9
2651453	PROB	n/a	LTP123	ltpFR2	14	n/a	n/a	n/a	19	11	2	4	5
2653238	PROB	n/a	LTP123	ltpFR2	14	n/a	n/a	n/a	19	21	8	4	9
2654822	PROB	n/a	LTP123	ltpFR2	14	n/a	n/a	n/a	19	10	7	1	2
2656175	PROB	n/a	LTP123	ltpFR2	14	n/a	n/a	n/a	19	12	5	3	4
2658059	PROB	n/a	LTP123	ltpFR2	14	n/a	n/a	n/a	19	15	7	3	5
2659259	PROB	n/a	LTP123	ltpFR2	14	n/a	n/a	n/a	19	11	3	2	6
2661545	PROB	n/a	LTP123	ltpFR2	14	n/a	n/a	n/a	19	12	9	2	1
2662615	STOP	n/a	LTP123	ltpFR2	14	n/a	n/a	n/a	19	n/a	n/a	n/a	n/a
2665899	REC_START	n/a	LTP123	ltpFR2	14	12	n/a	n/a	n/a	n/a	0	0	0
2667391	REC_WORD	wordpools/wasnorm_wordpool_576.txt	LTP123	ltpFR2	14	12	CUSTARD	429	n/a	n/a	0	0	0
2668080	REC_WORD	wordpools/wasnorm_wordpool_576.txt	LTP123	ltpFR2	14	12	JELLY	755	n/a	n/a	0	0	0
2668589	REC_WORD	wordpools/wasnorm_wordpool_576.txt	LTP123	ltpFR2	14	12	SANDWICH	1232	n/a	n/a	0	0	0
2669589	REC_WORD_VV	wordpools/wasnorm_wordpool_576.txt	LTP123	ltpFR2	14	12	<>	-1	n/a	n/a	0	0	0
2670959	REC_WORD	wordpools/wasnorm_wordpool_576.txt	LTP123	ltpFR2	14	12	ZEBRA	1635	n/a	n/a	0	0	0
2671559	REC_WORD	wordpools/wasnorm_wordpool_576.txt	LTP123	ltpFR2	14	12	ANTLER	29	n/a	n/a	0	0	0
2672396	REC_WORD	wordpools/wasnorm_wordpool_576.txt	LTP123	ltpFR2	14	12	ASIA	46	n/a	n/a	0	0	0
2673023	REC_WORD	wordpools/wasnorm_wordpool_576.txt	LTP123	ltpFR2	14	12	EGYPT	519	n/a	n/a	0	0	0
2673675	REC_WORD	wordpools/wasnorm_wordpool_576.txt	LTP123	ltpFR2	14	12	TEMPLE	1448	n/a	n/a	0	0	0
2677328	REC_WORD	wordpools/wasnorm_wordpool_576.txt	LTP123	ltpFR2	14	12	RIVER	1194	n/a	n/a	0	0	0
2679027	REC_WORD	wordpools/wasnorm_wordpool_576.txt	LTP123	ltpFR2	14	12	GALLON	618	n/a	n/a	0	0	0
2683349	REC_WORD	wordpools/wasnorm_wordpool_576.txt	LTP123	ltpFR2	14	12	WRIST	1626	n/a	n/a	0	0	0
2683843	REC_WORD	wordpools/wasnorm_wordpool_576.txt	LTP123	ltpFR2	14	12	FINGER	567	n/a	n/a	0	0	0
2684843	REC_WORD_VV	wordpools/wasnorm_wordpool_576.txt	LTP123	ltpFR2	14	12	<>	-1	n/a	n/a	0	0	0
2685383	REC_WORD	wordpools/wasnorm_wordpool_576.txt	LTP123	ltpFR2	14	12	ARM	38	n/a	n/a	0	0	0
2686325	REC_WORD	wordpools/wasnorm_wordpool_576.txt	LTP123	ltpFR2	14	12	TABLET	1427	n/a	n/a	0	0	0
2687325	REC_WORD_VV	wordpools/wasnorm_wordpool_576.txt	LTP123	ltpFR2	14	12	<>	-1	n/a	n/a	0	0	0
2719465	REC_WORD	wordpools/wasnorm_wordpool_576.txt	LTP123	ltpFR2	14	12	CARRIAGE	248	n/a	n/a	0	0	0
2720276	REC_WORD	wordpools/wasnorm_wordpool_576.txt	LTP123	ltpFR2	14	12	BUGGY	188	n/a	n/a	0	0	0
2756554	WORD	wordpools/wasnorm_wordpool_576.txt	LTP123	ltpFR2	14	13	PLAYGROUND	1087	n/a	n/a	0	0	0
2759223	WORD	wordpools/wasnorm_wordpool_576.txt	LTP123	ltpFR2	14	13	PARENT	1013	n/a	n/a	0	0	0
2761675	WORD	wordpools/wasnorm_wordpool_576.txt	LTP123	ltpFR2	14	13	COMET	353	n/a	n/a	0	0	0
2764377	WORD	wordpools/wasnorm_wordpool_576.txt	LTP123	ltpFR2	14	13	HUMAN	726	n/a	n/a	0	0	0
2766879	WORD	wordpools/wasnorm_wordpool_576.txt	LTP123	ltpFR2	14	13	PATIENT	1024	n/a	n/a	0	0	0
2769565	WORD	wordpools/wasnorm_wordpool_576.txt	LTP123	ltpFR2	14	13	SCARECROW	1245	n/a	n/a	0	0	0
2772266	WORD	wordpools/wasnorm_wordpool_576.txt	LTP123	ltpFR2	14	13	SISTER	1312	n/a	n/a	0	0	0
2774802	WORD	wordpools/wasnorm_wordpool_576.txt	LTP123	ltpFR2	14	13	KEEPER	769	n/a	n/a	0	0	0
2777425	WORD	wordpools/wasnorm_wordpool_576.txt	LTP123	ltpFR2	14	13	DAUGHTER	442	n/a	n/a	0	0	0
2779923	WORD	wordpools/wasnorm_wordpool_576.txt	LTP123	ltpFR2	14	13	DAISY	435	n/a	n/a	0	0	0
2782575	WORD	wordpools/wasnorm_wordpool_576.txt	LTP123	ltpFR2	14	13	SUSPECT	1415	n/a	n/a	0	0	0
2785077	WORD	wordpools/wasnorm_wordpool_576.txt	LTP123	ltpFR2	14	13	CANAL	226	n/a	n/a	0	0	0
2787700	WORD	wordpools/wasnorm_wordpool_576.txt	LTP123	ltpFR2	14	13	CONCERT	360	n/a	n/a	0	0	0
2790231	WORD	wordpools/wasnorm_wordpool_576.txt	LTP123	ltpFR2	14	13	PEBBLE	1035	n/a	n/a	0	0	0
2793000	WORD	wordpools/wasnorm_wordpool_576.txt	LTP123	ltpFR2	14	13	CEILING	265	n/a	n/a	0	0	0
2795702	WORD	wordpools/wasnorm_wordpool_576.txt	LTP123	ltpFR2	14	13	SWAMP	1416	n/a	n/a	0	0	0
2798387	WORD	wordpools/wasnorm_wordpool_576.txt	LTP123	ltpFR2	14	13	LEOPARD	812	n/a	n/a	0	0	0
2800956	WORD	wordpools/wasnorm_wordpool_576.txt	LTP123	ltpFR2	14	13	COUCH	386	n/a	n/a	0	0	0
2803625	WORD	wordpools/wasnorm_wordpool_576.txt	LTP123	ltpFR2	14	13	PERCH	1048	n/a	n/a	0	0	0
2806210	WORD	wordpools/wasnorm_wordpool_576.txt	LTP123	ltpFR2	14	13	CHAUFFEUR	283	n/a	n/a	0	0	0
2808729	WORD	wordpools/wasnorm_wordpool_576.txt	LTP123	ltpFR2	14	13	DASHBOARD	441	n/a	n/a	0	0	0
2811365	WORD	wordpools/wasnorm_wordpool_576.txt	LTP123	ltpFR2	14	13	SIBLING	1301	n/a	n/a	0	0	0
2814134	WORD	wordpools/wasnorm_wordpool_576.txt	LTP123	ltpFR2	14	13	SHORTCAKE	1292	n/a	n/a	0	0	0
2816936	WORD	wordpools/wasnorm_wordpool_576.txt	LTP123	ltpFR2	14	13	PENGUIN	1044	n/a	n/a	0	0	0
2818554	START	n/a	LTP123	ltpFR2	14	n/a	n/a	n/a	20	n/a	n/a	n/a	n/a
2819716	DISTRACTOR	n/a	LTP123	ltpFR2	14	13	n/a	n/a	n/a	n/a	0	0	0
2819738	PROB	n/a	LTP123	ltpFR2	14	n/a	n/a	n/a	20	12	6	4	2
2821423	PROB	n/a	LTP123	ltpFR2	14	n/a	n/a	n/a	20	11	3	5	3
2823458	PROB	n/a	LTP123	ltpFR2	14	n/a	n/a	n/a	20	22	9	4	9
2825425	PROB	n/a	LTP123	ltpFR2	14	n/a	n/a	n/a	20	14	8	5	1
2827377	PROB	n/a	LTP123	ltpFR2	14	n/a	n/a	n/a	20	23	8	8	7
2829846	PROB	n/a	LTP123	ltpFR2	14	n/a	n/a	n/a	20	17	5	9	3
2831897	PROB	n/a	LTP123	ltpFR2	14	n/a	n/a	n/a	20	23	5	9	9
2834816	PROB	n/a	LTP123	ltpFR2	14	n/a	n/a	n/a	20	13	9	2	2
2836768	PROB	n/a	LTP123	ltpFR2	14	n/a	n/a	n/a	20	21	9	7	5
2842554	STOP	n/a	LTP123	ltpFR2	14	n/a	n/a	n/a	20	n/a	n/a	n/a	n/a
2844392	REC_START	n/a	LTP123	ltpFR2	14	13	n/a	n/a	n/a	n/a	0	0	0
2845566	REC_WORD	wordpools/wasnorm_wordpool_576.txt	LTP123	ltpFR2	14	13	PENGUIN	1044	n/a	n/a	0	0	0
2847946	REC_WORD	wordpools/wasnorm_wordpool_576.txt	LTP123	ltpFR2	14	13	PLAYGROUND	1087	n/a	n/a	0	0	0
2848946	REC_WORD_VV	wordpools/wasnorm_wordpool_576.txt	LTP123	ltpFR2	14	13	<>	-1	n/a	n/a	0	0	0
2849785	REC_WORD	wordpools/wasnorm_wordpool_576.txt	LTP123	ltpFR2	14	13	PARENT	1013	n/a	n/a	0	0	0
2850411	REC_WORD	wordpools/wasnorm_wordpool_576.txt	LTP123	ltpFR2	14	13	HUMAN	726	n/a	n/a	0	0	0
2852189	REC_WORD	wordpools/wasnorm_wordpool_576.txt	LTP123	ltpFR2	14	13	DAUGHTER	442	n/a	n/a	0	0	0
2852720	REC_WORD	wordpools/wasnorm_wordpool_576.txt	LTP123	ltpFR2	14	13	SIBLING	1301	n/a	n/a	0	0	0
2856528	REC_WORD	wordpools/wasnorm_wordpool_576.txt	LTP123	ltpFR2	14	13	PEBBLE	1035	n/a	n/a	0	0	0
2857712	REC_WORD	wordpools/wasnorm_wordpool_576.txt	LTP123	ltpFR2	14	13	CEILING	265	n/a	n/a	0	0	0
2859867	REC_WORD	wordpools/wasnorm_wordpool_576.txt	LTP123	ltpFR2	14	13	SUSPECT	1415	n/a	n/a	0	0	0
2860896	REC_WORD	wordpools/wasnorm_wordpool_576.txt	LTP123	ltpFR2	14	13	DAISY	435	n/a	n/a	0	0	0
2871142	REC_WORD	wordpools/wasnorm_wordpool_576.txt	LTP123	ltpFR2	14	13	ZIPPER	1636	n/a	n/a	0	0	0
2879382	REC_WORD	wordpools/wasnorm_wordpool_576.txt	LTP123	ltpFR2	14	13	COMET	353	n/a	n/a	0	0	0
2896267	REC_WORD	wordpools/wasnorm_wordpool_576.txt	LTP123	ltpFR2	14	13	CHAUFFEUR	283	n/a	n/a	0	0	0
2897141	REC_WORD	wordpools/wasnorm_wordpool_576.txt	LTP123	ltpFR2	14	13	DASHBOARD	441	n/a	n/a	0	0	0
2912662	REC_WORD	wordpools/wasnorm_wordpool_576.txt	LTP123	ltpFR2	14	13	PATIENT	1024	n/a	n/a	0	0	0
2935046	WORD	wordpools/wasnorm_wordpool_576.txt	LTP123	ltpFR2	14	14	THRONE	1461	n/a	n/a	0	0	0
2937798	WORD	wordpools/wasnorm_wordpool_576.txt	LTP123	ltpFR2	14	14	CASHIER	254	n/a	n/a	0	0	0
2940401	WORD	wordpools/wasnorm_wordpool_576.txt	LTP123	ltpFR2	14	14	STATUE	1374	n/a	n/a	0	0	0
2943205	WORD	wordpools/wasnorm_wordpool_576.txt	LTP123	ltpFR2	14	14	SUNRISE	1407	n/a	n/a	0	0	0
2945838	WORD	wordpools/wasnorm_wordpool_576.txt	LTP123	ltpFR2	14	14	CELLAR	267	n/a	n/a	0	0	0
2948424	WORD	wordpools/wasnorm_wordpool_576.txt	LTP123	ltpFR2	14	14	VALVE	1546	n/a	n/a	0	0	0
2951109	WORD	wordpools/wasnorm_wordpool_576.txt	LTP123	ltpFR2	14	14	DRIVER	499	n/a	n/a	0	0	0
2953929	WORD	wordpools/wasnorm_wordpool_576.txt	LTP123	ltpFR2	14	14	DANDRUFF	439	n/a	n/a	0	0	0
2956431	WORD	wordpools/wasnorm_wordpool_576.txt	LTP123	ltpFR2	14	14	SCARF	1246	n/a	n/a	0	0	0
2958932	WORD	wordpools/wasnorm_wordpool_576.txt	LTP123	ltpFR2	14	14	FARMER	553	n/a	n/a	0	0	0
2961417	WORD	wordpools/wasnorm_wordpool_576.txt	LTP123	ltpFR2	14	14	CHILD	299	n/a	n/a	0	0	0
2964203	WORD	wordpools/wasnorm_wordpool_576.txt	LTP123	ltpFR2	14	14	DRILL	497	n/a	n/a	0	0	0
2966839	WORD	wordpools/wasnorm_wordpool_576.txt	LTP123	ltpFR2	14	14	MATCH	878	n/a	n/a	0	0	0
2969474	WORD	wordpools/wasnorm_wordpool_576.txt	LTP123	ltpFR2	14	14	RECEIPT	1173	n/a	n/a	0	0	0
2972126	WORD	wordpools/wasnorm_wordpool_576.txt	LTP123	ltpFR2	14	14	SALAD	1224	n/a	n/a	0	0	0
2974562	WORD	wordpools/wasnorm_wordpool_576.txt	LTP123	ltpFR2	14	14	MOTOR	922	n/a	n/a	0	0	0
2977331	WORD	wordpools/wasnorm_wordpool_576.txt	LTP123	ltpFR2	14	14	MONEY	908	n/a	n/a	0	0	0
2980133	WORD	wordpools/wasnorm_wordpool_576.txt	LTP123	ltpFR2	14	14	JOURNAL	760	n/a	n/a	0	0	0
2982885	WORD	wordpools/wasnorm_wordpool_576.txt	LTP123	ltpFR2	14	14	GRAVEL	659	n/a	n/a	0	0	0
2985688	WORD	wordpools/wasnorm_wordpool_576.txt	LTP123	ltpFR2	14	14	BALLOON	75	n/a	n/a	0	0	0
2988506	WORD	wordpools/wasnorm_wordpool_576.txt	LTP123	ltpFR2	14	14	CHIPMUNK	304	n/a	n/a	0	0	0
2991130	WORD	wordpools/wasnorm_wordpool_576.txt	LTP123	ltpFR2	14	14	BRIEFCASE	175	n/a	n/a	0	0	0
2993727	WORD	wordpools/wasnorm_wordpool_576.txt	LTP123	ltpFR2	14	14	HORSE	719	n/a	n/a	0	0	0
2996214	WORD	wordpools/wasnorm_wordpool_576.txt	LTP123	ltpFR2	14	14	BASEMENT	94	n/a	n/a	0	0	0
2997831	START	n/a	LTP123	ltpFR2	14	n/a	n/a	n/a	21	n/a	n/a	n/a	n/a
2998876	DISTRACTOR	n/a	LTP123	ltpFR2	14	14	n/a	n/a	n/a	n/a	0	0	0
2998898	PROB	n/a	LTP123	ltpFR2	14	n/a	n/a	n/a	21	10	1	6	3
3001633	PROB	n/a	LTP123	ltpFR2	14	n/a	n/a	n/a	21	20	5	6	9
3003384	PROB	n/a	LTP123	ltpFR2	14	n/a	n/a	n/a	21	20	8	7	5
3005002	PROB	n/a	LTP123	ltpFR2	14	n/a	n/a	n/a	21	23	8	7	8
3007404	PROB	n/a	LTP123	ltpFR2	14	n/a	n/a	n/a	21	17	9	5	3
3010674	PROB	n/a	LTP123	ltpFR2	14	n/a	n/a	n/a	21	14	5	2	7
3012242	PROB	n/a	LTP123	ltpFR2	14	n/a	n/a	n/a	21	15	5	1	9
3013442	PROB	n/a	LTP123	ltpFR2	14	n/a	n/a	n/a	21	16	3	4	9
3015027	PROB	n/a	LTP123	ltpFR2	14	n/a	n/a	n/a	21	24	6	9	9
3016761	PROB	n/a	LTP123	ltpFR2	14	n/a	n/a	n/a	21	15	9	2	4
3018631	PROB	n/a	LTP123	ltpFR2	14	n/a	n/a	n/a	21	13	8	3	2
3021831	STOP	n/a	LTP123	ltpFR2	14	n/a	n/a	n/a	21	n/a	n/a	n/a	n/a
3023668	REC_START	n/a	LTP123	ltpFR2	14	14	n/a	n/a	n/a	n/a	0	0	0
3023781	REC_WORD	wordpools/wasnorm_wordpool_576.txt	LTP123	ltpFR2	14	14	CELLAR	267	n/a	n/a	0	0	0
3024440	REC_WORD	wordpools/wasnorm_wordpool_576.txt	LTP123	ltpFR2	14	14	BASEMENT	94	n/a	n/a	0	0	0
3025027	REC_WORD	wordpools/wasnorm_wordpool_576.txt	LTP123	ltpFR2	14	14	HORSE	719	n/a	n/a	0	0	0
3026271	REC_WORD	wordpools/wasnorm_wordpool_576.txt	LTP123	ltpFR2	14	14	CHIPMUNK	304	n/a	n/a	0	0	0
3028354	REC_WORD	wordpools/wasnorm_wordpool_576.txt	LTP123	ltpFR2	14	14	THRONE	1461	n/a	n/a	0	0	0
3033332	REC_WORD	wordpools/wasnorm_wordpool_576.txt	LTP123	ltpFR2	14	14	CASHIER	254	n/a	n/a	0	0	0
3034195	REC_WORD	wordpools/wasnorm_wordpool_576.txt	LTP123	ltpFR2	14	14	MONEY	908	n/a	n/a	0	0	0
3036875	REC_WORD	wordpools/wasnorm_wordpool_576.txt	LTP123	ltpFR2	14	14	DANDRUFF	439	n/a	n/a	0	0	0
3037665	REC_WORD	wordpools/wasnorm_wordpool_576.txt	LTP123	ltpFR2	14	14	SCARF	1246	n/a	n/a	0	0	0
3049087	REC_WORD	wordpools/wasnorm_wordpool_576.txt	LTP123	ltpFR2	14	14	STATUE	1374	n/a	n/a	0	0	0
3053686	REC_WORD	wordpools/wasnorm_wordpool_576.txt	LTP123	ltpFR2	14	14	DRIVER	499	n/a	n/a	0	0	0
3054942	REC_WORD	wordpools/wasnorm_wordpool_576.txt	LTP123	ltpFR2	14	14	GRAVEL	659	n/a	n/a	0	0	0
3058807	REC_WORD	wordpools/wasnorm_wordpool_576.txt	LTP123	ltpFR2	14	14	WORKER	1621	n/a	n/a	0	0	0
3065057	REC_WORD	wordpools/wasnorm_wordpool_576.txt	LTP123	ltpFR2	14	14	CHILD	299	n/a	n/a	0	0	0
3069250	REC_WORD	wordpools/wasnorm_wordpool_576.txt	LTP123	ltpFR2	14	14	SALAD	1224	n/a	n/a	0	0	0
3114291	DISTRACTOR	n/a	LTP123	ltpFR2	14	15	n/a	n/a	n/a	n/a	0	0	0
3114292	START	n/a	LTP123	ltpFR2	14	n/a	n/a	n/a	22	n/a	n/a	n/a	n/a
3114323	PROB	n/a	LTP123	ltpFR2	14	n/a	n/a	n/a	22	11	9	1	1
3116258	PROB	n/a	LTP123	ltpFR2	14	n/a	n/a	n/a	22	19	8	4	7
3118360	PROB	n/a	LTP123	ltpFR2	14	n/a	n/a	n/a	22	23	9	8	6
3120311	PROB	n/a	LTP123	ltpFR2	14	n/a	n/a	n/a	22	18	4	6	8
3121562	PROB	n/a	LTP123	ltpFR2	14	n/a	n/a	n/a	22	11	4	3	4
3124915	PROB	n/a	LTP123	ltpFR2	14	n/a	n/a	n/a	22	15	7	3	5
3126132	PROB	n/a	LTP123	ltpFR2	14	n/a	n/a	n/a	22	13	2	3	8
3127701	PROB	n/a	LTP123	ltpFR2	14	n/a	n/a	n/a	22	16	5	5	6
3129084	PROB	n/a	LTP123	ltpFR2	14	n/a	n/a	n/a	22	12	7	2	3
3130319	PROB	n/a	LTP123	ltpFR2	14	n/a	n/a	n/a	22	10	1	8	1
3131453	PROB	n/a	LTP123	ltpFR2	14	n/a	n/a	n/a	22	17	5	3	6
3134022	PROB	n/a	LTP123	ltpFR2	14	n/a	n/a	n/a	22	7	5	1	1
3138292	STOP	n/a	LTP123	ltpFR2	14	n/a	n/a	n/a	22	n/a	n/a	n/a	n/a
3139360	WORD	wordpools/wasnorm_wordpool_576.txt	LTP123	ltpFR2	14	15	GUARD	667	n/a	n/a	0	0	0
3141862	WORD	wordpools/wasnorm_wordpool_576.txt	LTP123	ltpFR2	14	15	ROD	1203	n/a	n/a	0	0	0
3144631	WORD	wordpools/wasnorm_wordpool_576.txt	LTP123	ltpFR2	14	15	TURKEY	1520	n/a	n/a	0	0	0
3147133	WORD	wordpools/wasnorm_wordpool_576.txt	LTP123	ltpFR2	14	15	MILDEW	893	n/a	n/a	0	0	0
3149735	WORD	wordpools/wasnorm_wordpool_576.txt	LTP123	ltpFR2	14	15	PLUTO	1092	n/a	n/a	0	0	0
3152359	WORD	wordpools/wasnorm_wordpool_576.txt	LTP123	ltpFR2	14	15	HANDBAG	684	n/a	n/a	0	0	0
3155039	WORD	wordpools/wasnorm_wordpool_576.txt	LTP123	ltpFR2	14	15	FOREST	593	n/a	n/a	0	0	0
3157808	WORD	wordpools/wasnorm_wordpool_576.txt	LTP123	ltpFR2	14	15	COUSIN	392	n/a	n/a	0	0	0
3160627	WORD	wordpools/wasnorm_wordpool_576.txt	LTP123	ltpFR2	14	15	RIFLE	1192	n/a	n/a	0	0	0
3163446	WORD	wordpools/wasnorm_wordpool_576.txt	LTP123	ltpFR2	14	15	STONE	1385	n/a	n/a	0	0	0
3165998	WORD	wordpools/wasnorm_wordpool_576.txt	LTP123	ltpFR2	14	15	TWEEZERS	1526	n/a	n/a	0	0	0
3168667	WORD	wordpools/wasnorm_wordpool_576.txt	LTP123	ltpFR2	14	15	WHISKERS	1605	n/a	n/a	0	0	0
3171452	WORD	wordpools/wasnorm_wordpool_576.txt	LTP123	ltpFR2	14	15	POISON	1096	n/a	n/a	0	0	0
3174076	WORD	wordpools/wasnorm_wordpool_576.txt	LTP123	ltpFR2	14	15	SNAKE	1333	n/a	n/a	0	0	0
3176856	WORD	wordpools/wasnorm_wordpool_576.txt	LTP123	ltpFR2	14	15	GARBAGE	622	n/a	n/a	0	0	0
3179559	WORD	wordpools/wasnorm_wordpool_576.txt	LTP123	ltpFR2	14	15	CABBAGE	210	n/a	n/a	0	0	0
3182277	WORD	wordpools/wasnorm_wordpool_576.txt	LTP123	ltpFR2	14	15	LEG	809	n/a	n/a	0	0	0
3184929	WORD	wordpools/wasnorm_wordpool_576.txt	LTP123	ltpFR2	14	15	SHOULDER	1294	n/a	n/a	0	0	0
3187565	WORD	wordpools/wasnorm_wordpool_576.txt	LTP123	ltpFR2	14	15	PIMPLE	1071	n/a	n/a	0	0	0
3190384	WORD	wordpools/wasnorm_wordpool_576.txt	LTP123	ltpFR2	14	15	SLIME	1327	n/a	n/a	0	0	0
3192853	WORD	wordpools/wasnorm_wordpool_576.txt	LTP123	ltpFR2	14	15	MARS	873	n/a	n/a	0	0	0
3195455	WORD	wordpools/wasnorm_wordpool_576.txt	LTP123	ltpFR2	14	15	SWITCH	1422	n/a	n/a	0	0	0
3198057	WORD	wordpools/wasnorm_wordpool_576.txt	LTP123	ltpFR2	14	15	PEANUT	1032	n/a	n/a	0	0	0
3200809	WORD	wordpools/wasnorm_wordpool_576.txt	LTP123	ltpFR2	14	15	PUPIL	1143	n/a	n/a	0	0	0
3202428	START	n/a	LTP123	ltpFR2	14	n/a	n/a	n/a	23	n/a	n/a	n/a	n/a
3203591	DISTRACTOR	n/a	LTP123	ltpFR2	14	15	n/a	n/a	n/a	n/a	0	0	0
3203612	PROB	n/a	LTP123	ltpFR2	14	n/a	n/a	n/a	23	14	4	8	2
3205446	PROB	n/a	LTP123	ltpFR2	14	n/a	n/a	n/a	23	12	2	1	9
3207047	PROB	n/a	LTP123	ltpFR2	14	n/a	n/a	n/a	23	15	4	6	5
3208650	PROB	n/a	LTP123	ltpFR2	14	n/a	n/a	n/a	23	18	5	5	8
3209849	PROB	n/a	LTP123	ltpFR2	14	n/a	n/a	n/a	23	13	4	3	6
3211501	PROB	n/a	LTP123	ltpFR2	14	n/a	n/a	n/a	23	18	3	9	6
3214053	PROB	n/a	LTP123	ltpFR2	14	n/a	n/a	n/a	23	17	5	7	5
3215337	PROB	n/a	LTP123	ltpFR2	14	n/a	n/a	n/a	23	13	2	2	9
3216922	PROB	n/a	LTP123	ltpFR2	14	n/a	n/a	n/a	23	13	8	3	2
3218390	PROB	n/a	LTP123	ltpFR2	14	n/a	n/a	n/a	23	22	9	4	9
3220108	PROB	n/a	LTP123	ltpFR2	14	n/a	n/a	n/a	23	16	3	6	7
3221876	PROB	n/a	LTP123	ltpFR2	14	n/a	n/a	n/a	23	18	9	2	7
3223644	PROB	n/a	LTP123	ltpFR2	14	n/a	n/a	n/a	23	14	4	5	5
3224878	PROB	n/a	LTP123	ltpFR2	14	n/a	n/a	n/a	23	16	9	1	6
3225915	STOP	n/a	LTP123	ltpFR2	14	n/a	n/a	n/a	23	n/a	n/a	n/a	n/a
3228232	REC_START	n/a	LTP123	ltpFR2	14	15	n/a	n/a	n/a	n/a	0	0	0
3230641	REC_WORD	wordpools/wasnorm_wordpool_576.txt	LTP123	ltpFR2	14	15	COUSIN	392	n/a	n/a	0	0	0
3231278	REC_WORD	wordpools/wasnorm_wordpool_576.txt	LTP123	ltpFR2	14	15	POISON	1096	n/a	n/a	0	0	0
3231938	REC_WORD	wordpools/wasnorm_wordpool_576.txt	LTP123	ltpFR2	14	15	SNAKE	1333	n/a	n/a	0	0	0
3236157	REC_WORD	wordpools/wasnorm_wordpool_576.txt	LTP123	ltpFR2	14	15	CABBAGE	210	n/a	n/a	0	0	0
3236779	REC_WORD	wordpools/wasnorm_wordpool_576.txt	LTP123	ltpFR2	14	15	GARBAGE	622	n/a	n/a	0	0	0
3239122	REC_WORD	wordpools/wasnorm_wordpool_576.txt	LTP123	ltpFR2	14	15	FOREST	593	n/a	n/a	0	0	0
3240147	REC_WORD	wordpools/wasnorm_wordpool_576.txt	LTP123	ltpFR2	14	15	TWIG	1527	n/a	n/a	0	0	0
3240890	REC_WORD	wordpools/wasnorm_wordpool_576.txt	LTP123	ltpFR2	14	15	ROD	1203	n/a	n/a	0	0	0
3243421	REC_WORD	wordpools/wasnorm_wordpool_576.txt	LTP123	ltpFR2	14	15	PLUTO	1092	n/a	n/a	0	0	0
3243908	REC_WORD	wordpools/wasnorm_wordpool_576.txt	LTP123	ltpFR2	14	15	MARS	873	n/a	n/a	0	0	0
3244908	REC_WORD_VV	wordpools/wasnorm_wordpool_576.txt	LTP123	ltpFR2	14	15	<>	-1	n/a	n/a	0	0	0
3247231	REC_WORD	wordpools/wasnorm_wordpool_576.txt	LTP123	ltpFR2	14	15	LAVA	804	n/a	n/a	0	0	0
3252612	REC_WORD	wordpools/wasnorm_wordpool_576.txt	LTP123	ltpFR2	14	15	SHOULDER	1294	n/a	n/a	0	0	0
3253402	REC_WORD	wordpools/wasnorm_wordpool_576.txt	LTP123	ltpFR2	14	15	LEG	809	n/a	n/a	0	0	0
3263793	REC_WORD	wordpools/wasnorm_wordpool_576.txt	LTP123	ltpFR2	14	15	TWEEZERS	1526	n/a	n/a	0	0	0
3264581	REC_WORD	wordpools/wasnorm_wordpool_576.txt	LTP123	ltpFR2	14	15	WHISKERS	1605	n/a	n/a	0	0	0
3268923	REC_WORD	wordpools/wasnorm_wordpool_576.txt	LTP123	ltpFR2	14	15	GUARD	667	n/a	n/a	0	0	0
3269442	REC_WORD	wordpools/wasnorm_wordpool_576.txt	LTP123	ltpFR2	14	15	RIFLE	1192	n/a	n/a	0	0	0
3272251	REC_WORD	wordpools/wasnorm_wordpool_576.txt	LTP123	ltpFR2	14	15	HANDBAG	684	n/a	n/a	0	0	0
3278520	REC_WORD	wordpools/wasnorm_wordpool_576.txt	LTP123	ltpFR2	14	15	TURKEY	1520	n/a	n/a	0	0	0
3288688	REC_WORD	wordpools/wasnorm_wordpool_576.txt	LTP123	ltpFR2	14	15	SUNRISE	1407	n/a	n/a	0	0	0
3293837	REC_WORD	wordpools/wasnorm_wordpool_576.txt	LTP123	ltpFR2	14	15	PEANUT	1032	n/a	n/a	0	0	0
3318887	WORD	wordpools/wasnorm_wordpool_576.txt	LTP123	ltpFR2	14	16	APPLE	33	n/a	n/a	0	0	0
3321640	WORD	wordpools/wasnorm_wordpool_576.txt	LTP123	ltpFR2	14	16	SLOPE	1328	n/a	n/a	0	0	0
3324291	WORD	wordpools/wasnorm_wordpool_576.txt	LTP123	ltpFR2	14	16	ROBBER	1197	n/a	n/a	0	0	0
3326860	WORD	wordpools/wasnorm_wordpool_576.txt	LTP123	ltpFR2	14	16	QUEEN	1149	n/a	n/a	0	0	0
3329329	WORD	wordpools/wasnorm_wordpool_576.txt	LTP123	ltpFR2	14	16	SHIRT	1287	n/a	n/a	0	0	0
3332147	WORD	wordpools/wasnorm_wordpool_576.txt	LTP123	ltpFR2	14	16	DANCER	437	n/a	n/a	0	0	0
3334667	WORD	wordpools/wasnorm_wordpool_576.txt	LTP123	ltpFR2	14	16	LOVER	846	n/a	n/a	0	0	0
3337401	WORD	wordpools/wasnorm_wordpool_576.txt	LTP123	ltpFR2	14	16	FEMALE	559	n/a	n/a	0	0	0
3340071	WORD	wordpools/wasnorm_wordpool_576.txt	LTP123	ltpFR2	14	16	LADDER	793	n/a	n/a	0	0	0
3342789	WORD	wordpools/wasnorm_wordpool_576.txt	LTP123	ltpFR2	14	16	CROWN	415	n/a	n/a	0	0	0
3345525	WORD	wordpools/wasnorm_wordpool_576.txt	LTP123	ltpFR2	14	16	LEADER	807	n/a	n/a	0	0	0
3348061	WORD	wordpools/wasnorm_wordpool_576.txt	LTP123	ltpFR2	14	16	HARP	689	n/a	n/a	0	0	0
3350796	WORD	wordpools/wasnorm_wordpool_576.txt	LTP123	ltpFR2	14	16	HOUND	724	n/a	n/a	0	0	0
3353498	WORD	wordpools/wasnorm_wordpool_576.txt	LTP123	ltpFR2	14	16	SPIDER	1351	n/a	n/a	0	0	0
3356167	WORD	wordpools/wasnorm_wordpool_576.txt	LTP123	ltpFR2	14	16	BURGLAR	200	n/a	n/a	0	0	0
3359003	WORD	wordpools/wasnorm_wordpool_576.txt	LTP123	ltpFR2	14	16	THIEF	1456	n/a	n/a	0	0	0
3361554	WORD	wordpools/wasnorm_wordpool_576.txt	LTP123	ltpFR2	14	16	FIREPLACE	570	n/a	n/a	0	0	0
3364357	WORD	wordpools/wasnorm_wordpool_576.txt	LTP123	ltpFR2	14	16	PASTA	1021	n/a	n/a	0	0	0
3366993	WORD	wordpools/wasnorm_wordpool_576.txt	LTP123	ltpFR2	14	16	LOFT	840	n/a	n/a	0	0	0
3369778	WORD	wordpools/wasnorm_wordpool_576.txt	LTP123	ltpFR2	14	16	FOX	598	n/a	n/a	0	0	0
3372430	WORD	wordpools/wasnorm_wordpool_576.txt	LTP123	ltpFR2	14	16	MASK	876	n/a	n/a	0	0	0
3374948	WORD	wordpools/wasnorm_wordpool_576.txt	LTP123	ltpFR2	14	16	LUNCH	849	n/a	n/a	0	0	0
3377634	WORD	wordpools/wasnorm_wordpool_576.txt	LTP123	ltpFR2	14	16	MEDAL	885	n/a	n/a	0	0	0
3380086	WORD	wordpools/wasnorm_wordpool_576.txt	LTP123	ltpFR2	14	16	RUST	1219	n/a	n/a	0	0	0
3381705	START	n/a	LTP123	ltpFR2	14	n/a	n/a	n/a	24	n/a	n/a	n/a	n/a
3382625	DISTRACTOR	n/a	LTP123	ltpFR2	14	16	n/a	n/a	n/a	n/a	0	0	0
3382638	PROB	n/a	LTP123	ltpFR2	14	n/a	n/a	n/a	24	18	4	7	7
3384940	PROB	n/a	LTP123	ltpFR2	14	n/a	n/a	n/a	24	19	2	8	9
3386173	PROB	n/a	LTP123	ltpFR2	14	n/a	n/a	n/a	24	11	5	5	1
3387242	PROB	n/a	LTP123	ltpFR2	14	n/a	n/a	n/a	24	20	5	8	7
3390143	PROB	n/a	LTP123	ltpFR2	14	n/a	n/a	n/a	24	7	3	1	3
3392328	PROB	n/a	LTP123	ltpFR2	14	n/a	n/a	n/a	24	16	3	5	8
3394230	PROB	n/a	LTP123	ltpFR2	14	n/a	n/a	n/a	24	12	8	1	3
3395749	PROB	n/a	LTP123	ltpFR2	14	n/a	n/a	n/a	24	13	4	7	2
3397449	PROB	n/a	LTP123	ltpFR2	14	n/a	n/a	n/a	24	21	9	3	9
3399301	PROB	n/a	LTP123	ltpFR2	14	n/a	n/a	n/a	24	13	1	9	3
3400618	PROB	n/a	LTP123	ltpFR2	14	n/a	n/a	n/a	24	10	1	1	8
3401787	PROB	n/a	LTP123	ltpFR2	14	n/a	n/a	n/a	24	14	2	8	4
3403371	PROB	n/a	LTP123	ltpFR2	14	n/a	n/a	n/a	24	17	8	5	4
3405282	STOP	n/a	LTP123	ltpFR2	14	n/a	n/a	n/a	24	n/a	n/a	n/a	n/a
3407609	REC_START	n/a	LTP123	ltpFR2	14	16	n/a	n/a	n/a	n/a	0	0	0
3408573	REC_WORD	wordpools/wasnorm_wordpool_576.txt	LTP123	ltpFR2	14	16	FIREPLACE	570	n/a	n/a	0	0	0
3409573	REC_WORD_VV	wordpools/wasnorm_wordpool_576.txt	LTP123	ltpFR2	14	16	<>	-1	n/a	n/a	0	0	0
3410861	REC_WORD	wordpools/wasnorm_wordpool_576.txt	LTP123	ltpFR2	14	16	QUEEN	1149	n/a	n/a	0	0	0
3411354	REC_WORD	wordpools/wasnorm_wordpool_576.txt	LTP123	ltpFR2	14	16	FEMALE	559	n/a	n/a	0	0	0
3412016	REC_WORD	wordpools/wasnorm_wordpool_576.txt	LTP123	ltpFR2	14	16	LEADER	807	n/a	n/a	0	0	0
3412660	REC_WORD	wordpools/wasnorm_wordpool_576.txt	LTP123	ltpFR2	14	16	ROBBER	1197	n/a	n/a	0	0	0
3413202	REC_WORD	wordpools/wasnorm_wordpool_576.txt	LTP123	ltpFR2	14	16	THIEF	1456	n/a	n/a	0	0	0
3414202	REC_WORD_VV	wordpools/wasnorm_wordpool_576.txt	LTP123	ltpFR2	14	16	<>	-1	n/a	n/a	0	0	0
3414991	REC_WORD	wordpools/wasnorm_wordpool_576.txt	LTP123	ltpFR2	14	16	BURGLAR	200	n/a	n/a	0	0	0
3415793	REC_WORD	wordpools/wasnorm_wordpool_576.txt	LTP123	ltpFR2	14	16	DANCER	437	n/a	n/a	0	0	0
3421036	REC_WORD	wordpools/wasnorm_wordpool_576.txt	LTP123	ltpFR2	14	16	APPLE	33	n/a	n/a	0	0	0
3423175	REC_WORD	wordpools/wasnorm_wordpool_576.txt	LTP123	ltpFR2	14	16	LUNCH	849	n/a	n/a	0	0	0
3426004	REC_WORD	wordpools/wasnorm_wordpool_576.txt	LTP123	ltpFR2	14	16	SHIRT	1287	n/a	n/a	0	0	0
3428502	REC_WORD	wordpools/wasnorm_wordpool_576.txt	LTP123	ltpFR2	14	16	SLOPE	1328	n/a	n/a	0	0	0
3435261	REC_WORD	wordpools/wasnorm_wordpool_576.txt	LTP123	ltpFR2	14	16	HOUND	724	n/a	n/a	0	0	0
3484152	REST_REWET	n/a	LTP123	ltpFR2	14	16	n/a	n/a	n/a	n/a	0	0	0
3812633	DISTRACTOR	n/a	LTP123	ltpFR2	14	17	n/a	n/a	n/a	n/a	0	0	0
3812633	START	n/a	LTP123	ltpFR2	14	n/a	n/a	n/a	25	n/a	n/a	n/a	n/a
3812665	PROB	n/a	LTP123	ltpFR2	14	n/a	n/a	n/a	25	15	9	1	5
3814216	PROB	n/a	LTP123	ltpFR2	14	n/a	n/a	n/a	25	13	7	2	4
3816801	PROB	n/a	LTP123	ltpFR2	14	n/a	n/a	n/a	25	17	5	6	6
3819670	PROB	n/a	LTP123	ltpFR2	14	n/a	n/a	n/a	25	12	5	2	5
3820921	PROB	n/a	LTP123	ltpFR2	14	n/a	n/a	n/a	25	6	3	1	2
3823507	PROB	n/a	LTP123	ltpFR2	14	n/a	n/a	n/a	25	20	9	7	4
3825275	PROB	n/a	LTP123	ltpFR2	14	n/a	n/a	n/a	25	19	8	3	8
3827076	PROB	n/a	LTP123	ltpFR2	14	n/a	n/a	n/a	25	4	1	2	1
3828277	PROB	n/a	LTP123	ltpFR2	14	n/a	n/a	n/a	25	16	2	9	5
3829779	PROB	n/a	LTP123	ltpFR2	14	n/a	n/a	n/a	25	7	1	3	3
3831046	PROB	n/a	LTP123	ltpFR2	14	n/a	n/a	n/a	25	14	2	6	6
3832831	PROB	n/a	LTP123	ltpFR2	14	n/a	n/a	n/a	25	19	7	4	8
3834382	PROB	n/a	LTP123	ltpFR2	14	n/a	n/a	n/a	25	18	8	1	9
3835698	STOP	n/a	LTP123	ltpFR2	14	n/a	n/a	n/a	25	n/a	n/a	n/a	n/a
3837518	WORD	wordpools/wasnorm_wordpool_576.txt	LTP123	ltpFR2	14	17	HONEY	713	n/a	n/a	0	0	0
3840121	WORD	wordpools/wasnorm_wordpool_576.txt	LTP123	ltpFR2	14	17	RELISH	1183	n/a	n/a	0	0	0
3842923	WORD	wordpools/wasnorm_wordpool_576.txt	LTP123	ltpFR2	14	17	TART	1436	n/a	n/a	0	0	0
3845625	WORD	wordpools/wasnorm_wordpool_576.txt	LTP123	ltpFR2	14	17	UMPIRE	1535	n/a	n/a	0	0	0
3848143	WORD	wordpools/wasnorm_wordpool_576.txt	LTP123	ltpFR2	14	17	FOOTBALL	591	n/a	n/a	0	0	0
3850946	WORD	wordpools/wasnorm_wordpool_576.txt	LTP123	ltpFR2	14	17	SADDLE	1221	n/a	n/a	0	0	0
3853531	WORD	wordpools/wasnorm_wordpool_576.txt	LTP123	ltpFR2	14	17	HORNET	718	n/a	n/a	0	0	0
3856154	WORD	wordpools/wasnorm_wordpool_576.txt	LTP123	ltpFR2	14	17	SNAIL	1332	n/a	n/a	0	0	0
3858636	WORD	wordpools/wasnorm_wordpool_576.txt	LTP123	ltpFR2	14	17	SLUG	1329	n/a	n/a	0	0	0
3861104	WORD	wordpools/wasnorm_wordpool_576.txt	LTP123	ltpFR2	14	17	PORTRAIT	1111	n/a	n/a	0	0	0
3863890	WORD	wordpools/wasnorm_wordpool_576.txt	LTP123	ltpFR2	14	17	FRIAR	605	n/a	n/a	0	0	0
3866358	WORD	wordpools/wasnorm_wordpool_576.txt	LTP123	ltpFR2	14	17	TUNNEL	1519	n/a	n/a	0	0	0
3868860	WORD	wordpools/wasnorm_wordpool_576.txt	LTP123	ltpFR2	14	17	MAILBOX	857	n/a	n/a	0	0	0
3871580	WORD	wordpools/wasnorm_wordpool_576.txt	LTP123	ltpFR2	14	17	TRACTOR	1493	n/a	n/a	0	0	0
3874204	WORD	wordpools/wasnorm_wordpool_576.txt	LTP123	ltpFR2	14	17	GLOBE	641	n/a	n/a	0	0	0
3876821	WORD	wordpools/wasnorm_wordpool_576.txt	LTP123	ltpFR2	14	17	DUSTPAN	509	n/a	n/a	0	0	0
3879451	WORD	wordpools/wasnorm_wordpool_576.txt	LTP123	ltpFR2	14	17	BADGE	68	n/a	n/a	0	0	0
3882237	WORD	wordpools/wasnorm_wordpool_576.txt	LTP123	ltpFR2	14	17	SKETCH	1315	n/a	n/a	0	0	0
3885056	WORD	wordpools/wasnorm_wordpool_576.txt	LTP123	ltpFR2	14	17	PASTRY	1022	n/a	n/a	0	0	0
3887759	WORD	wordpools/wasnorm_wordpool_576.txt	LTP123	ltpFR2	14	17	MACHINE	852	n/a	n/a	0	0	0
3890277	WORD	wordpools/wasnorm_wordpool_576.txt	LTP123	ltpFR2	14	17	PALACE	1006	n/a	n/a	0	0	0
3893063	WORD	wordpools/wasnorm_wordpool_576.txt	LTP123	ltpFR2	14	17	AUTHOR	61	n/a	n/a	0	0	0
3895765	WORD	wordpools/wasnorm_wordpool_576.txt	LTP123	ltpFR2	14	17	GAZELLE	628	n/a	n/a	0	0	0
3898535	WORD	wordpools/wasnorm_wordpool_576.txt	LTP123	ltpFR2	14	17	CORAL	378	n/a	n/a	0	0	0
3900152	START	n/a	LTP123	ltpFR2	14	n/a	n/a	n/a	26	n/a	n/a	n/a	n/a
3901092	DISTRACTOR	n/a	LTP123	ltpFR2	14	17	n/a	n/a	n/a	n/a	0	0	0
3901104	PROB	n/a	LTP123	ltpFR2	14	n/a	n/a	n/a	26	16	6	9	1
3902720	PROB	n/a	LTP123	ltpFR2	14	n/a	n/a	n/a	26	18	7	8	3
3904688	PROB	n/a	LTP123	ltpFR2	14	n/a	n/a	n/a	26	10	1	8	1
3905889	PROB	n/a	LTP123	ltpFR2	14	n/a	n/a	n/a	26	21	4	8	9
3908308	PROB	n/a	LTP123	ltpFR2	14	n/a	n/a	n/a	26	26	9	8	9
3910210	PROB	n/a	LTP123	ltpFR2	14	n/a	n/a	n/a	26	18	4	8	6
3911761	PROB	n/a	LTP123	ltpFR2	14	n/a	n/a	n/a	26	25	9	9	7
3914517	PROB	n/a	LTP123	ltpFR2	14	n/a	n/a	n/a	26	17	4	5	8
3916215	PROB	n/a	LTP123	ltpFR2	14	n/a	n/a	n/a	26	17	7	7	3
3917549	PROB	n/a	LTP123	ltpFR2	14	n/a	n/a	n/a	26	13	3	4	6
3919200	PROB	n/a	LTP123	ltpFR2	14	n/a	n/a	n/a	26	18	7	5	6
3924152	STOP	n/a	LTP123	ltpFR2	14	n/a	n/a	n/a	26	n/a	n/a	n/a	n/a
3926105	REC_START	n/a	LTP123	ltpFR2	14	17	n/a	n/a	n/a	n/a	0	0	0
3927221	REC_WORD	wordpools/wasnorm_wordpool_576.txt	LTP123	ltpFR2	14	17	CORAL	378	n/a	n/a	0	0	0
3928035	REC_WORD	wordpools/wasnorm_wordpool_576.txt	LTP123	ltpFR2	14	17	SADDLE	1221	n/a	n/a	0	0	0
3931765	REC_WORD	wordpools/wasnorm_wordpool_576.txt	LTP123	ltpFR2	14	17	PORTRAIT	1111	n/a	n/a	0	0	0
3933378	REC_WORD	wordpools/wasnorm_wordpool_576.txt	LTP123	ltpFR2	14	17	SKETCH	1315	n/a	n/a	0	0	0
3934378	REC_WORD_VV	wordpools/wasnorm_wordpool_576.txt	LTP123	ltpFR2	14	17	<>	-1	n/a	n/a	0	0	0
3935378	REC_WORD_VV	wordpools/wasnorm_wordpool_576.txt	LTP123	ltpFR2	14	17	<>	-1	n/a	n/a	0	0	0
3938371	REC_WORD	wordpools/wasnorm_wordpool_576.txt	LTP123	ltpFR2	14	17	PALACE	1006	n/a	n/a	0	0	0
3940871	REC_WORD	wordpools/wasnorm_wordpool_576.txt	LTP123	ltpFR2	14	17	UMPIRE	1535	n/a	n/a	0	0	0
3941518	REC_WORD	wordpools/wasnorm_wordpool_576.txt	LTP123	ltpFR2	14	17	FOOTBALL	591	n/a	n/a	0	0	0
3943808	REC_WORD	wordpools/wasnorm_wordpool_576.txt	LTP123	ltpFR2	14	17	TART	1436	n/a	n/a	0	0	0
3944600	REC_WORD	wordpools/wasnorm_wordpool_576.txt	LTP123	ltpFR2	14	17	PASTRY	1022	n/a	n/a	0	0	0
3945389	REC_WORD	wordpools/wasnorm_wordpool_576.txt	LTP123	ltpFR2	14	17	HONEY	713	n/a	n/a	0	0	0
3947179	REC_WORD	wordpools/wasnorm_wordpool_576.txt	LTP123	ltpFR2	14	17	SNAIL	1332	n/a	n/a	0	0	0
3948469	REC_WORD	wordpools/wasnorm_wordpool_576.txt	LTP123	ltpFR2	14	17	WASP	1593	n/a	n/a	0	0	0
3949272	REC_WORD	wordpools/wasnorm_wordpool_576.txt	LTP123	ltpFR2	14	17	SLUG	1329	n/a	n/a	0	0	0
4016729	DISTRACTOR	n/a	LTP123	ltpFR2	14	18	n/a	n/a	n/a	n/a	0	0	0
4016729	START	n/a	LTP123	ltpFR2	14	n/a	n/a	n/a	27	n/a	n/a	n/a	n/a
4016762	PROB	n/a	LTP123	ltpFR2	14	n/a	n/a	n/a	27	20	9	3	8
4020031	PROB	n/a	LTP123	ltpFR2	14	n/a	n/a	n/a	27	16	7	2	7
4022199	PROB	n/a	LTP123	ltpFR2	14	n/a	n/a	n/a	27	11	1	6	4
4023366	PROB	n/a	LTP123	ltpFR2	14	n/a	n/a	n/a	27	23	6	8	9
4027503	PROB	n/a	LTP123	ltpFR2	14	n/a	n/a	n/a	27	15	7	4	4
4029138	PROB	n/a	LTP123	ltpFR2	14	n/a	n/a	n/a	27	11	8	2	1
4030405	PROB	n/a	LTP123	ltpFR2	14	n/a	n/a	n/a	27	14	2	3	9
4032674	PROB	n/a	LTP123	ltpFR2	14	n/a	n/a	n/a	27	16	6	4	6
4033841	PROB	n/a	LTP123	ltpFR2	14	n/a	n/a	n/a	27	13	7	4	2
4035309	PROB	n/a	LTP123	ltpFR2	14	n/a	n/a	n/a	27	14	8	2	4
4036532	PROB	n/a	LTP123	ltpFR2	14	n/a	n/a	n/a	27	22	4	9	9
4038229	PROB	n/a	LTP123	ltpFR2	14	n/a	n/a	n/a	27	13	9	2	2
4039753	STOP	n/a	LTP123	ltpFR2	14	n/a	n/a	n/a	27	n/a	n/a	n/a	n/a
4041881	WORD	wordpools/wasnorm_wordpool_576.txt	LTP123	ltpFR2	14	18	PERFUME	1049	n/a	n/a	0	0	0
4044450	WORD	wordpools/wasnorm_wordpool_576.txt	LTP123	ltpFR2	14	18	TWISTER	1530	n/a	n/a	0	0	0
4047269	WORD	wordpools/wasnorm_wordpool_576.txt	LTP123	ltpFR2	14	18	LAGOON	795	n/a	n/a	0	0	0
4050023	WORD	wordpools/wasnorm_wordpool_576.txt	LTP123	ltpFR2	14	18	EYELASH	546	n/a	n/a	0	0	0
4052607	WORD	wordpools/wasnorm_wordpool_576.txt	LTP123	ltpFR2	14	18	DORM	488	n/a	n/a	0	0	0
4055326	WORD	wordpools/wasnorm_wordpool_576.txt	LTP123	ltpFR2	14	18	NAPKIN	937	n/a	n/a	0	0	0
4057961	WORD	wordpools/wasnorm_wordpool_576.txt	LTP123	ltpFR2	14	18	REPORT	1184	n/a	n/a	0	0	0
4060614	WORD	wordpools/wasnorm_wordpool_576.txt	LTP123	ltpFR2	14	18	PUDDLE	1140	n/a	n/a	0	0	0
4063082	WORD	wordpools/wasnorm_wordpool_576.txt	LTP123	ltpFR2	14	18	HOOK	715	n/a	n/a	0	0	0
4065551	WORD	wordpools/wasnorm_wordpool_576.txt	LTP123	ltpFR2	14	18	DOLPHIN	483	n/a	n/a	0	0	0
4068136	WORD	wordpools/wasnorm_wordpool_576.txt	LTP123	ltpFR2	14	18	SCISSORS	1250	n/a	n/a	0	0	0
4070972	WORD	wordpools/wasnorm_wordpool_576.txt	LTP123	ltpFR2	14	18	AWARD	63	n/a	n/a	0	0	0
4073490	WORD	wordpools/wasnorm_wordpool_576.txt	LTP123	ltpFR2	14	18	SPOUSE	1358	n/a	n/a	0	0	0
4076076	WORD	wordpools/wasnorm_wordpool_576.txt	LTP123	ltpFR2	14	18	TEACHER	1440	n/a	n/a	0	0	0
4078795	WORD	wordpools/wasnorm_wordpool_576.txt	LTP123	ltpFR2	14	18	TROUT	1511	n/a	n/a	0	0	0
4081597	WORD	wordpools/wasnorm_wordpool_576.txt	LTP123	ltpFR2	14	18	PEPPER	1047	n/a	n/a	0	0	0
4084166	WORD	wordpools/wasnorm_wordpool_576.txt	LTP123	ltpFR2	14	18	CABIN	211	n/a	n/a	0	0	0
4086851	WORD	wordpools/wasnorm_wordpool_576.txt	LTP123	ltpFR2	14	18	CIGAR	308	n/a	n/a	0	0	0
4089637	WORD	wordpools/wasnorm_wordpool_576.txt	LTP123	ltpFR2	14	18	SUITCASE	1403	n/a	n/a	0	0	0
4092172	WORD	wordpools/wasnorm_wordpool_576.txt	LTP123	ltpFR2	14	18	BIKE	125	n/a	n/a	0	0	0
4094708	WORD	wordpools/wasnorm_wordpool_576.txt	LTP123	ltpFR2	14	18	PEDAL	1037	n/a	n/a	0	0	0
4097460	WORD	wordpools/wasnorm_wordpool_576.txt	LTP123	ltpFR2	14	18	JURY	766	n/a	n/a	0	0	0
4100096	WORD	wordpools/wasnorm_wordpool_576.txt	LTP123	ltpFR2	14	18	CLOUD	328	n/a	n/a	0	0	0
4102663	WORD	wordpools/wasnorm_wordpool_576.txt	LTP123	ltpFR2	14	18	UNCLE	1536	n/a	n/a	0	0	0
4104283	START	n/a	LTP123	ltpFR2	14	n/a	n/a	n/a	28	n/a	n/a	n/a	n/a
4105262	DISTRACTOR	n/a	LTP123	ltpFR2	14	18	n/a	n/a	n/a	n/a	0	0	0
4105287	PROB	n/a	LTP123	ltpFR2	14	n/a	n/a	n/a	28	15	4	3	8
4107635	PROB	n/a	LTP123	ltpFR2	14	n/a	n/a	n/a	28	17	9	6	2
4109736	PROB	n/a	LTP123	ltpFR2	14	n/a	n/a	n/a	28	16	1	8	7
4111287	PROB	n/a	LTP123	ltpFR2	14	n/a	n/a	n/a	28	8	4	3	1
4112676	PROB	n/a	LTP123	ltpFR2	14	n/a	n/a	n/a	28	12	2	7	3
4113957	PROB	n/a	LTP123	ltpFR2	14	n/a	n/a	n/a	28	20	9	6	5
4115807	PROB	n/a	LTP123	ltpFR2	14	n/a	n/a	n/a	28	13	6	2	5
4117425	PROB	n/a	LTP123	ltpFR2	14	n/a	n/a	n/a	28	16	3	4	9
4119160	PROB	n/a	LTP123	ltpFR2	14	n/a	n/a	n/a	28	6	2	2	2
4120162	PROB	n/a	LTP123	ltpFR2	14	n/a	n/a	n/a	28	16	7	4	5
4122079	PROB	n/a	LTP123	ltpFR2	14	n/a	n/a	n/a	28	12	9	1	2
4123613	PROB	n/a	LTP123	ltpFR2	14	n/a	n/a	n/a	28	10	1	6	3
4125048	PROB	n/a	LTP123	ltpFR2	14	n/a	n/a	n/a	28	12	1	8	3
4128283	STOP	n/a	LTP123	ltpFR2	14	n/a	n/a	n/a	28	n/a	n/a	n/a	n/a
4130169	REC_START	n/a	LTP123	ltpFR2	14	18	n/a	n/a	n/a	n/a	0	0	0
4130523	REC_WORD	wordpools/wasnorm_wordpool_576.txt	LTP123	ltpFR2	14	18	UNCLE	1536	n/a	n/a	0	0	0
4131034	REC_WORD	wordpools/wasnorm_wordpool_576.txt	LTP123	ltpFR2	14	18	CABIN	211	n/a	n/a	0	0	0
4131690	REC_WORD	wordpools/wasnorm_wordpool_576.txt	LTP123	ltpFR2	14	18	TROUT	1511	n/a	n/a	0	0	0
4133142	REC_WORD	wordpools/wasnorm_wordpool_576.txt	LTP123	ltpFR2	14	18	CLOUD	328	n/a	n/a	0	0	0
4134722	REC_WORD	wordpools/wasnorm_wordpool_576.txt	LTP123	ltpFR2	14	18	LAGOON	795	n/a	n/a	0	0	0
4135368	REC_WORD	wordpools/wasnorm_wordpool_576.txt	LTP123	ltpFR2	14	18	HOOK	715	n/a	n/a	0	0	0
4136177	REC_WORD	wordpools/wasnorm_wordpool_576.txt	LTP123	ltpFR2	14	18	DOLPHIN	483	n/a	n/a	0	0	0
4139510	REC_WORD	wordpools/wasnorm_wordpool_576.txt	LTP123	ltpFR2	14	18	TEACHER	1440	n/a	n/a	0	0	0
4139987	REC_WORD	wordpools/wasnorm_wordpool_576.txt	LTP123	ltpFR2	14	18	REPORT	1184	n/a	n/a	0	0	0
4141022	REC_WORD	wordpools/wasnorm_wordpool_576.txt	LTP123	ltpFR2	14	18	DORM	488	n/a	n/a	0	0	0
4141518	REC_WORD	wordpools/wasnorm_wordpool_576.txt	LTP123	ltpFR2	14	18	SCISSORS	1250	n/a	n/a	0	0	0
4142779	REC_WORD	wordpools/wasnorm_wordpool_576.txt	LTP123	ltpFR2	14	18	AWARD	63	n/a	n/a	0	0	0
4143779	REC_WORD_VV	wordpools/wasnorm_wordpool_576.txt	LTP123	ltpFR2	14	18	<>	-1	n/a	n/a	0	0	0
4150377	REC_WORD	wordpools/wasnorm_wordpool_576.txt	LTP123	ltpFR2	14	18	TWISTER	1530	n/a	n/a	0	0	0
4151049	REC_WORD	wordpools/wasnorm_wordpool_576.txt	LTP123	ltpFR2	14	18	PUDDLE	1140	n/a	n/a	0	0	0
4168118	REC_WORD	wordpools/wasnorm_wordpool_576.txt	LTP123	ltpFR2	14	18	CIGAR	308	n/a	n/a	0	0	0
4183851	REC_WORD	wordpools/wasnorm_wordpool_576.txt	LTP123	ltpFR2	14	18	BIKE	125	n/a	n/a	0	0	0
4184277	REC_WORD	wordpools/wasnorm_wordpool_576.txt	LTP123	ltpFR2	14	18	PEDAL	1037	n/a	n/a	0	0	0
4197979	REC_WORD	wordpools/wasnorm_wordpool_576.txt	LTP123	ltpFR2	14	18	EYELASH	546	n/a	n/a	0	0	0
4198751	REC_WORD	wordpools/wasnorm_wordpool_576.txt	LTP123	ltpFR2	14	18	PERFUME	1049	n/a	n/a	0	0	0
4200245	REC_WORD	wordpools/wasnorm_wordpool_576.txt	LTP123	ltpFR2	14	18	SPOUSE	1358	n/a	n/a	0	0	0
4220825	WORD	wordpools/wasnorm_wordpool_576.txt	LTP123	ltpFR2	14	19	PISTOL	1075	n/a	n/a	0	0	0
4223593	WORD	wordpools/wasnorm_wordpool_576.txt	LTP123	ltpFR2	14	19	CASHEW	253	n/a	n/a	0	0	0
4226180	WORD	wordpools/wasnorm_wordpool_576.txt	LTP123	ltpFR2	14	19	CRICKET	408	n/a	n/a	0	0	0
4228747	WORD	wordpools/wasnorm_wordpool_576.txt	LTP123	ltpFR2	14	19	PERMIT	1051	n/a	n/a	0	0	0
4231333	WORD	wordpools/wasnorm_wordpool_576.txt	LTP123	ltpFR2	14	19	BODY	145	n/a	n/a	0	0	0
4233903	WORD	wordpools/wasnorm_wordpool_576.txt	LTP123	ltpFR2	14	19	BREAST	171	n/a	n/a	0	0	0
4236738	WORD	wordpools/wasnorm_wordpool_576.txt	LTP123	ltpFR2	14	19	TRIBE	1505	n/a	n/a	0	0	0
4239573	WORD	wordpools/wasnorm_wordpool_576.txt	LTP123	ltpFR2	14	19	GYMNAST	675	n/a	n/a	0	0	0
4242197	WORD	wordpools/wasnorm_wordpool_576.txt	LTP123	ltpFR2	14	19	JUGGLER	763	n/a	n/a	0	0	0
4244844	WORD	wordpools/wasnorm_wordpool_576.txt	LTP123	ltpFR2	14	19	DINER	467	n/a	n/a	0	0	0
4247429	WORD	wordpools/wasnorm_wordpool_576.txt	LTP123	ltpFR2	14	19	SAUSAGE	1238	n/a	n/a	0	0	0
4250198	WORD	wordpools/wasnorm_wordpool_576.txt	LTP123	ltpFR2	14	19	DRESSER	496	n/a	n/a	0	0	0
4252867	WORD	wordpools/wasnorm_wordpool_576.txt	LTP123	ltpFR2	14	19	FOOT	590	n/a	n/a	0	0	0
4255603	WORD	wordpools/wasnorm_wordpool_576.txt	LTP123	ltpFR2	14	19	CUPBOARD	425	n/a	n/a	0	0	0
4258321	WORD	wordpools/wasnorm_wordpool_576.txt	LTP123	ltpFR2	14	19	COCKTAIL	338	n/a	n/a	0	0	0
4260923	WORD	wordpools/wasnorm_wordpool_576.txt	LTP123	ltpFR2	14	19	ITEM	746	n/a	n/a	0	0	0
4263725	WORD	wordpools/wasnorm_wordpool_576.txt	LTP123	ltpFR2	14	19	PICNIC	1060	n/a	n/a	0	0	0
4266328	WORD	wordpools/wasnorm_wordpool_576.txt	LTP123	ltpFR2	14	19	TRENCH	1503	n/a	n/a	0	0	0
4269080	WORD	wordpools/wasnorm_wordpool_576.txt	LTP123	ltpFR2	14	19	SHRUB	1299	n/a	n/a	0	0	0
4271782	WORD	wordpools/wasnorm_wordpool_576.txt	LTP123	ltpFR2	14	19	BULLET	194	n/a	n/a	0	0	0
