onset	duration	trial_type	sample	stim_file	subject	experiment	session	trial	task	item_name	item_num	recog_resp	recog_conf	resp	answer	test_x	test_y	test_z	color_r	color_g	color_b	case	font
224.92	n/a	SESS_START	112460	n/a	LTP197	ltpFR	12	n/a	n/a	n/a	n/a	1	2	n/a	n/a	0	0	0	n/a	n/a	n/a	n/a	n/a
253.016	n/a	START	126508	n/a	LTP197	ltpFR	12	n/a	n/a	n/a	n/a	n/a	n/a	n/a	n/a	n/a	n/a	n/a	n/a	n/a	n/a	n/a	n/a
253.048	n/a	PROB	126524	n/a	LTP197	ltpFR	12	n/a	n/a	n/a	n/a	n/a	n/a	n/a	18	8	4	6	n/a	n/a	n/a	n/a	n/a
254.796	n/a	PROB	127398	n/a	LTP197	ltpFR	12	n/a	n/a	n/a	n/a	n/a	n/a	n/a	17	7	8	2	n/a	n/a	n/a	n/a	n/a
256.244	n/a	PROB	128122	n/a	LTP197	ltpFR	12	n/a	n/a	n/a	n/a	n/a	n/a	n/a	9	3	4	2	n/a	n/a	n/a	n/a	n/a
258.108	n/a	PROB	129054	n/a	LTP197	ltpFR	12	n/a	n/a	n/a	n/a	n/a	n/a	n/a	16	4	5	7	n/a	n/a	n/a	n/a	n/a
259.938	n/a	PROB	129969	n/a	LTP197	ltpFR	12	n/a	n/a	n/a	n/a	n/a	n/a	n/a	20	9	9	2	n/a	n/a	n/a	n/a	n/a
261.62	n/a	PROB	130810	n/a	LTP197	ltpFR	12	n/a	n/a	n/a	n/a	n/a	n/a	n/a	13	6	2	5	n/a	n/a	n/a	n/a	n/a
263.8	n/a	PROB	131900	n/a	LTP197	ltpFR	12	n/a	n/a	n/a	n/a	n/a	n/a	n/a	14	2	8	4	n/a	n/a	n/a	n/a	n/a
266.18	n/a	PROB	133090	n/a	LTP197	ltpFR	12	n/a	n/a	n/a	n/a	n/a	n/a	n/a	22	5	8	9	n/a	n/a	n/a	n/a	n/a
268.694	n/a	PROB	134347	n/a	LTP197	ltpFR	12	n/a	n/a	n/a	n/a	n/a	n/a	n/a	12	3	8	1	n/a	n/a	n/a	n/a	n/a
273.016	n/a	STOP	136508	n/a	LTP197	ltpFR	12	n/a	n/a	n/a	n/a	n/a	n/a	n/a	n/a	n/a	n/a	n/a	n/a	n/a	n/a	n/a	n/a
301.194	n/a	WORD	150597	wordpools/wasnorm_wordpool_less_exclusions.txt	LTP197	ltpFR	12	1	0	POT	1114	1	n/a	0	n/a	0	0	0	0.422607421875	0.5869140625	0	upper	amplitud.ttf
305.356	n/a	WORD	152678	wordpools/wasnorm_wordpool_less_exclusions.txt	LTP197	ltpFR	12	1	0	CLAY	320	n/a	n/a	0	n/a	0	0	0	0.422607421875	0.5869140625	0	upper	amplitud.ttf
309.532	n/a	WORD	154766	wordpools/wasnorm_wordpool_less_exclusions.txt	LTP197	ltpFR	12	1	1	GRADUATE	653	n/a	n/a	1	n/a	0	0	0	0.57763671875	0.412841796875	1	lower	zerothre.ttf
313.71	n/a	WORD	156855	wordpools/wasnorm_wordpool_less_exclusions.txt	LTP197	ltpFR	12	1	1	PASTRY	1022	n/a	n/a	0	n/a	0	0	0	0.57763671875	0.412841796875	1	lower	zerothre.ttf
317.77	n/a	WORD	158885	wordpools/wasnorm_wordpool_less_exclusions.txt	LTP197	ltpFR	12	1	1	SLOPE	1328	n/a	n/a	0	n/a	0	0	0	0.57763671875	0.412841796875	1	lower	zerothre.ttf
321.714	n/a	WORD	160857	wordpools/wasnorm_wordpool_less_exclusions.txt	LTP197	ltpFR	12	1	1	OTTER	986	n/a	n/a	1	n/a	0	0	0	0.57763671875	0.412841796875	1	lower	zerothre.ttf
325.708	n/a	WORD	162854	wordpools/wasnorm_wordpool_less_exclusions.txt	LTP197	ltpFR	12	1	0	RACCOON	1153	n/a	n/a	1	n/a	0	0	0	0.422607421875	0.5869140625	0	upper	amplitud.ttf
329.836	n/a	WORD	164918	wordpools/wasnorm_wordpool_less_exclusions.txt	LTP197	ltpFR	12	1	0	BALLOT	76	n/a	n/a	0	n/a	0	0	0	0.422607421875	0.5869140625	0	upper	amplitud.ttf
333.73	n/a	WORD	166865	wordpools/wasnorm_wordpool_less_exclusions.txt	LTP197	ltpFR	12	1	0	NAPKIN	937	n/a	n/a	0	n/a	0	0	0	0.422607421875	0.5869140625	0	upper	amplitud.ttf
337.692	n/a	WORD	168846	wordpools/wasnorm_wordpool_less_exclusions.txt	LTP197	ltpFR	12	1	0	CASH	252	n/a	n/a	0	n/a	0	0	0	0.422607421875	0.5869140625	0	upper	amplitud.ttf
341.536	n/a	WORD	170768	wordpools/wasnorm_wordpool_less_exclusions.txt	LTP197	ltpFR	12	1	1	BALCONY	72	n/a	n/a	0	n/a	0	0	0	0.57763671875	0.412841796875	1	lower	zerothre.ttf
345.612	n/a	WORD	172806	wordpools/wasnorm_wordpool_less_exclusions.txt	LTP197	ltpFR	12	1	1	BAKER	71	n/a	n/a	1	n/a	0	0	0	0.57763671875	0.412841796875	1	lower	zerothre.ttf
349.624	n/a	WORD	174812	wordpools/wasnorm_wordpool_less_exclusions.txt	LTP197	ltpFR	12	1	1	GRILL	661	n/a	n/a	1	n/a	0	0	0	0.57763671875	0.412841796875	1	lower	zerothre.ttf
353.75	n/a	WORD	176875	wordpools/wasnorm_wordpool_less_exclusions.txt	LTP197	ltpFR	12	1	1	SIRLOIN	1311	n/a	n/a	0	n/a	0	0	0	0.57763671875	0.412841796875	1	lower	zerothre.ttf
357.828	n/a	WORD	178914	wordpools/wasnorm_wordpool_less_exclusions.txt	LTP197	ltpFR	12	1	0	WORM	1623	n/a	n/a	0	n/a	0	0	0	0.422607421875	0.5869140625	0	upper	amplitud.ttf
361.904	n/a	WORD	180952	wordpools/wasnorm_wordpool_less_exclusions.txt	LTP197	ltpFR	12	1	0	RECEIPT	1173	n/a	n/a	0	n/a	0	0	0	0.422607421875	0.5869140625	0	upper	amplitud.ttf
364.918	n/a	START	182459	n/a	LTP197	ltpFR	12	n/a	n/a	n/a	n/a	n/a	n/a	n/a	n/a	n/a	n/a	n/a	n/a	n/a	n/a	n/a	n/a
366.048	n/a	PROB	183024	n/a	LTP197	ltpFR	12	n/a	n/a	n/a	n/a	n/a	n/a	n/a	15	4	8	3	n/a	n/a	n/a	n/a	n/a
368.062	n/a	PROB	184031	n/a	LTP197	ltpFR	12	n/a	n/a	n/a	n/a	n/a	n/a	n/a	19	5	8	6	n/a	n/a	n/a	n/a	n/a
371.678	n/a	STOP	185839	n/a	LTP197	ltpFR	12	n/a	n/a	n/a	n/a	n/a	n/a	n/a	n/a	n/a	n/a	n/a	n/a	n/a	n/a	n/a	n/a
374.836	n/a	REC_START	187418	n/a	LTP197	ltpFR	12	1	n/a	n/a	n/a	n/a	n/a	n/a	n/a	0	0	0	n/a	n/a	n/a	n/a	n/a
376.104	n/a	REC_WORD	188052	wordpools/wasnorm_wordpool_less_exclusions.txt	LTP197	ltpFR	12	1	1	GRILL	661	n/a	n/a	1	n/a	0	0	0	n/a	n/a	n/a	n/a	n/a
376.876	n/a	REC_WORD	188438	wordpools/wasnorm_wordpool_less_exclusions.txt	LTP197	ltpFR	12	1	1	SIRLOIN	1311	n/a	n/a	0	n/a	0	0	0	n/a	n/a	n/a	n/a	n/a
377.728	n/a	REC_WORD	188864	wordpools/wasnorm_wordpool_less_exclusions.txt	LTP197	ltpFR	12	1	0	RECEIPT	1173	n/a	n/a	0	n/a	0	0	0	n/a	n/a	n/a	n/a	n/a
379.282	n/a	REC_WORD	189641	wordpools/wasnorm_wordpool_less_exclusions.txt	LTP197	ltpFR	12	1	0	WORM	1623	n/a	n/a	0	n/a	0	0	0	n/a	n/a	n/a	n/a	n/a
380.738	n/a	REC_WORD	190369	wordpools/wasnorm_wordpool_less_exclusions.txt	LTP197	ltpFR	12	1	1	BAKER	71	n/a	n/a	1	n/a	0	0	0	n/a	n/a	n/a	n/a	n/a
381.95	n/a	REC_WORD	190975	wordpools/wasnorm_wordpool_less_exclusions.txt	LTP197	ltpFR	12	1	1	BALCONY	72	n/a	n/a	0	n/a	0	0	0	n/a	n/a	n/a	n/a	n/a
383.092	n/a	REC_WORD	191546	wordpools/wasnorm_wordpool_less_exclusions.txt	LTP197	ltpFR	12	1	1	GRADUATE	653	n/a	n/a	1	n/a	0	0	0	n/a	n/a	n/a	n/a	n/a
383.91	n/a	REC_WORD	191955	wordpools/wasnorm_wordpool_less_exclusions.txt	LTP197	ltpFR	12	1	1	SLOPE	1328	n/a	n/a	0	n/a	0	0	0	n/a	n/a	n/a	n/a	n/a
385.044	n/a	REC_WORD	192522	wordpools/wasnorm_wordpool_less_exclusions.txt	LTP197	ltpFR	12	1	0	RACCOON	1153	n/a	n/a	1	n/a	0	0	0	n/a	n/a	n/a	n/a	n/a
385.986	n/a	REC_WORD	192993	wordpools/wasnorm_wordpool_less_exclusions.txt	LTP197	ltpFR	12	1	0	RECEIPT	1173	n/a	n/a	0	n/a	0	0	0	n/a	n/a	n/a	n/a	n/a
387.582	n/a	REC_WORD	193791	wordpools/wasnorm_wordpool_less_exclusions.txt	LTP197	ltpFR	12	1	0	NAPKIN	937	n/a	n/a	0	n/a	0	0	0	n/a	n/a	n/a	n/a	n/a
389.592	n/a	REC_WORD	194796	wordpools/wasnorm_wordpool_less_exclusions.txt	LTP197	ltpFR	12	1	0	BALLOT	76	n/a	n/a	0	n/a	0	0	0	n/a	n/a	n/a	n/a	n/a
390.51	n/a	REC_WORD	195255	wordpools/wasnorm_wordpool_less_exclusions.txt	LTP197	ltpFR	12	1	0	CASH	252	n/a	n/a	0	n/a	0	0	0	n/a	n/a	n/a	n/a	n/a
391.882	n/a	REC_WORD	195941	wordpools/wasnorm_wordpool_less_exclusions.txt	LTP197	ltpFR	12	1	1	OTTER	986	n/a	n/a	1	n/a	0	0	0	n/a	n/a	n/a	n/a	n/a
394.536	n/a	REC_WORD	197268	wordpools/wasnorm_wordpool_less_exclusions.txt	LTP197	ltpFR	12	1	0	CLAY	320	n/a	n/a	0	n/a	0	0	0	n/a	n/a	n/a	n/a	n/a
395.224	n/a	REC_WORD	197612	wordpools/wasnorm_wordpool_less_exclusions.txt	LTP197	ltpFR	12	1	0	POT	1114	n/a	n/a	0	n/a	0	0	0	n/a	n/a	n/a	n/a	n/a
395.938	n/a	REC_WORD	197969	wordpools/wasnorm_wordpool_less_exclusions.txt	LTP197	ltpFR	12	1	1	PASTRY	1022	n/a	n/a	0	n/a	0	0	0	n/a	n/a	n/a	n/a	n/a
451.406	n/a	START	225703	n/a	LTP197	ltpFR	12	n/a	n/a	n/a	n/a	n/a	n/a	n/a	n/a	n/a	n/a	n/a	n/a	n/a	n/a	n/a	n/a
452.92	n/a	PROB	226460	n/a	LTP197	ltpFR	12	n/a	n/a	n/a	n/a	n/a	n/a	n/a	21	6	9	6	n/a	n/a	n/a	n/a	n/a
455.732	n/a	PROB	227866	n/a	LTP197	ltpFR	12	n/a	n/a	n/a	n/a	n/a	n/a	n/a	7	1	1	5	n/a	n/a	n/a	n/a	n/a
457.63	n/a	PROB	228815	n/a	LTP197	ltpFR	12	n/a	n/a	n/a	n/a	n/a	n/a	n/a	13	3	4	6	n/a	n/a	n/a	n/a	n/a
458.974	n/a	STOP	229487	n/a	LTP197	ltpFR	12	n/a	n/a	n/a	n/a	n/a	n/a	n/a	n/a	n/a	n/a	n/a	n/a	n/a	n/a	n/a	n/a
460.524	n/a	WORD	230262	wordpools/wasnorm_wordpool_less_exclusions.txt	LTP197	ltpFR	12	2	1	ERASER	538	n/a	n/a	0	n/a	0	0	0	0.57763671875	0.412841796875	1	lower	zerothre.ttf
463.538	n/a	START	231769	n/a	LTP197	ltpFR	12	n/a	n/a	n/a	n/a	n/a	n/a	n/a	n/a	n/a	n/a	n/a	n/a	n/a	n/a	n/a	n/a
464.67	n/a	PROB	232335	n/a	LTP197	ltpFR	12	n/a	n/a	n/a	n/a	n/a	n/a	n/a	17	3	6	8	n/a	n/a	n/a	n/a	n/a
466.982	n/a	PROB	233491	n/a	LTP197	ltpFR	12	n/a	n/a	n/a	n/a	n/a	n/a	n/a	18	3	9	6	n/a	n/a	n/a	n/a	n/a
468.696	n/a	PROB	234348	n/a	LTP197	ltpFR	12	n/a	n/a	n/a	n/a	n/a	n/a	n/a	21	9	7	5	n/a	n/a	n/a	n/a	n/a
471.046	n/a	STOP	235523	n/a	LTP197	ltpFR	12	n/a	n/a	n/a	n/a	n/a	n/a	n/a	n/a	n/a	n/a	n/a	n/a	n/a	n/a	n/a	n/a
472.724	n/a	WORD	236362	wordpools/wasnorm_wordpool_less_exclusions.txt	LTP197	ltpFR	12	2	1	GUITAR	670	n/a	n/a	0	n/a	0	0	0	0.57763671875	0.412841796875	1	lower	zerothre.ttf
475.736	n/a	START	237868	n/a	LTP197	ltpFR	12	n/a	n/a	n/a	n/a	n/a	n/a	n/a	n/a	n/a	n/a	n/a	n/a	n/a	n/a	n/a	n/a
476.734	n/a	PROB	238367	n/a	LTP197	ltpFR	12	n/a	n/a	n/a	n/a	n/a	n/a	n/a	15	4	9	2	n/a	n/a	n/a	n/a	n/a
478.266	n/a	PROB	239133	n/a	LTP197	ltpFR	12	n/a	n/a	n/a	n/a	n/a	n/a	n/a	20	7	8	5	n/a	n/a	n/a	n/a	n/a
480.346	n/a	PROB	240173	n/a	LTP197	ltpFR	12	n/a	n/a	n/a	n/a	n/a	n/a	n/a	20	9	8	3	n/a	n/a	n/a	n/a	n/a
483.736	n/a	STOP	241868	n/a	LTP197	ltpFR	12	n/a	n/a	n/a	n/a	n/a	n/a	n/a	n/a	n/a	n/a	n/a	n/a	n/a	n/a	n/a	n/a
484.656	n/a	WORD	242328	wordpools/wasnorm_wordpool_less_exclusions.txt	LTP197	ltpFR	12	2	1	WHALE	1601	n/a	n/a	1	n/a	0	0	0	0.57763671875	0.412841796875	1	lower	zerothre.ttf
487.67	n/a	START	243835	n/a	LTP197	ltpFR	12	n/a	n/a	n/a	n/a	n/a	n/a	n/a	n/a	n/a	n/a	n/a	n/a	n/a	n/a	n/a	n/a
488.784	n/a	PROB	244392	n/a	LTP197	ltpFR	12	n/a	n/a	n/a	n/a	n/a	n/a	n/a	18	7	9	2	n/a	n/a	n/a	n/a	n/a
490.548	n/a	PROB	245274	n/a	LTP197	ltpFR	12	n/a	n/a	n/a	n/a	n/a	n/a	n/a	6	2	2	2	n/a	n/a	n/a	n/a	n/a
492.162	n/a	PROB	246081	n/a	LTP197	ltpFR	12	n/a	n/a	n/a	n/a	n/a	n/a	n/a	11	2	6	3	n/a	n/a	n/a	n/a	n/a
493.81	n/a	PROB	246905	n/a	LTP197	ltpFR	12	n/a	n/a	n/a	n/a	n/a	n/a	n/a	10	2	7	1	n/a	n/a	n/a	n/a	n/a
495.36	n/a	STOP	247680	n/a	LTP197	ltpFR	12	n/a	n/a	n/a	n/a	n/a	n/a	n/a	n/a	n/a	n/a	n/a	n/a	n/a	n/a	n/a	n/a
496.772	n/a	WORD	248386	wordpools/wasnorm_wordpool_less_exclusions.txt	LTP197	ltpFR	12	2	1	UMPIRE	1535	n/a	n/a	1	n/a	0	0	0	0.57763671875	0.412841796875	1	lower	zerothre.ttf
499.784	n/a	START	249892	n/a	LTP197	ltpFR	12	n/a	n/a	n/a	n/a	n/a	n/a	n/a	n/a	n/a	n/a	n/a	n/a	n/a	n/a	n/a	n/a
500.782	n/a	PROB	250391	n/a	LTP197	ltpFR	12	n/a	n/a	n/a	n/a	n/a	n/a	n/a	9	3	4	2	n/a	n/a	n/a	n/a	n/a
502.462	n/a	PROB	251231	n/a	LTP197	ltpFR	12	n/a	n/a	n/a	n/a	n/a	n/a	n/a	16	9	1	6	n/a	n/a	n/a	n/a	n/a
504.028	n/a	PROB	252014	n/a	LTP197	ltpFR	12	n/a	n/a	n/a	n/a	n/a	n/a	n/a	17	7	5	5	n/a	n/a	n/a	n/a	n/a
505.474	n/a	PROB	252737	n/a	LTP197	ltpFR	12	n/a	n/a	n/a	n/a	n/a	n/a	n/a	17	2	8	7	n/a	n/a	n/a	n/a	n/a
506.888	n/a	STOP	253444	n/a	LTP197	ltpFR	12	n/a	n/a	n/a	n/a	n/a	n/a	n/a	n/a	n/a	n/a	n/a	n/a	n/a	n/a	n/a	n/a
508.904	n/a	WORD	254452	wordpools/wasnorm_wordpool_less_exclusions.txt	LTP197	ltpFR	12	2	1	SURVEY	1414	n/a	n/a	0	n/a	0	0	0	0.57763671875	0.412841796875	1	lower	zerothre.ttf
511.916	n/a	START	255958	n/a	LTP197	ltpFR	12	n/a	n/a	n/a	n/a	n/a	n/a	n/a	n/a	n/a	n/a	n/a	n/a	n/a	n/a	n/a	n/a
512.932	n/a	PROB	256466	n/a	LTP197	ltpFR	12	n/a	n/a	n/a	n/a	n/a	n/a	n/a	15	8	1	6	n/a	n/a	n/a	n/a	n/a
514.528	n/a	PROB	257264	n/a	LTP197	ltpFR	12	n/a	n/a	n/a	n/a	n/a	n/a	n/a	18	8	2	8	n/a	n/a	n/a	n/a	n/a
516.11	n/a	PROB	258055	n/a	LTP197	ltpFR	12	n/a	n/a	n/a	n/a	n/a	n/a	n/a	18	5	5	8	n/a	n/a	n/a	n/a	n/a
517.392	n/a	PROB	258696	n/a	LTP197	ltpFR	12	n/a	n/a	n/a	n/a	n/a	n/a	n/a	12	4	2	6	n/a	n/a	n/a	n/a	n/a
519.096	n/a	STOP	259548	n/a	LTP197	ltpFR	12	n/a	n/a	n/a	n/a	n/a	n/a	n/a	n/a	n/a	n/a	n/a	n/a	n/a	n/a	n/a	n/a
520.736	n/a	WORD	260368	wordpools/wasnorm_wordpool_less_exclusions.txt	LTP197	ltpFR	12	2	1	TOMATO	1476	n/a	n/a	1	n/a	0	0	0	0.57763671875	0.412841796875	1	lower	zerothre.ttf
523.748	n/a	START	261874	n/a	LTP197	ltpFR	12	n/a	n/a	n/a	n/a	n/a	n/a	n/a	n/a	n/a	n/a	n/a	n/a	n/a	n/a	n/a	n/a
524.648	n/a	PROB	262324	n/a	LTP197	ltpFR	12	n/a	n/a	n/a	n/a	n/a	n/a	n/a	16	9	4	3	n/a	n/a	n/a	n/a	n/a
526.744	n/a	PROB	263372	n/a	LTP197	ltpFR	12	n/a	n/a	n/a	n/a	n/a	n/a	n/a	20	8	9	3	n/a	n/a	n/a	n/a	n/a
528.308	n/a	PROB	264154	n/a	LTP197	ltpFR	12	n/a	n/a	n/a	n/a	n/a	n/a	n/a	17	1	8	8	n/a	n/a	n/a	n/a	n/a
529.956	n/a	PROB	264978	n/a	LTP197	ltpFR	12	n/a	n/a	n/a	n/a	n/a	n/a	n/a	4	1	1	2	n/a	n/a	n/a	n/a	n/a
531.24	n/a	STOP	265620	n/a	LTP197	ltpFR	12	n/a	n/a	n/a	n/a	n/a	n/a	n/a	n/a	n/a	n/a	n/a	n/a	n/a	n/a	n/a	n/a
532.702	n/a	WORD	266351	wordpools/wasnorm_wordpool_less_exclusions.txt	LTP197	ltpFR	12	2	1	VEGETABLE	1552	n/a	n/a	1	n/a	0	0	0	0.57763671875	0.412841796875	1	lower	zerothre.ttf
535.714	n/a	START	267857	n/a	LTP197	ltpFR	12	n/a	n/a	n/a	n/a	n/a	n/a	n/a	n/a	n/a	n/a	n/a	n/a	n/a	n/a	n/a	n/a
536.862	n/a	PROB	268431	n/a	LTP197	ltpFR	12	n/a	n/a	n/a	n/a	n/a	n/a	n/a	20	7	9	4	n/a	n/a	n/a	n/a	n/a
538.61	n/a	PROB	269305	n/a	LTP197	ltpFR	12	n/a	n/a	n/a	n/a	n/a	n/a	n/a	19	8	7	4	n/a	n/a	n/a	n/a	n/a
540.24	n/a	PROB	270120	n/a	LTP197	ltpFR	12	n/a	n/a	n/a	n/a	n/a	n/a	n/a	22	8	8	6	n/a	n/a	n/a	n/a	n/a
541.922	n/a	PROB	270961	n/a	LTP197	ltpFR	12	n/a	n/a	n/a	n/a	n/a	n/a	n/a	20	5	9	6	n/a	n/a	n/a	n/a	n/a
543.47	n/a	STOP	271735	n/a	LTP197	ltpFR	12	n/a	n/a	n/a	n/a	n/a	n/a	n/a	n/a	n/a	n/a	n/a	n/a	n/a	n/a	n/a	n/a
544.7	n/a	WORD	272350	wordpools/wasnorm_wordpool_less_exclusions.txt	LTP197	ltpFR	12	2	1	BARRACUDA	90	n/a	n/a	1	n/a	0	0	0	0.57763671875	0.412841796875	1	lower	zerothre.ttf
547.714	n/a	START	273857	n/a	LTP197	ltpFR	12	n/a	n/a	n/a	n/a	n/a	n/a	n/a	n/a	n/a	n/a	n/a	n/a	n/a	n/a	n/a	n/a
548.594	n/a	PROB	274297	n/a	LTP197	ltpFR	12	n/a	n/a	n/a	n/a	n/a	n/a	n/a	25	9	7	9	n/a	n/a	n/a	n/a	n/a
550.442	n/a	PROB	275221	n/a	LTP197	ltpFR	12	n/a	n/a	n/a	n/a	n/a	n/a	n/a	12	4	5	3	n/a	n/a	n/a	n/a	n/a
552.04	n/a	PROB	276020	n/a	LTP197	ltpFR	12	n/a	n/a	n/a	n/a	n/a	n/a	n/a	16	8	7	1	n/a	n/a	n/a	n/a	n/a
555.714	n/a	STOP	277857	n/a	LTP197	ltpFR	12	n/a	n/a	n/a	n/a	n/a	n/a	n/a	n/a	n/a	n/a	n/a	n/a	n/a	n/a	n/a	n/a
556.916	n/a	WORD	278458	wordpools/wasnorm_wordpool_less_exclusions.txt	LTP197	ltpFR	12	2	1	MOTHER	921	n/a	n/a	1	n/a	0	0	0	0.57763671875	0.412841796875	1	lower	zerothre.ttf
559.93	n/a	START	279965	n/a	LTP197	ltpFR	12	n/a	n/a	n/a	n/a	n/a	n/a	n/a	n/a	n/a	n/a	n/a	n/a	n/a	n/a	n/a	n/a
560.844	n/a	PROB	280422	n/a	LTP197	ltpFR	12	n/a	n/a	n/a	n/a	n/a	n/a	n/a	10	4	1	5	n/a	n/a	n/a	n/a	n/a
563.158	n/a	PROB	281579	n/a	LTP197	ltpFR	12	n/a	n/a	n/a	n/a	n/a	n/a	n/a	9	3	4	2	n/a	n/a	n/a	n/a	n/a
567.93	n/a	STOP	283965	n/a	LTP197	ltpFR	12	n/a	n/a	n/a	n/a	n/a	n/a	n/a	n/a	n/a	n/a	n/a	n/a	n/a	n/a	n/a	n/a
568.998	n/a	WORD	284499	wordpools/wasnorm_wordpool_less_exclusions.txt	LTP197	ltpFR	12	2	1	SKETCH	1315	n/a	n/a	0	n/a	0	0	0	0.57763671875	0.412841796875	1	lower	zerothre.ttf
572.012	n/a	START	286006	n/a	LTP197	ltpFR	12	n/a	n/a	n/a	n/a	n/a	n/a	n/a	n/a	n/a	n/a	n/a	n/a	n/a	n/a	n/a	n/a
572.91	n/a	PROB	286455	n/a	LTP197	ltpFR	12	n/a	n/a	n/a	n/a	n/a	n/a	n/a	14	5	2	7	n/a	n/a	n/a	n/a	n/a
575.406	n/a	PROB	287703	n/a	LTP197	ltpFR	12	n/a	n/a	n/a	n/a	n/a	n/a	n/a	14	4	3	7	n/a	n/a	n/a	n/a	n/a
577.686	n/a	PROB	288843	n/a	LTP197	ltpFR	12	n/a	n/a	n/a	n/a	n/a	n/a	n/a	18	6	8	4	n/a	n/a	n/a	n/a	n/a
579.848	n/a	STOP	289924	n/a	LTP197	ltpFR	12	n/a	n/a	n/a	n/a	n/a	n/a	n/a	n/a	n/a	n/a	n/a	n/a	n/a	n/a	n/a	n/a
580.98	n/a	WORD	290490	wordpools/wasnorm_wordpool_less_exclusions.txt	LTP197	ltpFR	12	2	1	NOTE	958	n/a	n/a	0	n/a	0	0	0	0.57763671875	0.412841796875	1	lower	zerothre.ttf
583.994	n/a	START	291997	n/a	LTP197	ltpFR	12	n/a	n/a	n/a	n/a	n/a	n/a	n/a	n/a	n/a	n/a	n/a	n/a	n/a	n/a	n/a	n/a
585.008	n/a	PROB	292504	n/a	LTP197	ltpFR	12	n/a	n/a	n/a	n/a	n/a	n/a	n/a	19	6	6	7	n/a	n/a	n/a	n/a	n/a
587.022	n/a	PROB	293511	n/a	LTP197	ltpFR	12	n/a	n/a	n/a	n/a	n/a	n/a	n/a	17	2	9	6	n/a	n/a	n/a	n/a	n/a
588.852	n/a	PROB	294426	n/a	LTP197	ltpFR	12	n/a	n/a	n/a	n/a	n/a	n/a	n/a	9	4	3	2	n/a	n/a	n/a	n/a	n/a
590.824	n/a	STOP	295412	n/a	LTP197	ltpFR	12	n/a	n/a	n/a	n/a	n/a	n/a	n/a	n/a	n/a	n/a	n/a	n/a	n/a	n/a	n/a	n/a
593.062	n/a	WORD	296531	wordpools/wasnorm_wordpool_less_exclusions.txt	LTP197	ltpFR	12	2	1	RAISIN	1163	n/a	n/a	0	n/a	0	0	0	0.57763671875	0.412841796875	1	lower	zerothre.ttf
596.076	n/a	START	298038	n/a	LTP197	ltpFR	12	n/a	n/a	n/a	n/a	n/a	n/a	n/a	n/a	n/a	n/a	n/a	n/a	n/a	n/a	n/a	n/a
597.14	n/a	PROB	298570	n/a	LTP197	ltpFR	12	n/a	n/a	n/a	n/a	n/a	n/a	n/a	16	8	3	5	n/a	n/a	n/a	n/a	n/a
598.92	n/a	PROB	299460	n/a	LTP197	ltpFR	12	n/a	n/a	n/a	n/a	n/a	n/a	n/a	16	5	3	8	n/a	n/a	n/a	n/a	n/a
600.752	n/a	PROB	300376	n/a	LTP197	ltpFR	12	n/a	n/a	n/a	n/a	n/a	n/a	n/a	13	5	1	7	n/a	n/a	n/a	n/a	n/a
602.728	n/a	STOP	301364	n/a	LTP197	ltpFR	12	n/a	n/a	n/a	n/a	n/a	n/a	n/a	n/a	n/a	n/a	n/a	n/a	n/a	n/a	n/a	n/a
604.978	n/a	WORD	302489	wordpools/wasnorm_wordpool_less_exclusions.txt	LTP197	ltpFR	12	2	1	PURSE	1145	n/a	n/a	0	n/a	0	0	0	0.57763671875	0.412841796875	1	lower	zerothre.ttf
607.99	n/a	START	303995	n/a	LTP197	ltpFR	12	n/a	n/a	n/a	n/a	n/a	n/a	n/a	n/a	n/a	n/a	n/a	n/a	n/a	n/a	n/a	n/a
609.172	n/a	PROB	304586	n/a	LTP197	ltpFR	12	n/a	n/a	n/a	n/a	n/a	n/a	n/a	21	8	7	6	n/a	n/a	n/a	n/a	n/a
611.252	n/a	PROB	305626	n/a	LTP197	ltpFR	12	n/a	n/a	n/a	n/a	n/a	n/a	n/a	11	3	4	4	n/a	n/a	n/a	n/a	n/a
613.266	n/a	PROB	306633	n/a	LTP197	ltpFR	12	n/a	n/a	n/a	n/a	n/a	n/a	n/a	19	6	7	6	n/a	n/a	n/a	n/a	n/a
615.904	n/a	STOP	307952	n/a	LTP197	ltpFR	12	n/a	n/a	n/a	n/a	n/a	n/a	n/a	n/a	n/a	n/a	n/a	n/a	n/a	n/a	n/a	n/a
617.044	n/a	WORD	308522	wordpools/wasnorm_wordpool_less_exclusions.txt	LTP197	ltpFR	12	2	1	REGISTER	1180	n/a	n/a	0	n/a	0	0	0	0.57763671875	0.412841796875	1	lower	zerothre.ttf
620.058	n/a	START	310029	n/a	LTP197	ltpFR	12	n/a	n/a	n/a	n/a	n/a	n/a	n/a	n/a	n/a	n/a	n/a	n/a	n/a	n/a	n/a	n/a
621.222	n/a	PROB	310611	n/a	LTP197	ltpFR	12	n/a	n/a	n/a	n/a	n/a	n/a	n/a	13	1	5	7	n/a	n/a	n/a	n/a	n/a
622.702	n/a	PROB	311351	n/a	LTP197	ltpFR	12	n/a	n/a	n/a	n/a	n/a	n/a	n/a	19	8	3	8	n/a	n/a	n/a	n/a	n/a
624.316	n/a	PROB	312158	n/a	LTP197	ltpFR	12	n/a	n/a	n/a	n/a	n/a	n/a	n/a	24	9	9	6	n/a	n/a	n/a	n/a	n/a
627.058	n/a	STOP	313529	n/a	LTP197	ltpFR	12	n/a	n/a	n/a	n/a	n/a	n/a	n/a	n/a	n/a	n/a	n/a	n/a	n/a	n/a	n/a	n/a
629.26	n/a	WORD	314630	wordpools/wasnorm_wordpool_less_exclusions.txt	LTP197	ltpFR	12	2	1	HARE	688	n/a	n/a	1	n/a	0	0	0	0.57763671875	0.412841796875	1	lower	zerothre.ttf
632.272	n/a	START	316136	n/a	LTP197	ltpFR	12	n/a	n/a	n/a	n/a	n/a	n/a	n/a	n/a	n/a	n/a	n/a	n/a	n/a	n/a	n/a	n/a
633.104	n/a	PROB	316552	n/a	LTP197	ltpFR	12	n/a	n/a	n/a	n/a	n/a	n/a	n/a	20	5	6	9	n/a	n/a	n/a	n/a	n/a
634.768	n/a	PROB	317384	n/a	LTP197	ltpFR	12	n/a	n/a	n/a	n/a	n/a	n/a	n/a	17	4	8	5	n/a	n/a	n/a	n/a	n/a
636.448	n/a	PROB	318224	n/a	LTP197	ltpFR	12	n/a	n/a	n/a	n/a	n/a	n/a	n/a	15	9	4	2	n/a	n/a	n/a	n/a	n/a
640.272	n/a	STOP	320136	n/a	LTP197	ltpFR	12	n/a	n/a	n/a	n/a	n/a	n/a	n/a	n/a	n/a	n/a	n/a	n/a	n/a	n/a	n/a	n/a
641.192	n/a	WORD	320596	wordpools/wasnorm_wordpool_less_exclusions.txt	LTP197	ltpFR	12	2	1	CARROT	249	n/a	n/a	1	n/a	0	0	0	0.57763671875	0.412841796875	1	lower	zerothre.ttf
644.204	n/a	START	322102	n/a	LTP197	ltpFR	12	n/a	n/a	n/a	n/a	n/a	n/a	n/a	n/a	n/a	n/a	n/a	n/a	n/a	n/a	n/a	n/a
645.102	n/a	PROB	322551	n/a	LTP197	ltpFR	12	n/a	n/a	n/a	n/a	n/a	n/a	n/a	21	9	9	3	n/a	n/a	n/a	n/a	n/a
647.182	n/a	PROB	323591	n/a	LTP197	ltpFR	12	n/a	n/a	n/a	n/a	n/a	n/a	n/a	14	5	2	7	n/a	n/a	n/a	n/a	n/a
648.698	n/a	PROB	324349	n/a	LTP197	ltpFR	12	n/a	n/a	n/a	n/a	n/a	n/a	n/a	8	1	3	4	n/a	n/a	n/a	n/a	n/a
652.204	n/a	STOP	326102	n/a	LTP197	ltpFR	12	n/a	n/a	n/a	n/a	n/a	n/a	n/a	n/a	n/a	n/a	n/a	n/a	n/a	n/a	n/a	n/a
654.106	n/a	REC_START	327053	n/a	LTP197	ltpFR	12	2	n/a	n/a	n/a	n/a	n/a	n/a	n/a	0	0	0	n/a	n/a	n/a	n/a	n/a
657.498	n/a	REC_WORD	328749	wordpools/wasnorm_wordpool_less_exclusions.txt	LTP197	ltpFR	12	2	1	BARRACUDA	90	n/a	n/a	1	n/a	0	0	0	n/a	n/a	n/a	n/a	n/a
658.458	n/a	REC_WORD	329229	wordpools/wasnorm_wordpool_less_exclusions.txt	LTP197	ltpFR	12	2	1	MOTHER	921	n/a	n/a	1	n/a	0	0	0	n/a	n/a	n/a	n/a	n/a
659.38	n/a	REC_WORD	329690	wordpools/wasnorm_wordpool_less_exclusions.txt	LTP197	ltpFR	12	2	1	PURSE	1145	n/a	n/a	0	n/a	0	0	0	n/a	n/a	n/a	n/a	n/a
661.276	n/a	REC_WORD	330638	wordpools/wasnorm_wordpool_less_exclusions.txt	LTP197	ltpFR	12	2	1	UMPIRE	1535	n/a	n/a	1	n/a	0	0	0	n/a	n/a	n/a	n/a	n/a
662.276	n/a	REC_WORD_VV	331138	wordpools/wasnorm_wordpool_less_exclusions.txt	LTP197	ltpFR	12	2	n/a	<>	-1	n/a	n/a	n/a	n/a	0	0	0	n/a	n/a	n/a	n/a	n/a
663.294	n/a	REC_WORD	331647	wordpools/wasnorm_wordpool_less_exclusions.txt	LTP197	ltpFR	12	2	1	VEGETABLE	1552	n/a	n/a	1	n/a	0	0	0	n/a	n/a	n/a	n/a	n/a
664.294	n/a	REC_WORD_VV	332147	wordpools/wasnorm_wordpool_less_exclusions.txt	LTP197	ltpFR	12	2	n/a	<>	-1	n/a	n/a	n/a	n/a	0	0	0	n/a	n/a	n/a	n/a	n/a
664.882	n/a	REC_WORD	332441	wordpools/wasnorm_wordpool_less_exclusions.txt	LTP197	ltpFR	12	2	1	TOMATO	1476	n/a	n/a	1	n/a	0	0	0	n/a	n/a	n/a	n/a	n/a
666.524	n/a	REC_WORD	333262	wordpools/wasnorm_wordpool_less_exclusions.txt	LTP197	ltpFR	12	2	1	SURVEY	1414	n/a	n/a	0	n/a	0	0	0	n/a	n/a	n/a	n/a	n/a
667.524	n/a	REC_WORD_VV	333762	wordpools/wasnorm_wordpool_less_exclusions.txt	LTP197	ltpFR	12	2	n/a	<>	-1	n/a	n/a	n/a	n/a	0	0	0	n/a	n/a	n/a	n/a	n/a
667.706	n/a	REC_WORD	333853	wordpools/wasnorm_wordpool_less_exclusions.txt	LTP197	ltpFR	12	2	1	REGISTER	1180	n/a	n/a	0	n/a	0	0	0	n/a	n/a	n/a	n/a	n/a
700.192	n/a	REC_WORD	350096	wordpools/wasnorm_wordpool_less_exclusions.txt	LTP197	ltpFR	12	2	1	CARROT	249	n/a	n/a	1	n/a	0	0	0	n/a	n/a	n/a	n/a	n/a
704.502	n/a	REC_WORD	352251	wordpools/wasnorm_wordpool_less_exclusions.txt	LTP197	ltpFR	12	2	1	RAISIN	1163	n/a	n/a	0	n/a	0	0	0	n/a	n/a	n/a	n/a	n/a
733.738	n/a	WORD	366869	wordpools/wasnorm_wordpool_less_exclusions.txt	LTP197	ltpFR	12	3	0	HOUND	724	n/a	n/a	0	n/a	0	0	0	0.422607421875	0.5869140625	0	upper	amplitud.ttf
737.616	n/a	WORD	368808	wordpools/wasnorm_wordpool_less_exclusions.txt	LTP197	ltpFR	12	3	0	BUFFALO	186	n/a	n/a	0	n/a	0	0	0	0.422607421875	0.5869140625	0	upper	amplitud.ttf
741.792	n/a	WORD	370896	wordpools/wasnorm_wordpool_less_exclusions.txt	LTP197	ltpFR	12	3	0	PAIL	1002	n/a	n/a	0	n/a	0	0	0	0.422607421875	0.5869140625	0	upper	amplitud.ttf
745.62	n/a	WORD	372810	wordpools/wasnorm_wordpool_less_exclusions.txt	LTP197	ltpFR	12	3	0	PIT	1077	n/a	n/a	0	n/a	0	0	0	0.422607421875	0.5869140625	0	upper	amplitud.ttf
749.614	n/a	WORD	374807	wordpools/wasnorm_wordpool_less_exclusions.txt	LTP197	ltpFR	12	3	0	CALF	222	n/a	n/a	n/a	n/a	0	0	0	0.422607421875	0.5869140625	0	upper	amplitud.ttf
752.642	n/a	SLOW_MSG	376321	n/a	LTP197	ltpFR	12	3	n/a	n/a	n/a	n/a	n/a	n/a	n/a	0	0	0	n/a	n/a	n/a	n/a	n/a
755.122	n/a	WORD	377561	wordpools/wasnorm_wordpool_less_exclusions.txt	LTP197	ltpFR	12	3	0	BACKBONE	66	n/a	n/a	0	n/a	0	0	0	0.422607421875	0.5869140625	0	upper	amplitud.ttf
759.0	n/a	WORD	379500	wordpools/wasnorm_wordpool_less_exclusions.txt	LTP197	ltpFR	12	3	1	BUG	187	n/a	n/a	1	n/a	0	0	0	0.57763671875	0.412841796875	1	lower	zerothre.ttf
763.046	n/a	WORD	381523	wordpools/wasnorm_wordpool_less_exclusions.txt	LTP197	ltpFR	12	3	1	SUGAR	1401	n/a	n/a	0	n/a	0	0	0	0.57763671875	0.412841796875	1	lower	zerothre.ttf
767.238	n/a	WORD	383619	wordpools/wasnorm_wordpool_less_exclusions.txt	LTP197	ltpFR	12	3	1	HAMMER	680	n/a	n/a	0	n/a	0	0	0	0.57763671875	0.412841796875	1	lower	zerothre.ttf
771.3	n/a	WORD	385650	wordpools/wasnorm_wordpool_less_exclusions.txt	LTP197	ltpFR	12	3	0	BEETLE	116	n/a	n/a	1	n/a	0	0	0	0.422607421875	0.5869140625	0	upper	amplitud.ttf
775.276	n/a	WORD	387638	wordpools/wasnorm_wordpool_less_exclusions.txt	LTP197	ltpFR	12	3	0	MOTH	920	n/a	n/a	0	n/a	0	0	0	0.422607421875	0.5869140625	0	upper	amplitud.ttf
779.104	n/a	WORD	389552	wordpools/wasnorm_wordpool_less_exclusions.txt	LTP197	ltpFR	12	3	1	SUBWAY	1400	n/a	n/a	0	n/a	0	0	0	0.57763671875	0.412841796875	1	lower	zerothre.ttf
783.182	n/a	WORD	391591	wordpools/wasnorm_wordpool_less_exclusions.txt	LTP197	ltpFR	12	3	1	COBWEB	337	n/a	n/a	0	n/a	0	0	0	0.57763671875	0.412841796875	1	lower	zerothre.ttf
787.376	n/a	WORD	393688	wordpools/wasnorm_wordpool_less_exclusions.txt	LTP197	ltpFR	12	3	1	HAMPER	682	n/a	n/a	0	n/a	0	0	0	0.57763671875	0.412841796875	1	lower	zerothre.ttf
791.27	n/a	WORD	395635	wordpools/wasnorm_wordpool_less_exclusions.txt	LTP197	ltpFR	12	3	1	DETERGENT	455	n/a	n/a	0	n/a	0	0	0	0.57763671875	0.412841796875	1	lower	zerothre.ttf
795.23	n/a	WORD	397615	wordpools/wasnorm_wordpool_less_exclusions.txt	LTP197	ltpFR	12	3	1	SPINE	1353	n/a	n/a	0	n/a	0	0	0	0.57763671875	0.412841796875	1	lower	zerothre.ttf
801.138	n/a	REC_START	400569	n/a	LTP197	ltpFR	12	3	n/a	n/a	n/a	n/a	n/a	n/a	n/a	0	0	0	n/a	n/a	n/a	n/a	n/a
802.05	n/a	REC_WORD	401025	wordpools/wasnorm_wordpool_less_exclusions.txt	LTP197	ltpFR	12	3	1	SPINE	1353	n/a	n/a	0	n/a	0	0	0	n/a	n/a	n/a	n/a	n/a
803.532	n/a	REC_WORD	401766	wordpools/wasnorm_wordpool_less_exclusions.txt	LTP197	ltpFR	12	3	0	BACKBONE	66	n/a	n/a	0	n/a	0	0	0	n/a	n/a	n/a	n/a	n/a
805.154	n/a	REC_WORD	402577	wordpools/wasnorm_wordpool_less_exclusions.txt	LTP197	ltpFR	12	3	1	SUBWAY	1400	n/a	n/a	0	n/a	0	0	0	n/a	n/a	n/a	n/a	n/a
806.022	n/a	REC_WORD	403011	wordpools/wasnorm_wordpool_less_exclusions.txt	LTP197	ltpFR	12	3	1	HAMPER	682	n/a	n/a	0	n/a	0	0	0	n/a	n/a	n/a	n/a	n/a
806.79	n/a	REC_WORD	403395	wordpools/wasnorm_wordpool_less_exclusions.txt	LTP197	ltpFR	12	3	1	DETERGENT	455	n/a	n/a	0	n/a	0	0	0	n/a	n/a	n/a	n/a	n/a
808.372	n/a	REC_WORD	404186	wordpools/wasnorm_wordpool_less_exclusions.txt	LTP197	ltpFR	12	3	0	PIT	1077	n/a	n/a	0	n/a	0	0	0	n/a	n/a	n/a	n/a	n/a
809.1	n/a	REC_WORD	404550	wordpools/wasnorm_wordpool_less_exclusions.txt	LTP197	ltpFR	12	3	1	SUGAR	1401	n/a	n/a	0	n/a	0	0	0	n/a	n/a	n/a	n/a	n/a
810.058	n/a	REC_WORD	405029	wordpools/wasnorm_wordpool_less_exclusions.txt	LTP197	ltpFR	12	3	0	BEETLE	116	n/a	n/a	1	n/a	0	0	0	n/a	n/a	n/a	n/a	n/a
810.806	n/a	REC_WORD	405403	wordpools/wasnorm_wordpool_less_exclusions.txt	LTP197	ltpFR	12	3	1	BUG	187	n/a	n/a	1	n/a	0	0	0	n/a	n/a	n/a	n/a	n/a
811.49	n/a	REC_WORD	405745	wordpools/wasnorm_wordpool_less_exclusions.txt	LTP197	ltpFR	12	3	0	MOTH	920	n/a	n/a	0	n/a	0	0	0	n/a	n/a	n/a	n/a	n/a
812.822	n/a	REC_WORD	406411	wordpools/wasnorm_wordpool_less_exclusions.txt	LTP197	ltpFR	12	3	0	HOUND	724	n/a	n/a	0	n/a	0	0	0	n/a	n/a	n/a	n/a	n/a
813.6	n/a	REC_WORD	406800	wordpools/wasnorm_wordpool_less_exclusions.txt	LTP197	ltpFR	12	3	0	PAIL	1002	n/a	n/a	0	n/a	0	0	0	n/a	n/a	n/a	n/a	n/a
816.518	n/a	REC_WORD	408259	wordpools/wasnorm_wordpool_less_exclusions.txt	LTP197	ltpFR	12	3	0	BUFFALO	186	n/a	n/a	0	n/a	0	0	0	n/a	n/a	n/a	n/a	n/a
818.644	n/a	REC_WORD	409322	wordpools/wasnorm_wordpool_less_exclusions.txt	LTP197	ltpFR	12	3	0	CALF	222	n/a	n/a	n/a	n/a	0	0	0	n/a	n/a	n/a	n/a	n/a
877.974	n/a	START	438987	n/a	LTP197	ltpFR	12	n/a	n/a	n/a	n/a	n/a	n/a	n/a	n/a	n/a	n/a	n/a	n/a	n/a	n/a	n/a	n/a
879.488	n/a	PROB	439744	n/a	LTP197	ltpFR	12	n/a	n/a	n/a	n/a	n/a	n/a	n/a	17	4	4	9	n/a	n/a	n/a	n/a	n/a
881.484	n/a	PROB	440742	n/a	LTP197	ltpFR	12	n/a	n/a	n/a	n/a	n/a	n/a	n/a	20	6	7	7	n/a	n/a	n/a	n/a	n/a
883.284	n/a	PROB	441642	n/a	LTP197	ltpFR	12	n/a	n/a	n/a	n/a	n/a	n/a	n/a	13	3	9	1	n/a	n/a	n/a	n/a	n/a
884.54	n/a	STOP	442270	n/a	LTP197	ltpFR	12	n/a	n/a	n/a	n/a	n/a	n/a	n/a	n/a	n/a	n/a	n/a	n/a	n/a	n/a	n/a	n/a
886.812	n/a	WORD	443406	wordpools/wasnorm_wordpool_less_exclusions.txt	LTP197	ltpFR	12	4	1	PASSENGER	1020	n/a	n/a	1	n/a	0	0	0	0.57763671875	0.412841796875	1	lower	zerothre.ttf
889.824	n/a	START	444912	n/a	LTP197	ltpFR	12	n/a	n/a	n/a	n/a	n/a	n/a	n/a	n/a	n/a	n/a	n/a	n/a	n/a	n/a	n/a	n/a
891.022	n/a	PROB	445511	n/a	LTP197	ltpFR	12	n/a	n/a	n/a	n/a	n/a	n/a	n/a	22	6	7	9	n/a	n/a	n/a	n/a	n/a
893.002	n/a	PROB	446501	n/a	LTP197	ltpFR	12	n/a	n/a	n/a	n/a	n/a	n/a	n/a	18	8	5	5	n/a	n/a	n/a	n/a	n/a
894.966	n/a	PROB	447483	n/a	LTP197	ltpFR	12	n/a	n/a	n/a	n/a	n/a	n/a	n/a	13	3	7	3	n/a	n/a	n/a	n/a	n/a
896.3	n/a	STOP	448150	n/a	LTP197	ltpFR	12	n/a	n/a	n/a	n/a	n/a	n/a	n/a	n/a	n/a	n/a	n/a	n/a	n/a	n/a	n/a	n/a
899.01	n/a	WORD	449505	wordpools/wasnorm_wordpool_less_exclusions.txt	LTP197	ltpFR	12	4	1	CABLE	213	n/a	n/a	0	n/a	0	0	0	0.57763671875	0.412841796875	1	lower	zerothre.ttf
902.022	n/a	START	451011	n/a	LTP197	ltpFR	12	n/a	n/a	n/a	n/a	n/a	n/a	n/a	n/a	n/a	n/a	n/a	n/a	n/a	n/a	n/a	n/a
902.854	n/a	PROB	451427	n/a	LTP197	ltpFR	12	n/a	n/a	n/a	n/a	n/a	n/a	n/a	15	5	2	8	n/a	n/a	n/a	n/a	n/a
904.22	n/a	PROB	452110	n/a	LTP197	ltpFR	12	n/a	n/a	n/a	n/a	n/a	n/a	n/a	11	4	5	2	n/a	n/a	n/a	n/a	n/a
906.2	n/a	PROB	453100	n/a	LTP197	ltpFR	12	n/a	n/a	n/a	n/a	n/a	n/a	n/a	19	4	7	8	n/a	n/a	n/a	n/a	n/a
907.864	n/a	PROB	453932	n/a	LTP197	ltpFR	12	n/a	n/a	n/a	n/a	n/a	n/a	n/a	15	4	2	9	n/a	n/a	n/a	n/a	n/a
909.39	n/a	STOP	454695	n/a	LTP197	ltpFR	12	n/a	n/a	n/a	n/a	n/a	n/a	n/a	n/a	n/a	n/a	n/a	n/a	n/a	n/a	n/a	n/a
911.11	n/a	WORD	455555	wordpools/wasnorm_wordpool_less_exclusions.txt	LTP197	ltpFR	12	4	0	KEY	773	n/a	n/a	0	n/a	0	0	0	0.422607421875	0.5869140625	0	upper	amplitud.ttf
914.122	n/a	START	457061	n/a	LTP197	ltpFR	12	n/a	n/a	n/a	n/a	n/a	n/a	n/a	n/a	n/a	n/a	n/a	n/a	n/a	n/a	n/a	n/a
915.32	n/a	PROB	457660	n/a	LTP197	ltpFR	12	n/a	n/a	n/a	n/a	n/a	n/a	n/a	16	2	8	6	n/a	n/a	n/a	n/a	n/a
916.668	n/a	PROB	458334	n/a	LTP197	ltpFR	12	n/a	n/a	n/a	n/a	n/a	n/a	n/a	18	7	6	5	n/a	n/a	n/a	n/a	n/a
918.664	n/a	PROB	459332	n/a	LTP197	ltpFR	12	n/a	n/a	n/a	n/a	n/a	n/a	n/a	11	3	7	1	n/a	n/a	n/a	n/a	n/a
920.346	n/a	PROB	460173	n/a	LTP197	ltpFR	12	n/a	n/a	n/a	n/a	n/a	n/a	n/a	11	8	1	2	n/a	n/a	n/a	n/a	n/a
921.67	n/a	STOP	460835	n/a	LTP197	ltpFR	12	n/a	n/a	n/a	n/a	n/a	n/a	n/a	n/a	n/a	n/a	n/a	n/a	n/a	n/a	n/a	n/a
923.058	n/a	WORD	461529	wordpools/wasnorm_wordpool_less_exclusions.txt	LTP197	ltpFR	12	4	0	DRIVER	499	n/a	n/a	1	n/a	0	0	0	0.422607421875	0.5869140625	0	upper	amplitud.ttf
926.07	n/a	START	463035	n/a	LTP197	ltpFR	12	n/a	n/a	n/a	n/a	n/a	n/a	n/a	n/a	n/a	n/a	n/a	n/a	n/a	n/a	n/a	n/a
927.218	n/a	PROB	463609	n/a	LTP197	ltpFR	12	n/a	n/a	n/a	n/a	n/a	n/a	n/a	12	8	2	8	n/a	n/a	n/a	n/a	n/a
928.466	n/a	PROB	464233	n/a	LTP197	ltpFR	12	n/a	n/a	n/a	n/a	n/a	n/a	n/a	9	4	1	4	n/a	n/a	n/a	n/a	n/a
930.914	n/a	PROB	465457	n/a	LTP197	ltpFR	12	n/a	n/a	n/a	n/a	n/a	n/a	n/a	19	5	8	6	n/a	n/a	n/a	n/a	n/a
932.79	n/a	STOP	466395	n/a	LTP197	ltpFR	12	n/a	n/a	n/a	n/a	n/a	n/a	n/a	n/a	n/a	n/a	n/a	n/a	n/a	n/a	n/a	n/a
934.89	n/a	WORD	467445	wordpools/wasnorm_wordpool_less_exclusions.txt	LTP197	ltpFR	12	4	0	MECHANIC	884	n/a	n/a	1	n/a	0	0	0	0.422607421875	0.5869140625	0	upper	amplitud.ttf
937.904	n/a	START	468952	n/a	LTP197	ltpFR	12	n/a	n/a	n/a	n/a	n/a	n/a	n/a	n/a	n/a	n/a	n/a	n/a	n/a	n/a	n/a	n/a
939.068	n/a	PROB	469534	n/a	LTP197	ltpFR	12	n/a	n/a	n/a	n/a	n/a	n/a	n/a	15	6	6	3	n/a	n/a	n/a	n/a	n/a
940.814	n/a	PROB	470407	n/a	LTP197	ltpFR	12	n/a	n/a	n/a	n/a	n/a	n/a	n/a	17	8	1	8	n/a	n/a	n/a	n/a	n/a
942.746	n/a	PROB	471373	n/a	LTP197	ltpFR	12	n/a	n/a	n/a	n/a	n/a	n/a	n/a	14	7	3	4	n/a	n/a	n/a	n/a	n/a
945.59	n/a	STOP	472795	n/a	LTP197	ltpFR	12	n/a	n/a	n/a	n/a	n/a	n/a	n/a	n/a	n/a	n/a	n/a	n/a	n/a	n/a	n/a	n/a
946.922	n/a	WORD	473461	wordpools/wasnorm_wordpool_less_exclusions.txt	LTP197	ltpFR	12	4	1	SCOUT	1252	n/a	n/a	1	n/a	0	0	0	0.57763671875	0.412841796875	1	lower	zerothre.ttf
949.936	n/a	START	474968	n/a	LTP197	ltpFR	12	n/a	n/a	n/a	n/a	n/a	n/a	n/a	n/a	n/a	n/a	n/a	n/a	n/a	n/a	n/a	n/a
950.934	n/a	PROB	475467	n/a	LTP197	ltpFR	12	n/a	n/a	n/a	n/a	n/a	n/a	n/a	15	8	6	1	n/a	n/a	n/a	n/a	n/a
952.53	n/a	PROB	476265	n/a	LTP197	ltpFR	12	n/a	n/a	n/a	n/a	n/a	n/a	n/a	15	4	5	6	n/a	n/a	n/a	n/a	n/a
954.162	n/a	PROB	477081	n/a	LTP197	ltpFR	12	n/a	n/a	n/a	n/a	n/a	n/a	n/a	15	6	2	7	n/a	n/a	n/a	n/a	n/a
956.008	n/a	PROB	478004	n/a	LTP197	ltpFR	12	n/a	n/a	n/a	n/a	n/a	n/a	n/a	13	1	3	9	n/a	n/a	n/a	n/a	n/a
957.542	n/a	STOP	478771	n/a	LTP197	ltpFR	12	n/a	n/a	n/a	n/a	n/a	n/a	n/a	n/a	n/a	n/a	n/a	n/a	n/a	n/a	n/a	n/a
958.888	n/a	WORD	479444	wordpools/wasnorm_wordpool_less_exclusions.txt	LTP197	ltpFR	12	4	1	BUGLE	189	n/a	n/a	0	n/a	0	0	0	0.57763671875	0.412841796875	1	lower	zerothre.ttf
961.9	n/a	START	480950	n/a	LTP197	ltpFR	12	n/a	n/a	n/a	n/a	n/a	n/a	n/a	n/a	n/a	n/a	n/a	n/a	n/a	n/a	n/a	n/a
962.898	n/a	PROB	481449	n/a	LTP197	ltpFR	12	n/a	n/a	n/a	n/a	n/a	n/a	n/a	17	9	4	4	n/a	n/a	n/a	n/a	n/a
964.662	n/a	PROB	482331	n/a	LTP197	ltpFR	12	n/a	n/a	n/a	n/a	n/a	n/a	n/a	5	1	2	2	n/a	n/a	n/a	n/a	n/a
966.06	n/a	PROB	483030	n/a	LTP197	ltpFR	12	n/a	n/a	n/a	n/a	n/a	n/a	n/a	19	7	9	3	n/a	n/a	n/a	n/a	n/a
969.452	n/a	STOP	484726	n/a	LTP197	ltpFR	12	n/a	n/a	n/a	n/a	n/a	n/a	n/a	n/a	n/a	n/a	n/a	n/a	n/a	n/a	n/a	n/a
970.836	n/a	WORD	485418	wordpools/wasnorm_wordpool_less_exclusions.txt	LTP197	ltpFR	12	4	1	RADIO	1157	n/a	n/a	0	n/a	0	0	0	0.57763671875	0.412841796875	1	lower	zerothre.ttf
973.85	n/a	START	486925	n/a	LTP197	ltpFR	12	n/a	n/a	n/a	n/a	n/a	n/a	n/a	n/a	n/a	n/a	n/a	n/a	n/a	n/a	n/a	n/a
975.048	n/a	PROB	487524	n/a	LTP197	ltpFR	12	n/a	n/a	n/a	n/a	n/a	n/a	n/a	14	6	5	3	n/a	n/a	n/a	n/a	n/a
976.862	n/a	PROB	488431	n/a	LTP197	ltpFR	12	n/a	n/a	n/a	n/a	n/a	n/a	n/a	21	7	9	6	n/a	n/a	n/a	n/a	n/a
979.974	n/a	PROB	489987	n/a	LTP197	ltpFR	12	n/a	n/a	n/a	n/a	n/a	n/a	n/a	16	3	7	6	n/a	n/a	n/a	n/a	n/a
981.486	n/a	STOP	490743	n/a	LTP197	ltpFR	12	n/a	n/a	n/a	n/a	n/a	n/a	n/a	n/a	n/a	n/a	n/a	n/a	n/a	n/a	n/a	n/a
982.82	n/a	WORD	491410	wordpools/wasnorm_wordpool_less_exclusions.txt	LTP197	ltpFR	12	4	0	JAM	748	n/a	n/a	0	n/a	0	0	0	0.422607421875	0.5869140625	0	upper	amplitud.ttf
985.832	n/a	START	492916	n/a	LTP197	ltpFR	12	n/a	n/a	n/a	n/a	n/a	n/a	n/a	n/a	n/a	n/a	n/a	n/a	n/a	n/a	n/a	n/a
986.68	n/a	PROB	493340	n/a	LTP197	ltpFR	12	n/a	n/a	n/a	n/a	n/a	n/a	n/a	11	5	5	1	n/a	n/a	n/a	n/a	n/a
987.896	n/a	PROB	493948	n/a	LTP197	ltpFR	12	n/a	n/a	n/a	n/a	n/a	n/a	n/a	15	7	7	1	n/a	n/a	n/a	n/a	n/a
989.128	n/a	PROB	494564	n/a	LTP197	ltpFR	12	n/a	n/a	n/a	n/a	n/a	n/a	n/a	3	1	1	1	n/a	n/a	n/a	n/a	n/a
990.226	n/a	PROB	495113	n/a	LTP197	ltpFR	12	n/a	n/a	n/a	n/a	n/a	n/a	n/a	15	7	7	1	n/a	n/a	n/a	n/a	n/a
991.54	n/a	PROB	495770	n/a	LTP197	ltpFR	12	n/a	n/a	n/a	n/a	n/a	n/a	n/a	16	7	1	8	n/a	n/a	n/a	n/a	n/a
993.278	n/a	STOP	496639	n/a	LTP197	ltpFR	12	n/a	n/a	n/a	n/a	n/a	n/a	n/a	n/a	n/a	n/a	n/a	n/a	n/a	n/a	n/a	n/a
994.702	n/a	WORD	497351	wordpools/wasnorm_wordpool_less_exclusions.txt	LTP197	ltpFR	12	4	0	CITY	314	n/a	n/a	1	n/a	0	0	0	0.422607421875	0.5869140625	0	upper	amplitud.ttf
997.714	n/a	START	498857	n/a	LTP197	ltpFR	12	n/a	n/a	n/a	n/a	n/a	n/a	n/a	n/a	n/a	n/a	n/a	n/a	n/a	n/a	n/a	n/a
998.564	n/a	PROB	499282	n/a	LTP197	ltpFR	12	n/a	n/a	n/a	n/a	n/a	n/a	n/a	12	1	6	5	n/a	n/a	n/a	n/a	n/a
1000.21	n/a	PROB	500105	n/a	LTP197	ltpFR	12	n/a	n/a	n/a	n/a	n/a	n/a	n/a	13	3	4	6	n/a	n/a	n/a	n/a	n/a
1002.374	n/a	PROB	501187	n/a	LTP197	ltpFR	12	n/a	n/a	n/a	n/a	n/a	n/a	n/a	17	5	3	9	n/a	n/a	n/a	n/a	n/a
1004.054	n/a	PROB	502027	n/a	LTP197	ltpFR	12	n/a	n/a	n/a	n/a	n/a	n/a	n/a	13	3	1	9	n/a	n/a	n/a	n/a	n/a
1005.278	n/a	STOP	502639	n/a	LTP197	ltpFR	12	n/a	n/a	n/a	n/a	n/a	n/a	n/a	n/a	n/a	n/a	n/a	n/a	n/a	n/a	n/a	n/a
1006.868	n/a	WORD	503434	wordpools/wasnorm_wordpool_less_exclusions.txt	LTP197	ltpFR	12	4	0	ZIPPER	1636	n/a	n/a	0	n/a	0	0	0	0.422607421875	0.5869140625	0	upper	amplitud.ttf
1009.88	n/a	START	504940	n/a	LTP197	ltpFR	12	n/a	n/a	n/a	n/a	n/a	n/a	n/a	n/a	n/a	n/a	n/a	n/a	n/a	n/a	n/a	n/a
1010.944	n/a	PROB	505472	n/a	LTP197	ltpFR	12	n/a	n/a	n/a	n/a	n/a	n/a	n/a	7	3	2	2	n/a	n/a	n/a	n/a	n/a
1013.008	n/a	PROB	506504	n/a	LTP197	ltpFR	12	n/a	n/a	n/a	n/a	n/a	n/a	n/a	12	8	3	1	n/a	n/a	n/a	n/a	n/a
1014.956	n/a	PROB	507478	n/a	LTP197	ltpFR	12	n/a	n/a	n/a	n/a	n/a	n/a	n/a	21	9	3	9	n/a	n/a	n/a	n/a	n/a
1017.078	n/a	STOP	508539	n/a	LTP197	ltpFR	12	n/a	n/a	n/a	n/a	n/a	n/a	n/a	n/a	n/a	n/a	n/a	n/a	n/a	n/a	n/a	n/a
1018.866	n/a	WORD	509433	wordpools/wasnorm_wordpool_less_exclusions.txt	LTP197	ltpFR	12	4	0	CHAUFFEUR	283	n/a	n/a	1	n/a	0	0	0	0.422607421875	0.5869140625	0	upper	amplitud.ttf
1021.878	n/a	START	510939	n/a	LTP197	ltpFR	12	n/a	n/a	n/a	n/a	n/a	n/a	n/a	n/a	n/a	n/a	n/a	n/a	n/a	n/a	n/a	n/a
1022.844	n/a	PROB	511422	n/a	LTP197	ltpFR	12	n/a	n/a	n/a	n/a	n/a	n/a	n/a	10	1	8	1	n/a	n/a	n/a	n/a	n/a
1024.624	n/a	PROB	512312	n/a	LTP197	ltpFR	12	n/a	n/a	n/a	n/a	n/a	n/a	n/a	1	3	9	2	n/a	n/a	n/a	n/a	n/a
1026.138	n/a	PROB	513069	n/a	LTP197	ltpFR	12	n/a	n/a	n/a	n/a	n/a	n/a	n/a	12	1	3	8	n/a	n/a	n/a	n/a	n/a
1027.686	n/a	PROB	513843	n/a	LTP197	ltpFR	12	n/a	n/a	n/a	n/a	n/a	n/a	n/a	7	2	2	3	n/a	n/a	n/a	n/a	n/a
1029.166	n/a	STOP	514583	n/a	LTP197	ltpFR	12	n/a	n/a	n/a	n/a	n/a	n/a	n/a	n/a	n/a	n/a	n/a	n/a	n/a	n/a	n/a	n/a
1031.014	n/a	WORD	515507	wordpools/wasnorm_wordpool_less_exclusions.txt	LTP197	ltpFR	12	4	0	BLUEJAY	141	n/a	n/a	0	n/a	0	0	0	0.422607421875	0.5869140625	0	upper	amplitud.ttf
1034.028	n/a	START	517014	n/a	LTP197	ltpFR	12	n/a	n/a	n/a	n/a	n/a	n/a	n/a	n/a	n/a	n/a	n/a	n/a	n/a	n/a	n/a	n/a
1034.892	n/a	PROB	517446	n/a	LTP197	ltpFR	12	n/a	n/a	n/a	n/a	n/a	n/a	n/a	19	6	4	9	n/a	n/a	n/a	n/a	n/a
1036.672	n/a	PROB	518336	n/a	LTP197	ltpFR	12	n/a	n/a	n/a	n/a	n/a	n/a	n/a	10	5	4	1	n/a	n/a	n/a	n/a	n/a
1038.37	n/a	PROB	519185	n/a	LTP197	ltpFR	12	n/a	n/a	n/a	n/a	n/a	n/a	n/a	14	7	2	5	n/a	n/a	n/a	n/a	n/a
1040.418	n/a	PROB	520209	n/a	LTP197	ltpFR	12	n/a	n/a	n/a	n/a	n/a	n/a	n/a	1	7	7	5	n/a	n/a	n/a	n/a	n/a
1041.814	n/a	STOP	520907	n/a	LTP197	ltpFR	12	n/a	n/a	n/a	n/a	n/a	n/a	n/a	n/a	n/a	n/a	n/a	n/a	n/a	n/a	n/a	n/a
1042.946	n/a	WORD	521473	wordpools/wasnorm_wordpool_less_exclusions.txt	LTP197	ltpFR	12	4	1	CANDY	230	n/a	n/a	0	n/a	0	0	0	0.57763671875	0.412841796875	1	lower	zerothre.ttf
1045.96	n/a	START	522980	n/a	LTP197	ltpFR	12	n/a	n/a	n/a	n/a	n/a	n/a	n/a	n/a	n/a	n/a	n/a	n/a	n/a	n/a	n/a	n/a
1047.058	n/a	PROB	523529	n/a	LTP197	ltpFR	12	n/a	n/a	n/a	n/a	n/a	n/a	n/a	16	4	3	9	n/a	n/a	n/a	n/a	n/a
1048.69	n/a	PROB	524345	n/a	LTP197	ltpFR	12	n/a	n/a	n/a	n/a	n/a	n/a	n/a	21	7	6	8	n/a	n/a	n/a	n/a	n/a
1050.354	n/a	PROB	525177	n/a	LTP197	ltpFR	12	n/a	n/a	n/a	n/a	n/a	n/a	n/a	10	4	5	1	n/a	n/a	n/a	n/a	n/a
1051.652	n/a	PROB	525826	n/a	LTP197	ltpFR	12	n/a	n/a	n/a	n/a	n/a	n/a	n/a	15	3	8	3	n/a	n/a	n/a	n/a	n/a
1053.256	n/a	STOP	526628	n/a	LTP197	ltpFR	12	n/a	n/a	n/a	n/a	n/a	n/a	n/a	n/a	n/a	n/a	n/a	n/a	n/a	n/a	n/a	n/a
1054.88	n/a	WORD	527440	wordpools/wasnorm_wordpool_less_exclusions.txt	LTP197	ltpFR	12	4	1	LIME	823	n/a	n/a	0	n/a	0	0	0	0.57763671875	0.412841796875	1	lower	zerothre.ttf
1057.892	n/a	START	528946	n/a	LTP197	ltpFR	12	n/a	n/a	n/a	n/a	n/a	n/a	n/a	n/a	n/a	n/a	n/a	n/a	n/a	n/a	n/a	n/a
1058.758	n/a	PROB	529379	n/a	LTP197	ltpFR	12	n/a	n/a	n/a	n/a	n/a	n/a	n/a	16	1	9	6	n/a	n/a	n/a	n/a	n/a
1060.056	n/a	PROB	530028	n/a	LTP197	ltpFR	12	n/a	n/a	n/a	n/a	n/a	n/a	n/a	17	4	9	3	n/a	n/a	n/a	n/a	n/a
1061.752	n/a	PROB	530876	n/a	LTP197	ltpFR	12	n/a	n/a	n/a	n/a	n/a	n/a	n/a	13	4	7	2	n/a	n/a	n/a	n/a	n/a
1063.566	n/a	PROB	531783	n/a	LTP197	ltpFR	12	n/a	n/a	n/a	n/a	n/a	n/a	n/a	13	2	6	5	n/a	n/a	n/a	n/a	n/a
1065.304	n/a	STOP	532652	n/a	LTP197	ltpFR	12	n/a	n/a	n/a	n/a	n/a	n/a	n/a	n/a	n/a	n/a	n/a	n/a	n/a	n/a	n/a	n/a
1066.962	n/a	WORD	533481	wordpools/wasnorm_wordpool_less_exclusions.txt	LTP197	ltpFR	12	4	1	PEOPLE	1046	n/a	n/a	1	n/a	0	0	0	0.57763671875	0.412841796875	1	lower	zerothre.ttf
1069.974	n/a	START	534987	n/a	LTP197	ltpFR	12	n/a	n/a	n/a	n/a	n/a	n/a	n/a	n/a	n/a	n/a	n/a	n/a	n/a	n/a	n/a	n/a
1070.906	n/a	PROB	535453	n/a	LTP197	ltpFR	12	n/a	n/a	n/a	n/a	n/a	n/a	n/a	15	1	6	6	n/a	n/a	n/a	n/a	n/a
1072.786	n/a	PROB	536393	n/a	LTP197	ltpFR	12	n/a	n/a	n/a	n/a	n/a	n/a	n/a	16	5	5	6	n/a	n/a	n/a	n/a	n/a
1074.168	n/a	PROB	537084	n/a	LTP197	ltpFR	12	n/a	n/a	n/a	n/a	n/a	n/a	n/a	16	8	3	5	n/a	n/a	n/a	n/a	n/a
1075.848	n/a	PROB	537924	n/a	LTP197	ltpFR	12	n/a	n/a	n/a	n/a	n/a	n/a	n/a	13	2	5	6	n/a	n/a	n/a	n/a	n/a
1077.552	n/a	STOP	538776	n/a	LTP197	ltpFR	12	n/a	n/a	n/a	n/a	n/a	n/a	n/a	n/a	n/a	n/a	n/a	n/a	n/a	n/a	n/a	n/a
1079.894	n/a	REC_START	539947	n/a	LTP197	ltpFR	12	4	n/a	n/a	n/a	n/a	n/a	n/a	n/a	0	0	0	n/a	n/a	n/a	n/a	n/a
1082.108	n/a	REC_WORD	541054	wordpools/wasnorm_wordpool_less_exclusions.txt	LTP197	ltpFR	12	4	1	PEOPLE	1046	n/a	n/a	1	n/a	0	0	0	n/a	n/a	n/a	n/a	n/a
1082.88	n/a	REC_WORD	541440	wordpools/wasnorm_wordpool_less_exclusions.txt	LTP197	ltpFR	12	4	1	LIME	823	n/a	n/a	0	n/a	0	0	0	n/a	n/a	n/a	n/a	n/a
1083.584	n/a	REC_WORD	541792	wordpools/wasnorm_wordpool_less_exclusions.txt	LTP197	ltpFR	12	4	1	CANDY	230	n/a	n/a	0	n/a	0	0	0	n/a	n/a	n/a	n/a	n/a
1084.318	n/a	REC_WORD	542159	wordpools/wasnorm_wordpool_less_exclusions.txt	LTP197	ltpFR	12	4	0	ZIPPER	1636	n/a	n/a	0	n/a	0	0	0	n/a	n/a	n/a	n/a	n/a
1085.146	n/a	REC_WORD	542573	wordpools/wasnorm_wordpool_less_exclusions.txt	LTP197	ltpFR	12	4	0	BLUEJAY	141	n/a	n/a	0	n/a	0	0	0	n/a	n/a	n/a	n/a	n/a
1086.146	n/a	REC_WORD_VV	543073	wordpools/wasnorm_wordpool_less_exclusions.txt	LTP197	ltpFR	12	4	n/a	<>	-1	n/a	n/a	n/a	n/a	0	0	0	n/a	n/a	n/a	n/a	n/a
1089.416	n/a	REC_WORD	544708	wordpools/wasnorm_wordpool_less_exclusions.txt	LTP197	ltpFR	12	4	n/a	TOWN	1491	n/a	n/a	n/a	n/a	0	0	0	n/a	n/a	n/a	n/a	n/a
1090.004	n/a	REC_WORD	545002	wordpools/wasnorm_wordpool_less_exclusions.txt	LTP197	ltpFR	12	4	1	SCOUT	1252	n/a	n/a	1	n/a	0	0	0	n/a	n/a	n/a	n/a	n/a
1091.008	n/a	REC_WORD	545504	wordpools/wasnorm_wordpool_less_exclusions.txt	LTP197	ltpFR	12	4	1	BUGLE	189	n/a	n/a	0	n/a	0	0	0	n/a	n/a	n/a	n/a	n/a
1091.77	n/a	REC_WORD	545885	wordpools/wasnorm_wordpool_less_exclusions.txt	LTP197	ltpFR	12	4	1	RADIO	1157	n/a	n/a	0	n/a	0	0	0	n/a	n/a	n/a	n/a	n/a
1092.77	n/a	REC_WORD_VV	546385	wordpools/wasnorm_wordpool_less_exclusions.txt	LTP197	ltpFR	12	4	n/a	<>	-1	n/a	n/a	n/a	n/a	0	0	0	n/a	n/a	n/a	n/a	n/a
1095.218	n/a	REC_WORD	547609	wordpools/wasnorm_wordpool_less_exclusions.txt	LTP197	ltpFR	12	4	1	CABLE	213	n/a	n/a	0	n/a	0	0	0	n/a	n/a	n/a	n/a	n/a
1096.172	n/a	REC_WORD	548086	wordpools/wasnorm_wordpool_less_exclusions.txt	LTP197	ltpFR	12	4	0	KEY	773	n/a	n/a	0	n/a	0	0	0	n/a	n/a	n/a	n/a	n/a
1097.07	n/a	REC_WORD	548535	wordpools/wasnorm_wordpool_less_exclusions.txt	LTP197	ltpFR	12	4	0	MECHANIC	884	n/a	n/a	1	n/a	0	0	0	n/a	n/a	n/a	n/a	n/a
1098.232	n/a	REC_WORD	549116	wordpools/wasnorm_wordpool_less_exclusions.txt	LTP197	ltpFR	12	4	1	PASSENGER	1020	n/a	n/a	1	n/a	0	0	0	n/a	n/a	n/a	n/a	n/a
1099.232	n/a	REC_WORD_VV	549616	wordpools/wasnorm_wordpool_less_exclusions.txt	LTP197	ltpFR	12	4	n/a	<>	-1	n/a	n/a	n/a	n/a	0	0	0	n/a	n/a	n/a	n/a	n/a
1100.626	n/a	REC_WORD	550313	wordpools/wasnorm_wordpool_less_exclusions.txt	LTP197	ltpFR	12	4	0	DRIVER	499	n/a	n/a	1	n/a	0	0	0	n/a	n/a	n/a	n/a	n/a
1158.926	n/a	WORD	579463	wordpools/wasnorm_wordpool_less_exclusions.txt	LTP197	ltpFR	12	5	0	WHISKERS	1605	n/a	n/a	0	n/a	0	0	0	0.422607421875	0.5869140625	0	upper	amplitud.ttf
1162.936	n/a	WORD	581468	wordpools/wasnorm_wordpool_less_exclusions.txt	LTP197	ltpFR	12	5	0	LOBSTER	837	n/a	n/a	0	n/a	0	0	0	0.422607421875	0.5869140625	0	upper	amplitud.ttf
1167.096	n/a	WORD	583548	wordpools/wasnorm_wordpool_less_exclusions.txt	LTP197	ltpFR	12	5	0	RASH	1167	n/a	n/a	0	n/a	0	0	0	0.422607421875	0.5869140625	0	upper	amplitud.ttf
1171.19	n/a	WORD	585595	wordpools/wasnorm_wordpool_less_exclusions.txt	LTP197	ltpFR	12	5	0	MONK	910	n/a	n/a	1	n/a	0	0	0	0.422607421875	0.5869140625	0	upper	amplitud.ttf
1175.234	n/a	WORD	587617	wordpools/wasnorm_wordpool_less_exclusions.txt	LTP197	ltpFR	12	5	0	LAPEL	800	n/a	n/a	0	n/a	0	0	0	0.422607421875	0.5869140625	0	upper	amplitud.ttf
1179.428	n/a	WORD	589714	wordpools/wasnorm_wordpool_less_exclusions.txt	LTP197	ltpFR	12	5	0	SUIT	1402	n/a	n/a	1	n/a	0	0	0	0.422607421875	0.5869140625	0	upper	amplitud.ttf
1183.34	n/a	WORD	591670	wordpools/wasnorm_wordpool_less_exclusions.txt	LTP197	ltpFR	12	5	0	TEMPLE	1448	n/a	n/a	1	n/a	0	0	0	0.422607421875	0.5869140625	0	upper	amplitud.ttf
1187.316	n/a	WORD	593658	wordpools/wasnorm_wordpool_less_exclusions.txt	LTP197	ltpFR	12	5	0	STABLE	1363	n/a	n/a	1	n/a	0	0	0	0.422607421875	0.5869140625	0	upper	amplitud.ttf
1191.362	n/a	WORD	595681	wordpools/wasnorm_wordpool_less_exclusions.txt	LTP197	ltpFR	12	5	0	APRON	35	n/a	n/a	1	n/a	0	0	0	0.422607421875	0.5869140625	0	upper	amplitud.ttf
1195.488	n/a	WORD	597744	wordpools/wasnorm_wordpool_less_exclusions.txt	LTP197	ltpFR	12	5	0	MOUNTAIN	924	n/a	n/a	1	n/a	0	0	0	0.422607421875	0.5869140625	0	upper	amplitud.ttf
1199.6	n/a	WORD	599800	wordpools/wasnorm_wordpool_less_exclusions.txt	LTP197	ltpFR	12	5	0	COUGAR	387	n/a	n/a	1	n/a	0	0	0	0.422607421875	0.5869140625	0	upper	amplitud.ttf
1203.676	n/a	WORD	601838	wordpools/wasnorm_wordpool_less_exclusions.txt	LTP197	ltpFR	12	5	0	RANCH	1166	n/a	n/a	1	n/a	0	0	0	0.422607421875	0.5869140625	0	upper	amplitud.ttf
1207.82	n/a	WORD	603910	wordpools/wasnorm_wordpool_less_exclusions.txt	LTP197	ltpFR	12	5	0	WAGON	1578	n/a	n/a	1	n/a	0	0	0	0.422607421875	0.5869140625	0	upper	amplitud.ttf
1211.664	n/a	WORD	605832	wordpools/wasnorm_wordpool_less_exclusions.txt	LTP197	ltpFR	12	5	0	HAY	693	n/a	n/a	0	n/a	0	0	0	0.422607421875	0.5869140625	0	upper	amplitud.ttf
1215.576	n/a	WORD	607788	wordpools/wasnorm_wordpool_less_exclusions.txt	LTP197	ltpFR	12	5	0	LUNCH	849	n/a	n/a	0	n/a	0	0	0	0.422607421875	0.5869140625	0	upper	amplitud.ttf
1219.786	n/a	WORD	609893	wordpools/wasnorm_wordpool_less_exclusions.txt	LTP197	ltpFR	12	5	0	PELICAN	1039	n/a	n/a	1	n/a	0	0	0	0.422607421875	0.5869140625	0	upper	amplitud.ttf
1222.798	n/a	START	611399	n/a	LTP197	ltpFR	12	n/a	n/a	n/a	n/a	n/a	n/a	n/a	n/a	n/a	n/a	n/a	n/a	n/a	n/a	n/a	n/a
1223.996	n/a	PROB	611998	n/a	LTP197	ltpFR	12	n/a	n/a	n/a	n/a	n/a	n/a	n/a	2	1	2	9	n/a	n/a	n/a	n/a	n/a
1225.594	n/a	PROB	612797	n/a	LTP197	ltpFR	12	n/a	n/a	n/a	n/a	n/a	n/a	n/a	10	1	7	2	n/a	n/a	n/a	n/a	n/a
1229.006	n/a	PROB	614503	n/a	LTP197	ltpFR	12	n/a	n/a	n/a	n/a	n/a	n/a	n/a	15	4	7	4	n/a	n/a	n/a	n/a	n/a
1230.518	n/a	PROB	615259	n/a	LTP197	ltpFR	12	n/a	n/a	n/a	n/a	n/a	n/a	n/a	13	2	8	3	n/a	n/a	n/a	n/a	n/a
1232.366	n/a	PROB	616183	n/a	LTP197	ltpFR	12	n/a	n/a	n/a	n/a	n/a	n/a	n/a	16	5	8	4	n/a	n/a	n/a	n/a	n/a
1235.396	n/a	PROB	617698	n/a	LTP197	ltpFR	12	n/a	n/a	n/a	n/a	n/a	n/a	n/a	17	9	7	1	n/a	n/a	n/a	n/a	n/a
1237.274	n/a	STOP	618637	n/a	LTP197	ltpFR	12	n/a	n/a	n/a	n/a	n/a	n/a	n/a	n/a	n/a	n/a	n/a	n/a	n/a	n/a	n/a	n/a
1240.672	n/a	REC_START	620336	n/a	LTP197	ltpFR	12	5	n/a	n/a	n/a	n/a	n/a	n/a	n/a	0	0	0	n/a	n/a	n/a	n/a	n/a
1243.04	n/a	REC_WORD	621520	wordpools/wasnorm_wordpool_less_exclusions.txt	LTP197	ltpFR	12	5	0	LUNCH	849	n/a	n/a	0	n/a	0	0	0	n/a	n/a	n/a	n/a	n/a
1243.784	n/a	REC_WORD	621892	wordpools/wasnorm_wordpool_less_exclusions.txt	LTP197	ltpFR	12	5	0	PELICAN	1039	n/a	n/a	1	n/a	0	0	0	n/a	n/a	n/a	n/a	n/a
1244.752	n/a	REC_WORD	622376	wordpools/wasnorm_wordpool_less_exclusions.txt	LTP197	ltpFR	12	5	0	COUGAR	387	n/a	n/a	1	n/a	0	0	0	n/a	n/a	n/a	n/a	n/a
1245.596	n/a	REC_WORD	622798	wordpools/wasnorm_wordpool_less_exclusions.txt	LTP197	ltpFR	12	5	0	WAGON	1578	n/a	n/a	1	n/a	0	0	0	n/a	n/a	n/a	n/a	n/a
1246.888	n/a	REC_WORD	623444	wordpools/wasnorm_wordpool_less_exclusions.txt	LTP197	ltpFR	12	5	0	STABLE	1363	n/a	n/a	1	n/a	0	0	0	n/a	n/a	n/a	n/a	n/a
1247.888	n/a	REC_WORD_VV	623944	wordpools/wasnorm_wordpool_less_exclusions.txt	LTP197	ltpFR	12	5	n/a	<>	-1	n/a	n/a	n/a	n/a	0	0	0	n/a	n/a	n/a	n/a	n/a
1248.104	n/a	REC_WORD	624052	wordpools/wasnorm_wordpool_less_exclusions.txt	LTP197	ltpFR	12	5	0	RANCH	1166	n/a	n/a	1	n/a	0	0	0	n/a	n/a	n/a	n/a	n/a
1248.948	n/a	REC_WORD	624474	wordpools/wasnorm_wordpool_less_exclusions.txt	LTP197	ltpFR	12	5	0	HAY	693	n/a	n/a	0	n/a	0	0	0	n/a	n/a	n/a	n/a	n/a
1249.86	n/a	REC_WORD	624930	wordpools/wasnorm_wordpool_less_exclusions.txt	LTP197	ltpFR	12	5	0	MOUNTAIN	924	n/a	n/a	1	n/a	0	0	0	n/a	n/a	n/a	n/a	n/a
1250.938	n/a	REC_WORD	625469	wordpools/wasnorm_wordpool_less_exclusions.txt	LTP197	ltpFR	12	5	0	TEMPLE	1448	n/a	n/a	1	n/a	0	0	0	n/a	n/a	n/a	n/a	n/a
1253.142	n/a	REC_WORD	626571	wordpools/wasnorm_wordpool_less_exclusions.txt	LTP197	ltpFR	12	5	0	MONK	910	n/a	n/a	1	n/a	0	0	0	n/a	n/a	n/a	n/a	n/a
1253.772	n/a	REC_WORD	626886	wordpools/wasnorm_wordpool_less_exclusions.txt	LTP197	ltpFR	12	5	0	SUIT	1402	n/a	n/a	1	n/a	0	0	0	n/a	n/a	n/a	n/a	n/a
1254.39	n/a	REC_WORD	627195	wordpools/wasnorm_wordpool_less_exclusions.txt	LTP197	ltpFR	12	5	0	LAPEL	800	n/a	n/a	0	n/a	0	0	0	n/a	n/a	n/a	n/a	n/a
1257.218	n/a	REC_WORD	628609	wordpools/wasnorm_wordpool_less_exclusions.txt	LTP197	ltpFR	12	5	0	LOBSTER	837	n/a	n/a	0	n/a	0	0	0	n/a	n/a	n/a	n/a	n/a
1258.042	n/a	REC_WORD	629021	wordpools/wasnorm_wordpool_less_exclusions.txt	LTP197	ltpFR	12	5	0	WHISKERS	1605	n/a	n/a	0	n/a	0	0	0	n/a	n/a	n/a	n/a	n/a
1259.042	n/a	REC_WORD_VV	629521	wordpools/wasnorm_wordpool_less_exclusions.txt	LTP197	ltpFR	12	5	n/a	<>	-1	n/a	n/a	n/a	n/a	0	0	0	n/a	n/a	n/a	n/a	n/a
1259.908	n/a	REC_WORD	629954	wordpools/wasnorm_wordpool_less_exclusions.txt	LTP197	ltpFR	12	5	0	RASH	1167	n/a	n/a	0	n/a	0	0	0	n/a	n/a	n/a	n/a	n/a
1319.486	n/a	WORD	659743	wordpools/wasnorm_wordpool_less_exclusions.txt	LTP197	ltpFR	12	6	1	BANQUET	86	n/a	n/a	0	n/a	0	0	0	0.57763671875	0.412841796875	1	lower	zerothre.ttf
1323.398	n/a	WORD	661699	wordpools/wasnorm_wordpool_less_exclusions.txt	LTP197	ltpFR	12	6	1	SENATE	1267	n/a	n/a	0	n/a	0	0	0	0.57763671875	0.412841796875	1	lower	zerothre.ttf
1327.242	n/a	WORD	663621	wordpools/wasnorm_wordpool_less_exclusions.txt	LTP197	ltpFR	12	6	1	SALT	1229	n/a	n/a	0	n/a	0	0	0	0.57763671875	0.412841796875	1	lower	zerothre.ttf
1331.138	n/a	WORD	665569	wordpools/wasnorm_wordpool_less_exclusions.txt	LTP197	ltpFR	12	6	1	FISH	571	n/a	n/a	1	n/a	0	0	0	0.57763671875	0.412841796875	1	lower	zerothre.ttf
1335.282	n/a	WORD	667641	wordpools/wasnorm_wordpool_less_exclusions.txt	LTP197	ltpFR	12	6	1	OCEAN	970	n/a	n/a	1	n/a	0	0	0	0.57763671875	0.412841796875	1	lower	zerothre.ttf
1339.242	n/a	WORD	669621	wordpools/wasnorm_wordpool_less_exclusions.txt	LTP197	ltpFR	12	6	1	MEADOW	881	n/a	n/a	1	n/a	0	0	0	0.57763671875	0.412841796875	1	lower	zerothre.ttf
1343.186	n/a	WORD	671593	wordpools/wasnorm_wordpool_less_exclusions.txt	LTP197	ltpFR	12	6	1	WILDERNESS	1610	n/a	n/a	1	n/a	0	0	0	0.57763671875	0.412841796875	1	lower	zerothre.ttf
1347.214	n/a	WORD	673607	wordpools/wasnorm_wordpool_less_exclusions.txt	LTP197	ltpFR	12	6	1	WHEAT	1602	n/a	n/a	1	n/a	0	0	0	0.57763671875	0.412841796875	1	lower	zerothre.ttf
1351.074	n/a	WORD	675537	wordpools/wasnorm_wordpool_less_exclusions.txt	LTP197	ltpFR	12	6	1	TOENAIL	1474	n/a	n/a	0	n/a	0	0	0	0.57763671875	0.412841796875	1	lower	zerothre.ttf
1354.92	n/a	WORD	677460	wordpools/wasnorm_wordpool_less_exclusions.txt	LTP197	ltpFR	12	6	1	QUAIL	1147	n/a	n/a	1	n/a	0	0	0	0.57763671875	0.412841796875	1	lower	zerothre.ttf
1358.896	n/a	WORD	679448	wordpools/wasnorm_wordpool_less_exclusions.txt	LTP197	ltpFR	12	6	1	FAUCET	555	n/a	n/a	0	n/a	0	0	0	0.57763671875	0.412841796875	1	lower	zerothre.ttf
1362.758	n/a	WORD	681379	wordpools/wasnorm_wordpool_less_exclusions.txt	LTP197	ltpFR	12	6	1	LAGOON	795	n/a	n/a	0	n/a	0	0	0	0.57763671875	0.412841796875	1	lower	zerothre.ttf
1366.652	n/a	WORD	683326	wordpools/wasnorm_wordpool_less_exclusions.txt	LTP197	ltpFR	12	6	1	WAITER	1580	n/a	n/a	1	n/a	0	0	0	0.57763671875	0.412841796875	1	lower	zerothre.ttf
1370.512	n/a	WORD	685256	wordpools/wasnorm_wordpool_less_exclusions.txt	LTP197	ltpFR	12	6	1	PACKAGE	997	n/a	n/a	0	n/a	0	0	0	0.57763671875	0.412841796875	1	lower	zerothre.ttf
1374.59	n/a	WORD	687295	wordpools/wasnorm_wordpool_less_exclusions.txt	LTP197	ltpFR	12	6	1	HANGER	687	n/a	n/a	0	n/a	0	0	0	0.57763671875	0.412841796875	1	lower	zerothre.ttf
1378.784	n/a	WORD	689392	wordpools/wasnorm_wordpool_less_exclusions.txt	LTP197	ltpFR	12	6	1	PARROT	1015	n/a	n/a	1	n/a	0	0	0	0.57763671875	0.412841796875	1	lower	zerothre.ttf
1381.796	n/a	START	690898	n/a	LTP197	ltpFR	12	n/a	n/a	n/a	n/a	n/a	n/a	n/a	n/a	n/a	n/a	n/a	n/a	n/a	n/a	n/a	n/a
1382.744	n/a	PROB	691372	n/a	LTP197	ltpFR	12	n/a	n/a	n/a	n/a	n/a	n/a	n/a	9	3	1	5	n/a	n/a	n/a	n/a	n/a
1384.442	n/a	PROB	692221	n/a	LTP197	ltpFR	12	n/a	n/a	n/a	n/a	n/a	n/a	n/a	23	8	8	7	n/a	n/a	n/a	n/a	n/a
1386.238	n/a	PROB	693119	n/a	LTP197	ltpFR	12	n/a	n/a	n/a	n/a	n/a	n/a	n/a	16	4	7	5	n/a	n/a	n/a	n/a	n/a
1388.036	n/a	PROB	694018	n/a	LTP197	ltpFR	12	n/a	n/a	n/a	n/a	n/a	n/a	n/a	19	9	6	4	n/a	n/a	n/a	n/a	n/a
1389.38	n/a	STOP	694690	n/a	LTP197	ltpFR	12	n/a	n/a	n/a	n/a	n/a	n/a	n/a	n/a	n/a	n/a	n/a	n/a	n/a	n/a	n/a	n/a
1391.714	n/a	REC_START	695857	n/a	LTP197	ltpFR	12	6	n/a	n/a	n/a	n/a	n/a	n/a	n/a	0	0	0	n/a	n/a	n/a	n/a	n/a
1392.702	n/a	REC_WORD	696351	wordpools/wasnorm_wordpool_less_exclusions.txt	LTP197	ltpFR	12	6	1	HANGER	687	n/a	n/a	0	n/a	0	0	0	n/a	n/a	n/a	n/a	n/a
1393.46	n/a	REC_WORD	696730	wordpools/wasnorm_wordpool_less_exclusions.txt	LTP197	ltpFR	12	6	1	PARROT	1015	n/a	n/a	1	n/a	0	0	0	n/a	n/a	n/a	n/a	n/a
1394.268	n/a	REC_WORD	697134	wordpools/wasnorm_wordpool_less_exclusions.txt	LTP197	ltpFR	12	6	1	PACKAGE	997	n/a	n/a	0	n/a	0	0	0	n/a	n/a	n/a	n/a	n/a
1395.042	n/a	REC_WORD	697521	wordpools/wasnorm_wordpool_less_exclusions.txt	LTP197	ltpFR	12	6	1	WAITER	1580	n/a	n/a	1	n/a	0	0	0	n/a	n/a	n/a	n/a	n/a
1395.944	n/a	REC_WORD	697972	wordpools/wasnorm_wordpool_less_exclusions.txt	LTP197	ltpFR	12	6	1	LAGOON	795	n/a	n/a	0	n/a	0	0	0	n/a	n/a	n/a	n/a	n/a
1397.586	n/a	REC_WORD	698793	wordpools/wasnorm_wordpool_less_exclusions.txt	LTP197	ltpFR	12	6	1	TOENAIL	1474	n/a	n/a	0	n/a	0	0	0	n/a	n/a	n/a	n/a	n/a
1398.154	n/a	REC_WORD	699077	wordpools/wasnorm_wordpool_less_exclusions.txt	LTP197	ltpFR	12	6	1	FAUCET	555	n/a	n/a	0	n/a	0	0	0	n/a	n/a	n/a	n/a	n/a
1400.454	n/a	REC_WORD	700227	wordpools/wasnorm_wordpool_less_exclusions.txt	LTP197	ltpFR	12	6	1	BANQUET	86	n/a	n/a	0	n/a	0	0	0	n/a	n/a	n/a	n/a	n/a
1401.104	n/a	REC_WORD	700552	wordpools/wasnorm_wordpool_less_exclusions.txt	LTP197	ltpFR	12	6	1	SENATE	1267	n/a	n/a	0	n/a	0	0	0	n/a	n/a	n/a	n/a	n/a
1402.436	n/a	REC_WORD	701218	wordpools/wasnorm_wordpool_less_exclusions.txt	LTP197	ltpFR	12	6	1	SALT	1229	n/a	n/a	0	n/a	0	0	0	n/a	n/a	n/a	n/a	n/a
1403.124	n/a	REC_WORD	701562	wordpools/wasnorm_wordpool_less_exclusions.txt	LTP197	ltpFR	12	6	1	FISH	571	n/a	n/a	1	n/a	0	0	0	n/a	n/a	n/a	n/a	n/a
1405.074	n/a	REC_WORD	702537	wordpools/wasnorm_wordpool_less_exclusions.txt	LTP197	ltpFR	12	6	1	OCEAN	970	n/a	n/a	1	n/a	0	0	0	n/a	n/a	n/a	n/a	n/a
1406.152	n/a	REC_WORD	703076	wordpools/wasnorm_wordpool_less_exclusions.txt	LTP197	ltpFR	12	6	1	MEADOW	881	n/a	n/a	1	n/a	0	0	0	n/a	n/a	n/a	n/a	n/a
1406.866	n/a	REC_WORD	703433	wordpools/wasnorm_wordpool_less_exclusions.txt	LTP197	ltpFR	12	6	1	WILDERNESS	1610	n/a	n/a	1	n/a	0	0	0	n/a	n/a	n/a	n/a	n/a
1407.964	n/a	REC_WORD	703982	wordpools/wasnorm_wordpool_less_exclusions.txt	LTP197	ltpFR	12	6	1	WHEAT	1602	n/a	n/a	1	n/a	0	0	0	n/a	n/a	n/a	n/a	n/a
1468.466	n/a	START	734233	n/a	LTP197	ltpFR	12	n/a	n/a	n/a	n/a	n/a	n/a	n/a	n/a	n/a	n/a	n/a	n/a	n/a	n/a	n/a	n/a
1469.982	n/a	PROB	734991	n/a	LTP197	ltpFR	12	n/a	n/a	n/a	n/a	n/a	n/a	n/a	16	6	3	7	n/a	n/a	n/a	n/a	n/a
1471.512	n/a	PROB	735756	n/a	LTP197	ltpFR	12	n/a	n/a	n/a	n/a	n/a	n/a	n/a	13	2	2	9	n/a	n/a	n/a	n/a	n/a
1472.944	n/a	PROB	736472	n/a	LTP197	ltpFR	12	n/a	n/a	n/a	n/a	n/a	n/a	n/a	8	3	1	4	n/a	n/a	n/a	n/a	n/a
1474.426	n/a	PROB	737213	n/a	LTP197	ltpFR	12	n/a	n/a	n/a	n/a	n/a	n/a	n/a	19	7	7	5	n/a	n/a	n/a	n/a	n/a
1475.956	n/a	PROB	737978	n/a	LTP197	ltpFR	12	n/a	n/a	n/a	n/a	n/a	n/a	n/a	8	4	3	1	n/a	n/a	n/a	n/a	n/a
1477.354	n/a	PROB	738677	n/a	LTP197	ltpFR	12	n/a	n/a	n/a	n/a	n/a	n/a	n/a	9	1	5	3	n/a	n/a	n/a	n/a	n/a
1478.92	n/a	PROB	739460	n/a	LTP197	ltpFR	12	n/a	n/a	n/a	n/a	n/a	n/a	n/a	19	9	6	4	n/a	n/a	n/a	n/a	n/a
1480.234	n/a	PROB	740117	n/a	LTP197	ltpFR	12	n/a	n/a	n/a	n/a	n/a	n/a	n/a	22	8	6	8	n/a	n/a	n/a	n/a	n/a
1481.948	n/a	PROB	740974	n/a	LTP197	ltpFR	12	n/a	n/a	n/a	n/a	n/a	n/a	n/a	15	3	5	7	n/a	n/a	n/a	n/a	n/a
1484.062	n/a	STOP	742031	n/a	LTP197	ltpFR	12	n/a	n/a	n/a	n/a	n/a	n/a	n/a	n/a	n/a	n/a	n/a	n/a	n/a	n/a	n/a	n/a
1485.61	n/a	WORD	742805	wordpools/wasnorm_wordpool_less_exclusions.txt	LTP197	ltpFR	12	7	0	SEAFOOD	1260	n/a	n/a	0	n/a	0	0	0	0.422607421875	0.5869140625	0	upper	amplitud.ttf
1488.622	n/a	START	744311	n/a	LTP197	ltpFR	12	n/a	n/a	n/a	n/a	n/a	n/a	n/a	n/a	n/a	n/a	n/a	n/a	n/a	n/a	n/a	n/a
1489.802	n/a	PROB	744901	n/a	LTP197	ltpFR	12	n/a	n/a	n/a	n/a	n/a	n/a	n/a	9	2	5	2	n/a	n/a	n/a	n/a	n/a
1491.784	n/a	PROB	745892	n/a	LTP197	ltpFR	12	n/a	n/a	n/a	n/a	n/a	n/a	n/a	11	2	8	1	n/a	n/a	n/a	n/a	n/a
1493.896	n/a	PROB	746948	n/a	LTP197	ltpFR	12	n/a	n/a	n/a	n/a	n/a	n/a	n/a	9	4	1	4	n/a	n/a	n/a	n/a	n/a
1495.312	n/a	PROB	747656	n/a	LTP197	ltpFR	12	n/a	n/a	n/a	n/a	n/a	n/a	n/a	15	2	4	9	n/a	n/a	n/a	n/a	n/a
1497.258	n/a	PROB	748629	n/a	LTP197	ltpFR	12	n/a	n/a	n/a	n/a	n/a	n/a	n/a	22	9	4	9	n/a	n/a	n/a	n/a	n/a
1499.488	n/a	PROB	749744	n/a	LTP197	ltpFR	12	n/a	n/a	n/a	n/a	n/a	n/a	n/a	10	4	3	3	n/a	n/a	n/a	n/a	n/a
1502.084	n/a	PROB	751042	n/a	LTP197	ltpFR	12	n/a	n/a	n/a	n/a	n/a	n/a	n/a	10	6	2	2	n/a	n/a	n/a	n/a	n/a
1503.846	n/a	STOP	751923	n/a	LTP197	ltpFR	12	n/a	n/a	n/a	n/a	n/a	n/a	n/a	n/a	n/a	n/a	n/a	n/a	n/a	n/a	n/a	n/a
1505.812	n/a	WORD	752906	wordpools/wasnorm_wordpool_less_exclusions.txt	LTP197	ltpFR	12	7	0	SCALLOP	1242	n/a	n/a	0	n/a	0	0	0	0.422607421875	0.5869140625	0	upper	amplitud.ttf
1508.826	n/a	START	754413	n/a	LTP197	ltpFR	12	n/a	n/a	n/a	n/a	n/a	n/a	n/a	n/a	n/a	n/a	n/a	n/a	n/a	n/a	n/a	n/a
1509.824	n/a	PROB	754912	n/a	LTP197	ltpFR	12	n/a	n/a	n/a	n/a	n/a	n/a	n/a	20	3	9	8	n/a	n/a	n/a	n/a	n/a
1511.486	n/a	PROB	755743	n/a	LTP197	ltpFR	12	n/a	n/a	n/a	n/a	n/a	n/a	n/a	20	8	8	4	n/a	n/a	n/a	n/a	n/a
1513.084	n/a	PROB	756542	n/a	LTP197	ltpFR	12	n/a	n/a	n/a	n/a	n/a	n/a	n/a	15	6	5	4	n/a	n/a	n/a	n/a	n/a
1514.966	n/a	PROB	757483	n/a	LTP197	ltpFR	12	n/a	n/a	n/a	n/a	n/a	n/a	n/a	23	5	9	9	n/a	n/a	n/a	n/a	n/a
1517.346	n/a	PROB	758673	n/a	LTP197	ltpFR	12	n/a	n/a	n/a	n/a	n/a	n/a	n/a	8	3	2	3	n/a	n/a	n/a	n/a	n/a
1519.442	n/a	PROB	759721	n/a	LTP197	ltpFR	12	n/a	n/a	n/a	n/a	n/a	n/a	n/a	23	7	9	7	n/a	n/a	n/a	n/a	n/a
1521.322	n/a	PROB	760661	n/a	LTP197	ltpFR	12	n/a	n/a	n/a	n/a	n/a	n/a	n/a	16	4	4	8	n/a	n/a	n/a	n/a	n/a
1522.704	n/a	PROB	761352	n/a	LTP197	ltpFR	12	n/a	n/a	n/a	n/a	n/a	n/a	n/a	12	4	6	2	n/a	n/a	n/a	n/a	n/a
1524.742	n/a	STOP	762371	n/a	LTP197	ltpFR	12	n/a	n/a	n/a	n/a	n/a	n/a	n/a	n/a	n/a	n/a	n/a	n/a	n/a	n/a	n/a	n/a
1525.682	n/a	WORD	762841	wordpools/wasnorm_wordpool_less_exclusions.txt	LTP197	ltpFR	12	7	0	SPY	1360	n/a	n/a	1	n/a	0	0	0	0.422607421875	0.5869140625	0	upper	amplitud.ttf
1528.696	n/a	START	764348	n/a	LTP197	ltpFR	12	n/a	n/a	n/a	n/a	n/a	n/a	n/a	n/a	n/a	n/a	n/a	n/a	n/a	n/a	n/a	n/a
1529.526	n/a	PROB	764763	n/a	LTP197	ltpFR	12	n/a	n/a	n/a	n/a	n/a	n/a	n/a	13	1	8	4	n/a	n/a	n/a	n/a	n/a
1531.59	n/a	PROB	765795	n/a	LTP197	ltpFR	12	n/a	n/a	n/a	n/a	n/a	n/a	n/a	12	1	6	5	n/a	n/a	n/a	n/a	n/a
1533.82	n/a	PROB	766910	n/a	LTP197	ltpFR	12	n/a	n/a	n/a	n/a	n/a	n/a	n/a	16	5	4	7	n/a	n/a	n/a	n/a	n/a
1535.584	n/a	PROB	767792	n/a	LTP197	ltpFR	12	n/a	n/a	n/a	n/a	n/a	n/a	n/a	16	4	6	6	n/a	n/a	n/a	n/a	n/a
1537.098	n/a	PROB	768549	n/a	LTP197	ltpFR	12	n/a	n/a	n/a	n/a	n/a	n/a	n/a	8	4	2	2	n/a	n/a	n/a	n/a	n/a
1538.912	n/a	PROB	769456	n/a	LTP197	ltpFR	12	n/a	n/a	n/a	n/a	n/a	n/a	n/a	17	8	1	8	n/a	n/a	n/a	n/a	n/a
1540.944	n/a	PROB	770472	n/a	LTP197	ltpFR	12	n/a	n/a	n/a	n/a	n/a	n/a	n/a	13	1	4	8	n/a	n/a	n/a	n/a	n/a
1542.392	n/a	PROB	771196	n/a	LTP197	ltpFR	12	n/a	n/a	n/a	n/a	n/a	n/a	n/a	5	1	3	1	n/a	n/a	n/a	n/a	n/a
1543.454	n/a	STOP	771727	n/a	LTP197	ltpFR	12	n/a	n/a	n/a	n/a	n/a	n/a	n/a	n/a	n/a	n/a	n/a	n/a	n/a	n/a	n/a	n/a
1545.82	n/a	WORD	772910	wordpools/wasnorm_wordpool_less_exclusions.txt	LTP197	ltpFR	12	7	0	CYLINDER	432	n/a	n/a	0	n/a	0	0	0	0.422607421875	0.5869140625	0	upper	amplitud.ttf
1548.85	n/a	START	774425	n/a	LTP197	ltpFR	12	n/a	n/a	n/a	n/a	n/a	n/a	n/a	n/a	n/a	n/a	n/a	n/a	n/a	n/a	n/a	n/a
1549.88	n/a	PROB	774940	n/a	LTP197	ltpFR	12	n/a	n/a	n/a	n/a	n/a	n/a	n/a	19	4	7	8	n/a	n/a	n/a	n/a	n/a
1552.66	n/a	PROB	776330	n/a	LTP197	ltpFR	12	n/a	n/a	n/a	n/a	n/a	n/a	n/a	9	3	3	3	n/a	n/a	n/a	n/a	n/a
1554.008	n/a	PROB	777004	n/a	LTP197	ltpFR	12	n/a	n/a	n/a	n/a	n/a	n/a	n/a	12	2	9	1	n/a	n/a	n/a	n/a	n/a
1555.356	n/a	PROB	777678	n/a	LTP197	ltpFR	12	n/a	n/a	n/a	n/a	n/a	n/a	n/a	14	6	1	7	n/a	n/a	n/a	n/a	n/a
1556.838	n/a	PROB	778419	n/a	LTP197	ltpFR	12	n/a	n/a	n/a	n/a	n/a	n/a	n/a	20	7	4	9	n/a	n/a	n/a	n/a	n/a
1558.618	n/a	PROB	779309	n/a	LTP197	ltpFR	12	n/a	n/a	n/a	n/a	n/a	n/a	n/a	10	4	1	5	n/a	n/a	n/a	n/a	n/a
1560.032	n/a	PROB	780016	n/a	LTP197	ltpFR	12	n/a	n/a	n/a	n/a	n/a	n/a	n/a	7	3	3	4	n/a	n/a	n/a	n/a	n/a
1561.896	n/a	PROB	780948	n/a	LTP197	ltpFR	12	n/a	n/a	n/a	n/a	n/a	n/a	n/a	19	9	2	8	n/a	n/a	n/a	n/a	n/a
1563.83	n/a	STOP	781915	n/a	LTP197	ltpFR	12	n/a	n/a	n/a	n/a	n/a	n/a	n/a	n/a	n/a	n/a	n/a	n/a	n/a	n/a	n/a	n/a
1566.056	n/a	WORD	783028	wordpools/wasnorm_wordpool_less_exclusions.txt	LTP197	ltpFR	12	7	0	ATHLETE	52	n/a	n/a	1	n/a	0	0	0	0.422607421875	0.5869140625	0	upper	amplitud.ttf
1569.07	n/a	START	784535	n/a	LTP197	ltpFR	12	n/a	n/a	n/a	n/a	n/a	n/a	n/a	n/a	n/a	n/a	n/a	n/a	n/a	n/a	n/a	n/a
1570.134	n/a	PROB	785067	n/a	LTP197	ltpFR	12	n/a	n/a	n/a	n/a	n/a	n/a	n/a	19	8	8	3	n/a	n/a	n/a	n/a	n/a
1572.08	n/a	PROB	786040	n/a	LTP197	ltpFR	12	n/a	n/a	n/a	n/a	n/a	n/a	n/a	7	3	3	1	n/a	n/a	n/a	n/a	n/a
1573.778	n/a	PROB	786889	n/a	LTP197	ltpFR	12	n/a	n/a	n/a	n/a	n/a	n/a	n/a	21	9	7	5	n/a	n/a	n/a	n/a	n/a
1576.076	n/a	PROB	788038	n/a	LTP197	ltpFR	12	n/a	n/a	n/a	n/a	n/a	n/a	n/a	11	5	5	1	n/a	n/a	n/a	n/a	n/a
1577.306	n/a	PROB	788653	n/a	LTP197	ltpFR	12	n/a	n/a	n/a	n/a	n/a	n/a	n/a	19	1	9	9	n/a	n/a	n/a	n/a	n/a
1579.054	n/a	PROB	789527	n/a	LTP197	ltpFR	12	n/a	n/a	n/a	n/a	n/a	n/a	n/a	17	4	4	9	n/a	n/a	n/a	n/a	n/a
1580.752	n/a	PROB	790376	n/a	LTP197	ltpFR	12	n/a	n/a	n/a	n/a	n/a	n/a	n/a	14	2	8	4	n/a	n/a	n/a	n/a	n/a
1582.432	n/a	PROB	791216	n/a	LTP197	ltpFR	12	n/a	n/a	n/a	n/a	n/a	n/a	n/a	10	2	7	1	n/a	n/a	n/a	n/a	n/a
1584.886	n/a	STOP	792443	n/a	LTP197	ltpFR	12	n/a	n/a	n/a	n/a	n/a	n/a	n/a	n/a	n/a	n/a	n/a	n/a	n/a	n/a	n/a	n/a
1586.244	n/a	WORD	793122	wordpools/wasnorm_wordpool_less_exclusions.txt	LTP197	ltpFR	12	7	1	ORCHESTRA	981	n/a	n/a	1	n/a	0	0	0	0.57763671875	0.412841796875	1	lower	zerothre.ttf
1589.256	n/a	START	794628	n/a	LTP197	ltpFR	12	n/a	n/a	n/a	n/a	n/a	n/a	n/a	n/a	n/a	n/a	n/a	n/a	n/a	n/a	n/a	n/a
1590.338	n/a	PROB	795169	n/a	LTP197	ltpFR	12	n/a	n/a	n/a	n/a	n/a	n/a	n/a	24	9	8	7	n/a	n/a	n/a	n/a	n/a
1594.348	n/a	PROB	797174	n/a	LTP197	ltpFR	12	n/a	n/a	n/a	n/a	n/a	n/a	n/a	16	6	8	2	n/a	n/a	n/a	n/a	n/a
1595.696	n/a	PROB	797848	n/a	LTP197	ltpFR	12	n/a	n/a	n/a	n/a	n/a	n/a	n/a	14	7	3	4	n/a	n/a	n/a	n/a	n/a
1597.86	n/a	PROB	798930	n/a	LTP197	ltpFR	12	n/a	n/a	n/a	n/a	n/a	n/a	n/a	19	9	2	8	n/a	n/a	n/a	n/a	n/a
1599.706	n/a	PROB	799853	n/a	LTP197	ltpFR	12	n/a	n/a	n/a	n/a	n/a	n/a	n/a	17	8	6	3	n/a	n/a	n/a	n/a	n/a
1601.586	n/a	PROB	800793	n/a	LTP197	ltpFR	12	n/a	n/a	n/a	n/a	n/a	n/a	n/a	12	8	3	1	n/a	n/a	n/a	n/a	n/a
1603.234	n/a	PROB	801617	n/a	LTP197	ltpFR	12	n/a	n/a	n/a	n/a	n/a	n/a	n/a	14	5	6	3	n/a	n/a	n/a	n/a	n/a
1604.718	n/a	STOP	802359	n/a	LTP197	ltpFR	12	n/a	n/a	n/a	n/a	n/a	n/a	n/a	n/a	n/a	n/a	n/a	n/a	n/a	n/a	n/a	n/a
1606.314	n/a	WORD	803157	wordpools/wasnorm_wordpool_less_exclusions.txt	LTP197	ltpFR	12	7	1	COCOON	339	n/a	n/a	0	n/a	0	0	0	0.57763671875	0.412841796875	1	lower	zerothre.ttf
1609.326	n/a	START	804663	n/a	LTP197	ltpFR	12	n/a	n/a	n/a	n/a	n/a	n/a	n/a	n/a	n/a	n/a	n/a	n/a	n/a	n/a	n/a	n/a
1610.14	n/a	PROB	805070	n/a	LTP197	ltpFR	12	n/a	n/a	n/a	n/a	n/a	n/a	n/a	19	7	3	9	n/a	n/a	n/a	n/a	n/a
1611.922	n/a	PROB	805961	n/a	LTP197	ltpFR	12	n/a	n/a	n/a	n/a	n/a	n/a	n/a	26	7	8	9	n/a	n/a	n/a	n/a	n/a
1614.618	n/a	PROB	807309	n/a	LTP197	ltpFR	12	n/a	n/a	n/a	n/a	n/a	n/a	n/a	13	7	3	3	n/a	n/a	n/a	n/a	n/a
1616.464	n/a	PROB	808232	n/a	LTP197	ltpFR	12	n/a	n/a	n/a	n/a	n/a	n/a	n/a	15	7	2	6	n/a	n/a	n/a	n/a	n/a
1618.196	n/a	PROB	809098	n/a	LTP197	ltpFR	12	n/a	n/a	n/a	n/a	n/a	n/a	n/a	9	1	5	3	n/a	n/a	n/a	n/a	n/a
1619.86	n/a	PROB	809930	n/a	LTP197	ltpFR	12	n/a	n/a	n/a	n/a	n/a	n/a	n/a	23	7	8	8	n/a	n/a	n/a	n/a	n/a
1622.14	n/a	PROB	811070	n/a	LTP197	ltpFR	12	n/a	n/a	n/a	n/a	n/a	n/a	n/a	15	6	7	2	n/a	n/a	n/a	n/a	n/a
1625.326	n/a	STOP	812663	n/a	LTP197	ltpFR	12	n/a	n/a	n/a	n/a	n/a	n/a	n/a	n/a	n/a	n/a	n/a	n/a	n/a	n/a	n/a	n/a
1626.466	n/a	WORD	813233	wordpools/wasnorm_wordpool_less_exclusions.txt	LTP197	ltpFR	12	7	0	COWBOY	395	n/a	n/a	1	n/a	0	0	0	0.422607421875	0.5869140625	0	upper	amplitud.ttf
1629.48	n/a	START	814740	n/a	LTP197	ltpFR	12	n/a	n/a	n/a	n/a	n/a	n/a	n/a	n/a	n/a	n/a	n/a	n/a	n/a	n/a	n/a	n/a
1630.562	n/a	PROB	815281	n/a	LTP197	ltpFR	12	n/a	n/a	n/a	n/a	n/a	n/a	n/a	14	1	7	6	n/a	n/a	n/a	n/a	n/a
1632.742	n/a	PROB	816371	n/a	LTP197	ltpFR	12	n/a	n/a	n/a	n/a	n/a	n/a	n/a	13	3	9	1	n/a	n/a	n/a	n/a	n/a
1634.172	n/a	PROB	817086	n/a	LTP197	ltpFR	12	n/a	n/a	n/a	n/a	n/a	n/a	n/a	19	9	8	2	n/a	n/a	n/a	n/a	n/a
1635.886	n/a	PROB	817943	n/a	LTP197	ltpFR	12	n/a	n/a	n/a	n/a	n/a	n/a	n/a	10	1	3	6	n/a	n/a	n/a	n/a	n/a
1637.868	n/a	PROB	818934	n/a	LTP197	ltpFR	12	n/a	n/a	n/a	n/a	n/a	n/a	n/a	13	8	1	4	n/a	n/a	n/a	n/a	n/a
1639.53	n/a	PROB	819765	n/a	LTP197	ltpFR	12	n/a	n/a	n/a	n/a	n/a	n/a	n/a	23	9	8	4	n/a	n/a	n/a	n/a	n/a
1641.612	n/a	PROB	820806	n/a	LTP197	ltpFR	12	n/a	n/a	n/a	n/a	n/a	n/a	n/a	7	1	3	3	n/a	n/a	n/a	n/a	n/a
1643.376	n/a	PROB	821688	n/a	LTP197	ltpFR	12	n/a	n/a	n/a	n/a	n/a	n/a	n/a	8	2	3	3	n/a	n/a	n/a	n/a	n/a
1645.352	n/a	STOP	822676	n/a	LTP197	ltpFR	12	n/a	n/a	n/a	n/a	n/a	n/a	n/a	n/a	n/a	n/a	n/a	n/a	n/a	n/a	n/a	n/a
1646.67	n/a	WORD	823335	wordpools/wasnorm_wordpool_less_exclusions.txt	LTP197	ltpFR	12	7	0	PRODUCER	1129	n/a	n/a	1	n/a	0	0	0	0.422607421875	0.5869140625	0	upper	amplitud.ttf
1649.684	n/a	START	824842	n/a	LTP197	ltpFR	12	n/a	n/a	n/a	n/a	n/a	n/a	n/a	n/a	n/a	n/a	n/a	n/a	n/a	n/a	n/a	n/a
1650.614	n/a	PROB	825307	n/a	LTP197	ltpFR	12	n/a	n/a	n/a	n/a	n/a	n/a	n/a	16	4	3	9	n/a	n/a	n/a	n/a	n/a
1652.13	n/a	PROB	826065	n/a	LTP197	ltpFR	12	n/a	n/a	n/a	n/a	n/a	n/a	n/a	14	5	2	7	n/a	n/a	n/a	n/a	n/a
1654.126	n/a	PROB	827063	n/a	LTP197	ltpFR	12	n/a	n/a	n/a	n/a	n/a	n/a	n/a	18	7	8	3	n/a	n/a	n/a	n/a	n/a
1655.874	n/a	PROB	827937	n/a	LTP197	ltpFR	12	n/a	n/a	n/a	n/a	n/a	n/a	n/a	11	6	4	1	n/a	n/a	n/a	n/a	n/a
1657.222	n/a	PROB	828611	n/a	LTP197	ltpFR	12	n/a	n/a	n/a	n/a	n/a	n/a	n/a	8	3	2	3	n/a	n/a	n/a	n/a	n/a
1659.052	n/a	PROB	829526	n/a	LTP197	ltpFR	12	n/a	n/a	n/a	n/a	n/a	n/a	n/a	12	6	2	4	n/a	n/a	n/a	n/a	n/a
1660.65	n/a	PROB	830325	n/a	LTP197	ltpFR	12	n/a	n/a	n/a	n/a	n/a	n/a	n/a	10	3	5	2	n/a	n/a	n/a	n/a	n/a
1662.18	n/a	PROB	831090	n/a	LTP197	ltpFR	12	n/a	n/a	n/a	n/a	n/a	n/a	n/a	12	4	7	1	n/a	n/a	n/a	n/a	n/a
1665.684	n/a	STOP	832842	n/a	LTP197	ltpFR	12	n/a	n/a	n/a	n/a	n/a	n/a	n/a	n/a	n/a	n/a	n/a	n/a	n/a	n/a	n/a	n/a
1666.658	n/a	WORD	833329	wordpools/wasnorm_wordpool_less_exclusions.txt	LTP197	ltpFR	12	7	0	ANTEATER	26	n/a	n/a	1	n/a	0	0	0	0.422607421875	0.5869140625	0	upper	amplitud.ttf
1669.67	n/a	START	834835	n/a	LTP197	ltpFR	12	n/a	n/a	n/a	n/a	n/a	n/a	n/a	n/a	n/a	n/a	n/a	n/a	n/a	n/a	n/a	n/a
1670.852	n/a	PROB	835426	n/a	LTP197	ltpFR	12	n/a	n/a	n/a	n/a	n/a	n/a	n/a	13	6	5	2	n/a	n/a	n/a	n/a	n/a
1672.482	n/a	PROB	836241	n/a	LTP197	ltpFR	12	n/a	n/a	n/a	n/a	n/a	n/a	n/a	14	5	6	3	n/a	n/a	n/a	n/a	n/a
1674.046	n/a	PROB	837023	n/a	LTP197	ltpFR	12	n/a	n/a	n/a	n/a	n/a	n/a	n/a	17	5	7	5	n/a	n/a	n/a	n/a	n/a
1676.01	n/a	PROB	838005	n/a	LTP197	ltpFR	12	n/a	n/a	n/a	n/a	n/a	n/a	n/a	13	4	6	3	n/a	n/a	n/a	n/a	n/a
1677.458	n/a	PROB	838729	n/a	LTP197	ltpFR	12	n/a	n/a	n/a	n/a	n/a	n/a	n/a	21	8	5	8	n/a	n/a	n/a	n/a	n/a
1679.222	n/a	PROB	839611	n/a	LTP197	ltpFR	12	n/a	n/a	n/a	n/a	n/a	n/a	n/a	12	2	3	7	n/a	n/a	n/a	n/a	n/a
1680.52	n/a	PROB	840260	n/a	LTP197	ltpFR	12	n/a	n/a	n/a	n/a	n/a	n/a	n/a	20	6	6	7	n/a	n/a	n/a	n/a	n/a
1685.67	n/a	STOP	842835	n/a	LTP197	ltpFR	12	n/a	n/a	n/a	n/a	n/a	n/a	n/a	n/a	n/a	n/a	n/a	n/a	n/a	n/a	n/a	n/a
1686.862	n/a	WORD	843431	wordpools/wasnorm_wordpool_less_exclusions.txt	LTP197	ltpFR	12	7	1	BEAVER	109	n/a	n/a	1	n/a	0	0	0	0.57763671875	0.412841796875	1	lower	zerothre.ttf
1689.874	n/a	START	844937	n/a	LTP197	ltpFR	12	n/a	n/a	n/a	n/a	n/a	n/a	n/a	n/a	n/a	n/a	n/a	n/a	n/a	n/a	n/a	n/a
1690.956	n/a	PROB	845478	n/a	LTP197	ltpFR	12	n/a	n/a	n/a	n/a	n/a	n/a	n/a	16	6	5	5	n/a	n/a	n/a	n/a	n/a
1692.554	n/a	PROB	846277	n/a	LTP197	ltpFR	12	n/a	n/a	n/a	n/a	n/a	n/a	n/a	18	3	9	6	n/a	n/a	n/a	n/a	n/a
1694.532	n/a	PROB	847266	n/a	LTP197	ltpFR	12	n/a	n/a	n/a	n/a	n/a	n/a	n/a	19	4	7	8	n/a	n/a	n/a	n/a	n/a
1696.048	n/a	PROB	848024	n/a	LTP197	ltpFR	12	n/a	n/a	n/a	n/a	n/a	n/a	n/a	20	8	4	8	n/a	n/a	n/a	n/a	n/a
1698.062	n/a	PROB	849031	n/a	LTP197	ltpFR	12	n/a	n/a	n/a	n/a	n/a	n/a	n/a	16	6	7	3	n/a	n/a	n/a	n/a	n/a
1699.36	n/a	PROB	849680	n/a	LTP197	ltpFR	12	n/a	n/a	n/a	n/a	n/a	n/a	n/a	14	6	1	7	n/a	n/a	n/a	n/a	n/a
1701.174	n/a	PROB	850587	n/a	LTP197	ltpFR	12	n/a	n/a	n/a	n/a	n/a	n/a	n/a	13	3	6	4	n/a	n/a	n/a	n/a	n/a
1702.554	n/a	PROB	851277	n/a	LTP197	ltpFR	12	n/a	n/a	n/a	n/a	n/a	n/a	n/a	18	6	3	9	n/a	n/a	n/a	n/a	n/a
1704.252	n/a	PROB	852126	n/a	LTP197	ltpFR	12	n/a	n/a	n/a	n/a	n/a	n/a	n/a	11	1	3	7	n/a	n/a	n/a	n/a	n/a
1705.616	n/a	STOP	852808	n/a	LTP197	ltpFR	12	n/a	n/a	n/a	n/a	n/a	n/a	n/a	n/a	n/a	n/a	n/a	n/a	n/a	n/a	n/a	n/a
1706.932	n/a	WORD	853466	wordpools/wasnorm_wordpool_less_exclusions.txt	LTP197	ltpFR	12	7	1	MONGOOSE	909	n/a	n/a	1	n/a	0	0	0	0.57763671875	0.412841796875	1	lower	zerothre.ttf
1709.944	n/a	START	854972	n/a	LTP197	ltpFR	12	n/a	n/a	n/a	n/a	n/a	n/a	n/a	n/a	n/a	n/a	n/a	n/a	n/a	n/a	n/a	n/a
1710.958	n/a	PROB	855479	n/a	LTP197	ltpFR	12	n/a	n/a	n/a	n/a	n/a	n/a	n/a	7	4	2	1	n/a	n/a	n/a	n/a	n/a
1713.256	n/a	PROB	856628	n/a	LTP197	ltpFR	12	n/a	n/a	n/a	n/a	n/a	n/a	n/a	11	4	3	4	n/a	n/a	n/a	n/a	n/a
1715.036	n/a	PROB	857518	n/a	LTP197	ltpFR	12	n/a	n/a	n/a	n/a	n/a	n/a	n/a	14	2	3	9	n/a	n/a	n/a	n/a	n/a
1716.834	n/a	PROB	858417	n/a	LTP197	ltpFR	12	n/a	n/a	n/a	n/a	n/a	n/a	n/a	9	6	1	2	n/a	n/a	n/a	n/a	n/a
1719.696	n/a	PROB	859848	n/a	LTP197	ltpFR	12	n/a	n/a	n/a	n/a	n/a	n/a	n/a	10	3	5	2	n/a	n/a	n/a	n/a	n/a
1721.826	n/a	PROB	860913	n/a	LTP197	ltpFR	12	n/a	n/a	n/a	n/a	n/a	n/a	n/a	16	8	6	2	n/a	n/a	n/a	n/a	n/a
1723.606	n/a	PROB	861803	n/a	LTP197	ltpFR	12	n/a	n/a	n/a	n/a	n/a	n/a	n/a	18	7	4	7	n/a	n/a	n/a	n/a	n/a
1724.992	n/a	STOP	862496	n/a	LTP197	ltpFR	12	n/a	n/a	n/a	n/a	n/a	n/a	n/a	n/a	n/a	n/a	n/a	n/a	n/a	n/a	n/a	n/a
1726.918	n/a	WORD	863459	wordpools/wasnorm_wordpool_less_exclusions.txt	LTP197	ltpFR	12	7	1	TAR	1435	n/a	n/a	0	n/a	0	0	0	0.57763671875	0.412841796875	1	lower	zerothre.ttf
1729.932	n/a	START	864966	n/a	LTP197	ltpFR	12	n/a	n/a	n/a	n/a	n/a	n/a	n/a	n/a	n/a	n/a	n/a	n/a	n/a	n/a	n/a	n/a
1730.978	n/a	PROB	865489	n/a	LTP197	ltpFR	12	n/a	n/a	n/a	n/a	n/a	n/a	n/a	16	4	3	9	n/a	n/a	n/a	n/a	n/a
1732.91	n/a	PROB	866455	n/a	LTP197	ltpFR	12	n/a	n/a	n/a	n/a	n/a	n/a	n/a	18	9	4	5	n/a	n/a	n/a	n/a	n/a
1734.656	n/a	PROB	867328	n/a	LTP197	ltpFR	12	n/a	n/a	n/a	n/a	n/a	n/a	n/a	17	9	5	3	n/a	n/a	n/a	n/a	n/a
1736.354	n/a	PROB	868177	n/a	LTP197	ltpFR	12	n/a	n/a	n/a	n/a	n/a	n/a	n/a	14	2	3	9	n/a	n/a	n/a	n/a	n/a
1737.802	n/a	PROB	868901	n/a	LTP197	ltpFR	12	n/a	n/a	n/a	n/a	n/a	n/a	n/a	21	8	4	9	n/a	n/a	n/a	n/a	n/a
1743.41	n/a	PROB	871705	n/a	LTP197	ltpFR	12	n/a	n/a	n/a	n/a	n/a	n/a	n/a	17	4	6	7	n/a	n/a	n/a	n/a	n/a
1744.888	n/a	STOP	872444	n/a	LTP197	ltpFR	12	n/a	n/a	n/a	n/a	n/a	n/a	n/a	n/a	n/a	n/a	n/a	n/a	n/a	n/a	n/a	n/a
1747.022	n/a	WORD	873511	wordpools/wasnorm_wordpool_less_exclusions.txt	LTP197	ltpFR	12	7	1	FLOOR	581	n/a	n/a	0	n/a	0	0	0	0.57763671875	0.412841796875	1	lower	zerothre.ttf
1750.034	n/a	START	875017	n/a	LTP197	ltpFR	12	n/a	n/a	n/a	n/a	n/a	n/a	n/a	n/a	n/a	n/a	n/a	n/a	n/a	n/a	n/a	n/a
1751.216	n/a	PROB	875608	n/a	LTP197	ltpFR	12	n/a	n/a	n/a	n/a	n/a	n/a	n/a	10	3	5	2	n/a	n/a	n/a	n/a	n/a
1752.896	n/a	PROB	876448	n/a	LTP197	ltpFR	12	n/a	n/a	n/a	n/a	n/a	n/a	n/a	14	9	4	1	n/a	n/a	n/a	n/a	n/a
1754.994	n/a	PROB	877497	n/a	LTP197	ltpFR	12	n/a	n/a	n/a	n/a	n/a	n/a	n/a	19	4	7	8	n/a	n/a	n/a	n/a	n/a
1756.626	n/a	PROB	878313	n/a	LTP197	ltpFR	12	n/a	n/a	n/a	n/a	n/a	n/a	n/a	23	7	8	7	n/a	n/a	n/a	n/a	n/a
1758.538	n/a	PROB	879269	n/a	LTP197	ltpFR	12	n/a	n/a	n/a	n/a	n/a	n/a	n/a	2	9	8	5	n/a	n/a	n/a	n/a	n/a
1761.668	n/a	PROB	880834	n/a	LTP197	ltpFR	12	n/a	n/a	n/a	n/a	n/a	n/a	n/a	16	8	3	5	n/a	n/a	n/a	n/a	n/a
1764.148	n/a	PROB	882074	n/a	LTP197	ltpFR	12	n/a	n/a	n/a	n/a	n/a	n/a	n/a	8	1	6	1	n/a	n/a	n/a	n/a	n/a
1765.426	n/a	STOP	882713	n/a	LTP197	ltpFR	12	n/a	n/a	n/a	n/a	n/a	n/a	n/a	n/a	n/a	n/a	n/a	n/a	n/a	n/a	n/a	n/a
1766.976	n/a	WORD	883488	wordpools/wasnorm_wordpool_less_exclusions.txt	LTP197	ltpFR	12	7	1	FIDDLE	561	n/a	n/a	0	n/a	0	0	0	0.57763671875	0.412841796875	1	lower	zerothre.ttf
1769.99	n/a	START	884995	n/a	LTP197	ltpFR	12	n/a	n/a	n/a	n/a	n/a	n/a	n/a	n/a	n/a	n/a	n/a	n/a	n/a	n/a	n/a	n/a
1771.186	n/a	PROB	885593	n/a	LTP197	ltpFR	12	n/a	n/a	n/a	n/a	n/a	n/a	n/a	16	9	3	4	n/a	n/a	n/a	n/a	n/a
1772.918	n/a	PROB	886459	n/a	LTP197	ltpFR	12	n/a	n/a	n/a	n/a	n/a	n/a	n/a	16	4	7	5	n/a	n/a	n/a	n/a	n/a
1774.448	n/a	PROB	887224	n/a	LTP197	ltpFR	12	n/a	n/a	n/a	n/a	n/a	n/a	n/a	22	9	5	8	n/a	n/a	n/a	n/a	n/a
1777.344	n/a	PROB	888672	n/a	LTP197	ltpFR	12	n/a	n/a	n/a	n/a	n/a	n/a	n/a	18	7	8	3	n/a	n/a	n/a	n/a	n/a
1779.99	n/a	PROB	889995	n/a	LTP197	ltpFR	12	n/a	n/a	n/a	n/a	n/a	n/a	n/a	15	4	4	7	n/a	n/a	n/a	n/a	n/a
1781.638	n/a	PROB	890819	n/a	LTP197	ltpFR	12	n/a	n/a	n/a	n/a	n/a	n/a	n/a	16	2	9	5	n/a	n/a	n/a	n/a	n/a
1783.302	n/a	PROB	891651	n/a	LTP197	ltpFR	12	n/a	n/a	n/a	n/a	n/a	n/a	n/a	19	7	7	5	n/a	n/a	n/a	n/a	n/a
1784.922	n/a	STOP	892461	n/a	LTP197	ltpFR	12	n/a	n/a	n/a	n/a	n/a	n/a	n/a	n/a	n/a	n/a	n/a	n/a	n/a	n/a	n/a	n/a
1787.196	n/a	WORD	893598	wordpools/wasnorm_wordpool_less_exclusions.txt	LTP197	ltpFR	12	7	1	BELL	118	n/a	n/a	0	n/a	0	0	0	0.57763671875	0.412841796875	1	lower	zerothre.ttf
1790.208	n/a	START	895104	n/a	LTP197	ltpFR	12	n/a	n/a	n/a	n/a	n/a	n/a	n/a	n/a	n/a	n/a	n/a	n/a	n/a	n/a	n/a	n/a
1791.374	n/a	PROB	895687	n/a	LTP197	ltpFR	12	n/a	n/a	n/a	n/a	n/a	n/a	n/a	12	2	5	5	n/a	n/a	n/a	n/a	n/a
1793.92	n/a	PROB	896960	n/a	LTP197	ltpFR	12	n/a	n/a	n/a	n/a	n/a	n/a	n/a	12	8	1	3	n/a	n/a	n/a	n/a	n/a
1795.716	n/a	PROB	897858	n/a	LTP197	ltpFR	12	n/a	n/a	n/a	n/a	n/a	n/a	n/a	13	6	6	1	n/a	n/a	n/a	n/a	n/a
1797.164	n/a	PROB	898582	n/a	LTP197	ltpFR	12	n/a	n/a	n/a	n/a	n/a	n/a	n/a	15	6	1	8	n/a	n/a	n/a	n/a	n/a
1799.328	n/a	PROB	899664	n/a	LTP197	ltpFR	12	n/a	n/a	n/a	n/a	n/a	n/a	n/a	16	2	7	7	n/a	n/a	n/a	n/a	n/a
1801.276	n/a	PROB	900638	n/a	LTP197	ltpFR	12	n/a	n/a	n/a	n/a	n/a	n/a	n/a	11	3	3	5	n/a	n/a	n/a	n/a	n/a
1803.172	n/a	PROB	901586	n/a	LTP197	ltpFR	12	n/a	n/a	n/a	n/a	n/a	n/a	n/a	16	1	8	7	n/a	n/a	n/a	n/a	n/a
1805.306	n/a	STOP	902653	n/a	LTP197	ltpFR	12	n/a	n/a	n/a	n/a	n/a	n/a	n/a	n/a	n/a	n/a	n/a	n/a	n/a	n/a	n/a	n/a
1808.082	n/a	REC_START	904041	n/a	LTP197	ltpFR	12	7	n/a	n/a	n/a	n/a	n/a	n/a	n/a	0	0	0	n/a	n/a	n/a	n/a	n/a
1809.798	n/a	REC_WORD	904899	wordpools/wasnorm_wordpool_less_exclusions.txt	LTP197	ltpFR	12	7	1	FIDDLE	561	n/a	n/a	0	n/a	0	0	0	n/a	n/a	n/a	n/a	n/a
1810.916	n/a	REC_WORD	905458	wordpools/wasnorm_wordpool_less_exclusions.txt	LTP197	ltpFR	12	7	1	BELL	118	n/a	n/a	0	n/a	0	0	0	n/a	n/a	n/a	n/a	n/a
1812.952	n/a	REC_WORD	906476	wordpools/wasnorm_wordpool_less_exclusions.txt	LTP197	ltpFR	12	7	0	COWBOY	395	n/a	n/a	1	n/a	0	0	0	n/a	n/a	n/a	n/a	n/a
1813.952	n/a	REC_WORD_VV	906976	wordpools/wasnorm_wordpool_less_exclusions.txt	LTP197	ltpFR	12	7	n/a	<>	-1	n/a	n/a	n/a	n/a	0	0	0	n/a	n/a	n/a	n/a	n/a
1815.974	n/a	REC_WORD	907987	wordpools/wasnorm_wordpool_less_exclusions.txt	LTP197	ltpFR	12	7	0	ANTEATER	26	n/a	n/a	1	n/a	0	0	0	n/a	n/a	n/a	n/a	n/a
1819.216	n/a	REC_WORD	909608	wordpools/wasnorm_wordpool_less_exclusions.txt	LTP197	ltpFR	12	7	1	MONGOOSE	909	n/a	n/a	1	n/a	0	0	0	n/a	n/a	n/a	n/a	n/a
1821.486	n/a	REC_WORD	910743	wordpools/wasnorm_wordpool_less_exclusions.txt	LTP197	ltpFR	12	7	1	ORCHESTRA	981	n/a	n/a	1	n/a	0	0	0	n/a	n/a	n/a	n/a	n/a
1822.486	n/a	REC_WORD_VV	911243	wordpools/wasnorm_wordpool_less_exclusions.txt	LTP197	ltpFR	12	7	n/a	<>	-1	n/a	n/a	n/a	n/a	0	0	0	n/a	n/a	n/a	n/a	n/a
1822.748	n/a	REC_WORD	911374	wordpools/wasnorm_wordpool_less_exclusions.txt	LTP197	ltpFR	12	7	0	ATHLETE	52	n/a	n/a	1	n/a	0	0	0	n/a	n/a	n/a	n/a	n/a
1823.84	n/a	REC_WORD	911920	wordpools/wasnorm_wordpool_less_exclusions.txt	LTP197	ltpFR	12	7	0	SPY	1360	n/a	n/a	1	n/a	0	0	0	n/a	n/a	n/a	n/a	n/a
1825.722	n/a	REC_WORD	912861	wordpools/wasnorm_wordpool_less_exclusions.txt	LTP197	ltpFR	12	7	0	CYLINDER	432	n/a	n/a	0	n/a	0	0	0	n/a	n/a	n/a	n/a	n/a
1827.738	n/a	REC_WORD	913869	wordpools/wasnorm_wordpool_less_exclusions.txt	LTP197	ltpFR	12	7	0	SCALLOP	1242	n/a	n/a	0	n/a	0	0	0	n/a	n/a	n/a	n/a	n/a
1828.566	n/a	REC_WORD	914283	wordpools/wasnorm_wordpool_less_exclusions.txt	LTP197	ltpFR	12	7	0	SEAFOOD	1260	n/a	n/a	0	n/a	0	0	0	n/a	n/a	n/a	n/a	n/a
1887.996	n/a	WORD	943998	wordpools/wasnorm_wordpool_less_exclusions.txt	LTP197	ltpFR	12	8	1	POLYESTER	1100	n/a	n/a	0	n/a	0	0	0	0.57763671875	0.412841796875	1	lower	zerothre.ttf
1892.19	n/a	WORD	946095	wordpools/wasnorm_wordpool_less_exclusions.txt	LTP197	ltpFR	12	8	1	TOAD	1470	n/a	n/a	1	n/a	0	0	0	0.57763671875	0.412841796875	1	lower	zerothre.ttf
1896.102	n/a	WORD	948051	wordpools/wasnorm_wordpool_less_exclusions.txt	LTP197	ltpFR	12	8	1	AUDIENCE	59	n/a	n/a	1	n/a	0	0	0	0.57763671875	0.412841796875	1	lower	zerothre.ttf
1900.246	n/a	WORD	950123	wordpools/wasnorm_wordpool_less_exclusions.txt	LTP197	ltpFR	12	8	0	DENIM	446	n/a	n/a	0	n/a	0	0	0	0.422607421875	0.5869140625	0	upper	amplitud.ttf
1904.14	n/a	WORD	952070	wordpools/wasnorm_wordpool_less_exclusions.txt	LTP197	ltpFR	12	8	0	SHELL	1281	n/a	n/a	0	n/a	0	0	0	0.422607421875	0.5869140625	0	upper	amplitud.ttf
1907.968	n/a	WORD	953984	wordpools/wasnorm_wordpool_less_exclusions.txt	LTP197	ltpFR	12	8	0	SAND	1230	n/a	n/a	0	n/a	0	0	0	0.422607421875	0.5869140625	0	upper	amplitud.ttf
1911.928	n/a	WORD	955964	wordpools/wasnorm_wordpool_less_exclusions.txt	LTP197	ltpFR	12	8	0	EMPIRE	530	n/a	n/a	1	n/a	0	0	0	0.422607421875	0.5869140625	0	upper	amplitud.ttf
1916.138	n/a	WORD	958069	wordpools/wasnorm_wordpool_less_exclusions.txt	LTP197	ltpFR	12	8	1	MANAGER	863	n/a	n/a	1	n/a	0	0	0	0.57763671875	0.412841796875	1	lower	zerothre.ttf
1920.25	n/a	WORD	960125	wordpools/wasnorm_wordpool_less_exclusions.txt	LTP197	ltpFR	12	8	1	REPTILE	1185	n/a	n/a	1	n/a	0	0	0	0.57763671875	0.412841796875	1	lower	zerothre.ttf
1924.144	n/a	WORD	962072	wordpools/wasnorm_wordpool_less_exclusions.txt	LTP197	ltpFR	12	8	1	TROPHY	1509	n/a	n/a	0	n/a	0	0	0	0.57763671875	0.412841796875	1	lower	zerothre.ttf
1928.354	n/a	WORD	964177	wordpools/wasnorm_wordpool_less_exclusions.txt	LTP197	ltpFR	12	8	0	GROCERIES	663	n/a	n/a	1	n/a	0	0	0	0.422607421875	0.5869140625	0	upper	amplitud.ttf
1932.364	n/a	WORD	966182	wordpools/wasnorm_wordpool_less_exclusions.txt	LTP197	ltpFR	12	8	0	RESTAURANT	1187	n/a	n/a	1	n/a	0	0	0	0.422607421875	0.5869140625	0	upper	amplitud.ttf
1936.242	n/a	WORD	968121	wordpools/wasnorm_wordpool_less_exclusions.txt	LTP197	ltpFR	12	8	0	WORKER	1621	n/a	n/a	1	n/a	0	0	0	0.422607421875	0.5869140625	0	upper	amplitud.ttf
1940.352	n/a	WORD	970176	wordpools/wasnorm_wordpool_less_exclusions.txt	LTP197	ltpFR	12	8	0	PAD	998	n/a	n/a	0	n/a	0	0	0	0.422607421875	0.5869140625	0	upper	amplitud.ttf
1944.18	n/a	WORD	972090	wordpools/wasnorm_wordpool_less_exclusions.txt	LTP197	ltpFR	12	8	1	COPIER	377	n/a	n/a	1	n/a	0	0	0	0.57763671875	0.412841796875	1	lower	zerothre.ttf
1948.39	n/a	WORD	974195	wordpools/wasnorm_wordpool_less_exclusions.txt	LTP197	ltpFR	12	8	1	ASSOCIATE	49	n/a	n/a	1	n/a	0	0	0	0.57763671875	0.412841796875	1	lower	zerothre.ttf
1954.116	n/a	REC_START	977058	n/a	LTP197	ltpFR	12	8	n/a	n/a	n/a	n/a	n/a	n/a	n/a	0	0	0	n/a	n/a	n/a	n/a	n/a
1955.554	n/a	REC_WORD	977777	wordpools/wasnorm_wordpool_less_exclusions.txt	LTP197	ltpFR	12	8	1	COPIER	377	n/a	n/a	1	n/a	0	0	0	n/a	n/a	n/a	n/a	n/a
1956.4	n/a	REC_WORD	978200	wordpools/wasnorm_wordpool_less_exclusions.txt	LTP197	ltpFR	12	8	1	ASSOCIATE	49	n/a	n/a	1	n/a	0	0	0	n/a	n/a	n/a	n/a	n/a
1957.808	n/a	REC_WORD	978904	wordpools/wasnorm_wordpool_less_exclusions.txt	LTP197	ltpFR	12	8	0	PAD	998	n/a	n/a	0	n/a	0	0	0	n/a	n/a	n/a	n/a	n/a
1958.946	n/a	REC_WORD	979473	wordpools/wasnorm_wordpool_less_exclusions.txt	LTP197	ltpFR	12	8	0	RESTAURANT	1187	n/a	n/a	1	n/a	0	0	0	n/a	n/a	n/a	n/a	n/a
1962.202	n/a	REC_WORD	981101	wordpools/wasnorm_wordpool_less_exclusions.txt	LTP197	ltpFR	12	8	0	WORKER	1621	n/a	n/a	1	n/a	0	0	0	n/a	n/a	n/a	n/a	n/a
1963.076	n/a	REC_WORD	981538	wordpools/wasnorm_wordpool_less_exclusions.txt	LTP197	ltpFR	12	8	1	MANAGER	863	n/a	n/a	1	n/a	0	0	0	n/a	n/a	n/a	n/a	n/a
1964.164	n/a	REC_WORD	982082	wordpools/wasnorm_wordpool_less_exclusions.txt	LTP197	ltpFR	12	8	0	EMPIRE	530	n/a	n/a	1	n/a	0	0	0	n/a	n/a	n/a	n/a	n/a
1965.164	n/a	REC_WORD_VV	982582	wordpools/wasnorm_wordpool_less_exclusions.txt	LTP197	ltpFR	12	8	n/a	<>	-1	n/a	n/a	n/a	n/a	0	0	0	n/a	n/a	n/a	n/a	n/a
1967.836	n/a	REC_WORD	983918	wordpools/wasnorm_wordpool_less_exclusions.txt	LTP197	ltpFR	12	8	1	TOAD	1470	n/a	n/a	1	n/a	0	0	0	n/a	n/a	n/a	n/a	n/a
1968.464	n/a	REC_WORD	984232	wordpools/wasnorm_wordpool_less_exclusions.txt	LTP197	ltpFR	12	8	1	POLYESTER	1100	n/a	n/a	0	n/a	0	0	0	n/a	n/a	n/a	n/a	n/a
1969.542	n/a	REC_WORD	984771	wordpools/wasnorm_wordpool_less_exclusions.txt	LTP197	ltpFR	12	8	0	DENIM	446	n/a	n/a	0	n/a	0	0	0	n/a	n/a	n/a	n/a	n/a
1970.416	n/a	REC_WORD	985208	wordpools/wasnorm_wordpool_less_exclusions.txt	LTP197	ltpFR	12	8	1	REPTILE	1185	n/a	n/a	1	n/a	0	0	0	n/a	n/a	n/a	n/a	n/a
1971.366	n/a	REC_WORD	985683	wordpools/wasnorm_wordpool_less_exclusions.txt	LTP197	ltpFR	12	8	0	SHELL	1281	n/a	n/a	0	n/a	0	0	0	n/a	n/a	n/a	n/a	n/a
1971.992	n/a	REC_WORD	985996	wordpools/wasnorm_wordpool_less_exclusions.txt	LTP197	ltpFR	12	8	0	SAND	1230	n/a	n/a	0	n/a	0	0	0	n/a	n/a	n/a	n/a	n/a
1972.96	n/a	REC_WORD	986480	wordpools/wasnorm_wordpool_less_exclusions.txt	LTP197	ltpFR	12	8	1	TROPHY	1509	n/a	n/a	0	n/a	0	0	0	n/a	n/a	n/a	n/a	n/a
1974.276	n/a	REC_WORD	987138	wordpools/wasnorm_wordpool_less_exclusions.txt	LTP197	ltpFR	12	8	1	AUDIENCE	59	n/a	n/a	1	n/a	0	0	0	n/a	n/a	n/a	n/a	n/a
2032.7	n/a	WORD	1016350	wordpools/wasnorm_wordpool_less_exclusions.txt	LTP197	ltpFR	12	9	0	ENGINEER	536	n/a	n/a	1	n/a	0	0	0	0.422607421875	0.5869140625	0	upper	amplitud.ttf
2036.61	n/a	WORD	1018305	wordpools/wasnorm_wordpool_less_exclusions.txt	LTP197	ltpFR	12	9	0	VIOLIN	1571	n/a	n/a	1	n/a	0	0	0	0.422607421875	0.5869140625	0	upper	amplitud.ttf
2040.822	n/a	WORD	1020411	wordpools/wasnorm_wordpool_less_exclusions.txt	LTP197	ltpFR	12	9	0	DICTATOR	462	n/a	n/a	1	n/a	0	0	0	0.422607421875	0.5869140625	0	upper	amplitud.ttf
2044.998	n/a	WORD	1022499	wordpools/wasnorm_wordpool_less_exclusions.txt	LTP197	ltpFR	12	9	0	RASPBERRY	1168	n/a	n/a	0	n/a	0	0	0	0.422607421875	0.5869140625	0	upper	amplitud.ttf
2049.176	n/a	WORD	1024588	wordpools/wasnorm_wordpool_less_exclusions.txt	LTP197	ltpFR	12	9	0	CONCRETE	361	n/a	n/a	0	n/a	0	0	0	0.422607421875	0.5869140625	0	upper	amplitud.ttf
2053.052	n/a	WORD	1026526	wordpools/wasnorm_wordpool_less_exclusions.txt	LTP197	ltpFR	12	9	0	LIST	830	n/a	n/a	0	n/a	0	0	0	0.422607421875	0.5869140625	0	upper	amplitud.ttf
2057.114	n/a	WORD	1028557	wordpools/wasnorm_wordpool_less_exclusions.txt	LTP197	ltpFR	12	9	0	PENCIL	1042	n/a	n/a	0	n/a	0	0	0	0.422607421875	0.5869140625	0	upper	amplitud.ttf
2061.008	n/a	WORD	1030504	wordpools/wasnorm_wordpool_less_exclusions.txt	LTP197	ltpFR	12	9	0	GLASS	639	n/a	n/a	0	n/a	0	0	0	0.422607421875	0.5869140625	0	upper	amplitud.ttf
2065.134	n/a	WORD	1032567	wordpools/wasnorm_wordpool_less_exclusions.txt	LTP197	ltpFR	12	9	0	EDITOR	516	n/a	n/a	1	n/a	0	0	0	0.422607421875	0.5869140625	0	upper	amplitud.ttf
2069.03	n/a	WORD	1034515	wordpools/wasnorm_wordpool_less_exclusions.txt	LTP197	ltpFR	12	9	0	BANJO	82	n/a	n/a	1	n/a	0	0	0	0.422607421875	0.5869140625	0	upper	amplitud.ttf
2073.24	n/a	WORD	1036620	wordpools/wasnorm_wordpool_less_exclusions.txt	LTP197	ltpFR	12	9	0	SNACK	1331	n/a	n/a	0	n/a	0	0	0	0.422607421875	0.5869140625	0	upper	amplitud.ttf
2077.084	n/a	WORD	1038542	wordpools/wasnorm_wordpool_less_exclusions.txt	LTP197	ltpFR	12	9	0	SAUSAGE	1238	n/a	n/a	0	n/a	0	0	0	0.422607421875	0.5869140625	0	upper	amplitud.ttf
2080.944	n/a	WORD	1040472	wordpools/wasnorm_wordpool_less_exclusions.txt	LTP197	ltpFR	12	9	0	THRONE	1461	n/a	n/a	n/a	n/a	0	0	0	0.422607421875	0.5869140625	0	upper	amplitud.ttf
2083.974	n/a	SLOW_MSG	1041987	n/a	LTP197	ltpFR	12	9	n/a	n/a	n/a	n/a	n/a	n/a	n/a	0	0	0	n/a	n/a	n/a	n/a	n/a
2086.42	n/a	WORD	1043210	wordpools/wasnorm_wordpool_less_exclusions.txt	LTP197	ltpFR	12	9	0	PAINTER	1004	n/a	n/a	1	n/a	0	0	0	0.422607421875	0.5869140625	0	upper	amplitud.ttf
2090.28	n/a	WORD	1045140	wordpools/wasnorm_wordpool_less_exclusions.txt	LTP197	ltpFR	12	9	0	PAINTING	1005	n/a	n/a	1	n/a	0	0	0	0.422607421875	0.5869140625	0	upper	amplitud.ttf
2094.392	n/a	WORD	1047196	wordpools/wasnorm_wordpool_less_exclusions.txt	LTP197	ltpFR	12	9	0	DOUGH	489	n/a	n/a	0	n/a	0	0	0	0.422607421875	0.5869140625	0	upper	amplitud.ttf
2097.404	n/a	START	1048702	n/a	LTP197	ltpFR	12	n/a	n/a	n/a	n/a	n/a	n/a	n/a	n/a	n/a	n/a	n/a	n/a	n/a	n/a	n/a	n/a
2098.484	n/a	PROB	1049242	n/a	LTP197	ltpFR	12	n/a	n/a	n/a	n/a	n/a	n/a	n/a	18	3	9	6	n/a	n/a	n/a	n/a	n/a
2100.964	n/a	PROB	1050482	n/a	LTP197	ltpFR	12	n/a	n/a	n/a	n/a	n/a	n/a	n/a	24	7	7	8	n/a	n/a	n/a	n/a	n/a
2103.428	n/a	PROB	1051714	n/a	LTP197	ltpFR	12	n/a	n/a	n/a	n/a	n/a	n/a	n/a	19	8	9	2	n/a	n/a	n/a	n/a	n/a
2105.324	n/a	PROB	1052662	n/a	LTP197	ltpFR	12	n/a	n/a	n/a	n/a	n/a	n/a	n/a	22	7	8	7	n/a	n/a	n/a	n/a	n/a
2108.502	n/a	PROB	1054251	n/a	LTP197	ltpFR	12	n/a	n/a	n/a	n/a	n/a	n/a	n/a	19	3	8	8	n/a	n/a	n/a	n/a	n/a
2110.134	n/a	PROB	1055067	n/a	LTP197	ltpFR	12	n/a	n/a	n/a	n/a	n/a	n/a	n/a	19	9	3	7	n/a	n/a	n/a	n/a	n/a
2113.404	n/a	STOP	1056702	n/a	LTP197	ltpFR	12	n/a	n/a	n/a	n/a	n/a	n/a	n/a	n/a	n/a	n/a	n/a	n/a	n/a	n/a	n/a	n/a
2115.244	n/a	REC_START	1057622	n/a	LTP197	ltpFR	12	9	n/a	n/a	n/a	n/a	n/a	n/a	n/a	0	0	0	n/a	n/a	n/a	n/a	n/a
2117.798	n/a	REC_WORD	1058899	wordpools/wasnorm_wordpool_less_exclusions.txt	LTP197	ltpFR	12	9	0	SAUSAGE	1238	n/a	n/a	0	n/a	0	0	0	n/a	n/a	n/a	n/a	n/a
2119.026	n/a	REC_WORD	1059513	wordpools/wasnorm_wordpool_less_exclusions.txt	LTP197	ltpFR	12	9	0	DOUGH	489	n/a	n/a	0	n/a	0	0	0	n/a	n/a	n/a	n/a	n/a
2120.326	n/a	REC_WORD	1060163	wordpools/wasnorm_wordpool_less_exclusions.txt	LTP197	ltpFR	12	9	0	DICTATOR	462	n/a	n/a	1	n/a	0	0	0	n/a	n/a	n/a	n/a	n/a
2121.212	n/a	REC_WORD	1060606	wordpools/wasnorm_wordpool_less_exclusions.txt	LTP197	ltpFR	12	9	0	LIST	830	n/a	n/a	0	n/a	0	0	0	n/a	n/a	n/a	n/a	n/a
2122.038	n/a	REC_WORD	1061019	wordpools/wasnorm_wordpool_less_exclusions.txt	LTP197	ltpFR	12	9	0	PENCIL	1042	n/a	n/a	0	n/a	0	0	0	n/a	n/a	n/a	n/a	n/a
2122.966	n/a	REC_WORD	1061483	wordpools/wasnorm_wordpool_less_exclusions.txt	LTP197	ltpFR	12	9	0	GLASS	639	n/a	n/a	0	n/a	0	0	0	n/a	n/a	n/a	n/a	n/a
2124.408	n/a	REC_WORD	1062204	wordpools/wasnorm_wordpool_less_exclusions.txt	LTP197	ltpFR	12	9	0	SNACK	1331	n/a	n/a	0	n/a	0	0	0	n/a	n/a	n/a	n/a	n/a
2127.9	n/a	REC_WORD	1063950	wordpools/wasnorm_wordpool_less_exclusions.txt	LTP197	ltpFR	12	9	0	ENGINEER	536	n/a	n/a	1	n/a	0	0	0	n/a	n/a	n/a	n/a	n/a
2128.9	n/a	REC_WORD_VV	1064450	wordpools/wasnorm_wordpool_less_exclusions.txt	LTP197	ltpFR	12	9	n/a	<>	-1	n/a	n/a	n/a	n/a	0	0	0	n/a	n/a	n/a	n/a	n/a
2129.576	n/a	REC_WORD	1064788	wordpools/wasnorm_wordpool_less_exclusions.txt	LTP197	ltpFR	12	9	0	VIOLIN	1571	n/a	n/a	1	n/a	0	0	0	n/a	n/a	n/a	n/a	n/a
2131.442	n/a	REC_WORD	1065721	wordpools/wasnorm_wordpool_less_exclusions.txt	LTP197	ltpFR	12	9	0	EDITOR	516	n/a	n/a	1	n/a	0	0	0	n/a	n/a	n/a	n/a	n/a
2132.36	n/a	REC_WORD	1066180	wordpools/wasnorm_wordpool_less_exclusions.txt	LTP197	ltpFR	12	9	0	BANJO	82	n/a	n/a	1	n/a	0	0	0	n/a	n/a	n/a	n/a	n/a
2134.026	n/a	REC_WORD	1067013	wordpools/wasnorm_wordpool_less_exclusions.txt	LTP197	ltpFR	12	9	0	PAINTER	1004	n/a	n/a	1	n/a	0	0	0	n/a	n/a	n/a	n/a	n/a
2135.044	n/a	REC_WORD	1067522	wordpools/wasnorm_wordpool_less_exclusions.txt	LTP197	ltpFR	12	9	0	PAINTING	1005	n/a	n/a	1	n/a	0	0	0	n/a	n/a	n/a	n/a	n/a
2138.886	n/a	REC_WORD	1069443	wordpools/wasnorm_wordpool_less_exclusions.txt	LTP197	ltpFR	12	9	0	RASPBERRY	1168	n/a	n/a	0	n/a	0	0	0	n/a	n/a	n/a	n/a	n/a
2139.886	n/a	REC_WORD_VV	1069943	wordpools/wasnorm_wordpool_less_exclusions.txt	LTP197	ltpFR	12	9	n/a	<>	-1	n/a	n/a	n/a	n/a	0	0	0	n/a	n/a	n/a	n/a	n/a
2198.006	n/a	START	1099003	n/a	LTP197	ltpFR	12	n/a	n/a	n/a	n/a	n/a	n/a	n/a	n/a	n/a	n/a	n/a	n/a	n/a	n/a	n/a	n/a
2199.518	n/a	PROB	1099759	n/a	LTP197	ltpFR	12	n/a	n/a	n/a	n/a	n/a	n/a	n/a	19	9	7	3	n/a	n/a	n/a	n/a	n/a
2201.134	n/a	PROB	1100567	n/a	LTP197	ltpFR	12	n/a	n/a	n/a	n/a	n/a	n/a	n/a	20	6	9	5	n/a	n/a	n/a	n/a	n/a
2203.414	n/a	PROB	1101707	n/a	LTP197	ltpFR	12	n/a	n/a	n/a	n/a	n/a	n/a	n/a	17	6	5	6	n/a	n/a	n/a	n/a	n/a
2205.212	n/a	PROB	1102606	n/a	LTP197	ltpFR	12	n/a	n/a	n/a	n/a	n/a	n/a	n/a	21	6	9	6	n/a	n/a	n/a	n/a	n/a
2207.124	n/a	PROB	1103562	n/a	LTP197	ltpFR	12	n/a	n/a	n/a	n/a	n/a	n/a	n/a	15	1	8	6	n/a	n/a	n/a	n/a	n/a
2208.622	n/a	PROB	1104311	n/a	LTP197	ltpFR	12	n/a	n/a	n/a	n/a	n/a	n/a	n/a	15	3	8	4	n/a	n/a	n/a	n/a	n/a
2210.17	n/a	PROB	1105085	n/a	LTP197	ltpFR	12	n/a	n/a	n/a	n/a	n/a	n/a	n/a	19	7	5	7	n/a	n/a	n/a	n/a	n/a
2212.2	n/a	PROB	1106100	n/a	LTP197	ltpFR	12	n/a	n/a	n/a	n/a	n/a	n/a	n/a	13	1	7	5	n/a	n/a	n/a	n/a	n/a
2213.84	n/a	STOP	1106920	n/a	LTP197	ltpFR	12	n/a	n/a	n/a	n/a	n/a	n/a	n/a	n/a	n/a	n/a	n/a	n/a	n/a	n/a	n/a	n/a
2214.98	n/a	WORD	1107490	wordpools/wasnorm_wordpool_less_exclusions.txt	LTP197	ltpFR	12	10	1	FLEA	577	n/a	n/a	1	n/a	0	0	0	0.57763671875	0.412841796875	1	lower	zerothre.ttf
2217.992	n/a	START	1108996	n/a	LTP197	ltpFR	12	n/a	n/a	n/a	n/a	n/a	n/a	n/a	n/a	n/a	n/a	n/a	n/a	n/a	n/a	n/a	n/a
2219.058	n/a	PROB	1109529	n/a	LTP197	ltpFR	12	n/a	n/a	n/a	n/a	n/a	n/a	n/a	20	5	6	9	n/a	n/a	n/a	n/a	n/a
2220.638	n/a	PROB	1110319	n/a	LTP197	ltpFR	12	n/a	n/a	n/a	n/a	n/a	n/a	n/a	9	5	2	2	n/a	n/a	n/a	n/a	n/a
2222.218	n/a	PROB	1111109	n/a	LTP197	ltpFR	12	n/a	n/a	n/a	n/a	n/a	n/a	n/a	20	7	5	8	n/a	n/a	n/a	n/a	n/a
2223.982	n/a	PROB	1111991	n/a	LTP197	ltpFR	12	n/a	n/a	n/a	n/a	n/a	n/a	n/a	12	7	1	4	n/a	n/a	n/a	n/a	n/a
2225.764	n/a	PROB	1112882	n/a	LTP197	ltpFR	12	n/a	n/a	n/a	n/a	n/a	n/a	n/a	15	6	3	6	n/a	n/a	n/a	n/a	n/a
2228.492	n/a	PROB	1114246	n/a	LTP197	ltpFR	12	n/a	n/a	n/a	n/a	n/a	n/a	n/a	17	5	4	8	n/a	n/a	n/a	n/a	n/a
2230.656	n/a	PROB	1115328	n/a	LTP197	ltpFR	12	n/a	n/a	n/a	n/a	n/a	n/a	n/a	17	4	6	7	n/a	n/a	n/a	n/a	n/a
2232.004	n/a	PROB	1116002	n/a	LTP197	ltpFR	12	n/a	n/a	n/a	n/a	n/a	n/a	n/a	9	1	2	6	n/a	n/a	n/a	n/a	n/a
2233.696	n/a	STOP	1116848	n/a	LTP197	ltpFR	12	n/a	n/a	n/a	n/a	n/a	n/a	n/a	n/a	n/a	n/a	n/a	n/a	n/a	n/a	n/a	n/a
2234.9	n/a	WORD	1117450	wordpools/wasnorm_wordpool_less_exclusions.txt	LTP197	ltpFR	12	10	1	PANTHER	1009	n/a	n/a	1	n/a	0	0	0	0.57763671875	0.412841796875	1	lower	zerothre.ttf
2237.912	n/a	START	1118956	n/a	LTP197	ltpFR	12	n/a	n/a	n/a	n/a	n/a	n/a	n/a	n/a	n/a	n/a	n/a	n/a	n/a	n/a	n/a	n/a
2238.728	n/a	PROB	1119364	n/a	LTP197	ltpFR	12	n/a	n/a	n/a	n/a	n/a	n/a	n/a	13	3	2	8	n/a	n/a	n/a	n/a	n/a
2240.058	n/a	PROB	1120029	n/a	LTP197	ltpFR	12	n/a	n/a	n/a	n/a	n/a	n/a	n/a	17	6	2	9	n/a	n/a	n/a	n/a	n/a
2241.656	n/a	PROB	1120828	n/a	LTP197	ltpFR	12	n/a	n/a	n/a	n/a	n/a	n/a	n/a	13	4	6	3	n/a	n/a	n/a	n/a	n/a
2243.72	n/a	PROB	1121860	n/a	LTP197	ltpFR	12	n/a	n/a	n/a	n/a	n/a	n/a	n/a	16	7	5	4	n/a	n/a	n/a	n/a	n/a
2245.284	n/a	PROB	1122642	n/a	LTP197	ltpFR	12	n/a	n/a	n/a	n/a	n/a	n/a	n/a	18	3	7	8	n/a	n/a	n/a	n/a	n/a
2247.948	n/a	PROB	1123974	n/a	LTP197	ltpFR	12	n/a	n/a	n/a	n/a	n/a	n/a	n/a	16	2	6	8	n/a	n/a	n/a	n/a	n/a
2249.844	n/a	PROB	1124922	n/a	LTP197	ltpFR	12	n/a	n/a	n/a	n/a	n/a	n/a	n/a	10	4	3	3	n/a	n/a	n/a	n/a	n/a
2253.912	n/a	STOP	1126956	n/a	LTP197	ltpFR	12	n/a	n/a	n/a	n/a	n/a	n/a	n/a	n/a	n/a	n/a	n/a	n/a	n/a	n/a	n/a	n/a
2254.988	n/a	WORD	1127494	wordpools/wasnorm_wordpool_less_exclusions.txt	LTP197	ltpFR	12	10	1	SHOVEL	1295	n/a	n/a	0	n/a	0	0	0	0.57763671875	0.412841796875	1	lower	zerothre.ttf
2258.0	n/a	START	1129000	n/a	LTP197	ltpFR	12	n/a	n/a	n/a	n/a	n/a	n/a	n/a	n/a	n/a	n/a	n/a	n/a	n/a	n/a	n/a	n/a
2258.898	n/a	PROB	1129449	n/a	LTP197	ltpFR	12	n/a	n/a	n/a	n/a	n/a	n/a	n/a	21	9	5	7	n/a	n/a	n/a	n/a	n/a
2262.244	n/a	PROB	1131122	n/a	LTP197	ltpFR	12	n/a	n/a	n/a	n/a	n/a	n/a	n/a	16	5	9	2	n/a	n/a	n/a	n/a	n/a
2264.472	n/a	PROB	1132236	n/a	LTP197	ltpFR	12	n/a	n/a	n/a	n/a	n/a	n/a	n/a	8	3	2	3	n/a	n/a	n/a	n/a	n/a
2266.37	n/a	PROB	1133185	n/a	LTP197	ltpFR	12	n/a	n/a	n/a	n/a	n/a	n/a	n/a	18	1	8	9	n/a	n/a	n/a	n/a	n/a
2268.418	n/a	PROB	1134209	n/a	LTP197	ltpFR	12	n/a	n/a	n/a	n/a	n/a	n/a	n/a	13	3	6	4	n/a	n/a	n/a	n/a	n/a
2270.148	n/a	PROB	1135074	n/a	LTP197	ltpFR	12	n/a	n/a	n/a	n/a	n/a	n/a	n/a	18	8	5	5	n/a	n/a	n/a	n/a	n/a
2272.6	n/a	STOP	1136300	n/a	LTP197	ltpFR	12	n/a	n/a	n/a	n/a	n/a	n/a	n/a	n/a	n/a	n/a	n/a	n/a	n/a	n/a	n/a	n/a
2275.042	n/a	WORD	1137521	wordpools/wasnorm_wordpool_less_exclusions.txt	LTP197	ltpFR	12	10	1	DOUGHNUT	490	n/a	n/a	0	n/a	0	0	0	0.57763671875	0.412841796875	1	lower	zerothre.ttf
2278.054	n/a	START	1139027	n/a	LTP197	ltpFR	12	n/a	n/a	n/a	n/a	n/a	n/a	n/a	n/a	n/a	n/a	n/a	n/a	n/a	n/a	n/a	n/a
2279.084	n/a	PROB	1139542	n/a	LTP197	ltpFR	12	n/a	n/a	n/a	n/a	n/a	n/a	n/a	16	7	8	1	n/a	n/a	n/a	n/a	n/a
2281.082	n/a	PROB	1140541	n/a	LTP197	ltpFR	12	n/a	n/a	n/a	n/a	n/a	n/a	n/a	18	7	2	9	n/a	n/a	n/a	n/a	n/a
2282.946	n/a	PROB	1141473	n/a	LTP197	ltpFR	12	n/a	n/a	n/a	n/a	n/a	n/a	n/a	11	4	6	1	n/a	n/a	n/a	n/a	n/a
2284.394	n/a	PROB	1142197	n/a	LTP197	ltpFR	12	n/a	n/a	n/a	n/a	n/a	n/a	n/a	9	2	6	1	n/a	n/a	n/a	n/a	n/a
2286.574	n/a	PROB	1143287	n/a	LTP197	ltpFR	12	n/a	n/a	n/a	n/a	n/a	n/a	n/a	20	8	9	3	n/a	n/a	n/a	n/a	n/a
2288.188	n/a	PROB	1144094	n/a	LTP197	ltpFR	12	n/a	n/a	n/a	n/a	n/a	n/a	n/a	21	7	9	5	n/a	n/a	n/a	n/a	n/a
2290.602	n/a	PROB	1145301	n/a	LTP197	ltpFR	12	n/a	n/a	n/a	n/a	n/a	n/a	n/a	15	9	4	2	n/a	n/a	n/a	n/a	n/a
2292.936	n/a	STOP	1146468	n/a	LTP197	ltpFR	12	n/a	n/a	n/a	n/a	n/a	n/a	n/a	n/a	n/a	n/a	n/a	n/a	n/a	n/a	n/a	n/a
2295.26	n/a	WORD	1147630	wordpools/wasnorm_wordpool_less_exclusions.txt	LTP197	ltpFR	12	10	1	VINE	1568	n/a	n/a	0	n/a	0	0	0	0.57763671875	0.412841796875	1	lower	zerothre.ttf
2298.274	n/a	START	1149137	n/a	LTP197	ltpFR	12	n/a	n/a	n/a	n/a	n/a	n/a	n/a	n/a	n/a	n/a	n/a	n/a	n/a	n/a	n/a	n/a
2299.272	n/a	PROB	1149636	n/a	LTP197	ltpFR	12	n/a	n/a	n/a	n/a	n/a	n/a	n/a	16	6	4	6	n/a	n/a	n/a	n/a	n/a
2301.302	n/a	PROB	1150651	n/a	LTP197	ltpFR	12	n/a	n/a	n/a	n/a	n/a	n/a	n/a	10	1	7	2	n/a	n/a	n/a	n/a	n/a
2303.316	n/a	PROB	1151658	n/a	LTP197	ltpFR	12	n/a	n/a	n/a	n/a	n/a	n/a	n/a	15	7	5	3	n/a	n/a	n/a	n/a	n/a
2305.262	n/a	PROB	1152631	n/a	LTP197	ltpFR	12	n/a	n/a	n/a	n/a	n/a	n/a	n/a	21	8	9	4	n/a	n/a	n/a	n/a	n/a
2307.726	n/a	PROB	1153863	n/a	LTP197	ltpFR	12	n/a	n/a	n/a	n/a	n/a	n/a	n/a	14	9	1	4	n/a	n/a	n/a	n/a	n/a
2309.34	n/a	PROB	1154670	n/a	LTP197	ltpFR	12	n/a	n/a	n/a	n/a	n/a	n/a	n/a	13	1	5	7	n/a	n/a	n/a	n/a	n/a
2311.088	n/a	PROB	1155544	n/a	LTP197	ltpFR	12	n/a	n/a	n/a	n/a	n/a	n/a	n/a	13	9	2	2	n/a	n/a	n/a	n/a	n/a
2312.744	n/a	STOP	1156372	n/a	LTP197	ltpFR	12	n/a	n/a	n/a	n/a	n/a	n/a	n/a	n/a	n/a	n/a	n/a	n/a	n/a	n/a	n/a	n/a
2315.398	n/a	WORD	1157699	wordpools/wasnorm_wordpool_less_exclusions.txt	LTP197	ltpFR	12	10	1	CHIMNEY	301	n/a	n/a	0	n/a	0	0	0	0.57763671875	0.412841796875	1	lower	zerothre.ttf
2318.41	n/a	START	1159205	n/a	LTP197	ltpFR	12	n/a	n/a	n/a	n/a	n/a	n/a	n/a	n/a	n/a	n/a	n/a	n/a	n/a	n/a	n/a	n/a
2319.358	n/a	PROB	1159679	n/a	LTP197	ltpFR	12	n/a	n/a	n/a	n/a	n/a	n/a	n/a	20	9	8	3	n/a	n/a	n/a	n/a	n/a
2321.47	n/a	PROB	1160735	n/a	LTP197	ltpFR	12	n/a	n/a	n/a	n/a	n/a	n/a	n/a	14	9	3	2	n/a	n/a	n/a	n/a	n/a
2323.484	n/a	PROB	1161742	n/a	LTP197	ltpFR	12	n/a	n/a	n/a	n/a	n/a	n/a	n/a	16	8	2	6	n/a	n/a	n/a	n/a	n/a
2324.868	n/a	PROB	1162434	n/a	LTP197	ltpFR	12	n/a	n/a	n/a	n/a	n/a	n/a	n/a	17	7	4	6	n/a	n/a	n/a	n/a	n/a
2327.38	n/a	PROB	1163690	n/a	LTP197	ltpFR	12	n/a	n/a	n/a	n/a	n/a	n/a	n/a	13	9	3	1	n/a	n/a	n/a	n/a	n/a
2329.128	n/a	PROB	1164564	n/a	LTP197	ltpFR	12	n/a	n/a	n/a	n/a	n/a	n/a	n/a	13	8	2	3	n/a	n/a	n/a	n/a	n/a
2330.826	n/a	PROB	1165413	n/a	LTP197	ltpFR	12	n/a	n/a	n/a	n/a	n/a	n/a	n/a	20	8	6	6	n/a	n/a	n/a	n/a	n/a
2334.412	n/a	STOP	1167206	n/a	LTP197	ltpFR	12	n/a	n/a	n/a	n/a	n/a	n/a	n/a	n/a	n/a	n/a	n/a	n/a	n/a	n/a	n/a	n/a
2335.236	n/a	WORD	1167618	wordpools/wasnorm_wordpool_less_exclusions.txt	LTP197	ltpFR	12	10	1	ZEBRA	1635	n/a	n/a	1	n/a	0	0	0	0.57763671875	0.412841796875	1	lower	zerothre.ttf
2338.248	n/a	START	1169124	n/a	LTP197	ltpFR	12	n/a	n/a	n/a	n/a	n/a	n/a	n/a	n/a	n/a	n/a	n/a	n/a	n/a	n/a	n/a	n/a
2339.362	n/a	PROB	1169681	n/a	LTP197	ltpFR	12	n/a	n/a	n/a	n/a	n/a	n/a	n/a	9	2	1	6	n/a	n/a	n/a	n/a	n/a
2341.558	n/a	PROB	1170779	n/a	LTP197	ltpFR	12	n/a	n/a	n/a	n/a	n/a	n/a	n/a	18	7	5	6	n/a	n/a	n/a	n/a	n/a
2343.274	n/a	PROB	1171637	n/a	LTP197	ltpFR	12	n/a	n/a	n/a	n/a	n/a	n/a	n/a	18	9	1	8	n/a	n/a	n/a	n/a	n/a
2344.672	n/a	PROB	1172336	n/a	LTP197	ltpFR	12	n/a	n/a	n/a	n/a	n/a	n/a	n/a	21	9	3	9	n/a	n/a	n/a	n/a	n/a
2346.318	n/a	PROB	1173159	n/a	LTP197	ltpFR	12	n/a	n/a	n/a	n/a	n/a	n/a	n/a	17	4	6	7	n/a	n/a	n/a	n/a	n/a
2347.784	n/a	PROB	1173892	n/a	LTP197	ltpFR	12	n/a	n/a	n/a	n/a	n/a	n/a	n/a	20	5	7	8	n/a	n/a	n/a	n/a	n/a
2349.43	n/a	PROB	1174715	n/a	LTP197	ltpFR	12	n/a	n/a	n/a	n/a	n/a	n/a	n/a	25	9	8	8	n/a	n/a	n/a	n/a	n/a
2351.51	n/a	PROB	1175755	n/a	LTP197	ltpFR	12	n/a	n/a	n/a	n/a	n/a	n/a	n/a	16	5	6	5	n/a	n/a	n/a	n/a	n/a
2353.85	n/a	STOP	1176925	n/a	LTP197	ltpFR	12	n/a	n/a	n/a	n/a	n/a	n/a	n/a	n/a	n/a	n/a	n/a	n/a	n/a	n/a	n/a	n/a
2355.122	n/a	WORD	1177561	wordpools/wasnorm_wordpool_less_exclusions.txt	LTP197	ltpFR	12	10	1	HORSE	719	n/a	n/a	1	n/a	0	0	0	0.57763671875	0.412841796875	1	lower	zerothre.ttf
2358.136	n/a	START	1179068	n/a	LTP197	ltpFR	12	n/a	n/a	n/a	n/a	n/a	n/a	n/a	n/a	n/a	n/a	n/a	n/a	n/a	n/a	n/a	n/a
2359.05	n/a	PROB	1179525	n/a	LTP197	ltpFR	12	n/a	n/a	n/a	n/a	n/a	n/a	n/a	17	6	4	7	n/a	n/a	n/a	n/a	n/a
2360.53	n/a	PROB	1180265	n/a	LTP197	ltpFR	12	n/a	n/a	n/a	n/a	n/a	n/a	n/a	13	3	1	9	n/a	n/a	n/a	n/a	n/a
2362.628	n/a	PROB	1181314	n/a	LTP197	ltpFR	12	n/a	n/a	n/a	n/a	n/a	n/a	n/a	7	1	4	2	n/a	n/a	n/a	n/a	n/a
2364.408	n/a	PROB	1182204	n/a	LTP197	ltpFR	12	n/a	n/a	n/a	n/a	n/a	n/a	n/a	13	3	3	7	n/a	n/a	n/a	n/a	n/a
2366.09	n/a	PROB	1183045	n/a	LTP197	ltpFR	12	n/a	n/a	n/a	n/a	n/a	n/a	n/a	6	4	1	1	n/a	n/a	n/a	n/a	n/a
2368.386	n/a	PROB	1184193	n/a	LTP197	ltpFR	12	n/a	n/a	n/a	n/a	n/a	n/a	n/a	11	8	2	1	n/a	n/a	n/a	n/a	n/a
2369.868	n/a	PROB	1184934	n/a	LTP197	ltpFR	12	n/a	n/a	n/a	n/a	n/a	n/a	n/a	17	6	5	6	n/a	n/a	n/a	n/a	n/a
2371.83	n/a	PROB	1185915	n/a	LTP197	ltpFR	12	n/a	n/a	n/a	n/a	n/a	n/a	n/a	7	1	5	1	n/a	n/a	n/a	n/a	n/a
2373.77	n/a	STOP	1186885	n/a	LTP197	ltpFR	12	n/a	n/a	n/a	n/a	n/a	n/a	n/a	n/a	n/a	n/a	n/a	n/a	n/a	n/a	n/a	n/a
2374.976	n/a	WORD	1187488	wordpools/wasnorm_wordpool_less_exclusions.txt	LTP197	ltpFR	12	10	1	PASSAGE	1019	n/a	n/a	0	n/a	0	0	0	0.57763671875	0.412841796875	1	lower	zerothre.ttf
2377.988	n/a	START	1188994	n/a	LTP197	ltpFR	12	n/a	n/a	n/a	n/a	n/a	n/a	n/a	n/a	n/a	n/a	n/a	n/a	n/a	n/a	n/a	n/a
2378.986	n/a	PROB	1189493	n/a	LTP197	ltpFR	12	n/a	n/a	n/a	n/a	n/a	n/a	n/a	20	9	5	6	n/a	n/a	n/a	n/a	n/a
2381.516	n/a	PROB	1190758	n/a	LTP197	ltpFR	12	n/a	n/a	n/a	n/a	n/a	n/a	n/a	17	5	8	4	n/a	n/a	n/a	n/a	n/a
2383.396	n/a	PROB	1191698	n/a	LTP197	ltpFR	12	n/a	n/a	n/a	n/a	n/a	n/a	n/a	14	4	3	7	n/a	n/a	n/a	n/a	n/a
2385.194	n/a	PROB	1192597	n/a	LTP197	ltpFR	12	n/a	n/a	n/a	n/a	n/a	n/a	n/a	16	5	3	8	n/a	n/a	n/a	n/a	n/a
2387.074	n/a	PROB	1193537	n/a	LTP197	ltpFR	12	n/a	n/a	n/a	n/a	n/a	n/a	n/a	16	8	7	2	n/a	n/a	n/a	n/a	n/a
2389.172	n/a	PROB	1194586	n/a	LTP197	ltpFR	12	n/a	n/a	n/a	n/a	n/a	n/a	n/a	17	3	8	6	n/a	n/a	n/a	n/a	n/a
2391.202	n/a	PROB	1195601	n/a	LTP197	ltpFR	12	n/a	n/a	n/a	n/a	n/a	n/a	n/a	16	9	4	3	n/a	n/a	n/a	n/a	n/a
2392.866	n/a	STOP	1196433	n/a	LTP197	ltpFR	12	n/a	n/a	n/a	n/a	n/a	n/a	n/a	n/a	n/a	n/a	n/a	n/a	n/a	n/a	n/a	n/a
2394.83	n/a	WORD	1197415	wordpools/wasnorm_wordpool_less_exclusions.txt	LTP197	ltpFR	12	10	1	MOLECULE	905	n/a	n/a	1	n/a	0	0	0	0.57763671875	0.412841796875	1	lower	zerothre.ttf
2397.844	n/a	START	1198922	n/a	LTP197	ltpFR	12	n/a	n/a	n/a	n/a	n/a	n/a	n/a	n/a	n/a	n/a	n/a	n/a	n/a	n/a	n/a	n/a
2398.808	n/a	PROB	1199404	n/a	LTP197	ltpFR	12	n/a	n/a	n/a	n/a	n/a	n/a	n/a	12	2	7	3	n/a	n/a	n/a	n/a	n/a
2400.14	n/a	PROB	1200070	n/a	LTP197	ltpFR	12	n/a	n/a	n/a	n/a	n/a	n/a	n/a	9	1	1	7	n/a	n/a	n/a	n/a	n/a
2401.936	n/a	PROB	1200968	n/a	LTP197	ltpFR	12	n/a	n/a	n/a	n/a	n/a	n/a	n/a	19	9	8	2	n/a	n/a	n/a	n/a	n/a
2403.402	n/a	PROB	1201701	n/a	LTP197	ltpFR	12	n/a	n/a	n/a	n/a	n/a	n/a	n/a	24	9	7	8	n/a	n/a	n/a	n/a	n/a
2406.214	n/a	PROB	1203107	n/a	LTP197	ltpFR	12	n/a	n/a	n/a	n/a	n/a	n/a	n/a	13	1	6	6	n/a	n/a	n/a	n/a	n/a
2408.394	n/a	PROB	1204197	n/a	LTP197	ltpFR	12	n/a	n/a	n/a	n/a	n/a	n/a	n/a	16	9	6	1	n/a	n/a	n/a	n/a	n/a
2413.826	n/a	STOP	1206913	n/a	LTP197	ltpFR	12	n/a	n/a	n/a	n/a	n/a	n/a	n/a	n/a	n/a	n/a	n/a	n/a	n/a	n/a	n/a	n/a
2414.8	n/a	WORD	1207400	wordpools/wasnorm_wordpool_less_exclusions.txt	LTP197	ltpFR	12	10	1	PRAIRIE	1118	n/a	n/a	1	n/a	0	0	0	0.57763671875	0.412841796875	1	lower	zerothre.ttf
2417.814	n/a	START	1208907	n/a	LTP197	ltpFR	12	n/a	n/a	n/a	n/a	n/a	n/a	n/a	n/a	n/a	n/a	n/a	n/a	n/a	n/a	n/a	n/a
2418.994	n/a	PROB	1209497	n/a	LTP197	ltpFR	12	n/a	n/a	n/a	n/a	n/a	n/a	n/a	17	8	1	8	n/a	n/a	n/a	n/a	n/a
2420.708	n/a	PROB	1210354	n/a	LTP197	ltpFR	12	n/a	n/a	n/a	n/a	n/a	n/a	n/a	14	2	4	8	n/a	n/a	n/a	n/a	n/a
2422.506	n/a	PROB	1211253	n/a	LTP197	ltpFR	12	n/a	n/a	n/a	n/a	n/a	n/a	n/a	21	8	9	4	n/a	n/a	n/a	n/a	n/a
2425.118	n/a	PROB	1212559	n/a	LTP197	ltpFR	12	n/a	n/a	n/a	n/a	n/a	n/a	n/a	12	2	3	7	n/a	n/a	n/a	n/a	n/a
2427.032	n/a	PROB	1213516	n/a	LTP197	ltpFR	12	n/a	n/a	n/a	n/a	n/a	n/a	n/a	14	8	1	5	n/a	n/a	n/a	n/a	n/a
2428.88	n/a	PROB	1214440	n/a	LTP197	ltpFR	12	n/a	n/a	n/a	n/a	n/a	n/a	n/a	20	8	5	7	n/a	n/a	n/a	n/a	n/a
2430.876	n/a	PROB	1215438	n/a	LTP197	ltpFR	12	n/a	n/a	n/a	n/a	n/a	n/a	n/a	16	7	2	7	n/a	n/a	n/a	n/a	n/a
2432.434	n/a	STOP	1216217	n/a	LTP197	ltpFR	12	n/a	n/a	n/a	n/a	n/a	n/a	n/a	n/a	n/a	n/a	n/a	n/a	n/a	n/a	n/a	n/a
2434.988	n/a	WORD	1217494	wordpools/wasnorm_wordpool_less_exclusions.txt	LTP197	ltpFR	12	10	1	RODENT	1204	n/a	n/a	1	n/a	0	0	0	0.57763671875	0.412841796875	1	lower	zerothre.ttf
2438.0	n/a	START	1219000	n/a	LTP197	ltpFR	12	n/a	n/a	n/a	n/a	n/a	n/a	n/a	n/a	n/a	n/a	n/a	n/a	n/a	n/a	n/a	n/a
