mstime	trial_type	stim_file	subject	experiment	session	trial	item_name	item_num	list	answer	test_x	test_y	test_z
0	SESS_START	n/a	LTP354	ltpFR2	5	n/a	n/a	n/a	n/a	n/a	0	0	0
14163	START	n/a	LTP354	ltpFR2	5	n/a	n/a	n/a	-1	n/a	n/a	n/a	n/a
14193	PROB	n/a	LTP354	ltpFR2	5	n/a	n/a	n/a	-1	5	2	3	2
15109	PROB	n/a	LTP354	ltpFR2	5	n/a	n/a	n/a	-1	5	2	4	8
15541	PROB	n/a	LTP354	ltpFR2	5	n/a	n/a	n/a	-1	5	7	6	9
15908	PROB	n/a	LTP354	ltpFR2	5	n/a	n/a	n/a	-1	5	2	4	9
16258	PROB	n/a	LTP354	ltpFR2	5	n/a	n/a	n/a	-1	5	7	3	5
16607	PROB	n/a	LTP354	ltpFR2	5	n/a	n/a	n/a	-1	5	3	6	9
16940	PROB	n/a	LTP354	ltpFR2	5	n/a	n/a	n/a	-1	5	7	4	4
17323	PROB	n/a	LTP354	ltpFR2	5	n/a	n/a	n/a	-1	5	7	4	3
17857	PROB	n/a	LTP354	ltpFR2	5	n/a	n/a	n/a	-1	55	9	6	2
19107	PROB	n/a	LTP354	ltpFR2	5	n/a	n/a	n/a	-1	5	4	9	6
20040	PROB	n/a	LTP354	ltpFR2	5	n/a	n/a	n/a	-1	5	7	5	6
20489	PROB	n/a	LTP354	ltpFR2	5	n/a	n/a	n/a	-1	5	3	2	6
22239	PROB	n/a	LTP354	ltpFR2	5	n/a	n/a	n/a	-1	19	3	7	9
24138	PROB	n/a	LTP354	ltpFR2	5	n/a	n/a	n/a	-1	10	4	1	5
25339	STOP	n/a	LTP354	ltpFR2	5	n/a	n/a	n/a	-1	n/a	n/a	n/a	n/a
66616	WORD	wordpools/wasnorm_wordpool_576.txt	LTP354	ltpFR2	5	1	PARENT	1013	n/a	n/a	0	0	0
69132	WORD	wordpools/wasnorm_wordpool_576.txt	LTP354	ltpFR2	5	1	PUDDING	1139	n/a	n/a	0	0	0
71680	WORD	wordpools/wasnorm_wordpool_576.txt	LTP354	ltpFR2	5	1	OUTLAW	989	n/a	n/a	0	0	0
74263	WORD	wordpools/wasnorm_wordpool_576.txt	LTP354	ltpFR2	5	1	DAUGHTER	442	n/a	n/a	0	0	0
76694	WORD	wordpools/wasnorm_wordpool_576.txt	LTP354	ltpFR2	5	1	PRINCE	1124	n/a	n/a	0	0	0
79227	WORD	wordpools/wasnorm_wordpool_576.txt	LTP354	ltpFR2	5	1	ACTRESS	6	n/a	n/a	0	0	0
81758	WORD	wordpools/wasnorm_wordpool_576.txt	LTP354	ltpFR2	5	1	BLUEPRINT	142	n/a	n/a	0	0	0
84457	WORD	wordpools/wasnorm_wordpool_576.txt	LTP354	ltpFR2	5	1	PLAZA	1088	n/a	n/a	0	0	0
87156	WORD	wordpools/wasnorm_wordpool_576.txt	LTP354	ltpFR2	5	1	MEAT	883	n/a	n/a	0	0	0
89654	WORD	wordpools/wasnorm_wordpool_576.txt	LTP354	ltpFR2	5	1	SNACK	1331	n/a	n/a	0	0	0
92087	WORD	wordpools/wasnorm_wordpool_576.txt	LTP354	ltpFR2	5	1	MACHINE	852	n/a	n/a	0	0	0
94535	WORD	wordpools/wasnorm_wordpool_576.txt	LTP354	ltpFR2	5	1	TUBA	1515	n/a	n/a	0	0	0
97218	WORD	wordpools/wasnorm_wordpool_576.txt	LTP354	ltpFR2	5	1	PIANO	1057	n/a	n/a	0	0	0
99866	WORD	wordpools/wasnorm_wordpool_576.txt	LTP354	ltpFR2	5	1	TUNNEL	1519	n/a	n/a	0	0	0
102481	WORD	wordpools/wasnorm_wordpool_576.txt	LTP354	ltpFR2	5	1	HOSTESS	723	n/a	n/a	0	0	0
105031	WORD	wordpools/wasnorm_wordpool_576.txt	LTP354	ltpFR2	5	1	BANKER	84	n/a	n/a	0	0	0
107612	WORD	wordpools/wasnorm_wordpool_576.txt	LTP354	ltpFR2	5	1	FILM	565	n/a	n/a	0	0	0
110245	WORD	wordpools/wasnorm_wordpool_576.txt	LTP354	ltpFR2	5	1	CEILING	265	n/a	n/a	0	0	0
113077	WORD	wordpools/wasnorm_wordpool_576.txt	LTP354	ltpFR2	5	1	PLASTER	1085	n/a	n/a	0	0	0
115825	WORD	wordpools/wasnorm_wordpool_576.txt	LTP354	ltpFR2	5	1	COFFEE	341	n/a	n/a	0	0	0
118340	WORD	wordpools/wasnorm_wordpool_576.txt	LTP354	ltpFR2	5	1	POPCORN	1104	n/a	n/a	0	0	0
120822	WORD	wordpools/wasnorm_wordpool_576.txt	LTP354	ltpFR2	5	1	SUBWAY	1400	n/a	n/a	0	0	0
123454	WORD	wordpools/wasnorm_wordpool_576.txt	LTP354	ltpFR2	5	1	MARS	873	n/a	n/a	0	0	0
126120	WORD	wordpools/wasnorm_wordpool_576.txt	LTP354	ltpFR2	5	1	COIN	343	n/a	n/a	0	0	0
127736	START	n/a	LTP354	ltpFR2	5	n/a	n/a	n/a	1	n/a	n/a	n/a	n/a
128897	DISTRACTOR	n/a	LTP354	ltpFR2	5	1	n/a	n/a	n/a	n/a	0	0	0
128918	PROB	n/a	LTP354	ltpFR2	5	n/a	n/a	n/a	1	13	8	4	1
131085	PROB	n/a	LTP354	ltpFR2	5	n/a	n/a	n/a	1	14	4	3	7
132466	PROB	n/a	LTP354	ltpFR2	5	n/a	n/a	n/a	1	6	1	4	1
133632	PROB	n/a	LTP354	ltpFR2	5	n/a	n/a	n/a	1	15	9	4	2
135049	PROB	n/a	LTP354	ltpFR2	5	n/a	n/a	n/a	1	15	5	8	2
137015	PROB	n/a	LTP354	ltpFR2	5	n/a	n/a	n/a	1	16	2	7	4
138680	PROB	n/a	LTP354	ltpFR2	5	n/a	n/a	n/a	1	21	8	4	9
140829	PROB	n/a	LTP354	ltpFR2	5	n/a	n/a	n/a	1	14	1	9	4
142063	PROB	n/a	LTP354	ltpFR2	5	n/a	n/a	n/a	1	13	6	5	2
143428	PROB	n/a	LTP354	ltpFR2	5	n/a	n/a	n/a	1	11	4	3	4
144777	PROB	n/a	LTP354	ltpFR2	5	n/a	n/a	n/a	1	11	5	2	4
146111	PROB	n/a	LTP354	ltpFR2	5	n/a	n/a	n/a	1	15	6	7	2
147426	PROB	n/a	LTP354	ltpFR2	5	n/a	n/a	n/a	1	21	9	3	9
148825	PROB	n/a	LTP354	ltpFR2	5	n/a	n/a	n/a	1	13	5	4	4
150795	STOP	n/a	LTP354	ltpFR2	5	n/a	n/a	n/a	1	n/a	n/a	n/a	n/a
153656	REC_START	n/a	LTP354	ltpFR2	5	1	n/a	n/a	n/a	n/a	0	0	0
156835	REC_WORD	wordpools/wasnorm_wordpool_576.txt	LTP354	ltpFR2	5	1	OUTLAW	989	n/a	n/a	0	0	0
158109	REC_WORD	wordpools/wasnorm_wordpool_576.txt	LTP354	ltpFR2	5	1	DAUGHTER	442	n/a	n/a	0	0	0
159510	REC_WORD	wordpools/wasnorm_wordpool_576.txt	LTP354	ltpFR2	5	1	PARENT	1013	n/a	n/a	0	0	0
161030	REC_WORD	wordpools/wasnorm_wordpool_576.txt	LTP354	ltpFR2	5	1	PUDDING	1139	n/a	n/a	0	0	0
162349	REC_WORD	wordpools/wasnorm_wordpool_576.txt	LTP354	ltpFR2	5	1	BANKER	84	n/a	n/a	0	0	0
163973	REC_WORD	wordpools/wasnorm_wordpool_576.txt	LTP354	ltpFR2	5	1	COIN	343	n/a	n/a	0	0	0
166647	REC_WORD	wordpools/wasnorm_wordpool_576.txt	LTP354	ltpFR2	5	1	PLAZA	1088	n/a	n/a	0	0	0
169412	REC_WORD	wordpools/wasnorm_wordpool_576.txt	LTP354	ltpFR2	5	1	MEAT	883	n/a	n/a	0	0	0
171814	REC_WORD	wordpools/wasnorm_wordpool_576.txt	LTP354	ltpFR2	5	1	SUBWAY	1400	n/a	n/a	0	0	0
176677	REC_WORD	wordpools/wasnorm_wordpool_576.txt	LTP354	ltpFR2	5	1	MACHINE	852	n/a	n/a	0	0	0
196264	REC_WORD	wordpools/wasnorm_wordpool_576.txt	LTP354	ltpFR2	5	1	CEILING	265	n/a	n/a	0	0	0
207344	REC_WORD	wordpools/wasnorm_wordpool_576.txt	LTP354	ltpFR2	5	1	COFFEE	341	n/a	n/a	0	0	0
209223	REC_WORD	wordpools/wasnorm_wordpool_576.txt	LTP354	ltpFR2	5	1	PRINCE	1124	n/a	n/a	0	0	0
219364	REC_WORD	wordpools/wasnorm_wordpool_576.txt	LTP354	ltpFR2	5	1	BUILDING	191	n/a	n/a	0	0	0
244129	DISTRACTOR	n/a	LTP354	ltpFR2	5	2	n/a	n/a	n/a	n/a	0	0	0
244129	START	n/a	LTP354	ltpFR2	5	n/a	n/a	n/a	2	n/a	n/a	n/a	n/a
244145	PROB	n/a	LTP354	ltpFR2	5	n/a	n/a	n/a	2	10	3	5	2
246044	PROB	n/a	LTP354	ltpFR2	5	n/a	n/a	n/a	2	21	8	9	4
247892	PROB	n/a	LTP354	ltpFR2	5	n/a	n/a	n/a	2	13	7	2	4
249475	PROB	n/a	LTP354	ltpFR2	5	n/a	n/a	n/a	2	11	7	1	3
250691	PROB	n/a	LTP354	ltpFR2	5	n/a	n/a	n/a	2	10	2	7	1
252373	PROB	n/a	LTP354	ltpFR2	5	n/a	n/a	n/a	2	11	4	1	6
253373	PROB	n/a	LTP354	ltpFR2	5	n/a	n/a	n/a	2	11	4	4	3
254472	PROB	n/a	LTP354	ltpFR2	5	n/a	n/a	n/a	2	11	3	5	3
256355	PROB	n/a	LTP354	ltpFR2	5	n/a	n/a	n/a	2	19	5	9	5
257721	PROB	n/a	LTP354	ltpFR2	5	n/a	n/a	n/a	2	15	1	5	9
258987	PROB	n/a	LTP354	ltpFR2	5	n/a	n/a	n/a	2	4	1	1	2
260121	PROB	n/a	LTP354	ltpFR2	5	n/a	n/a	n/a	2	20	5	8	7
262402	PROB	n/a	LTP354	ltpFR2	5	n/a	n/a	n/a	2	19	2	9	8
263718	PROB	n/a	LTP354	ltpFR2	5	n/a	n/a	n/a	2	14	9	2	3
268129	STOP	n/a	LTP354	ltpFR2	5	n/a	n/a	n/a	2	n/a	n/a	n/a	n/a
268965	WORD	wordpools/wasnorm_wordpool_576.txt	LTP354	ltpFR2	5	2	POISON	1096	n/a	n/a	0	0	0
271780	WORD	wordpools/wasnorm_wordpool_576.txt	LTP354	ltpFR2	5	2	GRILL	661	n/a	n/a	0	0	0
274297	WORD	wordpools/wasnorm_wordpool_576.txt	LTP354	ltpFR2	5	2	POSTAGE	1113	n/a	n/a	0	0	0
276795	WORD	wordpools/wasnorm_wordpool_576.txt	LTP354	ltpFR2	5	2	SUNRISE	1407	n/a	n/a	0	0	0
279327	WORD	wordpools/wasnorm_wordpool_576.txt	LTP354	ltpFR2	5	2	SUNSET	1408	n/a	n/a	0	0	0
282093	WORD	wordpools/wasnorm_wordpool_576.txt	LTP354	ltpFR2	5	2	PASTA	1021	n/a	n/a	0	0	0
284674	WORD	wordpools/wasnorm_wordpool_576.txt	LTP354	ltpFR2	5	2	LOFT	840	n/a	n/a	0	0	0
287190	WORD	wordpools/wasnorm_wordpool_576.txt	LTP354	ltpFR2	5	2	COUCH	386	n/a	n/a	0	0	0
289705	WORD	wordpools/wasnorm_wordpool_576.txt	LTP354	ltpFR2	5	2	PIGEON	1065	n/a	n/a	0	0	0
292520	WORD	wordpools/wasnorm_wordpool_576.txt	LTP354	ltpFR2	5	2	CARROT	249	n/a	n/a	0	0	0
295203	WORD	wordpools/wasnorm_wordpool_576.txt	LTP354	ltpFR2	5	2	GRAVEL	659	n/a	n/a	0	0	0
297634	WORD	wordpools/wasnorm_wordpool_576.txt	LTP354	ltpFR2	5	2	CLOTHES	327	n/a	n/a	0	0	0
300134	WORD	wordpools/wasnorm_wordpool_576.txt	LTP354	ltpFR2	5	2	CASKET	255	n/a	n/a	0	0	0
302715	WORD	wordpools/wasnorm_wordpool_576.txt	LTP354	ltpFR2	5	2	OUTDOORS	987	n/a	n/a	0	0	0
305182	WORD	wordpools/wasnorm_wordpool_576.txt	LTP354	ltpFR2	5	2	TRUCK	1512	n/a	n/a	0	0	0
307663	WORD	wordpools/wasnorm_wordpool_576.txt	LTP354	ltpFR2	5	2	HOOD	714	n/a	n/a	0	0	0
310328	WORD	wordpools/wasnorm_wordpool_576.txt	LTP354	ltpFR2	5	2	RABBIT	1152	n/a	n/a	0	0	0
312960	WORD	wordpools/wasnorm_wordpool_576.txt	LTP354	ltpFR2	5	2	SHOULDER	1294	n/a	n/a	0	0	0
315659	WORD	wordpools/wasnorm_wordpool_576.txt	LTP354	ltpFR2	5	2	INMATE	738	n/a	n/a	0	0	0
318474	WORD	wordpools/wasnorm_wordpool_576.txt	LTP354	ltpFR2	5	2	FOREST	593	n/a	n/a	0	0	0
321024	WORD	wordpools/wasnorm_wordpool_576.txt	LTP354	ltpFR2	5	2	FRIEND	606	n/a	n/a	0	0	0
323805	WORD	wordpools/wasnorm_wordpool_576.txt	LTP354	ltpFR2	5	2	PICNIC	1060	n/a	n/a	0	0	0
326453	WORD	wordpools/wasnorm_wordpool_576.txt	LTP354	ltpFR2	5	2	SALAD	1224	n/a	n/a	0	0	0
328886	WORD	wordpools/wasnorm_wordpool_576.txt	LTP354	ltpFR2	5	2	EXPERT	543	n/a	n/a	0	0	0
330502	START	n/a	LTP354	ltpFR2	5	n/a	n/a	n/a	3	n/a	n/a	n/a	n/a
331414	DISTRACTOR	n/a	LTP354	ltpFR2	5	2	n/a	n/a	n/a	n/a	0	0	0
331418	PROB	n/a	LTP354	ltpFR2	5	n/a	n/a	n/a	3	8	3	2	3
334250	PROB	n/a	LTP354	ltpFR2	5	n/a	n/a	n/a	3	12	6	4	2
335482	PROB	n/a	LTP354	ltpFR2	5	n/a	n/a	n/a	3	26	9	9	8
337581	PROB	n/a	LTP354	ltpFR2	5	n/a	n/a	n/a	3	16	6	1	9
339015	PROB	n/a	LTP354	ltpFR2	5	n/a	n/a	n/a	3	9	3	3	3
340031	PROB	n/a	LTP354	ltpFR2	5	n/a	n/a	n/a	3	18	8	6	4
341164	PROB	n/a	LTP354	ltpFR2	5	n/a	n/a	n/a	3	15	6	4	5
342246	PROB	n/a	LTP354	ltpFR2	5	n/a	n/a	n/a	3	24	8	9	7
345295	PROB	n/a	LTP354	ltpFR2	5	n/a	n/a	n/a	3	9	2	2	5
346843	PROB	n/a	LTP354	ltpFR2	5	n/a	n/a	n/a	3	14	2	4	8
348277	PROB	n/a	LTP354	ltpFR2	5	n/a	n/a	n/a	3	16	2	6	8
349409	PROB	n/a	LTP354	ltpFR2	5	n/a	n/a	n/a	3	21	7	8	6
350925	PROB	n/a	LTP354	ltpFR2	5	n/a	n/a	n/a	3	14	8	5	1
352357	PROB	n/a	LTP354	ltpFR2	5	n/a	n/a	n/a	3	12	4	5	3
353699	STOP	n/a	LTP354	ltpFR2	5	n/a	n/a	n/a	3	n/a	n/a	n/a	n/a
356356	REC_START	n/a	LTP354	ltpFR2	5	2	n/a	n/a	n/a	n/a	0	0	0
365614	REC_WORD	wordpools/wasnorm_wordpool_576.txt	LTP354	ltpFR2	5	2	GRAVEL	659	n/a	n/a	0	0	0
368891	REC_WORD	wordpools/wasnorm_wordpool_576.txt	LTP354	ltpFR2	5	2	POISON	1096	n/a	n/a	0	0	0
446827	DISTRACTOR	n/a	LTP354	ltpFR2	5	3	n/a	n/a	n/a	n/a	0	0	0
446827	START	n/a	LTP354	ltpFR2	5	n/a	n/a	n/a	4	n/a	n/a	n/a	n/a
446844	PROB	n/a	LTP354	ltpFR2	5	n/a	n/a	n/a	4	14	4	8	2
448161	PROB	n/a	LTP354	ltpFR2	5	n/a	n/a	n/a	4	7	1	1	5
449293	PROB	n/a	LTP354	ltpFR2	5	n/a	n/a	n/a	4	18	4	8	6
450758	PROB	n/a	LTP354	ltpFR2	5	n/a	n/a	n/a	4	15	5	2	8
452175	PROB	n/a	LTP354	ltpFR2	5	n/a	n/a	n/a	4	16	4	4	8
453790	PROB	n/a	LTP354	ltpFR2	5	n/a	n/a	n/a	4	18	5	6	7
456073	PROB	n/a	LTP354	ltpFR2	5	n/a	n/a	n/a	4	11	7	2	2
457572	PROB	n/a	LTP354	ltpFR2	5	n/a	n/a	n/a	4	21	9	9	4
459272	PROB	n/a	LTP354	ltpFR2	5	n/a	n/a	n/a	4	21	7	7	7
461403	PROB	n/a	LTP354	ltpFR2	5	n/a	n/a	n/a	4	13	5	6	2
463552	PROB	n/a	LTP354	ltpFR2	5	n/a	n/a	n/a	4	17	1	9	7
464718	PROB	n/a	LTP354	ltpFR2	5	n/a	n/a	n/a	4	11	5	5	1
465967	PROB	n/a	LTP354	ltpFR2	5	n/a	n/a	n/a	4	19	7	9	3
468599	PROB	n/a	LTP354	ltpFR2	5	n/a	n/a	n/a	4	13	4	4	5
470419	STOP	n/a	LTP354	ltpFR2	5	n/a	n/a	n/a	4	n/a	n/a	n/a	n/a
471715	WORD	wordpools/wasnorm_wordpool_576.txt	LTP354	ltpFR2	5	3	SODA	1341	n/a	n/a	0	0	0
474397	WORD	wordpools/wasnorm_wordpool_576.txt	LTP354	ltpFR2	5	3	POET	1095	n/a	n/a	0	0	0
476845	WORD	wordpools/wasnorm_wordpool_576.txt	LTP354	ltpFR2	5	3	GHETTO	633	n/a	n/a	0	0	0
479295	WORD	wordpools/wasnorm_wordpool_576.txt	LTP354	ltpFR2	5	3	FARMER	553	n/a	n/a	0	0	0
481926	WORD	wordpools/wasnorm_wordpool_576.txt	LTP354	ltpFR2	5	3	CATTLE	261	n/a	n/a	0	0	0
484492	WORD	wordpools/wasnorm_wordpool_576.txt	LTP354	ltpFR2	5	3	BRAKE	166	n/a	n/a	0	0	0
487025	WORD	wordpools/wasnorm_wordpool_576.txt	LTP354	ltpFR2	5	3	BACKBONE	66	n/a	n/a	0	0	0
489789	WORD	wordpools/wasnorm_wordpool_576.txt	LTP354	ltpFR2	5	3	FRAGRANCE	599	n/a	n/a	0	0	0
492488	WORD	wordpools/wasnorm_wordpool_576.txt	LTP354	ltpFR2	5	3	PERFUME	1049	n/a	n/a	0	0	0
495021	WORD	wordpools/wasnorm_wordpool_576.txt	LTP354	ltpFR2	5	3	MILDEW	893	n/a	n/a	0	0	0
497835	WORD	wordpools/wasnorm_wordpool_576.txt	LTP354	ltpFR2	5	3	MAPLE	866	n/a	n/a	0	0	0
500484	WORD	wordpools/wasnorm_wordpool_576.txt	LTP354	ltpFR2	5	3	BRICK	172	n/a	n/a	0	0	0
503083	WORD	wordpools/wasnorm_wordpool_576.txt	LTP354	ltpFR2	5	3	DANCER	437	n/a	n/a	0	0	0
505631	WORD	wordpools/wasnorm_wordpool_576.txt	LTP354	ltpFR2	5	3	KEEPER	769	n/a	n/a	0	0	0
508181	WORD	wordpools/wasnorm_wordpool_576.txt	LTP354	ltpFR2	5	3	CROSS	413	n/a	n/a	0	0	0
510978	WORD	wordpools/wasnorm_wordpool_576.txt	LTP354	ltpFR2	5	3	BRANCH	168	n/a	n/a	0	0	0
513577	WORD	wordpools/wasnorm_wordpool_576.txt	LTP354	ltpFR2	5	3	LABEL	790	n/a	n/a	0	0	0
516376	WORD	wordpools/wasnorm_wordpool_576.txt	LTP354	ltpFR2	5	3	CONCERT	360	n/a	n/a	0	0	0
519009	WORD	wordpools/wasnorm_wordpool_576.txt	LTP354	ltpFR2	5	3	SUSPECT	1415	n/a	n/a	0	0	0
521473	WORD	wordpools/wasnorm_wordpool_576.txt	LTP354	ltpFR2	5	3	CLOCK	325	n/a	n/a	0	0	0
524173	WORD	wordpools/wasnorm_wordpool_576.txt	LTP354	ltpFR2	5	3	HUMAN	726	n/a	n/a	0	0	0
526721	WORD	wordpools/wasnorm_wordpool_576.txt	LTP354	ltpFR2	5	3	OX	994	n/a	n/a	0	0	0
529369	WORD	wordpools/wasnorm_wordpool_576.txt	LTP354	ltpFR2	5	3	VIRUS	1572	n/a	n/a	0	0	0
531901	WORD	wordpools/wasnorm_wordpool_576.txt	LTP354	ltpFR2	5	3	BLOCKADE	137	n/a	n/a	0	0	0
533517	START	n/a	LTP354	ltpFR2	5	n/a	n/a	n/a	5	n/a	n/a	n/a	n/a
534392	DISTRACTOR	n/a	LTP354	ltpFR2	5	3	n/a	n/a	n/a	n/a	0	0	0
534400	PROB	n/a	LTP354	ltpFR2	5	n/a	n/a	n/a	5	16	7	4	5
536666	PROB	n/a	LTP354	ltpFR2	5	n/a	n/a	n/a	5	13	1	7	5
538016	PROB	n/a	LTP354	ltpFR2	5	n/a	n/a	n/a	5	12	4	4	4
539132	PROB	n/a	LTP354	ltpFR2	5	n/a	n/a	n/a	5	24	9	6	9
540514	PROB	n/a	LTP354	ltpFR2	5	n/a	n/a	n/a	5	9	4	1	4
541930	PROB	n/a	LTP354	ltpFR2	5	n/a	n/a	n/a	5	15	7	3	5
543147	PROB	n/a	LTP354	ltpFR2	5	n/a	n/a	n/a	5	15	4	5	6
544578	PROB	n/a	LTP354	ltpFR2	5	n/a	n/a	n/a	5	16	5	4	7
546661	PROB	n/a	LTP354	ltpFR2	5	n/a	n/a	n/a	5	12	3	5	4
549127	PROB	n/a	LTP354	ltpFR2	5	n/a	n/a	n/a	5	16	5	5	6
550342	PROB	n/a	LTP354	ltpFR2	5	n/a	n/a	n/a	5	11	1	4	6
551442	PROB	n/a	LTP354	ltpFR2	5	n/a	n/a	n/a	5	8	2	5	1
552608	PROB	n/a	LTP354	ltpFR2	5	n/a	n/a	n/a	5	15	6	2	7
554523	PROB	n/a	LTP354	ltpFR2	5	n/a	n/a	n/a	5	12	6	1	5
556267	STOP	n/a	LTP354	ltpFR2	5	n/a	n/a	n/a	5	n/a	n/a	n/a	n/a
559306	REC_START	n/a	LTP354	ltpFR2	5	3	n/a	n/a	n/a	n/a	0	0	0
563852	REC_WORD	wordpools/wasnorm_wordpool_576.txt	LTP354	ltpFR2	5	3	GHETTO	633	n/a	n/a	0	0	0
565798	REC_WORD	wordpools/wasnorm_wordpool_576.txt	LTP354	ltpFR2	5	3	CATTLE	261	n/a	n/a	0	0	0
589016	REC_WORD	wordpools/wasnorm_wordpool_576.txt	LTP354	ltpFR2	5	3	MAPLE	866	n/a	n/a	0	0	0
608525	REC_WORD	wordpools/wasnorm_wordpool_576.txt	LTP354	ltpFR2	5	3	SUITCASE	1403	n/a	n/a	0	0	0
630170	REC_WORD	wordpools/wasnorm_wordpool_576.txt	LTP354	ltpFR2	5	3	VIRUS	1572	n/a	n/a	0	0	0
649776	WORD	wordpools/wasnorm_wordpool_576.txt	LTP354	ltpFR2	5	4	TERMITE	1451	n/a	n/a	0	0	0
652243	WORD	wordpools/wasnorm_wordpool_576.txt	LTP354	ltpFR2	5	4	COCOON	339	n/a	n/a	0	0	0
654740	WORD	wordpools/wasnorm_wordpool_576.txt	LTP354	ltpFR2	5	4	HEADBAND	696	n/a	n/a	0	0	0
657207	WORD	wordpools/wasnorm_wordpool_576.txt	LTP354	ltpFR2	5	4	ATLAS	53	n/a	n/a	0	0	0
660022	WORD	wordpools/wasnorm_wordpool_576.txt	LTP354	ltpFR2	5	4	SHELF	1280	n/a	n/a	0	0	0
662686	WORD	wordpools/wasnorm_wordpool_576.txt	LTP354	ltpFR2	5	4	CELLAR	267	n/a	n/a	0	0	0
665402	WORD	wordpools/wasnorm_wordpool_576.txt	LTP354	ltpFR2	5	4	BABY	64	n/a	n/a	0	0	0
668085	WORD	wordpools/wasnorm_wordpool_576.txt	LTP354	ltpFR2	5	4	ROOSTER	1209	n/a	n/a	0	0	0
670682	WORD	wordpools/wasnorm_wordpool_576.txt	LTP354	ltpFR2	5	4	ROD	1203	n/a	n/a	0	0	0
673481	WORD	wordpools/wasnorm_wordpool_576.txt	LTP354	ltpFR2	5	4	BEAST	108	n/a	n/a	0	0	0
676064	WORD	wordpools/wasnorm_wordpool_576.txt	LTP354	ltpFR2	5	4	SLOPE	1328	n/a	n/a	0	0	0
678745	WORD	wordpools/wasnorm_wordpool_576.txt	LTP354	ltpFR2	5	4	CLIMBER	323	n/a	n/a	0	0	0
681460	WORD	wordpools/wasnorm_wordpool_576.txt	LTP354	ltpFR2	5	4	HAWK	692	n/a	n/a	0	0	0
684193	WORD	wordpools/wasnorm_wordpool_576.txt	LTP354	ltpFR2	5	4	SCRIBBLE	1256	n/a	n/a	0	0	0
686974	WORD	wordpools/wasnorm_wordpool_576.txt	LTP354	ltpFR2	5	4	BOARD	143	n/a	n/a	0	0	0
689407	WORD	wordpools/wasnorm_wordpool_576.txt	LTP354	ltpFR2	5	4	FREEZER	604	n/a	n/a	0	0	0
692039	WORD	wordpools/wasnorm_wordpool_576.txt	LTP354	ltpFR2	5	4	SEAGULL	1261	n/a	n/a	0	0	0
694621	WORD	wordpools/wasnorm_wordpool_576.txt	LTP354	ltpFR2	5	4	DRAWING	494	n/a	n/a	0	0	0
697220	WORD	wordpools/wasnorm_wordpool_576.txt	LTP354	ltpFR2	5	4	DENTIST	447	n/a	n/a	0	0	0
700035	WORD	wordpools/wasnorm_wordpool_576.txt	LTP354	ltpFR2	5	4	RATTLE	1170	n/a	n/a	0	0	0
702816	WORD	wordpools/wasnorm_wordpool_576.txt	LTP354	ltpFR2	5	4	PERCH	1048	n/a	n/a	0	0	0
705283	WORD	wordpools/wasnorm_wordpool_576.txt	LTP354	ltpFR2	5	4	APRON	35	n/a	n/a	0	0	0
707847	WORD	wordpools/wasnorm_wordpool_576.txt	LTP354	ltpFR2	5	4	ATOM	55	n/a	n/a	0	0	0
710346	WORD	wordpools/wasnorm_wordpool_576.txt	LTP354	ltpFR2	5	4	COOKBOOK	373	n/a	n/a	0	0	0
711962	START	n/a	LTP354	ltpFR2	5	n/a	n/a	n/a	6	n/a	n/a	n/a	n/a
712979	DISTRACTOR	n/a	LTP354	ltpFR2	5	4	n/a	n/a	n/a	n/a	0	0	0
712995	PROB	n/a	LTP354	ltpFR2	5	n/a	n/a	n/a	6	18	3	9	6
715161	PROB	n/a	LTP354	ltpFR2	5	n/a	n/a	n/a	6	13	2	4	7
716926	PROB	n/a	LTP354	ltpFR2	5	n/a	n/a	n/a	6	10	4	1	5
718260	PROB	n/a	LTP354	ltpFR2	5	n/a	n/a	n/a	6	7	2	2	3
719525	PROB	n/a	LTP354	ltpFR2	5	n/a	n/a	n/a	6	16	9	5	2
720891	PROB	n/a	LTP354	ltpFR2	5	n/a	n/a	n/a	6	6	3	2	1
721924	PROB	n/a	LTP354	ltpFR2	5	n/a	n/a	n/a	6	12	3	5	4
723939	PROB	n/a	LTP354	ltpFR2	5	n/a	n/a	n/a	6	14	2	4	8
725372	PROB	n/a	LTP354	ltpFR2	5	n/a	n/a	n/a	6	12	4	6	2
726538	PROB	n/a	LTP354	ltpFR2	5	n/a	n/a	n/a	6	13	5	2	6
727854	PROB	n/a	LTP354	ltpFR2	5	n/a	n/a	n/a	6	10	4	5	1
729271	PROB	n/a	LTP354	ltpFR2	5	n/a	n/a	n/a	6	19	6	9	4
732153	PROB	n/a	LTP354	ltpFR2	5	n/a	n/a	n/a	6	18	6	9	3
734168	PROB	n/a	LTP354	ltpFR2	5	n/a	n/a	n/a	6	8	2	2	4
735475	STOP	n/a	LTP354	ltpFR2	5	n/a	n/a	n/a	6	n/a	n/a	n/a	n/a
737866	REC_START	n/a	LTP354	ltpFR2	5	4	n/a	n/a	n/a	n/a	0	0	0
742252	REC_WORD	wordpools/wasnorm_wordpool_576.txt	LTP354	ltpFR2	5	4	RATTLE	1170	n/a	n/a	0	0	0
757674	REC_WORD	wordpools/wasnorm_wordpool_576.txt	LTP354	ltpFR2	5	4	COOKBOOK	373	n/a	n/a	0	0	0
764594	REC_WORD	wordpools/wasnorm_wordpool_576.txt	LTP354	ltpFR2	5	4	MINER	896	n/a	n/a	0	0	0
771642	REC_WORD	wordpools/wasnorm_wordpool_576.txt	LTP354	ltpFR2	5	4	SLOPE	1328	n/a	n/a	0	0	0
792676	REC_WORD	wordpools/wasnorm_wordpool_576.txt	LTP354	ltpFR2	5	4	ROOSTER	1209	n/a	n/a	0	0	0
828305	DISTRACTOR	n/a	LTP354	ltpFR2	5	5	n/a	n/a	n/a	n/a	0	0	0
828305	START	n/a	LTP354	ltpFR2	5	n/a	n/a	n/a	7	n/a	n/a	n/a	n/a
828322	PROB	n/a	LTP354	ltpFR2	5	n/a	n/a	n/a	7	14	4	3	7
829587	PROB	n/a	LTP354	ltpFR2	5	n/a	n/a	n/a	7	20	8	4	8
831519	PROB	n/a	LTP354	ltpFR2	5	n/a	n/a	n/a	7	6	1	1	4
832635	PROB	n/a	LTP354	ltpFR2	5	n/a	n/a	n/a	7	20	8	9	3
834252	PROB	n/a	LTP354	ltpFR2	5	n/a	n/a	n/a	7	17	8	3	6
836533	PROB	n/a	LTP354	ltpFR2	5	n/a	n/a	n/a	7	9	3	1	5
838616	PROB	n/a	LTP354	ltpFR2	5	n/a	n/a	n/a	7	13	7	1	5
840216	PROB	n/a	LTP354	ltpFR2	5	n/a	n/a	n/a	7	19	8	7	4
842630	PROB	n/a	LTP354	ltpFR2	5	n/a	n/a	n/a	7	10	2	7	1
843863	PROB	n/a	LTP354	ltpFR2	5	n/a	n/a	n/a	7	14	3	6	5
845280	PROB	n/a	LTP354	ltpFR2	5	n/a	n/a	n/a	7	15	7	2	6
847063	PROB	n/a	LTP354	ltpFR2	5	n/a	n/a	n/a	7	22	8	5	9
849427	PROB	n/a	LTP354	ltpFR2	5	n/a	n/a	n/a	7	12	5	6	1
852305	STOP	n/a	LTP354	ltpFR2	5	n/a	n/a	n/a	7	n/a	n/a	n/a	n/a
853293	WORD	wordpools/wasnorm_wordpool_576.txt	LTP354	ltpFR2	5	5	PUPPY	1144	n/a	n/a	0	0	0
855924	WORD	wordpools/wasnorm_wordpool_576.txt	LTP354	ltpFR2	5	5	VENUS	1557	n/a	n/a	0	0	0
858689	WORD	wordpools/wasnorm_wordpool_576.txt	LTP354	ltpFR2	5	5	KLEENEX	782	n/a	n/a	0	0	0
861338	WORD	wordpools/wasnorm_wordpool_576.txt	LTP354	ltpFR2	5	5	SWAMP	1416	n/a	n/a	0	0	0
863920	WORD	wordpools/wasnorm_wordpool_576.txt	LTP354	ltpFR2	5	5	HOUND	724	n/a	n/a	0	0	0
866668	WORD	wordpools/wasnorm_wordpool_576.txt	LTP354	ltpFR2	5	5	PICTURE	1061	n/a	n/a	0	0	0
869252	WORD	wordpools/wasnorm_wordpool_576.txt	LTP354	ltpFR2	5	5	ANTLER	29	n/a	n/a	0	0	0
871816	WORD	wordpools/wasnorm_wordpool_576.txt	LTP354	ltpFR2	5	5	CREATURE	403	n/a	n/a	0	0	0
874548	WORD	wordpools/wasnorm_wordpool_576.txt	LTP354	ltpFR2	5	5	REPORT	1184	n/a	n/a	0	0	0
877346	WORD	wordpools/wasnorm_wordpool_576.txt	LTP354	ltpFR2	5	5	STAR	1373	n/a	n/a	0	0	0
880113	WORD	wordpools/wasnorm_wordpool_576.txt	LTP354	ltpFR2	5	5	FOX	598	n/a	n/a	0	0	0
882760	WORD	wordpools/wasnorm_wordpool_576.txt	LTP354	ltpFR2	5	5	JUDGE	761	n/a	n/a	0	0	0
885194	WORD	wordpools/wasnorm_wordpool_576.txt	LTP354	ltpFR2	5	5	TRACTOR	1493	n/a	n/a	0	0	0
887975	WORD	wordpools/wasnorm_wordpool_576.txt	LTP354	ltpFR2	5	5	CAFE	216	n/a	n/a	0	0	0
890723	WORD	wordpools/wasnorm_wordpool_576.txt	LTP354	ltpFR2	5	5	LAKE	796	n/a	n/a	0	0	0
893306	WORD	wordpools/wasnorm_wordpool_576.txt	LTP354	ltpFR2	5	5	POSSUM	1112	n/a	n/a	0	0	0
896072	WORD	wordpools/wasnorm_wordpool_576.txt	LTP354	ltpFR2	5	5	DIVER	476	n/a	n/a	0	0	0
898836	WORD	wordpools/wasnorm_wordpool_576.txt	LTP354	ltpFR2	5	5	ISLAND	745	n/a	n/a	0	0	0
901319	WORD	wordpools/wasnorm_wordpool_576.txt	LTP354	ltpFR2	5	5	HIKER	708	n/a	n/a	0	0	0
904118	WORD	wordpools/wasnorm_wordpool_576.txt	LTP354	ltpFR2	5	5	CANYON	235	n/a	n/a	0	0	0
906699	WORD	wordpools/wasnorm_wordpool_576.txt	LTP354	ltpFR2	5	5	LAMP	798	n/a	n/a	0	0	0
909431	WORD	wordpools/wasnorm_wordpool_576.txt	LTP354	ltpFR2	5	5	TUTU	1524	n/a	n/a	0	0	0
912197	WORD	wordpools/wasnorm_wordpool_576.txt	LTP354	ltpFR2	5	5	BRIEFCASE	175	n/a	n/a	0	0	0
914961	WORD	wordpools/wasnorm_wordpool_576.txt	LTP354	ltpFR2	5	5	WASP	1593	n/a	n/a	0	0	0
916577	START	n/a	LTP354	ltpFR2	5	n/a	n/a	n/a	8	n/a	n/a	n/a	n/a
917664	DISTRACTOR	n/a	LTP354	ltpFR2	5	5	n/a	n/a	n/a	n/a	0	0	0
917677	PROB	n/a	LTP354	ltpFR2	5	n/a	n/a	n/a	8	21	9	3	9
919992	PROB	n/a	LTP354	ltpFR2	5	n/a	n/a	n/a	8	23	7	7	9
921441	PROB	n/a	LTP354	ltpFR2	5	n/a	n/a	n/a	8	13	3	3	7
922524	PROB	n/a	LTP354	ltpFR2	5	n/a	n/a	n/a	8	26	9	8	9
925623	PROB	n/a	LTP354	ltpFR2	5	n/a	n/a	n/a	8	10	1	8	1
926972	PROB	n/a	LTP354	ltpFR2	5	n/a	n/a	n/a	8	17	9	6	2
928721	PROB	n/a	LTP354	ltpFR2	5	n/a	n/a	n/a	8	17	7	2	8
929970	PROB	n/a	LTP354	ltpFR2	5	n/a	n/a	n/a	8	23	9	6	8
933070	PROB	n/a	LTP354	ltpFR2	5	n/a	n/a	n/a	8	20	9	7	4
935235	PROB	n/a	LTP354	ltpFR2	5	n/a	n/a	n/a	8	11	6	3	2
937034	PROB	n/a	LTP354	ltpFR2	5	n/a	n/a	n/a	8	14	4	1	9
938400	PROB	n/a	LTP354	ltpFR2	5	n/a	n/a	n/a	8	12	3	5	4
940044	STOP	n/a	LTP354	ltpFR2	5	n/a	n/a	n/a	8	n/a	n/a	n/a	n/a
942431	REC_START	n/a	LTP354	ltpFR2	5	5	n/a	n/a	n/a	n/a	0	0	0
944645	REC_WORD	wordpools/wasnorm_wordpool_576.txt	LTP354	ltpFR2	5	5	DIVER	476	n/a	n/a	0	0	0
946243	REC_WORD	wordpools/wasnorm_wordpool_576.txt	LTP354	ltpFR2	5	5	SWAMP	1416	n/a	n/a	0	0	0
947017	REC_WORD	wordpools/wasnorm_wordpool_576.txt	LTP354	ltpFR2	5	5	LAKE	796	n/a	n/a	0	0	0
948799	REC_WORD	wordpools/wasnorm_wordpool_576.txt	LTP354	ltpFR2	5	5	FOX	598	n/a	n/a	0	0	0
950323	REC_WORD	wordpools/wasnorm_wordpool_576.txt	LTP354	ltpFR2	5	5	HOUND	724	n/a	n/a	0	0	0
951835	REC_WORD	wordpools/wasnorm_wordpool_576.txt	LTP354	ltpFR2	5	5	PUPPY	1144	n/a	n/a	0	0	0
974525	REC_WORD	wordpools/wasnorm_wordpool_576.txt	LTP354	ltpFR2	5	5	KITE	779	n/a	n/a	0	0	0
991387	REC_WORD	wordpools/wasnorm_wordpool_576.txt	LTP354	ltpFR2	5	5	FOX	598	n/a	n/a	0	0	0
997491	REC_WORD	wordpools/wasnorm_wordpool_576.txt	LTP354	ltpFR2	5	5	BREAD	170	n/a	n/a	0	0	0
1000862	REC_WORD	wordpools/wasnorm_wordpool_576.txt	LTP354	ltpFR2	5	5	CLOUD	328	n/a	n/a	0	0	0
1032886	DISTRACTOR	n/a	LTP354	ltpFR2	5	6	n/a	n/a	n/a	n/a	0	0	0
1032886	START	n/a	LTP354	ltpFR2	5	n/a	n/a	n/a	9	n/a	n/a	n/a	n/a
1032903	PROB	n/a	LTP354	ltpFR2	5	n/a	n/a	n/a	9	18	5	9	4
1035069	PROB	n/a	LTP354	ltpFR2	5	n/a	n/a	n/a	9	18	3	9	6
1036667	PROB	n/a	LTP354	ltpFR2	5	n/a	n/a	n/a	9	19	9	1	9
1038400	PROB	n/a	LTP354	ltpFR2	5	n/a	n/a	n/a	9	16	1	7	8
1039866	PROB	n/a	LTP354	ltpFR2	5	n/a	n/a	n/a	9	18	9	3	6
1041565	PROB	n/a	LTP354	ltpFR2	5	n/a	n/a	n/a	9	15	7	2	6
1043248	PROB	n/a	LTP354	ltpFR2	5	n/a	n/a	n/a	9	8	2	5	1
1044580	PROB	n/a	LTP354	ltpFR2	5	n/a	n/a	n/a	9	18	2	9	7
1046214	PROB	n/a	LTP354	ltpFR2	5	n/a	n/a	n/a	9	14	1	8	5
1047712	PROB	n/a	LTP354	ltpFR2	5	n/a	n/a	n/a	9	12	1	8	3
1049694	PROB	n/a	LTP354	ltpFR2	5	n/a	n/a	n/a	9	11	4	3	4
1051527	PROB	n/a	LTP354	ltpFR2	5	n/a	n/a	n/a	9	13	6	4	3
1052826	PROB	n/a	LTP354	ltpFR2	5	n/a	n/a	n/a	9	10	1	3	6
1054359	PROB	n/a	LTP354	ltpFR2	5	n/a	n/a	n/a	9	10	5	4	1
1055747	STOP	n/a	LTP354	ltpFR2	5	n/a	n/a	n/a	9	n/a	n/a	n/a	n/a
1057807	WORD	wordpools/wasnorm_wordpool_576.txt	LTP354	ltpFR2	5	6	GLOVE	642	n/a	n/a	0	0	0
1060389	WORD	wordpools/wasnorm_wordpool_576.txt	LTP354	ltpFR2	5	6	ZEBRA	1635	n/a	n/a	0	0	0
1063172	WORD	wordpools/wasnorm_wordpool_576.txt	LTP354	ltpFR2	5	6	CHEMIST	292	n/a	n/a	0	0	0
1065803	WORD	wordpools/wasnorm_wordpool_576.txt	LTP354	ltpFR2	5	6	HORSE	719	n/a	n/a	0	0	0
1068535	WORD	wordpools/wasnorm_wordpool_576.txt	LTP354	ltpFR2	5	6	LUNCH	849	n/a	n/a	0	0	0
1071318	WORD	wordpools/wasnorm_wordpool_576.txt	LTP354	ltpFR2	5	6	TURKEY	1520	n/a	n/a	0	0	0
1074050	WORD	wordpools/wasnorm_wordpool_576.txt	LTP354	ltpFR2	5	6	SERVER	1272	n/a	n/a	0	0	0
1076548	WORD	wordpools/wasnorm_wordpool_576.txt	LTP354	ltpFR2	5	6	LIZARD	834	n/a	n/a	0	0	0
1079214	WORD	wordpools/wasnorm_wordpool_576.txt	LTP354	ltpFR2	5	6	CATCHER	258	n/a	n/a	0	0	0
1081928	WORD	wordpools/wasnorm_wordpool_576.txt	LTP354	ltpFR2	5	6	HORNET	718	n/a	n/a	0	0	0
1084627	WORD	wordpools/wasnorm_wordpool_576.txt	LTP354	ltpFR2	5	6	MONSTER	912	n/a	n/a	0	0	0
1087143	WORD	wordpools/wasnorm_wordpool_576.txt	LTP354	ltpFR2	5	6	BLACKBOARD	133	n/a	n/a	0	0	0
1089941	WORD	wordpools/wasnorm_wordpool_576.txt	LTP354	ltpFR2	5	6	PATIENT	1024	n/a	n/a	0	0	0
1092656	WORD	wordpools/wasnorm_wordpool_576.txt	LTP354	ltpFR2	5	6	DANDRUFF	439	n/a	n/a	0	0	0
1095273	WORD	wordpools/wasnorm_wordpool_576.txt	LTP354	ltpFR2	5	6	CIGAR	308	n/a	n/a	0	0	0
1097737	WORD	wordpools/wasnorm_wordpool_576.txt	LTP354	ltpFR2	5	6	GARLIC	624	n/a	n/a	0	0	0
1100519	WORD	wordpools/wasnorm_wordpool_576.txt	LTP354	ltpFR2	5	6	NURSE	963	n/a	n/a	0	0	0
1103285	WORD	wordpools/wasnorm_wordpool_576.txt	LTP354	ltpFR2	5	6	GAVEL	627	n/a	n/a	0	0	0
1105950	WORD	wordpools/wasnorm_wordpool_576.txt	LTP354	ltpFR2	5	6	JURY	766	n/a	n/a	0	0	0
1108415	WORD	wordpools/wasnorm_wordpool_576.txt	LTP354	ltpFR2	5	6	RAZOR	1171	n/a	n/a	0	0	0
1111115	WORD	wordpools/wasnorm_wordpool_576.txt	LTP354	ltpFR2	5	6	COD	340	n/a	n/a	0	0	0
1113779	WORD	wordpools/wasnorm_wordpool_576.txt	LTP354	ltpFR2	5	6	ICING	732	n/a	n/a	0	0	0
1116229	WORD	wordpools/wasnorm_wordpool_576.txt	LTP354	ltpFR2	5	6	PRIMATE	1123	n/a	n/a	0	0	0
1118810	WORD	wordpools/wasnorm_wordpool_576.txt	LTP354	ltpFR2	5	6	HATCHET	691	n/a	n/a	0	0	0
1120426	START	n/a	LTP354	ltpFR2	5	n/a	n/a	n/a	10	n/a	n/a	n/a	n/a
1121451	DISTRACTOR	n/a	LTP354	ltpFR2	5	6	n/a	n/a	n/a	n/a	0	0	0
1121459	PROB	n/a	LTP354	ltpFR2	5	n/a	n/a	n/a	10	11	3	5	3
1123924	PROB	n/a	LTP354	ltpFR2	5	n/a	n/a	n/a	10	10	3	1	6
1125125	PROB	n/a	LTP354	ltpFR2	5	n/a	n/a	n/a	10	18	7	4	7
1126773	PROB	n/a	LTP354	ltpFR2	5	n/a	n/a	n/a	10	20	4	7	9
1129056	PROB	n/a	LTP354	ltpFR2	5	n/a	n/a	n/a	10	11	1	6	4
1130671	PROB	n/a	LTP354	ltpFR2	5	n/a	n/a	n/a	10	19	6	8	5
1132520	PROB	n/a	LTP354	ltpFR2	5	n/a	n/a	n/a	10	16	4	4	8
1135335	PROB	n/a	LTP354	ltpFR2	5	n/a	n/a	n/a	10	10	3	6	1
1136584	PROB	n/a	LTP354	ltpFR2	5	n/a	n/a	n/a	10	21	8	9	4
1139234	PROB	n/a	LTP354	ltpFR2	5	n/a	n/a	n/a	10	18	7	2	9
1140882	PROB	n/a	LTP354	ltpFR2	5	n/a	n/a	n/a	10	21	9	8	4
1144426	STOP	n/a	LTP354	ltpFR2	5	n/a	n/a	n/a	10	n/a	n/a	n/a	n/a
1146231	REC_START	n/a	LTP354	ltpFR2	5	6	n/a	n/a	n/a	n/a	0	0	0
1151872	REC_WORD	wordpools/wasnorm_wordpool_576.txt	LTP354	ltpFR2	5	6	BLACKBOARD	133	n/a	n/a	0	0	0
1196715	REC_WORD	wordpools/wasnorm_wordpool_576.txt	LTP354	ltpFR2	5	6	HORSE	719	n/a	n/a	0	0	0
1202030	REC_WORD	wordpools/wasnorm_wordpool_576.txt	LTP354	ltpFR2	5	6	ZEBRA	1635	n/a	n/a	0	0	0
1236668	DISTRACTOR	n/a	LTP354	ltpFR2	5	7	n/a	n/a	n/a	n/a	0	0	0
1236668	START	n/a	LTP354	ltpFR2	5	n/a	n/a	n/a	11	n/a	n/a	n/a	n/a
1236685	PROB	n/a	LTP354	ltpFR2	5	n/a	n/a	n/a	11	16	1	6	9
1238268	PROB	n/a	LTP354	ltpFR2	5	n/a	n/a	n/a	11	10	7	1	2
1239500	PROB	n/a	LTP354	ltpFR2	5	n/a	n/a	n/a	11	16	3	9	4
1241034	PROB	n/a	LTP354	ltpFR2	5	n/a	n/a	n/a	11	20	9	8	3
1242865	PROB	n/a	LTP354	ltpFR2	5	n/a	n/a	n/a	11	24	7	8	9
1245614	PROB	n/a	LTP354	ltpFR2	5	n/a	n/a	n/a	11	19	6	7	6
1248313	PROB	n/a	LTP354	ltpFR2	5	n/a	n/a	n/a	11	22	9	5	8
1251427	PROB	n/a	LTP354	ltpFR2	5	n/a	n/a	n/a	11	14	1	6	7
1252793	PROB	n/a	LTP354	ltpFR2	5	n/a	n/a	n/a	11	9	2	5	2
1254110	PROB	n/a	LTP354	ltpFR2	5	n/a	n/a	n/a	11	13	9	2	2
1255542	PROB	n/a	LTP354	ltpFR2	5	n/a	n/a	n/a	11	16	3	8	5
1256975	PROB	n/a	LTP354	ltpFR2	5	n/a	n/a	n/a	11	16	2	8	6
1258142	PROB	n/a	LTP354	ltpFR2	5	n/a	n/a	n/a	11	13	1	3	9
1259220	STOP	n/a	LTP354	ltpFR2	5	n/a	n/a	n/a	11	n/a	n/a	n/a	n/a
1261656	WORD	wordpools/wasnorm_wordpool_576.txt	LTP354	ltpFR2	5	7	LUMBER	848	n/a	n/a	0	0	0
1264139	WORD	wordpools/wasnorm_wordpool_576.txt	LTP354	ltpFR2	5	7	JUGGLER	763	n/a	n/a	0	0	0
1266753	WORD	wordpools/wasnorm_wordpool_576.txt	LTP354	ltpFR2	5	7	TWIG	1527	n/a	n/a	0	0	0
1269418	WORD	wordpools/wasnorm_wordpool_576.txt	LTP354	ltpFR2	5	7	SHRUB	1299	n/a	n/a	0	0	0
1272002	WORD	wordpools/wasnorm_wordpool_576.txt	LTP354	ltpFR2	5	7	CASHEW	253	n/a	n/a	0	0	0
1274699	WORD	wordpools/wasnorm_wordpool_576.txt	LTP354	ltpFR2	5	7	SCARECROW	1245	n/a	n/a	0	0	0
1277149	WORD	wordpools/wasnorm_wordpool_576.txt	LTP354	ltpFR2	5	7	SHORTS	1293	n/a	n/a	0	0	0
1279780	WORD	wordpools/wasnorm_wordpool_576.txt	LTP354	ltpFR2	5	7	SALT	1229	n/a	n/a	0	0	0
1282213	WORD	wordpools/wasnorm_wordpool_576.txt	LTP354	ltpFR2	5	7	PEBBLE	1035	n/a	n/a	0	0	0
1285012	WORD	wordpools/wasnorm_wordpool_576.txt	LTP354	ltpFR2	5	7	OUTFIT	988	n/a	n/a	0	0	0
1287676	WORD	wordpools/wasnorm_wordpool_576.txt	LTP354	ltpFR2	5	7	WOMAN	1620	n/a	n/a	0	0	0
1290176	WORD	wordpools/wasnorm_wordpool_576.txt	LTP354	ltpFR2	5	7	JELLY	755	n/a	n/a	0	0	0
1292607	WORD	wordpools/wasnorm_wordpool_576.txt	LTP354	ltpFR2	5	7	SANDWICH	1232	n/a	n/a	0	0	0
1295356	WORD	wordpools/wasnorm_wordpool_576.txt	LTP354	ltpFR2	5	7	HEDGE	699	n/a	n/a	0	0	0
1298039	WORD	wordpools/wasnorm_wordpool_576.txt	LTP354	ltpFR2	5	7	SLUG	1329	n/a	n/a	0	0	0
1300703	WORD	wordpools/wasnorm_wordpool_576.txt	LTP354	ltpFR2	5	7	LEADER	807	n/a	n/a	0	0	0
1303518	WORD	wordpools/wasnorm_wordpool_576.txt	LTP354	ltpFR2	5	7	CREVICE	405	n/a	n/a	0	0	0
1306001	WORD	wordpools/wasnorm_wordpool_576.txt	LTP354	ltpFR2	5	7	DRESSER	496	n/a	n/a	0	0	0
1308549	WORD	wordpools/wasnorm_wordpool_576.txt	LTP354	ltpFR2	5	7	BODY	145	n/a	n/a	0	0	0
1311282	WORD	wordpools/wasnorm_wordpool_576.txt	LTP354	ltpFR2	5	7	LACE	792	n/a	n/a	0	0	0
1313946	WORD	wordpools/wasnorm_wordpool_576.txt	LTP354	ltpFR2	5	7	BLOUSE	139	n/a	n/a	0	0	0
1316412	WORD	wordpools/wasnorm_wordpool_576.txt	LTP354	ltpFR2	5	7	DENIM	446	n/a	n/a	0	0	0
1319078	WORD	wordpools/wasnorm_wordpool_576.txt	LTP354	ltpFR2	5	7	PERMIT	1051	n/a	n/a	0	0	0
1321693	WORD	wordpools/wasnorm_wordpool_576.txt	LTP354	ltpFR2	5	7	BEEF	113	n/a	n/a	0	0	0
1323310	START	n/a	LTP354	ltpFR2	5	n/a	n/a	n/a	12	n/a	n/a	n/a	n/a
1324440	DISTRACTOR	n/a	LTP354	ltpFR2	5	7	n/a	n/a	n/a	n/a	0	0	0
1324458	PROB	n/a	LTP354	ltpFR2	5	n/a	n/a	n/a	12	18	5	5	8
1326275	PROB	n/a	LTP354	ltpFR2	5	n/a	n/a	n/a	12	13	4	3	6
1329605	PROB	n/a	LTP354	ltpFR2	5	n/a	n/a	n/a	12	18	5	4	9
1332238	PROB	n/a	LTP354	ltpFR2	5	n/a	n/a	n/a	12	6	4	1	1
1333271	PROB	n/a	LTP354	ltpFR2	5	n/a	n/a	n/a	12	11	7	1	3
1334321	PROB	n/a	LTP354	ltpFR2	5	n/a	n/a	n/a	12	10	8	1	1
1335402	PROB	n/a	LTP354	ltpFR2	5	n/a	n/a	n/a	12	17	8	3	6
1336852	PROB	n/a	LTP354	ltpFR2	5	n/a	n/a	n/a	12	18	4	7	7
1338202	PROB	n/a	LTP354	ltpFR2	5	n/a	n/a	n/a	12	19	3	7	9
1339484	PROB	n/a	LTP354	ltpFR2	5	n/a	n/a	n/a	12	13	5	5	3
1340533	PROB	n/a	LTP354	ltpFR2	5	n/a	n/a	n/a	12	7	2	4	1
1341733	PROB	n/a	LTP354	ltpFR2	5	n/a	n/a	n/a	12	23	6	9	8
1344216	PROB	n/a	LTP354	ltpFR2	5	n/a	n/a	n/a	12	13	3	4	6
1345397	PROB	n/a	LTP354	ltpFR2	5	n/a	n/a	n/a	12	22	9	4	9
1346955	STOP	n/a	LTP354	ltpFR2	5	n/a	n/a	n/a	12	n/a	n/a	n/a	n/a
1349097	REC_START	n/a	LTP354	ltpFR2	5	7	n/a	n/a	n/a	n/a	0	0	0
1350783	REC_WORD	wordpools/wasnorm_wordpool_576.txt	LTP354	ltpFR2	5	7	CREVICE	405	n/a	n/a	0	0	0
1352186	REC_WORD	wordpools/wasnorm_wordpool_576.txt	LTP354	ltpFR2	5	7	BLOUSE	139	n/a	n/a	0	0	0
1355511	REC_WORD	wordpools/wasnorm_wordpool_576.txt	LTP354	ltpFR2	5	7	PEBBLE	1035	n/a	n/a	0	0	0
1357581	REC_WORD	wordpools/wasnorm_wordpool_576.txt	LTP354	ltpFR2	5	7	SHORTS	1293	n/a	n/a	0	0	0
1363171	REC_WORD	wordpools/wasnorm_wordpool_576.txt	LTP354	ltpFR2	5	7	FRAGRANCE	599	n/a	n/a	0	0	0
1366789	REC_WORD	wordpools/wasnorm_wordpool_576.txt	LTP354	ltpFR2	5	7	POET	1095	n/a	n/a	0	0	0
1392416	REC_WORD	wordpools/wasnorm_wordpool_576.txt	LTP354	ltpFR2	5	7	BACKBONE	66	n/a	n/a	0	0	0
1439551	DISTRACTOR	n/a	LTP354	ltpFR2	5	8	n/a	n/a	n/a	n/a	0	0	0
1439551	START	n/a	LTP354	ltpFR2	5	n/a	n/a	n/a	13	n/a	n/a	n/a	n/a
1439567	PROB	n/a	LTP354	ltpFR2	5	n/a	n/a	n/a	13	14	4	1	9
1441001	PROB	n/a	LTP354	ltpFR2	5	n/a	n/a	n/a	13	22	6	7	9
1442732	PROB	n/a	LTP354	ltpFR2	5	n/a	n/a	n/a	13	24	8	8	8
1443882	PROB	n/a	LTP354	ltpFR2	5	n/a	n/a	n/a	13	17	9	3	5
1445331	PROB	n/a	LTP354	ltpFR2	5	n/a	n/a	n/a	13	17	6	7	4
1446647	PROB	n/a	LTP354	ltpFR2	5	n/a	n/a	n/a	13	17	7	7	3
1447880	PROB	n/a	LTP354	ltpFR2	5	n/a	n/a	n/a	13	14	6	7	1
1449362	PROB	n/a	LTP354	ltpFR2	5	n/a	n/a	n/a	13	14	6	3	5
1450795	PROB	n/a	LTP354	ltpFR2	5	n/a	n/a	n/a	13	12	1	8	3
1453312	PROB	n/a	LTP354	ltpFR2	5	n/a	n/a	n/a	13	11	6	1	4
1454443	PROB	n/a	LTP354	ltpFR2	5	n/a	n/a	n/a	13	18	9	5	4
1456376	PROB	n/a	LTP354	ltpFR2	5	n/a	n/a	n/a	13	12	5	1	6
1457692	PROB	n/a	LTP354	ltpFR2	5	n/a	n/a	n/a	13	11	3	1	7
1459092	PROB	n/a	LTP354	ltpFR2	5	n/a	n/a	n/a	13	13	1	3	9
1462371	STOP	n/a	LTP354	ltpFR2	5	n/a	n/a	n/a	13	n/a	n/a	n/a	n/a
1464705	WORD	wordpools/wasnorm_wordpool_576.txt	LTP354	ltpFR2	5	8	STAMP	1370	n/a	n/a	0	0	0
1467470	WORD	wordpools/wasnorm_wordpool_576.txt	LTP354	ltpFR2	5	8	BOX	159	n/a	n/a	0	0	0
1470037	WORD	wordpools/wasnorm_wordpool_576.txt	LTP354	ltpFR2	5	8	MUFFIN	929	n/a	n/a	0	0	0
1472851	WORD	wordpools/wasnorm_wordpool_576.txt	LTP354	ltpFR2	5	8	COSTUME	383	n/a	n/a	0	0	0
1475284	WORD	wordpools/wasnorm_wordpool_576.txt	LTP354	ltpFR2	5	8	FRECKLE	602	n/a	n/a	0	0	0
1478016	WORD	wordpools/wasnorm_wordpool_576.txt	LTP354	ltpFR2	5	8	SLIME	1327	n/a	n/a	0	0	0
1480797	WORD	wordpools/wasnorm_wordpool_576.txt	LTP354	ltpFR2	5	8	BINDER	127	n/a	n/a	0	0	0
1483579	WORD	wordpools/wasnorm_wordpool_576.txt	LTP354	ltpFR2	5	8	CUPBOARD	425	n/a	n/a	0	0	0
1486377	WORD	wordpools/wasnorm_wordpool_576.txt	LTP354	ltpFR2	5	8	CRATER	400	n/a	n/a	0	0	0
1488959	WORD	wordpools/wasnorm_wordpool_576.txt	LTP354	ltpFR2	5	8	ORANGE	980	n/a	n/a	0	0	0
1491542	WORD	wordpools/wasnorm_wordpool_576.txt	LTP354	ltpFR2	5	8	GYMNAST	675	n/a	n/a	0	0	0
1494141	WORD	wordpools/wasnorm_wordpool_576.txt	LTP354	ltpFR2	5	8	WIFE	1609	n/a	n/a	0	0	0
1496739	WORD	wordpools/wasnorm_wordpool_576.txt	LTP354	ltpFR2	5	8	SPOUSE	1358	n/a	n/a	0	0	0
1499338	WORD	wordpools/wasnorm_wordpool_576.txt	LTP354	ltpFR2	5	8	CANAL	226	n/a	n/a	0	0	0
1501886	WORD	wordpools/wasnorm_wordpool_576.txt	LTP354	ltpFR2	5	8	SLIDE	1326	n/a	n/a	0	0	0
1504385	WORD	wordpools/wasnorm_wordpool_576.txt	LTP354	ltpFR2	5	8	PIGMENT	1066	n/a	n/a	0	0	0
1507151	WORD	wordpools/wasnorm_wordpool_576.txt	LTP354	ltpFR2	5	8	LUGGAGE	847	n/a	n/a	0	0	0
1509899	WORD	wordpools/wasnorm_wordpool_576.txt	LTP354	ltpFR2	5	8	IDOL	733	n/a	n/a	0	0	0
1512648	WORD	wordpools/wasnorm_wordpool_576.txt	LTP354	ltpFR2	5	8	MOTOR	922	n/a	n/a	0	0	0
1515164	WORD	wordpools/wasnorm_wordpool_576.txt	LTP354	ltpFR2	5	8	AUTHOR	61	n/a	n/a	0	0	0
1517895	WORD	wordpools/wasnorm_wordpool_576.txt	LTP354	ltpFR2	5	8	MILK	895	n/a	n/a	0	0	0
1520427	WORD	wordpools/wasnorm_wordpool_576.txt	LTP354	ltpFR2	5	8	SIBLING	1301	n/a	n/a	0	0	0
1523093	WORD	wordpools/wasnorm_wordpool_576.txt	LTP354	ltpFR2	5	8	COCKTAIL	338	n/a	n/a	0	0	0
1525725	WORD	wordpools/wasnorm_wordpool_576.txt	LTP354	ltpFR2	5	8	PEANUT	1032	n/a	n/a	0	0	0
1527341	START	n/a	LTP354	ltpFR2	5	n/a	n/a	n/a	14	n/a	n/a	n/a	n/a
1528357	DISTRACTOR	n/a	LTP354	ltpFR2	5	8	n/a	n/a	n/a	n/a	0	0	0
1528373	PROB	n/a	LTP354	ltpFR2	5	n/a	n/a	n/a	14	13	4	5	4
1532022	PROB	n/a	LTP354	ltpFR2	5	n/a	n/a	n/a	14	15	2	4	9
1533787	PROB	n/a	LTP354	ltpFR2	5	n/a	n/a	n/a	14	5	1	3	1
1534953	PROB	n/a	LTP354	ltpFR2	5	n/a	n/a	n/a	14	11	3	5	3
1537852	PROB	n/a	LTP354	ltpFR2	5	n/a	n/a	n/a	14	7	3	1	3
1539102	PROB	n/a	LTP354	ltpFR2	5	n/a	n/a	n/a	14	18	5	5	8
1540484	PROB	n/a	LTP354	ltpFR2	5	n/a	n/a	n/a	14	8	2	1	5
1541867	PROB	n/a	LTP354	ltpFR2	5	n/a	n/a	n/a	14	16	2	6	8
1543799	PROB	n/a	LTP354	ltpFR2	5	n/a	n/a	n/a	14	21	4	9	9
1545781	PROB	n/a	LTP354	ltpFR2	5	n/a	n/a	n/a	14	12	6	4	2
1547647	PROB	n/a	LTP354	ltpFR2	5	n/a	n/a	n/a	14	16	3	7	6
1549563	PROB	n/a	LTP354	ltpFR2	5	n/a	n/a	n/a	14	12	1	6	5
1550995	STOP	n/a	LTP354	ltpFR2	5	n/a	n/a	n/a	14	n/a	n/a	n/a	n/a
1553129	REC_START	n/a	LTP354	ltpFR2	5	8	n/a	n/a	n/a	n/a	0	0	0
1555349	REC_WORD	wordpools/wasnorm_wordpool_576.txt	LTP354	ltpFR2	5	8	CRATER	400	n/a	n/a	0	0	0
1569278	REC_WORD	wordpools/wasnorm_wordpool_576.txt	LTP354	ltpFR2	5	8	GAVEL	627	n/a	n/a	0	0	0
1585358	REC_WORD	wordpools/wasnorm_wordpool_576.txt	LTP354	ltpFR2	5	8	MILK	895	n/a	n/a	0	0	0
1589441	REC_WORD	wordpools/wasnorm_wordpool_576.txt	LTP354	ltpFR2	5	8	BABY	64	n/a	n/a	0	0	0
1629673	REST_REWET	n/a	LTP354	ltpFR2	5	8	n/a	n/a	n/a	n/a	0	0	0
1734821	WORD	wordpools/wasnorm_wordpool_576.txt	LTP354	ltpFR2	5	9	SERVANT	1271	n/a	n/a	0	0	0
1737469	WORD	wordpools/wasnorm_wordpool_576.txt	LTP354	ltpFR2	5	9	BULLET	194	n/a	n/a	0	0	0
1740036	WORD	wordpools/wasnorm_wordpool_576.txt	LTP354	ltpFR2	5	9	COURSE	390	n/a	n/a	0	0	0
1742767	WORD	wordpools/wasnorm_wordpool_576.txt	LTP354	ltpFR2	5	9	DOUGHNUT	490	n/a	n/a	0	0	0
1745565	WORD	wordpools/wasnorm_wordpool_576.txt	LTP354	ltpFR2	5	9	CURTAIN	427	n/a	n/a	0	0	0
1748082	WORD	wordpools/wasnorm_wordpool_576.txt	LTP354	ltpFR2	5	9	GLASS	639	n/a	n/a	0	0	0
1750513	WORD	wordpools/wasnorm_wordpool_576.txt	LTP354	ltpFR2	5	9	TABLET	1427	n/a	n/a	0	0	0
1753279	WORD	wordpools/wasnorm_wordpool_576.txt	LTP354	ltpFR2	5	9	DONKEY	484	n/a	n/a	0	0	0
1756061	WORD	wordpools/wasnorm_wordpool_576.txt	LTP354	ltpFR2	5	9	SILK	1307	n/a	n/a	0	0	0
1758592	WORD	wordpools/wasnorm_wordpool_576.txt	LTP354	ltpFR2	5	9	WARDROBE	1587	n/a	n/a	0	0	0
1761292	WORD	wordpools/wasnorm_wordpool_576.txt	LTP354	ltpFR2	5	9	TART	1436	n/a	n/a	0	0	0
1763973	WORD	wordpools/wasnorm_wordpool_576.txt	LTP354	ltpFR2	5	9	SURVEY	1414	n/a	n/a	0	0	0
1766472	WORD	wordpools/wasnorm_wordpool_576.txt	LTP354	ltpFR2	5	9	ROCKET	1202	n/a	n/a	0	0	0
1769305	WORD	wordpools/wasnorm_wordpool_576.txt	LTP354	ltpFR2	5	9	SPACE	1345	n/a	n/a	0	0	0
1771836	WORD	wordpools/wasnorm_wordpool_576.txt	LTP354	ltpFR2	5	9	CUSTARD	429	n/a	n/a	0	0	0
1774551	WORD	wordpools/wasnorm_wordpool_576.txt	LTP354	ltpFR2	5	9	PLAYGROUND	1087	n/a	n/a	0	0	0
1777350	WORD	wordpools/wasnorm_wordpool_576.txt	LTP354	ltpFR2	5	9	LADDER	793	n/a	n/a	0	0	0
1779932	WORD	wordpools/wasnorm_wordpool_576.txt	LTP354	ltpFR2	5	9	PARROT	1015	n/a	n/a	0	0	0
1782447	WORD	wordpools/wasnorm_wordpool_576.txt	LTP354	ltpFR2	5	9	MAMMAL	861	n/a	n/a	0	0	0
1784963	WORD	wordpools/wasnorm_wordpool_576.txt	LTP354	ltpFR2	5	9	EYELASH	546	n/a	n/a	0	0	0
1787428	WORD	wordpools/wasnorm_wordpool_576.txt	LTP354	ltpFR2	5	9	FRUIT	610	n/a	n/a	0	0	0
1789877	WORD	wordpools/wasnorm_wordpool_576.txt	LTP354	ltpFR2	5	9	DOLPHIN	483	n/a	n/a	0	0	0
1792359	WORD	wordpools/wasnorm_wordpool_576.txt	LTP354	ltpFR2	5	9	ANKLE	24	n/a	n/a	0	0	0
1794824	WORD	wordpools/wasnorm_wordpool_576.txt	LTP354	ltpFR2	5	9	SHELTER	1282	n/a	n/a	0	0	0
1796440	START	n/a	LTP354	ltpFR2	5	n/a	n/a	n/a	15	n/a	n/a	n/a	n/a
1797579	DISTRACTOR	n/a	LTP354	ltpFR2	5	9	n/a	n/a	n/a	n/a	0	0	0
1797590	PROB	n/a	LTP354	ltpFR2	5	n/a	n/a	n/a	15	15	7	3	5
1799323	PROB	n/a	LTP354	ltpFR2	5	n/a	n/a	n/a	15	20	5	8	7
1802188	PROB	n/a	LTP354	ltpFR2	5	n/a	n/a	n/a	15	12	7	1	4
1803353	PROB	n/a	LTP354	ltpFR2	5	n/a	n/a	n/a	15	4	2	1	1
1804403	PROB	n/a	LTP354	ltpFR2	5	n/a	n/a	n/a	15	10	6	3	1
1805702	PROB	n/a	LTP354	ltpFR2	5	n/a	n/a	n/a	15	24	6	9	9
1807918	PROB	n/a	LTP354	ltpFR2	5	n/a	n/a	n/a	15	7	1	5	1
1809051	PROB	n/a	LTP354	ltpFR2	5	n/a	n/a	n/a	15	8	1	3	4
1810350	PROB	n/a	LTP354	ltpFR2	5	n/a	n/a	n/a	15	11	3	5	3
1811666	PROB	n/a	LTP354	ltpFR2	5	n/a	n/a	n/a	15	17	7	7	3
1813249	PROB	n/a	LTP354	ltpFR2	5	n/a	n/a	n/a	15	9	6	1	2
1814465	PROB	n/a	LTP354	ltpFR2	5	n/a	n/a	n/a	15	13	3	8	2
1816065	PROB	n/a	LTP354	ltpFR2	5	n/a	n/a	n/a	15	23	9	9	5
1817879	PROB	n/a	LTP354	ltpFR2	5	n/a	n/a	n/a	15	17	8	3	6
1819347	STOP	n/a	LTP354	ltpFR2	5	n/a	n/a	n/a	15	n/a	n/a	n/a	n/a
1822378	REC_START	n/a	LTP354	ltpFR2	5	9	n/a	n/a	n/a	n/a	0	0	0
1824134	REC_WORD	wordpools/wasnorm_wordpool_576.txt	LTP354	ltpFR2	5	9	TART	1436	n/a	n/a	0	0	0
1825103	REC_WORD	wordpools/wasnorm_wordpool_576.txt	LTP354	ltpFR2	5	9	FRUIT	610	n/a	n/a	0	0	0
1826837	REC_WORD	wordpools/wasnorm_wordpool_576.txt	LTP354	ltpFR2	5	9	EYELASH	546	n/a	n/a	0	0	0
1828636	REC_WORD	wordpools/wasnorm_wordpool_576.txt	LTP354	ltpFR2	5	9	WARDROBE	1587	n/a	n/a	0	0	0
1829643	REC_WORD	wordpools/wasnorm_wordpool_576.txt	LTP354	ltpFR2	5	9	CUSTARD	429	n/a	n/a	0	0	0
1831502	REC_WORD	wordpools/wasnorm_wordpool_576.txt	LTP354	ltpFR2	5	9	LADDER	793	n/a	n/a	0	0	0
1834758	REC_WORD	wordpools/wasnorm_wordpool_576.txt	LTP354	ltpFR2	5	9	SERVANT	1271	n/a	n/a	0	0	0
1836043	REC_WORD	wordpools/wasnorm_wordpool_576.txt	LTP354	ltpFR2	5	9	BULLET	194	n/a	n/a	0	0	0
1840957	REC_WORD	wordpools/wasnorm_wordpool_576.txt	LTP354	ltpFR2	5	9	DOLPHIN	483	n/a	n/a	0	0	0
1847631	REC_WORD	wordpools/wasnorm_wordpool_576.txt	LTP354	ltpFR2	5	9	PLAYGROUND	1087	n/a	n/a	0	0	0
1857540	REC_WORD	wordpools/wasnorm_wordpool_576.txt	LTP354	ltpFR2	5	9	WARDROBE	1587	n/a	n/a	0	0	0
1858711	REC_WORD	wordpools/wasnorm_wordpool_576.txt	LTP354	ltpFR2	5	9	CURTAIN	427	n/a	n/a	0	0	0
1868400	REC_WORD	wordpools/wasnorm_wordpool_576.txt	LTP354	ltpFR2	5	9	SILK	1307	n/a	n/a	0	0	0
1877100	REC_WORD	wordpools/wasnorm_wordpool_576.txt	LTP354	ltpFR2	5	9	PARROT	1015	n/a	n/a	0	0	0
1879284	REC_WORD	wordpools/wasnorm_wordpool_576.txt	LTP354	ltpFR2	5	9	MAMMAL	861	n/a	n/a	0	0	0
1912849	WORD	wordpools/wasnorm_wordpool_576.txt	LTP354	ltpFR2	5	10	WAGON	1578	n/a	n/a	0	0	0
1915348	WORD	wordpools/wasnorm_wordpool_576.txt	LTP354	ltpFR2	5	10	COBRA	336	n/a	n/a	0	0	0
1917930	WORD	wordpools/wasnorm_wordpool_576.txt	LTP354	ltpFR2	5	10	PATROL	1027	n/a	n/a	0	0	0
1920528	WORD	wordpools/wasnorm_wordpool_576.txt	LTP354	ltpFR2	5	10	RADISH	1158	n/a	n/a	0	0	0
1923045	WORD	wordpools/wasnorm_wordpool_576.txt	LTP354	ltpFR2	5	10	SHERIFF	1284	n/a	n/a	0	0	0
1925793	WORD	wordpools/wasnorm_wordpool_576.txt	LTP354	ltpFR2	5	10	PRINCESS	1125	n/a	n/a	0	0	0
1928325	WORD	wordpools/wasnorm_wordpool_576.txt	LTP354	ltpFR2	5	10	CRITIC	410	n/a	n/a	0	0	0
1931091	WORD	wordpools/wasnorm_wordpool_576.txt	LTP354	ltpFR2	5	10	SPOON	1357	n/a	n/a	0	0	0
1933622	WORD	wordpools/wasnorm_wordpool_576.txt	LTP354	ltpFR2	5	10	KNIFE	785	n/a	n/a	0	0	0
1936371	WORD	wordpools/wasnorm_wordpool_576.txt	LTP354	ltpFR2	5	10	VELVET	1555	n/a	n/a	0	0	0
1939120	WORD	wordpools/wasnorm_wordpool_576.txt	LTP354	ltpFR2	5	10	BLADE	134	n/a	n/a	0	0	0
1941901	WORD	wordpools/wasnorm_wordpool_576.txt	LTP354	ltpFR2	5	10	PUDDLE	1140	n/a	n/a	0	0	0
1944567	WORD	wordpools/wasnorm_wordpool_576.txt	LTP354	ltpFR2	5	10	CAMEL	223	n/a	n/a	0	0	0
1947250	WORD	wordpools/wasnorm_wordpool_576.txt	LTP354	ltpFR2	5	10	SWIMMER	1420	n/a	n/a	0	0	0
1949881	WORD	wordpools/wasnorm_wordpool_576.txt	LTP354	ltpFR2	5	10	SWORD	1423	n/a	n/a	0	0	0
1952529	WORD	wordpools/wasnorm_wordpool_576.txt	LTP354	ltpFR2	5	10	LASER	801	n/a	n/a	0	0	0
1955196	WORD	wordpools/wasnorm_wordpool_576.txt	LTP354	ltpFR2	5	10	SNAKE	1333	n/a	n/a	0	0	0
1957627	WORD	wordpools/wasnorm_wordpool_576.txt	LTP354	ltpFR2	5	10	STAKE	1368	n/a	n/a	0	0	0
1960425	WORD	wordpools/wasnorm_wordpool_576.txt	LTP354	ltpFR2	5	10	CASHIER	254	n/a	n/a	0	0	0
1962908	WORD	wordpools/wasnorm_wordpool_576.txt	LTP354	ltpFR2	5	10	TAXI	1438	n/a	n/a	0	0	0
1965423	WORD	wordpools/wasnorm_wordpool_576.txt	LTP354	ltpFR2	5	10	SCULPTURE	1258	n/a	n/a	0	0	0
1968223	WORD	wordpools/wasnorm_wordpool_576.txt	LTP354	ltpFR2	5	10	SKETCH	1315	n/a	n/a	0	0	0
1970720	WORD	wordpools/wasnorm_wordpool_576.txt	LTP354	ltpFR2	5	10	MARROW	872	n/a	n/a	0	0	0
1973153	WORD	wordpools/wasnorm_wordpool_576.txt	LTP354	ltpFR2	5	10	GRIZZLY	662	n/a	n/a	0	0	0
1974769	START	n/a	LTP354	ltpFR2	5	n/a	n/a	n/a	16	n/a	n/a	n/a	n/a
1975589	DISTRACTOR	n/a	LTP354	ltpFR2	5	10	n/a	n/a	n/a	n/a	0	0	0
1975601	PROB	n/a	LTP354	ltpFR2	5	n/a	n/a	n/a	16	12	4	3	5
1978833	PROB	n/a	LTP354	ltpFR2	5	n/a	n/a	n/a	16	12	2	7	3
1979916	PROB	n/a	LTP354	ltpFR2	5	n/a	n/a	n/a	16	15	8	1	6
1982099	PROB	n/a	LTP354	ltpFR2	5	n/a	n/a	n/a	16	16	4	7	5
1983797	PROB	n/a	LTP354	ltpFR2	5	n/a	n/a	n/a	16	13	1	9	3
1984946	PROB	n/a	LTP354	ltpFR2	5	n/a	n/a	n/a	16	16	9	3	4
1986512	PROB	n/a	LTP354	ltpFR2	5	n/a	n/a	n/a	16	15	2	4	9
1988213	PROB	n/a	LTP354	ltpFR2	5	n/a	n/a	n/a	16	22	6	8	8
1990394	PROB	n/a	LTP354	ltpFR2	5	n/a	n/a	n/a	16	19	8	5	6
1992459	PROB	n/a	LTP354	ltpFR2	5	n/a	n/a	n/a	16	19	4	9	6
1993592	PROB	n/a	LTP354	ltpFR2	5	n/a	n/a	n/a	16	7	1	2	4
1994875	PROB	n/a	LTP354	ltpFR2	5	n/a	n/a	n/a	16	18	9	3	6
1996574	PROB	n/a	LTP354	ltpFR2	5	n/a	n/a	n/a	16	15	4	6	5
1997947	STOP	n/a	LTP354	ltpFR2	5	n/a	n/a	n/a	16	n/a	n/a	n/a	n/a
2000573	REC_START	n/a	LTP354	ltpFR2	5	10	n/a	n/a	n/a	n/a	0	0	0
2001737	REC_WORD	wordpools/wasnorm_wordpool_576.txt	LTP354	ltpFR2	5	10	SKETCH	1315	n/a	n/a	0	0	0
2002501	REC_WORD	wordpools/wasnorm_wordpool_576.txt	LTP354	ltpFR2	5	10	MARROW	872	n/a	n/a	0	0	0
2009405	REC_WORD	wordpools/wasnorm_wordpool_576.txt	LTP354	ltpFR2	5	10	VELVET	1555	n/a	n/a	0	0	0
2011730	REC_WORD	wordpools/wasnorm_wordpool_576.txt	LTP354	ltpFR2	5	10	SNAKE	1333	n/a	n/a	0	0	0
2012735	REC_WORD	wordpools/wasnorm_wordpool_576.txt	LTP354	ltpFR2	5	10	STAKE	1368	n/a	n/a	0	0	0
2015347	REC_WORD	wordpools/wasnorm_wordpool_576.txt	LTP354	ltpFR2	5	10	COBRA	336	n/a	n/a	0	0	0
2016410	REC_WORD	wordpools/wasnorm_wordpool_576.txt	LTP354	ltpFR2	5	10	PATROL	1027	n/a	n/a	0	0	0
2043782	REC_WORD	wordpools/wasnorm_wordpool_576.txt	LTP354	ltpFR2	5	10	SHERIFF	1284	n/a	n/a	0	0	0
2046680	REC_WORD	wordpools/wasnorm_wordpool_576.txt	LTP354	ltpFR2	5	10	WAGON	1578	n/a	n/a	0	0	0
2048775	REC_WORD	wordpools/wasnorm_wordpool_576.txt	LTP354	ltpFR2	5	10	RADISH	1158	n/a	n/a	0	0	0
2063031	REC_WORD	wordpools/wasnorm_wordpool_576.txt	LTP354	ltpFR2	5	10	COIN	343	n/a	n/a	0	0	0
2091028	DISTRACTOR	n/a	LTP354	ltpFR2	5	11	n/a	n/a	n/a	n/a	0	0	0
2091028	START	n/a	LTP354	ltpFR2	5	n/a	n/a	n/a	17	n/a	n/a	n/a	n/a
2091045	PROB	n/a	LTP354	ltpFR2	5	n/a	n/a	n/a	17	10	2	3	5
2093227	PROB	n/a	LTP354	ltpFR2	5	n/a	n/a	n/a	17	17	3	9	5
2094975	PROB	n/a	LTP354	ltpFR2	5	n/a	n/a	n/a	17	11	1	9	1
2096192	PROB	n/a	LTP354	ltpFR2	5	n/a	n/a	n/a	17	13	2	4	7
2098158	PROB	n/a	LTP354	ltpFR2	5	n/a	n/a	n/a	17	12	4	6	2
2099390	PROB	n/a	LTP354	ltpFR2	5	n/a	n/a	n/a	17	15	3	3	9
2101190	PROB	n/a	LTP354	ltpFR2	5	n/a	n/a	n/a	17	25	9	9	7
2102605	PROB	n/a	LTP354	ltpFR2	5	n/a	n/a	n/a	17	20	9	3	8
2104038	PROB	n/a	LTP354	ltpFR2	5	n/a	n/a	n/a	17	18	7	4	7
2105920	PROB	n/a	LTP354	ltpFR2	5	n/a	n/a	n/a	17	14	5	1	8
2107586	PROB	n/a	LTP354	ltpFR2	5	n/a	n/a	n/a	17	17	8	3	6
2109335	PROB	n/a	LTP354	ltpFR2	5	n/a	n/a	n/a	17	23	9	8	6
2111384	PROB	n/a	LTP354	ltpFR2	5	n/a	n/a	n/a	17	17	5	8	4
2113117	PROB	n/a	LTP354	ltpFR2	5	n/a	n/a	n/a	17	11	3	1	7
2114212	STOP	n/a	LTP354	ltpFR2	5	n/a	n/a	n/a	17	n/a	n/a	n/a	n/a
2116082	WORD	wordpools/wasnorm_wordpool_576.txt	LTP354	ltpFR2	5	11	COWBOY	395	n/a	n/a	0	0	0
2118664	WORD	wordpools/wasnorm_wordpool_576.txt	LTP354	ltpFR2	5	11	BREAST	171	n/a	n/a	0	0	0
2121345	WORD	wordpools/wasnorm_wordpool_576.txt	LTP354	ltpFR2	5	11	THIEF	1456	n/a	n/a	0	0	0
2124095	WORD	wordpools/wasnorm_wordpool_576.txt	LTP354	ltpFR2	5	11	KETCHUP	771	n/a	n/a	0	0	0
2126576	WORD	wordpools/wasnorm_wordpool_576.txt	LTP354	ltpFR2	5	11	FLIPPER	580	n/a	n/a	0	0	0
2129159	WORD	wordpools/wasnorm_wordpool_576.txt	LTP354	ltpFR2	5	11	CLOUD	328	n/a	n/a	0	0	0
2131807	WORD	wordpools/wasnorm_wordpool_576.txt	LTP354	ltpFR2	5	11	FLUTE	585	n/a	n/a	0	0	0
2134489	WORD	wordpools/wasnorm_wordpool_576.txt	LTP354	ltpFR2	5	11	RIVER	1194	n/a	n/a	0	0	0
2137089	WORD	wordpools/wasnorm_wordpool_576.txt	LTP354	ltpFR2	5	11	RAFT	1159	n/a	n/a	0	0	0
2139720	WORD	wordpools/wasnorm_wordpool_576.txt	LTP354	ltpFR2	5	11	COUNTRY	388	n/a	n/a	0	0	0
2142170	WORD	wordpools/wasnorm_wordpool_576.txt	LTP354	ltpFR2	5	11	DASHBOARD	441	n/a	n/a	0	0	0
2144601	WORD	wordpools/wasnorm_wordpool_576.txt	LTP354	ltpFR2	5	11	BUGGY	188	n/a	n/a	0	0	0
2147284	WORD	wordpools/wasnorm_wordpool_576.txt	LTP354	ltpFR2	5	11	PADDLE	1000	n/a	n/a	0	0	0
2149798	WORD	wordpools/wasnorm_wordpool_576.txt	LTP354	ltpFR2	5	11	HERO	706	n/a	n/a	0	0	0
2152264	WORD	wordpools/wasnorm_wordpool_576.txt	LTP354	ltpFR2	5	11	MEDAL	885	n/a	n/a	0	0	0
2155046	WORD	wordpools/wasnorm_wordpool_576.txt	LTP354	ltpFR2	5	11	UMPIRE	1535	n/a	n/a	0	0	0
2157561	WORD	wordpools/wasnorm_wordpool_576.txt	LTP354	ltpFR2	5	11	FOOTBALL	591	n/a	n/a	0	0	0
2160260	WORD	wordpools/wasnorm_wordpool_576.txt	LTP354	ltpFR2	5	11	PAIL	1002	n/a	n/a	0	0	0
2163009	WORD	wordpools/wasnorm_wordpool_576.txt	LTP354	ltpFR2	5	11	SKIRT	1319	n/a	n/a	0	0	0
2165474	WORD	wordpools/wasnorm_wordpool_576.txt	LTP354	ltpFR2	5	11	KIDNEY	776	n/a	n/a	0	0	0
2167989	WORD	wordpools/wasnorm_wordpool_576.txt	LTP354	ltpFR2	5	11	APPLE	33	n/a	n/a	0	0	0
2170671	WORD	wordpools/wasnorm_wordpool_576.txt	LTP354	ltpFR2	5	11	PACKAGE	997	n/a	n/a	0	0	0
2173503	WORD	wordpools/wasnorm_wordpool_576.txt	LTP354	ltpFR2	5	11	HARP	689	n/a	n/a	0	0	0
2176286	WORD	wordpools/wasnorm_wordpool_576.txt	LTP354	ltpFR2	5	11	MAILMAN	858	n/a	n/a	0	0	0
2177901	START	n/a	LTP354	ltpFR2	5	n/a	n/a	n/a	18	n/a	n/a	n/a	n/a
2178739	DISTRACTOR	n/a	LTP354	ltpFR2	5	11	n/a	n/a	n/a	n/a	0	0	0
2178750	PROB	n/a	LTP354	ltpFR2	5	n/a	n/a	n/a	18	16	5	2	9
2181150	PROB	n/a	LTP354	ltpFR2	5	n/a	n/a	n/a	18	17	9	5	3
2182632	PROB	n/a	LTP354	ltpFR2	5	n/a	n/a	n/a	18	14	5	2	7
2185680	PROB	n/a	LTP354	ltpFR2	5	n/a	n/a	n/a	18	4	2	1	1
2186663	PROB	n/a	LTP354	ltpFR2	5	n/a	n/a	n/a	18	15	4	6	5
2187829	PROB	n/a	LTP354	ltpFR2	5	n/a	n/a	n/a	18	6	3	1	2
2189412	PROB	n/a	LTP354	ltpFR2	5	n/a	n/a	n/a	18	12	3	4	5
2192327	PROB	n/a	LTP354	ltpFR2	5	n/a	n/a	n/a	18	14	4	5	5
2193676	PROB	n/a	LTP354	ltpFR2	5	n/a	n/a	n/a	18	17	6	4	7
2194826	PROB	n/a	LTP354	ltpFR2	5	n/a	n/a	n/a	18	18	5	8	5
2196043	PROB	n/a	LTP354	ltpFR2	5	n/a	n/a	n/a	18	20	9	4	7
2197958	PROB	n/a	LTP354	ltpFR2	5	n/a	n/a	n/a	18	12	5	1	6
2199208	PROB	n/a	LTP354	ltpFR2	5	n/a	n/a	n/a	18	12	3	6	3
2201284	STOP	n/a	LTP354	ltpFR2	5	n/a	n/a	n/a	18	n/a	n/a	n/a	n/a
2203722	REC_START	n/a	LTP354	ltpFR2	5	11	n/a	n/a	n/a	n/a	0	0	0
2205579	REC_WORD	wordpools/wasnorm_wordpool_576.txt	LTP354	ltpFR2	5	11	COWBOY	395	n/a	n/a	0	0	0
2209032	REC_WORD	wordpools/wasnorm_wordpool_576.txt	LTP354	ltpFR2	5	11	BREAST	171	n/a	n/a	0	0	0
2212043	REC_WORD	wordpools/wasnorm_wordpool_576.txt	LTP354	ltpFR2	5	11	SKIRT	1319	n/a	n/a	0	0	0
2214780	REC_WORD	wordpools/wasnorm_wordpool_576.txt	LTP354	ltpFR2	5	11	TUTU	1524	n/a	n/a	0	0	0
2218131	REC_WORD	wordpools/wasnorm_wordpool_576.txt	LTP354	ltpFR2	5	11	PAIL	1002	n/a	n/a	0	0	0
2219541	REC_WORD	wordpools/wasnorm_wordpool_576.txt	LTP354	ltpFR2	5	11	PADDLE	1000	n/a	n/a	0	0	0
2221499	REC_WORD	wordpools/wasnorm_wordpool_576.txt	LTP354	ltpFR2	5	11	KIDNEY	776	n/a	n/a	0	0	0
2230287	REC_WORD	wordpools/wasnorm_wordpool_576.txt	LTP354	ltpFR2	5	11	RIVER	1194	n/a	n/a	0	0	0
2231287	REC_WORD_VV	wordpools/wasnorm_wordpool_576.txt	LTP354	ltpFR2	5	11	<>	-1	n/a	n/a	0	0	0
2231678	REC_WORD	wordpools/wasnorm_wordpool_576.txt	LTP354	ltpFR2	5	11	RAFT	1159	n/a	n/a	0	0	0
2243445	REC_WORD	wordpools/wasnorm_wordpool_576.txt	LTP354	ltpFR2	5	11	KIDNEY	776	n/a	n/a	0	0	0
2260037	REC_WORD	wordpools/wasnorm_wordpool_576.txt	LTP354	ltpFR2	5	11	COWBOY	395	n/a	n/a	0	0	0
2265683	REC_WORD	wordpools/wasnorm_wordpool_576.txt	LTP354	ltpFR2	5	11	DONKEY	484	n/a	n/a	0	0	0
2267759	REC_WORD	wordpools/wasnorm_wordpool_576.txt	LTP354	ltpFR2	5	11	CLOUD	328	n/a	n/a	0	0	0
2274955	REC_WORD	wordpools/wasnorm_wordpool_576.txt	LTP354	ltpFR2	5	11	TWIG	1527	n/a	n/a	0	0	0
2294194	WORD	wordpools/wasnorm_wordpool_576.txt	LTP354	ltpFR2	5	12	PORTRAIT	1111	n/a	n/a	0	0	0
2296992	WORD	wordpools/wasnorm_wordpool_576.txt	LTP354	ltpFR2	5	12	PASSAGE	1019	n/a	n/a	0	0	0
2299724	WORD	wordpools/wasnorm_wordpool_576.txt	LTP354	ltpFR2	5	12	RUG	1215	n/a	n/a	0	0	0
2302323	WORD	wordpools/wasnorm_wordpool_576.txt	LTP354	ltpFR2	5	12	OINTMENT	974	n/a	n/a	0	0	0
2304838	WORD	wordpools/wasnorm_wordpool_576.txt	LTP354	ltpFR2	5	12	DRUG	501	n/a	n/a	0	0	0
2307486	WORD	wordpools/wasnorm_wordpool_576.txt	LTP354	ltpFR2	5	12	ORCHID	982	n/a	n/a	0	0	0
2310236	WORD	wordpools/wasnorm_wordpool_576.txt	LTP354	ltpFR2	5	12	ROBBER	1197	n/a	n/a	0	0	0
2313001	WORD	wordpools/wasnorm_wordpool_576.txt	LTP354	ltpFR2	5	12	PLATE	1086	n/a	n/a	0	0	0
2315516	WORD	wordpools/wasnorm_wordpool_576.txt	LTP354	ltpFR2	5	12	MOP	916	n/a	n/a	0	0	0
2317981	WORD	wordpools/wasnorm_wordpool_576.txt	LTP354	ltpFR2	5	12	COLLEGE	346	n/a	n/a	0	0	0
2320696	WORD	wordpools/wasnorm_wordpool_576.txt	LTP354	ltpFR2	5	12	BANQUET	86	n/a	n/a	0	0	0
2323495	WORD	wordpools/wasnorm_wordpool_576.txt	LTP354	ltpFR2	5	12	REBEL	1172	n/a	n/a	0	0	0
2326012	WORD	wordpools/wasnorm_wordpool_576.txt	LTP354	ltpFR2	5	12	RIFLE	1192	n/a	n/a	0	0	0
2328826	WORD	wordpools/wasnorm_wordpool_576.txt	LTP354	ltpFR2	5	12	BUCKET	184	n/a	n/a	0	0	0
2331458	WORD	wordpools/wasnorm_wordpool_576.txt	LTP354	ltpFR2	5	12	FIREMAN	569	n/a	n/a	0	0	0
2334058	WORD	wordpools/wasnorm_wordpool_576.txt	LTP354	ltpFR2	5	12	PEDAL	1037	n/a	n/a	0	0	0
2336705	WORD	wordpools/wasnorm_wordpool_576.txt	LTP354	ltpFR2	5	12	SCISSORS	1250	n/a	n/a	0	0	0
2339404	WORD	wordpools/wasnorm_wordpool_576.txt	LTP354	ltpFR2	5	12	DRIVER	499	n/a	n/a	0	0	0
2341936	WORD	wordpools/wasnorm_wordpool_576.txt	LTP354	ltpFR2	5	12	VALVE	1546	n/a	n/a	0	0	0
2344501	WORD	wordpools/wasnorm_wordpool_576.txt	LTP354	ltpFR2	5	12	POWDER	1117	n/a	n/a	0	0	0
2347118	WORD	wordpools/wasnorm_wordpool_576.txt	LTP354	ltpFR2	5	12	BARREL	91	n/a	n/a	0	0	0
2349849	WORD	wordpools/wasnorm_wordpool_576.txt	LTP354	ltpFR2	5	12	HONEY	713	n/a	n/a	0	0	0
2352397	WORD	wordpools/wasnorm_wordpool_576.txt	LTP354	ltpFR2	5	12	CYCLONE	431	n/a	n/a	0	0	0
2355097	WORD	wordpools/wasnorm_wordpool_576.txt	LTP354	ltpFR2	5	12	BADGE	68	n/a	n/a	0	0	0
2356712	START	n/a	LTP354	ltpFR2	5	n/a	n/a	n/a	19	n/a	n/a	n/a	n/a
2357772	DISTRACTOR	n/a	LTP354	ltpFR2	5	12	n/a	n/a	n/a	n/a	0	0	0
2357778	PROB	n/a	LTP354	ltpFR2	5	n/a	n/a	n/a	19	23	9	7	7
2360360	PROB	n/a	LTP354	ltpFR2	5	n/a	n/a	n/a	19	23	9	6	8
2362227	PROB	n/a	LTP354	ltpFR2	5	n/a	n/a	n/a	19	13	3	7	3
2363475	PROB	n/a	LTP354	ltpFR2	5	n/a	n/a	n/a	19	16	6	6	4
2364691	PROB	n/a	LTP354	ltpFR2	5	n/a	n/a	n/a	19	16	8	4	4
2366025	PROB	n/a	LTP354	ltpFR2	5	n/a	n/a	n/a	19	23	7	5	9
2367740	PROB	n/a	LTP354	ltpFR2	5	n/a	n/a	n/a	19	16	8	5	3
2370522	PROB	n/a	LTP354	ltpFR2	5	n/a	n/a	n/a	19	15	7	1	7
2371688	PROB	n/a	LTP354	ltpFR2	5	n/a	n/a	n/a	19	13	3	2	8
2372954	PROB	n/a	LTP354	ltpFR2	5	n/a	n/a	n/a	19	8	2	1	5
2374288	PROB	n/a	LTP354	ltpFR2	5	n/a	n/a	n/a	19	16	3	5	8
2375936	PROB	n/a	LTP354	ltpFR2	5	n/a	n/a	n/a	19	18	9	7	2
2377552	PROB	n/a	LTP354	ltpFR2	5	n/a	n/a	n/a	19	10	6	3	1
2378784	PROB	n/a	LTP354	ltpFR2	5	n/a	n/a	n/a	19	22	9	8	5
2380675	STOP	n/a	LTP354	ltpFR2	5	n/a	n/a	n/a	19	n/a	n/a	n/a	n/a
2382633	REC_START	n/a	LTP354	ltpFR2	5	12	n/a	n/a	n/a	n/a	0	0	0
2386834	REC_WORD	wordpools/wasnorm_wordpool_576.txt	LTP354	ltpFR2	5	12	OINTMENT	974	n/a	n/a	0	0	0
2388793	REC_WORD	wordpools/wasnorm_wordpool_576.txt	LTP354	ltpFR2	5	12	ORCHID	982	n/a	n/a	0	0	0
2395084	REC_WORD	wordpools/wasnorm_wordpool_576.txt	LTP354	ltpFR2	5	12	FIREMAN	569	n/a	n/a	0	0	0
2398261	REC_WORD	wordpools/wasnorm_wordpool_576.txt	LTP354	ltpFR2	5	12	BADGE	68	n/a	n/a	0	0	0
2404402	REC_WORD	wordpools/wasnorm_wordpool_576.txt	LTP354	ltpFR2	5	12	POLICE	1098	n/a	n/a	0	0	0
2408661	REC_WORD_VV	wordpools/wasnorm_wordpool_576.txt	LTP354	ltpFR2	5	12	<>	-1	n/a	n/a	0	0	0
2420037	REC_WORD	wordpools/wasnorm_wordpool_576.txt	LTP354	ltpFR2	5	12	LASER	801	n/a	n/a	0	0	0
2445540	REC_WORD	wordpools/wasnorm_wordpool_576.txt	LTP354	ltpFR2	5	12	THIEF	1456	n/a	n/a	0	0	0
2447060	REC_WORD	wordpools/wasnorm_wordpool_576.txt	LTP354	ltpFR2	5	12	PRINCESS	1125	n/a	n/a	0	0	0
2473105	DISTRACTOR	n/a	LTP354	ltpFR2	5	13	n/a	n/a	n/a	n/a	0	0	0
2473105	START	n/a	LTP354	ltpFR2	5	n/a	n/a	n/a	20	n/a	n/a	n/a	n/a
2473122	PROB	n/a	LTP354	ltpFR2	5	n/a	n/a	n/a	20	17	5	9	3
2476952	PROB	n/a	LTP354	ltpFR2	5	n/a	n/a	n/a	20	13	3	9	1
2478785	PROB	n/a	LTP354	ltpFR2	5	n/a	n/a	n/a	20	17	6	8	3
2480434	PROB	n/a	LTP354	ltpFR2	5	n/a	n/a	n/a	20	21	7	6	8
2482433	PROB	n/a	LTP354	ltpFR2	5	n/a	n/a	n/a	20	20	2	9	9
2485132	PROB	n/a	LTP354	ltpFR2	5	n/a	n/a	n/a	20	14	3	2	9
2487098	PROB	n/a	LTP354	ltpFR2	5	n/a	n/a	n/a	20	14	2	9	3
2488930	PROB	n/a	LTP354	ltpFR2	5	n/a	n/a	n/a	20	18	5	8	5
2490213	PROB	n/a	LTP354	ltpFR2	5	n/a	n/a	n/a	20	10	2	7	1
2491279	PROB	n/a	LTP354	ltpFR2	5	n/a	n/a	n/a	20	25	8	8	9
2493427	PROB	n/a	LTP354	ltpFR2	5	n/a	n/a	n/a	20	16	3	7	6
2494510	PROB	n/a	LTP354	ltpFR2	5	n/a	n/a	n/a	20	15	3	3	9
2495995	STOP	n/a	LTP354	ltpFR2	5	n/a	n/a	n/a	20	n/a	n/a	n/a	n/a
2498276	WORD	wordpools/wasnorm_wordpool_576.txt	LTP354	ltpFR2	5	13	LETTUCE	814	n/a	n/a	0	0	0
2501008	WORD	wordpools/wasnorm_wordpool_576.txt	LTP354	ltpFR2	5	13	ELBOW	520	n/a	n/a	0	0	0
2503706	WORD	wordpools/wasnorm_wordpool_576.txt	LTP354	ltpFR2	5	13	CRUTCH	417	n/a	n/a	0	0	0
2506454	WORD	wordpools/wasnorm_wordpool_576.txt	LTP354	ltpFR2	5	13	SHOVEL	1295	n/a	n/a	0	0	0
2508953	WORD	wordpools/wasnorm_wordpool_576.txt	LTP354	ltpFR2	5	13	TREAT	1501	n/a	n/a	0	0	0
2511635	WORD	wordpools/wasnorm_wordpool_576.txt	LTP354	ltpFR2	5	13	STOMACH	1384	n/a	n/a	0	0	0
2514301	WORD	wordpools/wasnorm_wordpool_576.txt	LTP354	ltpFR2	5	13	WINDOW	1611	n/a	n/a	0	0	0
2517083	WORD	wordpools/wasnorm_wordpool_576.txt	LTP354	ltpFR2	5	13	GIFT	635	n/a	n/a	0	0	0
2519764	WORD	wordpools/wasnorm_wordpool_576.txt	LTP354	ltpFR2	5	13	MISSILE	900	n/a	n/a	0	0	0
2522247	WORD	wordpools/wasnorm_wordpool_576.txt	LTP354	ltpFR2	5	13	PISTOL	1075	n/a	n/a	0	0	0
2524895	WORD	wordpools/wasnorm_wordpool_576.txt	LTP354	ltpFR2	5	13	IGLOO	734	n/a	n/a	0	0	0
2527577	WORD	wordpools/wasnorm_wordpool_576.txt	LTP354	ltpFR2	5	13	CARRIAGE	248	n/a	n/a	0	0	0
2530077	WORD	wordpools/wasnorm_wordpool_576.txt	LTP354	ltpFR2	5	13	TORTOISE	1486	n/a	n/a	0	0	0
2532874	WORD	wordpools/wasnorm_wordpool_576.txt	LTP354	ltpFR2	5	13	FLASHLIGHT	575	n/a	n/a	0	0	0
2535457	WORD	wordpools/wasnorm_wordpool_576.txt	LTP354	ltpFR2	5	13	DAISY	435	n/a	n/a	0	0	0
2538206	WORD	wordpools/wasnorm_wordpool_576.txt	LTP354	ltpFR2	5	13	GARDEN	623	n/a	n/a	0	0	0
2541005	WORD	wordpools/wasnorm_wordpool_576.txt	LTP354	ltpFR2	5	13	CABIN	211	n/a	n/a	0	0	0
2543503	WORD	wordpools/wasnorm_wordpool_576.txt	LTP354	ltpFR2	5	13	DONOR	485	n/a	n/a	0	0	0
2546002	WORD	wordpools/wasnorm_wordpool_576.txt	LTP354	ltpFR2	5	13	ULCER	1533	n/a	n/a	0	0	0
2548433	WORD	wordpools/wasnorm_wordpool_576.txt	LTP354	ltpFR2	5	13	STALLION	1369	n/a	n/a	0	0	0
2551183	WORD	wordpools/wasnorm_wordpool_576.txt	LTP354	ltpFR2	5	13	STATUE	1374	n/a	n/a	0	0	0
2553998	WORD	wordpools/wasnorm_wordpool_576.txt	LTP354	ltpFR2	5	13	NOTEBOOK	959	n/a	n/a	0	0	0
2556646	WORD	wordpools/wasnorm_wordpool_576.txt	LTP354	ltpFR2	5	13	COMET	353	n/a	n/a	0	0	0
2559146	WORD	wordpools/wasnorm_wordpool_576.txt	LTP354	ltpFR2	5	13	DRINK	498	n/a	n/a	0	0	0
2560761	START	n/a	LTP354	ltpFR2	5	n/a	n/a	n/a	21	n/a	n/a	n/a	n/a
2561827	DISTRACTOR	n/a	LTP354	ltpFR2	5	13	n/a	n/a	n/a	n/a	0	0	0
2561843	PROB	n/a	LTP354	ltpFR2	5	n/a	n/a	n/a	21	15	2	8	5
2563543	PROB	n/a	LTP354	ltpFR2	5	n/a	n/a	n/a	21	18	7	3	8
2564775	PROB	n/a	LTP354	ltpFR2	5	n/a	n/a	n/a	21	13	1	4	8
2566009	PROB	n/a	LTP354	ltpFR2	5	n/a	n/a	n/a	21	18	4	8	6
2567341	PROB	n/a	LTP354	ltpFR2	5	n/a	n/a	n/a	21	12	4	5	3
2569057	PROB	n/a	LTP354	ltpFR2	5	n/a	n/a	n/a	21	21	7	6	8
2570672	PROB	n/a	LTP354	ltpFR2	5	n/a	n/a	n/a	21	14	7	1	6
2572405	PROB	n/a	LTP354	ltpFR2	5	n/a	n/a	n/a	21	17	6	2	9
2574005	PROB	n/a	LTP354	ltpFR2	5	n/a	n/a	n/a	21	6	2	3	1
2575653	PROB	n/a	LTP354	ltpFR2	5	n/a	n/a	n/a	21	15	7	4	4
2577852	PROB	n/a	LTP354	ltpFR2	5	n/a	n/a	n/a	21	9	7	1	1
2579069	PROB	n/a	LTP354	ltpFR2	5	n/a	n/a	n/a	21	8	1	1	6
2580152	PROB	n/a	LTP354	ltpFR2	5	n/a	n/a	n/a	21	8	6	1	1
2581400	PROB	n/a	LTP354	ltpFR2	5	n/a	n/a	n/a	21	11	2	6	3
2584204	STOP	n/a	LTP354	ltpFR2	5	n/a	n/a	n/a	21	n/a	n/a	n/a	n/a
2586632	REC_START	n/a	LTP354	ltpFR2	5	13	n/a	n/a	n/a	n/a	0	0	0
2588011	REC_WORD	wordpools/wasnorm_wordpool_576.txt	LTP354	ltpFR2	5	13	DRINK	498	n/a	n/a	0	0	0
2592030	REC_WORD	wordpools/wasnorm_wordpool_576.txt	LTP354	ltpFR2	5	13	CABIN	211	n/a	n/a	0	0	0
2594842	REC_WORD	wordpools/wasnorm_wordpool_576.txt	LTP354	ltpFR2	5	13	ELBOW	520	n/a	n/a	0	0	0
2597033	REC_WORD	wordpools/wasnorm_wordpool_576.txt	LTP354	ltpFR2	5	13	KIDNEY	776	n/a	n/a	0	0	0
2598189	REC_WORD_VV	wordpools/wasnorm_wordpool_576.txt	LTP354	ltpFR2	5	13	<>	-1	n/a	n/a	0	0	0
2598674	REC_WORD	wordpools/wasnorm_wordpool_576.txt	LTP354	ltpFR2	5	13	STOMACH	1384	n/a	n/a	0	0	0
2602991	REC_WORD	wordpools/wasnorm_wordpool_576.txt	LTP354	ltpFR2	5	13	ULCER	1533	n/a	n/a	0	0	0
2624010	REC_WORD	wordpools/wasnorm_wordpool_576.txt	LTP354	ltpFR2	5	13	FLASHLIGHT	575	n/a	n/a	0	0	0
2625010	REC_WORD_VV	wordpools/wasnorm_wordpool_576.txt	LTP354	ltpFR2	5	13	<>	-1	n/a	n/a	0	0	0
2627897	REC_WORD	wordpools/wasnorm_wordpool_576.txt	LTP354	ltpFR2	5	13	TORTOISE	1486	n/a	n/a	0	0	0
2654999	REC_WORD	wordpools/wasnorm_wordpool_576.txt	LTP354	ltpFR2	5	13	IGLOO	734	n/a	n/a	0	0	0
2677087	DISTRACTOR	n/a	LTP354	ltpFR2	5	14	n/a	n/a	n/a	n/a	0	0	0
2677087	START	n/a	LTP354	ltpFR2	5	n/a	n/a	n/a	22	n/a	n/a	n/a	n/a
2677104	PROB	n/a	LTP354	ltpFR2	5	n/a	n/a	n/a	22	15	4	3	8
2679253	PROB	n/a	LTP354	ltpFR2	5	n/a	n/a	n/a	22	12	3	1	8
2680551	PROB	n/a	LTP354	ltpFR2	5	n/a	n/a	n/a	22	10	6	3	1
2681634	PROB	n/a	LTP354	ltpFR2	5	n/a	n/a	n/a	22	14	7	1	6
2683051	PROB	n/a	LTP354	ltpFR2	5	n/a	n/a	n/a	22	20	9	6	5
2685267	PROB	n/a	LTP354	ltpFR2	5	n/a	n/a	n/a	22	7	1	2	4
2686332	PROB	n/a	LTP354	ltpFR2	5	n/a	n/a	n/a	22	15	7	7	1
2687414	PROB	n/a	LTP354	ltpFR2	5	n/a	n/a	n/a	22	16	7	3	6
2688564	PROB	n/a	LTP354	ltpFR2	5	n/a	n/a	n/a	22	20	6	7	7
2689813	PROB	n/a	LTP354	ltpFR2	5	n/a	n/a	n/a	22	5	3	1	1
2691962	PROB	n/a	LTP354	ltpFR2	5	n/a	n/a	n/a	22	17	2	9	6
2693328	PROB	n/a	LTP354	ltpFR2	5	n/a	n/a	n/a	22	24	6	9	9
2694677	PROB	n/a	LTP354	ltpFR2	5	n/a	n/a	n/a	22	11	7	3	1
2695710	PROB	n/a	LTP354	ltpFR2	5	n/a	n/a	n/a	22	13	4	3	6
2696876	PROB	n/a	LTP354	ltpFR2	5	n/a	n/a	n/a	22	14	5	3	6
2698326	PROB	n/a	LTP354	ltpFR2	5	n/a	n/a	n/a	22	7	5	1	1
2699293	PROB	n/a	LTP354	ltpFR2	5	n/a	n/a	n/a	22	19	4	9	6
2700339	STOP	n/a	LTP354	ltpFR2	5	n/a	n/a	n/a	22	n/a	n/a	n/a	n/a
2701907	WORD	wordpools/wasnorm_wordpool_576.txt	LTP354	ltpFR2	5	14	BRANDY	169	n/a	n/a	0	0	0
2704439	WORD	wordpools/wasnorm_wordpool_576.txt	LTP354	ltpFR2	5	14	GARBAGE	622	n/a	n/a	0	0	0
2706988	WORD	wordpools/wasnorm_wordpool_576.txt	LTP354	ltpFR2	5	14	HIGHWAY	707	n/a	n/a	0	0	0
2709587	WORD	wordpools/wasnorm_wordpool_576.txt	LTP354	ltpFR2	5	14	YACHT	1629	n/a	n/a	0	0	0
2712086	WORD	wordpools/wasnorm_wordpool_576.txt	LTP354	ltpFR2	5	14	CHIPMUNK	304	n/a	n/a	0	0	0
2714518	WORD	wordpools/wasnorm_wordpool_576.txt	LTP354	ltpFR2	5	14	NEUTRON	947	n/a	n/a	0	0	0
2717284	WORD	wordpools/wasnorm_wordpool_576.txt	LTP354	ltpFR2	5	14	PROTON	1132	n/a	n/a	0	0	0
2720049	WORD	wordpools/wasnorm_wordpool_576.txt	LTP354	ltpFR2	5	14	SCALLOP	1242	n/a	n/a	0	0	0
2722697	WORD	wordpools/wasnorm_wordpool_576.txt	LTP354	ltpFR2	5	14	GROUND	666	n/a	n/a	0	0	0
2725462	WORD	wordpools/wasnorm_wordpool_576.txt	LTP354	ltpFR2	5	14	DUST	508	n/a	n/a	0	0	0
2728245	WORD	wordpools/wasnorm_wordpool_576.txt	LTP354	ltpFR2	5	14	YARN	1631	n/a	n/a	0	0	0
2730710	WORD	wordpools/wasnorm_wordpool_576.txt	LTP354	ltpFR2	5	14	DINER	467	n/a	n/a	0	0	0
2733143	WORD	wordpools/wasnorm_wordpool_576.txt	LTP354	ltpFR2	5	14	PARSLEY	1016	n/a	n/a	0	0	0
2735690	WORD	wordpools/wasnorm_wordpool_576.txt	LTP354	ltpFR2	5	14	COUSIN	392	n/a	n/a	0	0	0
2738290	WORD	wordpools/wasnorm_wordpool_576.txt	LTP354	ltpFR2	5	14	SOFTBALL	1343	n/a	n/a	0	0	0
2741039	WORD	wordpools/wasnorm_wordpool_576.txt	LTP354	ltpFR2	5	14	CRICKET	408	n/a	n/a	0	0	0
2743736	WORD	wordpools/wasnorm_wordpool_576.txt	LTP354	ltpFR2	5	14	LIVER	833	n/a	n/a	0	0	0
2746552	WORD	wordpools/wasnorm_wordpool_576.txt	LTP354	ltpFR2	5	14	SPOOL	1356	n/a	n/a	0	0	0
2749350	WORD	wordpools/wasnorm_wordpool_576.txt	LTP354	ltpFR2	5	14	FUNGUS	614	n/a	n/a	0	0	0
2752017	WORD	wordpools/wasnorm_wordpool_576.txt	LTP354	ltpFR2	5	14	PIMPLE	1071	n/a	n/a	0	0	0
2754481	WORD	wordpools/wasnorm_wordpool_576.txt	LTP354	ltpFR2	5	14	CHILD	299	n/a	n/a	0	0	0
2757097	WORD	wordpools/wasnorm_wordpool_576.txt	LTP354	ltpFR2	5	14	DUSTPAN	509	n/a	n/a	0	0	0
2759695	WORD	wordpools/wasnorm_wordpool_576.txt	LTP354	ltpFR2	5	14	AWARD	63	n/a	n/a	0	0	0
2762444	WORD	wordpools/wasnorm_wordpool_576.txt	LTP354	ltpFR2	5	14	SKILLET	1317	n/a	n/a	0	0	0
2764061	START	n/a	LTP354	ltpFR2	5	n/a	n/a	n/a	23	n/a	n/a	n/a	n/a
2764941	DISTRACTOR	n/a	LTP354	ltpFR2	5	14	n/a	n/a	n/a	n/a	0	0	0
2764943	PROB	n/a	LTP354	ltpFR2	5	n/a	n/a	n/a	23	13	2	9	2
2766542	PROB	n/a	LTP354	ltpFR2	5	n/a	n/a	n/a	23	15	3	9	3
2770058	PROB	n/a	LTP354	ltpFR2	5	n/a	n/a	n/a	23	17	4	6	7
2771506	PROB	n/a	LTP354	ltpFR2	5	n/a	n/a	n/a	23	13	8	3	2
2774688	PROB	n/a	LTP354	ltpFR2	5	n/a	n/a	n/a	23	12	2	9	1
2776205	PROB	n/a	LTP354	ltpFR2	5	n/a	n/a	n/a	23	6	3	1	2
2777553	PROB	n/a	LTP354	ltpFR2	5	n/a	n/a	n/a	23	21	9	8	4
2779053	PROB	n/a	LTP354	ltpFR2	5	n/a	n/a	n/a	23	14	7	3	4
2780236	PROB	n/a	LTP354	ltpFR2	5	n/a	n/a	n/a	23	11	2	6	3
2781884	PROB	n/a	LTP354	ltpFR2	5	n/a	n/a	n/a	23	14	2	5	7
2783334	PROB	n/a	LTP354	ltpFR2	5	n/a	n/a	n/a	23	18	9	8	1
2785332	PROB	n/a	LTP354	ltpFR2	5	n/a	n/a	n/a	23	18	5	7	6
2787419	STOP	n/a	LTP354	ltpFR2	5	n/a	n/a	n/a	23	n/a	n/a	n/a	n/a
2789814	REC_START	n/a	LTP354	ltpFR2	5	14	n/a	n/a	n/a	n/a	0	0	0
2791386	REC_WORD	wordpools/wasnorm_wordpool_576.txt	LTP354	ltpFR2	5	14	DUSTPAN	509	n/a	n/a	0	0	0
2792517	REC_WORD	wordpools/wasnorm_wordpool_576.txt	LTP354	ltpFR2	5	14	SKILLET	1317	n/a	n/a	0	0	0
2795332	REC_WORD	wordpools/wasnorm_wordpool_576.txt	LTP354	ltpFR2	5	14	GROUND	666	n/a	n/a	0	0	0
2796336	REC_WORD	wordpools/wasnorm_wordpool_576.txt	LTP354	ltpFR2	5	14	DUST	508	n/a	n/a	0	0	0
2797910	REC_WORD	wordpools/wasnorm_wordpool_576.txt	LTP354	ltpFR2	5	14	SCALLOP	1242	n/a	n/a	0	0	0
2801774	REC_WORD	wordpools/wasnorm_wordpool_576.txt	LTP354	ltpFR2	5	14	CHIPMUNK	304	n/a	n/a	0	0	0
2802904	REC_WORD	wordpools/wasnorm_wordpool_576.txt	LTP354	ltpFR2	5	14	FUNGUS	614	n/a	n/a	0	0	0
2803904	REC_WORD_VV	wordpools/wasnorm_wordpool_576.txt	LTP354	ltpFR2	5	14	<>	-1	n/a	n/a	0	0	0
2805209	REC_WORD	wordpools/wasnorm_wordpool_576.txt	LTP354	ltpFR2	5	14	CHILD	299	n/a	n/a	0	0	0
2806602	REC_WORD	wordpools/wasnorm_wordpool_576.txt	LTP354	ltpFR2	5	14	PIMPLE	1071	n/a	n/a	0	0	0
2808004	REC_WORD	wordpools/wasnorm_wordpool_576.txt	LTP354	ltpFR2	5	14	BRANDY	169	n/a	n/a	0	0	0
2809435	REC_WORD	wordpools/wasnorm_wordpool_576.txt	LTP354	ltpFR2	5	14	BRANDY	169	n/a	n/a	0	0	0
2819303	REC_WORD	wordpools/wasnorm_wordpool_576.txt	LTP354	ltpFR2	5	14	LIVER	833	n/a	n/a	0	0	0
2838882	REC_WORD	wordpools/wasnorm_wordpool_576.txt	LTP354	ltpFR2	5	14	AWARD	63	n/a	n/a	0	0	0
2880303	DISTRACTOR	n/a	LTP354	ltpFR2	5	15	n/a	n/a	n/a	n/a	0	0	0
2880303	START	n/a	LTP354	ltpFR2	5	n/a	n/a	n/a	24	n/a	n/a	n/a	n/a
2880320	PROB	n/a	LTP354	ltpFR2	5	n/a	n/a	n/a	24	12	4	4	4
2881801	PROB	n/a	LTP354	ltpFR2	5	n/a	n/a	n/a	24	26	8	9	9
2884500	PROB	n/a	LTP354	ltpFR2	5	n/a	n/a	n/a	24	18	3	8	7
2885899	PROB	n/a	LTP354	ltpFR2	5	n/a	n/a	n/a	24	22	6	8	8
2888132	PROB	n/a	LTP354	ltpFR2	5	n/a	n/a	n/a	24	17	4	8	5
2890497	PROB	n/a	LTP354	ltpFR2	5	n/a	n/a	n/a	24	13	3	8	2
2891796	PROB	n/a	LTP354	ltpFR2	5	n/a	n/a	n/a	24	15	7	3	5
2893147	PROB	n/a	LTP354	ltpFR2	5	n/a	n/a	n/a	24	15	5	6	4
2894179	PROB	n/a	LTP354	ltpFR2	5	n/a	n/a	n/a	24	11	1	4	6
2895179	PROB	n/a	LTP354	ltpFR2	5	n/a	n/a	n/a	24	12	3	5	4
2896711	PROB	n/a	LTP354	ltpFR2	5	n/a	n/a	n/a	24	16	3	6	7
2899177	PROB	n/a	LTP354	ltpFR2	5	n/a	n/a	n/a	24	12	2	2	8
2900226	PROB	n/a	LTP354	ltpFR2	5	n/a	n/a	n/a	24	7	3	3	1
2901293	PROB	n/a	LTP354	ltpFR2	5	n/a	n/a	n/a	24	14	3	7	4
2902558	PROB	n/a	LTP354	ltpFR2	5	n/a	n/a	n/a	24	14	7	6	1
2903779	STOP	n/a	LTP354	ltpFR2	5	n/a	n/a	n/a	24	n/a	n/a	n/a	n/a
2905257	WORD	wordpools/wasnorm_wordpool_576.txt	LTP354	ltpFR2	5	15	SHARK	1275	n/a	n/a	0	0	0
2907938	WORD	wordpools/wasnorm_wordpool_576.txt	LTP354	ltpFR2	5	15	BEAVER	109	n/a	n/a	0	0	0
2910720	WORD	wordpools/wasnorm_wordpool_576.txt	LTP354	ltpFR2	5	15	BISON	131	n/a	n/a	0	0	0
2913187	WORD	wordpools/wasnorm_wordpool_576.txt	LTP354	ltpFR2	5	15	ITEM	746	n/a	n/a	0	0	0
2915851	WORD	wordpools/wasnorm_wordpool_576.txt	LTP354	ltpFR2	5	15	BACON	67	n/a	n/a	0	0	0
2918566	WORD	wordpools/wasnorm_wordpool_576.txt	LTP354	ltpFR2	5	15	OMELET	976	n/a	n/a	0	0	0
2921049	WORD	wordpools/wasnorm_wordpool_576.txt	LTP354	ltpFR2	5	15	TRIBE	1505	n/a	n/a	0	0	0
2923730	WORD	wordpools/wasnorm_wordpool_576.txt	LTP354	ltpFR2	5	15	OFFICE	972	n/a	n/a	0	0	0
2926346	WORD	wordpools/wasnorm_wordpool_576.txt	LTP354	ltpFR2	5	15	MONEY	908	n/a	n/a	0	0	0
2928961	WORD	wordpools/wasnorm_wordpool_576.txt	LTP354	ltpFR2	5	15	PEPPER	1047	n/a	n/a	0	0	0
2931527	WORD	wordpools/wasnorm_wordpool_576.txt	LTP354	ltpFR2	5	15	MARSH	874	n/a	n/a	0	0	0
2934060	WORD	wordpools/wasnorm_wordpool_576.txt	LTP354	ltpFR2	5	15	WRIST	1626	n/a	n/a	0	0	0
2936491	WORD	wordpools/wasnorm_wordpool_576.txt	LTP354	ltpFR2	5	15	STOVE	1388	n/a	n/a	0	0	0
2939090	WORD	wordpools/wasnorm_wordpool_576.txt	LTP354	ltpFR2	5	15	RECEIPT	1173	n/a	n/a	0	0	0
2941788	WORD	wordpools/wasnorm_wordpool_576.txt	LTP354	ltpFR2	5	15	HAMPER	682	n/a	n/a	0	0	0
2944420	WORD	wordpools/wasnorm_wordpool_576.txt	LTP354	ltpFR2	5	15	NOMAD	955	n/a	n/a	0	0	0
2947136	WORD	wordpools/wasnorm_wordpool_576.txt	LTP354	ltpFR2	5	15	BELLY	119	n/a	n/a	0	0	0
2949834	WORD	wordpools/wasnorm_wordpool_576.txt	LTP354	ltpFR2	5	15	BASEMENT	94	n/a	n/a	0	0	0
2952633	WORD	wordpools/wasnorm_wordpool_576.txt	LTP354	ltpFR2	5	15	FRIAR	605	n/a	n/a	0	0	0
2955166	WORD	wordpools/wasnorm_wordpool_576.txt	LTP354	ltpFR2	5	15	FLEET	578	n/a	n/a	0	0	0
2957980	WORD	wordpools/wasnorm_wordpool_576.txt	LTP354	ltpFR2	5	15	GREASE	660	n/a	n/a	0	0	0
2960479	WORD	wordpools/wasnorm_wordpool_576.txt	LTP354	ltpFR2	5	15	SHIRT	1287	n/a	n/a	0	0	0
2963029	WORD	wordpools/wasnorm_wordpool_576.txt	LTP354	ltpFR2	5	15	FIREPLACE	570	n/a	n/a	0	0	0
2965760	WORD	wordpools/wasnorm_wordpool_576.txt	LTP354	ltpFR2	5	15	DIME	466	n/a	n/a	0	0	0
2967376	START	n/a	LTP354	ltpFR2	5	n/a	n/a	n/a	25	n/a	n/a	n/a	n/a
2968273	DISTRACTOR	n/a	LTP354	ltpFR2	5	15	n/a	n/a	n/a	n/a	0	0	0
2968276	PROB	n/a	LTP354	ltpFR2	5	n/a	n/a	n/a	25	14	6	4	4
2971041	PROB	n/a	LTP354	ltpFR2	5	n/a	n/a	n/a	25	12	2	3	7
2972390	PROB	n/a	LTP354	ltpFR2	5	n/a	n/a	n/a	25	14	7	2	5
2975322	PROB	n/a	LTP354	ltpFR2	5	n/a	n/a	n/a	25	10	3	3	4
2978221	PROB	n/a	LTP354	ltpFR2	5	n/a	n/a	n/a	25	14	1	8	5
2979636	PROB	n/a	LTP354	ltpFR2	5	n/a	n/a	n/a	25	10	1	2	7
2980885	PROB	n/a	LTP354	ltpFR2	5	n/a	n/a	n/a	25	12	3	3	6
2983434	PROB	n/a	LTP354	ltpFR2	5	n/a	n/a	n/a	25	21	9	6	6
2985118	PROB	n/a	LTP354	ltpFR2	5	n/a	n/a	n/a	25	15	2	7	8
2986682	PROB	n/a	LTP354	ltpFR2	5	n/a	n/a	n/a	25	18	7	4	7
2988698	PROB	n/a	LTP354	ltpFR2	5	n/a	n/a	n/a	25	12	8	2	2
2989859	STOP	n/a	LTP354	ltpFR2	5	n/a	n/a	n/a	25	n/a	n/a	n/a	n/a
2993214	REC_START	n/a	LTP354	ltpFR2	5	15	n/a	n/a	n/a	n/a	0	0	0
2996178	REC_WORD	wordpools/wasnorm_wordpool_576.txt	LTP354	ltpFR2	5	15	BELLY	119	n/a	n/a	0	0	0
3001193	REC_WORD	wordpools/wasnorm_wordpool_576.txt	LTP354	ltpFR2	5	15	GREASE	660	n/a	n/a	0	0	0
3003668	REC_WORD	wordpools/wasnorm_wordpool_576.txt	LTP354	ltpFR2	5	15	WRIST	1626	n/a	n/a	0	0	0
3006748	REC_WORD	wordpools/wasnorm_wordpool_576.txt	LTP354	ltpFR2	5	15	SHIRT	1287	n/a	n/a	0	0	0
3008431	REC_WORD	wordpools/wasnorm_wordpool_576.txt	LTP354	ltpFR2	5	15	GREASE	660	n/a	n/a	0	0	0
3014759	REC_WORD	wordpools/wasnorm_wordpool_576.txt	LTP354	ltpFR2	5	15	BACON	67	n/a	n/a	0	0	0
3015636	REC_WORD	wordpools/wasnorm_wordpool_576.txt	LTP354	ltpFR2	5	15	OMELET	976	n/a	n/a	0	0	0
3017882	REC_WORD	wordpools/wasnorm_wordpool_576.txt	LTP354	ltpFR2	5	15	BISON	131	n/a	n/a	0	0	0
3025144	REC_WORD	wordpools/wasnorm_wordpool_576.txt	LTP354	ltpFR2	5	15	FIREPLACE	570	n/a	n/a	0	0	0
3026144	REC_WORD_VV	wordpools/wasnorm_wordpool_576.txt	LTP354	ltpFR2	5	15	<>	-1	n/a	n/a	0	0	0
3034252	REC_WORD	wordpools/wasnorm_wordpool_576.txt	LTP354	ltpFR2	5	15	ITEM	746	n/a	n/a	0	0	0
3038401	REC_WORD	wordpools/wasnorm_wordpool_576.txt	LTP354	ltpFR2	5	15	DIME	466	n/a	n/a	0	0	0
3046444	REC_WORD	wordpools/wasnorm_wordpool_576.txt	LTP354	ltpFR2	5	15	POND	1101	n/a	n/a	0	0	0
3049121	REC_WORD_VV	wordpools/wasnorm_wordpool_576.txt	LTP354	ltpFR2	5	15	<>	-1	n/a	n/a	0	0	0
3055610	REC_WORD	wordpools/wasnorm_wordpool_576.txt	LTP354	ltpFR2	5	15	MARSH	874	n/a	n/a	0	0	0
3083651	DISTRACTOR	n/a	LTP354	ltpFR2	5	16	n/a	n/a	n/a	n/a	0	0	0
3083652	START	n/a	LTP354	ltpFR2	5	n/a	n/a	n/a	26	n/a	n/a	n/a	n/a
3083668	PROB	n/a	LTP354	ltpFR2	5	n/a	n/a	n/a	26	11	2	8	1
3085717	PROB	n/a	LTP354	ltpFR2	5	n/a	n/a	n/a	26	12	8	1	3
3087167	PROB	n/a	LTP354	ltpFR2	5	n/a	n/a	n/a	26	12	2	1	9
3088665	PROB	n/a	LTP354	ltpFR2	5	n/a	n/a	n/a	26	11	2	7	2
3090864	PROB	n/a	LTP354	ltpFR2	5	n/a	n/a	n/a	26	20	5	8	7
3093513	PROB	n/a	LTP354	ltpFR2	5	n/a	n/a	n/a	26	15	5	4	6
3095778	PROB	n/a	LTP354	ltpFR2	5	n/a	n/a	n/a	26	12	8	1	3
3097212	PROB	n/a	LTP354	ltpFR2	5	n/a	n/a	n/a	26	14	1	5	8
3098710	PROB	n/a	LTP354	ltpFR2	5	n/a	n/a	n/a	26	20	4	7	9
3100277	PROB	n/a	LTP354	ltpFR2	5	n/a	n/a	n/a	26	18	7	4	7
3101675	PROB	n/a	LTP354	ltpFR2	5	n/a	n/a	n/a	26	12	3	5	4
3103192	PROB	n/a	LTP354	ltpFR2	5	n/a	n/a	n/a	26	7	1	4	2
3104674	PROB	n/a	LTP354	ltpFR2	5	n/a	n/a	n/a	26	12	4	3	5
3107068	STOP	n/a	LTP354	ltpFR2	5	n/a	n/a	n/a	26	n/a	n/a	n/a	n/a
3108838	WORD	wordpools/wasnorm_wordpool_576.txt	LTP354	ltpFR2	5	16	BARLEY	88	n/a	n/a	0	0	0
3111537	WORD	wordpools/wasnorm_wordpool_576.txt	LTP354	ltpFR2	5	16	GALLON	618	n/a	n/a	0	0	0
3114170	WORD	wordpools/wasnorm_wordpool_576.txt	LTP354	ltpFR2	5	16	FINGER	567	n/a	n/a	0	0	0
3116668	WORD	wordpools/wasnorm_wordpool_576.txt	LTP354	ltpFR2	5	16	TRENCH	1503	n/a	n/a	0	0	0
3119201	WORD	wordpools/wasnorm_wordpool_576.txt	LTP354	ltpFR2	5	16	SPONGE	1355	n/a	n/a	0	0	0
3122016	WORD	wordpools/wasnorm_wordpool_576.txt	LTP354	ltpFR2	5	16	LIPSTICK	829	n/a	n/a	0	0	0
3124497	WORD	wordpools/wasnorm_wordpool_576.txt	LTP354	ltpFR2	5	16	PISTON	1076	n/a	n/a	0	0	0
3126946	WORD	wordpools/wasnorm_wordpool_576.txt	LTP354	ltpFR2	5	16	RUST	1219	n/a	n/a	0	0	0
3129478	WORD	wordpools/wasnorm_wordpool_576.txt	LTP354	ltpFR2	5	16	POLICE	1098	n/a	n/a	0	0	0
3132111	WORD	wordpools/wasnorm_wordpool_576.txt	LTP354	ltpFR2	5	16	JOURNAL	760	n/a	n/a	0	0	0
3134559	WORD	wordpools/wasnorm_wordpool_576.txt	LTP354	ltpFR2	5	16	ARM	38	n/a	n/a	0	0	0
3137042	WORD	wordpools/wasnorm_wordpool_576.txt	LTP354	ltpFR2	5	16	ICEBERG	731	n/a	n/a	0	0	0
3139756	WORD	wordpools/wasnorm_wordpool_576.txt	LTP354	ltpFR2	5	16	XEROX	1628	n/a	n/a	0	0	0
3142538	WORD	wordpools/wasnorm_wordpool_576.txt	LTP354	ltpFR2	5	16	THRONE	1461	n/a	n/a	0	0	0
3145138	WORD	wordpools/wasnorm_wordpool_576.txt	LTP354	ltpFR2	5	16	PALACE	1006	n/a	n/a	0	0	0
3147703	WORD	wordpools/wasnorm_wordpool_576.txt	LTP354	ltpFR2	5	16	LAPEL	800	n/a	n/a	0	0	0
3150385	WORD	wordpools/wasnorm_wordpool_576.txt	LTP354	ltpFR2	5	16	VAGRANT	1544	n/a	n/a	0	0	0
3152917	WORD	wordpools/wasnorm_wordpool_576.txt	LTP354	ltpFR2	5	16	FLESH	579	n/a	n/a	0	0	0
3155549	WORD	wordpools/wasnorm_wordpool_576.txt	LTP354	ltpFR2	5	16	BUG	187	n/a	n/a	0	0	0
3158132	WORD	wordpools/wasnorm_wordpool_576.txt	LTP354	ltpFR2	5	16	TEMPLE	1448	n/a	n/a	0	0	0
3160596	WORD	wordpools/wasnorm_wordpool_576.txt	LTP354	ltpFR2	5	16	CHAUFFEUR	283	n/a	n/a	0	0	0
3163246	WORD	wordpools/wasnorm_wordpool_576.txt	LTP354	ltpFR2	5	16	NOVEL	960	n/a	n/a	0	0	0
3165910	WORD	wordpools/wasnorm_wordpool_576.txt	LTP354	ltpFR2	5	16	PLUTO	1092	n/a	n/a	0	0	0
3168576	WORD	wordpools/wasnorm_wordpool_576.txt	LTP354	ltpFR2	5	16	GUARD	667	n/a	n/a	0	0	0
3170193	START	n/a	LTP354	ltpFR2	5	n/a	n/a	n/a	27	n/a	n/a	n/a	n/a
3171239	DISTRACTOR	n/a	LTP354	ltpFR2	5	16	n/a	n/a	n/a	n/a	0	0	0
3171242	PROB	n/a	LTP354	ltpFR2	5	n/a	n/a	n/a	27	13	9	1	3
3174739	PROB	n/a	LTP354	ltpFR2	5	n/a	n/a	n/a	27	12	3	1	8
3176040	PROB	n/a	LTP354	ltpFR2	5	n/a	n/a	n/a	27	12	8	2	2
3178122	PROB	n/a	LTP354	ltpFR2	5	n/a	n/a	n/a	27	14	4	6	4
3179337	PROB	n/a	LTP354	ltpFR2	5	n/a	n/a	n/a	27	22	8	6	8
3181752	PROB	n/a	LTP354	ltpFR2	5	n/a	n/a	n/a	27	10	7	2	1
3183103	PROB	n/a	LTP354	ltpFR2	5	n/a	n/a	n/a	27	22	8	5	9
3185035	PROB	n/a	LTP354	ltpFR2	5	n/a	n/a	n/a	27	15	3	8	4
3186550	PROB	n/a	LTP354	ltpFR2	5	n/a	n/a	n/a	27	18	5	9	4
3189133	PROB	n/a	LTP354	ltpFR2	5	n/a	n/a	n/a	27	18	5	6	7
3190715	PROB	n/a	LTP354	ltpFR2	5	n/a	n/a	n/a	27	19	7	3	9
3194193	STOP	n/a	LTP354	ltpFR2	5	n/a	n/a	n/a	27	n/a	n/a	n/a	n/a
3195996	REC_START	n/a	LTP354	ltpFR2	5	16	n/a	n/a	n/a	n/a	0	0	0
3199373	REC_WORD	wordpools/wasnorm_wordpool_576.txt	LTP354	ltpFR2	5	16	GUARD	667	n/a	n/a	0	0	0
3205295	REC_WORD	wordpools/wasnorm_wordpool_576.txt	LTP354	ltpFR2	5	16	VAGRANT	1544	n/a	n/a	0	0	0
3206589	REC_WORD	wordpools/wasnorm_wordpool_576.txt	LTP354	ltpFR2	5	16	FLESH	579	n/a	n/a	0	0	0
3208527	REC_WORD	wordpools/wasnorm_wordpool_576.txt	LTP354	ltpFR2	5	16	WRIST	1626	n/a	n/a	0	0	0
3209264	REC_WORD	wordpools/wasnorm_wordpool_576.txt	LTP354	ltpFR2	5	16	ARM	38	n/a	n/a	0	0	0
3217649	REC_WORD	wordpools/wasnorm_wordpool_576.txt	LTP354	ltpFR2	5	16	PALACE	1006	n/a	n/a	0	0	0
3218649	REC_WORD_VV	wordpools/wasnorm_wordpool_576.txt	LTP354	ltpFR2	5	16	<>	-1	n/a	n/a	0	0	0
3225053	REC_WORD	wordpools/wasnorm_wordpool_576.txt	LTP354	ltpFR2	5	16	FRIAR	605	n/a	n/a	0	0	0
3226053	REC_WORD_VV	wordpools/wasnorm_wordpool_576.txt	LTP354	ltpFR2	5	16	<>	-1	n/a	n/a	0	0	0
3227653	REC_WORD_VV	wordpools/wasnorm_wordpool_576.txt	LTP354	ltpFR2	5	16	<>	-1	n/a	n/a	0	0	0
3228458	REC_WORD	wordpools/wasnorm_wordpool_576.txt	LTP354	ltpFR2	5	16	FLEET	578	n/a	n/a	0	0	0
3267301	REC_WORD	wordpools/wasnorm_wordpool_576.txt	LTP354	ltpFR2	5	16	LETTUCE	814	n/a	n/a	0	0	0
3272541	REST_REWET	n/a	LTP354	ltpFR2	5	16	n/a	n/a	n/a	n/a	0	0	0
3346288	WORD	wordpools/wasnorm_wordpool_576.txt	LTP354	ltpFR2	5	17	VALLEY	1545	n/a	n/a	0	0	0
3348903	WORD	wordpools/wasnorm_wordpool_576.txt	LTP354	ltpFR2	5	17	LADY	794	n/a	n/a	0	0	0
3351451	WORD	wordpools/wasnorm_wordpool_576.txt	LTP354	ltpFR2	5	17	PILOT	1070	n/a	n/a	0	0	0
3354234	WORD	wordpools/wasnorm_wordpool_576.txt	LTP354	ltpFR2	5	17	AIRPORT	13	n/a	n/a	0	0	0
3356765	WORD	wordpools/wasnorm_wordpool_576.txt	LTP354	ltpFR2	5	17	KITCHEN	778	n/a	n/a	0	0	0
3359215	WORD	wordpools/wasnorm_wordpool_576.txt	LTP354	ltpFR2	5	17	MUMMY	932	n/a	n/a	0	0	0
3361963	WORD	wordpools/wasnorm_wordpool_576.txt	LTP354	ltpFR2	5	17	CROWN	415	n/a	n/a	0	0	0
3364695	WORD	wordpools/wasnorm_wordpool_576.txt	LTP354	ltpFR2	5	17	CABBAGE	210	n/a	n/a	0	0	0
3367195	WORD	wordpools/wasnorm_wordpool_576.txt	LTP354	ltpFR2	5	17	STREAM	1392	n/a	n/a	0	0	0
3370010	WORD	wordpools/wasnorm_wordpool_576.txt	LTP354	ltpFR2	5	17	MISTER	901	n/a	n/a	0	0	0
3372508	WORD	wordpools/wasnorm_wordpool_576.txt	LTP354	ltpFR2	5	17	PEACH	1031	n/a	n/a	0	0	0
3375107	WORD	wordpools/wasnorm_wordpool_576.txt	LTP354	ltpFR2	5	17	TYPIST	1532	n/a	n/a	0	0	0
3377805	WORD	wordpools/wasnorm_wordpool_576.txt	LTP354	ltpFR2	5	17	DRAGON	492	n/a	n/a	0	0	0
3380354	WORD	wordpools/wasnorm_wordpool_576.txt	LTP354	ltpFR2	5	17	DRILL	497	n/a	n/a	0	0	0
3383170	WORD	wordpools/wasnorm_wordpool_576.txt	LTP354	ltpFR2	5	17	HOOK	715	n/a	n/a	0	0	0
3385834	WORD	wordpools/wasnorm_wordpool_576.txt	LTP354	ltpFR2	5	17	PECAN	1036	n/a	n/a	0	0	0
3388500	WORD	wordpools/wasnorm_wordpool_576.txt	LTP354	ltpFR2	5	17	FOOT	590	n/a	n/a	0	0	0
3391066	WORD	wordpools/wasnorm_wordpool_576.txt	LTP354	ltpFR2	5	17	WASHER	1592	n/a	n/a	0	0	0
3393697	WORD	wordpools/wasnorm_wordpool_576.txt	LTP354	ltpFR2	5	17	SUPPER	1411	n/a	n/a	0	0	0
3396230	WORD	wordpools/wasnorm_wordpool_576.txt	LTP354	ltpFR2	5	17	SHORTCAKE	1292	n/a	n/a	0	0	0
3398778	WORD	wordpools/wasnorm_wordpool_576.txt	LTP354	ltpFR2	5	17	ROBOT	1200	n/a	n/a	0	0	0
3401244	WORD	wordpools/wasnorm_wordpool_576.txt	LTP354	ltpFR2	5	17	STAPLE	1371	n/a	n/a	0	0	0
3403859	WORD	wordpools/wasnorm_wordpool_576.txt	LTP354	ltpFR2	5	17	GUITAR	670	n/a	n/a	0	0	0
3406391	WORD	wordpools/wasnorm_wordpool_576.txt	LTP354	ltpFR2	5	17	SUMMIT	1405	n/a	n/a	0	0	0
3408008	START	n/a	LTP354	ltpFR2	5	n/a	n/a	n/a	28	n/a	n/a	n/a	n/a
3408892	DISTRACTOR	n/a	LTP354	ltpFR2	5	17	n/a	n/a	n/a	n/a	0	0	0
3408906	PROB	n/a	LTP354	ltpFR2	5	n/a	n/a	n/a	28	24	6	9	9
3410789	PROB	n/a	LTP354	ltpFR2	5	n/a	n/a	n/a	28	19	5	7	7
3412971	PROB	n/a	LTP354	ltpFR2	5	n/a	n/a	n/a	28	21	8	8	5
3414370	PROB	n/a	LTP354	ltpFR2	5	n/a	n/a	n/a	28	7	4	2	1
3415503	PROB	n/a	LTP354	ltpFR2	5	n/a	n/a	n/a	28	13	3	1	9
3416636	PROB	n/a	LTP354	ltpFR2	5	n/a	n/a	n/a	28	18	6	5	7
3418418	PROB	n/a	LTP354	ltpFR2	5	n/a	n/a	n/a	28	12	2	8	2
3419601	PROB	n/a	LTP354	ltpFR2	5	n/a	n/a	n/a	28	13	2	4	7
3421883	PROB	n/a	LTP354	ltpFR2	5	n/a	n/a	n/a	28	11	3	3	5
3423283	PROB	n/a	LTP354	ltpFR2	5	n/a	n/a	n/a	28	21	8	4	9
3424665	PROB	n/a	LTP354	ltpFR2	5	n/a	n/a	n/a	28	12	4	2	6
3425698	PROB	n/a	LTP354	ltpFR2	5	n/a	n/a	n/a	28	15	3	8	4
3427597	PROB	n/a	LTP354	ltpFR2	5	n/a	n/a	n/a	28	17	3	8	6
3429496	PROB	n/a	LTP354	ltpFR2	5	n/a	n/a	n/a	28	12	5	5	2
3430492	STOP	n/a	LTP354	ltpFR2	5	n/a	n/a	n/a	28	n/a	n/a	n/a	n/a
3433811	REC_START	n/a	LTP354	ltpFR2	5	17	n/a	n/a	n/a	n/a	0	0	0
3435150	REC_WORD	wordpools/wasnorm_wordpool_576.txt	LTP354	ltpFR2	5	17	VALLEY	1545	n/a	n/a	0	0	0
3437113	REC_WORD	wordpools/wasnorm_wordpool_576.txt	LTP354	ltpFR2	5	17	SUMMIT	1405	n/a	n/a	0	0	0
3439297	REC_WORD	wordpools/wasnorm_wordpool_576.txt	LTP354	ltpFR2	5	17	GUITAR	670	n/a	n/a	0	0	0
3440861	REC_WORD	wordpools/wasnorm_wordpool_576.txt	LTP354	ltpFR2	5	17	SHORTCAKE	1292	n/a	n/a	0	0	0
3442596	REC_WORD	wordpools/wasnorm_wordpool_576.txt	LTP354	ltpFR2	5	17	PEACH	1031	n/a	n/a	0	0	0
3445340	REC_WORD	wordpools/wasnorm_wordpool_576.txt	LTP354	ltpFR2	5	17	PILOT	1070	n/a	n/a	0	0	0
3446518	REC_WORD	wordpools/wasnorm_wordpool_576.txt	LTP354	ltpFR2	5	17	AIRPORT	13	n/a	n/a	0	0	0
3451900	REC_WORD	wordpools/wasnorm_wordpool_576.txt	LTP354	ltpFR2	5	17	STREAM	1392	n/a	n/a	0	0	0
3464624	REC_WORD	wordpools/wasnorm_wordpool_576.txt	LTP354	ltpFR2	5	17	MISTER	901	n/a	n/a	0	0	0
3465197	REC_WORD	wordpools/wasnorm_wordpool_576.txt	LTP354	ltpFR2	5	17	PEACH	1031	n/a	n/a	0	0	0
3467095	REC_WORD	wordpools/wasnorm_wordpool_576.txt	LTP354	ltpFR2	5	17	LADY	794	n/a	n/a	0	0	0
3470789	REC_WORD	wordpools/wasnorm_wordpool_576.txt	LTP354	ltpFR2	5	17	CROWN	415	n/a	n/a	0	0	0
3485296	REC_WORD	wordpools/wasnorm_wordpool_576.txt	LTP354	ltpFR2	5	17	LAPEL	800	n/a	n/a	0	0	0
3504106	REC_WORD	wordpools/wasnorm_wordpool_576.txt	LTP354	ltpFR2	5	17	MOUNTAIN	924	n/a	n/a	0	0	0
3524267	WORD	wordpools/wasnorm_wordpool_576.txt	LTP354	ltpFR2	5	18	GRAVE	658	n/a	n/a	0	0	0
3526881	WORD	wordpools/wasnorm_wordpool_576.txt	LTP354	ltpFR2	5	18	ZIPPER	1636	n/a	n/a	0	0	0
3529380	WORD	wordpools/wasnorm_wordpool_576.txt	LTP354	ltpFR2	5	18	JEANS	752	n/a	n/a	0	0	0
3532163	WORD	wordpools/wasnorm_wordpool_576.txt	LTP354	ltpFR2	5	18	WRENCH	1625	n/a	n/a	0	0	0
3534744	WORD	wordpools/wasnorm_wordpool_576.txt	LTP354	ltpFR2	5	18	FRANCE	601	n/a	n/a	0	0	0
3537277	WORD	wordpools/wasnorm_wordpool_576.txt	LTP354	ltpFR2	5	18	COUNTY	389	n/a	n/a	0	0	0
3539991	WORD	wordpools/wasnorm_wordpool_576.txt	LTP354	ltpFR2	5	18	TWEEZERS	1526	n/a	n/a	0	0	0
3542690	WORD	wordpools/wasnorm_wordpool_576.txt	LTP354	ltpFR2	5	18	WHISKERS	1605	n/a	n/a	0	0	0
3545206	WORD	wordpools/wasnorm_wordpool_576.txt	LTP354	ltpFR2	5	18	GRAPE	654	n/a	n/a	0	0	0
3547787	WORD	wordpools/wasnorm_wordpool_576.txt	LTP354	ltpFR2	5	18	MARINE	869	n/a	n/a	0	0	0
3550436	WORD	wordpools/wasnorm_wordpool_576.txt	LTP354	ltpFR2	5	18	PLAID	1080	n/a	n/a	0	0	0
3552901	WORD	wordpools/wasnorm_wordpool_576.txt	LTP354	ltpFR2	5	18	SCARF	1246	n/a	n/a	0	0	0
3555517	WORD	wordpools/wasnorm_wordpool_576.txt	LTP354	ltpFR2	5	18	GOBLIN	645	n/a	n/a	0	0	0
3557949	WORD	wordpools/wasnorm_wordpool_576.txt	LTP354	ltpFR2	5	18	BOUQUET	157	n/a	n/a	0	0	0
3560598	WORD	wordpools/wasnorm_wordpool_576.txt	LTP354	ltpFR2	5	18	CHAMPAGNE	278	n/a	n/a	0	0	0
3563231	WORD	wordpools/wasnorm_wordpool_576.txt	LTP354	ltpFR2	5	18	FRAME	600	n/a	n/a	0	0	0
3565828	WORD	wordpools/wasnorm_wordpool_576.txt	LTP354	ltpFR2	5	18	SALMON	1227	n/a	n/a	0	0	0
3568444	WORD	wordpools/wasnorm_wordpool_576.txt	LTP354	ltpFR2	5	18	BUNNY	198	n/a	n/a	0	0	0
3571010	WORD	wordpools/wasnorm_wordpool_576.txt	LTP354	ltpFR2	5	18	BROTHER	179	n/a	n/a	0	0	0
3573791	WORD	wordpools/wasnorm_wordpool_576.txt	LTP354	ltpFR2	5	18	SPHINX	1349	n/a	n/a	0	0	0
3576307	WORD	wordpools/wasnorm_wordpool_576.txt	LTP354	ltpFR2	5	18	PLIERS	1089	n/a	n/a	0	0	0
3578755	WORD	wordpools/wasnorm_wordpool_576.txt	LTP354	ltpFR2	5	18	TURNIP	1521	n/a	n/a	0	0	0
3581222	WORD	wordpools/wasnorm_wordpool_576.txt	LTP354	ltpFR2	5	18	BLENDER	136	n/a	n/a	0	0	0
3583869	WORD	wordpools/wasnorm_wordpool_576.txt	LTP354	ltpFR2	5	18	COTTAGE	384	n/a	n/a	0	0	0
3585485	START	n/a	LTP354	ltpFR2	5	n/a	n/a	n/a	29	n/a	n/a	n/a	n/a
3586406	DISTRACTOR	n/a	LTP354	ltpFR2	5	18	n/a	n/a	n/a	n/a	0	0	0
3586418	PROB	n/a	LTP354	ltpFR2	5	n/a	n/a	n/a	29	19	4	9	6
3588933	PROB	n/a	LTP354	ltpFR2	5	n/a	n/a	n/a	29	12	2	2	8
3590184	PROB	n/a	LTP354	ltpFR2	5	n/a	n/a	n/a	29	21	5	7	9
3592083	PROB	n/a	LTP354	ltpFR2	5	n/a	n/a	n/a	29	11	2	4	5
3594331	PROB	n/a	LTP354	ltpFR2	5	n/a	n/a	n/a	29	17	8	7	2
3596863	PROB	n/a	LTP354	ltpFR2	5	n/a	n/a	n/a	29	12	6	5	1
3598097	PROB	n/a	LTP354	ltpFR2	5	n/a	n/a	n/a	29	12	6	5	1
3599445	PROB	n/a	LTP354	ltpFR2	5	n/a	n/a	n/a	29	3	1	1	1
3600561	PROB	n/a	LTP354	ltpFR2	5	n/a	n/a	n/a	29	21	4	9	8
3601927	PROB	n/a	LTP354	ltpFR2	5	n/a	n/a	n/a	29	12	3	7	2
3603227	PROB	n/a	LTP354	ltpFR2	5	n/a	n/a	n/a	29	15	2	4	9
3605143	PROB	n/a	LTP354	ltpFR2	5	n/a	n/a	n/a	29	13	6	5	2
3606325	PROB	n/a	LTP354	ltpFR2	5	n/a	n/a	n/a	29	16	5	8	3
3609061	STOP	n/a	LTP354	ltpFR2	5	n/a	n/a	n/a	29	n/a	n/a	n/a	n/a
3611241	REC_START	n/a	LTP354	ltpFR2	5	18	n/a	n/a	n/a	n/a	0	0	0
3611976	REC_WORD	wordpools/wasnorm_wordpool_576.txt	LTP354	ltpFR2	5	18	BLENDER	136	n/a	n/a	0	0	0
3612611	REC_WORD	wordpools/wasnorm_wordpool_576.txt	LTP354	ltpFR2	5	18	COTTAGE	384	n/a	n/a	0	0	0
3615995	REC_WORD	wordpools/wasnorm_wordpool_576.txt	LTP354	ltpFR2	5	18	BROTHER	179	n/a	n/a	0	0	0
3623242	REC_WORD	wordpools/wasnorm_wordpool_576.txt	LTP354	ltpFR2	5	18	PICK	1058	n/a	n/a	0	0	0
3626389	REC_WORD	wordpools/wasnorm_wordpool_576.txt	LTP354	ltpFR2	5	18	CABBAGE	210	n/a	n/a	0	0	0
3633692	REC_WORD	wordpools/wasnorm_wordpool_576.txt	LTP354	ltpFR2	5	18	TURNIP	1521	n/a	n/a	0	0	0
3682095	REC_WORD	wordpools/wasnorm_wordpool_576.txt	LTP354	ltpFR2	5	18	SPHINX	1349	n/a	n/a	0	0	0
3701694	DISTRACTOR	n/a	LTP354	ltpFR2	5	19	n/a	n/a	n/a	n/a	0	0	0
3701694	START	n/a	LTP354	ltpFR2	5	n/a	n/a	n/a	30	n/a	n/a	n/a	n/a
3701711	PROB	n/a	LTP354	ltpFR2	5	n/a	n/a	n/a	30	12	4	2	6
3704459	PROB	n/a	LTP354	ltpFR2	5	n/a	n/a	n/a	30	18	9	2	7
3706825	PROB	n/a	LTP354	ltpFR2	5	n/a	n/a	n/a	30	16	3	4	9
3709507	PROB	n/a	LTP354	ltpFR2	5	n/a	n/a	n/a	30	22	6	7	9
3712023	PROB	n/a	LTP354	ltpFR2	5	n/a	n/a	n/a	30	12	4	6	2
3713705	PROB	n/a	LTP354	ltpFR2	5	n/a	n/a	n/a	30	20	9	7	4
3716354	PROB	n/a	LTP354	ltpFR2	5	n/a	n/a	n/a	30	9	1	4	4
3717736	PROB	n/a	LTP354	ltpFR2	5	n/a	n/a	n/a	30	21	8	5	8
3719103	PROB	n/a	LTP354	ltpFR2	5	n/a	n/a	n/a	30	19	4	9	6
3720286	PROB	n/a	LTP354	ltpFR2	5	n/a	n/a	n/a	30	14	4	3	7
3721501	PROB	n/a	LTP354	ltpFR2	5	n/a	n/a	n/a	30	14	2	7	5
3723001	PROB	n/a	LTP354	ltpFR2	5	n/a	n/a	n/a	30	9	2	3	4
3725053	STOP	n/a	LTP354	ltpFR2	5	n/a	n/a	n/a	30	n/a	n/a	n/a	n/a
3726748	WORD	wordpools/wasnorm_wordpool_576.txt	LTP354	ltpFR2	5	19	JELLO	754	n/a	n/a	0	0	0
3729265	WORD	wordpools/wasnorm_wordpool_576.txt	LTP354	ltpFR2	5	19	LOVER	846	n/a	n/a	0	0	0
3732063	WORD	wordpools/wasnorm_wordpool_576.txt	LTP354	ltpFR2	5	19	UNCLE	1536	n/a	n/a	0	0	0
3734811	WORD	wordpools/wasnorm_wordpool_576.txt	LTP354	ltpFR2	5	19	CANDY	230	n/a	n/a	0	0	0
3737294	WORD	wordpools/wasnorm_wordpool_576.txt	LTP354	ltpFR2	5	19	LODGE	839	n/a	n/a	0	0	0
3740043	WORD	wordpools/wasnorm_wordpool_576.txt	LTP354	ltpFR2	5	19	MOTEL	919	n/a	n/a	0	0	0
3742574	WORD	wordpools/wasnorm_wordpool_576.txt	LTP354	ltpFR2	5	19	PORK	1108	n/a	n/a	0	0	0
3745090	WORD	wordpools/wasnorm_wordpool_576.txt	LTP354	ltpFR2	5	19	SAUSAGE	1238	n/a	n/a	0	0	0
3747888	WORD	wordpools/wasnorm_wordpool_576.txt	LTP354	ltpFR2	5	19	HEART	697	n/a	n/a	0	0	0
3750570	WORD	wordpools/wasnorm_wordpool_576.txt	LTP354	ltpFR2	5	19	WAITRESS	1581	n/a	n/a	0	0	0
3753303	WORD	wordpools/wasnorm_wordpool_576.txt	LTP354	ltpFR2	5	19	TRANSPLANT	1496	n/a	n/a	0	0	0
3755884	WORD	wordpools/wasnorm_wordpool_576.txt	LTP354	ltpFR2	5	19	EAGLE	512	n/a	n/a	0	0	0
3758366	WORD	wordpools/wasnorm_wordpool_576.txt	LTP354	ltpFR2	5	19	SNAIL	1332	n/a	n/a	0	0	0
3760898	WORD	wordpools/wasnorm_wordpool_576.txt	LTP354	ltpFR2	5	19	WAITER	1580	n/a	n/a	0	0	0
3763497	WORD	wordpools/wasnorm_wordpool_576.txt	LTP354	ltpFR2	5	19	LAVA	804	n/a	n/a	0	0	0
3766063	WORD	wordpools/wasnorm_wordpool_576.txt	LTP354	ltpFR2	5	19	STONE	1385	n/a	n/a	0	0	0
3768878	WORD	wordpools/wasnorm_wordpool_576.txt	LTP354	ltpFR2	5	19	SWITCH	1422	n/a	n/a	0	0	0
3771693	WORD	wordpools/wasnorm_wordpool_576.txt	LTP354	ltpFR2	5	19	NAPKIN	937	n/a	n/a	0	0	0
3774475	WORD	wordpools/wasnorm_wordpool_576.txt	LTP354	ltpFR2	5	19	RECORD	1176	n/a	n/a	0	0	0
3777091	WORD	wordpools/wasnorm_wordpool_576.txt	LTP354	ltpFR2	5	19	HELMET	702	n/a	n/a	0	0	0
3779622	WORD	wordpools/wasnorm_wordpool_576.txt	LTP354	ltpFR2	5	19	SEAFOOD	1260	n/a	n/a	0	0	0
3782354	WORD	wordpools/wasnorm_wordpool_576.txt	LTP354	ltpFR2	5	19	PAPER	1011	n/a	n/a	0	0	0
3784786	WORD	wordpools/wasnorm_wordpool_576.txt	LTP354	ltpFR2	5	19	TROMBONE	1508	n/a	n/a	0	0	0
3787468	WORD	wordpools/wasnorm_wordpool_576.txt	LTP354	ltpFR2	5	19	CHAPEL	280	n/a	n/a	0	0	0
3789085	START	n/a	LTP354	ltpFR2	5	n/a	n/a	n/a	31	n/a	n/a	n/a	n/a
3789902	DISTRACTOR	n/a	LTP354	ltpFR2	5	19	n/a	n/a	n/a	n/a	0	0	0
3789917	PROB	n/a	LTP354	ltpFR2	5	n/a	n/a	n/a	31	13	8	3	2
3791583	PROB	n/a	LTP354	ltpFR2	5	n/a	n/a	n/a	31	19	5	7	7
3792816	PROB	n/a	LTP354	ltpFR2	5	n/a	n/a	n/a	31	12	5	1	6
3793999	PROB	n/a	LTP354	ltpFR2	5	n/a	n/a	n/a	31	12	7	3	2
3795032	PROB	n/a	LTP354	ltpFR2	5	n/a	n/a	n/a	31	15	6	4	5
3796248	PROB	n/a	LTP354	ltpFR2	5	n/a	n/a	n/a	31	11	1	7	3
3797430	PROB	n/a	LTP354	ltpFR2	5	n/a	n/a	n/a	31	12	3	8	1
3798696	PROB	n/a	LTP354	ltpFR2	5	n/a	n/a	n/a	31	14	5	3	6
3801711	PROB	n/a	LTP354	ltpFR2	5	n/a	n/a	n/a	31	15	2	5	8
3802944	PROB	n/a	LTP354	ltpFR2	5	n/a	n/a	n/a	31	15	3	9	3
3805709	PROB	n/a	LTP354	ltpFR2	5	n/a	n/a	n/a	31	14	3	7	4
3806875	PROB	n/a	LTP354	ltpFR2	5	n/a	n/a	n/a	31	20	5	6	9
3808441	PROB	n/a	LTP354	ltpFR2	5	n/a	n/a	n/a	31	15	3	5	7
3810424	PROB	n/a	LTP354	ltpFR2	5	n/a	n/a	n/a	31	21	8	4	9
3811916	STOP	n/a	LTP354	ltpFR2	5	n/a	n/a	n/a	31	n/a	n/a	n/a	n/a
3814872	REC_START	n/a	LTP354	ltpFR2	5	19	n/a	n/a	n/a	n/a	0	0	0
3816083	REC_WORD	wordpools/wasnorm_wordpool_576.txt	LTP354	ltpFR2	5	19	CHAPEL	280	n/a	n/a	0	0	0
3821581	REC_WORD	wordpools/wasnorm_wordpool_576.txt	LTP354	ltpFR2	5	19	LAVA	804	n/a	n/a	0	0	0
3822625	REC_WORD	wordpools/wasnorm_wordpool_576.txt	LTP354	ltpFR2	5	19	LOVER	846	n/a	n/a	0	0	0
3824359	REC_WORD	wordpools/wasnorm_wordpool_576.txt	LTP354	ltpFR2	5	19	JELLO	754	n/a	n/a	0	0	0
3850631	REC_WORD	wordpools/wasnorm_wordpool_576.txt	LTP354	ltpFR2	5	19	NAPKIN	937	n/a	n/a	0	0	0
3851838	REC_WORD	wordpools/wasnorm_wordpool_576.txt	LTP354	ltpFR2	5	19	RECORD	1176	n/a	n/a	0	0	0
3871904	REC_WORD	wordpools/wasnorm_wordpool_576.txt	LTP354	ltpFR2	5	19	BUNNY	198	n/a	n/a	0	0	0
3876628	REC_WORD_VV	wordpools/wasnorm_wordpool_576.txt	LTP354	ltpFR2	5	19	<>	-1	n/a	n/a	0	0	0
3905326	WORD	wordpools/wasnorm_wordpool_576.txt	LTP354	ltpFR2	5	20	CAPTIVE	240	n/a	n/a	0	0	0
3908143	WORD	wordpools/wasnorm_wordpool_576.txt	LTP354	ltpFR2	5	20	LONDON	843	n/a	n/a	0	0	0
3910940	WORD	wordpools/wasnorm_wordpool_576.txt	LTP354	ltpFR2	5	20	EUROPE	541	n/a	n/a	0	0	0
3913456	WORD	wordpools/wasnorm_wordpool_576.txt	LTP354	ltpFR2	5	20	THREAD	1460	n/a	n/a	0	0	0
3915938	WORD	wordpools/wasnorm_wordpool_576.txt	LTP354	ltpFR2	5	20	JUNGLE	764	n/a	n/a	0	0	0
3918486	WORD	wordpools/wasnorm_wordpool_576.txt	LTP354	ltpFR2	5	20	CONVICT	371	n/a	n/a	0	0	0
3921236	WORD	wordpools/wasnorm_wordpool_576.txt	LTP354	ltpFR2	5	20	BOYFRIEND	162	n/a	n/a	0	0	0
3924018	WORD	wordpools/wasnorm_wordpool_576.txt	LTP354	ltpFR2	5	20	SPIDER	1351	n/a	n/a	0	0	0
3926449	WORD	wordpools/wasnorm_wordpool_576.txt	LTP354	ltpFR2	5	20	LION	827	n/a	n/a	0	0	0
3929049	WORD	wordpools/wasnorm_wordpool_576.txt	LTP354	ltpFR2	5	20	YOLK	1633	n/a	n/a	0	0	0
3931713	WORD	wordpools/wasnorm_wordpool_576.txt	LTP354	ltpFR2	5	20	CLAMP	316	n/a	n/a	0	0	0
3934395	WORD	wordpools/wasnorm_wordpool_576.txt	LTP354	ltpFR2	5	20	HUSBAND	728	n/a	n/a	0	0	0
3937128	WORD	wordpools/wasnorm_wordpool_576.txt	LTP354	ltpFR2	5	20	GAZELLE	628	n/a	n/a	0	0	0
3939709	WORD	wordpools/wasnorm_wordpool_576.txt	LTP354	ltpFR2	5	20	STICKER	1382	n/a	n/a	0	0	0
3942358	WORD	wordpools/wasnorm_wordpool_576.txt	LTP354	ltpFR2	5	20	FLAG	573	n/a	n/a	0	0	0
3944923	WORD	wordpools/wasnorm_wordpool_576.txt	LTP354	ltpFR2	5	20	ROBIN	1199	n/a	n/a	0	0	0
3947705	WORD	wordpools/wasnorm_wordpool_576.txt	LTP354	ltpFR2	5	20	TOMBSTONE	1478	n/a	n/a	0	0	0
3950404	WORD	wordpools/wasnorm_wordpool_576.txt	LTP354	ltpFR2	5	20	OZONE	996	n/a	n/a	0	0	0
3953170	WORD	wordpools/wasnorm_wordpool_576.txt	LTP354	ltpFR2	5	20	BALLOON	75	n/a	n/a	0	0	0
3955768	WORD	wordpools/wasnorm_wordpool_576.txt	LTP354	ltpFR2	5	20	PARTNER	1017	n/a	n/a	0	0	0
3958201	WORD	wordpools/wasnorm_wordpool_576.txt	LTP354	ltpFR2	5	20	WIDOW	1608	n/a	n/a	0	0	0
3960916	WORD	wordpools/wasnorm_wordpool_576.txt	LTP354	ltpFR2	5	20	VICTIM	1562	n/a	n/a	0	0	0
3963547	WORD	wordpools/wasnorm_wordpool_576.txt	LTP354	ltpFR2	5	20	GLOBE	641	n/a	n/a	0	0	0
3966247	WORD	wordpools/wasnorm_wordpool_576.txt	LTP354	ltpFR2	5	20	HAND	683	n/a	n/a	0	0	0
3967862	START	n/a	LTP354	ltpFR2	5	n/a	n/a	n/a	32	n/a	n/a	n/a	n/a
3968673	DISTRACTOR	n/a	LTP354	ltpFR2	5	20	n/a	n/a	n/a	n/a	0	0	0
3968678	PROB	n/a	LTP354	ltpFR2	5	n/a	n/a	n/a	32	12	4	4	4
3970827	PROB	n/a	LTP354	ltpFR2	5	n/a	n/a	n/a	32	17	6	8	3
3974243	PROB	n/a	LTP354	ltpFR2	5	n/a	n/a	n/a	32	21	8	8	5
3975625	PROB	n/a	LTP354	ltpFR2	5	n/a	n/a	n/a	32	10	1	8	1
3976791	PROB	n/a	LTP354	ltpFR2	5	n/a	n/a	n/a	32	13	6	2	5
3978673	PROB	n/a	LTP354	ltpFR2	5	n/a	n/a	n/a	32	16	2	6	8
3980356	PROB	n/a	LTP354	ltpFR2	5	n/a	n/a	n/a	32	5	1	3	1
3981955	PROB	n/a	LTP354	ltpFR2	5	n/a	n/a	n/a	32	13	8	2	3
3983139	PROB	n/a	LTP354	ltpFR2	5	n/a	n/a	n/a	32	12	3	4	5
3985370	PROB	n/a	LTP354	ltpFR2	5	n/a	n/a	n/a	32	14	1	5	9
3986786	PROB	n/a	LTP354	ltpFR2	5	n/a	n/a	n/a	32	13	9	3	1
3989252	PROB	n/a	LTP354	ltpFR2	5	n/a	n/a	n/a	32	16	6	5	5
3990828	STOP	n/a	LTP354	ltpFR2	5	n/a	n/a	n/a	32	n/a	n/a	n/a	n/a
3993616	REC_START	n/a	LTP354	ltpFR2	5	20	n/a	n/a	n/a	n/a	0	0	0
3996942	REC_WORD	wordpools/wasnorm_wordpool_576.txt	LTP354	ltpFR2	5	20	WIDOW	1608	n/a	n/a	0	0	0
4000379	REC_WORD	wordpools/wasnorm_wordpool_576.txt	LTP354	ltpFR2	5	20	CAPTIVE	240	n/a	n/a	0	0	0
4002125	REC_WORD	wordpools/wasnorm_wordpool_576.txt	LTP354	ltpFR2	5	20	LONDON	843	n/a	n/a	0	0	0
4003154	REC_WORD	wordpools/wasnorm_wordpool_576.txt	LTP354	ltpFR2	5	20	EUROPE	541	n/a	n/a	0	0	0
4048056	REC_WORD	wordpools/wasnorm_wordpool_576.txt	LTP354	ltpFR2	5	20	TRANSPLANT	1496	n/a	n/a	0	0	0
4049056	REC_WORD_VV	wordpools/wasnorm_wordpool_576.txt	LTP354	ltpFR2	5	20	<>	-1	n/a	n/a	0	0	0
4067133	REC_WORD	wordpools/wasnorm_wordpool_576.txt	LTP354	ltpFR2	5	20	CABBAGE	210	n/a	n/a	0	0	0
4084089	WORD	wordpools/wasnorm_wordpool_576.txt	LTP354	ltpFR2	5	21	BUBBLE	183	n/a	n/a	0	0	0
4086720	WORD	wordpools/wasnorm_wordpool_576.txt	LTP354	ltpFR2	5	21	FOREHEAD	592	n/a	n/a	0	0	0
4089319	WORD	wordpools/wasnorm_wordpool_576.txt	LTP354	ltpFR2	5	21	LEOPARD	812	n/a	n/a	0	0	0
4092101	WORD	wordpools/wasnorm_wordpool_576.txt	LTP354	ltpFR2	5	21	TOASTER	1472	n/a	n/a	0	0	0
4094666	WORD	wordpools/wasnorm_wordpool_576.txt	LTP354	ltpFR2	5	21	BIKE	125	n/a	n/a	0	0	0
4097282	WORD	wordpools/wasnorm_wordpool_576.txt	LTP354	ltpFR2	5	21	SCALPEL	1243	n/a	n/a	0	0	0
4099846	WORD	wordpools/wasnorm_wordpool_576.txt	LTP354	ltpFR2	5	21	CHURCH	307	n/a	n/a	0	0	0
4102495	WORD	wordpools/wasnorm_wordpool_576.txt	LTP354	ltpFR2	5	21	PIZZA	1079	n/a	n/a	0	0	0
4105128	WORD	wordpools/wasnorm_wordpool_576.txt	LTP354	ltpFR2	5	21	AGENT	10	n/a	n/a	0	0	0
4107743	WORD	wordpools/wasnorm_wordpool_576.txt	LTP354	ltpFR2	5	21	PANTHER	1009	n/a	n/a	0	0	0
4110176	WORD	wordpools/wasnorm_wordpool_576.txt	LTP354	ltpFR2	5	21	CORAL	378	n/a	n/a	0	0	0
4112640	WORD	wordpools/wasnorm_wordpool_576.txt	LTP354	ltpFR2	5	21	TROUT	1511	n/a	n/a	0	0	0
4115223	WORD	wordpools/wasnorm_wordpool_576.txt	LTP354	ltpFR2	5	21	MASK	876	n/a	n/a	0	0	0
4118038	WORD	wordpools/wasnorm_wordpool_576.txt	LTP354	ltpFR2	5	21	FLOWER	584	n/a	n/a	0	0	0
4120470	WORD	wordpools/wasnorm_wordpool_576.txt	LTP354	ltpFR2	5	21	LILY	821	n/a	n/a	0	0	0
4122952	WORD	wordpools/wasnorm_wordpool_576.txt	LTP354	ltpFR2	5	21	ONION	977	n/a	n/a	0	0	0
4125500	WORD	wordpools/wasnorm_wordpool_576.txt	LTP354	ltpFR2	5	21	TILE	1468	n/a	n/a	0	0	0
4127933	WORD	wordpools/wasnorm_wordpool_576.txt	LTP354	ltpFR2	5	21	CRAB	397	n/a	n/a	0	0	0
4130431	WORD	wordpools/wasnorm_wordpool_576.txt	LTP354	ltpFR2	5	21	RELISH	1183	n/a	n/a	0	0	0
4132947	WORD	wordpools/wasnorm_wordpool_576.txt	LTP354	ltpFR2	5	21	BUTCHER	203	n/a	n/a	0	0	0
4135495	WORD	wordpools/wasnorm_wordpool_576.txt	LTP354	ltpFR2	5	21	SEAL	1262	n/a	n/a	0	0	0
4138078	WORD	wordpools/wasnorm_wordpool_576.txt	LTP354	ltpFR2	5	21	PASTRY	1022	n/a	n/a	0	0	0
4140793	WORD	wordpools/wasnorm_wordpool_576.txt	LTP354	ltpFR2	5	21	BUREAU	199	n/a	n/a	0	0	0
4143441	WORD	wordpools/wasnorm_wordpool_576.txt	LTP354	ltpFR2	5	21	CHEST	295	n/a	n/a	0	0	0
4145059	START	n/a	LTP354	ltpFR2	5	n/a	n/a	n/a	33	n/a	n/a	n/a	n/a
4145922	DISTRACTOR	n/a	LTP354	ltpFR2	5	21	n/a	n/a	n/a	n/a	0	0	0
4145924	PROB	n/a	LTP354	ltpFR2	5	n/a	n/a	n/a	33	10	4	5	1
4148124	PROB	n/a	LTP354	ltpFR2	5	n/a	n/a	n/a	33	22	9	9	4
4149688	PROB	n/a	LTP354	ltpFR2	5	n/a	n/a	n/a	33	6	2	3	1
4151487	PROB	n/a	LTP354	ltpFR2	5	n/a	n/a	n/a	33	6	1	3	2
4153370	PROB	n/a	LTP354	ltpFR2	5	n/a	n/a	n/a	33	17	6	2	9
4155436	PROB	n/a	LTP354	ltpFR2	5	n/a	n/a	n/a	33	13	5	1	7
4156768	PROB	n/a	LTP354	ltpFR2	5	n/a	n/a	n/a	33	14	9	4	1
4158351	PROB	n/a	LTP354	ltpFR2	5	n/a	n/a	n/a	33	14	5	8	1
4160966	PROB	n/a	LTP354	ltpFR2	5	n/a	n/a	n/a	33	13	7	4	2
4162415	PROB	n/a	LTP354	ltpFR2	5	n/a	n/a	n/a	33	12	2	9	1
4164032	PROB	n/a	LTP354	ltpFR2	5	n/a	n/a	n/a	33	19	9	1	9
4165481	PROB	n/a	LTP354	ltpFR2	5	n/a	n/a	n/a	33	21	9	7	5
4167231	PROB	n/a	LTP354	ltpFR2	5	n/a	n/a	n/a	33	9	3	3	3
4168620	STOP	n/a	LTP354	ltpFR2	5	n/a	n/a	n/a	33	n/a	n/a	n/a	n/a
4170878	REC_START	n/a	LTP354	ltpFR2	5	21	n/a	n/a	n/a	n/a	0	0	0
4171859	REC_WORD	wordpools/wasnorm_wordpool_576.txt	LTP354	ltpFR2	5	21	BUREAU	199	n/a	n/a	0	0	0
4173863	REC_WORD	wordpools/wasnorm_wordpool_576.txt	LTP354	ltpFR2	5	21	CHEST	295	n/a	n/a	0	0	0
4185681	REC_WORD	wordpools/wasnorm_wordpool_576.txt	LTP354	ltpFR2	5	21	TROUT	1511	n/a	n/a	0	0	0
4200090	REC_WORD	wordpools/wasnorm_wordpool_576.txt	LTP354	ltpFR2	5	21	DOUGHNUT	490	n/a	n/a	0	0	0
4204070	REC_WORD_VV	wordpools/wasnorm_wordpool_576.txt	LTP354	ltpFR2	5	21	<>	-1	n/a	n/a	0	0	0
4215713	REC_WORD	wordpools/wasnorm_wordpool_576.txt	LTP354	ltpFR2	5	21	VALLEY	1545	n/a	n/a	0	0	0
4261333	WORD	wordpools/wasnorm_wordpool_576.txt	LTP354	ltpFR2	5	22	FEMALE	559	n/a	n/a	0	0	0
4263999	WORD	wordpools/wasnorm_wordpool_576.txt	LTP354	ltpFR2	5	22	QUEEN	1149	n/a	n/a	0	0	0
4266430	WORD	wordpools/wasnorm_wordpool_576.txt	LTP354	ltpFR2	5	22	STUDENT	1395	n/a	n/a	0	0	0
4268863	WORD	wordpools/wasnorm_wordpool_576.txt	LTP354	ltpFR2	5	22	MATTRESS	879	n/a	n/a	0	0	0
4271411	WORD	wordpools/wasnorm_wordpool_576.txt	LTP354	ltpFR2	5	22	DORM	488	n/a	n/a	0	0	0
4273860	WORD	wordpools/wasnorm_wordpool_576.txt	LTP354	ltpFR2	5	22	LIGHTNING	820	n/a	n/a	0	0	0
4276559	WORD	wordpools/wasnorm_wordpool_576.txt	LTP354	ltpFR2	5	22	TURTLE	1522	n/a	n/a	0	0	0
4279208	WORD	wordpools/wasnorm_wordpool_576.txt	LTP354	ltpFR2	5	22	CLAM	315	n/a	n/a	0	0	0
4281789	WORD	wordpools/wasnorm_wordpool_576.txt	LTP354	ltpFR2	5	22	JAPAN	749	n/a	n/a	0	0	0
4284521	WORD	wordpools/wasnorm_wordpool_576.txt	LTP354	ltpFR2	5	22	ASIA	46	n/a	n/a	0	0	0
4287204	WORD	wordpools/wasnorm_wordpool_576.txt	LTP354	ltpFR2	5	22	COMPASS	358	n/a	n/a	0	0	0
4289852	WORD	wordpools/wasnorm_wordpool_576.txt	LTP354	ltpFR2	5	22	BANJO	82	n/a	n/a	0	0	0
4292418	WORD	wordpools/wasnorm_wordpool_576.txt	LTP354	ltpFR2	5	22	BATHTUB	100	n/a	n/a	0	0	0
4295084	WORD	wordpools/wasnorm_wordpool_576.txt	LTP354	ltpFR2	5	22	LEG	809	n/a	n/a	0	0	0
4297848	WORD	wordpools/wasnorm_wordpool_576.txt	LTP354	ltpFR2	5	22	WITNESS	1618	n/a	n/a	0	0	0
4300463	WORD	wordpools/wasnorm_wordpool_576.txt	LTP354	ltpFR2	5	22	MUSTARD	935	n/a	n/a	0	0	0
4303113	WORD	wordpools/wasnorm_wordpool_576.txt	LTP354	ltpFR2	5	22	TWISTER	1530	n/a	n/a	0	0	0
4305728	WORD	wordpools/wasnorm_wordpool_576.txt	LTP354	ltpFR2	5	22	COOK	372	n/a	n/a	0	0	0
4308543	WORD	wordpools/wasnorm_wordpool_576.txt	LTP354	ltpFR2	5	22	LAGOON	795	n/a	n/a	0	0	0
4311259	WORD	wordpools/wasnorm_wordpool_576.txt	LTP354	ltpFR2	5	22	VIKING	1565	n/a	n/a	0	0	0
