mstime	trial_type	stim_file	subject	experiment	session	trial	item_name	item_num	list	answer	test_x	test_y	test_z
0	SESS_START	n/a	LTP365	ltpFR2	22	n/a	n/a	n/a	n/a	n/a	0	0	0
15262	START	n/a	LTP365	ltpFR2	22	n/a	n/a	n/a	-1	n/a	n/a	n/a	n/a
15293	PROB	n/a	LTP365	ltpFR2	22	n/a	n/a	n/a	-1	15	4	9	2
17526	PROB	n/a	LTP365	ltpFR2	22	n/a	n/a	n/a	-1	13	8	1	4
19042	PROB	n/a	LTP365	ltpFR2	22	n/a	n/a	n/a	-1	19	4	7	8
20524	PROB	n/a	LTP365	ltpFR2	22	n/a	n/a	n/a	-1	12	7	1	4
21857	PROB	n/a	LTP365	ltpFR2	22	n/a	n/a	n/a	-1	17	1	9	7
23172	PROB	n/a	LTP365	ltpFR2	22	n/a	n/a	n/a	-1	13	6	6	1
24322	PROB	n/a	LTP365	ltpFR2	22	n/a	n/a	n/a	-1	22	9	5	8
26409	STOP	n/a	LTP365	ltpFR2	22	n/a	n/a	n/a	-1	n/a	n/a	n/a	n/a
58824	DISTRACTOR	n/a	LTP365	ltpFR2	22	1	n/a	n/a	n/a	n/a	0	0	0
58824	START	n/a	LTP365	ltpFR2	22	n/a	n/a	n/a	1	n/a	n/a	n/a	n/a
58840	PROB	n/a	LTP365	ltpFR2	22	n/a	n/a	n/a	1	10	2	6	2
60239	PROB	n/a	LTP365	ltpFR2	22	n/a	n/a	n/a	1	18	8	6	4
61455	PROB	n/a	LTP365	ltpFR2	22	n/a	n/a	n/a	1	22	8	6	8
64888	PROB	n/a	LTP365	ltpFR2	22	n/a	n/a	n/a	1	21	9	5	7
67102	PROB	n/a	LTP365	ltpFR2	22	n/a	n/a	n/a	1	17	2	7	8
68769	PROB	n/a	LTP365	ltpFR2	22	n/a	n/a	n/a	1	21	7	5	9
70868	PROB	n/a	LTP365	ltpFR2	22	n/a	n/a	n/a	1	13	5	4	4
73133	PROB	n/a	LTP365	ltpFR2	22	n/a	n/a	n/a	1	19	5	7	7
75449	PROB	n/a	LTP365	ltpFR2	22	n/a	n/a	n/a	1	14	1	7	6
76949	PROB	n/a	LTP365	ltpFR2	22	n/a	n/a	n/a	1	20	6	9	5
79031	PROB	n/a	LTP365	ltpFR2	22	n/a	n/a	n/a	1	21	6	9	7
82824	STOP	n/a	LTP365	ltpFR2	22	n/a	n/a	n/a	1	n/a	n/a	n/a	n/a
83929	WORD	wordpools/wasnorm_wordpool_576.txt	LTP365	ltpFR2	22	1	SCALLOP	1242	n/a	n/a	0	0	0
86427	WORD	wordpools/wasnorm_wordpool_576.txt	LTP365	ltpFR2	22	1	RELISH	1183	n/a	n/a	0	0	0
89192	WORD	wordpools/wasnorm_wordpool_576.txt	LTP365	ltpFR2	22	1	DAISY	435	n/a	n/a	0	0	0
92009	WORD	wordpools/wasnorm_wordpool_576.txt	LTP365	ltpFR2	22	1	TURNIP	1521	n/a	n/a	0	0	0
94774	WORD	wordpools/wasnorm_wordpool_576.txt	LTP365	ltpFR2	22	1	ORANGE	980	n/a	n/a	0	0	0
97205	WORD	wordpools/wasnorm_wordpool_576.txt	LTP365	ltpFR2	22	1	LILY	821	n/a	n/a	0	0	0
99939	WORD	wordpools/wasnorm_wordpool_576.txt	LTP365	ltpFR2	22	1	BODY	145	n/a	n/a	0	0	0
102370	WORD	wordpools/wasnorm_wordpool_576.txt	LTP365	ltpFR2	22	1	TWIG	1527	n/a	n/a	0	0	0
105020	WORD	wordpools/wasnorm_wordpool_576.txt	LTP365	ltpFR2	22	1	KNAPSACK	783	n/a	n/a	0	0	0
107835	WORD	wordpools/wasnorm_wordpool_576.txt	LTP365	ltpFR2	22	1	MARKET	871	n/a	n/a	0	0	0
110467	WORD	wordpools/wasnorm_wordpool_576.txt	LTP365	ltpFR2	22	1	JELLY	755	n/a	n/a	0	0	0
113148	WORD	wordpools/wasnorm_wordpool_576.txt	LTP365	ltpFR2	22	1	BOARD	143	n/a	n/a	0	0	0
115731	WORD	wordpools/wasnorm_wordpool_576.txt	LTP365	ltpFR2	22	1	UMPIRE	1535	n/a	n/a	0	0	0
118163	WORD	wordpools/wasnorm_wordpool_576.txt	LTP365	ltpFR2	22	1	HUMAN	726	n/a	n/a	0	0	0
120679	WORD	wordpools/wasnorm_wordpool_576.txt	LTP365	ltpFR2	22	1	LUNCH	849	n/a	n/a	0	0	0
123495	WORD	wordpools/wasnorm_wordpool_576.txt	LTP365	ltpFR2	22	1	TEMPLE	1448	n/a	n/a	0	0	0
126043	WORD	wordpools/wasnorm_wordpool_576.txt	LTP365	ltpFR2	22	1	IDOL	733	n/a	n/a	0	0	0
128742	WORD	wordpools/wasnorm_wordpool_576.txt	LTP365	ltpFR2	22	1	SHRUB	1299	n/a	n/a	0	0	0
131524	WORD	wordpools/wasnorm_wordpool_576.txt	LTP365	ltpFR2	22	1	RIFLE	1192	n/a	n/a	0	0	0
134073	WORD	wordpools/wasnorm_wordpool_576.txt	LTP365	ltpFR2	22	1	SAUSAGE	1238	n/a	n/a	0	0	0
136622	WORD	wordpools/wasnorm_wordpool_576.txt	LTP365	ltpFR2	22	1	EGYPT	519	n/a	n/a	0	0	0
139403	WORD	wordpools/wasnorm_wordpool_576.txt	LTP365	ltpFR2	22	1	WIFE	1609	n/a	n/a	0	0	0
141836	WORD	wordpools/wasnorm_wordpool_576.txt	LTP365	ltpFR2	22	1	BOYFRIEND	162	n/a	n/a	0	0	0
144434	WORD	wordpools/wasnorm_wordpool_576.txt	LTP365	ltpFR2	22	1	PARTNER	1017	n/a	n/a	0	0	0
146051	START	n/a	LTP365	ltpFR2	22	n/a	n/a	n/a	2	n/a	n/a	n/a	n/a
147197	DISTRACTOR	n/a	LTP365	ltpFR2	22	1	n/a	n/a	n/a	n/a	0	0	0
147200	PROB	n/a	LTP365	ltpFR2	22	n/a	n/a	n/a	2	20	4	9	7
148683	PROB	n/a	LTP365	ltpFR2	22	n/a	n/a	n/a	2	7	2	2	3
150365	PROB	n/a	LTP365	ltpFR2	22	n/a	n/a	n/a	2	8	5	1	2
151915	PROB	n/a	LTP365	ltpFR2	22	n/a	n/a	n/a	2	20	5	8	7
154246	PROB	n/a	LTP365	ltpFR2	22	n/a	n/a	n/a	2	18	7	5	6
156412	PROB	n/a	LTP365	ltpFR2	22	n/a	n/a	n/a	2	5	1	2	2
157395	PROB	n/a	LTP365	ltpFR2	22	n/a	n/a	n/a	2	16	7	2	7
158879	PROB	n/a	LTP365	ltpFR2	22	n/a	n/a	n/a	2	17	8	1	8
161461	PROB	n/a	LTP365	ltpFR2	22	n/a	n/a	n/a	2	12	2	9	1
162644	PROB	n/a	LTP365	ltpFR2	22	n/a	n/a	n/a	2	17	9	5	3
165076	PROB	n/a	LTP365	ltpFR2	22	n/a	n/a	n/a	2	21	8	4	9
166492	PROB	n/a	LTP365	ltpFR2	22	n/a	n/a	n/a	2	14	3	4	7
170051	STOP	n/a	LTP365	ltpFR2	22	n/a	n/a	n/a	2	n/a	n/a	n/a	n/a
171824	REC_START	n/a	LTP365	ltpFR2	22	1	n/a	n/a	n/a	n/a	0	0	0
172513	REC_WORD	wordpools/wasnorm_wordpool_576.txt	LTP365	ltpFR2	22	1	SHRUB	1299	n/a	n/a	0	0	0
173276	REC_WORD	wordpools/wasnorm_wordpool_576.txt	LTP365	ltpFR2	22	1	MARKET	871	n/a	n/a	0	0	0
173961	REC_WORD	wordpools/wasnorm_wordpool_576.txt	LTP365	ltpFR2	22	1	KNAPSACK	783	n/a	n/a	0	0	0
174961	REC_WORD_VV	wordpools/wasnorm_wordpool_576.txt	LTP365	ltpFR2	22	1	<>	-1	n/a	n/a	0	0	0
176218	REC_WORD	wordpools/wasnorm_wordpool_576.txt	LTP365	ltpFR2	22	1	RIFLE	1192	n/a	n/a	0	0	0
186492	REC_WORD	wordpools/wasnorm_wordpool_576.txt	LTP365	ltpFR2	22	1	EGYPT	519	n/a	n/a	0	0	0
190452	REC_WORD	wordpools/wasnorm_wordpool_576.txt	LTP365	ltpFR2	22	1	ORANGE	980	n/a	n/a	0	0	0
191349	REC_WORD	wordpools/wasnorm_wordpool_576.txt	LTP365	ltpFR2	22	1	RADISH	1158	n/a	n/a	0	0	0
193225	REC_WORD	wordpools/wasnorm_wordpool_576.txt	LTP365	ltpFR2	22	1	SCALLOP	1242	n/a	n/a	0	0	0
195557	REC_WORD	wordpools/wasnorm_wordpool_576.txt	LTP365	ltpFR2	22	1	TWIG	1527	n/a	n/a	0	0	0
199905	REC_WORD	wordpools/wasnorm_wordpool_576.txt	LTP365	ltpFR2	22	1	BOARD	143	n/a	n/a	0	0	0
200804	REC_WORD	wordpools/wasnorm_wordpool_576.txt	LTP365	ltpFR2	22	1	JELLY	755	n/a	n/a	0	0	0
231114	REC_WORD	wordpools/wasnorm_wordpool_576.txt	LTP365	ltpFR2	22	1	WIFE	1609	n/a	n/a	0	0	0
231678	REC_WORD	wordpools/wasnorm_wordpool_576.txt	LTP365	ltpFR2	22	1	HUSBAND	728	n/a	n/a	0	0	0
232509	REC_WORD	wordpools/wasnorm_wordpool_576.txt	LTP365	ltpFR2	22	1	PARTNER	1017	n/a	n/a	0	0	0
234471	REC_WORD	wordpools/wasnorm_wordpool_576.txt	LTP365	ltpFR2	22	1	BOYFRIEND	162	n/a	n/a	0	0	0
235471	REC_WORD_VV	wordpools/wasnorm_wordpool_576.txt	LTP365	ltpFR2	22	1	<>	-1	n/a	n/a	0	0	0
262264	WORD	wordpools/wasnorm_wordpool_576.txt	LTP365	ltpFR2	22	2	BANJO	82	n/a	n/a	0	0	0
265081	WORD	wordpools/wasnorm_wordpool_576.txt	LTP365	ltpFR2	22	2	RECORD	1176	n/a	n/a	0	0	0
267779	WORD	wordpools/wasnorm_wordpool_576.txt	LTP365	ltpFR2	22	2	PIZZA	1079	n/a	n/a	0	0	0
270311	WORD	wordpools/wasnorm_wordpool_576.txt	LTP365	ltpFR2	22	2	WOMAN	1620	n/a	n/a	0	0	0
273010	WORD	wordpools/wasnorm_wordpool_576.txt	LTP365	ltpFR2	22	2	FEMALE	559	n/a	n/a	0	0	0
275776	WORD	wordpools/wasnorm_wordpool_576.txt	LTP365	ltpFR2	22	2	PLASTER	1085	n/a	n/a	0	0	0
278475	WORD	wordpools/wasnorm_wordpool_576.txt	LTP365	ltpFR2	22	2	CHAPEL	280	n/a	n/a	0	0	0
280957	WORD	wordpools/wasnorm_wordpool_576.txt	LTP365	ltpFR2	22	2	DINER	467	n/a	n/a	0	0	0
283405	WORD	wordpools/wasnorm_wordpool_576.txt	LTP365	ltpFR2	22	2	FRIEND	606	n/a	n/a	0	0	0
286021	WORD	wordpools/wasnorm_wordpool_576.txt	LTP365	ltpFR2	22	2	PARROT	1015	n/a	n/a	0	0	0
288787	WORD	wordpools/wasnorm_wordpool_576.txt	LTP365	ltpFR2	22	2	CEILING	265	n/a	n/a	0	0	0
291401	WORD	wordpools/wasnorm_wordpool_576.txt	LTP365	ltpFR2	22	2	NOMAD	955	n/a	n/a	0	0	0
294183	WORD	wordpools/wasnorm_wordpool_576.txt	LTP365	ltpFR2	22	2	AWARD	63	n/a	n/a	0	0	0
296783	WORD	wordpools/wasnorm_wordpool_576.txt	LTP365	ltpFR2	22	2	ZIPPER	1636	n/a	n/a	0	0	0
299314	WORD	wordpools/wasnorm_wordpool_576.txt	LTP365	ltpFR2	22	2	TERMITE	1451	n/a	n/a	0	0	0
301914	WORD	wordpools/wasnorm_wordpool_576.txt	LTP365	ltpFR2	22	2	WIDOW	1608	n/a	n/a	0	0	0
304395	WORD	wordpools/wasnorm_wordpool_576.txt	LTP365	ltpFR2	22	2	PEPPER	1047	n/a	n/a	0	0	0
306978	WORD	wordpools/wasnorm_wordpool_576.txt	LTP365	ltpFR2	22	2	SEAL	1262	n/a	n/a	0	0	0
309777	WORD	wordpools/wasnorm_wordpool_576.txt	LTP365	ltpFR2	22	2	INFANT	737	n/a	n/a	0	0	0
312208	WORD	wordpools/wasnorm_wordpool_576.txt	LTP365	ltpFR2	22	2	BUGGY	188	n/a	n/a	0	0	0
314642	WORD	wordpools/wasnorm_wordpool_576.txt	LTP365	ltpFR2	22	2	SEAGULL	1261	n/a	n/a	0	0	0
317189	WORD	wordpools/wasnorm_wordpool_576.txt	LTP365	ltpFR2	22	2	SPARROW	1347	n/a	n/a	0	0	0
319639	WORD	wordpools/wasnorm_wordpool_576.txt	LTP365	ltpFR2	22	2	PATIENT	1024	n/a	n/a	0	0	0
322104	WORD	wordpools/wasnorm_wordpool_576.txt	LTP365	ltpFR2	22	2	SHORTS	1293	n/a	n/a	0	0	0
323722	START	n/a	LTP365	ltpFR2	22	n/a	n/a	n/a	3	n/a	n/a	n/a	n/a
324803	DISTRACTOR	n/a	LTP365	ltpFR2	22	2	n/a	n/a	n/a	n/a	0	0	0
324820	PROB	n/a	LTP365	ltpFR2	22	n/a	n/a	n/a	3	21	7	7	7
325986	PROB	n/a	LTP365	ltpFR2	22	n/a	n/a	n/a	3	8	3	3	2
327719	PROB	n/a	LTP365	ltpFR2	22	n/a	n/a	n/a	3	11	8	2	1
329267	PROB	n/a	LTP365	ltpFR2	22	n/a	n/a	n/a	3	8	3	2	3
330934	PROB	n/a	LTP365	ltpFR2	22	n/a	n/a	n/a	3	15	6	6	3
332867	PROB	n/a	LTP365	ltpFR2	22	n/a	n/a	n/a	3	18	7	2	9
334816	PROB	n/a	LTP365	ltpFR2	22	n/a	n/a	n/a	3	19	7	6	6
336447	PROB	n/a	LTP365	ltpFR2	22	n/a	n/a	n/a	3	13	4	1	8
338363	PROB	n/a	LTP365	ltpFR2	22	n/a	n/a	n/a	3	18	7	4	7
340980	PROB	n/a	LTP365	ltpFR2	22	n/a	n/a	n/a	3	16	9	5	2
342862	PROB	n/a	LTP365	ltpFR2	22	n/a	n/a	n/a	3	23	9	5	9
345343	PROB	n/a	LTP365	ltpFR2	22	n/a	n/a	n/a	3	20	8	9	3
347227	STOP	n/a	LTP365	ltpFR2	22	n/a	n/a	n/a	3	n/a	n/a	n/a	n/a
349543	REC_START	n/a	LTP365	ltpFR2	22	2	n/a	n/a	n/a	n/a	0	0	0
350554	REC_WORD	wordpools/wasnorm_wordpool_576.txt	LTP365	ltpFR2	22	2	BANJO	82	n/a	n/a	0	0	0
351468	REC_WORD	wordpools/wasnorm_wordpool_576.txt	LTP365	ltpFR2	22	2	RECORD	1176	n/a	n/a	0	0	0
352584	REC_WORD	wordpools/wasnorm_wordpool_576.txt	LTP365	ltpFR2	22	2	PIZZA	1079	n/a	n/a	0	0	0
353441	REC_WORD	wordpools/wasnorm_wordpool_576.txt	LTP365	ltpFR2	22	2	PEPPER	1047	n/a	n/a	0	0	0
355044	REC_WORD	wordpools/wasnorm_wordpool_576.txt	LTP365	ltpFR2	22	2	WIDOW	1608	n/a	n/a	0	0	0
356125	REC_WORD	wordpools/wasnorm_wordpool_576.txt	LTP365	ltpFR2	22	2	BUGGY	188	n/a	n/a	0	0	0
356924	REC_WORD	wordpools/wasnorm_wordpool_576.txt	LTP365	ltpFR2	22	2	INFANT	737	n/a	n/a	0	0	0
363006	REC_WORD	wordpools/wasnorm_wordpool_576.txt	LTP365	ltpFR2	22	2	SEAL	1262	n/a	n/a	0	0	0
363990	REC_WORD	wordpools/wasnorm_wordpool_576.txt	LTP365	ltpFR2	22	2	CEILING	265	n/a	n/a	0	0	0
364899	REC_WORD	wordpools/wasnorm_wordpool_576.txt	LTP365	ltpFR2	22	2	NOMAD	955	n/a	n/a	0	0	0
365821	REC_WORD	wordpools/wasnorm_wordpool_576.txt	LTP365	ltpFR2	22	2	AWARD	63	n/a	n/a	0	0	0
372105	REC_WORD	wordpools/wasnorm_wordpool_576.txt	LTP365	ltpFR2	22	2	FRIEND	606	n/a	n/a	0	0	0
376016	REC_WORD	wordpools/wasnorm_wordpool_576.txt	LTP365	ltpFR2	22	2	PATIENT	1024	n/a	n/a	0	0	0
380318	REC_WORD	wordpools/wasnorm_wordpool_576.txt	LTP365	ltpFR2	22	2	DINER	467	n/a	n/a	0	0	0
384063	REC_WORD	wordpools/wasnorm_wordpool_576.txt	LTP365	ltpFR2	22	2	SHORTS	1293	n/a	n/a	0	0	0
387259	REC_WORD	wordpools/wasnorm_wordpool_576.txt	LTP365	ltpFR2	22	2	PARROT	1015	n/a	n/a	0	0	0
390862	REC_WORD	wordpools/wasnorm_wordpool_576.txt	LTP365	ltpFR2	22	2	PATIENT	1024	n/a	n/a	0	0	0
393714	REC_WORD	wordpools/wasnorm_wordpool_576.txt	LTP365	ltpFR2	22	2	SPARROW	1347	n/a	n/a	0	0	0
394714	REC_WORD_VV	wordpools/wasnorm_wordpool_576.txt	LTP365	ltpFR2	22	2	<>	-1	n/a	n/a	0	0	0
405692	REC_WORD	wordpools/wasnorm_wordpool_576.txt	LTP365	ltpFR2	22	2	WOMAN	1620	n/a	n/a	0	0	0
406310	REC_WORD	wordpools/wasnorm_wordpool_576.txt	LTP365	ltpFR2	22	2	FEMALE	559	n/a	n/a	0	0	0
410589	REC_WORD	wordpools/wasnorm_wordpool_576.txt	LTP365	ltpFR2	22	2	ZIPPER	1636	n/a	n/a	0	0	0
411384	REC_WORD	wordpools/wasnorm_wordpool_576.txt	LTP365	ltpFR2	22	2	TERMITE	1451	n/a	n/a	0	0	0
439968	DISTRACTOR	n/a	LTP365	ltpFR2	22	3	n/a	n/a	n/a	n/a	0	0	0
439969	START	n/a	LTP365	ltpFR2	22	n/a	n/a	n/a	4	n/a	n/a	n/a	n/a
439985	PROB	n/a	LTP365	ltpFR2	22	n/a	n/a	n/a	4	16	9	2	5
441518	PROB	n/a	LTP365	ltpFR2	22	n/a	n/a	n/a	4	20	9	2	9
442917	PROB	n/a	LTP365	ltpFR2	22	n/a	n/a	n/a	4	22	6	7	9
445699	PROB	n/a	LTP365	ltpFR2	22	n/a	n/a	n/a	4	18	7	5	6
447498	PROB	n/a	LTP365	ltpFR2	22	n/a	n/a	n/a	4	13	8	2	3
448998	PROB	n/a	LTP365	ltpFR2	22	n/a	n/a	n/a	4	13	2	5	6
451312	PROB	n/a	LTP365	ltpFR2	22	n/a	n/a	n/a	4	14	3	2	9
453145	PROB	n/a	LTP365	ltpFR2	22	n/a	n/a	n/a	4	17	4	8	5
455012	PROB	n/a	LTP365	ltpFR2	22	n/a	n/a	n/a	4	15	4	7	4
456961	PROB	n/a	LTP365	ltpFR2	22	n/a	n/a	n/a	4	20	9	8	3
458259	PROB	n/a	LTP365	ltpFR2	22	n/a	n/a	n/a	4	11	4	5	2
459543	PROB	n/a	LTP365	ltpFR2	22	n/a	n/a	n/a	4	16	7	2	7
461026	PROB	n/a	LTP365	ltpFR2	22	n/a	n/a	n/a	4	13	1	8	4
463968	STOP	n/a	LTP365	ltpFR2	22	n/a	n/a	n/a	4	n/a	n/a	n/a	n/a
464957	WORD	wordpools/wasnorm_wordpool_576.txt	LTP365	ltpFR2	22	3	BROTHER	179	n/a	n/a	0	0	0
467405	WORD	wordpools/wasnorm_wordpool_576.txt	LTP365	ltpFR2	22	3	ISLAND	745	n/a	n/a	0	0	0
470055	WORD	wordpools/wasnorm_wordpool_576.txt	LTP365	ltpFR2	22	3	LABEL	790	n/a	n/a	0	0	0
472720	WORD	wordpools/wasnorm_wordpool_576.txt	LTP365	ltpFR2	22	3	GUITAR	670	n/a	n/a	0	0	0
475435	WORD	wordpools/wasnorm_wordpool_576.txt	LTP365	ltpFR2	22	3	FIREPLACE	570	n/a	n/a	0	0	0
478100	WORD	wordpools/wasnorm_wordpool_576.txt	LTP365	ltpFR2	22	3	COLONEL	348	n/a	n/a	0	0	0
480717	WORD	wordpools/wasnorm_wordpool_576.txt	LTP365	ltpFR2	22	3	HEADBAND	696	n/a	n/a	0	0	0
483164	WORD	wordpools/wasnorm_wordpool_576.txt	LTP365	ltpFR2	22	3	MARROW	872	n/a	n/a	0	0	0
485981	WORD	wordpools/wasnorm_wordpool_576.txt	LTP365	ltpFR2	22	3	BACKBONE	66	n/a	n/a	0	0	0
488546	WORD	wordpools/wasnorm_wordpool_576.txt	LTP365	ltpFR2	22	3	CROWN	415	n/a	n/a	0	0	0
490995	WORD	wordpools/wasnorm_wordpool_576.txt	LTP365	ltpFR2	22	3	PALACE	1006	n/a	n/a	0	0	0
493494	WORD	wordpools/wasnorm_wordpool_576.txt	LTP365	ltpFR2	22	3	MISTER	901	n/a	n/a	0	0	0
496192	WORD	wordpools/wasnorm_wordpool_576.txt	LTP365	ltpFR2	22	3	STATUE	1374	n/a	n/a	0	0	0
498725	WORD	wordpools/wasnorm_wordpool_576.txt	LTP365	ltpFR2	22	3	CHEMIST	292	n/a	n/a	0	0	0
501356	WORD	wordpools/wasnorm_wordpool_576.txt	LTP365	ltpFR2	22	3	CANYON	235	n/a	n/a	0	0	0
503790	WORD	wordpools/wasnorm_wordpool_576.txt	LTP365	ltpFR2	22	3	CARROT	249	n/a	n/a	0	0	0
506404	WORD	wordpools/wasnorm_wordpool_576.txt	LTP365	ltpFR2	22	3	TORTOISE	1486	n/a	n/a	0	0	0
509037	WORD	wordpools/wasnorm_wordpool_576.txt	LTP365	ltpFR2	22	3	CLIMBER	323	n/a	n/a	0	0	0
511719	WORD	wordpools/wasnorm_wordpool_576.txt	LTP365	ltpFR2	22	3	ULCER	1533	n/a	n/a	0	0	0
514350	WORD	wordpools/wasnorm_wordpool_576.txt	LTP365	ltpFR2	22	3	CONTRACT	368	n/a	n/a	0	0	0
517083	WORD	wordpools/wasnorm_wordpool_576.txt	LTP365	ltpFR2	22	3	CRATER	400	n/a	n/a	0	0	0
519749	WORD	wordpools/wasnorm_wordpool_576.txt	LTP365	ltpFR2	22	3	FRECKLE	602	n/a	n/a	0	0	0
522280	WORD	wordpools/wasnorm_wordpool_576.txt	LTP365	ltpFR2	22	3	RABBIT	1152	n/a	n/a	0	0	0
524847	WORD	wordpools/wasnorm_wordpool_576.txt	LTP365	ltpFR2	22	3	BEAVER	109	n/a	n/a	0	0	0
526463	START	n/a	LTP365	ltpFR2	22	n/a	n/a	n/a	5	n/a	n/a	n/a	n/a
527611	DISTRACTOR	n/a	LTP365	ltpFR2	22	3	n/a	n/a	n/a	n/a	0	0	0
527629	PROB	n/a	LTP365	ltpFR2	22	n/a	n/a	n/a	5	16	5	4	7
529410	PROB	n/a	LTP365	ltpFR2	22	n/a	n/a	n/a	5	15	4	5	6
531727	PROB	n/a	LTP365	ltpFR2	22	n/a	n/a	n/a	5	17	3	8	6
533809	PROB	n/a	LTP365	ltpFR2	22	n/a	n/a	n/a	5	20	7	6	7
535108	PROB	n/a	LTP365	ltpFR2	22	n/a	n/a	n/a	5	12	3	5	4
536858	PROB	n/a	LTP365	ltpFR2	22	n/a	n/a	n/a	5	20	9	6	5
538774	PROB	n/a	LTP365	ltpFR2	22	n/a	n/a	n/a	5	24	9	8	6
541455	PROB	n/a	LTP365	ltpFR2	22	n/a	n/a	n/a	5	8	5	1	2
543505	PROB	n/a	LTP365	ltpFR2	22	n/a	n/a	n/a	5	11	1	2	8
544954	PROB	n/a	LTP365	ltpFR2	22	n/a	n/a	n/a	5	17	4	4	9
546803	PROB	n/a	LTP365	ltpFR2	22	n/a	n/a	n/a	5	20	4	8	8
548819	PROB	n/a	LTP365	ltpFR2	22	n/a	n/a	n/a	5	16	7	7	2
550113	STOP	n/a	LTP365	ltpFR2	22	n/a	n/a	n/a	5	n/a	n/a	n/a	n/a
552384	REC_START	n/a	LTP365	ltpFR2	22	3	n/a	n/a	n/a	n/a	0	0	0
553142	REC_WORD	wordpools/wasnorm_wordpool_576.txt	LTP365	ltpFR2	22	3	BROTHER	179	n/a	n/a	0	0	0
553721	REC_WORD	wordpools/wasnorm_wordpool_576.txt	LTP365	ltpFR2	22	3	ISLAND	745	n/a	n/a	0	0	0
554561	REC_WORD	wordpools/wasnorm_wordpool_576.txt	LTP365	ltpFR2	22	3	PALACE	1006	n/a	n/a	0	0	0
556769	REC_WORD	wordpools/wasnorm_wordpool_576.txt	LTP365	ltpFR2	22	3	FIREPLACE	570	n/a	n/a	0	0	0
557739	REC_WORD	wordpools/wasnorm_wordpool_576.txt	LTP365	ltpFR2	22	3	GUITAR	670	n/a	n/a	0	0	0
560413	REC_WORD	wordpools/wasnorm_wordpool_576.txt	LTP365	ltpFR2	22	3	RABBIT	1152	n/a	n/a	0	0	0
561941	REC_WORD	wordpools/wasnorm_wordpool_576.txt	LTP365	ltpFR2	22	3	TORTOISE	1486	n/a	n/a	0	0	0
569494	REC_WORD	wordpools/wasnorm_wordpool_576.txt	LTP365	ltpFR2	22	3	CARROT	249	n/a	n/a	0	0	0
572342	REC_WORD	wordpools/wasnorm_wordpool_576.txt	LTP365	ltpFR2	22	3	CLIMBER	323	n/a	n/a	0	0	0
576431	REC_WORD	wordpools/wasnorm_wordpool_576.txt	LTP365	ltpFR2	22	3	COLONEL	348	n/a	n/a	0	0	0
580960	REC_WORD	wordpools/wasnorm_wordpool_576.txt	LTP365	ltpFR2	22	3	LABEL	790	n/a	n/a	0	0	0
585801	REC_WORD	wordpools/wasnorm_wordpool_576.txt	LTP365	ltpFR2	22	3	MARROW	872	n/a	n/a	0	0	0
586820	REC_WORD	wordpools/wasnorm_wordpool_576.txt	LTP365	ltpFR2	22	3	BACKBONE	66	n/a	n/a	0	0	0
587820	REC_WORD_VV	wordpools/wasnorm_wordpool_576.txt	LTP365	ltpFR2	22	3	<>	-1	n/a	n/a	0	0	0
590607	REC_WORD	wordpools/wasnorm_wordpool_576.txt	LTP365	ltpFR2	22	3	FRECKLE	602	n/a	n/a	0	0	0
642810	DISTRACTOR	n/a	LTP365	ltpFR2	22	4	n/a	n/a	n/a	n/a	0	0	0
642810	START	n/a	LTP365	ltpFR2	22	n/a	n/a	n/a	6	n/a	n/a	n/a	n/a
642827	PROB	n/a	LTP365	ltpFR2	22	n/a	n/a	n/a	6	10	1	3	6
644026	PROB	n/a	LTP365	ltpFR2	22	n/a	n/a	n/a	6	14	8	1	5
645425	PROB	n/a	LTP365	ltpFR2	22	n/a	n/a	n/a	6	13	1	3	9
646808	PROB	n/a	LTP365	ltpFR2	22	n/a	n/a	n/a	6	11	1	2	8
648107	PROB	n/a	LTP365	ltpFR2	22	n/a	n/a	n/a	6	15	6	7	2
650139	PROB	n/a	LTP365	ltpFR2	22	n/a	n/a	n/a	6	24	6	9	9
652188	PROB	n/a	LTP365	ltpFR2	22	n/a	n/a	n/a	6	25	7	9	9
654171	PROB	n/a	LTP365	ltpFR2	22	n/a	n/a	n/a	6	9	1	7	1
655671	PROB	n/a	LTP365	ltpFR2	22	n/a	n/a	n/a	6	16	8	4	4
657004	PROB	n/a	LTP365	ltpFR2	22	n/a	n/a	n/a	6	21	9	9	3
658252	PROB	n/a	LTP365	ltpFR2	22	n/a	n/a	n/a	6	13	3	1	9
659902	PROB	n/a	LTP365	ltpFR2	22	n/a	n/a	n/a	6	15	4	5	6
661518	PROB	n/a	LTP365	ltpFR2	22	n/a	n/a	n/a	6	22	5	9	9
663051	PROB	n/a	LTP365	ltpFR2	22	n/a	n/a	n/a	6	10	3	2	5
665067	PROB	n/a	LTP365	ltpFR2	22	n/a	n/a	n/a	6	19	7	9	3
666742	STOP	n/a	LTP365	ltpFR2	22	n/a	n/a	n/a	6	n/a	n/a	n/a	n/a
667882	WORD	wordpools/wasnorm_wordpool_576.txt	LTP365	ltpFR2	22	4	BROOK	177	n/a	n/a	0	0	0
670330	WORD	wordpools/wasnorm_wordpool_576.txt	LTP365	ltpFR2	22	4	GALLON	618	n/a	n/a	0	0	0
672813	WORD	wordpools/wasnorm_wordpool_576.txt	LTP365	ltpFR2	22	4	SALT	1229	n/a	n/a	0	0	0
675394	WORD	wordpools/wasnorm_wordpool_576.txt	LTP365	ltpFR2	22	4	LEADER	807	n/a	n/a	0	0	0
677994	WORD	wordpools/wasnorm_wordpool_576.txt	LTP365	ltpFR2	22	4	BRICK	172	n/a	n/a	0	0	0
680710	WORD	wordpools/wasnorm_wordpool_576.txt	LTP365	ltpFR2	22	4	TURKEY	1520	n/a	n/a	0	0	0
683174	WORD	wordpools/wasnorm_wordpool_576.txt	LTP365	ltpFR2	22	4	TUTU	1524	n/a	n/a	0	0	0
685841	WORD	wordpools/wasnorm_wordpool_576.txt	LTP365	ltpFR2	22	4	SANDWICH	1232	n/a	n/a	0	0	0
688556	WORD	wordpools/wasnorm_wordpool_576.txt	LTP365	ltpFR2	22	4	CLAMP	316	n/a	n/a	0	0	0
691187	WORD	wordpools/wasnorm_wordpool_576.txt	LTP365	ltpFR2	22	4	PICNIC	1060	n/a	n/a	0	0	0
693670	WORD	wordpools/wasnorm_wordpool_576.txt	LTP365	ltpFR2	22	4	STREAM	1392	n/a	n/a	0	0	0
696452	WORD	wordpools/wasnorm_wordpool_576.txt	LTP365	ltpFR2	22	4	POPCORN	1104	n/a	n/a	0	0	0
699068	WORD	wordpools/wasnorm_wordpool_576.txt	LTP365	ltpFR2	22	4	PADDING	999	n/a	n/a	0	0	0
701733	WORD	wordpools/wasnorm_wordpool_576.txt	LTP365	ltpFR2	22	4	PUPIL	1143	n/a	n/a	0	0	0
704448	WORD	wordpools/wasnorm_wordpool_576.txt	LTP365	ltpFR2	22	4	TILE	1468	n/a	n/a	0	0	0
706998	WORD	wordpools/wasnorm_wordpool_576.txt	LTP365	ltpFR2	22	4	GROUND	666	n/a	n/a	0	0	0
709647	WORD	wordpools/wasnorm_wordpool_576.txt	LTP365	ltpFR2	22	4	CURTAIN	427	n/a	n/a	0	0	0
712144	WORD	wordpools/wasnorm_wordpool_576.txt	LTP365	ltpFR2	22	4	ARMY	39	n/a	n/a	0	0	0
714578	WORD	wordpools/wasnorm_wordpool_576.txt	LTP365	ltpFR2	22	4	JOURNAL	760	n/a	n/a	0	0	0
717225	WORD	wordpools/wasnorm_wordpool_576.txt	LTP365	ltpFR2	22	4	SURVEY	1414	n/a	n/a	0	0	0
719958	WORD	wordpools/wasnorm_wordpool_576.txt	LTP365	ltpFR2	22	4	BARREL	91	n/a	n/a	0	0	0
722474	WORD	wordpools/wasnorm_wordpool_576.txt	LTP365	ltpFR2	22	4	BIKE	125	n/a	n/a	0	0	0
725139	WORD	wordpools/wasnorm_wordpool_576.txt	LTP365	ltpFR2	22	4	PEDAL	1037	n/a	n/a	0	0	0
727838	WORD	wordpools/wasnorm_wordpool_576.txt	LTP365	ltpFR2	22	4	CABIN	211	n/a	n/a	0	0	0
729453	START	n/a	LTP365	ltpFR2	22	n/a	n/a	n/a	7	n/a	n/a	n/a	n/a
730653	DISTRACTOR	n/a	LTP365	ltpFR2	22	4	n/a	n/a	n/a	n/a	0	0	0
730670	PROB	n/a	LTP365	ltpFR2	22	n/a	n/a	n/a	7	9	5	3	1
731953	PROB	n/a	LTP365	ltpFR2	22	n/a	n/a	n/a	7	10	1	2	7
733086	PROB	n/a	LTP365	ltpFR2	22	n/a	n/a	n/a	7	16	2	9	5
734652	PROB	n/a	LTP365	ltpFR2	22	n/a	n/a	n/a	7	17	8	3	6
736668	PROB	n/a	LTP365	ltpFR2	22	n/a	n/a	n/a	7	10	6	3	1
737917	PROB	n/a	LTP365	ltpFR2	22	n/a	n/a	n/a	7	14	5	3	5
739583	PROB	n/a	LTP365	ltpFR2	22	n/a	n/a	n/a	7	12	7	4	1
741532	PROB	n/a	LTP365	ltpFR2	22	n/a	n/a	n/a	7	18	3	7	8
742815	PROB	n/a	LTP365	ltpFR2	22	n/a	n/a	n/a	7	17	7	1	9
744048	PROB	n/a	LTP365	ltpFR2	22	n/a	n/a	n/a	7	20	8	8	4
745647	PROB	n/a	LTP365	ltpFR2	22	n/a	n/a	n/a	7	20	9	9	2
747279	PROB	n/a	LTP365	ltpFR2	22	n/a	n/a	n/a	7	14	4	4	6
748546	PROB	n/a	LTP365	ltpFR2	22	n/a	n/a	n/a	7	15	2	8	5
749878	PROB	n/a	LTP365	ltpFR2	22	n/a	n/a	n/a	7	12	1	2	9
753453	STOP	n/a	LTP365	ltpFR2	22	n/a	n/a	n/a	7	n/a	n/a	n/a	n/a
755359	REC_START	n/a	LTP365	ltpFR2	22	4	n/a	n/a	n/a	n/a	0	0	0
757667	REC_WORD	wordpools/wasnorm_wordpool_576.txt	LTP365	ltpFR2	22	4	BARREL	91	n/a	n/a	0	0	0
758229	REC_WORD	wordpools/wasnorm_wordpool_576.txt	LTP365	ltpFR2	22	4	STREAM	1392	n/a	n/a	0	0	0
759236	REC_WORD	wordpools/wasnorm_wordpool_576.txt	LTP365	ltpFR2	22	4	BROOK	177	n/a	n/a	0	0	0
760082	REC_WORD	wordpools/wasnorm_wordpool_576.txt	LTP365	ltpFR2	22	4	PICNIC	1060	n/a	n/a	0	0	0
760986	REC_WORD	wordpools/wasnorm_wordpool_576.txt	LTP365	ltpFR2	22	4	CABIN	211	n/a	n/a	0	0	0
763023	REC_WORD	wordpools/wasnorm_wordpool_576.txt	LTP365	ltpFR2	22	4	SANDWICH	1232	n/a	n/a	0	0	0
763964	REC_WORD	wordpools/wasnorm_wordpool_576.txt	LTP365	ltpFR2	22	4	POPCORN	1104	n/a	n/a	0	0	0
765756	REC_WORD	wordpools/wasnorm_wordpool_576.txt	LTP365	ltpFR2	22	4	SALT	1229	n/a	n/a	0	0	0
768102	REC_WORD	wordpools/wasnorm_wordpool_576.txt	LTP365	ltpFR2	22	4	GALLON	618	n/a	n/a	0	0	0
785080	REC_WORD	wordpools/wasnorm_wordpool_576.txt	LTP365	ltpFR2	22	4	LEADER	807	n/a	n/a	0	0	0
795901	REC_WORD	wordpools/wasnorm_wordpool_576.txt	LTP365	ltpFR2	22	4	CLAMP	316	n/a	n/a	0	0	0
796723	REC_WORD	wordpools/wasnorm_wordpool_576.txt	LTP365	ltpFR2	22	4	BRICK	172	n/a	n/a	0	0	0
845785	DISTRACTOR	n/a	LTP365	ltpFR2	22	5	n/a	n/a	n/a	n/a	0	0	0
845785	START	n/a	LTP365	ltpFR2	22	n/a	n/a	n/a	8	n/a	n/a	n/a	n/a
845802	PROB	n/a	LTP365	ltpFR2	22	n/a	n/a	n/a	8	13	4	4	5
848867	PROB	n/a	LTP365	ltpFR2	22	n/a	n/a	n/a	8	9	6	1	2
850215	PROB	n/a	LTP365	ltpFR2	22	n/a	n/a	n/a	8	19	8	5	6
852114	PROB	n/a	LTP365	ltpFR2	22	n/a	n/a	n/a	8	7	3	2	2
853681	PROB	n/a	LTP365	ltpFR2	22	n/a	n/a	n/a	8	13	5	4	4
855847	PROB	n/a	LTP365	ltpFR2	22	n/a	n/a	n/a	8	5	2	2	1
857030	PROB	n/a	LTP365	ltpFR2	22	n/a	n/a	n/a	8	21	7	9	6
858779	PROB	n/a	LTP365	ltpFR2	22	n/a	n/a	n/a	8	7	2	1	4
861177	PROB	n/a	LTP365	ltpFR2	22	n/a	n/a	n/a	8	19	5	6	8
862944	PROB	n/a	LTP365	ltpFR2	22	n/a	n/a	n/a	8	21	4	4	3
864259	PROB	n/a	LTP365	ltpFR2	22	n/a	n/a	n/a	8	18	1	8	9
865943	PROB	n/a	LTP365	ltpFR2	22	n/a	n/a	n/a	8	24	7	9	8
869785	STOP	n/a	LTP365	ltpFR2	22	n/a	n/a	n/a	8	n/a	n/a	n/a	n/a
870807	WORD	wordpools/wasnorm_wordpool_576.txt	LTP365	ltpFR2	22	5	NAPKIN	937	n/a	n/a	0	0	0
873472	WORD	wordpools/wasnorm_wordpool_576.txt	LTP365	ltpFR2	22	5	MONEY	908	n/a	n/a	0	0	0
876104	WORD	wordpools/wasnorm_wordpool_576.txt	LTP365	ltpFR2	22	5	GRAVE	658	n/a	n/a	0	0	0
878537	WORD	wordpools/wasnorm_wordpool_576.txt	LTP365	ltpFR2	22	5	ROCKET	1202	n/a	n/a	0	0	0
881201	WORD	wordpools/wasnorm_wordpool_576.txt	LTP365	ltpFR2	22	5	RAZOR	1171	n/a	n/a	0	0	0
883685	WORD	wordpools/wasnorm_wordpool_576.txt	LTP365	ltpFR2	22	5	FLASK	576	n/a	n/a	0	0	0
886216	WORD	wordpools/wasnorm_wordpool_576.txt	LTP365	ltpFR2	22	5	BEAKER	104	n/a	n/a	0	0	0
888699	WORD	wordpools/wasnorm_wordpool_576.txt	LTP365	ltpFR2	22	5	SIDEWALK	1303	n/a	n/a	0	0	0
891380	WORD	wordpools/wasnorm_wordpool_576.txt	LTP365	ltpFR2	22	5	SPONGE	1355	n/a	n/a	0	0	0
894080	WORD	wordpools/wasnorm_wordpool_576.txt	LTP365	ltpFR2	22	5	COD	340	n/a	n/a	0	0	0
896712	WORD	wordpools/wasnorm_wordpool_576.txt	LTP365	ltpFR2	22	5	GLOBE	641	n/a	n/a	0	0	0
899410	WORD	wordpools/wasnorm_wordpool_576.txt	LTP365	ltpFR2	22	5	ROBBER	1197	n/a	n/a	0	0	0
902076	WORD	wordpools/wasnorm_wordpool_576.txt	LTP365	ltpFR2	22	5	HIGHWAY	707	n/a	n/a	0	0	0
904508	WORD	wordpools/wasnorm_wordpool_576.txt	LTP365	ltpFR2	22	5	WHISTLE	1606	n/a	n/a	0	0	0
907306	WORD	wordpools/wasnorm_wordpool_576.txt	LTP365	ltpFR2	22	5	BEAST	108	n/a	n/a	0	0	0
909839	WORD	wordpools/wasnorm_wordpool_576.txt	LTP365	ltpFR2	22	5	MISSILE	900	n/a	n/a	0	0	0
912655	WORD	wordpools/wasnorm_wordpool_576.txt	LTP365	ltpFR2	22	5	POCKET	1093	n/a	n/a	0	0	0
915269	WORD	wordpools/wasnorm_wordpool_576.txt	LTP365	ltpFR2	22	5	SKIRT	1319	n/a	n/a	0	0	0
917753	WORD	wordpools/wasnorm_wordpool_576.txt	LTP365	ltpFR2	22	5	FRAGRANCE	599	n/a	n/a	0	0	0
920568	WORD	wordpools/wasnorm_wordpool_576.txt	LTP365	ltpFR2	22	5	BANQUET	86	n/a	n/a	0	0	0
923366	WORD	wordpools/wasnorm_wordpool_576.txt	LTP365	ltpFR2	22	5	TAXI	1438	n/a	n/a	0	0	0
925999	WORD	wordpools/wasnorm_wordpool_576.txt	LTP365	ltpFR2	22	5	DAUGHTER	442	n/a	n/a	0	0	0
928498	WORD	wordpools/wasnorm_wordpool_576.txt	LTP365	ltpFR2	22	5	KEEPER	769	n/a	n/a	0	0	0
931030	WORD	wordpools/wasnorm_wordpool_576.txt	LTP365	ltpFR2	22	5	FLEET	578	n/a	n/a	0	0	0
932646	START	n/a	LTP365	ltpFR2	22	n/a	n/a	n/a	9	n/a	n/a	n/a	n/a
933603	DISTRACTOR	n/a	LTP365	ltpFR2	22	5	n/a	n/a	n/a	n/a	0	0	0
933612	PROB	n/a	LTP365	ltpFR2	22	n/a	n/a	n/a	9	15	7	2	6
936426	PROB	n/a	LTP365	ltpFR2	22	n/a	n/a	n/a	9	14	4	2	8
937827	PROB	n/a	LTP365	ltpFR2	22	n/a	n/a	n/a	9	5	1	1	3
938943	PROB	n/a	LTP365	ltpFR2	22	n/a	n/a	n/a	9	15	7	3	5
940659	PROB	n/a	LTP365	ltpFR2	22	n/a	n/a	n/a	9	10	7	1	2
942374	PROB	n/a	LTP365	ltpFR2	22	n/a	n/a	n/a	9	13	6	6	1
943774	PROB	n/a	LTP365	ltpFR2	22	n/a	n/a	n/a	9	20	7	6	7
945073	PROB	n/a	LTP365	ltpFR2	22	n/a	n/a	n/a	9	12	3	4	5
947056	PROB	n/a	LTP365	ltpFR2	22	n/a	n/a	n/a	9	14	1	5	8
948589	PROB	n/a	LTP365	ltpFR2	22	n/a	n/a	n/a	9	11	3	2	6
950170	PROB	n/a	LTP365	ltpFR2	22	n/a	n/a	n/a	9	17	5	9	3
952470	PROB	n/a	LTP365	ltpFR2	22	n/a	n/a	n/a	9	27	9	9	9
954069	PROB	n/a	LTP365	ltpFR2	22	n/a	n/a	n/a	9	12	3	4	5
955487	STOP	n/a	LTP365	ltpFR2	22	n/a	n/a	n/a	9	n/a	n/a	n/a	n/a
958518	REC_START	n/a	LTP365	ltpFR2	22	5	n/a	n/a	n/a	n/a	0	0	0
959766	REC_WORD	wordpools/wasnorm_wordpool_576.txt	LTP365	ltpFR2	22	5	ROBBER	1197	n/a	n/a	0	0	0
960659	REC_WORD	wordpools/wasnorm_wordpool_576.txt	LTP365	ltpFR2	22	5	SKIRT	1319	n/a	n/a	0	0	0
961659	REC_WORD_VV	wordpools/wasnorm_wordpool_576.txt	LTP365	ltpFR2	22	5	<>	-1	n/a	n/a	0	0	0
961980	REC_WORD	wordpools/wasnorm_wordpool_576.txt	LTP365	ltpFR2	22	5	SPONGE	1355	n/a	n/a	0	0	0
962980	REC_WORD_VV	wordpools/wasnorm_wordpool_576.txt	LTP365	ltpFR2	22	5	<>	-1	n/a	n/a	0	0	0
964873	REC_WORD	wordpools/wasnorm_wordpool_576.txt	LTP365	ltpFR2	22	5	MISSILE	900	n/a	n/a	0	0	0
965776	REC_WORD	wordpools/wasnorm_wordpool_576.txt	LTP365	ltpFR2	22	5	ROCKET	1202	n/a	n/a	0	0	0
967037	REC_WORD	wordpools/wasnorm_wordpool_576.txt	LTP365	ltpFR2	22	5	POCKET	1093	n/a	n/a	0	0	0
969905	REC_WORD	wordpools/wasnorm_wordpool_576.txt	LTP365	ltpFR2	22	5	MONEY	908	n/a	n/a	0	0	0
971191	REC_WORD	wordpools/wasnorm_wordpool_576.txt	LTP365	ltpFR2	22	5	BANQUET	86	n/a	n/a	0	0	0
972628	REC_WORD	wordpools/wasnorm_wordpool_576.txt	LTP365	ltpFR2	22	5	NAPKIN	937	n/a	n/a	0	0	0
978325	REC_WORD	wordpools/wasnorm_wordpool_576.txt	LTP365	ltpFR2	22	5	GRAVESTONE	-1	n/a	n/a	0	0	0
979325	REC_WORD_VV	wordpools/wasnorm_wordpool_576.txt	LTP365	ltpFR2	22	5	<>	-1	n/a	n/a	0	0	0
983736	REC_WORD	wordpools/wasnorm_wordpool_576.txt	LTP365	ltpFR2	22	5	SIDEWALK	1303	n/a	n/a	0	0	0
985266	REC_WORD	wordpools/wasnorm_wordpool_576.txt	LTP365	ltpFR2	22	5	FLEET	578	n/a	n/a	0	0	0
987839	REC_WORD	wordpools/wasnorm_wordpool_576.txt	LTP365	ltpFR2	22	5	DAUGHTER	442	n/a	n/a	0	0	0
995723	REC_WORD	wordpools/wasnorm_wordpool_576.txt	LTP365	ltpFR2	22	5	COD	340	n/a	n/a	0	0	0
1048960	WORD	wordpools/wasnorm_wordpool_576.txt	LTP365	ltpFR2	22	6	CUPBOARD	425	n/a	n/a	0	0	0
1051459	WORD	wordpools/wasnorm_wordpool_576.txt	LTP365	ltpFR2	22	6	LADY	794	n/a	n/a	0	0	0
1054223	WORD	wordpools/wasnorm_wordpool_576.txt	LTP365	ltpFR2	22	6	QUARTER	1148	n/a	n/a	0	0	0
1057006	WORD	wordpools/wasnorm_wordpool_576.txt	LTP365	ltpFR2	22	6	PUDDING	1139	n/a	n/a	0	0	0
1059755	WORD	wordpools/wasnorm_wordpool_576.txt	LTP365	ltpFR2	22	6	NEUTRON	947	n/a	n/a	0	0	0
1062386	WORD	wordpools/wasnorm_wordpool_576.txt	LTP365	ltpFR2	22	6	STAMP	1370	n/a	n/a	0	0	0
1064869	WORD	wordpools/wasnorm_wordpool_576.txt	LTP365	ltpFR2	22	6	JELLO	754	n/a	n/a	0	0	0
1067317	WORD	wordpools/wasnorm_wordpool_576.txt	LTP365	ltpFR2	22	6	SCRIBBLE	1256	n/a	n/a	0	0	0
1069884	WORD	wordpools/wasnorm_wordpool_576.txt	LTP365	ltpFR2	22	6	MAILBOX	857	n/a	n/a	0	0	0
1072432	WORD	wordpools/wasnorm_wordpool_576.txt	LTP365	ltpFR2	22	6	MATTRESS	879	n/a	n/a	0	0	0
1074981	WORD	wordpools/wasnorm_wordpool_576.txt	LTP365	ltpFR2	22	6	WITNESS	1618	n/a	n/a	0	0	0
1077547	WORD	wordpools/wasnorm_wordpool_576.txt	LTP365	ltpFR2	22	6	ICEBERG	731	n/a	n/a	0	0	0
1079996	WORD	wordpools/wasnorm_wordpool_576.txt	LTP365	ltpFR2	22	6	JURY	766	n/a	n/a	0	0	0
1082745	WORD	wordpools/wasnorm_wordpool_576.txt	LTP365	ltpFR2	22	6	GAVEL	627	n/a	n/a	0	0	0
1085192	WORD	wordpools/wasnorm_wordpool_576.txt	LTP365	ltpFR2	22	6	YACHT	1629	n/a	n/a	0	0	0
1087959	WORD	wordpools/wasnorm_wordpool_576.txt	LTP365	ltpFR2	22	6	STOMACH	1384	n/a	n/a	0	0	0
1090407	WORD	wordpools/wasnorm_wordpool_576.txt	LTP365	ltpFR2	22	6	COCOON	339	n/a	n/a	0	0	0
1092923	WORD	wordpools/wasnorm_wordpool_576.txt	LTP365	ltpFR2	22	6	CRITIC	410	n/a	n/a	0	0	0
1095539	WORD	wordpools/wasnorm_wordpool_576.txt	LTP365	ltpFR2	22	6	HAWK	692	n/a	n/a	0	0	0
1098088	WORD	wordpools/wasnorm_wordpool_576.txt	LTP365	ltpFR2	22	6	AIRPLANE	12	n/a	n/a	0	0	0
1100737	WORD	wordpools/wasnorm_wordpool_576.txt	LTP365	ltpFR2	22	6	PERCH	1048	n/a	n/a	0	0	0
1103485	WORD	wordpools/wasnorm_wordpool_576.txt	LTP365	ltpFR2	22	6	APRON	35	n/a	n/a	0	0	0
1106266	WORD	wordpools/wasnorm_wordpool_576.txt	LTP365	ltpFR2	22	6	TOURIST	1488	n/a	n/a	0	0	0
1109033	WORD	wordpools/wasnorm_wordpool_576.txt	LTP365	ltpFR2	22	6	MACHINE	852	n/a	n/a	0	0	0
1110649	START	n/a	LTP365	ltpFR2	22	n/a	n/a	n/a	10	n/a	n/a	n/a	n/a
1111694	DISTRACTOR	n/a	LTP365	ltpFR2	22	6	n/a	n/a	n/a	n/a	0	0	0
1111698	PROB	n/a	LTP365	ltpFR2	22	n/a	n/a	n/a	10	14	8	4	2
1113313	PROB	n/a	LTP365	ltpFR2	22	n/a	n/a	n/a	10	6	2	3	1
1114564	PROB	n/a	LTP365	ltpFR2	22	n/a	n/a	n/a	10	14	6	2	6
1116428	PROB	n/a	LTP365	ltpFR2	22	n/a	n/a	n/a	10	17	4	9	4
1118178	PROB	n/a	LTP365	ltpFR2	22	n/a	n/a	n/a	10	15	9	4	2
1119961	PROB	n/a	LTP365	ltpFR2	22	n/a	n/a	n/a	10	17	3	5	9
1122192	PROB	n/a	LTP365	ltpFR2	22	n/a	n/a	n/a	10	19	5	7	7
1123626	PROB	n/a	LTP365	ltpFR2	22	n/a	n/a	n/a	10	19	3	8	8
1125224	PROB	n/a	LTP365	ltpFR2	22	n/a	n/a	n/a	10	20	9	4	7
1127041	PROB	n/a	LTP365	ltpFR2	22	n/a	n/a	n/a	10	10	1	6	3
1128207	PROB	n/a	LTP365	ltpFR2	22	n/a	n/a	n/a	10	11	4	1	6
1129356	PROB	n/a	LTP365	ltpFR2	22	n/a	n/a	n/a	10	18	7	5	6
1132355	PROB	n/a	LTP365	ltpFR2	22	n/a	n/a	n/a	10	20	9	8	3
1133821	STOP	n/a	LTP365	ltpFR2	22	n/a	n/a	n/a	10	n/a	n/a	n/a	n/a
1136571	REC_START	n/a	LTP365	ltpFR2	22	6	n/a	n/a	n/a	n/a	0	0	0
1137148	REC_WORD	wordpools/wasnorm_wordpool_576.txt	LTP365	ltpFR2	22	6	MACHINE	852	n/a	n/a	0	0	0
1137911	REC_WORD	wordpools/wasnorm_wordpool_576.txt	LTP365	ltpFR2	22	6	YACHT	1629	n/a	n/a	0	0	0
1138635	REC_WORD	wordpools/wasnorm_wordpool_576.txt	LTP365	ltpFR2	22	6	GAVEL	627	n/a	n/a	0	0	0
1144281	REC_WORD	wordpools/wasnorm_wordpool_576.txt	LTP365	ltpFR2	22	6	JURY	766	n/a	n/a	0	0	0
1146528	REC_WORD	wordpools/wasnorm_wordpool_576.txt	LTP365	ltpFR2	22	6	ICEBERG	731	n/a	n/a	0	0	0
1147501	REC_WORD	wordpools/wasnorm_wordpool_576.txt	LTP365	ltpFR2	22	6	TOURIST	1488	n/a	n/a	0	0	0
1151995	REC_WORD	wordpools/wasnorm_wordpool_576.txt	LTP365	ltpFR2	22	6	APRON	35	n/a	n/a	0	0	0
1153440	REC_WORD	wordpools/wasnorm_wordpool_576.txt	LTP365	ltpFR2	22	6	STOMACH	1384	n/a	n/a	0	0	0
1158012	REC_WORD	wordpools/wasnorm_wordpool_576.txt	LTP365	ltpFR2	22	6	COCOON	339	n/a	n/a	0	0	0
1160850	REC_WORD	wordpools/wasnorm_wordpool_576.txt	LTP365	ltpFR2	22	6	JELLO	754	n/a	n/a	0	0	0
1161580	REC_WORD	wordpools/wasnorm_wordpool_576.txt	LTP365	ltpFR2	22	6	PUDDING	1139	n/a	n/a	0	0	0
1162363	REC_WORD	wordpools/wasnorm_wordpool_576.txt	LTP365	ltpFR2	22	6	POSTAGE	1113	n/a	n/a	0	0	0
1163278	REC_WORD	wordpools/wasnorm_wordpool_576.txt	LTP365	ltpFR2	22	6	MATTRESS	879	n/a	n/a	0	0	0
1167993	REC_WORD	wordpools/wasnorm_wordpool_576.txt	LTP365	ltpFR2	22	6	MAILBOX	857	n/a	n/a	0	0	0
1168993	REC_WORD_VV	wordpools/wasnorm_wordpool_576.txt	LTP365	ltpFR2	22	6	<>	-1	n/a	n/a	0	0	0
1176894	REC_WORD	wordpools/wasnorm_wordpool_576.txt	LTP365	ltpFR2	22	6	LADY	794	n/a	n/a	0	0	0
1178322	REC_WORD	wordpools/wasnorm_wordpool_576.txt	LTP365	ltpFR2	22	6	CUPBOARD	425	n/a	n/a	0	0	0
1226996	DISTRACTOR	n/a	LTP365	ltpFR2	22	7	n/a	n/a	n/a	n/a	0	0	0
1226996	START	n/a	LTP365	ltpFR2	22	n/a	n/a	n/a	11	n/a	n/a	n/a	n/a
1227013	PROB	n/a	LTP365	ltpFR2	22	n/a	n/a	n/a	11	23	8	9	6
1230045	PROB	n/a	LTP365	ltpFR2	22	n/a	n/a	n/a	11	19	8	8	3
1232460	PROB	n/a	LTP365	ltpFR2	22	n/a	n/a	n/a	11	20	8	7	5
1234693	PROB	n/a	LTP365	ltpFR2	22	n/a	n/a	n/a	11	1	3	3	4
1236908	PROB	n/a	LTP365	ltpFR2	22	n/a	n/a	n/a	11	14	3	8	3
1238924	PROB	n/a	LTP365	ltpFR2	22	n/a	n/a	n/a	11	13	9	2	2
1240456	PROB	n/a	LTP365	ltpFR2	22	n/a	n/a	n/a	11	23	5	9	9
1242772	PROB	n/a	LTP365	ltpFR2	22	n/a	n/a	n/a	11	7	1	2	4
1245237	PROB	n/a	LTP365	ltpFR2	22	n/a	n/a	n/a	11	14	5	1	8
1246837	PROB	n/a	LTP365	ltpFR2	22	n/a	n/a	n/a	11	13	2	5	6
1249219	PROB	n/a	LTP365	ltpFR2	22	n/a	n/a	n/a	11	21	5	8	8
1250649	STOP	n/a	LTP365	ltpFR2	22	n/a	n/a	n/a	11	n/a	n/a	n/a	n/a
1251852	WORD	wordpools/wasnorm_wordpool_576.txt	LTP365	ltpFR2	22	7	DIME	466	n/a	n/a	0	0	0
1254650	WORD	wordpools/wasnorm_wordpool_576.txt	LTP365	ltpFR2	22	7	LASER	801	n/a	n/a	0	0	0
1257282	WORD	wordpools/wasnorm_wordpool_576.txt	LTP365	ltpFR2	22	7	CRICKET	408	n/a	n/a	0	0	0
1260114	WORD	wordpools/wasnorm_wordpool_576.txt	LTP365	ltpFR2	22	7	SHORTCAKE	1292	n/a	n/a	0	0	0
1262697	WORD	wordpools/wasnorm_wordpool_576.txt	LTP365	ltpFR2	22	7	MARINE	869	n/a	n/a	0	0	0
1265512	WORD	wordpools/wasnorm_wordpool_576.txt	LTP365	ltpFR2	22	7	RECEIPT	1173	n/a	n/a	0	0	0
1268143	WORD	wordpools/wasnorm_wordpool_576.txt	LTP365	ltpFR2	22	7	BELLY	119	n/a	n/a	0	0	0
1270843	WORD	wordpools/wasnorm_wordpool_576.txt	LTP365	ltpFR2	22	7	SUPPER	1411	n/a	n/a	0	0	0
1273341	WORD	wordpools/wasnorm_wordpool_576.txt	LTP365	ltpFR2	22	7	HOOD	714	n/a	n/a	0	0	0
1276091	WORD	wordpools/wasnorm_wordpool_576.txt	LTP365	ltpFR2	22	7	NECKLACE	940	n/a	n/a	0	0	0
1278856	WORD	wordpools/wasnorm_wordpool_576.txt	LTP365	ltpFR2	22	7	FIREMAN	569	n/a	n/a	0	0	0
1281321	WORD	wordpools/wasnorm_wordpool_576.txt	LTP365	ltpFR2	22	7	CORAL	378	n/a	n/a	0	0	0
1283787	WORD	wordpools/wasnorm_wordpool_576.txt	LTP365	ltpFR2	22	7	PISTON	1076	n/a	n/a	0	0	0
1286452	WORD	wordpools/wasnorm_wordpool_576.txt	LTP365	ltpFR2	22	7	FOOTBALL	591	n/a	n/a	0	0	0
1289250	WORD	wordpools/wasnorm_wordpool_576.txt	LTP365	ltpFR2	22	7	VALVE	1546	n/a	n/a	0	0	0
1291750	WORD	wordpools/wasnorm_wordpool_576.txt	LTP365	ltpFR2	22	7	MILK	895	n/a	n/a	0	0	0
1294381	WORD	wordpools/wasnorm_wordpool_576.txt	LTP365	ltpFR2	22	7	BLADE	134	n/a	n/a	0	0	0
1297097	WORD	wordpools/wasnorm_wordpool_576.txt	LTP365	ltpFR2	22	7	SCALPEL	1243	n/a	n/a	0	0	0
1299847	WORD	wordpools/wasnorm_wordpool_576.txt	LTP365	ltpFR2	22	7	EAGLE	512	n/a	n/a	0	0	0
1302278	WORD	wordpools/wasnorm_wordpool_576.txt	LTP365	ltpFR2	22	7	BUG	187	n/a	n/a	0	0	0
1305011	WORD	wordpools/wasnorm_wordpool_576.txt	LTP365	ltpFR2	22	7	BABY	64	n/a	n/a	0	0	0
1307476	WORD	wordpools/wasnorm_wordpool_576.txt	LTP365	ltpFR2	22	7	SWIMMER	1420	n/a	n/a	0	0	0
1310075	WORD	wordpools/wasnorm_wordpool_576.txt	LTP365	ltpFR2	22	7	FIDDLE	561	n/a	n/a	0	0	0
1312641	WORD	wordpools/wasnorm_wordpool_576.txt	LTP365	ltpFR2	22	7	CONCERT	360	n/a	n/a	0	0	0
1314256	START	n/a	LTP365	ltpFR2	22	n/a	n/a	n/a	12	n/a	n/a	n/a	n/a
1315128	DISTRACTOR	n/a	LTP365	ltpFR2	22	7	n/a	n/a	n/a	n/a	0	0	0
1315139	PROB	n/a	LTP365	ltpFR2	22	n/a	n/a	n/a	12	17	9	6	2
1316889	PROB	n/a	LTP365	ltpFR2	22	n/a	n/a	n/a	12	21	9	4	9
1318304	PROB	n/a	LTP365	ltpFR2	22	n/a	n/a	n/a	12	23	8	9	6
1321070	PROB	n/a	LTP365	ltpFR2	22	n/a	n/a	n/a	12	24	9	7	8
1322986	PROB	n/a	LTP365	ltpFR2	22	n/a	n/a	n/a	12	19	9	9	1
1325002	PROB	n/a	LTP365	ltpFR2	22	n/a	n/a	n/a	12	13	4	2	7
1328316	PROB	n/a	LTP365	ltpFR2	22	n/a	n/a	n/a	12	20	3	8	9
1329866	PROB	n/a	LTP365	ltpFR2	22	n/a	n/a	n/a	12	17	9	7	1
1332131	PROB	n/a	LTP365	ltpFR2	22	n/a	n/a	n/a	12	14	2	8	4
1333981	PROB	n/a	LTP365	ltpFR2	22	n/a	n/a	n/a	12	13	3	5	5
1335213	PROB	n/a	LTP365	ltpFR2	22	n/a	n/a	n/a	12	19	7	9	3
1336971	STOP	n/a	LTP365	ltpFR2	22	n/a	n/a	n/a	12	n/a	n/a	n/a	n/a
1340012	REC_START	n/a	LTP365	ltpFR2	22	7	n/a	n/a	n/a	n/a	0	0	0
1340023	REC_WORD	wordpools/wasnorm_wordpool_576.txt	LTP365	ltpFR2	22	7	CRICKET	408	n/a	n/a	0	0	0
1342042	REC_WORD	wordpools/wasnorm_wordpool_576.txt	LTP365	ltpFR2	22	7	BABY	64	n/a	n/a	0	0	0
1342569	REC_WORD	wordpools/wasnorm_wordpool_576.txt	LTP365	ltpFR2	22	7	SCALPEL	1243	n/a	n/a	0	0	0
1343610	REC_WORD	wordpools/wasnorm_wordpool_576.txt	LTP365	ltpFR2	22	7	CRICKET	408	n/a	n/a	0	0	0
1344761	REC_WORD	wordpools/wasnorm_wordpool_576.txt	LTP365	ltpFR2	22	7	BUG	187	n/a	n/a	0	0	0
1345951	REC_WORD	wordpools/wasnorm_wordpool_576.txt	LTP365	ltpFR2	22	7	DIME	466	n/a	n/a	0	0	0
1346809	REC_WORD	wordpools/wasnorm_wordpool_576.txt	LTP365	ltpFR2	22	7	LASER	801	n/a	n/a	0	0	0
1347682	REC_WORD	wordpools/wasnorm_wordpool_576.txt	LTP365	ltpFR2	22	7	MARINE	869	n/a	n/a	0	0	0
1349534	REC_WORD	wordpools/wasnorm_wordpool_576.txt	LTP365	ltpFR2	22	7	FIDDLE	561	n/a	n/a	0	0	0
1350425	REC_WORD	wordpools/wasnorm_wordpool_576.txt	LTP365	ltpFR2	22	7	CONCERT	360	n/a	n/a	0	0	0
1351425	REC_WORD_VV	wordpools/wasnorm_wordpool_576.txt	LTP365	ltpFR2	22	7	<>	-1	n/a	n/a	0	0	0
1357632	REC_WORD	wordpools/wasnorm_wordpool_576.txt	LTP365	ltpFR2	22	7	FIREMAN	569	n/a	n/a	0	0	0
1359221	REC_WORD	wordpools/wasnorm_wordpool_576.txt	LTP365	ltpFR2	22	7	MILK	895	n/a	n/a	0	0	0
1366767	REC_WORD	wordpools/wasnorm_wordpool_576.txt	LTP365	ltpFR2	22	7	SWIMMER	1420	n/a	n/a	0	0	0
1430471	WORD	wordpools/wasnorm_wordpool_576.txt	LTP365	ltpFR2	22	8	LEOPARD	812	n/a	n/a	0	0	0
1433152	WORD	wordpools/wasnorm_wordpool_576.txt	LTP365	ltpFR2	22	8	BISON	131	n/a	n/a	0	0	0
1435952	WORD	wordpools/wasnorm_wordpool_576.txt	LTP365	ltpFR2	22	8	MEAT	883	n/a	n/a	0	0	0
1438484	WORD	wordpools/wasnorm_wordpool_576.txt	LTP365	ltpFR2	22	8	PRINCE	1124	n/a	n/a	0	0	0
1441182	WORD	wordpools/wasnorm_wordpool_576.txt	LTP365	ltpFR2	22	8	VIKING	1565	n/a	n/a	0	0	0
1443782	WORD	wordpools/wasnorm_wordpool_576.txt	LTP365	ltpFR2	22	8	BLACKBOARD	133	n/a	n/a	0	0	0
1446213	WORD	wordpools/wasnorm_wordpool_576.txt	LTP365	ltpFR2	22	8	FRUIT	610	n/a	n/a	0	0	0
1448846	WORD	wordpools/wasnorm_wordpool_576.txt	LTP365	ltpFR2	22	8	HORSE	719	n/a	n/a	0	0	0
1451595	WORD	wordpools/wasnorm_wordpool_576.txt	LTP365	ltpFR2	22	8	DONKEY	484	n/a	n/a	0	0	0
1454359	WORD	wordpools/wasnorm_wordpool_576.txt	LTP365	ltpFR2	22	8	VAGRANT	1544	n/a	n/a	0	0	0
1456876	WORD	wordpools/wasnorm_wordpool_576.txt	LTP365	ltpFR2	22	8	ASIA	46	n/a	n/a	0	0	0
1459574	WORD	wordpools/wasnorm_wordpool_576.txt	LTP365	ltpFR2	22	8	LIPSTICK	829	n/a	n/a	0	0	0
1462322	WORD	wordpools/wasnorm_wordpool_576.txt	LTP365	ltpFR2	22	8	POSSUM	1112	n/a	n/a	0	0	0
1465072	WORD	wordpools/wasnorm_wordpool_576.txt	LTP365	ltpFR2	22	8	SADDLE	1221	n/a	n/a	0	0	0
1467754	WORD	wordpools/wasnorm_wordpool_576.txt	LTP365	ltpFR2	22	8	EUROPE	541	n/a	n/a	0	0	0
1470319	WORD	wordpools/wasnorm_wordpool_576.txt	LTP365	ltpFR2	22	8	ANTLER	29	n/a	n/a	0	0	0
1472968	WORD	wordpools/wasnorm_wordpool_576.txt	LTP365	ltpFR2	22	8	SCULPTURE	1258	n/a	n/a	0	0	0
1475567	WORD	wordpools/wasnorm_wordpool_576.txt	LTP365	ltpFR2	22	8	HOSTESS	723	n/a	n/a	0	0	0
1478033	WORD	wordpools/wasnorm_wordpool_576.txt	LTP365	ltpFR2	22	8	COMET	353	n/a	n/a	0	0	0
1480698	WORD	wordpools/wasnorm_wordpool_576.txt	LTP365	ltpFR2	22	8	CAMEL	223	n/a	n/a	0	0	0
1483379	WORD	wordpools/wasnorm_wordpool_576.txt	LTP365	ltpFR2	22	8	PROTON	1132	n/a	n/a	0	0	0
1486013	WORD	wordpools/wasnorm_wordpool_576.txt	LTP365	ltpFR2	22	8	ATOM	55	n/a	n/a	0	0	0
1488478	WORD	wordpools/wasnorm_wordpool_576.txt	LTP365	ltpFR2	22	8	GAZELLE	628	n/a	n/a	0	0	0
1491143	WORD	wordpools/wasnorm_wordpool_576.txt	LTP365	ltpFR2	22	8	SOFTBALL	1343	n/a	n/a	0	0	0
1492760	START	n/a	LTP365	ltpFR2	22	n/a	n/a	n/a	13	n/a	n/a	n/a	n/a
1493898	DISTRACTOR	n/a	LTP365	ltpFR2	22	8	n/a	n/a	n/a	n/a	0	0	0
1493909	PROB	n/a	LTP365	ltpFR2	22	n/a	n/a	n/a	13	12	4	3	5
1496658	PROB	n/a	LTP365	ltpFR2	22	n/a	n/a	n/a	13	10	4	8	8
1498206	PROB	n/a	LTP365	ltpFR2	22	n/a	n/a	n/a	13	16	5	2	9
1500723	PROB	n/a	LTP365	ltpFR2	22	n/a	n/a	n/a	13	8	1	4	3
1502688	PROB	n/a	LTP365	ltpFR2	22	n/a	n/a	n/a	13	15	8	5	2
1504103	PROB	n/a	LTP365	ltpFR2	22	n/a	n/a	n/a	13	14	5	7	2
1505787	PROB	n/a	LTP365	ltpFR2	22	n/a	n/a	n/a	13	13	1	9	3
1506936	PROB	n/a	LTP365	ltpFR2	22	n/a	n/a	n/a	13	20	3	9	8
1508636	PROB	n/a	LTP365	ltpFR2	22	n/a	n/a	n/a	13	19	9	8	2
1510284	PROB	n/a	LTP365	ltpFR2	22	n/a	n/a	n/a	13	18	9	7	2
1512116	PROB	n/a	LTP365	ltpFR2	22	n/a	n/a	n/a	13	11	8	2	1
1513349	PROB	n/a	LTP365	ltpFR2	22	n/a	n/a	n/a	13	12	2	3	7
1514466	PROB	n/a	LTP365	ltpFR2	22	n/a	n/a	n/a	13	13	3	6	4
1515705	STOP	n/a	LTP365	ltpFR2	22	n/a	n/a	n/a	13	n/a	n/a	n/a	n/a
1518548	REC_START	n/a	LTP365	ltpFR2	22	8	n/a	n/a	n/a	n/a	0	0	0
1519837	REC_WORD	wordpools/wasnorm_wordpool_576.txt	LTP365	ltpFR2	22	8	SOFTBALL	1343	n/a	n/a	0	0	0
1520837	REC_WORD_VV	wordpools/wasnorm_wordpool_576.txt	LTP365	ltpFR2	22	8	<>	-1	n/a	n/a	0	0	0
1521248	REC_WORD	wordpools/wasnorm_wordpool_576.txt	LTP365	ltpFR2	22	8	LEOPARD	812	n/a	n/a	0	0	0
1522562	REC_WORD	wordpools/wasnorm_wordpool_576.txt	LTP365	ltpFR2	22	8	BISON	131	n/a	n/a	0	0	0
1523524	REC_WORD	wordpools/wasnorm_wordpool_576.txt	LTP365	ltpFR2	22	8	MEAT	883	n/a	n/a	0	0	0
1526212	REC_WORD	wordpools/wasnorm_wordpool_576.txt	LTP365	ltpFR2	22	8	GAZELLE	628	n/a	n/a	0	0	0
1528361	REC_WORD	wordpools/wasnorm_wordpool_576.txt	LTP365	ltpFR2	22	8	HORSE	719	n/a	n/a	0	0	0
1530122	REC_WORD	wordpools/wasnorm_wordpool_576.txt	LTP365	ltpFR2	22	8	DONKEY	484	n/a	n/a	0	0	0
1531461	REC_WORD	wordpools/wasnorm_wordpool_576.txt	LTP365	ltpFR2	22	8	CAMEL	223	n/a	n/a	0	0	0
1532838	REC_WORD	wordpools/wasnorm_wordpool_576.txt	LTP365	ltpFR2	22	8	STATUE	1374	n/a	n/a	0	0	0
1533838	REC_WORD_VV	wordpools/wasnorm_wordpool_576.txt	LTP365	ltpFR2	22	8	<>	-1	n/a	n/a	0	0	0
1534737	REC_WORD	wordpools/wasnorm_wordpool_576.txt	LTP365	ltpFR2	22	8	VAGRANT	1544	n/a	n/a	0	0	0
1536889	REC_WORD	wordpools/wasnorm_wordpool_576.txt	LTP365	ltpFR2	22	8	POSSUM	1112	n/a	n/a	0	0	0
1539988	REC_WORD	wordpools/wasnorm_wordpool_576.txt	LTP365	ltpFR2	22	8	ASIA	46	n/a	n/a	0	0	0
1542727	REC_WORD	wordpools/wasnorm_wordpool_576.txt	LTP365	ltpFR2	22	8	VIKING	1565	n/a	n/a	0	0	0
1595080	REST_REWET	n/a	LTP365	ltpFR2	22	8	n/a	n/a	n/a	n/a	0	0	0
1690369	DISTRACTOR	n/a	LTP365	ltpFR2	22	9	n/a	n/a	n/a	n/a	0	0	0
1690369	START	n/a	LTP365	ltpFR2	22	n/a	n/a	n/a	14	n/a	n/a	n/a	n/a
1690386	PROB	n/a	LTP365	ltpFR2	22	n/a	n/a	n/a	14	16	9	5	2
1691870	PROB	n/a	LTP365	ltpFR2	22	n/a	n/a	n/a	14	13	8	1	4
1693802	PROB	n/a	LTP365	ltpFR2	22	n/a	n/a	n/a	14	21	7	6	8
1696717	PROB	n/a	LTP365	ltpFR2	22	n/a	n/a	n/a	14	10	1	7	2
1698132	PROB	n/a	LTP365	ltpFR2	22	n/a	n/a	n/a	14	12	4	4	4
1699916	PROB	n/a	LTP365	ltpFR2	22	n/a	n/a	n/a	14	16	9	6	1
1701331	PROB	n/a	LTP365	ltpFR2	22	n/a	n/a	n/a	14	11	3	3	5
1702665	PROB	n/a	LTP365	ltpFR2	22	n/a	n/a	n/a	14	12	1	7	4
1704113	PROB	n/a	LTP365	ltpFR2	22	n/a	n/a	n/a	14	16	2	5	9
1705863	PROB	n/a	LTP365	ltpFR2	22	n/a	n/a	n/a	14	19	2	9	8
1708228	PROB	n/a	LTP365	ltpFR2	22	n/a	n/a	n/a	14	12	5	1	6
1709728	PROB	n/a	LTP365	ltpFR2	22	n/a	n/a	n/a	14	7	1	5	1
1711376	PROB	n/a	LTP365	ltpFR2	22	n/a	n/a	n/a	14	24	8	7	9
1713879	STOP	n/a	LTP365	ltpFR2	22	n/a	n/a	n/a	14	n/a	n/a	n/a	n/a
1715492	WORD	wordpools/wasnorm_wordpool_576.txt	LTP365	ltpFR2	22	9	CATTLE	261	n/a	n/a	0	0	0
1718091	WORD	wordpools/wasnorm_wordpool_576.txt	LTP365	ltpFR2	22	9	TABLE	1426	n/a	n/a	0	0	0
1720673	WORD	wordpools/wasnorm_wordpool_576.txt	LTP365	ltpFR2	22	9	CANDY	230	n/a	n/a	0	0	0
1723421	WORD	wordpools/wasnorm_wordpool_576.txt	LTP365	ltpFR2	22	9	CROSS	413	n/a	n/a	0	0	0
1725871	WORD	wordpools/wasnorm_wordpool_576.txt	LTP365	ltpFR2	22	9	WRIST	1626	n/a	n/a	0	0	0
1728686	WORD	wordpools/wasnorm_wordpool_576.txt	LTP365	ltpFR2	22	9	PORTRAIT	1111	n/a	n/a	0	0	0
1731284	WORD	wordpools/wasnorm_wordpool_576.txt	LTP365	ltpFR2	22	9	LADDER	793	n/a	n/a	0	0	0
1733834	WORD	wordpools/wasnorm_wordpool_576.txt	LTP365	ltpFR2	22	9	HAND	683	n/a	n/a	0	0	0
1736415	WORD	wordpools/wasnorm_wordpool_576.txt	LTP365	ltpFR2	22	9	FINGER	567	n/a	n/a	0	0	0
1739214	WORD	wordpools/wasnorm_wordpool_576.txt	LTP365	ltpFR2	22	9	PECAN	1036	n/a	n/a	0	0	0
1741780	WORD	wordpools/wasnorm_wordpool_576.txt	LTP365	ltpFR2	22	9	HONEY	713	n/a	n/a	0	0	0
1744496	WORD	wordpools/wasnorm_wordpool_576.txt	LTP365	ltpFR2	22	9	RATTLE	1170	n/a	n/a	0	0	0
1747227	WORD	wordpools/wasnorm_wordpool_576.txt	LTP365	ltpFR2	22	9	CUSTARD	429	n/a	n/a	0	0	0
1749827	WORD	wordpools/wasnorm_wordpool_576.txt	LTP365	ltpFR2	22	9	LUGGAGE	847	n/a	n/a	0	0	0
1752341	WORD	wordpools/wasnorm_wordpool_576.txt	LTP365	ltpFR2	22	9	WARDROBE	1587	n/a	n/a	0	0	0
1755123	WORD	wordpools/wasnorm_wordpool_576.txt	LTP365	ltpFR2	22	9	SCARF	1246	n/a	n/a	0	0	0
1757757	WORD	wordpools/wasnorm_wordpool_576.txt	LTP365	ltpFR2	22	9	POWDER	1117	n/a	n/a	0	0	0
1760438	WORD	wordpools/wasnorm_wordpool_576.txt	LTP365	ltpFR2	22	9	FILM	565	n/a	n/a	0	0	0
1762971	WORD	wordpools/wasnorm_wordpool_576.txt	LTP365	ltpFR2	22	9	BEEF	113	n/a	n/a	0	0	0
1765553	WORD	wordpools/wasnorm_wordpool_576.txt	LTP365	ltpFR2	22	9	ELBOW	520	n/a	n/a	0	0	0
1768018	WORD	wordpools/wasnorm_wordpool_576.txt	LTP365	ltpFR2	22	9	FUNGUS	614	n/a	n/a	0	0	0
1770450	WORD	wordpools/wasnorm_wordpool_576.txt	LTP365	ltpFR2	22	9	CABBAGE	210	n/a	n/a	0	0	0
1773050	WORD	wordpools/wasnorm_wordpool_576.txt	LTP365	ltpFR2	22	9	JUDGE	761	n/a	n/a	0	0	0
1775782	WORD	wordpools/wasnorm_wordpool_576.txt	LTP365	ltpFR2	22	9	SUMMIT	1405	n/a	n/a	0	0	0
1777397	START	n/a	LTP365	ltpFR2	22	n/a	n/a	n/a	15	n/a	n/a	n/a	n/a
1778589	DISTRACTOR	n/a	LTP365	ltpFR2	22	9	n/a	n/a	n/a	n/a	0	0	0
1778597	PROB	n/a	LTP365	ltpFR2	22	n/a	n/a	n/a	15	17	8	5	4
1781063	PROB	n/a	LTP365	ltpFR2	22	n/a	n/a	n/a	15	9	3	4	2
1782595	PROB	n/a	LTP365	ltpFR2	22	n/a	n/a	n/a	15	6	3	1	2
1784611	PROB	n/a	LTP365	ltpFR2	22	n/a	n/a	n/a	15	17	8	4	5
1786777	PROB	n/a	LTP365	ltpFR2	22	n/a	n/a	n/a	15	10	1	3	6
1788108	PROB	n/a	LTP365	ltpFR2	22	n/a	n/a	n/a	15	18	8	8	2
1789308	PROB	n/a	LTP365	ltpFR2	22	n/a	n/a	n/a	15	16	6	4	6
1790575	PROB	n/a	LTP365	ltpFR2	22	n/a	n/a	n/a	15	15	6	8	1
1792857	PROB	n/a	LTP365	ltpFR2	22	n/a	n/a	n/a	15	13	2	5	7
1796105	PROB	n/a	LTP365	ltpFR2	22	n/a	n/a	n/a	15	13	3	7	3
1797388	PROB	n/a	LTP365	ltpFR2	22	n/a	n/a	n/a	15	9	3	3	3
1799005	PROB	n/a	LTP365	ltpFR2	22	n/a	n/a	n/a	15	10	1	7	2
1800090	STOP	n/a	LTP365	ltpFR2	22	n/a	n/a	n/a	15	n/a	n/a	n/a	n/a
1803302	REC_START	n/a	LTP365	ltpFR2	22	9	n/a	n/a	n/a	n/a	0	0	0
1803916	REC_WORD	wordpools/wasnorm_wordpool_576.txt	LTP365	ltpFR2	22	9	FUNGUS	614	n/a	n/a	0	0	0
1804998	REC_WORD	wordpools/wasnorm_wordpool_576.txt	LTP365	ltpFR2	22	9	CABBAGE	210	n/a	n/a	0	0	0
1806833	REC_WORD	wordpools/wasnorm_wordpool_576.txt	LTP365	ltpFR2	22	9	JUDGE	761	n/a	n/a	0	0	0
1808734	REC_WORD	wordpools/wasnorm_wordpool_576.txt	LTP365	ltpFR2	22	9	SUMMIT	1405	n/a	n/a	0	0	0
1823688	REC_WORD	wordpools/wasnorm_wordpool_576.txt	LTP365	ltpFR2	22	9	CROSS	413	n/a	n/a	0	0	0
1824457	REC_WORD	wordpools/wasnorm_wordpool_576.txt	LTP365	ltpFR2	22	9	CATTLE	261	n/a	n/a	0	0	0
1825249	REC_WORD	wordpools/wasnorm_wordpool_576.txt	LTP365	ltpFR2	22	9	BEEF	113	n/a	n/a	0	0	0
1825858	REC_WORD	wordpools/wasnorm_wordpool_576.txt	LTP365	ltpFR2	22	9	CANDY	230	n/a	n/a	0	0	0
1826607	REC_WORD	wordpools/wasnorm_wordpool_576.txt	LTP365	ltpFR2	22	9	CUSTARD	429	n/a	n/a	0	0	0
1827319	REC_WORD	wordpools/wasnorm_wordpool_576.txt	LTP365	ltpFR2	22	9	HONEY	713	n/a	n/a	0	0	0
1828138	REC_WORD	wordpools/wasnorm_wordpool_576.txt	LTP365	ltpFR2	22	9	TABLE	1426	n/a	n/a	0	0	0
1829440	REC_WORD	wordpools/wasnorm_wordpool_576.txt	LTP365	ltpFR2	22	9	WRIST	1626	n/a	n/a	0	0	0
1830173	REC_WORD	wordpools/wasnorm_wordpool_576.txt	LTP365	ltpFR2	22	9	HAND	683	n/a	n/a	0	0	0
1831064	REC_WORD	wordpools/wasnorm_wordpool_576.txt	LTP365	ltpFR2	22	9	FINGER	567	n/a	n/a	0	0	0
1834092	REC_WORD	wordpools/wasnorm_wordpool_576.txt	LTP365	ltpFR2	22	9	LUGGAGE	847	n/a	n/a	0	0	0
1838756	REC_WORD	wordpools/wasnorm_wordpool_576.txt	LTP365	ltpFR2	22	9	SUITCASE	1403	n/a	n/a	0	0	0
1839756	REC_WORD_VV	wordpools/wasnorm_wordpool_576.txt	LTP365	ltpFR2	22	9	<>	-1	n/a	n/a	0	0	0
1842052	REC_WORD	wordpools/wasnorm_wordpool_576.txt	LTP365	ltpFR2	22	9	FILM	565	n/a	n/a	0	0	0
1845498	REC_WORD	wordpools/wasnorm_wordpool_576.txt	LTP365	ltpFR2	22	9	SCARF	1246	n/a	n/a	0	0	0
1851752	REC_WORD	wordpools/wasnorm_wordpool_576.txt	LTP365	ltpFR2	22	9	LADDER	793	n/a	n/a	0	0	0
1893728	DISTRACTOR	n/a	LTP365	ltpFR2	22	10	n/a	n/a	n/a	n/a	0	0	0
1893729	START	n/a	LTP365	ltpFR2	22	n/a	n/a	n/a	16	n/a	n/a	n/a	n/a
1893745	PROB	n/a	LTP365	ltpFR2	22	n/a	n/a	n/a	16	23	7	9	7
1895761	PROB	n/a	LTP365	ltpFR2	22	n/a	n/a	n/a	16	15	8	2	5
1897077	PROB	n/a	LTP365	ltpFR2	22	n/a	n/a	n/a	16	22	5	8	9
1900108	PROB	n/a	LTP365	ltpFR2	22	n/a	n/a	n/a	16	18	8	1	9
1901391	PROB	n/a	LTP365	ltpFR2	22	n/a	n/a	n/a	16	19	8	4	7
1903657	PROB	n/a	LTP365	ltpFR2	22	n/a	n/a	n/a	16	15	1	6	8
1905690	PROB	n/a	LTP365	ltpFR2	22	n/a	n/a	n/a	16	14	4	9	1
1906972	PROB	n/a	LTP365	ltpFR2	22	n/a	n/a	n/a	16	19	4	6	9
1908354	PROB	n/a	LTP365	ltpFR2	22	n/a	n/a	n/a	16	15	5	8	2
1910088	PROB	n/a	LTP365	ltpFR2	22	n/a	n/a	n/a	16	17	9	6	2
1912037	PROB	n/a	LTP365	ltpFR2	22	n/a	n/a	n/a	16	16	9	6	1
1913553	PROB	n/a	LTP365	ltpFR2	22	n/a	n/a	n/a	16	13	6	4	3
1914919	PROB	n/a	LTP365	ltpFR2	22	n/a	n/a	n/a	16	13	3	8	2
1917445	STOP	n/a	LTP365	ltpFR2	22	n/a	n/a	n/a	16	n/a	n/a	n/a	n/a
1918867	WORD	wordpools/wasnorm_wordpool_576.txt	LTP365	ltpFR2	22	10	STICKER	1382	n/a	n/a	0	0	0
1921616	WORD	wordpools/wasnorm_wordpool_576.txt	LTP365	ltpFR2	22	10	OUTDOORS	987	n/a	n/a	0	0	0
1924147	WORD	wordpools/wasnorm_wordpool_576.txt	LTP365	ltpFR2	22	10	FOREST	593	n/a	n/a	0	0	0
1926580	WORD	wordpools/wasnorm_wordpool_576.txt	LTP365	ltpFR2	22	10	CAPTIVE	240	n/a	n/a	0	0	0
1929161	WORD	wordpools/wasnorm_wordpool_576.txt	LTP365	ltpFR2	22	10	CONVICT	371	n/a	n/a	0	0	0
1931595	WORD	wordpools/wasnorm_wordpool_576.txt	LTP365	ltpFR2	22	10	COOKBOOK	373	n/a	n/a	0	0	0
1934126	WORD	wordpools/wasnorm_wordpool_576.txt	LTP365	ltpFR2	22	10	PADDLE	1000	n/a	n/a	0	0	0
1936792	WORD	wordpools/wasnorm_wordpool_576.txt	LTP365	ltpFR2	22	10	DOLPHIN	483	n/a	n/a	0	0	0
1939574	WORD	wordpools/wasnorm_wordpool_576.txt	LTP365	ltpFR2	22	10	SNAIL	1332	n/a	n/a	0	0	0
1942305	WORD	wordpools/wasnorm_wordpool_576.txt	LTP365	ltpFR2	22	10	DUSTPAN	509	n/a	n/a	0	0	0
1945005	WORD	wordpools/wasnorm_wordpool_576.txt	LTP365	ltpFR2	22	10	MEDAL	885	n/a	n/a	0	0	0
1947740	WORD	wordpools/wasnorm_wordpool_576.txt	LTP365	ltpFR2	22	10	TRACTOR	1493	n/a	n/a	0	0	0
1950519	WORD	wordpools/wasnorm_wordpool_576.txt	LTP365	ltpFR2	22	10	FARMER	553	n/a	n/a	0	0	0
1953167	WORD	wordpools/wasnorm_wordpool_576.txt	LTP365	ltpFR2	22	10	PRINCESS	1125	n/a	n/a	0	0	0
1955617	WORD	wordpools/wasnorm_wordpool_576.txt	LTP365	ltpFR2	22	10	CASHEW	253	n/a	n/a	0	0	0
1958232	WORD	wordpools/wasnorm_wordpool_576.txt	LTP365	ltpFR2	22	10	JUNGLE	764	n/a	n/a	0	0	0
1960748	WORD	wordpools/wasnorm_wordpool_576.txt	LTP365	ltpFR2	22	10	RUST	1219	n/a	n/a	0	0	0
1963497	WORD	wordpools/wasnorm_wordpool_576.txt	LTP365	ltpFR2	22	10	DORM	488	n/a	n/a	0	0	0
1965996	WORD	wordpools/wasnorm_wordpool_576.txt	LTP365	ltpFR2	22	10	PEANUT	1032	n/a	n/a	0	0	0
1968427	WORD	wordpools/wasnorm_wordpool_576.txt	LTP365	ltpFR2	22	10	FOOT	590	n/a	n/a	0	0	0
1971209	WORD	wordpools/wasnorm_wordpool_576.txt	LTP365	ltpFR2	22	10	COUCH	386	n/a	n/a	0	0	0
1973676	WORD	wordpools/wasnorm_wordpool_576.txt	LTP365	ltpFR2	22	10	PREACHER	1119	n/a	n/a	0	0	0
1976491	WORD	wordpools/wasnorm_wordpool_576.txt	LTP365	ltpFR2	22	10	WAITER	1580	n/a	n/a	0	0	0
1978990	WORD	wordpools/wasnorm_wordpool_576.txt	LTP365	ltpFR2	22	10	PLUTO	1092	n/a	n/a	0	0	0
1980606	START	n/a	LTP365	ltpFR2	22	n/a	n/a	n/a	17	n/a	n/a	n/a	n/a
1981685	DISTRACTOR	n/a	LTP365	ltpFR2	22	10	n/a	n/a	n/a	n/a	0	0	0
1981689	PROB	n/a	LTP365	ltpFR2	22	n/a	n/a	n/a	17	14	2	3	9
1983471	PROB	n/a	LTP365	ltpFR2	22	n/a	n/a	n/a	17	12	2	6	5
1985920	PROB	n/a	LTP365	ltpFR2	22	n/a	n/a	n/a	17	16	4	9	3
1988301	PROB	n/a	LTP365	ltpFR2	22	n/a	n/a	n/a	17	14	3	2	9
1990334	PROB	n/a	LTP365	ltpFR2	22	n/a	n/a	n/a	17	17	8	4	5
1992051	PROB	n/a	LTP365	ltpFR2	22	n/a	n/a	n/a	17	10	4	2	4
1994282	PROB	n/a	LTP365	ltpFR2	22	n/a	n/a	n/a	17	24	8	8	8
1995616	PROB	n/a	LTP365	ltpFR2	22	n/a	n/a	n/a	17	14	2	6	6
1997347	PROB	n/a	LTP365	ltpFR2	22	n/a	n/a	n/a	17	13	5	2	6
1999097	PROB	n/a	LTP365	ltpFR2	22	n/a	n/a	n/a	17	9	5	3	1
2000580	PROB	n/a	LTP365	ltpFR2	22	n/a	n/a	n/a	17	13	4	2	7
2003809	STOP	n/a	LTP365	ltpFR2	22	n/a	n/a	n/a	17	n/a	n/a	n/a	n/a
2006360	REC_START	n/a	LTP365	ltpFR2	22	10	n/a	n/a	n/a	n/a	0	0	0
2008423	REC_WORD	wordpools/wasnorm_wordpool_576.txt	LTP365	ltpFR2	22	10	FOOT	590	n/a	n/a	0	0	0
2009483	REC_WORD	wordpools/wasnorm_wordpool_576.txt	LTP365	ltpFR2	22	10	JUNGLE	764	n/a	n/a	0	0	0
2010391	REC_WORD	wordpools/wasnorm_wordpool_576.txt	LTP365	ltpFR2	22	10	OUTDOORS	987	n/a	n/a	0	0	0
2011391	REC_WORD_VV	wordpools/wasnorm_wordpool_576.txt	LTP365	ltpFR2	22	10	<>	-1	n/a	n/a	0	0	0
2017991	REC_WORD	wordpools/wasnorm_wordpool_576.txt	LTP365	ltpFR2	22	10	STICKER	1382	n/a	n/a	0	0	0
2018991	REC_WORD_VV	wordpools/wasnorm_wordpool_576.txt	LTP365	ltpFR2	22	10	<>	-1	n/a	n/a	0	0	0
2022448	REC_WORD	wordpools/wasnorm_wordpool_576.txt	LTP365	ltpFR2	22	10	PADDLE	1000	n/a	n/a	0	0	0
2025493	REC_WORD	wordpools/wasnorm_wordpool_576.txt	LTP365	ltpFR2	22	10	PREACHER	1119	n/a	n/a	0	0	0
2026591	REC_WORD	wordpools/wasnorm_wordpool_576.txt	LTP365	ltpFR2	22	10	PRINCESS	1125	n/a	n/a	0	0	0
2027591	REC_WORD_VV	wordpools/wasnorm_wordpool_576.txt	LTP365	ltpFR2	22	10	<>	-1	n/a	n/a	0	0	0
2034085	REC_WORD	wordpools/wasnorm_wordpool_576.txt	LTP365	ltpFR2	22	10	DORM	488	n/a	n/a	0	0	0
2039929	REC_WORD	wordpools/wasnorm_wordpool_576.txt	LTP365	ltpFR2	22	10	WAITER	1580	n/a	n/a	0	0	0
2052039	REC_WORD	wordpools/wasnorm_wordpool_576.txt	LTP365	ltpFR2	22	10	CONVICT	371	n/a	n/a	0	0	0
2053252	REC_WORD	wordpools/wasnorm_wordpool_576.txt	LTP365	ltpFR2	22	10	CAPTIVE	240	n/a	n/a	0	0	0
2096787	DISTRACTOR	n/a	LTP365	ltpFR2	22	11	n/a	n/a	n/a	n/a	0	0	0
2096787	START	n/a	LTP365	ltpFR2	22	n/a	n/a	n/a	18	n/a	n/a	n/a	n/a
2096803	PROB	n/a	LTP365	ltpFR2	22	n/a	n/a	n/a	18	16	5	7	4
2098636	PROB	n/a	LTP365	ltpFR2	22	n/a	n/a	n/a	18	10	2	4	4
2099919	PROB	n/a	LTP365	ltpFR2	22	n/a	n/a	n/a	18	13	2	2	9
2101484	PROB	n/a	LTP365	ltpFR2	22	n/a	n/a	n/a	18	9	5	1	3
2103534	PROB	n/a	LTP365	ltpFR2	22	n/a	n/a	n/a	18	20	7	8	5
2105199	PROB	n/a	LTP365	ltpFR2	22	n/a	n/a	n/a	18	24	7	8	9
2107114	PROB	n/a	LTP365	ltpFR2	22	n/a	n/a	n/a	18	11	7	2	2
2108364	PROB	n/a	LTP365	ltpFR2	22	n/a	n/a	n/a	18	15	2	7	6
2110196	PROB	n/a	LTP365	ltpFR2	22	n/a	n/a	n/a	18	14	6	5	3
2112979	PROB	n/a	LTP365	ltpFR2	22	n/a	n/a	n/a	18	20	7	7	6
2114462	PROB	n/a	LTP365	ltpFR2	22	n/a	n/a	n/a	18	16	6	4	6
2115645	PROB	n/a	LTP365	ltpFR2	22	n/a	n/a	n/a	18	20	5	6	9
2117443	PROB	n/a	LTP365	ltpFR2	22	n/a	n/a	n/a	18	9	3	3	3
2119010	PROB	n/a	LTP365	ltpFR2	22	n/a	n/a	n/a	18	11	9	1	1
2119972	STOP	n/a	LTP365	ltpFR2	22	n/a	n/a	n/a	18	n/a	n/a	n/a	n/a
2121875	WORD	wordpools/wasnorm_wordpool_576.txt	LTP365	ltpFR2	22	11	CHAUFFEUR	283	n/a	n/a	0	0	0
2124691	WORD	wordpools/wasnorm_wordpool_576.txt	LTP365	ltpFR2	22	11	DRIVER	499	n/a	n/a	0	0	0
2127355	WORD	wordpools/wasnorm_wordpool_576.txt	LTP365	ltpFR2	22	11	SILK	1307	n/a	n/a	0	0	0
2129938	WORD	wordpools/wasnorm_wordpool_576.txt	LTP365	ltpFR2	22	11	KITCHEN	778	n/a	n/a	0	0	0
2132587	WORD	wordpools/wasnorm_wordpool_576.txt	LTP365	ltpFR2	22	11	VIRUS	1572	n/a	n/a	0	0	0
2135168	WORD	wordpools/wasnorm_wordpool_576.txt	LTP365	ltpFR2	22	11	DASHBOARD	441	n/a	n/a	0	0	0
2137901	WORD	wordpools/wasnorm_wordpool_576.txt	LTP365	ltpFR2	22	11	MUFFIN	929	n/a	n/a	0	0	0
2140449	WORD	wordpools/wasnorm_wordpool_576.txt	LTP365	ltpFR2	22	11	SPACE	1345	n/a	n/a	0	0	0
2142949	WORD	wordpools/wasnorm_wordpool_576.txt	LTP365	ltpFR2	22	11	SNACK	1331	n/a	n/a	0	0	0
2145648	WORD	wordpools/wasnorm_wordpool_576.txt	LTP365	ltpFR2	22	11	CHEST	295	n/a	n/a	0	0	0
2148329	WORD	wordpools/wasnorm_wordpool_576.txt	LTP365	ltpFR2	22	11	PASTA	1021	n/a	n/a	0	0	0
2150762	WORD	wordpools/wasnorm_wordpool_576.txt	LTP365	ltpFR2	22	11	MAMMAL	861	n/a	n/a	0	0	0
2153377	WORD	wordpools/wasnorm_wordpool_576.txt	LTP365	ltpFR2	22	11	CHIPMUNK	304	n/a	n/a	0	0	0
2155810	WORD	wordpools/wasnorm_wordpool_576.txt	LTP365	ltpFR2	22	11	TOASTER	1472	n/a	n/a	0	0	0
2158391	WORD	wordpools/wasnorm_wordpool_576.txt	LTP365	ltpFR2	22	11	MARS	873	n/a	n/a	0	0	0
2160908	WORD	wordpools/wasnorm_wordpool_576.txt	LTP365	ltpFR2	22	11	SNAKE	1333	n/a	n/a	0	0	0
2163623	WORD	wordpools/wasnorm_wordpool_576.txt	LTP365	ltpFR2	22	11	TRUCK	1512	n/a	n/a	0	0	0
2166221	WORD	wordpools/wasnorm_wordpool_576.txt	LTP365	ltpFR2	22	11	STAR	1373	n/a	n/a	0	0	0
2168921	WORD	wordpools/wasnorm_wordpool_576.txt	LTP365	ltpFR2	22	11	SPOUSE	1358	n/a	n/a	0	0	0
2171553	WORD	wordpools/wasnorm_wordpool_576.txt	LTP365	ltpFR2	22	11	VELVET	1555	n/a	n/a	0	0	0
2174134	WORD	wordpools/wasnorm_wordpool_576.txt	LTP365	ltpFR2	22	11	APPLE	33	n/a	n/a	0	0	0
2176867	WORD	wordpools/wasnorm_wordpool_576.txt	LTP365	ltpFR2	22	11	DRILL	497	n/a	n/a	0	0	0
2179566	WORD	wordpools/wasnorm_wordpool_576.txt	LTP365	ltpFR2	22	11	POISON	1096	n/a	n/a	0	0	0
2182230	WORD	wordpools/wasnorm_wordpool_576.txt	LTP365	ltpFR2	22	11	OINTMENT	974	n/a	n/a	0	0	0
2183848	START	n/a	LTP365	ltpFR2	22	n/a	n/a	n/a	19	n/a	n/a	n/a	n/a
2184694	DISTRACTOR	n/a	LTP365	ltpFR2	22	11	n/a	n/a	n/a	n/a	0	0	0
2184697	PROB	n/a	LTP365	ltpFR2	22	n/a	n/a	n/a	19	10	1	4	5
2186229	PROB	n/a	LTP365	ltpFR2	22	n/a	n/a	n/a	19	15	5	8	2
2187596	PROB	n/a	LTP365	ltpFR2	22	n/a	n/a	n/a	19	15	8	1	6
2188995	PROB	n/a	LTP365	ltpFR2	22	n/a	n/a	n/a	19	18	6	8	4
2190894	PROB	n/a	LTP365	ltpFR2	22	n/a	n/a	n/a	19	16	6	7	3
2192094	PROB	n/a	LTP365	ltpFR2	22	n/a	n/a	n/a	19	12	4	6	2
2193292	PROB	n/a	LTP365	ltpFR2	22	n/a	n/a	n/a	19	8	4	3	1
2194776	PROB	n/a	LTP365	ltpFR2	22	n/a	n/a	n/a	19	17	7	8	2
2197724	PROB	n/a	LTP365	ltpFR2	22	n/a	n/a	n/a	19	21	6	7	8
2199456	PROB	n/a	LTP365	ltpFR2	22	n/a	n/a	n/a	19	9	2	5	2
2200873	PROB	n/a	LTP365	ltpFR2	22	n/a	n/a	n/a	19	9	5	1	3
2202405	PROB	n/a	LTP365	ltpFR2	22	n/a	n/a	n/a	19	14	7	5	2
2204454	PROB	n/a	LTP365	ltpFR2	22	n/a	n/a	n/a	19	20	3	9	8
2207847	STOP	n/a	LTP365	ltpFR2	22	n/a	n/a	n/a	19	n/a	n/a	n/a	n/a
2209620	REC_START	n/a	LTP365	ltpFR2	22	11	n/a	n/a	n/a	n/a	0	0	0
2210751	REC_WORD	wordpools/wasnorm_wordpool_576.txt	LTP365	ltpFR2	22	11	POISON	1096	n/a	n/a	0	0	0
2211590	REC_WORD	wordpools/wasnorm_wordpool_576.txt	LTP365	ltpFR2	22	11	APPLE	33	n/a	n/a	0	0	0
2212246	REC_WORD	wordpools/wasnorm_wordpool_576.txt	LTP365	ltpFR2	22	11	VELVET	1555	n/a	n/a	0	0	0
2213076	REC_WORD	wordpools/wasnorm_wordpool_576.txt	LTP365	ltpFR2	22	11	SPOUSE	1358	n/a	n/a	0	0	0
2214076	REC_WORD_VV	wordpools/wasnorm_wordpool_576.txt	LTP365	ltpFR2	22	11	<>	-1	n/a	n/a	0	0	0
2214820	REC_WORD	wordpools/wasnorm_wordpool_576.txt	LTP365	ltpFR2	22	11	CHIPMUNK	304	n/a	n/a	0	0	0
2215862	REC_WORD	wordpools/wasnorm_wordpool_576.txt	LTP365	ltpFR2	22	11	MAMMAL	861	n/a	n/a	0	0	0
2221476	REC_WORD_VV	wordpools/wasnorm_wordpool_576.txt	LTP365	ltpFR2	22	11	<>	-1	n/a	n/a	0	0	0
2222699	REC_WORD	wordpools/wasnorm_wordpool_576.txt	LTP365	ltpFR2	22	11	SPACE	1345	n/a	n/a	0	0	0
2223624	REC_WORD	wordpools/wasnorm_wordpool_576.txt	LTP365	ltpFR2	22	11	MARS	873	n/a	n/a	0	0	0
2224573	REC_WORD	wordpools/wasnorm_wordpool_576.txt	LTP365	ltpFR2	22	11	SILK	1307	n/a	n/a	0	0	0
2226689	REC_WORD	wordpools/wasnorm_wordpool_576.txt	LTP365	ltpFR2	22	11	STAR	1373	n/a	n/a	0	0	0
2228009	REC_WORD	wordpools/wasnorm_wordpool_576.txt	LTP365	ltpFR2	22	11	TRUCK	1512	n/a	n/a	0	0	0
2229279	REC_WORD	wordpools/wasnorm_wordpool_576.txt	LTP365	ltpFR2	22	11	DASHBOARD	441	n/a	n/a	0	0	0
2257137	REC_WORD	wordpools/wasnorm_wordpool_576.txt	LTP365	ltpFR2	22	11	DRIVER	499	n/a	n/a	0	0	0
2257966	REC_WORD	wordpools/wasnorm_wordpool_576.txt	LTP365	ltpFR2	22	11	CHAUFFEUR	283	n/a	n/a	0	0	0
2300061	WORD	wordpools/wasnorm_wordpool_576.txt	LTP365	ltpFR2	22	12	MOTEL	919	n/a	n/a	0	0	0
2302877	WORD	wordpools/wasnorm_wordpool_576.txt	LTP365	ltpFR2	22	12	CLOTHES	327	n/a	n/a	0	0	0
2305592	WORD	wordpools/wasnorm_wordpool_576.txt	LTP365	ltpFR2	22	12	HIKER	708	n/a	n/a	0	0	0
2308257	WORD	wordpools/wasnorm_wordpool_576.txt	LTP365	ltpFR2	22	12	BATHTUB	100	n/a	n/a	0	0	0
2310957	WORD	wordpools/wasnorm_wordpool_576.txt	LTP365	ltpFR2	22	12	SHIRT	1287	n/a	n/a	0	0	0
2313539	WORD	wordpools/wasnorm_wordpool_576.txt	LTP365	ltpFR2	22	12	HAMPER	682	n/a	n/a	0	0	0
2316303	WORD	wordpools/wasnorm_wordpool_576.txt	LTP365	ltpFR2	22	12	BINDER	127	n/a	n/a	0	0	0
2318736	WORD	wordpools/wasnorm_wordpool_576.txt	LTP365	ltpFR2	22	12	DANCER	437	n/a	n/a	0	0	0
2321451	WORD	wordpools/wasnorm_wordpool_576.txt	LTP365	ltpFR2	22	12	MESSAGE	888	n/a	n/a	0	0	0
2324034	WORD	wordpools/wasnorm_wordpool_576.txt	LTP365	ltpFR2	22	12	POSTAGE	1113	n/a	n/a	0	0	0
2326466	WORD	wordpools/wasnorm_wordpool_576.txt	LTP365	ltpFR2	22	12	NURSE	963	n/a	n/a	0	0	0
2329048	WORD	wordpools/wasnorm_wordpool_576.txt	LTP365	ltpFR2	22	12	FRANCE	601	n/a	n/a	0	0	0
2331514	WORD	wordpools/wasnorm_wordpool_576.txt	LTP365	ltpFR2	22	12	HELMET	702	n/a	n/a	0	0	0
2334145	WORD	wordpools/wasnorm_wordpool_576.txt	LTP365	ltpFR2	22	12	MOTOR	922	n/a	n/a	0	0	0
2336612	WORD	wordpools/wasnorm_wordpool_576.txt	LTP365	ltpFR2	22	12	STAPLE	1371	n/a	n/a	0	0	0
2339243	WORD	wordpools/wasnorm_wordpool_576.txt	LTP365	ltpFR2	22	12	SHOULDER	1294	n/a	n/a	0	0	0
2341726	WORD	wordpools/wasnorm_wordpool_576.txt	LTP365	ltpFR2	22	12	LEG	809	n/a	n/a	0	0	0
2344357	WORD	wordpools/wasnorm_wordpool_576.txt	LTP365	ltpFR2	22	12	PLAYGROUND	1087	n/a	n/a	0	0	0
2346990	WORD	wordpools/wasnorm_wordpool_576.txt	LTP365	ltpFR2	22	12	UNCLE	1536	n/a	n/a	0	0	0
2349639	WORD	wordpools/wasnorm_wordpool_576.txt	LTP365	ltpFR2	22	12	FRIAR	605	n/a	n/a	0	0	0
2352071	WORD	wordpools/wasnorm_wordpool_576.txt	LTP365	ltpFR2	22	12	JAPAN	749	n/a	n/a	0	0	0
2354520	WORD	wordpools/wasnorm_wordpool_576.txt	LTP365	ltpFR2	22	12	RUG	1215	n/a	n/a	0	0	0
2357135	WORD	wordpools/wasnorm_wordpool_576.txt	LTP365	ltpFR2	22	12	CANAL	226	n/a	n/a	0	0	0
2359801	WORD	wordpools/wasnorm_wordpool_576.txt	LTP365	ltpFR2	22	12	COUNTRY	388	n/a	n/a	0	0	0
2361416	START	n/a	LTP365	ltpFR2	22	n/a	n/a	n/a	20	n/a	n/a	n/a	n/a
2362272	DISTRACTOR	n/a	LTP365	ltpFR2	22	12	n/a	n/a	n/a	n/a	0	0	0
2362282	PROB	n/a	LTP365	ltpFR2	22	n/a	n/a	n/a	20	9	1	5	3
2363733	PROB	n/a	LTP365	ltpFR2	22	n/a	n/a	n/a	20	15	6	7	2
2367163	PROB	n/a	LTP365	ltpFR2	22	n/a	n/a	n/a	20	16	6	4	6
2369329	PROB	n/a	LTP365	ltpFR2	22	n/a	n/a	n/a	20	22	8	7	7
2371013	PROB	n/a	LTP365	ltpFR2	22	n/a	n/a	n/a	20	16	9	4	3
2373194	PROB	n/a	LTP365	ltpFR2	22	n/a	n/a	n/a	20	22	8	8	6
2374811	PROB	n/a	LTP365	ltpFR2	22	n/a	n/a	n/a	20	12	2	3	7
2378209	PROB	n/a	LTP365	ltpFR2	22	n/a	n/a	n/a	20	7	3	2	2
2380291	PROB	n/a	LTP365	ltpFR2	22	n/a	n/a	n/a	20	20	8	4	8
2381808	PROB	n/a	LTP365	ltpFR2	22	n/a	n/a	n/a	20	19	3	8	8
2384973	STOP	n/a	LTP365	ltpFR2	22	n/a	n/a	n/a	20	n/a	n/a	n/a	n/a
2387338	REC_START	n/a	LTP365	ltpFR2	22	12	n/a	n/a	n/a	n/a	0	0	0
2388987	REC_WORD	wordpools/wasnorm_wordpool_576.txt	LTP365	ltpFR2	22	12	COUNTRY	388	n/a	n/a	0	0	0
2389732	REC_WORD	wordpools/wasnorm_wordpool_576.txt	LTP365	ltpFR2	22	12	MOTEL	919	n/a	n/a	0	0	0
2390668	REC_WORD	wordpools/wasnorm_wordpool_576.txt	LTP365	ltpFR2	22	12	CLOTHES	327	n/a	n/a	0	0	0
2391626	REC_WORD	wordpools/wasnorm_wordpool_576.txt	LTP365	ltpFR2	22	12	BINDER	127	n/a	n/a	0	0	0
2392370	REC_WORD	wordpools/wasnorm_wordpool_576.txt	LTP365	ltpFR2	22	12	HAMPER	682	n/a	n/a	0	0	0
2397185	REC_WORD	wordpools/wasnorm_wordpool_576.txt	LTP365	ltpFR2	22	12	SHIRT	1287	n/a	n/a	0	0	0
2401800	REC_WORD	wordpools/wasnorm_wordpool_576.txt	LTP365	ltpFR2	22	12	HIKER	708	n/a	n/a	0	0	0
2403720	REC_WORD	wordpools/wasnorm_wordpool_576.txt	LTP365	ltpFR2	22	12	JAPAN	749	n/a	n/a	0	0	0
2405720	REC_WORD	wordpools/wasnorm_wordpool_576.txt	LTP365	ltpFR2	22	12	JAPAN	749	n/a	n/a	0	0	0
2411577	REC_WORD	wordpools/wasnorm_wordpool_576.txt	LTP365	ltpFR2	22	12	BATHTUB	100	n/a	n/a	0	0	0
2415013	REC_WORD	wordpools/wasnorm_wordpool_576.txt	LTP365	ltpFR2	22	12	MOTOR	922	n/a	n/a	0	0	0
2477748	DISTRACTOR	n/a	LTP365	ltpFR2	22	13	n/a	n/a	n/a	n/a	0	0	0
2477748	START	n/a	LTP365	ltpFR2	22	n/a	n/a	n/a	21	n/a	n/a	n/a	n/a
2477766	PROB	n/a	LTP365	ltpFR2	22	n/a	n/a	n/a	21	8	4	3	1
2479329	PROB	n/a	LTP365	ltpFR2	22	n/a	n/a	n/a	21	8	1	1	6
2480713	PROB	n/a	LTP365	ltpFR2	22	n/a	n/a	n/a	21	12	1	6	5
2482212	PROB	n/a	LTP365	ltpFR2	22	n/a	n/a	n/a	21	16	5	6	5
2484261	PROB	n/a	LTP365	ltpFR2	22	n/a	n/a	n/a	21	13	3	6	4
2485611	PROB	n/a	LTP365	ltpFR2	22	n/a	n/a	n/a	21	22	6	7	8
2487477	PROB	n/a	LTP365	ltpFR2	22	n/a	n/a	n/a	21	16	6	7	3
2489308	PROB	n/a	LTP365	ltpFR2	22	n/a	n/a	n/a	21	15	1	8	6
2491558	PROB	n/a	LTP365	ltpFR2	22	n/a	n/a	n/a	21	19	4	6	9
2493123	PROB	n/a	LTP365	ltpFR2	22	n/a	n/a	n/a	21	22	9	6	7
2494957	PROB	n/a	LTP365	ltpFR2	22	n/a	n/a	n/a	21	13	7	1	5
2496889	PROB	n/a	LTP365	ltpFR2	22	n/a	n/a	n/a	21	12	6	1	5
2498738	PROB	n/a	LTP365	ltpFR2	22	n/a	n/a	n/a	21	22	4	9	9
2500279	STOP	n/a	LTP365	ltpFR2	22	n/a	n/a	n/a	21	n/a	n/a	n/a	n/a
2502953	WORD	wordpools/wasnorm_wordpool_576.txt	LTP365	ltpFR2	22	13	BUREAU	199	n/a	n/a	0	0	0
2505652	WORD	wordpools/wasnorm_wordpool_576.txt	LTP365	ltpFR2	22	13	SUITCASE	1403	n/a	n/a	0	0	0
2508383	WORD	wordpools/wasnorm_wordpool_576.txt	LTP365	ltpFR2	22	13	PIANO	1057	n/a	n/a	0	0	0
2511165	WORD	wordpools/wasnorm_wordpool_576.txt	LTP365	ltpFR2	22	13	CLAM	315	n/a	n/a	0	0	0
2513682	WORD	wordpools/wasnorm_wordpool_576.txt	LTP365	ltpFR2	22	13	COSTUME	383	n/a	n/a	0	0	0
2516263	WORD	wordpools/wasnorm_wordpool_576.txt	LTP365	ltpFR2	22	13	HARP	689	n/a	n/a	0	0	0
2518979	WORD	wordpools/wasnorm_wordpool_576.txt	LTP365	ltpFR2	22	13	OUTFIT	988	n/a	n/a	0	0	0
2521495	WORD	wordpools/wasnorm_wordpool_576.txt	LTP365	ltpFR2	22	13	SEAFOOD	1260	n/a	n/a	0	0	0
2524143	WORD	wordpools/wasnorm_wordpool_576.txt	LTP365	ltpFR2	22	13	MOP	916	n/a	n/a	0	0	0
2526592	WORD	wordpools/wasnorm_wordpool_576.txt	LTP365	ltpFR2	22	13	HEART	697	n/a	n/a	0	0	0
2529058	WORD	wordpools/wasnorm_wordpool_576.txt	LTP365	ltpFR2	22	13	PLAZA	1088	n/a	n/a	0	0	0
2531674	WORD	wordpools/wasnorm_wordpool_576.txt	LTP365	ltpFR2	22	13	BANKER	84	n/a	n/a	0	0	0
2534155	WORD	wordpools/wasnorm_wordpool_576.txt	LTP365	ltpFR2	22	13	TABLET	1427	n/a	n/a	0	0	0
2536738	WORD	wordpools/wasnorm_wordpool_576.txt	LTP365	ltpFR2	22	13	PARENT	1013	n/a	n/a	0	0	0
2539169	WORD	wordpools/wasnorm_wordpool_576.txt	LTP365	ltpFR2	22	13	TWEEZERS	1526	n/a	n/a	0	0	0
2541686	WORD	wordpools/wasnorm_wordpool_576.txt	LTP365	ltpFR2	22	13	PLIERS	1089	n/a	n/a	0	0	0
2544200	WORD	wordpools/wasnorm_wordpool_576.txt	LTP365	ltpFR2	22	13	PICTURE	1061	n/a	n/a	0	0	0
2546650	WORD	wordpools/wasnorm_wordpool_576.txt	LTP365	ltpFR2	22	13	SPOOL	1356	n/a	n/a	0	0	0
2549165	WORD	wordpools/wasnorm_wordpool_576.txt	LTP365	ltpFR2	22	13	LAMP	798	n/a	n/a	0	0	0
2551898	WORD	wordpools/wasnorm_wordpool_576.txt	LTP365	ltpFR2	22	13	DIVER	476	n/a	n/a	0	0	0
2554497	WORD	wordpools/wasnorm_wordpool_576.txt	LTP365	ltpFR2	22	13	RIVER	1194	n/a	n/a	0	0	0
2557062	WORD	wordpools/wasnorm_wordpool_576.txt	LTP365	ltpFR2	22	13	WRENCH	1625	n/a	n/a	0	0	0
2559511	WORD	wordpools/wasnorm_wordpool_576.txt	LTP365	ltpFR2	22	13	ITEM	746	n/a	n/a	0	0	0
2562192	WORD	wordpools/wasnorm_wordpool_576.txt	LTP365	ltpFR2	22	13	DRESS	495	n/a	n/a	0	0	0
2563809	START	n/a	LTP365	ltpFR2	22	n/a	n/a	n/a	22	n/a	n/a	n/a	n/a
2564621	DISTRACTOR	n/a	LTP365	ltpFR2	22	13	n/a	n/a	n/a	n/a	0	0	0
2564625	PROB	n/a	LTP365	ltpFR2	22	n/a	n/a	n/a	22	26	9	8	9
2567356	PROB	n/a	LTP365	ltpFR2	22	n/a	n/a	n/a	22	19	9	9	1
2568723	PROB	n/a	LTP365	ltpFR2	22	n/a	n/a	n/a	22	12	3	3	6
2570773	PROB	n/a	LTP365	ltpFR2	22	n/a	n/a	n/a	22	9	1	2	6
2572121	PROB	n/a	LTP365	ltpFR2	22	n/a	n/a	n/a	22	13	1	5	7
2573721	PROB	n/a	LTP365	ltpFR2	22	n/a	n/a	n/a	22	12	4	1	7
2575787	PROB	n/a	LTP365	ltpFR2	22	n/a	n/a	n/a	22	25	9	9	7
2578135	PROB	n/a	LTP365	ltpFR2	22	n/a	n/a	n/a	22	10	5	4	1
2579785	PROB	n/a	LTP365	ltpFR2	22	n/a	n/a	n/a	22	12	4	7	1
2581300	PROB	n/a	LTP365	ltpFR2	22	n/a	n/a	n/a	22	17	7	6	4
2582667	PROB	n/a	LTP365	ltpFR2	22	n/a	n/a	n/a	22	14	4	1	9
2584149	PROB	n/a	LTP365	ltpFR2	22	n/a	n/a	n/a	22	7	3	3	1
2585982	PROB	n/a	LTP365	ltpFR2	22	n/a	n/a	n/a	22	9	4	1	4
2587386	STOP	n/a	LTP365	ltpFR2	22	n/a	n/a	n/a	22	n/a	n/a	n/a	n/a
2589714	REC_START	n/a	LTP365	ltpFR2	22	13	n/a	n/a	n/a	n/a	0	0	0
2589985	REC_WORD	wordpools/wasnorm_wordpool_576.txt	LTP365	ltpFR2	22	13	ITEM	746	n/a	n/a	0	0	0
2590448	REC_WORD	wordpools/wasnorm_wordpool_576.txt	LTP365	ltpFR2	22	13	DRESS	495	n/a	n/a	0	0	0
2591014	REC_WORD	wordpools/wasnorm_wordpool_576.txt	LTP365	ltpFR2	22	13	OUTFIT	988	n/a	n/a	0	0	0
2591754	REC_WORD	wordpools/wasnorm_wordpool_576.txt	LTP365	ltpFR2	22	13	COSTUME	383	n/a	n/a	0	0	0
2592745	REC_WORD	wordpools/wasnorm_wordpool_576.txt	LTP365	ltpFR2	22	13	BUREAU	199	n/a	n/a	0	0	0
2593501	REC_WORD	wordpools/wasnorm_wordpool_576.txt	LTP365	ltpFR2	22	13	PIANO	1057	n/a	n/a	0	0	0
2594323	REC_WORD	wordpools/wasnorm_wordpool_576.txt	LTP365	ltpFR2	22	13	HARP	689	n/a	n/a	0	0	0
2595211	REC_WORD	wordpools/wasnorm_wordpool_576.txt	LTP365	ltpFR2	22	13	CLAM	315	n/a	n/a	0	0	0
2595945	REC_WORD	wordpools/wasnorm_wordpool_576.txt	LTP365	ltpFR2	22	13	SEAFOOD	1260	n/a	n/a	0	0	0
2598046	REC_WORD	wordpools/wasnorm_wordpool_576.txt	LTP365	ltpFR2	22	13	PLAZA	1088	n/a	n/a	0	0	0
2600861	REC_WORD	wordpools/wasnorm_wordpool_576.txt	LTP365	ltpFR2	22	13	PLIERS	1089	n/a	n/a	0	0	0
2601803	REC_WORD	wordpools/wasnorm_wordpool_576.txt	LTP365	ltpFR2	22	13	TWEEZERS	1526	n/a	n/a	0	0	0
2602762	REC_WORD	wordpools/wasnorm_wordpool_576.txt	LTP365	ltpFR2	22	13	TABLET	1427	n/a	n/a	0	0	0
2603790	REC_WORD	wordpools/wasnorm_wordpool_576.txt	LTP365	ltpFR2	22	13	BANKER	84	n/a	n/a	0	0	0
2605299	REC_WORD	wordpools/wasnorm_wordpool_576.txt	LTP365	ltpFR2	22	13	HEART	697	n/a	n/a	0	0	0
2607511	REC_WORD	wordpools/wasnorm_wordpool_576.txt	LTP365	ltpFR2	22	13	PARENT	1013	n/a	n/a	0	0	0
2680155	DISTRACTOR	n/a	LTP365	ltpFR2	22	14	n/a	n/a	n/a	n/a	0	0	0
2680156	START	n/a	LTP365	ltpFR2	22	n/a	n/a	n/a	23	n/a	n/a	n/a	n/a
2680172	PROB	n/a	LTP365	ltpFR2	22	n/a	n/a	n/a	23	18	7	5	6
2682188	PROB	n/a	LTP365	ltpFR2	22	n/a	n/a	n/a	23	19	4	9	6
2684821	PROB	n/a	LTP365	ltpFR2	22	n/a	n/a	n/a	23	13	3	4	6
2686537	PROB	n/a	LTP365	ltpFR2	22	n/a	n/a	n/a	23	10	3	4	3
2689185	PROB	n/a	LTP365	ltpFR2	22	n/a	n/a	n/a	23	16	2	7	7
2690835	PROB	n/a	LTP365	ltpFR2	22	n/a	n/a	n/a	23	15	7	4	4
2692233	PROB	n/a	LTP365	ltpFR2	22	n/a	n/a	n/a	23	8	1	5	2
2694000	PROB	n/a	LTP365	ltpFR2	22	n/a	n/a	n/a	23	24	8	8	6
2695916	PROB	n/a	LTP365	ltpFR2	22	n/a	n/a	n/a	23	10	3	2	5
2699548	PROB	n/a	LTP365	ltpFR2	22	n/a	n/a	n/a	23	18	5	8	5
2700997	PROB	n/a	LTP365	ltpFR2	22	n/a	n/a	n/a	23	19	2	8	9
2702429	PROB	n/a	LTP365	ltpFR2	22	n/a	n/a	n/a	23	17	5	5	7
2703783	STOP	n/a	LTP365	ltpFR2	22	n/a	n/a	n/a	23	n/a	n/a	n/a	n/a
2705344	WORD	wordpools/wasnorm_wordpool_576.txt	LTP365	ltpFR2	22	14	PAIL	1002	n/a	n/a	0	0	0
2708061	WORD	wordpools/wasnorm_wordpool_576.txt	LTP365	ltpFR2	22	14	GRAVEL	659	n/a	n/a	0	0	0
2710743	WORD	wordpools/wasnorm_wordpool_576.txt	LTP365	ltpFR2	22	14	SHOVEL	1295	n/a	n/a	0	0	0
2713390	WORD	wordpools/wasnorm_wordpool_576.txt	LTP365	ltpFR2	22	14	CARRIAGE	248	n/a	n/a	0	0	0
2716073	WORD	wordpools/wasnorm_wordpool_576.txt	LTP365	ltpFR2	22	14	BARLEY	88	n/a	n/a	0	0	0
2718856	WORD	wordpools/wasnorm_wordpool_576.txt	LTP365	ltpFR2	22	14	SKETCH	1315	n/a	n/a	0	0	0
2721303	WORD	wordpools/wasnorm_wordpool_576.txt	LTP365	ltpFR2	22	14	PIGEON	1065	n/a	n/a	0	0	0
2723787	WORD	wordpools/wasnorm_wordpool_576.txt	LTP365	ltpFR2	22	14	WAGON	1578	n/a	n/a	0	0	0
2726502	WORD	wordpools/wasnorm_wordpool_576.txt	LTP365	ltpFR2	22	14	MARKER	870	n/a	n/a	0	0	0
2728951	WORD	wordpools/wasnorm_wordpool_576.txt	LTP365	ltpFR2	22	14	WINDOW	1611	n/a	n/a	0	0	0
2731382	WORD	wordpools/wasnorm_wordpool_576.txt	LTP365	ltpFR2	22	14	MAPLE	866	n/a	n/a	0	0	0
2733899	WORD	wordpools/wasnorm_wordpool_576.txt	LTP365	ltpFR2	22	14	HORNET	718	n/a	n/a	0	0	0
2736531	WORD	wordpools/wasnorm_wordpool_576.txt	LTP365	ltpFR2	22	14	LUMBER	848	n/a	n/a	0	0	0
2739279	WORD	wordpools/wasnorm_wordpool_576.txt	LTP365	ltpFR2	22	14	CRAYON	401	n/a	n/a	0	0	0
2741928	WORD	wordpools/wasnorm_wordpool_576.txt	LTP365	ltpFR2	22	14	SIBLING	1301	n/a	n/a	0	0	0
2744426	WORD	wordpools/wasnorm_wordpool_576.txt	LTP365	ltpFR2	22	14	ICING	732	n/a	n/a	0	0	0
2747175	WORD	wordpools/wasnorm_wordpool_576.txt	LTP365	ltpFR2	22	14	OYSTER	995	n/a	n/a	0	0	0
2749992	WORD	wordpools/wasnorm_wordpool_576.txt	LTP365	ltpFR2	22	14	RAFT	1159	n/a	n/a	0	0	0
2752740	WORD	wordpools/wasnorm_wordpool_576.txt	LTP365	ltpFR2	22	14	SUNRISE	1407	n/a	n/a	0	0	0
2755539	WORD	wordpools/wasnorm_wordpool_576.txt	LTP365	ltpFR2	22	14	SUNSET	1408	n/a	n/a	0	0	0
2758204	WORD	wordpools/wasnorm_wordpool_576.txt	LTP365	ltpFR2	22	14	STUDENT	1395	n/a	n/a	0	0	0
2760787	WORD	wordpools/wasnorm_wordpool_576.txt	LTP365	ltpFR2	22	14	CLOCK	325	n/a	n/a	0	0	0
2763384	WORD	wordpools/wasnorm_wordpool_576.txt	LTP365	ltpFR2	22	14	STAKE	1368	n/a	n/a	0	0	0
2766018	WORD	wordpools/wasnorm_wordpool_576.txt	LTP365	ltpFR2	22	14	WASP	1593	n/a	n/a	0	0	0
2767634	START	n/a	LTP365	ltpFR2	22	n/a	n/a	n/a	24	n/a	n/a	n/a	n/a
2768739	DISTRACTOR	n/a	LTP365	ltpFR2	22	14	n/a	n/a	n/a	n/a	0	0	0
2768750	PROB	n/a	LTP365	ltpFR2	22	n/a	n/a	n/a	24	25	7	9	9
2772465	PROB	n/a	LTP365	ltpFR2	22	n/a	n/a	n/a	24	22	9	9	4
2775112	PROB	n/a	LTP365	ltpFR2	22	n/a	n/a	n/a	24	11	1	3	7
2776763	PROB	n/a	LTP365	ltpFR2	22	n/a	n/a	n/a	24	13	1	5	7
2778845	PROB	n/a	LTP365	ltpFR2	22	n/a	n/a	n/a	24	14	3	3	8
2780611	PROB	n/a	LTP365	ltpFR2	22	n/a	n/a	n/a	24	9	2	3	4
2784826	PROB	n/a	LTP365	ltpFR2	22	n/a	n/a	n/a	24	12	3	6	3
2786542	PROB	n/a	LTP365	ltpFR2	22	n/a	n/a	n/a	24	17	6	5	6
2791625	STOP	n/a	LTP365	ltpFR2	22	n/a	n/a	n/a	24	n/a	n/a	n/a	n/a
2793506	REC_START	n/a	LTP365	ltpFR2	22	14	n/a	n/a	n/a	n/a	0	0	0
2795373	REC_WORD	wordpools/wasnorm_wordpool_576.txt	LTP365	ltpFR2	22	14	CARRIAGE	248	n/a	n/a	0	0	0
2796228	REC_WORD	wordpools/wasnorm_wordpool_576.txt	LTP365	ltpFR2	22	14	WAGON	1578	n/a	n/a	0	0	0
2797375	REC_WORD	wordpools/wasnorm_wordpool_576.txt	LTP365	ltpFR2	22	14	MAPLE	866	n/a	n/a	0	0	0
2798456	REC_WORD	wordpools/wasnorm_wordpool_576.txt	LTP365	ltpFR2	22	14	ICING	732	n/a	n/a	0	0	0
2799604	REC_WORD	wordpools/wasnorm_wordpool_576.txt	LTP365	ltpFR2	22	14	SUNRISE	1407	n/a	n/a	0	0	0
2800503	REC_WORD	wordpools/wasnorm_wordpool_576.txt	LTP365	ltpFR2	22	14	SUNSET	1408	n/a	n/a	0	0	0
2801503	REC_WORD_VV	wordpools/wasnorm_wordpool_576.txt	LTP365	ltpFR2	22	14	<>	-1	n/a	n/a	0	0	0
2801758	REC_WORD	wordpools/wasnorm_wordpool_576.txt	LTP365	ltpFR2	22	14	SIBLING	1301	n/a	n/a	0	0	0
2802958	REC_WORD	wordpools/wasnorm_wordpool_576.txt	LTP365	ltpFR2	22	14	MARKER	870	n/a	n/a	0	0	0
2803829	REC_WORD	wordpools/wasnorm_wordpool_576.txt	LTP365	ltpFR2	22	14	CRAYON	401	n/a	n/a	0	0	0
2804703	REC_WORD	wordpools/wasnorm_wordpool_576.txt	LTP365	ltpFR2	22	14	SKETCH	1315	n/a	n/a	0	0	0
2805714	REC_WORD	wordpools/wasnorm_wordpool_576.txt	LTP365	ltpFR2	22	14	STUDENT	1395	n/a	n/a	0	0	0
2806714	REC_WORD_VV	wordpools/wasnorm_wordpool_576.txt	LTP365	ltpFR2	22	14	<>	-1	n/a	n/a	0	0	0
2808094	REC_WORD	wordpools/wasnorm_wordpool_576.txt	LTP365	ltpFR2	22	14	SHOVEL	1295	n/a	n/a	0	0	0
2809089	REC_WORD	wordpools/wasnorm_wordpool_576.txt	LTP365	ltpFR2	22	14	GRAVEL	659	n/a	n/a	0	0	0
2810003	REC_WORD	wordpools/wasnorm_wordpool_576.txt	LTP365	ltpFR2	22	14	LUMBER	848	n/a	n/a	0	0	0
2811150	REC_WORD	wordpools/wasnorm_wordpool_576.txt	LTP365	ltpFR2	22	14	HORNET	718	n/a	n/a	0	0	0
2812195	REC_WORD	wordpools/wasnorm_wordpool_576.txt	LTP365	ltpFR2	22	14	WASP	1593	n/a	n/a	0	0	0
2821158	REC_WORD	wordpools/wasnorm_wordpool_576.txt	LTP365	ltpFR2	22	14	WINDOW	1611	n/a	n/a	0	0	0
2854904	REC_WORD	wordpools/wasnorm_wordpool_576.txt	LTP365	ltpFR2	22	14	CLOCK	325	n/a	n/a	0	0	0
2883931	DISTRACTOR	n/a	LTP365	ltpFR2	22	15	n/a	n/a	n/a	n/a	0	0	0
2883931	START	n/a	LTP365	ltpFR2	22	n/a	n/a	n/a	25	n/a	n/a	n/a	n/a
2883948	PROB	n/a	LTP365	ltpFR2	22	n/a	n/a	n/a	25	12	2	5	5
2885764	PROB	n/a	LTP365	ltpFR2	22	n/a	n/a	n/a	25	19	6	4	9
2887080	PROB	n/a	LTP365	ltpFR2	22	n/a	n/a	n/a	25	17	7	2	8
2888411	PROB	n/a	LTP365	ltpFR2	22	n/a	n/a	n/a	25	24	6	9	9
2890344	PROB	n/a	LTP365	ltpFR2	22	n/a	n/a	n/a	25	18	6	4	8
2892044	PROB	n/a	LTP365	ltpFR2	22	n/a	n/a	n/a	25	12	4	2	6
2893610	PROB	n/a	LTP365	ltpFR2	22	n/a	n/a	n/a	25	8	3	2	3
2895076	PROB	n/a	LTP365	ltpFR2	22	n/a	n/a	n/a	25	14	9	2	3
2897058	PROB	n/a	LTP365	ltpFR2	22	n/a	n/a	n/a	25	7	3	3	1
2898591	PROB	n/a	LTP365	ltpFR2	22	n/a	n/a	n/a	25	12	2	6	8
2900773	PROB	n/a	LTP365	ltpFR2	22	n/a	n/a	n/a	25	16	2	5	9
2905838	PROB	n/a	LTP365	ltpFR2	22	n/a	n/a	n/a	25	8	1	2	5
2906981	STOP	n/a	LTP365	ltpFR2	22	n/a	n/a	n/a	25	n/a	n/a	n/a	n/a
2909003	WORD	wordpools/wasnorm_wordpool_576.txt	LTP365	ltpFR2	22	15	TRIBE	1505	n/a	n/a	0	0	0
2911585	WORD	wordpools/wasnorm_wordpool_576.txt	LTP365	ltpFR2	22	15	PERFUME	1049	n/a	n/a	0	0	0
2914133	WORD	wordpools/wasnorm_wordpool_576.txt	LTP365	ltpFR2	22	15	GARLIC	624	n/a	n/a	0	0	0
2916866	WORD	wordpools/wasnorm_wordpool_576.txt	LTP365	ltpFR2	22	15	ROBIN	1199	n/a	n/a	0	0	0
2919682	WORD	wordpools/wasnorm_wordpool_576.txt	LTP365	ltpFR2	22	15	QUEEN	1149	n/a	n/a	0	0	0
2922263	WORD	wordpools/wasnorm_wordpool_576.txt	LTP365	ltpFR2	22	15	THIEF	1456	n/a	n/a	0	0	0
2924779	WORD	wordpools/wasnorm_wordpool_576.txt	LTP365	ltpFR2	22	15	TYPIST	1532	n/a	n/a	0	0	0
2927227	WORD	wordpools/wasnorm_wordpool_576.txt	LTP365	ltpFR2	22	15	CATCHER	258	n/a	n/a	0	0	0
2930043	WORD	wordpools/wasnorm_wordpool_576.txt	LTP365	ltpFR2	22	15	STALLION	1369	n/a	n/a	0	0	0
2932476	WORD	wordpools/wasnorm_wordpool_576.txt	LTP365	ltpFR2	22	15	REPORT	1184	n/a	n/a	0	0	0
2935207	WORD	wordpools/wasnorm_wordpool_576.txt	LTP365	ltpFR2	22	15	COURSE	390	n/a	n/a	0	0	0
2937857	WORD	wordpools/wasnorm_wordpool_576.txt	LTP365	ltpFR2	22	15	CRAB	397	n/a	n/a	0	0	0
2940639	WORD	wordpools/wasnorm_wordpool_576.txt	LTP365	ltpFR2	22	15	EXPERT	543	n/a	n/a	0	0	0
2943403	WORD	wordpools/wasnorm_wordpool_576.txt	LTP365	ltpFR2	22	15	COMPASS	358	n/a	n/a	0	0	0
2946185	WORD	wordpools/wasnorm_wordpool_576.txt	LTP365	ltpFR2	22	15	TURTLE	1522	n/a	n/a	0	0	0
2948902	WORD	wordpools/wasnorm_wordpool_576.txt	LTP365	ltpFR2	22	15	HEDGE	699	n/a	n/a	0	0	0
2951500	WORD	wordpools/wasnorm_wordpool_576.txt	LTP365	ltpFR2	22	15	BRANCH	168	n/a	n/a	0	0	0
2954098	WORD	wordpools/wasnorm_wordpool_576.txt	LTP365	ltpFR2	22	15	LION	827	n/a	n/a	0	0	0
2956715	WORD	wordpools/wasnorm_wordpool_576.txt	LTP365	ltpFR2	22	15	TUBA	1515	n/a	n/a	0	0	0
2959497	WORD	wordpools/wasnorm_wordpool_576.txt	LTP365	ltpFR2	22	15	PLAID	1080	n/a	n/a	0	0	0
2962145	WORD	wordpools/wasnorm_wordpool_576.txt	LTP365	ltpFR2	22	15	COWBOY	395	n/a	n/a	0	0	0
2964844	WORD	wordpools/wasnorm_wordpool_576.txt	LTP365	ltpFR2	22	15	THRONE	1461	n/a	n/a	0	0	0
2967627	WORD	wordpools/wasnorm_wordpool_576.txt	LTP365	ltpFR2	22	15	LIZARD	834	n/a	n/a	0	0	0
2970075	WORD	wordpools/wasnorm_wordpool_576.txt	LTP365	ltpFR2	22	15	DRAWING	494	n/a	n/a	0	0	0
2971692	START	n/a	LTP365	ltpFR2	22	n/a	n/a	n/a	26	n/a	n/a	n/a	n/a
2972776	DISTRACTOR	n/a	LTP365	ltpFR2	22	15	n/a	n/a	n/a	n/a	0	0	0
2972791	PROB	n/a	LTP365	ltpFR2	22	n/a	n/a	n/a	26	9	1	5	3
2974206	PROB	n/a	LTP365	ltpFR2	22	n/a	n/a	n/a	26	24	9	7	8
2976922	PROB	n/a	LTP365	ltpFR2	22	n/a	n/a	n/a	26	16	6	5	5
2978838	PROB	n/a	LTP365	ltpFR2	22	n/a	n/a	n/a	26	11	5	3	3
2980521	PROB	n/a	LTP365	ltpFR2	22	n/a	n/a	n/a	26	16	5	2	9
2982102	PROB	n/a	LTP365	ltpFR2	22	n/a	n/a	n/a	26	11	3	7	1
2983235	PROB	n/a	LTP365	ltpFR2	22	n/a	n/a	n/a	26	16	3	8	5
2985702	PROB	n/a	LTP365	ltpFR2	22	n/a	n/a	n/a	26	16	4	4	8
2986968	PROB	n/a	LTP365	ltpFR2	22	n/a	n/a	n/a	26	14	1	9	4
2988399	PROB	n/a	LTP365	ltpFR2	22	n/a	n/a	n/a	26	23	6	9	8
2990483	PROB	n/a	LTP365	ltpFR2	22	n/a	n/a	n/a	26	19	7	3	9
2992448	PROB	n/a	LTP365	ltpFR2	22	n/a	n/a	n/a	26	15	5	6	4
2993731	PROB	n/a	LTP365	ltpFR2	22	n/a	n/a	n/a	26	10	1	3	6
2994856	STOP	n/a	LTP365	ltpFR2	22	n/a	n/a	n/a	26	n/a	n/a	n/a	n/a
2997597	REC_START	n/a	LTP365	ltpFR2	22	15	n/a	n/a	n/a	n/a	0	0	0
3000088	REC_WORD	wordpools/wasnorm_wordpool_576.txt	LTP365	ltpFR2	22	15	DRAWING	494	n/a	n/a	0	0	0
3003963	REC_WORD	wordpools/wasnorm_wordpool_576.txt	LTP365	ltpFR2	22	15	ROBIN	1199	n/a	n/a	0	0	0
3005321	REC_WORD	wordpools/wasnorm_wordpool_576.txt	LTP365	ltpFR2	22	15	TURTLE	1522	n/a	n/a	0	0	0
3008276	REC_WORD	wordpools/wasnorm_wordpool_576.txt	LTP365	ltpFR2	22	15	LIZARD	834	n/a	n/a	0	0	0
3009581	REC_WORD	wordpools/wasnorm_wordpool_576.txt	LTP365	ltpFR2	22	15	BRANCH	168	n/a	n/a	0	0	0
3014642	REC_WORD	wordpools/wasnorm_wordpool_576.txt	LTP365	ltpFR2	22	15	BUSH	202	n/a	n/a	0	0	0
3016109	REC_WORD	wordpools/wasnorm_wordpool_576.txt	LTP365	ltpFR2	22	15	COURSE	390	n/a	n/a	0	0	0
3018604	REC_WORD	wordpools/wasnorm_wordpool_576.txt	LTP365	ltpFR2	22	15	GARLIC	624	n/a	n/a	0	0	0
3019330	REC_WORD	wordpools/wasnorm_wordpool_576.txt	LTP365	ltpFR2	22	15	PERFUME	1049	n/a	n/a	0	0	0
3020229	REC_WORD	wordpools/wasnorm_wordpool_576.txt	LTP365	ltpFR2	22	15	THRONE	1461	n/a	n/a	0	0	0
3021188	REC_WORD	wordpools/wasnorm_wordpool_576.txt	LTP365	ltpFR2	22	15	QUEEN	1149	n/a	n/a	0	0	0
3026822	REC_WORD	wordpools/wasnorm_wordpool_576.txt	LTP365	ltpFR2	22	15	TRIBE	1505	n/a	n/a	0	0	0
3036171	REC_WORD	wordpools/wasnorm_wordpool_576.txt	LTP365	ltpFR2	22	15	EXPERT	543	n/a	n/a	0	0	0
3037171	REC_WORD_VV	wordpools/wasnorm_wordpool_576.txt	LTP365	ltpFR2	22	15	<>	-1	n/a	n/a	0	0	0
3039376	REC_WORD	wordpools/wasnorm_wordpool_576.txt	LTP365	ltpFR2	22	15	LION	827	n/a	n/a	0	0	0
3052108	REC_WORD	wordpools/wasnorm_wordpool_576.txt	LTP365	ltpFR2	22	15	REPORT	1184	n/a	n/a	0	0	0
3053442	REC_WORD	wordpools/wasnorm_wordpool_576.txt	LTP365	ltpFR2	22	15	TYPIST	1532	n/a	n/a	0	0	0
3088039	WORD	wordpools/wasnorm_wordpool_576.txt	LTP365	ltpFR2	22	16	VICTIM	1562	n/a	n/a	0	0	0
3090554	WORD	wordpools/wasnorm_wordpool_576.txt	LTP365	ltpFR2	22	16	TRANSPLANT	1496	n/a	n/a	0	0	0
3093037	WORD	wordpools/wasnorm_wordpool_576.txt	LTP365	ltpFR2	22	16	LIVER	833	n/a	n/a	0	0	0
3095719	WORD	wordpools/wasnorm_wordpool_576.txt	LTP365	ltpFR2	22	16	BLOCKADE	137	n/a	n/a	0	0	0
3098150	WORD	wordpools/wasnorm_wordpool_576.txt	LTP365	ltpFR2	22	16	LOFT	840	n/a	n/a	0	0	0
3100600	WORD	wordpools/wasnorm_wordpool_576.txt	LTP365	ltpFR2	22	16	FOX	598	n/a	n/a	0	0	0
3103181	WORD	wordpools/wasnorm_wordpool_576.txt	LTP365	ltpFR2	22	16	FLASHLIGHT	575	n/a	n/a	0	0	0
3105648	WORD	wordpools/wasnorm_wordpool_576.txt	LTP365	ltpFR2	22	16	PATROL	1027	n/a	n/a	0	0	0
3108245	WORD	wordpools/wasnorm_wordpool_576.txt	LTP365	ltpFR2	22	16	BRAKE	166	n/a	n/a	0	0	0
3111045	WORD	wordpools/wasnorm_wordpool_576.txt	LTP365	ltpFR2	22	16	SODA	1341	n/a	n/a	0	0	0
3113727	WORD	wordpools/wasnorm_wordpool_576.txt	LTP365	ltpFR2	22	16	DENIM	446	n/a	n/a	0	0	0
3116442	WORD	wordpools/wasnorm_wordpool_576.txt	LTP365	ltpFR2	22	16	ACTRESS	6	n/a	n/a	0	0	0
3118991	WORD	wordpools/wasnorm_wordpool_576.txt	LTP365	ltpFR2	22	16	COBRA	336	n/a	n/a	0	0	0
3121690	WORD	wordpools/wasnorm_wordpool_576.txt	LTP365	ltpFR2	22	16	MILDEW	893	n/a	n/a	0	0	0
3124405	WORD	wordpools/wasnorm_wordpool_576.txt	LTP365	ltpFR2	22	16	SUSPECT	1415	n/a	n/a	0	0	0
3126988	WORD	wordpools/wasnorm_wordpool_576.txt	LTP365	ltpFR2	22	16	AGENT	10	n/a	n/a	0	0	0
3129753	WORD	wordpools/wasnorm_wordpool_576.txt	LTP365	ltpFR2	22	16	BLOUSE	139	n/a	n/a	0	0	0
3132552	WORD	wordpools/wasnorm_wordpool_576.txt	LTP365	ltpFR2	22	16	LAPEL	800	n/a	n/a	0	0	0
3135116	WORD	wordpools/wasnorm_wordpool_576.txt	LTP365	ltpFR2	22	16	SISTER	1312	n/a	n/a	0	0	0
3137883	WORD	wordpools/wasnorm_wordpool_576.txt	LTP365	ltpFR2	22	16	BOUQUET	157	n/a	n/a	0	0	0
3140548	WORD	wordpools/wasnorm_wordpool_576.txt	LTP365	ltpFR2	22	16	PRIMATE	1123	n/a	n/a	0	0	0
3143097	WORD	wordpools/wasnorm_wordpool_576.txt	LTP365	ltpFR2	22	16	ROD	1203	n/a	n/a	0	0	0
3145913	WORD	wordpools/wasnorm_wordpool_576.txt	LTP365	ltpFR2	22	16	SLIDE	1326	n/a	n/a	0	0	0
3148695	WORD	wordpools/wasnorm_wordpool_576.txt	LTP365	ltpFR2	22	16	SLIME	1327	n/a	n/a	0	0	0
3150310	START	n/a	LTP365	ltpFR2	22	n/a	n/a	n/a	27	n/a	n/a	n/a	n/a
3151245	DISTRACTOR	n/a	LTP365	ltpFR2	22	16	n/a	n/a	n/a	n/a	0	0	0
3151259	PROB	n/a	LTP365	ltpFR2	22	n/a	n/a	n/a	27	12	4	3	5
3155009	PROB	n/a	LTP365	ltpFR2	22	n/a	n/a	n/a	27	24	9	7	8
3157257	PROB	n/a	LTP365	ltpFR2	22	n/a	n/a	n/a	27	18	4	8	6
3158940	PROB	n/a	LTP365	ltpFR2	22	n/a	n/a	n/a	27	11	2	2	7
3160090	PROB	n/a	LTP365	ltpFR2	22	n/a	n/a	n/a	27	12	2	5	5
3161839	PROB	n/a	LTP365	ltpFR2	22	n/a	n/a	n/a	27	19	6	6	7
3164120	PROB	n/a	LTP365	ltpFR2	22	n/a	n/a	n/a	27	16	4	4	8
3165370	PROB	n/a	LTP365	ltpFR2	22	n/a	n/a	n/a	27	15	4	5	6
3166953	PROB	n/a	LTP365	ltpFR2	22	n/a	n/a	n/a	27	16	9	3	4
3168769	PROB	n/a	LTP365	ltpFR2	22	n/a	n/a	n/a	27	11	6	4	1
3169952	PROB	n/a	LTP365	ltpFR2	22	n/a	n/a	n/a	27	21	7	6	8
3173037	STOP	n/a	LTP365	ltpFR2	22	n/a	n/a	n/a	27	n/a	n/a	n/a	n/a
3176165	REC_START	n/a	LTP365	ltpFR2	22	16	n/a	n/a	n/a	n/a	0	0	0
3177401	REC_WORD	wordpools/wasnorm_wordpool_576.txt	LTP365	ltpFR2	22	16	ROD	1203	n/a	n/a	0	0	0
3178318	REC_WORD	wordpools/wasnorm_wordpool_576.txt	LTP365	ltpFR2	22	16	SLIME	1327	n/a	n/a	0	0	0
3179318	REC_WORD_VV	wordpools/wasnorm_wordpool_576.txt	LTP365	ltpFR2	22	16	<>	-1	n/a	n/a	0	0	0
3179650	REC_WORD	wordpools/wasnorm_wordpool_576.txt	LTP365	ltpFR2	22	16	COBRA	336	n/a	n/a	0	0	0
3180650	REC_WORD	wordpools/wasnorm_wordpool_576.txt	LTP365	ltpFR2	22	16	MILDEW	893	n/a	n/a	0	0	0
3181650	REC_WORD_VV	wordpools/wasnorm_wordpool_576.txt	LTP365	ltpFR2	22	16	<>	-1	n/a	n/a	0	0	0
3182313	REC_WORD	wordpools/wasnorm_wordpool_576.txt	LTP365	ltpFR2	22	16	AGENT	10	n/a	n/a	0	0	0
3183794	REC_WORD	wordpools/wasnorm_wordpool_576.txt	LTP365	ltpFR2	22	16	DENIM	446	n/a	n/a	0	0	0
3186855	REC_WORD	wordpools/wasnorm_wordpool_576.txt	LTP365	ltpFR2	22	16	LAPEL	800	n/a	n/a	0	0	0
3189599	REC_WORD	wordpools/wasnorm_wordpool_576.txt	LTP365	ltpFR2	22	16	LOFT	840	n/a	n/a	0	0	0
3191562	REC_WORD	wordpools/wasnorm_wordpool_576.txt	LTP365	ltpFR2	22	16	BLOCKADE	137	n/a	n/a	0	0	0
3192562	REC_WORD_VV	wordpools/wasnorm_wordpool_576.txt	LTP365	ltpFR2	22	16	<>	-1	n/a	n/a	0	0	0
3199158	REC_WORD	wordpools/wasnorm_wordpool_576.txt	LTP365	ltpFR2	22	16	BRAKE	166	n/a	n/a	0	0	0
3200193	REC_WORD	wordpools/wasnorm_wordpool_576.txt	LTP365	ltpFR2	22	16	SODA	1341	n/a	n/a	0	0	0
3252698	REST_REWET	n/a	LTP365	ltpFR2	22	16	n/a	n/a	n/a	n/a	0	0	0
3351703	WORD	wordpools/wasnorm_wordpool_576.txt	LTP365	ltpFR2	22	17	MONSTER	912	n/a	n/a	0	0	0
3354234	WORD	wordpools/wasnorm_wordpool_576.txt	LTP365	ltpFR2	22	17	FRAME	600	n/a	n/a	0	0	0
3356967	WORD	wordpools/wasnorm_wordpool_576.txt	LTP365	ltpFR2	22	17	CITRUS	313	n/a	n/a	0	0	0
3359783	WORD	wordpools/wasnorm_wordpool_576.txt	LTP365	ltpFR2	22	17	SCARECROW	1245	n/a	n/a	0	0	0
3362347	WORD	wordpools/wasnorm_wordpool_576.txt	LTP365	ltpFR2	22	17	SWITCH	1422	n/a	n/a	0	0	0
3365047	WORD	wordpools/wasnorm_wordpool_576.txt	LTP365	ltpFR2	22	17	BRACES	164	n/a	n/a	0	0	0
3367596	WORD	wordpools/wasnorm_wordpool_576.txt	LTP365	ltpFR2	22	17	VALLEY	1545	n/a	n/a	0	0	0
3370194	WORD	wordpools/wasnorm_wordpool_576.txt	LTP365	ltpFR2	22	17	PARSLEY	1016	n/a	n/a	0	0	0
3372793	WORD	wordpools/wasnorm_wordpool_576.txt	LTP365	ltpFR2	22	17	BULLET	194	n/a	n/a	0	0	0
3375358	WORD	wordpools/wasnorm_wordpool_576.txt	LTP365	ltpFR2	22	17	SLOPE	1328	n/a	n/a	0	0	0
3378107	WORD	wordpools/wasnorm_wordpool_576.txt	LTP365	ltpFR2	22	17	GANGSTER	620	n/a	n/a	0	0	0
3380723	WORD	wordpools/wasnorm_wordpool_576.txt	LTP365	ltpFR2	22	17	ORCHID	982	n/a	n/a	0	0	0
3383454	WORD	wordpools/wasnorm_wordpool_576.txt	LTP365	ltpFR2	22	17	SHELTER	1282	n/a	n/a	0	0	0
3385888	WORD	wordpools/wasnorm_wordpool_576.txt	LTP365	ltpFR2	22	17	COTTAGE	384	n/a	n/a	0	0	0
3388636	WORD	wordpools/wasnorm_wordpool_576.txt	LTP365	ltpFR2	22	17	SHARK	1275	n/a	n/a	0	0	0
3391167	WORD	wordpools/wasnorm_wordpool_576.txt	LTP365	ltpFR2	22	17	LAKE	796	n/a	n/a	0	0	0
3393767	WORD	wordpools/wasnorm_wordpool_576.txt	LTP365	ltpFR2	22	17	HOOK	715	n/a	n/a	0	0	0
3396215	WORD	wordpools/wasnorm_wordpool_576.txt	LTP365	ltpFR2	22	17	FLIPPER	580	n/a	n/a	0	0	0
3398648	WORD	wordpools/wasnorm_wordpool_576.txt	LTP365	ltpFR2	22	17	COOK	372	n/a	n/a	0	0	0
3401163	WORD	wordpools/wasnorm_wordpool_576.txt	LTP365	ltpFR2	22	17	FLAG	573	n/a	n/a	0	0	0
3403879	WORD	wordpools/wasnorm_wordpool_576.txt	LTP365	ltpFR2	22	17	BUBBLE	183	n/a	n/a	0	0	0
3406661	WORD	wordpools/wasnorm_wordpool_576.txt	LTP365	ltpFR2	22	17	LETTUCE	814	n/a	n/a	0	0	0
3409293	WORD	wordpools/wasnorm_wordpool_576.txt	LTP365	ltpFR2	22	17	REBEL	1172	n/a	n/a	0	0	0
3412108	WORD	wordpools/wasnorm_wordpool_576.txt	LTP365	ltpFR2	22	17	BLUEPRINT	142	n/a	n/a	0	0	0
3413726	START	n/a	LTP365	ltpFR2	22	n/a	n/a	n/a	28	n/a	n/a	n/a	n/a
3414869	DISTRACTOR	n/a	LTP365	ltpFR2	22	17	n/a	n/a	n/a	n/a	0	0	0
3414874	PROB	n/a	LTP365	ltpFR2	22	n/a	n/a	n/a	28	16	7	3	6
3416640	PROB	n/a	LTP365	ltpFR2	22	n/a	n/a	n/a	28	24	8	7	8
3419455	PROB	n/a	LTP365	ltpFR2	22	n/a	n/a	n/a	28	16	3	5	9
3422771	PROB	n/a	LTP365	ltpFR2	22	n/a	n/a	n/a	28	17	5	9	3
3427434	PROB	n/a	LTP365	ltpFR2	22	n/a	n/a	n/a	28	16	7	6	3
3429468	PROB	n/a	LTP365	ltpFR2	22	n/a	n/a	n/a	28	18	7	7	4
3431183	PROB	n/a	LTP365	ltpFR2	22	n/a	n/a	n/a	28	20	9	9	2
3432683	PROB	n/a	LTP365	ltpFR2	22	n/a	n/a	n/a	28	20	6	7	7
3434482	PROB	n/a	LTP365	ltpFR2	22	n/a	n/a	n/a	28	21	7	8	6
3437726	STOP	n/a	LTP365	ltpFR2	22	n/a	n/a	n/a	28	n/a	n/a	n/a	n/a
3439547	REC_START	n/a	LTP365	ltpFR2	22	17	n/a	n/a	n/a	n/a	0	0	0
3440122	REC_WORD	wordpools/wasnorm_wordpool_576.txt	LTP365	ltpFR2	22	17	BLUEPRINT	142	n/a	n/a	0	0	0
3441273	REC_WORD	wordpools/wasnorm_wordpool_576.txt	LTP365	ltpFR2	22	17	REBEL	1172	n/a	n/a	0	0	0
3443489	REC_WORD	wordpools/wasnorm_wordpool_576.txt	LTP365	ltpFR2	22	17	BUBBLE	183	n/a	n/a	0	0	0
3444292	REC_WORD	wordpools/wasnorm_wordpool_576.txt	LTP365	ltpFR2	22	17	CITRUS	313	n/a	n/a	0	0	0
3445534	REC_WORD	wordpools/wasnorm_wordpool_576.txt	LTP365	ltpFR2	22	17	BULLET	194	n/a	n/a	0	0	0
3448555	REC_WORD	wordpools/wasnorm_wordpool_576.txt	LTP365	ltpFR2	22	17	FLAG	573	n/a	n/a	0	0	0
3449555	REC_WORD_VV	wordpools/wasnorm_wordpool_576.txt	LTP365	ltpFR2	22	17	<>	-1	n/a	n/a	0	0	0
3450212	REC_WORD	wordpools/wasnorm_wordpool_576.txt	LTP365	ltpFR2	22	17	COOK	372	n/a	n/a	0	0	0
3450919	REC_WORD	wordpools/wasnorm_wordpool_576.txt	LTP365	ltpFR2	22	17	SHARK	1275	n/a	n/a	0	0	0
3451914	REC_WORD	wordpools/wasnorm_wordpool_576.txt	LTP365	ltpFR2	22	17	CABIN	211	n/a	n/a	0	0	0
3452701	REC_WORD	wordpools/wasnorm_wordpool_576.txt	LTP365	ltpFR2	22	17	SHELTER	1282	n/a	n/a	0	0	0
3456111	REC_WORD	wordpools/wasnorm_wordpool_576.txt	LTP365	ltpFR2	22	17	LAKE	796	n/a	n/a	0	0	0
3466958	REC_WORD	wordpools/wasnorm_wordpool_576.txt	LTP365	ltpFR2	22	17	SLOPE	1328	n/a	n/a	0	0	0
3490940	REC_WORD	wordpools/wasnorm_wordpool_576.txt	LTP365	ltpFR2	22	17	LETTUCE	814	n/a	n/a	0	0	0
3491937	REC_WORD	wordpools/wasnorm_wordpool_576.txt	LTP365	ltpFR2	22	17	PARSLEY	1016	n/a	n/a	0	0	0
3508976	REC_WORD	wordpools/wasnorm_wordpool_576.txt	LTP365	ltpFR2	22	17	MONSTER	912	n/a	n/a	0	0	0
3511035	REC_WORD	wordpools/wasnorm_wordpool_576.txt	LTP365	ltpFR2	22	17	SCARECROW	1245	n/a	n/a	0	0	0
3512014	REC_WORD	wordpools/wasnorm_wordpool_576.txt	LTP365	ltpFR2	22	17	VALLEY	1545	n/a	n/a	0	0	0
3529989	WORD	wordpools/wasnorm_wordpool_576.txt	LTP365	ltpFR2	22	18	SPIDER	1351	n/a	n/a	0	0	0
3532588	WORD	wordpools/wasnorm_wordpool_576.txt	LTP365	ltpFR2	22	18	STONE	1385	n/a	n/a	0	0	0
3535302	WORD	wordpools/wasnorm_wordpool_576.txt	LTP365	ltpFR2	22	18	KIDNEY	776	n/a	n/a	0	0	0
3538069	WORD	wordpools/wasnorm_wordpool_576.txt	LTP365	ltpFR2	22	18	WHISKERS	1605	n/a	n/a	0	0	0
3540551	WORD	wordpools/wasnorm_wordpool_576.txt	LTP365	ltpFR2	22	18	PERMIT	1051	n/a	n/a	0	0	0
3543083	WORD	wordpools/wasnorm_wordpool_576.txt	LTP365	ltpFR2	22	18	GRIZZLY	662	n/a	n/a	0	0	0
3545832	WORD	wordpools/wasnorm_wordpool_576.txt	LTP365	ltpFR2	22	18	YOLK	1633	n/a	n/a	0	0	0
3548346	WORD	wordpools/wasnorm_wordpool_576.txt	LTP365	ltpFR2	22	18	CAFE	216	n/a	n/a	0	0	0
3551145	WORD	wordpools/wasnorm_wordpool_576.txt	LTP365	ltpFR2	22	18	BUCKET	184	n/a	n/a	0	0	0
3553928	WORD	wordpools/wasnorm_wordpool_576.txt	LTP365	ltpFR2	22	18	CREVICE	405	n/a	n/a	0	0	0
3556677	WORD	wordpools/wasnorm_wordpool_576.txt	LTP365	ltpFR2	22	18	SKILLET	1317	n/a	n/a	0	0	0
3559208	WORD	wordpools/wasnorm_wordpool_576.txt	LTP365	ltpFR2	22	18	COUNTY	389	n/a	n/a	0	0	0
3561791	WORD	wordpools/wasnorm_wordpool_576.txt	LTP365	ltpFR2	22	18	POLICE	1098	n/a	n/a	0	0	0
3564273	WORD	wordpools/wasnorm_wordpool_576.txt	LTP365	ltpFR2	22	18	DRUG	501	n/a	n/a	0	0	0
3566739	WORD	wordpools/wasnorm_wordpool_576.txt	LTP365	ltpFR2	22	18	DRINK	498	n/a	n/a	0	0	0
3569387	WORD	wordpools/wasnorm_wordpool_576.txt	LTP365	ltpFR2	22	18	SALMON	1227	n/a	n/a	0	0	0
3571970	WORD	wordpools/wasnorm_wordpool_576.txt	LTP365	ltpFR2	22	18	JEANS	752	n/a	n/a	0	0	0
3574719	WORD	wordpools/wasnorm_wordpool_576.txt	LTP365	ltpFR2	22	18	ACTOR	5	n/a	n/a	0	0	0
3577450	WORD	wordpools/wasnorm_wordpool_576.txt	LTP365	ltpFR2	22	18	ROOSTER	1209	n/a	n/a	0	0	0
3580115	WORD	wordpools/wasnorm_wordpool_576.txt	LTP365	ltpFR2	22	18	CASKET	255	n/a	n/a	0	0	0
3582832	WORD	wordpools/wasnorm_wordpool_576.txt	LTP365	ltpFR2	22	18	TOMBSTONE	1478	n/a	n/a	0	0	0
3585497	WORD	wordpools/wasnorm_wordpool_576.txt	LTP365	ltpFR2	22	18	QUAIL	1147	n/a	n/a	0	0	0
3588128	WORD	wordpools/wasnorm_wordpool_576.txt	LTP365	ltpFR2	22	18	MUSTARD	935	n/a	n/a	0	0	0
3590678	WORD	wordpools/wasnorm_wordpool_576.txt	LTP365	ltpFR2	22	18	ONION	977	n/a	n/a	0	0	0
3592293	START	n/a	LTP365	ltpFR2	22	n/a	n/a	n/a	29	n/a	n/a	n/a	n/a
3593279	DISTRACTOR	n/a	LTP365	ltpFR2	22	18	n/a	n/a	n/a	n/a	0	0	0
3593293	PROB	n/a	LTP365	ltpFR2	22	n/a	n/a	n/a	29	10	2	2	6
3594810	PROB	n/a	LTP365	ltpFR2	22	n/a	n/a	n/a	29	14	6	6	2
3596492	PROB	n/a	LTP365	ltpFR2	22	n/a	n/a	n/a	29	19	5	8	6
3598675	PROB	n/a	LTP365	ltpFR2	22	n/a	n/a	n/a	29	10	2	2	6
3599724	PROB	n/a	LTP365	ltpFR2	22	n/a	n/a	n/a	29	18	9	1	8
3601090	PROB	n/a	LTP365	ltpFR2	22	n/a	n/a	n/a	29	14	1	8	5
3603039	PROB	n/a	LTP365	ltpFR2	22	n/a	n/a	n/a	29	24	7	9	8
3604905	PROB	n/a	LTP365	ltpFR2	22	n/a	n/a	n/a	29	24	8	9	7
3606254	PROB	n/a	LTP365	ltpFR2	22	n/a	n/a	n/a	29	14	1	4	9
3607671	PROB	n/a	LTP365	ltpFR2	22	n/a	n/a	n/a	29	12	3	5	4
3609402	PROB	n/a	LTP365	ltpFR2	22	n/a	n/a	n/a	29	10	6	2	2
3610519	PROB	n/a	LTP365	ltpFR2	22	n/a	n/a	n/a	29	14	8	3	3
3612019	PROB	n/a	LTP365	ltpFR2	22	n/a	n/a	n/a	29	18	3	8	7
3614034	PROB	n/a	LTP365	ltpFR2	22	n/a	n/a	n/a	29	12	2	9	1
3615330	STOP	n/a	LTP365	ltpFR2	22	n/a	n/a	n/a	29	n/a	n/a	n/a	n/a
3618115	REC_START	n/a	LTP365	ltpFR2	22	18	n/a	n/a	n/a	n/a	0	0	0
3619042	REC_WORD	wordpools/wasnorm_wordpool_576.txt	LTP365	ltpFR2	22	18	CASKET	255	n/a	n/a	0	0	0
3619989	REC_WORD	wordpools/wasnorm_wordpool_576.txt	LTP365	ltpFR2	22	18	TOMBSTONE	1478	n/a	n/a	0	0	0
3620969	REC_WORD	wordpools/wasnorm_wordpool_576.txt	LTP365	ltpFR2	22	18	ROOSTER	1209	n/a	n/a	0	0	0
3622010	REC_WORD	wordpools/wasnorm_wordpool_576.txt	LTP365	ltpFR2	22	18	QUAIL	1147	n/a	n/a	0	0	0
3622690	REC_WORD	wordpools/wasnorm_wordpool_576.txt	LTP365	ltpFR2	22	18	SALMON	1227	n/a	n/a	0	0	0
3623570	REC_WORD	wordpools/wasnorm_wordpool_576.txt	LTP365	ltpFR2	22	18	YOLK	1633	n/a	n/a	0	0	0
3624477	REC_WORD	wordpools/wasnorm_wordpool_576.txt	LTP365	ltpFR2	22	18	DRINK	498	n/a	n/a	0	0	0
3625757	REC_WORD	wordpools/wasnorm_wordpool_576.txt	LTP365	ltpFR2	22	18	SPIDER	1351	n/a	n/a	0	0	0
3626800	REC_WORD	wordpools/wasnorm_wordpool_576.txt	LTP365	ltpFR2	22	18	JEANS	752	n/a	n/a	0	0	0
3627695	REC_WORD	wordpools/wasnorm_wordpool_576.txt	LTP365	ltpFR2	22	18	ACTOR	5	n/a	n/a	0	0	0
3629177	REC_WORD	wordpools/wasnorm_wordpool_576.txt	LTP365	ltpFR2	22	18	CAFE	216	n/a	n/a	0	0	0
3636797	REC_WORD	wordpools/wasnorm_wordpool_576.txt	LTP365	ltpFR2	22	18	STONE	1385	n/a	n/a	0	0	0
3641302	REC_WORD	wordpools/wasnorm_wordpool_576.txt	LTP365	ltpFR2	22	18	GRIZZLY	662	n/a	n/a	0	0	0
3642306	REC_WORD	wordpools/wasnorm_wordpool_576.txt	LTP365	ltpFR2	22	18	WHISKERS	1605	n/a	n/a	0	0	0
3643295	REC_WORD	wordpools/wasnorm_wordpool_576.txt	LTP365	ltpFR2	22	18	PERMIT	1051	n/a	n/a	0	0	0
3646895	REC_WORD	wordpools/wasnorm_wordpool_576.txt	LTP365	ltpFR2	22	18	POLICE	1098	n/a	n/a	0	0	0
3652804	REC_WORD	wordpools/wasnorm_wordpool_576.txt	LTP365	ltpFR2	22	18	KIDNEY	776	n/a	n/a	0	0	0
3654791	REC_WORD	wordpools/wasnorm_wordpool_576.txt	LTP365	ltpFR2	22	18	DRUG	501	n/a	n/a	0	0	0
3708575	WORD	wordpools/wasnorm_wordpool_576.txt	LTP365	ltpFR2	22	19	CHAMPAGNE	278	n/a	n/a	0	0	0
3711090	WORD	wordpools/wasnorm_wordpool_576.txt	LTP365	ltpFR2	22	19	GRAPE	654	n/a	n/a	0	0	0
3713706	WORD	wordpools/wasnorm_wordpool_576.txt	LTP365	ltpFR2	22	19	KLEENEX	782	n/a	n/a	0	0	0
3716370	WORD	wordpools/wasnorm_wordpool_576.txt	LTP365	ltpFR2	22	19	CLOUD	328	n/a	n/a	0	0	0
3718854	WORD	wordpools/wasnorm_wordpool_576.txt	LTP365	ltpFR2	22	19	ZEBRA	1635	n/a	n/a	0	0	0
3721536	WORD	wordpools/wasnorm_wordpool_576.txt	LTP365	ltpFR2	22	19	CRIB	407	n/a	n/a	0	0	0
3724184	WORD	wordpools/wasnorm_wordpool_576.txt	LTP365	ltpFR2	22	19	PEACH	1031	n/a	n/a	0	0	0
3726717	WORD	wordpools/wasnorm_wordpool_576.txt	LTP365	ltpFR2	22	19	ROBOT	1200	n/a	n/a	0	0	0
3729281	WORD	wordpools/wasnorm_wordpool_576.txt	LTP365	ltpFR2	22	19	HATCHET	691	n/a	n/a	0	0	0
3731964	WORD	wordpools/wasnorm_wordpool_576.txt	LTP365	ltpFR2	22	19	SWORD	1423	n/a	n/a	0	0	0
3734429	WORD	wordpools/wasnorm_wordpool_576.txt	LTP365	ltpFR2	22	19	PLATE	1086	n/a	n/a	0	0	0
3736979	WORD	wordpools/wasnorm_wordpool_576.txt	LTP365	ltpFR2	22	19	PUPPY	1144	n/a	n/a	0	0	0
3739728	WORD	wordpools/wasnorm_wordpool_576.txt	LTP365	ltpFR2	22	19	HOUND	724	n/a	n/a	0	0	0
3742526	WORD	wordpools/wasnorm_wordpool_576.txt	LTP365	ltpFR2	22	19	MARSH	874	n/a	n/a	0	0	0
3745025	WORD	wordpools/wasnorm_wordpool_576.txt	LTP365	ltpFR2	22	19	BALLOON	75	n/a	n/a	0	0	0
3747607	WORD	wordpools/wasnorm_wordpool_576.txt	LTP365	ltpFR2	22	19	CIGAR	308	n/a	n/a	0	0	0
3750189	WORD	wordpools/wasnorm_wordpool_576.txt	LTP365	ltpFR2	22	19	LAGOON	795	n/a	n/a	0	0	0
3752872	WORD	wordpools/wasnorm_wordpool_576.txt	LTP365	ltpFR2	22	19	HERO	706	n/a	n/a	0	0	0
3755369	WORD	wordpools/wasnorm_wordpool_576.txt	LTP365	ltpFR2	22	19	IGLOO	734	n/a	n/a	0	0	0
3758185	WORD	wordpools/wasnorm_wordpool_576.txt	LTP365	ltpFR2	22	19	PUDDLE	1140	n/a	n/a	0	0	0
3760935	WORD	wordpools/wasnorm_wordpool_576.txt	LTP365	ltpFR2	22	19	SCOTCH	1251	n/a	n/a	0	0	0
3763533	WORD	wordpools/wasnorm_wordpool_576.txt	LTP365	ltpFR2	22	19	SHERIFF	1284	n/a	n/a	0	0	0
3766231	WORD	wordpools/wasnorm_wordpool_576.txt	LTP365	ltpFR2	22	19	FLUTE	585	n/a	n/a	0	0	0
3769048	WORD	wordpools/wasnorm_wordpool_576.txt	LTP365	ltpFR2	22	19	COUSIN	392	n/a	n/a	0	0	0
3770664	START	n/a	LTP365	ltpFR2	22	n/a	n/a	n/a	30	n/a	n/a	n/a	n/a
3771837	DISTRACTOR	n/a	LTP365	ltpFR2	22	19	n/a	n/a	n/a	n/a	0	0	0
3771847	PROB	n/a	LTP365	ltpFR2	22	n/a	n/a	n/a	30	8	3	3	1
3774095	PROB	n/a	LTP365	ltpFR2	22	n/a	n/a	n/a	30	13	2	5	6
3775978	PROB	n/a	LTP365	ltpFR2	22	n/a	n/a	n/a	30	3	1	1	1
3777011	PROB	n/a	LTP365	ltpFR2	22	n/a	n/a	n/a	30	13	1	6	6
3778392	PROB	n/a	LTP365	ltpFR2	22	n/a	n/a	n/a	30	23	6	9	8
3781509	PROB	n/a	LTP365	ltpFR2	22	n/a	n/a	n/a	30	22	6	7	4
3783474	PROB	n/a	LTP365	ltpFR2	22	n/a	n/a	n/a	30	15	4	5	6
3785323	PROB	n/a	LTP365	ltpFR2	22	n/a	n/a	n/a	30	19	9	8	2
3787338	PROB	n/a	LTP365	ltpFR2	22	n/a	n/a	n/a	30	13	3	3	7
3788622	PROB	n/a	LTP365	ltpFR2	22	n/a	n/a	n/a	30	8	1	2	5
3790705	PROB	n/a	LTP365	ltpFR2	22	n/a	n/a	n/a	30	13	2	7	4
3793232	STOP	n/a	LTP365	ltpFR2	22	n/a	n/a	n/a	30	n/a	n/a	n/a	n/a
3796519	REC_START	n/a	LTP365	ltpFR2	22	19	n/a	n/a	n/a	n/a	0	0	0
3799427	REC_WORD	wordpools/wasnorm_wordpool_576.txt	LTP365	ltpFR2	22	19	BALLOON	75	n/a	n/a	0	0	0
3803988	REC_WORD	wordpools/wasnorm_wordpool_576.txt	LTP365	ltpFR2	22	19	PUDDLE	1140	n/a	n/a	0	0	0
3813675	REC_WORD	wordpools/wasnorm_wordpool_576.txt	LTP365	ltpFR2	22	19	KLEENEX	782	n/a	n/a	0	0	0
3846941	REC_WORD	wordpools/wasnorm_wordpool_576.txt	LTP365	ltpFR2	22	19	BEAVER	109	n/a	n/a	0	0	0
3862326	REC_WORD	wordpools/wasnorm_wordpool_576.txt	LTP365	ltpFR2	22	19	CARRIAGE	248	n/a	n/a	0	0	0
3871049	REC_WORD_VV	wordpools/wasnorm_wordpool_576.txt	LTP365	ltpFR2	22	19	<>	-1	n/a	n/a	0	0	0
3886994	WORD	wordpools/wasnorm_wordpool_576.txt	LTP365	ltpFR2	22	20	DANDRUFF	439	n/a	n/a	0	0	0
3889810	WORD	wordpools/wasnorm_wordpool_576.txt	LTP365	ltpFR2	22	20	BREAST	171	n/a	n/a	0	0	0
