mstime	trial_type	stim_file	subject	experiment	session	trial	item_name	item_num	list	answer	test_x	test_y	test_z
0	SESS_START	n/a	LTP338	ltpFR2	15	n/a	n/a	n/a	n/a	n/a	0	0	0
14146	START	n/a	LTP338	ltpFR2	15	n/a	n/a	n/a	-1	n/a	n/a	n/a	n/a
14177	PROB	n/a	LTP338	ltpFR2	15	n/a	n/a	n/a	-1	17	1	7	9
16809	PROB	n/a	LTP338	ltpFR2	15	n/a	n/a	n/a	-1	23	6	9	8
20091	PROB	n/a	LTP338	ltpFR2	15	n/a	n/a	n/a	-1	11	4	2	5
21606	PROB	n/a	LTP338	ltpFR2	15	n/a	n/a	n/a	-1	13	4	2	7
23223	PROB	n/a	LTP338	ltpFR2	15	n/a	n/a	n/a	-1	18	9	6	3
25235	STOP	n/a	LTP338	ltpFR2	15	n/a	n/a	n/a	-1	n/a	n/a	n/a	n/a
56774	WORD	wordpools/wasnorm_wordpool_576.txt	LTP338	ltpFR2	15	1	EXPERT	543	n/a	n/a	0	0	0
59522	WORD	wordpools/wasnorm_wordpool_576.txt	LTP338	ltpFR2	15	1	SNAIL	1332	n/a	n/a	0	0	0
61989	WORD	wordpools/wasnorm_wordpool_576.txt	LTP338	ltpFR2	15	1	HOOD	714	n/a	n/a	0	0	0
64620	WORD	wordpools/wasnorm_wordpool_576.txt	LTP338	ltpFR2	15	1	GROUND	666	n/a	n/a	0	0	0
67352	WORD	wordpools/wasnorm_wordpool_576.txt	LTP338	ltpFR2	15	1	FRAGRANCE	599	n/a	n/a	0	0	0
69802	WORD	wordpools/wasnorm_wordpool_576.txt	LTP338	ltpFR2	15	1	CRIB	407	n/a	n/a	0	0	0
72616	WORD	wordpools/wasnorm_wordpool_576.txt	LTP338	ltpFR2	15	1	PADDLE	1000	n/a	n/a	0	0	0
75149	WORD	wordpools/wasnorm_wordpool_576.txt	LTP338	ltpFR2	15	1	MARINE	869	n/a	n/a	0	0	0
77964	WORD	wordpools/wasnorm_wordpool_576.txt	LTP338	ltpFR2	15	1	RELISH	1183	n/a	n/a	0	0	0
80446	WORD	wordpools/wasnorm_wordpool_576.txt	LTP338	ltpFR2	15	1	INMATE	738	n/a	n/a	0	0	0
83162	WORD	wordpools/wasnorm_wordpool_576.txt	LTP338	ltpFR2	15	1	CONVICT	371	n/a	n/a	0	0	0
85878	WORD	wordpools/wasnorm_wordpool_576.txt	LTP338	ltpFR2	15	1	UMPIRE	1535	n/a	n/a	0	0	0
88425	WORD	wordpools/wasnorm_wordpool_576.txt	LTP338	ltpFR2	15	1	CABBAGE	210	n/a	n/a	0	0	0
90975	WORD	wordpools/wasnorm_wordpool_576.txt	LTP338	ltpFR2	15	1	TORTOISE	1486	n/a	n/a	0	0	0
93724	WORD	wordpools/wasnorm_wordpool_576.txt	LTP338	ltpFR2	15	1	LAPEL	800	n/a	n/a	0	0	0
96439	WORD	wordpools/wasnorm_wordpool_576.txt	LTP338	ltpFR2	15	1	MOTOR	922	n/a	n/a	0	0	0
99055	WORD	wordpools/wasnorm_wordpool_576.txt	LTP338	ltpFR2	15	1	PLUTO	1092	n/a	n/a	0	0	0
101820	WORD	wordpools/wasnorm_wordpool_576.txt	LTP338	ltpFR2	15	1	SANDWICH	1232	n/a	n/a	0	0	0
104535	WORD	wordpools/wasnorm_wordpool_576.txt	LTP338	ltpFR2	15	1	ELBOW	520	n/a	n/a	0	0	0
107068	WORD	wordpools/wasnorm_wordpool_576.txt	LTP338	ltpFR2	15	1	PLIERS	1089	n/a	n/a	0	0	0
109750	WORD	wordpools/wasnorm_wordpool_576.txt	LTP338	ltpFR2	15	1	DANCER	437	n/a	n/a	0	0	0
112448	WORD	wordpools/wasnorm_wordpool_576.txt	LTP338	ltpFR2	15	1	POSTAGE	1113	n/a	n/a	0	0	0
115048	WORD	wordpools/wasnorm_wordpool_576.txt	LTP338	ltpFR2	15	1	RUG	1215	n/a	n/a	0	0	0
117596	WORD	wordpools/wasnorm_wordpool_576.txt	LTP338	ltpFR2	15	1	WRENCH	1625	n/a	n/a	0	0	0
119213	START	n/a	LTP338	ltpFR2	15	n/a	n/a	n/a	1	n/a	n/a	n/a	n/a
120405	DISTRACTOR	n/a	LTP338	ltpFR2	15	1	n/a	n/a	n/a	n/a	0	0	0
120411	PROB	n/a	LTP338	ltpFR2	15	n/a	n/a	n/a	1	20	3	9	8
122278	PROB	n/a	LTP338	ltpFR2	15	n/a	n/a	n/a	1	13	3	5	5
123810	PROB	n/a	LTP338	ltpFR2	15	n/a	n/a	n/a	1	11	5	3	3
126243	PROB	n/a	LTP338	ltpFR2	15	n/a	n/a	n/a	1	10	2	7	1
127842	PROB	n/a	LTP338	ltpFR2	15	n/a	n/a	n/a	1	20	8	7	5
129858	PROB	n/a	LTP338	ltpFR2	15	n/a	n/a	n/a	1	12	4	3	5
131990	PROB	n/a	LTP338	ltpFR2	15	n/a	n/a	n/a	1	20	7	9	4
133839	PROB	n/a	LTP338	ltpFR2	15	n/a	n/a	n/a	1	13	3	4	6
136454	PROB	n/a	LTP338	ltpFR2	15	n/a	n/a	n/a	1	12	1	5	6
137837	PROB	n/a	LTP338	ltpFR2	15	n/a	n/a	n/a	1	5	1	2	2
139054	PROB	n/a	LTP338	ltpFR2	15	n/a	n/a	n/a	1	13	8	4	1
140469	PROB	n/a	LTP338	ltpFR2	15	n/a	n/a	n/a	1	17	8	7	2
142678	STOP	n/a	LTP338	ltpFR2	15	n/a	n/a	n/a	1	n/a	n/a	n/a	n/a
145101	REC_START	n/a	LTP338	ltpFR2	15	1	n/a	n/a	n/a	n/a	0	0	0
148814	REC_WORD	wordpools/wasnorm_wordpool_576.txt	LTP338	ltpFR2	15	1	EXPERT	543	n/a	n/a	0	0	0
149500	REC_WORD	wordpools/wasnorm_wordpool_576.txt	LTP338	ltpFR2	15	1	SNAIL	1332	n/a	n/a	0	0	0
150760	REC_WORD	wordpools/wasnorm_wordpool_576.txt	LTP338	ltpFR2	15	1	HOOD	714	n/a	n/a	0	0	0
151772	REC_WORD	wordpools/wasnorm_wordpool_576.txt	LTP338	ltpFR2	15	1	GROUND	666	n/a	n/a	0	0	0
152989	REC_WORD	wordpools/wasnorm_wordpool_576.txt	LTP338	ltpFR2	15	1	FRAGRANCE	599	n/a	n/a	0	0	0
155394	REC_WORD	wordpools/wasnorm_wordpool_576.txt	LTP338	ltpFR2	15	1	RUG	1215	n/a	n/a	0	0	0
156030	REC_WORD	wordpools/wasnorm_wordpool_576.txt	LTP338	ltpFR2	15	1	WRENCH	1625	n/a	n/a	0	0	0
157359	REC_WORD	wordpools/wasnorm_wordpool_576.txt	LTP338	ltpFR2	15	1	INMATE	738	n/a	n/a	0	0	0
157955	REC_WORD	wordpools/wasnorm_wordpool_576.txt	LTP338	ltpFR2	15	1	CONVICT	371	n/a	n/a	0	0	0
159413	REC_WORD	wordpools/wasnorm_wordpool_576.txt	LTP338	ltpFR2	15	1	CABBAGE	210	n/a	n/a	0	0	0
160036	REC_WORD	wordpools/wasnorm_wordpool_576.txt	LTP338	ltpFR2	15	1	TORTOISE	1486	n/a	n/a	0	0	0
235542	DISTRACTOR	n/a	LTP338	ltpFR2	15	2	n/a	n/a	n/a	n/a	0	0	0
235542	START	n/a	LTP338	ltpFR2	15	n/a	n/a	n/a	2	n/a	n/a	n/a	n/a
235559	PROB	n/a	LTP338	ltpFR2	15	n/a	n/a	n/a	2	16	9	3	4
237259	PROB	n/a	LTP338	ltpFR2	15	n/a	n/a	n/a	2	17	5	7	5
239142	PROB	n/a	LTP338	ltpFR2	15	n/a	n/a	n/a	2	19	6	6	7
240557	PROB	n/a	LTP338	ltpFR2	15	n/a	n/a	n/a	2	14	3	3	8
242572	PROB	n/a	LTP338	ltpFR2	15	n/a	n/a	n/a	2	11	5	5	1
243773	PROB	n/a	LTP338	ltpFR2	15	n/a	n/a	n/a	2	18	8	6	4
245538	PROB	n/a	LTP338	ltpFR2	15	n/a	n/a	n/a	2	5	3	1	1
246604	PROB	n/a	LTP338	ltpFR2	15	n/a	n/a	n/a	2	12	4	5	3
248754	PROB	n/a	LTP338	ltpFR2	15	n/a	n/a	n/a	2	11	2	2	7
250702	PROB	n/a	LTP338	ltpFR2	15	n/a	n/a	n/a	2	13	6	1	6
252003	PROB	n/a	LTP338	ltpFR2	15	n/a	n/a	n/a	2	13	4	8	1
253517	PROB	n/a	LTP338	ltpFR2	15	n/a	n/a	n/a	2	14	1	4	9
256101	PROB	n/a	LTP338	ltpFR2	15	n/a	n/a	n/a	2	12	4	5	3
258163	STOP	n/a	LTP338	ltpFR2	15	n/a	n/a	n/a	2	n/a	n/a	n/a	n/a
260364	WORD	wordpools/wasnorm_wordpool_576.txt	LTP338	ltpFR2	15	2	SKILLET	1317	n/a	n/a	0	0	0
262898	WORD	wordpools/wasnorm_wordpool_576.txt	LTP338	ltpFR2	15	2	BUGGY	188	n/a	n/a	0	0	0
265695	WORD	wordpools/wasnorm_wordpool_576.txt	LTP338	ltpFR2	15	2	COMET	353	n/a	n/a	0	0	0
268229	WORD	wordpools/wasnorm_wordpool_576.txt	LTP338	ltpFR2	15	2	HATCHET	691	n/a	n/a	0	0	0
270761	WORD	wordpools/wasnorm_wordpool_576.txt	LTP338	ltpFR2	15	2	LIVER	833	n/a	n/a	0	0	0
273525	WORD	wordpools/wasnorm_wordpool_576.txt	LTP338	ltpFR2	15	2	KIDNEY	776	n/a	n/a	0	0	0
276341	WORD	wordpools/wasnorm_wordpool_576.txt	LTP338	ltpFR2	15	2	ARMY	39	n/a	n/a	0	0	0
278940	WORD	wordpools/wasnorm_wordpool_576.txt	LTP338	ltpFR2	15	2	CLOUD	328	n/a	n/a	0	0	0
281756	WORD	wordpools/wasnorm_wordpool_576.txt	LTP338	ltpFR2	15	2	PORTRAIT	1111	n/a	n/a	0	0	0
284370	WORD	wordpools/wasnorm_wordpool_576.txt	LTP338	ltpFR2	15	2	WAITER	1580	n/a	n/a	0	0	0
286853	WORD	wordpools/wasnorm_wordpool_576.txt	LTP338	ltpFR2	15	2	MAILBOX	857	n/a	n/a	0	0	0
289336	WORD	wordpools/wasnorm_wordpool_576.txt	LTP338	ltpFR2	15	2	BODY	145	n/a	n/a	0	0	0
291818	WORD	wordpools/wasnorm_wordpool_576.txt	LTP338	ltpFR2	15	2	ONION	977	n/a	n/a	0	0	0
294283	WORD	wordpools/wasnorm_wordpool_576.txt	LTP338	ltpFR2	15	2	BARREL	91	n/a	n/a	0	0	0
296882	WORD	wordpools/wasnorm_wordpool_576.txt	LTP338	ltpFR2	15	2	GANGSTER	620	n/a	n/a	0	0	0
299563	WORD	wordpools/wasnorm_wordpool_576.txt	LTP338	ltpFR2	15	2	STAPLE	1371	n/a	n/a	0	0	0
302113	WORD	wordpools/wasnorm_wordpool_576.txt	LTP338	ltpFR2	15	2	SLIDE	1326	n/a	n/a	0	0	0
304745	WORD	wordpools/wasnorm_wordpool_576.txt	LTP338	ltpFR2	15	2	BACKBONE	66	n/a	n/a	0	0	0
307526	WORD	wordpools/wasnorm_wordpool_576.txt	LTP338	ltpFR2	15	2	MARROW	872	n/a	n/a	0	0	0
310076	WORD	wordpools/wasnorm_wordpool_576.txt	LTP338	ltpFR2	15	2	BRIEFCASE	175	n/a	n/a	0	0	0
312892	WORD	wordpools/wasnorm_wordpool_576.txt	LTP338	ltpFR2	15	2	PAIL	1002	n/a	n/a	0	0	0
315573	WORD	wordpools/wasnorm_wordpool_576.txt	LTP338	ltpFR2	15	2	MAILMAN	858	n/a	n/a	0	0	0
318089	WORD	wordpools/wasnorm_wordpool_576.txt	LTP338	ltpFR2	15	2	CIGAR	308	n/a	n/a	0	0	0
320705	WORD	wordpools/wasnorm_wordpool_576.txt	LTP338	ltpFR2	15	2	VIRUS	1572	n/a	n/a	0	0	0
322321	START	n/a	LTP338	ltpFR2	15	n/a	n/a	n/a	3	n/a	n/a	n/a	n/a
323366	DISTRACTOR	n/a	LTP338	ltpFR2	15	2	n/a	n/a	n/a	n/a	0	0	0
323369	PROB	n/a	LTP338	ltpFR2	15	n/a	n/a	n/a	3	19	9	3	7
326136	PROB	n/a	LTP338	ltpFR2	15	n/a	n/a	n/a	3	11	8	1	2
327634	PROB	n/a	LTP338	ltpFR2	15	n/a	n/a	n/a	3	23	6	8	9
329483	PROB	n/a	LTP338	ltpFR2	15	n/a	n/a	n/a	3	20	3	9	8
331100	PROB	n/a	LTP338	ltpFR2	15	n/a	n/a	n/a	3	18	6	8	4
332665	PROB	n/a	LTP338	ltpFR2	15	n/a	n/a	n/a	3	20	9	9	2
334065	PROB	n/a	LTP338	ltpFR2	15	n/a	n/a	n/a	3	11	3	7	1
335281	PROB	n/a	LTP338	ltpFR2	15	n/a	n/a	n/a	3	20	8	6	6
336881	PROB	n/a	LTP338	ltpFR2	15	n/a	n/a	n/a	3	13	4	4	5
338696	PROB	n/a	LTP338	ltpFR2	15	n/a	n/a	n/a	3	9	2	6	1
340246	PROB	n/a	LTP338	ltpFR2	15	n/a	n/a	n/a	3	12	1	8	3
346321	STOP	n/a	LTP338	ltpFR2	15	n/a	n/a	n/a	3	n/a	n/a	n/a	n/a
348226	REC_START	n/a	LTP338	ltpFR2	15	2	n/a	n/a	n/a	n/a	0	0	0
349493	REC_WORD	wordpools/wasnorm_wordpool_576.txt	LTP338	ltpFR2	15	2	HATCHET	691	n/a	n/a	0	0	0
350144	REC_WORD	wordpools/wasnorm_wordpool_576.txt	LTP338	ltpFR2	15	2	SKILLET	1317	n/a	n/a	0	0	0
351043	REC_WORD	wordpools/wasnorm_wordpool_576.txt	LTP338	ltpFR2	15	2	COMET	353	n/a	n/a	0	0	0
352593	REC_WORD	wordpools/wasnorm_wordpool_576.txt	LTP338	ltpFR2	15	2	BUGGY	188	n/a	n/a	0	0	0
353635	REC_WORD	wordpools/wasnorm_wordpool_576.txt	LTP338	ltpFR2	15	2	LIVER	833	n/a	n/a	0	0	0
354260	REC_WORD	wordpools/wasnorm_wordpool_576.txt	LTP338	ltpFR2	15	2	KIDNEY	776	n/a	n/a	0	0	0
355385	REC_WORD	wordpools/wasnorm_wordpool_576.txt	LTP338	ltpFR2	15	2	BODY	145	n/a	n/a	0	0	0
356711	REC_WORD	wordpools/wasnorm_wordpool_576.txt	LTP338	ltpFR2	15	2	VIRUS	1572	n/a	n/a	0	0	0
357721	REC_WORD	wordpools/wasnorm_wordpool_576.txt	LTP338	ltpFR2	15	2	CIGAR	308	n/a	n/a	0	0	0
358904	REC_WORD	wordpools/wasnorm_wordpool_576.txt	LTP338	ltpFR2	15	2	GANGSTER	620	n/a	n/a	0	0	0
359674	REC_WORD	wordpools/wasnorm_wordpool_576.txt	LTP338	ltpFR2	15	2	BACKBONE	66	n/a	n/a	0	0	0
360640	REC_WORD	wordpools/wasnorm_wordpool_576.txt	LTP338	ltpFR2	15	2	MARROW	872	n/a	n/a	0	0	0
366312	REC_WORD	wordpools/wasnorm_wordpool_576.txt	LTP338	ltpFR2	15	2	BRIEFCASE	175	n/a	n/a	0	0	0
367312	REC_WORD_VV	wordpools/wasnorm_wordpool_576.txt	LTP338	ltpFR2	15	2	<>	-1	n/a	n/a	0	0	0
438650	DISTRACTOR	n/a	LTP338	ltpFR2	15	3	n/a	n/a	n/a	n/a	0	0	0
438651	START	n/a	LTP338	ltpFR2	15	n/a	n/a	n/a	4	n/a	n/a	n/a	n/a
438667	PROB	n/a	LTP338	ltpFR2	15	n/a	n/a	n/a	4	14	2	4	8
440616	PROB	n/a	LTP338	ltpFR2	15	n/a	n/a	n/a	4	16	3	8	5
442665	PROB	n/a	LTP338	ltpFR2	15	n/a	n/a	n/a	4	13	1	8	4
444481	PROB	n/a	LTP338	ltpFR2	15	n/a	n/a	n/a	4	11	1	7	3
446265	PROB	n/a	LTP338	ltpFR2	15	n/a	n/a	n/a	4	18	7	3	8
447596	PROB	n/a	LTP338	ltpFR2	15	n/a	n/a	n/a	4	11	3	7	1
449097	PROB	n/a	LTP338	ltpFR2	15	n/a	n/a	n/a	4	19	5	5	9
450313	PROB	n/a	LTP338	ltpFR2	15	n/a	n/a	n/a	4	12	2	1	9
451762	PROB	n/a	LTP338	ltpFR2	15	n/a	n/a	n/a	4	20	6	5	9
455161	PROB	n/a	LTP338	ltpFR2	15	n/a	n/a	n/a	4	11	4	4	3
456526	PROB	n/a	LTP338	ltpFR2	15	n/a	n/a	n/a	4	18	8	9	1
458026	PROB	n/a	LTP338	ltpFR2	15	n/a	n/a	n/a	4	14	8	3	3
460208	PROB	n/a	LTP338	ltpFR2	15	n/a	n/a	n/a	4	11	1	7	3
461849	STOP	n/a	LTP338	ltpFR2	15	n/a	n/a	n/a	4	n/a	n/a	n/a	n/a
463573	WORD	wordpools/wasnorm_wordpool_576.txt	LTP338	ltpFR2	15	3	PISTON	1076	n/a	n/a	0	0	0
466355	WORD	wordpools/wasnorm_wordpool_576.txt	LTP338	ltpFR2	15	3	FOOTBALL	591	n/a	n/a	0	0	0
468788	WORD	wordpools/wasnorm_wordpool_576.txt	LTP338	ltpFR2	15	3	COUCH	386	n/a	n/a	0	0	0
471536	WORD	wordpools/wasnorm_wordpool_576.txt	LTP338	ltpFR2	15	3	CRAB	397	n/a	n/a	0	0	0
473985	WORD	wordpools/wasnorm_wordpool_576.txt	LTP338	ltpFR2	15	3	CREATURE	403	n/a	n/a	0	0	0
476500	WORD	wordpools/wasnorm_wordpool_576.txt	LTP338	ltpFR2	15	3	CABIN	211	n/a	n/a	0	0	0
479150	WORD	wordpools/wasnorm_wordpool_576.txt	LTP338	ltpFR2	15	3	ATLAS	53	n/a	n/a	0	0	0
481865	WORD	wordpools/wasnorm_wordpool_576.txt	LTP338	ltpFR2	15	3	BREAST	171	n/a	n/a	0	0	0
484663	WORD	wordpools/wasnorm_wordpool_576.txt	LTP338	ltpFR2	15	3	OUTFIT	988	n/a	n/a	0	0	0
487146	WORD	wordpools/wasnorm_wordpool_576.txt	LTP338	ltpFR2	15	3	FLEET	578	n/a	n/a	0	0	0
489762	WORD	wordpools/wasnorm_wordpool_576.txt	LTP338	ltpFR2	15	3	GUARD	667	n/a	n/a	0	0	0
492344	WORD	wordpools/wasnorm_wordpool_576.txt	LTP338	ltpFR2	15	3	SCALLOP	1242	n/a	n/a	0	0	0
494776	WORD	wordpools/wasnorm_wordpool_576.txt	LTP338	ltpFR2	15	3	SUMMIT	1405	n/a	n/a	0	0	0
497574	WORD	wordpools/wasnorm_wordpool_576.txt	LTP338	ltpFR2	15	3	WIFE	1609	n/a	n/a	0	0	0
500207	WORD	wordpools/wasnorm_wordpool_576.txt	LTP338	ltpFR2	15	3	BULLET	194	n/a	n/a	0	0	0
503022	WORD	wordpools/wasnorm_wordpool_576.txt	LTP338	ltpFR2	15	3	PISTOL	1075	n/a	n/a	0	0	0
505504	WORD	wordpools/wasnorm_wordpool_576.txt	LTP338	ltpFR2	15	3	DRAWING	494	n/a	n/a	0	0	0
508053	WORD	wordpools/wasnorm_wordpool_576.txt	LTP338	ltpFR2	15	3	FRAME	600	n/a	n/a	0	0	0
510786	WORD	wordpools/wasnorm_wordpool_576.txt	LTP338	ltpFR2	15	3	FILM	565	n/a	n/a	0	0	0
513483	WORD	wordpools/wasnorm_wordpool_576.txt	LTP338	ltpFR2	15	3	TRANSPLANT	1496	n/a	n/a	0	0	0
516250	WORD	wordpools/wasnorm_wordpool_576.txt	LTP338	ltpFR2	15	3	PEBBLE	1035	n/a	n/a	0	0	0
519032	WORD	wordpools/wasnorm_wordpool_576.txt	LTP338	ltpFR2	15	3	HIKER	708	n/a	n/a	0	0	0
521847	WORD	wordpools/wasnorm_wordpool_576.txt	LTP338	ltpFR2	15	3	PERMIT	1051	n/a	n/a	0	0	0
524346	WORD	wordpools/wasnorm_wordpool_576.txt	LTP338	ltpFR2	15	3	NURSE	963	n/a	n/a	0	0	0
525962	START	n/a	LTP338	ltpFR2	15	n/a	n/a	n/a	5	n/a	n/a	n/a	n/a
526822	DISTRACTOR	n/a	LTP338	ltpFR2	15	3	n/a	n/a	n/a	n/a	0	0	0
526828	PROB	n/a	LTP338	ltpFR2	15	n/a	n/a	n/a	5	21	8	9	4
528794	PROB	n/a	LTP338	ltpFR2	15	n/a	n/a	n/a	5	18	3	8	7
530260	PROB	n/a	LTP338	ltpFR2	15	n/a	n/a	n/a	5	11	5	2	4
532342	PROB	n/a	LTP338	ltpFR2	15	n/a	n/a	n/a	5	12	8	2	2
533691	PROB	n/a	LTP338	ltpFR2	15	n/a	n/a	n/a	5	19	1	9	9
535373	PROB	n/a	LTP338	ltpFR2	15	n/a	n/a	n/a	5	11	2	1	8
537723	PROB	n/a	LTP338	ltpFR2	15	n/a	n/a	n/a	5	5	1	2	2
539139	PROB	n/a	LTP338	ltpFR2	15	n/a	n/a	n/a	5	22	6	7	9
541205	PROB	n/a	LTP338	ltpFR2	15	n/a	n/a	n/a	5	14	6	6	2
542620	PROB	n/a	LTP338	ltpFR2	15	n/a	n/a	n/a	5	14	4	7	3
544636	PROB	n/a	LTP338	ltpFR2	15	n/a	n/a	n/a	5	18	3	7	8
546003	PROB	n/a	LTP338	ltpFR2	15	n/a	n/a	n/a	5	15	6	3	6
547451	PROB	n/a	LTP338	ltpFR2	15	n/a	n/a	n/a	5	3	1	1	1
548643	STOP	n/a	LTP338	ltpFR2	15	n/a	n/a	n/a	5	n/a	n/a	n/a	n/a
551884	REC_START	n/a	LTP338	ltpFR2	15	3	n/a	n/a	n/a	n/a	0	0	0
553405	REC_WORD	wordpools/wasnorm_wordpool_576.txt	LTP338	ltpFR2	15	3	PISTON	1076	n/a	n/a	0	0	0
554148	REC_WORD	wordpools/wasnorm_wordpool_576.txt	LTP338	ltpFR2	15	3	PISTOL	1075	n/a	n/a	0	0	0
555827	REC_WORD	wordpools/wasnorm_wordpool_576.txt	LTP338	ltpFR2	15	3	PERMIT	1051	n/a	n/a	0	0	0
556373	REC_WORD	wordpools/wasnorm_wordpool_576.txt	LTP338	ltpFR2	15	3	FOOTBALL	591	n/a	n/a	0	0	0
558223	REC_WORD	wordpools/wasnorm_wordpool_576.txt	LTP338	ltpFR2	15	3	COUCH	386	n/a	n/a	0	0	0
558873	REC_WORD	wordpools/wasnorm_wordpool_576.txt	LTP338	ltpFR2	15	3	CRAB	397	n/a	n/a	0	0	0
559522	REC_WORD	wordpools/wasnorm_wordpool_576.txt	LTP338	ltpFR2	15	3	CREATURE	403	n/a	n/a	0	0	0
560335	REC_WORD	wordpools/wasnorm_wordpool_576.txt	LTP338	ltpFR2	15	3	CABIN	211	n/a	n/a	0	0	0
577865	REC_WORD	wordpools/wasnorm_wordpool_576.txt	LTP338	ltpFR2	15	3	HIKER	708	n/a	n/a	0	0	0
578581	REC_WORD	wordpools/wasnorm_wordpool_576.txt	LTP338	ltpFR2	15	3	TRANSPLANT	1496	n/a	n/a	0	0	0
582476	REC_WORD	wordpools/wasnorm_wordpool_576.txt	LTP338	ltpFR2	15	3	FRAME	600	n/a	n/a	0	0	0
583275	REC_WORD	wordpools/wasnorm_wordpool_576.txt	LTP338	ltpFR2	15	3	FILM	565	n/a	n/a	0	0	0
642326	DISTRACTOR	n/a	LTP338	ltpFR2	15	4	n/a	n/a	n/a	n/a	0	0	0
642326	START	n/a	LTP338	ltpFR2	15	n/a	n/a	n/a	6	n/a	n/a	n/a	n/a
642343	PROB	n/a	LTP338	ltpFR2	15	n/a	n/a	n/a	6	16	9	3	4
643859	PROB	n/a	LTP338	ltpFR2	15	n/a	n/a	n/a	6	16	8	2	6
645091	PROB	n/a	LTP338	ltpFR2	15	n/a	n/a	n/a	6	7	2	3	2
646891	PROB	n/a	LTP338	ltpFR2	15	n/a	n/a	n/a	6	12	3	6	3
648556	PROB	n/a	LTP338	ltpFR2	15	n/a	n/a	n/a	6	13	9	1	3
649789	PROB	n/a	LTP338	ltpFR2	15	n/a	n/a	n/a	6	19	7	6	6
651222	PROB	n/a	LTP338	ltpFR2	15	n/a	n/a	n/a	6	9	3	3	3
652587	PROB	n/a	LTP338	ltpFR2	15	n/a	n/a	n/a	6	17	4	5	8
654353	PROB	n/a	LTP338	ltpFR2	15	n/a	n/a	n/a	6	15	7	2	6
655887	PROB	n/a	LTP338	ltpFR2	15	n/a	n/a	n/a	6	15	7	2	6
657186	PROB	n/a	LTP338	ltpFR2	15	n/a	n/a	n/a	6	19	6	5	8
658701	PROB	n/a	LTP338	ltpFR2	15	n/a	n/a	n/a	6	12	2	7	3
660434	PROB	n/a	LTP338	ltpFR2	15	n/a	n/a	n/a	6	14	6	7	1
662682	PROB	n/a	LTP338	ltpFR2	15	n/a	n/a	n/a	6	11	4	6	1
665399	STOP	n/a	LTP338	ltpFR2	15	n/a	n/a	n/a	6	n/a	n/a	n/a	n/a
667198	WORD	wordpools/wasnorm_wordpool_576.txt	LTP338	ltpFR2	15	4	LONDON	843	n/a	n/a	0	0	0
669696	WORD	wordpools/wasnorm_wordpool_576.txt	LTP338	ltpFR2	15	4	ICING	732	n/a	n/a	0	0	0
672179	WORD	wordpools/wasnorm_wordpool_576.txt	LTP338	ltpFR2	15	4	FLASK	576	n/a	n/a	0	0	0
674728	WORD	wordpools/wasnorm_wordpool_576.txt	LTP338	ltpFR2	15	4	BIKE	125	n/a	n/a	0	0	0
677177	WORD	wordpools/wasnorm_wordpool_576.txt	LTP338	ltpFR2	15	4	SWITCH	1422	n/a	n/a	0	0	0
679909	WORD	wordpools/wasnorm_wordpool_576.txt	LTP338	ltpFR2	15	4	SADDLE	1221	n/a	n/a	0	0	0
682507	WORD	wordpools/wasnorm_wordpool_576.txt	LTP338	ltpFR2	15	4	MUFFIN	929	n/a	n/a	0	0	0
685240	WORD	wordpools/wasnorm_wordpool_576.txt	LTP338	ltpFR2	15	4	DRILL	497	n/a	n/a	0	0	0
687772	WORD	wordpools/wasnorm_wordpool_576.txt	LTP338	ltpFR2	15	4	FIREPLACE	570	n/a	n/a	0	0	0
690254	WORD	wordpools/wasnorm_wordpool_576.txt	LTP338	ltpFR2	15	4	COCKTAIL	338	n/a	n/a	0	0	0
692870	WORD	wordpools/wasnorm_wordpool_576.txt	LTP338	ltpFR2	15	4	SHOVEL	1295	n/a	n/a	0	0	0
695319	WORD	wordpools/wasnorm_wordpool_576.txt	LTP338	ltpFR2	15	4	BOYFRIEND	162	n/a	n/a	0	0	0
697901	WORD	wordpools/wasnorm_wordpool_576.txt	LTP338	ltpFR2	15	4	LOVER	846	n/a	n/a	0	0	0
700333	WORD	wordpools/wasnorm_wordpool_576.txt	LTP338	ltpFR2	15	4	WITNESS	1618	n/a	n/a	0	0	0
702932	WORD	wordpools/wasnorm_wordpool_576.txt	LTP338	ltpFR2	15	4	PROTON	1132	n/a	n/a	0	0	0
705380	WORD	wordpools/wasnorm_wordpool_576.txt	LTP338	ltpFR2	15	4	DANDRUFF	439	n/a	n/a	0	0	0
707996	WORD	wordpools/wasnorm_wordpool_576.txt	LTP338	ltpFR2	15	4	PALACE	1006	n/a	n/a	0	0	0
710677	WORD	wordpools/wasnorm_wordpool_576.txt	LTP338	ltpFR2	15	4	PEANUT	1032	n/a	n/a	0	0	0
713111	WORD	wordpools/wasnorm_wordpool_576.txt	LTP338	ltpFR2	15	4	BLOUSE	139	n/a	n/a	0	0	0
715592	WORD	wordpools/wasnorm_wordpool_576.txt	LTP338	ltpFR2	15	4	HELMET	702	n/a	n/a	0	0	0
718275	WORD	wordpools/wasnorm_wordpool_576.txt	LTP338	ltpFR2	15	4	SLUG	1329	n/a	n/a	0	0	0
720974	WORD	wordpools/wasnorm_wordpool_576.txt	LTP338	ltpFR2	15	4	FUNGUS	614	n/a	n/a	0	0	0
723405	WORD	wordpools/wasnorm_wordpool_576.txt	LTP338	ltpFR2	15	4	TABLE	1426	n/a	n/a	0	0	0
726138	WORD	wordpools/wasnorm_wordpool_576.txt	LTP338	ltpFR2	15	4	BINDER	127	n/a	n/a	0	0	0
727754	START	n/a	LTP338	ltpFR2	15	n/a	n/a	n/a	7	n/a	n/a	n/a	n/a
728661	DISTRACTOR	n/a	LTP338	ltpFR2	15	4	n/a	n/a	n/a	n/a	0	0	0
728669	PROB	n/a	LTP338	ltpFR2	15	n/a	n/a	n/a	7	13	3	5	5
730402	PROB	n/a	LTP338	ltpFR2	15	n/a	n/a	n/a	7	23	9	9	5
732169	PROB	n/a	LTP338	ltpFR2	15	n/a	n/a	n/a	7	15	6	8	1
734351	PROB	n/a	LTP338	ltpFR2	15	n/a	n/a	n/a	7	13	3	5	5
735699	PROB	n/a	LTP338	ltpFR2	15	n/a	n/a	n/a	7	18	9	8	1
738149	PROB	n/a	LTP338	ltpFR2	15	n/a	n/a	n/a	7	10	2	7	1
740082	PROB	n/a	LTP338	ltpFR2	15	n/a	n/a	n/a	7	14	9	1	4
741881	PROB	n/a	LTP338	ltpFR2	15	n/a	n/a	n/a	7	10	6	1	2
744063	PROB	n/a	LTP338	ltpFR2	15	n/a	n/a	n/a	7	22	8	5	9
749228	PROB	n/a	LTP338	ltpFR2	15	n/a	n/a	n/a	7	13	3	8	2
751275	STOP	n/a	LTP338	ltpFR2	15	n/a	n/a	n/a	7	n/a	n/a	n/a	n/a
753709	REC_START	n/a	LTP338	ltpFR2	15	4	n/a	n/a	n/a	n/a	0	0	0
754834	REC_WORD	wordpools/wasnorm_wordpool_576.txt	LTP338	ltpFR2	15	4	BINDER	127	n/a	n/a	0	0	0
756876	REC_WORD	wordpools/wasnorm_wordpool_576.txt	LTP338	ltpFR2	15	4	PEANUT	1032	n/a	n/a	0	0	0
757839	REC_WORD	wordpools/wasnorm_wordpool_576.txt	LTP338	ltpFR2	15	4	PROTON	1132	n/a	n/a	0	0	0
758684	REC_WORD	wordpools/wasnorm_wordpool_576.txt	LTP338	ltpFR2	15	4	PALACE	1006	n/a	n/a	0	0	0
759664	REC_WORD	wordpools/wasnorm_wordpool_576.txt	LTP338	ltpFR2	15	4	DANDRUFF	439	n/a	n/a	0	0	0
766492	REC_WORD	wordpools/wasnorm_wordpool_576.txt	LTP338	ltpFR2	15	4	BLOUSE	139	n/a	n/a	0	0	0
792799	REC_WORD	wordpools/wasnorm_wordpool_576.txt	LTP338	ltpFR2	15	4	LONDON	843	n/a	n/a	0	0	0
795889	REC_WORD	wordpools/wasnorm_wordpool_576.txt	LTP338	ltpFR2	15	4	SHOVEL	1295	n/a	n/a	0	0	0
844168	WORD	wordpools/wasnorm_wordpool_576.txt	LTP338	ltpFR2	15	5	LIGHTNING	820	n/a	n/a	0	0	0
846950	WORD	wordpools/wasnorm_wordpool_576.txt	LTP338	ltpFR2	15	5	TROUT	1511	n/a	n/a	0	0	0
849766	WORD	wordpools/wasnorm_wordpool_576.txt	LTP338	ltpFR2	15	5	MAMMAL	861	n/a	n/a	0	0	0
852231	WORD	wordpools/wasnorm_wordpool_576.txt	LTP338	ltpFR2	15	5	COUNTY	389	n/a	n/a	0	0	0
854662	WORD	wordpools/wasnorm_wordpool_576.txt	LTP338	ltpFR2	15	5	RACKET	1155	n/a	n/a	0	0	0
857461	WORD	wordpools/wasnorm_wordpool_576.txt	LTP338	ltpFR2	15	5	KNIFE	785	n/a	n/a	0	0	0
859911	WORD	wordpools/wasnorm_wordpool_576.txt	LTP338	ltpFR2	15	5	SISTER	1312	n/a	n/a	0	0	0
862592	WORD	wordpools/wasnorm_wordpool_576.txt	LTP338	ltpFR2	15	5	PIMPLE	1071	n/a	n/a	0	0	0
865292	WORD	wordpools/wasnorm_wordpool_576.txt	LTP338	ltpFR2	15	5	THRONE	1461	n/a	n/a	0	0	0
867924	WORD	wordpools/wasnorm_wordpool_576.txt	LTP338	ltpFR2	15	5	BLUEPRINT	142	n/a	n/a	0	0	0
870588	WORD	wordpools/wasnorm_wordpool_576.txt	LTP338	ltpFR2	15	5	PUPPY	1144	n/a	n/a	0	0	0
873055	WORD	wordpools/wasnorm_wordpool_576.txt	LTP338	ltpFR2	15	5	JUGGLER	763	n/a	n/a	0	0	0
875754	WORD	wordpools/wasnorm_wordpool_576.txt	LTP338	ltpFR2	15	5	SPOON	1357	n/a	n/a	0	0	0
878568	WORD	wordpools/wasnorm_wordpool_576.txt	LTP338	ltpFR2	15	5	APRON	35	n/a	n/a	0	0	0
881301	WORD	wordpools/wasnorm_wordpool_576.txt	LTP338	ltpFR2	15	5	AUTHOR	61	n/a	n/a	0	0	0
884050	WORD	wordpools/wasnorm_wordpool_576.txt	LTP338	ltpFR2	15	5	SIBLING	1301	n/a	n/a	0	0	0
886664	WORD	wordpools/wasnorm_wordpool_576.txt	LTP338	ltpFR2	15	5	POET	1095	n/a	n/a	0	0	0
889281	WORD	wordpools/wasnorm_wordpool_576.txt	LTP338	ltpFR2	15	5	PLAID	1080	n/a	n/a	0	0	0
891863	WORD	wordpools/wasnorm_wordpool_576.txt	LTP338	ltpFR2	15	5	ZIPPER	1636	n/a	n/a	0	0	0
894312	WORD	wordpools/wasnorm_wordpool_576.txt	LTP338	ltpFR2	15	5	HORSE	719	n/a	n/a	0	0	0
897077	WORD	wordpools/wasnorm_wordpool_576.txt	LTP338	ltpFR2	15	5	LOFT	840	n/a	n/a	0	0	0
899675	WORD	wordpools/wasnorm_wordpool_576.txt	LTP338	ltpFR2	15	5	JUDGE	761	n/a	n/a	0	0	0
902474	WORD	wordpools/wasnorm_wordpool_576.txt	LTP338	ltpFR2	15	5	JURY	766	n/a	n/a	0	0	0
904907	WORD	wordpools/wasnorm_wordpool_576.txt	LTP338	ltpFR2	15	5	SMOG	1330	n/a	n/a	0	0	0
906522	START	n/a	LTP338	ltpFR2	15	n/a	n/a	n/a	8	n/a	n/a	n/a	n/a
907563	DISTRACTOR	n/a	LTP338	ltpFR2	15	5	n/a	n/a	n/a	n/a	0	0	0
907572	PROB	n/a	LTP338	ltpFR2	15	n/a	n/a	n/a	8	17	3	8	6
909805	PROB	n/a	LTP338	ltpFR2	15	n/a	n/a	n/a	8	19	9	8	2
911520	PROB	n/a	LTP338	ltpFR2	15	n/a	n/a	n/a	8	11	5	5	1
912686	PROB	n/a	LTP338	ltpFR2	15	n/a	n/a	n/a	8	21	4	9	8
915418	PROB	n/a	LTP338	ltpFR2	15	n/a	n/a	n/a	8	19	6	7	6
917102	PROB	n/a	LTP338	ltpFR2	15	n/a	n/a	n/a	8	14	6	5	3
918650	PROB	n/a	LTP338	ltpFR2	15	n/a	n/a	n/a	8	10	6	1	2
920883	PROB	n/a	LTP338	ltpFR2	15	n/a	n/a	n/a	8	18	2	9	7
923715	PROB	n/a	LTP338	ltpFR2	15	n/a	n/a	n/a	8	23	7	8	8
927714	PROB	n/a	LTP338	ltpFR2	15	n/a	n/a	n/a	8	23	8	8	7
929080	STOP	n/a	LTP338	ltpFR2	15	n/a	n/a	n/a	8	n/a	n/a	n/a	n/a
932345	REC_START	n/a	LTP338	ltpFR2	15	5	n/a	n/a	n/a	n/a	0	0	0
935102	REC_WORD	wordpools/wasnorm_wordpool_576.txt	LTP338	ltpFR2	15	5	LIGHTNING	820	n/a	n/a	0	0	0
936665	REC_WORD	wordpools/wasnorm_wordpool_576.txt	LTP338	ltpFR2	15	5	LOFT	840	n/a	n/a	0	0	0
938043	REC_WORD	wordpools/wasnorm_wordpool_576.txt	LTP338	ltpFR2	15	5	JUGGLER	763	n/a	n/a	0	0	0
939236	REC_WORD	wordpools/wasnorm_wordpool_576.txt	LTP338	ltpFR2	15	5	SPOON	1357	n/a	n/a	0	0	0
939996	REC_WORD	wordpools/wasnorm_wordpool_576.txt	LTP338	ltpFR2	15	5	APRON	35	n/a	n/a	0	0	0
941358	REC_WORD	wordpools/wasnorm_wordpool_576.txt	LTP338	ltpFR2	15	5	JUDGE	761	n/a	n/a	0	0	0
941931	REC_WORD	wordpools/wasnorm_wordpool_576.txt	LTP338	ltpFR2	15	5	JURY	766	n/a	n/a	0	0	0
943883	REC_WORD	wordpools/wasnorm_wordpool_576.txt	LTP338	ltpFR2	15	5	ZIPPER	1636	n/a	n/a	0	0	0
944718	REC_WORD	wordpools/wasnorm_wordpool_576.txt	LTP338	ltpFR2	15	5	HORSE	719	n/a	n/a	0	0	0
947554	REC_WORD	wordpools/wasnorm_wordpool_576.txt	LTP338	ltpFR2	15	5	SISTER	1312	n/a	n/a	0	0	0
948426	REC_WORD	wordpools/wasnorm_wordpool_576.txt	LTP338	ltpFR2	15	5	SIBLING	1301	n/a	n/a	0	0	0
950061	REC_WORD	wordpools/wasnorm_wordpool_576.txt	LTP338	ltpFR2	15	5	PIMPLE	1071	n/a	n/a	0	0	0
951672	REC_WORD	wordpools/wasnorm_wordpool_576.txt	LTP338	ltpFR2	15	5	POET	1095	n/a	n/a	0	0	0
1022804	WORD	wordpools/wasnorm_wordpool_576.txt	LTP338	ltpFR2	15	6	GARBAGE	622	n/a	n/a	0	0	0
1025435	WORD	wordpools/wasnorm_wordpool_576.txt	LTP338	ltpFR2	15	6	RAZOR	1171	n/a	n/a	0	0	0
1028218	WORD	wordpools/wasnorm_wordpool_576.txt	LTP338	ltpFR2	15	6	STALLION	1369	n/a	n/a	0	0	0
1030784	WORD	wordpools/wasnorm_wordpool_576.txt	LTP338	ltpFR2	15	6	COOK	372	n/a	n/a	0	0	0
1033565	WORD	wordpools/wasnorm_wordpool_576.txt	LTP338	ltpFR2	15	6	PARSLEY	1016	n/a	n/a	0	0	0
1036065	WORD	wordpools/wasnorm_wordpool_576.txt	LTP338	ltpFR2	15	6	SPACE	1345	n/a	n/a	0	0	0
1038562	WORD	wordpools/wasnorm_wordpool_576.txt	LTP338	ltpFR2	15	6	HAWK	692	n/a	n/a	0	0	0
1041112	WORD	wordpools/wasnorm_wordpool_576.txt	LTP338	ltpFR2	15	6	SEAGULL	1261	n/a	n/a	0	0	0
1043643	WORD	wordpools/wasnorm_wordpool_576.txt	LTP338	ltpFR2	15	6	PLASTER	1085	n/a	n/a	0	0	0
1046060	WORD	wordpools/wasnorm_wordpool_576.txt	LTP338	ltpFR2	15	6	VALLEY	1545	n/a	n/a	0	0	0
1048508	WORD	wordpools/wasnorm_wordpool_576.txt	LTP338	ltpFR2	15	6	PECAN	1036	n/a	n/a	0	0	0
1051258	WORD	wordpools/wasnorm_wordpool_576.txt	LTP338	ltpFR2	15	6	QUARTER	1148	n/a	n/a	0	0	0
1053957	WORD	wordpools/wasnorm_wordpool_576.txt	LTP338	ltpFR2	15	6	YACHT	1629	n/a	n/a	0	0	0
1056722	WORD	wordpools/wasnorm_wordpool_576.txt	LTP338	ltpFR2	15	6	PEDAL	1037	n/a	n/a	0	0	0
1059237	WORD	wordpools/wasnorm_wordpool_576.txt	LTP338	ltpFR2	15	6	BLADE	134	n/a	n/a	0	0	0
1061685	WORD	wordpools/wasnorm_wordpool_576.txt	LTP338	ltpFR2	15	6	STAR	1373	n/a	n/a	0	0	0
1064169	WORD	wordpools/wasnorm_wordpool_576.txt	LTP338	ltpFR2	15	6	LEG	809	n/a	n/a	0	0	0
1066717	WORD	wordpools/wasnorm_wordpool_576.txt	LTP338	ltpFR2	15	6	WRIST	1626	n/a	n/a	0	0	0
1069316	WORD	wordpools/wasnorm_wordpool_576.txt	LTP338	ltpFR2	15	6	HEART	697	n/a	n/a	0	0	0
1072032	WORD	wordpools/wasnorm_wordpool_576.txt	LTP338	ltpFR2	15	6	BASEMENT	94	n/a	n/a	0	0	0
1074513	WORD	wordpools/wasnorm_wordpool_576.txt	LTP338	ltpFR2	15	6	VIKING	1565	n/a	n/a	0	0	0
1077213	WORD	wordpools/wasnorm_wordpool_576.txt	LTP338	ltpFR2	15	6	PUDDING	1139	n/a	n/a	0	0	0
1079644	WORD	wordpools/wasnorm_wordpool_576.txt	LTP338	ltpFR2	15	6	PIANO	1057	n/a	n/a	0	0	0
1082144	WORD	wordpools/wasnorm_wordpool_576.txt	LTP338	ltpFR2	15	6	GAVEL	627	n/a	n/a	0	0	0
1083760	START	n/a	LTP338	ltpFR2	15	n/a	n/a	n/a	9	n/a	n/a	n/a	n/a
1084892	DISTRACTOR	n/a	LTP338	ltpFR2	15	6	n/a	n/a	n/a	n/a	0	0	0
1084909	PROB	n/a	LTP338	ltpFR2	15	n/a	n/a	n/a	9	14	7	1	6
1086507	PROB	n/a	LTP338	ltpFR2	15	n/a	n/a	n/a	9	13	1	4	8
1087908	PROB	n/a	LTP338	ltpFR2	15	n/a	n/a	n/a	9	16	5	5	6
1089124	PROB	n/a	LTP338	ltpFR2	15	n/a	n/a	n/a	9	23	8	7	8
1091140	PROB	n/a	LTP338	ltpFR2	15	n/a	n/a	n/a	9	22	7	6	9
1094437	PROB	n/a	LTP338	ltpFR2	15	n/a	n/a	n/a	9	13	4	8	1
1095721	PROB	n/a	LTP338	ltpFR2	15	n/a	n/a	n/a	9	20	3	8	9
1097703	PROB	n/a	LTP338	ltpFR2	15	n/a	n/a	n/a	9	15	6	4	5
1099286	PROB	n/a	LTP338	ltpFR2	15	n/a	n/a	n/a	9	17	8	3	6
1100969	PROB	n/a	LTP338	ltpFR2	15	n/a	n/a	n/a	9	20	7	6	7
1102700	PROB	n/a	LTP338	ltpFR2	15	n/a	n/a	n/a	9	11	3	4	4
1104317	PROB	n/a	LTP338	ltpFR2	15	n/a	n/a	n/a	9	7	1	3	3
1105833	PROB	n/a	LTP338	ltpFR2	15	n/a	n/a	n/a	9	15	8	6	1
1107174	STOP	n/a	LTP338	ltpFR2	15	n/a	n/a	n/a	9	n/a	n/a	n/a	n/a
1109665	REC_START	n/a	LTP338	ltpFR2	15	6	n/a	n/a	n/a	n/a	0	0	0
1110997	REC_WORD	wordpools/wasnorm_wordpool_576.txt	LTP338	ltpFR2	15	6	PECAN	1036	n/a	n/a	0	0	0
1111874	REC_WORD	wordpools/wasnorm_wordpool_576.txt	LTP338	ltpFR2	15	6	PEDAL	1037	n/a	n/a	0	0	0
1113851	REC_WORD	wordpools/wasnorm_wordpool_576.txt	LTP338	ltpFR2	15	6	STALLION	1369	n/a	n/a	0	0	0
1114753	REC_WORD	wordpools/wasnorm_wordpool_576.txt	LTP338	ltpFR2	15	6	STAR	1373	n/a	n/a	0	0	0
1116176	REC_WORD	wordpools/wasnorm_wordpool_576.txt	LTP338	ltpFR2	15	6	HAWK	692	n/a	n/a	0	0	0
1116788	REC_WORD	wordpools/wasnorm_wordpool_576.txt	LTP338	ltpFR2	15	6	SEAGULL	1261	n/a	n/a	0	0	0
1118597	REC_WORD	wordpools/wasnorm_wordpool_576.txt	LTP338	ltpFR2	15	6	WRIST	1626	n/a	n/a	0	0	0
1119197	REC_WORD	wordpools/wasnorm_wordpool_576.txt	LTP338	ltpFR2	15	6	BLADE	134	n/a	n/a	0	0	0
1120480	REC_WORD	wordpools/wasnorm_wordpool_576.txt	LTP338	ltpFR2	15	6	HEART	697	n/a	n/a	0	0	0
1127972	REC_WORD	wordpools/wasnorm_wordpool_576.txt	LTP338	ltpFR2	15	6	GAVEL	627	n/a	n/a	0	0	0
1143763	REC_WORD	wordpools/wasnorm_wordpool_576.txt	LTP338	ltpFR2	15	6	PUDDING	1139	n/a	n/a	0	0	0
1200124	WORD	wordpools/wasnorm_wordpool_576.txt	LTP338	ltpFR2	15	7	SHARK	1275	n/a	n/a	0	0	0
1202588	WORD	wordpools/wasnorm_wordpool_576.txt	LTP338	ltpFR2	15	7	RAFT	1159	n/a	n/a	0	0	0
1205288	WORD	wordpools/wasnorm_wordpool_576.txt	LTP338	ltpFR2	15	7	OX	994	n/a	n/a	0	0	0
1207854	WORD	wordpools/wasnorm_wordpool_576.txt	LTP338	ltpFR2	15	7	CHIPMUNK	304	n/a	n/a	0	0	0
1210501	WORD	wordpools/wasnorm_wordpool_576.txt	LTP338	ltpFR2	15	7	EMPIRE	530	n/a	n/a	0	0	0
1212985	WORD	wordpools/wasnorm_wordpool_576.txt	LTP338	ltpFR2	15	7	SHERIFF	1284	n/a	n/a	0	0	0
1215449	WORD	wordpools/wasnorm_wordpool_576.txt	LTP338	ltpFR2	15	7	BLOCKADE	137	n/a	n/a	0	0	0
1218032	WORD	wordpools/wasnorm_wordpool_576.txt	LTP338	ltpFR2	15	7	COLONEL	348	n/a	n/a	0	0	0
1220764	WORD	wordpools/wasnorm_wordpool_576.txt	LTP338	ltpFR2	15	7	SEAL	1262	n/a	n/a	0	0	0
1223213	WORD	wordpools/wasnorm_wordpool_576.txt	LTP338	ltpFR2	15	7	PERFUME	1049	n/a	n/a	0	0	0
1225796	WORD	wordpools/wasnorm_wordpool_576.txt	LTP338	ltpFR2	15	7	YOLK	1633	n/a	n/a	0	0	0
1228393	WORD	wordpools/wasnorm_wordpool_576.txt	LTP338	ltpFR2	15	7	DAISY	435	n/a	n/a	0	0	0
1231060	WORD	wordpools/wasnorm_wordpool_576.txt	LTP338	ltpFR2	15	7	HONEY	713	n/a	n/a	0	0	0
1233624	WORD	wordpools/wasnorm_wordpool_576.txt	LTP338	ltpFR2	15	7	BUCKET	184	n/a	n/a	0	0	0
1236307	WORD	wordpools/wasnorm_wordpool_576.txt	LTP338	ltpFR2	15	7	NAPKIN	937	n/a	n/a	0	0	0
1238756	WORD	wordpools/wasnorm_wordpool_576.txt	LTP338	ltpFR2	15	7	PICNIC	1060	n/a	n/a	0	0	0
1241371	WORD	wordpools/wasnorm_wordpool_576.txt	LTP338	ltpFR2	15	7	DUST	508	n/a	n/a	0	0	0
1243937	WORD	wordpools/wasnorm_wordpool_576.txt	LTP338	ltpFR2	15	7	STAMP	1370	n/a	n/a	0	0	0
1246685	WORD	wordpools/wasnorm_wordpool_576.txt	LTP338	ltpFR2	15	7	DIVER	476	n/a	n/a	0	0	0
1249285	WORD	wordpools/wasnorm_wordpool_576.txt	LTP338	ltpFR2	15	7	PASTRY	1022	n/a	n/a	0	0	0
1251784	WORD	wordpools/wasnorm_wordpool_576.txt	LTP338	ltpFR2	15	7	TREAT	1501	n/a	n/a	0	0	0
1254515	WORD	wordpools/wasnorm_wordpool_576.txt	LTP338	ltpFR2	15	7	CATTLE	261	n/a	n/a	0	0	0
1256948	WORD	wordpools/wasnorm_wordpool_576.txt	LTP338	ltpFR2	15	7	GRAVE	658	n/a	n/a	0	0	0
1259546	WORD	wordpools/wasnorm_wordpool_576.txt	LTP338	ltpFR2	15	7	TOMBSTONE	1478	n/a	n/a	0	0	0
1261163	START	n/a	LTP338	ltpFR2	15	n/a	n/a	n/a	10	n/a	n/a	n/a	n/a
1262187	DISTRACTOR	n/a	LTP338	ltpFR2	15	7	n/a	n/a	n/a	n/a	0	0	0
1262196	PROB	n/a	LTP338	ltpFR2	15	n/a	n/a	n/a	10	20	8	8	4
1264045	PROB	n/a	LTP338	ltpFR2	15	n/a	n/a	n/a	10	18	9	1	8
1265393	PROB	n/a	LTP338	ltpFR2	15	n/a	n/a	n/a	10	14	4	5	5
1266609	PROB	n/a	LTP338	ltpFR2	15	n/a	n/a	n/a	10	14	8	1	5
1268425	PROB	n/a	LTP338	ltpFR2	15	n/a	n/a	n/a	10	9	1	7	1
1270325	PROB	n/a	LTP338	ltpFR2	15	n/a	n/a	n/a	10	9	2	6	1
1271908	PROB	n/a	LTP338	ltpFR2	15	n/a	n/a	n/a	10	21	6	9	6
1273490	PROB	n/a	LTP338	ltpFR2	15	n/a	n/a	n/a	10	20	6	5	9
1274890	PROB	n/a	LTP338	ltpFR2	15	n/a	n/a	n/a	10	17	3	8	6
1276839	PROB	n/a	LTP338	ltpFR2	15	n/a	n/a	n/a	10	13	7	5	1
1279454	PROB	n/a	LTP338	ltpFR2	15	n/a	n/a	n/a	10	10	1	7	2
1281170	PROB	n/a	LTP338	ltpFR2	15	n/a	n/a	n/a	10	18	9	5	4
1282836	PROB	n/a	LTP338	ltpFR2	15	n/a	n/a	n/a	10	12	2	3	7
1284474	STOP	n/a	LTP338	ltpFR2	15	n/a	n/a	n/a	10	n/a	n/a	n/a	n/a
1286969	REC_START	n/a	LTP338	ltpFR2	15	7	n/a	n/a	n/a	n/a	0	0	0
1289695	REC_WORD	wordpools/wasnorm_wordpool_576.txt	LTP338	ltpFR2	15	7	TOMBSTONE	1478	n/a	n/a	0	0	0
1290875	REC_WORD	wordpools/wasnorm_wordpool_576.txt	LTP338	ltpFR2	15	7	GRAVE	658	n/a	n/a	0	0	0
1292753	REC_WORD	wordpools/wasnorm_wordpool_576.txt	LTP338	ltpFR2	15	7	CHIPMUNK	304	n/a	n/a	0	0	0
1293365	REC_WORD	wordpools/wasnorm_wordpool_576.txt	LTP338	ltpFR2	15	7	OX	994	n/a	n/a	0	0	0
1294290	REC_WORD	wordpools/wasnorm_wordpool_576.txt	LTP338	ltpFR2	15	7	CATTLE	261	n/a	n/a	0	0	0
1296637	REC_WORD	wordpools/wasnorm_wordpool_576.txt	LTP338	ltpFR2	15	7	YOLK	1633	n/a	n/a	0	0	0
1305286	REC_WORD	wordpools/wasnorm_wordpool_576.txt	LTP338	ltpFR2	15	7	DIVER	476	n/a	n/a	0	0	0
1308844	REC_WORD	wordpools/wasnorm_wordpool_576.txt	LTP338	ltpFR2	15	7	PASTRY	1022	n/a	n/a	0	0	0
1309775	REC_WORD	wordpools/wasnorm_wordpool_576.txt	LTP338	ltpFR2	15	7	TREAT	1501	n/a	n/a	0	0	0
1377426	DISTRACTOR	n/a	LTP338	ltpFR2	15	8	n/a	n/a	n/a	n/a	0	0	0
1377426	START	n/a	LTP338	ltpFR2	15	n/a	n/a	n/a	11	n/a	n/a	n/a	n/a
1377443	PROB	n/a	LTP338	ltpFR2	15	n/a	n/a	n/a	11	11	2	7	2
1379093	PROB	n/a	LTP338	ltpFR2	15	n/a	n/a	n/a	11	11	3	4	4
1380992	PROB	n/a	LTP338	ltpFR2	15	n/a	n/a	n/a	11	8	1	5	2
1382590	PROB	n/a	LTP338	ltpFR2	15	n/a	n/a	n/a	11	15	4	2	9
1384456	PROB	n/a	LTP338	ltpFR2	15	n/a	n/a	n/a	11	16	9	2	5
1386605	PROB	n/a	LTP338	ltpFR2	15	n/a	n/a	n/a	11	6	2	3	1
1388471	PROB	n/a	LTP338	ltpFR2	15	n/a	n/a	n/a	11	15	1	6	8
1390754	PROB	n/a	LTP338	ltpFR2	15	n/a	n/a	n/a	11	27	9	9	9
1392519	PROB	n/a	LTP338	ltpFR2	15	n/a	n/a	n/a	11	17	7	9	1
1394103	PROB	n/a	LTP338	ltpFR2	15	n/a	n/a	n/a	11	21	8	4	9
1396384	PROB	n/a	LTP338	ltpFR2	15	n/a	n/a	n/a	11	13	9	2	1
1401426	STOP	n/a	LTP338	ltpFR2	15	n/a	n/a	n/a	11	n/a	n/a	n/a	n/a
1402531	WORD	wordpools/wasnorm_wordpool_576.txt	LTP338	ltpFR2	15	8	TOASTER	1472	n/a	n/a	0	0	0
1405031	WORD	wordpools/wasnorm_wordpool_576.txt	LTP338	ltpFR2	15	8	GHETTO	633	n/a	n/a	0	0	0
1407496	WORD	wordpools/wasnorm_wordpool_576.txt	LTP338	ltpFR2	15	8	SCULPTURE	1258	n/a	n/a	0	0	0
1410262	WORD	wordpools/wasnorm_wordpool_576.txt	LTP338	ltpFR2	15	8	LEADER	807	n/a	n/a	0	0	0
1412961	WORD	wordpools/wasnorm_wordpool_576.txt	LTP338	ltpFR2	15	8	PEPPER	1047	n/a	n/a	0	0	0
1415509	WORD	wordpools/wasnorm_wordpool_576.txt	LTP338	ltpFR2	15	8	POPCORN	1104	n/a	n/a	0	0	0
1418175	WORD	wordpools/wasnorm_wordpool_576.txt	LTP338	ltpFR2	15	8	WOMAN	1620	n/a	n/a	0	0	0
1420957	WORD	wordpools/wasnorm_wordpool_576.txt	LTP338	ltpFR2	15	8	FEMALE	559	n/a	n/a	0	0	0
1423505	WORD	wordpools/wasnorm_wordpool_576.txt	LTP338	ltpFR2	15	8	SCISSORS	1250	n/a	n/a	0	0	0
1426005	WORD	wordpools/wasnorm_wordpool_576.txt	LTP338	ltpFR2	15	8	LASER	801	n/a	n/a	0	0	0
1428553	WORD	wordpools/wasnorm_wordpool_576.txt	LTP338	ltpFR2	15	8	BLENDER	136	n/a	n/a	0	0	0
1431169	WORD	wordpools/wasnorm_wordpool_576.txt	LTP338	ltpFR2	15	8	COSTUME	383	n/a	n/a	0	0	0
1433935	WORD	wordpools/wasnorm_wordpool_576.txt	LTP338	ltpFR2	15	8	THREAD	1460	n/a	n/a	0	0	0
1436483	WORD	wordpools/wasnorm_wordpool_576.txt	LTP338	ltpFR2	15	8	SNACK	1331	n/a	n/a	0	0	0
1439132	WORD	wordpools/wasnorm_wordpool_576.txt	LTP338	ltpFR2	15	8	FOREST	593	n/a	n/a	0	0	0
1441597	WORD	wordpools/wasnorm_wordpool_576.txt	LTP338	ltpFR2	15	8	RABBIT	1152	n/a	n/a	0	0	0
1444247	WORD	wordpools/wasnorm_wordpool_576.txt	LTP338	ltpFR2	15	8	BUNNY	198	n/a	n/a	0	0	0
1446862	WORD	wordpools/wasnorm_wordpool_576.txt	LTP338	ltpFR2	15	8	GRIZZLY	662	n/a	n/a	0	0	0
1449427	WORD	wordpools/wasnorm_wordpool_576.txt	LTP338	ltpFR2	15	8	GRILL	661	n/a	n/a	0	0	0
1452043	WORD	wordpools/wasnorm_wordpool_576.txt	LTP338	ltpFR2	15	8	TUBA	1515	n/a	n/a	0	0	0
1454775	WORD	wordpools/wasnorm_wordpool_576.txt	LTP338	ltpFR2	15	8	WHISTLE	1606	n/a	n/a	0	0	0
1457490	WORD	wordpools/wasnorm_wordpool_576.txt	LTP338	ltpFR2	15	8	LABEL	790	n/a	n/a	0	0	0
1460239	WORD	wordpools/wasnorm_wordpool_576.txt	LTP338	ltpFR2	15	8	SPOOL	1356	n/a	n/a	0	0	0
1462705	WORD	wordpools/wasnorm_wordpool_576.txt	LTP338	ltpFR2	15	8	SERVER	1272	n/a	n/a	0	0	0
1464321	START	n/a	LTP338	ltpFR2	15	n/a	n/a	n/a	12	n/a	n/a	n/a	n/a
1465126	DISTRACTOR	n/a	LTP338	ltpFR2	15	8	n/a	n/a	n/a	n/a	0	0	0
1465137	PROB	n/a	LTP338	ltpFR2	15	n/a	n/a	n/a	12	23	8	6	9
1466953	PROB	n/a	LTP338	ltpFR2	15	n/a	n/a	n/a	12	19	4	9	6
1469818	PROB	n/a	LTP338	ltpFR2	15	n/a	n/a	n/a	12	7	3	1	3
1471383	PROB	n/a	LTP338	ltpFR2	15	n/a	n/a	n/a	12	12	1	5	6
1473084	PROB	n/a	LTP338	ltpFR2	15	n/a	n/a	n/a	12	16	7	3	6
1474682	PROB	n/a	LTP338	ltpFR2	15	n/a	n/a	n/a	12	16	8	3	5
1476398	PROB	n/a	LTP338	ltpFR2	15	n/a	n/a	n/a	12	18	8	2	8
1478697	PROB	n/a	LTP338	ltpFR2	15	n/a	n/a	n/a	12	15	3	4	8
1480446	PROB	n/a	LTP338	ltpFR2	15	n/a	n/a	n/a	12	11	4	2	5
1481846	PROB	n/a	LTP338	ltpFR2	15	n/a	n/a	n/a	12	21	5	9	7
1484062	PROB	n/a	LTP338	ltpFR2	15	n/a	n/a	n/a	12	10	4	1	5
1485894	PROB	n/a	LTP338	ltpFR2	15	n/a	n/a	n/a	12	11	1	2	8
1487906	STOP	n/a	LTP338	ltpFR2	15	n/a	n/a	n/a	12	n/a	n/a	n/a	n/a
1490226	REC_START	n/a	LTP338	ltpFR2	15	8	n/a	n/a	n/a	n/a	0	0	0
1492907	REC_WORD	wordpools/wasnorm_wordpool_576.txt	LTP338	ltpFR2	15	8	SPOOL	1356	n/a	n/a	0	0	0
1493538	REC_WORD	wordpools/wasnorm_wordpool_576.txt	LTP338	ltpFR2	15	8	THREAD	1460	n/a	n/a	0	0	0
1495818	REC_WORD	wordpools/wasnorm_wordpool_576.txt	LTP338	ltpFR2	15	8	COSTUME	383	n/a	n/a	0	0	0
1496789	REC_WORD	wordpools/wasnorm_wordpool_576.txt	LTP338	ltpFR2	15	8	SNACK	1331	n/a	n/a	0	0	0
1497551	REC_WORD	wordpools/wasnorm_wordpool_576.txt	LTP338	ltpFR2	15	8	FOREST	593	n/a	n/a	0	0	0
1498768	REC_WORD	wordpools/wasnorm_wordpool_576.txt	LTP338	ltpFR2	15	8	RABBIT	1152	n/a	n/a	0	0	0
1499431	REC_WORD	wordpools/wasnorm_wordpool_576.txt	LTP338	ltpFR2	15	8	BUNNY	198	n/a	n/a	0	0	0
1500432	REC_WORD	wordpools/wasnorm_wordpool_576.txt	LTP338	ltpFR2	15	8	GRIZZLY	662	n/a	n/a	0	0	0
1501281	REC_WORD	wordpools/wasnorm_wordpool_576.txt	LTP338	ltpFR2	15	8	GRILL	661	n/a	n/a	0	0	0
1511835	REC_WORD	wordpools/wasnorm_wordpool_576.txt	LTP338	ltpFR2	15	8	SCISSORS	1250	n/a	n/a	0	0	0
1513286	REC_WORD	wordpools/wasnorm_wordpool_576.txt	LTP338	ltpFR2	15	8	LASER	801	n/a	n/a	0	0	0
1513794	REC_WORD	wordpools/wasnorm_wordpool_576.txt	LTP338	ltpFR2	15	8	BLENDER	136	n/a	n/a	0	0	0
1566758	REST_REWET	n/a	LTP338	ltpFR2	15	8	n/a	n/a	n/a	n/a	0	0	0
1615003	DISTRACTOR	n/a	LTP338	ltpFR2	15	9	n/a	n/a	n/a	n/a	0	0	0
1615003	START	n/a	LTP338	ltpFR2	15	n/a	n/a	n/a	13	n/a	n/a	n/a	n/a
1615019	PROB	n/a	LTP338	ltpFR2	15	n/a	n/a	n/a	13	18	7	7	4
1617068	PROB	n/a	LTP338	ltpFR2	15	n/a	n/a	n/a	13	22	6	7	9
1619034	PROB	n/a	LTP338	ltpFR2	15	n/a	n/a	n/a	13	10	2	4	4
1620466	PROB	n/a	LTP338	ltpFR2	15	n/a	n/a	n/a	13	71	2	7	8
1622632	PROB	n/a	LTP338	ltpFR2	15	n/a	n/a	n/a	13	10	4	2	4
1624982	PROB	n/a	LTP338	ltpFR2	15	n/a	n/a	n/a	13	11	2	1	8
1626281	PROB	n/a	LTP338	ltpFR2	15	n/a	n/a	n/a	13	21	6	9	6
1627646	PROB	n/a	LTP338	ltpFR2	15	n/a	n/a	n/a	13	16	5	9	2
1629913	PROB	n/a	LTP338	ltpFR2	15	n/a	n/a	n/a	13	14	7	3	4
1631262	PROB	n/a	LTP338	ltpFR2	15	n/a	n/a	n/a	13	11	1	7	3
1632778	PROB	n/a	LTP338	ltpFR2	15	n/a	n/a	n/a	13	10	1	4	5
1634161	PROB	n/a	LTP338	ltpFR2	15	n/a	n/a	n/a	13	17	5	7	5
1635492	PROB	n/a	LTP338	ltpFR2	15	n/a	n/a	n/a	13	18	5	5	8
1636726	PROB	n/a	LTP338	ltpFR2	15	n/a	n/a	n/a	13	17	6	7	4
1638879	STOP	n/a	LTP338	ltpFR2	15	n/a	n/a	n/a	13	n/a	n/a	n/a	n/a
1640008	WORD	wordpools/wasnorm_wordpool_576.txt	LTP338	ltpFR2	15	9	EUROPE	541	n/a	n/a	0	0	0
1642473	WORD	wordpools/wasnorm_wordpool_576.txt	LTP338	ltpFR2	15	9	COUNTRY	388	n/a	n/a	0	0	0
1645156	WORD	wordpools/wasnorm_wordpool_576.txt	LTP338	ltpFR2	15	9	MOTEL	919	n/a	n/a	0	0	0
1647804	WORD	wordpools/wasnorm_wordpool_576.txt	LTP338	ltpFR2	15	9	CARROT	249	n/a	n/a	0	0	0
1650469	WORD	wordpools/wasnorm_wordpool_576.txt	LTP338	ltpFR2	15	9	DRINK	498	n/a	n/a	0	0	0
1652902	WORD	wordpools/wasnorm_wordpool_576.txt	LTP338	ltpFR2	15	9	STATUE	1374	n/a	n/a	0	0	0
1655450	WORD	wordpools/wasnorm_wordpool_576.txt	LTP338	ltpFR2	15	9	SHIRT	1287	n/a	n/a	0	0	0
1658100	WORD	wordpools/wasnorm_wordpool_576.txt	LTP338	ltpFR2	15	9	POSSUM	1112	n/a	n/a	0	0	0
1660749	WORD	wordpools/wasnorm_wordpool_576.txt	LTP338	ltpFR2	15	9	BEAVER	109	n/a	n/a	0	0	0
1663546	WORD	wordpools/wasnorm_wordpool_576.txt	LTP338	ltpFR2	15	9	SPONGE	1355	n/a	n/a	0	0	0
1666263	WORD	wordpools/wasnorm_wordpool_576.txt	LTP338	ltpFR2	15	9	MOP	916	n/a	n/a	0	0	0
1668862	WORD	wordpools/wasnorm_wordpool_576.txt	LTP338	ltpFR2	15	9	IDOL	733	n/a	n/a	0	0	0
1671609	WORD	wordpools/wasnorm_wordpool_576.txt	LTP338	ltpFR2	15	9	QUAIL	1147	n/a	n/a	0	0	0
1674293	WORD	wordpools/wasnorm_wordpool_576.txt	LTP338	ltpFR2	15	9	BALLOON	75	n/a	n/a	0	0	0
1677091	WORD	wordpools/wasnorm_wordpool_576.txt	LTP338	ltpFR2	15	9	BISON	131	n/a	n/a	0	0	0
1679773	WORD	wordpools/wasnorm_wordpool_576.txt	LTP338	ltpFR2	15	9	KITCHEN	778	n/a	n/a	0	0	0
1682421	WORD	wordpools/wasnorm_wordpool_576.txt	LTP338	ltpFR2	15	9	SNAKE	1333	n/a	n/a	0	0	0
1685171	WORD	wordpools/wasnorm_wordpool_576.txt	LTP338	ltpFR2	15	9	SOFTBALL	1343	n/a	n/a	0	0	0
1687753	WORD	wordpools/wasnorm_wordpool_576.txt	LTP338	ltpFR2	15	9	LODGE	839	n/a	n/a	0	0	0
1690551	WORD	wordpools/wasnorm_wordpool_576.txt	LTP338	ltpFR2	15	9	NOVEL	960	n/a	n/a	0	0	0
1693201	WORD	wordpools/wasnorm_wordpool_576.txt	LTP338	ltpFR2	15	9	TART	1436	n/a	n/a	0	0	0
1695749	WORD	wordpools/wasnorm_wordpool_576.txt	LTP338	ltpFR2	15	9	ITEM	746	n/a	n/a	0	0	0
1698332	WORD	wordpools/wasnorm_wordpool_576.txt	LTP338	ltpFR2	15	9	EAGLE	512	n/a	n/a	0	0	0
1700897	WORD	wordpools/wasnorm_wordpool_576.txt	LTP338	ltpFR2	15	9	CRICKET	408	n/a	n/a	0	0	0
1702512	START	n/a	LTP338	ltpFR2	15	n/a	n/a	n/a	14	n/a	n/a	n/a	n/a
1703455	DISTRACTOR	n/a	LTP338	ltpFR2	15	9	n/a	n/a	n/a	n/a	0	0	0
1703462	PROB	n/a	LTP338	ltpFR2	15	n/a	n/a	n/a	14	12	4	3	5
1705361	PROB	n/a	LTP338	ltpFR2	15	n/a	n/a	n/a	14	8	2	4	2
1706928	PROB	n/a	LTP338	ltpFR2	15	n/a	n/a	n/a	14	17	8	8	1
1708643	PROB	n/a	LTP338	ltpFR2	15	n/a	n/a	n/a	14	20	2	9	9
1711558	PROB	n/a	LTP338	ltpFR2	15	n/a	n/a	n/a	14	11	1	9	1
1712958	PROB	n/a	LTP338	ltpFR2	15	n/a	n/a	n/a	14	14	6	2	6
1714291	PROB	n/a	LTP338	ltpFR2	15	n/a	n/a	n/a	14	12	5	5	2
1715440	PROB	n/a	LTP338	ltpFR2	15	n/a	n/a	n/a	14	18	8	6	4
1716790	PROB	n/a	LTP338	ltpFR2	15	n/a	n/a	n/a	14	8	2	2	4
1717956	PROB	n/a	LTP338	ltpFR2	15	n/a	n/a	n/a	14	1	4	6	5
1719588	PROB	n/a	LTP338	ltpFR2	15	n/a	n/a	n/a	14	14	7	6	1
1722204	PROB	n/a	LTP338	ltpFR2	15	n/a	n/a	n/a	14	6	3	1	2
1724870	PROB	n/a	LTP338	ltpFR2	15	n/a	n/a	n/a	14	14	3	7	4
1726073	STOP	n/a	LTP338	ltpFR2	15	n/a	n/a	n/a	14	n/a	n/a	n/a	n/a
1728384	REC_START	n/a	LTP338	ltpFR2	15	9	n/a	n/a	n/a	n/a	0	0	0
1731711	REC_WORD	wordpools/wasnorm_wordpool_576.txt	LTP338	ltpFR2	15	9	EUROPE	541	n/a	n/a	0	0	0
1732395	REC_WORD	wordpools/wasnorm_wordpool_576.txt	LTP338	ltpFR2	15	9	MOTEL	919	n/a	n/a	0	0	0
1733405	REC_WORD	wordpools/wasnorm_wordpool_576.txt	LTP338	ltpFR2	15	9	LODGE	839	n/a	n/a	0	0	0
1734213	REC_WORD	wordpools/wasnorm_wordpool_576.txt	LTP338	ltpFR2	15	9	NOVEL	960	n/a	n/a	0	0	0
1735555	REC_WORD	wordpools/wasnorm_wordpool_576.txt	LTP338	ltpFR2	15	9	IDOL	733	n/a	n/a	0	0	0
1736216	REC_WORD	wordpools/wasnorm_wordpool_576.txt	LTP338	ltpFR2	15	9	BALLOON	75	n/a	n/a	0	0	0
1738070	REC_WORD	wordpools/wasnorm_wordpool_576.txt	LTP338	ltpFR2	15	9	POSSUM	1112	n/a	n/a	0	0	0
1740863	REC_WORD	wordpools/wasnorm_wordpool_576.txt	LTP338	ltpFR2	15	9	EAGLE	512	n/a	n/a	0	0	0
1743401	REC_WORD	wordpools/wasnorm_wordpool_576.txt	LTP338	ltpFR2	15	9	CRICKET	408	n/a	n/a	0	0	0
1818810	DISTRACTOR	n/a	LTP338	ltpFR2	15	10	n/a	n/a	n/a	n/a	0	0	0
1818811	START	n/a	LTP338	ltpFR2	15	n/a	n/a	n/a	15	n/a	n/a	n/a	n/a
1818827	PROB	n/a	LTP338	ltpFR2	15	n/a	n/a	n/a	15	18	4	8	6
1820343	PROB	n/a	LTP338	ltpFR2	15	n/a	n/a	n/a	15	19	9	4	6
1823292	PROB	n/a	LTP338	ltpFR2	15	n/a	n/a	n/a	15	24	9	9	6
1825924	PROB	n/a	LTP338	ltpFR2	15	n/a	n/a	n/a	15	12	4	3	5
1827823	PROB	n/a	LTP338	ltpFR2	15	n/a	n/a	n/a	15	25	9	8	8
1832837	PROB	n/a	LTP338	ltpFR2	15	n/a	n/a	n/a	15	10	3	5	2
1834803	PROB	n/a	LTP338	ltpFR2	15	n/a	n/a	n/a	15	3	1	1	1
1836069	PROB	n/a	LTP338	ltpFR2	15	n/a	n/a	n/a	15	4	1	1	2
1838600	PROB	n/a	LTP338	ltpFR2	15	n/a	n/a	n/a	15	17	5	3	9
1840217	PROB	n/a	LTP338	ltpFR2	15	n/a	n/a	n/a	15	14	7	6	1
1842444	STOP	n/a	LTP338	ltpFR2	15	n/a	n/a	n/a	15	n/a	n/a	n/a	n/a
1843999	WORD	wordpools/wasnorm_wordpool_576.txt	LTP338	ltpFR2	15	10	BATHTUB	100	n/a	n/a	0	0	0
1846697	WORD	wordpools/wasnorm_wordpool_576.txt	LTP338	ltpFR2	15	10	TRIBE	1505	n/a	n/a	0	0	0
1849163	WORD	wordpools/wasnorm_wordpool_576.txt	LTP338	ltpFR2	15	10	CRATER	400	n/a	n/a	0	0	0
1851879	WORD	wordpools/wasnorm_wordpool_576.txt	LTP338	ltpFR2	15	10	GALLON	618	n/a	n/a	0	0	0
1854393	WORD	wordpools/wasnorm_wordpool_576.txt	LTP338	ltpFR2	15	10	VENUS	1557	n/a	n/a	0	0	0
1857160	WORD	wordpools/wasnorm_wordpool_576.txt	LTP338	ltpFR2	15	10	CHURCH	307	n/a	n/a	0	0	0
1859759	WORD	wordpools/wasnorm_wordpool_576.txt	LTP338	ltpFR2	15	10	SUITCASE	1403	n/a	n/a	0	0	0
1862390	WORD	wordpools/wasnorm_wordpool_576.txt	LTP338	ltpFR2	15	10	FLASHLIGHT	575	n/a	n/a	0	0	0
1864823	WORD	wordpools/wasnorm_wordpool_576.txt	LTP338	ltpFR2	15	10	LAMP	798	n/a	n/a	0	0	0
1867255	WORD	wordpools/wasnorm_wordpool_576.txt	LTP338	ltpFR2	15	10	ANTLER	29	n/a	n/a	0	0	0
1869871	WORD	wordpools/wasnorm_wordpool_576.txt	LTP338	ltpFR2	15	10	BUBBLE	183	n/a	n/a	0	0	0
1872402	WORD	wordpools/wasnorm_wordpool_576.txt	LTP338	ltpFR2	15	10	CANYON	235	n/a	n/a	0	0	0
1875102	WORD	wordpools/wasnorm_wordpool_576.txt	LTP338	ltpFR2	15	10	BANKER	84	n/a	n/a	0	0	0
1877600	WORD	wordpools/wasnorm_wordpool_576.txt	LTP338	ltpFR2	15	10	DORM	488	n/a	n/a	0	0	0
1880099	WORD	wordpools/wasnorm_wordpool_576.txt	LTP338	ltpFR2	15	10	PAPER	1011	n/a	n/a	0	0	0
1882765	WORD	wordpools/wasnorm_wordpool_576.txt	LTP338	ltpFR2	15	10	XEROX	1628	n/a	n/a	0	0	0
1885314	WORD	wordpools/wasnorm_wordpool_576.txt	LTP338	ltpFR2	15	10	SHELTER	1282	n/a	n/a	0	0	0
1887929	WORD	wordpools/wasnorm_wordpool_576.txt	LTP338	ltpFR2	15	10	CELLAR	267	n/a	n/a	0	0	0
1890660	WORD	wordpools/wasnorm_wordpool_576.txt	LTP338	ltpFR2	15	10	CLIMBER	323	n/a	n/a	0	0	0
1893127	WORD	wordpools/wasnorm_wordpool_576.txt	LTP338	ltpFR2	15	10	PASSAGE	1019	n/a	n/a	0	0	0
1895892	WORD	wordpools/wasnorm_wordpool_576.txt	LTP338	ltpFR2	15	10	PICTURE	1061	n/a	n/a	0	0	0
1898357	WORD	wordpools/wasnorm_wordpool_576.txt	LTP338	ltpFR2	15	10	CANAL	226	n/a	n/a	0	0	0
1900973	WORD	wordpools/wasnorm_wordpool_576.txt	LTP338	ltpFR2	15	10	DONOR	485	n/a	n/a	0	0	0
1903638	WORD	wordpools/wasnorm_wordpool_576.txt	LTP338	ltpFR2	15	10	FLESH	579	n/a	n/a	0	0	0
1905255	START	n/a	LTP338	ltpFR2	15	n/a	n/a	n/a	16	n/a	n/a	n/a	n/a
1906129	DISTRACTOR	n/a	LTP338	ltpFR2	15	10	n/a	n/a	n/a	n/a	0	0	0
1906138	PROB	n/a	LTP338	ltpFR2	15	n/a	n/a	n/a	16	20	9	5	6
1908170	PROB	n/a	LTP338	ltpFR2	15	n/a	n/a	n/a	16	20	9	5	6
1909435	PROB	n/a	LTP338	ltpFR2	15	n/a	n/a	n/a	16	10	3	3	4
1911351	PROB	n/a	LTP338	ltpFR2	15	n/a	n/a	n/a	16	21	8	6	7
1913084	PROB	n/a	LTP338	ltpFR2	15	n/a	n/a	n/a	16	19	7	6	6
1914549	PROB	n/a	LTP338	ltpFR2	15	n/a	n/a	n/a	16	13	1	3	9
1916266	PROB	n/a	LTP338	ltpFR2	15	n/a	n/a	n/a	16	8	1	4	3
1918381	PROB	n/a	LTP338	ltpFR2	15	n/a	n/a	n/a	16	20	8	5	7
1922080	PROB	n/a	LTP338	ltpFR2	15	n/a	n/a	n/a	16	22	9	9	4
1923412	PROB	n/a	LTP338	ltpFR2	15	n/a	n/a	n/a	16	19	9	4	7
1929255	STOP	n/a	LTP338	ltpFR2	15	n/a	n/a	n/a	16	n/a	n/a	n/a	n/a
1931060	REC_START	n/a	LTP338	ltpFR2	15	10	n/a	n/a	n/a	n/a	0	0	0
1935411	REC_WORD	wordpools/wasnorm_wordpool_576.txt	LTP338	ltpFR2	15	10	DONOR	485	n/a	n/a	0	0	0
1935862	REC_WORD	wordpools/wasnorm_wordpool_576.txt	LTP338	ltpFR2	15	10	DORM	488	n/a	n/a	0	0	0
1936896	REC_WORD	wordpools/wasnorm_wordpool_576.txt	LTP338	ltpFR2	15	10	PAPER	1011	n/a	n/a	0	0	0
1937391	REC_WORD	wordpools/wasnorm_wordpool_576.txt	LTP338	ltpFR2	15	10	XEROX	1628	n/a	n/a	0	0	0
1939076	REC_WORD_VV	wordpools/wasnorm_wordpool_576.txt	LTP338	ltpFR2	15	10	<>	-1	n/a	n/a	0	0	0
1944630	REC_WORD	wordpools/wasnorm_wordpool_576.txt	LTP338	ltpFR2	15	10	BUBBLE	183	n/a	n/a	0	0	0
1947873	REC_WORD	wordpools/wasnorm_wordpool_576.txt	LTP338	ltpFR2	15	10	CELLAR	267	n/a	n/a	0	0	0
1948873	REC_WORD_VV	wordpools/wasnorm_wordpool_576.txt	LTP338	ltpFR2	15	10	<>	-1	n/a	n/a	0	0	0
1961336	REC_WORD	wordpools/wasnorm_wordpool_576.txt	LTP338	ltpFR2	15	10	CRATER	400	n/a	n/a	0	0	0
1961879	REC_WORD	wordpools/wasnorm_wordpool_576.txt	LTP338	ltpFR2	15	10	CANYON	235	n/a	n/a	0	0	0
1962866	REC_WORD	wordpools/wasnorm_wordpool_576.txt	LTP338	ltpFR2	15	10	VENUS	1557	n/a	n/a	0	0	0
2021501	DISTRACTOR	n/a	LTP338	ltpFR2	15	11	n/a	n/a	n/a	n/a	0	0	0
2021501	START	n/a	LTP338	ltpFR2	15	n/a	n/a	n/a	17	n/a	n/a	n/a	n/a
2021518	PROB	n/a	LTP338	ltpFR2	15	n/a	n/a	n/a	17	25	7	9	9
2023367	PROB	n/a	LTP338	ltpFR2	15	n/a	n/a	n/a	17	21	6	7	8
2025466	PROB	n/a	LTP338	ltpFR2	15	n/a	n/a	n/a	17	21	4	8	9
2029697	PROB	n/a	LTP338	ltpFR2	15	n/a	n/a	n/a	17	15	4	6	5
2031081	PROB	n/a	LTP338	ltpFR2	15	n/a	n/a	n/a	17	12	1	4	7
2032747	PROB	n/a	LTP338	ltpFR2	15	n/a	n/a	n/a	17	10	5	3	2
2034313	PROB	n/a	LTP338	ltpFR2	15	n/a	n/a	n/a	17	11	7	1	3
2036778	PROB	n/a	LTP338	ltpFR2	15	n/a	n/a	n/a	17	19	8	6	5
2038543	PROB	n/a	LTP338	ltpFR2	15	n/a	n/a	n/a	17	21	9	3	9
2041710	PROB	n/a	LTP338	ltpFR2	15	n/a	n/a	n/a	17	18	7	3	8
2043076	PROB	n/a	LTP338	ltpFR2	15	n/a	n/a	n/a	17	21	9	8	7
2045035	STOP	n/a	LTP338	ltpFR2	15	n/a	n/a	n/a	17	n/a	n/a	n/a	n/a
2046606	WORD	wordpools/wasnorm_wordpool_576.txt	LTP338	ltpFR2	15	11	RIFLE	1192	n/a	n/a	0	0	0
2049206	WORD	wordpools/wasnorm_wordpool_576.txt	LTP338	ltpFR2	15	11	JOURNAL	760	n/a	n/a	0	0	0
2051738	WORD	wordpools/wasnorm_wordpool_576.txt	LTP338	ltpFR2	15	11	FLIPPER	580	n/a	n/a	0	0	0
2054171	WORD	wordpools/wasnorm_wordpool_576.txt	LTP338	ltpFR2	15	11	HOOK	715	n/a	n/a	0	0	0
2056986	WORD	wordpools/wasnorm_wordpool_576.txt	LTP338	ltpFR2	15	11	DENIM	446	n/a	n/a	0	0	0
2059417	WORD	wordpools/wasnorm_wordpool_576.txt	LTP338	ltpFR2	15	11	MATCH	878	n/a	n/a	0	0	0
2062167	WORD	wordpools/wasnorm_wordpool_576.txt	LTP338	ltpFR2	15	11	FIREMAN	569	n/a	n/a	0	0	0
2064716	WORD	wordpools/wasnorm_wordpool_576.txt	LTP338	ltpFR2	15	11	SAUSAGE	1238	n/a	n/a	0	0	0
2067380	WORD	wordpools/wasnorm_wordpool_576.txt	LTP338	ltpFR2	15	11	LUMBER	848	n/a	n/a	0	0	0
2069947	WORD	wordpools/wasnorm_wordpool_576.txt	LTP338	ltpFR2	15	11	DONKEY	484	n/a	n/a	0	0	0
2072411	WORD	wordpools/wasnorm_wordpool_576.txt	LTP338	ltpFR2	15	11	BUREAU	199	n/a	n/a	0	0	0
2075228	WORD	wordpools/wasnorm_wordpool_576.txt	LTP338	ltpFR2	15	11	COBRA	336	n/a	n/a	0	0	0
2077676	WORD	wordpools/wasnorm_wordpool_576.txt	LTP338	ltpFR2	15	11	TERMITE	1451	n/a	n/a	0	0	0
2080192	WORD	wordpools/wasnorm_wordpool_576.txt	LTP338	ltpFR2	15	11	JEANS	752	n/a	n/a	0	0	0
2082824	WORD	wordpools/wasnorm_wordpool_576.txt	LTP338	ltpFR2	15	11	BELLY	119	n/a	n/a	0	0	0
2085372	WORD	wordpools/wasnorm_wordpool_576.txt	LTP338	ltpFR2	15	11	SODA	1341	n/a	n/a	0	0	0
2087855	WORD	wordpools/wasnorm_wordpool_576.txt	LTP338	ltpFR2	15	11	DENTIST	447	n/a	n/a	0	0	0
2090338	WORD	wordpools/wasnorm_wordpool_576.txt	LTP338	ltpFR2	15	11	CITRUS	313	n/a	n/a	0	0	0
2093103	WORD	wordpools/wasnorm_wordpool_576.txt	LTP338	ltpFR2	15	11	CEILING	265	n/a	n/a	0	0	0
2095852	WORD	wordpools/wasnorm_wordpool_576.txt	LTP338	ltpFR2	15	11	DUSTPAN	509	n/a	n/a	0	0	0
2098466	WORD	wordpools/wasnorm_wordpool_576.txt	LTP338	ltpFR2	15	11	HAMPER	682	n/a	n/a	0	0	0
2100966	WORD	wordpools/wasnorm_wordpool_576.txt	LTP338	ltpFR2	15	11	CURTAIN	427	n/a	n/a	0	0	0
2103464	WORD	wordpools/wasnorm_wordpool_576.txt	LTP338	ltpFR2	15	11	TROMBONE	1508	n/a	n/a	0	0	0
2105981	WORD	wordpools/wasnorm_wordpool_576.txt	LTP338	ltpFR2	15	11	CYCLONE	431	n/a	n/a	0	0	0
2107596	START	n/a	LTP338	ltpFR2	15	n/a	n/a	n/a	18	n/a	n/a	n/a	n/a
2108494	DISTRACTOR	n/a	LTP338	ltpFR2	15	11	n/a	n/a	n/a	n/a	0	0	0
2108512	PROB	n/a	LTP338	ltpFR2	15	n/a	n/a	n/a	18	24	8	9	7
2111162	PROB	n/a	LTP338	ltpFR2	15	n/a	n/a	n/a	18	13	3	3	7
2114692	PROB	n/a	LTP338	ltpFR2	15	n/a	n/a	n/a	18	22	7	6	9
2116909	PROB	n/a	LTP338	ltpFR2	15	n/a	n/a	n/a	18	9	4	1	4
2118325	PROB	n/a	LTP338	ltpFR2	15	n/a	n/a	n/a	18	18	8	9	1
2119824	PROB	n/a	LTP338	ltpFR2	15	n/a	n/a	n/a	18	14	2	3	9
2121857	PROB	n/a	LTP338	ltpFR2	15	n/a	n/a	n/a	18	17	7	8	2
2124571	PROB	n/a	LTP338	ltpFR2	15	n/a	n/a	n/a	18	15	3	6	6
2127088	PROB	n/a	LTP338	ltpFR2	15	n/a	n/a	n/a	18	10	4	4	2
2128469	PROB	n/a	LTP338	ltpFR2	15	n/a	n/a	n/a	18	12	4	4	4
2131596	STOP	n/a	LTP338	ltpFR2	15	n/a	n/a	n/a	18	n/a	n/a	n/a	n/a
2133451	REC_START	n/a	LTP338	ltpFR2	15	11	n/a	n/a	n/a	n/a	0	0	0
2135577	REC_WORD	wordpools/wasnorm_wordpool_576.txt	LTP338	ltpFR2	15	11	TROMBONE	1508	n/a	n/a	0	0	0
2137483	REC_WORD	wordpools/wasnorm_wordpool_576.txt	LTP338	ltpFR2	15	11	CURTAIN	427	n/a	n/a	0	0	0
2137906	REC_WORD	wordpools/wasnorm_wordpool_576.txt	LTP338	ltpFR2	15	11	CYCLONE	431	n/a	n/a	0	0	0
2139064	REC_WORD	wordpools/wasnorm_wordpool_576.txt	LTP338	ltpFR2	15	11	DUSTPAN	509	n/a	n/a	0	0	0
2139718	REC_WORD	wordpools/wasnorm_wordpool_576.txt	LTP338	ltpFR2	15	11	HAMPER	682	n/a	n/a	0	0	0
2142298	REC_WORD	wordpools/wasnorm_wordpool_576.txt	LTP338	ltpFR2	15	11	TERMITE	1451	n/a	n/a	0	0	0
2170759	REC_WORD	wordpools/wasnorm_wordpool_576.txt	LTP338	ltpFR2	15	11	FLIPPER	580	n/a	n/a	0	0	0
2172559	REC_WORD	wordpools/wasnorm_wordpool_576.txt	LTP338	ltpFR2	15	11	DENIM	446	n/a	n/a	0	0	0
2173045	REC_WORD	wordpools/wasnorm_wordpool_576.txt	LTP338	ltpFR2	15	11	JEANS	752	n/a	n/a	0	0	0
2175294	REC_WORD	wordpools/wasnorm_wordpool_576.txt	LTP338	ltpFR2	15	11	HOOK	715	n/a	n/a	0	0	0
2223877	DISTRACTOR	n/a	LTP338	ltpFR2	15	12	n/a	n/a	n/a	n/a	0	0	0
2223877	START	n/a	LTP338	ltpFR2	15	n/a	n/a	n/a	19	n/a	n/a	n/a	n/a
2223894	PROB	n/a	LTP338	ltpFR2	15	n/a	n/a	n/a	19	19	9	4	6
2225776	PROB	n/a	LTP338	ltpFR2	15	n/a	n/a	n/a	19	11	8	2	1
2227109	PROB	n/a	LTP338	ltpFR2	15	n/a	n/a	n/a	19	25	9	9	7
2230741	PROB	n/a	LTP338	ltpFR2	15	n/a	n/a	n/a	19	17	7	1	9
2232090	PROB	n/a	LTP338	ltpFR2	15	n/a	n/a	n/a	19	16	6	3	7
2234405	PROB	n/a	LTP338	ltpFR2	15	n/a	n/a	n/a	19	11	2	4	5
2238570	PROB	n/a	LTP338	ltpFR2	15	n/a	n/a	n/a	19	16	6	9	1
2240053	PROB	n/a	LTP338	ltpFR2	15	n/a	n/a	n/a	19	18	9	7	2
2241736	PROB	n/a	LTP338	ltpFR2	15	n/a	n/a	n/a	19	16	8	1	7
2243801	PROB	n/a	LTP338	ltpFR2	15	n/a	n/a	n/a	19	9	7	1	1
2245068	PROB	n/a	LTP338	ltpFR2	15	n/a	n/a	n/a	19	7	5	1	1
2246300	PROB	n/a	LTP338	ltpFR2	15	n/a	n/a	n/a	19	17	7	3	7
2247633	STOP	n/a	LTP338	ltpFR2	15	n/a	n/a	n/a	19	n/a	n/a	n/a	n/a
2248966	WORD	wordpools/wasnorm_wordpool_576.txt	LTP338	ltpFR2	15	12	CLOTHES	327	n/a	n/a	0	0	0
2251647	WORD	wordpools/wasnorm_wordpool_576.txt	LTP338	ltpFR2	15	12	GOBLIN	645	n/a	n/a	0	0	0
2254347	WORD	wordpools/wasnorm_wordpool_576.txt	LTP338	ltpFR2	15	12	SEAFOOD	1260	n/a	n/a	0	0	0
2256879	WORD	wordpools/wasnorm_wordpool_576.txt	LTP338	ltpFR2	15	12	RECEIPT	1173	n/a	n/a	0	0	0
2259360	WORD	wordpools/wasnorm_wordpool_576.txt	LTP338	ltpFR2	15	12	PANTHER	1009	n/a	n/a	0	0	0
2262160	WORD	wordpools/wasnorm_wordpool_576.txt	LTP338	ltpFR2	15	12	GIRL	637	n/a	n/a	0	0	0
2264624	WORD	wordpools/wasnorm_wordpool_576.txt	LTP338	ltpFR2	15	12	SPIDER	1351	n/a	n/a	0	0	0
2267158	WORD	wordpools/wasnorm_wordpool_576.txt	LTP338	ltpFR2	15	12	WIDOW	1608	n/a	n/a	0	0	0
2269740	WORD	wordpools/wasnorm_wordpool_576.txt	LTP338	ltpFR2	15	12	VICTIM	1562	n/a	n/a	0	0	0
2272554	WORD	wordpools/wasnorm_wordpool_576.txt	LTP338	ltpFR2	15	12	VELVET	1555	n/a	n/a	0	0	0
2275221	WORD	wordpools/wasnorm_wordpool_576.txt	LTP338	ltpFR2	15	12	MACHINE	852	n/a	n/a	0	0	0
2277986	WORD	wordpools/wasnorm_wordpool_576.txt	LTP338	ltpFR2	15	12	CLOCK	325	n/a	n/a	0	0	0
2280785	WORD	wordpools/wasnorm_wordpool_576.txt	LTP338	ltpFR2	15	12	SERVANT	1271	n/a	n/a	0	0	0
2283284	WORD	wordpools/wasnorm_wordpool_576.txt	LTP338	ltpFR2	15	12	MISSILE	900	n/a	n/a	0	0	0
2285749	WORD	wordpools/wasnorm_wordpool_576.txt	LTP338	ltpFR2	15	12	ROCKET	1202	n/a	n/a	0	0	0
2288564	WORD	wordpools/wasnorm_wordpool_576.txt	LTP338	ltpFR2	15	12	SPARROW	1347	n/a	n/a	0	0	0
2291180	WORD	wordpools/wasnorm_wordpool_576.txt	LTP338	ltpFR2	15	12	ROBIN	1199	n/a	n/a	0	0	0
2293661	WORD	wordpools/wasnorm_wordpool_576.txt	LTP338	ltpFR2	15	12	CRITIC	410	n/a	n/a	0	0	0
2296094	WORD	wordpools/wasnorm_wordpool_576.txt	LTP338	ltpFR2	15	12	PATROL	1027	n/a	n/a	0	0	0
2298910	WORD	wordpools/wasnorm_wordpool_576.txt	LTP338	ltpFR2	15	12	HARP	689	n/a	n/a	0	0	0
2301658	WORD	wordpools/wasnorm_wordpool_576.txt	LTP338	ltpFR2	15	12	ACTRESS	6	n/a	n/a	0	0	0
2304373	WORD	wordpools/wasnorm_wordpool_576.txt	LTP338	ltpFR2	15	12	LAKE	796	n/a	n/a	0	0	0
2306906	WORD	wordpools/wasnorm_wordpool_576.txt	LTP338	ltpFR2	15	12	BOARD	143	n/a	n/a	0	0	0
2309339	WORD	wordpools/wasnorm_wordpool_576.txt	LTP338	ltpFR2	15	12	CONCERT	360	n/a	n/a	0	0	0
2310955	START	n/a	LTP338	ltpFR2	15	n/a	n/a	n/a	20	n/a	n/a	n/a	n/a
2312134	DISTRACTOR	n/a	LTP338	ltpFR2	15	12	n/a	n/a	n/a	n/a	0	0	0
2312137	PROB	n/a	LTP338	ltpFR2	15	n/a	n/a	n/a	20	7	2	2	3
2313753	PROB	n/a	LTP338	ltpFR2	15	n/a	n/a	n/a	20	20	5	8	7
2317168	PROB	n/a	LTP338	ltpFR2	15	n/a	n/a	n/a	20	11	3	4	4
2319500	PROB	n/a	LTP338	ltpFR2	15	n/a	n/a	n/a	20	10	2	4	4
2321183	PROB	n/a	LTP338	ltpFR2	15	n/a	n/a	n/a	20	17	8	6	3
2323498	PROB	n/a	LTP338	ltpFR2	15	n/a	n/a	n/a	20	15	2	5	8
2324898	PROB	n/a	LTP338	ltpFR2	15	n/a	n/a	n/a	20	17	8	7	1
2326847	PROB	n/a	LTP338	ltpFR2	15	n/a	n/a	n/a	20	22	7	6	9
2332245	PROB	n/a	LTP338	ltpFR2	15	n/a	n/a	n/a	20	20	7	7	6
2333980	STOP	n/a	LTP338	ltpFR2	15	n/a	n/a	n/a	20	n/a	n/a	n/a	n/a
2336877	REC_START	n/a	LTP338	ltpFR2	15	12	n/a	n/a	n/a	n/a	0	0	0
2340078	REC_WORD	wordpools/wasnorm_wordpool_576.txt	LTP338	ltpFR2	15	12	WIDOW	1608	n/a	n/a	0	0	0
2340707	REC_WORD	wordpools/wasnorm_wordpool_576.txt	LTP338	ltpFR2	15	12	SPIDER	1351	n/a	n/a	0	0	0
2341800	REC_WORD	wordpools/wasnorm_wordpool_576.txt	LTP338	ltpFR2	15	12	VICTIM	1562	n/a	n/a	0	0	0
2342780	REC_WORD	wordpools/wasnorm_wordpool_576.txt	LTP338	ltpFR2	15	12	VELVET	1555	n/a	n/a	0	0	0
2343994	REC_WORD	wordpools/wasnorm_wordpool_576.txt	LTP338	ltpFR2	15	12	SERVANT	1271	n/a	n/a	0	0	0
2347622	REC_WORD	wordpools/wasnorm_wordpool_576.txt	LTP338	ltpFR2	15	12	MISSILE	900	n/a	n/a	0	0	0
2348321	REC_WORD	wordpools/wasnorm_wordpool_576.txt	LTP338	ltpFR2	15	12	ROCKET	1202	n/a	n/a	0	0	0
2350248	REC_WORD	wordpools/wasnorm_wordpool_576.txt	LTP338	ltpFR2	15	12	SPARROW	1347	n/a	n/a	0	0	0
2351248	REC_WORD_VV	wordpools/wasnorm_wordpool_576.txt	LTP338	ltpFR2	15	12	<>	-1	n/a	n/a	0	0	0
2351629	REC_WORD	wordpools/wasnorm_wordpool_576.txt	LTP338	ltpFR2	15	12	ROBIN	1199	n/a	n/a	0	0	0
2362756	REC_WORD	wordpools/wasnorm_wordpool_576.txt	LTP338	ltpFR2	15	12	CLOTHES	327	n/a	n/a	0	0	0
2371646	REC_WORD	wordpools/wasnorm_wordpool_576.txt	LTP338	ltpFR2	15	12	CLOCK	325	n/a	n/a	0	0	0
2427318	WORD	wordpools/wasnorm_wordpool_576.txt	LTP338	ltpFR2	15	13	CREVICE	405	n/a	n/a	0	0	0
2429884	WORD	wordpools/wasnorm_wordpool_576.txt	LTP338	ltpFR2	15	13	HEADBAND	696	n/a	n/a	0	0	0
2432498	WORD	wordpools/wasnorm_wordpool_576.txt	LTP338	ltpFR2	15	13	ZEBRA	1635	n/a	n/a	0	0	0
2435065	WORD	wordpools/wasnorm_wordpool_576.txt	LTP338	ltpFR2	15	13	STREAM	1392	n/a	n/a	0	0	0
2437797	WORD	wordpools/wasnorm_wordpool_576.txt	LTP338	ltpFR2	15	13	SCALPEL	1243	n/a	n/a	0	0	0
2440595	WORD	wordpools/wasnorm_wordpool_576.txt	LTP338	ltpFR2	15	13	SWORD	1423	n/a	n/a	0	0	0
2443360	WORD	wordpools/wasnorm_wordpool_576.txt	LTP338	ltpFR2	15	13	CRAYON	401	n/a	n/a	0	0	0
2445827	WORD	wordpools/wasnorm_wordpool_576.txt	LTP338	ltpFR2	15	13	HOSTESS	723	n/a	n/a	0	0	0
2448292	WORD	wordpools/wasnorm_wordpool_576.txt	LTP338	ltpFR2	15	13	CLAMP	316	n/a	n/a	0	0	0
2450941	WORD	wordpools/wasnorm_wordpool_576.txt	LTP338	ltpFR2	15	13	CHAUFFEUR	283	n/a	n/a	0	0	0
2453655	WORD	wordpools/wasnorm_wordpool_576.txt	LTP338	ltpFR2	15	13	DASHBOARD	441	n/a	n/a	0	0	0
2456105	WORD	wordpools/wasnorm_wordpool_576.txt	LTP338	ltpFR2	15	13	MISTER	901	n/a	n/a	0	0	0
2458670	WORD	wordpools/wasnorm_wordpool_576.txt	LTP338	ltpFR2	15	13	PLATE	1086	n/a	n/a	0	0	0
2461419	WORD	wordpools/wasnorm_wordpool_576.txt	LTP338	ltpFR2	15	13	PLAZA	1088	n/a	n/a	0	0	0
2463969	WORD	wordpools/wasnorm_wordpool_576.txt	LTP338	ltpFR2	15	13	CASHIER	254	n/a	n/a	0	0	0
2466516	WORD	wordpools/wasnorm_wordpool_576.txt	LTP338	ltpFR2	15	13	SCARF	1246	n/a	n/a	0	0	0
2469016	WORD	wordpools/wasnorm_wordpool_576.txt	LTP338	ltpFR2	15	13	LAGOON	795	n/a	n/a	0	0	0
2471564	WORD	wordpools/wasnorm_wordpool_576.txt	LTP338	ltpFR2	15	13	CAFE	216	n/a	n/a	0	0	0
2474247	WORD	wordpools/wasnorm_wordpool_576.txt	LTP338	ltpFR2	15	13	PENGUIN	1044	n/a	n/a	0	0	0
2476713	WORD	wordpools/wasnorm_wordpool_576.txt	LTP338	ltpFR2	15	13	DOUGHNUT	490	n/a	n/a	0	0	0
2479262	WORD	wordpools/wasnorm_wordpool_576.txt	LTP338	ltpFR2	15	13	BRANDY	169	n/a	n/a	0	0	0
2482077	WORD	wordpools/wasnorm_wordpool_576.txt	LTP338	ltpFR2	15	13	PASTA	1021	n/a	n/a	0	0	0
2484525	WORD	wordpools/wasnorm_wordpool_576.txt	LTP338	ltpFR2	15	13	AIRPLANE	12	n/a	n/a	0	0	0
2487208	WORD	wordpools/wasnorm_wordpool_576.txt	LTP338	ltpFR2	15	13	GARLIC	624	n/a	n/a	0	0	0
2488824	START	n/a	LTP338	ltpFR2	15	n/a	n/a	n/a	21	n/a	n/a	n/a	n/a
2489852	DISTRACTOR	n/a	LTP338	ltpFR2	15	13	n/a	n/a	n/a	n/a	0	0	0
2489857	PROB	n/a	LTP338	ltpFR2	15	n/a	n/a	n/a	21	19	5	5	9
2491655	PROB	n/a	LTP338	ltpFR2	15	n/a	n/a	n/a	21	15	2	5	8
2493604	PROB	n/a	LTP338	ltpFR2	15	n/a	n/a	n/a	21	14	4	5	5
2495754	PROB	n/a	LTP338	ltpFR2	15	n/a	n/a	n/a	21	15	9	2	4
2497669	PROB	n/a	LTP338	ltpFR2	15	n/a	n/a	n/a	21	13	4	7	2
2499752	PROB	n/a	LTP338	ltpFR2	15	n/a	n/a	n/a	21	16	5	2	9
2502334	PROB	n/a	LTP338	ltpFR2	15	n/a	n/a	n/a	21	17	6	9	2
2504334	PROB	n/a	LTP338	ltpFR2	15	n/a	n/a	n/a	21	10	6	2	2
2505950	PROB	n/a	LTP338	ltpFR2	15	n/a	n/a	n/a	21	13	3	3	7
2507965	PROB	n/a	LTP338	ltpFR2	15	n/a	n/a	n/a	21	19	9	8	2
2512824	STOP	n/a	LTP338	ltpFR2	15	n/a	n/a	n/a	21	n/a	n/a	n/a	n/a
2514645	REC_START	n/a	LTP338	ltpFR2	15	13	n/a	n/a	n/a	n/a	0	0	0
2516649	REC_WORD	wordpools/wasnorm_wordpool_576.txt	LTP338	ltpFR2	15	13	PASTA	1021	n/a	n/a	0	0	0
2517254	REC_WORD	wordpools/wasnorm_wordpool_576.txt	LTP338	ltpFR2	15	13	GARLIC	624	n/a	n/a	0	0	0
2519319	REC_WORD	wordpools/wasnorm_wordpool_576.txt	LTP338	ltpFR2	15	13	AIRPLANE	12	n/a	n/a	0	0	0
2605088	DISTRACTOR	n/a	LTP338	ltpFR2	15	14	n/a	n/a	n/a	n/a	0	0	0
2605088	START	n/a	LTP338	ltpFR2	15	n/a	n/a	n/a	22	n/a	n/a	n/a	n/a
2605105	PROB	n/a	LTP338	ltpFR2	15	n/a	n/a	n/a	22	18	9	3	6
2607187	PROB	n/a	LTP338	ltpFR2	15	n/a	n/a	n/a	22	17	8	3	6
2608953	PROB	n/a	LTP338	ltpFR2	15	n/a	n/a	n/a	22	23	8	6	9
2610919	PROB	n/a	LTP338	ltpFR2	15	n/a	n/a	n/a	22	13	2	3	8
2612484	PROB	n/a	LTP338	ltpFR2	15	n/a	n/a	n/a	22	13	1	6	6
2614616	PROB	n/a	LTP338	ltpFR2	15	n/a	n/a	n/a	22	3	1	1	1
2615733	PROB	n/a	LTP338	ltpFR2	15	n/a	n/a	n/a	22	15	2	7	3
2617782	PROB	n/a	LTP338	ltpFR2	15	n/a	n/a	n/a	22	15	6	1	8
2619965	PROB	n/a	LTP338	ltpFR2	15	n/a	n/a	n/a	22	21	3	9	9
2621914	PROB	n/a	LTP338	ltpFR2	15	n/a	n/a	n/a	22	20	5	8	7
2624512	PROB	n/a	LTP338	ltpFR2	15	n/a	n/a	n/a	22	20	3	9	8
2626527	PROB	n/a	LTP338	ltpFR2	15	n/a	n/a	n/a	22	25	7	9	9
2628214	STOP	n/a	LTP338	ltpFR2	15	n/a	n/a	n/a	22	n/a	n/a	n/a	n/a
2630210	WORD	wordpools/wasnorm_wordpool_576.txt	LTP338	ltpFR2	15	14	VAGRANT	1544	n/a	n/a	0	0	0
2632825	WORD	wordpools/wasnorm_wordpool_576.txt	LTP338	ltpFR2	15	14	LADY	794	n/a	n/a	0	0	0
2635390	WORD	wordpools/wasnorm_wordpool_576.txt	LTP338	ltpFR2	15	14	PILOT	1070	n/a	n/a	0	0	0
2638006	WORD	wordpools/wasnorm_wordpool_576.txt	LTP338	ltpFR2	15	14	OZONE	996	n/a	n/a	0	0	0
2640654	WORD	wordpools/wasnorm_wordpool_576.txt	LTP338	ltpFR2	15	14	SHORTS	1293	n/a	n/a	0	0	0
2643254	WORD	wordpools/wasnorm_wordpool_576.txt	LTP338	ltpFR2	15	14	SHELF	1280	n/a	n/a	0	0	0
2645820	WORD	wordpools/wasnorm_wordpool_576.txt	LTP338	ltpFR2	15	14	EGYPT	519	n/a	n/a	0	0	0
2648567	WORD	wordpools/wasnorm_wordpool_576.txt	LTP338	ltpFR2	15	14	SILK	1307	n/a	n/a	0	0	0
2651134	WORD	wordpools/wasnorm_wordpool_576.txt	LTP338	ltpFR2	15	14	FRIAR	605	n/a	n/a	0	0	0
2653698	WORD	wordpools/wasnorm_wordpool_576.txt	LTP338	ltpFR2	15	14	PRIMATE	1123	n/a	n/a	0	0	0
2656331	WORD	wordpools/wasnorm_wordpool_576.txt	LTP338	ltpFR2	15	14	LACE	792	n/a	n/a	0	0	0
2658964	WORD	wordpools/wasnorm_wordpool_576.txt	LTP338	ltpFR2	15	14	SKIRT	1319	n/a	n/a	0	0	0
2661395	WORD	wordpools/wasnorm_wordpool_576.txt	LTP338	ltpFR2	15	14	NOTEBOOK	959	n/a	n/a	0	0	0
2664128	WORD	wordpools/wasnorm_wordpool_576.txt	LTP338	ltpFR2	15	14	SPHINX	1349	n/a	n/a	0	0	0
2666810	WORD	wordpools/wasnorm_wordpool_576.txt	LTP338	ltpFR2	15	14	COFFEE	341	n/a	n/a	0	0	0
2669242	WORD	wordpools/wasnorm_wordpool_576.txt	LTP338	ltpFR2	15	14	TABLET	1427	n/a	n/a	0	0	0
2671958	WORD	wordpools/wasnorm_wordpool_576.txt	LTP338	ltpFR2	15	14	INFANT	737	n/a	n/a	0	0	0
2674790	WORD	wordpools/wasnorm_wordpool_576.txt	LTP338	ltpFR2	15	14	NOMAD	955	n/a	n/a	0	0	0
2677322	WORD	wordpools/wasnorm_wordpool_576.txt	LTP338	ltpFR2	15	14	TEACHER	1440	n/a	n/a	0	0	0
2680054	WORD	wordpools/wasnorm_wordpool_576.txt	LTP338	ltpFR2	15	14	PUPIL	1143	n/a	n/a	0	0	0
2682652	WORD	wordpools/wasnorm_wordpool_576.txt	LTP338	ltpFR2	15	14	WORLD	1622	n/a	n/a	0	0	0
2685152	WORD	wordpools/wasnorm_wordpool_576.txt	LTP338	ltpFR2	15	14	PADDING	999	n/a	n/a	0	0	0
2687633	WORD	wordpools/wasnorm_wordpool_576.txt	LTP338	ltpFR2	15	14	FLAG	573	n/a	n/a	0	0	0
2690233	WORD	wordpools/wasnorm_wordpool_576.txt	LTP338	ltpFR2	15	14	REBEL	1172	n/a	n/a	0	0	0
2691849	START	n/a	LTP338	ltpFR2	15	n/a	n/a	n/a	23	n/a	n/a	n/a	n/a
2692863	DISTRACTOR	n/a	LTP338	ltpFR2	15	14	n/a	n/a	n/a	n/a	0	0	0
2692865	PROB	n/a	LTP338	ltpFR2	15	n/a	n/a	n/a	23	20	9	5	6
2695947	PROB	n/a	LTP338	ltpFR2	15	n/a	n/a	n/a	23	11	8	2	1
2697230	PROB	n/a	LTP338	ltpFR2	15	n/a	n/a	n/a	23	15	6	4	5
2698628	PROB	n/a	LTP338	ltpFR2	15	n/a	n/a	n/a	23	4	1	2	1
2700162	PROB	n/a	LTP338	ltpFR2	15	n/a	n/a	n/a	23	13	2	4	7
2701978	PROB	n/a	LTP338	ltpFR2	15	n/a	n/a	n/a	23	20	3	8	9
2705159	PROB	n/a	LTP338	ltpFR2	15	n/a	n/a	n/a	23	12	1	8	3
2706892	PROB	n/a	LTP338	ltpFR2	15	n/a	n/a	n/a	23	21	3	9	9
2708208	PROB	n/a	LTP338	ltpFR2	15	n/a	n/a	n/a	23	20	5	6	9
2709741	PROB	n/a	LTP338	ltpFR2	15	n/a	n/a	n/a	23	21	6	8	7
2711439	PROB	n/a	LTP338	ltpFR2	15	n/a	n/a	n/a	23	16	3	5	8
2712939	PROB	n/a	LTP338	ltpFR2	15	n/a	n/a	n/a	23	13	5	4	4
2715713	STOP	n/a	LTP338	ltpFR2	15	n/a	n/a	n/a	23	n/a	n/a	n/a	n/a
2717788	REC_START	n/a	LTP338	ltpFR2	15	14	n/a	n/a	n/a	n/a	0	0	0
2719355	REC_WORD	wordpools/wasnorm_wordpool_576.txt	LTP338	ltpFR2	15	14	NOMAD	955	n/a	n/a	0	0	0
2720320	REC_WORD	wordpools/wasnorm_wordpool_576.txt	LTP338	ltpFR2	15	14	TEACHER	1440	n/a	n/a	0	0	0
2721258	REC_WORD	wordpools/wasnorm_wordpool_576.txt	LTP338	ltpFR2	15	14	INFANT	737	n/a	n/a	0	0	0
2721979	REC_WORD	wordpools/wasnorm_wordpool_576.txt	LTP338	ltpFR2	15	14	VAGRANT	1544	n/a	n/a	0	0	0
2722891	REC_WORD	wordpools/wasnorm_wordpool_576.txt	LTP338	ltpFR2	15	14	LADY	794	n/a	n/a	0	0	0
2723719	REC_WORD	wordpools/wasnorm_wordpool_576.txt	LTP338	ltpFR2	15	14	PILOT	1070	n/a	n/a	0	0	0
2724848	REC_WORD	wordpools/wasnorm_wordpool_576.txt	LTP338	ltpFR2	15	14	OZONE	996	n/a	n/a	0	0	0
2725639	REC_WORD	wordpools/wasnorm_wordpool_576.txt	LTP338	ltpFR2	15	14	SHORTS	1293	n/a	n/a	0	0	0
2726419	REC_WORD	wordpools/wasnorm_wordpool_576.txt	LTP338	ltpFR2	15	14	SKIRT	1319	n/a	n/a	0	0	0
2727503	REC_WORD	wordpools/wasnorm_wordpool_576.txt	LTP338	ltpFR2	15	14	LACE	792	n/a	n/a	0	0	0
2728265	REC_WORD	wordpools/wasnorm_wordpool_576.txt	LTP338	ltpFR2	15	14	SILK	1307	n/a	n/a	0	0	0
2729693	REC_WORD	wordpools/wasnorm_wordpool_576.txt	LTP338	ltpFR2	15	14	EGYPT	519	n/a	n/a	0	0	0
2730354	REC_WORD	wordpools/wasnorm_wordpool_576.txt	LTP338	ltpFR2	15	14	SPHINX	1349	n/a	n/a	0	0	0
2808229	WORD	wordpools/wasnorm_wordpool_576.txt	LTP338	ltpFR2	15	15	SPOUSE	1358	n/a	n/a	0	0	0
2810911	WORD	wordpools/wasnorm_wordpool_576.txt	LTP338	ltpFR2	15	15	CASKET	255	n/a	n/a	0	0	0
2813710	WORD	wordpools/wasnorm_wordpool_576.txt	LTP338	ltpFR2	15	15	MEDAL	885	n/a	n/a	0	0	0
2816358	WORD	wordpools/wasnorm_wordpool_576.txt	LTP338	ltpFR2	15	15	RECORD	1176	n/a	n/a	0	0	0
2819124	WORD	wordpools/wasnorm_wordpool_576.txt	LTP338	ltpFR2	15	15	RIVER	1194	n/a	n/a	0	0	0
2821890	WORD	wordpools/wasnorm_wordpool_576.txt	LTP338	ltpFR2	15	15	POISON	1096	n/a	n/a	0	0	0
2824454	WORD	wordpools/wasnorm_wordpool_576.txt	LTP338	ltpFR2	15	15	DRUG	501	n/a	n/a	0	0	0
2827137	WORD	wordpools/wasnorm_wordpool_576.txt	LTP338	ltpFR2	15	15	PERCH	1048	n/a	n/a	0	0	0
2829886	WORD	wordpools/wasnorm_wordpool_576.txt	LTP338	ltpFR2	15	15	HEDGE	699	n/a	n/a	0	0	0
2832617	WORD	wordpools/wasnorm_wordpool_576.txt	LTP338	ltpFR2	15	15	TWIG	1527	n/a	n/a	0	0	0
2835084	WORD	wordpools/wasnorm_wordpool_576.txt	LTP338	ltpFR2	15	15	SALT	1229	n/a	n/a	0	0	0
2837849	WORD	wordpools/wasnorm_wordpool_576.txt	LTP338	ltpFR2	15	15	COIN	343	n/a	n/a	0	0	0
2840514	WORD	wordpools/wasnorm_wordpool_576.txt	LTP338	ltpFR2	15	15	BANK	83	n/a	n/a	0	0	0
2842980	WORD	wordpools/wasnorm_wordpool_576.txt	LTP338	ltpFR2	15	15	LUNCH	849	n/a	n/a	0	0	0
2845511	WORD	wordpools/wasnorm_wordpool_576.txt	LTP338	ltpFR2	15	15	WINDOW	1611	n/a	n/a	0	0	0
2848261	WORD	wordpools/wasnorm_wordpool_576.txt	LTP338	ltpFR2	15	15	CARRIAGE	248	n/a	n/a	0	0	0
2850793	WORD	wordpools/wasnorm_wordpool_576.txt	LTP338	ltpFR2	15	15	BROOK	177	n/a	n/a	0	0	0
2853226	WORD	wordpools/wasnorm_wordpool_576.txt	LTP338	ltpFR2	15	15	MESSAGE	888	n/a	n/a	0	0	0
2855709	WORD	wordpools/wasnorm_wordpool_576.txt	LTP338	ltpFR2	15	15	COWBOY	395	n/a	n/a	0	0	0
2858340	WORD	wordpools/wasnorm_wordpool_576.txt	LTP338	ltpFR2	15	15	PARROT	1015	n/a	n/a	0	0	0
2861105	WORD	wordpools/wasnorm_wordpool_576.txt	LTP338	ltpFR2	15	15	PIGEON	1065	n/a	n/a	0	0	0
2863603	WORD	wordpools/wasnorm_wordpool_576.txt	LTP338	ltpFR2	15	15	TURKEY	1520	n/a	n/a	0	0	0
2866320	WORD	wordpools/wasnorm_wordpool_576.txt	LTP338	ltpFR2	15	15	CANDY	230	n/a	n/a	0	0	0
2869069	WORD	wordpools/wasnorm_wordpool_576.txt	LTP338	ltpFR2	15	15	CROSS	413	n/a	n/a	0	0	0
2870684	START	n/a	LTP338	ltpFR2	15	n/a	n/a	n/a	24	n/a	n/a	n/a	n/a
2871742	DISTRACTOR	n/a	LTP338	ltpFR2	15	15	n/a	n/a	n/a	n/a	0	0	0
2871751	PROB	n/a	LTP338	ltpFR2	15	n/a	n/a	n/a	24	22	7	8	7
2873850	PROB	n/a	LTP338	ltpFR2	15	n/a	n/a	n/a	24	25	8	8	9
2875648	PROB	n/a	LTP338	ltpFR2	15	n/a	n/a	n/a	24	10	1	4	5
2877480	PROB	n/a	LTP338	ltpFR2	15	n/a	n/a	n/a	24	16	8	2	6
2878797	PROB	n/a	LTP338	ltpFR2	15	n/a	n/a	n/a	24	15	3	3	9
2880596	PROB	n/a	LTP338	ltpFR2	15	n/a	n/a	n/a	24	15	3	4	8
2882378	PROB	n/a	LTP338	ltpFR2	15	n/a	n/a	n/a	24	16	1	9	6
2883661	PROB	n/a	LTP338	ltpFR2	15	n/a	n/a	n/a	24	18	9	8	1
2885345	PROB	n/a	LTP338	ltpFR2	15	n/a	n/a	n/a	24	16	7	4	5
2887027	PROB	n/a	LTP338	ltpFR2	15	n/a	n/a	n/a	24	18	8	3	7
2888642	PROB	n/a	LTP338	ltpFR2	15	n/a	n/a	n/a	24	12	3	6	3
2890042	PROB	n/a	LTP338	ltpFR2	15	n/a	n/a	n/a	24	8	6	1	1
2891225	PROB	n/a	LTP338	ltpFR2	15	n/a	n/a	n/a	24	14	3	8	3
2894684	STOP	n/a	LTP338	ltpFR2	15	n/a	n/a	n/a	24	n/a	n/a	n/a	n/a
2896522	REC_START	n/a	LTP338	ltpFR2	15	15	n/a	n/a	n/a	n/a	0	0	0
2906566	REC_WORD	wordpools/wasnorm_wordpool_576.txt	LTP338	ltpFR2	15	15	PARROT	1015	n/a	n/a	0	0	0
2907936	REC_WORD	wordpools/wasnorm_wordpool_576.txt	LTP338	ltpFR2	15	15	TURKEY	1520	n/a	n/a	0	0	0
2947923	REC_WORD	wordpools/wasnorm_wordpool_576.txt	LTP338	ltpFR2	15	15	SPOUSE	1358	n/a	n/a	0	0	0
2949236	REC_WORD	wordpools/wasnorm_wordpool_576.txt	LTP338	ltpFR2	15	15	CASKET	255	n/a	n/a	0	0	0
2986948	WORD	wordpools/wasnorm_wordpool_576.txt	LTP338	ltpFR2	15	16	DRAGON	492	n/a	n/a	0	0	0
2989446	WORD	wordpools/wasnorm_wordpool_576.txt	LTP338	ltpFR2	15	16	CLAM	315	n/a	n/a	0	0	0
2992046	WORD	wordpools/wasnorm_wordpool_576.txt	LTP338	ltpFR2	15	16	ROBOT	1200	n/a	n/a	0	0	0
2994677	WORD	wordpools/wasnorm_wordpool_576.txt	LTP338	ltpFR2	15	16	WASHER	1592	n/a	n/a	0	0	0
2997310	WORD	wordpools/wasnorm_wordpool_576.txt	LTP338	ltpFR2	15	16	PUDDLE	1140	n/a	n/a	0	0	0
3000076	WORD	wordpools/wasnorm_wordpool_576.txt	LTP338	ltpFR2	15	16	SWIMMER	1420	n/a	n/a	0	0	0
3002791	WORD	wordpools/wasnorm_wordpool_576.txt	LTP338	ltpFR2	15	16	BRAKE	166	n/a	n/a	0	0	0
3005439	WORD	wordpools/wasnorm_wordpool_576.txt	LTP338	ltpFR2	15	16	ULCER	1533	n/a	n/a	0	0	0
3007956	WORD	wordpools/wasnorm_wordpool_576.txt	LTP338	ltpFR2	15	16	DINER	467	n/a	n/a	0	0	0
3010653	WORD	wordpools/wasnorm_wordpool_576.txt	LTP338	ltpFR2	15	16	FARMER	553	n/a	n/a	0	0	0
3013187	WORD	wordpools/wasnorm_wordpool_576.txt	LTP338	ltpFR2	15	16	BACON	67	n/a	n/a	0	0	0
3015701	WORD	wordpools/wasnorm_wordpool_576.txt	LTP338	ltpFR2	15	16	PIZZA	1079	n/a	n/a	0	0	0
3018467	WORD	wordpools/wasnorm_wordpool_576.txt	LTP338	ltpFR2	15	16	NIGHTGOWN	953	n/a	n/a	0	0	0
3021050	WORD	wordpools/wasnorm_wordpool_576.txt	LTP338	ltpFR2	15	16	LILY	821	n/a	n/a	0	0	0
3023531	WORD	wordpools/wasnorm_wordpool_576.txt	LTP338	ltpFR2	15	16	SURVEY	1414	n/a	n/a	0	0	0
3026247	WORD	wordpools/wasnorm_wordpool_576.txt	LTP338	ltpFR2	15	16	RADISH	1158	n/a	n/a	0	0	0
3028996	WORD	wordpools/wasnorm_wordpool_576.txt	LTP338	ltpFR2	15	16	MARSH	874	n/a	n/a	0	0	0
3031795	WORD	wordpools/wasnorm_wordpool_576.txt	LTP338	ltpFR2	15	16	ISLAND	745	n/a	n/a	0	0	0
3034443	WORD	wordpools/wasnorm_wordpool_576.txt	LTP338	ltpFR2	15	16	OMELET	976	n/a	n/a	0	0	0
3037026	WORD	wordpools/wasnorm_wordpool_576.txt	LTP338	ltpFR2	15	16	KLEENEX	782	n/a	n/a	0	0	0
3039791	WORD	wordpools/wasnorm_wordpool_576.txt	LTP338	ltpFR2	15	16	TURTLE	1522	n/a	n/a	0	0	0
3042290	WORD	wordpools/wasnorm_wordpool_576.txt	LTP338	ltpFR2	15	16	WHISKERS	1605	n/a	n/a	0	0	0
3044989	WORD	wordpools/wasnorm_wordpool_576.txt	LTP338	ltpFR2	15	16	TUTU	1524	n/a	n/a	0	0	0
3047454	WORD	wordpools/wasnorm_wordpool_576.txt	LTP338	ltpFR2	15	16	CASHEW	253	n/a	n/a	0	0	0
3049070	START	n/a	LTP338	ltpFR2	15	n/a	n/a	n/a	25	n/a	n/a	n/a	n/a
3050176	DISTRACTOR	n/a	LTP338	ltpFR2	15	16	n/a	n/a	n/a	n/a	0	0	0
3050187	PROB	n/a	LTP338	ltpFR2	15	n/a	n/a	n/a	25	11	3	2	6
3052069	PROB	n/a	LTP338	ltpFR2	15	n/a	n/a	n/a	25	13	1	3	9
3054517	PROB	n/a	LTP338	ltpFR2	15	n/a	n/a	n/a	25	14	8	4	2
3056516	PROB	n/a	LTP338	ltpFR2	15	n/a	n/a	n/a	25	18	8	1	9
3058498	PROB	n/a	LTP338	ltpFR2	15	n/a	n/a	n/a	25	18	7	9	2
3060315	PROB	n/a	LTP338	ltpFR2	15	n/a	n/a	n/a	25	14	5	1	9
3062281	PROB	n/a	LTP338	ltpFR2	15	n/a	n/a	n/a	25	21	8	7	6
3066129	PROB	n/a	LTP338	ltpFR2	15	n/a	n/a	n/a	25	13	5	7	1
3067795	PROB	n/a	LTP338	ltpFR2	15	n/a	n/a	n/a	25	26	8	9	9
3073070	STOP	n/a	LTP338	ltpFR2	15	n/a	n/a	n/a	25	n/a	n/a	n/a	n/a
3074859	REC_START	n/a	LTP338	ltpFR2	15	16	n/a	n/a	n/a	n/a	0	0	0
3076969	REC_WORD	wordpools/wasnorm_wordpool_576.txt	LTP338	ltpFR2	15	16	ROBOT	1200	n/a	n/a	0	0	0
3077623	REC_WORD	wordpools/wasnorm_wordpool_576.txt	LTP338	ltpFR2	15	16	CLAM	315	n/a	n/a	0	0	0
3084986	REC_WORD	wordpools/wasnorm_wordpool_576.txt	LTP338	ltpFR2	15	16	KLEENEX	782	n/a	n/a	0	0	0
3113761	REC_WORD	wordpools/wasnorm_wordpool_576.txt	LTP338	ltpFR2	15	16	SWIMMER	1420	n/a	n/a	0	0	0
3114879	REC_WORD	wordpools/wasnorm_wordpool_576.txt	LTP338	ltpFR2	15	16	ULCER	1533	n/a	n/a	0	0	0
3116051	REC_WORD	wordpools/wasnorm_wordpool_576.txt	LTP338	ltpFR2	15	16	FARMER	553	n/a	n/a	0	0	0
3118604	REC_WORD	wordpools/wasnorm_wordpool_576.txt	LTP338	ltpFR2	15	16	DINER	467	n/a	n/a	0	0	0
3124135	REC_WORD	wordpools/wasnorm_wordpool_576.txt	LTP338	ltpFR2	15	16	WASHER	1592	n/a	n/a	0	0	0
3125325	REC_WORD	wordpools/wasnorm_wordpool_576.txt	LTP338	ltpFR2	15	16	PUDDLE	1140	n/a	n/a	0	0	0
3151406	REST_REWET	n/a	LTP338	ltpFR2	15	16	n/a	n/a	n/a	n/a	0	0	0
3226140	DISTRACTOR	n/a	LTP338	ltpFR2	15	17	n/a	n/a	n/a	n/a	0	0	0
3226140	START	n/a	LTP338	ltpFR2	15	n/a	n/a	n/a	26	n/a	n/a	n/a	n/a
3226157	PROB	n/a	LTP338	ltpFR2	15	n/a	n/a	n/a	26	19	7	9	3
3227989	PROB	n/a	LTP338	ltpFR2	15	n/a	n/a	n/a	26	9	2	2	5
3232271	PROB	n/a	LTP338	ltpFR2	15	n/a	n/a	n/a	26	20	3	9	8
3233887	PROB	n/a	LTP338	ltpFR2	15	n/a	n/a	n/a	26	17	8	4	5
3236002	PROB	n/a	LTP338	ltpFR2	15	n/a	n/a	n/a	26	10	3	2	5
3237651	PROB	n/a	LTP338	ltpFR2	15	n/a	n/a	n/a	26	8	3	3	2
3238951	PROB	n/a	LTP338	ltpFR2	15	n/a	n/a	n/a	26	14	4	3	7
3240284	PROB	n/a	LTP338	ltpFR2	15	n/a	n/a	n/a	26	14	7	5	2
3242016	PROB	n/a	LTP338	ltpFR2	15	n/a	n/a	n/a	26	23	8	6	9
3245198	PROB	n/a	LTP338	ltpFR2	15	n/a	n/a	n/a	26	10	1	1	8
3246463	PROB	n/a	LTP338	ltpFR2	15	n/a	n/a	n/a	26	10	2	2	6
3248030	PROB	n/a	LTP338	ltpFR2	15	n/a	n/a	n/a	26	18	9	2	7
3249737	STOP	n/a	LTP338	ltpFR2	15	n/a	n/a	n/a	26	n/a	n/a	n/a	n/a
3251062	WORD	wordpools/wasnorm_wordpool_576.txt	LTP338	ltpFR2	15	17	BEAKER	104	n/a	n/a	0	0	0
3253577	WORD	wordpools/wasnorm_wordpool_576.txt	LTP338	ltpFR2	15	17	SHORTCAKE	1292	n/a	n/a	0	0	0
3256343	WORD	wordpools/wasnorm_wordpool_576.txt	LTP338	ltpFR2	15	17	CHILD	299	n/a	n/a	0	0	0
3258925	WORD	wordpools/wasnorm_wordpool_576.txt	LTP338	ltpFR2	15	17	PLAYGROUND	1087	n/a	n/a	0	0	0
3261390	WORD	wordpools/wasnorm_wordpool_576.txt	LTP338	ltpFR2	15	17	STOMACH	1384	n/a	n/a	0	0	0
3264156	WORD	wordpools/wasnorm_wordpool_576.txt	LTP338	ltpFR2	15	17	MILDEW	893	n/a	n/a	0	0	0
3266822	WORD	wordpools/wasnorm_wordpool_576.txt	LTP338	ltpFR2	15	17	GIFT	635	n/a	n/a	0	0	0
3269586	WORD	wordpools/wasnorm_wordpool_576.txt	LTP338	ltpFR2	15	17	JELLO	754	n/a	n/a	0	0	0
3272286	WORD	wordpools/wasnorm_wordpool_576.txt	LTP338	ltpFR2	15	17	CUSTARD	429	n/a	n/a	0	0	0
3275051	WORD	wordpools/wasnorm_wordpool_576.txt	LTP338	ltpFR2	15	17	SWAMP	1416	n/a	n/a	0	0	0
3277549	WORD	wordpools/wasnorm_wordpool_576.txt	LTP338	ltpFR2	15	17	FOX	598	n/a	n/a	0	0	0
3280232	WORD	wordpools/wasnorm_wordpool_576.txt	LTP338	ltpFR2	15	17	OUTDOORS	987	n/a	n/a	0	0	0
3282664	WORD	wordpools/wasnorm_wordpool_576.txt	LTP338	ltpFR2	15	17	BOX	159	n/a	n/a	0	0	0
3285180	WORD	wordpools/wasnorm_wordpool_576.txt	LTP338	ltpFR2	15	17	SLIME	1327	n/a	n/a	0	0	0
3287879	WORD	wordpools/wasnorm_wordpool_576.txt	LTP338	ltpFR2	15	17	TRACTOR	1493	n/a	n/a	0	0	0
3290643	WORD	wordpools/wasnorm_wordpool_576.txt	LTP338	ltpFR2	15	17	ROBBER	1197	n/a	n/a	0	0	0
3293310	WORD	wordpools/wasnorm_wordpool_576.txt	LTP338	ltpFR2	15	17	MASK	876	n/a	n/a	0	0	0
3295859	WORD	wordpools/wasnorm_wordpool_576.txt	LTP338	ltpFR2	15	17	SUSPECT	1415	n/a	n/a	0	0	0
3298390	WORD	wordpools/wasnorm_wordpool_576.txt	LTP338	ltpFR2	15	17	BURGLAR	200	n/a	n/a	0	0	0
3301023	WORD	wordpools/wasnorm_wordpool_576.txt	LTP338	ltpFR2	15	17	FRANCE	601	n/a	n/a	0	0	0
3303638	WORD	wordpools/wasnorm_wordpool_576.txt	LTP338	ltpFR2	15	17	FRECKLE	602	n/a	n/a	0	0	0
3306187	WORD	wordpools/wasnorm_wordpool_576.txt	LTP338	ltpFR2	15	17	FOREHEAD	592	n/a	n/a	0	0	0
3308836	WORD	wordpools/wasnorm_wordpool_576.txt	LTP338	ltpFR2	15	17	CORAL	378	n/a	n/a	0	0	0
3311351	WORD	wordpools/wasnorm_wordpool_576.txt	LTP338	ltpFR2	15	17	AIRPORT	13	n/a	n/a	0	0	0
3312968	START	n/a	LTP338	ltpFR2	15	n/a	n/a	n/a	27	n/a	n/a	n/a	n/a
3314138	DISTRACTOR	n/a	LTP338	ltpFR2	15	17	n/a	n/a	n/a	n/a	0	0	0
3314150	PROB	n/a	LTP338	ltpFR2	15	n/a	n/a	n/a	27	17	2	8	7
3315833	PROB	n/a	LTP338	ltpFR2	15	n/a	n/a	n/a	27	19	6	4	9
3317381	PROB	n/a	LTP338	ltpFR2	15	n/a	n/a	n/a	27	14	5	2	7
3318848	PROB	n/a	LTP338	ltpFR2	15	n/a	n/a	n/a	27	19	6	5	8
3320497	PROB	n/a	LTP338	ltpFR2	15	n/a	n/a	n/a	27	20	5	8	7
3322747	PROB	n/a	LTP338	ltpFR2	15	n/a	n/a	n/a	27	14	2	4	8
3324246	PROB	n/a	LTP338	ltpFR2	15	n/a	n/a	n/a	27	15	3	9	3
3325762	PROB	n/a	LTP338	ltpFR2	15	n/a	n/a	n/a	27	10	7	2	1
3327194	PROB	n/a	LTP338	ltpFR2	15	n/a	n/a	n/a	27	22	9	9	4
3329393	PROB	n/a	LTP338	ltpFR2	15	n/a	n/a	n/a	27	11	3	1	7
3330993	PROB	n/a	LTP338	ltpFR2	15	n/a	n/a	n/a	27	18	7	2	9
3332725	PROB	n/a	LTP338	ltpFR2	15	n/a	n/a	n/a	27	14	6	3	5
3334891	PROB	n/a	LTP338	ltpFR2	15	n/a	n/a	n/a	27	10	1	8	1
3336547	STOP	n/a	LTP338	ltpFR2	15	n/a	n/a	n/a	27	n/a	n/a	n/a	n/a
3338740	REC_START	n/a	LTP338	ltpFR2	15	17	n/a	n/a	n/a	n/a	0	0	0
3340934	REC_WORD	wordpools/wasnorm_wordpool_576.txt	LTP338	ltpFR2	15	17	JELLO	754	n/a	n/a	0	0	0
3341400	REC_WORD	wordpools/wasnorm_wordpool_576.txt	LTP338	ltpFR2	15	17	PLAYGROUND	1087	n/a	n/a	0	0	0
3343167	REC_WORD	wordpools/wasnorm_wordpool_576.txt	LTP338	ltpFR2	15	17	FOX	598	n/a	n/a	0	0	0
3429182	WORD	wordpools/wasnorm_wordpool_576.txt	LTP338	ltpFR2	15	18	CRUTCH	417	n/a	n/a	0	0	0
3431797	WORD	wordpools/wasnorm_wordpool_576.txt	LTP338	ltpFR2	15	18	BARLEY	88	n/a	n/a	0	0	0
3434595	WORD	wordpools/wasnorm_wordpool_576.txt	LTP338	ltpFR2	15	18	HANDBAG	684	n/a	n/a	0	0	0
3437245	WORD	wordpools/wasnorm_wordpool_576.txt	LTP338	ltpFR2	15	18	BANJO	82	n/a	n/a	0	0	0
3440060	WORD	wordpools/wasnorm_wordpool_576.txt	LTP338	ltpFR2	15	18	PEACH	1031	n/a	n/a	0	0	0
3442776	WORD	wordpools/wasnorm_wordpool_576.txt	LTP338	ltpFR2	15	18	LEOPARD	812	n/a	n/a	0	0	0
3445473	WORD	wordpools/wasnorm_wordpool_576.txt	LTP338	ltpFR2	15	18	KNAPSACK	783	n/a	n/a	0	0	0
3448207	WORD	wordpools/wasnorm_wordpool_576.txt	LTP338	ltpFR2	15	18	DIME	466	n/a	n/a	0	0	0
3450755	WORD	wordpools/wasnorm_wordpool_576.txt	LTP338	ltpFR2	15	18	CAMEL	223	n/a	n/a	0	0	0
3453553	WORD	wordpools/wasnorm_wordpool_576.txt	LTP338	ltpFR2	15	18	RUST	1219	n/a	n/a	0	0	0
3456136	WORD	wordpools/wasnorm_wordpool_576.txt	LTP338	ltpFR2	15	18	PATIENT	1024	n/a	n/a	0	0	0
3458952	WORD	wordpools/wasnorm_wordpool_576.txt	LTP338	ltpFR2	15	18	CHEMIST	292	n/a	n/a	0	0	0
3461533	WORD	wordpools/wasnorm_wordpool_576.txt	LTP338	ltpFR2	15	18	UNCLE	1536	n/a	n/a	0	0	0
3463983	WORD	wordpools/wasnorm_wordpool_576.txt	LTP338	ltpFR2	15	18	MONSTER	912	n/a	n/a	0	0	0
3466731	WORD	wordpools/wasnorm_wordpool_576.txt	LTP338	ltpFR2	15	18	BEAST	108	n/a	n/a	0	0	0
3469330	WORD	wordpools/wasnorm_wordpool_576.txt	LTP338	ltpFR2	15	18	LIPSTICK	829	n/a	n/a	0	0	0
3472129	WORD	wordpools/wasnorm_wordpool_576.txt	LTP338	ltpFR2	15	18	MARKER	870	n/a	n/a	0	0	0
3474878	WORD	wordpools/wasnorm_wordpool_576.txt	LTP338	ltpFR2	15	18	COUSIN	392	n/a	n/a	0	0	0
3477675	WORD	wordpools/wasnorm_wordpool_576.txt	LTP338	ltpFR2	15	18	MAPLE	866	n/a	n/a	0	0	0
3480424	WORD	wordpools/wasnorm_wordpool_576.txt	LTP338	ltpFR2	15	18	HAND	683	n/a	n/a	0	0	0
3483241	WORD	wordpools/wasnorm_wordpool_576.txt	LTP338	ltpFR2	15	18	FINGER	567	n/a	n/a	0	0	0
3485989	WORD	wordpools/wasnorm_wordpool_576.txt	LTP338	ltpFR2	15	18	APPLE	33	n/a	n/a	0	0	0
3488755	WORD	wordpools/wasnorm_wordpool_576.txt	LTP338	ltpFR2	15	18	STONE	1385	n/a	n/a	0	0	0
3491536	WORD	wordpools/wasnorm_wordpool_576.txt	LTP338	ltpFR2	15	18	SHOULDER	1294	n/a	n/a	0	0	0
3493153	START	n/a	LTP338	ltpFR2	15	n/a	n/a	n/a	28	n/a	n/a	n/a	n/a
3494130	DISTRACTOR	n/a	LTP338	ltpFR2	15	18	n/a	n/a	n/a	n/a	0	0	0
3494136	PROB	n/a	LTP338	ltpFR2	15	n/a	n/a	n/a	28	17	5	5	7
3495634	PROB	n/a	LTP338	ltpFR2	15	n/a	n/a	n/a	28	15	1	8	6
3496918	PROB	n/a	LTP338	ltpFR2	15	n/a	n/a	n/a	28	16	5	4	7
3498633	PROB	n/a	LTP338	ltpFR2	15	n/a	n/a	n/a	28	14	7	5	2
3500216	PROB	n/a	LTP338	ltpFR2	15	n/a	n/a	n/a	28	10	3	2	5
3501698	PROB	n/a	LTP338	ltpFR2	15	n/a	n/a	n/a	28	13	1	8	5
3504680	PROB	n/a	LTP338	ltpFR2	15	n/a	n/a	n/a	28	21	8	6	7
3507846	PROB	n/a	LTP338	ltpFR2	15	n/a	n/a	n/a	28	19	8	2	9
3509829	PROB	n/a	LTP338	ltpFR2	15	n/a	n/a	n/a	28	9	5	3	1
3511061	PROB	n/a	LTP338	ltpFR2	15	n/a	n/a	n/a	28	9	3	3	3
3513459	PROB	n/a	LTP338	ltpFR2	15	n/a	n/a	n/a	28	9	3	3	3
3514375	PROB	n/a	LTP338	ltpFR2	15	n/a	n/a	n/a	28	23	9	5	9
3516545	STOP	n/a	LTP338	ltpFR2	15	n/a	n/a	n/a	28	n/a	n/a	n/a	n/a
3518958	REC_START	n/a	LTP338	ltpFR2	15	18	n/a	n/a	n/a	n/a	0	0	0
3521143	REC_WORD	wordpools/wasnorm_wordpool_576.txt	LTP338	ltpFR2	15	18	CHEMIST	292	n/a	n/a	0	0	0
3522148	REC_WORD	wordpools/wasnorm_wordpool_576.txt	LTP338	ltpFR2	15	18	UNCLE	1536	n/a	n/a	0	0	0
3522982	REC_WORD	wordpools/wasnorm_wordpool_576.txt	LTP338	ltpFR2	15	18	COUSIN	392	n/a	n/a	0	0	0
3523964	REC_WORD	wordpools/wasnorm_wordpool_576.txt	LTP338	ltpFR2	15	18	PATIENT	1024	n/a	n/a	0	0	0
3524906	REC_WORD	wordpools/wasnorm_wordpool_576.txt	LTP338	ltpFR2	15	18	MONSTER	912	n/a	n/a	0	0	0
3525906	REC_WORD_VV	wordpools/wasnorm_wordpool_576.txt	LTP338	ltpFR2	15	18	<>	-1	n/a	n/a	0	0	0
3528996	REC_WORD	wordpools/wasnorm_wordpool_576.txt	LTP338	ltpFR2	15	18	LEOPARD	812	n/a	n/a	0	0	0
3532132	REC_WORD	wordpools/wasnorm_wordpool_576.txt	LTP338	ltpFR2	15	18	BARLEY	88	n/a	n/a	0	0	0
3532951	REC_WORD	wordpools/wasnorm_wordpool_576.txt	LTP338	ltpFR2	15	18	RUST	1219	n/a	n/a	0	0	0
3533691	REC_WORD	wordpools/wasnorm_wordpool_576.txt	LTP338	ltpFR2	15	18	CORAL	378	n/a	n/a	0	0	0
3561027	REC_WORD	wordpools/wasnorm_wordpool_576.txt	LTP338	ltpFR2	15	18	APPLE	33	n/a	n/a	0	0	0
3561951	REC_WORD	wordpools/wasnorm_wordpool_576.txt	LTP338	ltpFR2	15	18	STONE	1385	n/a	n/a	0	0	0
3562967	REC_WORD	wordpools/wasnorm_wordpool_576.txt	LTP338	ltpFR2	15	18	SHOULDER	1294	n/a	n/a	0	0	0
3609416	WORD	wordpools/wasnorm_wordpool_576.txt	LTP338	ltpFR2	15	19	AWARD	63	n/a	n/a	0	0	0
3611982	WORD	wordpools/wasnorm_wordpool_576.txt	LTP338	ltpFR2	15	19	LETTUCE	814	n/a	n/a	0	0	0
3614514	WORD	wordpools/wasnorm_wordpool_576.txt	LTP338	ltpFR2	15	19	TURNIP	1521	n/a	n/a	0	0	0
3617080	WORD	wordpools/wasnorm_wordpool_576.txt	LTP338	ltpFR2	15	19	PACKAGE	997	n/a	n/a	0	0	0
3619661	WORD	wordpools/wasnorm_wordpool_576.txt	LTP338	ltpFR2	15	19	MARKET	871	n/a	n/a	0	0	0
3622211	WORD	wordpools/wasnorm_wordpool_576.txt	LTP338	ltpFR2	15	19	FLOWER	584	n/a	n/a	0	0	0
3624710	WORD	wordpools/wasnorm_wordpool_576.txt	LTP338	ltpFR2	15	19	FRIEND	606	n/a	n/a	0	0	0
3627424	WORD	wordpools/wasnorm_wordpool_576.txt	LTP338	ltpFR2	15	19	PARTNER	1017	n/a	n/a	0	0	0
3630008	WORD	wordpools/wasnorm_wordpool_576.txt	LTP338	ltpFR2	15	19	SALAD	1224	n/a	n/a	0	0	0
3632589	WORD	wordpools/wasnorm_wordpool_576.txt	LTP338	ltpFR2	15	19	LAVA	804	n/a	n/a	0	0	0
3635338	WORD	wordpools/wasnorm_wordpool_576.txt	LTP338	ltpFR2	15	19	BADGE	68	n/a	n/a	0	0	0
3637837	WORD	wordpools/wasnorm_wordpool_576.txt	LTP338	ltpFR2	15	19	JAPAN	749	n/a	n/a	0	0	0
3640402	WORD	wordpools/wasnorm_wordpool_576.txt	LTP338	ltpFR2	15	19	JELLY	755	n/a	n/a	0	0	0
3642902	WORD	wordpools/wasnorm_wordpool_576.txt	LTP338	ltpFR2	15	19	OINTMENT	974	n/a	n/a	0	0	0
3645433	WORD	wordpools/wasnorm_wordpool_576.txt	LTP338	ltpFR2	15	19	SCARECROW	1245	n/a	n/a	0	0	0
3647983	WORD	wordpools/wasnorm_wordpool_576.txt	LTP338	ltpFR2	15	19	ASIA	46	n/a	n/a	0	0	0
3650748	WORD	wordpools/wasnorm_wordpool_576.txt	LTP338	ltpFR2	15	19	TWISTER	1530	n/a	n/a	0	0	0
3653180	WORD	wordpools/wasnorm_wordpool_576.txt	LTP338	ltpFR2	15	19	FREEZER	604	n/a	n/a	0	0	0
3655812	WORD	wordpools/wasnorm_wordpool_576.txt	LTP338	ltpFR2	15	19	JUNGLE	764	n/a	n/a	0	0	0
3658311	WORD	wordpools/wasnorm_wordpool_576.txt	LTP338	ltpFR2	15	19	HUSBAND	728	n/a	n/a	0	0	0
3660860	WORD	wordpools/wasnorm_wordpool_576.txt	LTP338	ltpFR2	15	19	LUGGAGE	847	n/a	n/a	0	0	0
3663391	WORD	wordpools/wasnorm_wordpool_576.txt	LTP338	ltpFR2	15	19	DRESS	495	n/a	n/a	0	0	0
3666008	WORD	wordpools/wasnorm_wordpool_576.txt	LTP338	ltpFR2	15	19	SALMON	1227	n/a	n/a	0	0	0
3668689	WORD	wordpools/wasnorm_wordpool_576.txt	LTP338	ltpFR2	15	19	TOURIST	1488	n/a	n/a	0	0	0
3670306	START	n/a	LTP338	ltpFR2	15	n/a	n/a	n/a	29	n/a	n/a	n/a	n/a
3671298	DISTRACTOR	n/a	LTP338	ltpFR2	15	19	n/a	n/a	n/a	n/a	0	0	0
3671306	PROB	n/a	LTP338	ltpFR2	15	n/a	n/a	n/a	29	17	6	4	7
3672838	PROB	n/a	LTP338	ltpFR2	15	n/a	n/a	n/a	29	12	3	4	5
3675021	PROB	n/a	LTP338	ltpFR2	15	n/a	n/a	n/a	29	19	7	3	9
3676320	PROB	n/a	LTP338	ltpFR2	15	n/a	n/a	n/a	29	21	6	7	8
3678236	PROB	n/a	LTP338	ltpFR2	15	n/a	n/a	n/a	29	6	2	1	3
3679868	PROB	n/a	LTP338	ltpFR2	15	n/a	n/a	n/a	29	19	9	9	1
3681118	PROB	n/a	LTP338	ltpFR2	15	n/a	n/a	n/a	29	14	4	8	2
3682967	PROB	n/a	LTP338	ltpFR2	15	n/a	n/a	n/a	29	20	6	9	5
3685016	PROB	n/a	LTP338	ltpFR2	15	n/a	n/a	n/a	29	13	6	3	4
3687931	PROB	n/a	LTP338	ltpFR2	15	n/a	n/a	n/a	29	13	2	3	8
3690114	PROB	n/a	LTP338	ltpFR2	15	n/a	n/a	n/a	29	20	4	8	8
3691595	PROB	n/a	LTP338	ltpFR2	15	n/a	n/a	n/a	29	21	3	9	9
3692903	STOP	n/a	LTP338	ltpFR2	15	n/a	n/a	n/a	29	n/a	n/a	n/a	n/a
3696178	REC_START	n/a	LTP338	ltpFR2	15	19	n/a	n/a	n/a	n/a	0	0	0
3698293	REC_WORD	wordpools/wasnorm_wordpool_576.txt	LTP338	ltpFR2	15	19	LETTUCE	814	n/a	n/a	0	0	0
3699103	REC_WORD	wordpools/wasnorm_wordpool_576.txt	LTP338	ltpFR2	15	19	TURNIP	1521	n/a	n/a	0	0	0
3700173	REC_WORD	wordpools/wasnorm_wordpool_576.txt	LTP338	ltpFR2	15	19	SALAD	1224	n/a	n/a	0	0	0
3704035	REC_WORD	wordpools/wasnorm_wordpool_576.txt	LTP338	ltpFR2	15	19	LUGGAGE	847	n/a	n/a	0	0	0
3708993	REC_WORD	wordpools/wasnorm_wordpool_576.txt	LTP338	ltpFR2	15	19	TOURIST	1488	n/a	n/a	0	0	0
3745390	REC_WORD	wordpools/wasnorm_wordpool_576.txt	LTP338	ltpFR2	15	19	BADGE	68	n/a	n/a	0	0	0
3750327	REC_WORD	wordpools/wasnorm_wordpool_576.txt	LTP338	ltpFR2	15	19	TWISTER	1530	n/a	n/a	0	0	0
3751583	REC_WORD	wordpools/wasnorm_wordpool_576.txt	LTP338	ltpFR2	15	19	FREEZER	604	n/a	n/a	0	0	0
3753867	REC_WORD	wordpools/wasnorm_wordpool_576.txt	LTP338	ltpFR2	15	19	JUNGLE	764	n/a	n/a	0	0	0
3786636	WORD	wordpools/wasnorm_wordpool_576.txt	LTP338	ltpFR2	15	20	TILE	1468	n/a	n/a	0	0	0
3789335	WORD	wordpools/wasnorm_wordpool_576.txt	LTP338	ltpFR2	15	20	OFFICE	972	n/a	n/a	0	0	0
3792067	WORD	wordpools/wasnorm_wordpool_576.txt	LTP338	ltpFR2	15	20	STUDENT	1395	n/a	n/a	0	0	0
3794499	WORD	wordpools/wasnorm_wordpool_576.txt	LTP338	ltpFR2	15	20	EYELASH	546	n/a	n/a	0	0	0
3797148	WORD	wordpools/wasnorm_wordpool_576.txt	LTP338	ltpFR2	15	20	LION	827	n/a	n/a	0	0	0
3799881	WORD	wordpools/wasnorm_wordpool_576.txt	LTP338	ltpFR2	15	20	AGENT	10	n/a	n/a	0	0	0
3802462	WORD	wordpools/wasnorm_wordpool_576.txt	LTP338	ltpFR2	15	20	MATTRESS	879	n/a	n/a	0	0	0
3805195	WORD	wordpools/wasnorm_wordpool_576.txt	LTP338	ltpFR2	15	20	BUG	187	n/a	n/a	0	0	0
3808010	WORD	wordpools/wasnorm_wordpool_576.txt	LTP338	ltpFR2	15	20	COCOON	339	n/a	n/a	0	0	0
3810508	WORD	wordpools/wasnorm_wordpool_576.txt	LTP338	ltpFR2	15	20	BEEF	113	n/a	n/a	0	0	0
3813058	WORD	wordpools/wasnorm_wordpool_576.txt	LTP338	ltpFR2	15	20	BUTCHER	203	n/a	n/a	0	0	0
3815723	WORD	wordpools/wasnorm_wordpool_576.txt	LTP338	ltpFR2	15	20	FLUTE	585	n/a	n/a	0	0	0
3818471	WORD	wordpools/wasnorm_wordpool_576.txt	LTP338	ltpFR2	15	20	ATOM	55	n/a	n/a	0	0	0
3821004	WORD	wordpools/wasnorm_wordpool_576.txt	LTP338	ltpFR2	15	20	GAZELLE	628	n/a	n/a	0	0	0
3823469	WORD	wordpools/wasnorm_wordpool_576.txt	LTP338	ltpFR2	15	20	BRICK	172	n/a	n/a	0	0	0
3826119	WORD	wordpools/wasnorm_wordpool_576.txt	LTP338	ltpFR2	15	20	SUNRISE	1407	n/a	n/a	0	0	0
3828801	WORD	wordpools/wasnorm_wordpool_576.txt	LTP338	ltpFR2	15	20	ROOSTER	1209	n/a	n/a	0	0	0
3831565	WORD	wordpools/wasnorm_wordpool_576.txt	LTP338	ltpFR2	15	20	GLASS	639	n/a	n/a	0	0	0
3834115	WORD	wordpools/wasnorm_wordpool_576.txt	LTP338	ltpFR2	15	20	STOVE	1388	n/a	n/a	0	0	0
3836646	WORD	wordpools/wasnorm_wordpool_576.txt	LTP338	ltpFR2	15	20	NEUTRON	947	n/a	n/a	0	0	0
3839196	WORD	wordpools/wasnorm_wordpool_576.txt	LTP338	ltpFR2	15	20	FIDDLE	561	n/a	n/a	0	0	0
3841712	WORD	wordpools/wasnorm_wordpool_576.txt	LTP338	ltpFR2	15	20	KEEPER	769	n/a	n/a	0	0	0
3844359	WORD	wordpools/wasnorm_wordpool_576.txt	LTP338	ltpFR2	15	20	HERO	706	n/a	n/a	0	0	0
3846826	WORD	wordpools/wasnorm_wordpool_576.txt	LTP338	ltpFR2	15	20	GARDEN	623	n/a	n/a	0	0	0
3848441	START	n/a	LTP338	ltpFR2	15	n/a	n/a	n/a	30	n/a	n/a	n/a	n/a
3849251	DISTRACTOR	n/a	LTP338	ltpFR2	15	20	n/a	n/a	n/a	n/a	0	0	0
3849258	PROB	n/a	LTP338	ltpFR2	15	n/a	n/a	n/a	30	15	5	2	8
3850891	PROB	n/a	LTP338	ltpFR2	15	n/a	n/a	n/a	30	8	1	4	3
3853740	PROB	n/a	LTP338	ltpFR2	15	n/a	n/a	n/a	30	12	9	1	2
3855554	PROB	n/a	LTP338	ltpFR2	15	n/a	n/a	n/a	30	17	9	5	3
3857788	PROB	n/a	LTP338	ltpFR2	15	n/a	n/a	n/a	30	15	8	5	2
3859703	PROB	n/a	LTP338	ltpFR2	15	n/a	n/a	n/a	30	13	7	1	5
3861668	PROB	n/a	LTP338	ltpFR2	15	n/a	n/a	n/a	30	11	2	7	2
3863517	PROB	n/a	LTP338	ltpFR2	15	n/a	n/a	n/a	30	9	5	1	3
3864901	PROB	n/a	LTP338	ltpFR2	15	n/a	n/a	n/a	30	17	7	2	8
3868499	PROB	n/a	LTP338	ltpFR2	15	n/a	n/a	n/a	30	20	4	7	9
3870149	PROB	n/a	LTP338	ltpFR2	15	n/a	n/a	n/a	30	14	5	4	5
3871925	STOP	n/a	LTP338	ltpFR2	15	n/a	n/a	n/a	30	n/a	n/a	n/a	n/a
3874214	REC_START	n/a	LTP338	ltpFR2	15	20	n/a	n/a	n/a	n/a	0	0	0
3880244	REC_WORD	wordpools/wasnorm_wordpool_576.txt	LTP338	ltpFR2	15	20	HERO	706	n/a	n/a	0	0	0
3881168	REC_WORD	wordpools/wasnorm_wordpool_576.txt	LTP338	ltpFR2	15	20	GARDEN	623	n/a	n/a	0	0	0
3882174	REC_WORD	wordpools/wasnorm_wordpool_576.txt	LTP338	ltpFR2	15	20	KEEPER	769	n/a	n/a	0	0	0
3900305	REC_WORD	wordpools/wasnorm_wordpool_576.txt	LTP338	ltpFR2	15	20	GLASS	639	n/a	n/a	0	0	0
3931105	REC_WORD	wordpools/wasnorm_wordpool_576.txt	LTP338	ltpFR2	15	20	SUNRISE	1407	n/a	n/a	0	0	0
3932057	REC_WORD	wordpools/wasnorm_wordpool_576.txt	LTP338	ltpFR2	15	20	ROOSTER	1209	n/a	n/a	0	0	0
3964672	WORD	wordpools/wasnorm_wordpool_576.txt	LTP338	ltpFR2	15	21	ARM	38	n/a	n/a	0	0	0
3967188	WORD	wordpools/wasnorm_wordpool_576.txt	LTP338	ltpFR2	15	21	KETCHUP	771	n/a	n/a	0	0	0
3969619	WORD	wordpools/wasnorm_wordpool_576.txt	LTP338	ltpFR2	15	21	MUSTARD	935	n/a	n/a	0	0	0
3972336	WORD	wordpools/wasnorm_wordpool_576.txt	LTP338	ltpFR2	15	21	PREACHER	1119	n/a	n/a	0	0	0
3975101	WORD	wordpools/wasnorm_wordpool_576.txt	LTP338	ltpFR2	15	21	BANQUET	86	n/a	n/a	0	0	0
3977900	WORD	wordpools/wasnorm_wordpool_576.txt	LTP338	ltpFR2	15	21	HOUND	724	n/a	n/a	0	0	0
3980581	WORD	wordpools/wasnorm_wordpool_576.txt	LTP338	ltpFR2	15	21	MILK	895	n/a	n/a	0	0	0
3983198	WORD	wordpools/wasnorm_wordpool_576.txt	LTP338	ltpFR2	15	21	PORK	1108	n/a	n/a	0	0	0
3985695	WORD	wordpools/wasnorm_wordpool_576.txt	LTP338	ltpFR2	15	21	STAKE	1368	n/a	n/a	0	0	0
3988329	WORD	wordpools/wasnorm_wordpool_576.txt	LTP338	ltpFR2	15	21	STICKER	1382	n/a	n/a	0	0	0
3990844	WORD	wordpools/wasnorm_wordpool_576.txt	LTP338	ltpFR2	15	21	MUMMY	932	n/a	n/a	0	0	0
3993642	WORD	wordpools/wasnorm_wordpool_576.txt	LTP338	ltpFR2	15	21	COOKBOOK	373	n/a	n/a	0	0	0
3996208	WORD	wordpools/wasnorm_wordpool_576.txt	LTP338	ltpFR2	15	21	COTTAGE	384	n/a	n/a	0	0	0
3998741	WORD	wordpools/wasnorm_wordpool_576.txt	LTP338	ltpFR2	15	21	FRUIT	610	n/a	n/a	0	0	0
4001306	WORD	wordpools/wasnorm_wordpool_576.txt	LTP338	ltpFR2	15	21	GRAPE	654	n/a	n/a	0	0	0
4004121	WORD	wordpools/wasnorm_wordpool_576.txt	LTP338	ltpFR2	15	21	CHAMPAGNE	278	n/a	n/a	0	0	0
4006771	WORD	wordpools/wasnorm_wordpool_576.txt	LTP338	ltpFR2	15	21	SUNSET	1408	n/a	n/a	0	0	0
4009269	WORD	wordpools/wasnorm_wordpool_576.txt	LTP338	ltpFR2	15	21	ORANGE	980	n/a	n/a	0	0	0
4011700	WORD	wordpools/wasnorm_wordpool_576.txt	LTP338	ltpFR2	15	21	CHAPEL	280	n/a	n/a	0	0	0
4014150	WORD	wordpools/wasnorm_wordpool_576.txt	LTP338	ltpFR2	15	21	HIGHWAY	707	n/a	n/a	0	0	0
4016698	WORD	wordpools/wasnorm_wordpool_576.txt	LTP338	ltpFR2	15	21	VALVE	1546	n/a	n/a	0	0	0
4019463	WORD	wordpools/wasnorm_wordpool_576.txt	LTP338	ltpFR2	15	21	POWDER	1117	n/a	n/a	0	0	0
4022080	WORD	wordpools/wasnorm_wordpool_576.txt	LTP338	ltpFR2	15	21	ANKLE	24	n/a	n/a	0	0	0
4024829	WORD	wordpools/wasnorm_wordpool_576.txt	LTP338	ltpFR2	15	21	SIDEWALK	1303	n/a	n/a	0	0	0
4026444	START	n/a	LTP338	ltpFR2	15	n/a	n/a	n/a	31	n/a	n/a	n/a	n/a
4027409	DISTRACTOR	n/a	LTP338	ltpFR2	15	21	n/a	n/a	n/a	n/a	0	0	0
4027427	PROB	n/a	LTP338	ltpFR2	15	n/a	n/a	n/a	31	18	8	2	8
4029127	PROB	n/a	LTP338	ltpFR2	15	n/a	n/a	n/a	31	14	8	1	5
4033341	PROB	n/a	LTP338	ltpFR2	15	n/a	n/a	n/a	31	16	2	8	6
4035241	PROB	n/a	LTP338	ltpFR2	15	n/a	n/a	n/a	31	17	4	9	4
4036773	PROB	n/a	LTP338	ltpFR2	15	n/a	n/a	n/a	31	19	9	1	9
4038339	PROB	n/a	LTP338	ltpFR2	15	n/a	n/a	n/a	31	14	2	3	9
4041570	PROB	n/a	LTP338	ltpFR2	15	n/a	n/a	n/a	31	15	7	2	6
4043337	PROB	n/a	LTP338	ltpFR2	15	n/a	n/a	n/a	31	7	4	1	2
4044753	PROB	n/a	LTP338	ltpFR2	15	n/a	n/a	n/a	31	13	8	2	3
4046319	PROB	n/a	LTP338	ltpFR2	15	n/a	n/a	n/a	31	20	5	7	8
4048251	PROB	n/a	LTP338	ltpFR2	15	n/a	n/a	n/a	31	17	4	7	6
4049754	STOP	n/a	LTP338	ltpFR2	15	n/a	n/a	n/a	31	n/a	n/a	n/a	n/a
4052300	REC_START	n/a	LTP338	ltpFR2	15	21	n/a	n/a	n/a	n/a	0	0	0
4057734	REC_WORD	wordpools/wasnorm_wordpool_576.txt	LTP338	ltpFR2	15	21	ARM	38	n/a	n/a	0	0	0
4059882	REC_WORD	wordpools/wasnorm_wordpool_576.txt	LTP338	ltpFR2	15	21	ANKLE	24	n/a	n/a	0	0	0
4061060	REC_WORD	wordpools/wasnorm_wordpool_576.txt	LTP338	ltpFR2	15	21	KETCHUP	771	n/a	n/a	0	0	0
4061632	REC_WORD	wordpools/wasnorm_wordpool_576.txt	LTP338	ltpFR2	15	21	MUSTARD	935	n/a	n/a	0	0	0
4062848	REC_WORD	wordpools/wasnorm_wordpool_576.txt	LTP338	ltpFR2	15	21	BANQUET	86	n/a	n/a	0	0	0
4064411	REC_WORD	wordpools/wasnorm_wordpool_576.txt	LTP338	ltpFR2	15	21	GRAPE	654	n/a	n/a	0	0	0
4064993	REC_WORD	wordpools/wasnorm_wordpool_576.txt	LTP338	ltpFR2	15	21	CHAMPAGNE	278	n/a	n/a	0	0	0
4066339	REC_WORD	wordpools/wasnorm_wordpool_576.txt	LTP338	ltpFR2	15	21	SUNSET	1408	n/a	n/a	0	0	0
4068125	REC_WORD	wordpools/wasnorm_wordpool_576.txt	LTP338	ltpFR2	15	21	ORANGE	980	n/a	n/a	0	0	0
4069960	REC_WORD	wordpools/wasnorm_wordpool_576.txt	LTP338	ltpFR2	15	21	PORK	1108	n/a	n/a	0	0	0
4070618	REC_WORD	wordpools/wasnorm_wordpool_576.txt	LTP338	ltpFR2	15	21	STAKE	1368	n/a	n/a	0	0	0
4071639	REC_WORD	wordpools/wasnorm_wordpool_576.txt	LTP338	ltpFR2	15	21	MILK	895	n/a	n/a	0	0	0
4077812	REC_WORD	wordpools/wasnorm_wordpool_576.txt	LTP338	ltpFR2	15	21	MUMMY	932	n/a	n/a	0	0	0
4078823	REC_WORD	wordpools/wasnorm_wordpool_576.txt	LTP338	ltpFR2	15	21	COOKBOOK	373	n/a	n/a	0	0	0
4142759	WORD	wordpools/wasnorm_wordpool_576.txt	LTP338	ltpFR2	15	22	YARN	1631	n/a	n/a	0	0	0
4145274	WORD	wordpools/wasnorm_wordpool_576.txt	LTP338	ltpFR2	15	22	OUTLAW	989	n/a	n/a	0	0	0
4147890	WORD	wordpools/wasnorm_wordpool_576.txt	LTP338	ltpFR2	15	22	DRIVER	499	n/a	n/a	0	0	0
4150322	WORD	wordpools/wasnorm_wordpool_576.txt	LTP338	ltpFR2	15	22	REPORT	1184	n/a	n/a	0	0	0
4152837	WORD	wordpools/wasnorm_wordpool_576.txt	LTP338	ltpFR2	15	22	GYMNAST	675	n/a	n/a	0	0	0
4155602	WORD	wordpools/wasnorm_wordpool_576.txt	LTP338	ltpFR2	15	22	GLOBE	641	n/a	n/a	0	0	0
4158302	WORD	wordpools/wasnorm_wordpool_576.txt	LTP338	ltpFR2	15	22	COD	340	n/a	n/a	0	0	0
4160917	WORD	wordpools/wasnorm_wordpool_576.txt	LTP338	ltpFR2	15	22	WAGON	1578	n/a	n/a	0	0	0
4163349	WORD	wordpools/wasnorm_wordpool_576.txt	LTP338	ltpFR2	15	22	TRUCK	1512	n/a	n/a	0	0	0
4165848	WORD	wordpools/wasnorm_wordpool_576.txt	LTP338	ltpFR2	15	22	GREASE	660	n/a	n/a	0	0	0
4168297	WORD	wordpools/wasnorm_wordpool_576.txt	LTP338	ltpFR2	15	22	POLICE	1098	n/a	n/a	0	0	0
4170962	WORD	wordpools/wasnorm_wordpool_576.txt	LTP338	ltpFR2	15	22	ORCHID	982	n/a	n/a	0	0	0
4173477	WORD	wordpools/wasnorm_wordpool_576.txt	LTP338	ltpFR2	15	22	MONEY	908	n/a	n/a	0	0	0
4176260	WORD	wordpools/wasnorm_wordpool_576.txt	LTP338	ltpFR2	15	22	CHEST	295	n/a	n/a	0	0	0
4179042	WORD	wordpools/wasnorm_wordpool_576.txt	LTP338	ltpFR2	15	22	BROTHER	179	n/a	n/a	0	0	0
4181858	WORD	wordpools/wasnorm_wordpool_576.txt	LTP338	ltpFR2	15	22	PARENT	1013	n/a	n/a	0	0	0
4184306	WORD	wordpools/wasnorm_wordpool_576.txt	LTP338	ltpFR2	15	22	CAPTIVE	240	n/a	n/a	0	0	0
4186938	WORD	wordpools/wasnorm_wordpool_576.txt	LTP338	ltpFR2	15	22	DOLPHIN	483	n/a	n/a	0	0	0
4189503	WORD	wordpools/wasnorm_wordpool_576.txt	LTP338	ltpFR2	15	22	GRAVEL	659	n/a	n/a	0	0	0
4191970	WORD	wordpools/wasnorm_wordpool_576.txt	LTP338	ltpFR2	15	22	HORNET	718	n/a	n/a	0	0	0
4194651	WORD	wordpools/wasnorm_wordpool_576.txt	LTP338	ltpFR2	15	22	WASP	1593	n/a	n/a	0	0	0
4197217	WORD	wordpools/wasnorm_wordpool_576.txt	LTP338	ltpFR2	15	22	POCKET	1093	n/a	n/a	0	0	0
4199983	WORD	wordpools/wasnorm_wordpool_576.txt	LTP338	ltpFR2	15	22	TEMPLE	1448	n/a	n/a	0	0	0
4202581	WORD	wordpools/wasnorm_wordpool_576.txt	LTP338	ltpFR2	15	22	TAXI	1438	n/a	n/a	0	0	0
4204198	START	n/a	LTP338	ltpFR2	15	n/a	n/a	n/a	32	n/a	n/a	n/a	n/a
4205153	DISTRACTOR	n/a	LTP338	ltpFR2	15	22	n/a	n/a	n/a	n/a	0	0	0
4205164	PROB	n/a	LTP338	ltpFR2	15	n/a	n/a	n/a	32	8	5	2	1
4206863	PROB	n/a	LTP338	ltpFR2	15	n/a	n/a	n/a	32	17	7	5	5
4208262	PROB	n/a	LTP338	ltpFR2	15	n/a	n/a	n/a	32	18	1	8	9
4209477	PROB	n/a	LTP338	ltpFR2	15	n/a	n/a	n/a	32	14	1	7	5
4211643	PROB	n/a	LTP338	ltpFR2	15	n/a	n/a	n/a	32	13	3	5	5
4213476	PROB	n/a	LTP338	ltpFR2	15	n/a	n/a	n/a	32	8	5	1	2
4216209	PROB	n/a	LTP338	ltpFR2	15	n/a	n/a	n/a	32	11	1	4	6
4217690	PROB	n/a	LTP338	ltpFR2	15	n/a	n/a	n/a	32	12	1	8	3
4219274	PROB	n/a	LTP338	ltpFR2	15	n/a	n/a	n/a	32	12	5	2	5
4220439	PROB	n/a	LTP338	ltpFR2	15	n/a	n/a	n/a	32	15	9	4	2
4223289	PROB	n/a	LTP338	ltpFR2	15	n/a	n/a	n/a	32	2	9	6	6
4225055	PROB	n/a	LTP338	ltpFR2	15	n/a	n/a	n/a	32	14	1	5	8
4227495	STOP	n/a	LTP338	ltpFR2	15	n/a	n/a	n/a	32	n/a	n/a	n/a	n/a
4230020	REC_START	n/a	LTP338	ltpFR2	15	22	n/a	n/a	n/a	n/a	0	0	0
4233137	REC_WORD	wordpools/wasnorm_wordpool_576.txt	LTP338	ltpFR2	15	22	ORCHID	982	n/a	n/a	0	0	0
4233600	REC_WORD	wordpools/wasnorm_wordpool_576.txt	LTP338	ltpFR2	15	22	MONEY	908	n/a	n/a	0	0	0
4234356	REC_WORD	wordpools/wasnorm_wordpool_576.txt	LTP338	ltpFR2	15	22	POLICE	1098	n/a	n/a	0	0	0
4261608	REC_WORD	wordpools/wasnorm_wordpool_576.txt	LTP338	ltpFR2	15	22	BROTHER	179	n/a	n/a	0	0	0
4262278	REC_WORD	wordpools/wasnorm_wordpool_576.txt	LTP338	ltpFR2	15	22	CHEST	295	n/a	n/a	0	0	0
4263267	REC_WORD	wordpools/wasnorm_wordpool_576.txt	LTP338	ltpFR2	15	22	PARENT	1013	n/a	n/a	0	0	0
4266990	REC_WORD	wordpools/wasnorm_wordpool_576.txt	LTP338	ltpFR2	15	22	CAPTIVE	240	n/a	n/a	0	0	0
4267786	REC_WORD	wordpools/wasnorm_wordpool_576.txt	LTP338	ltpFR2	15	22	DOLPHIN	483	n/a	n/a	0	0	0
4270029	REC_WORD	wordpools/wasnorm_wordpool_576.txt	LTP338	ltpFR2	15	22	HORNET	718	n/a	n/a	0	0	0
4270465	REC_WORD	wordpools/wasnorm_wordpool_576.txt	LTP338	ltpFR2	15	22	WASP	1593	n/a	n/a	0	0	0
4271659	REC_WORD	wordpools/wasnorm_wordpool_576.txt	LTP338	ltpFR2	15	22	POCKET	1093	n/a	n/a	0	0	0
4272257	REC_WORD	wordpools/wasnorm_wordpool_576.txt	LTP338	ltpFR2	15	22	TEMPLE	1448	n/a	n/a	0	0	0
4320460	DISTRACTOR	n/a	LTP338	ltpFR2	15	23	n/a	n/a	n/a	n/a	0	0	0
4320461	START	n/a	LTP338	ltpFR2	15	n/a	n/a	n/a	33	n/a	n/a	n/a	n/a
4320477	PROB	n/a	LTP338	ltpFR2	15	n/a	n/a	n/a	33	7	4	1	2
4321844	PROB	n/a	LTP338	ltpFR2	15	n/a	n/a	n/a	33	11	5	4	2
4323210	PROB	n/a	LTP338	ltpFR2	15	n/a	n/a	n/a	33	12	7	2	3
4324926	PROB	n/a	LTP338	ltpFR2	15	n/a	n/a	n/a	33	24	9	7	8
