mstime	trial_type	stim_file	subject	experiment	session	trial	task	item_name	item_num	recog_resp	recog_conf	resp	color_r	color_g	color_b	case	font
0	SESS_START	n/a	LTP274	ltpFR	3	n/a	n/a	n/a	n/a	1	1	n/a	n/a	n/a	n/a	n/a	n/a
49806	WORD	wordpools/wasnorm_wordpool_less_exclusions.txt	LTP274	ltpFR	3	1	1	FILM	565	1	1	0	0.57763671875	0.412841796875	1	upper	zerothre.ttf
53700	WORD	wordpools/wasnorm_wordpool_less_exclusions.txt	LTP274	ltpFR	3	1	1	CLAM	315	0	1	1	0.57763671875	0.412841796875	1	upper	zerothre.ttf
57560	WORD	wordpools/wasnorm_wordpool_less_exclusions.txt	LTP274	ltpFR	3	1	1	MERMAID	887	0	n/a	1	0.57763671875	0.412841796875	1	upper	zerothre.ttf
61405	WORD	wordpools/wasnorm_wordpool_less_exclusions.txt	LTP274	ltpFR	3	1	1	COOLER	375	n/a	n/a	0	0.57763671875	0.412841796875	1	upper	zerothre.ttf
65366	WORD	wordpools/wasnorm_wordpool_less_exclusions.txt	LTP274	ltpFR	3	1	0	TAVERN	1437	n/a	n/a	1	0.422607421875	0.5869140625	0	lower	amplitud.ttf
69525	WORD	wordpools/wasnorm_wordpool_less_exclusions.txt	LTP274	ltpFR	3	1	0	THIGH	1457	n/a	n/a	1	0.422607421875	0.5869140625	0	lower	amplitud.ttf
73704	WORD	wordpools/wasnorm_wordpool_less_exclusions.txt	LTP274	ltpFR	3	1	0	COD	340	n/a	n/a	1	0.422607421875	0.5869140625	0	lower	amplitud.ttf
77897	WORD	wordpools/wasnorm_wordpool_less_exclusions.txt	LTP274	ltpFR	3	1	0	COBBLER	335	n/a	n/a	0	0.422607421875	0.5869140625	0	lower	amplitud.ttf
82091	WORD	wordpools/wasnorm_wordpool_less_exclusions.txt	LTP274	ltpFR	3	1	1	RADISH	1158	n/a	n/a	0	0.57763671875	0.412841796875	1	upper	zerothre.ttf
86035	WORD	wordpools/wasnorm_wordpool_less_exclusions.txt	LTP274	ltpFR	3	1	1	COCOON	339	n/a	n/a	1	0.57763671875	0.412841796875	1	upper	zerothre.ttf
90046	WORD	wordpools/wasnorm_wordpool_less_exclusions.txt	LTP274	ltpFR	3	1	1	BOUILLON	154	n/a	n/a	0	0.57763671875	0.412841796875	1	upper	zerothre.ttf
94223	WORD	wordpools/wasnorm_wordpool_less_exclusions.txt	LTP274	ltpFR	3	1	1	ORNAMENT	985	n/a	n/a	0	0.57763671875	0.412841796875	1	upper	zerothre.ttf
98050	WORD	wordpools/wasnorm_wordpool_less_exclusions.txt	LTP274	ltpFR	3	1	0	LEAF	808	n/a	n/a	0	0.422607421875	0.5869140625	0	lower	amplitud.ttf
102011	WORD	wordpools/wasnorm_wordpool_less_exclusions.txt	LTP274	ltpFR	3	1	0	ATLAS	53	n/a	n/a	1	0.422607421875	0.5869140625	0	lower	amplitud.ttf
106055	WORD	wordpools/wasnorm_wordpool_less_exclusions.txt	LTP274	ltpFR	3	1	0	SKIN	1318	n/a	n/a	0	0.422607421875	0.5869140625	0	lower	amplitud.ttf
109983	WORD	wordpools/wasnorm_wordpool_less_exclusions.txt	LTP274	ltpFR	3	1	0	ATOM	55	n/a	n/a	0	0.422607421875	0.5869140625	0	lower	amplitud.ttf
115725	REC_START	n/a	LTP274	ltpFR	3	1	n/a	n/a	n/a	n/a	n/a	n/a	n/a	n/a	n/a	n/a	n/a
116624	REC_WORD	wordpools/wasnorm_wordpool_less_exclusions.txt	LTP274	ltpFR	3	1	0	ATOM	55	n/a	n/a	0	n/a	n/a	n/a	n/a	n/a
117773	REC_WORD	wordpools/wasnorm_wordpool_less_exclusions.txt	LTP274	ltpFR	3	1	0	LEAF	808	n/a	n/a	0	n/a	n/a	n/a	n/a	n/a
119254	REC_WORD	wordpools/wasnorm_wordpool_less_exclusions.txt	LTP274	ltpFR	3	1	1	RADISH	1158	n/a	n/a	0	n/a	n/a	n/a	n/a	n/a
121421	REC_WORD	wordpools/wasnorm_wordpool_less_exclusions.txt	LTP274	ltpFR	3	1	1	MERMAID	887	n/a	n/a	1	n/a	n/a	n/a	n/a	n/a
129208	REC_WORD	wordpools/wasnorm_wordpool_less_exclusions.txt	LTP274	ltpFR	3	1	1	CLAM	315	n/a	n/a	1	n/a	n/a	n/a	n/a	n/a
132700	REC_WORD	wordpools/wasnorm_wordpool_less_exclusions.txt	LTP274	ltpFR	3	1	1	BOUILLON	154	n/a	n/a	0	n/a	n/a	n/a	n/a	n/a
142890	REC_WORD	wordpools/wasnorm_wordpool_less_exclusions.txt	LTP274	ltpFR	3	1	1	COOLER	375	n/a	n/a	0	n/a	n/a	n/a	n/a	n/a
148053	REC_WORD	wordpools/wasnorm_wordpool_less_exclusions.txt	LTP274	ltpFR	3	1	0	TAVERN	1437	n/a	n/a	1	n/a	n/a	n/a	n/a	n/a
175547	REC_WORD	wordpools/wasnorm_wordpool_less_exclusions.txt	LTP274	ltpFR	3	1	0	LEAF	808	n/a	n/a	0	n/a	n/a	n/a	n/a	n/a
182321	REC_WORD	wordpools/wasnorm_wordpool_less_exclusions.txt	LTP274	ltpFR	3	1	1	COCOON	339	n/a	n/a	1	n/a	n/a	n/a	n/a	n/a
199299	WORD	wordpools/wasnorm_wordpool_less_exclusions.txt	LTP274	ltpFR	3	2	0	BUG	187	n/a	n/a	0	0.422607421875	0.5869140625	0	lower	amplitud.ttf
203193	WORD	wordpools/wasnorm_wordpool_less_exclusions.txt	LTP274	ltpFR	3	2	0	TOWER	1490	n/a	n/a	1	0.422607421875	0.5869140625	0	lower	amplitud.ttf
207387	WORD	wordpools/wasnorm_wordpool_less_exclusions.txt	LTP274	ltpFR	3	2	1	GOVERNOR	651	n/a	n/a	1	0.57763671875	0.412841796875	1	upper	zerothre.ttf
211563	WORD	wordpools/wasnorm_wordpool_less_exclusions.txt	LTP274	ltpFR	3	2	1	SCREWDRIVER	1255	n/a	n/a	0	0.57763671875	0.412841796875	1	upper	zerothre.ttf
215708	WORD	wordpools/wasnorm_wordpool_less_exclusions.txt	LTP274	ltpFR	3	2	1	BARREL	91	n/a	n/a	0	0.57763671875	0.412841796875	1	upper	zerothre.ttf
219636	WORD	wordpools/wasnorm_wordpool_less_exclusions.txt	LTP274	ltpFR	3	2	0	RECEIPT	1173	n/a	n/a	0	0.422607421875	0.5869140625	0	lower	amplitud.ttf
223813	WORD	wordpools/wasnorm_wordpool_less_exclusions.txt	LTP274	ltpFR	3	2	0	SHOP	1290	n/a	n/a	0	0.422607421875	0.5869140625	0	lower	amplitud.ttf
227790	WORD	wordpools/wasnorm_wordpool_less_exclusions.txt	LTP274	ltpFR	3	2	0	LION	827	n/a	n/a	1	0.422607421875	0.5869140625	0	lower	amplitud.ttf
232001	WORD	wordpools/wasnorm_wordpool_less_exclusions.txt	LTP274	ltpFR	3	2	1	BULLY	196	n/a	n/a	1	0.57763671875	0.412841796875	1	upper	zerothre.ttf
236161	WORD	wordpools/wasnorm_wordpool_less_exclusions.txt	LTP274	ltpFR	3	2	1	MOSQUITO	917	n/a	n/a	1	0.57763671875	0.412841796875	1	upper	zerothre.ttf
240155	WORD	wordpools/wasnorm_wordpool_less_exclusions.txt	LTP274	ltpFR	3	2	1	COFFEE	341	n/a	n/a	0	0.57763671875	0.412841796875	1	upper	zerothre.ttf
244132	WORD	wordpools/wasnorm_wordpool_less_exclusions.txt	LTP274	ltpFR	3	2	1	BAIT	70	n/a	n/a	1	0.57763671875	0.412841796875	1	upper	zerothre.ttf
248359	WORD	wordpools/wasnorm_wordpool_less_exclusions.txt	LTP274	ltpFR	3	2	1	HOOK	715	n/a	n/a	0	0.57763671875	0.412841796875	1	upper	zerothre.ttf
252370	WORD	wordpools/wasnorm_wordpool_less_exclusions.txt	LTP274	ltpFR	3	2	0	COUNTY	389	n/a	n/a	1	0.422607421875	0.5869140625	0	lower	amplitud.ttf
256414	WORD	wordpools/wasnorm_wordpool_less_exclusions.txt	LTP274	ltpFR	3	2	0	BUN	197	n/a	n/a	0	0.422607421875	0.5869140625	0	lower	amplitud.ttf
260342	WORD	wordpools/wasnorm_wordpool_less_exclusions.txt	LTP274	ltpFR	3	2	0	GIRAFFE	636	n/a	n/a	1	0.422607421875	0.5869140625	0	lower	amplitud.ttf
266100	REC_START	n/a	LTP274	ltpFR	3	2	n/a	n/a	n/a	n/a	n/a	n/a	n/a	n/a	n/a	n/a	n/a
266682	REC_WORD	wordpools/wasnorm_wordpool_less_exclusions.txt	LTP274	ltpFR	3	2	0	GIRAFFE	636	n/a	n/a	1	n/a	n/a	n/a	n/a	n/a
268868	REC_WORD	wordpools/wasnorm_wordpool_less_exclusions.txt	LTP274	ltpFR	3	2	0	BUN	197	n/a	n/a	0	n/a	n/a	n/a	n/a	n/a
272025	REC_WORD	wordpools/wasnorm_wordpool_less_exclusions.txt	LTP274	ltpFR	3	2	1	COFFEE	341	n/a	n/a	0	n/a	n/a	n/a	n/a	n/a
279945	REC_WORD	wordpools/wasnorm_wordpool_less_exclusions.txt	LTP274	ltpFR	3	2	1	HOOK	715	n/a	n/a	0	n/a	n/a	n/a	n/a	n/a
281376	REC_WORD	wordpools/wasnorm_wordpool_less_exclusions.txt	LTP274	ltpFR	3	2	1	BAIT	70	n/a	n/a	1	n/a	n/a	n/a	n/a	n/a
283682	REC_WORD	wordpools/wasnorm_wordpool_less_exclusions.txt	LTP274	ltpFR	3	2	n/a	STORE	1387	n/a	n/a	n/a	n/a	n/a	n/a	n/a	n/a
285425	REC_WORD	wordpools/wasnorm_wordpool_less_exclusions.txt	LTP274	ltpFR	3	2	1	BARREL	91	n/a	n/a	0	n/a	n/a	n/a	n/a	n/a
287255	REC_WORD	wordpools/wasnorm_wordpool_less_exclusions.txt	LTP274	ltpFR	3	2	1	SCREWDRIVER	1255	n/a	n/a	0	n/a	n/a	n/a	n/a	n/a
288255	REC_WORD_VV	wordpools/wasnorm_wordpool_less_exclusions.txt	LTP274	ltpFR	3	2	n/a	<>	-1	n/a	n/a	n/a	n/a	n/a	n/a	n/a	n/a
289035	REC_WORD	wordpools/wasnorm_wordpool_less_exclusions.txt	LTP274	ltpFR	3	2	1	MOSQUITO	917	n/a	n/a	1	n/a	n/a	n/a	n/a	n/a
291588	REC_WORD	wordpools/wasnorm_wordpool_less_exclusions.txt	LTP274	ltpFR	3	2	n/a	INSECT	740	n/a	n/a	n/a	n/a	n/a	n/a	n/a	n/a
292841	REC_WORD	wordpools/wasnorm_wordpool_less_exclusions.txt	LTP274	ltpFR	3	2	0	TOWER	1490	n/a	n/a	1	n/a	n/a	n/a	n/a	n/a
307858	REC_WORD	wordpools/wasnorm_wordpool_less_exclusions.txt	LTP274	ltpFR	3	2	1	GOVERNOR	651	n/a	n/a	1	n/a	n/a	n/a	n/a	n/a
351772	WORD	wordpools/wasnorm_wordpool_less_exclusions.txt	LTP274	ltpFR	3	3	1	BIRD	129	n/a	n/a	1	0.57763671875	0.412841796875	1	upper	zerothre.ttf
355816	WORD	wordpools/wasnorm_wordpool_less_exclusions.txt	LTP274	ltpFR	3	3	1	SEAGULL	1261	n/a	n/a	1	0.57763671875	0.412841796875	1	upper	zerothre.ttf
359860	WORD	wordpools/wasnorm_wordpool_less_exclusions.txt	LTP274	ltpFR	3	3	1	CHICKEN	297	n/a	n/a	1	0.57763671875	0.412841796875	1	upper	zerothre.ttf
364053	WORD	wordpools/wasnorm_wordpool_less_exclusions.txt	LTP274	ltpFR	3	3	1	YOLK	1633	n/a	n/a	0	0.57763671875	0.412841796875	1	upper	zerothre.ttf
367981	WORD	wordpools/wasnorm_wordpool_less_exclusions.txt	LTP274	ltpFR	3	3	1	BRIDGE	174	n/a	n/a	0	0.57763671875	0.412841796875	1	upper	zerothre.ttf
372041	WORD	wordpools/wasnorm_wordpool_less_exclusions.txt	LTP274	ltpFR	3	3	1	CLAY	320	n/a	n/a	0	0.57763671875	0.412841796875	1	upper	zerothre.ttf
375952	WORD	wordpools/wasnorm_wordpool_less_exclusions.txt	LTP274	ltpFR	3	3	1	PAVEMENT	1028	n/a	n/a	0	0.57763671875	0.412841796875	1	upper	zerothre.ttf
380113	WORD	wordpools/wasnorm_wordpool_less_exclusions.txt	LTP274	ltpFR	3	3	1	PIANO	1057	n/a	n/a	0	0.57763671875	0.412841796875	1	upper	zerothre.ttf
384140	WORD	wordpools/wasnorm_wordpool_less_exclusions.txt	LTP274	ltpFR	3	3	1	SCOTCH	1251	n/a	n/a	0	0.57763671875	0.412841796875	1	upper	zerothre.ttf
388084	WORD	wordpools/wasnorm_wordpool_less_exclusions.txt	LTP274	ltpFR	3	3	1	DEER	444	n/a	n/a	1	0.57763671875	0.412841796875	1	upper	zerothre.ttf
392211	WORD	wordpools/wasnorm_wordpool_less_exclusions.txt	LTP274	ltpFR	3	3	1	LANDSCAPE	799	n/a	n/a	0	0.57763671875	0.412841796875	1	upper	zerothre.ttf
396405	WORD	wordpools/wasnorm_wordpool_less_exclusions.txt	LTP274	ltpFR	3	3	1	GARDEN	623	n/a	n/a	0	0.57763671875	0.412841796875	1	upper	zerothre.ttf
400349	WORD	wordpools/wasnorm_wordpool_less_exclusions.txt	LTP274	ltpFR	3	3	1	TROMBONE	1508	n/a	n/a	0	0.57763671875	0.412841796875	1	upper	zerothre.ttf
404260	WORD	wordpools/wasnorm_wordpool_less_exclusions.txt	LTP274	ltpFR	3	3	1	WALRUS	1585	n/a	n/a	1	0.57763671875	0.412841796875	1	upper	zerothre.ttf
408470	WORD	wordpools/wasnorm_wordpool_less_exclusions.txt	LTP274	ltpFR	3	3	1	CHEESE	289	n/a	n/a	0	0.57763671875	0.412841796875	1	upper	zerothre.ttf
412414	WORD	wordpools/wasnorm_wordpool_less_exclusions.txt	LTP274	ltpFR	3	3	1	WAVE	1596	n/a	n/a	0	0.57763671875	0.412841796875	1	upper	zerothre.ttf
418223	REC_START	n/a	LTP274	ltpFR	3	3	n/a	n/a	n/a	n/a	n/a	n/a	n/a	n/a	n/a	n/a	n/a
419529	REC_WORD	wordpools/wasnorm_wordpool_less_exclusions.txt	LTP274	ltpFR	3	3	1	WALRUS	1585	n/a	n/a	1	n/a	n/a	n/a	n/a	n/a
420460	REC_WORD	wordpools/wasnorm_wordpool_less_exclusions.txt	LTP274	ltpFR	3	3	1	TROMBONE	1508	n/a	n/a	0	n/a	n/a	n/a	n/a	n/a
423765	REC_WORD	wordpools/wasnorm_wordpool_less_exclusions.txt	LTP274	ltpFR	3	3	1	CHEESE	289	n/a	n/a	0	n/a	n/a	n/a	n/a	n/a
427926	REC_WORD	wordpools/wasnorm_wordpool_less_exclusions.txt	LTP274	ltpFR	3	3	1	BRIDGE	174	n/a	n/a	0	n/a	n/a	n/a	n/a	n/a
438356	REC_WORD	wordpools/wasnorm_wordpool_less_exclusions.txt	LTP274	ltpFR	3	3	1	LANDSCAPE	799	n/a	n/a	0	n/a	n/a	n/a	n/a	n/a
499068	WORD	wordpools/wasnorm_wordpool_less_exclusions.txt	LTP274	ltpFR	3	4	0	PORT	1110	n/a	n/a	1	0.422607421875	0.5869140625	0	lower	amplitud.ttf
503146	WORD	wordpools/wasnorm_wordpool_less_exclusions.txt	LTP274	ltpFR	3	4	0	ROAD	1196	n/a	n/a	1	0.422607421875	0.5869140625	0	lower	amplitud.ttf
507190	WORD	wordpools/wasnorm_wordpool_less_exclusions.txt	LTP274	ltpFR	3	4	0	FREEWAY	603	n/a	n/a	1	0.422607421875	0.5869140625	0	lower	amplitud.ttf
511300	WORD	wordpools/wasnorm_wordpool_less_exclusions.txt	LTP274	ltpFR	3	4	0	SHED	1277	n/a	n/a	0	0.422607421875	0.5869140625	0	lower	amplitud.ttf
515161	WORD	wordpools/wasnorm_wordpool_less_exclusions.txt	LTP274	ltpFR	3	4	0	MINER	896	n/a	n/a	1	0.422607421875	0.5869140625	0	lower	amplitud.ttf
519005	WORD	wordpools/wasnorm_wordpool_less_exclusions.txt	LTP274	ltpFR	3	4	1	ELECTRON	522	n/a	n/a	0	0.57763671875	0.412841796875	1	upper	zerothre.ttf
522883	WORD	wordpools/wasnorm_wordpool_less_exclusions.txt	LTP274	ltpFR	3	4	1	CHEST	295	n/a	n/a	0	0.57763671875	0.412841796875	1	upper	zerothre.ttf
526777	WORD	wordpools/wasnorm_wordpool_less_exclusions.txt	LTP274	ltpFR	3	4	1	ISLAND	745	n/a	n/a	0	0.57763671875	0.412841796875	1	upper	zerothre.ttf
530937	WORD	wordpools/wasnorm_wordpool_less_exclusions.txt	LTP274	ltpFR	3	4	0	FELLOW	558	n/a	n/a	0	0.422607421875	0.5869140625	0	lower	amplitud.ttf
535065	WORD	wordpools/wasnorm_wordpool_less_exclusions.txt	LTP274	ltpFR	3	4	0	FRIEND	606	n/a	n/a	1	0.422607421875	0.5869140625	0	lower	amplitud.ttf
539125	WORD	wordpools/wasnorm_wordpool_less_exclusions.txt	LTP274	ltpFR	3	4	0	PROTON	1132	n/a	n/a	0	0.422607421875	0.5869140625	0	lower	amplitud.ttf
542969	WORD	wordpools/wasnorm_wordpool_less_exclusions.txt	LTP274	ltpFR	3	4	1	NEPHEW	942	n/a	n/a	0	0.57763671875	0.412841796875	1	upper	zerothre.ttf
546880	WORD	wordpools/wasnorm_wordpool_less_exclusions.txt	LTP274	ltpFR	3	4	1	CASHEW	253	n/a	n/a	0	0.57763671875	0.412841796875	1	upper	zerothre.ttf
551091	WORD	wordpools/wasnorm_wordpool_less_exclusions.txt	LTP274	ltpFR	3	4	1	CHIPMUNK	304	n/a	n/a	1	0.57763671875	0.412841796875	1	upper	zerothre.ttf
554985	WORD	wordpools/wasnorm_wordpool_less_exclusions.txt	LTP274	ltpFR	3	4	1	SPOON	1357	n/a	n/a	0	0.57763671875	0.412841796875	1	upper	zerothre.ttf
559012	WORD	wordpools/wasnorm_wordpool_less_exclusions.txt	LTP274	ltpFR	3	4	1	PERSON	1052	n/a	n/a	1	0.57763671875	0.412841796875	1	upper	zerothre.ttf
564821	REC_START	n/a	LTP274	ltpFR	3	4	n/a	n/a	n/a	n/a	n/a	n/a	n/a	n/a	n/a	n/a	n/a
565526	REC_WORD	wordpools/wasnorm_wordpool_less_exclusions.txt	LTP274	ltpFR	3	4	1	PERSON	1052	n/a	n/a	1	n/a	n/a	n/a	n/a	n/a
567645	REC_WORD	wordpools/wasnorm_wordpool_less_exclusions.txt	LTP274	ltpFR	3	4	1	SPOON	1357	n/a	n/a	0	n/a	n/a	n/a	n/a	n/a
570656	REC_WORD	wordpools/wasnorm_wordpool_less_exclusions.txt	LTP274	ltpFR	3	4	1	NEPHEW	942	n/a	n/a	0	n/a	n/a	n/a	n/a	n/a
571439	REC_WORD	wordpools/wasnorm_wordpool_less_exclusions.txt	LTP274	ltpFR	3	4	1	CASHEW	253	n/a	n/a	0	n/a	n/a	n/a	n/a	n/a
572557	REC_WORD	wordpools/wasnorm_wordpool_less_exclusions.txt	LTP274	ltpFR	3	4	1	CHIPMUNK	304	n/a	n/a	1	n/a	n/a	n/a	n/a	n/a
574162	REC_WORD	wordpools/wasnorm_wordpool_less_exclusions.txt	LTP274	ltpFR	3	4	0	FELLOW	558	n/a	n/a	0	n/a	n/a	n/a	n/a	n/a
575482	REC_WORD	wordpools/wasnorm_wordpool_less_exclusions.txt	LTP274	ltpFR	3	4	0	FRIEND	606	n/a	n/a	1	n/a	n/a	n/a	n/a	n/a
586412	REC_WORD	wordpools/wasnorm_wordpool_less_exclusions.txt	LTP274	ltpFR	3	4	0	PORT	1110	n/a	n/a	1	n/a	n/a	n/a	n/a	n/a
591440	REC_WORD	wordpools/wasnorm_wordpool_less_exclusions.txt	LTP274	ltpFR	3	4	0	ROAD	1196	n/a	n/a	1	n/a	n/a	n/a	n/a	n/a
649078	WORD	wordpools/wasnorm_wordpool_less_exclusions.txt	LTP274	ltpFR	3	5	0	SAXOPHONE	1240	n/a	n/a	1	0.422607421875	0.5869140625	0	lower	amplitud.ttf
653105	WORD	wordpools/wasnorm_wordpool_less_exclusions.txt	LTP274	ltpFR	3	5	0	JAR	750	n/a	n/a	1	0.422607421875	0.5869140625	0	lower	amplitud.ttf
657032	WORD	wordpools/wasnorm_wordpool_less_exclusions.txt	LTP274	ltpFR	3	5	1	TOAST	1471	n/a	n/a	0	0.57763671875	0.412841796875	1	upper	zerothre.ttf
660893	WORD	wordpools/wasnorm_wordpool_less_exclusions.txt	LTP274	ltpFR	3	5	1	COLONEL	348	n/a	n/a	1	0.57763671875	0.412841796875	1	upper	zerothre.ttf
664987	WORD	wordpools/wasnorm_wordpool_less_exclusions.txt	LTP274	ltpFR	3	5	1	STAFF	1365	n/a	n/a	1	0.57763671875	0.412841796875	1	upper	zerothre.ttf
669048	WORD	wordpools/wasnorm_wordpool_less_exclusions.txt	LTP274	ltpFR	3	5	1	INSECT	740	n/a	n/a	1	0.57763671875	0.412841796875	1	upper	zerothre.ttf
672892	WORD	wordpools/wasnorm_wordpool_less_exclusions.txt	LTP274	ltpFR	3	5	1	TULIP	1517	n/a	n/a	0	0.57763671875	0.412841796875	1	upper	zerothre.ttf
676819	WORD	wordpools/wasnorm_wordpool_less_exclusions.txt	LTP274	ltpFR	3	5	1	CUBE	420	n/a	n/a	0	0.57763671875	0.412841796875	1	upper	zerothre.ttf
680880	WORD	wordpools/wasnorm_wordpool_less_exclusions.txt	LTP274	ltpFR	3	5	0	ROCK	1201	n/a	n/a	0	0.422607421875	0.5869140625	0	lower	amplitud.ttf
684758	WORD	wordpools/wasnorm_wordpool_less_exclusions.txt	LTP274	ltpFR	3	5	0	STUDENT	1395	n/a	n/a	0	0.422607421875	0.5869140625	0	lower	amplitud.ttf
688685	WORD	wordpools/wasnorm_wordpool_less_exclusions.txt	LTP274	ltpFR	3	5	0	GIFT	635	n/a	n/a	0	0.422607421875	0.5869140625	0	lower	amplitud.ttf
692629	WORD	wordpools/wasnorm_wordpool_less_exclusions.txt	LTP274	ltpFR	3	5	1	SKATE	1313	n/a	n/a	0	0.57763671875	0.412841796875	1	upper	zerothre.ttf
696690	WORD	wordpools/wasnorm_wordpool_less_exclusions.txt	LTP274	ltpFR	3	5	1	KEEPER	769	n/a	n/a	1	0.57763671875	0.412841796875	1	upper	zerothre.ttf
700566	WORD	wordpools/wasnorm_wordpool_less_exclusions.txt	LTP274	ltpFR	3	5	0	PASSAGE	1019	n/a	n/a	1	0.422607421875	0.5869140625	0	lower	amplitud.ttf
704661	WORD	wordpools/wasnorm_wordpool_less_exclusions.txt	LTP274	ltpFR	3	5	0	HUT	729	n/a	n/a	1	0.422607421875	0.5869140625	0	lower	amplitud.ttf
708571	WORD	wordpools/wasnorm_wordpool_less_exclusions.txt	LTP274	ltpFR	3	5	0	HOUSE	725	n/a	n/a	1	0.422607421875	0.5869140625	0	lower	amplitud.ttf
714381	REC_START	n/a	LTP274	ltpFR	3	5	n/a	n/a	n/a	n/a	n/a	n/a	n/a	n/a	n/a	n/a	n/a
715181	REC_WORD	wordpools/wasnorm_wordpool_less_exclusions.txt	LTP274	ltpFR	3	5	0	HOUSE	725	n/a	n/a	1	n/a	n/a	n/a	n/a	n/a
716146	REC_WORD	wordpools/wasnorm_wordpool_less_exclusions.txt	LTP274	ltpFR	3	5	0	HUT	729	n/a	n/a	1	n/a	n/a	n/a	n/a	n/a
717230	REC_WORD	wordpools/wasnorm_wordpool_less_exclusions.txt	LTP274	ltpFR	3	5	0	PASSAGE	1019	n/a	n/a	1	n/a	n/a	n/a	n/a	n/a
718405	REC_WORD	wordpools/wasnorm_wordpool_less_exclusions.txt	LTP274	ltpFR	3	5	0	ROCK	1201	n/a	n/a	0	n/a	n/a	n/a	n/a	n/a
719970	REC_WORD	wordpools/wasnorm_wordpool_less_exclusions.txt	LTP274	ltpFR	3	5	1	COLONEL	348	n/a	n/a	1	n/a	n/a	n/a	n/a	n/a
750011	REC_WORD	wordpools/wasnorm_wordpool_less_exclusions.txt	LTP274	ltpFR	3	5	0	JAR	750	n/a	n/a	1	n/a	n/a	n/a	n/a	n/a
764478	REC_WORD	wordpools/wasnorm_wordpool_less_exclusions.txt	LTP274	ltpFR	3	5	1	TOAST	1471	n/a	n/a	0	n/a	n/a	n/a	n/a	n/a
797789	WORD	wordpools/wasnorm_wordpool_less_exclusions.txt	LTP274	ltpFR	3	6	0	TWISTER	1530	n/a	n/a	1	0.422607421875	0.5869140625	0	lower	amplitud.ttf
801716	WORD	wordpools/wasnorm_wordpool_less_exclusions.txt	LTP274	ltpFR	3	6	0	PLUM	1090	n/a	n/a	0	0.422607421875	0.5869140625	0	lower	amplitud.ttf
805893	WORD	wordpools/wasnorm_wordpool_less_exclusions.txt	LTP274	ltpFR	3	6	0	HANDKERCHIEF	686	n/a	n/a	0	0.422607421875	0.5869140625	0	lower	amplitud.ttf
809971	WORD	wordpools/wasnorm_wordpool_less_exclusions.txt	LTP274	ltpFR	3	6	0	KLEENEX	782	n/a	n/a	0	0.422607421875	0.5869140625	0	lower	amplitud.ttf
814098	WORD	wordpools/wasnorm_wordpool_less_exclusions.txt	LTP274	ltpFR	3	6	0	VIDEO	1564	n/a	n/a	0	0.422607421875	0.5869140625	0	lower	amplitud.ttf
818275	WORD	wordpools/wasnorm_wordpool_less_exclusions.txt	LTP274	ltpFR	3	6	0	OVEN	991	n/a	n/a	1	0.422607421875	0.5869140625	0	lower	amplitud.ttf
822119	WORD	wordpools/wasnorm_wordpool_less_exclusions.txt	LTP274	ltpFR	3	6	0	COMB	351	n/a	n/a	0	0.422607421875	0.5869140625	0	lower	amplitud.ttf
825980	WORD	wordpools/wasnorm_wordpool_less_exclusions.txt	LTP274	ltpFR	3	6	0	CANOE	233	n/a	n/a	0	0.422607421875	0.5869140625	0	lower	amplitud.ttf
830190	WORD	wordpools/wasnorm_wordpool_less_exclusions.txt	LTP274	ltpFR	3	6	0	MINK	897	n/a	n/a	0	0.422607421875	0.5869140625	0	lower	amplitud.ttf
834334	WORD	wordpools/wasnorm_wordpool_less_exclusions.txt	LTP274	ltpFR	3	6	0	BLUEBERRY	140	n/a	n/a	0	0.422607421875	0.5869140625	0	lower	amplitud.ttf
838511	WORD	wordpools/wasnorm_wordpool_less_exclusions.txt	LTP274	ltpFR	3	6	0	HAMBURGER	679	n/a	n/a	1	0.422607421875	0.5869140625	0	lower	amplitud.ttf
842672	WORD	wordpools/wasnorm_wordpool_less_exclusions.txt	LTP274	ltpFR	3	6	0	DILL	465	n/a	n/a	0	0.422607421875	0.5869140625	0	lower	amplitud.ttf
846615	WORD	wordpools/wasnorm_wordpool_less_exclusions.txt	LTP274	ltpFR	3	6	0	GORILLA	650	n/a	n/a	1	0.422607421875	0.5869140625	0	lower	amplitud.ttf
850643	WORD	wordpools/wasnorm_wordpool_less_exclusions.txt	LTP274	ltpFR	3	6	0	CRUMB	416	n/a	n/a	0	0.422607421875	0.5869140625	0	lower	amplitud.ttf
854687	WORD	wordpools/wasnorm_wordpool_less_exclusions.txt	LTP274	ltpFR	3	6	0	WINE	1613	n/a	n/a	0	0.422607421875	0.5869140625	0	lower	amplitud.ttf
858597	WORD	wordpools/wasnorm_wordpool_less_exclusions.txt	LTP274	ltpFR	3	6	0	TUB	1514	n/a	n/a	1	0.422607421875	0.5869140625	0	lower	amplitud.ttf
864357	REC_START	n/a	LTP274	ltpFR	3	6	n/a	n/a	n/a	n/a	n/a	n/a	n/a	n/a	n/a	n/a	n/a
865741	REC_WORD	wordpools/wasnorm_wordpool_less_exclusions.txt	LTP274	ltpFR	3	6	0	TUB	1514	n/a	n/a	1	n/a	n/a	n/a	n/a	n/a
867308	REC_WORD	wordpools/wasnorm_wordpool_less_exclusions.txt	LTP274	ltpFR	3	6	0	BLUEBERRY	140	n/a	n/a	0	n/a	n/a	n/a	n/a	n/a
868283	REC_WORD	wordpools/wasnorm_wordpool_less_exclusions.txt	LTP274	ltpFR	3	6	0	MINK	897	n/a	n/a	0	n/a	n/a	n/a	n/a	n/a
869726	REC_WORD	wordpools/wasnorm_wordpool_less_exclusions.txt	LTP274	ltpFR	3	6	0	WINE	1613	n/a	n/a	0	n/a	n/a	n/a	n/a	n/a
948064	WORD	wordpools/wasnorm_wordpool_less_exclusions.txt	LTP274	ltpFR	3	7	1	GRIZZLY	662	n/a	n/a	1	0.57763671875	0.412841796875	1	upper	zerothre.ttf
952192	WORD	wordpools/wasnorm_wordpool_less_exclusions.txt	LTP274	ltpFR	3	7	1	VET	1560	n/a	n/a	1	0.57763671875	0.412841796875	1	upper	zerothre.ttf
956369	WORD	wordpools/wasnorm_wordpool_less_exclusions.txt	LTP274	ltpFR	3	7	0	CORK	380	n/a	n/a	0	0.422607421875	0.5869140625	0	lower	amplitud.ttf
960346	WORD	wordpools/wasnorm_wordpool_less_exclusions.txt	LTP274	ltpFR	3	7	0	FLASK	576	n/a	n/a	0	0.422607421875	0.5869140625	0	lower	amplitud.ttf
964555	WORD	wordpools/wasnorm_wordpool_less_exclusions.txt	LTP274	ltpFR	3	7	0	GIRL	637	n/a	n/a	1	0.422607421875	0.5869140625	0	lower	amplitud.ttf
968417	WORD	wordpools/wasnorm_wordpool_less_exclusions.txt	LTP274	ltpFR	3	7	0	TREAT	1501	n/a	n/a	0	0.422607421875	0.5869140625	0	lower	amplitud.ttf
972544	WORD	wordpools/wasnorm_wordpool_less_exclusions.txt	LTP274	ltpFR	3	7	0	LAWYER	806	n/a	n/a	1	0.422607421875	0.5869140625	0	lower	amplitud.ttf
976755	WORD	wordpools/wasnorm_wordpool_less_exclusions.txt	LTP274	ltpFR	3	7	1	HANDBAG	684	n/a	n/a	0	0.57763671875	0.412841796875	1	upper	zerothre.ttf
980799	WORD	wordpools/wasnorm_wordpool_less_exclusions.txt	LTP274	ltpFR	3	7	1	SCARECROW	1245	n/a	n/a	0	0.57763671875	0.412841796875	1	upper	zerothre.ttf
984893	WORD	wordpools/wasnorm_wordpool_less_exclusions.txt	LTP274	ltpFR	3	7	1	EWE	542	n/a	n/a	1	0.57763671875	0.412841796875	1	upper	zerothre.ttf
988987	WORD	wordpools/wasnorm_wordpool_less_exclusions.txt	LTP274	ltpFR	3	7	1	CHEERLEADER	288	n/a	n/a	1	0.57763671875	0.412841796875	1	upper	zerothre.ttf
993064	WORD	wordpools/wasnorm_wordpool_less_exclusions.txt	LTP274	ltpFR	3	7	1	CEREAL	272	n/a	n/a	0	0.57763671875	0.412841796875	1	upper	zerothre.ttf
997141	WORD	wordpools/wasnorm_wordpool_less_exclusions.txt	LTP274	ltpFR	3	7	1	STEP	1377	n/a	n/a	0	0.57763671875	0.412841796875	1	upper	zerothre.ttf
1001202	WORD	wordpools/wasnorm_wordpool_less_exclusions.txt	LTP274	ltpFR	3	7	0	NOTEBOOK	959	n/a	n/a	1	0.422607421875	0.5869140625	0	lower	amplitud.ttf
1005379	WORD	wordpools/wasnorm_wordpool_less_exclusions.txt	LTP274	ltpFR	3	7	0	BINDER	127	n/a	n/a	0	0.422607421875	0.5869140625	0	lower	amplitud.ttf
1009456	WORD	wordpools/wasnorm_wordpool_less_exclusions.txt	LTP274	ltpFR	3	7	0	LAMB	797	n/a	n/a	1	0.422607421875	0.5869140625	0	lower	amplitud.ttf
1015348	REC_START	n/a	LTP274	ltpFR	3	7	n/a	n/a	n/a	n/a	n/a	n/a	n/a	n/a	n/a	n/a	n/a
1017264	REC_WORD	wordpools/wasnorm_wordpool_less_exclusions.txt	LTP274	ltpFR	3	7	0	NOTEBOOK	959	n/a	n/a	1	n/a	n/a	n/a	n/a	n/a
1017999	REC_WORD	wordpools/wasnorm_wordpool_less_exclusions.txt	LTP274	ltpFR	3	7	0	BINDER	127	n/a	n/a	0	n/a	n/a	n/a	n/a	n/a
1018639	REC_WORD	wordpools/wasnorm_wordpool_less_exclusions.txt	LTP274	ltpFR	3	7	0	LAMB	797	n/a	n/a	1	n/a	n/a	n/a	n/a	n/a
1020726	REC_WORD	wordpools/wasnorm_wordpool_less_exclusions.txt	LTP274	ltpFR	3	7	1	EWE	542	n/a	n/a	1	n/a	n/a	n/a	n/a	n/a
1023780	REC_WORD	wordpools/wasnorm_wordpool_less_exclusions.txt	LTP274	ltpFR	3	7	0	LAWYER	806	n/a	n/a	1	n/a	n/a	n/a	n/a	n/a
1024231	REC_WORD	wordpools/wasnorm_wordpool_less_exclusions.txt	LTP274	ltpFR	3	7	1	CHEERLEADER	288	n/a	n/a	1	n/a	n/a	n/a	n/a	n/a
1025740	REC_WORD	wordpools/wasnorm_wordpool_less_exclusions.txt	LTP274	ltpFR	3	7	1	VET	1560	n/a	n/a	1	n/a	n/a	n/a	n/a	n/a
1026395	REC_WORD	wordpools/wasnorm_wordpool_less_exclusions.txt	LTP274	ltpFR	3	7	1	GRIZZLY	662	n/a	n/a	1	n/a	n/a	n/a	n/a	n/a
1029569	REC_WORD	wordpools/wasnorm_wordpool_less_exclusions.txt	LTP274	ltpFR	3	7	0	FLASK	576	n/a	n/a	0	n/a	n/a	n/a	n/a	n/a
1032669	REC_WORD	wordpools/wasnorm_wordpool_less_exclusions.txt	LTP274	ltpFR	3	7	0	CORK	380	n/a	n/a	0	n/a	n/a	n/a	n/a	n/a
1101768	WORD	wordpools/wasnorm_wordpool_less_exclusions.txt	LTP274	ltpFR	3	8	1	SLIDE	1326	n/a	n/a	0	0.57763671875	0.412841796875	1	upper	zerothre.ttf
1105629	WORD	wordpools/wasnorm_wordpool_less_exclusions.txt	LTP274	ltpFR	3	8	1	CONSUMER	365	n/a	n/a	1	0.57763671875	0.412841796875	1	upper	zerothre.ttf
1109690	WORD	wordpools/wasnorm_wordpool_less_exclusions.txt	LTP274	ltpFR	3	8	1	BUYER	208	n/a	n/a	1	0.57763671875	0.412841796875	1	upper	zerothre.ttf
1113600	WORD	wordpools/wasnorm_wordpool_less_exclusions.txt	LTP274	ltpFR	3	8	1	WEED	1599	n/a	n/a	0	0.57763671875	0.412841796875	1	upper	zerothre.ttf
1117495	WORD	wordpools/wasnorm_wordpool_less_exclusions.txt	LTP274	ltpFR	3	8	1	PAIL	1002	n/a	n/a	0	0.57763671875	0.412841796875	1	upper	zerothre.ttf
1121439	WORD	wordpools/wasnorm_wordpool_less_exclusions.txt	LTP274	ltpFR	3	8	1	FAUCET	555	n/a	n/a	0	0.57763671875	0.412841796875	1	upper	zerothre.ttf
1125449	WORD	wordpools/wasnorm_wordpool_less_exclusions.txt	LTP274	ltpFR	3	8	1	OTTER	986	n/a	n/a	1	0.57763671875	0.412841796875	1	upper	zerothre.ttf
1129410	WORD	wordpools/wasnorm_wordpool_less_exclusions.txt	LTP274	ltpFR	3	8	1	RIVER	1194	n/a	n/a	0	0.57763671875	0.412841796875	1	upper	zerothre.ttf
1133586	WORD	wordpools/wasnorm_wordpool_less_exclusions.txt	LTP274	ltpFR	3	8	1	CATTLE	261	n/a	n/a	1	0.57763671875	0.412841796875	1	upper	zerothre.ttf
1137432	WORD	wordpools/wasnorm_wordpool_less_exclusions.txt	LTP274	ltpFR	3	8	1	DOORBELL	487	n/a	n/a	0	0.57763671875	0.412841796875	1	upper	zerothre.ttf
1141293	WORD	wordpools/wasnorm_wordpool_less_exclusions.txt	LTP274	ltpFR	3	8	1	ALBUM	14	n/a	n/a	0	0.57763671875	0.412841796875	1	upper	zerothre.ttf
1145453	WORD	wordpools/wasnorm_wordpool_less_exclusions.txt	LTP274	ltpFR	3	8	1	PENNY	1045	n/a	n/a	0	0.57763671875	0.412841796875	1	upper	zerothre.ttf
1149314	WORD	wordpools/wasnorm_wordpool_less_exclusions.txt	LTP274	ltpFR	3	8	1	VOLUNTEER	1577	n/a	n/a	0	0.57763671875	0.412841796875	1	upper	zerothre.ttf
1153508	WORD	wordpools/wasnorm_wordpool_less_exclusions.txt	LTP274	ltpFR	3	8	1	FACTORY	548	n/a	n/a	0	0.57763671875	0.412841796875	1	upper	zerothre.ttf
1157600	WORD	wordpools/wasnorm_wordpool_less_exclusions.txt	LTP274	ltpFR	3	8	1	DOUGH	489	n/a	n/a	0	0.57763671875	0.412841796875	1	upper	zerothre.ttf
1161479	WORD	wordpools/wasnorm_wordpool_less_exclusions.txt	LTP274	ltpFR	3	8	1	CAMERA	224	n/a	n/a	0	0.57763671875	0.412841796875	1	upper	zerothre.ttf
1167155	REC_START	n/a	LTP274	ltpFR	3	8	n/a	n/a	n/a	n/a	n/a	n/a	n/a	n/a	n/a	n/a	n/a
1168447	REC_WORD	wordpools/wasnorm_wordpool_less_exclusions.txt	LTP274	ltpFR	3	8	1	CAMERA	224	n/a	n/a	0	n/a	n/a	n/a	n/a	n/a
1169677	REC_WORD	wordpools/wasnorm_wordpool_less_exclusions.txt	LTP274	ltpFR	3	8	1	FACTORY	548	n/a	n/a	0	n/a	n/a	n/a	n/a	n/a
1170456	REC_WORD	wordpools/wasnorm_wordpool_less_exclusions.txt	LTP274	ltpFR	3	8	1	DOUGH	489	n/a	n/a	0	n/a	n/a	n/a	n/a	n/a
1170834	REC_WORD	wordpools/wasnorm_wordpool_less_exclusions.txt	LTP274	ltpFR	3	8	1	VOLUNTEER	1577	n/a	n/a	0	n/a	n/a	n/a	n/a	n/a
1172864	REC_WORD	wordpools/wasnorm_wordpool_less_exclusions.txt	LTP274	ltpFR	3	8	1	PENNY	1045	n/a	n/a	0	n/a	n/a	n/a	n/a	n/a
1176898	REC_WORD	wordpools/wasnorm_wordpool_less_exclusions.txt	LTP274	ltpFR	3	8	1	WEED	1599	n/a	n/a	0	n/a	n/a	n/a	n/a	n/a
1177678	REC_WORD	wordpools/wasnorm_wordpool_less_exclusions.txt	LTP274	ltpFR	3	8	1	SLIDE	1326	n/a	n/a	0	n/a	n/a	n/a	n/a	n/a
1178270	REC_WORD	wordpools/wasnorm_wordpool_less_exclusions.txt	LTP274	ltpFR	3	8	1	CONSUMER	365	n/a	n/a	1	n/a	n/a	n/a	n/a	n/a
1178850	REC_WORD	wordpools/wasnorm_wordpool_less_exclusions.txt	LTP274	ltpFR	3	8	1	BUYER	208	n/a	n/a	1	n/a	n/a	n/a	n/a	n/a
1182102	REC_WORD	wordpools/wasnorm_wordpool_less_exclusions.txt	LTP274	ltpFR	3	8	1	PAIL	1002	n/a	n/a	0	n/a	n/a	n/a	n/a	n/a
1185579	REC_WORD	wordpools/wasnorm_wordpool_less_exclusions.txt	LTP274	ltpFR	3	8	1	RIVER	1194	n/a	n/a	0	n/a	n/a	n/a	n/a	n/a
1185937	REC_WORD	wordpools/wasnorm_wordpool_less_exclusions.txt	LTP274	ltpFR	3	8	1	OTTER	986	n/a	n/a	1	n/a	n/a	n/a	n/a	n/a
1242758	REST_REWET	n/a	LTP274	ltpFR	3	8	n/a	n/a	n/a	n/a	n/a	n/a	n/a	n/a	n/a	n/a	n/a
1562463	WORD	wordpools/wasnorm_wordpool_less_exclusions.txt	LTP274	ltpFR	3	9	1	ARMY	39	n/a	n/a	1	0.57763671875	0.412841796875	1	upper	zerothre.ttf
1566374	WORD	wordpools/wasnorm_wordpool_less_exclusions.txt	LTP274	ltpFR	3	9	1	SISTER	1312	n/a	n/a	1	0.57763671875	0.412841796875	1	upper	zerothre.ttf
1570418	WORD	wordpools/wasnorm_wordpool_less_exclusions.txt	LTP274	ltpFR	3	9	1	BROTHER	179	n/a	n/a	1	0.57763671875	0.412841796875	1	upper	zerothre.ttf
1574528	WORD	wordpools/wasnorm_wordpool_less_exclusions.txt	LTP274	ltpFR	3	9	1	DESSERT	453	n/a	n/a	0	0.57763671875	0.412841796875	1	upper	zerothre.ttf
1578473	WORD	wordpools/wasnorm_wordpool_less_exclusions.txt	LTP274	ltpFR	3	9	1	HONEY	713	n/a	n/a	0	0.57763671875	0.412841796875	1	upper	zerothre.ttf
1582484	WORD	wordpools/wasnorm_wordpool_less_exclusions.txt	LTP274	ltpFR	3	9	1	PIER	1063	n/a	n/a	0	0.57763671875	0.412841796875	1	upper	zerothre.ttf
1586361	WORD	wordpools/wasnorm_wordpool_less_exclusions.txt	LTP274	ltpFR	3	9	1	STAKE	1368	n/a	n/a	0	0.57763671875	0.412841796875	1	upper	zerothre.ttf
1590405	WORD	wordpools/wasnorm_wordpool_less_exclusions.txt	LTP274	ltpFR	3	9	1	PILOT	1070	n/a	n/a	1	0.57763671875	0.412841796875	1	upper	zerothre.ttf
1594283	WORD	wordpools/wasnorm_wordpool_less_exclusions.txt	LTP274	ltpFR	3	9	1	SHRIMP	1297	n/a	n/a	1	0.57763671875	0.412841796875	1	upper	zerothre.ttf
1598193	WORD	wordpools/wasnorm_wordpool_less_exclusions.txt	LTP274	ltpFR	3	9	1	TERMITE	1451	n/a	n/a	1	0.57763671875	0.412841796875	1	upper	zerothre.ttf
1602221	WORD	wordpools/wasnorm_wordpool_less_exclusions.txt	LTP274	ltpFR	3	9	1	SWIMMER	1420	n/a	n/a	1	0.57763671875	0.412841796875	1	upper	zerothre.ttf
1606082	WORD	wordpools/wasnorm_wordpool_less_exclusions.txt	LTP274	ltpFR	3	9	1	PLUTO	1092	n/a	n/a	0	0.57763671875	0.412841796875	1	upper	zerothre.ttf
1610026	WORD	wordpools/wasnorm_wordpool_less_exclusions.txt	LTP274	ltpFR	3	9	1	UNIVERSE	1540	n/a	n/a	0	0.57763671875	0.412841796875	1	upper	zerothre.ttf
1614136	WORD	wordpools/wasnorm_wordpool_less_exclusions.txt	LTP274	ltpFR	3	9	1	ASIA	46	n/a	n/a	0	0.57763671875	0.412841796875	1	upper	zerothre.ttf
1617964	WORD	wordpools/wasnorm_wordpool_less_exclusions.txt	LTP274	ltpFR	3	9	1	EARRING	514	n/a	n/a	0	0.57763671875	0.412841796875	1	upper	zerothre.ttf
1621958	WORD	wordpools/wasnorm_wordpool_less_exclusions.txt	LTP274	ltpFR	3	9	1	SALMON	1227	n/a	n/a	1	0.57763671875	0.412841796875	1	upper	zerothre.ttf
1627733	REC_START	n/a	LTP274	ltpFR	3	9	n/a	n/a	n/a	n/a	n/a	n/a	n/a	n/a	n/a	n/a	n/a
1631718	REC_WORD	wordpools/wasnorm_wordpool_less_exclusions.txt	LTP274	ltpFR	3	9	1	ARMY	39	n/a	n/a	1	n/a	n/a	n/a	n/a	n/a
1632547	REC_WORD	wordpools/wasnorm_wordpool_less_exclusions.txt	LTP274	ltpFR	3	9	1	BROTHER	179	n/a	n/a	1	n/a	n/a	n/a	n/a	n/a
1633129	REC_WORD	wordpools/wasnorm_wordpool_less_exclusions.txt	LTP274	ltpFR	3	9	1	SISTER	1312	n/a	n/a	1	n/a	n/a	n/a	n/a	n/a
1634644	REC_WORD	wordpools/wasnorm_wordpool_less_exclusions.txt	LTP274	ltpFR	3	9	1	DESSERT	453	n/a	n/a	0	n/a	n/a	n/a	n/a	n/a
1635407	REC_WORD	wordpools/wasnorm_wordpool_less_exclusions.txt	LTP274	ltpFR	3	9	1	HONEY	713	n/a	n/a	0	n/a	n/a	n/a	n/a	n/a
1636392	REC_WORD	wordpools/wasnorm_wordpool_less_exclusions.txt	LTP274	ltpFR	3	9	1	SALMON	1227	n/a	n/a	1	n/a	n/a	n/a	n/a	n/a
1638008	REC_WORD	wordpools/wasnorm_wordpool_less_exclusions.txt	LTP274	ltpFR	3	9	1	PILOT	1070	n/a	n/a	1	n/a	n/a	n/a	n/a	n/a
1638702	REC_WORD	wordpools/wasnorm_wordpool_less_exclusions.txt	LTP274	ltpFR	3	9	1	SWIMMER	1420	n/a	n/a	1	n/a	n/a	n/a	n/a	n/a
1640934	REC_WORD	wordpools/wasnorm_wordpool_less_exclusions.txt	LTP274	ltpFR	3	9	1	PLUTO	1092	n/a	n/a	0	n/a	n/a	n/a	n/a	n/a
1641567	REC_WORD	wordpools/wasnorm_wordpool_less_exclusions.txt	LTP274	ltpFR	3	9	1	UNIVERSE	1540	n/a	n/a	0	n/a	n/a	n/a	n/a	n/a
1642252	REC_WORD	wordpools/wasnorm_wordpool_less_exclusions.txt	LTP274	ltpFR	3	9	1	ASIA	46	n/a	n/a	0	n/a	n/a	n/a	n/a	n/a
1658694	REC_WORD	wordpools/wasnorm_wordpool_less_exclusions.txt	LTP274	ltpFR	3	9	1	STAKE	1368	n/a	n/a	0	n/a	n/a	n/a	n/a	n/a
1709194	WORD	wordpools/wasnorm_wordpool_less_exclusions.txt	LTP274	ltpFR	3	10	-1	VIOLIN	1571	n/a	n/a	-1	1.0	1.0	1	upper	Verdana.ttf
1713055	WORD	wordpools/wasnorm_wordpool_less_exclusions.txt	LTP274	ltpFR	3	10	-1	NEPTUNE	943	n/a	n/a	-1	1.0	1.0	1	upper	Verdana.ttf
1717232	WORD	wordpools/wasnorm_wordpool_less_exclusions.txt	LTP274	ltpFR	3	10	-1	RUG	1215	n/a	n/a	-1	1.0	1.0	1	upper	Verdana.ttf
1721193	WORD	wordpools/wasnorm_wordpool_less_exclusions.txt	LTP274	ltpFR	3	10	-1	GANG	619	n/a	n/a	-1	1.0	1.0	1	upper	Verdana.ttf
1725037	WORD	wordpools/wasnorm_wordpool_less_exclusions.txt	LTP274	ltpFR	3	10	-1	PEOPLE	1046	n/a	n/a	-1	1.0	1.0	1	upper	Verdana.ttf
1728965	WORD	wordpools/wasnorm_wordpool_less_exclusions.txt	LTP274	ltpFR	3	10	-1	GUM	672	n/a	n/a	-1	1.0	1.0	1	upper	Verdana.ttf
1733109	WORD	wordpools/wasnorm_wordpool_less_exclusions.txt	LTP274	ltpFR	3	10	-1	BRACES	164	n/a	n/a	-1	1.0	1.0	1	upper	Verdana.ttf
1737169	WORD	wordpools/wasnorm_wordpool_less_exclusions.txt	LTP274	ltpFR	3	10	-1	DESK	452	n/a	n/a	-1	1.0	1.0	1	upper	Verdana.ttf
1740997	WORD	wordpools/wasnorm_wordpool_less_exclusions.txt	LTP274	ltpFR	3	10	-1	EARTH	515	n/a	n/a	-1	1.0	1.0	1	upper	Verdana.ttf
1745207	WORD	wordpools/wasnorm_wordpool_less_exclusions.txt	LTP274	ltpFR	3	10	-1	SOFA	1342	n/a	n/a	-1	1.0	1.0	1	upper	Verdana.ttf
1749334	WORD	wordpools/wasnorm_wordpool_less_exclusions.txt	LTP274	ltpFR	3	10	-1	PICNIC	1060	n/a	n/a	-1	1.0	1.0	1	upper	Verdana.ttf
1753495	WORD	wordpools/wasnorm_wordpool_less_exclusions.txt	LTP274	ltpFR	3	10	-1	BLOCKADE	137	n/a	n/a	-1	1.0	1.0	1	upper	Verdana.ttf
1757372	WORD	wordpools/wasnorm_wordpool_less_exclusions.txt	LTP274	ltpFR	3	10	-1	COW	393	n/a	n/a	-1	1.0	1.0	1	upper	Verdana.ttf
1761433	WORD	wordpools/wasnorm_wordpool_less_exclusions.txt	LTP274	ltpFR	3	10	-1	SURF	1412	n/a	n/a	-1	1.0	1.0	1	upper	Verdana.ttf
1765261	WORD	wordpools/wasnorm_wordpool_less_exclusions.txt	LTP274	ltpFR	3	10	-1	DRAGON	492	n/a	n/a	-1	1.0	1.0	1	upper	Verdana.ttf
1769404	WORD	wordpools/wasnorm_wordpool_less_exclusions.txt	LTP274	ltpFR	3	10	-1	OFFICE	972	n/a	n/a	-1	1.0	1.0	1	upper	Verdana.ttf
1775263	REC_START	n/a	LTP274	ltpFR	3	10	n/a	n/a	n/a	n/a	n/a	n/a	n/a	n/a	n/a	n/a	n/a
1775817	REC_WORD	wordpools/wasnorm_wordpool_less_exclusions.txt	LTP274	ltpFR	3	10	-1	SURF	1412	n/a	n/a	-1	n/a	n/a	n/a	n/a	n/a
1776655	REC_WORD	wordpools/wasnorm_wordpool_less_exclusions.txt	LTP274	ltpFR	3	10	-1	DRAGON	492	n/a	n/a	-1	n/a	n/a	n/a	n/a	n/a
1777498	REC_WORD	wordpools/wasnorm_wordpool_less_exclusions.txt	LTP274	ltpFR	3	10	-1	OFFICE	972	n/a	n/a	-1	n/a	n/a	n/a	n/a	n/a
1779723	REC_WORD	wordpools/wasnorm_wordpool_less_exclusions.txt	LTP274	ltpFR	3	10	-1	GANG	619	n/a	n/a	-1	n/a	n/a	n/a	n/a	n/a
1781518	REC_WORD	wordpools/wasnorm_wordpool_less_exclusions.txt	LTP274	ltpFR	3	10	-1	NEPTUNE	943	n/a	n/a	-1	n/a	n/a	n/a	n/a	n/a
1782785	REC_WORD	wordpools/wasnorm_wordpool_less_exclusions.txt	LTP274	ltpFR	3	10	-1	EARTH	515	n/a	n/a	-1	n/a	n/a	n/a	n/a	n/a
1784434	REC_WORD	wordpools/wasnorm_wordpool_less_exclusions.txt	LTP274	ltpFR	3	10	-1	VIOLIN	1571	n/a	n/a	-1	n/a	n/a	n/a	n/a	n/a
1790076	REC_WORD	wordpools/wasnorm_wordpool_less_exclusions.txt	LTP274	ltpFR	3	10	-1	RUG	1215	n/a	n/a	-1	n/a	n/a	n/a	n/a	n/a
1791335	REC_WORD	wordpools/wasnorm_wordpool_less_exclusions.txt	LTP274	ltpFR	3	10	-1	SOFA	1342	n/a	n/a	-1	n/a	n/a	n/a	n/a	n/a
1861151	WORD	wordpools/wasnorm_wordpool_less_exclusions.txt	LTP274	ltpFR	3	11	1	SILVERWARE	1308	n/a	n/a	0	0.57763671875	0.412841796875	1	upper	zerothre.ttf
1865328	WORD	wordpools/wasnorm_wordpool_less_exclusions.txt	LTP274	ltpFR	3	11	1	CARDINAL	244	n/a	n/a	1	0.57763671875	0.412841796875	1	upper	zerothre.ttf
1869222	WORD	wordpools/wasnorm_wordpool_less_exclusions.txt	LTP274	ltpFR	3	11	0	CHAIRPERSON	275	n/a	n/a	0	0.422607421875	0.5869140625	0	lower	amplitud.ttf
1873116	WORD	wordpools/wasnorm_wordpool_less_exclusions.txt	LTP274	ltpFR	3	11	0	SEAL	1262	n/a	n/a	1	0.422607421875	0.5869140625	0	lower	amplitud.ttf
1877293	WORD	wordpools/wasnorm_wordpool_less_exclusions.txt	LTP274	ltpFR	3	11	1	ENVELOPE	537	n/a	n/a	0	0.57763671875	0.412841796875	1	upper	zerothre.ttf
1881437	WORD	wordpools/wasnorm_wordpool_less_exclusions.txt	LTP274	ltpFR	3	11	1	BLUEJAY	141	n/a	n/a	1	0.57763671875	0.412841796875	1	upper	zerothre.ttf
1885331	WORD	wordpools/wasnorm_wordpool_less_exclusions.txt	LTP274	ltpFR	3	11	0	CUCUMBER	421	n/a	n/a	0	0.422607421875	0.5869140625	0	lower	amplitud.ttf
1889375	WORD	wordpools/wasnorm_wordpool_less_exclusions.txt	LTP274	ltpFR	3	11	0	CHURCH	307	n/a	n/a	1	0.422607421875	0.5869140625	0	lower	amplitud.ttf
1893502	WORD	wordpools/wasnorm_wordpool_less_exclusions.txt	LTP274	ltpFR	3	11	0	ANTEATER	26	n/a	n/a	1	0.422607421875	0.5869140625	0	lower	amplitud.ttf
1897413	WORD	wordpools/wasnorm_wordpool_less_exclusions.txt	LTP274	ltpFR	3	11	0	BEAVER	109	n/a	n/a	1	0.422607421875	0.5869140625	0	lower	amplitud.ttf
1901573	WORD	wordpools/wasnorm_wordpool_less_exclusions.txt	LTP274	ltpFR	3	11	0	SUBURB	1399	n/a	n/a	1	0.422607421875	0.5869140625	0	lower	amplitud.ttf
1905550	WORD	wordpools/wasnorm_wordpool_less_exclusions.txt	LTP274	ltpFR	3	11	0	BANQUET	86	n/a	n/a	1	0.422607421875	0.5869140625	0	lower	amplitud.ttf
1909678	WORD	wordpools/wasnorm_wordpool_less_exclusions.txt	LTP274	ltpFR	3	11	1	CLAW	319	n/a	n/a	1	0.57763671875	0.412841796875	1	upper	zerothre.ttf
1913822	WORD	wordpools/wasnorm_wordpool_less_exclusions.txt	LTP274	ltpFR	3	11	1	TICK	1463	n/a	n/a	0	0.57763671875	0.412841796875	1	upper	zerothre.ttf
1917716	WORD	wordpools/wasnorm_wordpool_less_exclusions.txt	LTP274	ltpFR	3	11	1	SHINGLE	1285	n/a	n/a	0	0.57763671875	0.412841796875	1	upper	zerothre.ttf
1921760	WORD	wordpools/wasnorm_wordpool_less_exclusions.txt	LTP274	ltpFR	3	11	1	UNICORN	1538	n/a	n/a	0	0.57763671875	0.412841796875	1	upper	zerothre.ttf
1927369	REC_START	n/a	LTP274	ltpFR	3	11	n/a	n/a	n/a	n/a	n/a	n/a	n/a	n/a	n/a	n/a	n/a
1928800	REC_WORD	wordpools/wasnorm_wordpool_less_exclusions.txt	LTP274	ltpFR	3	11	1	UNICORN	1538	n/a	n/a	0	n/a	n/a	n/a	n/a	n/a
1929354	REC_WORD	wordpools/wasnorm_wordpool_less_exclusions.txt	LTP274	ltpFR	3	11	1	SHINGLE	1285	n/a	n/a	0	n/a	n/a	n/a	n/a	n/a
1929929	REC_WORD	wordpools/wasnorm_wordpool_less_exclusions.txt	LTP274	ltpFR	3	11	1	TICK	1463	n/a	n/a	0	n/a	n/a	n/a	n/a	n/a
1932842	REC_WORD	wordpools/wasnorm_wordpool_less_exclusions.txt	LTP274	ltpFR	3	11	1	BLUEJAY	141	n/a	n/a	1	n/a	n/a	n/a	n/a	n/a
1933809	REC_WORD	wordpools/wasnorm_wordpool_less_exclusions.txt	LTP274	ltpFR	3	11	1	CARDINAL	244	n/a	n/a	1	n/a	n/a	n/a	n/a	n/a
1936044	REC_WORD	wordpools/wasnorm_wordpool_less_exclusions.txt	LTP274	ltpFR	3	11	0	ANTEATER	26	n/a	n/a	1	n/a	n/a	n/a	n/a	n/a
1937746	REC_WORD	wordpools/wasnorm_wordpool_less_exclusions.txt	LTP274	ltpFR	3	11	0	BEAVER	109	n/a	n/a	1	n/a	n/a	n/a	n/a	n/a
1994961	REC_WORD	wordpools/wasnorm_wordpool_less_exclusions.txt	LTP274	ltpFR	3	11	-1	SURF	1412	n/a	n/a	-1	n/a	n/a	n/a	n/a	n/a
2012807	WORD	wordpools/wasnorm_wordpool_less_exclusions.txt	LTP274	ltpFR	3	12	0	BRIEFCASE	175	n/a	n/a	1	0.422607421875	0.5869140625	0	lower	amplitud.ttf
2016635	WORD	wordpools/wasnorm_wordpool_less_exclusions.txt	LTP274	ltpFR	3	12	0	WAIST	1579	n/a	n/a	0	0.422607421875	0.5869140625	0	lower	amplitud.ttf
2020545	WORD	wordpools/wasnorm_wordpool_less_exclusions.txt	LTP274	ltpFR	3	12	0	VENT	1556	n/a	n/a	1	0.422607421875	0.5869140625	0	lower	amplitud.ttf
2024407	WORD	wordpools/wasnorm_wordpool_less_exclusions.txt	LTP274	ltpFR	3	12	0	STATUE	1374	n/a	n/a	1	0.422607421875	0.5869140625	0	lower	amplitud.ttf
2028467	WORD	wordpools/wasnorm_wordpool_less_exclusions.txt	LTP274	ltpFR	3	12	0	SACK	1220	n/a	n/a	1	0.422607421875	0.5869140625	0	lower	amplitud.ttf
2032610	WORD	wordpools/wasnorm_wordpool_less_exclusions.txt	LTP274	ltpFR	3	12	0	CANYON	235	n/a	n/a	0	0.422607421875	0.5869140625	0	lower	amplitud.ttf
2036621	WORD	wordpools/wasnorm_wordpool_less_exclusions.txt	LTP274	ltpFR	3	12	0	MOUNTAIN	924	n/a	n/a	1	0.422607421875	0.5869140625	0	lower	amplitud.ttf
2040565	WORD	wordpools/wasnorm_wordpool_less_exclusions.txt	LTP274	ltpFR	3	12	0	DOLPHIN	483	n/a	n/a	1	0.422607421875	0.5869140625	0	lower	amplitud.ttf
2044677	WORD	wordpools/wasnorm_wordpool_less_exclusions.txt	LTP274	ltpFR	3	12	0	MARGARINE	868	n/a	n/a	0	0.422607421875	0.5869140625	0	lower	amplitud.ttf
2048754	WORD	wordpools/wasnorm_wordpool_less_exclusions.txt	LTP274	ltpFR	3	12	0	PLASTER	1085	n/a	n/a	1	0.422607421875	0.5869140625	0	lower	amplitud.ttf
2052765	WORD	wordpools/wasnorm_wordpool_less_exclusions.txt	LTP274	ltpFR	3	12	0	FAN	551	n/a	n/a	1	0.422607421875	0.5869140625	0	lower	amplitud.ttf
2056975	WORD	wordpools/wasnorm_wordpool_less_exclusions.txt	LTP274	ltpFR	3	12	0	DOCK	477	n/a	n/a	1	0.422607421875	0.5869140625	0	lower	amplitud.ttf
2061119	WORD	wordpools/wasnorm_wordpool_less_exclusions.txt	LTP274	ltpFR	3	12	0	MITTEN	902	n/a	n/a	0	0.422607421875	0.5869140625	0	lower	amplitud.ttf
2065113	WORD	wordpools/wasnorm_wordpool_less_exclusions.txt	LTP274	ltpFR	3	12	0	FIST	572	n/a	n/a	0	0.422607421875	0.5869140625	0	lower	amplitud.ttf
2069323	WORD	wordpools/wasnorm_wordpool_less_exclusions.txt	LTP274	ltpFR	3	12	0	ASH	44	n/a	n/a	0	0.422607421875	0.5869140625	0	lower	amplitud.ttf
2073434	WORD	wordpools/wasnorm_wordpool_less_exclusions.txt	LTP274	ltpFR	3	12	0	LAVA	804	n/a	n/a	0	0.422607421875	0.5869140625	0	lower	amplitud.ttf
2079209	REC_START	n/a	LTP274	ltpFR	3	12	n/a	n/a	n/a	n/a	n/a	n/a	n/a	n/a	n/a	n/a	n/a
2079892	REC_WORD	wordpools/wasnorm_wordpool_less_exclusions.txt	LTP274	ltpFR	3	12	0	ASH	44	n/a	n/a	0	n/a	n/a	n/a	n/a	n/a
2080539	REC_WORD	wordpools/wasnorm_wordpool_less_exclusions.txt	LTP274	ltpFR	3	12	0	LAVA	804	n/a	n/a	0	n/a	n/a	n/a	n/a	n/a
2081200	REC_WORD	wordpools/wasnorm_wordpool_less_exclusions.txt	LTP274	ltpFR	3	12	0	MITTEN	902	n/a	n/a	0	n/a	n/a	n/a	n/a	n/a
2081644	REC_WORD	wordpools/wasnorm_wordpool_less_exclusions.txt	LTP274	ltpFR	3	12	0	FIST	572	n/a	n/a	0	n/a	n/a	n/a	n/a	n/a
2087581	REC_WORD	wordpools/wasnorm_wordpool_less_exclusions.txt	LTP274	ltpFR	3	12	0	WAIST	1579	n/a	n/a	0	n/a	n/a	n/a	n/a	n/a
2091903	REC_WORD	wordpools/wasnorm_wordpool_less_exclusions.txt	LTP274	ltpFR	3	12	0	VENT	1556	n/a	n/a	1	n/a	n/a	n/a	n/a	n/a
2095482	REC_WORD	wordpools/wasnorm_wordpool_less_exclusions.txt	LTP274	ltpFR	3	12	0	BRIEFCASE	175	n/a	n/a	1	n/a	n/a	n/a	n/a	n/a
2098024	REC_WORD	wordpools/wasnorm_wordpool_less_exclusions.txt	LTP274	ltpFR	3	12	0	STATUE	1374	n/a	n/a	1	n/a	n/a	n/a	n/a	n/a
2099024	REC_WORD_VV	wordpools/wasnorm_wordpool_less_exclusions.txt	LTP274	ltpFR	3	12	n/a	<>	-1	n/a	n/a	n/a	n/a	n/a	n/a	n/a	n/a
2101572	REC_WORD	wordpools/wasnorm_wordpool_less_exclusions.txt	LTP274	ltpFR	3	12	0	SACK	1220	n/a	n/a	1	n/a	n/a	n/a	n/a	n/a
2103145	REC_WORD_VV	wordpools/wasnorm_wordpool_less_exclusions.txt	LTP274	ltpFR	3	12	n/a	<>	-1	n/a	n/a	n/a	n/a	n/a	n/a	n/a	n/a
2104145	REC_WORD_VV	wordpools/wasnorm_wordpool_less_exclusions.txt	LTP274	ltpFR	3	12	n/a	<>	-1	n/a	n/a	n/a	n/a	n/a	n/a	n/a	n/a
2104506	REC_WORD	wordpools/wasnorm_wordpool_less_exclusions.txt	LTP274	ltpFR	3	12	0	CANYON	235	n/a	n/a	0	n/a	n/a	n/a	n/a	n/a
2107108	REC_WORD	wordpools/wasnorm_wordpool_less_exclusions.txt	LTP274	ltpFR	3	12	0	MOUNTAIN	924	n/a	n/a	1	n/a	n/a	n/a	n/a	n/a
2110901	REC_WORD	wordpools/wasnorm_wordpool_less_exclusions.txt	LTP274	ltpFR	3	12	0	SUBURB	1399	n/a	n/a	1	n/a	n/a	n/a	n/a	n/a
2118982	REC_WORD	wordpools/wasnorm_wordpool_less_exclusions.txt	LTP274	ltpFR	3	12	0	DOLPHIN	483	n/a	n/a	1	n/a	n/a	n/a	n/a	n/a
2159156	WORD	wordpools/wasnorm_wordpool_less_exclusions.txt	LTP274	ltpFR	3	13	-1	BATHTUB	100	n/a	n/a	-1	1.0	1.0	1	upper	Verdana.ttf
2163133	WORD	wordpools/wasnorm_wordpool_less_exclusions.txt	LTP274	ltpFR	3	13	-1	SHOE	1288	n/a	n/a	-1	1.0	1.0	1	upper	Verdana.ttf
2167227	WORD	wordpools/wasnorm_wordpool_less_exclusions.txt	LTP274	ltpFR	3	13	-1	WASP	1593	n/a	n/a	-1	1.0	1.0	1	upper	Verdana.ttf
2171271	WORD	wordpools/wasnorm_wordpool_less_exclusions.txt	LTP274	ltpFR	3	13	-1	ROPE	1211	n/a	n/a	-1	1.0	1.0	1	upper	Verdana.ttf
2175148	WORD	wordpools/wasnorm_wordpool_less_exclusions.txt	LTP274	ltpFR	3	13	-1	STRING	1394	n/a	n/a	-1	1.0	1.0	1	upper	Verdana.ttf
2179259	WORD	wordpools/wasnorm_wordpool_less_exclusions.txt	LTP274	ltpFR	3	13	-1	POND	1101	n/a	n/a	-1	1.0	1.0	1	upper	Verdana.ttf
2183270	WORD	wordpools/wasnorm_wordpool_less_exclusions.txt	LTP274	ltpFR	3	13	-1	CALF	222	n/a	n/a	-1	1.0	1.0	1	upper	Verdana.ttf
2187380	WORD	wordpools/wasnorm_wordpool_less_exclusions.txt	LTP274	ltpFR	3	13	-1	CROCODILE	411	n/a	n/a	-1	1.0	1.0	1	upper	Verdana.ttf
2191540	WORD	wordpools/wasnorm_wordpool_less_exclusions.txt	LTP274	ltpFR	3	13	-1	SPRINKLE	1359	n/a	n/a	-1	1.0	1.0	1	upper	Verdana.ttf
2195734	WORD	wordpools/wasnorm_wordpool_less_exclusions.txt	LTP274	ltpFR	3	13	-1	TOE	1473	n/a	n/a	-1	1.0	1.0	1	upper	Verdana.ttf
2199778	WORD	wordpools/wasnorm_wordpool_less_exclusions.txt	LTP274	ltpFR	3	13	-1	KITCHEN	778	n/a	n/a	-1	1.0	1.0	1	upper	Verdana.ttf
2203822	WORD	wordpools/wasnorm_wordpool_less_exclusions.txt	LTP274	ltpFR	3	13	-1	NET	946	n/a	n/a	-1	1.0	1.0	1	upper	Verdana.ttf
2207883	WORD	wordpools/wasnorm_wordpool_less_exclusions.txt	LTP274	ltpFR	3	13	-1	REFEREE	1178	n/a	n/a	-1	1.0	1.0	1	upper	Verdana.ttf
2211844	WORD	wordpools/wasnorm_wordpool_less_exclusions.txt	LTP274	ltpFR	3	13	-1	ATHLETE	52	n/a	n/a	-1	1.0	1.0	1	upper	Verdana.ttf
2215704	WORD	wordpools/wasnorm_wordpool_less_exclusions.txt	LTP274	ltpFR	3	13	-1	VINEGAR	1569	n/a	n/a	-1	1.0	1.0	1	upper	Verdana.ttf
2219815	WORD	wordpools/wasnorm_wordpool_less_exclusions.txt	LTP274	ltpFR	3	13	-1	CELERY	266	n/a	n/a	-1	1.0	1.0	1	upper	Verdana.ttf
2225757	REC_START	n/a	LTP274	ltpFR	3	13	n/a	n/a	n/a	n/a	n/a	n/a	n/a	n/a	n/a	n/a	n/a
2227476	REC_WORD	wordpools/wasnorm_wordpool_less_exclusions.txt	LTP274	ltpFR	3	13	-1	VINEGAR	1569	n/a	n/a	-1	n/a	n/a	n/a	n/a	n/a
2227975	REC_WORD	wordpools/wasnorm_wordpool_less_exclusions.txt	LTP274	ltpFR	3	13	-1	CELERY	266	n/a	n/a	-1	n/a	n/a	n/a	n/a	n/a
2229065	REC_WORD	wordpools/wasnorm_wordpool_less_exclusions.txt	LTP274	ltpFR	3	13	-1	ATHLETE	52	n/a	n/a	-1	n/a	n/a	n/a	n/a	n/a
2231896	REC_WORD	wordpools/wasnorm_wordpool_less_exclusions.txt	LTP274	ltpFR	3	13	-1	REFEREE	1178	n/a	n/a	-1	n/a	n/a	n/a	n/a	n/a
2234664	REC_WORD	wordpools/wasnorm_wordpool_less_exclusions.txt	LTP274	ltpFR	3	13	-1	BATHTUB	100	n/a	n/a	-1	n/a	n/a	n/a	n/a	n/a
2237511	REC_WORD	wordpools/wasnorm_wordpool_less_exclusions.txt	LTP274	ltpFR	3	13	-1	SHOE	1288	n/a	n/a	-1	n/a	n/a	n/a	n/a	n/a
2238678	REC_WORD	wordpools/wasnorm_wordpool_less_exclusions.txt	LTP274	ltpFR	3	13	1	MOSQUITO	917	n/a	n/a	1	n/a	n/a	n/a	n/a	n/a
2253270	REC_WORD	wordpools/wasnorm_wordpool_less_exclusions.txt	LTP274	ltpFR	3	13	-1	ROPE	1211	n/a	n/a	-1	n/a	n/a	n/a	n/a	n/a
2255424	REC_WORD	wordpools/wasnorm_wordpool_less_exclusions.txt	LTP274	ltpFR	3	13	-1	STRING	1394	n/a	n/a	-1	n/a	n/a	n/a	n/a	n/a
2256077	REC_WORD	wordpools/wasnorm_wordpool_less_exclusions.txt	LTP274	ltpFR	3	13	-1	CROCODILE	411	n/a	n/a	-1	n/a	n/a	n/a	n/a	n/a
2266271	REC_WORD	wordpools/wasnorm_wordpool_less_exclusions.txt	LTP274	ltpFR	3	13	n/a	LAKE	796	n/a	n/a	n/a	n/a	n/a	n/a	n/a	n/a
2267707	REC_WORD	wordpools/wasnorm_wordpool_less_exclusions.txt	LTP274	ltpFR	3	13	1	EWE	542	n/a	n/a	1	n/a	n/a	n/a	n/a	n/a
2269305	REC_WORD	wordpools/wasnorm_wordpool_less_exclusions.txt	LTP274	ltpFR	3	13	-1	CALF	222	n/a	n/a	-1	n/a	n/a	n/a	n/a	n/a
2272732	REC_WORD	wordpools/wasnorm_wordpool_less_exclusions.txt	LTP274	ltpFR	3	13	-1	TOE	1473	n/a	n/a	-1	n/a	n/a	n/a	n/a	n/a
2272958	REC_WORD	wordpools/wasnorm_wordpool_less_exclusions.txt	LTP274	ltpFR	3	13	-1	SPRINKLE	1359	n/a	n/a	-1	n/a	n/a	n/a	n/a	n/a
2305837	WORD	wordpools/wasnorm_wordpool_less_exclusions.txt	LTP274	ltpFR	3	14	-1	SHEPHERD	1283	n/a	n/a	-1	1.0	1.0	1	upper	Verdana.ttf
2309997	WORD	wordpools/wasnorm_wordpool_less_exclusions.txt	LTP274	ltpFR	3	14	-1	GOAT	644	n/a	n/a	-1	1.0	1.0	1	upper	Verdana.ttf
2313974	WORD	wordpools/wasnorm_wordpool_less_exclusions.txt	LTP274	ltpFR	3	14	-1	MICROWAVE	892	n/a	n/a	-1	1.0	1.0	1	upper	Verdana.ttf
2317985	WORD	wordpools/wasnorm_wordpool_less_exclusions.txt	LTP274	ltpFR	3	14	-1	TREAD	1499	n/a	n/a	-1	1.0	1.0	1	upper	Verdana.ttf
2322079	WORD	wordpools/wasnorm_wordpool_less_exclusions.txt	LTP274	ltpFR	3	14	-1	SWAMP	1416	n/a	n/a	-1	1.0	1.0	1	upper	Verdana.ttf
2326040	WORD	wordpools/wasnorm_wordpool_less_exclusions.txt	LTP274	ltpFR	3	14	-1	DICTATOR	462	n/a	n/a	-1	1.0	1.0	1	upper	Verdana.ttf
2330017	WORD	wordpools/wasnorm_wordpool_less_exclusions.txt	LTP274	ltpFR	3	14	-1	FRUIT	610	n/a	n/a	-1	1.0	1.0	1	upper	Verdana.ttf
2334144	WORD	wordpools/wasnorm_wordpool_less_exclusions.txt	LTP274	ltpFR	3	14	-1	PRINCESS	1125	n/a	n/a	-1	1.0	1.0	1	upper	Verdana.ttf
2338088	WORD	wordpools/wasnorm_wordpool_less_exclusions.txt	LTP274	ltpFR	3	14	-1	KIDNEY	776	n/a	n/a	-1	1.0	1.0	1	upper	Verdana.ttf
2342099	WORD	wordpools/wasnorm_wordpool_less_exclusions.txt	LTP274	ltpFR	3	14	-1	CITRUS	313	n/a	n/a	-1	1.0	1.0	1	upper	Verdana.ttf
2345927	WORD	wordpools/wasnorm_wordpool_less_exclusions.txt	LTP274	ltpFR	3	14	-1	EMPEROR	529	n/a	n/a	-1	1.0	1.0	1	upper	Verdana.ttf
2349837	WORD	wordpools/wasnorm_wordpool_less_exclusions.txt	LTP274	ltpFR	3	14	-1	BEARD	107	n/a	n/a	-1	1.0	1.0	1	upper	Verdana.ttf
2353865	WORD	wordpools/wasnorm_wordpool_less_exclusions.txt	LTP274	ltpFR	3	14	-1	EYELASH	546	n/a	n/a	-1	1.0	1.0	1	upper	Verdana.ttf
2357859	WORD	wordpools/wasnorm_wordpool_less_exclusions.txt	LTP274	ltpFR	3	14	-1	CAR	241	n/a	n/a	-1	1.0	1.0	1	upper	Verdana.ttf
2361953	WORD	wordpools/wasnorm_wordpool_less_exclusions.txt	LTP274	ltpFR	3	14	-1	EXPERT	543	n/a	n/a	-1	1.0	1.0	1	upper	Verdana.ttf
2366080	WORD	wordpools/wasnorm_wordpool_less_exclusions.txt	LTP274	ltpFR	3	14	-1	CASTLE	256	n/a	n/a	-1	1.0	1.0	1	upper	Verdana.ttf
2371872	REC_START	n/a	LTP274	ltpFR	3	14	n/a	n/a	n/a	n/a	n/a	n/a	n/a	n/a	n/a	n/a	n/a
2372741	REC_WORD	wordpools/wasnorm_wordpool_less_exclusions.txt	LTP274	ltpFR	3	14	-1	CASTLE	256	n/a	n/a	-1	n/a	n/a	n/a	n/a	n/a
2374059	REC_WORD	wordpools/wasnorm_wordpool_less_exclusions.txt	LTP274	ltpFR	3	14	-1	DICTATOR	462	n/a	n/a	-1	n/a	n/a	n/a	n/a	n/a
2374572	REC_WORD	wordpools/wasnorm_wordpool_less_exclusions.txt	LTP274	ltpFR	3	14	-1	EMPEROR	529	n/a	n/a	-1	n/a	n/a	n/a	n/a	n/a
2376219	REC_WORD	wordpools/wasnorm_wordpool_less_exclusions.txt	LTP274	ltpFR	3	14	-1	BEARD	107	n/a	n/a	-1	n/a	n/a	n/a	n/a	n/a
2377427	REC_WORD	wordpools/wasnorm_wordpool_less_exclusions.txt	LTP274	ltpFR	3	14	-1	PRINCESS	1125	n/a	n/a	-1	n/a	n/a	n/a	n/a	n/a
2379183	REC_WORD	wordpools/wasnorm_wordpool_less_exclusions.txt	LTP274	ltpFR	3	14	-1	EYELASH	546	n/a	n/a	-1	n/a	n/a	n/a	n/a	n/a
2380802	REC_WORD	wordpools/wasnorm_wordpool_less_exclusions.txt	LTP274	ltpFR	3	14	-1	FRUIT	610	n/a	n/a	-1	n/a	n/a	n/a	n/a	n/a
2381486	REC_WORD	wordpools/wasnorm_wordpool_less_exclusions.txt	LTP274	ltpFR	3	14	-1	CITRUS	313	n/a	n/a	-1	n/a	n/a	n/a	n/a	n/a
2394047	REC_WORD	wordpools/wasnorm_wordpool_less_exclusions.txt	LTP274	ltpFR	3	14	-1	SHEPHERD	1283	n/a	n/a	-1	n/a	n/a	n/a	n/a	n/a
2395165	REC_WORD	wordpools/wasnorm_wordpool_less_exclusions.txt	LTP274	ltpFR	3	14	-1	MICROWAVE	892	n/a	n/a	-1	n/a	n/a	n/a	n/a	n/a
2402633	REC_WORD	wordpools/wasnorm_wordpool_less_exclusions.txt	LTP274	ltpFR	3	14	n/a	SHEEP	1278	n/a	n/a	n/a	n/a	n/a	n/a	n/a	n/a
2414270	REC_WORD	wordpools/wasnorm_wordpool_less_exclusions.txt	LTP274	ltpFR	3	14	-1	CAR	241	n/a	n/a	-1	n/a	n/a	n/a	n/a	n/a
2434824	REC_WORD	wordpools/wasnorm_wordpool_less_exclusions.txt	LTP274	ltpFR	3	14	n/a	HERD	705	n/a	n/a	n/a	n/a	n/a	n/a	n/a	n/a
2450487	WORD	wordpools/wasnorm_wordpool_less_exclusions.txt	LTP274	ltpFR	3	15	-1	BROOM	178	n/a	n/a	-1	1.0	1.0	1	upper	Verdana.ttf
2454331	WORD	wordpools/wasnorm_wordpool_less_exclusions.txt	LTP274	ltpFR	3	15	-1	RAG	1160	n/a	n/a	-1	1.0	1.0	1	upper	Verdana.ttf
2458442	WORD	wordpools/wasnorm_wordpool_less_exclusions.txt	LTP274	ltpFR	3	15	-1	CONDUCTOR	362	n/a	n/a	-1	1.0	1.0	1	upper	Verdana.ttf
2462369	WORD	wordpools/wasnorm_wordpool_less_exclusions.txt	LTP274	ltpFR	3	15	-1	DOLL	481	n/a	n/a	-1	1.0	1.0	1	upper	Verdana.ttf
2466264	WORD	wordpools/wasnorm_wordpool_less_exclusions.txt	LTP274	ltpFR	3	15	-1	RUNNER	1218	n/a	n/a	-1	1.0	1.0	1	upper	Verdana.ttf
2470358	WORD	wordpools/wasnorm_wordpool_less_exclusions.txt	LTP274	ltpFR	3	15	-1	TURKEY	1520	n/a	n/a	-1	1.0	1.0	1	upper	Verdana.ttf
2474435	WORD	wordpools/wasnorm_wordpool_less_exclusions.txt	LTP274	ltpFR	3	15	-1	MARBLE	867	n/a	n/a	-1	1.0	1.0	1	upper	Verdana.ttf
2478279	WORD	wordpools/wasnorm_wordpool_less_exclusions.txt	LTP274	ltpFR	3	15	-1	DOLLAR	482	n/a	n/a	-1	1.0	1.0	1	upper	Verdana.ttf
2482140	WORD	wordpools/wasnorm_wordpool_less_exclusions.txt	LTP274	ltpFR	3	15	-1	KITE	779	n/a	n/a	-1	1.0	1.0	1	upper	Verdana.ttf
2486284	WORD	wordpools/wasnorm_wordpool_less_exclusions.txt	LTP274	ltpFR	3	15	-1	AIRPLANE	12	n/a	n/a	-1	1.0	1.0	1	upper	Verdana.ttf
2490444	WORD	wordpools/wasnorm_wordpool_less_exclusions.txt	LTP274	ltpFR	3	15	-1	COLLAR	345	n/a	n/a	-1	1.0	1.0	1	upper	Verdana.ttf
2494372	WORD	wordpools/wasnorm_wordpool_less_exclusions.txt	LTP274	ltpFR	3	15	-1	TROUSERS	1510	n/a	n/a	-1	1.0	1.0	1	upper	Verdana.ttf
2498581	WORD	wordpools/wasnorm_wordpool_less_exclusions.txt	LTP274	ltpFR	3	15	-1	SANDWICH	1232	n/a	n/a	-1	1.0	1.0	1	upper	Verdana.ttf
2502726	WORD	wordpools/wasnorm_wordpool_less_exclusions.txt	LTP274	ltpFR	3	15	-1	CAFE	216	n/a	n/a	-1	1.0	1.0	1	upper	Verdana.ttf
2506703	WORD	wordpools/wasnorm_wordpool_less_exclusions.txt	LTP274	ltpFR	3	15	-1	TILE	1468	n/a	n/a	-1	1.0	1.0	1	upper	Verdana.ttf
2510547	WORD	wordpools/wasnorm_wordpool_less_exclusions.txt	LTP274	ltpFR	3	15	-1	CABOOSE	214	n/a	n/a	-1	1.0	1.0	1	upper	Verdana.ttf
2516306	REC_START	n/a	LTP274	ltpFR	3	15	n/a	n/a	n/a	n/a	n/a	n/a	n/a	n/a	n/a	n/a	n/a
2516643	REC_WORD	wordpools/wasnorm_wordpool_less_exclusions.txt	LTP274	ltpFR	3	15	-1	CABOOSE	214	n/a	n/a	-1	n/a	n/a	n/a	n/a	n/a
2518822	REC_WORD	wordpools/wasnorm_wordpool_less_exclusions.txt	LTP274	ltpFR	3	15	-1	RUNNER	1218	n/a	n/a	-1	n/a	n/a	n/a	n/a	n/a
2520060	REC_WORD	wordpools/wasnorm_wordpool_less_exclusions.txt	LTP274	ltpFR	3	15	-1	TURKEY	1520	n/a	n/a	-1	n/a	n/a	n/a	n/a	n/a
2524481	REC_WORD	wordpools/wasnorm_wordpool_less_exclusions.txt	LTP274	ltpFR	3	15	-1	MARBLE	867	n/a	n/a	-1	n/a	n/a	n/a	n/a	n/a
2525809	REC_WORD	wordpools/wasnorm_wordpool_less_exclusions.txt	LTP274	ltpFR	3	15	-1	TILE	1468	n/a	n/a	-1	n/a	n/a	n/a	n/a	n/a
2528446	REC_WORD	wordpools/wasnorm_wordpool_less_exclusions.txt	LTP274	ltpFR	3	15	-1	RAG	1160	n/a	n/a	-1	n/a	n/a	n/a	n/a	n/a
2529840	REC_WORD	wordpools/wasnorm_wordpool_less_exclusions.txt	LTP274	ltpFR	3	15	-1	BROOM	178	n/a	n/a	-1	n/a	n/a	n/a	n/a	n/a
2539003	REC_WORD	wordpools/wasnorm_wordpool_less_exclusions.txt	LTP274	ltpFR	3	15	-1	SANDWICH	1232	n/a	n/a	-1	n/a	n/a	n/a	n/a	n/a
2539891	REC_WORD	wordpools/wasnorm_wordpool_less_exclusions.txt	LTP274	ltpFR	3	15	-1	CAFE	216	n/a	n/a	-1	n/a	n/a	n/a	n/a	n/a
2544381	REC_WORD	wordpools/wasnorm_wordpool_less_exclusions.txt	LTP274	ltpFR	3	15	-1	DOLLAR	482	n/a	n/a	-1	n/a	n/a	n/a	n/a	n/a
2557599	REC_WORD	wordpools/wasnorm_wordpool_less_exclusions.txt	LTP274	ltpFR	3	15	-1	AIRPLANE	12	n/a	n/a	-1	n/a	n/a	n/a	n/a	n/a
2562395	REC_WORD	wordpools/wasnorm_wordpool_less_exclusions.txt	LTP274	ltpFR	3	15	-1	KITE	779	n/a	n/a	-1	n/a	n/a	n/a	n/a	n/a
2594722	WORD	wordpools/wasnorm_wordpool_less_exclusions.txt	LTP274	ltpFR	3	16	0	STREAM	1392	n/a	n/a	1	0.422607421875	0.5869140625	0	lower	amplitud.ttf
2598565	WORD	wordpools/wasnorm_wordpool_less_exclusions.txt	LTP274	ltpFR	3	16	0	FIREMAN	569	n/a	n/a	1	0.422607421875	0.5869140625	0	lower	amplitud.ttf
2602477	WORD	wordpools/wasnorm_wordpool_less_exclusions.txt	LTP274	ltpFR	3	16	0	SALAD	1224	n/a	n/a	0	0.422607421875	0.5869140625	0	lower	amplitud.ttf
2606438	WORD	wordpools/wasnorm_wordpool_less_exclusions.txt	LTP274	ltpFR	3	16	0	OX	994	n/a	n/a	1	0.422607421875	0.5869140625	0	lower	amplitud.ttf
2610580	WORD	wordpools/wasnorm_wordpool_less_exclusions.txt	LTP274	ltpFR	3	16	0	BEEF	113	n/a	n/a	0	0.422607421875	0.5869140625	0	lower	amplitud.ttf
2614792	WORD	wordpools/wasnorm_wordpool_less_exclusions.txt	LTP274	ltpFR	3	16	0	IRON	744	n/a	n/a	1	0.422607421875	0.5869140625	0	lower	amplitud.ttf
2618636	WORD	wordpools/wasnorm_wordpool_less_exclusions.txt	LTP274	ltpFR	3	16	0	QUAIL	1147	n/a	n/a	0	0.422607421875	0.5869140625	0	lower	amplitud.ttf
2622480	WORD	wordpools/wasnorm_wordpool_less_exclusions.txt	LTP274	ltpFR	3	16	0	BIOLOGIST	128	n/a	n/a	1	0.422607421875	0.5869140625	0	lower	amplitud.ttf
2626408	WORD	wordpools/wasnorm_wordpool_less_exclusions.txt	LTP274	ltpFR	3	16	0	PIT	1077	n/a	n/a	1	0.422607421875	0.5869140625	0	lower	amplitud.ttf
2630418	WORD	wordpools/wasnorm_wordpool_less_exclusions.txt	LTP274	ltpFR	3	16	0	LOCK	838	n/a	n/a	0	0.422607421875	0.5869140625	0	lower	amplitud.ttf
2634379	WORD	wordpools/wasnorm_wordpool_less_exclusions.txt	LTP274	ltpFR	3	16	0	SARDINE	1235	n/a	n/a	0	0.422607421875	0.5869140625	0	lower	amplitud.ttf
2638373	WORD	wordpools/wasnorm_wordpool_less_exclusions.txt	LTP274	ltpFR	3	16	0	RING	1193	n/a	n/a	0	0.422607421875	0.5869140625	0	lower	amplitud.ttf
2642484	WORD	wordpools/wasnorm_wordpool_less_exclusions.txt	LTP274	ltpFR	3	16	0	RUBY	1214	n/a	n/a	0	0.422607421875	0.5869140625	0	lower	amplitud.ttf
2646395	WORD	wordpools/wasnorm_wordpool_less_exclusions.txt	LTP274	ltpFR	3	16	0	JACKET	747	n/a	n/a	1	0.422607421875	0.5869140625	0	lower	amplitud.ttf
2650222	WORD	wordpools/wasnorm_wordpool_less_exclusions.txt	LTP274	ltpFR	3	16	0	DONKEY	484	n/a	n/a	1	0.422607421875	0.5869140625	0	lower	amplitud.ttf
2654299	WORD	wordpools/wasnorm_wordpool_less_exclusions.txt	LTP274	ltpFR	3	16	0	TROUT	1511	n/a	n/a	0	0.422607421875	0.5869140625	0	lower	amplitud.ttf
2660324	REC_START	n/a	LTP274	ltpFR	3	16	n/a	n/a	n/a	n/a	n/a	n/a	n/a	n/a	n/a	n/a	n/a
2660873	REC_WORD	wordpools/wasnorm_wordpool_less_exclusions.txt	LTP274	ltpFR	3	16	0	TROUT	1511	n/a	n/a	0	n/a	n/a	n/a	n/a	n/a
2662472	REC_WORD	wordpools/wasnorm_wordpool_less_exclusions.txt	LTP274	ltpFR	3	16	0	QUAIL	1147	n/a	n/a	0	n/a	n/a	n/a	n/a	n/a
2665055	REC_WORD	wordpools/wasnorm_wordpool_less_exclusions.txt	LTP274	ltpFR	3	16	0	RUBY	1214	n/a	n/a	0	n/a	n/a	n/a	n/a	n/a
2665885	REC_WORD	wordpools/wasnorm_wordpool_less_exclusions.txt	LTP274	ltpFR	3	16	0	BIOLOGIST	128	n/a	n/a	1	n/a	n/a	n/a	n/a	n/a
2667056	REC_WORD	wordpools/wasnorm_wordpool_less_exclusions.txt	LTP274	ltpFR	3	16	0	STREAM	1392	n/a	n/a	1	n/a	n/a	n/a	n/a	n/a
2672919	REC_WORD	wordpools/wasnorm_wordpool_less_exclusions.txt	LTP274	ltpFR	3	16	0	JACKET	747	n/a	n/a	1	n/a	n/a	n/a	n/a	n/a
2676819	REC_WORD	wordpools/wasnorm_wordpool_less_exclusions.txt	LTP274	ltpFR	3	16	0	OX	994	n/a	n/a	1	n/a	n/a	n/a	n/a	n/a
2678167	REC_WORD	wordpools/wasnorm_wordpool_less_exclusions.txt	LTP274	ltpFR	3	16	0	BEEF	113	n/a	n/a	0	n/a	n/a	n/a	n/a	n/a
2678991	REC_WORD	wordpools/wasnorm_wordpool_less_exclusions.txt	LTP274	ltpFR	3	16	0	SALAD	1224	n/a	n/a	0	n/a	n/a	n/a	n/a	n/a
2691202	REC_WORD	wordpools/wasnorm_wordpool_less_exclusions.txt	LTP274	ltpFR	3	16	0	SARDINE	1235	n/a	n/a	0	n/a	n/a	n/a	n/a	n/a
2752653	REC_START	n/a	LTP274	ltpFR	3	n/a	n/a	n/a	n/a	n/a	n/a	n/a	n/a	n/a	n/a	n/a	n/a
2757911	FFR_REC_WORD	wordpools/wasnorm_wordpool_less_exclusions.txt	LTP274	ltpFR	3	n/a	0	SARDINE	1235	n/a	n/a	0	n/a	n/a	n/a	n/a	n/a
2758697	FFR_REC_WORD	wordpools/wasnorm_wordpool_less_exclusions.txt	LTP274	ltpFR	3	n/a	0	QUAIL	1147	n/a	n/a	0	n/a	n/a	n/a	n/a	n/a
2759237	FFR_REC_WORD	wordpools/wasnorm_wordpool_less_exclusions.txt	LTP274	ltpFR	3	n/a	1	SALMON	1227	n/a	n/a	1	n/a	n/a	n/a	n/a	n/a
2761323	FFR_REC_WORD	wordpools/wasnorm_wordpool_less_exclusions.txt	LTP274	ltpFR	3	n/a	0	BIOLOGIST	128	n/a	n/a	1	n/a	n/a	n/a	n/a	n/a
2762256	FFR_REC_WORD	wordpools/wasnorm_wordpool_less_exclusions.txt	LTP274	ltpFR	3	n/a	0	JACKET	747	n/a	n/a	1	n/a	n/a	n/a	n/a	n/a
2762869	FFR_REC_WORD	wordpools/wasnorm_wordpool_less_exclusions.txt	LTP274	ltpFR	3	n/a	0	RUBY	1214	n/a	n/a	0	n/a	n/a	n/a	n/a	n/a
2763472	FFR_REC_WORD	wordpools/wasnorm_wordpool_less_exclusions.txt	LTP274	ltpFR	3	n/a	0	STREAM	1392	n/a	n/a	1	n/a	n/a	n/a	n/a	n/a
2768442	FFR_REC_WORD	wordpools/wasnorm_wordpool_less_exclusions.txt	LTP274	ltpFR	3	n/a	-1	EMPEROR	529	n/a	n/a	-1	n/a	n/a	n/a	n/a	n/a
2769075	FFR_REC_WORD	wordpools/wasnorm_wordpool_less_exclusions.txt	LTP274	ltpFR	3	n/a	-1	DICTATOR	462	n/a	n/a	-1	n/a	n/a	n/a	n/a	n/a
2769678	FFR_REC_WORD	wordpools/wasnorm_wordpool_less_exclusions.txt	LTP274	ltpFR	3	n/a	-1	CAR	241	n/a	n/a	-1	n/a	n/a	n/a	n/a	n/a
2771839	FFR_REC_WORD	wordpools/wasnorm_wordpool_less_exclusions.txt	LTP274	ltpFR	3	n/a	-1	PRINCESS	1125	n/a	n/a	-1	n/a	n/a	n/a	n/a	n/a
2772652	FFR_REC_WORD	wordpools/wasnorm_wordpool_less_exclusions.txt	LTP274	ltpFR	3	n/a	-1	BEARD	107	n/a	n/a	-1	n/a	n/a	n/a	n/a	n/a
2773600	FFR_REC_WORD	wordpools/wasnorm_wordpool_less_exclusions.txt	LTP274	ltpFR	3	n/a	-1	EYELASH	546	n/a	n/a	-1	n/a	n/a	n/a	n/a	n/a
2777072	FFR_REC_WORD	wordpools/wasnorm_wordpool_less_exclusions.txt	LTP274	ltpFR	3	n/a	-1	SHEPHERD	1283	n/a	n/a	-1	n/a	n/a	n/a	n/a	n/a
2778160	FFR_REC_WORD	wordpools/wasnorm_wordpool_less_exclusions.txt	LTP274	ltpFR	3	n/a	1	EWE	542	n/a	n/a	1	n/a	n/a	n/a	n/a	n/a
2778755	FFR_REC_WORD	wordpools/wasnorm_wordpool_less_exclusions.txt	LTP274	ltpFR	3	n/a	n/a	SHEEP	1278	n/a	n/a	n/a	n/a	n/a	n/a	n/a	n/a
2779576	FFR_REC_WORD	wordpools/wasnorm_wordpool_less_exclusions.txt	LTP274	ltpFR	3	n/a	n/a	HERD	705	n/a	n/a	n/a	n/a	n/a	n/a	n/a	n/a
2789015	FFR_REC_WORD	wordpools/wasnorm_wordpool_less_exclusions.txt	LTP274	ltpFR	3	n/a	-1	CASTLE	256	n/a	n/a	-1	n/a	n/a	n/a	n/a	n/a
2791050	FFR_REC_WORD	wordpools/wasnorm_wordpool_less_exclusions.txt	LTP274	ltpFR	3	n/a	1	BOUILLON	154	n/a	n/a	0	n/a	n/a	n/a	n/a	n/a
2796059	FFR_REC_WORD	wordpools/wasnorm_wordpool_less_exclusions.txt	LTP274	ltpFR	3	n/a	0	ATOM	55	n/a	n/a	0	n/a	n/a	n/a	n/a	n/a
2798887	FFR_REC_WORD	wordpools/wasnorm_wordpool_less_exclusions.txt	LTP274	ltpFR	3	n/a	0	FRIEND	606	n/a	n/a	1	n/a	n/a	n/a	n/a	n/a
2799667	FFR_REC_WORD	wordpools/wasnorm_wordpool_less_exclusions.txt	LTP274	ltpFR	3	n/a	0	FELLOW	558	n/a	n/a	0	n/a	n/a	n/a	n/a	n/a
2802859	FFR_REC_WORD	wordpools/wasnorm_wordpool_less_exclusions.txt	LTP274	ltpFR	3	n/a	1	BROTHER	179	n/a	n/a	1	n/a	n/a	n/a	n/a	n/a
2803328	FFR_REC_WORD	wordpools/wasnorm_wordpool_less_exclusions.txt	LTP274	ltpFR	3	n/a	1	SISTER	1312	n/a	n/a	1	n/a	n/a	n/a	n/a	n/a
2804026	FFR_REC_WORD	wordpools/wasnorm_wordpool_less_exclusions.txt	LTP274	ltpFR	3	n/a	1	ARMY	39	n/a	n/a	1	n/a	n/a	n/a	n/a	n/a
2804507	FFR_REC_WORD	wordpools/wasnorm_wordpool_less_exclusions.txt	LTP274	ltpFR	3	n/a	1	STAKE	1368	n/a	n/a	0	n/a	n/a	n/a	n/a	n/a
2810162	FFR_REC_WORD	wordpools/wasnorm_wordpool_less_exclusions.txt	LTP274	ltpFR	3	n/a	1	DESSERT	453	n/a	n/a	0	n/a	n/a	n/a	n/a	n/a
2810662	FFR_REC_WORD	wordpools/wasnorm_wordpool_less_exclusions.txt	LTP274	ltpFR	3	n/a	1	HONEY	713	n/a	n/a	0	n/a	n/a	n/a	n/a	n/a
2813050	FFR_REC_WORD	wordpools/wasnorm_wordpool_less_exclusions.txt	LTP274	ltpFR	3	n/a	1	SHRIMP	1297	n/a	n/a	1	n/a	n/a	n/a	n/a	n/a
2817515	FFR_REC_WORD	wordpools/wasnorm_wordpool_less_exclusions.txt	LTP274	ltpFR	3	n/a	0	ANTEATER	26	n/a	n/a	1	n/a	n/a	n/a	n/a	n/a
2819251	FFR_REC_WORD	wordpools/wasnorm_wordpool_less_exclusions.txt	LTP274	ltpFR	3	n/a	0	BEAVER	109	n/a	n/a	1	n/a	n/a	n/a	n/a	n/a
2820793	FFR_REC_WORD	wordpools/wasnorm_wordpool_less_exclusions.txt	LTP274	ltpFR	3	n/a	0	BEEF	113	n/a	n/a	0	n/a	n/a	n/a	n/a	n/a
2821167	FFR_REC_WORD	wordpools/wasnorm_wordpool_less_exclusions.txt	LTP274	ltpFR	3	n/a	0	SALAD	1224	n/a	n/a	0	n/a	n/a	n/a	n/a	n/a
2844748	FFR_REC_WORD	wordpools/wasnorm_wordpool_less_exclusions.txt	LTP274	ltpFR	3	n/a	0	WAIST	1579	n/a	n/a	0	n/a	n/a	n/a	n/a	n/a
2853209	FFR_REC_WORD	wordpools/wasnorm_wordpool_less_exclusions.txt	LTP274	ltpFR	3	n/a	0	BRIEFCASE	175	n/a	n/a	1	n/a	n/a	n/a	n/a	n/a
2854835	FFR_REC_WORD	wordpools/wasnorm_wordpool_less_exclusions.txt	LTP274	ltpFR	3	n/a	0	VENT	1556	n/a	n/a	1	n/a	n/a	n/a	n/a	n/a
2856985	FFR_REC_WORD	wordpools/wasnorm_wordpool_less_exclusions.txt	LTP274	ltpFR	3	n/a	0	STATUE	1374	n/a	n/a	1	n/a	n/a	n/a	n/a	n/a
2859655	FFR_REC_WORD	wordpools/wasnorm_wordpool_less_exclusions.txt	LTP274	ltpFR	3	n/a	0	SACK	1220	n/a	n/a	1	n/a	n/a	n/a	n/a	n/a
2873239	FFR_REC_WORD	wordpools/wasnorm_wordpool_less_exclusions.txt	LTP274	ltpFR	3	n/a	0	THIGH	1457	n/a	n/a	1	n/a	n/a	n/a	n/a	n/a
2875539	FFR_REC_WORD	wordpools/wasnorm_wordpool_less_exclusions.txt	LTP274	ltpFR	3	n/a	-1	CALF	222	n/a	n/a	-1	n/a	n/a	n/a	n/a	n/a
2877205	FFR_REC_WORD	wordpools/wasnorm_wordpool_less_exclusions.txt	LTP274	ltpFR	3	n/a	-1	CROCODILE	411	n/a	n/a	-1	n/a	n/a	n/a	n/a	n/a
2877902	FFR_REC_WORD	wordpools/wasnorm_wordpool_less_exclusions.txt	LTP274	ltpFR	3	n/a	-1	ROPE	1211	n/a	n/a	-1	n/a	n/a	n/a	n/a	n/a
2878127	FFR_REC_WORD	wordpools/wasnorm_wordpool_less_exclusions.txt	LTP274	ltpFR	3	n/a	-1	STRING	1394	n/a	n/a	-1	n/a	n/a	n/a	n/a	n/a
2879849	FFR_REC_WORD	wordpools/wasnorm_wordpool_less_exclusions.txt	LTP274	ltpFR	3	n/a	-1	NET	946	n/a	n/a	-1	n/a	n/a	n/a	n/a	n/a
2904747	FFR_REC_WORD	wordpools/wasnorm_wordpool_less_exclusions.txt	LTP274	ltpFR	3	n/a	1	WEED	1599	n/a	n/a	0	n/a	n/a	n/a	n/a	n/a
2905239	FFR_REC_WORD	wordpools/wasnorm_wordpool_less_exclusions.txt	LTP274	ltpFR	3	n/a	1	SLIDE	1326	n/a	n/a	0	n/a	n/a	n/a	n/a	n/a
2906064	FFR_REC_WORD	wordpools/wasnorm_wordpool_less_exclusions.txt	LTP274	ltpFR	3	n/a	1	BUYER	208	n/a	n/a	1	n/a	n/a	n/a	n/a	n/a
2906543	FFR_REC_WORD	wordpools/wasnorm_wordpool_less_exclusions.txt	LTP274	ltpFR	3	n/a	1	CONSUMER	365	n/a	n/a	1	n/a	n/a	n/a	n/a	n/a
2915233	FFR_REC_WORD	wordpools/wasnorm_wordpool_less_exclusions.txt	LTP274	ltpFR	3	n/a	1	PAIL	1002	n/a	n/a	0	n/a	n/a	n/a	n/a	n/a
2919299	FFR_REC_WORD	wordpools/wasnorm_wordpool_less_exclusions.txt	LTP274	ltpFR	3	n/a	n/a	SEA	1259	n/a	n/a	n/a	n/a	n/a	n/a	n/a	n/a
2920222	FFR_REC_WORD	wordpools/wasnorm_wordpool_less_exclusions.txt	LTP274	ltpFR	3	n/a	1	OTTER	986	n/a	n/a	1	n/a	n/a	n/a	n/a	n/a
3610422	REC_START	n/a	LTP274	ltpFR	3	1	n/a	n/a	n/a	n/a	n/a	n/a	n/a	n/a	n/a	n/a	n/a
3610455	RECOG_TARGET	n/a	LTP274	ltpFR	3	1	-1	GANG	619	1	5	-1	n/a	n/a	n/a	n/a	n/a
3612267	RECOG_RESP	n/a	LTP274	ltpFR	3	1	-1	GANG	619	1	n/a	-1	n/a	n/a	n/a	n/a	n/a
3613422	RECOG_CONF	n/a	LTP274	ltpFR	3	1	-1	GANG	619	n/a	5	-1	n/a	n/a	n/a	n/a	n/a
3615481	RECOG_LURE	n/a	LTP274	ltpFR	3	1	n/a	VALVE	1546	0	2	n/a	n/a	n/a	n/a	n/a	n/a
3616602	RECOG_RESP	n/a	LTP274	ltpFR	3	1	n/a	VALVE	1546	0	n/a	n/a	n/a	n/a	n/a	n/a	n/a
3617512	RECOG_CONF	n/a	LTP274	ltpFR	3	1	n/a	VALVE	1546	n/a	2	n/a	n/a	n/a	n/a	n/a	n/a
3619275	RECOG_LURE	n/a	LTP274	ltpFR	3	1	n/a	CATCHER	258	0	4	n/a	n/a	n/a	n/a	n/a	n/a
3620142	RECOG_RESP	n/a	LTP274	ltpFR	3	1	n/a	CATCHER	258	0	n/a	n/a	n/a	n/a	n/a	n/a	n/a
3620742	RECOG_CONF	n/a	LTP274	ltpFR	3	1	n/a	CATCHER	258	n/a	4	n/a	n/a	n/a	n/a	n/a	n/a
3622503	RECOG_LURE	n/a	LTP274	ltpFR	3	1	n/a	POISON	1096	0	4	n/a	n/a	n/a	n/a	n/a	n/a
3623412	RECOG_RESP	n/a	LTP274	ltpFR	3	1	n/a	POISON	1096	0	n/a	n/a	n/a	n/a	n/a	n/a	n/a
3624022	RECOG_CONF	n/a	LTP274	ltpFR	3	1	n/a	POISON	1096	n/a	4	n/a	n/a	n/a	n/a	n/a	n/a
3625998	RECOG_LURE	n/a	LTP274	ltpFR	3	1	n/a	GRAPE	654	0	1	n/a	n/a	n/a	n/a	n/a	n/a
3627052	RECOG_RESP	n/a	LTP274	ltpFR	3	1	n/a	GRAPE	654	0	n/a	n/a	n/a	n/a	n/a	n/a	n/a
3628852	RECOG_CONF	n/a	LTP274	ltpFR	3	1	n/a	GRAPE	654	n/a	1	n/a	n/a	n/a	n/a	n/a	n/a
3630708	RECOG_TARGET	n/a	LTP274	ltpFR	3	1	1	PIER	1063	1	4	0	n/a	n/a	n/a	n/a	n/a
3631742	RECOG_RESP	n/a	LTP274	ltpFR	3	1	1	PIER	1063	1	n/a	0	n/a	n/a	n/a	n/a	n/a
3632622	RECOG_CONF	n/a	LTP274	ltpFR	3	1	1	PIER	1063	n/a	4	0	n/a	n/a	n/a	n/a	n/a
3634502	RECOG_LURE	n/a	LTP274	ltpFR	3	1	n/a	HELICOPTER	701	0	3	n/a	n/a	n/a	n/a	n/a	n/a
3635362	RECOG_RESP	n/a	LTP274	ltpFR	3	1	n/a	HELICOPTER	701	0	n/a	n/a	n/a	n/a	n/a	n/a	n/a
3636192	RECOG_CONF	n/a	LTP274	ltpFR	3	1	n/a	HELICOPTER	701	n/a	3	n/a	n/a	n/a	n/a	n/a	n/a
3637964	RECOG_LURE	n/a	LTP274	ltpFR	3	1	n/a	ASSISTANT	48	0	3	n/a	n/a	n/a	n/a	n/a	n/a
3638857	RECOG_RESP	n/a	LTP274	ltpFR	3	1	n/a	ASSISTANT	48	0	n/a	n/a	n/a	n/a	n/a	n/a	n/a
3639652	RECOG_CONF	n/a	LTP274	ltpFR	3	1	n/a	ASSISTANT	48	n/a	3	n/a	n/a	n/a	n/a	n/a	n/a
3641359	RECOG_TARGET	n/a	LTP274	ltpFR	3	1	-1	CASTLE	256	1	5	-1	n/a	n/a	n/a	n/a	n/a
3642192	RECOG_RESP	n/a	LTP274	ltpFR	3	1	-1	CASTLE	256	1	n/a	-1	n/a	n/a	n/a	n/a	n/a
3642912	RECOG_CONF	n/a	LTP274	ltpFR	3	1	-1	CASTLE	256	n/a	5	-1	n/a	n/a	n/a	n/a	n/a
3644787	RECOG_LURE	n/a	LTP274	ltpFR	3	1	n/a	COMMITTEE	355	0	4	n/a	n/a	n/a	n/a	n/a	n/a
3645717	RECOG_RESP	n/a	LTP274	ltpFR	3	1	n/a	COMMITTEE	355	0	n/a	n/a	n/a	n/a	n/a	n/a	n/a
3646352	RECOG_CONF	n/a	LTP274	ltpFR	3	1	n/a	COMMITTEE	355	n/a	4	n/a	n/a	n/a	n/a	n/a	n/a
3648182	RECOG_LURE	n/a	LTP274	ltpFR	3	1	n/a	TEA	1439	0	4	n/a	n/a	n/a	n/a	n/a	n/a
3649062	RECOG_RESP	n/a	LTP274	ltpFR	3	1	n/a	TEA	1439	0	n/a	n/a	n/a	n/a	n/a	n/a	n/a
3649802	RECOG_CONF	n/a	LTP274	ltpFR	3	1	n/a	TEA	1439	n/a	4	n/a	n/a	n/a	n/a	n/a	n/a
3651526	RECOG_LURE	n/a	LTP274	ltpFR	3	1	n/a	NEEDLE	941	0	2	n/a	n/a	n/a	n/a	n/a	n/a
3653787	RECOG_RESP	n/a	LTP274	ltpFR	3	1	n/a	NEEDLE	941	0	n/a	n/a	n/a	n/a	n/a	n/a	n/a
3654482	RECOG_CONF	n/a	LTP274	ltpFR	3	1	n/a	NEEDLE	941	n/a	2	n/a	n/a	n/a	n/a	n/a	n/a
3656353	RECOG_LURE	n/a	LTP274	ltpFR	3	1	n/a	KNOT	788	0	4	n/a	n/a	n/a	n/a	n/a	n/a
3657232	RECOG_RESP	n/a	LTP274	ltpFR	3	1	n/a	KNOT	788	0	n/a	n/a	n/a	n/a	n/a	n/a	n/a
3657982	RECOG_CONF	n/a	LTP274	ltpFR	3	1	n/a	KNOT	788	n/a	4	n/a	n/a	n/a	n/a	n/a	n/a
3659698	RECOG_TARGET	n/a	LTP274	ltpFR	3	1	-1	TROUSERS	1510	1	2	-1	n/a	n/a	n/a	n/a	n/a
3662587	RECOG_RESP	n/a	LTP274	ltpFR	3	1	-1	TROUSERS	1510	1	n/a	-1	n/a	n/a	n/a	n/a	n/a
3663312	RECOG_CONF	n/a	LTP274	ltpFR	3	1	-1	TROUSERS	1510	n/a	2	-1	n/a	n/a	n/a	n/a	n/a
3665223	RECOG_LURE	n/a	LTP274	ltpFR	3	1	n/a	MARINE	869	0	1	n/a	n/a	n/a	n/a	n/a	n/a
3668177	RECOG_RESP	n/a	LTP274	ltpFR	3	1	n/a	MARINE	869	0	n/a	n/a	n/a	n/a	n/a	n/a	n/a
3669032	RECOG_CONF	n/a	LTP274	ltpFR	3	1	n/a	MARINE	869	n/a	1	n/a	n/a	n/a	n/a	n/a	n/a
3670981	RECOG_LURE	n/a	LTP274	ltpFR	3	1	n/a	ENEMY	534	0	3	n/a	n/a	n/a	n/a	n/a	n/a
3672807	RECOG_RESP	n/a	LTP274	ltpFR	3	1	n/a	ENEMY	534	0	n/a	n/a	n/a	n/a	n/a	n/a	n/a
3674292	RECOG_CONF	n/a	LTP274	ltpFR	3	1	n/a	ENEMY	534	n/a	3	n/a	n/a	n/a	n/a	n/a	n/a
3676273	RECOG_LURE	n/a	LTP274	ltpFR	3	1	n/a	SPICE	1350	0	3	n/a	n/a	n/a	n/a	n/a	n/a
3680177	RECOG_RESP	n/a	LTP274	ltpFR	3	1	n/a	SPICE	1350	0	n/a	n/a	n/a	n/a	n/a	n/a	n/a
3681062	RECOG_CONF	n/a	LTP274	ltpFR	3	1	n/a	SPICE	1350	n/a	3	n/a	n/a	n/a	n/a	n/a	n/a
3683013	RECOG_TARGET	n/a	LTP274	ltpFR	3	1	1	PLUTO	1092	1	5	0	n/a	n/a	n/a	n/a	n/a
3683987	RECOG_RESP	n/a	LTP274	ltpFR	3	1	1	PLUTO	1092	1	n/a	0	n/a	n/a	n/a	n/a	n/a
3684762	RECOG_CONF	n/a	LTP274	ltpFR	3	1	1	PLUTO	1092	n/a	5	0	n/a	n/a	n/a	n/a	n/a
3686590	RECOG_TARGET	n/a	LTP274	ltpFR	3	1	0	OVEN	991	0	4	1	n/a	n/a	n/a	n/a	n/a
3687997	RECOG_RESP	n/a	LTP274	ltpFR	3	1	0	OVEN	991	0	n/a	1	n/a	n/a	n/a	n/a	n/a
3688742	RECOG_CONF	n/a	LTP274	ltpFR	3	1	0	OVEN	991	n/a	4	1	n/a	n/a	n/a	n/a	n/a
3690668	RECOG_LURE	n/a	LTP274	ltpFR	3	1	n/a	TICKET	1464	0	4	n/a	n/a	n/a	n/a	n/a	n/a
3692357	RECOG_RESP	n/a	LTP274	ltpFR	3	1	n/a	TICKET	1464	0	n/a	n/a	n/a	n/a	n/a	n/a	n/a
3693012	RECOG_CONF	n/a	LTP274	ltpFR	3	1	n/a	TICKET	1464	n/a	4	n/a	n/a	n/a	n/a	n/a	n/a
3699443	REC_START	n/a	LTP274	ltpFR	3	2	n/a	n/a	n/a	n/a	n/a	n/a	n/a	n/a	n/a	n/a	n/a
3699472	RECOG_LURE	n/a	LTP274	ltpFR	3	2	n/a	COMET	353	0	4	n/a	n/a	n/a	n/a	n/a	n/a
3700733	RECOG_RESP	n/a	LTP274	ltpFR	3	2	n/a	COMET	353	0	n/a	n/a	n/a	n/a	n/a	n/a	n/a
3701443	RECOG_CONF	n/a	LTP274	ltpFR	3	2	n/a	COMET	353	n/a	4	n/a	n/a	n/a	n/a	n/a	n/a
3703266	RECOG_TARGET	n/a	LTP274	ltpFR	3	2	-1	BEARD	107	1	5	-1	n/a	n/a	n/a	n/a	n/a
3704018	RECOG_RESP	n/a	LTP274	ltpFR	3	2	-1	BEARD	107	1	n/a	-1	n/a	n/a	n/a	n/a	n/a
3704763	RECOG_CONF	n/a	LTP274	ltpFR	3	2	-1	BEARD	107	n/a	5	-1	n/a	n/a	n/a	n/a	n/a
3706544	RECOG_LURE	n/a	LTP274	ltpFR	3	2	n/a	PUPPY	1144	0	5	n/a	n/a	n/a	n/a	n/a	n/a
3707608	RECOG_RESP	n/a	LTP274	ltpFR	3	2	n/a	PUPPY	1144	0	n/a	n/a	n/a	n/a	n/a	n/a	n/a
3708363	RECOG_CONF	n/a	LTP274	ltpFR	3	2	n/a	PUPPY	1144	n/a	5	n/a	n/a	n/a	n/a	n/a	n/a
3710139	RECOG_LURE	n/a	LTP274	ltpFR	3	2	n/a	SYRINGE	1424	0	5	n/a	n/a	n/a	n/a	n/a	n/a
3711608	RECOG_RESP	n/a	LTP274	ltpFR	3	2	n/a	SYRINGE	1424	0	n/a	n/a	n/a	n/a	n/a	n/a	n/a
3712553	RECOG_CONF	n/a	LTP274	ltpFR	3	2	n/a	SYRINGE	1424	n/a	5	n/a	n/a	n/a	n/a	n/a	n/a
3714383	RECOG_LURE	n/a	LTP274	ltpFR	3	2	n/a	CALCULATOR	220	0	4	n/a	n/a	n/a	n/a	n/a	n/a
3715363	RECOG_RESP	n/a	LTP274	ltpFR	3	2	n/a	CALCULATOR	220	0	n/a	n/a	n/a	n/a	n/a	n/a	n/a
3716233	RECOG_CONF	n/a	LTP274	ltpFR	3	2	n/a	CALCULATOR	220	n/a	4	n/a	n/a	n/a	n/a	n/a	n/a
3718011	RECOG_TARGET	n/a	LTP274	ltpFR	3	2	0	GIRL	637	0	4	1	n/a	n/a	n/a	n/a	n/a
3720213	RECOG_RESP	n/a	LTP274	ltpFR	3	2	0	GIRL	637	0	n/a	1	n/a	n/a	n/a	n/a	n/a
3720893	RECOG_CONF	n/a	LTP274	ltpFR	3	2	0	GIRL	637	n/a	4	1	n/a	n/a	n/a	n/a	n/a
3722671	RECOG_TARGET	n/a	LTP274	ltpFR	3	2	-1	TREAD	1499	1	1	-1	n/a	n/a	n/a	n/a	n/a
3724783	RECOG_RESP	n/a	LTP274	ltpFR	3	2	-1	TREAD	1499	1	n/a	-1	n/a	n/a	n/a	n/a	n/a
3725603	RECOG_CONF	n/a	LTP274	ltpFR	3	2	-1	TREAD	1499	n/a	1	-1	n/a	n/a	n/a	n/a	n/a
3727579	RECOG_LURE	n/a	LTP274	ltpFR	3	2	n/a	SAND	1230	1	2	n/a	n/a	n/a	n/a	n/a	n/a
3728408	RECOG_RESP	n/a	LTP274	ltpFR	3	2	n/a	SAND	1230	1	n/a	n/a	n/a	n/a	n/a	n/a	n/a
3729393	RECOG_CONF	n/a	LTP274	ltpFR	3	2	n/a	SAND	1230	n/a	2	n/a	n/a	n/a	n/a	n/a	n/a
3731424	RECOG_TARGET	n/a	LTP274	ltpFR	3	2	0	HANDKERCHIEF	686	1	3	0	n/a	n/a	n/a	n/a	n/a
3732378	RECOG_RESP	n/a	LTP274	ltpFR	3	2	0	HANDKERCHIEF	686	1	n/a	0	n/a	n/a	n/a	n/a	n/a
3733143	RECOG_CONF	n/a	LTP274	ltpFR	3	2	0	HANDKERCHIEF	686	n/a	3	0	n/a	n/a	n/a	n/a	n/a
3735119	RECOG_LURE	n/a	LTP274	ltpFR	3	2	n/a	OUTDOORS	987	0	1	n/a	n/a	n/a	n/a	n/a	n/a
3737398	RECOG_RESP	n/a	LTP274	ltpFR	3	2	n/a	OUTDOORS	987	0	n/a	n/a	n/a	n/a	n/a	n/a	n/a
3738343	RECOG_CONF	n/a	LTP274	ltpFR	3	2	n/a	OUTDOORS	987	n/a	1	n/a	n/a	n/a	n/a	n/a	n/a
3740095	RECOG_TARGET	n/a	LTP274	ltpFR	3	2	-1	PRINCESS	1125	1	4	-1	n/a	n/a	n/a	n/a	n/a
3740918	RECOG_RESP	n/a	LTP274	ltpFR	3	2	-1	PRINCESS	1125	1	n/a	-1	n/a	n/a	n/a	n/a	n/a
3741643	RECOG_CONF	n/a	LTP274	ltpFR	3	2	-1	PRINCESS	1125	n/a	4	-1	n/a	n/a	n/a	n/a	n/a
3743356	RECOG_TARGET	n/a	LTP274	ltpFR	3	2	0	SEAL	1262	1	4	1	n/a	n/a	n/a	n/a	n/a
3743938	RECOG_RESP	n/a	LTP274	ltpFR	3	2	0	SEAL	1262	1	n/a	1	n/a	n/a	n/a	n/a	n/a
3744633	RECOG_CONF	n/a	LTP274	ltpFR	3	2	0	SEAL	1262	n/a	4	1	n/a	n/a	n/a	n/a	n/a
3746302	RECOG_TARGET	n/a	LTP274	ltpFR	3	2	0	TAVERN	1437	0	2	1	n/a	n/a	n/a	n/a	n/a
3747893	RECOG_RESP	n/a	LTP274	ltpFR	3	2	0	TAVERN	1437	0	n/a	1	n/a	n/a	n/a	n/a	n/a
3748733	RECOG_CONF	n/a	LTP274	ltpFR	3	2	0	TAVERN	1437	n/a	2	1	n/a	n/a	n/a	n/a	n/a
3750578	RECOG_TARGET	n/a	LTP274	ltpFR	3	2	-1	CROCODILE	411	1	5	-1	n/a	n/a	n/a	n/a	n/a
3751403	RECOG_RESP	n/a	LTP274	ltpFR	3	2	-1	CROCODILE	411	1	n/a	-1	n/a	n/a	n/a	n/a	n/a
3752043	RECOG_CONF	n/a	LTP274	ltpFR	3	2	-1	CROCODILE	411	n/a	5	-1	n/a	n/a	n/a	n/a	n/a
3753857	RECOG_LURE	n/a	LTP274	ltpFR	3	2	n/a	RAZOR	1171	0	2	n/a	n/a	n/a	n/a	n/a	n/a
3755273	RECOG_RESP	n/a	LTP274	ltpFR	3	2	n/a	RAZOR	1171	0	n/a	n/a	n/a	n/a	n/a	n/a	n/a
3756113	RECOG_CONF	n/a	LTP274	ltpFR	3	2	n/a	RAZOR	1171	n/a	2	n/a	n/a	n/a	n/a	n/a	n/a
3757918	RECOG_TARGET	n/a	LTP274	ltpFR	3	2	-1	DESK	452	0	1	-1	n/a	n/a	n/a	n/a	n/a
3759673	RECOG_RESP_VV	n/a	LTP274	ltpFR	3	2	-1	DESK	452	0	n/a	-1	n/a	n/a	n/a	n/a	n/a
3760773	RECOG_RESP_VV	n/a	LTP274	ltpFR	3	2	-1	DESK	452	1	n/a	-1	n/a	n/a	n/a	n/a	n/a
3761318	RECOG_RESP_VV	n/a	LTP274	ltpFR	3	2	-1	DESK	452	0	n/a	-1	n/a	n/a	n/a	n/a	n/a
3762078	RECOG_RESP	n/a	LTP274	ltpFR	3	2	-1	DESK	452	0	n/a	-1	n/a	n/a	n/a	n/a	n/a
3763233	RECOG_CONF	n/a	LTP274	ltpFR	3	2	-1	DESK	452	n/a	1	-1	n/a	n/a	n/a	n/a	n/a
3765124	RECOG_LURE	n/a	LTP274	ltpFR	3	2	n/a	INCENSE	735	0	2	n/a	n/a	n/a	n/a	n/a	n/a
3766438	RECOG_RESP	n/a	LTP274	ltpFR	3	2	n/a	INCENSE	735	0	n/a	n/a	n/a	n/a	n/a	n/a	n/a
3767983	RECOG_CONF	n/a	LTP274	ltpFR	3	2	n/a	INCENSE	735	n/a	2	n/a	n/a	n/a	n/a	n/a	n/a
3769833	RECOG_LURE	n/a	LTP274	ltpFR	3	2	n/a	CLIMBER	323	1	2	n/a	n/a	n/a	n/a	n/a	n/a
3771268	RECOG_RESP	n/a	LTP274	ltpFR	3	2	n/a	CLIMBER	323	1	n/a	n/a	n/a	n/a	n/a	n/a	n/a
3772433	RECOG_CONF	n/a	LTP274	ltpFR	3	2	n/a	CLIMBER	323	n/a	2	n/a	n/a	n/a	n/a	n/a	n/a
3774310	RECOG_LURE	n/a	LTP274	ltpFR	3	2	n/a	SCALLOP	1242	0	3	n/a	n/a	n/a	n/a	n/a	n/a
3775558	RECOG_RESP	n/a	LTP274	ltpFR	3	2	n/a	SCALLOP	1242	0	n/a	n/a	n/a	n/a	n/a	n/a	n/a
3776753	RECOG_CONF	n/a	LTP274	ltpFR	3	2	n/a	SCALLOP	1242	n/a	3	n/a	n/a	n/a	n/a	n/a	n/a
3778487	RECOG_TARGET	n/a	LTP274	ltpFR	3	2	1	YOLK	1633	1	4	0	n/a	n/a	n/a	n/a	n/a
3779368	RECOG_RESP	n/a	LTP274	ltpFR	3	2	1	YOLK	1633	1	n/a	0	n/a	n/a	n/a	n/a	n/a
3780083	RECOG_CONF	n/a	LTP274	ltpFR	3	2	1	YOLK	1633	n/a	4	0	n/a	n/a	n/a	n/a	n/a
3784031	REC_START	n/a	LTP274	ltpFR	3	3	n/a	n/a	n/a	n/a	n/a	n/a	n/a	n/a	n/a	n/a	n/a
3784062	RECOG_TARGET	n/a	LTP274	ltpFR	3	3	0	BEAVER	109	1	4	1	n/a	n/a	n/a	n/a	n/a
3785021	RECOG_RESP	n/a	LTP274	ltpFR	3	3	0	BEAVER	109	1	n/a	1	n/a	n/a	n/a	n/a	n/a
3785761	RECOG_CONF	n/a	LTP274	ltpFR	3	3	0	BEAVER	109	n/a	4	1	n/a	n/a	n/a	n/a	n/a
3787507	RECOG_TARGET	n/a	LTP274	ltpFR	3	3	1	ORNAMENT	985	1	2	0	n/a	n/a	n/a	n/a	n/a
3789496	RECOG_RESP	n/a	LTP274	ltpFR	3	3	1	ORNAMENT	985	1	n/a	0	n/a	n/a	n/a	n/a	n/a
3789981	RECOG_CONF	n/a	LTP274	ltpFR	3	3	1	ORNAMENT	985	n/a	2	0	n/a	n/a	n/a	n/a	n/a
3792034	RECOG_TARGET	n/a	LTP274	ltpFR	3	3	1	SCOTCH	1251	1	4	0	n/a	n/a	n/a	n/a	n/a
3792751	RECOG_RESP	n/a	LTP274	ltpFR	3	3	1	SCOTCH	1251	1	n/a	0	n/a	n/a	n/a	n/a	n/a
3793351	RECOG_CONF	n/a	LTP274	ltpFR	3	3	1	SCOTCH	1251	n/a	4	0	n/a	n/a	n/a	n/a	n/a
3795196	RECOG_LURE	n/a	LTP274	ltpFR	3	3	n/a	COUSIN	392	1	3	n/a	n/a	n/a	n/a	n/a	n/a
3796006	RECOG_RESP	n/a	LTP274	ltpFR	3	3	n/a	COUSIN	392	1	n/a	n/a	n/a	n/a	n/a	n/a	n/a
3796991	RECOG_CONF	n/a	LTP274	ltpFR	3	3	n/a	COUSIN	392	n/a	3	n/a	n/a	n/a	n/a	n/a	n/a
3798774	RECOG_TARGET	n/a	LTP274	ltpFR	3	3	0	CUCUMBER	421	0	2	0	n/a	n/a	n/a	n/a	n/a
3800906	RECOG_RESP_VV	n/a	LTP274	ltpFR	3	3	0	CUCUMBER	421	0	n/a	0	n/a	n/a	n/a	n/a	n/a
3802101	RECOG_RESP	n/a	LTP274	ltpFR	3	3	0	CUCUMBER	421	0	n/a	0	n/a	n/a	n/a	n/a	n/a
3803621	RECOG_CONF	n/a	LTP274	ltpFR	3	3	0	CUCUMBER	421	n/a	2	0	n/a	n/a	n/a	n/a	n/a
3806029	RECOG_LURE	n/a	LTP274	ltpFR	3	3	n/a	BACK	65	0	2	n/a	n/a	n/a	n/a	n/a	n/a
3807011	RECOG_RESP	n/a	LTP274	ltpFR	3	3	n/a	BACK	65	0	n/a	n/a	n/a	n/a	n/a	n/a	n/a
3808061	RECOG_CONF	n/a	LTP274	ltpFR	3	3	n/a	BACK	65	n/a	2	n/a	n/a	n/a	n/a	n/a	n/a
3809940	RECOG_TARGET	n/a	LTP274	ltpFR	3	3	1	SLIDE	1326	1	5	0	n/a	n/a	n/a	n/a	n/a
3811321	RECOG_RESP	n/a	LTP274	ltpFR	3	3	1	SLIDE	1326	1	n/a	0	n/a	n/a	n/a	n/a	n/a
3812081	RECOG_CONF	n/a	LTP274	ltpFR	3	3	1	SLIDE	1326	n/a	5	0	n/a	n/a	n/a	n/a	n/a
3813967	RECOG_TARGET	n/a	LTP274	ltpFR	3	3	0	IRON	744	1	4	1	n/a	n/a	n/a	n/a	n/a
3814891	RECOG_RESP	n/a	LTP274	ltpFR	3	3	0	IRON	744	1	n/a	1	n/a	n/a	n/a	n/a	n/a
3815511	RECOG_CONF	n/a	LTP274	ltpFR	3	3	0	IRON	744	n/a	4	1	n/a	n/a	n/a	n/a	n/a
3817379	RECOG_TARGET	n/a	LTP274	ltpFR	3	3	1	CASHEW	253	1	5	0	n/a	n/a	n/a	n/a	n/a
3818076	RECOG_RESP	n/a	LTP274	ltpFR	3	3	1	CASHEW	253	1	n/a	0	n/a	n/a	n/a	n/a	n/a
3818771	RECOG_CONF	n/a	LTP274	ltpFR	3	3	1	CASHEW	253	n/a	5	0	n/a	n/a	n/a	n/a	n/a
3820540	RECOG_LURE	n/a	LTP274	ltpFR	3	3	n/a	BULB	192	0	2	n/a	n/a	n/a	n/a	n/a	n/a
3821481	RECOG_RESP	n/a	LTP274	ltpFR	3	3	n/a	BULB	192	0	n/a	n/a	n/a	n/a	n/a	n/a	n/a
3822291	RECOG_CONF	n/a	LTP274	ltpFR	3	3	n/a	BULB	192	n/a	2	n/a	n/a	n/a	n/a	n/a	n/a
3824052	RECOG_LURE	n/a	LTP274	ltpFR	3	3	n/a	XEROX	1628	0	5	n/a	n/a	n/a	n/a	n/a	n/a
3825136	RECOG_RESP	n/a	LTP274	ltpFR	3	3	n/a	XEROX	1628	0	n/a	n/a	n/a	n/a	n/a	n/a	n/a
3825951	RECOG_CONF	n/a	LTP274	ltpFR	3	3	n/a	XEROX	1628	n/a	5	n/a	n/a	n/a	n/a	n/a	n/a
3827847	RECOG_TARGET	n/a	LTP274	ltpFR	3	3	0	MINK	897	1	3	0	n/a	n/a	n/a	n/a	n/a
3828766	RECOG_RESP	n/a	LTP274	ltpFR	3	3	0	MINK	897	1	n/a	0	n/a	n/a	n/a	n/a	n/a
3829591	RECOG_CONF	n/a	LTP274	ltpFR	3	3	0	MINK	897	n/a	3	0	n/a	n/a	n/a	n/a	n/a
3831225	RECOG_TARGET	n/a	LTP274	ltpFR	3	3	0	RUBY	1214	1	5	0	n/a	n/a	n/a	n/a	n/a
3832016	RECOG_RESP	n/a	LTP274	ltpFR	3	3	0	RUBY	1214	1	n/a	0	n/a	n/a	n/a	n/a	n/a
3832761	RECOG_CONF	n/a	LTP274	ltpFR	3	3	0	RUBY	1214	n/a	5	0	n/a	n/a	n/a	n/a	n/a
3834404	RECOG_TARGET	n/a	LTP274	ltpFR	3	3	0	FAN	551	0	4	1	n/a	n/a	n/a	n/a	n/a
3836291	RECOG_RESP	n/a	LTP274	ltpFR	3	3	0	FAN	551	0	n/a	1	n/a	n/a	n/a	n/a	n/a
3837081	RECOG_CONF	n/a	LTP274	ltpFR	3	3	0	FAN	551	n/a	4	1	n/a	n/a	n/a	n/a	n/a
3838864	RECOG_LURE	n/a	LTP274	ltpFR	3	3	n/a	SALOON	1228	0	1	n/a	n/a	n/a	n/a	n/a	n/a
3839766	RECOG_RESP	n/a	LTP274	ltpFR	3	3	n/a	SALOON	1228	0	n/a	n/a	n/a	n/a	n/a	n/a	n/a
3840861	RECOG_CONF	n/a	LTP274	ltpFR	3	3	n/a	SALOON	1228	n/a	1	n/a	n/a	n/a	n/a	n/a	n/a
3842941	RECOG_LURE	n/a	LTP274	ltpFR	3	3	n/a	BUNNY	198	1	2	n/a	n/a	n/a	n/a	n/a	n/a
3846576	RECOG_RESP	n/a	LTP274	ltpFR	3	3	n/a	BUNNY	198	1	n/a	n/a	n/a	n/a	n/a	n/a	n/a
3847341	RECOG_CONF	n/a	LTP274	ltpFR	3	3	n/a	BUNNY	198	n/a	2	n/a	n/a	n/a	n/a	n/a	n/a
3849265	RECOG_LURE	n/a	LTP274	ltpFR	3	3	n/a	CALENDAR	221	1	2	n/a	n/a	n/a	n/a	n/a	n/a
3853486	RECOG_RESP	n/a	LTP274	ltpFR	3	3	n/a	CALENDAR	221	1	n/a	n/a	n/a	n/a	n/a	n/a	n/a
3854281	RECOG_CONF	n/a	LTP274	ltpFR	3	3	n/a	CALENDAR	221	n/a	2	n/a	n/a	n/a	n/a	n/a	n/a
3856254	RECOG_TARGET	n/a	LTP274	ltpFR	3	3	0	HAMBURGER	679	1	5	1	n/a	n/a	n/a	n/a	n/a
3856961	RECOG_RESP	n/a	LTP274	ltpFR	3	3	0	HAMBURGER	679	1	n/a	1	n/a	n/a	n/a	n/a	n/a
3857691	RECOG_CONF	n/a	LTP274	ltpFR	3	3	0	HAMBURGER	679	n/a	5	1	n/a	n/a	n/a	n/a	n/a
3859450	RECOG_LURE	n/a	LTP274	ltpFR	3	3	n/a	ACTRESS	6	0	1	n/a	n/a	n/a	n/a	n/a	n/a
3862761	RECOG_RESP	n/a	LTP274	ltpFR	3	3	n/a	ACTRESS	6	0	n/a	n/a	n/a	n/a	n/a	n/a	n/a
3863771	RECOG_CONF	n/a	LTP274	ltpFR	3	3	n/a	ACTRESS	6	n/a	1	n/a	n/a	n/a	n/a	n/a	n/a
3865606	RECOG_LURE	n/a	LTP274	ltpFR	3	3	n/a	HATCHET	691	0	3	n/a	n/a	n/a	n/a	n/a	n/a
3866451	RECOG_RESP	n/a	LTP274	ltpFR	3	3	n/a	HATCHET	691	0	n/a	n/a	n/a	n/a	n/a	n/a	n/a
3868901	RECOG_CONF	n/a	LTP274	ltpFR	3	3	n/a	HATCHET	691	n/a	3	n/a	n/a	n/a	n/a	n/a	n/a
3878037	REC_START	n/a	LTP274	ltpFR	3	4	n/a	n/a	n/a	n/a	n/a	n/a	n/a	n/a	n/a	n/a	n/a
3878072	RECOG_TARGET	n/a	LTP274	ltpFR	3	4	0	TOWER	1490	1	2	1	n/a	n/a	n/a	n/a	n/a
3882727	RECOG_RESP	n/a	LTP274	ltpFR	3	4	0	TOWER	1490	1	n/a	1	n/a	n/a	n/a	n/a	n/a
3883897	RECOG_CONF	n/a	LTP274	ltpFR	3	4	0	TOWER	1490	n/a	2	1	n/a	n/a	n/a	n/a	n/a
3886010	RECOG_TARGET	n/a	LTP274	ltpFR	3	4	0	PIT	1077	1	4	1	n/a	n/a	n/a	n/a	n/a
3886952	RECOG_RESP	n/a	LTP274	ltpFR	3	4	0	PIT	1077	1	n/a	1	n/a	n/a	n/a	n/a	n/a
3887837	RECOG_CONF	n/a	LTP274	ltpFR	3	4	0	PIT	1077	n/a	4	1	n/a	n/a	n/a	n/a	n/a
3889488	RECOG_LURE	n/a	LTP274	ltpFR	3	4	n/a	FLOUR	583	0	2	n/a	n/a	n/a	n/a	n/a	n/a
3890172	RECOG_RESP_VV	n/a	LTP274	ltpFR	3	4	n/a	FLOUR	583	1	n/a	n/a	n/a	n/a	n/a	n/a	n/a
3891007	RECOG_RESP_VV	n/a	LTP274	ltpFR	3	4	n/a	FLOUR	583	0	n/a	n/a	n/a	n/a	n/a	n/a	n/a
3892387	RECOG_RESP	n/a	LTP274	ltpFR	3	4	n/a	FLOUR	583	0	n/a	n/a	n/a	n/a	n/a	n/a	n/a
3893337	RECOG_CONF	n/a	LTP274	ltpFR	3	4	n/a	FLOUR	583	n/a	2	n/a	n/a	n/a	n/a	n/a	n/a
3895379	RECOG_LURE	n/a	LTP274	ltpFR	3	4	n/a	NAPKIN	937	0	1	n/a	n/a	n/a	n/a	n/a	n/a
3897602	RECOG_RESP	n/a	LTP274	ltpFR	3	4	n/a	NAPKIN	937	0	n/a	n/a	n/a	n/a	n/a	n/a	n/a
3899877	RECOG_CONF	n/a	LTP274	ltpFR	3	4	n/a	NAPKIN	937	n/a	1	n/a	n/a	n/a	n/a	n/a	n/a
3901770	RECOG_TARGET	n/a	LTP274	ltpFR	3	4	0	GIRAFFE	636	1	5	1	n/a	n/a	n/a	n/a	n/a
3902512	RECOG_RESP	n/a	LTP274	ltpFR	3	4	0	GIRAFFE	636	1	n/a	1	n/a	n/a	n/a	n/a	n/a
3903357	RECOG_CONF	n/a	LTP274	ltpFR	3	4	0	GIRAFFE	636	n/a	5	1	n/a	n/a	n/a	n/a	n/a
3905115	RECOG_LURE	n/a	LTP274	ltpFR	3	4	n/a	BLENDER	136	0	3	n/a	n/a	n/a	n/a	n/a	n/a
3906202	RECOG_RESP	n/a	LTP274	ltpFR	3	4	n/a	BLENDER	136	0	n/a	n/a	n/a	n/a	n/a	n/a	n/a
3906947	RECOG_CONF	n/a	LTP274	ltpFR	3	4	n/a	BLENDER	136	n/a	3	n/a	n/a	n/a	n/a	n/a	n/a
3908759	RECOG_LURE	n/a	LTP274	ltpFR	3	4	n/a	BRUISE	180	0	4	n/a	n/a	n/a	n/a	n/a	n/a
3909797	RECOG_RESP	n/a	LTP274	ltpFR	3	4	n/a	BRUISE	180	0	n/a	n/a	n/a	n/a	n/a	n/a	n/a
3910427	RECOG_CONF	n/a	LTP274	ltpFR	3	4	n/a	BRUISE	180	n/a	4	n/a	n/a	n/a	n/a	n/a	n/a
3912337	RECOG_TARGET	n/a	LTP274	ltpFR	3	4	-1	EYELASH	546	1	4	-1	n/a	n/a	n/a	n/a	n/a
3913617	RECOG_RESP_VV	n/a	LTP274	ltpFR	3	4	-1	EYELASH	546	1	n/a	-1	n/a	n/a	n/a	n/a	n/a
3914437	RECOG_RESP	n/a	LTP274	ltpFR	3	4	-1	EYELASH	546	1	n/a	-1	n/a	n/a	n/a	n/a	n/a
3915737	RECOG_CONF	n/a	LTP274	ltpFR	3	4	-1	EYELASH	546	n/a	4	-1	n/a	n/a	n/a	n/a	n/a
3917846	RECOG_TARGET	n/a	LTP274	ltpFR	3	4	0	PORT	1110	1	4	1	n/a	n/a	n/a	n/a	n/a
3920332	RECOG_RESP	n/a	LTP274	ltpFR	3	4	0	PORT	1110	1	n/a	1	n/a	n/a	n/a	n/a	n/a
3921187	RECOG_CONF	n/a	LTP274	ltpFR	3	4	0	PORT	1110	n/a	4	1	n/a	n/a	n/a	n/a	n/a
3923021	RECOG_TARGET	n/a	LTP274	ltpFR	3	4	1	CHICKEN	297	0	1	1	n/a	n/a	n/a	n/a	n/a
3925367	RECOG_RESP	n/a	LTP274	ltpFR	3	4	1	CHICKEN	297	0	n/a	1	n/a	n/a	n/a	n/a	n/a
3926237	RECOG_CONF	n/a	LTP274	ltpFR	3	4	1	CHICKEN	297	n/a	1	1	n/a	n/a	n/a	n/a	n/a
3928130	RECOG_TARGET	n/a	LTP274	ltpFR	3	4	-1	ROPE	1211	1	4	-1	n/a	n/a	n/a	n/a	n/a
3928937	RECOG_RESP	n/a	LTP274	ltpFR	3	4	-1	ROPE	1211	1	n/a	-1	n/a	n/a	n/a	n/a	n/a
3929617	RECOG_CONF	n/a	LTP274	ltpFR	3	4	-1	ROPE	1211	n/a	4	-1	n/a	n/a	n/a	n/a	n/a
3931392	RECOG_TARGET	n/a	LTP274	ltpFR	3	4	0	BRIEFCASE	175	1	5	1	n/a	n/a	n/a	n/a	n/a
3932297	RECOG_RESP	n/a	LTP274	ltpFR	3	4	0	BRIEFCASE	175	1	n/a	1	n/a	n/a	n/a	n/a	n/a
3932997	RECOG_CONF	n/a	LTP274	ltpFR	3	4	0	BRIEFCASE	175	n/a	5	1	n/a	n/a	n/a	n/a	n/a
3934837	RECOG_TARGET	n/a	LTP274	ltpFR	3	4	-1	VINEGAR	1569	1	5	-1	n/a	n/a	n/a	n/a	n/a
3935687	RECOG_RESP	n/a	LTP274	ltpFR	3	4	-1	VINEGAR	1569	1	n/a	-1	n/a	n/a	n/a	n/a	n/a
3936667	RECOG_CONF	n/a	LTP274	ltpFR	3	4	-1	VINEGAR	1569	n/a	5	-1	n/a	n/a	n/a	n/a	n/a
3938398	RECOG_LURE	n/a	LTP274	ltpFR	3	4	n/a	RAKE	1164	0	4	n/a	n/a	n/a	n/a	n/a	n/a
3939322	RECOG_RESP	n/a	LTP274	ltpFR	3	4	n/a	RAKE	1164	0	n/a	n/a	n/a	n/a	n/a	n/a	n/a
3940707	RECOG_CONF	n/a	LTP274	ltpFR	3	4	n/a	RAKE	1164	n/a	4	n/a	n/a	n/a	n/a	n/a	n/a
3942574	RECOG_TARGET	n/a	LTP274	ltpFR	3	4	1	ISLAND	745	1	3	0	n/a	n/a	n/a	n/a	n/a
3944337	RECOG_RESP	n/a	LTP274	ltpFR	3	4	1	ISLAND	745	1	n/a	0	n/a	n/a	n/a	n/a	n/a
3946577	RECOG_CONF	n/a	LTP274	ltpFR	3	4	1	ISLAND	745	n/a	3	0	n/a	n/a	n/a	n/a	n/a
3948566	RECOG_LURE	n/a	LTP274	ltpFR	3	4	n/a	BUSH	202	0	1	n/a	n/a	n/a	n/a	n/a	n/a
3952337	RECOG_RESP	n/a	LTP274	ltpFR	3	4	n/a	BUSH	202	0	n/a	n/a	n/a	n/a	n/a	n/a	n/a
3954217	RECOG_RESP_VV	n/a	LTP274	ltpFR	3	4	n/a	BUSH	202	n/a	2	n/a	n/a	n/a	n/a	n/a	n/a
3955217	RECOG_CONF	n/a	LTP274	ltpFR	3	4	n/a	BUSH	202	n/a	1	n/a	n/a	n/a	n/a	n/a	n/a
3957220	RECOG_LURE	n/a	LTP274	ltpFR	3	4	n/a	OVAL	990	0	4	n/a	n/a	n/a	n/a	n/a	n/a
3958442	RECOG_RESP	n/a	LTP274	ltpFR	3	4	n/a	OVAL	990	0	n/a	n/a	n/a	n/a	n/a	n/a	n/a
3959087	RECOG_CONF	n/a	LTP274	ltpFR	3	4	n/a	OVAL	990	n/a	4	n/a	n/a	n/a	n/a	n/a	n/a
3961131	RECOG_TARGET	n/a	LTP274	ltpFR	3	4	1	HOOK	715	1	3	0	n/a	n/a	n/a	n/a	n/a
3962252	RECOG_RESP	n/a	LTP274	ltpFR	3	4	1	HOOK	715	1	n/a	0	n/a	n/a	n/a	n/a	n/a
3963107	RECOG_CONF	n/a	LTP274	ltpFR	3	4	1	HOOK	715	n/a	3	0	n/a	n/a	n/a	n/a	n/a
3964925	RECOG_TARGET	n/a	LTP274	ltpFR	3	4	-1	CALF	222	1	5	-1	n/a	n/a	n/a	n/a	n/a
3965837	RECOG_RESP	n/a	LTP274	ltpFR	3	4	-1	CALF	222	1	n/a	-1	n/a	n/a	n/a	n/a	n/a
3966497	RECOG_CONF	n/a	LTP274	ltpFR	3	4	-1	CALF	222	n/a	5	-1	n/a	n/a	n/a	n/a	n/a
3968287	RECOG_TARGET	n/a	LTP274	ltpFR	3	4	-1	MICROWAVE	892	1	5	-1	n/a	n/a	n/a	n/a	n/a
3969067	RECOG_RESP	n/a	LTP274	ltpFR	3	4	-1	MICROWAVE	892	1	n/a	-1	n/a	n/a	n/a	n/a	n/a
3969837	RECOG_CONF	n/a	LTP274	ltpFR	3	4	-1	MICROWAVE	892	n/a	5	-1	n/a	n/a	n/a	n/a	n/a
3973612	REC_START	n/a	LTP274	ltpFR	3	5	n/a	n/a	n/a	n/a	n/a	n/a	n/a	n/a	n/a	n/a	n/a
3973646	RECOG_TARGET	n/a	LTP274	ltpFR	3	5	0	COUNTY	389	1	2	1	n/a	n/a	n/a	n/a	n/a
3976387	RECOG_RESP	n/a	LTP274	ltpFR	3	5	0	COUNTY	389	1	n/a	1	n/a	n/a	n/a	n/a	n/a
3977782	RECOG_CONF	n/a	LTP274	ltpFR	3	5	0	COUNTY	389	n/a	2	1	n/a	n/a	n/a	n/a	n/a
3979737	RECOG_LURE	n/a	LTP274	ltpFR	3	5	n/a	TYPIST	1532	0	4	n/a	n/a	n/a	n/a	n/a	n/a
3981087	RECOG_RESP	n/a	LTP274	ltpFR	3	5	n/a	TYPIST	1532	0	n/a	n/a	n/a	n/a	n/a	n/a	n/a
3981742	RECOG_CONF	n/a	LTP274	ltpFR	3	5	n/a	TYPIST	1532	n/a	4	n/a	n/a	n/a	n/a	n/a	n/a
3983530	RECOG_LURE	n/a	LTP274	ltpFR	3	5	n/a	LENS	811	0	4	n/a	n/a	n/a	n/a	n/a	n/a
3985017	RECOG_RESP	n/a	LTP274	ltpFR	3	5	n/a	LENS	811	0	n/a	n/a	n/a	n/a	n/a	n/a	n/a
3985382	RECOG_CONF	n/a	LTP274	ltpFR	3	5	n/a	LENS	811	n/a	4	n/a	n/a	n/a	n/a	n/a	n/a
3987541	RECOG_LURE	n/a	LTP274	ltpFR	3	5	n/a	PENCIL	1042	0	5	n/a	n/a	n/a	n/a	n/a	n/a
3988382	RECOG_RESP	n/a	LTP274	ltpFR	3	5	n/a	PENCIL	1042	0	n/a	n/a	n/a	n/a	n/a	n/a	n/a
3989092	RECOG_CONF	n/a	LTP274	ltpFR	3	5	n/a	PENCIL	1042	n/a	5	n/a	n/a	n/a	n/a	n/a	n/a
3990870	RECOG_LURE	n/a	LTP274	ltpFR	3	5	n/a	EXPLOSION	544	0	5	n/a	n/a	n/a	n/a	n/a	n/a
3991752	RECOG_RESP	n/a	LTP274	ltpFR	3	5	n/a	EXPLOSION	544	0	n/a	n/a	n/a	n/a	n/a	n/a	n/a
3992502	RECOG_CONF	n/a	LTP274	ltpFR	3	5	n/a	EXPLOSION	544	n/a	5	n/a	n/a	n/a	n/a	n/a	n/a
3994198	RECOG_LURE	n/a	LTP274	ltpFR	3	5	n/a	ACORN	3	0	5	n/a	n/a	n/a	n/a	n/a	n/a
3995052	RECOG_RESP	n/a	LTP274	ltpFR	3	5	n/a	ACORN	3	0	n/a	n/a	n/a	n/a	n/a	n/a	n/a
3995862	RECOG_CONF	n/a	LTP274	ltpFR	3	5	n/a	ACORN	3	n/a	5	n/a	n/a	n/a	n/a	n/a	n/a
3997760	RECOG_TARGET	n/a	LTP274	ltpFR	3	5	1	EWE	542	1	5	1	n/a	n/a	n/a	n/a	n/a
3998732	RECOG_RESP	n/a	LTP274	ltpFR	3	5	1	EWE	542	1	n/a	1	n/a	n/a	n/a	n/a	n/a
3999432	RECOG_CONF	n/a	LTP274	ltpFR	3	5	1	EWE	542	n/a	5	1	n/a	n/a	n/a	n/a	n/a
4001354	RECOG_LURE	n/a	LTP274	ltpFR	3	5	n/a	APPLICATION	34	0	1	n/a	n/a	n/a	n/a	n/a	n/a
4002762	RECOG_RESP	n/a	LTP274	ltpFR	3	5	n/a	APPLICATION	34	0	n/a	n/a	n/a	n/a	n/a	n/a	n/a
4004942	RECOG_CONF	n/a	LTP274	ltpFR	3	5	n/a	APPLICATION	34	n/a	1	n/a	n/a	n/a	n/a	n/a	n/a
4007013	RECOG_TARGET	n/a	LTP274	ltpFR	3	5	1	GARDEN	623	1	3	0	n/a	n/a	n/a	n/a	n/a
4008197	RECOG_RESP	n/a	LTP274	ltpFR	3	5	1	GARDEN	623	1	n/a	0	n/a	n/a	n/a	n/a	n/a
4008972	RECOG_CONF	n/a	LTP274	ltpFR	3	5	1	GARDEN	623	n/a	3	0	n/a	n/a	n/a	n/a	n/a
4010807	RECOG_LURE	n/a	LTP274	ltpFR	3	5	n/a	ORGAN	984	0	3	n/a	n/a	n/a	n/a	n/a	n/a
4012137	RECOG_RESP	n/a	LTP274	ltpFR	3	5	n/a	ORGAN	984	0	n/a	n/a	n/a	n/a	n/a	n/a	n/a
4014192	RECOG_CONF	n/a	LTP274	ltpFR	3	5	n/a	ORGAN	984	n/a	3	n/a	n/a	n/a	n/a	n/a	n/a
4016365	RECOG_TARGET	n/a	LTP274	ltpFR	3	5	0	PASSAGE	1019	1	4	1	n/a	n/a	n/a	n/a	n/a
4017287	RECOG_RESP	n/a	LTP274	ltpFR	3	5	0	PASSAGE	1019	1	n/a	1	n/a	n/a	n/a	n/a	n/a
4018012	RECOG_CONF	n/a	LTP274	ltpFR	3	5	0	PASSAGE	1019	n/a	4	1	n/a	n/a	n/a	n/a	n/a
4019744	RECOG_TARGET	n/a	LTP274	ltpFR	3	5	1	GRIZZLY	662	1	5	1	n/a	n/a	n/a	n/a	n/a
4020487	RECOG_RESP	n/a	LTP274	ltpFR	3	5	1	GRIZZLY	662	1	n/a	1	n/a	n/a	n/a	n/a	n/a
4021242	RECOG_CONF	n/a	LTP274	ltpFR	3	5	1	GRIZZLY	662	n/a	5	1	n/a	n/a	n/a	n/a	n/a
4022955	RECOG_TARGET	n/a	LTP274	ltpFR	3	5	-1	MARBLE	867	1	5	-1	n/a	n/a	n/a	n/a	n/a
4024437	RECOG_RESP	n/a	LTP274	ltpFR	3	5	-1	MARBLE	867	1	n/a	-1	n/a	n/a	n/a	n/a	n/a
4025092	RECOG_CONF	n/a	LTP274	ltpFR	3	5	-1	MARBLE	867	n/a	5	-1	n/a	n/a	n/a	n/a	n/a
4026883	RECOG_LURE	n/a	LTP274	ltpFR	3	5	n/a	LASH	802	0	2	n/a	n/a	n/a	n/a	n/a	n/a
4028077	RECOG_RESP	n/a	LTP274	ltpFR	3	5	n/a	LASH	802	0	n/a	n/a	n/a	n/a	n/a	n/a	n/a
4029102	RECOG_CONF	n/a	LTP274	ltpFR	3	5	n/a	LASH	802	n/a	2	n/a	n/a	n/a	n/a	n/a	n/a
4030943	RECOG_TARGET	n/a	LTP274	ltpFR	3	5	0	BUN	197	1	3	0	n/a	n/a	n/a	n/a	n/a
4033287	RECOG_RESP	n/a	LTP274	ltpFR	3	5	0	BUN	197	1	n/a	0	n/a	n/a	n/a	n/a	n/a
4034542	RECOG_CONF	n/a	LTP274	ltpFR	3	5	0	BUN	197	n/a	3	0	n/a	n/a	n/a	n/a	n/a
4036551	RECOG_LURE	n/a	LTP274	ltpFR	3	5	n/a	CRITIC	410	0	3	n/a	n/a	n/a	n/a	n/a	n/a
4037732	RECOG_RESP	n/a	LTP274	ltpFR	3	5	n/a	CRITIC	410	0	n/a	n/a	n/a	n/a	n/a	n/a	n/a
4038652	RECOG_CONF	n/a	LTP274	ltpFR	3	5	n/a	CRITIC	410	n/a	3	n/a	n/a	n/a	n/a	n/a	n/a
4040280	RECOG_LURE	n/a	LTP274	ltpFR	3	5	n/a	NIECE	952	0	4	n/a	n/a	n/a	n/a	n/a	n/a
4041322	RECOG_RESP	n/a	LTP274	ltpFR	3	5	n/a	NIECE	952	0	n/a	n/a	n/a	n/a	n/a	n/a	n/a
4042372	RECOG_CONF	n/a	LTP274	ltpFR	3	5	n/a	NIECE	952	n/a	4	n/a	n/a	n/a	n/a	n/a	n/a
4044024	RECOG_TARGET	n/a	LTP274	ltpFR	3	5	1	BARREL	91	1	4	0	n/a	n/a	n/a	n/a	n/a
4045247	RECOG_RESP	n/a	LTP274	ltpFR	3	5	1	BARREL	91	1	n/a	0	n/a	n/a	n/a	n/a	n/a
4046202	RECOG_CONF	n/a	LTP274	ltpFR	3	5	1	BARREL	91	n/a	4	0	n/a	n/a	n/a	n/a	n/a
4048001	RECOG_TARGET	n/a	LTP274	ltpFR	3	5	1	EARRING	514	0	1	0	n/a	n/a	n/a	n/a	n/a
4050387	RECOG_RESP	n/a	LTP274	ltpFR	3	5	1	EARRING	514	0	n/a	0	n/a	n/a	n/a	n/a	n/a
4052292	RECOG_CONF	n/a	LTP274	ltpFR	3	5	1	EARRING	514	n/a	1	0	n/a	n/a	n/a	n/a	n/a
4054242	RECOG_TARGET	n/a	LTP274	ltpFR	3	5	0	COMB	351	0	1	0	n/a	n/a	n/a	n/a	n/a
4055822	RECOG_RESP	n/a	LTP274	ltpFR	3	5	0	COMB	351	0	n/a	0	n/a	n/a	n/a	n/a	n/a
4056692	RECOG_CONF	n/a	LTP274	ltpFR	3	5	0	COMB	351	n/a	1	0	n/a	n/a	n/a	n/a	n/a
4060499	REC_START	n/a	LTP274	ltpFR	3	6	n/a	n/a	n/a	n/a	n/a	n/a	n/a	n/a	n/a	n/a	n/a
4060532	RECOG_LURE	n/a	LTP274	ltpFR	3	6	n/a	HEADBAND	696	0	3	n/a	n/a	n/a	n/a	n/a	n/a
4061594	RECOG_RESP	n/a	LTP274	ltpFR	3	6	n/a	HEADBAND	696	0	n/a	n/a	n/a	n/a	n/a	n/a	n/a
4062399	RECOG_CONF	n/a	LTP274	ltpFR	3	6	n/a	HEADBAND	696	n/a	3	n/a	n/a	n/a	n/a	n/a	n/a
4064177	RECOG_TARGET	n/a	LTP274	ltpFR	3	6	1	TICK	1463	1	4	0	n/a	n/a	n/a	n/a	n/a
4065489	RECOG_RESP	n/a	LTP274	ltpFR	3	6	1	TICK	1463	1	n/a	0	n/a	n/a	n/a	n/a	n/a
4066339	RECOG_CONF	n/a	LTP274	ltpFR	3	6	1	TICK	1463	n/a	4	0	n/a	n/a	n/a	n/a	n/a
4068254	RECOG_LURE	n/a	LTP274	ltpFR	3	6	n/a	ELECTRICIAN	521	0	4	n/a	n/a	n/a	n/a	n/a	n/a
4069274	RECOG_RESP	n/a	LTP274	ltpFR	3	6	n/a	ELECTRICIAN	521	0	n/a	n/a	n/a	n/a	n/a	n/a	n/a
4069909	RECOG_CONF	n/a	LTP274	ltpFR	3	6	n/a	ELECTRICIAN	521	n/a	4	n/a	n/a	n/a	n/a	n/a	n/a
4071716	RECOG_LURE	n/a	LTP274	ltpFR	3	6	n/a	CARNIVAL	245	0	5	n/a	n/a	n/a	n/a	n/a	n/a
4072539	RECOG_RESP	n/a	LTP274	ltpFR	3	6	n/a	CARNIVAL	245	0	n/a	n/a	n/a	n/a	n/a	n/a	n/a
4073199	RECOG_CONF	n/a	LTP274	ltpFR	3	6	n/a	CARNIVAL	245	n/a	5	n/a	n/a	n/a	n/a	n/a	n/a
4074895	RECOG_LURE	n/a	LTP274	ltpFR	3	6	n/a	TOASTER	1472	1	2	n/a	n/a	n/a	n/a	n/a	n/a
4076809	RECOG_RESP	n/a	LTP274	ltpFR	3	6	n/a	TOASTER	1472	1	n/a	n/a	n/a	n/a	n/a	n/a	n/a
4077549	RECOG_CONF	n/a	LTP274	ltpFR	3	6	n/a	TOASTER	1472	n/a	2	n/a	n/a	n/a	n/a	n/a	n/a
4079155	RECOG_TARGET	n/a	LTP274	ltpFR	3	6	1	CAMERA	224	1	2	0	n/a	n/a	n/a	n/a	n/a
4079959	RECOG_RESP	n/a	LTP274	ltpFR	3	6	1	CAMERA	224	1	n/a	0	n/a	n/a	n/a	n/a	n/a
4080669	RECOG_CONF	n/a	LTP274	ltpFR	3	6	1	CAMERA	224	n/a	2	0	n/a	n/a	n/a	n/a	n/a
4082400	RECOG_LURE	n/a	LTP274	ltpFR	3	6	n/a	RECORD	1176	0	1	n/a	n/a	n/a	n/a	n/a	n/a
4084774	RECOG_RESP	n/a	LTP274	ltpFR	3	6	n/a	RECORD	1176	0	n/a	n/a	n/a	n/a	n/a	n/a	n/a
4085569	RECOG_CONF	n/a	LTP274	ltpFR	3	6	n/a	RECORD	1176	n/a	1	n/a	n/a	n/a	n/a	n/a	n/a
4087509	RECOG_TARGET	n/a	LTP274	ltpFR	3	6	0	ROAD	1196	1	1	1	n/a	n/a	n/a	n/a	n/a
4090484	RECOG_RESP	n/a	LTP274	ltpFR	3	6	0	ROAD	1196	1	n/a	1	n/a	n/a	n/a	n/a	n/a
4091179	RECOG_CONF	n/a	LTP274	ltpFR	3	6	0	ROAD	1196	n/a	1	1	n/a	n/a	n/a	n/a	n/a
4092968	RECOG_LURE	n/a	LTP274	ltpFR	3	6	n/a	BACKBONE	66	1	1	n/a	n/a	n/a	n/a	n/a	n/a
4094639	RECOG_RESP	n/a	LTP274	ltpFR	3	6	n/a	BACKBONE	66	1	n/a	n/a	n/a	n/a	n/a	n/a	n/a
4095329	RECOG_CONF	n/a	LTP274	ltpFR	3	6	n/a	BACKBONE	66	n/a	1	n/a	n/a	n/a	n/a	n/a	n/a
4097178	RECOG_LURE	n/a	LTP274	ltpFR	3	6	n/a	TOURIST	1488	0	2	n/a	n/a	n/a	n/a	n/a	n/a
4098929	RECOG_RESP	n/a	LTP274	ltpFR	3	6	n/a	TOURIST	1488	0	n/a	n/a	n/a	n/a	n/a	n/a	n/a
4099739	RECOG_CONF	n/a	LTP274	ltpFR	3	6	n/a	TOURIST	1488	n/a	2	n/a	n/a	n/a	n/a	n/a	n/a
4101488	RECOG_TARGET	n/a	LTP274	ltpFR	3	6	1	WALRUS	1585	0	4	1	n/a	n/a	n/a	n/a	n/a
4102584	RECOG_RESP	n/a	LTP274	ltpFR	3	6	1	WALRUS	1585	0	n/a	1	n/a	n/a	n/a	n/a	n/a
4103129	RECOG_CONF	n/a	LTP274	ltpFR	3	6	1	WALRUS	1585	n/a	4	1	n/a	n/a	n/a	n/a	n/a
4105016	RECOG_TARGET	n/a	LTP274	ltpFR	3	6	1	BULLY	196	1	3	1	n/a	n/a	n/a	n/a	n/a
4106209	RECOG_RESP	n/a	LTP274	ltpFR	3	6	1	BULLY	196	1	n/a	1	n/a	n/a	n/a	n/a	n/a
4106899	RECOG_CONF	n/a	LTP274	ltpFR	3	6	1	BULLY	196	n/a	3	1	n/a	n/a	n/a	n/a	n/a
4108744	RECOG_TARGET	n/a	LTP274	ltpFR	3	6	1	BIRD	129	1	5	1	n/a	n/a	n/a	n/a	n/a
4109839	RECOG_RESP	n/a	LTP274	ltpFR	3	6	1	BIRD	129	1	n/a	1	n/a	n/a	n/a	n/a	n/a
4110549	RECOG_CONF	n/a	LTP274	ltpFR	3	6	1	BIRD	129	n/a	5	1	n/a	n/a	n/a	n/a	n/a
4112239	RECOG_TARGET	n/a	LTP274	ltpFR	3	6	-1	CAFE	216	1	5	-1	n/a	n/a	n/a	n/a	n/a
4112914	RECOG_RESP	n/a	LTP274	ltpFR	3	6	-1	CAFE	216	1	n/a	-1	n/a	n/a	n/a	n/a	n/a
4113619	RECOG_CONF	n/a	LTP274	ltpFR	3	6	-1	CAFE	216	n/a	5	-1	n/a	n/a	n/a	n/a	n/a
4115201	RECOG_TARGET	n/a	LTP274	ltpFR	3	6	0	PLUM	1090	1	4	0	n/a	n/a	n/a	n/a	n/a
4116744	RECOG_RESP	n/a	LTP274	ltpFR	3	6	0	PLUM	1090	1	n/a	0	n/a	n/a	n/a	n/a	n/a
4117369	RECOG_CONF	n/a	LTP274	ltpFR	3	6	0	PLUM	1090	n/a	4	0	n/a	n/a	n/a	n/a	n/a
4119062	RECOG_TARGET	n/a	LTP274	ltpFR	3	6	1	CHEST	295	1	1	0	n/a	n/a	n/a	n/a	n/a
4121964	RECOG_RESP	n/a	LTP274	ltpFR	3	6	1	CHEST	295	1	n/a	0	n/a	n/a	n/a	n/a	n/a
4124059	RECOG_CONF	n/a	LTP274	ltpFR	3	6	1	CHEST	295	n/a	1	0	n/a	n/a	n/a	n/a	n/a
4125885	RECOG_TARGET	n/a	LTP274	ltpFR	3	6	0	FIREMAN	569	1	4	1	n/a	n/a	n/a	n/a	n/a
4126699	RECOG_RESP	n/a	LTP274	ltpFR	3	6	0	FIREMAN	569	1	n/a	1	n/a	n/a	n/a	n/a	n/a
4127459	RECOG_CONF	n/a	LTP274	ltpFR	3	6	0	FIREMAN	569	n/a	4	1	n/a	n/a	n/a	n/a	n/a
4129064	RECOG_LURE	n/a	LTP274	ltpFR	3	6	n/a	CHAMPION	279	0	2	n/a	n/a	n/a	n/a	n/a	n/a
4131054	RECOG_RESP	n/a	LTP274	ltpFR	3	6	n/a	CHAMPION	279	0	n/a	n/a	n/a	n/a	n/a	n/a	n/a
4132979	RECOG_CONF	n/a	LTP274	ltpFR	3	6	n/a	CHAMPION	279	n/a	2	n/a	n/a	n/a	n/a	n/a	n/a
4135171	RECOG_LURE	n/a	LTP274	ltpFR	3	6	n/a	WALLET	1583	0	2	n/a	n/a	n/a	n/a	n/a	n/a
4136979	RECOG_RESP	n/a	LTP274	ltpFR	3	6	n/a	WALLET	1583	0	n/a	n/a	n/a	n/a	n/a	n/a	n/a
4139509	RECOG_CONF	n/a	LTP274	ltpFR	3	6	n/a	WALLET	1583	n/a	2	n/a	n/a	n/a	n/a	n/a	n/a
4141229	RECOG_LURE	n/a	LTP274	ltpFR	3	6	n/a	MOOSE	915	0	3	n/a	n/a	n/a	n/a	n/a	n/a
4142154	RECOG_RESP	n/a	LTP274	ltpFR	3	6	n/a	MOOSE	915	0	n/a	n/a	n/a	n/a	n/a	n/a	n/a
4142909	RECOG_CONF	n/a	LTP274	ltpFR	3	6	n/a	MOOSE	915	n/a	3	n/a	n/a	n/a	n/a	n/a	n/a
4149771	REC_START	n/a	LTP274	ltpFR	3	7	n/a	n/a	n/a	n/a	n/a	n/a	n/a	n/a	n/a	n/a	n/a
4149799	RECOG_TARGET	n/a	LTP274	ltpFR	3	7	0	SARDINE	1235	1	5	0	n/a	n/a	n/a	n/a	n/a
4151026	RECOG_RESP	n/a	LTP274	ltpFR	3	7	0	SARDINE	1235	1	n/a	0	n/a	n/a	n/a	n/a	n/a
4151951	RECOG_CONF	n/a	LTP274	ltpFR	3	7	0	SARDINE	1235	n/a	5	0	n/a	n/a	n/a	n/a	n/a
4153810	RECOG_TARGET	n/a	LTP274	ltpFR	3	7	-1	CAR	241	1	5	-1	n/a	n/a	n/a	n/a	n/a
4154471	RECOG_RESP	n/a	LTP274	ltpFR	3	7	-1	CAR	241	1	n/a	-1	n/a	n/a	n/a	n/a	n/a
4155401	RECOG_CONF	n/a	LTP274	ltpFR	3	7	-1	CAR	241	n/a	5	-1	n/a	n/a	n/a	n/a	n/a
4157072	RECOG_TARGET	n/a	LTP274	ltpFR	3	7	1	WAVE	1596	0	2	0	n/a	n/a	n/a	n/a	n/a
4158026	RECOG_RESP	n/a	LTP274	ltpFR	3	7	1	WAVE	1596	0	n/a	0	n/a	n/a	n/a	n/a	n/a
4159221	RECOG_CONF	n/a	LTP274	ltpFR	3	7	1	WAVE	1596	n/a	2	0	n/a	n/a	n/a	n/a	n/a
4161049	RECOG_TARGET	n/a	LTP274	ltpFR	3	7	1	OTTER	986	1	4	1	n/a	n/a	n/a	n/a	n/a
4161866	RECOG_RESP	n/a	LTP274	ltpFR	3	7	1	OTTER	986	1	n/a	1	n/a	n/a	n/a	n/a	n/a
4162561	RECOG_CONF	n/a	LTP274	ltpFR	3	7	1	OTTER	986	n/a	4	1	n/a	n/a	n/a	n/a	n/a
4164278	RECOG_TARGET	n/a	LTP274	ltpFR	3	7	0	LAMB	797	1	4	1	n/a	n/a	n/a	n/a	n/a
4165083	RECOG_RESP	n/a	LTP274	ltpFR	3	7	0	LAMB	797	1	n/a	1	n/a	n/a	n/a	n/a	n/a
4165721	RECOG_CONF	n/a	LTP274	ltpFR	3	7	0	LAMB	797	n/a	4	1	n/a	n/a	n/a	n/a	n/a
4167490	RECOG_LURE	n/a	LTP274	ltpFR	3	7	n/a	SHEARS	1276	0	3	n/a	n/a	n/a	n/a	n/a	n/a
4168551	RECOG_RESP	n/a	LTP274	ltpFR	3	7	n/a	SHEARS	1276	0	n/a	n/a	n/a	n/a	n/a	n/a	n/a
4169511	RECOG_CONF	n/a	LTP274	ltpFR	3	7	n/a	SHEARS	1276	n/a	3	n/a	n/a	n/a	n/a	n/a	n/a
4171334	RECOG_TARGET	n/a	LTP274	ltpFR	3	7	1	VET	1560	1	5	1	n/a	n/a	n/a	n/a	n/a
4172020	RECOG_RESP	n/a	LTP274	ltpFR	3	7	1	VET	1560	1	n/a	1	n/a	n/a	n/a	n/a	n/a
4172651	RECOG_CONF	n/a	LTP274	ltpFR	3	7	1	VET	1560	n/a	5	1	n/a	n/a	n/a	n/a	n/a
4174446	RECOG_TARGET	n/a	LTP274	ltpFR	3	7	0	ANTEATER	26	1	5	1	n/a	n/a	n/a	n/a	n/a
4175125	RECOG_RESP	n/a	LTP274	ltpFR	3	7	0	ANTEATER	26	1	n/a	1	n/a	n/a	n/a	n/a	n/a
4175831	RECOG_CONF	n/a	LTP274	ltpFR	3	7	0	ANTEATER	26	n/a	5	1	n/a	n/a	n/a	n/a	n/a
4177641	RECOG_LURE	n/a	LTP274	ltpFR	3	7	n/a	GATE	625	1	3	n/a	n/a	n/a	n/a	n/a	n/a
4179621	RECOG_RESP	n/a	LTP274	ltpFR	3	7	n/a	GATE	625	1	n/a	n/a	n/a	n/a	n/a	n/a	n/a
4181791	RECOG_CONF	n/a	LTP274	ltpFR	3	7	n/a	GATE	625	n/a	3	n/a	n/a	n/a	n/a	n/a	n/a
4183665	RECOG_LURE	n/a	LTP274	ltpFR	3	7	n/a	TOMBSTONE	1478	0	4	n/a	n/a	n/a	n/a	n/a	n/a
4184751	RECOG_RESP	n/a	LTP274	ltpFR	3	7	n/a	TOMBSTONE	1478	0	n/a	n/a	n/a	n/a	n/a	n/a	n/a
4185561	RECOG_CONF	n/a	LTP274	ltpFR	3	7	n/a	TOMBSTONE	1478	n/a	4	n/a	n/a	n/a	n/a	n/a	n/a
4187243	RECOG_TARGET	n/a	LTP274	ltpFR	3	7	1	CLAM	315	1	4	1	n/a	n/a	n/a	n/a	n/a
4188131	RECOG_RESP	n/a	LTP274	ltpFR	3	7	1	CLAM	315	1	n/a	1	n/a	n/a	n/a	n/a	n/a
4188751	RECOG_CONF	n/a	LTP274	ltpFR	3	7	1	CLAM	315	n/a	4	1	n/a	n/a	n/a	n/a	n/a
4190705	RECOG_TARGET	n/a	LTP274	ltpFR	3	7	-1	KITCHEN	778	1	4	-1	n/a	n/a	n/a	n/a	n/a
