mstime	trial_type	stim_file	subject	experiment	session	trial	task	item_name	item_num	recog_resp	recog_conf	resp	color_r	color_g	color_b	case	font
0	SESS_START	n/a	LTP147	ltpFR	19	n/a	n/a	n/a	n/a	0	5	n/a	n/a	n/a	n/a	n/a	n/a
45793	WORD	wordpools/wasnorm_wordpool.txt	LTP147	ltpFR	19	1	0	COUSIN	392	0	n/a	1	0.57763671875	0.412841796875	1	lower	amplitud.ttf
49967	WORD	wordpools/wasnorm_wordpool.txt	LTP147	ltpFR	19	1	0	RELATIVE	1182	n/a	n/a	1	0.57763671875	0.412841796875	1	lower	amplitud.ttf
53973	WORD	wordpools/wasnorm_wordpool.txt	LTP147	ltpFR	19	1	1	PIN	1072	n/a	n/a	0	0.422607421875	0.5869140625	0	upper	zerothre.ttf
57955	WORD	wordpools/wasnorm_wordpool.txt	LTP147	ltpFR	19	1	1	MARBLE	867	n/a	n/a	0	0.422607421875	0.5869140625	0	upper	zerothre.ttf
61887	WORD	wordpools/wasnorm_wordpool.txt	LTP147	ltpFR	19	1	0	CONTRACT	368	n/a	n/a	1	0.57763671875	0.412841796875	1	lower	amplitud.ttf
65719	WORD	wordpools/wasnorm_wordpool.txt	LTP147	ltpFR	19	1	0	DANDELION	438	n/a	n/a	0	0.57763671875	0.412841796875	1	lower	amplitud.ttf
69577	WORD	wordpools/wasnorm_wordpool.txt	LTP147	ltpFR	19	1	1	YARN	1631	n/a	n/a	0	0.422607421875	0.5869140625	0	upper	zerothre.ttf
73593	WORD	wordpools/wasnorm_wordpool.txt	LTP147	ltpFR	19	1	1	ROCK	1201	n/a	n/a	0	0.422607421875	0.5869140625	0	upper	zerothre.ttf
77666	WORD	wordpools/wasnorm_wordpool.txt	LTP147	ltpFR	19	1	1	DAUGHTER	442	n/a	n/a	1	0.422607421875	0.5869140625	0	upper	zerothre.ttf
81772	WORD	wordpools/wasnorm_wordpool.txt	LTP147	ltpFR	19	1	1	BRIEFCASE	175	n/a	n/a	0	0.422607421875	0.5869140625	0	upper	zerothre.ttf
85937	WORD	wordpools/wasnorm_wordpool.txt	LTP147	ltpFR	19	1	1	TYPIST	1532	n/a	n/a	0	0.422607421875	0.5869140625	0	upper	zerothre.ttf
89886	WORD	wordpools/wasnorm_wordpool.txt	LTP147	ltpFR	19	1	1	SWATTER	1418	n/a	n/a	0	0.422607421875	0.5869140625	0	upper	zerothre.ttf
94069	WORD	wordpools/wasnorm_wordpool.txt	LTP147	ltpFR	19	1	0	TERMITE	1451	n/a	n/a	0	0.57763671875	0.412841796875	1	lower	amplitud.ttf
97883	WORD	wordpools/wasnorm_wordpool.txt	LTP147	ltpFR	19	1	0	NEPTUNE	943	n/a	n/a	1	0.57763671875	0.412841796875	1	lower	amplitud.ttf
101856	WORD	wordpools/wasnorm_wordpool.txt	LTP147	ltpFR	19	1	0	PARENT	1013	n/a	n/a	1	0.57763671875	0.412841796875	1	lower	amplitud.ttf
105981	WORD	wordpools/wasnorm_wordpool.txt	LTP147	ltpFR	19	1	0	TABLET	1427	n/a	n/a	0	0.57763671875	0.412841796875	1	lower	amplitud.ttf
111920	REC_START	n/a	LTP147	ltpFR	19	1	n/a	n/a	n/a	n/a	n/a	n/a	n/a	n/a	n/a	n/a	n/a
112698	REC_WORD	wordpools/wasnorm_wordpool.txt	LTP147	ltpFR	19	1	1	SWATTER	1418	n/a	n/a	0	n/a	n/a	n/a	n/a	n/a
113641	REC_WORD	wordpools/wasnorm_wordpool.txt	LTP147	ltpFR	19	1	0	TABLET	1427	n/a	n/a	0	n/a	n/a	n/a	n/a	n/a
114514	REC_WORD	wordpools/wasnorm_wordpool.txt	LTP147	ltpFR	19	1	0	RELATIVE	1182	n/a	n/a	1	n/a	n/a	n/a	n/a	n/a
115511	REC_WORD	wordpools/wasnorm_wordpool.txt	LTP147	ltpFR	19	1	0	DANDELION	438	n/a	n/a	0	n/a	n/a	n/a	n/a	n/a
117133	REC_WORD	wordpools/wasnorm_wordpool.txt	LTP147	ltpFR	19	1	0	COUSIN	392	n/a	n/a	1	n/a	n/a	n/a	n/a	n/a
117961	REC_WORD	wordpools/wasnorm_wordpool.txt	LTP147	ltpFR	19	1	1	DAUGHTER	442	n/a	n/a	1	n/a	n/a	n/a	n/a	n/a
119208	REC_WORD	wordpools/wasnorm_wordpool.txt	LTP147	ltpFR	19	1	0	PARENT	1013	n/a	n/a	1	n/a	n/a	n/a	n/a	n/a
120959	REC_WORD	wordpools/wasnorm_wordpool.txt	LTP147	ltpFR	19	1	1	PIN	1072	n/a	n/a	0	n/a	n/a	n/a	n/a	n/a
122601	REC_WORD	wordpools/wasnorm_wordpool.txt	LTP147	ltpFR	19	1	0	TABLET	1427	n/a	n/a	0	n/a	n/a	n/a	n/a	n/a
126172	REC_WORD	wordpools/wasnorm_wordpool.txt	LTP147	ltpFR	19	1	1	TYPIST	1532	n/a	n/a	0	n/a	n/a	n/a	n/a	n/a
128357	REC_WORD	wordpools/wasnorm_wordpool.txt	LTP147	ltpFR	19	1	1	ROCK	1201	n/a	n/a	0	n/a	n/a	n/a	n/a	n/a
130383	REC_WORD	wordpools/wasnorm_wordpool.txt	LTP147	ltpFR	19	1	1	BRIEFCASE	175	n/a	n/a	0	n/a	n/a	n/a	n/a	n/a
139362	REC_WORD	wordpools/wasnorm_wordpool.txt	LTP147	ltpFR	19	1	0	TERMITE	1451	n/a	n/a	0	n/a	n/a	n/a	n/a	n/a
142670	REC_WORD	wordpools/wasnorm_wordpool.txt	LTP147	ltpFR	19	1	0	NEPTUNE	943	n/a	n/a	1	n/a	n/a	n/a	n/a	n/a
153904	REC_WORD	wordpools/wasnorm_wordpool.txt	LTP147	ltpFR	19	1	n/a	TYPEWRITER	1531	n/a	n/a	n/a	n/a	n/a	n/a	n/a	n/a
169210	REC_WORD	wordpools/wasnorm_wordpool.txt	LTP147	ltpFR	19	1	0	COUSIN	392	n/a	n/a	1	n/a	n/a	n/a	n/a	n/a
190068	WORD	wordpools/wasnorm_wordpool.txt	LTP147	ltpFR	19	2	1	DEER	444	n/a	n/a	1	0.422607421875	0.5869140625	0	upper	zerothre.ttf
194041	WORD	wordpools/wasnorm_wordpool.txt	LTP147	ltpFR	19	2	1	TORTOISE	1486	n/a	n/a	1	0.422607421875	0.5869140625	0	upper	zerothre.ttf
198115	WORD	wordpools/wasnorm_wordpool.txt	LTP147	ltpFR	19	2	1	SCENERY	1247	n/a	n/a	0	0.422607421875	0.5869140625	0	upper	zerothre.ttf
201971	WORD	wordpools/wasnorm_wordpool.txt	LTP147	ltpFR	19	2	1	COFFIN	342	n/a	n/a	0	0.422607421875	0.5869140625	0	upper	zerothre.ttf
206087	WORD	wordpools/wasnorm_wordpool.txt	LTP147	ltpFR	19	2	1	PORPOISE	1109	n/a	n/a	1	0.422607421875	0.5869140625	0	upper	zerothre.ttf
209918	WORD	wordpools/wasnorm_wordpool.txt	LTP147	ltpFR	19	2	1	MEAL	882	n/a	n/a	1	0.422607421875	0.5869140625	0	upper	zerothre.ttf
214034	WORD	wordpools/wasnorm_wordpool.txt	LTP147	ltpFR	19	2	0	LANDSCAPE	799	n/a	n/a	1	0.57763671875	0.412841796875	1	lower	amplitud.ttf
217849	WORD	wordpools/wasnorm_wordpool.txt	LTP147	ltpFR	19	2	0	CARTON	251	n/a	n/a	0	0.57763671875	0.412841796875	1	lower	amplitud.ttf
221914	WORD	wordpools/wasnorm_wordpool.txt	LTP147	ltpFR	19	2	0	COW	393	n/a	n/a	1	0.57763671875	0.412841796875	1	lower	amplitud.ttf
226105	WORD	wordpools/wasnorm_wordpool.txt	LTP147	ltpFR	19	2	0	FREEZER	604	n/a	n/a	1	0.57763671875	0.412841796875	1	lower	amplitud.ttf
230062	WORD	wordpools/wasnorm_wordpool.txt	LTP147	ltpFR	19	2	0	CHICK	296	n/a	n/a	0	0.57763671875	0.412841796875	1	lower	amplitud.ttf
234077	WORD	wordpools/wasnorm_wordpool.txt	LTP147	ltpFR	19	2	1	YOLK	1633	n/a	n/a	0	0.422607421875	0.5869140625	0	upper	zerothre.ttf
238184	WORD	wordpools/wasnorm_wordpool.txt	LTP147	ltpFR	19	2	1	PEANUT	1032	n/a	n/a	0	0.422607421875	0.5869140625	0	upper	zerothre.ttf
242241	WORD	wordpools/wasnorm_wordpool.txt	LTP147	ltpFR	19	2	0	ACORN	3	n/a	n/a	0	0.57763671875	0.412841796875	1	lower	amplitud.ttf
246214	WORD	wordpools/wasnorm_wordpool.txt	LTP147	ltpFR	19	2	0	COOLER	375	n/a	n/a	1	0.57763671875	0.412841796875	1	lower	amplitud.ttf
250113	WORD	wordpools/wasnorm_wordpool.txt	LTP147	ltpFR	19	2	0	COOKBOOK	373	n/a	n/a	1	0.57763671875	0.412841796875	1	lower	amplitud.ttf
256120	REC_START	n/a	LTP147	ltpFR	19	2	n/a	n/a	n/a	n/a	n/a	n/a	n/a	n/a	n/a	n/a	n/a
256813	REC_WORD	wordpools/wasnorm_wordpool.txt	LTP147	ltpFR	19	2	0	COOKBOOK	373	n/a	n/a	1	n/a	n/a	n/a	n/a	n/a
257422	REC_WORD	wordpools/wasnorm_wordpool.txt	LTP147	ltpFR	19	2	0	FREEZER	604	n/a	n/a	1	n/a	n/a	n/a	n/a	n/a
258235	REC_WORD	wordpools/wasnorm_wordpool.txt	LTP147	ltpFR	19	2	0	COOLER	375	n/a	n/a	1	n/a	n/a	n/a	n/a	n/a
258953	REC_WORD	wordpools/wasnorm_wordpool.txt	LTP147	ltpFR	19	2	1	PEANUT	1032	n/a	n/a	0	n/a	n/a	n/a	n/a	n/a
259826	REC_WORD	wordpools/wasnorm_wordpool.txt	LTP147	ltpFR	19	2	0	ACORN	3	n/a	n/a	0	n/a	n/a	n/a	n/a	n/a
262231	REC_WORD	wordpools/wasnorm_wordpool.txt	LTP147	ltpFR	19	2	1	PORPOISE	1109	n/a	n/a	1	n/a	n/a	n/a	n/a	n/a
263553	REC_WORD	wordpools/wasnorm_wordpool.txt	LTP147	ltpFR	19	2	1	TORTOISE	1486	n/a	n/a	1	n/a	n/a	n/a	n/a	n/a
264601	REC_WORD	wordpools/wasnorm_wordpool.txt	LTP147	ltpFR	19	2	1	DEER	444	n/a	n/a	1	n/a	n/a	n/a	n/a	n/a
265379	REC_WORD	wordpools/wasnorm_wordpool.txt	LTP147	ltpFR	19	2	1	COFFIN	342	n/a	n/a	0	n/a	n/a	n/a	n/a	n/a
266147	REC_WORD	wordpools/wasnorm_wordpool.txt	LTP147	ltpFR	19	2	1	SCENERY	1247	n/a	n/a	0	n/a	n/a	n/a	n/a	n/a
267314	REC_WORD	wordpools/wasnorm_wordpool.txt	LTP147	ltpFR	19	2	1	MEAL	882	n/a	n/a	1	n/a	n/a	n/a	n/a	n/a
269843	REC_WORD	wordpools/wasnorm_wordpool.txt	LTP147	ltpFR	19	2	0	LANDSCAPE	799	n/a	n/a	1	n/a	n/a	n/a	n/a	n/a
270843	REC_WORD_VV	wordpools/wasnorm_wordpool.txt	LTP147	ltpFR	19	2	n/a	<>	-1	n/a	n/a	n/a	n/a	n/a	n/a	n/a	n/a
271774	REC_WORD	wordpools/wasnorm_wordpool.txt	LTP147	ltpFR	19	2	0	CARTON	251	n/a	n/a	0	n/a	n/a	n/a	n/a	n/a
273121	REC_WORD	wordpools/wasnorm_wordpool.txt	LTP147	ltpFR	19	2	0	CHICK	296	n/a	n/a	0	n/a	n/a	n/a	n/a	n/a
273929	REC_WORD	wordpools/wasnorm_wordpool.txt	LTP147	ltpFR	19	2	1	YOLK	1633	n/a	n/a	0	n/a	n/a	n/a	n/a	n/a
275271	REC_WORD	wordpools/wasnorm_wordpool.txt	LTP147	ltpFR	19	2	0	COW	393	n/a	n/a	1	n/a	n/a	n/a	n/a	n/a
277740	REC_WORD	wordpools/wasnorm_wordpool.txt	LTP147	ltpFR	19	2	0	FREEZER	604	n/a	n/a	1	n/a	n/a	n/a	n/a	n/a
280185	REC_WORD	wordpools/wasnorm_wordpool.txt	LTP147	ltpFR	19	2	0	COOKBOOK	373	n/a	n/a	1	n/a	n/a	n/a	n/a	n/a
302639	REC_WORD	wordpools/wasnorm_wordpool.txt	LTP147	ltpFR	19	2	0	DANDELION	438	n/a	n/a	0	n/a	n/a	n/a	n/a	n/a
333866	WORD	wordpools/wasnorm_wordpool.txt	LTP147	ltpFR	19	3	0	ORANGE	980	n/a	n/a	1	0.57763671875	0.412841796875	1	lower	amplitud.ttf
337990	WORD	wordpools/wasnorm_wordpool.txt	LTP147	ltpFR	19	3	0	MEDICINE	886	n/a	n/a	0	0.57763671875	0.412841796875	1	lower	amplitud.ttf
341813	WORD	wordpools/wasnorm_wordpool.txt	LTP147	ltpFR	19	3	0	OINTMENT	974	n/a	n/a	0	0.57763671875	0.412841796875	1	lower	amplitud.ttf
345778	WORD	wordpools/wasnorm_wordpool.txt	LTP147	ltpFR	19	3	0	NOOSE	956	n/a	n/a	0	0.57763671875	0.412841796875	1	lower	amplitud.ttf
349768	WORD	wordpools/wasnorm_wordpool.txt	LTP147	ltpFR	19	3	0	TOMB	1477	n/a	n/a	1	0.57763671875	0.412841796875	1	lower	amplitud.ttf
353842	WORD	wordpools/wasnorm_wordpool.txt	LTP147	ltpFR	19	3	0	BOUILLON	154	n/a	n/a	0	0.57763671875	0.412841796875	1	lower	amplitud.ttf
358050	WORD	wordpools/wasnorm_wordpool.txt	LTP147	ltpFR	19	3	0	HAMMER	680	n/a	n/a	0	0.57763671875	0.412841796875	1	lower	amplitud.ttf
361972	WORD	wordpools/wasnorm_wordpool.txt	LTP147	ltpFR	19	3	0	MOOSE	915	n/a	n/a	1	0.57763671875	0.412841796875	1	lower	amplitud.ttf
366155	WORD	wordpools/wasnorm_wordpool.txt	LTP147	ltpFR	19	3	0	CHERRY	293	n/a	n/a	0	0.57763671875	0.412841796875	1	lower	amplitud.ttf
370212	WORD	wordpools/wasnorm_wordpool.txt	LTP147	ltpFR	19	3	0	EMPIRE	530	n/a	n/a	1	0.57763671875	0.412841796875	1	lower	amplitud.ttf
374219	WORD	wordpools/wasnorm_wordpool.txt	LTP147	ltpFR	19	3	0	OAR	966	n/a	n/a	1	0.57763671875	0.412841796875	1	lower	amplitud.ttf
378301	WORD	wordpools/wasnorm_wordpool.txt	LTP147	ltpFR	19	3	0	YACHT	1629	n/a	n/a	1	0.57763671875	0.412841796875	1	lower	amplitud.ttf
382374	WORD	wordpools/wasnorm_wordpool.txt	LTP147	ltpFR	19	3	0	COLOGNE	347	n/a	n/a	0	0.57763671875	0.412841796875	1	lower	amplitud.ttf
386398	WORD	wordpools/wasnorm_wordpool.txt	LTP147	ltpFR	19	3	0	TOASTER	1472	n/a	n/a	0	0.57763671875	0.412841796875	1	lower	amplitud.ttf
390230	WORD	wordpools/wasnorm_wordpool.txt	LTP147	ltpFR	19	3	0	MARGARINE	868	n/a	n/a	0	0.57763671875	0.412841796875	1	lower	amplitud.ttf
394170	WORD	wordpools/wasnorm_wordpool.txt	LTP147	ltpFR	19	3	0	ELK	526	n/a	n/a	1	0.57763671875	0.412841796875	1	lower	amplitud.ttf
399776	REC_START	n/a	LTP147	ltpFR	19	3	n/a	n/a	n/a	n/a	n/a	n/a	n/a	n/a	n/a	n/a	n/a
400988	REC_WORD	wordpools/wasnorm_wordpool.txt	LTP147	ltpFR	19	3	0	ELK	526	n/a	n/a	1	n/a	n/a	n/a	n/a	n/a
401522	REC_WORD	wordpools/wasnorm_wordpool.txt	LTP147	ltpFR	19	3	0	MOOSE	915	n/a	n/a	1	n/a	n/a	n/a	n/a	n/a
402485	REC_WORD	wordpools/wasnorm_wordpool.txt	LTP147	ltpFR	19	3	0	ORANGE	980	n/a	n/a	1	n/a	n/a	n/a	n/a	n/a
403163	REC_WORD	wordpools/wasnorm_wordpool.txt	LTP147	ltpFR	19	3	0	MEDICINE	886	n/a	n/a	0	n/a	n/a	n/a	n/a	n/a
404794	REC_WORD	wordpools/wasnorm_wordpool.txt	LTP147	ltpFR	19	3	0	OINTMENT	974	n/a	n/a	0	n/a	n/a	n/a	n/a	n/a
405543	REC_WORD	wordpools/wasnorm_wordpool.txt	LTP147	ltpFR	19	3	0	CHERRY	293	n/a	n/a	0	n/a	n/a	n/a	n/a	n/a
406346	REC_WORD	wordpools/wasnorm_wordpool.txt	LTP147	ltpFR	19	3	0	EMPIRE	530	n/a	n/a	1	n/a	n/a	n/a	n/a	n/a
407102	REC_WORD	wordpools/wasnorm_wordpool.txt	LTP147	ltpFR	19	3	0	YACHT	1629	n/a	n/a	1	n/a	n/a	n/a	n/a	n/a
408007	REC_WORD	wordpools/wasnorm_wordpool.txt	LTP147	ltpFR	19	3	0	OAR	966	n/a	n/a	1	n/a	n/a	n/a	n/a	n/a
415066	REC_WORD	wordpools/wasnorm_wordpool.txt	LTP147	ltpFR	19	3	0	NOOSE	956	n/a	n/a	0	n/a	n/a	n/a	n/a	n/a
416149	REC_WORD	wordpools/wasnorm_wordpool.txt	LTP147	ltpFR	19	3	0	TOMB	1477	n/a	n/a	1	n/a	n/a	n/a	n/a	n/a
427513	REC_WORD	wordpools/wasnorm_wordpool.txt	LTP147	ltpFR	19	3	0	EMPIRE	530	n/a	n/a	1	n/a	n/a	n/a	n/a	n/a
432392	REC_WORD	wordpools/wasnorm_wordpool.txt	LTP147	ltpFR	19	3	0	BOUILLON	154	n/a	n/a	0	n/a	n/a	n/a	n/a	n/a
477698	WORD	wordpools/wasnorm_wordpool.txt	LTP147	ltpFR	19	4	1	TAG	1429	n/a	n/a	0	0.422607421875	0.5869140625	0	upper	zerothre.ttf
481880	WORD	wordpools/wasnorm_wordpool.txt	LTP147	ltpFR	19	4	1	CABBAGE	210	n/a	n/a	1	0.422607421875	0.5869140625	0	upper	zerothre.ttf
485895	WORD	wordpools/wasnorm_wordpool.txt	LTP147	ltpFR	19	4	1	SWAMP	1416	n/a	n/a	0	0.422607421875	0.5869140625	0	upper	zerothre.ttf
490103	WORD	wordpools/wasnorm_wordpool.txt	LTP147	ltpFR	19	4	1	OX	994	n/a	n/a	1	0.422607421875	0.5869140625	0	upper	zerothre.ttf
493993	WORD	wordpools/wasnorm_wordpool.txt	LTP147	ltpFR	19	4	0	UNICORN	1538	n/a	n/a	1	0.57763671875	0.412841796875	1	lower	amplitud.ttf
498075	WORD	wordpools/wasnorm_wordpool.txt	LTP147	ltpFR	19	4	0	FAUCET	555	n/a	n/a	1	0.57763671875	0.412841796875	1	lower	amplitud.ttf
502065	WORD	wordpools/wasnorm_wordpool.txt	LTP147	ltpFR	19	4	0	PUBLISHER	1137	n/a	n/a	0	0.57763671875	0.412841796875	1	lower	amplitud.ttf
506197	WORD	wordpools/wasnorm_wordpool.txt	LTP147	ltpFR	19	4	0	ALMANAC	17	n/a	n/a	1	0.57763671875	0.412841796875	1	lower	amplitud.ttf
510362	WORD	wordpools/wasnorm_wordpool.txt	LTP147	ltpFR	19	4	0	OCEAN	970	n/a	n/a	1	0.57763671875	0.412841796875	1	lower	amplitud.ttf
514394	WORD	wordpools/wasnorm_wordpool.txt	LTP147	ltpFR	19	4	1	SUBMARINE	1398	n/a	n/a	0	0.422607421875	0.5869140625	0	upper	zerothre.ttf
518368	WORD	wordpools/wasnorm_wordpool.txt	LTP147	ltpFR	19	4	1	SOFTBALL	1343	n/a	n/a	0	0.422607421875	0.5869140625	0	upper	zerothre.ttf
522558	WORD	wordpools/wasnorm_wordpool.txt	LTP147	ltpFR	19	4	1	VISITOR	1573	n/a	n/a	0	0.422607421875	0.5869140625	0	upper	zerothre.ttf
526515	WORD	wordpools/wasnorm_wordpool.txt	LTP147	ltpFR	19	4	1	TIDE	1465	n/a	n/a	1	0.422607421875	0.5869140625	0	upper	zerothre.ttf
530463	WORD	wordpools/wasnorm_wordpool.txt	LTP147	ltpFR	19	4	0	JOURNAL	760	n/a	n/a	0	0.57763671875	0.412841796875	1	lower	amplitud.ttf
534653	WORD	wordpools/wasnorm_wordpool.txt	LTP147	ltpFR	19	4	0	ADOLESCENT	7	n/a	n/a	1	0.57763671875	0.412841796875	1	lower	amplitud.ttf
538502	WORD	wordpools/wasnorm_wordpool.txt	LTP147	ltpFR	19	4	0	TURNIP	1521	n/a	n/a	0	0.57763671875	0.412841796875	1	lower	amplitud.ttf
544201	REC_START	n/a	LTP147	ltpFR	19	4	n/a	n/a	n/a	n/a	n/a	n/a	n/a	n/a	n/a	n/a	n/a
545109	REC_WORD	wordpools/wasnorm_wordpool.txt	LTP147	ltpFR	19	4	0	TURNIP	1521	n/a	n/a	0	n/a	n/a	n/a	n/a	n/a
545777	REC_WORD	wordpools/wasnorm_wordpool.txt	LTP147	ltpFR	19	4	1	CABBAGE	210	n/a	n/a	1	n/a	n/a	n/a	n/a	n/a
546960	REC_WORD	wordpools/wasnorm_wordpool.txt	LTP147	ltpFR	19	4	1	TAG	1429	n/a	n/a	0	n/a	n/a	n/a	n/a	n/a
547613	REC_WORD	wordpools/wasnorm_wordpool.txt	LTP147	ltpFR	19	4	1	SWAMP	1416	n/a	n/a	0	n/a	n/a	n/a	n/a	n/a
549239	REC_WORD	wordpools/wasnorm_wordpool.txt	LTP147	ltpFR	19	4	1	OX	994	n/a	n/a	1	n/a	n/a	n/a	n/a	n/a
550018	REC_WORD	wordpools/wasnorm_wordpool.txt	LTP147	ltpFR	19	4	0	UNICORN	1538	n/a	n/a	1	n/a	n/a	n/a	n/a	n/a
551018	REC_WORD_VV	wordpools/wasnorm_wordpool.txt	LTP147	ltpFR	19	4	n/a	<>	-1	n/a	n/a	n/a	n/a	n/a	n/a	n/a	n/a
551325	REC_WORD	wordpools/wasnorm_wordpool.txt	LTP147	ltpFR	19	4	0	FAUCET	555	n/a	n/a	1	n/a	n/a	n/a	n/a	n/a
553959	REC_WORD	wordpools/wasnorm_wordpool.txt	LTP147	ltpFR	19	4	0	OCEAN	970	n/a	n/a	1	n/a	n/a	n/a	n/a	n/a
554522	REC_WORD	wordpools/wasnorm_wordpool.txt	LTP147	ltpFR	19	4	1	TIDE	1465	n/a	n/a	1	n/a	n/a	n/a	n/a	n/a
555266	REC_WORD	wordpools/wasnorm_wordpool.txt	LTP147	ltpFR	19	4	1	SUBMARINE	1398	n/a	n/a	0	n/a	n/a	n/a	n/a	n/a
556458	REC_WORD	wordpools/wasnorm_wordpool.txt	LTP147	ltpFR	19	4	0	ADOLESCENT	7	n/a	n/a	1	n/a	n/a	n/a	n/a	n/a
557456	REC_WORD_VV	wordpools/wasnorm_wordpool.txt	LTP147	ltpFR	19	4	n/a	<>	-1	n/a	n/a	n/a	n/a	n/a	n/a	n/a	n/a
558029	REC_WORD	wordpools/wasnorm_wordpool.txt	LTP147	ltpFR	19	4	0	JOURNAL	760	n/a	n/a	0	n/a	n/a	n/a	n/a	n/a
558653	REC_WORD	wordpools/wasnorm_wordpool.txt	LTP147	ltpFR	19	4	1	SOFTBALL	1343	n/a	n/a	0	n/a	n/a	n/a	n/a	n/a
560060	REC_WORD	wordpools/wasnorm_wordpool.txt	LTP147	ltpFR	19	4	1	VISITOR	1573	n/a	n/a	0	n/a	n/a	n/a	n/a	n/a
562774	REC_WORD	wordpools/wasnorm_wordpool.txt	LTP147	ltpFR	19	4	0	PUBLISHER	1137	n/a	n/a	0	n/a	n/a	n/a	n/a	n/a
564275	REC_WORD	wordpools/wasnorm_wordpool.txt	LTP147	ltpFR	19	4	0	ALMANAC	17	n/a	n/a	1	n/a	n/a	n/a	n/a	n/a
585781	REC_WORD	wordpools/wasnorm_wordpool.txt	LTP147	ltpFR	19	4	1	SUBMARINE	1398	n/a	n/a	0	n/a	n/a	n/a	n/a	n/a
622172	WORD	wordpools/wasnorm_wordpool.txt	LTP147	ltpFR	19	5	1	BOULEVARD	156	n/a	n/a	0	0.422607421875	0.5869140625	0	upper	zerothre.ttf
626338	WORD	wordpools/wasnorm_wordpool.txt	LTP147	ltpFR	19	5	1	CONSOLE	364	n/a	n/a	0	0.422607421875	0.5869140625	0	upper	zerothre.ttf
630528	WORD	wordpools/wasnorm_wordpool.txt	LTP147	ltpFR	19	5	1	CHECK	284	n/a	n/a	0	0.422607421875	0.5869140625	0	upper	zerothre.ttf
634692	WORD	wordpools/wasnorm_wordpool.txt	LTP147	ltpFR	19	5	1	SERVANT	1271	n/a	n/a	1	0.422607421875	0.5869140625	0	upper	zerothre.ttf
638766	WORD	wordpools/wasnorm_wordpool.txt	LTP147	ltpFR	19	5	1	TRUCK	1512	n/a	n/a	0	0.422607421875	0.5869140625	0	upper	zerothre.ttf
642922	WORD	wordpools/wasnorm_wordpool.txt	LTP147	ltpFR	19	5	1	WALL	1582	n/a	n/a	0	0.422607421875	0.5869140625	0	upper	zerothre.ttf
646888	WORD	wordpools/wasnorm_wordpool.txt	LTP147	ltpFR	19	5	1	CASHIER	254	n/a	n/a	1	0.422607421875	0.5869140625	0	upper	zerothre.ttf
650878	WORD	wordpools/wasnorm_wordpool.txt	LTP147	ltpFR	19	5	1	SIGNATURE	1306	n/a	n/a	0	0.422607421875	0.5869140625	0	upper	zerothre.ttf
654701	WORD	wordpools/wasnorm_wordpool.txt	LTP147	ltpFR	19	5	1	PEDESTRIAN	1038	n/a	n/a	1	0.422607421875	0.5869140625	0	upper	zerothre.ttf
658518	WORD	wordpools/wasnorm_wordpool.txt	LTP147	ltpFR	19	5	1	RIVER	1194	n/a	n/a	1	0.422607421875	0.5869140625	0	upper	zerothre.ttf
662516	WORD	wordpools/wasnorm_wordpool.txt	LTP147	ltpFR	19	5	1	PORCH	1106	n/a	n/a	0	0.422607421875	0.5869140625	0	upper	zerothre.ttf
666573	WORD	wordpools/wasnorm_wordpool.txt	LTP147	ltpFR	19	5	1	LASER	801	n/a	n/a	0	0.422607421875	0.5869140625	0	upper	zerothre.ttf
670539	WORD	wordpools/wasnorm_wordpool.txt	LTP147	ltpFR	19	5	1	FATHER	554	n/a	n/a	1	0.422607421875	0.5869140625	0	upper	zerothre.ttf
674736	WORD	wordpools/wasnorm_wordpool.txt	LTP147	ltpFR	19	5	1	VICTOR	1563	n/a	n/a	1	0.422607421875	0.5869140625	0	upper	zerothre.ttf
678943	WORD	wordpools/wasnorm_wordpool.txt	LTP147	ltpFR	19	5	1	CABIN	211	n/a	n/a	0	0.422607421875	0.5869140625	0	upper	zerothre.ttf
682825	WORD	wordpools/wasnorm_wordpool.txt	LTP147	ltpFR	19	5	1	SHELTER	1282	n/a	n/a	0	0.422607421875	0.5869140625	0	upper	zerothre.ttf
688674	REC_START	n/a	LTP147	ltpFR	19	5	n/a	n/a	n/a	n/a	n/a	n/a	n/a	n/a	n/a	n/a	n/a
689642	REC_WORD	wordpools/wasnorm_wordpool.txt	LTP147	ltpFR	19	5	1	SHELTER	1282	n/a	n/a	0	n/a	n/a	n/a	n/a	n/a
690420	REC_WORD	wordpools/wasnorm_wordpool.txt	LTP147	ltpFR	19	5	1	CABIN	211	n/a	n/a	0	n/a	n/a	n/a	n/a	n/a
691328	REC_WORD	wordpools/wasnorm_wordpool.txt	LTP147	ltpFR	19	5	1	VICTOR	1563	n/a	n/a	1	n/a	n/a	n/a	n/a	n/a
692435	REC_WORD	wordpools/wasnorm_wordpool.txt	LTP147	ltpFR	19	5	1	PORCH	1106	n/a	n/a	0	n/a	n/a	n/a	n/a	n/a
693777	REC_WORD	wordpools/wasnorm_wordpool.txt	LTP147	ltpFR	19	5	1	RIVER	1194	n/a	n/a	1	n/a	n/a	n/a	n/a	n/a
699045	REC_WORD	wordpools/wasnorm_wordpool.txt	LTP147	ltpFR	19	5	1	TRUCK	1512	n/a	n/a	0	n/a	n/a	n/a	n/a	n/a
700871	REC_WORD	wordpools/wasnorm_wordpool.txt	LTP147	ltpFR	19	5	1	CASHIER	254	n/a	n/a	1	n/a	n/a	n/a	n/a	n/a
702772	REC_WORD	wordpools/wasnorm_wordpool.txt	LTP147	ltpFR	19	5	1	PEDESTRIAN	1038	n/a	n/a	1	n/a	n/a	n/a	n/a	n/a
703772	REC_WORD_VV	wordpools/wasnorm_wordpool.txt	LTP147	ltpFR	19	5	n/a	<>	-1	n/a	n/a	n/a	n/a	n/a	n/a	n/a	n/a
703964	REC_WORD	wordpools/wasnorm_wordpool.txt	LTP147	ltpFR	19	5	1	SIGNATURE	1306	n/a	n/a	0	n/a	n/a	n/a	n/a	n/a
707491	REC_WORD	wordpools/wasnorm_wordpool.txt	LTP147	ltpFR	19	5	1	CONSOLE	364	n/a	n/a	0	n/a	n/a	n/a	n/a	n/a
708688	REC_WORD	wordpools/wasnorm_wordpool.txt	LTP147	ltpFR	19	5	1	BOULEVARD	156	n/a	n/a	0	n/a	n/a	n/a	n/a	n/a
711512	REC_WORD	wordpools/wasnorm_wordpool.txt	LTP147	ltpFR	19	5	1	SERVANT	1271	n/a	n/a	1	n/a	n/a	n/a	n/a	n/a
712959	REC_WORD	wordpools/wasnorm_wordpool.txt	LTP147	ltpFR	19	5	1	CHECK	284	n/a	n/a	0	n/a	n/a	n/a	n/a	n/a
716416	REC_WORD	wordpools/wasnorm_wordpool.txt	LTP147	ltpFR	19	5	1	WALL	1582	n/a	n/a	0	n/a	n/a	n/a	n/a	n/a
719279	REC_WORD	wordpools/wasnorm_wordpool.txt	LTP147	ltpFR	19	5	1	TRUCK	1512	n/a	n/a	0	n/a	n/a	n/a	n/a	n/a
766970	WORD	wordpools/wasnorm_wordpool.txt	LTP147	ltpFR	19	6	0	VIDEO	1564	n/a	n/a	0	0.57763671875	0.412841796875	1	lower	amplitud.ttf
770785	WORD	wordpools/wasnorm_wordpool.txt	LTP147	ltpFR	19	6	0	STEWARDESS	1381	n/a	n/a	1	0.57763671875	0.412841796875	1	lower	amplitud.ttf
774809	WORD	wordpools/wasnorm_wordpool.txt	LTP147	ltpFR	19	6	0	GRATE	657	n/a	n/a	0	0.57763671875	0.412841796875	1	lower	amplitud.ttf
778724	WORD	wordpools/wasnorm_wordpool.txt	LTP147	ltpFR	19	6	0	FOREST	593	n/a	n/a	1	0.57763671875	0.412841796875	1	lower	amplitud.ttf
782739	WORD	wordpools/wasnorm_wordpool.txt	LTP147	ltpFR	19	6	0	NAPKIN	937	n/a	n/a	0	0.57763671875	0.412841796875	1	lower	amplitud.ttf
786688	WORD	wordpools/wasnorm_wordpool.txt	LTP147	ltpFR	19	6	0	MUG	930	n/a	n/a	0	0.57763671875	0.412841796875	1	lower	amplitud.ttf
790720	WORD	wordpools/wasnorm_wordpool.txt	LTP147	ltpFR	19	6	0	ROOT	1210	n/a	n/a	0	0.57763671875	0.412841796875	1	lower	amplitud.ttf
794885	WORD	wordpools/wasnorm_wordpool.txt	LTP147	ltpFR	19	6	0	BIKE	125	n/a	n/a	1	0.57763671875	0.412841796875	1	lower	amplitud.ttf
798709	WORD	wordpools/wasnorm_wordpool.txt	LTP147	ltpFR	19	6	0	SPRINKLE	1359	n/a	n/a	0	0.57763671875	0.412841796875	1	lower	amplitud.ttf
802741	WORD	wordpools/wasnorm_wordpool.txt	LTP147	ltpFR	19	6	0	DINER	467	n/a	n/a	0	0.57763671875	0.412841796875	1	lower	amplitud.ttf
806640	WORD	wordpools/wasnorm_wordpool.txt	LTP147	ltpFR	19	6	0	CAFETERIA	217	n/a	n/a	1	0.57763671875	0.412841796875	1	lower	amplitud.ttf
810763	WORD	wordpools/wasnorm_wordpool.txt	LTP147	ltpFR	19	6	0	RUNNER	1218	n/a	n/a	1	0.57763671875	0.412841796875	1	lower	amplitud.ttf
814961	WORD	wordpools/wasnorm_wordpool.txt	LTP147	ltpFR	19	6	0	CHIME	300	n/a	n/a	0	0.57763671875	0.412841796875	1	lower	amplitud.ttf
819019	WORD	wordpools/wasnorm_wordpool.txt	LTP147	ltpFR	19	6	0	JEWEL	757	n/a	n/a	0	0.57763671875	0.412841796875	1	lower	amplitud.ttf
822917	WORD	wordpools/wasnorm_wordpool.txt	LTP147	ltpFR	19	6	0	WHEEL	1603	n/a	n/a	0	0.57763671875	0.412841796875	1	lower	amplitud.ttf
826799	WORD	wordpools/wasnorm_wordpool.txt	LTP147	ltpFR	19	6	0	HAM	678	n/a	n/a	0	0.57763671875	0.412841796875	1	lower	amplitud.ttf
832623	REC_START	n/a	LTP147	ltpFR	19	6	n/a	n/a	n/a	n/a	n/a	n/a	n/a	n/a	n/a	n/a	n/a
833291	REC_WORD	wordpools/wasnorm_wordpool.txt	LTP147	ltpFR	19	6	0	HAM	678	n/a	n/a	0	n/a	n/a	n/a	n/a	n/a
834114	REC_WORD	wordpools/wasnorm_wordpool.txt	LTP147	ltpFR	19	6	0	JEWEL	757	n/a	n/a	0	n/a	n/a	n/a	n/a	n/a
834933	REC_WORD	wordpools/wasnorm_wordpool.txt	LTP147	ltpFR	19	6	n/a	VEAL	1551	n/a	n/a	n/a	n/a	n/a	n/a	n/a	n/a
837511	REC_WORD	wordpools/wasnorm_wordpool.txt	LTP147	ltpFR	19	6	0	SPRINKLE	1359	n/a	n/a	0	n/a	n/a	n/a	n/a	n/a
838450	REC_WORD	wordpools/wasnorm_wordpool.txt	LTP147	ltpFR	19	6	0	BIKE	125	n/a	n/a	1	n/a	n/a	n/a	n/a	n/a
839891	REC_WORD	wordpools/wasnorm_wordpool.txt	LTP147	ltpFR	19	6	0	VIDEO	1564	n/a	n/a	0	n/a	n/a	n/a	n/a	n/a
840884	REC_WORD	wordpools/wasnorm_wordpool.txt	LTP147	ltpFR	19	6	0	STEWARDESS	1381	n/a	n/a	1	n/a	n/a	n/a	n/a	n/a
841884	REC_WORD_VV	wordpools/wasnorm_wordpool.txt	LTP147	ltpFR	19	6	n/a	<>	-1	n/a	n/a	n/a	n/a	n/a	n/a	n/a	n/a
844561	REC_WORD	wordpools/wasnorm_wordpool.txt	LTP147	ltpFR	19	6	0	GRATE	657	n/a	n/a	0	n/a	n/a	n/a	n/a	n/a
845376	REC_WORD	wordpools/wasnorm_wordpool.txt	LTP147	ltpFR	19	6	0	FOREST	593	n/a	n/a	1	n/a	n/a	n/a	n/a	n/a
847933	REC_WORD	wordpools/wasnorm_wordpool.txt	LTP147	ltpFR	19	6	0	MUG	930	n/a	n/a	0	n/a	n/a	n/a	n/a	n/a
849789	REC_WORD	wordpools/wasnorm_wordpool.txt	LTP147	ltpFR	19	6	0	NAPKIN	937	n/a	n/a	0	n/a	n/a	n/a	n/a	n/a
851500	REC_WORD	wordpools/wasnorm_wordpool.txt	LTP147	ltpFR	19	6	0	ROOT	1210	n/a	n/a	0	n/a	n/a	n/a	n/a	n/a
863308	REC_WORD	wordpools/wasnorm_wordpool.txt	LTP147	ltpFR	19	6	n/a	BICYCLE	-1	n/a	n/a	n/a	n/a	n/a	n/a	n/a	n/a
876014	REC_WORD	wordpools/wasnorm_wordpool.txt	LTP147	ltpFR	19	6	0	RUNNER	1218	n/a	n/a	1	n/a	n/a	n/a	n/a	n/a
883567	REC_WORD	wordpools/wasnorm_wordpool.txt	LTP147	ltpFR	19	6	1	CABIN	211	n/a	n/a	0	n/a	n/a	n/a	n/a	n/a
910819	WORD	wordpools/wasnorm_wordpool.txt	LTP147	ltpFR	19	7	1	BIBLE	124	n/a	n/a	0	0.422607421875	0.5869140625	0	upper	zerothre.ttf
914993	WORD	wordpools/wasnorm_wordpool.txt	LTP147	ltpFR	19	7	1	HUMAN	726	n/a	n/a	1	0.422607421875	0.5869140625	0	upper	zerothre.ttf
919100	WORD	wordpools/wasnorm_wordpool.txt	LTP147	ltpFR	19	7	1	PERSON	1052	n/a	n/a	1	0.422607421875	0.5869140625	0	upper	zerothre.ttf
922973	WORD	wordpools/wasnorm_wordpool.txt	LTP147	ltpFR	19	7	1	FOE	587	n/a	n/a	1	0.422607421875	0.5869140625	0	upper	zerothre.ttf
927081	WORD	wordpools/wasnorm_wordpool.txt	LTP147	ltpFR	19	7	1	DICTIONARY	463	n/a	n/a	0	0.422607421875	0.5869140625	0	upper	zerothre.ttf
931129	WORD	wordpools/wasnorm_wordpool.txt	LTP147	ltpFR	19	7	1	SAXOPHONE	1240	n/a	n/a	0	0.422607421875	0.5869140625	0	upper	zerothre.ttf
935319	WORD	wordpools/wasnorm_wordpool.txt	LTP147	ltpFR	19	7	1	ICE	730	n/a	n/a	0	0.422607421875	0.5869140625	0	upper	zerothre.ttf
939293	WORD	wordpools/wasnorm_wordpool.txt	LTP147	ltpFR	19	7	1	CARRIAGE	248	n/a	n/a	0	0.422607421875	0.5869140625	0	upper	zerothre.ttf
943358	WORD	wordpools/wasnorm_wordpool.txt	LTP147	ltpFR	19	7	1	STEREO	1378	n/a	n/a	0	0.422607421875	0.5869140625	0	upper	zerothre.ttf
947540	WORD	wordpools/wasnorm_wordpool.txt	LTP147	ltpFR	19	7	1	GYMNAST	675	n/a	n/a	1	0.422607421875	0.5869140625	0	upper	zerothre.ttf
951397	WORD	wordpools/wasnorm_wordpool.txt	LTP147	ltpFR	19	7	1	FOOTBALL	591	n/a	n/a	0	0.422607421875	0.5869140625	0	upper	zerothre.ttf
955579	WORD	wordpools/wasnorm_wordpool.txt	LTP147	ltpFR	19	7	1	POOL	1103	n/a	n/a	0	0.422607421875	0.5869140625	0	upper	zerothre.ttf
959710	WORD	wordpools/wasnorm_wordpool.txt	LTP147	ltpFR	19	7	1	VENUS	1557	n/a	n/a	1	0.422607421875	0.5869140625	0	upper	zerothre.ttf
963733	WORD	wordpools/wasnorm_wordpool.txt	LTP147	ltpFR	19	7	1	CART	250	n/a	n/a	0	0.422607421875	0.5869140625	0	upper	zerothre.ttf
967658	WORD	wordpools/wasnorm_wordpool.txt	LTP147	ltpFR	19	7	1	BAKER	71	n/a	n/a	1	0.422607421875	0.5869140625	0	upper	zerothre.ttf
971814	WORD	wordpools/wasnorm_wordpool.txt	LTP147	ltpFR	19	7	1	OVEN	991	n/a	n/a	0	0.422607421875	0.5869140625	0	upper	zerothre.ttf
977630	REC_START	n/a	LTP147	ltpFR	19	7	n/a	n/a	n/a	n/a	n/a	n/a	n/a	n/a	n/a	n/a	n/a
979490	REC_WORD	wordpools/wasnorm_wordpool.txt	LTP147	ltpFR	19	7	1	GYMNAST	675	n/a	n/a	1	n/a	n/a	n/a	n/a	n/a
980384	REC_WORD	wordpools/wasnorm_wordpool.txt	LTP147	ltpFR	19	7	1	FOOTBALL	591	n/a	n/a	0	n/a	n/a	n/a	n/a	n/a
981441	REC_WORD	wordpools/wasnorm_wordpool.txt	LTP147	ltpFR	19	7	1	POOL	1103	n/a	n/a	0	n/a	n/a	n/a	n/a	n/a
982918	REC_WORD	wordpools/wasnorm_wordpool.txt	LTP147	ltpFR	19	7	1	VENUS	1557	n/a	n/a	1	n/a	n/a	n/a	n/a	n/a
985138	REC_WORD	wordpools/wasnorm_wordpool.txt	LTP147	ltpFR	19	7	1	OVEN	991	n/a	n/a	0	n/a	n/a	n/a	n/a	n/a
986355	REC_WORD	wordpools/wasnorm_wordpool.txt	LTP147	ltpFR	19	7	1	CART	250	n/a	n/a	0	n/a	n/a	n/a	n/a	n/a
987392	REC_WORD	wordpools/wasnorm_wordpool.txt	LTP147	ltpFR	19	7	1	BAKER	71	n/a	n/a	1	n/a	n/a	n/a	n/a	n/a
992601	REC_WORD	wordpools/wasnorm_wordpool.txt	LTP147	ltpFR	19	7	1	BIBLE	124	n/a	n/a	0	n/a	n/a	n/a	n/a	n/a
993484	REC_WORD	wordpools/wasnorm_wordpool.txt	LTP147	ltpFR	19	7	1	HUMAN	726	n/a	n/a	1	n/a	n/a	n/a	n/a	n/a
994691	REC_WORD	wordpools/wasnorm_wordpool.txt	LTP147	ltpFR	19	7	1	PERSON	1052	n/a	n/a	1	n/a	n/a	n/a	n/a	n/a
997309	REC_WORD	wordpools/wasnorm_wordpool.txt	LTP147	ltpFR	19	7	1	FOE	587	n/a	n/a	1	n/a	n/a	n/a	n/a	n/a
998309	REC_WORD_VV	wordpools/wasnorm_wordpool.txt	LTP147	ltpFR	19	7	n/a	<>	-1	n/a	n/a	n/a	n/a	n/a	n/a	n/a	n/a
998921	REC_WORD	wordpools/wasnorm_wordpool.txt	LTP147	ltpFR	19	7	1	DICTIONARY	463	n/a	n/a	0	n/a	n/a	n/a	n/a	n/a
1006638	REC_WORD	wordpools/wasnorm_wordpool.txt	LTP147	ltpFR	19	7	1	STEREO	1378	n/a	n/a	0	n/a	n/a	n/a	n/a	n/a
1014561	REC_WORD	wordpools/wasnorm_wordpool.txt	LTP147	ltpFR	19	7	1	SWAMP	1416	n/a	n/a	0	n/a	n/a	n/a	n/a	n/a
1055942	WORD	wordpools/wasnorm_wordpool.txt	LTP147	ltpFR	19	8	-1	KIDNEY	776	n/a	n/a	-1	1.0	1.0	1	upper	Verdana.ttf
1059907	WORD	wordpools/wasnorm_wordpool.txt	LTP147	ltpFR	19	8	-1	TAR	1435	n/a	n/a	-1	1.0	1.0	1	upper	Verdana.ttf
1063948	WORD	wordpools/wasnorm_wordpool.txt	LTP147	ltpFR	19	8	-1	CURB	426	n/a	n/a	-1	1.0	1.0	1	upper	Verdana.ttf
1067838	WORD	wordpools/wasnorm_wordpool.txt	LTP147	ltpFR	19	8	-1	ANKLE	24	n/a	n/a	-1	1.0	1.0	1	upper	Verdana.ttf
1071803	WORD	wordpools/wasnorm_wordpool.txt	LTP147	ltpFR	19	8	-1	STEAM	1375	n/a	n/a	-1	1.0	1.0	1	upper	Verdana.ttf
1075793	WORD	wordpools/wasnorm_wordpool.txt	LTP147	ltpFR	19	8	-1	VEAL	1551	n/a	n/a	-1	1.0	1.0	1	upper	Verdana.ttf
1079825	WORD	wordpools/wasnorm_wordpool.txt	LTP147	ltpFR	19	8	-1	TIMBER	1469	n/a	n/a	-1	1.0	1.0	1	upper	Verdana.ttf
1083740	WORD	wordpools/wasnorm_wordpool.txt	LTP147	ltpFR	19	8	-1	GARAGE	621	n/a	n/a	-1	1.0	1.0	1	upper	Verdana.ttf
1087922	WORD	wordpools/wasnorm_wordpool.txt	LTP147	ltpFR	19	8	-1	GUN	673	n/a	n/a	-1	1.0	1.0	1	upper	Verdana.ttf
1091879	WORD	wordpools/wasnorm_wordpool.txt	LTP147	ltpFR	19	8	-1	RACK	1154	n/a	n/a	-1	1.0	1.0	1	upper	Verdana.ttf
1095903	WORD	wordpools/wasnorm_wordpool.txt	LTP147	ltpFR	19	8	-1	SUIT	1402	n/a	n/a	-1	1.0	1.0	1	upper	Verdana.ttf
1099768	WORD	wordpools/wasnorm_wordpool.txt	LTP147	ltpFR	19	8	-1	SCARF	1246	n/a	n/a	-1	1.0	1.0	1	upper	Verdana.ttf
1103867	WORD	wordpools/wasnorm_wordpool.txt	LTP147	ltpFR	19	8	-1	FEAST	556	n/a	n/a	-1	1.0	1.0	1	upper	Verdana.ttf
1107957	WORD	wordpools/wasnorm_wordpool.txt	LTP147	ltpFR	19	8	-1	ELM	527	n/a	n/a	-1	1.0	1.0	1	upper	Verdana.ttf
1111806	WORD	wordpools/wasnorm_wordpool.txt	LTP147	ltpFR	19	8	-1	GANGSTER	620	n/a	n/a	-1	1.0	1.0	1	upper	Verdana.ttf
1115704	WORD	wordpools/wasnorm_wordpool.txt	LTP147	ltpFR	19	8	-1	ORGAN	984	n/a	n/a	-1	1.0	1.0	1	upper	Verdana.ttf
1121304	REC_START	n/a	LTP147	ltpFR	19	8	n/a	n/a	n/a	n/a	n/a	n/a	n/a	n/a	n/a	n/a	n/a
1122072	REC_WORD	wordpools/wasnorm_wordpool.txt	LTP147	ltpFR	19	8	-1	GANGSTER	620	n/a	n/a	-1	n/a	n/a	n/a	n/a	n/a
1122905	REC_WORD	wordpools/wasnorm_wordpool.txt	LTP147	ltpFR	19	8	-1	ORGAN	984	n/a	n/a	-1	n/a	n/a	n/a	n/a	n/a
1123604	REC_WORD	wordpools/wasnorm_wordpool.txt	LTP147	ltpFR	19	8	-1	KIDNEY	776	n/a	n/a	-1	n/a	n/a	n/a	n/a	n/a
1124362	REC_WORD	wordpools/wasnorm_wordpool.txt	LTP147	ltpFR	19	8	-1	CURB	426	n/a	n/a	-1	n/a	n/a	n/a	n/a	n/a
1125629	REC_WORD	wordpools/wasnorm_wordpool.txt	LTP147	ltpFR	19	8	-1	TAR	1435	n/a	n/a	-1	n/a	n/a	n/a	n/a	n/a
1129071	REC_WORD	wordpools/wasnorm_wordpool.txt	LTP147	ltpFR	19	8	-1	GUN	673	n/a	n/a	-1	n/a	n/a	n/a	n/a	n/a
1129519	REC_WORD	wordpools/wasnorm_wordpool.txt	LTP147	ltpFR	19	8	-1	RACK	1154	n/a	n/a	-1	n/a	n/a	n/a	n/a	n/a
1130382	REC_WORD	wordpools/wasnorm_wordpool.txt	LTP147	ltpFR	19	8	-1	GARAGE	621	n/a	n/a	-1	n/a	n/a	n/a	n/a	n/a
1131221	REC_WORD	wordpools/wasnorm_wordpool.txt	LTP147	ltpFR	19	8	-1	SUIT	1402	n/a	n/a	-1	n/a	n/a	n/a	n/a	n/a
1131975	REC_WORD	wordpools/wasnorm_wordpool.txt	LTP147	ltpFR	19	8	-1	SCARF	1246	n/a	n/a	-1	n/a	n/a	n/a	n/a	n/a
1135082	REC_WORD	wordpools/wasnorm_wordpool.txt	LTP147	ltpFR	19	8	-1	VEAL	1551	n/a	n/a	-1	n/a	n/a	n/a	n/a	n/a
1136075	REC_WORD	wordpools/wasnorm_wordpool.txt	LTP147	ltpFR	19	8	-1	FEAST	556	n/a	n/a	-1	n/a	n/a	n/a	n/a	n/a
1139592	REC_WORD	wordpools/wasnorm_wordpool.txt	LTP147	ltpFR	19	8	-1	ELM	527	n/a	n/a	-1	n/a	n/a	n/a	n/a	n/a
1160305	REC_WORD	wordpools/wasnorm_wordpool.txt	LTP147	ltpFR	19	8	-1	ANKLE	24	n/a	n/a	-1	n/a	n/a	n/a	n/a	n/a
1199667	WORD	wordpools/wasnorm_wordpool.txt	LTP147	ltpFR	19	9	-1	DART	440	n/a	n/a	-1	1.0	1.0	1	upper	Verdana.ttf
1203739	WORD	wordpools/wasnorm_wordpool.txt	LTP147	ltpFR	19	9	-1	SCALE	1241	n/a	n/a	-1	1.0	1.0	1	upper	Verdana.ttf
1207606	WORD	wordpools/wasnorm_wordpool.txt	LTP147	ltpFR	19	9	-1	DORM	488	n/a	n/a	-1	1.0	1.0	1	upper	Verdana.ttf
1211513	WORD	wordpools/wasnorm_wordpool.txt	LTP147	ltpFR	19	9	-1	CASH	252	n/a	n/a	-1	1.0	1.0	1	upper	Verdana.ttf
1215503	WORD	wordpools/wasnorm_wordpool.txt	LTP147	ltpFR	19	9	-1	FEATHER	557	n/a	n/a	-1	1.0	1.0	1	upper	Verdana.ttf
1219493	WORD	wordpools/wasnorm_wordpool.txt	LTP147	ltpFR	19	9	-1	HOUSE	725	n/a	n/a	-1	1.0	1.0	1	upper	Verdana.ttf
1223467	WORD	wordpools/wasnorm_wordpool.txt	LTP147	ltpFR	19	9	-1	PERSONNEL	1053	n/a	n/a	-1	1.0	1.0	1	upper	Verdana.ttf
1227657	WORD	wordpools/wasnorm_wordpool.txt	LTP147	ltpFR	19	9	-1	OWNER	993	n/a	n/a	-1	1.0	1.0	1	upper	Verdana.ttf
1231497	WORD	wordpools/wasnorm_wordpool.txt	LTP147	ltpFR	19	9	-1	SUPPER	1411	n/a	n/a	-1	1.0	1.0	1	upper	Verdana.ttf
1235496	WORD	wordpools/wasnorm_wordpool.txt	LTP147	ltpFR	19	9	-1	WAITER	1580	n/a	n/a	-1	1.0	1.0	1	upper	Verdana.ttf
1239677	WORD	wordpools/wasnorm_wordpool.txt	LTP147	ltpFR	19	9	-1	WINGS	1614	n/a	n/a	-1	1.0	1.0	1	upper	Verdana.ttf
1243809	WORD	wordpools/wasnorm_wordpool.txt	LTP147	ltpFR	19	9	-1	SKIN	1318	n/a	n/a	-1	1.0	1.0	1	upper	Verdana.ttf
1247874	WORD	wordpools/wasnorm_wordpool.txt	LTP147	ltpFR	19	9	-1	CONCRETE	361	n/a	n/a	-1	1.0	1.0	1	upper	Verdana.ttf
1251697	WORD	wordpools/wasnorm_wordpool.txt	LTP147	ltpFR	19	9	-1	FUR	615	n/a	n/a	-1	1.0	1.0	1	upper	Verdana.ttf
1255564	WORD	wordpools/wasnorm_wordpool.txt	LTP147	ltpFR	19	9	-1	MINK	897	n/a	n/a	-1	1.0	1.0	1	upper	Verdana.ttf
1259454	WORD	wordpools/wasnorm_wordpool.txt	LTP147	ltpFR	19	9	-1	EARTH	515	n/a	n/a	-1	1.0	1.0	1	upper	Verdana.ttf
1265336	REC_START	n/a	LTP147	ltpFR	19	9	n/a	n/a	n/a	n/a	n/a	n/a	n/a	n/a	n/a	n/a	n/a
1266134	REC_WORD	wordpools/wasnorm_wordpool.txt	LTP147	ltpFR	19	9	-1	EARTH	515	n/a	n/a	-1	n/a	n/a	n/a	n/a	n/a
1266718	REC_WORD	wordpools/wasnorm_wordpool.txt	LTP147	ltpFR	19	9	-1	MINK	897	n/a	n/a	-1	n/a	n/a	n/a	n/a	n/a
1267406	REC_WORD	wordpools/wasnorm_wordpool.txt	LTP147	ltpFR	19	9	-1	FUR	615	n/a	n/a	-1	n/a	n/a	n/a	n/a	n/a
1268134	REC_WORD	wordpools/wasnorm_wordpool.txt	LTP147	ltpFR	19	9	-1	SKIN	1318	n/a	n/a	-1	n/a	n/a	n/a	n/a	n/a
1269417	REC_WORD	wordpools/wasnorm_wordpool.txt	LTP147	ltpFR	19	9	-1	WINGS	1614	n/a	n/a	-1	n/a	n/a	n/a	n/a	n/a
1270179	REC_WORD	wordpools/wasnorm_wordpool.txt	LTP147	ltpFR	19	9	-1	SUPPER	1411	n/a	n/a	-1	n/a	n/a	n/a	n/a	n/a
1270798	REC_WORD	wordpools/wasnorm_wordpool.txt	LTP147	ltpFR	19	9	-1	HOUSE	725	n/a	n/a	-1	n/a	n/a	n/a	n/a	n/a
1271641	REC_WORD	wordpools/wasnorm_wordpool.txt	LTP147	ltpFR	19	9	-1	DORM	488	n/a	n/a	-1	n/a	n/a	n/a	n/a	n/a
1273378	REC_WORD	wordpools/wasnorm_wordpool.txt	LTP147	ltpFR	19	9	-1	PERSONNEL	1053	n/a	n/a	-1	n/a	n/a	n/a	n/a	n/a
1274345	REC_WORD	wordpools/wasnorm_wordpool.txt	LTP147	ltpFR	19	9	-1	WAITER	1580	n/a	n/a	-1	n/a	n/a	n/a	n/a	n/a
1276086	REC_WORD	wordpools/wasnorm_wordpool.txt	LTP147	ltpFR	19	9	-1	OWNER	993	n/a	n/a	-1	n/a	n/a	n/a	n/a	n/a
1277169	REC_WORD	wordpools/wasnorm_wordpool.txt	LTP147	ltpFR	19	9	-1	DART	440	n/a	n/a	-1	n/a	n/a	n/a	n/a	n/a
1278770	REC_WORD	wordpools/wasnorm_wordpool.txt	LTP147	ltpFR	19	9	-1	FEATHER	557	n/a	n/a	-1	n/a	n/a	n/a	n/a	n/a
1280975	REC_WORD	wordpools/wasnorm_wordpool.txt	LTP147	ltpFR	19	9	-1	CASH	252	n/a	n/a	-1	n/a	n/a	n/a	n/a	n/a
1282512	REC_WORD	wordpools/wasnorm_wordpool.txt	LTP147	ltpFR	19	9	-1	SCALE	1241	n/a	n/a	-1	n/a	n/a	n/a	n/a	n/a
1286528	REC_WORD	wordpools/wasnorm_wordpool.txt	LTP147	ltpFR	19	9	-1	DART	440	n/a	n/a	-1	n/a	n/a	n/a	n/a	n/a
1293442	REC_WORD	wordpools/wasnorm_wordpool.txt	LTP147	ltpFR	19	9	-1	HOUSE	725	n/a	n/a	-1	n/a	n/a	n/a	n/a	n/a
1343873	WORD	wordpools/wasnorm_wordpool.txt	LTP147	ltpFR	19	10	1	PUDDLE	1140	n/a	n/a	0	0.422607421875	0.5869140625	0	upper	zerothre.ttf
1348014	WORD	wordpools/wasnorm_wordpool.txt	LTP147	ltpFR	19	10	1	ELECTRON	522	n/a	n/a	1	0.422607421875	0.5869140625	0	upper	zerothre.ttf
1352113	WORD	wordpools/wasnorm_wordpool.txt	LTP147	ltpFR	19	10	1	LASH	802	n/a	n/a	0	0.422607421875	0.5869140625	0	upper	zerothre.ttf
1356236	WORD	wordpools/wasnorm_wordpool.txt	LTP147	ltpFR	19	10	0	WAVE	1596	n/a	n/a	1	0.57763671875	0.412841796875	1	lower	amplitud.ttf
1360376	WORD	wordpools/wasnorm_wordpool.txt	LTP147	ltpFR	19	10	0	REBEL	1172	n/a	n/a	1	0.57763671875	0.412841796875	1	lower	amplitud.ttf
1364525	WORD	wordpools/wasnorm_wordpool.txt	LTP147	ltpFR	19	10	0	KITTEN	780	n/a	n/a	0	0.57763671875	0.412841796875	1	lower	amplitud.ttf
1368599	WORD	wordpools/wasnorm_wordpool.txt	LTP147	ltpFR	19	10	1	CAGE	218	n/a	n/a	0	0.422607421875	0.5869140625	0	upper	zerothre.ttf
1372530	WORD	wordpools/wasnorm_wordpool.txt	LTP147	ltpFR	19	10	1	SKULL	1320	n/a	n/a	1	0.422607421875	0.5869140625	0	upper	zerothre.ttf
1376421	WORD	wordpools/wasnorm_wordpool.txt	LTP147	ltpFR	19	10	1	BANDANNA	80	n/a	n/a	0	0.422607421875	0.5869140625	0	upper	zerothre.ttf
1380453	WORD	wordpools/wasnorm_wordpool.txt	LTP147	ltpFR	19	10	0	PENGUIN	1044	n/a	n/a	1	0.57763671875	0.412841796875	1	lower	amplitud.ttf
1384418	WORD	wordpools/wasnorm_wordpool.txt	LTP147	ltpFR	19	10	0	BOXER	160	n/a	n/a	1	0.57763671875	0.412841796875	1	lower	amplitud.ttf
1388458	WORD	wordpools/wasnorm_wordpool.txt	LTP147	ltpFR	19	10	0	NEUTRON	947	n/a	n/a	0	0.57763671875	0.412841796875	1	lower	amplitud.ttf
1392557	WORD	wordpools/wasnorm_wordpool.txt	LTP147	ltpFR	19	10	0	ASHTRAY	45	n/a	n/a	0	0.57763671875	0.412841796875	1	lower	amplitud.ttf
1396455	WORD	wordpools/wasnorm_wordpool.txt	LTP147	ltpFR	19	10	0	UNIVERSE	1540	n/a	n/a	1	0.57763671875	0.412841796875	1	lower	amplitud.ttf
1400295	WORD	wordpools/wasnorm_wordpool.txt	LTP147	ltpFR	19	10	1	LEVER	815	n/a	n/a	0	0.422607421875	0.5869140625	0	upper	zerothre.ttf
1404252	WORD	wordpools/wasnorm_wordpool.txt	LTP147	ltpFR	19	10	1	TRACTOR	1493	n/a	n/a	0	0.422607421875	0.5869140625	0	upper	zerothre.ttf
1410035	REC_START	n/a	LTP147	ltpFR	19	10	n/a	n/a	n/a	n/a	n/a	n/a	n/a	n/a	n/a	n/a	n/a
1410828	REC_WORD	wordpools/wasnorm_wordpool.txt	LTP147	ltpFR	19	10	1	LEVER	815	n/a	n/a	0	n/a	n/a	n/a	n/a	n/a
1411526	REC_WORD	wordpools/wasnorm_wordpool.txt	LTP147	ltpFR	19	10	1	TRACTOR	1493	n/a	n/a	0	n/a	n/a	n/a	n/a	n/a
1412370	REC_WORD	wordpools/wasnorm_wordpool.txt	LTP147	ltpFR	19	10	1	ELECTRON	522	n/a	n/a	1	n/a	n/a	n/a	n/a	n/a
1413277	REC_WORD	wordpools/wasnorm_wordpool.txt	LTP147	ltpFR	19	10	0	NEUTRON	947	n/a	n/a	0	n/a	n/a	n/a	n/a	n/a
1414220	REC_WORD	wordpools/wasnorm_wordpool.txt	LTP147	ltpFR	19	10	0	UNIVERSE	1540	n/a	n/a	1	n/a	n/a	n/a	n/a	n/a
1416760	REC_WORD	wordpools/wasnorm_wordpool.txt	LTP147	ltpFR	19	10	0	KITTEN	780	n/a	n/a	0	n/a	n/a	n/a	n/a	n/a
1417323	REC_WORD	wordpools/wasnorm_wordpool.txt	LTP147	ltpFR	19	10	1	SKULL	1320	n/a	n/a	1	n/a	n/a	n/a	n/a	n/a
1418077	REC_WORD	wordpools/wasnorm_wordpool.txt	LTP147	ltpFR	19	10	0	PENGUIN	1044	n/a	n/a	1	n/a	n/a	n/a	n/a	n/a
1418860	REC_WORD	wordpools/wasnorm_wordpool.txt	LTP147	ltpFR	19	10	0	BOXER	160	n/a	n/a	1	n/a	n/a	n/a	n/a	n/a
1421100	REC_WORD	wordpools/wasnorm_wordpool.txt	LTP147	ltpFR	19	10	1	PUDDLE	1140	n/a	n/a	0	n/a	n/a	n/a	n/a	n/a
1423833	REC_WORD	wordpools/wasnorm_wordpool.txt	LTP147	ltpFR	19	10	0	REBEL	1172	n/a	n/a	1	n/a	n/a	n/a	n/a	n/a
1428019	REC_WORD	wordpools/wasnorm_wordpool.txt	LTP147	ltpFR	19	10	0	WAVE	1596	n/a	n/a	1	n/a	n/a	n/a	n/a	n/a
1443429	REC_WORD	wordpools/wasnorm_wordpool.txt	LTP147	ltpFR	19	10	1	BANDANNA	80	n/a	n/a	0	n/a	n/a	n/a	n/a	n/a
1488880	WORD	wordpools/wasnorm_wordpool.txt	LTP147	ltpFR	19	11	0	PREDATOR	1120	n/a	n/a	1	0.57763671875	0.412841796875	1	lower	amplitud.ttf
1492712	WORD	wordpools/wasnorm_wordpool.txt	LTP147	ltpFR	19	11	0	CHIPMUNK	304	n/a	n/a	0	0.57763671875	0.412841796875	1	lower	amplitud.ttf
1496603	WORD	wordpools/wasnorm_wordpool.txt	LTP147	ltpFR	19	11	0	RACCOON	1153	n/a	n/a	1	0.57763671875	0.412841796875	1	lower	amplitud.ttf
1500610	WORD	wordpools/wasnorm_wordpool.txt	LTP147	ltpFR	19	11	1	BUTTERFLY	206	n/a	n/a	0	0.422607421875	0.5869140625	0	upper	zerothre.ttf
1504782	WORD	wordpools/wasnorm_wordpool.txt	LTP147	ltpFR	19	11	1	INSECT	740	n/a	n/a	0	0.422607421875	0.5869140625	0	upper	zerothre.ttf
1508748	WORD	wordpools/wasnorm_wordpool.txt	LTP147	ltpFR	19	11	0	PIZZA	1079	n/a	n/a	0	0.57763671875	0.412841796875	1	lower	amplitud.ttf
1512804	WORD	wordpools/wasnorm_wordpool.txt	LTP147	ltpFR	19	11	0	RESTAURANT	1187	n/a	n/a	1	0.57763671875	0.412841796875	1	lower	amplitud.ttf
1516720	WORD	wordpools/wasnorm_wordpool.txt	LTP147	ltpFR	19	11	0	TICK	1463	n/a	n/a	0	0.57763671875	0.412841796875	1	lower	amplitud.ttf
1520536	WORD	wordpools/wasnorm_wordpool.txt	LTP147	ltpFR	19	11	1	FILM	565	n/a	n/a	0	0.422607421875	0.5869140625	0	upper	zerothre.ttf
1524610	WORD	wordpools/wasnorm_wordpool.txt	LTP147	ltpFR	19	11	1	CLOWN	330	n/a	n/a	1	0.422607421875	0.5869140625	0	upper	zerothre.ttf
1528600	WORD	wordpools/wasnorm_wordpool.txt	LTP147	ltpFR	19	11	1	WATER	1594	n/a	n/a	1	0.422607421875	0.5869140625	0	upper	zerothre.ttf
1532532	WORD	wordpools/wasnorm_wordpool.txt	LTP147	ltpFR	19	11	1	TUNNEL	1519	n/a	n/a	0	0.422607421875	0.5869140625	0	upper	zerothre.ttf
1536539	WORD	wordpools/wasnorm_wordpool.txt	LTP147	ltpFR	19	11	1	POSSUM	1112	n/a	n/a	1	0.422607421875	0.5869140625	0	upper	zerothre.ttf
1540629	WORD	wordpools/wasnorm_wordpool.txt	LTP147	ltpFR	19	11	1	ACID	2	n/a	n/a	0	0.422607421875	0.5869140625	0	upper	zerothre.ttf
1544826	WORD	wordpools/wasnorm_wordpool.txt	LTP147	ltpFR	19	11	0	MILK	895	n/a	n/a	0	0.57763671875	0.412841796875	1	lower	amplitud.ttf
1548700	WORD	wordpools/wasnorm_wordpool.txt	LTP147	ltpFR	19	11	0	SUBWAY	1400	n/a	n/a	1	0.57763671875	0.412841796875	1	lower	amplitud.ttf
1554600	REC_START	n/a	LTP147	ltpFR	19	11	n/a	n/a	n/a	n/a	n/a	n/a	n/a	n/a	n/a	n/a	n/a
1555193	REC_WORD	wordpools/wasnorm_wordpool.txt	LTP147	ltpFR	19	11	1	TUNNEL	1519	n/a	n/a	0	n/a	n/a	n/a	n/a	n/a
1555609	REC_WORD	wordpools/wasnorm_wordpool.txt	LTP147	ltpFR	19	11	0	SUBWAY	1400	n/a	n/a	1	n/a	n/a	n/a	n/a	n/a
1556283	REC_WORD	wordpools/wasnorm_wordpool.txt	LTP147	ltpFR	19	11	0	MILK	895	n/a	n/a	0	n/a	n/a	n/a	n/a	n/a
1557024	REC_WORD	wordpools/wasnorm_wordpool.txt	LTP147	ltpFR	19	11	1	POSSUM	1112	n/a	n/a	1	n/a	n/a	n/a	n/a	n/a
1557743	REC_WORD	wordpools/wasnorm_wordpool.txt	LTP147	ltpFR	19	11	1	ACID	2	n/a	n/a	0	n/a	n/a	n/a	n/a	n/a
1558401	REC_WORD	wordpools/wasnorm_wordpool.txt	LTP147	ltpFR	19	11	0	RESTAURANT	1187	n/a	n/a	1	n/a	n/a	n/a	n/a	n/a
1561454	REC_WORD	wordpools/wasnorm_wordpool.txt	LTP147	ltpFR	19	11	0	PREDATOR	1120	n/a	n/a	1	n/a	n/a	n/a	n/a	n/a
1562332	REC_WORD	wordpools/wasnorm_wordpool.txt	LTP147	ltpFR	19	11	1	FILM	565	n/a	n/a	0	n/a	n/a	n/a	n/a	n/a
1563819	REC_WORD	wordpools/wasnorm_wordpool.txt	LTP147	ltpFR	19	11	0	CHIPMUNK	304	n/a	n/a	0	n/a	n/a	n/a	n/a	n/a
1564891	REC_WORD	wordpools/wasnorm_wordpool.txt	LTP147	ltpFR	19	11	0	RACCOON	1153	n/a	n/a	1	n/a	n/a	n/a	n/a	n/a
1566383	REC_WORD	wordpools/wasnorm_wordpool.txt	LTP147	ltpFR	19	11	1	BUTTERFLY	206	n/a	n/a	0	n/a	n/a	n/a	n/a	n/a
1567431	REC_WORD	wordpools/wasnorm_wordpool.txt	LTP147	ltpFR	19	11	1	INSECT	740	n/a	n/a	0	n/a	n/a	n/a	n/a	n/a
1568743	REC_WORD	wordpools/wasnorm_wordpool.txt	LTP147	ltpFR	19	11	0	TICK	1463	n/a	n/a	0	n/a	n/a	n/a	n/a	n/a
1607794	REC_WORD	wordpools/wasnorm_wordpool.txt	LTP147	ltpFR	19	11	1	WATER	1594	n/a	n/a	1	n/a	n/a	n/a	n/a	n/a
1633745	WORD	wordpools/wasnorm_wordpool.txt	LTP147	ltpFR	19	12	1	SUITE	1404	n/a	n/a	0	0.422607421875	0.5869140625	0	upper	zerothre.ttf
1637810	WORD	wordpools/wasnorm_wordpool.txt	LTP147	ltpFR	19	12	1	JEANS	752	n/a	n/a	0	0.422607421875	0.5869140625	0	upper	zerothre.ttf
1641993	WORD	wordpools/wasnorm_wordpool.txt	LTP147	ltpFR	19	12	1	PANTS	1010	n/a	n/a	0	0.422607421875	0.5869140625	0	upper	zerothre.ttf
1645882	WORD	wordpools/wasnorm_wordpool.txt	LTP147	ltpFR	19	12	1	WITCH	1617	n/a	n/a	1	0.422607421875	0.5869140625	0	upper	zerothre.ttf
1649822	WORD	wordpools/wasnorm_wordpool.txt	LTP147	ltpFR	19	12	1	COMMANDER	354	n/a	n/a	1	0.422607421875	0.5869140625	0	upper	zerothre.ttf
1653746	WORD	wordpools/wasnorm_wordpool.txt	LTP147	ltpFR	19	12	1	BLUEJAY	141	n/a	n/a	1	0.422607421875	0.5869140625	0	upper	zerothre.ttf
1657869	WORD	wordpools/wasnorm_wordpool.txt	LTP147	ltpFR	19	12	1	HOSTESS	723	n/a	n/a	1	0.422607421875	0.5869140625	0	upper	zerothre.ttf
1661776	WORD	wordpools/wasnorm_wordpool.txt	LTP147	ltpFR	19	12	1	CORPORATION	382	n/a	n/a	0	0.422607421875	0.5869140625	0	upper	zerothre.ttf
1665618	WORD	wordpools/wasnorm_wordpool.txt	LTP147	ltpFR	19	12	1	SUPERVISOR	1410	n/a	n/a	0	0.422607421875	0.5869140625	0	upper	zerothre.ttf
1669707	WORD	wordpools/wasnorm_wordpool.txt	LTP147	ltpFR	19	12	1	FURNITURE	616	n/a	n/a	0	0.422607421875	0.5869140625	0	upper	zerothre.ttf
1673582	WORD	wordpools/wasnorm_wordpool.txt	LTP147	ltpFR	19	12	1	BISCUIT	130	n/a	n/a	1	0.422607421875	0.5869140625	0	upper	zerothre.ttf
1677472	WORD	wordpools/wasnorm_wordpool.txt	LTP147	ltpFR	19	12	1	DICTATOR	462	n/a	n/a	1	0.422607421875	0.5869140625	0	upper	zerothre.ttf
1681429	WORD	wordpools/wasnorm_wordpool.txt	LTP147	ltpFR	19	12	1	BULLY	196	n/a	n/a	1	0.422607421875	0.5869140625	0	upper	zerothre.ttf
1685361	WORD	wordpools/wasnorm_wordpool.txt	LTP147	ltpFR	19	12	1	DOVE	491	n/a	n/a	0	0.422607421875	0.5869140625	0	upper	zerothre.ttf
1689284	WORD	wordpools/wasnorm_wordpool.txt	LTP147	ltpFR	19	12	1	FARMER	553	n/a	n/a	1	0.422607421875	0.5869140625	0	upper	zerothre.ttf
1693141	WORD	wordpools/wasnorm_wordpool.txt	LTP147	ltpFR	19	12	1	PICNIC	1060	n/a	n/a	0	0.422607421875	0.5869140625	0	upper	zerothre.ttf
1698972	REC_START	n/a	LTP147	ltpFR	19	12	n/a	n/a	n/a	n/a	n/a	n/a	n/a	n/a	n/a	n/a	n/a
1699745	REC_WORD	wordpools/wasnorm_wordpool.txt	LTP147	ltpFR	19	12	1	DOVE	491	n/a	n/a	0	n/a	n/a	n/a	n/a	n/a
1700055	REC_WORD	wordpools/wasnorm_wordpool.txt	LTP147	ltpFR	19	12	1	FARMER	553	n/a	n/a	1	n/a	n/a	n/a	n/a	n/a
1700753	REC_WORD	wordpools/wasnorm_wordpool.txt	LTP147	ltpFR	19	12	1	PICNIC	1060	n/a	n/a	0	n/a	n/a	n/a	n/a	n/a
1702269	REC_WORD	wordpools/wasnorm_wordpool.txt	LTP147	ltpFR	19	12	1	SUITE	1404	n/a	n/a	0	n/a	n/a	n/a	n/a	n/a
1703786	REC_WORD	wordpools/wasnorm_wordpool.txt	LTP147	ltpFR	19	12	1	JEANS	752	n/a	n/a	0	n/a	n/a	n/a	n/a	n/a
1704569	REC_WORD	wordpools/wasnorm_wordpool.txt	LTP147	ltpFR	19	12	1	PANTS	1010	n/a	n/a	0	n/a	n/a	n/a	n/a	n/a
1707228	REC_WORD	wordpools/wasnorm_wordpool.txt	LTP147	ltpFR	19	12	1	WITCH	1617	n/a	n/a	1	n/a	n/a	n/a	n/a	n/a
1709817	REC_WORD	wordpools/wasnorm_wordpool.txt	LTP147	ltpFR	19	12	1	BULLY	196	n/a	n/a	1	n/a	n/a	n/a	n/a	n/a
1710376	REC_WORD	wordpools/wasnorm_wordpool.txt	LTP147	ltpFR	19	12	1	DICTATOR	462	n/a	n/a	1	n/a	n/a	n/a	n/a	n/a
1711274	REC_WORD	wordpools/wasnorm_wordpool.txt	LTP147	ltpFR	19	12	1	CORPORATION	382	n/a	n/a	0	n/a	n/a	n/a	n/a	n/a
1712274	REC_WORD_VV	wordpools/wasnorm_wordpool.txt	LTP147	ltpFR	19	12	n/a	<>	-1	n/a	n/a	n/a	n/a	n/a	n/a	n/a	n/a
1726873	REC_WORD	wordpools/wasnorm_wordpool.txt	LTP147	ltpFR	19	12	1	COMMANDER	354	n/a	n/a	1	n/a	n/a	n/a	n/a	n/a
1741714	REC_WORD	wordpools/wasnorm_wordpool.txt	LTP147	ltpFR	19	12	1	FARMER	553	n/a	n/a	1	n/a	n/a	n/a	n/a	n/a
1753139	REC_WORD	wordpools/wasnorm_wordpool.txt	LTP147	ltpFR	19	12	1	HOSTESS	723	n/a	n/a	1	n/a	n/a	n/a	n/a	n/a
1774554	REST_REWET	n/a	LTP147	ltpFR	19	12	n/a	n/a	n/a	n/a	n/a	n/a	n/a	n/a	n/a	n/a	n/a
2154119	WORD	wordpools/wasnorm_wordpool.txt	LTP147	ltpFR	19	13	-1	IGLOO	734	n/a	n/a	-1	1.0	1.0	1	upper	Verdana.ttf
2158317	WORD	wordpools/wasnorm_wordpool.txt	LTP147	ltpFR	19	13	-1	FROST	609	n/a	n/a	-1	1.0	1.0	1	upper	Verdana.ttf
2162399	WORD	wordpools/wasnorm_wordpool.txt	LTP147	ltpFR	19	13	-1	PENNY	1045	n/a	n/a	-1	1.0	1.0	1	upper	Verdana.ttf
2166556	WORD	wordpools/wasnorm_wordpool.txt	LTP147	ltpFR	19	13	-1	REEF	1177	n/a	n/a	-1	1.0	1.0	1	upper	Verdana.ttf
2170488	WORD	wordpools/wasnorm_wordpool.txt	LTP147	ltpFR	19	13	-1	CHEF	290	n/a	n/a	-1	1.0	1.0	1	upper	Verdana.ttf
2174669	WORD	wordpools/wasnorm_wordpool.txt	LTP147	ltpFR	19	13	-1	DAGGER	434	n/a	n/a	-1	1.0	1.0	1	upper	Verdana.ttf
2178627	WORD	wordpools/wasnorm_wordpool.txt	LTP147	ltpFR	19	13	-1	WOUND	1624	n/a	n/a	-1	1.0	1.0	1	upper	Verdana.ttf
2182783	WORD	wordpools/wasnorm_wordpool.txt	LTP147	ltpFR	19	13	-1	CABINET	212	n/a	n/a	-1	1.0	1.0	1	upper	Verdana.ttf
2186790	WORD	wordpools/wasnorm_wordpool.txt	LTP147	ltpFR	19	13	-1	BANK	83	n/a	n/a	-1	1.0	1.0	1	upper	Verdana.ttf
2190780	WORD	wordpools/wasnorm_wordpool.txt	LTP147	ltpFR	19	13	-1	AUDIENCE	59	n/a	n/a	-1	1.0	1.0	1	upper	Verdana.ttf
2194996	WORD	wordpools/wasnorm_wordpool.txt	LTP147	ltpFR	19	13	-1	STRING	1394	n/a	n/a	-1	1.0	1.0	1	upper	Verdana.ttf
2198952	WORD	wordpools/wasnorm_wordpool.txt	LTP147	ltpFR	19	13	-1	NECK	939	n/a	n/a	-1	1.0	1.0	1	upper	Verdana.ttf
2203001	WORD	wordpools/wasnorm_wordpool.txt	LTP147	ltpFR	19	13	-1	OUTDOORS	987	n/a	n/a	-1	1.0	1.0	1	upper	Verdana.ttf
2206841	WORD	wordpools/wasnorm_wordpool.txt	LTP147	ltpFR	19	13	-1	PRESIDENT	1121	n/a	n/a	-1	1.0	1.0	1	upper	Verdana.ttf
2210764	WORD	wordpools/wasnorm_wordpool.txt	LTP147	ltpFR	19	13	-1	DUNE	506	n/a	n/a	-1	1.0	1.0	1	upper	Verdana.ttf
2214705	WORD	wordpools/wasnorm_wordpool.txt	LTP147	ltpFR	19	13	-1	BUNNY	198	n/a	n/a	-1	1.0	1.0	1	upper	Verdana.ttf
2220421	REC_START	n/a	LTP147	ltpFR	19	13	n/a	n/a	n/a	n/a	n/a	n/a	n/a	n/a	n/a	n/a	n/a
2222726	REC_WORD	wordpools/wasnorm_wordpool.txt	LTP147	ltpFR	19	13	-1	IGLOO	734	n/a	n/a	-1	n/a	n/a	n/a	n/a	n/a
2223417	REC_WORD	wordpools/wasnorm_wordpool.txt	LTP147	ltpFR	19	13	-1	FROST	609	n/a	n/a	-1	n/a	n/a	n/a	n/a	n/a
2225065	REC_WORD	wordpools/wasnorm_wordpool.txt	LTP147	ltpFR	19	13	-1	PENNY	1045	n/a	n/a	-1	n/a	n/a	n/a	n/a	n/a
2225983	REC_WORD	wordpools/wasnorm_wordpool.txt	LTP147	ltpFR	19	13	-1	REEF	1177	n/a	n/a	-1	n/a	n/a	n/a	n/a	n/a
2227804	REC_WORD	wordpools/wasnorm_wordpool.txt	LTP147	ltpFR	19	13	-1	DAGGER	434	n/a	n/a	-1	n/a	n/a	n/a	n/a	n/a
2228921	REC_WORD	wordpools/wasnorm_wordpool.txt	LTP147	ltpFR	19	13	-1	CHEF	290	n/a	n/a	-1	n/a	n/a	n/a	n/a	n/a
2230448	REC_WORD	wordpools/wasnorm_wordpool.txt	LTP147	ltpFR	19	13	-1	CABINET	212	n/a	n/a	-1	n/a	n/a	n/a	n/a	n/a
2235965	REC_WORD	wordpools/wasnorm_wordpool.txt	LTP147	ltpFR	19	13	1	CORPORATION	382	n/a	n/a	0	n/a	n/a	n/a	n/a	n/a
2236965	REC_WORD_VV	wordpools/wasnorm_wordpool.txt	LTP147	ltpFR	19	13	n/a	<>	-1	n/a	n/a	n/a	n/a	n/a	n/a	n/a	n/a
2241538	REC_WORD	wordpools/wasnorm_wordpool.txt	LTP147	ltpFR	19	13	-1	AUDIENCE	59	n/a	n/a	-1	n/a	n/a	n/a	n/a	n/a
2243358	REC_WORD	wordpools/wasnorm_wordpool.txt	LTP147	ltpFR	19	13	-1	DUNE	506	n/a	n/a	-1	n/a	n/a	n/a	n/a	n/a
2244186	REC_WORD	wordpools/wasnorm_wordpool.txt	LTP147	ltpFR	19	13	n/a	BUGGY	188	n/a	n/a	n/a	n/a	n/a	n/a	n/a	n/a
2247050	REC_WORD	wordpools/wasnorm_wordpool.txt	LTP147	ltpFR	19	13	-1	DAGGER	434	n/a	n/a	-1	n/a	n/a	n/a	n/a	n/a
2250098	REC_WORD	wordpools/wasnorm_wordpool.txt	LTP147	ltpFR	19	13	-1	BANK	83	n/a	n/a	-1	n/a	n/a	n/a	n/a	n/a
2254239	REC_WORD	wordpools/wasnorm_wordpool.txt	LTP147	ltpFR	19	13	-1	STRING	1394	n/a	n/a	-1	n/a	n/a	n/a	n/a	n/a
2255726	REC_WORD	wordpools/wasnorm_wordpool.txt	LTP147	ltpFR	19	13	-1	NECK	939	n/a	n/a	-1	n/a	n/a	n/a	n/a	n/a
2257477	REC_WORD	wordpools/wasnorm_wordpool.txt	LTP147	ltpFR	19	13	-1	PRESIDENT	1121	n/a	n/a	-1	n/a	n/a	n/a	n/a	n/a
2262331	REC_WORD	wordpools/wasnorm_wordpool.txt	LTP147	ltpFR	19	13	-1	AUDIENCE	59	n/a	n/a	-1	n/a	n/a	n/a	n/a	n/a
2289354	REC_WORD	wordpools/wasnorm_wordpool.txt	LTP147	ltpFR	19	13	1	TIDE	1465	n/a	n/a	1	n/a	n/a	n/a	n/a	n/a
2291808	REC_WORD_VV	wordpools/wasnorm_wordpool.txt	LTP147	ltpFR	19	13	n/a	<>	-1	n/a	n/a	n/a	n/a	n/a	n/a	n/a	n/a
2298791	WORD	wordpools/wasnorm_wordpool.txt	LTP147	ltpFR	19	14	-1	NOTE	958	n/a	n/a	-1	1.0	1.0	1	upper	Verdana.ttf
2302948	WORD	wordpools/wasnorm_wordpool.txt	LTP147	ltpFR	19	14	-1	PAPER	1011	n/a	n/a	-1	1.0	1.0	1	upper	Verdana.ttf
2306772	WORD	wordpools/wasnorm_wordpool.txt	LTP147	ltpFR	19	14	-1	SCARECROW	1245	n/a	n/a	-1	1.0	1.0	1	upper	Verdana.ttf
2310829	WORD	wordpools/wasnorm_wordpool.txt	LTP147	ltpFR	19	14	-1	CHEST	295	n/a	n/a	-1	1.0	1.0	1	upper	Verdana.ttf
2314794	WORD	wordpools/wasnorm_wordpool.txt	LTP147	ltpFR	19	14	-1	OPERA	978	n/a	n/a	-1	1.0	1.0	1	upper	Verdana.ttf
2318610	WORD	wordpools/wasnorm_wordpool.txt	LTP147	ltpFR	19	14	-1	BUN	197	n/a	n/a	-1	1.0	1.0	1	upper	Verdana.ttf
2322501	WORD	wordpools/wasnorm_wordpool.txt	LTP147	ltpFR	19	14	-1	TOAST	1471	n/a	n/a	-1	1.0	1.0	1	upper	Verdana.ttf
2326632	WORD	wordpools/wasnorm_wordpool.txt	LTP147	ltpFR	19	14	-1	CHILD	299	n/a	n/a	-1	1.0	1.0	1	upper	Verdana.ttf
2330464	WORD	wordpools/wasnorm_wordpool.txt	LTP147	ltpFR	19	14	-1	CASHEW	253	n/a	n/a	-1	1.0	1.0	1	upper	Verdana.ttf
2334621	WORD	wordpools/wasnorm_wordpool.txt	LTP147	ltpFR	19	14	-1	FIN	566	n/a	n/a	-1	1.0	1.0	1	upper	Verdana.ttf
2338835	WORD	wordpools/wasnorm_wordpool.txt	LTP147	ltpFR	19	14	-1	BAIT	70	n/a	n/a	-1	1.0	1.0	1	upper	Verdana.ttf
2343035	WORD	wordpools/wasnorm_wordpool.txt	LTP147	ltpFR	19	14	-1	SQUIRREL	1362	n/a	n/a	-1	1.0	1.0	1	upper	Verdana.ttf
2347025	WORD	wordpools/wasnorm_wordpool.txt	LTP147	ltpFR	19	14	-1	BARREL	91	n/a	n/a	-1	1.0	1.0	1	upper	Verdana.ttf
2351215	WORD	wordpools/wasnorm_wordpool.txt	LTP147	ltpFR	19	14	-1	BOY	161	n/a	n/a	-1	1.0	1.0	1	upper	Verdana.ttf
2355414	WORD	wordpools/wasnorm_wordpool.txt	LTP147	ltpFR	19	14	-1	RESORT	1186	n/a	n/a	-1	1.0	1.0	1	upper	Verdana.ttf
2359562	WORD	wordpools/wasnorm_wordpool.txt	LTP147	ltpFR	19	14	-1	CHAMPAGNE	278	n/a	n/a	-1	1.0	1.0	1	upper	Verdana.ttf
2365311	REC_START	n/a	LTP147	ltpFR	19	14	n/a	n/a	n/a	n/a	n/a	n/a	n/a	n/a	n/a	n/a	n/a
2366887	REC_WORD	wordpools/wasnorm_wordpool.txt	LTP147	ltpFR	19	14	-1	CHAMPAGNE	278	n/a	n/a	-1	n/a	n/a	n/a	n/a	n/a
2368109	REC_WORD	wordpools/wasnorm_wordpool.txt	LTP147	ltpFR	19	14	-1	FIN	566	n/a	n/a	-1	n/a	n/a	n/a	n/a	n/a
2370704	REC_WORD	wordpools/wasnorm_wordpool.txt	LTP147	ltpFR	19	14	-1	SQUIRREL	1362	n/a	n/a	-1	n/a	n/a	n/a	n/a	n/a
2372090	REC_WORD	wordpools/wasnorm_wordpool.txt	LTP147	ltpFR	19	14	-1	BAIT	70	n/a	n/a	-1	n/a	n/a	n/a	n/a	n/a
2373093	REC_WORD	wordpools/wasnorm_wordpool.txt	LTP147	ltpFR	19	14	-1	BARREL	91	n/a	n/a	-1	n/a	n/a	n/a	n/a	n/a
2374006	REC_WORD	wordpools/wasnorm_wordpool.txt	LTP147	ltpFR	19	14	-1	BOY	161	n/a	n/a	-1	n/a	n/a	n/a	n/a	n/a
2375453	REC_WORD	wordpools/wasnorm_wordpool.txt	LTP147	ltpFR	19	14	-1	RESORT	1186	n/a	n/a	-1	n/a	n/a	n/a	n/a	n/a
2379947	REC_WORD	wordpools/wasnorm_wordpool.txt	LTP147	ltpFR	19	14	-1	NOTE	958	n/a	n/a	-1	n/a	n/a	n/a	n/a	n/a
2381165	REC_WORD	wordpools/wasnorm_wordpool.txt	LTP147	ltpFR	19	14	-1	PAPER	1011	n/a	n/a	-1	n/a	n/a	n/a	n/a	n/a
2382242	REC_WORD	wordpools/wasnorm_wordpool.txt	LTP147	ltpFR	19	14	-1	SCARECROW	1245	n/a	n/a	-1	n/a	n/a	n/a	n/a	n/a
2383544	REC_WORD	wordpools/wasnorm_wordpool.txt	LTP147	ltpFR	19	14	-1	CHEST	295	n/a	n/a	-1	n/a	n/a	n/a	n/a	n/a
2385495	REC_WORD	wordpools/wasnorm_wordpool.txt	LTP147	ltpFR	19	14	n/a	WISH	-1	n/a	n/a	n/a	n/a	n/a	n/a	n/a	n/a
2387630	REC_WORD	wordpools/wasnorm_wordpool.txt	LTP147	ltpFR	19	14	-1	OPERA	978	n/a	n/a	-1	n/a	n/a	n/a	n/a	n/a
2388767	REC_WORD	wordpools/wasnorm_wordpool.txt	LTP147	ltpFR	19	14	-1	BUN	197	n/a	n/a	-1	n/a	n/a	n/a	n/a	n/a
2389965	REC_WORD	wordpools/wasnorm_wordpool.txt	LTP147	ltpFR	19	14	-1	TOAST	1471	n/a	n/a	-1	n/a	n/a	n/a	n/a	n/a
2391377	REC_WORD	wordpools/wasnorm_wordpool.txt	LTP147	ltpFR	19	14	-1	CHILD	299	n/a	n/a	-1	n/a	n/a	n/a	n/a	n/a
2393317	REC_WORD	wordpools/wasnorm_wordpool.txt	LTP147	ltpFR	19	14	-1	CASHEW	253	n/a	n/a	-1	n/a	n/a	n/a	n/a	n/a
2407455	REC_WORD	wordpools/wasnorm_wordpool.txt	LTP147	ltpFR	19	14	-1	FIN	566	n/a	n/a	-1	n/a	n/a	n/a	n/a	n/a
2470872	WORD	wordpools/wasnorm_wordpool.txt	LTP147	ltpFR	19	15	0	THUMB	1462	n/a	n/a	0	0.57763671875	0.412841796875	1	lower	amplitud.ttf
2475030	WORD	wordpools/wasnorm_wordpool.txt	LTP147	ltpFR	19	15	0	PIER	1063	n/a	n/a	1	0.57763671875	0.412841796875	1	lower	amplitud.ttf
2478902	WORD	wordpools/wasnorm_wordpool.txt	LTP147	ltpFR	19	15	0	JAW	751	n/a	n/a	0	0.57763671875	0.412841796875	1	lower	amplitud.ttf
2482801	WORD	wordpools/wasnorm_wordpool.txt	LTP147	ltpFR	19	15	0	DOUGH	489	n/a	n/a	0	0.57763671875	0.412841796875	1	lower	amplitud.ttf
2486908	WORD	wordpools/wasnorm_wordpool.txt	LTP147	ltpFR	19	15	0	CORN	381	n/a	n/a	0	0.57763671875	0.412841796875	1	lower	amplitud.ttf
2491041	WORD	wordpools/wasnorm_wordpool.txt	LTP147	ltpFR	19	15	0	HERD	705	n/a	n/a	1	0.57763671875	0.412841796875	1	lower	amplitud.ttf
2495081	WORD	wordpools/wasnorm_wordpool.txt	LTP147	ltpFR	19	15	1	BULL	193	n/a	n/a	1	0.422607421875	0.5869140625	0	upper	zerothre.ttf
2498920	WORD	wordpools/wasnorm_wordpool.txt	LTP147	ltpFR	19	15	1	RIB	1188	n/a	n/a	0	0.422607421875	0.5869140625	0	upper	zerothre.ttf
2502885	WORD	wordpools/wasnorm_wordpool.txt	LTP147	ltpFR	19	15	0	BEE	112	n/a	n/a	0	0.57763671875	0.412841796875	1	lower	amplitud.ttf
2506817	WORD	wordpools/wasnorm_wordpool.txt	LTP147	ltpFR	19	15	0	SLIDE	1326	n/a	n/a	1	0.57763671875	0.412841796875	1	lower	amplitud.ttf
2510634	WORD	wordpools/wasnorm_wordpool.txt	LTP147	ltpFR	19	15	1	PADDLE	1000	n/a	n/a	0	0.422607421875	0.5869140625	0	upper	zerothre.ttf
2514714	WORD	wordpools/wasnorm_wordpool.txt	LTP147	ltpFR	19	15	1	BUFFALO	186	n/a	n/a	1	0.422607421875	0.5869140625	0	upper	zerothre.ttf
2518755	WORD	wordpools/wasnorm_wordpool.txt	LTP147	ltpFR	19	15	1	TOOTHPASTE	1483	n/a	n/a	0	0.422607421875	0.5869140625	0	upper	zerothre.ttf
2522887	WORD	wordpools/wasnorm_wordpool.txt	LTP147	ltpFR	19	15	1	LEAF	808	n/a	n/a	1	0.422607421875	0.5869140625	0	upper	zerothre.ttf
2527078	WORD	wordpools/wasnorm_wordpool.txt	LTP147	ltpFR	19	15	1	LIMB	822	n/a	n/a	1	0.422607421875	0.5869140625	0	upper	zerothre.ttf
2531051	WORD	wordpools/wasnorm_wordpool.txt	LTP147	ltpFR	19	15	1	JUNGLE	764	n/a	n/a	1	0.422607421875	0.5869140625	0	upper	zerothre.ttf
2536757	REC_START	n/a	LTP147	ltpFR	19	15	n/a	n/a	n/a	n/a	n/a	n/a	n/a	n/a	n/a	n/a	n/a
2538014	REC_WORD	wordpools/wasnorm_wordpool.txt	LTP147	ltpFR	19	15	1	TOOTHPASTE	1483	n/a	n/a	0	n/a	n/a	n/a	n/a	n/a
2539610	REC_WORD	wordpools/wasnorm_wordpool.txt	LTP147	ltpFR	19	15	1	LEAF	808	n/a	n/a	1	n/a	n/a	n/a	n/a	n/a
2540773	REC_WORD	wordpools/wasnorm_wordpool.txt	LTP147	ltpFR	19	15	1	LIMB	822	n/a	n/a	1	n/a	n/a	n/a	n/a	n/a
2541915	REC_WORD	wordpools/wasnorm_wordpool.txt	LTP147	ltpFR	19	15	1	JUNGLE	764	n/a	n/a	1	n/a	n/a	n/a	n/a	n/a
2545287	REC_WORD	wordpools/wasnorm_wordpool.txt	LTP147	ltpFR	19	15	0	JAW	751	n/a	n/a	0	n/a	n/a	n/a	n/a	n/a
2548101	REC_WORD	wordpools/wasnorm_wordpool.txt	LTP147	ltpFR	19	15	0	PIER	1063	n/a	n/a	1	n/a	n/a	n/a	n/a	n/a
2550440	REC_WORD	wordpools/wasnorm_wordpool.txt	LTP147	ltpFR	19	15	0	BEE	112	n/a	n/a	0	n/a	n/a	n/a	n/a	n/a
2552336	REC_WORD	wordpools/wasnorm_wordpool.txt	LTP147	ltpFR	19	15	n/a	BALL	73	n/a	n/a	n/a	n/a	n/a	n/a	n/a	n/a
2555215	REC_WORD	wordpools/wasnorm_wordpool.txt	LTP147	ltpFR	19	15	0	HERD	705	n/a	n/a	1	n/a	n/a	n/a	n/a	n/a
2558846	REC_WORD	wordpools/wasnorm_wordpool.txt	LTP147	ltpFR	19	15	0	THUMB	1462	n/a	n/a	0	n/a	n/a	n/a	n/a	n/a
2561456	REC_WORD	wordpools/wasnorm_wordpool.txt	LTP147	ltpFR	19	15	0	DOUGH	489	n/a	n/a	0	n/a	n/a	n/a	n/a	n/a
2563576	REC_WORD	wordpools/wasnorm_wordpool.txt	LTP147	ltpFR	19	15	0	CORN	381	n/a	n/a	0	n/a	n/a	n/a	n/a	n/a
2569423	REC_WORD	wordpools/wasnorm_wordpool.txt	LTP147	ltpFR	19	15	1	TOOTHPASTE	1483	n/a	n/a	0	n/a	n/a	n/a	n/a	n/a
2590689	REC_WORD	wordpools/wasnorm_wordpool.txt	LTP147	ltpFR	19	15	1	PADDLE	1000	n/a	n/a	0	n/a	n/a	n/a	n/a	n/a
2592919	REC_WORD	wordpools/wasnorm_wordpool.txt	LTP147	ltpFR	19	15	0	SLIDE	1326	n/a	n/a	1	n/a	n/a	n/a	n/a	n/a
2615346	WORD	wordpools/wasnorm_wordpool.txt	LTP147	ltpFR	19	16	0	TYPEWRITER	1531	n/a	n/a	1	0.57763671875	0.412841796875	1	lower	amplitud.ttf
2619170	WORD	wordpools/wasnorm_wordpool.txt	LTP147	ltpFR	19	16	0	COMPUTER	359	n/a	n/a	1	0.57763671875	0.412841796875	1	lower	amplitud.ttf
2623144	WORD	wordpools/wasnorm_wordpool.txt	LTP147	ltpFR	19	16	0	QUILT	1151	n/a	n/a	1	0.57763671875	0.412841796875	1	lower	amplitud.ttf
2627342	WORD	wordpools/wasnorm_wordpool.txt	LTP147	ltpFR	19	16	0	NEWSSTAND	949	n/a	n/a	1	0.57763671875	0.412841796875	1	lower	amplitud.ttf
2631174	WORD	wordpools/wasnorm_wordpool.txt	LTP147	ltpFR	19	16	0	DRIVER	499	n/a	n/a	1	0.57763671875	0.412841796875	1	lower	amplitud.ttf
2635173	WORD	wordpools/wasnorm_wordpool.txt	LTP147	ltpFR	19	16	0	GLUE	643	n/a	n/a	0	0.57763671875	0.412841796875	1	lower	amplitud.ttf
2638996	WORD	wordpools/wasnorm_wordpool.txt	LTP147	ltpFR	19	16	0	BACON	67	n/a	n/a	0	0.57763671875	0.412841796875	1	lower	amplitud.ttf
2643137	WORD	wordpools/wasnorm_wordpool.txt	LTP147	ltpFR	19	16	0	EMERALD	528	n/a	n/a	0	0.57763671875	0.412841796875	1	lower	amplitud.ttf
2647152	WORD	wordpools/wasnorm_wordpool.txt	LTP147	ltpFR	19	16	0	SIDEWALK	1303	n/a	n/a	1	0.57763671875	0.412841796875	1	lower	amplitud.ttf
2651334	WORD	wordpools/wasnorm_wordpool.txt	LTP147	ltpFR	19	16	0	VALVE	1546	n/a	n/a	0	0.57763671875	0.412841796875	1	lower	amplitud.ttf
2655382	WORD	wordpools/wasnorm_wordpool.txt	LTP147	ltpFR	19	16	0	CAP	236	n/a	n/a	0	0.57763671875	0.412841796875	1	lower	amplitud.ttf
2659472	WORD	wordpools/wasnorm_wordpool.txt	LTP147	ltpFR	19	16	0	AUTHOR	61	n/a	n/a	1	0.57763671875	0.412841796875	1	lower	amplitud.ttf
2663396	WORD	wordpools/wasnorm_wordpool.txt	LTP147	ltpFR	19	16	0	WRITER	1627	n/a	n/a	1	0.57763671875	0.412841796875	1	lower	amplitud.ttf
2667220	WORD	wordpools/wasnorm_wordpool.txt	LTP147	ltpFR	19	16	0	ELECTRICIAN	521	n/a	n/a	1	0.57763671875	0.412841796875	1	lower	amplitud.ttf
2671043	WORD	wordpools/wasnorm_wordpool.txt	LTP147	ltpFR	19	16	0	DRILL	497	n/a	n/a	0	0.57763671875	0.412841796875	1	lower	amplitud.ttf
2675175	WORD	wordpools/wasnorm_wordpool.txt	LTP147	ltpFR	19	16	0	BINDER	127	n/a	n/a	1	0.57763671875	0.412841796875	1	lower	amplitud.ttf
2681099	REC_START	n/a	LTP147	ltpFR	19	16	n/a	n/a	n/a	n/a	n/a	n/a	n/a	n/a	n/a	n/a	n/a
2682261	REC_WORD	wordpools/wasnorm_wordpool.txt	LTP147	ltpFR	19	16	0	ELECTRICIAN	521	n/a	n/a	1	n/a	n/a	n/a	n/a	n/a
2683348	REC_WORD	wordpools/wasnorm_wordpool.txt	LTP147	ltpFR	19	16	0	DRILL	497	n/a	n/a	0	n/a	n/a	n/a	n/a	n/a
2684227	REC_WORD	wordpools/wasnorm_wordpool.txt	LTP147	ltpFR	19	16	0	BINDER	127	n/a	n/a	1	n/a	n/a	n/a	n/a	n/a
2684911	REC_WORD	wordpools/wasnorm_wordpool.txt	LTP147	ltpFR	19	16	0	VALVE	1546	n/a	n/a	0	n/a	n/a	n/a	n/a	n/a
2686786	REC_WORD	wordpools/wasnorm_wordpool.txt	LTP147	ltpFR	19	16	0	TYPEWRITER	1531	n/a	n/a	1	n/a	n/a	n/a	n/a	n/a
2687639	REC_WORD	wordpools/wasnorm_wordpool.txt	LTP147	ltpFR	19	16	0	COMPUTER	359	n/a	n/a	1	n/a	n/a	n/a	n/a	n/a
2690757	REC_WORD	wordpools/wasnorm_wordpool.txt	LTP147	ltpFR	19	16	0	EMERALD	528	n/a	n/a	0	n/a	n/a	n/a	n/a	n/a
2691372	REC_WORD	wordpools/wasnorm_wordpool.txt	LTP147	ltpFR	19	16	0	SIDEWALK	1303	n/a	n/a	1	n/a	n/a	n/a	n/a	n/a
2694448	REC_WORD	wordpools/wasnorm_wordpool.txt	LTP147	ltpFR	19	16	0	AUTHOR	61	n/a	n/a	1	n/a	n/a	n/a	n/a	n/a
2696479	REC_WORD	wordpools/wasnorm_wordpool.txt	LTP147	ltpFR	19	16	0	WRITER	1627	n/a	n/a	1	n/a	n/a	n/a	n/a	n/a
2700415	REC_WORD	wordpools/wasnorm_wordpool.txt	LTP147	ltpFR	19	16	0	DRIVER	499	n/a	n/a	1	n/a	n/a	n/a	n/a	n/a
2706456	REC_WORD	wordpools/wasnorm_wordpool.txt	LTP147	ltpFR	19	16	0	CAP	236	n/a	n/a	0	n/a	n/a	n/a	n/a	n/a
2708866	REC_WORD	wordpools/wasnorm_wordpool.txt	LTP147	ltpFR	19	16	0	QUILT	1151	n/a	n/a	1	n/a	n/a	n/a	n/a	n/a
2715635	REC_WORD	wordpools/wasnorm_wordpool.txt	LTP147	ltpFR	19	16	0	NEWSSTAND	949	n/a	n/a	1	n/a	n/a	n/a	n/a	n/a
2716635	REC_WORD_VV	wordpools/wasnorm_wordpool.txt	LTP147	ltpFR	19	16	n/a	<>	-1	n/a	n/a	n/a	n/a	n/a	n/a	n/a	n/a
2718693	REC_WORD	wordpools/wasnorm_wordpool.txt	LTP147	ltpFR	19	16	0	GLUE	643	n/a	n/a	0	n/a	n/a	n/a	n/a	n/a
2737980	REC_WORD	wordpools/wasnorm_wordpool.txt	LTP147	ltpFR	19	16	0	ELECTRICIAN	521	n/a	n/a	1	n/a	n/a	n/a	n/a	n/a
2773491	REC_START	n/a	LTP147	ltpFR	19	1	n/a	n/a	n/a	n/a	n/a	n/a	n/a	n/a	n/a	n/a	n/a
2773523	RECOG_TARGET	n/a	LTP147	ltpFR	19	1	0	TOMB	1477	1	5	1	n/a	n/a	n/a	n/a	n/a
2774929	RECOG_RESP	n/a	LTP147	ltpFR	19	1	0	TOMB	1477	1	n/a	1	n/a	n/a	n/a	n/a	n/a
2776289	RECOG_CONF	n/a	LTP147	ltpFR	19	1	0	TOMB	1477	n/a	5	1	n/a	n/a	n/a	n/a	n/a
2777838	RECOG_TARGET	n/a	LTP147	ltpFR	19	1	1	FOOTBALL	591	1	5	0	n/a	n/a	n/a	n/a	n/a
2778572	RECOG_RESP	n/a	LTP147	ltpFR	19	1	1	FOOTBALL	591	1	n/a	0	n/a	n/a	n/a	n/a	n/a
2779446	RECOG_CONF	n/a	LTP147	ltpFR	19	1	1	FOOTBALL	591	n/a	5	0	n/a	n/a	n/a	n/a	n/a
2781029	RECOG_TARGET	n/a	LTP147	ltpFR	19	1	1	STEREO	1378	1	5	0	n/a	n/a	n/a	n/a	n/a
2781652	RECOG_RESP	n/a	LTP147	ltpFR	19	1	1	STEREO	1378	1	n/a	0	n/a	n/a	n/a	n/a	n/a
2782407	RECOG_CONF	n/a	LTP147	ltpFR	19	1	1	STEREO	1378	n/a	5	0	n/a	n/a	n/a	n/a	n/a
2783844	RECOG_TARGET	n/a	LTP147	ltpFR	19	1	1	DICTATOR	462	1	5	1	n/a	n/a	n/a	n/a	n/a
2784492	RECOG_RESP	n/a	LTP147	ltpFR	19	1	1	DICTATOR	462	1	n/a	1	n/a	n/a	n/a	n/a	n/a
2785164	RECOG_CONF	n/a	LTP147	ltpFR	19	1	1	DICTATOR	462	n/a	5	1	n/a	n/a	n/a	n/a	n/a
2786502	RECOG_TARGET	n/a	LTP147	ltpFR	19	1	-1	MINK	897	1	5	-1	n/a	n/a	n/a	n/a	n/a
2787101	RECOG_RESP	n/a	LTP147	ltpFR	19	1	-1	MINK	897	1	n/a	-1	n/a	n/a	n/a	n/a	n/a
2787923	RECOG_CONF	n/a	LTP147	ltpFR	19	1	-1	MINK	897	n/a	5	-1	n/a	n/a	n/a	n/a	n/a
2789151	RECOG_TARGET	n/a	LTP147	ltpFR	19	1	-1	CURB	426	1	5	-1	n/a	n/a	n/a	n/a	n/a
2789781	RECOG_RESP	n/a	LTP147	ltpFR	19	1	-1	CURB	426	1	n/a	-1	n/a	n/a	n/a	n/a	n/a
2790507	RECOG_CONF	n/a	LTP147	ltpFR	19	1	-1	CURB	426	n/a	5	-1	n/a	n/a	n/a	n/a	n/a
2791758	RECOG_TARGET	n/a	LTP147	ltpFR	19	1	0	SLIDE	1326	1	5	1	n/a	n/a	n/a	n/a	n/a
2792378	RECOG_RESP	n/a	LTP147	ltpFR	19	1	0	SLIDE	1326	1	n/a	1	n/a	n/a	n/a	n/a	n/a
2793092	RECOG_CONF	n/a	LTP147	ltpFR	19	1	0	SLIDE	1326	n/a	5	1	n/a	n/a	n/a	n/a	n/a
2794483	RECOG_LURE	n/a	LTP147	ltpFR	19	1	n/a	CANDY	230	0	5	n/a	n/a	n/a	n/a	n/a	n/a
2795036	RECOG_RESP_VV	n/a	LTP147	ltpFR	19	1	n/a	CANDY	230	1	n/a	n/a	n/a	n/a	n/a	n/a	n/a
2795978	RECOG_RESP	n/a	LTP147	ltpFR	19	1	n/a	CANDY	230	0	n/a	n/a	n/a	n/a	n/a	n/a	n/a
2796793	RECOG_CONF	n/a	LTP147	ltpFR	19	1	n/a	CANDY	230	n/a	5	n/a	n/a	n/a	n/a	n/a	n/a
2798131	RECOG_TARGET	n/a	LTP147	ltpFR	19	1	-1	OPERA	978	1	5	-1	n/a	n/a	n/a	n/a	n/a
2798744	RECOG_RESP	n/a	LTP147	ltpFR	19	1	-1	OPERA	978	1	n/a	-1	n/a	n/a	n/a	n/a	n/a
2799393	RECOG_CONF	n/a	LTP147	ltpFR	19	1	-1	OPERA	978	n/a	5	-1	n/a	n/a	n/a	n/a	n/a
2800655	RECOG_TARGET	n/a	LTP147	ltpFR	19	1	-1	SKIN	1318	1	5	-1	n/a	n/a	n/a	n/a	n/a
2801188	RECOG_RESP	n/a	LTP147	ltpFR	19	1	-1	SKIN	1318	1	n/a	-1	n/a	n/a	n/a	n/a	n/a
2802111	RECOG_CONF	n/a	LTP147	ltpFR	19	1	-1	SKIN	1318	n/a	5	-1	n/a	n/a	n/a	n/a	n/a
2803304	RECOG_TARGET	n/a	LTP147	ltpFR	19	1	0	PIER	1063	1	5	1	n/a	n/a	n/a	n/a	n/a
2803856	RECOG_RESP	n/a	LTP147	ltpFR	19	1	0	PIER	1063	1	n/a	1	n/a	n/a	n/a	n/a	n/a
2804493	RECOG_CONF	n/a	LTP147	ltpFR	19	1	0	PIER	1063	n/a	5	1	n/a	n/a	n/a	n/a	n/a
2805869	RECOG_LURE	n/a	LTP147	ltpFR	19	1	n/a	FRUIT	610	1	4	n/a	n/a	n/a	n/a	n/a	n/a
2806786	RECOG_RESP	n/a	LTP147	ltpFR	19	1	n/a	FRUIT	610	1	n/a	n/a	n/a	n/a	n/a	n/a	n/a
2808128	RECOG_CONF	n/a	LTP147	ltpFR	19	1	n/a	FRUIT	610	n/a	4	n/a	n/a	n/a	n/a	n/a	n/a
2809611	RECOG_TARGET	n/a	LTP147	ltpFR	19	1	1	VENUS	1557	1	5	1	n/a	n/a	n/a	n/a	n/a
2810394	RECOG_RESP	n/a	LTP147	ltpFR	19	1	1	VENUS	1557	1	n/a	1	n/a	n/a	n/a	n/a	n/a
2811080	RECOG_CONF	n/a	LTP147	ltpFR	19	1	1	VENUS	1557	n/a	5	1	n/a	n/a	n/a	n/a	n/a
2812193	RECOG_TARGET	n/a	LTP147	ltpFR	19	1	0	OCEAN	970	1	5	1	n/a	n/a	n/a	n/a	n/a
2812868	RECOG_RESP	n/a	LTP147	ltpFR	19	1	0	OCEAN	970	1	n/a	1	n/a	n/a	n/a	n/a	n/a
2813555	RECOG_CONF	n/a	LTP147	ltpFR	19	1	0	OCEAN	970	n/a	5	1	n/a	n/a	n/a	n/a	n/a
2814683	RECOG_LURE	n/a	LTP147	ltpFR	19	1	n/a	WINDOW	1611	0	4	n/a	n/a	n/a	n/a	n/a	n/a
2815370	RECOG_RESP	n/a	LTP147	ltpFR	19	1	n/a	WINDOW	1611	0	n/a	n/a	n/a	n/a	n/a	n/a	n/a
2815904	RECOG_CONF	n/a	LTP147	ltpFR	19	1	n/a	WINDOW	1611	n/a	4	n/a	n/a	n/a	n/a	n/a	n/a
2817066	RECOG_LURE	n/a	LTP147	ltpFR	19	1	n/a	CARD	243	1	4	n/a	n/a	n/a	n/a	n/a	n/a
2817682	RECOG_RESP	n/a	LTP147	ltpFR	19	1	n/a	CARD	243	1	n/a	n/a	n/a	n/a	n/a	n/a	n/a
2818244	RECOG_CONF	n/a	LTP147	ltpFR	19	1	n/a	CARD	243	n/a	4	n/a	n/a	n/a	n/a	n/a	n/a
2819440	RECOG_LURE	n/a	LTP147	ltpFR	19	1	n/a	BAND	78	0	4	n/a	n/a	n/a	n/a	n/a	n/a
2820395	RECOG_RESP	n/a	LTP147	ltpFR	19	1	n/a	BAND	78	0	n/a	n/a	n/a	n/a	n/a	n/a	n/a
2820952	RECOG_CONF	n/a	LTP147	ltpFR	19	1	n/a	BAND	78	n/a	4	n/a	n/a	n/a	n/a	n/a	n/a
2822098	RECOG_TARGET	n/a	LTP147	ltpFR	19	1	-1	NECK	939	1	5	-1	n/a	n/a	n/a	n/a	n/a
2822795	RECOG_RESP	n/a	LTP147	ltpFR	19	1	-1	NECK	939	1	n/a	-1	n/a	n/a	n/a	n/a	n/a
2823362	RECOG_CONF	n/a	LTP147	ltpFR	19	1	-1	NECK	939	n/a	5	-1	n/a	n/a	n/a	n/a	n/a
2824522	RECOG_TARGET	n/a	LTP147	ltpFR	19	1	0	CARTON	251	1	5	0	n/a	n/a	n/a	n/a	n/a
2825400	RECOG_RESP	n/a	LTP147	ltpFR	19	1	0	CARTON	251	1	n/a	0	n/a	n/a	n/a	n/a	n/a
2825896	RECOG_CONF	n/a	LTP147	ltpFR	19	1	0	CARTON	251	n/a	5	0	n/a	n/a	n/a	n/a	n/a
2827096	RECOG_TARGET	n/a	LTP147	ltpFR	19	1	0	EMPIRE	530	1	5	1	n/a	n/a	n/a	n/a	n/a
2827693	RECOG_RESP	n/a	LTP147	ltpFR	19	1	0	EMPIRE	530	1	n/a	1	n/a	n/a	n/a	n/a	n/a
2828221	RECOG_CONF	n/a	LTP147	ltpFR	19	1	0	EMPIRE	530	n/a	5	1	n/a	n/a	n/a	n/a	n/a
2831193	REC_START	n/a	LTP147	ltpFR	19	2	n/a	n/a	n/a	n/a	n/a	n/a	n/a	n/a	n/a	n/a	n/a
2831228	RECOG_TARGET	n/a	LTP147	ltpFR	19	2	0	COW	393	1	5	1	n/a	n/a	n/a	n/a	n/a
2831855	RECOG_RESP	n/a	LTP147	ltpFR	19	2	0	COW	393	1	n/a	1	n/a	n/a	n/a	n/a	n/a
2832495	RECOG_CONF	n/a	LTP147	ltpFR	19	2	0	COW	393	n/a	5	1	n/a	n/a	n/a	n/a	n/a
2833510	RECOG_TARGET	n/a	LTP147	ltpFR	19	2	0	CAP	236	1	5	0	n/a	n/a	n/a	n/a	n/a
2833983	RECOG_RESP	n/a	LTP147	ltpFR	19	2	0	CAP	236	1	n/a	0	n/a	n/a	n/a	n/a	n/a
2834560	RECOG_CONF	n/a	LTP147	ltpFR	19	2	0	CAP	236	n/a	5	0	n/a	n/a	n/a	n/a	n/a
2835684	RECOG_TARGET	n/a	LTP147	ltpFR	19	2	0	CONTRACT	368	1	5	1	n/a	n/a	n/a	n/a	n/a
2836347	RECOG_RESP_VV	n/a	LTP147	ltpFR	19	2	0	CONTRACT	368	0	n/a	1	n/a	n/a	n/a	n/a	n/a
2837179	RECOG_RESP	n/a	LTP147	ltpFR	19	2	0	CONTRACT	368	1	n/a	1	n/a	n/a	n/a	n/a	n/a
2837861	RECOG_CONF	n/a	LTP147	ltpFR	19	2	0	CONTRACT	368	n/a	5	1	n/a	n/a	n/a	n/a	n/a
2839050	RECOG_LURE	n/a	LTP147	ltpFR	19	2	n/a	CANNON	232	0	5	n/a	n/a	n/a	n/a	n/a	n/a
2839778	RECOG_RESP	n/a	LTP147	ltpFR	19	2	n/a	CANNON	232	0	n/a	n/a	n/a	n/a	n/a	n/a	n/a
2840207	RECOG_CONF	n/a	LTP147	ltpFR	19	2	n/a	CANNON	232	n/a	5	n/a	n/a	n/a	n/a	n/a	n/a
2841391	RECOG_TARGET	n/a	LTP147	ltpFR	19	2	0	BEE	112	1	5	0	n/a	n/a	n/a	n/a	n/a
2842033	RECOG_RESP	n/a	LTP147	ltpFR	19	2	0	BEE	112	1	n/a	0	n/a	n/a	n/a	n/a	n/a
2842562	RECOG_CONF	n/a	LTP147	ltpFR	19	2	0	BEE	112	n/a	5	0	n/a	n/a	n/a	n/a	n/a
2843640	RECOG_TARGET	n/a	LTP147	ltpFR	19	2	1	YARN	1631	1	5	0	n/a	n/a	n/a	n/a	n/a
2844250	RECOG_RESP	n/a	LTP147	ltpFR	19	2	1	YARN	1631	1	n/a	0	n/a	n/a	n/a	n/a	n/a
2844907	RECOG_CONF	n/a	LTP147	ltpFR	19	2	1	YARN	1631	n/a	5	0	n/a	n/a	n/a	n/a	n/a
2846123	RECOG_TARGET	n/a	LTP147	ltpFR	19	2	0	RELATIVE	1182	1	5	1	n/a	n/a	n/a	n/a	n/a
2846717	RECOG_RESP	n/a	LTP147	ltpFR	19	2	0	RELATIVE	1182	1	n/a	1	n/a	n/a	n/a	n/a	n/a
2847281	RECOG_CONF	n/a	LTP147	ltpFR	19	2	0	RELATIVE	1182	n/a	5	1	n/a	n/a	n/a	n/a	n/a
2848388	RECOG_TARGET	n/a	LTP147	ltpFR	19	2	-1	CHEF	290	1	5	-1	n/a	n/a	n/a	n/a	n/a
2848890	RECOG_RESP	n/a	LTP147	ltpFR	19	2	-1	CHEF	290	1	n/a	-1	n/a	n/a	n/a	n/a	n/a
2849456	RECOG_CONF	n/a	LTP147	ltpFR	19	2	-1	CHEF	290	n/a	5	-1	n/a	n/a	n/a	n/a	n/a
2850413	RECOG_TARGET	n/a	LTP147	ltpFR	19	2	0	GLUE	643	1	5	0	n/a	n/a	n/a	n/a	n/a
2850969	RECOG_RESP	n/a	LTP147	ltpFR	19	2	0	GLUE	643	1	n/a	0	n/a	n/a	n/a	n/a	n/a
2851542	RECOG_CONF	n/a	LTP147	ltpFR	19	2	0	GLUE	643	n/a	5	0	n/a	n/a	n/a	n/a	n/a
2852554	RECOG_LURE	n/a	LTP147	ltpFR	19	2	n/a	MOTH	920	0	5	n/a	n/a	n/a	n/a	n/a	n/a
2853337	RECOG_RESP	n/a	LTP147	ltpFR	19	2	n/a	MOTH	920	0	n/a	n/a	n/a	n/a	n/a	n/a	n/a
2853904	RECOG_CONF	n/a	LTP147	ltpFR	19	2	n/a	MOTH	920	n/a	5	n/a	n/a	n/a	n/a	n/a	n/a
2854986	RECOG_LURE	n/a	LTP147	ltpFR	19	2	n/a	PLANET	1082	0	4	n/a	n/a	n/a	n/a	n/a	n/a
2855505	RECOG_RESP_VV	n/a	LTP147	ltpFR	19	2	n/a	PLANET	1082	1	n/a	n/a	n/a	n/a	n/a	n/a	n/a
2855857	RECOG_RESP	n/a	LTP147	ltpFR	19	2	n/a	PLANET	1082	0	n/a	n/a	n/a	n/a	n/a	n/a	n/a
2856331	RECOG_CONF	n/a	LTP147	ltpFR	19	2	n/a	PLANET	1082	n/a	4	n/a	n/a	n/a	n/a	n/a	n/a
2857585	RECOG_TARGET	n/a	LTP147	ltpFR	19	2	-1	WOUND	1624	1	5	-1	n/a	n/a	n/a	n/a	n/a
2858148	RECOG_RESP	n/a	LTP147	ltpFR	19	2	-1	WOUND	1624	1	n/a	-1	n/a	n/a	n/a	n/a	n/a
2858723	RECOG_CONF	n/a	LTP147	ltpFR	19	2	-1	WOUND	1624	n/a	5	-1	n/a	n/a	n/a	n/a	n/a
2859825	RECOG_LURE	n/a	LTP147	ltpFR	19	2	n/a	VAGRANT	1544	0	5	n/a	n/a	n/a	n/a	n/a	n/a
2860479	RECOG_RESP	n/a	LTP147	ltpFR	19	2	n/a	VAGRANT	1544	0	n/a	n/a	n/a	n/a	n/a	n/a	n/a
2861036	RECOG_CONF	n/a	LTP147	ltpFR	19	2	n/a	VAGRANT	1544	n/a	5	n/a	n/a	n/a	n/a	n/a	n/a
2862175	RECOG_TARGET	n/a	LTP147	ltpFR	19	2	1	CART	250	1	5	0	n/a	n/a	n/a	n/a	n/a
2862796	RECOG_RESP	n/a	LTP147	ltpFR	19	2	1	CART	250	1	n/a	0	n/a	n/a	n/a	n/a	n/a
2863415	RECOG_CONF	n/a	LTP147	ltpFR	19	2	1	CART	250	n/a	5	0	n/a	n/a	n/a	n/a	n/a
2864558	RECOG_LURE	n/a	LTP147	ltpFR	19	2	n/a	MOUNTAIN	924	0	5	n/a	n/a	n/a	n/a	n/a	n/a
2865168	RECOG_RESP	n/a	LTP147	ltpFR	19	2	n/a	MOUNTAIN	924	0	n/a	n/a	n/a	n/a	n/a	n/a	n/a
2865679	RECOG_CONF	n/a	LTP147	ltpFR	19	2	n/a	MOUNTAIN	924	n/a	5	n/a	n/a	n/a	n/a	n/a	n/a
2866723	RECOG_TARGET	n/a	LTP147	ltpFR	19	2	1	TORTOISE	1486	1	4	1	n/a	n/a	n/a	n/a	n/a
2867819	RECOG_RESP_VV	n/a	LTP147	ltpFR	19	2	1	TORTOISE	1486	0	n/a	1	n/a	n/a	n/a	n/a	n/a
2869175	RECOG_RESP	n/a	LTP147	ltpFR	19	2	1	TORTOISE	1486	1	n/a	1	n/a	n/a	n/a	n/a	n/a
2869773	RECOG_CONF	n/a	LTP147	ltpFR	19	2	1	TORTOISE	1486	n/a	4	1	n/a	n/a	n/a	n/a	n/a
2871130	RECOG_TARGET	n/a	LTP147	ltpFR	19	2	1	ACID	2	1	5	0	n/a	n/a	n/a	n/a	n/a
2871748	RECOG_RESP	n/a	LTP147	ltpFR	19	2	1	ACID	2	1	n/a	0	n/a	n/a	n/a	n/a	n/a
2872323	RECOG_CONF	n/a	LTP147	ltpFR	19	2	1	ACID	2	n/a	5	0	n/a	n/a	n/a	n/a	n/a
2873430	RECOG_TARGET	n/a	LTP147	ltpFR	19	2	1	BISCUIT	130	1	5	1	n/a	n/a	n/a	n/a	n/a
2874050	RECOG_RESP	n/a	LTP147	ltpFR	19	2	1	BISCUIT	130	1	n/a	1	n/a	n/a	n/a	n/a	n/a
2874599	RECOG_CONF	n/a	LTP147	ltpFR	19	2	1	BISCUIT	130	n/a	5	1	n/a	n/a	n/a	n/a	n/a
2875719	RECOG_LURE	n/a	LTP147	ltpFR	19	2	n/a	SIDING	1304	1	1	n/a	n/a	n/a	n/a	n/a	n/a
2876300	RECOG_RESP	n/a	LTP147	ltpFR	19	2	n/a	SIDING	1304	1	n/a	n/a	n/a	n/a	n/a	n/a	n/a
2877098	RECOG_CONF	n/a	LTP147	ltpFR	19	2	n/a	SIDING	1304	n/a	1	n/a	n/a	n/a	n/a	n/a	n/a
2878394	RECOG_TARGET	n/a	LTP147	ltpFR	19	2	0	CHIPMUNK	304	0	4	0	n/a	n/a	n/a	n/a	n/a
2879080	RECOG_RESP_VV	n/a	LTP147	ltpFR	19	2	0	CHIPMUNK	304	1	n/a	0	n/a	n/a	n/a	n/a	n/a
2880881	RECOG_RESP	n/a	LTP147	ltpFR	19	2	0	CHIPMUNK	304	0	n/a	0	n/a	n/a	n/a	n/a	n/a
2881474	RECOG_CONF	n/a	LTP147	ltpFR	19	2	0	CHIPMUNK	304	n/a	4	0	n/a	n/a	n/a	n/a	n/a
2884211	REC_START	n/a	LTP147	ltpFR	19	3	n/a	n/a	n/a	n/a	n/a	n/a	n/a	n/a	n/a	n/a	n/a
2884242	RECOG_LURE	n/a	LTP147	ltpFR	19	3	n/a	TOE	1473	0	4	n/a	n/a	n/a	n/a	n/a	n/a
2885062	RECOG_RESP	n/a	LTP147	ltpFR	19	3	n/a	TOE	1473	0	n/a	n/a	n/a	n/a	n/a	n/a	n/a
2885473	RECOG_CONF	n/a	LTP147	ltpFR	19	3	n/a	TOE	1473	n/a	4	n/a	n/a	n/a	n/a	n/a	n/a
2886566	RECOG_TARGET	n/a	LTP147	ltpFR	19	3	1	TIDE	1465	1	5	1	n/a	n/a	n/a	n/a	n/a
2887205	RECOG_RESP	n/a	LTP147	ltpFR	19	3	1	TIDE	1465	1	n/a	1	n/a	n/a	n/a	n/a	n/a
2887788	RECOG_CONF	n/a	LTP147	ltpFR	19	3	1	TIDE	1465	n/a	5	1	n/a	n/a	n/a	n/a	n/a
2888873	RECOG_LURE	n/a	LTP147	ltpFR	19	3	n/a	DYNAMITE	511	0	5	n/a	n/a	n/a	n/a	n/a	n/a
2889579	RECOG_RESP	n/a	LTP147	ltpFR	19	3	n/a	DYNAMITE	511	0	n/a	n/a	n/a	n/a	n/a	n/a	n/a
2890102	RECOG_CONF	n/a	LTP147	ltpFR	19	3	n/a	DYNAMITE	511	n/a	5	n/a	n/a	n/a	n/a	n/a	n/a
2891057	RECOG_TARGET	n/a	LTP147	ltpFR	19	3	1	WALL	1582	1	5	0	n/a	n/a	n/a	n/a	n/a
2891663	RECOG_RESP	n/a	LTP147	ltpFR	19	3	1	WALL	1582	1	n/a	0	n/a	n/a	n/a	n/a	n/a
2892277	RECOG_CONF	n/a	LTP147	ltpFR	19	3	1	WALL	1582	n/a	5	0	n/a	n/a	n/a	n/a	n/a
2893347	RECOG_LURE	n/a	LTP147	ltpFR	19	3	n/a	FUDGE	611	0	5	n/a	n/a	n/a	n/a	n/a	n/a
2893983	RECOG_RESP	n/a	LTP147	ltpFR	19	3	n/a	FUDGE	611	0	n/a	n/a	n/a	n/a	n/a	n/a	n/a
2894662	RECOG_CONF	n/a	LTP147	ltpFR	19	3	n/a	FUDGE	611	n/a	5	n/a	n/a	n/a	n/a	n/a	n/a
2895937	RECOG_LURE	n/a	LTP147	ltpFR	19	3	n/a	SHEARS	1276	0	4	n/a	n/a	n/a	n/a	n/a	n/a
2896422	RECOG_RESP_VV	n/a	LTP147	ltpFR	19	3	n/a	SHEARS	1276	1	n/a	n/a	n/a	n/a	n/a	n/a	n/a
2896784	RECOG_RESP	n/a	LTP147	ltpFR	19	3	n/a	SHEARS	1276	0	n/a	n/a	n/a	n/a	n/a	n/a	n/a
2897319	RECOG_CONF	n/a	LTP147	ltpFR	19	3	n/a	SHEARS	1276	n/a	4	n/a	n/a	n/a	n/a	n/a	n/a
2898604	RECOG_TARGET	n/a	LTP147	ltpFR	19	3	1	BULLY	196	1	5	1	n/a	n/a	n/a	n/a	n/a
2899159	RECOG_RESP	n/a	LTP147	ltpFR	19	3	1	BULLY	196	1	n/a	1	n/a	n/a	n/a	n/a	n/a
2899742	RECOG_CONF	n/a	LTP147	ltpFR	19	3	1	BULLY	196	n/a	5	1	n/a	n/a	n/a	n/a	n/a
2900869	RECOG_TARGET	n/a	LTP147	ltpFR	19	3	1	JEANS	752	1	5	0	n/a	n/a	n/a	n/a	n/a
2901457	RECOG_RESP	n/a	LTP147	ltpFR	19	3	1	JEANS	752	1	n/a	0	n/a	n/a	n/a	n/a	n/a
2902075	RECOG_CONF	n/a	LTP147	ltpFR	19	3	1	JEANS	752	n/a	5	0	n/a	n/a	n/a	n/a	n/a
2903219	RECOG_TARGET	n/a	LTP147	ltpFR	19	3	-1	SCALE	1241	1	5	-1	n/a	n/a	n/a	n/a	n/a
2903688	RECOG_RESP	n/a	LTP147	ltpFR	19	3	-1	SCALE	1241	1	n/a	-1	n/a	n/a	n/a	n/a	n/a
2904252	RECOG_CONF	n/a	LTP147	ltpFR	19	3	-1	SCALE	1241	n/a	5	-1	n/a	n/a	n/a	n/a	n/a
2905393	RECOG_LURE	n/a	LTP147	ltpFR	19	3	n/a	FLANNEL	574	0	5	n/a	n/a	n/a	n/a	n/a	n/a
2906077	RECOG_RESP	n/a	LTP147	ltpFR	19	3	n/a	FLANNEL	574	0	n/a	n/a	n/a	n/a	n/a	n/a	n/a
2906695	RECOG_CONF	n/a	LTP147	ltpFR	19	3	n/a	FLANNEL	574	n/a	5	n/a	n/a	n/a	n/a	n/a	n/a
2907766	RECOG_TARGET	n/a	LTP147	ltpFR	19	3	1	CABBAGE	210	1	5	1	n/a	n/a	n/a	n/a	n/a
2908299	RECOG_RESP	n/a	LTP147	ltpFR	19	3	1	CABBAGE	210	1	n/a	1	n/a	n/a	n/a	n/a	n/a
2909040	RECOG_CONF	n/a	LTP147	ltpFR	19	3	1	CABBAGE	210	n/a	5	1	n/a	n/a	n/a	n/a	n/a
2910016	RECOG_TARGET	n/a	LTP147	ltpFR	19	3	-1	FROST	609	1	5	-1	n/a	n/a	n/a	n/a	n/a
2910501	RECOG_RESP	n/a	LTP147	ltpFR	19	3	-1	FROST	609	1	n/a	-1	n/a	n/a	n/a	n/a	n/a
2911075	RECOG_CONF	n/a	LTP147	ltpFR	19	3	-1	FROST	609	n/a	5	-1	n/a	n/a	n/a	n/a	n/a
2912224	RECOG_TARGET	n/a	LTP147	ltpFR	19	3	0	TURNIP	1521	1	5	0	n/a	n/a	n/a	n/a	n/a
2912834	RECOG_RESP	n/a	LTP147	ltpFR	19	3	0	TURNIP	1521	1	n/a	0	n/a	n/a	n/a	n/a	n/a
2913459	RECOG_CONF	n/a	LTP147	ltpFR	19	3	0	TURNIP	1521	n/a	5	0	n/a	n/a	n/a	n/a	n/a
2914615	RECOG_TARGET	n/a	LTP147	ltpFR	19	3	0	COMPUTER	359	1	5	1	n/a	n/a	n/a	n/a	n/a
2915036	RECOG_RESP	n/a	LTP147	ltpFR	19	3	0	COMPUTER	359	1	n/a	1	n/a	n/a	n/a	n/a	n/a
2915789	RECOG_CONF	n/a	LTP147	ltpFR	19	3	0	COMPUTER	359	n/a	5	1	n/a	n/a	n/a	n/a	n/a
2917414	RECOG_TARGET	n/a	LTP147	ltpFR	19	3	1	PEDESTRIAN	1038	1	5	1	n/a	n/a	n/a	n/a	n/a
2917984	RECOG_RESP	n/a	LTP147	ltpFR	19	3	1	PEDESTRIAN	1038	1	n/a	1	n/a	n/a	n/a	n/a	n/a
2918578	RECOG_CONF	n/a	LTP147	ltpFR	19	3	1	PEDESTRIAN	1038	n/a	5	1	n/a	n/a	n/a	n/a	n/a
2919621	RECOG_TARGET	n/a	LTP147	ltpFR	19	3	0	MUG	930	1	5	0	n/a	n/a	n/a	n/a	n/a
2920086	RECOG_RESP	n/a	LTP147	ltpFR	19	3	0	MUG	930	1	n/a	0	n/a	n/a	n/a	n/a	n/a
2920653	RECOG_CONF	n/a	LTP147	ltpFR	19	3	0	MUG	930	n/a	5	0	n/a	n/a	n/a	n/a	n/a
2921853	RECOG_LURE	n/a	LTP147	ltpFR	19	3	n/a	ENGINE	535	1	4	n/a	n/a	n/a	n/a	n/a	n/a
2922272	RECOG_RESP	n/a	LTP147	ltpFR	19	3	n/a	ENGINE	535	1	n/a	n/a	n/a	n/a	n/a	n/a	n/a
2922768	RECOG_CONF	n/a	LTP147	ltpFR	19	3	n/a	ENGINE	535	n/a	4	n/a	n/a	n/a	n/a	n/a	n/a
2923819	RECOG_TARGET	n/a	LTP147	ltpFR	19	3	1	PANTS	1010	1	5	0	n/a	n/a	n/a	n/a	n/a
2924321	RECOG_RESP	n/a	LTP147	ltpFR	19	3	1	PANTS	1010	1	n/a	0	n/a	n/a	n/a	n/a	n/a
2924873	RECOG_CONF	n/a	LTP147	ltpFR	19	3	1	PANTS	1010	n/a	5	0	n/a	n/a	n/a	n/a	n/a
2925918	RECOG_TARGET	n/a	LTP147	ltpFR	19	3	0	REBEL	1172	1	5	1	n/a	n/a	n/a	n/a	n/a
2926418	RECOG_RESP	n/a	LTP147	ltpFR	19	3	0	REBEL	1172	1	n/a	1	n/a	n/a	n/a	n/a	n/a
2926959	RECOG_CONF	n/a	LTP147	ltpFR	19	3	0	REBEL	1172	n/a	5	1	n/a	n/a	n/a	n/a	n/a
2928027	RECOG_LURE	n/a	LTP147	ltpFR	19	3	n/a	WILDERNESS	1610	0	4	n/a	n/a	n/a	n/a	n/a	n/a
2928691	RECOG_RESP	n/a	LTP147	ltpFR	19	3	n/a	WILDERNESS	1610	0	n/a	n/a	n/a	n/a	n/a	n/a	n/a
2929467	RECOG_CONF	n/a	LTP147	ltpFR	19	3	n/a	WILDERNESS	1610	n/a	4	n/a	n/a	n/a	n/a	n/a	n/a
2931692	REC_START	n/a	LTP147	ltpFR	19	4	n/a	n/a	n/a	n/a	n/a	n/a	n/a	n/a	n/a	n/a	n/a
2931724	RECOG_TARGET	n/a	LTP147	ltpFR	19	4	-1	RESORT	1186	1	5	-1	n/a	n/a	n/a	n/a	n/a
2932266	RECOG_RESP	n/a	LTP147	ltpFR	19	4	-1	RESORT	1186	1	n/a	-1	n/a	n/a	n/a	n/a	n/a
2932794	RECOG_CONF	n/a	LTP147	ltpFR	19	4	-1	RESORT	1186	n/a	5	-1	n/a	n/a	n/a	n/a	n/a
2933857	RECOG_LURE	n/a	LTP147	ltpFR	19	4	n/a	MACARONI	851	0	5	n/a	n/a	n/a	n/a	n/a	n/a
2934603	RECOG_RESP	n/a	LTP147	ltpFR	19	4	n/a	MACARONI	851	0	n/a	n/a	n/a	n/a	n/a	n/a	n/a
2935253	RECOG_CONF	n/a	LTP147	ltpFR	19	4	n/a	MACARONI	851	n/a	5	n/a	n/a	n/a	n/a	n/a	n/a
2936324	RECOG_LURE	n/a	LTP147	ltpFR	19	4	n/a	RAKE	1164	0	4	n/a	n/a	n/a	n/a	n/a	n/a
2936974	RECOG_RESP	n/a	LTP147	ltpFR	19	4	n/a	RAKE	1164	0	n/a	n/a	n/a	n/a	n/a	n/a	n/a
2937668	RECOG_CONF	n/a	LTP147	ltpFR	19	4	n/a	RAKE	1164	n/a	4	n/a	n/a	n/a	n/a	n/a	n/a
2938665	RECOG_TARGET	n/a	LTP147	ltpFR	19	4	1	SWAMP	1416	1	5	0	n/a	n/a	n/a	n/a	n/a
2939242	RECOG_RESP	n/a	LTP147	ltpFR	19	4	1	SWAMP	1416	1	n/a	0	n/a	n/a	n/a	n/a	n/a
2939838	RECOG_CONF	n/a	LTP147	ltpFR	19	4	1	SWAMP	1416	n/a	5	0	n/a	n/a	n/a	n/a	n/a
2940989	RECOG_TARGET	n/a	LTP147	ltpFR	19	4	0	PARENT	1013	1	5	1	n/a	n/a	n/a	n/a	n/a
2941633	RECOG_RESP	n/a	LTP147	ltpFR	19	4	0	PARENT	1013	1	n/a	1	n/a	n/a	n/a	n/a	n/a
2942236	RECOG_CONF	n/a	LTP147	ltpFR	19	4	0	PARENT	1013	n/a	5	1	n/a	n/a	n/a	n/a	n/a
2943396	RECOG_LURE	n/a	LTP147	ltpFR	19	4	n/a	PADDING	999	0	5	n/a	n/a	n/a	n/a	n/a	n/a
2944153	RECOG_RESP	n/a	LTP147	ltpFR	19	4	n/a	PADDING	999	0	n/a	n/a	n/a	n/a	n/a	n/a	n/a
2944677	RECOG_CONF	n/a	LTP147	ltpFR	19	4	n/a	PADDING	999	n/a	5	n/a	n/a	n/a	n/a	n/a	n/a
2945769	RECOG_TARGET	n/a	LTP147	ltpFR	19	4	1	CHECK	284	1	5	0	n/a	n/a	n/a	n/a	n/a
2946522	RECOG_RESP	n/a	LTP147	ltpFR	19	4	1	CHECK	284	1	n/a	0	n/a	n/a	n/a	n/a	n/a
2947082	RECOG_CONF	n/a	LTP147	ltpFR	19	4	1	CHECK	284	n/a	5	0	n/a	n/a	n/a	n/a	n/a
2948195	RECOG_TARGET	n/a	LTP147	ltpFR	19	4	1	RIVER	1194	1	5	1	n/a	n/a	n/a	n/a	n/a
2948687	RECOG_RESP	n/a	LTP147	ltpFR	19	4	1	RIVER	1194	1	n/a	1	n/a	n/a	n/a	n/a	n/a
2949195	RECOG_CONF	n/a	LTP147	ltpFR	19	4	1	RIVER	1194	n/a	5	1	n/a	n/a	n/a	n/a	n/a
2950335	RECOG_LURE	n/a	LTP147	ltpFR	19	4	n/a	LAWYER	806	0	5	n/a	n/a	n/a	n/a	n/a	n/a
2950929	RECOG_RESP	n/a	LTP147	ltpFR	19	4	n/a	LAWYER	806	0	n/a	n/a	n/a	n/a	n/a	n/a	n/a
2951492	RECOG_CONF	n/a	LTP147	ltpFR	19	4	n/a	LAWYER	806	n/a	5	n/a	n/a	n/a	n/a	n/a	n/a
2952585	RECOG_TARGET	n/a	LTP147	ltpFR	19	4	-1	CASHEW	253	1	5	-1	n/a	n/a	n/a	n/a	n/a
2953147	RECOG_RESP	n/a	LTP147	ltpFR	19	4	-1	CASHEW	253	1	n/a	-1	n/a	n/a	n/a	n/a	n/a
2953757	RECOG_CONF	n/a	LTP147	ltpFR	19	4	-1	CASHEW	253	n/a	5	-1	n/a	n/a	n/a	n/a	n/a
2954891	RECOG_TARGET	n/a	LTP147	ltpFR	19	4	1	ROCK	1201	1	5	0	n/a	n/a	n/a	n/a	n/a
2955370	RECOG_RESP	n/a	LTP147	ltpFR	19	4	1	ROCK	1201	1	n/a	0	n/a	n/a	n/a	n/a	n/a
2955912	RECOG_CONF	n/a	LTP147	ltpFR	19	4	1	ROCK	1201	n/a	5	0	n/a	n/a	n/a	n/a	n/a
2957125	RECOG_TARGET	n/a	LTP147	ltpFR	19	4	1	VICTOR	1563	1	5	1	n/a	n/a	n/a	n/a	n/a
2957582	RECOG_RESP	n/a	LTP147	ltpFR	19	4	1	VICTOR	1563	1	n/a	1	n/a	n/a	n/a	n/a	n/a
2958167	RECOG_CONF	n/a	LTP147	ltpFR	19	4	1	VICTOR	1563	n/a	5	1	n/a	n/a	n/a	n/a	n/a
2959282	RECOG_LURE	n/a	LTP147	ltpFR	19	4	n/a	SPOOL	1356	0	4	n/a	n/a	n/a	n/a	n/a	n/a
2959750	RECOG_RESP_VV	n/a	LTP147	ltpFR	19	4	n/a	SPOOL	1356	1	n/a	n/a	n/a	n/a	n/a	n/a	n/a
2960324	RECOG_RESP	n/a	LTP147	ltpFR	19	4	n/a	SPOOL	1356	0	n/a	n/a	n/a	n/a	n/a	n/a	n/a
2961023	RECOG_CONF	n/a	LTP147	ltpFR	19	4	n/a	SPOOL	1356	n/a	4	n/a	n/a	n/a	n/a	n/a	n/a
2962098	RECOG_LURE	n/a	LTP147	ltpFR	19	4	n/a	CHEESE	289	0	4	n/a	n/a	n/a	n/a	n/a	n/a
2962717	RECOG_RESP	n/a	LTP147	ltpFR	19	4	n/a	CHEESE	289	0	n/a	n/a	n/a	n/a	n/a	n/a	n/a
2963322	RECOG_CONF	n/a	LTP147	ltpFR	19	4	n/a	CHEESE	289	n/a	4	n/a	n/a	n/a	n/a	n/a	n/a
2964389	RECOG_TARGET	n/a	LTP147	ltpFR	19	4	-1	FIN	566	1	5	-1	n/a	n/a	n/a	n/a	n/a
2964932	RECOG_RESP	n/a	LTP147	ltpFR	19	4	-1	FIN	566	1	n/a	-1	n/a	n/a	n/a	n/a	n/a
2965500	RECOG_CONF	n/a	LTP147	ltpFR	19	4	-1	FIN	566	n/a	5	-1	n/a	n/a	n/a	n/a	n/a
2966571	RECOG_TARGET	n/a	LTP147	ltpFR	19	4	1	BRIEFCASE	175	1	4	0	n/a	n/a	n/a	n/a	n/a
2967167	RECOG_RESP	n/a	LTP147	ltpFR	19	4	1	BRIEFCASE	175	1	n/a	0	n/a	n/a	n/a	n/a	n/a
2967765	RECOG_CONF	n/a	LTP147	ltpFR	19	4	1	BRIEFCASE	175	n/a	4	0	n/a	n/a	n/a	n/a	n/a
2968928	RECOG_LURE	n/a	LTP147	ltpFR	19	4	n/a	COUCH	386	0	4	n/a	n/a	n/a	n/a	n/a	n/a
2969573	RECOG_RESP	n/a	LTP147	ltpFR	19	4	n/a	COUCH	386	0	n/a	n/a	n/a	n/a	n/a	n/a	n/a
2970203	RECOG_CONF	n/a	LTP147	ltpFR	19	4	n/a	COUCH	386	n/a	4	n/a	n/a	n/a	n/a	n/a	n/a
2971253	RECOG_LURE	n/a	LTP147	ltpFR	19	4	n/a	CRATER	400	0	4	n/a	n/a	n/a	n/a	n/a	n/a
2971874	RECOG_RESP	n/a	LTP147	ltpFR	19	4	n/a	CRATER	400	0	n/a	n/a	n/a	n/a	n/a	n/a	n/a
2972548	RECOG_CONF	n/a	LTP147	ltpFR	19	4	n/a	CRATER	400	n/a	4	n/a	n/a	n/a	n/a	n/a	n/a
2973569	RECOG_TARGET	n/a	LTP147	ltpFR	19	4	0	STEWARDESS	1381	1	5	1	n/a	n/a	n/a	n/a	n/a
2974259	RECOG_RESP	n/a	LTP147	ltpFR	19	4	0	STEWARDESS	1381	1	n/a	1	n/a	n/a	n/a	n/a	n/a
2974839	RECOG_CONF	n/a	LTP147	ltpFR	19	4	0	STEWARDESS	1381	n/a	5	1	n/a	n/a	n/a	n/a	n/a
2975917	RECOG_LURE	n/a	LTP147	ltpFR	19	4	n/a	CANAL	226	0	4	n/a	n/a	n/a	n/a	n/a	n/a
2976453	RECOG_RESP_VV	n/a	LTP147	ltpFR	19	4	n/a	CANAL	226	1	n/a	n/a	n/a	n/a	n/a	n/a	n/a
2977044	RECOG_RESP	n/a	LTP147	ltpFR	19	4	n/a	CANAL	226	0	n/a	n/a	n/a	n/a	n/a	n/a	n/a
2977642	RECOG_CONF	n/a	LTP147	ltpFR	19	4	n/a	CANAL	226	n/a	4	n/a	n/a	n/a	n/a	n/a	n/a
2980605	REC_START	n/a	LTP147	ltpFR	19	5	n/a	n/a	n/a	n/a	n/a	n/a	n/a	n/a	n/a	n/a	n/a
2980641	RECOG_TARGET	n/a	LTP147	ltpFR	19	5	1	FARMER	553	1	5	1	n/a	n/a	n/a	n/a	n/a
2981306	RECOG_RESP	n/a	LTP147	ltpFR	19	5	1	FARMER	553	1	n/a	1	n/a	n/a	n/a	n/a	n/a
2981800	RECOG_CONF	n/a	LTP147	ltpFR	19	5	1	FARMER	553	n/a	5	1	n/a	n/a	n/a	n/a	n/a
2982948	RECOG_LURE	n/a	LTP147	ltpFR	19	5	n/a	SNEAKER	1334	0	4	n/a	n/a	n/a	n/a	n/a	n/a
2983379	RECOG_RESP_VV	n/a	LTP147	ltpFR	19	5	n/a	SNEAKER	1334	1	n/a	n/a	n/a	n/a	n/a	n/a	n/a
2983941	RECOG_RESP	n/a	LTP147	ltpFR	19	5	n/a	SNEAKER	1334	0	n/a	n/a	n/a	n/a	n/a	n/a	n/a
2984491	RECOG_CONF	n/a	LTP147	ltpFR	19	5	n/a	SNEAKER	1334	n/a	4	n/a	n/a	n/a	n/a	n/a	n/a
2985631	RECOG_LURE	n/a	LTP147	ltpFR	19	5	n/a	LUGGAGE	847	0	4	n/a	n/a	n/a	n/a	n/a	n/a
2986401	RECOG_RESP	n/a	LTP147	ltpFR	19	5	n/a	LUGGAGE	847	0	n/a	n/a	n/a	n/a	n/a	n/a	n/a
2987115	RECOG_CONF	n/a	LTP147	ltpFR	19	5	n/a	LUGGAGE	847	n/a	4	n/a	n/a	n/a	n/a	n/a	n/a
2988439	RECOG_LURE	n/a	LTP147	ltpFR	19	5	n/a	ASIA	46	0	4	n/a	n/a	n/a	n/a	n/a	n/a
2989108	RECOG_RESP	n/a	LTP147	ltpFR	19	5	n/a	ASIA	46	0	n/a	n/a	n/a	n/a	n/a	n/a	n/a
2989739	RECOG_CONF	n/a	LTP147	ltpFR	19	5	n/a	ASIA	46	n/a	4	n/a	n/a	n/a	n/a	n/a	n/a
2990812	RECOG_TARGET	n/a	LTP147	ltpFR	19	5	1	BOULEVARD	156	1	5	0	n/a	n/a	n/a	n/a	n/a
2991536	RECOG_RESP	n/a	LTP147	ltpFR	19	5	1	BOULEVARD	156	1	n/a	0	n/a	n/a	n/a	n/a	n/a
2992104	RECOG_CONF	n/a	LTP147	ltpFR	19	5	1	BOULEVARD	156	n/a	5	0	n/a	n/a	n/a	n/a	n/a
2993295	RECOG_LURE	n/a	LTP147	ltpFR	19	5	n/a	JUVENILE	767	0	5	n/a	n/a	n/a	n/a	n/a	n/a
2993810	RECOG_RESP_VV	n/a	LTP147	ltpFR	19	5	n/a	JUVENILE	767	1	n/a	n/a	n/a	n/a	n/a	n/a	n/a
2994319	RECOG_RESP	n/a	LTP147	ltpFR	19	5	n/a	JUVENILE	767	0	n/a	n/a	n/a	n/a	n/a	n/a	n/a
2994897	RECOG_CONF	n/a	LTP147	ltpFR	19	5	n/a	JUVENILE	767	n/a	5	n/a	n/a	n/a	n/a	n/a	n/a
2996361	RECOG_LURE	n/a	LTP147	ltpFR	19	5	n/a	AUNT	60	0	4	n/a	n/a	n/a	n/a	n/a	n/a
2997982	RECOG_RESP	n/a	LTP147	ltpFR	19	5	n/a	AUNT	60	0	n/a	n/a	n/a	n/a	n/a	n/a	n/a
2998689	RECOG_CONF	n/a	LTP147	ltpFR	19	5	n/a	AUNT	60	n/a	4	n/a	n/a	n/a	n/a	n/a	n/a
2999884	RECOG_TARGET	n/a	LTP147	ltpFR	19	5	-1	BOY	161	1	5	-1	n/a	n/a	n/a	n/a	n/a
3000463	RECOG_RESP	n/a	LTP147	ltpFR	19	5	-1	BOY	161	1	n/a	-1	n/a	n/a	n/a	n/a	n/a
3001150	RECOG_CONF	n/a	LTP147	ltpFR	19	5	-1	BOY	161	n/a	5	-1	n/a	n/a	n/a	n/a	n/a
3002467	RECOG_TARGET	n/a	LTP147	ltpFR	19	5	1	MEAL	882	1	5	1	n/a	n/a	n/a	n/a	n/a
3003006	RECOG_RESP	n/a	LTP147	ltpFR	19	5	1	MEAL	882	1	n/a	1	n/a	n/a	n/a	n/a	n/a
3003527	RECOG_CONF	n/a	LTP147	ltpFR	19	5	1	MEAL	882	n/a	5	1	n/a	n/a	n/a	n/a	n/a
3004591	RECOG_LURE	n/a	LTP147	ltpFR	19	5	n/a	WOMAN	1620	1	4	n/a	n/a	n/a	n/a	n/a	n/a
3005242	RECOG_RESP	n/a	LTP147	ltpFR	19	5	n/a	WOMAN	1620	1	n/a	n/a	n/a	n/a	n/a	n/a	n/a
3005773	RECOG_CONF	n/a	LTP147	ltpFR	19	5	n/a	WOMAN	1620	n/a	4	n/a	n/a	n/a	n/a	n/a	n/a
3006889	RECOG_LURE	n/a	LTP147	ltpFR	19	5	n/a	WHIP	1604	0	5	n/a	n/a	n/a	n/a	n/a	n/a
3007601	RECOG_RESP	n/a	LTP147	ltpFR	19	5	n/a	WHIP	1604	0	n/a	n/a	n/a	n/a	n/a	n/a	n/a
3008127	RECOG_CONF	n/a	LTP147	ltpFR	19	5	n/a	WHIP	1604	n/a	5	n/a	n/a	n/a	n/a	n/a	n/a
3009256	RECOG_TARGET	n/a	LTP147	ltpFR	19	5	0	MEDICINE	886	1	5	0	n/a	n/a	n/a	n/a	n/a
3009795	RECOG_RESP	n/a	LTP147	ltpFR	19	5	0	MEDICINE	886	1	n/a	0	n/a	n/a	n/a	n/a	n/a
3010312	RECOG_CONF	n/a	LTP147	ltpFR	19	5	0	MEDICINE	886	n/a	5	0	n/a	n/a	n/a	n/a	n/a
3011414	RECOG_LURE	n/a	LTP147	ltpFR	19	5	n/a	RING	1193	0	4	n/a	n/a	n/a	n/a	n/a	n/a
3011924	RECOG_RESP_VV	n/a	LTP147	ltpFR	19	5	n/a	RING	1193	1	n/a	n/a	n/a	n/a	n/a	n/a	n/a
3012619	RECOG_RESP	n/a	LTP147	ltpFR	19	5	n/a	RING	1193	0	n/a	n/a	n/a	n/a	n/a	n/a	n/a
3013106	RECOG_CONF	n/a	LTP147	ltpFR	19	5	n/a	RING	1193	n/a	4	n/a	n/a	n/a	n/a	n/a	n/a
3014379	RECOG_LURE	n/a	LTP147	ltpFR	19	5	n/a	HAT	690	0	4	n/a	n/a	n/a	n/a	n/a	n/a
3015067	RECOG_RESP	n/a	LTP147	ltpFR	19	5	n/a	HAT	690	0	n/a	n/a	n/a	n/a	n/a	n/a	n/a
3015591	RECOG_CONF	n/a	LTP147	ltpFR	19	5	n/a	HAT	690	n/a	4	n/a	n/a	n/a	n/a	n/a	n/a
3016969	RECOG_LURE	n/a	LTP147	ltpFR	19	5	n/a	NURSERY	964	0	4	n/a	n/a	n/a	n/a	n/a	n/a
3017607	RECOG_RESP	n/a	LTP147	ltpFR	19	5	n/a	NURSERY	964	0	n/a	n/a	n/a	n/a	n/a	n/a	n/a
3018234	RECOG_CONF	n/a	LTP147	ltpFR	19	5	n/a	NURSERY	964	n/a	4	n/a	n/a	n/a	n/a	n/a	n/a
3019303	RECOG_TARGET	n/a	LTP147	ltpFR	19	5	0	COLOGNE	347	1	5	0	n/a	n/a	n/a	n/a	n/a
3020072	RECOG_RESP	n/a	LTP147	ltpFR	19	5	0	COLOGNE	347	1	n/a	0	n/a	n/a	n/a	n/a	n/a
3020798	RECOG_CONF	n/a	LTP147	ltpFR	19	5	0	COLOGNE	347	n/a	5	0	n/a	n/a	n/a	n/a	n/a
3022060	RECOG_TARGET	n/a	LTP147	ltpFR	19	5	0	RACCOON	1153	1	5	1	n/a	n/a	n/a	n/a	n/a
3022644	RECOG_RESP	n/a	LTP147	ltpFR	19	5	0	RACCOON	1153	1	n/a	1	n/a	n/a	n/a	n/a	n/a
3023273	RECOG_CONF	n/a	LTP147	ltpFR	19	5	0	RACCOON	1153	n/a	5	1	n/a	n/a	n/a	n/a	n/a
3024409	RECOG_TARGET	n/a	LTP147	ltpFR	19	5	0	BIKE	125	1	5	1	n/a	n/a	n/a	n/a	n/a
3024979	RECOG_RESP	n/a	LTP147	ltpFR	19	5	0	BIKE	125	1	n/a	1	n/a	n/a	n/a	n/a	n/a
3025627	RECOG_CONF	n/a	LTP147	ltpFR	19	5	0	BIKE	125	n/a	5	1	n/a	n/a	n/a	n/a	n/a
3026642	RECOG_LURE	n/a	LTP147	ltpFR	19	5	n/a	SEED	1266	0	4	n/a	n/a	n/a	n/a	n/a	n/a
3027293	RECOG_RESP	n/a	LTP147	ltpFR	19	5	n/a	SEED	1266	0	n/a	n/a	n/a	n/a	n/a	n/a	n/a
3027892	RECOG_CONF	n/a	LTP147	ltpFR	19	5	n/a	SEED	1266	n/a	4	n/a	n/a	n/a	n/a	n/a	n/a
3029016	RECOG_TARGET	n/a	LTP147	ltpFR	19	5	1	OX	994	1	5	1	n/a	n/a	n/a	n/a	n/a
3029544	RECOG_RESP	n/a	LTP147	ltpFR	19	5	1	OX	994	1	n/a	1	n/a	n/a	n/a	n/a	n/a
3030137	RECOG_CONF	n/a	LTP147	ltpFR	19	5	1	OX	994	n/a	5	1	n/a	n/a	n/a	n/a	n/a
3032817	REC_START	n/a	LTP147	ltpFR	19	6	n/a	n/a	n/a	n/a	n/a	n/a	n/a	n/a	n/a	n/a	n/a
3032855	RECOG_TARGET	n/a	LTP147	ltpFR	19	6	1	CORPORATION	382	1	5	0	n/a	n/a	n/a	n/a	n/a
3033786	RECOG_RESP	n/a	LTP147	ltpFR	19	6	1	CORPORATION	382	1	n/a	0	n/a	n/a	n/a	n/a	n/a
3034358	RECOG_CONF	n/a	LTP147	ltpFR	19	6	1	CORPORATION	382	n/a	5	0	n/a	n/a	n/a	n/a	n/a
3035489	RECOG_LURE	n/a	LTP147	ltpFR	19	6	n/a	EAR	513	0	5	n/a	n/a	n/a	n/a	n/a	n/a
3036126	RECOG_RESP	n/a	LTP147	ltpFR	19	6	n/a	EAR	513	0	n/a	n/a	n/a	n/a	n/a	n/a	n/a
3036703	RECOG_CONF	n/a	LTP147	ltpFR	19	6	n/a	EAR	513	n/a	5	n/a	n/a	n/a	n/a	n/a	n/a
3037837	RECOG_TARGET	n/a	LTP147	ltpFR	19	6	0	ADOLESCENT	7	1	5	1	n/a	n/a	n/a	n/a	n/a
3038421	RECOG_RESP	n/a	LTP147	ltpFR	19	6	0	ADOLESCENT	7	1	n/a	1	n/a	n/a	n/a	n/a	n/a
3038915	RECOG_CONF	n/a	LTP147	ltpFR	19	6	0	ADOLESCENT	7	n/a	5	1	n/a	n/a	n/a	n/a	n/a
3040029	RECOG_TARGET	n/a	LTP147	ltpFR	19	6	-1	GARAGE	621	1	5	-1	n/a	n/a	n/a	n/a	n/a
3040539	RECOG_RESP	n/a	LTP147	ltpFR	19	6	-1	GARAGE	621	1	n/a	-1	n/a	n/a	n/a	n/a	n/a
3041093	RECOG_CONF	n/a	LTP147	ltpFR	19	6	-1	GARAGE	621	n/a	5	-1	n/a	n/a	n/a	n/a	n/a
3042186	RECOG_TARGET	n/a	LTP147	ltpFR	19	6	0	DOUGH	489	1	5	0	n/a	n/a	n/a	n/a	n/a
3042546	RECOG_RESP	n/a	LTP147	ltpFR	19	6	0	DOUGH	489	1	n/a	0	n/a	n/a	n/a	n/a	n/a
3043128	RECOG_CONF	n/a	LTP147	ltpFR	19	6	0	DOUGH	489	n/a	5	0	n/a	n/a	n/a	n/a	n/a
3044610	RECOG_TARGET	n/a	LTP147	ltpFR	19	6	-1	ORGAN	984	1	5	-1	n/a	n/a	n/a	n/a	n/a
3045047	RECOG_RESP	n/a	LTP147	ltpFR	19	6	-1	ORGAN	984	1	n/a	-1	n/a	n/a	n/a	n/a	n/a
3045673	RECOG_CONF	n/a	LTP147	ltpFR	19	6	-1	ORGAN	984	n/a	5	-1	n/a	n/a	n/a	n/a	n/a
3046942	RECOG_TARGET	n/a	LTP147	ltpFR	19	6	1	MARBLE	867	1	4	0	n/a	n/a	n/a	n/a	n/a
3047363	RECOG_RESP	n/a	LTP147	ltpFR	19	6	1	MARBLE	867	1	n/a	0	n/a	n/a	n/a	n/a	n/a
3047972	RECOG_CONF	n/a	LTP147	ltpFR	19	6	1	MARBLE	867	n/a	4	0	n/a	n/a	n/a	n/a	n/a
3049159	RECOG_TARGET	n/a	LTP147	ltpFR	19	6	0	COOLER	375	1	5	1	n/a	n/a	n/a	n/a	n/a
3049760	RECOG_RESP	n/a	LTP147	ltpFR	19	6	0	COOLER	375	1	n/a	1	n/a	n/a	n/a	n/a	n/a
3050322	RECOG_CONF	n/a	LTP147	ltpFR	19	6	0	COOLER	375	n/a	5	1	n/a	n/a	n/a	n/a	n/a
3051491	RECOG_LURE	n/a	LTP147	ltpFR	19	6	n/a	EARRING	514	0	5	n/a	n/a	n/a	n/a	n/a	n/a
3051903	RECOG_RESP_VV	n/a	LTP147	ltpFR	19	6	n/a	EARRING	514	1	n/a	n/a	n/a	n/a	n/a	n/a	n/a
3052453	RECOG_RESP	n/a	LTP147	ltpFR	19	6	n/a	EARRING	514	0	n/a	n/a	n/a	n/a	n/a	n/a	n/a
3052906	RECOG_CONF	n/a	LTP147	ltpFR	19	6	n/a	EARRING	514	n/a	5	n/a	n/a	n/a	n/a	n/a	n/a
3054273	RECOG_LURE	n/a	LTP147	ltpFR	19	6	n/a	CLAMP	316	0	5	n/a	n/a	n/a	n/a	n/a	n/a
3054943	RECOG_RESP	n/a	LTP147	ltpFR	19	6	n/a	CLAMP	316	0	n/a	n/a	n/a	n/a	n/a	n/a	n/a
3055530	RECOG_CONF	n/a	LTP147	ltpFR	19	6	n/a	CLAMP	316	n/a	5	n/a	n/a	n/a	n/a	n/a	n/a
3056722	RECOG_TARGET	n/a	LTP147	ltpFR	19	6	1	SCENERY	1247	1	5	0	n/a	n/a	n/a	n/a	n/a
3057236	RECOG_RESP	n/a	LTP147	ltpFR	19	6	1	SCENERY	1247	1	n/a	0	n/a	n/a	n/a	n/a	n/a
3057771	RECOG_CONF	n/a	LTP147	ltpFR	19	6	1	SCENERY	1247	n/a	5	0	n/a	n/a	n/a	n/a	n/a
3058954	RECOG_TARGET	n/a	LTP147	ltpFR	19	6	-1	GUN	673	1	5	-1	n/a	n/a	n/a	n/a	n/a
3059484	RECOG_RESP	n/a	LTP147	ltpFR	19	6	-1	GUN	673	1	n/a	-1	n/a	n/a	n/a	n/a	n/a
3060030	RECOG_CONF	n/a	LTP147	ltpFR	19	6	-1	GUN	673	n/a	5	-1	n/a	n/a	n/a	n/a	n/a
3061129	RECOG_TARGET	n/a	LTP147	ltpFR	19	6	1	WATER	1594	1	5	1	n/a	n/a	n/a	n/a	n/a
3061632	RECOG_RESP	n/a	LTP147	ltpFR	19	6	1	WATER	1594	1	n/a	1	n/a	n/a	n/a	n/a	n/a
3062215	RECOG_CONF	n/a	LTP147	ltpFR	19	6	1	WATER	1594	n/a	5	1	n/a	n/a	n/a	n/a	n/a
3063304	RECOG_LURE	n/a	LTP147	ltpFR	19	6	n/a	NEWSPAPER	948	1	4	n/a	n/a	n/a	n/a	n/a	n/a
3063776	RECOG_RESP	n/a	LTP147	ltpFR	19	6	n/a	NEWSPAPER	948	1	n/a	n/a	n/a	n/a	n/a	n/a	n/a
3064350	RECOG_CONF	n/a	LTP147	ltpFR	19	6	n/a	NEWSPAPER	948	n/a	4	n/a	n/a	n/a	n/a	n/a	n/a
3065569	RECOG_LURE	n/a	LTP147	ltpFR	19	6	n/a	BALLOON	75	0	4	n/a	n/a	n/a	n/a	n/a	n/a
3066324	RECOG_RESP	n/a	LTP147	ltpFR	19	6	n/a	BALLOON	75	0	n/a	n/a	n/a	n/a	n/a	n/a	n/a
3066835	RECOG_CONF	n/a	LTP147	ltpFR	19	6	n/a	BALLOON	75	n/a	4	n/a	n/a	n/a	n/a	n/a	n/a
3067934	RECOG_LURE	n/a	LTP147	ltpFR	19	6	n/a	ICING	732	0	4	n/a	n/a	n/a	n/a	n/a	n/a
3068703	RECOG_RESP_VV	n/a	LTP147	ltpFR	19	6	n/a	ICING	732	1	n/a	n/a	n/a	n/a	n/a	n/a	n/a
3069360	RECOG_RESP	n/a	LTP147	ltpFR	19	6	n/a	ICING	732	0	n/a	n/a	n/a	n/a	n/a	n/a	n/a
3070027	RECOG_CONF	n/a	LTP147	ltpFR	19	6	n/a	ICING	732	n/a	4	n/a	n/a	n/a	n/a	n/a	n/a
3071151	RECOG_TARGET	n/a	LTP147	ltpFR	19	6	0	NEPTUNE	943	1	5	1	n/a	n/a	n/a	n/a	n/a
3071878	RECOG_RESP_VV	n/a	LTP147	ltpFR	19	6	0	NEPTUNE	943	0	n/a	1	n/a	n/a	n/a	n/a	n/a
3072231	RECOG_RESP	n/a	LTP147	ltpFR	19	6	0	NEPTUNE	943	1	n/a	1	n/a	n/a	n/a	n/a	n/a
3072851	RECOG_CONF	n/a	LTP147	ltpFR	19	6	0	NEPTUNE	943	n/a	5	1	n/a	n/a	n/a	n/a	n/a
3074091	RECOG_TARGET	n/a	LTP147	ltpFR	19	6	1	GYMNAST	675	1	5	1	n/a	n/a	n/a	n/a	n/a
3074703	RECOG_RESP	n/a	LTP147	ltpFR	19	6	1	GYMNAST	675	1	n/a	1	n/a	n/a	n/a	n/a	n/a
3075210	RECOG_CONF	n/a	LTP147	ltpFR	19	6	1	GYMNAST	675	n/a	5	1	n/a	n/a	n/a	n/a	n/a
3076324	RECOG_TARGET	n/a	LTP147	ltpFR	19	6	0	BOUILLON	154	1	5	0	n/a	n/a	n/a	n/a	n/a
3076882	RECOG_RESP	n/a	LTP147	ltpFR	19	6	0	BOUILLON	154	1	n/a	0	n/a	n/a	n/a	n/a	n/a
3077407	RECOG_CONF	n/a	LTP147	ltpFR	19	6	0	BOUILLON	154	n/a	5	0	n/a	n/a	n/a	n/a	n/a
3078523	RECOG_TARGET	n/a	LTP147	ltpFR	19	6	0	RESTAURANT	1187	1	5	1	n/a	n/a	n/a	n/a	n/a
3079024	RECOG_RESP	n/a	LTP147	ltpFR	19	6	0	RESTAURANT	1187	1	n/a	1	n/a	n/a	n/a	n/a	n/a
3079556	RECOG_CONF	n/a	LTP147	ltpFR	19	6	0	RESTAURANT	1187	n/a	5	1	n/a	n/a	n/a	n/a	n/a
3082067	REC_START	n/a	LTP147	ltpFR	19	7	n/a	n/a	n/a	n/a	n/a	n/a	n/a	n/a	n/a	n/a	n/a
3082105	RECOG_LURE	n/a	LTP147	ltpFR	19	7	n/a	SAUSAGE	1238	0	5	n/a	n/a	n/a	n/a	n/a	n/a
3082812	RECOG_RESP	n/a	LTP147	ltpFR	19	7	n/a	SAUSAGE	1238	0	n/a	n/a	n/a	n/a	n/a	n/a	n/a
3083329	RECOG_CONF	n/a	LTP147	ltpFR	19	7	n/a	SAUSAGE	1238	n/a	5	n/a	n/a	n/a	n/a	n/a	n/a
3084304	RECOG_TARGET	n/a	LTP147	ltpFR	19	7	0	SPRINKLE	1359	1	5	0	n/a	n/a	n/a	n/a	n/a
3084879	RECOG_RESP	n/a	LTP147	ltpFR	19	7	0	SPRINKLE	1359	1	n/a	0	n/a	n/a	n/a	n/a	n/a
3085414	RECOG_CONF	n/a	LTP147	ltpFR	19	7	0	SPRINKLE	1359	n/a	5	0	n/a	n/a	n/a	n/a	n/a
3086512	RECOG_LURE	n/a	LTP147	ltpFR	19	7	n/a	HOSE	720	1	4	n/a	n/a	n/a	n/a	n/a	n/a
3087028	RECOG_RESP	n/a	LTP147	ltpFR	19	7	n/a	HOSE	720	1	n/a	n/a	n/a	n/a	n/a	n/a	n/a
3087573	RECOG_CONF	n/a	LTP147	ltpFR	19	7	n/a	HOSE	720	n/a	4	n/a	n/a	n/a	n/a	n/a	n/a
3089244	RECOG_TARGET	n/a	LTP147	ltpFR	19	7	-1	RACK	1154	1	5	-1	n/a	n/a	n/a	n/a	n/a
3089972	RECOG_RESP	n/a	LTP147	ltpFR	19	7	-1	RACK	1154	1	n/a	-1	n/a	n/a	n/a	n/a	n/a
3090519	RECOG_CONF	n/a	LTP147	ltpFR	19	7	-1	RACK	1154	n/a	5	-1	n/a	n/a	n/a	n/a	n/a
3091594	RECOG_LURE	n/a	LTP147	ltpFR	19	7	n/a	MONSTER	912	0	5	n/a	n/a	n/a	n/a	n/a	n/a
3092301	RECOG_RESP	n/a	LTP147	ltpFR	19	7	n/a	MONSTER	912	0	n/a	n/a	n/a	n/a	n/a	n/a	n/a
3092837	RECOG_CONF	n/a	LTP147	ltpFR	19	7	n/a	MONSTER	912	n/a	5	n/a	n/a	n/a	n/a	n/a	n/a
3094293	RECOG_LURE	n/a	LTP147	ltpFR	19	7	n/a	KNAPSACK	783	0	5	n/a	n/a	n/a	n/a	n/a	n/a
3094859	RECOG_RESP_VV	n/a	LTP147	ltpFR	19	7	n/a	KNAPSACK	783	1	n/a	n/a	n/a	n/a	n/a	n/a	n/a
3095231	RECOG_RESP	n/a	LTP147	ltpFR	19	7	n/a	KNAPSACK	783	0	n/a	n/a	n/a	n/a	n/a	n/a	n/a
3095821	RECOG_CONF	n/a	LTP147	ltpFR	19	7	n/a	KNAPSACK	783	n/a	5	n/a	n/a	n/a	n/a	n/a	n/a
3096882	RECOG_LURE	n/a	LTP147	ltpFR	19	7	n/a	FLEET	578	0	5	n/a	n/a	n/a	n/a	n/a	n/a
3097539	RECOG_RESP_VV	n/a	LTP147	ltpFR	19	7	n/a	FLEET	578	1	n/a	n/a	n/a	n/a	n/a	n/a	n/a
3097921	RECOG_RESP	n/a	LTP147	ltpFR	19	7	n/a	FLEET	578	0	n/a	n/a	n/a	n/a	n/a	n/a	n/a
3098475	RECOG_CONF	n/a	LTP147	ltpFR	19	7	n/a	FLEET	578	n/a	5	n/a	n/a	n/a	n/a	n/a	n/a
3099690	RECOG_LURE	n/a	LTP147	ltpFR	19	7	n/a	MANSION	864	0	5	n/a	n/a	n/a	n/a	n/a	n/a
3100451	RECOG_RESP	n/a	LTP147	ltpFR	19	7	n/a	MANSION	864	0	n/a	n/a	n/a	n/a	n/a	n/a	n/a
3101049	RECOG_CONF	n/a	LTP147	ltpFR	19	7	n/a	MANSION	864	n/a	5	n/a	n/a	n/a	n/a	n/a	n/a
3102156	RECOG_TARGET	n/a	LTP147	ltpFR	19	7	1	RIB	1188	1	5	0	n/a	n/a	n/a	n/a	n/a
3102773	RECOG_RESP	n/a	LTP147	ltpFR	19	7	1	RIB	1188	1	n/a	0	n/a	n/a	n/a	n/a	n/a
3103513	RECOG_CONF	n/a	LTP147	ltpFR	19	7	1	RIB	1188	n/a	5	0	n/a	n/a	n/a	n/a	n/a
3104688	RECOG_TARGET	n/a	LTP147	ltpFR	19	7	1	PADDLE	1000	1	5	0	n/a	n/a	n/a	n/a	n/a
3105189	RECOG_RESP	n/a	LTP147	ltpFR	19	7	1	PADDLE	1000	1	n/a	0	n/a	n/a	n/a	n/a	n/a
3105887	RECOG_CONF	n/a	LTP147	ltpFR	19	7	1	PADDLE	1000	n/a	5	0	n/a	n/a	n/a	n/a	n/a
3107770	RECOG_TARGET	n/a	LTP147	ltpFR	19	7	1	TRUCK	1512	1	5	0	n/a	n/a	n/a	n/a	n/a
3108346	RECOG_RESP	n/a	LTP147	ltpFR	19	7	1	TRUCK	1512	1	n/a	0	n/a	n/a	n/a	n/a	n/a
3108949	RECOG_CONF	n/a	LTP147	ltpFR	19	7	1	TRUCK	1512	n/a	5	0	n/a	n/a	n/a	n/a	n/a
3110037	RECOG_TARGET	n/a	LTP147	ltpFR	19	7	1	COFFIN	342	1	5	0	n/a	n/a	n/a	n/a	n/a
3110652	RECOG_RESP	n/a	LTP147	ltpFR	19	7	1	COFFIN	342	1	n/a	0	n/a	n/a	n/a	n/a	n/a
3111305	RECOG_CONF	n/a	LTP147	ltpFR	19	7	1	COFFIN	342	n/a	5	0	n/a	n/a	n/a	n/a	n/a
3112411	RECOG_LURE	n/a	LTP147	ltpFR	19	7	n/a	ATLAS	53	1	4	n/a	n/a	n/a	n/a	n/a	n/a
3113155	RECOG_RESP	n/a	LTP147	ltpFR	19	7	n/a	ATLAS	53	1	n/a	n/a	n/a	n/a	n/a	n/a	n/a
3113954	RECOG_CONF	n/a	LTP147	ltpFR	19	7	n/a	ATLAS	53	n/a	4	n/a	n/a	n/a	n/a	n/a	n/a
3115293	RECOG_TARGET	n/a	LTP147	ltpFR	19	7	0	ASHTRAY	45	1	5	0	n/a	n/a	n/a	n/a	n/a
3116103	RECOG_RESP	n/a	LTP147	ltpFR	19	7	0	ASHTRAY	45	1	n/a	0	n/a	n/a	n/a	n/a	n/a
3116820	RECOG_CONF	n/a	LTP147	ltpFR	19	7	0	ASHTRAY	45	n/a	5	0	n/a	n/a	n/a	n/a	n/a
3118159	RECOG_TARGET	n/a	LTP147	ltpFR	19	7	1	OVEN	991	1	5	0	n/a	n/a	n/a	n/a	n/a
3118640	RECOG_RESP	n/a	LTP147	ltpFR	19	7	1	OVEN	991	1	n/a	0	n/a	n/a	n/a	n/a	n/a
3119248	RECOG_CONF	n/a	LTP147	ltpFR	19	7	1	OVEN	991	n/a	5	0	n/a	n/a	n/a	n/a	n/a
3120358	RECOG_TARGET	n/a	LTP147	ltpFR	19	7	-1	HOUSE	725	1	4	-1	n/a	n/a	n/a	n/a	n/a
3120848	RECOG_RESP	n/a	LTP147	ltpFR	19	7	-1	HOUSE	725	1	n/a	-1	n/a	n/a	n/a	n/a	n/a
3121509	RECOG_CONF	n/a	LTP147	ltpFR	19	7	-1	HOUSE	725	n/a	4	-1	n/a	n/a	n/a	n/a	n/a
3122690	RECOG_LURE	n/a	LTP147	ltpFR	19	7	n/a	COMPASS	358	0	4	n/a	n/a	n/a	n/a	n/a	n/a
3123378	RECOG_RESP	n/a	LTP147	ltpFR	19	7	n/a	COMPASS	358	0	n/a	n/a	n/a	n/a	n/a	n/a	n/a
3124086	RECOG_CONF	n/a	LTP147	ltpFR	19	7	n/a	COMPASS	358	n/a	4	n/a	n/a	n/a	n/a	n/a	n/a
3125157	RECOG_LURE	n/a	LTP147	ltpFR	19	7	n/a	OUTLAW	989	0	4	n/a	n/a	n/a	n/a	n/a	n/a
3125965	RECOG_RESP	n/a	LTP147	ltpFR	19	7	n/a	OUTLAW	989	0	n/a	n/a	n/a	n/a	n/a	n/a	n/a
3126581	RECOG_CONF	n/a	LTP147	ltpFR	19	7	n/a	OUTLAW	989	n/a	4	n/a	n/a	n/a	n/a	n/a	n/a
3127746	RECOG_LURE	n/a	LTP147	ltpFR	19	7	n/a	RAFT	1159	0	4	n/a	n/a	n/a	n/a	n/a	n/a
3128323	RECOG_RESP_VV	n/a	LTP147	ltpFR	19	7	n/a	RAFT	1159	1	n/a	n/a	n/a	n/a	n/a	n/a	n/a
3129035	RECOG_RESP	n/a	LTP147	ltpFR	19	7	n/a	RAFT	1159	0	n/a	n/a	n/a	n/a	n/a	n/a	n/a
