mstime	trial_type	stim_file	subject	experiment	session	trial	item_name	item_num	list	answer	test_x	test_y	test_z
0	SESS_START	n/a	LTP285	ltpFR2	10	n/a	n/a	n/a	n/a	n/a	0	0	0
25113	START	n/a	LTP285	ltpFR2	10	n/a	n/a	n/a	-1	n/a	n/a	n/a	n/a
25145	PROB	n/a	LTP285	ltpFR2	10	n/a	n/a	n/a	-1	18	9	7	2
26810	PROB	n/a	LTP285	ltpFR2	10	n/a	n/a	n/a	-1	10	2	3	5
27891	PROB	n/a	LTP285	ltpFR2	10	n/a	n/a	n/a	-1	10	2	7	1
29139	PROB	n/a	LTP285	ltpFR2	10	n/a	n/a	n/a	-1	15	6	5	4
30155	PROB	n/a	LTP285	ltpFR2	10	n/a	n/a	n/a	-1	11	8	1	2
31186	PROB	n/a	LTP285	ltpFR2	10	n/a	n/a	n/a	-1	24	8	9	7
33533	PROB	n/a	LTP285	ltpFR2	10	n/a	n/a	n/a	-1	17	8	1	8
34699	PROB	n/a	LTP285	ltpFR2	10	n/a	n/a	n/a	-1	15	1	8	6
36844	STOP	n/a	LTP285	ltpFR2	10	n/a	n/a	n/a	-1	n/a	n/a	n/a	n/a
98053	WORD	wordpools/wasnorm_wordpool_576.txt	LTP285	ltpFR2	10	1	FOOTBALL	591	n/a	n/a	0	0	0
100700	WORD	wordpools/wasnorm_wordpool_576.txt	LTP285	ltpFR2	10	1	GLOBE	641	n/a	n/a	0	0	0
103462	WORD	wordpools/wasnorm_wordpool_576.txt	LTP285	ltpFR2	10	1	COCKTAIL	338	n/a	n/a	0	0	0
106158	WORD	wordpools/wasnorm_wordpool_576.txt	LTP285	ltpFR2	10	1	SKIRT	1319	n/a	n/a	0	0	0
108655	WORD	wordpools/wasnorm_wordpool_576.txt	LTP285	ltpFR2	10	1	SEAFOOD	1260	n/a	n/a	0	0	0
111117	WORD	wordpools/wasnorm_wordpool_576.txt	LTP285	ltpFR2	10	1	GYMNAST	675	n/a	n/a	0	0	0
113598	WORD	wordpools/wasnorm_wordpool_576.txt	LTP285	ltpFR2	10	1	SCARF	1246	n/a	n/a	0	0	0
116143	WORD	wordpools/wasnorm_wordpool_576.txt	LTP285	ltpFR2	10	1	WHISKERS	1605	n/a	n/a	0	0	0
118955	WORD	wordpools/wasnorm_wordpool_576.txt	LTP285	ltpFR2	10	1	COFFEE	341	n/a	n/a	0	0	0
121719	WORD	wordpools/wasnorm_wordpool_576.txt	LTP285	ltpFR2	10	1	PIGEON	1065	n/a	n/a	0	0	0
124397	WORD	wordpools/wasnorm_wordpool_576.txt	LTP285	ltpFR2	10	1	MARINE	869	n/a	n/a	0	0	0
127176	WORD	wordpools/wasnorm_wordpool_576.txt	LTP285	ltpFR2	10	1	FARMER	553	n/a	n/a	0	0	0
129624	WORD	wordpools/wasnorm_wordpool_576.txt	LTP285	ltpFR2	10	1	MUFFIN	929	n/a	n/a	0	0	0
132302	WORD	wordpools/wasnorm_wordpool_576.txt	LTP285	ltpFR2	10	1	TOASTER	1472	n/a	n/a	0	0	0
134733	WORD	wordpools/wasnorm_wordpool_576.txt	LTP285	ltpFR2	10	1	MOTEL	919	n/a	n/a	0	0	0
137428	WORD	wordpools/wasnorm_wordpool_576.txt	LTP285	ltpFR2	10	1	DORM	488	n/a	n/a	0	0	0
140074	WORD	wordpools/wasnorm_wordpool_576.txt	LTP285	ltpFR2	10	1	PAIL	1002	n/a	n/a	0	0	0
142638	WORD	wordpools/wasnorm_wordpool_576.txt	LTP285	ltpFR2	10	1	NAPKIN	937	n/a	n/a	0	0	0
145283	WORD	wordpools/wasnorm_wordpool_576.txt	LTP285	ltpFR2	10	1	PIGMENT	1066	n/a	n/a	0	0	0
147879	WORD	wordpools/wasnorm_wordpool_576.txt	LTP285	ltpFR2	10	1	FLIPPER	580	n/a	n/a	0	0	0
150392	WORD	wordpools/wasnorm_wordpool_576.txt	LTP285	ltpFR2	10	1	IGLOO	734	n/a	n/a	0	0	0
153121	WORD	wordpools/wasnorm_wordpool_576.txt	LTP285	ltpFR2	10	1	PARROT	1015	n/a	n/a	0	0	0
155785	WORD	wordpools/wasnorm_wordpool_576.txt	LTP285	ltpFR2	10	1	DRIVER	499	n/a	n/a	0	0	0
158496	WORD	wordpools/wasnorm_wordpool_576.txt	LTP285	ltpFR2	10	1	LEADER	807	n/a	n/a	0	0	0
160111	START	n/a	LTP285	ltpFR2	10	n/a	n/a	n/a	1	n/a	n/a	n/a	n/a
160944	DISTRACTOR	n/a	LTP285	ltpFR2	10	1	n/a	n/a	n/a	n/a	0	0	0
160959	PROB	n/a	LTP285	ltpFR2	10	n/a	n/a	n/a	1	21	9	3	9
162507	PROB	n/a	LTP285	ltpFR2	10	n/a	n/a	n/a	1	16	5	8	3
164038	PROB	n/a	LTP285	ltpFR2	10	n/a	n/a	n/a	1	13	8	1	4
166235	PROB	n/a	LTP285	ltpFR2	10	n/a	n/a	n/a	1	6	2	3	1
167882	PROB	n/a	LTP285	ltpFR2	10	n/a	n/a	n/a	1	5	1	1	3
168814	PROB	n/a	LTP285	ltpFR2	10	n/a	n/a	n/a	1	17	8	8	1
169996	PROB	n/a	LTP285	ltpFR2	10	n/a	n/a	n/a	1	19	6	6	7
171294	PROB	n/a	LTP285	ltpFR2	10	n/a	n/a	n/a	1	12	5	1	6
172326	PROB	n/a	LTP285	ltpFR2	10	n/a	n/a	n/a	1	7	2	1	4
173823	PROB	n/a	LTP285	ltpFR2	10	n/a	n/a	n/a	1	21	7	9	5
176952	PROB	n/a	LTP285	ltpFR2	10	n/a	n/a	n/a	1	8	2	6	1
178234	PROB	n/a	LTP285	ltpFR2	10	n/a	n/a	n/a	1	15	5	3	7
179432	PROB	n/a	LTP285	ltpFR2	10	n/a	n/a	n/a	1	12	1	4	7
180447	PROB	n/a	LTP285	ltpFR2	10	n/a	n/a	n/a	1	13	4	7	2
182144	PROB	n/a	LTP285	ltpFR2	10	n/a	n/a	n/a	1	26	8	9	9
183820	STOP	n/a	LTP285	ltpFR2	10	n/a	n/a	n/a	1	n/a	n/a	n/a	n/a
186073	REC_START	n/a	LTP285	ltpFR2	10	1	n/a	n/a	n/a	n/a	0	0	0
186848	REC_WORD	wordpools/wasnorm_wordpool_576.txt	LTP285	ltpFR2	10	1	PIGEON	1065	n/a	n/a	0	0	0
187861	REC_WORD	wordpools/wasnorm_wordpool_576.txt	LTP285	ltpFR2	10	1	PARROT	1015	n/a	n/a	0	0	0
188970	REC_WORD	wordpools/wasnorm_wordpool_576.txt	LTP285	ltpFR2	10	1	FOOTBALL	591	n/a	n/a	0	0	0
190095	REC_WORD	wordpools/wasnorm_wordpool_576.txt	LTP285	ltpFR2	10	1	SCARF	1246	n/a	n/a	0	0	0
191493	REC_WORD	wordpools/wasnorm_wordpool_576.txt	LTP285	ltpFR2	10	1	SKIRT	1319	n/a	n/a	0	0	0
193008	REC_WORD	wordpools/wasnorm_wordpool_576.txt	LTP285	ltpFR2	10	1	DORM	488	n/a	n/a	0	0	0
194115	REC_WORD	wordpools/wasnorm_wordpool_576.txt	LTP285	ltpFR2	10	1	MOTEL	919	n/a	n/a	0	0	0
195703	REC_WORD	wordpools/wasnorm_wordpool_576.txt	LTP285	ltpFR2	10	1	COCKTAIL	338	n/a	n/a	0	0	0
197177	REC_WORD	wordpools/wasnorm_wordpool_576.txt	LTP285	ltpFR2	10	1	DRIVER	499	n/a	n/a	0	0	0
199703	REC_WORD	wordpools/wasnorm_wordpool_576.txt	LTP285	ltpFR2	10	1	MUFFIN	929	n/a	n/a	0	0	0
200991	REC_WORD	wordpools/wasnorm_wordpool_576.txt	LTP285	ltpFR2	10	1	COFFEE	341	n/a	n/a	0	0	0
209682	REC_WORD	wordpools/wasnorm_wordpool_576.txt	LTP285	ltpFR2	10	1	IGLOO	734	n/a	n/a	0	0	0
223581	REC_WORD	wordpools/wasnorm_wordpool_576.txt	LTP285	ltpFR2	10	1	TOASTER	1472	n/a	n/a	0	0	0
247066	REC_WORD	wordpools/wasnorm_wordpool_576.txt	LTP285	ltpFR2	10	1	GLOBE	641	n/a	n/a	0	0	0
252533	REC_WORD	wordpools/wasnorm_wordpool_576.txt	LTP285	ltpFR2	10	1	WHISKERS	1605	n/a	n/a	0	0	0
276737	WORD	wordpools/wasnorm_wordpool_576.txt	LTP285	ltpFR2	10	2	DUSTPAN	509	n/a	n/a	0	0	0
279399	WORD	wordpools/wasnorm_wordpool_576.txt	LTP285	ltpFR2	10	2	DUST	508	n/a	n/a	0	0	0
282062	WORD	wordpools/wasnorm_wordpool_576.txt	LTP285	ltpFR2	10	2	HOOD	714	n/a	n/a	0	0	0
284525	WORD	wordpools/wasnorm_wordpool_576.txt	LTP285	ltpFR2	10	2	CITRUS	313	n/a	n/a	0	0	0
287271	WORD	wordpools/wasnorm_wordpool_576.txt	LTP285	ltpFR2	10	2	PADDLE	1000	n/a	n/a	0	0	0
290050	WORD	wordpools/wasnorm_wordpool_576.txt	LTP285	ltpFR2	10	2	COMPASS	358	n/a	n/a	0	0	0
292730	WORD	wordpools/wasnorm_wordpool_576.txt	LTP285	ltpFR2	10	2	JUNGLE	764	n/a	n/a	0	0	0
295176	WORD	wordpools/wasnorm_wordpool_576.txt	LTP285	ltpFR2	10	2	AIRPLANE	12	n/a	n/a	0	0	0
297789	WORD	wordpools/wasnorm_wordpool_576.txt	LTP285	ltpFR2	10	2	BLACKBOARD	133	n/a	n/a	0	0	0
300484	WORD	wordpools/wasnorm_wordpool_576.txt	LTP285	ltpFR2	10	2	BOARD	143	n/a	n/a	0	0	0
302914	WORD	wordpools/wasnorm_wordpool_576.txt	LTP285	ltpFR2	10	2	RUST	1219	n/a	n/a	0	0	0
305510	WORD	wordpools/wasnorm_wordpool_576.txt	LTP285	ltpFR2	10	2	FOREHEAD	592	n/a	n/a	0	0	0
308040	WORD	wordpools/wasnorm_wordpool_576.txt	LTP285	ltpFR2	10	2	COOK	372	n/a	n/a	0	0	0
310753	WORD	wordpools/wasnorm_wordpool_576.txt	LTP285	ltpFR2	10	2	ONION	977	n/a	n/a	0	0	0
313566	WORD	wordpools/wasnorm_wordpool_576.txt	LTP285	ltpFR2	10	2	SALAD	1224	n/a	n/a	0	0	0
316078	WORD	wordpools/wasnorm_wordpool_576.txt	LTP285	ltpFR2	10	2	STOVE	1388	n/a	n/a	0	0	0
318541	WORD	wordpools/wasnorm_wordpool_576.txt	LTP285	ltpFR2	10	2	DAUGHTER	442	n/a	n/a	0	0	0
321187	WORD	wordpools/wasnorm_wordpool_576.txt	LTP285	ltpFR2	10	2	LADY	794	n/a	n/a	0	0	0
323767	WORD	wordpools/wasnorm_wordpool_576.txt	LTP285	ltpFR2	10	2	TURTLE	1522	n/a	n/a	0	0	0
326229	WORD	wordpools/wasnorm_wordpool_576.txt	LTP285	ltpFR2	10	2	CUSTARD	429	n/a	n/a	0	0	0
328942	WORD	wordpools/wasnorm_wordpool_576.txt	LTP285	ltpFR2	10	2	DINER	467	n/a	n/a	0	0	0
331606	WORD	wordpools/wasnorm_wordpool_576.txt	LTP285	ltpFR2	10	2	FRAGRANCE	599	n/a	n/a	0	0	0
334051	WORD	wordpools/wasnorm_wordpool_576.txt	LTP285	ltpFR2	10	2	LION	827	n/a	n/a	0	0	0
336830	WORD	wordpools/wasnorm_wordpool_576.txt	LTP285	ltpFR2	10	2	EYELASH	546	n/a	n/a	0	0	0
338445	START	n/a	LTP285	ltpFR2	10	n/a	n/a	n/a	2	n/a	n/a	n/a	n/a
339280	DISTRACTOR	n/a	LTP285	ltpFR2	10	2	n/a	n/a	n/a	n/a	0	0	0
339293	PROB	n/a	LTP285	ltpFR2	10	n/a	n/a	n/a	2	9	1	3	5
341456	PROB	n/a	LTP285	ltpFR2	10	n/a	n/a	n/a	2	24	7	8	8
342904	PROB	n/a	LTP285	ltpFR2	10	n/a	n/a	n/a	2	11	7	3	1
343870	PROB	n/a	LTP285	ltpFR2	10	n/a	n/a	n/a	2	14	1	6	7
345051	PROB	n/a	LTP285	ltpFR2	10	n/a	n/a	n/a	2	17	3	5	9
346499	PROB	n/a	LTP285	ltpFR2	10	n/a	n/a	n/a	2	14	7	2	5
348396	PROB	n/a	LTP285	ltpFR2	10	n/a	n/a	n/a	2	21	8	5	8
350027	PROB	n/a	LTP285	ltpFR2	10	n/a	n/a	n/a	2	16	1	9	6
351092	PROB	n/a	LTP285	ltpFR2	10	n/a	n/a	n/a	2	19	2	8	9
352207	PROB	n/a	LTP285	ltpFR2	10	n/a	n/a	n/a	2	20	5	6	9
353522	PROB	n/a	LTP285	ltpFR2	10	n/a	n/a	n/a	2	14	6	2	6
354788	PROB	n/a	LTP285	ltpFR2	10	n/a	n/a	n/a	2	15	4	5	6
355786	PROB	n/a	LTP285	ltpFR2	10	n/a	n/a	n/a	2	10	5	2	3
357183	PROB	n/a	LTP285	ltpFR2	10	n/a	n/a	n/a	2	13	3	6	4
358348	PROB	n/a	LTP285	ltpFR2	10	n/a	n/a	n/a	2	5	1	3	1
359180	PROB	n/a	LTP285	ltpFR2	10	n/a	n/a	n/a	2	19	8	5	6
361637	STOP	n/a	LTP285	ltpFR2	10	n/a	n/a	n/a	2	n/a	n/a	n/a	n/a
364356	REC_START	n/a	LTP285	ltpFR2	10	2	n/a	n/a	n/a	n/a	0	0	0
364923	REC_WORD	wordpools/wasnorm_wordpool_576.txt	LTP285	ltpFR2	10	2	FRAGRANCE	599	n/a	n/a	0	0	0
366291	REC_WORD	wordpools/wasnorm_wordpool_576.txt	LTP285	ltpFR2	10	2	COOK	372	n/a	n/a	0	0	0
367340	REC_WORD	wordpools/wasnorm_wordpool_576.txt	LTP285	ltpFR2	10	2	DINER	467	n/a	n/a	0	0	0
368451	REC_WORD	wordpools/wasnorm_wordpool_576.txt	LTP285	ltpFR2	10	2	CUSTARD	429	n/a	n/a	0	0	0
369605	REC_WORD	wordpools/wasnorm_wordpool_576.txt	LTP285	ltpFR2	10	2	ONION	977	n/a	n/a	0	0	0
370675	REC_WORD	wordpools/wasnorm_wordpool_576.txt	LTP285	ltpFR2	10	2	SALAD	1224	n/a	n/a	0	0	0
372115	REC_WORD	wordpools/wasnorm_wordpool_576.txt	LTP285	ltpFR2	10	2	RUST	1219	n/a	n/a	0	0	0
374253	REC_WORD	wordpools/wasnorm_wordpool_576.txt	LTP285	ltpFR2	10	2	DUST	508	n/a	n/a	0	0	0
375407	REC_WORD	wordpools/wasnorm_wordpool_576.txt	LTP285	ltpFR2	10	2	DUSTPAN	509	n/a	n/a	0	0	0
376934	REC_WORD	wordpools/wasnorm_wordpool_576.txt	LTP285	ltpFR2	10	2	BOARD	143	n/a	n/a	0	0	0
378000	REC_WORD	wordpools/wasnorm_wordpool_576.txt	LTP285	ltpFR2	10	2	BLACKBOARD	133	n/a	n/a	0	0	0
381882	REC_WORD	wordpools/wasnorm_wordpool_576.txt	LTP285	ltpFR2	10	2	LION	827	n/a	n/a	0	0	0
387049	REC_WORD	wordpools/wasnorm_wordpool_576.txt	LTP285	ltpFR2	10	2	HOOD	714	n/a	n/a	0	0	0
388781	REC_WORD	wordpools/wasnorm_wordpool_576.txt	LTP285	ltpFR2	10	2	LADY	794	n/a	n/a	0	0	0
390085	REC_WORD	wordpools/wasnorm_wordpool_576.txt	LTP285	ltpFR2	10	2	DAUGHTER	442	n/a	n/a	0	0	0
404340	REC_WORD	wordpools/wasnorm_wordpool_576.txt	LTP285	ltpFR2	10	2	PADDLE	1000	n/a	n/a	0	0	0
430369	REC_WORD	wordpools/wasnorm_wordpool_576.txt	LTP285	ltpFR2	10	2	EYELASH	546	n/a	n/a	0	0	0
455020	DISTRACTOR	n/a	LTP285	ltpFR2	10	3	n/a	n/a	n/a	n/a	0	0	0
455020	START	n/a	LTP285	ltpFR2	10	n/a	n/a	n/a	3	n/a	n/a	n/a	n/a
455054	PROB	n/a	LTP285	ltpFR2	10	n/a	n/a	n/a	3	17	4	9	4
456435	PROB	n/a	LTP285	ltpFR2	10	n/a	n/a	n/a	3	23	9	6	8
458699	PROB	n/a	LTP285	ltpFR2	10	n/a	n/a	n/a	3	9	1	6	2
460895	PROB	n/a	LTP285	ltpFR2	10	n/a	n/a	n/a	3	21	3	9	9
462526	PROB	n/a	LTP285	ltpFR2	10	n/a	n/a	n/a	3	14	2	6	6
463907	PROB	n/a	LTP285	ltpFR2	10	n/a	n/a	n/a	3	15	9	3	3
465105	PROB	n/a	LTP285	ltpFR2	10	n/a	n/a	n/a	3	21	9	7	5
467269	PROB	n/a	LTP285	ltpFR2	10	n/a	n/a	n/a	3	6	2	3	1
468234	PROB	n/a	LTP285	ltpFR2	10	n/a	n/a	n/a	3	26	9	9	8
469683	PROB	n/a	LTP285	ltpFR2	10	n/a	n/a	n/a	3	10	7	1	2
470781	PROB	n/a	LTP285	ltpFR2	10	n/a	n/a	n/a	3	9	2	6	1
472228	PROB	n/a	LTP285	ltpFR2	10	n/a	n/a	n/a	3	18	9	8	1
473393	PROB	n/a	LTP285	ltpFR2	10	n/a	n/a	n/a	3	17	7	5	5
474541	PROB	n/a	LTP285	ltpFR2	10	n/a	n/a	n/a	3	15	3	6	6
475956	PROB	n/a	LTP285	ltpFR2	10	n/a	n/a	n/a	3	20	4	8	8
477661	STOP	n/a	LTP285	ltpFR2	10	n/a	n/a	n/a	3	n/a	n/a	n/a	n/a
480233	WORD	wordpools/wasnorm_wordpool_576.txt	LTP285	ltpFR2	10	3	VALVE	1546	n/a	n/a	0	0	0
482995	WORD	wordpools/wasnorm_wordpool_576.txt	LTP285	ltpFR2	10	3	PRIMATE	1123	n/a	n/a	0	0	0
485792	WORD	wordpools/wasnorm_wordpool_576.txt	LTP285	ltpFR2	10	3	BLOUSE	139	n/a	n/a	0	0	0
488221	WORD	wordpools/wasnorm_wordpool_576.txt	LTP285	ltpFR2	10	3	DENIM	446	n/a	n/a	0	0	0
490950	WORD	wordpools/wasnorm_wordpool_576.txt	LTP285	ltpFR2	10	3	CRITIC	410	n/a	n/a	0	0	0
493496	WORD	wordpools/wasnorm_wordpool_576.txt	LTP285	ltpFR2	10	3	PUPPY	1144	n/a	n/a	0	0	0
496192	WORD	wordpools/wasnorm_wordpool_576.txt	LTP285	ltpFR2	10	3	HUMAN	726	n/a	n/a	0	0	0
498789	WORD	wordpools/wasnorm_wordpool_576.txt	LTP285	ltpFR2	10	3	GHETTO	633	n/a	n/a	0	0	0
501451	WORD	wordpools/wasnorm_wordpool_576.txt	LTP285	ltpFR2	10	3	SURVEY	1414	n/a	n/a	0	0	0
503931	WORD	wordpools/wasnorm_wordpool_576.txt	LTP285	ltpFR2	10	3	BEEF	113	n/a	n/a	0	0	0
506527	WORD	wordpools/wasnorm_wordpool_576.txt	LTP285	ltpFR2	10	3	THREAD	1460	n/a	n/a	0	0	0
509306	WORD	wordpools/wasnorm_wordpool_576.txt	LTP285	ltpFR2	10	3	AWARD	63	n/a	n/a	0	0	0
511819	WORD	wordpools/wasnorm_wordpool_576.txt	LTP285	ltpFR2	10	3	ACTOR	5	n/a	n/a	0	0	0
514265	WORD	wordpools/wasnorm_wordpool_576.txt	LTP285	ltpFR2	10	3	CIGAR	308	n/a	n/a	0	0	0
516779	WORD	wordpools/wasnorm_wordpool_576.txt	LTP285	ltpFR2	10	3	TABLET	1427	n/a	n/a	0	0	0
519507	WORD	wordpools/wasnorm_wordpool_576.txt	LTP285	ltpFR2	10	3	DANCER	437	n/a	n/a	0	0	0
522153	WORD	wordpools/wasnorm_wordpool_576.txt	LTP285	ltpFR2	10	3	ACTRESS	6	n/a	n/a	0	0	0
524866	WORD	wordpools/wasnorm_wordpool_576.txt	LTP285	ltpFR2	10	3	GARDEN	623	n/a	n/a	0	0	0
527613	WORD	wordpools/wasnorm_wordpool_576.txt	LTP285	ltpFR2	10	3	TURNIP	1521	n/a	n/a	0	0	0
530125	WORD	wordpools/wasnorm_wordpool_576.txt	LTP285	ltpFR2	10	3	YARN	1631	n/a	n/a	0	0	0
532921	WORD	wordpools/wasnorm_wordpool_576.txt	LTP285	ltpFR2	10	3	SLIME	1327	n/a	n/a	0	0	0
535751	WORD	wordpools/wasnorm_wordpool_576.txt	LTP285	ltpFR2	10	3	RELISH	1183	n/a	n/a	0	0	0
538512	WORD	wordpools/wasnorm_wordpool_576.txt	LTP285	ltpFR2	10	3	COOKBOOK	373	n/a	n/a	0	0	0
540992	WORD	wordpools/wasnorm_wordpool_576.txt	LTP285	ltpFR2	10	3	COCOON	339	n/a	n/a	0	0	0
542607	START	n/a	LTP285	ltpFR2	10	n/a	n/a	n/a	4	n/a	n/a	n/a	n/a
543628	DISTRACTOR	n/a	LTP285	ltpFR2	10	3	n/a	n/a	n/a	n/a	0	0	0
543639	PROB	n/a	LTP285	ltpFR2	10	n/a	n/a	n/a	4	15	7	7	1
544687	PROB	n/a	LTP285	ltpFR2	10	n/a	n/a	n/a	4	18	9	4	5
547149	PROB	n/a	LTP285	ltpFR2	10	n/a	n/a	n/a	4	8	2	3	3
549413	PROB	n/a	LTP285	ltpFR2	10	n/a	n/a	n/a	4	2	9	5	8
553956	PROB	n/a	LTP285	ltpFR2	10	n/a	n/a	n/a	4	14	8	2	4
555886	PROB	n/a	LTP285	ltpFR2	10	n/a	n/a	n/a	4	9	5	3	1
557184	PROB	n/a	LTP285	ltpFR2	10	n/a	n/a	n/a	4	15	8	3	4
558982	PROB	n/a	LTP285	ltpFR2	10	n/a	n/a	n/a	4	11	3	5	3
560529	PROB	n/a	LTP285	ltpFR2	10	n/a	n/a	n/a	4	7	1	5	1
561495	PROB	n/a	LTP285	ltpFR2	10	n/a	n/a	n/a	4	17	9	1	7
563159	PROB	n/a	LTP285	ltpFR2	10	n/a	n/a	n/a	4	16	8	1	7
564357	PROB	n/a	LTP285	ltpFR2	10	n/a	n/a	n/a	4	25	9	8	8
566252	STOP	n/a	LTP285	ltpFR2	10	n/a	n/a	n/a	4	n/a	n/a	n/a	n/a
568501	REC_START	n/a	LTP285	ltpFR2	10	3	n/a	n/a	n/a	n/a	0	0	0
568948	REC_WORD	wordpools/wasnorm_wordpool_576.txt	LTP285	ltpFR2	10	3	COOKBOOK	373	n/a	n/a	0	0	0
569804	REC_WORD	wordpools/wasnorm_wordpool_576.txt	LTP285	ltpFR2	10	3	COCOON	339	n/a	n/a	0	0	0
571123	REC_WORD	wordpools/wasnorm_wordpool_576.txt	LTP285	ltpFR2	10	3	BLOUSE	139	n/a	n/a	0	0	0
572245	REC_WORD	wordpools/wasnorm_wordpool_576.txt	LTP285	ltpFR2	10	3	DENIM	446	n/a	n/a	0	0	0
573383	REC_WORD	wordpools/wasnorm_wordpool_576.txt	LTP285	ltpFR2	10	3	THREAD	1460	n/a	n/a	0	0	0
574680	REC_WORD	wordpools/wasnorm_wordpool_576.txt	LTP285	ltpFR2	10	3	YARN	1631	n/a	n/a	0	0	0
578432	REC_WORD	wordpools/wasnorm_wordpool_576.txt	LTP285	ltpFR2	10	3	GARDEN	623	n/a	n/a	0	0	0
579705	REC_WORD	wordpools/wasnorm_wordpool_576.txt	LTP285	ltpFR2	10	3	TURNIP	1521	n/a	n/a	0	0	0
582209	REC_WORD	wordpools/wasnorm_wordpool_576.txt	LTP285	ltpFR2	10	3	ACTOR	5	n/a	n/a	0	0	0
583513	REC_WORD	wordpools/wasnorm_wordpool_576.txt	LTP285	ltpFR2	10	3	ACTRESS	6	n/a	n/a	0	0	0
584771	REC_WORD	wordpools/wasnorm_wordpool_576.txt	LTP285	ltpFR2	10	3	AWARD	63	n/a	n/a	0	0	0
586514	REC_WORD	wordpools/wasnorm_wordpool_576.txt	LTP285	ltpFR2	10	3	CRITIC	410	n/a	n/a	0	0	0
593695	REC_WORD	wordpools/wasnorm_wordpool_576.txt	LTP285	ltpFR2	10	3	GHETTO	633	n/a	n/a	0	0	0
599332	REC_WORD	wordpools/wasnorm_wordpool_576.txt	LTP285	ltpFR2	10	3	SLIME	1327	n/a	n/a	0	0	0
618924	REC_WORD	wordpools/wasnorm_wordpool_576.txt	LTP285	ltpFR2	10	3	SURVEY	1414	n/a	n/a	0	0	0
620445	REC_WORD	wordpools/wasnorm_wordpool_576.txt	LTP285	ltpFR2	10	3	TABLET	1427	n/a	n/a	0	0	0
640634	REC_WORD	wordpools/wasnorm_wordpool_576.txt	LTP285	ltpFR2	10	3	FOREHEAD	592	n/a	n/a	0	0	0
659149	DISTRACTOR	n/a	LTP285	ltpFR2	10	4	n/a	n/a	n/a	n/a	0	0	0
659149	START	n/a	LTP285	ltpFR2	10	n/a	n/a	n/a	5	n/a	n/a	n/a	n/a
659182	PROB	n/a	LTP285	ltpFR2	10	n/a	n/a	n/a	5	17	2	6	9
660648	PROB	n/a	LTP285	ltpFR2	10	n/a	n/a	n/a	5	15	1	8	6
662628	PROB	n/a	LTP285	ltpFR2	10	n/a	n/a	n/a	5	19	6	4	9
663726	PROB	n/a	LTP285	ltpFR2	10	n/a	n/a	n/a	5	14	4	4	6
665123	PROB	n/a	LTP285	ltpFR2	10	n/a	n/a	n/a	5	9	2	6	1
666188	PROB	n/a	LTP285	ltpFR2	10	n/a	n/a	n/a	5	13	9	1	3
667420	PROB	n/a	LTP285	ltpFR2	10	n/a	n/a	n/a	5	18	6	9	3
668901	PROB	n/a	LTP285	ltpFR2	10	n/a	n/a	n/a	5	23	8	6	9
670981	PROB	n/a	LTP285	ltpFR2	10	n/a	n/a	n/a	5	16	2	5	9
672713	PROB	n/a	LTP285	ltpFR2	10	n/a	n/a	n/a	5	14	3	7	4
673711	PROB	n/a	LTP285	ltpFR2	10	n/a	n/a	n/a	5	22	8	7	8
675458	PROB	n/a	LTP285	ltpFR2	10	n/a	n/a	n/a	5	13	5	6	2
676822	PROB	n/a	LTP285	ltpFR2	10	n/a	n/a	n/a	5	23	9	7	7
678487	PROB	n/a	LTP285	ltpFR2	10	n/a	n/a	n/a	5	12	6	4	2
679535	PROB	n/a	LTP285	ltpFR2	10	n/a	n/a	n/a	5	12	2	6	4
680534	PROB	n/a	LTP285	ltpFR2	10	n/a	n/a	n/a	5	10	1	4	5
681581	STOP	n/a	LTP285	ltpFR2	10	n/a	n/a	n/a	5	n/a	n/a	n/a	n/a
684345	WORD	wordpools/wasnorm_wordpool_576.txt	LTP285	ltpFR2	10	4	MAILBOX	857	n/a	n/a	0	0	0
687057	WORD	wordpools/wasnorm_wordpool_576.txt	LTP285	ltpFR2	10	4	LILY	821	n/a	n/a	0	0	0
689571	WORD	wordpools/wasnorm_wordpool_576.txt	LTP285	ltpFR2	10	4	SUNSET	1408	n/a	n/a	0	0	0
692183	WORD	wordpools/wasnorm_wordpool_576.txt	LTP285	ltpFR2	10	4	SMOG	1330	n/a	n/a	0	0	0
694796	WORD	wordpools/wasnorm_wordpool_576.txt	LTP285	ltpFR2	10	4	COSTUME	383	n/a	n/a	0	0	0
697275	WORD	wordpools/wasnorm_wordpool_576.txt	LTP285	ltpFR2	10	4	THRONE	1461	n/a	n/a	0	0	0
699921	WORD	wordpools/wasnorm_wordpool_576.txt	LTP285	ltpFR2	10	4	SCISSORS	1250	n/a	n/a	0	0	0
702685	WORD	wordpools/wasnorm_wordpool_576.txt	LTP285	ltpFR2	10	4	RAZOR	1171	n/a	n/a	0	0	0
705213	WORD	wordpools/wasnorm_wordpool_576.txt	LTP285	ltpFR2	10	4	JOURNAL	760	n/a	n/a	0	0	0
707727	WORD	wordpools/wasnorm_wordpool_576.txt	LTP285	ltpFR2	10	4	CANDY	230	n/a	n/a	0	0	0
710289	WORD	wordpools/wasnorm_wordpool_576.txt	LTP285	ltpFR2	10	4	PATROL	1027	n/a	n/a	0	0	0
712852	WORD	wordpools/wasnorm_wordpool_576.txt	LTP285	ltpFR2	10	4	CATCHER	258	n/a	n/a	0	0	0
715465	WORD	wordpools/wasnorm_wordpool_576.txt	LTP285	ltpFR2	10	4	ITEM	746	n/a	n/a	0	0	0
718078	WORD	wordpools/wasnorm_wordpool_576.txt	LTP285	ltpFR2	10	4	CRAYON	401	n/a	n/a	0	0	0
720741	WORD	wordpools/wasnorm_wordpool_576.txt	LTP285	ltpFR2	10	4	SKETCH	1315	n/a	n/a	0	0	0
723386	WORD	wordpools/wasnorm_wordpool_576.txt	LTP285	ltpFR2	10	4	BEAVER	109	n/a	n/a	0	0	0
725866	WORD	wordpools/wasnorm_wordpool_576.txt	LTP285	ltpFR2	10	4	CHIPMUNK	304	n/a	n/a	0	0	0
728613	WORD	wordpools/wasnorm_wordpool_576.txt	LTP285	ltpFR2	10	4	HOSTESS	723	n/a	n/a	0	0	0
731408	WORD	wordpools/wasnorm_wordpool_576.txt	LTP285	ltpFR2	10	4	CROWN	415	n/a	n/a	0	0	0
734187	WORD	wordpools/wasnorm_wordpool_576.txt	LTP285	ltpFR2	10	4	MAILMAN	858	n/a	n/a	0	0	0
736717	WORD	wordpools/wasnorm_wordpool_576.txt	LTP285	ltpFR2	10	4	BADGE	68	n/a	n/a	0	0	0
739196	WORD	wordpools/wasnorm_wordpool_576.txt	LTP285	ltpFR2	10	4	HEADBAND	696	n/a	n/a	0	0	0
741660	WORD	wordpools/wasnorm_wordpool_576.txt	LTP285	ltpFR2	10	4	PREACHER	1119	n/a	n/a	0	0	0
744089	WORD	wordpools/wasnorm_wordpool_576.txt	LTP285	ltpFR2	10	4	COUNTRY	388	n/a	n/a	0	0	0
745704	START	n/a	LTP285	ltpFR2	10	n/a	n/a	n/a	6	n/a	n/a	n/a	n/a
746757	DISTRACTOR	n/a	LTP285	ltpFR2	10	4	n/a	n/a	n/a	n/a	0	0	0
746769	PROB	n/a	LTP285	ltpFR2	10	n/a	n/a	n/a	6	17	9	6	2
748216	PROB	n/a	LTP285	ltpFR2	10	n/a	n/a	n/a	6	21	8	9	4
751078	PROB	n/a	LTP285	ltpFR2	10	n/a	n/a	n/a	6	17	5	6	6
752426	PROB	n/a	LTP285	ltpFR2	10	n/a	n/a	n/a	6	8	2	5	1
753759	PROB	n/a	LTP285	ltpFR2	10	n/a	n/a	n/a	6	13	1	9	3
754691	PROB	n/a	LTP285	ltpFR2	10	n/a	n/a	n/a	6	18	4	9	5
756470	PROB	n/a	LTP285	ltpFR2	10	n/a	n/a	n/a	6	9	1	1	7
757386	PROB	n/a	LTP285	ltpFR2	10	n/a	n/a	n/a	6	19	4	9	6
758550	PROB	n/a	LTP285	ltpFR2	10	n/a	n/a	n/a	6	13	3	3	7
759915	PROB	n/a	LTP285	ltpFR2	10	n/a	n/a	n/a	6	12	1	9	2
760864	PROB	n/a	LTP285	ltpFR2	10	n/a	n/a	n/a	6	19	2	9	9
762195	PROB	n/a	LTP285	ltpFR2	10	n/a	n/a	n/a	6	14	6	5	3
763627	PROB	n/a	LTP285	ltpFR2	10	n/a	n/a	n/a	6	22	7	9	9
765357	PROB	n/a	LTP285	ltpFR2	10	n/a	n/a	n/a	6	19	7	7	5
766871	PROB	n/a	LTP285	ltpFR2	10	n/a	n/a	n/a	6	19	3	9	7
768324	STOP	n/a	LTP285	ltpFR2	10	n/a	n/a	n/a	6	n/a	n/a	n/a	n/a
771616	REC_START	n/a	LTP285	ltpFR2	10	4	n/a	n/a	n/a	n/a	0	0	0
772495	REC_WORD	wordpools/wasnorm_wordpool_576.txt	LTP285	ltpFR2	10	4	PREACHER	1119	n/a	n/a	0	0	0
773572	REC_WORD	wordpools/wasnorm_wordpool_576.txt	LTP285	ltpFR2	10	4	HOSTESS	723	n/a	n/a	0	0	0
775272	REC_WORD	wordpools/wasnorm_wordpool_576.txt	LTP285	ltpFR2	10	4	ITEM	746	n/a	n/a	0	0	0
776918	REC_WORD	wordpools/wasnorm_wordpool_576.txt	LTP285	ltpFR2	10	4	MAILBOX	857	n/a	n/a	0	0	0
778110	REC_WORD	wordpools/wasnorm_wordpool_576.txt	LTP285	ltpFR2	10	4	MAILMAN	858	n/a	n/a	0	0	0
780343	REC_WORD	wordpools/wasnorm_wordpool_576.txt	LTP285	ltpFR2	10	4	AWARD	63	n/a	n/a	0	0	0
784978	REC_WORD	wordpools/wasnorm_wordpool_576.txt	LTP285	ltpFR2	10	4	BEAVER	109	n/a	n/a	0	0	0
786126	REC_WORD	wordpools/wasnorm_wordpool_576.txt	LTP285	ltpFR2	10	4	CHIPMUNK	304	n/a	n/a	0	0	0
794813	REC_WORD	wordpools/wasnorm_wordpool_576.txt	LTP285	ltpFR2	10	4	THRONE	1461	n/a	n/a	0	0	0
796083	REC_WORD	wordpools/wasnorm_wordpool_576.txt	LTP285	ltpFR2	10	4	CROWN	415	n/a	n/a	0	0	0
798508	REC_WORD	wordpools/wasnorm_wordpool_576.txt	LTP285	ltpFR2	10	4	CRAYON	401	n/a	n/a	0	0	0
799710	REC_WORD	wordpools/wasnorm_wordpool_576.txt	LTP285	ltpFR2	10	4	SKETCH	1315	n/a	n/a	0	0	0
801734	REC_WORD	wordpools/wasnorm_wordpool_576.txt	LTP285	ltpFR2	10	4	JOURNAL	760	n/a	n/a	0	0	0
809158	REC_WORD	wordpools/wasnorm_wordpool_576.txt	LTP285	ltpFR2	10	4	SCISSORS	1250	n/a	n/a	0	0	0
810519	REC_WORD	wordpools/wasnorm_wordpool_576.txt	LTP285	ltpFR2	10	4	RAZOR	1171	n/a	n/a	0	0	0
839436	REC_WORD	wordpools/wasnorm_wordpool_576.txt	LTP285	ltpFR2	10	4	SUNSET	1408	n/a	n/a	0	0	0
862262	WORD	wordpools/wasnorm_wordpool_576.txt	LTP285	ltpFR2	10	5	SPOOL	1356	n/a	n/a	0	0	0
864793	WORD	wordpools/wasnorm_wordpool_576.txt	LTP285	ltpFR2	10	5	DRESS	495	n/a	n/a	0	0	0
867572	WORD	wordpools/wasnorm_wordpool_576.txt	LTP285	ltpFR2	10	5	KEEPER	769	n/a	n/a	0	0	0
870234	WORD	wordpools/wasnorm_wordpool_576.txt	LTP285	ltpFR2	10	5	PICNIC	1060	n/a	n/a	0	0	0
872913	WORD	wordpools/wasnorm_wordpool_576.txt	LTP285	ltpFR2	10	5	LUNCH	849	n/a	n/a	0	0	0
875577	WORD	wordpools/wasnorm_wordpool_576.txt	LTP285	ltpFR2	10	5	HARP	689	n/a	n/a	0	0	0
878388	WORD	wordpools/wasnorm_wordpool_576.txt	LTP285	ltpFR2	10	5	ISLAND	745	n/a	n/a	0	0	0
880934	WORD	wordpools/wasnorm_wordpool_576.txt	LTP285	ltpFR2	10	5	JEANS	752	n/a	n/a	0	0	0
883531	WORD	wordpools/wasnorm_wordpool_576.txt	LTP285	ltpFR2	10	5	MONSTER	912	n/a	n/a	0	0	0
886160	WORD	wordpools/wasnorm_wordpool_576.txt	LTP285	ltpFR2	10	5	COLONEL	348	n/a	n/a	0	0	0
888657	WORD	wordpools/wasnorm_wordpool_576.txt	LTP285	ltpFR2	10	5	SHRUB	1299	n/a	n/a	0	0	0
891419	WORD	wordpools/wasnorm_wordpool_576.txt	LTP285	ltpFR2	10	5	SUMMIT	1405	n/a	n/a	0	0	0
893865	WORD	wordpools/wasnorm_wordpool_576.txt	LTP285	ltpFR2	10	5	PLAID	1080	n/a	n/a	0	0	0
896595	WORD	wordpools/wasnorm_wordpool_576.txt	LTP285	ltpFR2	10	5	BEAKER	104	n/a	n/a	0	0	0
899274	WORD	wordpools/wasnorm_wordpool_576.txt	LTP285	ltpFR2	10	5	PEACH	1031	n/a	n/a	0	0	0
901936	WORD	wordpools/wasnorm_wordpool_576.txt	LTP285	ltpFR2	10	5	FRIAR	605	n/a	n/a	0	0	0
904750	WORD	wordpools/wasnorm_wordpool_576.txt	LTP285	ltpFR2	10	5	PUDDLE	1140	n/a	n/a	0	0	0
907445	WORD	wordpools/wasnorm_wordpool_576.txt	LTP285	ltpFR2	10	5	CANAL	226	n/a	n/a	0	0	0
910108	WORD	wordpools/wasnorm_wordpool_576.txt	LTP285	ltpFR2	10	5	FLASK	576	n/a	n/a	0	0	0
912655	WORD	wordpools/wasnorm_wordpool_576.txt	LTP285	ltpFR2	10	5	FRIEND	606	n/a	n/a	0	0	0
915433	WORD	wordpools/wasnorm_wordpool_576.txt	LTP285	ltpFR2	10	5	STREAM	1392	n/a	n/a	0	0	0
918096	WORD	wordpools/wasnorm_wordpool_576.txt	LTP285	ltpFR2	10	5	BATHTUB	100	n/a	n/a	0	0	0
920793	WORD	wordpools/wasnorm_wordpool_576.txt	LTP285	ltpFR2	10	5	RAFT	1159	n/a	n/a	0	0	0
923354	WORD	wordpools/wasnorm_wordpool_576.txt	LTP285	ltpFR2	10	5	GANGSTER	620	n/a	n/a	0	0	0
924969	START	n/a	LTP285	ltpFR2	10	n/a	n/a	n/a	7	n/a	n/a	n/a	n/a
925902	DISTRACTOR	n/a	LTP285	ltpFR2	10	5	n/a	n/a	n/a	n/a	0	0	0
925917	PROB	n/a	LTP285	ltpFR2	10	n/a	n/a	n/a	7	15	8	1	6
928347	PROB	n/a	LTP285	ltpFR2	10	n/a	n/a	n/a	7	11	9	1	1
929495	PROB	n/a	LTP285	ltpFR2	10	n/a	n/a	n/a	7	23	6	9	8
931259	PROB	n/a	LTP285	ltpFR2	10	n/a	n/a	n/a	7	10	3	5	2
932592	PROB	n/a	LTP285	ltpFR2	10	n/a	n/a	n/a	7	11	5	3	3
933673	PROB	n/a	LTP285	ltpFR2	10	n/a	n/a	n/a	7	9	6	1	2
934837	PROB	n/a	LTP285	ltpFR2	10	n/a	n/a	n/a	7	9	4	1	4
936252	PROB	n/a	LTP285	ltpFR2	10	n/a	n/a	n/a	7	12	4	4	3
938116	PROB	n/a	LTP285	ltpFR2	10	n/a	n/a	n/a	7	17	5	7	4
940146	PROB	n/a	LTP285	ltpFR2	10	n/a	n/a	n/a	7	11	6	1	4
941211	PROB	n/a	LTP285	ltpFR2	10	n/a	n/a	n/a	7	18	3	7	8
942176	PROB	n/a	LTP285	ltpFR2	10	n/a	n/a	n/a	7	18	3	9	6
943609	PROB	n/a	LTP285	ltpFR2	10	n/a	n/a	n/a	7	21	7	9	5
946819	PROB	n/a	LTP285	ltpFR2	10	n/a	n/a	n/a	7	11	5	5	1
947693	STOP	n/a	LTP285	ltpFR2	10	n/a	n/a	n/a	7	n/a	n/a	n/a	n/a
950797	REC_START	n/a	LTP285	ltpFR2	10	5	n/a	n/a	n/a	n/a	0	0	0
951484	REC_WORD	wordpools/wasnorm_wordpool_576.txt	LTP285	ltpFR2	10	5	FRIAR	605	n/a	n/a	0	0	0
952616	REC_WORD	wordpools/wasnorm_wordpool_576.txt	LTP285	ltpFR2	10	5	FRIEND	606	n/a	n/a	0	0	0
954295	REC_WORD	wordpools/wasnorm_wordpool_576.txt	LTP285	ltpFR2	10	5	PUDDLE	1140	n/a	n/a	0	0	0
955483	REC_WORD	wordpools/wasnorm_wordpool_576.txt	LTP285	ltpFR2	10	5	RAFT	1159	n/a	n/a	0	0	0
956678	REC_WORD	wordpools/wasnorm_wordpool_576.txt	LTP285	ltpFR2	10	5	STREAM	1392	n/a	n/a	0	0	0
960108	REC_WORD	wordpools/wasnorm_wordpool_576.txt	LTP285	ltpFR2	10	5	PICNIC	1060	n/a	n/a	0	0	0
961289	REC_WORD	wordpools/wasnorm_wordpool_576.txt	LTP285	ltpFR2	10	5	LUNCH	849	n/a	n/a	0	0	0
973201	REC_WORD	wordpools/wasnorm_wordpool_576.txt	LTP285	ltpFR2	10	5	BEAKER	104	n/a	n/a	0	0	0
974252	REC_WORD	wordpools/wasnorm_wordpool_576.txt	LTP285	ltpFR2	10	5	FLASK	576	n/a	n/a	0	0	0
984205	REC_WORD	wordpools/wasnorm_wordpool_576.txt	LTP285	ltpFR2	10	5	PLAID	1080	n/a	n/a	0	0	0
986022	REC_WORD	wordpools/wasnorm_wordpool_576.txt	LTP285	ltpFR2	10	5	JEANS	752	n/a	n/a	0	0	0
987464	REC_WORD	wordpools/wasnorm_wordpool_576.txt	LTP285	ltpFR2	10	5	SPOOL	1356	n/a	n/a	0	0	0
1009118	REC_WORD	wordpools/wasnorm_wordpool_576.txt	LTP285	ltpFR2	10	5	GANGSTER	620	n/a	n/a	0	0	0
1041428	DISTRACTOR	n/a	LTP285	ltpFR2	10	6	n/a	n/a	n/a	n/a	0	0	0
1041428	START	n/a	LTP285	ltpFR2	10	n/a	n/a	n/a	8	n/a	n/a	n/a	n/a
1041461	PROB	n/a	LTP285	ltpFR2	10	n/a	n/a	n/a	8	11	4	6	1
1042443	PROB	n/a	LTP285	ltpFR2	10	n/a	n/a	n/a	8	11	4	1	6
1043392	PROB	n/a	LTP285	ltpFR2	10	n/a	n/a	n/a	8	15	2	8	5
1044374	PROB	n/a	LTP285	ltpFR2	10	n/a	n/a	n/a	8	14	6	2	6
1045773	PROB	n/a	LTP285	ltpFR2	10	n/a	n/a	n/a	8	9	5	1	3
1046970	PROB	n/a	LTP285	ltpFR2	10	n/a	n/a	n/a	8	8	3	3	2
1048201	PROB	n/a	LTP285	ltpFR2	10	n/a	n/a	n/a	8	16	6	9	1
1049634	PROB	n/a	LTP285	ltpFR2	10	n/a	n/a	n/a	8	9	1	7	1
1050914	PROB	n/a	LTP285	ltpFR2	10	n/a	n/a	n/a	8	24	9	8	7
1052412	PROB	n/a	LTP285	ltpFR2	10	n/a	n/a	n/a	8	5	3	1	1
1053210	PROB	n/a	LTP285	ltpFR2	10	n/a	n/a	n/a	8	13	3	3	7
1054326	PROB	n/a	LTP285	ltpFR2	10	n/a	n/a	n/a	8	18	7	9	2
1055823	PROB	n/a	LTP285	ltpFR2	10	n/a	n/a	n/a	8	15	5	7	4
1057238	PROB	n/a	LTP285	ltpFR2	10	n/a	n/a	n/a	8	16	6	3	7
1058353	PROB	n/a	LTP285	ltpFR2	10	n/a	n/a	n/a	8	6	1	3	2
1059702	PROB	n/a	LTP285	ltpFR2	10	n/a	n/a	n/a	8	19	4	9	6
1061049	PROB	n/a	LTP285	ltpFR2	10	n/a	n/a	n/a	8	10	3	4	3
1062413	PROB	n/a	LTP285	ltpFR2	10	n/a	n/a	n/a	8	11	8	2	1
1065428	STOP	n/a	LTP285	ltpFR2	10	n/a	n/a	n/a	8	n/a	n/a	n/a	n/a
1066358	WORD	wordpools/wasnorm_wordpool_576.txt	LTP285	ltpFR2	10	6	BLADE	134	n/a	n/a	0	0	0
1069103	WORD	wordpools/wasnorm_wordpool_576.txt	LTP285	ltpFR2	10	6	PARSLEY	1016	n/a	n/a	0	0	0
1071550	WORD	wordpools/wasnorm_wordpool_576.txt	LTP285	ltpFR2	10	6	COBRA	336	n/a	n/a	0	0	0
1074279	WORD	wordpools/wasnorm_wordpool_576.txt	LTP285	ltpFR2	10	6	SWORD	1423	n/a	n/a	0	0	0
1076842	WORD	wordpools/wasnorm_wordpool_576.txt	LTP285	ltpFR2	10	6	KNIFE	785	n/a	n/a	0	0	0
1079538	WORD	wordpools/wasnorm_wordpool_576.txt	LTP285	ltpFR2	10	6	COUSIN	392	n/a	n/a	0	0	0
1082034	WORD	wordpools/wasnorm_wordpool_576.txt	LTP285	ltpFR2	10	6	KLEENEX	782	n/a	n/a	0	0	0
1084748	WORD	wordpools/wasnorm_wordpool_576.txt	LTP285	ltpFR2	10	6	SCALLOP	1242	n/a	n/a	0	0	0
1087526	WORD	wordpools/wasnorm_wordpool_576.txt	LTP285	ltpFR2	10	6	PASTRY	1022	n/a	n/a	0	0	0
1090338	WORD	wordpools/wasnorm_wordpool_576.txt	LTP285	ltpFR2	10	6	DOUGHNUT	490	n/a	n/a	0	0	0
1092786	WORD	wordpools/wasnorm_wordpool_576.txt	LTP285	ltpFR2	10	6	EGYPT	519	n/a	n/a	0	0	0
1095264	WORD	wordpools/wasnorm_wordpool_576.txt	LTP285	ltpFR2	10	6	SHIRT	1287	n/a	n/a	0	0	0
1097910	WORD	wordpools/wasnorm_wordpool_576.txt	LTP285	ltpFR2	10	6	AUTHOR	61	n/a	n/a	0	0	0
1100707	WORD	wordpools/wasnorm_wordpool_576.txt	LTP285	ltpFR2	10	6	PERMIT	1051	n/a	n/a	0	0	0
1103485	WORD	wordpools/wasnorm_wordpool_576.txt	LTP285	ltpFR2	10	6	PORTRAIT	1111	n/a	n/a	0	0	0
1105965	WORD	wordpools/wasnorm_wordpool_576.txt	LTP285	ltpFR2	10	6	PICTURE	1061	n/a	n/a	0	0	0
1108612	WORD	wordpools/wasnorm_wordpool_576.txt	LTP285	ltpFR2	10	6	GRIZZLY	662	n/a	n/a	0	0	0
1111290	WORD	wordpools/wasnorm_wordpool_576.txt	LTP285	ltpFR2	10	6	POET	1095	n/a	n/a	0	0	0
1114020	WORD	wordpools/wasnorm_wordpool_576.txt	LTP285	ltpFR2	10	6	LONDON	843	n/a	n/a	0	0	0
1116617	WORD	wordpools/wasnorm_wordpool_576.txt	LTP285	ltpFR2	10	6	PERCH	1048	n/a	n/a	0	0	0
1119095	WORD	wordpools/wasnorm_wordpool_576.txt	LTP285	ltpFR2	10	6	SANDWICH	1232	n/a	n/a	0	0	0
1121659	WORD	wordpools/wasnorm_wordpool_576.txt	LTP285	ltpFR2	10	6	ULCER	1533	n/a	n/a	0	0	0
1124121	WORD	wordpools/wasnorm_wordpool_576.txt	LTP285	ltpFR2	10	6	CASHEW	253	n/a	n/a	0	0	0
1126917	WORD	wordpools/wasnorm_wordpool_576.txt	LTP285	ltpFR2	10	6	LIGHTNING	820	n/a	n/a	0	0	0
1128532	START	n/a	LTP285	ltpFR2	10	n/a	n/a	n/a	9	n/a	n/a	n/a	n/a
1129443	DISTRACTOR	n/a	LTP285	ltpFR2	10	6	n/a	n/a	n/a	n/a	0	0	0
1129447	PROB	n/a	LTP285	ltpFR2	10	n/a	n/a	n/a	9	11	3	5	4
1130944	PROB	n/a	LTP285	ltpFR2	10	n/a	n/a	n/a	9	15	9	3	3
1132892	PROB	n/a	LTP285	ltpFR2	10	n/a	n/a	n/a	9	16	8	7	1
1134339	PROB	n/a	LTP285	ltpFR2	10	n/a	n/a	n/a	9	11	7	3	1
1135288	PROB	n/a	LTP285	ltpFR2	10	n/a	n/a	n/a	9	11	4	1	6
1136187	PROB	n/a	LTP285	ltpFR2	10	n/a	n/a	n/a	9	7	4	2	1
1138450	PROB	n/a	LTP285	ltpFR2	10	n/a	n/a	n/a	9	17	6	5	6
1140330	PROB	n/a	LTP285	ltpFR2	10	n/a	n/a	n/a	9	18	8	5	5
1141596	PROB	n/a	LTP285	ltpFR2	10	n/a	n/a	n/a	9	15	4	9	2
1143326	PROB	n/a	LTP285	ltpFR2	10	n/a	n/a	n/a	9	13	4	6	3
1144524	PROB	n/a	LTP285	ltpFR2	10	n/a	n/a	n/a	9	24	9	7	7
1145972	PROB	n/a	LTP285	ltpFR2	10	n/a	n/a	n/a	9	14	5	1	8
1147370	PROB	n/a	LTP285	ltpFR2	10	n/a	n/a	n/a	9	19	7	4	8
1148818	PROB	n/a	LTP285	ltpFR2	10	n/a	n/a	n/a	9	14	4	5	5
1149883	PROB	n/a	LTP285	ltpFR2	10	n/a	n/a	n/a	9	17	6	2	9
1151036	STOP	n/a	LTP285	ltpFR2	10	n/a	n/a	n/a	9	n/a	n/a	n/a	n/a
1154393	REC_START	n/a	LTP285	ltpFR2	10	6	n/a	n/a	n/a	n/a	0	0	0
1155302	REC_WORD	wordpools/wasnorm_wordpool_576.txt	LTP285	ltpFR2	10	6	ULCER	1533	n/a	n/a	0	0	0
1156208	REC_WORD	wordpools/wasnorm_wordpool_576.txt	LTP285	ltpFR2	10	6	LIGHTNING	820	n/a	n/a	0	0	0
1157481	REC_WORD	wordpools/wasnorm_wordpool_576.txt	LTP285	ltpFR2	10	6	DOUGHNUT	490	n/a	n/a	0	0	0
1158583	REC_WORD	wordpools/wasnorm_wordpool_576.txt	LTP285	ltpFR2	10	6	PASTRY	1022	n/a	n/a	0	0	0
1167183	REC_WORD	wordpools/wasnorm_wordpool_576.txt	LTP285	ltpFR2	10	6	COUSIN	392	n/a	n/a	0	0	0
1168301	REC_WORD	wordpools/wasnorm_wordpool_576.txt	LTP285	ltpFR2	10	6	KLEENEX	782	n/a	n/a	0	0	0
1179057	REC_WORD	wordpools/wasnorm_wordpool_576.txt	LTP285	ltpFR2	10	6	KNIFE	785	n/a	n/a	0	0	0
1180312	REC_WORD	wordpools/wasnorm_wordpool_576.txt	LTP285	ltpFR2	10	6	BLADE	134	n/a	n/a	0	0	0
1181391	REC_WORD	wordpools/wasnorm_wordpool_576.txt	LTP285	ltpFR2	10	6	SWORD	1423	n/a	n/a	0	0	0
1202867	REC_WORD	wordpools/wasnorm_wordpool_576.txt	LTP285	ltpFR2	10	6	SANDWICH	1232	n/a	n/a	0	0	0
1245074	WORD	wordpools/wasnorm_wordpool_576.txt	LTP285	ltpFR2	10	7	DANDRUFF	439	n/a	n/a	0	0	0
1247638	WORD	wordpools/wasnorm_wordpool_576.txt	LTP285	ltpFR2	10	7	MISSILE	900	n/a	n/a	0	0	0
1250333	WORD	wordpools/wasnorm_wordpool_576.txt	LTP285	ltpFR2	10	7	WINDOW	1611	n/a	n/a	0	0	0
1253095	WORD	wordpools/wasnorm_wordpool_576.txt	LTP285	ltpFR2	10	7	GLASS	639	n/a	n/a	0	0	0
1255676	WORD	wordpools/wasnorm_wordpool_576.txt	LTP285	ltpFR2	10	7	FILM	565	n/a	n/a	0	0	0
1258471	WORD	wordpools/wasnorm_wordpool_576.txt	LTP285	ltpFR2	10	7	TUNNEL	1519	n/a	n/a	0	0	0
1261050	WORD	wordpools/wasnorm_wordpool_576.txt	LTP285	ltpFR2	10	7	CHILD	299	n/a	n/a	0	0	0
1263564	WORD	wordpools/wasnorm_wordpool_576.txt	LTP285	ltpFR2	10	7	WIFE	1609	n/a	n/a	0	0	0
1266043	WORD	wordpools/wasnorm_wordpool_576.txt	LTP285	ltpFR2	10	7	OX	994	n/a	n/a	0	0	0
1268656	WORD	wordpools/wasnorm_wordpool_576.txt	LTP285	ltpFR2	10	7	PRINCE	1124	n/a	n/a	0	0	0
1271285	WORD	wordpools/wasnorm_wordpool_576.txt	LTP285	ltpFR2	10	7	TRIBE	1505	n/a	n/a	0	0	0
1274064	WORD	wordpools/wasnorm_wordpool_576.txt	LTP285	ltpFR2	10	7	WIDOW	1608	n/a	n/a	0	0	0
1276843	WORD	wordpools/wasnorm_wordpool_576.txt	LTP285	ltpFR2	10	7	FRANCE	601	n/a	n/a	0	0	0
1279389	WORD	wordpools/wasnorm_wordpool_576.txt	LTP285	ltpFR2	10	7	LEOPARD	812	n/a	n/a	0	0	0
1282002	WORD	wordpools/wasnorm_wordpool_576.txt	LTP285	ltpFR2	10	7	MAMMAL	861	n/a	n/a	0	0	0
1284733	WORD	wordpools/wasnorm_wordpool_576.txt	LTP285	ltpFR2	10	7	DRINK	498	n/a	n/a	0	0	0
1287494	WORD	wordpools/wasnorm_wordpool_576.txt	LTP285	ltpFR2	10	7	POPCORN	1104	n/a	n/a	0	0	0
1290323	WORD	wordpools/wasnorm_wordpool_576.txt	LTP285	ltpFR2	10	7	SLOPE	1328	n/a	n/a	0	0	0
1292754	WORD	wordpools/wasnorm_wordpool_576.txt	LTP285	ltpFR2	10	7	CANYON	235	n/a	n/a	0	0	0
1295232	WORD	wordpools/wasnorm_wordpool_576.txt	LTP285	ltpFR2	10	7	CLAMP	316	n/a	n/a	0	0	0
1297945	WORD	wordpools/wasnorm_wordpool_576.txt	LTP285	ltpFR2	10	7	MILK	895	n/a	n/a	0	0	0
1300541	WORD	wordpools/wasnorm_wordpool_576.txt	LTP285	ltpFR2	10	7	MUSTARD	935	n/a	n/a	0	0	0
1303237	WORD	wordpools/wasnorm_wordpool_576.txt	LTP285	ltpFR2	10	7	STAKE	1368	n/a	n/a	0	0	0
1305768	WORD	wordpools/wasnorm_wordpool_576.txt	LTP285	ltpFR2	10	7	WAITRESS	1581	n/a	n/a	0	0	0
1307381	START	n/a	LTP285	ltpFR2	10	n/a	n/a	n/a	10	n/a	n/a	n/a	n/a
1308338	DISTRACTOR	n/a	LTP285	ltpFR2	10	7	n/a	n/a	n/a	n/a	0	0	0
1308346	PROB	n/a	LTP285	ltpFR2	10	n/a	n/a	n/a	10	14	4	6	4
1309528	PROB	n/a	LTP285	ltpFR2	10	n/a	n/a	n/a	10	16	5	5	6
1310543	PROB	n/a	LTP285	ltpFR2	10	n/a	n/a	n/a	10	14	6	5	3
1311908	PROB	n/a	LTP285	ltpFR2	10	n/a	n/a	n/a	10	22	7	9	6
1314887	PROB	n/a	LTP285	ltpFR2	10	n/a	n/a	n/a	10	20	9	6	5
1316384	PROB	n/a	LTP285	ltpFR2	10	n/a	n/a	n/a	10	14	4	9	1
1317733	PROB	n/a	LTP285	ltpFR2	10	n/a	n/a	n/a	10	21	7	9	5
1320295	PROB	n/a	LTP285	ltpFR2	10	n/a	n/a	n/a	10	11	1	8	2
1321244	PROB	n/a	LTP285	ltpFR2	10	n/a	n/a	n/a	10	15	8	5	2
1322576	PROB	n/a	LTP285	ltpFR2	10	n/a	n/a	n/a	10	10	1	2	7
1323691	PROB	n/a	LTP285	ltpFR2	10	n/a	n/a	n/a	10	16	8	1	7
1325204	PROB	n/a	LTP285	ltpFR2	10	n/a	n/a	n/a	10	13	4	1	8
1326570	PROB	n/a	LTP285	ltpFR2	10	n/a	n/a	n/a	10	15	4	9	2
1328133	PROB	n/a	LTP285	ltpFR2	10	n/a	n/a	n/a	10	16	8	4	4
1329431	PROB	n/a	LTP285	ltpFR2	10	n/a	n/a	n/a	10	16	6	5	5
1330364	STOP	n/a	LTP285	ltpFR2	10	n/a	n/a	n/a	10	n/a	n/a	n/a	n/a
1333310	REC_START	n/a	LTP285	ltpFR2	10	7	n/a	n/a	n/a	n/a	0	0	0
1333986	REC_WORD	wordpools/wasnorm_wordpool_576.txt	LTP285	ltpFR2	10	7	CLAMP	316	n/a	n/a	0	0	0
1334986	REC_WORD	wordpools/wasnorm_wordpool_576.txt	LTP285	ltpFR2	10	7	STAKE	1368	n/a	n/a	0	0	0
1336522	REC_WORD	wordpools/wasnorm_wordpool_576.txt	LTP285	ltpFR2	10	7	PRINCE	1124	n/a	n/a	0	0	0
1337643	REC_WORD	wordpools/wasnorm_wordpool_576.txt	LTP285	ltpFR2	10	7	TRIBE	1505	n/a	n/a	0	0	0
1339060	REC_WORD	wordpools/wasnorm_wordpool_576.txt	LTP285	ltpFR2	10	7	WAITRESS	1581	n/a	n/a	0	0	0
1340724	REC_WORD	wordpools/wasnorm_wordpool_576.txt	LTP285	ltpFR2	10	7	DANDRUFF	439	n/a	n/a	0	0	0
1345997	REC_WORD	wordpools/wasnorm_wordpool_576.txt	LTP285	ltpFR2	10	7	WINDOW	1611	n/a	n/a	0	0	0
1347286	REC_WORD	wordpools/wasnorm_wordpool_576.txt	LTP285	ltpFR2	10	7	GLASS	639	n/a	n/a	0	0	0
1348436	REC_WORD	wordpools/wasnorm_wordpool_576.txt	LTP285	ltpFR2	10	7	FILM	565	n/a	n/a	0	0	0
1349785	REC_WORD	wordpools/wasnorm_wordpool_576.txt	LTP285	ltpFR2	10	7	WIFE	1609	n/a	n/a	0	0	0
1351029	REC_WORD	wordpools/wasnorm_wordpool_576.txt	LTP285	ltpFR2	10	7	WIDOW	1608	n/a	n/a	0	0	0
1370752	REC_WORD	wordpools/wasnorm_wordpool_576.txt	LTP285	ltpFR2	10	7	MAMMAL	861	n/a	n/a	0	0	0
1371959	REC_WORD	wordpools/wasnorm_wordpool_576.txt	LTP285	ltpFR2	10	7	LEOPARD	812	n/a	n/a	0	0	0
1393073	REC_WORD	wordpools/wasnorm_wordpool_576.txt	LTP285	ltpFR2	10	7	MILK	895	n/a	n/a	0	0	0
1402848	REC_WORD	wordpools/wasnorm_wordpool_576.txt	LTP285	ltpFR2	10	7	OX	994	n/a	n/a	0	0	0
1423974	WORD	wordpools/wasnorm_wordpool_576.txt	LTP285	ltpFR2	10	8	LUGGAGE	847	n/a	n/a	0	0	0
1426637	WORD	wordpools/wasnorm_wordpool_576.txt	LTP285	ltpFR2	10	8	OUTFIT	988	n/a	n/a	0	0	0
1429232	WORD	wordpools/wasnorm_wordpool_576.txt	LTP285	ltpFR2	10	8	SILK	1307	n/a	n/a	0	0	0
1431928	WORD	wordpools/wasnorm_wordpool_576.txt	LTP285	ltpFR2	10	8	VELVET	1555	n/a	n/a	0	0	0
1434742	WORD	wordpools/wasnorm_wordpool_576.txt	LTP285	ltpFR2	10	8	WOMAN	1620	n/a	n/a	0	0	0
1437404	WORD	wordpools/wasnorm_wordpool_576.txt	LTP285	ltpFR2	10	8	PARENT	1013	n/a	n/a	0	0	0
1440083	WORD	wordpools/wasnorm_wordpool_576.txt	LTP285	ltpFR2	10	8	TUTU	1524	n/a	n/a	0	0	0
1442614	WORD	wordpools/wasnorm_wordpool_576.txt	LTP285	ltpFR2	10	8	SUNRISE	1407	n/a	n/a	0	0	0
1445342	WORD	wordpools/wasnorm_wordpool_576.txt	LTP285	ltpFR2	10	8	ARM	38	n/a	n/a	0	0	0
1447988	WORD	wordpools/wasnorm_wordpool_576.txt	LTP285	ltpFR2	10	8	POCKET	1093	n/a	n/a	0	0	0
1450551	WORD	wordpools/wasnorm_wordpool_576.txt	LTP285	ltpFR2	10	8	CRIB	407	n/a	n/a	0	0	0
1453063	WORD	wordpools/wasnorm_wordpool_576.txt	LTP285	ltpFR2	10	8	BROTHER	179	n/a	n/a	0	0	0
1455859	WORD	wordpools/wasnorm_wordpool_576.txt	LTP285	ltpFR2	10	8	SODA	1341	n/a	n/a	0	0	0
1458322	WORD	wordpools/wasnorm_wordpool_576.txt	LTP285	ltpFR2	10	8	MACHINE	852	n/a	n/a	0	0	0
1461118	WORD	wordpools/wasnorm_wordpool_576.txt	LTP285	ltpFR2	10	8	SHOVEL	1295	n/a	n/a	0	0	0
1463715	WORD	wordpools/wasnorm_wordpool_576.txt	LTP285	ltpFR2	10	8	PACKAGE	997	n/a	n/a	0	0	0
1466360	WORD	wordpools/wasnorm_wordpool_576.txt	LTP285	ltpFR2	10	8	STAMP	1370	n/a	n/a	0	0	0
1468873	WORD	wordpools/wasnorm_wordpool_576.txt	LTP285	ltpFR2	10	8	SUBWAY	1400	n/a	n/a	0	0	0
1471386	WORD	wordpools/wasnorm_wordpool_576.txt	LTP285	ltpFR2	10	8	MISTER	901	n/a	n/a	0	0	0
1474082	WORD	wordpools/wasnorm_wordpool_576.txt	LTP285	ltpFR2	10	8	POWDER	1117	n/a	n/a	0	0	0
1476878	WORD	wordpools/wasnorm_wordpool_576.txt	LTP285	ltpFR2	10	8	TRACTOR	1493	n/a	n/a	0	0	0
1479341	WORD	wordpools/wasnorm_wordpool_576.txt	LTP285	ltpFR2	10	8	JUDGE	761	n/a	n/a	0	0	0
1481970	WORD	wordpools/wasnorm_wordpool_576.txt	LTP285	ltpFR2	10	8	DAISY	435	n/a	n/a	0	0	0
1484450	WORD	wordpools/wasnorm_wordpool_576.txt	LTP285	ltpFR2	10	8	BULLET	194	n/a	n/a	0	0	0
1486065	START	n/a	LTP285	ltpFR2	10	n/a	n/a	n/a	11	n/a	n/a	n/a	n/a
1486987	DISTRACTOR	n/a	LTP285	ltpFR2	10	8	n/a	n/a	n/a	n/a	0	0	0
1486996	PROB	n/a	LTP285	ltpFR2	10	n/a	n/a	n/a	11	8	1	1	5
1488178	PROB	n/a	LTP285	ltpFR2	10	n/a	n/a	n/a	11	13	2	3	8
1490458	PROB	n/a	LTP285	ltpFR2	10	n/a	n/a	n/a	11	9	2	5	2
1492072	PROB	n/a	LTP285	ltpFR2	10	n/a	n/a	n/a	11	18	9	2	7
1493320	PROB	n/a	LTP285	ltpFR2	10	n/a	n/a	n/a	11	16	5	4	7
1494851	PROB	n/a	LTP285	ltpFR2	10	n/a	n/a	n/a	11	13	5	2	6
1496449	PROB	n/a	LTP285	ltpFR2	10	n/a	n/a	n/a	11	20	5	7	8
1498080	PROB	n/a	LTP285	ltpFR2	10	n/a	n/a	n/a	11	13	4	4	7
1499328	PROB	n/a	LTP285	ltpFR2	10	n/a	n/a	n/a	11	4	2	2	2
1500326	PROB	n/a	LTP285	ltpFR2	10	n/a	n/a	n/a	11	23	8	7	8
1502922	PROB	n/a	LTP285	ltpFR2	10	n/a	n/a	n/a	11	11	3	2	6
1504204	PROB	n/a	LTP285	ltpFR2	10	n/a	n/a	n/a	11	12	3	3	6
1505935	PROB	n/a	LTP285	ltpFR2	10	n/a	n/a	n/a	11	12	7	4	1
1506850	PROB	n/a	LTP285	ltpFR2	10	n/a	n/a	n/a	11	14	3	3	8
1509132	STOP	n/a	LTP285	ltpFR2	10	n/a	n/a	n/a	11	n/a	n/a	n/a	n/a
1511943	REC_START	n/a	LTP285	ltpFR2	10	8	n/a	n/a	n/a	n/a	0	0	0
1512886	REC_WORD	wordpools/wasnorm_wordpool_576.txt	LTP285	ltpFR2	10	8	MISSILE	900	n/a	n/a	0	0	0
1514204	REC_WORD	wordpools/wasnorm_wordpool_576.txt	LTP285	ltpFR2	10	8	BULLET	194	n/a	n/a	0	0	0
1515413	REC_WORD	wordpools/wasnorm_wordpool_576.txt	LTP285	ltpFR2	10	8	PARENT	1013	n/a	n/a	0	0	0
1516811	REC_WORD	wordpools/wasnorm_wordpool_576.txt	LTP285	ltpFR2	10	8	WOMAN	1620	n/a	n/a	0	0	0
1518082	REC_WORD	wordpools/wasnorm_wordpool_576.txt	LTP285	ltpFR2	10	8	BROTHER	179	n/a	n/a	0	0	0
1527276	REC_WORD	wordpools/wasnorm_wordpool_576.txt	LTP285	ltpFR2	10	8	ARM	38	n/a	n/a	0	0	0
1529771	REC_WORD	wordpools/wasnorm_wordpool_576.txt	LTP285	ltpFR2	10	8	LUGGAGE	847	n/a	n/a	0	0	0
1531884	REC_WORD	wordpools/wasnorm_wordpool_576.txt	LTP285	ltpFR2	10	8	CLOTHES	327	n/a	n/a	0	0	0
1533723	REC_WORD	wordpools/wasnorm_wordpool_576.txt	LTP285	ltpFR2	10	8	SILK	1307	n/a	n/a	0	0	0
1535183	REC_WORD	wordpools/wasnorm_wordpool_576.txt	LTP285	ltpFR2	10	8	VELVET	1555	n/a	n/a	0	0	0
1542217	REC_WORD	wordpools/wasnorm_wordpool_576.txt	LTP285	ltpFR2	10	8	OUTFIT	988	n/a	n/a	0	0	0
1552983	REC_WORD	wordpools/wasnorm_wordpool_576.txt	LTP285	ltpFR2	10	8	COSTUME	383	n/a	n/a	0	0	0
1555955	REC_WORD	wordpools/wasnorm_wordpool_576.txt	LTP285	ltpFR2	10	8	SUNRISE	1407	n/a	n/a	0	0	0
1562132	REC_WORD	wordpools/wasnorm_wordpool_576.txt	LTP285	ltpFR2	10	8	POWDER	1117	n/a	n/a	0	0	0
1568639	REC_WORD	wordpools/wasnorm_wordpool_576.txt	LTP285	ltpFR2	10	8	SODA	1341	n/a	n/a	0	0	0
1569927	REC_WORD	wordpools/wasnorm_wordpool_576.txt	LTP285	ltpFR2	10	8	MACHINE	852	n/a	n/a	0	0	0
1588545	REST_REWET	n/a	LTP285	ltpFR2	10	8	n/a	n/a	n/a	n/a	0	0	0
1996386	DISTRACTOR	n/a	LTP285	ltpFR2	10	9	n/a	n/a	n/a	n/a	0	0	0
1996386	START	n/a	LTP285	ltpFR2	10	n/a	n/a	n/a	12	n/a	n/a	n/a	n/a
1996419	PROB	n/a	LTP285	ltpFR2	10	n/a	n/a	n/a	12	16	2	9	5
1998633	PROB	n/a	LTP285	ltpFR2	10	n/a	n/a	n/a	12	2	7	6	8
2001712	PROB	n/a	LTP285	ltpFR2	10	n/a	n/a	n/a	12	21	8	4	9
2003776	PROB	n/a	LTP285	ltpFR2	10	n/a	n/a	n/a	12	10	3	2	5
2004856	PROB	n/a	LTP285	ltpFR2	10	n/a	n/a	n/a	12	13	7	3	3
2005789	PROB	n/a	LTP285	ltpFR2	10	n/a	n/a	n/a	12	23	8	9	5
2009300	PROB	n/a	LTP285	ltpFR2	10	n/a	n/a	n/a	12	19	8	9	2
2010649	PROB	n/a	LTP285	ltpFR2	10	n/a	n/a	n/a	12	15	5	3	7
2011714	PROB	n/a	LTP285	ltpFR2	10	n/a	n/a	n/a	12	17	6	6	5
2012911	PROB	n/a	LTP285	ltpFR2	10	n/a	n/a	n/a	12	18	5	9	4
2014176	PROB	n/a	LTP285	ltpFR2	10	n/a	n/a	n/a	12	15	1	7	7
2015124	PROB	n/a	LTP285	ltpFR2	10	n/a	n/a	n/a	12	22	8	5	9
2017738	PROB	n/a	LTP285	ltpFR2	10	n/a	n/a	n/a	12	18	6	3	9
2019052	STOP	n/a	LTP285	ltpFR2	10	n/a	n/a	n/a	12	n/a	n/a	n/a	n/a
2021548	WORD	wordpools/wasnorm_wordpool_576.txt	LTP285	ltpFR2	10	9	MOTOR	922	n/a	n/a	0	0	0
2024327	WORD	wordpools/wasnorm_wordpool_576.txt	LTP285	ltpFR2	10	9	SUPPER	1411	n/a	n/a	0	0	0
2026857	WORD	wordpools/wasnorm_wordpool_576.txt	LTP285	ltpFR2	10	9	TWISTER	1530	n/a	n/a	0	0	0
2029353	WORD	wordpools/wasnorm_wordpool_576.txt	LTP285	ltpFR2	10	9	RECORD	1176	n/a	n/a	0	0	0
2031816	WORD	wordpools/wasnorm_wordpool_576.txt	LTP285	ltpFR2	10	9	ATLAS	53	n/a	n/a	0	0	0
2034580	WORD	wordpools/wasnorm_wordpool_576.txt	LTP285	ltpFR2	10	9	ROBOT	1200	n/a	n/a	0	0	0
2037075	WORD	wordpools/wasnorm_wordpool_576.txt	LTP285	ltpFR2	10	9	SCRIBBLE	1256	n/a	n/a	0	0	0
2039538	WORD	wordpools/wasnorm_wordpool_576.txt	LTP285	ltpFR2	10	9	BRICK	172	n/a	n/a	0	0	0
2042117	WORD	wordpools/wasnorm_wordpool_576.txt	LTP285	ltpFR2	10	9	PRINCESS	1125	n/a	n/a	0	0	0
2044764	WORD	wordpools/wasnorm_wordpool_576.txt	LTP285	ltpFR2	10	9	PALACE	1006	n/a	n/a	0	0	0
2047326	WORD	wordpools/wasnorm_wordpool_576.txt	LTP285	ltpFR2	10	9	CYCLONE	431	n/a	n/a	0	0	0
2049790	WORD	wordpools/wasnorm_wordpool_576.txt	LTP285	ltpFR2	10	9	WAGON	1578	n/a	n/a	0	0	0
2052552	WORD	wordpools/wasnorm_wordpool_576.txt	LTP285	ltpFR2	10	9	PADDING	999	n/a	n/a	0	0	0
2055264	WORD	wordpools/wasnorm_wordpool_576.txt	LTP285	ltpFR2	10	9	LACE	792	n/a	n/a	0	0	0
2057960	WORD	wordpools/wasnorm_wordpool_576.txt	LTP285	ltpFR2	10	9	FIREPLACE	570	n/a	n/a	0	0	0
2060591	WORD	wordpools/wasnorm_wordpool_576.txt	LTP285	ltpFR2	10	9	ARMY	39	n/a	n/a	0	0	0
2063119	WORD	wordpools/wasnorm_wordpool_576.txt	LTP285	ltpFR2	10	9	FLEET	578	n/a	n/a	0	0	0
2065567	WORD	wordpools/wasnorm_wordpool_576.txt	LTP285	ltpFR2	10	9	LAMP	798	n/a	n/a	0	0	0
2068228	WORD	wordpools/wasnorm_wordpool_576.txt	LTP285	ltpFR2	10	9	BUCKET	184	n/a	n/a	0	0	0
2070726	WORD	wordpools/wasnorm_wordpool_576.txt	LTP285	ltpFR2	10	9	PLAYGROUND	1087	n/a	n/a	0	0	0
2073421	WORD	wordpools/wasnorm_wordpool_576.txt	LTP285	ltpFR2	10	9	GRAVEL	659	n/a	n/a	0	0	0
2076033	WORD	wordpools/wasnorm_wordpool_576.txt	LTP285	ltpFR2	10	9	STUDENT	1395	n/a	n/a	0	0	0
2078714	WORD	wordpools/wasnorm_wordpool_576.txt	LTP285	ltpFR2	10	9	FREEZER	604	n/a	n/a	0	0	0
2081459	WORD	wordpools/wasnorm_wordpool_576.txt	LTP285	ltpFR2	10	9	WASHER	1592	n/a	n/a	0	0	0
2083073	START	n/a	LTP285	ltpFR2	10	n/a	n/a	n/a	13	n/a	n/a	n/a	n/a
2084209	DISTRACTOR	n/a	LTP285	ltpFR2	10	9	n/a	n/a	n/a	n/a	0	0	0
2084221	PROB	n/a	LTP285	ltpFR2	10	n/a	n/a	n/a	13	19	5	7	7
2085819	PROB	n/a	LTP285	ltpFR2	10	n/a	n/a	n/a	13	12	4	3	4
2087333	PROB	n/a	LTP285	ltpFR2	10	n/a	n/a	n/a	13	15	3	7	5
2088582	PROB	n/a	LTP285	ltpFR2	10	n/a	n/a	n/a	13	9	2	2	5
2089946	PROB	n/a	LTP285	ltpFR2	10	n/a	n/a	n/a	13	15	1	7	7
2090895	PROB	n/a	LTP285	ltpFR2	10	n/a	n/a	n/a	13	16	3	6	7
2092542	PROB	n/a	LTP285	ltpFR2	10	n/a	n/a	n/a	13	15	7	7	1
2093541	PROB	n/a	LTP285	ltpFR2	10	n/a	n/a	n/a	13	22	9	8	5
2097019	PROB	n/a	LTP285	ltpFR2	10	n/a	n/a	n/a	13	19	5	7	7
2098184	PROB	n/a	LTP285	ltpFR2	10	n/a	n/a	n/a	13	16	3	4	9
2100547	PROB	n/a	LTP285	ltpFR2	10	n/a	n/a	n/a	13	16	4	7	5
2101911	PROB	n/a	LTP285	ltpFR2	10	n/a	n/a	n/a	13	19	5	5	9
2103043	PROB	n/a	LTP285	ltpFR2	10	n/a	n/a	n/a	13	13	6	2	5
2104742	PROB	n/a	LTP285	ltpFR2	10	n/a	n/a	n/a	13	9	4	4	1
2105733	STOP	n/a	LTP285	ltpFR2	10	n/a	n/a	n/a	13	n/a	n/a	n/a	n/a
2108902	REC_START	n/a	LTP285	ltpFR2	10	9	n/a	n/a	n/a	n/a	0	0	0
2109597	REC_WORD	wordpools/wasnorm_wordpool_576.txt	LTP285	ltpFR2	10	9	STUDENT	1395	n/a	n/a	0	0	0
2110730	REC_WORD	wordpools/wasnorm_wordpool_576.txt	LTP285	ltpFR2	10	9	TWISTER	1530	n/a	n/a	0	0	0
2111714	REC_WORD	wordpools/wasnorm_wordpool_576.txt	LTP285	ltpFR2	10	9	CYCLONE	431	n/a	n/a	0	0	0
2113711	REC_WORD	wordpools/wasnorm_wordpool_576.txt	LTP285	ltpFR2	10	9	PLAYGROUND	1087	n/a	n/a	0	0	0
2115246	REC_WORD	wordpools/wasnorm_wordpool_576.txt	LTP285	ltpFR2	10	9	FIREPLACE	570	n/a	n/a	0	0	0
2116745	REC_WORD	wordpools/wasnorm_wordpool_576.txt	LTP285	ltpFR2	10	9	PRINCESS	1125	n/a	n/a	0	0	0
2118024	REC_WORD	wordpools/wasnorm_wordpool_576.txt	LTP285	ltpFR2	10	9	PALACE	1006	n/a	n/a	0	0	0
2120488	REC_WORD	wordpools/wasnorm_wordpool_576.txt	LTP285	ltpFR2	10	9	MOTOR	922	n/a	n/a	0	0	0
2122089	REC_WORD	wordpools/wasnorm_wordpool_576.txt	LTP285	ltpFR2	10	9	ROBOT	1200	n/a	n/a	0	0	0
2125245	REC_WORD	wordpools/wasnorm_wordpool_576.txt	LTP285	ltpFR2	10	9	LAMP	798	n/a	n/a	0	0	0
2139088	REC_WORD	wordpools/wasnorm_wordpool_576.txt	LTP285	ltpFR2	10	9	SCRIBBLE	1256	n/a	n/a	0	0	0
2150847	REC_WORD	wordpools/wasnorm_wordpool_576.txt	LTP285	ltpFR2	10	9	LACE	792	n/a	n/a	0	0	0
2168174	REC_WORD	wordpools/wasnorm_wordpool_576.txt	LTP285	ltpFR2	10	9	BUCKET	184	n/a	n/a	0	0	0
2170384	REC_WORD	wordpools/wasnorm_wordpool_576.txt	LTP285	ltpFR2	10	9	WAGON	1578	n/a	n/a	0	0	0
2199583	WORD	wordpools/wasnorm_wordpool_576.txt	LTP285	ltpFR2	10	10	PENGUIN	1044	n/a	n/a	0	0	0
2202295	WORD	wordpools/wasnorm_wordpool_576.txt	LTP285	ltpFR2	10	10	WARDROBE	1587	n/a	n/a	0	0	0
2204759	WORD	wordpools/wasnorm_wordpool_576.txt	LTP285	ltpFR2	10	10	PASTA	1021	n/a	n/a	0	0	0
2207287	WORD	wordpools/wasnorm_wordpool_576.txt	LTP285	ltpFR2	10	10	SAUSAGE	1238	n/a	n/a	0	0	0
2209850	WORD	wordpools/wasnorm_wordpool_576.txt	LTP285	ltpFR2	10	10	FRUIT	610	n/a	n/a	0	0	0
2212546	WORD	wordpools/wasnorm_wordpool_576.txt	LTP285	ltpFR2	10	10	SWAMP	1416	n/a	n/a	0	0	0
2215359	WORD	wordpools/wasnorm_wordpool_576.txt	LTP285	ltpFR2	10	10	FLESH	579	n/a	n/a	0	0	0
2218171	WORD	wordpools/wasnorm_wordpool_576.txt	LTP285	ltpFR2	10	10	PLUTO	1092	n/a	n/a	0	0	0
2220718	WORD	wordpools/wasnorm_wordpool_576.txt	LTP285	ltpFR2	10	10	OUTLAW	989	n/a	n/a	0	0	0
2223363	WORD	wordpools/wasnorm_wordpool_576.txt	LTP285	ltpFR2	10	10	FRECKLE	602	n/a	n/a	0	0	0
2225860	WORD	wordpools/wasnorm_wordpool_576.txt	LTP285	ltpFR2	10	10	PUDDING	1139	n/a	n/a	0	0	0
2228423	WORD	wordpools/wasnorm_wordpool_576.txt	LTP285	ltpFR2	10	10	BANKER	84	n/a	n/a	0	0	0
2230902	WORD	wordpools/wasnorm_wordpool_576.txt	LTP285	ltpFR2	10	10	PLIERS	1089	n/a	n/a	0	0	0
2233616	WORD	wordpools/wasnorm_wordpool_576.txt	LTP285	ltpFR2	10	10	SLIDE	1326	n/a	n/a	0	0	0
2236211	WORD	wordpools/wasnorm_wordpool_576.txt	LTP285	ltpFR2	10	10	THIEF	1456	n/a	n/a	0	0	0
2238907	WORD	wordpools/wasnorm_wordpool_576.txt	LTP285	ltpFR2	10	10	ZEBRA	1635	n/a	n/a	0	0	0
2241353	WORD	wordpools/wasnorm_wordpool_576.txt	LTP285	ltpFR2	10	10	STALLION	1369	n/a	n/a	0	0	0
2243899	WORD	wordpools/wasnorm_wordpool_576.txt	LTP285	ltpFR2	10	10	FLAG	573	n/a	n/a	0	0	0
2246412	WORD	wordpools/wasnorm_wordpool_576.txt	LTP285	ltpFR2	10	10	TWEEZERS	1526	n/a	n/a	0	0	0
2248859	WORD	wordpools/wasnorm_wordpool_576.txt	LTP285	ltpFR2	10	10	GRAPE	654	n/a	n/a	0	0	0
2251422	WORD	wordpools/wasnorm_wordpool_576.txt	LTP285	ltpFR2	10	10	CRATER	400	n/a	n/a	0	0	0
2254068	WORD	wordpools/wasnorm_wordpool_576.txt	LTP285	ltpFR2	10	10	LAVA	804	n/a	n/a	0	0	0
2256863	WORD	wordpools/wasnorm_wordpool_576.txt	LTP285	ltpFR2	10	10	JURY	766	n/a	n/a	0	0	0
2259293	WORD	wordpools/wasnorm_wordpool_576.txt	LTP285	ltpFR2	10	10	SEAL	1262	n/a	n/a	0	0	0
2260908	START	n/a	LTP285	ltpFR2	10	n/a	n/a	n/a	14	n/a	n/a	n/a	n/a
2262035	DISTRACTOR	n/a	LTP285	ltpFR2	10	10	n/a	n/a	n/a	n/a	0	0	0
2262039	PROB	n/a	LTP285	ltpFR2	10	n/a	n/a	n/a	14	15	6	5	4
2263886	PROB	n/a	LTP285	ltpFR2	10	n/a	n/a	n/a	14	11	3	3	5
2265001	PROB	n/a	LTP285	ltpFR2	10	n/a	n/a	n/a	14	15	6	2	7
2267082	PROB	n/a	LTP285	ltpFR2	10	n/a	n/a	n/a	14	16	9	1	6
2267997	PROB	n/a	LTP285	ltpFR2	10	n/a	n/a	n/a	14	14	2	5	7
2270543	PROB	n/a	LTP285	ltpFR2	10	n/a	n/a	n/a	14	18	6	4	8
2271592	PROB	n/a	LTP285	ltpFR2	10	n/a	n/a	n/a	14	21	4	8	9
2273106	PROB	n/a	LTP285	ltpFR2	10	n/a	n/a	n/a	14	17	9	4	4
2274304	PROB	n/a	LTP285	ltpFR2	10	n/a	n/a	n/a	14	9	1	5	3
2275436	PROB	n/a	LTP285	ltpFR2	10	n/a	n/a	n/a	14	22	7	7	8
2276751	PROB	n/a	LTP285	ltpFR2	10	n/a	n/a	n/a	14	21	3	8	9
2278699	PROB	n/a	LTP285	ltpFR2	10	n/a	n/a	n/a	14	10	4	1	5
2280079	PROB	n/a	LTP285	ltpFR2	10	n/a	n/a	n/a	14	8	3	3	2
2281160	PROB	n/a	LTP285	ltpFR2	10	n/a	n/a	n/a	14	13	4	4	5
2282825	PROB	n/a	LTP285	ltpFR2	10	n/a	n/a	n/a	14	25	8	9	8
2284804	STOP	n/a	LTP285	ltpFR2	10	n/a	n/a	n/a	14	n/a	n/a	n/a	n/a
2286869	REC_START	n/a	LTP285	ltpFR2	10	10	n/a	n/a	n/a	n/a	0	0	0
2287534	REC_WORD	wordpools/wasnorm_wordpool_576.txt	LTP285	ltpFR2	10	10	JURY	766	n/a	n/a	0	0	0
2288497	REC_WORD	wordpools/wasnorm_wordpool_576.txt	LTP285	ltpFR2	10	10	CRATER	400	n/a	n/a	0	0	0
2289630	REC_WORD	wordpools/wasnorm_wordpool_576.txt	LTP285	ltpFR2	10	10	LAVA	804	n/a	n/a	0	0	0
2291079	REC_WORD	wordpools/wasnorm_wordpool_576.txt	LTP285	ltpFR2	10	10	PASTA	1021	n/a	n/a	0	0	0
2294778	REC_WORD	wordpools/wasnorm_wordpool_576.txt	LTP285	ltpFR2	10	10	PUDDING	1139	n/a	n/a	0	0	0
2298152	REC_WORD	wordpools/wasnorm_wordpool_576.txt	LTP285	ltpFR2	10	10	WARDROBE	1587	n/a	n/a	0	0	0
2301175	REC_WORD	wordpools/wasnorm_wordpool_576.txt	LTP285	ltpFR2	10	10	OUTLAW	989	n/a	n/a	0	0	0
2302396	REC_WORD	wordpools/wasnorm_wordpool_576.txt	LTP285	ltpFR2	10	10	THIEF	1456	n/a	n/a	0	0	0
2313068	REC_WORD	wordpools/wasnorm_wordpool_576.txt	LTP285	ltpFR2	10	10	SWAMP	1416	n/a	n/a	0	0	0
2317681	REC_WORD	wordpools/wasnorm_wordpool_576.txt	LTP285	ltpFR2	10	10	SEAL	1262	n/a	n/a	0	0	0
2323146	REC_WORD	wordpools/wasnorm_wordpool_576.txt	LTP285	ltpFR2	10	10	FLAG	573	n/a	n/a	0	0	0
2326473	REC_WORD	wordpools/wasnorm_wordpool_576.txt	LTP285	ltpFR2	10	10	STALLION	1369	n/a	n/a	0	0	0
2327731	REC_WORD	wordpools/wasnorm_wordpool_576.txt	LTP285	ltpFR2	10	10	ZEBRA	1635	n/a	n/a	0	0	0
2330049	REC_WORD	wordpools/wasnorm_wordpool_576.txt	LTP285	ltpFR2	10	10	GRAPE	654	n/a	n/a	0	0	0
2343750	REC_WORD	wordpools/wasnorm_wordpool_576.txt	LTP285	ltpFR2	10	10	ATLAS	53	n/a	n/a	0	0	0
2350246	REC_WORD	wordpools/wasnorm_wordpool_576.txt	LTP285	ltpFR2	10	10	PENGUIN	1044	n/a	n/a	0	0	0
2377533	DISTRACTOR	n/a	LTP285	ltpFR2	10	11	n/a	n/a	n/a	n/a	0	0	0
2377533	START	n/a	LTP285	ltpFR2	10	n/a	n/a	n/a	15	n/a	n/a	n/a	n/a
2377568	PROB	n/a	LTP285	ltpFR2	10	n/a	n/a	n/a	15	11	1	3	7
2378548	PROB	n/a	LTP285	ltpFR2	10	n/a	n/a	n/a	15	18	6	9	3
2379896	PROB	n/a	LTP285	ltpFR2	10	n/a	n/a	n/a	15	19	6	4	9
2380845	PROB	n/a	LTP285	ltpFR2	10	n/a	n/a	n/a	15	16	4	8	4
2382443	PROB	n/a	LTP285	ltpFR2	10	n/a	n/a	n/a	15	8	4	1	5
2383940	PROB	n/a	LTP285	ltpFR2	10	n/a	n/a	n/a	15	21	4	8	7
2385438	PROB	n/a	LTP285	ltpFR2	10	n/a	n/a	n/a	15	12	3	3	6
2386437	PROB	n/a	LTP285	ltpFR2	10	n/a	n/a	n/a	15	14	3	9	2
2388334	PROB	n/a	LTP285	ltpFR2	10	n/a	n/a	n/a	15	16	8	6	2
2389332	PROB	n/a	LTP285	ltpFR2	10	n/a	n/a	n/a	15	8	1	1	6
2390264	PROB	n/a	LTP285	ltpFR2	10	n/a	n/a	n/a	15	9	5	2	2
2391363	PROB	n/a	LTP285	ltpFR2	10	n/a	n/a	n/a	15	12	6	2	4
2392295	PROB	n/a	LTP285	ltpFR2	10	n/a	n/a	n/a	15	13	7	5	1
2394025	PROB	n/a	LTP285	ltpFR2	10	n/a	n/a	n/a	15	15	2	5	8
2395674	PROB	n/a	LTP285	ltpFR2	10	n/a	n/a	n/a	15	16	1	7	8
2396689	PROB	n/a	LTP285	ltpFR2	10	n/a	n/a	n/a	15	7	1	1	5
2397654	PROB	n/a	LTP285	ltpFR2	10	n/a	n/a	n/a	15	19	5	5	9
2398636	PROB	n/a	LTP285	ltpFR2	10	n/a	n/a	n/a	15	20	5	6	9
2401533	STOP	n/a	LTP285	ltpFR2	10	n/a	n/a	n/a	15	n/a	n/a	n/a	n/a
2402680	WORD	wordpools/wasnorm_wordpool_576.txt	LTP285	ltpFR2	10	11	QUEEN	1149	n/a	n/a	0	0	0
2405358	WORD	wordpools/wasnorm_wordpool_576.txt	LTP285	ltpFR2	10	11	CRICKET	408	n/a	n/a	0	0	0
2407905	WORD	wordpools/wasnorm_wordpool_576.txt	LTP285	ltpFR2	10	11	HOUND	724	n/a	n/a	0	0	0
2410401	WORD	wordpools/wasnorm_wordpool_576.txt	LTP285	ltpFR2	10	11	BALLOON	75	n/a	n/a	0	0	0
2413130	WORD	wordpools/wasnorm_wordpool_576.txt	LTP285	ltpFR2	10	11	CABBAGE	210	n/a	n/a	0	0	0
2415909	WORD	wordpools/wasnorm_wordpool_576.txt	LTP285	ltpFR2	10	11	JUGGLER	763	n/a	n/a	0	0	0
2418539	WORD	wordpools/wasnorm_wordpool_576.txt	LTP285	ltpFR2	10	11	CLOUD	328	n/a	n/a	0	0	0
2420985	WORD	wordpools/wasnorm_wordpool_576.txt	LTP285	ltpFR2	10	11	NEUTRON	947	n/a	n/a	0	0	0
2423531	WORD	wordpools/wasnorm_wordpool_576.txt	LTP285	ltpFR2	10	11	BUNNY	198	n/a	n/a	0	0	0
2426244	WORD	wordpools/wasnorm_wordpool_576.txt	LTP285	ltpFR2	10	11	RIFLE	1192	n/a	n/a	0	0	0
2428907	WORD	wordpools/wasnorm_wordpool_576.txt	LTP285	ltpFR2	10	11	FOX	598	n/a	n/a	0	0	0
2431336	WORD	wordpools/wasnorm_wordpool_576.txt	LTP285	ltpFR2	10	11	ROD	1203	n/a	n/a	0	0	0
2434099	WORD	wordpools/wasnorm_wordpool_576.txt	LTP285	ltpFR2	10	11	LAKE	796	n/a	n/a	0	0	0
2436861	WORD	wordpools/wasnorm_wordpool_576.txt	LTP285	ltpFR2	10	11	DRUG	501	n/a	n/a	0	0	0
2439575	WORD	wordpools/wasnorm_wordpool_576.txt	LTP285	ltpFR2	10	11	CREVICE	405	n/a	n/a	0	0	0
2442120	WORD	wordpools/wasnorm_wordpool_576.txt	LTP285	ltpFR2	10	11	SIDEWALK	1303	n/a	n/a	0	0	0
2444767	WORD	wordpools/wasnorm_wordpool_576.txt	LTP285	ltpFR2	10	11	HIGHWAY	707	n/a	n/a	0	0	0
2447229	WORD	wordpools/wasnorm_wordpool_576.txt	LTP285	ltpFR2	10	11	NOMAD	955	n/a	n/a	0	0	0
2450042	WORD	wordpools/wasnorm_wordpool_576.txt	LTP285	ltpFR2	10	11	CHAPEL	280	n/a	n/a	0	0	0
2452838	WORD	wordpools/wasnorm_wordpool_576.txt	LTP285	ltpFR2	10	11	PISTOL	1075	n/a	n/a	0	0	0
2455350	WORD	wordpools/wasnorm_wordpool_576.txt	LTP285	ltpFR2	10	11	PARTNER	1017	n/a	n/a	0	0	0
2457813	WORD	wordpools/wasnorm_wordpool_576.txt	LTP285	ltpFR2	10	11	UMPIRE	1535	n/a	n/a	0	0	0
2460610	WORD	wordpools/wasnorm_wordpool_576.txt	LTP285	ltpFR2	10	11	FLOWER	584	n/a	n/a	0	0	0
2463089	WORD	wordpools/wasnorm_wordpool_576.txt	LTP285	ltpFR2	10	11	EUROPE	541	n/a	n/a	0	0	0
2464704	START	n/a	LTP285	ltpFR2	10	n/a	n/a	n/a	16	n/a	n/a	n/a	n/a
2465841	DISTRACTOR	n/a	LTP285	ltpFR2	10	11	n/a	n/a	n/a	n/a	0	0	0
2465851	PROB	n/a	LTP285	ltpFR2	10	n/a	n/a	n/a	16	10	8	1	1
2467366	PROB	n/a	LTP285	ltpFR2	10	n/a	n/a	n/a	16	10	5	1	4
2468481	PROB	n/a	LTP285	ltpFR2	10	n/a	n/a	n/a	16	16	4	4	8
2469747	PROB	n/a	LTP285	ltpFR2	10	n/a	n/a	n/a	16	22	9	4	9
2471410	PROB	n/a	LTP285	ltpFR2	10	n/a	n/a	n/a	16	18	9	2	7
2472676	PROB	n/a	LTP285	ltpFR2	10	n/a	n/a	n/a	16	16	7	2	7
2474089	PROB	n/a	LTP285	ltpFR2	10	n/a	n/a	n/a	16	14	2	3	9
2475354	PROB	n/a	LTP285	ltpFR2	10	n/a	n/a	n/a	16	16	3	9	4
2477602	PROB	n/a	LTP285	ltpFR2	10	n/a	n/a	n/a	16	8	3	4	1
2478667	PROB	n/a	LTP285	ltpFR2	10	n/a	n/a	n/a	16	17	6	4	7
2479930	PROB	n/a	LTP285	ltpFR2	10	n/a	n/a	n/a	16	14	2	4	8
2481944	PROB	n/a	LTP285	ltpFR2	10	n/a	n/a	n/a	16	17	5	5	7
2482909	PROB	n/a	LTP285	ltpFR2	10	n/a	n/a	n/a	16	19	4	7	8
2484158	PROB	n/a	LTP285	ltpFR2	10	n/a	n/a	n/a	16	18	2	9	7
2485306	PROB	n/a	LTP285	ltpFR2	10	n/a	n/a	n/a	16	22	8	9	5
2487908	STOP	n/a	LTP285	ltpFR2	10	n/a	n/a	n/a	16	n/a	n/a	n/a	n/a
2490599	REC_START	n/a	LTP285	ltpFR2	10	11	n/a	n/a	n/a	n/a	0	0	0
2491142	REC_WORD	wordpools/wasnorm_wordpool_576.txt	LTP285	ltpFR2	10	11	CREVICE	405	n/a	n/a	0	0	0
2492102	REC_WORD	wordpools/wasnorm_wordpool_576.txt	LTP285	ltpFR2	10	11	CLOUD	328	n/a	n/a	0	0	0
2493102	REC_WORD	wordpools/wasnorm_wordpool_576.txt	LTP285	ltpFR2	10	11	BALLOON	75	n/a	n/a	0	0	0
2494442	REC_WORD	wordpools/wasnorm_wordpool_576.txt	LTP285	ltpFR2	10	11	NEUTRON	947	n/a	n/a	0	0	0
2497444	REC_WORD	wordpools/wasnorm_wordpool_576.txt	LTP285	ltpFR2	10	11	SIDEWALK	1303	n/a	n/a	0	0	0
2498571	REC_WORD	wordpools/wasnorm_wordpool_576.txt	LTP285	ltpFR2	10	11	HIGHWAY	707	n/a	n/a	0	0	0
2500106	REC_WORD	wordpools/wasnorm_wordpool_576.txt	LTP285	ltpFR2	10	11	GRAVEL	659	n/a	n/a	0	0	0
2501811	REC_WORD	wordpools/wasnorm_wordpool_576.txt	LTP285	ltpFR2	10	11	PARTNER	1017	n/a	n/a	0	0	0
2503457	REC_WORD	wordpools/wasnorm_wordpool_576.txt	LTP285	ltpFR2	10	11	RIFLE	1192	n/a	n/a	0	0	0
2504741	REC_WORD	wordpools/wasnorm_wordpool_576.txt	LTP285	ltpFR2	10	11	PISTOL	1075	n/a	n/a	0	0	0
2515820	REC_WORD	wordpools/wasnorm_wordpool_576.txt	LTP285	ltpFR2	10	11	LAKE	796	n/a	n/a	0	0	0
2517101	REC_WORD	wordpools/wasnorm_wordpool_576.txt	LTP285	ltpFR2	10	11	FOX	598	n/a	n/a	0	0	0
2518185	REC_WORD	wordpools/wasnorm_wordpool_576.txt	LTP285	ltpFR2	10	11	HOUND	724	n/a	n/a	0	0	0
2519635	REC_WORD	wordpools/wasnorm_wordpool_576.txt	LTP285	ltpFR2	10	11	QUEEN	1149	n/a	n/a	0	0	0
2521267	REC_WORD	wordpools/wasnorm_wordpool_576.txt	LTP285	ltpFR2	10	11	NOMAD	955	n/a	n/a	0	0	0
2523226	REC_WORD	wordpools/wasnorm_wordpool_576.txt	LTP285	ltpFR2	10	11	JUGGLER	763	n/a	n/a	0	0	0
2530716	REC_WORD	wordpools/wasnorm_wordpool_576.txt	LTP285	ltpFR2	10	11	EUROPE	541	n/a	n/a	0	0	0
2543243	REC_WORD	wordpools/wasnorm_wordpool_576.txt	LTP285	ltpFR2	10	11	FLOWER	584	n/a	n/a	0	0	0
2561114	REC_WORD	wordpools/wasnorm_wordpool_576.txt	LTP285	ltpFR2	10	11	PLIERS	1089	n/a	n/a	0	0	0
2581246	DISTRACTOR	n/a	LTP285	ltpFR2	10	12	n/a	n/a	n/a	n/a	0	0	0
2581246	START	n/a	LTP285	ltpFR2	10	n/a	n/a	n/a	17	n/a	n/a	n/a	n/a
2581279	PROB	n/a	LTP285	ltpFR2	10	n/a	n/a	n/a	17	21	7	6	8
2584175	PROB	n/a	LTP285	ltpFR2	10	n/a	n/a	n/a	17	8	3	4	1
2586438	PROB	n/a	LTP285	ltpFR2	10	n/a	n/a	n/a	17	18	7	2	9
2587671	PROB	n/a	LTP285	ltpFR2	10	n/a	n/a	n/a	17	13	5	7	1
2589950	PROB	n/a	LTP285	ltpFR2	10	n/a	n/a	n/a	17	19	7	9	3
2591098	PROB	n/a	LTP285	ltpFR2	10	n/a	n/a	n/a	17	19	6	8	5
2592462	PROB	n/a	LTP285	ltpFR2	10	n/a	n/a	n/a	17	16	9	5	2
2594027	PROB	n/a	LTP285	ltpFR2	10	n/a	n/a	n/a	17	13	2	3	8
2595642	PROB	n/a	LTP285	ltpFR2	10	n/a	n/a	n/a	17	19	2	8	9
2597106	PROB	n/a	LTP285	ltpFR2	10	n/a	n/a	n/a	17	11	6	4	1
2598004	PROB	n/a	LTP285	ltpFR2	10	n/a	n/a	n/a	17	19	6	8	5
2600351	PROB	n/a	LTP285	ltpFR2	10	n/a	n/a	n/a	17	19	9	2	8
2602914	PROB	n/a	LTP285	ltpFR2	10	n/a	n/a	n/a	17	18	2	9	7
2605164	STOP	n/a	LTP285	ltpFR2	10	n/a	n/a	n/a	17	n/a	n/a	n/a	n/a
2606275	WORD	wordpools/wasnorm_wordpool_576.txt	LTP285	ltpFR2	10	12	CAPTIVE	240	n/a	n/a	0	0	0
2608888	WORD	wordpools/wasnorm_wordpool_576.txt	LTP285	ltpFR2	10	12	MARKER	870	n/a	n/a	0	0	0
2611635	WORD	wordpools/wasnorm_wordpool_576.txt	LTP285	ltpFR2	10	12	PERFUME	1049	n/a	n/a	0	0	0
2614330	WORD	wordpools/wasnorm_wordpool_576.txt	LTP285	ltpFR2	10	12	YOLK	1633	n/a	n/a	0	0	0
2617042	WORD	wordpools/wasnorm_wordpool_576.txt	LTP285	ltpFR2	10	12	LIPSTICK	829	n/a	n/a	0	0	0
2619739	WORD	wordpools/wasnorm_wordpool_576.txt	LTP285	ltpFR2	10	12	LIVER	833	n/a	n/a	0	0	0
2622534	WORD	wordpools/wasnorm_wordpool_576.txt	LTP285	ltpFR2	10	12	LEG	809	n/a	n/a	0	0	0
2625197	WORD	wordpools/wasnorm_wordpool_576.txt	LTP285	ltpFR2	10	12	NOTEBOOK	959	n/a	n/a	0	0	0
2627711	WORD	wordpools/wasnorm_wordpool_576.txt	LTP285	ltpFR2	10	12	SHORTCAKE	1292	n/a	n/a	0	0	0
2630506	WORD	wordpools/wasnorm_wordpool_576.txt	LTP285	ltpFR2	10	12	KIDNEY	776	n/a	n/a	0	0	0
2633268	WORD	wordpools/wasnorm_wordpool_576.txt	LTP285	ltpFR2	10	12	LIZARD	834	n/a	n/a	0	0	0
2635766	WORD	wordpools/wasnorm_wordpool_576.txt	LTP285	ltpFR2	10	12	FUNGUS	614	n/a	n/a	0	0	0
2638444	WORD	wordpools/wasnorm_wordpool_576.txt	LTP285	ltpFR2	10	12	BACON	67	n/a	n/a	0	0	0
2641156	WORD	wordpools/wasnorm_wordpool_576.txt	LTP285	ltpFR2	10	12	TOMBSTONE	1478	n/a	n/a	0	0	0
2643902	WORD	wordpools/wasnorm_wordpool_576.txt	LTP285	ltpFR2	10	12	CARROT	249	n/a	n/a	0	0	0
2646666	WORD	wordpools/wasnorm_wordpool_576.txt	LTP285	ltpFR2	10	12	RABBIT	1152	n/a	n/a	0	0	0
2649145	WORD	wordpools/wasnorm_wordpool_576.txt	LTP285	ltpFR2	10	12	VALLEY	1545	n/a	n/a	0	0	0
2651890	WORD	wordpools/wasnorm_wordpool_576.txt	LTP285	ltpFR2	10	12	BARREL	91	n/a	n/a	0	0	0
2654487	WORD	wordpools/wasnorm_wordpool_576.txt	LTP285	ltpFR2	10	12	CHAMPAGNE	278	n/a	n/a	0	0	0
2657266	WORD	wordpools/wasnorm_wordpool_576.txt	LTP285	ltpFR2	10	12	CASKET	255	n/a	n/a	0	0	0
2659862	WORD	wordpools/wasnorm_wordpool_576.txt	LTP285	ltpFR2	10	12	WORLD	1622	n/a	n/a	0	0	0
2662508	WORD	wordpools/wasnorm_wordpool_576.txt	LTP285	ltpFR2	10	12	ROCKET	1202	n/a	n/a	0	0	0
2665221	WORD	wordpools/wasnorm_wordpool_576.txt	LTP285	ltpFR2	10	12	STAPLE	1371	n/a	n/a	0	0	0
2667701	WORD	wordpools/wasnorm_wordpool_576.txt	LTP285	ltpFR2	10	12	WITNESS	1618	n/a	n/a	0	0	0
2669315	START	n/a	LTP285	ltpFR2	10	n/a	n/a	n/a	18	n/a	n/a	n/a	n/a
2670151	DISTRACTOR	n/a	LTP285	ltpFR2	10	12	n/a	n/a	n/a	n/a	0	0	0
2670163	PROB	n/a	LTP285	ltpFR2	10	n/a	n/a	n/a	18	19	8	9	2
2671511	PROB	n/a	LTP285	ltpFR2	10	n/a	n/a	n/a	18	19	9	8	1
2672794	PROB	n/a	LTP285	ltpFR2	10	n/a	n/a	n/a	18	16	6	8	2
2674691	PROB	n/a	LTP285	ltpFR2	10	n/a	n/a	n/a	18	15	4	6	5
2675739	PROB	n/a	LTP285	ltpFR2	10	n/a	n/a	n/a	18	22	9	4	9
2677436	PROB	n/a	LTP285	ltpFR2	10	n/a	n/a	n/a	18	21	5	9	7
2679865	PROB	n/a	LTP285	ltpFR2	10	n/a	n/a	n/a	18	8	1	2	4
2680847	PROB	n/a	LTP285	ltpFR2	10	n/a	n/a	n/a	18	27	9	9	9
2682828	PROB	n/a	LTP285	ltpFR2	10	n/a	n/a	n/a	18	10	2	7	1
2683976	PROB	n/a	LTP285	ltpFR2	10	n/a	n/a	n/a	18	16	8	5	3
2685724	PROB	n/a	LTP285	ltpFR2	10	n/a	n/a	n/a	18	17	6	9	2
2687771	PROB	n/a	LTP285	ltpFR2	10	n/a	n/a	n/a	18	18	1	9	8
2688819	PROB	n/a	LTP285	ltpFR2	10	n/a	n/a	n/a	18	6	4	1	1
2689867	PROB	n/a	LTP285	ltpFR2	10	n/a	n/a	n/a	18	16	7	7	2
2691198	PROB	n/a	LTP285	ltpFR2	10	n/a	n/a	n/a	18	13	7	4	2
2692284	STOP	n/a	LTP285	ltpFR2	10	n/a	n/a	n/a	18	n/a	n/a	n/a	n/a
2695160	REC_START	n/a	LTP285	ltpFR2	10	12	n/a	n/a	n/a	n/a	0	0	0
2695878	REC_WORD	wordpools/wasnorm_wordpool_576.txt	LTP285	ltpFR2	10	12	WORLD	1622	n/a	n/a	0	0	0
2697409	REC_WORD	wordpools/wasnorm_wordpool_576.txt	LTP285	ltpFR2	10	12	CASKET	255	n/a	n/a	0	0	0
2698531	REC_WORD	wordpools/wasnorm_wordpool_576.txt	LTP285	ltpFR2	10	12	TOMBSTONE	1478	n/a	n/a	0	0	0
2700215	REC_WORD	wordpools/wasnorm_wordpool_576.txt	LTP285	ltpFR2	10	12	CHAMPAGNE	278	n/a	n/a	0	0	0
2701865	REC_WORD	wordpools/wasnorm_wordpool_576.txt	LTP285	ltpFR2	10	12	BARREL	91	n/a	n/a	0	0	0
2710059	REC_WORD	wordpools/wasnorm_wordpool_576.txt	LTP285	ltpFR2	10	12	ROCKET	1202	n/a	n/a	0	0	0
2711742	REC_WORD	wordpools/wasnorm_wordpool_576.txt	LTP285	ltpFR2	10	12	WORLD	1622	n/a	n/a	0	0	0
2713476	REC_WORD	wordpools/wasnorm_wordpool_576.txt	LTP285	ltpFR2	10	12	SHORTCAKE	1292	n/a	n/a	0	0	0
2716889	REC_WORD	wordpools/wasnorm_wordpool_576.txt	LTP285	ltpFR2	10	12	FUNGUS	614	n/a	n/a	0	0	0
2718317	REC_WORD	wordpools/wasnorm_wordpool_576.txt	LTP285	ltpFR2	10	12	BACON	67	n/a	n/a	0	0	0
2723983	REC_WORD	wordpools/wasnorm_wordpool_576.txt	LTP285	ltpFR2	10	12	WITNESS	1618	n/a	n/a	0	0	0
2725521	REC_WORD	wordpools/wasnorm_wordpool_576.txt	LTP285	ltpFR2	10	12	CAPTIVE	240	n/a	n/a	0	0	0
2737801	REC_WORD	wordpools/wasnorm_wordpool_576.txt	LTP285	ltpFR2	10	12	NOTEBOOK	959	n/a	n/a	0	0	0
2750554	REC_WORD	wordpools/wasnorm_wordpool_576.txt	LTP285	ltpFR2	10	12	RABBIT	1152	n/a	n/a	0	0	0
2767139	REC_WORD	wordpools/wasnorm_wordpool_576.txt	LTP285	ltpFR2	10	12	JURY	766	n/a	n/a	0	0	0
2785890	WORD	wordpools/wasnorm_wordpool_576.txt	LTP285	ltpFR2	10	13	INMATE	738	n/a	n/a	0	0	0
2788453	WORD	wordpools/wasnorm_wordpool_576.txt	LTP285	ltpFR2	10	13	MARSH	874	n/a	n/a	0	0	0
2790999	WORD	wordpools/wasnorm_wordpool_576.txt	LTP285	ltpFR2	10	13	YACHT	1629	n/a	n/a	0	0	0
2793646	WORD	wordpools/wasnorm_wordpool_576.txt	LTP285	ltpFR2	10	13	RIVER	1194	n/a	n/a	0	0	0
2796325	WORD	wordpools/wasnorm_wordpool_576.txt	LTP285	ltpFR2	10	13	GUITAR	670	n/a	n/a	0	0	0
2799021	WORD	wordpools/wasnorm_wordpool_576.txt	LTP285	ltpFR2	10	13	MAPLE	866	n/a	n/a	0	0	0
2801484	WORD	wordpools/wasnorm_wordpool_576.txt	LTP285	ltpFR2	10	13	LOFT	840	n/a	n/a	0	0	0
2804296	WORD	wordpools/wasnorm_wordpool_576.txt	LTP285	ltpFR2	10	13	TYPIST	1532	n/a	n/a	0	0	0
2806809	WORD	wordpools/wasnorm_wordpool_576.txt	LTP285	ltpFR2	10	13	WAITER	1580	n/a	n/a	0	0	0
2809573	WORD	wordpools/wasnorm_wordpool_576.txt	LTP285	ltpFR2	10	13	SPOUSE	1358	n/a	n/a	0	0	0
2812367	WORD	wordpools/wasnorm_wordpool_576.txt	LTP285	ltpFR2	10	13	HAMPER	682	n/a	n/a	0	0	0
2814897	WORD	wordpools/wasnorm_wordpool_576.txt	LTP285	ltpFR2	10	13	OFFICE	972	n/a	n/a	0	0	0
2817443	WORD	wordpools/wasnorm_wordpool_576.txt	LTP285	ltpFR2	10	13	POLICE	1098	n/a	n/a	0	0	0
2819890	WORD	wordpools/wasnorm_wordpool_576.txt	LTP285	ltpFR2	10	13	SHERIFF	1284	n/a	n/a	0	0	0
2822353	WORD	wordpools/wasnorm_wordpool_576.txt	LTP285	ltpFR2	10	13	CURTAIN	427	n/a	n/a	0	0	0
2825082	WORD	wordpools/wasnorm_wordpool_576.txt	LTP285	ltpFR2	10	13	WORKER	1621	n/a	n/a	0	0	0
2827646	WORD	wordpools/wasnorm_wordpool_576.txt	LTP285	ltpFR2	10	13	ATOM	55	n/a	n/a	0	0	0
2830224	WORD	wordpools/wasnorm_wordpool_576.txt	LTP285	ltpFR2	10	13	DRILL	497	n/a	n/a	0	0	0
2832721	WORD	wordpools/wasnorm_wordpool_576.txt	LTP285	ltpFR2	10	13	DRESSER	496	n/a	n/a	0	0	0
2835500	WORD	wordpools/wasnorm_wordpool_576.txt	LTP285	ltpFR2	10	13	CHEST	295	n/a	n/a	0	0	0
2838312	WORD	wordpools/wasnorm_wordpool_576.txt	LTP285	ltpFR2	10	13	VIRUS	1572	n/a	n/a	0	0	0
2840892	WORD	wordpools/wasnorm_wordpool_576.txt	LTP285	ltpFR2	10	13	COUCH	386	n/a	n/a	0	0	0
2843705	WORD	wordpools/wasnorm_wordpool_576.txt	LTP285	ltpFR2	10	13	HUSBAND	728	n/a	n/a	0	0	0
2846134	WORD	wordpools/wasnorm_wordpool_576.txt	LTP285	ltpFR2	10	13	SADDLE	1221	n/a	n/a	0	0	0
2847749	START	n/a	LTP285	ltpFR2	10	n/a	n/a	n/a	19	n/a	n/a	n/a	n/a
2848582	DISTRACTOR	n/a	LTP285	ltpFR2	10	13	n/a	n/a	n/a	n/a	0	0	0
2848598	PROB	n/a	LTP285	ltpFR2	10	n/a	n/a	n/a	19	19	7	5	7
2850194	PROB	n/a	LTP285	ltpFR2	10	n/a	n/a	n/a	19	9	5	2	2
2852541	PROB	n/a	LTP285	ltpFR2	10	n/a	n/a	n/a	19	15	8	5	2
2854255	PROB	n/a	LTP285	ltpFR2	10	n/a	n/a	n/a	19	18	7	8	3
2855704	PROB	n/a	LTP285	ltpFR2	10	n/a	n/a	n/a	19	17	1	9	7
2856752	PROB	n/a	LTP285	ltpFR2	10	n/a	n/a	n/a	19	17	6	9	2
2858915	PROB	n/a	LTP285	ltpFR2	10	n/a	n/a	n/a	19	18	8	1	9
2859996	PROB	n/a	LTP285	ltpFR2	10	n/a	n/a	n/a	19	8	2	5	1
2861245	PROB	n/a	LTP285	ltpFR2	10	n/a	n/a	n/a	19	14	7	1	6
2862443	PROB	n/a	LTP285	ltpFR2	10	n/a	n/a	n/a	19	20	6	6	8
2864107	PROB	n/a	LTP285	ltpFR2	10	n/a	n/a	n/a	19	15	6	2	7
2865706	PROB	n/a	LTP285	ltpFR2	10	n/a	n/a	n/a	19	19	2	9	8
2867019	PROB	n/a	LTP285	ltpFR2	10	n/a	n/a	n/a	19	20	7	9	4
2869316	PROB	n/a	LTP285	ltpFR2	10	n/a	n/a	n/a	19	10	4	1	5
2870460	STOP	n/a	LTP285	ltpFR2	10	n/a	n/a	n/a	19	n/a	n/a	n/a	n/a
2873578	REC_START	n/a	LTP285	ltpFR2	10	13	n/a	n/a	n/a	n/a	0	0	0
2875045	REC_WORD	wordpools/wasnorm_wordpool_576.txt	LTP285	ltpFR2	10	13	WAITER	1580	n/a	n/a	0	0	0
2876093	REC_WORD	wordpools/wasnorm_wordpool_576.txt	LTP285	ltpFR2	10	13	HUSBAND	728	n/a	n/a	0	0	0
2877249	REC_WORD	wordpools/wasnorm_wordpool_576.txt	LTP285	ltpFR2	10	13	WORKER	1621	n/a	n/a	0	0	0
2878426	REC_WORD	wordpools/wasnorm_wordpool_576.txt	LTP285	ltpFR2	10	13	POLICE	1098	n/a	n/a	0	0	0
2879618	REC_WORD	wordpools/wasnorm_wordpool_576.txt	LTP285	ltpFR2	10	13	SHERIFF	1284	n/a	n/a	0	0	0
2881054	REC_WORD	wordpools/wasnorm_wordpool_576.txt	LTP285	ltpFR2	10	13	INMATE	738	n/a	n/a	0	0	0
2884091	REC_WORD	wordpools/wasnorm_wordpool_576.txt	LTP285	ltpFR2	10	13	ATOM	55	n/a	n/a	0	0	0
2887414	REC_WORD	wordpools/wasnorm_wordpool_576.txt	LTP285	ltpFR2	10	13	MARSH	874	n/a	n/a	0	0	0
2890234	REC_WORD	wordpools/wasnorm_wordpool_576.txt	LTP285	ltpFR2	10	13	CHEST	295	n/a	n/a	0	0	0
2891757	REC_WORD	wordpools/wasnorm_wordpool_576.txt	LTP285	ltpFR2	10	13	DRESSER	496	n/a	n/a	0	0	0
2892929	REC_WORD	wordpools/wasnorm_wordpool_576.txt	LTP285	ltpFR2	10	13	HAMPER	682	n/a	n/a	0	0	0
2910188	REC_WORD	wordpools/wasnorm_wordpool_576.txt	LTP285	ltpFR2	10	13	CURTAIN	427	n/a	n/a	0	0	0
2914928	REC_WORD	wordpools/wasnorm_wordpool_576.txt	LTP285	ltpFR2	10	13	DRILL	497	n/a	n/a	0	0	0
2942521	REC_WORD	wordpools/wasnorm_wordpool_576.txt	LTP285	ltpFR2	10	13	VIRUS	1572	n/a	n/a	0	0	0
2964224	DISTRACTOR	n/a	LTP285	ltpFR2	10	14	n/a	n/a	n/a	n/a	0	0	0
2964224	START	n/a	LTP285	ltpFR2	10	n/a	n/a	n/a	20	n/a	n/a	n/a	n/a
2964257	PROB	n/a	LTP285	ltpFR2	10	n/a	n/a	n/a	20	18	8	8	2
2965339	PROB	n/a	LTP285	ltpFR2	10	n/a	n/a	n/a	20	17	6	6	5
2966721	PROB	n/a	LTP285	ltpFR2	10	n/a	n/a	n/a	20	18	7	9	2
2968018	PROB	n/a	LTP285	ltpFR2	10	n/a	n/a	n/a	20	14	2	5	7
2969416	PROB	n/a	LTP285	ltpFR2	10	n/a	n/a	n/a	20	17	7	6	4
2970914	PROB	n/a	LTP285	ltpFR2	10	n/a	n/a	n/a	20	11	3	1	7
2972146	PROB	n/a	LTP285	ltpFR2	10	n/a	n/a	n/a	20	9	3	3	3
2973344	PROB	n/a	LTP285	ltpFR2	10	n/a	n/a	n/a	20	14	8	2	4
2974793	PROB	n/a	LTP285	ltpFR2	10	n/a	n/a	n/a	20	13	7	3	3
2976156	PROB	n/a	LTP285	ltpFR2	10	n/a	n/a	n/a	20	9	1	2	6
2977454	PROB	n/a	LTP285	ltpFR2	10	n/a	n/a	n/a	20	10	8	1	1
2978553	PROB	n/a	LTP285	ltpFR2	10	n/a	n/a	n/a	20	16	8	1	7
2981066	PROB	n/a	LTP285	ltpFR2	10	n/a	n/a	n/a	20	17	4	6	7
2982064	PROB	n/a	LTP285	ltpFR2	10	n/a	n/a	n/a	20	13	7	1	5
2983978	PROB	n/a	LTP285	ltpFR2	10	n/a	n/a	n/a	20	14	6	7	1
2985176	PROB	n/a	LTP285	ltpFR2	10	n/a	n/a	n/a	20	27	9	9	9
2986474	PROB	n/a	LTP285	ltpFR2	10	n/a	n/a	n/a	20	19	5	7	7
2987589	STOP	n/a	LTP285	ltpFR2	10	n/a	n/a	n/a	20	n/a	n/a	n/a	n/a
2989370	WORD	wordpools/wasnorm_wordpool_576.txt	LTP285	ltpFR2	10	14	CONTRACT	368	n/a	n/a	0	0	0
2991966	WORD	wordpools/wasnorm_wordpool_576.txt	LTP285	ltpFR2	10	14	GRAVE	658	n/a	n/a	0	0	0
2994429	WORD	wordpools/wasnorm_wordpool_576.txt	LTP285	ltpFR2	10	14	GRILL	661	n/a	n/a	0	0	0
2997092	WORD	wordpools/wasnorm_wordpool_576.txt	LTP285	ltpFR2	10	14	SEAGULL	1261	n/a	n/a	0	0	0
2999656	WORD	wordpools/wasnorm_wordpool_576.txt	LTP285	ltpFR2	10	14	SNAIL	1332	n/a	n/a	0	0	0
3002134	WORD	wordpools/wasnorm_wordpool_576.txt	LTP285	ltpFR2	10	14	SPHINX	1349	n/a	n/a	0	0	0
3004681	WORD	wordpools/wasnorm_wordpool_576.txt	LTP285	ltpFR2	10	14	MARROW	872	n/a	n/a	0	0	0
3007360	WORD	wordpools/wasnorm_wordpool_576.txt	LTP285	ltpFR2	10	14	LOVER	846	n/a	n/a	0	0	0
3010072	WORD	wordpools/wasnorm_wordpool_576.txt	LTP285	ltpFR2	10	14	SUSPECT	1415	n/a	n/a	0	0	0
3012885	WORD	wordpools/wasnorm_wordpool_576.txt	LTP285	ltpFR2	10	14	COIN	343	n/a	n/a	0	0	0
3015331	WORD	wordpools/wasnorm_wordpool_576.txt	LTP285	ltpFR2	10	14	FIDDLE	561	n/a	n/a	0	0	0
3018110	WORD	wordpools/wasnorm_wordpool_576.txt	LTP285	ltpFR2	10	14	WHISTLE	1606	n/a	n/a	0	0	0
3020873	WORD	wordpools/wasnorm_wordpool_576.txt	LTP285	ltpFR2	10	14	BACKBONE	66	n/a	n/a	0	0	0
3023419	WORD	wordpools/wasnorm_wordpool_576.txt	LTP285	ltpFR2	10	14	LODGE	839	n/a	n/a	0	0	0
3026099	WORD	wordpools/wasnorm_wordpool_576.txt	LTP285	ltpFR2	10	14	BUREAU	199	n/a	n/a	0	0	0
3028662	WORD	wordpools/wasnorm_wordpool_576.txt	LTP285	ltpFR2	10	14	BOYFRIEND	162	n/a	n/a	0	0	0
3031091	WORD	wordpools/wasnorm_wordpool_576.txt	LTP285	ltpFR2	10	14	SHELTER	1282	n/a	n/a	0	0	0
3033537	WORD	wordpools/wasnorm_wordpool_576.txt	LTP285	ltpFR2	10	14	FINGER	567	n/a	n/a	0	0	0
3036250	WORD	wordpools/wasnorm_wordpool_576.txt	LTP285	ltpFR2	10	14	HAND	683	n/a	n/a	0	0	0
3038681	WORD	wordpools/wasnorm_wordpool_576.txt	LTP285	ltpFR2	10	14	MONEY	908	n/a	n/a	0	0	0
3041109	WORD	wordpools/wasnorm_wordpool_576.txt	LTP285	ltpFR2	10	14	SOFTBALL	1343	n/a	n/a	0	0	0
3043723	WORD	wordpools/wasnorm_wordpool_576.txt	LTP285	ltpFR2	10	14	RACKET	1155	n/a	n/a	0	0	0
3046352	WORD	wordpools/wasnorm_wordpool_576.txt	LTP285	ltpFR2	10	14	HELMET	702	n/a	n/a	0	0	0
3049181	WORD	wordpools/wasnorm_wordpool_576.txt	LTP285	ltpFR2	10	14	ASIA	46	n/a	n/a	0	0	0
3050796	START	n/a	LTP285	ltpFR2	10	n/a	n/a	n/a	21	n/a	n/a	n/a	n/a
3051854	DISTRACTOR	n/a	LTP285	ltpFR2	10	14	n/a	n/a	n/a	n/a	0	0	0
3051860	PROB	n/a	LTP285	ltpFR2	10	n/a	n/a	n/a	21	8	3	2	3
3053857	PROB	n/a	LTP285	ltpFR2	10	n/a	n/a	n/a	21	21	7	6	8
3056270	PROB	n/a	LTP285	ltpFR2	10	n/a	n/a	n/a	21	12	6	1	5
3057335	PROB	n/a	LTP285	ltpFR2	10	n/a	n/a	n/a	21	13	1	5	7
3059399	PROB	n/a	LTP285	ltpFR2	10	n/a	n/a	n/a	21	16	8	2	6
3060497	PROB	n/a	LTP285	ltpFR2	10	n/a	n/a	n/a	21	18	1	9	8
3061680	PROB	n/a	LTP285	ltpFR2	10	n/a	n/a	n/a	21	9	7	1	1
3062711	PROB	n/a	LTP285	ltpFR2	10	n/a	n/a	n/a	21	19	7	4	8
3064042	PROB	n/a	LTP285	ltpFR2	10	n/a	n/a	n/a	21	10	1	6	3
3065323	PROB	n/a	LTP285	ltpFR2	10	n/a	n/a	n/a	21	16	3	6	7
3066854	PROB	n/a	LTP285	ltpFR2	10	n/a	n/a	n/a	21	11	1	5	5
3067754	PROB	n/a	LTP285	ltpFR2	10	n/a	n/a	n/a	21	17	7	8	2
3069118	PROB	n/a	LTP285	ltpFR2	10	n/a	n/a	n/a	21	11	2	3	6
3070216	PROB	n/a	LTP285	ltpFR2	10	n/a	n/a	n/a	21	12	3	4	4
3072063	PROB	n/a	LTP285	ltpFR2	10	n/a	n/a	n/a	21	22	6	9	9
3074268	STOP	n/a	LTP285	ltpFR2	10	n/a	n/a	n/a	21	n/a	n/a	n/a	n/a
3076625	REC_START	n/a	LTP285	ltpFR2	10	14	n/a	n/a	n/a	n/a	0	0	0
3077604	REC_WORD	wordpools/wasnorm_wordpool_576.txt	LTP285	ltpFR2	10	14	LOVER	846	n/a	n/a	0	0	0
3078503	REC_WORD	wordpools/wasnorm_wordpool_576.txt	LTP285	ltpFR2	10	14	BOYFRIEND	162	n/a	n/a	0	0	0
3079594	REC_WORD	wordpools/wasnorm_wordpool_576.txt	LTP285	ltpFR2	10	14	RACKET	1155	n/a	n/a	0	0	0
3081015	REC_WORD	wordpools/wasnorm_wordpool_576.txt	LTP285	ltpFR2	10	14	SOFTBALL	1343	n/a	n/a	0	0	0
3082121	REC_WORD	wordpools/wasnorm_wordpool_576.txt	LTP285	ltpFR2	10	14	HELMET	702	n/a	n/a	0	0	0
3083471	REC_WORD	wordpools/wasnorm_wordpool_576.txt	LTP285	ltpFR2	10	14	ASIA	46	n/a	n/a	0	0	0
3088156	REC_WORD	wordpools/wasnorm_wordpool_576.txt	LTP285	ltpFR2	10	14	SPHINX	1349	n/a	n/a	0	0	0
3090172	REC_WORD	wordpools/wasnorm_wordpool_576.txt	LTP285	ltpFR2	10	14	SEAGULL	1261	n/a	n/a	0	0	0
3097160	REC_WORD	wordpools/wasnorm_wordpool_576.txt	LTP285	ltpFR2	10	14	HAND	683	n/a	n/a	0	0	0
3098143	REC_WORD	wordpools/wasnorm_wordpool_576.txt	LTP285	ltpFR2	10	14	FINGER	567	n/a	n/a	0	0	0
3101999	REC_WORD	wordpools/wasnorm_wordpool_576.txt	LTP285	ltpFR2	10	14	BUREAU	199	n/a	n/a	0	0	0
3103324	REC_WORD	wordpools/wasnorm_wordpool_576.txt	LTP285	ltpFR2	10	14	MONEY	908	n/a	n/a	0	0	0
3104391	REC_WORD	wordpools/wasnorm_wordpool_576.txt	LTP285	ltpFR2	10	14	COIN	343	n/a	n/a	0	0	0
3167271	DISTRACTOR	n/a	LTP285	ltpFR2	10	15	n/a	n/a	n/a	n/a	0	0	0
3167271	START	n/a	LTP285	ltpFR2	10	n/a	n/a	n/a	22	n/a	n/a	n/a	n/a
3167304	PROB	n/a	LTP285	ltpFR2	10	n/a	n/a	n/a	22	22	4	9	9
3168919	PROB	n/a	LTP285	ltpFR2	10	n/a	n/a	n/a	22	16	1	7	8
3169984	PROB	n/a	LTP285	ltpFR2	10	n/a	n/a	n/a	22	19	9	5	5
3170949	PROB	n/a	LTP285	ltpFR2	10	n/a	n/a	n/a	22	10	3	1	6
3171947	PROB	n/a	LTP285	ltpFR2	10	n/a	n/a	n/a	22	15	3	9	3
3173279	PROB	n/a	LTP285	ltpFR2	10	n/a	n/a	n/a	22	15	5	5	5
3174177	PROB	n/a	LTP285	ltpFR2	10	n/a	n/a	n/a	22	15	7	7	1
3175126	PROB	n/a	LTP285	ltpFR2	10	n/a	n/a	n/a	22	19	8	2	9
3176324	PROB	n/a	LTP285	ltpFR2	10	n/a	n/a	n/a	22	22	8	6	8
3178554	PROB	n/a	LTP285	ltpFR2	10	n/a	n/a	n/a	22	14	7	7	3
3179587	PROB	n/a	LTP285	ltpFR2	10	n/a	n/a	n/a	22	13	1	5	7
3180934	PROB	n/a	LTP285	ltpFR2	10	n/a	n/a	n/a	22	11	6	1	4
3181816	PROB	n/a	LTP285	ltpFR2	10	n/a	n/a	n/a	22	12	8	1	3
3183447	PROB	n/a	LTP285	ltpFR2	10	n/a	n/a	n/a	22	6	2	3	1
3184529	PROB	n/a	LTP285	ltpFR2	10	n/a	n/a	n/a	22	16	2	8	6
3185711	PROB	n/a	LTP285	ltpFR2	10	n/a	n/a	n/a	22	14	3	7	4
3186809	PROB	n/a	LTP285	ltpFR2	10	n/a	n/a	n/a	22	7	1	2	4
3188607	PROB	n/a	LTP285	ltpFR2	10	n/a	n/a	n/a	22	21	6	8	7
3191172	STOP	n/a	LTP285	ltpFR2	10	n/a	n/a	n/a	22	n/a	n/a	n/a	n/a
3192334	WORD	wordpools/wasnorm_wordpool_576.txt	LTP285	ltpFR2	10	15	NOVEL	960	n/a	n/a	0	0	0
3194764	WORD	wordpools/wasnorm_wordpool_576.txt	LTP285	ltpFR2	10	15	PASSAGE	1019	n/a	n/a	0	0	0
3197509	WORD	wordpools/wasnorm_wordpool_576.txt	LTP285	ltpFR2	10	15	HEDGE	699	n/a	n/a	0	0	0
3200039	WORD	wordpools/wasnorm_wordpool_576.txt	LTP285	ltpFR2	10	15	FOREST	593	n/a	n/a	0	0	0
3202535	WORD	wordpools/wasnorm_wordpool_576.txt	LTP285	ltpFR2	10	15	COMET	353	n/a	n/a	0	0	0
3205248	WORD	wordpools/wasnorm_wordpool_576.txt	LTP285	ltpFR2	10	15	STAR	1373	n/a	n/a	0	0	0
3208060	WORD	wordpools/wasnorm_wordpool_576.txt	LTP285	ltpFR2	10	15	CHURCH	307	n/a	n/a	0	0	0
3210724	WORD	wordpools/wasnorm_wordpool_576.txt	LTP285	ltpFR2	10	15	DONOR	485	n/a	n/a	0	0	0
3213286	WORD	wordpools/wasnorm_wordpool_576.txt	LTP285	ltpFR2	10	15	VICTIM	1562	n/a	n/a	0	0	0
3215716	WORD	wordpools/wasnorm_wordpool_576.txt	LTP285	ltpFR2	10	15	FLASHLIGHT	575	n/a	n/a	0	0	0
3218278	WORD	wordpools/wasnorm_wordpool_576.txt	LTP285	ltpFR2	10	15	CAMEL	223	n/a	n/a	0	0	0
3220709	WORD	wordpools/wasnorm_wordpool_576.txt	LTP285	ltpFR2	10	15	RECEIPT	1173	n/a	n/a	0	0	0
3223188	WORD	wordpools/wasnorm_wordpool_576.txt	LTP285	ltpFR2	10	15	IDOL	733	n/a	n/a	0	0	0
3225785	WORD	wordpools/wasnorm_wordpool_576.txt	LTP285	ltpFR2	10	15	BRACES	164	n/a	n/a	0	0	0
3228247	WORD	wordpools/wasnorm_wordpool_576.txt	LTP285	ltpFR2	10	15	TROUT	1511	n/a	n/a	0	0	0
3230843	WORD	wordpools/wasnorm_wordpool_576.txt	LTP285	ltpFR2	10	15	HATCHET	691	n/a	n/a	0	0	0
3233322	WORD	wordpools/wasnorm_wordpool_576.txt	LTP285	ltpFR2	10	15	EAGLE	512	n/a	n/a	0	0	0
3235968	WORD	wordpools/wasnorm_wordpool_576.txt	LTP285	ltpFR2	10	15	APPLE	33	n/a	n/a	0	0	0
3238481	WORD	wordpools/wasnorm_wordpool_576.txt	LTP285	ltpFR2	10	15	RADISH	1158	n/a	n/a	0	0	0
3241011	WORD	wordpools/wasnorm_wordpool_576.txt	LTP285	ltpFR2	10	15	BUBBLE	183	n/a	n/a	0	0	0
3243708	WORD	wordpools/wasnorm_wordpool_576.txt	LTP285	ltpFR2	10	15	OMELET	976	n/a	n/a	0	0	0
3246503	WORD	wordpools/wasnorm_wordpool_576.txt	LTP285	ltpFR2	10	15	JELLO	754	n/a	n/a	0	0	0
3249265	WORD	wordpools/wasnorm_wordpool_576.txt	LTP285	ltpFR2	10	15	SPACE	1345	n/a	n/a	0	0	0
3251729	WORD	wordpools/wasnorm_wordpool_576.txt	LTP285	ltpFR2	10	15	TWIG	1527	n/a	n/a	0	0	0
3253343	START	n/a	LTP285	ltpFR2	10	n/a	n/a	n/a	23	n/a	n/a	n/a	n/a
3254358	DISTRACTOR	n/a	LTP285	ltpFR2	10	15	n/a	n/a	n/a	n/a	0	0	0
3254374	PROB	n/a	LTP285	ltpFR2	10	n/a	n/a	n/a	23	8	1	3	4
3255539	PROB	n/a	LTP285	ltpFR2	10	n/a	n/a	n/a	23	17	7	5	5
3256572	PROB	n/a	LTP285	ltpFR2	10	n/a	n/a	n/a	23	12	5	4	3
3258119	PROB	n/a	LTP285	ltpFR2	10	n/a	n/a	n/a	23	14	7	2	5
3260166	PROB	n/a	LTP285	ltpFR2	10	n/a	n/a	n/a	23	23	8	6	9
3261897	PROB	n/a	LTP285	ltpFR2	10	n/a	n/a	n/a	23	9	1	5	3
3263844	PROB	n/a	LTP285	ltpFR2	10	n/a	n/a	n/a	23	13	3	3	7
3265175	PROB	n/a	LTP285	ltpFR2	10	n/a	n/a	n/a	23	13	5	6	2
3266640	PROB	n/a	LTP285	ltpFR2	10	n/a	n/a	n/a	23	22	9	9	4
3268537	PROB	n/a	LTP285	ltpFR2	10	n/a	n/a	n/a	23	9	1	3	5
3270251	PROB	n/a	LTP285	ltpFR2	10	n/a	n/a	n/a	23	20	5	8	7
3271898	PROB	n/a	LTP285	ltpFR2	10	n/a	n/a	n/a	23	13	5	7	1
3273663	PROB	n/a	LTP285	ltpFR2	10	n/a	n/a	n/a	23	10	2	5	3
3275360	PROB	n/a	LTP285	ltpFR2	10	n/a	n/a	n/a	23	14	4	9	1
3276324	STOP	n/a	LTP285	ltpFR2	10	n/a	n/a	n/a	23	n/a	n/a	n/a	n/a
3279188	REC_START	n/a	LTP285	ltpFR2	10	15	n/a	n/a	n/a	n/a	0	0	0
3279676	REC_WORD	wordpools/wasnorm_wordpool_576.txt	LTP285	ltpFR2	10	15	SPACE	1345	n/a	n/a	0	0	0
3280662	REC_WORD	wordpools/wasnorm_wordpool_576.txt	LTP285	ltpFR2	10	15	STAR	1373	n/a	n/a	0	0	0
3281950	REC_WORD	wordpools/wasnorm_wordpool_576.txt	LTP285	ltpFR2	10	15	COMET	353	n/a	n/a	0	0	0
3283743	REC_WORD	wordpools/wasnorm_wordpool_576.txt	LTP285	ltpFR2	10	15	JELLO	754	n/a	n/a	0	0	0
3285043	REC_WORD	wordpools/wasnorm_wordpool_576.txt	LTP285	ltpFR2	10	15	OMELET	976	n/a	n/a	0	0	0
3286479	REC_WORD	wordpools/wasnorm_wordpool_576.txt	LTP285	ltpFR2	10	15	TROUT	1511	n/a	n/a	0	0	0
3287869	REC_WORD	wordpools/wasnorm_wordpool_576.txt	LTP285	ltpFR2	10	15	TWIG	1527	n/a	n/a	0	0	0
3288888	REC_WORD	wordpools/wasnorm_wordpool_576.txt	LTP285	ltpFR2	10	15	HEDGE	699	n/a	n/a	0	0	0
3295360	REC_WORD	wordpools/wasnorm_wordpool_576.txt	LTP285	ltpFR2	10	15	EAGLE	512	n/a	n/a	0	0	0
3296595	REC_WORD	wordpools/wasnorm_wordpool_576.txt	LTP285	ltpFR2	10	15	APPLE	33	n/a	n/a	0	0	0
3297692	REC_WORD	wordpools/wasnorm_wordpool_576.txt	LTP285	ltpFR2	10	15	HATCHET	691	n/a	n/a	0	0	0
3308600	REC_WORD	wordpools/wasnorm_wordpool_576.txt	LTP285	ltpFR2	10	15	RADISH	1158	n/a	n/a	0	0	0
3322599	REC_WORD	wordpools/wasnorm_wordpool_576.txt	LTP285	ltpFR2	10	15	FIDDLE	561	n/a	n/a	0	0	0
3323953	REC_WORD	wordpools/wasnorm_wordpool_576.txt	LTP285	ltpFR2	10	15	WHISTLE	1606	n/a	n/a	0	0	0
3334487	REC_WORD	wordpools/wasnorm_wordpool_576.txt	LTP285	ltpFR2	10	15	BUBBLE	183	n/a	n/a	0	0	0
3350583	REC_WORD	wordpools/wasnorm_wordpool_576.txt	LTP285	ltpFR2	10	15	DONOR	485	n/a	n/a	0	0	0
3351655	REC_WORD	wordpools/wasnorm_wordpool_576.txt	LTP285	ltpFR2	10	15	VICTIM	1562	n/a	n/a	0	0	0
3369852	DISTRACTOR	n/a	LTP285	ltpFR2	10	16	n/a	n/a	n/a	n/a	0	0	0
3369852	START	n/a	LTP285	ltpFR2	10	n/a	n/a	n/a	24	n/a	n/a	n/a	n/a
3369885	PROB	n/a	LTP285	ltpFR2	10	n/a	n/a	n/a	24	16	7	3	6
3371233	PROB	n/a	LTP285	ltpFR2	10	n/a	n/a	n/a	24	13	1	6	6
3372582	PROB	n/a	LTP285	ltpFR2	10	n/a	n/a	n/a	24	9	3	3	3
3373497	PROB	n/a	LTP285	ltpFR2	10	n/a	n/a	n/a	24	18	3	9	6
3375327	PROB	n/a	LTP285	ltpFR2	10	n/a	n/a	n/a	24	11	2	8	1
3376492	PROB	n/a	LTP285	ltpFR2	10	n/a	n/a	n/a	24	17	7	1	9
3378306	PROB	n/a	LTP285	ltpFR2	10	n/a	n/a	n/a	24	10	2	1	7
3379221	PROB	n/a	LTP285	ltpFR2	10	n/a	n/a	n/a	24	17	9	4	4
3380370	PROB	n/a	LTP285	ltpFR2	10	n/a	n/a	n/a	24	19	9	7	3
3381485	PROB	n/a	LTP285	ltpFR2	10	n/a	n/a	n/a	24	9	5	2	2
3382932	PROB	n/a	LTP285	ltpFR2	10	n/a	n/a	n/a	24	13	7	2	4
3384497	PROB	n/a	LTP285	ltpFR2	10	n/a	n/a	n/a	24	15	5	4	6
3386561	PROB	n/a	LTP285	ltpFR2	10	n/a	n/a	n/a	24	12	1	2	9
3387809	PROB	n/a	LTP285	ltpFR2	10	n/a	n/a	n/a	24	20	8	4	8
3389657	PROB	n/a	LTP285	ltpFR2	10	n/a	n/a	n/a	24	9	1	6	2
3390689	PROB	n/a	LTP285	ltpFR2	10	n/a	n/a	n/a	24	11	5	3	3
3391919	PROB	n/a	LTP285	ltpFR2	10	n/a	n/a	n/a	24	17	9	1	7
3392988	STOP	n/a	LTP285	ltpFR2	10	n/a	n/a	n/a	24	n/a	n/a	n/a	n/a
3394848	WORD	wordpools/wasnorm_wordpool_576.txt	LTP285	ltpFR2	10	16	VAGRANT	1544	n/a	n/a	0	0	0
3397595	WORD	wordpools/wasnorm_wordpool_576.txt	LTP285	ltpFR2	10	16	FEMALE	559	n/a	n/a	0	0	0
3400223	WORD	wordpools/wasnorm_wordpool_576.txt	LTP285	ltpFR2	10	16	AIRPORT	13	n/a	n/a	0	0	0
3402754	WORD	wordpools/wasnorm_wordpool_576.txt	LTP285	ltpFR2	10	16	PORK	1108	n/a	n/a	0	0	0
3405566	WORD	wordpools/wasnorm_wordpool_576.txt	LTP285	ltpFR2	10	16	GOBLIN	645	n/a	n/a	0	0	0
3408012	WORD	wordpools/wasnorm_wordpool_576.txt	LTP285	ltpFR2	10	16	BELLY	119	n/a	n/a	0	0	0
3410576	WORD	wordpools/wasnorm_wordpool_576.txt	LTP285	ltpFR2	10	16	BINDER	127	n/a	n/a	0	0	0
3413287	WORD	wordpools/wasnorm_wordpool_576.txt	LTP285	ltpFR2	10	16	NIGHTGOWN	953	n/a	n/a	0	0	0
3416016	WORD	wordpools/wasnorm_wordpool_576.txt	LTP285	ltpFR2	10	16	SHARK	1275	n/a	n/a	0	0	0
3418463	WORD	wordpools/wasnorm_wordpool_576.txt	LTP285	ltpFR2	10	16	HAWK	692	n/a	n/a	0	0	0
3420926	WORD	wordpools/wasnorm_wordpool_576.txt	LTP285	ltpFR2	10	16	SPARROW	1347	n/a	n/a	0	0	0
3423673	WORD	wordpools/wasnorm_wordpool_576.txt	LTP285	ltpFR2	10	16	STOMACH	1384	n/a	n/a	0	0	0
3426368	WORD	wordpools/wasnorm_wordpool_576.txt	LTP285	ltpFR2	10	16	BODY	145	n/a	n/a	0	0	0
3428930	WORD	wordpools/wasnorm_wordpool_576.txt	LTP285	ltpFR2	10	16	BOX	159	n/a	n/a	0	0	0
3431627	WORD	wordpools/wasnorm_wordpool_576.txt	LTP285	ltpFR2	10	16	PILOT	1070	n/a	n/a	0	0	0
3434339	WORD	wordpools/wasnorm_wordpool_576.txt	LTP285	ltpFR2	10	16	BREAST	171	n/a	n/a	0	0	0
3437151	WORD	wordpools/wasnorm_wordpool_576.txt	LTP285	ltpFR2	10	16	PUPIL	1143	n/a	n/a	0	0	0
3439897	WORD	wordpools/wasnorm_wordpool_576.txt	LTP285	ltpFR2	10	16	MATTRESS	879	n/a	n/a	0	0	0
3442561	WORD	wordpools/wasnorm_wordpool_576.txt	LTP285	ltpFR2	10	16	DOLPHIN	483	n/a	n/a	0	0	0
3445289	WORD	wordpools/wasnorm_wordpool_576.txt	LTP285	ltpFR2	10	16	HOOK	715	n/a	n/a	0	0	0
3447737	WORD	wordpools/wasnorm_wordpool_576.txt	LTP285	ltpFR2	10	16	POSSUM	1112	n/a	n/a	0	0	0
3450315	WORD	wordpools/wasnorm_wordpool_576.txt	LTP285	ltpFR2	10	16	MARS	873	n/a	n/a	0	0	0
3453044	WORD	wordpools/wasnorm_wordpool_576.txt	LTP285	ltpFR2	10	16	GIFT	635	n/a	n/a	0	0	0
3455807	WORD	wordpools/wasnorm_wordpool_576.txt	LTP285	ltpFR2	10	16	CRAB	397	n/a	n/a	0	0	0
3457422	START	n/a	LTP285	ltpFR2	10	n/a	n/a	n/a	25	n/a	n/a	n/a	n/a
3458385	DISTRACTOR	n/a	LTP285	ltpFR2	10	16	n/a	n/a	n/a	n/a	0	0	0
3458386	PROB	n/a	LTP285	ltpFR2	10	n/a	n/a	n/a	25	15	7	6	2
3459918	PROB	n/a	LTP285	ltpFR2	10	n/a	n/a	n/a	25	13	4	8	1
3461182	PROB	n/a	LTP285	ltpFR2	10	n/a	n/a	n/a	25	11	8	1	2
3462863	PROB	n/a	LTP285	ltpFR2	10	n/a	n/a	n/a	25	13	7	5	1
3464527	PROB	n/a	LTP285	ltpFR2	10	n/a	n/a	n/a	25	20	5	8	7
3466758	PROB	n/a	LTP285	ltpFR2	10	n/a	n/a	n/a	25	16	4	8	4
3467989	PROB	n/a	LTP285	ltpFR2	10	n/a	n/a	n/a	25	19	3	8	8
3469770	PROB	n/a	LTP285	ltpFR2	10	n/a	n/a	n/a	25	14	1	5	8
3470951	PROB	n/a	LTP285	ltpFR2	10	n/a	n/a	n/a	25	19	8	9	2
3472232	PROB	n/a	LTP285	ltpFR2	10	n/a	n/a	n/a	25	20	4	8	8
3474096	PROB	n/a	LTP285	ltpFR2	10	n/a	n/a	n/a	25	12	5	2	5
3475295	PROB	n/a	LTP285	ltpFR2	10	n/a	n/a	n/a	25	13	4	5	4
3476793	PROB	n/a	LTP285	ltpFR2	10	n/a	n/a	n/a	25	21	4	8	9
3478457	PROB	n/a	LTP285	ltpFR2	10	n/a	n/a	n/a	25	18	8	9	1
3479538	PROB	n/a	LTP285	ltpFR2	10	n/a	n/a	n/a	25	19	6	4	9
3480452	STOP	n/a	LTP285	ltpFR2	10	n/a	n/a	n/a	25	n/a	n/a	n/a	n/a
3483283	REC_START	n/a	LTP285	ltpFR2	10	16	n/a	n/a	n/a	n/a	0	0	0
3483837	REC_WORD	wordpools/wasnorm_wordpool_576.txt	LTP285	ltpFR2	10	16	CRAB	397	n/a	n/a	0	0	0
3484927	REC_WORD	wordpools/wasnorm_wordpool_576.txt	LTP285	ltpFR2	10	16	GOBLIN	645	n/a	n/a	0	0	0
3485916	REC_WORD	wordpools/wasnorm_wordpool_576.txt	LTP285	ltpFR2	10	16	NIGHTGOWN	953	n/a	n/a	0	0	0
3486960	REC_WORD	wordpools/wasnorm_wordpool_576.txt	LTP285	ltpFR2	10	16	SHARK	1275	n/a	n/a	0	0	0
3488311	REC_WORD	wordpools/wasnorm_wordpool_576.txt	LTP285	ltpFR2	10	16	HAWK	692	n/a	n/a	0	0	0
3489391	REC_WORD	wordpools/wasnorm_wordpool_576.txt	LTP285	ltpFR2	10	16	SPARROW	1347	n/a	n/a	0	0	0
3491578	REC_WORD	wordpools/wasnorm_wordpool_576.txt	LTP285	ltpFR2	10	16	STOMACH	1384	n/a	n/a	0	0	0
3493256	REC_WORD	wordpools/wasnorm_wordpool_576.txt	LTP285	ltpFR2	10	16	BELLY	119	n/a	n/a	0	0	0
3494424	REC_WORD	wordpools/wasnorm_wordpool_576.txt	LTP285	ltpFR2	10	16	BREAST	171	n/a	n/a	0	0	0
3496109	REC_WORD	wordpools/wasnorm_wordpool_576.txt	LTP285	ltpFR2	10	16	BODY	145	n/a	n/a	0	0	0
3497781	REC_WORD	wordpools/wasnorm_wordpool_576.txt	LTP285	ltpFR2	10	16	DOLPHIN	483	n/a	n/a	0	0	0
3518117	REC_WORD	wordpools/wasnorm_wordpool_576.txt	LTP285	ltpFR2	10	16	PUPIL	1143	n/a	n/a	0	0	0
3559885	REST_REWET	n/a	LTP285	ltpFR2	10	16	n/a	n/a	n/a	n/a	0	0	0
3916436	WORD	wordpools/wasnorm_wordpool_576.txt	LTP285	ltpFR2	10	17	STICKER	1382	n/a	n/a	0	0	0
3918916	WORD	wordpools/wasnorm_wordpool_576.txt	LTP285	ltpFR2	10	17	BANK	83	n/a	n/a	0	0	0
3921563	WORD	wordpools/wasnorm_wordpool_576.txt	LTP285	ltpFR2	10	17	POSTAGE	1113	n/a	n/a	0	0	0
3924241	WORD	wordpools/wasnorm_wordpool_576.txt	LTP285	ltpFR2	10	17	JELLY	755	n/a	n/a	0	0	0
3926870	WORD	wordpools/wasnorm_wordpool_576.txt	LTP285	ltpFR2	10	17	LETTUCE	814	n/a	n/a	0	0	0
3929601	WORD	wordpools/wasnorm_wordpool_576.txt	LTP285	ltpFR2	10	17	VENUS	1557	n/a	n/a	0	0	0
3932296	WORD	wordpools/wasnorm_wordpool_576.txt	LTP285	ltpFR2	10	17	TABLE	1426	n/a	n/a	0	0	0
3934859	WORD	wordpools/wasnorm_wordpool_576.txt	LTP285	ltpFR2	10	17	TEMPLE	1448	n/a	n/a	0	0	0
3937371	WORD	wordpools/wasnorm_wordpool_576.txt	LTP285	ltpFR2	10	17	TUBA	1515	n/a	n/a	0	0	0
3940067	WORD	wordpools/wasnorm_wordpool_576.txt	LTP285	ltpFR2	10	17	GROUND	666	n/a	n/a	0	0	0
3942880	WORD	wordpools/wasnorm_wordpool_576.txt	LTP285	ltpFR2	10	17	MUMMY	932	n/a	n/a	0	0	0
3945543	WORD	wordpools/wasnorm_wordpool_576.txt	LTP285	ltpFR2	10	17	CROSS	413	n/a	n/a	0	0	0
3948022	WORD	wordpools/wasnorm_wordpool_576.txt	LTP285	ltpFR2	10	17	ZIPPER	1636	n/a	n/a	0	0	0
3950469	WORD	wordpools/wasnorm_wordpool_576.txt	LTP285	ltpFR2	10	17	ELBOW	520	n/a	n/a	0	0	0
3953181	WORD	wordpools/wasnorm_wordpool_576.txt	LTP285	ltpFR2	10	17	ANKLE	24	n/a	n/a	0	0	0
3955629	WORD	wordpools/wasnorm_wordpool_576.txt	LTP285	ltpFR2	10	17	VIKING	1565	n/a	n/a	0	0	0
3958373	WORD	wordpools/wasnorm_wordpool_576.txt	LTP285	ltpFR2	10	17	SCALPEL	1243	n/a	n/a	0	0	0
3961186	WORD	wordpools/wasnorm_wordpool_576.txt	LTP285	ltpFR2	10	17	PECAN	1036	n/a	n/a	0	0	0
3963882	WORD	wordpools/wasnorm_wordpool_576.txt	LTP285	ltpFR2	10	17	ORCHID	982	n/a	n/a	0	0	0
3966378	WORD	wordpools/wasnorm_wordpool_576.txt	LTP285	ltpFR2	10	17	BOUQUET	157	n/a	n/a	0	0	0
3968824	WORD	wordpools/wasnorm_wordpool_576.txt	LTP285	ltpFR2	10	17	GAVEL	627	n/a	n/a	0	0	0
3971371	WORD	wordpools/wasnorm_wordpool_576.txt	LTP285	ltpFR2	10	17	BANJO	82	n/a	n/a	0	0	0
3974083	WORD	wordpools/wasnorm_wordpool_576.txt	LTP285	ltpFR2	10	17	PIANO	1057	n/a	n/a	0	0	0
3976581	WORD	wordpools/wasnorm_wordpool_576.txt	LTP285	ltpFR2	10	17	SHORTS	1293	n/a	n/a	0	0	0
3978194	START	n/a	LTP285	ltpFR2	10	n/a	n/a	n/a	26	n/a	n/a	n/a	n/a
3979166	DISTRACTOR	n/a	LTP285	ltpFR2	10	17	n/a	n/a	n/a	n/a	0	0	0
3979176	PROB	n/a	LTP285	ltpFR2	10	n/a	n/a	n/a	26	3	1	1	1
3980440	PROB	n/a	LTP285	ltpFR2	10	n/a	n/a	n/a	26	14	4	3	7
3981789	PROB	n/a	LTP285	ltpFR2	10	n/a	n/a	n/a	26	23	9	9	5
3984085	PROB	n/a	LTP285	ltpFR2	10	n/a	n/a	n/a	26	18	6	4	8
3985150	PROB	n/a	LTP285	ltpFR2	10	n/a	n/a	n/a	26	20	8	6	6
3986566	PROB	n/a	LTP285	ltpFR2	10	n/a	n/a	n/a	26	13	6	6	1
3987747	PROB	n/a	LTP285	ltpFR2	10	n/a	n/a	n/a	26	22	6	9	7
3990776	PROB	n/a	LTP285	ltpFR2	10	n/a	n/a	n/a	26	6	4	1	1
3991990	PROB	n/a	LTP285	ltpFR2	10	n/a	n/a	n/a	26	13	2	2	9
3993438	PROB	n/a	LTP285	ltpFR2	10	n/a	n/a	n/a	26	16	5	3	8
3994637	PROB	n/a	LTP285	ltpFR2	10	n/a	n/a	n/a	26	16	8	7	1
3995669	PROB	n/a	LTP285	ltpFR2	10	n/a	n/a	n/a	26	12	2	7	3
3996734	PROB	n/a	LTP285	ltpFR2	10	n/a	n/a	n/a	26	21	9	3	8
3998813	PROB	n/a	LTP285	ltpFR2	10	n/a	n/a	n/a	26	4	1	1	2
3999828	PROB	n/a	LTP285	ltpFR2	10	n/a	n/a	n/a	26	13	9	3	1
4001028	STOP	n/a	LTP285	ltpFR2	10	n/a	n/a	n/a	26	n/a	n/a	n/a	n/a
4003956	REC_START	n/a	LTP285	ltpFR2	10	17	n/a	n/a	n/a	n/a	0	0	0
4004974	REC_WORD	wordpools/wasnorm_wordpool_576.txt	LTP285	ltpFR2	10	17	GAVEL	627	n/a	n/a	0	0	0
4006262	REC_WORD	wordpools/wasnorm_wordpool_576.txt	LTP285	ltpFR2	10	17	PIANO	1057	n/a	n/a	0	0	0
4007596	REC_WORD	wordpools/wasnorm_wordpool_576.txt	LTP285	ltpFR2	10	17	BANJO	82	n/a	n/a	0	0	0
4008738	REC_WORD	wordpools/wasnorm_wordpool_576.txt	LTP285	ltpFR2	10	17	TUBA	1515	n/a	n/a	0	0	0
4013394	REC_WORD	wordpools/wasnorm_wordpool_576.txt	LTP285	ltpFR2	10	17	JELLY	755	n/a	n/a	0	0	0
4021293	REC_WORD	wordpools/wasnorm_wordpool_576.txt	LTP285	ltpFR2	10	17	STICKER	1382	n/a	n/a	0	0	0
4022506	REC_WORD	wordpools/wasnorm_wordpool_576.txt	LTP285	ltpFR2	10	17	SCALPEL	1243	n/a	n/a	0	0	0
4023833	REC_WORD	wordpools/wasnorm_wordpool_576.txt	LTP285	ltpFR2	10	17	VIKING	1565	n/a	n/a	0	0	0
4033732	REC_WORD	wordpools/wasnorm_wordpool_576.txt	LTP285	ltpFR2	10	17	TEMPLE	1448	n/a	n/a	0	0	0
4034876	REC_WORD	wordpools/wasnorm_wordpool_576.txt	LTP285	ltpFR2	10	17	TABLE	1426	n/a	n/a	0	0	0
4036171	REC_WORD	wordpools/wasnorm_wordpool_576.txt	LTP285	ltpFR2	10	17	CROSS	413	n/a	n/a	0	0	0
4041651	REC_WORD	wordpools/wasnorm_wordpool_576.txt	LTP285	ltpFR2	10	17	ELBOW	520	n/a	n/a	0	0	0
4042847	REC_WORD	wordpools/wasnorm_wordpool_576.txt	LTP285	ltpFR2	10	17	ANKLE	24	n/a	n/a	0	0	0
4059510	REC_WORD	wordpools/wasnorm_wordpool_576.txt	LTP285	ltpFR2	10	17	SHORTS	1293	n/a	n/a	0	0	0
4065599	REC_WORD	wordpools/wasnorm_wordpool_576.txt	LTP285	ltpFR2	10	17	VENUS	1557	n/a	n/a	0	0	0
4094621	WORD	wordpools/wasnorm_wordpool_576.txt	LTP285	ltpFR2	10	18	DASHBOARD	441	n/a	n/a	0	0	0
4097433	WORD	wordpools/wasnorm_wordpool_576.txt	LTP285	ltpFR2	10	18	RUG	1215	n/a	n/a	0	0	0
4100212	WORD	wordpools/wasnorm_wordpool_576.txt	LTP285	ltpFR2	10	18	SKILLET	1317	n/a	n/a	0	0	0
4102759	WORD	wordpools/wasnorm_wordpool_576.txt	LTP285	ltpFR2	10	18	ROBIN	1199	n/a	n/a	0	0	0
4105304	WORD	wordpools/wasnorm_wordpool_576.txt	LTP285	ltpFR2	10	18	FIREMAN	569	n/a	n/a	0	0	0
4107768	WORD	wordpools/wasnorm_wordpool_576.txt	LTP285	ltpFR2	10	18	BUGGY	188	n/a	n/a	0	0	0
4110213	WORD	wordpools/wasnorm_wordpool_576.txt	LTP285	ltpFR2	10	18	OINTMENT	974	n/a	n/a	0	0	0
4112661	WORD	wordpools/wasnorm_wordpool_576.txt	LTP285	ltpFR2	10	18	COLLEGE	346	n/a	n/a	0	0	0
4115139	WORD	wordpools/wasnorm_wordpool_576.txt	LTP285	ltpFR2	10	18	BRIEFCASE	175	n/a	n/a	0	0	0
4117720	WORD	wordpools/wasnorm_wordpool_576.txt	LTP285	ltpFR2	10	18	GAZELLE	628	n/a	n/a	0	0	0
4120315	WORD	wordpools/wasnorm_wordpool_576.txt	LTP285	ltpFR2	10	18	EXPERT	543	n/a	n/a	0	0	0
4122811	WORD	wordpools/wasnorm_wordpool_576.txt	LTP285	ltpFR2	10	18	SALT	1229	n/a	n/a	0	0	0
4125258	WORD	wordpools/wasnorm_wordpool_576.txt	LTP285	ltpFR2	10	18	PEPPER	1047	n/a	n/a	0	0	0
4128037	WORD	wordpools/wasnorm_wordpool_576.txt	LTP285	ltpFR2	10	18	HORNET	718	n/a	n/a	0	0	0
4130833	WORD	wordpools/wasnorm_wordpool_576.txt	LTP285	ltpFR2	10	18	DENTIST	447	n/a	n/a	0	0	0
4133296	WORD	wordpools/wasnorm_wordpool_576.txt	LTP285	ltpFR2	10	18	GARLIC	624	n/a	n/a	0	0	0
4135992	WORD	wordpools/wasnorm_wordpool_576.txt	LTP285	ltpFR2	10	18	CLOCK	325	n/a	n/a	0	0	0
4138521	WORD	wordpools/wasnorm_wordpool_576.txt	LTP285	ltpFR2	10	18	TEACHER	1440	n/a	n/a	0	0	0
4141317	WORD	wordpools/wasnorm_wordpool_576.txt	LTP285	ltpFR2	10	18	CEILING	265	n/a	n/a	0	0	0
4143764	WORD	wordpools/wasnorm_wordpool_576.txt	LTP285	ltpFR2	10	18	CORAL	378	n/a	n/a	0	0	0
4146443	WORD	wordpools/wasnorm_wordpool_576.txt	LTP285	ltpFR2	10	18	STATUE	1374	n/a	n/a	0	0	0
4148922	WORD	wordpools/wasnorm_wordpool_576.txt	LTP285	ltpFR2	10	18	SCULPTURE	1258	n/a	n/a	0	0	0
4151535	WORD	wordpools/wasnorm_wordpool_576.txt	LTP285	ltpFR2	10	18	TILE	1468	n/a	n/a	0	0	0
4154298	WORD	wordpools/wasnorm_wordpool_576.txt	LTP285	ltpFR2	10	18	INFANT	737	n/a	n/a	0	0	0
4155912	START	n/a	LTP285	ltpFR2	10	n/a	n/a	n/a	27	n/a	n/a	n/a	n/a
4156775	DISTRACTOR	n/a	LTP285	ltpFR2	10	18	n/a	n/a	n/a	n/a	0	0	0
4156778	PROB	n/a	LTP285	ltpFR2	10	n/a	n/a	n/a	27	19	9	4	6
4158275	PROB	n/a	LTP285	ltpFR2	10	n/a	n/a	n/a	27	9	2	5	2
4159490	PROB	n/a	LTP285	ltpFR2	10	n/a	n/a	n/a	27	12	2	2	8
4160505	PROB	n/a	LTP285	ltpFR2	10	n/a	n/a	n/a	27	11	3	3	5
4161638	PROB	n/a	LTP285	ltpFR2	10	n/a	n/a	n/a	27	10	1	2	7
4162586	PROB	n/a	LTP285	ltpFR2	10	n/a	n/a	n/a	27	15	8	2	5
4164000	PROB	n/a	LTP285	ltpFR2	10	n/a	n/a	n/a	27	12	7	3	2
4165015	PROB	n/a	LTP285	ltpFR2	10	n/a	n/a	n/a	27	20	9	2	9
4166730	PROB	n/a	LTP285	ltpFR2	10	n/a	n/a	n/a	27	14	3	3	8
4167861	PROB	n/a	LTP285	ltpFR2	10	n/a	n/a	n/a	27	19	7	5	7
4169292	PROB	n/a	LTP285	ltpFR2	10	n/a	n/a	n/a	27	12	6	1	5
4170240	PROB	n/a	LTP285	ltpFR2	10	n/a	n/a	n/a	27	15	3	8	4
4171773	PROB	n/a	LTP285	ltpFR2	10	n/a	n/a	n/a	27	22	9	5	7
4173968	PROB	n/a	LTP285	ltpFR2	10	n/a	n/a	n/a	27	16	7	4	5
4175949	PROB	n/a	LTP285	ltpFR2	10	n/a	n/a	n/a	27	11	2	4	5
4177397	PROB	n/a	LTP285	ltpFR2	10	n/a	n/a	n/a	27	8	1	2	5
4178364	STOP	n/a	LTP285	ltpFR2	10	n/a	n/a	n/a	27	n/a	n/a	n/a	n/a
4181658	REC_START	n/a	LTP285	ltpFR2	10	18	n/a	n/a	n/a	n/a	0	0	0
4182181	REC_WORD	wordpools/wasnorm_wordpool_576.txt	LTP285	ltpFR2	10	18	SCULPTURE	1258	n/a	n/a	0	0	0
4183387	REC_WORD	wordpools/wasnorm_wordpool_576.txt	LTP285	ltpFR2	10	18	STATUE	1374	n/a	n/a	0	0	0
4185521	REC_WORD	wordpools/wasnorm_wordpool_576.txt	LTP285	ltpFR2	10	18	ROBIN	1199	n/a	n/a	0	0	0
4187240	REC_WORD	wordpools/wasnorm_wordpool_576.txt	LTP285	ltpFR2	10	18	SKILLET	1317	n/a	n/a	0	0	0
4188574	REC_WORD	wordpools/wasnorm_wordpool_576.txt	LTP285	ltpFR2	10	18	SALT	1229	n/a	n/a	0	0	0
4189443	REC_WORD	wordpools/wasnorm_wordpool_576.txt	LTP285	ltpFR2	10	18	PEPPER	1047	n/a	n/a	0	0	0
4190326	REC_WORD	wordpools/wasnorm_wordpool_576.txt	LTP285	ltpFR2	10	18	GARLIC	624	n/a	n/a	0	0	0
4195539	REC_WORD	wordpools/wasnorm_wordpool_576.txt	LTP285	ltpFR2	10	18	DENTIST	447	n/a	n/a	0	0	0
4196575	REC_WORD	wordpools/wasnorm_wordpool_576.txt	LTP285	ltpFR2	10	18	TEACHER	1440	n/a	n/a	0	0	0
4197651	REC_WORD	wordpools/wasnorm_wordpool_576.txt	LTP285	ltpFR2	10	18	FIREMAN	569	n/a	n/a	0	0	0
4199020	REC_WORD	wordpools/wasnorm_wordpool_576.txt	LTP285	ltpFR2	10	18	EXPERT	543	n/a	n/a	0	0	0
4200515	REC_WORD	wordpools/wasnorm_wordpool_576.txt	LTP285	ltpFR2	10	18	COLLEGE	346	n/a	n/a	0	0	0
4203970	REC_WORD	wordpools/wasnorm_wordpool_576.txt	LTP285	ltpFR2	10	18	DASHBOARD	441	n/a	n/a	0	0	0
4212027	REC_WORD	wordpools/wasnorm_wordpool_576.txt	LTP285	ltpFR2	10	18	RUG	1215	n/a	n/a	0	0	0
4221580	REC_WORD	wordpools/wasnorm_wordpool_576.txt	LTP285	ltpFR2	10	18	OINTMENT	974	n/a	n/a	0	0	0
4247677	REC_WORD	wordpools/wasnorm_wordpool_576.txt	LTP285	ltpFR2	10	18	BUGGY	188	n/a	n/a	0	0	0
4272305	DISTRACTOR	n/a	LTP285	ltpFR2	10	19	n/a	n/a	n/a	n/a	0	0	0
4272305	START	n/a	LTP285	ltpFR2	10	n/a	n/a	n/a	28	n/a	n/a	n/a	n/a
4272338	PROB	n/a	LTP285	ltpFR2	10	n/a	n/a	n/a	28	6	1	3	2
4273353	PROB	n/a	LTP285	ltpFR2	10	n/a	n/a	n/a	28	26	8	9	9
4275400	PROB	n/a	LTP285	ltpFR2	10	n/a	n/a	n/a	28	18	6	9	3
4276666	PROB	n/a	LTP285	ltpFR2	10	n/a	n/a	n/a	28	9	1	2	4
4277681	PROB	n/a	LTP285	ltpFR2	10	n/a	n/a	n/a	28	10	5	1	4
4278912	PROB	n/a	LTP285	ltpFR2	10	n/a	n/a	n/a	28	17	2	7	8
4280710	PROB	n/a	LTP285	ltpFR2	10	n/a	n/a	n/a	28	13	1	3	9
4282306	PROB	n/a	LTP285	ltpFR2	10	n/a	n/a	n/a	28	9	1	3	5
4284287	PROB	n/a	LTP285	ltpFR2	10	n/a	n/a	n/a	28	8	2	4	2
4285934	PROB	n/a	LTP285	ltpFR2	10	n/a	n/a	n/a	28	11	1	2	8
4287716	PROB	n/a	LTP285	ltpFR2	10	n/a	n/a	n/a	28	11	6	1	4
4288648	PROB	n/a	LTP285	ltpFR2	10	n/a	n/a	n/a	28	19	9	5	5
4289680	PROB	n/a	LTP285	ltpFR2	10	n/a	n/a	n/a	28	9	1	7	1
4290827	PROB	n/a	LTP285	ltpFR2	10	n/a	n/a	n/a	28	178	8	6	3
4292225	PROB	n/a	LTP285	ltpFR2	10	n/a	n/a	n/a	28	15	9	5	1
4293574	PROB	n/a	LTP285	ltpFR2	10	n/a	n/a	n/a	28	20	9	4	7
4295364	STOP	n/a	LTP285	ltpFR2	10	n/a	n/a	n/a	28	n/a	n/a	n/a	n/a
4297467	WORD	wordpools/wasnorm_wordpool_576.txt	LTP285	ltpFR2	10	19	SWITCH	1422	n/a	n/a	0	0	0
4299963	WORD	wordpools/wasnorm_wordpool_576.txt	LTP285	ltpFR2	10	19	CELLAR	267	n/a	n/a	0	0	0
4302443	WORD	wordpools/wasnorm_wordpool_576.txt	LTP285	ltpFR2	10	19	CATTLE	261	n/a	n/a	0	0	0
4305006	WORD	wordpools/wasnorm_wordpool_576.txt	LTP285	ltpFR2	10	19	GLOVE	642	n/a	n/a	0	0	0
4307486	WORD	wordpools/wasnorm_wordpool_576.txt	LTP285	ltpFR2	10	19	BURGLAR	200	n/a	n/a	0	0	0
4310298	WORD	wordpools/wasnorm_wordpool_576.txt	LTP285	ltpFR2	10	19	SCARECROW	1245	n/a	n/a	0	0	0
4312994	WORD	wordpools/wasnorm_wordpool_576.txt	LTP285	ltpFR2	10	19	DIVER	476	n/a	n/a	0	0	0
4315575	WORD	wordpools/wasnorm_wordpool_576.txt	LTP285	ltpFR2	10	19	GIRL	637	n/a	n/a	0	0	0
4318253	WORD	wordpools/wasnorm_wordpool_576.txt	LTP285	ltpFR2	10	19	BLUEPRINT	142	n/a	n/a	0	0	0
4321015	WORD	wordpools/wasnorm_wordpool_576.txt	LTP285	ltpFR2	10	19	PATIENT	1024	n/a	n/a	0	0	0
4323545	WORD	wordpools/wasnorm_wordpool_576.txt	LTP285	ltpFR2	10	19	CAFE	216	n/a	n/a	0	0	0
4326025	WORD	wordpools/wasnorm_wordpool_576.txt	LTP285	ltpFR2	10	19	PLATE	1086	n/a	n/a	0	0	0
4328554	WORD	wordpools/wasnorm_wordpool_576.txt	LTP285	ltpFR2	10	19	KNAPSACK	783	n/a	n/a	0	0	0
4331184	WORD	wordpools/wasnorm_wordpool_576.txt	LTP285	ltpFR2	10	19	HANDBAG	684	n/a	n/a	0	0	0
4333996	WORD	wordpools/wasnorm_wordpool_576.txt	LTP285	ltpFR2	10	19	UNCLE	1536	n/a	n/a	0	0	0
4336577	WORD	wordpools/wasnorm_wordpool_576.txt	LTP285	ltpFR2	10	19	OZONE	996	n/a	n/a	0	0	0
4339088	WORD	wordpools/wasnorm_wordpool_576.txt	LTP285	ltpFR2	10	19	ROBBER	1197	n/a	n/a	0	0	0
4341518	WORD	wordpools/wasnorm_wordpool_576.txt	LTP285	ltpFR2	10	19	MEAT	883	n/a	n/a	0	0	0
4344131	WORD	wordpools/wasnorm_wordpool_576.txt	LTP285	ltpFR2	10	19	BUTCHER	203	n/a	n/a	0	0	0
4346645	WORD	wordpools/wasnorm_wordpool_576.txt	LTP285	ltpFR2	10	19	LADDER	793	n/a	n/a	0	0	0
4349456	WORD	wordpools/wasnorm_wordpool_576.txt	LTP285	ltpFR2	10	19	CABIN	211	n/a	n/a	0	0	0
4352119	WORD	wordpools/wasnorm_wordpool_576.txt	LTP285	ltpFR2	10	19	BASEMENT	94	n/a	n/a	0	0	0
4354666	WORD	wordpools/wasnorm_wordpool_576.txt	LTP285	ltpFR2	10	19	PANTHER	1009	n/a	n/a	0	0	0
