mstime	trial_type	stim_file	subject	experiment	session	trial	item_name	item_num	list	answer	test_x	test_y	test_z
0	SESS_START	n/a	LTP342	ltpFR2	15	n/a	n/a	n/a	n/a	n/a	0	0	0
13812	START	n/a	LTP342	ltpFR2	15	n/a	n/a	n/a	-1	n/a	n/a	n/a	n/a
13842	PROB	n/a	LTP342	ltpFR2	15	n/a	n/a	n/a	-1	18	3	9	6
15326	PROB	n/a	LTP342	ltpFR2	15	n/a	n/a	n/a	-1	21	9	8	5
17458	PROB	n/a	LTP342	ltpFR2	15	n/a	n/a	n/a	-1	15	8	3	4
18840	PROB	n/a	LTP342	ltpFR2	15	n/a	n/a	n/a	-1	17	8	7	2
20274	PROB	n/a	LTP342	ltpFR2	15	n/a	n/a	n/a	-1	12	2	9	1
21406	PROB	n/a	LTP342	ltpFR2	15	n/a	n/a	n/a	-1	15	8	2	5
22439	PROB	n/a	LTP342	ltpFR2	15	n/a	n/a	n/a	-1	19	9	6	4
24189	PROB	n/a	LTP342	ltpFR2	15	n/a	n/a	n/a	-1	11	3	3	5
25300	STOP	n/a	LTP342	ltpFR2	15	n/a	n/a	n/a	-1	n/a	n/a	n/a	n/a
55607	DISTRACTOR	n/a	LTP342	ltpFR2	15	1	n/a	n/a	n/a	n/a	0	0	0
55607	START	n/a	LTP342	ltpFR2	15	n/a	n/a	n/a	1	n/a	n/a	n/a	n/a
55623	PROB	n/a	LTP342	ltpFR2	15	n/a	n/a	n/a	1	12	6	2	4
57307	PROB	n/a	LTP342	ltpFR2	15	n/a	n/a	n/a	1	15	9	5	1
58340	PROB	n/a	LTP342	ltpFR2	15	n/a	n/a	n/a	1	13	9	1	3
59573	PROB	n/a	LTP342	ltpFR2	15	n/a	n/a	n/a	1	17	7	4	6
60888	PROB	n/a	LTP342	ltpFR2	15	n/a	n/a	n/a	1	23	9	6	9
62903	PROB	n/a	LTP342	ltpFR2	15	n/a	n/a	n/a	1	12	6	5	1
64204	PROB	n/a	LTP342	ltpFR2	15	n/a	n/a	n/a	1	15	5	4	6
65453	PROB	n/a	LTP342	ltpFR2	15	n/a	n/a	n/a	1	19	7	5	6
67252	PROB	n/a	LTP342	ltpFR2	15	n/a	n/a	n/a	1	20	5	9	6
68917	PROB	n/a	LTP342	ltpFR2	15	n/a	n/a	n/a	1	15	7	1	7
69984	PROB	n/a	LTP342	ltpFR2	15	n/a	n/a	n/a	1	8	1	6	1
70950	PROB	n/a	LTP342	ltpFR2	15	n/a	n/a	n/a	1	14	3	3	8
72150	PROB	n/a	LTP342	ltpFR2	15	n/a	n/a	n/a	1	16	4	7	5
73732	PROB	n/a	LTP342	ltpFR2	15	n/a	n/a	n/a	1	16	7	4	5
75249	PROB	n/a	LTP342	ltpFR2	15	n/a	n/a	n/a	1	12	4	7	1
76365	PROB	n/a	LTP342	ltpFR2	15	n/a	n/a	n/a	1	21	9	9	3
77830	PROB	n/a	LTP342	ltpFR2	15	n/a	n/a	n/a	1	5	1	1	3
78701	STOP	n/a	LTP342	ltpFR2	15	n/a	n/a	n/a	1	n/a	n/a	n/a	n/a
80496	WORD	wordpools/wasnorm_wordpool_576.txt	LTP342	ltpFR2	15	1	GALLON	618	n/a	n/a	0	0	0
83012	WORD	wordpools/wasnorm_wordpool_576.txt	LTP342	ltpFR2	15	1	SKIRT	1319	n/a	n/a	0	0	0
85760	WORD	wordpools/wasnorm_wordpool_576.txt	LTP342	ltpFR2	15	1	VELVET	1555	n/a	n/a	0	0	0
88343	WORD	wordpools/wasnorm_wordpool_576.txt	LTP342	ltpFR2	15	1	FLESH	579	n/a	n/a	0	0	0
91092	WORD	wordpools/wasnorm_wordpool_576.txt	LTP342	ltpFR2	15	1	COD	340	n/a	n/a	0	0	0
93706	WORD	wordpools/wasnorm_wordpool_576.txt	LTP342	ltpFR2	15	1	MARS	873	n/a	n/a	0	0	0
96373	WORD	wordpools/wasnorm_wordpool_576.txt	LTP342	ltpFR2	15	1	CHIPMUNK	304	n/a	n/a	0	0	0
99138	WORD	wordpools/wasnorm_wordpool_576.txt	LTP342	ltpFR2	15	1	MILK	895	n/a	n/a	0	0	0
101952	WORD	wordpools/wasnorm_wordpool_576.txt	LTP342	ltpFR2	15	1	DASHBOARD	441	n/a	n/a	0	0	0
104569	WORD	wordpools/wasnorm_wordpool_576.txt	LTP342	ltpFR2	15	1	LUNCH	849	n/a	n/a	0	0	0
107301	WORD	wordpools/wasnorm_wordpool_576.txt	LTP342	ltpFR2	15	1	WARDROBE	1587	n/a	n/a	0	0	0
109932	WORD	wordpools/wasnorm_wordpool_576.txt	LTP342	ltpFR2	15	1	CRAB	397	n/a	n/a	0	0	0
112449	WORD	wordpools/wasnorm_wordpool_576.txt	LTP342	ltpFR2	15	1	SCARF	1246	n/a	n/a	0	0	0
115131	WORD	wordpools/wasnorm_wordpool_576.txt	LTP342	ltpFR2	15	1	POET	1095	n/a	n/a	0	0	0
117795	WORD	wordpools/wasnorm_wordpool_576.txt	LTP342	ltpFR2	15	1	WIFE	1609	n/a	n/a	0	0	0
120345	WORD	wordpools/wasnorm_wordpool_576.txt	LTP342	ltpFR2	15	1	SUNSET	1408	n/a	n/a	0	0	0
122793	WORD	wordpools/wasnorm_wordpool_576.txt	LTP342	ltpFR2	15	1	SUNRISE	1407	n/a	n/a	0	0	0
125476	WORD	wordpools/wasnorm_wordpool_576.txt	LTP342	ltpFR2	15	1	HUSBAND	728	n/a	n/a	0	0	0
127975	WORD	wordpools/wasnorm_wordpool_576.txt	LTP342	ltpFR2	15	1	CARRIAGE	248	n/a	n/a	0	0	0
130706	WORD	wordpools/wasnorm_wordpool_576.txt	LTP342	ltpFR2	15	1	RACKET	1155	n/a	n/a	0	0	0
133506	WORD	wordpools/wasnorm_wordpool_576.txt	LTP342	ltpFR2	15	1	PARROT	1015	n/a	n/a	0	0	0
136038	WORD	wordpools/wasnorm_wordpool_576.txt	LTP342	ltpFR2	15	1	PUPPY	1144	n/a	n/a	0	0	0
138553	WORD	wordpools/wasnorm_wordpool_576.txt	LTP342	ltpFR2	15	1	RUG	1215	n/a	n/a	0	0	0
141019	WORD	wordpools/wasnorm_wordpool_576.txt	LTP342	ltpFR2	15	1	PERMIT	1051	n/a	n/a	0	0	0
142634	START	n/a	LTP342	ltpFR2	15	n/a	n/a	n/a	2	n/a	n/a	n/a	n/a
143803	DISTRACTOR	n/a	LTP342	ltpFR2	15	1	n/a	n/a	n/a	n/a	0	0	0
143817	PROB	n/a	LTP342	ltpFR2	15	n/a	n/a	n/a	2	22	5	9	8
145649	PROB	n/a	LTP342	ltpFR2	15	n/a	n/a	n/a	2	10	1	7	2
147183	PROB	n/a	LTP342	ltpFR2	15	n/a	n/a	n/a	2	14	7	1	6
149215	PROB	n/a	LTP342	ltpFR2	15	n/a	n/a	n/a	2	13	2	7	4
150947	PROB	n/a	LTP342	ltpFR2	15	n/a	n/a	n/a	2	14	3	8	3
152297	PROB	n/a	LTP342	ltpFR2	15	n/a	n/a	n/a	2	20	6	6	8
154263	PROB	n/a	LTP342	ltpFR2	15	n/a	n/a	n/a	2	13	8	1	4
155645	PROB	n/a	LTP342	ltpFR2	15	n/a	n/a	n/a	2	8	1	6	1
156727	PROB	n/a	LTP342	ltpFR2	15	n/a	n/a	n/a	2	11	5	2	4
158394	PROB	n/a	LTP342	ltpFR2	15	n/a	n/a	n/a	2	24	9	9	6
160110	PROB	n/a	LTP342	ltpFR2	15	n/a	n/a	n/a	2	15	2	9	4
161510	PROB	n/a	LTP342	ltpFR2	15	n/a	n/a	n/a	2	17	7	3	7
163059	PROB	n/a	LTP342	ltpFR2	15	n/a	n/a	n/a	2	12	1	9	2
164724	PROB	n/a	LTP342	ltpFR2	15	n/a	n/a	n/a	2	15	3	6	6
166216	STOP	n/a	LTP342	ltpFR2	15	n/a	n/a	n/a	2	n/a	n/a	n/a	n/a
168524	REC_START	n/a	LTP342	ltpFR2	15	1	n/a	n/a	n/a	n/a	0	0	0
170067	REC_WORD	wordpools/wasnorm_wordpool_576.txt	LTP342	ltpFR2	15	1	GALLON	618	n/a	n/a	0	0	0
170795	REC_WORD	wordpools/wasnorm_wordpool_576.txt	LTP342	ltpFR2	15	1	SKIRT	1319	n/a	n/a	0	0	0
171988	REC_WORD	wordpools/wasnorm_wordpool_576.txt	LTP342	ltpFR2	15	1	VELVET	1555	n/a	n/a	0	0	0
173063	REC_WORD	wordpools/wasnorm_wordpool_576.txt	LTP342	ltpFR2	15	1	COD	340	n/a	n/a	0	0	0
175166	REC_WORD	wordpools/wasnorm_wordpool_576.txt	LTP342	ltpFR2	15	1	CHIPMUNK	304	n/a	n/a	0	0	0
176808	REC_WORD	wordpools/wasnorm_wordpool_576.txt	LTP342	ltpFR2	15	1	MILK	895	n/a	n/a	0	0	0
178557	REC_WORD	wordpools/wasnorm_wordpool_576.txt	LTP342	ltpFR2	15	1	MARS	873	n/a	n/a	0	0	0
180723	REC_WORD	wordpools/wasnorm_wordpool_576.txt	LTP342	ltpFR2	15	1	DASHBOARD	441	n/a	n/a	0	0	0
181837	REC_WORD	wordpools/wasnorm_wordpool_576.txt	LTP342	ltpFR2	15	1	LUNCH	849	n/a	n/a	0	0	0
183448	REC_WORD	wordpools/wasnorm_wordpool_576.txt	LTP342	ltpFR2	15	1	OUTFIT	988	n/a	n/a	0	0	0
189920	REC_WORD	wordpools/wasnorm_wordpool_576.txt	LTP342	ltpFR2	15	1	CRAB	397	n/a	n/a	0	0	0
190855	REC_WORD	wordpools/wasnorm_wordpool_576.txt	LTP342	ltpFR2	15	1	SCARF	1246	n/a	n/a	0	0	0
192391	REC_WORD	wordpools/wasnorm_wordpool_576.txt	LTP342	ltpFR2	15	1	POET	1095	n/a	n/a	0	0	0
193447	REC_WORD	wordpools/wasnorm_wordpool_576.txt	LTP342	ltpFR2	15	1	WIFE	1609	n/a	n/a	0	0	0
194501	REC_WORD	wordpools/wasnorm_wordpool_576.txt	LTP342	ltpFR2	15	1	HUSBAND	728	n/a	n/a	0	0	0
195619	REC_WORD	wordpools/wasnorm_wordpool_576.txt	LTP342	ltpFR2	15	1	SUNSET	1408	n/a	n/a	0	0	0
196721	REC_WORD	wordpools/wasnorm_wordpool_576.txt	LTP342	ltpFR2	15	1	SUNRISE	1407	n/a	n/a	0	0	0
201744	REC_WORD	wordpools/wasnorm_wordpool_576.txt	LTP342	ltpFR2	15	1	CARRIAGE	248	n/a	n/a	0	0	0
202728	REC_WORD	wordpools/wasnorm_wordpool_576.txt	LTP342	ltpFR2	15	1	PERMIT	1051	n/a	n/a	0	0	0
205103	REC_WORD	wordpools/wasnorm_wordpool_576.txt	LTP342	ltpFR2	15	1	PARROT	1015	n/a	n/a	0	0	0
206985	REC_WORD	wordpools/wasnorm_wordpool_576.txt	LTP342	ltpFR2	15	1	PUPPY	1144	n/a	n/a	0	0	0
208263	REC_WORD	wordpools/wasnorm_wordpool_576.txt	LTP342	ltpFR2	15	1	RUG	1215	n/a	n/a	0	0	0
225212	REC_WORD	wordpools/wasnorm_wordpool_576.txt	LTP342	ltpFR2	15	1	RACKET	1155	n/a	n/a	0	0	0
258965	WORD	wordpools/wasnorm_wordpool_576.txt	LTP342	ltpFR2	15	2	IDOL	733	n/a	n/a	0	0	0
261548	WORD	wordpools/wasnorm_wordpool_576.txt	LTP342	ltpFR2	15	2	EXPERT	543	n/a	n/a	0	0	0
264280	WORD	wordpools/wasnorm_wordpool_576.txt	LTP342	ltpFR2	15	2	BULLET	194	n/a	n/a	0	0	0
266794	WORD	wordpools/wasnorm_wordpool_576.txt	LTP342	ltpFR2	15	2	PATIENT	1024	n/a	n/a	0	0	0
269277	WORD	wordpools/wasnorm_wordpool_576.txt	LTP342	ltpFR2	15	2	CONVICT	371	n/a	n/a	0	0	0
271825	WORD	wordpools/wasnorm_wordpool_576.txt	LTP342	ltpFR2	15	2	PISTOL	1075	n/a	n/a	0	0	0
274442	WORD	wordpools/wasnorm_wordpool_576.txt	LTP342	ltpFR2	15	2	SEAFOOD	1260	n/a	n/a	0	0	0
277057	WORD	wordpools/wasnorm_wordpool_576.txt	LTP342	ltpFR2	15	2	LEADER	807	n/a	n/a	0	0	0
279506	WORD	wordpools/wasnorm_wordpool_576.txt	LTP342	ltpFR2	15	2	ZIPPER	1636	n/a	n/a	0	0	0
281988	WORD	wordpools/wasnorm_wordpool_576.txt	LTP342	ltpFR2	15	2	PICNIC	1060	n/a	n/a	0	0	0
284521	WORD	wordpools/wasnorm_wordpool_576.txt	LTP342	ltpFR2	15	2	STAKE	1368	n/a	n/a	0	0	0
287136	WORD	wordpools/wasnorm_wordpool_576.txt	LTP342	ltpFR2	15	2	SPIDER	1351	n/a	n/a	0	0	0
289917	WORD	wordpools/wasnorm_wordpool_576.txt	LTP342	ltpFR2	15	2	THRONE	1461	n/a	n/a	0	0	0
292600	WORD	wordpools/wasnorm_wordpool_576.txt	LTP342	ltpFR2	15	2	PALACE	1006	n/a	n/a	0	0	0
295399	WORD	wordpools/wasnorm_wordpool_576.txt	LTP342	ltpFR2	15	2	TEMPLE	1448	n/a	n/a	0	0	0
298064	WORD	wordpools/wasnorm_wordpool_576.txt	LTP342	ltpFR2	15	2	BRAKE	166	n/a	n/a	0	0	0
300513	WORD	wordpools/wasnorm_wordpool_576.txt	LTP342	ltpFR2	15	2	HAND	683	n/a	n/a	0	0	0
302979	WORD	wordpools/wasnorm_wordpool_576.txt	LTP342	ltpFR2	15	2	WRIST	1626	n/a	n/a	0	0	0
305793	WORD	wordpools/wasnorm_wordpool_576.txt	LTP342	ltpFR2	15	2	PREACHER	1119	n/a	n/a	0	0	0
308493	WORD	wordpools/wasnorm_wordpool_576.txt	LTP342	ltpFR2	15	2	FRIEND	606	n/a	n/a	0	0	0
310924	WORD	wordpools/wasnorm_wordpool_576.txt	LTP342	ltpFR2	15	2	SHELTER	1282	n/a	n/a	0	0	0
313541	WORD	wordpools/wasnorm_wordpool_576.txt	LTP342	ltpFR2	15	2	GANGSTER	620	n/a	n/a	0	0	0
316156	WORD	wordpools/wasnorm_wordpool_576.txt	LTP342	ltpFR2	15	2	RIFLE	1192	n/a	n/a	0	0	0
318687	WORD	wordpools/wasnorm_wordpool_576.txt	LTP342	ltpFR2	15	2	SEAGULL	1261	n/a	n/a	0	0	0
320305	START	n/a	LTP342	ltpFR2	15	n/a	n/a	n/a	3	n/a	n/a	n/a	n/a
321227	DISTRACTOR	n/a	LTP342	ltpFR2	15	2	n/a	n/a	n/a	n/a	0	0	0
321237	PROB	n/a	LTP342	ltpFR2	15	n/a	n/a	n/a	3	19	8	3	8
324136	PROB	n/a	LTP342	ltpFR2	15	n/a	n/a	n/a	3	25	9	9	7
325569	PROB	n/a	LTP342	ltpFR2	15	n/a	n/a	n/a	3	19	7	5	7
327018	PROB	n/a	LTP342	ltpFR2	15	n/a	n/a	n/a	3	12	1	3	8
328151	PROB	n/a	LTP342	ltpFR2	15	n/a	n/a	n/a	3	20	8	8	4
330016	PROB	n/a	LTP342	ltpFR2	15	n/a	n/a	n/a	3	10	4	4	2
331748	PROB	n/a	LTP342	ltpFR2	15	n/a	n/a	n/a	3	24	6	9	9
333747	PROB	n/a	LTP342	ltpFR2	15	n/a	n/a	n/a	3	1	1	5	9
335264	PROB	n/a	LTP342	ltpFR2	15	n/a	n/a	n/a	3	18	9	8	1
336980	PROB	n/a	LTP342	ltpFR2	15	n/a	n/a	n/a	3	19	3	8	8
338812	PROB	n/a	LTP342	ltpFR2	15	n/a	n/a	n/a	3	21	6	6	9
340229	PROB	n/a	LTP342	ltpFR2	15	n/a	n/a	n/a	3	11	6	4	1
341411	PROB	n/a	LTP342	ltpFR2	15	n/a	n/a	n/a	3	13	5	2	6
343438	STOP	n/a	LTP342	ltpFR2	15	n/a	n/a	n/a	3	n/a	n/a	n/a	n/a
346093	REC_START	n/a	LTP342	ltpFR2	15	2	n/a	n/a	n/a	n/a	0	0	0
350281	REC_WORD	wordpools/wasnorm_wordpool_576.txt	LTP342	ltpFR2	15	2	IDOL	733	n/a	n/a	0	0	0
351457	REC_WORD	wordpools/wasnorm_wordpool_576.txt	LTP342	ltpFR2	15	2	EXPERT	543	n/a	n/a	0	0	0
353370	REC_WORD	wordpools/wasnorm_wordpool_576.txt	LTP342	ltpFR2	15	2	BULLET	194	n/a	n/a	0	0	0
354671	REC_WORD	wordpools/wasnorm_wordpool_576.txt	LTP342	ltpFR2	15	2	PATIENT	1024	n/a	n/a	0	0	0
356856	REC_WORD	wordpools/wasnorm_wordpool_576.txt	LTP342	ltpFR2	15	2	CONVICT	371	n/a	n/a	0	0	0
358324	REC_WORD	wordpools/wasnorm_wordpool_576.txt	LTP342	ltpFR2	15	2	PISTOL	1075	n/a	n/a	0	0	0
360659	REC_WORD	wordpools/wasnorm_wordpool_576.txt	LTP342	ltpFR2	15	2	LEADER	807	n/a	n/a	0	0	0
361692	REC_WORD	wordpools/wasnorm_wordpool_576.txt	LTP342	ltpFR2	15	2	ZIPPER	1636	n/a	n/a	0	0	0
362785	REC_WORD	wordpools/wasnorm_wordpool_576.txt	LTP342	ltpFR2	15	2	SEAFOOD	1260	n/a	n/a	0	0	0
364046	REC_WORD	wordpools/wasnorm_wordpool_576.txt	LTP342	ltpFR2	15	2	PICNIC	1060	n/a	n/a	0	0	0
379876	REC_WORD	wordpools/wasnorm_wordpool_576.txt	LTP342	ltpFR2	15	2	SPIDER	1351	n/a	n/a	0	0	0
381351	REC_WORD	wordpools/wasnorm_wordpool_576.txt	LTP342	ltpFR2	15	2	TEMPLE	1448	n/a	n/a	0	0	0
382377	REC_WORD	wordpools/wasnorm_wordpool_576.txt	LTP342	ltpFR2	15	2	PALACE	1006	n/a	n/a	0	0	0
383427	REC_WORD	wordpools/wasnorm_wordpool_576.txt	LTP342	ltpFR2	15	2	THRONE	1461	n/a	n/a	0	0	0
384565	REC_WORD	wordpools/wasnorm_wordpool_576.txt	LTP342	ltpFR2	15	2	PRIEST	1122	n/a	n/a	0	0	0
386699	REC_WORD	wordpools/wasnorm_wordpool_576.txt	LTP342	ltpFR2	15	2	SHELTER	1282	n/a	n/a	0	0	0
387828	REC_WORD	wordpools/wasnorm_wordpool_576.txt	LTP342	ltpFR2	15	2	FRIEND	606	n/a	n/a	0	0	0
398263	REC_WORD	wordpools/wasnorm_wordpool_576.txt	LTP342	ltpFR2	15	2	RIFLE	1192	n/a	n/a	0	0	0
399292	REC_WORD	wordpools/wasnorm_wordpool_576.txt	LTP342	ltpFR2	15	2	SEAGULL	1261	n/a	n/a	0	0	0
403500	REC_WORD	wordpools/wasnorm_wordpool_576.txt	LTP342	ltpFR2	15	2	GANGSTER	620	n/a	n/a	0	0	0
436552	WORD	wordpools/wasnorm_wordpool_576.txt	LTP342	ltpFR2	15	3	PICTURE	1061	n/a	n/a	0	0	0
438984	WORD	wordpools/wasnorm_wordpool_576.txt	LTP342	ltpFR2	15	3	RECORD	1176	n/a	n/a	0	0	0
441483	WORD	wordpools/wasnorm_wordpool_576.txt	LTP342	ltpFR2	15	3	DOUGHNUT	490	n/a	n/a	0	0	0
444048	WORD	wordpools/wasnorm_wordpool_576.txt	LTP342	ltpFR2	15	3	CITRUS	313	n/a	n/a	0	0	0
446813	WORD	wordpools/wasnorm_wordpool_576.txt	LTP342	ltpFR2	15	3	MAMMAL	861	n/a	n/a	0	0	0
449379	WORD	wordpools/wasnorm_wordpool_576.txt	LTP342	ltpFR2	15	3	COIN	343	n/a	n/a	0	0	0
452078	WORD	wordpools/wasnorm_wordpool_576.txt	LTP342	ltpFR2	15	3	HOSTESS	723	n/a	n/a	0	0	0
454642	WORD	wordpools/wasnorm_wordpool_576.txt	LTP342	ltpFR2	15	3	CRIB	407	n/a	n/a	0	0	0
457442	WORD	wordpools/wasnorm_wordpool_576.txt	LTP342	ltpFR2	15	3	BUGGY	188	n/a	n/a	0	0	0
460257	WORD	wordpools/wasnorm_wordpool_576.txt	LTP342	ltpFR2	15	3	PANTHER	1009	n/a	n/a	0	0	0
462839	WORD	wordpools/wasnorm_wordpool_576.txt	LTP342	ltpFR2	15	3	LEOPARD	812	n/a	n/a	0	0	0
465539	WORD	wordpools/wasnorm_wordpool_576.txt	LTP342	ltpFR2	15	3	PIZZA	1079	n/a	n/a	0	0	0
468304	WORD	wordpools/wasnorm_wordpool_576.txt	LTP342	ltpFR2	15	3	WAITER	1580	n/a	n/a	0	0	0
471019	WORD	wordpools/wasnorm_wordpool_576.txt	LTP342	ltpFR2	15	3	CLOCK	325	n/a	n/a	0	0	0
473568	WORD	wordpools/wasnorm_wordpool_576.txt	LTP342	ltpFR2	15	3	SILK	1307	n/a	n/a	0	0	0
476117	WORD	wordpools/wasnorm_wordpool_576.txt	LTP342	ltpFR2	15	3	DONKEY	484	n/a	n/a	0	0	0
478715	WORD	wordpools/wasnorm_wordpool_576.txt	LTP342	ltpFR2	15	3	FIDDLE	561	n/a	n/a	0	0	0
481148	WORD	wordpools/wasnorm_wordpool_576.txt	LTP342	ltpFR2	15	3	BLUEPRINT	142	n/a	n/a	0	0	0
483713	WORD	wordpools/wasnorm_wordpool_576.txt	LTP342	ltpFR2	15	3	FRAGRANCE	599	n/a	n/a	0	0	0
486329	WORD	wordpools/wasnorm_wordpool_576.txt	LTP342	ltpFR2	15	3	DRESS	495	n/a	n/a	0	0	0
489094	WORD	wordpools/wasnorm_wordpool_576.txt	LTP342	ltpFR2	15	3	FRAME	600	n/a	n/a	0	0	0
491577	WORD	wordpools/wasnorm_wordpool_576.txt	LTP342	ltpFR2	15	3	TEACHER	1440	n/a	n/a	0	0	0
494026	WORD	wordpools/wasnorm_wordpool_576.txt	LTP342	ltpFR2	15	3	LAVA	804	n/a	n/a	0	0	0
496508	WORD	wordpools/wasnorm_wordpool_576.txt	LTP342	ltpFR2	15	3	QUARTER	1148	n/a	n/a	0	0	0
498124	START	n/a	LTP342	ltpFR2	15	n/a	n/a	n/a	4	n/a	n/a	n/a	n/a
498988	DISTRACTOR	n/a	LTP342	ltpFR2	15	3	n/a	n/a	n/a	n/a	0	0	0
498990	PROB	n/a	LTP342	ltpFR2	15	n/a	n/a	n/a	4	19	9	4	6
501106	PROB	n/a	LTP342	ltpFR2	15	n/a	n/a	n/a	4	18	8	9	1
503288	PROB	n/a	LTP342	ltpFR2	15	n/a	n/a	n/a	4	14	5	3	6
505970	PROB	n/a	LTP342	ltpFR2	15	n/a	n/a	n/a	4	14	9	4	1
508069	PROB	n/a	LTP342	ltpFR2	15	n/a	n/a	n/a	4	13	9	2	2
509352	PROB	n/a	LTP342	ltpFR2	15	n/a	n/a	n/a	4	15	3	5	7
510617	PROB	n/a	LTP342	ltpFR2	15	n/a	n/a	n/a	4	16	6	1	9
512317	PROB	n/a	LTP342	ltpFR2	15	n/a	n/a	n/a	4	18	5	8	5
513899	PROB	n/a	LTP342	ltpFR2	15	n/a	n/a	n/a	4	17	5	7	5
515399	PROB	n/a	LTP342	ltpFR2	15	n/a	n/a	n/a	4	8	1	1	6
516582	PROB	n/a	LTP342	ltpFR2	15	n/a	n/a	n/a	4	23	8	6	9
518465	PROB	n/a	LTP342	ltpFR2	15	n/a	n/a	n/a	4	22	9	4	9
521123	STOP	n/a	LTP342	ltpFR2	15	n/a	n/a	n/a	4	n/a	n/a	n/a	n/a
523945	REC_START	n/a	LTP342	ltpFR2	15	3	n/a	n/a	n/a	n/a	0	0	0
528049	REC_WORD	wordpools/wasnorm_wordpool_576.txt	LTP342	ltpFR2	15	3	PICTURE	1061	n/a	n/a	0	0	0
528833	REC_WORD	wordpools/wasnorm_wordpool_576.txt	LTP342	ltpFR2	15	3	RECORD	1176	n/a	n/a	0	0	0
529726	REC_WORD	wordpools/wasnorm_wordpool_576.txt	LTP342	ltpFR2	15	3	DOUGHNUT	490	n/a	n/a	0	0	0
530381	REC_WORD	wordpools/wasnorm_wordpool_576.txt	LTP342	ltpFR2	15	3	CITRUS	313	n/a	n/a	0	0	0
531244	REC_WORD	wordpools/wasnorm_wordpool_576.txt	LTP342	ltpFR2	15	3	MAMMAL	861	n/a	n/a	0	0	0
531967	REC_WORD	wordpools/wasnorm_wordpool_576.txt	LTP342	ltpFR2	15	3	COIN	343	n/a	n/a	0	0	0
532967	REC_WORD	wordpools/wasnorm_wordpool_576.txt	LTP342	ltpFR2	15	3	HOSTESS	723	n/a	n/a	0	0	0
536112	REC_WORD	wordpools/wasnorm_wordpool_576.txt	LTP342	ltpFR2	15	3	CRIB	407	n/a	n/a	0	0	0
536897	REC_WORD	wordpools/wasnorm_wordpool_576.txt	LTP342	ltpFR2	15	3	BUGGY	188	n/a	n/a	0	0	0
537619	REC_WORD	wordpools/wasnorm_wordpool_576.txt	LTP342	ltpFR2	15	3	PANTHER	1009	n/a	n/a	0	0	0
538383	REC_WORD	wordpools/wasnorm_wordpool_576.txt	LTP342	ltpFR2	15	3	LEOPARD	812	n/a	n/a	0	0	0
539287	REC_WORD	wordpools/wasnorm_wordpool_576.txt	LTP342	ltpFR2	15	3	PIZZA	1079	n/a	n/a	0	0	0
540048	REC_WORD	wordpools/wasnorm_wordpool_576.txt	LTP342	ltpFR2	15	3	WAITER	1580	n/a	n/a	0	0	0
541332	REC_WORD	wordpools/wasnorm_wordpool_576.txt	LTP342	ltpFR2	15	3	SILK	1307	n/a	n/a	0	0	0
542517	REC_WORD	wordpools/wasnorm_wordpool_576.txt	LTP342	ltpFR2	15	3	FIDDLE	561	n/a	n/a	0	0	0
543173	REC_WORD	wordpools/wasnorm_wordpool_576.txt	LTP342	ltpFR2	15	3	BLUEPRINT	142	n/a	n/a	0	0	0
543877	REC_WORD	wordpools/wasnorm_wordpool_576.txt	LTP342	ltpFR2	15	3	BLUEPRINT	142	n/a	n/a	0	0	0
544879	REC_WORD	wordpools/wasnorm_wordpool_576.txt	LTP342	ltpFR2	15	3	FRAGRANCE	599	n/a	n/a	0	0	0
549778	REC_WORD	wordpools/wasnorm_wordpool_576.txt	LTP342	ltpFR2	15	3	FRAME	600	n/a	n/a	0	0	0
552331	REC_WORD	wordpools/wasnorm_wordpool_576.txt	LTP342	ltpFR2	15	3	QUARTER	1148	n/a	n/a	0	0	0
553014	REC_WORD	wordpools/wasnorm_wordpool_576.txt	LTP342	ltpFR2	15	3	LAVA	804	n/a	n/a	0	0	0
554339	REC_WORD	wordpools/wasnorm_wordpool_576.txt	LTP342	ltpFR2	15	3	TEACHER	1440	n/a	n/a	0	0	0
614388	DISTRACTOR	n/a	LTP342	ltpFR2	15	4	n/a	n/a	n/a	n/a	0	0	0
614388	START	n/a	LTP342	ltpFR2	15	n/a	n/a	n/a	5	n/a	n/a	n/a	n/a
614404	PROB	n/a	LTP342	ltpFR2	15	n/a	n/a	n/a	5	22	8	7	7
616902	PROB	n/a	LTP342	ltpFR2	15	n/a	n/a	n/a	5	18	9	2	7
618986	PROB	n/a	LTP342	ltpFR2	15	n/a	n/a	n/a	5	15	9	2	4
620617	PROB	n/a	LTP342	ltpFR2	15	n/a	n/a	n/a	5	20	8	4	8
622551	PROB	n/a	LTP342	ltpFR2	15	n/a	n/a	n/a	5	17	7	9	1
624267	PROB	n/a	LTP342	ltpFR2	15	n/a	n/a	n/a	5	19	4	8	7
625765	PROB	n/a	LTP342	ltpFR2	15	n/a	n/a	n/a	5	15	8	1	6
627115	PROB	n/a	LTP342	ltpFR2	15	n/a	n/a	n/a	5	11	2	1	8
628697	PROB	n/a	LTP342	ltpFR2	15	n/a	n/a	n/a	5	17	5	7	5
630064	PROB	n/a	LTP342	ltpFR2	15	n/a	n/a	n/a	5	9	4	2	3
632063	PROB	n/a	LTP342	ltpFR2	15	n/a	n/a	n/a	5	17	7	6	4
634129	PROB	n/a	LTP342	ltpFR2	15	n/a	n/a	n/a	5	10	8	1	1
635312	PROB	n/a	LTP342	ltpFR2	15	n/a	n/a	n/a	5	21	8	6	7
637999	STOP	n/a	LTP342	ltpFR2	15	n/a	n/a	n/a	5	n/a	n/a	n/a	n/a
639443	WORD	wordpools/wasnorm_wordpool_576.txt	LTP342	ltpFR2	15	4	PEDAL	1037	n/a	n/a	0	0	0
641907	WORD	wordpools/wasnorm_wordpool_576.txt	LTP342	ltpFR2	15	4	NECKLACE	940	n/a	n/a	0	0	0
644723	WORD	wordpools/wasnorm_wordpool_576.txt	LTP342	ltpFR2	15	4	VALLEY	1545	n/a	n/a	0	0	0
647539	WORD	wordpools/wasnorm_wordpool_576.txt	LTP342	ltpFR2	15	4	CREVICE	405	n/a	n/a	0	0	0
650321	WORD	wordpools/wasnorm_wordpool_576.txt	LTP342	ltpFR2	15	4	EMPIRE	530	n/a	n/a	0	0	0
652886	WORD	wordpools/wasnorm_wordpool_576.txt	LTP342	ltpFR2	15	4	ASIA	46	n/a	n/a	0	0	0
655668	WORD	wordpools/wasnorm_wordpool_576.txt	LTP342	ltpFR2	15	4	CEILING	265	n/a	n/a	0	0	0
658484	WORD	wordpools/wasnorm_wordpool_576.txt	LTP342	ltpFR2	15	4	HANDBAG	684	n/a	n/a	0	0	0
661150	WORD	wordpools/wasnorm_wordpool_576.txt	LTP342	ltpFR2	15	4	NIGHTGOWN	953	n/a	n/a	0	0	0
663965	WORD	wordpools/wasnorm_wordpool_576.txt	LTP342	ltpFR2	15	4	HEADBAND	696	n/a	n/a	0	0	0
666613	WORD	wordpools/wasnorm_wordpool_576.txt	LTP342	ltpFR2	15	4	DINER	467	n/a	n/a	0	0	0
669346	WORD	wordpools/wasnorm_wordpool_576.txt	LTP342	ltpFR2	15	4	MOP	916	n/a	n/a	0	0	0
672011	WORD	wordpools/wasnorm_wordpool_576.txt	LTP342	ltpFR2	15	4	WORLD	1622	n/a	n/a	0	0	0
674676	WORD	wordpools/wasnorm_wordpool_576.txt	LTP342	ltpFR2	15	4	ATLAS	53	n/a	n/a	0	0	0
677326	WORD	wordpools/wasnorm_wordpool_576.txt	LTP342	ltpFR2	15	4	COFFEE	341	n/a	n/a	0	0	0
679924	WORD	wordpools/wasnorm_wordpool_576.txt	LTP342	ltpFR2	15	4	HAMPER	682	n/a	n/a	0	0	0
682540	WORD	wordpools/wasnorm_wordpool_576.txt	LTP342	ltpFR2	15	4	PUPIL	1143	n/a	n/a	0	0	0
685355	WORD	wordpools/wasnorm_wordpool_576.txt	LTP342	ltpFR2	15	4	LOVER	846	n/a	n/a	0	0	0
688087	WORD	wordpools/wasnorm_wordpool_576.txt	LTP342	ltpFR2	15	4	PEANUT	1032	n/a	n/a	0	0	0
690835	WORD	wordpools/wasnorm_wordpool_576.txt	LTP342	ltpFR2	15	4	MUFFIN	929	n/a	n/a	0	0	0
693269	WORD	wordpools/wasnorm_wordpool_576.txt	LTP342	ltpFR2	15	4	BROOK	177	n/a	n/a	0	0	0
695883	WORD	wordpools/wasnorm_wordpool_576.txt	LTP342	ltpFR2	15	4	BLENDER	136	n/a	n/a	0	0	0
698566	WORD	wordpools/wasnorm_wordpool_576.txt	LTP342	ltpFR2	15	4	STALLION	1369	n/a	n/a	0	0	0
701348	WORD	wordpools/wasnorm_wordpool_576.txt	LTP342	ltpFR2	15	4	BIKE	125	n/a	n/a	0	0	0
702964	START	n/a	LTP342	ltpFR2	15	n/a	n/a	n/a	6	n/a	n/a	n/a	n/a
704156	DISTRACTOR	n/a	LTP342	ltpFR2	15	4	n/a	n/a	n/a	n/a	0	0	0
704180	PROB	n/a	LTP342	ltpFR2	15	n/a	n/a	n/a	6	19	7	4	8
708362	PROB	n/a	LTP342	ltpFR2	15	n/a	n/a	n/a	6	15	5	5	5
709978	PROB	n/a	LTP342	ltpFR2	15	n/a	n/a	n/a	6	14	5	3	6
711427	PROB	n/a	LTP342	ltpFR2	15	n/a	n/a	n/a	6	17	1	9	7
712709	PROB	n/a	LTP342	ltpFR2	15	n/a	n/a	n/a	6	22	6	9	7
714708	PROB	n/a	LTP342	ltpFR2	15	n/a	n/a	n/a	6	13	3	5	5
715891	PROB	n/a	LTP342	ltpFR2	15	n/a	n/a	n/a	6	12	4	5	3
717108	PROB	n/a	LTP342	ltpFR2	15	n/a	n/a	n/a	6	10	4	3	3
718324	PROB	n/a	LTP342	ltpFR2	15	n/a	n/a	n/a	6	16	5	7	4
720589	PROB	n/a	LTP342	ltpFR2	15	n/a	n/a	n/a	6	21	8	6	7
721905	PROB	n/a	LTP342	ltpFR2	15	n/a	n/a	n/a	6	14	4	6	4
723421	PROB	n/a	LTP342	ltpFR2	15	n/a	n/a	n/a	6	8	2	4	1
724604	PROB	n/a	LTP342	ltpFR2	15	n/a	n/a	n/a	6	17	7	2	8
726554	STOP	n/a	LTP342	ltpFR2	15	n/a	n/a	n/a	6	n/a	n/a	n/a	n/a
728902	REC_START	n/a	LTP342	ltpFR2	15	4	n/a	n/a	n/a	n/a	0	0	0
733980	REC_WORD	wordpools/wasnorm_wordpool_576.txt	LTP342	ltpFR2	15	4	CREVICE	405	n/a	n/a	0	0	0
735189	REC_WORD	wordpools/wasnorm_wordpool_576.txt	LTP342	ltpFR2	15	4	VALLEY	1545	n/a	n/a	0	0	0
738459	REC_WORD	wordpools/wasnorm_wordpool_576.txt	LTP342	ltpFR2	15	4	PEDAL	1037	n/a	n/a	0	0	0
739227	REC_WORD	wordpools/wasnorm_wordpool_576.txt	LTP342	ltpFR2	15	4	NECKLACE	940	n/a	n/a	0	0	0
740569	REC_WORD	wordpools/wasnorm_wordpool_576.txt	LTP342	ltpFR2	15	4	HANDBAG	684	n/a	n/a	0	0	0
741464	REC_WORD	wordpools/wasnorm_wordpool_576.txt	LTP342	ltpFR2	15	4	HEADBAND	696	n/a	n/a	0	0	0
742591	REC_WORD	wordpools/wasnorm_wordpool_576.txt	LTP342	ltpFR2	15	4	CEILING	265	n/a	n/a	0	0	0
745516	REC_WORD	wordpools/wasnorm_wordpool_576.txt	LTP342	ltpFR2	15	4	NIGHTGOWN	953	n/a	n/a	0	0	0
747654	REC_WORD	wordpools/wasnorm_wordpool_576.txt	LTP342	ltpFR2	15	4	DINER	467	n/a	n/a	0	0	0
748906	REC_WORD	wordpools/wasnorm_wordpool_576.txt	LTP342	ltpFR2	15	4	COFFEE	341	n/a	n/a	0	0	0
750059	REC_WORD	wordpools/wasnorm_wordpool_576.txt	LTP342	ltpFR2	15	4	PEANUT	1032	n/a	n/a	0	0	0
751050	REC_WORD	wordpools/wasnorm_wordpool_576.txt	LTP342	ltpFR2	15	4	MUFFIN	929	n/a	n/a	0	0	0
752116	REC_WORD	wordpools/wasnorm_wordpool_576.txt	LTP342	ltpFR2	15	4	BROOK	177	n/a	n/a	0	0	0
753031	REC_WORD	wordpools/wasnorm_wordpool_576.txt	LTP342	ltpFR2	15	4	LOVER	846	n/a	n/a	0	0	0
754294	REC_WORD	wordpools/wasnorm_wordpool_576.txt	LTP342	ltpFR2	15	4	PUPIL	1143	n/a	n/a	0	0	0
755358	REC_WORD	wordpools/wasnorm_wordpool_576.txt	LTP342	ltpFR2	15	4	WORLD	1622	n/a	n/a	0	0	0
756357	REC_WORD	wordpools/wasnorm_wordpool_576.txt	LTP342	ltpFR2	15	4	ATLAS	53	n/a	n/a	0	0	0
757424	REC_WORD	wordpools/wasnorm_wordpool_576.txt	LTP342	ltpFR2	15	4	BLENDER	136	n/a	n/a	0	0	0
758255	REC_WORD	wordpools/wasnorm_wordpool_576.txt	LTP342	ltpFR2	15	4	STALLION	1369	n/a	n/a	0	0	0
759481	REC_WORD	wordpools/wasnorm_wordpool_576.txt	LTP342	ltpFR2	15	4	RIDE	-1	n/a	n/a	0	0	0
767884	REC_WORD	wordpools/wasnorm_wordpool_576.txt	LTP342	ltpFR2	15	4	MOP	916	n/a	n/a	0	0	0
772850	REC_WORD	wordpools/wasnorm_wordpool_576.txt	LTP342	ltpFR2	15	4	HAMPER	682	n/a	n/a	0	0	0
819345	WORD	wordpools/wasnorm_wordpool_576.txt	LTP342	ltpFR2	15	5	FIREMAN	569	n/a	n/a	0	0	0
822160	WORD	wordpools/wasnorm_wordpool_576.txt	LTP342	ltpFR2	15	5	MILDEW	893	n/a	n/a	0	0	0
824775	WORD	wordpools/wasnorm_wordpool_576.txt	LTP342	ltpFR2	15	5	KEEPER	769	n/a	n/a	0	0	0
827274	WORD	wordpools/wasnorm_wordpool_576.txt	LTP342	ltpFR2	15	5	PLAZA	1088	n/a	n/a	0	0	0
829855	WORD	wordpools/wasnorm_wordpool_576.txt	LTP342	ltpFR2	15	5	RECEIPT	1173	n/a	n/a	0	0	0
832654	WORD	wordpools/wasnorm_wordpool_576.txt	LTP342	ltpFR2	15	5	PLIERS	1089	n/a	n/a	0	0	0
835354	WORD	wordpools/wasnorm_wordpool_576.txt	LTP342	ltpFR2	15	5	ITEM	746	n/a	n/a	0	0	0
837785	WORD	wordpools/wasnorm_wordpool_576.txt	LTP342	ltpFR2	15	5	CABBAGE	210	n/a	n/a	0	0	0
840468	WORD	wordpools/wasnorm_wordpool_576.txt	LTP342	ltpFR2	15	5	BURGLAR	200	n/a	n/a	0	0	0
843034	WORD	wordpools/wasnorm_wordpool_576.txt	LTP342	ltpFR2	15	5	SUSPECT	1415	n/a	n/a	0	0	0
845748	WORD	wordpools/wasnorm_wordpool_576.txt	LTP342	ltpFR2	15	5	TORTOISE	1486	n/a	n/a	0	0	0
848548	WORD	wordpools/wasnorm_wordpool_576.txt	LTP342	ltpFR2	15	5	DRAGON	492	n/a	n/a	0	0	0
851264	WORD	wordpools/wasnorm_wordpool_576.txt	LTP342	ltpFR2	15	5	MATCH	878	n/a	n/a	0	0	0
853795	WORD	wordpools/wasnorm_wordpool_576.txt	LTP342	ltpFR2	15	5	HONEY	713	n/a	n/a	0	0	0
856428	WORD	wordpools/wasnorm_wordpool_576.txt	LTP342	ltpFR2	15	5	WASP	1593	n/a	n/a	0	0	0
858993	WORD	wordpools/wasnorm_wordpool_576.txt	LTP342	ltpFR2	15	5	MOTOR	922	n/a	n/a	0	0	0
861592	WORD	wordpools/wasnorm_wordpool_576.txt	LTP342	ltpFR2	15	5	FRUIT	610	n/a	n/a	0	0	0
864391	WORD	wordpools/wasnorm_wordpool_576.txt	LTP342	ltpFR2	15	5	PRINCE	1124	n/a	n/a	0	0	0
866839	WORD	wordpools/wasnorm_wordpool_576.txt	LTP342	ltpFR2	15	5	STAR	1373	n/a	n/a	0	0	0
869489	WORD	wordpools/wasnorm_wordpool_576.txt	LTP342	ltpFR2	15	5	SNAIL	1332	n/a	n/a	0	0	0
872054	WORD	wordpools/wasnorm_wordpool_576.txt	LTP342	ltpFR2	15	5	DANDRUFF	439	n/a	n/a	0	0	0
874718	WORD	wordpools/wasnorm_wordpool_576.txt	LTP342	ltpFR2	15	5	COUNTY	389	n/a	n/a	0	0	0
877435	WORD	wordpools/wasnorm_wordpool_576.txt	LTP342	ltpFR2	15	5	TRACTOR	1493	n/a	n/a	0	0	0
880034	WORD	wordpools/wasnorm_wordpool_576.txt	LTP342	ltpFR2	15	5	COOKBOOK	373	n/a	n/a	0	0	0
881649	START	n/a	LTP342	ltpFR2	15	n/a	n/a	n/a	7	n/a	n/a	n/a	n/a
882599	DISTRACTOR	n/a	LTP342	ltpFR2	15	5	n/a	n/a	n/a	n/a	0	0	0
882615	PROB	n/a	LTP342	ltpFR2	15	n/a	n/a	n/a	7	17	5	6	6
885065	PROB	n/a	LTP342	ltpFR2	15	n/a	n/a	n/a	7	18	7	4	7
886846	PROB	n/a	LTP342	ltpFR2	15	n/a	n/a	n/a	7	18	9	6	3
888612	PROB	n/a	LTP342	ltpFR2	15	n/a	n/a	n/a	7	21	7	8	6
890462	PROB	n/a	LTP342	ltpFR2	15	n/a	n/a	n/a	7	11	7	1	3
891727	PROB	n/a	LTP342	ltpFR2	15	n/a	n/a	n/a	7	16	4	9	3
893244	PROB	n/a	LTP342	ltpFR2	15	n/a	n/a	n/a	7	10	5	2	3
895244	PROB	n/a	LTP342	ltpFR2	15	n/a	n/a	n/a	7	23	6	9	8
898225	PROB	n/a	LTP342	ltpFR2	15	n/a	n/a	n/a	7	11	2	1	8
899624	PROB	n/a	LTP342	ltpFR2	15	n/a	n/a	n/a	7	19	2	9	8
901823	PROB	n/a	LTP342	ltpFR2	15	n/a	n/a	n/a	7	15	1	8	6
903407	PROB	n/a	LTP342	ltpFR2	15	n/a	n/a	n/a	7	13	1	8	4
904967	STOP	n/a	LTP342	ltpFR2	15	n/a	n/a	n/a	7	n/a	n/a	n/a	n/a
907439	REC_START	n/a	LTP342	ltpFR2	15	5	n/a	n/a	n/a	n/a	0	0	0
907916	REC_WORD	wordpools/wasnorm_wordpool_576.txt	LTP342	ltpFR2	15	5	TRACTOR	1493	n/a	n/a	0	0	0
908759	REC_WORD	wordpools/wasnorm_wordpool_576.txt	LTP342	ltpFR2	15	5	COOKBOOK	373	n/a	n/a	0	0	0
909768	REC_WORD	wordpools/wasnorm_wordpool_576.txt	LTP342	ltpFR2	15	5	PRINCE	1124	n/a	n/a	0	0	0
910637	REC_WORD	wordpools/wasnorm_wordpool_576.txt	LTP342	ltpFR2	15	5	STAR	1373	n/a	n/a	0	0	0
912127	REC_WORD	wordpools/wasnorm_wordpool_576.txt	LTP342	ltpFR2	15	5	DANDRUFF	439	n/a	n/a	0	0	0
913159	REC_WORD	wordpools/wasnorm_wordpool_576.txt	LTP342	ltpFR2	15	5	COUNTY	389	n/a	n/a	0	0	0
917772	REC_WORD	wordpools/wasnorm_wordpool_576.txt	LTP342	ltpFR2	15	5	BURGLAR	200	n/a	n/a	0	0	0
918559	REC_WORD	wordpools/wasnorm_wordpool_576.txt	LTP342	ltpFR2	15	5	SUSPECT	1415	n/a	n/a	0	0	0
919804	REC_WORD	wordpools/wasnorm_wordpool_576.txt	LTP342	ltpFR2	15	5	TORTOISE	1486	n/a	n/a	0	0	0
921089	REC_WORD	wordpools/wasnorm_wordpool_576.txt	LTP342	ltpFR2	15	5	DRAGON	492	n/a	n/a	0	0	0
922129	REC_WORD	wordpools/wasnorm_wordpool_576.txt	LTP342	ltpFR2	15	5	MATCH	878	n/a	n/a	0	0	0
923145	REC_WORD	wordpools/wasnorm_wordpool_576.txt	LTP342	ltpFR2	15	5	HONEY	713	n/a	n/a	0	0	0
924148	REC_WORD	wordpools/wasnorm_wordpool_576.txt	LTP342	ltpFR2	15	5	WASP	1593	n/a	n/a	0	0	0
925096	REC_WORD	wordpools/wasnorm_wordpool_576.txt	LTP342	ltpFR2	15	5	FRUIT	610	n/a	n/a	0	0	0
926304	REC_WORD	wordpools/wasnorm_wordpool_576.txt	LTP342	ltpFR2	15	5	MOTOR	922	n/a	n/a	0	0	0
927383	REC_WORD	wordpools/wasnorm_wordpool_576.txt	LTP342	ltpFR2	15	5	FIREMAN	569	n/a	n/a	0	0	0
932869	REC_WORD	wordpools/wasnorm_wordpool_576.txt	LTP342	ltpFR2	15	5	MILDEW	893	n/a	n/a	0	0	0
934116	REC_WORD	wordpools/wasnorm_wordpool_576.txt	LTP342	ltpFR2	15	5	KEEPER	769	n/a	n/a	0	0	0
935421	REC_WORD	wordpools/wasnorm_wordpool_576.txt	LTP342	ltpFR2	15	5	PLAZA	1088	n/a	n/a	0	0	0
936437	REC_WORD	wordpools/wasnorm_wordpool_576.txt	LTP342	ltpFR2	15	5	RECEIPT	1173	n/a	n/a	0	0	0
937613	REC_WORD	wordpools/wasnorm_wordpool_576.txt	LTP342	ltpFR2	15	5	PLIERS	1089	n/a	n/a	0	0	0
938735	REC_WORD	wordpools/wasnorm_wordpool_576.txt	LTP342	ltpFR2	15	5	ITEM	746	n/a	n/a	0	0	0
939995	REC_WORD	wordpools/wasnorm_wordpool_576.txt	LTP342	ltpFR2	15	5	CABBAGE	210	n/a	n/a	0	0	0
997879	DISTRACTOR	n/a	LTP342	ltpFR2	15	6	n/a	n/a	n/a	n/a	0	0	0
997879	START	n/a	LTP342	ltpFR2	15	n/a	n/a	n/a	8	n/a	n/a	n/a	n/a
997896	PROB	n/a	LTP342	ltpFR2	15	n/a	n/a	n/a	8	10	6	2	2
999612	PROB	n/a	LTP342	ltpFR2	15	n/a	n/a	n/a	8	16	7	4	5
1001579	PROB	n/a	LTP342	ltpFR2	15	n/a	n/a	n/a	8	14	6	7	1
1003161	PROB	n/a	LTP342	ltpFR2	15	n/a	n/a	n/a	8	18	8	2	8
1004977	PROB	n/a	LTP342	ltpFR2	15	n/a	n/a	n/a	8	16	5	9	2
1006427	PROB	n/a	LTP342	ltpFR2	15	n/a	n/a	n/a	8	11	1	9	1
1007409	PROB	n/a	LTP342	ltpFR2	15	n/a	n/a	n/a	8	12	2	1	9
1008392	PROB	n/a	LTP342	ltpFR2	15	n/a	n/a	n/a	8	10	7	1	2
1011241	PROB	n/a	LTP342	ltpFR2	15	n/a	n/a	n/a	8	14	4	3	7
1013855	PROB	n/a	LTP342	ltpFR2	15	n/a	n/a	n/a	8	17	8	7	2
1016605	PROB	n/a	LTP342	ltpFR2	15	n/a	n/a	n/a	8	10	4	1	5
1018088	PROB	n/a	LTP342	ltpFR2	15	n/a	n/a	n/a	8	14	5	3	6
1021879	STOP	n/a	LTP342	ltpFR2	15	n/a	n/a	n/a	8	n/a	n/a	n/a	n/a
1022901	WORD	wordpools/wasnorm_wordpool_576.txt	LTP342	ltpFR2	15	6	RABBIT	1152	n/a	n/a	0	0	0
1025385	WORD	wordpools/wasnorm_wordpool_576.txt	LTP342	ltpFR2	15	6	CARROT	249	n/a	n/a	0	0	0
1028083	WORD	wordpools/wasnorm_wordpool_576.txt	LTP342	ltpFR2	15	6	SUITCASE	1403	n/a	n/a	0	0	0
1030614	WORD	wordpools/wasnorm_wordpool_576.txt	LTP342	ltpFR2	15	6	GRILL	661	n/a	n/a	0	0	0
1033198	WORD	wordpools/wasnorm_wordpool_576.txt	LTP342	ltpFR2	15	6	NOTEBOOK	959	n/a	n/a	0	0	0
1035679	WORD	wordpools/wasnorm_wordpool_576.txt	LTP342	ltpFR2	15	6	STAPLE	1371	n/a	n/a	0	0	0
1038229	WORD	wordpools/wasnorm_wordpool_576.txt	LTP342	ltpFR2	15	6	DRUG	501	n/a	n/a	0	0	0
1040876	WORD	wordpools/wasnorm_wordpool_576.txt	LTP342	ltpFR2	15	6	BALLOON	75	n/a	n/a	0	0	0
1043360	WORD	wordpools/wasnorm_wordpool_576.txt	LTP342	ltpFR2	15	6	VALVE	1546	n/a	n/a	0	0	0
1045858	WORD	wordpools/wasnorm_wordpool_576.txt	LTP342	ltpFR2	15	6	BEAVER	109	n/a	n/a	0	0	0
1048507	WORD	wordpools/wasnorm_wordpool_576.txt	LTP342	ltpFR2	15	6	PROTON	1132	n/a	n/a	0	0	0
1051139	WORD	wordpools/wasnorm_wordpool_576.txt	LTP342	ltpFR2	15	6	TAXI	1438	n/a	n/a	0	0	0
1053721	WORD	wordpools/wasnorm_wordpool_576.txt	LTP342	ltpFR2	15	6	TYPIST	1532	n/a	n/a	0	0	0
1056171	WORD	wordpools/wasnorm_wordpool_576.txt	LTP342	ltpFR2	15	6	INFANT	737	n/a	n/a	0	0	0
1058785	WORD	wordpools/wasnorm_wordpool_576.txt	LTP342	ltpFR2	15	6	BUTCHER	203	n/a	n/a	0	0	0
1061285	WORD	wordpools/wasnorm_wordpool_576.txt	LTP342	ltpFR2	15	6	CUPBOARD	425	n/a	n/a	0	0	0
1063816	WORD	wordpools/wasnorm_wordpool_576.txt	LTP342	ltpFR2	15	6	KNIFE	785	n/a	n/a	0	0	0
1066266	WORD	wordpools/wasnorm_wordpool_576.txt	LTP342	ltpFR2	15	6	JELLY	755	n/a	n/a	0	0	0
1068847	WORD	wordpools/wasnorm_wordpool_576.txt	LTP342	ltpFR2	15	6	SCULPTURE	1258	n/a	n/a	0	0	0
1071629	WORD	wordpools/wasnorm_wordpool_576.txt	LTP342	ltpFR2	15	6	SODA	1341	n/a	n/a	0	0	0
1074312	WORD	wordpools/wasnorm_wordpool_576.txt	LTP342	ltpFR2	15	6	TRIBE	1505	n/a	n/a	0	0	0
1077044	WORD	wordpools/wasnorm_wordpool_576.txt	LTP342	ltpFR2	15	6	BISON	131	n/a	n/a	0	0	0
1079560	WORD	wordpools/wasnorm_wordpool_576.txt	LTP342	ltpFR2	15	6	STREAM	1392	n/a	n/a	0	0	0
1082042	WORD	wordpools/wasnorm_wordpool_576.txt	LTP342	ltpFR2	15	6	MARINE	869	n/a	n/a	0	0	0
1083657	START	n/a	LTP342	ltpFR2	15	n/a	n/a	n/a	9	n/a	n/a	n/a	n/a
1084496	DISTRACTOR	n/a	LTP342	ltpFR2	15	6	n/a	n/a	n/a	n/a	0	0	0
1084508	PROB	n/a	LTP342	ltpFR2	15	n/a	n/a	n/a	9	10	4	4	2
1087190	PROB	n/a	LTP342	ltpFR2	15	n/a	n/a	n/a	9	16	4	9	3
1088605	PROB	n/a	LTP342	ltpFR2	15	n/a	n/a	n/a	9	19	9	3	7
1090238	PROB	n/a	LTP342	ltpFR2	15	n/a	n/a	n/a	9	16	7	5	4
1092404	PROB	n/a	LTP342	ltpFR2	15	n/a	n/a	n/a	9	12	8	3	1
1093619	PROB	n/a	LTP342	ltpFR2	15	n/a	n/a	n/a	9	17	6	2	9
1095186	PROB	n/a	LTP342	ltpFR2	15	n/a	n/a	n/a	9	15	4	8	3
1096618	PROB	n/a	LTP342	ltpFR2	15	n/a	n/a	n/a	9	18	3	9	6
1098750	PROB	n/a	LTP342	ltpFR2	15	n/a	n/a	n/a	9	18	3	7	8
1100167	PROB	n/a	LTP342	ltpFR2	15	n/a	n/a	n/a	9	8	1	3	4
1101317	PROB	n/a	LTP342	ltpFR2	15	n/a	n/a	n/a	9	19	1	9	9
1102765	PROB	n/a	LTP342	ltpFR2	15	n/a	n/a	n/a	9	18	6	6	6
1104066	PROB	n/a	LTP342	ltpFR2	15	n/a	n/a	n/a	9	19	6	5	8
1107657	STOP	n/a	LTP342	ltpFR2	15	n/a	n/a	n/a	9	n/a	n/a	n/a	n/a
1109597	REC_START	n/a	LTP342	ltpFR2	15	6	n/a	n/a	n/a	n/a	0	0	0
1111878	REC_WORD	wordpools/wasnorm_wordpool_576.txt	LTP342	ltpFR2	15	6	RABBIT	1152	n/a	n/a	0	0	0
1112679	REC_WORD	wordpools/wasnorm_wordpool_576.txt	LTP342	ltpFR2	15	6	CARROT	249	n/a	n/a	0	0	0
1113300	REC_WORD	wordpools/wasnorm_wordpool_576.txt	LTP342	ltpFR2	15	6	SUITCASE	1403	n/a	n/a	0	0	0
1114493	REC_WORD	wordpools/wasnorm_wordpool_576.txt	LTP342	ltpFR2	15	6	DRUG	501	n/a	n/a	0	0	0
1115119	REC_WORD	wordpools/wasnorm_wordpool_576.txt	LTP342	ltpFR2	15	6	BALLOON	75	n/a	n/a	0	0	0
1116062	REC_WORD	wordpools/wasnorm_wordpool_576.txt	LTP342	ltpFR2	15	6	GRILL	661	n/a	n/a	0	0	0
1117006	REC_WORD	wordpools/wasnorm_wordpool_576.txt	LTP342	ltpFR2	15	6	JOURNAL	760	n/a	n/a	0	0	0
1117660	REC_WORD	wordpools/wasnorm_wordpool_576.txt	LTP342	ltpFR2	15	6	STAPLE	1371	n/a	n/a	0	0	0
1120532	REC_WORD	wordpools/wasnorm_wordpool_576.txt	LTP342	ltpFR2	15	6	BEAVER	109	n/a	n/a	0	0	0
1121416	REC_WORD	wordpools/wasnorm_wordpool_576.txt	LTP342	ltpFR2	15	6	BISON	131	n/a	n/a	0	0	0
1123387	REC_WORD	wordpools/wasnorm_wordpool_576.txt	LTP342	ltpFR2	15	6	TRIBE	1505	n/a	n/a	0	0	0
1124781	REC_WORD	wordpools/wasnorm_wordpool_576.txt	LTP342	ltpFR2	15	6	BUTCHER	203	n/a	n/a	0	0	0
1125499	REC_WORD	wordpools/wasnorm_wordpool_576.txt	LTP342	ltpFR2	15	6	KNIFE	785	n/a	n/a	0	0	0
1126355	REC_WORD	wordpools/wasnorm_wordpool_576.txt	LTP342	ltpFR2	15	6	JELLY	755	n/a	n/a	0	0	0
1127162	REC_WORD	wordpools/wasnorm_wordpool_576.txt	LTP342	ltpFR2	15	6	SCULPTURE	1258	n/a	n/a	0	0	0
1128088	REC_WORD	wordpools/wasnorm_wordpool_576.txt	LTP342	ltpFR2	15	6	SODA	1341	n/a	n/a	0	0	0
1132481	REC_WORD	wordpools/wasnorm_wordpool_576.txt	LTP342	ltpFR2	15	6	CUPBOARD	425	n/a	n/a	0	0	0
1137495	REC_WORD	wordpools/wasnorm_wordpool_576.txt	LTP342	ltpFR2	15	6	INFANT	737	n/a	n/a	0	0	0
1138563	REC_WORD	wordpools/wasnorm_wordpool_576.txt	LTP342	ltpFR2	15	6	TYPIST	1532	n/a	n/a	0	0	0
1140431	REC_WORD	wordpools/wasnorm_wordpool_576.txt	LTP342	ltpFR2	15	6	TAXI	1438	n/a	n/a	0	0	0
1200039	WORD	wordpools/wasnorm_wordpool_576.txt	LTP342	ltpFR2	15	7	ARM	38	n/a	n/a	0	0	0
1202504	WORD	wordpools/wasnorm_wordpool_576.txt	LTP342	ltpFR2	15	7	DUSTPAN	509	n/a	n/a	0	0	0
1205236	WORD	wordpools/wasnorm_wordpool_576.txt	LTP342	ltpFR2	15	7	POWDER	1117	n/a	n/a	0	0	0
1207801	WORD	wordpools/wasnorm_wordpool_576.txt	LTP342	ltpFR2	15	7	BINDER	127	n/a	n/a	0	0	0
1210367	WORD	wordpools/wasnorm_wordpool_576.txt	LTP342	ltpFR2	15	7	BUREAU	199	n/a	n/a	0	0	0
1212983	WORD	wordpools/wasnorm_wordpool_576.txt	LTP342	ltpFR2	15	7	DRESSER	496	n/a	n/a	0	0	0
1215548	WORD	wordpools/wasnorm_wordpool_576.txt	LTP342	ltpFR2	15	7	SHRUB	1299	n/a	n/a	0	0	0
1218297	WORD	wordpools/wasnorm_wordpool_576.txt	LTP342	ltpFR2	15	7	MUMMY	932	n/a	n/a	0	0	0
1221112	WORD	wordpools/wasnorm_wordpool_576.txt	LTP342	ltpFR2	15	7	FLASHLIGHT	575	n/a	n/a	0	0	0
1223595	WORD	wordpools/wasnorm_wordpool_576.txt	LTP342	ltpFR2	15	7	BADGE	68	n/a	n/a	0	0	0
1226393	WORD	wordpools/wasnorm_wordpool_576.txt	LTP342	ltpFR2	15	7	COTTAGE	384	n/a	n/a	0	0	0
1229109	WORD	wordpools/wasnorm_wordpool_576.txt	LTP342	ltpFR2	15	7	FILM	565	n/a	n/a	0	0	0
1231723	WORD	wordpools/wasnorm_wordpool_576.txt	LTP342	ltpFR2	15	7	ACTRESS	6	n/a	n/a	0	0	0
1234306	WORD	wordpools/wasnorm_wordpool_576.txt	LTP342	ltpFR2	15	7	TROMBONE	1508	n/a	n/a	0	0	0
1236738	WORD	wordpools/wasnorm_wordpool_576.txt	LTP342	ltpFR2	15	7	PAIL	1002	n/a	n/a	0	0	0
1239221	WORD	wordpools/wasnorm_wordpool_576.txt	LTP342	ltpFR2	15	7	MONEY	908	n/a	n/a	0	0	0
1241752	WORD	wordpools/wasnorm_wordpool_576.txt	LTP342	ltpFR2	15	7	ANKLE	24	n/a	n/a	0	0	0
1244269	WORD	wordpools/wasnorm_wordpool_576.txt	LTP342	ltpFR2	15	7	LASER	801	n/a	n/a	0	0	0
1247067	WORD	wordpools/wasnorm_wordpool_576.txt	LTP342	ltpFR2	15	7	AGENT	10	n/a	n/a	0	0	0
1249533	WORD	wordpools/wasnorm_wordpool_576.txt	LTP342	ltpFR2	15	7	ROD	1203	n/a	n/a	0	0	0
1252298	WORD	wordpools/wasnorm_wordpool_576.txt	LTP342	ltpFR2	15	7	SWIMMER	1420	n/a	n/a	0	0	0
1254964	WORD	wordpools/wasnorm_wordpool_576.txt	LTP342	ltpFR2	15	7	FLIPPER	580	n/a	n/a	0	0	0
1257628	WORD	wordpools/wasnorm_wordpool_576.txt	LTP342	ltpFR2	15	7	LABEL	790	n/a	n/a	0	0	0
1260078	WORD	wordpools/wasnorm_wordpool_576.txt	LTP342	ltpFR2	15	7	STATUE	1374	n/a	n/a	0	0	0
1261693	START	n/a	LTP342	ltpFR2	15	n/a	n/a	n/a	10	n/a	n/a	n/a	n/a
1262805	DISTRACTOR	n/a	LTP342	ltpFR2	15	7	n/a	n/a	n/a	n/a	0	0	0
1262809	PROB	n/a	LTP342	ltpFR2	15	n/a	n/a	n/a	10	21	6	7	9
1264992	PROB	n/a	LTP342	ltpFR2	15	n/a	n/a	n/a	10	18	6	2	8
1266941	PROB	n/a	LTP342	ltpFR2	15	n/a	n/a	n/a	10	23	9	8	6
1270990	PROB	n/a	LTP342	ltpFR2	15	n/a	n/a	n/a	10	12	5	5	2
1272106	PROB	n/a	LTP342	ltpFR2	15	n/a	n/a	n/a	10	12	8	2	2
1273255	PROB	n/a	LTP342	ltpFR2	15	n/a	n/a	n/a	10	17	7	1	9
1274837	PROB	n/a	LTP342	ltpFR2	15	n/a	n/a	n/a	10	12	1	8	3
1276287	PROB	n/a	LTP342	ltpFR2	15	n/a	n/a	n/a	10	15	5	1	9
1277487	PROB	n/a	LTP342	ltpFR2	15	n/a	n/a	n/a	10	8	5	1	2
1278685	PROB	n/a	LTP342	ltpFR2	15	n/a	n/a	n/a	10	19	7	9	3
1280285	PROB	n/a	LTP342	ltpFR2	15	n/a	n/a	n/a	10	18	6	5	7
1281552	PROB	n/a	LTP342	ltpFR2	15	n/a	n/a	n/a	10	10	1	7	2
1282783	PROB	n/a	LTP342	ltpFR2	15	n/a	n/a	n/a	10	16	2	7	7
1284618	STOP	n/a	LTP342	ltpFR2	15	n/a	n/a	n/a	10	n/a	n/a	n/a	n/a
1287549	REC_START	n/a	LTP342	ltpFR2	15	7	n/a	n/a	n/a	n/a	0	0	0
1293148	REC_WORD	wordpools/wasnorm_wordpool_576.txt	LTP342	ltpFR2	15	7	ARM	38	n/a	n/a	0	0	0
1293910	REC_WORD	wordpools/wasnorm_wordpool_576.txt	LTP342	ltpFR2	15	7	DUSTPAN	509	n/a	n/a	0	0	0
1294969	REC_WORD	wordpools/wasnorm_wordpool_576.txt	LTP342	ltpFR2	15	7	POWDER	1117	n/a	n/a	0	0	0
1295963	REC_WORD	wordpools/wasnorm_wordpool_576.txt	LTP342	ltpFR2	15	7	BINDER	127	n/a	n/a	0	0	0
1302389	REC_WORD	wordpools/wasnorm_wordpool_576.txt	LTP342	ltpFR2	15	7	BUREAU	199	n/a	n/a	0	0	0
1303308	REC_WORD	wordpools/wasnorm_wordpool_576.txt	LTP342	ltpFR2	15	7	DRESSER	496	n/a	n/a	0	0	0
1307375	REC_WORD	wordpools/wasnorm_wordpool_576.txt	LTP342	ltpFR2	15	7	SHRUB	1299	n/a	n/a	0	0	0
1308167	REC_WORD	wordpools/wasnorm_wordpool_576.txt	LTP342	ltpFR2	15	7	MUMMY	932	n/a	n/a	0	0	0
1308770	REC_WORD	wordpools/wasnorm_wordpool_576.txt	LTP342	ltpFR2	15	7	FLASHLIGHT	575	n/a	n/a	0	0	0
1310429	REC_WORD	wordpools/wasnorm_wordpool_576.txt	LTP342	ltpFR2	15	7	COTTAGE	384	n/a	n/a	0	0	0
1311333	REC_WORD	wordpools/wasnorm_wordpool_576.txt	LTP342	ltpFR2	15	7	FILM	565	n/a	n/a	0	0	0
1315899	REC_WORD	wordpools/wasnorm_wordpool_576.txt	LTP342	ltpFR2	15	7	ACTRESS	6	n/a	n/a	0	0	0
1317074	REC_WORD	wordpools/wasnorm_wordpool_576.txt	LTP342	ltpFR2	15	7	TROMBONE	1508	n/a	n/a	0	0	0
1318296	REC_WORD	wordpools/wasnorm_wordpool_576.txt	LTP342	ltpFR2	15	7	PAIL	1002	n/a	n/a	0	0	0
1323694	REC_WORD	wordpools/wasnorm_wordpool_576.txt	LTP342	ltpFR2	15	7	AGENT	10	n/a	n/a	0	0	0
1326045	REC_WORD	wordpools/wasnorm_wordpool_576.txt	LTP342	ltpFR2	15	7	ANKLE	24	n/a	n/a	0	0	0
1328728	REC_WORD	wordpools/wasnorm_wordpool_576.txt	LTP342	ltpFR2	15	7	LASER	801	n/a	n/a	0	0	0
1330574	REC_WORD	wordpools/wasnorm_wordpool_576.txt	LTP342	ltpFR2	15	7	ROAD	1196	n/a	n/a	0	0	0
1331694	REC_WORD	wordpools/wasnorm_wordpool_576.txt	LTP342	ltpFR2	15	7	SWIMMER	1420	n/a	n/a	0	0	0
1332594	REC_WORD	wordpools/wasnorm_wordpool_576.txt	LTP342	ltpFR2	15	7	FLIPPER	580	n/a	n/a	0	0	0
1338173	REC_WORD	wordpools/wasnorm_wordpool_576.txt	LTP342	ltpFR2	15	7	BADGE	68	n/a	n/a	0	0	0
1378008	DISTRACTOR	n/a	LTP342	ltpFR2	15	8	n/a	n/a	n/a	n/a	0	0	0
1378008	START	n/a	LTP342	ltpFR2	15	n/a	n/a	n/a	11	n/a	n/a	n/a	n/a
1378025	PROB	n/a	LTP342	ltpFR2	15	n/a	n/a	n/a	11	14	9	1	4
1379507	PROB	n/a	LTP342	ltpFR2	15	n/a	n/a	n/a	11	14	6	2	6
1381573	PROB	n/a	LTP342	ltpFR2	15	n/a	n/a	n/a	11	12	7	3	2
1383422	PROB	n/a	LTP342	ltpFR2	15	n/a	n/a	n/a	11	15	4	4	7
1385038	PROB	n/a	LTP342	ltpFR2	15	n/a	n/a	n/a	11	15	3	5	7
1386304	PROB	n/a	LTP342	ltpFR2	15	n/a	n/a	n/a	11	9	1	1	7
1387719	PROB	n/a	LTP342	ltpFR2	15	n/a	n/a	n/a	11	23	9	6	8
1389453	PROB	n/a	LTP342	ltpFR2	15	n/a	n/a	n/a	11	12	3	6	3
1391285	PROB	n/a	LTP342	ltpFR2	15	n/a	n/a	n/a	11	13	6	6	1
1392900	PROB	n/a	LTP342	ltpFR2	15	n/a	n/a	n/a	11	16	7	4	5
1394484	PROB	n/a	LTP342	ltpFR2	15	n/a	n/a	n/a	11	21	9	6	6
1396848	PROB	n/a	LTP342	ltpFR2	15	n/a	n/a	n/a	11	17	3	7	7
1398199	PROB	n/a	LTP342	ltpFR2	15	n/a	n/a	n/a	11	13	1	7	5
1400582	STOP	n/a	LTP342	ltpFR2	15	n/a	n/a	n/a	11	n/a	n/a	n/a	n/a
1402945	WORD	wordpools/wasnorm_wordpool_576.txt	LTP342	ltpFR2	15	8	CHAUFFEUR	283	n/a	n/a	0	0	0
1405778	WORD	wordpools/wasnorm_wordpool_576.txt	LTP342	ltpFR2	15	8	PATROL	1027	n/a	n/a	0	0	0
1408494	WORD	wordpools/wasnorm_wordpool_576.txt	LTP342	ltpFR2	15	8	PEPPER	1047	n/a	n/a	0	0	0
1410976	WORD	wordpools/wasnorm_wordpool_576.txt	LTP342	ltpFR2	15	8	BASEMENT	94	n/a	n/a	0	0	0
1413458	WORD	wordpools/wasnorm_wordpool_576.txt	LTP342	ltpFR2	15	8	HATCHET	691	n/a	n/a	0	0	0
1415974	WORD	wordpools/wasnorm_wordpool_576.txt	LTP342	ltpFR2	15	8	STICKER	1382	n/a	n/a	0	0	0
1418788	WORD	wordpools/wasnorm_wordpool_576.txt	LTP342	ltpFR2	15	8	GAZELLE	628	n/a	n/a	0	0	0
1421588	WORD	wordpools/wasnorm_wordpool_576.txt	LTP342	ltpFR2	15	8	SHOVEL	1295	n/a	n/a	0	0	0
1424403	WORD	wordpools/wasnorm_wordpool_576.txt	LTP342	ltpFR2	15	8	PLAYGROUND	1087	n/a	n/a	0	0	0
1426935	WORD	wordpools/wasnorm_wordpool_576.txt	LTP342	ltpFR2	15	8	GREASE	660	n/a	n/a	0	0	0
1429568	WORD	wordpools/wasnorm_wordpool_576.txt	LTP342	ltpFR2	15	8	PISTON	1076	n/a	n/a	0	0	0
1432083	WORD	wordpools/wasnorm_wordpool_576.txt	LTP342	ltpFR2	15	8	VENUS	1557	n/a	n/a	0	0	0
1434532	WORD	wordpools/wasnorm_wordpool_576.txt	LTP342	ltpFR2	15	8	OX	994	n/a	n/a	0	0	0
1437331	WORD	wordpools/wasnorm_wordpool_576.txt	LTP342	ltpFR2	15	8	BRANDY	169	n/a	n/a	0	0	0
1439963	WORD	wordpools/wasnorm_wordpool_576.txt	LTP342	ltpFR2	15	8	POSTAGE	1113	n/a	n/a	0	0	0
1442395	WORD	wordpools/wasnorm_wordpool_576.txt	LTP342	ltpFR2	15	8	SKILLET	1317	n/a	n/a	0	0	0
1445044	WORD	wordpools/wasnorm_wordpool_576.txt	LTP342	ltpFR2	15	8	BRANCH	168	n/a	n/a	0	0	0
1447510	WORD	wordpools/wasnorm_wordpool_576.txt	LTP342	ltpFR2	15	8	SOFTBALL	1343	n/a	n/a	0	0	0
1449992	WORD	wordpools/wasnorm_wordpool_576.txt	LTP342	ltpFR2	15	8	POPCORN	1104	n/a	n/a	0	0	0
1452806	WORD	wordpools/wasnorm_wordpool_576.txt	LTP342	ltpFR2	15	8	SUMMIT	1405	n/a	n/a	0	0	0
1455373	WORD	wordpools/wasnorm_wordpool_576.txt	LTP342	ltpFR2	15	8	BOUQUET	157	n/a	n/a	0	0	0
1457954	WORD	wordpools/wasnorm_wordpool_576.txt	LTP342	ltpFR2	15	8	TWIG	1527	n/a	n/a	0	0	0
1460437	WORD	wordpools/wasnorm_wordpool_576.txt	LTP342	ltpFR2	15	8	FOREST	593	n/a	n/a	0	0	0
1463003	WORD	wordpools/wasnorm_wordpool_576.txt	LTP342	ltpFR2	15	8	YOLK	1633	n/a	n/a	0	0	0
1464618	START	n/a	LTP342	ltpFR2	15	n/a	n/a	n/a	12	n/a	n/a	n/a	n/a
1465551	DISTRACTOR	n/a	LTP342	ltpFR2	15	8	n/a	n/a	n/a	n/a	0	0	0
1465568	PROB	n/a	LTP342	ltpFR2	15	n/a	n/a	n/a	12	11	5	4	2
1467833	PROB	n/a	LTP342	ltpFR2	15	n/a	n/a	n/a	12	16	2	9	5
1469166	PROB	n/a	LTP342	ltpFR2	15	n/a	n/a	n/a	12	5	1	3	1
1470083	PROB	n/a	LTP342	ltpFR2	15	n/a	n/a	n/a	12	18	5	6	7
1471415	PROB	n/a	LTP342	ltpFR2	15	n/a	n/a	n/a	12	15	6	7	2
1473065	PROB	n/a	LTP342	ltpFR2	15	n/a	n/a	n/a	12	15	7	1	7
1474347	PROB	n/a	LTP342	ltpFR2	15	n/a	n/a	n/a	12	13	5	1	7
1476196	PROB	n/a	LTP342	ltpFR2	15	n/a	n/a	n/a	12	18	4	8	6
1477628	PROB	n/a	LTP342	ltpFR2	15	n/a	n/a	n/a	12	12	3	5	4
1479362	PROB	n/a	LTP342	ltpFR2	15	n/a	n/a	n/a	12	10	7	2	1
1480561	PROB	n/a	LTP342	ltpFR2	15	n/a	n/a	n/a	12	16	5	3	8
1481910	PROB	n/a	LTP342	ltpFR2	15	n/a	n/a	n/a	12	7	3	1	3
1483310	PROB	n/a	LTP342	ltpFR2	15	n/a	n/a	n/a	12	13	4	1	8
1484808	PROB	n/a	LTP342	ltpFR2	15	n/a	n/a	n/a	12	20	9	2	9
1486907	PROB	n/a	LTP342	ltpFR2	15	n/a	n/a	n/a	12	13	2	5	6
1488297	STOP	n/a	LTP342	ltpFR2	15	n/a	n/a	n/a	12	n/a	n/a	n/a	n/a
1490374	REC_START	n/a	LTP342	ltpFR2	15	8	n/a	n/a	n/a	n/a	0	0	0
1497129	REC_WORD	wordpools/wasnorm_wordpool_576.txt	LTP342	ltpFR2	15	8	CHAUFFEUR	283	n/a	n/a	0	0	0
1498055	REC_WORD	wordpools/wasnorm_wordpool_576.txt	LTP342	ltpFR2	15	8	PATROL	1027	n/a	n/a	0	0	0
1498874	REC_WORD	wordpools/wasnorm_wordpool_576.txt	LTP342	ltpFR2	15	8	HATCHET	691	n/a	n/a	0	0	0
1499786	REC_WORD	wordpools/wasnorm_wordpool_576.txt	LTP342	ltpFR2	15	8	BASEMENT	94	n/a	n/a	0	0	0
1501102	REC_WORD	wordpools/wasnorm_wordpool_576.txt	LTP342	ltpFR2	15	8	STICKER	1382	n/a	n/a	0	0	0
1504130	REC_WORD	wordpools/wasnorm_wordpool_576.txt	LTP342	ltpFR2	15	8	GAZELLE	628	n/a	n/a	0	0	0
1505082	REC_WORD	wordpools/wasnorm_wordpool_576.txt	LTP342	ltpFR2	15	8	SHOVEL	1295	n/a	n/a	0	0	0
1506024	REC_WORD	wordpools/wasnorm_wordpool_576.txt	LTP342	ltpFR2	15	8	PLAYGROUND	1087	n/a	n/a	0	0	0
1507144	REC_WORD	wordpools/wasnorm_wordpool_576.txt	LTP342	ltpFR2	15	8	VENUS	1557	n/a	n/a	0	0	0
1508065	REC_WORD	wordpools/wasnorm_wordpool_576.txt	LTP342	ltpFR2	15	8	OX	994	n/a	n/a	0	0	0
1508939	REC_WORD	wordpools/wasnorm_wordpool_576.txt	LTP342	ltpFR2	15	8	BRANDY	169	n/a	n/a	0	0	0
1566904	REST_REWET	n/a	LTP342	ltpFR2	15	8	n/a	n/a	n/a	n/a	0	0	0
1739726	DISTRACTOR	n/a	LTP342	ltpFR2	15	9	n/a	n/a	n/a	n/a	0	0	0
1739726	START	n/a	LTP342	ltpFR2	15	n/a	n/a	n/a	13	n/a	n/a	n/a	n/a
1739743	PROB	n/a	LTP342	ltpFR2	15	n/a	n/a	n/a	13	199	8	4	7
1741426	PROB	n/a	LTP342	ltpFR2	15	n/a	n/a	n/a	13	12	9	2	1
1742858	PROB	n/a	LTP342	ltpFR2	15	n/a	n/a	n/a	13	13	3	5	5
1744108	PROB	n/a	LTP342	ltpFR2	15	n/a	n/a	n/a	13	9	3	2	4
1746939	PROB	n/a	LTP342	ltpFR2	15	n/a	n/a	n/a	13	10	1	3	6
1748256	PROB	n/a	LTP342	ltpFR2	15	n/a	n/a	n/a	13	18	7	5	6
1750222	PROB	n/a	LTP342	ltpFR2	15	n/a	n/a	n/a	13	9	1	5	3
1753137	PROB	n/a	LTP342	ltpFR2	15	n/a	n/a	n/a	13	19	9	6	4
1754802	PROB	n/a	LTP342	ltpFR2	15	n/a	n/a	n/a	13	11	7	1	3
1755969	PROB	n/a	LTP342	ltpFR2	15	n/a	n/a	n/a	13	12	6	3	3
1757386	PROB	n/a	LTP342	ltpFR2	15	n/a	n/a	n/a	13	14	2	5	7
1759001	PROB	n/a	LTP342	ltpFR2	15	n/a	n/a	n/a	13	16	8	5	3
1760484	PROB	n/a	LTP342	ltpFR2	15	n/a	n/a	n/a	13	21	8	5	8
1762856	STOP	n/a	LTP342	ltpFR2	15	n/a	n/a	n/a	13	n/a	n/a	n/a	n/a
1764798	WORD	wordpools/wasnorm_wordpool_576.txt	LTP342	ltpFR2	15	9	ONION	977	n/a	n/a	0	0	0
1767298	WORD	wordpools/wasnorm_wordpool_576.txt	LTP342	ltpFR2	15	9	ICING	732	n/a	n/a	0	0	0
1769779	WORD	wordpools/wasnorm_wordpool_576.txt	LTP342	ltpFR2	15	9	CATTLE	261	n/a	n/a	0	0	0
1772512	WORD	wordpools/wasnorm_wordpool_576.txt	LTP342	ltpFR2	15	9	CURTAIN	427	n/a	n/a	0	0	0
1775344	WORD	wordpools/wasnorm_wordpool_576.txt	LTP342	ltpFR2	15	9	SLOPE	1328	n/a	n/a	0	0	0
1778010	WORD	wordpools/wasnorm_wordpool_576.txt	LTP342	ltpFR2	15	9	BANKER	84	n/a	n/a	0	0	0
1780707	WORD	wordpools/wasnorm_wordpool_576.txt	LTP342	ltpFR2	15	9	FRIAR	605	n/a	n/a	0	0	0
1783390	WORD	wordpools/wasnorm_wordpool_576.txt	LTP342	ltpFR2	15	9	HIKER	708	n/a	n/a	0	0	0
1786206	WORD	wordpools/wasnorm_wordpool_576.txt	LTP342	ltpFR2	15	9	TRUCK	1512	n/a	n/a	0	0	0
1788654	WORD	wordpools/wasnorm_wordpool_576.txt	LTP342	ltpFR2	15	9	FARMER	553	n/a	n/a	0	0	0
1791287	WORD	wordpools/wasnorm_wordpool_576.txt	LTP342	ltpFR2	15	9	DRILL	497	n/a	n/a	0	0	0
1793868	WORD	wordpools/wasnorm_wordpool_576.txt	LTP342	ltpFR2	15	9	FREEZER	604	n/a	n/a	0	0	0
1796484	WORD	wordpools/wasnorm_wordpool_576.txt	LTP342	ltpFR2	15	9	IGLOO	734	n/a	n/a	0	0	0
1799067	WORD	wordpools/wasnorm_wordpool_576.txt	LTP342	ltpFR2	15	9	COCKTAIL	338	n/a	n/a	0	0	0
1801614	WORD	wordpools/wasnorm_wordpool_576.txt	LTP342	ltpFR2	15	9	GUARD	667	n/a	n/a	0	0	0
1804098	WORD	wordpools/wasnorm_wordpool_576.txt	LTP342	ltpFR2	15	9	PARSLEY	1016	n/a	n/a	0	0	0
1806662	WORD	wordpools/wasnorm_wordpool_576.txt	LTP342	ltpFR2	15	9	SALAD	1224	n/a	n/a	0	0	0
1809295	WORD	wordpools/wasnorm_wordpool_576.txt	LTP342	ltpFR2	15	9	COOK	372	n/a	n/a	0	0	0
1811994	WORD	wordpools/wasnorm_wordpool_576.txt	LTP342	ltpFR2	15	9	GLASS	639	n/a	n/a	0	0	0
1814593	WORD	wordpools/wasnorm_wordpool_576.txt	LTP342	ltpFR2	15	9	DIME	466	n/a	n/a	0	0	0
1817092	WORD	wordpools/wasnorm_wordpool_576.txt	LTP342	ltpFR2	15	9	BRACES	164	n/a	n/a	0	0	0
1819640	WORD	wordpools/wasnorm_wordpool_576.txt	LTP342	ltpFR2	15	9	KLEENEX	782	n/a	n/a	0	0	0
1822389	WORD	wordpools/wasnorm_wordpool_576.txt	LTP342	ltpFR2	15	9	DONOR	485	n/a	n/a	0	0	0
1824871	WORD	wordpools/wasnorm_wordpool_576.txt	LTP342	ltpFR2	15	9	SWITCH	1422	n/a	n/a	0	0	0
1826488	START	n/a	LTP342	ltpFR2	15	n/a	n/a	n/a	14	n/a	n/a	n/a	n/a
1827608	DISTRACTOR	n/a	LTP342	ltpFR2	15	9	n/a	n/a	n/a	n/a	0	0	0
1827619	PROB	n/a	LTP342	ltpFR2	15	n/a	n/a	n/a	14	21	7	6	8
1830668	PROB	n/a	LTP342	ltpFR2	15	n/a	n/a	n/a	14	9	4	3	2
1832402	PROB	n/a	LTP342	ltpFR2	15	n/a	n/a	n/a	14	16	5	3	8
1835949	PROB	n/a	LTP342	ltpFR2	15	n/a	n/a	n/a	14	18	7	6	5
1837433	PROB	n/a	LTP342	ltpFR2	15	n/a	n/a	n/a	14	12	5	1	6
1838914	PROB	n/a	LTP342	ltpFR2	15	n/a	n/a	n/a	14	21	8	9	4
1840414	PROB	n/a	LTP342	ltpFR2	15	n/a	n/a	n/a	14	15	8	6	1
1841730	PROB	n/a	LTP342	ltpFR2	15	n/a	n/a	n/a	14	14	2	8	4
1843030	PROB	n/a	LTP342	ltpFR2	15	n/a	n/a	n/a	14	18	5	9	4
1844563	PROB	n/a	LTP342	ltpFR2	15	n/a	n/a	n/a	14	14	3	9	2
1846362	PROB	n/a	LTP342	ltpFR2	15	n/a	n/a	n/a	14	15	9	1	5
1847595	PROB	n/a	LTP342	ltpFR2	15	n/a	n/a	n/a	14	17	3	9	5
1850092	STOP	n/a	LTP342	ltpFR2	15	n/a	n/a	n/a	14	n/a	n/a	n/a	n/a
1852326	REC_START	n/a	LTP342	ltpFR2	15	9	n/a	n/a	n/a	n/a	0	0	0
1859484	REC_WORD	wordpools/wasnorm_wordpool_576.txt	LTP342	ltpFR2	15	9	ONION	977	n/a	n/a	0	0	0
1860279	REC_WORD	wordpools/wasnorm_wordpool_576.txt	LTP342	ltpFR2	15	9	ICING	732	n/a	n/a	0	0	0
1861254	REC_WORD	wordpools/wasnorm_wordpool_576.txt	LTP342	ltpFR2	15	9	CATTLE	261	n/a	n/a	0	0	0
1862085	REC_WORD	wordpools/wasnorm_wordpool_576.txt	LTP342	ltpFR2	15	9	CURTAIN	427	n/a	n/a	0	0	0
1863360	REC_WORD	wordpools/wasnorm_wordpool_576.txt	LTP342	ltpFR2	15	9	SLOPE	1328	n/a	n/a	0	0	0
1864488	REC_WORD	wordpools/wasnorm_wordpool_576.txt	LTP342	ltpFR2	15	9	HIKER	708	n/a	n/a	0	0	0
1865337	REC_WORD	wordpools/wasnorm_wordpool_576.txt	LTP342	ltpFR2	15	9	FARMER	553	n/a	n/a	0	0	0
1869205	REC_WORD	wordpools/wasnorm_wordpool_576.txt	LTP342	ltpFR2	15	9	BANKER	84	n/a	n/a	0	0	0
1880189	REC_WORD	wordpools/wasnorm_wordpool_576.txt	LTP342	ltpFR2	15	9	FREEZER	604	n/a	n/a	0	0	0
1881252	REC_WORD	wordpools/wasnorm_wordpool_576.txt	LTP342	ltpFR2	15	9	TRUCK	1512	n/a	n/a	0	0	0
1882127	REC_WORD	wordpools/wasnorm_wordpool_576.txt	LTP342	ltpFR2	15	9	DRILL	497	n/a	n/a	0	0	0
1885134	REC_WORD	wordpools/wasnorm_wordpool_576.txt	LTP342	ltpFR2	15	9	IGLOO	734	n/a	n/a	0	0	0
1888949	REC_WORD	wordpools/wasnorm_wordpool_576.txt	LTP342	ltpFR2	15	9	COCKTAIL	338	n/a	n/a	0	0	0
1890758	REC_WORD	wordpools/wasnorm_wordpool_576.txt	LTP342	ltpFR2	15	9	GUARD	667	n/a	n/a	0	0	0
1892499	REC_WORD	wordpools/wasnorm_wordpool_576.txt	LTP342	ltpFR2	15	9	PARSLEY	1016	n/a	n/a	0	0	0
1895576	REC_WORD	wordpools/wasnorm_wordpool_576.txt	LTP342	ltpFR2	15	9	SALAD	1224	n/a	n/a	0	0	0
1896993	REC_WORD	wordpools/wasnorm_wordpool_576.txt	LTP342	ltpFR2	15	9	COOK	372	n/a	n/a	0	0	0
1898761	REC_WORD	wordpools/wasnorm_wordpool_576.txt	LTP342	ltpFR2	15	9	GLASS	639	n/a	n/a	0	0	0
1901275	REC_WORD	wordpools/wasnorm_wordpool_576.txt	LTP342	ltpFR2	15	9	DIME	466	n/a	n/a	0	0	0
1903667	REC_WORD	wordpools/wasnorm_wordpool_576.txt	LTP342	ltpFR2	15	9	BRACES	164	n/a	n/a	0	0	0
1906802	REC_WORD	wordpools/wasnorm_wordpool_576.txt	LTP342	ltpFR2	15	9	KLEENEX	782	n/a	n/a	0	0	0
1907726	REC_WORD	wordpools/wasnorm_wordpool_576.txt	LTP342	ltpFR2	15	9	DONOR	485	n/a	n/a	0	0	0
1908441	REC_WORD	wordpools/wasnorm_wordpool_576.txt	LTP342	ltpFR2	15	9	SWITCH	1422	n/a	n/a	0	0	0
1942784	WORD	wordpools/wasnorm_wordpool_576.txt	LTP342	ltpFR2	15	10	VICTIM	1562	n/a	n/a	0	0	0
1945367	WORD	wordpools/wasnorm_wordpool_576.txt	LTP342	ltpFR2	15	10	EAGLE	512	n/a	n/a	0	0	0
1948049	WORD	wordpools/wasnorm_wordpool_576.txt	LTP342	ltpFR2	15	10	SPARROW	1347	n/a	n/a	0	0	0
1950663	WORD	wordpools/wasnorm_wordpool_576.txt	LTP342	ltpFR2	15	10	HEART	697	n/a	n/a	0	0	0
1953397	WORD	wordpools/wasnorm_wordpool_576.txt	LTP342	ltpFR2	15	10	CASHIER	254	n/a	n/a	0	0	0
1955861	WORD	wordpools/wasnorm_wordpool_576.txt	LTP342	ltpFR2	15	10	PORTRAIT	1111	n/a	n/a	0	0	0
1958577	WORD	wordpools/wasnorm_wordpool_576.txt	LTP342	ltpFR2	15	10	LIGHTNING	820	n/a	n/a	0	0	0
1961276	WORD	wordpools/wasnorm_wordpool_576.txt	LTP342	ltpFR2	15	10	SHORTS	1293	n/a	n/a	0	0	0
1963891	WORD	wordpools/wasnorm_wordpool_576.txt	LTP342	ltpFR2	15	10	SKETCH	1315	n/a	n/a	0	0	0
1966440	WORD	wordpools/wasnorm_wordpool_576.txt	LTP342	ltpFR2	15	10	INMATE	738	n/a	n/a	0	0	0
1969156	WORD	wordpools/wasnorm_wordpool_576.txt	LTP342	ltpFR2	15	10	CAPTIVE	240	n/a	n/a	0	0	0
1971937	WORD	wordpools/wasnorm_wordpool_576.txt	LTP342	ltpFR2	15	10	CAMEL	223	n/a	n/a	0	0	0
1974702	WORD	wordpools/wasnorm_wordpool_576.txt	LTP342	ltpFR2	15	10	GIRL	637	n/a	n/a	0	0	0
1977386	WORD	wordpools/wasnorm_wordpool_576.txt	LTP342	ltpFR2	15	10	BOX	159	n/a	n/a	0	0	0
1979900	WORD	wordpools/wasnorm_wordpool_576.txt	LTP342	ltpFR2	15	10	DRAWING	494	n/a	n/a	0	0	0
1982450	WORD	wordpools/wasnorm_wordpool_576.txt	LTP342	ltpFR2	15	10	OFFICE	972	n/a	n/a	0	0	0
1985132	WORD	wordpools/wasnorm_wordpool_576.txt	LTP342	ltpFR2	15	10	GUITAR	670	n/a	n/a	0	0	0
1987680	WORD	wordpools/wasnorm_wordpool_576.txt	LTP342	ltpFR2	15	10	GRAVE	658	n/a	n/a	0	0	0
1990213	WORD	wordpools/wasnorm_wordpool_576.txt	LTP342	ltpFR2	15	10	EGYPT	519	n/a	n/a	0	0	0
1992995	WORD	wordpools/wasnorm_wordpool_576.txt	LTP342	ltpFR2	15	10	DENIM	446	n/a	n/a	0	0	0
1995444	WORD	wordpools/wasnorm_wordpool_576.txt	LTP342	ltpFR2	15	10	SURVEY	1414	n/a	n/a	0	0	0
1997993	WORD	wordpools/wasnorm_wordpool_576.txt	LTP342	ltpFR2	15	10	ELBOW	520	n/a	n/a	0	0	0
2000558	WORD	wordpools/wasnorm_wordpool_576.txt	LTP342	ltpFR2	15	10	CRUTCH	417	n/a	n/a	0	0	0
2002991	WORD	wordpools/wasnorm_wordpool_576.txt	LTP342	ltpFR2	15	10	JEANS	752	n/a	n/a	0	0	0
2004606	START	n/a	LTP342	ltpFR2	15	n/a	n/a	n/a	15	n/a	n/a	n/a	n/a
2005639	DISTRACTOR	n/a	LTP342	ltpFR2	15	10	n/a	n/a	n/a	n/a	0	0	0
2005655	PROB	n/a	LTP342	ltpFR2	15	n/a	n/a	n/a	15	15	6	1	8
2007621	PROB	n/a	LTP342	ltpFR2	15	n/a	n/a	n/a	15	13	2	4	7
2008954	PROB	n/a	LTP342	ltpFR2	15	n/a	n/a	n/a	15	15	8	2	5
2010604	PROB	n/a	LTP342	ltpFR2	15	n/a	n/a	n/a	15	17	1	9	7
2011935	PROB	n/a	LTP342	ltpFR2	15	n/a	n/a	n/a	15	13	6	6	1
2015035	PROB	n/a	LTP342	ltpFR2	15	n/a	n/a	n/a	15	10	5	3	2
2016368	PROB	n/a	LTP342	ltpFR2	15	n/a	n/a	n/a	15	18	6	9	3
2017633	PROB	n/a	LTP342	ltpFR2	15	n/a	n/a	n/a	15	15	4	7	4
2019316	PROB	n/a	LTP342	ltpFR2	15	n/a	n/a	n/a	15	16	6	7	3
2020999	PROB	n/a	LTP342	ltpFR2	15	n/a	n/a	n/a	15	22	9	9	4
2023231	PROB	n/a	LTP342	ltpFR2	15	n/a	n/a	n/a	15	12	5	1	6
2024481	PROB	n/a	LTP342	ltpFR2	15	n/a	n/a	n/a	15	20	8	9	3
2026330	PROB	n/a	LTP342	ltpFR2	15	n/a	n/a	n/a	15	13	7	5	1
2027553	STOP	n/a	LTP342	ltpFR2	15	n/a	n/a	n/a	15	n/a	n/a	n/a	n/a
2030395	REC_START	n/a	LTP342	ltpFR2	15	10	n/a	n/a	n/a	n/a	0	0	0
2034014	REC_WORD	wordpools/wasnorm_wordpool_576.txt	LTP342	ltpFR2	15	10	DENIM	446	n/a	n/a	0	0	0
2034784	REC_WORD	wordpools/wasnorm_wordpool_576.txt	LTP342	ltpFR2	15	10	JEANS	752	n/a	n/a	0	0	0
2035768	REC_WORD	wordpools/wasnorm_wordpool_576.txt	LTP342	ltpFR2	15	10	CRUTCH	417	n/a	n/a	0	0	0
2037606	REC_WORD	wordpools/wasnorm_wordpool_576.txt	LTP342	ltpFR2	15	10	EAGLE	512	n/a	n/a	0	0	0
2038144	REC_WORD	wordpools/wasnorm_wordpool_576.txt	LTP342	ltpFR2	15	10	SPARROW	1347	n/a	n/a	0	0	0
2039031	REC_WORD	wordpools/wasnorm_wordpool_576.txt	LTP342	ltpFR2	15	10	HEART	697	n/a	n/a	0	0	0
2039956	REC_WORD	wordpools/wasnorm_wordpool_576.txt	LTP342	ltpFR2	15	10	PORTRAIT	1111	n/a	n/a	0	0	0
2041844	REC_WORD	wordpools/wasnorm_wordpool_576.txt	LTP342	ltpFR2	15	10	CASHIER	254	n/a	n/a	0	0	0
2120869	WORD	wordpools/wasnorm_wordpool_576.txt	LTP342	ltpFR2	15	11	COMPASS	358	n/a	n/a	0	0	0
2123453	WORD	wordpools/wasnorm_wordpool_576.txt	LTP342	ltpFR2	15	11	SWAMP	1416	n/a	n/a	0	0	0
2126035	WORD	wordpools/wasnorm_wordpool_576.txt	LTP342	ltpFR2	15	11	PUDDLE	1140	n/a	n/a	0	0	0
2128666	WORD	wordpools/wasnorm_wordpool_576.txt	LTP342	ltpFR2	15	11	COURSE	390	n/a	n/a	0	0	0
2131166	WORD	wordpools/wasnorm_wordpool_576.txt	LTP342	ltpFR2	15	11	POISON	1096	n/a	n/a	0	0	0
2133714	WORD	wordpools/wasnorm_wordpool_576.txt	LTP342	ltpFR2	15	11	RATTLE	1170	n/a	n/a	0	0	0
2136313	WORD	wordpools/wasnorm_wordpool_576.txt	LTP342	ltpFR2	15	11	SNAKE	1333	n/a	n/a	0	0	0
2138778	WORD	wordpools/wasnorm_wordpool_576.txt	LTP342	ltpFR2	15	11	THREAD	1460	n/a	n/a	0	0	0
2141478	WORD	wordpools/wasnorm_wordpool_576.txt	LTP342	ltpFR2	15	11	PRINCESS	1125	n/a	n/a	0	0	0
2143993	WORD	wordpools/wasnorm_wordpool_576.txt	LTP342	ltpFR2	15	11	OUTDOORS	987	n/a	n/a	0	0	0
2146442	WORD	wordpools/wasnorm_wordpool_576.txt	LTP342	ltpFR2	15	11	BODY	145	n/a	n/a	0	0	0
2149174	WORD	wordpools/wasnorm_wordpool_576.txt	LTP342	ltpFR2	15	11	CUSTARD	429	n/a	n/a	0	0	0
2151973	WORD	wordpools/wasnorm_wordpool_576.txt	LTP342	ltpFR2	15	11	MAILBOX	857	n/a	n/a	0	0	0
2154605	WORD	wordpools/wasnorm_wordpool_576.txt	LTP342	ltpFR2	15	11	CONTRACT	368	n/a	n/a	0	0	0
2157354	WORD	wordpools/wasnorm_wordpool_576.txt	LTP342	ltpFR2	15	11	HAWK	692	n/a	n/a	0	0	0
2159868	WORD	wordpools/wasnorm_wordpool_576.txt	LTP342	ltpFR2	15	11	TURKEY	1520	n/a	n/a	0	0	0
2162402	WORD	wordpools/wasnorm_wordpool_576.txt	LTP342	ltpFR2	15	11	FOX	598	n/a	n/a	0	0	0
2165000	WORD	wordpools/wasnorm_wordpool_576.txt	LTP342	ltpFR2	15	11	GHETTO	633	n/a	n/a	0	0	0
2167731	WORD	wordpools/wasnorm_wordpool_576.txt	LTP342	ltpFR2	15	11	STAMP	1370	n/a	n/a	0	0	0
2170415	WORD	wordpools/wasnorm_wordpool_576.txt	LTP342	ltpFR2	15	11	LUGGAGE	847	n/a	n/a	0	0	0
2172963	WORD	wordpools/wasnorm_wordpool_576.txt	LTP342	ltpFR2	15	11	SCOTCH	1251	n/a	n/a	0	0	0
2175429	WORD	wordpools/wasnorm_wordpool_576.txt	LTP342	ltpFR2	15	11	CABIN	211	n/a	n/a	0	0	0
2178228	WORD	wordpools/wasnorm_wordpool_576.txt	LTP342	ltpFR2	15	11	GLOBE	641	n/a	n/a	0	0	0
2180676	WORD	wordpools/wasnorm_wordpool_576.txt	LTP342	ltpFR2	15	11	CASKET	255	n/a	n/a	0	0	0
2182293	START	n/a	LTP342	ltpFR2	15	n/a	n/a	n/a	16	n/a	n/a	n/a	n/a
2183140	DISTRACTOR	n/a	LTP342	ltpFR2	15	11	n/a	n/a	n/a	n/a	0	0	0
2183142	PROB	n/a	LTP342	ltpFR2	15	n/a	n/a	n/a	16	15	5	7	2
2185308	PROB	n/a	LTP342	ltpFR2	15	n/a	n/a	n/a	16	14	7	6	1
2187107	PROB	n/a	LTP342	ltpFR2	15	n/a	n/a	n/a	16	13	5	3	5
2188722	PROB	n/a	LTP342	ltpFR2	15	n/a	n/a	n/a	16	14	7	3	4
2190239	PROB	n/a	LTP342	ltpFR2	15	n/a	n/a	n/a	16	19	8	6	5
2192604	PROB	n/a	LTP342	ltpFR2	15	n/a	n/a	n/a	16	12	3	7	2
2194387	PROB	n/a	LTP342	ltpFR2	15	n/a	n/a	n/a	16	12	2	1	9
2195520	PROB	n/a	LTP342	ltpFR2	15	n/a	n/a	n/a	16	6	2	1	3
2196668	PROB	n/a	LTP342	ltpFR2	15	n/a	n/a	n/a	16	15	4	4	7
2199185	PROB	n/a	LTP342	ltpFR2	15	n/a	n/a	n/a	16	16	9	1	6
2200633	PROB	n/a	LTP342	ltpFR2	15	n/a	n/a	n/a	16	16	7	4	5
2202483	PROB	n/a	LTP342	ltpFR2	15	n/a	n/a	n/a	16	19	7	9	3
2204033	PROB	n/a	LTP342	ltpFR2	15	n/a	n/a	n/a	16	14	2	7	5
2205270	STOP	n/a	LTP342	ltpFR2	15	n/a	n/a	n/a	16	n/a	n/a	n/a	n/a
2208065	REC_START	n/a	LTP342	ltpFR2	15	11	n/a	n/a	n/a	n/a	0	0	0
2209468	REC_WORD	wordpools/wasnorm_wordpool_576.txt	LTP342	ltpFR2	15	11	COMPASS	358	n/a	n/a	0	0	0
2210131	REC_WORD	wordpools/wasnorm_wordpool_576.txt	LTP342	ltpFR2	15	11	SWAMP	1416	n/a	n/a	0	0	0
2211179	REC_WORD	wordpools/wasnorm_wordpool_576.txt	LTP342	ltpFR2	15	11	PUDDLE	1140	n/a	n/a	0	0	0
2212089	REC_WORD	wordpools/wasnorm_wordpool_576.txt	LTP342	ltpFR2	15	11	COURSE	390	n/a	n/a	0	0	0
2213017	REC_WORD	wordpools/wasnorm_wordpool_576.txt	LTP342	ltpFR2	15	11	POISON	1096	n/a	n/a	0	0	0
2213907	REC_WORD	wordpools/wasnorm_wordpool_576.txt	LTP342	ltpFR2	15	11	RATTLE	1170	n/a	n/a	0	0	0
2214568	REC_WORD	wordpools/wasnorm_wordpool_576.txt	LTP342	ltpFR2	15	11	SNAKE	1333	n/a	n/a	0	0	0
2215899	REC_WORD	wordpools/wasnorm_wordpool_576.txt	LTP342	ltpFR2	15	11	PRINCESS	1125	n/a	n/a	0	0	0
2216880	REC_WORD	wordpools/wasnorm_wordpool_576.txt	LTP342	ltpFR2	15	11	OUTDOORS	987	n/a	n/a	0	0	0
2218771	REC_WORD	wordpools/wasnorm_wordpool_576.txt	LTP342	ltpFR2	15	11	BODY	145	n/a	n/a	0	0	0
2219657	REC_WORD	wordpools/wasnorm_wordpool_576.txt	LTP342	ltpFR2	15	11	MAILBOX	857	n/a	n/a	0	0	0
2221056	REC_WORD	wordpools/wasnorm_wordpool_576.txt	LTP342	ltpFR2	15	11	CONTRACT	368	n/a	n/a	0	0	0
2222747	REC_WORD	wordpools/wasnorm_wordpool_576.txt	LTP342	ltpFR2	15	11	HAWK	692	n/a	n/a	0	0	0
2226473	REC_WORD	wordpools/wasnorm_wordpool_576.txt	LTP342	ltpFR2	15	11	TURKEY	1520	n/a	n/a	0	0	0
2227723	REC_WORD	wordpools/wasnorm_wordpool_576.txt	LTP342	ltpFR2	15	11	FOX	598	n/a	n/a	0	0	0
2298506	DISTRACTOR	n/a	LTP342	ltpFR2	15	12	n/a	n/a	n/a	n/a	0	0	0
2298507	START	n/a	LTP342	ltpFR2	15	n/a	n/a	n/a	17	n/a	n/a	n/a	n/a
2298523	PROB	n/a	LTP342	ltpFR2	15	n/a	n/a	n/a	17	20	6	5	9
2300372	PROB	n/a	LTP342	ltpFR2	15	n/a	n/a	n/a	17	14	7	1	6
2302887	PROB	n/a	LTP342	ltpFR2	15	n/a	n/a	n/a	17	19	4	6	9
2304619	PROB	n/a	LTP342	ltpFR2	15	n/a	n/a	n/a	17	21	7	5	9
2307486	PROB	n/a	LTP342	ltpFR2	15	n/a	n/a	n/a	17	13	2	7	4
2308901	PROB	n/a	LTP342	ltpFR2	15	n/a	n/a	n/a	17	1	6	7	6
2311167	PROB	n/a	LTP342	ltpFR2	15	n/a	n/a	n/a	17	12	8	3	1
2313083	PROB	n/a	LTP342	ltpFR2	15	n/a	n/a	n/a	17	12	1	4	7
2316382	PROB	n/a	LTP342	ltpFR2	15	n/a	n/a	n/a	17	16	1	7	8
2320163	PROB	n/a	LTP342	ltpFR2	15	n/a	n/a	n/a	17	13	3	5	5
2321348	STOP	n/a	LTP342	ltpFR2	15	n/a	n/a	n/a	17	n/a	n/a	n/a	n/a
2323478	WORD	wordpools/wasnorm_wordpool_576.txt	LTP342	ltpFR2	15	12	MASK	876	n/a	n/a	0	0	0
2326127	WORD	wordpools/wasnorm_wordpool_576.txt	LTP342	ltpFR2	15	12	COSTUME	383	n/a	n/a	0	0	0
2328925	WORD	wordpools/wasnorm_wordpool_576.txt	LTP342	ltpFR2	15	12	BUNNY	198	n/a	n/a	0	0	0
2331458	WORD	wordpools/wasnorm_wordpool_576.txt	LTP342	ltpFR2	15	12	TURTLE	1522	n/a	n/a	0	0	0
2333906	WORD	wordpools/wasnorm_wordpool_576.txt	LTP342	ltpFR2	15	12	PASTRY	1022	n/a	n/a	0	0	0
2336638	WORD	wordpools/wasnorm_wordpool_576.txt	LTP342	ltpFR2	15	12	SWORD	1423	n/a	n/a	0	0	0
2339321	WORD	wordpools/wasnorm_wordpool_576.txt	LTP342	ltpFR2	15	12	LIVER	833	n/a	n/a	0	0	0
2341852	WORD	wordpools/wasnorm_wordpool_576.txt	LTP342	ltpFR2	15	12	LEG	809	n/a	n/a	0	0	0
2344586	WORD	wordpools/wasnorm_wordpool_576.txt	LTP342	ltpFR2	15	12	CLOUD	328	n/a	n/a	0	0	0
2347018	WORD	wordpools/wasnorm_wordpool_576.txt	LTP342	ltpFR2	15	12	SLUG	1329	n/a	n/a	0	0	0
2349567	WORD	wordpools/wasnorm_wordpool_576.txt	LTP342	ltpFR2	15	12	HARP	689	n/a	n/a	0	0	0
2352099	WORD	wordpools/wasnorm_wordpool_576.txt	LTP342	ltpFR2	15	12	WHISTLE	1606	n/a	n/a	0	0	0
2354613	WORD	wordpools/wasnorm_wordpool_576.txt	LTP342	ltpFR2	15	12	ARMY	39	n/a	n/a	0	0	0
2357413	WORD	wordpools/wasnorm_wordpool_576.txt	LTP342	ltpFR2	15	12	JUGGLER	763	n/a	n/a	0	0	0
2360228	WORD	wordpools/wasnorm_wordpool_576.txt	LTP342	ltpFR2	15	12	FOREHEAD	592	n/a	n/a	0	0	0
2362776	WORD	wordpools/wasnorm_wordpool_576.txt	LTP342	ltpFR2	15	12	RELISH	1183	n/a	n/a	0	0	0
2365210	WORD	wordpools/wasnorm_wordpool_576.txt	LTP342	ltpFR2	15	12	NURSE	963	n/a	n/a	0	0	0
2367657	WORD	wordpools/wasnorm_wordpool_576.txt	LTP342	ltpFR2	15	12	SNACK	1331	n/a	n/a	0	0	0
2370224	WORD	wordpools/wasnorm_wordpool_576.txt	LTP342	ltpFR2	15	12	MATTRESS	879	n/a	n/a	0	0	0
2372989	WORD	wordpools/wasnorm_wordpool_576.txt	LTP342	ltpFR2	15	12	LOFT	840	n/a	n/a	0	0	0
2375754	WORD	wordpools/wasnorm_wordpool_576.txt	LTP342	ltpFR2	15	12	SCISSORS	1250	n/a	n/a	0	0	0
2378237	WORD	wordpools/wasnorm_wordpool_576.txt	LTP342	ltpFR2	15	12	MESSAGE	888	n/a	n/a	0	0	0
2380986	WORD	wordpools/wasnorm_wordpool_576.txt	LTP342	ltpFR2	15	12	ROBBER	1197	n/a	n/a	0	0	0
2383767	WORD	wordpools/wasnorm_wordpool_576.txt	LTP342	ltpFR2	15	12	FLEET	578	n/a	n/a	0	0	0
2385384	START	n/a	LTP342	ltpFR2	15	n/a	n/a	n/a	18	n/a	n/a	n/a	n/a
2386360	DISTRACTOR	n/a	LTP342	ltpFR2	15	12	n/a	n/a	n/a	n/a	0	0	0
2386367	PROB	n/a	LTP342	ltpFR2	15	n/a	n/a	n/a	18	12	4	2	6
2388466	PROB	n/a	LTP342	ltpFR2	15	n/a	n/a	n/a	18	12	3	8	1
2389781	PROB	n/a	LTP342	ltpFR2	15	n/a	n/a	n/a	18	15	2	9	4
2391531	PROB	n/a	LTP342	ltpFR2	15	n/a	n/a	n/a	18	17	4	5	8
2392879	PROB	n/a	LTP342	ltpFR2	15	n/a	n/a	n/a	18	7	5	1	1
2394246	PROB	n/a	LTP342	ltpFR2	15	n/a	n/a	n/a	18	15	5	1	9
2395496	PROB	n/a	LTP342	ltpFR2	15	n/a	n/a	n/a	18	15	7	3	5
2396877	PROB	n/a	LTP342	ltpFR2	15	n/a	n/a	n/a	18	12	2	6	4
2399094	PROB	n/a	LTP342	ltpFR2	15	n/a	n/a	n/a	18	21	9	8	6
2401127	PROB	n/a	LTP342	ltpFR2	15	n/a	n/a	n/a	18	12	2	3	7
2402858	PROB	n/a	LTP342	ltpFR2	15	n/a	n/a	n/a	18	20	4	9	7
2404342	PROB	n/a	LTP342	ltpFR2	15	n/a	n/a	n/a	18	14	5	6	3
2405790	PROB	n/a	LTP342	ltpFR2	15	n/a	n/a	n/a	18	7	2	1	4
2407190	PROB	n/a	LTP342	ltpFR2	15	n/a	n/a	n/a	18	18	9	4	5
2408860	STOP	n/a	LTP342	ltpFR2	15	n/a	n/a	n/a	18	n/a	n/a	n/a	n/a
2411322	REC_START	n/a	LTP342	ltpFR2	15	12	n/a	n/a	n/a	n/a	0	0	0
2422363	REC_WORD	wordpools/wasnorm_wordpool_576.txt	LTP342	ltpFR2	15	12	MASK	876	n/a	n/a	0	0	0
2423359	REC_WORD	wordpools/wasnorm_wordpool_576.txt	LTP342	ltpFR2	15	12	COSTUME	383	n/a	n/a	0	0	0
2425824	REC_WORD	wordpools/wasnorm_wordpool_576.txt	LTP342	ltpFR2	15	12	BUNNY	198	n/a	n/a	0	0	0
2426978	REC_WORD	wordpools/wasnorm_wordpool_576.txt	LTP342	ltpFR2	15	12	TURTLE	1522	n/a	n/a	0	0	0
2429083	REC_WORD	wordpools/wasnorm_wordpool_576.txt	LTP342	ltpFR2	15	12	LIVER	833	n/a	n/a	0	0	0
2430655	REC_WORD	wordpools/wasnorm_wordpool_576.txt	LTP342	ltpFR2	15	12	LEG	809	n/a	n/a	0	0	0
2432132	REC_WORD	wordpools/wasnorm_wordpool_576.txt	LTP342	ltpFR2	15	12	CLOUD	328	n/a	n/a	0	0	0
2433301	REC_WORD	wordpools/wasnorm_wordpool_576.txt	LTP342	ltpFR2	15	12	HARP	689	n/a	n/a	0	0	0
2435860	REC_WORD	wordpools/wasnorm_wordpool_576.txt	LTP342	ltpFR2	15	12	SLUG	1329	n/a	n/a	0	0	0
2438202	REC_WORD	wordpools/wasnorm_wordpool_576.txt	LTP342	ltpFR2	15	12	WHISTLE	1606	n/a	n/a	0	0	0
2439703	REC_WORD	wordpools/wasnorm_wordpool_576.txt	LTP342	ltpFR2	15	12	ARMY	39	n/a	n/a	0	0	0
2441055	REC_WORD	wordpools/wasnorm_wordpool_576.txt	LTP342	ltpFR2	15	12	JUGGLER	763	n/a	n/a	0	0	0
2442572	REC_WORD	wordpools/wasnorm_wordpool_576.txt	LTP342	ltpFR2	15	12	FOREHEAD	592	n/a	n/a	0	0	0
2444706	REC_WORD	wordpools/wasnorm_wordpool_576.txt	LTP342	ltpFR2	15	12	RELISH	1183	n/a	n/a	0	0	0
2446105	REC_WORD	wordpools/wasnorm_wordpool_576.txt	LTP342	ltpFR2	15	12	NURSE	963	n/a	n/a	0	0	0
2447778	REC_WORD	wordpools/wasnorm_wordpool_576.txt	LTP342	ltpFR2	15	12	SNACK	1331	n/a	n/a	0	0	0
2501763	DISTRACTOR	n/a	LTP342	ltpFR2	15	13	n/a	n/a	n/a	n/a	0	0	0
2501763	START	n/a	LTP342	ltpFR2	15	n/a	n/a	n/a	19	n/a	n/a	n/a	n/a
2501780	PROB	n/a	LTP342	ltpFR2	15	n/a	n/a	n/a	19	17	6	3	8
2503996	PROB	n/a	LTP342	ltpFR2	15	n/a	n/a	n/a	19	18	4	5	9
2505329	PROB	n/a	LTP342	ltpFR2	15	n/a	n/a	n/a	19	11	1	6	4
2506445	PROB	n/a	LTP342	ltpFR2	15	n/a	n/a	n/a	19	13	4	8	1
2508128	PROB	n/a	LTP342	ltpFR2	15	n/a	n/a	n/a	19	14	9	2	3
2510493	PROB	n/a	LTP342	ltpFR2	15	n/a	n/a	n/a	19	19	7	7	5
2512059	PROB	n/a	LTP342	ltpFR2	15	n/a	n/a	n/a	19	12	1	5	6
2513425	PROB	n/a	LTP342	ltpFR2	15	n/a	n/a	n/a	19	11	2	3	6
2515225	PROB	n/a	LTP342	ltpFR2	15	n/a	n/a	n/a	19	17	5	7	5
2517107	PROB	n/a	LTP342	ltpFR2	15	n/a	n/a	n/a	19	16	7	6	3
2518939	PROB	n/a	LTP342	ltpFR2	15	n/a	n/a	n/a	19	16	7	6	3
2520289	PROB	n/a	LTP342	ltpFR2	15	n/a	n/a	n/a	19	15	7	7	1
2521555	PROB	n/a	LTP342	ltpFR2	15	n/a	n/a	n/a	19	17	7	8	2
2523670	PROB	n/a	LTP342	ltpFR2	15	n/a	n/a	n/a	19	19	9	2	8
2525064	STOP	n/a	LTP342	ltpFR2	15	n/a	n/a	n/a	19	n/a	n/a	n/a	n/a
2526668	WORD	wordpools/wasnorm_wordpool_576.txt	LTP342	ltpFR2	15	13	CHILD	299	n/a	n/a	0	0	0
2529218	WORD	wordpools/wasnorm_wordpool_576.txt	LTP342	ltpFR2	15	13	HUMAN	726	n/a	n/a	0	0	0
2531783	WORD	wordpools/wasnorm_wordpool_576.txt	LTP342	ltpFR2	15	13	EYELASH	546	n/a	n/a	0	0	0
2534483	WORD	wordpools/wasnorm_wordpool_576.txt	LTP342	ltpFR2	15	13	CRATER	400	n/a	n/a	0	0	0
2537065	WORD	wordpools/wasnorm_wordpool_576.txt	LTP342	ltpFR2	15	13	CROWN	415	n/a	n/a	0	0	0
2539796	WORD	wordpools/wasnorm_wordpool_576.txt	LTP342	ltpFR2	15	13	MOTEL	919	n/a	n/a	0	0	0
2542329	WORD	wordpools/wasnorm_wordpool_576.txt	LTP342	ltpFR2	15	13	PAPER	1011	n/a	n/a	0	0	0
2544978	WORD	wordpools/wasnorm_wordpool_576.txt	LTP342	ltpFR2	15	13	GRAPE	654	n/a	n/a	0	0	0
2547493	WORD	wordpools/wasnorm_wordpool_576.txt	LTP342	ltpFR2	15	13	LONDON	843	n/a	n/a	0	0	0
2550209	WORD	wordpools/wasnorm_wordpool_576.txt	LTP342	ltpFR2	15	13	COUNTRY	388	n/a	n/a	0	0	0
2552840	WORD	wordpools/wasnorm_wordpool_576.txt	LTP342	ltpFR2	15	13	FINGER	567	n/a	n/a	0	0	0
2555323	WORD	wordpools/wasnorm_wordpool_576.txt	LTP342	ltpFR2	15	13	LADDER	793	n/a	n/a	0	0	0
2558005	WORD	wordpools/wasnorm_wordpool_576.txt	LTP342	ltpFR2	15	13	GRIZZLY	662	n/a	n/a	0	0	0
2560437	WORD	wordpools/wasnorm_wordpool_576.txt	LTP342	ltpFR2	15	13	POSSUM	1112	n/a	n/a	0	0	0
2563136	WORD	wordpools/wasnorm_wordpool_576.txt	LTP342	ltpFR2	15	13	LION	827	n/a	n/a	0	0	0
2565884	WORD	wordpools/wasnorm_wordpool_576.txt	LTP342	ltpFR2	15	13	CORAL	378	n/a	n/a	0	0	0
2568484	WORD	wordpools/wasnorm_wordpool_576.txt	LTP342	ltpFR2	15	13	BATHTUB	100	n/a	n/a	0	0	0
2571282	WORD	wordpools/wasnorm_wordpool_576.txt	LTP342	ltpFR2	15	13	ORCHID	982	n/a	n/a	0	0	0
2573814	WORD	wordpools/wasnorm_wordpool_576.txt	LTP342	ltpFR2	15	13	GARDEN	623	n/a	n/a	0	0	0
2576513	WORD	wordpools/wasnorm_wordpool_576.txt	LTP342	ltpFR2	15	13	NOVEL	960	n/a	n/a	0	0	0
2578996	WORD	wordpools/wasnorm_wordpool_576.txt	LTP342	ltpFR2	15	13	APPLE	33	n/a	n/a	0	0	0
2581511	WORD	wordpools/wasnorm_wordpool_576.txt	LTP342	ltpFR2	15	13	PENGUIN	1044	n/a	n/a	0	0	0
2584127	WORD	wordpools/wasnorm_wordpool_576.txt	LTP342	ltpFR2	15	13	RIVER	1194	n/a	n/a	0	0	0
2586891	WORD	wordpools/wasnorm_wordpool_576.txt	LTP342	ltpFR2	15	13	QUEEN	1149	n/a	n/a	0	0	0
2588509	START	n/a	LTP342	ltpFR2	15	n/a	n/a	n/a	20	n/a	n/a	n/a	n/a
2589453	DISTRACTOR	n/a	LTP342	ltpFR2	15	13	n/a	n/a	n/a	n/a	0	0	0
2589458	PROB	n/a	LTP342	ltpFR2	15	n/a	n/a	n/a	20	13	9	2	2
2591622	PROB	n/a	LTP342	ltpFR2	15	n/a	n/a	n/a	20	19	8	5	6
2593356	PROB	n/a	LTP342	ltpFR2	15	n/a	n/a	n/a	20	13	4	7	2
2594937	PROB	n/a	LTP342	ltpFR2	15	n/a	n/a	n/a	20	20	8	4	8
2597104	PROB	n/a	LTP342	ltpFR2	15	n/a	n/a	n/a	20	13	4	2	7
2598520	PROB	n/a	LTP342	ltpFR2	15	n/a	n/a	n/a	20	17	4	6	7
2600086	PROB	n/a	LTP342	ltpFR2	15	n/a	n/a	n/a	20	19	9	8	2
2601519	PROB	n/a	LTP342	ltpFR2	15	n/a	n/a	n/a	20	21	8	5	8
2603551	PROB	n/a	LTP342	ltpFR2	15	n/a	n/a	n/a	20	14	5	1	8
2605400	PROB	n/a	LTP342	ltpFR2	15	n/a	n/a	n/a	20	16	9	5	2
2606865	PROB	n/a	LTP342	ltpFR2	15	n/a	n/a	n/a	20	23	8	7	8
2609032	PROB	n/a	LTP342	ltpFR2	15	n/a	n/a	n/a	20	15	5	5	5
2612509	STOP	n/a	LTP342	ltpFR2	15	n/a	n/a	n/a	20	n/a	n/a	n/a	n/a
2614414	REC_START	n/a	LTP342	ltpFR2	15	13	n/a	n/a	n/a	n/a	0	0	0
2616315	REC_WORD	wordpools/wasnorm_wordpool_576.txt	LTP342	ltpFR2	15	13	RIVER	1194	n/a	n/a	0	0	0
2617179	REC_WORD	wordpools/wasnorm_wordpool_576.txt	LTP342	ltpFR2	15	13	QUEEN	1149	n/a	n/a	0	0	0
2618110	REC_WORD	wordpools/wasnorm_wordpool_576.txt	LTP342	ltpFR2	15	13	APPLE	33	n/a	n/a	0	0	0
2618916	REC_WORD	wordpools/wasnorm_wordpool_576.txt	LTP342	ltpFR2	15	13	NOVEL	960	n/a	n/a	0	0	0
2626481	REC_WORD	wordpools/wasnorm_wordpool_576.txt	LTP342	ltpFR2	15	13	CHILD	299	n/a	n/a	0	0	0
2627468	REC_WORD	wordpools/wasnorm_wordpool_576.txt	LTP342	ltpFR2	15	13	INFANT	737	n/a	n/a	0	0	0
2628747	REC_WORD	wordpools/wasnorm_wordpool_576.txt	LTP342	ltpFR2	15	13	HUMAN	726	n/a	n/a	0	0	0
2631065	REC_WORD	wordpools/wasnorm_wordpool_576.txt	LTP342	ltpFR2	15	13	EYELASH	546	n/a	n/a	0	0	0
2632413	REC_WORD	wordpools/wasnorm_wordpool_576.txt	LTP342	ltpFR2	15	13	CRATER	400	n/a	n/a	0	0	0
2633102	REC_WORD	wordpools/wasnorm_wordpool_576.txt	LTP342	ltpFR2	15	13	MOTEL	919	n/a	n/a	0	0	0
2633948	REC_WORD	wordpools/wasnorm_wordpool_576.txt	LTP342	ltpFR2	15	13	PAPER	1011	n/a	n/a	0	0	0
2636151	REC_WORD	wordpools/wasnorm_wordpool_576.txt	LTP342	ltpFR2	15	13	FINGER	567	n/a	n/a	0	0	0
2637556	REC_WORD	wordpools/wasnorm_wordpool_576.txt	LTP342	ltpFR2	15	13	LADDER	793	n/a	n/a	0	0	0
2638494	REC_WORD	wordpools/wasnorm_wordpool_576.txt	LTP342	ltpFR2	15	13	GRIZZLY	662	n/a	n/a	0	0	0
2639380	REC_WORD	wordpools/wasnorm_wordpool_576.txt	LTP342	ltpFR2	15	13	POSSUM	1112	n/a	n/a	0	0	0
2640249	REC_WORD	wordpools/wasnorm_wordpool_576.txt	LTP342	ltpFR2	15	13	LION	827	n/a	n/a	0	0	0
2641325	REC_WORD	wordpools/wasnorm_wordpool_576.txt	LTP342	ltpFR2	15	13	CORAL	378	n/a	n/a	0	0	0
2660588	REC_WORD	wordpools/wasnorm_wordpool_576.txt	LTP342	ltpFR2	15	13	LONDON	843	n/a	n/a	0	0	0
2661630	REC_WORD	wordpools/wasnorm_wordpool_576.txt	LTP342	ltpFR2	15	13	GRAPE	654	n/a	n/a	0	0	0
2662642	REC_WORD	wordpools/wasnorm_wordpool_576.txt	LTP342	ltpFR2	15	13	COUNTRY	388	n/a	n/a	0	0	0
2704854	DISTRACTOR	n/a	LTP342	ltpFR2	15	14	n/a	n/a	n/a	n/a	0	0	0
2704854	START	n/a	LTP342	ltpFR2	15	n/a	n/a	n/a	21	n/a	n/a	n/a	n/a
2704871	PROB	n/a	LTP342	ltpFR2	15	n/a	n/a	n/a	21	16	9	4	3
2706571	PROB	n/a	LTP342	ltpFR2	15	n/a	n/a	n/a	21	11	4	2	5
2708437	PROB	n/a	LTP342	ltpFR2	15	n/a	n/a	n/a	21	16	8	1	7
2710685	PROB	n/a	LTP342	ltpFR2	15	n/a	n/a	n/a	21	13	4	7	1
2712634	PROB	n/a	LTP342	ltpFR2	15	n/a	n/a	n/a	21	18	6	4	8
2714084	PROB	n/a	LTP342	ltpFR2	15	n/a	n/a	n/a	21	15	5	3	7
2715384	PROB	n/a	LTP342	ltpFR2	15	n/a	n/a	n/a	21	22	5	9	8
2716966	PROB	n/a	LTP342	ltpFR2	15	n/a	n/a	n/a	21	14	6	3	5
2718798	PROB	n/a	LTP342	ltpFR2	15	n/a	n/a	n/a	21	14	3	5	6
2720830	PROB	n/a	LTP342	ltpFR2	15	n/a	n/a	n/a	21	13	7	5	1
2722813	PROB	n/a	LTP342	ltpFR2	15	n/a	n/a	n/a	21	17	3	7	7
2724745	PROB	n/a	LTP342	ltpFR2	15	n/a	n/a	n/a	21	14	4	7	3
2728854	STOP	n/a	LTP342	ltpFR2	15	n/a	n/a	n/a	21	n/a	n/a	n/a	n/a
2729710	WORD	wordpools/wasnorm_wordpool_576.txt	LTP342	ltpFR2	15	14	CELLAR	267	n/a	n/a	0	0	0
2732176	WORD	wordpools/wasnorm_wordpool_576.txt	LTP342	ltpFR2	15	14	WOMAN	1620	n/a	n/a	0	0	0
2734840	WORD	wordpools/wasnorm_wordpool_576.txt	LTP342	ltpFR2	15	14	GARLIC	624	n/a	n/a	0	0	0
2737424	WORD	wordpools/wasnorm_wordpool_576.txt	LTP342	ltpFR2	15	14	RAFT	1159	n/a	n/a	0	0	0
2739972	WORD	wordpools/wasnorm_wordpool_576.txt	LTP342	ltpFR2	15	14	CANDY	230	n/a	n/a	0	0	0
2742588	WORD	wordpools/wasnorm_wordpool_576.txt	LTP342	ltpFR2	15	14	PLUTO	1092	n/a	n/a	0	0	0
2745303	WORD	wordpools/wasnorm_wordpool_576.txt	LTP342	ltpFR2	15	14	KITCHEN	778	n/a	n/a	0	0	0
2747901	WORD	wordpools/wasnorm_wordpool_576.txt	LTP342	ltpFR2	15	14	STOVE	1388	n/a	n/a	0	0	0
2750650	WORD	wordpools/wasnorm_wordpool_576.txt	LTP342	ltpFR2	15	14	CHAMPAGNE	278	n/a	n/a	0	0	0
2753283	WORD	wordpools/wasnorm_wordpool_576.txt	LTP342	ltpFR2	15	14	PERFUME	1049	n/a	n/a	0	0	0
2755848	WORD	wordpools/wasnorm_wordpool_576.txt	LTP342	ltpFR2	15	14	MARROW	872	n/a	n/a	0	0	0
2758414	WORD	wordpools/wasnorm_wordpool_576.txt	LTP342	ltpFR2	15	14	BROTHER	179	n/a	n/a	0	0	0
2760945	WORD	wordpools/wasnorm_wordpool_576.txt	LTP342	ltpFR2	15	14	CROSS	413	n/a	n/a	0	0	0
2763379	WORD	wordpools/wasnorm_wordpool_576.txt	LTP342	ltpFR2	15	14	MISTER	901	n/a	n/a	0	0	0
2766061	WORD	wordpools/wasnorm_wordpool_576.txt	LTP342	ltpFR2	15	14	BARLEY	88	n/a	n/a	0	0	0
2768559	WORD	wordpools/wasnorm_wordpool_576.txt	LTP342	ltpFR2	15	14	SCARECROW	1245	n/a	n/a	0	0	0
2771075	WORD	wordpools/wasnorm_wordpool_576.txt	LTP342	ltpFR2	15	14	HOUND	724	n/a	n/a	0	0	0
2773789	WORD	wordpools/wasnorm_wordpool_576.txt	LTP342	ltpFR2	15	14	SLIDE	1326	n/a	n/a	0	0	0
2776572	WORD	wordpools/wasnorm_wordpool_576.txt	LTP342	ltpFR2	15	14	HIGHWAY	707	n/a	n/a	0	0	0
2779155	WORD	wordpools/wasnorm_wordpool_576.txt	LTP342	ltpFR2	15	14	RAZOR	1171	n/a	n/a	0	0	0
2781736	WORD	wordpools/wasnorm_wordpool_576.txt	LTP342	ltpFR2	15	14	WINDOW	1611	n/a	n/a	0	0	0
2784486	WORD	wordpools/wasnorm_wordpool_576.txt	LTP342	ltpFR2	15	14	SUPPER	1411	n/a	n/a	0	0	0
2787201	WORD	wordpools/wasnorm_wordpool_576.txt	LTP342	ltpFR2	15	14	KNAPSACK	783	n/a	n/a	0	0	0
2789682	WORD	wordpools/wasnorm_wordpool_576.txt	LTP342	ltpFR2	15	14	PACKAGE	997	n/a	n/a	0	0	0
2791299	START	n/a	LTP342	ltpFR2	15	n/a	n/a	n/a	22	n/a	n/a	n/a	n/a
2792384	DISTRACTOR	n/a	LTP342	ltpFR2	15	14	n/a	n/a	n/a	n/a	0	0	0
2792399	PROB	n/a	LTP342	ltpFR2	15	n/a	n/a	n/a	22	12	5	1	6
2794331	PROB	n/a	LTP342	ltpFR2	15	n/a	n/a	n/a	22	19	5	8	6
2795913	PROB	n/a	LTP342	ltpFR2	15	n/a	n/a	n/a	22	18	7	9	2
2797912	PROB	n/a	LTP342	ltpFR2	15	n/a	n/a	n/a	22	16	6	8	2
2799579	PROB	n/a	LTP342	ltpFR2	15	n/a	n/a	n/a	22	9	6	1	2
2801111	PROB	n/a	LTP342	ltpFR2	15	n/a	n/a	n/a	22	10	4	4	2
2803626	PROB	n/a	LTP342	ltpFR2	15	n/a	n/a	n/a	22	20	9	3	8
2805210	PROB	n/a	LTP342	ltpFR2	15	n/a	n/a	n/a	22	17	9	7	1
2806708	PROB	n/a	LTP342	ltpFR2	15	n/a	n/a	n/a	22	11	6	3	2
2809856	PROB	n/a	LTP342	ltpFR2	15	n/a	n/a	n/a	22	12	4	2	6
2812173	PROB	n/a	LTP342	ltpFR2	15	n/a	n/a	n/a	22	13	5	5	3
2813422	PROB	n/a	LTP342	ltpFR2	15	n/a	n/a	n/a	22	12	2	9	1
2814497	STOP	n/a	LTP342	ltpFR2	15	n/a	n/a	n/a	22	n/a	n/a	n/a	n/a
2817204	REC_START	n/a	LTP342	ltpFR2	15	14	n/a	n/a	n/a	n/a	0	0	0
2820848	REC_WORD	wordpools/wasnorm_wordpool_576.txt	LTP342	ltpFR2	15	14	LADY	794	n/a	n/a	0	0	0
2821845	REC_WORD	wordpools/wasnorm_wordpool_576.txt	LTP342	ltpFR2	15	14	CELLAR	267	n/a	n/a	0	0	0
2824939	REC_WORD	wordpools/wasnorm_wordpool_576.txt	LTP342	ltpFR2	15	14	PERFUME	1049	n/a	n/a	0	0	0
2825902	REC_WORD	wordpools/wasnorm_wordpool_576.txt	LTP342	ltpFR2	15	14	MARROW	872	n/a	n/a	0	0	0
2828532	REC_WORD	wordpools/wasnorm_wordpool_576.txt	LTP342	ltpFR2	15	14	KITCHEN	778	n/a	n/a	0	0	0
2829193	REC_WORD	wordpools/wasnorm_wordpool_576.txt	LTP342	ltpFR2	15	14	STOVE	1388	n/a	n/a	0	0	0
2830396	REC_WORD	wordpools/wasnorm_wordpool_576.txt	LTP342	ltpFR2	15	14	CHAMPAGNE	278	n/a	n/a	0	0	0
2832492	REC_WORD	wordpools/wasnorm_wordpool_576.txt	LTP342	ltpFR2	15	14	PLUTO	1092	n/a	n/a	0	0	0
2833577	REC_WORD	wordpools/wasnorm_wordpool_576.txt	LTP342	ltpFR2	15	14	RAFT	1159	n/a	n/a	0	0	0
2834555	REC_WORD	wordpools/wasnorm_wordpool_576.txt	LTP342	ltpFR2	15	14	CANDY	230	n/a	n/a	0	0	0
2843614	REC_WORD	wordpools/wasnorm_wordpool_576.txt	LTP342	ltpFR2	15	14	BROTHER	179	n/a	n/a	0	0	0
2844365	REC_WORD	wordpools/wasnorm_wordpool_576.txt	LTP342	ltpFR2	15	14	CROSS	413	n/a	n/a	0	0	0
2845263	REC_WORD	wordpools/wasnorm_wordpool_576.txt	LTP342	ltpFR2	15	14	MISTER	901	n/a	n/a	0	0	0
2846233	REC_WORD	wordpools/wasnorm_wordpool_576.txt	LTP342	ltpFR2	15	14	BARLEY	88	n/a	n/a	0	0	0
2848934	REC_WORD	wordpools/wasnorm_wordpool_576.txt	LTP342	ltpFR2	15	14	RAZOR	1171	n/a	n/a	0	0	0
2849553	REC_WORD	wordpools/wasnorm_wordpool_576.txt	LTP342	ltpFR2	15	14	SUPPER	1411	n/a	n/a	0	0	0
2850345	REC_WORD	wordpools/wasnorm_wordpool_576.txt	LTP342	ltpFR2	15	14	KNAPSACK	783	n/a	n/a	0	0	0
2851220	REC_WORD	wordpools/wasnorm_wordpool_576.txt	LTP342	ltpFR2	15	14	PACKAGE	997	n/a	n/a	0	0	0
2852044	REC_WORD	wordpools/wasnorm_wordpool_576.txt	LTP342	ltpFR2	15	14	WINDOW	1611	n/a	n/a	0	0	0
2854596	REC_WORD	wordpools/wasnorm_wordpool_576.txt	LTP342	ltpFR2	15	14	HIGHWAY	707	n/a	n/a	0	0	0
2871296	REC_WORD	wordpools/wasnorm_wordpool_576.txt	LTP342	ltpFR2	15	14	HOUND	724	n/a	n/a	0	0	0
2907662	WORD	wordpools/wasnorm_wordpool_576.txt	LTP342	ltpFR2	15	15	SHIRT	1287	n/a	n/a	0	0	0
2910162	WORD	wordpools/wasnorm_wordpool_576.txt	LTP342	ltpFR2	15	15	OYSTER	995	n/a	n/a	0	0	0
2912743	WORD	wordpools/wasnorm_wordpool_576.txt	LTP342	ltpFR2	15	15	SPOUSE	1358	n/a	n/a	0	0	0
2915393	WORD	wordpools/wasnorm_wordpool_576.txt	LTP342	ltpFR2	15	15	HORSE	719	n/a	n/a	0	0	0
2918042	WORD	wordpools/wasnorm_wordpool_576.txt	LTP342	ltpFR2	15	15	ICEBERG	731	n/a	n/a	0	0	0
2920656	WORD	wordpools/wasnorm_wordpool_576.txt	LTP342	ltpFR2	15	15	LACE	792	n/a	n/a	0	0	0
2923306	WORD	wordpools/wasnorm_wordpool_576.txt	LTP342	ltpFR2	15	15	WRENCH	1625	n/a	n/a	0	0	0
2925988	WORD	wordpools/wasnorm_wordpool_576.txt	LTP342	ltpFR2	15	15	PIGMENT	1066	n/a	n/a	0	0	0
2928587	WORD	wordpools/wasnorm_wordpool_576.txt	LTP342	ltpFR2	15	15	FLUTE	585	n/a	n/a	0	0	0
2931202	WORD	wordpools/wasnorm_wordpool_576.txt	LTP342	ltpFR2	15	15	PIANO	1057	n/a	n/a	0	0	0
2933733	WORD	wordpools/wasnorm_wordpool_576.txt	LTP342	ltpFR2	15	15	ROBIN	1199	n/a	n/a	0	0	0
2936200	WORD	wordpools/wasnorm_wordpool_576.txt	LTP342	ltpFR2	15	15	PECAN	1036	n/a	n/a	0	0	0
2938948	WORD	wordpools/wasnorm_wordpool_576.txt	LTP342	ltpFR2	15	15	DENTIST	447	n/a	n/a	0	0	0
2941498	WORD	wordpools/wasnorm_wordpool_576.txt	LTP342	ltpFR2	15	15	SERVER	1272	n/a	n/a	0	0	0
2944196	WORD	wordpools/wasnorm_wordpool_576.txt	LTP342	ltpFR2	15	15	GOBLIN	645	n/a	n/a	0	0	0
2946878	WORD	wordpools/wasnorm_wordpool_576.txt	LTP342	ltpFR2	15	15	THIEF	1456	n/a	n/a	0	0	0
2949577	WORD	wordpools/wasnorm_wordpool_576.txt	LTP342	ltpFR2	15	15	CASHEW	253	n/a	n/a	0	0	0
2952059	WORD	wordpools/wasnorm_wordpool_576.txt	LTP342	ltpFR2	15	15	DRINK	498	n/a	n/a	0	0	0
2954624	WORD	wordpools/wasnorm_wordpool_576.txt	LTP342	ltpFR2	15	15	FLASK	576	n/a	n/a	0	0	0
2957240	WORD	wordpools/wasnorm_wordpool_576.txt	LTP342	ltpFR2	15	15	BANJO	82	n/a	n/a	0	0	0
2959705	WORD	wordpools/wasnorm_wordpool_576.txt	LTP342	ltpFR2	15	15	CAFE	216	n/a	n/a	0	0	0
2962421	WORD	wordpools/wasnorm_wordpool_576.txt	LTP342	ltpFR2	15	15	REBEL	1172	n/a	n/a	0	0	0
2964886	WORD	wordpools/wasnorm_wordpool_576.txt	LTP342	ltpFR2	15	15	SISTER	1312	n/a	n/a	0	0	0
2967503	WORD	wordpools/wasnorm_wordpool_576.txt	LTP342	ltpFR2	15	15	DAUGHTER	442	n/a	n/a	0	0	0
2969119	START	n/a	LTP342	ltpFR2	15	n/a	n/a	n/a	23	n/a	n/a	n/a	n/a
2970009	DISTRACTOR	n/a	LTP342	ltpFR2	15	15	n/a	n/a	n/a	n/a	0	0	0
2970018	PROB	n/a	LTP342	ltpFR2	15	n/a	n/a	n/a	23	18	2	9	7
2972117	PROB	n/a	LTP342	ltpFR2	15	n/a	n/a	n/a	23	13	4	5	4
2975549	PROB	n/a	LTP342	ltpFR2	15	n/a	n/a	n/a	23	21	9	3	9
2977015	PROB	n/a	LTP342	ltpFR2	15	n/a	n/a	n/a	23	10	1	4	5
2978247	PROB	n/a	LTP342	ltpFR2	15	n/a	n/a	n/a	23	19	7	9	3
2980180	PROB	n/a	LTP342	ltpFR2	15	n/a	n/a	n/a	23	21	9	4	8
2982396	PROB	n/a	LTP342	ltpFR2	15	n/a	n/a	n/a	23	20	8	5	7
2984195	PROB	n/a	LTP342	ltpFR2	15	n/a	n/a	n/a	23	20	8	4	8
2986427	PROB	n/a	LTP342	ltpFR2	15	n/a	n/a	n/a	23	23	8	6	9
2989976	PROB	n/a	LTP342	ltpFR2	15	n/a	n/a	n/a	23	8	3	4	1
2992182	STOP	n/a	LTP342	ltpFR2	15	n/a	n/a	n/a	23	n/a	n/a	n/a	n/a
2994974	REC_START	n/a	LTP342	ltpFR2	15	15	n/a	n/a	n/a	n/a	0	0	0
2998997	REC_WORD	wordpools/wasnorm_wordpool_576.txt	LTP342	ltpFR2	15	15	CAFE	216	n/a	n/a	0	0	0
2999723	REC_WORD	wordpools/wasnorm_wordpool_576.txt	LTP342	ltpFR2	15	15	REBEL	1172	n/a	n/a	0	0	0
3000364	REC_WORD	wordpools/wasnorm_wordpool_576.txt	LTP342	ltpFR2	15	15	SISTER	1312	n/a	n/a	0	0	0
3001322	REC_WORD	wordpools/wasnorm_wordpool_576.txt	LTP342	ltpFR2	15	15	DAUGHTER	442	n/a	n/a	0	0	0
3002130	REC_WORD	wordpools/wasnorm_wordpool_576.txt	LTP342	ltpFR2	15	15	SPOUSE	1358	n/a	n/a	0	0	0
3003234	REC_WORD	wordpools/wasnorm_wordpool_576.txt	LTP342	ltpFR2	15	15	OYSTER	995	n/a	n/a	0	0	0
3003923	REC_WORD	wordpools/wasnorm_wordpool_576.txt	LTP342	ltpFR2	15	15	SHIRT	1287	n/a	n/a	0	0	0
3004812	REC_WORD	wordpools/wasnorm_wordpool_576.txt	LTP342	ltpFR2	15	15	HORSE	719	n/a	n/a	0	0	0
3005688	REC_WORD	wordpools/wasnorm_wordpool_576.txt	LTP342	ltpFR2	15	15	ICEBERG	731	n/a	n/a	0	0	0
3006666	REC_WORD	wordpools/wasnorm_wordpool_576.txt	LTP342	ltpFR2	15	15	WRENCH	1625	n/a	n/a	0	0	0
3007382	REC_WORD	wordpools/wasnorm_wordpool_576.txt	LTP342	ltpFR2	15	15	PIGMENT	1066	n/a	n/a	0	0	0
3008176	REC_WORD	wordpools/wasnorm_wordpool_576.txt	LTP342	ltpFR2	15	15	FLUTE	585	n/a	n/a	0	0	0
3008913	REC_WORD	wordpools/wasnorm_wordpool_576.txt	LTP342	ltpFR2	15	15	PIANO	1057	n/a	n/a	0	0	0
3009841	REC_WORD	wordpools/wasnorm_wordpool_576.txt	LTP342	ltpFR2	15	15	BANJO	82	n/a	n/a	0	0	0
3022826	REC_WORD	wordpools/wasnorm_wordpool_576.txt	LTP342	ltpFR2	15	15	CASHEW	253	n/a	n/a	0	0	0
3024585	REC_WORD	wordpools/wasnorm_wordpool_576.txt	LTP342	ltpFR2	15	15	FLASK	576	n/a	n/a	0	0	0
3025501	REC_WORD	wordpools/wasnorm_wordpool_576.txt	LTP342	ltpFR2	15	15	DRINK	498	n/a	n/a	0	0	0
3085416	WORD	wordpools/wasnorm_wordpool_576.txt	LTP342	ltpFR2	15	16	CRITIC	410	n/a	n/a	0	0	0
3088131	WORD	wordpools/wasnorm_wordpool_576.txt	LTP342	ltpFR2	15	16	SPACE	1345	n/a	n/a	0	0	0
3090812	WORD	wordpools/wasnorm_wordpool_576.txt	LTP342	ltpFR2	15	16	COMET	353	n/a	n/a	0	0	0
3093362	WORD	wordpools/wasnorm_wordpool_576.txt	LTP342	ltpFR2	15	16	STONE	1385	n/a	n/a	0	0	0
3095843	WORD	wordpools/wasnorm_wordpool_576.txt	LTP342	ltpFR2	15	16	BLADE	134	n/a	n/a	0	0	0
3098510	WORD	wordpools/wasnorm_wordpool_576.txt	LTP342	ltpFR2	15	16	DOLPHIN	483	n/a	n/a	0	0	0
3101108	WORD	wordpools/wasnorm_wordpool_576.txt	LTP342	ltpFR2	15	16	HOOK	715	n/a	n/a	0	0	0
3103606	WORD	wordpools/wasnorm_wordpool_576.txt	LTP342	ltpFR2	15	16	BRICK	172	n/a	n/a	0	0	0
3106156	WORD	wordpools/wasnorm_wordpool_576.txt	LTP342	ltpFR2	15	16	SHERIFF	1284	n/a	n/a	0	0	0
3108954	WORD	wordpools/wasnorm_wordpool_576.txt	LTP342	ltpFR2	15	16	COCOON	339	n/a	n/a	0	0	0
3111520	WORD	wordpools/wasnorm_wordpool_576.txt	LTP342	ltpFR2	15	16	WASHER	1592	n/a	n/a	0	0	0
3114253	WORD	wordpools/wasnorm_wordpool_576.txt	LTP342	ltpFR2	15	16	MACHINE	852	n/a	n/a	0	0	0
3116784	WORD	wordpools/wasnorm_wordpool_576.txt	LTP342	ltpFR2	15	16	PEACH	1031	n/a	n/a	0	0	0
3119483	WORD	wordpools/wasnorm_wordpool_576.txt	LTP342	ltpFR2	15	16	QUAIL	1147	n/a	n/a	0	0	0
3122116	WORD	wordpools/wasnorm_wordpool_576.txt	LTP342	ltpFR2	15	16	BEEF	113	n/a	n/a	0	0	0
3124713	WORD	wordpools/wasnorm_wordpool_576.txt	LTP342	ltpFR2	15	16	PEBBLE	1035	n/a	n/a	0	0	0
3127247	WORD	wordpools/wasnorm_wordpool_576.txt	LTP342	ltpFR2	15	16	RADISH	1158	n/a	n/a	0	0	0
3130012	WORD	wordpools/wasnorm_wordpool_576.txt	LTP342	ltpFR2	15	16	TWEEZERS	1526	n/a	n/a	0	0	0
3132511	WORD	wordpools/wasnorm_wordpool_576.txt	LTP342	ltpFR2	15	16	LODGE	839	n/a	n/a	0	0	0
3135310	WORD	wordpools/wasnorm_wordpool_576.txt	LTP342	ltpFR2	15	16	TILE	1468	n/a	n/a	0	0	0
3137975	WORD	wordpools/wasnorm_wordpool_576.txt	LTP342	ltpFR2	15	16	HERO	706	n/a	n/a	0	0	0
3140590	WORD	wordpools/wasnorm_wordpool_576.txt	LTP342	ltpFR2	15	16	WIDOW	1608	n/a	n/a	0	0	0
3143156	WORD	wordpools/wasnorm_wordpool_576.txt	LTP342	ltpFR2	15	16	TABLE	1426	n/a	n/a	0	0	0
3145620	WORD	wordpools/wasnorm_wordpool_576.txt	LTP342	ltpFR2	15	16	PLASTER	1085	n/a	n/a	0	0	0
3147221	START	n/a	LTP342	ltpFR2	15	n/a	n/a	n/a	24	n/a	n/a	n/a	n/a
3148066	DISTRACTOR	n/a	LTP342	ltpFR2	15	16	n/a	n/a	n/a	n/a	0	0	0
3148070	PROB	n/a	LTP342	ltpFR2	15	n/a	n/a	n/a	24	14	8	4	2
3150569	PROB	n/a	LTP342	ltpFR2	15	n/a	n/a	n/a	24	11	3	5	3
3152385	PROB	n/a	LTP342	ltpFR2	15	n/a	n/a	n/a	24	15	9	5	1
3153933	PROB	n/a	LTP342	ltpFR2	15	n/a	n/a	n/a	24	15	5	7	3
3156250	PROB	n/a	LTP342	ltpFR2	15	n/a	n/a	n/a	24	13	4	2	7
3157865	PROB	n/a	LTP342	ltpFR2	15	n/a	n/a	n/a	24	26	9	8	9
3160365	PROB	n/a	LTP342	ltpFR2	15	n/a	n/a	n/a	24	13	6	3	4
3162181	PROB	n/a	LTP342	ltpFR2	15	n/a	n/a	n/a	24	20	7	7	6
3163547	PROB	n/a	LTP342	ltpFR2	15	n/a	n/a	n/a	24	9	2	2	5
3164878	PROB	n/a	LTP342	ltpFR2	15	n/a	n/a	n/a	24	12	7	3	2
3166479	PROB	n/a	LTP342	ltpFR2	15	n/a	n/a	n/a	24	12	2	5	5
3167677	PROB	n/a	LTP342	ltpFR2	15	n/a	n/a	n/a	24	15	4	5	6
3171221	STOP	n/a	LTP342	ltpFR2	15	n/a	n/a	n/a	24	n/a	n/a	n/a	n/a
3173109	REC_START	n/a	LTP342	ltpFR2	15	16	n/a	n/a	n/a	n/a	0	0	0
3177323	REC_WORD	wordpools/wasnorm_wordpool_576.txt	LTP342	ltpFR2	15	16	SPACE	1345	n/a	n/a	0	0	0
3178230	REC_WORD	wordpools/wasnorm_wordpool_576.txt	LTP342	ltpFR2	15	16	CRITIC	410	n/a	n/a	0	0	0
3179423	REC_WORD	wordpools/wasnorm_wordpool_576.txt	LTP342	ltpFR2	15	16	COMET	353	n/a	n/a	0	0	0
3180401	REC_WORD	wordpools/wasnorm_wordpool_576.txt	LTP342	ltpFR2	15	16	ROCK	1201	n/a	n/a	0	0	0
3181333	REC_WORD	wordpools/wasnorm_wordpool_576.txt	LTP342	ltpFR2	15	16	BLADE	134	n/a	n/a	0	0	0
3182165	REC_WORD	wordpools/wasnorm_wordpool_576.txt	LTP342	ltpFR2	15	16	HOOK	715	n/a	n/a	0	0	0
3183811	REC_WORD	wordpools/wasnorm_wordpool_576.txt	LTP342	ltpFR2	15	16	DOLPHIN	483	n/a	n/a	0	0	0
3184845	REC_WORD	wordpools/wasnorm_wordpool_576.txt	LTP342	ltpFR2	15	16	BRICK	172	n/a	n/a	0	0	0
3186267	REC_WORD	wordpools/wasnorm_wordpool_576.txt	LTP342	ltpFR2	15	16	WASHER	1592	n/a	n/a	0	0	0
3187242	REC_WORD	wordpools/wasnorm_wordpool_576.txt	LTP342	ltpFR2	15	16	MACHINE	852	n/a	n/a	0	0	0
3190022	REC_WORD	wordpools/wasnorm_wordpool_576.txt	LTP342	ltpFR2	15	16	PEACH	1031	n/a	n/a	0	0	0
3190950	REC_WORD	wordpools/wasnorm_wordpool_576.txt	LTP342	ltpFR2	15	16	QUAIL	1147	n/a	n/a	0	0	0
3191998	REC_WORD	wordpools/wasnorm_wordpool_576.txt	LTP342	ltpFR2	15	16	BEEF	113	n/a	n/a	0	0	0
3192791	REC_WORD	wordpools/wasnorm_wordpool_576.txt	LTP342	ltpFR2	15	16	SHERIFF	1284	n/a	n/a	0	0	0
3249657	REST_REWET	n/a	LTP342	ltpFR2	15	16	n/a	n/a	n/a	n/a	0	0	0
3318942	WORD	wordpools/wasnorm_wordpool_576.txt	LTP342	ltpFR2	15	17	PIMPLE	1071	n/a	n/a	0	0	0
3321707	WORD	wordpools/wasnorm_wordpool_576.txt	LTP342	ltpFR2	15	17	ZEBRA	1635	n/a	n/a	0	0	0
3324207	WORD	wordpools/wasnorm_wordpool_576.txt	LTP342	ltpFR2	15	17	BREAST	171	n/a	n/a	0	0	0
3326855	WORD	wordpools/wasnorm_wordpool_576.txt	LTP342	ltpFR2	15	17	FEMALE	559	n/a	n/a	0	0	0
3329455	WORD	wordpools/wasnorm_wordpool_576.txt	LTP342	ltpFR2	15	17	PARENT	1013	n/a	n/a	0	0	0
3331987	WORD	wordpools/wasnorm_wordpool_576.txt	LTP342	ltpFR2	15	17	BLACKBOARD	133	n/a	n/a	0	0	0
3334469	WORD	wordpools/wasnorm_wordpool_576.txt	LTP342	ltpFR2	15	17	TREAT	1501	n/a	n/a	0	0	0
3336900	WORD	wordpools/wasnorm_wordpool_576.txt	LTP342	ltpFR2	15	17	BLOUSE	139	n/a	n/a	0	0	0
3339400	WORD	wordpools/wasnorm_wordpool_576.txt	LTP342	ltpFR2	15	17	BARREL	91	n/a	n/a	0	0	0
3342099	WORD	wordpools/wasnorm_wordpool_576.txt	LTP342	ltpFR2	15	17	OUTLAW	989	n/a	n/a	0	0	0
3344598	WORD	wordpools/wasnorm_wordpool_576.txt	LTP342	ltpFR2	15	17	TART	1436	n/a	n/a	0	0	0
3347230	WORD	wordpools/wasnorm_wordpool_576.txt	LTP342	ltpFR2	15	17	GARBAGE	622	n/a	n/a	0	0	0
3350012	WORD	wordpools/wasnorm_wordpool_576.txt	LTP342	ltpFR2	15	17	SHOULDER	1294	n/a	n/a	0	0	0
3352826	WORD	wordpools/wasnorm_wordpool_576.txt	LTP342	ltpFR2	15	17	COLLEGE	346	n/a	n/a	0	0	0
3355443	WORD	wordpools/wasnorm_wordpool_576.txt	LTP342	ltpFR2	15	17	BOYFRIEND	162	n/a	n/a	0	0	0
3358075	WORD	wordpools/wasnorm_wordpool_576.txt	LTP342	ltpFR2	15	17	PARTNER	1017	n/a	n/a	0	0	0
3360856	WORD	wordpools/wasnorm_wordpool_576.txt	LTP342	ltpFR2	15	17	PILOT	1070	n/a	n/a	0	0	0
3363306	WORD	wordpools/wasnorm_wordpool_576.txt	LTP342	ltpFR2	15	17	AIRPLANE	12	n/a	n/a	0	0	0
3366088	WORD	wordpools/wasnorm_wordpool_576.txt	LTP342	ltpFR2	15	17	FRANCE	601	n/a	n/a	0	0	0
3368537	WORD	wordpools/wasnorm_wordpool_576.txt	LTP342	ltpFR2	15	17	EUROPE	541	n/a	n/a	0	0	0
3371286	WORD	wordpools/wasnorm_wordpool_576.txt	LTP342	ltpFR2	15	17	ULCER	1533	n/a	n/a	0	0	0
3374084	WORD	wordpools/wasnorm_wordpool_576.txt	LTP342	ltpFR2	15	17	SCRIBBLE	1256	n/a	n/a	0	0	0
3376849	WORD	wordpools/wasnorm_wordpool_576.txt	LTP342	ltpFR2	15	17	VAGRANT	1544	n/a	n/a	0	0	0
3379282	WORD	wordpools/wasnorm_wordpool_576.txt	LTP342	ltpFR2	15	17	LAPEL	800	n/a	n/a	0	0	0
3380897	START	n/a	LTP342	ltpFR2	15	n/a	n/a	n/a	25	n/a	n/a	n/a	n/a
3381828	DISTRACTOR	n/a	LTP342	ltpFR2	15	17	n/a	n/a	n/a	n/a	0	0	0
3381830	PROB	n/a	LTP342	ltpFR2	15	n/a	n/a	n/a	25	13	4	3	6
3384530	PROB	n/a	LTP342	ltpFR2	15	n/a	n/a	n/a	25	14	4	2	8
3386479	PROB	n/a	LTP342	ltpFR2	15	n/a	n/a	n/a	25	23	8	7	7
3388743	PROB	n/a	LTP342	ltpFR2	15	n/a	n/a	n/a	25	11	8	1	2
3390160	PROB	n/a	LTP342	ltpFR2	15	n/a	n/a	n/a	25	19	6	5	8
3391593	PROB	n/a	LTP342	ltpFR2	15	n/a	n/a	n/a	25	14	4	2	8
3393326	PROB	n/a	LTP342	ltpFR2	15	n/a	n/a	n/a	25	9	3	4	2
3395158	PROB	n/a	LTP342	ltpFR2	15	n/a	n/a	n/a	25	17	9	7	1
3397174	PROB	n/a	LTP342	ltpFR2	15	n/a	n/a	n/a	25	13	3	4	6
3398739	PROB	n/a	LTP342	ltpFR2	15	n/a	n/a	n/a	25	15	3	8	4
3400189	PROB	n/a	LTP342	ltpFR2	15	n/a	n/a	n/a	25	19	6	8	5
3403238	PROB	n/a	LTP342	ltpFR2	15	n/a	n/a	n/a	25	14	2	3	9
3404745	STOP	n/a	LTP342	ltpFR2	15	n/a	n/a	n/a	25	n/a	n/a	n/a	n/a
3406736	REC_START	n/a	LTP342	ltpFR2	15	17	n/a	n/a	n/a	n/a	0	0	0
3408932	REC_WORD	wordpools/wasnorm_wordpool_576.txt	LTP342	ltpFR2	15	17	ZEBRA	1635	n/a	n/a	0	0	0
3409860	REC_WORD	wordpools/wasnorm_wordpool_576.txt	LTP342	ltpFR2	15	17	PIMPLE	1071	n/a	n/a	0	0	0
3411196	REC_WORD	wordpools/wasnorm_wordpool_576.txt	LTP342	ltpFR2	15	17	BREAST	171	n/a	n/a	0	0	0
3412119	REC_WORD	wordpools/wasnorm_wordpool_576.txt	LTP342	ltpFR2	15	17	FEMALE	559	n/a	n/a	0	0	0
3413548	REC_WORD	wordpools/wasnorm_wordpool_576.txt	LTP342	ltpFR2	15	17	PARENT	1013	n/a	n/a	0	0	0
3416822	REC_WORD	wordpools/wasnorm_wordpool_576.txt	LTP342	ltpFR2	15	17	BLACKBOARD	133	n/a	n/a	0	0	0
3417962	REC_WORD	wordpools/wasnorm_wordpool_576.txt	LTP342	ltpFR2	15	17	TREAT	1501	n/a	n/a	0	0	0
3419066	REC_WORD	wordpools/wasnorm_wordpool_576.txt	LTP342	ltpFR2	15	17	BARREL	91	n/a	n/a	0	0	0
3420316	REC_WORD	wordpools/wasnorm_wordpool_576.txt	LTP342	ltpFR2	15	17	OUTLAW	989	n/a	n/a	0	0	0
3421723	REC_WORD	wordpools/wasnorm_wordpool_576.txt	LTP342	ltpFR2	15	17	BLOUSE	139	n/a	n/a	0	0	0
3424201	REC_WORD	wordpools/wasnorm_wordpool_576.txt	LTP342	ltpFR2	15	17	TART	1436	n/a	n/a	0	0	0
3424999	REC_WORD	wordpools/wasnorm_wordpool_576.txt	LTP342	ltpFR2	15	17	GARBAGE	622	n/a	n/a	0	0	0
3425801	REC_WORD	wordpools/wasnorm_wordpool_576.txt	LTP342	ltpFR2	15	17	SHOULDER	1294	n/a	n/a	0	0	0
3426880	REC_WORD	wordpools/wasnorm_wordpool_576.txt	LTP342	ltpFR2	15	17	COLLEGE	346	n/a	n/a	0	0	0
3428441	REC_WORD	wordpools/wasnorm_wordpool_576.txt	LTP342	ltpFR2	15	17	AIRPLANE	12	n/a	n/a	0	0	0
3429289	REC_WORD	wordpools/wasnorm_wordpool_576.txt	LTP342	ltpFR2	15	17	PILOT	1070	n/a	n/a	0	0	0
3430013	REC_WORD	wordpools/wasnorm_wordpool_576.txt	LTP342	ltpFR2	15	17	FRANCE	601	n/a	n/a	0	0	0
3430931	REC_WORD	wordpools/wasnorm_wordpool_576.txt	LTP342	ltpFR2	15	17	EUROPE	541	n/a	n/a	0	0	0
3431725	REC_WORD	wordpools/wasnorm_wordpool_576.txt	LTP342	ltpFR2	15	17	BOYFRIEND	162	n/a	n/a	0	0	0
3432560	REC_WORD	wordpools/wasnorm_wordpool_576.txt	LTP342	ltpFR2	15	17	PARTNER	1017	n/a	n/a	0	0	0
3439278	REC_WORD	wordpools/wasnorm_wordpool_576.txt	LTP342	ltpFR2	15	17	VAGRANT	1544	n/a	n/a	0	0	0
3440174	REC_WORD	wordpools/wasnorm_wordpool_576.txt	LTP342	ltpFR2	15	17	LAPEL	800	n/a	n/a	0	0	0
3497212	WORD	wordpools/wasnorm_wordpool_576.txt	LTP342	ltpFR2	15	18	ROOSTER	1209	n/a	n/a	0	0	0
3499843	WORD	wordpools/wasnorm_wordpool_576.txt	LTP342	ltpFR2	15	18	FOOT	590	n/a	n/a	0	0	0
3502559	WORD	wordpools/wasnorm_wordpool_576.txt	LTP342	ltpFR2	15	18	GLOVE	642	n/a	n/a	0	0	0
3505075	WORD	wordpools/wasnorm_wordpool_576.txt	LTP342	ltpFR2	15	18	FRECKLE	602	n/a	n/a	0	0	0
3507540	WORD	wordpools/wasnorm_wordpool_576.txt	LTP342	ltpFR2	15	18	CHURCH	307	n/a	n/a	0	0	0
3510089	WORD	wordpools/wasnorm_wordpool_576.txt	LTP342	ltpFR2	15	18	BUCKET	184	n/a	n/a	0	0	0
3512720	WORD	wordpools/wasnorm_wordpool_576.txt	LTP342	ltpFR2	15	18	HORNET	718	n/a	n/a	0	0	0
3515470	WORD	wordpools/wasnorm_wordpool_576.txt	LTP342	ltpFR2	15	18	WORKER	1621	n/a	n/a	0	0	0
3517918	WORD	wordpools/wasnorm_wordpool_576.txt	LTP342	ltpFR2	15	18	BACKBONE	66	n/a	n/a	0	0	0
3520650	WORD	wordpools/wasnorm_wordpool_576.txt	LTP342	ltpFR2	15	18	YARN	1631	n/a	n/a	0	0	0
3523183	WORD	wordpools/wasnorm_wordpool_576.txt	LTP342	ltpFR2	15	18	SLIME	1327	n/a	n/a	0	0	0
3525848	WORD	wordpools/wasnorm_wordpool_576.txt	LTP342	ltpFR2	15	18	SCALPEL	1243	n/a	n/a	0	0	0
3528431	WORD	wordpools/wasnorm_wordpool_576.txt	LTP342	ltpFR2	15	18	JAPAN	749	n/a	n/a	0	0	0
3531030	WORD	wordpools/wasnorm_wordpool_576.txt	LTP342	ltpFR2	15	18	HOOD	714	n/a	n/a	0	0	0
3533761	WORD	wordpools/wasnorm_wordpool_576.txt	LTP342	ltpFR2	15	18	CHEST	295	n/a	n/a	0	0	0
3536394	WORD	wordpools/wasnorm_wordpool_576.txt	LTP342	ltpFR2	15	18	BANQUET	86	n/a	n/a	0	0	0
3539026	WORD	wordpools/wasnorm_wordpool_576.txt	LTP342	ltpFR2	15	18	PADDLE	1000	n/a	n/a	0	0	0
3541624	WORD	wordpools/wasnorm_wordpool_576.txt	LTP342	ltpFR2	15	18	VIKING	1565	n/a	n/a	0	0	0
3544390	WORD	wordpools/wasnorm_wordpool_576.txt	LTP342	ltpFR2	15	18	WAITRESS	1581	n/a	n/a	0	0	0
3547056	WORD	wordpools/wasnorm_wordpool_576.txt	LTP342	ltpFR2	15	18	SERVANT	1271	n/a	n/a	0	0	0
3549787	WORD	wordpools/wasnorm_wordpool_576.txt	LTP342	ltpFR2	15	18	CREATURE	403	n/a	n/a	0	0	0
3552487	WORD	wordpools/wasnorm_wordpool_576.txt	LTP342	ltpFR2	15	18	FOOTBALL	591	n/a	n/a	0	0	0
3555269	WORD	wordpools/wasnorm_wordpool_576.txt	LTP342	ltpFR2	15	18	SPOON	1357	n/a	n/a	0	0	0
3557750	WORD	wordpools/wasnorm_wordpool_576.txt	LTP342	ltpFR2	15	18	CHAPEL	280	n/a	n/a	0	0	0
3559367	START	n/a	LTP342	ltpFR2	15	n/a	n/a	n/a	26	n/a	n/a	n/a	n/a
3560344	DISTRACTOR	n/a	LTP342	ltpFR2	15	18	n/a	n/a	n/a	n/a	0	0	0
3560350	PROB	n/a	LTP342	ltpFR2	15	n/a	n/a	n/a	26	10	1	5	4
3562631	PROB	n/a	LTP342	ltpFR2	15	n/a	n/a	n/a	26	9	1	7	1
3564081	PROB	n/a	LTP342	ltpFR2	15	n/a	n/a	n/a	26	12	6	2	4
3565564	PROB	n/a	LTP342	ltpFR2	15	n/a	n/a	n/a	26	25	9	9	7
3567563	PROB	n/a	LTP342	ltpFR2	15	n/a	n/a	n/a	26	15	2	9	4
3568996	PROB	n/a	LTP342	ltpFR2	15	n/a	n/a	n/a	26	7	3	1	3
3570295	PROB	n/a	LTP342	ltpFR2	15	n/a	n/a	n/a	26	5	2	1	2
3571627	PROB	n/a	LTP342	ltpFR2	15	n/a	n/a	n/a	26	18	4	7	7
3573460	PROB	n/a	LTP342	ltpFR2	15	n/a	n/a	n/a	26	5	1	2	2
3574460	PROB	n/a	LTP342	ltpFR2	15	n/a	n/a	n/a	26	8	1	4	2
3576126	PROB	n/a	LTP342	ltpFR2	15	n/a	n/a	n/a	26	3	1	1	1
3577175	PROB	n/a	LTP342	ltpFR2	15	n/a	n/a	n/a	26	20	6	7	7
3578640	PROB	n/a	LTP342	ltpFR2	15	n/a	n/a	n/a	26	13	1	7	5
3583366	STOP	n/a	LTP342	ltpFR2	15	n/a	n/a	n/a	26	n/a	n/a	n/a	n/a
3585272	REC_START	n/a	LTP342	ltpFR2	15	18	n/a	n/a	n/a	n/a	0	0	0
3587542	REC_WORD	wordpools/wasnorm_wordpool_576.txt	LTP342	ltpFR2	15	18	ROOSTER	1209	n/a	n/a	0	0	0
3588182	REC_WORD	wordpools/wasnorm_wordpool_576.txt	LTP342	ltpFR2	15	18	FOOT	590	n/a	n/a	0	0	0
3589026	REC_WORD	wordpools/wasnorm_wordpool_576.txt	LTP342	ltpFR2	15	18	GLOVE	642	n/a	n/a	0	0	0
3589646	REC_WORD	wordpools/wasnorm_wordpool_576.txt	LTP342	ltpFR2	15	18	FRECKLE	602	n/a	n/a	0	0	0
3592087	REC_WORD	wordpools/wasnorm_wordpool_576.txt	LTP342	ltpFR2	15	18	CHURCH	307	n/a	n/a	0	0	0
3593847	REC_WORD	wordpools/wasnorm_wordpool_576.txt	LTP342	ltpFR2	15	18	BUCKET	184	n/a	n/a	0	0	0
3594645	REC_WORD	wordpools/wasnorm_wordpool_576.txt	LTP342	ltpFR2	15	18	HORNET	718	n/a	n/a	0	0	0
3595818	REC_WORD	wordpools/wasnorm_wordpool_576.txt	LTP342	ltpFR2	15	18	WORKER	1621	n/a	n/a	0	0	0
3596955	REC_WORD	wordpools/wasnorm_wordpool_576.txt	LTP342	ltpFR2	15	18	BACKBONE	66	n/a	n/a	0	0	0
3597930	REC_WORD	wordpools/wasnorm_wordpool_576.txt	LTP342	ltpFR2	15	18	YARN	1631	n/a	n/a	0	0	0
3598654	REC_WORD	wordpools/wasnorm_wordpool_576.txt	LTP342	ltpFR2	15	18	SLIME	1327	n/a	n/a	0	0	0
3599678	REC_WORD	wordpools/wasnorm_wordpool_576.txt	LTP342	ltpFR2	15	18	JAPAN	749	n/a	n/a	0	0	0
3600570	REC_WORD	wordpools/wasnorm_wordpool_576.txt	LTP342	ltpFR2	15	18	HOOD	714	n/a	n/a	0	0	0
3601627	REC_WORD	wordpools/wasnorm_wordpool_576.txt	LTP342	ltpFR2	15	18	CHEST	295	n/a	n/a	0	0	0
3604091	REC_WORD	wordpools/wasnorm_wordpool_576.txt	LTP342	ltpFR2	15	18	BANQUET	86	n/a	n/a	0	0	0
3607232	REC_WORD	wordpools/wasnorm_wordpool_576.txt	LTP342	ltpFR2	15	18	PADDLE	1000	n/a	n/a	0	0	0
3608009	REC_WORD	wordpools/wasnorm_wordpool_576.txt	LTP342	ltpFR2	15	18	VIKING	1565	n/a	n/a	0	0	0
3609754	REC_WORD	wordpools/wasnorm_wordpool_576.txt	LTP342	ltpFR2	15	18	WAITRESS	1581	n/a	n/a	0	0	0
3610607	REC_WORD	wordpools/wasnorm_wordpool_576.txt	LTP342	ltpFR2	15	18	SERVANT	1271	n/a	n/a	0	0	0
3611495	REC_WORD	wordpools/wasnorm_wordpool_576.txt	LTP342	ltpFR2	15	18	SPOON	1357	n/a	n/a	0	0	0
3614396	REC_WORD	wordpools/wasnorm_wordpool_576.txt	LTP342	ltpFR2	15	18	CHAPEL	280	n/a	n/a	0	0	0
3675713	DISTRACTOR	n/a	LTP342	ltpFR2	15	19	n/a	n/a	n/a	n/a	0	0	0
3675713	START	n/a	LTP342	ltpFR2	15	n/a	n/a	n/a	27	n/a	n/a	n/a	n/a
3675730	PROB	n/a	LTP342	ltpFR2	15	n/a	n/a	n/a	27	15	4	7	4
3677347	PROB	n/a	LTP342	ltpFR2	15	n/a	n/a	n/a	27	13	8	2	3
3678612	PROB	n/a	LTP342	ltpFR2	15	n/a	n/a	n/a	27	7	3	3	1
3679778	PROB	n/a	LTP342	ltpFR2	15	n/a	n/a	n/a	27	16	2	7	7
3682760	PROB	n/a	LTP342	ltpFR2	15	n/a	n/a	n/a	27	12	1	3	8
3684010	PROB	n/a	LTP342	ltpFR2	15	n/a	n/a	n/a	27	17	8	4	5
3685426	PROB	n/a	LTP342	ltpFR2	15	n/a	n/a	n/a	27	4	1	2	1
3686608	PROB	n/a	LTP342	ltpFR2	15	n/a	n/a	n/a	27	21	5	8	9
3688325	PROB	n/a	LTP342	ltpFR2	15	n/a	n/a	n/a	27	16	3	5	8
3690357	PROB	n/a	LTP342	ltpFR2	15	n/a	n/a	n/a	27	16	7	5	4
3691872	PROB	n/a	LTP342	ltpFR2	15	n/a	n/a	n/a	27	15	2	8	5
3693123	PROB	n/a	LTP342	ltpFR2	15	n/a	n/a	n/a	27	18	7	9	2
3695472	PROB	n/a	LTP342	ltpFR2	15	n/a	n/a	n/a	27	8	2	2	4
3696620	PROB	n/a	LTP342	ltpFR2	15	n/a	n/a	n/a	27	10	2	2	6
3697853	PROB	n/a	LTP342	ltpFR2	15	n/a	n/a	n/a	27	15	6	6	3
3699043	STOP	n/a	LTP342	ltpFR2	15	n/a	n/a	n/a	27	n/a	n/a	n/a	n/a
3700569	WORD	wordpools/wasnorm_wordpool_576.txt	LTP342	ltpFR2	15	19	PASTA	1021	n/a	n/a	0	0	0
3703135	WORD	wordpools/wasnorm_wordpool_576.txt	LTP342	ltpFR2	15	19	PADDING	999	n/a	n/a	0	0	0
3705932	WORD	wordpools/wasnorm_wordpool_576.txt	LTP342	ltpFR2	15	19	OMELET	976	n/a	n/a	0	0	0
