mstime	trial_type	stim_file	subject	experiment	session	trial	item_name	item_num	list	answer	test_x	test_y	test_z
0	SESS_START	n/a	LTP379	ltpFR2	15	n/a	n/a	n/a	n/a	n/a	0	0	0
14485	START	n/a	LTP379	ltpFR2	15	n/a	n/a	n/a	-1	n/a	n/a	n/a	n/a
14516	PROB	n/a	LTP379	ltpFR2	15	n/a	n/a	n/a	-1	11	6	2	3
16599	PROB	n/a	LTP379	ltpFR2	15	n/a	n/a	n/a	-1	13	3	6	4
18100	PROB	n/a	LTP379	ltpFR2	15	n/a	n/a	n/a	-1	20	9	5	6
19699	PROB	n/a	LTP379	ltpFR2	15	n/a	n/a	n/a	-1	17	7	5	5
21033	PROB	n/a	LTP379	ltpFR2	15	n/a	n/a	n/a	-1	10	5	3	2
22350	PROB	n/a	LTP379	ltpFR2	15	n/a	n/a	n/a	-1	23	8	6	9
24916	PROB	n/a	LTP379	ltpFR2	15	n/a	n/a	n/a	-1	18	5	8	5
26047	STOP	n/a	LTP379	ltpFR2	15	n/a	n/a	n/a	-1	n/a	n/a	n/a	n/a
57132	DISTRACTOR	n/a	LTP379	ltpFR2	15	1	n/a	n/a	n/a	n/a	0	0	0
57133	START	n/a	LTP379	ltpFR2	15	n/a	n/a	n/a	1	n/a	n/a	n/a	n/a
57149	PROB	n/a	LTP379	ltpFR2	15	n/a	n/a	n/a	1	20	8	6	6
58448	PROB	n/a	LTP379	ltpFR2	15	n/a	n/a	n/a	1	11	1	1	9
59565	PROB	n/a	LTP379	ltpFR2	15	n/a	n/a	n/a	1	20	3	9	8
61199	PROB	n/a	LTP379	ltpFR2	15	n/a	n/a	n/a	1	18	1	8	9
62481	PROB	n/a	LTP379	ltpFR2	15	n/a	n/a	n/a	1	12	2	5	5
63665	PROB	n/a	LTP379	ltpFR2	15	n/a	n/a	n/a	1	21	9	7	5
65282	PROB	n/a	LTP379	ltpFR2	15	n/a	n/a	n/a	1	11	1	2	8
66399	PROB	n/a	LTP379	ltpFR2	15	n/a	n/a	n/a	1	19	2	9	8
67932	PROB	n/a	LTP379	ltpFR2	15	n/a	n/a	n/a	1	12	6	1	5
69431	PROB	n/a	LTP379	ltpFR2	15	n/a	n/a	n/a	1	10	1	7	2
70698	PROB	n/a	LTP379	ltpFR2	15	n/a	n/a	n/a	1	12	6	3	3
72232	PROB	n/a	LTP379	ltpFR2	15	n/a	n/a	n/a	1	5	1	1	3
73282	PROB	n/a	LTP379	ltpFR2	15	n/a	n/a	n/a	1	12	3	6	3
74932	PROB	n/a	LTP379	ltpFR2	15	n/a	n/a	n/a	1	14	1	6	7
76681	PROB	n/a	LTP379	ltpFR2	15	n/a	n/a	n/a	1	15	8	6	1
78149	PROB	n/a	LTP379	ltpFR2	15	n/a	n/a	n/a	1	19	9	9	1
79615	STOP	n/a	LTP379	ltpFR2	15	n/a	n/a	n/a	1	n/a	n/a	n/a	n/a
82315	WORD	wordpools/wasnorm_wordpool_576.txt	LTP379	ltpFR2	15	1	MOTOR	922	n/a	n/a	0	0	0
85115	WORD	wordpools/wasnorm_wordpool_576.txt	LTP379	ltpFR2	15	1	HORNET	718	n/a	n/a	0	0	0
87614	WORD	wordpools/wasnorm_wordpool_576.txt	LTP379	ltpFR2	15	1	PRINCESS	1125	n/a	n/a	0	0	0
90365	WORD	wordpools/wasnorm_wordpool_576.txt	LTP379	ltpFR2	15	1	EMPIRE	530	n/a	n/a	0	0	0
92982	WORD	wordpools/wasnorm_wordpool_576.txt	LTP379	ltpFR2	15	1	FRANCE	601	n/a	n/a	0	0	0
95448	WORD	wordpools/wasnorm_wordpool_576.txt	LTP379	ltpFR2	15	1	STAMP	1370	n/a	n/a	0	0	0
98265	WORD	wordpools/wasnorm_wordpool_576.txt	LTP379	ltpFR2	15	1	BLUEPRINT	142	n/a	n/a	0	0	0
101048	WORD	wordpools/wasnorm_wordpool_576.txt	LTP379	ltpFR2	15	1	PLIERS	1089	n/a	n/a	0	0	0
103814	WORD	wordpools/wasnorm_wordpool_576.txt	LTP379	ltpFR2	15	1	CROWN	415	n/a	n/a	0	0	0
106597	WORD	wordpools/wasnorm_wordpool_576.txt	LTP379	ltpFR2	15	1	PALACE	1006	n/a	n/a	0	0	0
109048	WORD	wordpools/wasnorm_wordpool_576.txt	LTP379	ltpFR2	15	1	SPOON	1357	n/a	n/a	0	0	0
111814	WORD	wordpools/wasnorm_wordpool_576.txt	LTP379	ltpFR2	15	1	SERVANT	1271	n/a	n/a	0	0	0
114497	WORD	wordpools/wasnorm_wordpool_576.txt	LTP379	ltpFR2	15	1	WAITER	1580	n/a	n/a	0	0	0
117131	WORD	wordpools/wasnorm_wordpool_576.txt	LTP379	ltpFR2	15	1	SODA	1341	n/a	n/a	0	0	0
119564	WORD	wordpools/wasnorm_wordpool_576.txt	LTP379	ltpFR2	15	1	YARN	1631	n/a	n/a	0	0	0
122331	WORD	wordpools/wasnorm_wordpool_576.txt	LTP379	ltpFR2	15	1	COTTAGE	384	n/a	n/a	0	0	0
124847	WORD	wordpools/wasnorm_wordpool_576.txt	LTP379	ltpFR2	15	1	CATCHER	258	n/a	n/a	0	0	0
127348	WORD	wordpools/wasnorm_wordpool_576.txt	LTP379	ltpFR2	15	1	BANKER	84	n/a	n/a	0	0	0
129847	WORD	wordpools/wasnorm_wordpool_576.txt	LTP379	ltpFR2	15	1	RECEIPT	1173	n/a	n/a	0	0	0
132514	WORD	wordpools/wasnorm_wordpool_576.txt	LTP379	ltpFR2	15	1	DRINK	498	n/a	n/a	0	0	0
135215	WORD	wordpools/wasnorm_wordpool_576.txt	LTP379	ltpFR2	15	1	WASP	1593	n/a	n/a	0	0	0
137931	WORD	wordpools/wasnorm_wordpool_576.txt	LTP379	ltpFR2	15	1	BINDER	127	n/a	n/a	0	0	0
140530	WORD	wordpools/wasnorm_wordpool_576.txt	LTP379	ltpFR2	15	1	LABEL	790	n/a	n/a	0	0	0
143214	WORD	wordpools/wasnorm_wordpool_576.txt	LTP379	ltpFR2	15	1	OUTDOORS	987	n/a	n/a	0	0	0
144847	START	n/a	LTP379	ltpFR2	15	n/a	n/a	n/a	2	n/a	n/a	n/a	n/a
145717	DISTRACTOR	n/a	LTP379	ltpFR2	15	1	n/a	n/a	n/a	n/a	0	0	0
145730	PROB	n/a	LTP379	ltpFR2	15	n/a	n/a	n/a	2	13	1	9	3
147298	PROB	n/a	LTP379	ltpFR2	15	n/a	n/a	n/a	2	14	4	3	7
149081	PROB	n/a	LTP379	ltpFR2	15	n/a	n/a	n/a	2	15	4	8	3
150898	PROB	n/a	LTP379	ltpFR2	15	n/a	n/a	n/a	2	3	1	1	1
151830	PROB	n/a	LTP379	ltpFR2	15	n/a	n/a	n/a	2	24	9	7	8
154364	PROB	n/a	LTP379	ltpFR2	15	n/a	n/a	n/a	2	13	4	2	7
156314	PROB	n/a	LTP379	ltpFR2	15	n/a	n/a	n/a	2	14	8	4	2
157630	PROB	n/a	LTP379	ltpFR2	15	n/a	n/a	n/a	2	6	1	4	1
158646	PROB	n/a	LTP379	ltpFR2	15	n/a	n/a	n/a	2	8	4	1	3
160730	PROB	n/a	LTP379	ltpFR2	15	n/a	n/a	n/a	2	22	5	9	8
163314	PROB	n/a	LTP379	ltpFR2	15	n/a	n/a	n/a	2	18	3	7	8
164430	PROB	n/a	LTP379	ltpFR2	15	n/a	n/a	n/a	2	13	2	5	6
166364	PROB	n/a	LTP379	ltpFR2	15	n/a	n/a	n/a	2	18	8	2	8
167698	STOP	n/a	LTP379	ltpFR2	15	n/a	n/a	n/a	2	n/a	n/a	n/a	n/a
170647	REC_START	n/a	LTP379	ltpFR2	15	1	n/a	n/a	n/a	n/a	0	0	0
173867	REC_WORD	wordpools/wasnorm_wordpool_576.txt	LTP379	ltpFR2	15	1	MOTOR	922	n/a	n/a	0	0	0
175288	REC_WORD	wordpools/wasnorm_wordpool_576.txt	LTP379	ltpFR2	15	1	HORNET	718	n/a	n/a	0	0	0
176832	REC_WORD	wordpools/wasnorm_wordpool_576.txt	LTP379	ltpFR2	15	1	PRINCESS	1125	n/a	n/a	0	0	0
178444	REC_WORD	wordpools/wasnorm_wordpool_576.txt	LTP379	ltpFR2	15	1	EMPIRE	530	n/a	n/a	0	0	0
179835	REC_WORD	wordpools/wasnorm_wordpool_576.txt	LTP379	ltpFR2	15	1	FRANCE	601	n/a	n/a	0	0	0
181320	REC_WORD	wordpools/wasnorm_wordpool_576.txt	LTP379	ltpFR2	15	1	STAMP	1370	n/a	n/a	0	0	0
182933	REC_WORD	wordpools/wasnorm_wordpool_576.txt	LTP379	ltpFR2	15	1	BLUEPRINT	142	n/a	n/a	0	0	0
184241	REC_WORD	wordpools/wasnorm_wordpool_576.txt	LTP379	ltpFR2	15	1	PLIERS	1089	n/a	n/a	0	0	0
185593	REC_WORD	wordpools/wasnorm_wordpool_576.txt	LTP379	ltpFR2	15	1	CROWN	415	n/a	n/a	0	0	0
187290	REC_WORD	wordpools/wasnorm_wordpool_576.txt	LTP379	ltpFR2	15	1	PALACE	1006	n/a	n/a	0	0	0
188928	REC_WORD	wordpools/wasnorm_wordpool_576.txt	LTP379	ltpFR2	15	1	SPOON	1357	n/a	n/a	0	0	0
190404	REC_WORD	wordpools/wasnorm_wordpool_576.txt	LTP379	ltpFR2	15	1	SERVANT	1271	n/a	n/a	0	0	0
192401	REC_WORD	wordpools/wasnorm_wordpool_576.txt	LTP379	ltpFR2	15	1	WAITER	1580	n/a	n/a	0	0	0
193876	REC_WORD	wordpools/wasnorm_wordpool_576.txt	LTP379	ltpFR2	15	1	SODA	1341	n/a	n/a	0	0	0
196155	REC_WORD	wordpools/wasnorm_wordpool_576.txt	LTP379	ltpFR2	15	1	YARN	1631	n/a	n/a	0	0	0
200955	REC_WORD	wordpools/wasnorm_wordpool_576.txt	LTP379	ltpFR2	15	1	COTTAGE	384	n/a	n/a	0	0	0
202913	REC_WORD	wordpools/wasnorm_wordpool_576.txt	LTP379	ltpFR2	15	1	BANKER	84	n/a	n/a	0	0	0
204851	REC_WORD	wordpools/wasnorm_wordpool_576.txt	LTP379	ltpFR2	15	1	CATCHER	258	n/a	n/a	0	0	0
206184	REC_WORD	wordpools/wasnorm_wordpool_576.txt	LTP379	ltpFR2	15	1	RECEIPT	1173	n/a	n/a	0	0	0
208805	REC_WORD	wordpools/wasnorm_wordpool_576.txt	LTP379	ltpFR2	15	1	DRINK	498	n/a	n/a	0	0	0
212731	REC_WORD	wordpools/wasnorm_wordpool_576.txt	LTP379	ltpFR2	15	1	WASP	1593	n/a	n/a	0	0	0
214678	REC_WORD	wordpools/wasnorm_wordpool_576.txt	LTP379	ltpFR2	15	1	BINDER	127	n/a	n/a	0	0	0
215664	REC_WORD	wordpools/wasnorm_wordpool_576.txt	LTP379	ltpFR2	15	1	LABEL	790	n/a	n/a	0	0	0
219219	REC_WORD	wordpools/wasnorm_wordpool_576.txt	LTP379	ltpFR2	15	1	OUTDOORS	987	n/a	n/a	0	0	0
232727	REC_WORD	wordpools/wasnorm_wordpool_576.txt	LTP379	ltpFR2	15	1	HORNET	718	n/a	n/a	0	0	0
233409	REC_WORD_VV	wordpools/wasnorm_wordpool_576.txt	LTP379	ltpFR2	15	1	<>	-1	n/a	n/a	0	0	0
233694	REC_WORD	wordpools/wasnorm_wordpool_576.txt	LTP379	ltpFR2	15	1	WASP	1593	n/a	n/a	0	0	0
292362	WORD	wordpools/wasnorm_wordpool_576.txt	LTP379	ltpFR2	15	2	MAILMAN	858	n/a	n/a	0	0	0
295045	WORD	wordpools/wasnorm_wordpool_576.txt	LTP379	ltpFR2	15	2	LAPEL	800	n/a	n/a	0	0	0
297861	WORD	wordpools/wasnorm_wordpool_576.txt	LTP379	ltpFR2	15	2	QUEEN	1149	n/a	n/a	0	0	0
300494	WORD	wordpools/wasnorm_wordpool_576.txt	LTP379	ltpFR2	15	2	DRAGON	492	n/a	n/a	0	0	0
303278	WORD	wordpools/wasnorm_wordpool_576.txt	LTP379	ltpFR2	15	2	CRUTCH	417	n/a	n/a	0	0	0
305945	WORD	wordpools/wasnorm_wordpool_576.txt	LTP379	ltpFR2	15	2	BUTCHER	203	n/a	n/a	0	0	0
308627	WORD	wordpools/wasnorm_wordpool_576.txt	LTP379	ltpFR2	15	2	ATOM	55	n/a	n/a	0	0	0
311062	WORD	wordpools/wasnorm_wordpool_576.txt	LTP379	ltpFR2	15	2	PROTON	1132	n/a	n/a	0	0	0
313794	WORD	wordpools/wasnorm_wordpool_576.txt	LTP379	ltpFR2	15	2	SHORTCAKE	1292	n/a	n/a	0	0	0
316611	WORD	wordpools/wasnorm_wordpool_576.txt	LTP379	ltpFR2	15	2	LIVER	833	n/a	n/a	0	0	0
319428	WORD	wordpools/wasnorm_wordpool_576.txt	LTP379	ltpFR2	15	2	MASK	876	n/a	n/a	0	0	0
322028	WORD	wordpools/wasnorm_wordpool_576.txt	LTP379	ltpFR2	15	2	BACON	67	n/a	n/a	0	0	0
324644	WORD	wordpools/wasnorm_wordpool_576.txt	LTP379	ltpFR2	15	2	LEOPARD	812	n/a	n/a	0	0	0
327111	WORD	wordpools/wasnorm_wordpool_576.txt	LTP379	ltpFR2	15	2	VAGRANT	1544	n/a	n/a	0	0	0
329627	WORD	wordpools/wasnorm_wordpool_576.txt	LTP379	ltpFR2	15	2	MATCH	878	n/a	n/a	0	0	0
332278	WORD	wordpools/wasnorm_wordpool_576.txt	LTP379	ltpFR2	15	2	GYMNAST	675	n/a	n/a	0	0	0
334911	WORD	wordpools/wasnorm_wordpool_576.txt	LTP379	ltpFR2	15	2	QUARTER	1148	n/a	n/a	0	0	0
337494	WORD	wordpools/wasnorm_wordpool_576.txt	LTP379	ltpFR2	15	2	OMELET	976	n/a	n/a	0	0	0
340295	WORD	wordpools/wasnorm_wordpool_576.txt	LTP379	ltpFR2	15	2	HOSTESS	723	n/a	n/a	0	0	0
342810	WORD	wordpools/wasnorm_wordpool_576.txt	LTP379	ltpFR2	15	2	RAFT	1159	n/a	n/a	0	0	0
345378	WORD	wordpools/wasnorm_wordpool_576.txt	LTP379	ltpFR2	15	2	ISLAND	745	n/a	n/a	0	0	0
348078	WORD	wordpools/wasnorm_wordpool_576.txt	LTP379	ltpFR2	15	2	HERO	706	n/a	n/a	0	0	0
350510	WORD	wordpools/wasnorm_wordpool_576.txt	LTP379	ltpFR2	15	2	POCKET	1093	n/a	n/a	0	0	0
353078	WORD	wordpools/wasnorm_wordpool_576.txt	LTP379	ltpFR2	15	2	VICTIM	1562	n/a	n/a	0	0	0
354693	START	n/a	LTP379	ltpFR2	15	n/a	n/a	n/a	3	n/a	n/a	n/a	n/a
355539	DISTRACTOR	n/a	LTP379	ltpFR2	15	2	n/a	n/a	n/a	n/a	0	0	0
355543	PROB	n/a	LTP379	ltpFR2	15	n/a	n/a	n/a	3	18	7	3	8
357128	PROB	n/a	LTP379	ltpFR2	15	n/a	n/a	n/a	3	18	8	1	9
358693	PROB	n/a	LTP379	ltpFR2	15	n/a	n/a	n/a	3	8	2	4	2
361244	PROB	n/a	LTP379	ltpFR2	15	n/a	n/a	n/a	3	22	4	9	9
362576	PROB	n/a	LTP379	ltpFR2	15	n/a	n/a	n/a	3	15	3	8	4
364311	PROB	n/a	LTP379	ltpFR2	15	n/a	n/a	n/a	3	7	4	2	1
365476	PROB	n/a	LTP379	ltpFR2	15	n/a	n/a	n/a	3	12	7	1	4
366994	PROB	n/a	LTP379	ltpFR2	15	n/a	n/a	n/a	3	22	9	7	6
368710	PROB	n/a	LTP379	ltpFR2	15	n/a	n/a	n/a	3	16	5	2	9
370244	PROB	n/a	LTP379	ltpFR2	15	n/a	n/a	n/a	3	20	6	6	8
371411	PROB	n/a	LTP379	ltpFR2	15	n/a	n/a	n/a	3	13	6	4	3
372643	PROB	n/a	LTP379	ltpFR2	15	n/a	n/a	n/a	3	22	7	8	7
374560	PROB	n/a	LTP379	ltpFR2	15	n/a	n/a	n/a	3	14	5	5	4
375676	PROB	n/a	LTP379	ltpFR2	15	n/a	n/a	n/a	3	14	4	5	5
376810	PROB	n/a	LTP379	ltpFR2	15	n/a	n/a	n/a	3	11	4	6	1
377897	STOP	n/a	LTP379	ltpFR2	15	n/a	n/a	n/a	3	n/a	n/a	n/a	n/a
380493	REC_START	n/a	LTP379	ltpFR2	15	2	n/a	n/a	n/a	n/a	0	0	0
395745	REC_WORD	wordpools/wasnorm_wordpool_576.txt	LTP379	ltpFR2	15	2	MAILMAN	858	n/a	n/a	0	0	0
396957	REC_WORD	wordpools/wasnorm_wordpool_576.txt	LTP379	ltpFR2	15	2	LAPEL	800	n/a	n/a	0	0	0
398298	REC_WORD	wordpools/wasnorm_wordpool_576.txt	LTP379	ltpFR2	15	2	QUEEN	1149	n/a	n/a	0	0	0
399763	REC_WORD	wordpools/wasnorm_wordpool_576.txt	LTP379	ltpFR2	15	2	DRAGON	492	n/a	n/a	0	0	0
401622	REC_WORD	wordpools/wasnorm_wordpool_576.txt	LTP379	ltpFR2	15	2	CRUTCH	417	n/a	n/a	0	0	0
405568	REC_WORD	wordpools/wasnorm_wordpool_576.txt	LTP379	ltpFR2	15	2	BUTCHER	203	n/a	n/a	0	0	0
407971	REC_WORD	wordpools/wasnorm_wordpool_576.txt	LTP379	ltpFR2	15	2	SHAKE	-1	n/a	n/a	0	0	0
409603	REC_WORD	wordpools/wasnorm_wordpool_576.txt	LTP379	ltpFR2	15	2	LIVER	833	n/a	n/a	0	0	0
421684	REC_WORD_VV	wordpools/wasnorm_wordpool_576.txt	LTP379	ltpFR2	15	2	<>	-1	n/a	n/a	0	0	0
422641	REC_WORD	wordpools/wasnorm_wordpool_576.txt	LTP379	ltpFR2	15	2	MASK	876	n/a	n/a	0	0	0
424836	REC_WORD	wordpools/wasnorm_wordpool_576.txt	LTP379	ltpFR2	15	2	LEOPARD	812	n/a	n/a	0	0	0
426335	REC_WORD	wordpools/wasnorm_wordpool_576.txt	LTP379	ltpFR2	15	2	VAGRANT	1544	n/a	n/a	0	0	0
428332	REC_WORD	wordpools/wasnorm_wordpool_576.txt	LTP379	ltpFR2	15	2	MATCH	878	n/a	n/a	0	0	0
430000	REC_WORD	wordpools/wasnorm_wordpool_576.txt	LTP379	ltpFR2	15	2	GYMNAST	675	n/a	n/a	0	0	0
431036	REC_WORD	wordpools/wasnorm_wordpool_576.txt	LTP379	ltpFR2	15	2	QUARTER	1148	n/a	n/a	0	0	0
432423	REC_WORD	wordpools/wasnorm_wordpool_576.txt	LTP379	ltpFR2	15	2	OMELET	976	n/a	n/a	0	0	0
436866	REC_WORD	wordpools/wasnorm_wordpool_576.txt	LTP379	ltpFR2	15	2	RAFT	1159	n/a	n/a	0	0	0
437978	REC_WORD	wordpools/wasnorm_wordpool_576.txt	LTP379	ltpFR2	15	2	HOSTESS	723	n/a	n/a	0	0	0
439349	REC_WORD	wordpools/wasnorm_wordpool_576.txt	LTP379	ltpFR2	15	2	ISLAND	745	n/a	n/a	0	0	0
441465	REC_WORD	wordpools/wasnorm_wordpool_576.txt	LTP379	ltpFR2	15	2	HERO	706	n/a	n/a	0	0	0
443037	REC_WORD	wordpools/wasnorm_wordpool_576.txt	LTP379	ltpFR2	15	2	POCKET	1093	n/a	n/a	0	0	0
444477	REC_WORD	wordpools/wasnorm_wordpool_576.txt	LTP379	ltpFR2	15	2	VICTIM	1562	n/a	n/a	0	0	0
470942	WORD	wordpools/wasnorm_wordpool_576.txt	LTP379	ltpFR2	15	3	HEDGE	699	n/a	n/a	0	0	0
473675	WORD	wordpools/wasnorm_wordpool_576.txt	LTP379	ltpFR2	15	3	TWISTER	1530	n/a	n/a	0	0	0
476376	WORD	wordpools/wasnorm_wordpool_576.txt	LTP379	ltpFR2	15	3	PRINCE	1124	n/a	n/a	0	0	0
479159	WORD	wordpools/wasnorm_wordpool_576.txt	LTP379	ltpFR2	15	3	FRECKLE	602	n/a	n/a	0	0	0
481608	WORD	wordpools/wasnorm_wordpool_576.txt	LTP379	ltpFR2	15	3	POSTAGE	1113	n/a	n/a	0	0	0
484142	WORD	wordpools/wasnorm_wordpool_576.txt	LTP379	ltpFR2	15	3	CHEST	295	n/a	n/a	0	0	0
486674	WORD	wordpools/wasnorm_wordpool_576.txt	LTP379	ltpFR2	15	3	SCARF	1246	n/a	n/a	0	0	0
489175	WORD	wordpools/wasnorm_wordpool_576.txt	LTP379	ltpFR2	15	3	HAMPER	682	n/a	n/a	0	0	0
491624	WORD	wordpools/wasnorm_wordpool_576.txt	LTP379	ltpFR2	15	3	MAILBOX	857	n/a	n/a	0	0	0
494225	WORD	wordpools/wasnorm_wordpool_576.txt	LTP379	ltpFR2	15	3	HAWK	692	n/a	n/a	0	0	0
496708	WORD	wordpools/wasnorm_wordpool_576.txt	LTP379	ltpFR2	15	3	PIGEON	1065	n/a	n/a	0	0	0
499292	WORD	wordpools/wasnorm_wordpool_576.txt	LTP379	ltpFR2	15	3	SPOUSE	1358	n/a	n/a	0	0	0
502009	WORD	wordpools/wasnorm_wordpool_576.txt	LTP379	ltpFR2	15	3	LUGGAGE	847	n/a	n/a	0	0	0
504741	WORD	wordpools/wasnorm_wordpool_576.txt	LTP379	ltpFR2	15	3	CRITIC	410	n/a	n/a	0	0	0
507524	WORD	wordpools/wasnorm_wordpool_576.txt	LTP379	ltpFR2	15	3	ITEM	746	n/a	n/a	0	0	0
510325	WORD	wordpools/wasnorm_wordpool_576.txt	LTP379	ltpFR2	15	3	ROBBER	1197	n/a	n/a	0	0	0
513075	WORD	wordpools/wasnorm_wordpool_576.txt	LTP379	ltpFR2	15	3	DONKEY	484	n/a	n/a	0	0	0
515892	WORD	wordpools/wasnorm_wordpool_576.txt	LTP379	ltpFR2	15	3	DASHBOARD	441	n/a	n/a	0	0	0
518591	WORD	wordpools/wasnorm_wordpool_576.txt	LTP379	ltpFR2	15	3	FIREMAN	569	n/a	n/a	0	0	0
521158	WORD	wordpools/wasnorm_wordpool_576.txt	LTP379	ltpFR2	15	3	DRILL	497	n/a	n/a	0	0	0
523958	WORD	wordpools/wasnorm_wordpool_576.txt	LTP379	ltpFR2	15	3	TWIG	1527	n/a	n/a	0	0	0
526657	WORD	wordpools/wasnorm_wordpool_576.txt	LTP379	ltpFR2	15	3	MAPLE	866	n/a	n/a	0	0	0
529308	WORD	wordpools/wasnorm_wordpool_576.txt	LTP379	ltpFR2	15	3	BRACES	164	n/a	n/a	0	0	0
531807	WORD	wordpools/wasnorm_wordpool_576.txt	LTP379	ltpFR2	15	3	SALMON	1227	n/a	n/a	0	0	0
533425	START	n/a	LTP379	ltpFR2	15	n/a	n/a	n/a	4	n/a	n/a	n/a	n/a
534553	DISTRACTOR	n/a	LTP379	ltpFR2	15	3	n/a	n/a	n/a	n/a	0	0	0
534557	PROB	n/a	LTP379	ltpFR2	15	n/a	n/a	n/a	4	24	9	7	8
536557	PROB	n/a	LTP379	ltpFR2	15	n/a	n/a	n/a	4	17	8	2	7
537891	PROB	n/a	LTP379	ltpFR2	15	n/a	n/a	n/a	4	11	1	5	5
539058	PROB	n/a	LTP379	ltpFR2	15	n/a	n/a	n/a	4	21	4	9	8
540607	PROB	n/a	LTP379	ltpFR2	15	n/a	n/a	n/a	4	19	8	4	7
542025	PROB	n/a	LTP379	ltpFR2	15	n/a	n/a	n/a	4	11	1	4	6
543358	PROB	n/a	LTP379	ltpFR2	15	n/a	n/a	n/a	4	20	8	5	7
546175	PROB	n/a	LTP379	ltpFR2	15	n/a	n/a	n/a	4	20	4	9	7
548074	PROB	n/a	LTP379	ltpFR2	15	n/a	n/a	n/a	4	17	5	7	5
549408	PROB	n/a	LTP379	ltpFR2	15	n/a	n/a	n/a	4	15	5	8	2
550823	PROB	n/a	LTP379	ltpFR2	15	n/a	n/a	n/a	4	14	1	9	4
551891	PROB	n/a	LTP379	ltpFR2	15	n/a	n/a	n/a	4	13	5	3	5
553074	PROB	n/a	LTP379	ltpFR2	15	n/a	n/a	n/a	4	27	9	9	9
554457	PROB	n/a	LTP379	ltpFR2	15	n/a	n/a	n/a	4	14	9	1	4
555607	PROB	n/a	LTP379	ltpFR2	15	n/a	n/a	n/a	4	19	9	6	4
556982	STOP	n/a	LTP379	ltpFR2	15	n/a	n/a	n/a	4	n/a	n/a	n/a	n/a
559208	REC_START	n/a	LTP379	ltpFR2	15	3	n/a	n/a	n/a	n/a	0	0	0
584163	REC_WORD	wordpools/wasnorm_wordpool_576.txt	LTP379	ltpFR2	15	3	HEDGE	699	n/a	n/a	0	0	0
585305	REC_WORD	wordpools/wasnorm_wordpool_576.txt	LTP379	ltpFR2	15	3	TWISTER	1530	n/a	n/a	0	0	0
586707	REC_WORD	wordpools/wasnorm_wordpool_576.txt	LTP379	ltpFR2	15	3	PRINCE	1124	n/a	n/a	0	0	0
588257	REC_WORD	wordpools/wasnorm_wordpool_576.txt	LTP379	ltpFR2	15	3	FRECKLE	602	n/a	n/a	0	0	0
589769	REC_WORD	wordpools/wasnorm_wordpool_576.txt	LTP379	ltpFR2	15	3	POSTAGE	1113	n/a	n/a	0	0	0
593188	REC_WORD	wordpools/wasnorm_wordpool_576.txt	LTP379	ltpFR2	15	3	CHEST	295	n/a	n/a	0	0	0
594553	REC_WORD	wordpools/wasnorm_wordpool_576.txt	LTP379	ltpFR2	15	3	SCARF	1246	n/a	n/a	0	0	0
595873	REC_WORD	wordpools/wasnorm_wordpool_576.txt	LTP379	ltpFR2	15	3	HAMPER	682	n/a	n/a	0	0	0
597059	REC_WORD	wordpools/wasnorm_wordpool_576.txt	LTP379	ltpFR2	15	3	MAILBOX	857	n/a	n/a	0	0	0
598243	REC_WORD	wordpools/wasnorm_wordpool_576.txt	LTP379	ltpFR2	15	3	HAWK	692	n/a	n/a	0	0	0
599582	REC_WORD	wordpools/wasnorm_wordpool_576.txt	LTP379	ltpFR2	15	3	PIGEON	1065	n/a	n/a	0	0	0
602942	REC_WORD	wordpools/wasnorm_wordpool_576.txt	LTP379	ltpFR2	15	3	SPOUSE	1358	n/a	n/a	0	0	0
604189	REC_WORD	wordpools/wasnorm_wordpool_576.txt	LTP379	ltpFR2	15	3	LUGGAGE	847	n/a	n/a	0	0	0
605585	REC_WORD	wordpools/wasnorm_wordpool_576.txt	LTP379	ltpFR2	15	3	CRITIC	410	n/a	n/a	0	0	0
606807	REC_WORD	wordpools/wasnorm_wordpool_576.txt	LTP379	ltpFR2	15	3	ITEM	746	n/a	n/a	0	0	0
607959	REC_WORD	wordpools/wasnorm_wordpool_576.txt	LTP379	ltpFR2	15	3	ROBBER	1197	n/a	n/a	0	0	0
609437	REC_WORD	wordpools/wasnorm_wordpool_576.txt	LTP379	ltpFR2	15	3	DONKEY	484	n/a	n/a	0	0	0
613840	REC_WORD	wordpools/wasnorm_wordpool_576.txt	LTP379	ltpFR2	15	3	DASHBOARD	441	n/a	n/a	0	0	0
615152	REC_WORD	wordpools/wasnorm_wordpool_576.txt	LTP379	ltpFR2	15	3	FIREMAN	569	n/a	n/a	0	0	0
616644	REC_WORD	wordpools/wasnorm_wordpool_576.txt	LTP379	ltpFR2	15	3	DRILL	497	n/a	n/a	0	0	0
617880	REC_WORD	wordpools/wasnorm_wordpool_576.txt	LTP379	ltpFR2	15	3	TWIG	1527	n/a	n/a	0	0	0
619182	REC_WORD	wordpools/wasnorm_wordpool_576.txt	LTP379	ltpFR2	15	3	MAPLE	866	n/a	n/a	0	0	0
620608	REC_WORD	wordpools/wasnorm_wordpool_576.txt	LTP379	ltpFR2	15	3	BRACES	164	n/a	n/a	0	0	0
621891	REC_WORD	wordpools/wasnorm_wordpool_576.txt	LTP379	ltpFR2	15	3	SALMON	1227	n/a	n/a	0	0	0
649672	WORD	wordpools/wasnorm_wordpool_576.txt	LTP379	ltpFR2	15	4	ROD	1203	n/a	n/a	0	0	0
652339	WORD	wordpools/wasnorm_wordpool_576.txt	LTP379	ltpFR2	15	4	PUPPY	1144	n/a	n/a	0	0	0
655023	WORD	wordpools/wasnorm_wordpool_576.txt	LTP379	ltpFR2	15	4	FOX	598	n/a	n/a	0	0	0
657855	WORD	wordpools/wasnorm_wordpool_576.txt	LTP379	ltpFR2	15	4	PEANUT	1032	n/a	n/a	0	0	0
660406	WORD	wordpools/wasnorm_wordpool_576.txt	LTP379	ltpFR2	15	4	SNAKE	1333	n/a	n/a	0	0	0
662939	WORD	wordpools/wasnorm_wordpool_576.txt	LTP379	ltpFR2	15	4	TURNIP	1521	n/a	n/a	0	0	0
665755	WORD	wordpools/wasnorm_wordpool_576.txt	LTP379	ltpFR2	15	4	STOVE	1388	n/a	n/a	0	0	0
668406	WORD	wordpools/wasnorm_wordpool_576.txt	LTP379	ltpFR2	15	4	SWAMP	1416	n/a	n/a	0	0	0
670939	WORD	wordpools/wasnorm_wordpool_576.txt	LTP379	ltpFR2	15	4	MARSH	874	n/a	n/a	0	0	0
673688	WORD	wordpools/wasnorm_wordpool_576.txt	LTP379	ltpFR2	15	4	GRAVE	658	n/a	n/a	0	0	0
676256	WORD	wordpools/wasnorm_wordpool_576.txt	LTP379	ltpFR2	15	4	GROUND	666	n/a	n/a	0	0	0
679022	WORD	wordpools/wasnorm_wordpool_576.txt	LTP379	ltpFR2	15	4	OYSTER	995	n/a	n/a	0	0	0
681671	WORD	wordpools/wasnorm_wordpool_576.txt	LTP379	ltpFR2	15	4	EXPERT	543	n/a	n/a	0	0	0
684455	WORD	wordpools/wasnorm_wordpool_576.txt	LTP379	ltpFR2	15	4	THREAD	1460	n/a	n/a	0	0	0
687139	WORD	wordpools/wasnorm_wordpool_576.txt	LTP379	ltpFR2	15	4	FUNGUS	614	n/a	n/a	0	0	0
689939	WORD	wordpools/wasnorm_wordpool_576.txt	LTP379	ltpFR2	15	4	LAVA	804	n/a	n/a	0	0	0
692438	WORD	wordpools/wasnorm_wordpool_576.txt	LTP379	ltpFR2	15	4	LADDER	793	n/a	n/a	0	0	0
695039	WORD	wordpools/wasnorm_wordpool_576.txt	LTP379	ltpFR2	15	4	LETTUCE	814	n/a	n/a	0	0	0
697571	WORD	wordpools/wasnorm_wordpool_576.txt	LTP379	ltpFR2	15	4	CURTAIN	427	n/a	n/a	0	0	0
700355	WORD	wordpools/wasnorm_wordpool_576.txt	LTP379	ltpFR2	15	4	BULLET	194	n/a	n/a	0	0	0
703022	WORD	wordpools/wasnorm_wordpool_576.txt	LTP379	ltpFR2	15	4	ACTRESS	6	n/a	n/a	0	0	0
705454	WORD	wordpools/wasnorm_wordpool_576.txt	LTP379	ltpFR2	15	4	TOASTER	1472	n/a	n/a	0	0	0
707955	WORD	wordpools/wasnorm_wordpool_576.txt	LTP379	ltpFR2	15	4	PISTOL	1075	n/a	n/a	0	0	0
710738	WORD	wordpools/wasnorm_wordpool_576.txt	LTP379	ltpFR2	15	4	JEANS	752	n/a	n/a	0	0	0
712355	START	n/a	LTP379	ltpFR2	15	n/a	n/a	n/a	5	n/a	n/a	n/a	n/a
713351	DISTRACTOR	n/a	LTP379	ltpFR2	15	4	n/a	n/a	n/a	n/a	0	0	0
713355	PROB	n/a	LTP379	ltpFR2	15	n/a	n/a	n/a	5	7	3	1	3
715072	PROB	n/a	LTP379	ltpFR2	15	n/a	n/a	n/a	5	23	5	9	9
716487	PROB	n/a	LTP379	ltpFR2	15	n/a	n/a	n/a	5	14	7	1	6
718072	PROB	n/a	LTP379	ltpFR2	15	n/a	n/a	n/a	5	19	7	9	3
719787	PROB	n/a	LTP379	ltpFR2	15	n/a	n/a	n/a	5	21	8	7	6
724072	PROB	n/a	LTP379	ltpFR2	15	n/a	n/a	n/a	5	12	7	3	2
725437	PROB	n/a	LTP379	ltpFR2	15	n/a	n/a	n/a	5	20	5	9	6
727105	PROB	n/a	LTP379	ltpFR2	15	n/a	n/a	n/a	5	21	7	7	7
728338	PROB	n/a	LTP379	ltpFR2	15	n/a	n/a	n/a	5	16	8	3	5
729870	PROB	n/a	LTP379	ltpFR2	15	n/a	n/a	n/a	5	8	4	2	2
730955	PROB	n/a	LTP379	ltpFR2	15	n/a	n/a	n/a	5	14	5	2	7
732554	PROB	n/a	LTP379	ltpFR2	15	n/a	n/a	n/a	5	19	7	8	4
734221	PROB	n/a	LTP379	ltpFR2	15	n/a	n/a	n/a	5	19	6	4	9
735555	STOP	n/a	LTP379	ltpFR2	15	n/a	n/a	n/a	5	n/a	n/a	n/a	n/a
738138	REC_START	n/a	LTP379	ltpFR2	15	4	n/a	n/a	n/a	n/a	0	0	0
743000	REC_WORD	wordpools/wasnorm_wordpool_576.txt	LTP379	ltpFR2	15	4	ROD	1203	n/a	n/a	0	0	0
744480	REC_WORD	wordpools/wasnorm_wordpool_576.txt	LTP379	ltpFR2	15	4	PUPPY	1144	n/a	n/a	0	0	0
745544	REC_WORD	wordpools/wasnorm_wordpool_576.txt	LTP379	ltpFR2	15	4	FOX	598	n/a	n/a	0	0	0
747076	REC_WORD	wordpools/wasnorm_wordpool_576.txt	LTP379	ltpFR2	15	4	PEANUT	1032	n/a	n/a	0	0	0
748895	REC_WORD	wordpools/wasnorm_wordpool_576.txt	LTP379	ltpFR2	15	4	SNAKE	1333	n/a	n/a	0	0	0
750316	REC_WORD	wordpools/wasnorm_wordpool_576.txt	LTP379	ltpFR2	15	4	TURNIP	1521	n/a	n/a	0	0	0
751421	REC_WORD	wordpools/wasnorm_wordpool_576.txt	LTP379	ltpFR2	15	4	STOVE	1388	n/a	n/a	0	0	0
752969	REC_WORD	wordpools/wasnorm_wordpool_576.txt	LTP379	ltpFR2	15	4	SWAMP	1416	n/a	n/a	0	0	0
754772	REC_WORD	wordpools/wasnorm_wordpool_576.txt	LTP379	ltpFR2	15	4	MARSH	874	n/a	n/a	0	0	0
757902	REC_WORD	wordpools/wasnorm_wordpool_576.txt	LTP379	ltpFR2	15	4	GRAVE	658	n/a	n/a	0	0	0
759488	REC_WORD	wordpools/wasnorm_wordpool_576.txt	LTP379	ltpFR2	15	4	GROUND	666	n/a	n/a	0	0	0
763607	REC_WORD	wordpools/wasnorm_wordpool_576.txt	LTP379	ltpFR2	15	4	OYSTER	995	n/a	n/a	0	0	0
765134	REC_WORD	wordpools/wasnorm_wordpool_576.txt	LTP379	ltpFR2	15	4	EXPERT	543	n/a	n/a	0	0	0
766251	REC_WORD	wordpools/wasnorm_wordpool_576.txt	LTP379	ltpFR2	15	4	THREAD	1460	n/a	n/a	0	0	0
768034	REC_WORD	wordpools/wasnorm_wordpool_576.txt	LTP379	ltpFR2	15	4	FUNGUS	614	n/a	n/a	0	0	0
770733	REC_WORD	wordpools/wasnorm_wordpool_576.txt	LTP379	ltpFR2	15	4	LAVA	804	n/a	n/a	0	0	0
772326	REC_WORD	wordpools/wasnorm_wordpool_576.txt	LTP379	ltpFR2	15	4	LADDER	793	n/a	n/a	0	0	0
773481	REC_WORD	wordpools/wasnorm_wordpool_576.txt	LTP379	ltpFR2	15	4	LETTUCE	814	n/a	n/a	0	0	0
774739	REC_WORD	wordpools/wasnorm_wordpool_576.txt	LTP379	ltpFR2	15	4	CURTAIN	427	n/a	n/a	0	0	0
776236	REC_WORD	wordpools/wasnorm_wordpool_576.txt	LTP379	ltpFR2	15	4	BULLET	194	n/a	n/a	0	0	0
778914	REC_WORD	wordpools/wasnorm_wordpool_576.txt	LTP379	ltpFR2	15	4	ACTRESS	6	n/a	n/a	0	0	0
781941	REC_WORD	wordpools/wasnorm_wordpool_576.txt	LTP379	ltpFR2	15	4	TOASTER	1472	n/a	n/a	0	0	0
783412	REC_WORD	wordpools/wasnorm_wordpool_576.txt	LTP379	ltpFR2	15	4	PISTOL	1075	n/a	n/a	0	0	0
784914	REC_WORD	wordpools/wasnorm_wordpool_576.txt	LTP379	ltpFR2	15	4	JEANS	752	n/a	n/a	0	0	0
828602	WORD	wordpools/wasnorm_wordpool_576.txt	LTP379	ltpFR2	15	5	YOLK	1633	n/a	n/a	0	0	0
831220	WORD	wordpools/wasnorm_wordpool_576.txt	LTP379	ltpFR2	15	5	TWEEZERS	1526	n/a	n/a	0	0	0
833869	WORD	wordpools/wasnorm_wordpool_576.txt	LTP379	ltpFR2	15	5	FLOWER	584	n/a	n/a	0	0	0
836485	WORD	wordpools/wasnorm_wordpool_576.txt	LTP379	ltpFR2	15	5	STUDENT	1395	n/a	n/a	0	0	0
839053	WORD	wordpools/wasnorm_wordpool_576.txt	LTP379	ltpFR2	15	5	EYELASH	546	n/a	n/a	0	0	0
841802	WORD	wordpools/wasnorm_wordpool_576.txt	LTP379	ltpFR2	15	5	STAR	1373	n/a	n/a	0	0	0
844236	WORD	wordpools/wasnorm_wordpool_576.txt	LTP379	ltpFR2	15	5	FRIAR	605	n/a	n/a	0	0	0
846953	WORD	wordpools/wasnorm_wordpool_576.txt	LTP379	ltpFR2	15	5	MUSTARD	935	n/a	n/a	0	0	0
849519	WORD	wordpools/wasnorm_wordpool_576.txt	LTP379	ltpFR2	15	5	MARKER	870	n/a	n/a	0	0	0
852319	WORD	wordpools/wasnorm_wordpool_576.txt	LTP379	ltpFR2	15	5	LOVER	846	n/a	n/a	0	0	0
854953	WORD	wordpools/wasnorm_wordpool_576.txt	LTP379	ltpFR2	15	5	FEMALE	559	n/a	n/a	0	0	0
857602	WORD	wordpools/wasnorm_wordpool_576.txt	LTP379	ltpFR2	15	5	NEUTRON	947	n/a	n/a	0	0	0
860319	WORD	wordpools/wasnorm_wordpool_576.txt	LTP379	ltpFR2	15	5	COMET	353	n/a	n/a	0	0	0
862969	WORD	wordpools/wasnorm_wordpool_576.txt	LTP379	ltpFR2	15	5	PACKAGE	997	n/a	n/a	0	0	0
865785	WORD	wordpools/wasnorm_wordpool_576.txt	LTP379	ltpFR2	15	5	CROSS	413	n/a	n/a	0	0	0
868552	WORD	wordpools/wasnorm_wordpool_576.txt	LTP379	ltpFR2	15	5	ORCHID	982	n/a	n/a	0	0	0
871003	WORD	wordpools/wasnorm_wordpool_576.txt	LTP379	ltpFR2	15	5	FOREHEAD	592	n/a	n/a	0	0	0
873685	WORD	wordpools/wasnorm_wordpool_576.txt	LTP379	ltpFR2	15	5	HOOD	714	n/a	n/a	0	0	0
876419	WORD	wordpools/wasnorm_wordpool_576.txt	LTP379	ltpFR2	15	5	SHELTER	1282	n/a	n/a	0	0	0
879169	WORD	wordpools/wasnorm_wordpool_576.txt	LTP379	ltpFR2	15	5	PEDAL	1037	n/a	n/a	0	0	0
881818	WORD	wordpools/wasnorm_wordpool_576.txt	LTP379	ltpFR2	15	5	CONVICT	371	n/a	n/a	0	0	0
884336	WORD	wordpools/wasnorm_wordpool_576.txt	LTP379	ltpFR2	15	5	RADISH	1158	n/a	n/a	0	0	0
887135	WORD	wordpools/wasnorm_wordpool_576.txt	LTP379	ltpFR2	15	5	DANCER	437	n/a	n/a	0	0	0
889585	WORD	wordpools/wasnorm_wordpool_576.txt	LTP379	ltpFR2	15	5	TUTU	1524	n/a	n/a	0	0	0
891202	START	n/a	LTP379	ltpFR2	15	n/a	n/a	n/a	6	n/a	n/a	n/a	n/a
892048	DISTRACTOR	n/a	LTP379	ltpFR2	15	5	n/a	n/a	n/a	n/a	0	0	0
892052	PROB	n/a	LTP379	ltpFR2	15	n/a	n/a	n/a	6	17	9	7	1
894434	PROB	n/a	LTP379	ltpFR2	15	n/a	n/a	n/a	6	17	6	7	4
896202	PROB	n/a	LTP379	ltpFR2	15	n/a	n/a	n/a	6	12	1	2	9
897868	PROB	n/a	LTP379	ltpFR2	15	n/a	n/a	n/a	6	16	2	9	5
899818	PROB	n/a	LTP379	ltpFR2	15	n/a	n/a	n/a	6	21	9	6	6
901468	PROB	n/a	LTP379	ltpFR2	15	n/a	n/a	n/a	6	15	9	3	3
902935	PROB	n/a	LTP379	ltpFR2	15	n/a	n/a	n/a	6	19	8	9	2
905169	PROB	n/a	LTP379	ltpFR2	15	n/a	n/a	n/a	6	18	7	3	8
906402	PROB	n/a	LTP379	ltpFR2	15	n/a	n/a	n/a	6	24	9	9	6
908069	PROB	n/a	LTP379	ltpFR2	15	n/a	n/a	n/a	6	10	3	1	6
909534	PROB	n/a	LTP379	ltpFR2	15	n/a	n/a	n/a	6	18	8	9	1
910751	PROB	n/a	LTP379	ltpFR2	15	n/a	n/a	n/a	6	19	4	7	8
913864	STOP	n/a	LTP379	ltpFR2	15	n/a	n/a	n/a	6	n/a	n/a	n/a	n/a
917136	REC_START	n/a	LTP379	ltpFR2	15	5	n/a	n/a	n/a	n/a	0	0	0
949771	REC_WORD	wordpools/wasnorm_wordpool_576.txt	LTP379	ltpFR2	15	5	YOLK	1633	n/a	n/a	0	0	0
953036	REC_WORD	wordpools/wasnorm_wordpool_576.txt	LTP379	ltpFR2	15	5	TWEEZERS	1526	n/a	n/a	0	0	0
954888	REC_WORD	wordpools/wasnorm_wordpool_576.txt	LTP379	ltpFR2	15	5	FLOWER	584	n/a	n/a	0	0	0
956679	REC_WORD	wordpools/wasnorm_wordpool_576.txt	LTP379	ltpFR2	15	5	STUDENT	1395	n/a	n/a	0	0	0
958192	REC_WORD	wordpools/wasnorm_wordpool_576.txt	LTP379	ltpFR2	15	5	EYELASH	546	n/a	n/a	0	0	0
959626	REC_WORD	wordpools/wasnorm_wordpool_576.txt	LTP379	ltpFR2	15	5	STAR	1373	n/a	n/a	0	0	0
962453	REC_WORD	wordpools/wasnorm_wordpool_576.txt	LTP379	ltpFR2	15	5	FRIAR	605	n/a	n/a	0	0	0
963971	REC_WORD	wordpools/wasnorm_wordpool_576.txt	LTP379	ltpFR2	15	5	MUSTARD	935	n/a	n/a	0	0	0
965230	REC_WORD	wordpools/wasnorm_wordpool_576.txt	LTP379	ltpFR2	15	5	MARKER	870	n/a	n/a	0	0	0
966532	REC_WORD	wordpools/wasnorm_wordpool_576.txt	LTP379	ltpFR2	15	5	LOVER	846	n/a	n/a	0	0	0
967580	REC_WORD	wordpools/wasnorm_wordpool_576.txt	LTP379	ltpFR2	15	5	FEMALE	559	n/a	n/a	0	0	0
968941	REC_WORD	wordpools/wasnorm_wordpool_576.txt	LTP379	ltpFR2	15	5	NEUTRON	947	n/a	n/a	0	0	0
970250	REC_WORD	wordpools/wasnorm_wordpool_576.txt	LTP379	ltpFR2	15	5	COMET	353	n/a	n/a	0	0	0
971731	REC_WORD	wordpools/wasnorm_wordpool_576.txt	LTP379	ltpFR2	15	5	PACKAGE	997	n/a	n/a	0	0	0
973347	REC_WORD	wordpools/wasnorm_wordpool_576.txt	LTP379	ltpFR2	15	5	ORCHID	982	n/a	n/a	0	0	0
978607	REC_WORD	wordpools/wasnorm_wordpool_576.txt	LTP379	ltpFR2	15	5	FOREHEAD	592	n/a	n/a	0	0	0
979868	REC_WORD	wordpools/wasnorm_wordpool_576.txt	LTP379	ltpFR2	15	5	HOOD	714	n/a	n/a	0	0	0
980771	REC_WORD	wordpools/wasnorm_wordpool_576.txt	LTP379	ltpFR2	15	5	SHELTER	1282	n/a	n/a	0	0	0
982210	REC_WORD	wordpools/wasnorm_wordpool_576.txt	LTP379	ltpFR2	15	5	PEDAL	1037	n/a	n/a	0	0	0
984223	REC_WORD	wordpools/wasnorm_wordpool_576.txt	LTP379	ltpFR2	15	5	CONVICT	371	n/a	n/a	0	0	0
985500	REC_WORD	wordpools/wasnorm_wordpool_576.txt	LTP379	ltpFR2	15	5	RADISH	1158	n/a	n/a	0	0	0
987134	REC_WORD	wordpools/wasnorm_wordpool_576.txt	LTP379	ltpFR2	15	5	DANCER	437	n/a	n/a	0	0	0
989057	REC_WORD	wordpools/wasnorm_wordpool_576.txt	LTP379	ltpFR2	15	5	TUTU	1524	n/a	n/a	0	0	0
1007583	DISTRACTOR	n/a	LTP379	ltpFR2	15	6	n/a	n/a	n/a	n/a	0	0	0
1007583	START	n/a	LTP379	ltpFR2	15	n/a	n/a	n/a	7	n/a	n/a	n/a	n/a
1007599	PROB	n/a	LTP379	ltpFR2	15	n/a	n/a	n/a	7	17	7	6	4
1009367	PROB	n/a	LTP379	ltpFR2	15	n/a	n/a	n/a	7	13	3	1	9
1010799	PROB	n/a	LTP379	ltpFR2	15	n/a	n/a	n/a	7	18	8	4	6
1012267	PROB	n/a	LTP379	ltpFR2	15	n/a	n/a	n/a	7	17	7	7	3
1013799	PROB	n/a	LTP379	ltpFR2	15	n/a	n/a	n/a	7	16	1	9	6
1014950	PROB	n/a	LTP379	ltpFR2	15	n/a	n/a	n/a	7	17	5	8	4
1017134	PROB	n/a	LTP379	ltpFR2	15	n/a	n/a	n/a	7	14	4	5	5
1018300	PROB	n/a	LTP379	ltpFR2	15	n/a	n/a	n/a	7	20	5	6	9
1019732	PROB	n/a	LTP379	ltpFR2	15	n/a	n/a	n/a	7	11	4	1	6
1021000	PROB	n/a	LTP379	ltpFR2	15	n/a	n/a	n/a	7	20	5	7	8
1022267	PROB	n/a	LTP379	ltpFR2	15	n/a	n/a	n/a	7	19	6	5	8
1023649	PROB	n/a	LTP379	ltpFR2	15	n/a	n/a	n/a	7	10	2	5	3
1025233	PROB	n/a	LTP379	ltpFR2	15	n/a	n/a	n/a	7	16	7	7	2
1026649	PROB	n/a	LTP379	ltpFR2	15	n/a	n/a	n/a	7	12	5	6	1
1028150	PROB	n/a	LTP379	ltpFR2	15	n/a	n/a	n/a	7	14	5	3	6
1031583	STOP	n/a	LTP379	ltpFR2	15	n/a	n/a	n/a	7	n/a	n/a	n/a	n/a
1032766	WORD	wordpools/wasnorm_wordpool_576.txt	LTP379	ltpFR2	15	6	BEAKER	104	n/a	n/a	0	0	0
1035217	WORD	wordpools/wasnorm_wordpool_576.txt	LTP379	ltpFR2	15	6	MARINE	869	n/a	n/a	0	0	0
1037883	WORD	wordpools/wasnorm_wordpool_576.txt	LTP379	ltpFR2	15	6	PERCH	1048	n/a	n/a	0	0	0
1040383	WORD	wordpools/wasnorm_wordpool_576.txt	LTP379	ltpFR2	15	6	QUAIL	1147	n/a	n/a	0	0	0
1043216	WORD	wordpools/wasnorm_wordpool_576.txt	LTP379	ltpFR2	15	6	FLIPPER	580	n/a	n/a	0	0	0
1045715	WORD	wordpools/wasnorm_wordpool_576.txt	LTP379	ltpFR2	15	6	SUPPER	1411	n/a	n/a	0	0	0
1048200	WORD	wordpools/wasnorm_wordpool_576.txt	LTP379	ltpFR2	15	6	BALLOON	75	n/a	n/a	0	0	0
1050883	WORD	wordpools/wasnorm_wordpool_576.txt	LTP379	ltpFR2	15	6	DOLPHIN	483	n/a	n/a	0	0	0
1053350	WORD	wordpools/wasnorm_wordpool_576.txt	LTP379	ltpFR2	15	6	GIRL	637	n/a	n/a	0	0	0
1056166	WORD	wordpools/wasnorm_wordpool_576.txt	LTP379	ltpFR2	15	6	CITRUS	313	n/a	n/a	0	0	0
1058815	WORD	wordpools/wasnorm_wordpool_576.txt	LTP379	ltpFR2	15	6	CARROT	249	n/a	n/a	0	0	0
1061399	WORD	wordpools/wasnorm_wordpool_576.txt	LTP379	ltpFR2	15	6	IDOL	733	n/a	n/a	0	0	0
1064049	WORD	wordpools/wasnorm_wordpool_576.txt	LTP379	ltpFR2	15	6	BUGGY	188	n/a	n/a	0	0	0
1066615	WORD	wordpools/wasnorm_wordpool_576.txt	LTP379	ltpFR2	15	6	SISTER	1312	n/a	n/a	0	0	0
1069133	WORD	wordpools/wasnorm_wordpool_576.txt	LTP379	ltpFR2	15	6	XEROX	1628	n/a	n/a	0	0	0
1071815	WORD	wordpools/wasnorm_wordpool_576.txt	LTP379	ltpFR2	15	6	CLAMP	316	n/a	n/a	0	0	0
1074498	WORD	wordpools/wasnorm_wordpool_576.txt	LTP379	ltpFR2	15	6	SPONGE	1355	n/a	n/a	0	0	0
1077282	WORD	wordpools/wasnorm_wordpool_576.txt	LTP379	ltpFR2	15	6	WITNESS	1618	n/a	n/a	0	0	0
1079798	WORD	wordpools/wasnorm_wordpool_576.txt	LTP379	ltpFR2	15	6	PIANO	1057	n/a	n/a	0	0	0
1082548	WORD	wordpools/wasnorm_wordpool_576.txt	LTP379	ltpFR2	15	6	DINER	467	n/a	n/a	0	0	0
1085299	WORD	wordpools/wasnorm_wordpool_576.txt	LTP379	ltpFR2	15	6	SHORTS	1293	n/a	n/a	0	0	0
1087932	WORD	wordpools/wasnorm_wordpool_576.txt	LTP379	ltpFR2	15	6	LAGOON	795	n/a	n/a	0	0	0
1090431	WORD	wordpools/wasnorm_wordpool_576.txt	LTP379	ltpFR2	15	6	VALVE	1546	n/a	n/a	0	0	0
1093032	WORD	wordpools/wasnorm_wordpool_576.txt	LTP379	ltpFR2	15	6	COUNTY	389	n/a	n/a	0	0	0
1094648	START	n/a	LTP379	ltpFR2	15	n/a	n/a	n/a	8	n/a	n/a	n/a	n/a
1095462	DISTRACTOR	n/a	LTP379	ltpFR2	15	6	n/a	n/a	n/a	n/a	0	0	0
1095464	PROB	n/a	LTP379	ltpFR2	15	n/a	n/a	n/a	8	13	6	2	5
1097664	PROB	n/a	LTP379	ltpFR2	15	n/a	n/a	n/a	8	17	7	4	6
1099215	PROB	n/a	LTP379	ltpFR2	15	n/a	n/a	n/a	8	15	6	3	6
1100731	PROB	n/a	LTP379	ltpFR2	15	n/a	n/a	n/a	8	8	1	5	2
1102781	PROB	n/a	LTP379	ltpFR2	15	n/a	n/a	n/a	8	16	5	6	5
1103949	PROB	n/a	LTP379	ltpFR2	15	n/a	n/a	n/a	8	13	3	2	8
1105431	PROB	n/a	LTP379	ltpFR2	15	n/a	n/a	n/a	8	9	2	5	2
1106882	PROB	n/a	LTP379	ltpFR2	15	n/a	n/a	n/a	8	18	7	2	9
1108299	PROB	n/a	LTP379	ltpFR2	15	n/a	n/a	n/a	8	15	8	2	5
1109548	PROB	n/a	LTP379	ltpFR2	15	n/a	n/a	n/a	8	21	6	7	8
1112631	PROB	n/a	LTP379	ltpFR2	15	n/a	n/a	n/a	8	9	2	2	5
1113949	PROB	n/a	LTP379	ltpFR2	15	n/a	n/a	n/a	8	19	7	6	6
1115581	PROB	n/a	LTP379	ltpFR2	15	n/a	n/a	n/a	8	15	4	5	6
1117167	STOP	n/a	LTP379	ltpFR2	15	n/a	n/a	n/a	8	n/a	n/a	n/a	n/a
1120498	REC_START	n/a	LTP379	ltpFR2	15	6	n/a	n/a	n/a	n/a	0	0	0
1144758	REC_WORD	wordpools/wasnorm_wordpool_576.txt	LTP379	ltpFR2	15	6	BEAKER	104	n/a	n/a	0	0	0
1145767	REC_WORD	wordpools/wasnorm_wordpool_576.txt	LTP379	ltpFR2	15	6	MARINE	869	n/a	n/a	0	0	0
1147147	REC_WORD	wordpools/wasnorm_wordpool_576.txt	LTP379	ltpFR2	15	6	PERCH	1048	n/a	n/a	0	0	0
1148343	REC_WORD	wordpools/wasnorm_wordpool_576.txt	LTP379	ltpFR2	15	6	QUAIL	1147	n/a	n/a	0	0	0
1149508	REC_WORD	wordpools/wasnorm_wordpool_576.txt	LTP379	ltpFR2	15	6	FLIPPER	580	n/a	n/a	0	0	0
1150607	REC_WORD	wordpools/wasnorm_wordpool_576.txt	LTP379	ltpFR2	15	6	SUPPER	1411	n/a	n/a	0	0	0
1151884	REC_WORD	wordpools/wasnorm_wordpool_576.txt	LTP379	ltpFR2	15	6	BALLOON	75	n/a	n/a	0	0	0
1153179	REC_WORD	wordpools/wasnorm_wordpool_576.txt	LTP379	ltpFR2	15	6	DOLPHIN	483	n/a	n/a	0	0	0
1155541	REC_WORD	wordpools/wasnorm_wordpool_576.txt	LTP379	ltpFR2	15	6	GIRL	637	n/a	n/a	0	0	0
1156406	REC_WORD	wordpools/wasnorm_wordpool_576.txt	LTP379	ltpFR2	15	6	CITRUS	313	n/a	n/a	0	0	0
1158935	REC_WORD	wordpools/wasnorm_wordpool_576.txt	LTP379	ltpFR2	15	6	CARROT	249	n/a	n/a	0	0	0
1160344	REC_WORD	wordpools/wasnorm_wordpool_576.txt	LTP379	ltpFR2	15	6	IDOL	733	n/a	n/a	0	0	0
1161709	REC_WORD	wordpools/wasnorm_wordpool_576.txt	LTP379	ltpFR2	15	6	BUGGY	188	n/a	n/a	0	0	0
1163158	REC_WORD	wordpools/wasnorm_wordpool_576.txt	LTP379	ltpFR2	15	6	SISTER	1312	n/a	n/a	0	0	0
1164437	REC_WORD	wordpools/wasnorm_wordpool_576.txt	LTP379	ltpFR2	15	6	XEROX	1628	n/a	n/a	0	0	0
1165754	REC_WORD	wordpools/wasnorm_wordpool_576.txt	LTP379	ltpFR2	15	6	CLAMP	316	n/a	n/a	0	0	0
1166721	REC_WORD	wordpools/wasnorm_wordpool_576.txt	LTP379	ltpFR2	15	6	SPONGE	1355	n/a	n/a	0	0	0
1168221	REC_WORD	wordpools/wasnorm_wordpool_576.txt	LTP379	ltpFR2	15	6	WITNESS	1618	n/a	n/a	0	0	0
1169196	REC_WORD	wordpools/wasnorm_wordpool_576.txt	LTP379	ltpFR2	15	6	PIANO	1057	n/a	n/a	0	0	0
1170525	REC_WORD	wordpools/wasnorm_wordpool_576.txt	LTP379	ltpFR2	15	6	DINER	467	n/a	n/a	0	0	0
1171750	REC_WORD	wordpools/wasnorm_wordpool_576.txt	LTP379	ltpFR2	15	6	SHORTS	1293	n/a	n/a	0	0	0
1173138	REC_WORD	wordpools/wasnorm_wordpool_576.txt	LTP379	ltpFR2	15	6	LAGOON	795	n/a	n/a	0	0	0
1174392	REC_WORD	wordpools/wasnorm_wordpool_576.txt	LTP379	ltpFR2	15	6	VALVE	1546	n/a	n/a	0	0	0
1175594	REC_WORD	wordpools/wasnorm_wordpool_576.txt	LTP379	ltpFR2	15	6	COUNTY	389	n/a	n/a	0	0	0
1210947	WORD	wordpools/wasnorm_wordpool_576.txt	LTP379	ltpFR2	15	7	GRILL	661	n/a	n/a	0	0	0
1213713	WORD	wordpools/wasnorm_wordpool_576.txt	LTP379	ltpFR2	15	7	SUNRISE	1407	n/a	n/a	0	0	0
1216513	WORD	wordpools/wasnorm_wordpool_576.txt	LTP379	ltpFR2	15	7	GARDEN	623	n/a	n/a	0	0	0
1218964	WORD	wordpools/wasnorm_wordpool_576.txt	LTP379	ltpFR2	15	7	MAMMAL	861	n/a	n/a	0	0	0
1221646	WORD	wordpools/wasnorm_wordpool_576.txt	LTP379	ltpFR2	15	7	CHIPMUNK	304	n/a	n/a	0	0	0
1224263	WORD	wordpools/wasnorm_wordpool_576.txt	LTP379	ltpFR2	15	7	SWITCH	1422	n/a	n/a	0	0	0
1226930	WORD	wordpools/wasnorm_wordpool_576.txt	LTP379	ltpFR2	15	7	DRIVER	499	n/a	n/a	0	0	0
1229546	WORD	wordpools/wasnorm_wordpool_576.txt	LTP379	ltpFR2	15	7	SNAIL	1332	n/a	n/a	0	0	0
1232180	WORD	wordpools/wasnorm_wordpool_576.txt	LTP379	ltpFR2	15	7	LEADER	807	n/a	n/a	0	0	0
1234829	WORD	wordpools/wasnorm_wordpool_576.txt	LTP379	ltpFR2	15	7	STONE	1385	n/a	n/a	0	0	0
1237562	WORD	wordpools/wasnorm_wordpool_576.txt	LTP379	ltpFR2	15	7	CRATER	400	n/a	n/a	0	0	0
1240030	WORD	wordpools/wasnorm_wordpool_576.txt	LTP379	ltpFR2	15	7	ULCER	1533	n/a	n/a	0	0	0
1242745	WORD	wordpools/wasnorm_wordpool_576.txt	LTP379	ltpFR2	15	7	NOVEL	960	n/a	n/a	0	0	0
1245529	WORD	wordpools/wasnorm_wordpool_576.txt	LTP379	ltpFR2	15	7	TERMITE	1451	n/a	n/a	0	0	0
1247996	WORD	wordpools/wasnorm_wordpool_576.txt	LTP379	ltpFR2	15	7	TURTLE	1522	n/a	n/a	0	0	0
1250445	WORD	wordpools/wasnorm_wordpool_576.txt	LTP379	ltpFR2	15	7	HEART	697	n/a	n/a	0	0	0
1253246	WORD	wordpools/wasnorm_wordpool_576.txt	LTP379	ltpFR2	15	7	CHAUFFEUR	283	n/a	n/a	0	0	0
1255980	WORD	wordpools/wasnorm_wordpool_576.txt	LTP379	ltpFR2	15	7	STAKE	1368	n/a	n/a	0	0	0
1258612	WORD	wordpools/wasnorm_wordpool_576.txt	LTP379	ltpFR2	15	7	FLESH	579	n/a	n/a	0	0	0
1261063	WORD	wordpools/wasnorm_wordpool_576.txt	LTP379	ltpFR2	15	7	LODGE	839	n/a	n/a	0	0	0
1263595	WORD	wordpools/wasnorm_wordpool_576.txt	LTP379	ltpFR2	15	7	CANYON	235	n/a	n/a	0	0	0
1266346	WORD	wordpools/wasnorm_wordpool_576.txt	LTP379	ltpFR2	15	7	VALLEY	1545	n/a	n/a	0	0	0
1268845	WORD	wordpools/wasnorm_wordpool_576.txt	LTP379	ltpFR2	15	7	SERVER	1272	n/a	n/a	0	0	0
1271578	WORD	wordpools/wasnorm_wordpool_576.txt	LTP379	ltpFR2	15	7	MILK	895	n/a	n/a	0	0	0
1273179	START	n/a	LTP379	ltpFR2	15	n/a	n/a	n/a	9	n/a	n/a	n/a	n/a
1274186	DISTRACTOR	n/a	LTP379	ltpFR2	15	7	n/a	n/a	n/a	n/a	0	0	0
1274196	PROB	n/a	LTP379	ltpFR2	15	n/a	n/a	n/a	9	15	3	4	8
1276262	PROB	n/a	LTP379	ltpFR2	15	n/a	n/a	n/a	9	19	9	4	6
1277761	PROB	n/a	LTP379	ltpFR2	15	n/a	n/a	n/a	9	20	4	9	7
1280695	PROB	n/a	LTP379	ltpFR2	15	n/a	n/a	n/a	9	18	6	7	5
1282661	PROB	n/a	LTP379	ltpFR2	15	n/a	n/a	n/a	9	16	6	4	6
1283979	PROB	n/a	LTP379	ltpFR2	15	n/a	n/a	n/a	9	22	9	8	5
1285979	PROB	n/a	LTP379	ltpFR2	15	n/a	n/a	n/a	9	19	1	9	9
1287112	PROB	n/a	LTP379	ltpFR2	15	n/a	n/a	n/a	9	5	1	1	3
1288129	PROB	n/a	LTP379	ltpFR2	15	n/a	n/a	n/a	9	13	3	7	3
1289312	PROB	n/a	LTP379	ltpFR2	15	n/a	n/a	n/a	9	25	7	9	9
1290778	PROB	n/a	LTP379	ltpFR2	15	n/a	n/a	n/a	9	15	3	4	8
1292046	PROB	n/a	LTP379	ltpFR2	15	n/a	n/a	n/a	9	5	3	1	1
1293196	PROB	n/a	LTP379	ltpFR2	15	n/a	n/a	n/a	9	7	1	3	3
1294778	PROB	n/a	LTP379	ltpFR2	15	n/a	n/a	n/a	9	24	7	9	8
1296900	STOP	n/a	LTP379	ltpFR2	15	n/a	n/a	n/a	9	n/a	n/a	n/a	n/a
1299013	REC_START	n/a	LTP379	ltpFR2	15	7	n/a	n/a	n/a	n/a	0	0	0
1303036	REC_WORD	wordpools/wasnorm_wordpool_576.txt	LTP379	ltpFR2	15	7	GRILL	661	n/a	n/a	0	0	0
1303885	REC_WORD	wordpools/wasnorm_wordpool_576.txt	LTP379	ltpFR2	15	7	SUNSET	1408	n/a	n/a	0	0	0
1305345	REC_WORD	wordpools/wasnorm_wordpool_576.txt	LTP379	ltpFR2	15	7	GARDEN	623	n/a	n/a	0	0	0
1306670	REC_WORD	wordpools/wasnorm_wordpool_576.txt	LTP379	ltpFR2	15	7	MAMMAL	861	n/a	n/a	0	0	0
1307953	REC_WORD	wordpools/wasnorm_wordpool_576.txt	LTP379	ltpFR2	15	7	CHIPMUNK	304	n/a	n/a	0	0	0
1309182	REC_WORD	wordpools/wasnorm_wordpool_576.txt	LTP379	ltpFR2	15	7	SWITCH	1422	n/a	n/a	0	0	0
1311985	REC_WORD	wordpools/wasnorm_wordpool_576.txt	LTP379	ltpFR2	15	7	DRIVER	499	n/a	n/a	0	0	0
1313515	REC_WORD	wordpools/wasnorm_wordpool_576.txt	LTP379	ltpFR2	15	7	SNAIL	1332	n/a	n/a	0	0	0
1314770	REC_WORD	wordpools/wasnorm_wordpool_576.txt	LTP379	ltpFR2	15	7	LEADER	807	n/a	n/a	0	0	0
1315962	REC_WORD	wordpools/wasnorm_wordpool_576.txt	LTP379	ltpFR2	15	7	STONE	1385	n/a	n/a	0	0	0
1317153	REC_WORD	wordpools/wasnorm_wordpool_576.txt	LTP379	ltpFR2	15	7	CRATER	400	n/a	n/a	0	0	0
1318637	REC_WORD	wordpools/wasnorm_wordpool_576.txt	LTP379	ltpFR2	15	7	ULCER	1533	n/a	n/a	0	0	0
1319806	REC_WORD	wordpools/wasnorm_wordpool_576.txt	LTP379	ltpFR2	15	7	NOVEL	960	n/a	n/a	0	0	0
1322168	REC_WORD	wordpools/wasnorm_wordpool_576.txt	LTP379	ltpFR2	15	7	TERMITE	1451	n/a	n/a	0	0	0
1323375	REC_WORD	wordpools/wasnorm_wordpool_576.txt	LTP379	ltpFR2	15	7	TURTLE	1522	n/a	n/a	0	0	0
1324523	REC_WORD	wordpools/wasnorm_wordpool_576.txt	LTP379	ltpFR2	15	7	HEART	697	n/a	n/a	0	0	0
1325643	REC_WORD	wordpools/wasnorm_wordpool_576.txt	LTP379	ltpFR2	15	7	CHAUFFEUR	283	n/a	n/a	0	0	0
1327174	REC_WORD	wordpools/wasnorm_wordpool_576.txt	LTP379	ltpFR2	15	7	STAKE	1368	n/a	n/a	0	0	0
1329226	REC_WORD	wordpools/wasnorm_wordpool_576.txt	LTP379	ltpFR2	15	7	FLESH	579	n/a	n/a	0	0	0
1333248	REC_WORD	wordpools/wasnorm_wordpool_576.txt	LTP379	ltpFR2	15	7	LODGE	839	n/a	n/a	0	0	0
1334509	REC_WORD	wordpools/wasnorm_wordpool_576.txt	LTP379	ltpFR2	15	7	CANYON	235	n/a	n/a	0	0	0
1336062	REC_WORD	wordpools/wasnorm_wordpool_576.txt	LTP379	ltpFR2	15	7	VALLEY	1545	n/a	n/a	0	0	0
1341081	REC_WORD	wordpools/wasnorm_wordpool_576.txt	LTP379	ltpFR2	15	7	SERVER	1272	n/a	n/a	0	0	0
1342866	REC_WORD	wordpools/wasnorm_wordpool_576.txt	LTP379	ltpFR2	15	7	MILK	895	n/a	n/a	0	0	0
1389460	DISTRACTOR	n/a	LTP379	ltpFR2	15	8	n/a	n/a	n/a	n/a	0	0	0
1389460	START	n/a	LTP379	ltpFR2	15	n/a	n/a	n/a	10	n/a	n/a	n/a	n/a
1389476	PROB	n/a	LTP379	ltpFR2	15	n/a	n/a	n/a	10	14	4	2	8
1391277	PROB	n/a	LTP379	ltpFR2	15	n/a	n/a	n/a	10	13	3	1	9
1392693	PROB	n/a	LTP379	ltpFR2	15	n/a	n/a	n/a	10	20	5	6	9
1393927	PROB	n/a	LTP379	ltpFR2	15	n/a	n/a	n/a	10	19	2	9	8
1395161	PROB	n/a	LTP379	ltpFR2	15	n/a	n/a	n/a	10	20	9	9	2
1396377	PROB	n/a	LTP379	ltpFR2	15	n/a	n/a	n/a	10	16	3	7	6
1397576	PROB	n/a	LTP379	ltpFR2	15	n/a	n/a	n/a	10	17	9	3	5
1399210	PROB	n/a	LTP379	ltpFR2	15	n/a	n/a	n/a	10	14	5	6	3
1400559	PROB	n/a	LTP379	ltpFR2	15	n/a	n/a	n/a	10	17	3	6	8
1403543	PROB	n/a	LTP379	ltpFR2	15	n/a	n/a	n/a	10	16	1	9	6
1404593	PROB	n/a	LTP379	ltpFR2	15	n/a	n/a	n/a	10	12	2	3	7
1406726	PROB	n/a	LTP379	ltpFR2	15	n/a	n/a	n/a	10	10	2	1	7
1408160	PROB	n/a	LTP379	ltpFR2	15	n/a	n/a	n/a	10	11	4	1	6
1409294	PROB	n/a	LTP379	ltpFR2	15	n/a	n/a	n/a	10	21	7	7	7
1410709	PROB	n/a	LTP379	ltpFR2	15	n/a	n/a	n/a	10	25	9	7	9
1412144	STOP	n/a	LTP379	ltpFR2	15	n/a	n/a	n/a	10	n/a	n/a	n/a	n/a
1414526	WORD	wordpools/wasnorm_wordpool_576.txt	LTP379	ltpFR2	15	8	PAPER	1011	n/a	n/a	0	0	0
1417027	WORD	wordpools/wasnorm_wordpool_576.txt	LTP379	ltpFR2	15	8	STAPLE	1371	n/a	n/a	0	0	0
1419476	WORD	wordpools/wasnorm_wordpool_576.txt	LTP379	ltpFR2	15	8	SCULPTURE	1258	n/a	n/a	0	0	0
1422243	WORD	wordpools/wasnorm_wordpool_576.txt	LTP379	ltpFR2	15	8	SKILLET	1317	n/a	n/a	0	0	0
1424776	WORD	wordpools/wasnorm_wordpool_576.txt	LTP379	ltpFR2	15	8	HORSE	719	n/a	n/a	0	0	0
1427293	WORD	wordpools/wasnorm_wordpool_576.txt	LTP379	ltpFR2	15	8	THIEF	1456	n/a	n/a	0	0	0
1429809	WORD	wordpools/wasnorm_wordpool_576.txt	LTP379	ltpFR2	15	8	SUSPECT	1415	n/a	n/a	0	0	0
1432592	WORD	wordpools/wasnorm_wordpool_576.txt	LTP379	ltpFR2	15	8	CRIB	407	n/a	n/a	0	0	0
1435260	WORD	wordpools/wasnorm_wordpool_576.txt	LTP379	ltpFR2	15	8	BOYFRIEND	162	n/a	n/a	0	0	0
1437726	WORD	wordpools/wasnorm_wordpool_576.txt	LTP379	ltpFR2	15	8	DANDRUFF	439	n/a	n/a	0	0	0
1440410	WORD	wordpools/wasnorm_wordpool_576.txt	LTP379	ltpFR2	15	8	KIDNEY	776	n/a	n/a	0	0	0
1443026	WORD	wordpools/wasnorm_wordpool_576.txt	LTP379	ltpFR2	15	8	CREVICE	405	n/a	n/a	0	0	0
1445692	WORD	wordpools/wasnorm_wordpool_576.txt	LTP379	ltpFR2	15	8	MOTEL	919	n/a	n/a	0	0	0
1448475	WORD	wordpools/wasnorm_wordpool_576.txt	LTP379	ltpFR2	15	8	PUDDING	1139	n/a	n/a	0	0	0
1450993	WORD	wordpools/wasnorm_wordpool_576.txt	LTP379	ltpFR2	15	8	PASTRY	1022	n/a	n/a	0	0	0
1453426	WORD	wordpools/wasnorm_wordpool_576.txt	LTP379	ltpFR2	15	8	SIDEWALK	1303	n/a	n/a	0	0	0
1455893	WORD	wordpools/wasnorm_wordpool_576.txt	LTP379	ltpFR2	15	8	AIRPLANE	12	n/a	n/a	0	0	0
1458592	WORD	wordpools/wasnorm_wordpool_576.txt	LTP379	ltpFR2	15	8	TROMBONE	1508	n/a	n/a	0	0	0
1461326	WORD	wordpools/wasnorm_wordpool_576.txt	LTP379	ltpFR2	15	8	BLOCKADE	137	n/a	n/a	0	0	0
1464109	WORD	wordpools/wasnorm_wordpool_576.txt	LTP379	ltpFR2	15	8	SKETCH	1315	n/a	n/a	0	0	0
1466725	WORD	wordpools/wasnorm_wordpool_576.txt	LTP379	ltpFR2	15	8	GRAVEL	659	n/a	n/a	0	0	0
1469276	WORD	wordpools/wasnorm_wordpool_576.txt	LTP379	ltpFR2	15	8	STALLION	1369	n/a	n/a	0	0	0
1471842	WORD	wordpools/wasnorm_wordpool_576.txt	LTP379	ltpFR2	15	8	GAVEL	627	n/a	n/a	0	0	0
1474458	WORD	wordpools/wasnorm_wordpool_576.txt	LTP379	ltpFR2	15	8	BURGLAR	200	n/a	n/a	0	0	0
1476059	START	n/a	LTP379	ltpFR2	15	n/a	n/a	n/a	11	n/a	n/a	n/a	n/a
1476941	DISTRACTOR	n/a	LTP379	ltpFR2	15	8	n/a	n/a	n/a	n/a	0	0	0
1476943	PROB	n/a	LTP379	ltpFR2	15	n/a	n/a	n/a	11	15	4	7	4
1480558	PROB	n/a	LTP379	ltpFR2	15	n/a	n/a	n/a	11	11	5	3	3
1482426	PROB	n/a	LTP379	ltpFR2	15	n/a	n/a	n/a	11	19	7	4	8
1484242	PROB	n/a	LTP379	ltpFR2	15	n/a	n/a	n/a	11	19	7	7	5
1485675	PROB	n/a	LTP379	ltpFR2	15	n/a	n/a	n/a	11	15	6	7	2
1487575	PROB	n/a	LTP379	ltpFR2	15	n/a	n/a	n/a	11	19	9	2	8
1489508	PROB	n/a	LTP379	ltpFR2	15	n/a	n/a	n/a	11	14	3	3	8
1491475	PROB	n/a	LTP379	ltpFR2	15	n/a	n/a	n/a	11	14	9	2	3
1493076	PROB	n/a	LTP379	ltpFR2	15	n/a	n/a	n/a	11	24	7	9	8
1495641	PROB	n/a	LTP379	ltpFR2	15	n/a	n/a	n/a	11	20	7	7	6
1497176	PROB	n/a	LTP379	ltpFR2	15	n/a	n/a	n/a	11	16	6	9	1
1500058	STOP	n/a	LTP379	ltpFR2	15	n/a	n/a	n/a	11	n/a	n/a	n/a	n/a
1501842	REC_START	n/a	LTP379	ltpFR2	15	8	n/a	n/a	n/a	n/a	0	0	0
1508939	REC_WORD	wordpools/wasnorm_wordpool_576.txt	LTP379	ltpFR2	15	8	PAPER	1011	n/a	n/a	0	0	0
1510180	REC_WORD	wordpools/wasnorm_wordpool_576.txt	LTP379	ltpFR2	15	8	STAPLE	1371	n/a	n/a	0	0	0
1511521	REC_WORD	wordpools/wasnorm_wordpool_576.txt	LTP379	ltpFR2	15	8	SCULPTURE	1258	n/a	n/a	0	0	0
1512976	REC_WORD	wordpools/wasnorm_wordpool_576.txt	LTP379	ltpFR2	15	8	SKILLET	1317	n/a	n/a	0	0	0
1514759	REC_WORD	wordpools/wasnorm_wordpool_576.txt	LTP379	ltpFR2	15	8	HORSE	719	n/a	n/a	0	0	0
1516150	REC_WORD	wordpools/wasnorm_wordpool_576.txt	LTP379	ltpFR2	15	8	THIEF	1456	n/a	n/a	0	0	0
1521180	REC_WORD	wordpools/wasnorm_wordpool_576.txt	LTP379	ltpFR2	15	8	SUSPECT	1415	n/a	n/a	0	0	0
1522375	REC_WORD	wordpools/wasnorm_wordpool_576.txt	LTP379	ltpFR2	15	8	CRIB	407	n/a	n/a	0	0	0
1524008	REC_WORD	wordpools/wasnorm_wordpool_576.txt	LTP379	ltpFR2	15	8	BOYFRIEND	162	n/a	n/a	0	0	0
1529158	REC_WORD	wordpools/wasnorm_wordpool_576.txt	LTP379	ltpFR2	15	8	CREVICE	405	n/a	n/a	0	0	0
1530740	REC_WORD	wordpools/wasnorm_wordpool_576.txt	LTP379	ltpFR2	15	8	KIDNEY	776	n/a	n/a	0	0	0
1532240	REC_WORD	wordpools/wasnorm_wordpool_576.txt	LTP379	ltpFR2	15	8	MOTEL	919	n/a	n/a	0	0	0
1534137	REC_WORD	wordpools/wasnorm_wordpool_576.txt	LTP379	ltpFR2	15	8	PUDDING	1139	n/a	n/a	0	0	0
1535829	REC_WORD	wordpools/wasnorm_wordpool_576.txt	LTP379	ltpFR2	15	8	PASTRY	1022	n/a	n/a	0	0	0
1538377	REC_WORD	wordpools/wasnorm_wordpool_576.txt	LTP379	ltpFR2	15	8	SIDEWALK	1303	n/a	n/a	0	0	0
1540045	REC_WORD	wordpools/wasnorm_wordpool_576.txt	LTP379	ltpFR2	15	8	AIRPLANE	12	n/a	n/a	0	0	0
1541387	REC_WORD	wordpools/wasnorm_wordpool_576.txt	LTP379	ltpFR2	15	8	TROMBONE	1508	n/a	n/a	0	0	0
1542915	REC_WORD	wordpools/wasnorm_wordpool_576.txt	LTP379	ltpFR2	15	8	BLOCKADE	137	n/a	n/a	0	0	0
1544305	REC_WORD	wordpools/wasnorm_wordpool_576.txt	LTP379	ltpFR2	15	8	SKETCH	1315	n/a	n/a	0	0	0
1546450	REC_WORD	wordpools/wasnorm_wordpool_576.txt	LTP379	ltpFR2	15	8	GRAVEL	659	n/a	n/a	0	0	0
1552650	REC_WORD	wordpools/wasnorm_wordpool_576.txt	LTP379	ltpFR2	15	8	STALLION	1369	n/a	n/a	0	0	0
1555650	REC_WORD	wordpools/wasnorm_wordpool_576.txt	LTP379	ltpFR2	15	8	GAVEL	627	n/a	n/a	0	0	0
1557272	REC_WORD	wordpools/wasnorm_wordpool_576.txt	LTP379	ltpFR2	15	8	BURGLAR	200	n/a	n/a	0	0	0
1578374	REST_REWET	n/a	LTP379	ltpFR2	15	8	n/a	n/a	n/a	n/a	0	0	0
1710072	WORD	wordpools/wasnorm_wordpool_576.txt	LTP379	ltpFR2	15	9	MONSTER	912	n/a	n/a	0	0	0
1712721	WORD	wordpools/wasnorm_wordpool_576.txt	LTP379	ltpFR2	15	9	NOTEBOOK	959	n/a	n/a	0	0	0
1715339	WORD	wordpools/wasnorm_wordpool_576.txt	LTP379	ltpFR2	15	9	JUGGLER	763	n/a	n/a	0	0	0
1717804	WORD	wordpools/wasnorm_wordpool_576.txt	LTP379	ltpFR2	15	9	WHISKERS	1605	n/a	n/a	0	0	0
1720437	WORD	wordpools/wasnorm_wordpool_576.txt	LTP379	ltpFR2	15	9	MEAT	883	n/a	n/a	0	0	0
1723205	WORD	wordpools/wasnorm_wordpool_576.txt	LTP379	ltpFR2	15	9	WARDROBE	1587	n/a	n/a	0	0	0
1726022	WORD	wordpools/wasnorm_wordpool_576.txt	LTP379	ltpFR2	15	9	BUREAU	199	n/a	n/a	0	0	0
1728537	WORD	wordpools/wasnorm_wordpool_576.txt	LTP379	ltpFR2	15	9	ARMY	39	n/a	n/a	0	0	0
1731238	WORD	wordpools/wasnorm_wordpool_576.txt	LTP379	ltpFR2	15	9	STATUE	1374	n/a	n/a	0	0	0
1733754	WORD	wordpools/wasnorm_wordpool_576.txt	LTP379	ltpFR2	15	9	JOURNAL	760	n/a	n/a	0	0	0
1736437	WORD	wordpools/wasnorm_wordpool_576.txt	LTP379	ltpFR2	15	9	SHELF	1280	n/a	n/a	0	0	0
1738888	WORD	wordpools/wasnorm_wordpool_576.txt	LTP379	ltpFR2	15	9	LAMP	798	n/a	n/a	0	0	0
1741372	WORD	wordpools/wasnorm_wordpool_576.txt	LTP379	ltpFR2	15	9	POISON	1096	n/a	n/a	0	0	0
1743955	WORD	wordpools/wasnorm_wordpool_576.txt	LTP379	ltpFR2	15	9	COLONEL	348	n/a	n/a	0	0	0
1746587	WORD	wordpools/wasnorm_wordpool_576.txt	LTP379	ltpFR2	15	9	PORK	1108	n/a	n/a	0	0	0
1749038	WORD	wordpools/wasnorm_wordpool_576.txt	LTP379	ltpFR2	15	9	LILY	821	n/a	n/a	0	0	0
1751704	WORD	wordpools/wasnorm_wordpool_576.txt	LTP379	ltpFR2	15	9	BOUQUET	157	n/a	n/a	0	0	0
1754288	WORD	wordpools/wasnorm_wordpool_576.txt	LTP379	ltpFR2	15	9	PECAN	1036	n/a	n/a	0	0	0
1756770	WORD	wordpools/wasnorm_wordpool_576.txt	LTP379	ltpFR2	15	9	TUBA	1515	n/a	n/a	0	0	0
1759537	WORD	wordpools/wasnorm_wordpool_576.txt	LTP379	ltpFR2	15	9	JUDGE	761	n/a	n/a	0	0	0
1762105	WORD	wordpools/wasnorm_wordpool_576.txt	LTP379	ltpFR2	15	9	JURY	766	n/a	n/a	0	0	0
1764737	WORD	wordpools/wasnorm_wordpool_576.txt	LTP379	ltpFR2	15	9	RATTLE	1170	n/a	n/a	0	0	0
1767388	WORD	wordpools/wasnorm_wordpool_576.txt	LTP379	ltpFR2	15	9	CASHIER	254	n/a	n/a	0	0	0
1770188	WORD	wordpools/wasnorm_wordpool_576.txt	LTP379	ltpFR2	15	9	COFFEE	341	n/a	n/a	0	0	0
1771804	START	n/a	LTP379	ltpFR2	15	n/a	n/a	n/a	12	n/a	n/a	n/a	n/a
1772829	DISTRACTOR	n/a	LTP379	ltpFR2	15	9	n/a	n/a	n/a	n/a	0	0	0
1772837	PROB	n/a	LTP379	ltpFR2	15	n/a	n/a	n/a	12	17	8	3	6
1774853	PROB	n/a	LTP379	ltpFR2	15	n/a	n/a	n/a	12	20	7	9	4
1776954	PROB	n/a	LTP379	ltpFR2	15	n/a	n/a	n/a	12	7	1	4	2
1778254	PROB	n/a	LTP379	ltpFR2	15	n/a	n/a	n/a	12	17	5	6	6
1780321	PROB	n/a	LTP379	ltpFR2	15	n/a	n/a	n/a	12	15	7	3	5
1782021	PROB	n/a	LTP379	ltpFR2	15	n/a	n/a	n/a	12	19	8	5	6
1783887	PROB	n/a	LTP379	ltpFR2	15	n/a	n/a	n/a	12	16	2	5	9
1785670	PROB	n/a	LTP379	ltpFR2	15	n/a	n/a	n/a	12	14	7	6	1
1787054	PROB	n/a	LTP379	ltpFR2	15	n/a	n/a	n/a	12	18	7	9	2
1788620	PROB	n/a	LTP379	ltpFR2	15	n/a	n/a	n/a	12	24	8	9	7
1791436	PROB	n/a	LTP379	ltpFR2	15	n/a	n/a	n/a	12	19	8	8	3
1792836	PROB	n/a	LTP379	ltpFR2	15	n/a	n/a	n/a	12	19	5	7	7
1794395	STOP	n/a	LTP379	ltpFR2	15	n/a	n/a	n/a	12	n/a	n/a	n/a	n/a
1797703	REC_START	n/a	LTP379	ltpFR2	15	9	n/a	n/a	n/a	n/a	0	0	0
1804470	REC_WORD	wordpools/wasnorm_wordpool_576.txt	LTP379	ltpFR2	15	9	MONSTER	912	n/a	n/a	0	0	0
1805786	REC_WORD	wordpools/wasnorm_wordpool_576.txt	LTP379	ltpFR2	15	9	DIARY	460	n/a	n/a	0	0	0
1807133	REC_WORD	wordpools/wasnorm_wordpool_576.txt	LTP379	ltpFR2	15	9	JUGGLER	763	n/a	n/a	0	0	0
1809728	REC_WORD	wordpools/wasnorm_wordpool_576.txt	LTP379	ltpFR2	15	9	WHISKERS	1605	n/a	n/a	0	0	0
1811198	REC_WORD	wordpools/wasnorm_wordpool_576.txt	LTP379	ltpFR2	15	9	MEAT	883	n/a	n/a	0	0	0
1812405	REC_WORD	wordpools/wasnorm_wordpool_576.txt	LTP379	ltpFR2	15	9	WARDROBE	1587	n/a	n/a	0	0	0
1813973	REC_WORD	wordpools/wasnorm_wordpool_576.txt	LTP379	ltpFR2	15	9	BUREAU	199	n/a	n/a	0	0	0
1815008	REC_WORD	wordpools/wasnorm_wordpool_576.txt	LTP379	ltpFR2	15	9	ARMY	39	n/a	n/a	0	0	0
1816383	REC_WORD	wordpools/wasnorm_wordpool_576.txt	LTP379	ltpFR2	15	9	STATUE	1374	n/a	n/a	0	0	0
1818741	REC_WORD	wordpools/wasnorm_wordpool_576.txt	LTP379	ltpFR2	15	9	JOURNAL	760	n/a	n/a	0	0	0
1819863	REC_WORD	wordpools/wasnorm_wordpool_576.txt	LTP379	ltpFR2	15	9	SHELF	1280	n/a	n/a	0	0	0
1821541	REC_WORD	wordpools/wasnorm_wordpool_576.txt	LTP379	ltpFR2	15	9	LAMP	798	n/a	n/a	0	0	0
1823071	REC_WORD	wordpools/wasnorm_wordpool_576.txt	LTP379	ltpFR2	15	9	POISON	1096	n/a	n/a	0	0	0
1824697	REC_WORD	wordpools/wasnorm_wordpool_576.txt	LTP379	ltpFR2	15	9	COLONEL	348	n/a	n/a	0	0	0
1826128	REC_WORD	wordpools/wasnorm_wordpool_576.txt	LTP379	ltpFR2	15	9	PORK	1108	n/a	n/a	0	0	0
1827844	REC_WORD	wordpools/wasnorm_wordpool_576.txt	LTP379	ltpFR2	15	9	LILY	821	n/a	n/a	0	0	0
1829158	REC_WORD	wordpools/wasnorm_wordpool_576.txt	LTP379	ltpFR2	15	9	BOUQUET	157	n/a	n/a	0	0	0
1831009	REC_WORD	wordpools/wasnorm_wordpool_576.txt	LTP379	ltpFR2	15	9	PECAN	1036	n/a	n/a	0	0	0
1832630	REC_WORD	wordpools/wasnorm_wordpool_576.txt	LTP379	ltpFR2	15	9	TUBA	1515	n/a	n/a	0	0	0
1834430	REC_WORD	wordpools/wasnorm_wordpool_576.txt	LTP379	ltpFR2	15	9	JUDGE	761	n/a	n/a	0	0	0
1835649	REC_WORD	wordpools/wasnorm_wordpool_576.txt	LTP379	ltpFR2	15	9	JURY	766	n/a	n/a	0	0	0
1836930	REC_WORD	wordpools/wasnorm_wordpool_576.txt	LTP379	ltpFR2	15	9	RATTLE	1170	n/a	n/a	0	0	0
1838873	REC_WORD	wordpools/wasnorm_wordpool_576.txt	LTP379	ltpFR2	15	9	CASHIER	254	n/a	n/a	0	0	0
1840660	REC_WORD	wordpools/wasnorm_wordpool_576.txt	LTP379	ltpFR2	15	9	COFFEE	341	n/a	n/a	0	0	0
1888136	WORD	wordpools/wasnorm_wordpool_576.txt	LTP379	ltpFR2	15	10	SILK	1307	n/a	n/a	0	0	0
1890685	WORD	wordpools/wasnorm_wordpool_576.txt	LTP379	ltpFR2	15	10	FIDDLE	561	n/a	n/a	0	0	0
1893302	WORD	wordpools/wasnorm_wordpool_576.txt	LTP379	ltpFR2	15	10	HUMAN	726	n/a	n/a	0	0	0
1895936	WORD	wordpools/wasnorm_wordpool_576.txt	LTP379	ltpFR2	15	10	BODY	145	n/a	n/a	0	0	0
1898718	WORD	wordpools/wasnorm_wordpool_576.txt	LTP379	ltpFR2	15	10	BEAST	108	n/a	n/a	0	0	0
1901219	WORD	wordpools/wasnorm_wordpool_576.txt	LTP379	ltpFR2	15	10	SWORD	1423	n/a	n/a	0	0	0
1903851	WORD	wordpools/wasnorm_wordpool_576.txt	LTP379	ltpFR2	15	10	BELLY	119	n/a	n/a	0	0	0
1906651	WORD	wordpools/wasnorm_wordpool_576.txt	LTP379	ltpFR2	15	10	POET	1095	n/a	n/a	0	0	0
1909319	WORD	wordpools/wasnorm_wordpool_576.txt	LTP379	ltpFR2	15	10	PLATE	1086	n/a	n/a	0	0	0
1912085	WORD	wordpools/wasnorm_wordpool_576.txt	LTP379	ltpFR2	15	10	REPORT	1184	n/a	n/a	0	0	0
1914902	WORD	wordpools/wasnorm_wordpool_576.txt	LTP379	ltpFR2	15	10	BLENDER	136	n/a	n/a	0	0	0
1917551	WORD	wordpools/wasnorm_wordpool_576.txt	LTP379	ltpFR2	15	10	SEAL	1262	n/a	n/a	0	0	0
1920002	WORD	wordpools/wasnorm_wordpool_576.txt	LTP379	ltpFR2	15	10	WINDOW	1611	n/a	n/a	0	0	0
1922718	WORD	wordpools/wasnorm_wordpool_576.txt	LTP379	ltpFR2	15	10	LOFT	840	n/a	n/a	0	0	0
1925501	WORD	wordpools/wasnorm_wordpool_576.txt	LTP379	ltpFR2	15	10	MATTRESS	879	n/a	n/a	0	0	0
1928302	WORD	wordpools/wasnorm_wordpool_576.txt	LTP379	ltpFR2	15	10	BRICK	172	n/a	n/a	0	0	0
1931068	WORD	wordpools/wasnorm_wordpool_576.txt	LTP379	ltpFR2	15	10	BRIEFCASE	175	n/a	n/a	0	0	0
1933717	WORD	wordpools/wasnorm_wordpool_576.txt	LTP379	ltpFR2	15	10	MESSAGE	888	n/a	n/a	0	0	0
1936467	WORD	wordpools/wasnorm_wordpool_576.txt	LTP379	ltpFR2	15	10	LIZARD	834	n/a	n/a	0	0	0
1939035	WORD	wordpools/wasnorm_wordpool_576.txt	LTP379	ltpFR2	15	10	GUITAR	670	n/a	n/a	0	0	0
1941567	WORD	wordpools/wasnorm_wordpool_576.txt	LTP379	ltpFR2	15	10	WIFE	1609	n/a	n/a	0	0	0
1944368	WORD	wordpools/wasnorm_wordpool_576.txt	LTP379	ltpFR2	15	10	CANDY	230	n/a	n/a	0	0	0
1947152	WORD	wordpools/wasnorm_wordpool_576.txt	LTP379	ltpFR2	15	10	HONEY	713	n/a	n/a	0	0	0
1949935	WORD	wordpools/wasnorm_wordpool_576.txt	LTP379	ltpFR2	15	10	KNIFE	785	n/a	n/a	0	0	0
1951551	START	n/a	LTP379	ltpFR2	15	n/a	n/a	n/a	13	n/a	n/a	n/a	n/a
1952445	DISTRACTOR	n/a	LTP379	ltpFR2	15	10	n/a	n/a	n/a	n/a	0	0	0
1952450	PROB	n/a	LTP379	ltpFR2	15	n/a	n/a	n/a	13	11	2	2	7
1954600	PROB	n/a	LTP379	ltpFR2	15	n/a	n/a	n/a	13	23	6	9	8
1957101	PROB	n/a	LTP379	ltpFR2	15	n/a	n/a	n/a	13	16	9	2	5
1958784	PROB	n/a	LTP379	ltpFR2	15	n/a	n/a	n/a	13	17	2	9	6
1961035	PROB	n/a	LTP379	ltpFR2	15	n/a	n/a	n/a	13	9	1	7	1
1962201	PROB	n/a	LTP379	ltpFR2	15	n/a	n/a	n/a	13	20	6	8	6
1963567	PROB	n/a	LTP379	ltpFR2	15	n/a	n/a	n/a	13	12	5	6	1
1964717	PROB	n/a	LTP379	ltpFR2	15	n/a	n/a	n/a	13	16	5	4	7
1966351	PROB	n/a	LTP379	ltpFR2	15	n/a	n/a	n/a	13	10	5	1	4
1967567	PROB	n/a	LTP379	ltpFR2	15	n/a	n/a	n/a	13	16	8	1	7
1968784	PROB	n/a	LTP379	ltpFR2	15	n/a	n/a	n/a	13	10	5	1	4
1970084	PROB	n/a	LTP379	ltpFR2	15	n/a	n/a	n/a	13	19	9	9	1
1971418	PROB	n/a	LTP379	ltpFR2	15	n/a	n/a	n/a	13	13	4	8	1
1972750	PROB	n/a	LTP379	ltpFR2	15	n/a	n/a	n/a	13	20	7	7	6
1975551	STOP	n/a	LTP379	ltpFR2	15	n/a	n/a	n/a	13	n/a	n/a	n/a	n/a
1977302	REC_START	n/a	LTP379	ltpFR2	15	10	n/a	n/a	n/a	n/a	0	0	0
1980008	REC_WORD	wordpools/wasnorm_wordpool_576.txt	LTP379	ltpFR2	15	10	SILK	1307	n/a	n/a	0	0	0
1981556	REC_WORD	wordpools/wasnorm_wordpool_576.txt	LTP379	ltpFR2	15	10	FIDDLE	561	n/a	n/a	0	0	0
1982865	REC_WORD	wordpools/wasnorm_wordpool_576.txt	LTP379	ltpFR2	15	10	HUMAN	726	n/a	n/a	0	0	0
1984406	REC_WORD	wordpools/wasnorm_wordpool_576.txt	LTP379	ltpFR2	15	10	BODY	145	n/a	n/a	0	0	0
1986591	REC_WORD	wordpools/wasnorm_wordpool_576.txt	LTP379	ltpFR2	15	10	BEAST	108	n/a	n/a	0	0	0
1990292	REC_WORD	wordpools/wasnorm_wordpool_576.txt	LTP379	ltpFR2	15	10	SWORD	1423	n/a	n/a	0	0	0
1995606	REC_WORD	wordpools/wasnorm_wordpool_576.txt	LTP379	ltpFR2	15	10	BELLY	119	n/a	n/a	0	0	0
1996807	REC_WORD	wordpools/wasnorm_wordpool_576.txt	LTP379	ltpFR2	15	10	POET	1095	n/a	n/a	0	0	0
1997580	REC_WORD	wordpools/wasnorm_wordpool_576.txt	LTP379	ltpFR2	15	10	PLATE	1086	n/a	n/a	0	0	0
1999961	REC_WORD	wordpools/wasnorm_wordpool_576.txt	LTP379	ltpFR2	15	10	REPORT	1184	n/a	n/a	0	0	0
2001401	REC_WORD	wordpools/wasnorm_wordpool_576.txt	LTP379	ltpFR2	15	10	BLENDER	136	n/a	n/a	0	0	0
2002634	REC_WORD	wordpools/wasnorm_wordpool_576.txt	LTP379	ltpFR2	15	10	SEAL	1262	n/a	n/a	0	0	0
2003941	REC_WORD	wordpools/wasnorm_wordpool_576.txt	LTP379	ltpFR2	15	10	WINDOW	1611	n/a	n/a	0	0	0
2005307	REC_WORD	wordpools/wasnorm_wordpool_576.txt	LTP379	ltpFR2	15	10	LOFT	840	n/a	n/a	0	0	0
2006923	REC_WORD	wordpools/wasnorm_wordpool_576.txt	LTP379	ltpFR2	15	10	MATTRESS	879	n/a	n/a	0	0	0
2008657	REC_WORD	wordpools/wasnorm_wordpool_576.txt	LTP379	ltpFR2	15	10	BRICK	172	n/a	n/a	0	0	0
2010603	REC_WORD	wordpools/wasnorm_wordpool_576.txt	LTP379	ltpFR2	15	10	BRIEFCASE	175	n/a	n/a	0	0	0
2011963	REC_WORD	wordpools/wasnorm_wordpool_576.txt	LTP379	ltpFR2	15	10	MESSAGE	888	n/a	n/a	0	0	0
2013445	REC_WORD	wordpools/wasnorm_wordpool_576.txt	LTP379	ltpFR2	15	10	LIZARD	834	n/a	n/a	0	0	0
2014972	REC_WORD	wordpools/wasnorm_wordpool_576.txt	LTP379	ltpFR2	15	10	GUITAR	670	n/a	n/a	0	0	0
2017743	REC_WORD	wordpools/wasnorm_wordpool_576.txt	LTP379	ltpFR2	15	10	WIFE	1609	n/a	n/a	0	0	0
2020852	REC_WORD	wordpools/wasnorm_wordpool_576.txt	LTP379	ltpFR2	15	10	CANDY	230	n/a	n/a	0	0	0
2022111	REC_WORD	wordpools/wasnorm_wordpool_576.txt	LTP379	ltpFR2	15	10	HONEY	713	n/a	n/a	0	0	0
2067765	WORD	wordpools/wasnorm_wordpool_576.txt	LTP379	ltpFR2	15	11	CHAPEL	280	n/a	n/a	0	0	0
2070350	WORD	wordpools/wasnorm_wordpool_576.txt	LTP379	ltpFR2	15	11	FLASHLIGHT	575	n/a	n/a	0	0	0
2073149	WORD	wordpools/wasnorm_wordpool_576.txt	LTP379	ltpFR2	15	11	POLICE	1098	n/a	n/a	0	0	0
2075715	WORD	wordpools/wasnorm_wordpool_576.txt	LTP379	ltpFR2	15	11	PEBBLE	1035	n/a	n/a	0	0	0
2078283	WORD	wordpools/wasnorm_wordpool_576.txt	LTP379	ltpFR2	15	11	PLAZA	1088	n/a	n/a	0	0	0
2081033	WORD	wordpools/wasnorm_wordpool_576.txt	LTP379	ltpFR2	15	11	ANTLER	29	n/a	n/a	0	0	0
2083732	WORD	wordpools/wasnorm_wordpool_576.txt	LTP379	ltpFR2	15	11	PASTA	1021	n/a	n/a	0	0	0
2086482	WORD	wordpools/wasnorm_wordpool_576.txt	LTP379	ltpFR2	15	11	SMOG	1330	n/a	n/a	0	0	0
2089299	WORD	wordpools/wasnorm_wordpool_576.txt	LTP379	ltpFR2	15	11	PISTON	1076	n/a	n/a	0	0	0
2091899	WORD	wordpools/wasnorm_wordpool_576.txt	LTP379	ltpFR2	15	11	CLOTHES	327	n/a	n/a	0	0	0
2094416	WORD	wordpools/wasnorm_wordpool_576.txt	LTP379	ltpFR2	15	11	WASHER	1592	n/a	n/a	0	0	0
2096848	WORD	wordpools/wasnorm_wordpool_576.txt	LTP379	ltpFR2	15	11	MACHINE	852	n/a	n/a	0	0	0
2099366	WORD	wordpools/wasnorm_wordpool_576.txt	LTP379	ltpFR2	15	11	PIZZA	1079	n/a	n/a	0	0	0
2102049	WORD	wordpools/wasnorm_wordpool_576.txt	LTP379	ltpFR2	15	11	GLOBE	641	n/a	n/a	0	0	0
2104781	WORD	wordpools/wasnorm_wordpool_576.txt	LTP379	ltpFR2	15	11	COUNTRY	388	n/a	n/a	0	0	0
2107431	WORD	wordpools/wasnorm_wordpool_576.txt	LTP379	ltpFR2	15	11	FIREPLACE	570	n/a	n/a	0	0	0
2109915	WORD	wordpools/wasnorm_wordpool_576.txt	LTP379	ltpFR2	15	11	CRAB	397	n/a	n/a	0	0	0
2112581	WORD	wordpools/wasnorm_wordpool_576.txt	LTP379	ltpFR2	15	11	SEAFOOD	1260	n/a	n/a	0	0	0
2114999	WORD	wordpools/wasnorm_wordpool_576.txt	LTP379	ltpFR2	15	11	GAZELLE	628	n/a	n/a	0	0	0
2117664	WORD	wordpools/wasnorm_wordpool_576.txt	LTP379	ltpFR2	15	11	HIGHWAY	707	n/a	n/a	0	0	0
2120315	WORD	wordpools/wasnorm_wordpool_576.txt	LTP379	ltpFR2	15	11	CLOUD	328	n/a	n/a	0	0	0
2123049	WORD	wordpools/wasnorm_wordpool_576.txt	LTP379	ltpFR2	15	11	FREEZER	604	n/a	n/a	0	0	0
2125481	WORD	wordpools/wasnorm_wordpool_576.txt	LTP379	ltpFR2	15	11	DOUGHNUT	490	n/a	n/a	0	0	0
2128015	WORD	wordpools/wasnorm_wordpool_576.txt	LTP379	ltpFR2	15	11	ZIPPER	1636	n/a	n/a	0	0	0
2129631	START	n/a	LTP379	ltpFR2	15	n/a	n/a	n/a	14	n/a	n/a	n/a	n/a
2130472	DISTRACTOR	n/a	LTP379	ltpFR2	15	11	n/a	n/a	n/a	n/a	0	0	0
2130481	PROB	n/a	LTP379	ltpFR2	15	n/a	n/a	n/a	14	16	8	2	6
2131949	PROB	n/a	LTP379	ltpFR2	15	n/a	n/a	n/a	14	17	5	5	7
2133332	PROB	n/a	LTP379	ltpFR2	15	n/a	n/a	n/a	14	13	3	3	7
2135015	PROB	n/a	LTP379	ltpFR2	15	n/a	n/a	n/a	14	15	8	4	3
2136564	PROB	n/a	LTP379	ltpFR2	15	n/a	n/a	n/a	14	16	7	4	5
2138265	PROB	n/a	LTP379	ltpFR2	15	n/a	n/a	n/a	14	13	9	1	3
2139398	PROB	n/a	LTP379	ltpFR2	15	n/a	n/a	n/a	14	16	2	5	9
2140965	PROB	n/a	LTP379	ltpFR2	15	n/a	n/a	n/a	14	4	1	2	1
2142165	PROB	n/a	LTP379	ltpFR2	15	n/a	n/a	n/a	14	12	8	1	3
2144215	PROB	n/a	LTP379	ltpFR2	15	n/a	n/a	n/a	14	5	1	2	2
2145215	PROB	n/a	LTP379	ltpFR2	15	n/a	n/a	n/a	14	11	3	6	2
2146614	PROB	n/a	LTP379	ltpFR2	15	n/a	n/a	n/a	14	9	3	2	4
2148398	PROB	n/a	LTP379	ltpFR2	15	n/a	n/a	n/a	14	15	5	3	7
2150198	PROB	n/a	LTP379	ltpFR2	15	n/a	n/a	n/a	14	11	2	3	6
2152749	STOP	n/a	LTP379	ltpFR2	15	n/a	n/a	n/a	14	n/a	n/a	n/a	n/a
2155399	REC_START	n/a	LTP379	ltpFR2	15	11	n/a	n/a	n/a	n/a	0	0	0
2158853	REC_WORD	wordpools/wasnorm_wordpool_576.txt	LTP379	ltpFR2	15	11	APPLE	33	n/a	n/a	0	0	0
2159518	REC_WORD	wordpools/wasnorm_wordpool_576.txt	LTP379	ltpFR2	15	11	FLASHLIGHT	575	n/a	n/a	0	0	0
2160814	REC_WORD	wordpools/wasnorm_wordpool_576.txt	LTP379	ltpFR2	15	11	POLICE	1098	n/a	n/a	0	0	0
2162165	REC_WORD	wordpools/wasnorm_wordpool_576.txt	LTP379	ltpFR2	15	11	PEBBLE	1035	n/a	n/a	0	0	0
2163361	REC_WORD	wordpools/wasnorm_wordpool_576.txt	LTP379	ltpFR2	15	11	PLAZA	1088	n/a	n/a	0	0	0
2168982	REC_WORD	wordpools/wasnorm_wordpool_576.txt	LTP379	ltpFR2	15	11	PASTA	1021	n/a	n/a	0	0	0
2170707	REC_WORD	wordpools/wasnorm_wordpool_576.txt	LTP379	ltpFR2	15	11	ANTLER	29	n/a	n/a	0	0	0
2175512	REC_WORD	wordpools/wasnorm_wordpool_576.txt	LTP379	ltpFR2	15	11	SMOG	1330	n/a	n/a	0	0	0
2177817	REC_WORD	wordpools/wasnorm_wordpool_576.txt	LTP379	ltpFR2	15	11	PISTON	1076	n/a	n/a	0	0	0
2180284	REC_WORD	wordpools/wasnorm_wordpool_576.txt	LTP379	ltpFR2	15	11	CLOTHES	327	n/a	n/a	0	0	0
2181320	REC_WORD	wordpools/wasnorm_wordpool_576.txt	LTP379	ltpFR2	15	11	WASHER	1592	n/a	n/a	0	0	0
2182763	REC_WORD	wordpools/wasnorm_wordpool_576.txt	LTP379	ltpFR2	15	11	MACHINE	852	n/a	n/a	0	0	0
2191597	REC_WORD	wordpools/wasnorm_wordpool_576.txt	LTP379	ltpFR2	15	11	PIZZA	1079	n/a	n/a	0	0	0
2192872	REC_WORD	wordpools/wasnorm_wordpool_576.txt	LTP379	ltpFR2	15	11	GLOBE	641	n/a	n/a	0	0	0
2194041	REC_WORD	wordpools/wasnorm_wordpool_576.txt	LTP379	ltpFR2	15	11	COUNTRY	388	n/a	n/a	0	0	0
2195532	REC_WORD	wordpools/wasnorm_wordpool_576.txt	LTP379	ltpFR2	15	11	FIREPLACE	570	n/a	n/a	0	0	0
2196986	REC_WORD	wordpools/wasnorm_wordpool_576.txt	LTP379	ltpFR2	15	11	CRAB	397	n/a	n/a	0	0	0
2197874	REC_WORD	wordpools/wasnorm_wordpool_576.txt	LTP379	ltpFR2	15	11	SEAFOOD	1260	n/a	n/a	0	0	0
2199351	REC_WORD	wordpools/wasnorm_wordpool_576.txt	LTP379	ltpFR2	15	11	GAZELLE	628	n/a	n/a	0	0	0
2200788	REC_WORD	wordpools/wasnorm_wordpool_576.txt	LTP379	ltpFR2	15	11	HIGHWAY	707	n/a	n/a	0	0	0
2202994	REC_WORD	wordpools/wasnorm_wordpool_576.txt	LTP379	ltpFR2	15	11	CLOUD	328	n/a	n/a	0	0	0
2204482	REC_WORD	wordpools/wasnorm_wordpool_576.txt	LTP379	ltpFR2	15	11	FREEZER	604	n/a	n/a	0	0	0
2205912	REC_WORD	wordpools/wasnorm_wordpool_576.txt	LTP379	ltpFR2	15	11	DOUGHNUT	490	n/a	n/a	0	0	0
2207049	REC_WORD	wordpools/wasnorm_wordpool_576.txt	LTP379	ltpFR2	15	11	ZIPPER	1636	n/a	n/a	0	0	0
2245846	DISTRACTOR	n/a	LTP379	ltpFR2	15	12	n/a	n/a	n/a	n/a	0	0	0
2245846	START	n/a	LTP379	ltpFR2	15	n/a	n/a	n/a	15	n/a	n/a	n/a	n/a
2245862	PROB	n/a	LTP379	ltpFR2	15	n/a	n/a	n/a	15	9	6	2	1
2247696	PROB	n/a	LTP379	ltpFR2	15	n/a	n/a	n/a	15	16	8	2	6
2248897	PROB	n/a	LTP379	ltpFR2	15	n/a	n/a	n/a	15	9	3	3	3
2249913	PROB	n/a	LTP379	ltpFR2	15	n/a	n/a	n/a	15	20	7	9	4
2251913	PROB	n/a	LTP379	ltpFR2	15	n/a	n/a	n/a	15	18	8	9	1
2253446	PROB	n/a	LTP379	ltpFR2	15	n/a	n/a	n/a	15	19	7	7	5
2254795	PROB	n/a	LTP379	ltpFR2	15	n/a	n/a	n/a	15	7	3	1	3
2256096	PROB	n/a	LTP379	ltpFR2	15	n/a	n/a	n/a	15	13	2	5	6
2258280	PROB	n/a	LTP379	ltpFR2	15	n/a	n/a	n/a	15	16	7	7	2
2259595	PROB	n/a	LTP379	ltpFR2	15	n/a	n/a	n/a	15	16	2	5	9
2262196	PROB	n/a	LTP379	ltpFR2	15	n/a	n/a	n/a	15	20	8	5	7
2263880	PROB	n/a	LTP379	ltpFR2	15	n/a	n/a	n/a	15	14	5	6	3
2265812	PROB	n/a	LTP379	ltpFR2	15	n/a	n/a	n/a	15	11	3	2	6
2267612	PROB	n/a	LTP379	ltpFR2	15	n/a	n/a	n/a	15	18	8	7	3
2269065	STOP	n/a	LTP379	ltpFR2	15	n/a	n/a	n/a	15	n/a	n/a	n/a	n/a
2270745	WORD	wordpools/wasnorm_wordpool_576.txt	LTP379	ltpFR2	15	12	OUTFIT	988	n/a	n/a	0	0	0
2273313	WORD	wordpools/wasnorm_wordpool_576.txt	LTP379	ltpFR2	15	12	FARMER	553	n/a	n/a	0	0	0
2276129	WORD	wordpools/wasnorm_wordpool_576.txt	LTP379	ltpFR2	15	12	LAKE	796	n/a	n/a	0	0	0
2278645	WORD	wordpools/wasnorm_wordpool_576.txt	LTP379	ltpFR2	15	12	FLASK	576	n/a	n/a	0	0	0
2281396	WORD	wordpools/wasnorm_wordpool_576.txt	LTP379	ltpFR2	15	12	CONTRACT	368	n/a	n/a	0	0	0
2283845	WORD	wordpools/wasnorm_wordpool_576.txt	LTP379	ltpFR2	15	12	POWDER	1117	n/a	n/a	0	0	0
2286445	WORD	wordpools/wasnorm_wordpool_576.txt	LTP379	ltpFR2	15	12	SURVEY	1414	n/a	n/a	0	0	0
2288879	WORD	wordpools/wasnorm_wordpool_576.txt	LTP379	ltpFR2	15	12	BADGE	68	n/a	n/a	0	0	0
2291678	WORD	wordpools/wasnorm_wordpool_576.txt	LTP379	ltpFR2	15	12	PICNIC	1060	n/a	n/a	0	0	0
2294362	WORD	wordpools/wasnorm_wordpool_576.txt	LTP379	ltpFR2	15	12	PERFUME	1049	n/a	n/a	0	0	0
2297079	WORD	wordpools/wasnorm_wordpool_576.txt	LTP379	ltpFR2	15	12	HAND	683	n/a	n/a	0	0	0
2299795	WORD	wordpools/wasnorm_wordpool_576.txt	LTP379	ltpFR2	15	12	HARP	689	n/a	n/a	0	0	0
2302528	WORD	wordpools/wasnorm_wordpool_576.txt	LTP379	ltpFR2	15	12	CANAL	226	n/a	n/a	0	0	0
2305062	WORD	wordpools/wasnorm_wordpool_576.txt	LTP379	ltpFR2	15	12	BATHTUB	100	n/a	n/a	0	0	0
2307861	WORD	wordpools/wasnorm_wordpool_576.txt	LTP379	ltpFR2	15	12	ICEBERG	731	n/a	n/a	0	0	0
2310695	WORD	wordpools/wasnorm_wordpool_576.txt	LTP379	ltpFR2	15	12	CARRIAGE	248	n/a	n/a	0	0	0
2313412	WORD	wordpools/wasnorm_wordpool_576.txt	LTP379	ltpFR2	15	12	LIPSTICK	829	n/a	n/a	0	0	0
2315962	WORD	wordpools/wasnorm_wordpool_576.txt	LTP379	ltpFR2	15	12	RECORD	1176	n/a	n/a	0	0	0
2318544	WORD	wordpools/wasnorm_wordpool_576.txt	LTP379	ltpFR2	15	12	BABY	64	n/a	n/a	0	0	0
2321245	WORD	wordpools/wasnorm_wordpool_576.txt	LTP379	ltpFR2	15	12	CLAM	315	n/a	n/a	0	0	0
2323912	WORD	wordpools/wasnorm_wordpool_576.txt	LTP379	ltpFR2	15	12	OINTMENT	974	n/a	n/a	0	0	0
2326711	WORD	wordpools/wasnorm_wordpool_576.txt	LTP379	ltpFR2	15	12	FRAGRANCE	599	n/a	n/a	0	0	0
2329362	WORD	wordpools/wasnorm_wordpool_576.txt	LTP379	ltpFR2	15	12	PARTNER	1017	n/a	n/a	0	0	0
2331879	WORD	wordpools/wasnorm_wordpool_576.txt	LTP379	ltpFR2	15	12	FRIEND	606	n/a	n/a	0	0	0
2333494	START	n/a	LTP379	ltpFR2	15	n/a	n/a	n/a	16	n/a	n/a	n/a	n/a
2334524	DISTRACTOR	n/a	LTP379	ltpFR2	15	12	n/a	n/a	n/a	n/a	0	0	0
2334528	PROB	n/a	LTP379	ltpFR2	15	n/a	n/a	n/a	16	13	7	1	5
2336995	PROB	n/a	LTP379	ltpFR2	15	n/a	n/a	n/a	16	19	9	5	5
2338444	PROB	n/a	LTP379	ltpFR2	15	n/a	n/a	n/a	16	21	6	8	7
2341794	PROB	n/a	LTP379	ltpFR2	15	n/a	n/a	n/a	16	9	4	4	1
2343178	PROB	n/a	LTP379	ltpFR2	15	n/a	n/a	n/a	16	20	4	8	8
2344895	PROB	n/a	LTP379	ltpFR2	15	n/a	n/a	n/a	16	8	1	1	6
2346028	PROB	n/a	LTP379	ltpFR2	15	n/a	n/a	n/a	16	10	5	4	1
2347511	PROB	n/a	LTP379	ltpFR2	15	n/a	n/a	n/a	16	22	7	6	9
2349395	PROB	n/a	LTP379	ltpFR2	15	n/a	n/a	n/a	16	15	4	9	2
2351494	PROB	n/a	LTP379	ltpFR2	15	n/a	n/a	n/a	16	14	6	3	5
2353995	PROB	n/a	LTP379	ltpFR2	15	n/a	n/a	n/a	16	13	9	1	3
2355311	PROB	n/a	LTP379	ltpFR2	15	n/a	n/a	n/a	16	9	1	3	5
2356803	STOP	n/a	LTP379	ltpFR2	15	n/a	n/a	n/a	16	n/a	n/a	n/a	n/a
2359444	REC_START	n/a	LTP379	ltpFR2	15	12	n/a	n/a	n/a	n/a	0	0	0
2367231	REC_WORD	wordpools/wasnorm_wordpool_576.txt	LTP379	ltpFR2	15	12	OUTFIT	988	n/a	n/a	0	0	0
2368559	REC_WORD	wordpools/wasnorm_wordpool_576.txt	LTP379	ltpFR2	15	12	FARMER	553	n/a	n/a	0	0	0
2369907	REC_WORD	wordpools/wasnorm_wordpool_576.txt	LTP379	ltpFR2	15	12	LAKE	796	n/a	n/a	0	0	0
2371657	REC_WORD	wordpools/wasnorm_wordpool_576.txt	LTP379	ltpFR2	15	12	FLASK	576	n/a	n/a	0	0	0
2374609	REC_WORD	wordpools/wasnorm_wordpool_576.txt	LTP379	ltpFR2	15	12	CONTRACT	368	n/a	n/a	0	0	0
2375344	REC_WORD	wordpools/wasnorm_wordpool_576.txt	LTP379	ltpFR2	15	12	BATHTUB	100	n/a	n/a	0	0	0
2376278	REC_WORD	wordpools/wasnorm_wordpool_576.txt	LTP379	ltpFR2	15	12	POWDER	1117	n/a	n/a	0	0	0
2382427	REC_WORD	wordpools/wasnorm_wordpool_576.txt	LTP379	ltpFR2	15	12	SURVEY	1414	n/a	n/a	0	0	0
2383993	REC_WORD	wordpools/wasnorm_wordpool_576.txt	LTP379	ltpFR2	15	12	BADGE	68	n/a	n/a	0	0	0
2385346	REC_WORD	wordpools/wasnorm_wordpool_576.txt	LTP379	ltpFR2	15	12	PICNIC	1060	n/a	n/a	0	0	0
2386663	REC_WORD	wordpools/wasnorm_wordpool_576.txt	LTP379	ltpFR2	15	12	PERFUME	1049	n/a	n/a	0	0	0
2388383	REC_WORD	wordpools/wasnorm_wordpool_576.txt	LTP379	ltpFR2	15	12	HAND	683	n/a	n/a	0	0	0
2390251	REC_WORD	wordpools/wasnorm_wordpool_576.txt	LTP379	ltpFR2	15	12	HARP	689	n/a	n/a	0	0	0
2394799	REC_WORD	wordpools/wasnorm_wordpool_576.txt	LTP379	ltpFR2	15	12	CANAL	226	n/a	n/a	0	0	0
2396735	REC_WORD	wordpools/wasnorm_wordpool_576.txt	LTP379	ltpFR2	15	12	BATHTUB	100	n/a	n/a	0	0	0
2398140	REC_WORD	wordpools/wasnorm_wordpool_576.txt	LTP379	ltpFR2	15	12	ICEBERG	731	n/a	n/a	0	0	0
2400022	REC_WORD	wordpools/wasnorm_wordpool_576.txt	LTP379	ltpFR2	15	12	CARRIAGE	248	n/a	n/a	0	0	0
2401785	REC_WORD	wordpools/wasnorm_wordpool_576.txt	LTP379	ltpFR2	15	12	LIPSTICK	829	n/a	n/a	0	0	0
2408276	REC_WORD	wordpools/wasnorm_wordpool_576.txt	LTP379	ltpFR2	15	12	BABY	64	n/a	n/a	0	0	0
2409563	REC_WORD	wordpools/wasnorm_wordpool_576.txt	LTP379	ltpFR2	15	12	RECORD	1176	n/a	n/a	0	0	0
2411589	REC_WORD	wordpools/wasnorm_wordpool_576.txt	LTP379	ltpFR2	15	12	CLAM	315	n/a	n/a	0	0	0
2413968	REC_WORD	wordpools/wasnorm_wordpool_576.txt	LTP379	ltpFR2	15	12	OINTMENT	974	n/a	n/a	0	0	0
2418744	REC_WORD	wordpools/wasnorm_wordpool_576.txt	LTP379	ltpFR2	15	12	PARTNER	1017	n/a	n/a	0	0	0
2419912	REC_WORD	wordpools/wasnorm_wordpool_576.txt	LTP379	ltpFR2	15	12	FRIEND	606	n/a	n/a	0	0	0
2449910	WORD	wordpools/wasnorm_wordpool_576.txt	LTP379	ltpFR2	15	13	SCISSORS	1250	n/a	n/a	0	0	0
2452427	WORD	wordpools/wasnorm_wordpool_576.txt	LTP379	ltpFR2	15	13	SCOTCH	1251	n/a	n/a	0	0	0
2455210	WORD	wordpools/wasnorm_wordpool_576.txt	LTP379	ltpFR2	15	13	VENUS	1557	n/a	n/a	0	0	0
2457659	WORD	wordpools/wasnorm_wordpool_576.txt	LTP379	ltpFR2	15	13	EUROPE	541	n/a	n/a	0	0	0
2460459	WORD	wordpools/wasnorm_wordpool_576.txt	LTP379	ltpFR2	15	13	COIN	343	n/a	n/a	0	0	0
2462976	WORD	wordpools/wasnorm_wordpool_576.txt	LTP379	ltpFR2	15	13	PARROT	1015	n/a	n/a	0	0	0
2465492	WORD	wordpools/wasnorm_wordpool_576.txt	LTP379	ltpFR2	15	13	CABBAGE	210	n/a	n/a	0	0	0
2468043	WORD	wordpools/wasnorm_wordpool_576.txt	LTP379	ltpFR2	15	13	SNACK	1331	n/a	n/a	0	0	0
2470492	WORD	wordpools/wasnorm_wordpool_576.txt	LTP379	ltpFR2	15	13	LUNCH	849	n/a	n/a	0	0	0
2473243	WORD	wordpools/wasnorm_wordpool_576.txt	LTP379	ltpFR2	15	13	CASHEW	253	n/a	n/a	0	0	0
2475692	WORD	wordpools/wasnorm_wordpool_576.txt	LTP379	ltpFR2	15	13	LONDON	843	n/a	n/a	0	0	0
2478226	WORD	wordpools/wasnorm_wordpool_576.txt	LTP379	ltpFR2	15	13	SALAD	1224	n/a	n/a	0	0	0
2480792	WORD	wordpools/wasnorm_wordpool_576.txt	LTP379	ltpFR2	15	13	SANDWICH	1232	n/a	n/a	0	0	0
2483393	WORD	wordpools/wasnorm_wordpool_576.txt	LTP379	ltpFR2	15	13	YACHT	1629	n/a	n/a	0	0	0
2485926	WORD	wordpools/wasnorm_wordpool_576.txt	LTP379	ltpFR2	15	13	PARSLEY	1016	n/a	n/a	0	0	0
2488458	WORD	wordpools/wasnorm_wordpool_576.txt	LTP379	ltpFR2	15	13	COOK	372	n/a	n/a	0	0	0
2491076	WORD	wordpools/wasnorm_wordpool_576.txt	LTP379	ltpFR2	15	13	CELLAR	267	n/a	n/a	0	0	0
2493792	WORD	wordpools/wasnorm_wordpool_576.txt	LTP379	ltpFR2	15	13	COOKBOOK	373	n/a	n/a	0	0	0
2496226	WORD	wordpools/wasnorm_wordpool_576.txt	LTP379	ltpFR2	15	13	CRAYON	401	n/a	n/a	0	0	0
2498959	WORD	wordpools/wasnorm_wordpool_576.txt	LTP379	ltpFR2	15	13	BUG	187	n/a	n/a	0	0	0
2501675	WORD	wordpools/wasnorm_wordpool_576.txt	LTP379	ltpFR2	15	13	SCARECROW	1245	n/a	n/a	0	0	0
2504259	WORD	wordpools/wasnorm_wordpool_576.txt	LTP379	ltpFR2	15	13	MILDEW	893	n/a	n/a	0	0	0
2506926	WORD	wordpools/wasnorm_wordpool_576.txt	LTP379	ltpFR2	15	13	STOMACH	1384	n/a	n/a	0	0	0
2509641	WORD	wordpools/wasnorm_wordpool_576.txt	LTP379	ltpFR2	15	13	DENTIST	447	n/a	n/a	0	0	0
2511242	START	n/a	LTP379	ltpFR2	15	n/a	n/a	n/a	17	n/a	n/a	n/a	n/a
2512205	DISTRACTOR	n/a	LTP379	ltpFR2	15	13	n/a	n/a	n/a	n/a	0	0	0
2512209	PROB	n/a	LTP379	ltpFR2	15	n/a	n/a	n/a	17	16	6	8	2
2514059	PROB	n/a	LTP379	ltpFR2	15	n/a	n/a	n/a	17	18	5	6	7
2517976	PROB	n/a	LTP379	ltpFR2	15	n/a	n/a	n/a	17	17	6	5	6
2519992	PROB	n/a	LTP379	ltpFR2	15	n/a	n/a	n/a	17	10	8	1	1
2521192	PROB	n/a	LTP379	ltpFR2	15	n/a	n/a	n/a	17	12	8	2	2
2522591	PROB	n/a	LTP379	ltpFR2	15	n/a	n/a	n/a	17	15	5	2	8
2524109	PROB	n/a	LTP379	ltpFR2	15	n/a	n/a	n/a	17	9	5	1	3
2526125	PROB	n/a	LTP379	ltpFR2	15	n/a	n/a	n/a	17	15	4	8	3
2528691	PROB	n/a	LTP379	ltpFR2	15	n/a	n/a	n/a	17	18	5	6	7
2531558	PROB	n/a	LTP379	ltpFR2	15	n/a	n/a	n/a	17	19	7	3	9
2535242	STOP	n/a	LTP379	ltpFR2	15	n/a	n/a	n/a	17	n/a	n/a	n/a	n/a
2537026	REC_START	n/a	LTP379	ltpFR2	15	13	n/a	n/a	n/a	n/a	0	0	0
2544122	REC_WORD	wordpools/wasnorm_wordpool_576.txt	LTP379	ltpFR2	15	13	SCISSORS	1250	n/a	n/a	0	0	0
2545549	REC_WORD	wordpools/wasnorm_wordpool_576.txt	LTP379	ltpFR2	15	13	SCOTCH	1251	n/a	n/a	0	0	0
2548950	REC_WORD	wordpools/wasnorm_wordpool_576.txt	LTP379	ltpFR2	15	13	VENUS	1557	n/a	n/a	0	0	0
2550365	REC_WORD	wordpools/wasnorm_wordpool_576.txt	LTP379	ltpFR2	15	13	EUROPE	541	n/a	n/a	0	0	0
2551744	REC_WORD	wordpools/wasnorm_wordpool_576.txt	LTP379	ltpFR2	15	13	COIN	343	n/a	n/a	0	0	0
2553115	REC_WORD	wordpools/wasnorm_wordpool_576.txt	LTP379	ltpFR2	15	13	PARROT	1015	n/a	n/a	0	0	0
2554464	REC_WORD	wordpools/wasnorm_wordpool_576.txt	LTP379	ltpFR2	15	13	CABBAGE	210	n/a	n/a	0	0	0
2555859	REC_WORD	wordpools/wasnorm_wordpool_576.txt	LTP379	ltpFR2	15	13	SNACK	1331	n/a	n/a	0	0	0
2557298	REC_WORD	wordpools/wasnorm_wordpool_576.txt	LTP379	ltpFR2	15	13	CASHEW	253	n/a	n/a	0	0	0
2559081	REC_WORD	wordpools/wasnorm_wordpool_576.txt	LTP379	ltpFR2	15	13	LONDON	843	n/a	n/a	0	0	0
2560253	REC_WORD	wordpools/wasnorm_wordpool_576.txt	LTP379	ltpFR2	15	13	SALAD	1224	n/a	n/a	0	0	0
2561499	REC_WORD	wordpools/wasnorm_wordpool_576.txt	LTP379	ltpFR2	15	13	SANDWICH	1232	n/a	n/a	0	0	0
2562862	REC_WORD	wordpools/wasnorm_wordpool_576.txt	LTP379	ltpFR2	15	13	YACHT	1629	n/a	n/a	0	0	0
2564312	REC_WORD	wordpools/wasnorm_wordpool_576.txt	LTP379	ltpFR2	15	13	PARSLEY	1016	n/a	n/a	0	0	0
2566147	REC_WORD	wordpools/wasnorm_wordpool_576.txt	LTP379	ltpFR2	15	13	COOK	372	n/a	n/a	0	0	0
2567270	REC_WORD	wordpools/wasnorm_wordpool_576.txt	LTP379	ltpFR2	15	13	CELLAR	267	n/a	n/a	0	0	0
2568740	REC_WORD	wordpools/wasnorm_wordpool_576.txt	LTP379	ltpFR2	15	13	COOKBOOK	373	n/a	n/a	0	0	0
2570072	REC_WORD	wordpools/wasnorm_wordpool_576.txt	LTP379	ltpFR2	15	13	CRAYON	401	n/a	n/a	0	0	0
2573154	REC_WORD	wordpools/wasnorm_wordpool_576.txt	LTP379	ltpFR2	15	13	BUG	187	n/a	n/a	0	0	0
2573994	REC_WORD	wordpools/wasnorm_wordpool_576.txt	LTP379	ltpFR2	15	13	SCREW	1254	n/a	n/a	0	0	0
2575337	REC_WORD	wordpools/wasnorm_wordpool_576.txt	LTP379	ltpFR2	15	13	SCARECROW	1245	n/a	n/a	0	0	0
2576871	REC_WORD	wordpools/wasnorm_wordpool_576.txt	LTP379	ltpFR2	15	13	MILDEW	893	n/a	n/a	0	0	0
2578151	REC_WORD	wordpools/wasnorm_wordpool_576.txt	LTP379	ltpFR2	15	13	STOMACH	1384	n/a	n/a	0	0	0
2579835	REC_WORD	wordpools/wasnorm_wordpool_576.txt	LTP379	ltpFR2	15	13	DENTIST	447	n/a	n/a	0	0	0
2627473	DISTRACTOR	n/a	LTP379	ltpFR2	15	14	n/a	n/a	n/a	n/a	0	0	0
2627473	START	n/a	LTP379	ltpFR2	15	n/a	n/a	n/a	18	n/a	n/a	n/a	n/a
2627489	PROB	n/a	LTP379	ltpFR2	15	n/a	n/a	n/a	18	10	2	1	7
2629224	PROB	n/a	LTP379	ltpFR2	15	n/a	n/a	n/a	18	10	2	7	1
2630274	PROB	n/a	LTP379	ltpFR2	15	n/a	n/a	n/a	18	21	6	7	8
2632473	PROB	n/a	LTP379	ltpFR2	15	n/a	n/a	n/a	18	11	3	4	4
2634823	PROB	n/a	LTP379	ltpFR2	15	n/a	n/a	n/a	18	12	9	1	2
2635974	PROB	n/a	LTP379	ltpFR2	15	n/a	n/a	n/a	18	12	3	7	2
2637207	PROB	n/a	LTP379	ltpFR2	15	n/a	n/a	n/a	18	5	1	2	2
2638240	PROB	n/a	LTP379	ltpFR2	15	n/a	n/a	n/a	18	17	9	5	3
2639973	PROB	n/a	LTP379	ltpFR2	15	n/a	n/a	n/a	18	12	7	2	3
2641506	PROB	n/a	LTP379	ltpFR2	15	n/a	n/a	n/a	18	10	4	3	3
2643040	PROB	n/a	LTP379	ltpFR2	15	n/a	n/a	n/a	18	13	2	7	4
2644556	PROB	n/a	LTP379	ltpFR2	15	n/a	n/a	n/a	18	17	7	7	3
2646223	PROB	n/a	LTP379	ltpFR2	15	n/a	n/a	n/a	18	13	6	4	3
2647456	PROB	n/a	LTP379	ltpFR2	15	n/a	n/a	n/a	18	3	1	1	1
2648423	PROB	n/a	LTP379	ltpFR2	15	n/a	n/a	n/a	18	12	4	7	1
2650468	STOP	n/a	LTP379	ltpFR2	15	n/a	n/a	n/a	18	n/a	n/a	n/a	n/a
2652622	WORD	wordpools/wasnorm_wordpool_576.txt	LTP379	ltpFR2	15	14	VELVET	1555	n/a	n/a	0	0	0
2655140	WORD	wordpools/wasnorm_wordpool_576.txt	LTP379	ltpFR2	15	14	JUNGLE	764	n/a	n/a	0	0	0
2657589	WORD	wordpools/wasnorm_wordpool_576.txt	LTP379	ltpFR2	15	14	SUNSET	1408	n/a	n/a	0	0	0
2660390	WORD	wordpools/wasnorm_wordpool_576.txt	LTP379	ltpFR2	15	14	PENGUIN	1044	n/a	n/a	0	0	0
2663140	WORD	wordpools/wasnorm_wordpool_576.txt	LTP379	ltpFR2	15	14	SIBLING	1301	n/a	n/a	0	0	0
2665940	WORD	wordpools/wasnorm_wordpool_576.txt	LTP379	ltpFR2	15	14	OUTLAW	989	n/a	n/a	0	0	0
2668705	WORD	wordpools/wasnorm_wordpool_576.txt	LTP379	ltpFR2	15	14	CAFE	216	n/a	n/a	0	0	0
2671423	WORD	wordpools/wasnorm_wordpool_576.txt	LTP379	ltpFR2	15	14	MISTER	901	n/a	n/a	0	0	0
2674240	WORD	wordpools/wasnorm_wordpool_576.txt	LTP379	ltpFR2	15	14	NOMAD	955	n/a	n/a	0	0	0
2677056	WORD	wordpools/wasnorm_wordpool_576.txt	LTP379	ltpFR2	15	14	TREAT	1501	n/a	n/a	0	0	0
2679822	WORD	wordpools/wasnorm_wordpool_576.txt	LTP379	ltpFR2	15	14	ONION	977	n/a	n/a	0	0	0
2682389	WORD	wordpools/wasnorm_wordpool_576.txt	LTP379	ltpFR2	15	14	SPHINX	1349	n/a	n/a	0	0	0
2685173	WORD	wordpools/wasnorm_wordpool_576.txt	LTP379	ltpFR2	15	14	LACE	792	n/a	n/a	0	0	0
2687838	WORD	wordpools/wasnorm_wordpool_576.txt	LTP379	ltpFR2	15	14	BANQUET	86	n/a	n/a	0	0	0
2690406	WORD	wordpools/wasnorm_wordpool_576.txt	LTP379	ltpFR2	15	14	SHERIFF	1284	n/a	n/a	0	0	0
2692939	WORD	wordpools/wasnorm_wordpool_576.txt	LTP379	ltpFR2	15	14	SKIRT	1319	n/a	n/a	0	0	0
2695471	WORD	wordpools/wasnorm_wordpool_576.txt	LTP379	ltpFR2	15	14	BANJO	82	n/a	n/a	0	0	0
2698073	WORD	wordpools/wasnorm_wordpool_576.txt	LTP379	ltpFR2	15	14	CONCERT	360	n/a	n/a	0	0	0
2700838	WORD	wordpools/wasnorm_wordpool_576.txt	LTP379	ltpFR2	15	14	CAPTIVE	240	n/a	n/a	0	0	0
2703571	WORD	wordpools/wasnorm_wordpool_576.txt	LTP379	ltpFR2	15	14	RUG	1215	n/a	n/a	0	0	0
2706006	WORD	wordpools/wasnorm_wordpool_576.txt	LTP379	ltpFR2	15	14	CLOCK	325	n/a	n/a	0	0	0
2708655	WORD	wordpools/wasnorm_wordpool_576.txt	LTP379	ltpFR2	15	14	FOOTBALL	591	n/a	n/a	0	0	0
2711122	WORD	wordpools/wasnorm_wordpool_576.txt	LTP379	ltpFR2	15	14	RACKET	1155	n/a	n/a	0	0	0
2713638	WORD	wordpools/wasnorm_wordpool_576.txt	LTP379	ltpFR2	15	14	CHAMPAGNE	278	n/a	n/a	0	0	0
2715256	START	n/a	LTP379	ltpFR2	15	n/a	n/a	n/a	19	n/a	n/a	n/a	n/a
2716187	DISTRACTOR	n/a	LTP379	ltpFR2	15	14	n/a	n/a	n/a	n/a	0	0	0
2716189	PROB	n/a	LTP379	ltpFR2	15	n/a	n/a	n/a	19	16	7	5	4
2718272	PROB	n/a	LTP379	ltpFR2	15	n/a	n/a	n/a	19	16	5	2	9
2720688	PROB	n/a	LTP379	ltpFR2	15	n/a	n/a	n/a	19	17	1	8	8
2722189	PROB	n/a	LTP379	ltpFR2	15	n/a	n/a	n/a	19	18	9	8	1
2723704	PROB	n/a	LTP379	ltpFR2	15	n/a	n/a	n/a	19	22	5	8	9
2725771	PROB	n/a	LTP379	ltpFR2	15	n/a	n/a	n/a	19	12	5	1	6
2727239	PROB	n/a	LTP379	ltpFR2	15	n/a	n/a	n/a	19	12	6	2	4
2728939	PROB	n/a	LTP379	ltpFR2	15	n/a	n/a	n/a	19	18	2	9	7
2730355	PROB	n/a	LTP379	ltpFR2	15	n/a	n/a	n/a	19	25	8	8	9
2731905	PROB	n/a	LTP379	ltpFR2	15	n/a	n/a	n/a	19	17	5	9	3
2733871	PROB	n/a	LTP379	ltpFR2	15	n/a	n/a	n/a	19	13	2	2	9
2735939	PROB	n/a	LTP379	ltpFR2	15	n/a	n/a	n/a	19	14	9	4	1
2737911	STOP	n/a	LTP379	ltpFR2	15	n/a	n/a	n/a	19	n/a	n/a	n/a	n/a
2741072	REC_START	n/a	LTP379	ltpFR2	15	14	n/a	n/a	n/a	n/a	0	0	0
2744227	REC_WORD	wordpools/wasnorm_wordpool_576.txt	LTP379	ltpFR2	15	14	VELVET	1555	n/a	n/a	0	0	0
2745165	REC_WORD	wordpools/wasnorm_wordpool_576.txt	LTP379	ltpFR2	15	14	JUNGLE	764	n/a	n/a	0	0	0
2746305	REC_WORD	wordpools/wasnorm_wordpool_576.txt	LTP379	ltpFR2	15	14	SUNSET	1408	n/a	n/a	0	0	0
2750375	REC_WORD	wordpools/wasnorm_wordpool_576.txt	LTP379	ltpFR2	15	14	PENGUIN	1044	n/a	n/a	0	0	0
2751576	REC_WORD	wordpools/wasnorm_wordpool_576.txt	LTP379	ltpFR2	15	14	SIBLING	1301	n/a	n/a	0	0	0
2752717	REC_WORD	wordpools/wasnorm_wordpool_576.txt	LTP379	ltpFR2	15	14	OUTLAW	989	n/a	n/a	0	0	0
2753921	REC_WORD	wordpools/wasnorm_wordpool_576.txt	LTP379	ltpFR2	15	14	CAFE	216	n/a	n/a	0	0	0
2759311	REC_WORD	wordpools/wasnorm_wordpool_576.txt	LTP379	ltpFR2	15	14	MISTER	901	n/a	n/a	0	0	0
2760418	REC_WORD	wordpools/wasnorm_wordpool_576.txt	LTP379	ltpFR2	15	14	NOMAD	955	n/a	n/a	0	0	0
2761593	REC_WORD	wordpools/wasnorm_wordpool_576.txt	LTP379	ltpFR2	15	14	TREAT	1501	n/a	n/a	0	0	0
2762918	REC_WORD	wordpools/wasnorm_wordpool_576.txt	LTP379	ltpFR2	15	14	ONION	977	n/a	n/a	0	0	0
2764243	REC_WORD	wordpools/wasnorm_wordpool_576.txt	LTP379	ltpFR2	15	14	SPHINX	1349	n/a	n/a	0	0	0
2766237	REC_WORD	wordpools/wasnorm_wordpool_576.txt	LTP379	ltpFR2	15	14	LACE	792	n/a	n/a	0	0	0
2767368	REC_WORD	wordpools/wasnorm_wordpool_576.txt	LTP379	ltpFR2	15	14	BANQUET	86	n/a	n/a	0	0	0
2768608	REC_WORD	wordpools/wasnorm_wordpool_576.txt	LTP379	ltpFR2	15	14	SHERIFF	1284	n/a	n/a	0	0	0
2770042	REC_WORD	wordpools/wasnorm_wordpool_576.txt	LTP379	ltpFR2	15	14	SKIRT	1319	n/a	n/a	0	0	0
2771794	REC_WORD	wordpools/wasnorm_wordpool_576.txt	LTP379	ltpFR2	15	14	BANJO	82	n/a	n/a	0	0	0
2773306	REC_WORD	wordpools/wasnorm_wordpool_576.txt	LTP379	ltpFR2	15	14	CONCERT	360	n/a	n/a	0	0	0
2775168	REC_WORD	wordpools/wasnorm_wordpool_576.txt	LTP379	ltpFR2	15	14	CAPTIVE	240	n/a	n/a	0	0	0
2776453	REC_WORD	wordpools/wasnorm_wordpool_576.txt	LTP379	ltpFR2	15	14	RUG	1215	n/a	n/a	0	0	0
2777786	REC_WORD	wordpools/wasnorm_wordpool_576.txt	LTP379	ltpFR2	15	14	CLOCK	325	n/a	n/a	0	0	0
2779491	REC_WORD	wordpools/wasnorm_wordpool_576.txt	LTP379	ltpFR2	15	14	RACKET	1155	n/a	n/a	0	0	0
2780923	REC_WORD	wordpools/wasnorm_wordpool_576.txt	LTP379	ltpFR2	15	14	FOOTBALL	591	n/a	n/a	0	0	0
2782568	REC_WORD	wordpools/wasnorm_wordpool_576.txt	LTP379	ltpFR2	15	14	CHAMPAGNE	278	n/a	n/a	0	0	0
2831536	WORD	wordpools/wasnorm_wordpool_576.txt	LTP379	ltpFR2	15	15	WAGON	1578	n/a	n/a	0	0	0
2834137	WORD	wordpools/wasnorm_wordpool_576.txt	LTP379	ltpFR2	15	15	GLASS	639	n/a	n/a	0	0	0
2836853	WORD	wordpools/wasnorm_wordpool_576.txt	LTP379	ltpFR2	15	15	BLOUSE	139	n/a	n/a	0	0	0
2839452	WORD	wordpools/wasnorm_wordpool_576.txt	LTP379	ltpFR2	15	15	DRESS	495	n/a	n/a	0	0	0
2842153	WORD	wordpools/wasnorm_wordpool_576.txt	LTP379	ltpFR2	15	15	BOARD	143	n/a	n/a	0	0	0
2844937	WORD	wordpools/wasnorm_wordpool_576.txt	LTP379	ltpFR2	15	15	MUFFIN	929	n/a	n/a	0	0	0
2847486	WORD	wordpools/wasnorm_wordpool_576.txt	LTP379	ltpFR2	15	15	GOBLIN	645	n/a	n/a	0	0	0
2850003	WORD	wordpools/wasnorm_wordpool_576.txt	LTP379	ltpFR2	15	15	KITCHEN	778	n/a	n/a	0	0	0
2852752	WORD	wordpools/wasnorm_wordpool_576.txt	LTP379	ltpFR2	15	15	APRON	35	n/a	n/a	0	0	0
2855486	WORD	wordpools/wasnorm_wordpool_576.txt	LTP379	ltpFR2	15	15	VIRUS	1572	n/a	n/a	0	0	0
2858287	WORD	wordpools/wasnorm_wordpool_576.txt	LTP379	ltpFR2	15	15	TYPIST	1532	n/a	n/a	0	0	0
2861053	WORD	wordpools/wasnorm_wordpool_576.txt	LTP379	ltpFR2	15	15	ZEBRA	1635	n/a	n/a	0	0	0
2863835	WORD	wordpools/wasnorm_wordpool_576.txt	LTP379	ltpFR2	15	15	CASKET	255	n/a	n/a	0	0	0
2866635	WORD	wordpools/wasnorm_wordpool_576.txt	LTP379	ltpFR2	15	15	PATIENT	1024	n/a	n/a	0	0	0
2869403	WORD	wordpools/wasnorm_wordpool_576.txt	LTP379	ltpFR2	15	15	CHEMIST	292	n/a	n/a	0	0	0
2872153	WORD	wordpools/wasnorm_wordpool_576.txt	LTP379	ltpFR2	15	15	FOREST	593	n/a	n/a	0	0	0
2874619	WORD	wordpools/wasnorm_wordpool_576.txt	LTP379	ltpFR2	15	15	TART	1436	n/a	n/a	0	0	0
2877236	WORD	wordpools/wasnorm_wordpool_576.txt	LTP379	ltpFR2	15	15	BLACKBOARD	133	n/a	n/a	0	0	0
2879818	WORD	wordpools/wasnorm_wordpool_576.txt	LTP379	ltpFR2	15	15	DRUG	501	n/a	n/a	0	0	0
2882568	WORD	wordpools/wasnorm_wordpool_576.txt	LTP379	ltpFR2	15	15	BISON	131	n/a	n/a	0	0	0
2885053	WORD	wordpools/wasnorm_wordpool_576.txt	LTP379	ltpFR2	15	15	FOOT	590	n/a	n/a	0	0	0
2887618	WORD	wordpools/wasnorm_wordpool_576.txt	LTP379	ltpFR2	15	15	COWBOY	395	n/a	n/a	0	0	0
2890186	WORD	wordpools/wasnorm_wordpool_576.txt	LTP379	ltpFR2	15	15	ROBOT	1200	n/a	n/a	0	0	0
2892702	WORD	wordpools/wasnorm_wordpool_576.txt	LTP379	ltpFR2	15	15	UNCLE	1536	n/a	n/a	0	0	0
2894319	START	n/a	LTP379	ltpFR2	15	n/a	n/a	n/a	20	n/a	n/a	n/a	n/a
2895339	DISTRACTOR	n/a	LTP379	ltpFR2	15	15	n/a	n/a	n/a	n/a	0	0	0
2895353	PROB	n/a	LTP379	ltpFR2	15	n/a	n/a	n/a	20	12	2	1	9
2898152	PROB	n/a	LTP379	ltpFR2	15	n/a	n/a	n/a	20	15	6	5	4
2900202	PROB	n/a	LTP379	ltpFR2	15	n/a	n/a	n/a	20	16	5	3	8
2901701	PROB	n/a	LTP379	ltpFR2	15	n/a	n/a	n/a	20	24	9	9	6
2903369	PROB	n/a	LTP379	ltpFR2	15	n/a	n/a	n/a	20	20	9	5	6
2904969	PROB	n/a	LTP379	ltpFR2	15	n/a	n/a	n/a	20	12	3	4	5
2906768	PROB	n/a	LTP379	ltpFR2	15	n/a	n/a	n/a	20	12	4	5	3
2908252	PROB	n/a	LTP379	ltpFR2	15	n/a	n/a	n/a	20	16	8	7	1
2909601	PROB	n/a	LTP379	ltpFR2	15	n/a	n/a	n/a	20	21	5	9	7
2912002	PROB	n/a	LTP379	ltpFR2	15	n/a	n/a	n/a	20	16	7	6	3
2914336	PROB	n/a	LTP379	ltpFR2	15	n/a	n/a	n/a	20	23	9	7	7
2918319	STOP	n/a	LTP379	ltpFR2	15	n/a	n/a	n/a	20	n/a	n/a	n/a	n/a
2920219	REC_START	n/a	LTP379	ltpFR2	15	15	n/a	n/a	n/a	n/a	0	0	0
2924719	REC_WORD	wordpools/wasnorm_wordpool_576.txt	LTP379	ltpFR2	15	15	WAGON	1578	n/a	n/a	0	0	0
2926126	REC_WORD	wordpools/wasnorm_wordpool_576.txt	LTP379	ltpFR2	15	15	GLASS	639	n/a	n/a	0	0	0
2927554	REC_WORD	wordpools/wasnorm_wordpool_576.txt	LTP379	ltpFR2	15	15	BLOUSE	139	n/a	n/a	0	0	0
2928998	REC_WORD	wordpools/wasnorm_wordpool_576.txt	LTP379	ltpFR2	15	15	DRESS	495	n/a	n/a	0	0	0
2931685	REC_WORD	wordpools/wasnorm_wordpool_576.txt	LTP379	ltpFR2	15	15	BOARD	143	n/a	n/a	0	0	0
2932934	REC_WORD	wordpools/wasnorm_wordpool_576.txt	LTP379	ltpFR2	15	15	MUFFIN	929	n/a	n/a	0	0	0
2934689	REC_WORD	wordpools/wasnorm_wordpool_576.txt	LTP379	ltpFR2	15	15	GUM	672	n/a	n/a	0	0	0
2935985	REC_WORD	wordpools/wasnorm_wordpool_576.txt	LTP379	ltpFR2	15	15	APRON	35	n/a	n/a	0	0	0
2937317	REC_WORD	wordpools/wasnorm_wordpool_576.txt	LTP379	ltpFR2	15	15	KITCHEN	778	n/a	n/a	0	0	0
2939013	REC_WORD	wordpools/wasnorm_wordpool_576.txt	LTP379	ltpFR2	15	15	VIRUS	1572	n/a	n/a	0	0	0
2940504	REC_WORD	wordpools/wasnorm_wordpool_576.txt	LTP379	ltpFR2	15	15	TYPIST	1532	n/a	n/a	0	0	0
2942154	REC_WORD	wordpools/wasnorm_wordpool_576.txt	LTP379	ltpFR2	15	15	ZEBRA	1635	n/a	n/a	0	0	0
2943931	REC_WORD	wordpools/wasnorm_wordpool_576.txt	LTP379	ltpFR2	15	15	CASKET	255	n/a	n/a	0	0	0
2948613	REC_WORD	wordpools/wasnorm_wordpool_576.txt	LTP379	ltpFR2	15	15	PATIENT	1024	n/a	n/a	0	0	0
2950216	REC_WORD	wordpools/wasnorm_wordpool_576.txt	LTP379	ltpFR2	15	15	CHEMIST	292	n/a	n/a	0	0	0
2951647	REC_WORD	wordpools/wasnorm_wordpool_576.txt	LTP379	ltpFR2	15	15	FOREST	593	n/a	n/a	0	0	0
2953491	REC_WORD	wordpools/wasnorm_wordpool_576.txt	LTP379	ltpFR2	15	15	TART	1436	n/a	n/a	0	0	0
2954952	REC_WORD	wordpools/wasnorm_wordpool_576.txt	LTP379	ltpFR2	15	15	BLACKBOARD	133	n/a	n/a	0	0	0
2957926	REC_WORD	wordpools/wasnorm_wordpool_576.txt	LTP379	ltpFR2	15	15	DRUG	501	n/a	n/a	0	0	0
2961741	REC_WORD	wordpools/wasnorm_wordpool_576.txt	LTP379	ltpFR2	15	15	BISON	131	n/a	n/a	0	0	0
2963146	REC_WORD	wordpools/wasnorm_wordpool_576.txt	LTP379	ltpFR2	15	15	FOOT	590	n/a	n/a	0	0	0
2968667	REC_WORD	wordpools/wasnorm_wordpool_576.txt	LTP379	ltpFR2	15	15	COWBOY	395	n/a	n/a	0	0	0
2970279	REC_WORD	wordpools/wasnorm_wordpool_576.txt	LTP379	ltpFR2	15	15	ROBOT	1200	n/a	n/a	0	0	0
2971813	REC_WORD	wordpools/wasnorm_wordpool_576.txt	LTP379	ltpFR2	15	15	UNCLE	1536	n/a	n/a	0	0	0
3010683	DISTRACTOR	n/a	LTP379	ltpFR2	15	16	n/a	n/a	n/a	n/a	0	0	0
3010683	START	n/a	LTP379	ltpFR2	15	n/a	n/a	n/a	21	n/a	n/a	n/a	n/a
3010700	PROB	n/a	LTP379	ltpFR2	15	n/a	n/a	n/a	21	16	6	6	4
3012466	PROB	n/a	LTP379	ltpFR2	15	n/a	n/a	n/a	21	14	7	4	3
3014034	PROB	n/a	LTP379	ltpFR2	15	n/a	n/a	n/a	21	20	8	4	8
3015500	PROB	n/a	LTP379	ltpFR2	15	n/a	n/a	n/a	21	16	7	3	6
3016766	PROB	n/a	LTP379	ltpFR2	15	n/a	n/a	n/a	21	11	7	1	3
3018184	PROB	n/a	LTP379	ltpFR2	15	n/a	n/a	n/a	21	12	1	7	4
3019800	PROB	n/a	LTP379	ltpFR2	15	n/a	n/a	n/a	21	22	5	8	9
3021866	PROB	n/a	LTP379	ltpFR2	15	n/a	n/a	n/a	21	9	3	4	2
3023766	PROB	n/a	LTP379	ltpFR2	15	n/a	n/a	n/a	21	23	9	8	6
3026683	PROB	n/a	LTP379	ltpFR2	15	n/a	n/a	n/a	21	9	1	6	2
3028367	PROB	n/a	LTP379	ltpFR2	15	n/a	n/a	n/a	21	13	5	4	4
3029799	PROB	n/a	LTP379	ltpFR2	15	n/a	n/a	n/a	21	18	7	8	3
3031466	PROB	n/a	LTP379	ltpFR2	15	n/a	n/a	n/a	21	16	5	4	7
3034683	STOP	n/a	LTP379	ltpFR2	15	n/a	n/a	n/a	21	n/a	n/a	n/a	n/a
3035900	WORD	wordpools/wasnorm_wordpool_576.txt	LTP379	ltpFR2	15	16	MONEY	908	n/a	n/a	0	0	0
3038633	WORD	wordpools/wasnorm_wordpool_576.txt	LTP379	ltpFR2	15	16	BRANCH	168	n/a	n/a	0	0	0
3041267	WORD	wordpools/wasnorm_wordpool_576.txt	LTP379	ltpFR2	15	16	CABIN	211	n/a	n/a	0	0	0
3044000	WORD	wordpools/wasnorm_wordpool_576.txt	LTP379	ltpFR2	15	16	SHRUB	1299	n/a	n/a	0	0	0
3046582	WORD	wordpools/wasnorm_wordpool_576.txt	LTP379	ltpFR2	15	16	BANK	83	n/a	n/a	0	0	0
3049150	WORD	wordpools/wasnorm_wordpool_576.txt	LTP379	ltpFR2	15	16	NAPKIN	937	n/a	n/a	0	0	0
3051883	WORD	wordpools/wasnorm_wordpool_576.txt	LTP379	ltpFR2	15	16	COD	340	n/a	n/a	0	0	0
3054666	WORD	wordpools/wasnorm_wordpool_576.txt	LTP379	ltpFR2	15	16	SCALLOP	1242	n/a	n/a	0	0	0
3057300	WORD	wordpools/wasnorm_wordpool_576.txt	LTP379	ltpFR2	15	16	TORTOISE	1486	n/a	n/a	0	0	0
3059983	WORD	wordpools/wasnorm_wordpool_576.txt	LTP379	ltpFR2	15	16	GUARD	667	n/a	n/a	0	0	0
3062432	WORD	wordpools/wasnorm_wordpool_576.txt	LTP379	ltpFR2	15	16	PIMPLE	1071	n/a	n/a	0	0	0
3065100	WORD	wordpools/wasnorm_wordpool_576.txt	LTP379	ltpFR2	15	16	INMATE	738	n/a	n/a	0	0	0
3067832	WORD	wordpools/wasnorm_wordpool_576.txt	LTP379	ltpFR2	15	16	DIME	466	n/a	n/a	0	0	0
3070465	WORD	wordpools/wasnorm_wordpool_576.txt	LTP379	ltpFR2	15	16	BOX	159	n/a	n/a	0	0	0
3073216	WORD	wordpools/wasnorm_wordpool_576.txt	LTP379	ltpFR2	15	16	LIGHTNING	820	n/a	n/a	0	0	0
3075732	WORD	wordpools/wasnorm_wordpool_576.txt	LTP379	ltpFR2	15	16	SAUSAGE	1238	n/a	n/a	0	0	0
3078233	WORD	wordpools/wasnorm_wordpool_576.txt	LTP379	ltpFR2	15	16	NIGHTGOWN	953	n/a	n/a	0	0	0
3080950	WORD	wordpools/wasnorm_wordpool_576.txt	LTP379	ltpFR2	15	16	BREAST	171	n/a	n/a	0	0	0
3083599	WORD	wordpools/wasnorm_wordpool_576.txt	LTP379	ltpFR2	15	16	ROOSTER	1209	n/a	n/a	0	0	0
3086066	WORD	wordpools/wasnorm_wordpool_576.txt	LTP379	ltpFR2	15	16	PLAID	1080	n/a	n/a	0	0	0
3088599	WORD	wordpools/wasnorm_wordpool_576.txt	LTP379	ltpFR2	15	16	PERMIT	1051	n/a	n/a	0	0	0
3091233	WORD	wordpools/wasnorm_wordpool_576.txt	LTP379	ltpFR2	15	16	MARROW	872	n/a	n/a	0	0	0
3093899	WORD	wordpools/wasnorm_wordpool_576.txt	LTP379	ltpFR2	15	16	BUNNY	198	n/a	n/a	0	0	0
3096498	WORD	wordpools/wasnorm_wordpool_576.txt	LTP379	ltpFR2	15	16	ACTOR	5	n/a	n/a	0	0	0
3098100	START	n/a	LTP379	ltpFR2	15	n/a	n/a	n/a	22	n/a	n/a	n/a	n/a
3099001	DISTRACTOR	n/a	LTP379	ltpFR2	15	16	n/a	n/a	n/a	n/a	0	0	0
3099016	PROB	n/a	LTP379	ltpFR2	15	n/a	n/a	n/a	22	12	4	5	3
3101798	PROB	n/a	LTP379	ltpFR2	15	n/a	n/a	n/a	22	22	8	9	5
3104199	PROB	n/a	LTP379	ltpFR2	15	n/a	n/a	n/a	22	16	2	5	9
3105732	PROB	n/a	LTP379	ltpFR2	15	n/a	n/a	n/a	22	17	5	6	6
3107465	PROB	n/a	LTP379	ltpFR2	15	n/a	n/a	n/a	22	14	2	5	7
3108781	PROB	n/a	LTP379	ltpFR2	15	n/a	n/a	n/a	22	11	9	1	1
3110266	PROB	n/a	LTP379	ltpFR2	15	n/a	n/a	n/a	22	12	2	8	2
3111431	PROB	n/a	LTP379	ltpFR2	15	n/a	n/a	n/a	22	16	1	9	6
3112615	PROB	n/a	LTP379	ltpFR2	15	n/a	n/a	n/a	22	16	9	3	4
3114132	PROB	n/a	LTP379	ltpFR2	15	n/a	n/a	n/a	22	12	4	6	2
3115266	PROB	n/a	LTP379	ltpFR2	15	n/a	n/a	n/a	22	15	7	1	7
3116631	PROB	n/a	LTP379	ltpFR2	15	n/a	n/a	n/a	22	4	2	1	1
3117648	PROB	n/a	LTP379	ltpFR2	15	n/a	n/a	n/a	22	10	6	3	1
3120299	PROB	n/a	LTP379	ltpFR2	15	n/a	n/a	n/a	22	16	8	4	4
3121657	STOP	n/a	LTP379	ltpFR2	15	n/a	n/a	n/a	22	n/a	n/a	n/a	n/a
3123865	REC_START	n/a	LTP379	ltpFR2	15	16	n/a	n/a	n/a	n/a	0	0	0
3136628	REC_WORD	wordpools/wasnorm_wordpool_576.txt	LTP379	ltpFR2	15	16	MONEY	908	n/a	n/a	0	0	0
3137939	REC_WORD	wordpools/wasnorm_wordpool_576.txt	LTP379	ltpFR2	15	16	BRANCH	168	n/a	n/a	0	0	0
3138960	REC_WORD	wordpools/wasnorm_wordpool_576.txt	LTP379	ltpFR2	15	16	CABIN	211	n/a	n/a	0	0	0
3140159	REC_WORD	wordpools/wasnorm_wordpool_576.txt	LTP379	ltpFR2	15	16	SHRUB	1299	n/a	n/a	0	0	0
3141675	REC_WORD	wordpools/wasnorm_wordpool_576.txt	LTP379	ltpFR2	15	16	BANK	83	n/a	n/a	0	0	0
3142843	REC_WORD	wordpools/wasnorm_wordpool_576.txt	LTP379	ltpFR2	15	16	NAPKIN	937	n/a	n/a	0	0	0
3144301	REC_WORD	wordpools/wasnorm_wordpool_576.txt	LTP379	ltpFR2	15	16	COD	340	n/a	n/a	0	0	0
3147198	REC_WORD_VV	wordpools/wasnorm_wordpool_576.txt	LTP379	ltpFR2	15	16	<>	-1	n/a	n/a	0	0	0
3148288	REC_WORD	wordpools/wasnorm_wordpool_576.txt	LTP379	ltpFR2	15	16	GUARD	667	n/a	n/a	0	0	0
3149838	REC_WORD	wordpools/wasnorm_wordpool_576.txt	LTP379	ltpFR2	15	16	PIMPLE	1071	n/a	n/a	0	0	0
3151105	REC_WORD	wordpools/wasnorm_wordpool_576.txt	LTP379	ltpFR2	15	16	INMATE	738	n/a	n/a	0	0	0
3152383	REC_WORD	wordpools/wasnorm_wordpool_576.txt	LTP379	ltpFR2	15	16	DIME	466	n/a	n/a	0	0	0
3153745	REC_WORD	wordpools/wasnorm_wordpool_576.txt	LTP379	ltpFR2	15	16	BOX	159	n/a	n/a	0	0	0
3155087	REC_WORD	wordpools/wasnorm_wordpool_576.txt	LTP379	ltpFR2	15	16	LIGHTNING	820	n/a	n/a	0	0	0
3156422	REC_WORD	wordpools/wasnorm_wordpool_576.txt	LTP379	ltpFR2	15	16	SAUSAGE	1238	n/a	n/a	0	0	0
3158953	REC_WORD	wordpools/wasnorm_wordpool_576.txt	LTP379	ltpFR2	15	16	NIGHTGOWN	953	n/a	n/a	0	0	0
3161991	REC_WORD	wordpools/wasnorm_wordpool_576.txt	LTP379	ltpFR2	15	16	BREAST	171	n/a	n/a	0	0	0
3163969	REC_WORD	wordpools/wasnorm_wordpool_576.txt	LTP379	ltpFR2	15	16	ROOSTER	1209	n/a	n/a	0	0	0
3165909	REC_WORD	wordpools/wasnorm_wordpool_576.txt	LTP379	ltpFR2	15	16	PLAID	1080	n/a	n/a	0	0	0
3167714	REC_WORD	wordpools/wasnorm_wordpool_576.txt	LTP379	ltpFR2	15	16	TORTOISE	1486	n/a	n/a	0	0	0
3170804	REC_WORD	wordpools/wasnorm_wordpool_576.txt	LTP379	ltpFR2	15	16	MARROW	872	n/a	n/a	0	0	0
3177380	REC_WORD	wordpools/wasnorm_wordpool_576.txt	LTP379	ltpFR2	15	16	ACTOR	5	n/a	n/a	0	0	0
3178952	REC_WORD	wordpools/wasnorm_wordpool_576.txt	LTP379	ltpFR2	15	16	BUNNY	198	n/a	n/a	0	0	0
3200414	REST_REWET	n/a	LTP379	ltpFR2	15	16	n/a	n/a	n/a	n/a	0	0	0
3330745	WORD	wordpools/wasnorm_wordpool_576.txt	LTP379	ltpFR2	15	17	WAITRESS	1581	n/a	n/a	0	0	0
3333245	WORD	wordpools/wasnorm_wordpool_576.txt	LTP379	ltpFR2	15	17	DONOR	485	n/a	n/a	0	0	0
3336062	WORD	wordpools/wasnorm_wordpool_576.txt	LTP379	ltpFR2	15	17	HATCHET	691	n/a	n/a	0	0	0
3338794	WORD	wordpools/wasnorm_wordpool_576.txt	LTP379	ltpFR2	15	17	PORTRAIT	1111	n/a	n/a	0	0	0
3341245	WORD	wordpools/wasnorm_wordpool_576.txt	LTP379	ltpFR2	15	17	HUSBAND	728	n/a	n/a	0	0	0
3343962	WORD	wordpools/wasnorm_wordpool_576.txt	LTP379	ltpFR2	15	17	AGENT	10	n/a	n/a	0	0	0
3346761	WORD	wordpools/wasnorm_wordpool_576.txt	LTP379	ltpFR2	15	17	PEACH	1031	n/a	n/a	0	0	0
3349494	WORD	wordpools/wasnorm_wordpool_576.txt	LTP379	ltpFR2	15	17	CUPBOARD	425	n/a	n/a	0	0	0
3351945	WORD	wordpools/wasnorm_wordpool_576.txt	LTP379	ltpFR2	15	17	SHOVEL	1295	n/a	n/a	0	0	0
3354461	WORD	wordpools/wasnorm_wordpool_576.txt	LTP379	ltpFR2	15	17	ARM	38	n/a	n/a	0	0	0
3357228	WORD	wordpools/wasnorm_wordpool_576.txt	LTP379	ltpFR2	15	17	CHURCH	307	n/a	n/a	0	0	0
3359811	WORD	wordpools/wasnorm_wordpool_576.txt	LTP379	ltpFR2	15	17	JELLY	755	n/a	n/a	0	0	0
3362295	WORD	wordpools/wasnorm_wordpool_576.txt	LTP379	ltpFR2	15	17	AUTHOR	61	n/a	n/a	0	0	0
3364844	WORD	wordpools/wasnorm_wordpool_576.txt	LTP379	ltpFR2	15	17	PASSAGE	1019	n/a	n/a	0	0	0
3367378	WORD	wordpools/wasnorm_wordpool_576.txt	LTP379	ltpFR2	15	17	CYCLONE	431	n/a	n/a	0	0	0
3369912	WORD	wordpools/wasnorm_wordpool_576.txt	LTP379	ltpFR2	15	17	BRANDY	169	n/a	n/a	0	0	0
3372494	WORD	wordpools/wasnorm_wordpool_576.txt	LTP379	ltpFR2	15	17	COCKTAIL	338	n/a	n/a	0	0	0
3374928	WORD	wordpools/wasnorm_wordpool_576.txt	LTP379	ltpFR2	15	17	TOURIST	1488	n/a	n/a	0	0	0
3377577	WORD	wordpools/wasnorm_wordpool_576.txt	LTP379	ltpFR2	15	17	PATROL	1027	n/a	n/a	0	0	0
3380011	WORD	wordpools/wasnorm_wordpool_576.txt	LTP379	ltpFR2	15	17	GALLON	618	n/a	n/a	0	0	0
3382610	WORD	wordpools/wasnorm_wordpool_576.txt	LTP379	ltpFR2	15	17	MUMMY	932	n/a	n/a	0	0	0
3385095	WORD	wordpools/wasnorm_wordpool_576.txt	LTP379	ltpFR2	15	17	VIKING	1565	n/a	n/a	0	0	0
3387844	WORD	wordpools/wasnorm_wordpool_576.txt	LTP379	ltpFR2	15	17	ICING	732	n/a	n/a	0	0	0
3390311	WORD	wordpools/wasnorm_wordpool_576.txt	LTP379	ltpFR2	15	17	PREACHER	1119	n/a	n/a	0	0	0
3391928	START	n/a	LTP379	ltpFR2	15	n/a	n/a	n/a	23	n/a	n/a	n/a	n/a
3392767	DISTRACTOR	n/a	LTP379	ltpFR2	15	17	n/a	n/a	n/a	n/a	0	0	0
3392777	PROB	n/a	LTP379	ltpFR2	15	n/a	n/a	n/a	23	11	1	1	9
3395294	PROB	n/a	LTP379	ltpFR2	15	n/a	n/a	n/a	23	12	1	3	8
3397211	PROB	n/a	LTP379	ltpFR2	15	n/a	n/a	n/a	23	13	1	6	6
3398443	PROB	n/a	LTP379	ltpFR2	15	n/a	n/a	n/a	23	15	5	6	4
3399961	PROB	n/a	LTP379	ltpFR2	15	n/a	n/a	n/a	23	13	1	4	8
3401178	PROB	n/a	LTP379	ltpFR2	15	n/a	n/a	n/a	23	14	5	3	6
3402743	PROB	n/a	LTP379	ltpFR2	15	n/a	n/a	n/a	23	9	1	4	4
3403810	PROB	n/a	LTP379	ltpFR2	15	n/a	n/a	n/a	23	14	1	9	4
3405011	PROB	n/a	LTP379	ltpFR2	15	n/a	n/a	n/a	23	23	8	8	7
3408077	PROB	n/a	LTP379	ltpFR2	15	n/a	n/a	n/a	23	20	7	6	7
3409443	PROB	n/a	LTP379	ltpFR2	15	n/a	n/a	n/a	23	12	3	2	7
3410911	PROB	n/a	LTP379	ltpFR2	15	n/a	n/a	n/a	23	19	8	5	6
3412610	PROB	n/a	LTP379	ltpFR2	15	n/a	n/a	n/a	23	12	7	1	4
3413760	PROB	n/a	LTP379	ltpFR2	15	n/a	n/a	n/a	23	14	5	2	7
3414939	STOP	n/a	LTP379	ltpFR2	15	n/a	n/a	n/a	23	n/a	n/a	n/a	n/a
3417743	REC_START	n/a	LTP379	ltpFR2	15	17	n/a	n/a	n/a	n/a	0	0	0
3420696	REC_WORD	wordpools/wasnorm_wordpool_576.txt	LTP379	ltpFR2	15	17	WAITRESS	1581	n/a	n/a	0	0	0
3422299	REC_WORD	wordpools/wasnorm_wordpool_576.txt	LTP379	ltpFR2	15	17	DONOR	485	n/a	n/a	0	0	0
3423462	REC_WORD	wordpools/wasnorm_wordpool_576.txt	LTP379	ltpFR2	15	17	HATCHET	691	n/a	n/a	0	0	0
3427770	REC_WORD	wordpools/wasnorm_wordpool_576.txt	LTP379	ltpFR2	15	17	PORTRAIT	1111	n/a	n/a	0	0	0
3428899	REC_WORD	wordpools/wasnorm_wordpool_576.txt	LTP379	ltpFR2	15	17	HUSBAND	728	n/a	n/a	0	0	0
3430102	REC_WORD	wordpools/wasnorm_wordpool_576.txt	LTP379	ltpFR2	15	17	AGENT	10	n/a	n/a	0	0	0
3431214	REC_WORD	wordpools/wasnorm_wordpool_576.txt	LTP379	ltpFR2	15	17	PEACH	1031	n/a	n/a	0	0	0
3432573	REC_WORD	wordpools/wasnorm_wordpool_576.txt	LTP379	ltpFR2	15	17	CUPBOARD	425	n/a	n/a	0	0	0
3433868	REC_WORD	wordpools/wasnorm_wordpool_576.txt	LTP379	ltpFR2	15	17	ARM	38	n/a	n/a	0	0	0
3434763	REC_WORD	wordpools/wasnorm_wordpool_576.txt	LTP379	ltpFR2	15	17	SHOVEL	1295	n/a	n/a	0	0	0
3436240	REC_WORD	wordpools/wasnorm_wordpool_576.txt	LTP379	ltpFR2	15	17	CHURCH	307	n/a	n/a	0	0	0
3437496	REC_WORD	wordpools/wasnorm_wordpool_576.txt	LTP379	ltpFR2	15	17	JELLY	755	n/a	n/a	0	0	0
3438820	REC_WORD	wordpools/wasnorm_wordpool_576.txt	LTP379	ltpFR2	15	17	AUTHOR	61	n/a	n/a	0	0	0
3440320	REC_WORD	wordpools/wasnorm_wordpool_576.txt	LTP379	ltpFR2	15	17	PASSAGE	1019	n/a	n/a	0	0	0
3444237	REC_WORD	wordpools/wasnorm_wordpool_576.txt	LTP379	ltpFR2	15	17	CYCLONE	431	n/a	n/a	0	0	0
3445546	REC_WORD	wordpools/wasnorm_wordpool_576.txt	LTP379	ltpFR2	15	17	BRANDY	169	n/a	n/a	0	0	0
3446669	REC_WORD	wordpools/wasnorm_wordpool_576.txt	LTP379	ltpFR2	15	17	COCKTAIL	338	n/a	n/a	0	0	0
