onset	duration	trial_type	sample	stim_file	subject	experiment	session	trial	task	item_name	item_num	recog_resp	recog_conf	resp	color_r	color_g	color_b	case	font
274.592	n/a	SESS_START	137296	n/a	LTP179	ltpFR	5	n/a	n/a	n/a	n/a	1	n/a	n/a	n/a	n/a	n/a	n/a	n/a
436.692	n/a	WORD	218346	wordpools/wasnorm_wordpool_less_exclusions.txt	LTP179	ltpFR	5	1	1	CARPENTER	246	n/a	n/a	1	0.57763671875	0.412841796875	1	upper	amplitud.ttf
440.658	n/a	WORD	220329	wordpools/wasnorm_wordpool_less_exclusions.txt	LTP179	ltpFR	5	1	1	CHISEL	305	n/a	n/a	0	0.57763671875	0.412841796875	1	upper	amplitud.ttf
444.69	n/a	WORD	222345	wordpools/wasnorm_wordpool_less_exclusions.txt	LTP179	ltpFR	5	1	1	GLACIER	638	n/a	n/a	1	0.57763671875	0.412841796875	1	upper	amplitud.ttf
448.54	n/a	WORD	224270	wordpools/wasnorm_wordpool_less_exclusions.txt	LTP179	ltpFR	5	1	0	KLEENEX	782	n/a	n/a	0	0.422607421875	0.5869140625	0	lower	zerothre.ttf
452.42	n/a	WORD	226210	wordpools/wasnorm_wordpool_less_exclusions.txt	LTP179	ltpFR	5	1	0	DIGGER	464	n/a	n/a	1	0.422607421875	0.5869140625	0	lower	zerothre.ttf
456.452	n/a	WORD	228226	wordpools/wasnorm_wordpool_less_exclusions.txt	LTP179	ltpFR	5	1	0	CRATER	400	n/a	n/a	1	0.422607421875	0.5869140625	0	lower	zerothre.ttf
460.568	n/a	WORD	230284	wordpools/wasnorm_wordpool_less_exclusions.txt	LTP179	ltpFR	5	1	0	CAPITAL	238	n/a	n/a	1	0.422607421875	0.5869140625	0	lower	zerothre.ttf
464.582	n/a	WORD	232291	wordpools/wasnorm_wordpool_less_exclusions.txt	LTP179	ltpFR	5	1	1	COCOON	339	n/a	n/a	1	0.57763671875	0.412841796875	1	upper	amplitud.ttf
468.432	n/a	WORD	234216	wordpools/wasnorm_wordpool_less_exclusions.txt	LTP179	ltpFR	5	1	1	CHAUFFEUR	283	n/a	n/a	1	0.57763671875	0.412841796875	1	upper	amplitud.ttf
472.562	n/a	WORD	236281	wordpools/wasnorm_wordpool_less_exclusions.txt	LTP179	ltpFR	5	1	0	DAISY	435	n/a	n/a	0	0.422607421875	0.5869140625	0	lower	zerothre.ttf
476.444	n/a	WORD	238222	wordpools/wasnorm_wordpool_less_exclusions.txt	LTP179	ltpFR	5	1	0	HAWK	692	n/a	n/a	1	0.422607421875	0.5869140625	0	lower	zerothre.ttf
480.476	n/a	WORD	240238	wordpools/wasnorm_wordpool_less_exclusions.txt	LTP179	ltpFR	5	1	0	WHEEL	1603	n/a	n/a	1	0.422607421875	0.5869140625	0	lower	zerothre.ttf
484.392	n/a	WORD	242196	wordpools/wasnorm_wordpool_less_exclusions.txt	LTP179	ltpFR	5	1	0	PALM	1007	n/a	n/a	1	0.422607421875	0.5869140625	0	lower	zerothre.ttf
488.212	n/a	WORD	244106	wordpools/wasnorm_wordpool_less_exclusions.txt	LTP179	ltpFR	5	1	1	PLANT	1083	n/a	n/a	1	0.57763671875	0.412841796875	1	upper	amplitud.ttf
492.12	n/a	WORD	246060	wordpools/wasnorm_wordpool_less_exclusions.txt	LTP179	ltpFR	5	1	1	VIDEO	1564	n/a	n/a	0	0.57763671875	0.412841796875	1	upper	amplitud.ttf
496.068	n/a	WORD	248034	wordpools/wasnorm_wordpool_less_exclusions.txt	LTP179	ltpFR	5	1	1	MOTOR	922	n/a	n/a	0	0.57763671875	0.412841796875	1	upper	amplitud.ttf
501.994	n/a	REC_START	250997	n/a	LTP179	ltpFR	5	1	n/a	n/a	n/a	n/a	n/a	n/a	n/a	n/a	n/a	n/a	n/a
504.098	n/a	REC_WORD	252049	wordpools/wasnorm_wordpool_less_exclusions.txt	LTP179	ltpFR	5	1	1	MOTOR	922	n/a	n/a	0	n/a	n/a	n/a	n/a	n/a
506.738	n/a	REC_WORD	253369	wordpools/wasnorm_wordpool_less_exclusions.txt	LTP179	ltpFR	5	1	1	CHAUFFEUR	283	n/a	n/a	1	n/a	n/a	n/a	n/a	n/a
509.256	n/a	REC_WORD	254628	wordpools/wasnorm_wordpool_less_exclusions.txt	LTP179	ltpFR	5	1	1	GLACIER	638	n/a	n/a	1	n/a	n/a	n/a	n/a	n/a
513.492	n/a	REC_WORD	256746	wordpools/wasnorm_wordpool_less_exclusions.txt	LTP179	ltpFR	5	1	0	DAISY	435	n/a	n/a	0	n/a	n/a	n/a	n/a	n/a
516.3	n/a	REC_WORD	258150	wordpools/wasnorm_wordpool_less_exclusions.txt	LTP179	ltpFR	5	1	1	PLANT	1083	n/a	n/a	1	n/a	n/a	n/a	n/a	n/a
519.054	n/a	REC_WORD	259527	wordpools/wasnorm_wordpool_less_exclusions.txt	LTP179	ltpFR	5	1	0	CRATER	400	n/a	n/a	1	n/a	n/a	n/a	n/a	n/a
528.45	n/a	REC_WORD	264225	wordpools/wasnorm_wordpool_less_exclusions.txt	LTP179	ltpFR	5	1	1	COCOON	339	n/a	n/a	1	n/a	n/a	n/a	n/a	n/a
531.742	n/a	REC_WORD	265871	wordpools/wasnorm_wordpool_less_exclusions.txt	LTP179	ltpFR	5	1	0	HAWK	692	n/a	n/a	1	n/a	n/a	n/a	n/a	n/a
544.304	n/a	REC_WORD	272152	wordpools/wasnorm_wordpool_less_exclusions.txt	LTP179	ltpFR	5	1	1	MOTOR	922	n/a	n/a	0	n/a	n/a	n/a	n/a	n/a
593.808	n/a	WORD	296904	wordpools/wasnorm_wordpool_less_exclusions.txt	LTP179	ltpFR	5	2	0	ZOO	1637	n/a	n/a	2	0.422607421875	0.5869140625	0	lower	zerothre.ttf
595.566	n/a	KEY_MSG	297783	n/a	LTP179	ltpFR	5	2	n/a	n/a	n/a	n/a	n/a	n/a	n/a	n/a	n/a	n/a	n/a
598.176	n/a	WORD	299088	wordpools/wasnorm_wordpool_less_exclusions.txt	LTP179	ltpFR	5	2	0	CROCODILE	411	n/a	n/a	1	0.422607421875	0.5869140625	0	lower	zerothre.ttf
602.142	n/a	WORD	301071	wordpools/wasnorm_wordpool_less_exclusions.txt	LTP179	ltpFR	5	2	0	EWE	542	n/a	n/a	1	0.422607421875	0.5869140625	0	lower	zerothre.ttf
606.14	n/a	WORD	303070	wordpools/wasnorm_wordpool_less_exclusions.txt	LTP179	ltpFR	5	2	0	SALMON	1227	n/a	n/a	1	0.422607421875	0.5869140625	0	lower	zerothre.ttf
610.322	n/a	WORD	305161	wordpools/wasnorm_wordpool_less_exclusions.txt	LTP179	ltpFR	5	2	0	DRINK	498	n/a	n/a	0	0.422607421875	0.5869140625	0	lower	zerothre.ttf
614.322	n/a	WORD	307161	wordpools/wasnorm_wordpool_less_exclusions.txt	LTP179	ltpFR	5	2	0	STRANGER	1389	n/a	n/a	1	0.422607421875	0.5869140625	0	lower	zerothre.ttf
618.488	n/a	WORD	309244	wordpools/wasnorm_wordpool_less_exclusions.txt	LTP179	ltpFR	5	2	1	BOYFRIEND	162	n/a	n/a	1	0.57763671875	0.412841796875	1	upper	amplitud.ttf
622.436	n/a	WORD	311218	wordpools/wasnorm_wordpool_less_exclusions.txt	LTP179	ltpFR	5	2	1	CONDUCTOR	362	n/a	n/a	1	0.57763671875	0.412841796875	1	upper	amplitud.ttf
626.618	n/a	WORD	313309	wordpools/wasnorm_wordpool_less_exclusions.txt	LTP179	ltpFR	5	2	1	PADDLE	1000	n/a	n/a	0	0.57763671875	0.412841796875	1	upper	amplitud.ttf
630.616	n/a	WORD	315308	wordpools/wasnorm_wordpool_less_exclusions.txt	LTP179	ltpFR	5	2	0	FIST	572	n/a	n/a	0	0.422607421875	0.5869140625	0	lower	zerothre.ttf
634.65	n/a	WORD	317325	wordpools/wasnorm_wordpool_less_exclusions.txt	LTP179	ltpFR	5	2	0	DAM	436	n/a	n/a	1	0.422607421875	0.5869140625	0	lower	zerothre.ttf
638.764	n/a	WORD	319382	wordpools/wasnorm_wordpool_less_exclusions.txt	LTP179	ltpFR	5	2	1	LOUNGE	845	n/a	n/a	0	0.57763671875	0.412841796875	1	upper	amplitud.ttf
642.764	n/a	WORD	321382	wordpools/wasnorm_wordpool_less_exclusions.txt	LTP179	ltpFR	5	2	1	CLAY	320	n/a	n/a	1	0.57763671875	0.412841796875	1	upper	amplitud.ttf
646.896	n/a	WORD	323448	wordpools/wasnorm_wordpool_less_exclusions.txt	LTP179	ltpFR	5	2	1	POTTERY	1116	n/a	n/a	0	0.57763671875	0.412841796875	1	upper	amplitud.ttf
651.046	n/a	WORD	325523	wordpools/wasnorm_wordpool_less_exclusions.txt	LTP179	ltpFR	5	2	1	TAG	1429	n/a	n/a	0	0.57763671875	0.412841796875	1	upper	amplitud.ttf
655.262	n/a	WORD	327631	wordpools/wasnorm_wordpool_less_exclusions.txt	LTP179	ltpFR	5	2	1	WHALE	1601	n/a	n/a	1	0.57763671875	0.412841796875	1	upper	amplitud.ttf
661.018	n/a	REC_START	330509	n/a	LTP179	ltpFR	5	2	n/a	n/a	n/a	n/a	n/a	n/a	n/a	n/a	n/a	n/a	n/a
663.646	n/a	REC_WORD	331823	wordpools/wasnorm_wordpool_less_exclusions.txt	LTP179	ltpFR	5	2	1	WHALE	1601	n/a	n/a	1	n/a	n/a	n/a	n/a	n/a
670.018	n/a	REC_WORD	335009	wordpools/wasnorm_wordpool_less_exclusions.txt	LTP179	ltpFR	5	2	0	EWE	542	n/a	n/a	1	n/a	n/a	n/a	n/a	n/a
674.128	n/a	REC_WORD	337064	wordpools/wasnorm_wordpool_less_exclusions.txt	LTP179	ltpFR	5	2	0	CROCODILE	411	n/a	n/a	1	n/a	n/a	n/a	n/a	n/a
678.328	n/a	REC_WORD	339164	wordpools/wasnorm_wordpool_less_exclusions.txt	LTP179	ltpFR	5	2	0	ZOO	1637	n/a	n/a	2	n/a	n/a	n/a	n/a	n/a
682.244	n/a	REC_WORD	341122	wordpools/wasnorm_wordpool_less_exclusions.txt	LTP179	ltpFR	5	2	1	CONDUCTOR	362	n/a	n/a	1	n/a	n/a	n/a	n/a	n/a
684.85	n/a	REC_WORD	342425	wordpools/wasnorm_wordpool_less_exclusions.txt	LTP179	ltpFR	5	2	1	BOYFRIEND	162	n/a	n/a	1	n/a	n/a	n/a	n/a	n/a
748.62	n/a	WORD	374310	wordpools/wasnorm_wordpool_less_exclusions.txt	LTP179	ltpFR	5	3	0	SHELTER	1282	n/a	n/a	1	0.422607421875	0.5869140625	0	lower	zerothre.ttf
752.45	n/a	WORD	376225	wordpools/wasnorm_wordpool_less_exclusions.txt	LTP179	ltpFR	5	3	0	THUMB	1462	n/a	n/a	0	0.422607421875	0.5869140625	0	lower	zerothre.ttf
756.314	n/a	WORD	378157	wordpools/wasnorm_wordpool_less_exclusions.txt	LTP179	ltpFR	5	3	0	BOULDER	155	n/a	n/a	1	0.422607421875	0.5869140625	0	lower	zerothre.ttf
760.43	n/a	WORD	380215	wordpools/wasnorm_wordpool_less_exclusions.txt	LTP179	ltpFR	5	3	0	TANGERINE	1431	n/a	n/a	0	0.422607421875	0.5869140625	0	lower	zerothre.ttf
764.496	n/a	WORD	382248	wordpools/wasnorm_wordpool_less_exclusions.txt	LTP179	ltpFR	5	3	0	BRAN	167	n/a	n/a	0	0.422607421875	0.5869140625	0	lower	zerothre.ttf
768.678	n/a	WORD	384339	wordpools/wasnorm_wordpool_less_exclusions.txt	LTP179	ltpFR	5	3	0	HERO	706	n/a	n/a	1	0.422607421875	0.5869140625	0	lower	zerothre.ttf
772.576	n/a	WORD	386288	wordpools/wasnorm_wordpool_less_exclusions.txt	LTP179	ltpFR	5	3	0	TACK	1428	n/a	n/a	0	0.422607421875	0.5869140625	0	lower	zerothre.ttf
776.708	n/a	WORD	388354	wordpools/wasnorm_wordpool_less_exclusions.txt	LTP179	ltpFR	5	3	0	TREAD	1499	n/a	n/a	1	0.422607421875	0.5869140625	0	lower	zerothre.ttf
780.824	n/a	WORD	390412	wordpools/wasnorm_wordpool_less_exclusions.txt	LTP179	ltpFR	5	3	0	LAGOON	795	n/a	n/a	1	0.422607421875	0.5869140625	0	lower	zerothre.ttf
784.856	n/a	WORD	392428	wordpools/wasnorm_wordpool_less_exclusions.txt	LTP179	ltpFR	5	3	0	BUILDING	191	n/a	n/a	1	0.422607421875	0.5869140625	0	lower	zerothre.ttf
788.838	n/a	WORD	394419	wordpools/wasnorm_wordpool_less_exclusions.txt	LTP179	ltpFR	5	3	0	SURF	1412	n/a	n/a	1	0.422607421875	0.5869140625	0	lower	zerothre.ttf
792.87	n/a	WORD	396435	wordpools/wasnorm_wordpool_less_exclusions.txt	LTP179	ltpFR	5	3	0	DOCUMENT	479	n/a	n/a	0	0.422607421875	0.5869140625	0	lower	zerothre.ttf
797.056	n/a	WORD	398528	wordpools/wasnorm_wordpool_less_exclusions.txt	LTP179	ltpFR	5	3	0	COPIER	377	n/a	n/a	1	0.422607421875	0.5869140625	0	lower	zerothre.ttf
801.118	n/a	WORD	400559	wordpools/wasnorm_wordpool_less_exclusions.txt	LTP179	ltpFR	5	3	0	SUBMARINE	1398	n/a	n/a	1	0.422607421875	0.5869140625	0	lower	zerothre.ttf
804.954	n/a	WORD	402477	wordpools/wasnorm_wordpool_less_exclusions.txt	LTP179	ltpFR	5	3	0	ROOM	1206	n/a	n/a	1	0.422607421875	0.5869140625	0	lower	zerothre.ttf
808.848	n/a	WORD	404424	wordpools/wasnorm_wordpool_less_exclusions.txt	LTP179	ltpFR	5	3	0	MAJOR	859	n/a	n/a	1	0.422607421875	0.5869140625	0	lower	zerothre.ttf
814.604	n/a	REC_START	407302	n/a	LTP179	ltpFR	5	3	n/a	n/a	n/a	n/a	n/a	n/a	n/a	n/a	n/a	n/a	n/a
816.204	n/a	REC_WORD	408102	wordpools/wasnorm_wordpool_less_exclusions.txt	LTP179	ltpFR	5	3	0	DOCUMENT	479	n/a	n/a	0	n/a	n/a	n/a	n/a	n/a
818.086	n/a	REC_WORD	409043	wordpools/wasnorm_wordpool_less_exclusions.txt	LTP179	ltpFR	5	3	0	COPIER	377	n/a	n/a	1	n/a	n/a	n/a	n/a	n/a
820.162	n/a	REC_WORD	410081	wordpools/wasnorm_wordpool_less_exclusions.txt	LTP179	ltpFR	5	3	0	SUBMARINE	1398	n/a	n/a	1	n/a	n/a	n/a	n/a	n/a
822.266	n/a	REC_WORD	411133	wordpools/wasnorm_wordpool_less_exclusions.txt	LTP179	ltpFR	5	3	0	SURF	1412	n/a	n/a	1	n/a	n/a	n/a	n/a	n/a
825.928	n/a	REC_WORD	412964	wordpools/wasnorm_wordpool_less_exclusions.txt	LTP179	ltpFR	5	3	0	TACK	1428	n/a	n/a	0	n/a	n/a	n/a	n/a	n/a
835.098	n/a	REC_WORD	417549	wordpools/wasnorm_wordpool_less_exclusions.txt	LTP179	ltpFR	5	3	0	THUMB	1462	n/a	n/a	0	n/a	n/a	n/a	n/a	n/a
842.956	n/a	REC_WORD	421478	wordpools/wasnorm_wordpool_less_exclusions.txt	LTP179	ltpFR	5	3	0	ROOM	1206	n/a	n/a	1	n/a	n/a	n/a	n/a	n/a
845.79	n/a	REC_WORD	422895	wordpools/wasnorm_wordpool_less_exclusions.txt	LTP179	ltpFR	5	3	0	BUILDING	191	n/a	n/a	1	n/a	n/a	n/a	n/a	n/a
874.526	n/a	REC_WORD	437263	wordpools/wasnorm_wordpool_less_exclusions.txt	LTP179	ltpFR	5	3	0	SHELTER	1282	n/a	n/a	1	n/a	n/a	n/a	n/a	n/a
875.972	n/a	REC_WORD	437986	wordpools/wasnorm_wordpool_less_exclusions.txt	LTP179	ltpFR	5	3	0	BOULDER	155	n/a	n/a	1	n/a	n/a	n/a	n/a	n/a
905.182	n/a	WORD	452591	wordpools/wasnorm_wordpool_less_exclusions.txt	LTP179	ltpFR	5	4	1	OTTER	986	n/a	n/a	1	0.57763671875	0.412841796875	1	upper	amplitud.ttf
909.284	n/a	WORD	454642	wordpools/wasnorm_wordpool_less_exclusions.txt	LTP179	ltpFR	5	4	1	GENERAL	630	n/a	n/a	1	0.57763671875	0.412841796875	1	upper	amplitud.ttf
913.13	n/a	WORD	456565	wordpools/wasnorm_wordpool_less_exclusions.txt	LTP179	ltpFR	5	4	1	UNIFORM	1539	n/a	n/a	0	0.57763671875	0.412841796875	1	upper	amplitud.ttf
917.162	n/a	WORD	458581	wordpools/wasnorm_wordpool_less_exclusions.txt	LTP179	ltpFR	5	4	1	FIREMAN	569	n/a	n/a	1	0.57763671875	0.412841796875	1	upper	amplitud.ttf
921.38	n/a	WORD	460690	wordpools/wasnorm_wordpool_less_exclusions.txt	LTP179	ltpFR	5	4	1	STAKE	1368	n/a	n/a	0	0.57763671875	0.412841796875	1	upper	amplitud.ttf
925.544	n/a	WORD	462772	wordpools/wasnorm_wordpool_less_exclusions.txt	LTP179	ltpFR	5	4	1	GRASSHOPPER	656	n/a	n/a	1	0.57763671875	0.412841796875	1	upper	amplitud.ttf
929.726	n/a	WORD	464863	wordpools/wasnorm_wordpool_less_exclusions.txt	LTP179	ltpFR	5	4	1	SINK	1309	n/a	n/a	0	0.57763671875	0.412841796875	1	upper	amplitud.ttf
933.776	n/a	WORD	466888	wordpools/wasnorm_wordpool_less_exclusions.txt	LTP179	ltpFR	5	4	1	JEEP	753	n/a	n/a	0	0.57763671875	0.412841796875	1	upper	amplitud.ttf
937.724	n/a	WORD	468862	wordpools/wasnorm_wordpool_less_exclusions.txt	LTP179	ltpFR	5	4	1	RADISH	1158	n/a	n/a	1	0.57763671875	0.412841796875	1	upper	amplitud.ttf
941.856	n/a	WORD	470928	wordpools/wasnorm_wordpool_less_exclusions.txt	LTP179	ltpFR	5	4	1	GIRAFFE	636	n/a	n/a	1	0.57763671875	0.412841796875	1	upper	amplitud.ttf
945.938	n/a	WORD	472969	wordpools/wasnorm_wordpool_less_exclusions.txt	LTP179	ltpFR	5	4	1	GATE	625	n/a	n/a	0	0.57763671875	0.412841796875	1	upper	amplitud.ttf
949.92	n/a	WORD	474960	wordpools/wasnorm_wordpool_less_exclusions.txt	LTP179	ltpFR	5	4	1	DRESSER	496	n/a	n/a	0	0.57763671875	0.412841796875	1	upper	amplitud.ttf
953.768	n/a	WORD	476884	wordpools/wasnorm_wordpool_less_exclusions.txt	LTP179	ltpFR	5	4	1	PASSENGER	1020	n/a	n/a	1	0.57763671875	0.412841796875	1	upper	amplitud.ttf
957.834	n/a	WORD	478917	wordpools/wasnorm_wordpool_less_exclusions.txt	LTP179	ltpFR	5	4	1	MECHANIC	884	n/a	n/a	1	0.57763671875	0.412841796875	1	upper	amplitud.ttf
961.766	n/a	WORD	480883	wordpools/wasnorm_wordpool_less_exclusions.txt	LTP179	ltpFR	5	4	1	BUFFALO	186	n/a	n/a	1	0.57763671875	0.412841796875	1	upper	amplitud.ttf
965.848	n/a	WORD	482924	wordpools/wasnorm_wordpool_less_exclusions.txt	LTP179	ltpFR	5	4	1	ANIMAL	23	n/a	n/a	1	0.57763671875	0.412841796875	1	upper	amplitud.ttf
971.822	n/a	REC_START	485911	n/a	LTP179	ltpFR	5	4	n/a	n/a	n/a	n/a	n/a	n/a	n/a	n/a	n/a	n/a	n/a
973.378	n/a	REC_WORD	486689	wordpools/wasnorm_wordpool_less_exclusions.txt	LTP179	ltpFR	5	4	1	ANIMAL	23	n/a	n/a	1	n/a	n/a	n/a	n/a	n/a
975.474	n/a	REC_WORD	487737	wordpools/wasnorm_wordpool_less_exclusions.txt	LTP179	ltpFR	5	4	1	OTTER	986	n/a	n/a	1	n/a	n/a	n/a	n/a	n/a
977.294	n/a	REC_WORD	488647	wordpools/wasnorm_wordpool_less_exclusions.txt	LTP179	ltpFR	5	4	1	GIRAFFE	636	n/a	n/a	1	n/a	n/a	n/a	n/a	n/a
979.424	n/a	REC_WORD	489712	wordpools/wasnorm_wordpool_less_exclusions.txt	LTP179	ltpFR	5	4	1	GRASSHOPPER	656	n/a	n/a	1	n/a	n/a	n/a	n/a	n/a
981.91	n/a	REC_WORD	490955	wordpools/wasnorm_wordpool_less_exclusions.txt	LTP179	ltpFR	5	4	1	MECHANIC	884	n/a	n/a	1	n/a	n/a	n/a	n/a	n/a
983.676	n/a	REC_WORD	491838	wordpools/wasnorm_wordpool_less_exclusions.txt	LTP179	ltpFR	5	4	1	JEEP	753	n/a	n/a	0	n/a	n/a	n/a	n/a	n/a
986.394	n/a	REC_WORD	493197	wordpools/wasnorm_wordpool_less_exclusions.txt	LTP179	ltpFR	5	4	1	GENERAL	630	n/a	n/a	1	n/a	n/a	n/a	n/a	n/a
988.42	n/a	REC_WORD	494210	wordpools/wasnorm_wordpool_less_exclusions.txt	LTP179	ltpFR	5	4	1	PASSENGER	1020	n/a	n/a	1	n/a	n/a	n/a	n/a	n/a
1006.984	n/a	REC_WORD	503492	wordpools/wasnorm_wordpool_less_exclusions.txt	LTP179	ltpFR	5	4	1	UNIFORM	1539	n/a	n/a	0	n/a	n/a	n/a	n/a	n/a
1045.25	n/a	REC_WORD	522625	wordpools/wasnorm_wordpool_less_exclusions.txt	LTP179	ltpFR	5	4	1	STAKE	1368	n/a	n/a	0	n/a	n/a	n/a	n/a	n/a
1055.442	n/a	WORD	527721	wordpools/wasnorm_wordpool_less_exclusions.txt	LTP179	ltpFR	5	5	0	PEOPLE	1046	n/a	n/a	1	0.422607421875	0.5869140625	0	lower	zerothre.ttf
1059.446	n/a	WORD	529723	wordpools/wasnorm_wordpool_less_exclusions.txt	LTP179	ltpFR	5	5	0	BOUILLON	154	n/a	n/a	0	0.422607421875	0.5869140625	0	lower	zerothre.ttf
1063.572	n/a	WORD	531786	wordpools/wasnorm_wordpool_less_exclusions.txt	LTP179	ltpFR	5	5	0	TRIGGER	1507	n/a	n/a	0	0.422607421875	0.5869140625	0	lower	zerothre.ttf
1067.554	n/a	WORD	533777	wordpools/wasnorm_wordpool_less_exclusions.txt	LTP179	ltpFR	5	5	0	THRONE	1461	n/a	n/a	1	0.422607421875	0.5869140625	0	lower	zerothre.ttf
1071.52	n/a	WORD	535760	wordpools/wasnorm_wordpool_less_exclusions.txt	LTP179	ltpFR	5	5	0	CHICKEN	297	n/a	n/a	0	0.422607421875	0.5869140625	0	lower	zerothre.ttf
1075.692	n/a	WORD	537846	wordpools/wasnorm_wordpool_less_exclusions.txt	LTP179	ltpFR	5	5	0	CELLO	268	n/a	n/a	1	0.422607421875	0.5869140625	0	lower	zerothre.ttf
1079.65	n/a	WORD	539825	wordpools/wasnorm_wordpool_less_exclusions.txt	LTP179	ltpFR	5	5	0	STEREO	1378	n/a	n/a	1	0.422607421875	0.5869140625	0	lower	zerothre.ttf
1083.716	n/a	WORD	541858	wordpools/wasnorm_wordpool_less_exclusions.txt	LTP179	ltpFR	5	5	0	EMPEROR	529	n/a	n/a	1	0.422607421875	0.5869140625	0	lower	zerothre.ttf
1087.898	n/a	WORD	543949	wordpools/wasnorm_wordpool_less_exclusions.txt	LTP179	ltpFR	5	5	0	STOOL	1386	n/a	n/a	0	0.422607421875	0.5869140625	0	lower	zerothre.ttf
1091.932	n/a	WORD	545966	wordpools/wasnorm_wordpool_less_exclusions.txt	LTP179	ltpFR	5	5	0	STAPLER	1372	n/a	n/a	0	0.422607421875	0.5869140625	0	lower	zerothre.ttf
1095.902	n/a	WORD	547951	wordpools/wasnorm_wordpool_less_exclusions.txt	LTP179	ltpFR	5	5	0	REFRIGERATOR	1179	n/a	n/a	1	0.422607421875	0.5869140625	0	lower	zerothre.ttf
1099.844	n/a	WORD	549922	wordpools/wasnorm_wordpool_less_exclusions.txt	LTP179	ltpFR	5	5	0	COLESLAW	344	n/a	n/a	0	0.422607421875	0.5869140625	0	lower	zerothre.ttf
1104.026	n/a	WORD	552013	wordpools/wasnorm_wordpool_less_exclusions.txt	LTP179	ltpFR	5	5	0	VOLUNTEER	1577	n/a	n/a	1	0.422607421875	0.5869140625	0	lower	zerothre.ttf
1107.898	n/a	WORD	553949	wordpools/wasnorm_wordpool_less_exclusions.txt	LTP179	ltpFR	5	5	0	STAFF	1365	n/a	n/a	1	0.422607421875	0.5869140625	0	lower	zerothre.ttf
1111.756	n/a	WORD	555878	wordpools/wasnorm_wordpool_less_exclusions.txt	LTP179	ltpFR	5	5	0	SMOG	1330	n/a	n/a	1	0.422607421875	0.5869140625	0	lower	zerothre.ttf
1115.954	n/a	WORD	557977	wordpools/wasnorm_wordpool_less_exclusions.txt	LTP179	ltpFR	5	5	0	TAR	1435	n/a	n/a	1	0.422607421875	0.5869140625	0	lower	zerothre.ttf
1121.678	n/a	REC_START	560839	n/a	LTP179	ltpFR	5	5	n/a	n/a	n/a	n/a	n/a	n/a	n/a	n/a	n/a	n/a	n/a
1124.212	n/a	REC_WORD	562106	wordpools/wasnorm_wordpool_less_exclusions.txt	LTP179	ltpFR	5	5	0	PEOPLE	1046	n/a	n/a	1	n/a	n/a	n/a	n/a	n/a
1126.018	n/a	REC_WORD	563009	wordpools/wasnorm_wordpool_less_exclusions.txt	LTP179	ltpFR	5	5	0	STAFF	1365	n/a	n/a	1	n/a	n/a	n/a	n/a	n/a
1130.986	n/a	REC_WORD	565493	wordpools/wasnorm_wordpool_less_exclusions.txt	LTP179	ltpFR	5	5	0	STAPLER	1372	n/a	n/a	0	n/a	n/a	n/a	n/a	n/a
1136.354	n/a	REC_WORD	568177	wordpools/wasnorm_wordpool_less_exclusions.txt	LTP179	ltpFR	5	5	0	EMPEROR	529	n/a	n/a	1	n/a	n/a	n/a	n/a	n/a
1137.956	n/a	REC_WORD	568978	wordpools/wasnorm_wordpool_less_exclusions.txt	LTP179	ltpFR	5	5	0	THRONE	1461	n/a	n/a	1	n/a	n/a	n/a	n/a	n/a
1151.786	n/a	REC_WORD	575893	wordpools/wasnorm_wordpool_less_exclusions.txt	LTP179	ltpFR	5	5	0	COLESLAW	344	n/a	n/a	0	n/a	n/a	n/a	n/a	n/a
1160.372	n/a	REC_WORD	580186	wordpools/wasnorm_wordpool_less_exclusions.txt	LTP179	ltpFR	5	5	0	STOOL	1386	n/a	n/a	0	n/a	n/a	n/a	n/a	n/a
1179.396	n/a	REC_WORD	589698	wordpools/wasnorm_wordpool_less_exclusions.txt	LTP179	ltpFR	5	5	0	REFRIGERATOR	1179	n/a	n/a	1	n/a	n/a	n/a	n/a	n/a
1180.396	n/a	REC_WORD_VV	590198	wordpools/wasnorm_wordpool_less_exclusions.txt	LTP179	ltpFR	5	5	n/a	<>	-1	n/a	n/a	n/a	n/a	n/a	n/a	n/a	n/a
1211.586	n/a	WORD	605793	wordpools/wasnorm_wordpool_less_exclusions.txt	LTP179	ltpFR	5	6	1	SEAT	1264	n/a	n/a	0	0.57763671875	0.412841796875	1	upper	amplitud.ttf
1215.62	n/a	WORD	607810	wordpools/wasnorm_wordpool_less_exclusions.txt	LTP179	ltpFR	5	6	1	SQUIRREL	1362	n/a	n/a	1	0.57763671875	0.412841796875	1	upper	amplitud.ttf
1219.502	n/a	WORD	609751	wordpools/wasnorm_wordpool_less_exclusions.txt	LTP179	ltpFR	5	6	1	DIAGRAM	456	n/a	n/a	0	0.57763671875	0.412841796875	1	upper	amplitud.ttf
1223.466	n/a	WORD	611733	wordpools/wasnorm_wordpool_less_exclusions.txt	LTP179	ltpFR	5	6	1	DRESS	495	n/a	n/a	0	0.57763671875	0.412841796875	1	upper	amplitud.ttf
1227.582	n/a	WORD	613791	wordpools/wasnorm_wordpool_less_exclusions.txt	LTP179	ltpFR	5	6	1	SOCK	1339	n/a	n/a	0	0.57763671875	0.412841796875	1	upper	amplitud.ttf
1231.698	n/a	WORD	615849	wordpools/wasnorm_wordpool_less_exclusions.txt	LTP179	ltpFR	5	6	1	SHOE	1288	n/a	n/a	0	0.57763671875	0.412841796875	1	upper	amplitud.ttf
1235.53	n/a	WORD	617765	wordpools/wasnorm_wordpool_less_exclusions.txt	LTP179	ltpFR	5	6	1	BROTHER	179	n/a	n/a	1	0.57763671875	0.412841796875	1	upper	amplitud.ttf
1239.612	n/a	WORD	619806	wordpools/wasnorm_wordpool_less_exclusions.txt	LTP179	ltpFR	5	6	1	SUMMIT	1405	n/a	n/a	0	0.57763671875	0.412841796875	1	upper	amplitud.ttf
1243.744	n/a	WORD	621872	wordpools/wasnorm_wordpool_less_exclusions.txt	LTP179	ltpFR	5	6	1	RAM	1165	n/a	n/a	1	0.57763671875	0.412841796875	1	upper	amplitud.ttf
1247.642	n/a	WORD	623821	wordpools/wasnorm_wordpool_less_exclusions.txt	LTP179	ltpFR	5	6	1	VOLLEYBALL	1576	n/a	n/a	0	0.57763671875	0.412841796875	1	upper	amplitud.ttf
1251.59	n/a	WORD	625795	wordpools/wasnorm_wordpool_less_exclusions.txt	LTP179	ltpFR	5	6	1	PICTURE	1061	n/a	n/a	0	0.57763671875	0.412841796875	1	upper	amplitud.ttf
1255.422	n/a	WORD	627711	wordpools/wasnorm_wordpool_less_exclusions.txt	LTP179	ltpFR	5	6	1	PIGMENT	1066	n/a	n/a	0	0.57763671875	0.412841796875	1	upper	amplitud.ttf
1259.406	n/a	WORD	629703	wordpools/wasnorm_wordpool_less_exclusions.txt	LTP179	ltpFR	5	6	1	HIKER	708	n/a	n/a	1	0.57763671875	0.412841796875	1	upper	amplitud.ttf
1263.334	n/a	WORD	631667	wordpools/wasnorm_wordpool_less_exclusions.txt	LTP179	ltpFR	5	6	1	FATHER	554	n/a	n/a	1	0.57763671875	0.412841796875	1	upper	amplitud.ttf
1267.2	n/a	WORD	633600	wordpools/wasnorm_wordpool_less_exclusions.txt	LTP179	ltpFR	5	6	1	KITCHEN	778	n/a	n/a	0	0.57763671875	0.412841796875	1	upper	amplitud.ttf
1271.384	n/a	WORD	635692	wordpools/wasnorm_wordpool_less_exclusions.txt	LTP179	ltpFR	5	6	1	PICNIC	1060	n/a	n/a	0	0.57763671875	0.412841796875	1	upper	amplitud.ttf
1277.004	n/a	REC_START	638502	n/a	LTP179	ltpFR	5	6	n/a	n/a	n/a	n/a	n/a	n/a	n/a	n/a	n/a	n/a	n/a
1278.964	n/a	REC_WORD	639482	wordpools/wasnorm_wordpool_less_exclusions.txt	LTP179	ltpFR	5	6	1	PICNIC	1060	n/a	n/a	0	n/a	n/a	n/a	n/a	n/a
1281.39	n/a	REC_WORD	640695	wordpools/wasnorm_wordpool_less_exclusions.txt	LTP179	ltpFR	5	6	1	FATHER	554	n/a	n/a	1	n/a	n/a	n/a	n/a	n/a
1284.702	n/a	REC_WORD	642351	wordpools/wasnorm_wordpool_less_exclusions.txt	LTP179	ltpFR	5	6	1	BROTHER	179	n/a	n/a	1	n/a	n/a	n/a	n/a	n/a
1288.458	n/a	REC_WORD	644229	wordpools/wasnorm_wordpool_less_exclusions.txt	LTP179	ltpFR	5	6	1	DRESS	495	n/a	n/a	0	n/a	n/a	n/a	n/a	n/a
1291.292	n/a	REC_WORD	645646	wordpools/wasnorm_wordpool_less_exclusions.txt	LTP179	ltpFR	5	6	1	SHOE	1288	n/a	n/a	0	n/a	n/a	n/a	n/a	n/a
1294.74	n/a	REC_WORD	647370	wordpools/wasnorm_wordpool_less_exclusions.txt	LTP179	ltpFR	5	6	1	RAM	1165	n/a	n/a	1	n/a	n/a	n/a	n/a	n/a
1304.214	n/a	REC_WORD	652107	wordpools/wasnorm_wordpool_less_exclusions.txt	LTP179	ltpFR	5	6	1	VOLLEYBALL	1576	n/a	n/a	0	n/a	n/a	n/a	n/a	n/a
1310.79	n/a	REC_WORD	655395	wordpools/wasnorm_wordpool_less_exclusions.txt	LTP179	ltpFR	5	6	1	SQUIRREL	1362	n/a	n/a	1	n/a	n/a	n/a	n/a	n/a
1312.84	n/a	REC_WORD	656420	wordpools/wasnorm_wordpool_less_exclusions.txt	LTP179	ltpFR	5	6	1	SQUIRREL	1362	n/a	n/a	1	n/a	n/a	n/a	n/a	n/a
1321.614	n/a	REC_WORD	660807	wordpools/wasnorm_wordpool_less_exclusions.txt	LTP179	ltpFR	5	6	1	SUMMIT	1405	n/a	n/a	0	n/a	n/a	n/a	n/a	n/a
1336.706	n/a	REC_WORD	668353	wordpools/wasnorm_wordpool_less_exclusions.txt	LTP179	ltpFR	5	6	0	TAR	1435	n/a	n/a	1	n/a	n/a	n/a	n/a	n/a
1369.446	n/a	WORD	684723	wordpools/wasnorm_wordpool_less_exclusions.txt	LTP179	ltpFR	5	7	-1	CUFF	423	n/a	n/a	-1	1.0	1.0	1	upper	Verdana.ttf
1373.558	n/a	WORD	686779	wordpools/wasnorm_wordpool_less_exclusions.txt	LTP179	ltpFR	5	7	-1	CROW	414	n/a	n/a	-1	1.0	1.0	1	upper	Verdana.ttf
1377.772	n/a	WORD	688886	wordpools/wasnorm_wordpool_less_exclusions.txt	LTP179	ltpFR	5	7	-1	POND	1101	n/a	n/a	-1	1.0	1.0	1	upper	Verdana.ttf
1381.954	n/a	WORD	690977	wordpools/wasnorm_wordpool_less_exclusions.txt	LTP179	ltpFR	5	7	-1	EMERALD	528	n/a	n/a	-1	1.0	1.0	1	upper	Verdana.ttf
1385.988	n/a	WORD	692994	wordpools/wasnorm_wordpool_less_exclusions.txt	LTP179	ltpFR	5	7	-1	COUSIN	392	n/a	n/a	-1	1.0	1.0	1	upper	Verdana.ttf
1390.122	n/a	WORD	695061	wordpools/wasnorm_wordpool_less_exclusions.txt	LTP179	ltpFR	5	7	-1	PEDESTRIAN	1038	n/a	n/a	-1	1.0	1.0	1	upper	Verdana.ttf
1393.95	n/a	WORD	696975	wordpools/wasnorm_wordpool_less_exclusions.txt	LTP179	ltpFR	5	7	-1	COURSE	390	n/a	n/a	-1	1.0	1.0	1	upper	Verdana.ttf
1397.782	n/a	WORD	698891	wordpools/wasnorm_wordpool_less_exclusions.txt	LTP179	ltpFR	5	7	-1	SPATULA	1348	n/a	n/a	-1	1.0	1.0	1	upper	Verdana.ttf
1401.882	n/a	WORD	700941	wordpools/wasnorm_wordpool_less_exclusions.txt	LTP179	ltpFR	5	7	-1	BACON	67	n/a	n/a	-1	1.0	1.0	1	upper	Verdana.ttf
1405.78	n/a	WORD	702890	wordpools/wasnorm_wordpool_less_exclusions.txt	LTP179	ltpFR	5	7	-1	JEWEL	757	n/a	n/a	-1	1.0	1.0	1	upper	Verdana.ttf
1409.832	n/a	WORD	704916	wordpools/wasnorm_wordpool_less_exclusions.txt	LTP179	ltpFR	5	7	-1	SWAMP	1416	n/a	n/a	-1	1.0	1.0	1	upper	Verdana.ttf
1413.894	n/a	WORD	706947	wordpools/wasnorm_wordpool_less_exclusions.txt	LTP179	ltpFR	5	7	-1	HERB	704	n/a	n/a	-1	1.0	1.0	1	upper	Verdana.ttf
1417.992	n/a	WORD	708996	wordpools/wasnorm_wordpool_less_exclusions.txt	LTP179	ltpFR	5	7	-1	SPICE	1350	n/a	n/a	-1	1.0	1.0	1	upper	Verdana.ttf
1422.142	n/a	WORD	711071	wordpools/wasnorm_wordpool_less_exclusions.txt	LTP179	ltpFR	5	7	-1	ZIPPER	1636	n/a	n/a	-1	1.0	1.0	1	upper	Verdana.ttf
1426.198	n/a	WORD	713099	wordpools/wasnorm_wordpool_less_exclusions.txt	LTP179	ltpFR	5	7	-1	SNORKEL	1336	n/a	n/a	-1	1.0	1.0	1	upper	Verdana.ttf
1430.358	n/a	WORD	715179	wordpools/wasnorm_wordpool_less_exclusions.txt	LTP179	ltpFR	5	7	-1	CREAM	402	n/a	n/a	-1	1.0	1.0	1	upper	Verdana.ttf
1436.012	n/a	REC_START	718006	n/a	LTP179	ltpFR	5	7	n/a	n/a	n/a	n/a	n/a	n/a	n/a	n/a	n/a	n/a	n/a
1437.594	n/a	REC_WORD	718797	wordpools/wasnorm_wordpool_less_exclusions.txt	LTP179	ltpFR	5	7	n/a	PATH	1023	n/a	n/a	n/a	n/a	n/a	n/a	n/a	n/a
1439.394	n/a	REC_WORD	719697	wordpools/wasnorm_wordpool_less_exclusions.txt	LTP179	ltpFR	5	7	-1	COURSE	390	n/a	n/a	-1	n/a	n/a	n/a	n/a	n/a
1441.54	n/a	REC_WORD	720770	wordpools/wasnorm_wordpool_less_exclusions.txt	LTP179	ltpFR	5	7	-1	POND	1101	n/a	n/a	-1	n/a	n/a	n/a	n/a	n/a
1444.754	n/a	REC_WORD	722377	wordpools/wasnorm_wordpool_less_exclusions.txt	LTP179	ltpFR	5	7	-1	CUFF	423	n/a	n/a	-1	n/a	n/a	n/a	n/a	n/a
1447.986	n/a	REC_WORD	723993	wordpools/wasnorm_wordpool_less_exclusions.txt	LTP179	ltpFR	5	7	-1	JEWEL	757	n/a	n/a	-1	n/a	n/a	n/a	n/a	n/a
1450.136	n/a	REC_WORD	725068	wordpools/wasnorm_wordpool_less_exclusions.txt	LTP179	ltpFR	5	7	-1	EMERALD	528	n/a	n/a	-1	n/a	n/a	n/a	n/a	n/a
1460.504	n/a	REC_WORD	730252	wordpools/wasnorm_wordpool_less_exclusions.txt	LTP179	ltpFR	5	7	-1	CROW	414	n/a	n/a	-1	n/a	n/a	n/a	n/a	n/a
1467.912	n/a	REC_WORD	733956	wordpools/wasnorm_wordpool_less_exclusions.txt	LTP179	ltpFR	5	7	-1	SNORKEL	1336	n/a	n/a	-1	n/a	n/a	n/a	n/a	n/a
1497.182	n/a	REC_WORD	748591	wordpools/wasnorm_wordpool_less_exclusions.txt	LTP179	ltpFR	5	7	-1	SPICE	1350	n/a	n/a	-1	n/a	n/a	n/a	n/a	n/a
1499.282	n/a	REC_WORD	749641	wordpools/wasnorm_wordpool_less_exclusions.txt	LTP179	ltpFR	5	7	-1	BACON	67	n/a	n/a	-1	n/a	n/a	n/a	n/a	n/a
1500.878	n/a	REC_WORD	750439	wordpools/wasnorm_wordpool_less_exclusions.txt	LTP179	ltpFR	5	7	-1	SPATULA	1348	n/a	n/a	-1	n/a	n/a	n/a	n/a	n/a
1509.324	n/a	REC_WORD	754662	wordpools/wasnorm_wordpool_less_exclusions.txt	LTP179	ltpFR	5	7	-1	CREAM	402	n/a	n/a	-1	n/a	n/a	n/a	n/a	n/a
1523.684	n/a	WORD	761842	wordpools/wasnorm_wordpool_less_exclusions.txt	LTP179	ltpFR	5	8	0	COW	393	n/a	n/a	1	0.422607421875	0.5869140625	0	lower	zerothre.ttf
1527.696	n/a	WORD	763848	wordpools/wasnorm_wordpool_less_exclusions.txt	LTP179	ltpFR	5	8	0	MILK	895	n/a	n/a	0	0.422607421875	0.5869140625	0	lower	zerothre.ttf
1531.866	n/a	WORD	765933	wordpools/wasnorm_wordpool_less_exclusions.txt	LTP179	ltpFR	5	8	0	BLUEBERRY	140	n/a	n/a	0	0.422607421875	0.5869140625	0	lower	zerothre.ttf
1535.878	n/a	WORD	767939	wordpools/wasnorm_wordpool_less_exclusions.txt	LTP179	ltpFR	5	8	0	LOCK	838	n/a	n/a	0	0.422607421875	0.5869140625	0	lower	zerothre.ttf
1539.826	n/a	WORD	769913	wordpools/wasnorm_wordpool_less_exclusions.txt	LTP179	ltpFR	5	8	1	SECRETARY	1265	n/a	n/a	1	0.57763671875	0.412841796875	1	upper	amplitud.ttf
1543.962	n/a	WORD	771981	wordpools/wasnorm_wordpool_less_exclusions.txt	LTP179	ltpFR	5	8	1	CATERPILLAR	259	n/a	n/a	1	0.57763671875	0.412841796875	1	upper	amplitud.ttf
1548.04	n/a	WORD	774020	wordpools/wasnorm_wordpool_less_exclusions.txt	LTP179	ltpFR	5	8	1	COUNTRY	388	n/a	n/a	1	0.57763671875	0.412841796875	1	upper	amplitud.ttf
1551.87	n/a	WORD	775935	wordpools/wasnorm_wordpool_less_exclusions.txt	LTP179	ltpFR	5	8	0	TIDE	1465	n/a	n/a	1	0.422607421875	0.5869140625	0	lower	zerothre.ttf
1555.87	n/a	WORD	777935	wordpools/wasnorm_wordpool_less_exclusions.txt	LTP179	ltpFR	5	8	0	CARD	243	n/a	n/a	0	0.422607421875	0.5869140625	0	lower	zerothre.ttf
1559.784	n/a	WORD	779892	wordpools/wasnorm_wordpool_less_exclusions.txt	LTP179	ltpFR	5	8	0	CITRUS	313	n/a	n/a	0	0.422607421875	0.5869140625	0	lower	zerothre.ttf
1563.766	n/a	WORD	781883	wordpools/wasnorm_wordpool_less_exclusions.txt	LTP179	ltpFR	5	8	0	LIEUTENANT	818	n/a	n/a	1	0.422607421875	0.5869140625	0	lower	zerothre.ttf
1567.948	n/a	WORD	783974	wordpools/wasnorm_wordpool_less_exclusions.txt	LTP179	ltpFR	5	8	1	TANK	1432	n/a	n/a	0	0.57763671875	0.412841796875	1	upper	amplitud.ttf
1571.798	n/a	WORD	785899	wordpools/wasnorm_wordpool_less_exclusions.txt	LTP179	ltpFR	5	8	1	HAMBURGER	679	n/a	n/a	0	0.57763671875	0.412841796875	1	upper	amplitud.ttf
1575.864	n/a	WORD	787932	wordpools/wasnorm_wordpool_less_exclusions.txt	LTP179	ltpFR	5	8	1	BROCCOLI	176	n/a	n/a	1	0.57763671875	0.412841796875	1	upper	amplitud.ttf
1580.046	n/a	WORD	790023	wordpools/wasnorm_wordpool_less_exclusions.txt	LTP179	ltpFR	5	8	1	DICE	461	n/a	n/a	0	0.57763671875	0.412841796875	1	upper	amplitud.ttf
1583.914	n/a	WORD	791957	wordpools/wasnorm_wordpool_less_exclusions.txt	LTP179	ltpFR	5	8	1	PERSONNEL	1053	n/a	n/a	1	0.57763671875	0.412841796875	1	upper	amplitud.ttf
1589.75	n/a	REC_START	794875	n/a	LTP179	ltpFR	5	8	n/a	n/a	n/a	n/a	n/a	n/a	n/a	n/a	n/a	n/a	n/a
1591.202	n/a	REC_WORD	795601	wordpools/wasnorm_wordpool_less_exclusions.txt	LTP179	ltpFR	5	8	1	PERSONNEL	1053	n/a	n/a	1	n/a	n/a	n/a	n/a	n/a
1593.702	n/a	REC_WORD	796851	wordpools/wasnorm_wordpool_less_exclusions.txt	LTP179	ltpFR	5	8	1	SECRETARY	1265	n/a	n/a	1	n/a	n/a	n/a	n/a	n/a
1596.26	n/a	REC_WORD	798130	wordpools/wasnorm_wordpool_less_exclusions.txt	LTP179	ltpFR	5	8	1	CATERPILLAR	259	n/a	n/a	1	n/a	n/a	n/a	n/a	n/a
1598.694	n/a	REC_WORD	799347	wordpools/wasnorm_wordpool_less_exclusions.txt	LTP179	ltpFR	5	8	1	TANK	1432	n/a	n/a	0	n/a	n/a	n/a	n/a	n/a
1600.846	n/a	REC_WORD	800423	wordpools/wasnorm_wordpool_less_exclusions.txt	LTP179	ltpFR	5	8	0	LIEUTENANT	818	n/a	n/a	1	n/a	n/a	n/a	n/a	n/a
1605.788	n/a	REC_WORD	802894	wordpools/wasnorm_wordpool_less_exclusions.txt	LTP179	ltpFR	5	8	0	TIDE	1465	n/a	n/a	1	n/a	n/a	n/a	n/a	n/a
1611.432	n/a	REC_WORD	805716	wordpools/wasnorm_wordpool_less_exclusions.txt	LTP179	ltpFR	5	8	1	PERSONNEL	1053	n/a	n/a	1	n/a	n/a	n/a	n/a	n/a
1681.868	n/a	WORD	840934	wordpools/wasnorm_wordpool_less_exclusions.txt	LTP179	ltpFR	5	9	-1	DISC	473	n/a	n/a	-1	1.0	1.0	1	upper	Verdana.ttf
1685.784	n/a	WORD	842892	wordpools/wasnorm_wordpool_less_exclusions.txt	LTP179	ltpFR	5	9	-1	TELEVISION	1447	n/a	n/a	-1	1.0	1.0	1	upper	Verdana.ttf
1689.802	n/a	WORD	844901	wordpools/wasnorm_wordpool_less_exclusions.txt	LTP179	ltpFR	5	9	-1	VELVET	1555	n/a	n/a	-1	1.0	1.0	1	upper	Verdana.ttf
1693.998	n/a	WORD	846999	wordpools/wasnorm_wordpool_less_exclusions.txt	LTP179	ltpFR	5	9	-1	CHEMIST	292	n/a	n/a	-1	1.0	1.0	1	upper	Verdana.ttf
1698.146	n/a	WORD	849073	wordpools/wasnorm_wordpool_less_exclusions.txt	LTP179	ltpFR	5	9	-1	FIG	563	n/a	n/a	-1	1.0	1.0	1	upper	Verdana.ttf
1702.062	n/a	WORD	851031	wordpools/wasnorm_wordpool_less_exclusions.txt	LTP179	ltpFR	5	9	-1	VEHICLE	1553	n/a	n/a	-1	1.0	1.0	1	upper	Verdana.ttf
1705.994	n/a	WORD	852997	wordpools/wasnorm_wordpool_less_exclusions.txt	LTP179	ltpFR	5	9	-1	BAY	102	n/a	n/a	-1	1.0	1.0	1	upper	Verdana.ttf
1709.878	n/a	WORD	854939	wordpools/wasnorm_wordpool_less_exclusions.txt	LTP179	ltpFR	5	9	-1	INFANT	737	n/a	n/a	-1	1.0	1.0	1	upper	Verdana.ttf
1713.79	n/a	WORD	856895	wordpools/wasnorm_wordpool_less_exclusions.txt	LTP179	ltpFR	5	9	-1	COOK	372	n/a	n/a	-1	1.0	1.0	1	upper	Verdana.ttf
1717.878	n/a	WORD	858939	wordpools/wasnorm_wordpool_less_exclusions.txt	LTP179	ltpFR	5	9	-1	BAKER	71	n/a	n/a	-1	1.0	1.0	1	upper	Verdana.ttf
1721.99	n/a	WORD	860995	wordpools/wasnorm_wordpool_less_exclusions.txt	LTP179	ltpFR	5	9	-1	HERD	705	n/a	n/a	-1	1.0	1.0	1	upper	Verdana.ttf
1726.004	n/a	WORD	863002	wordpools/wasnorm_wordpool_less_exclusions.txt	LTP179	ltpFR	5	9	-1	CATTLE	261	n/a	n/a	-1	1.0	1.0	1	upper	Verdana.ttf
1730.152	n/a	WORD	865076	wordpools/wasnorm_wordpool_less_exclusions.txt	LTP179	ltpFR	5	9	-1	CHARCOAL	281	n/a	n/a	-1	1.0	1.0	1	upper	Verdana.ttf
1734.302	n/a	WORD	867151	wordpools/wasnorm_wordpool_less_exclusions.txt	LTP179	ltpFR	5	9	-1	VALVE	1546	n/a	n/a	-1	1.0	1.0	1	upper	Verdana.ttf
1738.2	n/a	WORD	869100	wordpools/wasnorm_wordpool_less_exclusions.txt	LTP179	ltpFR	5	9	-1	ORANGE	980	n/a	n/a	-1	1.0	1.0	1	upper	Verdana.ttf
1742.116	n/a	WORD	871058	wordpools/wasnorm_wordpool_less_exclusions.txt	LTP179	ltpFR	5	9	-1	POTATO	1115	n/a	n/a	-1	1.0	1.0	1	upper	Verdana.ttf
1747.954	n/a	REC_START	873977	n/a	LTP179	ltpFR	5	9	n/a	n/a	n/a	n/a	n/a	n/a	n/a	n/a	n/a	n/a	n/a
1749.126	n/a	REC_WORD	874563	wordpools/wasnorm_wordpool_less_exclusions.txt	LTP179	ltpFR	5	9	-1	ORANGE	980	n/a	n/a	-1	n/a	n/a	n/a	n/a	n/a
1750.852	n/a	REC_WORD	875426	wordpools/wasnorm_wordpool_less_exclusions.txt	LTP179	ltpFR	5	9	-1	POTATO	1115	n/a	n/a	-1	n/a	n/a	n/a	n/a	n/a
1753.218	n/a	REC_WORD	876609	wordpools/wasnorm_wordpool_less_exclusions.txt	LTP179	ltpFR	5	9	-1	CHEMIST	292	n/a	n/a	-1	n/a	n/a	n/a	n/a	n/a
1755.152	n/a	REC_WORD	877576	wordpools/wasnorm_wordpool_less_exclusions.txt	LTP179	ltpFR	5	9	-1	CHARCOAL	281	n/a	n/a	-1	n/a	n/a	n/a	n/a	n/a
1759.124	n/a	REC_WORD	879562	wordpools/wasnorm_wordpool_less_exclusions.txt	LTP179	ltpFR	5	9	-1	DISC	473	n/a	n/a	-1	n/a	n/a	n/a	n/a	n/a
1761.44	n/a	REC_WORD	880720	wordpools/wasnorm_wordpool_less_exclusions.txt	LTP179	ltpFR	5	9	-1	TELEVISION	1447	n/a	n/a	-1	n/a	n/a	n/a	n/a	n/a
1773.642	n/a	REC_WORD	886821	wordpools/wasnorm_wordpool_less_exclusions.txt	LTP179	ltpFR	5	9	-1	CATTLE	261	n/a	n/a	-1	n/a	n/a	n/a	n/a	n/a
1775.578	n/a	REC_WORD	887789	wordpools/wasnorm_wordpool_less_exclusions.txt	LTP179	ltpFR	5	9	-1	HERD	705	n/a	n/a	-1	n/a	n/a	n/a	n/a	n/a
1777.53	n/a	REC_WORD_VV	888765	wordpools/wasnorm_wordpool_less_exclusions.txt	LTP179	ltpFR	5	9	n/a	<>	-1	n/a	n/a	n/a	n/a	n/a	n/a	n/a	n/a
1783.296	n/a	REC_WORD	891648	wordpools/wasnorm_wordpool_less_exclusions.txt	LTP179	ltpFR	5	9	-1	COOK	372	n/a	n/a	-1	n/a	n/a	n/a	n/a	n/a
1785.53	n/a	REC_WORD	892765	wordpools/wasnorm_wordpool_less_exclusions.txt	LTP179	ltpFR	5	9	-1	INFANT	737	n/a	n/a	-1	n/a	n/a	n/a	n/a	n/a
1797.554	n/a	REC_WORD	898777	wordpools/wasnorm_wordpool_less_exclusions.txt	LTP179	ltpFR	5	9	-1	VEHICLE	1553	n/a	n/a	-1	n/a	n/a	n/a	n/a	n/a
1819.57	n/a	REC_WORD	909785	wordpools/wasnorm_wordpool_less_exclusions.txt	LTP179	ltpFR	5	9	0	DAM	436	n/a	n/a	1	n/a	n/a	n/a	n/a	n/a
1833.548	n/a	WORD	916774	wordpools/wasnorm_wordpool_less_exclusions.txt	LTP179	ltpFR	5	10	-1	LOG	841	n/a	n/a	-1	1.0	1.0	1	upper	Verdana.ttf
1837.396	n/a	WORD	918698	wordpools/wasnorm_wordpool_less_exclusions.txt	LTP179	ltpFR	5	10	-1	LOFT	840	n/a	n/a	-1	1.0	1.0	1	upper	Verdana.ttf
1841.512	n/a	WORD	920756	wordpools/wasnorm_wordpool_less_exclusions.txt	LTP179	ltpFR	5	10	-1	CHOCOLATE	306	n/a	n/a	-1	1.0	1.0	1	upper	Verdana.ttf
1845.694	n/a	WORD	922847	wordpools/wasnorm_wordpool_less_exclusions.txt	LTP179	ltpFR	5	10	-1	PUDDING	1139	n/a	n/a	-1	1.0	1.0	1	upper	Verdana.ttf
1849.676	n/a	WORD	924838	wordpools/wasnorm_wordpool_less_exclusions.txt	LTP179	ltpFR	5	10	-1	POLICE	1098	n/a	n/a	-1	1.0	1.0	1	upper	Verdana.ttf
1853.558	n/a	WORD	926779	wordpools/wasnorm_wordpool_less_exclusions.txt	LTP179	ltpFR	5	10	-1	PISTON	1076	n/a	n/a	-1	1.0	1.0	1	upper	Verdana.ttf
1857.592	n/a	WORD	928796	wordpools/wasnorm_wordpool_less_exclusions.txt	LTP179	ltpFR	5	10	-1	STICKER	1382	n/a	n/a	-1	1.0	1.0	1	upper	Verdana.ttf
1861.688	n/a	WORD	930844	wordpools/wasnorm_wordpool_less_exclusions.txt	LTP179	ltpFR	5	10	-1	DISH	474	n/a	n/a	-1	1.0	1.0	1	upper	Verdana.ttf
1865.686	n/a	WORD	932843	wordpools/wasnorm_wordpool_less_exclusions.txt	LTP179	ltpFR	5	10	-1	SOAP	1337	n/a	n/a	-1	1.0	1.0	1	upper	Verdana.ttf
1869.87	n/a	WORD	934935	wordpools/wasnorm_wordpool_less_exclusions.txt	LTP179	ltpFR	5	10	-1	FACTORY	548	n/a	n/a	-1	1.0	1.0	1	upper	Verdana.ttf
1874.052	n/a	WORD	937026	wordpools/wasnorm_wordpool_less_exclusions.txt	LTP179	ltpFR	5	10	-1	YACHT	1629	n/a	n/a	-1	1.0	1.0	1	upper	Verdana.ttf
1877.952	n/a	WORD	938976	wordpools/wasnorm_wordpool_less_exclusions.txt	LTP179	ltpFR	5	10	-1	DOLPHIN	483	n/a	n/a	-1	1.0	1.0	1	upper	Verdana.ttf
1881.816	n/a	WORD	940908	wordpools/wasnorm_wordpool_less_exclusions.txt	LTP179	ltpFR	5	10	-1	EMPLOYER	532	n/a	n/a	-1	1.0	1.0	1	upper	Verdana.ttf
1885.884	n/a	WORD	942942	wordpools/wasnorm_wordpool_less_exclusions.txt	LTP179	ltpFR	5	10	-1	BRACELET	163	n/a	n/a	-1	1.0	1.0	1	upper	Verdana.ttf
1890.03	n/a	WORD	945015	wordpools/wasnorm_wordpool_less_exclusions.txt	LTP179	ltpFR	5	10	-1	OCEAN	970	n/a	n/a	-1	1.0	1.0	1	upper	Verdana.ttf
1893.946	n/a	WORD	946973	wordpools/wasnorm_wordpool_less_exclusions.txt	LTP179	ltpFR	5	10	-1	DECK	443	n/a	n/a	-1	1.0	1.0	1	upper	Verdana.ttf
1899.718	n/a	REC_START	949859	n/a	LTP179	ltpFR	5	10	n/a	n/a	n/a	n/a	n/a	n/a	n/a	n/a	n/a	n/a	n/a
1901.03	n/a	REC_WORD	950515	wordpools/wasnorm_wordpool_less_exclusions.txt	LTP179	ltpFR	5	10	-1	OCEAN	970	n/a	n/a	-1	n/a	n/a	n/a	n/a	n/a
1903.12	n/a	REC_WORD	951560	wordpools/wasnorm_wordpool_less_exclusions.txt	LTP179	ltpFR	5	10	-1	DECK	443	n/a	n/a	-1	n/a	n/a	n/a	n/a	n/a
1905.69	n/a	REC_WORD	952845	wordpools/wasnorm_wordpool_less_exclusions.txt	LTP179	ltpFR	5	10	-1	CHOCOLATE	306	n/a	n/a	-1	n/a	n/a	n/a	n/a	n/a
1907.756	n/a	REC_WORD	953878	wordpools/wasnorm_wordpool_less_exclusions.txt	LTP179	ltpFR	5	10	-1	PUDDING	1139	n/a	n/a	-1	n/a	n/a	n/a	n/a	n/a
1909.94	n/a	REC_WORD	954970	wordpools/wasnorm_wordpool_less_exclusions.txt	LTP179	ltpFR	5	10	-1	LOG	841	n/a	n/a	-1	n/a	n/a	n/a	n/a	n/a
1913.338	n/a	REC_WORD	956669	wordpools/wasnorm_wordpool_less_exclusions.txt	LTP179	ltpFR	5	10	-1	LOFT	840	n/a	n/a	-1	n/a	n/a	n/a	n/a	n/a
1919.126	n/a	REC_WORD	959563	wordpools/wasnorm_wordpool_less_exclusions.txt	LTP179	ltpFR	5	10	-1	POLICE	1098	n/a	n/a	-1	n/a	n/a	n/a	n/a	n/a
1926.104	n/a	REC_WORD	963052	wordpools/wasnorm_wordpool_less_exclusions.txt	LTP179	ltpFR	5	10	-1	BRACELET	163	n/a	n/a	-1	n/a	n/a	n/a	n/a	n/a
1930.8	n/a	REC_WORD	965400	wordpools/wasnorm_wordpool_less_exclusions.txt	LTP179	ltpFR	5	10	-1	DECK	443	n/a	n/a	-1	n/a	n/a	n/a	n/a	n/a
1933.12	n/a	REC_WORD	966560	wordpools/wasnorm_wordpool_less_exclusions.txt	LTP179	ltpFR	5	10	-1	OCEAN	970	n/a	n/a	-1	n/a	n/a	n/a	n/a	n/a
1940.104	n/a	REC_WORD	970052	wordpools/wasnorm_wordpool_less_exclusions.txt	LTP179	ltpFR	5	10	-1	PISTON	1076	n/a	n/a	-1	n/a	n/a	n/a	n/a	n/a
1943.076	n/a	REC_WORD	971538	wordpools/wasnorm_wordpool_less_exclusions.txt	LTP179	ltpFR	5	10	-1	YACHT	1629	n/a	n/a	-1	n/a	n/a	n/a	n/a	n/a
1954.526	n/a	REC_WORD	977263	wordpools/wasnorm_wordpool_less_exclusions.txt	LTP179	ltpFR	5	10	1	KITCHEN	778	n/a	n/a	0	n/a	n/a	n/a	n/a	n/a
2003.782	n/a	WORD	1001891	wordpools/wasnorm_wordpool_less_exclusions.txt	LTP179	ltpFR	5	11	1	PENNY	1045	n/a	n/a	0	0.57763671875	0.412841796875	1	upper	amplitud.ttf
2007.764	n/a	WORD	1003882	wordpools/wasnorm_wordpool_less_exclusions.txt	LTP179	ltpFR	5	11	1	HANDBAG	684	n/a	n/a	0	0.57763671875	0.412841796875	1	upper	amplitud.ttf
2011.864	n/a	WORD	1005932	wordpools/wasnorm_wordpool_less_exclusions.txt	LTP179	ltpFR	5	11	1	CHEF	290	n/a	n/a	1	0.57763671875	0.412841796875	1	upper	amplitud.ttf
2015.884	n/a	WORD	1007942	wordpools/wasnorm_wordpool_less_exclusions.txt	LTP179	ltpFR	5	11	1	REEF	1177	n/a	n/a	1	0.57763671875	0.412841796875	1	upper	amplitud.ttf
2019.862	n/a	WORD	1009931	wordpools/wasnorm_wordpool_less_exclusions.txt	LTP179	ltpFR	5	11	1	QUAIL	1147	n/a	n/a	1	0.57763671875	0.412841796875	1	upper	amplitud.ttf
2023.876	n/a	WORD	1011938	wordpools/wasnorm_wordpool_less_exclusions.txt	LTP179	ltpFR	5	11	1	WASHER	1592	n/a	n/a	0	0.57763671875	0.412841796875	1	upper	amplitud.ttf
2028.058	n/a	WORD	1014029	wordpools/wasnorm_wordpool_less_exclusions.txt	LTP179	ltpFR	5	11	1	PEANUT	1032	n/a	n/a	1	0.57763671875	0.412841796875	1	upper	amplitud.ttf
2032.24	n/a	WORD	1016120	wordpools/wasnorm_wordpool_less_exclusions.txt	LTP179	ltpFR	5	11	1	SIREN	1310	n/a	n/a	0	0.57763671875	0.412841796875	1	upper	amplitud.ttf
2036.422	n/a	WORD	1018211	wordpools/wasnorm_wordpool_less_exclusions.txt	LTP179	ltpFR	5	11	1	IGLOO	734	n/a	n/a	0	0.57763671875	0.412841796875	1	upper	amplitud.ttf
2040.606	n/a	WORD	1020303	wordpools/wasnorm_wordpool_less_exclusions.txt	LTP179	ltpFR	5	11	1	SPONGE	1355	n/a	n/a	1	0.57763671875	0.412841796875	1	upper	amplitud.ttf
2044.772	n/a	WORD	1022386	wordpools/wasnorm_wordpool_less_exclusions.txt	LTP179	ltpFR	5	11	1	BUTTER	205	n/a	n/a	0	0.57763671875	0.412841796875	1	upper	amplitud.ttf
2048.72	n/a	WORD	1024360	wordpools/wasnorm_wordpool_less_exclusions.txt	LTP179	ltpFR	5	11	1	BISCUIT	130	n/a	n/a	1	0.57763671875	0.412841796875	1	upper	amplitud.ttf
2052.886	n/a	WORD	1026443	wordpools/wasnorm_wordpool_less_exclusions.txt	LTP179	ltpFR	5	11	1	CORAL	378	n/a	n/a	1	0.57763671875	0.412841796875	1	upper	amplitud.ttf
2056.75	n/a	WORD	1028375	wordpools/wasnorm_wordpool_less_exclusions.txt	LTP179	ltpFR	5	11	1	MERMAID	887	n/a	n/a	0	0.57763671875	0.412841796875	1	upper	amplitud.ttf
2060.75	n/a	WORD	1030375	wordpools/wasnorm_wordpool_less_exclusions.txt	LTP179	ltpFR	5	11	1	SWAN	1417	n/a	n/a	1	0.57763671875	0.412841796875	1	upper	amplitud.ttf
2064.714	n/a	WORD	1032357	wordpools/wasnorm_wordpool_less_exclusions.txt	LTP179	ltpFR	5	11	1	PRAIRIE	1118	n/a	n/a	1	0.57763671875	0.412841796875	1	upper	amplitud.ttf
2070.672	n/a	REC_START	1035336	n/a	LTP179	ltpFR	5	11	n/a	n/a	n/a	n/a	n/a	n/a	n/a	n/a	n/a	n/a	n/a
2072.014	n/a	REC_WORD	1036007	wordpools/wasnorm_wordpool_less_exclusions.txt	LTP179	ltpFR	5	11	1	PRAIRIE	1118	n/a	n/a	1	n/a	n/a	n/a	n/a	n/a
2075.36	n/a	REC_WORD	1037680	wordpools/wasnorm_wordpool_less_exclusions.txt	LTP179	ltpFR	5	11	1	MERMAID	887	n/a	n/a	0	n/a	n/a	n/a	n/a	n/a
2077.516	n/a	REC_WORD	1038758	wordpools/wasnorm_wordpool_less_exclusions.txt	LTP179	ltpFR	5	11	1	SWAN	1417	n/a	n/a	1	n/a	n/a	n/a	n/a	n/a
2080.594	n/a	REC_WORD	1040297	wordpools/wasnorm_wordpool_less_exclusions.txt	LTP179	ltpFR	5	11	1	REEF	1177	n/a	n/a	1	n/a	n/a	n/a	n/a	n/a
2083.054	n/a	REC_WORD	1041527	wordpools/wasnorm_wordpool_less_exclusions.txt	LTP179	ltpFR	5	11	1	CORAL	378	n/a	n/a	1	n/a	n/a	n/a	n/a	n/a
2099.672	n/a	REC_WORD	1049836	wordpools/wasnorm_wordpool_less_exclusions.txt	LTP179	ltpFR	5	11	1	SIREN	1310	n/a	n/a	0	n/a	n/a	n/a	n/a	n/a
2104.232	n/a	REC_WORD	1052116	wordpools/wasnorm_wordpool_less_exclusions.txt	LTP179	ltpFR	5	11	1	BISCUIT	130	n/a	n/a	1	n/a	n/a	n/a	n/a	n/a
2111.864	n/a	REC_WORD	1055932	wordpools/wasnorm_wordpool_less_exclusions.txt	LTP179	ltpFR	5	11	1	PRAIRIE	1118	n/a	n/a	1	n/a	n/a	n/a	n/a	n/a
2125.02	n/a	REC_WORD	1062510	wordpools/wasnorm_wordpool_less_exclusions.txt	LTP179	ltpFR	5	11	1	CHEF	290	n/a	n/a	1	n/a	n/a	n/a	n/a	n/a
2127.4	n/a	REC_WORD	1063700	wordpools/wasnorm_wordpool_less_exclusions.txt	LTP179	ltpFR	5	11	1	QUAIL	1147	n/a	n/a	1	n/a	n/a	n/a	n/a	n/a
2138.6	n/a	REC_WORD	1069300	wordpools/wasnorm_wordpool_less_exclusions.txt	LTP179	ltpFR	5	11	-1	SOAP	1337	n/a	n/a	-1	n/a	n/a	n/a	n/a	n/a
2140.692	n/a	REC_WORD	1070346	wordpools/wasnorm_wordpool_less_exclusions.txt	LTP179	ltpFR	5	11	-1	DISH	474	n/a	n/a	-1	n/a	n/a	n/a	n/a	n/a
2154.676	n/a	WORD	1077338	wordpools/wasnorm_wordpool_less_exclusions.txt	LTP179	ltpFR	5	12	0	LITTER	832	n/a	n/a	1	0.422607421875	0.5869140625	0	lower	zerothre.ttf
2158.794	n/a	WORD	1079397	wordpools/wasnorm_wordpool_less_exclusions.txt	LTP179	ltpFR	5	12	0	CHIPMUNK	304	n/a	n/a	0	0.422607421875	0.5869140625	0	lower	zerothre.ttf
2162.956	n/a	WORD	1081478	wordpools/wasnorm_wordpool_less_exclusions.txt	LTP179	ltpFR	5	12	1	COUGAR	387	n/a	n/a	1	0.57763671875	0.412841796875	1	upper	amplitud.ttf
2166.892	n/a	WORD	1083446	wordpools/wasnorm_wordpool_less_exclusions.txt	LTP179	ltpFR	5	12	1	HIGHWAY	707	n/a	n/a	0	0.57763671875	0.412841796875	1	upper	amplitud.ttf
2170.852	n/a	WORD	1085426	wordpools/wasnorm_wordpool_less_exclusions.txt	LTP179	ltpFR	5	12	1	FLOOR	581	n/a	n/a	0	0.57763671875	0.412841796875	1	upper	amplitud.ttf
2174.852	n/a	WORD	1087426	wordpools/wasnorm_wordpool_less_exclusions.txt	LTP179	ltpFR	5	12	1	GROUND	666	n/a	n/a	1	0.57763671875	0.412841796875	1	upper	amplitud.ttf
2178.952	n/a	WORD	1089476	wordpools/wasnorm_wordpool_less_exclusions.txt	LTP179	ltpFR	5	12	1	PARIS	1014	n/a	n/a	0	0.57763671875	0.412841796875	1	upper	amplitud.ttf
2182.85	n/a	WORD	1091425	wordpools/wasnorm_wordpool_less_exclusions.txt	LTP179	ltpFR	5	12	0	WALNUT	1584	n/a	n/a	0	0.422607421875	0.5869140625	0	lower	zerothre.ttf
2186.696	n/a	WORD	1093348	wordpools/wasnorm_wordpool_less_exclusions.txt	LTP179	ltpFR	5	12	0	PELICAN	1039	n/a	n/a	1	0.422607421875	0.5869140625	0	lower	zerothre.ttf
2190.898	n/a	WORD	1095449	wordpools/wasnorm_wordpool_less_exclusions.txt	LTP179	ltpFR	5	12	0	CRICKET	408	n/a	n/a	0	0.422607421875	0.5869140625	0	lower	zerothre.ttf
2194.796	n/a	WORD	1097398	wordpools/wasnorm_wordpool_less_exclusions.txt	LTP179	ltpFR	5	12	0	DILL	465	n/a	n/a	0	0.422607421875	0.5869140625	0	lower	zerothre.ttf
2198.814	n/a	WORD	1099407	wordpools/wasnorm_wordpool_less_exclusions.txt	LTP179	ltpFR	5	12	1	FEATHER	557	n/a	n/a	1	0.57763671875	0.412841796875	1	upper	amplitud.ttf
2202.744	n/a	WORD	1101372	wordpools/wasnorm_wordpool_less_exclusions.txt	LTP179	ltpFR	5	12	1	LONDON	843	n/a	n/a	0	0.57763671875	0.412841796875	1	upper	amplitud.ttf
2206.858	n/a	WORD	1103429	wordpools/wasnorm_wordpool_less_exclusions.txt	LTP179	ltpFR	5	12	1	MOTH	920	n/a	n/a	1	0.57763671875	0.412841796875	1	upper	amplitud.ttf
2211.058	n/a	WORD	1105529	wordpools/wasnorm_wordpool_less_exclusions.txt	LTP179	ltpFR	5	12	0	MANSION	864	n/a	n/a	1	0.422607421875	0.5869140625	0	lower	zerothre.ttf
2215.04	n/a	WORD	1107520	wordpools/wasnorm_wordpool_less_exclusions.txt	LTP179	ltpFR	5	12	0	CABIN	211	n/a	n/a	1	0.422607421875	0.5869140625	0	lower	zerothre.ttf
2220.912	n/a	REC_START	1110456	n/a	LTP179	ltpFR	5	12	n/a	n/a	n/a	n/a	n/a	n/a	n/a	n/a	n/a	n/a	n/a
2224.274	n/a	REC_WORD	1112137	wordpools/wasnorm_wordpool_less_exclusions.txt	LTP179	ltpFR	5	12	1	LONDON	843	n/a	n/a	0	n/a	n/a	n/a	n/a	n/a
2226.33	n/a	REC_WORD	1113165	wordpools/wasnorm_wordpool_less_exclusions.txt	LTP179	ltpFR	5	12	1	PARIS	1014	n/a	n/a	0	n/a	n/a	n/a	n/a	n/a
2233.974	n/a	REC_WORD	1116987	wordpools/wasnorm_wordpool_less_exclusions.txt	LTP179	ltpFR	5	12	1	HIGHWAY	707	n/a	n/a	0	n/a	n/a	n/a	n/a	n/a
2260.18	n/a	REC_WORD_VV	1130090	wordpools/wasnorm_wordpool_less_exclusions.txt	LTP179	ltpFR	5	12	n/a	<>	-1	n/a	n/a	n/a	n/a	n/a	n/a	n/a	n/a
2268.198	n/a	REC_WORD	1134099	wordpools/wasnorm_wordpool_less_exclusions.txt	LTP179	ltpFR	5	12	1	MERMAID	887	n/a	n/a	0	n/a	n/a	n/a	n/a	n/a
2283.164	n/a	REC_WORD	1141582	wordpools/wasnorm_wordpool_less_exclusions.txt	LTP179	ltpFR	5	12	0	LITTER	832	n/a	n/a	1	n/a	n/a	n/a	n/a	n/a
2289.77	n/a	REC_WORD	1144885	wordpools/wasnorm_wordpool_less_exclusions.txt	LTP179	ltpFR	5	12	0	CHIPMUNK	304	n/a	n/a	0	n/a	n/a	n/a	n/a	n/a
2296.536	n/a	REST_REWET	1148268	n/a	LTP179	ltpFR	5	12	n/a	n/a	n/a	n/a	n/a	n/a	n/a	n/a	n/a	n/a	n/a
2619.05	n/a	WORD	1309525	wordpools/wasnorm_wordpool_less_exclusions.txt	LTP179	ltpFR	5	13	-1	OFFICER	973	n/a	n/a	-1	1.0	1.0	1	upper	Verdana.ttf
2623.216	n/a	WORD	1311608	wordpools/wasnorm_wordpool_less_exclusions.txt	LTP179	ltpFR	5	13	-1	AGENT	10	n/a	n/a	-1	1.0	1.0	1	upper	Verdana.ttf
2627.148	n/a	WORD	1313574	wordpools/wasnorm_wordpool_less_exclusions.txt	LTP179	ltpFR	5	13	-1	BRUNETTE	181	n/a	n/a	-1	1.0	1.0	1	upper	Verdana.ttf
2631.162	n/a	WORD	1315581	wordpools/wasnorm_wordpool_less_exclusions.txt	LTP179	ltpFR	5	13	-1	ROOT	1210	n/a	n/a	-1	1.0	1.0	1	upper	Verdana.ttf
2635.244	n/a	WORD	1317622	wordpools/wasnorm_wordpool_less_exclusions.txt	LTP179	ltpFR	5	13	-1	YARD	1630	n/a	n/a	-1	1.0	1.0	1	upper	Verdana.ttf
2639.294	n/a	WORD	1319647	wordpools/wasnorm_wordpool_less_exclusions.txt	LTP179	ltpFR	5	13	-1	GRASS	655	n/a	n/a	-1	1.0	1.0	1	upper	Verdana.ttf
2643.344	n/a	WORD	1321672	wordpools/wasnorm_wordpool_less_exclusions.txt	LTP179	ltpFR	5	13	-1	BARLEY	88	n/a	n/a	-1	1.0	1.0	1	upper	Verdana.ttf
2647.19	n/a	WORD	1323595	wordpools/wasnorm_wordpool_less_exclusions.txt	LTP179	ltpFR	5	13	-1	NEPHEW	942	n/a	n/a	-1	1.0	1.0	1	upper	Verdana.ttf
2651.29	n/a	WORD	1325645	wordpools/wasnorm_wordpool_less_exclusions.txt	LTP179	ltpFR	5	13	-1	DIRECTOR	471	n/a	n/a	-1	1.0	1.0	1	upper	Verdana.ttf
2655.138	n/a	WORD	1327569	wordpools/wasnorm_wordpool_less_exclusions.txt	LTP179	ltpFR	5	13	-1	VINEGAR	1569	n/a	n/a	-1	1.0	1.0	1	upper	Verdana.ttf
2659.286	n/a	WORD	1329643	wordpools/wasnorm_wordpool_less_exclusions.txt	LTP179	ltpFR	5	13	-1	RADIATOR	1156	n/a	n/a	-1	1.0	1.0	1	upper	Verdana.ttf
2663.286	n/a	WORD	1331643	wordpools/wasnorm_wordpool_less_exclusions.txt	LTP179	ltpFR	5	13	-1	TOURIST	1488	n/a	n/a	-1	1.0	1.0	1	upper	Verdana.ttf
2667.116	n/a	WORD	1333558	wordpools/wasnorm_wordpool_less_exclusions.txt	LTP179	ltpFR	5	13	-1	RICE	1190	n/a	n/a	-1	1.0	1.0	1	upper	Verdana.ttf
2671.036	n/a	WORD	1335518	wordpools/wasnorm_wordpool_less_exclusions.txt	LTP179	ltpFR	5	13	-1	CONSUMER	365	n/a	n/a	-1	1.0	1.0	1	upper	Verdana.ttf
2675.098	n/a	WORD	1337549	wordpools/wasnorm_wordpool_less_exclusions.txt	LTP179	ltpFR	5	13	-1	ACORN	3	n/a	n/a	-1	1.0	1.0	1	upper	Verdana.ttf
2678.928	n/a	WORD	1339464	wordpools/wasnorm_wordpool_less_exclusions.txt	LTP179	ltpFR	5	13	-1	DOLLAR	482	n/a	n/a	-1	1.0	1.0	1	upper	Verdana.ttf
2684.97	n/a	REC_START	1342485	n/a	LTP179	ltpFR	5	13	n/a	n/a	n/a	n/a	n/a	n/a	n/a	n/a	n/a	n/a	n/a
2686.68	n/a	REC_WORD	1343340	wordpools/wasnorm_wordpool_less_exclusions.txt	LTP179	ltpFR	5	13	-1	YARD	1630	n/a	n/a	-1	n/a	n/a	n/a	n/a	n/a
2691.264	n/a	REC_WORD	1345632	wordpools/wasnorm_wordpool_less_exclusions.txt	LTP179	ltpFR	5	13	-1	BARLEY	88	n/a	n/a	-1	n/a	n/a	n/a	n/a	n/a
2693.06	n/a	REC_WORD	1346530	wordpools/wasnorm_wordpool_less_exclusions.txt	LTP179	ltpFR	5	13	-1	RICE	1190	n/a	n/a	-1	n/a	n/a	n/a	n/a	n/a
2696.568	n/a	REC_WORD	1348284	wordpools/wasnorm_wordpool_less_exclusions.txt	LTP179	ltpFR	5	13	-1	ROOT	1210	n/a	n/a	-1	n/a	n/a	n/a	n/a	n/a
2699.342	n/a	REC_WORD	1349671	wordpools/wasnorm_wordpool_less_exclusions.txt	LTP179	ltpFR	5	13	-1	BRUNETTE	181	n/a	n/a	-1	n/a	n/a	n/a	n/a	n/a
2702.236	n/a	REC_WORD	1351118	wordpools/wasnorm_wordpool_less_exclusions.txt	LTP179	ltpFR	5	13	-1	OFFICER	973	n/a	n/a	-1	n/a	n/a	n/a	n/a	n/a
2705.354	n/a	REC_WORD	1352677	wordpools/wasnorm_wordpool_less_exclusions.txt	LTP179	ltpFR	5	13	-1	EMPLOYER	532	n/a	n/a	-1	n/a	n/a	n/a	n/a	n/a
2725.578	n/a	REC_WORD	1362789	wordpools/wasnorm_wordpool_less_exclusions.txt	LTP179	ltpFR	5	13	-1	GRASS	655	n/a	n/a	-1	n/a	n/a	n/a	n/a	n/a
2767.718	n/a	WORD	1383859	wordpools/wasnorm_wordpool_less_exclusions.txt	LTP179	ltpFR	5	14	1	SCARECROW	1245	n/a	n/a	0	0.57763671875	0.412841796875	1	upper	amplitud.ttf
2771.766	n/a	WORD	1385883	wordpools/wasnorm_wordpool_less_exclusions.txt	LTP179	ltpFR	5	14	1	LUNG	850	n/a	n/a	1	0.57763671875	0.412841796875	1	upper	amplitud.ttf
2775.782	n/a	WORD	1387891	wordpools/wasnorm_wordpool_less_exclusions.txt	LTP179	ltpFR	5	14	1	BERRY	122	n/a	n/a	1	0.57763671875	0.412841796875	1	upper	amplitud.ttf
2779.948	n/a	WORD	1389974	wordpools/wasnorm_wordpool_less_exclusions.txt	LTP179	ltpFR	5	14	1	DESIGNER	451	n/a	n/a	1	0.57763671875	0.412841796875	1	upper	amplitud.ttf
2783.796	n/a	WORD	1391898	wordpools/wasnorm_wordpool_less_exclusions.txt	LTP179	ltpFR	5	14	1	FARMER	553	n/a	n/a	1	0.57763671875	0.412841796875	1	upper	amplitud.ttf
2787.66	n/a	WORD	1393830	wordpools/wasnorm_wordpool_less_exclusions.txt	LTP179	ltpFR	5	14	1	FRUIT	610	n/a	n/a	1	0.57763671875	0.412841796875	1	upper	amplitud.ttf
2791.626	n/a	WORD	1395813	wordpools/wasnorm_wordpool_less_exclusions.txt	LTP179	ltpFR	5	14	0	SKIRT	1319	n/a	n/a	0	0.422607421875	0.5869140625	0	lower	zerothre.ttf
2795.676	n/a	WORD	1397838	wordpools/wasnorm_wordpool_less_exclusions.txt	LTP179	ltpFR	5	14	0	PANTS	1010	n/a	n/a	0	0.422607421875	0.5869140625	0	lower	zerothre.ttf
2799.874	n/a	WORD	1399937	wordpools/wasnorm_wordpool_less_exclusions.txt	LTP179	ltpFR	5	14	0	FOE	587	n/a	n/a	1	0.422607421875	0.5869140625	0	lower	zerothre.ttf
2804.09	n/a	WORD	1402045	wordpools/wasnorm_wordpool_less_exclusions.txt	LTP179	ltpFR	5	14	0	ENEMY	534	n/a	n/a	1	0.422607421875	0.5869140625	0	lower	zerothre.ttf
2808.228	n/a	WORD	1404114	wordpools/wasnorm_wordpool_less_exclusions.txt	LTP179	ltpFR	5	14	1	APRON	35	n/a	n/a	0	0.57763671875	0.412841796875	1	upper	amplitud.ttf
2812.174	n/a	WORD	1406087	wordpools/wasnorm_wordpool_less_exclusions.txt	LTP179	ltpFR	5	14	1	SCROLL	1257	n/a	n/a	0	0.57763671875	0.412841796875	1	upper	amplitud.ttf
2816.17	n/a	WORD	1408085	wordpools/wasnorm_wordpool_less_exclusions.txt	LTP179	ltpFR	5	14	0	RECEPTIONIST	1174	n/a	n/a	1	0.422607421875	0.5869140625	0	lower	zerothre.ttf
2820.084	n/a	WORD	1410042	wordpools/wasnorm_wordpool_less_exclusions.txt	LTP179	ltpFR	5	14	0	MINK	897	n/a	n/a	1	0.422607421875	0.5869140625	0	lower	zerothre.ttf
2824.068	n/a	WORD	1412034	wordpools/wasnorm_wordpool_less_exclusions.txt	LTP179	ltpFR	5	14	0	CONVENT	370	n/a	n/a	1	0.422607421875	0.5869140625	0	lower	zerothre.ttf
2828.248	n/a	WORD	1414124	wordpools/wasnorm_wordpool_less_exclusions.txt	LTP179	ltpFR	5	14	0	SHELF	1280	n/a	n/a	1	0.422607421875	0.5869140625	0	lower	zerothre.ttf
2833.822	n/a	REC_START	1416911	n/a	LTP179	ltpFR	5	14	n/a	n/a	n/a	n/a	n/a	n/a	n/a	n/a	n/a	n/a	n/a
2835.682	n/a	REC_WORD	1417841	wordpools/wasnorm_wordpool_less_exclusions.txt	LTP179	ltpFR	5	14	0	RECEPTIONIST	1174	n/a	n/a	1	n/a	n/a	n/a	n/a	n/a
2836.682	n/a	REC_WORD_VV	1418341	wordpools/wasnorm_wordpool_less_exclusions.txt	LTP179	ltpFR	5	14	n/a	<>	-1	n/a	n/a	n/a	n/a	n/a	n/a	n/a	n/a
2838.346	n/a	REC_WORD	1419173	wordpools/wasnorm_wordpool_less_exclusions.txt	LTP179	ltpFR	5	14	0	SHELF	1280	n/a	n/a	1	n/a	n/a	n/a	n/a	n/a
2840.71	n/a	REC_WORD	1420355	wordpools/wasnorm_wordpool_less_exclusions.txt	LTP179	ltpFR	5	14	0	MINK	897	n/a	n/a	1	n/a	n/a	n/a	n/a	n/a
2849.152	n/a	REC_WORD	1424576	wordpools/wasnorm_wordpool_less_exclusions.txt	LTP179	ltpFR	5	14	1	APRON	35	n/a	n/a	0	n/a	n/a	n/a	n/a	n/a
2897.394	n/a	REC_WORD	1448697	wordpools/wasnorm_wordpool_less_exclusions.txt	LTP179	ltpFR	5	14	1	LUNG	850	n/a	n/a	1	n/a	n/a	n/a	n/a	n/a
2923.312	n/a	WORD	1461656	wordpools/wasnorm_wordpool_less_exclusions.txt	LTP179	ltpFR	5	15	1	TOAST	1471	n/a	n/a	0	0.57763671875	0.412841796875	1	upper	amplitud.ttf
2927.518	n/a	WORD	1463759	wordpools/wasnorm_wordpool_less_exclusions.txt	LTP179	ltpFR	5	15	1	TOENAIL	1474	n/a	n/a	1	0.57763671875	0.412841796875	1	upper	amplitud.ttf
2931.376	n/a	WORD	1465688	wordpools/wasnorm_wordpool_less_exclusions.txt	LTP179	ltpFR	5	15	1	KNUCKLE	789	n/a	n/a	1	0.57763671875	0.412841796875	1	upper	amplitud.ttf
2935.292	n/a	WORD	1467646	wordpools/wasnorm_wordpool_less_exclusions.txt	LTP179	ltpFR	5	15	1	FLASK	576	n/a	n/a	0	0.57763671875	0.412841796875	1	upper	amplitud.ttf
2939.458	n/a	WORD	1469729	wordpools/wasnorm_wordpool_less_exclusions.txt	LTP179	ltpFR	5	15	0	CREEK	404	n/a	n/a	1	0.422607421875	0.5869140625	0	lower	zerothre.ttf
2943.492	n/a	WORD	1471746	wordpools/wasnorm_wordpool_less_exclusions.txt	LTP179	ltpFR	5	15	0	WAGON	1578	n/a	n/a	1	0.422607421875	0.5869140625	0	lower	zerothre.ttf
2947.522	n/a	WORD	1473761	wordpools/wasnorm_wordpool_less_exclusions.txt	LTP179	ltpFR	5	15	0	WOMAN	1620	n/a	n/a	1	0.422607421875	0.5869140625	0	lower	zerothre.ttf
2951.504	n/a	WORD	1475752	wordpools/wasnorm_wordpool_less_exclusions.txt	LTP179	ltpFR	5	15	0	GENTLEMAN	631	n/a	n/a	1	0.422607421875	0.5869140625	0	lower	zerothre.ttf
2955.352	n/a	WORD	1477676	wordpools/wasnorm_wordpool_less_exclusions.txt	LTP179	ltpFR	5	15	0	ATOM	55	n/a	n/a	0	0.422607421875	0.5869140625	0	lower	zerothre.ttf
2959.552	n/a	WORD	1479776	wordpools/wasnorm_wordpool_less_exclusions.txt	LTP179	ltpFR	5	15	0	PIG	1064	n/a	n/a	1	0.422607421875	0.5869140625	0	lower	zerothre.ttf
2963.718	n/a	WORD	1481859	wordpools/wasnorm_wordpool_less_exclusions.txt	LTP179	ltpFR	5	15	1	PUBLISHER	1137	n/a	n/a	1	0.57763671875	0.412841796875	1	upper	amplitud.ttf
2967.916	n/a	WORD	1483958	wordpools/wasnorm_wordpool_less_exclusions.txt	LTP179	ltpFR	5	15	1	STAGE	1366	n/a	n/a	0	0.57763671875	0.412841796875	1	upper	amplitud.ttf
2971.898	n/a	WORD	1485949	wordpools/wasnorm_wordpool_less_exclusions.txt	LTP179	ltpFR	5	15	0	BALL	73	n/a	n/a	0	0.422607421875	0.5869140625	0	lower	zerothre.ttf
2975.864	n/a	WORD	1487932	wordpools/wasnorm_wordpool_less_exclusions.txt	LTP179	ltpFR	5	15	0	LOAF	835	n/a	n/a	0	0.422607421875	0.5869140625	0	lower	zerothre.ttf
2979.694	n/a	WORD	1489847	wordpools/wasnorm_wordpool_less_exclusions.txt	LTP179	ltpFR	5	15	1	VAN	1548	n/a	n/a	0	0.57763671875	0.412841796875	1	upper	amplitud.ttf
2983.728	n/a	WORD	1491864	wordpools/wasnorm_wordpool_less_exclusions.txt	LTP179	ltpFR	5	15	1	HOOP	716	n/a	n/a	0	0.57763671875	0.412841796875	1	upper	amplitud.ttf
2989.432	n/a	REC_START	1494716	n/a	LTP179	ltpFR	5	15	n/a	n/a	n/a	n/a	n/a	n/a	n/a	n/a	n/a	n/a	n/a
2991.298	n/a	REC_WORD	1495649	wordpools/wasnorm_wordpool_less_exclusions.txt	LTP179	ltpFR	5	15	1	VAN	1548	n/a	n/a	0	n/a	n/a	n/a	n/a	n/a
2993.482	n/a	REC_WORD	1496741	wordpools/wasnorm_wordpool_less_exclusions.txt	LTP179	ltpFR	5	15	1	HOOP	716	n/a	n/a	0	n/a	n/a	n/a	n/a	n/a
2997.134	n/a	REC_WORD	1498567	wordpools/wasnorm_wordpool_less_exclusions.txt	LTP179	ltpFR	5	15	0	WOMAN	1620	n/a	n/a	1	n/a	n/a	n/a	n/a	n/a
2999.386	n/a	REC_WORD	1499693	wordpools/wasnorm_wordpool_less_exclusions.txt	LTP179	ltpFR	5	15	0	GENTLEMAN	631	n/a	n/a	1	n/a	n/a	n/a	n/a	n/a
3001.76	n/a	REC_WORD	1500880	wordpools/wasnorm_wordpool_less_exclusions.txt	LTP179	ltpFR	5	15	0	PIG	1064	n/a	n/a	1	n/a	n/a	n/a	n/a	n/a
3003.746	n/a	REC_WORD	1501873	wordpools/wasnorm_wordpool_less_exclusions.txt	LTP179	ltpFR	5	15	1	PUBLISHER	1137	n/a	n/a	1	n/a	n/a	n/a	n/a	n/a
3079.66	n/a	WORD	1539830	wordpools/wasnorm_wordpool_less_exclusions.txt	LTP179	ltpFR	5	16	0	ZUCCHINI	1638	n/a	n/a	3	0.422607421875	0.5869140625	0	lower	zerothre.ttf
3081.434	n/a	KEY_MSG	1540717	n/a	LTP179	ltpFR	5	16	n/a	n/a	n/a	n/a	n/a	n/a	n/a	n/a	n/a	n/a	n/a
3084.144	n/a	WORD	1542072	wordpools/wasnorm_wordpool_less_exclusions.txt	LTP179	ltpFR	5	16	0	CHERRY	293	n/a	n/a	0	0.422607421875	0.5869140625	0	lower	zerothre.ttf
3088.21	n/a	WORD	1544105	wordpools/wasnorm_wordpool_less_exclusions.txt	LTP179	ltpFR	5	16	0	LAMB	797	n/a	n/a	1	0.422607421875	0.5869140625	0	lower	zerothre.ttf
3092.326	n/a	WORD	1546163	wordpools/wasnorm_wordpool_less_exclusions.txt	LTP179	ltpFR	5	16	0	STEM	1376	n/a	n/a	0	0.422607421875	0.5869140625	0	lower	zerothre.ttf
3096.374	n/a	WORD	1548187	wordpools/wasnorm_wordpool_less_exclusions.txt	LTP179	ltpFR	5	16	0	FELLOW	558	n/a	n/a	1	0.422607421875	0.5869140625	0	lower	zerothre.ttf
3100.39	n/a	WORD	1550195	wordpools/wasnorm_wordpool_less_exclusions.txt	LTP179	ltpFR	5	16	0	ROOMMATE	1207	n/a	n/a	1	0.422607421875	0.5869140625	0	lower	zerothre.ttf
3104.27	n/a	WORD	1552135	wordpools/wasnorm_wordpool_less_exclusions.txt	LTP179	ltpFR	5	16	0	TOMATO	1476	n/a	n/a	0	0.422607421875	0.5869140625	0	lower	zerothre.ttf
3108.218	n/a	WORD	1554109	wordpools/wasnorm_wordpool_less_exclusions.txt	LTP179	ltpFR	5	16	0	ORCHESTRA	981	n/a	n/a	1	0.422607421875	0.5869140625	0	lower	zerothre.ttf
3112.286	n/a	WORD	1556143	wordpools/wasnorm_wordpool_less_exclusions.txt	LTP179	ltpFR	5	16	0	OPERA	978	n/a	n/a	1	0.422607421875	0.5869140625	0	lower	zerothre.ttf
3116.216	n/a	WORD	1558108	wordpools/wasnorm_wordpool_less_exclusions.txt	LTP179	ltpFR	5	16	0	ELM	527	n/a	n/a	1	0.422607421875	0.5869140625	0	lower	zerothre.ttf
3120.236	n/a	WORD	1560118	wordpools/wasnorm_wordpool_less_exclusions.txt	LTP179	ltpFR	5	16	0	PLUM	1090	n/a	n/a	0	0.422607421875	0.5869140625	0	lower	zerothre.ttf
3124.264	n/a	WORD	1562132	wordpools/wasnorm_wordpool_less_exclusions.txt	LTP179	ltpFR	5	16	0	ASIA	46	n/a	n/a	1	0.422607421875	0.5869140625	0	lower	zerothre.ttf
3128.412	n/a	WORD	1564206	wordpools/wasnorm_wordpool_less_exclusions.txt	LTP179	ltpFR	5	16	0	CALF	222	n/a	n/a	1	0.422607421875	0.5869140625	0	lower	zerothre.ttf
3132.262	n/a	WORD	1566131	wordpools/wasnorm_wordpool_less_exclusions.txt	LTP179	ltpFR	5	16	0	ANTEATER	26	n/a	n/a	1	0.422607421875	0.5869140625	0	lower	zerothre.ttf
3136.16	n/a	WORD	1568080	wordpools/wasnorm_wordpool_less_exclusions.txt	LTP179	ltpFR	5	16	0	GALAXY	617	n/a	n/a	1	0.422607421875	0.5869140625	0	lower	zerothre.ttf
3140.276	n/a	WORD	1570138	wordpools/wasnorm_wordpool_less_exclusions.txt	LTP179	ltpFR	5	16	0	ROSE	1212	n/a	n/a	0	0.422607421875	0.5869140625	0	lower	zerothre.ttf
3145.88	n/a	REC_START	1572940	n/a	LTP179	ltpFR	5	16	n/a	n/a	n/a	n/a	n/a	n/a	n/a	n/a	n/a	n/a	n/a
3147.148	n/a	REC_WORD	1573574	wordpools/wasnorm_wordpool_less_exclusions.txt	LTP179	ltpFR	5	16	0	ROSE	1212	n/a	n/a	0	n/a	n/a	n/a	n/a	n/a
3148.614	n/a	REC_WORD	1574307	wordpools/wasnorm_wordpool_less_exclusions.txt	LTP179	ltpFR	5	16	0	STEM	1376	n/a	n/a	0	n/a	n/a	n/a	n/a	n/a
3150.894	n/a	REC_WORD	1575447	wordpools/wasnorm_wordpool_less_exclusions.txt	LTP179	ltpFR	5	16	0	ASIA	46	n/a	n/a	1	n/a	n/a	n/a	n/a	n/a
3152.99	n/a	REC_WORD	1576495	wordpools/wasnorm_wordpool_less_exclusions.txt	LTP179	ltpFR	5	16	0	GALAXY	617	n/a	n/a	1	n/a	n/a	n/a	n/a	n/a
3157.704	n/a	REC_WORD	1578852	wordpools/wasnorm_wordpool_less_exclusions.txt	LTP179	ltpFR	5	16	0	ORCHESTRA	981	n/a	n/a	1	n/a	n/a	n/a	n/a	n/a
3174.068	n/a	REC_WORD	1587034	wordpools/wasnorm_wordpool_less_exclusions.txt	LTP179	ltpFR	5	16	n/a	ELK	526	n/a	n/a	n/a	n/a	n/a	n/a	n/a	n/a
3179.076	n/a	REC_WORD	1589538	wordpools/wasnorm_wordpool_less_exclusions.txt	LTP179	ltpFR	5	16	0	ELM	527	n/a	n/a	1	n/a	n/a	n/a	n/a	n/a
3196.258	n/a	REC_WORD	1598129	wordpools/wasnorm_wordpool_less_exclusions.txt	LTP179	ltpFR	5	16	0	CHERRY	293	n/a	n/a	0	n/a	n/a	n/a	n/a	n/a
3199.896	n/a	REC_WORD	1599948	wordpools/wasnorm_wordpool_less_exclusions.txt	LTP179	ltpFR	5	16	0	ZUCCHINI	1638	n/a	n/a	3	n/a	n/a	n/a	n/a	n/a
3202.106	n/a	REC_WORD	1601053	wordpools/wasnorm_wordpool_less_exclusions.txt	LTP179	ltpFR	5	16	0	FELLOW	558	n/a	n/a	1	n/a	n/a	n/a	n/a	n/a
3207.22	n/a	REC_WORD	1603610	wordpools/wasnorm_wordpool_less_exclusions.txt	LTP179	ltpFR	5	16	0	ROOMMATE	1207	n/a	n/a	1	n/a	n/a	n/a	n/a	n/a
3220.126	n/a	REC_WORD	1610063	wordpools/wasnorm_wordpool_less_exclusions.txt	LTP179	ltpFR	5	16	0	CELLO	268	n/a	n/a	1	n/a	n/a	n/a	n/a	n/a
3258.478	n/a	REC_START	1629239	n/a	LTP179	ltpFR	5	n/a	n/a	n/a	n/a	n/a	n/a	n/a	n/a	n/a	n/a	n/a	n/a
3260.318	n/a	FFR_REC_WORD	1630159	wordpools/wasnorm_wordpool_less_exclusions.txt	LTP179	ltpFR	5	n/a	1	MECHANIC	884	n/a	n/a	1	n/a	n/a	n/a	n/a	n/a
3262.24	n/a	FFR_REC_WORD	1631120	wordpools/wasnorm_wordpool_less_exclusions.txt	LTP179	ltpFR	5	n/a	1	JEEP	753	n/a	n/a	0	n/a	n/a	n/a	n/a	n/a
3264.474	n/a	FFR_REC_WORD	1632237	wordpools/wasnorm_wordpool_less_exclusions.txt	LTP179	ltpFR	5	n/a	0	LIEUTENANT	818	n/a	n/a	1	n/a	n/a	n/a	n/a	n/a
3267.952	n/a	FFR_REC_WORD	1633976	wordpools/wasnorm_wordpool_less_exclusions.txt	LTP179	ltpFR	5	n/a	1	GENERAL	630	n/a	n/a	1	n/a	n/a	n/a	n/a	n/a
3270.126	n/a	FFR_REC_WORD	1635063	wordpools/wasnorm_wordpool_less_exclusions.txt	LTP179	ltpFR	5	n/a	0	EMPEROR	529	n/a	n/a	1	n/a	n/a	n/a	n/a	n/a
3271.922	n/a	FFR_REC_WORD	1635961	wordpools/wasnorm_wordpool_less_exclusions.txt	LTP179	ltpFR	5	n/a	0	THRONE	1461	n/a	n/a	1	n/a	n/a	n/a	n/a	n/a
3275.934	n/a	FFR_REC_WORD	1637967	wordpools/wasnorm_wordpool_less_exclusions.txt	LTP179	ltpFR	5	n/a	-1	EMERALD	528	n/a	n/a	-1	n/a	n/a	n/a	n/a	n/a
3277.56	n/a	FFR_REC_WORD	1638780	wordpools/wasnorm_wordpool_less_exclusions.txt	LTP179	ltpFR	5	n/a	-1	JEWEL	757	n/a	n/a	-1	n/a	n/a	n/a	n/a	n/a
3279.51	n/a	FFR_REC_WORD	1639755	wordpools/wasnorm_wordpool_less_exclusions.txt	LTP179	ltpFR	5	n/a	-1	POND	1101	n/a	n/a	-1	n/a	n/a	n/a	n/a	n/a
3281.302	n/a	FFR_REC_WORD	1640651	wordpools/wasnorm_wordpool_less_exclusions.txt	LTP179	ltpFR	5	n/a	-1	COURSE	390	n/a	n/a	-1	n/a	n/a	n/a	n/a	n/a
3283.732	n/a	FFR_REC_WORD	1641866	wordpools/wasnorm_wordpool_less_exclusions.txt	LTP179	ltpFR	5	n/a	-1	SNORKEL	1336	n/a	n/a	-1	n/a	n/a	n/a	n/a	n/a
3286.83	n/a	FFR_REC_WORD	1643415	wordpools/wasnorm_wordpool_less_exclusions.txt	LTP179	ltpFR	5	n/a	0	TIDE	1465	n/a	n/a	1	n/a	n/a	n/a	n/a	n/a
3289.842	n/a	FFR_REC_WORD	1644921	wordpools/wasnorm_wordpool_less_exclusions.txt	LTP179	ltpFR	5	n/a	0	SURF	1412	n/a	n/a	1	n/a	n/a	n/a	n/a	n/a
3291.834	n/a	FFR_REC_WORD	1645917	wordpools/wasnorm_wordpool_less_exclusions.txt	LTP179	ltpFR	5	n/a	-1	YACHT	1629	n/a	n/a	-1	n/a	n/a	n/a	n/a	n/a
3298.308	n/a	FFR_REC_WORD	1649154	wordpools/wasnorm_wordpool_less_exclusions.txt	LTP179	ltpFR	5	n/a	-1	DOLPHIN	483	n/a	n/a	-1	n/a	n/a	n/a	n/a	n/a
3302.396	n/a	FFR_REC_WORD	1651198	wordpools/wasnorm_wordpool_less_exclusions.txt	LTP179	ltpFR	5	n/a	1	MERMAID	887	n/a	n/a	0	n/a	n/a	n/a	n/a	n/a
3308.636	n/a	FFR_REC_WORD	1654318	wordpools/wasnorm_wordpool_less_exclusions.txt	LTP179	ltpFR	5	n/a	0	ZUCCHINI	1638	n/a	n/a	3	n/a	n/a	n/a	n/a	n/a
3311.19	n/a	FFR_REC_WORD	1655595	wordpools/wasnorm_wordpool_less_exclusions.txt	LTP179	ltpFR	5	n/a	-1	RICE	1190	n/a	n/a	-1	n/a	n/a	n/a	n/a	n/a
3313.55	n/a	FFR_REC_WORD	1656775	wordpools/wasnorm_wordpool_less_exclusions.txt	LTP179	ltpFR	5	n/a	-1	BARLEY	88	n/a	n/a	-1	n/a	n/a	n/a	n/a	n/a
3317.266	n/a	FFR_REC_WORD	1658633	wordpools/wasnorm_wordpool_less_exclusions.txt	LTP179	ltpFR	5	n/a	1	CHEF	290	n/a	n/a	1	n/a	n/a	n/a	n/a	n/a
3319.448	n/a	FFR_REC_WORD	1659724	wordpools/wasnorm_wordpool_less_exclusions.txt	LTP179	ltpFR	5	n/a	-1	BACON	67	n/a	n/a	-1	n/a	n/a	n/a	n/a	n/a
3321.528	n/a	FFR_REC_WORD	1660764	wordpools/wasnorm_wordpool_less_exclusions.txt	LTP179	ltpFR	5	n/a	1	BUTTER	205	n/a	n/a	0	n/a	n/a	n/a	n/a	n/a
3325.024	n/a	FFR_REC_WORD	1662512	wordpools/wasnorm_wordpool_less_exclusions.txt	LTP179	ltpFR	5	n/a	0	STAPLER	1372	n/a	n/a	0	n/a	n/a	n/a	n/a	n/a
3335.726	n/a	FFR_REC_WORD	1667863	wordpools/wasnorm_wordpool_less_exclusions.txt	LTP179	ltpFR	5	n/a	0	REFRIGERATOR	1179	n/a	n/a	1	n/a	n/a	n/a	n/a	n/a
3337.952	n/a	FFR_REC_WORD	1668976	wordpools/wasnorm_wordpool_less_exclusions.txt	LTP179	ltpFR	5	n/a	1	KITCHEN	778	n/a	n/a	0	n/a	n/a	n/a	n/a	n/a
3340.146	n/a	FFR_REC_WORD	1670073	wordpools/wasnorm_wordpool_less_exclusions.txt	LTP179	ltpFR	5	n/a	-1	YARD	1630	n/a	n/a	-1	n/a	n/a	n/a	n/a	n/a
3361.594	n/a	FFR_REC_WORD	1680797	wordpools/wasnorm_wordpool_less_exclusions.txt	LTP179	ltpFR	5	n/a	0	RECEPTIONIST	1174	n/a	n/a	1	n/a	n/a	n/a	n/a	n/a
3362.594	n/a	FFR_REC_WORD_VV	1681297	wordpools/wasnorm_wordpool_less_exclusions.txt	LTP179	ltpFR	5	n/a	n/a	<>	-1	n/a	n/a	n/a	n/a	n/a	n/a	n/a	n/a
3365.002	n/a	FFR_REC_WORD	1682501	wordpools/wasnorm_wordpool_less_exclusions.txt	LTP179	ltpFR	5	n/a	0	DOCUMENT	479	n/a	n/a	0	n/a	n/a	n/a	n/a	n/a
3367.336	n/a	FFR_REC_WORD	1683668	wordpools/wasnorm_wordpool_less_exclusions.txt	LTP179	ltpFR	5	n/a	1	BISCUIT	130	n/a	n/a	1	n/a	n/a	n/a	n/a	n/a
3372.52	n/a	FFR_REC_WORD	1686260	wordpools/wasnorm_wordpool_less_exclusions.txt	LTP179	ltpFR	5	n/a	0	COPIER	377	n/a	n/a	1	n/a	n/a	n/a	n/a	n/a
3380.98	n/a	FFR_REC_WORD	1690490	wordpools/wasnorm_wordpool_less_exclusions.txt	LTP179	ltpFR	5	n/a	1	CATERPILLAR	259	n/a	n/a	1	n/a	n/a	n/a	n/a	n/a
3383.146	n/a	FFR_REC_WORD	1691573	wordpools/wasnorm_wordpool_less_exclusions.txt	LTP179	ltpFR	5	n/a	n/a	ELK	526	n/a	n/a	n/a	n/a	n/a	n/a	n/a	n/a
3385.246	n/a	FFR_REC_WORD	1692623	wordpools/wasnorm_wordpool_less_exclusions.txt	LTP179	ltpFR	5	n/a	1	GIRAFFE	636	n/a	n/a	1	n/a	n/a	n/a	n/a	n/a
3389.756	n/a	FFR_REC_WORD	1694878	wordpools/wasnorm_wordpool_less_exclusions.txt	LTP179	ltpFR	5	n/a	-1	HERD	705	n/a	n/a	-1	n/a	n/a	n/a	n/a	n/a
3391.676	n/a	FFR_REC_WORD	1695838	wordpools/wasnorm_wordpool_less_exclusions.txt	LTP179	ltpFR	5	n/a	-1	CATTLE	261	n/a	n/a	-1	n/a	n/a	n/a	n/a	n/a
3393.658	n/a	FFR_REC_WORD	1696829	wordpools/wasnorm_wordpool_less_exclusions.txt	LTP179	ltpFR	5	n/a	-1	CROW	414	n/a	n/a	-1	n/a	n/a	n/a	n/a	n/a
3401.226	n/a	FFR_REC_WORD	1700613	wordpools/wasnorm_wordpool_less_exclusions.txt	LTP179	ltpFR	5	n/a	0	FOE	587	n/a	n/a	1	n/a	n/a	n/a	n/a	n/a
3403.152	n/a	FFR_REC_WORD	1701576	wordpools/wasnorm_wordpool_less_exclusions.txt	LTP179	ltpFR	5	n/a	0	ENEMY	534	n/a	n/a	1	n/a	n/a	n/a	n/a	n/a
3413.47	n/a	FFR_REC_WORD	1706735	wordpools/wasnorm_wordpool_less_exclusions.txt	LTP179	ltpFR	5	n/a	0	ASIA	46	n/a	n/a	1	n/a	n/a	n/a	n/a	n/a
3416.702	n/a	FFR_REC_WORD	1708351	wordpools/wasnorm_wordpool_less_exclusions.txt	LTP179	ltpFR	5	n/a	1	LONDON	843	n/a	n/a	0	n/a	n/a	n/a	n/a	n/a
3418.378	n/a	FFR_REC_WORD	1709189	wordpools/wasnorm_wordpool_less_exclusions.txt	LTP179	ltpFR	5	n/a	1	PARIS	1014	n/a	n/a	0	n/a	n/a	n/a	n/a	n/a
3420.418	n/a	FFR_REC_WORD	1710209	wordpools/wasnorm_wordpool_less_exclusions.txt	LTP179	ltpFR	5	n/a	1	PRAIRIE	1118	n/a	n/a	1	n/a	n/a	n/a	n/a	n/a
3422.508	n/a	FFR_REC_WORD	1711254	wordpools/wasnorm_wordpool_less_exclusions.txt	LTP179	ltpFR	5	n/a	1	GROUND	666	n/a	n/a	1	n/a	n/a	n/a	n/a	n/a
3432.686	n/a	FFR_REC_WORD	1716343	wordpools/wasnorm_wordpool_less_exclusions.txt	LTP179	ltpFR	5	n/a	0	MINK	897	n/a	n/a	1	n/a	n/a	n/a	n/a	n/a
3438.692	n/a	FFR_REC_WORD	1719346	wordpools/wasnorm_wordpool_less_exclusions.txt	LTP179	ltpFR	5	n/a	-1	FACTORY	548	n/a	n/a	-1	n/a	n/a	n/a	n/a	n/a
3443.038	n/a	FFR_REC_WORD	1721519	wordpools/wasnorm_wordpool_less_exclusions.txt	LTP179	ltpFR	5	n/a	1	GLACIER	638	n/a	n/a	1	n/a	n/a	n/a	n/a	n/a
3450.486	n/a	FFR_REC_WORD	1725243	wordpools/wasnorm_wordpool_less_exclusions.txt	LTP179	ltpFR	5	n/a	n/a	TOE	1473	n/a	n/a	n/a	n/a	n/a	n/a	n/a	n/a
3454.728	n/a	FFR_REC_WORD	1727364	wordpools/wasnorm_wordpool_less_exclusions.txt	LTP179	ltpFR	5	n/a	1	TOENAIL	1474	n/a	n/a	1	n/a	n/a	n/a	n/a	n/a
3457.826	n/a	FFR_REC_WORD	1728913	wordpools/wasnorm_wordpool_less_exclusions.txt	LTP179	ltpFR	5	n/a	1	TAG	1429	n/a	n/a	0	n/a	n/a	n/a	n/a	n/a
3461.776	n/a	FFR_REC_WORD	1730888	wordpools/wasnorm_wordpool_less_exclusions.txt	LTP179	ltpFR	5	n/a	n/a	WRIST	1626	n/a	n/a	n/a	n/a	n/a	n/a	n/a	n/a
3464.824	n/a	FFR_REC_WORD	1732412	wordpools/wasnorm_wordpool_less_exclusions.txt	LTP179	ltpFR	5	n/a	1	KNUCKLE	789	n/a	n/a	1	n/a	n/a	n/a	n/a	n/a
3473.69	n/a	FFR_REC_WORD	1736845	wordpools/wasnorm_wordpool_less_exclusions.txt	LTP179	ltpFR	5	n/a	1	LUNG	850	n/a	n/a	1	n/a	n/a	n/a	n/a	n/a
3489.918	n/a	FFR_REC_WORD	1744959	wordpools/wasnorm_wordpool_less_exclusions.txt	LTP179	ltpFR	5	n/a	-1	SWAMP	1416	n/a	n/a	-1	n/a	n/a	n/a	n/a	n/a
3499.792	n/a	FFR_REC_WORD	1749896	wordpools/wasnorm_wordpool_less_exclusions.txt	LTP179	ltpFR	5	n/a	0	ROSE	1212	n/a	n/a	0	n/a	n/a	n/a	n/a	n/a
3502.002	n/a	FFR_REC_WORD	1751001	wordpools/wasnorm_wordpool_less_exclusions.txt	LTP179	ltpFR	5	n/a	0	STEM	1376	n/a	n/a	0	n/a	n/a	n/a	n/a	n/a
3517.098	n/a	FFR_REC_WORD	1758549	wordpools/wasnorm_wordpool_less_exclusions.txt	LTP179	ltpFR	5	n/a	-1	OCEAN	970	n/a	n/a	-1	n/a	n/a	n/a	n/a	n/a
3534.21	n/a	FFR_REC_WORD	1767105	wordpools/wasnorm_wordpool_less_exclusions.txt	LTP179	ltpFR	5	n/a	-1	FIG	563	n/a	n/a	-1	n/a	n/a	n/a	n/a	n/a
3545.79	n/a	FFR_REC_WORD	1772895	wordpools/wasnorm_wordpool_less_exclusions.txt	LTP179	ltpFR	5	n/a	0	ROOM	1206	n/a	n/a	1	n/a	n/a	n/a	n/a	n/a
3683.788	n/a	REC_START	1841894	n/a	LTP179	ltpFR	5	1	n/a	n/a	n/a	n/a	n/a	n/a	n/a	n/a	n/a	n/a	n/a
3683.836	n/a	RECOG_TARGET	1841918	n/a	LTP179	ltpFR	5	1	1	BROTHER	179	1	1	1	n/a	n/a	n/a	n/a	n/a
3692.3	n/a	RECOG_RESP	1846150	n/a	LTP179	ltpFR	5	1	1	BROTHER	179	1	n/a	1	n/a	n/a	n/a	n/a	n/a
3696.46	n/a	RECOG_CONF	1848230	n/a	LTP179	ltpFR	5	1	1	BROTHER	179	n/a	1	1	n/a	n/a	n/a	n/a	n/a
3698.526	n/a	RECOG_LURE	1849263	n/a	LTP179	ltpFR	5	1	n/a	BASEBALL	93	0	4	n/a	n/a	n/a	n/a	n/a	n/a
3700.194	n/a	RECOG_RESP	1850097	n/a	LTP179	ltpFR	5	1	n/a	BASEBALL	93	0	n/a	n/a	n/a	n/a	n/a	n/a	n/a
3701.604	n/a	RECOG_CONF	1850802	n/a	LTP179	ltpFR	5	1	n/a	BASEBALL	93	n/a	4	n/a	n/a	n/a	n/a	n/a	n/a
3703.444	n/a	RECOG_TARGET	1851722	n/a	LTP179	ltpFR	5	1	1	VIDEO	1564	1	3	0	n/a	n/a	n/a	n/a	n/a
3707.952	n/a	RECOG_RESP	1853976	n/a	LTP179	ltpFR	5	1	1	VIDEO	1564	1	n/a	0	n/a	n/a	n/a	n/a	n/a
3709.102	n/a	RECOG_CONF	1854551	n/a	LTP179	ltpFR	5	1	1	VIDEO	1564	n/a	3	0	n/a	n/a	n/a	n/a	n/a
3711.006	n/a	RECOG_TARGET	1855503	n/a	LTP179	ltpFR	5	1	-1	FACTORY	548	1	5	-1	n/a	n/a	n/a	n/a	n/a
3712.488	n/a	RECOG_RESP	1856244	n/a	LTP179	ltpFR	5	1	-1	FACTORY	548	1	n/a	-1	n/a	n/a	n/a	n/a	n/a
3713.954	n/a	RECOG_CONF	1856977	n/a	LTP179	ltpFR	5	1	-1	FACTORY	548	n/a	5	-1	n/a	n/a	n/a	n/a	n/a
3715.992	n/a	RECOG_TARGET	1857996	n/a	LTP179	ltpFR	5	1	1	GENERAL	630	1	4	1	n/a	n/a	n/a	n/a	n/a
3717.168	n/a	RECOG_RESP	1858584	n/a	LTP179	ltpFR	5	1	1	GENERAL	630	1	n/a	1	n/a	n/a	n/a	n/a	n/a
3718.572	n/a	RECOG_CONF	1859286	n/a	LTP179	ltpFR	5	1	1	GENERAL	630	n/a	4	1	n/a	n/a	n/a	n/a	n/a
3720.612	n/a	RECOG_TARGET	1860306	n/a	LTP179	ltpFR	5	1	-1	SPICE	1350	1	5	-1	n/a	n/a	n/a	n/a	n/a
3721.828	n/a	RECOG_RESP	1860914	n/a	LTP179	ltpFR	5	1	-1	SPICE	1350	1	n/a	-1	n/a	n/a	n/a	n/a	n/a
3723.078	n/a	RECOG_CONF	1861539	n/a	LTP179	ltpFR	5	1	-1	SPICE	1350	n/a	5	-1	n/a	n/a	n/a	n/a	n/a
3725.144	n/a	RECOG_LURE	1862572	n/a	LTP179	ltpFR	5	1	n/a	DUCK	504	0	3	n/a	n/a	n/a	n/a	n/a	n/a
3727.642	n/a	RECOG_RESP	1863821	n/a	LTP179	ltpFR	5	1	n/a	DUCK	504	0	n/a	n/a	n/a	n/a	n/a	n/a	n/a
3728.944	n/a	RECOG_CONF	1864472	n/a	LTP179	ltpFR	5	1	n/a	DUCK	504	n/a	3	n/a	n/a	n/a	n/a	n/a	n/a
3731.032	n/a	RECOG_TARGET	1865516	n/a	LTP179	ltpFR	5	1	0	TOMATO	1476	1	3	0	n/a	n/a	n/a	n/a	n/a
3733.31	n/a	RECOG_RESP	1866655	n/a	LTP179	ltpFR	5	1	0	TOMATO	1476	1	n/a	0	n/a	n/a	n/a	n/a	n/a
3734.558	n/a	RECOG_CONF	1867279	n/a	LTP179	ltpFR	5	1	0	TOMATO	1476	n/a	3	0	n/a	n/a	n/a	n/a	n/a
3736.588	n/a	RECOG_TARGET	1868294	n/a	LTP179	ltpFR	5	1	1	PUBLISHER	1137	1	5	1	n/a	n/a	n/a	n/a	n/a
3739.802	n/a	RECOG_RESP	1869901	n/a	LTP179	ltpFR	5	1	1	PUBLISHER	1137	1	n/a	1	n/a	n/a	n/a	n/a	n/a
3741.108	n/a	RECOG_CONF	1870554	n/a	LTP179	ltpFR	5	1	1	PUBLISHER	1137	n/a	5	1	n/a	n/a	n/a	n/a	n/a
3743.296	n/a	RECOG_TARGET	1871648	n/a	LTP179	ltpFR	5	1	1	PASSENGER	1020	1	2	1	n/a	n/a	n/a	n/a	n/a
3744.616	n/a	RECOG_RESP	1872308	n/a	LTP179	ltpFR	5	1	1	PASSENGER	1020	1	n/a	1	n/a	n/a	n/a	n/a	n/a
3745.834	n/a	RECOG_CONF	1872917	n/a	LTP179	ltpFR	5	1	1	PASSENGER	1020	n/a	2	1	n/a	n/a	n/a	n/a	n/a
3747.73	n/a	RECOG_LURE	1873865	n/a	LTP179	ltpFR	5	1	n/a	PREDATOR	1120	0	4	n/a	n/a	n/a	n/a	n/a	n/a
3749.2	n/a	RECOG_RESP	1874600	n/a	LTP179	ltpFR	5	1	n/a	PREDATOR	1120	0	n/a	n/a	n/a	n/a	n/a	n/a	n/a
3750.534	n/a	RECOG_CONF	1875267	n/a	LTP179	ltpFR	5	1	n/a	PREDATOR	1120	n/a	4	n/a	n/a	n/a	n/a	n/a	n/a
3752.432	n/a	RECOG_TARGET	1876216	n/a	LTP179	ltpFR	5	1	1	SOCK	1339	1	5	0	n/a	n/a	n/a	n/a	n/a
3753.618	n/a	RECOG_RESP	1876809	n/a	LTP179	ltpFR	5	1	1	SOCK	1339	1	n/a	0	n/a	n/a	n/a	n/a	n/a
3755.034	n/a	RECOG_CONF	1877517	n/a	LTP179	ltpFR	5	1	1	SOCK	1339	n/a	5	0	n/a	n/a	n/a	n/a	n/a
3756.866	n/a	RECOG_TARGET	1878433	n/a	LTP179	ltpFR	5	1	-1	STICKER	1382	0	2	-1	n/a	n/a	n/a	n/a	n/a
3758.732	n/a	RECOG_RESP	1879366	n/a	LTP179	ltpFR	5	1	-1	STICKER	1382	0	n/a	-1	n/a	n/a	n/a	n/a	n/a
3759.898	n/a	RECOG_CONF	1879949	n/a	LTP179	ltpFR	5	1	-1	STICKER	1382	n/a	2	-1	n/a	n/a	n/a	n/a	n/a
3761.7	n/a	RECOG_TARGET	1880850	n/a	LTP179	ltpFR	5	1	-1	NEPHEW	942	1	3	-1	n/a	n/a	n/a	n/a	n/a
3763.912	n/a	RECOG_RESP	1881956	n/a	LTP179	ltpFR	5	1	-1	NEPHEW	942	1	n/a	-1	n/a	n/a	n/a	n/a	n/a
3765.226	n/a	RECOG_CONF	1882613	n/a	LTP179	ltpFR	5	1	-1	NEPHEW	942	n/a	3	-1	n/a	n/a	n/a	n/a	n/a
3767.44	n/a	RECOG_TARGET	1883720	n/a	LTP179	ltpFR	5	1	-1	EMPLOYER	532	1	5	-1	n/a	n/a	n/a	n/a	n/a
3768.67	n/a	RECOG_RESP	1884335	n/a	LTP179	ltpFR	5	1	-1	EMPLOYER	532	1	n/a	-1	n/a	n/a	n/a	n/a	n/a
3770.082	n/a	RECOG_CONF	1885041	n/a	LTP179	ltpFR	5	1	-1	EMPLOYER	532	n/a	5	-1	n/a	n/a	n/a	n/a	n/a
3771.91	n/a	RECOG_TARGET	1885955	n/a	LTP179	ltpFR	5	1	0	ATOM	55	1	5	0	n/a	n/a	n/a	n/a	n/a
3773.324	n/a	RECOG_RESP	1886662	n/a	LTP179	ltpFR	5	1	0	ATOM	55	1	n/a	0	n/a	n/a	n/a	n/a	n/a
3774.96	n/a	RECOG_CONF	1887480	n/a	LTP179	ltpFR	5	1	0	ATOM	55	n/a	5	0	n/a	n/a	n/a	n/a	n/a
3776.926	n/a	RECOG_TARGET	1888463	n/a	LTP179	ltpFR	5	1	1	TOENAIL	1474	1	4	1	n/a	n/a	n/a	n/a	n/a
3779.244	n/a	RECOG_RESP	1889622	n/a	LTP179	ltpFR	5	1	1	TOENAIL	1474	1	n/a	1	n/a	n/a	n/a	n/a	n/a
3780.602	n/a	RECOG_CONF	1890301	n/a	LTP179	ltpFR	5	1	1	TOENAIL	1474	n/a	4	1	n/a	n/a	n/a	n/a	n/a
3782.748	n/a	RECOG_TARGET	1891374	n/a	LTP179	ltpFR	5	1	1	PARIS	1014	1	5	0	n/a	n/a	n/a	n/a	n/a
3784.126	n/a	RECOG_RESP	1892063	n/a	LTP179	ltpFR	5	1	1	PARIS	1014	1	n/a	0	n/a	n/a	n/a	n/a	n/a
3785.596	n/a	RECOG_CONF	1892798	n/a	LTP179	ltpFR	5	1	1	PARIS	1014	n/a	5	0	n/a	n/a	n/a	n/a	n/a
3787.366	n/a	RECOG_LURE	1893683	n/a	LTP179	ltpFR	5	1	n/a	BLACKBERRY	132	0	5	n/a	n/a	n/a	n/a	n/a	n/a
3789.61	n/a	RECOG_RESP	1894805	n/a	LTP179	ltpFR	5	1	n/a	BLACKBERRY	132	0	n/a	n/a	n/a	n/a	n/a	n/a	n/a
3790.702	n/a	RECOG_CONF	1895351	n/a	LTP179	ltpFR	5	1	n/a	BLACKBERRY	132	n/a	5	n/a	n/a	n/a	n/a	n/a	n/a
3792.586	n/a	RECOG_LURE	1896293	n/a	LTP179	ltpFR	5	1	n/a	DIRT	472	0	1	n/a	n/a	n/a	n/a	n/a	n/a
3796.224	n/a	RECOG_RESP	1898112	n/a	LTP179	ltpFR	5	1	n/a	DIRT	472	0	n/a	n/a	n/a	n/a	n/a	n/a	n/a
3797.21	n/a	RECOG_CONF	1898605	n/a	LTP179	ltpFR	5	1	n/a	DIRT	472	n/a	1	n/a	n/a	n/a	n/a	n/a	n/a
3823.974	n/a	REC_START	1911987	n/a	LTP179	ltpFR	5	2	n/a	n/a	n/a	n/a	n/a	n/a	n/a	n/a	n/a	n/a	n/a
3824.022	n/a	RECOG_TARGET	1912011	n/a	LTP179	ltpFR	5	2	1	GATE	625	0	1	0	n/a	n/a	n/a	n/a	n/a
3826.376	n/a	RECOG_RESP	1913188	n/a	LTP179	ltpFR	5	2	1	GATE	625	0	n/a	0	n/a	n/a	n/a	n/a	n/a
3828.24	n/a	RECOG_CONF	1914120	n/a	LTP179	ltpFR	5	2	1	GATE	625	n/a	1	0	n/a	n/a	n/a	n/a	n/a
3830.062	n/a	RECOG_TARGET	1915031	n/a	LTP179	ltpFR	5	2	1	CLAY	320	1	5	1	n/a	n/a	n/a	n/a	n/a
3832.728	n/a	RECOG_RESP	1916364	n/a	LTP179	ltpFR	5	2	1	CLAY	320	1	n/a	1	n/a	n/a	n/a	n/a	n/a
3833.948	n/a	RECOG_CONF	1916974	n/a	LTP179	ltpFR	5	2	1	CLAY	320	n/a	5	1	n/a	n/a	n/a	n/a	n/a
3835.65	n/a	RECOG_TARGET	1917825	n/a	LTP179	ltpFR	5	2	0	MAJOR	859	1	5	1	n/a	n/a	n/a	n/a	n/a
3836.9	n/a	RECOG_RESP	1918450	n/a	LTP179	ltpFR	5	2	0	MAJOR	859	1	n/a	1	n/a	n/a	n/a	n/a	n/a
3838.278	n/a	RECOG_CONF	1919139	n/a	LTP179	ltpFR	5	2	0	MAJOR	859	n/a	5	1	n/a	n/a	n/a	n/a	n/a
3840.132	n/a	RECOG_TARGET	1920066	n/a	LTP179	ltpFR	5	2	0	FIST	572	1	2	0	n/a	n/a	n/a	n/a	n/a
3844.79	n/a	RECOG_RESP	1922395	n/a	LTP179	ltpFR	5	2	0	FIST	572	1	n/a	0	n/a	n/a	n/a	n/a	n/a
3846.056	n/a	RECOG_CONF	1923028	n/a	LTP179	ltpFR	5	2	0	FIST	572	n/a	2	0	n/a	n/a	n/a	n/a	n/a
3847.864	n/a	RECOG_TARGET	1923932	n/a	LTP179	ltpFR	5	2	-1	PUDDING	1139	1	5	-1	n/a	n/a	n/a	n/a	n/a
3849.01	n/a	RECOG_RESP	1924505	n/a	LTP179	ltpFR	5	2	-1	PUDDING	1139	1	n/a	-1	n/a	n/a	n/a	n/a	n/a
3850.672	n/a	RECOG_CONF	1925336	n/a	LTP179	ltpFR	5	2	-1	PUDDING	1139	n/a	5	-1	n/a	n/a	n/a	n/a	n/a
3852.566	n/a	RECOG_TARGET	1926283	n/a	LTP179	ltpFR	5	2	1	SUMMIT	1405	1	4	0	n/a	n/a	n/a	n/a	n/a
3853.856	n/a	RECOG_RESP	1926928	n/a	LTP179	ltpFR	5	2	1	SUMMIT	1405	1	n/a	0	n/a	n/a	n/a	n/a	n/a
3855.096	n/a	RECOG_CONF	1927548	n/a	LTP179	ltpFR	5	2	1	SUMMIT	1405	n/a	4	0	n/a	n/a	n/a	n/a	n/a
3857.036	n/a	RECOG_TARGET	1928518	n/a	LTP179	ltpFR	5	2	0	BRAN	167	1	5	0	n/a	n/a	n/a	n/a	n/a
3858.208	n/a	RECOG_RESP	1929104	n/a	LTP179	ltpFR	5	2	0	BRAN	167	1	n/a	0	n/a	n/a	n/a	n/a	n/a
3859.66	n/a	RECOG_CONF	1929830	n/a	LTP179	ltpFR	5	2	0	BRAN	167	n/a	5	0	n/a	n/a	n/a	n/a	n/a
3861.482	n/a	RECOG_TARGET	1930741	n/a	LTP179	ltpFR	5	2	0	DILL	465	1	5	0	n/a	n/a	n/a	n/a	n/a
3862.466	n/a	RECOG_RESP	1931233	n/a	LTP179	ltpFR	5	2	0	DILL	465	1	n/a	0	n/a	n/a	n/a	n/a	n/a
3863.912	n/a	RECOG_CONF	1931956	n/a	LTP179	ltpFR	5	2	0	DILL	465	n/a	5	0	n/a	n/a	n/a	n/a	n/a
3865.648	n/a	RECOG_TARGET	1932824	n/a	LTP179	ltpFR	5	2	0	BOUILLON	154	0	2	0	n/a	n/a	n/a	n/a	n/a
3867.798	n/a	RECOG_RESP	1933899	n/a	LTP179	ltpFR	5	2	0	BOUILLON	154	0	n/a	0	n/a	n/a	n/a	n/a	n/a
3869.032	n/a	RECOG_CONF	1934516	n/a	LTP179	ltpFR	5	2	0	BOUILLON	154	n/a	2	0	n/a	n/a	n/a	n/a	n/a
3870.868	n/a	RECOG_TARGET	1935434	n/a	LTP179	ltpFR	5	2	0	TREAD	1499	1	5	1	n/a	n/a	n/a	n/a	n/a
3872.008	n/a	RECOG_RESP	1936004	n/a	LTP179	ltpFR	5	2	0	TREAD	1499	1	n/a	1	n/a	n/a	n/a	n/a	n/a
3873.34	n/a	RECOG_CONF	1936670	n/a	LTP179	ltpFR	5	2	0	TREAD	1499	n/a	5	1	n/a	n/a	n/a	n/a	n/a
3875.066	n/a	RECOG_TARGET	1937533	n/a	LTP179	ltpFR	5	2	-1	BAKER	71	1	5	-1	n/a	n/a	n/a	n/a	n/a
3876.222	n/a	RECOG_RESP	1938111	n/a	LTP179	ltpFR	5	2	-1	BAKER	71	1	n/a	-1	n/a	n/a	n/a	n/a	n/a
3877.476	n/a	RECOG_CONF	1938738	n/a	LTP179	ltpFR	5	2	-1	BAKER	71	n/a	5	-1	n/a	n/a	n/a	n/a	n/a
3879.316	n/a	RECOG_LURE	1939658	n/a	LTP179	ltpFR	5	2	n/a	TWEEZERS	1526	0	2	n/a	n/a	n/a	n/a	n/a	n/a
3882.252	n/a	RECOG_RESP	1941126	n/a	LTP179	ltpFR	5	2	n/a	TWEEZERS	1526	0	n/a	n/a	n/a	n/a	n/a	n/a	n/a
3883.398	n/a	RECOG_CONF	1941699	n/a	LTP179	ltpFR	5	2	n/a	TWEEZERS	1526	n/a	2	n/a	n/a	n/a	n/a	n/a	n/a
3885.106	n/a	RECOG_TARGET	1942553	n/a	LTP179	ltpFR	5	2	-1	JEWEL	757	1	5	-1	n/a	n/a	n/a	n/a	n/a
3887.062	n/a	RECOG_RESP	1943531	n/a	LTP179	ltpFR	5	2	-1	JEWEL	757	1	n/a	-1	n/a	n/a	n/a	n/a	n/a
3888.254	n/a	RECOG_CONF	1944127	n/a	LTP179	ltpFR	5	2	-1	JEWEL	757	n/a	5	-1	n/a	n/a	n/a	n/a	n/a
3890.224	n/a	RECOG_TARGET	1945112	n/a	LTP179	ltpFR	5	2	1	UNIFORM	1539	1	5	0	n/a	n/a	n/a	n/a	n/a
3892.616	n/a	RECOG_RESP	1946308	n/a	LTP179	ltpFR	5	2	1	UNIFORM	1539	1	n/a	0	n/a	n/a	n/a	n/a	n/a
3894.25	n/a	RECOG_CONF	1947125	n/a	LTP179	ltpFR	5	2	1	UNIFORM	1539	n/a	5	0	n/a	n/a	n/a	n/a	n/a
3896.232	n/a	RECOG_TARGET	1948116	n/a	LTP179	ltpFR	5	2	0	SHELTER	1282	1	5	1	n/a	n/a	n/a	n/a	n/a
3897.282	n/a	RECOG_RESP	1948641	n/a	LTP179	ltpFR	5	2	0	SHELTER	1282	1	n/a	1	n/a	n/a	n/a	n/a	n/a
3898.764	n/a	RECOG_CONF	1949382	n/a	LTP179	ltpFR	5	2	0	SHELTER	1282	n/a	5	1	n/a	n/a	n/a	n/a	n/a
3900.53	n/a	RECOG_LURE	1950265	n/a	LTP179	ltpFR	5	2	n/a	DORM	488	1	3	n/a	n/a	n/a	n/a	n/a	n/a
3903.034	n/a	RECOG_RESP	1951517	n/a	LTP179	ltpFR	5	2	n/a	DORM	488	1	n/a	n/a	n/a	n/a	n/a	n/a	n/a
3904.132	n/a	RECOG_CONF	1952066	n/a	LTP179	ltpFR	5	2	n/a	DORM	488	n/a	3	n/a	n/a	n/a	n/a	n/a	n/a
3905.952	n/a	RECOG_LURE	1952976	n/a	LTP179	ltpFR	5	2	n/a	TUTU	1524	0	5	n/a	n/a	n/a	n/a	n/a	n/a
3907.974	n/a	RECOG_RESP	1953987	n/a	LTP179	ltpFR	5	2	n/a	TUTU	1524	0	n/a	n/a	n/a	n/a	n/a	n/a	n/a
3909.1	n/a	RECOG_CONF	1954550	n/a	LTP179	ltpFR	5	2	n/a	TUTU	1524	n/a	5	n/a	n/a	n/a	n/a	n/a	n/a
3910.82	n/a	RECOG_TARGET	1955410	n/a	LTP179	ltpFR	5	2	-1	DOLPHIN	483	1	5	-1	n/a	n/a	n/a	n/a	n/a
3911.884	n/a	RECOG_RESP	1955942	n/a	LTP179	ltpFR	5	2	-1	DOLPHIN	483	1	n/a	-1	n/a	n/a	n/a	n/a	n/a
3913.164	n/a	RECOG_CONF	1956582	n/a	LTP179	ltpFR	5	2	-1	DOLPHIN	483	n/a	5	-1	n/a	n/a	n/a	n/a	n/a
3915.02	n/a	RECOG_TARGET	1957510	n/a	LTP179	ltpFR	5	2	0	FOE	587	1	5	1	n/a	n/a	n/a	n/a	n/a
3916.12	n/a	RECOG_RESP	1958060	n/a	LTP179	ltpFR	5	2	0	FOE	587	1	n/a	1	n/a	n/a	n/a	n/a	n/a
3917.29	n/a	RECOG_CONF	1958645	n/a	LTP179	ltpFR	5	2	0	FOE	587	n/a	5	1	n/a	n/a	n/a	n/a	n/a
3919.152	n/a	RECOG_LURE	1959576	n/a	LTP179	ltpFR	5	2	n/a	ARTICLE	42	1	3	n/a	n/a	n/a	n/a	n/a	n/a
3929.474	n/a	RECOG_RESP	1964737	n/a	LTP179	ltpFR	5	2	n/a	ARTICLE	42	1	n/a	n/a	n/a	n/a	n/a	n/a	n/a
3930.514	n/a	RECOG_CONF	1965257	n/a	LTP179	ltpFR	5	2	n/a	ARTICLE	42	n/a	3	n/a	n/a	n/a	n/a	n/a	n/a
3939.66	n/a	REC_START	1969830	n/a	LTP179	ltpFR	5	3	n/a	n/a	n/a	n/a	n/a	n/a	n/a	n/a	n/a	n/a	n/a
3939.7	n/a	RECOG_TARGET	1969850	n/a	LTP179	ltpFR	5	3	-1	CHEMIST	292	1	5	-1	n/a	n/a	n/a	n/a	n/a
3941.778	n/a	RECOG_RESP	1970889	n/a	LTP179	ltpFR	5	3	-1	CHEMIST	292	1	n/a	-1	n/a	n/a	n/a	n/a	n/a
3943.98	n/a	RECOG_CONF	1971990	n/a	LTP179	ltpFR	5	3	-1	CHEMIST	292	n/a	5	-1	n/a	n/a	n/a	n/a	n/a
3945.958	n/a	RECOG_TARGET	1972979	n/a	LTP179	ltpFR	5	3	1	LOUNGE	845	0	1	0	n/a	n/a	n/a	n/a	n/a
3948.028	n/a	RECOG_RESP	1974014	n/a	LTP179	ltpFR	5	3	1	LOUNGE	845	0	n/a	0	n/a	n/a	n/a	n/a	n/a
3949.05	n/a	RECOG_CONF	1974525	n/a	LTP179	ltpFR	5	3	1	LOUNGE	845	n/a	1	0	n/a	n/a	n/a	n/a	n/a
3950.828	n/a	RECOG_TARGET	1975414	n/a	LTP179	ltpFR	5	3	0	MINK	897	1	5	1	n/a	n/a	n/a	n/a	n/a
3952.122	n/a	RECOG_RESP	1976061	n/a	LTP179	ltpFR	5	3	0	MINK	897	1	n/a	1	n/a	n/a	n/a	n/a	n/a
3953.422	n/a	RECOG_CONF	1976711	n/a	LTP179	ltpFR	5	3	0	MINK	897	n/a	5	1	n/a	n/a	n/a	n/a	n/a
3955.272	n/a	RECOG_TARGET	1977636	n/a	LTP179	ltpFR	5	3	-1	PISTON	1076	1	5	-1	n/a	n/a	n/a	n/a	n/a
3956.496	n/a	RECOG_RESP	1978248	n/a	LTP179	ltpFR	5	3	-1	PISTON	1076	1	n/a	-1	n/a	n/a	n/a	n/a	n/a
3957.858	n/a	RECOG_CONF	1978929	n/a	LTP179	ltpFR	5	3	-1	PISTON	1076	n/a	5	-1	n/a	n/a	n/a	n/a	n/a
3959.726	n/a	RECOG_TARGET	1979863	n/a	LTP179	ltpFR	5	3	0	CRICKET	408	1	4	0	n/a	n/a	n/a	n/a	n/a
3960.806	n/a	RECOG_RESP	1980403	n/a	LTP179	ltpFR	5	3	0	CRICKET	408	1	n/a	0	n/a	n/a	n/a	n/a	n/a
3962.304	n/a	RECOG_CONF	1981152	n/a	LTP179	ltpFR	5	3	0	CRICKET	408	n/a	4	0	n/a	n/a	n/a	n/a	n/a
3964.006	n/a	RECOG_TARGET	1982003	n/a	LTP179	ltpFR	5	3	0	DRINK	498	1	3	0	n/a	n/a	n/a	n/a	n/a
3970.312	n/a	RECOG_RESP	1985156	n/a	LTP179	ltpFR	5	3	0	DRINK	498	1	n/a	0	n/a	n/a	n/a	n/a	n/a
3971.28	n/a	RECOG_CONF	1985640	n/a	LTP179	ltpFR	5	3	0	DRINK	498	n/a	3	0	n/a	n/a	n/a	n/a	n/a
3973.228	n/a	RECOG_TARGET	1986614	n/a	LTP179	ltpFR	5	3	0	GALAXY	617	1	5	1	n/a	n/a	n/a	n/a	n/a
3974.392	n/a	RECOG_RESP	1987196	n/a	LTP179	ltpFR	5	3	0	GALAXY	617	1	n/a	1	n/a	n/a	n/a	n/a	n/a
3975.814	n/a	RECOG_CONF	1987907	n/a	LTP179	ltpFR	5	3	0	GALAXY	617	n/a	5	1	n/a	n/a	n/a	n/a	n/a
3977.576	n/a	RECOG_LURE	1988788	n/a	LTP179	ltpFR	5	3	n/a	DOORBELL	487	0	3	n/a	n/a	n/a	n/a	n/a	n/a
3979.504	n/a	RECOG_RESP	1989752	n/a	LTP179	ltpFR	5	3	n/a	DOORBELL	487	0	n/a	n/a	n/a	n/a	n/a	n/a	n/a
3980.508	n/a	RECOG_CONF	1990254	n/a	LTP179	ltpFR	5	3	n/a	DOORBELL	487	n/a	3	n/a	n/a	n/a	n/a	n/a	n/a
3982.31	n/a	RECOG_TARGET	1991155	n/a	LTP179	ltpFR	5	3	0	CHERRY	293	1	4	0	n/a	n/a	n/a	n/a	n/a
3983.712	n/a	RECOG_RESP	1991856	n/a	LTP179	ltpFR	5	3	0	CHERRY	293	1	n/a	0	n/a	n/a	n/a	n/a	n/a
3985.014	n/a	RECOG_CONF	1992507	n/a	LTP179	ltpFR	5	3	0	CHERRY	293	n/a	4	0	n/a	n/a	n/a	n/a	n/a
3986.66	n/a	RECOG_TARGET	1993330	n/a	LTP179	ltpFR	5	3	0	DAM	436	1	5	1	n/a	n/a	n/a	n/a	n/a
3987.668	n/a	RECOG_RESP	1993834	n/a	LTP179	ltpFR	5	3	0	DAM	436	1	n/a	1	n/a	n/a	n/a	n/a	n/a
3989.204	n/a	RECOG_CONF	1994602	n/a	LTP179	ltpFR	5	3	0	DAM	436	n/a	5	1	n/a	n/a	n/a	n/a	n/a
3991.126	n/a	RECOG_TARGET	1995563	n/a	LTP179	ltpFR	5	3	1	FIREMAN	569	1	5	1	n/a	n/a	n/a	n/a	n/a
3992.442	n/a	RECOG_RESP	1996221	n/a	LTP179	ltpFR	5	3	1	FIREMAN	569	1	n/a	1	n/a	n/a	n/a	n/a	n/a
3993.848	n/a	RECOG_CONF	1996924	n/a	LTP179	ltpFR	5	3	1	FIREMAN	569	n/a	5	1	n/a	n/a	n/a	n/a	n/a
3995.696	n/a	RECOG_LURE	1997848	n/a	LTP179	ltpFR	5	3	n/a	PISTOL	1075	1	2	n/a	n/a	n/a	n/a	n/a	n/a
4002.116	n/a	RECOG_RESP	2001058	n/a	LTP179	ltpFR	5	3	n/a	PISTOL	1075	1	n/a	n/a	n/a	n/a	n/a	n/a	n/a
4003.256	n/a	RECOG_CONF	2001628	n/a	LTP179	ltpFR	5	3	n/a	PISTOL	1075	n/a	2	n/a	n/a	n/a	n/a	n/a	n/a
4004.966	n/a	RECOG_LURE	2002483	n/a	LTP179	ltpFR	5	3	n/a	DRAWING	494	0	1	n/a	n/a	n/a	n/a	n/a	n/a
4007.35	n/a	RECOG_RESP	2003675	n/a	LTP179	ltpFR	5	3	n/a	DRAWING	494	0	n/a	n/a	n/a	n/a	n/a	n/a	n/a
4008.396	n/a	RECOG_CONF	2004198	n/a	LTP179	ltpFR	5	3	n/a	DRAWING	494	n/a	1	n/a	n/a	n/a	n/a	n/a	n/a
4010.1	n/a	RECOG_TARGET	2005050	n/a	LTP179	ltpFR	5	3	-1	COURSE	390	1	5	-1	n/a	n/a	n/a	n/a	n/a
4011.31	n/a	RECOG_RESP	2005655	n/a	LTP179	ltpFR	5	3	-1	COURSE	390	1	n/a	-1	n/a	n/a	n/a	n/a	n/a
4012.682	n/a	RECOG_CONF	2006341	n/a	LTP179	ltpFR	5	3	-1	COURSE	390	n/a	5	-1	n/a	n/a	n/a	n/a	n/a
4014.472	n/a	RECOG_TARGET	2007236	n/a	LTP179	ltpFR	5	3	1	FRUIT	610	1	5	1	n/a	n/a	n/a	n/a	n/a
4016.394	n/a	RECOG_RESP	2008197	n/a	LTP179	ltpFR	5	3	1	FRUIT	610	1	n/a	1	n/a	n/a	n/a	n/a	n/a
4017.642	n/a	RECOG_CONF	2008821	n/a	LTP179	ltpFR	5	3	1	FRUIT	610	n/a	5	1	n/a	n/a	n/a	n/a	n/a
4019.358	n/a	RECOG_TARGET	2009679	n/a	LTP179	ltpFR	5	3	1	SQUIRREL	1362	1	5	1	n/a	n/a	n/a	n/a	n/a
4020.5	n/a	RECOG_RESP	2010250	n/a	LTP179	ltpFR	5	3	1	SQUIRREL	1362	1	n/a	1	n/a	n/a	n/a	n/a	n/a
4021.952	n/a	RECOG_CONF	2010976	n/a	LTP179	ltpFR	5	3	1	SQUIRREL	1362	n/a	5	1	n/a	n/a	n/a	n/a	n/a
4023.786	n/a	RECOG_TARGET	2011893	n/a	LTP179	ltpFR	5	3	0	EWE	542	1	5	1	n/a	n/a	n/a	n/a	n/a
4024.828	n/a	RECOG_RESP	2012414	n/a	LTP179	ltpFR	5	3	0	EWE	542	1	n/a	1	n/a	n/a	n/a	n/a	n/a
4026.222	n/a	RECOG_CONF	2013111	n/a	LTP179	ltpFR	5	3	0	EWE	542	n/a	5	1	n/a	n/a	n/a	n/a	n/a
4028.102	n/a	RECOG_TARGET	2014051	n/a	LTP179	ltpFR	5	3	0	CONVENT	370	0	1	1	n/a	n/a	n/a	n/a	n/a
4030.668	n/a	RECOG_RESP	2015334	n/a	LTP179	ltpFR	5	3	0	CONVENT	370	0	n/a	1	n/a	n/a	n/a	n/a	n/a
4031.56	n/a	RECOG_CONF	2015780	n/a	LTP179	ltpFR	5	3	0	CONVENT	370	n/a	1	1	n/a	n/a	n/a	n/a	n/a
4033.226	n/a	RECOG_TARGET	2016613	n/a	LTP179	ltpFR	5	3	1	PERSONNEL	1053	1	4	1	n/a	n/a	n/a	n/a	n/a
4034.524	n/a	RECOG_RESP	2017262	n/a	LTP179	ltpFR	5	3	1	PERSONNEL	1053	1	n/a	1	n/a	n/a	n/a	n/a	n/a
4035.696	n/a	RECOG_CONF	2017848	n/a	LTP179	ltpFR	5	3	1	PERSONNEL	1053	n/a	4	1	n/a	n/a	n/a	n/a	n/a
4037.572	n/a	RECOG_TARGET	2018786	n/a	LTP179	ltpFR	5	3	-1	CUFF	423	1	5	-1	n/a	n/a	n/a	n/a	n/a
4038.712	n/a	RECOG_RESP	2019356	n/a	LTP179	ltpFR	5	3	-1	CUFF	423	1	n/a	-1	n/a	n/a	n/a	n/a	n/a
4039.95	n/a	RECOG_CONF	2019975	n/a	LTP179	ltpFR	5	3	-1	CUFF	423	n/a	5	-1	n/a	n/a	n/a	n/a	n/a
4053.694	n/a	REC_START	2026847	n/a	LTP179	ltpFR	5	4	n/a	n/a	n/a	n/a	n/a	n/a	n/a	n/a	n/a	n/a	n/a
4053.736	n/a	RECOG_TARGET	2026868	n/a	LTP179	ltpFR	5	4	0	WALNUT	1584	1	4	0	n/a	n/a	n/a	n/a	n/a
4055.0	n/a	RECOG_RESP	2027500	n/a	LTP179	ltpFR	5	4	0	WALNUT	1584	1	n/a	0	n/a	n/a	n/a	n/a	n/a
4056.374	n/a	RECOG_CONF	2028187	n/a	LTP179	ltpFR	5	4	0	WALNUT	1584	n/a	4	0	n/a	n/a	n/a	n/a	n/a
4058.016	n/a	RECOG_LURE	2029008	n/a	LTP179	ltpFR	5	4	n/a	CABLE	213	0	5	n/a	n/a	n/a	n/a	n/a	n/a
4059.616	n/a	RECOG_RESP	2029808	n/a	LTP179	ltpFR	5	4	n/a	CABLE	213	0	n/a	n/a	n/a	n/a	n/a	n/a	n/a
4061.144	n/a	RECOG_CONF	2030572	n/a	LTP179	ltpFR	5	4	n/a	CABLE	213	n/a	5	n/a	n/a	n/a	n/a	n/a	n/a
4062.968	n/a	RECOG_TARGET	2031484	n/a	LTP179	ltpFR	5	4	-1	ZIPPER	1636	1	2	-1	n/a	n/a	n/a	n/a	n/a
4065.114	n/a	RECOG_RESP	2032557	n/a	LTP179	ltpFR	5	4	-1	ZIPPER	1636	1	n/a	-1	n/a	n/a	n/a	n/a	n/a
4066.176	n/a	RECOG_CONF	2033088	n/a	LTP179	ltpFR	5	4	-1	ZIPPER	1636	n/a	2	-1	n/a	n/a	n/a	n/a	n/a
4068.004	n/a	RECOG_TARGET	2034002	n/a	LTP179	ltpFR	5	4	0	TIDE	1465	1	4	1	n/a	n/a	n/a	n/a	n/a
4069.06	n/a	RECOG_RESP	2034530	n/a	LTP179	ltpFR	5	4	0	TIDE	1465	1	n/a	1	n/a	n/a	n/a	n/a	n/a
4070.436	n/a	RECOG_CONF	2035218	n/a	LTP179	ltpFR	5	4	0	TIDE	1465	n/a	4	1	n/a	n/a	n/a	n/a	n/a
4072.32	n/a	RECOG_TARGET	2036160	n/a	LTP179	ltpFR	5	4	0	GENTLEMAN	631	1	5	1	n/a	n/a	n/a	n/a	n/a
4073.356	n/a	RECOG_RESP	2036678	n/a	LTP179	ltpFR	5	4	0	GENTLEMAN	631	1	n/a	1	n/a	n/a	n/a	n/a	n/a
4074.626	n/a	RECOG_CONF	2037313	n/a	LTP179	ltpFR	5	4	0	GENTLEMAN	631	n/a	5	1	n/a	n/a	n/a	n/a	n/a
4076.454	n/a	RECOG_LURE	2038227	n/a	LTP179	ltpFR	5	4	n/a	DESSERT	453	0	4	n/a	n/a	n/a	n/a	n/a	n/a
4078.682	n/a	RECOG_RESP	2039341	n/a	LTP179	ltpFR	5	4	n/a	DESSERT	453	0	n/a	n/a	n/a	n/a	n/a	n/a	n/a
4079.832	n/a	RECOG_CONF	2039916	n/a	LTP179	ltpFR	5	4	n/a	DESSERT	453	n/a	4	n/a	n/a	n/a	n/a	n/a	n/a
4081.69	n/a	RECOG_TARGET	2040845	n/a	LTP179	ltpFR	5	4	-1	ORANGE	980	1	5	-1	n/a	n/a	n/a	n/a	n/a
4082.706	n/a	RECOG_RESP	2041353	n/a	LTP179	ltpFR	5	4	-1	ORANGE	980	1	n/a	-1	n/a	n/a	n/a	n/a	n/a
4084.052	n/a	RECOG_CONF	2042026	n/a	LTP179	ltpFR	5	4	-1	ORANGE	980	n/a	5	-1	n/a	n/a	n/a	n/a	n/a
4085.69	n/a	RECOG_TARGET	2042845	n/a	LTP179	ltpFR	5	4	1	MOTOR	922	1	4	0	n/a	n/a	n/a	n/a	n/a
4086.836	n/a	RECOG_RESP	2043418	n/a	LTP179	ltpFR	5	4	1	MOTOR	922	1	n/a	0	n/a	n/a	n/a	n/a	n/a
4088.416	n/a	RECOG_CONF	2044208	n/a	LTP179	ltpFR	5	4	1	MOTOR	922	n/a	4	0	n/a	n/a	n/a	n/a	n/a
4090.276	n/a	RECOG_TARGET	2045138	n/a	LTP179	ltpFR	5	4	0	THRONE	1461	1	5	1	n/a	n/a	n/a	n/a	n/a
4091.338	n/a	RECOG_RESP	2045669	n/a	LTP179	ltpFR	5	4	0	THRONE	1461	1	n/a	1	n/a	n/a	n/a	n/a	n/a
4092.704	n/a	RECOG_CONF	2046352	n/a	LTP179	ltpFR	5	4	0	THRONE	1461	n/a	5	1	n/a	n/a	n/a	n/a	n/a
4094.624	n/a	RECOG_TARGET	2047312	n/a	LTP179	ltpFR	5	4	1	CORAL	378	1	3	1	n/a	n/a	n/a	n/a	n/a
4095.704	n/a	RECOG_RESP	2047852	n/a	LTP179	ltpFR	5	4	1	CORAL	378	1	n/a	1	n/a	n/a	n/a	n/a	n/a
4097.314	n/a	RECOG_CONF	2048657	n/a	LTP179	ltpFR	5	4	1	CORAL	378	n/a	3	1	n/a	n/a	n/a	n/a	n/a
4099.14	n/a	RECOG_TARGET	2049570	n/a	LTP179	ltpFR	5	4	-1	OFFICER	973	1	5	-1	n/a	n/a	n/a	n/a	n/a
4102.412	n/a	RECOG_RESP	2051206	n/a	LTP179	ltpFR	5	4	-1	OFFICER	973	1	n/a	-1	n/a	n/a	n/a	n/a	n/a
4103.668	n/a	RECOG_CONF	2051834	n/a	LTP179	ltpFR	5	4	-1	OFFICER	973	n/a	5	-1	n/a	n/a	n/a	n/a	n/a
4105.464	n/a	RECOG_LURE	2052732	n/a	LTP179	ltpFR	5	4	n/a	JAR	750	0	2	n/a	n/a	n/a	n/a	n/a	n/a
4109.458	n/a	RECOG_RESP	2054729	n/a	LTP179	ltpFR	5	4	n/a	JAR	750	0	n/a	n/a	n/a	n/a	n/a	n/a	n/a
4110.91	n/a	RECOG_CONF	2055455	n/a	LTP179	ltpFR	5	4	n/a	JAR	750	n/a	2	n/a	n/a	n/a	n/a	n/a	n/a
4112.676	n/a	RECOG_TARGET	2056338	n/a	LTP179	ltpFR	5	4	1	GRASSHOPPER	656	1	5	1	n/a	n/a	n/a	n/a	n/a
4113.736	n/a	RECOG_RESP	2056868	n/a	LTP179	ltpFR	5	4	1	GRASSHOPPER	656	1	n/a	1	n/a	n/a	n/a	n/a	n/a
4115.306	n/a	RECOG_CONF	2057653	n/a	LTP179	ltpFR	5	4	1	GRASSHOPPER	656	n/a	5	1	n/a	n/a	n/a	n/a	n/a
4117.158	n/a	RECOG_TARGET	2058579	n/a	LTP179	ltpFR	5	4	1	IGLOO	734	1	5	0	n/a	n/a	n/a	n/a	n/a
4119.378	n/a	RECOG_RESP	2059689	n/a	LTP179	ltpFR	5	4	1	IGLOO	734	1	n/a	0	n/a	n/a	n/a	n/a	n/a
4120.76	n/a	RECOG_CONF	2060380	n/a	LTP179	ltpFR	5	4	1	IGLOO	734	n/a	5	0	n/a	n/a	n/a	n/a	n/a
4122.548	n/a	RECOG_TARGET	2061274	n/a	LTP179	ltpFR	5	4	0	MANSION	864	1	5	1	n/a	n/a	n/a	n/a	n/a
4123.61	n/a	RECOG_RESP	2061805	n/a	LTP179	ltpFR	5	4	0	MANSION	864	1	n/a	1	n/a	n/a	n/a	n/a	n/a
4125.06	n/a	RECOG_CONF	2062530	n/a	LTP179	ltpFR	5	4	0	MANSION	864	n/a	5	1	n/a	n/a	n/a	n/a	n/a
4126.93	n/a	RECOG_TARGET	2063465	n/a	LTP179	ltpFR	5	4	0	CARD	243	1	2	0	n/a	n/a	n/a	n/a	n/a
4131.476	n/a	RECOG_RESP	2065738	n/a	LTP179	ltpFR	5	4	0	CARD	243	1	n/a	0	n/a	n/a	n/a	n/a	n/a
4132.63	n/a	RECOG_CONF	2066315	n/a	LTP179	ltpFR	5	4	0	CARD	243	n/a	2	0	n/a	n/a	n/a	n/a	n/a
4134.508	n/a	RECOG_TARGET	2067254	n/a	LTP179	ltpFR	5	4	0	COPIER	377	1	4	1	n/a	n/a	n/a	n/a	n/a
4135.54	n/a	RECOG_RESP	2067770	n/a	LTP179	ltpFR	5	4	0	COPIER	377	1	n/a	1	n/a	n/a	n/a	n/a	n/a
4137.004	n/a	RECOG_CONF	2068502	n/a	LTP179	ltpFR	5	4	0	COPIER	377	n/a	4	1	n/a	n/a	n/a	n/a	n/a
4138.942	n/a	RECOG_TARGET	2069471	n/a	LTP179	ltpFR	5	4	1	SEAT	1264	1	2	0	n/a	n/a	n/a	n/a	n/a
4143.268	n/a	RECOG_RESP	2071634	n/a	LTP179	ltpFR	5	4	1	SEAT	1264	1	n/a	0	n/a	n/a	n/a	n/a	n/a
4144.422	n/a	RECOG_CONF	2072211	n/a	LTP179	ltpFR	5	4	1	SEAT	1264	n/a	2	0	n/a	n/a	n/a	n/a	n/a
4146.27	n/a	RECOG_TARGET	2073135	n/a	LTP179	ltpFR	5	4	1	FLOOR	581	1	4	0	n/a	n/a	n/a	n/a	n/a
4148.618	n/a	RECOG_RESP	2074309	n/a	LTP179	ltpFR	5	4	1	FLOOR	581	1	n/a	0	n/a	n/a	n/a	n/a	n/a
4149.722	n/a	RECOG_CONF	2074861	n/a	LTP179	ltpFR	5	4	1	FLOOR	581	n/a	4	0	n/a	n/a	n/a	n/a	n/a
4151.558	n/a	RECOG_LURE	2075779	n/a	LTP179	ltpFR	5	4	n/a	PHYSICIAN	1056	0	4	n/a	n/a	n/a	n/a	n/a	n/a
4154.078	n/a	RECOG_RESP	2077039	n/a	LTP179	ltpFR	5	4	n/a	PHYSICIAN	1056	0	n/a	n/a	n/a	n/a	n/a	n/a	n/a
4155.266	n/a	RECOG_CONF	2077633	n/a	LTP179	ltpFR	5	4	n/a	PHYSICIAN	1056	n/a	4	n/a	n/a	n/a	n/a	n/a	n/a
4167.018	n/a	REC_START	2083509	n/a	LTP179	ltpFR	5	5	n/a	n/a	n/a	n/a	n/a	n/a	n/a	n/a	n/a	n/a	n/a
4167.066	n/a	RECOG_TARGET	2083533	n/a	LTP179	ltpFR	5	5	-1	ACORN	3	1	5	-1	n/a	n/a	n/a	n/a	n/a
4168.276	n/a	RECOG_RESP	2084138	n/a	LTP179	ltpFR	5	5	-1	ACORN	3	1	n/a	-1	n/a	n/a	n/a	n/a	n/a
4169.616	n/a	RECOG_CONF	2084808	n/a	LTP179	ltpFR	5	5	-1	ACORN	3	n/a	5	-1	n/a	n/a	n/a	n/a	n/a
4171.316	n/a	RECOG_TARGET	2085658	n/a	LTP179	ltpFR	5	5	1	MOTH	920	1	5	1	n/a	n/a	n/a	n/a	n/a
4172.496	n/a	RECOG_RESP	2086248	n/a	LTP179	ltpFR	5	5	1	MOTH	920	1	n/a	1	n/a	n/a	n/a	n/a	n/a
4174.046	n/a	RECOG_CONF	2087023	n/a	LTP179	ltpFR	5	5	1	MOTH	920	n/a	5	1	n/a	n/a	n/a	n/a	n/a
4175.736	n/a	RECOG_TARGET	2087868	n/a	LTP179	ltpFR	5	5	1	MERMAID	887	1	5	0	n/a	n/a	n/a	n/a	n/a
4176.776	n/a	RECOG_RESP	2088388	n/a	LTP179	ltpFR	5	5	1	MERMAID	887	1	n/a	0	n/a	n/a	n/a	n/a	n/a
4178.006	n/a	RECOG_CONF	2089003	n/a	LTP179	ltpFR	5	5	1	MERMAID	887	n/a	5	0	n/a	n/a	n/a	n/a	n/a
4179.898	n/a	RECOG_TARGET	2089949	n/a	LTP179	ltpFR	5	5	-1	VELVET	1555	1	5	-1	n/a	n/a	n/a	n/a	n/a
4181.256	n/a	RECOG_RESP	2090628	n/a	LTP179	ltpFR	5	5	-1	VELVET	1555	1	n/a	-1	n/a	n/a	n/a	n/a	n/a
4182.632	n/a	RECOG_CONF	2091316	n/a	LTP179	ltpFR	5	5	-1	VELVET	1555	n/a	5	-1	n/a	n/a	n/a	n/a	n/a
4184.518	n/a	RECOG_TARGET	2092259	n/a	LTP179	ltpFR	5	5	0	PIG	1064	1	5	1	n/a	n/a	n/a	n/a	n/a
4185.578	n/a	RECOG_RESP	2092789	n/a	LTP179	ltpFR	5	5	0	PIG	1064	1	n/a	1	n/a	n/a	n/a	n/a	n/a
4187.088	n/a	RECOG_CONF	2093544	n/a	LTP179	ltpFR	5	5	0	PIG	1064	n/a	5	1	n/a	n/a	n/a	n/a	n/a
4188.75	n/a	RECOG_TARGET	2094375	n/a	LTP179	ltpFR	5	5	0	CABIN	211	0	1	1	n/a	n/a	n/a	n/a	n/a
4195.88	n/a	RECOG_RESP	2097940	n/a	LTP179	ltpFR	5	5	0	CABIN	211	0	n/a	1	n/a	n/a	n/a	n/a	n/a
4197.02	n/a	RECOG_CONF	2098510	n/a	LTP179	ltpFR	5	5	0	CABIN	211	n/a	1	1	n/a	n/a	n/a	n/a	n/a
4198.754	n/a	RECOG_LURE	2099377	n/a	LTP179	ltpFR	5	5	n/a	MUSTARD	935	0	2	n/a	n/a	n/a	n/a	n/a	n/a
4200.04	n/a	RECOG_RESP	2100020	n/a	LTP179	ltpFR	5	5	n/a	MUSTARD	935	0	n/a	n/a	n/a	n/a	n/a	n/a	n/a
4201.414	n/a	RECOG_CONF	2100707	n/a	LTP179	ltpFR	5	5	n/a	MUSTARD	935	n/a	2	n/a	n/a	n/a	n/a	n/a	n/a
4203.054	n/a	RECOG_TARGET	2101527	n/a	LTP179	ltpFR	5	5	0	CAPITAL	238	1	4	1	n/a	n/a	n/a	n/a	n/a
4206.772	n/a	RECOG_RESP	2103386	n/a	LTP179	ltpFR	5	5	0	CAPITAL	238	1	n/a	1	n/a	n/a	n/a	n/a	n/a
4207.886	n/a	RECOG_CONF	2103943	n/a	LTP179	ltpFR	5	5	0	CAPITAL	238	n/a	4	1	n/a	n/a	n/a	n/a	n/a
4209.714	n/a	RECOG_TARGET	2104857	n/a	LTP179	ltpFR	5	5	1	REEF	1177	1	3	1	n/a	n/a	n/a	n/a	n/a
4211.114	n/a	RECOG_RESP	2105557	n/a	LTP179	ltpFR	5	5	1	REEF	1177	1	n/a	1	n/a	n/a	n/a	n/a	n/a
4212.24	n/a	RECOG_CONF	2106120	n/a	LTP179	ltpFR	5	5	1	REEF	1177	n/a	3	1	n/a	n/a	n/a	n/a	n/a
4214.282	n/a	RECOG_TARGET	2107141	n/a	LTP179	ltpFR	5	5	-1	RICE	1190	1	5	-1	n/a	n/a	n/a	n/a	n/a
4215.602	n/a	RECOG_RESP	2107801	n/a	LTP179	ltpFR	5	5	-1	RICE	1190	1	n/a	-1	n/a	n/a	n/a	n/a	n/a
4217.26	n/a	RECOG_CONF	2108630	n/a	LTP179	ltpFR	5	5	-1	RICE	1190	n/a	5	-1	n/a	n/a	n/a	n/a	n/a
4219.232	n/a	RECOG_TARGET	2109616	n/a	LTP179	ltpFR	5	5	-1	CREAM	402	1	5	-1	n/a	n/a	n/a	n/a	n/a
4220.592	n/a	RECOG_RESP	2110296	n/a	LTP179	ltpFR	5	5	-1	CREAM	402	1	n/a	-1	n/a	n/a	n/a	n/a	n/a
4222.09	n/a	RECOG_CONF	2111045	n/a	LTP179	ltpFR	5	5	-1	CREAM	402	n/a	5	-1	n/a	n/a	n/a	n/a	n/a
4223.918	n/a	RECOG_LURE	2111959	n/a	LTP179	ltpFR	5	5	n/a	ASHTRAY	45	0	5	n/a	n/a	n/a	n/a	n/a	n/a
4225.258	n/a	RECOG_RESP	2112629	n/a	LTP179	ltpFR	5	5	n/a	ASHTRAY	45	0	n/a	n/a	n/a	n/a	n/a	n/a	n/a
4226.452	n/a	RECOG_CONF	2113226	n/a	LTP179	ltpFR	5	5	n/a	ASHTRAY	45	n/a	5	n/a	n/a	n/a	n/a	n/a	n/a
4228.2	n/a	RECOG_TARGET	2114100	n/a	LTP179	ltpFR	5	5	1	PICTURE	1061	0	2	0	n/a	n/a	n/a	n/a	n/a
4230.998	n/a	RECOG_RESP	2115499	n/a	LTP179	ltpFR	5	5	1	PICTURE	1061	0	n/a	0	n/a	n/a	n/a	n/a	n/a
4232.21	n/a	RECOG_CONF	2116105	n/a	LTP179	ltpFR	5	5	1	PICTURE	1061	n/a	2	0	n/a	n/a	n/a	n/a	n/a
4233.938	n/a	RECOG_TARGET	2116969	n/a	LTP179	ltpFR	5	5	0	WOMAN	1620	1	5	1	n/a	n/a	n/a	n/a	n/a
4235.082	n/a	RECOG_RESP	2117541	n/a	LTP179	ltpFR	5	5	0	WOMAN	1620	1	n/a	1	n/a	n/a	n/a	n/a	n/a
4236.488	n/a	RECOG_CONF	2118244	n/a	LTP179	ltpFR	5	5	0	WOMAN	1620	n/a	5	1	n/a	n/a	n/a	n/a	n/a
4238.354	n/a	RECOG_LURE	2119177	n/a	LTP179	ltpFR	5	5	n/a	PAWN	1030	0	3	n/a	n/a	n/a	n/a	n/a	n/a
4240.896	n/a	RECOG_RESP	2120448	n/a	LTP179	ltpFR	5	5	n/a	PAWN	1030	0	n/a	n/a	n/a	n/a	n/a	n/a	n/a
4242.102	n/a	RECOG_CONF	2121051	n/a	LTP179	ltpFR	5	5	n/a	PAWN	1030	n/a	3	n/a	n/a	n/a	n/a	n/a	n/a
4243.948	n/a	RECOG_LURE	2121974	n/a	LTP179	ltpFR	5	5	n/a	OYSTER	995	0	3	n/a	n/a	n/a	n/a	n/a	n/a
4245.66	n/a	RECOG_RESP	2122830	n/a	LTP179	ltpFR	5	5	n/a	OYSTER	995	0	n/a	n/a	n/a	n/a	n/a	n/a	n/a
4246.894	n/a	RECOG_CONF	2123447	n/a	LTP179	ltpFR	5	5	n/a	OYSTER	995	n/a	3	n/a	n/a	n/a	n/a	n/a	n/a
4248.762	n/a	RECOG_LURE	2124381	n/a	LTP179	ltpFR	5	5	n/a	STRING	1394	0	1	n/a	n/a	n/a	n/a	n/a	n/a
4259.708	n/a	RECOG_RESP	2129854	n/a	LTP179	ltpFR	5	5	n/a	STRING	1394	0	n/a	n/a	n/a	n/a	n/a	n/a	n/a
4260.744	n/a	RECOG_CONF	2130372	n/a	LTP179	ltpFR	5	5	n/a	STRING	1394	n/a	1	n/a	n/a	n/a	n/a	n/a	n/a
4262.748	n/a	RECOG_TARGET	2131374	n/a	LTP179	ltpFR	5	5	0	DIGGER	464	1	5	1	n/a	n/a	n/a	n/a	n/a
4264.222	n/a	RECOG_RESP	2132111	n/a	LTP179	ltpFR	5	5	0	DIGGER	464	1	n/a	1	n/a	n/a	n/a	n/a	n/a
