onset	duration	trial_type	sample	stim_file	subject	experiment	session	trial	task	item_name	item_num	recog_resp	recog_conf	resp	answer	test_x	test_y	test_z	color_r	color_g	color_b	case	font
248.028	n/a	SESS_START	124014	n/a	LTP253	ltpFR	11	n/a	n/a	n/a	n/a	0	n/a	n/a	n/a	0	0	0	n/a	n/a	n/a	n/a	n/a
279.972	n/a	START	139986	n/a	LTP253	ltpFR	11	n/a	n/a	n/a	n/a	n/a	n/a	n/a	n/a	n/a	n/a	n/a	n/a	n/a	n/a	n/a	n/a
280.004	n/a	PROB	140002	n/a	LTP253	ltpFR	11	n/a	n/a	n/a	n/a	n/a	n/a	n/a	17	1	9	7	n/a	n/a	n/a	n/a	n/a
282.368	n/a	PROB	141184	n/a	LTP253	ltpFR	11	n/a	n/a	n/a	n/a	n/a	n/a	n/a	12	3	3	6	n/a	n/a	n/a	n/a	n/a
284.398	n/a	PROB	142199	n/a	LTP253	ltpFR	11	n/a	n/a	n/a	n/a	n/a	n/a	n/a	15	5	5	5	n/a	n/a	n/a	n/a	n/a
285.596	n/a	PROB	142798	n/a	LTP253	ltpFR	11	n/a	n/a	n/a	n/a	n/a	n/a	n/a	7	4	2	1	n/a	n/a	n/a	n/a	n/a
286.894	n/a	PROB	143447	n/a	LTP253	ltpFR	11	n/a	n/a	n/a	n/a	n/a	n/a	n/a	14	7	4	3	n/a	n/a	n/a	n/a	n/a
288.626	n/a	PROB	144313	n/a	LTP253	ltpFR	11	n/a	n/a	n/a	n/a	n/a	n/a	n/a	17	9	6	2	n/a	n/a	n/a	n/a	n/a
290.456	n/a	PROB	145228	n/a	LTP253	ltpFR	11	n/a	n/a	n/a	n/a	n/a	n/a	n/a	17	1	7	9	n/a	n/a	n/a	n/a	n/a
292.104	n/a	PROB	146052	n/a	LTP253	ltpFR	11	n/a	n/a	n/a	n/a	n/a	n/a	n/a	16	6	8	2	n/a	n/a	n/a	n/a	n/a
294.534	n/a	PROB	147267	n/a	LTP253	ltpFR	11	n/a	n/a	n/a	n/a	n/a	n/a	n/a	10	8	1	1	n/a	n/a	n/a	n/a	n/a
295.766	n/a	PROB	147883	n/a	LTP253	ltpFR	11	n/a	n/a	n/a	n/a	n/a	n/a	n/a	7	2	2	3	n/a	n/a	n/a	n/a	n/a
297.68	n/a	PROB	148840	n/a	LTP253	ltpFR	11	n/a	n/a	n/a	n/a	n/a	n/a	n/a	20	8	3	9	n/a	n/a	n/a	n/a	n/a
299.368	n/a	STOP	149684	n/a	LTP253	ltpFR	11	n/a	n/a	n/a	n/a	n/a	n/a	n/a	n/a	n/a	n/a	n/a	n/a	n/a	n/a	n/a	n/a
330.764	n/a	START	165382	n/a	LTP253	ltpFR	11	n/a	n/a	n/a	n/a	n/a	n/a	n/a	n/a	n/a	n/a	n/a	n/a	n/a	n/a	n/a	n/a
332.278	n/a	PROB	166139	n/a	LTP253	ltpFR	11	n/a	n/a	n/a	n/a	n/a	n/a	n/a	16	9	2	5	n/a	n/a	n/a	n/a	n/a
334.076	n/a	PROB	167038	n/a	LTP253	ltpFR	11	n/a	n/a	n/a	n/a	n/a	n/a	n/a	6	3	1	2	n/a	n/a	n/a	n/a	n/a
335.938	n/a	PROB	167969	n/a	LTP253	ltpFR	11	n/a	n/a	n/a	n/a	n/a	n/a	n/a	12	9	1	2	n/a	n/a	n/a	n/a	n/a
337.254	n/a	PROB	168627	n/a	LTP253	ltpFR	11	n/a	n/a	n/a	n/a	n/a	n/a	n/a	14	4	3	7	n/a	n/a	n/a	n/a	n/a
338.64	n/a	STOP	169320	n/a	LTP253	ltpFR	11	n/a	n/a	n/a	n/a	n/a	n/a	n/a	n/a	n/a	n/a	n/a	n/a	n/a	n/a	n/a	n/a
339.616	n/a	WORD	169808	wordpools/wasnorm_wordpool_less_exclusions.txt	LTP253	ltpFR	11	1	0	HAT	690	n/a	n/a	0	n/a	0	0	0	0.422607421875	0.5869140625	0	lower	zerothre.ttf
342.63	n/a	START	171315	n/a	LTP253	ltpFR	11	n/a	n/a	n/a	n/a	n/a	n/a	n/a	n/a	n/a	n/a	n/a	n/a	n/a	n/a	n/a	n/a
343.828	n/a	PROB	171914	n/a	LTP253	ltpFR	11	n/a	n/a	n/a	n/a	n/a	n/a	n/a	10	1	5	4	n/a	n/a	n/a	n/a	n/a
345.226	n/a	PROB	172613	n/a	LTP253	ltpFR	11	n/a	n/a	n/a	n/a	n/a	n/a	n/a	6	2	3	1	n/a	n/a	n/a	n/a	n/a
346.656	n/a	PROB	173328	n/a	LTP253	ltpFR	11	n/a	n/a	n/a	n/a	n/a	n/a	n/a	24	9	6	9	n/a	n/a	n/a	n/a	n/a
348.42	n/a	PROB	174210	n/a	LTP253	ltpFR	11	n/a	n/a	n/a	n/a	n/a	n/a	n/a	11	5	1	5	n/a	n/a	n/a	n/a	n/a
349.56	n/a	STOP	174780	n/a	LTP253	ltpFR	11	n/a	n/a	n/a	n/a	n/a	n/a	n/a	n/a	n/a	n/a	n/a	n/a	n/a	n/a	n/a	n/a
351.45	n/a	WORD	175725	wordpools/wasnorm_wordpool_less_exclusions.txt	LTP253	ltpFR	11	1	0	BRANCH	168	n/a	n/a	1	n/a	0	0	0	0.422607421875	0.5869140625	0	lower	zerothre.ttf
354.462	n/a	START	177231	n/a	LTP253	ltpFR	11	n/a	n/a	n/a	n/a	n/a	n/a	n/a	n/a	n/a	n/a	n/a	n/a	n/a	n/a	n/a	n/a
355.494	n/a	PROB	177747	n/a	LTP253	ltpFR	11	n/a	n/a	n/a	n/a	n/a	n/a	n/a	15	6	3	6	n/a	n/a	n/a	n/a	n/a
357.09	n/a	PROB	178545	n/a	LTP253	ltpFR	11	n/a	n/a	n/a	n/a	n/a	n/a	n/a	13	6	1	6	n/a	n/a	n/a	n/a	n/a
358.822	n/a	PROB	179411	n/a	LTP253	ltpFR	11	n/a	n/a	n/a	n/a	n/a	n/a	n/a	19	8	4	7	n/a	n/a	n/a	n/a	n/a
362.462	n/a	STOP	181231	n/a	LTP253	ltpFR	11	n/a	n/a	n/a	n/a	n/a	n/a	n/a	n/a	n/a	n/a	n/a	n/a	n/a	n/a	n/a	n/a
363.666	n/a	WORD	181833	wordpools/wasnorm_wordpool_less_exclusions.txt	LTP253	ltpFR	11	1	0	BROCCOLI	176	n/a	n/a	0	n/a	0	0	0	0.422607421875	0.5869140625	0	lower	zerothre.ttf
366.678	n/a	START	183339	n/a	LTP253	ltpFR	11	n/a	n/a	n/a	n/a	n/a	n/a	n/a	n/a	n/a	n/a	n/a	n/a	n/a	n/a	n/a	n/a
367.66	n/a	PROB	183830	n/a	LTP253	ltpFR	11	n/a	n/a	n/a	n/a	n/a	n/a	n/a	14	8	2	4	n/a	n/a	n/a	n/a	n/a
369.356	n/a	PROB	184678	n/a	LTP253	ltpFR	11	n/a	n/a	n/a	n/a	n/a	n/a	n/a	12	4	7	1	n/a	n/a	n/a	n/a	n/a
371.254	n/a	PROB	185627	n/a	LTP253	ltpFR	11	n/a	n/a	n/a	n/a	n/a	n/a	n/a	6	3	1	2	n/a	n/a	n/a	n/a	n/a
373.168	n/a	STOP	186584	n/a	LTP253	ltpFR	11	n/a	n/a	n/a	n/a	n/a	n/a	n/a	n/a	n/a	n/a	n/a	n/a	n/a	n/a	n/a	n/a
375.53	n/a	WORD	187765	wordpools/wasnorm_wordpool_less_exclusions.txt	LTP253	ltpFR	11	1	0	FLY	586	n/a	n/a	0	n/a	0	0	0	0.422607421875	0.5869140625	0	lower	zerothre.ttf
378.544	n/a	START	189272	n/a	LTP253	ltpFR	11	n/a	n/a	n/a	n/a	n/a	n/a	n/a	n/a	n/a	n/a	n/a	n/a	n/a	n/a	n/a	n/a
379.608	n/a	PROB	189804	n/a	LTP253	ltpFR	11	n/a	n/a	n/a	n/a	n/a	n/a	n/a	13	5	6	2	n/a	n/a	n/a	n/a	n/a
381.072	n/a	PROB	190536	n/a	LTP253	ltpFR	11	n/a	n/a	n/a	n/a	n/a	n/a	n/a	14	6	5	3	n/a	n/a	n/a	n/a	n/a
382.686	n/a	PROB	191343	n/a	LTP253	ltpFR	11	n/a	n/a	n/a	n/a	n/a	n/a	n/a	11	1	4	6	n/a	n/a	n/a	n/a	n/a
384.034	n/a	PROB	192017	n/a	LTP253	ltpFR	11	n/a	n/a	n/a	n/a	n/a	n/a	n/a	12	1	5	6	n/a	n/a	n/a	n/a	n/a
385.464	n/a	STOP	192732	n/a	LTP253	ltpFR	11	n/a	n/a	n/a	n/a	n/a	n/a	n/a	n/a	n/a	n/a	n/a	n/a	n/a	n/a	n/a	n/a
387.562	n/a	WORD	193781	wordpools/wasnorm_wordpool_less_exclusions.txt	LTP253	ltpFR	11	1	0	NUCLEUS	961	n/a	n/a	0	n/a	0	0	0	0.422607421875	0.5869140625	0	lower	zerothre.ttf
390.576	n/a	START	195288	n/a	LTP253	ltpFR	11	n/a	n/a	n/a	n/a	n/a	n/a	n/a	n/a	n/a	n/a	n/a	n/a	n/a	n/a	n/a	n/a
391.49	n/a	PROB	195745	n/a	LTP253	ltpFR	11	n/a	n/a	n/a	n/a	n/a	n/a	n/a	22	9	9	4	n/a	n/a	n/a	n/a	n/a
393.004	n/a	PROB	196502	n/a	LTP253	ltpFR	11	n/a	n/a	n/a	n/a	n/a	n/a	n/a	15	4	2	9	n/a	n/a	n/a	n/a	n/a
395.036	n/a	PROB	197518	n/a	LTP253	ltpFR	11	n/a	n/a	n/a	n/a	n/a	n/a	n/a	9	5	3	1	n/a	n/a	n/a	n/a	n/a
396.334	n/a	PROB	198167	n/a	LTP253	ltpFR	11	n/a	n/a	n/a	n/a	n/a	n/a	n/a	17	6	9	2	n/a	n/a	n/a	n/a	n/a
397.984	n/a	STOP	198992	n/a	LTP253	ltpFR	11	n/a	n/a	n/a	n/a	n/a	n/a	n/a	n/a	n/a	n/a	n/a	n/a	n/a	n/a	n/a	n/a
399.428	n/a	WORD	199714	wordpools/wasnorm_wordpool_less_exclusions.txt	LTP253	ltpFR	11	1	0	BAY	102	n/a	n/a	1	n/a	0	0	0	0.422607421875	0.5869140625	0	lower	zerothre.ttf
402.442	n/a	START	201221	n/a	LTP253	ltpFR	11	n/a	n/a	n/a	n/a	n/a	n/a	n/a	n/a	n/a	n/a	n/a	n/a	n/a	n/a	n/a	n/a
403.34	n/a	PROB	201670	n/a	LTP253	ltpFR	11	n/a	n/a	n/a	n/a	n/a	n/a	n/a	16	9	4	3	n/a	n/a	n/a	n/a	n/a
405.486	n/a	PROB	202743	n/a	LTP253	ltpFR	11	n/a	n/a	n/a	n/a	n/a	n/a	n/a	11	6	4	1	n/a	n/a	n/a	n/a	n/a
406.734	n/a	PROB	203367	n/a	LTP253	ltpFR	11	n/a	n/a	n/a	n/a	n/a	n/a	n/a	13	4	8	1	n/a	n/a	n/a	n/a	n/a
408.532	n/a	PROB	204266	n/a	LTP253	ltpFR	11	n/a	n/a	n/a	n/a	n/a	n/a	n/a	12	3	2	7	n/a	n/a	n/a	n/a	n/a
410.0	n/a	STOP	205000	n/a	LTP253	ltpFR	11	n/a	n/a	n/a	n/a	n/a	n/a	n/a	n/a	n/a	n/a	n/a	n/a	n/a	n/a	n/a	n/a
411.328	n/a	WORD	205664	wordpools/wasnorm_wordpool_less_exclusions.txt	LTP253	ltpFR	11	1	0	MOB	904	n/a	n/a	1	n/a	0	0	0	0.422607421875	0.5869140625	0	lower	zerothre.ttf
414.34	n/a	START	207170	n/a	LTP253	ltpFR	11	n/a	n/a	n/a	n/a	n/a	n/a	n/a	n/a	n/a	n/a	n/a	n/a	n/a	n/a	n/a	n/a
415.322	n/a	PROB	207661	n/a	LTP253	ltpFR	11	n/a	n/a	n/a	n/a	n/a	n/a	n/a	22	8	8	6	n/a	n/a	n/a	n/a	n/a
419.848	n/a	PROB	209924	n/a	LTP253	ltpFR	11	n/a	n/a	n/a	n/a	n/a	n/a	n/a	10	2	6	2	n/a	n/a	n/a	n/a	n/a
421.296	n/a	STOP	210648	n/a	LTP253	ltpFR	11	n/a	n/a	n/a	n/a	n/a	n/a	n/a	n/a	n/a	n/a	n/a	n/a	n/a	n/a	n/a	n/a
423.244	n/a	WORD	211622	wordpools/wasnorm_wordpool_less_exclusions.txt	LTP253	ltpFR	11	1	0	TYPEWRITER	1531	n/a	n/a	0	n/a	0	0	0	0.422607421875	0.5869140625	0	lower	zerothre.ttf
426.256	n/a	START	213128	n/a	LTP253	ltpFR	11	n/a	n/a	n/a	n/a	n/a	n/a	n/a	n/a	n/a	n/a	n/a	n/a	n/a	n/a	n/a	n/a
427.088	n/a	PROB	213544	n/a	LTP253	ltpFR	11	n/a	n/a	n/a	n/a	n/a	n/a	n/a	10	6	2	2	n/a	n/a	n/a	n/a	n/a
428.452	n/a	PROB	214226	n/a	LTP253	ltpFR	11	n/a	n/a	n/a	n/a	n/a	n/a	n/a	18	7	4	7	n/a	n/a	n/a	n/a	n/a
430.018	n/a	PROB	215009	n/a	LTP253	ltpFR	11	n/a	n/a	n/a	n/a	n/a	n/a	n/a	10	6	1	3	n/a	n/a	n/a	n/a	n/a
431.58	n/a	PROB	215790	n/a	LTP253	ltpFR	11	n/a	n/a	n/a	n/a	n/a	n/a	n/a	15	2	6	7	n/a	n/a	n/a	n/a	n/a
433.41	n/a	STOP	216705	n/a	LTP253	ltpFR	11	n/a	n/a	n/a	n/a	n/a	n/a	n/a	n/a	n/a	n/a	n/a	n/a	n/a	n/a	n/a	n/a
435.16	n/a	WORD	217580	wordpools/wasnorm_wordpool_less_exclusions.txt	LTP253	ltpFR	11	1	0	BAG	69	n/a	n/a	0	n/a	0	0	0	0.422607421875	0.5869140625	0	lower	zerothre.ttf
438.172	n/a	START	219086	n/a	LTP253	ltpFR	11	n/a	n/a	n/a	n/a	n/a	n/a	n/a	n/a	n/a	n/a	n/a	n/a	n/a	n/a	n/a	n/a
439.286	n/a	PROB	219643	n/a	LTP253	ltpFR	11	n/a	n/a	n/a	n/a	n/a	n/a	n/a	15	2	9	4	n/a	n/a	n/a	n/a	n/a
441.434	n/a	PROB	220717	n/a	LTP253	ltpFR	11	n/a	n/a	n/a	n/a	n/a	n/a	n/a	19	8	9	2	n/a	n/a	n/a	n/a	n/a
443.298	n/a	PROB	221649	n/a	LTP253	ltpFR	11	n/a	n/a	n/a	n/a	n/a	n/a	n/a	17	2	7	8	n/a	n/a	n/a	n/a	n/a
444.69	n/a	STOP	222345	n/a	LTP253	ltpFR	11	n/a	n/a	n/a	n/a	n/a	n/a	n/a	n/a	n/a	n/a	n/a	n/a	n/a	n/a	n/a	n/a
447.108	n/a	WORD	223554	wordpools/wasnorm_wordpool_less_exclusions.txt	LTP253	ltpFR	11	1	0	WARRIOR	1589	n/a	n/a	1	n/a	0	0	0	0.422607421875	0.5869140625	0	lower	zerothre.ttf
450.12	n/a	START	225060	n/a	LTP253	ltpFR	11	n/a	n/a	n/a	n/a	n/a	n/a	n/a	n/a	n/a	n/a	n/a	n/a	n/a	n/a	n/a	n/a
450.986	n/a	PROB	225493	n/a	LTP253	ltpFR	11	n/a	n/a	n/a	n/a	n/a	n/a	n/a	20	3	9	8	n/a	n/a	n/a	n/a	n/a
452.55	n/a	PROB	226275	n/a	LTP253	ltpFR	11	n/a	n/a	n/a	n/a	n/a	n/a	n/a	18	6	4	8	n/a	n/a	n/a	n/a	n/a
454.846	n/a	PROB	227423	n/a	LTP253	ltpFR	11	n/a	n/a	n/a	n/a	n/a	n/a	n/a	14	5	1	8	n/a	n/a	n/a	n/a	n/a
458.12	n/a	STOP	229060	n/a	LTP253	ltpFR	11	n/a	n/a	n/a	n/a	n/a	n/a	n/a	n/a	n/a	n/a	n/a	n/a	n/a	n/a	n/a	n/a
459.29	n/a	WORD	229645	wordpools/wasnorm_wordpool_less_exclusions.txt	LTP253	ltpFR	11	1	0	PLANT	1083	n/a	n/a	0	n/a	0	0	0	0.422607421875	0.5869140625	0	lower	zerothre.ttf
462.302	n/a	START	231151	n/a	LTP253	ltpFR	11	n/a	n/a	n/a	n/a	n/a	n/a	n/a	n/a	n/a	n/a	n/a	n/a	n/a	n/a	n/a	n/a
463.152	n/a	PROB	231576	n/a	LTP253	ltpFR	11	n/a	n/a	n/a	n/a	n/a	n/a	n/a	16	6	1	9	n/a	n/a	n/a	n/a	n/a
465.332	n/a	PROB	232666	n/a	LTP253	ltpFR	11	n/a	n/a	n/a	n/a	n/a	n/a	n/a	23	9	6	8	n/a	n/a	n/a	n/a	n/a
467.678	n/a	PROB	233839	n/a	LTP253	ltpFR	11	n/a	n/a	n/a	n/a	n/a	n/a	n/a	13	3	1	9	n/a	n/a	n/a	n/a	n/a
469.266	n/a	STOP	234633	n/a	LTP253	ltpFR	11	n/a	n/a	n/a	n/a	n/a	n/a	n/a	n/a	n/a	n/a	n/a	n/a	n/a	n/a	n/a	n/a
471.422	n/a	WORD	235711	wordpools/wasnorm_wordpool_less_exclusions.txt	LTP253	ltpFR	11	1	0	KNOB	787	n/a	n/a	0	n/a	0	0	0	0.422607421875	0.5869140625	0	lower	zerothre.ttf
474.434	n/a	START	237217	n/a	LTP253	ltpFR	11	n/a	n/a	n/a	n/a	n/a	n/a	n/a	n/a	n/a	n/a	n/a	n/a	n/a	n/a	n/a	n/a
475.466	n/a	PROB	237733	n/a	LTP253	ltpFR	11	n/a	n/a	n/a	n/a	n/a	n/a	n/a	21	9	9	3	n/a	n/a	n/a	n/a	n/a
476.93	n/a	PROB	238465	n/a	LTP253	ltpFR	11	n/a	n/a	n/a	n/a	n/a	n/a	n/a	8	3	2	3	n/a	n/a	n/a	n/a	n/a
478.578	n/a	PROB	239289	n/a	LTP253	ltpFR	11	n/a	n/a	n/a	n/a	n/a	n/a	n/a	9	2	3	4	n/a	n/a	n/a	n/a	n/a
482.434	n/a	STOP	241217	n/a	LTP253	ltpFR	11	n/a	n/a	n/a	n/a	n/a	n/a	n/a	n/a	n/a	n/a	n/a	n/a	n/a	n/a	n/a	n/a
483.538	n/a	WORD	241769	wordpools/wasnorm_wordpool_less_exclusions.txt	LTP253	ltpFR	11	1	0	MAT	877	n/a	n/a	0	n/a	0	0	0	0.422607421875	0.5869140625	0	lower	zerothre.ttf
486.55	n/a	START	243275	n/a	LTP253	ltpFR	11	n/a	n/a	n/a	n/a	n/a	n/a	n/a	n/a	n/a	n/a	n/a	n/a	n/a	n/a	n/a	n/a
487.564	n/a	PROB	243782	n/a	LTP253	ltpFR	11	n/a	n/a	n/a	n/a	n/a	n/a	n/a	13	2	5	6	n/a	n/a	n/a	n/a	n/a
489.61	n/a	PROB	244805	n/a	LTP253	ltpFR	11	n/a	n/a	n/a	n/a	n/a	n/a	n/a	17	3	7	7	n/a	n/a	n/a	n/a	n/a
491.142	n/a	PROB	245571	n/a	LTP253	ltpFR	11	n/a	n/a	n/a	n/a	n/a	n/a	n/a	25	9	8	8	n/a	n/a	n/a	n/a	n/a
493.29	n/a	STOP	246645	n/a	LTP253	ltpFR	11	n/a	n/a	n/a	n/a	n/a	n/a	n/a	n/a	n/a	n/a	n/a	n/a	n/a	n/a	n/a	n/a
495.636	n/a	WORD	247818	wordpools/wasnorm_wordpool_less_exclusions.txt	LTP253	ltpFR	11	1	0	FARM	552	n/a	n/a	1	n/a	0	0	0	0.422607421875	0.5869140625	0	lower	zerothre.ttf
498.65	n/a	START	249325	n/a	LTP253	ltpFR	11	n/a	n/a	n/a	n/a	n/a	n/a	n/a	n/a	n/a	n/a	n/a	n/a	n/a	n/a	n/a	n/a
499.83	n/a	PROB	249915	n/a	LTP253	ltpFR	11	n/a	n/a	n/a	n/a	n/a	n/a	n/a	13	2	6	5	n/a	n/a	n/a	n/a	n/a
501.378	n/a	PROB	250689	n/a	LTP253	ltpFR	11	n/a	n/a	n/a	n/a	n/a	n/a	n/a	7	2	3	2	n/a	n/a	n/a	n/a	n/a
503.376	n/a	PROB	251688	n/a	LTP253	ltpFR	11	n/a	n/a	n/a	n/a	n/a	n/a	n/a	11	4	3	4	n/a	n/a	n/a	n/a	n/a
505.022	n/a	PROB	252511	n/a	LTP253	ltpFR	11	n/a	n/a	n/a	n/a	n/a	n/a	n/a	25	9	9	7	n/a	n/a	n/a	n/a	n/a
506.314	n/a	STOP	253157	n/a	LTP253	ltpFR	11	n/a	n/a	n/a	n/a	n/a	n/a	n/a	n/a	n/a	n/a	n/a	n/a	n/a	n/a	n/a	n/a
507.836	n/a	WORD	253918	wordpools/wasnorm_wordpool_less_exclusions.txt	LTP253	ltpFR	11	1	0	RAM	1165	n/a	n/a	1	n/a	0	0	0	0.422607421875	0.5869140625	0	lower	zerothre.ttf
510.848	n/a	START	255424	n/a	LTP253	ltpFR	11	n/a	n/a	n/a	n/a	n/a	n/a	n/a	n/a	n/a	n/a	n/a	n/a	n/a	n/a	n/a	n/a
512.012	n/a	PROB	256006	n/a	LTP253	ltpFR	11	n/a	n/a	n/a	n/a	n/a	n/a	n/a	19	7	8	4	n/a	n/a	n/a	n/a	n/a
514.01	n/a	PROB	257005	n/a	LTP253	ltpFR	11	n/a	n/a	n/a	n/a	n/a	n/a	n/a	8	2	5	1	n/a	n/a	n/a	n/a	n/a
515.824	n/a	PROB	257912	n/a	LTP253	ltpFR	11	n/a	n/a	n/a	n/a	n/a	n/a	n/a	15	4	9	2	n/a	n/a	n/a	n/a	n/a
517.794	n/a	STOP	258897	n/a	LTP253	ltpFR	11	n/a	n/a	n/a	n/a	n/a	n/a	n/a	n/a	n/a	n/a	n/a	n/a	n/a	n/a	n/a	n/a
519.85	n/a	WORD	259925	wordpools/wasnorm_wordpool_less_exclusions.txt	LTP253	ltpFR	11	1	0	ELECTRON	522	n/a	n/a	0	n/a	0	0	0	0.422607421875	0.5869140625	0	lower	zerothre.ttf
522.864	n/a	START	261432	n/a	LTP253	ltpFR	11	n/a	n/a	n/a	n/a	n/a	n/a	n/a	n/a	n/a	n/a	n/a	n/a	n/a	n/a	n/a	n/a
524.012	n/a	PROB	262006	n/a	LTP253	ltpFR	11	n/a	n/a	n/a	n/a	n/a	n/a	n/a	20	9	4	7	n/a	n/a	n/a	n/a	n/a
526.358	n/a	PROB	263179	n/a	LTP253	ltpFR	11	n/a	n/a	n/a	n/a	n/a	n/a	n/a	17	7	8	2	n/a	n/a	n/a	n/a	n/a
528.056	n/a	PROB	264028	n/a	LTP253	ltpFR	11	n/a	n/a	n/a	n/a	n/a	n/a	n/a	15	7	7	1	n/a	n/a	n/a	n/a	n/a
529.304	n/a	PROB	264652	n/a	LTP253	ltpFR	11	n/a	n/a	n/a	n/a	n/a	n/a	n/a	13	2	8	3	n/a	n/a	n/a	n/a	n/a
530.514	n/a	STOP	265257	n/a	LTP253	ltpFR	11	n/a	n/a	n/a	n/a	n/a	n/a	n/a	n/a	n/a	n/a	n/a	n/a	n/a	n/a	n/a	n/a
532.632	n/a	REC_START	266316	n/a	LTP253	ltpFR	11	1	n/a	n/a	n/a	n/a	n/a	n/a	n/a	0	0	0	n/a	n/a	n/a	n/a	n/a
534.158	n/a	REC_WORD	267079	wordpools/wasnorm_wordpool_less_exclusions.txt	LTP253	ltpFR	11	1	0	ELECTRON	522	n/a	n/a	0	n/a	0	0	0	n/a	n/a	n/a	n/a	n/a
535.144	n/a	REC_WORD	267572	wordpools/wasnorm_wordpool_less_exclusions.txt	LTP253	ltpFR	11	1	0	NUCLEUS	961	n/a	n/a	0	n/a	0	0	0	n/a	n/a	n/a	n/a	n/a
536.936	n/a	REC_WORD	268468	wordpools/wasnorm_wordpool_less_exclusions.txt	LTP253	ltpFR	11	1	0	BRANCH	168	n/a	n/a	1	n/a	0	0	0	n/a	n/a	n/a	n/a	n/a
537.858	n/a	REC_WORD	268929	wordpools/wasnorm_wordpool_less_exclusions.txt	LTP253	ltpFR	11	1	0	PLANT	1083	n/a	n/a	0	n/a	0	0	0	n/a	n/a	n/a	n/a	n/a
538.648	n/a	REC_WORD	269324	wordpools/wasnorm_wordpool_less_exclusions.txt	LTP253	ltpFR	11	1	0	HAT	690	n/a	n/a	0	n/a	0	0	0	n/a	n/a	n/a	n/a	n/a
539.598	n/a	REC_WORD	269799	wordpools/wasnorm_wordpool_less_exclusions.txt	LTP253	ltpFR	11	1	0	BROCCOLI	176	n/a	n/a	0	n/a	0	0	0	n/a	n/a	n/a	n/a	n/a
540.504	n/a	REC_WORD	270252	wordpools/wasnorm_wordpool_less_exclusions.txt	LTP253	ltpFR	11	1	0	FLY	586	n/a	n/a	0	n/a	0	0	0	n/a	n/a	n/a	n/a	n/a
541.672	n/a	REC_WORD	270836	wordpools/wasnorm_wordpool_less_exclusions.txt	LTP253	ltpFR	11	1	0	MAT	877	n/a	n/a	0	n/a	0	0	0	n/a	n/a	n/a	n/a	n/a
542.768	n/a	REC_WORD	271384	wordpools/wasnorm_wordpool_less_exclusions.txt	LTP253	ltpFR	11	1	0	BAY	102	n/a	n/a	1	n/a	0	0	0	n/a	n/a	n/a	n/a	n/a
543.766	n/a	REC_WORD	271883	wordpools/wasnorm_wordpool_less_exclusions.txt	LTP253	ltpFR	11	1	0	MOB	904	n/a	n/a	1	n/a	0	0	0	n/a	n/a	n/a	n/a	n/a
544.768	n/a	REC_WORD	272384	wordpools/wasnorm_wordpool_less_exclusions.txt	LTP253	ltpFR	11	1	0	FARM	552	n/a	n/a	1	n/a	0	0	0	n/a	n/a	n/a	n/a	n/a
559.612	n/a	REC_WORD	279806	wordpools/wasnorm_wordpool_less_exclusions.txt	LTP253	ltpFR	11	1	0	TYPEWRITER	1531	n/a	n/a	0	n/a	0	0	0	n/a	n/a	n/a	n/a	n/a
612.646	n/a	WORD	306323	wordpools/wasnorm_wordpool_less_exclusions.txt	LTP253	ltpFR	11	2	1	DONKEY	484	n/a	n/a	1	n/a	0	0	0	0.57763671875	0.412841796875	1	upper	amplitud.ttf
616.758	n/a	WORD	308379	wordpools/wasnorm_wordpool_less_exclusions.txt	LTP253	ltpFR	11	2	1	SLIDE	1326	n/a	n/a	0	n/a	0	0	0	0.57763671875	0.412841796875	1	upper	amplitud.ttf
620.584	n/a	WORD	310292	wordpools/wasnorm_wordpool_less_exclusions.txt	LTP253	ltpFR	11	2	1	SERVER	1272	n/a	n/a	1	n/a	0	0	0	0.57763671875	0.412841796875	1	upper	amplitud.ttf
624.578	n/a	WORD	312289	wordpools/wasnorm_wordpool_less_exclusions.txt	LTP253	ltpFR	11	2	1	GUEST	669	n/a	n/a	1	n/a	0	0	0	0.57763671875	0.412841796875	1	upper	amplitud.ttf
628.49	n/a	WORD	314245	wordpools/wasnorm_wordpool_less_exclusions.txt	LTP253	ltpFR	11	2	1	OFFICER	973	n/a	n/a	1	n/a	0	0	0	0.57763671875	0.412841796875	1	upper	amplitud.ttf
632.584	n/a	WORD	316292	wordpools/wasnorm_wordpool_less_exclusions.txt	LTP253	ltpFR	11	2	1	SIREN	1310	n/a	n/a	0	n/a	0	0	0	0.57763671875	0.412841796875	1	upper	amplitud.ttf
636.778	n/a	WORD	318389	wordpools/wasnorm_wordpool_less_exclusions.txt	LTP253	ltpFR	11	2	1	LIGHTNING	820	n/a	n/a	0	n/a	0	0	0	0.57763671875	0.412841796875	1	upper	amplitud.ttf
640.972	n/a	WORD	320486	wordpools/wasnorm_wordpool_less_exclusions.txt	LTP253	ltpFR	11	2	1	SADDLE	1221	n/a	n/a	0	n/a	0	0	0	0.57763671875	0.412841796875	1	upper	amplitud.ttf
644.95	n/a	WORD	322475	wordpools/wasnorm_wordpool_less_exclusions.txt	LTP253	ltpFR	11	2	1	BARN	89	n/a	n/a	0	n/a	0	0	0	0.57763671875	0.412841796875	1	upper	amplitud.ttf
649.01	n/a	WORD	324505	wordpools/wasnorm_wordpool_less_exclusions.txt	LTP253	ltpFR	11	2	1	SUPPER	1411	n/a	n/a	0	n/a	0	0	0	0.57763671875	0.412841796875	1	upper	amplitud.ttf
653.204	n/a	WORD	326602	wordpools/wasnorm_wordpool_less_exclusions.txt	LTP253	ltpFR	11	2	1	GAVEL	627	n/a	n/a	0	n/a	0	0	0	0.57763671875	0.412841796875	1	upper	amplitud.ttf
657.214	n/a	WORD	328607	wordpools/wasnorm_wordpool_less_exclusions.txt	LTP253	ltpFR	11	2	1	CYCLONE	431	n/a	n/a	1	n/a	0	0	0	0.57763671875	0.412841796875	1	upper	amplitud.ttf
661.274	n/a	WORD	330637	wordpools/wasnorm_wordpool_less_exclusions.txt	LTP253	ltpFR	11	2	1	STALLION	1369	n/a	n/a	1	n/a	0	0	0	0.57763671875	0.412841796875	1	upper	amplitud.ttf
665.102	n/a	WORD	332551	wordpools/wasnorm_wordpool_less_exclusions.txt	LTP253	ltpFR	11	2	1	SWIMMER	1420	n/a	n/a	1	n/a	0	0	0	0.57763671875	0.412841796875	1	upper	amplitud.ttf
668.946	n/a	WORD	334473	wordpools/wasnorm_wordpool_less_exclusions.txt	LTP253	ltpFR	11	2	1	MAPLE	866	n/a	n/a	0	n/a	0	0	0	0.57763671875	0.412841796875	1	upper	amplitud.ttf
672.774	n/a	WORD	336387	wordpools/wasnorm_wordpool_less_exclusions.txt	LTP253	ltpFR	11	2	1	MOSS	918	n/a	n/a	0	n/a	0	0	0	0.57763671875	0.412841796875	1	upper	amplitud.ttf
675.786	n/a	START	337893	n/a	LTP253	ltpFR	11	n/a	n/a	n/a	n/a	n/a	n/a	n/a	n/a	n/a	n/a	n/a	n/a	n/a	n/a	n/a	n/a
676.818	n/a	PROB	338409	n/a	LTP253	ltpFR	11	n/a	n/a	n/a	n/a	n/a	n/a	n/a	14	5	4	5	n/a	n/a	n/a	n/a	n/a
678.748	n/a	PROB	339374	n/a	LTP253	ltpFR	11	n/a	n/a	n/a	n/a	n/a	n/a	n/a	11	4	4	3	n/a	n/a	n/a	n/a	n/a
680.33	n/a	PROB	340165	n/a	LTP253	ltpFR	11	n/a	n/a	n/a	n/a	n/a	n/a	n/a	21	8	7	6	n/a	n/a	n/a	n/a	n/a
683.786	n/a	STOP	341893	n/a	LTP253	ltpFR	11	n/a	n/a	n/a	n/a	n/a	n/a	n/a	n/a	n/a	n/a	n/a	n/a	n/a	n/a	n/a	n/a
685.54	n/a	REC_START	342770	n/a	LTP253	ltpFR	11	2	n/a	n/a	n/a	n/a	n/a	n/a	n/a	0	0	0	n/a	n/a	n/a	n/a	n/a
687.206	n/a	REC_WORD	343603	wordpools/wasnorm_wordpool_less_exclusions.txt	LTP253	ltpFR	11	2	1	DONKEY	484	n/a	n/a	1	n/a	0	0	0	n/a	n/a	n/a	n/a	n/a
687.986	n/a	REC_WORD	343993	wordpools/wasnorm_wordpool_less_exclusions.txt	LTP253	ltpFR	11	2	1	SLIDE	1326	n/a	n/a	0	n/a	0	0	0	n/a	n/a	n/a	n/a	n/a
689.228	n/a	REC_WORD	344614	wordpools/wasnorm_wordpool_less_exclusions.txt	LTP253	ltpFR	11	2	1	SERVER	1272	n/a	n/a	1	n/a	0	0	0	n/a	n/a	n/a	n/a	n/a
690.658	n/a	REC_WORD	345329	wordpools/wasnorm_wordpool_less_exclusions.txt	LTP253	ltpFR	11	2	1	GUEST	669	n/a	n/a	1	n/a	0	0	0	n/a	n/a	n/a	n/a	n/a
692.382	n/a	REC_WORD	346191	wordpools/wasnorm_wordpool_less_exclusions.txt	LTP253	ltpFR	11	2	1	MAPLE	866	n/a	n/a	0	n/a	0	0	0	n/a	n/a	n/a	n/a	n/a
693.762	n/a	REC_WORD	346881	wordpools/wasnorm_wordpool_less_exclusions.txt	LTP253	ltpFR	11	2	1	SWIMMER	1420	n/a	n/a	1	n/a	0	0	0	n/a	n/a	n/a	n/a	n/a
695.034	n/a	REC_WORD	347517	wordpools/wasnorm_wordpool_less_exclusions.txt	LTP253	ltpFR	11	2	1	LIGHTNING	820	n/a	n/a	0	n/a	0	0	0	n/a	n/a	n/a	n/a	n/a
696.206	n/a	REC_WORD	348103	wordpools/wasnorm_wordpool_less_exclusions.txt	LTP253	ltpFR	11	2	1	OFFICER	973	n/a	n/a	1	n/a	0	0	0	n/a	n/a	n/a	n/a	n/a
697.708	n/a	REC_WORD	348854	wordpools/wasnorm_wordpool_less_exclusions.txt	LTP253	ltpFR	11	2	1	SIREN	1310	n/a	n/a	0	n/a	0	0	0	n/a	n/a	n/a	n/a	n/a
701.95	n/a	REC_WORD	350975	wordpools/wasnorm_wordpool_less_exclusions.txt	LTP253	ltpFR	11	2	1	SUPPER	1411	n/a	n/a	0	n/a	0	0	0	n/a	n/a	n/a	n/a	n/a
707.142	n/a	REC_WORD	353571	wordpools/wasnorm_wordpool_less_exclusions.txt	LTP253	ltpFR	11	2	1	BARN	89	n/a	n/a	0	n/a	0	0	0	n/a	n/a	n/a	n/a	n/a
713.948	n/a	REC_WORD	356974	wordpools/wasnorm_wordpool_less_exclusions.txt	LTP253	ltpFR	11	2	1	GUEST	669	n/a	n/a	1	n/a	0	0	0	n/a	n/a	n/a	n/a	n/a
715.008	n/a	REC_WORD	357504	wordpools/wasnorm_wordpool_less_exclusions.txt	LTP253	ltpFR	11	2	1	STALLION	1369	n/a	n/a	1	n/a	0	0	0	n/a	n/a	n/a	n/a	n/a
715.894	n/a	REC_WORD	357947	wordpools/wasnorm_wordpool_less_exclusions.txt	LTP253	ltpFR	11	2	1	CYCLONE	431	n/a	n/a	1	n/a	0	0	0	n/a	n/a	n/a	n/a	n/a
773.426	n/a	WORD	386713	wordpools/wasnorm_wordpool_less_exclusions.txt	LTP253	ltpFR	11	3	0	FLAG	573	n/a	n/a	1	n/a	0	0	0	0.422607421875	0.5869140625	0	lower	zerothre.ttf
777.554	n/a	WORD	388777	wordpools/wasnorm_wordpool_less_exclusions.txt	LTP253	ltpFR	11	3	0	MAGAZINE	853	n/a	n/a	0	n/a	0	0	0	0.422607421875	0.5869140625	0	lower	zerothre.ttf
781.58	n/a	WORD	390790	wordpools/wasnorm_wordpool_less_exclusions.txt	LTP253	ltpFR	11	3	0	CAPTAIN	239	n/a	n/a	1	n/a	0	0	0	0.422607421875	0.5869140625	0	lower	zerothre.ttf
785.642	n/a	WORD	392821	wordpools/wasnorm_wordpool_less_exclusions.txt	LTP253	ltpFR	11	3	0	POTATO	1115	n/a	n/a	0	n/a	0	0	0	0.422607421875	0.5869140625	0	lower	zerothre.ttf
789.518	n/a	WORD	394759	wordpools/wasnorm_wordpool_less_exclusions.txt	LTP253	ltpFR	11	3	1	VITAMIN	1574	n/a	n/a	0	n/a	0	0	0	0.57763671875	0.412841796875	1	upper	amplitud.ttf
793.594	n/a	WORD	396797	wordpools/wasnorm_wordpool_less_exclusions.txt	LTP253	ltpFR	11	3	1	COLONEL	348	n/a	n/a	1	n/a	0	0	0	0.57763671875	0.412841796875	1	upper	amplitud.ttf
797.506	n/a	WORD	398753	wordpools/wasnorm_wordpool_less_exclusions.txt	LTP253	ltpFR	11	3	1	VETERAN	1561	n/a	n/a	1	n/a	0	0	0	0.57763671875	0.412841796875	1	upper	amplitud.ttf
801.402	n/a	WORD	400701	wordpools/wasnorm_wordpool_less_exclusions.txt	LTP253	ltpFR	11	3	1	NUT	965	n/a	n/a	0	n/a	0	0	0	0.57763671875	0.412841796875	1	upper	amplitud.ttf
805.594	n/a	WORD	402797	wordpools/wasnorm_wordpool_less_exclusions.txt	LTP253	ltpFR	11	3	0	SALMON	1227	n/a	n/a	0	n/a	0	0	0	0.422607421875	0.5869140625	0	lower	zerothre.ttf
809.538	n/a	WORD	404769	wordpools/wasnorm_wordpool_less_exclusions.txt	LTP253	ltpFR	11	3	0	DOCK	477	n/a	n/a	1	n/a	0	0	0	0.422607421875	0.5869140625	0	lower	zerothre.ttf
813.516	n/a	WORD	406758	wordpools/wasnorm_wordpool_less_exclusions.txt	LTP253	ltpFR	11	3	0	POLE	1097	n/a	n/a	1	n/a	0	0	0	0.422607421875	0.5869140625	0	lower	zerothre.ttf
817.494	n/a	WORD	408747	wordpools/wasnorm_wordpool_less_exclusions.txt	LTP253	ltpFR	11	3	0	SWAMP	1416	n/a	n/a	1	n/a	0	0	0	0.422607421875	0.5869140625	0	lower	zerothre.ttf
821.52	n/a	WORD	410760	wordpools/wasnorm_wordpool_less_exclusions.txt	LTP253	ltpFR	11	3	1	MONSTER	912	n/a	n/a	1	n/a	0	0	0	0.57763671875	0.412841796875	1	upper	amplitud.ttf
825.416	n/a	WORD	412708	wordpools/wasnorm_wordpool_less_exclusions.txt	LTP253	ltpFR	11	3	1	VELVET	1555	n/a	n/a	0	n/a	0	0	0	0.57763671875	0.412841796875	1	upper	amplitud.ttf
829.576	n/a	WORD	414788	wordpools/wasnorm_wordpool_less_exclusions.txt	LTP253	ltpFR	11	3	1	STEP	1377	n/a	n/a	0	n/a	0	0	0	0.57763671875	0.412841796875	1	upper	amplitud.ttf
833.602	n/a	WORD	416801	wordpools/wasnorm_wordpool_less_exclusions.txt	LTP253	ltpFR	11	3	1	STAIRS	1367	n/a	n/a	0	n/a	0	0	0	0.57763671875	0.412841796875	1	upper	amplitud.ttf
836.616	n/a	START	418308	n/a	LTP253	ltpFR	11	n/a	n/a	n/a	n/a	n/a	n/a	n/a	n/a	n/a	n/a	n/a	n/a	n/a	n/a	n/a	n/a
837.548	n/a	PROB	418774	n/a	LTP253	ltpFR	11	n/a	n/a	n/a	n/a	n/a	n/a	n/a	17	8	8	1	n/a	n/a	n/a	n/a	n/a
839.428	n/a	PROB	419714	n/a	LTP253	ltpFR	11	n/a	n/a	n/a	n/a	n/a	n/a	n/a	23	8	7	8	n/a	n/a	n/a	n/a	n/a
841.092	n/a	PROB	420546	n/a	LTP253	ltpFR	11	n/a	n/a	n/a	n/a	n/a	n/a	n/a	21	9	9	2	n/a	n/a	n/a	n/a	n/a
842.69	n/a	PROB	421345	n/a	LTP253	ltpFR	11	n/a	n/a	n/a	n/a	n/a	n/a	n/a	18	7	7	4	n/a	n/a	n/a	n/a	n/a
844.404	n/a	PROB	422202	n/a	LTP253	ltpFR	11	n/a	n/a	n/a	n/a	n/a	n/a	n/a	14	6	6	2	n/a	n/a	n/a	n/a	n/a
845.92	n/a	PROB	422960	n/a	LTP253	ltpFR	11	n/a	n/a	n/a	n/a	n/a	n/a	n/a	15	7	4	4	n/a	n/a	n/a	n/a	n/a
847.516	n/a	PROB	423758	n/a	LTP253	ltpFR	11	n/a	n/a	n/a	n/a	n/a	n/a	n/a	8	2	5	1	n/a	n/a	n/a	n/a	n/a
849.08	n/a	PROB	424540	n/a	LTP253	ltpFR	11	n/a	n/a	n/a	n/a	n/a	n/a	n/a	18	4	6	8	n/a	n/a	n/a	n/a	n/a
850.478	n/a	PROB	425239	n/a	LTP253	ltpFR	11	n/a	n/a	n/a	n/a	n/a	n/a	n/a	18	8	8	2	n/a	n/a	n/a	n/a	n/a
852.416	n/a	STOP	426208	n/a	LTP253	ltpFR	11	n/a	n/a	n/a	n/a	n/a	n/a	n/a	n/a	n/a	n/a	n/a	n/a	n/a	n/a	n/a	n/a
854.39	n/a	REC_START	427195	n/a	LTP253	ltpFR	11	3	n/a	n/a	n/a	n/a	n/a	n/a	n/a	0	0	0	n/a	n/a	n/a	n/a	n/a
855.532	n/a	REC_WORD	427766	wordpools/wasnorm_wordpool_less_exclusions.txt	LTP253	ltpFR	11	3	1	VELVET	1555	n/a	n/a	0	n/a	0	0	0	n/a	n/a	n/a	n/a	n/a
856.088	n/a	REC_WORD	428044	wordpools/wasnorm_wordpool_less_exclusions.txt	LTP253	ltpFR	11	3	1	STEP	1377	n/a	n/a	0	n/a	0	0	0	n/a	n/a	n/a	n/a	n/a
856.718	n/a	REC_WORD	428359	wordpools/wasnorm_wordpool_less_exclusions.txt	LTP253	ltpFR	11	3	1	STAIRS	1367	n/a	n/a	0	n/a	0	0	0	n/a	n/a	n/a	n/a	n/a
858.154	n/a	REC_WORD	429077	wordpools/wasnorm_wordpool_less_exclusions.txt	LTP253	ltpFR	11	3	1	MONSTER	912	n/a	n/a	1	n/a	0	0	0	n/a	n/a	n/a	n/a	n/a
860.048	n/a	REC_WORD	430024	wordpools/wasnorm_wordpool_less_exclusions.txt	LTP253	ltpFR	11	3	n/a	DECK	443	n/a	n/a	n/a	n/a	0	0	0	n/a	n/a	n/a	n/a	n/a
860.7	n/a	REC_WORD	430350	wordpools/wasnorm_wordpool_less_exclusions.txt	LTP253	ltpFR	11	3	0	SWAMP	1416	n/a	n/a	1	n/a	0	0	0	n/a	n/a	n/a	n/a	n/a
862.33	n/a	REC_WORD	431165	wordpools/wasnorm_wordpool_less_exclusions.txt	LTP253	ltpFR	11	3	0	MAGAZINE	853	n/a	n/a	0	n/a	0	0	0	n/a	n/a	n/a	n/a	n/a
863.58	n/a	REC_WORD	431790	wordpools/wasnorm_wordpool_less_exclusions.txt	LTP253	ltpFR	11	3	1	COLONEL	348	n/a	n/a	1	n/a	0	0	0	n/a	n/a	n/a	n/a	n/a
864.292	n/a	REC_WORD	432146	wordpools/wasnorm_wordpool_less_exclusions.txt	LTP253	ltpFR	11	3	0	CAPTAIN	239	n/a	n/a	1	n/a	0	0	0	n/a	n/a	n/a	n/a	n/a
865.218	n/a	REC_WORD	432609	wordpools/wasnorm_wordpool_less_exclusions.txt	LTP253	ltpFR	11	3	0	FLAG	573	n/a	n/a	1	n/a	0	0	0	n/a	n/a	n/a	n/a	n/a
866.464	n/a	REC_WORD	433232	wordpools/wasnorm_wordpool_less_exclusions.txt	LTP253	ltpFR	11	3	0	POTATO	1115	n/a	n/a	0	n/a	0	0	0	n/a	n/a	n/a	n/a	n/a
867.544	n/a	REC_WORD	433772	wordpools/wasnorm_wordpool_less_exclusions.txt	LTP253	ltpFR	11	3	1	VITAMIN	1574	n/a	n/a	0	n/a	0	0	0	n/a	n/a	n/a	n/a	n/a
869.282	n/a	REC_WORD	434641	wordpools/wasnorm_wordpool_less_exclusions.txt	LTP253	ltpFR	11	3	0	SALMON	1227	n/a	n/a	0	n/a	0	0	0	n/a	n/a	n/a	n/a	n/a
872.192	n/a	REC_WORD	436096	wordpools/wasnorm_wordpool_less_exclusions.txt	LTP253	ltpFR	11	3	0	POLE	1097	n/a	n/a	1	n/a	0	0	0	n/a	n/a	n/a	n/a	n/a
911.534	n/a	REC_WORD	455767	wordpools/wasnorm_wordpool_less_exclusions.txt	LTP253	ltpFR	11	3	0	DOCK	477	n/a	n/a	1	n/a	0	0	0	n/a	n/a	n/a	n/a	n/a
935.552	n/a	WORD	467776	wordpools/wasnorm_wordpool_less_exclusions.txt	LTP253	ltpFR	11	4	0	BUSH	202	n/a	n/a	1	n/a	0	0	0	0.422607421875	0.5869140625	0	lower	zerothre.ttf
939.48	n/a	WORD	469740	wordpools/wasnorm_wordpool_less_exclusions.txt	LTP253	ltpFR	11	4	0	RELISH	1183	n/a	n/a	0	n/a	0	0	0	0.422607421875	0.5869140625	0	lower	zerothre.ttf
943.342	n/a	WORD	471671	wordpools/wasnorm_wordpool_less_exclusions.txt	LTP253	ltpFR	11	4	1	OTTER	986	n/a	n/a	1	n/a	0	0	0	0.57763671875	0.412841796875	1	upper	amplitud.ttf
947.186	n/a	WORD	473593	wordpools/wasnorm_wordpool_less_exclusions.txt	LTP253	ltpFR	11	4	1	COMMUNITY	356	n/a	n/a	1	n/a	0	0	0	0.57763671875	0.412841796875	1	upper	amplitud.ttf
951.396	n/a	WORD	475698	wordpools/wasnorm_wordpool_less_exclusions.txt	LTP253	ltpFR	11	4	0	APARTMENT	30	n/a	n/a	1	n/a	0	0	0	0.422607421875	0.5869140625	0	lower	zerothre.ttf
955.422	n/a	WORD	477711	wordpools/wasnorm_wordpool_less_exclusions.txt	LTP253	ltpFR	11	4	0	KIDNEY	776	n/a	n/a	0	n/a	0	0	0	0.422607421875	0.5869140625	0	lower	zerothre.ttf
959.268	n/a	WORD	479634	wordpools/wasnorm_wordpool_less_exclusions.txt	LTP253	ltpFR	11	4	0	STAFF	1365	n/a	n/a	1	n/a	0	0	0	0.422607421875	0.5869140625	0	lower	zerothre.ttf
963.112	n/a	WORD	481556	wordpools/wasnorm_wordpool_less_exclusions.txt	LTP253	ltpFR	11	4	0	DIRECTOR	471	n/a	n/a	1	n/a	0	0	0	0.422607421875	0.5869140625	0	lower	zerothre.ttf
967.256	n/a	WORD	483628	wordpools/wasnorm_wordpool_less_exclusions.txt	LTP253	ltpFR	11	4	1	PARIS	1014	n/a	n/a	0	n/a	0	0	0	0.57763671875	0.412841796875	1	upper	amplitud.ttf
971.366	n/a	WORD	485683	wordpools/wasnorm_wordpool_less_exclusions.txt	LTP253	ltpFR	11	4	1	BIRD	129	n/a	n/a	1	n/a	0	0	0	0.57763671875	0.412841796875	1	upper	amplitud.ttf
975.478	n/a	WORD	487739	wordpools/wasnorm_wordpool_less_exclusions.txt	LTP253	ltpFR	11	4	1	FRIEND	606	n/a	n/a	1	n/a	0	0	0	0.57763671875	0.412841796875	1	upper	amplitud.ttf
979.422	n/a	WORD	489711	wordpools/wasnorm_wordpool_less_exclusions.txt	LTP253	ltpFR	11	4	1	KETCHUP	771	n/a	n/a	0	n/a	0	0	0	0.57763671875	0.412841796875	1	upper	amplitud.ttf
983.566	n/a	WORD	491783	wordpools/wasnorm_wordpool_less_exclusions.txt	LTP253	ltpFR	11	4	1	VEAL	1551	n/a	n/a	1	n/a	0	0	0	0.57763671875	0.412841796875	1	upper	amplitud.ttf
987.676	n/a	WORD	493838	wordpools/wasnorm_wordpool_less_exclusions.txt	LTP253	ltpFR	11	4	1	PORCUPINE	1107	n/a	n/a	1	n/a	0	0	0	0.57763671875	0.412841796875	1	upper	amplitud.ttf
991.554	n/a	WORD	495777	wordpools/wasnorm_wordpool_less_exclusions.txt	LTP253	ltpFR	11	4	0	CHAMPAGNE	278	n/a	n/a	1	n/a	0	0	0	0.422607421875	0.5869140625	0	lower	zerothre.ttf
995.612	n/a	WORD	497806	wordpools/wasnorm_wordpool_less_exclusions.txt	LTP253	ltpFR	11	4	0	WINE	1613	n/a	n/a	1	n/a	0	0	0	0.422607421875	0.5869140625	0	lower	zerothre.ttf
998.626	n/a	START	499313	n/a	LTP253	ltpFR	11	n/a	n/a	n/a	n/a	n/a	n/a	n/a	n/a	n/a	n/a	n/a	n/a	n/a	n/a	n/a	n/a
999.508	n/a	PROB	499754	n/a	LTP253	ltpFR	11	n/a	n/a	n/a	n/a	n/a	n/a	n/a	11	6	3	2	n/a	n/a	n/a	n/a	n/a
1001.538	n/a	PROB	500769	n/a	LTP253	ltpFR	11	n/a	n/a	n/a	n/a	n/a	n/a	n/a	9	1	3	5	n/a	n/a	n/a	n/a	n/a
1003.27	n/a	PROB	501635	n/a	LTP253	ltpFR	11	n/a	n/a	n/a	n/a	n/a	n/a	n/a	17	7	2	8	n/a	n/a	n/a	n/a	n/a
1006.114	n/a	STOP	503057	n/a	LTP253	ltpFR	11	n/a	n/a	n/a	n/a	n/a	n/a	n/a	n/a	n/a	n/a	n/a	n/a	n/a	n/a	n/a	n/a
1008.546	n/a	REC_START	504273	n/a	LTP253	ltpFR	11	4	n/a	n/a	n/a	n/a	n/a	n/a	n/a	0	0	0	n/a	n/a	n/a	n/a	n/a
1009.872	n/a	REC_WORD	504936	wordpools/wasnorm_wordpool_less_exclusions.txt	LTP253	ltpFR	11	4	0	CHAMPAGNE	278	n/a	n/a	1	n/a	0	0	0	n/a	n/a	n/a	n/a	n/a
1010.816	n/a	REC_WORD	505408	wordpools/wasnorm_wordpool_less_exclusions.txt	LTP253	ltpFR	11	4	0	WINE	1613	n/a	n/a	1	n/a	0	0	0	n/a	n/a	n/a	n/a	n/a
1011.404	n/a	REC_WORD	505702	wordpools/wasnorm_wordpool_less_exclusions.txt	LTP253	ltpFR	11	4	1	PORCUPINE	1107	n/a	n/a	1	n/a	0	0	0	n/a	n/a	n/a	n/a	n/a
1012.586	n/a	REC_WORD	506293	wordpools/wasnorm_wordpool_less_exclusions.txt	LTP253	ltpFR	11	4	1	BIRD	129	n/a	n/a	1	n/a	0	0	0	n/a	n/a	n/a	n/a	n/a
1013.312	n/a	REC_WORD	506656	wordpools/wasnorm_wordpool_less_exclusions.txt	LTP253	ltpFR	11	4	1	OTTER	986	n/a	n/a	1	n/a	0	0	0	n/a	n/a	n/a	n/a	n/a
1014.148	n/a	REC_WORD	507074	wordpools/wasnorm_wordpool_less_exclusions.txt	LTP253	ltpFR	11	4	0	BUSH	202	n/a	n/a	1	n/a	0	0	0	n/a	n/a	n/a	n/a	n/a
1014.792	n/a	REC_WORD	507396	wordpools/wasnorm_wordpool_less_exclusions.txt	LTP253	ltpFR	11	4	0	RELISH	1183	n/a	n/a	0	n/a	0	0	0	n/a	n/a	n/a	n/a	n/a
1016.578	n/a	REC_WORD	508289	wordpools/wasnorm_wordpool_less_exclusions.txt	LTP253	ltpFR	11	4	1	PARIS	1014	n/a	n/a	0	n/a	0	0	0	n/a	n/a	n/a	n/a	n/a
1018.356	n/a	REC_WORD	509178	wordpools/wasnorm_wordpool_less_exclusions.txt	LTP253	ltpFR	11	4	0	APARTMENT	30	n/a	n/a	1	n/a	0	0	0	n/a	n/a	n/a	n/a	n/a
1020.886	n/a	REC_WORD	510443	wordpools/wasnorm_wordpool_less_exclusions.txt	LTP253	ltpFR	11	4	1	FRIEND	606	n/a	n/a	1	n/a	0	0	0	n/a	n/a	n/a	n/a	n/a
1050.084	n/a	REC_WORD	525042	wordpools/wasnorm_wordpool_less_exclusions.txt	LTP253	ltpFR	11	4	1	BIRD	129	n/a	n/a	1	n/a	0	0	0	n/a	n/a	n/a	n/a	n/a
1092.704	n/a	START	546352	n/a	LTP253	ltpFR	11	n/a	n/a	n/a	n/a	n/a	n/a	n/a	n/a	n/a	n/a	n/a	n/a	n/a	n/a	n/a	n/a
1094.218	n/a	PROB	547109	n/a	LTP253	ltpFR	11	n/a	n/a	n/a	n/a	n/a	n/a	n/a	18	3	6	9	n/a	n/a	n/a	n/a	n/a
1096.53	n/a	PROB	548265	n/a	LTP253	ltpFR	11	n/a	n/a	n/a	n/a	n/a	n/a	n/a	20	5	6	9	n/a	n/a	n/a	n/a	n/a
1098.344	n/a	PROB	549172	n/a	LTP253	ltpFR	11	n/a	n/a	n/a	n/a	n/a	n/a	n/a	16	4	4	8	n/a	n/a	n/a	n/a	n/a
1100.276	n/a	PROB	550138	n/a	LTP253	ltpFR	11	n/a	n/a	n/a	n/a	n/a	n/a	n/a	15	8	2	5	n/a	n/a	n/a	n/a	n/a
1101.556	n/a	PROB	550778	n/a	LTP253	ltpFR	11	n/a	n/a	n/a	n/a	n/a	n/a	n/a	8	2	5	1	n/a	n/a	n/a	n/a	n/a
1102.938	n/a	PROB	551469	n/a	LTP253	ltpFR	11	n/a	n/a	n/a	n/a	n/a	n/a	n/a	14	7	1	6	n/a	n/a	n/a	n/a	n/a
1104.57	n/a	PROB	552285	n/a	LTP253	ltpFR	11	n/a	n/a	n/a	n/a	n/a	n/a	n/a	15	3	8	4	n/a	n/a	n/a	n/a	n/a
1108.704	n/a	STOP	554352	n/a	LTP253	ltpFR	11	n/a	n/a	n/a	n/a	n/a	n/a	n/a	n/a	n/a	n/a	n/a	n/a	n/a	n/a	n/a	n/a
1109.778	n/a	WORD	554889	wordpools/wasnorm_wordpool_less_exclusions.txt	LTP253	ltpFR	11	5	1	EAGLE	512	n/a	n/a	1	n/a	0	0	0	0.57763671875	0.412841796875	1	upper	amplitud.ttf
1112.792	n/a	START	556396	n/a	LTP253	ltpFR	11	n/a	n/a	n/a	n/a	n/a	n/a	n/a	n/a	n/a	n/a	n/a	n/a	n/a	n/a	n/a	n/a
1113.69	n/a	PROB	556845	n/a	LTP253	ltpFR	11	n/a	n/a	n/a	n/a	n/a	n/a	n/a	14	8	4	2	n/a	n/a	n/a	n/a	n/a
1115.936	n/a	PROB	557968	n/a	LTP253	ltpFR	11	n/a	n/a	n/a	n/a	n/a	n/a	n/a	17	9	2	6	n/a	n/a	n/a	n/a	n/a
1117.55	n/a	PROB	558775	n/a	LTP253	ltpFR	11	n/a	n/a	n/a	n/a	n/a	n/a	n/a	22	4	9	9	n/a	n/a	n/a	n/a	n/a
1118.932	n/a	PROB	559466	n/a	LTP253	ltpFR	11	n/a	n/a	n/a	n/a	n/a	n/a	n/a	13	1	3	9	n/a	n/a	n/a	n/a	n/a
1121.046	n/a	PROB	560523	n/a	LTP253	ltpFR	11	n/a	n/a	n/a	n/a	n/a	n/a	n/a	18	8	8	2	n/a	n/a	n/a	n/a	n/a
1122.81	n/a	PROB	561405	n/a	LTP253	ltpFR	11	n/a	n/a	n/a	n/a	n/a	n/a	n/a	19	6	9	4	n/a	n/a	n/a	n/a	n/a
1124.674	n/a	PROB	562337	n/a	LTP253	ltpFR	11	n/a	n/a	n/a	n/a	n/a	n/a	n/a	18	9	5	4	n/a	n/a	n/a	n/a	n/a
1126.538	n/a	PROB	563269	n/a	LTP253	ltpFR	11	n/a	n/a	n/a	n/a	n/a	n/a	n/a	9	1	5	3	n/a	n/a	n/a	n/a	n/a
1127.82	n/a	STOP	563910	n/a	LTP253	ltpFR	11	n/a	n/a	n/a	n/a	n/a	n/a	n/a	n/a	n/a	n/a	n/a	n/a	n/a	n/a	n/a	n/a
1129.816	n/a	WORD	564908	wordpools/wasnorm_wordpool_less_exclusions.txt	LTP253	ltpFR	11	5	1	BLOUSE	139	n/a	n/a	0	n/a	0	0	0	0.57763671875	0.412841796875	1	upper	amplitud.ttf
1132.828	n/a	START	566414	n/a	LTP253	ltpFR	11	n/a	n/a	n/a	n/a	n/a	n/a	n/a	n/a	n/a	n/a	n/a	n/a	n/a	n/a	n/a	n/a
1133.726	n/a	PROB	566863	n/a	LTP253	ltpFR	11	n/a	n/a	n/a	n/a	n/a	n/a	n/a	19	8	7	4	n/a	n/a	n/a	n/a	n/a
1135.906	n/a	PROB	567953	n/a	LTP253	ltpFR	11	n/a	n/a	n/a	n/a	n/a	n/a	n/a	11	2	3	6	n/a	n/a	n/a	n/a	n/a
1137.538	n/a	PROB	568769	n/a	LTP253	ltpFR	11	n/a	n/a	n/a	n/a	n/a	n/a	n/a	19	6	7	6	n/a	n/a	n/a	n/a	n/a
1139.468	n/a	PROB	569734	n/a	LTP253	ltpFR	11	n/a	n/a	n/a	n/a	n/a	n/a	n/a	16	3	9	4	n/a	n/a	n/a	n/a	n/a
1142.048	n/a	PROB	571024	n/a	LTP253	ltpFR	11	n/a	n/a	n/a	n/a	n/a	n/a	n/a	15	3	9	3	n/a	n/a	n/a	n/a	n/a
1144.128	n/a	PROB	572064	n/a	LTP253	ltpFR	11	n/a	n/a	n/a	n/a	n/a	n/a	n/a	22	8	5	9	n/a	n/a	n/a	n/a	n/a
1146.508	n/a	PROB	573254	n/a	LTP253	ltpFR	11	n/a	n/a	n/a	n/a	n/a	n/a	n/a	22	5	8	5	n/a	n/a	n/a	n/a	n/a
1148.732	n/a	STOP	574366	n/a	LTP253	ltpFR	11	n/a	n/a	n/a	n/a	n/a	n/a	n/a	n/a	n/a	n/a	n/a	n/a	n/a	n/a	n/a	n/a
1150.018	n/a	WORD	575009	wordpools/wasnorm_wordpool_less_exclusions.txt	LTP253	ltpFR	11	5	1	STRAWBERRY	1391	n/a	n/a	1	n/a	0	0	0	0.57763671875	0.412841796875	1	upper	amplitud.ttf
1153.032	n/a	START	576516	n/a	LTP253	ltpFR	11	n/a	n/a	n/a	n/a	n/a	n/a	n/a	n/a	n/a	n/a	n/a	n/a	n/a	n/a	n/a	n/a
1154.246	n/a	PROB	577123	n/a	LTP253	ltpFR	11	n/a	n/a	n/a	n/a	n/a	n/a	n/a	15	1	6	8	n/a	n/a	n/a	n/a	n/a
1155.994	n/a	PROB	577997	n/a	LTP253	ltpFR	11	n/a	n/a	n/a	n/a	n/a	n/a	n/a	6	2	1	3	n/a	n/a	n/a	n/a	n/a
1157.374	n/a	PROB	578687	n/a	LTP253	ltpFR	11	n/a	n/a	n/a	n/a	n/a	n/a	n/a	17	3	5	9	n/a	n/a	n/a	n/a	n/a
1159.838	n/a	PROB	579919	n/a	LTP253	ltpFR	11	n/a	n/a	n/a	n/a	n/a	n/a	n/a	20	6	5	9	n/a	n/a	n/a	n/a	n/a
1161.718	n/a	PROB	580859	n/a	LTP253	ltpFR	11	n/a	n/a	n/a	n/a	n/a	n/a	n/a	16	7	2	7	n/a	n/a	n/a	n/a	n/a
1163.664	n/a	PROB	581832	n/a	LTP253	ltpFR	11	n/a	n/a	n/a	n/a	n/a	n/a	n/a	11	2	4	5	n/a	n/a	n/a	n/a	n/a
1165.23	n/a	PROB	582615	n/a	LTP253	ltpFR	11	n/a	n/a	n/a	n/a	n/a	n/a	n/a	12	3	4	5	n/a	n/a	n/a	n/a	n/a
1169.032	n/a	STOP	584516	n/a	LTP253	ltpFR	11	n/a	n/a	n/a	n/a	n/a	n/a	n/a	n/a	n/a	n/a	n/a	n/a	n/a	n/a	n/a	n/a
1169.89	n/a	WORD	584945	wordpools/wasnorm_wordpool_less_exclusions.txt	LTP253	ltpFR	11	5	1	CAULIFLOWER	262	n/a	n/a	0	n/a	0	0	0	0.57763671875	0.412841796875	1	upper	amplitud.ttf
1172.902	n/a	START	586451	n/a	LTP253	ltpFR	11	n/a	n/a	n/a	n/a	n/a	n/a	n/a	n/a	n/a	n/a	n/a	n/a	n/a	n/a	n/a	n/a
1173.718	n/a	PROB	586859	n/a	LTP253	ltpFR	11	n/a	n/a	n/a	n/a	n/a	n/a	n/a	11	3	2	6	n/a	n/a	n/a	n/a	n/a
1175.564	n/a	PROB	587782	n/a	LTP253	ltpFR	11	n/a	n/a	n/a	n/a	n/a	n/a	n/a	15	3	3	9	n/a	n/a	n/a	n/a	n/a
1177.396	n/a	PROB	588698	n/a	LTP253	ltpFR	11	n/a	n/a	n/a	n/a	n/a	n/a	n/a	15	1	9	5	n/a	n/a	n/a	n/a	n/a
1178.794	n/a	PROB	589397	n/a	LTP253	ltpFR	11	n/a	n/a	n/a	n/a	n/a	n/a	n/a	12	7	4	1	n/a	n/a	n/a	n/a	n/a
1180.224	n/a	PROB	590112	n/a	LTP253	ltpFR	11	n/a	n/a	n/a	n/a	n/a	n/a	n/a	15	6	2	7	n/a	n/a	n/a	n/a	n/a
1182.454	n/a	PROB	591227	n/a	LTP253	ltpFR	11	n/a	n/a	n/a	n/a	n/a	n/a	n/a	17	6	3	8	n/a	n/a	n/a	n/a	n/a
1184.518	n/a	PROB	592259	n/a	LTP253	ltpFR	11	n/a	n/a	n/a	n/a	n/a	n/a	n/a	20	9	5	6	n/a	n/a	n/a	n/a	n/a
1186.332	n/a	PROB	593166	n/a	LTP253	ltpFR	11	n/a	n/a	n/a	n/a	n/a	n/a	n/a	16	2	7	7	n/a	n/a	n/a	n/a	n/a
1187.692	n/a	STOP	593846	n/a	LTP253	ltpFR	11	n/a	n/a	n/a	n/a	n/a	n/a	n/a	n/a	n/a	n/a	n/a	n/a	n/a	n/a	n/a	n/a
1190.11	n/a	WORD	595055	wordpools/wasnorm_wordpool_less_exclusions.txt	LTP253	ltpFR	11	5	0	LOG	841	n/a	n/a	1	n/a	0	0	0	0.422607421875	0.5869140625	0	lower	zerothre.ttf
1193.122	n/a	START	596561	n/a	LTP253	ltpFR	11	n/a	n/a	n/a	n/a	n/a	n/a	n/a	n/a	n/a	n/a	n/a	n/a	n/a	n/a	n/a	n/a
1193.988	n/a	PROB	596994	n/a	LTP253	ltpFR	11	n/a	n/a	n/a	n/a	n/a	n/a	n/a	12	8	2	2	n/a	n/a	n/a	n/a	n/a
1195.802	n/a	PROB	597901	n/a	LTP253	ltpFR	11	n/a	n/a	n/a	n/a	n/a	n/a	n/a	22	9	4	9	n/a	n/a	n/a	n/a	n/a
1197.366	n/a	PROB	598683	n/a	LTP253	ltpFR	11	n/a	n/a	n/a	n/a	n/a	n/a	n/a	8	1	5	2	n/a	n/a	n/a	n/a	n/a
1198.996	n/a	PROB	599498	n/a	LTP253	ltpFR	11	n/a	n/a	n/a	n/a	n/a	n/a	n/a	13	6	5	2	n/a	n/a	n/a	n/a	n/a
1200.462	n/a	PROB	600231	n/a	LTP253	ltpFR	11	n/a	n/a	n/a	n/a	n/a	n/a	n/a	18	6	5	7	n/a	n/a	n/a	n/a	n/a
1203.008	n/a	PROB	601504	n/a	LTP253	ltpFR	11	n/a	n/a	n/a	n/a	n/a	n/a	n/a	19	9	8	2	n/a	n/a	n/a	n/a	n/a
1205.054	n/a	PROB	602527	n/a	LTP253	ltpFR	11	n/a	n/a	n/a	n/a	n/a	n/a	n/a	9	4	3	2	n/a	n/a	n/a	n/a	n/a
1206.784	n/a	PROB	603392	n/a	LTP253	ltpFR	11	n/a	n/a	n/a	n/a	n/a	n/a	n/a	14	7	3	4	n/a	n/a	n/a	n/a	n/a
1208.412	n/a	STOP	604206	n/a	LTP253	ltpFR	11	n/a	n/a	n/a	n/a	n/a	n/a	n/a	n/a	n/a	n/a	n/a	n/a	n/a	n/a	n/a	n/a
1209.946	n/a	WORD	604973	wordpools/wasnorm_wordpool_less_exclusions.txt	LTP253	ltpFR	11	5	0	CANARY	227	n/a	n/a	0	n/a	0	0	0	0.422607421875	0.5869140625	0	lower	zerothre.ttf
1212.96	n/a	START	606480	n/a	LTP253	ltpFR	11	n/a	n/a	n/a	n/a	n/a	n/a	n/a	n/a	n/a	n/a	n/a	n/a	n/a	n/a	n/a	n/a
1213.774	n/a	PROB	606887	n/a	LTP253	ltpFR	11	n/a	n/a	n/a	n/a	n/a	n/a	n/a	16	5	4	7	n/a	n/a	n/a	n/a	n/a
1215.654	n/a	PROB	607827	n/a	LTP253	ltpFR	11	n/a	n/a	n/a	n/a	n/a	n/a	n/a	11	5	3	3	n/a	n/a	n/a	n/a	n/a
1217.27	n/a	PROB	608635	n/a	LTP253	ltpFR	11	n/a	n/a	n/a	n/a	n/a	n/a	n/a	14	1	7	6	n/a	n/a	n/a	n/a	n/a
1218.834	n/a	PROB	609417	n/a	LTP253	ltpFR	11	n/a	n/a	n/a	n/a	n/a	n/a	n/a	22	9	9	4	n/a	n/a	n/a	n/a	n/a
1220.214	n/a	PROB	610107	n/a	LTP253	ltpFR	11	n/a	n/a	n/a	n/a	n/a	n/a	n/a	15	3	6	6	n/a	n/a	n/a	n/a	n/a
1221.696	n/a	PROB	610848	n/a	LTP253	ltpFR	11	n/a	n/a	n/a	n/a	n/a	n/a	n/a	11	4	5	2	n/a	n/a	n/a	n/a	n/a
1223.078	n/a	PROB	611539	n/a	LTP253	ltpFR	11	n/a	n/a	n/a	n/a	n/a	n/a	n/a	19	8	7	5	n/a	n/a	n/a	n/a	n/a
1224.458	n/a	PROB	612229	n/a	LTP253	ltpFR	11	n/a	n/a	n/a	n/a	n/a	n/a	n/a	16	8	1	7	n/a	n/a	n/a	n/a	n/a
1226.306	n/a	PROB	613153	n/a	LTP253	ltpFR	11	n/a	n/a	n/a	n/a	n/a	n/a	n/a	11	2	7	2	n/a	n/a	n/a	n/a	n/a
1228.18	n/a	STOP	614090	n/a	LTP253	ltpFR	11	n/a	n/a	n/a	n/a	n/a	n/a	n/a	n/a	n/a	n/a	n/a	n/a	n/a	n/a	n/a	n/a
1229.984	n/a	WORD	614992	wordpools/wasnorm_wordpool_less_exclusions.txt	LTP253	ltpFR	11	5	0	STABLE	1363	n/a	n/a	1	n/a	0	0	0	0.422607421875	0.5869140625	0	lower	zerothre.ttf
1232.996	n/a	START	616498	n/a	LTP253	ltpFR	11	n/a	n/a	n/a	n/a	n/a	n/a	n/a	n/a	n/a	n/a	n/a	n/a	n/a	n/a	n/a	n/a
1234.128	n/a	PROB	617064	n/a	LTP253	ltpFR	11	n/a	n/a	n/a	n/a	n/a	n/a	n/a	8	6	1	1	n/a	n/a	n/a	n/a	n/a
1235.526	n/a	PROB	617763	n/a	LTP253	ltpFR	11	n/a	n/a	n/a	n/a	n/a	n/a	n/a	17	2	6	9	n/a	n/a	n/a	n/a	n/a
1237.356	n/a	PROB	618678	n/a	LTP253	ltpFR	11	n/a	n/a	n/a	n/a	n/a	n/a	n/a	16	8	3	5	n/a	n/a	n/a	n/a	n/a
1239.17	n/a	PROB	619585	n/a	LTP253	ltpFR	11	n/a	n/a	n/a	n/a	n/a	n/a	n/a	15	7	4	4	n/a	n/a	n/a	n/a	n/a
1240.752	n/a	PROB	620376	n/a	LTP253	ltpFR	11	n/a	n/a	n/a	n/a	n/a	n/a	n/a	14	3	8	3	n/a	n/a	n/a	n/a	n/a
1243.016	n/a	PROB	621508	n/a	LTP253	ltpFR	11	n/a	n/a	n/a	n/a	n/a	n/a	n/a	13	4	6	3	n/a	n/a	n/a	n/a	n/a
1244.396	n/a	PROB	622198	n/a	LTP253	ltpFR	11	n/a	n/a	n/a	n/a	n/a	n/a	n/a	18	7	6	5	n/a	n/a	n/a	n/a	n/a
1246.444	n/a	PROB	623222	n/a	LTP253	ltpFR	11	n/a	n/a	n/a	n/a	n/a	n/a	n/a	18	4	9	5	n/a	n/a	n/a	n/a	n/a
1248.286	n/a	STOP	624143	n/a	LTP253	ltpFR	11	n/a	n/a	n/a	n/a	n/a	n/a	n/a	n/a	n/a	n/a	n/a	n/a	n/a	n/a	n/a	n/a
1249.972	n/a	WORD	624986	wordpools/wasnorm_wordpool_less_exclusions.txt	LTP253	ltpFR	11	5	0	COLT	349	n/a	n/a	1	n/a	0	0	0	0.422607421875	0.5869140625	0	lower	zerothre.ttf
1252.984	n/a	START	626492	n/a	LTP253	ltpFR	11	n/a	n/a	n/a	n/a	n/a	n/a	n/a	n/a	n/a	n/a	n/a	n/a	n/a	n/a	n/a	n/a
1254.032	n/a	PROB	627016	n/a	LTP253	ltpFR	11	n/a	n/a	n/a	n/a	n/a	n/a	n/a	13	5	6	2	n/a	n/a	n/a	n/a	n/a
1255.564	n/a	PROB	627782	n/a	LTP253	ltpFR	11	n/a	n/a	n/a	n/a	n/a	n/a	n/a	11	1	8	2	n/a	n/a	n/a	n/a	n/a
1257.01	n/a	PROB	628505	n/a	LTP253	ltpFR	11	n/a	n/a	n/a	n/a	n/a	n/a	n/a	15	4	4	7	n/a	n/a	n/a	n/a	n/a
1258.476	n/a	PROB	629238	n/a	LTP253	ltpFR	11	n/a	n/a	n/a	n/a	n/a	n/a	n/a	14	8	1	5	n/a	n/a	n/a	n/a	n/a
1259.974	n/a	PROB	629987	n/a	LTP253	ltpFR	11	n/a	n/a	n/a	n/a	n/a	n/a	n/a	10	1	3	6	n/a	n/a	n/a	n/a	n/a
1261.488	n/a	PROB	630744	n/a	LTP253	ltpFR	11	n/a	n/a	n/a	n/a	n/a	n/a	n/a	23	6	8	9	n/a	n/a	n/a	n/a	n/a
1263.884	n/a	PROB	631942	n/a	LTP253	ltpFR	11	n/a	n/a	n/a	n/a	n/a	n/a	n/a	15	3	9	3	n/a	n/a	n/a	n/a	n/a
1265.932	n/a	PROB	632966	n/a	LTP253	ltpFR	11	n/a	n/a	n/a	n/a	n/a	n/a	n/a	18	7	8	3	n/a	n/a	n/a	n/a	n/a
1267.312	n/a	PROB	633656	n/a	LTP253	ltpFR	11	n/a	n/a	n/a	n/a	n/a	n/a	n/a	13	6	5	2	n/a	n/a	n/a	n/a	n/a
1268.694	n/a	STOP	634347	n/a	LTP253	ltpFR	11	n/a	n/a	n/a	n/a	n/a	n/a	n/a	n/a	n/a	n/a	n/a	n/a	n/a	n/a	n/a	n/a
1269.908	n/a	WORD	634954	wordpools/wasnorm_wordpool_less_exclusions.txt	LTP253	ltpFR	11	5	1	FEATHER	557	n/a	n/a	0	n/a	0	0	0	0.57763671875	0.412841796875	1	upper	amplitud.ttf
1272.92	n/a	START	636460	n/a	LTP253	ltpFR	11	n/a	n/a	n/a	n/a	n/a	n/a	n/a	n/a	n/a	n/a	n/a	n/a	n/a	n/a	n/a	n/a
1273.886	n/a	PROB	636943	n/a	LTP253	ltpFR	11	n/a	n/a	n/a	n/a	n/a	n/a	n/a	17	1	8	8	n/a	n/a	n/a	n/a	n/a
1275.45	n/a	PROB	637725	n/a	LTP253	ltpFR	11	n/a	n/a	n/a	n/a	n/a	n/a	n/a	20	7	6	7	n/a	n/a	n/a	n/a	n/a
1278.08	n/a	PROB	639040	n/a	LTP253	ltpFR	11	n/a	n/a	n/a	n/a	n/a	n/a	n/a	7	1	5	1	n/a	n/a	n/a	n/a	n/a
1279.394	n/a	PROB	639697	n/a	LTP253	ltpFR	11	n/a	n/a	n/a	n/a	n/a	n/a	n/a	19	2	8	9	n/a	n/a	n/a	n/a	n/a
1281.258	n/a	PROB	640629	n/a	LTP253	ltpFR	11	n/a	n/a	n/a	n/a	n/a	n/a	n/a	15	8	6	1	n/a	n/a	n/a	n/a	n/a
1283.472	n/a	PROB	641736	n/a	LTP253	ltpFR	11	n/a	n/a	n/a	n/a	n/a	n/a	n/a	16	5	2	9	n/a	n/a	n/a	n/a	n/a
1285.802	n/a	PROB	642901	n/a	LTP253	ltpFR	11	n/a	n/a	n/a	n/a	n/a	n/a	n/a	15	5	8	2	n/a	n/a	n/a	n/a	n/a
1287.894	n/a	STOP	643947	n/a	LTP253	ltpFR	11	n/a	n/a	n/a	n/a	n/a	n/a	n/a	n/a	n/a	n/a	n/a	n/a	n/a	n/a	n/a	n/a
1289.878	n/a	WORD	644939	wordpools/wasnorm_wordpool_less_exclusions.txt	LTP253	ltpFR	11	5	1	GRASSHOPPER	656	n/a	n/a	1	n/a	0	0	0	0.57763671875	0.412841796875	1	upper	amplitud.ttf
1292.892	n/a	START	646446	n/a	LTP253	ltpFR	11	n/a	n/a	n/a	n/a	n/a	n/a	n/a	n/a	n/a	n/a	n/a	n/a	n/a	n/a	n/a	n/a
1293.922	n/a	PROB	646961	n/a	LTP253	ltpFR	11	n/a	n/a	n/a	n/a	n/a	n/a	n/a	8	1	6	1	n/a	n/a	n/a	n/a	n/a
1295.154	n/a	PROB	647577	n/a	LTP253	ltpFR	11	n/a	n/a	n/a	n/a	n/a	n/a	n/a	11	7	3	1	n/a	n/a	n/a	n/a	n/a
1296.802	n/a	PROB	648401	n/a	LTP253	ltpFR	11	n/a	n/a	n/a	n/a	n/a	n/a	n/a	5	3	1	1	n/a	n/a	n/a	n/a	n/a
1298.266	n/a	PROB	649133	n/a	LTP253	ltpFR	11	n/a	n/a	n/a	n/a	n/a	n/a	n/a	19	3	8	8	n/a	n/a	n/a	n/a	n/a
1299.73	n/a	PROB	649865	n/a	LTP253	ltpFR	11	n/a	n/a	n/a	n/a	n/a	n/a	n/a	11	1	4	6	n/a	n/a	n/a	n/a	n/a
1301.344	n/a	PROB	650672	n/a	LTP253	ltpFR	11	n/a	n/a	n/a	n/a	n/a	n/a	n/a	15	6	2	7	n/a	n/a	n/a	n/a	n/a
1303.108	n/a	PROB	651554	n/a	LTP253	ltpFR	11	n/a	n/a	n/a	n/a	n/a	n/a	n/a	11	3	3	5	n/a	n/a	n/a	n/a	n/a
1305.206	n/a	PROB	652603	n/a	LTP253	ltpFR	11	n/a	n/a	n/a	n/a	n/a	n/a	n/a	14	5	5	4	n/a	n/a	n/a	n/a	n/a
1306.538	n/a	PROB	653269	n/a	LTP253	ltpFR	11	n/a	n/a	n/a	n/a	n/a	n/a	n/a	12	5	5	2	n/a	n/a	n/a	n/a	n/a
1307.718	n/a	STOP	653859	n/a	LTP253	ltpFR	11	n/a	n/a	n/a	n/a	n/a	n/a	n/a	n/a	n/a	n/a	n/a	n/a	n/a	n/a	n/a	n/a
1310.082	n/a	WORD	655041	wordpools/wasnorm_wordpool_less_exclusions.txt	LTP253	ltpFR	11	5	1	CORAL	378	n/a	n/a	0	n/a	0	0	0	0.57763671875	0.412841796875	1	upper	amplitud.ttf
1313.096	n/a	START	656548	n/a	LTP253	ltpFR	11	n/a	n/a	n/a	n/a	n/a	n/a	n/a	n/a	n/a	n/a	n/a	n/a	n/a	n/a	n/a	n/a
1314.06	n/a	PROB	657030	n/a	LTP253	ltpFR	11	n/a	n/a	n/a	n/a	n/a	n/a	n/a	14	4	6	4	n/a	n/a	n/a	n/a	n/a
1315.558	n/a	PROB	657779	n/a	LTP253	ltpFR	11	n/a	n/a	n/a	n/a	n/a	n/a	n/a	16	8	5	3	n/a	n/a	n/a	n/a	n/a
1317.222	n/a	PROB	658611	n/a	LTP253	ltpFR	11	n/a	n/a	n/a	n/a	n/a	n/a	n/a	21	3	9	9	n/a	n/a	n/a	n/a	n/a
1318.618	n/a	PROB	659309	n/a	LTP253	ltpFR	11	n/a	n/a	n/a	n/a	n/a	n/a	n/a	5	1	2	2	n/a	n/a	n/a	n/a	n/a
1319.952	n/a	PROB	659976	n/a	LTP253	ltpFR	11	n/a	n/a	n/a	n/a	n/a	n/a	n/a	16	4	7	5	n/a	n/a	n/a	n/a	n/a
1321.5	n/a	PROB	660750	n/a	LTP253	ltpFR	11	n/a	n/a	n/a	n/a	n/a	n/a	n/a	14	8	2	4	n/a	n/a	n/a	n/a	n/a
1322.83	n/a	PROB	661415	n/a	LTP253	ltpFR	11	n/a	n/a	n/a	n/a	n/a	n/a	n/a	5	2	2	1	n/a	n/a	n/a	n/a	n/a
1323.846	n/a	PROB	661923	n/a	LTP253	ltpFR	11	n/a	n/a	n/a	n/a	n/a	n/a	n/a	18	8	3	7	n/a	n/a	n/a	n/a	n/a
1325.56	n/a	PROB	662780	n/a	LTP253	ltpFR	11	n/a	n/a	n/a	n/a	n/a	n/a	n/a	15	2	7	6	n/a	n/a	n/a	n/a	n/a
1326.958	n/a	PROB	663479	n/a	LTP253	ltpFR	11	n/a	n/a	n/a	n/a	n/a	n/a	n/a	18	7	3	8	n/a	n/a	n/a	n/a	n/a
1328.614	n/a	STOP	664307	n/a	LTP253	ltpFR	11	n/a	n/a	n/a	n/a	n/a	n/a	n/a	n/a	n/a	n/a	n/a	n/a	n/a	n/a	n/a	n/a
1329.92	n/a	WORD	664960	wordpools/wasnorm_wordpool_less_exclusions.txt	LTP253	ltpFR	11	5	1	ISLAND	745	n/a	n/a	0	n/a	0	0	0	0.57763671875	0.412841796875	1	upper	amplitud.ttf
1332.932	n/a	START	666466	n/a	LTP253	ltpFR	11	n/a	n/a	n/a	n/a	n/a	n/a	n/a	n/a	n/a	n/a	n/a	n/a	n/a	n/a	n/a	n/a
1334.064	n/a	PROB	667032	n/a	LTP253	ltpFR	11	n/a	n/a	n/a	n/a	n/a	n/a	n/a	14	7	5	2	n/a	n/a	n/a	n/a	n/a
1335.626	n/a	PROB	667813	n/a	LTP253	ltpFR	11	n/a	n/a	n/a	n/a	n/a	n/a	n/a	13	1	8	4	n/a	n/a	n/a	n/a	n/a
1336.992	n/a	PROB	668496	n/a	LTP253	ltpFR	11	n/a	n/a	n/a	n/a	n/a	n/a	n/a	22	9	8	5	n/a	n/a	n/a	n/a	n/a
1338.956	n/a	PROB	669478	n/a	LTP253	ltpFR	11	n/a	n/a	n/a	n/a	n/a	n/a	n/a	15	7	2	6	n/a	n/a	n/a	n/a	n/a
1340.42	n/a	PROB	670210	n/a	LTP253	ltpFR	11	n/a	n/a	n/a	n/a	n/a	n/a	n/a	17	7	2	8	n/a	n/a	n/a	n/a	n/a
1342.234	n/a	PROB	671117	n/a	LTP253	ltpFR	11	n/a	n/a	n/a	n/a	n/a	n/a	n/a	15	1	8	6	n/a	n/a	n/a	n/a	n/a
1343.932	n/a	PROB	671966	n/a	LTP253	ltpFR	11	n/a	n/a	n/a	n/a	n/a	n/a	n/a	15	8	3	4	n/a	n/a	n/a	n/a	n/a
1345.696	n/a	PROB	672848	n/a	LTP253	ltpFR	11	n/a	n/a	n/a	n/a	n/a	n/a	n/a	12	5	4	3	n/a	n/a	n/a	n/a	n/a
1347.21	n/a	PROB	673605	n/a	LTP253	ltpFR	11	n/a	n/a	n/a	n/a	n/a	n/a	n/a	15	4	2	9	n/a	n/a	n/a	n/a	n/a
1348.814	n/a	STOP	674407	n/a	LTP253	ltpFR	11	n/a	n/a	n/a	n/a	n/a	n/a	n/a	n/a	n/a	n/a	n/a	n/a	n/a	n/a	n/a	n/a
1350.056	n/a	WORD	675028	wordpools/wasnorm_wordpool_less_exclusions.txt	LTP253	ltpFR	11	5	0	BUTTERFLY	206	n/a	n/a	0	n/a	0	0	0	0.422607421875	0.5869140625	0	lower	zerothre.ttf
1353.068	n/a	START	676534	n/a	LTP253	ltpFR	11	n/a	n/a	n/a	n/a	n/a	n/a	n/a	n/a	n/a	n/a	n/a	n/a	n/a	n/a	n/a	n/a
1354.134	n/a	PROB	677067	n/a	LTP253	ltpFR	11	n/a	n/a	n/a	n/a	n/a	n/a	n/a	14	4	6	4	n/a	n/a	n/a	n/a	n/a
1355.498	n/a	PROB	677749	n/a	LTP253	ltpFR	11	n/a	n/a	n/a	n/a	n/a	n/a	n/a	18	8	9	1	n/a	n/a	n/a	n/a	n/a
1357.08	n/a	PROB	678540	n/a	LTP253	ltpFR	11	n/a	n/a	n/a	n/a	n/a	n/a	n/a	13	5	6	2	n/a	n/a	n/a	n/a	n/a
1358.494	n/a	PROB	679247	n/a	LTP253	ltpFR	11	n/a	n/a	n/a	n/a	n/a	n/a	n/a	20	5	8	7	n/a	n/a	n/a	n/a	n/a
1360.292	n/a	PROB	680146	n/a	LTP253	ltpFR	11	n/a	n/a	n/a	n/a	n/a	n/a	n/a	9	4	3	2	n/a	n/a	n/a	n/a	n/a
1361.988	n/a	PROB	680994	n/a	LTP253	ltpFR	11	n/a	n/a	n/a	n/a	n/a	n/a	n/a	15	4	2	9	n/a	n/a	n/a	n/a	n/a
1363.486	n/a	PROB	681743	n/a	LTP253	ltpFR	11	n/a	n/a	n/a	n/a	n/a	n/a	n/a	9	5	1	3	n/a	n/a	n/a	n/a	n/a
1365.866	n/a	PROB	682933	n/a	LTP253	ltpFR	11	n/a	n/a	n/a	n/a	n/a	n/a	n/a	20	8	9	3	n/a	n/a	n/a	n/a	n/a
1369.068	n/a	STOP	684534	n/a	LTP253	ltpFR	11	n/a	n/a	n/a	n/a	n/a	n/a	n/a	n/a	n/a	n/a	n/a	n/a	n/a	n/a	n/a	n/a
1370.126	n/a	WORD	685063	wordpools/wasnorm_wordpool_less_exclusions.txt	LTP253	ltpFR	11	5	0	EMPEROR	529	n/a	n/a	1	n/a	0	0	0	0.422607421875	0.5869140625	0	lower	zerothre.ttf
1373.138	n/a	START	686569	n/a	LTP253	ltpFR	11	n/a	n/a	n/a	n/a	n/a	n/a	n/a	n/a	n/a	n/a	n/a	n/a	n/a	n/a	n/a	n/a
1374.138	n/a	PROB	687069	n/a	LTP253	ltpFR	11	n/a	n/a	n/a	n/a	n/a	n/a	n/a	15	9	4	2	n/a	n/a	n/a	n/a	n/a
1376.002	n/a	PROB	688001	n/a	LTP253	ltpFR	11	n/a	n/a	n/a	n/a	n/a	n/a	n/a	19	9	8	2	n/a	n/a	n/a	n/a	n/a
1377.582	n/a	PROB	688791	n/a	LTP253	ltpFR	11	n/a	n/a	n/a	n/a	n/a	n/a	n/a	23	8	6	9	n/a	n/a	n/a	n/a	n/a
1380.146	n/a	PROB	690073	n/a	LTP253	ltpFR	11	n/a	n/a	n/a	n/a	n/a	n/a	n/a	17	6	2	9	n/a	n/a	n/a	n/a	n/a
1382.242	n/a	PROB	691121	n/a	LTP253	ltpFR	11	n/a	n/a	n/a	n/a	n/a	n/a	n/a	16	7	7	2	n/a	n/a	n/a	n/a	n/a
1383.724	n/a	PROB	691862	n/a	LTP253	ltpFR	11	n/a	n/a	n/a	n/a	n/a	n/a	n/a	9	2	6	1	n/a	n/a	n/a	n/a	n/a
1385.354	n/a	PROB	692677	n/a	LTP253	ltpFR	11	n/a	n/a	n/a	n/a	n/a	n/a	n/a	9	4	1	4	n/a	n/a	n/a	n/a	n/a
1386.552	n/a	PROB	693276	n/a	LTP253	ltpFR	11	n/a	n/a	n/a	n/a	n/a	n/a	n/a	19	4	6	9	n/a	n/a	n/a	n/a	n/a
1388.104	n/a	STOP	694052	n/a	LTP253	ltpFR	11	n/a	n/a	n/a	n/a	n/a	n/a	n/a	n/a	n/a	n/a	n/a	n/a	n/a	n/a	n/a	n/a
1390.348	n/a	WORD	695174	wordpools/wasnorm_wordpool_less_exclusions.txt	LTP253	ltpFR	11	5	0	OWL	992	n/a	n/a	0	n/a	0	0	0	0.422607421875	0.5869140625	0	lower	zerothre.ttf
1393.36	n/a	START	696680	n/a	LTP253	ltpFR	11	n/a	n/a	n/a	n/a	n/a	n/a	n/a	n/a	n/a	n/a	n/a	n/a	n/a	n/a	n/a	n/a
1394.174	n/a	PROB	697087	n/a	LTP253	ltpFR	11	n/a	n/a	n/a	n/a	n/a	n/a	n/a	20	9	2	9	n/a	n/a	n/a	n/a	n/a
1395.822	n/a	PROB	697911	n/a	LTP253	ltpFR	11	n/a	n/a	n/a	n/a	n/a	n/a	n/a	8	2	1	5	n/a	n/a	n/a	n/a	n/a
1397.304	n/a	PROB	698652	n/a	LTP253	ltpFR	11	n/a	n/a	n/a	n/a	n/a	n/a	n/a	7	3	2	2	n/a	n/a	n/a	n/a	n/a
1399.334	n/a	PROB	699667	n/a	LTP253	ltpFR	11	n/a	n/a	n/a	n/a	n/a	n/a	n/a	12	3	4	5	n/a	n/a	n/a	n/a	n/a
1401.164	n/a	PROB	700582	n/a	LTP253	ltpFR	11	n/a	n/a	n/a	n/a	n/a	n/a	n/a	19	6	6	7	n/a	n/a	n/a	n/a	n/a
1404.226	n/a	PROB	702113	n/a	LTP253	ltpFR	11	n/a	n/a	n/a	n/a	n/a	n/a	n/a	10	8	1	1	n/a	n/a	n/a	n/a	n/a
1405.324	n/a	PROB	702662	n/a	LTP253	ltpFR	11	n/a	n/a	n/a	n/a	n/a	n/a	n/a	21	6	6	9	n/a	n/a	n/a	n/a	n/a
1407.138	n/a	PROB	703569	n/a	LTP253	ltpFR	11	n/a	n/a	n/a	n/a	n/a	n/a	n/a	19	9	8	2	n/a	n/a	n/a	n/a	n/a
1409.24	n/a	STOP	704620	n/a	LTP253	ltpFR	11	n/a	n/a	n/a	n/a	n/a	n/a	n/a	n/a	n/a	n/a	n/a	n/a	n/a	n/a	n/a	n/a
1410.55	n/a	WORD	705275	wordpools/wasnorm_wordpool_less_exclusions.txt	LTP253	ltpFR	11	5	0	DOVE	491	n/a	n/a	0	n/a	0	0	0	0.422607421875	0.5869140625	0	lower	zerothre.ttf
1413.562	n/a	START	706781	n/a	LTP253	ltpFR	11	n/a	n/a	n/a	n/a	n/a	n/a	n/a	n/a	n/a	n/a	n/a	n/a	n/a	n/a	n/a	n/a
1414.494	n/a	PROB	707247	n/a	LTP253	ltpFR	11	n/a	n/a	n/a	n/a	n/a	n/a	n/a	21	6	7	8	n/a	n/a	n/a	n/a	n/a
1416.524	n/a	PROB	708262	n/a	LTP253	ltpFR	11	n/a	n/a	n/a	n/a	n/a	n/a	n/a	9	2	2	5	n/a	n/a	n/a	n/a	n/a
1417.89	n/a	PROB	708945	n/a	LTP253	ltpFR	11	n/a	n/a	n/a	n/a	n/a	n/a	n/a	11	3	1	7	n/a	n/a	n/a	n/a	n/a
1419.636	n/a	PROB	709818	n/a	LTP253	ltpFR	11	n/a	n/a	n/a	n/a	n/a	n/a	n/a	14	8	5	1	n/a	n/a	n/a	n/a	n/a
1421.202	n/a	PROB	710601	n/a	LTP253	ltpFR	11	n/a	n/a	n/a	n/a	n/a	n/a	n/a	12	8	1	3	n/a	n/a	n/a	n/a	n/a
1422.682	n/a	PROB	711341	n/a	LTP253	ltpFR	11	n/a	n/a	n/a	n/a	n/a	n/a	n/a	8	3	1	4	n/a	n/a	n/a	n/a	n/a
1424.812	n/a	PROB	712406	n/a	LTP253	ltpFR	11	n/a	n/a	n/a	n/a	n/a	n/a	n/a	12	3	7	2	n/a	n/a	n/a	n/a	n/a
1426.26	n/a	PROB	713130	n/a	LTP253	ltpFR	11	n/a	n/a	n/a	n/a	n/a	n/a	n/a	15	9	3	3	n/a	n/a	n/a	n/a	n/a
1429.562	n/a	STOP	714781	n/a	LTP253	ltpFR	11	n/a	n/a	n/a	n/a	n/a	n/a	n/a	n/a	n/a	n/a	n/a	n/a	n/a	n/a	n/a	n/a
1431.42	n/a	REC_START	715710	n/a	LTP253	ltpFR	11	5	n/a	n/a	n/a	n/a	n/a	n/a	n/a	0	0	0	n/a	n/a	n/a	n/a	n/a
1433.086	n/a	REC_WORD	716543	wordpools/wasnorm_wordpool_less_exclusions.txt	LTP253	ltpFR	11	5	0	OWL	992	n/a	n/a	0	n/a	0	0	0	n/a	n/a	n/a	n/a	n/a
1433.83	n/a	REC_WORD	716915	wordpools/wasnorm_wordpool_less_exclusions.txt	LTP253	ltpFR	11	5	0	DOVE	491	n/a	n/a	0	n/a	0	0	0	n/a	n/a	n/a	n/a	n/a
1434.768	n/a	REC_WORD	717384	wordpools/wasnorm_wordpool_less_exclusions.txt	LTP253	ltpFR	11	5	0	EMPEROR	529	n/a	n/a	1	n/a	0	0	0	n/a	n/a	n/a	n/a	n/a
1439.182	n/a	REC_WORD	719591	wordpools/wasnorm_wordpool_less_exclusions.txt	LTP253	ltpFR	11	5	0	CANARY	227	n/a	n/a	0	n/a	0	0	0	n/a	n/a	n/a	n/a	n/a
1439.738	n/a	REC_WORD	719869	wordpools/wasnorm_wordpool_less_exclusions.txt	LTP253	ltpFR	11	5	1	FEATHER	557	n/a	n/a	0	n/a	0	0	0	n/a	n/a	n/a	n/a	n/a
1442.07	n/a	REC_WORD_VV	721035	wordpools/wasnorm_wordpool_less_exclusions.txt	LTP253	ltpFR	11	5	n/a	<>	-1	n/a	n/a	n/a	n/a	0	0	0	n/a	n/a	n/a	n/a	n/a
1445.18	n/a	REC_WORD	722590	wordpools/wasnorm_wordpool_less_exclusions.txt	LTP253	ltpFR	11	5	0	LOG	841	n/a	n/a	1	n/a	0	0	0	n/a	n/a	n/a	n/a	n/a
1459.402	n/a	REC_WORD	729701	wordpools/wasnorm_wordpool_less_exclusions.txt	LTP253	ltpFR	11	5	1	EAGLE	512	n/a	n/a	1	n/a	0	0	0	n/a	n/a	n/a	n/a	n/a
1460.556	n/a	REC_WORD	730278	wordpools/wasnorm_wordpool_less_exclusions.txt	LTP253	ltpFR	11	5	1	BLOUSE	139	n/a	n/a	0	n/a	0	0	0	n/a	n/a	n/a	n/a	n/a
1510.404	n/a	START	755202	n/a	LTP253	ltpFR	11	n/a	n/a	n/a	n/a	n/a	n/a	n/a	n/a	n/a	n/a	n/a	n/a	n/a	n/a	n/a	n/a
1511.918	n/a	PROB	755959	n/a	LTP253	ltpFR	11	n/a	n/a	n/a	n/a	n/a	n/a	n/a	13	8	3	2	n/a	n/a	n/a	n/a	n/a
1514.064	n/a	PROB	757032	n/a	LTP253	ltpFR	11	n/a	n/a	n/a	n/a	n/a	n/a	n/a	12	4	3	5	n/a	n/a	n/a	n/a	n/a
1516.144	n/a	PROB	758072	n/a	LTP253	ltpFR	11	n/a	n/a	n/a	n/a	n/a	n/a	n/a	14	4	7	3	n/a	n/a	n/a	n/a	n/a
1517.632	n/a	STOP	758816	n/a	LTP253	ltpFR	11	n/a	n/a	n/a	n/a	n/a	n/a	n/a	n/a	n/a	n/a	n/a	n/a	n/a	n/a	n/a	n/a
1519.29	n/a	WORD	759645	wordpools/wasnorm_wordpool_less_exclusions.txt	LTP253	ltpFR	11	6	0	ARTERY	41	n/a	n/a	0	n/a	0	0	0	0.422607421875	0.5869140625	0	lower	zerothre.ttf
1522.302	n/a	START	761151	n/a	LTP253	ltpFR	11	n/a	n/a	n/a	n/a	n/a	n/a	n/a	n/a	n/a	n/a	n/a	n/a	n/a	n/a	n/a	n/a
1523.168	n/a	PROB	761584	n/a	LTP253	ltpFR	11	n/a	n/a	n/a	n/a	n/a	n/a	n/a	17	9	3	5	n/a	n/a	n/a	n/a	n/a
1525.796	n/a	PROB	762898	n/a	LTP253	ltpFR	11	n/a	n/a	n/a	n/a	n/a	n/a	n/a	23	6	9	8	n/a	n/a	n/a	n/a	n/a
1527.76	n/a	PROB	763880	n/a	LTP253	ltpFR	11	n/a	n/a	n/a	n/a	n/a	n/a	n/a	16	5	8	3	n/a	n/a	n/a	n/a	n/a
1529.616	n/a	STOP	764808	n/a	LTP253	ltpFR	11	n/a	n/a	n/a	n/a	n/a	n/a	n/a	n/a	n/a	n/a	n/a	n/a	n/a	n/a	n/a	n/a
1531.322	n/a	WORD	765661	wordpools/wasnorm_wordpool_less_exclusions.txt	LTP253	ltpFR	11	6	0	FIN	566	n/a	n/a	0	n/a	0	0	0	0.422607421875	0.5869140625	0	lower	zerothre.ttf
1534.334	n/a	START	767167	n/a	LTP253	ltpFR	11	n/a	n/a	n/a	n/a	n/a	n/a	n/a	n/a	n/a	n/a	n/a	n/a	n/a	n/a	n/a	n/a
1535.366	n/a	PROB	767683	n/a	LTP253	ltpFR	11	n/a	n/a	n/a	n/a	n/a	n/a	n/a	13	3	3	7	n/a	n/a	n/a	n/a	n/a
1537.046	n/a	PROB	768523	n/a	LTP253	ltpFR	11	n/a	n/a	n/a	n/a	n/a	n/a	n/a	19	5	9	5	n/a	n/a	n/a	n/a	n/a
1538.694	n/a	PROB	769347	n/a	LTP253	ltpFR	11	n/a	n/a	n/a	n/a	n/a	n/a	n/a	14	6	6	2	n/a	n/a	n/a	n/a	n/a
1540.326	n/a	PROB	770163	n/a	LTP253	ltpFR	11	n/a	n/a	n/a	n/a	n/a	n/a	n/a	16	5	5	6	n/a	n/a	n/a	n/a	n/a
1541.57	n/a	STOP	770785	n/a	LTP253	ltpFR	11	n/a	n/a	n/a	n/a	n/a	n/a	n/a	n/a	n/a	n/a	n/a	n/a	n/a	n/a	n/a	n/a
1543.22	n/a	WORD	771610	wordpools/wasnorm_wordpool_less_exclusions.txt	LTP253	ltpFR	11	6	0	SPATULA	1348	n/a	n/a	0	n/a	0	0	0	0.422607421875	0.5869140625	0	lower	zerothre.ttf
1546.234	n/a	START	773117	n/a	LTP253	ltpFR	11	n/a	n/a	n/a	n/a	n/a	n/a	n/a	n/a	n/a	n/a	n/a	n/a	n/a	n/a	n/a	n/a
1547.264	n/a	PROB	773632	n/a	LTP253	ltpFR	11	n/a	n/a	n/a	n/a	n/a	n/a	n/a	15	1	5	9	n/a	n/a	n/a	n/a	n/a
1549.146	n/a	PROB	774573	n/a	LTP253	ltpFR	11	n/a	n/a	n/a	n/a	n/a	n/a	n/a	3	1	1	1	n/a	n/a	n/a	n/a	n/a
1550.244	n/a	PROB	775122	n/a	LTP253	ltpFR	11	n/a	n/a	n/a	n/a	n/a	n/a	n/a	12	4	1	7	n/a	n/a	n/a	n/a	n/a
1552.042	n/a	PROB	776021	n/a	LTP253	ltpFR	11	n/a	n/a	n/a	n/a	n/a	n/a	n/a	15	4	8	3	n/a	n/a	n/a	n/a	n/a
1553.578	n/a	STOP	776789	n/a	LTP253	ltpFR	11	n/a	n/a	n/a	n/a	n/a	n/a	n/a	n/a	n/a	n/a	n/a	n/a	n/a	n/a	n/a	n/a
1555.22	n/a	WORD	777610	wordpools/wasnorm_wordpool_less_exclusions.txt	LTP253	ltpFR	11	6	0	OATMEAL	967	n/a	n/a	0	n/a	0	0	0	0.422607421875	0.5869140625	0	lower	zerothre.ttf
1558.232	n/a	START	779116	n/a	LTP253	ltpFR	11	n/a	n/a	n/a	n/a	n/a	n/a	n/a	n/a	n/a	n/a	n/a	n/a	n/a	n/a	n/a	n/a
1559.38	n/a	PROB	779690	n/a	LTP253	ltpFR	11	n/a	n/a	n/a	n/a	n/a	n/a	n/a	14	2	5	7	n/a	n/a	n/a	n/a	n/a
1561.228	n/a	PROB	780614	n/a	LTP253	ltpFR	11	n/a	n/a	n/a	n/a	n/a	n/a	n/a	11	2	3	6	n/a	n/a	n/a	n/a	n/a
1562.892	n/a	PROB	781446	n/a	LTP253	ltpFR	11	n/a	n/a	n/a	n/a	n/a	n/a	n/a	12	3	2	7	n/a	n/a	n/a	n/a	n/a
1564.39	n/a	PROB	782195	n/a	LTP253	ltpFR	11	n/a	n/a	n/a	n/a	n/a	n/a	n/a	18	2	7	9	n/a	n/a	n/a	n/a	n/a
1566.042	n/a	STOP	783021	n/a	LTP253	ltpFR	11	n/a	n/a	n/a	n/a	n/a	n/a	n/a	n/a	n/a	n/a	n/a	n/a	n/a	n/a	n/a	n/a
1567.368	n/a	WORD	783684	wordpools/wasnorm_wordpool_less_exclusions.txt	LTP253	ltpFR	11	6	0	LAMB	797	n/a	n/a	1	n/a	0	0	0	0.422607421875	0.5869140625	0	lower	zerothre.ttf
1570.38	n/a	START	785190	n/a	LTP253	ltpFR	11	n/a	n/a	n/a	n/a	n/a	n/a	n/a	n/a	n/a	n/a	n/a	n/a	n/a	n/a	n/a	n/a
1571.196	n/a	PROB	785598	n/a	LTP253	ltpFR	11	n/a	n/a	n/a	n/a	n/a	n/a	n/a	18	6	3	9	n/a	n/a	n/a	n/a	n/a
1572.86	n/a	PROB	786430	n/a	LTP253	ltpFR	11	n/a	n/a	n/a	n/a	n/a	n/a	n/a	13	3	1	9	n/a	n/a	n/a	n/a	n/a
1574.606	n/a	PROB	787303	n/a	LTP253	ltpFR	11	n/a	n/a	n/a	n/a	n/a	n/a	n/a	13	4	3	6	n/a	n/a	n/a	n/a	n/a
1578.382	n/a	STOP	789191	n/a	LTP253	ltpFR	11	n/a	n/a	n/a	n/a	n/a	n/a	n/a	n/a	n/a	n/a	n/a	n/a	n/a	n/a	n/a	n/a
1579.352	n/a	WORD	789676	wordpools/wasnorm_wordpool_less_exclusions.txt	LTP253	ltpFR	11	6	0	LONDON	843	n/a	n/a	1	n/a	0	0	0	0.422607421875	0.5869140625	0	lower	zerothre.ttf
1582.364	n/a	START	791182	n/a	LTP253	ltpFR	11	n/a	n/a	n/a	n/a	n/a	n/a	n/a	n/a	n/a	n/a	n/a	n/a	n/a	n/a	n/a	n/a
1583.262	n/a	PROB	791631	n/a	LTP253	ltpFR	11	n/a	n/a	n/a	n/a	n/a	n/a	n/a	18	8	1	9	n/a	n/a	n/a	n/a	n/a
1585.242	n/a	PROB	792621	n/a	LTP253	ltpFR	11	n/a	n/a	n/a	n/a	n/a	n/a	n/a	17	8	6	3	n/a	n/a	n/a	n/a	n/a
1586.906	n/a	PROB	793453	n/a	LTP253	ltpFR	11	n/a	n/a	n/a	n/a	n/a	n/a	n/a	19	2	9	8	n/a	n/a	n/a	n/a	n/a
1590.364	n/a	STOP	795182	n/a	LTP253	ltpFR	11	n/a	n/a	n/a	n/a	n/a	n/a	n/a	n/a	n/a	n/a	n/a	n/a	n/a	n/a	n/a	n/a
1591.516	n/a	WORD	795758	wordpools/wasnorm_wordpool_less_exclusions.txt	LTP253	ltpFR	11	6	0	PALACE	1006	n/a	n/a	1	n/a	0	0	0	0.422607421875	0.5869140625	0	lower	zerothre.ttf
1594.53	n/a	START	797265	n/a	LTP253	ltpFR	11	n/a	n/a	n/a	n/a	n/a	n/a	n/a	n/a	n/a	n/a	n/a	n/a	n/a	n/a	n/a	n/a
1595.544	n/a	PROB	797772	n/a	LTP253	ltpFR	11	n/a	n/a	n/a	n/a	n/a	n/a	n/a	14	7	2	5	n/a	n/a	n/a	n/a	n/a
1597.008	n/a	PROB	798504	n/a	LTP253	ltpFR	11	n/a	n/a	n/a	n/a	n/a	n/a	n/a	19	8	6	5	n/a	n/a	n/a	n/a	n/a
1600.404	n/a	PROB	800202	n/a	LTP253	ltpFR	11	n/a	n/a	n/a	n/a	n/a	n/a	n/a	21	6	6	8	n/a	n/a	n/a	n/a	n/a
1602.354	n/a	STOP	801177	n/a	LTP253	ltpFR	11	n/a	n/a	n/a	n/a	n/a	n/a	n/a	n/a	n/a	n/a	n/a	n/a	n/a	n/a	n/a	n/a
1603.348	n/a	WORD	801674	wordpools/wasnorm_wordpool_less_exclusions.txt	LTP253	ltpFR	11	6	0	SKILLET	1317	n/a	n/a	0	n/a	0	0	0	0.422607421875	0.5869140625	0	lower	zerothre.ttf
1606.362	n/a	START	803181	n/a	LTP253	ltpFR	11	n/a	n/a	n/a	n/a	n/a	n/a	n/a	n/a	n/a	n/a	n/a	n/a	n/a	n/a	n/a	n/a
1607.36	n/a	PROB	803680	n/a	LTP253	ltpFR	11	n/a	n/a	n/a	n/a	n/a	n/a	n/a	19	8	5	6	n/a	n/a	n/a	n/a	n/a
1609.174	n/a	PROB	804587	n/a	LTP253	ltpFR	11	n/a	n/a	n/a	n/a	n/a	n/a	n/a	16	6	9	1	n/a	n/a	n/a	n/a	n/a
1610.704	n/a	PROB	805352	n/a	LTP253	ltpFR	11	n/a	n/a	n/a	n/a	n/a	n/a	n/a	9	2	6	1	n/a	n/a	n/a	n/a	n/a
1614.346	n/a	STOP	807173	n/a	LTP253	ltpFR	11	n/a	n/a	n/a	n/a	n/a	n/a	n/a	n/a	n/a	n/a	n/a	n/a	n/a	n/a	n/a	n/a
1615.564	n/a	WORD	807782	wordpools/wasnorm_wordpool_less_exclusions.txt	LTP253	ltpFR	11	6	0	CASTLE	256	n/a	n/a	1	n/a	0	0	0	0.422607421875	0.5869140625	0	lower	zerothre.ttf
1618.576	n/a	START	809288	n/a	LTP253	ltpFR	11	n/a	n/a	n/a	n/a	n/a	n/a	n/a	n/a	n/a	n/a	n/a	n/a	n/a	n/a	n/a	n/a
1619.524	n/a	PROB	809762	n/a	LTP253	ltpFR	11	n/a	n/a	n/a	n/a	n/a	n/a	n/a	10	8	1	1	n/a	n/a	n/a	n/a	n/a
1620.772	n/a	PROB	810386	n/a	LTP253	ltpFR	11	n/a	n/a	n/a	n/a	n/a	n/a	n/a	7	3	2	2	n/a	n/a	n/a	n/a	n/a
1622.536	n/a	PROB	811268	n/a	LTP253	ltpFR	11	n/a	n/a	n/a	n/a	n/a	n/a	n/a	11	2	7	2	n/a	n/a	n/a	n/a	n/a
1624.468	n/a	PROB	812234	n/a	LTP253	ltpFR	11	n/a	n/a	n/a	n/a	n/a	n/a	n/a	13	4	5	4	n/a	n/a	n/a	n/a	n/a
1626.37	n/a	STOP	813185	n/a	LTP253	ltpFR	11	n/a	n/a	n/a	n/a	n/a	n/a	n/a	n/a	n/a	n/a	n/a	n/a	n/a	n/a	n/a	n/a
1627.396	n/a	WORD	813698	wordpools/wasnorm_wordpool_less_exclusions.txt	LTP253	ltpFR	11	6	0	SAP	1233	n/a	n/a	0	n/a	0	0	0	0.422607421875	0.5869140625	0	lower	zerothre.ttf
1630.408	n/a	START	815204	n/a	LTP253	ltpFR	11	n/a	n/a	n/a	n/a	n/a	n/a	n/a	n/a	n/a	n/a	n/a	n/a	n/a	n/a	n/a	n/a
1631.606	n/a	PROB	815803	n/a	LTP253	ltpFR	11	n/a	n/a	n/a	n/a	n/a	n/a	n/a	10	3	5	2	n/a	n/a	n/a	n/a	n/a
1633.536	n/a	PROB	816768	n/a	LTP253	ltpFR	11	n/a	n/a	n/a	n/a	n/a	n/a	n/a	25	9	9	7	n/a	n/a	n/a	n/a	n/a
1635.134	n/a	PROB	817567	n/a	LTP253	ltpFR	11	n/a	n/a	n/a	n/a	n/a	n/a	n/a	7	1	3	3	n/a	n/a	n/a	n/a	n/a
1636.532	n/a	PROB	818266	n/a	LTP253	ltpFR	11	n/a	n/a	n/a	n/a	n/a	n/a	n/a	12	9	1	2	n/a	n/a	n/a	n/a	n/a
1637.93	n/a	STOP	818965	n/a	LTP253	ltpFR	11	n/a	n/a	n/a	n/a	n/a	n/a	n/a	n/a	n/a	n/a	n/a	n/a	n/a	n/a	n/a	n/a
1639.478	n/a	WORD	819739	wordpools/wasnorm_wordpool_less_exclusions.txt	LTP253	ltpFR	11	6	0	LEAF	808	n/a	n/a	0	n/a	0	0	0	0.422607421875	0.5869140625	0	lower	zerothre.ttf
1642.49	n/a	START	821245	n/a	LTP253	ltpFR	11	n/a	n/a	n/a	n/a	n/a	n/a	n/a	n/a	n/a	n/a	n/a	n/a	n/a	n/a	n/a	n/a
1643.322	n/a	PROB	821661	n/a	LTP253	ltpFR	11	n/a	n/a	n/a	n/a	n/a	n/a	n/a	20	9	5	6	n/a	n/a	n/a	n/a	n/a
1644.938	n/a	PROB	822469	n/a	LTP253	ltpFR	11	n/a	n/a	n/a	n/a	n/a	n/a	n/a	13	2	3	8	n/a	n/a	n/a	n/a	n/a
1646.568	n/a	PROB	823284	n/a	LTP253	ltpFR	11	n/a	n/a	n/a	n/a	n/a	n/a	n/a	9	5	3	1	n/a	n/a	n/a	n/a	n/a
1647.884	n/a	PROB	823942	n/a	LTP253	ltpFR	11	n/a	n/a	n/a	n/a	n/a	n/a	n/a	20	8	7	5	n/a	n/a	n/a	n/a	n/a
1649.252	n/a	STOP	824626	n/a	LTP253	ltpFR	11	n/a	n/a	n/a	n/a	n/a	n/a	n/a	n/a	n/a	n/a	n/a	n/a	n/a	n/a	n/a	n/a
1651.528	n/a	WORD	825764	wordpools/wasnorm_wordpool_less_exclusions.txt	LTP253	ltpFR	11	6	0	SENATOR	1268	n/a	n/a	1	n/a	0	0	0	0.422607421875	0.5869140625	0	lower	zerothre.ttf
1654.54	n/a	START	827270	n/a	LTP253	ltpFR	11	n/a	n/a	n/a	n/a	n/a	n/a	n/a	n/a	n/a	n/a	n/a	n/a	n/a	n/a	n/a	n/a
1655.372	n/a	PROB	827686	n/a	LTP253	ltpFR	11	n/a	n/a	n/a	n/a	n/a	n/a	n/a	10	1	1	8	n/a	n/a	n/a	n/a	n/a
1656.854	n/a	PROB	828427	n/a	LTP253	ltpFR	11	n/a	n/a	n/a	n/a	n/a	n/a	n/a	21	8	5	8	n/a	n/a	n/a	n/a	n/a
1659.0	n/a	PROB	829500	n/a	LTP253	ltpFR	11	n/a	n/a	n/a	n/a	n/a	n/a	n/a	18	4	9	5	n/a	n/a	n/a	n/a	n/a
1661.052	n/a	STOP	830526	n/a	LTP253	ltpFR	11	n/a	n/a	n/a	n/a	n/a	n/a	n/a	n/a	n/a	n/a	n/a	n/a	n/a	n/a	n/a	n/a
1663.626	n/a	WORD	831813	wordpools/wasnorm_wordpool_less_exclusions.txt	LTP253	ltpFR	11	6	0	MONARCH	906	n/a	n/a	1	n/a	0	0	0	0.422607421875	0.5869140625	0	lower	zerothre.ttf
1666.638	n/a	START	833319	n/a	LTP253	ltpFR	11	n/a	n/a	n/a	n/a	n/a	n/a	n/a	n/a	n/a	n/a	n/a	n/a	n/a	n/a	n/a	n/a
1667.454	n/a	PROB	833727	n/a	LTP253	ltpFR	11	n/a	n/a	n/a	n/a	n/a	n/a	n/a	18	4	8	6	n/a	n/a	n/a	n/a	n/a
1669.434	n/a	PROB	834717	n/a	LTP253	ltpFR	11	n/a	n/a	n/a	n/a	n/a	n/a	n/a	14	4	3	7	n/a	n/a	n/a	n/a	n/a
1670.932	n/a	PROB	835466	n/a	LTP253	ltpFR	11	n/a	n/a	n/a	n/a	n/a	n/a	n/a	17	1	8	8	n/a	n/a	n/a	n/a	n/a
1672.696	n/a	PROB	836348	n/a	LTP253	ltpFR	11	n/a	n/a	n/a	n/a	n/a	n/a	n/a	15	9	3	3	n/a	n/a	n/a	n/a	n/a
1674.06	n/a	STOP	837030	n/a	LTP253	ltpFR	11	n/a	n/a	n/a	n/a	n/a	n/a	n/a	n/a	n/a	n/a	n/a	n/a	n/a	n/a	n/a	n/a
1675.774	n/a	WORD	837887	wordpools/wasnorm_wordpool_less_exclusions.txt	LTP253	ltpFR	11	6	0	PAWN	1030	n/a	n/a	0	n/a	0	0	0	0.422607421875	0.5869140625	0	lower	zerothre.ttf
1678.788	n/a	START	839394	n/a	LTP253	ltpFR	11	n/a	n/a	n/a	n/a	n/a	n/a	n/a	n/a	n/a	n/a	n/a	n/a	n/a	n/a	n/a	n/a
1679.652	n/a	PROB	839826	n/a	LTP253	ltpFR	11	n/a	n/a	n/a	n/a	n/a	n/a	n/a	18	5	7	6	n/a	n/a	n/a	n/a	n/a
1681.8	n/a	PROB	840900	n/a	LTP253	ltpFR	11	n/a	n/a	n/a	n/a	n/a	n/a	n/a	14	8	3	3	n/a	n/a	n/a	n/a	n/a
1683.68	n/a	PROB	841840	n/a	LTP253	ltpFR	11	n/a	n/a	n/a	n/a	n/a	n/a	n/a	12	2	2	8	n/a	n/a	n/a	n/a	n/a
1685.38	n/a	STOP	842690	n/a	LTP253	ltpFR	11	n/a	n/a	n/a	n/a	n/a	n/a	n/a	n/a	n/a	n/a	n/a	n/a	n/a	n/a	n/a	n/a
1687.956	n/a	WORD	843978	wordpools/wasnorm_wordpool_less_exclusions.txt	LTP253	ltpFR	11	6	0	BANKER	84	n/a	n/a	1	n/a	0	0	0	0.422607421875	0.5869140625	0	lower	zerothre.ttf
1690.97	n/a	START	845485	n/a	LTP253	ltpFR	11	n/a	n/a	n/a	n/a	n/a	n/a	n/a	n/a	n/a	n/a	n/a	n/a	n/a	n/a	n/a	n/a
1691.9	n/a	PROB	845950	n/a	LTP253	ltpFR	11	n/a	n/a	n/a	n/a	n/a	n/a	n/a	17	5	7	5	n/a	n/a	n/a	n/a	n/a
1693.682	n/a	PROB	846841	n/a	LTP253	ltpFR	11	n/a	n/a	n/a	n/a	n/a	n/a	n/a	15	8	6	1	n/a	n/a	n/a	n/a	n/a
1695.562	n/a	PROB	847781	n/a	LTP253	ltpFR	11	n/a	n/a	n/a	n/a	n/a	n/a	n/a	22	7	9	6	n/a	n/a	n/a	n/a	n/a
1698.404	n/a	STOP	849202	n/a	LTP253	ltpFR	11	n/a	n/a	n/a	n/a	n/a	n/a	n/a	n/a	n/a	n/a	n/a	n/a	n/a	n/a	n/a	n/a
1700.038	n/a	WORD	850019	wordpools/wasnorm_wordpool_less_exclusions.txt	LTP253	ltpFR	11	6	0	HOOK	715	n/a	n/a	0	n/a	0	0	0	0.422607421875	0.5869140625	0	lower	zerothre.ttf
1703.052	n/a	START	851526	n/a	LTP253	ltpFR	11	n/a	n/a	n/a	n/a	n/a	n/a	n/a	n/a	n/a	n/a	n/a	n/a	n/a	n/a	n/a	n/a
1703.882	n/a	PROB	851941	n/a	LTP253	ltpFR	11	n/a	n/a	n/a	n/a	n/a	n/a	n/a	9	5	2	2	n/a	n/a	n/a	n/a	n/a
1705.43	n/a	PROB	852715	n/a	LTP253	ltpFR	11	n/a	n/a	n/a	n/a	n/a	n/a	n/a	18	8	2	8	n/a	n/a	n/a	n/a	n/a
1706.796	n/a	PROB	853398	n/a	LTP253	ltpFR	11	n/a	n/a	n/a	n/a	n/a	n/a	n/a	12	6	3	3	n/a	n/a	n/a	n/a	n/a
1708.51	n/a	PROB	854255	n/a	LTP253	ltpFR	11	n/a	n/a	n/a	n/a	n/a	n/a	n/a	16	8	1	7	n/a	n/a	n/a	n/a	n/a
1710.332	n/a	STOP	855166	n/a	LTP253	ltpFR	11	n/a	n/a	n/a	n/a	n/a	n/a	n/a	n/a	n/a	n/a	n/a	n/a	n/a	n/a	n/a	n/a
1712.838	n/a	REC_START	856419	n/a	LTP253	ltpFR	11	6	n/a	n/a	n/a	n/a	n/a	n/a	n/a	0	0	0	n/a	n/a	n/a	n/a	n/a
1714.178	n/a	REC_WORD	857089	wordpools/wasnorm_wordpool_less_exclusions.txt	LTP253	ltpFR	11	6	0	HOOK	715	n/a	n/a	0	n/a	0	0	0	n/a	n/a	n/a	n/a	n/a
1714.844	n/a	REC_WORD	857422	wordpools/wasnorm_wordpool_less_exclusions.txt	LTP253	ltpFR	11	6	0	PAWN	1030	n/a	n/a	0	n/a	0	0	0	n/a	n/a	n/a	n/a	n/a
1715.73	n/a	REC_WORD	857865	wordpools/wasnorm_wordpool_less_exclusions.txt	LTP253	ltpFR	11	6	0	BANKER	84	n/a	n/a	1	n/a	0	0	0	n/a	n/a	n/a	n/a	n/a
1716.574	n/a	REC_WORD	858287	wordpools/wasnorm_wordpool_less_exclusions.txt	LTP253	ltpFR	11	6	0	MONARCH	906	n/a	n/a	1	n/a	0	0	0	n/a	n/a	n/a	n/a	n/a
1717.62	n/a	REC_WORD	858810	wordpools/wasnorm_wordpool_less_exclusions.txt	LTP253	ltpFR	11	6	0	PALACE	1006	n/a	n/a	1	n/a	0	0	0	n/a	n/a	n/a	n/a	n/a
1718.524	n/a	REC_WORD	859262	wordpools/wasnorm_wordpool_less_exclusions.txt	LTP253	ltpFR	11	6	0	CASTLE	256	n/a	n/a	1	n/a	0	0	0	n/a	n/a	n/a	n/a	n/a
1719.604	n/a	REC_WORD	859802	wordpools/wasnorm_wordpool_less_exclusions.txt	LTP253	ltpFR	11	6	n/a	GOVERNOR	651	n/a	n/a	n/a	n/a	0	0	0	n/a	n/a	n/a	n/a	n/a
1721.74	n/a	REC_WORD	860870	wordpools/wasnorm_wordpool_less_exclusions.txt	LTP253	ltpFR	11	6	0	FIN	566	n/a	n/a	0	n/a	0	0	0	n/a	n/a	n/a	n/a	n/a
1722.82	n/a	REC_WORD	861410	wordpools/wasnorm_wordpool_less_exclusions.txt	LTP253	ltpFR	11	6	0	ARTERY	41	n/a	n/a	0	n/a	0	0	0	n/a	n/a	n/a	n/a	n/a
1724.088	n/a	REC_WORD	862044	wordpools/wasnorm_wordpool_less_exclusions.txt	LTP253	ltpFR	11	6	0	OATMEAL	967	n/a	n/a	0	n/a	0	0	0	n/a	n/a	n/a	n/a	n/a
1724.968	n/a	REC_WORD	862484	wordpools/wasnorm_wordpool_less_exclusions.txt	LTP253	ltpFR	11	6	0	LEAF	808	n/a	n/a	0	n/a	0	0	0	n/a	n/a	n/a	n/a	n/a
1725.872	n/a	REC_WORD	862936	wordpools/wasnorm_wordpool_less_exclusions.txt	LTP253	ltpFR	11	6	0	SKILLET	1317	n/a	n/a	0	n/a	0	0	0	n/a	n/a	n/a	n/a	n/a
1727.14	n/a	REC_WORD	863570	wordpools/wasnorm_wordpool_less_exclusions.txt	LTP253	ltpFR	11	6	0	SAP	1233	n/a	n/a	0	n/a	0	0	0	n/a	n/a	n/a	n/a	n/a
1744.542	n/a	REC_WORD	872271	wordpools/wasnorm_wordpool_less_exclusions.txt	LTP253	ltpFR	11	6	0	LONDON	843	n/a	n/a	1	n/a	0	0	0	n/a	n/a	n/a	n/a	n/a
1794.15	n/a	WORD	897075	wordpools/wasnorm_wordpool_less_exclusions.txt	LTP253	ltpFR	11	7	0	APE	31	n/a	n/a	1	n/a	0	0	0	0.422607421875	0.5869140625	0	lower	zerothre.ttf
1798.044	n/a	WORD	899022	wordpools/wasnorm_wordpool_less_exclusions.txt	LTP253	ltpFR	11	7	0	HEAD	695	n/a	n/a	1	n/a	0	0	0	0.422607421875	0.5869140625	0	lower	zerothre.ttf
1802.054	n/a	WORD	901027	wordpools/wasnorm_wordpool_less_exclusions.txt	LTP253	ltpFR	11	7	0	PARROT	1015	n/a	n/a	0	n/a	0	0	0	0.422607421875	0.5869140625	0	lower	zerothre.ttf
1806.166	n/a	WORD	903083	wordpools/wasnorm_wordpool_less_exclusions.txt	LTP253	ltpFR	11	7	0	BOUILLON	154	n/a	n/a	0	n/a	0	0	0	0.422607421875	0.5869140625	0	lower	zerothre.ttf
1810.16	n/a	WORD	905080	wordpools/wasnorm_wordpool_less_exclusions.txt	LTP253	ltpFR	11	7	0	PELT	1040	n/a	n/a	0	n/a	0	0	0	0.422607421875	0.5869140625	0	lower	zerothre.ttf
1814.336	n/a	WORD	907168	wordpools/wasnorm_wordpool_less_exclusions.txt	LTP253	ltpFR	11	7	0	SEAGULL	1261	n/a	n/a	0	n/a	0	0	0	0.422607421875	0.5869140625	0	lower	zerothre.ttf
1818.298	n/a	WORD	909149	wordpools/wasnorm_wordpool_less_exclusions.txt	LTP253	ltpFR	11	7	0	TAPE	1433	n/a	n/a	0	n/a	0	0	0	0.422607421875	0.5869140625	0	lower	zerothre.ttf
1822.192	n/a	WORD	911096	wordpools/wasnorm_wordpool_less_exclusions.txt	LTP253	ltpFR	11	7	0	CONCERT	360	n/a	n/a	1	n/a	0	0	0	0.422607421875	0.5869140625	0	lower	zerothre.ttf
1826.236	n/a	WORD	913118	wordpools/wasnorm_wordpool_less_exclusions.txt	LTP253	ltpFR	11	7	0	NOVEL	960	n/a	n/a	0	n/a	0	0	0	0.422607421875	0.5869140625	0	lower	zerothre.ttf
1830.164	n/a	WORD	915082	wordpools/wasnorm_wordpool_less_exclusions.txt	LTP253	ltpFR	11	7	0	PROFESSIONAL	1130	n/a	n/a	1	n/a	0	0	0	0.422607421875	0.5869140625	0	lower	zerothre.ttf
1834.108	n/a	WORD	917054	wordpools/wasnorm_wordpool_less_exclusions.txt	LTP253	ltpFR	11	7	0	MAMMAL	861	n/a	n/a	1	n/a	0	0	0	0.422607421875	0.5869140625	0	lower	zerothre.ttf
1838.3	n/a	WORD	919150	wordpools/wasnorm_wordpool_less_exclusions.txt	LTP253	ltpFR	11	7	0	CHICKEN	297	n/a	n/a	0	n/a	0	0	0	0.422607421875	0.5869140625	0	lower	zerothre.ttf
1842.178	n/a	WORD	921089	wordpools/wasnorm_wordpool_less_exclusions.txt	LTP253	ltpFR	11	7	0	LOBSTER	837	n/a	n/a	0	n/a	0	0	0	0.422607421875	0.5869140625	0	lower	zerothre.ttf
1846.122	n/a	WORD	923061	wordpools/wasnorm_wordpool_less_exclusions.txt	LTP253	ltpFR	11	7	0	OCTOPUS	971	n/a	n/a	0	n/a	0	0	0	0.422607421875	0.5869140625	0	lower	zerothre.ttf
1850.118	n/a	WORD	925059	wordpools/wasnorm_wordpool_less_exclusions.txt	LTP253	ltpFR	11	7	0	GOAT	644	n/a	n/a	0	n/a	0	0	0	0.422607421875	0.5869140625	0	lower	zerothre.ttf
1854.244	n/a	WORD	927122	wordpools/wasnorm_wordpool_less_exclusions.txt	LTP253	ltpFR	11	7	0	MONGOOSE	909	n/a	n/a	0	n/a	0	0	0	0.422607421875	0.5869140625	0	lower	zerothre.ttf
1860.104	n/a	REC_START	930052	n/a	LTP253	ltpFR	11	7	n/a	n/a	n/a	n/a	n/a	n/a	n/a	0	0	0	n/a	n/a	n/a	n/a	n/a
1862.072	n/a	REC_WORD	931036	wordpools/wasnorm_wordpool_less_exclusions.txt	LTP253	ltpFR	11	7	0	CHICKEN	297	n/a	n/a	0	n/a	0	0	0	n/a	n/a	n/a	n/a	n/a
1862.778	n/a	REC_WORD	931389	wordpools/wasnorm_wordpool_less_exclusions.txt	LTP253	ltpFR	11	7	0	LOBSTER	837	n/a	n/a	0	n/a	0	0	0	n/a	n/a	n/a	n/a	n/a
1863.824	n/a	REC_WORD	931912	wordpools/wasnorm_wordpool_less_exclusions.txt	LTP253	ltpFR	11	7	0	GOAT	644	n/a	n/a	0	n/a	0	0	0	n/a	n/a	n/a	n/a	n/a
1864.724	n/a	REC_WORD	932362	wordpools/wasnorm_wordpool_less_exclusions.txt	LTP253	ltpFR	11	7	0	MONGOOSE	909	n/a	n/a	0	n/a	0	0	0	n/a	n/a	n/a	n/a	n/a
1865.854	n/a	REC_WORD	932927	wordpools/wasnorm_wordpool_less_exclusions.txt	LTP253	ltpFR	11	7	0	APE	31	n/a	n/a	1	n/a	0	0	0	n/a	n/a	n/a	n/a	n/a
1866.54	n/a	REC_WORD	933270	wordpools/wasnorm_wordpool_less_exclusions.txt	LTP253	ltpFR	11	7	0	HEAD	695	n/a	n/a	1	n/a	0	0	0	n/a	n/a	n/a	n/a	n/a
1867.632	n/a	REC_WORD	933816	wordpools/wasnorm_wordpool_less_exclusions.txt	LTP253	ltpFR	11	7	0	PARROT	1015	n/a	n/a	0	n/a	0	0	0	n/a	n/a	n/a	n/a	n/a
1871.396	n/a	REC_WORD	935698	wordpools/wasnorm_wordpool_less_exclusions.txt	LTP253	ltpFR	11	7	0	TAPE	1433	n/a	n/a	0	n/a	0	0	0	n/a	n/a	n/a	n/a	n/a
1874.022	n/a	REC_WORD	937011	wordpools/wasnorm_wordpool_less_exclusions.txt	LTP253	ltpFR	11	7	0	BOUILLON	154	n/a	n/a	0	n/a	0	0	0	n/a	n/a	n/a	n/a	n/a
1875.272	n/a	REC_WORD_VV	937636	wordpools/wasnorm_wordpool_less_exclusions.txt	LTP253	ltpFR	11	7	n/a	<>	-1	n/a	n/a	n/a	n/a	0	0	0	n/a	n/a	n/a	n/a	n/a
1884.382	n/a	REC_WORD	942191	wordpools/wasnorm_wordpool_less_exclusions.txt	LTP253	ltpFR	11	7	0	CONCERT	360	n/a	n/a	1	n/a	0	0	0	n/a	n/a	n/a	n/a	n/a
1885.764	n/a	REC_WORD	942882	wordpools/wasnorm_wordpool_less_exclusions.txt	LTP253	ltpFR	11	7	0	NOVEL	960	n/a	n/a	0	n/a	0	0	0	n/a	n/a	n/a	n/a	n/a
1886.904	n/a	REC_WORD	943452	wordpools/wasnorm_wordpool_less_exclusions.txt	LTP253	ltpFR	11	7	0	PROFESSIONAL	1130	n/a	n/a	1	n/a	0	0	0	n/a	n/a	n/a	n/a	n/a
1901.452	n/a	REC_WORD	950726	wordpools/wasnorm_wordpool_less_exclusions.txt	LTP253	ltpFR	11	7	0	SEAGULL	1261	n/a	n/a	0	n/a	0	0	0	n/a	n/a	n/a	n/a	n/a
1940.518	n/a	START	970259	n/a	LTP253	ltpFR	11	n/a	n/a	n/a	n/a	n/a	n/a	n/a	n/a	n/a	n/a	n/a	n/a	n/a	n/a	n/a	n/a
1942.032	n/a	PROB	971016	n/a	LTP253	ltpFR	11	n/a	n/a	n/a	n/a	n/a	n/a	n/a	17	2	9	6	n/a	n/a	n/a	n/a	n/a
1943.896	n/a	PROB	971948	n/a	LTP253	ltpFR	11	n/a	n/a	n/a	n/a	n/a	n/a	n/a	27	9	9	9	n/a	n/a	n/a	n/a	n/a
1945.71	n/a	PROB	972855	n/a	LTP253	ltpFR	11	n/a	n/a	n/a	n/a	n/a	n/a	n/a	13	4	8	1	n/a	n/a	n/a	n/a	n/a
1947.324	n/a	PROB	973662	n/a	LTP253	ltpFR	11	n/a	n/a	n/a	n/a	n/a	n/a	n/a	14	4	8	2	n/a	n/a	n/a	n/a	n/a
1948.654	n/a	PROB	974327	n/a	LTP253	ltpFR	11	n/a	n/a	n/a	n/a	n/a	n/a	n/a	19	9	9	1	n/a	n/a	n/a	n/a	n/a
1949.97	n/a	PROB	974985	n/a	LTP253	ltpFR	11	n/a	n/a	n/a	n/a	n/a	n/a	n/a	19	1	9	9	n/a	n/a	n/a	n/a	n/a
1951.384	n/a	PROB	975692	n/a	LTP253	ltpFR	11	n/a	n/a	n/a	n/a	n/a	n/a	n/a	15	2	9	4	n/a	n/a	n/a	n/a	n/a
1952.932	n/a	PROB	976466	n/a	LTP253	ltpFR	11	n/a	n/a	n/a	n/a	n/a	n/a	n/a	13	5	6	2	n/a	n/a	n/a	n/a	n/a
1956.518	n/a	STOP	978259	n/a	LTP253	ltpFR	11	n/a	n/a	n/a	n/a	n/a	n/a	n/a	n/a	n/a	n/a	n/a	n/a	n/a	n/a	n/a	n/a
1957.708	n/a	WORD	978854	wordpools/wasnorm_wordpool_less_exclusions.txt	LTP253	ltpFR	11	8	1	PUMP	1141	n/a	n/a	0	n/a	0	0	0	0.57763671875	0.412841796875	1	upper	amplitud.ttf
1960.72	n/a	START	980360	n/a	LTP253	ltpFR	11	n/a	n/a	n/a	n/a	n/a	n/a	n/a	n/a	n/a	n/a	n/a	n/a	n/a	n/a	n/a	n/a
1961.802	n/a	PROB	980901	n/a	LTP253	ltpFR	11	n/a	n/a	n/a	n/a	n/a	n/a	n/a	14	2	9	3	n/a	n/a	n/a	n/a	n/a
1964.248	n/a	PROB	982124	n/a	LTP253	ltpFR	11	n/a	n/a	n/a	n/a	n/a	n/a	n/a	8	1	2	5	n/a	n/a	n/a	n/a	n/a
1966.112	n/a	PROB	983056	n/a	LTP253	ltpFR	11	n/a	n/a	n/a	n/a	n/a	n/a	n/a	11	2	3	6	n/a	n/a	n/a	n/a	n/a
1968.126	n/a	PROB	984063	n/a	LTP253	ltpFR	11	n/a	n/a	n/a	n/a	n/a	n/a	n/a	11	4	4	3	n/a	n/a	n/a	n/a	n/a
1969.64	n/a	PROB	984820	n/a	LTP253	ltpFR	11	n/a	n/a	n/a	n/a	n/a	n/a	n/a	19	7	9	3	n/a	n/a	n/a	n/a	n/a
1971.904	n/a	PROB	985952	n/a	LTP253	ltpFR	11	n/a	n/a	n/a	n/a	n/a	n/a	n/a	16	1	6	9	n/a	n/a	n/a	n/a	n/a
1976.72	n/a	STOP	988360	n/a	LTP253	ltpFR	11	n/a	n/a	n/a	n/a	n/a	n/a	n/a	n/a	n/a	n/a	n/a	n/a	n/a	n/a	n/a	n/a
1977.694	n/a	WORD	988847	wordpools/wasnorm_wordpool_less_exclusions.txt	LTP253	ltpFR	11	8	1	BEAST	108	n/a	n/a	1	n/a	0	0	0	0.57763671875	0.412841796875	1	upper	amplitud.ttf
1980.708	n/a	START	990354	n/a	LTP253	ltpFR	11	n/a	n/a	n/a	n/a	n/a	n/a	n/a	n/a	n/a	n/a	n/a	n/a	n/a	n/a	n/a	n/a
1981.89	n/a	PROB	990945	n/a	LTP253	ltpFR	11	n/a	n/a	n/a	n/a	n/a	n/a	n/a	5	2	2	1	n/a	n/a	n/a	n/a	n/a
1983.138	n/a	PROB	991569	n/a	LTP253	ltpFR	11	n/a	n/a	n/a	n/a	n/a	n/a	n/a	11	1	8	2	n/a	n/a	n/a	n/a	n/a
1984.602	n/a	PROB	992301	n/a	LTP253	ltpFR	11	n/a	n/a	n/a	n/a	n/a	n/a	n/a	13	3	6	4	n/a	n/a	n/a	n/a	n/a
1986.366	n/a	PROB	993183	n/a	LTP253	ltpFR	11	n/a	n/a	n/a	n/a	n/a	n/a	n/a	19	9	3	7	n/a	n/a	n/a	n/a	n/a
1989.994	n/a	PROB	994997	n/a	LTP253	ltpFR	11	n/a	n/a	n/a	n/a	n/a	n/a	n/a	15	4	9	2	n/a	n/a	n/a	n/a	n/a
1991.858	n/a	PROB	995929	n/a	LTP253	ltpFR	11	n/a	n/a	n/a	n/a	n/a	n/a	n/a	14	7	3	4	n/a	n/a	n/a	n/a	n/a
1993.372	n/a	PROB	996686	n/a	LTP253	ltpFR	11	n/a	n/a	n/a	n/a	n/a	n/a	n/a	9	1	6	2	n/a	n/a	n/a	n/a	n/a
1994.588	n/a	PROB	997294	n/a	LTP253	ltpFR	11	n/a	n/a	n/a	n/a	n/a	n/a	n/a	12	1	2	9	n/a	n/a	n/a	n/a	n/a
1996.44	n/a	STOP	998220	n/a	LTP253	ltpFR	11	n/a	n/a	n/a	n/a	n/a	n/a	n/a	n/a	n/a	n/a	n/a	n/a	n/a	n/a	n/a	n/a
1997.7	n/a	WORD	998850	wordpools/wasnorm_wordpool_less_exclusions.txt	LTP253	ltpFR	11	8	0	VOLLEYBALL	1576	n/a	n/a	0	n/a	0	0	0	0.422607421875	0.5869140625	0	lower	zerothre.ttf
2000.712	n/a	START	1000356	n/a	LTP253	ltpFR	11	n/a	n/a	n/a	n/a	n/a	n/a	n/a	n/a	n/a	n/a	n/a	n/a	n/a	n/a	n/a	n/a
2001.76	n/a	PROB	1000880	n/a	LTP253	ltpFR	11	n/a	n/a	n/a	n/a	n/a	n/a	n/a	9	3	4	2	n/a	n/a	n/a	n/a	n/a
2004.04	n/a	PROB	1002020	n/a	LTP253	ltpFR	11	n/a	n/a	n/a	n/a	n/a	n/a	n/a	19	7	4	8	n/a	n/a	n/a	n/a	n/a
2006.086	n/a	PROB	1003043	n/a	LTP253	ltpFR	11	n/a	n/a	n/a	n/a	n/a	n/a	n/a	9	5	2	2	n/a	n/a	n/a	n/a	n/a
2007.384	n/a	PROB	1003692	n/a	LTP253	ltpFR	11	n/a	n/a	n/a	n/a	n/a	n/a	n/a	13	5	6	2	n/a	n/a	n/a	n/a	n/a
2008.782	n/a	PROB	1004391	n/a	LTP253	ltpFR	11	n/a	n/a	n/a	n/a	n/a	n/a	n/a	19	6	9	4	n/a	n/a	n/a	n/a	n/a
2011.146	n/a	PROB	1005573	n/a	LTP253	ltpFR	11	n/a	n/a	n/a	n/a	n/a	n/a	n/a	15	5	4	6	n/a	n/a	n/a	n/a	n/a
2012.944	n/a	PROB	1006472	n/a	LTP253	ltpFR	11	n/a	n/a	n/a	n/a	n/a	n/a	n/a	11	7	2	2	n/a	n/a	n/a	n/a	n/a
2014.74	n/a	PROB	1007370	n/a	LTP253	ltpFR	11	n/a	n/a	n/a	n/a	n/a	n/a	n/a	16	5	3	8	n/a	n/a	n/a	n/a	n/a
2016.2	n/a	STOP	1008100	n/a	LTP253	ltpFR	11	n/a	n/a	n/a	n/a	n/a	n/a	n/a	n/a	n/a	n/a	n/a	n/a	n/a	n/a	n/a	n/a
2017.72	n/a	WORD	1008860	wordpools/wasnorm_wordpool_less_exclusions.txt	LTP253	ltpFR	11	8	0	HOOP	716	n/a	n/a	1	n/a	0	0	0	0.422607421875	0.5869140625	0	lower	zerothre.ttf
2020.732	n/a	START	1010366	n/a	LTP253	ltpFR	11	n/a	n/a	n/a	n/a	n/a	n/a	n/a	n/a	n/a	n/a	n/a	n/a	n/a	n/a	n/a	n/a
2021.896	n/a	PROB	1010948	n/a	LTP253	ltpFR	11	n/a	n/a	n/a	n/a	n/a	n/a	n/a	18	7	6	5	n/a	n/a	n/a	n/a	n/a
2024.26	n/a	PROB	1012130	n/a	LTP253	ltpFR	11	n/a	n/a	n/a	n/a	n/a	n/a	n/a	12	3	2	7	n/a	n/a	n/a	n/a	n/a
2025.99	n/a	PROB	1012995	n/a	LTP253	ltpFR	11	n/a	n/a	n/a	n/a	n/a	n/a	n/a	14	9	2	3	n/a	n/a	n/a	n/a	n/a
2027.722	n/a	PROB	1013861	n/a	LTP253	ltpFR	11	n/a	n/a	n/a	n/a	n/a	n/a	n/a	12	5	1	6	n/a	n/a	n/a	n/a	n/a
2029.068	n/a	PROB	1014534	n/a	LTP253	ltpFR	11	n/a	n/a	n/a	n/a	n/a	n/a	n/a	11	3	7	1	n/a	n/a	n/a	n/a	n/a
2030.35	n/a	PROB	1015175	n/a	LTP253	ltpFR	11	n/a	n/a	n/a	n/a	n/a	n/a	n/a	17	6	2	9	n/a	n/a	n/a	n/a	n/a
2032.946	n/a	PROB	1016473	n/a	LTP253	ltpFR	11	n/a	n/a	n/a	n/a	n/a	n/a	n/a	15	2	9	4	n/a	n/a	n/a	n/a	n/a
2034.344	n/a	PROB	1017172	n/a	LTP253	ltpFR	11	n/a	n/a	n/a	n/a	n/a	n/a	n/a	10	3	1	6	n/a	n/a	n/a	n/a	n/a
2035.608	n/a	STOP	1017804	n/a	LTP253	ltpFR	11	n/a	n/a	n/a	n/a	n/a	n/a	n/a	n/a	n/a	n/a	n/a	n/a	n/a	n/a	n/a	n/a
2037.722	n/a	WORD	1018861	wordpools/wasnorm_wordpool_less_exclusions.txt	LTP253	ltpFR	11	8	0	MAGICIAN	854	n/a	n/a	1	n/a	0	0	0	0.422607421875	0.5869140625	0	lower	zerothre.ttf
2040.736	n/a	START	1020368	n/a	LTP253	ltpFR	11	n/a	n/a	n/a	n/a	n/a	n/a	n/a	n/a	n/a	n/a	n/a	n/a	n/a	n/a	n/a	n/a
2041.65	n/a	PROB	1020825	n/a	LTP253	ltpFR	11	n/a	n/a	n/a	n/a	n/a	n/a	n/a	10	2	3	5	n/a	n/a	n/a	n/a	n/a
2043.698	n/a	PROB	1021849	n/a	LTP253	ltpFR	11	n/a	n/a	n/a	n/a	n/a	n/a	n/a	7	1	4	2	n/a	n/a	n/a	n/a	n/a
2045.744	n/a	PROB	1022872	n/a	LTP253	ltpFR	11	n/a	n/a	n/a	n/a	n/a	n/a	n/a	13	2	8	3	n/a	n/a	n/a	n/a	n/a
2047.326	n/a	PROB	1023663	n/a	LTP253	ltpFR	11	n/a	n/a	n/a	n/a	n/a	n/a	n/a	15	1	6	8	n/a	n/a	n/a	n/a	n/a
2048.872	n/a	PROB	1024436	n/a	LTP253	ltpFR	11	n/a	n/a	n/a	n/a	n/a	n/a	n/a	18	6	8	4	n/a	n/a	n/a	n/a	n/a
2050.654	n/a	PROB	1025327	n/a	LTP253	ltpFR	11	n/a	n/a	n/a	n/a	n/a	n/a	n/a	22	9	9	4	n/a	n/a	n/a	n/a	n/a
2052.118	n/a	PROB	1026059	n/a	LTP253	ltpFR	11	n/a	n/a	n/a	n/a	n/a	n/a	n/a	15	6	1	8	n/a	n/a	n/a	n/a	n/a
2053.85	n/a	PROB	1026925	n/a	LTP253	ltpFR	11	n/a	n/a	n/a	n/a	n/a	n/a	n/a	10	5	2	3	n/a	n/a	n/a	n/a	n/a
2055.69	n/a	STOP	1027845	n/a	LTP253	ltpFR	11	n/a	n/a	n/a	n/a	n/a	n/a	n/a	n/a	n/a	n/a	n/a	n/a	n/a	n/a	n/a	n/a
2057.694	n/a	WORD	1028847	wordpools/wasnorm_wordpool_less_exclusions.txt	LTP253	ltpFR	11	8	0	FAIRY	549	n/a	n/a	0	n/a	0	0	0	0.422607421875	0.5869140625	0	lower	zerothre.ttf
2060.706	n/a	START	1030353	n/a	LTP253	ltpFR	11	n/a	n/a	n/a	n/a	n/a	n/a	n/a	n/a	n/a	n/a	n/a	n/a	n/a	n/a	n/a	n/a
2061.62	n/a	PROB	1030810	n/a	LTP253	ltpFR	11	n/a	n/a	n/a	n/a	n/a	n/a	n/a	14	9	2	3	n/a	n/a	n/a	n/a	n/a
2063.202	n/a	PROB	1031601	n/a	LTP253	ltpFR	11	n/a	n/a	n/a	n/a	n/a	n/a	n/a	9	3	4	2	n/a	n/a	n/a	n/a	n/a
2064.75	n/a	PROB	1032375	n/a	LTP253	ltpFR	11	n/a	n/a	n/a	n/a	n/a	n/a	n/a	10	2	4	4	n/a	n/a	n/a	n/a	n/a
2066.248	n/a	PROB	1033124	n/a	LTP253	ltpFR	11	n/a	n/a	n/a	n/a	n/a	n/a	n/a	11	9	1	1	n/a	n/a	n/a	n/a	n/a
2067.512	n/a	PROB	1033756	n/a	LTP253	ltpFR	11	n/a	n/a	n/a	n/a	n/a	n/a	n/a	20	5	9	6	n/a	n/a	n/a	n/a	n/a
2069.076	n/a	PROB	1034538	n/a	LTP253	ltpFR	11	n/a	n/a	n/a	n/a	n/a	n/a	n/a	21	9	8	4	n/a	n/a	n/a	n/a	n/a
2070.774	n/a	PROB	1035387	n/a	LTP253	ltpFR	11	n/a	n/a	n/a	n/a	n/a	n/a	n/a	16	2	7	7	n/a	n/a	n/a	n/a	n/a
2072.156	n/a	PROB	1036078	n/a	LTP253	ltpFR	11	n/a	n/a	n/a	n/a	n/a	n/a	n/a	8	4	2	2	n/a	n/a	n/a	n/a	n/a
2073.686	n/a	PROB	1036843	n/a	LTP253	ltpFR	11	n/a	n/a	n/a	n/a	n/a	n/a	n/a	13	4	8	1	n/a	n/a	n/a	n/a	n/a
2075.402	n/a	STOP	1037701	n/a	LTP253	ltpFR	11	n/a	n/a	n/a	n/a	n/a	n/a	n/a	n/a	n/a	n/a	n/a	n/a	n/a	n/a	n/a	n/a
2077.53	n/a	WORD	1038765	wordpools/wasnorm_wordpool_less_exclusions.txt	LTP253	ltpFR	11	8	1	COLLAR	345	n/a	n/a	0	n/a	0	0	0	0.57763671875	0.412841796875	1	upper	amplitud.ttf
2080.544	n/a	START	1040272	n/a	LTP253	ltpFR	11	n/a	n/a	n/a	n/a	n/a	n/a	n/a	n/a	n/a	n/a	n/a	n/a	n/a	n/a	n/a	n/a
2081.458	n/a	PROB	1040729	n/a	LTP253	ltpFR	11	n/a	n/a	n/a	n/a	n/a	n/a	n/a	23	9	8	6	n/a	n/a	n/a	n/a	n/a
2083.688	n/a	PROB	1041844	n/a	LTP253	ltpFR	11	n/a	n/a	n/a	n/a	n/a	n/a	n/a	19	9	9	1	n/a	n/a	n/a	n/a	n/a
2085.07	n/a	PROB	1042535	n/a	LTP253	ltpFR	11	n/a	n/a	n/a	n/a	n/a	n/a	n/a	13	1	6	6	n/a	n/a	n/a	n/a	n/a
2086.302	n/a	PROB	1043151	n/a	LTP253	ltpFR	11	n/a	n/a	n/a	n/a	n/a	n/a	n/a	8	3	3	2	n/a	n/a	n/a	n/a	n/a
2088.016	n/a	PROB	1044008	n/a	LTP253	ltpFR	11	n/a	n/a	n/a	n/a	n/a	n/a	n/a	21	7	6	9	n/a	n/a	n/a	n/a	n/a
2090.712	n/a	PROB	1045356	n/a	LTP253	ltpFR	11	n/a	n/a	n/a	n/a	n/a	n/a	n/a	24	8	8	6	n/a	n/a	n/a	n/a	n/a
2093.092	n/a	PROB	1046546	n/a	LTP253	ltpFR	11	n/a	n/a	n/a	n/a	n/a	n/a	n/a	17	7	9	1	n/a	n/a	n/a	n/a	n/a
2094.706	n/a	PROB	1047353	n/a	LTP253	ltpFR	11	n/a	n/a	n/a	n/a	n/a	n/a	n/a	14	1	6	7	n/a	n/a	n/a	n/a	n/a
2096.418	n/a	STOP	1048209	n/a	LTP253	ltpFR	11	n/a	n/a	n/a	n/a	n/a	n/a	n/a	n/a	n/a	n/a	n/a	n/a	n/a	n/a	n/a	n/a
2097.75	n/a	WORD	1048875	wordpools/wasnorm_wordpool_less_exclusions.txt	LTP253	ltpFR	11	8	1	CARTON	251	n/a	n/a	0	n/a	0	0	0	0.57763671875	0.412841796875	1	upper	amplitud.ttf
2100.764	n/a	START	1050382	n/a	LTP253	ltpFR	11	n/a	n/a	n/a	n/a	n/a	n/a	n/a	n/a	n/a	n/a	n/a	n/a	n/a	n/a	n/a	n/a
2101.61	n/a	PROB	1050805	n/a	LTP253	ltpFR	11	n/a	n/a	n/a	n/a	n/a	n/a	n/a	22	6	8	8	n/a	n/a	n/a	n/a	n/a
2103.742	n/a	PROB	1051871	n/a	LTP253	ltpFR	11	n/a	n/a	n/a	n/a	n/a	n/a	n/a	17	1	9	7	n/a	n/a	n/a	n/a	n/a
2105.19	n/a	PROB	1052595	n/a	LTP253	ltpFR	11	n/a	n/a	n/a	n/a	n/a	n/a	n/a	22	2	9	6	n/a	n/a	n/a	n/a	n/a
2107.404	n/a	PROB	1053702	n/a	LTP253	ltpFR	11	n/a	n/a	n/a	n/a	n/a	n/a	n/a	17	2	7	8	n/a	n/a	n/a	n/a	n/a
2111.43	n/a	PROB	1055715	n/a	LTP253	ltpFR	11	n/a	n/a	n/a	n/a	n/a	n/a	n/a	15	6	8	1	n/a	n/a	n/a	n/a	n/a
2113.228	n/a	PROB	1056614	n/a	LTP253	ltpFR	11	n/a	n/a	n/a	n/a	n/a	n/a	n/a	17	1	8	8	n/a	n/a	n/a	n/a	n/a
2114.992	n/a	PROB	1057496	n/a	LTP253	ltpFR	11	n/a	n/a	n/a	n/a	n/a	n/a	n/a	13	1	5	7	n/a	n/a	n/a	n/a	n/a
2116.698	n/a	STOP	1058349	n/a	LTP253	ltpFR	11	n/a	n/a	n/a	n/a	n/a	n/a	n/a	n/a	n/a	n/a	n/a	n/a	n/a	n/a	n/a	n/a
2117.688	n/a	WORD	1058844	wordpools/wasnorm_wordpool_less_exclusions.txt	LTP253	ltpFR	11	8	1	CRAB	397	n/a	n/a	1	n/a	0	0	0	0.57763671875	0.412841796875	1	upper	amplitud.ttf
2120.702	n/a	START	1060351	n/a	LTP253	ltpFR	11	n/a	n/a	n/a	n/a	n/a	n/a	n/a	n/a	n/a	n/a	n/a	n/a	n/a	n/a	n/a	n/a
2121.882	n/a	PROB	1060941	n/a	LTP253	ltpFR	11	n/a	n/a	n/a	n/a	n/a	n/a	n/a	17	4	9	4	n/a	n/a	n/a	n/a	n/a
2124.012	n/a	PROB	1062006	n/a	LTP253	ltpFR	11	n/a	n/a	n/a	n/a	n/a	n/a	n/a	16	7	5	4	n/a	n/a	n/a	n/a	n/a
2127.324	n/a	PROB	1063662	n/a	LTP253	ltpFR	11	n/a	n/a	n/a	n/a	n/a	n/a	n/a	19	5	5	9	n/a	n/a	n/a	n/a	n/a
2128.788	n/a	PROB	1064394	n/a	LTP253	ltpFR	11	n/a	n/a	n/a	n/a	n/a	n/a	n/a	19	9	5	5	n/a	n/a	n/a	n/a	n/a
2130.186	n/a	PROB	1065093	n/a	LTP253	ltpFR	11	n/a	n/a	n/a	n/a	n/a	n/a	n/a	11	1	2	8	n/a	n/a	n/a	n/a	n/a
2131.534	n/a	PROB	1065767	n/a	LTP253	ltpFR	11	n/a	n/a	n/a	n/a	n/a	n/a	n/a	17	6	6	5	n/a	n/a	n/a	n/a	n/a
2136.7	n/a	STOP	1068350	n/a	LTP253	ltpFR	11	n/a	n/a	n/a	n/a	n/a	n/a	n/a	n/a	n/a	n/a	n/a	n/a	n/a	n/a	n/a	n/a
2137.726	n/a	WORD	1068863	wordpools/wasnorm_wordpool_less_exclusions.txt	LTP253	ltpFR	11	8	0	SCALLOP	1242	n/a	n/a	0	n/a	0	0	0	0.422607421875	0.5869140625	0	lower	zerothre.ttf
2140.738	n/a	START	1070369	n/a	LTP253	ltpFR	11	n/a	n/a	n/a	n/a	n/a	n/a	n/a	n/a	n/a	n/a	n/a	n/a	n/a	n/a	n/a	n/a
2141.636	n/a	PROB	1070818	n/a	LTP253	ltpFR	11	n/a	n/a	n/a	n/a	n/a	n/a	n/a	16	9	1	6	n/a	n/a	n/a	n/a	n/a
2143.366	n/a	PROB	1071683	n/a	LTP253	ltpFR	11	n/a	n/a	n/a	n/a	n/a	n/a	n/a	19	6	9	4	n/a	n/a	n/a	n/a	n/a
2145.114	n/a	PROB	1072557	n/a	LTP253	ltpFR	11	n/a	n/a	n/a	n/a	n/a	n/a	n/a	12	9	2	1	n/a	n/a	n/a	n/a	n/a
2147.012	n/a	PROB	1073506	n/a	LTP253	ltpFR	11	n/a	n/a	n/a	n/a	n/a	n/a	n/a	13	1	7	5	n/a	n/a	n/a	n/a	n/a
2149.492	n/a	PROB	1074746	n/a	LTP253	ltpFR	11	n/a	n/a	n/a	n/a	n/a	n/a	n/a	19	9	8	2	n/a	n/a	n/a	n/a	n/a
2151.788	n/a	PROB	1075894	n/a	LTP253	ltpFR	11	n/a	n/a	n/a	n/a	n/a	n/a	n/a	9	5	3	1	n/a	n/a	n/a	n/a	n/a
2153.036	n/a	PROB	1076518	n/a	LTP253	ltpFR	11	n/a	n/a	n/a	n/a	n/a	n/a	n/a	18	4	6	8	n/a	n/a	n/a	n/a	n/a
2155.362	n/a	STOP	1077681	n/a	LTP253	ltpFR	11	n/a	n/a	n/a	n/a	n/a	n/a	n/a	n/a	n/a	n/a	n/a	n/a	n/a	n/a	n/a	n/a
2157.678	n/a	WORD	1078839	wordpools/wasnorm_wordpool_less_exclusions.txt	LTP253	ltpFR	11	8	0	ICE	730	n/a	n/a	0	n/a	0	0	0	0.422607421875	0.5869140625	0	lower	zerothre.ttf
2160.692	n/a	START	1080346	n/a	LTP253	ltpFR	11	n/a	n/a	n/a	n/a	n/a	n/a	n/a	n/a	n/a	n/a	n/a	n/a	n/a	n/a	n/a	n/a
2161.622	n/a	PROB	1080811	n/a	LTP253	ltpFR	11	n/a	n/a	n/a	n/a	n/a	n/a	n/a	19	3	8	8	n/a	n/a	n/a	n/a	n/a
2163.388	n/a	PROB	1081694	n/a	LTP253	ltpFR	11	n/a	n/a	n/a	n/a	n/a	n/a	n/a	18	4	6	8	n/a	n/a	n/a	n/a	n/a
2165.284	n/a	PROB	1082642	n/a	LTP253	ltpFR	11	n/a	n/a	n/a	n/a	n/a	n/a	n/a	16	9	5	2	n/a	n/a	n/a	n/a	n/a
2167.364	n/a	PROB	1083682	n/a	LTP253	ltpFR	11	n/a	n/a	n/a	n/a	n/a	n/a	n/a	13	3	3	7	n/a	n/a	n/a	n/a	n/a
2168.896	n/a	PROB	1084448	n/a	LTP253	ltpFR	11	n/a	n/a	n/a	n/a	n/a	n/a	n/a	18	8	8	2	n/a	n/a	n/a	n/a	n/a
2170.344	n/a	PROB	1085172	n/a	LTP253	ltpFR	11	n/a	n/a	n/a	n/a	n/a	n/a	n/a	16	1	8	7	n/a	n/a	n/a	n/a	n/a
2172.124	n/a	PROB	1086062	n/a	LTP253	ltpFR	11	n/a	n/a	n/a	n/a	n/a	n/a	n/a	21	7	7	6	n/a	n/a	n/a	n/a	n/a
2174.004	n/a	PROB	1087002	n/a	LTP253	ltpFR	11	n/a	n/a	n/a	n/a	n/a	n/a	n/a	7	4	1	2	n/a	n/a	n/a	n/a	n/a
2176.002	n/a	STOP	1088001	n/a	LTP253	ltpFR	11	n/a	n/a	n/a	n/a	n/a	n/a	n/a	n/a	n/a	n/a	n/a	n/a	n/a	n/a	n/a	n/a
2177.882	n/a	WORD	1088941	wordpools/wasnorm_wordpool_less_exclusions.txt	LTP253	ltpFR	11	8	0	CROOK	412	n/a	n/a	0	n/a	0	0	0	0.422607421875	0.5869140625	0	lower	zerothre.ttf
2180.894	n/a	START	1090447	n/a	LTP253	ltpFR	11	n/a	n/a	n/a	n/a	n/a	n/a	n/a	n/a	n/a	n/a	n/a	n/a	n/a	n/a	n/a	n/a
2181.91	n/a	PROB	1090955	n/a	LTP253	ltpFR	11	n/a	n/a	n/a	n/a	n/a	n/a	n/a	21	8	9	4	n/a	n/a	n/a	n/a	n/a
2183.656	n/a	PROB	1091828	n/a	LTP253	ltpFR	11	n/a	n/a	n/a	n/a	n/a	n/a	n/a	15	5	5	5	n/a	n/a	n/a	n/a	n/a
2184.806	n/a	PROB	1092403	n/a	LTP253	ltpFR	11	n/a	n/a	n/a	n/a	n/a	n/a	n/a	17	2	6	9	n/a	n/a	n/a	n/a	n/a
2186.686	n/a	PROB	1093343	n/a	LTP253	ltpFR	11	n/a	n/a	n/a	n/a	n/a	n/a	n/a	20	7	7	6	n/a	n/a	n/a	n/a	n/a
2188.25	n/a	PROB	1094125	n/a	LTP253	ltpFR	11	n/a	n/a	n/a	n/a	n/a	n/a	n/a	18	1	8	9	n/a	n/a	n/a	n/a	n/a
2190.464	n/a	PROB	1095232	n/a	LTP253	ltpFR	11	n/a	n/a	n/a	n/a	n/a	n/a	n/a	11	7	2	2	n/a	n/a	n/a	n/a	n/a
2192.128	n/a	PROB	1096064	n/a	LTP253	ltpFR	11	n/a	n/a	n/a	n/a	n/a	n/a	n/a	14	8	3	3	n/a	n/a	n/a	n/a	n/a
2193.792	n/a	PROB	1096896	n/a	LTP253	ltpFR	11	n/a	n/a	n/a	n/a	n/a	n/a	n/a	8	3	1	4	n/a	n/a	n/a	n/a	n/a
2195.258	n/a	PROB	1097629	n/a	LTP253	ltpFR	11	n/a	n/a	n/a	n/a	n/a	n/a	n/a	16	3	8	5	n/a	n/a	n/a	n/a	n/a
2196.7	n/a	STOP	1098350	n/a	LTP253	ltpFR	11	n/a	n/a	n/a	n/a	n/a	n/a	n/a	n/a	n/a	n/a	n/a	n/a	n/a	n/a	n/a	n/a
2197.886	n/a	WORD	1098943	wordpools/wasnorm_wordpool_less_exclusions.txt	LTP253	ltpFR	11	8	0	GRIZZLY	662	n/a	n/a	1	n/a	0	0	0	0.422607421875	0.5869140625	0	lower	zerothre.ttf
2200.9	n/a	START	1100450	n/a	LTP253	ltpFR	11	n/a	n/a	n/a	n/a	n/a	n/a	n/a	n/a	n/a	n/a	n/a	n/a	n/a	n/a	n/a	n/a
2201.714	n/a	PROB	1100857	n/a	LTP253	ltpFR	11	n/a	n/a	n/a	n/a	n/a	n/a	n/a	19	5	9	5	n/a	n/a	n/a	n/a	n/a
2203.462	n/a	PROB	1101731	n/a	LTP253	ltpFR	11	n/a	n/a	n/a	n/a	n/a	n/a	n/a	11	6	1	4	n/a	n/a	n/a	n/a	n/a
2205.608	n/a	PROB	1102804	n/a	LTP253	ltpFR	11	n/a	n/a	n/a	n/a	n/a	n/a	n/a	16	9	6	1	n/a	n/a	n/a	n/a	n/a
2207.34	n/a	PROB	1103670	n/a	LTP253	ltpFR	11	n/a	n/a	n/a	n/a	n/a	n/a	n/a	15	7	3	5	n/a	n/a	n/a	n/a	n/a
2208.72	n/a	PROB	1104360	n/a	LTP253	ltpFR	11	n/a	n/a	n/a	n/a	n/a	n/a	n/a	12	4	4	4	n/a	n/a	n/a	n/a	n/a
2210.084	n/a	PROB	1105042	n/a	LTP253	ltpFR	11	n/a	n/a	n/a	n/a	n/a	n/a	n/a	17	4	7	6	n/a	n/a	n/a	n/a	n/a
2212.116	n/a	PROB	1106058	n/a	LTP253	ltpFR	11	n/a	n/a	n/a	n/a	n/a	n/a	n/a	16	6	1	9	n/a	n/a	n/a	n/a	n/a
2213.83	n/a	PROB	1106915	n/a	LTP253	ltpFR	11	n/a	n/a	n/a	n/a	n/a	n/a	n/a	13	3	1	9	n/a	n/a	n/a	n/a	n/a
2215.564	n/a	STOP	1107782	n/a	LTP253	ltpFR	11	n/a	n/a	n/a	n/a	n/a	n/a	n/a	n/a	n/a	n/a	n/a	n/a	n/a	n/a	n/a	n/a
2217.89	n/a	WORD	1108945	wordpools/wasnorm_wordpool_less_exclusions.txt	LTP253	ltpFR	11	8	1	GLACIER	638	n/a	n/a	0	n/a	0	0	0	0.57763671875	0.412841796875	1	upper	amplitud.ttf
2220.902	n/a	START	1110451	n/a	LTP253	ltpFR	11	n/a	n/a	n/a	n/a	n/a	n/a	n/a	n/a	n/a	n/a	n/a	n/a	n/a	n/a	n/a	n/a
2222.068	n/a	PROB	1111034	n/a	LTP253	ltpFR	11	n/a	n/a	n/a	n/a	n/a	n/a	n/a	14	2	3	9	n/a	n/a	n/a	n/a	n/a
2224.164	n/a	PROB	1112082	n/a	LTP253	ltpFR	11	n/a	n/a	n/a	n/a	n/a	n/a	n/a	17	7	6	4	n/a	n/a	n/a	n/a	n/a
2226.26	n/a	PROB	1113130	n/a	LTP253	ltpFR	11	n/a	n/a	n/a	n/a	n/a	n/a	n/a	10	6	3	1	n/a	n/a	n/a	n/a	n/a
2227.742	n/a	PROB	1113871	n/a	LTP253	ltpFR	11	n/a	n/a	n/a	n/a	n/a	n/a	n/a	11	6	2	3	n/a	n/a	n/a	n/a	n/a
2229.572	n/a	PROB	1114786	n/a	LTP253	ltpFR	11	n/a	n/a	n/a	n/a	n/a	n/a	n/a	20	2	9	9	n/a	n/a	n/a	n/a	n/a
2230.954	n/a	PROB	1115477	n/a	LTP253	ltpFR	11	n/a	n/a	n/a	n/a	n/a	n/a	n/a	9	5	2	2	n/a	n/a	n/a	n/a	n/a
2232.368	n/a	PROB	1116184	n/a	LTP253	ltpFR	11	n/a	n/a	n/a	n/a	n/a	n/a	n/a	20	7	8	5	n/a	n/a	n/a	n/a	n/a
2233.816	n/a	PROB	1116908	n/a	LTP253	ltpFR	11	n/a	n/a	n/a	n/a	n/a	n/a	n/a	19	5	6	8	n/a	n/a	n/a	n/a	n/a
2236.044	n/a	STOP	1118022	n/a	LTP253	ltpFR	11	n/a	n/a	n/a	n/a	n/a	n/a	n/a	n/a	n/a	n/a	n/a	n/a	n/a	n/a	n/a	n/a
2237.81	n/a	WORD	1118905	wordpools/wasnorm_wordpool_less_exclusions.txt	LTP253	ltpFR	11	8	1	VOLCANO	1575	n/a	n/a	0	n/a	0	0	0	0.57763671875	0.412841796875	1	upper	amplitud.ttf
2240.822	n/a	START	1120411	n/a	LTP253	ltpFR	11	n/a	n/a	n/a	n/a	n/a	n/a	n/a	n/a	n/a	n/a	n/a	n/a	n/a	n/a	n/a	n/a
2241.988	n/a	PROB	1120994	n/a	LTP253	ltpFR	11	n/a	n/a	n/a	n/a	n/a	n/a	n/a	16	6	8	2	n/a	n/a	n/a	n/a	n/a
2243.568	n/a	PROB	1121784	n/a	LTP253	ltpFR	11	n/a	n/a	n/a	n/a	n/a	n/a	n/a	18	6	4	8	n/a	n/a	n/a	n/a	n/a
2245.116	n/a	PROB	1122558	n/a	LTP253	ltpFR	11	n/a	n/a	n/a	n/a	n/a	n/a	n/a	8	4	2	2	n/a	n/a	n/a	n/a	n/a
2246.598	n/a	PROB	1123299	n/a	LTP253	ltpFR	11	n/a	n/a	n/a	n/a	n/a	n/a	n/a	8	4	2	2	n/a	n/a	n/a	n/a	n/a
2247.546	n/a	PROB	1123773	n/a	LTP253	ltpFR	11	n/a	n/a	n/a	n/a	n/a	n/a	n/a	18	9	1	8	n/a	n/a	n/a	n/a	n/a
2249.094	n/a	PROB	1124547	n/a	LTP253	ltpFR	11	n/a	n/a	n/a	n/a	n/a	n/a	n/a	10	4	1	5	n/a	n/a	n/a	n/a	n/a
2250.84	n/a	PROB	1125420	n/a	LTP253	ltpFR	11	n/a	n/a	n/a	n/a	n/a	n/a	n/a	16	1	9	6	n/a	n/a	n/a	n/a	n/a
2253.122	n/a	PROB	1126561	n/a	LTP253	ltpFR	11	n/a	n/a	n/a	n/a	n/a	n/a	n/a	18	4	6	6	n/a	n/a	n/a	n/a	n/a
2255.002	n/a	PROB	1127501	n/a	LTP253	ltpFR	11	n/a	n/a	n/a	n/a	n/a	n/a	n/a	16	1	6	9	n/a	n/a	n/a	n/a	n/a
2256.796	n/a	STOP	1128398	n/a	LTP253	ltpFR	11	n/a	n/a	n/a	n/a	n/a	n/a	n/a	n/a	n/a	n/a	n/a	n/a	n/a	n/a	n/a	n/a
2257.982	n/a	WORD	1128991	wordpools/wasnorm_wordpool_less_exclusions.txt	LTP253	ltpFR	11	8	1	LAKE	796	n/a	n/a	0	n/a	0	0	0	0.57763671875	0.412841796875	1	upper	amplitud.ttf
2260.994	n/a	START	1130497	n/a	LTP253	ltpFR	11	n/a	n/a	n/a	n/a	n/a	n/a	n/a	n/a	n/a	n/a	n/a	n/a	n/a	n/a	n/a	n/a
2262.124	n/a	PROB	1131062	n/a	LTP253	ltpFR	11	n/a	n/a	n/a	n/a	n/a	n/a	n/a	16	3	5	8	n/a	n/a	n/a	n/a	n/a
2263.638	n/a	PROB	1131819	n/a	LTP253	ltpFR	11	n/a	n/a	n/a	n/a	n/a	n/a	n/a	10	7	1	2	n/a	n/a	n/a	n/a	n/a
2265.038	n/a	PROB	1132519	n/a	LTP253	ltpFR	11	n/a	n/a	n/a	n/a	n/a	n/a	n/a	15	7	4	4	n/a	n/a	n/a	n/a	n/a
2266.502	n/a	PROB	1133251	n/a	LTP253	ltpFR	11	n/a	n/a	n/a	n/a	n/a	n/a	n/a	16	9	3	4	n/a	n/a	n/a	n/a	n/a
2268.05	n/a	PROB	1134025	n/a	LTP253	ltpFR	11	n/a	n/a	n/a	n/a	n/a	n/a	n/a	18	4	5	9	n/a	n/a	n/a	n/a	n/a
2270.196	n/a	PROB	1135098	n/a	LTP253	ltpFR	11	n/a	n/a	n/a	n/a	n/a	n/a	n/a	12	2	1	9	n/a	n/a	n/a	n/a	n/a
2271.944	n/a	PROB	1135972	n/a	LTP253	ltpFR	11	n/a	n/a	n/a	n/a	n/a	n/a	n/a	24	9	6	9	n/a	n/a	n/a	n/a	n/a
2274.224	n/a	PROB	1137112	n/a	LTP253	ltpFR	11	n/a	n/a	n/a	n/a	n/a	n/a	n/a	11	7	2	2	n/a	n/a	n/a	n/a	n/a
2275.54	n/a	STOP	1137770	n/a	LTP253	ltpFR	11	n/a	n/a	n/a	n/a	n/a	n/a	n/a	n/a	n/a	n/a	n/a	n/a	n/a	n/a	n/a	n/a
2278.834	n/a	REC_START	1139417	n/a	LTP253	ltpFR	11	8	n/a	n/a	n/a	n/a	n/a	n/a	n/a	0	0	0	n/a	n/a	n/a	n/a	n/a
2281.188	n/a	REC_WORD	1140594	wordpools/wasnorm_wordpool_less_exclusions.txt	LTP253	ltpFR	11	8	1	GLACIER	638	n/a	n/a	0	n/a	0	0	0	n/a	n/a	n/a	n/a	n/a
2281.904	n/a	REC_WORD	1140952	wordpools/wasnorm_wordpool_less_exclusions.txt	LTP253	ltpFR	11	8	1	VOLCANO	1575	n/a	n/a	0	n/a	0	0	0	n/a	n/a	n/a	n/a	n/a
2283.218	n/a	REC_WORD	1141609	wordpools/wasnorm_wordpool_less_exclusions.txt	LTP253	ltpFR	11	8	1	LAKE	796	n/a	n/a	0	n/a	0	0	0	n/a	n/a	n/a	n/a	n/a
2285.95	n/a	REC_WORD	1142975	wordpools/wasnorm_wordpool_less_exclusions.txt	LTP253	ltpFR	11	8	0	ICE	730	n/a	n/a	0	n/a	0	0	0	n/a	n/a	n/a	n/a	n/a
2367.086	n/a	WORD	1183543	wordpools/wasnorm_wordpool_less_exclusions.txt	LTP253	ltpFR	11	9	0	CIGAR	308	n/a	n/a	0	n/a	0	0	0	0.422607421875	0.5869140625	0	lower	zerothre.ttf
2371.296	n/a	WORD	1185648	wordpools/wasnorm_wordpool_less_exclusions.txt	LTP253	ltpFR	11	9	0	CIGARETTE	309	n/a	n/a	0	n/a	0	0	0	0.422607421875	0.5869140625	0	lower	zerothre.ttf
2375.208	n/a	WORD	1187604	wordpools/wasnorm_wordpool_less_exclusions.txt	LTP253	ltpFR	11	9	0	POCKETBOOK	1094	n/a	n/a	0	n/a	0	0	0	0.422607421875	0.5869140625	0	lower	zerothre.ttf
2379.284	n/a	WORD	1189642	wordpools/wasnorm_wordpool_less_exclusions.txt	LTP253	ltpFR	11	9	1	KNAPSACK	783	n/a	n/a	0	n/a	0	0	0	0.57763671875	0.412841796875	1	upper	amplitud.ttf
2383.312	n/a	WORD	1191656	wordpools/wasnorm_wordpool_less_exclusions.txt	LTP253	ltpFR	11	9	1	BAKER	71	n/a	n/a	1	n/a	0	0	0	0.57763671875	0.412841796875	1	upper	amplitud.ttf
2387.474	n/a	WORD	1193737	wordpools/wasnorm_wordpool_less_exclusions.txt	LTP253	ltpFR	11	9	1	GALLON	618	n/a	n/a	0	n/a	0	0	0	0.57763671875	0.412841796875	1	upper	amplitud.ttf
2391.4	n/a	WORD	1195700	wordpools/wasnorm_wordpool_less_exclusions.txt	LTP253	ltpFR	11	9	1	MOTH	920	n/a	n/a	1	n/a	0	0	0	0.57763671875	0.412841796875	1	upper	amplitud.ttf
2395.344	n/a	WORD	1197672	wordpools/wasnorm_wordpool_less_exclusions.txt	LTP253	ltpFR	11	9	0	SNACK	1331	n/a	n/a	0	n/a	0	0	0	0.422607421875	0.5869140625	0	lower	zerothre.ttf
2399.356	n/a	WORD	1199678	wordpools/wasnorm_wordpool_less_exclusions.txt	LTP253	ltpFR	11	9	0	BATHTUB	100	n/a	n/a	1	n/a	0	0	0	0.422607421875	0.5869140625	0	lower	zerothre.ttf
2403.566	n/a	WORD	1201783	wordpools/wasnorm_wordpool_less_exclusions.txt	LTP253	ltpFR	11	9	0	TECHNICIAN	1443	n/a	n/a	1	n/a	0	0	0	0.422607421875	0.5869140625	0	lower	zerothre.ttf
2407.776	n/a	WORD	1203888	wordpools/wasnorm_wordpool_less_exclusions.txt	LTP253	ltpFR	11	9	0	DASHBOARD	441	n/a	n/a	1	n/a	0	0	0	0.422607421875	0.5869140625	0	lower	zerothre.ttf
2411.67	n/a	WORD	1205835	wordpools/wasnorm_wordpool_less_exclusions.txt	LTP253	ltpFR	11	9	0	STEM	1376	n/a	n/a	0	n/a	0	0	0	0.422607421875	0.5869140625	0	lower	zerothre.ttf
2415.864	n/a	WORD	1207932	wordpools/wasnorm_wordpool_less_exclusions.txt	LTP253	ltpFR	11	9	1	SNOB	1335	n/a	n/a	1	n/a	0	0	0	0.57763671875	0.412841796875	1	upper	amplitud.ttf
2419.958	n/a	WORD	1209979	wordpools/wasnorm_wordpool_less_exclusions.txt	LTP253	ltpFR	11	9	1	COOK	372	n/a	n/a	1	n/a	0	0	0	0.57763671875	0.412841796875	1	upper	amplitud.ttf
2424.036	n/a	WORD	1212018	wordpools/wasnorm_wordpool_less_exclusions.txt	LTP253	ltpFR	11	9	1	COBRA	336	n/a	n/a	1	n/a	0	0	0	0.57763671875	0.412841796875	1	upper	amplitud.ttf
2427.93	n/a	WORD	1213965	wordpools/wasnorm_wordpool_less_exclusions.txt	LTP253	ltpFR	11	9	1	BEETLE	116	n/a	n/a	1	n/a	0	0	0	0.57763671875	0.412841796875	1	upper	amplitud.ttf
2433.904	n/a	REC_START	1216952	n/a	LTP253	ltpFR	11	9	n/a	n/a	n/a	n/a	n/a	n/a	n/a	0	0	0	n/a	n/a	n/a	n/a	n/a
2435.456	n/a	REC_WORD	1217728	wordpools/wasnorm_wordpool_less_exclusions.txt	LTP253	ltpFR	11	9	1	COBRA	336	n/a	n/a	1	n/a	0	0	0	n/a	n/a	n/a	n/a	n/a
2436.396	n/a	REC_WORD	1218198	wordpools/wasnorm_wordpool_less_exclusions.txt	LTP253	ltpFR	11	9	1	BEETLE	116	n/a	n/a	1	n/a	0	0	0	n/a	n/a	n/a	n/a	n/a
2437.276	n/a	REC_WORD	1218638	wordpools/wasnorm_wordpool_less_exclusions.txt	LTP253	ltpFR	11	9	0	TECHNICIAN	1443	n/a	n/a	1	n/a	0	0	0	n/a	n/a	n/a	n/a	n/a
2438.602	n/a	REC_WORD	1219301	wordpools/wasnorm_wordpool_less_exclusions.txt	LTP253	ltpFR	11	9	0	BATHTUB	100	n/a	n/a	1	n/a	0	0	0	n/a	n/a	n/a	n/a	n/a
2439.662	n/a	REC_WORD	1219831	wordpools/wasnorm_wordpool_less_exclusions.txt	LTP253	ltpFR	11	9	0	DASHBOARD	441	n/a	n/a	1	n/a	0	0	0	n/a	n/a	n/a	n/a	n/a
2441.41	n/a	REC_WORD	1220705	wordpools/wasnorm_wordpool_less_exclusions.txt	LTP253	ltpFR	11	9	1	KNAPSACK	783	n/a	n/a	0	n/a	0	0	0	n/a	n/a	n/a	n/a	n/a
2442.296	n/a	REC_WORD	1221148	wordpools/wasnorm_wordpool_less_exclusions.txt	LTP253	ltpFR	11	9	0	POCKETBOOK	1094	n/a	n/a	0	n/a	0	0	0	n/a	n/a	n/a	n/a	n/a
2443.074	n/a	REC_WORD	1221537	wordpools/wasnorm_wordpool_less_exclusions.txt	LTP253	ltpFR	11	9	0	CIGAR	308	n/a	n/a	0	n/a	0	0	0	n/a	n/a	n/a	n/a	n/a
2443.722	n/a	REC_WORD	1221861	wordpools/wasnorm_wordpool_less_exclusions.txt	LTP253	ltpFR	11	9	0	CIGARETTE	309	n/a	n/a	0	n/a	0	0	0	n/a	n/a	n/a	n/a	n/a
2446.268	n/a	REC_WORD	1223134	wordpools/wasnorm_wordpool_less_exclusions.txt	LTP253	ltpFR	11	9	1	BAKER	71	n/a	n/a	1	n/a	0	0	0	n/a	n/a	n/a	n/a	n/a
2448.954	n/a	REC_WORD	1224477	wordpools/wasnorm_wordpool_less_exclusions.txt	LTP253	ltpFR	11	9	1	COOK	372	n/a	n/a	1	n/a	0	0	0	n/a	n/a	n/a	n/a	n/a
2454.892	n/a	REC_WORD	1227446	wordpools/wasnorm_wordpool_less_exclusions.txt	LTP253	ltpFR	11	9	1	MOTH	920	n/a	n/a	1	n/a	0	0	0	n/a	n/a	n/a	n/a	n/a
2456.772	n/a	REC_WORD	1228386	wordpools/wasnorm_wordpool_less_exclusions.txt	LTP253	ltpFR	11	9	1	GALLON	618	n/a	n/a	0	n/a	0	0	0	n/a	n/a	n/a	n/a	n/a
2460.784	n/a	REC_WORD	1230392	wordpools/wasnorm_wordpool_less_exclusions.txt	LTP253	ltpFR	11	9	1	BEETLE	116	n/a	n/a	1	n/a	0	0	0	n/a	n/a	n/a	n/a	n/a
2473.662	n/a	REC_WORD	1236831	wordpools/wasnorm_wordpool_less_exclusions.txt	LTP253	ltpFR	11	9	0	SNACK	1331	n/a	n/a	0	n/a	0	0	0	n/a	n/a	n/a	n/a	n/a
2484.6	n/a	REC_WORD	1242300	wordpools/wasnorm_wordpool_less_exclusions.txt	LTP253	ltpFR	11	9	n/a	PYTHON	-1	n/a	n/a	n/a	n/a	0	0	0	n/a	n/a	n/a	n/a	n/a
