mstime	trial_type	stim_file	subject	experiment	session	trial	task	item_name	item_num	recog_conf	resp	color_b	color_g	color_r	case	font
0	SESS_START	n/a	LTP103	ltpFR	0	n/a	n/a	n/a	n/a	n/a	n/a	n/a	n/a	n/a	n/a	n/a
57954	WORD	wordpools/wasnorm_wordpool.txt	LTP103	ltpFR	0	1	-1	GANGSTER	620	n/a	-1	1	1.0	1.0	upper	../fonts/Verdana.ttf
62082	WORD	wordpools/wasnorm_wordpool.txt	LTP103	ltpFR	0	1	-1	STAPLER	1372	n/a	-1	1	1.0	1.0	upper	../fonts/Verdana.ttf
66211	WORD	wordpools/wasnorm_wordpool.txt	LTP103	ltpFR	0	1	-1	CASHIER	254	n/a	-1	1	1.0	1.0	upper	../fonts/Verdana.ttf
70297	WORD	wordpools/wasnorm_wordpool.txt	LTP103	ltpFR	0	1	-1	BANK	83	n/a	-1	1	1.0	1.0	upper	../fonts/Verdana.ttf
74427	WORD	wordpools/wasnorm_wordpool.txt	LTP103	ltpFR	0	1	-1	PITCHFORK	1078	n/a	-1	1	1.0	1.0	upper	../fonts/Verdana.ttf
78447	WORD	wordpools/wasnorm_wordpool.txt	LTP103	ltpFR	0	1	-1	CART	250	n/a	-1	1	1.0	1.0	upper	../fonts/Verdana.ttf
82434	WORD	wordpools/wasnorm_wordpool.txt	LTP103	ltpFR	0	1	-1	PROFESSOR	1131	n/a	-1	1	1.0	1.0	upper	../fonts/Verdana.ttf
86488	WORD	wordpools/wasnorm_wordpool.txt	LTP103	ltpFR	0	1	-1	REPORT	1184	n/a	-1	1	1.0	1.0	upper	../fonts/Verdana.ttf
90666	WORD	wordpools/wasnorm_wordpool.txt	LTP103	ltpFR	0	1	-1	WINGS	1614	n/a	-1	1	1.0	1.0	upper	../fonts/Verdana.ttf
94604	WORD	wordpools/wasnorm_wordpool.txt	LTP103	ltpFR	0	1	-1	PORT	1110	n/a	-1	1	1.0	1.0	upper	../fonts/Verdana.ttf
98557	WORD	wordpools/wasnorm_wordpool.txt	LTP103	ltpFR	0	1	-1	SUBMARINE	1398	n/a	-1	1	1.0	1.0	upper	../fonts/Verdana.ttf
102603	WORD	wordpools/wasnorm_wordpool.txt	LTP103	ltpFR	0	1	-1	PENCIL	1042	n/a	-1	1	1.0	1.0	upper	../fonts/Verdana.ttf
106556	WORD	wordpools/wasnorm_wordpool.txt	LTP103	ltpFR	0	1	-1	SPONGE	1355	n/a	-1	1	1.0	1.0	upper	../fonts/Verdana.ttf
110460	WORD	wordpools/wasnorm_wordpool.txt	LTP103	ltpFR	0	1	-1	RECORD	1176	n/a	-1	1	1.0	1.0	upper	../fonts/Verdana.ttf
114655	WORD	wordpools/wasnorm_wordpool.txt	LTP103	ltpFR	0	1	-1	CRICKET	408	n/a	-1	1	1.0	1.0	upper	../fonts/Verdana.ttf
118834	WORD	wordpools/wasnorm_wordpool.txt	LTP103	ltpFR	0	1	-1	STUDENT	1395	n/a	-1	1	1.0	1.0	upper	../fonts/Verdana.ttf
124570	REC_START	n/a	LTP103	ltpFR	0	1	n/a	n/a	n/a	n/a	n/a	n/a	n/a	n/a	n/a	n/a
125039	REC_WORD	wordpools/wasnorm_wordpool.txt	LTP103	ltpFR	0	1	-1	STUDENT	1395	n/a	-1	n/a	n/a	n/a	n/a	n/a
126041	REC_WORD	wordpools/wasnorm_wordpool.txt	LTP103	ltpFR	0	1	-1	PROFESSOR	1131	n/a	-1	n/a	n/a	n/a	n/a	n/a
127259	REC_WORD	wordpools/wasnorm_wordpool.txt	LTP103	ltpFR	0	1	-1	CART	250	n/a	-1	n/a	n/a	n/a	n/a	n/a
128970	REC_WORD	wordpools/wasnorm_wordpool.txt	LTP103	ltpFR	0	1	-1	GANGSTER	620	n/a	-1	n/a	n/a	n/a	n/a	n/a
129943	REC_WORD	wordpools/wasnorm_wordpool.txt	LTP103	ltpFR	0	1	n/a	CASH	252	n/a	n/a	n/a	n/a	n/a	n/a	n/a
131260	REC_WORD	wordpools/wasnorm_wordpool.txt	LTP103	ltpFR	0	1	-1	BANK	83	n/a	-1	n/a	n/a	n/a	n/a	n/a
133504	REC_WORD	wordpools/wasnorm_wordpool.txt	LTP103	ltpFR	0	1	-1	PORT	1110	n/a	-1	n/a	n/a	n/a	n/a	n/a
136887	REC_WORD	wordpools/wasnorm_wordpool.txt	LTP103	ltpFR	0	1	-1	REPORT	1184	n/a	-1	n/a	n/a	n/a	n/a	n/a
229838	WORD	wordpools/wasnorm_wordpool.txt	LTP103	ltpFR	0	2	-1	STORE	1387	n/a	-1	1	1.0	1.0	upper	../fonts/Verdana.ttf
233957	WORD	wordpools/wasnorm_wordpool.txt	LTP103	ltpFR	0	2	-1	COYOTE	396	n/a	-1	1	1.0	1.0	upper	../fonts/Verdana.ttf
237862	WORD	wordpools/wasnorm_wordpool.txt	LTP103	ltpFR	0	2	-1	SCHOOL	1248	n/a	-1	1	1.0	1.0	upper	../fonts/Verdana.ttf
241849	WORD	wordpools/wasnorm_wordpool.txt	LTP103	ltpFR	0	2	-1	KLEENEX	782	n/a	-1	1	1.0	1.0	upper	../fonts/Verdana.ttf
246010	WORD	wordpools/wasnorm_wordpool.txt	LTP103	ltpFR	0	2	-1	GARAGE	621	n/a	-1	1	1.0	1.0	upper	../fonts/Verdana.ttf
249889	WORD	wordpools/wasnorm_wordpool.txt	LTP103	ltpFR	0	2	-1	PICNIC	1060	n/a	-1	1	1.0	1.0	upper	../fonts/Verdana.ttf
254067	WORD	wordpools/wasnorm_wordpool.txt	LTP103	ltpFR	0	2	-1	SHEPHERD	1283	n/a	-1	1	1.0	1.0	upper	../fonts/Verdana.ttf
258013	WORD	wordpools/wasnorm_wordpool.txt	LTP103	ltpFR	0	2	-1	SUNSET	1408	n/a	-1	1	1.0	1.0	upper	../fonts/Verdana.ttf
261992	WORD	wordpools/wasnorm_wordpool.txt	LTP103	ltpFR	0	2	-1	ISLAND	745	n/a	-1	1	1.0	1.0	upper	../fonts/Verdana.ttf
265904	WORD	wordpools/wasnorm_wordpool.txt	LTP103	ltpFR	0	2	-1	DIPLOMA	470	n/a	-1	1	1.0	1.0	upper	../fonts/Verdana.ttf
269858	WORD	wordpools/wasnorm_wordpool.txt	LTP103	ltpFR	0	2	-1	MUFFIN	929	n/a	-1	1	1.0	1.0	upper	../fonts/Verdana.ttf
273869	WORD	wordpools/wasnorm_wordpool.txt	LTP103	ltpFR	0	2	-1	GROCERY	664	n/a	-1	1	1.0	1.0	upper	../fonts/Verdana.ttf
277774	WORD	wordpools/wasnorm_wordpool.txt	LTP103	ltpFR	0	2	-1	VEHICLE	1553	n/a	-1	1	1.0	1.0	upper	../fonts/Verdana.ttf
281745	WORD	wordpools/wasnorm_wordpool.txt	LTP103	ltpFR	0	2	-1	JEEP	753	n/a	-1	1	1.0	1.0	upper	../fonts/Verdana.ttf
285665	WORD	wordpools/wasnorm_wordpool.txt	LTP103	ltpFR	0	2	-1	BUGGY	188	n/a	-1	1	1.0	1.0	upper	../fonts/Verdana.ttf
289785	WORD	wordpools/wasnorm_wordpool.txt	LTP103	ltpFR	0	2	-1	WHEEL	1603	n/a	-1	1	1.0	1.0	upper	../fonts/Verdana.ttf
295654	REC_START	n/a	LTP103	ltpFR	0	2	n/a	n/a	n/a	n/a	n/a	n/a	n/a	n/a	n/a	n/a
295988	REC_WORD	wordpools/wasnorm_wordpool.txt	LTP103	ltpFR	0	2	-1	WHEEL	1603	n/a	-1	n/a	n/a	n/a	n/a	n/a
297435	REC_WORD	wordpools/wasnorm_wordpool.txt	LTP103	ltpFR	0	2	-1	BUGGY	188	n/a	-1	n/a	n/a	n/a	n/a	n/a
299435	REC_WORD	wordpools/wasnorm_wordpool.txt	LTP103	ltpFR	0	2	-1	SUNSET	1408	n/a	-1	n/a	n/a	n/a	n/a	n/a
300727	REC_WORD	wordpools/wasnorm_wordpool.txt	LTP103	ltpFR	0	2	-1	PICNIC	1060	n/a	-1	n/a	n/a	n/a	n/a	n/a
301620	REC_WORD	wordpools/wasnorm_wordpool.txt	LTP103	ltpFR	0	2	-1	STUDENT	1395	n/a	-1	n/a	n/a	n/a	n/a	n/a
302947	REC_WORD	wordpools/wasnorm_wordpool.txt	LTP103	ltpFR	0	2	-1	SCHOOL	1248	n/a	-1	n/a	n/a	n/a	n/a	n/a
380605	WORD	wordpools/wasnorm_wordpool.txt	LTP103	ltpFR	0	3	-1	CLAW	319	n/a	-1	1	1.0	1.0	upper	../fonts/Verdana.ttf
384792	WORD	wordpools/wasnorm_wordpool.txt	LTP103	ltpFR	0	3	-1	COOLER	375	n/a	-1	1	1.0	1.0	upper	../fonts/Verdana.ttf
388620	WORD	wordpools/wasnorm_wordpool.txt	LTP103	ltpFR	0	3	-1	BAKER	71	n/a	-1	1	1.0	1.0	upper	../fonts/Verdana.ttf
392616	WORD	wordpools/wasnorm_wordpool.txt	LTP103	ltpFR	0	3	-1	NOTE	958	n/a	-1	1	1.0	1.0	upper	../fonts/Verdana.ttf
396553	WORD	wordpools/wasnorm_wordpool.txt	LTP103	ltpFR	0	3	-1	CHAUFFEUR	283	n/a	-1	1	1.0	1.0	upper	../fonts/Verdana.ttf
400615	WORD	wordpools/wasnorm_wordpool.txt	LTP103	ltpFR	0	3	-1	BRAN	167	n/a	-1	1	1.0	1.0	upper	../fonts/Verdana.ttf
404535	WORD	wordpools/wasnorm_wordpool.txt	LTP103	ltpFR	0	3	-1	RIVER	1194	n/a	-1	1	1.0	1.0	upper	../fonts/Verdana.ttf
408639	WORD	wordpools/wasnorm_wordpool.txt	LTP103	ltpFR	0	3	-1	LOG	841	n/a	-1	1	1.0	1.0	upper	../fonts/Verdana.ttf
412659	WORD	wordpools/wasnorm_wordpool.txt	LTP103	ltpFR	0	3	-1	SIREN	1310	n/a	-1	1	1.0	1.0	upper	../fonts/Verdana.ttf
416530	WORD	wordpools/wasnorm_wordpool.txt	LTP103	ltpFR	0	3	-1	FREEWAY	603	n/a	-1	1	1.0	1.0	upper	../fonts/Verdana.ttf
420508	WORD	wordpools/wasnorm_wordpool.txt	LTP103	ltpFR	0	3	-1	CELLO	268	n/a	-1	1	1.0	1.0	upper	../fonts/Verdana.ttf
424620	WORD	wordpools/wasnorm_wordpool.txt	LTP103	ltpFR	0	3	-1	PECAN	1036	n/a	-1	1	1.0	1.0	upper	../fonts/Verdana.ttf
428691	WORD	wordpools/wasnorm_wordpool.txt	LTP103	ltpFR	0	3	-1	CLERK	321	n/a	-1	1	1.0	1.0	upper	../fonts/Verdana.ttf
432628	WORD	wordpools/wasnorm_wordpool.txt	LTP103	ltpFR	0	3	-1	SUPERVISOR	1410	n/a	-1	1	1.0	1.0	upper	../fonts/Verdana.ttf
436673	WORD	wordpools/wasnorm_wordpool.txt	LTP103	ltpFR	0	3	-1	DANDELION	438	n/a	-1	1	1.0	1.0	upper	../fonts/Verdana.ttf
440652	WORD	wordpools/wasnorm_wordpool.txt	LTP103	ltpFR	0	3	-1	GARDEN	623	n/a	-1	1	1.0	1.0	upper	../fonts/Verdana.ttf
446487	REC_START	n/a	LTP103	ltpFR	0	3	n/a	n/a	n/a	n/a	n/a	n/a	n/a	n/a	n/a	n/a
447180	REC_WORD	wordpools/wasnorm_wordpool.txt	LTP103	ltpFR	0	3	-1	CLERK	321	n/a	-1	n/a	n/a	n/a	n/a	n/a
448517	REC_WORD	wordpools/wasnorm_wordpool.txt	LTP103	ltpFR	0	3	-1	DANDELION	438	n/a	-1	n/a	n/a	n/a	n/a	n/a
449645	REC_WORD	wordpools/wasnorm_wordpool.txt	LTP103	ltpFR	0	3	-1	GARDEN	623	n/a	-1	n/a	n/a	n/a	n/a	n/a
528816	WORD	wordpools/wasnorm_wordpool.txt	LTP103	ltpFR	0	4	-1	SUMMIT	1405	n/a	-1	1	1.0	1.0	upper	../fonts/Verdana.ttf
532753	WORD	wordpools/wasnorm_wordpool.txt	LTP103	ltpFR	0	4	-1	BEAN	105	n/a	-1	1	1.0	1.0	upper	../fonts/Verdana.ttf
536798	WORD	wordpools/wasnorm_wordpool.txt	LTP103	ltpFR	0	4	-1	HEDGE	699	n/a	-1	1	1.0	1.0	upper	../fonts/Verdana.ttf
540744	WORD	wordpools/wasnorm_wordpool.txt	LTP103	ltpFR	0	4	-1	AUTOMOBILE	62	n/a	-1	1	1.0	1.0	upper	../fonts/Verdana.ttf
544756	WORD	wordpools/wasnorm_wordpool.txt	LTP103	ltpFR	0	4	-1	GREASE	660	n/a	-1	1	1.0	1.0	upper	../fonts/Verdana.ttf
548834	WORD	wordpools/wasnorm_wordpool.txt	LTP103	ltpFR	0	4	-1	BASEBALL	93	n/a	-1	1	1.0	1.0	upper	../fonts/Verdana.ttf
552680	WORD	wordpools/wasnorm_wordpool.txt	LTP103	ltpFR	0	4	-1	OYSTER	995	n/a	-1	1	1.0	1.0	upper	../fonts/Verdana.ttf
556517	WORD	wordpools/wasnorm_wordpool.txt	LTP103	ltpFR	0	4	-1	FELLOW	558	n/a	-1	1	1.0	1.0	upper	../fonts/Verdana.ttf
560388	WORD	wordpools/wasnorm_wordpool.txt	LTP103	ltpFR	0	4	-1	SUITE	1404	n/a	-1	1	1.0	1.0	upper	../fonts/Verdana.ttf
564290	WORD	wordpools/wasnorm_wordpool.txt	LTP103	ltpFR	0	4	-1	ROOM	1206	n/a	-1	1	1.0	1.0	upper	../fonts/Verdana.ttf
568119	WORD	wordpools/wasnorm_wordpool.txt	LTP103	ltpFR	0	4	-1	KING	777	n/a	-1	1	1.0	1.0	upper	../fonts/Verdana.ttf
572073	WORD	wordpools/wasnorm_wordpool.txt	LTP103	ltpFR	0	4	-1	CLIMBER	323	n/a	-1	1	1.0	1.0	upper	../fonts/Verdana.ttf
576010	WORD	wordpools/wasnorm_wordpool.txt	LTP103	ltpFR	0	4	-1	KNAPSACK	783	n/a	-1	1	1.0	1.0	upper	../fonts/Verdana.ttf
580180	WORD	wordpools/wasnorm_wordpool.txt	LTP103	ltpFR	0	4	-1	CATCHER	258	n/a	-1	1	1.0	1.0	upper	../fonts/Verdana.ttf
584335	WORD	wordpools/wasnorm_wordpool.txt	LTP103	ltpFR	0	4	-1	RICE	1190	n/a	-1	1	1.0	1.0	upper	../fonts/Verdana.ttf
588322	WORD	wordpools/wasnorm_wordpool.txt	LTP103	ltpFR	0	4	-1	CAULIFLOWER	262	n/a	-1	1	1.0	1.0	upper	../fonts/Verdana.ttf
594265	REC_START	n/a	LTP103	ltpFR	0	4	n/a	n/a	n/a	n/a	n/a	n/a	n/a	n/a	n/a	n/a
594693	REC_WORD	wordpools/wasnorm_wordpool.txt	LTP103	ltpFR	0	4	-1	KNAPSACK	783	n/a	-1	n/a	n/a	n/a	n/a	n/a
595567	REC_WORD	wordpools/wasnorm_wordpool.txt	LTP103	ltpFR	0	4	-1	RICE	1190	n/a	-1	n/a	n/a	n/a	n/a	n/a
596146	REC_WORD	wordpools/wasnorm_wordpool.txt	LTP103	ltpFR	0	4	-1	CAULIFLOWER	262	n/a	-1	n/a	n/a	n/a	n/a	n/a
597931	REC_WORD	wordpools/wasnorm_wordpool.txt	LTP103	ltpFR	0	4	-1	CLIMBER	323	n/a	-1	n/a	n/a	n/a	n/a	n/a
598673	REC_WORD	wordpools/wasnorm_wordpool.txt	LTP103	ltpFR	0	4	-1	HEDGE	699	n/a	-1	n/a	n/a	n/a	n/a	n/a
599328	REC_WORD	wordpools/wasnorm_wordpool.txt	LTP103	ltpFR	0	4	-1	SUMMIT	1405	n/a	-1	n/a	n/a	n/a	n/a	n/a
620919	REC_WORD	wordpools/wasnorm_wordpool.txt	LTP103	ltpFR	0	4	-1	AUTOMOBILE	62	n/a	-1	n/a	n/a	n/a	n/a	n/a
629924	REC_WORD	wordpools/wasnorm_wordpool.txt	LTP103	ltpFR	0	4	-1	SUITE	1404	n/a	-1	n/a	n/a	n/a	n/a	n/a
863860	WORD	wordpools/wasnorm_wordpool.txt	LTP103	ltpFR	0	5	1	ARENA	37	n/a	0	0	0.5869140625	0.422607421875	lower	../fonts/amplitud.ttf
867946	WORD	wordpools/wasnorm_wordpool.txt	LTP103	ltpFR	0	5	1	PUPIL	1143	n/a	0	0	0.5869140625	0.422607421875	lower	../fonts/amplitud.ttf
871809	WORD	wordpools/wasnorm_wordpool.txt	LTP103	ltpFR	0	5	1	WHALE	1601	n/a	1	0	0.5869140625	0.422607421875	lower	../fonts/amplitud.ttf
875705	WORD	wordpools/wasnorm_wordpool.txt	LTP103	ltpFR	0	5	1	LID	817	n/a	0	0	0.5869140625	0.422607421875	lower	../fonts/amplitud.ttf
879625	WORD	wordpools/wasnorm_wordpool.txt	LTP103	ltpFR	0	5	1	CIGAR	308	n/a	0	0	0.5869140625	0.422607421875	lower	../fonts/amplitud.ttf
883454	WORD	wordpools/wasnorm_wordpool.txt	LTP103	ltpFR	0	5	1	PIPE	1073	n/a	0	0	0.5869140625	0.422607421875	lower	../fonts/amplitud.ttf
887358	WORD	wordpools/wasnorm_wordpool.txt	LTP103	ltpFR	0	5	1	SUPERMARKET	1409	n/a	0	0	0.5869140625	0.422607421875	lower	../fonts/amplitud.ttf
891486	WORD	wordpools/wasnorm_wordpool.txt	LTP103	ltpFR	0	5	1	SANDWICH	1232	n/a	0	0	0.5869140625	0.422607421875	lower	../fonts/amplitud.ttf
895357	WORD	wordpools/wasnorm_wordpool.txt	LTP103	ltpFR	0	5	1	OTTER	986	n/a	1	0	0.5869140625	0.422607421875	lower	../fonts/amplitud.ttf
899494	WORD	wordpools/wasnorm_wordpool.txt	LTP103	ltpFR	0	5	1	GIRAFFE	636	n/a	1	0	0.5869140625	0.422607421875	lower	../fonts/amplitud.ttf
903373	WORD	wordpools/wasnorm_wordpool.txt	LTP103	ltpFR	0	5	1	DONKEY	484	n/a	1	0	0.5869140625	0.422607421875	lower	../fonts/amplitud.ttf
907510	WORD	wordpools/wasnorm_wordpool.txt	LTP103	ltpFR	0	5	1	BARK	87	n/a	0	0	0.5869140625	0.422607421875	lower	../fonts/amplitud.ttf
911630	WORD	wordpools/wasnorm_wordpool.txt	LTP103	ltpFR	0	5	1	FUDGE	611	n/a	0	0	0.5869140625	0.422607421875	lower	../fonts/amplitud.ttf
915658	WORD	wordpools/wasnorm_wordpool.txt	LTP103	ltpFR	0	5	1	SIDING	1304	n/a	0	0	0.5869140625	0.422607421875	lower	../fonts/amplitud.ttf
919471	WORD	wordpools/wasnorm_wordpool.txt	LTP103	ltpFR	0	5	1	BAY	102	n/a	0	0	0.5869140625	0.422607421875	lower	../fonts/amplitud.ttf
923607	WORD	wordpools/wasnorm_wordpool.txt	LTP103	ltpFR	0	5	1	HOUND	724	n/a	1	0	0.5869140625	0.422607421875	lower	../fonts/amplitud.ttf
929376	REC_START	n/a	LTP103	ltpFR	0	5	n/a	n/a	n/a	n/a	n/a	n/a	n/a	n/a	n/a	n/a
929810	REC_WORD	wordpools/wasnorm_wordpool.txt	LTP103	ltpFR	0	5	1	HOUND	724	n/a	1	n/a	n/a	n/a	n/a	n/a
932454	REC_WORD	wordpools/wasnorm_wordpool.txt	LTP103	ltpFR	0	5	1	BAY	102	n/a	0	n/a	n/a	n/a	n/a	n/a
933496	REC_WORD	wordpools/wasnorm_wordpool.txt	LTP103	ltpFR	0	5	1	SUPERMARKET	1409	n/a	0	n/a	n/a	n/a	n/a	n/a
934699	REC_WORD	wordpools/wasnorm_wordpool.txt	LTP103	ltpFR	0	5	1	SANDWICH	1232	n/a	0	n/a	n/a	n/a	n/a	n/a
935766	REC_WORD	wordpools/wasnorm_wordpool.txt	LTP103	ltpFR	0	5	1	ARENA	37	n/a	0	n/a	n/a	n/a	n/a	n/a
938101	REC_WORD	wordpools/wasnorm_wordpool.txt	LTP103	ltpFR	0	5	1	OTTER	986	n/a	1	n/a	n/a	n/a	n/a	n/a
938660	REC_WORD	wordpools/wasnorm_wordpool.txt	LTP103	ltpFR	0	5	1	GIRAFFE	636	n/a	1	n/a	n/a	n/a	n/a	n/a
1012145	WORD	wordpools/wasnorm_wordpool.txt	LTP103	ltpFR	0	6	1	SWIMMER	1420	n/a	1	0	0.5869140625	0.422607421875	lower	../fonts/amplitud.ttf
1016041	WORD	wordpools/wasnorm_wordpool.txt	LTP103	ltpFR	0	6	1	FAUCET	555	n/a	0	0	0.5869140625	0.422607421875	lower	../fonts/amplitud.ttf
1019911	WORD	wordpools/wasnorm_wordpool.txt	LTP103	ltpFR	0	6	1	STAIRS	1367	n/a	0	0	0.5869140625	0.422607421875	lower	../fonts/amplitud.ttf
1023915	WORD	wordpools/wasnorm_wordpool.txt	LTP103	ltpFR	0	6	1	MILK	895	n/a	0	0	0.5869140625	0.422607421875	lower	../fonts/amplitud.ttf
1027728	WORD	wordpools/wasnorm_wordpool.txt	LTP103	ltpFR	0	6	1	BIRD	129	n/a	1	0	0.5869140625	0.422607421875	lower	../fonts/amplitud.ttf
1031657	WORD	wordpools/wasnorm_wordpool.txt	LTP103	ltpFR	0	6	1	RAISIN	1163	n/a	0	0	0.5869140625	0.422607421875	lower	../fonts/amplitud.ttf
1035727	WORD	wordpools/wasnorm_wordpool.txt	LTP103	ltpFR	0	6	1	LADDER	793	n/a	0	0	0.5869140625	0.422607421875	lower	../fonts/amplitud.ttf
1039839	WORD	wordpools/wasnorm_wordpool.txt	LTP103	ltpFR	0	6	1	SAUSAGE	1238	n/a	0	0	0.5869140625	0.422607421875	lower	../fonts/amplitud.ttf
1044017	WORD	wordpools/wasnorm_wordpool.txt	LTP103	ltpFR	0	6	1	PUMPKIN	1142	n/a	0	0	0.5869140625	0.422607421875	lower	../fonts/amplitud.ttf
1047838	WORD	wordpools/wasnorm_wordpool.txt	LTP103	ltpFR	0	6	1	RIDER	1191	n/a	1	0	0.5869140625	0.422607421875	lower	../fonts/amplitud.ttf
1051825	WORD	wordpools/wasnorm_wordpool.txt	LTP103	ltpFR	0	6	1	WRIST	1626	n/a	0	0	0.5869140625	0.422607421875	lower	../fonts/amplitud.ttf
1055878	WORD	wordpools/wasnorm_wordpool.txt	LTP103	ltpFR	0	6	1	PRODUCER	1129	n/a	1	0	0.5869140625	0.422607421875	lower	../fonts/amplitud.ttf
1059708	WORD	wordpools/wasnorm_wordpool.txt	LTP103	ltpFR	0	6	1	COCOON	339	n/a	0	0	0.5869140625	0.422607421875	lower	../fonts/amplitud.ttf
1063828	WORD	wordpools/wasnorm_wordpool.txt	LTP103	ltpFR	0	6	1	SCREW	1254	n/a	0	0	0.5869140625	0.422607421875	lower	../fonts/amplitud.ttf
1067865	WORD	wordpools/wasnorm_wordpool.txt	LTP103	ltpFR	0	6	1	BISCUIT	130	n/a	0	0	0.5869140625	0.422607421875	lower	../fonts/amplitud.ttf
1071909	WORD	wordpools/wasnorm_wordpool.txt	LTP103	ltpFR	0	6	1	BULL	193	n/a	1	0	0.5869140625	0.422607421875	lower	../fonts/amplitud.ttf
1077903	REC_START	n/a	LTP103	ltpFR	0	6	n/a	n/a	n/a	n/a	n/a	n/a	n/a	n/a	n/a	n/a
1078437	REC_WORD	wordpools/wasnorm_wordpool.txt	LTP103	ltpFR	0	6	n/a	BOWL	158	n/a	n/a	n/a	n/a	n/a	n/a	n/a
1079135	REC_WORD	wordpools/wasnorm_wordpool.txt	LTP103	ltpFR	0	6	1	PRODUCER	1129	n/a	1	n/a	n/a	n/a	n/a	n/a
1089151	REC_WORD	wordpools/wasnorm_wordpool.txt	LTP103	ltpFR	0	6	1	FAUCET	555	n/a	0	n/a	n/a	n/a	n/a	n/a
1097378	REC_WORD	wordpools/wasnorm_wordpool.txt	LTP103	ltpFR	0	6	1	WRIST	1626	n/a	0	n/a	n/a	n/a	n/a	n/a
1108768	REC_WORD	wordpools/wasnorm_wordpool.txt	LTP103	ltpFR	0	6	1	PUMPKIN	1142	n/a	0	n/a	n/a	n/a	n/a	n/a
1183063	WORD	wordpools/wasnorm_wordpool.txt	LTP103	ltpFR	0	7	1	CORAL	378	n/a	1	0	0.5869140625	0.422607421875	lower	../fonts/amplitud.ttf
1187250	WORD	wordpools/wasnorm_wordpool.txt	LTP103	ltpFR	0	7	1	STAFF	1365	n/a	0	0	0.5869140625	0.422607421875	lower	../fonts/amplitud.ttf
1191079	WORD	wordpools/wasnorm_wordpool.txt	LTP103	ltpFR	0	7	1	RAT	1169	n/a	1	0	0.5869140625	0.422607421875	lower	../fonts/amplitud.ttf
1195124	WORD	wordpools/wasnorm_wordpool.txt	LTP103	ltpFR	0	7	1	NET	946	n/a	0	0	0.5869140625	0.422607421875	lower	../fonts/amplitud.ttf
1199311	WORD	wordpools/wasnorm_wordpool.txt	LTP103	ltpFR	0	7	1	TART	1436	n/a	0	0	0.5869140625	0.422607421875	lower	../fonts/amplitud.ttf
1203366	WORD	wordpools/wasnorm_wordpool.txt	LTP103	ltpFR	0	7	1	MINT	898	n/a	0	0	0.5869140625	0.422607421875	lower	../fonts/amplitud.ttf
1207411	WORD	wordpools/wasnorm_wordpool.txt	LTP103	ltpFR	0	7	1	TROUT	1511	n/a	1	0	0.5869140625	0.422607421875	lower	../fonts/amplitud.ttf
1211365	WORD	wordpools/wasnorm_wordpool.txt	LTP103	ltpFR	0	7	1	PASTA	1021	n/a	0	0	0.5869140625	0.422607421875	lower	../fonts/amplitud.ttf
1215493	WORD	wordpools/wasnorm_wordpool.txt	LTP103	ltpFR	0	7	1	PLUTO	1092	n/a	0	0	0.5869140625	0.422607421875	lower	../fonts/amplitud.ttf
1219422	WORD	wordpools/wasnorm_wordpool.txt	LTP103	ltpFR	0	7	1	PEDESTRIAN	1038	n/a	1	0	0.5869140625	0.422607421875	lower	../fonts/amplitud.ttf
1223501	WORD	wordpools/wasnorm_wordpool.txt	LTP103	ltpFR	0	7	1	RODENT	1204	n/a	1	0	0.5869140625	0.422607421875	lower	../fonts/amplitud.ttf
1227330	WORD	wordpools/wasnorm_wordpool.txt	LTP103	ltpFR	0	7	1	SPACE	1345	n/a	0	0	0.5869140625	0.422607421875	lower	../fonts/amplitud.ttf
1231166	WORD	wordpools/wasnorm_wordpool.txt	LTP103	ltpFR	0	7	1	RADIO	1157	n/a	0	0	0.5869140625	0.422607421875	lower	../fonts/amplitud.ttf
1234995	WORD	wordpools/wasnorm_wordpool.txt	LTP103	ltpFR	0	7	1	STEREO	1378	n/a	0	0	0.5869140625	0.422607421875	lower	../fonts/amplitud.ttf
1238858	WORD	wordpools/wasnorm_wordpool.txt	LTP103	ltpFR	0	7	1	CEILING	265	n/a	0	0	0.5869140625	0.422607421875	lower	../fonts/amplitud.ttf
1242969	WORD	wordpools/wasnorm_wordpool.txt	LTP103	ltpFR	0	7	1	PORCH	1106	n/a	0	0	0.5869140625	0.422607421875	lower	../fonts/amplitud.ttf
1248805	REC_START	n/a	LTP103	ltpFR	0	7	n/a	n/a	n/a	n/a	n/a	n/a	n/a	n/a	n/a	n/a
1249179	REC_WORD	wordpools/wasnorm_wordpool.txt	LTP103	ltpFR	0	7	1	PORCH	1106	n/a	0	n/a	n/a	n/a	n/a	n/a
1249800	REC_WORD	wordpools/wasnorm_wordpool.txt	LTP103	ltpFR	0	7	1	CEILING	265	n/a	0	n/a	n/a	n/a	n/a	n/a
1250641	REC_WORD	wordpools/wasnorm_wordpool.txt	LTP103	ltpFR	0	7	1	PEDESTRIAN	1038	n/a	1	n/a	n/a	n/a	n/a	n/a
1306728	REC_WORD	wordpools/wasnorm_wordpool.txt	LTP103	ltpFR	0	7	1	RODENT	1204	n/a	1	n/a	n/a	n/a	n/a	n/a
1331308	WORD	wordpools/wasnorm_wordpool.txt	LTP103	ltpFR	0	8	1	CHAMBER	277	n/a	0	0	0.5869140625	0.422607421875	lower	../fonts/amplitud.ttf
1335145	WORD	wordpools/wasnorm_wordpool.txt	LTP103	ltpFR	0	8	1	SPY	1360	n/a	1	0	0.5869140625	0.422607421875	lower	../fonts/amplitud.ttf
1339066	WORD	wordpools/wasnorm_wordpool.txt	LTP103	ltpFR	0	8	1	CAT	257	n/a	1	0	0.5869140625	0.422607421875	lower	../fonts/amplitud.ttf
1343169	WORD	wordpools/wasnorm_wordpool.txt	LTP103	ltpFR	0	8	1	TECHNICIAN	1443	n/a	1	0	0.5869140625	0.422607421875	lower	../fonts/amplitud.ttf
1347015	WORD	wordpools/wasnorm_wordpool.txt	LTP103	ltpFR	0	8	1	MACHINE	852	n/a	0	0	0.5869140625	0.422607421875	lower	../fonts/amplitud.ttf
1351168	WORD	wordpools/wasnorm_wordpool.txt	LTP103	ltpFR	0	8	1	POLYESTER	1100	n/a	0	0	0.5869140625	0.422607421875	lower	../fonts/amplitud.ttf
1355072	WORD	wordpools/wasnorm_wordpool.txt	LTP103	ltpFR	0	8	1	SEAT	1264	n/a	0	0	0.5869140625	0.422607421875	lower	../fonts/amplitud.ttf
1359126	WORD	wordpools/wasnorm_wordpool.txt	LTP103	ltpFR	0	8	1	PATIO	1025	n/a	0	0	0.5869140625	0.422607421875	lower	../fonts/amplitud.ttf
1363046	WORD	wordpools/wasnorm_wordpool.txt	LTP103	ltpFR	0	8	1	PUPPY	1144	n/a	1	0	0.5869140625	0.422607421875	lower	../fonts/amplitud.ttf
1367200	WORD	wordpools/wasnorm_wordpool.txt	LTP103	ltpFR	0	8	1	DINER	467	n/a	0	0	0.5869140625	0.422607421875	lower	../fonts/amplitud.ttf
1371337	WORD	wordpools/wasnorm_wordpool.txt	LTP103	ltpFR	0	8	1	RESORT	1186	n/a	0	0	0.5869140625	0.422607421875	lower	../fonts/amplitud.ttf
1375416	WORD	wordpools/wasnorm_wordpool.txt	LTP103	ltpFR	0	8	1	SHACK	1273	n/a	0	0	0.5869140625	0.422607421875	lower	../fonts/amplitud.ttf
1379520	WORD	wordpools/wasnorm_wordpool.txt	LTP103	ltpFR	0	8	1	HOOK	715	n/a	0	0	0.5869140625	0.422607421875	lower	../fonts/amplitud.ttf
1383340	WORD	wordpools/wasnorm_wordpool.txt	LTP103	ltpFR	0	8	1	CLAM	315	n/a	1	0	0.5869140625	0.422607421875	lower	../fonts/amplitud.ttf
1387268	WORD	wordpools/wasnorm_wordpool.txt	LTP103	ltpFR	0	8	1	PLAID	1080	n/a	0	0	0.5869140625	0.422607421875	lower	../fonts/amplitud.ttf
1391163	WORD	wordpools/wasnorm_wordpool.txt	LTP103	ltpFR	0	8	1	FLANNEL	574	n/a	0	0	0.5869140625	0.422607421875	lower	../fonts/amplitud.ttf
1396991	REC_START	n/a	LTP103	ltpFR	0	8	n/a	n/a	n/a	n/a	n/a	n/a	n/a	n/a	n/a	n/a
1397384	REC_WORD	wordpools/wasnorm_wordpool.txt	LTP103	ltpFR	0	8	1	FLANNEL	574	n/a	0	n/a	n/a	n/a	n/a	n/a
1398311	REC_WORD	wordpools/wasnorm_wordpool.txt	LTP103	ltpFR	0	8	1	SHACK	1273	n/a	0	n/a	n/a	n/a	n/a	n/a
1414576	REC_WORD	wordpools/wasnorm_wordpool.txt	LTP103	ltpFR	0	8	1	TECHNICIAN	1443	n/a	1	n/a	n/a	n/a	n/a	n/a
1484289	WORD	wordpools/wasnorm_wordpool.txt	LTP103	ltpFR	0	9	0	COMMANDER	354	n/a	1	1	0.412841796875	0.57763671875	upper	../fonts/zerothre.ttf
1488109	WORD	wordpools/wasnorm_wordpool.txt	LTP103	ltpFR	0	9	0	ELECTRICIAN	521	n/a	1	1	0.412841796875	0.57763671875	upper	../fonts/zerothre.ttf
1492046	WORD	wordpools/wasnorm_wordpool.txt	LTP103	ltpFR	0	9	0	BERRY	122	n/a	0	1	0.412841796875	0.57763671875	upper	../fonts/zerothre.ttf
1495892	WORD	wordpools/wasnorm_wordpool.txt	LTP103	ltpFR	0	9	0	BOOK	149	n/a	0	1	0.412841796875	0.57763671875	upper	../fonts/zerothre.ttf
1500045	WORD	wordpools/wasnorm_wordpool.txt	LTP103	ltpFR	0	9	0	PHILOSOPHER	1054	n/a	1	1	0.412841796875	0.57763671875	upper	../fonts/zerothre.ttf
1504041	WORD	wordpools/wasnorm_wordpool.txt	LTP103	ltpFR	0	9	0	COLLEGE	346	n/a	1	1	0.412841796875	0.57763671875	upper	../fonts/zerothre.ttf
1508111	WORD	wordpools/wasnorm_wordpool.txt	LTP103	ltpFR	0	9	0	SUSPECT	1415	n/a	1	1	0.412841796875	0.57763671875	upper	../fonts/zerothre.ttf
1512264	WORD	wordpools/wasnorm_wordpool.txt	LTP103	ltpFR	0	9	0	CABLE	213	n/a	0	1	0.412841796875	0.57763671875	upper	../fonts/zerothre.ttf
1516285	WORD	wordpools/wasnorm_wordpool.txt	LTP103	ltpFR	0	9	0	HOUSE	725	n/a	1	1	0.412841796875	0.57763671875	upper	../fonts/zerothre.ttf
1520305	WORD	wordpools/wasnorm_wordpool.txt	LTP103	ltpFR	0	9	0	ATTIC	56	n/a	1	1	0.412841796875	0.57763671875	upper	../fonts/zerothre.ttf
1524151	WORD	wordpools/wasnorm_wordpool.txt	LTP103	ltpFR	0	9	0	LIP	828	n/a	0	1	0.412841796875	0.57763671875	upper	../fonts/zerothre.ttf
1528121	WORD	wordpools/wasnorm_wordpool.txt	LTP103	ltpFR	0	9	0	RIB	1188	n/a	1	1	0.412841796875	0.57763671875	upper	../fonts/zerothre.ttf
1532166	WORD	wordpools/wasnorm_wordpool.txt	LTP103	ltpFR	0	9	0	ORANGE	980	n/a	0	1	0.412841796875	0.57763671875	upper	../fonts/zerothre.ttf
1536062	WORD	wordpools/wasnorm_wordpool.txt	LTP103	ltpFR	0	9	0	DIARY	460	n/a	0	1	0.412841796875	0.57763671875	upper	../fonts/zerothre.ttf
1539966	WORD	wordpools/wasnorm_wordpool.txt	LTP103	ltpFR	0	9	0	BUS	201	n/a	1	1	0.412841796875	0.57763671875	upper	../fonts/zerothre.ttf
1544044	WORD	wordpools/wasnorm_wordpool.txt	LTP103	ltpFR	0	9	0	WINDSHIELD	1612	n/a	1	1	0.412841796875	0.57763671875	upper	../fonts/zerothre.ttf
1549880	REC_START	n/a	LTP103	ltpFR	0	9	n/a	n/a	n/a	n/a	n/a	n/a	n/a	n/a	n/a	n/a
1550249	REC_WORD	wordpools/wasnorm_wordpool.txt	LTP103	ltpFR	0	9	0	WINDSHIELD	1612	n/a	1	n/a	n/a	n/a	n/a	n/a
1551651	REC_WORD	wordpools/wasnorm_wordpool.txt	LTP103	ltpFR	0	9	0	BUS	201	n/a	1	n/a	n/a	n/a	n/a	n/a
1552484	REC_WORD	wordpools/wasnorm_wordpool.txt	LTP103	ltpFR	0	9	0	ATTIC	56	n/a	1	n/a	n/a	n/a	n/a	n/a
1553402	REC_WORD	wordpools/wasnorm_wordpool.txt	LTP103	ltpFR	0	9	0	HOUSE	725	n/a	1	n/a	n/a	n/a	n/a	n/a
1556619	REC_WORD	wordpools/wasnorm_wordpool.txt	LTP103	ltpFR	0	9	0	RIB	1188	n/a	1	n/a	n/a	n/a	n/a	n/a
1557697	REC_WORD	wordpools/wasnorm_wordpool.txt	LTP103	ltpFR	0	9	0	DIARY	460	n/a	0	n/a	n/a	n/a	n/a	n/a
1561164	REC_WORD	wordpools/wasnorm_wordpool.txt	LTP103	ltpFR	0	9	0	ELECTRICIAN	521	n/a	1	n/a	n/a	n/a	n/a	n/a
1563853	REC_WORD	wordpools/wasnorm_wordpool.txt	LTP103	ltpFR	0	9	0	PHILOSOPHER	1054	n/a	1	n/a	n/a	n/a	n/a	n/a
1653501	WORD	wordpools/wasnorm_wordpool.txt	LTP103	ltpFR	0	10	0	ARROW	40	n/a	1	1	0.412841796875	0.57763671875	upper	../fonts/zerothre.ttf
1657472	WORD	wordpools/wasnorm_wordpool.txt	LTP103	ltpFR	0	10	0	HEADBAND	696	n/a	0	1	0.412841796875	0.57763671875	upper	../fonts/zerothre.ttf
1661600	WORD	wordpools/wasnorm_wordpool.txt	LTP103	ltpFR	0	10	0	TABLET	1427	n/a	0	1	0.412841796875	0.57763671875	upper	../fonts/zerothre.ttf
1665537	WORD	wordpools/wasnorm_wordpool.txt	LTP103	ltpFR	0	10	0	RADIATOR	1156	n/a	1	1	0.412841796875	0.57763671875	upper	../fonts/zerothre.ttf
1669666	WORD	wordpools/wasnorm_wordpool.txt	LTP103	ltpFR	0	10	0	TREAT	1501	n/a	0	1	0.412841796875	0.57763671875	upper	../fonts/zerothre.ttf
1673877	WORD	wordpools/wasnorm_wordpool.txt	LTP103	ltpFR	0	10	0	BUFFALO	186	n/a	1	1	0.412841796875	0.57763671875	upper	../fonts/zerothre.ttf
1677698	WORD	wordpools/wasnorm_wordpool.txt	LTP103	ltpFR	0	10	0	TAIL	1430	n/a	0	1	0.412841796875	0.57763671875	upper	../fonts/zerothre.ttf
1681635	WORD	wordpools/wasnorm_wordpool.txt	LTP103	ltpFR	0	10	0	VET	1560	n/a	1	1	0.412841796875	0.57763671875	upper	../fonts/zerothre.ttf
1685572	WORD	wordpools/wasnorm_wordpool.txt	LTP103	ltpFR	0	10	0	DRYER	503	n/a	1	1	0.412841796875	0.57763671875	upper	../fonts/zerothre.ttf
1689651	WORD	wordpools/wasnorm_wordpool.txt	LTP103	ltpFR	0	10	0	PRISON	1127	n/a	1	1	0.412841796875	0.57763671875	upper	../fonts/zerothre.ttf
1693630	WORD	wordpools/wasnorm_wordpool.txt	LTP103	ltpFR	0	10	0	FOLDER	588	n/a	0	1	0.412841796875	0.57763671875	upper	../fonts/zerothre.ttf
1697667	WORD	wordpools/wasnorm_wordpool.txt	LTP103	ltpFR	0	10	0	DISHWASHER	475	n/a	1	1	0.412841796875	0.57763671875	upper	../fonts/zerothre.ttf
1701720	WORD	wordpools/wasnorm_wordpool.txt	LTP103	ltpFR	0	10	0	SLACKS	1323	n/a	0	1	0.412841796875	0.57763671875	upper	../fonts/zerothre.ttf
1705774	WORD	wordpools/wasnorm_wordpool.txt	LTP103	ltpFR	0	10	0	CAFE	216	n/a	1	1	0.412841796875	0.57763671875	upper	../fonts/zerothre.ttf
1709678	WORD	wordpools/wasnorm_wordpool.txt	LTP103	ltpFR	0	10	0	TURKEY	1520	n/a	1	1	0.412841796875	0.57763671875	upper	../fonts/zerothre.ttf
1713565	WORD	wordpools/wasnorm_wordpool.txt	LTP103	ltpFR	0	10	0	JEANS	752	n/a	1	1	0.412841796875	0.57763671875	upper	../fonts/zerothre.ttf
1719249	REC_START	n/a	LTP103	ltpFR	0	10	n/a	n/a	n/a	n/a	n/a	n/a	n/a	n/a	n/a	n/a
1719543	REC_WORD	wordpools/wasnorm_wordpool.txt	LTP103	ltpFR	0	10	0	JEANS	752	n/a	1	n/a	n/a	n/a	n/a	n/a
1720194	REC_WORD	wordpools/wasnorm_wordpool.txt	LTP103	ltpFR	0	10	0	TURKEY	1520	n/a	1	n/a	n/a	n/a	n/a	n/a
1720751	REC_WORD	wordpools/wasnorm_wordpool.txt	LTP103	ltpFR	0	10	0	SLACKS	1323	n/a	0	n/a	n/a	n/a	n/a	n/a
1724063	REC_WORD	wordpools/wasnorm_wordpool.txt	LTP103	ltpFR	0	10	0	CAFE	216	n/a	1	n/a	n/a	n/a	n/a	n/a
1750213	REC_WORD	wordpools/wasnorm_wordpool.txt	LTP103	ltpFR	0	10	0	BUFFALO	186	n/a	1	n/a	n/a	n/a	n/a	n/a
1799880	WORD	wordpools/wasnorm_wordpool.txt	LTP103	ltpFR	0	11	0	BROOK	177	n/a	0	1	0.412841796875	0.57763671875	upper	../fonts/zerothre.ttf
1804050	WORD	wordpools/wasnorm_wordpool.txt	LTP103	ltpFR	0	11	0	BLUEJAY	141	n/a	0	1	0.412841796875	0.57763671875	upper	../fonts/zerothre.ttf
1808071	WORD	wordpools/wasnorm_wordpool.txt	LTP103	ltpFR	0	11	0	GUARDIAN	668	n/a	1	1	0.412841796875	0.57763671875	upper	../fonts/zerothre.ttf
1811966	WORD	wordpools/wasnorm_wordpool.txt	LTP103	ltpFR	0	11	0	CAMEL	223	n/a	1	1	0.412841796875	0.57763671875	upper	../fonts/zerothre.ttf
1815912	WORD	wordpools/wasnorm_wordpool.txt	LTP103	ltpFR	0	11	0	SWAN	1417	n/a	1	1	0.412841796875	0.57763671875	upper	../fonts/zerothre.ttf
1819725	WORD	wordpools/wasnorm_wordpool.txt	LTP103	ltpFR	0	11	0	VALVE	1546	n/a	0	1	0.412841796875	0.57763671875	upper	../fonts/zerothre.ttf
1823670	WORD	wordpools/wasnorm_wordpool.txt	LTP103	ltpFR	0	11	0	SYRINGE	1424	n/a	0	1	0.412841796875	0.57763671875	upper	../fonts/zerothre.ttf
1827849	WORD	wordpools/wasnorm_wordpool.txt	LTP103	ltpFR	0	11	0	PORCUPINE	1107	n/a	1	1	0.412841796875	0.57763671875	upper	../fonts/zerothre.ttf
1831811	WORD	wordpools/wasnorm_wordpool.txt	LTP103	ltpFR	0	11	0	RECIPE	1175	n/a	0	1	0.412841796875	0.57763671875	upper	../fonts/zerothre.ttf
1835872	WORD	wordpools/wasnorm_wordpool.txt	LTP103	ltpFR	0	11	0	VINE	1568	n/a	1	1	0.412841796875	0.57763671875	upper	../fonts/zerothre.ttf
1839760	WORD	wordpools/wasnorm_wordpool.txt	LTP103	ltpFR	0	11	0	FLASK	576	n/a	0	1	0.412841796875	0.57763671875	upper	../fonts/zerothre.ttf
1843739	WORD	wordpools/wasnorm_wordpool.txt	LTP103	ltpFR	0	11	0	VEGETABLE	1552	n/a	0	1	0.412841796875	0.57763671875	upper	../fonts/zerothre.ttf
1847784	WORD	wordpools/wasnorm_wordpool.txt	LTP103	ltpFR	0	11	0	SHORTCAKE	1292	n/a	0	1	0.412841796875	0.57763671875	upper	../fonts/zerothre.ttf
1851928	WORD	wordpools/wasnorm_wordpool.txt	LTP103	ltpFR	0	11	0	BATTERY	101	n/a	0	1	0.412841796875	0.57763671875	upper	../fonts/zerothre.ttf
1856132	WORD	wordpools/wasnorm_wordpool.txt	LTP103	ltpFR	0	11	0	PROFESSIONAL	1130	n/a	1	1	0.412841796875	0.57763671875	upper	../fonts/zerothre.ttf
1860302	WORD	wordpools/wasnorm_wordpool.txt	LTP103	ltpFR	0	11	0	GRADUATE	653	n/a	1	1	0.412841796875	0.57763671875	upper	../fonts/zerothre.ttf
1866096	REC_START	n/a	LTP103	ltpFR	0	11	n/a	n/a	n/a	n/a	n/a	n/a	n/a	n/a	n/a	n/a
1866320	REC_WORD	wordpools/wasnorm_wordpool.txt	LTP103	ltpFR	0	11	0	GRADUATE	653	n/a	1	n/a	n/a	n/a	n/a	n/a
1867178	REC_WORD	wordpools/wasnorm_wordpool.txt	LTP103	ltpFR	0	11	0	PROFESSIONAL	1130	n/a	1	n/a	n/a	n/a	n/a	n/a
1867985	REC_WORD	wordpools/wasnorm_wordpool.txt	LTP103	ltpFR	0	11	0	SHORTCAKE	1292	n/a	0	n/a	n/a	n/a	n/a	n/a
1870476	REC_WORD	wordpools/wasnorm_wordpool.txt	LTP103	ltpFR	0	11	0	RECIPE	1175	n/a	0	n/a	n/a	n/a	n/a	n/a
1873389	REC_WORD	wordpools/wasnorm_wordpool.txt	LTP103	ltpFR	0	11	0	VINE	1568	n/a	1	n/a	n/a	n/a	n/a	n/a
1952187	WORD	wordpools/wasnorm_wordpool.txt	LTP103	ltpFR	0	12	0	MUSEUM	933	n/a	1	1	0.412841796875	0.57763671875	upper	../fonts/zerothre.ttf
1956116	WORD	wordpools/wasnorm_wordpool.txt	LTP103	ltpFR	0	12	0	BRIDE	173	n/a	1	1	0.412841796875	0.57763671875	upper	../fonts/zerothre.ttf
1960003	WORD	wordpools/wasnorm_wordpool.txt	LTP103	ltpFR	0	12	0	BEARD	107	n/a	0	1	0.412841796875	0.57763671875	upper	../fonts/zerothre.ttf
1963898	WORD	wordpools/wasnorm_wordpool.txt	LTP103	ltpFR	0	12	0	CREATURE	403	n/a	0	1	0.412841796875	0.57763671875	upper	../fonts/zerothre.ttf
1967885	WORD	wordpools/wasnorm_wordpool.txt	LTP103	ltpFR	0	12	0	BEDROOM	111	n/a	1	1	0.412841796875	0.57763671875	upper	../fonts/zerothre.ttf
1971765	WORD	wordpools/wasnorm_wordpool.txt	LTP103	ltpFR	0	12	0	LOFT	840	n/a	1	1	0.412841796875	0.57763671875	upper	../fonts/zerothre.ttf
1975619	WORD	wordpools/wasnorm_wordpool.txt	LTP103	ltpFR	0	12	0	ROOF	1205	n/a	1	1	0.412841796875	0.57763671875	upper	../fonts/zerothre.ttf
1979464	WORD	wordpools/wasnorm_wordpool.txt	LTP103	ltpFR	0	12	0	NURSERY	964	n/a	1	1	0.412841796875	0.57763671875	upper	../fonts/zerothre.ttf
1983618	WORD	wordpools/wasnorm_wordpool.txt	LTP103	ltpFR	0	12	0	BUCKLE	185	n/a	0	1	0.412841796875	0.57763671875	upper	../fonts/zerothre.ttf
1987746	WORD	wordpools/wasnorm_wordpool.txt	LTP103	ltpFR	0	12	0	NOOSE	956	n/a	0	1	0.412841796875	0.57763671875	upper	../fonts/zerothre.ttf
1991792	WORD	wordpools/wasnorm_wordpool.txt	LTP103	ltpFR	0	12	0	FARMER	553	n/a	1	1	0.412841796875	0.57763671875	upper	../fonts/zerothre.ttf
1995986	WORD	wordpools/wasnorm_wordpool.txt	LTP103	ltpFR	0	12	0	FRECKLE	602	n/a	0	1	0.412841796875	0.57763671875	upper	../fonts/zerothre.ttf
2000106	WORD	wordpools/wasnorm_wordpool.txt	LTP103	ltpFR	0	12	0	COMPASS	358	n/a	0	1	0.412841796875	0.57763671875	upper	../fonts/zerothre.ttf
2004168	WORD	wordpools/wasnorm_wordpool.txt	LTP103	ltpFR	0	12	0	STEAM	1375	n/a	0	1	0.412841796875	0.57763671875	upper	../fonts/zerothre.ttf
2008331	WORD	wordpools/wasnorm_wordpool.txt	LTP103	ltpFR	0	12	0	TUB	1514	n/a	1	1	0.412841796875	0.57763671875	upper	../fonts/zerothre.ttf
2012242	WORD	wordpools/wasnorm_wordpool.txt	LTP103	ltpFR	0	12	0	ARTIST	43	n/a	1	1	0.412841796875	0.57763671875	upper	../fonts/zerothre.ttf
2018111	REC_START	n/a	LTP103	ltpFR	0	12	n/a	n/a	n/a	n/a	n/a	n/a	n/a	n/a	n/a	n/a
2019198	REC_WORD	wordpools/wasnorm_wordpool.txt	LTP103	ltpFR	0	12	0	ARTIST	43	n/a	1	n/a	n/a	n/a	n/a	n/a
2020091	REC_WORD	wordpools/wasnorm_wordpool.txt	LTP103	ltpFR	0	12	0	TUB	1514	n/a	1	n/a	n/a	n/a	n/a	n/a
2021069	REC_WORD	wordpools/wasnorm_wordpool.txt	LTP103	ltpFR	0	12	0	STEAM	1375	n/a	0	n/a	n/a	n/a	n/a	n/a
2024136	REC_WORD	wordpools/wasnorm_wordpool.txt	LTP103	ltpFR	0	12	0	FARMER	553	n/a	1	n/a	n/a	n/a	n/a	n/a
2093698	REST_REWET	n/a	LTP103	ltpFR	0	12	n/a	n/a	n/a	n/a	n/a	n/a	n/a	n/a	n/a	n/a
2321450	WORD	wordpools/wasnorm_wordpool.txt	LTP103	ltpFR	0	13	1	WASHER	1592	n/a	0	0	0.5869140625	0.422607421875	lower	../fonts/amplitud.ttf
2325654	WORD	wordpools/wasnorm_wordpool.txt	LTP103	ltpFR	0	13	1	CORN	381	n/a	0	0	0.5869140625	0.422607421875	lower	../fonts/amplitud.ttf
2329558	WORD	wordpools/wasnorm_wordpool.txt	LTP103	ltpFR	0	13	0	MEAT	883	n/a	0	1	0.412841796875	0.57763671875	upper	../fonts/zerothre.ttf
2333711	WORD	wordpools/wasnorm_wordpool.txt	LTP103	ltpFR	0	13	0	MOP	916	n/a	0	1	0.412841796875	0.57763671875	upper	../fonts/zerothre.ttf
2337523	WORD	wordpools/wasnorm_wordpool.txt	LTP103	ltpFR	0	13	0	CORK	380	n/a	0	1	0.412841796875	0.57763671875	upper	../fonts/zerothre.ttf
2341677	WORD	wordpools/wasnorm_wordpool.txt	LTP103	ltpFR	0	13	0	COB	334	n/a	0	1	0.412841796875	0.57763671875	upper	../fonts/zerothre.ttf
2345622	WORD	wordpools/wasnorm_wordpool.txt	LTP103	ltpFR	0	13	0	SERGEANT	1269	n/a	1	1	0.412841796875	0.57763671875	upper	../fonts/zerothre.ttf
2349551	WORD	wordpools/wasnorm_wordpool.txt	LTP103	ltpFR	0	13	1	FOLLOWER	589	n/a	1	0	0.5869140625	0.422607421875	lower	../fonts/amplitud.ttf
2353721	WORD	wordpools/wasnorm_wordpool.txt	LTP103	ltpFR	0	13	1	SINK	1309	n/a	0	0	0.5869140625	0.422607421875	lower	../fonts/amplitud.ttf
2357700	WORD	wordpools/wasnorm_wordpool.txt	LTP103	ltpFR	0	13	1	VIOLIN	1571	n/a	0	0	0.5869140625	0.422607421875	lower	../fonts/amplitud.ttf
2361762	WORD	wordpools/wasnorm_wordpool.txt	LTP103	ltpFR	0	13	0	ROSE	1212	n/a	0	1	0.412841796875	0.57763671875	upper	../fonts/zerothre.ttf
2365624	WORD	wordpools/wasnorm_wordpool.txt	LTP103	ltpFR	0	13	0	PLANT	1083	n/a	0	1	0.412841796875	0.57763671875	upper	../fonts/zerothre.ttf
2369478	WORD	wordpools/wasnorm_wordpool.txt	LTP103	ltpFR	0	13	0	SEAGULL	1261	n/a	1	1	0.412841796875	0.57763671875	upper	../fonts/zerothre.ttf
2373590	WORD	wordpools/wasnorm_wordpool.txt	LTP103	ltpFR	0	13	1	DESIGNER	451	n/a	1	0	0.5869140625	0.422607421875	lower	../fonts/amplitud.ttf
2377793	WORD	wordpools/wasnorm_wordpool.txt	LTP103	ltpFR	0	13	1	DICTATOR	462	n/a	1	0	0.5869140625	0.422607421875	lower	../fonts/amplitud.ttf
2381937	WORD	wordpools/wasnorm_wordpool.txt	LTP103	ltpFR	0	13	1	LEADER	807	n/a	1	0	0.5869140625	0.422607421875	lower	../fonts/amplitud.ttf
2387774	REC_START	n/a	LTP103	ltpFR	0	13	n/a	n/a	n/a	n/a	n/a	n/a	n/a	n/a	n/a	n/a
2388178	REC_WORD	wordpools/wasnorm_wordpool.txt	LTP103	ltpFR	0	13	1	LEADER	807	n/a	1	n/a	n/a	n/a	n/a	n/a
2389465	REC_WORD	wordpools/wasnorm_wordpool.txt	LTP103	ltpFR	0	13	1	DICTATOR	462	n/a	1	n/a	n/a	n/a	n/a	n/a
2392363	REC_WORD	wordpools/wasnorm_wordpool.txt	LTP103	ltpFR	0	13	0	SEAGULL	1261	n/a	1	n/a	n/a	n/a	n/a	n/a
2401059	REC_WORD	wordpools/wasnorm_wordpool.txt	LTP103	ltpFR	0	13	0	COB	334	n/a	0	n/a	n/a	n/a	n/a	n/a
2467830	WORD	wordpools/wasnorm_wordpool.txt	LTP103	ltpFR	0	14	0	TERMINAL	1450	n/a	1	1	0.412841796875	0.57763671875	upper	../fonts/zerothre.ttf
2471950	WORD	wordpools/wasnorm_wordpool.txt	LTP103	ltpFR	0	14	0	AIRPORT	13	n/a	1	1	0.412841796875	0.57763671875	upper	../fonts/zerothre.ttf
2475763	WORD	wordpools/wasnorm_wordpool.txt	LTP103	ltpFR	0	14	1	DIME	466	n/a	0	0	0.5869140625	0.422607421875	lower	../fonts/amplitud.ttf
2479882	WORD	wordpools/wasnorm_wordpool.txt	LTP103	ltpFR	0	14	1	TREASURE	1500	n/a	0	0	0.5869140625	0.422607421875	lower	../fonts/amplitud.ttf
2483829	WORD	wordpools/wasnorm_wordpool.txt	LTP103	ltpFR	0	14	1	SAW	1239	n/a	0	0	0.5869140625	0.422607421875	lower	../fonts/amplitud.ttf
2487774	WORD	wordpools/wasnorm_wordpool.txt	LTP103	ltpFR	0	14	0	EDITOR	516	n/a	1	1	0.412841796875	0.57763671875	upper	../fonts/zerothre.ttf
2491778	WORD	wordpools/wasnorm_wordpool.txt	LTP103	ltpFR	0	14	0	PRUNE	1134	n/a	1	1	0.412841796875	0.57763671875	upper	../fonts/zerothre.ttf
2495665	WORD	wordpools/wasnorm_wordpool.txt	LTP103	ltpFR	0	14	0	VACUUM	1543	n/a	1	1	0.412841796875	0.57763671875	upper	../fonts/zerothre.ttf
2499643	WORD	wordpools/wasnorm_wordpool.txt	LTP103	ltpFR	0	14	1	PUBLICATION	1136	n/a	0	0	0.5869140625	0.422607421875	lower	../fonts/amplitud.ttf
2503514	WORD	wordpools/wasnorm_wordpool.txt	LTP103	ltpFR	0	14	1	CEREAL	272	n/a	0	0	0.5869140625	0.422607421875	lower	../fonts/amplitud.ttf
2507434	WORD	wordpools/wasnorm_wordpool.txt	LTP103	ltpFR	0	14	1	CHEMIST	292	n/a	1	0	0.5869140625	0.422607421875	lower	../fonts/amplitud.ttf
2511438	WORD	wordpools/wasnorm_wordpool.txt	LTP103	ltpFR	0	14	1	COD	340	n/a	0	0	0.5869140625	0.422607421875	lower	../fonts/amplitud.ttf
2515508	WORD	wordpools/wasnorm_wordpool.txt	LTP103	ltpFR	0	14	1	PROTRACTOR	1133	n/a	1	0	0.5869140625	0.422607421875	lower	../fonts/amplitud.ttf
2519637	WORD	wordpools/wasnorm_wordpool.txt	LTP103	ltpFR	0	14	0	TOOL	1480	n/a	1	1	0.412841796875	0.57763671875	upper	../fonts/zerothre.ttf
2523499	WORD	wordpools/wasnorm_wordpool.txt	LTP103	ltpFR	0	14	0	WORM	1623	n/a	0	1	0.412841796875	0.57763671875	upper	../fonts/zerothre.ttf
2527694	WORD	wordpools/wasnorm_wordpool.txt	LTP103	ltpFR	0	14	0	GULL	671	n/a	0	1	0.412841796875	0.57763671875	upper	../fonts/zerothre.ttf
2533621	REC_START	n/a	LTP103	ltpFR	0	14	n/a	n/a	n/a	n/a	n/a	n/a	n/a	n/a	n/a	n/a
2533870	REC_WORD	wordpools/wasnorm_wordpool.txt	LTP103	ltpFR	0	14	0	GULL	671	n/a	0	n/a	n/a	n/a	n/a	n/a
2534404	REC_WORD	wordpools/wasnorm_wordpool.txt	LTP103	ltpFR	0	14	1	PROTRACTOR	1133	n/a	1	n/a	n/a	n/a	n/a	n/a
2535452	REC_WORD	wordpools/wasnorm_wordpool.txt	LTP103	ltpFR	0	14	0	TOOL	1480	n/a	1	n/a	n/a	n/a	n/a	n/a
2537781	REC_WORD	wordpools/wasnorm_wordpool.txt	LTP103	ltpFR	0	14	0	SEAGULL	1261	n/a	1	n/a	n/a	n/a	n/a	n/a
2539802	REC_WORD	wordpools/wasnorm_wordpool.txt	LTP103	ltpFR	0	14	0	COB	334	n/a	0	n/a	n/a	n/a	n/a	n/a
2621884	WORD	wordpools/wasnorm_wordpool.txt	LTP103	ltpFR	0	15	0	FROG	608	n/a	1	1	0.412841796875	0.57763671875	upper	../fonts/zerothre.ttf
2625822	WORD	wordpools/wasnorm_wordpool.txt	LTP103	ltpFR	0	15	0	TOURIST	1488	n/a	1	1	0.412841796875	0.57763671875	upper	../fonts/zerothre.ttf
2629974	WORD	wordpools/wasnorm_wordpool.txt	LTP103	ltpFR	0	15	1	ELBOW	520	n/a	0	0	0.5869140625	0.422607421875	lower	../fonts/amplitud.ttf
2633854	WORD	wordpools/wasnorm_wordpool.txt	LTP103	ltpFR	0	15	1	MONEY	908	n/a	0	0	0.5869140625	0.422607421875	lower	../fonts/amplitud.ttf
2637758	WORD	wordpools/wasnorm_wordpool.txt	LTP103	ltpFR	0	15	1	SUPPER	1411	n/a	0	0	0.5869140625	0.422607421875	lower	../fonts/amplitud.ttf
2641604	WORD	wordpools/wasnorm_wordpool.txt	LTP103	ltpFR	0	15	0	DISH	474	n/a	0	1	0.412841796875	0.57763671875	upper	../fonts/zerothre.ttf
2645424	WORD	wordpools/wasnorm_wordpool.txt	LTP103	ltpFR	0	15	0	FORK	594	n/a	0	1	0.412841796875	0.57763671875	upper	../fonts/zerothre.ttf
2649395	WORD	wordpools/wasnorm_wordpool.txt	LTP103	ltpFR	0	15	0	HATCHET	691	n/a	0	1	0.412841796875	0.57763671875	upper	../fonts/zerothre.ttf
2653415	WORD	wordpools/wasnorm_wordpool.txt	LTP103	ltpFR	0	15	0	CUSTARD	429	n/a	0	1	0.412841796875	0.57763671875	upper	../fonts/zerothre.ttf
2657276	WORD	wordpools/wasnorm_wordpool.txt	LTP103	ltpFR	0	15	0	TAPIOCA	1434	n/a	1	1	0.412841796875	0.57763671875	upper	../fonts/zerothre.ttf
2661439	WORD	wordpools/wasnorm_wordpool.txt	LTP103	ltpFR	0	15	0	BEAVER	109	n/a	1	1	0.412841796875	0.57763671875	upper	../fonts/zerothre.ttf
2665318	WORD	wordpools/wasnorm_wordpool.txt	LTP103	ltpFR	0	15	1	SLEEVE	1324	n/a	0	0	0.5869140625	0.422607421875	lower	../fonts/amplitud.ttf
2669330	WORD	wordpools/wasnorm_wordpool.txt	LTP103	ltpFR	0	15	1	NOMAD	955	n/a	1	0	0.5869140625	0.422607421875	lower	../fonts/amplitud.ttf
2673282	WORD	wordpools/wasnorm_wordpool.txt	LTP103	ltpFR	0	15	1	BEAST	108	n/a	1	0	0.5869140625	0.422607421875	lower	../fonts/amplitud.ttf
2677303	WORD	wordpools/wasnorm_wordpool.txt	LTP103	ltpFR	0	15	1	RAM	1165	n/a	1	0	0.5869140625	0.422607421875	lower	../fonts/amplitud.ttf
2681182	WORD	wordpools/wasnorm_wordpool.txt	LTP103	ltpFR	0	15	1	BULLETIN	195	n/a	0	0	0.5869140625	0.422607421875	lower	../fonts/amplitud.ttf
2686794	REC_START	n/a	LTP103	ltpFR	0	15	n/a	n/a	n/a	n/a	n/a	n/a	n/a	n/a	n/a	n/a
2687193	REC_WORD	wordpools/wasnorm_wordpool.txt	LTP103	ltpFR	0	15	1	BULLETIN	195	n/a	0	n/a	n/a	n/a	n/a	n/a
2687916	REC_WORD	wordpools/wasnorm_wordpool.txt	LTP103	ltpFR	0	15	1	NOMAD	955	n/a	1	n/a	n/a	n/a	n/a	n/a
2689602	REC_WORD	wordpools/wasnorm_wordpool.txt	LTP103	ltpFR	0	15	1	RAM	1165	n/a	1	n/a	n/a	n/a	n/a	n/a
2791862	WORD	wordpools/wasnorm_wordpool.txt	LTP103	ltpFR	0	16	1	HAWK	692	n/a	1	0	0.5869140625	0.422607421875	lower	../fonts/amplitud.ttf
2795898	WORD	wordpools/wasnorm_wordpool.txt	LTP103	ltpFR	0	16	1	PREACHER	1119	n/a	1	0	0.5869140625	0.422607421875	lower	../fonts/amplitud.ttf
2799753	WORD	wordpools/wasnorm_wordpool.txt	LTP103	ltpFR	0	16	1	MISTER	901	n/a	1	0	0.5869140625	0.422607421875	lower	../fonts/amplitud.ttf
2803624	WORD	wordpools/wasnorm_wordpool.txt	LTP103	ltpFR	0	16	1	GENTLEMAN	631	n/a	1	0	0.5869140625	0.422607421875	lower	../fonts/amplitud.ttf
2807652	WORD	wordpools/wasnorm_wordpool.txt	LTP103	ltpFR	0	16	1	STOVE	1388	n/a	0	0	0.5869140625	0.422607421875	lower	../fonts/amplitud.ttf
2811523	WORD	wordpools/wasnorm_wordpool.txt	LTP103	ltpFR	0	16	1	SPATULA	1348	n/a	0	0	0.5869140625	0.422607421875	lower	../fonts/amplitud.ttf
2815452	WORD	wordpools/wasnorm_wordpool.txt	LTP103	ltpFR	0	16	0	PRIEST	1122	n/a	1	1	0.412841796875	0.57763671875	upper	../fonts/zerothre.ttf
2819555	WORD	wordpools/wasnorm_wordpool.txt	LTP103	ltpFR	0	16	0	SHARK	1275	n/a	1	1	0.412841796875	0.57763671875	upper	../fonts/zerothre.ttf
2823625	WORD	wordpools/wasnorm_wordpool.txt	LTP103	ltpFR	0	16	0	CARROT	249	n/a	0	1	0.412841796875	0.57763671875	upper	../fonts/zerothre.ttf
2827588	WORD	wordpools/wasnorm_wordpool.txt	LTP103	ltpFR	0	16	1	TOMATO	1476	n/a	1	0	0.5869140625	0.422607421875	lower	../fonts/amplitud.ttf
2831733	WORD	wordpools/wasnorm_wordpool.txt	LTP103	ltpFR	0	16	1	NECK	939	n/a	0	0	0.5869140625	0.422607421875	lower	../fonts/amplitud.ttf
2835902	WORD	wordpools/wasnorm_wordpool.txt	LTP103	ltpFR	0	16	0	BADGE	68	n/a	0	1	0.412841796875	0.57763671875	upper	../fonts/zerothre.ttf
2840014	WORD	wordpools/wasnorm_wordpool.txt	LTP103	ltpFR	0	16	0	CAPTIVE	240	n/a	0	1	0.412841796875	0.57763671875	upper	../fonts/zerothre.ttf
2844184	WORD	wordpools/wasnorm_wordpool.txt	LTP103	ltpFR	0	16	0	SEA	1259	n/a	1	1	0.412841796875	0.57763671875	upper	../fonts/zerothre.ttf
2848388	WORD	wordpools/wasnorm_wordpool.txt	LTP103	ltpFR	0	16	0	SHEEP	1278	n/a	1	1	0.412841796875	0.57763671875	upper	../fonts/zerothre.ttf
2852400	WORD	wordpools/wasnorm_wordpool.txt	LTP103	ltpFR	0	16	0	FOREHEAD	592	n/a	0	1	0.412841796875	0.57763671875	upper	../fonts/zerothre.ttf
2858194	REC_START	n/a	LTP103	ltpFR	0	16	n/a	n/a	n/a	n/a	n/a	n/a	n/a	n/a	n/a	n/a
2858727	REC_WORD	wordpools/wasnorm_wordpool.txt	LTP103	ltpFR	0	16	0	FOREHEAD	592	n/a	0	n/a	n/a	n/a	n/a	n/a
2859566	REC_WORD	wordpools/wasnorm_wordpool.txt	LTP103	ltpFR	0	16	0	SHEEP	1278	n/a	1	n/a	n/a	n/a	n/a	n/a
2860943	REC_WORD	wordpools/wasnorm_wordpool.txt	LTP103	ltpFR	0	16	0	SEA	1259	n/a	1	n/a	n/a	n/a	n/a	n/a
2872117	REC_WORD	wordpools/wasnorm_wordpool.txt	LTP103	ltpFR	0	16	1	TOMATO	1476	n/a	1	n/a	n/a	n/a	n/a	n/a
2993438	REC_START	n/a	LTP103	ltpFR	0	n/a	n/a	n/a	n/a	n/a	n/a	n/a	n/a	n/a	n/a	n/a
2995249	FFR_REC_WORD	wordpools/wasnorm_wordpool.txt	LTP103	ltpFR	0	n/a	0	BUFFALO	186	n/a	1	n/a	n/a	n/a	n/a	n/a
3002308	FFR_REC_WORD	wordpools/wasnorm_wordpool.txt	LTP103	ltpFR	0	n/a	-1	STUDENT	1395	n/a	-1	n/a	n/a	n/a	n/a	n/a
3003295	FFR_REC_WORD	wordpools/wasnorm_wordpool.txt	LTP103	ltpFR	0	n/a	-1	PROFESSOR	1131	n/a	-1	n/a	n/a	n/a	n/a	n/a
3004458	FFR_REC_WORD	wordpools/wasnorm_wordpool.txt	LTP103	ltpFR	0	n/a	-1	SCHOOL	1248	n/a	-1	n/a	n/a	n/a	n/a	n/a
3009416	FFR_REC_WORD	wordpools/wasnorm_wordpool.txt	LTP103	ltpFR	0	n/a	n/a	BAT	-1	n/a	n/a	n/a	n/a	n/a	n/a	n/a
3013437	FFR_REC_WORD	wordpools/wasnorm_wordpool.txt	LTP103	ltpFR	0	n/a	0	BEAVER	109	n/a	1	n/a	n/a	n/a	n/a	n/a
3014370	FFR_REC_WORD	wordpools/wasnorm_wordpool.txt	LTP103	ltpFR	0	n/a	1	OTTER	986	n/a	1	n/a	n/a	n/a	n/a	n/a
3016780	FFR_REC_WORD	wordpools/wasnorm_wordpool.txt	LTP103	ltpFR	0	n/a	1	WRIST	1626	n/a	0	n/a	n/a	n/a	n/a	n/a
3017837	FFR_REC_WORD	wordpools/wasnorm_wordpool.txt	LTP103	ltpFR	0	n/a	0	RIB	1188	n/a	1	n/a	n/a	n/a	n/a	n/a
3027865	FFR_REC_WORD	wordpools/wasnorm_wordpool.txt	LTP103	ltpFR	0	n/a	0	DIARY	460	n/a	0	n/a	n/a	n/a	n/a	n/a
3030638	FFR_REC_WORD	wordpools/wasnorm_wordpool.txt	LTP103	ltpFR	0	n/a	0	RECIPE	1175	n/a	0	n/a	n/a	n/a	n/a	n/a
3033302	FFR_REC_WORD	wordpools/wasnorm_wordpool.txt	LTP103	ltpFR	0	n/a	0	PHILOSOPHER	1054	n/a	1	n/a	n/a	n/a	n/a	n/a
3035218	FFR_REC_WORD	wordpools/wasnorm_wordpool.txt	LTP103	ltpFR	0	n/a	1	TECHNICIAN	1443	n/a	1	n/a	n/a	n/a	n/a	n/a
3036345	FFR_REC_WORD	wordpools/wasnorm_wordpool.txt	LTP103	ltpFR	0	n/a	0	ELECTRICIAN	521	n/a	1	n/a	n/a	n/a	n/a	n/a
3039907	FFR_REC_WORD	wordpools/wasnorm_wordpool.txt	LTP103	ltpFR	0	n/a	0	SEA	1259	n/a	1	n/a	n/a	n/a	n/a	n/a
3041314	FFR_REC_WORD	wordpools/wasnorm_wordpool.txt	LTP103	ltpFR	0	n/a	1	BAY	102	n/a	0	n/a	n/a	n/a	n/a	n/a
3043738	FFR_REC_WORD	wordpools/wasnorm_wordpool.txt	LTP103	ltpFR	0	n/a	0	COB	334	n/a	0	n/a	n/a	n/a	n/a	n/a
3045180	FFR_REC_WORD	wordpools/wasnorm_wordpool.txt	LTP103	ltpFR	0	n/a	1	COD	340	n/a	0	n/a	n/a	n/a	n/a	n/a
3051740	FFR_REC_WORD	wordpools/wasnorm_wordpool.txt	LTP103	ltpFR	0	n/a	1	TOMATO	1476	n/a	1	n/a	n/a	n/a	n/a	n/a
3079926	FFR_REC_WORD	wordpools/wasnorm_wordpool.txt	LTP103	ltpFR	0	n/a	-1	PICNIC	1060	n/a	-1	n/a	n/a	n/a	n/a	n/a
3082386	FFR_REC_WORD	wordpools/wasnorm_wordpool.txt	LTP103	ltpFR	0	n/a	-1	SUNSET	1408	n/a	-1	n/a	n/a	n/a	n/a	n/a
3102071	FFR_REC_WORD	wordpools/wasnorm_wordpool.txt	LTP103	ltpFR	0	n/a	n/a	POND	1101	n/a	n/a	n/a	n/a	n/a	n/a	n/a
3106491	FFR_REC_WORD	wordpools/wasnorm_wordpool.txt	LTP103	ltpFR	0	n/a	-1	SCHOOL	1248	n/a	-1	n/a	n/a	n/a	n/a	n/a
3123906	FFR_REC_WORD	wordpools/wasnorm_wordpool.txt	LTP103	ltpFR	0	n/a	0	AIRPORT	13	n/a	1	n/a	n/a	n/a	n/a	n/a
3124734	FFR_REC_WORD	wordpools/wasnorm_wordpool.txt	LTP103	ltpFR	0	n/a	0	TERMINAL	1450	n/a	1	n/a	n/a	n/a	n/a	n/a
3180523	FFR_REC_WORD	wordpools/wasnorm_wordpool.txt	LTP103	ltpFR	0	n/a	1	GIRAFFE	636	n/a	1	n/a	n/a	n/a	n/a	n/a
3190714	FFR_REC_WORD	wordpools/wasnorm_wordpool.txt	LTP103	ltpFR	0	n/a	0	VINE	1568	n/a	1	n/a	n/a	n/a	n/a	n/a
3438405	REC_START	n/a	LTP103	ltpFR	0	1	n/a	n/a	n/a	n/a	n/a	n/a	n/a	n/a	n/a	n/a
3438436	RECOG_LURE	n/a	LTP103	ltpFR	0	1	n/a	GENERAL	630	3	n/a	n/a	n/a	n/a	n/a	n/a
3440695	RECOG_RESP	n/a	LTP103	ltpFR	0	1	n/a	GENERAL	630	n/a	n/a	n/a	n/a	n/a	n/a	n/a
3442441	RECOG_CONF	n/a	LTP103	ltpFR	0	1	n/a	GENERAL	630	3	n/a	n/a	n/a	n/a	n/a	n/a
3444704	RECOG_TARGET	n/a	LTP103	ltpFR	0	1	-1	NOTE	958	2	-1	n/a	n/a	n/a	n/a	n/a
3446142	RECOG_RESP	n/a	LTP103	ltpFR	0	1	-1	NOTE	958	n/a	-1	n/a	n/a	n/a	n/a	n/a
3448218	RECOG_CONF	n/a	LTP103	ltpFR	0	1	-1	NOTE	958	2	-1	n/a	n/a	n/a	n/a	n/a
3450047	RECOG_TARGET	n/a	LTP103	ltpFR	0	1	-1	REPORT	1184	2	-1	n/a	n/a	n/a	n/a	n/a
3452697	RECOG_RESP	n/a	LTP103	ltpFR	0	1	-1	REPORT	1184	n/a	-1	n/a	n/a	n/a	n/a	n/a
3454823	RECOG_CONF	n/a	LTP103	ltpFR	0	1	-1	REPORT	1184	2	-1	n/a	n/a	n/a	n/a	n/a
3456407	RECOG_TARGET	n/a	LTP103	ltpFR	0	1	0	NOOSE	956	1	0	n/a	n/a	n/a	n/a	n/a
3459622	RECOG_RESP	n/a	LTP103	ltpFR	0	1	0	NOOSE	956	n/a	0	n/a	n/a	n/a	n/a	n/a
3461517	RECOG_CONF	n/a	LTP103	ltpFR	0	1	0	NOOSE	956	1	0	n/a	n/a	n/a	n/a	n/a
3463382	RECOG_TARGET	n/a	LTP103	ltpFR	0	1	0	FRECKLE	602	2	0	n/a	n/a	n/a	n/a	n/a
3466117	RECOG_RESP	n/a	LTP103	ltpFR	0	1	0	FRECKLE	602	n/a	0	n/a	n/a	n/a	n/a	n/a
3467863	RECOG_CONF	n/a	LTP103	ltpFR	0	1	0	FRECKLE	602	2	0	n/a	n/a	n/a	n/a	n/a
3469575	RECOG_TARGET	n/a	LTP103	ltpFR	0	1	-1	PITCHFORK	1078	3	-1	n/a	n/a	n/a	n/a	n/a
3472233	RECOG_RESP	n/a	LTP103	ltpFR	0	1	-1	PITCHFORK	1078	n/a	-1	n/a	n/a	n/a	n/a	n/a
3473949	RECOG_CONF	n/a	LTP103	ltpFR	0	1	-1	PITCHFORK	1078	3	-1	n/a	n/a	n/a	n/a	n/a
3475485	RECOG_LURE	n/a	LTP103	ltpFR	0	1	n/a	CITY	314	4	n/a	n/a	n/a	n/a	n/a	n/a
3476982	RECOG_RESP	n/a	LTP103	ltpFR	0	1	n/a	CITY	314	n/a	n/a	n/a	n/a	n/a	n/a	n/a
3478588	RECOG_CONF	n/a	LTP103	ltpFR	0	1	n/a	CITY	314	4	n/a	n/a	n/a	n/a	n/a	n/a
3480287	RECOG_LURE	n/a	LTP103	ltpFR	0	1	n/a	BANKER	84	5	n/a	n/a	n/a	n/a	n/a	n/a
3482749	RECOG_RESP	n/a	LTP103	ltpFR	0	1	n/a	BANKER	84	n/a	n/a	n/a	n/a	n/a	n/a	n/a
3484016	RECOG_CONF	n/a	LTP103	ltpFR	0	1	n/a	BANKER	84	5	n/a	n/a	n/a	n/a	n/a	n/a
3485498	RECOG_LURE	n/a	LTP103	ltpFR	0	1	n/a	COLLAR	345	2	n/a	n/a	n/a	n/a	n/a	n/a
3490112	RECOG_RESP	n/a	LTP103	ltpFR	0	1	n/a	COLLAR	345	n/a	n/a	n/a	n/a	n/a	n/a	n/a
3491479	RECOG_CONF	n/a	LTP103	ltpFR	0	1	n/a	COLLAR	345	2	n/a	n/a	n/a	n/a	n/a	n/a
3493105	RECOG_TARGET	n/a	LTP103	ltpFR	0	1	1	CAT	257	3	1	n/a	n/a	n/a	n/a	n/a
3495670	RECOG_RESP	n/a	LTP103	ltpFR	0	1	1	CAT	257	n/a	1	n/a	n/a	n/a	n/a	n/a
3497186	RECOG_CONF	n/a	LTP103	ltpFR	0	1	1	CAT	257	3	1	n/a	n/a	n/a	n/a	n/a
3498858	RECOG_LURE	n/a	LTP103	ltpFR	0	1	n/a	GIRL	637	2	n/a	n/a	n/a	n/a	n/a	n/a
3501437	RECOG_RESP	n/a	LTP103	ltpFR	0	1	n/a	GIRL	637	n/a	n/a	n/a	n/a	n/a	n/a	n/a
3503731	RECOG_CONF	n/a	LTP103	ltpFR	0	1	n/a	GIRL	637	2	n/a	n/a	n/a	n/a	n/a	n/a
3505350	RECOG_LURE	n/a	LTP103	ltpFR	0	1	n/a	KNOT	788	3	n/a	n/a	n/a	n/a	n/a	n/a
3508032	RECOG_RESP	n/a	LTP103	ltpFR	0	1	n/a	KNOT	788	n/a	n/a	n/a	n/a	n/a	n/a	n/a
3509139	RECOG_CONF	n/a	LTP103	ltpFR	0	1	n/a	KNOT	788	3	n/a	n/a	n/a	n/a	n/a	n/a
3510619	RECOG_TARGET	n/a	LTP103	ltpFR	0	1	0	VINE	1568	5	1	n/a	n/a	n/a	n/a	n/a
3512501	RECOG_RESP	n/a	LTP103	ltpFR	0	1	0	VINE	1568	n/a	1	n/a	n/a	n/a	n/a	n/a
3513759	RECOG_CONF	n/a	LTP103	ltpFR	0	1	0	VINE	1568	5	1	n/a	n/a	n/a	n/a	n/a
3515204	RECOG_TARGET	n/a	LTP103	ltpFR	0	1	1	PLUTO	1092	4	0	n/a	n/a	n/a	n/a	n/a
3516911	RECOG_RESP	n/a	LTP103	ltpFR	0	1	1	PLUTO	1092	n/a	0	n/a	n/a	n/a	n/a	n/a
3518598	RECOG_CONF	n/a	LTP103	ltpFR	0	1	1	PLUTO	1092	4	0	n/a	n/a	n/a	n/a	n/a
3520015	RECOG_LURE	n/a	LTP103	ltpFR	0	1	n/a	SALESMAN	1225	3	n/a	n/a	n/a	n/a	n/a	n/a
3522828	RECOG_RESP	n/a	LTP103	ltpFR	0	1	n/a	SALESMAN	1225	n/a	n/a	n/a	n/a	n/a	n/a	n/a
3524145	RECOG_CONF	n/a	LTP103	ltpFR	0	1	n/a	SALESMAN	1225	3	n/a	n/a	n/a	n/a	n/a	n/a
3526267	RECOG_LURE	n/a	LTP103	ltpFR	0	1	n/a	SMOG	1330	4	n/a	n/a	n/a	n/a	n/a	n/a
3527597	RECOG_RESP	n/a	LTP103	ltpFR	0	1	n/a	SMOG	1330	n/a	n/a	n/a	n/a	n/a	n/a	n/a
3529393	RECOG_CONF	n/a	LTP103	ltpFR	0	1	n/a	SMOG	1330	4	n/a	n/a	n/a	n/a	n/a	n/a
3531169	RECOG_LURE	n/a	LTP103	ltpFR	0	1	n/a	DOUGH	489	3	n/a	n/a	n/a	n/a	n/a	n/a
3532775	RECOG_RESP	n/a	LTP103	ltpFR	0	1	n/a	DOUGH	489	n/a	n/a	n/a	n/a	n/a	n/a	n/a
3534402	RECOG_CONF	n/a	LTP103	ltpFR	0	1	n/a	DOUGH	489	3	n/a	n/a	n/a	n/a	n/a	n/a
3536022	RECOG_TARGET	n/a	LTP103	ltpFR	0	1	0	GRADUATE	653	5	1	n/a	n/a	n/a	n/a	n/a
3537993	RECOG_RESP	n/a	LTP103	ltpFR	0	1	0	GRADUATE	653	n/a	1	n/a	n/a	n/a	n/a	n/a
3539500	RECOG_CONF	n/a	LTP103	ltpFR	0	1	0	GRADUATE	653	5	1	n/a	n/a	n/a	n/a	n/a
3540925	RECOG_LURE	n/a	LTP103	ltpFR	0	1	n/a	DEER	444	3	n/a	n/a	n/a	n/a	n/a	n/a
3543162	RECOG_RESP	n/a	LTP103	ltpFR	0	1	n/a	DEER	444	n/a	n/a	n/a	n/a	n/a	n/a	n/a
3545218	RECOG_CONF	n/a	LTP103	ltpFR	0	1	n/a	DEER	444	3	n/a	n/a	n/a	n/a	n/a	n/a
3546469	RECOG_LURE	n/a	LTP103	ltpFR	0	1	n/a	IGLOO	734	4	n/a	n/a	n/a	n/a	n/a	n/a
3547701	RECOG_RESP	n/a	LTP103	ltpFR	0	1	n/a	IGLOO	734	n/a	n/a	n/a	n/a	n/a	n/a	n/a
3549517	RECOG_CONF	n/a	LTP103	ltpFR	0	1	n/a	IGLOO	734	4	n/a	n/a	n/a	n/a	n/a	n/a
3560480	REC_START	n/a	LTP103	ltpFR	0	2	n/a	n/a	n/a	n/a	n/a	n/a	n/a	n/a	n/a	n/a
3560511	RECOG_LURE	n/a	LTP103	ltpFR	0	2	n/a	HOSTESS	723	2	n/a	n/a	n/a	n/a	n/a	n/a
3561852	RECOG_RESP	n/a	LTP103	ltpFR	0	2	n/a	HOSTESS	723	n/a	n/a	n/a	n/a	n/a	n/a	n/a
3562949	RECOG_CONF	n/a	LTP103	ltpFR	0	2	n/a	HOSTESS	723	2	n/a	n/a	n/a	n/a	n/a	n/a
3564656	RECOG_TARGET	n/a	LTP103	ltpFR	0	2	1	RESORT	1186	3	0	n/a	n/a	n/a	n/a	n/a
3566441	RECOG_RESP	n/a	LTP103	ltpFR	0	2	1	RESORT	1186	n/a	0	n/a	n/a	n/a	n/a	n/a
3568088	RECOG_CONF	n/a	LTP103	ltpFR	0	2	1	RESORT	1186	3	0	n/a	n/a	n/a	n/a	n/a
3569634	RECOG_LURE	n/a	LTP103	ltpFR	0	2	n/a	BOXER	160	2	n/a	n/a	n/a	n/a	n/a	n/a
3571590	RECOG_RESP	n/a	LTP103	ltpFR	0	2	n/a	BOXER	160	n/a	n/a	n/a	n/a	n/a	n/a	n/a
3572637	RECOG_CONF	n/a	LTP103	ltpFR	0	2	n/a	BOXER	160	2	n/a	n/a	n/a	n/a	n/a	n/a
3574169	RECOG_TARGET	n/a	LTP103	ltpFR	0	2	-1	BASEBALL	93	4	-1	n/a	n/a	n/a	n/a	n/a
3575960	RECOG_RESP	n/a	LTP103	ltpFR	0	2	-1	BASEBALL	93	n/a	-1	n/a	n/a	n/a	n/a	n/a
3577087	RECOG_CONF	n/a	LTP103	ltpFR	0	2	-1	BASEBALL	93	4	-1	n/a	n/a	n/a	n/a	n/a
3578573	RECOG_LURE	n/a	LTP103	ltpFR	0	2	n/a	UMPIRE	1535	3	n/a	n/a	n/a	n/a	n/a	n/a
3580290	RECOG_RESP	n/a	LTP103	ltpFR	0	2	n/a	UMPIRE	1535	n/a	n/a	n/a	n/a	n/a	n/a	n/a
3581647	RECOG_CONF	n/a	LTP103	ltpFR	0	2	n/a	UMPIRE	1535	3	n/a	n/a	n/a	n/a	n/a	n/a
3583134	RECOG_TARGET	n/a	LTP103	ltpFR	0	2	0	CREATURE	403	5	0	n/a	n/a	n/a	n/a	n/a
3585937	RECOG_RESP	n/a	LTP103	ltpFR	0	2	0	CREATURE	403	n/a	0	n/a	n/a	n/a	n/a	n/a
3587114	RECOG_CONF	n/a	LTP103	ltpFR	0	2	0	CREATURE	403	5	0	n/a	n/a	n/a	n/a	n/a
3588487	RECOG_TARGET	n/a	LTP103	ltpFR	0	2	0	COB	334	5	0	n/a	n/a	n/a	n/a	n/a
3589698	RECOG_RESP	n/a	LTP103	ltpFR	0	2	0	COB	334	n/a	0	n/a	n/a	n/a	n/a	n/a
3590566	RECOG_CONF	n/a	LTP103	ltpFR	0	2	0	COB	334	5	0	n/a	n/a	n/a	n/a	n/a
3591866	RECOG_LURE	n/a	LTP103	ltpFR	0	2	n/a	TOTE	1487	2	n/a	n/a	n/a	n/a	n/a	n/a
3593250	RECOG_RESP	n/a	LTP103	ltpFR	0	2	n/a	TOTE	1487	n/a	n/a	n/a	n/a	n/a	n/a	n/a
3594478	RECOG_CONF	n/a	LTP103	ltpFR	0	2	n/a	TOTE	1487	2	n/a	n/a	n/a	n/a	n/a	n/a
3595969	RECOG_LURE	n/a	LTP103	ltpFR	0	2	n/a	MOSQUITO	917	3	n/a	n/a	n/a	n/a	n/a	n/a
3597920	RECOG_RESP	n/a	LTP103	ltpFR	0	2	n/a	MOSQUITO	917	n/a	n/a	n/a	n/a	n/a	n/a	n/a
3599127	RECOG_CONF	n/a	LTP103	ltpFR	0	2	n/a	MOSQUITO	917	3	n/a	n/a	n/a	n/a	n/a	n/a
3600281	RECOG_LURE	n/a	LTP103	ltpFR	0	2	n/a	GLACIER	638	2	n/a	n/a	n/a	n/a	n/a	n/a
3602449	RECOG_RESP	n/a	LTP103	ltpFR	0	2	n/a	GLACIER	638	n/a	n/a	n/a	n/a	n/a	n/a	n/a
3605044	RECOG_CONF	n/a	LTP103	ltpFR	0	2	n/a	GLACIER	638	2	n/a	n/a	n/a	n/a	n/a	n/a
3606240	RECOG_LURE	n/a	LTP103	ltpFR	0	2	n/a	BALLERINA	74	4	n/a	n/a	n/a	n/a	n/a	n/a
3608805	RECOG_RESP	n/a	LTP103	ltpFR	0	2	n/a	BALLERINA	74	n/a	n/a	n/a	n/a	n/a	n/a	n/a
3610900	RECOG_CONF	n/a	LTP103	ltpFR	0	2	n/a	BALLERINA	74	4	n/a	n/a	n/a	n/a	n/a	n/a
3612292	RECOG_TARGET	n/a	LTP103	ltpFR	0	2	0	BUFFALO	186	5	1	n/a	n/a	n/a	n/a	n/a
3613834	RECOG_RESP	n/a	LTP103	ltpFR	0	2	0	BUFFALO	186	n/a	1	n/a	n/a	n/a	n/a	n/a
3615580	RECOG_CONF	n/a	LTP103	ltpFR	0	2	0	BUFFALO	186	5	1	n/a	n/a	n/a	n/a	n/a
3616945	RECOG_LURE	n/a	LTP103	ltpFR	0	2	n/a	ASSISTANT	48	4	n/a	n/a	n/a	n/a	n/a	n/a
3618373	RECOG_RESP	n/a	LTP103	ltpFR	0	2	n/a	ASSISTANT	48	n/a	n/a	n/a	n/a	n/a	n/a	n/a
3620738	RECOG_CONF	n/a	LTP103	ltpFR	0	2	n/a	ASSISTANT	48	4	n/a	n/a	n/a	n/a	n/a	n/a
3622039	RECOG_TARGET	n/a	LTP103	ltpFR	0	2	1	TROUT	1511	2	1	n/a	n/a	n/a	n/a	n/a
3624370	RECOG_RESP	n/a	LTP103	ltpFR	0	2	1	TROUT	1511	n/a	1	n/a	n/a	n/a	n/a	n/a
3625717	RECOG_CONF	n/a	LTP103	ltpFR	0	2	1	TROUT	1511	2	1	n/a	n/a	n/a	n/a	n/a
3627733	RECOG_LURE	n/a	LTP103	ltpFR	0	2	n/a	BALLOON	75	3	n/a	n/a	n/a	n/a	n/a	n/a
3629797	RECOG_RESP	n/a	LTP103	ltpFR	0	2	n/a	BALLOON	75	n/a	n/a	n/a	n/a	n/a	n/a	n/a
3631693	RECOG_CONF	n/a	LTP103	ltpFR	0	2	n/a	BALLOON	75	3	n/a	n/a	n/a	n/a	n/a	n/a
3633192	RECOG_TARGET	n/a	LTP103	ltpFR	0	2	1	WHALE	1601	4	1	n/a	n/a	n/a	n/a	n/a
3634966	RECOG_RESP	n/a	LTP103	ltpFR	0	2	1	WHALE	1601	n/a	1	n/a	n/a	n/a	n/a	n/a
3637011	RECOG_CONF	n/a	LTP103	ltpFR	0	2	1	WHALE	1601	4	1	n/a	n/a	n/a	n/a	n/a
3638670	RECOG_TARGET	n/a	LTP103	ltpFR	0	2	0	SERGEANT	1269	4	1	n/a	n/a	n/a	n/a	n/a
3640134	RECOG_RESP	n/a	LTP103	ltpFR	0	2	0	SERGEANT	1269	n/a	1	n/a	n/a	n/a	n/a	n/a
3642059	RECOG_CONF	n/a	LTP103	ltpFR	0	2	0	SERGEANT	1269	4	1	n/a	n/a	n/a	n/a	n/a
3643540	RECOG_TARGET	n/a	LTP103	ltpFR	0	2	0	TOURIST	1488	4	1	n/a	n/a	n/a	n/a	n/a
3646030	RECOG_RESP	n/a	LTP103	ltpFR	0	2	0	TOURIST	1488	n/a	1	n/a	n/a	n/a	n/a	n/a
3647407	RECOG_CONF	n/a	LTP103	ltpFR	0	2	0	TOURIST	1488	4	1	n/a	n/a	n/a	n/a	n/a
3648800	RECOG_LURE	n/a	LTP103	ltpFR	0	2	n/a	PIER	1063	2	n/a	n/a	n/a	n/a	n/a	n/a
3651942	RECOG_RESP	n/a	LTP103	ltpFR	0	2	n/a	PIER	1063	n/a	n/a	n/a	n/a	n/a	n/a	n/a
3653543	RECOG_CONF	n/a	LTP103	ltpFR	0	2	n/a	PIER	1063	2	n/a	n/a	n/a	n/a	n/a	n/a
3655275	RECOG_LURE	n/a	LTP103	ltpFR	0	2	n/a	SAUCER	1237	3	n/a	n/a	n/a	n/a	n/a	n/a
3656786	RECOG_RESP	n/a	LTP103	ltpFR	0	2	n/a	SAUCER	1237	n/a	n/a	n/a	n/a	n/a	n/a	n/a
3658462	RECOG_CONF	n/a	LTP103	ltpFR	0	2	n/a	SAUCER	1237	3	n/a	n/a	n/a	n/a	n/a	n/a
3698297	REC_START	n/a	LTP103	ltpFR	0	3	n/a	n/a	n/a	n/a	n/a	n/a	n/a	n/a	n/a	n/a
3698326	RECOG_TARGET	n/a	LTP103	ltpFR	0	3	1	TREASURE	1500	2	0	n/a	n/a	n/a	n/a	n/a
3699499	RECOG_RESP	n/a	LTP103	ltpFR	0	3	1	TREASURE	1500	n/a	0	n/a	n/a	n/a	n/a	n/a
3701046	RECOG_CONF	n/a	LTP103	ltpFR	0	3	1	TREASURE	1500	2	0	n/a	n/a	n/a	n/a	n/a
3702496	RECOG_LURE	n/a	LTP103	ltpFR	0	3	n/a	BALLOT	76	3	n/a	n/a	n/a	n/a	n/a	n/a
3704627	RECOG_RESP	n/a	LTP103	ltpFR	0	3	n/a	BALLOT	76	n/a	n/a	n/a	n/a	n/a	n/a	n/a
3706334	RECOG_CONF	n/a	LTP103	ltpFR	0	3	n/a	BALLOT	76	3	n/a	n/a	n/a	n/a	n/a	n/a
3707649	RECOG_LURE	n/a	LTP103	ltpFR	0	3	n/a	RUBY	1214	5	n/a	n/a	n/a	n/a	n/a	n/a
3709137	RECOG_RESP	n/a	LTP103	ltpFR	0	3	n/a	RUBY	1214	n/a	n/a	n/a	n/a	n/a	n/a	n/a
3710454	RECOG_CONF	n/a	LTP103	ltpFR	0	3	n/a	RUBY	1214	5	n/a	n/a	n/a	n/a	n/a	n/a
3711819	RECOG_LURE	n/a	LTP103	ltpFR	0	3	n/a	ZUCCHINI	1638	5	n/a	n/a	n/a	n/a	n/a	n/a
3712869	RECOG_RESP	n/a	LTP103	ltpFR	0	3	n/a	ZUCCHINI	1638	n/a	n/a	n/a	n/a	n/a	n/a	n/a
3714685	RECOG_CONF	n/a	LTP103	ltpFR	0	3	n/a	ZUCCHINI	1638	5	n/a	n/a	n/a	n/a	n/a	n/a
3716405	RECOG_LURE	n/a	LTP103	ltpFR	0	3	n/a	MOAT	903	5	n/a	n/a	n/a	n/a	n/a	n/a
3717778	RECOG_RESP	n/a	LTP103	ltpFR	0	3	n/a	MOAT	903	n/a	n/a	n/a	n/a	n/a	n/a	n/a
3719633	RECOG_CONF	n/a	LTP103	ltpFR	0	3	n/a	MOAT	903	5	n/a	n/a	n/a	n/a	n/a	n/a
3721157	RECOG_LURE	n/a	LTP103	ltpFR	0	3	n/a	QUARTER	1148	3	n/a	n/a	n/a	n/a	n/a	n/a
3722547	RECOG_RESP	n/a	LTP103	ltpFR	0	3	n/a	QUARTER	1148	n/a	n/a	n/a	n/a	n/a	n/a	n/a
3724462	RECOG_CONF	n/a	LTP103	ltpFR	0	3	n/a	QUARTER	1148	3	n/a	n/a	n/a	n/a	n/a	n/a
3725711	RECOG_TARGET	n/a	LTP103	ltpFR	0	3	1	BIRD	129	2	1	n/a	n/a	n/a	n/a	n/a
3727855	RECOG_RESP	n/a	LTP103	ltpFR	0	3	1	BIRD	129	n/a	1	n/a	n/a	n/a	n/a	n/a
3729820	RECOG_CONF	n/a	LTP103	ltpFR	0	3	1	BIRD	129	2	1	n/a	n/a	n/a	n/a	n/a
3731379	RECOG_TARGET	n/a	LTP103	ltpFR	0	3	-1	ROOM	1206	2	-1	n/a	n/a	n/a	n/a	n/a
3735308	RECOG_RESP	n/a	LTP103	ltpFR	0	3	-1	ROOM	1206	n/a	-1	n/a	n/a	n/a	n/a	n/a
3737622	RECOG_CONF	n/a	LTP103	ltpFR	0	3	-1	ROOM	1206	2	-1	n/a	n/a	n/a	n/a	n/a
3739236	RECOG_LURE	n/a	LTP103	ltpFR	0	3	n/a	TURTLE	1522	1	n/a	n/a	n/a	n/a	n/a	n/a
3741464	RECOG_RESP	n/a	LTP103	ltpFR	0	3	n/a	TURTLE	1522	n/a	n/a	n/a	n/a	n/a	n/a	n/a
3742741	RECOG_CONF	n/a	LTP103	ltpFR	0	3	n/a	TURTLE	1522	1	n/a	n/a	n/a	n/a	n/a	n/a
3744280	RECOG_TARGET	n/a	LTP103	ltpFR	0	3	-1	CELLO	268	5	-1	n/a	n/a	n/a	n/a	n/a
3745794	RECOG_RESP	n/a	LTP103	ltpFR	0	3	-1	CELLO	268	n/a	-1	n/a	n/a	n/a	n/a	n/a
3747340	RECOG_CONF	n/a	LTP103	ltpFR	0	3	-1	CELLO	268	5	-1	n/a	n/a	n/a	n/a	n/a
3748999	RECOG_LURE	n/a	LTP103	ltpFR	0	3	n/a	NUT	965	4	n/a	n/a	n/a	n/a	n/a	n/a
3750503	RECOG_RESP	n/a	LTP103	ltpFR	0	3	n/a	NUT	965	n/a	n/a	n/a	n/a	n/a	n/a	n/a
3752359	RECOG_CONF	n/a	LTP103	ltpFR	0	3	n/a	NUT	965	4	n/a	n/a	n/a	n/a	n/a	n/a
3753612	RECOG_TARGET	n/a	LTP103	ltpFR	0	3	1	LID	817	5	0	n/a	n/a	n/a	n/a	n/a
3755302	RECOG_RESP	n/a	LTP103	ltpFR	0	3	1	LID	817	n/a	0	n/a	n/a	n/a	n/a	n/a
3756729	RECOG_CONF	n/a	LTP103	ltpFR	0	3	1	LID	817	5	0	n/a	n/a	n/a	n/a	n/a
3758164	RECOG_TARGET	n/a	LTP103	ltpFR	0	3	-1	SPONGE	1355	5	-1	n/a	n/a	n/a	n/a	n/a
3759892	RECOG_RESP	n/a	LTP103	ltpFR	0	3	-1	SPONGE	1355	n/a	-1	n/a	n/a	n/a	n/a	n/a
3761079	RECOG_CONF	n/a	LTP103	ltpFR	0	3	-1	SPONGE	1355	5	-1	n/a	n/a	n/a	n/a	n/a
3762651	RECOG_TARGET	n/a	LTP103	ltpFR	0	3	0	FARMER	553	5	1	n/a	n/a	n/a	n/a	n/a
3763484	RECOG_RESP	n/a	LTP103	ltpFR	0	3	0	FARMER	553	n/a	1	n/a	n/a	n/a	n/a	n/a
3765060	RECOG_CONF	n/a	LTP103	ltpFR	0	3	0	FARMER	553	5	1	n/a	n/a	n/a	n/a	n/a
3766821	RECOG_LURE	n/a	LTP103	ltpFR	0	3	n/a	COMB	351	5	n/a	n/a	n/a	n/a	n/a	n/a
3768023	RECOG_RESP	n/a	LTP103	ltpFR	0	3	n/a	COMB	351	n/a	n/a	n/a	n/a	n/a	n/a	n/a
3769360	RECOG_CONF	n/a	LTP103	ltpFR	0	3	n/a	COMB	351	5	n/a	n/a	n/a	n/a	n/a	n/a
3771116	RECOG_TARGET	n/a	LTP103	ltpFR	0	3	0	PRIEST	1122	5	1	n/a	n/a	n/a	n/a	n/a
3772543	RECOG_RESP	n/a	LTP103	ltpFR	0	3	0	PRIEST	1122	n/a	1	n/a	n/a	n/a	n/a	n/a
3774239	RECOG_CONF	n/a	LTP103	ltpFR	0	3	0	PRIEST	1122	5	1	n/a	n/a	n/a	n/a	n/a
3775578	RECOG_LURE	n/a	LTP103	ltpFR	0	3	n/a	FLOUR	583	3	n/a	n/a	n/a	n/a	n/a	n/a
3778350	RECOG_RESP	n/a	LTP103	ltpFR	0	3	n/a	FLOUR	583	n/a	n/a	n/a	n/a	n/a	n/a	n/a
3779677	RECOG_CONF	n/a	LTP103	ltpFR	0	3	n/a	FLOUR	583	3	n/a	n/a	n/a	n/a	n/a	n/a
3780929	RECOG_LURE	n/a	LTP103	ltpFR	0	3	n/a	ACORN	3	3	n/a	n/a	n/a	n/a	n/a	n/a
3782381	RECOG_RESP	n/a	LTP103	ltpFR	0	3	n/a	ACORN	3	n/a	n/a	n/a	n/a	n/a	n/a	n/a
3783817	RECOG_CONF	n/a	LTP103	ltpFR	0	3	n/a	ACORN	3	3	n/a	n/a	n/a	n/a	n/a	n/a
3785375	RECOG_TARGET	n/a	LTP103	ltpFR	0	3	0	VET	1560	3	1	n/a	n/a	n/a	n/a	n/a
3786841	RECOG_RESP	n/a	LTP103	ltpFR	0	3	0	VET	1560	n/a	1	n/a	n/a	n/a	n/a	n/a
3788118	RECOG_CONF	n/a	LTP103	ltpFR	0	3	0	VET	1560	3	1	n/a	n/a	n/a	n/a	n/a
3789570	RECOG_LURE	n/a	LTP103	ltpFR	0	3	n/a	CORD	379	2	n/a	n/a	n/a	n/a	n/a	n/a
3792398	RECOG_RESP	n/a	LTP103	ltpFR	0	3	n/a	CORD	379	n/a	n/a	n/a	n/a	n/a	n/a	n/a
3793655	RECOG_CONF	n/a	LTP103	ltpFR	0	3	n/a	CORD	379	2	n/a	n/a	n/a	n/a	n/a	n/a
3798646	REC_START	n/a	LTP103	ltpFR	0	4	n/a	n/a	n/a	n/a	n/a	n/a	n/a	n/a	n/a	n/a
3798676	RECOG_TARGET	n/a	LTP103	ltpFR	0	4	0	GULL	671	2	0	n/a	n/a	n/a	n/a	n/a
3800167	RECOG_RESP	n/a	LTP103	ltpFR	0	4	0	GULL	671	n/a	0	n/a	n/a	n/a	n/a	n/a
3801963	RECOG_CONF	n/a	LTP103	ltpFR	0	4	0	GULL	671	2	0	n/a	n/a	n/a	n/a	n/a
3803429	RECOG_TARGET	n/a	LTP103	ltpFR	0	4	-1	GARAGE	621	5	-1	n/a	n/a	n/a	n/a	n/a
3805156	RECOG_RESP	n/a	LTP103	ltpFR	0	4	-1	GARAGE	621	n/a	-1	n/a	n/a	n/a	n/a	n/a
3806962	RECOG_CONF	n/a	LTP103	ltpFR	0	4	-1	GARAGE	621	5	-1	n/a	n/a	n/a	n/a	n/a
3808348	RECOG_TARGET	n/a	LTP103	ltpFR	0	4	1	CHEMIST	292	5	1	n/a	n/a	n/a	n/a	n/a
3809436	RECOG_RESP	n/a	LTP103	ltpFR	0	4	1	CHEMIST	292	n/a	1	n/a	n/a	n/a	n/a	n/a
3810923	RECOG_CONF	n/a	LTP103	ltpFR	0	4	1	CHEMIST	292	5	1	n/a	n/a	n/a	n/a	n/a
3813717	RECOG_LURE	n/a	LTP103	ltpFR	0	4	n/a	FORT	595	2	n/a	n/a	n/a	n/a	n/a	n/a
3816450	RECOG_RESP	n/a	LTP103	ltpFR	0	4	n/a	FORT	595	n/a	n/a	n/a	n/a	n/a	n/a	n/a
3818566	RECOG_CONF	n/a	LTP103	ltpFR	0	4	n/a	FORT	595	2	n/a	n/a	n/a	n/a	n/a	n/a
3820225	RECOG_LURE	n/a	LTP103	ltpFR	0	4	n/a	CITIZEN	312	4	n/a	n/a	n/a	n/a	n/a	n/a
3821818	RECOG_RESP	n/a	LTP103	ltpFR	0	4	n/a	CITIZEN	312	n/a	n/a	n/a	n/a	n/a	n/a	n/a
3824143	RECOG_CONF	n/a	LTP103	ltpFR	0	4	n/a	CITIZEN	312	4	n/a	n/a	n/a	n/a	n/a	n/a
3825545	RECOG_TARGET	n/a	LTP103	ltpFR	0	4	1	PUMPKIN	1142	5	0	n/a	n/a	n/a	n/a	n/a
3827535	RECOG_RESP	n/a	LTP103	ltpFR	0	4	1	PUMPKIN	1142	n/a	0	n/a	n/a	n/a	n/a	n/a
3829710	RECOG_CONF	n/a	LTP103	ltpFR	0	4	1	PUMPKIN	1142	5	0	n/a	n/a	n/a	n/a	n/a
3831162	RECOG_TARGET	n/a	LTP103	ltpFR	0	4	1	CIGAR	308	5	0	n/a	n/a	n/a	n/a	n/a
3832105	RECOG_RESP	n/a	LTP103	ltpFR	0	4	1	CIGAR	308	n/a	0	n/a	n/a	n/a	n/a	n/a
3833232	RECOG_CONF	n/a	LTP103	ltpFR	0	4	1	CIGAR	308	5	0	n/a	n/a	n/a	n/a	n/a
3834751	RECOG_LURE	n/a	LTP103	ltpFR	0	4	n/a	FUNERAL	613	3	n/a	n/a	n/a	n/a	n/a	n/a
3835756	RECOG_RESP	n/a	LTP103	ltpFR	0	4	n/a	FUNERAL	613	n/a	n/a	n/a	n/a	n/a	n/a	n/a
3836804	RECOG_CONF	n/a	LTP103	ltpFR	0	4	n/a	FUNERAL	613	3	n/a	n/a	n/a	n/a	n/a	n/a
3838179	RECOG_TARGET	n/a	LTP103	ltpFR	0	4	0	RIB	1188	5	1	n/a	n/a	n/a	n/a	n/a
3839209	RECOG_RESP	n/a	LTP103	ltpFR	0	4	0	RIB	1188	n/a	1	n/a	n/a	n/a	n/a	n/a
3840186	RECOG_CONF	n/a	LTP103	ltpFR	0	4	0	RIB	1188	5	1	n/a	n/a	n/a	n/a	n/a
3841610	RECOG_LURE	n/a	LTP103	ltpFR	0	4	n/a	TUNA	1518	3	n/a	n/a	n/a	n/a	n/a	n/a
3842591	RECOG_RESP	n/a	LTP103	ltpFR	0	4	n/a	TUNA	1518	n/a	n/a	n/a	n/a	n/a	n/a	n/a
3843599	RECOG_CONF	n/a	LTP103	ltpFR	0	4	n/a	TUNA	1518	3	n/a	n/a	n/a	n/a	n/a	n/a
3844823	RECOG_TARGET	n/a	LTP103	ltpFR	0	4	0	LIP	828	5	0	n/a	n/a	n/a	n/a	n/a
3846532	RECOG_RESP	n/a	LTP103	ltpFR	0	4	0	LIP	828	n/a	0	n/a	n/a	n/a	n/a	n/a
3848039	RECOG_CONF	n/a	LTP103	ltpFR	0	4	0	LIP	828	5	0	n/a	n/a	n/a	n/a	n/a
3849467	RECOG_LURE	n/a	LTP103	ltpFR	0	4	n/a	MEAL	882	4	n/a	n/a	n/a	n/a	n/a	n/a
3852020	RECOG_RESP	n/a	LTP103	ltpFR	0	4	n/a	MEAL	882	n/a	n/a	n/a	n/a	n/a	n/a	n/a
3854185	RECOG_CONF	n/a	LTP103	ltpFR	0	4	n/a	MEAL	882	4	n/a	n/a	n/a	n/a	n/a	n/a
3855477	RECOG_LURE	n/a	LTP103	ltpFR	0	4	n/a	CALF	222	4	n/a	n/a	n/a	n/a	n/a	n/a
3856819	RECOG_RESP	n/a	LTP103	ltpFR	0	4	n/a	CALF	222	n/a	n/a	n/a	n/a	n/a	n/a	n/a
3857866	RECOG_CONF	n/a	LTP103	ltpFR	0	4	n/a	CALF	222	4	n/a	n/a	n/a	n/a	n/a	n/a
3859364	RECOG_TARGET	n/a	LTP103	ltpFR	0	4	1	SPACE	1345	2	0	n/a	n/a	n/a	n/a	n/a
3862496	RECOG_RESP	n/a	LTP103	ltpFR	0	4	1	SPACE	1345	n/a	0	n/a	n/a	n/a	n/a	n/a
3863922	RECOG_CONF	n/a	LTP103	ltpFR	0	4	1	SPACE	1345	2	0	n/a	n/a	n/a	n/a	n/a
3865289	RECOG_TARGET	n/a	LTP103	ltpFR	0	4	0	SWAN	1417	5	1	n/a	n/a	n/a	n/a	n/a
3866976	RECOG_RESP	n/a	LTP103	ltpFR	0	4	0	SWAN	1417	n/a	1	n/a	n/a	n/a	n/a	n/a
3867864	RECOG_CONF	n/a	LTP103	ltpFR	0	4	0	SWAN	1417	5	1	n/a	n/a	n/a	n/a	n/a
3869052	RECOG_LURE	n/a	LTP103	ltpFR	0	4	n/a	SPINE	1353	5	n/a	n/a	n/a	n/a	n/a	n/a
3869889	RECOG_RESP	n/a	LTP103	ltpFR	0	4	n/a	SPINE	1353	n/a	n/a	n/a	n/a	n/a	n/a	n/a
3871236	RECOG_CONF	n/a	LTP103	ltpFR	0	4	n/a	SPINE	1353	5	n/a	n/a	n/a	n/a	n/a	n/a
3872707	RECOG_LURE	n/a	LTP103	ltpFR	0	4	n/a	SADDLE	1221	3	n/a	n/a	n/a	n/a	n/a	n/a
3873920	RECOG_RESP	n/a	LTP103	ltpFR	0	4	n/a	SADDLE	1221	n/a	n/a	n/a	n/a	n/a	n/a	n/a
3875027	RECOG_CONF	n/a	LTP103	ltpFR	0	4	n/a	SADDLE	1221	3	n/a	n/a	n/a	n/a	n/a	n/a
3876444	RECOG_LURE	n/a	LTP103	ltpFR	0	4	n/a	TABLE	1426	2	n/a	n/a	n/a	n/a	n/a	n/a
3880026	RECOG_RESP	n/a	LTP103	ltpFR	0	4	n/a	TABLE	1426	n/a	n/a	n/a	n/a	n/a	n/a	n/a
3881163	RECOG_CONF	n/a	LTP103	ltpFR	0	4	n/a	TABLE	1426	2	n/a	n/a	n/a	n/a	n/a	n/a
3883135	RECOG_LURE	n/a	LTP103	ltpFR	0	4	n/a	NEPHEW	942	5	n/a	n/a	n/a	n/a	n/a	n/a
3884156	RECOG_RESP	n/a	LTP103	ltpFR	0	4	n/a	NEPHEW	942	n/a	n/a	n/a	n/a	n/a	n/a	n/a
3885034	RECOG_CONF	n/a	LTP103	ltpFR	0	4	n/a	NEPHEW	942	5	n/a	n/a	n/a	n/a	n/a	n/a
3886298	RECOG_LURE	n/a	LTP103	ltpFR	0	4	n/a	FENCE	560	3	n/a	n/a	n/a	n/a	n/a	n/a
3889534	RECOG_RESP	n/a	LTP103	ltpFR	0	4	n/a	FENCE	560	n/a	n/a	n/a	n/a	n/a	n/a	n/a
3890941	RECOG_CONF	n/a	LTP103	ltpFR	0	4	n/a	FENCE	560	3	n/a	n/a	n/a	n/a	n/a	n/a
3894904	REC_START	n/a	LTP103	ltpFR	0	5	n/a	n/a	n/a	n/a	n/a	n/a	n/a	n/a	n/a	n/a
3894930	RECOG_LURE	n/a	LTP103	ltpFR	0	5	n/a	THIGH	1457	2	n/a	n/a	n/a	n/a	n/a	n/a
3895946	RECOG_RESP	n/a	LTP103	ltpFR	0	5	n/a	THIGH	1457	n/a	n/a	n/a	n/a	n/a	n/a	n/a
3897134	RECOG_CONF	n/a	LTP103	ltpFR	0	5	n/a	THIGH	1457	2	n/a	n/a	n/a	n/a	n/a	n/a
3898752	RECOG_LURE	n/a	LTP103	ltpFR	0	5	n/a	PAD	998	4	n/a	n/a	n/a	n/a	n/a	n/a
3899897	RECOG_RESP	n/a	LTP103	ltpFR	0	5	n/a	PAD	998	n/a	n/a	n/a	n/a	n/a	n/a	n/a
3901314	RECOG_CONF	n/a	LTP103	ltpFR	0	5	n/a	PAD	998	4	n/a	n/a	n/a	n/a	n/a	n/a
3902863	RECOG_LURE	n/a	LTP103	ltpFR	0	5	n/a	TRAITOR	1495	5	n/a	n/a	n/a	n/a	n/a	n/a
3904776	RECOG_RESP	n/a	LTP103	ltpFR	0	5	n/a	TRAITOR	1495	n/a	n/a	n/a	n/a	n/a	n/a	n/a
3906213	RECOG_CONF	n/a	LTP103	ltpFR	0	5	n/a	TRAITOR	1495	5	n/a	n/a	n/a	n/a	n/a	n/a
3907516	RECOG_TARGET	n/a	LTP103	ltpFR	0	5	-1	CHAUFFEUR	283	5	-1	n/a	n/a	n/a	n/a	n/a
3908787	RECOG_RESP	n/a	LTP103	ltpFR	0	5	-1	CHAUFFEUR	283	n/a	-1	n/a	n/a	n/a	n/a	n/a
3909715	RECOG_CONF	n/a	LTP103	ltpFR	0	5	-1	CHAUFFEUR	283	5	-1	n/a	n/a	n/a	n/a	n/a
3911294	RECOG_TARGET	n/a	LTP103	ltpFR	0	5	1	SHACK	1273	5	0	n/a	n/a	n/a	n/a	n/a
3912130	RECOG_RESP	n/a	LTP103	ltpFR	0	5	1	SHACK	1273	n/a	0	n/a	n/a	n/a	n/a	n/a
3913137	RECOG_CONF	n/a	LTP103	ltpFR	0	5	1	SHACK	1273	5	0	n/a	n/a	n/a	n/a	n/a
3914957	RECOG_LURE	n/a	LTP103	ltpFR	0	5	n/a	SICKLE	1302	4	n/a	n/a	n/a	n/a	n/a	n/a
3916111	RECOG_RESP	n/a	LTP103	ltpFR	0	5	n/a	SICKLE	1302	n/a	n/a	n/a	n/a	n/a	n/a	n/a
3917877	RECOG_CONF	n/a	LTP103	ltpFR	0	5	n/a	SICKLE	1302	4	n/a	n/a	n/a	n/a	n/a	n/a
3919293	RECOG_TARGET	n/a	LTP103	ltpFR	0	5	1	GIRAFFE	636	5	1	n/a	n/a	n/a	n/a	n/a
3921189	RECOG_RESP	n/a	LTP103	ltpFR	0	5	1	GIRAFFE	636	n/a	1	n/a	n/a	n/a	n/a	n/a
3922556	RECOG_CONF	n/a	LTP103	ltpFR	0	5	1	GIRAFFE	636	5	1	n/a	n/a	n/a	n/a	n/a
3924038	RECOG_TARGET	n/a	LTP103	ltpFR	0	5	-1	RIVER	1194	4	-1	n/a	n/a	n/a	n/a	n/a
3924990	RECOG_RESP	n/a	LTP103	ltpFR	0	5	-1	RIVER	1194	n/a	-1	n/a	n/a	n/a	n/a	n/a
3925868	RECOG_CONF	n/a	LTP103	ltpFR	0	5	-1	RIVER	1194	4	-1	n/a	n/a	n/a	n/a	n/a
3927168	RECOG_TARGET	n/a	LTP103	ltpFR	0	5	-1	SUNSET	1408	5	-1	n/a	n/a	n/a	n/a	n/a
3928343	RECOG_RESP	n/a	LTP103	ltpFR	0	5	-1	SUNSET	1408	n/a	-1	n/a	n/a	n/a	n/a	n/a
3929161	RECOG_CONF	n/a	LTP103	ltpFR	0	5	-1	SUNSET	1408	5	-1	n/a	n/a	n/a	n/a	n/a
3930689	RECOG_LURE	n/a	LTP103	ltpFR	0	5	n/a	VOLLEYBALL	1576	5	n/a	n/a	n/a	n/a	n/a	n/a
3931745	RECOG_RESP	n/a	LTP103	ltpFR	0	5	n/a	VOLLEYBALL	1576	n/a	n/a	n/a	n/a	n/a	n/a	n/a
3932483	RECOG_CONF	n/a	LTP103	ltpFR	0	5	n/a	VOLLEYBALL	1576	5	n/a	n/a	n/a	n/a	n/a	n/a
3934118	RECOG_LURE	n/a	LTP103	ltpFR	0	5	n/a	DOCUMENT	479	3	n/a	n/a	n/a	n/a	n/a	n/a
3936300	RECOG_RESP	n/a	LTP103	ltpFR	0	5	n/a	DOCUMENT	479	n/a	n/a	n/a	n/a	n/a	n/a	n/a
3937552	RECOG_CONF	n/a	LTP103	ltpFR	0	5	n/a	DOCUMENT	479	3	n/a	n/a	n/a	n/a	n/a	n/a
3939070	RECOG_TARGET	n/a	LTP103	ltpFR	0	5	0	RECIPE	1175	5	0	n/a	n/a	n/a	n/a	n/a
3940146	RECOG_RESP	n/a	LTP103	ltpFR	0	5	0	RECIPE	1175	n/a	0	n/a	n/a	n/a	n/a	n/a
3941024	RECOG_CONF	n/a	LTP103	ltpFR	0	5	0	RECIPE	1175	5	0	n/a	n/a	n/a	n/a	n/a
3942476	RECOG_TARGET	n/a	LTP103	ltpFR	0	5	1	NECK	939	5	0	n/a	n/a	n/a	n/a	n/a
3943838	RECOG_RESP	n/a	LTP103	ltpFR	0	5	1	NECK	939	n/a	0	n/a	n/a	n/a	n/a	n/a
3944855	RECOG_CONF	n/a	LTP103	ltpFR	0	5	1	NECK	939	5	0	n/a	n/a	n/a	n/a	n/a
3946321	RECOG_LURE	n/a	LTP103	ltpFR	0	5	n/a	KETTLE	772	3	n/a	n/a	n/a	n/a	n/a	n/a
3948527	RECOG_RESP	n/a	LTP103	ltpFR	0	5	n/a	KETTLE	772	n/a	n/a	n/a	n/a	n/a	n/a	n/a
3949794	RECOG_CONF	n/a	LTP103	ltpFR	0	5	n/a	KETTLE	772	3	n/a	n/a	n/a	n/a	n/a	n/a
3951131	RECOG_TARGET	n/a	LTP103	ltpFR	0	5	0	ARTIST	43	5	1	n/a	n/a	n/a	n/a	n/a
3952149	RECOG_RESP	n/a	LTP103	ltpFR	0	5	0	ARTIST	43	n/a	1	n/a	n/a	n/a	n/a	n/a
3952957	RECOG_CONF	n/a	LTP103	ltpFR	0	5	0	ARTIST	43	5	1	n/a	n/a	n/a	n/a	n/a
3954244	RECOG_LURE	n/a	LTP103	ltpFR	0	5	n/a	ARCHITECT	36	4	n/a	n/a	n/a	n/a	n/a	n/a
3955471	RECOG_RESP	n/a	LTP103	ltpFR	0	5	n/a	ARCHITECT	36	n/a	n/a	n/a	n/a	n/a	n/a	n/a
3956908	RECOG_CONF	n/a	LTP103	ltpFR	0	5	n/a	ARCHITECT	36	4	n/a	n/a	n/a	n/a	n/a	n/a
3958382	RECOG_LURE	n/a	LTP103	ltpFR	0	5	n/a	SHORTS	1293	2	n/a	n/a	n/a	n/a	n/a	n/a
3961408	RECOG_RESP	n/a	LTP103	ltpFR	0	5	n/a	SHORTS	1293	n/a	n/a	n/a	n/a	n/a	n/a	n/a
3962735	RECOG_CONF	n/a	LTP103	ltpFR	0	5	n/a	SHORTS	1293	2	n/a	n/a	n/a	n/a	n/a	n/a
3963950	RECOG_TARGET	n/a	LTP103	ltpFR	0	5	-1	KING	777	5	-1	n/a	n/a	n/a	n/a	n/a
3964950	RECOG_RESP	n/a	LTP103	ltpFR	0	5	-1	KING	777	n/a	-1	n/a	n/a	n/a	n/a	n/a
3965798	RECOG_CONF	n/a	LTP103	ltpFR	0	5	-1	KING	777	5	-1	n/a	n/a	n/a	n/a	n/a
3967129	RECOG_TARGET	n/a	LTP103	ltpFR	0	5	1	SUPERMARKET	1409	5	0	n/a	n/a	n/a	n/a	n/a
3967873	RECOG_RESP	n/a	LTP103	ltpFR	0	5	1	SUPERMARKET	1409	n/a	0	n/a	n/a	n/a	n/a	n/a
3968731	RECOG_CONF	n/a	LTP103	ltpFR	0	5	1	SUPERMARKET	1409	5	0	n/a	n/a	n/a	n/a	n/a
3970368	RECOG_LURE	n/a	LTP103	ltpFR	0	5	n/a	PADDING	999	3	n/a	n/a	n/a	n/a	n/a	n/a
3972423	RECOG_RESP	n/a	LTP103	ltpFR	0	5	n/a	PADDING	999	n/a	n/a	n/a	n/a	n/a	n/a	n/a
3974179	RECOG_CONF	n/a	LTP103	ltpFR	0	5	n/a	PADDING	999	3	n/a	n/a	n/a	n/a	n/a	n/a
3978193	REC_START	n/a	LTP103	ltpFR	0	6	n/a	n/a	n/a	n/a	n/a	n/a	n/a	n/a	n/a	n/a
3978225	RECOG_TARGET	n/a	LTP103	ltpFR	0	6	0	BROOK	177	2	0	n/a	n/a	n/a	n/a	n/a
3979425	RECOG_RESP	n/a	LTP103	ltpFR	0	6	0	BROOK	177	n/a	0	n/a	n/a	n/a	n/a	n/a
3980383	RECOG_CONF	n/a	LTP103	ltpFR	0	6	0	BROOK	177	2	0	n/a	n/a	n/a	n/a	n/a
3981730	RECOG_TARGET	n/a	LTP103	ltpFR	0	6	-1	SUITE	1404	5	-1	n/a	n/a	n/a	n/a	n/a
3982907	RECOG_RESP	n/a	LTP103	ltpFR	0	6	-1	SUITE	1404	n/a	-1	n/a	n/a	n/a	n/a	n/a
3983745	RECOG_CONF	n/a	LTP103	ltpFR	0	6	-1	SUITE	1404	5	-1	n/a	n/a	n/a	n/a	n/a
3985184	RECOG_TARGET	n/a	LTP103	ltpFR	0	6	-1	CLAW	319	3	-1	n/a	n/a	n/a	n/a	n/a
3986868	RECOG_RESP	n/a	LTP103	ltpFR	0	6	-1	CLAW	319	n/a	-1	n/a	n/a	n/a	n/a	n/a
3988644	RECOG_CONF	n/a	LTP103	ltpFR	0	6	-1	CLAW	319	3	-1	n/a	n/a	n/a	n/a	n/a
3989936	RECOG_TARGET	n/a	LTP103	ltpFR	0	6	1	TOMATO	1476	5	1	n/a	n/a	n/a	n/a	n/a
3991009	RECOG_RESP	n/a	LTP103	ltpFR	0	6	1	TOMATO	1476	n/a	1	n/a	n/a	n/a	n/a	n/a
3991777	RECOG_CONF	n/a	LTP103	ltpFR	0	6	1	TOMATO	1476	5	1	n/a	n/a	n/a	n/a	n/a
3993166	RECOG_LURE	n/a	LTP103	ltpFR	0	6	n/a	CRUTCH	417	2	n/a	n/a	n/a	n/a	n/a	n/a
3994501	RECOG_RESP	n/a	LTP103	ltpFR	0	6	n/a	CRUTCH	417	n/a	n/a	n/a	n/a	n/a	n/a	n/a
3995698	RECOG_CONF	n/a	LTP103	ltpFR	0	6	n/a	CRUTCH	417	2	n/a	n/a	n/a	n/a	n/a	n/a
3997153	RECOG_TARGET	n/a	LTP103	ltpFR	0	6	0	CAPTIVE	240	5	0	n/a	n/a	n/a	n/a	n/a
3998312	RECOG_RESP	n/a	LTP103	ltpFR	0	6	0	CAPTIVE	240	n/a	0	n/a	n/a	n/a	n/a	n/a
3999140	RECOG_CONF	n/a	LTP103	ltpFR	0	6	0	CAPTIVE	240	5	0	n/a	n/a	n/a	n/a	n/a
4000241	RECOG_TARGET	n/a	LTP103	ltpFR	0	6	1	FOLLOWER	589	5	1	n/a	n/a	n/a	n/a	n/a
4001275	RECOG_RESP	n/a	LTP103	ltpFR	0	6	1	FOLLOWER	589	n/a	1	n/a	n/a	n/a	n/a	n/a
4002213	RECOG_CONF	n/a	LTP103	ltpFR	0	6	1	FOLLOWER	589	5	1	n/a	n/a	n/a	n/a	n/a
4003596	RECOG_TARGET	n/a	LTP103	ltpFR	0	6	0	PRUNE	1134	4	1	n/a	n/a	n/a	n/a	n/a
4004977	RECOG_RESP	n/a	LTP103	ltpFR	0	6	0	PRUNE	1134	n/a	1	n/a	n/a	n/a	n/a	n/a
4006474	RECOG_CONF	n/a	LTP103	ltpFR	0	6	0	PRUNE	1134	4	1	n/a	n/a	n/a	n/a	n/a
4007733	RECOG_TARGET	n/a	LTP103	ltpFR	0	6	1	SUPPER	1411	2	0	n/a	n/a	n/a	n/a	n/a
4011303	RECOG_RESP	n/a	LTP103	ltpFR	0	6	1	SUPPER	1411	n/a	0	n/a	n/a	n/a	n/a	n/a
4012500	RECOG_CONF	n/a	LTP103	ltpFR	0	6	1	SUPPER	1411	2	0	n/a	n/a	n/a	n/a	n/a
4014083	RECOG_LURE	n/a	LTP103	ltpFR	0	6	n/a	COWARD	394	5	n/a	n/a	n/a	n/a	n/a	n/a
4015214	RECOG_RESP	n/a	LTP103	ltpFR	0	6	n/a	COWARD	394	n/a	n/a	n/a	n/a	n/a	n/a	n/a
4016191	RECOG_CONF	n/a	LTP103	ltpFR	0	6	n/a	COWARD	394	5	n/a	n/a	n/a	n/a	n/a	n/a
4017622	RECOG_TARGET	n/a	LTP103	ltpFR	0	6	0	BUS	201	3	1	n/a	n/a	n/a	n/a	n/a
4020222	RECOG_RESP	n/a	LTP103	ltpFR	0	6	0	BUS	201	n/a	1	n/a	n/a	n/a	n/a	n/a
4021968	RECOG_CONF	n/a	LTP103	ltpFR	0	6	0	BUS	201	3	1	n/a	n/a	n/a	n/a	n/a
4023498	RECOG_TARGET	n/a	LTP103	ltpFR	0	6	-1	COOLER	375	5	-1	n/a	n/a	n/a	n/a	n/a
4024692	RECOG_RESP	n/a	LTP103	ltpFR	0	6	-1	COOLER	375	n/a	-1	n/a	n/a	n/a	n/a	n/a
4025411	RECOG_CONF	n/a	LTP103	ltpFR	0	6	-1	COOLER	375	5	-1	n/a	n/a	n/a	n/a	n/a
4026803	RECOG_LURE	n/a	LTP103	ltpFR	0	6	n/a	CUBE	420	2	n/a	n/a	n/a	n/a	n/a	n/a
4031467	RECOG_RESP	n/a	LTP103	ltpFR	0	6	n/a	CUBE	420	n/a	n/a	n/a	n/a	n/a	n/a	n/a
4032764	RECOG_CONF	n/a	LTP103	ltpFR	0	6	n/a	CUBE	420	2	n/a	n/a	n/a	n/a	n/a	n/a
4034377	RECOG_LURE	n/a	LTP103	ltpFR	0	6	n/a	CRADLE	399	2	n/a	n/a	n/a	n/a	n/a	n/a
4038172	RECOG_RESP	n/a	LTP103	ltpFR	0	6	n/a	CRADLE	399	n/a	n/a	n/a	n/a	n/a	n/a	n/a
4039389	RECOG_CONF	n/a	LTP103	ltpFR	0	6	n/a	CRADLE	399	2	n/a	n/a	n/a	n/a	n/a	n/a
4040985	RECOG_LURE	n/a	LTP103	ltpFR	0	6	n/a	DUSTPAN	509	4	n/a	n/a	n/a	n/a	n/a	n/a
4042661	RECOG_RESP	n/a	LTP103	ltpFR	0	6	n/a	DUSTPAN	509	n/a	n/a	n/a	n/a	n/a	n/a	n/a
4044597	RECOG_CONF	n/a	LTP103	ltpFR	0	6	n/a	DUSTPAN	509	4	n/a	n/a	n/a	n/a	n/a	n/a
4046621	RECOG_TARGET	n/a	LTP103	ltpFR	0	6	0	TERMINAL	1450	5	1	n/a	n/a	n/a	n/a	n/a
4047750	RECOG_RESP	n/a	LTP103	ltpFR	0	6	0	TERMINAL	1450	n/a	1	n/a	n/a	n/a	n/a	n/a
4048668	RECOG_CONF	n/a	LTP103	ltpFR	0	6	0	TERMINAL	1450	5	1	n/a	n/a	n/a	n/a	n/a
4050325	RECOG_LURE	n/a	LTP103	ltpFR	0	6	n/a	DICE	461	3	n/a	n/a	n/a	n/a	n/a	n/a
4053257	RECOG_RESP	n/a	LTP103	ltpFR	0	6	n/a	DICE	461	n/a	n/a	n/a	n/a	n/a	n/a	n/a
4054405	RECOG_CONF	n/a	LTP103	ltpFR	0	6	n/a	DICE	461	3	n/a	n/a	n/a	n/a	n/a	n/a
4055844	RECOG_TARGET	n/a	LTP103	ltpFR	0	6	0	SHARK	1275	5	1	n/a	n/a	n/a	n/a	n/a
4056819	RECOG_RESP	n/a	LTP103	ltpFR	0	6	0	SHARK	1275	n/a	1	n/a	n/a	n/a	n/a	n/a
4057737	RECOG_CONF	n/a	LTP103	ltpFR	0	6	0	SHARK	1275	5	1	n/a	n/a	n/a	n/a	n/a
4059139	RECOG_TARGET	n/a	LTP103	ltpFR	0	6	-1	MUFFIN	929	5	-1	n/a	n/a	n/a	n/a	n/a
4059902	RECOG_RESP	n/a	LTP103	ltpFR	0	6	-1	MUFFIN	929	n/a	-1	n/a	n/a	n/a	n/a	n/a
4060710	RECOG_CONF	n/a	LTP103	ltpFR	0	6	-1	MUFFIN	929	5	-1	n/a	n/a	n/a	n/a	n/a
4061812	RECOG_LURE	n/a	LTP103	ltpFR	0	6	n/a	HANDBAG	684	3	n/a	n/a	n/a	n/a	n/a	n/a
4062975	RECOG_RESP	n/a	LTP103	ltpFR	0	6	n/a	HANDBAG	684	n/a	n/a	n/a	n/a	n/a	n/a	n/a
4064063	RECOG_CONF	n/a	LTP103	ltpFR	0	6	n/a	HANDBAG	684	3	n/a	n/a	n/a	n/a	n/a	n/a
4068809	REC_START	n/a	LTP103	ltpFR	0	7	n/a	n/a	n/a	n/a	n/a	n/a	n/a	n/a	n/a	n/a
4068837	RECOG_LURE	n/a	LTP103	ltpFR	0	7	n/a	MAP	865	2	n/a	n/a	n/a	n/a	n/a	n/a
4070031	RECOG_RESP	n/a	LTP103	ltpFR	0	7	n/a	MAP	865	n/a	n/a	n/a	n/a	n/a	n/a	n/a
4070989	RECOG_CONF	n/a	LTP103	ltpFR	0	7	n/a	MAP	865	2	n/a	n/a	n/a	n/a	n/a	n/a
4072274	RECOG_LURE	n/a	LTP103	ltpFR	0	7	n/a	LASER	801	3	n/a	n/a	n/a	n/a	n/a	n/a
4073254	RECOG_RESP	n/a	LTP103	ltpFR	0	7	n/a	LASER	801	n/a	n/a	n/a	n/a	n/a	n/a	n/a
4074102	RECOG_CONF	n/a	LTP103	ltpFR	0	7	n/a	LASER	801	3	n/a	n/a	n/a	n/a	n/a	n/a
4075371	RECOG_TARGET	n/a	LTP103	ltpFR	0	7	1	RAISIN	1163	3	0	n/a	n/a	n/a	n/a	n/a
4076087	RECOG_RESP	n/a	LTP103	ltpFR	0	7	1	RAISIN	1163	n/a	0	n/a	n/a	n/a	n/a	n/a
4077055	RECOG_CONF	n/a	LTP103	ltpFR	0	7	1	RAISIN	1163	3	0	n/a	n/a	n/a	n/a	n/a
4078451	RECOG_LURE	n/a	LTP103	ltpFR	0	7	n/a	COP	376	4	n/a	n/a	n/a	n/a	n/a	n/a
4079490	RECOG_RESP	n/a	LTP103	ltpFR	0	7	n/a	COP	376	n/a	n/a	n/a	n/a	n/a	n/a	n/a
4080906	RECOG_CONF	n/a	LTP103	ltpFR	0	7	n/a	COP	376	4	n/a	n/a	n/a	n/a	n/a	n/a
4082221	RECOG_LURE	n/a	LTP103	ltpFR	0	7	n/a	OUTDOORS	987	5	n/a	n/a	n/a	n/a	n/a	n/a
4083251	RECOG_RESP	n/a	LTP103	ltpFR	0	7	n/a	OUTDOORS	987	n/a	n/a	n/a	n/a	n/a	n/a	n/a
4084179	RECOG_CONF	n/a	LTP103	ltpFR	0	7	n/a	OUTDOORS	987	5	n/a	n/a	n/a	n/a	n/a	n/a
4085443	RECOG_LURE	n/a	LTP103	ltpFR	0	7	n/a	MUG	930	2	n/a	n/a	n/a	n/a	n/a	n/a
4087701	RECOG_RESP	n/a	LTP103	ltpFR	0	7	n/a	MUG	930	n/a	n/a	n/a	n/a	n/a	n/a	n/a
4088978	RECOG_CONF	n/a	LTP103	ltpFR	0	7	n/a	MUG	930	2	n/a	n/a	n/a	n/a	n/a	n/a
4090387	RECOG_LURE	n/a	LTP103	ltpFR	0	7	n/a	VAULT	1550	5	n/a	n/a	n/a	n/a	n/a	n/a
4091472	RECOG_RESP	n/a	LTP103	ltpFR	0	7	n/a	VAULT	1550	n/a	n/a	n/a	n/a	n/a	n/a	n/a
4092340	RECOG_CONF	n/a	LTP103	ltpFR	0	7	n/a	VAULT	1550	5	n/a	n/a	n/a	n/a	n/a	n/a
4093750	RECOG_LURE	n/a	LTP103	ltpFR	0	7	n/a	GROCERIES	663	3	n/a	n/a	n/a	n/a	n/a	n/a
4096062	RECOG_RESP	n/a	LTP103	ltpFR	0	7	n/a	GROCERIES	663	n/a	n/a	n/a	n/a	n/a	n/a	n/a
4097020	RECOG_CONF	n/a	LTP103	ltpFR	0	7	n/a	GROCERIES	663	3	n/a	n/a	n/a	n/a	n/a	n/a
4098420	RECOG_LURE	n/a	LTP103	ltpFR	0	7	n/a	WALLET	1583	2	n/a	n/a	n/a	n/a	n/a	n/a
4099434	RECOG_RESP	n/a	LTP103	ltpFR	0	7	n/a	WALLET	1583	n/a	n/a	n/a	n/a	n/a	n/a	n/a
4100731	RECOG_CONF	n/a	LTP103	ltpFR	0	7	n/a	WALLET	1583	2	n/a	n/a	n/a	n/a	n/a	n/a
4102164	RECOG_LURE	n/a	LTP103	ltpFR	0	7	n/a	POPCORN	1104	5	n/a	n/a	n/a	n/a	n/a	n/a
4103226	RECOG_RESP	n/a	LTP103	ltpFR	0	7	n/a	POPCORN	1104	n/a	n/a	n/a	n/a	n/a	n/a	n/a
4104104	RECOG_CONF	n/a	LTP103	ltpFR	0	7	n/a	POPCORN	1104	5	n/a	n/a	n/a	n/a	n/a	n/a
4105395	RECOG_TARGET	n/a	LTP103	ltpFR	0	7	1	SEAT	1264	3	0	n/a	n/a	n/a	n/a	n/a
4106867	RECOG_RESP	n/a	LTP103	ltpFR	0	7	1	SEAT	1264	n/a	0	n/a	n/a	n/a	n/a	n/a
4108474	RECOG_CONF	n/a	LTP103	ltpFR	0	7	1	SEAT	1264	3	0	n/a	n/a	n/a	n/a	n/a
4109872	RECOG_LURE	n/a	LTP103	ltpFR	0	7	n/a	DESK	452	2	n/a	n/a	n/a	n/a	n/a	n/a
4111686	RECOG_RESP	n/a	LTP103	ltpFR	0	7	n/a	DESK	452	n/a	n/a	n/a	n/a	n/a	n/a	n/a
4113303	RECOG_CONF	n/a	LTP103	ltpFR	0	7	n/a	DESK	452	2	n/a	n/a	n/a	n/a	n/a	n/a
4114692	RECOG_TARGET	n/a	LTP103	ltpFR	0	7	0	BLUEJAY	141	5	0	n/a	n/a	n/a	n/a	n/a
4116136	RECOG_RESP	n/a	LTP103	ltpFR	0	7	0	BLUEJAY	141	n/a	0	n/a	n/a	n/a	n/a	n/a
4116984	RECOG_CONF	n/a	LTP103	ltpFR	0	7	0	BLUEJAY	141	5	0	n/a	n/a	n/a	n/a	n/a
4118262	RECOG_LURE	n/a	LTP103	ltpFR	0	7	n/a	MEDAL	885	3	n/a	n/a	n/a	n/a	n/a	n/a
4119678	RECOG_RESP	n/a	LTP103	ltpFR	0	7	n/a	MEDAL	885	n/a	n/a	n/a	n/a	n/a	n/a	n/a
4120796	RECOG_CONF	n/a	LTP103	ltpFR	0	7	n/a	MEDAL	885	3	n/a	n/a	n/a	n/a	n/a	n/a
4122224	RECOG_LURE	n/a	LTP103	ltpFR	0	7	n/a	CRAYON	401	3	n/a	n/a	n/a	n/a	n/a	n/a
4123220	RECOG_RESP	n/a	LTP103	ltpFR	0	7	n/a	CRAYON	401	n/a	n/a	n/a	n/a	n/a	n/a	n/a
4124108	RECOG_CONF	n/a	LTP103	ltpFR	0	7	n/a	CRAYON	401	3	n/a	n/a	n/a	n/a	n/a	n/a
4125605	RECOG_TARGET	n/a	LTP103	ltpFR	0	7	-1	CATCHER	258	5	-1	n/a	n/a	n/a	n/a	n/a
4126822	RECOG_RESP	n/a	LTP103	ltpFR	0	7	-1	CATCHER	258	n/a	-1	n/a	n/a	n/a	n/a	n/a
4127610	RECOG_CONF	n/a	LTP103	ltpFR	0	7	-1	CATCHER	258	5	-1	n/a	n/a	n/a	n/a	n/a
4128966	RECOG_TARGET	n/a	LTP103	ltpFR	0	7	-1	BUGGY	188	5	-1	n/a	n/a	n/a	n/a	n/a
4129865	RECOG_RESP	n/a	LTP103	ltpFR	0	7	-1	BUGGY	188	n/a	-1	n/a	n/a	n/a	n/a	n/a
4130633	RECOG_CONF	n/a	LTP103	ltpFR	0	7	-1	BUGGY	188	5	-1	n/a	n/a	n/a	n/a	n/a
4131756	RECOG_LURE	n/a	LTP103	ltpFR	0	7	n/a	BUN	197	2	n/a	n/a	n/a	n/a	n/a	n/a
4134993	RECOG_RESP	n/a	LTP103	ltpFR	0	7	n/a	BUN	197	n/a	n/a	n/a	n/a	n/a	n/a	n/a
4136011	RECOG_CONF	n/a	LTP103	ltpFR	0	7	n/a	BUN	197	2	n/a	n/a	n/a	n/a	n/a	n/a
4137757	RECOG_LURE	n/a	LTP103	ltpFR	0	7	n/a	SILVERWARE	1308	3	n/a	n/a	n/a	n/a	n/a	n/a
4139483	RECOG_RESP	n/a	LTP103	ltpFR	0	7	n/a	SILVERWARE	1308	n/a	n/a	n/a	n/a	n/a	n/a	n/a
4141119	RECOG_CONF	n/a	LTP103	ltpFR	0	7	n/a	SILVERWARE	1308	3	n/a	n/a	n/a	n/a	n/a	n/a
4142335	RECOG_LURE	n/a	LTP103	ltpFR	0	7	n/a	FREEZER	604	4	n/a	n/a	n/a	n/a	n/a	n/a
4143504	RECOG_RESP	n/a	LTP103	ltpFR	0	7	n/a	FREEZER	604	n/a	n/a	n/a	n/a	n/a	n/a	n/a
4145110	RECOG_CONF	n/a	LTP103	ltpFR	0	7	n/a	FREEZER	604	4	n/a	n/a	n/a	n/a	n/a	n/a
4148704	REC_START	n/a	LTP103	ltpFR	0	8	n/a	n/a	n/a	n/a	n/a	n/a	n/a	n/a	n/a	n/a
4148736	RECOG_LURE	n/a	LTP103	ltpFR	0	8	n/a	BLACKBOARD	133	2	n/a	n/a	n/a	n/a	n/a	n/a
4149776	RECOG_RESP	n/a	LTP103	ltpFR	0	8	n/a	BLACKBOARD	133	n/a	n/a	n/a	n/a	n/a	n/a	n/a
4151223	RECOG_CONF	n/a	LTP103	ltpFR	0	8	n/a	BLACKBOARD	133	2	n/a	n/a	n/a	n/a	n/a	n/a
4152781	RECOG_LURE	n/a	LTP103	ltpFR	0	8	n/a	CHECK	284	2	n/a	n/a	n/a	n/a	n/a	n/a
4155434	RECOG_RESP	n/a	LTP103	ltpFR	0	8	n/a	CHECK	284	n/a	n/a	n/a	n/a	n/a	n/a	n/a
4157040	RECOG_CONF	n/a	LTP103	ltpFR	0	8	n/a	CHECK	284	2	n/a	n/a	n/a	n/a	n/a	n/a
4158483	RECOG_LURE	n/a	LTP103	ltpFR	0	8	n/a	SUITCASE	1403	3	n/a	n/a	n/a	n/a	n/a	n/a
4159888	RECOG_RESP	n/a	LTP103	ltpFR	0	8	n/a	SUITCASE	1403	n/a	n/a	n/a	n/a	n/a	n/a	n/a
4160911	RECOG_CONF	n/a	LTP103	ltpFR	0	8	n/a	SUITCASE	1403	3	n/a	n/a	n/a	n/a	n/a	n/a
4162412	RECOG_TARGET	n/a	LTP103	ltpFR	0	8	1	MONEY	908	5	0	n/a	n/a	n/a	n/a	n/a
4163605	RECOG_RESP	n/a	LTP103	ltpFR	0	8	1	MONEY	908	n/a	0	n/a	n/a	n/a	n/a	n/a
4164463	RECOG_CONF	n/a	LTP103	ltpFR	0	8	1	MONEY	908	5	0	n/a	n/a	n/a	n/a	n/a
4165691	RECOG_LURE	n/a	LTP103	ltpFR	0	8	n/a	SIGN	1305	2	n/a	n/a	n/a	n/a	n/a	n/a
4168773	RECOG_RESP	n/a	LTP103	ltpFR	0	8	n/a	SIGN	1305	n/a	n/a	n/a	n/a	n/a	n/a	n/a
4170060	RECOG_CONF	n/a	LTP103	ltpFR	0	8	n/a	SIGN	1305	2	n/a	n/a	n/a	n/a	n/a	n/a
4171743	RECOG_LURE	n/a	LTP103	ltpFR	0	8	n/a	SKYSCRAPER	1322	4	n/a	n/a	n/a	n/a	n/a	n/a
4172864	RECOG_RESP	n/a	LTP103	ltpFR	0	8	n/a	SKYSCRAPER	1322	n/a	n/a	n/a	n/a	n/a	n/a	n/a
4174251	RECOG_CONF	n/a	LTP103	ltpFR	0	8	n/a	SKYSCRAPER	1322	4	n/a	n/a	n/a	n/a	n/a	n/a
4175588	RECOG_LURE	n/a	LTP103	ltpFR	0	8	n/a	PAW	1029	3	n/a	n/a	n/a	n/a	n/a	n/a
4177972	RECOG_RESP	n/a	LTP103	ltpFR	0	8	n/a	PAW	1029	n/a	n/a	n/a	n/a	n/a	n/a	n/a
4179968	RECOG_CONF	n/a	LTP103	ltpFR	0	8	n/a	PAW	1029	3	n/a	n/a	n/a	n/a	n/a	n/a
4181348	RECOG_LURE	n/a	LTP103	ltpFR	0	8	n/a	PICK	1058	3	n/a	n/a	n/a	n/a	n/a	n/a
4183001	RECOG_RESP	n/a	LTP103	ltpFR	0	8	n/a	PICK	1058	n/a	n/a	n/a	n/a	n/a	n/a	n/a
4184408	RECOG_CONF	n/a	LTP103	ltpFR	0	8	n/a	PICK	1058	3	n/a	n/a	n/a	n/a	n/a	n/a
4186150	RECOG_LURE	n/a	LTP103	ltpFR	0	8	n/a	VETERAN	1561	4	n/a	n/a	n/a	n/a	n/a	n/a
4187351	RECOG_RESP	n/a	LTP103	ltpFR	0	8	n/a	VETERAN	1561	n/a	n/a	n/a	n/a	n/a	n/a	n/a
4188768	RECOG_CONF	n/a	LTP103	ltpFR	0	8	n/a	VETERAN	1561	4	n/a	n/a	n/a	n/a	n/a	n/a
4190303	RECOG_LURE	n/a	LTP103	ltpFR	0	8	n/a	VESSEL	1558	4	n/a	n/a	n/a	n/a	n/a	n/a
4191681	RECOG_RESP	n/a	LTP103	ltpFR	0	8	n/a	VESSEL	1558	n/a	n/a	n/a	n/a	n/a	n/a	n/a
4193218	RECOG_CONF	n/a	LTP103	ltpFR	0	8	n/a	VESSEL	1558	4	n/a	n/a	n/a	n/a	n/a	n/a
4194849	RECOG_LURE	n/a	LTP103	ltpFR	0	8	n/a	OWL	992	4	n/a	n/a	n/a	n/a	n/a	n/a
4197518	RECOG_RESP	n/a	LTP103	ltpFR	0	8	n/a	OWL	992	n/a	n/a	n/a	n/a	n/a	n/a	n/a
4200022	RECOG_CONF	n/a	LTP103	ltpFR	0	8	n/a	OWL	992	4	n/a	n/a	n/a	n/a	n/a	n/a
4201675	RECOG_TARGET	n/a	LTP103	ltpFR	0	8	1	HOUND	724	2	1	n/a	n/a	n/a	n/a	n/a
4206398	RECOG_RESP	n/a	LTP103	ltpFR	0	8	1	HOUND	724	n/a	1	n/a	n/a	n/a	n/a	n/a
4208124	RECOG_CONF	n/a	LTP103	ltpFR	0	8	1	HOUND	724	2	1	n/a	n/a	n/a	n/a	n/a
4209790	RECOG_LURE	n/a	LTP103	ltpFR	0	8	n/a	COUNTY	389	3	n/a	n/a	n/a	n/a	n/a	n/a
4211287	RECOG_RESP	n/a	LTP103	ltpFR	0	8	n/a	COUNTY	389	n/a	n/a	n/a	n/a	n/a	n/a	n/a
4212274	RECOG_CONF	n/a	LTP103	ltpFR	0	8	n/a	COUNTY	389	3	n/a	n/a	n/a	n/a	n/a	n/a
4213569	RECOG_TARGET	n/a	LTP103	ltpFR	0	8	-1	KNAPSACK	783	5	-1	n/a	n/a	n/a	n/a	n/a
4215108	RECOG_RESP	n/a	LTP103	ltpFR	0	8	-1	KNAPSACK	783	n/a	-1	n/a	n/a	n/a	n/a	n/a
4216944	RECOG_CONF	n/a	LTP103	ltpFR	0	8	-1	KNAPSACK	783	5	-1	n/a	n/a	n/a	n/a	n/a
4217814	RECOG_TARGET	n/a	LTP103	ltpFR	0	8	0	TURKEY	1520	5	1	n/a	n/a	n/a	n/a	n/a
4220262	RECOG_RESP	n/a	LTP103	ltpFR	0	8	0	TURKEY	1520	n/a	1	n/a	n/a	n/a	n/a	n/a
4221434	RECOG_CONF	n/a	LTP103	ltpFR	0	8	0	TURKEY	1520	5	1	n/a	n/a	n/a	n/a	n/a
4222882	RECOG_TARGET	n/a	LTP103	ltpFR	0	8	-1	BEAN	105	2	-1	n/a	n/a	n/a	n/a	n/a
4224247	RECOG_RESP	n/a	LTP103	ltpFR	0	8	-1	BEAN	105	n/a	-1	n/a	n/a	n/a	n/a	n/a
4225414	RECOG_CONF	n/a	LTP103	ltpFR	0	8	-1	BEAN	105	2	-1	n/a	n/a	n/a	n/a	n/a
4226961	RECOG_LURE	n/a	LTP103	ltpFR	0	8	n/a	PARTNER	1017	3	n/a	n/a	n/a	n/a	n/a	n/a
4228547	RECOG_RESP	n/a	LTP103	ltpFR	0	8	n/a	PARTNER	1017	n/a	n/a	n/a	n/a	n/a	n/a	n/a
4231102	RECOG_CONF	n/a	LTP103	ltpFR	0	8	n/a	PARTNER	1017	3	n/a	n/a	n/a	n/a	n/a	n/a
4232464	RECOG_TARGET	n/a	LTP103	ltpFR	0	8	1	BAY	102	5	0	n/a	n/a	n/a	n/a	n/a
4233835	RECOG_RESP	n/a	LTP103	ltpFR	0	8	1	BAY	102	n/a	0	n/a	n/a	n/a	n/a	n/a
4235342	RECOG_CONF	n/a	LTP103	ltpFR	0	8	1	BAY	102	5	0	n/a	n/a	n/a	n/a	n/a
4236899	RECOG_TARGET	n/a	LTP103	ltpFR	0	8	1	COCOON	339	3	0	n/a	n/a	n/a	n/a	n/a
4238834	RECOG_RESP	n/a	LTP103	ltpFR	0	8	1	COCOON	339	n/a	0	n/a	n/a	n/a	n/a	n/a
4240540	RECOG_CONF	n/a	LTP103	ltpFR	0	8	1	COCOON	339	3	0	n/a	n/a	n/a	n/a	n/a
4242002	RECOG_LURE	n/a	LTP103	ltpFR	0	8	n/a	CHICKEN	297	3	n/a	n/a	n/a	n/a	n/a	n/a
4243184	RECOG_RESP	n/a	LTP103	ltpFR	0	8	n/a	CHICKEN	297	n/a	n/a	n/a	n/a	n/a	n/a	n/a
4244381	RECOG_CONF	n/a	LTP103	ltpFR	0	8	n/a	CHICKEN	297	3	n/a	n/a	n/a	n/a	n/a	n/a
4275310	REC_START	n/a	LTP103	ltpFR	0	9	n/a	n/a	n/a	n/a	n/a	n/a	n/a	n/a	n/a	n/a
4275339	RECOG_TARGET	n/a	LTP103	ltpFR	0	9	-1	PROFESSOR	1131	5	-1	n/a	n/a	n/a	n/a	n/a
4277370	RECOG_RESP	n/a	LTP103	ltpFR	0	9	-1	PROFESSOR	1131	n/a	-1	n/a	n/a	n/a	n/a	n/a
4278388	RECOG_CONF	n/a	LTP103	ltpFR	0	9	-1	PROFESSOR	1131	5	-1	n/a	n/a	n/a	n/a	n/a
4279916	RECOG_TARGET	n/a	LTP103	ltpFR	0	9	1	CHAMBER	277	4	0	n/a	n/a	n/a	n/a	n/a
4280752	RECOG_RESP	n/a	LTP103	ltpFR	0	9	1	CHAMBER	277	n/a	0	n/a	n/a	n/a	n/a	n/a
4281710	RECOG_CONF	n/a	LTP103	ltpFR	0	9	1	CHAMBER	277	4	0	n/a	n/a	n/a	n/a	n/a
4283079	RECOG_TARGET	n/a	LTP103	ltpFR	0	9	1	PIPE	1073	5	0	n/a	n/a	n/a	n/a	n/a
4284913	RECOG_RESP	n/a	LTP103	ltpFR	0	9	1	PIPE	1073	n/a	0	n/a	n/a	n/a	n/a	n/a
4285991	RECOG_CONF	n/a	LTP103	ltpFR	0	9	1	PIPE	1073	5	0	n/a	n/a	n/a	n/a	n/a
4287592	RECOG_LURE	n/a	LTP103	ltpFR	0	9	n/a	CROWN	415	3	n/a	n/a	n/a	n/a	n/a	n/a
4289582	RECOG_RESP	n/a	LTP103	ltpFR	0	9	n/a	CROWN	415	n/a	n/a	n/a	n/a	n/a	n/a	n/a
4290770	RECOG_CONF	n/a	LTP103	ltpFR	0	9	n/a	CROWN	415	3	n/a	n/a	n/a	n/a	n/a	n/a
4292127	RECOG_LURE	n/a	LTP103	ltpFR	0	9	n/a	PRESIDENT	1121	4	n/a	n/a	n/a	n/a	n/a	n/a
4293503	RECOG_RESP	n/a	LTP103	ltpFR	0	9	n/a	PRESIDENT	1121	n/a	n/a	n/a	n/a	n/a	n/a	n/a
4294371	RECOG_CONF	n/a	LTP103	ltpFR	0	9	n/a	PRESIDENT	1121	4	n/a	n/a	n/a	n/a	n/a	n/a
4295765	RECOG_LURE	n/a	LTP103	ltpFR	0	9	n/a	PORPOISE	1109	4	n/a	n/a	n/a	n/a	n/a	n/a
4298193	RECOG_RESP	n/a	LTP103	ltpFR	0	9	n/a	PORPOISE	1109	n/a	n/a	n/a	n/a	n/a	n/a	n/a
4299091	RECOG_CONF	n/a	LTP103	ltpFR	0	9	n/a	PORPOISE	1109	4	n/a	n/a	n/a	n/a	n/a	n/a
4300501	RECOG_TARGET	n/a	LTP103	ltpFR	0	9	0	CORK	380	5	0	n/a	n/a	n/a	n/a	n/a
4301595	RECOG_RESP	n/a	LTP103	ltpFR	0	9	0	CORK	380	n/a	0	n/a	n/a	n/a	n/a	n/a
4302573	RECOG_CONF	n/a	LTP103	ltpFR	0	9	0	CORK	380	5	0	n/a	n/a	n/a	n/a	n/a
4303996	RECOG_LURE	n/a	LTP103	ltpFR	0	9	n/a	BOULEVARD	156	5	n/a	n/a	n/a	n/a	n/a	n/a
4305736	RECOG_RESP	n/a	LTP103	ltpFR	0	9	n/a	BOULEVARD	156	n/a	n/a	n/a	n/a	n/a	n/a	n/a
4306674	RECOG_CONF	n/a	LTP103	ltpFR	0	9	n/a	BOULEVARD	156	5	n/a	n/a	n/a	n/a	n/a	n/a
4308509	RECOG_TARGET	n/a	LTP103	ltpFR	0	9	0	DISH	474	2	0	n/a	n/a	n/a	n/a	n/a
4309786	RECOG_RESP	n/a	LTP103	ltpFR	0	9	0	DISH	474	n/a	0	n/a	n/a	n/a	n/a	n/a
4311702	RECOG_CONF	n/a	LTP103	ltpFR	0	9	0	DISH	474	2	0	n/a	n/a	n/a	n/a	n/a
4313286	RECOG_TARGET	n/a	LTP103	ltpFR	0	9	1	PASTA	1021	3	0	n/a	n/a	n/a	n/a	n/a
4314376	RECOG_RESP	n/a	LTP103	ltpFR	0	9	1	PASTA	1021	n/a	0	n/a	n/a	n/a	n/a	n/a
4315713	RECOG_CONF	n/a	LTP103	ltpFR	0	9	1	PASTA	1021	3	0	n/a	n/a	n/a	n/a	n/a
4317114	RECOG_TARGET	n/a	LTP103	ltpFR	0	9	0	EDITOR	516	5	1	n/a	n/a	n/a	n/a	n/a
4318517	RECOG_RESP	n/a	LTP103	ltpFR	0	9	0	EDITOR	516	n/a	1	n/a	n/a	n/a	n/a	n/a
4319594	RECOG_CONF	n/a	LTP103	ltpFR	0	9	0	EDITOR	516	5	1	n/a	n/a	n/a	n/a	n/a
4321235	RECOG_TARGET	n/a	LTP103	ltpFR	0	9	1	PUPPY	1144	3	1	n/a	n/a	n/a	n/a	n/a
4325291	RECOG_RESP	n/a	LTP103	ltpFR	0	9	1	PUPPY	1144	n/a	1	n/a	n/a	n/a	n/a	n/a
4326399	RECOG_CONF	n/a	LTP103	ltpFR	0	9	1	PUPPY	1144	3	1	n/a	n/a	n/a	n/a	n/a
4328118	RECOG_LURE	n/a	LTP103	ltpFR	0	9	n/a	OCEAN	970	5	n/a	n/a	n/a	n/a	n/a	n/a
4329621	RECOG_RESP	n/a	LTP103	ltpFR	0	9	n/a	OCEAN	970	n/a	n/a	n/a	n/a	n/a	n/a	n/a
4330769	RECOG_CONF	n/a	LTP103	ltpFR	0	9	n/a	OCEAN	970	5	n/a	n/a	n/a	n/a	n/a	n/a
4332197	RECOG_LURE	n/a	LTP103	ltpFR	0	9	n/a	SCROLL	1257	2	n/a	n/a	n/a	n/a	n/a	n/a
4334859	RECOG_RESP	n/a	LTP103	ltpFR	0	9	n/a	SCROLL	1257	n/a	n/a	n/a	n/a	n/a	n/a	n/a
4336087	RECOG_CONF	n/a	LTP103	ltpFR	0	9	n/a	SCROLL	1257	2	n/a	n/a	n/a	n/a	n/a	n/a
4337450	RECOG_LURE	n/a	LTP103	ltpFR	0	9	n/a	TOOTH	1481	3	n/a	n/a	n/a	n/a	n/a	n/a
4338810	RECOG_RESP	n/a	LTP103	ltpFR	0	9	n/a	TOOTH	1481	n/a	n/a	n/a	n/a	n/a	n/a	n/a
4339998	RECOG_CONF	n/a	LTP103	ltpFR	0	9	n/a	TOOTH	1481	3	n/a	n/a	n/a	n/a	n/a	n/a
4341311	RECOG_TARGET	n/a	LTP103	ltpFR	0	9	1	NET	946	2	0	n/a	n/a	n/a	n/a	n/a
4342153	RECOG_RESP	n/a	LTP103	ltpFR	0	9	1	NET	946	n/a	0	n/a	n/a	n/a	n/a	n/a
4343789	RECOG_CONF	n/a	LTP103	ltpFR	0	9	1	NET	946	2	0	n/a	n/a	n/a	n/a	n/a
4345240	RECOG_TARGET	n/a	LTP103	ltpFR	0	9	-1	GREASE	660	5	-1	n/a	n/a	n/a	n/a	n/a
4346782	RECOG_RESP	n/a	LTP103	ltpFR	0	9	-1	GREASE	660	n/a	-1	n/a	n/a	n/a	n/a	n/a
4348000	RECOG_CONF	n/a	LTP103	ltpFR	0	9	-1	GREASE	660	5	-1	n/a	n/a	n/a	n/a	n/a
4349260	RECOG_LURE	n/a	LTP103	ltpFR	0	9	n/a	SKI	1316	2	n/a	n/a	n/a	n/a	n/a	n/a
4350344	RECOG_RESP	n/a	LTP103	ltpFR	0	9	n/a	SKI	1316	n/a	n/a	n/a	n/a	n/a	n/a	n/a
4351721	RECOG_CONF	n/a	LTP103	ltpFR	0	9	n/a	SKI	1316	2	n/a	n/a	n/a	n/a	n/a	n/a
4353156	RECOG_TARGET	n/a	LTP103	ltpFR	0	9	1	PORCH	1106	3	0	n/a	n/a	n/a	n/a	n/a
4354465	RECOG_RESP	n/a	LTP103	ltpFR	0	9	1	PORCH	1106	n/a	0	n/a	n/a	n/a	n/a	n/a
4356031	RECOG_CONF	n/a	LTP103	ltpFR	0	9	1	PORCH	1106	3	0	n/a	n/a	n/a	n/a	n/a
4357510	RECOG_TARGET	n/a	LTP103	ltpFR	0	9	1	GENTLEMAN	631	5	1	n/a	n/a	n/a	n/a	n/a
4358546	RECOG_RESP	n/a	LTP103	ltpFR	0	9	1	GENTLEMAN	631	n/a	1	n/a	n/a	n/a	n/a	n/a
4359613	RECOG_CONF	n/a	LTP103	ltpFR	0	9	1	GENTLEMAN	631	5	1	n/a	n/a	n/a	n/a	n/a
4369622	REC_START	n/a	LTP103	ltpFR	0	10	n/a	n/a	n/a	n/a	n/a	n/a	n/a	n/a	n/a	n/a
4369646	RECOG_LURE	n/a	LTP103	ltpFR	0	10	n/a	MASK	876	2	n/a	n/a	n/a	n/a	n/a	n/a
4370664	RECOG_RESP	n/a	LTP103	ltpFR	0	10	n/a	MASK	876	n/a	n/a	n/a	n/a	n/a	n/a	n/a
4371572	RECOG_CONF	n/a	LTP103	ltpFR	0	10	n/a	MASK	876	2	n/a	n/a	n/a	n/a	n/a	n/a
4372933	RECOG_TARGET	n/a	LTP103	ltpFR	0	10	1	DICTATOR	462	5	1	n/a	n/a	n/a	n/a	n/a
4374077	RECOG_RESP	n/a	LTP103	ltpFR	0	10	1	DICTATOR	462	n/a	1	n/a	n/a	n/a	n/a	n/a
4374875	RECOG_CONF	n/a	LTP103	ltpFR	0	10	1	DICTATOR	462	5	1	n/a	n/a	n/a	n/a	n/a
4376555	RECOG_TARGET	n/a	LTP103	ltpFR	0	10	1	TART	1436	3	0	n/a	n/a	n/a	n/a	n/a
4377738	RECOG_RESP	n/a	LTP103	ltpFR	0	10	1	TART	1436	n/a	0	n/a	n/a	n/a	n/a	n/a
4378596	RECOG_CONF	n/a	LTP103	ltpFR	0	10	1	TART	1436	3	0	n/a	n/a	n/a	n/a	n/a
4379942	RECOG_LURE	n/a	LTP103	ltpFR	0	10	n/a	BELT	120	2	n/a	n/a	n/a	n/a	n/a	n/a
4381111	RECOG_RESP	n/a	LTP103	ltpFR	0	10	n/a	BELT	120	n/a	n/a	n/a	n/a	n/a	n/a	n/a
4382079	RECOG_CONF	n/a	LTP103	ltpFR	0	10	n/a	BELT	120	2	n/a	n/a	n/a	n/a	n/a	n/a
4383405	RECOG_TARGET	n/a	LTP103	ltpFR	0	10	0	LOFT	840	5	1	n/a	n/a	n/a	n/a	n/a
4384503	RECOG_RESP	n/a	LTP103	ltpFR	0	10	0	LOFT	840	n/a	1	n/a	n/a	n/a	n/a	n/a
4385351	RECOG_CONF	n/a	LTP103	ltpFR	0	10	0	LOFT	840	5	1	n/a	n/a	n/a	n/a	n/a
4387033	RECOG_LURE	n/a	LTP103	ltpFR	0	10	n/a	FURNITURE	616	3	n/a	n/a	n/a	n/a	n/a	n/a
4388304	RECOG_RESP	n/a	LTP103	ltpFR	0	10	n/a	FURNITURE	616	n/a	n/a	n/a	n/a	n/a	n/a	n/a
4389242	RECOG_CONF	n/a	LTP103	ltpFR	0	10	n/a	FURNITURE	616	3	n/a	n/a	n/a	n/a	n/a	n/a
4390613	RECOG_TARGET	n/a	LTP103	ltpFR	0	10	-1	SUMMIT	1405	5	-1	n/a	n/a	n/a	n/a	n/a
4391667	RECOG_RESP	n/a	LTP103	ltpFR	0	10	-1	SUMMIT	1405	n/a	-1	n/a	n/a	n/a	n/a	n/a
4392595	RECOG_CONF	n/a	LTP103	ltpFR	0	10	-1	SUMMIT	1405	5	-1	n/a	n/a	n/a	n/a	n/a
4394150	RECOG_TARGET	n/a	LTP103	ltpFR	0	10	1	LADDER	793	2	0	n/a	n/a	n/a	n/a	n/a
4396276	RECOG_RESP	n/a	LTP103	ltpFR	0	10	1	LADDER	793	n/a	0	n/a	n/a	n/a	n/a	n/a
4397583	RECOG_CONF	n/a	LTP103	ltpFR	0	10	1	LADDER	793	2	0	n/a	n/a	n/a	n/a	n/a
4399078	RECOG_LURE	n/a	LTP103	ltpFR	0	10	n/a	MOB	904	3	n/a	n/a	n/a	n/a	n/a	n/a
4400137	RECOG_RESP	n/a	LTP103	ltpFR	0	10	n/a	MOB	904	n/a	n/a	n/a	n/a	n/a	n/a	n/a
4401155	RECOG_CONF	n/a	LTP103	ltpFR	0	10	n/a	MOB	904	3	n/a	n/a	n/a	n/a	n/a	n/a
4402583	RECOG_TARGET	n/a	LTP103	ltpFR	0	10	1	NOMAD	955	5	1	n/a	n/a	n/a	n/a	n/a
4403959	RECOG_RESP	n/a	LTP103	ltpFR	0	10	1	NOMAD	955	n/a	1	n/a	n/a	n/a	n/a	n/a
4404907	RECOG_CONF	n/a	LTP103	ltpFR	0	10	1	NOMAD	955	5	1	n/a	n/a	n/a	n/a	n/a
4406470	RECOG_LURE	n/a	LTP103	ltpFR	0	10	n/a	DOLL	481	3	n/a	n/a	n/a	n/a	n/a	n/a
4409217	RECOG_RESP	n/a	LTP103	ltpFR	0	10	n/a	DOLL	481	n/a	n/a	n/a	n/a	n/a	n/a	n/a
4410683	RECOG_CONF	n/a	LTP103	ltpFR	0	10	n/a	DOLL	481	3	n/a	n/a	n/a	n/a	n/a	n/a
4412246	RECOG_TARGET	n/a	LTP103	ltpFR	0	10	1	SPY	1360	5	1	n/a	n/a	n/a	n/a	n/a
4413757	RECOG_RESP	n/a	LTP103	ltpFR	0	10	1	SPY	1360	n/a	1	n/a	n/a	n/a	n/a	n/a
4414694	RECOG_CONF	n/a	LTP103	ltpFR	0	10	1	SPY	1360	5	1	n/a	n/a	n/a	n/a	n/a
4416417	RECOG_TARGET	n/a	LTP103	ltpFR	0	10	1	SANDWICH	1232	5	0	n/a	n/a	n/a	n/a	n/a
4417209	RECOG_RESP	n/a	LTP103	ltpFR	0	10	1	SANDWICH	1232	n/a	0	n/a	n/a	n/a	n/a	n/a
4418127	RECOG_CONF	n/a	LTP103	ltpFR	0	10	1	SANDWICH	1232	5	0	n/a	n/a	n/a	n/a	n/a
4419638	RECOG_TARGET	n/a	LTP103	ltpFR	0	10	1	CEILING	265	5	0	n/a	n/a	n/a	n/a	n/a
4420471	RECOG_RESP	n/a	LTP103	ltpFR	0	10	1	CEILING	265	n/a	0	n/a	n/a	n/a	n/a	n/a
4421449	RECOG_CONF	n/a	LTP103	ltpFR	0	10	1	CEILING	265	5	0	n/a	n/a	n/a	n/a	n/a
4423033	RECOG_LURE	n/a	LTP103	ltpFR	0	10	n/a	COUCH	386	5	n/a	n/a	n/a	n/a	n/a	n/a
4423814	RECOG_RESP	n/a	LTP103	ltpFR	0	10	n/a	COUCH	386	n/a	n/a	n/a	n/a	n/a	n/a	n/a
4424791	RECOG_CONF	n/a	LTP103	ltpFR	0	10	n/a	COUCH	386	5	n/a	n/a	n/a	n/a	n/a	n/a
4426271	RECOG_TARGET	n/a	LTP103	ltpFR	0	10	-1	JEEP	753	5	-1	n/a	n/a	n/a	n/a	n/a
4427096	RECOG_RESP	n/a	LTP103	ltpFR	0	10	-1	JEEP	753	n/a	-1	n/a	n/a	n/a	n/a	n/a
4428453	RECOG_CONF	n/a	LTP103	ltpFR	0	10	-1	JEEP	753	5	-1	n/a	n/a	n/a	n/a	n/a
4430017	RECOG_LURE	n/a	LTP103	ltpFR	0	10	n/a	BUILDING	191	3	n/a	n/a	n/a	n/a	n/a	n/a
4432644	RECOG_RESP	n/a	LTP103	ltpFR	0	10	n/a	BUILDING	191	n/a	n/a	n/a	n/a	n/a	n/a	n/a
4433661	RECOG_CONF	n/a	LTP103	ltpFR	0	10	n/a	BUILDING	191	3	n/a	n/a	n/a	n/a	n/a	n/a
4435161	RECOG_LURE	n/a	LTP103	ltpFR	0	10	n/a	ATHLETE	52	2	n/a	n/a	n/a	n/a	n/a	n/a
4436295	RECOG_RESP	n/a	LTP103	ltpFR	0	10	n/a	ATHLETE	52	n/a	n/a	n/a	n/a	n/a	n/a	n/a
4437493	RECOG_CONF	n/a	LTP103	ltpFR	0	10	n/a	ATHLETE	52	2	n/a	n/a	n/a	n/a	n/a	n/a
4439064	RECOG_LURE	n/a	LTP103	ltpFR	0	10	n/a	BREAST	171	3	n/a	n/a	n/a	n/a	n/a	n/a
4441234	RECOG_RESP	n/a	LTP103	ltpFR	0	10	n/a	BREAST	171	n/a	n/a	n/a	n/a	n/a	n/a	n/a
4442282	RECOG_CONF	n/a	LTP103	ltpFR	0	10	n/a	BREAST	171	3	n/a	n/a	n/a	n/a	n/a	n/a
4443652	RECOG_LURE	n/a	LTP103	ltpFR	0	10	n/a	TEAM	1441	3	n/a	n/a	n/a	n/a	n/a	n/a
4444706	RECOG_RESP	n/a	LTP103	ltpFR	0	10	n/a	TEAM	1441	n/a	n/a	n/a	n/a	n/a	n/a	n/a
4445684	RECOG_CONF	n/a	LTP103	ltpFR	0	10	n/a	TEAM	1441	3	n/a	n/a	n/a	n/a	n/a	n/a
4451216	REC_START	n/a	LTP103	ltpFR	0	11	n/a	n/a	n/a	n/a	n/a	n/a	n/a	n/a	n/a	n/a
4451242	RECOG_TARGET	n/a	LTP103	ltpFR	0	11	-1	WINGS	1614	2	-1	n/a	n/a	n/a	n/a	n/a
4452488	RECOG_RESP	n/a	LTP103	ltpFR	0	11	-1	WINGS	1614	n/a	-1	n/a	n/a	n/a	n/a	n/a
4453575	RECOG_CONF	n/a	LTP103	ltpFR	0	11	-1	WINGS	1614	2	-1	n/a	n/a	n/a	n/a	n/a
4455004	RECOG_LURE	n/a	LTP103	ltpFR	0	11	n/a	GRAVE	658	2	n/a	n/a	n/a	n/a	n/a	n/a
4455880	RECOG_RESP	n/a	LTP103	ltpFR	0	11	n/a	GRAVE	658	n/a	n/a	n/a	n/a	n/a	n/a	n/a
4457058	RECOG_CONF	n/a	LTP103	ltpFR	0	11	n/a	GRAVE	658	2	n/a	n/a	n/a	n/a	n/a	n/a
4458543	RECOG_LURE	n/a	LTP103	ltpFR	0	11	n/a	SUN	1406	5	n/a	n/a	n/a	n/a	n/a	n/a
4460789	RECOG_RESP	n/a	LTP103	ltpFR	0	11	n/a	SUN	1406	n/a	n/a	n/a	n/a	n/a	n/a	n/a
4462206	RECOG_CONF	n/a	LTP103	ltpFR	0	11	n/a	SUN	1406	5	n/a	n/a	n/a	n/a	n/a	n/a
4463579	RECOG_TARGET	n/a	LTP103	ltpFR	0	11	0	VEGETABLE	1552	4	0	n/a	n/a	n/a	n/a	n/a
4464790	RECOG_RESP	n/a	LTP103	ltpFR	0	11	0	VEGETABLE	1552	n/a	0	n/a	n/a	n/a	n/a	n/a
4465907	RECOG_CONF	n/a	LTP103	ltpFR	0	11	0	VEGETABLE	1552	4	0	n/a	n/a	n/a	n/a	n/a
4467449	RECOG_TARGET	n/a	LTP103	ltpFR	0	11	0	COMPASS	358	5	0	n/a	n/a	n/a	n/a	n/a
4468232	RECOG_RESP	n/a	LTP103	ltpFR	0	11	0	COMPASS	358	n/a	0	n/a	n/a	n/a	n/a	n/a
4469150	RECOG_CONF	n/a	LTP103	ltpFR	0	11	0	COMPASS	358	5	0	n/a	n/a	n/a	n/a	n/a
4470637	RECOG_LURE	n/a	LTP103	ltpFR	0	11	n/a	SURF	1412	4	n/a	n/a	n/a	n/a	n/a	n/a
4471994	RECOG_RESP	n/a	LTP103	ltpFR	0	11	n/a	SURF	1412	n/a	n/a	n/a	n/a	n/a	n/a	n/a
4472931	RECOG_CONF	n/a	LTP103	ltpFR	0	11	n/a	SURF	1412	4	n/a	n/a	n/a	n/a	n/a	n/a
4474249	RECOG_TARGET	n/a	LTP103	ltpFR	0	11	0	CARROT	249	4	0	n/a	n/a	n/a	n/a	n/a
4475745	RECOG_RESP	n/a	LTP103	ltpFR	0	11	0	CARROT	249	n/a	0	n/a	n/a	n/a	n/a	n/a
4477561	RECOG_CONF	n/a	LTP103	ltpFR	0	11	0	CARROT	249	4	0	n/a	n/a	n/a	n/a	n/a
4478943	RECOG_TARGET	n/a	LTP103	ltpFR	0	11	1	SAW	1239	3	0	n/a	n/a	n/a	n/a	n/a
4480953	RECOG_RESP	n/a	LTP103	ltpFR	0	11	1	SAW	1239	n/a	0	n/a	n/a	n/a	n/a	n/a
4482769	RECOG_CONF	n/a	LTP103	ltpFR	0	11	1	SAW	1239	3	0	n/a	n/a	n/a	n/a	n/a
4484270	RECOG_TARGET	n/a	LTP103	ltpFR	0	11	1	RIDER	1191	4	1	n/a	n/a	n/a	n/a	n/a
4485184	RECOG_RESP	n/a	LTP103	ltpFR	0	11	1	RIDER	1191	n/a	1	n/a	n/a	n/a	n/a	n/a
4486351	RECOG_CONF	n/a	LTP103	ltpFR	0	11	1	RIDER	1191	4	1	n/a	n/a	n/a	n/a	n/a
4487667	RECOG_TARGET	n/a	LTP103	ltpFR	0	11	-1	AUTOMOBILE	62	5	-1	n/a	n/a	n/a	n/a	n/a
4488626	RECOG_RESP	n/a	LTP103	ltpFR	0	11	-1	AUTOMOBILE	62	n/a	-1	n/a	n/a	n/a	n/a	n/a
4489484	RECOG_CONF	n/a	LTP103	ltpFR	0	11	-1	AUTOMOBILE	62	5	-1	n/a	n/a	n/a	n/a	n/a
4490780	RECOG_LURE	n/a	LTP103	ltpFR	0	11	n/a	CRYSTAL	418	3	n/a	n/a	n/a	n/a	n/a	n/a
4492008	RECOG_RESP	n/a	LTP103	ltpFR	0	11	n/a	CRYSTAL	418	n/a	n/a	n/a	n/a	n/a	n/a	n/a
4493136	RECOG_CONF	n/a	LTP103	ltpFR	0	11	n/a	CRYSTAL	418	3	n/a	n/a	n/a	n/a	n/a	n/a
4494584	RECOG_TARGET	n/a	LTP103	ltpFR	0	11	0	MOP	916	4	0	n/a	n/a	n/a	n/a	n/a
4497236	RECOG_RESP	n/a	LTP103	ltpFR	0	11	0	MOP	916	n/a	0	n/a	n/a	n/a	n/a	n/a
4498523	RECOG_CONF	n/a	LTP103	ltpFR	0	11	0	MOP	916	4	0	n/a	n/a	n/a	n/a	n/a
4499994	RECOG_TARGET	n/a	LTP103	ltpFR	0	11	0	STEAM	1375	5	0	n/a	n/a	n/a	n/a	n/a
4500738	RECOG_RESP	n/a	LTP103	ltpFR	0	11	0	STEAM	1375	n/a	0	n/a	n/a	n/a	n/a	n/a
4501716	RECOG_CONF	n/a	LTP103	ltpFR	0	11	0	STEAM	1375	5	0	n/a	n/a	n/a	n/a	n/a
4503049	RECOG_TARGET	n/a	LTP103	ltpFR	0	11	-1	ISLAND	745	5	-1	n/a	n/a	n/a	n/a	n/a
