onset	duration	trial_type	sample	stim_file	subject	experiment	session	trial	task	item_name	item_num	recog_conf	resp	color_b	color_g	color_r	case	font
253.614	n/a	SESS_START	126807	n/a	LTP135	ltpFR	18	n/a	n/a	n/a	n/a	1	n/a	n/a	n/a	n/a	n/a	n/a
303.976	n/a	WORD	151988	wordpools/wasnorm_wordpool.txt	LTP135	ltpFR	18	1	1	FOX	598	n/a	1	0	0.5869140625	0.422607421875	upper	../fonts/amplitud.ttf
308.042	n/a	WORD	154021	wordpools/wasnorm_wordpool.txt	LTP135	ltpFR	18	1	1	DESSERT	453	n/a	0	0	0.5869140625	0.422607421875	upper	../fonts/amplitud.ttf
312.074	n/a	WORD	156037	wordpools/wasnorm_wordpool.txt	LTP135	ltpFR	18	1	1	POWDER	1117	n/a	0	0	0.5869140625	0.422607421875	upper	../fonts/amplitud.ttf
316.006	n/a	WORD	158003	wordpools/wasnorm_wordpool.txt	LTP135	ltpFR	18	1	0	ANT	25	n/a	0	1	0.412841796875	0.57763671875	lower	../fonts/zerothre.ttf
320.162	n/a	WORD	160081	wordpools/wasnorm_wordpool.txt	LTP135	ltpFR	18	1	0	CLIMBER	323	n/a	1	1	0.412841796875	0.57763671875	lower	../fonts/zerothre.ttf
324.262	n/a	WORD	162131	wordpools/wasnorm_wordpool.txt	LTP135	ltpFR	18	1	0	GOO	648	n/a	0	1	0.412841796875	0.57763671875	lower	../fonts/zerothre.ttf
328.102	n/a	WORD	164051	wordpools/wasnorm_wordpool.txt	LTP135	ltpFR	18	1	1	TIDE	1465	n/a	0	0	0.5869140625	0.422607421875	upper	../fonts/amplitud.ttf
332.302	n/a	WORD	166151	wordpools/wasnorm_wordpool.txt	LTP135	ltpFR	18	1	1	COOLER	375	n/a	0	0	0.5869140625	0.422607421875	upper	../fonts/amplitud.ttf
336.482	n/a	WORD	168241	wordpools/wasnorm_wordpool.txt	LTP135	ltpFR	18	1	0	SWIMMER	1420	n/a	1	1	0.412841796875	0.57763671875	lower	../fonts/zerothre.ttf
340.548	n/a	WORD	170274	wordpools/wasnorm_wordpool.txt	LTP135	ltpFR	18	1	0	SENATE	1267	n/a	1	1	0.412841796875	0.57763671875	lower	../fonts/zerothre.ttf
344.73	n/a	WORD	172365	wordpools/wasnorm_wordpool.txt	LTP135	ltpFR	18	1	0	ROOF	1205	n/a	1	1	0.412841796875	0.57763671875	lower	../fonts/zerothre.ttf
348.738	n/a	WORD	174369	wordpools/wasnorm_wordpool.txt	LTP135	ltpFR	18	1	0	DIRECTOR	471	n/a	1	1	0.412841796875	0.57763671875	lower	../fonts/zerothre.ttf
352.71	n/a	WORD	176355	wordpools/wasnorm_wordpool.txt	LTP135	ltpFR	18	1	0	SKI	1316	n/a	1	1	0.412841796875	0.57763671875	lower	../fonts/zerothre.ttf
356.726	n/a	WORD	178363	wordpools/wasnorm_wordpool.txt	LTP135	ltpFR	18	1	1	YARN	1631	n/a	0	0	0.5869140625	0.422607421875	upper	../fonts/amplitud.ttf
360.758	n/a	WORD	180379	wordpools/wasnorm_wordpool.txt	LTP135	ltpFR	18	1	1	HAYSTACK	694	n/a	0	0	0.5869140625	0.422607421875	upper	../fonts/amplitud.ttf
364.966	n/a	WORD	182483	wordpools/wasnorm_wordpool.txt	LTP135	ltpFR	18	1	1	FUDGE	611	n/a	0	0	0.5869140625	0.422607421875	upper	../fonts/amplitud.ttf
370.732	n/a	REC_START	185366	n/a	LTP135	ltpFR	18	1	n/a	n/a	n/a	n/a	n/a	n/a	n/a	n/a	n/a	n/a
372.802	n/a	REC_WORD	186401	wordpools/wasnorm_wordpool.txt	LTP135	ltpFR	18	1	1	YARN	1631	n/a	0	n/a	n/a	n/a	n/a	n/a
374.382	n/a	REC_WORD	187191	wordpools/wasnorm_wordpool.txt	LTP135	ltpFR	18	1	1	HAYSTACK	694	n/a	0	n/a	n/a	n/a	n/a	n/a
375.774	n/a	REC_WORD	187887	wordpools/wasnorm_wordpool.txt	LTP135	ltpFR	18	1	1	FUDGE	611	n/a	0	n/a	n/a	n/a	n/a	n/a
377.332	n/a	REC_WORD	188666	wordpools/wasnorm_wordpool.txt	LTP135	ltpFR	18	1	1	COOLER	375	n/a	0	n/a	n/a	n/a	n/a	n/a
378.744	n/a	REC_WORD	189372	wordpools/wasnorm_wordpool.txt	LTP135	ltpFR	18	1	0	SWIMMER	1420	n/a	1	n/a	n/a	n/a	n/a	n/a
380.25	n/a	REC_WORD	190125	wordpools/wasnorm_wordpool.txt	LTP135	ltpFR	18	1	0	DIRECTOR	471	n/a	1	n/a	n/a	n/a	n/a	n/a
381.656	n/a	REC_WORD	190828	wordpools/wasnorm_wordpool.txt	LTP135	ltpFR	18	1	0	SENATE	1267	n/a	1	n/a	n/a	n/a	n/a	n/a
383.254	n/a	REC_WORD	191627	wordpools/wasnorm_wordpool.txt	LTP135	ltpFR	18	1	0	CLIMBER	323	n/a	1	n/a	n/a	n/a	n/a	n/a
384.716	n/a	REC_WORD	192358	wordpools/wasnorm_wordpool.txt	LTP135	ltpFR	18	1	1	DESSERT	453	n/a	0	n/a	n/a	n/a	n/a	n/a
386.216	n/a	REC_WORD	193108	wordpools/wasnorm_wordpool.txt	LTP135	ltpFR	18	1	1	FOX	598	n/a	1	n/a	n/a	n/a	n/a	n/a
387.584	n/a	REC_WORD	193792	wordpools/wasnorm_wordpool.txt	LTP135	ltpFR	18	1	1	FUDGE	611	n/a	0	n/a	n/a	n/a	n/a	n/a
389.156	n/a	REC_WORD	194578	wordpools/wasnorm_wordpool.txt	LTP135	ltpFR	18	1	0	ANT	25	n/a	0	n/a	n/a	n/a	n/a	n/a
399.022	n/a	REC_WORD	199511	wordpools/wasnorm_wordpool.txt	LTP135	ltpFR	18	1	0	SKI	1316	n/a	1	n/a	n/a	n/a	n/a	n/a
411.47	n/a	REC_WORD	205735	wordpools/wasnorm_wordpool.txt	LTP135	ltpFR	18	1	1	FUDGE	611	n/a	0	n/a	n/a	n/a	n/a	n/a
430.464	n/a	REC_WORD	215232	wordpools/wasnorm_wordpool.txt	LTP135	ltpFR	18	1	1	POWDER	1117	n/a	0	n/a	n/a	n/a	n/a	n/a
462.246	n/a	WORD	231123	wordpools/wasnorm_wordpool.txt	LTP135	ltpFR	18	2	0	SCREW	1254	n/a	0	1	0.412841796875	0.57763671875	lower	../fonts/zerothre.ttf
466.384	n/a	WORD	233192	wordpools/wasnorm_wordpool.txt	LTP135	ltpFR	18	2	0	PROTON	1132	n/a	0	1	0.412841796875	0.57763671875	lower	../fonts/zerothre.ttf
470.434	n/a	WORD	235217	wordpools/wasnorm_wordpool.txt	LTP135	ltpFR	18	2	0	SUPERVISOR	1410	n/a	1	1	0.412841796875	0.57763671875	lower	../fonts/zerothre.ttf
474.482	n/a	WORD	237241	wordpools/wasnorm_wordpool.txt	LTP135	ltpFR	18	2	0	WIDOW	1608	n/a	1	1	0.412841796875	0.57763671875	lower	../fonts/zerothre.ttf
478.632	n/a	WORD	239316	wordpools/wasnorm_wordpool.txt	LTP135	ltpFR	18	2	1	COAL	332	n/a	0	0	0.5869140625	0.422607421875	upper	../fonts/amplitud.ttf
482.63	n/a	WORD	241315	wordpools/wasnorm_wordpool.txt	LTP135	ltpFR	18	2	1	COIN	343	n/a	0	0	0.5869140625	0.422607421875	upper	../fonts/amplitud.ttf
486.694	n/a	WORD	243347	wordpools/wasnorm_wordpool.txt	LTP135	ltpFR	18	2	1	COLLEGE	346	n/a	0	0	0.5869140625	0.422607421875	upper	../fonts/amplitud.ttf
490.586	n/a	WORD	245293	wordpools/wasnorm_wordpool.txt	LTP135	ltpFR	18	2	1	GRADUATE	653	n/a	1	0	0.5869140625	0.422607421875	upper	../fonts/amplitud.ttf
494.484	n/a	WORD	247242	wordpools/wasnorm_wordpool.txt	LTP135	ltpFR	18	2	0	COSTUME	383	n/a	1	1	0.412841796875	0.57763671875	lower	../fonts/zerothre.ttf
498.626	n/a	WORD	249313	wordpools/wasnorm_wordpool.txt	LTP135	ltpFR	18	2	0	VAULT	1550	n/a	1	1	0.412841796875	0.57763671875	lower	../fonts/zerothre.ttf
502.756	n/a	WORD	251378	wordpools/wasnorm_wordpool.txt	LTP135	ltpFR	18	2	0	TERMINAL	1450	n/a	1	1	0.412841796875	0.57763671875	lower	../fonts/zerothre.ttf
506.822	n/a	WORD	253411	wordpools/wasnorm_wordpool.txt	LTP135	ltpFR	18	2	0	ATTIRE	57	n/a	0	1	0.412841796875	0.57763671875	lower	../fonts/zerothre.ttf
510.762	n/a	WORD	255381	wordpools/wasnorm_wordpool.txt	LTP135	ltpFR	18	2	1	ISLAND	745	n/a	0	0	0.5869140625	0.422607421875	upper	../fonts/amplitud.ttf
514.604	n/a	WORD	257302	wordpools/wasnorm_wordpool.txt	LTP135	ltpFR	18	2	1	LAKE	796	n/a	0	0	0.5869140625	0.422607421875	upper	../fonts/amplitud.ttf
518.46	n/a	WORD	259230	wordpools/wasnorm_wordpool.txt	LTP135	ltpFR	18	2	1	TYPEWRITER	1531	n/a	0	0	0.5869140625	0.422607421875	upper	../fonts/amplitud.ttf
522.318	n/a	WORD	261159	wordpools/wasnorm_wordpool.txt	LTP135	ltpFR	18	2	1	SKUNK	1321	n/a	1	0	0.5869140625	0.422607421875	upper	../fonts/amplitud.ttf
528.326	n/a	REC_START	264163	n/a	LTP135	ltpFR	18	2	n/a	n/a	n/a	n/a	n/a	n/a	n/a	n/a	n/a	n/a
529.198	n/a	REC_WORD	264599	wordpools/wasnorm_wordpool.txt	LTP135	ltpFR	18	2	1	SKUNK	1321	n/a	1	n/a	n/a	n/a	n/a	n/a
530.65	n/a	REC_WORD	265325	wordpools/wasnorm_wordpool.txt	LTP135	ltpFR	18	2	1	TYPEWRITER	1531	n/a	0	n/a	n/a	n/a	n/a	n/a
532.65	n/a	REC_WORD	266325	wordpools/wasnorm_wordpool.txt	LTP135	ltpFR	18	2	1	ISLAND	745	n/a	0	n/a	n/a	n/a	n/a	n/a
533.878	n/a	REC_WORD	266939	wordpools/wasnorm_wordpool.txt	LTP135	ltpFR	18	2	1	LAKE	796	n/a	0	n/a	n/a	n/a	n/a	n/a
536.962	n/a	REC_WORD	268481	wordpools/wasnorm_wordpool.txt	LTP135	ltpFR	18	2	0	ATTIRE	57	n/a	0	n/a	n/a	n/a	n/a	n/a
538.988	n/a	REC_WORD	269494	wordpools/wasnorm_wordpool.txt	LTP135	ltpFR	18	2	0	COSTUME	383	n/a	1	n/a	n/a	n/a	n/a	n/a
544.838	n/a	REC_WORD	272419	wordpools/wasnorm_wordpool.txt	LTP135	ltpFR	18	2	0	WIDOW	1608	n/a	1	n/a	n/a	n/a	n/a	n/a
547.678	n/a	REC_WORD	273839	wordpools/wasnorm_wordpool.txt	LTP135	ltpFR	18	2	0	SUPERVISOR	1410	n/a	1	n/a	n/a	n/a	n/a	n/a
548.678	n/a	REC_WORD_VV	274339	wordpools/wasnorm_wordpool.txt	LTP135	ltpFR	18	2	n/a	<>	-1	n/a	n/a	n/a	n/a	n/a	n/a	n/a
553.14	n/a	REC_WORD	276570	wordpools/wasnorm_wordpool.txt	LTP135	ltpFR	18	2	0	SCREW	1254	n/a	0	n/a	n/a	n/a	n/a	n/a
554.812	n/a	REC_WORD	277406	wordpools/wasnorm_wordpool.txt	LTP135	ltpFR	18	2	0	PROTON	1132	n/a	0	n/a	n/a	n/a	n/a	n/a
560.26	n/a	REC_WORD	280130	wordpools/wasnorm_wordpool.txt	LTP135	ltpFR	18	2	0	COSTUME	383	n/a	1	n/a	n/a	n/a	n/a	n/a
573.006	n/a	REC_WORD	286503	wordpools/wasnorm_wordpool.txt	LTP135	ltpFR	18	2	1	LAKE	796	n/a	0	n/a	n/a	n/a	n/a	n/a
610.732	n/a	WORD	305366	wordpools/wasnorm_wordpool.txt	LTP135	ltpFR	18	3	-1	CARAVAN	242	n/a	-1	1	1.0	1.0	upper	../fonts/Verdana.ttf
614.898	n/a	WORD	307449	wordpools/wasnorm_wordpool.txt	LTP135	ltpFR	18	3	-1	SUBMARINE	1398	n/a	-1	1	1.0	1.0	upper	../fonts/Verdana.ttf
618.764	n/a	WORD	309382	wordpools/wasnorm_wordpool.txt	LTP135	ltpFR	18	3	-1	PAINTER	1004	n/a	-1	1	1.0	1.0	upper	../fonts/Verdana.ttf
622.72	n/a	WORD	311360	wordpools/wasnorm_wordpool.txt	LTP135	ltpFR	18	3	-1	MONUMENT	913	n/a	-1	1	1.0	1.0	upper	../fonts/Verdana.ttf
626.778	n/a	WORD	313389	wordpools/wasnorm_wordpool.txt	LTP135	ltpFR	18	3	-1	COUNTRY	388	n/a	-1	1	1.0	1.0	upper	../fonts/Verdana.ttf
630.978	n/a	WORD	315489	wordpools/wasnorm_wordpool.txt	LTP135	ltpFR	18	3	-1	SCULPTURE	1258	n/a	-1	1	1.0	1.0	upper	../fonts/Verdana.ttf
634.8	n/a	WORD	317400	wordpools/wasnorm_wordpool.txt	LTP135	ltpFR	18	3	-1	SHOWER	1296	n/a	-1	1	1.0	1.0	upper	../fonts/Verdana.ttf
639.008	n/a	WORD	319504	wordpools/wasnorm_wordpool.txt	LTP135	ltpFR	18	3	-1	KANGAROO	768	n/a	-1	1	1.0	1.0	upper	../fonts/Verdana.ttf
642.94	n/a	WORD	321470	wordpools/wasnorm_wordpool.txt	LTP135	ltpFR	18	3	-1	MOTOR	922	n/a	-1	1	1.0	1.0	upper	../fonts/Verdana.ttf
646.856	n/a	WORD	323428	wordpools/wasnorm_wordpool.txt	LTP135	ltpFR	18	3	-1	FREEWAY	603	n/a	-1	1	1.0	1.0	upper	../fonts/Verdana.ttf
650.972	n/a	WORD	325486	wordpools/wasnorm_wordpool.txt	LTP135	ltpFR	18	3	-1	CHAPEL	280	n/a	-1	1	1.0	1.0	upper	../fonts/Verdana.ttf
654.928	n/a	WORD	327464	wordpools/wasnorm_wordpool.txt	LTP135	ltpFR	18	3	-1	BANDANNA	80	n/a	-1	1	1.0	1.0	upper	../fonts/Verdana.ttf
659.052	n/a	WORD	329526	wordpools/wasnorm_wordpool.txt	LTP135	ltpFR	18	3	-1	GREASE	660	n/a	-1	1	1.0	1.0	upper	../fonts/Verdana.ttf
663.1	n/a	WORD	331550	wordpools/wasnorm_wordpool.txt	LTP135	ltpFR	18	3	-1	HERO	706	n/a	-1	1	1.0	1.0	upper	../fonts/Verdana.ttf
667.016	n/a	WORD	333508	wordpools/wasnorm_wordpool.txt	LTP135	ltpFR	18	3	-1	GROCERIES	663	n/a	-1	1	1.0	1.0	upper	../fonts/Verdana.ttf
671.09	n/a	WORD	335545	wordpools/wasnorm_wordpool.txt	LTP135	ltpFR	18	3	-1	SAUSAGE	1238	n/a	-1	1	1.0	1.0	upper	../fonts/Verdana.ttf
676.914	n/a	REC_START	338457	n/a	LTP135	ltpFR	18	3	n/a	n/a	n/a	n/a	n/a	n/a	n/a	n/a	n/a	n/a
677.618	n/a	REC_WORD	338809	wordpools/wasnorm_wordpool.txt	LTP135	ltpFR	18	3	-1	SAUSAGE	1238	n/a	-1	n/a	n/a	n/a	n/a	n/a
678.618	n/a	REC_WORD_VV	339309	wordpools/wasnorm_wordpool.txt	LTP135	ltpFR	18	3	n/a	<>	-1	n/a	n/a	n/a	n/a	n/a	n/a	n/a
679.12	n/a	REC_WORD	339560	wordpools/wasnorm_wordpool.txt	LTP135	ltpFR	18	3	-1	GROCERIES	663	n/a	-1	n/a	n/a	n/a	n/a	n/a
680.12	n/a	REC_WORD_VV	340060	wordpools/wasnorm_wordpool.txt	LTP135	ltpFR	18	3	n/a	<>	-1	n/a	n/a	n/a	n/a	n/a	n/a	n/a
680.906	n/a	REC_WORD	340453	wordpools/wasnorm_wordpool.txt	LTP135	ltpFR	18	3	-1	HERO	706	n/a	-1	n/a	n/a	n/a	n/a	n/a
683.19	n/a	REC_WORD	341595	wordpools/wasnorm_wordpool.txt	LTP135	ltpFR	18	3	-1	BANDANNA	80	n/a	-1	n/a	n/a	n/a	n/a	n/a
684.19	n/a	REC_WORD_VV	342095	wordpools/wasnorm_wordpool.txt	LTP135	ltpFR	18	3	n/a	<>	-1	n/a	n/a	n/a	n/a	n/a	n/a	n/a
686.598	n/a	REC_WORD	343299	wordpools/wasnorm_wordpool.txt	LTP135	ltpFR	18	3	-1	PAINTER	1004	n/a	-1	n/a	n/a	n/a	n/a	n/a
688.134	n/a	REC_WORD	344067	wordpools/wasnorm_wordpool.txt	LTP135	ltpFR	18	3	-1	SCULPTURE	1258	n/a	-1	n/a	n/a	n/a	n/a	n/a
689.134	n/a	REC_WORD_VV	344567	wordpools/wasnorm_wordpool.txt	LTP135	ltpFR	18	3	n/a	<>	-1	n/a	n/a	n/a	n/a	n/a	n/a	n/a
690.768	n/a	REC_WORD	345384	wordpools/wasnorm_wordpool.txt	LTP135	ltpFR	18	3	-1	SUBMARINE	1398	n/a	-1	n/a	n/a	n/a	n/a	n/a
694.854	n/a	REC_WORD	347427	wordpools/wasnorm_wordpool.txt	LTP135	ltpFR	18	3	-1	SHOWER	1296	n/a	-1	n/a	n/a	n/a	n/a	n/a
712.24	n/a	REC_WORD	356120	wordpools/wasnorm_wordpool.txt	LTP135	ltpFR	18	3	-1	CARAVAN	242	n/a	-1	n/a	n/a	n/a	n/a	n/a
734.766	n/a	REC_WORD	367383	wordpools/wasnorm_wordpool.txt	LTP135	ltpFR	18	3	-1	MOTOR	922	n/a	-1	n/a	n/a	n/a	n/a	n/a
749.548	n/a	REC_WORD	374774	wordpools/wasnorm_wordpool.txt	LTP135	ltpFR	18	3	-1	FREEWAY	603	n/a	-1	n/a	n/a	n/a	n/a	n/a
766.07	n/a	WORD	383035	wordpools/wasnorm_wordpool.txt	LTP135	ltpFR	18	4	0	ARCHITECT	36	n/a	1	1	0.412841796875	0.57763671875	lower	../fonts/zerothre.ttf
770.252	n/a	WORD	385126	wordpools/wasnorm_wordpool.txt	LTP135	ltpFR	18	4	0	REPTILE	1185	n/a	0	1	0.412841796875	0.57763671875	lower	../fonts/zerothre.ttf
774.334	n/a	WORD	387167	wordpools/wasnorm_wordpool.txt	LTP135	ltpFR	18	4	0	PARSLEY	1016	n/a	0	1	0.412841796875	0.57763671875	lower	../fonts/zerothre.ttf
778.332	n/a	WORD	389166	wordpools/wasnorm_wordpool.txt	LTP135	ltpFR	18	4	0	YOUTH	1634	n/a	1	1	0.412841796875	0.57763671875	lower	../fonts/zerothre.ttf
782.422	n/a	WORD	391211	wordpools/wasnorm_wordpool.txt	LTP135	ltpFR	18	4	0	PRESIDENT	1121	n/a	1	1	0.412841796875	0.57763671875	lower	../fonts/zerothre.ttf
786.554	n/a	WORD	393277	wordpools/wasnorm_wordpool.txt	LTP135	ltpFR	18	4	0	LAGOON	795	n/a	1	1	0.412841796875	0.57763671875	lower	../fonts/zerothre.ttf
790.402	n/a	WORD	395201	wordpools/wasnorm_wordpool.txt	LTP135	ltpFR	18	4	1	LEOPARD	812	n/a	1	0	0.5869140625	0.422607421875	upper	../fonts/amplitud.ttf
794.328	n/a	WORD	397164	wordpools/wasnorm_wordpool.txt	LTP135	ltpFR	18	4	1	VAN	1548	n/a	0	0	0.5869140625	0.422607421875	upper	../fonts/amplitud.ttf
798.476	n/a	WORD	399238	wordpools/wasnorm_wordpool.txt	LTP135	ltpFR	18	4	1	BRAKE	166	n/a	0	0	0.5869140625	0.422607421875	upper	../fonts/amplitud.ttf
802.632	n/a	WORD	401316	wordpools/wasnorm_wordpool.txt	LTP135	ltpFR	18	4	1	LEADER	807	n/a	1	0	0.5869140625	0.422607421875	upper	../fonts/amplitud.ttf
806.456	n/a	WORD	403228	wordpools/wasnorm_wordpool.txt	LTP135	ltpFR	18	4	0	DINNER	468	n/a	0	1	0.412841796875	0.57763671875	lower	../fonts/zerothre.ttf
810.638	n/a	WORD	405319	wordpools/wasnorm_wordpool.txt	LTP135	ltpFR	18	4	0	STORE	1387	n/a	1	1	0.412841796875	0.57763671875	lower	../fonts/zerothre.ttf
814.846	n/a	WORD	407423	wordpools/wasnorm_wordpool.txt	LTP135	ltpFR	18	4	1	BRIDGE	174	n/a	0	0	0.5869140625	0.422607421875	upper	../fonts/amplitud.ttf
819.004	n/a	WORD	409502	wordpools/wasnorm_wordpool.txt	LTP135	ltpFR	18	4	1	CUCUMBER	421	n/a	0	0	0.5869140625	0.422607421875	upper	../fonts/amplitud.ttf
823.07	n/a	WORD	411535	wordpools/wasnorm_wordpool.txt	LTP135	ltpFR	18	4	1	QUAIL	1147	n/a	1	0	0.5869140625	0.422607421875	upper	../fonts/amplitud.ttf
827.276	n/a	WORD	413638	wordpools/wasnorm_wordpool.txt	LTP135	ltpFR	18	4	1	SEAGULL	1261	n/a	1	0	0.5869140625	0.422607421875	upper	../fonts/amplitud.ttf
833.092	n/a	REC_START	416546	n/a	LTP135	ltpFR	18	4	n/a	n/a	n/a	n/a	n/a	n/a	n/a	n/a	n/a	n/a
834.328	n/a	REC_WORD	417164	wordpools/wasnorm_wordpool.txt	LTP135	ltpFR	18	4	1	SEAGULL	1261	n/a	1	n/a	n/a	n/a	n/a	n/a
835.772	n/a	REC_WORD	417886	wordpools/wasnorm_wordpool.txt	LTP135	ltpFR	18	4	1	QUAIL	1147	n/a	1	n/a	n/a	n/a	n/a	n/a
837.508	n/a	REC_WORD	418754	wordpools/wasnorm_wordpool.txt	LTP135	ltpFR	18	4	1	CUCUMBER	421	n/a	0	n/a	n/a	n/a	n/a	n/a
839.668	n/a	REC_WORD	419834	wordpools/wasnorm_wordpool.txt	LTP135	ltpFR	18	4	1	VAN	1548	n/a	0	n/a	n/a	n/a	n/a	n/a
841.264	n/a	REC_WORD	420632	wordpools/wasnorm_wordpool.txt	LTP135	ltpFR	18	4	1	BRAKE	166	n/a	0	n/a	n/a	n/a	n/a	n/a
842.99	n/a	REC_WORD	421495	wordpools/wasnorm_wordpool.txt	LTP135	ltpFR	18	4	1	LEOPARD	812	n/a	1	n/a	n/a	n/a	n/a	n/a
844.656	n/a	REC_WORD	422328	wordpools/wasnorm_wordpool.txt	LTP135	ltpFR	18	4	0	DINNER	468	n/a	0	n/a	n/a	n/a	n/a	n/a
847.784	n/a	REC_WORD	423892	wordpools/wasnorm_wordpool.txt	LTP135	ltpFR	18	4	0	ARCHITECT	36	n/a	1	n/a	n/a	n/a	n/a	n/a
858.8	n/a	REC_WORD	429400	wordpools/wasnorm_wordpool.txt	LTP135	ltpFR	18	4	0	REPTILE	1185	n/a	0	n/a	n/a	n/a	n/a	n/a
874.47	n/a	REC_WORD	437235	wordpools/wasnorm_wordpool.txt	LTP135	ltpFR	18	4	0	YOUTH	1634	n/a	1	n/a	n/a	n/a	n/a	n/a
884.272	n/a	REC_WORD	442136	wordpools/wasnorm_wordpool.txt	LTP135	ltpFR	18	4	0	PRESIDENT	1121	n/a	1	n/a	n/a	n/a	n/a	n/a
890.514	n/a	REC_WORD	445257	wordpools/wasnorm_wordpool.txt	LTP135	ltpFR	18	4	0	LAGOON	795	n/a	1	n/a	n/a	n/a	n/a	n/a
924.938	n/a	WORD	462469	wordpools/wasnorm_wordpool.txt	LTP135	ltpFR	18	5	1	WHIP	1604	n/a	1	0	0.5869140625	0.422607421875	upper	../fonts/amplitud.ttf
928.994	n/a	WORD	464497	wordpools/wasnorm_wordpool.txt	LTP135	ltpFR	18	5	1	MONASTERY	907	n/a	0	0	0.5869140625	0.422607421875	upper	../fonts/amplitud.ttf
932.912	n/a	WORD	466456	wordpools/wasnorm_wordpool.txt	LTP135	ltpFR	18	5	1	MARGARINE	868	n/a	0	0	0.5869140625	0.422607421875	upper	../fonts/amplitud.ttf
936.8	n/a	WORD	468400	wordpools/wasnorm_wordpool.txt	LTP135	ltpFR	18	5	1	VALLEY	1545	n/a	0	0	0.5869140625	0.422607421875	upper	../fonts/amplitud.ttf
941.0	n/a	WORD	470500	wordpools/wasnorm_wordpool.txt	LTP135	ltpFR	18	5	1	THIGH	1457	n/a	0	0	0.5869140625	0.422607421875	upper	../fonts/amplitud.ttf
945.082	n/a	WORD	472541	wordpools/wasnorm_wordpool.txt	LTP135	ltpFR	18	5	1	ANKLE	24	n/a	0	0	0.5869140625	0.422607421875	upper	../fonts/amplitud.ttf
948.948	n/a	WORD	474474	wordpools/wasnorm_wordpool.txt	LTP135	ltpFR	18	5	1	BUS	201	n/a	0	0	0.5869140625	0.422607421875	upper	../fonts/amplitud.ttf
953.146	n/a	WORD	476573	wordpools/wasnorm_wordpool.txt	LTP135	ltpFR	18	5	1	PUMP	1141	n/a	0	0	0.5869140625	0.422607421875	upper	../fonts/amplitud.ttf
957.096	n/a	WORD	478548	wordpools/wasnorm_wordpool.txt	LTP135	ltpFR	18	5	1	SWITCH	1422	n/a	0	0	0.5869140625	0.422607421875	upper	../fonts/amplitud.ttf
961.202	n/a	WORD	480601	wordpools/wasnorm_wordpool.txt	LTP135	ltpFR	18	5	1	SLOPE	1328	n/a	0	0	0.5869140625	0.422607421875	upper	../fonts/amplitud.ttf
965.35	n/a	WORD	482675	wordpools/wasnorm_wordpool.txt	LTP135	ltpFR	18	5	1	ENGINEER	536	n/a	1	0	0.5869140625	0.422607421875	upper	../fonts/amplitud.ttf
969.558	n/a	WORD	484779	wordpools/wasnorm_wordpool.txt	LTP135	ltpFR	18	5	1	KNEE	784	n/a	0	0	0.5869140625	0.422607421875	upper	../fonts/amplitud.ttf
973.672	n/a	WORD	486836	wordpools/wasnorm_wordpool.txt	LTP135	ltpFR	18	5	1	BAKER	71	n/a	1	0	0.5869140625	0.422607421875	upper	../fonts/amplitud.ttf
977.638	n/a	WORD	488819	wordpools/wasnorm_wordpool.txt	LTP135	ltpFR	18	5	1	PONY	1102	n/a	1	0	0.5869140625	0.422607421875	upper	../fonts/amplitud.ttf
981.612	n/a	WORD	490806	wordpools/wasnorm_wordpool.txt	LTP135	ltpFR	18	5	1	WHEEL	1603	n/a	0	0	0.5869140625	0.422607421875	upper	../fonts/amplitud.ttf
985.676	n/a	WORD	492838	wordpools/wasnorm_wordpool.txt	LTP135	ltpFR	18	5	1	MECHANIC	884	n/a	1	0	0.5869140625	0.422607421875	upper	../fonts/amplitud.ttf
991.594	n/a	REC_START	495797	n/a	LTP135	ltpFR	18	5	n/a	n/a	n/a	n/a	n/a	n/a	n/a	n/a	n/a	n/a
993.744	n/a	REC_WORD	496872	wordpools/wasnorm_wordpool.txt	LTP135	ltpFR	18	5	1	MECHANIC	884	n/a	1	n/a	n/a	n/a	n/a	n/a
994.744	n/a	REC_WORD_VV	497372	wordpools/wasnorm_wordpool.txt	LTP135	ltpFR	18	5	n/a	<>	-1	n/a	n/a	n/a	n/a	n/a	n/a	n/a
995.324	n/a	REC_WORD	497662	wordpools/wasnorm_wordpool.txt	LTP135	ltpFR	18	5	1	PONY	1102	n/a	1	n/a	n/a	n/a	n/a	n/a
996.982	n/a	REC_WORD	498491	wordpools/wasnorm_wordpool.txt	LTP135	ltpFR	18	5	1	ENGINEER	536	n/a	1	n/a	n/a	n/a	n/a	n/a
1001.496	n/a	REC_WORD	500748	wordpools/wasnorm_wordpool.txt	LTP135	ltpFR	18	5	1	WHEEL	1603	n/a	0	n/a	n/a	n/a	n/a	n/a
1007.394	n/a	REC_WORD	503697	wordpools/wasnorm_wordpool.txt	LTP135	ltpFR	18	5	1	BUS	201	n/a	0	n/a	n/a	n/a	n/a	n/a
1016.288	n/a	REC_WORD	508144	wordpools/wasnorm_wordpool.txt	LTP135	ltpFR	18	5	1	ANKLE	24	n/a	0	n/a	n/a	n/a	n/a	n/a
1017.58	n/a	REC_WORD	508790	wordpools/wasnorm_wordpool.txt	LTP135	ltpFR	18	5	1	THIGH	1457	n/a	0	n/a	n/a	n/a	n/a	n/a
1019.146	n/a	REC_WORD	509573	wordpools/wasnorm_wordpool.txt	LTP135	ltpFR	18	5	1	KNEE	784	n/a	0	n/a	n/a	n/a	n/a	n/a
1040.016	n/a	REC_WORD	520008	wordpools/wasnorm_wordpool.txt	LTP135	ltpFR	18	5	1	MONASTERY	907	n/a	0	n/a	n/a	n/a	n/a	n/a
1041.016	n/a	REC_WORD_VV	520508	wordpools/wasnorm_wordpool.txt	LTP135	ltpFR	18	5	n/a	<>	-1	n/a	n/a	n/a	n/a	n/a	n/a	n/a
1064.816	n/a	REC_WORD	532408	wordpools/wasnorm_wordpool.txt	LTP135	ltpFR	18	5	1	BRIDGE	174	n/a	0	n/a	n/a	n/a	n/a	n/a
1086.022	n/a	WORD	543011	wordpools/wasnorm_wordpool.txt	LTP135	ltpFR	18	6	1	STETHOSCOPE	1379	n/a	0	0	0.5869140625	0.422607421875	upper	../fonts/amplitud.ttf
1089.972	n/a	WORD	544986	wordpools/wasnorm_wordpool.txt	LTP135	ltpFR	18	6	1	RANCH	1166	n/a	0	0	0.5869140625	0.422607421875	upper	../fonts/amplitud.ttf
1094.02	n/a	WORD	547010	wordpools/wasnorm_wordpool.txt	LTP135	ltpFR	18	6	1	KETTLE	772	n/a	0	0	0.5869140625	0.422607421875	upper	../fonts/amplitud.ttf
1098.028	n/a	WORD	549014	wordpools/wasnorm_wordpool.txt	LTP135	ltpFR	18	6	1	RECIPE	1175	n/a	0	0	0.5869140625	0.422607421875	upper	../fonts/amplitud.ttf
1102.194	n/a	WORD	551097	wordpools/wasnorm_wordpool.txt	LTP135	ltpFR	18	6	0	LIME	823	n/a	0	1	0.412841796875	0.57763671875	lower	../fonts/zerothre.ttf
1106.308	n/a	WORD	553154	wordpools/wasnorm_wordpool.txt	LTP135	ltpFR	18	6	0	SUITCASE	1403	n/a	1	1	0.412841796875	0.57763671875	lower	../fonts/zerothre.ttf
1110.34	n/a	WORD	555170	wordpools/wasnorm_wordpool.txt	LTP135	ltpFR	18	6	0	HORNET	718	n/a	0	1	0.412841796875	0.57763671875	lower	../fonts/zerothre.ttf
1114.422	n/a	WORD	557211	wordpools/wasnorm_wordpool.txt	LTP135	ltpFR	18	6	0	PATIENT	1024	n/a	1	1	0.412841796875	0.57763671875	lower	../fonts/zerothre.ttf
1118.62	n/a	WORD	559310	wordpools/wasnorm_wordpool.txt	LTP135	ltpFR	18	6	1	CAULIFLOWER	262	n/a	0	0	0.5869140625	0.422607421875	upper	../fonts/amplitud.ttf
1122.444	n/a	WORD	561222	wordpools/wasnorm_wordpool.txt	LTP135	ltpFR	18	6	1	SNAIL	1332	n/a	1	0	0.5869140625	0.422607421875	upper	../fonts/amplitud.ttf
1126.484	n/a	WORD	563242	wordpools/wasnorm_wordpool.txt	LTP135	ltpFR	18	6	1	COWBOY	395	n/a	1	0	0.5869140625	0.422607421875	upper	../fonts/amplitud.ttf
1130.674	n/a	WORD	565337	wordpools/wasnorm_wordpool.txt	LTP135	ltpFR	18	6	1	CHEESE	289	n/a	0	0	0.5869140625	0.422607421875	upper	../fonts/amplitud.ttf
1134.59	n/a	WORD	567295	wordpools/wasnorm_wordpool.txt	LTP135	ltpFR	18	6	0	RUST	1219	n/a	0	1	0.412841796875	0.57763671875	lower	../fonts/zerothre.ttf
1138.414	n/a	WORD	569207	wordpools/wasnorm_wordpool.txt	LTP135	ltpFR	18	6	0	CAB	209	n/a	1	1	0.412841796875	0.57763671875	lower	../fonts/zerothre.ttf
1142.29	n/a	WORD	571145	wordpools/wasnorm_wordpool.txt	LTP135	ltpFR	18	6	0	ADULT	8	n/a	1	1	0.412841796875	0.57763671875	lower	../fonts/zerothre.ttf
1146.436	n/a	WORD	573218	wordpools/wasnorm_wordpool.txt	LTP135	ltpFR	18	6	0	JUVENILE	767	n/a	1	1	0.412841796875	0.57763671875	lower	../fonts/zerothre.ttf
1152.346	n/a	REC_START	576173	n/a	LTP135	ltpFR	18	6	n/a	n/a	n/a	n/a	n/a	n/a	n/a	n/a	n/a	n/a
1153.966	n/a	REC_WORD	576983	wordpools/wasnorm_wordpool.txt	LTP135	ltpFR	18	6	0	JUVENILE	767	n/a	1	n/a	n/a	n/a	n/a	n/a
1156.092	n/a	REC_WORD	578046	wordpools/wasnorm_wordpool.txt	LTP135	ltpFR	18	6	0	ADULT	8	n/a	1	n/a	n/a	n/a	n/a	n/a
1157.2	n/a	REC_WORD	578600	wordpools/wasnorm_wordpool.txt	LTP135	ltpFR	18	6	0	RUST	1219	n/a	0	n/a	n/a	n/a	n/a	n/a
1161.884	n/a	REC_WORD	580942	wordpools/wasnorm_wordpool.txt	LTP135	ltpFR	18	6	1	SNAIL	1332	n/a	1	n/a	n/a	n/a	n/a	n/a
1166.628	n/a	REC_WORD	583314	wordpools/wasnorm_wordpool.txt	LTP135	ltpFR	18	6	0	LIME	823	n/a	0	n/a	n/a	n/a	n/a	n/a
1168.364	n/a	REC_WORD	584182	wordpools/wasnorm_wordpool.txt	LTP135	ltpFR	18	6	0	HORNET	718	n/a	0	n/a	n/a	n/a	n/a	n/a
1176.018	n/a	REC_WORD	588009	wordpools/wasnorm_wordpool.txt	LTP135	ltpFR	18	6	1	CAULIFLOWER	262	n/a	0	n/a	n/a	n/a	n/a	n/a
1177.018	n/a	REC_WORD_VV	588509	wordpools/wasnorm_wordpool.txt	LTP135	ltpFR	18	6	n/a	<>	-1	n/a	n/a	n/a	n/a	n/a	n/a	n/a
1190.192	n/a	REC_WORD	595096	wordpools/wasnorm_wordpool.txt	LTP135	ltpFR	18	6	0	REPTILE	1185	n/a	0	n/a	n/a	n/a	n/a	n/a
1209.374	n/a	REC_WORD	604687	wordpools/wasnorm_wordpool.txt	LTP135	ltpFR	18	6	0	PATIENT	1024	n/a	1	n/a	n/a	n/a	n/a	n/a
1235.328	n/a	WORD	617664	wordpools/wasnorm_wordpool.txt	LTP135	ltpFR	18	7	-1	CANOE	233	n/a	-1	1	1.0	1.0	upper	../fonts/Verdana.ttf
1239.476	n/a	WORD	619738	wordpools/wasnorm_wordpool.txt	LTP135	ltpFR	18	7	-1	ANCHOR	21	n/a	-1	1	1.0	1.0	upper	../fonts/Verdana.ttf
1243.682	n/a	WORD	621841	wordpools/wasnorm_wordpool.txt	LTP135	ltpFR	18	7	-1	RIVER	1194	n/a	-1	1	1.0	1.0	upper	../fonts/Verdana.ttf
1247.89	n/a	WORD	623945	wordpools/wasnorm_wordpool.txt	LTP135	ltpFR	18	7	-1	MARSH	874	n/a	-1	1	1.0	1.0	upper	../fonts/Verdana.ttf
1251.838	n/a	WORD	625919	wordpools/wasnorm_wordpool.txt	LTP135	ltpFR	18	7	-1	TUNA	1518	n/a	-1	1	1.0	1.0	upper	../fonts/Verdana.ttf
1255.964	n/a	WORD	627982	wordpools/wasnorm_wordpool.txt	LTP135	ltpFR	18	7	-1	FOLDER	588	n/a	-1	1	1.0	1.0	upper	../fonts/Verdana.ttf
1260.17	n/a	WORD	630085	wordpools/wasnorm_wordpool.txt	LTP135	ltpFR	18	7	-1	SCROLL	1257	n/a	-1	1	1.0	1.0	upper	../fonts/Verdana.ttf
1264.326	n/a	WORD	632163	wordpools/wasnorm_wordpool.txt	LTP135	ltpFR	18	7	-1	ORGAN	984	n/a	-1	1	1.0	1.0	upper	../fonts/Verdana.ttf
1268.4	n/a	WORD	634200	wordpools/wasnorm_wordpool.txt	LTP135	ltpFR	18	7	-1	NOMAD	955	n/a	-1	1	1.0	1.0	upper	../fonts/Verdana.ttf
1272.258	n/a	WORD	636129	wordpools/wasnorm_wordpool.txt	LTP135	ltpFR	18	7	-1	SCARF	1246	n/a	-1	1	1.0	1.0	upper	../fonts/Verdana.ttf
1276.166	n/a	WORD	638083	wordpools/wasnorm_wordpool.txt	LTP135	ltpFR	18	7	-1	VEAL	1551	n/a	-1	1	1.0	1.0	upper	../fonts/Verdana.ttf
1280.08	n/a	WORD	640040	wordpools/wasnorm_wordpool.txt	LTP135	ltpFR	18	7	-1	GRILL	661	n/a	-1	1	1.0	1.0	upper	../fonts/Verdana.ttf
1284.088	n/a	WORD	642044	wordpools/wasnorm_wordpool.txt	LTP135	ltpFR	18	7	-1	PAIL	1002	n/a	-1	1	1.0	1.0	upper	../fonts/Verdana.ttf
1287.962	n/a	WORD	643981	wordpools/wasnorm_wordpool.txt	LTP135	ltpFR	18	7	-1	TANK	1432	n/a	-1	1	1.0	1.0	upper	../fonts/Verdana.ttf
1291.802	n/a	WORD	645901	wordpools/wasnorm_wordpool.txt	LTP135	ltpFR	18	7	-1	FAUCET	555	n/a	-1	1	1.0	1.0	upper	../fonts/Verdana.ttf
1295.976	n/a	WORD	647988	wordpools/wasnorm_wordpool.txt	LTP135	ltpFR	18	7	-1	CONTAINER	366	n/a	-1	1	1.0	1.0	upper	../fonts/Verdana.ttf
1301.708	n/a	REC_START	650854	n/a	LTP135	ltpFR	18	7	n/a	n/a	n/a	n/a	n/a	n/a	n/a	n/a	n/a	n/a
1302.924	n/a	REC_WORD	651462	wordpools/wasnorm_wordpool.txt	LTP135	ltpFR	18	7	-1	CANOE	233	n/a	-1	n/a	n/a	n/a	n/a	n/a
1305.22	n/a	REC_WORD	652610	wordpools/wasnorm_wordpool.txt	LTP135	ltpFR	18	7	-1	RIVER	1194	n/a	-1	n/a	n/a	n/a	n/a	n/a
1307.504	n/a	REC_WORD	653752	wordpools/wasnorm_wordpool.txt	LTP135	ltpFR	18	7	-1	MARSH	874	n/a	-1	n/a	n/a	n/a	n/a	n/a
1310.444	n/a	REC_WORD	655222	wordpools/wasnorm_wordpool.txt	LTP135	ltpFR	18	7	-1	ANCHOR	21	n/a	-1	n/a	n/a	n/a	n/a	n/a
1312.902	n/a	REC_WORD	656451	wordpools/wasnorm_wordpool.txt	LTP135	ltpFR	18	7	-1	TUNA	1518	n/a	-1	n/a	n/a	n/a	n/a	n/a
1315.092	n/a	REC_WORD	657546	wordpools/wasnorm_wordpool.txt	LTP135	ltpFR	18	7	-1	CONTAINER	366	n/a	-1	n/a	n/a	n/a	n/a	n/a
1317.622	n/a	REC_WORD	658811	wordpools/wasnorm_wordpool.txt	LTP135	ltpFR	18	7	-1	NOMAD	955	n/a	-1	n/a	n/a	n/a	n/a	n/a
1319.732	n/a	REC_WORD	659866	wordpools/wasnorm_wordpool.txt	LTP135	ltpFR	18	7	-1	SCARF	1246	n/a	-1	n/a	n/a	n/a	n/a	n/a
1321.652	n/a	REC_WORD	660826	wordpools/wasnorm_wordpool.txt	LTP135	ltpFR	18	7	-1	VEAL	1551	n/a	-1	n/a	n/a	n/a	n/a	n/a
1324.322	n/a	REC_WORD	662161	wordpools/wasnorm_wordpool.txt	LTP135	ltpFR	18	7	-1	FOLDER	588	n/a	-1	n/a	n/a	n/a	n/a	n/a
1326.148	n/a	REC_WORD	663074	wordpools/wasnorm_wordpool.txt	LTP135	ltpFR	18	7	-1	SCROLL	1257	n/a	-1	n/a	n/a	n/a	n/a	n/a
1328.314	n/a	REC_WORD	664157	wordpools/wasnorm_wordpool.txt	LTP135	ltpFR	18	7	-1	ORGAN	984	n/a	-1	n/a	n/a	n/a	n/a	n/a
1337.888	n/a	REC_WORD	668944	wordpools/wasnorm_wordpool.txt	LTP135	ltpFR	18	7	-1	CONTAINER	366	n/a	-1	n/a	n/a	n/a	n/a	n/a
1360.92	n/a	REC_WORD	680460	wordpools/wasnorm_wordpool.txt	LTP135	ltpFR	18	7	-1	FAUCET	555	n/a	-1	n/a	n/a	n/a	n/a	n/a
1371.402	n/a	REC_WORD	685701	wordpools/wasnorm_wordpool.txt	LTP135	ltpFR	18	7	-1	PAIL	1002	n/a	-1	n/a	n/a	n/a	n/a	n/a
1394.322	n/a	WORD	697161	wordpools/wasnorm_wordpool.txt	LTP135	ltpFR	18	8	0	CORPORATION	382	n/a	1	1	0.412841796875	0.57763671875	lower	../fonts/zerothre.ttf
1398.236	n/a	WORD	699118	wordpools/wasnorm_wordpool.txt	LTP135	ltpFR	18	8	0	NOSE	957	n/a	0	1	0.412841796875	0.57763671875	lower	../fonts/zerothre.ttf
1402.284	n/a	WORD	701142	wordpools/wasnorm_wordpool.txt	LTP135	ltpFR	18	8	1	PLANT	1083	n/a	1	0	0.5869140625	0.422607421875	upper	../fonts/amplitud.ttf
1406.352	n/a	WORD	703176	wordpools/wasnorm_wordpool.txt	LTP135	ltpFR	18	8	1	TOAST	1471	n/a	0	0	0.5869140625	0.422607421875	upper	../fonts/amplitud.ttf
1410.556	n/a	WORD	705278	wordpools/wasnorm_wordpool.txt	LTP135	ltpFR	18	8	1	CREATURE	403	n/a	0	0	0.5869140625	0.422607421875	upper	../fonts/amplitud.ttf
1414.374	n/a	WORD	707187	wordpools/wasnorm_wordpool.txt	LTP135	ltpFR	18	8	0	ANTEATER	26	n/a	1	1	0.412841796875	0.57763671875	lower	../fonts/zerothre.ttf
1418.58	n/a	WORD	709290	wordpools/wasnorm_wordpool.txt	LTP135	ltpFR	18	8	0	FOREHEAD	592	n/a	0	1	0.412841796875	0.57763671875	lower	../fonts/zerothre.ttf
1422.412	n/a	WORD	711206	wordpools/wasnorm_wordpool.txt	LTP135	ltpFR	18	8	0	COUGAR	387	n/a	1	1	0.412841796875	0.57763671875	lower	../fonts/zerothre.ttf
1426.336	n/a	WORD	713168	wordpools/wasnorm_wordpool.txt	LTP135	ltpFR	18	8	0	PLAQUE	1084	n/a	0	1	0.412841796875	0.57763671875	lower	../fonts/zerothre.ttf
1430.51	n/a	WORD	715255	wordpools/wasnorm_wordpool.txt	LTP135	ltpFR	18	8	1	DRILL	497	n/a	0	0	0.5869140625	0.422607421875	upper	../fonts/amplitud.ttf
1434.674	n/a	WORD	717337	wordpools/wasnorm_wordpool.txt	LTP135	ltpFR	18	8	1	CACTUS	215	n/a	1	0	0.5869140625	0.422607421875	upper	../fonts/amplitud.ttf
1438.514	n/a	WORD	719257	wordpools/wasnorm_wordpool.txt	LTP135	ltpFR	18	8	1	PIE	1062	n/a	0	0	0.5869140625	0.422607421875	upper	../fonts/amplitud.ttf
1442.598	n/a	WORD	721299	wordpools/wasnorm_wordpool.txt	LTP135	ltpFR	18	8	1	COBBLER	335	n/a	0	0	0.5869140625	0.422607421875	upper	../fonts/amplitud.ttf
1446.696	n/a	WORD	723348	wordpools/wasnorm_wordpool.txt	LTP135	ltpFR	18	8	1	WALRUS	1585	n/a	1	0	0.5869140625	0.422607421875	upper	../fonts/amplitud.ttf
1450.828	n/a	WORD	725414	wordpools/wasnorm_wordpool.txt	LTP135	ltpFR	18	8	0	CHESS	294	n/a	0	1	0.412841796875	0.57763671875	lower	../fonts/zerothre.ttf
1454.768	n/a	WORD	727384	wordpools/wasnorm_wordpool.txt	LTP135	ltpFR	18	8	0	RAISIN	1163	n/a	0	1	0.412841796875	0.57763671875	lower	../fonts/zerothre.ttf
1460.492	n/a	REC_START	730246	n/a	LTP135	ltpFR	18	8	n/a	n/a	n/a	n/a	n/a	n/a	n/a	n/a	n/a	n/a
1462.942	n/a	REC_WORD	731471	wordpools/wasnorm_wordpool.txt	LTP135	ltpFR	18	8	0	CHESS	294	n/a	0	n/a	n/a	n/a	n/a	n/a
1464.404	n/a	REC_WORD	732202	wordpools/wasnorm_wordpool.txt	LTP135	ltpFR	18	8	0	RAISIN	1163	n/a	0	n/a	n/a	n/a	n/a	n/a
1466.21	n/a	REC_WORD	733105	wordpools/wasnorm_wordpool.txt	LTP135	ltpFR	18	8	1	PIE	1062	n/a	0	n/a	n/a	n/a	n/a	n/a
1467.95	n/a	REC_WORD	733975	wordpools/wasnorm_wordpool.txt	LTP135	ltpFR	18	8	1	COBBLER	335	n/a	0	n/a	n/a	n/a	n/a	n/a
1475.084	n/a	REC_WORD	737542	wordpools/wasnorm_wordpool.txt	LTP135	ltpFR	18	8	1	CREATURE	403	n/a	0	n/a	n/a	n/a	n/a	n/a
1476.082	n/a	REC_WORD	738041	wordpools/wasnorm_wordpool.txt	LTP135	ltpFR	18	8	1	CACTUS	215	n/a	1	n/a	n/a	n/a	n/a	n/a
1477.12	n/a	REC_WORD	738560	wordpools/wasnorm_wordpool.txt	LTP135	ltpFR	18	8	1	PLANT	1083	n/a	1	n/a	n/a	n/a	n/a	n/a
1480.068	n/a	REC_WORD	740034	wordpools/wasnorm_wordpool.txt	LTP135	ltpFR	18	8	0	CORPORATION	382	n/a	1	n/a	n/a	n/a	n/a	n/a
1481.068	n/a	REC_WORD_VV	740534	wordpools/wasnorm_wordpool.txt	LTP135	ltpFR	18	8	n/a	<>	-1	n/a	n/a	n/a	n/a	n/a	n/a	n/a
1482.738	n/a	REC_WORD	741369	wordpools/wasnorm_wordpool.txt	LTP135	ltpFR	18	8	0	COUGAR	387	n/a	1	n/a	n/a	n/a	n/a	n/a
1546.732	n/a	WORD	773366	wordpools/wasnorm_wordpool.txt	LTP135	ltpFR	18	9	0	VOLCANO	1575	n/a	1	1	0.412841796875	0.57763671875	lower	../fonts/zerothre.ttf
1550.822	n/a	WORD	775411	wordpools/wasnorm_wordpool.txt	LTP135	ltpFR	18	9	0	CRATER	400	n/a	1	1	0.412841796875	0.57763671875	lower	../fonts/zerothre.ttf
1554.822	n/a	WORD	777411	wordpools/wasnorm_wordpool.txt	LTP135	ltpFR	18	9	0	EARRING	514	n/a	0	1	0.412841796875	0.57763671875	lower	../fonts/zerothre.ttf
1558.688	n/a	WORD	779344	wordpools/wasnorm_wordpool.txt	LTP135	ltpFR	18	9	0	TURNIP	1521	n/a	0	1	0.412841796875	0.57763671875	lower	../fonts/zerothre.ttf
1562.818	n/a	WORD	781409	wordpools/wasnorm_wordpool.txt	LTP135	ltpFR	18	9	0	HORSE	719	n/a	1	1	0.412841796875	0.57763671875	lower	../fonts/zerothre.ttf
1567.01	n/a	WORD	783505	wordpools/wasnorm_wordpool.txt	LTP135	ltpFR	18	9	0	SPINE	1353	n/a	1	1	0.412841796875	0.57763671875	lower	../fonts/zerothre.ttf
1570.95	n/a	WORD	785475	wordpools/wasnorm_wordpool.txt	LTP135	ltpFR	18	9	0	LAVA	804	n/a	0	1	0.412841796875	0.57763671875	lower	../fonts/zerothre.ttf
1574.84	n/a	WORD	787420	wordpools/wasnorm_wordpool.txt	LTP135	ltpFR	18	9	0	LOFT	840	n/a	1	1	0.412841796875	0.57763671875	lower	../fonts/zerothre.ttf
1578.974	n/a	WORD	789487	wordpools/wasnorm_wordpool.txt	LTP135	ltpFR	18	9	0	HAY	693	n/a	1	1	0.412841796875	0.57763671875	lower	../fonts/zerothre.ttf
1583.064	n/a	WORD	791532	wordpools/wasnorm_wordpool.txt	LTP135	ltpFR	18	9	0	FLOWER	584	n/a	0	1	0.412841796875	0.57763671875	lower	../fonts/zerothre.ttf
1587.204	n/a	WORD	793602	wordpools/wasnorm_wordpool.txt	LTP135	ltpFR	18	9	0	MARS	873	n/a	1	1	0.412841796875	0.57763671875	lower	../fonts/zerothre.ttf
1591.144	n/a	WORD	795572	wordpools/wasnorm_wordpool.txt	LTP135	ltpFR	18	9	0	ASH	44	n/a	0	1	0.412841796875	0.57763671875	lower	../fonts/zerothre.ttf
1595.202	n/a	WORD	797601	wordpools/wasnorm_wordpool.txt	LTP135	ltpFR	18	9	0	TOOL	1480	n/a	0	1	0.412841796875	0.57763671875	lower	../fonts/zerothre.ttf
1599.25	n/a	WORD	799625	wordpools/wasnorm_wordpool.txt	LTP135	ltpFR	18	9	0	INN	739	n/a	1	1	0.412841796875	0.57763671875	lower	../fonts/zerothre.ttf
1603.44	n/a	WORD	801720	wordpools/wasnorm_wordpool.txt	LTP135	ltpFR	18	9	0	RESORT	1186	n/a	1	1	0.412841796875	0.57763671875	lower	../fonts/zerothre.ttf
1607.622	n/a	WORD	803811	wordpools/wasnorm_wordpool.txt	LTP135	ltpFR	18	9	0	UNIVERSE	1540	n/a	1	1	0.412841796875	0.57763671875	lower	../fonts/zerothre.ttf
1613.28	n/a	REC_START	806640	n/a	LTP135	ltpFR	18	9	n/a	n/a	n/a	n/a	n/a	n/a	n/a	n/a	n/a	n/a
1614.652	n/a	REC_WORD	807326	wordpools/wasnorm_wordpool.txt	LTP135	ltpFR	18	9	0	INN	739	n/a	1	n/a	n/a	n/a	n/a	n/a
1616.168	n/a	REC_WORD	808084	wordpools/wasnorm_wordpool.txt	LTP135	ltpFR	18	9	0	RESORT	1186	n/a	1	n/a	n/a	n/a	n/a	n/a
1618.678	n/a	REC_WORD	809339	wordpools/wasnorm_wordpool.txt	LTP135	ltpFR	18	9	0	UNIVERSE	1540	n/a	1	n/a	n/a	n/a	n/a	n/a
1619.678	n/a	REC_WORD_VV	809839	wordpools/wasnorm_wordpool.txt	LTP135	ltpFR	18	9	n/a	<>	-1	n/a	n/a	n/a	n/a	n/a	n/a	n/a
1620.184	n/a	REC_WORD	810092	wordpools/wasnorm_wordpool.txt	LTP135	ltpFR	18	9	0	MARS	873	n/a	1	n/a	n/a	n/a	n/a	n/a
1622.08	n/a	REC_WORD	811040	wordpools/wasnorm_wordpool.txt	LTP135	ltpFR	18	9	0	VOLCANO	1575	n/a	1	n/a	n/a	n/a	n/a	n/a
1624.898	n/a	REC_WORD	812449	wordpools/wasnorm_wordpool.txt	LTP135	ltpFR	18	9	0	CRATER	400	n/a	1	n/a	n/a	n/a	n/a	n/a
1626.6	n/a	REC_WORD	813300	wordpools/wasnorm_wordpool.txt	LTP135	ltpFR	18	9	0	LOFT	840	n/a	1	n/a	n/a	n/a	n/a	n/a
1628.052	n/a	REC_WORD	814026	wordpools/wasnorm_wordpool.txt	LTP135	ltpFR	18	9	0	LAVA	804	n/a	0	n/a	n/a	n/a	n/a	n/a
1630.054	n/a	REC_WORD	815027	wordpools/wasnorm_wordpool.txt	LTP135	ltpFR	18	9	0	ASH	44	n/a	0	n/a	n/a	n/a	n/a	n/a
1632.134	n/a	REC_WORD	816067	wordpools/wasnorm_wordpool.txt	LTP135	ltpFR	18	9	0	TURNIP	1521	n/a	0	n/a	n/a	n/a	n/a	n/a
1666.118	n/a	REC_WORD	833059	wordpools/wasnorm_wordpool.txt	LTP135	ltpFR	18	9	0	HAY	693	n/a	1	n/a	n/a	n/a	n/a	n/a
1679.942	n/a	REC_WORD	839971	wordpools/wasnorm_wordpool.txt	LTP135	ltpFR	18	9	n/a	CELERY	266	n/a	n/a	n/a	n/a	n/a	n/a	n/a
1697.52	n/a	WORD	848760	wordpools/wasnorm_wordpool.txt	LTP135	ltpFR	18	10	1	PUBLICATION	1136	n/a	0	0	0.5869140625	0.422607421875	upper	../fonts/amplitud.ttf
1701.344	n/a	WORD	850672	wordpools/wasnorm_wordpool.txt	LTP135	ltpFR	18	10	1	CROOK	412	n/a	1	0	0.5869140625	0.422607421875	upper	../fonts/amplitud.ttf
1705.51	n/a	WORD	852755	wordpools/wasnorm_wordpool.txt	LTP135	ltpFR	18	10	1	REEF	1177	n/a	1	0	0.5869140625	0.422607421875	upper	../fonts/amplitud.ttf
1709.474	n/a	WORD	854737	wordpools/wasnorm_wordpool.txt	LTP135	ltpFR	18	10	1	SQUID	1361	n/a	1	0	0.5869140625	0.422607421875	upper	../fonts/amplitud.ttf
1713.358	n/a	WORD	856679	wordpools/wasnorm_wordpool.txt	LTP135	ltpFR	18	10	1	BOX	159	n/a	0	0	0.5869140625	0.422607421875	upper	../fonts/amplitud.ttf
1717.556	n/a	WORD	858778	wordpools/wasnorm_wordpool.txt	LTP135	ltpFR	18	10	1	DOCUMENT	479	n/a	0	0	0.5869140625	0.422607421875	upper	../fonts/amplitud.ttf
1721.446	n/a	WORD	860723	wordpools/wasnorm_wordpool.txt	LTP135	ltpFR	18	10	1	TOILET	1475	n/a	0	0	0.5869140625	0.422607421875	upper	../fonts/amplitud.ttf
1725.372	n/a	WORD	862686	wordpools/wasnorm_wordpool.txt	LTP135	ltpFR	18	10	1	CHAIN	273	n/a	0	0	0.5869140625	0.422607421875	upper	../fonts/amplitud.ttf
1729.328	n/a	WORD	864664	wordpools/wasnorm_wordpool.txt	LTP135	ltpFR	18	10	1	ARMY	39	n/a	1	0	0.5869140625	0.422607421875	upper	../fonts/amplitud.ttf
1733.418	n/a	WORD	866709	wordpools/wasnorm_wordpool.txt	LTP135	ltpFR	18	10	1	COLONEL	348	n/a	1	0	0.5869140625	0.422607421875	upper	../fonts/amplitud.ttf
1737.258	n/a	WORD	868629	wordpools/wasnorm_wordpool.txt	LTP135	ltpFR	18	10	1	STAPLER	1372	n/a	0	0	0.5869140625	0.422607421875	upper	../fonts/amplitud.ttf
1741.34	n/a	WORD	870670	wordpools/wasnorm_wordpool.txt	LTP135	ltpFR	18	10	1	BOOK	149	n/a	0	0	0.5869140625	0.422607421875	upper	../fonts/amplitud.ttf
1745.29	n/a	WORD	872645	wordpools/wasnorm_wordpool.txt	LTP135	ltpFR	18	10	1	TUB	1514	n/a	0	0	0.5869140625	0.422607421875	upper	../fonts/amplitud.ttf
1749.42	n/a	WORD	874710	wordpools/wasnorm_wordpool.txt	LTP135	ltpFR	18	10	1	JUGGLER	763	n/a	1	0	0.5869140625	0.422607421875	upper	../fonts/amplitud.ttf
1753.27	n/a	WORD	876635	wordpools/wasnorm_wordpool.txt	LTP135	ltpFR	18	10	1	LITERATURE	831	n/a	0	0	0.5869140625	0.422607421875	upper	../fonts/amplitud.ttf
1757.21	n/a	WORD	878605	wordpools/wasnorm_wordpool.txt	LTP135	ltpFR	18	10	1	JUG	762	n/a	0	0	0.5869140625	0.422607421875	upper	../fonts/amplitud.ttf
1762.944	n/a	REC_START	881472	n/a	LTP135	ltpFR	18	10	n/a	n/a	n/a	n/a	n/a	n/a	n/a	n/a	n/a	n/a
1763.822	n/a	REC_WORD	881911	wordpools/wasnorm_wordpool.txt	LTP135	ltpFR	18	10	1	LITERATURE	831	n/a	0	n/a	n/a	n/a	n/a	n/a
1765.232	n/a	REC_WORD	882616	wordpools/wasnorm_wordpool.txt	LTP135	ltpFR	18	10	1	JUG	762	n/a	0	n/a	n/a	n/a	n/a	n/a
1766.824	n/a	REC_WORD	883412	wordpools/wasnorm_wordpool.txt	LTP135	ltpFR	18	10	1	JUGGLER	763	n/a	1	n/a	n/a	n/a	n/a	n/a
1768.97	n/a	REC_WORD	884485	wordpools/wasnorm_wordpool.txt	LTP135	ltpFR	18	10	1	STAPLER	1372	n/a	0	n/a	n/a	n/a	n/a	n/a
1769.97	n/a	REC_WORD_VV	884985	wordpools/wasnorm_wordpool.txt	LTP135	ltpFR	18	10	n/a	<>	-1	n/a	n/a	n/a	n/a	n/a	n/a	n/a
1773.56	n/a	REC_WORD	886780	wordpools/wasnorm_wordpool.txt	LTP135	ltpFR	18	10	1	ARMY	39	n/a	1	n/a	n/a	n/a	n/a	n/a
1774.546	n/a	REC_WORD	887273	wordpools/wasnorm_wordpool.txt	LTP135	ltpFR	18	10	1	COLONEL	348	n/a	1	n/a	n/a	n/a	n/a	n/a
1785.672	n/a	REC_WORD	892836	wordpools/wasnorm_wordpool.txt	LTP135	ltpFR	18	10	1	BOX	159	n/a	0	n/a	n/a	n/a	n/a	n/a
1788.082	n/a	REC_WORD	894041	wordpools/wasnorm_wordpool.txt	LTP135	ltpFR	18	10	1	CHAIN	273	n/a	0	n/a	n/a	n/a	n/a	n/a
1797.476	n/a	REC_WORD	898738	wordpools/wasnorm_wordpool.txt	LTP135	ltpFR	18	10	1	QUAIL	1147	n/a	1	n/a	n/a	n/a	n/a	n/a
1818.584	n/a	REC_WORD	909292	wordpools/wasnorm_wordpool.txt	LTP135	ltpFR	18	10	1	DOCUMENT	479	n/a	0	n/a	n/a	n/a	n/a	n/a
1828.426	n/a	REC_WORD	914213	wordpools/wasnorm_wordpool.txt	LTP135	ltpFR	18	10	1	BOOK	149	n/a	0	n/a	n/a	n/a	n/a	n/a
1843.784	n/a	WORD	921892	wordpools/wasnorm_wordpool.txt	LTP135	ltpFR	18	11	0	CHAUFFEUR	283	n/a	1	1	0.412841796875	0.57763671875	lower	../fonts/zerothre.ttf
1847.866	n/a	WORD	923933	wordpools/wasnorm_wordpool.txt	LTP135	ltpFR	18	11	0	BEDROOM	111	n/a	1	1	0.412841796875	0.57763671875	lower	../fonts/zerothre.ttf
1851.84	n/a	WORD	925920	wordpools/wasnorm_wordpool.txt	LTP135	ltpFR	18	11	0	MUMMY	932	n/a	1	1	0.412841796875	0.57763671875	lower	../fonts/zerothre.ttf
1855.83	n/a	WORD	927915	wordpools/wasnorm_wordpool.txt	LTP135	ltpFR	18	11	0	SWING	1421	n/a	1	1	0.412841796875	0.57763671875	lower	../fonts/zerothre.ttf
1860.006	n/a	WORD	930003	wordpools/wasnorm_wordpool.txt	LTP135	ltpFR	18	11	0	SARDINE	1235	n/a	0	1	0.412841796875	0.57763671875	lower	../fonts/zerothre.ttf
1864.196	n/a	WORD	932098	wordpools/wasnorm_wordpool.txt	LTP135	ltpFR	18	11	0	HERB	704	n/a	0	1	0.412841796875	0.57763671875	lower	../fonts/zerothre.ttf
1868.378	n/a	WORD	934189	wordpools/wasnorm_wordpool.txt	LTP135	ltpFR	18	11	0	CLOVE	329	n/a	0	1	0.412841796875	0.57763671875	lower	../fonts/zerothre.ttf
1872.31	n/a	WORD	936155	wordpools/wasnorm_wordpool.txt	LTP135	ltpFR	18	11	0	BUSH	202	n/a	1	1	0.412841796875	0.57763671875	lower	../fonts/zerothre.ttf
1876.276	n/a	WORD	938138	wordpools/wasnorm_wordpool.txt	LTP135	ltpFR	18	11	0	ACORN	3	n/a	0	1	0.412841796875	0.57763671875	lower	../fonts/zerothre.ttf
1880.124	n/a	WORD	940062	wordpools/wasnorm_wordpool.txt	LTP135	ltpFR	18	11	0	DAD	433	n/a	1	1	0.412841796875	0.57763671875	lower	../fonts/zerothre.ttf
1883.98	n/a	WORD	941990	wordpools/wasnorm_wordpool.txt	LTP135	ltpFR	18	11	0	ACTOR	5	n/a	1	1	0.412841796875	0.57763671875	lower	../fonts/zerothre.ttf
1887.846	n/a	WORD	943923	wordpools/wasnorm_wordpool.txt	LTP135	ltpFR	18	11	0	SCENERY	1247	n/a	1	1	0.412841796875	0.57763671875	lower	../fonts/zerothre.ttf
1891.752	n/a	WORD	945876	wordpools/wasnorm_wordpool.txt	LTP135	ltpFR	18	11	0	SALIVA	1226	n/a	0	1	0.412841796875	0.57763671875	lower	../fonts/zerothre.ttf
1895.918	n/a	WORD	947959	wordpools/wasnorm_wordpool.txt	LTP135	ltpFR	18	11	0	WIRE	1616	n/a	0	1	0.412841796875	0.57763671875	lower	../fonts/zerothre.ttf
1899.75	n/a	WORD	949875	wordpools/wasnorm_wordpool.txt	LTP135	ltpFR	18	11	0	BED	110	n/a	1	1	0.412841796875	0.57763671875	lower	../fonts/zerothre.ttf
1903.958	n/a	WORD	951979	wordpools/wasnorm_wordpool.txt	LTP135	ltpFR	18	11	0	FOUNTAIN	597	n/a	1	1	0.412841796875	0.57763671875	lower	../fonts/zerothre.ttf
1909.722	n/a	REC_START	954861	n/a	LTP135	ltpFR	18	11	n/a	n/a	n/a	n/a	n/a	n/a	n/a	n/a	n/a	n/a
1911.916	n/a	REC_WORD	955958	wordpools/wasnorm_wordpool.txt	LTP135	ltpFR	18	11	0	FOUNTAIN	597	n/a	1	n/a	n/a	n/a	n/a	n/a
1913.39	n/a	REC_WORD	956695	wordpools/wasnorm_wordpool.txt	LTP135	ltpFR	18	11	0	SCENERY	1247	n/a	1	n/a	n/a	n/a	n/a	n/a
1914.976	n/a	REC_WORD	957488	wordpools/wasnorm_wordpool.txt	LTP135	ltpFR	18	11	0	DAD	433	n/a	1	n/a	n/a	n/a	n/a	n/a
1916.782	n/a	REC_WORD	958391	wordpools/wasnorm_wordpool.txt	LTP135	ltpFR	18	11	0	ACTOR	5	n/a	1	n/a	n/a	n/a	n/a	n/a
1919.86	n/a	REC_WORD	959930	wordpools/wasnorm_wordpool.txt	LTP135	ltpFR	18	11	0	CLOVE	329	n/a	0	n/a	n/a	n/a	n/a	n/a
1921.896	n/a	REC_WORD	960948	wordpools/wasnorm_wordpool.txt	LTP135	ltpFR	18	11	0	HERB	704	n/a	0	n/a	n/a	n/a	n/a	n/a
1923.756	n/a	REC_WORD	961878	wordpools/wasnorm_wordpool.txt	LTP135	ltpFR	18	11	0	ACORN	3	n/a	0	n/a	n/a	n/a	n/a	n/a
1931.948	n/a	REC_WORD	965974	wordpools/wasnorm_wordpool.txt	LTP135	ltpFR	18	11	0	MUMMY	932	n/a	1	n/a	n/a	n/a	n/a	n/a
1975.612	n/a	REC_WORD	987806	wordpools/wasnorm_wordpool.txt	LTP135	ltpFR	18	11	0	CHAUFFEUR	283	n/a	1	n/a	n/a	n/a	n/a	n/a
1991.822	n/a	WORD	995911	wordpools/wasnorm_wordpool.txt	LTP135	ltpFR	18	12	0	BUCKET	184	n/a	1	1	0.412841796875	0.57763671875	lower	../fonts/zerothre.ttf
1995.662	n/a	WORD	997831	wordpools/wasnorm_wordpool.txt	LTP135	ltpFR	18	12	0	CAPITAL	238	n/a	1	1	0.412841796875	0.57763671875	lower	../fonts/zerothre.ttf
1999.794	n/a	WORD	999897	wordpools/wasnorm_wordpool.txt	LTP135	ltpFR	18	12	0	TOURIST	1488	n/a	1	1	0.412841796875	0.57763671875	lower	../fonts/zerothre.ttf
2003.644	n/a	WORD	1001822	wordpools/wasnorm_wordpool.txt	LTP135	ltpFR	18	12	0	TREAT	1501	n/a	0	1	0.412841796875	0.57763671875	lower	../fonts/zerothre.ttf
2007.46	n/a	WORD	1003730	wordpools/wasnorm_wordpool.txt	LTP135	ltpFR	18	12	0	OCTOPUS	971	n/a	1	1	0.412841796875	0.57763671875	lower	../fonts/zerothre.ttf
2011.318	n/a	WORD	1005659	wordpools/wasnorm_wordpool.txt	LTP135	ltpFR	18	12	0	APRON	35	n/a	0	1	0.412841796875	0.57763671875	lower	../fonts/zerothre.ttf
2015.292	n/a	WORD	1007646	wordpools/wasnorm_wordpool.txt	LTP135	ltpFR	18	12	0	MICROWAVE	892	n/a	1	1	0.412841796875	0.57763671875	lower	../fonts/zerothre.ttf
2019.424	n/a	WORD	1009712	wordpools/wasnorm_wordpool.txt	LTP135	ltpFR	18	12	0	WINGS	1614	n/a	0	1	0.412841796875	0.57763671875	lower	../fonts/zerothre.ttf
2023.364	n/a	WORD	1011682	wordpools/wasnorm_wordpool.txt	LTP135	ltpFR	18	12	0	HIKER	708	n/a	1	1	0.412841796875	0.57763671875	lower	../fonts/zerothre.ttf
2027.372	n/a	WORD	1013686	wordpools/wasnorm_wordpool.txt	LTP135	ltpFR	18	12	0	POOL	1103	n/a	1	1	0.412841796875	0.57763671875	lower	../fonts/zerothre.ttf
2031.328	n/a	WORD	1015664	wordpools/wasnorm_wordpool.txt	LTP135	ltpFR	18	12	0	GYM	674	n/a	1	1	0.412841796875	0.57763671875	lower	../fonts/zerothre.ttf
2035.45	n/a	WORD	1017725	wordpools/wasnorm_wordpool.txt	LTP135	ltpFR	18	12	0	EXPLOSION	544	n/a	1	1	0.412841796875	0.57763671875	lower	../fonts/zerothre.ttf
2039.524	n/a	WORD	1019762	wordpools/wasnorm_wordpool.txt	LTP135	ltpFR	18	12	0	BAIT	70	n/a	0	1	0.412841796875	0.57763671875	lower	../fonts/zerothre.ttf
2043.472	n/a	WORD	1021736	wordpools/wasnorm_wordpool.txt	LTP135	ltpFR	18	12	0	LINEN	825	n/a	0	1	0.412841796875	0.57763671875	lower	../fonts/zerothre.ttf
2047.614	n/a	WORD	1023807	wordpools/wasnorm_wordpool.txt	LTP135	ltpFR	18	12	0	PADDING	999	n/a	0	1	0.412841796875	0.57763671875	lower	../fonts/zerothre.ttf
2051.696	n/a	WORD	1025848	wordpools/wasnorm_wordpool.txt	LTP135	ltpFR	18	12	0	LOG	841	n/a	1	1	0.412841796875	0.57763671875	lower	../fonts/zerothre.ttf
2057.578	n/a	REC_START	1028789	n/a	LTP135	ltpFR	18	12	n/a	n/a	n/a	n/a	n/a	n/a	n/a	n/a	n/a	n/a
2058.502	n/a	REC_WORD	1029251	wordpools/wasnorm_wordpool.txt	LTP135	ltpFR	18	12	0	LOG	841	n/a	1	n/a	n/a	n/a	n/a	n/a
2060.182	n/a	REC_WORD	1030091	wordpools/wasnorm_wordpool.txt	LTP135	ltpFR	18	12	0	PADDING	999	n/a	0	n/a	n/a	n/a	n/a	n/a
2063.45	n/a	REC_WORD	1031725	wordpools/wasnorm_wordpool.txt	LTP135	ltpFR	18	12	0	LINEN	825	n/a	0	n/a	n/a	n/a	n/a	n/a
2065.93	n/a	REC_WORD	1032965	wordpools/wasnorm_wordpool.txt	LTP135	ltpFR	18	12	0	APRON	35	n/a	0	n/a	n/a	n/a	n/a	n/a
2068.674	n/a	REC_WORD	1034337	wordpools/wasnorm_wordpool.txt	LTP135	ltpFR	18	12	0	EXPLOSION	544	n/a	1	n/a	n/a	n/a	n/a	n/a
2069.674	n/a	REC_WORD_VV	1034837	wordpools/wasnorm_wordpool.txt	LTP135	ltpFR	18	12	n/a	<>	-1	n/a	n/a	n/a	n/a	n/a	n/a	n/a
2102.274	n/a	REC_WORD	1051137	wordpools/wasnorm_wordpool.txt	LTP135	ltpFR	18	12	0	SARDINE	1235	n/a	0	n/a	n/a	n/a	n/a	n/a
2123.936	n/a	REC_WORD	1061968	wordpools/wasnorm_wordpool.txt	LTP135	ltpFR	18	12	0	OCTOPUS	971	n/a	1	n/a	n/a	n/a	n/a	n/a
2133.164	n/a	REST_REWET	1066582	n/a	LTP135	ltpFR	18	12	n/a	n/a	n/a	n/a	n/a	n/a	n/a	n/a	n/a	n/a
2505.85	n/a	WORD	1252925	wordpools/wasnorm_wordpool.txt	LTP135	ltpFR	18	13	-1	PORCUPINE	1107	n/a	-1	1	1.0	1.0	upper	../fonts/Verdana.ttf
2509.882	n/a	WORD	1254941	wordpools/wasnorm_wordpool.txt	LTP135	ltpFR	18	13	-1	PIN	1072	n/a	-1	1	1.0	1.0	upper	../fonts/Verdana.ttf
2514.082	n/a	WORD	1257041	wordpools/wasnorm_wordpool.txt	LTP135	ltpFR	18	13	-1	BEET	115	n/a	-1	1	1.0	1.0	upper	../fonts/Verdana.ttf
2518.206	n/a	WORD	1259103	wordpools/wasnorm_wordpool.txt	LTP135	ltpFR	18	13	-1	RUBY	1214	n/a	-1	1	1.0	1.0	upper	../fonts/Verdana.ttf
2522.354	n/a	WORD	1261177	wordpools/wasnorm_wordpool.txt	LTP135	ltpFR	18	13	-1	STOOL	1386	n/a	-1	1	1.0	1.0	upper	../fonts/Verdana.ttf
2526.378	n/a	WORD	1263189	wordpools/wasnorm_wordpool.txt	LTP135	ltpFR	18	13	-1	BRANDY	169	n/a	-1	1	1.0	1.0	upper	../fonts/Verdana.ttf
2530.252	n/a	WORD	1265126	wordpools/wasnorm_wordpool.txt	LTP135	ltpFR	18	13	-1	STAPLE	1371	n/a	-1	1	1.0	1.0	upper	../fonts/Verdana.ttf
2534.35	n/a	WORD	1267175	wordpools/wasnorm_wordpool.txt	LTP135	ltpFR	18	13	-1	BRICK	172	n/a	-1	1	1.0	1.0	upper	../fonts/Verdana.ttf
2538.308	n/a	WORD	1269154	wordpools/wasnorm_wordpool.txt	LTP135	ltpFR	18	13	-1	HELMET	702	n/a	-1	1	1.0	1.0	upper	../fonts/Verdana.ttf
2542.182	n/a	WORD	1271091	wordpools/wasnorm_wordpool.txt	LTP135	ltpFR	18	13	-1	DEPARTMENT	449	n/a	-1	1	1.0	1.0	upper	../fonts/Verdana.ttf
2546.338	n/a	WORD	1273169	wordpools/wasnorm_wordpool.txt	LTP135	ltpFR	18	13	-1	MARBLE	867	n/a	-1	1	1.0	1.0	upper	../fonts/Verdana.ttf
2550.154	n/a	WORD	1275077	wordpools/wasnorm_wordpool.txt	LTP135	ltpFR	18	13	-1	DRAWER	493	n/a	-1	1	1.0	1.0	upper	../fonts/Verdana.ttf
2554.002	n/a	WORD	1277001	wordpools/wasnorm_wordpool.txt	LTP135	ltpFR	18	13	-1	IRON	744	n/a	-1	1	1.0	1.0	upper	../fonts/Verdana.ttf
2557.91	n/a	WORD	1278955	wordpools/wasnorm_wordpool.txt	LTP135	ltpFR	18	13	-1	MAN	862	n/a	-1	1	1.0	1.0	upper	../fonts/Verdana.ttf
2561.8	n/a	WORD	1280900	wordpools/wasnorm_wordpool.txt	LTP135	ltpFR	18	13	-1	TABLE	1426	n/a	-1	1	1.0	1.0	upper	../fonts/Verdana.ttf
2565.69	n/a	WORD	1282845	wordpools/wasnorm_wordpool.txt	LTP135	ltpFR	18	13	-1	ESSAY	540	n/a	-1	1	1.0	1.0	upper	../fonts/Verdana.ttf
2571.498	n/a	REC_START	1285749	n/a	LTP135	ltpFR	18	13	n/a	n/a	n/a	n/a	n/a	n/a	n/a	n/a	n/a	n/a
2572.924	n/a	REC_WORD	1286462	wordpools/wasnorm_wordpool.txt	LTP135	ltpFR	18	13	-1	ESSAY	540	n/a	-1	n/a	n/a	n/a	n/a	n/a
2573.962	n/a	REC_WORD	1286981	wordpools/wasnorm_wordpool.txt	LTP135	ltpFR	18	13	-1	TABLE	1426	n/a	-1	n/a	n/a	n/a	n/a	n/a
2574.986	n/a	REC_WORD	1287493	wordpools/wasnorm_wordpool.txt	LTP135	ltpFR	18	13	-1	MAN	862	n/a	-1	n/a	n/a	n/a	n/a	n/a
2576.476	n/a	REC_WORD	1288238	wordpools/wasnorm_wordpool.txt	LTP135	ltpFR	18	13	-1	IRON	744	n/a	-1	n/a	n/a	n/a	n/a	n/a
2577.49	n/a	REC_WORD	1288745	wordpools/wasnorm_wordpool.txt	LTP135	ltpFR	18	13	-1	STOOL	1386	n/a	-1	n/a	n/a	n/a	n/a	n/a
2580.462	n/a	REC_WORD	1290231	wordpools/wasnorm_wordpool.txt	LTP135	ltpFR	18	13	-1	PORCUPINE	1107	n/a	-1	n/a	n/a	n/a	n/a	n/a
2581.54	n/a	REC_WORD	1290770	wordpools/wasnorm_wordpool.txt	LTP135	ltpFR	18	13	-1	PIN	1072	n/a	-1	n/a	n/a	n/a	n/a	n/a
2707.948	n/a	WORD	1353974	wordpools/wasnorm_wordpool.txt	LTP135	ltpFR	18	14	1	ASIA	46	n/a	0	0	0.5869140625	0.422607421875	upper	../fonts/amplitud.ttf
2711.83	n/a	WORD	1355915	wordpools/wasnorm_wordpool.txt	LTP135	ltpFR	18	14	1	FRUIT	610	n/a	1	0	0.5869140625	0.422607421875	upper	../fonts/amplitud.ttf
2715.852	n/a	WORD	1357926	wordpools/wasnorm_wordpool.txt	LTP135	ltpFR	18	14	1	LONDON	843	n/a	0	0	0.5869140625	0.422607421875	upper	../fonts/amplitud.ttf
2719.934	n/a	WORD	1359967	wordpools/wasnorm_wordpool.txt	LTP135	ltpFR	18	14	1	CLOUD	328	n/a	0	0	0.5869140625	0.422607421875	upper	../fonts/amplitud.ttf
2723.75	n/a	WORD	1361875	wordpools/wasnorm_wordpool.txt	LTP135	ltpFR	18	14	1	COLUMN	350	n/a	0	0	0.5869140625	0.422607421875	upper	../fonts/amplitud.ttf
2727.616	n/a	WORD	1363808	wordpools/wasnorm_wordpool.txt	LTP135	ltpFR	18	14	1	CHAMPAGNE	278	n/a	0	0	0.5869140625	0.422607421875	upper	../fonts/amplitud.ttf
2731.598	n/a	WORD	1365799	wordpools/wasnorm_wordpool.txt	LTP135	ltpFR	18	14	1	CAGE	218	n/a	0	0	0.5869140625	0.422607421875	upper	../fonts/amplitud.ttf
2735.514	n/a	WORD	1367757	wordpools/wasnorm_wordpool.txt	LTP135	ltpFR	18	14	1	EDITORIAL	517	n/a	0	0	0.5869140625	0.422607421875	upper	../fonts/amplitud.ttf
2739.478	n/a	WORD	1369739	wordpools/wasnorm_wordpool.txt	LTP135	ltpFR	18	14	1	BUFFALO	186	n/a	1	0	0.5869140625	0.422607421875	upper	../fonts/amplitud.ttf
2743.652	n/a	WORD	1371826	wordpools/wasnorm_wordpool.txt	LTP135	ltpFR	18	14	1	SCREWDRIVER	1255	n/a	0	0	0.5869140625	0.422607421875	upper	../fonts/amplitud.ttf
2747.802	n/a	WORD	1373901	wordpools/wasnorm_wordpool.txt	LTP135	ltpFR	18	14	1	BARTENDER	92	n/a	1	0	0.5869140625	0.422607421875	upper	../fonts/amplitud.ttf
2751.708	n/a	WORD	1375854	wordpools/wasnorm_wordpool.txt	LTP135	ltpFR	18	14	1	STOCKING	1383	n/a	0	0	0.5869140625	0.422607421875	upper	../fonts/amplitud.ttf
2755.54	n/a	WORD	1377770	wordpools/wasnorm_wordpool.txt	LTP135	ltpFR	18	14	1	REINDEER	1181	n/a	1	0	0.5869140625	0.422607421875	upper	../fonts/amplitud.ttf
2759.69	n/a	WORD	1379845	wordpools/wasnorm_wordpool.txt	LTP135	ltpFR	18	14	1	FLEET	578	n/a	0	0	0.5869140625	0.422607421875	upper	../fonts/amplitud.ttf
2763.906	n/a	WORD	1381953	wordpools/wasnorm_wordpool.txt	LTP135	ltpFR	18	14	1	VET	1560	n/a	1	0	0.5869140625	0.422607421875	upper	../fonts/amplitud.ttf
2767.854	n/a	WORD	1383927	wordpools/wasnorm_wordpool.txt	LTP135	ltpFR	18	14	1	HOSTESS	723	n/a	1	0	0.5869140625	0.422607421875	upper	../fonts/amplitud.ttf
2773.77	n/a	REC_START	1386885	n/a	LTP135	ltpFR	18	14	n/a	n/a	n/a	n/a	n/a	n/a	n/a	n/a	n/a	n/a
2774.766	n/a	REC_WORD	1387383	wordpools/wasnorm_wordpool.txt	LTP135	ltpFR	18	14	1	VET	1560	n/a	1	n/a	n/a	n/a	n/a	n/a
2775.626	n/a	REC_WORD	1387813	wordpools/wasnorm_wordpool.txt	LTP135	ltpFR	18	14	1	HOSTESS	723	n/a	1	n/a	n/a	n/a	n/a	n/a
2776.648	n/a	REC_WORD	1388324	wordpools/wasnorm_wordpool.txt	LTP135	ltpFR	18	14	1	REINDEER	1181	n/a	1	n/a	n/a	n/a	n/a	n/a
2787.174	n/a	REC_WORD	1393587	wordpools/wasnorm_wordpool.txt	LTP135	ltpFR	18	14	1	LONDON	843	n/a	0	n/a	n/a	n/a	n/a	n/a
2788.078	n/a	REC_WORD	1394039	wordpools/wasnorm_wordpool.txt	LTP135	ltpFR	18	14	1	ASIA	46	n/a	0	n/a	n/a	n/a	n/a	n/a
2791.794	n/a	REC_WORD	1395897	wordpools/wasnorm_wordpool.txt	LTP135	ltpFR	18	14	1	CHAMPAGNE	278	n/a	0	n/a	n/a	n/a	n/a	n/a
2792.936	n/a	REC_WORD	1396468	wordpools/wasnorm_wordpool.txt	LTP135	ltpFR	18	14	1	CAGE	218	n/a	0	n/a	n/a	n/a	n/a	n/a
2794.368	n/a	REC_WORD	1397184	wordpools/wasnorm_wordpool.txt	LTP135	ltpFR	18	14	1	FRUIT	610	n/a	1	n/a	n/a	n/a	n/a	n/a
2798.29	n/a	REC_WORD	1399145	wordpools/wasnorm_wordpool.txt	LTP135	ltpFR	18	14	1	SCREWDRIVER	1255	n/a	0	n/a	n/a	n/a	n/a	n/a
2799.29	n/a	REC_WORD_VV	1399645	wordpools/wasnorm_wordpool.txt	LTP135	ltpFR	18	14	n/a	<>	-1	n/a	n/a	n/a	n/a	n/a	n/a	n/a
2802.876	n/a	REC_WORD	1401438	wordpools/wasnorm_wordpool.txt	LTP135	ltpFR	18	14	1	EDITORIAL	517	n/a	0	n/a	n/a	n/a	n/a	n/a
2810.528	n/a	REC_WORD	1405264	wordpools/wasnorm_wordpool.txt	LTP135	ltpFR	18	14	1	BUFFALO	186	n/a	1	n/a	n/a	n/a	n/a	n/a
2905.904	n/a	WORD	1452952	wordpools/wasnorm_wordpool.txt	LTP135	ltpFR	18	15	1	STAMP	1370	n/a	0	0	0.5869140625	0.422607421875	upper	../fonts/amplitud.ttf
2910.062	n/a	WORD	1455031	wordpools/wasnorm_wordpool.txt	LTP135	ltpFR	18	15	1	SUNSET	1408	n/a	0	0	0.5869140625	0.422607421875	upper	../fonts/amplitud.ttf
2913.918	n/a	WORD	1456959	wordpools/wasnorm_wordpool.txt	LTP135	ltpFR	18	15	1	FLORIDA	582	n/a	0	0	0.5869140625	0.422607421875	upper	../fonts/amplitud.ttf
2917.85	n/a	WORD	1458925	wordpools/wasnorm_wordpool.txt	LTP135	ltpFR	18	15	1	MESSAGE	888	n/a	0	0	0.5869140625	0.422607421875	upper	../fonts/amplitud.ttf
2921.924	n/a	WORD	1460962	wordpools/wasnorm_wordpool.txt	LTP135	ltpFR	18	15	0	AGENT	10	n/a	1	1	0.412841796875	0.57763671875	lower	../fonts/zerothre.ttf
2925.972	n/a	WORD	1462986	wordpools/wasnorm_wordpool.txt	LTP135	ltpFR	18	15	0	PACKAGE	997	n/a	1	1	0.412841796875	0.57763671875	lower	../fonts/zerothre.ttf
2929.788	n/a	WORD	1464894	wordpools/wasnorm_wordpool.txt	LTP135	ltpFR	18	15	0	TRAIN	1494	n/a	1	1	0.412841796875	0.57763671875	lower	../fonts/zerothre.ttf
2933.954	n/a	WORD	1466977	wordpools/wasnorm_wordpool.txt	LTP135	ltpFR	18	15	0	CHEEK	287	n/a	0	1	0.412841796875	0.57763671875	lower	../fonts/zerothre.ttf
2938.07	n/a	WORD	1469035	wordpools/wasnorm_wordpool.txt	LTP135	ltpFR	18	15	0	METEOR	889	n/a	1	1	0.412841796875	0.57763671875	lower	../fonts/zerothre.ttf
2942.018	n/a	WORD	1471009	wordpools/wasnorm_wordpool.txt	LTP135	ltpFR	18	15	1	SUBWAY	1400	n/a	0	0	0.5869140625	0.422607421875	upper	../fonts/amplitud.ttf
2945.992	n/a	WORD	1472996	wordpools/wasnorm_wordpool.txt	LTP135	ltpFR	18	15	1	CROWN	415	n/a	0	0	0.5869140625	0.422607421875	upper	../fonts/amplitud.ttf
2950.04	n/a	WORD	1475020	wordpools/wasnorm_wordpool.txt	LTP135	ltpFR	18	15	0	DICTATOR	462	n/a	1	1	0.412841796875	0.57763671875	lower	../fonts/zerothre.ttf
2954.224	n/a	WORD	1477112	wordpools/wasnorm_wordpool.txt	LTP135	ltpFR	18	15	0	MONEY	908	n/a	0	1	0.412841796875	0.57763671875	lower	../fonts/zerothre.ttf
2958.356	n/a	WORD	1479178	wordpools/wasnorm_wordpool.txt	LTP135	ltpFR	18	15	0	WALLET	1583	n/a	0	1	0.412841796875	0.57763671875	lower	../fonts/zerothre.ttf
2962.238	n/a	WORD	1481119	wordpools/wasnorm_wordpool.txt	LTP135	ltpFR	18	15	1	STRANGER	1389	n/a	1	0	0.5869140625	0.422607421875	upper	../fonts/amplitud.ttf
2966.194	n/a	WORD	1483097	wordpools/wasnorm_wordpool.txt	LTP135	ltpFR	18	15	1	ROBIN	1199	n/a	1	0	0.5869140625	0.422607421875	upper	../fonts/amplitud.ttf
2972.078	n/a	REC_START	1486039	n/a	LTP135	ltpFR	18	15	n/a	n/a	n/a	n/a	n/a	n/a	n/a	n/a	n/a	n/a
2973.17	n/a	REC_WORD	1486585	wordpools/wasnorm_wordpool.txt	LTP135	ltpFR	18	15	1	STRANGER	1389	n/a	1	n/a	n/a	n/a	n/a	n/a
2975.16	n/a	REC_WORD	1487580	wordpools/wasnorm_wordpool.txt	LTP135	ltpFR	18	15	1	ROBIN	1199	n/a	1	n/a	n/a	n/a	n/a	n/a
2976.478	n/a	REC_WORD	1488239	wordpools/wasnorm_wordpool.txt	LTP135	ltpFR	18	15	0	WALLET	1583	n/a	0	n/a	n/a	n/a	n/a	n/a
2978.144	n/a	REC_WORD	1489072	wordpools/wasnorm_wordpool.txt	LTP135	ltpFR	18	15	0	MONEY	908	n/a	0	n/a	n/a	n/a	n/a	n/a
2979.146	n/a	REC_WORD	1489573	wordpools/wasnorm_wordpool.txt	LTP135	ltpFR	18	15	0	PACKAGE	997	n/a	1	n/a	n/a	n/a	n/a	n/a
2980.842	n/a	REC_WORD	1490421	wordpools/wasnorm_wordpool.txt	LTP135	ltpFR	18	15	0	DICTATOR	462	n/a	1	n/a	n/a	n/a	n/a	n/a
2982.952	n/a	REC_WORD	1491476	wordpools/wasnorm_wordpool.txt	LTP135	ltpFR	18	15	0	AGENT	10	n/a	1	n/a	n/a	n/a	n/a	n/a
2987.028	n/a	REC_WORD	1493514	wordpools/wasnorm_wordpool.txt	LTP135	ltpFR	18	15	1	STAMP	1370	n/a	0	n/a	n/a	n/a	n/a	n/a
3012.882	n/a	REC_WORD	1506441	wordpools/wasnorm_wordpool.txt	LTP135	ltpFR	18	15	1	SUBWAY	1400	n/a	0	n/a	n/a	n/a	n/a	n/a
3052.568	n/a	WORD	1526284	wordpools/wasnorm_wordpool.txt	LTP135	ltpFR	18	16	-1	BRACES	164	n/a	-1	1	1.0	1.0	upper	../fonts/Verdana.ttf
3056.442	n/a	WORD	1528221	wordpools/wasnorm_wordpool.txt	LTP135	ltpFR	18	16	-1	FLAG	573	n/a	-1	1	1.0	1.0	upper	../fonts/Verdana.ttf
3060.4	n/a	WORD	1530200	wordpools/wasnorm_wordpool.txt	LTP135	ltpFR	18	16	-1	FOOT	590	n/a	-1	1	1.0	1.0	upper	../fonts/Verdana.ttf
3064.554	n/a	WORD	1532277	wordpools/wasnorm_wordpool.txt	LTP135	ltpFR	18	16	-1	CORAL	378	n/a	-1	1	1.0	1.0	upper	../fonts/Verdana.ttf
3068.754	n/a	WORD	1534377	wordpools/wasnorm_wordpool.txt	LTP135	ltpFR	18	16	-1	SAXOPHONE	1240	n/a	-1	1	1.0	1.0	upper	../fonts/Verdana.ttf
3072.852	n/a	WORD	1536426	wordpools/wasnorm_wordpool.txt	LTP135	ltpFR	18	16	-1	GUITAR	670	n/a	-1	1	1.0	1.0	upper	../fonts/Verdana.ttf
3076.694	n/a	WORD	1538347	wordpools/wasnorm_wordpool.txt	LTP135	ltpFR	18	16	-1	BOULDER	155	n/a	-1	1	1.0	1.0	upper	../fonts/Verdana.ttf
3080.85	n/a	WORD	1540425	wordpools/wasnorm_wordpool.txt	LTP135	ltpFR	18	16	-1	SHOELACE	1289	n/a	-1	1	1.0	1.0	upper	../fonts/Verdana.ttf
3084.942	n/a	WORD	1542471	wordpools/wasnorm_wordpool.txt	LTP135	ltpFR	18	16	-1	BOUILLON	154	n/a	-1	1	1.0	1.0	upper	../fonts/Verdana.ttf
3089.024	n/a	WORD	1544512	wordpools/wasnorm_wordpool.txt	LTP135	ltpFR	18	16	-1	CONTINENT	367	n/a	-1	1	1.0	1.0	upper	../fonts/Verdana.ttf
3093.132	n/a	WORD	1546566	wordpools/wasnorm_wordpool.txt	LTP135	ltpFR	18	16	-1	RADISH	1158	n/a	-1	1	1.0	1.0	upper	../fonts/Verdana.ttf
3097.13	n/a	WORD	1548565	wordpools/wasnorm_wordpool.txt	LTP135	ltpFR	18	16	-1	VINE	1568	n/a	-1	1	1.0	1.0	upper	../fonts/Verdana.ttf
3101.228	n/a	WORD	1550614	wordpools/wasnorm_wordpool.txt	LTP135	ltpFR	18	16	-1	KEY	773	n/a	-1	1	1.0	1.0	upper	../fonts/Verdana.ttf
3105.27	n/a	WORD	1552635	wordpools/wasnorm_wordpool.txt	LTP135	ltpFR	18	16	-1	PASSAGE	1019	n/a	-1	1	1.0	1.0	upper	../fonts/Verdana.ttf
3109.21	n/a	WORD	1554605	wordpools/wasnorm_wordpool.txt	LTP135	ltpFR	18	16	-1	MAGICIAN	854	n/a	-1	1	1.0	1.0	upper	../fonts/Verdana.ttf
3113.158	n/a	WORD	1556579	wordpools/wasnorm_wordpool.txt	LTP135	ltpFR	18	16	-1	APARTMENT	30	n/a	-1	1	1.0	1.0	upper	../fonts/Verdana.ttf
3119.024	n/a	REC_START	1559512	n/a	LTP135	ltpFR	18	16	n/a	n/a	n/a	n/a	n/a	n/a	n/a	n/a	n/a	n/a
3120.63	n/a	REC_WORD	1560315	wordpools/wasnorm_wordpool.txt	LTP135	ltpFR	18	16	-1	APARTMENT	30	n/a	-1	n/a	n/a	n/a	n/a	n/a
3122.5	n/a	REC_WORD	1561250	wordpools/wasnorm_wordpool.txt	LTP135	ltpFR	18	16	-1	KEY	773	n/a	-1	n/a	n/a	n/a	n/a	n/a
3127.51	n/a	REC_WORD	1563755	wordpools/wasnorm_wordpool.txt	LTP135	ltpFR	18	16	-1	CORAL	378	n/a	-1	n/a	n/a	n/a	n/a	n/a
3133.302	n/a	REC_WORD	1566651	wordpools/wasnorm_wordpool.txt	LTP135	ltpFR	18	16	-1	MAGICIAN	854	n/a	-1	n/a	n/a	n/a	n/a	n/a
3152.924	n/a	REC_WORD	1576462	wordpools/wasnorm_wordpool.txt	LTP135	ltpFR	18	16	-1	SHOELACE	1289	n/a	-1	n/a	n/a	n/a	n/a	n/a
3153.924	n/a	REC_WORD_VV	1576962	wordpools/wasnorm_wordpool.txt	LTP135	ltpFR	18	16	n/a	<>	-1	n/a	n/a	n/a	n/a	n/a	n/a	n/a
3158.536	n/a	REC_WORD	1579268	wordpools/wasnorm_wordpool.txt	LTP135	ltpFR	18	16	-1	VINE	1568	n/a	-1	n/a	n/a	n/a	n/a	n/a
3166.15	n/a	REC_WORD	1583075	wordpools/wasnorm_wordpool.txt	LTP135	ltpFR	18	16	0	TURNIP	1521	n/a	0	n/a	n/a	n/a	n/a	n/a
3274.418	n/a	REC_START	1637209	n/a	LTP135	ltpFR	18	n/a	n/a	n/a	n/a	n/a	n/a	n/a	n/a	n/a	n/a	n/a
3276.802	n/a	FFR_REC_WORD	1638401	wordpools/wasnorm_wordpool.txt	LTP135	ltpFR	18	n/a	1	PLANT	1083	n/a	1	n/a	n/a	n/a	n/a	n/a
3278.08	n/a	FFR_REC_WORD	1639040	wordpools/wasnorm_wordpool.txt	LTP135	ltpFR	18	n/a	1	CACTUS	215	n/a	1	n/a	n/a	n/a	n/a	n/a
3279.08	n/a	FFR_REC_WORD_VV	1639540	wordpools/wasnorm_wordpool.txt	LTP135	ltpFR	18	n/a	n/a	<>	-1	n/a	n/a	n/a	n/a	n/a	n/a	n/a
3282.15	n/a	FFR_REC_WORD	1641075	wordpools/wasnorm_wordpool.txt	LTP135	ltpFR	18	n/a	-1	CANOE	233	n/a	-1	n/a	n/a	n/a	n/a	n/a
3283.458	n/a	FFR_REC_WORD	1641729	wordpools/wasnorm_wordpool.txt	LTP135	ltpFR	18	n/a	-1	ANCHOR	21	n/a	-1	n/a	n/a	n/a	n/a	n/a
3284.914	n/a	FFR_REC_WORD	1642457	wordpools/wasnorm_wordpool.txt	LTP135	ltpFR	18	n/a	-1	RIVER	1194	n/a	-1	n/a	n/a	n/a	n/a	n/a
3286.506	n/a	FFR_REC_WORD	1643253	wordpools/wasnorm_wordpool.txt	LTP135	ltpFR	18	n/a	-1	MARSH	874	n/a	-1	n/a	n/a	n/a	n/a	n/a
3288.032	n/a	FFR_REC_WORD	1644016	wordpools/wasnorm_wordpool.txt	LTP135	ltpFR	18	n/a	-1	FAUCET	555	n/a	-1	n/a	n/a	n/a	n/a	n/a
3292.362	n/a	FFR_REC_WORD	1646181	wordpools/wasnorm_wordpool.txt	LTP135	ltpFR	18	n/a	-1	TUNA	1518	n/a	-1	n/a	n/a	n/a	n/a	n/a
3293.874	n/a	FFR_REC_WORD	1646937	wordpools/wasnorm_wordpool.txt	LTP135	ltpFR	18	n/a	0	SARDINE	1235	n/a	0	n/a	n/a	n/a	n/a	n/a
3297.032	n/a	FFR_REC_WORD	1648516	wordpools/wasnorm_wordpool.txt	LTP135	ltpFR	18	n/a	1	BUFFALO	186	n/a	1	n/a	n/a	n/a	n/a	n/a
3298.848	n/a	FFR_REC_WORD	1649424	wordpools/wasnorm_wordpool.txt	LTP135	ltpFR	18	n/a	1	PONY	1102	n/a	1	n/a	n/a	n/a	n/a	n/a
3300.524	n/a	FFR_REC_WORD	1650262	wordpools/wasnorm_wordpool.txt	LTP135	ltpFR	18	n/a	1	LEOPARD	812	n/a	1	n/a	n/a	n/a	n/a	n/a
3302.172	n/a	FFR_REC_WORD	1651086	wordpools/wasnorm_wordpool.txt	LTP135	ltpFR	18	n/a	1	SNAIL	1332	n/a	1	n/a	n/a	n/a	n/a	n/a
3304.136	n/a	FFR_REC_WORD	1652068	wordpools/wasnorm_wordpool.txt	LTP135	ltpFR	18	n/a	0	ANT	25	n/a	0	n/a	n/a	n/a	n/a	n/a
3305.534	n/a	FFR_REC_WORD	1652767	wordpools/wasnorm_wordpool.txt	LTP135	ltpFR	18	n/a	0	REPTILE	1185	n/a	0	n/a	n/a	n/a	n/a	n/a
3310.636	n/a	FFR_REC_WORD	1655318	wordpools/wasnorm_wordpool.txt	LTP135	ltpFR	18	n/a	1	VET	1560	n/a	1	n/a	n/a	n/a	n/a	n/a
3312.21	n/a	FFR_REC_WORD	1656105	wordpools/wasnorm_wordpool.txt	LTP135	ltpFR	18	n/a	1	COLONEL	348	n/a	1	n/a	n/a	n/a	n/a	n/a
3313.95	n/a	FFR_REC_WORD	1656975	wordpools/wasnorm_wordpool.txt	LTP135	ltpFR	18	n/a	1	ARMY	39	n/a	1	n/a	n/a	n/a	n/a	n/a
3316.804	n/a	FFR_REC_WORD	1658402	wordpools/wasnorm_wordpool.txt	LTP135	ltpFR	18	n/a	1	TIDE	1465	n/a	0	n/a	n/a	n/a	n/a	n/a
3319.708	n/a	FFR_REC_WORD	1659854	wordpools/wasnorm_wordpool.txt	LTP135	ltpFR	18	n/a	1	ASIA	46	n/a	0	n/a	n/a	n/a	n/a	n/a
3321.502	n/a	FFR_REC_WORD	1660751	wordpools/wasnorm_wordpool.txt	LTP135	ltpFR	18	n/a	1	SUBWAY	1400	n/a	0	n/a	n/a	n/a	n/a	n/a
3323.698	n/a	FFR_REC_WORD	1661849	wordpools/wasnorm_wordpool.txt	LTP135	ltpFR	18	n/a	1	LONDON	843	n/a	0	n/a	n/a	n/a	n/a	n/a
3328.342	n/a	FFR_REC_WORD	1664171	wordpools/wasnorm_wordpool.txt	LTP135	ltpFR	18	n/a	-1	MAGICIAN	854	n/a	-1	n/a	n/a	n/a	n/a	n/a
3329.536	n/a	FFR_REC_WORD	1664768	wordpools/wasnorm_wordpool.txt	LTP135	ltpFR	18	n/a	0	SUPERVISOR	1410	n/a	1	n/a	n/a	n/a	n/a	n/a
3330.536	n/a	FFR_REC_WORD_VV	1665268	wordpools/wasnorm_wordpool.txt	LTP135	ltpFR	18	n/a	n/a	<>	-1	n/a	n/a	n/a	n/a	n/a	n/a	n/a
3331.406	n/a	FFR_REC_WORD	1665703	wordpools/wasnorm_wordpool.txt	LTP135	ltpFR	18	n/a	0	WIDOW	1608	n/a	1	n/a	n/a	n/a	n/a	n/a
3333.352	n/a	FFR_REC_WORD	1666676	wordpools/wasnorm_wordpool.txt	LTP135	ltpFR	18	n/a	1	ENGINEER	536	n/a	1	n/a	n/a	n/a	n/a	n/a
3334.256	n/a	FFR_REC_WORD	1667128	wordpools/wasnorm_wordpool.txt	LTP135	ltpFR	18	n/a	0	ARCHITECT	36	n/a	1	n/a	n/a	n/a	n/a	n/a
3341.04	n/a	FFR_REC_WORD	1670520	wordpools/wasnorm_wordpool.txt	LTP135	ltpFR	18	n/a	0	PROTON	1132	n/a	0	n/a	n/a	n/a	n/a	n/a
3343.988	n/a	FFR_REC_WORD	1671994	wordpools/wasnorm_wordpool.txt	LTP135	ltpFR	18	n/a	-1	PORCUPINE	1107	n/a	-1	n/a	n/a	n/a	n/a	n/a
3352.166	n/a	FFR_REC_WORD	1676083	wordpools/wasnorm_wordpool.txt	LTP135	ltpFR	18	n/a	1	FRUIT	610	n/a	1	n/a	n/a	n/a	n/a	n/a
3358.52	n/a	FFR_REC_WORD	1679260	wordpools/wasnorm_wordpool.txt	LTP135	ltpFR	18	n/a	-1	VINE	1568	n/a	-1	n/a	n/a	n/a	n/a	n/a
3362.792	n/a	FFR_REC_WORD	1681396	wordpools/wasnorm_wordpool.txt	LTP135	ltpFR	18	n/a	0	LAVA	804	n/a	0	n/a	n/a	n/a	n/a	n/a
3363.694	n/a	FFR_REC_WORD	1681847	wordpools/wasnorm_wordpool.txt	LTP135	ltpFR	18	n/a	0	VOLCANO	1575	n/a	1	n/a	n/a	n/a	n/a	n/a
3364.694	n/a	FFR_REC_WORD_VV	1682347	wordpools/wasnorm_wordpool.txt	LTP135	ltpFR	18	n/a	n/a	<>	-1	n/a	n/a	n/a	n/a	n/a	n/a	n/a
3365.934	n/a	FFR_REC_WORD	1682967	wordpools/wasnorm_wordpool.txt	LTP135	ltpFR	18	n/a	0	MARS	873	n/a	1	n/a	n/a	n/a	n/a	n/a
3366.942	n/a	FFR_REC_WORD	1683471	wordpools/wasnorm_wordpool.txt	LTP135	ltpFR	18	n/a	0	UNIVERSE	1540	n/a	1	n/a	n/a	n/a	n/a	n/a
3367.942	n/a	FFR_REC_WORD_VV	1683971	wordpools/wasnorm_wordpool.txt	LTP135	ltpFR	18	n/a	n/a	<>	-1	n/a	n/a	n/a	n/a	n/a	n/a	n/a
3369.202	n/a	FFR_REC_WORD	1684601	wordpools/wasnorm_wordpool.txt	LTP135	ltpFR	18	n/a	0	CRATER	400	n/a	1	n/a	n/a	n/a	n/a	n/a
3372.296	n/a	FFR_REC_WORD	1686148	wordpools/wasnorm_wordpool.txt	LTP135	ltpFR	18	n/a	0	LOFT	840	n/a	1	n/a	n/a	n/a	n/a	n/a
3382.826	n/a	FFR_REC_WORD	1691413	wordpools/wasnorm_wordpool.txt	LTP135	ltpFR	18	n/a	-1	ESSAY	540	n/a	-1	n/a	n/a	n/a	n/a	n/a
3385.5	n/a	FFR_REC_WORD	1692750	wordpools/wasnorm_wordpool.txt	LTP135	ltpFR	18	n/a	1	LITERATURE	831	n/a	0	n/a	n/a	n/a	n/a	n/a
3387.432	n/a	FFR_REC_WORD	1693716	wordpools/wasnorm_wordpool.txt	LTP135	ltpFR	18	n/a	1	EDITORIAL	517	n/a	0	n/a	n/a	n/a	n/a	n/a
3396.098	n/a	FFR_REC_WORD	1698049	wordpools/wasnorm_wordpool.txt	LTP135	ltpFR	18	n/a	-1	CARAVAN	242	n/a	-1	n/a	n/a	n/a	n/a	n/a
3398.064	n/a	FFR_REC_WORD	1699032	wordpools/wasnorm_wordpool.txt	LTP135	ltpFR	18	n/a	1	VAN	1548	n/a	0	n/a	n/a	n/a	n/a	n/a
3400.204	n/a	FFR_REC_WORD	1700102	wordpools/wasnorm_wordpool.txt	LTP135	ltpFR	18	n/a	1	BRAKE	166	n/a	0	n/a	n/a	n/a	n/a	n/a
3403.606	n/a	FFR_REC_WORD	1701803	wordpools/wasnorm_wordpool.txt	LTP135	ltpFR	18	n/a	1	SCREWDRIVER	1255	n/a	0	n/a	n/a	n/a	n/a	n/a
3404.606	n/a	FFR_REC_WORD_VV	1702303	wordpools/wasnorm_wordpool.txt	LTP135	ltpFR	18	n/a	n/a	<>	-1	n/a	n/a	n/a	n/a	n/a	n/a	n/a
3405.396	n/a	FFR_REC_WORD	1702698	wordpools/wasnorm_wordpool.txt	LTP135	ltpFR	18	n/a	0	TOOL	1480	n/a	0	n/a	n/a	n/a	n/a	n/a
3411.678	n/a	FFR_REC_WORD	1705839	wordpools/wasnorm_wordpool.txt	LTP135	ltpFR	18	n/a	1	CHAMPAGNE	278	n/a	0	n/a	n/a	n/a	n/a	n/a
3412.936	n/a	FFR_REC_WORD	1706468	wordpools/wasnorm_wordpool.txt	LTP135	ltpFR	18	n/a	1	CAGE	218	n/a	0	n/a	n/a	n/a	n/a	n/a
3421.58	n/a	FFR_REC_WORD	1710790	wordpools/wasnorm_wordpool.txt	LTP135	ltpFR	18	n/a	-1	ORGAN	984	n/a	-1	n/a	n/a	n/a	n/a	n/a
3428.126	n/a	FFR_REC_WORD	1714063	wordpools/wasnorm_wordpool.txt	LTP135	ltpFR	18	n/a	1	SUBWAY	1400	n/a	0	n/a	n/a	n/a	n/a	n/a
3434.766	n/a	FFR_REC_WORD	1717383	wordpools/wasnorm_wordpool.txt	LTP135	ltpFR	18	n/a	-1	CORAL	378	n/a	-1	n/a	n/a	n/a	n/a	n/a
3435.95	n/a	FFR_REC_WORD	1717975	wordpools/wasnorm_wordpool.txt	LTP135	ltpFR	18	n/a	1	REEF	1177	n/a	1	n/a	n/a	n/a	n/a	n/a
3437.904	n/a	FFR_REC_WORD	1718952	wordpools/wasnorm_wordpool.txt	LTP135	ltpFR	18	n/a	0	OCTOPUS	971	n/a	1	n/a	n/a	n/a	n/a	n/a
3438.904	n/a	FFR_REC_WORD_VV	1719452	wordpools/wasnorm_wordpool.txt	LTP135	ltpFR	18	n/a	n/a	<>	-1	n/a	n/a	n/a	n/a	n/a	n/a	n/a
3443.526	n/a	FFR_REC_WORD	1721763	wordpools/wasnorm_wordpool.txt	LTP135	ltpFR	18	n/a	0	GOO	648	n/a	0	n/a	n/a	n/a	n/a	n/a
3447.584	n/a	FFR_REC_WORD	1723792	wordpools/wasnorm_wordpool.txt	LTP135	ltpFR	18	n/a	1	DESSERT	453	n/a	0	n/a	n/a	n/a	n/a	n/a
3449.574	n/a	FFR_REC_WORD	1724787	wordpools/wasnorm_wordpool.txt	LTP135	ltpFR	18	n/a	1	PIE	1062	n/a	0	n/a	n/a	n/a	n/a	n/a
3450.582	n/a	FFR_REC_WORD	1725291	wordpools/wasnorm_wordpool.txt	LTP135	ltpFR	18	n/a	1	COBBLER	335	n/a	0	n/a	n/a	n/a	n/a	n/a
3467.904	n/a	FFR_REC_WORD	1733952	wordpools/wasnorm_wordpool.txt	LTP135	ltpFR	18	n/a	0	AGENT	10	n/a	1	n/a	n/a	n/a	n/a	n/a
3469.864	n/a	FFR_REC_WORD	1734932	wordpools/wasnorm_wordpool.txt	LTP135	ltpFR	18	n/a	0	DICTATOR	462	n/a	1	n/a	n/a	n/a	n/a	n/a
3470.864	n/a	FFR_REC_WORD_VV	1735432	wordpools/wasnorm_wordpool.txt	LTP135	ltpFR	18	n/a	n/a	<>	-1	n/a	n/a	n/a	n/a	n/a	n/a	n/a
3482.222	n/a	FFR_REC_WORD	1741111	wordpools/wasnorm_wordpool.txt	LTP135	ltpFR	18	n/a	-1	NOMAD	955	n/a	-1	n/a	n/a	n/a	n/a	n/a
3498.978	n/a	FFR_REC_WORD	1749489	wordpools/wasnorm_wordpool.txt	LTP135	ltpFR	18	n/a	1	SEAGULL	1261	n/a	1	n/a	n/a	n/a	n/a	n/a
3521.18	n/a	FFR_REC_WORD	1760590	wordpools/wasnorm_wordpool.txt	LTP135	ltpFR	18	n/a	0	PADDING	999	n/a	0	n/a	n/a	n/a	n/a	n/a
3538.682	n/a	FFR_REC_WORD	1769341	wordpools/wasnorm_wordpool.txt	LTP135	ltpFR	18	n/a	0	JUVENILE	767	n/a	1	n/a	n/a	n/a	n/a	n/a
3539.768	n/a	FFR_REC_WORD	1769884	wordpools/wasnorm_wordpool.txt	LTP135	ltpFR	18	n/a	0	ADULT	8	n/a	1	n/a	n/a	n/a	n/a	n/a
3571.612	n/a	FFR_REC_WORD	1785806	wordpools/wasnorm_wordpool.txt	LTP135	ltpFR	18	n/a	-1	VEAL	1551	n/a	-1	n/a	n/a	n/a	n/a	n/a
3621.088	n/a	REC_START	1810544	n/a	LTP135	ltpFR	18	1	n/a	n/a	n/a	n/a	n/a	n/a	n/a	n/a	n/a	n/a
3621.12	n/a	RECOG_LURE	1810560	n/a	LTP135	ltpFR	18	1	n/a	BANQUET	86	1	n/a	n/a	n/a	n/a	n/a	n/a
3623.692	n/a	RECOG_RESP	1811846	n/a	LTP135	ltpFR	18	1	n/a	BANQUET	86	n/a	n/a	n/a	n/a	n/a	n/a	n/a
3624.362	n/a	RECOG_CONF	1812181	n/a	LTP135	ltpFR	18	1	n/a	BANQUET	86	1	n/a	n/a	n/a	n/a	n/a	n/a
3626.12	n/a	RECOG_LURE	1813060	n/a	LTP135	ltpFR	18	1	n/a	HONEY	713	5	n/a	n/a	n/a	n/a	n/a	n/a
3627.006	n/a	RECOG_RESP	1813503	n/a	LTP135	ltpFR	18	1	n/a	HONEY	713	n/a	n/a	n/a	n/a	n/a	n/a	n/a
3627.738	n/a	RECOG_CONF	1813869	n/a	LTP135	ltpFR	18	1	n/a	HONEY	713	5	n/a	n/a	n/a	n/a	n/a	n/a
3629.226	n/a	RECOG_LURE	1814613	n/a	LTP135	ltpFR	18	1	n/a	FLOUR	583	1	n/a	n/a	n/a	n/a	n/a	n/a
3630.476	n/a	RECOG_RESP	1815238	n/a	LTP135	ltpFR	18	1	n/a	FLOUR	583	n/a	n/a	n/a	n/a	n/a	n/a	n/a
3631.076	n/a	RECOG_CONF	1815538	n/a	LTP135	ltpFR	18	1	n/a	FLOUR	583	1	n/a	n/a	n/a	n/a	n/a	n/a
3632.724	n/a	RECOG_TARGET	1816362	n/a	LTP135	ltpFR	18	1	0	SUPERVISOR	1410	5	1	n/a	n/a	n/a	n/a	n/a
3633.78	n/a	RECOG_RESP	1816890	n/a	LTP135	ltpFR	18	1	0	SUPERVISOR	1410	n/a	1	n/a	n/a	n/a	n/a	n/a
3634.404	n/a	RECOG_CONF	1817202	n/a	LTP135	ltpFR	18	1	0	SUPERVISOR	1410	5	1	n/a	n/a	n/a	n/a	n/a
3635.882	n/a	RECOG_TARGET	1817941	n/a	LTP135	ltpFR	18	1	0	STORE	1387	1	1	n/a	n/a	n/a	n/a	n/a
3637.308	n/a	RECOG_RESP	1818654	n/a	LTP135	ltpFR	18	1	0	STORE	1387	n/a	1	n/a	n/a	n/a	n/a	n/a
3637.886	n/a	RECOG_CONF	1818943	n/a	LTP135	ltpFR	18	1	0	STORE	1387	1	1	n/a	n/a	n/a	n/a	n/a
3639.382	n/a	RECOG_TARGET	1819691	n/a	LTP135	ltpFR	18	1	0	PACKAGE	997	5	1	n/a	n/a	n/a	n/a	n/a
3640.188	n/a	RECOG_RESP	1820094	n/a	LTP135	ltpFR	18	1	0	PACKAGE	997	n/a	1	n/a	n/a	n/a	n/a	n/a
3640.75	n/a	RECOG_CONF	1820375	n/a	LTP135	ltpFR	18	1	0	PACKAGE	997	5	1	n/a	n/a	n/a	n/a	n/a
3642.14	n/a	RECOG_TARGET	1821070	n/a	LTP135	ltpFR	18	1	-1	CONTAINER	366	5	-1	n/a	n/a	n/a	n/a	n/a
3642.836	n/a	RECOG_RESP	1821418	n/a	LTP135	ltpFR	18	1	-1	CONTAINER	366	n/a	-1	n/a	n/a	n/a	n/a	n/a
3643.364	n/a	RECOG_CONF	1821682	n/a	LTP135	ltpFR	18	1	-1	CONTAINER	366	5	-1	n/a	n/a	n/a	n/a	n/a
3644.72	n/a	RECOG_TARGET	1822360	n/a	LTP135	ltpFR	18	1	1	LEOPARD	812	5	1	n/a	n/a	n/a	n/a	n/a
3645.386	n/a	RECOG_RESP	1822693	n/a	LTP135	ltpFR	18	1	1	LEOPARD	812	n/a	1	n/a	n/a	n/a	n/a	n/a
3645.928	n/a	RECOG_CONF	1822964	n/a	LTP135	ltpFR	18	1	1	LEOPARD	812	5	1	n/a	n/a	n/a	n/a	n/a
3647.312	n/a	RECOG_TARGET	1823656	n/a	LTP135	ltpFR	18	1	0	WIRE	1616	5	0	n/a	n/a	n/a	n/a	n/a
3647.974	n/a	RECOG_RESP	1823987	n/a	LTP135	ltpFR	18	1	0	WIRE	1616	n/a	0	n/a	n/a	n/a	n/a	n/a
3648.502	n/a	RECOG_CONF	1824251	n/a	LTP135	ltpFR	18	1	0	WIRE	1616	5	0	n/a	n/a	n/a	n/a	n/a
3649.77	n/a	RECOG_TARGET	1824885	n/a	LTP135	ltpFR	18	1	-1	BOULDER	155	5	-1	n/a	n/a	n/a	n/a	n/a
3650.454	n/a	RECOG_RESP	1825227	n/a	LTP135	ltpFR	18	1	-1	BOULDER	155	n/a	-1	n/a	n/a	n/a	n/a	n/a
3650.986	n/a	RECOG_CONF	1825493	n/a	LTP135	ltpFR	18	1	-1	BOULDER	155	5	-1	n/a	n/a	n/a	n/a	n/a
3652.246	n/a	RECOG_LURE	1826123	n/a	LTP135	ltpFR	18	1	n/a	ROBE	1198	1	n/a	n/a	n/a	n/a	n/a	n/a
3653.024	n/a	RECOG_RESP	1826512	n/a	LTP135	ltpFR	18	1	n/a	ROBE	1198	n/a	n/a	n/a	n/a	n/a	n/a	n/a
3653.54	n/a	RECOG_CONF	1826770	n/a	LTP135	ltpFR	18	1	n/a	ROBE	1198	1	n/a	n/a	n/a	n/a	n/a	n/a
3655.018	n/a	RECOG_TARGET	1827509	n/a	LTP135	ltpFR	18	1	-1	TABLE	1426	1	-1	n/a	n/a	n/a	n/a	n/a
3656.428	n/a	RECOG_RESP	1828214	n/a	LTP135	ltpFR	18	1	-1	TABLE	1426	n/a	-1	n/a	n/a	n/a	n/a	n/a
3657.024	n/a	RECOG_CONF	1828512	n/a	LTP135	ltpFR	18	1	-1	TABLE	1426	1	-1	n/a	n/a	n/a	n/a	n/a
3658.526	n/a	RECOG_LURE	1829263	n/a	LTP135	ltpFR	18	1	n/a	RUNNER	1218	4	n/a	n/a	n/a	n/a	n/a	n/a
3659.472	n/a	RECOG_RESP	1829736	n/a	LTP135	ltpFR	18	1	n/a	RUNNER	1218	n/a	n/a	n/a	n/a	n/a	n/a	n/a
3660.03	n/a	RECOG_CONF	1830015	n/a	LTP135	ltpFR	18	1	n/a	RUNNER	1218	4	n/a	n/a	n/a	n/a	n/a	n/a
3661.516	n/a	RECOG_TARGET	1830758	n/a	LTP135	ltpFR	18	1	1	ASIA	46	5	0	n/a	n/a	n/a	n/a	n/a
3662.16	n/a	RECOG_RESP	1831080	n/a	LTP135	ltpFR	18	1	1	ASIA	46	n/a	0	n/a	n/a	n/a	n/a	n/a
3662.68	n/a	RECOG_CONF	1831340	n/a	LTP135	ltpFR	18	1	1	ASIA	46	5	0	n/a	n/a	n/a	n/a	n/a
3664.006	n/a	RECOG_TARGET	1832003	n/a	LTP135	ltpFR	18	1	1	DESSERT	453	5	0	n/a	n/a	n/a	n/a	n/a
3664.582	n/a	RECOG_RESP	1832291	n/a	LTP135	ltpFR	18	1	1	DESSERT	453	n/a	0	n/a	n/a	n/a	n/a	n/a
3665.036	n/a	RECOG_CONF	1832518	n/a	LTP135	ltpFR	18	1	1	DESSERT	453	5	0	n/a	n/a	n/a	n/a	n/a
3666.398	n/a	RECOG_TARGET	1833199	n/a	LTP135	ltpFR	18	1	0	YOUTH	1634	5	1	n/a	n/a	n/a	n/a	n/a
3666.944	n/a	RECOG_RESP	1833472	n/a	LTP135	ltpFR	18	1	0	YOUTH	1634	n/a	1	n/a	n/a	n/a	n/a	n/a
3667.4	n/a	RECOG_CONF	1833700	n/a	LTP135	ltpFR	18	1	0	YOUTH	1634	5	1	n/a	n/a	n/a	n/a	n/a
3668.664	n/a	RECOG_TARGET	1834332	n/a	LTP135	ltpFR	18	1	1	COOLER	375	5	0	n/a	n/a	n/a	n/a	n/a
3669.298	n/a	RECOG_RESP	1834649	n/a	LTP135	ltpFR	18	1	1	COOLER	375	n/a	0	n/a	n/a	n/a	n/a	n/a
3669.764	n/a	RECOG_CONF	1834882	n/a	LTP135	ltpFR	18	1	1	COOLER	375	5	0	n/a	n/a	n/a	n/a	n/a
3670.988	n/a	RECOG_TARGET	1835494	n/a	LTP135	ltpFR	18	1	1	BOX	159	1	0	n/a	n/a	n/a	n/a	n/a
3671.988	n/a	RECOG_RESP	1835994	n/a	LTP135	ltpFR	18	1	1	BOX	159	n/a	0	n/a	n/a	n/a	n/a	n/a
3672.456	n/a	RECOG_CONF	1836228	n/a	LTP135	ltpFR	18	1	1	BOX	159	1	0	n/a	n/a	n/a	n/a	n/a
3673.888	n/a	RECOG_TARGET	1836944	n/a	LTP135	ltpFR	18	1	1	COAL	332	5	0	n/a	n/a	n/a	n/a	n/a
3674.6	n/a	RECOG_RESP	1837300	n/a	LTP135	ltpFR	18	1	1	COAL	332	n/a	0	n/a	n/a	n/a	n/a	n/a
3674.958	n/a	RECOG_CONF	1837479	n/a	LTP135	ltpFR	18	1	1	COAL	332	5	0	n/a	n/a	n/a	n/a	n/a
3676.28	n/a	RECOG_LURE	1838140	n/a	LTP135	ltpFR	18	1	n/a	MASCARA	875	5	n/a	n/a	n/a	n/a	n/a	n/a
3677.234	n/a	RECOG_RESP	1838617	n/a	LTP135	ltpFR	18	1	n/a	MASCARA	875	n/a	n/a	n/a	n/a	n/a	n/a	n/a
3677.698	n/a	RECOG_CONF	1838849	n/a	LTP135	ltpFR	18	1	n/a	MASCARA	875	5	n/a	n/a	n/a	n/a	n/a	n/a
3723.332	n/a	REC_START	1861666	n/a	LTP135	ltpFR	18	2	n/a	n/a	n/a	n/a	n/a	n/a	n/a	n/a	n/a	n/a
3723.364	n/a	RECOG_TARGET	1861682	n/a	LTP135	ltpFR	18	2	1	PONY	1102	5	1	n/a	n/a	n/a	n/a	n/a
3724.14	n/a	RECOG_RESP	1862070	n/a	LTP135	ltpFR	18	2	1	PONY	1102	n/a	1	n/a	n/a	n/a	n/a	n/a
3724.634	n/a	RECOG_CONF	1862317	n/a	LTP135	ltpFR	18	2	1	PONY	1102	5	1	n/a	n/a	n/a	n/a	n/a
3726.012	n/a	RECOG_TARGET	1863006	n/a	LTP135	ltpFR	18	2	0	HAY	693	5	1	n/a	n/a	n/a	n/a	n/a
3726.758	n/a	RECOG_RESP	1863379	n/a	LTP135	ltpFR	18	2	0	HAY	693	n/a	1	n/a	n/a	n/a	n/a	n/a
3727.198	n/a	RECOG_CONF	1863599	n/a	LTP135	ltpFR	18	2	0	HAY	693	5	1	n/a	n/a	n/a	n/a	n/a
3728.506	n/a	RECOG_TARGET	1864253	n/a	LTP135	ltpFR	18	2	0	AGENT	10	5	1	n/a	n/a	n/a	n/a	n/a
3729.158	n/a	RECOG_RESP	1864579	n/a	LTP135	ltpFR	18	2	0	AGENT	10	n/a	1	n/a	n/a	n/a	n/a	n/a
3729.58	n/a	RECOG_CONF	1864790	n/a	LTP135	ltpFR	18	2	0	AGENT	10	5	1	n/a	n/a	n/a	n/a	n/a
3730.896	n/a	RECOG_TARGET	1865448	n/a	LTP135	ltpFR	18	2	0	RAISIN	1163	5	0	n/a	n/a	n/a	n/a	n/a
3731.626	n/a	RECOG_RESP	1865813	n/a	LTP135	ltpFR	18	2	0	RAISIN	1163	n/a	0	n/a	n/a	n/a	n/a	n/a
3732.028	n/a	RECOG_CONF	1866014	n/a	LTP135	ltpFR	18	2	0	RAISIN	1163	5	0	n/a	n/a	n/a	n/a	n/a
3733.296	n/a	RECOG_TARGET	1866648	n/a	LTP135	ltpFR	18	2	0	LINEN	825	5	0	n/a	n/a	n/a	n/a	n/a
3733.968	n/a	RECOG_RESP	1866984	n/a	LTP135	ltpFR	18	2	0	LINEN	825	n/a	0	n/a	n/a	n/a	n/a	n/a
3734.424	n/a	RECOG_CONF	1867212	n/a	LTP135	ltpFR	18	2	0	LINEN	825	5	0	n/a	n/a	n/a	n/a	n/a
3735.718	n/a	RECOG_TARGET	1867859	n/a	LTP135	ltpFR	18	2	0	SWING	1421	2	1	n/a	n/a	n/a	n/a	n/a
3736.638	n/a	RECOG_RESP	1868319	n/a	LTP135	ltpFR	18	2	0	SWING	1421	n/a	1	n/a	n/a	n/a	n/a	n/a
3737.252	n/a	RECOG_CONF	1868626	n/a	LTP135	ltpFR	18	2	0	SWING	1421	2	1	n/a	n/a	n/a	n/a	n/a
3738.718	n/a	RECOG_TARGET	1869359	n/a	LTP135	ltpFR	18	2	1	RANCH	1166	5	0	n/a	n/a	n/a	n/a	n/a
3739.482	n/a	RECOG_RESP	1869741	n/a	LTP135	ltpFR	18	2	1	RANCH	1166	n/a	0	n/a	n/a	n/a	n/a	n/a
3739.99	n/a	RECOG_CONF	1869995	n/a	LTP135	ltpFR	18	2	1	RANCH	1166	5	0	n/a	n/a	n/a	n/a	n/a
3741.45	n/a	RECOG_TARGET	1870725	n/a	LTP135	ltpFR	18	2	-1	PAIL	1002	1	-1	n/a	n/a	n/a	n/a	n/a
3742.886	n/a	RECOG_RESP	1871443	n/a	LTP135	ltpFR	18	2	-1	PAIL	1002	n/a	-1	n/a	n/a	n/a	n/a	n/a
3743.472	n/a	RECOG_CONF	1871736	n/a	LTP135	ltpFR	18	2	-1	PAIL	1002	1	-1	n/a	n/a	n/a	n/a	n/a
3744.898	n/a	RECOG_TARGET	1872449	n/a	LTP135	ltpFR	18	2	0	WINGS	1614	5	0	n/a	n/a	n/a	n/a	n/a
3745.524	n/a	RECOG_RESP	1872762	n/a	LTP135	ltpFR	18	2	0	WINGS	1614	n/a	0	n/a	n/a	n/a	n/a	n/a
3746.006	n/a	RECOG_CONF	1873003	n/a	LTP135	ltpFR	18	2	0	WINGS	1614	5	0	n/a	n/a	n/a	n/a	n/a
3747.358	n/a	RECOG_TARGET	1873679	n/a	LTP135	ltpFR	18	2	0	RUST	1219	5	0	n/a	n/a	n/a	n/a	n/a
3748.134	n/a	RECOG_RESP	1874067	n/a	LTP135	ltpFR	18	2	0	RUST	1219	n/a	0	n/a	n/a	n/a	n/a	n/a
3748.742	n/a	RECOG_CONF	1874371	n/a	LTP135	ltpFR	18	2	0	RUST	1219	5	0	n/a	n/a	n/a	n/a	n/a
3750.158	n/a	RECOG_TARGET	1875079	n/a	LTP135	ltpFR	18	2	1	EDITORIAL	517	5	0	n/a	n/a	n/a	n/a	n/a
3750.834	n/a	RECOG_RESP	1875417	n/a	LTP135	ltpFR	18	2	1	EDITORIAL	517	n/a	0	n/a	n/a	n/a	n/a	n/a
3751.336	n/a	RECOG_CONF	1875668	n/a	LTP135	ltpFR	18	2	1	EDITORIAL	517	5	0	n/a	n/a	n/a	n/a	n/a
3752.622	n/a	RECOG_LURE	1876311	n/a	LTP135	ltpFR	18	2	n/a	ENCYCLOPEDIA	533	5	n/a	n/a	n/a	n/a	n/a	n/a
3753.63	n/a	RECOG_RESP	1876815	n/a	LTP135	ltpFR	18	2	n/a	ENCYCLOPEDIA	533	n/a	n/a	n/a	n/a	n/a	n/a	n/a
3754.094	n/a	RECOG_CONF	1877047	n/a	LTP135	ltpFR	18	2	n/a	ENCYCLOPEDIA	533	5	n/a	n/a	n/a	n/a	n/a	n/a
3755.506	n/a	RECOG_TARGET	1877753	n/a	LTP135	ltpFR	18	2	1	CROWN	415	5	0	n/a	n/a	n/a	n/a	n/a
3756.364	n/a	RECOG_RESP	1878182	n/a	LTP135	ltpFR	18	2	1	CROWN	415	n/a	0	n/a	n/a	n/a	n/a	n/a
3756.914	n/a	RECOG_CONF	1878457	n/a	LTP135	ltpFR	18	2	1	CROWN	415	5	0	n/a	n/a	n/a	n/a	n/a
3758.32	n/a	RECOG_TARGET	1879160	n/a	LTP135	ltpFR	18	2	0	SCREW	1254	1	0	n/a	n/a	n/a	n/a	n/a
3761.444	n/a	RECOG_RESP	1880722	n/a	LTP135	ltpFR	18	2	0	SCREW	1254	n/a	0	n/a	n/a	n/a	n/a	n/a
3762.202	n/a	RECOG_CONF	1881101	n/a	LTP135	ltpFR	18	2	0	SCREW	1254	1	0	n/a	n/a	n/a	n/a	n/a
3763.634	n/a	RECOG_LURE	1881817	n/a	LTP135	ltpFR	18	2	n/a	ATOM	55	4	n/a	n/a	n/a	n/a	n/a	n/a
3764.518	n/a	RECOG_RESP	1882259	n/a	LTP135	ltpFR	18	2	n/a	ATOM	55	n/a	n/a	n/a	n/a	n/a	n/a	n/a
3765.734	n/a	RECOG_CONF	1882867	n/a	LTP135	ltpFR	18	2	n/a	ATOM	55	4	n/a	n/a	n/a	n/a	n/a	n/a
3767.136	n/a	RECOG_LURE	1883568	n/a	LTP135	ltpFR	18	2	n/a	SUMMIT	1405	5	n/a	n/a	n/a	n/a	n/a	n/a
3768.06	n/a	RECOG_RESP	1884030	n/a	LTP135	ltpFR	18	2	n/a	SUMMIT	1405	n/a	n/a	n/a	n/a	n/a	n/a	n/a
3768.618	n/a	RECOG_CONF	1884309	n/a	LTP135	ltpFR	18	2	n/a	SUMMIT	1405	5	n/a	n/a	n/a	n/a	n/a	n/a
3770.076	n/a	RECOG_TARGET	1885038	n/a	LTP135	ltpFR	18	2	-1	CORAL	378	5	-1	n/a	n/a	n/a	n/a	n/a
3770.658	n/a	RECOG_RESP	1885329	n/a	LTP135	ltpFR	18	2	-1	CORAL	378	n/a	-1	n/a	n/a	n/a	n/a	n/a
3771.174	n/a	RECOG_CONF	1885587	n/a	LTP135	ltpFR	18	2	-1	CORAL	378	5	-1	n/a	n/a	n/a	n/a	n/a
3772.55	n/a	RECOG_TARGET	1886275	n/a	LTP135	ltpFR	18	2	-1	SCARF	1246	5	-1	n/a	n/a	n/a	n/a	n/a
3773.068	n/a	RECOG_RESP	1886534	n/a	LTP135	ltpFR	18	2	-1	SCARF	1246	n/a	-1	n/a	n/a	n/a	n/a	n/a
3773.528	n/a	RECOG_CONF	1886764	n/a	LTP135	ltpFR	18	2	-1	SCARF	1246	5	-1	n/a	n/a	n/a	n/a	n/a
3774.932	n/a	RECOG_TARGET	1887466	n/a	LTP135	ltpFR	18	2	1	LONDON	843	5	0	n/a	n/a	n/a	n/a	n/a
3775.536	n/a	RECOG_RESP	1887768	n/a	LTP135	ltpFR	18	2	1	LONDON	843	n/a	0	n/a	n/a	n/a	n/a	n/a
3776.006	n/a	RECOG_CONF	1888003	n/a	LTP135	ltpFR	18	2	1	LONDON	843	5	0	n/a	n/a	n/a	n/a	n/a
3777.29	n/a	RECOG_LURE	1888645	n/a	LTP135	ltpFR	18	2	n/a	SPARROW	1347	5	n/a	n/a	n/a	n/a	n/a	n/a
3778.312	n/a	RECOG_RESP	1889156	n/a	LTP135	ltpFR	18	2	n/a	SPARROW	1347	n/a	n/a	n/a	n/a	n/a	n/a	n/a
3778.806	n/a	RECOG_CONF	1889403	n/a	LTP135	ltpFR	18	2	n/a	SPARROW	1347	5	n/a	n/a	n/a	n/a	n/a	n/a
3794.47	n/a	REC_START	1897235	n/a	LTP135	ltpFR	18	3	n/a	n/a	n/a	n/a	n/a	n/a	n/a	n/a	n/a	n/a
3794.502	n/a	RECOG_TARGET	1897251	n/a	LTP135	ltpFR	18	3	-1	HERO	706	5	-1	n/a	n/a	n/a	n/a	n/a
3795.344	n/a	RECOG_RESP	1897672	n/a	LTP135	ltpFR	18	3	-1	HERO	706	n/a	-1	n/a	n/a	n/a	n/a	n/a
3795.94	n/a	RECOG_CONF	1897970	n/a	LTP135	ltpFR	18	3	-1	HERO	706	5	-1	n/a	n/a	n/a	n/a	n/a
3797.4	n/a	RECOG_TARGET	1898700	n/a	LTP135	ltpFR	18	3	1	COLUMN	350	5	0	n/a	n/a	n/a	n/a	n/a
3798.054	n/a	RECOG_RESP	1899027	n/a	LTP135	ltpFR	18	3	1	COLUMN	350	n/a	0	n/a	n/a	n/a	n/a	n/a
3798.594	n/a	RECOG_CONF	1899297	n/a	LTP135	ltpFR	18	3	1	COLUMN	350	5	0	n/a	n/a	n/a	n/a	n/a
3799.948	n/a	RECOG_TARGET	1899974	n/a	LTP135	ltpFR	18	3	1	WHIP	1604	5	1	n/a	n/a	n/a	n/a	n/a
3800.614	n/a	RECOG_RESP	1900307	n/a	LTP135	ltpFR	18	3	1	WHIP	1604	n/a	1	n/a	n/a	n/a	n/a	n/a
3801.12	n/a	RECOG_CONF	1900560	n/a	LTP135	ltpFR	18	3	1	WHIP	1604	5	1	n/a	n/a	n/a	n/a	n/a
3802.44	n/a	RECOG_TARGET	1901220	n/a	LTP135	ltpFR	18	3	1	KETTLE	772	1	0	n/a	n/a	n/a	n/a	n/a
3803.414	n/a	RECOG_RESP	1901707	n/a	LTP135	ltpFR	18	3	1	KETTLE	772	n/a	0	n/a	n/a	n/a	n/a	n/a
3803.86	n/a	RECOG_CONF	1901930	n/a	LTP135	ltpFR	18	3	1	KETTLE	772	1	0	n/a	n/a	n/a	n/a	n/a
3805.382	n/a	RECOG_TARGET	1902691	n/a	LTP135	ltpFR	18	3	1	VET	1560	5	1	n/a	n/a	n/a	n/a	n/a
3805.978	n/a	RECOG_RESP	1902989	n/a	LTP135	ltpFR	18	3	1	VET	1560	n/a	1	n/a	n/a	n/a	n/a	n/a
3806.518	n/a	RECOG_CONF	1903259	n/a	LTP135	ltpFR	18	3	1	VET	1560	5	1	n/a	n/a	n/a	n/a	n/a
3807.856	n/a	RECOG_TARGET	1903928	n/a	LTP135	ltpFR	18	3	-1	PAINTER	1004	5	-1	n/a	n/a	n/a	n/a	n/a
3808.448	n/a	RECOG_RESP	1904224	n/a	LTP135	ltpFR	18	3	-1	PAINTER	1004	n/a	-1	n/a	n/a	n/a	n/a	n/a
3808.982	n/a	RECOG_CONF	1904491	n/a	LTP135	ltpFR	18	3	-1	PAINTER	1004	5	-1	n/a	n/a	n/a	n/a	n/a
3810.314	n/a	RECOG_TARGET	1905157	n/a	LTP135	ltpFR	18	3	1	ARMY	39	5	1	n/a	n/a	n/a	n/a	n/a
3811.272	n/a	RECOG_RESP	1905636	n/a	LTP135	ltpFR	18	3	1	ARMY	39	n/a	1	n/a	n/a	n/a	n/a	n/a
3811.806	n/a	RECOG_CONF	1905903	n/a	LTP135	ltpFR	18	3	1	ARMY	39	5	1	n/a	n/a	n/a	n/a	n/a
3813.22	n/a	RECOG_TARGET	1906610	n/a	LTP135	ltpFR	18	3	-1	BANDANNA	80	5	-1	n/a	n/a	n/a	n/a	n/a
3813.872	n/a	RECOG_RESP	1906936	n/a	LTP135	ltpFR	18	3	-1	BANDANNA	80	n/a	-1	n/a	n/a	n/a	n/a	n/a
3814.39	n/a	RECOG_CONF	1907195	n/a	LTP135	ltpFR	18	3	-1	BANDANNA	80	5	-1	n/a	n/a	n/a	n/a	n/a
3815.736	n/a	RECOG_TARGET	1907868	n/a	LTP135	ltpFR	18	3	1	DRILL	497	5	0	n/a	n/a	n/a	n/a	n/a
3817.194	n/a	RECOG_RESP	1908597	n/a	LTP135	ltpFR	18	3	1	DRILL	497	n/a	0	n/a	n/a	n/a	n/a	n/a
3817.812	n/a	RECOG_CONF	1908906	n/a	LTP135	ltpFR	18	3	1	DRILL	497	5	0	n/a	n/a	n/a	n/a	n/a
3819.244	n/a	RECOG_TARGET	1909622	n/a	LTP135	ltpFR	18	3	0	PLAQUE	1084	2	0	n/a	n/a	n/a	n/a	n/a
3820.14	n/a	RECOG_RESP	1910070	n/a	LTP135	ltpFR	18	3	0	PLAQUE	1084	n/a	0	n/a	n/a	n/a	n/a	n/a
3820.696	n/a	RECOG_CONF	1910348	n/a	LTP135	ltpFR	18	3	0	PLAQUE	1084	2	0	n/a	n/a	n/a	n/a	n/a
3822.152	n/a	RECOG_LURE	1911076	n/a	LTP135	ltpFR	18	3	n/a	ELEVATOR	524	1	n/a	n/a	n/a	n/a	n/a	n/a
3823.054	n/a	RECOG_RESP	1911527	n/a	LTP135	ltpFR	18	3	n/a	ELEVATOR	524	n/a	n/a	n/a	n/a	n/a	n/a	n/a
3823.736	n/a	RECOG_CONF	1911868	n/a	LTP135	ltpFR	18	3	n/a	ELEVATOR	524	1	n/a	n/a	n/a	n/a	n/a	n/a
3824.55	n/a	RECOG_TARGET	1912275	n/a	LTP135	ltpFR	18	3	0	APRON	35	3	0	n/a	n/a	n/a	n/a	n/a
3825.406	n/a	RECOG_RESP	1912703	n/a	LTP135	ltpFR	18	3	0	APRON	35	n/a	0	n/a	n/a	n/a	n/a	n/a
3825.964	n/a	RECOG_CONF	1912982	n/a	LTP135	ltpFR	18	3	0	APRON	35	3	0	n/a	n/a	n/a	n/a	n/a
3827.384	n/a	RECOG_TARGET	1913692	n/a	LTP135	ltpFR	18	3	-1	MAGICIAN	854	4	-1	n/a	n/a	n/a	n/a	n/a
3828.182	n/a	RECOG_RESP	1914091	n/a	LTP135	ltpFR	18	3	-1	MAGICIAN	854	n/a	-1	n/a	n/a	n/a	n/a	n/a
3828.856	n/a	RECOG_CONF	1914428	n/a	LTP135	ltpFR	18	3	-1	MAGICIAN	854	4	-1	n/a	n/a	n/a	n/a	n/a
3830.54	n/a	RECOG_TARGET	1915270	n/a	LTP135	ltpFR	18	3	1	HAYSTACK	694	5	0	n/a	n/a	n/a	n/a	n/a
3831.182	n/a	RECOG_RESP	1915591	n/a	LTP135	ltpFR	18	3	1	HAYSTACK	694	n/a	0	n/a	n/a	n/a	n/a	n/a
3831.722	n/a	RECOG_CONF	1915861	n/a	LTP135	ltpFR	18	3	1	HAYSTACK	694	5	0	n/a	n/a	n/a	n/a	n/a
3833.182	n/a	RECOG_TARGET	1916591	n/a	LTP135	ltpFR	18	3	1	TOILET	1475	1	0	n/a	n/a	n/a	n/a	n/a
3833.982	n/a	RECOG_RESP	1916991	n/a	LTP135	ltpFR	18	3	1	TOILET	1475	n/a	0	n/a	n/a	n/a	n/a	n/a
3834.486	n/a	RECOG_CONF	1917243	n/a	LTP135	ltpFR	18	3	1	TOILET	1475	1	0	n/a	n/a	n/a	n/a	n/a
3835.888	n/a	RECOG_TARGET	1917944	n/a	LTP135	ltpFR	18	3	0	DICTATOR	462	5	1	n/a	n/a	n/a	n/a	n/a
3836.564	n/a	RECOG_RESP	1918282	n/a	LTP135	ltpFR	18	3	0	DICTATOR	462	n/a	1	n/a	n/a	n/a	n/a	n/a
3837.1	n/a	RECOG_CONF	1918550	n/a	LTP135	ltpFR	18	3	0	DICTATOR	462	5	1	n/a	n/a	n/a	n/a	n/a
3838.388	n/a	RECOG_TARGET	1919194	n/a	LTP135	ltpFR	18	3	0	NOSE	957	5	0	n/a	n/a	n/a	n/a	n/a
3838.982	n/a	RECOG_RESP	1919491	n/a	LTP135	ltpFR	18	3	0	NOSE	957	n/a	0	n/a	n/a	n/a	n/a	n/a
3839.504	n/a	RECOG_CONF	1919752	n/a	LTP135	ltpFR	18	3	0	NOSE	957	5	0	n/a	n/a	n/a	n/a	n/a
3840.602	n/a	RECOG_TARGET	1920301	n/a	LTP135	ltpFR	18	3	1	LEADER	807	1	1	n/a	n/a	n/a	n/a	n/a
3842.874	n/a	RECOG_RESP	1921437	n/a	LTP135	ltpFR	18	3	1	LEADER	807	n/a	1	n/a	n/a	n/a	n/a	n/a
3843.446	n/a	RECOG_CONF	1921723	n/a	LTP135	ltpFR	18	3	1	LEADER	807	1	1	n/a	n/a	n/a	n/a	n/a
3845.044	n/a	RECOG_TARGET	1922522	n/a	LTP135	ltpFR	18	3	0	FOREHEAD	592	5	0	n/a	n/a	n/a	n/a	n/a
3845.7	n/a	RECOG_RESP	1922850	n/a	LTP135	ltpFR	18	3	0	FOREHEAD	592	n/a	0	n/a	n/a	n/a	n/a	n/a
3846.286	n/a	RECOG_CONF	1923143	n/a	LTP135	ltpFR	18	3	0	FOREHEAD	592	5	0	n/a	n/a	n/a	n/a	n/a
3847.634	n/a	RECOG_TARGET	1923817	n/a	LTP135	ltpFR	18	3	1	FUDGE	611	5	0	n/a	n/a	n/a	n/a	n/a
3848.288	n/a	RECOG_RESP	1924144	n/a	LTP135	ltpFR	18	3	1	FUDGE	611	n/a	0	n/a	n/a	n/a	n/a	n/a
3848.754	n/a	RECOG_CONF	1924377	n/a	LTP135	ltpFR	18	3	1	FUDGE	611	5	0	n/a	n/a	n/a	n/a	n/a
3888.332	n/a	REC_START	1944166	n/a	LTP135	ltpFR	18	4	n/a	n/a	n/a	n/a	n/a	n/a	n/a	n/a	n/a	n/a
3888.364	n/a	RECOG_TARGET	1944182	n/a	LTP135	ltpFR	18	4	0	HERB	704	4	0	n/a	n/a	n/a	n/a	n/a
3889.312	n/a	RECOG_RESP	1944656	n/a	LTP135	ltpFR	18	4	0	HERB	704	n/a	0	n/a	n/a	n/a	n/a	n/a
3889.914	n/a	RECOG_CONF	1944957	n/a	LTP135	ltpFR	18	4	0	HERB	704	4	0	n/a	n/a	n/a	n/a	n/a
3891.33	n/a	RECOG_TARGET	1945665	n/a	LTP135	ltpFR	18	4	1	PIE	1062	5	0	n/a	n/a	n/a	n/a	n/a
3891.864	n/a	RECOG_RESP	1945932	n/a	LTP135	ltpFR	18	4	1	PIE	1062	n/a	0	n/a	n/a	n/a	n/a	n/a
3892.408	n/a	RECOG_CONF	1946204	n/a	LTP135	ltpFR	18	4	1	PIE	1062	5	0	n/a	n/a	n/a	n/a	n/a
3893.77	n/a	RECOG_TARGET	1946885	n/a	LTP135	ltpFR	18	4	0	ACORN	3	5	0	n/a	n/a	n/a	n/a	n/a
3894.384	n/a	RECOG_RESP	1947192	n/a	LTP135	ltpFR	18	4	0	ACORN	3	n/a	0	n/a	n/a	n/a	n/a	n/a
3894.922	n/a	RECOG_CONF	1947461	n/a	LTP135	ltpFR	18	4	0	ACORN	3	5	0	n/a	n/a	n/a	n/a	n/a
3896.288	n/a	RECOG_LURE	1948144	n/a	LTP135	ltpFR	18	4	n/a	SIREN	1310	5	n/a	n/a	n/a	n/a	n/a	n/a
3897.012	n/a	RECOG_RESP	1948506	n/a	LTP135	ltpFR	18	4	n/a	SIREN	1310	n/a	n/a	n/a	n/a	n/a	n/a	n/a
3897.676	n/a	RECOG_CONF	1948838	n/a	LTP135	ltpFR	18	4	n/a	SIREN	1310	5	n/a	n/a	n/a	n/a	n/a	n/a
3899.044	n/a	RECOG_TARGET	1949522	n/a	LTP135	ltpFR	18	4	0	DINNER	468	3	0	n/a	n/a	n/a	n/a	n/a
3899.69	n/a	RECOG_RESP	1949845	n/a	LTP135	ltpFR	18	4	0	DINNER	468	n/a	0	n/a	n/a	n/a	n/a	n/a
3900.236	n/a	RECOG_CONF	1950118	n/a	LTP135	ltpFR	18	4	0	DINNER	468	3	0	n/a	n/a	n/a	n/a	n/a
3901.702	n/a	RECOG_TARGET	1950851	n/a	LTP135	ltpFR	18	4	1	ISLAND	745	5	0	n/a	n/a	n/a	n/a	n/a
3902.288	n/a	RECOG_RESP	1951144	n/a	LTP135	ltpFR	18	4	1	ISLAND	745	n/a	0	n/a	n/a	n/a	n/a	n/a
3902.886	n/a	RECOG_CONF	1951443	n/a	LTP135	ltpFR	18	4	1	ISLAND	745	5	0	n/a	n/a	n/a	n/a	n/a
3904.26	n/a	RECOG_TARGET	1952130	n/a	LTP135	ltpFR	18	4	-1	RUBY	1214	1	-1	n/a	n/a	n/a	n/a	n/a
3905.692	n/a	RECOG_RESP	1952846	n/a	LTP135	ltpFR	18	4	-1	RUBY	1214	n/a	-1	n/a	n/a	n/a	n/a	n/a
3906.37	n/a	RECOG_CONF	1953185	n/a	LTP135	ltpFR	18	4	-1	RUBY	1214	1	-1	n/a	n/a	n/a	n/a	n/a
3907.866	n/a	RECOG_TARGET	1953933	n/a	LTP135	ltpFR	18	4	1	FRUIT	610	5	1	n/a	n/a	n/a	n/a	n/a
3908.42	n/a	RECOG_RESP	1954210	n/a	LTP135	ltpFR	18	4	1	FRUIT	610	n/a	1	n/a	n/a	n/a	n/a	n/a
3908.962	n/a	RECOG_CONF	1954481	n/a	LTP135	ltpFR	18	4	1	FRUIT	610	5	1	n/a	n/a	n/a	n/a	n/a
3910.308	n/a	RECOG_TARGET	1955154	n/a	LTP135	ltpFR	18	4	-1	RIVER	1194	4	-1	n/a	n/a	n/a	n/a	n/a
3911.036	n/a	RECOG_RESP	1955518	n/a	LTP135	ltpFR	18	4	-1	RIVER	1194	n/a	-1	n/a	n/a	n/a	n/a	n/a
3911.552	n/a	RECOG_CONF	1955776	n/a	LTP135	ltpFR	18	4	-1	RIVER	1194	4	-1	n/a	n/a	n/a	n/a	n/a
3913.048	n/a	RECOG_TARGET	1956524	n/a	LTP135	ltpFR	18	4	-1	TUNA	1518	5	-1	n/a	n/a	n/a	n/a	n/a
3913.54	n/a	RECOG_RESP	1956770	n/a	LTP135	ltpFR	18	4	-1	TUNA	1518	n/a	-1	n/a	n/a	n/a	n/a	n/a
3914.07	n/a	RECOG_CONF	1957035	n/a	LTP135	ltpFR	18	4	-1	TUNA	1518	5	-1	n/a	n/a	n/a	n/a	n/a
3915.398	n/a	RECOG_TARGET	1957699	n/a	LTP135	ltpFR	18	4	0	CAPITAL	238	4	1	n/a	n/a	n/a	n/a	n/a
3915.962	n/a	RECOG_RESP	1957981	n/a	LTP135	ltpFR	18	4	0	CAPITAL	238	n/a	1	n/a	n/a	n/a	n/a	n/a
3916.544	n/a	RECOG_CONF	1958272	n/a	LTP135	ltpFR	18	4	0	CAPITAL	238	4	1	n/a	n/a	n/a	n/a	n/a
3917.996	n/a	RECOG_LURE	1958998	n/a	LTP135	ltpFR	18	4	n/a	OCEAN	970	4	n/a	n/a	n/a	n/a	n/a	n/a
3918.836	n/a	RECOG_RESP	1959418	n/a	LTP135	ltpFR	18	4	n/a	OCEAN	970	n/a	n/a	n/a	n/a	n/a	n/a	n/a
3919.33	n/a	RECOG_CONF	1959665	n/a	LTP135	ltpFR	18	4	n/a	OCEAN	970	4	n/a	n/a	n/a	n/a	n/a	n/a
3920.812	n/a	RECOG_TARGET	1960406	n/a	LTP135	ltpFR	18	4	0	VOLCANO	1575	5	1	n/a	n/a	n/a	n/a	n/a
3921.562	n/a	RECOG_RESP	1960781	n/a	LTP135	ltpFR	18	4	0	VOLCANO	1575	n/a	1	n/a	n/a	n/a	n/a	n/a
3922.148	n/a	RECOG_CONF	1961074	n/a	LTP135	ltpFR	18	4	0	VOLCANO	1575	5	1	n/a	n/a	n/a	n/a	n/a
3923.57	n/a	RECOG_TARGET	1961785	n/a	LTP135	ltpFR	18	4	1	ANKLE	24	4	0	n/a	n/a	n/a	n/a	n/a
3924.198	n/a	RECOG_RESP	1962099	n/a	LTP135	ltpFR	18	4	1	ANKLE	24	n/a	0	n/a	n/a	n/a	n/a	n/a
3924.756	n/a	RECOG_CONF	1962378	n/a	LTP135	ltpFR	18	4	1	ANKLE	24	4	0	n/a	n/a	n/a	n/a	n/a
3926.136	n/a	RECOG_TARGET	1963068	n/a	LTP135	ltpFR	18	4	1	MONASTERY	907	4	0	n/a	n/a	n/a	n/a	n/a
3926.916	n/a	RECOG_RESP	1963458	n/a	LTP135	ltpFR	18	4	1	MONASTERY	907	n/a	0	n/a	n/a	n/a	n/a	n/a
3927.546	n/a	RECOG_CONF	1963773	n/a	LTP135	ltpFR	18	4	1	MONASTERY	907	4	0	n/a	n/a	n/a	n/a	n/a
3928.902	n/a	RECOG_TARGET	1964451	n/a	LTP135	ltpFR	18	4	0	BED	110	5	1	n/a	n/a	n/a	n/a	n/a
3929.494	n/a	RECOG_RESP	1964747	n/a	LTP135	ltpFR	18	4	0	BED	110	n/a	1	n/a	n/a	n/a	n/a	n/a
3929.988	n/a	RECOG_CONF	1964994	n/a	LTP135	ltpFR	18	4	0	BED	110	5	1	n/a	n/a	n/a	n/a	n/a
3931.476	n/a	RECOG_TARGET	1965738	n/a	LTP135	ltpFR	18	4	-1	GREASE	660	5	-1	n/a	n/a	n/a	n/a	n/a
3932.05	n/a	RECOG_RESP	1966025	n/a	LTP135	ltpFR	18	4	-1	GREASE	660	n/a	-1	n/a	n/a	n/a	n/a	n/a
3932.628	n/a	RECOG_CONF	1966314	n/a	LTP135	ltpFR	18	4	-1	GREASE	660	5	-1	n/a	n/a	n/a	n/a	n/a
3934.058	n/a	RECOG_TARGET	1967029	n/a	LTP135	ltpFR	18	4	1	CACTUS	215	5	1	n/a	n/a	n/a	n/a	n/a
3934.696	n/a	RECOG_RESP	1967348	n/a	LTP135	ltpFR	18	4	1	CACTUS	215	n/a	1	n/a	n/a	n/a	n/a	n/a
3935.258	n/a	RECOG_CONF	1967629	n/a	LTP135	ltpFR	18	4	1	CACTUS	215	5	1	n/a	n/a	n/a	n/a	n/a
3936.582	n/a	RECOG_TARGET	1968291	n/a	LTP135	ltpFR	18	4	0	GOO	648	5	0	n/a	n/a	n/a	n/a	n/a
3937.194	n/a	RECOG_RESP	1968597	n/a	LTP135	ltpFR	18	4	0	GOO	648	n/a	0	n/a	n/a	n/a	n/a	n/a
3937.686	n/a	RECOG_CONF	1968843	n/a	LTP135	ltpFR	18	4	0	GOO	648	5	0	n/a	n/a	n/a	n/a	n/a
3939.134	n/a	RECOG_TARGET	1969567	n/a	LTP135	ltpFR	18	4	0	TREAT	1501	4	0	n/a	n/a	n/a	n/a	n/a
3939.698	n/a	RECOG_RESP	1969849	n/a	LTP135	ltpFR	18	4	0	TREAT	1501	n/a	0	n/a	n/a	n/a	n/a	n/a
3940.272	n/a	RECOG_CONF	1970136	n/a	LTP135	ltpFR	18	4	0	TREAT	1501	4	0	n/a	n/a	n/a	n/a	n/a
3956.632	n/a	REC_START	1978316	n/a	LTP135	ltpFR	18	5	n/a	n/a	n/a	n/a	n/a	n/a	n/a	n/a	n/a	n/a
3956.668	n/a	RECOG_TARGET	1978334	n/a	LTP135	ltpFR	18	5	1	PUMP	1141	5	0	n/a	n/a	n/a	n/a	n/a
3957.416	n/a	RECOG_RESP	1978708	n/a	LTP135	ltpFR	18	5	1	PUMP	1141	n/a	0	n/a	n/a	n/a	n/a	n/a
3958.004	n/a	RECOG_CONF	1979002	n/a	LTP135	ltpFR	18	5	1	PUMP	1141	5	0	n/a	n/a	n/a	n/a	n/a
3959.436	n/a	RECOG_TARGET	1979718	n/a	LTP135	ltpFR	18	5	1	SQUID	1361	1	1	n/a	n/a	n/a	n/a	n/a
3960.006	n/a	RECOG_RESP	1980003	n/a	LTP135	ltpFR	18	5	1	SQUID	1361	n/a	1	n/a	n/a	n/a	n/a	n/a
3961.254	n/a	RECOG_CONF	1980627	n/a	LTP135	ltpFR	18	5	1	SQUID	1361	1	1	n/a	n/a	n/a	n/a	n/a
3962.866	n/a	RECOG_TARGET	1981433	n/a	LTP135	ltpFR	18	5	0	BUSH	202	1	1	n/a	n/a	n/a	n/a	n/a
3964.72	n/a	RECOG_RESP	1982360	n/a	LTP135	ltpFR	18	5	0	BUSH	202	n/a	1	n/a	n/a	n/a	n/a	n/a
3965.348	n/a	RECOG_CONF	1982674	n/a	LTP135	ltpFR	18	5	0	BUSH	202	1	1	n/a	n/a	n/a	n/a	n/a
3966.94	n/a	RECOG_TARGET	1983470	n/a	LTP135	ltpFR	18	5	-1	CHAPEL	280	4	-1	n/a	n/a	n/a	n/a	n/a
3968.01	n/a	RECOG_RESP	1984005	n/a	LTP135	ltpFR	18	5	-1	CHAPEL	280	n/a	-1	n/a	n/a	n/a	n/a	n/a
3968.55	n/a	RECOG_CONF	1984275	n/a	LTP135	ltpFR	18	5	-1	CHAPEL	280	4	-1	n/a	n/a	n/a	n/a	n/a
3969.898	n/a	RECOG_TARGET	1984949	n/a	LTP135	ltpFR	18	5	-1	VINE	1568	5	-1	n/a	n/a	n/a	n/a	n/a
3970.528	n/a	RECOG_RESP	1985264	n/a	LTP135	ltpFR	18	5	-1	VINE	1568	n/a	-1	n/a	n/a	n/a	n/a	n/a
3971.044	n/a	RECOG_CONF	1985522	n/a	LTP135	ltpFR	18	5	-1	VINE	1568	5	-1	n/a	n/a	n/a	n/a	n/a
3972.406	n/a	RECOG_TARGET	1986203	n/a	LTP135	ltpFR	18	5	-1	RADISH	1158	5	-1	n/a	n/a	n/a	n/a	n/a
3973.114	n/a	RECOG_RESP	1986557	n/a	LTP135	ltpFR	18	5	-1	RADISH	1158	n/a	-1	n/a	n/a	n/a	n/a	n/a
3973.654	n/a	RECOG_CONF	1986827	n/a	LTP135	ltpFR	18	5	-1	RADISH	1158	5	-1	n/a	n/a	n/a	n/a	n/a
3974.922	n/a	RECOG_TARGET	1987461	n/a	LTP135	ltpFR	18	5	1	TIDE	1465	5	0	n/a	n/a	n/a	n/a	n/a
3975.526	n/a	RECOG_RESP	1987763	n/a	LTP135	ltpFR	18	5	1	TIDE	1465	n/a	0	n/a	n/a	n/a	n/a	n/a
3976.064	n/a	RECOG_CONF	1988032	n/a	LTP135	ltpFR	18	5	1	TIDE	1465	5	0	n/a	n/a	n/a	n/a	n/a
3977.33	n/a	RECOG_TARGET	1988665	n/a	LTP135	ltpFR	18	5	0	CAB	209	1	1	n/a	n/a	n/a	n/a	n/a
3979.072	n/a	RECOG_RESP	1989536	n/a	LTP135	ltpFR	18	5	0	CAB	209	n/a	1	n/a	n/a	n/a	n/a	n/a
3979.588	n/a	RECOG_CONF	1989794	n/a	LTP135	ltpFR	18	5	0	CAB	209	1	1	n/a	n/a	n/a	n/a	n/a
3981.07	n/a	RECOG_TARGET	1990535	n/a	LTP135	ltpFR	18	5	0	SALIVA	1226	4	0	n/a	n/a	n/a	n/a	n/a
3981.66	n/a	RECOG_RESP	1990830	n/a	LTP135	ltpFR	18	5	0	SALIVA	1226	n/a	0	n/a	n/a	n/a	n/a	n/a
3982.2	n/a	RECOG_CONF	1991100	n/a	LTP135	ltpFR	18	5	0	SALIVA	1226	4	0	n/a	n/a	n/a	n/a	n/a
3983.61	n/a	RECOG_TARGET	1991805	n/a	LTP135	ltpFR	18	5	1	SWITCH	1422	5	0	n/a	n/a	n/a	n/a	n/a
3984.438	n/a	RECOG_RESP	1992219	n/a	LTP135	ltpFR	18	5	1	SWITCH	1422	n/a	0	n/a	n/a	n/a	n/a	n/a
3984.95	n/a	RECOG_CONF	1992475	n/a	LTP135	ltpFR	18	5	1	SWITCH	1422	5	0	n/a	n/a	n/a	n/a	n/a
3986.376	n/a	RECOG_TARGET	1993188	n/a	LTP135	ltpFR	18	5	0	DIRECTOR	471	5	1	n/a	n/a	n/a	n/a	n/a
3987.11	n/a	RECOG_RESP	1993555	n/a	LTP135	ltpFR	18	5	0	DIRECTOR	471	n/a	1	n/a	n/a	n/a	n/a	n/a
3987.65	n/a	RECOG_CONF	1993825	n/a	LTP135	ltpFR	18	5	0	DIRECTOR	471	5	1	n/a	n/a	n/a	n/a	n/a
3989.076	n/a	RECOG_LURE	1994538	n/a	LTP135	ltpFR	18	5	n/a	FURNITURE	616	1	n/a	n/a	n/a	n/a	n/a	n/a
3990.02	n/a	RECOG_RESP	1995010	n/a	LTP135	ltpFR	18	5	n/a	FURNITURE	616	n/a	n/a	n/a	n/a	n/a	n/a	n/a
3990.488	n/a	RECOG_CONF	1995244	n/a	LTP135	ltpFR	18	5	n/a	FURNITURE	616	1	n/a	n/a	n/a	n/a	n/a	n/a
3991.974	n/a	RECOG_TARGET	1995987	n/a	LTP135	ltpFR	18	5	-1	DEPARTMENT	449	1	-1	n/a	n/a	n/a	n/a	n/a
3992.896	n/a	RECOG_RESP	1996448	n/a	LTP135	ltpFR	18	5	-1	DEPARTMENT	449	n/a	-1	n/a	n/a	n/a	n/a	n/a
3993.412	n/a	RECOG_CONF	1996706	n/a	LTP135	ltpFR	18	5	-1	DEPARTMENT	449	1	-1	n/a	n/a	n/a	n/a	n/a
3994.806	n/a	RECOG_LURE	1997403	n/a	LTP135	ltpFR	18	5	n/a	PISTON	1076	3	n/a	n/a	n/a	n/a	n/a	n/a
3995.738	n/a	RECOG_RESP	1997869	n/a	LTP135	ltpFR	18	5	n/a	PISTON	1076	n/a	n/a	n/a	n/a	n/a	n/a	n/a
3996.26	n/a	RECOG_CONF	1998130	n/a	LTP135	ltpFR	18	5	n/a	PISTON	1076	3	n/a	n/a	n/a	n/a	n/a	n/a
3997.64	n/a	RECOG_LURE	1998820	n/a	LTP135	ltpFR	18	5	n/a	CAPTIVE	240	1	n/a	n/a	n/a	n/a	n/a	n/a
3998.53	n/a	RECOG_RESP	1999265	n/a	LTP135	ltpFR	18	5	n/a	CAPTIVE	240	n/a	n/a	n/a	n/a	n/a	n/a	n/a
3999.022	n/a	RECOG_CONF	1999511	n/a	LTP135	ltpFR	18	5	n/a	CAPTIVE	240	1	n/a	n/a	n/a	n/a	n/a	n/a
4000.522	n/a	RECOG_TARGET	2000261	n/a	LTP135	ltpFR	18	5	0	ANT	25	5	0	n/a	n/a	n/a	n/a	n/a
4001.292	n/a	RECOG_RESP	2000646	n/a	LTP135	ltpFR	18	5	0	ANT	25	n/a	0	n/a	n/a	n/a	n/a	n/a
4001.762	n/a	RECOG_CONF	2000881	n/a	LTP135	ltpFR	18	5	0	ANT	25	5	0	n/a	n/a	n/a	n/a	n/a
4003.204	n/a	RECOG_TARGET	2001602	n/a	LTP135	ltpFR	18	5	0	VAULT	1550	5	1	n/a	n/a	n/a	n/a	n/a
4003.952	n/a	RECOG_RESP	2001976	n/a	LTP135	ltpFR	18	5	0	VAULT	1550	n/a	1	n/a	n/a	n/a	n/a	n/a
4004.398	n/a	RECOG_CONF	2002199	n/a	LTP135	ltpFR	18	5	0	VAULT	1550	5	1	n/a	n/a	n/a	n/a	n/a
4005.852	n/a	RECOG_TARGET	2002926	n/a	LTP135	ltpFR	18	5	0	CORPORATION	382	5	1	n/a	n/a	n/a	n/a	n/a
4006.596	n/a	RECOG_RESP	2003298	n/a	LTP135	ltpFR	18	5	0	CORPORATION	382	n/a	1	n/a	n/a	n/a	n/a	n/a
4007.066	n/a	RECOG_CONF	2003533	n/a	LTP135	ltpFR	18	5	0	CORPORATION	382	5	1	n/a	n/a	n/a	n/a	n/a
4008.378	n/a	RECOG_TARGET	2004189	n/a	LTP135	ltpFR	18	5	1	JUGGLER	763	5	1	n/a	n/a	n/a	n/a	n/a
4008.962	n/a	RECOG_RESP	2004481	n/a	LTP135	ltpFR	18	5	1	JUGGLER	763	n/a	1	n/a	n/a	n/a	n/a	n/a
4009.47	n/a	RECOG_CONF	2004735	n/a	LTP135	ltpFR	18	5	1	JUGGLER	763	5	1	n/a	n/a	n/a	n/a	n/a
4010.668	n/a	RECOG_TARGET	2005334	n/a	LTP135	ltpFR	18	5	0	INN	739	5	1	n/a	n/a	n/a	n/a	n/a
4011.23	n/a	RECOG_RESP	2005615	n/a	LTP135	ltpFR	18	5	0	INN	739	n/a	1	n/a	n/a	n/a	n/a	n/a
4011.706	n/a	RECOG_CONF	2005853	n/a	LTP135	ltpFR	18	5	0	INN	739	5	1	n/a	n/a	n/a	n/a	n/a
4055.378	n/a	REC_START	2027689	n/a	LTP135	ltpFR	18	6	n/a	n/a	n/a	n/a	n/a	n/a	n/a	n/a	n/a	n/a
4055.414	n/a	RECOG_TARGET	2027707	n/a	LTP135	ltpFR	18	6	0	SCENERY	1247	1	1	n/a	n/a	n/a	n/a	n/a
4056.25	n/a	RECOG_RESP	2028125	n/a	LTP135	ltpFR	18	6	0	SCENERY	1247	n/a	1	n/a	n/a	n/a	n/a	n/a
4056.76	n/a	RECOG_CONF	2028380	n/a	LTP135	ltpFR	18	6	0	SCENERY	1247	1	1	n/a	n/a	n/a	n/a	n/a
4058.264	n/a	RECOG_TARGET	2029132	n/a	LTP135	ltpFR	18	6	0	FLOWER	584	1	0	n/a	n/a	n/a	n/a	n/a
4059.716	n/a	RECOG_RESP	2029858	n/a	LTP135	ltpFR	18	6	0	FLOWER	584	n/a	0	n/a	n/a	n/a	n/a	n/a
4060.3	n/a	RECOG_CONF	2030150	n/a	LTP135	ltpFR	18	6	0	FLOWER	584	1	0	n/a	n/a	n/a	n/a	n/a
4061.67	n/a	RECOG_LURE	2030835	n/a	LTP135	ltpFR	18	6	n/a	COBWEB	337	4	n/a	n/a	n/a	n/a	n/a	n/a
4062.636	n/a	RECOG_RESP	2031318	n/a	LTP135	ltpFR	18	6	n/a	COBWEB	337	n/a	n/a	n/a	n/a	n/a	n/a	n/a
4063.13	n/a	RECOG_CONF	2031565	n/a	LTP135	ltpFR	18	6	n/a	COBWEB	337	4	n/a	n/a	n/a	n/a	n/a	n/a
4064.684	n/a	RECOG_LURE	2032342	n/a	LTP135	ltpFR	18	6	n/a	TRANSPLANT	1496	5	n/a	n/a	n/a	n/a	n/a	n/a
4065.552	n/a	RECOG_RESP	2032776	n/a	LTP135	ltpFR	18	6	n/a	TRANSPLANT	1496	n/a	n/a	n/a	n/a	n/a	n/a	n/a
4066.098	n/a	RECOG_CONF	2033049	n/a	LTP135	ltpFR	18	6	n/a	TRANSPLANT	1496	5	n/a	n/a	n/a	n/a	n/a	n/a
4067.476	n/a	RECOG_TARGET	2033738	n/a	LTP135	ltpFR	18	6	0	GYM	674	1	1	n/a	n/a	n/a	n/a	n/a
4068.392	n/a	RECOG_RESP	2034196	n/a	LTP135	ltpFR	18	6	0	GYM	674	n/a	1	n/a	n/a	n/a	n/a	n/a
4068.914	n/a	RECOG_CONF	2034457	n/a	LTP135	ltpFR	18	6	0	GYM	674	1	1	n/a	n/a	n/a	n/a	n/a
4070.418	n/a	RECOG_TARGET	2035209	n/a	LTP135	ltpFR	18	6	-1	BOUILLON	154	4	-1	n/a	n/a	n/a	n/a	n/a
4071.312	n/a	RECOG_RESP	2035656	n/a	LTP135	ltpFR	18	6	-1	BOUILLON	154	n/a	-1	n/a	n/a	n/a	n/a	n/a
4071.828	n/a	RECOG_CONF	2035914	n/a	LTP135	ltpFR	18	6	-1	BOUILLON	154	4	-1	n/a	n/a	n/a	n/a	n/a
4073.292	n/a	RECOG_TARGET	2036646	n/a	LTP135	ltpFR	18	6	1	PLANT	1083	4	1	n/a	n/a	n/a	n/a	n/a
4074.092	n/a	RECOG_RESP	2037046	n/a	LTP135	ltpFR	18	6	1	PLANT	1083	n/a	1	n/a	n/a	n/a	n/a	n/a
