mstime	trial_type	stim_file	subject	experiment	session	trial	task	item_name	item_num	recog_resp	recog_conf	resp	answer	test_x	test_y	test_z	color_r	color_g	color_b	case	font
0	SESS_START	n/a	LTP100	ltpFR	9	n/a	n/a	n/a	n/a	1	2	n/a	n/a	0	0	0	n/a	n/a	n/a	n/a	n/a
90215640	SESS_START	n/a	LTP100	ltpFR	9	n/a	n/a	n/a	n/a	1	n/a	n/a	n/a	0	0	0	n/a	n/a	n/a	n/a	n/a
90240232	START	n/a	LTP100	ltpFR	9	n/a	n/a	n/a	n/a	n/a	n/a	n/a	n/a	n/a	n/a	n/a	n/a	n/a	n/a	n/a	n/a
90240257	PROB	n/a	LTP100	ltpFR	9	n/a	n/a	n/a	n/a	n/a	n/a	n/a	12	6	3	3	n/a	n/a	n/a	n/a	n/a
90242329	PROB	n/a	LTP100	ltpFR	9	n/a	n/a	n/a	n/a	n/a	n/a	n/a	24	7	9	8	n/a	n/a	n/a	n/a	n/a
90244169	PROB	n/a	LTP100	ltpFR	9	n/a	n/a	n/a	n/a	n/a	n/a	n/a	14	9	2	3	n/a	n/a	n/a	n/a	n/a
90245567	PROB	n/a	LTP100	ltpFR	9	n/a	n/a	n/a	n/a	n/a	n/a	n/a	17	9	7	1	n/a	n/a	n/a	n/a	n/a
90248106	PROB	n/a	LTP100	ltpFR	9	n/a	n/a	n/a	n/a	n/a	n/a	n/a	20	5	7	8	n/a	n/a	n/a	n/a	n/a
90250004	PROB	n/a	LTP100	ltpFR	9	n/a	n/a	n/a	n/a	n/a	n/a	n/a	22	8	6	8	n/a	n/a	n/a	n/a	n/a
90251786	PROB	n/a	LTP100	ltpFR	9	n/a	n/a	n/a	n/a	n/a	n/a	n/a	19	9	6	4	n/a	n/a	n/a	n/a	n/a
90253608	PROB	n/a	LTP100	ltpFR	9	n/a	n/a	n/a	n/a	n/a	n/a	n/a	17	4	9	4	n/a	n/a	n/a	n/a	n/a
90255447	PROB	n/a	LTP100	ltpFR	9	n/a	n/a	n/a	n/a	n/a	n/a	n/a	15	9	3	3	n/a	n/a	n/a	n/a	n/a
90256954	PROB	n/a	LTP100	ltpFR	9	n/a	n/a	n/a	n/a	n/a	n/a	n/a	18	6	6	6	n/a	n/a	n/a	n/a	n/a
90260232	STOP	n/a	LTP100	ltpFR	9	n/a	n/a	n/a	n/a	n/a	n/a	n/a	n/a	n/a	n/a	n/a	n/a	n/a	n/a	n/a	n/a
90316660	WORD	wordpools/wasnorm_wordpool.txt	LTP100	ltpFR	9	1	0	OTTER	986	n/a	n/a	1	n/a	0	0	0	0.57763671875	0.412841796875	1	upper	zerothre.ttf
90320547	WORD	wordpools/wasnorm_wordpool.txt	LTP100	ltpFR	9	1	0	INSECT	740	n/a	n/a	0	n/a	0	0	0	0.57763671875	0.412841796875	1	upper	zerothre.ttf
90324617	WORD	wordpools/wasnorm_wordpool.txt	LTP100	ltpFR	9	1	0	MOTH	920	n/a	n/a	0	n/a	0	0	0	0.57763671875	0.412841796875	1	upper	zerothre.ttf
90328763	WORD	wordpools/wasnorm_wordpool.txt	LTP100	ltpFR	9	1	0	FUR	615	n/a	n/a	0	n/a	0	0	0	0.57763671875	0.412841796875	1	upper	zerothre.ttf
90332916	WORD	wordpools/wasnorm_wordpool.txt	LTP100	ltpFR	9	1	0	PICNIC	1060	n/a	n/a	1	n/a	0	0	0	0.57763671875	0.412841796875	1	upper	zerothre.ttf
90336878	WORD	wordpools/wasnorm_wordpool.txt	LTP100	ltpFR	9	1	0	COUCH	386	n/a	n/a	1	n/a	0	0	0	0.57763671875	0.412841796875	1	upper	zerothre.ttf
90340981	WORD	wordpools/wasnorm_wordpool.txt	LTP100	ltpFR	9	1	0	PILLOW	1069	n/a	n/a	1	n/a	0	0	0	0.57763671875	0.412841796875	1	upper	zerothre.ttf
90345010	WORD	wordpools/wasnorm_wordpool.txt	LTP100	ltpFR	9	1	0	VELVET	1555	n/a	n/a	0	n/a	0	0	0	0.57763671875	0.412841796875	1	upper	zerothre.ttf
90348922	WORD	wordpools/wasnorm_wordpool.txt	LTP100	ltpFR	9	1	0	CARD	243	n/a	n/a	0	n/a	0	0	0	0.57763671875	0.412841796875	1	upper	zerothre.ttf
90353026	WORD	wordpools/wasnorm_wordpool.txt	LTP100	ltpFR	9	1	0	TOMBSTONE	1478	n/a	n/a	1	n/a	0	0	0	0.57763671875	0.412841796875	1	upper	zerothre.ttf
90356838	WORD	wordpools/wasnorm_wordpool.txt	LTP100	ltpFR	9	1	0	CRIMINAL	409	n/a	n/a	1	n/a	0	0	0	0.57763671875	0.412841796875	1	upper	zerothre.ttf
90360833	WORD	wordpools/wasnorm_wordpool.txt	LTP100	ltpFR	9	1	0	VASE	1549	n/a	n/a	0	n/a	0	0	0	0.57763671875	0.412841796875	1	upper	zerothre.ttf
90364712	WORD	wordpools/wasnorm_wordpool.txt	LTP100	ltpFR	9	1	0	VALLEY	1545	n/a	n/a	1	n/a	0	0	0	0.57763671875	0.412841796875	1	upper	zerothre.ttf
90368899	WORD	wordpools/wasnorm_wordpool.txt	LTP100	ltpFR	9	1	0	FUGITIVE	612	n/a	n/a	1	n/a	0	0	0	0.57763671875	0.412841796875	1	upper	zerothre.ttf
90372928	WORD	wordpools/wasnorm_wordpool.txt	LTP100	ltpFR	9	1	0	ARENA	37	n/a	n/a	1	n/a	0	0	0	0.57763671875	0.412841796875	1	upper	zerothre.ttf
90376806	WORD	wordpools/wasnorm_wordpool.txt	LTP100	ltpFR	9	1	0	TELEPHONE	1445	n/a	n/a	0	n/a	0	0	0	0.57763671875	0.412841796875	1	upper	zerothre.ttf
90379812	START	n/a	LTP100	ltpFR	9	n/a	n/a	n/a	n/a	n/a	n/a	n/a	n/a	n/a	n/a	n/a	n/a	n/a	n/a	n/a	n/a
90380993	PROB	n/a	LTP100	ltpFR	9	n/a	n/a	n/a	n/a	n/a	n/a	n/a	17	1	8	8	n/a	n/a	n/a	n/a	n/a
90382566	PROB	n/a	LTP100	ltpFR	9	n/a	n/a	n/a	n/a	n/a	n/a	n/a	24	9	8	7	n/a	n/a	n/a	n/a	n/a
90384023	PROB	n/a	LTP100	ltpFR	9	n/a	n/a	n/a	n/a	n/a	n/a	n/a	14	9	1	4	n/a	n/a	n/a	n/a	n/a
90385197	PROB	n/a	LTP100	ltpFR	9	n/a	n/a	n/a	n/a	n/a	n/a	n/a	8	2	4	2	n/a	n/a	n/a	n/a	n/a
90386474	STOP	n/a	LTP100	ltpFR	9	n/a	n/a	n/a	n/a	n/a	n/a	n/a	n/a	n/a	n/a	n/a	n/a	n/a	n/a	n/a	n/a
90389609	REC_START	n/a	LTP100	ltpFR	9	1	n/a	n/a	n/a	n/a	n/a	n/a	n/a	0	0	0	n/a	n/a	n/a	n/a	n/a
90391709	REC_WORD	wordpools/wasnorm_wordpool.txt	LTP100	ltpFR	9	1	0	OTTER	986	n/a	n/a	1	n/a	0	0	0	n/a	n/a	n/a	n/a	n/a
90392388	REC_WORD	wordpools/wasnorm_wordpool.txt	LTP100	ltpFR	9	1	0	TOMBSTONE	1478	n/a	n/a	1	n/a	0	0	0	n/a	n/a	n/a	n/a	n/a
90393408	REC_WORD	wordpools/wasnorm_wordpool.txt	LTP100	ltpFR	9	1	0	VALLEY	1545	n/a	n/a	1	n/a	0	0	0	n/a	n/a	n/a	n/a	n/a
90396014	REC_WORD	wordpools/wasnorm_wordpool.txt	LTP100	ltpFR	9	1	0	PICNIC	1060	n/a	n/a	1	n/a	0	0	0	n/a	n/a	n/a	n/a	n/a
90396927	REC_WORD	wordpools/wasnorm_wordpool.txt	LTP100	ltpFR	9	1	0	MOTH	920	n/a	n/a	0	n/a	0	0	0	n/a	n/a	n/a	n/a	n/a
90397621	REC_WORD	wordpools/wasnorm_wordpool.txt	LTP100	ltpFR	9	1	0	INSECT	740	n/a	n/a	0	n/a	0	0	0	n/a	n/a	n/a	n/a	n/a
90398958	REC_WORD	wordpools/wasnorm_wordpool.txt	LTP100	ltpFR	9	1	0	OTTER	986	n/a	n/a	1	n/a	0	0	0	n/a	n/a	n/a	n/a	n/a
90402215	REC_WORD	wordpools/wasnorm_wordpool.txt	LTP100	ltpFR	9	1	0	VELVET	1555	n/a	n/a	0	n/a	0	0	0	n/a	n/a	n/a	n/a	n/a
90403192	REC_WORD	wordpools/wasnorm_wordpool.txt	LTP100	ltpFR	9	1	0	FUR	615	n/a	n/a	0	n/a	0	0	0	n/a	n/a	n/a	n/a	n/a
90412980	REC_WORD	wordpools/wasnorm_wordpool.txt	LTP100	ltpFR	9	1	0	CRIMINAL	409	n/a	n/a	1	n/a	0	0	0	n/a	n/a	n/a	n/a	n/a
90440204	REC_WORD	wordpools/wasnorm_wordpool.txt	LTP100	ltpFR	9	1	0	VASE	1549	n/a	n/a	0	n/a	0	0	0	n/a	n/a	n/a	n/a	n/a
90441281	REC_WORD	wordpools/wasnorm_wordpool.txt	LTP100	ltpFR	9	1	0	COUCH	386	n/a	n/a	1	n/a	0	0	0	n/a	n/a	n/a	n/a	n/a
90469058	START	n/a	LTP100	ltpFR	9	n/a	n/a	n/a	n/a	n/a	n/a	n/a	n/a	n/a	n/a	n/a	n/a	n/a	n/a	n/a	n/a
90470564	PROB	n/a	LTP100	ltpFR	9	n/a	n/a	n/a	n/a	n/a	n/a	n/a	11	4	6	1	n/a	n/a	n/a	n/a	n/a
90471705	PROB	n/a	LTP100	ltpFR	9	n/a	n/a	n/a	n/a	n/a	n/a	n/a	11	1	3	7	n/a	n/a	n/a	n/a	n/a
90472837	PROB	n/a	LTP100	ltpFR	9	n/a	n/a	n/a	n/a	n/a	n/a	n/a	11	1	4	6	n/a	n/a	n/a	n/a	n/a
90473827	PROB	n/a	LTP100	ltpFR	9	n/a	n/a	n/a	n/a	n/a	n/a	n/a	18	9	1	8	n/a	n/a	n/a	n/a	n/a
90475059	PROB	n/a	LTP100	ltpFR	9	n/a	n/a	n/a	n/a	n/a	n/a	n/a	12	4	1	7	n/a	n/a	n/a	n/a	n/a
90476474	STOP	n/a	LTP100	ltpFR	9	n/a	n/a	n/a	n/a	n/a	n/a	n/a	n/a	n/a	n/a	n/a	n/a	n/a	n/a	n/a	n/a
90478106	WORD	wordpools/wasnorm_wordpool.txt	LTP100	ltpFR	9	2	1	ATHLETE	52	n/a	n/a	0	n/a	0	0	0	0.422607421875	0.5869140625	0	lower	amplitud.ttf
90481111	START	n/a	LTP100	ltpFR	9	n/a	n/a	n/a	n/a	n/a	n/a	n/a	n/a	n/a	n/a	n/a	n/a	n/a	n/a	n/a	n/a
90482184	PROB	n/a	LTP100	ltpFR	9	n/a	n/a	n/a	n/a	n/a	n/a	n/a	17	7	6	4	n/a	n/a	n/a	n/a	n/a
90484398	PROB	n/a	LTP100	ltpFR	9	n/a	n/a	n/a	n/a	n/a	n/a	n/a	18	5	9	3	n/a	n/a	n/a	n/a	n/a
90486030	PROB	n/a	LTP100	ltpFR	9	n/a	n/a	n/a	n/a	n/a	n/a	n/a	20	8	9	3	n/a	n/a	n/a	n/a	n/a
90488234	STOP	n/a	LTP100	ltpFR	9	n/a	n/a	n/a	n/a	n/a	n/a	n/a	n/a	n/a	n/a	n/a	n/a	n/a	n/a	n/a	n/a
90490108	WORD	wordpools/wasnorm_wordpool.txt	LTP100	ltpFR	9	2	1	TURTLE	1522	n/a	n/a	1	n/a	0	0	0	0.422607421875	0.5869140625	0	lower	amplitud.ttf
90493114	START	n/a	LTP100	ltpFR	9	n/a	n/a	n/a	n/a	n/a	n/a	n/a	n/a	n/a	n/a	n/a	n/a	n/a	n/a	n/a	n/a
90493979	PROB	n/a	LTP100	ltpFR	9	n/a	n/a	n/a	n/a	n/a	n/a	n/a	15	6	8	1	n/a	n/a	n/a	n/a	n/a
90495577	PROB	n/a	LTP100	ltpFR	9	n/a	n/a	n/a	n/a	n/a	n/a	n/a	21	6	8	7	n/a	n/a	n/a	n/a	n/a
90497824	PROB	n/a	LTP100	ltpFR	9	n/a	n/a	n/a	n/a	n/a	n/a	n/a	13	7	1	5	n/a	n/a	n/a	n/a	n/a
90499239	PROB	n/a	LTP100	ltpFR	9	n/a	n/a	n/a	n/a	n/a	n/a	n/a	12	6	1	5	n/a	n/a	n/a	n/a	n/a
90500842	STOP	n/a	LTP100	ltpFR	9	n/a	n/a	n/a	n/a	n/a	n/a	n/a	n/a	n/a	n/a	n/a	n/a	n/a	n/a	n/a	n/a
90501994	WORD	wordpools/wasnorm_wordpool.txt	LTP100	ltpFR	9	2	0	PAINT	1003	n/a	n/a	0	n/a	0	0	0	0.57763671875	0.412841796875	1	upper	zerothre.ttf
90505000	START	n/a	LTP100	ltpFR	9	n/a	n/a	n/a	n/a	n/a	n/a	n/a	n/a	n/a	n/a	n/a	n/a	n/a	n/a	n/a	n/a
90506031	PROB	n/a	LTP100	ltpFR	9	n/a	n/a	n/a	n/a	n/a	n/a	n/a	10	2	3	5	n/a	n/a	n/a	n/a	n/a
90508062	PROB	n/a	LTP100	ltpFR	9	n/a	n/a	n/a	n/a	n/a	n/a	n/a	15	5	6	4	n/a	n/a	n/a	n/a	n/a
90509527	PROB	n/a	LTP100	ltpFR	9	n/a	n/a	n/a	n/a	n/a	n/a	n/a	20	5	8	7	n/a	n/a	n/a	n/a	n/a
90511250	PROB	n/a	LTP100	ltpFR	9	n/a	n/a	n/a	n/a	n/a	n/a	n/a	20	8	5	7	n/a	n/a	n/a	n/a	n/a
90512530	STOP	n/a	LTP100	ltpFR	9	n/a	n/a	n/a	n/a	n/a	n/a	n/a	n/a	n/a	n/a	n/a	n/a	n/a	n/a	n/a	n/a
90514114	WORD	wordpools/wasnorm_wordpool.txt	LTP100	ltpFR	9	2	0	BRIEFCASE	175	n/a	n/a	1	n/a	0	0	0	0.57763671875	0.412841796875	1	upper	zerothre.ttf
90517119	START	n/a	LTP100	ltpFR	9	n/a	n/a	n/a	n/a	n/a	n/a	n/a	n/a	n/a	n/a	n/a	n/a	n/a	n/a	n/a	n/a
90518092	PROB	n/a	LTP100	ltpFR	9	n/a	n/a	n/a	n/a	n/a	n/a	n/a	18	6	6	6	n/a	n/a	n/a	n/a	n/a
90519849	PROB	n/a	LTP100	ltpFR	9	n/a	n/a	n/a	n/a	n/a	n/a	n/a	19	1	9	9	n/a	n/a	n/a	n/a	n/a
90521655	PROB	n/a	LTP100	ltpFR	9	n/a	n/a	n/a	n/a	n/a	n/a	n/a	16	8	3	5	n/a	n/a	n/a	n/a	n/a
90523730	STOP	n/a	LTP100	ltpFR	9	n/a	n/a	n/a	n/a	n/a	n/a	n/a	n/a	n/a	n/a	n/a	n/a	n/a	n/a	n/a	n/a
90526300	WORD	wordpools/wasnorm_wordpool.txt	LTP100	ltpFR	9	2	1	BLUEPRINT	142	n/a	n/a	0	n/a	0	0	0	0.422607421875	0.5869140625	0	lower	amplitud.ttf
90529305	START	n/a	LTP100	ltpFR	9	n/a	n/a	n/a	n/a	n/a	n/a	n/a	n/a	n/a	n/a	n/a	n/a	n/a	n/a	n/a	n/a
90530337	PROB	n/a	LTP100	ltpFR	9	n/a	n/a	n/a	n/a	n/a	n/a	n/a	21	7	7	7	n/a	n/a	n/a	n/a	n/a
90531477	PROB	n/a	LTP100	ltpFR	9	n/a	n/a	n/a	n/a	n/a	n/a	n/a	13	3	6	4	n/a	n/a	n/a	n/a	n/a
90533225	PROB	n/a	LTP100	ltpFR	9	n/a	n/a	n/a	n/a	n/a	n/a	n/a	19	2	9	8	n/a	n/a	n/a	n/a	n/a
90534881	PROB	n/a	LTP100	ltpFR	9	n/a	n/a	n/a	n/a	n/a	n/a	n/a	8	3	2	3	n/a	n/a	n/a	n/a	n/a
90536771	STOP	n/a	LTP100	ltpFR	9	n/a	n/a	n/a	n/a	n/a	n/a	n/a	n/a	n/a	n/a	n/a	n/a	n/a	n/a	n/a	n/a
90538252	WORD	wordpools/wasnorm_wordpool.txt	LTP100	ltpFR	9	2	1	LIST	830	n/a	n/a	0	n/a	0	0	0	0.422607421875	0.5869140625	0	lower	amplitud.ttf
90541258	START	n/a	LTP100	ltpFR	9	n/a	n/a	n/a	n/a	n/a	n/a	n/a	n/a	n/a	n/a	n/a	n/a	n/a	n/a	n/a	n/a
90542439	PROB	n/a	LTP100	ltpFR	9	n/a	n/a	n/a	n/a	n/a	n/a	n/a	9	2	4	3	n/a	n/a	n/a	n/a	n/a
90544054	PROB	n/a	LTP100	ltpFR	9	n/a	n/a	n/a	n/a	n/a	n/a	n/a	22	5	9	8	n/a	n/a	n/a	n/a	n/a
90546185	PROB	n/a	LTP100	ltpFR	9	n/a	n/a	n/a	n/a	n/a	n/a	n/a	13	3	5	5	n/a	n/a	n/a	n/a	n/a
90548114	STOP	n/a	LTP100	ltpFR	9	n/a	n/a	n/a	n/a	n/a	n/a	n/a	n/a	n/a	n/a	n/a	n/a	n/a	n/a	n/a	n/a
90550397	WORD	wordpools/wasnorm_wordpool.txt	LTP100	ltpFR	9	2	1	REPORT	1184	n/a	n/a	0	n/a	0	0	0	0.422607421875	0.5869140625	0	lower	amplitud.ttf
90553402	START	n/a	LTP100	ltpFR	9	n/a	n/a	n/a	n/a	n/a	n/a	n/a	n/a	n/a	n/a	n/a	n/a	n/a	n/a	n/a	n/a
90554250	PROB	n/a	LTP100	ltpFR	9	n/a	n/a	n/a	n/a	n/a	n/a	n/a	19	9	3	7	n/a	n/a	n/a	n/a	n/a
90555649	PROB	n/a	LTP100	ltpFR	9	n/a	n/a	n/a	n/a	n/a	n/a	n/a	15	6	7	2	n/a	n/a	n/a	n/a	n/a
90557114	PROB	n/a	LTP100	ltpFR	9	n/a	n/a	n/a	n/a	n/a	n/a	n/a	13	3	2	7	n/a	n/a	n/a	n/a	n/a
90558812	PROB	n/a	LTP100	ltpFR	9	n/a	n/a	n/a	n/a	n/a	n/a	n/a	22	8	9	5	n/a	n/a	n/a	n/a	n/a
90560594	STOP	n/a	LTP100	ltpFR	9	n/a	n/a	n/a	n/a	n/a	n/a	n/a	n/a	n/a	n/a	n/a	n/a	n/a	n/a	n/a	n/a
90562324	WORD	wordpools/wasnorm_wordpool.txt	LTP100	ltpFR	9	2	0	LIME	823	n/a	n/a	0	n/a	0	0	0	0.57763671875	0.412841796875	1	upper	zerothre.ttf
90565330	START	n/a	LTP100	ltpFR	9	n/a	n/a	n/a	n/a	n/a	n/a	n/a	n/a	n/a	n/a	n/a	n/a	n/a	n/a	n/a	n/a
90566378	PROB	n/a	LTP100	ltpFR	9	n/a	n/a	n/a	n/a	n/a	n/a	n/a	17	6	6	5	n/a	n/a	n/a	n/a	n/a
90568609	PROB	n/a	LTP100	ltpFR	9	n/a	n/a	n/a	n/a	n/a	n/a	n/a	11	3	2	6	n/a	n/a	n/a	n/a	n/a
90570032	PROB	n/a	LTP100	ltpFR	9	n/a	n/a	n/a	n/a	n/a	n/a	n/a	11	5	2	4	n/a	n/a	n/a	n/a	n/a
90571672	PROB	n/a	LTP100	ltpFR	9	n/a	n/a	n/a	n/a	n/a	n/a	n/a	11	8	2	1	n/a	n/a	n/a	n/a	n/a
90572771	STOP	n/a	LTP100	ltpFR	9	n/a	n/a	n/a	n/a	n/a	n/a	n/a	n/a	n/a	n/a	n/a	n/a	n/a	n/a	n/a	n/a
90574194	WORD	wordpools/wasnorm_wordpool.txt	LTP100	ltpFR	9	2	0	BANANA	77	n/a	n/a	0	n/a	0	0	0	0.57763671875	0.412841796875	1	upper	zerothre.ttf
90577199	START	n/a	LTP100	ltpFR	9	n/a	n/a	n/a	n/a	n/a	n/a	n/a	n/a	n/a	n/a	n/a	n/a	n/a	n/a	n/a	n/a
90578281	PROB	n/a	LTP100	ltpFR	9	n/a	n/a	n/a	n/a	n/a	n/a	n/a	21	3	9	9	n/a	n/a	n/a	n/a	n/a
90579737	PROB	n/a	LTP100	ltpFR	9	n/a	n/a	n/a	n/a	n/a	n/a	n/a	18	6	4	8	n/a	n/a	n/a	n/a	n/a
90580936	PROB	n/a	LTP100	ltpFR	9	n/a	n/a	n/a	n/a	n/a	n/a	n/a	16	6	3	7	n/a	n/a	n/a	n/a	n/a
90582409	PROB	n/a	LTP100	ltpFR	9	n/a	n/a	n/a	n/a	n/a	n/a	n/a	15	4	8	3	n/a	n/a	n/a	n/a	n/a
90583683	PROB	n/a	LTP100	ltpFR	9	n/a	n/a	n/a	n/a	n/a	n/a	n/a	16	6	3	7	n/a	n/a	n/a	n/a	n/a
90585026	STOP	n/a	LTP100	ltpFR	9	n/a	n/a	n/a	n/a	n/a	n/a	n/a	n/a	n/a	n/a	n/a	n/a	n/a	n/a	n/a	n/a
90586013	WORD	wordpools/wasnorm_wordpool.txt	LTP100	ltpFR	9	2	0	MASCARA	875	n/a	n/a	0	n/a	0	0	0	0.57763671875	0.412841796875	1	upper	zerothre.ttf
90589019	START	n/a	LTP100	ltpFR	9	n/a	n/a	n/a	n/a	n/a	n/a	n/a	n/a	n/a	n/a	n/a	n/a	n/a	n/a	n/a	n/a
90590050	PROB	n/a	LTP100	ltpFR	9	n/a	n/a	n/a	n/a	n/a	n/a	n/a	13	4	3	6	n/a	n/a	n/a	n/a	n/a
90593014	PROB	n/a	LTP100	ltpFR	9	n/a	n/a	n/a	n/a	n/a	n/a	n/a	15	3	9	3	n/a	n/a	n/a	n/a	n/a
90594395	PROB	n/a	LTP100	ltpFR	9	n/a	n/a	n/a	n/a	n/a	n/a	n/a	11	3	7	1	n/a	n/a	n/a	n/a	n/a
90595642	STOP	n/a	LTP100	ltpFR	9	n/a	n/a	n/a	n/a	n/a	n/a	n/a	n/a	n/a	n/a	n/a	n/a	n/a	n/a	n/a	n/a
90598099	WORD	wordpools/wasnorm_wordpool.txt	LTP100	ltpFR	9	2	0	CACTUS	215	n/a	n/a	0	n/a	0	0	0	0.57763671875	0.412841796875	1	upper	zerothre.ttf
90601105	START	n/a	LTP100	ltpFR	9	n/a	n/a	n/a	n/a	n/a	n/a	n/a	n/a	n/a	n/a	n/a	n/a	n/a	n/a	n/a	n/a
90602253	PROB	n/a	LTP100	ltpFR	9	n/a	n/a	n/a	n/a	n/a	n/a	n/a	19	3	7	9	n/a	n/a	n/a	n/a	n/a
90603993	PROB	n/a	LTP100	ltpFR	9	n/a	n/a	n/a	n/a	n/a	n/a	n/a	21	8	4	9	n/a	n/a	n/a	n/a	n/a
90605499	PROB	n/a	LTP100	ltpFR	9	n/a	n/a	n/a	n/a	n/a	n/a	n/a	15	5	8	2	n/a	n/a	n/a	n/a	n/a
90609105	STOP	n/a	LTP100	ltpFR	9	n/a	n/a	n/a	n/a	n/a	n/a	n/a	n/a	n/a	n/a	n/a	n/a	n/a	n/a	n/a	n/a
90610269	WORD	wordpools/wasnorm_wordpool.txt	LTP100	ltpFR	9	2	0	VISITOR	1573	n/a	n/a	1	n/a	0	0	0	0.57763671875	0.412841796875	1	upper	zerothre.ttf
90613274	START	n/a	LTP100	ltpFR	9	n/a	n/a	n/a	n/a	n/a	n/a	n/a	n/a	n/a	n/a	n/a	n/a	n/a	n/a	n/a	n/a
90614156	PROB	n/a	LTP100	ltpFR	9	n/a	n/a	n/a	n/a	n/a	n/a	n/a	20	2	9	9	n/a	n/a	n/a	n/a	n/a
90615837	PROB	n/a	LTP100	ltpFR	9	n/a	n/a	n/a	n/a	n/a	n/a	n/a	11	7	3	1	n/a	n/a	n/a	n/a	n/a
90616853	PROB	n/a	LTP100	ltpFR	9	n/a	n/a	n/a	n/a	n/a	n/a	n/a	11	5	4	2	n/a	n/a	n/a	n/a	n/a
90617985	PROB	n/a	LTP100	ltpFR	9	n/a	n/a	n/a	n/a	n/a	n/a	n/a	13	3	5	5	n/a	n/a	n/a	n/a	n/a
90619930	STOP	n/a	LTP100	ltpFR	9	n/a	n/a	n/a	n/a	n/a	n/a	n/a	n/a	n/a	n/a	n/a	n/a	n/a	n/a	n/a	n/a
90622330	WORD	wordpools/wasnorm_wordpool.txt	LTP100	ltpFR	9	2	0	PARTNER	1017	n/a	n/a	1	n/a	0	0	0	0.57763671875	0.412841796875	1	upper	zerothre.ttf
90625335	START	n/a	LTP100	ltpFR	9	n/a	n/a	n/a	n/a	n/a	n/a	n/a	n/a	n/a	n/a	n/a	n/a	n/a	n/a	n/a	n/a
90626150	PROB	n/a	LTP100	ltpFR	9	n/a	n/a	n/a	n/a	n/a	n/a	n/a	11	5	3	3	n/a	n/a	n/a	n/a	n/a
90627774	PROB	n/a	LTP100	ltpFR	9	n/a	n/a	n/a	n/a	n/a	n/a	n/a	13	6	4	3	n/a	n/a	n/a	n/a	n/a
90629005	PROB	n/a	LTP100	ltpFR	9	n/a	n/a	n/a	n/a	n/a	n/a	n/a	16	4	6	6	n/a	n/a	n/a	n/a	n/a
90630437	PROB	n/a	LTP100	ltpFR	9	n/a	n/a	n/a	n/a	n/a	n/a	n/a	15	8	5	2	n/a	n/a	n/a	n/a	n/a
90633335	STOP	n/a	LTP100	ltpFR	9	n/a	n/a	n/a	n/a	n/a	n/a	n/a	n/a	n/a	n/a	n/a	n/a	n/a	n/a	n/a	n/a
90634540	WORD	wordpools/wasnorm_wordpool.txt	LTP100	ltpFR	9	2	1	GHOST	634	n/a	n/a	0	n/a	0	0	0	0.422607421875	0.5869140625	0	lower	amplitud.ttf
90637546	START	n/a	LTP100	ltpFR	9	n/a	n/a	n/a	n/a	n/a	n/a	n/a	n/a	n/a	n/a	n/a	n/a	n/a	n/a	n/a	n/a
90638702	PROB	n/a	LTP100	ltpFR	9	n/a	n/a	n/a	n/a	n/a	n/a	n/a	11	7	2	2	n/a	n/a	n/a	n/a	n/a
90639992	PROB	n/a	LTP100	ltpFR	9	n/a	n/a	n/a	n/a	n/a	n/a	n/a	13	4	8	1	n/a	n/a	n/a	n/a	n/a
90641557	PROB	n/a	LTP100	ltpFR	9	n/a	n/a	n/a	n/a	n/a	n/a	n/a	25	8	9	8	n/a	n/a	n/a	n/a	n/a
90644882	STOP	n/a	LTP100	ltpFR	9	n/a	n/a	n/a	n/a	n/a	n/a	n/a	n/a	n/a	n/a	n/a	n/a	n/a	n/a	n/a	n/a
90646385	WORD	wordpools/wasnorm_wordpool.txt	LTP100	ltpFR	9	2	1	LIPSTICK	829	n/a	n/a	0	n/a	0	0	0	0.422607421875	0.5869140625	0	lower	amplitud.ttf
90649390	START	n/a	LTP100	ltpFR	9	n/a	n/a	n/a	n/a	n/a	n/a	n/a	n/a	n/a	n/a	n/a	n/a	n/a	n/a	n/a	n/a
90650539	PROB	n/a	LTP100	ltpFR	9	n/a	n/a	n/a	n/a	n/a	n/a	n/a	14	8	5	1	n/a	n/a	n/a	n/a	n/a
90653186	PROB	n/a	LTP100	ltpFR	9	n/a	n/a	n/a	n/a	n/a	n/a	n/a	10	6	1	3	n/a	n/a	n/a	n/a	n/a
90657390	STOP	n/a	LTP100	ltpFR	9	n/a	n/a	n/a	n/a	n/a	n/a	n/a	n/a	n/a	n/a	n/a	n/a	n/a	n/a	n/a	n/a
90658379	WORD	wordpools/wasnorm_wordpool.txt	LTP100	ltpFR	9	2	1	VINE	1568	n/a	n/a	0	n/a	0	0	0	0.422607421875	0.5869140625	0	lower	amplitud.ttf
90661385	START	n/a	LTP100	ltpFR	9	n/a	n/a	n/a	n/a	n/a	n/a	n/a	n/a	n/a	n/a	n/a	n/a	n/a	n/a	n/a	n/a
90662466	PROB	n/a	LTP100	ltpFR	9	n/a	n/a	n/a	n/a	n/a	n/a	n/a	8	1	4	3	n/a	n/a	n/a	n/a	n/a
90663940	PROB	n/a	LTP100	ltpFR	9	n/a	n/a	n/a	n/a	n/a	n/a	n/a	17	4	7	6	n/a	n/a	n/a	n/a	n/a
90665812	PROB	n/a	LTP100	ltpFR	9	n/a	n/a	n/a	n/a	n/a	n/a	n/a	11	7	3	1	n/a	n/a	n/a	n/a	n/a
90667244	PROB	n/a	LTP100	ltpFR	9	n/a	n/a	n/a	n/a	n/a	n/a	n/a	20	7	5	8	n/a	n/a	n/a	n/a	n/a
90668986	STOP	n/a	LTP100	ltpFR	9	n/a	n/a	n/a	n/a	n/a	n/a	n/a	n/a	n/a	n/a	n/a	n/a	n/a	n/a	n/a	n/a
90671133	REC_START	n/a	LTP100	ltpFR	9	2	n/a	n/a	n/a	n/a	n/a	n/a	n/a	0	0	0	n/a	n/a	n/a	n/a	n/a
90675099	REC_WORD	wordpools/wasnorm_wordpool.txt	LTP100	ltpFR	9	2	1	LIPSTICK	829	n/a	n/a	0	n/a	0	0	0	n/a	n/a	n/a	n/a	n/a
90677044	REC_WORD	wordpools/wasnorm_wordpool.txt	LTP100	ltpFR	9	2	0	BANANA	77	n/a	n/a	0	n/a	0	0	0	n/a	n/a	n/a	n/a	n/a
90679459	REC_WORD	wordpools/wasnorm_wordpool.txt	LTP100	ltpFR	9	2	1	ATHLETE	52	n/a	n/a	0	n/a	0	0	0	n/a	n/a	n/a	n/a	n/a
90694704	REC_WORD	wordpools/wasnorm_wordpool.txt	LTP100	ltpFR	9	2	0	MASCARA	875	n/a	n/a	0	n/a	0	0	0	n/a	n/a	n/a	n/a	n/a
90709461	REC_WORD	wordpools/wasnorm_wordpool.txt	LTP100	ltpFR	9	2	1	LIST	830	n/a	n/a	0	n/a	0	0	0	n/a	n/a	n/a	n/a	n/a
90711825	REC_WORD	wordpools/wasnorm_wordpool.txt	LTP100	ltpFR	9	2	1	BLUEPRINT	142	n/a	n/a	0	n/a	0	0	0	n/a	n/a	n/a	n/a	n/a
90713122	REC_WORD	wordpools/wasnorm_wordpool.txt	LTP100	ltpFR	9	2	0	BRIEFCASE	175	n/a	n/a	1	n/a	0	0	0	n/a	n/a	n/a	n/a	n/a
90732359	REC_WORD	wordpools/wasnorm_wordpool.txt	LTP100	ltpFR	9	2	0	PARTNER	1017	n/a	n/a	1	n/a	0	0	0	n/a	n/a	n/a	n/a	n/a
90750189	WORD	wordpools/wasnorm_wordpool.txt	LTP100	ltpFR	9	3	0	CAPITAL	238	n/a	n/a	0	n/a	0	0	0	0.57763671875	0.412841796875	1	upper	zerothre.ttf
90754060	WORD	wordpools/wasnorm_wordpool.txt	LTP100	ltpFR	9	3	0	TOURIST	1488	n/a	n/a	1	n/a	0	0	0	0.57763671875	0.412841796875	1	upper	zerothre.ttf
90758230	WORD	wordpools/wasnorm_wordpool.txt	LTP100	ltpFR	9	3	0	GREASE	660	n/a	n/a	0	n/a	0	0	0	0.57763671875	0.412841796875	1	upper	zerothre.ttf
90762275	WORD	wordpools/wasnorm_wordpool.txt	LTP100	ltpFR	9	3	0	TOOL	1480	n/a	n/a	0	n/a	0	0	0	0.57763671875	0.412841796875	1	upper	zerothre.ttf
90766296	WORD	wordpools/wasnorm_wordpool.txt	LTP100	ltpFR	9	3	0	NOOSE	956	n/a	n/a	0	n/a	0	0	0	0.57763671875	0.412841796875	1	upper	zerothre.ttf
90770383	WORD	wordpools/wasnorm_wordpool.txt	LTP100	ltpFR	9	3	0	DINER	467	n/a	n/a	1	n/a	0	0	0	0.57763671875	0.412841796875	1	upper	zerothre.ttf
90774270	WORD	wordpools/wasnorm_wordpool.txt	LTP100	ltpFR	9	3	0	REFRIGERATOR	1179	n/a	n/a	1	n/a	0	0	0	0.57763671875	0.412841796875	1	upper	zerothre.ttf
90778165	WORD	wordpools/wasnorm_wordpool.txt	LTP100	ltpFR	9	3	0	HEADBAND	696	n/a	n/a	0	n/a	0	0	0	0.57763671875	0.412841796875	1	upper	zerothre.ttf
90782277	WORD	wordpools/wasnorm_wordpool.txt	LTP100	ltpFR	9	3	0	HEAD	695	n/a	n/a	1	n/a	0	0	0	0.57763671875	0.412841796875	1	upper	zerothre.ttf
90786189	WORD	wordpools/wasnorm_wordpool.txt	LTP100	ltpFR	9	3	0	MAYONNAISE	880	n/a	n/a	0	n/a	0	0	0	0.57763671875	0.412841796875	1	upper	zerothre.ttf
90790160	WORD	wordpools/wasnorm_wordpool.txt	LTP100	ltpFR	9	3	0	NAIL	936	n/a	n/a	0	n/a	0	0	0	0.57763671875	0.412841796875	1	upper	zerothre.ttf
90794280	WORD	wordpools/wasnorm_wordpool.txt	LTP100	ltpFR	9	3	0	LITTER	832	n/a	n/a	1	n/a	0	0	0	0.57763671875	0.412841796875	1	upper	zerothre.ttf
90798433	WORD	wordpools/wasnorm_wordpool.txt	LTP100	ltpFR	9	3	0	CARAVAN	242	n/a	n/a	1	n/a	0	0	0	0.57763671875	0.412841796875	1	upper	zerothre.ttf
90802629	WORD	wordpools/wasnorm_wordpool.txt	LTP100	ltpFR	9	3	0	SANDWICH	1232	n/a	n/a	0	n/a	0	0	0	0.57763671875	0.412841796875	1	upper	zerothre.ttf
90806516	WORD	wordpools/wasnorm_wordpool.txt	LTP100	ltpFR	9	3	0	QUILL	1150	n/a	n/a	0	n/a	0	0	0	0.57763671875	0.412841796875	1	upper	zerothre.ttf
90810653	WORD	wordpools/wasnorm_wordpool.txt	LTP100	ltpFR	9	3	0	PIPE	1073	n/a	n/a	0	n/a	0	0	0	0.57763671875	0.412841796875	1	upper	zerothre.ttf
90816621	REC_START	n/a	LTP100	ltpFR	9	3	n/a	n/a	n/a	n/a	n/a	n/a	n/a	0	0	0	n/a	n/a	n/a	n/a	n/a
90819489	REC_WORD	wordpools/wasnorm_wordpool.txt	LTP100	ltpFR	9	3	0	QUILL	1150	n/a	n/a	0	n/a	0	0	0	n/a	n/a	n/a	n/a	n/a
90820337	REC_WORD	wordpools/wasnorm_wordpool.txt	LTP100	ltpFR	9	3	0	PIPE	1073	n/a	n/a	0	n/a	0	0	0	n/a	n/a	n/a	n/a	n/a
90821025	REC_WORD	wordpools/wasnorm_wordpool.txt	LTP100	ltpFR	9	3	0	SANDWICH	1232	n/a	n/a	0	n/a	0	0	0	n/a	n/a	n/a	n/a	n/a
90822956	REC_WORD	wordpools/wasnorm_wordpool.txt	LTP100	ltpFR	9	3	0	NAIL	936	n/a	n/a	0	n/a	0	0	0	n/a	n/a	n/a	n/a	n/a
90825032	REC_WORD	wordpools/wasnorm_wordpool.txt	LTP100	ltpFR	9	3	0	MAYONNAISE	880	n/a	n/a	0	n/a	0	0	0	n/a	n/a	n/a	n/a	n/a
90830958	REC_WORD	wordpools/wasnorm_wordpool.txt	LTP100	ltpFR	9	3	0	TOURIST	1488	n/a	n/a	1	n/a	0	0	0	n/a	n/a	n/a	n/a	n/a
90831702	REC_WORD	wordpools/wasnorm_wordpool.txt	LTP100	ltpFR	9	3	0	CAPITAL	238	n/a	n/a	0	n/a	0	0	0	n/a	n/a	n/a	n/a	n/a
90840207	REC_WORD	wordpools/wasnorm_wordpool.txt	LTP100	ltpFR	9	3	0	DINER	467	n/a	n/a	1	n/a	0	0	0	n/a	n/a	n/a	n/a	n/a
90872798	REC_WORD	wordpools/wasnorm_wordpool.txt	LTP100	ltpFR	9	3	0	TOOL	1480	n/a	n/a	0	n/a	0	0	0	n/a	n/a	n/a	n/a	n/a
90896228	WORD	wordpools/wasnorm_wordpool.txt	LTP100	ltpFR	9	4	0	QUAIL	1147	n/a	n/a	0	n/a	0	0	0	0.57763671875	0.412841796875	1	upper	zerothre.ttf
90900157	WORD	wordpools/wasnorm_wordpool.txt	LTP100	ltpFR	9	4	0	BEET	115	n/a	n/a	0	n/a	0	0	0	0.57763671875	0.412841796875	1	upper	zerothre.ttf
90904094	WORD	wordpools/wasnorm_wordpool.txt	LTP100	ltpFR	9	4	0	SPACE	1345	n/a	n/a	1	n/a	0	0	0	0.57763671875	0.412841796875	1	upper	zerothre.ttf
90908006	WORD	wordpools/wasnorm_wordpool.txt	LTP100	ltpFR	9	4	0	TOWER	1490	n/a	n/a	1	n/a	0	0	0	0.57763671875	0.412841796875	1	upper	zerothre.ttf
90911827	WORD	wordpools/wasnorm_wordpool.txt	LTP100	ltpFR	9	4	1	CHEESE	289	n/a	n/a	0	n/a	0	0	0	0.422607421875	0.5869140625	0	lower	amplitud.ttf
90915714	WORD	wordpools/wasnorm_wordpool.txt	LTP100	ltpFR	9	4	1	GALAXY	617	n/a	n/a	0	n/a	0	0	0	0.422607421875	0.5869140625	0	lower	amplitud.ttf
90919742	WORD	wordpools/wasnorm_wordpool.txt	LTP100	ltpFR	9	4	1	SILVERWARE	1308	n/a	n/a	0	n/a	0	0	0	0.422607421875	0.5869140625	0	lower	amplitud.ttf
90923630	WORD	wordpools/wasnorm_wordpool.txt	LTP100	ltpFR	9	4	1	CUP	424	n/a	n/a	0	n/a	0	0	0	0.422607421875	0.5869140625	0	lower	amplitud.ttf
90927467	WORD	wordpools/wasnorm_wordpool.txt	LTP100	ltpFR	9	4	1	ADULT	8	n/a	n/a	1	n/a	0	0	0	0.422607421875	0.5869140625	0	lower	amplitud.ttf
90931396	WORD	wordpools/wasnorm_wordpool.txt	LTP100	ltpFR	9	4	0	BABY	64	n/a	n/a	0	n/a	0	0	0	0.57763671875	0.412841796875	1	upper	zerothre.ttf
90935258	WORD	wordpools/wasnorm_wordpool.txt	LTP100	ltpFR	9	4	0	BAIT	70	n/a	n/a	0	n/a	0	0	0	0.57763671875	0.412841796875	1	upper	zerothre.ttf
90939411	WORD	wordpools/wasnorm_wordpool.txt	LTP100	ltpFR	9	4	0	FISH	571	n/a	n/a	0	n/a	0	0	0	0.57763671875	0.412841796875	1	upper	zerothre.ttf
90943274	WORD	wordpools/wasnorm_wordpool.txt	LTP100	ltpFR	9	4	0	SAUSAGE	1238	n/a	n/a	0	n/a	0	0	0	0.57763671875	0.412841796875	1	upper	zerothre.ttf
90947385	WORD	wordpools/wasnorm_wordpool.txt	LTP100	ltpFR	9	4	1	SALAD	1224	n/a	n/a	0	n/a	0	0	0	0.422607421875	0.5869140625	0	lower	amplitud.ttf
90951489	WORD	wordpools/wasnorm_wordpool.txt	LTP100	ltpFR	9	4	1	MESSAGE	888	n/a	n/a	0	n/a	0	0	0	0.422607421875	0.5869140625	0	lower	amplitud.ttf
90955476	WORD	wordpools/wasnorm_wordpool.txt	LTP100	ltpFR	9	4	1	ELK	526	n/a	n/a	1	n/a	0	0	0	0.422607421875	0.5869140625	0	lower	amplitud.ttf
90958481	START	n/a	LTP100	ltpFR	9	n/a	n/a	n/a	n/a	n/a	n/a	n/a	n/a	n/a	n/a	n/a	n/a	n/a	n/a	n/a	n/a
90959313	PROB	n/a	LTP100	ltpFR	9	n/a	n/a	n/a	n/a	n/a	n/a	n/a	10	2	6	2	n/a	n/a	n/a	n/a	n/a
90961719	PROB	n/a	LTP100	ltpFR	9	n/a	n/a	n/a	n/a	n/a	n/a	n/a	21	5	6	6	n/a	n/a	n/a	n/a	n/a
90963317	PROB	n/a	LTP100	ltpFR	9	n/a	n/a	n/a	n/a	n/a	n/a	n/a	18	6	7	5	n/a	n/a	n/a	n/a	n/a
90965098	PROB	n/a	LTP100	ltpFR	9	n/a	n/a	n/a	n/a	n/a	n/a	n/a	17	7	8	2	n/a	n/a	n/a	n/a	n/a
90967112	PROB	n/a	LTP100	ltpFR	9	n/a	n/a	n/a	n/a	n/a	n/a	n/a	13	6	4	3	n/a	n/a	n/a	n/a	n/a
90968819	PROB	n/a	LTP100	ltpFR	9	n/a	n/a	n/a	n/a	n/a	n/a	n/a	12	1	2	9	n/a	n/a	n/a	n/a	n/a
90970317	PROB	n/a	LTP100	ltpFR	9	n/a	n/a	n/a	n/a	n/a	n/a	n/a	13	5	7	1	n/a	n/a	n/a	n/a	n/a
90971641	PROB	n/a	LTP100	ltpFR	9	n/a	n/a	n/a	n/a	n/a	n/a	n/a	12	6	1	5	n/a	n/a	n/a	n/a	n/a
90973162	STOP	n/a	LTP100	ltpFR	9	n/a	n/a	n/a	n/a	n/a	n/a	n/a	n/a	n/a	n/a	n/a	n/a	n/a	n/a	n/a	n/a
90976361	REC_START	n/a	LTP100	ltpFR	9	4	n/a	n/a	n/a	n/a	n/a	n/a	n/a	0	0	0	n/a	n/a	n/a	n/a	n/a
90980127	REC_WORD	wordpools/wasnorm_wordpool.txt	LTP100	ltpFR	9	4	0	BABY	64	n/a	n/a	0	n/a	0	0	0	n/a	n/a	n/a	n/a	n/a
90981918	REC_WORD	wordpools/wasnorm_wordpool.txt	LTP100	ltpFR	9	4	0	BEET	115	n/a	n/a	0	n/a	0	0	0	n/a	n/a	n/a	n/a	n/a
90982691	REC_WORD	wordpools/wasnorm_wordpool.txt	LTP100	ltpFR	9	4	0	QUAIL	1147	n/a	n/a	0	n/a	0	0	0	n/a	n/a	n/a	n/a	n/a
90984373	REC_WORD	wordpools/wasnorm_wordpool.txt	LTP100	ltpFR	9	4	1	SALAD	1224	n/a	n/a	0	n/a	0	0	0	n/a	n/a	n/a	n/a	n/a
90986727	REC_WORD	wordpools/wasnorm_wordpool.txt	LTP100	ltpFR	9	4	1	GALAXY	617	n/a	n/a	0	n/a	0	0	0	n/a	n/a	n/a	n/a	n/a
90988678	REC_WORD	wordpools/wasnorm_wordpool.txt	LTP100	ltpFR	9	4	1	CHEESE	289	n/a	n/a	0	n/a	0	0	0	n/a	n/a	n/a	n/a	n/a
90997014	REC_WORD	wordpools/wasnorm_wordpool.txt	LTP100	ltpFR	9	4	0	FISH	571	n/a	n/a	0	n/a	0	0	0	n/a	n/a	n/a	n/a	n/a
91005530	REC_WORD	wordpools/wasnorm_wordpool.txt	LTP100	ltpFR	9	4	1	ELK	526	n/a	n/a	1	n/a	0	0	0	n/a	n/a	n/a	n/a	n/a
91031920	REC_WORD	wordpools/wasnorm_wordpool.txt	LTP100	ltpFR	9	4	1	MESSAGE	888	n/a	n/a	0	n/a	0	0	0	n/a	n/a	n/a	n/a	n/a
91037926	REC_WORD_VV	wordpools/wasnorm_wordpool.txt	LTP100	ltpFR	9	4	n/a	<>	-1	n/a	n/a	n/a	n/a	0	0	0	n/a	n/a	n/a	n/a	n/a
91038549	REC_WORD	wordpools/wasnorm_wordpool.txt	LTP100	ltpFR	9	4	1	ADULT	8	n/a	n/a	1	n/a	0	0	0	n/a	n/a	n/a	n/a	n/a
91054852	WORD	wordpools/wasnorm_wordpool.txt	LTP100	ltpFR	9	5	1	LAUNDRY	803	n/a	n/a	0	n/a	0	0	0	0.422607421875	0.5869140625	0	lower	amplitud.ttf
91058714	WORD	wordpools/wasnorm_wordpool.txt	LTP100	ltpFR	9	5	1	SHIRT	1287	n/a	n/a	0	n/a	0	0	0	0.422607421875	0.5869140625	0	lower	amplitud.ttf
91062643	WORD	wordpools/wasnorm_wordpool.txt	LTP100	ltpFR	9	5	1	MAID	856	n/a	n/a	1	n/a	0	0	0	0.422607421875	0.5869140625	0	lower	amplitud.ttf
91066714	WORD	wordpools/wasnorm_wordpool.txt	LTP100	ltpFR	9	5	1	LIEUTENANT	818	n/a	n/a	1	n/a	0	0	0	0.422607421875	0.5869140625	0	lower	amplitud.ttf
91070825	WORD	wordpools/wasnorm_wordpool.txt	LTP100	ltpFR	9	5	1	REEF	1177	n/a	n/a	0	n/a	0	0	0	0.422607421875	0.5869140625	0	lower	amplitud.ttf
91074904	WORD	wordpools/wasnorm_wordpool.txt	LTP100	ltpFR	9	5	0	MAJOR	859	n/a	n/a	0	n/a	0	0	0	0.57763671875	0.412841796875	1	upper	zerothre.ttf
91078941	WORD	wordpools/wasnorm_wordpool.txt	LTP100	ltpFR	9	5	0	POLICE	1098	n/a	n/a	1	n/a	0	0	0	0.57763671875	0.412841796875	1	upper	zerothre.ttf
91082803	WORD	wordpools/wasnorm_wordpool.txt	LTP100	ltpFR	9	5	0	BUCKET	184	n/a	n/a	1	n/a	0	0	0	0.57763671875	0.412841796875	1	upper	zerothre.ttf
91086715	WORD	wordpools/wasnorm_wordpool.txt	LTP100	ltpFR	9	5	0	HERD	705	n/a	n/a	1	n/a	0	0	0	0.57763671875	0.412841796875	1	upper	zerothre.ttf
91090727	WORD	wordpools/wasnorm_wordpool.txt	LTP100	ltpFR	9	5	0	OX	994	n/a	n/a	1	n/a	0	0	0	0.57763671875	0.412841796875	1	upper	zerothre.ttf
91094614	WORD	wordpools/wasnorm_wordpool.txt	LTP100	ltpFR	9	5	1	ATTIRE	57	n/a	n/a	0	n/a	0	0	0	0.422607421875	0.5869140625	0	lower	amplitud.ttf
91098576	WORD	wordpools/wasnorm_wordpool.txt	LTP100	ltpFR	9	5	1	METEOR	889	n/a	n/a	1	n/a	0	0	0	0.422607421875	0.5869140625	0	lower	amplitud.ttf
91102713	WORD	wordpools/wasnorm_wordpool.txt	LTP100	ltpFR	9	5	1	HALL	677	n/a	n/a	0	n/a	0	0	0	0.422607421875	0.5869140625	0	lower	amplitud.ttf
91106700	WORD	wordpools/wasnorm_wordpool.txt	LTP100	ltpFR	9	5	0	KNOB	787	n/a	n/a	0	n/a	0	0	0	0.57763671875	0.412841796875	1	upper	zerothre.ttf
91110721	WORD	wordpools/wasnorm_wordpool.txt	LTP100	ltpFR	9	5	0	KEYBOARD	774	n/a	n/a	0	n/a	0	0	0	0.57763671875	0.412841796875	1	upper	zerothre.ttf
91114858	WORD	wordpools/wasnorm_wordpool.txt	LTP100	ltpFR	9	5	0	STRING	1394	n/a	n/a	0	n/a	0	0	0	0.57763671875	0.412841796875	1	upper	zerothre.ttf
91117863	START	n/a	LTP100	ltpFR	9	n/a	n/a	n/a	n/a	n/a	n/a	n/a	n/a	n/a	n/a	n/a	n/a	n/a	n/a	n/a	n/a
91118953	PROB	n/a	LTP100	ltpFR	9	n/a	n/a	n/a	n/a	n/a	n/a	n/a	22	7	7	8	n/a	n/a	n/a	n/a	n/a
91120734	PROB	n/a	LTP100	ltpFR	9	n/a	n/a	n/a	n/a	n/a	n/a	n/a	9	6	1	2	n/a	n/a	n/a	n/a	n/a
91123597	PROB	n/a	LTP100	ltpFR	9	n/a	n/a	n/a	n/a	n/a	n/a	n/a	5	1	2	2	n/a	n/a	n/a	n/a	n/a
91124698	STOP	n/a	LTP100	ltpFR	9	n/a	n/a	n/a	n/a	n/a	n/a	n/a	n/a	n/a	n/a	n/a	n/a	n/a	n/a	n/a	n/a
91127769	REC_START	n/a	LTP100	ltpFR	9	5	n/a	n/a	n/a	n/a	n/a	n/a	n/a	0	0	0	n/a	n/a	n/a	n/a	n/a
91132850	REC_WORD	wordpools/wasnorm_wordpool.txt	LTP100	ltpFR	9	5	0	HERD	705	n/a	n/a	1	n/a	0	0	0	n/a	n/a	n/a	n/a	n/a
91133559	REC_WORD	wordpools/wasnorm_wordpool.txt	LTP100	ltpFR	9	5	0	OX	994	n/a	n/a	1	n/a	0	0	0	n/a	n/a	n/a	n/a	n/a
91134269	REC_WORD	wordpools/wasnorm_wordpool.txt	LTP100	ltpFR	9	5	0	KEYBOARD	774	n/a	n/a	0	n/a	0	0	0	n/a	n/a	n/a	n/a	n/a
91137841	REC_WORD	wordpools/wasnorm_wordpool.txt	LTP100	ltpFR	9	5	1	LIEUTENANT	818	n/a	n/a	1	n/a	0	0	0	n/a	n/a	n/a	n/a	n/a
91153655	REC_WORD	wordpools/wasnorm_wordpool.txt	LTP100	ltpFR	9	5	1	METEOR	889	n/a	n/a	1	n/a	0	0	0	n/a	n/a	n/a	n/a	n/a
91205345	START	n/a	LTP100	ltpFR	9	n/a	n/a	n/a	n/a	n/a	n/a	n/a	n/a	n/a	n/a	n/a	n/a	n/a	n/a	n/a	n/a
91206851	PROB	n/a	LTP100	ltpFR	9	n/a	n/a	n/a	n/a	n/a	n/a	n/a	12	3	3	6	n/a	n/a	n/a	n/a	n/a
91208507	PROB	n/a	LTP100	ltpFR	9	n/a	n/a	n/a	n/a	n/a	n/a	n/a	18	1	8	9	n/a	n/a	n/a	n/a	n/a
91210005	PROB	n/a	LTP100	ltpFR	9	n/a	n/a	n/a	n/a	n/a	n/a	n/a	20	9	9	2	n/a	n/a	n/a	n/a	n/a
91211237	PROB	n/a	LTP100	ltpFR	9	n/a	n/a	n/a	n/a	n/a	n/a	n/a	19	2	8	9	n/a	n/a	n/a	n/a	n/a
91212586	PROB	n/a	LTP100	ltpFR	9	n/a	n/a	n/a	n/a	n/a	n/a	n/a	13	5	6	2	n/a	n/a	n/a	n/a	n/a
91213917	PROB	n/a	LTP100	ltpFR	9	n/a	n/a	n/a	n/a	n/a	n/a	n/a	14	6	3	5	n/a	n/a	n/a	n/a	n/a
91215682	PROB	n/a	LTP100	ltpFR	9	n/a	n/a	n/a	n/a	n/a	n/a	n/a	20	3	8	9	n/a	n/a	n/a	n/a	n/a
91217339	PROB	n/a	LTP100	ltpFR	9	n/a	n/a	n/a	n/a	n/a	n/a	n/a	8	6	1	1	n/a	n/a	n/a	n/a	n/a
91218828	PROB	n/a	LTP100	ltpFR	9	n/a	n/a	n/a	n/a	n/a	n/a	n/a	10	3	2	5	n/a	n/a	n/a	n/a	n/a
91220730	STOP	n/a	LTP100	ltpFR	9	n/a	n/a	n/a	n/a	n/a	n/a	n/a	n/a	n/a	n/a	n/a	n/a	n/a	n/a	n/a	n/a
91222416	WORD	wordpools/wasnorm_wordpool.txt	LTP100	ltpFR	9	6	0	CRUMB	416	n/a	n/a	0	n/a	0	0	0	0.57763671875	0.412841796875	1	upper	zerothre.ttf
91225421	START	n/a	LTP100	ltpFR	9	n/a	n/a	n/a	n/a	n/a	n/a	n/a	n/a	n/a	n/a	n/a	n/a	n/a	n/a	n/a	n/a
91226395	PROB	n/a	LTP100	ltpFR	9	n/a	n/a	n/a	n/a	n/a	n/a	n/a	12	4	4	4	n/a	n/a	n/a	n/a	n/a
91227843	PROB	n/a	LTP100	ltpFR	9	n/a	n/a	n/a	n/a	n/a	n/a	n/a	7	4	1	2	n/a	n/a	n/a	n/a	n/a
91229483	PROB	n/a	LTP100	ltpFR	9	n/a	n/a	n/a	n/a	n/a	n/a	n/a	18	5	4	9	n/a	n/a	n/a	n/a	n/a
91230956	PROB	n/a	LTP100	ltpFR	9	n/a	n/a	n/a	n/a	n/a	n/a	n/a	19	1	9	9	n/a	n/a	n/a	n/a	n/a
91232521	PROB	n/a	LTP100	ltpFR	9	n/a	n/a	n/a	n/a	n/a	n/a	n/a	18	8	7	3	n/a	n/a	n/a	n/a	n/a
91234369	PROB	n/a	LTP100	ltpFR	9	n/a	n/a	n/a	n/a	n/a	n/a	n/a	19	8	8	3	n/a	n/a	n/a	n/a	n/a
91236333	PROB	n/a	LTP100	ltpFR	9	n/a	n/a	n/a	n/a	n/a	n/a	n/a	16	6	5	5	n/a	n/a	n/a	n/a	n/a
91237940	PROB	n/a	LTP100	ltpFR	9	n/a	n/a	n/a	n/a	n/a	n/a	n/a	23	8	6	9	n/a	n/a	n/a	n/a	n/a
91241421	STOP	n/a	LTP100	ltpFR	9	n/a	n/a	n/a	n/a	n/a	n/a	n/a	n/a	n/a	n/a	n/a	n/a	n/a	n/a	n/a	n/a
91242501	WORD	wordpools/wasnorm_wordpool.txt	LTP100	ltpFR	9	6	0	PAN	1008	n/a	n/a	1	n/a	0	0	0	0.57763671875	0.412841796875	1	upper	zerothre.ttf
91245506	START	n/a	LTP100	ltpFR	9	n/a	n/a	n/a	n/a	n/a	n/a	n/a	n/a	n/a	n/a	n/a	n/a	n/a	n/a	n/a	n/a
91246480	PROB	n/a	LTP100	ltpFR	9	n/a	n/a	n/a	n/a	n/a	n/a	n/a	22	8	6	8	n/a	n/a	n/a	n/a	n/a
91248328	PROB	n/a	LTP100	ltpFR	9	n/a	n/a	n/a	n/a	n/a	n/a	n/a	18	9	8	1	n/a	n/a	n/a	n/a	n/a
91250117	PROB	n/a	LTP100	ltpFR	9	n/a	n/a	n/a	n/a	n/a	n/a	n/a	19	8	4	7	n/a	n/a	n/a	n/a	n/a
91251724	PROB	n/a	LTP100	ltpFR	9	n/a	n/a	n/a	n/a	n/a	n/a	n/a	23	7	8	8	n/a	n/a	n/a	n/a	n/a
91254579	PROB	n/a	LTP100	ltpFR	9	n/a	n/a	n/a	n/a	n/a	n/a	n/a	16	6	6	3	n/a	n/a	n/a	n/a	n/a
91256210	PROB	n/a	LTP100	ltpFR	9	n/a	n/a	n/a	n/a	n/a	n/a	n/a	14	7	6	1	n/a	n/a	n/a	n/a	n/a
91258482	PROB	n/a	LTP100	ltpFR	9	n/a	n/a	n/a	n/a	n/a	n/a	n/a	13	2	3	8	n/a	n/a	n/a	n/a	n/a
91260282	STOP	n/a	LTP100	ltpFR	9	n/a	n/a	n/a	n/a	n/a	n/a	n/a	n/a	n/a	n/a	n/a	n/a	n/a	n/a	n/a	n/a
91262544	WORD	wordpools/wasnorm_wordpool.txt	LTP100	ltpFR	9	6	0	FREEWAY	603	n/a	n/a	1	n/a	0	0	0	0.57763671875	0.412841796875	1	upper	zerothre.ttf
91265550	START	n/a	LTP100	ltpFR	9	n/a	n/a	n/a	n/a	n/a	n/a	n/a	n/a	n/a	n/a	n/a	n/a	n/a	n/a	n/a	n/a
91266515	PROB	n/a	LTP100	ltpFR	9	n/a	n/a	n/a	n/a	n/a	n/a	n/a	11	5	1	5	n/a	n/a	n/a	n/a	n/a
91267597	PROB	n/a	LTP100	ltpFR	9	n/a	n/a	n/a	n/a	n/a	n/a	n/a	15	6	2	7	n/a	n/a	n/a	n/a	n/a
91269436	PROB	n/a	LTP100	ltpFR	9	n/a	n/a	n/a	n/a	n/a	n/a	n/a	16	4	8	4	n/a	n/a	n/a	n/a	n/a
91272882	PROB	n/a	LTP100	ltpFR	9	n/a	n/a	n/a	n/a	n/a	n/a	n/a	19	8	5	6	n/a	n/a	n/a	n/a	n/a
91274797	PROB	n/a	LTP100	ltpFR	9	n/a	n/a	n/a	n/a	n/a	n/a	n/a	16	2	9	5	n/a	n/a	n/a	n/a	n/a
91276179	PROB	n/a	LTP100	ltpFR	9	n/a	n/a	n/a	n/a	n/a	n/a	n/a	10	5	4	1	n/a	n/a	n/a	n/a	n/a
91277369	PROB	n/a	LTP100	ltpFR	9	n/a	n/a	n/a	n/a	n/a	n/a	n/a	13	7	2	4	n/a	n/a	n/a	n/a	n/a
91279608	PROB	n/a	LTP100	ltpFR	9	n/a	n/a	n/a	n/a	n/a	n/a	n/a	17	9	1	7	n/a	n/a	n/a	n/a	n/a
91280802	STOP	n/a	LTP100	ltpFR	9	n/a	n/a	n/a	n/a	n/a	n/a	n/a	n/a	n/a	n/a	n/a	n/a	n/a	n/a	n/a	n/a
91282571	WORD	wordpools/wasnorm_wordpool.txt	LTP100	ltpFR	9	6	0	CHISEL	305	n/a	n/a	0	n/a	0	0	0	0.57763671875	0.412841796875	1	upper	zerothre.ttf
91285576	START	n/a	LTP100	ltpFR	9	n/a	n/a	n/a	n/a	n/a	n/a	n/a	n/a	n/a	n/a	n/a	n/a	n/a	n/a	n/a	n/a
91286600	PROB	n/a	LTP100	ltpFR	9	n/a	n/a	n/a	n/a	n/a	n/a	n/a	20	6	9	5	n/a	n/a	n/a	n/a	n/a
91288256	PROB	n/a	LTP100	ltpFR	9	n/a	n/a	n/a	n/a	n/a	n/a	n/a	15	6	5	4	n/a	n/a	n/a	n/a	n/a
91291361	PROB	n/a	LTP100	ltpFR	9	n/a	n/a	n/a	n/a	n/a	n/a	n/a	20	8	8	4	n/a	n/a	n/a	n/a	n/a
91293725	PROB	n/a	LTP100	ltpFR	9	n/a	n/a	n/a	n/a	n/a	n/a	n/a	15	5	7	3	n/a	n/a	n/a	n/a	n/a
91295531	PROB	n/a	LTP100	ltpFR	9	n/a	n/a	n/a	n/a	n/a	n/a	n/a	16	2	6	8	n/a	n/a	n/a	n/a	n/a
91297129	PROB	n/a	LTP100	ltpFR	9	n/a	n/a	n/a	n/a	n/a	n/a	n/a	15	4	2	9	n/a	n/a	n/a	n/a	n/a
91298636	PROB	n/a	LTP100	ltpFR	9	n/a	n/a	n/a	n/a	n/a	n/a	n/a	16	4	5	7	n/a	n/a	n/a	n/a	n/a
91301576	STOP	n/a	LTP100	ltpFR	9	n/a	n/a	n/a	n/a	n/a	n/a	n/a	n/a	n/a	n/a	n/a	n/a	n/a	n/a	n/a	n/a
91302573	WORD	wordpools/wasnorm_wordpool.txt	LTP100	ltpFR	9	6	0	POTATO	1115	n/a	n/a	0	n/a	0	0	0	0.57763671875	0.412841796875	1	upper	zerothre.ttf
91305578	START	n/a	LTP100	ltpFR	9	n/a	n/a	n/a	n/a	n/a	n/a	n/a	n/a	n/a	n/a	n/a	n/a	n/a	n/a	n/a	n/a
91306560	PROB	n/a	LTP100	ltpFR	9	n/a	n/a	n/a	n/a	n/a	n/a	n/a	6	3	2	1	n/a	n/a	n/a	n/a	n/a
91307567	PROB	n/a	LTP100	ltpFR	9	n/a	n/a	n/a	n/a	n/a	n/a	n/a	15	6	6	3	n/a	n/a	n/a	n/a	n/a
91308916	PROB	n/a	LTP100	ltpFR	9	n/a	n/a	n/a	n/a	n/a	n/a	n/a	11	1	5	5	n/a	n/a	n/a	n/a	n/a
91310289	PROB	n/a	LTP100	ltpFR	9	n/a	n/a	n/a	n/a	n/a	n/a	n/a	17	5	4	8	n/a	n/a	n/a	n/a	n/a
91311829	PROB	n/a	LTP100	ltpFR	9	n/a	n/a	n/a	n/a	n/a	n/a	n/a	26	9	9	8	n/a	n/a	n/a	n/a	n/a
91314517	PROB	n/a	LTP100	ltpFR	9	n/a	n/a	n/a	n/a	n/a	n/a	n/a	12	3	3	6	n/a	n/a	n/a	n/a	n/a
91315891	PROB	n/a	LTP100	ltpFR	9	n/a	n/a	n/a	n/a	n/a	n/a	n/a	17	1	7	9	n/a	n/a	n/a	n/a	n/a
91317947	PROB	n/a	LTP100	ltpFR	9	n/a	n/a	n/a	n/a	n/a	n/a	n/a	11	1	2	8	n/a	n/a	n/a	n/a	n/a
91321578	STOP	n/a	LTP100	ltpFR	9	n/a	n/a	n/a	n/a	n/a	n/a	n/a	n/a	n/a	n/a	n/a	n/a	n/a	n/a	n/a	n/a
91322675	WORD	wordpools/wasnorm_wordpool.txt	LTP100	ltpFR	9	6	0	WHISKERS	1605	n/a	n/a	0	n/a	0	0	0	0.57763671875	0.412841796875	1	upper	zerothre.ttf
91325680	START	n/a	LTP100	ltpFR	9	n/a	n/a	n/a	n/a	n/a	n/a	n/a	n/a	n/a	n/a	n/a	n/a	n/a	n/a	n/a	n/a
91326587	PROB	n/a	LTP100	ltpFR	9	n/a	n/a	n/a	n/a	n/a	n/a	n/a	8	6	1	1	n/a	n/a	n/a	n/a	n/a
91327719	PROB	n/a	LTP100	ltpFR	9	n/a	n/a	n/a	n/a	n/a	n/a	n/a	21	5	7	9	n/a	n/a	n/a	n/a	n/a
91329350	PROB	n/a	LTP100	ltpFR	9	n/a	n/a	n/a	n/a	n/a	n/a	n/a	17	1	7	9	n/a	n/a	n/a	n/a	n/a
91331140	PROB	n/a	LTP100	ltpFR	9	n/a	n/a	n/a	n/a	n/a	n/a	n/a	10	3	4	3	n/a	n/a	n/a	n/a	n/a
91333246	PROB	n/a	LTP100	ltpFR	9	n/a	n/a	n/a	n/a	n/a	n/a	n/a	19	8	2	9	n/a	n/a	n/a	n/a	n/a
91334827	PROB	n/a	LTP100	ltpFR	9	n/a	n/a	n/a	n/a	n/a	n/a	n/a	10	6	2	2	n/a	n/a	n/a	n/a	n/a
91336458	PROB	n/a	LTP100	ltpFR	9	n/a	n/a	n/a	n/a	n/a	n/a	n/a	20	4	7	9	n/a	n/a	n/a	n/a	n/a
91338048	PROB	n/a	LTP100	ltpFR	9	n/a	n/a	n/a	n/a	n/a	n/a	n/a	19	9	6	4	n/a	n/a	n/a	n/a	n/a
91339730	PROB	n/a	LTP100	ltpFR	9	n/a	n/a	n/a	n/a	n/a	n/a	n/a	11	4	6	1	n/a	n/a	n/a	n/a	n/a
91340994	STOP	n/a	LTP100	ltpFR	9	n/a	n/a	n/a	n/a	n/a	n/a	n/a	n/a	n/a	n/a	n/a	n/a	n/a	n/a	n/a	n/a
91342518	WORD	wordpools/wasnorm_wordpool.txt	LTP100	ltpFR	9	6	0	SUGAR	1401	n/a	n/a	0	n/a	0	0	0	0.57763671875	0.412841796875	1	upper	zerothre.ttf
91345523	START	n/a	LTP100	ltpFR	9	n/a	n/a	n/a	n/a	n/a	n/a	n/a	n/a	n/a	n/a	n/a	n/a	n/a	n/a	n/a	n/a
91346597	PROB	n/a	LTP100	ltpFR	9	n/a	n/a	n/a	n/a	n/a	n/a	n/a	8	3	2	3	n/a	n/a	n/a	n/a	n/a
91348594	PROB	n/a	LTP100	ltpFR	9	n/a	n/a	n/a	n/a	n/a	n/a	n/a	15	2	6	7	n/a	n/a	n/a	n/a	n/a
91350650	PROB	n/a	LTP100	ltpFR	9	n/a	n/a	n/a	n/a	n/a	n/a	n/a	10	1	8	1	n/a	n/a	n/a	n/a	n/a
91351799	PROB	n/a	LTP100	ltpFR	9	n/a	n/a	n/a	n/a	n/a	n/a	n/a	6	1	4	1	n/a	n/a	n/a	n/a	n/a
91353206	PROB	n/a	LTP100	ltpFR	9	n/a	n/a	n/a	n/a	n/a	n/a	n/a	16	6	5	5	n/a	n/a	n/a	n/a	n/a
91355112	PROB	n/a	LTP100	ltpFR	9	n/a	n/a	n/a	n/a	n/a	n/a	n/a	20	9	6	5	n/a	n/a	n/a	n/a	n/a
91357043	PROB	n/a	LTP100	ltpFR	9	n/a	n/a	n/a	n/a	n/a	n/a	n/a	23	7	9	7	n/a	n/a	n/a	n/a	n/a
91359623	PROB	n/a	LTP100	ltpFR	9	n/a	n/a	n/a	n/a	n/a	n/a	n/a	10	2	2	6	n/a	n/a	n/a	n/a	n/a
91360826	STOP	n/a	LTP100	ltpFR	9	n/a	n/a	n/a	n/a	n/a	n/a	n/a	n/a	n/a	n/a	n/a	n/a	n/a	n/a	n/a	n/a
91362378	WORD	wordpools/wasnorm_wordpool.txt	LTP100	ltpFR	9	6	0	VINEGAR	1569	n/a	n/a	0	n/a	0	0	0	0.57763671875	0.412841796875	1	upper	zerothre.ttf
91365384	START	n/a	LTP100	ltpFR	9	n/a	n/a	n/a	n/a	n/a	n/a	n/a	n/a	n/a	n/a	n/a	n/a	n/a	n/a	n/a	n/a
91366340	PROB	n/a	LTP100	ltpFR	9	n/a	n/a	n/a	n/a	n/a	n/a	n/a	8	3	3	2	n/a	n/a	n/a	n/a	n/a
91367681	PROB	n/a	LTP100	ltpFR	9	n/a	n/a	n/a	n/a	n/a	n/a	n/a	10	3	2	5	n/a	n/a	n/a	n/a	n/a
91369512	PROB	n/a	LTP100	ltpFR	9	n/a	n/a	n/a	n/a	n/a	n/a	n/a	10	4	2	4	n/a	n/a	n/a	n/a	n/a
91371934	PROB	n/a	LTP100	ltpFR	9	n/a	n/a	n/a	n/a	n/a	n/a	n/a	22	7	8	7	n/a	n/a	n/a	n/a	n/a
91373774	PROB	n/a	LTP100	ltpFR	9	n/a	n/a	n/a	n/a	n/a	n/a	n/a	15	4	9	2	n/a	n/a	n/a	n/a	n/a
91375230	PROB	n/a	LTP100	ltpFR	9	n/a	n/a	n/a	n/a	n/a	n/a	n/a	8	1	5	2	n/a	n/a	n/a	n/a	n/a
91377011	PROB	n/a	LTP100	ltpFR	9	n/a	n/a	n/a	n/a	n/a	n/a	n/a	21	7	6	8	n/a	n/a	n/a	n/a	n/a
91378543	PROB	n/a	LTP100	ltpFR	9	n/a	n/a	n/a	n/a	n/a	n/a	n/a	20	7	4	9	n/a	n/a	n/a	n/a	n/a
91380546	STOP	n/a	LTP100	ltpFR	9	n/a	n/a	n/a	n/a	n/a	n/a	n/a	n/a	n/a	n/a	n/a	n/a	n/a	n/a	n/a	n/a
91382322	WORD	wordpools/wasnorm_wordpool.txt	LTP100	ltpFR	9	6	0	TABLE	1426	n/a	n/a	1	n/a	0	0	0	0.57763671875	0.412841796875	1	upper	zerothre.ttf
91385327	START	n/a	LTP100	ltpFR	9	n/a	n/a	n/a	n/a	n/a	n/a	n/a	n/a	n/a	n/a	n/a	n/a	n/a	n/a	n/a	n/a
91386167	PROB	n/a	LTP100	ltpFR	9	n/a	n/a	n/a	n/a	n/a	n/a	n/a	7	3	2	2	n/a	n/a	n/a	n/a	n/a
91387932	PROB	n/a	LTP100	ltpFR	9	n/a	n/a	n/a	n/a	n/a	n/a	n/a	15	6	2	7	n/a	n/a	n/a	n/a	n/a
91389439	PROB	n/a	LTP100	ltpFR	9	n/a	n/a	n/a	n/a	n/a	n/a	n/a	16	5	7	4	n/a	n/a	n/a	n/a	n/a
91390870	PROB	n/a	LTP100	ltpFR	9	n/a	n/a	n/a	n/a	n/a	n/a	n/a	9	4	1	4	n/a	n/a	n/a	n/a	n/a
91392560	PROB	n/a	LTP100	ltpFR	9	n/a	n/a	n/a	n/a	n/a	n/a	n/a	12	3	6	3	n/a	n/a	n/a	n/a	n/a
91394208	PROB	n/a	LTP100	ltpFR	9	n/a	n/a	n/a	n/a	n/a	n/a	n/a	1	2	4	7	n/a	n/a	n/a	n/a	n/a
91395798	PROB	n/a	LTP100	ltpFR	9	n/a	n/a	n/a	n/a	n/a	n/a	n/a	20	8	4	8	n/a	n/a	n/a	n/a	n/a
91398919	PROB	n/a	LTP100	ltpFR	9	n/a	n/a	n/a	n/a	n/a	n/a	n/a	13	2	2	9	n/a	n/a	n/a	n/a	n/a
91400874	STOP	n/a	LTP100	ltpFR	9	n/a	n/a	n/a	n/a	n/a	n/a	n/a	n/a	n/a	n/a	n/a	n/a	n/a	n/a	n/a	n/a
91402199	WORD	wordpools/wasnorm_wordpool.txt	LTP100	ltpFR	9	6	0	BUREAU	199	n/a	n/a	1	n/a	0	0	0	0.57763671875	0.412841796875	1	upper	zerothre.ttf
91405204	START	n/a	LTP100	ltpFR	9	n/a	n/a	n/a	n/a	n/a	n/a	n/a	n/a	n/a	n/a	n/a	n/a	n/a	n/a	n/a	n/a
91406044	PROB	n/a	LTP100	ltpFR	9	n/a	n/a	n/a	n/a	n/a	n/a	n/a	16	7	2	7	n/a	n/a	n/a	n/a	n/a
91407476	PROB	n/a	LTP100	ltpFR	9	n/a	n/a	n/a	n/a	n/a	n/a	n/a	13	5	7	1	n/a	n/a	n/a	n/a	n/a
91408741	PROB	n/a	LTP100	ltpFR	9	n/a	n/a	n/a	n/a	n/a	n/a	n/a	20	6	6	8	n/a	n/a	n/a	n/a	n/a
91410781	PROB	n/a	LTP100	ltpFR	9	n/a	n/a	n/a	n/a	n/a	n/a	n/a	12	5	4	3	n/a	n/a	n/a	n/a	n/a
91413194	PROB	n/a	LTP100	ltpFR	9	n/a	n/a	n/a	n/a	n/a	n/a	n/a	24	8	8	8	n/a	n/a	n/a	n/a	n/a
91414909	PROB	n/a	LTP100	ltpFR	9	n/a	n/a	n/a	n/a	n/a	n/a	n/a	19	5	6	8	n/a	n/a	n/a	n/a	n/a
91417614	PROB	n/a	LTP100	ltpFR	9	n/a	n/a	n/a	n/a	n/a	n/a	n/a	17	1	9	7	n/a	n/a	n/a	n/a	n/a
91418904	PROB	n/a	LTP100	ltpFR	9	n/a	n/a	n/a	n/a	n/a	n/a	n/a	11	1	5	5	n/a	n/a	n/a	n/a	n/a
91419794	STOP	n/a	LTP100	ltpFR	9	n/a	n/a	n/a	n/a	n/a	n/a	n/a	n/a	n/a	n/a	n/a	n/a	n/a	n/a	n/a	n/a
91422209	WORD	wordpools/wasnorm_wordpool.txt	LTP100	ltpFR	9	6	0	STRANGER	1389	n/a	n/a	1	n/a	0	0	0	0.57763671875	0.412841796875	1	upper	zerothre.ttf
91425214	START	n/a	LTP100	ltpFR	9	n/a	n/a	n/a	n/a	n/a	n/a	n/a	n/a	n/a	n/a	n/a	n/a	n/a	n/a	n/a	n/a
91426113	PROB	n/a	LTP100	ltpFR	9	n/a	n/a	n/a	n/a	n/a	n/a	n/a	15	5	3	7	n/a	n/a	n/a	n/a	n/a
91427619	PROB	n/a	LTP100	ltpFR	9	n/a	n/a	n/a	n/a	n/a	n/a	n/a	11	1	6	4	n/a	n/a	n/a	n/a	n/a
91429625	PROB	n/a	LTP100	ltpFR	9	n/a	n/a	n/a	n/a	n/a	n/a	n/a	10	2	1	7	n/a	n/a	n/a	n/a	n/a
91431173	PROB	n/a	LTP100	ltpFR	9	n/a	n/a	n/a	n/a	n/a	n/a	n/a	16	4	8	4	n/a	n/a	n/a	n/a	n/a
91432946	PROB	n/a	LTP100	ltpFR	9	n/a	n/a	n/a	n/a	n/a	n/a	n/a	21	9	6	6	n/a	n/a	n/a	n/a	n/a
91434578	PROB	n/a	LTP100	ltpFR	9	n/a	n/a	n/a	n/a	n/a	n/a	n/a	21	9	9	3	n/a	n/a	n/a	n/a	n/a
91435918	PROB	n/a	LTP100	ltpFR	9	n/a	n/a	n/a	n/a	n/a	n/a	n/a	18	2	8	8	n/a	n/a	n/a	n/a	n/a
91437966	PROB	n/a	LTP100	ltpFR	9	n/a	n/a	n/a	n/a	n/a	n/a	n/a	8	3	3	2	n/a	n/a	n/a	n/a	n/a
91439555	PROB	n/a	LTP100	ltpFR	9	n/a	n/a	n/a	n/a	n/a	n/a	n/a	15	9	5	1	n/a	n/a	n/a	n/a	n/a
91441026	STOP	n/a	LTP100	ltpFR	9	n/a	n/a	n/a	n/a	n/a	n/a	n/a	n/a	n/a	n/a	n/a	n/a	n/a	n/a	n/a	n/a
91442360	WORD	wordpools/wasnorm_wordpool.txt	LTP100	ltpFR	9	6	0	LILY	821	n/a	n/a	0	n/a	0	0	0	0.57763671875	0.412841796875	1	upper	zerothre.ttf
91445366	START	n/a	LTP100	ltpFR	9	n/a	n/a	n/a	n/a	n/a	n/a	n/a	n/a	n/a	n/a	n/a	n/a	n/a	n/a	n/a	n/a
91446181	PROB	n/a	LTP100	ltpFR	9	n/a	n/a	n/a	n/a	n/a	n/a	n/a	17	4	9	4	n/a	n/a	n/a	n/a	n/a
91447912	PROB	n/a	LTP100	ltpFR	9	n/a	n/a	n/a	n/a	n/a	n/a	n/a	20	8	5	7	n/a	n/a	n/a	n/a	n/a
91449802	PROB	n/a	LTP100	ltpFR	9	n/a	n/a	n/a	n/a	n/a	n/a	n/a	14	3	2	9	n/a	n/a	n/a	n/a	n/a
91451358	PROB	n/a	LTP100	ltpFR	9	n/a	n/a	n/a	n/a	n/a	n/a	n/a	8	1	4	3	n/a	n/a	n/a	n/a	n/a
91452707	PROB	n/a	LTP100	ltpFR	9	n/a	n/a	n/a	n/a	n/a	n/a	n/a	20	5	6	9	n/a	n/a	n/a	n/a	n/a
91454613	PROB	n/a	LTP100	ltpFR	9	n/a	n/a	n/a	n/a	n/a	n/a	n/a	9	1	1	7	n/a	n/a	n/a	n/a	n/a
91455878	PROB	n/a	LTP100	ltpFR	9	n/a	n/a	n/a	n/a	n/a	n/a	n/a	17	6	3	8	n/a	n/a	n/a	n/a	n/a
91457801	PROB	n/a	LTP100	ltpFR	9	n/a	n/a	n/a	n/a	n/a	n/a	n/a	18	9	6	3	n/a	n/a	n/a	n/a	n/a
91459516	PROB	n/a	LTP100	ltpFR	9	n/a	n/a	n/a	n/a	n/a	n/a	n/a	15	7	2	6	n/a	n/a	n/a	n/a	n/a
91461106	STOP	n/a	LTP100	ltpFR	9	n/a	n/a	n/a	n/a	n/a	n/a	n/a	n/a	n/a	n/a	n/a	n/a	n/a	n/a	n/a	n/a
91462520	WORD	wordpools/wasnorm_wordpool.txt	LTP100	ltpFR	9	6	0	ORCHID	982	n/a	n/a	0	n/a	0	0	0	0.57763671875	0.412841796875	1	upper	zerothre.ttf
91465526	START	n/a	LTP100	ltpFR	9	n/a	n/a	n/a	n/a	n/a	n/a	n/a	n/a	n/a	n/a	n/a	n/a	n/a	n/a	n/a	n/a
91466524	PROB	n/a	LTP100	ltpFR	9	n/a	n/a	n/a	n/a	n/a	n/a	n/a	17	9	5	2	n/a	n/a	n/a	n/a	n/a
91468147	PROB	n/a	LTP100	ltpFR	9	n/a	n/a	n/a	n/a	n/a	n/a	n/a	19	8	9	2	n/a	n/a	n/a	n/a	n/a
91470519	PROB	n/a	LTP100	ltpFR	9	n/a	n/a	n/a	n/a	n/a	n/a	n/a	5	1	3	1	n/a	n/a	n/a	n/a	n/a
91471527	PROB	n/a	LTP100	ltpFR	9	n/a	n/a	n/a	n/a	n/a	n/a	n/a	19	6	5	8	n/a	n/a	n/a	n/a	n/a
91473325	PROB	n/a	LTP100	ltpFR	9	n/a	n/a	n/a	n/a	n/a	n/a	n/a	10	5	4	1	n/a	n/a	n/a	n/a	n/a
91474515	PROB	n/a	LTP100	ltpFR	9	n/a	n/a	n/a	n/a	n/a	n/a	n/a	13	9	1	3	n/a	n/a	n/a	n/a	n/a
91475748	PROB	n/a	LTP100	ltpFR	9	n/a	n/a	n/a	n/a	n/a	n/a	n/a	16	6	5	5	n/a	n/a	n/a	n/a	n/a
91477187	PROB	n/a	LTP100	ltpFR	9	n/a	n/a	n/a	n/a	n/a	n/a	n/a	16	5	2	9	n/a	n/a	n/a	n/a	n/a
91478618	PROB	n/a	LTP100	ltpFR	9	n/a	n/a	n/a	n/a	n/a	n/a	n/a	12	3	1	8	n/a	n/a	n/a	n/a	n/a
91480314	STOP	n/a	LTP100	ltpFR	9	n/a	n/a	n/a	n/a	n/a	n/a	n/a	n/a	n/a	n/a	n/a	n/a	n/a	n/a	n/a	n/a
91482464	WORD	wordpools/wasnorm_wordpool.txt	LTP100	ltpFR	9	6	0	HANGER	687	n/a	n/a	0	n/a	0	0	0	0.57763671875	0.412841796875	1	upper	zerothre.ttf
91485469	START	n/a	LTP100	ltpFR	9	n/a	n/a	n/a	n/a	n/a	n/a	n/a	n/a	n/a	n/a	n/a	n/a	n/a	n/a	n/a	n/a
91486493	PROB	n/a	LTP100	ltpFR	9	n/a	n/a	n/a	n/a	n/a	n/a	n/a	10	1	5	4	n/a	n/a	n/a	n/a	n/a
91487566	PROB	n/a	LTP100	ltpFR	9	n/a	n/a	n/a	n/a	n/a	n/a	n/a	15	5	2	8	n/a	n/a	n/a	n/a	n/a
91489148	PROB	n/a	LTP100	ltpFR	9	n/a	n/a	n/a	n/a	n/a	n/a	n/a	8	1	3	5	n/a	n/a	n/a	n/a	n/a
91490388	PROB	n/a	LTP100	ltpFR	9	n/a	n/a	n/a	n/a	n/a	n/a	n/a	15	8	3	4	n/a	n/a	n/a	n/a	n/a
91492419	PROB	n/a	LTP100	ltpFR	9	n/a	n/a	n/a	n/a	n/a	n/a	n/a	15	7	2	6	n/a	n/a	n/a	n/a	n/a
91493859	PROB	n/a	LTP100	ltpFR	9	n/a	n/a	n/a	n/a	n/a	n/a	n/a	18	4	9	5	n/a	n/a	n/a	n/a	n/a
91496264	PROB	n/a	LTP100	ltpFR	9	n/a	n/a	n/a	n/a	n/a	n/a	n/a	8	1	6	1	n/a	n/a	n/a	n/a	n/a
91497272	PROB	n/a	LTP100	ltpFR	9	n/a	n/a	n/a	n/a	n/a	n/a	n/a	24	9	8	7	n/a	n/a	n/a	n/a	n/a
91498945	PROB	n/a	LTP100	ltpFR	9	n/a	n/a	n/a	n/a	n/a	n/a	n/a	12	2	6	4	n/a	n/a	n/a	n/a	n/a
91500658	STOP	n/a	LTP100	ltpFR	9	n/a	n/a	n/a	n/a	n/a	n/a	n/a	n/a	n/a	n/a	n/a	n/a	n/a	n/a	n/a	n/a
91502424	WORD	wordpools/wasnorm_wordpool.txt	LTP100	ltpFR	9	6	0	WRENCH	1625	n/a	n/a	0	n/a	0	0	0	0.57763671875	0.412841796875	1	upper	zerothre.ttf
91505429	START	n/a	LTP100	ltpFR	9	n/a	n/a	n/a	n/a	n/a	n/a	n/a	n/a	n/a	n/a	n/a	n/a	n/a	n/a	n/a	n/a
91506369	PROB	n/a	LTP100	ltpFR	9	n/a	n/a	n/a	n/a	n/a	n/a	n/a	16	8	4	4	n/a	n/a	n/a	n/a	n/a
91507951	PROB	n/a	LTP100	ltpFR	9	n/a	n/a	n/a	n/a	n/a	n/a	n/a	18	2	7	9	n/a	n/a	n/a	n/a	n/a
91509716	PROB	n/a	LTP100	ltpFR	9	n/a	n/a	n/a	n/a	n/a	n/a	n/a	19	5	9	5	n/a	n/a	n/a	n/a	n/a
91511447	PROB	n/a	LTP100	ltpFR	9	n/a	n/a	n/a	n/a	n/a	n/a	n/a	24	7	9	8	n/a	n/a	n/a	n/a	n/a
91514260	PROB	n/a	LTP100	ltpFR	9	n/a	n/a	n/a	n/a	n/a	n/a	n/a	11	5	1	5	n/a	n/a	n/a	n/a	n/a
91515234	PROB	n/a	LTP100	ltpFR	9	n/a	n/a	n/a	n/a	n/a	n/a	n/a	19	5	9	5	n/a	n/a	n/a	n/a	n/a
91516758	PROB	n/a	LTP100	ltpFR	9	n/a	n/a	n/a	n/a	n/a	n/a	n/a	16	5	3	8	n/a	n/a	n/a	n/a	n/a
91519388	PROB	n/a	LTP100	ltpFR	9	n/a	n/a	n/a	n/a	n/a	n/a	n/a	15	9	3	3	n/a	n/a	n/a	n/a	n/a
91520714	STOP	n/a	LTP100	ltpFR	9	n/a	n/a	n/a	n/a	n/a	n/a	n/a	n/a	n/a	n/a	n/a	n/a	n/a	n/a	n/a	n/a
91522309	WORD	wordpools/wasnorm_wordpool.txt	LTP100	ltpFR	9	6	0	FOREHEAD	592	n/a	n/a	0	n/a	0	0	0	0.57763671875	0.412841796875	1	upper	zerothre.ttf
91525314	START	n/a	LTP100	ltpFR	9	n/a	n/a	n/a	n/a	n/a	n/a	n/a	n/a	n/a	n/a	n/a	n/a	n/a	n/a	n/a	n/a
91526155	PROB	n/a	LTP100	ltpFR	9	n/a	n/a	n/a	n/a	n/a	n/a	n/a	18	7	3	8	n/a	n/a	n/a	n/a	n/a
91527237	PROB	n/a	LTP100	ltpFR	9	n/a	n/a	n/a	n/a	n/a	n/a	n/a	7	2	2	3	n/a	n/a	n/a	n/a	n/a
91529493	PROB	n/a	LTP100	ltpFR	9	n/a	n/a	n/a	n/a	n/a	n/a	n/a	16	4	6	6	n/a	n/a	n/a	n/a	n/a
91530616	PROB	n/a	LTP100	ltpFR	9	n/a	n/a	n/a	n/a	n/a	n/a	n/a	14	9	3	2	n/a	n/a	n/a	n/a	n/a
91531931	PROB	n/a	LTP100	ltpFR	9	n/a	n/a	n/a	n/a	n/a	n/a	n/a	11	3	6	2	n/a	n/a	n/a	n/a	n/a
91533563	PROB	n/a	LTP100	ltpFR	9	n/a	n/a	n/a	n/a	n/a	n/a	n/a	11	7	1	3	n/a	n/a	n/a	n/a	n/a
91535411	PROB	n/a	LTP100	ltpFR	9	n/a	n/a	n/a	n/a	n/a	n/a	n/a	20	4	8	8	n/a	n/a	n/a	n/a	n/a
91537209	PROB	n/a	LTP100	ltpFR	9	n/a	n/a	n/a	n/a	n/a	n/a	n/a	15	1	5	9	n/a	n/a	n/a	n/a	n/a
91538973	PROB	n/a	LTP100	ltpFR	9	n/a	n/a	n/a	n/a	n/a	n/a	n/a	15	8	2	5	n/a	n/a	n/a	n/a	n/a
91540114	STOP	n/a	LTP100	ltpFR	9	n/a	n/a	n/a	n/a	n/a	n/a	n/a	n/a	n/a	n/a	n/a	n/a	n/a	n/a	n/a	n/a
91543144	REC_START	n/a	LTP100	ltpFR	9	6	n/a	n/a	n/a	n/a	n/a	n/a	n/a	0	0	0	n/a	n/a	n/a	n/a	n/a
91545823	REC_WORD	wordpools/wasnorm_wordpool.txt	LTP100	ltpFR	9	6	0	ORCHID	982	n/a	n/a	0	n/a	0	0	0	n/a	n/a	n/a	n/a	n/a
91547035	REC_WORD	wordpools/wasnorm_wordpool.txt	LTP100	ltpFR	9	6	0	LILY	821	n/a	n/a	0	n/a	0	0	0	n/a	n/a	n/a	n/a	n/a
91550961	REC_WORD_VV	wordpools/wasnorm_wordpool.txt	LTP100	ltpFR	9	6	n/a	<>	-1	n/a	n/a	n/a	n/a	0	0	0	n/a	n/a	n/a	n/a	n/a
91553280	REC_WORD	wordpools/wasnorm_wordpool.txt	LTP100	ltpFR	9	6	0	FOREHEAD	592	n/a	n/a	0	n/a	0	0	0	n/a	n/a	n/a	n/a	n/a
91559930	REC_WORD	wordpools/wasnorm_wordpool.txt	LTP100	ltpFR	9	6	0	POTATO	1115	n/a	n/a	0	n/a	0	0	0	n/a	n/a	n/a	n/a	n/a
91560755	REC_WORD	wordpools/wasnorm_wordpool.txt	LTP100	ltpFR	9	6	0	CHISEL	305	n/a	n/a	0	n/a	0	0	0	n/a	n/a	n/a	n/a	n/a
91561577	REC_WORD	wordpools/wasnorm_wordpool.txt	LTP100	ltpFR	9	6	0	VINEGAR	1569	n/a	n/a	0	n/a	0	0	0	n/a	n/a	n/a	n/a	n/a
91578219	REC_WORD	wordpools/wasnorm_wordpool.txt	LTP100	ltpFR	9	6	0	STRANGER	1389	n/a	n/a	1	n/a	0	0	0	n/a	n/a	n/a	n/a	n/a
91608660	REC_WORD	wordpools/wasnorm_wordpool.txt	LTP100	ltpFR	9	6	0	WHISKERS	1605	n/a	n/a	0	n/a	0	0	0	n/a	n/a	n/a	n/a	n/a
91620263	START	n/a	LTP100	ltpFR	9	n/a	n/a	n/a	n/a	n/a	n/a	n/a	n/a	n/a	n/a	n/a	n/a	n/a	n/a	n/a	n/a
91621770	PROB	n/a	LTP100	ltpFR	9	n/a	n/a	n/a	n/a	n/a	n/a	n/a	19	8	3	8	n/a	n/a	n/a	n/a	n/a
91625023	PROB	n/a	LTP100	ltpFR	9	n/a	n/a	n/a	n/a	n/a	n/a	n/a	10	4	2	4	n/a	n/a	n/a	n/a	n/a
91626405	PROB	n/a	LTP100	ltpFR	9	n/a	n/a	n/a	n/a	n/a	n/a	n/a	21	7	8	6	n/a	n/a	n/a	n/a	n/a
91627882	STOP	n/a	LTP100	ltpFR	9	n/a	n/a	n/a	n/a	n/a	n/a	n/a	n/a	n/a	n/a	n/a	n/a	n/a	n/a	n/a	n/a
91629243	WORD	wordpools/wasnorm_wordpool.txt	LTP100	ltpFR	9	7	1	SEASHORE	1263	n/a	n/a	0	n/a	0	0	0	0.422607421875	0.5869140625	0	lower	amplitud.ttf
91632249	START	n/a	LTP100	ltpFR	9	n/a	n/a	n/a	n/a	n/a	n/a	n/a	n/a	n/a	n/a	n/a	n/a	n/a	n/a	n/a	n/a
91633114	PROB	n/a	LTP100	ltpFR	9	n/a	n/a	n/a	n/a	n/a	n/a	n/a	15	6	7	2	n/a	n/a	n/a	n/a	n/a
91634362	PROB	n/a	LTP100	ltpFR	9	n/a	n/a	n/a	n/a	n/a	n/a	n/a	12	6	4	2	n/a	n/a	n/a	n/a	n/a
91635603	PROB	n/a	LTP100	ltpFR	9	n/a	n/a	n/a	n/a	n/a	n/a	n/a	12	5	5	2	n/a	n/a	n/a	n/a	n/a
91636810	PROB	n/a	LTP100	ltpFR	9	n/a	n/a	n/a	n/a	n/a	n/a	n/a	12	8	1	3	n/a	n/a	n/a	n/a	n/a
91638125	PROB	n/a	LTP100	ltpFR	9	n/a	n/a	n/a	n/a	n/a	n/a	n/a	16	9	5	2	n/a	n/a	n/a	n/a	n/a
91639578	STOP	n/a	LTP100	ltpFR	9	n/a	n/a	n/a	n/a	n/a	n/a	n/a	n/a	n/a	n/a	n/a	n/a	n/a	n/a	n/a	n/a
91641105	WORD	wordpools/wasnorm_wordpool.txt	LTP100	ltpFR	9	7	1	CONE	363	n/a	n/a	0	n/a	0	0	0	0.422607421875	0.5869140625	0	lower	amplitud.ttf
91644110	START	n/a	LTP100	ltpFR	9	n/a	n/a	n/a	n/a	n/a	n/a	n/a	n/a	n/a	n/a	n/a	n/a	n/a	n/a	n/a	n/a
91645008	PROB	n/a	LTP100	ltpFR	9	n/a	n/a	n/a	n/a	n/a	n/a	n/a	18	6	5	7	n/a	n/a	n/a	n/a	n/a
91646915	PROB	n/a	LTP100	ltpFR	9	n/a	n/a	n/a	n/a	n/a	n/a	n/a	19	9	2	8	n/a	n/a	n/a	n/a	n/a
91648346	PROB	n/a	LTP100	ltpFR	9	n/a	n/a	n/a	n/a	n/a	n/a	n/a	14	8	4	2	n/a	n/a	n/a	n/a	n/a
91649861	PROB	n/a	LTP100	ltpFR	9	n/a	n/a	n/a	n/a	n/a	n/a	n/a	16	6	1	9	n/a	n/a	n/a	n/a	n/a
91651202	STOP	n/a	LTP100	ltpFR	9	n/a	n/a	n/a	n/a	n/a	n/a	n/a	n/a	n/a	n/a	n/a	n/a	n/a	n/a	n/a	n/a
91653191	WORD	wordpools/wasnorm_wordpool.txt	LTP100	ltpFR	9	7	1	DUCK	504	n/a	n/a	1	n/a	0	0	0	0.422607421875	0.5869140625	0	lower	amplitud.ttf
91656196	START	n/a	LTP100	ltpFR	9	n/a	n/a	n/a	n/a	n/a	n/a	n/a	n/a	n/a	n/a	n/a	n/a	n/a	n/a	n/a	n/a
91657319	PROB	n/a	LTP100	ltpFR	9	n/a	n/a	n/a	n/a	n/a	n/a	n/a	17	2	6	9	n/a	n/a	n/a	n/a	n/a
91659184	PROB	n/a	LTP100	ltpFR	9	n/a	n/a	n/a	n/a	n/a	n/a	n/a	19	7	4	8	n/a	n/a	n/a	n/a	n/a
91661006	PROB	n/a	LTP100	ltpFR	9	n/a	n/a	n/a	n/a	n/a	n/a	n/a	17	7	5	5	n/a	n/a	n/a	n/a	n/a
91662297	PROB	n/a	LTP100	ltpFR	9	n/a	n/a	n/a	n/a	n/a	n/a	n/a	21	8	8	5	n/a	n/a	n/a	n/a	n/a
91663586	STOP	n/a	LTP100	ltpFR	9	n/a	n/a	n/a	n/a	n/a	n/a	n/a	n/a	n/a	n/a	n/a	n/a	n/a	n/a	n/a	n/a
91665018	WORD	wordpools/wasnorm_wordpool.txt	LTP100	ltpFR	9	7	1	PUCK	1138	n/a	n/a	0	n/a	0	0	0	0.422607421875	0.5869140625	0	lower	amplitud.ttf
91668024	START	n/a	LTP100	ltpFR	9	n/a	n/a	n/a	n/a	n/a	n/a	n/a	n/a	n/a	n/a	n/a	n/a	n/a	n/a	n/a	n/a
91669180	PROB	n/a	LTP100	ltpFR	9	n/a	n/a	n/a	n/a	n/a	n/a	n/a	18	7	8	3	n/a	n/a	n/a	n/a	n/a
91671578	PROB	n/a	LTP100	ltpFR	9	n/a	n/a	n/a	n/a	n/a	n/a	n/a	18	7	9	2	n/a	n/a	n/a	n/a	n/a
91673284	PROB	n/a	LTP100	ltpFR	9	n/a	n/a	n/a	n/a	n/a	n/a	n/a	18	3	6	9	n/a	n/a	n/a	n/a	n/a
91674922	STOP	n/a	LTP100	ltpFR	9	n/a	n/a	n/a	n/a	n/a	n/a	n/a	n/a	n/a	n/a	n/a	n/a	n/a	n/a	n/a	n/a
91677171	WORD	wordpools/wasnorm_wordpool.txt	LTP100	ltpFR	9	7	1	ANTEATER	26	n/a	n/a	1	n/a	0	0	0	0.422607421875	0.5869140625	0	lower	amplitud.ttf
91680176	START	n/a	LTP100	ltpFR	9	n/a	n/a	n/a	n/a	n/a	n/a	n/a	n/a	n/a	n/a	n/a	n/a	n/a	n/a	n/a	n/a
91681108	PROB	n/a	LTP100	ltpFR	9	n/a	n/a	n/a	n/a	n/a	n/a	n/a	10	3	4	3	n/a	n/a	n/a	n/a	n/a
91683347	PROB	n/a	LTP100	ltpFR	9	n/a	n/a	n/a	n/a	n/a	n/a	n/a	13	9	3	1	n/a	n/a	n/a	n/a	n/a
91684804	PROB	n/a	LTP100	ltpFR	9	n/a	n/a	n/a	n/a	n/a	n/a	n/a	10	5	3	2	n/a	n/a	n/a	n/a	n/a
91686627	PROB	n/a	LTP100	ltpFR	9	n/a	n/a	n/a	n/a	n/a	n/a	n/a	8	4	3	1	n/a	n/a	n/a	n/a	n/a
91687787	STOP	n/a	LTP100	ltpFR	9	n/a	n/a	n/a	n/a	n/a	n/a	n/a	n/a	n/a	n/a	n/a	n/a	n/a	n/a	n/a	n/a
91689190	WORD	wordpools/wasnorm_wordpool.txt	LTP100	ltpFR	9	7	1	CROCODILE	411	n/a	n/a	1	n/a	0	0	0	0.422607421875	0.5869140625	0	lower	amplitud.ttf
91692196	START	n/a	LTP100	ltpFR	9	n/a	n/a	n/a	n/a	n/a	n/a	n/a	n/a	n/a	n/a	n/a	n/a	n/a	n/a	n/a	n/a
91693078	PROB	n/a	LTP100	ltpFR	9	n/a	n/a	n/a	n/a	n/a	n/a	n/a	12	1	5	6	n/a	n/a	n/a	n/a	n/a
91694850	PROB	n/a	LTP100	ltpFR	9	n/a	n/a	n/a	n/a	n/a	n/a	n/a	16	8	2	6	n/a	n/a	n/a	n/a	n/a
91696132	PROB	n/a	LTP100	ltpFR	9	n/a	n/a	n/a	n/a	n/a	n/a	n/a	6	2	3	1	n/a	n/a	n/a	n/a	n/a
91697889	PROB	n/a	LTP100	ltpFR	9	n/a	n/a	n/a	n/a	n/a	n/a	n/a	21	4	9	8	n/a	n/a	n/a	n/a	n/a
91700002	STOP	n/a	LTP100	ltpFR	9	n/a	n/a	n/a	n/a	n/a	n/a	n/a	n/a	n/a	n/a	n/a	n/a	n/a	n/a	n/a	n/a
91701351	WORD	wordpools/wasnorm_wordpool.txt	LTP100	ltpFR	9	7	1	TYPIST	1532	n/a	n/a	1	n/a	0	0	0	0.422607421875	0.5869140625	0	lower	amplitud.ttf
91704356	START	n/a	LTP100	ltpFR	9	n/a	n/a	n/a	n/a	n/a	n/a	n/a	n/a	n/a	n/a	n/a	n/a	n/a	n/a	n/a	n/a
91705205	PROB	n/a	LTP100	ltpFR	9	n/a	n/a	n/a	n/a	n/a	n/a	n/a	20	8	4	8	n/a	n/a	n/a	n/a	n/a
91706903	PROB	n/a	LTP100	ltpFR	9	n/a	n/a	n/a	n/a	n/a	n/a	n/a	22	8	5	9	n/a	n/a	n/a	n/a	n/a
91708752	PROB	n/a	LTP100	ltpFR	9	n/a	n/a	n/a	n/a	n/a	n/a	n/a	19	9	1	9	n/a	n/a	n/a	n/a	n/a
91710842	STOP	n/a	LTP100	ltpFR	9	n/a	n/a	n/a	n/a	n/a	n/a	n/a	n/a	n/a	n/a	n/a	n/a	n/a	n/a	n/a	n/a
91713496	WORD	wordpools/wasnorm_wordpool.txt	LTP100	ltpFR	9	7	1	BUFFALO	186	n/a	n/a	1	n/a	0	0	0	0.422607421875	0.5869140625	0	lower	amplitud.ttf
91716501	START	n/a	LTP100	ltpFR	9	n/a	n/a	n/a	n/a	n/a	n/a	n/a	n/a	n/a	n/a	n/a	n/a	n/a	n/a	n/a	n/a
91717516	PROB	n/a	LTP100	ltpFR	9	n/a	n/a	n/a	n/a	n/a	n/a	n/a	23	9	7	7	n/a	n/a	n/a	n/a	n/a
91719613	PROB	n/a	LTP100	ltpFR	9	n/a	n/a	n/a	n/a	n/a	n/a	n/a	20	8	7	5	n/a	n/a	n/a	n/a	n/a
91722061	PROB	n/a	LTP100	ltpFR	9	n/a	n/a	n/a	n/a	n/a	n/a	n/a	11	3	4	4	n/a	n/a	n/a	n/a	n/a
91723514	STOP	n/a	LTP100	ltpFR	9	n/a	n/a	n/a	n/a	n/a	n/a	n/a	n/a	n/a	n/a	n/a	n/a	n/a	n/a	n/a	n/a
91725415	WORD	wordpools/wasnorm_wordpool.txt	LTP100	ltpFR	9	7	1	PLAID	1080	n/a	n/a	0	n/a	0	0	0	0.422607421875	0.5869140625	0	lower	amplitud.ttf
91728420	START	n/a	LTP100	ltpFR	9	n/a	n/a	n/a	n/a	n/a	n/a	n/a	n/a	n/a	n/a	n/a	n/a	n/a	n/a	n/a	n/a
91729294	PROB	n/a	LTP100	ltpFR	9	n/a	n/a	n/a	n/a	n/a	n/a	n/a	9	1	7	1	n/a	n/a	n/a	n/a	n/a
91730609	PROB	n/a	LTP100	ltpFR	9	n/a	n/a	n/a	n/a	n/a	n/a	n/a	10	4	4	2	n/a	n/a	n/a	n/a	n/a
91732007	PROB	n/a	LTP100	ltpFR	9	n/a	n/a	n/a	n/a	n/a	n/a	n/a	14	7	3	4	n/a	n/a	n/a	n/a	n/a
91733198	PROB	n/a	LTP100	ltpFR	9	n/a	n/a	n/a	n/a	n/a	n/a	n/a	16	5	9	2	n/a	n/a	n/a	n/a	n/a
91734729	PROB	n/a	LTP100	ltpFR	9	n/a	n/a	n/a	n/a	n/a	n/a	n/a	9	1	4	4	n/a	n/a	n/a	n/a	n/a
91735810	STOP	n/a	LTP100	ltpFR	9	n/a	n/a	n/a	n/a	n/a	n/a	n/a	n/a	n/a	n/a	n/a	n/a	n/a	n/a	n/a	n/a
91737260	WORD	wordpools/wasnorm_wordpool.txt	LTP100	ltpFR	9	7	1	STADIUM	1364	n/a	n/a	0	n/a	0	0	0	0.422607421875	0.5869140625	0	lower	amplitud.ttf
91740265	START	n/a	LTP100	ltpFR	9	n/a	n/a	n/a	n/a	n/a	n/a	n/a	n/a	n/a	n/a	n/a	n/a	n/a	n/a	n/a	n/a
91741297	PROB	n/a	LTP100	ltpFR	9	n/a	n/a	n/a	n/a	n/a	n/a	n/a	17	4	9	4	n/a	n/a	n/a	n/a	n/a
91742928	PROB	n/a	LTP100	ltpFR	9	n/a	n/a	n/a	n/a	n/a	n/a	n/a	14	5	5	4	n/a	n/a	n/a	n/a	n/a
91744002	PROB	n/a	LTP100	ltpFR	9	n/a	n/a	n/a	n/a	n/a	n/a	n/a	19	6	7	6	n/a	n/a	n/a	n/a	n/a
91746249	PROB	n/a	LTP100	ltpFR	9	n/a	n/a	n/a	n/a	n/a	n/a	n/a	9	1	3	5	n/a	n/a	n/a	n/a	n/a
91747570	STOP	n/a	LTP100	ltpFR	9	n/a	n/a	n/a	n/a	n/a	n/a	n/a	n/a	n/a	n/a	n/a	n/a	n/a	n/a	n/a	n/a
91749296	WORD	wordpools/wasnorm_wordpool.txt	LTP100	ltpFR	9	7	1	GROCERY	664	n/a	n/a	0	n/a	0	0	0	0.422607421875	0.5869140625	0	lower	amplitud.ttf
91752301	START	n/a	LTP100	ltpFR	9	n/a	n/a	n/a	n/a	n/a	n/a	n/a	n/a	n/a	n/a	n/a	n/a	n/a	n/a	n/a	n/a
91753457	PROB	n/a	LTP100	ltpFR	9	n/a	n/a	n/a	n/a	n/a	n/a	n/a	16	7	4	5	n/a	n/a	n/a	n/a	n/a
91755405	PROB	n/a	LTP100	ltpFR	9	n/a	n/a	n/a	n/a	n/a	n/a	n/a	4	1	2	1	n/a	n/a	n/a	n/a	n/a
91756454	PROB	n/a	LTP100	ltpFR	9	n/a	n/a	n/a	n/a	n/a	n/a	n/a	7	1	4	2	n/a	n/a	n/a	n/a	n/a
91758027	PROB	n/a	LTP100	ltpFR	9	n/a	n/a	n/a	n/a	n/a	n/a	n/a	20	8	9	3	n/a	n/a	n/a	n/a	n/a
91760058	STOP	n/a	LTP100	ltpFR	9	n/a	n/a	n/a	n/a	n/a	n/a	n/a	n/a	n/a	n/a	n/a	n/a	n/a	n/a	n/a	n/a
91761515	WORD	wordpools/wasnorm_wordpool.txt	LTP100	ltpFR	9	7	1	SHOP	1290	n/a	n/a	0	n/a	0	0	0	0.422607421875	0.5869140625	0	lower	amplitud.ttf
91764520	START	n/a	LTP100	ltpFR	9	n/a	n/a	n/a	n/a	n/a	n/a	n/a	n/a	n/a	n/a	n/a	n/a	n/a	n/a	n/a	n/a
91765468	PROB	n/a	LTP100	ltpFR	9	n/a	n/a	n/a	n/a	n/a	n/a	n/a	24	9	7	8	n/a	n/a	n/a	n/a	n/a
91767949	PROB	n/a	LTP100	ltpFR	9	n/a	n/a	n/a	n/a	n/a	n/a	n/a	8	1	1	6	n/a	n/a	n/a	n/a	n/a
91768998	PROB	n/a	LTP100	ltpFR	9	n/a	n/a	n/a	n/a	n/a	n/a	n/a	6	2	2	2	n/a	n/a	n/a	n/a	n/a
91769980	PROB	n/a	LTP100	ltpFR	9	n/a	n/a	n/a	n/a	n/a	n/a	n/a	11	3	4	4	n/a	n/a	n/a	n/a	n/a
91771586	STOP	n/a	LTP100	ltpFR	9	n/a	n/a	n/a	n/a	n/a	n/a	n/a	n/a	n/a	n/a	n/a	n/a	n/a	n/a	n/a	n/a
91773459	WORD	wordpools/wasnorm_wordpool.txt	LTP100	ltpFR	9	7	1	MULE	931	n/a	n/a	1	n/a	0	0	0	0.422607421875	0.5869140625	0	lower	amplitud.ttf
91776464	START	n/a	LTP100	ltpFR	9	n/a	n/a	n/a	n/a	n/a	n/a	n/a	n/a	n/a	n/a	n/a	n/a	n/a	n/a	n/a	n/a
91777529	PROB	n/a	LTP100	ltpFR	9	n/a	n/a	n/a	n/a	n/a	n/a	n/a	11	3	6	2	n/a	n/a	n/a	n/a	n/a
91778936	PROB	n/a	LTP100	ltpFR	9	n/a	n/a	n/a	n/a	n/a	n/a	n/a	18	9	8	1	n/a	n/a	n/a	n/a	n/a
91780534	PROB	n/a	LTP100	ltpFR	9	n/a	n/a	n/a	n/a	n/a	n/a	n/a	14	6	5	3	n/a	n/a	n/a	n/a	n/a
91782791	PROB	n/a	LTP100	ltpFR	9	n/a	n/a	n/a	n/a	n/a	n/a	n/a	13	4	2	7	n/a	n/a	n/a	n/a	n/a
91784410	STOP	n/a	LTP100	ltpFR	9	n/a	n/a	n/a	n/a	n/a	n/a	n/a	n/a	n/a	n/a	n/a	n/a	n/a	n/a	n/a	n/a
91785578	WORD	wordpools/wasnorm_wordpool.txt	LTP100	ltpFR	9	7	1	SECRETARY	1265	n/a	n/a	1	n/a	0	0	0	0.422607421875	0.5869140625	0	lower	amplitud.ttf
91788584	START	n/a	LTP100	ltpFR	9	n/a	n/a	n/a	n/a	n/a	n/a	n/a	n/a	n/a	n/a	n/a	n/a	n/a	n/a	n/a	n/a
91789715	PROB	n/a	LTP100	ltpFR	9	n/a	n/a	n/a	n/a	n/a	n/a	n/a	17	9	3	5	n/a	n/a	n/a	n/a	n/a
91791214	PROB	n/a	LTP100	ltpFR	9	n/a	n/a	n/a	n/a	n/a	n/a	n/a	23	7	8	8	n/a	n/a	n/a	n/a	n/a
91793611	PROB	n/a	LTP100	ltpFR	9	n/a	n/a	n/a	n/a	n/a	n/a	n/a	27	9	9	9	n/a	n/a	n/a	n/a	n/a
91795626	STOP	n/a	LTP100	ltpFR	9	n/a	n/a	n/a	n/a	n/a	n/a	n/a	n/a	n/a	n/a	n/a	n/a	n/a	n/a	n/a	n/a
91797757	WORD	wordpools/wasnorm_wordpool.txt	LTP100	ltpFR	9	7	1	CLAW	319	n/a	n/a	0	n/a	0	0	0	0.422607421875	0.5869140625	0	lower	amplitud.ttf
91800762	START	n/a	LTP100	ltpFR	9	n/a	n/a	n/a	n/a	n/a	n/a	n/a	n/a	n/a	n/a	n/a	n/a	n/a	n/a	n/a	n/a
91801676	PROB	n/a	LTP100	ltpFR	9	n/a	n/a	n/a	n/a	n/a	n/a	n/a	15	3	4	8	n/a	n/a	n/a	n/a	n/a
91803233	PROB	n/a	LTP100	ltpFR	9	n/a	n/a	n/a	n/a	n/a	n/a	n/a	18	7	9	2	n/a	n/a	n/a	n/a	n/a
91805181	PROB	n/a	LTP100	ltpFR	9	n/a	n/a	n/a	n/a	n/a	n/a	n/a	19	5	6	8	n/a	n/a	n/a	n/a	n/a
91806854	PROB	n/a	LTP100	ltpFR	9	n/a	n/a	n/a	n/a	n/a	n/a	n/a	13	5	7	1	n/a	n/a	n/a	n/a	n/a
91808074	STOP	n/a	LTP100	ltpFR	9	n/a	n/a	n/a	n/a	n/a	n/a	n/a	n/a	n/a	n/a	n/a	n/a	n/a	n/a	n/a	n/a
91809659	WORD	wordpools/wasnorm_wordpool.txt	LTP100	ltpFR	9	7	1	UMPIRE	1535	n/a	n/a	1	n/a	0	0	0	0.422607421875	0.5869140625	0	lower	amplitud.ttf
91812664	START	n/a	LTP100	ltpFR	9	n/a	n/a	n/a	n/a	n/a	n/a	n/a	n/a	n/a	n/a	n/a	n/a	n/a	n/a	n/a	n/a
91813829	PROB	n/a	LTP100	ltpFR	9	n/a	n/a	n/a	n/a	n/a	n/a	n/a	13	5	5	3	n/a	n/a	n/a	n/a	n/a
91815086	PROB	n/a	LTP100	ltpFR	9	n/a	n/a	n/a	n/a	n/a	n/a	n/a	15	3	3	9	n/a	n/a	n/a	n/a	n/a
91816642	PROB	n/a	LTP100	ltpFR	9	n/a	n/a	n/a	n/a	n/a	n/a	n/a	15	5	4	6	n/a	n/a	n/a	n/a	n/a
91818698	PROB	n/a	LTP100	ltpFR	9	n/a	n/a	n/a	n/a	n/a	n/a	n/a	13	5	3	5	n/a	n/a	n/a	n/a	n/a
91819970	STOP	n/a	LTP100	ltpFR	9	n/a	n/a	n/a	n/a	n/a	n/a	n/a	n/a	n/a	n/a	n/a	n/a	n/a	n/a	n/a	n/a
91822519	REC_START	n/a	LTP100	ltpFR	9	7	n/a	n/a	n/a	n/a	n/a	n/a	n/a	0	0	0	n/a	n/a	n/a	n/a	n/a
91825652	REC_WORD	wordpools/wasnorm_wordpool.txt	LTP100	ltpFR	9	7	1	UMPIRE	1535	n/a	n/a	1	n/a	0	0	0	n/a	n/a	n/a	n/a	n/a
91826610	REC_WORD	wordpools/wasnorm_wordpool.txt	LTP100	ltpFR	9	7	1	TYPIST	1532	n/a	n/a	1	n/a	0	0	0	n/a	n/a	n/a	n/a	n/a
91832227	REC_WORD	wordpools/wasnorm_wordpool.txt	LTP100	ltpFR	9	7	1	MULE	931	n/a	n/a	1	n/a	0	0	0	n/a	n/a	n/a	n/a	n/a
91840752	REC_WORD	wordpools/wasnorm_wordpool.txt	LTP100	ltpFR	9	7	1	ANTEATER	26	n/a	n/a	1	n/a	0	0	0	n/a	n/a	n/a	n/a	n/a
91847083	REC_WORD	wordpools/wasnorm_wordpool.txt	LTP100	ltpFR	9	7	1	CLAW	319	n/a	n/a	0	n/a	0	0	0	n/a	n/a	n/a	n/a	n/a
91912231	WORD	wordpools/wasnorm_wordpool.txt	LTP100	ltpFR	9	8	1	ALBUM	14	n/a	n/a	0	n/a	0	0	0	0.422607421875	0.5869140625	0	lower	amplitud.ttf
91916401	WORD	wordpools/wasnorm_wordpool.txt	LTP100	ltpFR	9	8	1	RECORD	1176	n/a	n/a	0	n/a	0	0	0	0.422607421875	0.5869140625	0	lower	amplitud.ttf
91920280	WORD	wordpools/wasnorm_wordpool.txt	LTP100	ltpFR	9	8	1	TYPEWRITER	1531	n/a	n/a	0	n/a	0	0	0	0.422607421875	0.5869140625	0	lower	amplitud.ttf
91924450	WORD	wordpools/wasnorm_wordpool.txt	LTP100	ltpFR	9	8	1	SHEET	1279	n/a	n/a	0	n/a	0	0	0	0.422607421875	0.5869140625	0	lower	amplitud.ttf
91928637	WORD	wordpools/wasnorm_wordpool.txt	LTP100	ltpFR	9	8	1	CALF	222	n/a	n/a	0	n/a	0	0	0	0.422607421875	0.5869140625	0	lower	amplitud.ttf
91932767	WORD	wordpools/wasnorm_wordpool.txt	LTP100	ltpFR	9	8	0	CATCHER	258	n/a	n/a	1	n/a	0	0	0	0.57763671875	0.412841796875	1	upper	zerothre.ttf
91936853	WORD	wordpools/wasnorm_wordpool.txt	LTP100	ltpFR	9	8	0	SLEEVE	1324	n/a	n/a	0	n/a	0	0	0	0.57763671875	0.412841796875	1	upper	zerothre.ttf
91940806	WORD	wordpools/wasnorm_wordpool.txt	LTP100	ltpFR	9	8	0	OWL	992	n/a	n/a	0	n/a	0	0	0	0.57763671875	0.412841796875	1	upper	zerothre.ttf
91944627	WORD	wordpools/wasnorm_wordpool.txt	LTP100	ltpFR	9	8	0	CREATURE	403	n/a	n/a	1	n/a	0	0	0	0.57763671875	0.412841796875	1	upper	zerothre.ttf
91948572	WORD	wordpools/wasnorm_wordpool.txt	LTP100	ltpFR	9	8	1	LIP	828	n/a	n/a	0	n/a	0	0	0	0.422607421875	0.5869140625	0	lower	amplitud.ttf
91952426	WORD	wordpools/wasnorm_wordpool.txt	LTP100	ltpFR	9	8	1	VAULT	1550	n/a	n/a	0	n/a	0	0	0	0.422607421875	0.5869140625	0	lower	amplitud.ttf
91956372	WORD	wordpools/wasnorm_wordpool.txt	LTP100	ltpFR	9	8	1	SQUID	1361	n/a	n/a	1	n/a	0	0	0	0.422607421875	0.5869140625	0	lower	amplitud.ttf
91960384	WORD	wordpools/wasnorm_wordpool.txt	LTP100	ltpFR	9	8	0	LEG	809	n/a	n/a	1	n/a	0	0	0	0.57763671875	0.412841796875	1	upper	zerothre.ttf
91964579	WORD	wordpools/wasnorm_wordpool.txt	LTP100	ltpFR	9	8	0	EWE	542	n/a	n/a	1	n/a	0	0	0	0.57763671875	0.412841796875	1	upper	zerothre.ttf
91968499	WORD	wordpools/wasnorm_wordpool.txt	LTP100	ltpFR	9	8	0	THICKET	1455	n/a	n/a	1	n/a	0	0	0	0.57763671875	0.412841796875	1	upper	zerothre.ttf
91972511	WORD	wordpools/wasnorm_wordpool.txt	LTP100	ltpFR	9	8	0	SPIT	1354	n/a	n/a	0	n/a	0	0	0	0.57763671875	0.412841796875	1	upper	zerothre.ttf
91975516	START	n/a	LTP100	ltpFR	9	n/a	n/a	n/a	n/a	n/a	n/a	n/a	n/a	n/a	n/a	n/a	n/a	n/a	n/a	n/a	n/a
91976498	PROB	n/a	LTP100	ltpFR	9	n/a	n/a	n/a	n/a	n/a	n/a	n/a	16	2	5	9	n/a	n/a	n/a	n/a	n/a
91978271	PROB	n/a	LTP100	ltpFR	9	n/a	n/a	n/a	n/a	n/a	n/a	n/a	14	8	3	3	n/a	n/a	n/a	n/a	n/a
91979853	PROB	n/a	LTP100	ltpFR	9	n/a	n/a	n/a	n/a	n/a	n/a	n/a	21	9	9	3	n/a	n/a	n/a	n/a	n/a
91981193	PROB	n/a	LTP100	ltpFR	9	n/a	n/a	n/a	n/a	n/a	n/a	n/a	14	4	6	4	n/a	n/a	n/a	n/a	n/a
91982683	PROB	n/a	LTP100	ltpFR	9	n/a	n/a	n/a	n/a	n/a	n/a	n/a	20	8	6	6	n/a	n/a	n/a	n/a	n/a
91984506	PROB	n/a	LTP100	ltpFR	9	n/a	n/a	n/a	n/a	n/a	n/a	n/a	16	8	1	7	n/a	n/a	n/a	n/a	n/a
91986145	PROB	n/a	LTP100	ltpFR	9	n/a	n/a	n/a	n/a	n/a	n/a	n/a	5	1	2	2	n/a	n/a	n/a	n/a	n/a
91987136	PROB	n/a	LTP100	ltpFR	9	n/a	n/a	n/a	n/a	n/a	n/a	n/a	14	4	2	8	n/a	n/a	n/a	n/a	n/a
91988801	PROB	n/a	LTP100	ltpFR	9	n/a	n/a	n/a	n/a	n/a	n/a	n/a	13	6	1	6	n/a	n/a	n/a	n/a	n/a
91990010	STOP	n/a	LTP100	ltpFR	9	n/a	n/a	n/a	n/a	n/a	n/a	n/a	n/a	n/a	n/a	n/a	n/a	n/a	n/a	n/a	n/a
91993404	REC_START	n/a	LTP100	ltpFR	9	8	n/a	n/a	n/a	n/a	n/a	n/a	n/a	0	0	0	n/a	n/a	n/a	n/a	n/a
91997220	REC_WORD	wordpools/wasnorm_wordpool.txt	LTP100	ltpFR	9	8	0	THICKET	1455	n/a	n/a	1	n/a	0	0	0	n/a	n/a	n/a	n/a	n/a
91997988	REC_WORD	wordpools/wasnorm_wordpool.txt	LTP100	ltpFR	9	8	0	SPIT	1354	n/a	n/a	0	n/a	0	0	0	n/a	n/a	n/a	n/a	n/a
92002558	REC_WORD	wordpools/wasnorm_wordpool.txt	LTP100	ltpFR	9	8	1	RECORD	1176	n/a	n/a	0	n/a	0	0	0	n/a	n/a	n/a	n/a	n/a
92003571	REC_WORD	wordpools/wasnorm_wordpool.txt	LTP100	ltpFR	9	8	1	ALBUM	14	n/a	n/a	0	n/a	0	0	0	n/a	n/a	n/a	n/a	n/a
92004547	REC_WORD	wordpools/wasnorm_wordpool.txt	LTP100	ltpFR	9	8	1	TYPEWRITER	1531	n/a	n/a	0	n/a	0	0	0	n/a	n/a	n/a	n/a	n/a
92011128	REC_WORD	wordpools/wasnorm_wordpool.txt	LTP100	ltpFR	9	8	1	SQUID	1361	n/a	n/a	1	n/a	0	0	0	n/a	n/a	n/a	n/a	n/a
92016536	REC_WORD	wordpools/wasnorm_wordpool.txt	LTP100	ltpFR	9	8	0	LEG	809	n/a	n/a	1	n/a	0	0	0	n/a	n/a	n/a	n/a	n/a
92023276	REC_WORD	wordpools/wasnorm_wordpool.txt	LTP100	ltpFR	9	8	0	OWL	992	n/a	n/a	0	n/a	0	0	0	n/a	n/a	n/a	n/a	n/a
92026987	REC_WORD	wordpools/wasnorm_wordpool.txt	LTP100	ltpFR	9	8	0	CREATURE	403	n/a	n/a	1	n/a	0	0	0	n/a	n/a	n/a	n/a	n/a
92079196	START	n/a	LTP100	ltpFR	9	n/a	n/a	n/a	n/a	n/a	n/a	n/a	n/a	n/a	n/a	n/a	n/a	n/a	n/a	n/a	n/a
92080702	PROB	n/a	LTP100	ltpFR	9	n/a	n/a	n/a	n/a	n/a	n/a	n/a	15	5	1	9	n/a	n/a	n/a	n/a	n/a
92081934	PROB	n/a	LTP100	ltpFR	9	n/a	n/a	n/a	n/a	n/a	n/a	n/a	18	2	8	8	n/a	n/a	n/a	n/a	n/a
92083998	PROB	n/a	LTP100	ltpFR	9	n/a	n/a	n/a	n/a	n/a	n/a	n/a	8	4	2	2	n/a	n/a	n/a	n/a	n/a
92085164	PROB	n/a	LTP100	ltpFR	9	n/a	n/a	n/a	n/a	n/a	n/a	n/a	13	2	2	9	n/a	n/a	n/a	n/a	n/a
92086586	STOP	n/a	LTP100	ltpFR	9	n/a	n/a	n/a	n/a	n/a	n/a	n/a	n/a	n/a	n/a	n/a	n/a	n/a	n/a	n/a	n/a
92088285	WORD	wordpools/wasnorm_wordpool.txt	LTP100	ltpFR	9	9	1	PIRATE	1074	n/a	n/a	1	n/a	0	0	0	0.422607421875	0.5869140625	0	lower	amplitud.ttf
92091290	START	n/a	LTP100	ltpFR	9	n/a	n/a	n/a	n/a	n/a	n/a	n/a	n/a	n/a	n/a	n/a	n/a	n/a	n/a	n/a	n/a
92092439	PROB	n/a	LTP100	ltpFR	9	n/a	n/a	n/a	n/a	n/a	n/a	n/a	12	2	1	9	n/a	n/a	n/a	n/a	n/a
92093546	PROB	n/a	LTP100	ltpFR	9	n/a	n/a	n/a	n/a	n/a	n/a	n/a	17	7	6	4	n/a	n/a	n/a	n/a	n/a
92095161	PROB	n/a	LTP100	ltpFR	9	n/a	n/a	n/a	n/a	n/a	n/a	n/a	17	8	1	8	n/a	n/a	n/a	n/a	n/a
92099289	STOP	n/a	LTP100	ltpFR	9	n/a	n/a	n/a	n/a	n/a	n/a	n/a	n/a	n/a	n/a	n/a	n/a	n/a	n/a	n/a	n/a
92100346	WORD	wordpools/wasnorm_wordpool.txt	LTP100	ltpFR	9	9	1	ROBBER	1197	n/a	n/a	1	n/a	0	0	0	0.422607421875	0.5869140625	0	lower	amplitud.ttf
92103351	START	n/a	LTP100	ltpFR	9	n/a	n/a	n/a	n/a	n/a	n/a	n/a	n/a	n/a	n/a	n/a	n/a	n/a	n/a	n/a	n/a
92104333	PROB	n/a	LTP100	ltpFR	9	n/a	n/a	n/a	n/a	n/a	n/a	n/a	18	7	5	6	n/a	n/a	n/a	n/a	n/a
92106447	PROB	n/a	LTP100	ltpFR	9	n/a	n/a	n/a	n/a	n/a	n/a	n/a	9	2	2	5	n/a	n/a	n/a	n/a	n/a
92107846	PROB	n/a	LTP100	ltpFR	9	n/a	n/a	n/a	n/a	n/a	n/a	n/a	11	8	2	1	n/a	n/a	n/a	n/a	n/a
92111351	STOP	n/a	LTP100	ltpFR	9	n/a	n/a	n/a	n/a	n/a	n/a	n/a	n/a	n/a	n/a	n/a	n/a	n/a	n/a	n/a	n/a
92112549	WORD	wordpools/wasnorm_wordpool.txt	LTP100	ltpFR	9	9	1	PORCH	1106	n/a	n/a	0	n/a	0	0	0	0.422607421875	0.5869140625	0	lower	amplitud.ttf
92115554	START	n/a	LTP100	ltpFR	9	n/a	n/a	n/a	n/a	n/a	n/a	n/a	n/a	n/a	n/a	n/a	n/a	n/a	n/a	n/a	n/a
92116444	PROB	n/a	LTP100	ltpFR	9	n/a	n/a	n/a	n/a	n/a	n/a	n/a	13	6	1	6	n/a	n/a	n/a	n/a	n/a
92117801	PROB	n/a	LTP100	ltpFR	9	n/a	n/a	n/a	n/a	n/a	n/a	n/a	16	7	4	5	n/a	n/a	n/a	n/a	n/a
92119766	PROB	n/a	LTP100	ltpFR	9	n/a	n/a	n/a	n/a	n/a	n/a	n/a	14	9	1	4	n/a	n/a	n/a	n/a	n/a
92120914	PROB	n/a	LTP100	ltpFR	9	n/a	n/a	n/a	n/a	n/a	n/a	n/a	10	4	5	1	n/a	n/a	n/a	n/a	n/a
92122986	STOP	n/a	LTP100	ltpFR	9	n/a	n/a	n/a	n/a	n/a	n/a	n/a	n/a	n/a	n/a	n/a	n/a	n/a	n/a	n/a	n/a
92124427	WORD	wordpools/wasnorm_wordpool.txt	LTP100	ltpFR	9	9	1	INSTRUCTOR	741	n/a	n/a	1	n/a	0	0	0	0.422607421875	0.5869140625	0	lower	amplitud.ttf
92127432	START	n/a	LTP100	ltpFR	9	n/a	n/a	n/a	n/a	n/a	n/a	n/a	n/a	n/a	n/a	n/a	n/a	n/a	n/a	n/a	n/a
92128272	PROB	n/a	LTP100	ltpFR	9	n/a	n/a	n/a	n/a	n/a	n/a	n/a	12	2	8	2	n/a	n/a	n/a	n/a	n/a
92130078	PROB	n/a	LTP100	ltpFR	9	n/a	n/a	n/a	n/a	n/a	n/a	n/a	16	8	3	5	n/a	n/a	n/a	n/a	n/a
92132093	PROB	n/a	LTP100	ltpFR	9	n/a	n/a	n/a	n/a	n/a	n/a	n/a	19	9	9	1	n/a	n/a	n/a	n/a	n/a
92133799	PROB	n/a	LTP100	ltpFR	9	n/a	n/a	n/a	n/a	n/a	n/a	n/a	10	1	6	3	n/a	n/a	n/a	n/a	n/a
92135218	STOP	n/a	LTP100	ltpFR	9	n/a	n/a	n/a	n/a	n/a	n/a	n/a	n/a	n/a	n/a	n/a	n/a	n/a	n/a	n/a	n/a
92136363	WORD	wordpools/wasnorm_wordpool.txt	LTP100	ltpFR	9	9	1	NICKEL	950	n/a	n/a	0	n/a	0	0	0	0.422607421875	0.5869140625	0	lower	amplitud.ttf
92139368	START	n/a	LTP100	ltpFR	9	n/a	n/a	n/a	n/a	n/a	n/a	n/a	n/a	n/a	n/a	n/a	n/a	n/a	n/a	n/a	n/a
92140425	PROB	n/a	LTP100	ltpFR	9	n/a	n/a	n/a	n/a	n/a	n/a	n/a	18	6	3	9	n/a	n/a	n/a	n/a	n/a
92142123	PROB	n/a	LTP100	ltpFR	9	n/a	n/a	n/a	n/a	n/a	n/a	n/a	12	2	7	3	n/a	n/a	n/a	n/a	n/a
92143763	PROB	n/a	LTP100	ltpFR	9	n/a	n/a	n/a	n/a	n/a	n/a	n/a	16	7	8	1	n/a	n/a	n/a	n/a	n/a
92145898	STOP	n/a	LTP100	ltpFR	9	n/a	n/a	n/a	n/a	n/a	n/a	n/a	n/a	n/a	n/a	n/a	n/a	n/a	n/a	n/a	n/a
92148465	WORD	wordpools/wasnorm_wordpool.txt	LTP100	ltpFR	9	9	1	BARN	89	n/a	n/a	0	n/a	0	0	0	0.422607421875	0.5869140625	0	lower	amplitud.ttf
92151470	START	n/a	LTP100	ltpFR	9	n/a	n/a	n/a	n/a	n/a	n/a	n/a	n/a	n/a	n/a	n/a	n/a	n/a	n/a	n/a	n/a
92152652	PROB	n/a	LTP100	ltpFR	9	n/a	n/a	n/a	n/a	n/a	n/a	n/a	14	4	9	1	n/a	n/a	n/a	n/a	n/a
92154125	PROB	n/a	LTP100	ltpFR	9	n/a	n/a	n/a	n/a	n/a	n/a	n/a	9	1	3	5	n/a	n/a	n/a	n/a	n/a
92156414	PROB	n/a	LTP100	ltpFR	9	n/a	n/a	n/a	n/a	n/a	n/a	n/a	14	1	6	7	n/a	n/a	n/a	n/a	n/a
92157904	PROB	n/a	LTP100	ltpFR	9	n/a	n/a	n/a	n/a	n/a	n/a	n/a	18	8	5	5	n/a	n/a	n/a	n/a	n/a
92158986	STOP	n/a	LTP100	ltpFR	9	n/a	n/a	n/a	n/a	n/a	n/a	n/a	n/a	n/a	n/a	n/a	n/a	n/a	n/a	n/a	n/a
92160468	WORD	wordpools/wasnorm_wordpool.txt	LTP100	ltpFR	9	9	1	AMBULANCE	19	n/a	n/a	0	n/a	0	0	0	0.422607421875	0.5869140625	0	lower	amplitud.ttf
92163473	START	n/a	LTP100	ltpFR	9	n/a	n/a	n/a	n/a	n/a	n/a	n/a	n/a	n/a	n/a	n/a	n/a	n/a	n/a	n/a	n/a
92164322	PROB	n/a	LTP100	ltpFR	9	n/a	n/a	n/a	n/a	n/a	n/a	n/a	22	9	7	6	n/a	n/a	n/a	n/a	n/a
92166070	PROB	n/a	LTP100	ltpFR	9	n/a	n/a	n/a	n/a	n/a	n/a	n/a	23	9	8	6	n/a	n/a	n/a	n/a	n/a
92168325	PROB	n/a	LTP100	ltpFR	9	n/a	n/a	n/a	n/a	n/a	n/a	n/a	16	4	9	3	n/a	n/a	n/a	n/a	n/a
92170194	STOP	n/a	LTP100	ltpFR	9	n/a	n/a	n/a	n/a	n/a	n/a	n/a	n/a	n/a	n/a	n/a	n/a	n/a	n/a	n/a	n/a
92172646	WORD	wordpools/wasnorm_wordpool.txt	LTP100	ltpFR	9	9	1	BARTENDER	92	n/a	n/a	1	n/a	0	0	0	0.422607421875	0.5869140625	0	lower	amplitud.ttf
92175651	START	n/a	LTP100	ltpFR	9	n/a	n/a	n/a	n/a	n/a	n/a	n/a	n/a	n/a	n/a	n/a	n/a	n/a	n/a	n/a	n/a
92176616	PROB	n/a	LTP100	ltpFR	9	n/a	n/a	n/a	n/a	n/a	n/a	n/a	17	3	7	7	n/a	n/a	n/a	n/a	n/a
92178773	PROB	n/a	LTP100	ltpFR	9	n/a	n/a	n/a	n/a	n/a	n/a	n/a	13	6	5	2	n/a	n/a	n/a	n/a	n/a
92180070	PROB	n/a	LTP100	ltpFR	9	n/a	n/a	n/a	n/a	n/a	n/a	n/a	19	9	7	3	n/a	n/a	n/a	n/a	n/a
92181660	PROB	n/a	LTP100	ltpFR	9	n/a	n/a	n/a	n/a	n/a	n/a	n/a	13	1	8	4	n/a	n/a	n/a	n/a	n/a
92183026	STOP	n/a	LTP100	ltpFR	9	n/a	n/a	n/a	n/a	n/a	n/a	n/a	n/a	n/a	n/a	n/a	n/a	n/a	n/a	n/a	n/a
92184590	WORD	wordpools/wasnorm_wordpool.txt	LTP100	ltpFR	9	9	1	STAFF	1365	n/a	n/a	0	n/a	0	0	0	0.422607421875	0.5869140625	0	lower	amplitud.ttf
92187595	START	n/a	LTP100	ltpFR	9	n/a	n/a	n/a	n/a	n/a	n/a	n/a	n/a	n/a	n/a	n/a	n/a	n/a	n/a	n/a	n/a
92188569	PROB	n/a	LTP100	ltpFR	9	n/a	n/a	n/a	n/a	n/a	n/a	n/a	1	2	7	3	n/a	n/a	n/a	n/a	n/a
92190333	PROB	n/a	LTP100	ltpFR	9	n/a	n/a	n/a	n/a	n/a	n/a	n/a	13	6	6	1	n/a	n/a	n/a	n/a	n/a
92191707	PROB	n/a	LTP100	ltpFR	9	n/a	n/a	n/a	n/a	n/a	n/a	n/a	9	4	2	3	n/a	n/a	n/a	n/a	n/a
92193971	PROB	n/a	LTP100	ltpFR	9	n/a	n/a	n/a	n/a	n/a	n/a	n/a	13	7	5	1	n/a	n/a	n/a	n/a	n/a
92195082	STOP	n/a	LTP100	ltpFR	9	n/a	n/a	n/a	n/a	n/a	n/a	n/a	n/a	n/a	n/a	n/a	n/a	n/a	n/a	n/a	n/a
92196668	WORD	wordpools/wasnorm_wordpool.txt	LTP100	ltpFR	9	9	1	CLASS	318	n/a	n/a	0	n/a	0	0	0	0.422607421875	0.5869140625	0	lower	amplitud.ttf
92199673	START	n/a	LTP100	ltpFR	9	n/a	n/a	n/a	n/a	n/a	n/a	n/a	n/a	n/a	n/a	n/a	n/a	n/a	n/a	n/a	n/a
92200821	PROB	n/a	LTP100	ltpFR	9	n/a	n/a	n/a	n/a	n/a	n/a	n/a	10	5	1	4	n/a	n/a	n/a	n/a	n/a
92202527	PROB	n/a	LTP100	ltpFR	9	n/a	n/a	n/a	n/a	n/a	n/a	n/a	14	7	4	3	n/a	n/a	n/a	n/a	n/a
92204608	PROB	n/a	LTP100	ltpFR	9	n/a	n/a	n/a	n/a	n/a	n/a	n/a	18	9	8	1	n/a	n/a	n/a	n/a	n/a
92206242	STOP	n/a	LTP100	ltpFR	9	n/a	n/a	n/a	n/a	n/a	n/a	n/a	n/a	n/a	n/a	n/a	n/a	n/a	n/a	n/a	n/a
92208529	WORD	wordpools/wasnorm_wordpool.txt	LTP100	ltpFR	9	9	1	IDOL	733	n/a	n/a	1	n/a	0	0	0	0.422607421875	0.5869140625	0	lower	amplitud.ttf
92211534	START	n/a	LTP100	ltpFR	9	n/a	n/a	n/a	n/a	n/a	n/a	n/a	n/a	n/a	n/a	n/a	n/a	n/a	n/a	n/a	n/a
92212724	PROB	n/a	LTP100	ltpFR	9	n/a	n/a	n/a	n/a	n/a	n/a	n/a	8	4	1	3	n/a	n/a	n/a	n/a	n/a
92214380	PROB	n/a	LTP100	ltpFR	9	n/a	n/a	n/a	n/a	n/a	n/a	n/a	19	4	8	7	n/a	n/a	n/a	n/a	n/a
92216003	PROB	n/a	LTP100	ltpFR	9	n/a	n/a	n/a	n/a	n/a	n/a	n/a	8	6	1	1	n/a	n/a	n/a	n/a	n/a
92217094	PROB	n/a	LTP100	ltpFR	9	n/a	n/a	n/a	n/a	n/a	n/a	n/a	18	4	6	8	n/a	n/a	n/a	n/a	n/a
92218258	STOP	n/a	LTP100	ltpFR	9	n/a	n/a	n/a	n/a	n/a	n/a	n/a	n/a	n/a	n/a	n/a	n/a	n/a	n/a	n/a	n/a
92220365	WORD	wordpools/wasnorm_wordpool.txt	LTP100	ltpFR	9	9	1	PITCHFORK	1078	n/a	n/a	0	n/a	0	0	0	0.422607421875	0.5869140625	0	lower	amplitud.ttf
92223370	START	n/a	LTP100	ltpFR	9	n/a	n/a	n/a	n/a	n/a	n/a	n/a	n/a	n/a	n/a	n/a	n/a	n/a	n/a	n/a	n/a
92224294	PROB	n/a	LTP100	ltpFR	9	n/a	n/a	n/a	n/a	n/a	n/a	n/a	12	5	1	6	n/a	n/a	n/a	n/a	n/a
92226117	PROB	n/a	LTP100	ltpFR	9	n/a	n/a	n/a	n/a	n/a	n/a	n/a	13	1	5	7	n/a	n/a	n/a	n/a	n/a
92228073	PROB	n/a	LTP100	ltpFR	9	n/a	n/a	n/a	n/a	n/a	n/a	n/a	14	4	3	7	n/a	n/a	n/a	n/a	n/a
92229271	PROB	n/a	LTP100	ltpFR	9	n/a	n/a	n/a	n/a	n/a	n/a	n/a	9	1	2	6	n/a	n/a	n/a	n/a	n/a
92230514	STOP	n/a	LTP100	ltpFR	9	n/a	n/a	n/a	n/a	n/a	n/a	n/a	n/a	n/a	n/a	n/a	n/a	n/a	n/a	n/a	n/a
92232484	WORD	wordpools/wasnorm_wordpool.txt	LTP100	ltpFR	9	9	1	CRIB	407	n/a	n/a	0	n/a	0	0	0	0.422607421875	0.5869140625	0	lower	amplitud.ttf
92235490	START	n/a	LTP100	ltpFR	9	n/a	n/a	n/a	n/a	n/a	n/a	n/a	n/a	n/a	n/a	n/a	n/a	n/a	n/a	n/a	n/a
92236455	PROB	n/a	LTP100	ltpFR	9	n/a	n/a	n/a	n/a	n/a	n/a	n/a	19	8	5	6	n/a	n/a	n/a	n/a	n/a
92238069	PROB	n/a	LTP100	ltpFR	9	n/a	n/a	n/a	n/a	n/a	n/a	n/a	15	6	7	2	n/a	n/a	n/a	n/a	n/a
92239576	PROB	n/a	LTP100	ltpFR	9	n/a	n/a	n/a	n/a	n/a	n/a	n/a	19	8	8	3	n/a	n/a	n/a	n/a	n/a
92241515	PROB	n/a	LTP100	ltpFR	9	n/a	n/a	n/a	n/a	n/a	n/a	n/a	15	6	4	5	n/a	n/a	n/a	n/a	n/a
92242538	STOP	n/a	LTP100	ltpFR	9	n/a	n/a	n/a	n/a	n/a	n/a	n/a	n/a	n/a	n/a	n/a	n/a	n/a	n/a	n/a	n/a
92244337	WORD	wordpools/wasnorm_wordpool.txt	LTP100	ltpFR	9	9	1	INFANT	737	n/a	n/a	1	n/a	0	0	0	0.422607421875	0.5869140625	0	lower	amplitud.ttf
92247342	START	n/a	LTP100	ltpFR	9	n/a	n/a	n/a	n/a	n/a	n/a	n/a	n/a	n/a	n/a	n/a	n/a	n/a	n/a	n/a	n/a
92248274	PROB	n/a	LTP100	ltpFR	9	n/a	n/a	n/a	n/a	n/a	n/a	n/a	19	2	8	9	n/a	n/a	n/a	n/a	n/a
92250322	PROB	n/a	LTP100	ltpFR	9	n/a	n/a	n/a	n/a	n/a	n/a	n/a	4	1	2	1	n/a	n/a	n/a	n/a	n/a
92251412	PROB	n/a	LTP100	ltpFR	9	n/a	n/a	n/a	n/a	n/a	n/a	n/a	13	2	2	9	n/a	n/a	n/a	n/a	n/a
92255342	STOP	n/a	LTP100	ltpFR	9	n/a	n/a	n/a	n/a	n/a	n/a	n/a	n/a	n/a	n/a	n/a	n/a	n/a	n/a	n/a	n/a
92256290	WORD	wordpools/wasnorm_wordpool.txt	LTP100	ltpFR	9	9	1	GLUE	643	n/a	n/a	0	n/a	0	0	0	0.422607421875	0.5869140625	0	lower	amplitud.ttf
92259295	START	n/a	LTP100	ltpFR	9	n/a	n/a	n/a	n/a	n/a	n/a	n/a	n/a	n/a	n/a	n/a	n/a	n/a	n/a	n/a	n/a
92260177	PROB	n/a	LTP100	ltpFR	9	n/a	n/a	n/a	n/a	n/a	n/a	n/a	14	5	8	1	n/a	n/a	n/a	n/a	n/a
92262316	PROB	n/a	LTP100	ltpFR	9	n/a	n/a	n/a	n/a	n/a	n/a	n/a	18	9	3	6	n/a	n/a	n/a	n/a	n/a
92264164	PROB	n/a	LTP100	ltpFR	9	n/a	n/a	n/a	n/a	n/a	n/a	n/a	22	7	8	7	n/a	n/a	n/a	n/a	n/a
92265704	PROB	n/a	LTP100	ltpFR	9	n/a	n/a	n/a	n/a	n/a	n/a	n/a	12	3	7	2	n/a	n/a	n/a	n/a	n/a
92266922	STOP	n/a	LTP100	ltpFR	9	n/a	n/a	n/a	n/a	n/a	n/a	n/a	n/a	n/a	n/a	n/a	n/a	n/a	n/a	n/a	n/a
92268276	WORD	wordpools/wasnorm_wordpool.txt	LTP100	ltpFR	9	9	1	GUM	672	n/a	n/a	0	n/a	0	0	0	0.422607421875	0.5869140625	0	lower	amplitud.ttf
92271281	START	n/a	LTP100	ltpFR	9	n/a	n/a	n/a	n/a	n/a	n/a	n/a	n/a	n/a	n/a	n/a	n/a	n/a	n/a	n/a	n/a
92272122	PROB	n/a	LTP100	ltpFR	9	n/a	n/a	n/a	n/a	n/a	n/a	n/a	17	8	8	1	n/a	n/a	n/a	n/a	n/a
92273745	PROB	n/a	LTP100	ltpFR	9	n/a	n/a	n/a	n/a	n/a	n/a	n/a	20	8	6	6	n/a	n/a	n/a	n/a	n/a
92275509	PROB	n/a	LTP100	ltpFR	9	n/a	n/a	n/a	n/a	n/a	n/a	n/a	21	9	9	3	n/a	n/a	n/a	n/a	n/a
92277224	PROB	n/a	LTP100	ltpFR	9	n/a	n/a	n/a	n/a	n/a	n/a	n/a	16	6	8	2	n/a	n/a	n/a	n/a	n/a
92279098	STOP	n/a	LTP100	ltpFR	9	n/a	n/a	n/a	n/a	n/a	n/a	n/a	n/a	n/a	n/a	n/a	n/a	n/a	n/a	n/a	n/a
92281162	REC_START	n/a	LTP100	ltpFR	9	9	n/a	n/a	n/a	n/a	n/a	n/a	n/a	0	0	0	n/a	n/a	n/a	n/a	n/a
92301017	REC_WORD	wordpools/wasnorm_wordpool.txt	LTP100	ltpFR	9	9	1	BARTENDER	92	n/a	n/a	1	n/a	0	0	0	n/a	n/a	n/a	n/a	n/a
92302593	REC_WORD	wordpools/wasnorm_wordpool.txt	LTP100	ltpFR	9	9	1	STAFF	1365	n/a	n/a	0	n/a	0	0	0	n/a	n/a	n/a	n/a	n/a
92307128	REC_WORD	wordpools/wasnorm_wordpool.txt	LTP100	ltpFR	9	9	1	INFANT	737	n/a	n/a	1	n/a	0	0	0	n/a	n/a	n/a	n/a	n/a
92319091	REC_WORD	wordpools/wasnorm_wordpool.txt	LTP100	ltpFR	9	9	1	GLUE	643	n/a	n/a	0	n/a	0	0	0	n/a	n/a	n/a	n/a	n/a
92333548	REC_WORD	wordpools/wasnorm_wordpool.txt	LTP100	ltpFR	9	9	1	PIRATE	1074	n/a	n/a	1	n/a	0	0	0	n/a	n/a	n/a	n/a	n/a
92381253	WORD	wordpools/wasnorm_wordpool.txt	LTP100	ltpFR	9	10	1	WHIP	1604	n/a	n/a	0	n/a	0	0	0	0.422607421875	0.5869140625	0	lower	amplitud.ttf
92385382	WORD	wordpools/wasnorm_wordpool.txt	LTP100	ltpFR	9	10	1	DAD	433	n/a	n/a	1	n/a	0	0	0	0.422607421875	0.5869140625	0	lower	amplitud.ttf
92389360	WORD	wordpools/wasnorm_wordpool.txt	LTP100	ltpFR	9	10	1	BRUISE	180	n/a	n/a	0	n/a	0	0	0	0.422607421875	0.5869140625	0	lower	amplitud.ttf
92393439	WORD	wordpools/wasnorm_wordpool.txt	LTP100	ltpFR	9	10	1	COMPUTER	359	n/a	n/a	0	n/a	0	0	0	0.422607421875	0.5869140625	0	lower	amplitud.ttf
92397310	WORD	wordpools/wasnorm_wordpool.txt	LTP100	ltpFR	9	10	1	RECEPTIONIST	1174	n/a	n/a	1	n/a	0	0	0	0.422607421875	0.5869140625	0	lower	amplitud.ttf
92401505	WORD	wordpools/wasnorm_wordpool.txt	LTP100	ltpFR	9	10	1	TOMATO	1476	n/a	n/a	0	n/a	0	0	0	0.422607421875	0.5869140625	0	lower	amplitud.ttf
92405583	WORD	wordpools/wasnorm_wordpool.txt	LTP100	ltpFR	9	10	1	CELERY	266	n/a	n/a	0	n/a	0	0	0	0.422607421875	0.5869140625	0	lower	amplitud.ttf
92409763	WORD	wordpools/wasnorm_wordpool.txt	LTP100	ltpFR	9	10	1	PORT	1110	n/a	n/a	0	n/a	0	0	0	0.422607421875	0.5869140625	0	lower	amplitud.ttf
92413799	WORD	wordpools/wasnorm_wordpool.txt	LTP100	ltpFR	9	10	1	MUMMY	932	n/a	n/a	0	n/a	0	0	0	0.422607421875	0.5869140625	0	lower	amplitud.ttf
92417644	WORD	wordpools/wasnorm_wordpool.txt	LTP100	ltpFR	9	10	1	THIGH	1457	n/a	n/a	0	n/a	0	0	0	0.422607421875	0.5869140625	0	lower	amplitud.ttf
92421590	WORD	wordpools/wasnorm_wordpool.txt	LTP100	ltpFR	9	10	1	BOUQUET	157	n/a	n/a	0	n/a	0	0	0	0.422607421875	0.5869140625	0	lower	amplitud.ttf
92425543	WORD	wordpools/wasnorm_wordpool.txt	LTP100	ltpFR	9	10	1	FELLOW	558	n/a	n/a	1	n/a	0	0	0	0.422607421875	0.5869140625	0	lower	amplitud.ttf
92429722	WORD	wordpools/wasnorm_wordpool.txt	LTP100	ltpFR	9	10	1	VITAMIN	1574	n/a	n/a	0	n/a	0	0	0	0.422607421875	0.5869140625	0	lower	amplitud.ttf
92433776	WORD	wordpools/wasnorm_wordpool.txt	LTP100	ltpFR	9	10	1	CREW	406	n/a	n/a	0	n/a	0	0	0	0.422607421875	0.5869140625	0	lower	amplitud.ttf
92437937	WORD	wordpools/wasnorm_wordpool.txt	LTP100	ltpFR	9	10	1	HAND	683	n/a	n/a	0	n/a	0	0	0	0.422607421875	0.5869140625	0	lower	amplitud.ttf
92442066	WORD	wordpools/wasnorm_wordpool.txt	LTP100	ltpFR	9	10	1	KNUCKLE	789	n/a	n/a	0	n/a	0	0	0	0.422607421875	0.5869140625	0	lower	amplitud.ttf
92445071	START	n/a	LTP100	ltpFR	9	n/a	n/a	n/a	n/a	n/a	n/a	n/a	n/a	n/a	n/a	n/a	n/a	n/a	n/a	n/a	n/a
92446045	PROB	n/a	LTP100	ltpFR	9	n/a	n/a	n/a	n/a	n/a	n/a	n/a	24	8	7	9	n/a	n/a	n/a	n/a	n/a
92448350	PROB	n/a	LTP100	ltpFR	9	n/a	n/a	n/a	n/a	n/a	n/a	n/a	7	2	3	2	n/a	n/a	n/a	n/a	n/a
92450032	PROB	n/a	LTP100	ltpFR	9	n/a	n/a	n/a	n/a	n/a	n/a	n/a	22	9	9	4	n/a	n/a	n/a	n/a	n/a
92453071	STOP	n/a	LTP100	ltpFR	9	n/a	n/a	n/a	n/a	n/a	n/a	n/a	n/a	n/a	n/a	n/a	n/a	n/a	n/a	n/a	n/a
92454810	REC_START	n/a	LTP100	ltpFR	9	10	n/a	n/a	n/a	n/a	n/a	n/a	n/a	0	0	0	n/a	n/a	n/a	n/a	n/a
92457174	REC_WORD	wordpools/wasnorm_wordpool.txt	LTP100	ltpFR	9	10	1	CREW	406	n/a	n/a	0	n/a	0	0	0	n/a	n/a	n/a	n/a	n/a
92457866	REC_WORD	wordpools/wasnorm_wordpool.txt	LTP100	ltpFR	9	10	1	HAND	683	n/a	n/a	0	n/a	0	0	0	n/a	n/a	n/a	n/a	n/a
92458516	REC_WORD	wordpools/wasnorm_wordpool.txt	LTP100	ltpFR	9	10	1	KNUCKLE	789	n/a	n/a	0	n/a	0	0	0	n/a	n/a	n/a	n/a	n/a
92459524	REC_WORD	wordpools/wasnorm_wordpool.txt	LTP100	ltpFR	9	10	1	WHIP	1604	n/a	n/a	0	n/a	0	0	0	n/a	n/a	n/a	n/a	n/a
92460172	REC_WORD	wordpools/wasnorm_wordpool.txt	LTP100	ltpFR	9	10	1	DAD	433	n/a	n/a	1	n/a	0	0	0	n/a	n/a	n/a	n/a	n/a
92460901	REC_WORD	wordpools/wasnorm_wordpool.txt	LTP100	ltpFR	9	10	1	BRUISE	180	n/a	n/a	0	n/a	0	0	0	n/a	n/a	n/a	n/a	n/a
92462560	REC_WORD	wordpools/wasnorm_wordpool.txt	LTP100	ltpFR	9	10	1	COMPUTER	359	n/a	n/a	0	n/a	0	0	0	n/a	n/a	n/a	n/a	n/a
92466389	REC_WORD	wordpools/wasnorm_wordpool.txt	LTP100	ltpFR	9	10	1	RECEPTIONIST	1174	n/a	n/a	1	n/a	0	0	0	n/a	n/a	n/a	n/a	n/a
92478591	REC_WORD	wordpools/wasnorm_wordpool.txt	LTP100	ltpFR	9	10	1	MUMMY	932	n/a	n/a	0	n/a	0	0	0	n/a	n/a	n/a	n/a	n/a
92510752	REC_WORD	wordpools/wasnorm_wordpool.txt	LTP100	ltpFR	9	10	1	CELERY	266	n/a	n/a	0	n/a	0	0	0	n/a	n/a	n/a	n/a	n/a
92511456	REC_WORD	wordpools/wasnorm_wordpool.txt	LTP100	ltpFR	9	10	1	TOMATO	1476	n/a	n/a	0	n/a	0	0	0	n/a	n/a	n/a	n/a	n/a
92524192	REC_WORD	wordpools/wasnorm_wordpool.txt	LTP100	ltpFR	9	10	1	BOUQUET	157	n/a	n/a	0	n/a	0	0	0	n/a	n/a	n/a	n/a	n/a
92530405	REST_REWET	n/a	LTP100	ltpFR	9	10	n/a	n/a	n/a	n/a	n/a	n/a	n/a	0	0	0	n/a	n/a	n/a	n/a	n/a
93005220	START	n/a	LTP100	ltpFR	9	n/a	n/a	n/a	n/a	n/a	n/a	n/a	n/a	n/a	n/a	n/a	n/a	n/a	n/a	n/a	n/a
93006727	PROB	n/a	LTP100	ltpFR	9	n/a	n/a	n/a	n/a	n/a	n/a	n/a	17	4	4	9	n/a	n/a	n/a	n/a	n/a
93008333	PROB	n/a	LTP100	ltpFR	9	n/a	n/a	n/a	n/a	n/a	n/a	n/a	13	4	8	1	n/a	n/a	n/a	n/a	n/a
93009623	PROB	n/a	LTP100	ltpFR	9	n/a	n/a	n/a	n/a	n/a	n/a	n/a	19	7	8	4	n/a	n/a	n/a	n/a	n/a
93011155	PROB	n/a	LTP100	ltpFR	9	n/a	n/a	n/a	n/a	n/a	n/a	n/a	15	7	2	6	n/a	n/a	n/a	n/a	n/a
93013877	PROB	n/a	LTP100	ltpFR	9	n/a	n/a	n/a	n/a	n/a	n/a	n/a	11	6	4	1	n/a	n/a	n/a	n/a	n/a
93014892	PROB	n/a	LTP100	ltpFR	9	n/a	n/a	n/a	n/a	n/a	n/a	n/a	14	1	5	8	n/a	n/a	n/a	n/a	n/a
93016732	PROB	n/a	LTP100	ltpFR	9	n/a	n/a	n/a	n/a	n/a	n/a	n/a	13	1	6	6	n/a	n/a	n/a	n/a	n/a
93017897	PROB	n/a	LTP100	ltpFR	9	n/a	n/a	n/a	n/a	n/a	n/a	n/a	16	2	8	6	n/a	n/a	n/a	n/a	n/a
93019229	PROB	n/a	LTP100	ltpFR	9	n/a	n/a	n/a	n/a	n/a	n/a	n/a	19	8	3	8	n/a	n/a	n/a	n/a	n/a
93021090	STOP	n/a	LTP100	ltpFR	9	n/a	n/a	n/a	n/a	n/a	n/a	n/a	n/a	n/a	n/a	n/a	n/a	n/a	n/a	n/a	n/a
93022092	WORD	wordpools/wasnorm_wordpool.txt	LTP100	ltpFR	9	11	0	OCTOPUS	971	n/a	n/a	1	n/a	0	0	0	0.57763671875	0.412841796875	1	upper	zerothre.ttf
93025097	START	n/a	LTP100	ltpFR	9	n/a	n/a	n/a	n/a	n/a	n/a	n/a	n/a	n/a	n/a	n/a	n/a	n/a	n/a	n/a	n/a
93026270	PROB	n/a	LTP100	ltpFR	9	n/a	n/a	n/a	n/a	n/a	n/a	n/a	16	4	6	6	n/a	n/a	n/a	n/a	n/a
93028426	PROB	n/a	LTP100	ltpFR	9	n/a	n/a	n/a	n/a	n/a	n/a	n/a	13	2	9	2	n/a	n/a	n/a	n/a	n/a
93030166	PROB	n/a	LTP100	ltpFR	9	n/a	n/a	n/a	n/a	n/a	n/a	n/a	14	4	5	5	n/a	n/a	n/a	n/a	n/a
93031598	PROB	n/a	LTP100	ltpFR	9	n/a	n/a	n/a	n/a	n/a	n/a	n/a	21	9	7	5	n/a	n/a	n/a	n/a	n/a
93033529	PROB	n/a	LTP100	ltpFR	9	n/a	n/a	n/a	n/a	n/a	n/a	n/a	19	6	9	4	n/a	n/a	n/a	n/a	n/a
93035360	PROB	n/a	LTP100	ltpFR	9	n/a	n/a	n/a	n/a	n/a	n/a	n/a	15	6	3	6	n/a	n/a	n/a	n/a	n/a
93037133	PROB	n/a	LTP100	ltpFR	9	n/a	n/a	n/a	n/a	n/a	n/a	n/a	12	6	3	3	n/a	n/a	n/a	n/a	n/a
93038731	PROB	n/a	LTP100	ltpFR	9	n/a	n/a	n/a	n/a	n/a	n/a	n/a	20	9	2	9	n/a	n/a	n/a	n/a	n/a
93040242	STOP	n/a	LTP100	ltpFR	9	n/a	n/a	n/a	n/a	n/a	n/a	n/a	n/a	n/a	n/a	n/a	n/a	n/a	n/a	n/a	n/a
93042060	WORD	wordpools/wasnorm_wordpool.txt	LTP100	ltpFR	9	11	0	SPINACH	1352	n/a	n/a	0	n/a	0	0	0	0.57763671875	0.412841796875	1	upper	zerothre.ttf
93045066	START	n/a	LTP100	ltpFR	9	n/a	n/a	n/a	n/a	n/a	n/a	n/a	n/a	n/a	n/a	n/a	n/a	n/a	n/a	n/a	n/a
93046131	PROB	n/a	LTP100	ltpFR	9	n/a	n/a	n/a	n/a	n/a	n/a	n/a	14	4	3	7	n/a	n/a	n/a	n/a	n/a
93047404	PROB	n/a	LTP100	ltpFR	9	n/a	n/a	n/a	n/a	n/a	n/a	n/a	17	9	7	1	n/a	n/a	n/a	n/a	n/a
93049227	PROB	n/a	LTP100	ltpFR	9	n/a	n/a	n/a	n/a	n/a	n/a	n/a	9	2	2	5	n/a	n/a	n/a	n/a	n/a
93050576	PROB	n/a	LTP100	ltpFR	9	n/a	n/a	n/a	n/a	n/a	n/a	n/a	12	3	2	7	n/a	n/a	n/a	n/a	n/a
93052324	PROB	n/a	LTP100	ltpFR	9	n/a	n/a	n/a	n/a	n/a	n/a	n/a	19	1	9	9	n/a	n/a	n/a	n/a	n/a
93053739	PROB	n/a	LTP100	ltpFR	9	n/a	n/a	n/a	n/a	n/a	n/a	n/a	12	7	1	4	n/a	n/a	n/a	n/a	n/a
93055079	PROB	n/a	LTP100	ltpFR	9	n/a	n/a	n/a	n/a	n/a	n/a	n/a	18	9	5	4	n/a	n/a	n/a	n/a	n/a
93056627	PROB	n/a	LTP100	ltpFR	9	n/a	n/a	n/a	n/a	n/a	n/a	n/a	20	9	9	2	n/a	n/a	n/a	n/a	n/a
93058175	PROB	n/a	LTP100	ltpFR	9	n/a	n/a	n/a	n/a	n/a	n/a	n/a	20	8	4	8	n/a	n/a	n/a	n/a	n/a
93059898	STOP	n/a	LTP100	ltpFR	9	n/a	n/a	n/a	n/a	n/a	n/a	n/a	n/a	n/a	n/a	n/a	n/a	n/a	n/a	n/a	n/a
93062237	WORD	wordpools/wasnorm_wordpool.txt	LTP100	ltpFR	9	11	1	TURNIP	1521	n/a	n/a	0	n/a	0	0	0	0.422607421875	0.5869140625	0	lower	amplitud.ttf
93065242	START	n/a	LTP100	ltpFR	9	n/a	n/a	n/a	n/a	n/a	n/a	n/a	n/a	n/a	n/a	n/a	n/a	n/a	n/a	n/a	n/a
93066207	PROB	n/a	LTP100	ltpFR	9	n/a	n/a	n/a	n/a	n/a	n/a	n/a	20	8	6	6	n/a	n/a	n/a	n/a	n/a
93068405	PROB	n/a	LTP100	ltpFR	9	n/a	n/a	n/a	n/a	n/a	n/a	n/a	8	2	4	2	n/a	n/a	n/a	n/a	n/a
93069678	PROB	n/a	LTP100	ltpFR	9	n/a	n/a	n/a	n/a	n/a	n/a	n/a	17	7	6	4	n/a	n/a	n/a	n/a	n/a
93071626	PROB	n/a	LTP100	ltpFR	9	n/a	n/a	n/a	n/a	n/a	n/a	n/a	18	1	8	9	n/a	n/a	n/a	n/a	n/a
93073516	PROB	n/a	LTP100	ltpFR	9	n/a	n/a	n/a	n/a	n/a	n/a	n/a	16	9	2	5	n/a	n/a	n/a	n/a	n/a
93075180	PROB	n/a	LTP100	ltpFR	9	n/a	n/a	n/a	n/a	n/a	n/a	n/a	20	8	8	4	n/a	n/a	n/a	n/a	n/a
93076995	PROB	n/a	LTP100	ltpFR	9	n/a	n/a	n/a	n/a	n/a	n/a	n/a	9	6	2	1	n/a	n/a	n/a	n/a	n/a
93078160	PROB	n/a	LTP100	ltpFR	9	n/a	n/a	n/a	n/a	n/a	n/a	n/a	14	8	4	2	n/a	n/a	n/a	n/a	n/a
93081241	STOP	n/a	LTP100	ltpFR	9	n/a	n/a	n/a	n/a	n/a	n/a	n/a	n/a	n/a	n/a	n/a	n/a	n/a	n/a	n/a	n/a
93082114	WORD	wordpools/wasnorm_wordpool.txt	LTP100	ltpFR	9	11	1	DOUGH	489	n/a	n/a	0	n/a	0	0	0	0.422607421875	0.5869140625	0	lower	amplitud.ttf
93085119	START	n/a	LTP100	ltpFR	9	n/a	n/a	n/a	n/a	n/a	n/a	n/a	n/a	n/a	n/a	n/a	n/a	n/a	n/a	n/a	n/a
93085951	PROB	n/a	LTP100	ltpFR	9	n/a	n/a	n/a	n/a	n/a	n/a	n/a	10	1	8	1	n/a	n/a	n/a	n/a	n/a
93087141	PROB	n/a	LTP100	ltpFR	9	n/a	n/a	n/a	n/a	n/a	n/a	n/a	23	7	9	7	n/a	n/a	n/a	n/a	n/a
93088873	PROB	n/a	LTP100	ltpFR	9	n/a	n/a	n/a	n/a	n/a	n/a	n/a	11	4	4	3	n/a	n/a	n/a	n/a	n/a
93090296	PROB	n/a	LTP100	ltpFR	9	n/a	n/a	n/a	n/a	n/a	n/a	n/a	17	6	8	3	n/a	n/a	n/a	n/a	n/a
93091886	PROB	n/a	LTP100	ltpFR	9	n/a	n/a	n/a	n/a	n/a	n/a	n/a	16	6	4	6	n/a	n/a	n/a	n/a	n/a
93093376	PROB	n/a	LTP100	ltpFR	9	n/a	n/a	n/a	n/a	n/a	n/a	n/a	9	3	4	2	n/a	n/a	n/a	n/a	n/a
93094741	PROB	n/a	LTP100	ltpFR	9	n/a	n/a	n/a	n/a	n/a	n/a	n/a	20	6	9	5	n/a	n/a	n/a	n/a	n/a
93097113	PROB	n/a	LTP100	ltpFR	9	n/a	n/a	n/a	n/a	n/a	n/a	n/a	18	7	7	4	n/a	n/a	n/a	n/a	n/a
93098628	PROB	n/a	LTP100	ltpFR	9	n/a	n/a	n/a	n/a	n/a	n/a	n/a	22	6	8	8	n/a	n/a	n/a	n/a	n/a
93100738	STOP	n/a	LTP100	ltpFR	9	n/a	n/a	n/a	n/a	n/a	n/a	n/a	n/a	n/a	n/a	n/a	n/a	n/a	n/a	n/a	n/a
93101974	WORD	wordpools/wasnorm_wordpool.txt	LTP100	ltpFR	9	11	1	BUTTER	205	n/a	n/a	0	n/a	0	0	0	0.422607421875	0.5869140625	0	lower	amplitud.ttf
93104979	START	n/a	LTP100	ltpFR	9	n/a	n/a	n/a	n/a	n/a	n/a	n/a	n/a	n/a	n/a	n/a	n/a	n/a	n/a	n/a	n/a
93105878	PROB	n/a	LTP100	ltpFR	9	n/a	n/a	n/a	n/a	n/a	n/a	n/a	10	1	2	7	n/a	n/a	n/a	n/a	n/a
93107368	PROB	n/a	LTP100	ltpFR	9	n/a	n/a	n/a	n/a	n/a	n/a	n/a	21	9	7	5	n/a	n/a	n/a	n/a	n/a
93108941	PROB	n/a	LTP100	ltpFR	9	n/a	n/a	n/a	n/a	n/a	n/a	n/a	9	5	3	1	n/a	n/a	n/a	n/a	n/a
93110090	PROB	n/a	LTP100	ltpFR	9	n/a	n/a	n/a	n/a	n/a	n/a	n/a	17	7	9	1	n/a	n/a	n/a	n/a	n/a
93111463	PROB	n/a	LTP100	ltpFR	9	n/a	n/a	n/a	n/a	n/a	n/a	n/a	11	3	1	7	n/a	n/a	n/a	n/a	n/a
93112763	PROB	n/a	LTP100	ltpFR	9	n/a	n/a	n/a	n/a	n/a	n/a	n/a	18	9	7	2	n/a	n/a	n/a	n/a	n/a
93114501	PROB	n/a	LTP100	ltpFR	9	n/a	n/a	n/a	n/a	n/a	n/a	n/a	8	6	1	1	n/a	n/a	n/a	n/a	n/a
93115558	PROB	n/a	LTP100	ltpFR	9	n/a	n/a	n/a	n/a	n/a	n/a	n/a	17	3	8	6	n/a	n/a	n/a	n/a	n/a
93117231	PROB	n/a	LTP100	ltpFR	9	n/a	n/a	n/a	n/a	n/a	n/a	n/a	15	5	2	8	n/a	n/a	n/a	n/a	n/a
93118838	PROB	n/a	LTP100	ltpFR	9	n/a	n/a	n/a	n/a	n/a	n/a	n/a	12	4	7	1	n/a	n/a	n/a	n/a	n/a
93120338	STOP	n/a	LTP100	ltpFR	9	n/a	n/a	n/a	n/a	n/a	n/a	n/a	n/a	n/a	n/a	n/a	n/a	n/a	n/a	n/a	n/a
93121826	WORD	wordpools/wasnorm_wordpool.txt	LTP100	ltpFR	9	11	1	FIN	566	n/a	n/a	0	n/a	0	0	0	0.422607421875	0.5869140625	0	lower	amplitud.ttf
93124831	START	n/a	LTP100	ltpFR	9	n/a	n/a	n/a	n/a	n/a	n/a	n/a	n/a	n/a	n/a	n/a	n/a	n/a	n/a	n/a	n/a
93125713	PROB	n/a	LTP100	ltpFR	9	n/a	n/a	n/a	n/a	n/a	n/a	n/a	21	9	5	7	n/a	n/a	n/a	n/a	n/a
93127336	PROB	n/a	LTP100	ltpFR	9	n/a	n/a	n/a	n/a	n/a	n/a	n/a	12	4	7	1	n/a	n/a	n/a	n/a	n/a
93128585	PROB	n/a	LTP100	ltpFR	9	n/a	n/a	n/a	n/a	n/a	n/a	n/a	17	7	7	3	n/a	n/a	n/a	n/a	n/a
93130258	PROB	n/a	LTP100	ltpFR	9	n/a	n/a	n/a	n/a	n/a	n/a	n/a	15	5	5	5	n/a	n/a	n/a	n/a	n/a
93132106	PROB	n/a	LTP100	ltpFR	9	n/a	n/a	n/a	n/a	n/a	n/a	n/a	9	4	1	4	n/a	n/a	n/a	n/a	n/a
93133346	PROB	n/a	LTP100	ltpFR	9	n/a	n/a	n/a	n/a	n/a	n/a	n/a	19	3	9	7	n/a	n/a	n/a	n/a	n/a
93135111	PROB	n/a	LTP100	ltpFR	9	n/a	n/a	n/a	n/a	n/a	n/a	n/a	10	1	3	6	n/a	n/a	n/a	n/a	n/a
93136667	PROB	n/a	LTP100	ltpFR	9	n/a	n/a	n/a	n/a	n/a	n/a	n/a	24	6	9	9	n/a	n/a	n/a	n/a	n/a
93140066	STOP	n/a	LTP100	ltpFR	9	n/a	n/a	n/a	n/a	n/a	n/a	n/a	n/a	n/a	n/a	n/a	n/a	n/a	n/a	n/a	n/a
93141869	WORD	wordpools/wasnorm_wordpool.txt	LTP100	ltpFR	9	11	0	CIRCUS	311	n/a	n/a	1	n/a	0	0	0	0.57763671875	0.412841796875	1	upper	zerothre.ttf
93144875	START	n/a	LTP100	ltpFR	9	n/a	n/a	n/a	n/a	n/a	n/a	n/a	n/a	n/a	n/a	n/a	n/a	n/a	n/a	n/a	n/a
93145774	PROB	n/a	LTP100	ltpFR	9	n/a	n/a	n/a	n/a	n/a	n/a	n/a	17	6	4	7	n/a	n/a	n/a	n/a	n/a
93147688	PROB	n/a	LTP100	ltpFR	9	n/a	n/a	n/a	n/a	n/a	n/a	n/a	18	9	4	5	n/a	n/a	n/a	n/a	n/a
93149635	PROB	n/a	LTP100	ltpFR	9	n/a	n/a	n/a	n/a	n/a	n/a	n/a	12	3	4	5	n/a	n/a	n/a	n/a	n/a
93151042	PROB	n/a	LTP100	ltpFR	9	n/a	n/a	n/a	n/a	n/a	n/a	n/a	20	5	7	8	n/a	n/a	n/a	n/a	n/a
93152665	PROB	n/a	LTP100	ltpFR	9	n/a	n/a	n/a	n/a	n/a	n/a	n/a	11	4	5	2	n/a	n/a	n/a	n/a	n/a
93153881	PROB	n/a	LTP100	ltpFR	9	n/a	n/a	n/a	n/a	n/a	n/a	n/a	14	8	3	3	n/a	n/a	n/a	n/a	n/a
93155395	PROB	n/a	LTP100	ltpFR	9	n/a	n/a	n/a	n/a	n/a	n/a	n/a	14	1	4	9	n/a	n/a	n/a	n/a	n/a
93156711	PROB	n/a	LTP100	ltpFR	9	n/a	n/a	n/a	n/a	n/a	n/a	n/a	15	3	3	9	n/a	n/a	n/a	n/a	n/a
93157967	PROB	n/a	LTP100	ltpFR	9	n/a	n/a	n/a	n/a	n/a	n/a	n/a	16	5	6	5	n/a	n/a	n/a	n/a	n/a
93160146	STOP	n/a	LTP100	ltpFR	9	n/a	n/a	n/a	n/a	n/a	n/a	n/a	n/a	n/a	n/a	n/a	n/a	n/a	n/a	n/a	n/a
93162046	WORD	wordpools/wasnorm_wordpool.txt	LTP100	ltpFR	9	11	0	BEDROOM	111	n/a	n/a	1	n/a	0	0	0	0.57763671875	0.412841796875	1	upper	zerothre.ttf
93165051	START	n/a	LTP100	ltpFR	9	n/a	n/a	n/a	n/a	n/a	n/a	n/a	n/a	n/a	n/a	n/a	n/a	n/a	n/a	n/a	n/a
93166166	PROB	n/a	LTP100	ltpFR	9	n/a	n/a	n/a	n/a	n/a	n/a	n/a	14	8	2	4	n/a	n/a	n/a	n/a	n/a
93167365	PROB	n/a	LTP100	ltpFR	9	n/a	n/a	n/a	n/a	n/a	n/a	n/a	13	7	4	2	n/a	n/a	n/a	n/a	n/a
93169629	PROB	n/a	LTP100	ltpFR	9	n/a	n/a	n/a	n/a	n/a	n/a	n/a	18	8	3	7	n/a	n/a	n/a	n/a	n/a
93171177	PROB	n/a	LTP100	ltpFR	9	n/a	n/a	n/a	n/a	n/a	n/a	n/a	15	6	1	8	n/a	n/a	n/a	n/a	n/a
93172667	PROB	n/a	LTP100	ltpFR	9	n/a	n/a	n/a	n/a	n/a	n/a	n/a	16	9	5	2	n/a	n/a	n/a	n/a	n/a
93174157	PROB	n/a	LTP100	ltpFR	9	n/a	n/a	n/a	n/a	n/a	n/a	n/a	16	7	7	2	n/a	n/a	n/a	n/a	n/a
93175655	PROB	n/a	LTP100	ltpFR	9	n/a	n/a	n/a	n/a	n/a	n/a	n/a	23	7	8	8	n/a	n/a	n/a	n/a	n/a
93178519	PROB	n/a	LTP100	ltpFR	9	n/a	n/a	n/a	n/a	n/a	n/a	n/a	15	6	7	2	n/a	n/a	n/a	n/a	n/a
93180170	STOP	n/a	LTP100	ltpFR	9	n/a	n/a	n/a	n/a	n/a	n/a	n/a	n/a	n/a	n/a	n/a	n/a	n/a	n/a	n/a	n/a
93182039	WORD	wordpools/wasnorm_wordpool.txt	LTP100	ltpFR	9	11	0	KIWI	781	n/a	n/a	0	n/a	0	0	0	0.57763671875	0.412841796875	1	upper	zerothre.ttf
93185045	START	n/a	LTP100	ltpFR	9	n/a	n/a	n/a	n/a	n/a	n/a	n/a	n/a	n/a	n/a	n/a	n/a	n/a	n/a	n/a	n/a
93185852	PROB	n/a	LTP100	ltpFR	9	n/a	n/a	n/a	n/a	n/a	n/a	n/a	7	3	3	1	n/a	n/a	n/a	n/a	n/a
93187042	PROB	n/a	LTP100	ltpFR	9	n/a	n/a	n/a	n/a	n/a	n/a	n/a	18	8	2	8	n/a	n/a	n/a	n/a	n/a
93188307	PROB	n/a	LTP100	ltpFR	9	n/a	n/a	n/a	n/a	n/a	n/a	n/a	11	4	3	4	n/a	n/a	n/a	n/a	n/a
93190122	PROB	n/a	LTP100	ltpFR	9	n/a	n/a	n/a	n/a	n/a	n/a	n/a	22	9	4	9	n/a	n/a	n/a	n/a	n/a
93191779	PROB	n/a	LTP100	ltpFR	9	n/a	n/a	n/a	n/a	n/a	n/a	n/a	9	1	4	4	n/a	n/a	n/a	n/a	n/a
93192910	PROB	n/a	LTP100	ltpFR	9	n/a	n/a	n/a	n/a	n/a	n/a	n/a	19	5	7	7	n/a	n/a	n/a	n/a	n/a
93194383	PROB	n/a	LTP100	ltpFR	9	n/a	n/a	n/a	n/a	n/a	n/a	n/a	13	6	6	1	n/a	n/a	n/a	n/a	n/a
93195524	PROB	n/a	LTP100	ltpFR	9	n/a	n/a	n/a	n/a	n/a	n/a	n/a	19	7	4	8	n/a	n/a	n/a	n/a	n/a
93197472	PROB	n/a	LTP100	ltpFR	9	n/a	n/a	n/a	n/a	n/a	n/a	n/a	11	7	2	2	n/a	n/a	n/a	n/a	n/a
93198712	PROB	n/a	LTP100	ltpFR	9	n/a	n/a	n/a	n/a	n/a	n/a	n/a	13	3	8	2	n/a	n/a	n/a	n/a	n/a
93200050	STOP	n/a	LTP100	ltpFR	9	n/a	n/a	n/a	n/a	n/a	n/a	n/a	n/a	n/a	n/a	n/a	n/a	n/a	n/a	n/a	n/a
93201875	WORD	wordpools/wasnorm_wordpool.txt	LTP100	ltpFR	9	11	0	MONGOOSE	909	n/a	n/a	1	n/a	0	0	0	0.57763671875	0.412841796875	1	upper	zerothre.ttf
93204947	START	n/a	LTP100	ltpFR	9	n/a	n/a	n/a	n/a	n/a	n/a	n/a	n/a	n/a	n/a	n/a	n/a	n/a	n/a	n/a	n/a
93205870	PROB	n/a	LTP100	ltpFR	9	n/a	n/a	n/a	n/a	n/a	n/a	n/a	18	8	2	8	n/a	n/a	n/a	n/a	n/a
93207527	PROB	n/a	LTP100	ltpFR	9	n/a	n/a	n/a	n/a	n/a	n/a	n/a	17	1	9	7	n/a	n/a	n/a	n/a	n/a
93208776	PROB	n/a	LTP100	ltpFR	9	n/a	n/a	n/a	n/a	n/a	n/a	n/a	15	5	6	4	n/a	n/a	n/a	n/a	n/a
93210923	PROB	n/a	LTP100	ltpFR	9	n/a	n/a	n/a	n/a	n/a	n/a	n/a	5	1	2	2	n/a	n/a	n/a	n/a	n/a
93211963	PROB	n/a	LTP100	ltpFR	9	n/a	n/a	n/a	n/a	n/a	n/a	n/a	12	8	2	2	n/a	n/a	n/a	n/a	n/a
93213345	PROB	n/a	LTP100	ltpFR	9	n/a	n/a	n/a	n/a	n/a	n/a	n/a	20	5	6	9	n/a	n/a	n/a	n/a	n/a
93215043	PROB	n/a	LTP100	ltpFR	9	n/a	n/a	n/a	n/a	n/a	n/a	n/a	13	2	3	8	n/a	n/a	n/a	n/a	n/a
93217140	PROB	n/a	LTP100	ltpFR	9	n/a	n/a	n/a	n/a	n/a	n/a	n/a	15	5	6	4	n/a	n/a	n/a	n/a	n/a
93218773	PROB	n/a	LTP100	ltpFR	9	n/a	n/a	n/a	n/a	n/a	n/a	n/a	23	9	7	7	n/a	n/a	n/a	n/a	n/a
93220362	STOP	n/a	LTP100	ltpFR	9	n/a	n/a	n/a	n/a	n/a	n/a	n/a	n/a	n/a	n/a	n/a	n/a	n/a	n/a	n/a	n/a
93221843	WORD	wordpools/wasnorm_wordpool.txt	LTP100	ltpFR	9	11	0	FROG	608	n/a	n/a	0	n/a	0	0	0	0.57763671875	0.412841796875	1	upper	zerothre.ttf
93224849	START	n/a	LTP100	ltpFR	9	n/a	n/a	n/a	n/a	n/a	n/a	n/a	n/a	n/a	n/a	n/a	n/a	n/a	n/a	n/a	n/a
93225963	PROB	n/a	LTP100	ltpFR	9	n/a	n/a	n/a	n/a	n/a	n/a	n/a	11	2	3	6	n/a	n/a	n/a	n/a	n/a
93228128	PROB	n/a	LTP100	ltpFR	9	n/a	n/a	n/a	n/a	n/a	n/a	n/a	10	3	1	6	n/a	n/a	n/a	n/a	n/a
93230034	PROB	n/a	LTP100	ltpFR	9	n/a	n/a	n/a	n/a	n/a	n/a	n/a	11	1	4	6	n/a	n/a	n/a	n/a	n/a
93231166	PROB	n/a	LTP100	ltpFR	9	n/a	n/a	n/a	n/a	n/a	n/a	n/a	19	3	9	7	n/a	n/a	n/a	n/a	n/a
93232706	PROB	n/a	LTP100	ltpFR	9	n/a	n/a	n/a	n/a	n/a	n/a	n/a	6	1	1	4	n/a	n/a	n/a	n/a	n/a
93233804	PROB	n/a	LTP100	ltpFR	9	n/a	n/a	n/a	n/a	n/a	n/a	n/a	14	6	1	7	n/a	n/a	n/a	n/a	n/a
93235178	PROB	n/a	LTP100	ltpFR	9	n/a	n/a	n/a	n/a	n/a	n/a	n/a	15	3	7	5	n/a	n/a	n/a	n/a	n/a
93236401	PROB	n/a	LTP100	ltpFR	9	n/a	n/a	n/a	n/a	n/a	n/a	n/a	18	9	3	6	n/a	n/a	n/a	n/a	n/a
93237991	PROB	n/a	LTP100	ltpFR	9	n/a	n/a	n/a	n/a	n/a	n/a	n/a	19	9	4	6	n/a	n/a	n/a	n/a	n/a
93239330	STOP	n/a	LTP100	ltpFR	9	n/a	n/a	n/a	n/a	n/a	n/a	n/a	n/a	n/a	n/a	n/a	n/a	n/a	n/a	n/a	n/a
93241745	WORD	wordpools/wasnorm_wordpool.txt	LTP100	ltpFR	9	11	0	HAMMOCK	681	n/a	n/a	0	n/a	0	0	0	0.57763671875	0.412841796875	1	upper	zerothre.ttf
93244751	START	n/a	LTP100	ltpFR	9	n/a	n/a	n/a	n/a	n/a	n/a	n/a	n/a	n/a	n/a	n/a	n/a	n/a	n/a	n/a	n/a
93245690	PROB	n/a	LTP100	ltpFR	9	n/a	n/a	n/a	n/a	n/a	n/a	n/a	13	3	1	9	n/a	n/a	n/a	n/a	n/a
93247505	PROB	n/a	LTP100	ltpFR	9	n/a	n/a	n/a	n/a	n/a	n/a	n/a	16	7	3	6	n/a	n/a	n/a	n/a	n/a
93248662	PROB	n/a	LTP100	ltpFR	9	n/a	n/a	n/a	n/a	n/a	n/a	n/a	22	8	5	9	n/a	n/a	n/a	n/a	n/a
93250718	PROB	n/a	LTP100	ltpFR	9	n/a	n/a	n/a	n/a	n/a	n/a	n/a	19	2	8	9	n/a	n/a	n/a	n/a	n/a
93252250	PROB	n/a	LTP100	ltpFR	9	n/a	n/a	n/a	n/a	n/a	n/a	n/a	16	4	3	9	n/a	n/a	n/a	n/a	n/a
93253774	PROB	n/a	LTP100	ltpFR	9	n/a	n/a	n/a	n/a	n/a	n/a	n/a	8	1	6	1	n/a	n/a	n/a	n/a	n/a
93254805	PROB	n/a	LTP100	ltpFR	9	n/a	n/a	n/a	n/a	n/a	n/a	n/a	9	3	1	5	n/a	n/a	n/a	n/a	n/a
93256078	PROB	n/a	LTP100	ltpFR	9	n/a	n/a	n/a	n/a	n/a	n/a	n/a	19	5	9	5	n/a	n/a	n/a	n/a	n/a
93257410	PROB	n/a	LTP100	ltpFR	9	n/a	n/a	n/a	n/a	n/a	n/a	n/a	16	5	2	9	n/a	n/a	n/a	n/a	n/a
93258958	PROB	n/a	LTP100	ltpFR	9	n/a	n/a	n/a	n/a	n/a	n/a	n/a	18	5	7	6	n/a	n/a	n/a	n/a	n/a
93260538	STOP	n/a	LTP100	ltpFR	9	n/a	n/a	n/a	n/a	n/a	n/a	n/a	n/a	n/a	n/a	n/a	n/a	n/a	n/a	n/a	n/a
93261913	WORD	wordpools/wasnorm_wordpool.txt	LTP100	ltpFR	9	11	1	TOTE	1487	n/a	n/a	0	n/a	0	0	0	0.422607421875	0.5869140625	0	lower	amplitud.ttf
93264919	START	n/a	LTP100	ltpFR	9	n/a	n/a	n/a	n/a	n/a	n/a	n/a	n/a	n/a	n/a	n/a	n/a	n/a	n/a	n/a	n/a
93266108	PROB	n/a	LTP100	ltpFR	9	n/a	n/a	n/a	n/a	n/a	n/a	n/a	10	1	5	4	n/a	n/a	n/a	n/a	n/a
93267282	PROB	n/a	LTP100	ltpFR	9	n/a	n/a	n/a	n/a	n/a	n/a	n/a	9	5	3	1	n/a	n/a	n/a	n/a	n/a
93268406	PROB	n/a	LTP100	ltpFR	9	n/a	n/a	n/a	n/a	n/a	n/a	n/a	13	5	2	6	n/a	n/a	n/a	n/a	n/a
93270387	PROB	n/a	LTP100	ltpFR	9	n/a	n/a	n/a	n/a	n/a	n/a	n/a	7	1	3	3	n/a	n/a	n/a	n/a	n/a
93271577	PROB	n/a	LTP100	ltpFR	9	n/a	n/a	n/a	n/a	n/a	n/a	n/a	14	9	2	3	n/a	n/a	n/a	n/a	n/a
93273167	PROB	n/a	LTP100	ltpFR	9	n/a	n/a	n/a	n/a	n/a	n/a	n/a	16	6	6	4	n/a	n/a	n/a	n/a	n/a
93274766	PROB	n/a	LTP100	ltpFR	9	n/a	n/a	n/a	n/a	n/a	n/a	n/a	21	9	8	4	n/a	n/a	n/a	n/a	n/a
93276804	PROB	n/a	LTP100	ltpFR	9	n/a	n/a	n/a	n/a	n/a	n/a	n/a	14	4	1	9	n/a	n/a	n/a	n/a	n/a
93278228	PROB	n/a	LTP100	ltpFR	9	n/a	n/a	n/a	n/a	n/a	n/a	n/a	19	4	8	7	n/a	n/a	n/a	n/a	n/a
93279666	STOP	n/a	LTP100	ltpFR	9	n/a	n/a	n/a	n/a	n/a	n/a	n/a	n/a	n/a	n/a	n/a	n/a	n/a	n/a	n/a	n/a
93281750	WORD	wordpools/wasnorm_wordpool.txt	LTP100	ltpFR	9	11	1	PRIMATE	1123	n/a	n/a	1	n/a	0	0	0	0.422607421875	0.5869140625	0	lower	amplitud.ttf
93284755	START	n/a	LTP100	ltpFR	9	n/a	n/a	n/a	n/a	n/a	n/a	n/a	n/a	n/a	n/a	n/a	n/a	n/a	n/a	n/a	n/a
93285627	PROB	n/a	LTP100	ltpFR	9	n/a	n/a	n/a	n/a	n/a	n/a	n/a	19	5	5	9	n/a	n/a	n/a	n/a	n/a
93286901	PROB	n/a	LTP100	ltpFR	9	n/a	n/a	n/a	n/a	n/a	n/a	n/a	9	2	3	4	n/a	n/a	n/a	n/a	n/a
93289182	PROB	n/a	LTP100	ltpFR	9	n/a	n/a	n/a	n/a	n/a	n/a	n/a	18	9	2	7	n/a	n/a	n/a	n/a	n/a
93290613	PROB	n/a	LTP100	ltpFR	9	n/a	n/a	n/a	n/a	n/a	n/a	n/a	14	2	8	4	n/a	n/a	n/a	n/a	n/a
93291887	PROB	n/a	LTP100	ltpFR	9	n/a	n/a	n/a	n/a	n/a	n/a	n/a	14	5	7	2	n/a	n/a	n/a	n/a	n/a
93294059	PROB	n/a	LTP100	ltpFR	9	n/a	n/a	n/a	n/a	n/a	n/a	n/a	14	6	4	4	n/a	n/a	n/a	n/a	n/a
93295316	PROB	n/a	LTP100	ltpFR	9	n/a	n/a	n/a	n/a	n/a	n/a	n/a	7	2	4	1	n/a	n/a	n/a	n/a	n/a
93296548	PROB	n/a	LTP100	ltpFR	9	n/a	n/a	n/a	n/a	n/a	n/a	n/a	19	1	9	9	n/a	n/a	n/a	n/a	n/a
93297838	PROB	n/a	LTP100	ltpFR	9	n/a	n/a	n/a	n/a	n/a	n/a	n/a	25	8	9	8	n/a	n/a	n/a	n/a	n/a
93300258	STOP	n/a	LTP100	ltpFR	9	n/a	n/a	n/a	n/a	n/a	n/a	n/a	n/a	n/a	n/a	n/a	n/a	n/a	n/a	n/a	n/a
93301584	WORD	wordpools/wasnorm_wordpool.txt	LTP100	ltpFR	9	11	1	VET	1560	n/a	n/a	1	n/a	0	0	0	0.422607421875	0.5869140625	0	lower	amplitud.ttf
93304589	START	n/a	LTP100	ltpFR	9	n/a	n/a	n/a	n/a	n/a	n/a	n/a	n/a	n/a	n/a	n/a	n/a	n/a	n/a	n/a	n/a
93305429	PROB	n/a	LTP100	ltpFR	9	n/a	n/a	n/a	n/a	n/a	n/a	n/a	16	6	1	9	n/a	n/a	n/a	n/a	n/a
93306754	PROB	n/a	LTP100	ltpFR	9	n/a	n/a	n/a	n/a	n/a	n/a	n/a	12	8	3	1	n/a	n/a	n/a	n/a	n/a
93308026	PROB	n/a	LTP100	ltpFR	9	n/a	n/a	n/a	n/a	n/a	n/a	n/a	20	3	8	9	n/a	n/a	n/a	n/a	n/a
93309683	PROB	n/a	LTP100	ltpFR	9	n/a	n/a	n/a	n/a	n/a	n/a	n/a	15	7	5	3	n/a	n/a	n/a	n/a	n/a
93311164	PROB	n/a	LTP100	ltpFR	9	n/a	n/a	n/a	n/a	n/a	n/a	n/a	12	8	3	1	n/a	n/a	n/a	n/a	n/a
93312580	PROB	n/a	LTP100	ltpFR	9	n/a	n/a	n/a	n/a	n/a	n/a	n/a	12	4	2	6	n/a	n/a	n/a	n/a	n/a
93313945	PROB	n/a	LTP100	ltpFR	9	n/a	n/a	n/a	n/a	n/a	n/a	n/a	8	2	4	2	n/a	n/a	n/a	n/a	n/a
