onset	duration	trial_type	sample	stim_file	subject	experiment	session	trial	task	item_name	item_num	recog_resp	recog_conf	resp	color_r	color_g	color_b	case	font
261.668	n/a	SESS_START	130834	n/a	LTP145	ltpFR	17	n/a	n/a	n/a	n/a	0	1	n/a	n/a	n/a	n/a	n/a	n/a
310.314	n/a	WORD	155157	wordpools/wasnorm_wordpool.txt	LTP145	ltpFR	17	1	1	CHECKERS	285	0	n/a	0	0.422607421875	0.5869140625	0	upper	amplitud.ttf
314.304	n/a	WORD	157152	wordpools/wasnorm_wordpool.txt	LTP145	ltpFR	17	1	1	OINTMENT	974	n/a	n/a	0	0.422607421875	0.5869140625	0	upper	amplitud.ttf
318.126	n/a	WORD	159063	wordpools/wasnorm_wordpool.txt	LTP145	ltpFR	17	1	1	JUPITER	765	n/a	n/a	0	0.422607421875	0.5869140625	0	upper	amplitud.ttf
322.108	n/a	WORD	161054	wordpools/wasnorm_wordpool.txt	LTP145	ltpFR	17	1	0	OVEN	991	n/a	n/a	1	0.57763671875	0.412841796875	1	lower	zerothre.ttf
326.1	n/a	WORD	163050	wordpools/wasnorm_wordpool.txt	LTP145	ltpFR	17	1	0	PLATE	1086	n/a	n/a	0	0.57763671875	0.412841796875	1	lower	zerothre.ttf
330.006	n/a	WORD	165003	wordpools/wasnorm_wordpool.txt	LTP145	ltpFR	17	1	0	GULL	671	n/a	n/a	0	0.57763671875	0.412841796875	1	lower	zerothre.ttf
333.864	n/a	WORD	166932	wordpools/wasnorm_wordpool.txt	LTP145	ltpFR	17	1	1	ELF	525	n/a	n/a	1	0.422607421875	0.5869140625	0	upper	amplitud.ttf
337.92	n/a	WORD	168960	wordpools/wasnorm_wordpool.txt	LTP145	ltpFR	17	1	1	POISON	1096	n/a	n/a	0	0.422607421875	0.5869140625	0	upper	amplitud.ttf
342.02	n/a	WORD	171010	wordpools/wasnorm_wordpool.txt	LTP145	ltpFR	17	1	1	SPIDER	1351	n/a	n/a	0	0.422607421875	0.5869140625	0	upper	amplitud.ttf
346.126	n/a	WORD	173063	wordpools/wasnorm_wordpool.txt	LTP145	ltpFR	17	1	1	PIT	1077	n/a	n/a	0	0.422607421875	0.5869140625	0	upper	amplitud.ttf
349.958	n/a	WORD	174979	wordpools/wasnorm_wordpool.txt	LTP145	ltpFR	17	1	1	CAVE	263	n/a	n/a	0	0.422607421875	0.5869140625	0	upper	amplitud.ttf
354.074	n/a	WORD	177037	wordpools/wasnorm_wordpool.txt	LTP145	ltpFR	17	1	0	INN	739	n/a	n/a	1	0.57763671875	0.412841796875	1	lower	zerothre.ttf
357.898	n/a	WORD	178949	wordpools/wasnorm_wordpool.txt	LTP145	ltpFR	17	1	0	COACH	331	n/a	n/a	1	0.57763671875	0.412841796875	1	lower	zerothre.ttf
362.004	n/a	WORD	181002	wordpools/wasnorm_wordpool.txt	LTP145	ltpFR	17	1	0	ROACH	1195	n/a	n/a	0	0.57763671875	0.412841796875	1	lower	zerothre.ttf
365.97	n/a	WORD	182985	wordpools/wasnorm_wordpool.txt	LTP145	ltpFR	17	1	0	CHOCOLATE	306	n/a	n/a	0	0.57763671875	0.412841796875	1	lower	zerothre.ttf
369.828	n/a	WORD	184914	wordpools/wasnorm_wordpool.txt	LTP145	ltpFR	17	1	0	PUDDING	1139	n/a	n/a	0	0.57763671875	0.412841796875	1	lower	zerothre.ttf
375.736	n/a	REC_START	187868	n/a	LTP145	ltpFR	17	1	n/a	n/a	n/a	n/a	n/a	n/a	n/a	n/a	n/a	n/a	n/a
377.286	n/a	REC_WORD	188643	wordpools/wasnorm_wordpool.txt	LTP145	ltpFR	17	1	0	CHOCOLATE	306	n/a	n/a	0	n/a	n/a	n/a	n/a	n/a
378.49	n/a	REC_WORD	189245	wordpools/wasnorm_wordpool.txt	LTP145	ltpFR	17	1	0	PUDDING	1139	n/a	n/a	0	n/a	n/a	n/a	n/a	n/a
380.26	n/a	REC_WORD	190130	wordpools/wasnorm_wordpool.txt	LTP145	ltpFR	17	1	0	OVEN	991	n/a	n/a	1	n/a	n/a	n/a	n/a	n/a
381.458	n/a	REC_WORD	190729	wordpools/wasnorm_wordpool.txt	LTP145	ltpFR	17	1	0	INN	739	n/a	n/a	1	n/a	n/a	n/a	n/a	n/a
382.774	n/a	REC_WORD	191387	wordpools/wasnorm_wordpool.txt	LTP145	ltpFR	17	1	0	PLATE	1086	n/a	n/a	0	n/a	n/a	n/a	n/a	n/a
383.946	n/a	REC_WORD	191973	wordpools/wasnorm_wordpool.txt	LTP145	ltpFR	17	1	1	JUPITER	765	n/a	n/a	0	n/a	n/a	n/a	n/a	n/a
385.524	n/a	REC_WORD	192762	wordpools/wasnorm_wordpool.txt	LTP145	ltpFR	17	1	0	GULL	671	n/a	n/a	0	n/a	n/a	n/a	n/a	n/a
393.706	n/a	REC_WORD	196853	wordpools/wasnorm_wordpool.txt	LTP145	ltpFR	17	1	1	OINTMENT	974	n/a	n/a	0	n/a	n/a	n/a	n/a	n/a
395.018	n/a	REC_WORD	197509	wordpools/wasnorm_wordpool.txt	LTP145	ltpFR	17	1	1	CHECKERS	285	n/a	n/a	0	n/a	n/a	n/a	n/a	n/a
396.774	n/a	REC_WORD	198387	wordpools/wasnorm_wordpool.txt	LTP145	ltpFR	17	1	1	ELF	525	n/a	n/a	1	n/a	n/a	n/a	n/a	n/a
407.774	n/a	REC_WORD	203887	wordpools/wasnorm_wordpool.txt	LTP145	ltpFR	17	1	1	CAVE	263	n/a	n/a	0	n/a	n/a	n/a	n/a	n/a
408.886	n/a	REC_WORD	204443	wordpools/wasnorm_wordpool.txt	LTP145	ltpFR	17	1	1	PIT	1077	n/a	n/a	0	n/a	n/a	n/a	n/a	n/a
453.844	n/a	WORD	226922	wordpools/wasnorm_wordpool.txt	LTP145	ltpFR	17	2	0	STONE	1385	n/a	n/a	0	0.57763671875	0.412841796875	1	lower	zerothre.ttf
458.018	n/a	WORD	229009	wordpools/wasnorm_wordpool.txt	LTP145	ltpFR	17	2	0	ACTOR	5	n/a	n/a	1	0.57763671875	0.412841796875	1	lower	zerothre.ttf
461.958	n/a	WORD	230979	wordpools/wasnorm_wordpool.txt	LTP145	ltpFR	17	2	0	TURNIP	1521	n/a	n/a	0	0.57763671875	0.412841796875	1	lower	zerothre.ttf
466.114	n/a	WORD	233057	wordpools/wasnorm_wordpool.txt	LTP145	ltpFR	17	2	0	GAZELLE	628	n/a	n/a	1	0.57763671875	0.412841796875	1	lower	zerothre.ttf
470.29	n/a	WORD	235145	wordpools/wasnorm_wordpool.txt	LTP145	ltpFR	17	2	1	FURNITURE	616	n/a	n/a	0	0.422607421875	0.5869140625	0	upper	amplitud.ttf
474.206	n/a	WORD	237103	wordpools/wasnorm_wordpool.txt	LTP145	ltpFR	17	2	1	STOOL	1386	n/a	n/a	0	0.422607421875	0.5869140625	0	upper	amplitud.ttf
478.378	n/a	WORD	239189	wordpools/wasnorm_wordpool.txt	LTP145	ltpFR	17	2	1	CANDIDATE	228	n/a	n/a	1	0.422607421875	0.5869140625	0	upper	amplitud.ttf
482.31	n/a	WORD	241155	wordpools/wasnorm_wordpool.txt	LTP145	ltpFR	17	2	1	RAKE	1164	n/a	n/a	0	0.422607421875	0.5869140625	0	upper	amplitud.ttf
486.352	n/a	WORD	243176	wordpools/wasnorm_wordpool.txt	LTP145	ltpFR	17	2	0	CRUMB	416	n/a	n/a	0	0.57763671875	0.412841796875	1	lower	zerothre.ttf
490.408	n/a	WORD	245204	wordpools/wasnorm_wordpool.txt	LTP145	ltpFR	17	2	0	SWEATER	1419	n/a	n/a	0	0.57763671875	0.412841796875	1	lower	zerothre.ttf
494.556	n/a	WORD	247278	wordpools/wasnorm_wordpool.txt	LTP145	ltpFR	17	2	1	POCKET	1093	n/a	n/a	0	0.422607421875	0.5869140625	0	upper	amplitud.ttf
498.588	n/a	WORD	249294	wordpools/wasnorm_wordpool.txt	LTP145	ltpFR	17	2	1	FOSSIL	596	n/a	n/a	0	0.422607421875	0.5869140625	0	upper	amplitud.ttf
502.454	n/a	WORD	251227	wordpools/wasnorm_wordpool.txt	LTP145	ltpFR	17	2	1	STEM	1376	n/a	n/a	0	0.422607421875	0.5869140625	0	upper	amplitud.ttf
506.304	n/a	WORD	253152	wordpools/wasnorm_wordpool.txt	LTP145	ltpFR	17	2	1	MARINE	869	n/a	n/a	1	0.422607421875	0.5869140625	0	upper	amplitud.ttf
510.22	n/a	WORD	255110	wordpools/wasnorm_wordpool.txt	LTP145	ltpFR	17	2	0	FISH	571	n/a	n/a	0	0.57763671875	0.412841796875	1	lower	zerothre.ttf
514.418	n/a	WORD	257209	wordpools/wasnorm_wordpool.txt	LTP145	ltpFR	17	2	0	PRODUCER	1129	n/a	n/a	1	0.57763671875	0.412841796875	1	lower	zerothre.ttf
520.058	n/a	REC_START	260029	n/a	LTP145	ltpFR	17	2	n/a	n/a	n/a	n/a	n/a	n/a	n/a	n/a	n/a	n/a	n/a
521.574	n/a	REC_WORD	260787	wordpools/wasnorm_wordpool.txt	LTP145	ltpFR	17	2	0	PRODUCER	1129	n/a	n/a	1	n/a	n/a	n/a	n/a	n/a
522.816	n/a	REC_WORD	261408	wordpools/wasnorm_wordpool.txt	LTP145	ltpFR	17	2	0	ACTOR	5	n/a	n/a	1	n/a	n/a	n/a	n/a	n/a
523.954	n/a	REC_WORD	261977	wordpools/wasnorm_wordpool.txt	LTP145	ltpFR	17	2	0	COACH	331	n/a	n/a	1	n/a	n/a	n/a	n/a	n/a
528.982	n/a	REC_WORD	264491	wordpools/wasnorm_wordpool.txt	LTP145	ltpFR	17	2	0	FISH	571	n/a	n/a	0	n/a	n/a	n/a	n/a	n/a
530.036	n/a	REC_WORD	265018	wordpools/wasnorm_wordpool.txt	LTP145	ltpFR	17	2	1	MARINE	869	n/a	n/a	1	n/a	n/a	n/a	n/a	n/a
542.922	n/a	REC_WORD	271461	wordpools/wasnorm_wordpool.txt	LTP145	ltpFR	17	2	0	STONE	1385	n/a	n/a	0	n/a	n/a	n/a	n/a	n/a
544.284	n/a	REC_WORD	272142	wordpools/wasnorm_wordpool.txt	LTP145	ltpFR	17	2	0	TURNIP	1521	n/a	n/a	0	n/a	n/a	n/a	n/a	n/a
547.682	n/a	REC_WORD	273841	wordpools/wasnorm_wordpool.txt	LTP145	ltpFR	17	2	0	GAZELLE	628	n/a	n/a	1	n/a	n/a	n/a	n/a	n/a
548.848	n/a	REC_WORD	274424	wordpools/wasnorm_wordpool.txt	LTP145	ltpFR	17	2	1	STOOL	1386	n/a	n/a	0	n/a	n/a	n/a	n/a	n/a
550.266	n/a	REC_WORD	275133	wordpools/wasnorm_wordpool.txt	LTP145	ltpFR	17	2	1	FURNITURE	616	n/a	n/a	0	n/a	n/a	n/a	n/a	n/a
571.492	n/a	REC_WORD	285746	wordpools/wasnorm_wordpool.txt	LTP145	ltpFR	17	2	1	STEM	1376	n/a	n/a	0	n/a	n/a	n/a	n/a	n/a
578.696	n/a	REC_WORD	289348	wordpools/wasnorm_wordpool.txt	LTP145	ltpFR	17	2	1	FOSSIL	596	n/a	n/a	0	n/a	n/a	n/a	n/a	n/a
583.84	n/a	REC_WORD	291920	wordpools/wasnorm_wordpool.txt	LTP145	ltpFR	17	2	1	SPIDER	1351	n/a	n/a	0	n/a	n/a	n/a	n/a	n/a
598.308	n/a	WORD	299154	wordpools/wasnorm_wordpool.txt	LTP145	ltpFR	17	3	-1	POCKETBOOK	1094	n/a	n/a	-1	1.0	1.0	1	upper	Verdana.ttf
602.34	n/a	WORD	301170	wordpools/wasnorm_wordpool.txt	LTP145	ltpFR	17	3	-1	PROTRACTOR	1133	n/a	n/a	-1	1.0	1.0	1	upper	Verdana.ttf
606.49	n/a	WORD	303245	wordpools/wasnorm_wordpool.txt	LTP145	ltpFR	17	3	-1	LIMB	822	n/a	n/a	-1	1.0	1.0	1	upper	Verdana.ttf
610.43	n/a	WORD	305215	wordpools/wasnorm_wordpool.txt	LTP145	ltpFR	17	3	-1	EWE	542	n/a	n/a	-1	1.0	1.0	1	upper	Verdana.ttf
614.536	n/a	WORD	307268	wordpools/wasnorm_wordpool.txt	LTP145	ltpFR	17	3	-1	GOAT	644	n/a	n/a	-1	1.0	1.0	1	upper	Verdana.ttf
618.578	n/a	WORD	309289	wordpools/wasnorm_wordpool.txt	LTP145	ltpFR	17	3	-1	THUMB	1462	n/a	n/a	-1	1.0	1.0	1	upper	Verdana.ttf
622.394	n/a	WORD	311197	wordpools/wasnorm_wordpool.txt	LTP145	ltpFR	17	3	-1	LILY	821	n/a	n/a	-1	1.0	1.0	1	upper	Verdana.ttf
626.542	n/a	WORD	313271	wordpools/wasnorm_wordpool.txt	LTP145	ltpFR	17	3	-1	SNAIL	1332	n/a	n/a	-1	1.0	1.0	1	upper	Verdana.ttf
630.674	n/a	WORD	315337	wordpools/wasnorm_wordpool.txt	LTP145	ltpFR	17	3	-1	BOULEVARD	156	n/a	n/a	-1	1.0	1.0	1	upper	Verdana.ttf
634.656	n/a	WORD	317328	wordpools/wasnorm_wordpool.txt	LTP145	ltpFR	17	3	-1	PLANT	1083	n/a	n/a	-1	1.0	1.0	1	upper	Verdana.ttf
638.506	n/a	WORD	319253	wordpools/wasnorm_wordpool.txt	LTP145	ltpFR	17	3	-1	HELMET	702	n/a	n/a	-1	1.0	1.0	1	upper	Verdana.ttf
642.396	n/a	WORD	321198	wordpools/wasnorm_wordpool.txt	LTP145	ltpFR	17	3	-1	JUG	762	n/a	n/a	-1	1.0	1.0	1	upper	Verdana.ttf
646.32	n/a	WORD	323160	wordpools/wasnorm_wordpool.txt	LTP145	ltpFR	17	3	-1	PUMP	1141	n/a	n/a	-1	1.0	1.0	1	upper	Verdana.ttf
650.336	n/a	WORD	325168	wordpools/wasnorm_wordpool.txt	LTP145	ltpFR	17	3	-1	ALLEY	15	n/a	n/a	-1	1.0	1.0	1	upper	Verdana.ttf
654.516	n/a	WORD	327258	wordpools/wasnorm_wordpool.txt	LTP145	ltpFR	17	3	-1	CLASS	318	n/a	n/a	-1	1.0	1.0	1	upper	Verdana.ttf
658.532	n/a	WORD	329266	wordpools/wasnorm_wordpool.txt	LTP145	ltpFR	17	3	-1	PAGE	1001	n/a	n/a	-1	1.0	1.0	1	upper	Verdana.ttf
664.53	n/a	REC_START	332265	n/a	LTP145	ltpFR	17	3	n/a	n/a	n/a	n/a	n/a	n/a	n/a	n/a	n/a	n/a	n/a
665.718	n/a	REC_WORD	332859	wordpools/wasnorm_wordpool.txt	LTP145	ltpFR	17	3	-1	PAGE	1001	n/a	n/a	-1	n/a	n/a	n/a	n/a	n/a
666.69	n/a	REC_WORD	333345	wordpools/wasnorm_wordpool.txt	LTP145	ltpFR	17	3	-1	POCKETBOOK	1094	n/a	n/a	-1	n/a	n/a	n/a	n/a	n/a
667.69	n/a	REC_WORD_VV	333845	wordpools/wasnorm_wordpool.txt	LTP145	ltpFR	17	3	n/a	<>	-1	n/a	n/a	n/a	n/a	n/a	n/a	n/a	n/a
668.906	n/a	REC_WORD	334453	wordpools/wasnorm_wordpool.txt	LTP145	ltpFR	17	3	-1	PROTRACTOR	1133	n/a	n/a	-1	n/a	n/a	n/a	n/a	n/a
669.906	n/a	REC_WORD_VV	334953	wordpools/wasnorm_wordpool.txt	LTP145	ltpFR	17	3	n/a	<>	-1	n/a	n/a	n/a	n/a	n/a	n/a	n/a	n/a
671.414	n/a	REC_WORD	335707	wordpools/wasnorm_wordpool.txt	LTP145	ltpFR	17	3	-1	THUMB	1462	n/a	n/a	-1	n/a	n/a	n/a	n/a	n/a
672.616	n/a	REC_WORD	336308	wordpools/wasnorm_wordpool.txt	LTP145	ltpFR	17	3	-1	LIMB	822	n/a	n/a	-1	n/a	n/a	n/a	n/a	n/a
673.968	n/a	REC_WORD	336984	wordpools/wasnorm_wordpool.txt	LTP145	ltpFR	17	3	-1	LILY	821	n/a	n/a	-1	n/a	n/a	n/a	n/a	n/a
676.084	n/a	REC_WORD	338042	wordpools/wasnorm_wordpool.txt	LTP145	ltpFR	17	3	-1	SNAIL	1332	n/a	n/a	-1	n/a	n/a	n/a	n/a	n/a
677.566	n/a	REC_WORD	338783	wordpools/wasnorm_wordpool.txt	LTP145	ltpFR	17	3	-1	GOAT	644	n/a	n/a	-1	n/a	n/a	n/a	n/a	n/a
678.694	n/a	REC_WORD	339347	wordpools/wasnorm_wordpool.txt	LTP145	ltpFR	17	3	-1	EWE	542	n/a	n/a	-1	n/a	n/a	n/a	n/a	n/a
687.134	n/a	REC_WORD	343567	wordpools/wasnorm_wordpool.txt	LTP145	ltpFR	17	3	-1	BOULEVARD	156	n/a	n/a	-1	n/a	n/a	n/a	n/a	n/a
688.112	n/a	REC_WORD	344056	wordpools/wasnorm_wordpool.txt	LTP145	ltpFR	17	3	-1	ALLEY	15	n/a	n/a	-1	n/a	n/a	n/a	n/a	n/a
689.076	n/a	REC_WORD	344538	wordpools/wasnorm_wordpool.txt	LTP145	ltpFR	17	3	-1	CLASS	318	n/a	n/a	-1	n/a	n/a	n/a	n/a	n/a
705.184	n/a	REC_WORD	352592	wordpools/wasnorm_wordpool.txt	LTP145	ltpFR	17	3	-1	PUMP	1141	n/a	n/a	-1	n/a	n/a	n/a	n/a	n/a
706.936	n/a	REC_WORD	353468	wordpools/wasnorm_wordpool.txt	LTP145	ltpFR	17	3	-1	JUG	762	n/a	n/a	-1	n/a	n/a	n/a	n/a	n/a
721.584	n/a	REC_WORD	360792	wordpools/wasnorm_wordpool.txt	LTP145	ltpFR	17	3	-1	HELMET	702	n/a	n/a	-1	n/a	n/a	n/a	n/a	n/a
743.056	n/a	WORD	371528	wordpools/wasnorm_wordpool.txt	LTP145	ltpFR	17	4	0	BEAVER	109	n/a	n/a	0	0.57763671875	0.412841796875	1	lower	zerothre.ttf
746.93	n/a	WORD	373465	wordpools/wasnorm_wordpool.txt	LTP145	ltpFR	17	4	0	MOOSE	915	n/a	n/a	1	0.57763671875	0.412841796875	1	lower	zerothre.ttf
751.03	n/a	WORD	375515	wordpools/wasnorm_wordpool.txt	LTP145	ltpFR	17	4	0	MANSION	864	n/a	n/a	1	0.57763671875	0.412841796875	1	lower	zerothre.ttf
754.978	n/a	WORD	377489	wordpools/wasnorm_wordpool.txt	LTP145	ltpFR	17	4	0	HOUSE	725	n/a	n/a	1	0.57763671875	0.412841796875	1	lower	zerothre.ttf
758.81	n/a	WORD	379405	wordpools/wasnorm_wordpool.txt	LTP145	ltpFR	17	4	0	MESSAGE	888	n/a	n/a	0	0.57763671875	0.412841796875	1	lower	zerothre.ttf
762.7	n/a	WORD	381350	wordpools/wasnorm_wordpool.txt	LTP145	ltpFR	17	4	0	BLUEBERRY	140	n/a	n/a	0	0.57763671875	0.412841796875	1	lower	zerothre.ttf
766.798	n/a	WORD	383399	wordpools/wasnorm_wordpool.txt	LTP145	ltpFR	17	4	0	CANDY	230	n/a	n/a	0	0.57763671875	0.412841796875	1	lower	zerothre.ttf
770.84	n/a	WORD	385420	wordpools/wasnorm_wordpool.txt	LTP145	ltpFR	17	4	0	GYMNAST	675	n/a	n/a	1	0.57763671875	0.412841796875	1	lower	zerothre.ttf
774.914	n/a	WORD	387457	wordpools/wasnorm_wordpool.txt	LTP145	ltpFR	17	4	0	ARTIST	43	n/a	n/a	1	0.57763671875	0.412841796875	1	lower	zerothre.ttf
778.838	n/a	WORD	389419	wordpools/wasnorm_wordpool.txt	LTP145	ltpFR	17	4	0	WAGON	1578	n/a	n/a	1	0.57763671875	0.412841796875	1	lower	zerothre.ttf
782.968	n/a	WORD	391484	wordpools/wasnorm_wordpool.txt	LTP145	ltpFR	17	4	0	BARLEY	88	n/a	n/a	0	0.57763671875	0.412841796875	1	lower	zerothre.ttf
786.8	n/a	WORD	393400	wordpools/wasnorm_wordpool.txt	LTP145	ltpFR	17	4	0	OPERATOR	979	n/a	n/a	1	0.57763671875	0.412841796875	1	lower	zerothre.ttf
790.776	n/a	WORD	395388	wordpools/wasnorm_wordpool.txt	LTP145	ltpFR	17	4	0	CARNIVAL	245	n/a	n/a	1	0.57763671875	0.412841796875	1	lower	zerothre.ttf
794.95	n/a	WORD	397475	wordpools/wasnorm_wordpool.txt	LTP145	ltpFR	17	4	0	BOTTLE	153	n/a	n/a	0	0.57763671875	0.412841796875	1	lower	zerothre.ttf
798.88	n/a	WORD	399440	wordpools/wasnorm_wordpool.txt	LTP145	ltpFR	17	4	0	CERAMICS	271	n/a	n/a	1	0.57763671875	0.412841796875	1	lower	zerothre.ttf
802.772	n/a	WORD	401386	wordpools/wasnorm_wordpool.txt	LTP145	ltpFR	17	4	0	PAINT	1003	n/a	n/a	0	0.57763671875	0.412841796875	1	lower	zerothre.ttf
808.404	n/a	REC_START	404202	n/a	LTP145	ltpFR	17	4	n/a	n/a	n/a	n/a	n/a	n/a	n/a	n/a	n/a	n/a	n/a
809.826	n/a	REC_WORD	404913	wordpools/wasnorm_wordpool.txt	LTP145	ltpFR	17	4	0	PAINT	1003	n/a	n/a	0	n/a	n/a	n/a	n/a	n/a
810.564	n/a	REC_WORD	405282	wordpools/wasnorm_wordpool.txt	LTP145	ltpFR	17	4	0	CERAMICS	271	n/a	n/a	1	n/a	n/a	n/a	n/a	n/a
811.564	n/a	REC_WORD_VV	405782	wordpools/wasnorm_wordpool.txt	LTP145	ltpFR	17	4	n/a	<>	-1	n/a	n/a	n/a	n/a	n/a	n/a	n/a	n/a
812.75	n/a	REC_WORD	406375	wordpools/wasnorm_wordpool.txt	LTP145	ltpFR	17	4	0	WAGON	1578	n/a	n/a	1	n/a	n/a	n/a	n/a	n/a
813.588	n/a	REC_WORD	406794	wordpools/wasnorm_wordpool.txt	LTP145	ltpFR	17	4	0	BEAVER	109	n/a	n/a	0	n/a	n/a	n/a	n/a	n/a
814.322	n/a	REC_WORD	407161	wordpools/wasnorm_wordpool.txt	LTP145	ltpFR	17	4	0	MOOSE	915	n/a	n/a	1	n/a	n/a	n/a	n/a	n/a
815.298	n/a	REC_WORD	407649	wordpools/wasnorm_wordpool.txt	LTP145	ltpFR	17	4	0	CARNIVAL	245	n/a	n/a	1	n/a	n/a	n/a	n/a	n/a
820.052	n/a	REC_WORD	410026	wordpools/wasnorm_wordpool.txt	LTP145	ltpFR	17	4	0	BLUEBERRY	140	n/a	n/a	0	n/a	n/a	n/a	n/a	n/a
821.052	n/a	REC_WORD_VV	410526	wordpools/wasnorm_wordpool.txt	LTP145	ltpFR	17	4	n/a	<>	-1	n/a	n/a	n/a	n/a	n/a	n/a	n/a	n/a
822.952	n/a	REC_WORD	411476	wordpools/wasnorm_wordpool.txt	LTP145	ltpFR	17	4	0	HOUSE	725	n/a	n/a	1	n/a	n/a	n/a	n/a	n/a
823.774	n/a	REC_WORD	411887	wordpools/wasnorm_wordpool.txt	LTP145	ltpFR	17	4	0	MANSION	864	n/a	n/a	1	n/a	n/a	n/a	n/a	n/a
888.38	n/a	WORD	444190	wordpools/wasnorm_wordpool.txt	LTP145	ltpFR	17	5	-1	HAY	693	n/a	n/a	-1	1.0	1.0	1	upper	Verdana.ttf
892.228	n/a	WORD	446114	wordpools/wasnorm_wordpool.txt	LTP145	ltpFR	17	5	-1	STRAW	1390	n/a	n/a	-1	1.0	1.0	1	upper	Verdana.ttf
896.418	n/a	WORD	448209	wordpools/wasnorm_wordpool.txt	LTP145	ltpFR	17	5	-1	SCENERY	1247	n/a	n/a	-1	1.0	1.0	1	upper	Verdana.ttf
900.45	n/a	WORD	450225	wordpools/wasnorm_wordpool.txt	LTP145	ltpFR	17	5	-1	LAWN	805	n/a	n/a	-1	1.0	1.0	1	upper	Verdana.ttf
904.508	n/a	WORD	452254	wordpools/wasnorm_wordpool.txt	LTP145	ltpFR	17	5	-1	ASTRONAUT	51	n/a	n/a	-1	1.0	1.0	1	upper	Verdana.ttf
908.69	n/a	WORD	454345	wordpools/wasnorm_wordpool.txt	LTP145	ltpFR	17	5	-1	SLIDE	1326	n/a	n/a	-1	1.0	1.0	1	upper	Verdana.ttf
912.564	n/a	WORD	456282	wordpools/wasnorm_wordpool.txt	LTP145	ltpFR	17	5	-1	TOOTHPASTE	1483	n/a	n/a	-1	1.0	1.0	1	upper	Verdana.ttf
916.67	n/a	WORD	458335	wordpools/wasnorm_wordpool.txt	LTP145	ltpFR	17	5	-1	MOUNTAIN	924	n/a	n/a	-1	1.0	1.0	1	upper	Verdana.ttf
920.826	n/a	WORD	460413	wordpools/wasnorm_wordpool.txt	LTP145	ltpFR	17	5	-1	SKI	1316	n/a	n/a	-1	1.0	1.0	1	upper	Verdana.ttf
924.802	n/a	WORD	462401	wordpools/wasnorm_wordpool.txt	LTP145	ltpFR	17	5	-1	WAITRESS	1581	n/a	n/a	-1	1.0	1.0	1	upper	Verdana.ttf
928.626	n/a	WORD	464313	wordpools/wasnorm_wordpool.txt	LTP145	ltpFR	17	5	-1	MOON	914	n/a	n/a	-1	1.0	1.0	1	upper	Verdana.ttf
932.806	n/a	WORD	466403	wordpools/wasnorm_wordpool.txt	LTP145	ltpFR	17	5	-1	SUN	1406	n/a	n/a	-1	1.0	1.0	1	upper	Verdana.ttf
936.838	n/a	WORD	468419	wordpools/wasnorm_wordpool.txt	LTP145	ltpFR	17	5	-1	SPACE	1345	n/a	n/a	-1	1.0	1.0	1	upper	Verdana.ttf
940.872	n/a	WORD	470436	wordpools/wasnorm_wordpool.txt	LTP145	ltpFR	17	5	-1	PLANET	1082	n/a	n/a	-1	1.0	1.0	1	upper	Verdana.ttf
944.778	n/a	WORD	472389	wordpools/wasnorm_wordpool.txt	LTP145	ltpFR	17	5	-1	BUCKET	184	n/a	n/a	-1	1.0	1.0	1	upper	Verdana.ttf
948.794	n/a	WORD	474397	wordpools/wasnorm_wordpool.txt	LTP145	ltpFR	17	5	-1	LANDSCAPE	799	n/a	n/a	-1	1.0	1.0	1	upper	Verdana.ttf
954.626	n/a	REC_START	477313	n/a	LTP145	ltpFR	17	5	n/a	n/a	n/a	n/a	n/a	n/a	n/a	n/a	n/a	n/a	n/a
956.576	n/a	REC_WORD	478288	wordpools/wasnorm_wordpool.txt	LTP145	ltpFR	17	5	-1	MOON	914	n/a	n/a	-1	n/a	n/a	n/a	n/a	n/a
957.426	n/a	REC_WORD	478713	wordpools/wasnorm_wordpool.txt	LTP145	ltpFR	17	5	-1	SUN	1406	n/a	n/a	-1	n/a	n/a	n/a	n/a	n/a
958.516	n/a	REC_WORD	479258	wordpools/wasnorm_wordpool.txt	LTP145	ltpFR	17	5	-1	SPACE	1345	n/a	n/a	-1	n/a	n/a	n/a	n/a	n/a
959.756	n/a	REC_WORD	479878	wordpools/wasnorm_wordpool.txt	LTP145	ltpFR	17	5	-1	PLANET	1082	n/a	n/a	-1	n/a	n/a	n/a	n/a	n/a
961.128	n/a	REC_WORD	480564	wordpools/wasnorm_wordpool.txt	LTP145	ltpFR	17	5	-1	ASTRONAUT	51	n/a	n/a	-1	n/a	n/a	n/a	n/a	n/a
962.708	n/a	REC_WORD	481354	wordpools/wasnorm_wordpool.txt	LTP145	ltpFR	17	5	-1	BUCKET	184	n/a	n/a	-1	n/a	n/a	n/a	n/a	n/a
967.434	n/a	REC_WORD	483717	wordpools/wasnorm_wordpool.txt	LTP145	ltpFR	17	5	-1	SLIDE	1326	n/a	n/a	-1	n/a	n/a	n/a	n/a	n/a
968.564	n/a	REC_WORD	484282	wordpools/wasnorm_wordpool.txt	LTP145	ltpFR	17	5	-1	MOUNTAIN	924	n/a	n/a	-1	n/a	n/a	n/a	n/a	n/a
969.594	n/a	REC_WORD	484797	wordpools/wasnorm_wordpool.txt	LTP145	ltpFR	17	5	-1	SKI	1316	n/a	n/a	-1	n/a	n/a	n/a	n/a	n/a
971.184	n/a	REC_WORD	485592	wordpools/wasnorm_wordpool.txt	LTP145	ltpFR	17	5	-1	WAITRESS	1581	n/a	n/a	-1	n/a	n/a	n/a	n/a	n/a
973.718	n/a	REC_WORD	486859	wordpools/wasnorm_wordpool.txt	LTP145	ltpFR	17	5	-1	STRAW	1390	n/a	n/a	-1	n/a	n/a	n/a	n/a	n/a
974.776	n/a	REC_WORD	487388	wordpools/wasnorm_wordpool.txt	LTP145	ltpFR	17	5	n/a	HAYSTACK	694	n/a	n/a	n/a	n/a	n/a	n/a	n/a	n/a
977.51	n/a	REC_WORD	488755	wordpools/wasnorm_wordpool.txt	LTP145	ltpFR	17	5	-1	LAWN	805	n/a	n/a	-1	n/a	n/a	n/a	n/a	n/a
983.018	n/a	REC_WORD	491509	wordpools/wasnorm_wordpool.txt	LTP145	ltpFR	17	5	-1	TOOTHPASTE	1483	n/a	n/a	-1	n/a	n/a	n/a	n/a	n/a
1033.228	n/a	WORD	516614	wordpools/wasnorm_wordpool.txt	LTP145	ltpFR	17	6	1	BEAST	108	n/a	n/a	1	0.422607421875	0.5869140625	0	upper	amplitud.ttf
1037.1	n/a	WORD	518550	wordpools/wasnorm_wordpool.txt	LTP145	ltpFR	17	6	1	INMATE	738	n/a	n/a	1	0.422607421875	0.5869140625	0	upper	amplitud.ttf
1041.082	n/a	WORD	520541	wordpools/wasnorm_wordpool.txt	LTP145	ltpFR	17	6	1	SUSPECT	1415	n/a	n/a	1	0.422607421875	0.5869140625	0	upper	amplitud.ttf
1045.232	n/a	WORD	522616	wordpools/wasnorm_wordpool.txt	LTP145	ltpFR	17	6	1	COP	376	n/a	n/a	1	0.422607421875	0.5869140625	0	upper	amplitud.ttf
1049.372	n/a	WORD	524686	wordpools/wasnorm_wordpool.txt	LTP145	ltpFR	17	6	1	LETTUCE	814	n/a	n/a	0	0.422607421875	0.5869140625	0	upper	amplitud.ttf
1053.254	n/a	WORD	526627	wordpools/wasnorm_wordpool.txt	LTP145	ltpFR	17	6	1	BEAN	105	n/a	n/a	0	0.422607421875	0.5869140625	0	upper	amplitud.ttf
1057.254	n/a	WORD	528627	wordpools/wasnorm_wordpool.txt	LTP145	ltpFR	17	6	1	GARBAGE	622	n/a	n/a	0	0.422607421875	0.5869140625	0	upper	amplitud.ttf
1061.144	n/a	WORD	530572	wordpools/wasnorm_wordpool.txt	LTP145	ltpFR	17	6	1	DOCK	477	n/a	n/a	0	0.422607421875	0.5869140625	0	upper	amplitud.ttf
1064.992	n/a	WORD	532496	wordpools/wasnorm_wordpool.txt	LTP145	ltpFR	17	6	1	CAPTIVE	240	n/a	n/a	1	0.422607421875	0.5869140625	0	upper	amplitud.ttf
1069.14	n/a	WORD	534570	wordpools/wasnorm_wordpool.txt	LTP145	ltpFR	17	6	1	CAN	225	n/a	n/a	0	0.422607421875	0.5869140625	0	upper	amplitud.ttf
1073.324	n/a	WORD	536662	wordpools/wasnorm_wordpool.txt	LTP145	ltpFR	17	6	1	SHEET	1279	n/a	n/a	0	0.422607421875	0.5869140625	0	upper	amplitud.ttf
1077.456	n/a	WORD	538728	wordpools/wasnorm_wordpool.txt	LTP145	ltpFR	17	6	1	HOOK	715	n/a	n/a	0	0.422607421875	0.5869140625	0	upper	amplitud.ttf
1081.37	n/a	WORD	540685	wordpools/wasnorm_wordpool.txt	LTP145	ltpFR	17	6	1	REGISTER	1180	n/a	n/a	0	0.422607421875	0.5869140625	0	upper	amplitud.ttf
1085.486	n/a	WORD	542743	wordpools/wasnorm_wordpool.txt	LTP145	ltpFR	17	6	1	RAT	1169	n/a	n/a	1	0.422607421875	0.5869140625	0	upper	amplitud.ttf
1089.534	n/a	WORD	544767	wordpools/wasnorm_wordpool.txt	LTP145	ltpFR	17	6	1	CRICKET	408	n/a	n/a	1	0.422607421875	0.5869140625	0	upper	amplitud.ttf
1093.352	n/a	WORD	546676	wordpools/wasnorm_wordpool.txt	LTP145	ltpFR	17	6	1	TERMITE	1451	n/a	n/a	1	0.422607421875	0.5869140625	0	upper	amplitud.ttf
1099.15	n/a	REC_START	549575	n/a	LTP145	ltpFR	17	6	n/a	n/a	n/a	n/a	n/a	n/a	n/a	n/a	n/a	n/a	n/a
1101.638	n/a	REC_WORD	550819	wordpools/wasnorm_wordpool.txt	LTP145	ltpFR	17	6	1	RAT	1169	n/a	n/a	1	n/a	n/a	n/a	n/a	n/a
1103.246	n/a	REC_WORD	551623	wordpools/wasnorm_wordpool.txt	LTP145	ltpFR	17	6	n/a	CAT	257	n/a	n/a	n/a	n/a	n/a	n/a	n/a	n/a
1104.636	n/a	REC_WORD	552318	wordpools/wasnorm_wordpool.txt	LTP145	ltpFR	17	6	1	TERMITE	1451	n/a	n/a	1	n/a	n/a	n/a	n/a	n/a
1106.232	n/a	REC_WORD	553116	wordpools/wasnorm_wordpool.txt	LTP145	ltpFR	17	6	n/a	FLEA	577	n/a	n/a	n/a	n/a	n/a	n/a	n/a	n/a
1107.694	n/a	REC_WORD	553847	wordpools/wasnorm_wordpool.txt	LTP145	ltpFR	17	6	n/a	TICK	1463	n/a	n/a	n/a	n/a	n/a	n/a	n/a	n/a
1111.168	n/a	REC_WORD	555584	wordpools/wasnorm_wordpool.txt	LTP145	ltpFR	17	6	1	SUSPECT	1415	n/a	n/a	1	n/a	n/a	n/a	n/a	n/a
1112.31	n/a	REC_WORD	556155	wordpools/wasnorm_wordpool.txt	LTP145	ltpFR	17	6	1	CAPTIVE	240	n/a	n/a	1	n/a	n/a	n/a	n/a	n/a
1113.532	n/a	REC_WORD	556766	wordpools/wasnorm_wordpool.txt	LTP145	ltpFR	17	6	n/a	CRIMINAL	409	n/a	n/a	n/a	n/a	n/a	n/a	n/a	n/a
1115.0	n/a	REC_WORD	557500	wordpools/wasnorm_wordpool.txt	LTP145	ltpFR	17	6	1	INMATE	738	n/a	n/a	1	n/a	n/a	n/a	n/a	n/a
1123.948	n/a	REC_WORD	561974	wordpools/wasnorm_wordpool.txt	LTP145	ltpFR	17	6	1	COP	376	n/a	n/a	1	n/a	n/a	n/a	n/a	n/a
1132.022	n/a	REC_WORD	566011	wordpools/wasnorm_wordpool.txt	LTP145	ltpFR	17	6	1	SHEET	1279	n/a	n/a	0	n/a	n/a	n/a	n/a	n/a
1179.09	n/a	WORD	589545	wordpools/wasnorm_wordpool.txt	LTP145	ltpFR	17	7	1	FIN	566	n/a	n/a	1	0.422607421875	0.5869140625	0	upper	amplitud.ttf
1182.948	n/a	WORD	591474	wordpools/wasnorm_wordpool.txt	LTP145	ltpFR	17	7	1	PORPOISE	1109	n/a	n/a	1	0.422607421875	0.5869140625	0	upper	amplitud.ttf
1186.864	n/a	WORD	593432	wordpools/wasnorm_wordpool.txt	LTP145	ltpFR	17	7	1	TUXEDO	1525	n/a	n/a	0	0.422607421875	0.5869140625	0	upper	amplitud.ttf
1190.938	n/a	WORD	595469	wordpools/wasnorm_wordpool.txt	LTP145	ltpFR	17	7	1	UNIFORM	1539	n/a	n/a	0	0.422607421875	0.5869140625	0	upper	amplitud.ttf
1194.844	n/a	WORD	597422	wordpools/wasnorm_wordpool.txt	LTP145	ltpFR	17	7	1	FLANNEL	574	n/a	n/a	0	0.422607421875	0.5869140625	0	upper	amplitud.ttf
1198.926	n/a	WORD	599463	wordpools/wasnorm_wordpool.txt	LTP145	ltpFR	17	7	1	WRIST	1626	n/a	n/a	0	0.422607421875	0.5869140625	0	upper	amplitud.ttf
1203.042	n/a	WORD	601521	wordpools/wasnorm_wordpool.txt	LTP145	ltpFR	17	7	1	SHORE	1291	n/a	n/a	0	0.422607421875	0.5869140625	0	upper	amplitud.ttf
1206.908	n/a	WORD	603454	wordpools/wasnorm_wordpool.txt	LTP145	ltpFR	17	7	1	AUTHOR	61	n/a	n/a	1	0.422607421875	0.5869140625	0	upper	amplitud.ttf
1210.982	n/a	WORD	605491	wordpools/wasnorm_wordpool.txt	LTP145	ltpFR	17	7	1	KNEE	784	n/a	n/a	0	0.422607421875	0.5869140625	0	upper	amplitud.ttf
1215.19	n/a	WORD	607595	wordpools/wasnorm_wordpool.txt	LTP145	ltpFR	17	7	1	OFFICER	973	n/a	n/a	1	0.422607421875	0.5869140625	0	upper	amplitud.ttf
1219.046	n/a	WORD	609523	wordpools/wasnorm_wordpool.txt	LTP145	ltpFR	17	7	1	ELBOW	520	n/a	n/a	0	0.422607421875	0.5869140625	0	upper	amplitud.ttf
1223.144	n/a	WORD	611572	wordpools/wasnorm_wordpool.txt	LTP145	ltpFR	17	7	1	VAMPIRE	1547	n/a	n/a	1	0.422607421875	0.5869140625	0	upper	amplitud.ttf
1227.11	n/a	WORD	613555	wordpools/wasnorm_wordpool.txt	LTP145	ltpFR	17	7	1	COLLAR	345	n/a	n/a	0	0.422607421875	0.5869140625	0	upper	amplitud.ttf
1231.058	n/a	WORD	615529	wordpools/wasnorm_wordpool.txt	LTP145	ltpFR	17	7	1	STRAWBERRY	1391	n/a	n/a	0	0.422607421875	0.5869140625	0	upper	amplitud.ttf
1234.998	n/a	WORD	617499	wordpools/wasnorm_wordpool.txt	LTP145	ltpFR	17	7	1	BLACKBERRY	132	n/a	n/a	0	0.422607421875	0.5869140625	0	upper	amplitud.ttf
1239.038	n/a	WORD	619519	wordpools/wasnorm_wordpool.txt	LTP145	ltpFR	17	7	1	STICKER	1382	n/a	n/a	0	0.422607421875	0.5869140625	0	upper	amplitud.ttf
1245.146	n/a	REC_START	622573	n/a	LTP145	ltpFR	17	7	n/a	n/a	n/a	n/a	n/a	n/a	n/a	n/a	n/a	n/a	n/a
1246.03	n/a	REC_WORD	623015	wordpools/wasnorm_wordpool.txt	LTP145	ltpFR	17	7	1	STRAWBERRY	1391	n/a	n/a	0	n/a	n/a	n/a	n/a	n/a
1247.222	n/a	REC_WORD	623611	wordpools/wasnorm_wordpool.txt	LTP145	ltpFR	17	7	1	BLACKBERRY	132	n/a	n/a	0	n/a	n/a	n/a	n/a	n/a
1248.08	n/a	REC_WORD	624040	wordpools/wasnorm_wordpool.txt	LTP145	ltpFR	17	7	0	BLUEBERRY	140	n/a	n/a	0	n/a	n/a	n/a	n/a	n/a
1249.018	n/a	REC_WORD	624509	wordpools/wasnorm_wordpool.txt	LTP145	ltpFR	17	7	1	STICKER	1382	n/a	n/a	0	n/a	n/a	n/a	n/a	n/a
1250.018	n/a	REC_WORD_VV	625009	wordpools/wasnorm_wordpool.txt	LTP145	ltpFR	17	7	n/a	<>	-1	n/a	n/a	n/a	n/a	n/a	n/a	n/a	n/a
1263.948	n/a	REC_WORD_VV	631974	wordpools/wasnorm_wordpool.txt	LTP145	ltpFR	17	7	n/a	<>	-1	n/a	n/a	n/a	n/a	n/a	n/a	n/a	n/a
1278.332	n/a	REC_WORD	639166	wordpools/wasnorm_wordpool.txt	LTP145	ltpFR	17	7	1	WRIST	1626	n/a	n/a	0	n/a	n/a	n/a	n/a	n/a
1279.126	n/a	REC_WORD	639563	wordpools/wasnorm_wordpool.txt	LTP145	ltpFR	17	7	1	ELBOW	520	n/a	n/a	0	n/a	n/a	n/a	n/a	n/a
1279.824	n/a	REC_WORD	639912	wordpools/wasnorm_wordpool.txt	LTP145	ltpFR	17	7	1	KNEE	784	n/a	n/a	0	n/a	n/a	n/a	n/a	n/a
1284.868	n/a	REC_WORD	642434	wordpools/wasnorm_wordpool.txt	LTP145	ltpFR	17	7	1	COLLAR	345	n/a	n/a	0	n/a	n/a	n/a	n/a	n/a
1285.536	n/a	REC_WORD	642768	wordpools/wasnorm_wordpool.txt	LTP145	ltpFR	17	7	1	VAMPIRE	1547	n/a	n/a	1	n/a	n/a	n/a	n/a	n/a
1323.406	n/a	WORD	661703	wordpools/wasnorm_wordpool.txt	LTP145	ltpFR	17	8	1	CONSUMER	365	n/a	n/a	1	0.422607421875	0.5869140625	0	upper	amplitud.ttf
1327.588	n/a	WORD	663794	wordpools/wasnorm_wordpool.txt	LTP145	ltpFR	17	8	1	BUYER	208	n/a	n/a	1	0.422607421875	0.5869140625	0	upper	amplitud.ttf
1331.478	n/a	WORD	665739	wordpools/wasnorm_wordpool.txt	LTP145	ltpFR	17	8	1	PEPPER	1047	n/a	n/a	0	0.422607421875	0.5869140625	0	upper	amplitud.ttf
1335.426	n/a	WORD	667713	wordpools/wasnorm_wordpool.txt	LTP145	ltpFR	17	8	0	CAMEL	223	n/a	n/a	0	0.57763671875	0.412841796875	1	lower	zerothre.ttf
1339.51	n/a	WORD	669755	wordpools/wasnorm_wordpool.txt	LTP145	ltpFR	17	8	0	THIGH	1457	n/a	n/a	0	0.57763671875	0.412841796875	1	lower	zerothre.ttf
1343.5	n/a	WORD	671750	wordpools/wasnorm_wordpool.txt	LTP145	ltpFR	17	8	0	CELLO	268	n/a	n/a	1	0.57763671875	0.412841796875	1	lower	zerothre.ttf
1347.532	n/a	WORD	673766	wordpools/wasnorm_wordpool.txt	LTP145	ltpFR	17	8	0	SEASHORE	1263	n/a	n/a	1	0.57763671875	0.412841796875	1	lower	zerothre.ttf
1351.43	n/a	WORD	675715	wordpools/wasnorm_wordpool.txt	LTP145	ltpFR	17	8	0	CHEEK	287	n/a	n/a	0	0.57763671875	0.412841796875	1	lower	zerothre.ttf
1355.322	n/a	WORD	677661	wordpools/wasnorm_wordpool.txt	LTP145	ltpFR	17	8	0	VIOLA	1570	n/a	n/a	1	0.57763671875	0.412841796875	1	lower	zerothre.ttf
1359.296	n/a	WORD	679648	wordpools/wasnorm_wordpool.txt	LTP145	ltpFR	17	8	1	BOSS	152	n/a	n/a	1	0.422607421875	0.5869140625	0	upper	amplitud.ttf
1363.37	n/a	WORD	681685	wordpools/wasnorm_wordpool.txt	LTP145	ltpFR	17	8	1	VEGETABLE	1552	n/a	n/a	0	0.422607421875	0.5869140625	0	upper	amplitud.ttf
1367.21	n/a	WORD	683605	wordpools/wasnorm_wordpool.txt	LTP145	ltpFR	17	8	1	GROUND	666	n/a	n/a	0	0.422607421875	0.5869140625	0	upper	amplitud.ttf
1371.182	n/a	WORD	685591	wordpools/wasnorm_wordpool.txt	LTP145	ltpFR	17	8	1	MEADOW	881	n/a	n/a	0	0.422607421875	0.5869140625	0	upper	amplitud.ttf
1375.074	n/a	WORD	687537	wordpools/wasnorm_wordpool.txt	LTP145	ltpFR	17	8	1	RAM	1165	n/a	n/a	1	0.422607421875	0.5869140625	0	upper	amplitud.ttf
1379.24	n/a	WORD	689620	wordpools/wasnorm_wordpool.txt	LTP145	ltpFR	17	8	0	PISTON	1076	n/a	n/a	0	0.57763671875	0.412841796875	1	lower	zerothre.ttf
1383.222	n/a	WORD	691611	wordpools/wasnorm_wordpool.txt	LTP145	ltpFR	17	8	0	RUST	1219	n/a	n/a	0	0.57763671875	0.412841796875	1	lower	zerothre.ttf
1389.136	n/a	REC_START	694568	n/a	LTP145	ltpFR	17	8	n/a	n/a	n/a	n/a	n/a	n/a	n/a	n/a	n/a	n/a	n/a
1390.418	n/a	REC_WORD	695209	wordpools/wasnorm_wordpool.txt	LTP145	ltpFR	17	8	0	RUST	1219	n/a	n/a	0	n/a	n/a	n/a	n/a	n/a
1391.396	n/a	REC_WORD	695698	wordpools/wasnorm_wordpool.txt	LTP145	ltpFR	17	8	n/a	PISTOL	1075	n/a	n/a	n/a	n/a	n/a	n/a	n/a	n/a
1393.72	n/a	REC_WORD	696860	wordpools/wasnorm_wordpool.txt	LTP145	ltpFR	17	8	0	THIGH	1457	n/a	n/a	0	n/a	n/a	n/a	n/a	n/a
1395.612	n/a	REC_WORD	697806	wordpools/wasnorm_wordpool.txt	LTP145	ltpFR	17	8	0	CHEEK	287	n/a	n/a	0	n/a	n/a	n/a	n/a	n/a
1396.494	n/a	REC_WORD	698247	wordpools/wasnorm_wordpool.txt	LTP145	ltpFR	17	8	0	VIOLA	1570	n/a	n/a	1	n/a	n/a	n/a	n/a	n/a
1398.26	n/a	REC_WORD	699130	wordpools/wasnorm_wordpool.txt	LTP145	ltpFR	17	8	0	CELLO	268	n/a	n/a	1	n/a	n/a	n/a	n/a	n/a
1399.224	n/a	REC_WORD	699612	wordpools/wasnorm_wordpool.txt	LTP145	ltpFR	17	8	1	MEADOW	881	n/a	n/a	0	n/a	n/a	n/a	n/a	n/a
1402.196	n/a	REC_WORD	701098	wordpools/wasnorm_wordpool.txt	LTP145	ltpFR	17	8	1	PEPPER	1047	n/a	n/a	0	n/a	n/a	n/a	n/a	n/a
1403.364	n/a	REC_WORD	701682	wordpools/wasnorm_wordpool.txt	LTP145	ltpFR	17	8	1	BUYER	208	n/a	n/a	1	n/a	n/a	n/a	n/a	n/a
1404.202	n/a	REC_WORD	702101	wordpools/wasnorm_wordpool.txt	LTP145	ltpFR	17	8	1	CONSUMER	365	n/a	n/a	1	n/a	n/a	n/a	n/a	n/a
1406.332	n/a	REC_WORD	703166	wordpools/wasnorm_wordpool.txt	LTP145	ltpFR	17	8	1	BOSS	152	n/a	n/a	1	n/a	n/a	n/a	n/a	n/a
1432.026	n/a	REC_WORD	716013	wordpools/wasnorm_wordpool.txt	LTP145	ltpFR	17	8	1	VEGETABLE	1552	n/a	n/a	0	n/a	n/a	n/a	n/a	n/a
1443.964	n/a	REC_WORD	721982	wordpools/wasnorm_wordpool.txt	LTP145	ltpFR	17	8	1	GROUND	666	n/a	n/a	0	n/a	n/a	n/a	n/a	n/a
1467.262	n/a	WORD	733631	wordpools/wasnorm_wordpool.txt	LTP145	ltpFR	17	9	1	BALL	73	n/a	n/a	0	0.422607421875	0.5869140625	0	upper	amplitud.ttf
1471.478	n/a	WORD	735739	wordpools/wasnorm_wordpool.txt	LTP145	ltpFR	17	9	1	NET	946	n/a	n/a	0	0.422607421875	0.5869140625	0	upper	amplitud.ttf
1475.418	n/a	WORD	737709	wordpools/wasnorm_wordpool.txt	LTP145	ltpFR	17	9	1	FATHER	554	n/a	n/a	1	0.422607421875	0.5869140625	0	upper	amplitud.ttf
1479.582	n/a	WORD	739791	wordpools/wasnorm_wordpool.txt	LTP145	ltpFR	17	9	1	DRAWER	493	n/a	n/a	0	0.422607421875	0.5869140625	0	upper	amplitud.ttf
1483.482	n/a	WORD	741741	wordpools/wasnorm_wordpool.txt	LTP145	ltpFR	17	9	1	CHEST	295	n/a	n/a	0	0.422607421875	0.5869140625	0	upper	amplitud.ttf
1487.332	n/a	WORD	743666	wordpools/wasnorm_wordpool.txt	LTP145	ltpFR	17	9	1	BERRY	122	n/a	n/a	0	0.422607421875	0.5869140625	0	upper	amplitud.ttf
1491.446	n/a	WORD	745723	wordpools/wasnorm_wordpool.txt	LTP145	ltpFR	17	9	1	SHOELACE	1289	n/a	n/a	0	0.422607421875	0.5869140625	0	upper	amplitud.ttf
1495.436	n/a	WORD	747718	wordpools/wasnorm_wordpool.txt	LTP145	ltpFR	17	9	1	WALNUT	1584	n/a	n/a	0	0.422607421875	0.5869140625	0	upper	amplitud.ttf
1499.344	n/a	WORD	749672	wordpools/wasnorm_wordpool.txt	LTP145	ltpFR	17	9	1	MECHANIC	884	n/a	n/a	1	0.422607421875	0.5869140625	0	upper	amplitud.ttf
1503.234	n/a	WORD	751617	wordpools/wasnorm_wordpool.txt	LTP145	ltpFR	17	9	1	DUNE	506	n/a	n/a	0	0.422607421875	0.5869140625	0	upper	amplitud.ttf
1507.066	n/a	WORD	753533	wordpools/wasnorm_wordpool.txt	LTP145	ltpFR	17	9	1	BINDER	127	n/a	n/a	0	0.422607421875	0.5869140625	0	upper	amplitud.ttf
1511.04	n/a	WORD	755520	wordpools/wasnorm_wordpool.txt	LTP145	ltpFR	17	9	1	FOLDER	588	n/a	n/a	0	0.422607421875	0.5869140625	0	upper	amplitud.ttf
1514.922	n/a	WORD	757461	wordpools/wasnorm_wordpool.txt	LTP145	ltpFR	17	9	1	VINE	1568	n/a	n/a	0	0.422607421875	0.5869140625	0	upper	amplitud.ttf
1519.08	n/a	WORD	759540	wordpools/wasnorm_wordpool.txt	LTP145	ltpFR	17	9	1	AGENT	10	n/a	n/a	1	0.422607421875	0.5869140625	0	upper	amplitud.ttf
1523.136	n/a	WORD	761568	wordpools/wasnorm_wordpool.txt	LTP145	ltpFR	17	9	1	SHRUB	1299	n/a	n/a	0	0.422607421875	0.5869140625	0	upper	amplitud.ttf
1527.01	n/a	WORD	763505	wordpools/wasnorm_wordpool.txt	LTP145	ltpFR	17	9	1	FOOT	590	n/a	n/a	0	0.422607421875	0.5869140625	0	upper	amplitud.ttf
1532.96	n/a	REC_START	766480	n/a	LTP145	ltpFR	17	9	n/a	n/a	n/a	n/a	n/a	n/a	n/a	n/a	n/a	n/a	n/a
1534.42	n/a	REC_WORD	767210	wordpools/wasnorm_wordpool.txt	LTP145	ltpFR	17	9	1	FOOT	590	n/a	n/a	0	n/a	n/a	n/a	n/a	n/a
1535.144	n/a	REC_WORD	767572	wordpools/wasnorm_wordpool.txt	LTP145	ltpFR	17	9	1	MECHANIC	884	n/a	n/a	1	n/a	n/a	n/a	n/a	n/a
1536.322	n/a	REC_WORD	768161	wordpools/wasnorm_wordpool.txt	LTP145	ltpFR	17	9	1	BALL	73	n/a	n/a	0	n/a	n/a	n/a	n/a	n/a
1536.964	n/a	REC_WORD	768482	wordpools/wasnorm_wordpool.txt	LTP145	ltpFR	17	9	1	NET	946	n/a	n/a	0	n/a	n/a	n/a	n/a	n/a
1537.698	n/a	REC_WORD	768849	wordpools/wasnorm_wordpool.txt	LTP145	ltpFR	17	9	1	FATHER	554	n/a	n/a	1	n/a	n/a	n/a	n/a	n/a
1539.354	n/a	REC_WORD	769677	wordpools/wasnorm_wordpool.txt	LTP145	ltpFR	17	9	1	DRAWER	493	n/a	n/a	0	n/a	n/a	n/a	n/a	n/a
1540.428	n/a	REC_WORD	770214	wordpools/wasnorm_wordpool.txt	LTP145	ltpFR	17	9	1	SHOELACE	1289	n/a	n/a	0	n/a	n/a	n/a	n/a	n/a
1541.428	n/a	REC_WORD_VV	770714	wordpools/wasnorm_wordpool.txt	LTP145	ltpFR	17	9	n/a	<>	-1	n/a	n/a	n/a	n/a	n/a	n/a	n/a	n/a
1557.136	n/a	REC_WORD	778568	wordpools/wasnorm_wordpool.txt	LTP145	ltpFR	17	9	1	BINDER	127	n/a	n/a	0	n/a	n/a	n/a	n/a	n/a
1557.828	n/a	REC_WORD	778914	wordpools/wasnorm_wordpool.txt	LTP145	ltpFR	17	9	1	FOLDER	588	n/a	n/a	0	n/a	n/a	n/a	n/a	n/a
1614.816	n/a	WORD	807408	wordpools/wasnorm_wordpool.txt	LTP145	ltpFR	17	10	0	GUN	673	n/a	n/a	0	0.57763671875	0.412841796875	1	lower	zerothre.ttf
1618.774	n/a	WORD	809387	wordpools/wasnorm_wordpool.txt	LTP145	ltpFR	17	10	0	NOMAD	955	n/a	n/a	1	0.57763671875	0.412841796875	1	lower	zerothre.ttf
1622.864	n/a	WORD	811432	wordpools/wasnorm_wordpool.txt	LTP145	ltpFR	17	10	0	WICK	1607	n/a	n/a	0	0.57763671875	0.412841796875	1	lower	zerothre.ttf
1626.956	n/a	WORD	813478	wordpools/wasnorm_wordpool.txt	LTP145	ltpFR	17	10	0	FOREST	593	n/a	n/a	1	0.57763671875	0.412841796875	1	lower	zerothre.ttf
1630.812	n/a	WORD	815406	wordpools/wasnorm_wordpool.txt	LTP145	ltpFR	17	10	1	FLASK	576	n/a	n/a	0	0.422607421875	0.5869140625	0	upper	amplitud.ttf
1634.994	n/a	WORD	817497	wordpools/wasnorm_wordpool.txt	LTP145	ltpFR	17	10	1	BIOLOGIST	128	n/a	n/a	1	0.422607421875	0.5869140625	0	upper	amplitud.ttf
1638.884	n/a	WORD	819442	wordpools/wasnorm_wordpool.txt	LTP145	ltpFR	17	10	0	TREE	1502	n/a	n/a	1	0.57763671875	0.412841796875	1	lower	zerothre.ttf
1642.968	n/a	WORD	821484	wordpools/wasnorm_wordpool.txt	LTP145	ltpFR	17	10	0	TWIG	1527	n/a	n/a	0	0.57763671875	0.412841796875	1	lower	zerothre.ttf
1646.882	n/a	WORD	823441	wordpools/wasnorm_wordpool.txt	LTP145	ltpFR	17	10	0	CONCERT	360	n/a	n/a	1	0.57763671875	0.412841796875	1	lower	zerothre.ttf
1650.898	n/a	WORD	825449	wordpools/wasnorm_wordpool.txt	LTP145	ltpFR	17	10	0	WAITER	1580	n/a	n/a	1	0.57763671875	0.412841796875	1	lower	zerothre.ttf
1654.846	n/a	WORD	827423	wordpools/wasnorm_wordpool.txt	LTP145	ltpFR	17	10	1	KLEENEX	782	n/a	n/a	0	0.422607421875	0.5869140625	0	upper	amplitud.ttf
1658.97	n/a	WORD	829485	wordpools/wasnorm_wordpool.txt	LTP145	ltpFR	17	10	1	STAPLE	1371	n/a	n/a	0	0.422607421875	0.5869140625	0	upper	amplitud.ttf
1662.87	n/a	WORD	831435	wordpools/wasnorm_wordpool.txt	LTP145	ltpFR	17	10	1	APE	31	n/a	n/a	1	0.422607421875	0.5869140625	0	upper	amplitud.ttf
1666.784	n/a	WORD	833392	wordpools/wasnorm_wordpool.txt	LTP145	ltpFR	17	10	1	FIG	563	n/a	n/a	0	0.422607421875	0.5869140625	0	upper	amplitud.ttf
1670.874	n/a	WORD	835437	wordpools/wasnorm_wordpool.txt	LTP145	ltpFR	17	10	1	CABIN	211	n/a	n/a	0	0.422607421875	0.5869140625	0	upper	amplitud.ttf
1674.756	n/a	WORD	837378	wordpools/wasnorm_wordpool.txt	LTP145	ltpFR	17	10	1	CHIEF	298	n/a	n/a	1	0.422607421875	0.5869140625	0	upper	amplitud.ttf
1680.44	n/a	REC_START	840220	n/a	LTP145	ltpFR	17	10	n/a	n/a	n/a	n/a	n/a	n/a	n/a	n/a	n/a	n/a	n/a
1681.766	n/a	REC_WORD	840883	wordpools/wasnorm_wordpool.txt	LTP145	ltpFR	17	10	1	CHIEF	298	n/a	n/a	1	n/a	n/a	n/a	n/a	n/a
1682.944	n/a	REC_WORD	841472	wordpools/wasnorm_wordpool.txt	LTP145	ltpFR	17	10	1	CABIN	211	n/a	n/a	0	n/a	n/a	n/a	n/a	n/a
1683.728	n/a	REC_WORD	841864	wordpools/wasnorm_wordpool.txt	LTP145	ltpFR	17	10	0	NOMAD	955	n/a	n/a	1	n/a	n/a	n/a	n/a	n/a
1684.884	n/a	REC_WORD	842442	wordpools/wasnorm_wordpool.txt	LTP145	ltpFR	17	10	1	APE	31	n/a	n/a	1	n/a	n/a	n/a	n/a	n/a
1686.66	n/a	REC_WORD	843330	wordpools/wasnorm_wordpool.txt	LTP145	ltpFR	17	10	0	FOREST	593	n/a	n/a	1	n/a	n/a	n/a	n/a	n/a
1687.66	n/a	REC_WORD_VV	843830	wordpools/wasnorm_wordpool.txt	LTP145	ltpFR	17	10	n/a	<>	-1	n/a	n/a	n/a	n/a	n/a	n/a	n/a	n/a
1689.22	n/a	REC_WORD	844610	wordpools/wasnorm_wordpool.txt	LTP145	ltpFR	17	10	1	FIG	563	n/a	n/a	0	n/a	n/a	n/a	n/a	n/a
1691.56	n/a	REC_WORD	845780	wordpools/wasnorm_wordpool.txt	LTP145	ltpFR	17	10	1	BERRY	122	n/a	n/a	0	n/a	n/a	n/a	n/a	n/a
1698.514	n/a	REC_WORD	849257	wordpools/wasnorm_wordpool.txt	LTP145	ltpFR	17	10	0	GUN	673	n/a	n/a	0	n/a	n/a	n/a	n/a	n/a
1705.09	n/a	REC_WORD	852545	wordpools/wasnorm_wordpool.txt	LTP145	ltpFR	17	10	1	KLEENEX	782	n/a	n/a	0	n/a	n/a	n/a	n/a	n/a
1763.588	n/a	WORD	881794	wordpools/wasnorm_wordpool.txt	LTP145	ltpFR	17	11	-1	CUB	419	n/a	n/a	-1	1.0	1.0	1	upper	Verdana.ttf
1767.47	n/a	WORD	883735	wordpools/wasnorm_wordpool.txt	LTP145	ltpFR	17	11	-1	CANNON	232	n/a	n/a	-1	1.0	1.0	1	upper	Verdana.ttf
1771.304	n/a	WORD	885652	wordpools/wasnorm_wordpool.txt	LTP145	ltpFR	17	11	-1	SINK	1309	n/a	n/a	-1	1.0	1.0	1	upper	Verdana.ttf
1775.178	n/a	WORD	887589	wordpools/wasnorm_wordpool.txt	LTP145	ltpFR	17	11	-1	PATIO	1025	n/a	n/a	-1	1.0	1.0	1	upper	Verdana.ttf
1779.368	n/a	WORD	889684	wordpools/wasnorm_wordpool.txt	LTP145	ltpFR	17	11	-1	RAILROAD	1162	n/a	n/a	-1	1.0	1.0	1	upper	Verdana.ttf
1783.54	n/a	WORD	891770	wordpools/wasnorm_wordpool.txt	LTP145	ltpFR	17	11	-1	CHIP	303	n/a	n/a	-1	1.0	1.0	1	upper	Verdana.ttf
1787.422	n/a	WORD	893711	wordpools/wasnorm_wordpool.txt	LTP145	ltpFR	17	11	-1	GARAGE	621	n/a	n/a	-1	1.0	1.0	1	upper	Verdana.ttf
1791.598	n/a	WORD	895799	wordpools/wasnorm_wordpool.txt	LTP145	ltpFR	17	11	-1	WHEEL	1603	n/a	n/a	-1	1.0	1.0	1	upper	Verdana.ttf
1795.454	n/a	WORD	897727	wordpools/wasnorm_wordpool.txt	LTP145	ltpFR	17	11	-1	GOLD	647	n/a	n/a	-1	1.0	1.0	1	upper	Verdana.ttf
1799.304	n/a	WORD	899652	wordpools/wasnorm_wordpool.txt	LTP145	ltpFR	17	11	-1	JEWEL	757	n/a	n/a	-1	1.0	1.0	1	upper	Verdana.ttf
1803.32	n/a	WORD	901660	wordpools/wasnorm_wordpool.txt	LTP145	ltpFR	17	11	-1	PLUMBER	1091	n/a	n/a	-1	1.0	1.0	1	upper	Verdana.ttf
1807.276	n/a	WORD	903638	wordpools/wasnorm_wordpool.txt	LTP145	ltpFR	17	11	-1	BRIDGE	174	n/a	n/a	-1	1.0	1.0	1	upper	Verdana.ttf
1811.226	n/a	WORD	905613	wordpools/wasnorm_wordpool.txt	LTP145	ltpFR	17	11	-1	SICKLE	1302	n/a	n/a	-1	1.0	1.0	1	upper	Verdana.ttf
1815.164	n/a	WORD	907582	wordpools/wasnorm_wordpool.txt	LTP145	ltpFR	17	11	-1	CACTUS	215	n/a	n/a	-1	1.0	1.0	1	upper	Verdana.ttf
1819.214	n/a	WORD	909607	wordpools/wasnorm_wordpool.txt	LTP145	ltpFR	17	11	-1	GROCERY	664	n/a	n/a	-1	1.0	1.0	1	upper	Verdana.ttf
1823.062	n/a	WORD	911531	wordpools/wasnorm_wordpool.txt	LTP145	ltpFR	17	11	-1	GRIZZLY	662	n/a	n/a	-1	1.0	1.0	1	upper	Verdana.ttf
1829.012	n/a	REC_START	914506	n/a	LTP145	ltpFR	17	11	n/a	n/a	n/a	n/a	n/a	n/a	n/a	n/a	n/a	n/a	n/a
1830.148	n/a	REC_WORD	915074	wordpools/wasnorm_wordpool.txt	LTP145	ltpFR	17	11	-1	GRIZZLY	662	n/a	n/a	-1	n/a	n/a	n/a	n/a	n/a
1831.112	n/a	REC_WORD	915556	wordpools/wasnorm_wordpool.txt	LTP145	ltpFR	17	11	-1	CUB	419	n/a	n/a	-1	n/a	n/a	n/a	n/a	n/a
1831.95	n/a	REC_WORD	915975	wordpools/wasnorm_wordpool.txt	LTP145	ltpFR	17	11	-1	CANNON	232	n/a	n/a	-1	n/a	n/a	n/a	n/a	n/a
1833.386	n/a	REC_WORD	916693	wordpools/wasnorm_wordpool.txt	LTP145	ltpFR	17	11	-1	SINK	1309	n/a	n/a	-1	n/a	n/a	n/a	n/a	n/a
1835.336	n/a	REC_WORD	917668	wordpools/wasnorm_wordpool.txt	LTP145	ltpFR	17	11	-1	PATIO	1025	n/a	n/a	-1	n/a	n/a	n/a	n/a	n/a
1836.336	n/a	REC_WORD_VV	918168	wordpools/wasnorm_wordpool.txt	LTP145	ltpFR	17	11	n/a	<>	-1	n/a	n/a	n/a	n/a	n/a	n/a	n/a	n/a
1838.59	n/a	REC_WORD	919295	wordpools/wasnorm_wordpool.txt	LTP145	ltpFR	17	11	-1	PLUMBER	1091	n/a	n/a	-1	n/a	n/a	n/a	n/a	n/a
1839.986	n/a	REC_WORD	919993	wordpools/wasnorm_wordpool.txt	LTP145	ltpFR	17	11	-1	GARAGE	621	n/a	n/a	-1	n/a	n/a	n/a	n/a	n/a
1841.698	n/a	REC_WORD	920849	wordpools/wasnorm_wordpool.txt	LTP145	ltpFR	17	11	1	GARBAGE	622	n/a	n/a	0	n/a	n/a	n/a	n/a	n/a
1843.718	n/a	REC_WORD	921859	wordpools/wasnorm_wordpool.txt	LTP145	ltpFR	17	11	-1	WHEEL	1603	n/a	n/a	-1	n/a	n/a	n/a	n/a	n/a
1846.346	n/a	REC_WORD	923173	wordpools/wasnorm_wordpool.txt	LTP145	ltpFR	17	11	-1	BRIDGE	174	n/a	n/a	-1	n/a	n/a	n/a	n/a	n/a
1847.52	n/a	REC_WORD	923760	wordpools/wasnorm_wordpool.txt	LTP145	ltpFR	17	11	-1	RAILROAD	1162	n/a	n/a	-1	n/a	n/a	n/a	n/a	n/a
1851.696	n/a	REC_WORD	925848	wordpools/wasnorm_wordpool.txt	LTP145	ltpFR	17	11	-1	JEWEL	757	n/a	n/a	-1	n/a	n/a	n/a	n/a	n/a
1853.342	n/a	REC_WORD	926671	wordpools/wasnorm_wordpool.txt	LTP145	ltpFR	17	11	-1	GOLD	647	n/a	n/a	-1	n/a	n/a	n/a	n/a	n/a
1908.396	n/a	WORD	954198	wordpools/wasnorm_wordpool.txt	LTP145	ltpFR	17	12	-1	PEN	1041	n/a	n/a	-1	1.0	1.0	1	upper	Verdana.ttf
1912.336	n/a	WORD	956168	wordpools/wasnorm_wordpool.txt	LTP145	ltpFR	17	12	-1	PENCIL	1042	n/a	n/a	-1	1.0	1.0	1	upper	Verdana.ttf
1916.326	n/a	WORD	958163	wordpools/wasnorm_wordpool.txt	LTP145	ltpFR	17	12	-1	HAND	683	n/a	n/a	-1	1.0	1.0	1	upper	Verdana.ttf
1920.19	n/a	WORD	960095	wordpools/wasnorm_wordpool.txt	LTP145	ltpFR	17	12	-1	APPENDAGE	32	n/a	n/a	-1	1.0	1.0	1	upper	Verdana.ttf
1924.25	n/a	WORD	962125	wordpools/wasnorm_wordpool.txt	LTP145	ltpFR	17	12	-1	REINDEER	1181	n/a	n/a	-1	1.0	1.0	1	upper	Verdana.ttf
1928.148	n/a	WORD	964074	wordpools/wasnorm_wordpool.txt	LTP145	ltpFR	17	12	-1	ITEM	746	n/a	n/a	-1	1.0	1.0	1	upper	Verdana.ttf
1932.18	n/a	WORD	966090	wordpools/wasnorm_wordpool.txt	LTP145	ltpFR	17	12	-1	TOY	1492	n/a	n/a	-1	1.0	1.0	1	upper	Verdana.ttf
1936.112	n/a	WORD	968056	wordpools/wasnorm_wordpool.txt	LTP145	ltpFR	17	12	-1	DINNER	468	n/a	n/a	-1	1.0	1.0	1	upper	Verdana.ttf
1940.042	n/a	WORD	970021	wordpools/wasnorm_wordpool.txt	LTP145	ltpFR	17	12	-1	EAR	513	n/a	n/a	-1	1.0	1.0	1	upper	Verdana.ttf
1943.876	n/a	WORD	971938	wordpools/wasnorm_wordpool.txt	LTP145	ltpFR	17	12	-1	HAMBURGER	679	n/a	n/a	-1	1.0	1.0	1	upper	Verdana.ttf
1947.716	n/a	WORD	973858	wordpools/wasnorm_wordpool.txt	LTP145	ltpFR	17	12	-1	STAGE	1366	n/a	n/a	-1	1.0	1.0	1	upper	Verdana.ttf
1951.664	n/a	WORD	975832	wordpools/wasnorm_wordpool.txt	LTP145	ltpFR	17	12	-1	TRIBE	1505	n/a	n/a	-1	1.0	1.0	1	upper	Verdana.ttf
1955.522	n/a	WORD	977761	wordpools/wasnorm_wordpool.txt	LTP145	ltpFR	17	12	-1	DOUGHNUT	490	n/a	n/a	-1	1.0	1.0	1	upper	Verdana.ttf
1959.404	n/a	WORD	979702	wordpools/wasnorm_wordpool.txt	LTP145	ltpFR	17	12	-1	ORNAMENT	985	n/a	n/a	-1	1.0	1.0	1	upper	Verdana.ttf
1963.254	n/a	WORD	981627	wordpools/wasnorm_wordpool.txt	LTP145	ltpFR	17	12	-1	CREATURE	403	n/a	n/a	-1	1.0	1.0	1	upper	Verdana.ttf
1967.302	n/a	WORD	983651	wordpools/wasnorm_wordpool.txt	LTP145	ltpFR	17	12	-1	FOX	598	n/a	n/a	-1	1.0	1.0	1	upper	Verdana.ttf
1973.2	n/a	REC_START	986600	n/a	LTP145	ltpFR	17	12	n/a	n/a	n/a	n/a	n/a	n/a	n/a	n/a	n/a	n/a	n/a
1974.582	n/a	REC_WORD	987291	wordpools/wasnorm_wordpool.txt	LTP145	ltpFR	17	12	-1	FOX	598	n/a	n/a	-1	n/a	n/a	n/a	n/a	n/a
1975.714	n/a	REC_WORD	987857	wordpools/wasnorm_wordpool.txt	LTP145	ltpFR	17	12	-1	ORNAMENT	985	n/a	n/a	-1	n/a	n/a	n/a	n/a	n/a
1986.112	n/a	REC_WORD	993056	wordpools/wasnorm_wordpool.txt	LTP145	ltpFR	17	12	-1	PEN	1041	n/a	n/a	-1	n/a	n/a	n/a	n/a	n/a
1986.936	n/a	REC_WORD	993468	wordpools/wasnorm_wordpool.txt	LTP145	ltpFR	17	12	-1	PENCIL	1042	n/a	n/a	-1	n/a	n/a	n/a	n/a	n/a
1987.928	n/a	REC_WORD	993964	wordpools/wasnorm_wordpool.txt	LTP145	ltpFR	17	12	-1	HAND	683	n/a	n/a	-1	n/a	n/a	n/a	n/a	n/a
1988.71	n/a	REC_WORD	994355	wordpools/wasnorm_wordpool.txt	LTP145	ltpFR	17	12	-1	APPENDAGE	32	n/a	n/a	-1	n/a	n/a	n/a	n/a	n/a
1989.968	n/a	REC_WORD	994984	wordpools/wasnorm_wordpool.txt	LTP145	ltpFR	17	12	-1	EAR	513	n/a	n/a	-1	n/a	n/a	n/a	n/a	n/a
1991.57	n/a	REC_WORD	995785	wordpools/wasnorm_wordpool.txt	LTP145	ltpFR	17	12	-1	DINNER	468	n/a	n/a	-1	n/a	n/a	n/a	n/a	n/a
1992.258	n/a	REC_WORD	996129	wordpools/wasnorm_wordpool.txt	LTP145	ltpFR	17	12	-1	DOUGHNUT	490	n/a	n/a	-1	n/a	n/a	n/a	n/a	n/a
1993.236	n/a	REC_WORD	996618	wordpools/wasnorm_wordpool.txt	LTP145	ltpFR	17	12	-1	TRIBE	1505	n/a	n/a	-1	n/a	n/a	n/a	n/a	n/a
1994.242	n/a	REC_WORD	997121	wordpools/wasnorm_wordpool.txt	LTP145	ltpFR	17	12	-1	STAGE	1366	n/a	n/a	-1	n/a	n/a	n/a	n/a	n/a
2048.81	n/a	REST_REWET	1024405	n/a	LTP145	ltpFR	17	12	n/a	n/a	n/a	n/a	n/a	n/a	n/a	n/a	n/a	n/a	n/a
2317.712	n/a	WORD	1158856	wordpools/wasnorm_wordpool.txt	LTP145	ltpFR	17	13	0	BOOK	149	n/a	n/a	0	0.57763671875	0.412841796875	1	lower	zerothre.ttf
2321.854	n/a	WORD	1160927	wordpools/wasnorm_wordpool.txt	LTP145	ltpFR	17	13	0	NOTEBOOK	959	n/a	n/a	0	0.57763671875	0.412841796875	1	lower	zerothre.ttf
2325.968	n/a	WORD	1162984	wordpools/wasnorm_wordpool.txt	LTP145	ltpFR	17	13	0	COLOGNE	347	n/a	n/a	0	0.57763671875	0.412841796875	1	lower	zerothre.ttf
2329.792	n/a	WORD	1164896	wordpools/wasnorm_wordpool.txt	LTP145	ltpFR	17	13	0	HEDGE	699	n/a	n/a	0	0.57763671875	0.412841796875	1	lower	zerothre.ttf
2333.632	n/a	WORD	1166816	wordpools/wasnorm_wordpool.txt	LTP145	ltpFR	17	13	0	MOWER	928	n/a	n/a	1	0.57763671875	0.412841796875	1	lower	zerothre.ttf
2337.772	n/a	WORD	1168886	wordpools/wasnorm_wordpool.txt	LTP145	ltpFR	17	13	0	BRANCH	168	n/a	n/a	1	0.57763671875	0.412841796875	1	lower	zerothre.ttf
2341.938	n/a	WORD	1170969	wordpools/wasnorm_wordpool.txt	LTP145	ltpFR	17	13	0	RIB	1188	n/a	n/a	0	0.57763671875	0.412841796875	1	lower	zerothre.ttf
2345.878	n/a	WORD	1172939	wordpools/wasnorm_wordpool.txt	LTP145	ltpFR	17	13	0	PIMPLE	1071	n/a	n/a	0	0.57763671875	0.412841796875	1	lower	zerothre.ttf
2349.994	n/a	WORD	1174997	wordpools/wasnorm_wordpool.txt	LTP145	ltpFR	17	13	0	TUB	1514	n/a	n/a	0	0.57763671875	0.412841796875	1	lower	zerothre.ttf
2353.96	n/a	WORD	1176980	wordpools/wasnorm_wordpool.txt	LTP145	ltpFR	17	13	0	STEW	1380	n/a	n/a	0	0.57763671875	0.412841796875	1	lower	zerothre.ttf
2358.032	n/a	WORD	1179016	wordpools/wasnorm_wordpool.txt	LTP145	ltpFR	17	13	0	SODA	1341	n/a	n/a	0	0.57763671875	0.412841796875	1	lower	zerothre.ttf
2361.866	n/a	WORD	1180933	wordpools/wasnorm_wordpool.txt	LTP145	ltpFR	17	13	0	HANDBAG	684	n/a	n/a	0	0.57763671875	0.412841796875	1	lower	zerothre.ttf
2366.032	n/a	WORD	1183016	wordpools/wasnorm_wordpool.txt	LTP145	ltpFR	17	13	0	WHISKERS	1605	n/a	n/a	0	0.57763671875	0.412841796875	1	lower	zerothre.ttf
2370.13	n/a	WORD	1185065	wordpools/wasnorm_wordpool.txt	LTP145	ltpFR	17	13	0	HAMMER	680	n/a	n/a	0	0.57763671875	0.412841796875	1	lower	zerothre.ttf
2374.312	n/a	WORD	1187156	wordpools/wasnorm_wordpool.txt	LTP145	ltpFR	17	13	0	SCREWDRIVER	1255	n/a	n/a	0	0.57763671875	0.412841796875	1	lower	zerothre.ttf
2378.286	n/a	WORD	1189143	wordpools/wasnorm_wordpool.txt	LTP145	ltpFR	17	13	0	SHOWER	1296	n/a	n/a	1	0.57763671875	0.412841796875	1	lower	zerothre.ttf
2384.152	n/a	REC_START	1192076	n/a	LTP145	ltpFR	17	13	n/a	n/a	n/a	n/a	n/a	n/a	n/a	n/a	n/a	n/a	n/a
2385.174	n/a	REC_WORD	1192587	wordpools/wasnorm_wordpool.txt	LTP145	ltpFR	17	13	0	TUB	1514	n/a	n/a	0	n/a	n/a	n/a	n/a	n/a
2385.892	n/a	REC_WORD	1192946	wordpools/wasnorm_wordpool.txt	LTP145	ltpFR	17	13	0	SHOWER	1296	n/a	n/a	1	n/a	n/a	n/a	n/a	n/a
2386.68	n/a	REC_WORD	1193340	wordpools/wasnorm_wordpool.txt	LTP145	ltpFR	17	13	0	SCREWDRIVER	1255	n/a	n/a	0	n/a	n/a	n/a	n/a	n/a
2387.912	n/a	REC_WORD	1193956	wordpools/wasnorm_wordpool.txt	LTP145	ltpFR	17	13	0	HAMMER	680	n/a	n/a	0	n/a	n/a	n/a	n/a	n/a
2391.694	n/a	REC_WORD	1195847	wordpools/wasnorm_wordpool.txt	LTP145	ltpFR	17	13	0	BOOK	149	n/a	n/a	0	n/a	n/a	n/a	n/a	n/a
2392.138	n/a	REC_WORD	1196069	wordpools/wasnorm_wordpool.txt	LTP145	ltpFR	17	13	0	NOTEBOOK	959	n/a	n/a	0	n/a	n/a	n/a	n/a	n/a
2392.982	n/a	REC_WORD	1196491	wordpools/wasnorm_wordpool.txt	LTP145	ltpFR	17	13	0	BRANCH	168	n/a	n/a	1	n/a	n/a	n/a	n/a	n/a
2394.588	n/a	REC_WORD	1197294	wordpools/wasnorm_wordpool.txt	LTP145	ltpFR	17	13	0	MOWER	928	n/a	n/a	1	n/a	n/a	n/a	n/a	n/a
2434.21	n/a	REC_WORD	1217105	wordpools/wasnorm_wordpool.txt	LTP145	ltpFR	17	13	0	COLOGNE	347	n/a	n/a	0	n/a	n/a	n/a	n/a	n/a
2471.79	n/a	WORD	1235895	wordpools/wasnorm_wordpool.txt	LTP145	ltpFR	17	14	0	CANAL	226	n/a	n/a	1	0.57763671875	0.412841796875	1	lower	zerothre.ttf
2475.724	n/a	WORD	1237862	wordpools/wasnorm_wordpool.txt	LTP145	ltpFR	17	14	0	GRAVE	658	n/a	n/a	1	0.57763671875	0.412841796875	1	lower	zerothre.ttf
2479.604	n/a	WORD	1239802	wordpools/wasnorm_wordpool.txt	LTP145	ltpFR	17	14	0	MARBLE	867	n/a	n/a	0	0.57763671875	0.412841796875	1	lower	zerothre.ttf
2483.512	n/a	WORD	1241756	wordpools/wasnorm_wordpool.txt	LTP145	ltpFR	17	14	0	SOFTBALL	1343	n/a	n/a	0	0.57763671875	0.412841796875	1	lower	zerothre.ttf
2487.544	n/a	WORD	1243772	wordpools/wasnorm_wordpool.txt	LTP145	ltpFR	17	14	0	WARRIOR	1589	n/a	n/a	1	0.57763671875	0.412841796875	1	lower	zerothre.ttf
2491.37	n/a	WORD	1245685	wordpools/wasnorm_wordpool.txt	LTP145	ltpFR	17	14	0	FIGHTER	564	n/a	n/a	1	0.57763671875	0.412841796875	1	lower	zerothre.ttf
2495.352	n/a	WORD	1247676	wordpools/wasnorm_wordpool.txt	LTP145	ltpFR	17	14	0	JET	756	n/a	n/a	1	0.57763671875	0.412841796875	1	lower	zerothre.ttf
2499.424	n/a	WORD	1249712	wordpools/wasnorm_wordpool.txt	LTP145	ltpFR	17	14	0	MONKEY	911	n/a	n/a	1	0.57763671875	0.412841796875	1	lower	zerothre.ttf
2503.266	n/a	WORD	1251633	wordpools/wasnorm_wordpool.txt	LTP145	ltpFR	17	14	0	LIVER	833	n/a	n/a	0	0.57763671875	0.412841796875	1	lower	zerothre.ttf
2507.348	n/a	WORD	1253674	wordpools/wasnorm_wordpool.txt	LTP145	ltpFR	17	14	0	TABLET	1427	n/a	n/a	0	0.57763671875	0.412841796875	1	lower	zerothre.ttf
2511.478	n/a	WORD	1255739	wordpools/wasnorm_wordpool.txt	LTP145	ltpFR	17	14	0	COOKIE	374	n/a	n/a	0	0.57763671875	0.412841796875	1	lower	zerothre.ttf
2515.636	n/a	WORD	1257818	wordpools/wasnorm_wordpool.txt	LTP145	ltpFR	17	14	0	BAKER	71	n/a	n/a	1	0.57763671875	0.412841796875	1	lower	zerothre.ttf
2519.542	n/a	WORD	1259771	wordpools/wasnorm_wordpool.txt	LTP145	ltpFR	17	14	0	LABYRINTH	791	n/a	n/a	1	0.57763671875	0.412841796875	1	lower	zerothre.ttf
2523.658	n/a	WORD	1261829	wordpools/wasnorm_wordpool.txt	LTP145	ltpFR	17	14	0	BELLY	119	n/a	n/a	0	0.57763671875	0.412841796875	1	lower	zerothre.ttf
2527.59	n/a	WORD	1263795	wordpools/wasnorm_wordpool.txt	LTP145	ltpFR	17	14	0	JUNGLE	764	n/a	n/a	1	0.57763671875	0.412841796875	1	lower	zerothre.ttf
2531.69	n/a	WORD	1265845	wordpools/wasnorm_wordpool.txt	LTP145	ltpFR	17	14	0	NEWSPAPER	948	n/a	n/a	0	0.57763671875	0.412841796875	1	lower	zerothre.ttf
2537.604	n/a	REC_START	1268802	n/a	LTP145	ltpFR	17	14	n/a	n/a	n/a	n/a	n/a	n/a	n/a	n/a	n/a	n/a	n/a
2538.636	n/a	REC_WORD	1269318	wordpools/wasnorm_wordpool.txt	LTP145	ltpFR	17	14	0	NEWSPAPER	948	n/a	n/a	0	n/a	n/a	n/a	n/a	n/a
2539.766	n/a	REC_WORD	1269883	wordpools/wasnorm_wordpool.txt	LTP145	ltpFR	17	14	0	WARRIOR	1589	n/a	n/a	1	n/a	n/a	n/a	n/a	n/a
2540.508	n/a	REC_WORD	1270254	wordpools/wasnorm_wordpool.txt	LTP145	ltpFR	17	14	0	FIGHTER	564	n/a	n/a	1	n/a	n/a	n/a	n/a	n/a
2541.446	n/a	REC_WORD	1270723	wordpools/wasnorm_wordpool.txt	LTP145	ltpFR	17	14	0	JET	756	n/a	n/a	1	n/a	n/a	n/a	n/a	n/a
2542.384	n/a	REC_WORD	1271192	wordpools/wasnorm_wordpool.txt	LTP145	ltpFR	17	14	0	JUNGLE	764	n/a	n/a	1	n/a	n/a	n/a	n/a	n/a
2545.168	n/a	REC_WORD	1272584	wordpools/wasnorm_wordpool.txt	LTP145	ltpFR	17	14	0	MONKEY	911	n/a	n/a	1	n/a	n/a	n/a	n/a	n/a
2547.142	n/a	REC_WORD	1273571	wordpools/wasnorm_wordpool.txt	LTP145	ltpFR	17	14	1	APE	31	n/a	n/a	1	n/a	n/a	n/a	n/a	n/a
2550.826	n/a	REC_WORD	1275413	wordpools/wasnorm_wordpool.txt	LTP145	ltpFR	17	14	0	BELLY	119	n/a	n/a	0	n/a	n/a	n/a	n/a	n/a
2551.754	n/a	REC_WORD	1275877	wordpools/wasnorm_wordpool.txt	LTP145	ltpFR	17	14	0	RIB	1188	n/a	n/a	0	n/a	n/a	n/a	n/a	n/a
2553.11	n/a	REC_WORD	1276555	wordpools/wasnorm_wordpool.txt	LTP145	ltpFR	17	14	0	LIVER	833	n/a	n/a	0	n/a	n/a	n/a	n/a	n/a
2616.538	n/a	WORD	1308269	wordpools/wasnorm_wordpool.txt	LTP145	ltpFR	17	15	1	STAKE	1368	n/a	n/a	0	0.422607421875	0.5869140625	0	upper	amplitud.ttf
2620.728	n/a	WORD	1310364	wordpools/wasnorm_wordpool.txt	LTP145	ltpFR	17	15	1	LAPEL	800	n/a	n/a	0	0.422607421875	0.5869140625	0	upper	amplitud.ttf
2624.912	n/a	WORD	1312456	wordpools/wasnorm_wordpool.txt	LTP145	ltpFR	17	15	1	CRATER	400	n/a	n/a	0	0.422607421875	0.5869140625	0	upper	amplitud.ttf
2628.926	n/a	WORD	1314463	wordpools/wasnorm_wordpool.txt	LTP145	ltpFR	17	15	1	HEN	703	n/a	n/a	1	0.422607421875	0.5869140625	0	upper	amplitud.ttf
2632.942	n/a	WORD	1316471	wordpools/wasnorm_wordpool.txt	LTP145	ltpFR	17	15	0	YOLK	1633	n/a	n/a	0	0.57763671875	0.412841796875	1	lower	zerothre.ttf
2636.974	n/a	WORD	1318487	wordpools/wasnorm_wordpool.txt	LTP145	ltpFR	17	15	0	OAR	966	n/a	n/a	0	0.57763671875	0.412841796875	1	lower	zerothre.ttf
2641.014	n/a	WORD	1320507	wordpools/wasnorm_wordpool.txt	LTP145	ltpFR	17	15	0	PIRATE	1074	n/a	n/a	1	0.57763671875	0.412841796875	1	lower	zerothre.ttf
2645.014	n/a	WORD	1322507	wordpools/wasnorm_wordpool.txt	LTP145	ltpFR	17	15	0	RODENT	1204	n/a	n/a	1	0.57763671875	0.412841796875	1	lower	zerothre.ttf
2648.878	n/a	WORD	1324439	wordpools/wasnorm_wordpool.txt	LTP145	ltpFR	17	15	1	COOK	372	n/a	n/a	1	0.422607421875	0.5869140625	0	upper	amplitud.ttf
2652.918	n/a	WORD	1326459	wordpools/wasnorm_wordpool.txt	LTP145	ltpFR	17	15	1	CREAM	402	n/a	n/a	0	0.422607421875	0.5869140625	0	upper	amplitud.ttf
2656.91	n/a	WORD	1328455	wordpools/wasnorm_wordpool.txt	LTP145	ltpFR	17	15	0	STEAM	1375	n/a	n/a	0	0.57763671875	0.412841796875	1	lower	zerothre.ttf
2661.092	n/a	WORD	1330546	wordpools/wasnorm_wordpool.txt	LTP145	ltpFR	17	15	0	FIREMAN	569	n/a	n/a	1	0.57763671875	0.412841796875	1	lower	zerothre.ttf
2665.166	n/a	WORD	1332583	wordpools/wasnorm_wordpool.txt	LTP145	ltpFR	17	15	0	PIKE	1067	n/a	n/a	0	0.57763671875	0.412841796875	1	lower	zerothre.ttf
2669.374	n/a	WORD	1334687	wordpools/wasnorm_wordpool.txt	LTP145	ltpFR	17	15	0	KITTEN	780	n/a	n/a	0	0.57763671875	0.412841796875	1	lower	zerothre.ttf
2673.314	n/a	WORD	1336657	wordpools/wasnorm_wordpool.txt	LTP145	ltpFR	17	15	1	BOARD	143	n/a	n/a	0	0.422607421875	0.5869140625	0	upper	amplitud.ttf
2677.494	n/a	WORD	1338747	wordpools/wasnorm_wordpool.txt	LTP145	ltpFR	17	15	1	COOKBOOK	373	n/a	n/a	0	0.422607421875	0.5869140625	0	upper	amplitud.ttf
2683.286	n/a	REC_START	1341643	n/a	LTP145	ltpFR	17	15	n/a	n/a	n/a	n/a	n/a	n/a	n/a	n/a	n/a	n/a	n/a
2684.014	n/a	REC_WORD	1342007	wordpools/wasnorm_wordpool.txt	LTP145	ltpFR	17	15	1	COOKBOOK	373	n/a	n/a	0	n/a	n/a	n/a	n/a	n/a
2684.988	n/a	REC_WORD	1342494	wordpools/wasnorm_wordpool.txt	LTP145	ltpFR	17	15	1	COOK	372	n/a	n/a	1	n/a	n/a	n/a	n/a	n/a
2686.578	n/a	REC_WORD	1343289	wordpools/wasnorm_wordpool.txt	LTP145	ltpFR	17	15	1	LAPEL	800	n/a	n/a	0	n/a	n/a	n/a	n/a	n/a
2687.742	n/a	REC_WORD	1343871	wordpools/wasnorm_wordpool.txt	LTP145	ltpFR	17	15	0	PIRATE	1074	n/a	n/a	1	n/a	n/a	n/a	n/a	n/a
2688.714	n/a	REC_WORD	1344357	wordpools/wasnorm_wordpool.txt	LTP145	ltpFR	17	15	0	OAR	966	n/a	n/a	0	n/a	n/a	n/a	n/a	n/a
2690.524	n/a	REC_WORD	1345262	wordpools/wasnorm_wordpool.txt	LTP145	ltpFR	17	15	1	DOCK	477	n/a	n/a	0	n/a	n/a	n/a	n/a	n/a
2698.212	n/a	REC_WORD	1349106	wordpools/wasnorm_wordpool.txt	LTP145	ltpFR	17	15	0	RODENT	1204	n/a	n/a	1	n/a	n/a	n/a	n/a	n/a
2707.726	n/a	REC_WORD	1353863	wordpools/wasnorm_wordpool.txt	LTP145	ltpFR	17	15	0	KITTEN	780	n/a	n/a	0	n/a	n/a	n/a	n/a	n/a
2740.408	n/a	REC_WORD	1370204	wordpools/wasnorm_wordpool.txt	LTP145	ltpFR	17	15	1	STAKE	1368	n/a	n/a	0	n/a	n/a	n/a	n/a	n/a
2764.412	n/a	WORD	1382206	wordpools/wasnorm_wordpool.txt	LTP145	ltpFR	17	16	0	BANJO	82	n/a	n/a	1	0.57763671875	0.412841796875	1	lower	zerothre.ttf
2768.492	n/a	WORD	1384246	wordpools/wasnorm_wordpool.txt	LTP145	ltpFR	17	16	0	SAXOPHONE	1240	n/a	n/a	1	0.57763671875	0.412841796875	1	lower	zerothre.ttf
2772.516	n/a	WORD	1386258	wordpools/wasnorm_wordpool.txt	LTP145	ltpFR	17	16	0	MARROW	872	n/a	n/a	0	0.57763671875	0.412841796875	1	lower	zerothre.ttf
2776.574	n/a	WORD	1388287	wordpools/wasnorm_wordpool.txt	LTP145	ltpFR	17	16	1	OUTDOORS	987	n/a	n/a	1	0.422607421875	0.5869140625	0	upper	amplitud.ttf
2780.656	n/a	WORD	1390328	wordpools/wasnorm_wordpool.txt	LTP145	ltpFR	17	16	1	AIRPLANE	12	n/a	n/a	0	0.422607421875	0.5869140625	0	upper	amplitud.ttf
2784.862	n/a	WORD	1392431	wordpools/wasnorm_wordpool.txt	LTP145	ltpFR	17	16	1	HAWK	692	n/a	n/a	1	0.422607421875	0.5869140625	0	upper	amplitud.ttf
2788.794	n/a	WORD	1394397	wordpools/wasnorm_wordpool.txt	LTP145	ltpFR	17	16	1	NAVIGATOR	938	n/a	n/a	1	0.422607421875	0.5869140625	0	upper	amplitud.ttf
2792.842	n/a	WORD	1396421	wordpools/wasnorm_wordpool.txt	LTP145	ltpFR	17	16	1	STABLE	1363	n/a	n/a	0	0.422607421875	0.5869140625	0	upper	amplitud.ttf
2796.784	n/a	WORD	1398392	wordpools/wasnorm_wordpool.txt	LTP145	ltpFR	17	16	0	INSECT	740	n/a	n/a	0	0.57763671875	0.412841796875	1	lower	zerothre.ttf
2800.882	n/a	WORD	1400441	wordpools/wasnorm_wordpool.txt	LTP145	ltpFR	17	16	0	GOOSE	649	n/a	n/a	1	0.57763671875	0.412841796875	1	lower	zerothre.ttf
2804.756	n/a	WORD	1402378	wordpools/wasnorm_wordpool.txt	LTP145	ltpFR	17	16	0	BOUQUET	157	n/a	n/a	0	0.57763671875	0.412841796875	1	lower	zerothre.ttf
2808.838	n/a	WORD	1404419	wordpools/wasnorm_wordpool.txt	LTP145	ltpFR	17	16	1	TICKET	1464	n/a	n/a	2	0.422607421875	0.5869140625	0	upper	amplitud.ttf
2810.654	n/a	KEY_MSG	1405327	n/a	LTP145	ltpFR	17	16	n/a	n/a	n/a	n/a	n/a	n/a	n/a	n/a	n/a	n/a	n/a
2813.33	n/a	WORD	1406665	wordpools/wasnorm_wordpool.txt	LTP145	ltpFR	17	16	1	TUBE	1516	n/a	n/a	0	0.422607421875	0.5869140625	0	upper	amplitud.ttf
2817.328	n/a	WORD	1408664	wordpools/wasnorm_wordpool.txt	LTP145	ltpFR	17	16	1	CABLE	213	n/a	n/a	0	0.422607421875	0.5869140625	0	upper	amplitud.ttf
2821.378	n/a	WORD	1410689	wordpools/wasnorm_wordpool.txt	LTP145	ltpFR	17	16	0	POND	1101	n/a	n/a	1	0.57763671875	0.412841796875	1	lower	zerothre.ttf
2825.268	n/a	WORD	1412634	wordpools/wasnorm_wordpool.txt	LTP145	ltpFR	17	16	0	BODY	145	n/a	n/a	1	0.57763671875	0.412841796875	1	lower	zerothre.ttf
2830.966	n/a	REC_START	1415483	n/a	LTP145	ltpFR	17	16	n/a	n/a	n/a	n/a	n/a	n/a	n/a	n/a	n/a	n/a	n/a
2832.638	n/a	REC_WORD	1416319	wordpools/wasnorm_wordpool.txt	LTP145	ltpFR	17	16	0	BODY	145	n/a	n/a	1	n/a	n/a	n/a	n/a	n/a
2847.024	n/a	REC_WORD	1423512	wordpools/wasnorm_wordpool.txt	LTP145	ltpFR	17	16	1	NAVIGATOR	938	n/a	n/a	1	n/a	n/a	n/a	n/a	n/a
2857.352	n/a	REC_WORD	1428676	wordpools/wasnorm_wordpool.txt	LTP145	ltpFR	17	16	0	INSECT	740	n/a	n/a	0	n/a	n/a	n/a	n/a	n/a
2879.942	n/a	REC_WORD	1439971	wordpools/wasnorm_wordpool.txt	LTP145	ltpFR	17	16	-1	FOX	598	n/a	n/a	-1	n/a	n/a	n/a	n/a	n/a
2890.858	n/a	REC_WORD	1445429	wordpools/wasnorm_wordpool.txt	LTP145	ltpFR	17	16	1	AIRPLANE	12	n/a	n/a	0	n/a	n/a	n/a	n/a	n/a
2891.722	n/a	REC_WORD	1445861	wordpools/wasnorm_wordpool.txt	LTP145	ltpFR	17	16	1	HAWK	692	n/a	n/a	1	n/a	n/a	n/a	n/a	n/a
2895.458	n/a	REC_WORD	1447729	wordpools/wasnorm_wordpool.txt	LTP145	ltpFR	17	16	0	BANJO	82	n/a	n/a	1	n/a	n/a	n/a	n/a	n/a
2896.39	n/a	REC_WORD	1448195	wordpools/wasnorm_wordpool.txt	LTP145	ltpFR	17	16	0	SAXOPHONE	1240	n/a	n/a	1	n/a	n/a	n/a	n/a	n/a
2917.556	n/a	REC_START	1458778	n/a	LTP145	ltpFR	17	n/a	n/a	n/a	n/a	n/a	n/a	n/a	n/a	n/a	n/a	n/a	n/a
2919.122	n/a	FFR_REC_WORD	1459561	wordpools/wasnorm_wordpool.txt	LTP145	ltpFR	17	n/a	1	AIRPLANE	12	n/a	n/a	0	n/a	n/a	n/a	n/a	n/a
2920.132	n/a	FFR_REC_WORD	1460066	wordpools/wasnorm_wordpool.txt	LTP145	ltpFR	17	n/a	1	HAWK	692	n/a	n/a	1	n/a	n/a	n/a	n/a	n/a
2921.114	n/a	FFR_REC_WORD	1460557	wordpools/wasnorm_wordpool.txt	LTP145	ltpFR	17	n/a	0	BANJO	82	n/a	n/a	1	n/a	n/a	n/a	n/a	n/a
2921.916	n/a	FFR_REC_WORD	1460958	wordpools/wasnorm_wordpool.txt	LTP145	ltpFR	17	n/a	0	SAXOPHONE	1240	n/a	n/a	1	n/a	n/a	n/a	n/a	n/a
2922.916	n/a	FFR_REC_WORD_VV	1461458	wordpools/wasnorm_wordpool.txt	LTP145	ltpFR	17	n/a	n/a	<>	-1	n/a	n/a	n/a	n/a	n/a	n/a	n/a	n/a
2923.612	n/a	FFR_REC_WORD	1461806	wordpools/wasnorm_wordpool.txt	LTP145	ltpFR	17	n/a	1	TUBE	1516	n/a	n/a	0	n/a	n/a	n/a	n/a	n/a
2929.026	n/a	FFR_REC_WORD	1464513	wordpools/wasnorm_wordpool.txt	LTP145	ltpFR	17	n/a	0	NEWSPAPER	948	n/a	n/a	0	n/a	n/a	n/a	n/a	n/a
2930.296	n/a	FFR_REC_WORD	1465148	wordpools/wasnorm_wordpool.txt	LTP145	ltpFR	17	n/a	-1	POCKETBOOK	1094	n/a	n/a	-1	n/a	n/a	n/a	n/a	n/a
2932.388	n/a	FFR_REC_WORD	1466194	wordpools/wasnorm_wordpool.txt	LTP145	ltpFR	17	n/a	1	COOKBOOK	373	n/a	n/a	0	n/a	n/a	n/a	n/a	n/a
2933.312	n/a	FFR_REC_WORD	1466656	wordpools/wasnorm_wordpool.txt	LTP145	ltpFR	17	n/a	1	COOK	372	n/a	n/a	1	n/a	n/a	n/a	n/a	n/a
2934.608	n/a	FFR_REC_WORD	1467304	wordpools/wasnorm_wordpool.txt	LTP145	ltpFR	17	n/a	-1	THUMB	1462	n/a	n/a	-1	n/a	n/a	n/a	n/a	n/a
2936.544	n/a	FFR_REC_WORD	1468272	wordpools/wasnorm_wordpool.txt	LTP145	ltpFR	17	n/a	-1	HAND	683	n/a	n/a	-1	n/a	n/a	n/a	n/a	n/a
2937.506	n/a	FFR_REC_WORD	1468753	wordpools/wasnorm_wordpool.txt	LTP145	ltpFR	17	n/a	1	WRIST	1626	n/a	n/a	0	n/a	n/a	n/a	n/a	n/a
2938.57	n/a	FFR_REC_WORD	1469285	wordpools/wasnorm_wordpool.txt	LTP145	ltpFR	17	n/a	1	ELBOW	520	n/a	n/a	0	n/a	n/a	n/a	n/a	n/a
2940.186	n/a	FFR_REC_WORD	1470093	wordpools/wasnorm_wordpool.txt	LTP145	ltpFR	17	n/a	0	RIB	1188	n/a	n/a	0	n/a	n/a	n/a	n/a	n/a
2941.488	n/a	FFR_REC_WORD	1470744	wordpools/wasnorm_wordpool.txt	LTP145	ltpFR	17	n/a	0	BELLY	119	n/a	n/a	0	n/a	n/a	n/a	n/a	n/a
2942.81	n/a	FFR_REC_WORD	1471405	wordpools/wasnorm_wordpool.txt	LTP145	ltpFR	17	n/a	0	LIVER	833	n/a	n/a	0	n/a	n/a	n/a	n/a	n/a
2944.166	n/a	FFR_REC_WORD	1472083	wordpools/wasnorm_wordpool.txt	LTP145	ltpFR	17	n/a	0	MARROW	872	n/a	n/a	0	n/a	n/a	n/a	n/a	n/a
2946.422	n/a	FFR_REC_WORD	1473211	wordpools/wasnorm_wordpool.txt	LTP145	ltpFR	17	n/a	1	CHEST	295	n/a	n/a	0	n/a	n/a	n/a	n/a	n/a
2947.818	n/a	FFR_REC_WORD	1473909	wordpools/wasnorm_wordpool.txt	LTP145	ltpFR	17	n/a	0	THIGH	1457	n/a	n/a	0	n/a	n/a	n/a	n/a	n/a
2949.312	n/a	FFR_REC_WORD	1474656	wordpools/wasnorm_wordpool.txt	LTP145	ltpFR	17	n/a	1	KNEE	784	n/a	n/a	0	n/a	n/a	n/a	n/a	n/a
2950.992	n/a	FFR_REC_WORD	1475496	wordpools/wasnorm_wordpool.txt	LTP145	ltpFR	17	n/a	1	FOOT	590	n/a	n/a	0	n/a	n/a	n/a	n/a	n/a
2952.694	n/a	FFR_REC_WORD	1476347	wordpools/wasnorm_wordpool.txt	LTP145	ltpFR	17	n/a	0	BODY	145	n/a	n/a	1	n/a	n/a	n/a	n/a	n/a
2955.418	n/a	FFR_REC_WORD	1477709	wordpools/wasnorm_wordpool.txt	LTP145	ltpFR	17	n/a	0	BRANCH	168	n/a	n/a	1	n/a	n/a	n/a	n/a	n/a
2956.484	n/a	FFR_REC_WORD	1478242	wordpools/wasnorm_wordpool.txt	LTP145	ltpFR	17	n/a	0	TREE	1502	n/a	n/a	1	n/a	n/a	n/a	n/a	n/a
2957.642	n/a	FFR_REC_WORD	1478821	wordpools/wasnorm_wordpool.txt	LTP145	ltpFR	17	n/a	0	TWIG	1527	n/a	n/a	0	n/a	n/a	n/a	n/a	n/a
2960.002	n/a	FFR_REC_WORD	1480001	wordpools/wasnorm_wordpool.txt	LTP145	ltpFR	17	n/a	0	MOWER	928	n/a	n/a	1	n/a	n/a	n/a	n/a	n/a
2961.074	n/a	FFR_REC_WORD	1480537	wordpools/wasnorm_wordpool.txt	LTP145	ltpFR	17	n/a	-1	LAWN	805	n/a	n/a	-1	n/a	n/a	n/a	n/a	n/a
2964.044	n/a	FFR_REC_WORD	1482022	wordpools/wasnorm_wordpool.txt	LTP145	ltpFR	17	n/a	-1	HELMET	702	n/a	n/a	-1	n/a	n/a	n/a	n/a	n/a
2965.044	n/a	FFR_REC_WORD_VV	1482522	wordpools/wasnorm_wordpool.txt	LTP145	ltpFR	17	n/a	n/a	<>	-1	n/a	n/a	n/a	n/a	n/a	n/a	n/a	n/a
2967.216	n/a	FFR_REC_WORD	1483608	wordpools/wasnorm_wordpool.txt	LTP145	ltpFR	17	n/a	-1	ALLEY	15	n/a	n/a	-1	n/a	n/a	n/a	n/a	n/a
2968.11	n/a	FFR_REC_WORD	1484055	wordpools/wasnorm_wordpool.txt	LTP145	ltpFR	17	n/a	-1	BOULEVARD	156	n/a	n/a	-1	n/a	n/a	n/a	n/a	n/a
2970.026	n/a	FFR_REC_WORD	1485013	wordpools/wasnorm_wordpool.txt	LTP145	ltpFR	17	n/a	-1	CLASS	318	n/a	n/a	-1	n/a	n/a	n/a	n/a	n/a
2977.742	n/a	FFR_REC_WORD	1488871	wordpools/wasnorm_wordpool.txt	LTP145	ltpFR	17	n/a	1	KLEENEX	782	n/a	n/a	0	n/a	n/a	n/a	n/a	n/a
2981.668	n/a	FFR_REC_WORD	1490834	wordpools/wasnorm_wordpool.txt	LTP145	ltpFR	17	n/a	0	GAZELLE	628	n/a	n/a	1	n/a	n/a	n/a	n/a	n/a
2982.758	n/a	FFR_REC_WORD	1491379	wordpools/wasnorm_wordpool.txt	LTP145	ltpFR	17	n/a	1	STOOL	1386	n/a	n/a	0	n/a	n/a	n/a	n/a	n/a
2983.82	n/a	FFR_REC_WORD	1491910	wordpools/wasnorm_wordpool.txt	LTP145	ltpFR	17	n/a	1	FURNITURE	616	n/a	n/a	0	n/a	n/a	n/a	n/a	n/a
2987.89	n/a	FFR_REC_WORD	1493945	wordpools/wasnorm_wordpool.txt	LTP145	ltpFR	17	n/a	1	RAM	1165	n/a	n/a	1	n/a	n/a	n/a	n/a	n/a
2990.854	n/a	FFR_REC_WORD	1495427	wordpools/wasnorm_wordpool.txt	LTP145	ltpFR	17	n/a	0	BOUQUET	157	n/a	n/a	0	n/a	n/a	n/a	n/a	n/a
2992.984	n/a	FFR_REC_WORD	1496492	wordpools/wasnorm_wordpool.txt	LTP145	ltpFR	17	n/a	0	STONE	1385	n/a	n/a	0	n/a	n/a	n/a	n/a	n/a
2995.862	n/a	FFR_REC_WORD	1497931	wordpools/wasnorm_wordpool.txt	LTP145	ltpFR	17	n/a	0	VIOLA	1570	n/a	n/a	1	n/a	n/a	n/a	n/a	n/a
2996.934	n/a	FFR_REC_WORD	1498467	wordpools/wasnorm_wordpool.txt	LTP145	ltpFR	17	n/a	0	CELLO	268	n/a	n/a	1	n/a	n/a	n/a	n/a	n/a
2999.4	n/a	FFR_REC_WORD	1499700	wordpools/wasnorm_wordpool.txt	LTP145	ltpFR	17	n/a	-1	GOAT	644	n/a	n/a	-1	n/a	n/a	n/a	n/a	n/a
3001.95	n/a	FFR_REC_WORD	1500975	wordpools/wasnorm_wordpool.txt	LTP145	ltpFR	17	n/a	-1	EWE	542	n/a	n/a	-1	n/a	n/a	n/a	n/a	n/a
3004.194	n/a	FFR_REC_WORD	1502097	wordpools/wasnorm_wordpool.txt	LTP145	ltpFR	17	n/a	0	NOTEBOOK	959	n/a	n/a	0	n/a	n/a	n/a	n/a	n/a
3010.87	n/a	FFR_REC_WORD	1505435	wordpools/wasnorm_wordpool.txt	LTP145	ltpFR	17	n/a	0	ACTOR	5	n/a	n/a	1	n/a	n/a	n/a	n/a	n/a
3011.748	n/a	FFR_REC_WORD	1505874	wordpools/wasnorm_wordpool.txt	LTP145	ltpFR	17	n/a	0	PRODUCER	1129	n/a	n/a	1	n/a	n/a	n/a	n/a	n/a
3013.124	n/a	FFR_REC_WORD	1506562	wordpools/wasnorm_wordpool.txt	LTP145	ltpFR	17	n/a	1	BOSS	152	n/a	n/a	1	n/a	n/a	n/a	n/a	n/a
3014.88	n/a	FFR_REC_WORD	1507440	wordpools/wasnorm_wordpool.txt	LTP145	ltpFR	17	n/a	-1	PLUMBER	1091	n/a	n/a	-1	n/a	n/a	n/a	n/a	n/a
3015.876	n/a	FFR_REC_WORD	1507938	wordpools/wasnorm_wordpool.txt	LTP145	ltpFR	17	n/a	1	NAVIGATOR	938	n/a	n/a	1	n/a	n/a	n/a	n/a	n/a
3019.948	n/a	FFR_REC_WORD	1509974	wordpools/wasnorm_wordpool.txt	LTP145	ltpFR	17	n/a	1	PEPPER	1047	n/a	n/a	0	n/a	n/a	n/a	n/a	n/a
3024.718	n/a	FFR_REC_WORD	1512359	wordpools/wasnorm_wordpool.txt	LTP145	ltpFR	17	n/a	-1	PLANT	1083	n/a	n/a	-1	n/a	n/a	n/a	n/a	n/a
3029.738	n/a	FFR_REC_WORD	1514869	wordpools/wasnorm_wordpool.txt	LTP145	ltpFR	17	n/a	1	APE	31	n/a	n/a	1	n/a	n/a	n/a	n/a	n/a
3030.332	n/a	FFR_REC_WORD	1515166	wordpools/wasnorm_wordpool.txt	LTP145	ltpFR	17	n/a	0	MONKEY	911	n/a	n/a	1	n/a	n/a	n/a	n/a	n/a
3034.312	n/a	FFR_REC_WORD	1517156	wordpools/wasnorm_wordpool.txt	LTP145	ltpFR	17	n/a	0	FOREST	593	n/a	n/a	1	n/a	n/a	n/a	n/a	n/a
3035.234	n/a	FFR_REC_WORD	1517617	wordpools/wasnorm_wordpool.txt	LTP145	ltpFR	17	n/a	0	JUNGLE	764	n/a	n/a	1	n/a	n/a	n/a	n/a	n/a
3065.878	n/a	FFR_REC_WORD	1532939	wordpools/wasnorm_wordpool.txt	LTP145	ltpFR	17	n/a	-1	LIMB	822	n/a	n/a	-1	n/a	n/a	n/a	n/a	n/a
3067.214	n/a	FFR_REC_WORD	1533607	wordpools/wasnorm_wordpool.txt	LTP145	ltpFR	17	n/a	-1	APPENDAGE	32	n/a	n/a	-1	n/a	n/a	n/a	n/a	n/a
3068.214	n/a	FFR_REC_WORD_VV	1534107	wordpools/wasnorm_wordpool.txt	LTP145	ltpFR	17	n/a	n/a	<>	-1	n/a	n/a	n/a	n/a	n/a	n/a	n/a	n/a
3075.42	n/a	FFR_REC_WORD	1537710	wordpools/wasnorm_wordpool.txt	LTP145	ltpFR	17	n/a	1	MARINE	869	n/a	n/a	1	n/a	n/a	n/a	n/a	n/a
3077.866	n/a	FFR_REC_WORD	1538933	wordpools/wasnorm_wordpool.txt	LTP145	ltpFR	17	n/a	1	HOOK	715	n/a	n/a	0	n/a	n/a	n/a	n/a	n/a
3085.074	n/a	FFR_REC_WORD	1542537	wordpools/wasnorm_wordpool.txt	LTP145	ltpFR	17	n/a	1	OINTMENT	974	n/a	n/a	0	n/a	n/a	n/a	n/a	n/a
3091.34	n/a	FFR_REC_WORD	1545670	wordpools/wasnorm_wordpool.txt	LTP145	ltpFR	17	n/a	1	CHECKERS	285	n/a	n/a	0	n/a	n/a	n/a	n/a	n/a
3094.554	n/a	FFR_REC_WORD	1547277	wordpools/wasnorm_wordpool.txt	LTP145	ltpFR	17	n/a	1	FLANNEL	574	n/a	n/a	0	n/a	n/a	n/a	n/a	n/a
3097.892	n/a	FFR_REC_WORD	1548946	wordpools/wasnorm_wordpool.txt	LTP145	ltpFR	17	n/a	1	VAMPIRE	1547	n/a	n/a	1	n/a	n/a	n/a	n/a	n/a
3100.52	n/a	FFR_REC_WORD	1550260	wordpools/wasnorm_wordpool.txt	LTP145	ltpFR	17	n/a	1	LAPEL	800	n/a	n/a	0	n/a	n/a	n/a	n/a	n/a
3102.196	n/a	FFR_REC_WORD	1551098	wordpools/wasnorm_wordpool.txt	LTP145	ltpFR	17	n/a	1	COLLAR	345	n/a	n/a	0	n/a	n/a	n/a	n/a	n/a
3106.72	n/a	FFR_REC_WORD	1553360	wordpools/wasnorm_wordpool.txt	LTP145	ltpFR	17	n/a	1	FATHER	554	n/a	n/a	1	n/a	n/a	n/a	n/a	n/a
3126.846	n/a	FFR_REC_WORD	1563423	wordpools/wasnorm_wordpool.txt	LTP145	ltpFR	17	n/a	n/a	TICK	1463	n/a	n/a	n/a	n/a	n/a	n/a	n/a	n/a
3132.134	n/a	FFR_REC_WORD	1566067	wordpools/wasnorm_wordpool.txt	LTP145	ltpFR	17	n/a	1	TERMITE	1451	n/a	n/a	1	n/a	n/a	n/a	n/a	n/a
3139.658	n/a	FFR_REC_WORD	1569829	wordpools/wasnorm_wordpool.txt	LTP145	ltpFR	17	n/a	0	COOKIE	374	n/a	n/a	0	n/a	n/a	n/a	n/a	n/a
3140.676	n/a	FFR_REC_WORD	1570338	wordpools/wasnorm_wordpool.txt	LTP145	ltpFR	17	n/a	0	CHOCOLATE	306	n/a	n/a	0	n/a	n/a	n/a	n/a	n/a
3146.872	n/a	FFR_REC_WORD	1573436	wordpools/wasnorm_wordpool.txt	LTP145	ltpFR	17	n/a	-1	EAR	513	n/a	n/a	-1	n/a	n/a	n/a	n/a	n/a
3158.512	n/a	FFR_REC_WORD	1579256	wordpools/wasnorm_wordpool.txt	LTP145	ltpFR	17	n/a	0	BLUEBERRY	140	n/a	n/a	0	n/a	n/a	n/a	n/a	n/a
3159.284	n/a	FFR_REC_WORD	1579642	wordpools/wasnorm_wordpool.txt	LTP145	ltpFR	17	n/a	1	STRAWBERRY	1391	n/a	n/a	0	n/a	n/a	n/a	n/a	n/a
3160.312	n/a	FFR_REC_WORD	1580156	wordpools/wasnorm_wordpool.txt	LTP145	ltpFR	17	n/a	1	BLACKBERRY	132	n/a	n/a	0	n/a	n/a	n/a	n/a	n/a
3161.35	n/a	FFR_REC_WORD	1580675	wordpools/wasnorm_wordpool.txt	LTP145	ltpFR	17	n/a	1	BERRY	122	n/a	n/a	0	n/a	n/a	n/a	n/a	n/a
3167.256	n/a	FFR_REC_WORD	1583628	wordpools/wasnorm_wordpool.txt	LTP145	ltpFR	17	n/a	1	VEGETABLE	1552	n/a	n/a	0	n/a	n/a	n/a	n/a	n/a
3173.782	n/a	FFR_REC_WORD	1586891	wordpools/wasnorm_wordpool.txt	LTP145	ltpFR	17	n/a	1	STABLE	1363	n/a	n/a	0	n/a	n/a	n/a	n/a	n/a
3180.018	n/a	FFR_REC_WORD	1590009	wordpools/wasnorm_wordpool.txt	LTP145	ltpFR	17	n/a	1	FIG	563	n/a	n/a	0	n/a	n/a	n/a	n/a	n/a
3192.272	n/a	FFR_REC_WORD	1596136	wordpools/wasnorm_wordpool.txt	LTP145	ltpFR	17	n/a	1	GARBAGE	622	n/a	n/a	0	n/a	n/a	n/a	n/a	n/a
3193.272	n/a	FFR_REC_WORD_VV	1596636	wordpools/wasnorm_wordpool.txt	LTP145	ltpFR	17	n/a	n/a	<>	-1	n/a	n/a	n/a	n/a	n/a	n/a	n/a	n/a
3194.368	n/a	FFR_REC_WORD	1597184	wordpools/wasnorm_wordpool.txt	LTP145	ltpFR	17	n/a	-1	GARAGE	621	n/a	n/a	-1	n/a	n/a	n/a	n/a	n/a
3196.756	n/a	FFR_REC_WORD	1598378	wordpools/wasnorm_wordpool.txt	LTP145	ltpFR	17	n/a	-1	RAILROAD	1162	n/a	n/a	-1	n/a	n/a	n/a	n/a	n/a
3197.764	n/a	FFR_REC_WORD	1598882	wordpools/wasnorm_wordpool.txt	LTP145	ltpFR	17	n/a	-1	PATIO	1025	n/a	n/a	-1	n/a	n/a	n/a	n/a	n/a
3199.496	n/a	FFR_REC_WORD	1599748	wordpools/wasnorm_wordpool.txt	LTP145	ltpFR	17	n/a	-1	WHEEL	1603	n/a	n/a	-1	n/a	n/a	n/a	n/a	n/a
3200.478	n/a	FFR_REC_WORD	1600239	wordpools/wasnorm_wordpool.txt	LTP145	ltpFR	17	n/a	-1	BRIDGE	174	n/a	n/a	-1	n/a	n/a	n/a	n/a	n/a
3236.918	n/a	REC_START	1618459	n/a	LTP145	ltpFR	17	1	n/a	n/a	n/a	n/a	n/a	n/a	n/a	n/a	n/a	n/a	n/a
3236.95	n/a	RECOG_LURE	1618475	n/a	LTP145	ltpFR	17	1	n/a	CANARY	227	0	5	n/a	n/a	n/a	n/a	n/a	n/a
3238.28	n/a	RECOG_RESP	1619140	n/a	LTP145	ltpFR	17	1	n/a	CANARY	227	0	n/a	n/a	n/a	n/a	n/a	n/a	n/a
3239.168	n/a	RECOG_CONF	1619584	n/a	LTP145	ltpFR	17	1	n/a	CANARY	227	n/a	5	n/a	n/a	n/a	n/a	n/a	n/a
3240.74	n/a	RECOG_TARGET	1620370	n/a	LTP145	ltpFR	17	1	0	CERAMICS	271	1	5	1	n/a	n/a	n/a	n/a	n/a
3241.512	n/a	RECOG_RESP	1620756	n/a	LTP145	ltpFR	17	1	0	CERAMICS	271	1	n/a	1	n/a	n/a	n/a	n/a	n/a
3242.502	n/a	RECOG_CONF	1621251	n/a	LTP145	ltpFR	17	1	0	CERAMICS	271	n/a	5	1	n/a	n/a	n/a	n/a	n/a
3244.006	n/a	RECOG_LURE	1622003	n/a	LTP145	ltpFR	17	1	n/a	BALCONY	72	0	2	n/a	n/a	n/a	n/a	n/a	n/a
3244.75	n/a	RECOG_RESP	1622375	n/a	LTP145	ltpFR	17	1	n/a	BALCONY	72	0	n/a	n/a	n/a	n/a	n/a	n/a	n/a
3245.568	n/a	RECOG_CONF	1622784	n/a	LTP145	ltpFR	17	1	n/a	BALCONY	72	n/a	2	n/a	n/a	n/a	n/a	n/a	n/a
3247.014	n/a	RECOG_LURE	1623507	n/a	LTP145	ltpFR	17	1	n/a	SHERIFF	1284	0	2	n/a	n/a	n/a	n/a	n/a	n/a
3247.876	n/a	RECOG_RESP	1623938	n/a	LTP145	ltpFR	17	1	n/a	SHERIFF	1284	0	n/a	n/a	n/a	n/a	n/a	n/a	n/a
3248.61	n/a	RECOG_CONF	1624305	n/a	LTP145	ltpFR	17	1	n/a	SHERIFF	1284	n/a	2	n/a	n/a	n/a	n/a	n/a	n/a
3250.014	n/a	RECOG_LURE	1625007	n/a	LTP145	ltpFR	17	1	n/a	INFANT	737	0	2	n/a	n/a	n/a	n/a	n/a	n/a
3250.938	n/a	RECOG_RESP	1625469	n/a	LTP145	ltpFR	17	1	n/a	INFANT	737	0	n/a	n/a	n/a	n/a	n/a	n/a	n/a
3251.676	n/a	RECOG_CONF	1625838	n/a	LTP145	ltpFR	17	1	n/a	INFANT	737	n/a	2	n/a	n/a	n/a	n/a	n/a	n/a
3253.104	n/a	RECOG_TARGET	1626552	n/a	LTP145	ltpFR	17	1	1	GARBAGE	622	1	5	0	n/a	n/a	n/a	n/a	n/a
3253.782	n/a	RECOG_RESP	1626891	n/a	LTP145	ltpFR	17	1	1	GARBAGE	622	1	n/a	0	n/a	n/a	n/a	n/a	n/a
3254.578	n/a	RECOG_CONF	1627289	n/a	LTP145	ltpFR	17	1	1	GARBAGE	622	n/a	5	0	n/a	n/a	n/a	n/a	n/a
3256.028	n/a	RECOG_LURE	1628014	n/a	LTP145	ltpFR	17	1	n/a	GRAPE	654	0	2	n/a	n/a	n/a	n/a	n/a	n/a
3256.808	n/a	RECOG_RESP	1628404	n/a	LTP145	ltpFR	17	1	n/a	GRAPE	654	0	n/a	n/a	n/a	n/a	n/a	n/a	n/a
3257.618	n/a	RECOG_CONF	1628809	n/a	LTP145	ltpFR	17	1	n/a	GRAPE	654	n/a	2	n/a	n/a	n/a	n/a	n/a	n/a
3259.002	n/a	RECOG_TARGET	1629501	n/a	LTP145	ltpFR	17	1	0	BANJO	82	1	5	1	n/a	n/a	n/a	n/a	n/a
3259.716	n/a	RECOG_RESP	1629858	n/a	LTP145	ltpFR	17	1	0	BANJO	82	1	n/a	1	n/a	n/a	n/a	n/a	n/a
3260.464	n/a	RECOG_CONF	1630232	n/a	LTP145	ltpFR	17	1	0	BANJO	82	n/a	5	1	n/a	n/a	n/a	n/a	n/a
3261.86	n/a	RECOG_LURE	1630930	n/a	LTP145	ltpFR	17	1	n/a	CALF	222	0	2	n/a	n/a	n/a	n/a	n/a	n/a
3262.632	n/a	RECOG_RESP	1631316	n/a	LTP145	ltpFR	17	1	n/a	CALF	222	0	n/a	n/a	n/a	n/a	n/a	n/a	n/a
3263.438	n/a	RECOG_CONF	1631719	n/a	LTP145	ltpFR	17	1	n/a	CALF	222	n/a	2	n/a	n/a	n/a	n/a	n/a	n/a
3264.792	n/a	RECOG_LURE	1632396	n/a	LTP145	ltpFR	17	1	n/a	DOLPHIN	483	0	2	n/a	n/a	n/a	n/a	n/a	n/a
3265.424	n/a	RECOG_RESP	1632712	n/a	LTP145	ltpFR	17	1	n/a	DOLPHIN	483	0	n/a	n/a	n/a	n/a	n/a	n/a	n/a
3266.224	n/a	RECOG_CONF	1633112	n/a	LTP145	ltpFR	17	1	n/a	DOLPHIN	483	n/a	2	n/a	n/a	n/a	n/a	n/a	n/a
3267.46	n/a	RECOG_TARGET	1633730	n/a	LTP145	ltpFR	17	1	0	SWEATER	1419	1	5	0	n/a	n/a	n/a	n/a	n/a
3268.188	n/a	RECOG_RESP	1634094	n/a	LTP145	ltpFR	17	1	0	SWEATER	1419	1	n/a	0	n/a	n/a	n/a	n/a	n/a
3268.878	n/a	RECOG_CONF	1634439	n/a	LTP145	ltpFR	17	1	0	SWEATER	1419	n/a	5	0	n/a	n/a	n/a	n/a	n/a
3270.392	n/a	RECOG_TARGET	1635196	n/a	LTP145	ltpFR	17	1	0	STEAM	1375	1	5	0	n/a	n/a	n/a	n/a	n/a
3271.504	n/a	RECOG_RESP	1635752	n/a	LTP145	ltpFR	17	1	0	STEAM	1375	1	n/a	0	n/a	n/a	n/a	n/a	n/a
3272.182	n/a	RECOG_CONF	1636091	n/a	LTP145	ltpFR	17	1	0	STEAM	1375	n/a	5	0	n/a	n/a	n/a	n/a	n/a
3273.614	n/a	RECOG_LURE	1636807	n/a	LTP145	ltpFR	17	1	n/a	BUTTER	205	0	2	n/a	n/a	n/a	n/a	n/a	n/a
3274.398	n/a	RECOG_RESP	1637199	n/a	LTP145	ltpFR	17	1	n/a	BUTTER	205	0	n/a	n/a	n/a	n/a	n/a	n/a	n/a
3275.11	n/a	RECOG_CONF	1637555	n/a	LTP145	ltpFR	17	1	n/a	BUTTER	205	n/a	2	n/a	n/a	n/a	n/a	n/a	n/a
3276.572	n/a	RECOG_LURE	1638286	n/a	LTP145	ltpFR	17	1	n/a	MAID	856	0	2	n/a	n/a	n/a	n/a	n/a	n/a
3277.652	n/a	RECOG_RESP	1638826	n/a	LTP145	ltpFR	17	1	n/a	MAID	856	0	n/a	n/a	n/a	n/a	n/a	n/a	n/a
3278.406	n/a	RECOG_CONF	1639203	n/a	LTP145	ltpFR	17	1	n/a	MAID	856	n/a	2	n/a	n/a	n/a	n/a	n/a	n/a
3279.82	n/a	RECOG_LURE	1639910	n/a	LTP145	ltpFR	17	1	n/a	TOWN	1491	0	2	n/a	n/a	n/a	n/a	n/a	n/a
3280.632	n/a	RECOG_RESP	1640316	n/a	LTP145	ltpFR	17	1	n/a	TOWN	1491	0	n/a	n/a	n/a	n/a	n/a	n/a	n/a
3281.39	n/a	RECOG_CONF	1640695	n/a	LTP145	ltpFR	17	1	n/a	TOWN	1491	n/a	2	n/a	n/a	n/a	n/a	n/a	n/a
3282.77	n/a	RECOG_LURE	1641385	n/a	LTP145	ltpFR	17	1	n/a	CABINET	212	0	1	n/a	n/a	n/a	n/a	n/a	n/a
3283.556	n/a	RECOG_RESP	1641778	n/a	LTP145	ltpFR	17	1	n/a	CABINET	212	0	n/a	n/a	n/a	n/a	n/a	n/a	n/a
3284.308	n/a	RECOG_CONF	1642154	n/a	LTP145	ltpFR	17	1	n/a	CABINET	212	n/a	1	n/a	n/a	n/a	n/a	n/a	n/a
3285.67	n/a	RECOG_LURE	1642835	n/a	LTP145	ltpFR	17	1	n/a	CYCLONE	431	0	2	n/a	n/a	n/a	n/a	n/a	n/a
3286.436	n/a	RECOG_RESP	1643218	n/a	LTP145	ltpFR	17	1	n/a	CYCLONE	431	0	n/a	n/a	n/a	n/a	n/a	n/a	n/a
3287.15	n/a	RECOG_CONF	1643575	n/a	LTP145	ltpFR	17	1	n/a	CYCLONE	431	n/a	2	n/a	n/a	n/a	n/a	n/a	n/a
3288.478	n/a	RECOG_LURE	1644239	n/a	LTP145	ltpFR	17	1	n/a	DIME	466	0	2	n/a	n/a	n/a	n/a	n/a	n/a
3289.116	n/a	RECOG_RESP	1644558	n/a	LTP145	ltpFR	17	1	n/a	DIME	466	0	n/a	n/a	n/a	n/a	n/a	n/a	n/a
3289.848	n/a	RECOG_CONF	1644924	n/a	LTP145	ltpFR	17	1	n/a	DIME	466	n/a	2	n/a	n/a	n/a	n/a	n/a	n/a
3291.184	n/a	RECOG_LURE	1645592	n/a	LTP145	ltpFR	17	1	n/a	BLOSSOM	138	0	2	n/a	n/a	n/a	n/a	n/a	n/a
3291.836	n/a	RECOG_RESP	1645918	n/a	LTP145	ltpFR	17	1	n/a	BLOSSOM	138	0	n/a	n/a	n/a	n/a	n/a	n/a	n/a
3292.594	n/a	RECOG_CONF	1646297	n/a	LTP145	ltpFR	17	1	n/a	BLOSSOM	138	n/a	2	n/a	n/a	n/a	n/a	n/a	n/a
3293.85	n/a	RECOG_LURE	1646925	n/a	LTP145	ltpFR	17	1	n/a	THORN	1459	0	2	n/a	n/a	n/a	n/a	n/a	n/a
3294.444	n/a	RECOG_RESP	1647222	n/a	LTP145	ltpFR	17	1	n/a	THORN	1459	0	n/a	n/a	n/a	n/a	n/a	n/a	n/a
3295.156	n/a	RECOG_CONF	1647578	n/a	LTP145	ltpFR	17	1	n/a	THORN	1459	n/a	2	n/a	n/a	n/a	n/a	n/a	n/a
3298.282	n/a	REC_START	1649141	n/a	LTP145	ltpFR	17	2	n/a	n/a	n/a	n/a	n/a	n/a	n/a	n/a	n/a	n/a	n/a
3298.316	n/a	RECOG_LURE	1649158	n/a	LTP145	ltpFR	17	2	n/a	BURGLAR	200	0	2	n/a	n/a	n/a	n/a	n/a	n/a
3299.102	n/a	RECOG_RESP	1649551	n/a	LTP145	ltpFR	17	2	n/a	BURGLAR	200	0	n/a	n/a	n/a	n/a	n/a	n/a	n/a
3299.83	n/a	RECOG_CONF	1649915	n/a	LTP145	ltpFR	17	2	n/a	BURGLAR	200	n/a	2	n/a	n/a	n/a	n/a	n/a	n/a
3301.264	n/a	RECOG_LURE	1650632	n/a	LTP145	ltpFR	17	2	n/a	LIGHTER	819	0	2	n/a	n/a	n/a	n/a	n/a	n/a
3302.022	n/a	RECOG_RESP	1651011	n/a	LTP145	ltpFR	17	2	n/a	LIGHTER	819	0	n/a	n/a	n/a	n/a	n/a	n/a	n/a
3302.736	n/a	RECOG_CONF	1651368	n/a	LTP145	ltpFR	17	2	n/a	LIGHTER	819	n/a	2	n/a	n/a	n/a	n/a	n/a	n/a
3304.164	n/a	RECOG_TARGET	1652082	n/a	LTP145	ltpFR	17	2	0	BLUEBERRY	140	1	5	0	n/a	n/a	n/a	n/a	n/a
3304.814	n/a	RECOG_RESP	1652407	n/a	LTP145	ltpFR	17	2	0	BLUEBERRY	140	1	n/a	0	n/a	n/a	n/a	n/a	n/a
3305.546	n/a	RECOG_CONF	1652773	n/a	LTP145	ltpFR	17	2	0	BLUEBERRY	140	n/a	5	0	n/a	n/a	n/a	n/a	n/a
3307.004	n/a	RECOG_LURE	1653502	n/a	LTP145	ltpFR	17	2	n/a	SUNSET	1408	0	2	n/a	n/a	n/a	n/a	n/a	n/a
3307.688	n/a	RECOG_RESP	1653844	n/a	LTP145	ltpFR	17	2	n/a	SUNSET	1408	0	n/a	n/a	n/a	n/a	n/a	n/a	n/a
3308.354	n/a	RECOG_CONF	1654177	n/a	LTP145	ltpFR	17	2	n/a	SUNSET	1408	n/a	2	n/a	n/a	n/a	n/a	n/a	n/a
3309.746	n/a	RECOG_LURE	1654873	n/a	LTP145	ltpFR	17	2	n/a	PENNY	1045	0	2	n/a	n/a	n/a	n/a	n/a	n/a
3310.628	n/a	RECOG_RESP	1655314	n/a	LTP145	ltpFR	17	2	n/a	PENNY	1045	0	n/a	n/a	n/a	n/a	n/a	n/a	n/a
3311.38	n/a	RECOG_CONF	1655690	n/a	LTP145	ltpFR	17	2	n/a	PENNY	1045	n/a	2	n/a	n/a	n/a	n/a	n/a	n/a
3312.72	n/a	RECOG_TARGET	1656360	n/a	LTP145	ltpFR	17	2	0	NOTEBOOK	959	1	5	0	n/a	n/a	n/a	n/a	n/a
3313.742	n/a	RECOG_RESP	1656871	n/a	LTP145	ltpFR	17	2	0	NOTEBOOK	959	1	n/a	0	n/a	n/a	n/a	n/a	n/a
3314.512	n/a	RECOG_CONF	1657256	n/a	LTP145	ltpFR	17	2	0	NOTEBOOK	959	n/a	5	0	n/a	n/a	n/a	n/a	n/a
3315.984	n/a	RECOG_TARGET	1657992	n/a	LTP145	ltpFR	17	2	1	AIRPLANE	12	1	4	0	n/a	n/a	n/a	n/a	n/a
3316.676	n/a	RECOG_RESP	1658338	n/a	LTP145	ltpFR	17	2	1	AIRPLANE	12	1	n/a	0	n/a	n/a	n/a	n/a	n/a
3317.564	n/a	RECOG_CONF	1658782	n/a	LTP145	ltpFR	17	2	1	AIRPLANE	12	n/a	4	0	n/a	n/a	n/a	n/a	n/a
3318.976	n/a	RECOG_TARGET	1659488	n/a	LTP145	ltpFR	17	2	0	OAR	966	1	5	0	n/a	n/a	n/a	n/a	n/a
3320.258	n/a	RECOG_RESP	1660129	n/a	LTP145	ltpFR	17	2	0	OAR	966	1	n/a	0	n/a	n/a	n/a	n/a	n/a
3321.092	n/a	RECOG_CONF	1660546	n/a	LTP145	ltpFR	17	2	0	OAR	966	n/a	5	0	n/a	n/a	n/a	n/a	n/a
3322.598	n/a	RECOG_LURE	1661299	n/a	LTP145	ltpFR	17	2	n/a	VICTIM	1562	0	1	n/a	n/a	n/a	n/a	n/a	n/a
3323.408	n/a	RECOG_RESP	1661704	n/a	LTP145	ltpFR	17	2	n/a	VICTIM	1562	0	n/a	n/a	n/a	n/a	n/a	n/a	n/a
3324.076	n/a	RECOG_CONF	1662038	n/a	LTP145	ltpFR	17	2	n/a	VICTIM	1562	n/a	1	n/a	n/a	n/a	n/a	n/a	n/a
3325.582	n/a	RECOG_LURE	1662791	n/a	LTP145	ltpFR	17	2	n/a	PUPPY	1144	0	2	n/a	n/a	n/a	n/a	n/a	n/a
3326.218	n/a	RECOG_RESP	1663109	n/a	LTP145	ltpFR	17	2	n/a	PUPPY	1144	0	n/a	n/a	n/a	n/a	n/a	n/a	n/a
3326.906	n/a	RECOG_CONF	1663453	n/a	LTP145	ltpFR	17	2	n/a	PUPPY	1144	n/a	2	n/a	n/a	n/a	n/a	n/a	n/a
3328.348	n/a	RECOG_LURE	1664174	n/a	LTP145	ltpFR	17	2	n/a	CALENDAR	221	0	2	n/a	n/a	n/a	n/a	n/a	n/a
3329.032	n/a	RECOG_RESP	1664516	n/a	LTP145	ltpFR	17	2	n/a	CALENDAR	221	0	n/a	n/a	n/a	n/a	n/a	n/a	n/a
3329.66	n/a	RECOG_CONF	1664830	n/a	LTP145	ltpFR	17	2	n/a	CALENDAR	221	n/a	2	n/a	n/a	n/a	n/a	n/a	n/a
3331.088	n/a	RECOG_TARGET	1665544	n/a	LTP145	ltpFR	17	2	-1	PEN	1041	1	5	-1	n/a	n/a	n/a	n/a	n/a
3331.766	n/a	RECOG_RESP	1665883	n/a	LTP145	ltpFR	17	2	-1	PEN	1041	1	n/a	-1	n/a	n/a	n/a	n/a	n/a
3332.396	n/a	RECOG_CONF	1666198	n/a	LTP145	ltpFR	17	2	-1	PEN	1041	n/a	5	-1	n/a	n/a	n/a	n/a	n/a
3333.862	n/a	RECOG_TARGET	1666931	n/a	LTP145	ltpFR	17	2	0	HEDGE	699	1	5	0	n/a	n/a	n/a	n/a	n/a
3334.412	n/a	RECOG_RESP	1667206	n/a	LTP145	ltpFR	17	2	0	HEDGE	699	1	n/a	0	n/a	n/a	n/a	n/a	n/a
3335.006	n/a	RECOG_CONF	1667503	n/a	LTP145	ltpFR	17	2	0	HEDGE	699	n/a	5	0	n/a	n/a	n/a	n/a	n/a
3336.404	n/a	RECOG_LURE	1668202	n/a	LTP145	ltpFR	17	2	n/a	HERB	704	0	2	n/a	n/a	n/a	n/a	n/a	n/a
3337.148	n/a	RECOG_RESP	1668574	n/a	LTP145	ltpFR	17	2	n/a	HERB	704	0	n/a	n/a	n/a	n/a	n/a	n/a	n/a
3337.81	n/a	RECOG_CONF	1668905	n/a	LTP145	ltpFR	17	2	n/a	HERB	704	n/a	2	n/a	n/a	n/a	n/a	n/a	n/a
3339.236	n/a	RECOG_LURE	1669618	n/a	LTP145	ltpFR	17	2	n/a	MULE	931	0	2	n/a	n/a	n/a	n/a	n/a	n/a
3339.91	n/a	RECOG_RESP	1669955	n/a	LTP145	ltpFR	17	2	n/a	MULE	931	0	n/a	n/a	n/a	n/a	n/a	n/a	n/a
3340.622	n/a	RECOG_CONF	1670311	n/a	LTP145	ltpFR	17	2	n/a	MULE	931	n/a	2	n/a	n/a	n/a	n/a	n/a	n/a
3342.102	n/a	RECOG_TARGET	1671051	n/a	LTP145	ltpFR	17	2	0	BELLY	119	1	5	0	n/a	n/a	n/a	n/a	n/a
3342.72	n/a	RECOG_RESP	1671360	n/a	LTP145	ltpFR	17	2	0	BELLY	119	1	n/a	0	n/a	n/a	n/a	n/a	n/a
3343.408	n/a	RECOG_CONF	1671704	n/a	LTP145	ltpFR	17	2	0	BELLY	119	n/a	5	0	n/a	n/a	n/a	n/a	n/a
3344.834	n/a	RECOG_TARGET	1672417	n/a	LTP145	ltpFR	17	2	1	ELF	525	1	2	1	n/a	n/a	n/a	n/a	n/a
3346.202	n/a	RECOG_RESP	1673101	n/a	LTP145	ltpFR	17	2	1	ELF	525	1	n/a	1	n/a	n/a	n/a	n/a	n/a
3347.024	n/a	RECOG_CONF	1673512	n/a	LTP145	ltpFR	17	2	1	ELF	525	n/a	2	1	n/a	n/a	n/a	n/a	n/a
3348.4	n/a	RECOG_TARGET	1674200	n/a	LTP145	ltpFR	17	2	0	PAINT	1003	1	5	0	n/a	n/a	n/a	n/a	n/a
3349.18	n/a	RECOG_RESP	1674590	n/a	LTP145	ltpFR	17	2	0	PAINT	1003	1	n/a	0	n/a	n/a	n/a	n/a	n/a
3349.824	n/a	RECOG_CONF	1674912	n/a	LTP145	ltpFR	17	2	0	PAINT	1003	n/a	5	0	n/a	n/a	n/a	n/a	n/a
3351.258	n/a	RECOG_LURE	1675629	n/a	LTP145	ltpFR	17	2	n/a	CHEF	290	0	1	n/a	n/a	n/a	n/a	n/a	n/a
3352.58	n/a	RECOG_RESP	1676290	n/a	LTP145	ltpFR	17	2	n/a	CHEF	290	0	n/a	n/a	n/a	n/a	n/a	n/a	n/a
3353.368	n/a	RECOG_CONF	1676684	n/a	LTP145	ltpFR	17	2	n/a	CHEF	290	n/a	1	n/a	n/a	n/a	n/a	n/a	n/a
3354.872	n/a	RECOG_TARGET	1677436	n/a	LTP145	ltpFR	17	2	0	GYMNAST	675	1	5	1	n/a	n/a	n/a	n/a	n/a
3355.516	n/a	RECOG_RESP	1677758	n/a	LTP145	ltpFR	17	2	0	GYMNAST	675	1	n/a	1	n/a	n/a	n/a	n/a	n/a
3356.132	n/a	RECOG_CONF	1678066	n/a	LTP145	ltpFR	17	2	0	GYMNAST	675	n/a	5	1	n/a	n/a	n/a	n/a	n/a
3359.412	n/a	REC_START	1679706	n/a	LTP145	ltpFR	17	3	n/a	n/a	n/a	n/a	n/a	n/a	n/a	n/a	n/a	n/a	n/a
3359.446	n/a	RECOG_TARGET	1679723	n/a	LTP145	ltpFR	17	3	0	SOFTBALL	1343	1	5	0	n/a	n/a	n/a	n/a	n/a
3360.262	n/a	RECOG_RESP	1680131	n/a	LTP145	ltpFR	17	3	0	SOFTBALL	1343	1	n/a	0	n/a	n/a	n/a	n/a	n/a
3360.904	n/a	RECOG_CONF	1680452	n/a	LTP145	ltpFR	17	3	0	SOFTBALL	1343	n/a	5	0	n/a	n/a	n/a	n/a	n/a
3362.306	n/a	RECOG_TARGET	1681153	n/a	LTP145	ltpFR	17	3	1	OUTDOORS	987	1	1	1	n/a	n/a	n/a	n/a	n/a
3363.458	n/a	RECOG_RESP	1681729	n/a	LTP145	ltpFR	17	3	1	OUTDOORS	987	1	n/a	1	n/a	n/a	n/a	n/a	n/a
3364.218	n/a	RECOG_CONF	1682109	n/a	LTP145	ltpFR	17	3	1	OUTDOORS	987	n/a	1	1	n/a	n/a	n/a	n/a	n/a
3365.662	n/a	RECOG_TARGET	1682831	n/a	LTP145	ltpFR	17	3	0	CHEEK	287	1	5	0	n/a	n/a	n/a	n/a	n/a
3366.322	n/a	RECOG_RESP	1683161	n/a	LTP145	ltpFR	17	3	0	CHEEK	287	1	n/a	0	n/a	n/a	n/a	n/a	n/a
3366.98	n/a	RECOG_CONF	1683490	n/a	LTP145	ltpFR	17	3	0	CHEEK	287	n/a	5	0	n/a	n/a	n/a	n/a	n/a
3368.354	n/a	RECOG_TARGET	1684177	n/a	LTP145	ltpFR	17	3	-1	ASTRONAUT	51	1	5	-1	n/a	n/a	n/a	n/a	n/a
3369.034	n/a	RECOG_RESP	1684517	n/a	LTP145	ltpFR	17	3	-1	ASTRONAUT	51	1	n/a	-1	n/a	n/a	n/a	n/a	n/a
3369.638	n/a	RECOG_CONF	1684819	n/a	LTP145	ltpFR	17	3	-1	ASTRONAUT	51	n/a	5	-1	n/a	n/a	n/a	n/a	n/a
3371.092	n/a	RECOG_LURE	1685546	n/a	LTP145	ltpFR	17	3	n/a	RASPBERRY	1168	0	1	n/a	n/a	n/a	n/a	n/a	n/a
3372.014	n/a	RECOG_RESP	1686007	n/a	LTP145	ltpFR	17	3	n/a	RASPBERRY	1168	0	n/a	n/a	n/a	n/a	n/a	n/a	n/a
3372.768	n/a	RECOG_CONF	1686384	n/a	LTP145	ltpFR	17	3	n/a	RASPBERRY	1168	n/a	1	n/a	n/a	n/a	n/a	n/a	n/a
3374.216	n/a	RECOG_TARGET	1687108	n/a	LTP145	ltpFR	17	3	1	INMATE	738	1	5	1	n/a	n/a	n/a	n/a	n/a
3374.87	n/a	RECOG_RESP	1687435	n/a	LTP145	ltpFR	17	3	1	INMATE	738	1	n/a	1	n/a	n/a	n/a	n/a	n/a
3375.504	n/a	RECOG_CONF	1687752	n/a	LTP145	ltpFR	17	3	1	INMATE	738	n/a	5	1	n/a	n/a	n/a	n/a	n/a
3376.982	n/a	RECOG_TARGET	1688491	n/a	LTP145	ltpFR	17	3	-1	CUB	419	1	5	-1	n/a	n/a	n/a	n/a	n/a
3377.504	n/a	RECOG_RESP	1688752	n/a	LTP145	ltpFR	17	3	-1	CUB	419	1	n/a	-1	n/a	n/a	n/a	n/a	n/a
3378.234	n/a	RECOG_CONF	1689117	n/a	LTP145	ltpFR	17	3	-1	CUB	419	n/a	5	-1	n/a	n/a	n/a	n/a	n/a
3379.706	n/a	RECOG_TARGET	1689853	n/a	LTP145	ltpFR	17	3	-1	SLIDE	1326	1	5	-1	n/a	n/a	n/a	n/a	n/a
3380.422	n/a	RECOG_RESP	1690211	n/a	LTP145	ltpFR	17	3	-1	SLIDE	1326	1	n/a	-1	n/a	n/a	n/a	n/a	n/a
3381.142	n/a	RECOG_CONF	1690571	n/a	LTP145	ltpFR	17	3	-1	SLIDE	1326	n/a	5	-1	n/a	n/a	n/a	n/a	n/a
3382.614	n/a	RECOG_TARGET	1691307	n/a	LTP145	ltpFR	17	3	1	FOOT	590	1	5	0	n/a	n/a	n/a	n/a	n/a
3383.148	n/a	RECOG_RESP	1691574	n/a	LTP145	ltpFR	17	3	1	FOOT	590	1	n/a	0	n/a	n/a	n/a	n/a	n/a
3383.832	n/a	RECOG_CONF	1691916	n/a	LTP145	ltpFR	17	3	1	FOOT	590	n/a	5	0	n/a	n/a	n/a	n/a	n/a
3385.156	n/a	RECOG_LURE	1692578	n/a	LTP145	ltpFR	17	3	n/a	SPHINX	1349	0	2	n/a	n/a	n/a	n/a	n/a	n/a
3385.858	n/a	RECOG_RESP	1692929	n/a	LTP145	ltpFR	17	3	n/a	SPHINX	1349	0	n/a	n/a	n/a	n/a	n/a	n/a	n/a
3386.518	n/a	RECOG_CONF	1693259	n/a	LTP145	ltpFR	17	3	n/a	SPHINX	1349	n/a	2	n/a	n/a	n/a	n/a	n/a	n/a
3387.93	n/a	RECOG_TARGET	1693965	n/a	LTP145	ltpFR	17	3	1	STRAWBERRY	1391	1	2	0	n/a	n/a	n/a	n/a	n/a
3389.59	n/a	RECOG_RESP	1694795	n/a	LTP145	ltpFR	17	3	1	STRAWBERRY	1391	1	n/a	0	n/a	n/a	n/a	n/a	n/a
3391.146	n/a	RECOG_CONF	1695573	n/a	LTP145	ltpFR	17	3	1	STRAWBERRY	1391	n/a	2	0	n/a	n/a	n/a	n/a	n/a
3392.736	n/a	RECOG_LURE	1696368	n/a	LTP145	ltpFR	17	3	n/a	ROOST	1208	0	2	n/a	n/a	n/a	n/a	n/a	n/a
3394.45	n/a	RECOG_RESP	1697225	n/a	LTP145	ltpFR	17	3	n/a	ROOST	1208	0	n/a	n/a	n/a	n/a	n/a	n/a	n/a
3395.196	n/a	RECOG_CONF	1697598	n/a	LTP145	ltpFR	17	3	n/a	ROOST	1208	n/a	2	n/a	n/a	n/a	n/a	n/a	n/a
3396.594	n/a	RECOG_TARGET	1698297	n/a	LTP145	ltpFR	17	3	0	YOLK	1633	1	5	0	n/a	n/a	n/a	n/a	n/a
3397.232	n/a	RECOG_RESP	1698616	n/a	LTP145	ltpFR	17	3	0	YOLK	1633	1	n/a	0	n/a	n/a	n/a	n/a	n/a
3397.962	n/a	RECOG_CONF	1698981	n/a	LTP145	ltpFR	17	3	0	YOLK	1633	n/a	5	0	n/a	n/a	n/a	n/a	n/a
3399.328	n/a	RECOG_LURE	1699664	n/a	LTP145	ltpFR	17	3	n/a	STRING	1394	0	1	n/a	n/a	n/a	n/a	n/a	n/a
3400.144	n/a	RECOG_RESP	1700072	n/a	LTP145	ltpFR	17	3	n/a	STRING	1394	0	n/a	n/a	n/a	n/a	n/a	n/a	n/a
3400.896	n/a	RECOG_CONF	1700448	n/a	LTP145	ltpFR	17	3	n/a	STRING	1394	n/a	1	n/a	n/a	n/a	n/a	n/a	n/a
3402.284	n/a	RECOG_TARGET	1701142	n/a	LTP145	ltpFR	17	3	1	BEAN	105	1	5	0	n/a	n/a	n/a	n/a	n/a
3402.96	n/a	RECOG_RESP	1701480	n/a	LTP145	ltpFR	17	3	1	BEAN	105	1	n/a	0	n/a	n/a	n/a	n/a	n/a
3403.768	n/a	RECOG_CONF	1701884	n/a	LTP145	ltpFR	17	3	1	BEAN	105	n/a	5	0	n/a	n/a	n/a	n/a	n/a
3405.2	n/a	RECOG_TARGET	1702600	n/a	LTP145	ltpFR	17	3	0	BODY	145	1	5	1	n/a	n/a	n/a	n/a	n/a
3405.754	n/a	RECOG_RESP	1702877	n/a	LTP145	ltpFR	17	3	0	BODY	145	1	n/a	1	n/a	n/a	n/a	n/a	n/a
3406.46	n/a	RECOG_CONF	1703230	n/a	LTP145	ltpFR	17	3	0	BODY	145	n/a	5	1	n/a	n/a	n/a	n/a	n/a
3407.832	n/a	RECOG_TARGET	1703916	n/a	LTP145	ltpFR	17	3	-1	DINNER	468	1	5	-1	n/a	n/a	n/a	n/a	n/a
3408.45	n/a	RECOG_RESP	1704225	n/a	LTP145	ltpFR	17	3	-1	DINNER	468	1	n/a	-1	n/a	n/a	n/a	n/a	n/a
3409.166	n/a	RECOG_CONF	1704583	n/a	LTP145	ltpFR	17	3	-1	DINNER	468	n/a	5	-1	n/a	n/a	n/a	n/a	n/a
3410.54	n/a	RECOG_TARGET	1705270	n/a	LTP145	ltpFR	17	3	0	PRODUCER	1129	1	2	1	n/a	n/a	n/a	n/a	n/a
3411.1	n/a	RECOG_RESP	1705550	n/a	LTP145	ltpFR	17	3	0	PRODUCER	1129	1	n/a	1	n/a	n/a	n/a	n/a	n/a
3411.816	n/a	RECOG_CONF	1705908	n/a	LTP145	ltpFR	17	3	0	PRODUCER	1129	n/a	2	1	n/a	n/a	n/a	n/a	n/a
3413.246	n/a	RECOG_TARGET	1706623	n/a	LTP145	ltpFR	17	3	0	BEAVER	109	1	5	0	n/a	n/a	n/a	n/a	n/a
3413.758	n/a	RECOG_RESP	1706879	n/a	LTP145	ltpFR	17	3	0	BEAVER	109	1	n/a	0	n/a	n/a	n/a	n/a	n/a
3414.39	n/a	RECOG_CONF	1707195	n/a	LTP145	ltpFR	17	3	0	BEAVER	109	n/a	5	0	n/a	n/a	n/a	n/a	n/a
3415.878	n/a	RECOG_TARGET	1707939	n/a	LTP145	ltpFR	17	3	0	SODA	1341	1	5	0	n/a	n/a	n/a	n/a	n/a
3416.394	n/a	RECOG_RESP	1708197	n/a	LTP145	ltpFR	17	3	0	SODA	1341	1	n/a	0	n/a	n/a	n/a	n/a	n/a
3417.138	n/a	RECOG_CONF	1708569	n/a	LTP145	ltpFR	17	3	0	SODA	1341	n/a	5	0	n/a	n/a	n/a	n/a	n/a
3420.356	n/a	REC_START	1710178	n/a	LTP145	ltpFR	17	4	n/a	n/a	n/a	n/a	n/a	n/a	n/a	n/a	n/a	n/a	n/a
3420.388	n/a	RECOG_LURE	1710194	n/a	LTP145	ltpFR	17	4	n/a	BEAR	106	0	2	n/a	n/a	n/a	n/a	n/a	n/a
3421.426	n/a	RECOG_RESP	1710713	n/a	LTP145	ltpFR	17	4	n/a	BEAR	106	0	n/a	n/a	n/a	n/a	n/a	n/a	n/a
3422.1	n/a	RECOG_CONF	1711050	n/a	LTP145	ltpFR	17	4	n/a	BEAR	106	n/a	2	n/a	n/a	n/a	n/a	n/a	n/a
3423.618	n/a	RECOG_TARGET	1711809	n/a	LTP145	ltpFR	17	4	-1	SINK	1309	1	5	-1	n/a	n/a	n/a	n/a	n/a
3424.31	n/a	RECOG_RESP	1712155	n/a	LTP145	ltpFR	17	4	-1	SINK	1309	1	n/a	-1	n/a	n/a	n/a	n/a	n/a
3424.97	n/a	RECOG_CONF	1712485	n/a	LTP145	ltpFR	17	4	-1	SINK	1309	n/a	5	-1	n/a	n/a	n/a	n/a	n/a
3426.418	n/a	RECOG_TARGET	1713209	n/a	LTP145	ltpFR	17	4	-1	MOON	914	1	5	-1	n/a	n/a	n/a	n/a	n/a
3427.004	n/a	RECOG_RESP	1713502	n/a	LTP145	ltpFR	17	4	-1	MOON	914	1	n/a	-1	n/a	n/a	n/a	n/a	n/a
3427.696	n/a	RECOG_CONF	1713848	n/a	LTP145	ltpFR	17	4	-1	MOON	914	n/a	5	-1	n/a	n/a	n/a	n/a	n/a
3429.05	n/a	RECOG_LURE	1714525	n/a	LTP145	ltpFR	17	4	n/a	VIOLIN	1571	0	2	n/a	n/a	n/a	n/a	n/a	n/a
3429.604	n/a	RECOG_RESP_VV	1714802	n/a	LTP145	ltpFR	17	4	n/a	VIOLIN	1571	1	n/a	n/a	n/a	n/a	n/a	n/a	n/a
3430.562	n/a	RECOG_RESP	1715281	n/a	LTP145	ltpFR	17	4	n/a	VIOLIN	1571	0	n/a	n/a	n/a	n/a	n/a	n/a	n/a
3431.542	n/a	RECOG_CONF	1715771	n/a	LTP145	ltpFR	17	4	n/a	VIOLIN	1571	n/a	2	n/a	n/a	n/a	n/a	n/a	n/a
3433.066	n/a	RECOG_LURE	1716533	n/a	LTP145	ltpFR	17	4	n/a	MONARCH	906	0	2	n/a	n/a	n/a	n/a	n/a	n/a
3433.946	n/a	RECOG_RESP	1716973	n/a	LTP145	ltpFR	17	4	n/a	MONARCH	906	0	n/a	n/a	n/a	n/a	n/a	n/a	n/a
3434.578	n/a	RECOG_CONF	1717289	n/a	LTP145	ltpFR	17	4	n/a	MONARCH	906	n/a	2	n/a	n/a	n/a	n/a	n/a	n/a
3435.94	n/a	RECOG_LURE	1717970	n/a	LTP145	ltpFR	17	4	n/a	ANKLE	24	0	2	n/a	n/a	n/a	n/a	n/a	n/a
3437.016	n/a	RECOG_RESP	1718508	n/a	LTP145	ltpFR	17	4	n/a	ANKLE	24	0	n/a	n/a	n/a	n/a	n/a	n/a	n/a
3437.632	n/a	RECOG_CONF	1718816	n/a	LTP145	ltpFR	17	4	n/a	ANKLE	24	n/a	2	n/a	n/a	n/a	n/a	n/a	n/a
3439.106	n/a	RECOG_LURE	1719553	n/a	LTP145	ltpFR	17	4	n/a	SUBWAY	1400	0	2	n/a	n/a	n/a	n/a	n/a	n/a
3439.76	n/a	RECOG_RESP	1719880	n/a	LTP145	ltpFR	17	4	n/a	SUBWAY	1400	0	n/a	n/a	n/a	n/a	n/a	n/a	n/a
3440.39	n/a	RECOG_CONF	1720195	n/a	LTP145	ltpFR	17	4	n/a	SUBWAY	1400	n/a	2	n/a	n/a	n/a	n/a	n/a	n/a
3441.872	n/a	RECOG_TARGET	1720936	n/a	LTP145	ltpFR	17	4	0	VIOLA	1570	1	5	1	n/a	n/a	n/a	n/a	n/a
3442.594	n/a	RECOG_RESP	1721297	n/a	LTP145	ltpFR	17	4	0	VIOLA	1570	1	n/a	1	n/a	n/a	n/a	n/a	n/a
3443.27	n/a	RECOG_CONF	1721635	n/a	LTP145	ltpFR	17	4	0	VIOLA	1570	n/a	5	1	n/a	n/a	n/a	n/a	n/a
3444.712	n/a	RECOG_LURE	1722356	n/a	LTP145	ltpFR	17	4	n/a	SHINGLE	1285	0	2	n/a	n/a	n/a	n/a	n/a	n/a
3445.476	n/a	RECOG_RESP	1722738	n/a	LTP145	ltpFR	17	4	n/a	SHINGLE	1285	0	n/a	n/a	n/a	n/a	n/a	n/a	n/a
3446.088	n/a	RECOG_CONF	1723044	n/a	LTP145	ltpFR	17	4	n/a	SHINGLE	1285	n/a	2	n/a	n/a	n/a	n/a	n/a	n/a
3447.554	n/a	RECOG_LURE	1723777	n/a	LTP145	ltpFR	17	4	n/a	GLASS	639	0	2	n/a	n/a	n/a	n/a	n/a	n/a
3448.366	n/a	RECOG_RESP	1724183	n/a	LTP145	ltpFR	17	4	n/a	GLASS	639	0	n/a	n/a	n/a	n/a	n/a	n/a	n/a
3448.988	n/a	RECOG_CONF	1724494	n/a	LTP145	ltpFR	17	4	n/a	GLASS	639	n/a	2	n/a	n/a	n/a	n/a	n/a	n/a
3450.378	n/a	RECOG_TARGET	1725189	n/a	LTP145	ltpFR	17	4	0	TUB	1514	1	5	0	n/a	n/a	n/a	n/a	n/a
3451.108	n/a	RECOG_RESP	1725554	n/a	LTP145	ltpFR	17	4	0	TUB	1514	1	n/a	0	n/a	n/a	n/a	n/a	n/a
3451.76	n/a	RECOG_CONF	1725880	n/a	LTP145	ltpFR	17	4	0	TUB	1514	n/a	5	0	n/a	n/a	n/a	n/a	n/a
3453.142	n/a	RECOG_TARGET	1726571	n/a	LTP145	ltpFR	17	4	1	BLACKBERRY	132	1	5	0	n/a	n/a	n/a	n/a	n/a
3453.83	n/a	RECOG_RESP	1726915	n/a	LTP145	ltpFR	17	4	1	BLACKBERRY	132	1	n/a	0	n/a	n/a	n/a	n/a	n/a
3454.464	n/a	RECOG_CONF	1727232	n/a	LTP145	ltpFR	17	4	1	BLACKBERRY	132	n/a	5	0	n/a	n/a	n/a	n/a	n/a
3455.842	n/a	RECOG_LURE	1727921	n/a	LTP145	ltpFR	17	4	n/a	ROPE	1211	0	2	n/a	n/a	n/a	n/a	n/a	n/a
3456.562	n/a	RECOG_RESP	1728281	n/a	LTP145	ltpFR	17	4	n/a	ROPE	1211	0	n/a	n/a	n/a	n/a	n/a	n/a	n/a
3457.196	n/a	RECOG_CONF	1728598	n/a	LTP145	ltpFR	17	4	n/a	ROPE	1211	n/a	2	n/a	n/a	n/a	n/a	n/a	n/a
3458.65	n/a	RECOG_LURE	1729325	n/a	LTP145	ltpFR	17	4	n/a	MUFFIN	929	0	2	n/a	n/a	n/a	n/a	n/a	n/a
3459.342	n/a	RECOG_RESP	1729671	n/a	LTP145	ltpFR	17	4	n/a	MUFFIN	929	0	n/a	n/a	n/a	n/a	n/a	n/a	n/a
3459.968	n/a	RECOG_CONF	1729984	n/a	LTP145	ltpFR	17	4	n/a	MUFFIN	929	n/a	2	n/a	n/a	n/a	n/a	n/a	n/a
3461.45	n/a	RECOG_LURE	1730725	n/a	LTP145	ltpFR	17	4	n/a	CASHEW	253	0	2	n/a	n/a	n/a	n/a	n/a	n/a
3462.214	n/a	RECOG_RESP	1731107	n/a	LTP145	ltpFR	17	4	n/a	CASHEW	253	0	n/a	n/a	n/a	n/a	n/a	n/a	n/a
3462.882	n/a	RECOG_CONF	1731441	n/a	LTP145	ltpFR	17	4	n/a	CASHEW	253	n/a	2	n/a	n/a	n/a	n/a	n/a	n/a
3464.232	n/a	RECOG_LURE	1732116	n/a	LTP145	ltpFR	17	4	n/a	RELATIVE	1182	0	2	n/a	n/a	n/a	n/a	n/a	n/a
3464.934	n/a	RECOG_RESP	1732467	n/a	LTP145	ltpFR	17	4	n/a	RELATIVE	1182	0	n/a	n/a	n/a	n/a	n/a	n/a	n/a
3465.544	n/a	RECOG_CONF	1732772	n/a	LTP145	ltpFR	17	4	n/a	RELATIVE	1182	n/a	2	n/a	n/a	n/a	n/a	n/a	n/a
3467.014	n/a	RECOG_LURE	1733507	n/a	LTP145	ltpFR	17	4	n/a	SWIMMER	1420	0	2	n/a	n/a	n/a	n/a	n/a	n/a
3467.624	n/a	RECOG_RESP	1733812	n/a	LTP145	ltpFR	17	4	n/a	SWIMMER	1420	0	n/a	n/a	n/a	n/a	n/a	n/a	n/a
3468.292	n/a	RECOG_CONF	1734146	n/a	LTP145	ltpFR	17	4	n/a	SWIMMER	1420	n/a	2	n/a	n/a	n/a	n/a	n/a	n/a
3469.83	n/a	RECOG_TARGET	1734915	n/a	LTP145	ltpFR	17	4	0	BOUQUET	157	1	5	0	n/a	n/a	n/a	n/a	n/a
3470.622	n/a	RECOG_RESP	1735311	n/a	LTP145	ltpFR	17	4	0	BOUQUET	157	1	n/a	0	n/a	n/a	n/a	n/a	n/a
3471.178	n/a	RECOG_CONF	1735589	n/a	LTP145	ltpFR	17	4	0	BOUQUET	157	n/a	5	0	n/a	n/a	n/a	n/a	n/a
3472.72	n/a	RECOG_LURE	1736360	n/a	LTP145	ltpFR	17	4	n/a	CIRCUS	311	0	1	n/a	n/a	n/a	n/a	n/a	n/a
3473.404	n/a	RECOG_RESP	1736702	n/a	LTP145	ltpFR	17	4	n/a	CIRCUS	311	0	n/a	n/a	n/a	n/a	n/a	n/a	n/a
3474.098	n/a	RECOG_CONF	1737049	n/a	LTP145	ltpFR	17	4	n/a	CIRCUS	311	n/a	1	n/a	n/a	n/a	n/a	n/a	n/a
3475.536	n/a	RECOG_TARGET	1737768	n/a	LTP145	ltpFR	17	4	0	HOUSE	725	1	5	1	n/a	n/a	n/a	n/a	n/a
3476.35	n/a	RECOG_RESP	1738175	n/a	LTP145	ltpFR	17	4	0	HOUSE	725	1	n/a	1	n/a	n/a	n/a	n/a	n/a
3476.942	n/a	RECOG_CONF	1738471	n/a	LTP145	ltpFR	17	4	0	HOUSE	725	n/a	5	1	n/a	n/a	n/a	n/a	n/a
3480.212	n/a	REC_START	1740106	n/a	LTP145	ltpFR	17	5	n/a	n/a	n/a	n/a	n/a	n/a	n/a	n/a	n/a	n/a	n/a
3480.244	n/a	RECOG_TARGET	1740122	n/a	LTP145	ltpFR	17	5	1	FATHER	554	1	5	1	n/a	n/a	n/a	n/a	n/a
3480.932	n/a	RECOG_RESP	1740466	n/a	LTP145	ltpFR	17	5	1	FATHER	554	1	n/a	1	n/a	n/a	n/a	n/a	n/a
3481.446	n/a	RECOG_CONF	1740723	n/a	LTP145	ltpFR	17	5	1	FATHER	554	n/a	5	1	n/a	n/a	n/a	n/a	n/a
3482.95	n/a	RECOG_TARGET	1741475	n/a	LTP145	ltpFR	17	5	0	PLATE	1086	1	5	0	n/a	n/a	n/a	n/a	n/a
3483.472	n/a	RECOG_RESP	1741736	n/a	LTP145	ltpFR	17	5	0	PLATE	1086	1	n/a	0	n/a	n/a	n/a	n/a	n/a
3484.108	n/a	RECOG_CONF	1742054	n/a	LTP145	ltpFR	17	5	0	PLATE	1086	n/a	5	0	n/a	n/a	n/a	n/a	n/a
3485.516	n/a	RECOG_LURE	1742758	n/a	LTP145	ltpFR	17	5	n/a	CLOTHES	327	0	1	n/a	n/a	n/a	n/a	n/a	n/a
3486.402	n/a	RECOG_RESP	1743201	n/a	LTP145	ltpFR	17	5	n/a	CLOTHES	327	0	n/a	n/a	n/a	n/a	n/a	n/a	n/a
3487.0	n/a	RECOG_CONF	1743500	n/a	LTP145	ltpFR	17	5	n/a	CLOTHES	327	n/a	1	n/a	n/a	n/a	n/a	n/a	n/a
3488.498	n/a	RECOG_LURE	1744249	n/a	LTP145	ltpFR	17	5	n/a	SCRIBBLE	1256	0	2	n/a	n/a	n/a	n/a	n/a	n/a
3489.264	n/a	RECOG_RESP	1744632	n/a	LTP145	ltpFR	17	5	n/a	SCRIBBLE	1256	0	n/a	n/a	n/a	n/a	n/a	n/a	n/a
3489.908	n/a	RECOG_CONF	1744954	n/a	LTP145	ltpFR	17	5	n/a	SCRIBBLE	1256	n/a	2	n/a	n/a	n/a	n/a	n/a	n/a
3491.382	n/a	RECOG_TARGET	1745691	n/a	LTP145	ltpFR	17	5	0	BRANCH	168	1	5	1	n/a	n/a	n/a	n/a	n/a
3492.138	n/a	RECOG_RESP	1746069	n/a	LTP145	ltpFR	17	5	0	BRANCH	168	1	n/a	1	n/a	n/a	n/a	n/a	n/a
3492.738	n/a	RECOG_CONF	1746369	n/a	LTP145	ltpFR	17	5	0	BRANCH	168	n/a	5	1	n/a	n/a	n/a	n/a	n/a
3494.148	n/a	RECOG_LURE	1747074	n/a	LTP145	ltpFR	17	5	n/a	CORD	379	0	2	n/a	n/a	n/a	n/a	n/a	n/a
3494.88	n/a	RECOG_RESP	1747440	n/a	LTP145	ltpFR	17	5	n/a	CORD	379	0	n/a	n/a	n/a	n/a	n/a	n/a	n/a
3495.51	n/a	RECOG_CONF	1747755	n/a	LTP145	ltpFR	17	5	n/a	CORD	379	n/a	2	n/a	n/a	n/a	n/a	n/a	n/a
3496.938	n/a	RECOG_TARGET	1748469	n/a	LTP145	ltpFR	17	5	0	WAGON	1578	1	5	1	n/a	n/a	n/a	n/a	n/a
3497.606	n/a	RECOG_RESP	1748803	n/a	LTP145	ltpFR	17	5	0	WAGON	1578	1	n/a	1	n/a	n/a	n/a	n/a	n/a
3498.112	n/a	RECOG_CONF	1749056	n/a	LTP145	ltpFR	17	5	0	WAGON	1578	n/a	5	1	n/a	n/a	n/a	n/a	n/a
3499.796	n/a	RECOG_LURE	1749898	n/a	LTP145	ltpFR	17	5	n/a	VEHICLE	1553	0	2	n/a	n/a	n/a	n/a	n/a	n/a
3500.53	n/a	RECOG_RESP	1750265	n/a	LTP145	ltpFR	17	5	n/a	VEHICLE	1553	0	n/a	n/a	n/a	n/a	n/a	n/a	n/a
3501.16	n/a	RECOG_CONF	1750580	n/a	LTP145	ltpFR	17	5	n/a	VEHICLE	1553	n/a	2	n/a	n/a	n/a	n/a	n/a	n/a
3502.702	n/a	RECOG_TARGET	1751351	n/a	LTP145	ltpFR	17	5	-1	GROCERY	664	1	5	-1	n/a	n/a	n/a	n/a	n/a
3503.252	n/a	RECOG_RESP	1751626	n/a	LTP145	ltpFR	17	5	-1	GROCERY	664	1	n/a	-1	n/a	n/a	n/a	n/a	n/a
3503.934	n/a	RECOG_CONF	1751967	n/a	LTP145	ltpFR	17	5	-1	GROCERY	664	n/a	5	-1	n/a	n/a	n/a	n/a	n/a
3505.386	n/a	RECOG_TARGET	1752693	n/a	LTP145	ltpFR	17	5	0	MONKEY	911	1	2	1	n/a	n/a	n/a	n/a	n/a
3505.994	n/a	RECOG_RESP	1752997	n/a	LTP145	ltpFR	17	5	0	MONKEY	911	1	n/a	1	n/a	n/a	n/a	n/a	n/a
3506.654	n/a	RECOG_CONF	1753327	n/a	LTP145	ltpFR	17	5	0	MONKEY	911	n/a	2	1	n/a	n/a	n/a	n/a	n/a
3508.226	n/a	RECOG_LURE	1754113	n/a	LTP145	ltpFR	17	5	n/a	HEADBAND	696	0	2	n/a	n/a	n/a	n/a	n/a	n/a
3508.982	n/a	RECOG_RESP	1754491	n/a	LTP145	ltpFR	17	5	n/a	HEADBAND	696	0	n/a	n/a	n/a	n/a	n/a	n/a	n/a
3509.566	n/a	RECOG_CONF	1754783	n/a	LTP145	ltpFR	17	5	n/a	HEADBAND	696	n/a	2	n/a	n/a	n/a	n/a	n/a	n/a
3511.184	n/a	RECOG_TARGET	1755592	n/a	LTP145	ltpFR	17	5	1	SUSPECT	1415	1	2	1	n/a	n/a	n/a	n/a	n/a
3511.884	n/a	RECOG_RESP	1755942	n/a	LTP145	ltpFR	17	5	1	SUSPECT	1415	1	n/a	1	n/a	n/a	n/a	n/a	n/a
3512.538	n/a	RECOG_CONF	1756269	n/a	LTP145	ltpFR	17	5	1	SUSPECT	1415	n/a	2	1	n/a	n/a	n/a	n/a	n/a
3514.092	n/a	RECOG_LURE	1757046	n/a	LTP145	ltpFR	17	5	n/a	CHESS	294	0	1	n/a	n/a	n/a	n/a	n/a	n/a
3516.872	n/a	RECOG_RESP	1758436	n/a	LTP145	ltpFR	17	5	n/a	CHESS	294	0	n/a	n/a	n/a	n/a	n/a	n/a	n/a
3517.942	n/a	RECOG_CONF	1758971	n/a	LTP145	ltpFR	17	5	n/a	CHESS	294	n/a	1	n/a	n/a	n/a	n/a	n/a	n/a
3519.514	n/a	RECOG_LURE	1759757	n/a	LTP145	ltpFR	17	5	n/a	EMPIRE	530	0	2	n/a	n/a	n/a	n/a	n/a	n/a
3520.302	n/a	RECOG_RESP	1760151	n/a	LTP145	ltpFR	17	5	n/a	EMPIRE	530	0	n/a	n/a	n/a	n/a	n/a	n/a	n/a
3521.008	n/a	RECOG_CONF	1760504	n/a	LTP145	ltpFR	17	5	n/a	EMPIRE	530	n/a	2	n/a	n/a	n/a	n/a	n/a	n/a
3522.456	n/a	RECOG_LURE	1761228	n/a	LTP145	ltpFR	17	5	n/a	DRYER	503	0	2	n/a	n/a	n/a	n/a	n/a	n/a
3523.008	n/a	RECOG_RESP	1761504	n/a	LTP145	ltpFR	17	5	n/a	DRYER	503	0	n/a	n/a	n/a	n/a	n/a	n/a	n/a
