onset	duration	trial_type	sample	stim_file	subject	experiment	session	trial	item_name	item_num	list	answer	test_x	test_y	test_z
218.90185546875	n/a	SESS_START	448311	n/a	LTP355	ltpFR2	12	n/a	n/a	n/a	n/a	n/a	0	0	0
235.09716796875	n/a	START	481479	n/a	LTP355	ltpFR2	12	n/a	n/a	n/a	-1	n/a	n/a	n/a	n/a
235.1279296875	n/a	PROB	481542	n/a	LTP355	ltpFR2	12	n/a	n/a	n/a	-1	17	7	4	6
237.4931640625	n/a	PROB	486386	n/a	LTP355	ltpFR2	12	n/a	n/a	n/a	-1	13	4	4	5
239.0419921875	n/a	PROB	489558	n/a	LTP355	ltpFR2	12	n/a	n/a	n/a	-1	8	2	5	1
240.158203125	n/a	PROB	491844	n/a	LTP355	ltpFR2	12	n/a	n/a	n/a	-1	6	1	1	4
241.0751953125	n/a	PROB	493722	n/a	LTP355	ltpFR2	12	n/a	n/a	n/a	-1	14	2	8	4
242.27392578125	n/a	PROB	496177	n/a	LTP355	ltpFR2	12	n/a	n/a	n/a	-1	21	5	7	9
244.68994140625	n/a	PROB	501125	n/a	LTP355	ltpFR2	12	n/a	n/a	n/a	-1	18	9	6	3
246.10888671875	n/a	STOP	504031	n/a	LTP355	ltpFR2	12	n/a	n/a	n/a	-1	n/a	n/a	n/a	n/a
276.607421875	n/a	WORD	566492	wordpools/wasnorm_wordpool_576.txt	LTP355	ltpFR2	12	1	PIZZA	1079	n/a	n/a	0	0	0
279.2392578125	n/a	WORD	571882	wordpools/wasnorm_wordpool_576.txt	LTP355	ltpFR2	12	1	CUSTARD	429	n/a	n/a	0	0	0
281.9384765625	n/a	WORD	577410	wordpools/wasnorm_wordpool_576.txt	LTP355	ltpFR2	12	1	NOTEBOOK	959	n/a	n/a	0	0	0
284.453125	n/a	WORD	582560	wordpools/wasnorm_wordpool_576.txt	LTP355	ltpFR2	12	1	UMPIRE	1535	n/a	n/a	0	0	0
287.03515625	n/a	WORD	587848	wordpools/wasnorm_wordpool_576.txt	LTP355	ltpFR2	12	1	FUNGUS	614	n/a	n/a	0	0	0
289.71826171875	n/a	WORD	593343	wordpools/wasnorm_wordpool_576.txt	LTP355	ltpFR2	12	1	TABLET	1427	n/a	n/a	0	0	0
292.16650390625	n/a	WORD	598357	wordpools/wasnorm_wordpool_576.txt	LTP355	ltpFR2	12	1	OMELET	976	n/a	n/a	0	0	0
294.76611328125	n/a	WORD	603681	wordpools/wasnorm_wordpool_576.txt	LTP355	ltpFR2	12	1	SHRUB	1299	n/a	n/a	0	0	0
297.197265625	n/a	WORD	608660	wordpools/wasnorm_wordpool_576.txt	LTP355	ltpFR2	12	1	PLATE	1086	n/a	n/a	0	0	0
299.9453125	n/a	WORD	614288	wordpools/wasnorm_wordpool_576.txt	LTP355	ltpFR2	12	1	TART	1436	n/a	n/a	0	0	0
302.54443359375	n/a	WORD	619611	wordpools/wasnorm_wordpool_576.txt	LTP355	ltpFR2	12	1	PATROL	1027	n/a	n/a	0	0	0
305.359375	n/a	WORD	625376	wordpools/wasnorm_wordpool_576.txt	LTP355	ltpFR2	12	1	OUTLAW	989	n/a	n/a	0	0	0
307.94140625	n/a	WORD	630664	wordpools/wasnorm_wordpool_576.txt	LTP355	ltpFR2	12	1	NAPKIN	937	n/a	n/a	0	0	0
310.67333984375	n/a	WORD	636259	wordpools/wasnorm_wordpool_576.txt	LTP355	ltpFR2	12	1	FRANCE	601	n/a	n/a	0	0	0
313.42236328125	n/a	WORD	641889	wordpools/wasnorm_wordpool_576.txt	LTP355	ltpFR2	12	1	ANKLE	24	n/a	n/a	0	0	0
315.85546875	n/a	WORD	646872	wordpools/wasnorm_wordpool_576.txt	LTP355	ltpFR2	12	1	CROSS	413	n/a	n/a	0	0	0
318.33642578125	n/a	WORD	651953	wordpools/wasnorm_wordpool_576.txt	LTP355	ltpFR2	12	1	STATUE	1374	n/a	n/a	0	0	0
321.00244140625	n/a	WORD	657413	wordpools/wasnorm_wordpool_576.txt	LTP355	ltpFR2	12	1	TUTU	1524	n/a	n/a	0	0	0
323.66748046875	n/a	WORD	662871	wordpools/wasnorm_wordpool_576.txt	LTP355	ltpFR2	12	1	DANCER	437	n/a	n/a	0	0	0
326.46533203125	n/a	WORD	668601	wordpools/wasnorm_wordpool_576.txt	LTP355	ltpFR2	12	1	SOFTBALL	1343	n/a	n/a	0	0	0
329.08154296875	n/a	WORD	673959	wordpools/wasnorm_wordpool_576.txt	LTP355	ltpFR2	12	1	PORK	1108	n/a	n/a	0	0	0
331.814453125	n/a	WORD	679556	wordpools/wasnorm_wordpool_576.txt	LTP355	ltpFR2	12	1	SAUSAGE	1238	n/a	n/a	0	0	0
334.52880859375	n/a	WORD	685115	wordpools/wasnorm_wordpool_576.txt	LTP355	ltpFR2	12	1	CLOCK	325	n/a	n/a	0	0	0
337.310546875	n/a	WORD	690812	wordpools/wasnorm_wordpool_576.txt	LTP355	ltpFR2	12	1	HEART	697	n/a	n/a	0	0	0
338.9267578125	n/a	START	694122	n/a	LTP355	ltpFR2	12	n/a	n/a	n/a	1	n/a	n/a	n/a	n/a
339.91357421875	n/a	DISTRACTOR	696143	n/a	LTP355	ltpFR2	12	1	n/a	n/a	n/a	n/a	0	0	0
339.9267578125	n/a	PROB	696170	n/a	LTP355	ltpFR2	12	n/a	n/a	n/a	1	19	7	5	7
341.99169921875	n/a	PROB	700399	n/a	LTP355	ltpFR2	12	n/a	n/a	n/a	1	9	8	1	1
343.3076171875	n/a	PROB	703094	n/a	LTP355	ltpFR2	12	n/a	n/a	n/a	1	14	5	2	7
346.6728515625	n/a	PROB	709986	n/a	LTP355	ltpFR2	12	n/a	n/a	n/a	1	23	8	8	7
348.35546875	n/a	PROB	713432	n/a	LTP355	ltpFR2	12	n/a	n/a	n/a	1	12	8	3	1
349.7724609375	n/a	PROB	716334	n/a	LTP355	ltpFR2	12	n/a	n/a	n/a	1	13	8	3	2
351.25390625	n/a	PROB	719368	n/a	LTP355	ltpFR2	12	n/a	n/a	n/a	1	12	4	5	3
352.78759765625	n/a	PROB	722509	n/a	LTP355	ltpFR2	12	n/a	n/a	n/a	1	15	1	8	6
354.01953125	n/a	PROB	725032	n/a	LTP355	ltpFR2	12	n/a	n/a	n/a	1	7	2	1	4
355.20166015625	n/a	PROB	727453	n/a	LTP355	ltpFR2	12	n/a	n/a	n/a	1	12	7	2	3
356.4345703125	n/a	PROB	729978	n/a	LTP355	ltpFR2	12	n/a	n/a	n/a	1	16	6	1	9
357.66748046875	n/a	PROB	732503	n/a	LTP355	ltpFR2	12	n/a	n/a	n/a	1	14	1	6	7
359.14990234375	n/a	PROB	735539	n/a	LTP355	ltpFR2	12	n/a	n/a	n/a	1	9	1	6	2
362.9267578125	n/a	STOP	743274	n/a	LTP355	ltpFR2	12	n/a	n/a	n/a	1	n/a	n/a	n/a	n/a
364.74853515625	n/a	REC_START	747005	n/a	LTP355	ltpFR2	12	1	n/a	n/a	n/a	n/a	0	0	0
366.99560546875	n/a	REC_WORD	751607	wordpools/wasnorm_wordpool_576.txt	LTP355	ltpFR2	12	1	UMPIRE	1535	n/a	n/a	0	0	0
368.39990234375	n/a	REC_WORD_VV	754483	wordpools/wasnorm_wordpool_576.txt	LTP355	ltpFR2	12	1	<>	-1	n/a	n/a	0	0	0
369.02880859375	n/a	REC_WORD	755771	wordpools/wasnorm_wordpool_576.txt	LTP355	ltpFR2	12	1	FRANCE	601	n/a	n/a	0	0	0
369.85595703125	n/a	REC_WORD	757465	wordpools/wasnorm_wordpool_576.txt	LTP355	ltpFR2	12	1	ANKLE	24	n/a	n/a	0	0	0
370.40380859375	n/a	REC_WORD	758587	wordpools/wasnorm_wordpool_576.txt	LTP355	ltpFR2	12	1	STATUE	1374	n/a	n/a	0	0	0
372.5087890625	n/a	REC_WORD	762898	wordpools/wasnorm_wordpool_576.txt	LTP355	ltpFR2	12	1	CROSS	413	n/a	n/a	0	0	0
374.56884765625	n/a	REC_WORD	767117	wordpools/wasnorm_wordpool_576.txt	LTP355	ltpFR2	12	1	PIZZA	1079	n/a	n/a	0	0	0
376.763671875	n/a	REC_WORD	771612	wordpools/wasnorm_wordpool_576.txt	LTP355	ltpFR2	12	1	CUSTARD	429	n/a	n/a	0	0	0
382.53564453125	n/a	REC_WORD	783433	wordpools/wasnorm_wordpool_576.txt	LTP355	ltpFR2	12	1	NOTEBOOK	959	n/a	n/a	0	0	0
383.125	n/a	REC_WORD	784640	wordpools/wasnorm_wordpool_576.txt	LTP355	ltpFR2	12	1	TABLET	1427	n/a	n/a	0	0	0
383.98291015625	n/a	REC_WORD	786397	wordpools/wasnorm_wordpool_576.txt	LTP355	ltpFR2	12	1	OMELET	976	n/a	n/a	0	0	0
384.845703125	n/a	REC_WORD	788164	wordpools/wasnorm_wordpool_576.txt	LTP355	ltpFR2	12	1	PLATE	1086	n/a	n/a	0	0	0
387.138671875	n/a	REC_WORD	792860	wordpools/wasnorm_wordpool_576.txt	LTP355	ltpFR2	12	1	SHRUB	1299	n/a	n/a	0	0	0
388.6796875	n/a	REC_WORD	796016	wordpools/wasnorm_wordpool_576.txt	LTP355	ltpFR2	12	1	FUNGUS	614	n/a	n/a	0	0	0
403.5498046875	n/a	REC_WORD	826470	wordpools/wasnorm_wordpool_576.txt	LTP355	ltpFR2	12	1	TUTU	1524	n/a	n/a	0	0	0
404.19580078125	n/a	REC_WORD	827793	wordpools/wasnorm_wordpool_576.txt	LTP355	ltpFR2	12	1	DANCER	437	n/a	n/a	0	0	0
404.880859375	n/a	REC_WORD	829196	wordpools/wasnorm_wordpool_576.txt	LTP355	ltpFR2	12	1	SOFTBALL	1343	n/a	n/a	0	0	0
406.44384765625	n/a	REC_WORD	832397	wordpools/wasnorm_wordpool_576.txt	LTP355	ltpFR2	12	1	SAUSAGE	1238	n/a	n/a	0	0	0
407.751953125	n/a	REC_WORD	835076	wordpools/wasnorm_wordpool_576.txt	LTP355	ltpFR2	12	1	PORK	1108	n/a	n/a	0	0	0
455.1865234375	n/a	DISTRACTOR	932222	n/a	LTP355	ltpFR2	12	2	n/a	n/a	n/a	n/a	0	0	0
455.1865234375	n/a	START	932222	n/a	LTP355	ltpFR2	12	n/a	n/a	n/a	2	n/a	n/a	n/a	n/a
455.203125	n/a	PROB	932256	n/a	LTP355	ltpFR2	12	n/a	n/a	n/a	2	20	4	9	7
457.568359375	n/a	PROB	937100	n/a	LTP355	ltpFR2	12	n/a	n/a	n/a	2	17	6	2	9
459.017578125	n/a	PROB	940068	n/a	LTP355	ltpFR2	12	n/a	n/a	n/a	2	14	3	5	6
460.7001953125	n/a	PROB	943514	n/a	LTP355	ltpFR2	12	n/a	n/a	n/a	2	8	1	4	3
462.06640625	n/a	PROB	946312	n/a	LTP355	ltpFR2	12	n/a	n/a	n/a	2	11	3	4	4
463.482421875	n/a	PROB	949212	n/a	LTP355	ltpFR2	12	n/a	n/a	n/a	2	22	6	7	9
466.33056640625	n/a	PROB	955045	n/a	LTP355	ltpFR2	12	n/a	n/a	n/a	2	10	1	4	5
467.48046875	n/a	PROB	957400	n/a	LTP355	ltpFR2	12	n/a	n/a	n/a	2	20	9	3	8
469.04638671875	n/a	PROB	960607	n/a	LTP355	ltpFR2	12	n/a	n/a	n/a	2	13	6	4	3
470.1796875	n/a	PROB	962928	n/a	LTP355	ltpFR2	12	n/a	n/a	n/a	2	5	1	2	2
471.29541015625	n/a	PROB	965213	n/a	LTP355	ltpFR2	12	n/a	n/a	n/a	2	21	5	7	9
472.74560546875	n/a	PROB	968183	n/a	LTP355	ltpFR2	12	n/a	n/a	n/a	2	18	6	5	7
474.193359375	n/a	PROB	971148	n/a	LTP355	ltpFR2	12	n/a	n/a	n/a	2	18	6	5	7
475.193359375	n/a	PROB	973196	n/a	LTP355	ltpFR2	12	n/a	n/a	n/a	2	13	2	9	2
476.4423828125	n/a	PROB	975754	n/a	LTP355	ltpFR2	12	n/a	n/a	n/a	2	16	1	8	7
477.86328125	n/a	STOP	978664	n/a	LTP355	ltpFR2	12	n/a	n/a	n/a	2	n/a	n/a	n/a	n/a
480.20751953125	n/a	WORD	983465	wordpools/wasnorm_wordpool_576.txt	LTP355	ltpFR2	12	2	MAPLE	866	n/a	n/a	0	0	0
482.82373046875	n/a	WORD	988823	wordpools/wasnorm_wordpool_576.txt	LTP355	ltpFR2	12	2	FOOTBALL	591	n/a	n/a	0	0	0
485.388671875	n/a	WORD	994076	wordpools/wasnorm_wordpool_576.txt	LTP355	ltpFR2	12	2	BODY	145	n/a	n/a	0	0	0
488.1533203125	n/a	WORD	999738	wordpools/wasnorm_wordpool_576.txt	LTP355	ltpFR2	12	2	LIVER	833	n/a	n/a	0	0	0
490.96875	n/a	WORD	1005504	wordpools/wasnorm_wordpool_576.txt	LTP355	ltpFR2	12	2	MARKET	871	n/a	n/a	0	0	0
493.66748046875	n/a	WORD	1011031	wordpools/wasnorm_wordpool_576.txt	LTP355	ltpFR2	12	2	SURVEY	1414	n/a	n/a	0	0	0
496.28271484375	n/a	WORD	1016387	wordpools/wasnorm_wordpool_576.txt	LTP355	ltpFR2	12	2	EGYPT	519	n/a	n/a	0	0	0
498.83251953125	n/a	WORD	1021609	wordpools/wasnorm_wordpool_576.txt	LTP355	ltpFR2	12	2	MOP	916	n/a	n/a	0	0	0
501.4306640625	n/a	WORD	1026930	wordpools/wasnorm_wordpool_576.txt	LTP355	ltpFR2	12	2	SKIRT	1319	n/a	n/a	0	0	0
503.962890625	n/a	WORD	1032116	wordpools/wasnorm_wordpool_576.txt	LTP355	ltpFR2	12	2	SHORTS	1293	n/a	n/a	0	0	0
506.77880859375	n/a	WORD	1037883	wordpools/wasnorm_wordpool_576.txt	LTP355	ltpFR2	12	2	SEAGULL	1261	n/a	n/a	0	0	0
509.5927734375	n/a	WORD	1043646	wordpools/wasnorm_wordpool_576.txt	LTP355	ltpFR2	12	2	CITRUS	313	n/a	n/a	0	0	0
512.2587890625	n/a	WORD	1049106	wordpools/wasnorm_wordpool_576.txt	LTP355	ltpFR2	12	2	REBEL	1172	n/a	n/a	0	0	0
514.724609375	n/a	WORD	1054156	wordpools/wasnorm_wordpool_576.txt	LTP355	ltpFR2	12	2	FLAG	573	n/a	n/a	0	0	0
517.388671875	n/a	WORD	1059612	wordpools/wasnorm_wordpool_576.txt	LTP355	ltpFR2	12	2	GYMNAST	675	n/a	n/a	0	0	0
520.0048828125	n/a	WORD	1064970	wordpools/wasnorm_wordpool_576.txt	LTP355	ltpFR2	12	2	GAZELLE	628	n/a	n/a	0	0	0
522.70263671875	n/a	WORD	1070495	wordpools/wasnorm_wordpool_576.txt	LTP355	ltpFR2	12	2	WINDOW	1611	n/a	n/a	0	0	0
525.23583984375	n/a	WORD	1075683	wordpools/wasnorm_wordpool_576.txt	LTP355	ltpFR2	12	2	WIFE	1609	n/a	n/a	0	0	0
527.8837890625	n/a	WORD	1081106	wordpools/wasnorm_wordpool_576.txt	LTP355	ltpFR2	12	2	LABEL	790	n/a	n/a	0	0	0
530.4326171875	n/a	WORD	1086326	wordpools/wasnorm_wordpool_576.txt	LTP355	ltpFR2	12	2	SCARECROW	1245	n/a	n/a	0	0	0
533.1318359375	n/a	WORD	1091854	wordpools/wasnorm_wordpool_576.txt	LTP355	ltpFR2	12	2	PEACH	1031	n/a	n/a	0	0	0
535.56396484375	n/a	WORD	1096835	wordpools/wasnorm_wordpool_576.txt	LTP355	ltpFR2	12	2	GLASS	639	n/a	n/a	0	0	0
538.14599609375	n/a	WORD	1102123	wordpools/wasnorm_wordpool_576.txt	LTP355	ltpFR2	12	2	BEAKER	104	n/a	n/a	0	0	0
540.8447265625	n/a	WORD	1107650	wordpools/wasnorm_wordpool_576.txt	LTP355	ltpFR2	12	2	MARS	873	n/a	n/a	0	0	0
542.4599609375	n/a	START	1110958	n/a	LTP355	ltpFR2	12	n/a	n/a	n/a	3	n/a	n/a	n/a	n/a
543.2998046875	n/a	DISTRACTOR	1112678	n/a	LTP355	ltpFR2	12	2	n/a	n/a	n/a	n/a	0	0	0
543.31005859375	n/a	PROB	1112699	n/a	LTP355	ltpFR2	12	n/a	n/a	n/a	3	16	3	6	7
545.52490234375	n/a	PROB	1117235	n/a	LTP355	ltpFR2	12	n/a	n/a	n/a	3	17	7	3	7
546.7919921875	n/a	PROB	1119830	n/a	LTP355	ltpFR2	12	n/a	n/a	n/a	3	25	9	9	7
548.35693359375	n/a	PROB	1123035	n/a	LTP355	ltpFR2	12	n/a	n/a	n/a	3	18	6	6	2
549.80810546875	n/a	PROB	1126007	n/a	LTP355	ltpFR2	12	n/a	n/a	n/a	3	10	6	2	2
552.82275390625	n/a	PROB	1132181	n/a	LTP355	ltpFR2	12	n/a	n/a	n/a	3	16	5	7	4
554.2041015625	n/a	PROB	1135010	n/a	LTP355	ltpFR2	12	n/a	n/a	n/a	3	5	2	2	1
555.10400390625	n/a	PROB	1136853	n/a	LTP355	ltpFR2	12	n/a	n/a	n/a	3	5	1	3	1
556.13720703125	n/a	PROB	1138969	n/a	LTP355	ltpFR2	12	n/a	n/a	n/a	3	3	1	1	1
557.0859375	n/a	PROB	1140912	n/a	LTP355	ltpFR2	12	n/a	n/a	n/a	3	23	6	8	9
559.53515625	n/a	PROB	1145928	n/a	LTP355	ltpFR2	12	n/a	n/a	n/a	3	13	7	5	1
561.3681640625	n/a	PROB	1149682	n/a	LTP355	ltpFR2	12	n/a	n/a	n/a	3	11	3	6	2
563.21728515625	n/a	PROB	1153469	n/a	LTP355	ltpFR2	12	n/a	n/a	n/a	3	14	2	9	3
566.447265625	n/a	STOP	1160084	n/a	LTP355	ltpFR2	12	n/a	n/a	n/a	3	n/a	n/a	n/a	n/a
568.23095703125	n/a	REC_START	1163737	n/a	LTP355	ltpFR2	12	2	n/a	n/a	n/a	n/a	0	0	0
569.88330078125	n/a	REC_WORD	1167121	wordpools/wasnorm_wordpool_576.txt	LTP355	ltpFR2	12	2	MARKET	871	n/a	n/a	0	0	0
576.89990234375	n/a	REC_WORD	1181491	wordpools/wasnorm_wordpool_576.txt	LTP355	ltpFR2	12	2	FLAG	573	n/a	n/a	0	0	0
577.80224609375	n/a	REC_WORD	1183339	wordpools/wasnorm_wordpool_576.txt	LTP355	ltpFR2	12	2	MAPLE	866	n/a	n/a	0	0	0
581.1171875	n/a	REC_WORD	1190128	wordpools/wasnorm_wordpool_576.txt	LTP355	ltpFR2	12	2	REBEL	1172	n/a	n/a	0	0	0
584.51806640625	n/a	REC_WORD	1197093	wordpools/wasnorm_wordpool_576.txt	LTP355	ltpFR2	12	2	FOOTBALL	591	n/a	n/a	0	0	0
588.83544921875	n/a	REC_WORD	1205935	wordpools/wasnorm_wordpool_576.txt	LTP355	ltpFR2	12	2	MARKET	871	n/a	n/a	0	0	0
589.5400390625	n/a	REC_WORD	1207378	wordpools/wasnorm_wordpool_576.txt	LTP355	ltpFR2	12	2	SURVEY	1414	n/a	n/a	0	0	0
590.63134765625	n/a	REC_WORD	1209613	wordpools/wasnorm_wordpool_576.txt	LTP355	ltpFR2	12	2	MOP	916	n/a	n/a	0	0	0
591.3251953125	n/a	REC_WORD	1211034	wordpools/wasnorm_wordpool_576.txt	LTP355	ltpFR2	12	2	EGYPT	519	n/a	n/a	0	0	0
592.71435546875	n/a	REC_WORD	1213879	wordpools/wasnorm_wordpool_576.txt	LTP355	ltpFR2	12	2	SHORTS	1293	n/a	n/a	0	0	0
593.39404296875	n/a	REC_WORD	1215271	wordpools/wasnorm_wordpool_576.txt	LTP355	ltpFR2	12	2	SKIRT	1319	n/a	n/a	0	0	0
598.2431640625	n/a	REC_WORD	1225202	wordpools/wasnorm_wordpool_576.txt	LTP355	ltpFR2	12	2	CITRUS	313	n/a	n/a	0	0	0
599.25732421875	n/a	REC_WORD	1227279	wordpools/wasnorm_wordpool_576.txt	LTP355	ltpFR2	12	2	PEACH	1031	n/a	n/a	0	0	0
601.037109375	n/a	REC_WORD	1230924	wordpools/wasnorm_wordpool_576.txt	LTP355	ltpFR2	12	2	SCARECROW	1245	n/a	n/a	0	0	0
609.58251953125	n/a	REC_WORD	1248425	wordpools/wasnorm_wordpool_576.txt	LTP355	ltpFR2	12	2	WIFE	1609	n/a	n/a	0	0	0
610.47119140625	n/a	REC_WORD	1250245	wordpools/wasnorm_wordpool_576.txt	LTP355	ltpFR2	12	2	LABEL	790	n/a	n/a	0	0	0
617.75048828125	n/a	REC_WORD	1265153	wordpools/wasnorm_wordpool_576.txt	LTP355	ltpFR2	12	2	GAZELLE	628	n/a	n/a	0	0	0
618.4755859375	n/a	REC_WORD	1266638	wordpools/wasnorm_wordpool_576.txt	LTP355	ltpFR2	12	2	GYMNAST	675	n/a	n/a	0	0	0
658.70361328125	n/a	WORD	1349025	wordpools/wasnorm_wordpool_576.txt	LTP355	ltpFR2	12	3	BROTHER	179	n/a	n/a	0	0	0
661.25146484375	n/a	WORD	1354243	wordpools/wasnorm_wordpool_576.txt	LTP355	ltpFR2	12	3	SHOVEL	1295	n/a	n/a	0	0	0
663.90087890625	n/a	WORD	1359669	wordpools/wasnorm_wordpool_576.txt	LTP355	ltpFR2	12	3	SLIME	1327	n/a	n/a	0	0	0
666.515625	n/a	WORD	1365024	wordpools/wasnorm_wordpool_576.txt	LTP355	ltpFR2	12	3	DORM	488	n/a	n/a	0	0	0
669.21484375	n/a	WORD	1370552	wordpools/wasnorm_wordpool_576.txt	LTP355	ltpFR2	12	3	CABIN	211	n/a	n/a	0	0	0
671.7978515625	n/a	WORD	1375842	wordpools/wasnorm_wordpool_576.txt	LTP355	ltpFR2	12	3	SCISSORS	1250	n/a	n/a	0	0	0
674.27880859375	n/a	WORD	1380923	wordpools/wasnorm_wordpool_576.txt	LTP355	ltpFR2	12	3	IDOL	733	n/a	n/a	0	0	0
677.0439453125	n/a	WORD	1386586	wordpools/wasnorm_wordpool_576.txt	LTP355	ltpFR2	12	3	THREAD	1460	n/a	n/a	0	0	0
679.5927734375	n/a	WORD	1391806	wordpools/wasnorm_wordpool_576.txt	LTP355	ltpFR2	12	3	BINDER	127	n/a	n/a	0	0	0
682.375	n/a	WORD	1397504	wordpools/wasnorm_wordpool_576.txt	LTP355	ltpFR2	12	3	EAGLE	512	n/a	n/a	0	0	0
685.1396484375	n/a	WORD	1403166	wordpools/wasnorm_wordpool_576.txt	LTP355	ltpFR2	12	3	CHAPEL	280	n/a	n/a	0	0	0
687.68896484375	n/a	WORD	1408387	wordpools/wasnorm_wordpool_576.txt	LTP355	ltpFR2	12	3	GRIZZLY	662	n/a	n/a	0	0	0
690.15478515625	n/a	WORD	1413437	wordpools/wasnorm_wordpool_576.txt	LTP355	ltpFR2	12	3	JUGGLER	763	n/a	n/a	0	0	0
692.7880859375	n/a	WORD	1418830	wordpools/wasnorm_wordpool_576.txt	LTP355	ltpFR2	12	3	BOYFRIEND	162	n/a	n/a	0	0	0
695.501953125	n/a	WORD	1424388	wordpools/wasnorm_wordpool_576.txt	LTP355	ltpFR2	12	3	OUTFIT	988	n/a	n/a	0	0	0
698.30078125	n/a	WORD	1430120	wordpools/wasnorm_wordpool_576.txt	LTP355	ltpFR2	12	3	DRESSER	496	n/a	n/a	0	0	0
700.93310546875	n/a	WORD	1435511	wordpools/wasnorm_wordpool_576.txt	LTP355	ltpFR2	12	3	SALMON	1227	n/a	n/a	0	0	0
703.44775390625	n/a	WORD	1440661	wordpools/wasnorm_wordpool_576.txt	LTP355	ltpFR2	12	3	ATLAS	53	n/a	n/a	0	0	0
706.02978515625	n/a	WORD	1445949	wordpools/wasnorm_wordpool_576.txt	LTP355	ltpFR2	12	3	AUTHOR	61	n/a	n/a	0	0	0
708.712890625	n/a	WORD	1451444	wordpools/wasnorm_wordpool_576.txt	LTP355	ltpFR2	12	3	HERO	706	n/a	n/a	0	0	0
711.47705078125	n/a	WORD	1457105	wordpools/wasnorm_wordpool_576.txt	LTP355	ltpFR2	12	3	BOX	159	n/a	n/a	0	0	0
714.19287109375	n/a	WORD	1462667	wordpools/wasnorm_wordpool_576.txt	LTP355	ltpFR2	12	3	TROUT	1511	n/a	n/a	0	0	0
716.826171875	n/a	WORD	1468060	wordpools/wasnorm_wordpool_576.txt	LTP355	ltpFR2	12	3	PARTNER	1017	n/a	n/a	0	0	0
719.2568359375	n/a	WORD	1473038	wordpools/wasnorm_wordpool_576.txt	LTP355	ltpFR2	12	3	VENUS	1557	n/a	n/a	0	0	0
720.8740234375	n/a	START	1476350	n/a	LTP355	ltpFR2	12	n/a	n/a	n/a	4	n/a	n/a	n/a	n/a
721.73388671875	n/a	DISTRACTOR	1478111	n/a	LTP355	ltpFR2	12	3	n/a	n/a	n/a	n/a	0	0	0
721.740234375	n/a	PROB	1478124	n/a	LTP355	ltpFR2	12	n/a	n/a	n/a	4	18	5	8	5
723.6708984375	n/a	PROB	1482078	n/a	LTP355	ltpFR2	12	n/a	n/a	n/a	4	9	1	4	4
724.9873046875	n/a	PROB	1484774	n/a	LTP355	ltpFR2	12	n/a	n/a	n/a	4	17	5	9	3
727.0029296875	n/a	PROB	1488902	n/a	LTP355	ltpFR2	12	n/a	n/a	n/a	4	17	3	7	7
728.501953125	n/a	PROB	1491972	n/a	LTP355	ltpFR2	12	n/a	n/a	n/a	4	7	1	2	4
730.16796875	n/a	PROB	1495384	n/a	LTP355	ltpFR2	12	n/a	n/a	n/a	4	12	3	8	1
731.51708984375	n/a	PROB	1498147	n/a	LTP355	ltpFR2	12	n/a	n/a	n/a	4	14	8	2	4
732.7841796875	n/a	PROB	1500742	n/a	LTP355	ltpFR2	12	n/a	n/a	n/a	4	10	6	3	1
734.09912109375	n/a	PROB	1503435	n/a	LTP355	ltpFR2	12	n/a	n/a	n/a	4	9	2	1	6
735.51513671875	n/a	PROB	1506335	n/a	LTP355	ltpFR2	12	n/a	n/a	n/a	4	14	5	8	1
737.04833984375	n/a	PROB	1509475	n/a	LTP355	ltpFR2	12	n/a	n/a	n/a	4	19	8	6	5
738.51416015625	n/a	PROB	1512477	n/a	LTP355	ltpFR2	12	n/a	n/a	n/a	4	23	6	8	9
740.56298828125	n/a	PROB	1516673	n/a	LTP355	ltpFR2	12	n/a	n/a	n/a	4	8	1	5	2
742.17919921875	n/a	PROB	1519983	n/a	LTP355	ltpFR2	12	n/a	n/a	n/a	4	10	3	2	5
743.72119140625	n/a	STOP	1523141	n/a	LTP355	ltpFR2	12	n/a	n/a	n/a	4	n/a	n/a	n/a	n/a
746.62744140625	n/a	REC_START	1529093	n/a	LTP355	ltpFR2	12	3	n/a	n/a	n/a	n/a	0	0	0
749.30615234375	n/a	REC_WORD	1534579	wordpools/wasnorm_wordpool_576.txt	LTP355	ltpFR2	12	3	BROTHER	179	n/a	n/a	0	0	0
750.064453125	n/a	REC_WORD	1536132	wordpools/wasnorm_wordpool_576.txt	LTP355	ltpFR2	12	3	BOYFRIEND	162	n/a	n/a	0	0	0
752.0771484375	n/a	REC_WORD	1540254	wordpools/wasnorm_wordpool_576.txt	LTP355	ltpFR2	12	3	PARTNER	1017	n/a	n/a	0	0	0
755.00048828125	n/a	REC_WORD	1546241	wordpools/wasnorm_wordpool_576.txt	LTP355	ltpFR2	12	3	SLIME	1327	n/a	n/a	0	0	0
755.703125	n/a	REC_WORD	1547680	wordpools/wasnorm_wordpool_576.txt	LTP355	ltpFR2	12	3	SHOVEL	1295	n/a	n/a	0	0	0
756.6875	n/a	REC_WORD	1549696	wordpools/wasnorm_wordpool_576.txt	LTP355	ltpFR2	12	3	DORM	488	n/a	n/a	0	0	0
757.71728515625	n/a	REC_WORD	1551805	wordpools/wasnorm_wordpool_576.txt	LTP355	ltpFR2	12	3	CABIN	211	n/a	n/a	0	0	0
758.947265625	n/a	REC_WORD	1554324	wordpools/wasnorm_wordpool_576.txt	LTP355	ltpFR2	12	3	SCISSORS	1250	n/a	n/a	0	0	0
759.79052734375	n/a	REC_WORD	1556051	wordpools/wasnorm_wordpool_576.txt	LTP355	ltpFR2	12	3	IDOL	733	n/a	n/a	0	0	0
760.435546875	n/a	REC_WORD	1557372	wordpools/wasnorm_wordpool_576.txt	LTP355	ltpFR2	12	3	THREAD	1460	n/a	n/a	0	0	0
765.025390625	n/a	REC_WORD	1566772	wordpools/wasnorm_wordpool_576.txt	LTP355	ltpFR2	12	3	SALMON	1227	n/a	n/a	0	0	0
765.84619140625	n/a	REC_WORD	1568453	wordpools/wasnorm_wordpool_576.txt	LTP355	ltpFR2	12	3	ATLAS	53	n/a	n/a	0	0	0
768.30517578125	n/a	REC_WORD	1573489	wordpools/wasnorm_wordpool_576.txt	LTP355	ltpFR2	12	3	TROUT	1511	n/a	n/a	0	0	0
776.58837890625	n/a	REC_WORD	1590453	wordpools/wasnorm_wordpool_576.txt	LTP355	ltpFR2	12	3	VENUS	1557	n/a	n/a	0	0	0
782.12451171875	n/a	REC_WORD	1601791	wordpools/wasnorm_wordpool_576.txt	LTP355	ltpFR2	12	3	OUTFIT	988	n/a	n/a	0	0	0
782.7802734375	n/a	REC_WORD	1603134	wordpools/wasnorm_wordpool_576.txt	LTP355	ltpFR2	12	3	DRESSER	496	n/a	n/a	0	0	0
837.0830078125	n/a	WORD	1714346	wordpools/wasnorm_wordpool_576.txt	LTP355	ltpFR2	12	4	HIKER	708	n/a	n/a	0	0	0
839.56494140625	n/a	WORD	1719429	wordpools/wasnorm_wordpool_576.txt	LTP355	ltpFR2	12	4	WRENCH	1625	n/a	n/a	0	0	0
842.36279296875	n/a	WORD	1725159	wordpools/wasnorm_wordpool_576.txt	LTP355	ltpFR2	12	4	KETCHUP	771	n/a	n/a	0	0	0
844.89501953125	n/a	WORD	1730345	wordpools/wasnorm_wordpool_576.txt	LTP355	ltpFR2	12	4	DOUGHNUT	490	n/a	n/a	0	0	0
847.57666015625	n/a	WORD	1735837	wordpools/wasnorm_wordpool_576.txt	LTP355	ltpFR2	12	4	FINGER	567	n/a	n/a	0	0	0
850.009765625	n/a	WORD	1740820	wordpools/wasnorm_wordpool_576.txt	LTP355	ltpFR2	12	4	HAND	683	n/a	n/a	0	0	0
852.64208984375	n/a	WORD	1746211	wordpools/wasnorm_wordpool_576.txt	LTP355	ltpFR2	12	4	DUSTPAN	509	n/a	n/a	0	0	0
855.33984375	n/a	WORD	1751736	wordpools/wasnorm_wordpool_576.txt	LTP355	ltpFR2	12	4	POPCORN	1104	n/a	n/a	0	0	0
857.77294921875	n/a	WORD	1756719	wordpools/wasnorm_wordpool_576.txt	LTP355	ltpFR2	12	4	MISTER	901	n/a	n/a	0	0	0
860.337890625	n/a	WORD	1761972	wordpools/wasnorm_wordpool_576.txt	LTP355	ltpFR2	12	4	CANAL	226	n/a	n/a	0	0	0
862.953125	n/a	WORD	1767328	wordpools/wasnorm_wordpool_576.txt	LTP355	ltpFR2	12	4	POLICE	1098	n/a	n/a	0	0	0
865.5849609375	n/a	WORD	1772718	wordpools/wasnorm_wordpool_576.txt	LTP355	ltpFR2	12	4	PANTHER	1009	n/a	n/a	0	0	0
868.31689453125	n/a	WORD	1778313	wordpools/wasnorm_wordpool_576.txt	LTP355	ltpFR2	12	4	PASTA	1021	n/a	n/a	0	0	0
870.7841796875	n/a	WORD	1783366	wordpools/wasnorm_wordpool_576.txt	LTP355	ltpFR2	12	4	STREAM	1392	n/a	n/a	0	0	0
873.5810546875	n/a	WORD	1789094	wordpools/wasnorm_wordpool_576.txt	LTP355	ltpFR2	12	4	CROWN	415	n/a	n/a	0	0	0
876.14697265625	n/a	WORD	1794349	wordpools/wasnorm_wordpool_576.txt	LTP355	ltpFR2	12	4	FLASHLIGHT	575	n/a	n/a	0	0	0
878.712890625	n/a	WORD	1799604	wordpools/wasnorm_wordpool_576.txt	LTP355	ltpFR2	12	4	CEILING	265	n/a	n/a	0	0	0
881.39404296875	n/a	WORD	1805095	wordpools/wasnorm_wordpool_576.txt	LTP355	ltpFR2	12	4	PLASTER	1085	n/a	n/a	0	0	0
883.84423828125	n/a	WORD	1810113	wordpools/wasnorm_wordpool_576.txt	LTP355	ltpFR2	12	4	SWITCH	1422	n/a	n/a	0	0	0
886.35791015625	n/a	WORD	1815261	wordpools/wasnorm_wordpool_576.txt	LTP355	ltpFR2	12	4	NOMAD	955	n/a	n/a	0	0	0
888.89013671875	n/a	WORD	1820447	wordpools/wasnorm_wordpool_576.txt	LTP355	ltpFR2	12	4	CURTAIN	427	n/a	n/a	0	0	0
891.322265625	n/a	WORD	1825428	wordpools/wasnorm_wordpool_576.txt	LTP355	ltpFR2	12	4	LAMP	798	n/a	n/a	0	0	0
893.85498046875	n/a	WORD	1830615	wordpools/wasnorm_wordpool_576.txt	LTP355	ltpFR2	12	4	WAGON	1578	n/a	n/a	0	0	0
896.38720703125	n/a	WORD	1835801	wordpools/wasnorm_wordpool_576.txt	LTP355	ltpFR2	12	4	LIPSTICK	829	n/a	n/a	0	0	0
898.00341796875	n/a	START	1839111	n/a	LTP355	ltpFR2	12	n/a	n/a	n/a	5	n/a	n/a	n/a	n/a
898.97607421875	n/a	DISTRACTOR	1841103	n/a	LTP355	ltpFR2	12	4	n/a	n/a	n/a	n/a	0	0	0
898.9853515625	n/a	PROB	1841122	n/a	LTP355	ltpFR2	12	n/a	n/a	n/a	5	10	3	1	6
901.201171875	n/a	PROB	1845660	n/a	LTP355	ltpFR2	12	n/a	n/a	n/a	5	11	3	1	7
902.51708984375	n/a	PROB	1848355	n/a	LTP355	ltpFR2	12	n/a	n/a	n/a	5	13	3	1	9
903.93310546875	n/a	PROB	1851255	n/a	LTP355	ltpFR2	12	n/a	n/a	n/a	5	10	6	1	3
905.9150390625	n/a	PROB	1855314	n/a	LTP355	ltpFR2	12	n/a	n/a	n/a	5	19	6	9	4
907.76513671875	n/a	PROB	1859103	n/a	LTP355	ltpFR2	12	n/a	n/a	n/a	5	4	1	2	1
908.79833984375	n/a	PROB	1861219	n/a	LTP355	ltpFR2	12	n/a	n/a	n/a	5	5	2	1	2
909.96337890625	n/a	PROB	1863605	n/a	LTP355	ltpFR2	12	n/a	n/a	n/a	5	17	6	8	3
911.912109375	n/a	PROB	1867596	n/a	LTP355	ltpFR2	12	n/a	n/a	n/a	5	7	3	2	2
913.478515625	n/a	PROB	1870804	n/a	LTP355	ltpFR2	12	n/a	n/a	n/a	5	17	8	5	4
914.96142578125	n/a	PROB	1873841	n/a	LTP355	ltpFR2	12	n/a	n/a	n/a	5	18	6	7	5
917.1103515625	n/a	PROB	1878242	n/a	LTP355	ltpFR2	12	n/a	n/a	n/a	5	14	5	2	7
918.576171875	n/a	PROB	1881244	n/a	LTP355	ltpFR2	12	n/a	n/a	n/a	5	20	8	4	8
920.88232421875	n/a	STOP	1885967	n/a	LTP355	ltpFR2	12	n/a	n/a	n/a	5	n/a	n/a	n/a	n/a
923.9404296875	n/a	REC_START	1892230	n/a	LTP355	ltpFR2	12	4	n/a	n/a	n/a	n/a	0	0	0
926.62451171875	n/a	REC_WORD	1897727	wordpools/wasnorm_wordpool_576.txt	LTP355	ltpFR2	12	4	HIKER	708	n/a	n/a	0	0	0
927.72021484375	n/a	REC_WORD	1899971	wordpools/wasnorm_wordpool_576.txt	LTP355	ltpFR2	12	4	WRENCH	1625	n/a	n/a	0	0	0
928.7294921875	n/a	REC_WORD	1902038	wordpools/wasnorm_wordpool_576.txt	LTP355	ltpFR2	12	4	KETCHUP	771	n/a	n/a	0	0	0
930.05029296875	n/a	REC_WORD	1904743	wordpools/wasnorm_wordpool_576.txt	LTP355	ltpFR2	12	4	DOUGHNUT	490	n/a	n/a	0	0	0
935.021484375	n/a	REC_WORD	1914924	wordpools/wasnorm_wordpool_576.txt	LTP355	ltpFR2	12	4	FINGER	567	n/a	n/a	0	0	0
935.74267578125	n/a	REC_WORD	1916401	wordpools/wasnorm_wordpool_576.txt	LTP355	ltpFR2	12	4	HAND	683	n/a	n/a	0	0	0
939.75048828125	n/a	REC_WORD	1924609	wordpools/wasnorm_wordpool_576.txt	LTP355	ltpFR2	12	4	DUSTPAN	509	n/a	n/a	0	0	0
940.54248046875	n/a	REC_WORD	1926231	wordpools/wasnorm_wordpool_576.txt	LTP355	ltpFR2	12	4	POPCORN	1104	n/a	n/a	0	0	0
954.96240234375	n/a	REC_WORD	1955763	wordpools/wasnorm_wordpool_576.txt	LTP355	ltpFR2	12	4	PANTHER	1009	n/a	n/a	0	0	0
955.685546875	n/a	REC_WORD	1957244	wordpools/wasnorm_wordpool_576.txt	LTP355	ltpFR2	12	4	CROWN	415	n/a	n/a	0	0	0
956.58056640625	n/a	REC_WORD	1959077	wordpools/wasnorm_wordpool_576.txt	LTP355	ltpFR2	12	4	FLASHLIGHT	575	n/a	n/a	0	0	0
959.5166015625	n/a	REC_WORD	1965090	wordpools/wasnorm_wordpool_576.txt	LTP355	ltpFR2	12	4	WAGON	1578	n/a	n/a	0	0	0
960.5556640625	n/a	REC_WORD	1967218	wordpools/wasnorm_wordpool_576.txt	LTP355	ltpFR2	12	4	LAMP	798	n/a	n/a	0	0	0
961.99462890625	n/a	REC_WORD	1970165	wordpools/wasnorm_wordpool_576.txt	LTP355	ltpFR2	12	4	CURTAIN	427	n/a	n/a	0	0	0
963.9248046875	n/a	REC_WORD	1974118	wordpools/wasnorm_wordpool_576.txt	LTP355	ltpFR2	12	4	CEILING	265	n/a	n/a	0	0	0
964.66845703125	n/a	REC_WORD	1975641	wordpools/wasnorm_wordpool_576.txt	LTP355	ltpFR2	12	4	PLASTER	1085	n/a	n/a	0	0	0
1014.37890625	n/a	DISTRACTOR	2077448	n/a	LTP355	ltpFR2	12	5	n/a	n/a	n/a	n/a	0	0	0
1014.37890625	n/a	START	2077448	n/a	LTP355	ltpFR2	12	n/a	n/a	n/a	6	n/a	n/a	n/a	n/a
1014.39599609375	n/a	PROB	2077483	n/a	LTP355	ltpFR2	12	n/a	n/a	n/a	6	12	4	3	5
1016.6279296875	n/a	PROB	2082054	n/a	LTP355	ltpFR2	12	n/a	n/a	n/a	6	16	8	5	3
1018.02685546875	n/a	PROB	2084919	n/a	LTP355	ltpFR2	12	n/a	n/a	n/a	6	18	9	3	6
1020.10986328125	n/a	PROB	2089185	n/a	LTP355	ltpFR2	12	n/a	n/a	n/a	6	18	7	7	4
1021.5751953125	n/a	PROB	2092186	n/a	LTP355	ltpFR2	12	n/a	n/a	n/a	6	17	6	7	4
1023.05810546875	n/a	PROB	2095223	n/a	LTP355	ltpFR2	12	n/a	n/a	n/a	6	14	4	5	5
1024.2568359375	n/a	PROB	2097678	n/a	LTP355	ltpFR2	12	n/a	n/a	n/a	6	15	6	7	2
1026.72412109375	n/a	PROB	2102731	n/a	LTP355	ltpFR2	12	n/a	n/a	n/a	6	18	8	8	2
1028.68896484375	n/a	PROB	2106755	n/a	LTP355	ltpFR2	12	n/a	n/a	n/a	6	7	4	2	1
1030.72216796875	n/a	PROB	2110919	n/a	LTP355	ltpFR2	12	n/a	n/a	n/a	6	14	5	3	6
1032.65283203125	n/a	PROB	2114873	n/a	LTP355	ltpFR2	12	n/a	n/a	n/a	6	7	3	2	2
1034.3359375	n/a	PROB	2118320	n/a	LTP355	ltpFR2	12	n/a	n/a	n/a	6	10	4	3	3
1035.80322265625	n/a	PROB	2121325	n/a	LTP355	ltpFR2	12	n/a	n/a	n/a	6	8	2	2	4
1036.85107421875	n/a	STOP	2123471	n/a	LTP355	ltpFR2	12	n/a	n/a	n/a	6	n/a	n/a	n/a	n/a
1039.56591796875	n/a	WORD	2129031	wordpools/wasnorm_wordpool_576.txt	LTP355	ltpFR2	12	5	CLOUD	328	n/a	n/a	0	0	0
1042.0322265625	n/a	WORD	2134082	wordpools/wasnorm_wordpool_576.txt	LTP355	ltpFR2	12	5	CYCLONE	431	n/a	n/a	0	0	0
1044.84814453125	n/a	WORD	2139849	wordpools/wasnorm_wordpool_576.txt	LTP355	ltpFR2	12	5	SKILLET	1317	n/a	n/a	0	0	0
1047.4130859375	n/a	WORD	2145102	wordpools/wasnorm_wordpool_576.txt	LTP355	ltpFR2	12	5	UNCLE	1536	n/a	n/a	0	0	0
1050.0283203125	n/a	WORD	2150458	wordpools/wasnorm_wordpool_576.txt	LTP355	ltpFR2	12	5	ROCKET	1202	n/a	n/a	0	0	0
1052.79443359375	n/a	WORD	2156123	wordpools/wasnorm_wordpool_576.txt	LTP355	ltpFR2	12	5	EXPERT	543	n/a	n/a	0	0	0
1055.2421875	n/a	WORD	2161136	wordpools/wasnorm_wordpool_576.txt	LTP355	ltpFR2	12	5	COFFEE	341	n/a	n/a	0	0	0
1057.775390625	n/a	WORD	2166324	wordpools/wasnorm_wordpool_576.txt	LTP355	ltpFR2	12	5	TURKEY	1520	n/a	n/a	0	0	0
1060.373046875	n/a	WORD	2171644	wordpools/wasnorm_wordpool_576.txt	LTP355	ltpFR2	12	5	CRICKET	408	n/a	n/a	0	0	0
1062.97119140625	n/a	WORD	2176965	wordpools/wasnorm_wordpool_576.txt	LTP355	ltpFR2	12	5	BLUEPRINT	142	n/a	n/a	0	0	0
1065.75439453125	n/a	WORD	2182665	wordpools/wasnorm_wordpool_576.txt	LTP355	ltpFR2	12	5	COUNTY	389	n/a	n/a	0	0	0
1068.4853515625	n/a	WORD	2188258	wordpools/wasnorm_wordpool_576.txt	LTP355	ltpFR2	12	5	SPARROW	1347	n/a	n/a	0	0	0
1070.951171875	n/a	WORD	2193308	wordpools/wasnorm_wordpool_576.txt	LTP355	ltpFR2	12	5	PADDLE	1000	n/a	n/a	0	0	0
1073.4501953125	n/a	WORD	2198426	wordpools/wasnorm_wordpool_576.txt	LTP355	ltpFR2	12	5	CARROT	249	n/a	n/a	0	0	0
1076.18212890625	n/a	WORD	2204021	wordpools/wasnorm_wordpool_576.txt	LTP355	ltpFR2	12	5	LIGHTNING	820	n/a	n/a	0	0	0
1078.74853515625	n/a	WORD	2209277	wordpools/wasnorm_wordpool_576.txt	LTP355	ltpFR2	12	5	LOFT	840	n/a	n/a	0	0	0
1081.21240234375	n/a	WORD	2214323	wordpools/wasnorm_wordpool_576.txt	LTP355	ltpFR2	12	5	NIGHTGOWN	953	n/a	n/a	0	0	0
1083.84521484375	n/a	WORD	2219715	wordpools/wasnorm_wordpool_576.txt	LTP355	ltpFR2	12	5	BREAST	171	n/a	n/a	0	0	0
1086.37744140625	n/a	WORD	2224901	wordpools/wasnorm_wordpool_576.txt	LTP355	ltpFR2	12	5	PARROT	1015	n/a	n/a	0	0	0
1089.1923828125	n/a	WORD	2230666	wordpools/wasnorm_wordpool_576.txt	LTP355	ltpFR2	12	5	STOMACH	1384	n/a	n/a	0	0	0
1091.80859375	n/a	WORD	2236024	wordpools/wasnorm_wordpool_576.txt	LTP355	ltpFR2	12	5	FLASK	576	n/a	n/a	0	0	0
1094.2392578125	n/a	WORD	2241002	wordpools/wasnorm_wordpool_576.txt	LTP355	ltpFR2	12	5	MEAT	883	n/a	n/a	0	0	0
1096.75634765625	n/a	WORD	2246157	wordpools/wasnorm_wordpool_576.txt	LTP355	ltpFR2	12	5	SPACE	1345	n/a	n/a	0	0	0
1099.3037109375	n/a	WORD	2251374	wordpools/wasnorm_wordpool_576.txt	LTP355	ltpFR2	12	5	CRATER	400	n/a	n/a	0	0	0
1100.92041015625	n/a	START	2254685	n/a	LTP355	ltpFR2	12	n/a	n/a	n/a	7	n/a	n/a	n/a	n/a
1101.91943359375	n/a	DISTRACTOR	2256731	n/a	LTP355	ltpFR2	12	5	n/a	n/a	n/a	n/a	0	0	0
1101.9365234375	n/a	PROB	2256766	n/a	LTP355	ltpFR2	12	n/a	n/a	n/a	7	8	1	3	4
1103.7197265625	n/a	PROB	2260418	n/a	LTP355	ltpFR2	12	n/a	n/a	n/a	7	16	9	6	1
1105.03466796875	n/a	PROB	2263111	n/a	LTP355	ltpFR2	12	n/a	n/a	n/a	7	12	4	1	7
1106.2177734375	n/a	PROB	2265534	n/a	LTP355	ltpFR2	12	n/a	n/a	n/a	7	8	1	2	5
1107.58349609375	n/a	PROB	2268331	n/a	LTP355	ltpFR2	12	n/a	n/a	n/a	7	15	4	7	4
1109.7333984375	n/a	PROB	2272734	n/a	LTP355	ltpFR2	12	n/a	n/a	n/a	7	6	1	1	4
1110.7158203125	n/a	PROB	2274746	n/a	LTP355	ltpFR2	12	n/a	n/a	n/a	7	12	2	3	7
1111.931640625	n/a	PROB	2277236	n/a	LTP355	ltpFR2	12	n/a	n/a	n/a	7	4	1	1	2
1112.8818359375	n/a	PROB	2279182	n/a	LTP355	ltpFR2	12	n/a	n/a	n/a	7	18	6	7	5
1114.69677734375	n/a	PROB	2282899	n/a	LTP355	ltpFR2	12	n/a	n/a	n/a	7	11	1	6	4
1115.763671875	n/a	PROB	2285084	n/a	LTP355	ltpFR2	12	n/a	n/a	n/a	7	16	5	3	8
1117.095703125	n/a	PROB	2287812	n/a	LTP355	ltpFR2	12	n/a	n/a	n/a	7	10	1	4	5
1118.427734375	n/a	PROB	2290540	n/a	LTP355	ltpFR2	12	n/a	n/a	n/a	7	7	1	3	3
1119.6435546875	n/a	PROB	2293030	n/a	LTP355	ltpFR2	12	n/a	n/a	n/a	7	23	9	8	6
1122.29248046875	n/a	PROB	2298455	n/a	LTP355	ltpFR2	12	n/a	n/a	n/a	7	11	3	5	3
1123.77978515625	n/a	STOP	2301501	n/a	LTP355	ltpFR2	12	n/a	n/a	n/a	7	n/a	n/a	n/a	n/a
1126.7587890625	n/a	REC_START	2307602	n/a	LTP355	ltpFR2	12	5	n/a	n/a	n/a	n/a	0	0	0
1133.53271484375	n/a	REC_WORD	2321475	wordpools/wasnorm_wordpool_576.txt	LTP355	ltpFR2	12	5	CYCLONE	431	n/a	n/a	0	0	0
1138.86572265625	n/a	REC_WORD	2332397	wordpools/wasnorm_wordpool_576.txt	LTP355	ltpFR2	12	5	SKILLET	1317	n/a	n/a	0	0	0
1139.8056640625	n/a	REC_WORD	2334322	wordpools/wasnorm_wordpool_576.txt	LTP355	ltpFR2	12	5	UNCLE	1536	n/a	n/a	0	0	0
1140.546875	n/a	REC_WORD	2335840	wordpools/wasnorm_wordpool_576.txt	LTP355	ltpFR2	12	5	TURKEY	1520	n/a	n/a	0	0	0
1142.294921875	n/a	REC_WORD	2339420	wordpools/wasnorm_wordpool_576.txt	LTP355	ltpFR2	12	5	NIGHTGOWN	953	n/a	n/a	0	0	0
1143.05859375	n/a	REC_WORD	2340984	wordpools/wasnorm_wordpool_576.txt	LTP355	ltpFR2	12	5	BREAST	171	n/a	n/a	0	0	0
1145.3779296875	n/a	REC_WORD	2345734	wordpools/wasnorm_wordpool_576.txt	LTP355	ltpFR2	12	5	BLUEPRINT	142	n/a	n/a	0	0	0
1146.16796875	n/a	REC_WORD	2347352	wordpools/wasnorm_wordpool_576.txt	LTP355	ltpFR2	12	5	COUNTY	389	n/a	n/a	0	0	0
1167.0419921875	n/a	REC_WORD	2390102	wordpools/wasnorm_wordpool_576.txt	LTP355	ltpFR2	12	5	STOMACH	1384	n/a	n/a	0	0	0
1169.8291015625	n/a	REC_WORD	2395810	wordpools/wasnorm_wordpool_576.txt	LTP355	ltpFR2	12	5	FLASK	576	n/a	n/a	0	0	0
1217.1962890625	n/a	DISTRACTOR	2492818	n/a	LTP355	ltpFR2	12	6	n/a	n/a	n/a	n/a	0	0	0
1217.1962890625	n/a	START	2492818	n/a	LTP355	ltpFR2	12	n/a	n/a	n/a	8	n/a	n/a	n/a	n/a
1217.21337890625	n/a	PROB	2492853	n/a	LTP355	ltpFR2	12	n/a	n/a	n/a	8	18	1	9	8
1219.078125	n/a	PROB	2496672	n/a	LTP355	ltpFR2	12	n/a	n/a	n/a	8	7	1	1	5
1220.17822265625	n/a	PROB	2498925	n/a	LTP355	ltpFR2	12	n/a	n/a	n/a	8	17	9	6	2
1222.06005859375	n/a	PROB	2502779	n/a	LTP355	ltpFR2	12	n/a	n/a	n/a	8	21	7	6	8
1223.810546875	n/a	PROB	2506364	n/a	LTP355	ltpFR2	12	n/a	n/a	n/a	8	8	1	3	4
1224.97509765625	n/a	PROB	2508749	n/a	LTP355	ltpFR2	12	n/a	n/a	n/a	8	15	9	5	1
1226.1923828125	n/a	PROB	2511242	n/a	LTP355	ltpFR2	12	n/a	n/a	n/a	8	11	2	3	6
1227.55712890625	n/a	PROB	2514037	n/a	LTP355	ltpFR2	12	n/a	n/a	n/a	8	6	3	1	2
1228.75830078125	n/a	PROB	2516497	n/a	LTP355	ltpFR2	12	n/a	n/a	n/a	8	11	5	1	5
1229.89013671875	n/a	PROB	2518815	n/a	LTP355	ltpFR2	12	n/a	n/a	n/a	8	16	4	9	3
1231.439453125	n/a	PROB	2521988	n/a	LTP355	ltpFR2	12	n/a	n/a	n/a	8	9	4	1	4
1232.7734375	n/a	PROB	2524720	n/a	LTP355	ltpFR2	12	n/a	n/a	n/a	8	12	8	3	1
1233.92138671875	n/a	PROB	2527071	n/a	LTP355	ltpFR2	12	n/a	n/a	n/a	8	20	6	8	6
1235.42041015625	n/a	PROB	2530141	n/a	LTP355	ltpFR2	12	n/a	n/a	n/a	8	17	7	7	3
1236.75439453125	n/a	PROB	2532873	n/a	LTP355	ltpFR2	12	n/a	n/a	n/a	8	21	7	8	6
1238.736328125	n/a	PROB	2536932	n/a	LTP355	ltpFR2	12	n/a	n/a	n/a	8	15	1	7	7
1240.01123046875	n/a	STOP	2539543	n/a	LTP355	ltpFR2	12	n/a	n/a	n/a	8	n/a	n/a	n/a	n/a
1242.3505859375	n/a	WORD	2544334	wordpools/wasnorm_wordpool_576.txt	LTP355	ltpFR2	12	6	GUARD	667	n/a	n/a	0	0	0
1244.91650390625	n/a	WORD	2549589	wordpools/wasnorm_wordpool_576.txt	LTP355	ltpFR2	12	6	BADGE	68	n/a	n/a	0	0	0
1247.5986328125	n/a	WORD	2555082	wordpools/wasnorm_wordpool_576.txt	LTP355	ltpFR2	12	6	BANK	83	n/a	n/a	0	0	0
1250.396484375	n/a	WORD	2560812	wordpools/wasnorm_wordpool_576.txt	LTP355	ltpFR2	12	6	PUDDLE	1140	n/a	n/a	0	0	0
1253.12841796875	n/a	WORD	2566407	wordpools/wasnorm_wordpool_576.txt	LTP355	ltpFR2	12	6	KIDNEY	776	n/a	n/a	0	0	0
1255.64453125	n/a	WORD	2571560	wordpools/wasnorm_wordpool_576.txt	LTP355	ltpFR2	12	6	TRIBE	1505	n/a	n/a	0	0	0
1258.359375	n/a	WORD	2577120	wordpools/wasnorm_wordpool_576.txt	LTP355	ltpFR2	12	6	FRIAR	605	n/a	n/a	0	0	0
1261.09130859375	n/a	WORD	2582715	wordpools/wasnorm_wordpool_576.txt	LTP355	ltpFR2	12	6	WORKER	1621	n/a	n/a	0	0	0
1263.74169921875	n/a	WORD	2588143	wordpools/wasnorm_wordpool_576.txt	LTP355	ltpFR2	12	6	BEEF	113	n/a	n/a	0	0	0
1266.35546875	n/a	WORD	2593496	wordpools/wasnorm_wordpool_576.txt	LTP355	ltpFR2	12	6	FEMALE	559	n/a	n/a	0	0	0
1268.83837890625	n/a	WORD	2598581	wordpools/wasnorm_wordpool_576.txt	LTP355	ltpFR2	12	6	FOREHEAD	592	n/a	n/a	0	0	0
1271.26953125	n/a	WORD	2603560	wordpools/wasnorm_wordpool_576.txt	LTP355	ltpFR2	12	6	BACKBONE	66	n/a	n/a	0	0	0
1273.78662109375	n/a	WORD	2608715	wordpools/wasnorm_wordpool_576.txt	LTP355	ltpFR2	12	6	PAPER	1011	n/a	n/a	0	0	0
1276.61669921875	n/a	WORD	2614511	wordpools/wasnorm_wordpool_576.txt	LTP355	ltpFR2	12	6	WIDOW	1608	n/a	n/a	0	0	0
1279.3486328125	n/a	WORD	2620106	wordpools/wasnorm_wordpool_576.txt	LTP355	ltpFR2	12	6	TWEEZERS	1526	n/a	n/a	0	0	0
1282.0146484375	n/a	WORD	2625566	wordpools/wasnorm_wordpool_576.txt	LTP355	ltpFR2	12	6	ORANGE	980	n/a	n/a	0	0	0
1284.73046875	n/a	WORD	2631128	wordpools/wasnorm_wordpool_576.txt	LTP355	ltpFR2	12	6	SUNSET	1408	n/a	n/a	0	0	0
1287.16162109375	n/a	WORD	2636107	wordpools/wasnorm_wordpool_576.txt	LTP355	ltpFR2	12	6	CLIMBER	323	n/a	n/a	0	0	0
1289.76171875	n/a	WORD	2641432	wordpools/wasnorm_wordpool_576.txt	LTP355	ltpFR2	12	6	CHIPMUNK	304	n/a	n/a	0	0	0
1292.3427734375	n/a	WORD	2646718	wordpools/wasnorm_wordpool_576.txt	LTP355	ltpFR2	12	6	BEAVER	109	n/a	n/a	0	0	0
1295.125	n/a	WORD	2652416	wordpools/wasnorm_wordpool_576.txt	LTP355	ltpFR2	12	6	MONEY	908	n/a	n/a	0	0	0
1297.93994140625	n/a	WORD	2658181	wordpools/wasnorm_wordpool_576.txt	LTP355	ltpFR2	12	6	MARROW	872	n/a	n/a	0	0	0
1300.40576171875	n/a	WORD	2663231	wordpools/wasnorm_wordpool_576.txt	LTP355	ltpFR2	12	6	GRAPE	654	n/a	n/a	0	0	0
1302.90380859375	n/a	WORD	2668347	wordpools/wasnorm_wordpool_576.txt	LTP355	ltpFR2	12	6	CUPBOARD	425	n/a	n/a	0	0	0
1304.52099609375	n/a	START	2671659	n/a	LTP355	ltpFR2	12	n/a	n/a	n/a	9	n/a	n/a	n/a	n/a
1305.5810546875	n/a	DISTRACTOR	2673830	n/a	LTP355	ltpFR2	12	6	n/a	n/a	n/a	n/a	0	0	0
1305.5859375	n/a	PROB	2673840	n/a	LTP355	ltpFR2	12	n/a	n/a	n/a	9	13	6	3	4
1310.48388671875	n/a	PROB	2683871	n/a	LTP355	ltpFR2	12	n/a	n/a	n/a	9	11	5	1	5
1312.416015625	n/a	PROB	2687828	n/a	LTP355	ltpFR2	12	n/a	n/a	n/a	9	19	5	5	9
1313.64892578125	n/a	PROB	2690353	n/a	LTP355	ltpFR2	12	n/a	n/a	n/a	9	12	1	9	2
1314.8828125	n/a	PROB	2692880	n/a	LTP355	ltpFR2	12	n/a	n/a	n/a	9	8	1	4	3
1316.19775390625	n/a	PROB	2695573	n/a	LTP355	ltpFR2	12	n/a	n/a	n/a	9	16	6	3	7
1317.9140625	n/a	PROB	2699088	n/a	LTP355	ltpFR2	12	n/a	n/a	n/a	9	18	8	5	5
1319.19580078125	n/a	PROB	2701713	n/a	LTP355	ltpFR2	12	n/a	n/a	n/a	9	12	8	2	2
1320.51171875	n/a	PROB	2704408	n/a	LTP355	ltpFR2	12	n/a	n/a	n/a	9	18	8	8	2
1321.8291015625	n/a	PROB	2707106	n/a	LTP355	ltpFR2	12	n/a	n/a	n/a	9	7	2	1	4
1323.11083984375	n/a	PROB	2709731	n/a	LTP355	ltpFR2	12	n/a	n/a	n/a	9	13	4	8	1
1324.64404296875	n/a	PROB	2712871	n/a	LTP355	ltpFR2	12	n/a	n/a	n/a	9	13	5	4	4
1326.02587890625	n/a	PROB	2715701	n/a	LTP355	ltpFR2	12	n/a	n/a	n/a	9	14	8	5	1
1327.85302734375	n/a	STOP	2719443	n/a	LTP355	ltpFR2	12	n/a	n/a	n/a	9	n/a	n/a	n/a	n/a
1330.375	n/a	REC_START	2724608	n/a	LTP355	ltpFR2	12	6	n/a	n/a	n/a	n/a	0	0	0
1331.63720703125	n/a	REC_WORD	2727193	wordpools/wasnorm_wordpool_576.txt	LTP355	ltpFR2	12	6	GUARD	667	n/a	n/a	0	0	0
1332.26416015625	n/a	REC_WORD	2728477	wordpools/wasnorm_wordpool_576.txt	LTP355	ltpFR2	12	6	BADGE	68	n/a	n/a	0	0	0
1332.90625	n/a	REC_WORD	2729792	wordpools/wasnorm_wordpool_576.txt	LTP355	ltpFR2	12	6	BANK	83	n/a	n/a	0	0	0
1336.81689453125	n/a	REC_WORD	2737801	wordpools/wasnorm_wordpool_576.txt	LTP355	ltpFR2	12	6	SUNSET	1408	n/a	n/a	0	0	0
1338.80029296875	n/a	REC_WORD	2741863	wordpools/wasnorm_wordpool_576.txt	LTP355	ltpFR2	12	6	GRAPE	654	n/a	n/a	0	0	0
1339.9951171875	n/a	REC_WORD	2744310	wordpools/wasnorm_wordpool_576.txt	LTP355	ltpFR2	12	6	FRIAR	605	n/a	n/a	0	0	0
1342.89794921875	n/a	REC_WORD	2750255	wordpools/wasnorm_wordpool_576.txt	LTP355	ltpFR2	12	6	BEEF	113	n/a	n/a	0	0	0
1344.30908203125	n/a	REC_WORD	2753145	wordpools/wasnorm_wordpool_576.txt	LTP355	ltpFR2	12	6	FEMALE	559	n/a	n/a	0	0	0
1347.333984375	n/a	REC_WORD	2759340	wordpools/wasnorm_wordpool_576.txt	LTP355	ltpFR2	12	6	WOMAN	1620	n/a	n/a	0	0	0
1352.748046875	n/a	REC_WORD	2770428	wordpools/wasnorm_wordpool_576.txt	LTP355	ltpFR2	12	6	WIDOW	1608	n/a	n/a	0	0	0
1353.47900390625	n/a	REC_WORD	2771925	wordpools/wasnorm_wordpool_576.txt	LTP355	ltpFR2	12	6	TWEEZERS	1526	n/a	n/a	0	0	0
1354.39599609375	n/a	REC_WORD	2773803	wordpools/wasnorm_wordpool_576.txt	LTP355	ltpFR2	12	6	ORANGE	980	n/a	n/a	0	0	0
1359.244140625	n/a	REC_WORD	2783732	wordpools/wasnorm_wordpool_576.txt	LTP355	ltpFR2	12	6	BEAVER	109	n/a	n/a	0	0	0
1367.1591796875	n/a	REC_WORD	2799942	wordpools/wasnorm_wordpool_576.txt	LTP355	ltpFR2	12	6	MONEY	908	n/a	n/a	0	0	0
1420.84765625	n/a	WORD	2909896	wordpools/wasnorm_wordpool_576.txt	LTP355	ltpFR2	12	7	GUITAR	670	n/a	n/a	0	0	0
1423.27880859375	n/a	WORD	2914875	wordpools/wasnorm_wordpool_576.txt	LTP355	ltpFR2	12	7	RATTLE	1170	n/a	n/a	0	0	0
1426.0107421875	n/a	WORD	2920470	wordpools/wasnorm_wordpool_576.txt	LTP355	ltpFR2	12	7	COBRA	336	n/a	n/a	0	0	0
1428.57568359375	n/a	WORD	2925723	wordpools/wasnorm_wordpool_576.txt	LTP355	ltpFR2	12	7	SPOON	1357	n/a	n/a	0	0	0
1431.107421875	n/a	WORD	2930908	wordpools/wasnorm_wordpool_576.txt	LTP355	ltpFR2	12	7	MUSTARD	935	n/a	n/a	0	0	0
1433.673828125	n/a	WORD	2936164	wordpools/wasnorm_wordpool_576.txt	LTP355	ltpFR2	12	7	TOMBSTONE	1478	n/a	n/a	0	0	0
1436.15576171875	n/a	WORD	2941247	wordpools/wasnorm_wordpool_576.txt	LTP355	ltpFR2	12	7	HARP	689	n/a	n/a	0	0	0
1438.6376953125	n/a	WORD	2946330	wordpools/wasnorm_wordpool_576.txt	LTP355	ltpFR2	12	7	COLLEGE	346	n/a	n/a	0	0	0
1441.11962890625	n/a	WORD	2951413	wordpools/wasnorm_wordpool_576.txt	LTP355	ltpFR2	12	7	PROTON	1132	n/a	n/a	0	0	0
1443.7197265625	n/a	WORD	2956738	wordpools/wasnorm_wordpool_576.txt	LTP355	ltpFR2	12	7	PECAN	1036	n/a	n/a	0	0	0
1446.23388671875	n/a	WORD	2961887	wordpools/wasnorm_wordpool_576.txt	LTP355	ltpFR2	12	7	HUMAN	726	n/a	n/a	0	0	0
1448.80078125	n/a	WORD	2967144	wordpools/wasnorm_wordpool_576.txt	LTP355	ltpFR2	12	7	APRON	35	n/a	n/a	0	0	0
1451.28173828125	n/a	WORD	2972225	wordpools/wasnorm_wordpool_576.txt	LTP355	ltpFR2	12	7	VALVE	1546	n/a	n/a	0	0	0
1454.013671875	n/a	WORD	2977820	wordpools/wasnorm_wordpool_576.txt	LTP355	ltpFR2	12	7	BRAKE	166	n/a	n/a	0	0	0
1456.52880859375	n/a	WORD	2982971	wordpools/wasnorm_wordpool_576.txt	LTP355	ltpFR2	12	7	BRANCH	168	n/a	n/a	0	0	0
1459.11083984375	n/a	WORD	2988259	wordpools/wasnorm_wordpool_576.txt	LTP355	ltpFR2	12	7	INFANT	737	n/a	n/a	0	0	0
1461.82763671875	n/a	WORD	2993823	wordpools/wasnorm_wordpool_576.txt	LTP355	ltpFR2	12	7	DASHBOARD	441	n/a	n/a	0	0	0
1464.32470703125	n/a	WORD	2998937	wordpools/wasnorm_wordpool_576.txt	LTP355	ltpFR2	12	7	HIGHWAY	707	n/a	n/a	0	0	0
1467.02392578125	n/a	WORD	3004465	wordpools/wasnorm_wordpool_576.txt	LTP355	ltpFR2	12	7	GARBAGE	622	n/a	n/a	0	0	0
1469.48876953125	n/a	WORD	3009513	wordpools/wasnorm_wordpool_576.txt	LTP355	ltpFR2	12	7	BALLOON	75	n/a	n/a	0	0	0
1471.921875	n/a	WORD	3014496	wordpools/wasnorm_wordpool_576.txt	LTP355	ltpFR2	12	7	BANJO	82	n/a	n/a	0	0	0
1474.63671875	n/a	WORD	3020056	wordpools/wasnorm_wordpool_576.txt	LTP355	ltpFR2	12	7	TURTLE	1522	n/a	n/a	0	0	0
1477.2021484375	n/a	WORD	3025310	wordpools/wasnorm_wordpool_576.txt	LTP355	ltpFR2	12	7	DRIVER	499	n/a	n/a	0	0	0
1479.81884765625	n/a	WORD	3030669	wordpools/wasnorm_wordpool_576.txt	LTP355	ltpFR2	12	7	COURSE	390	n/a	n/a	0	0	0
1481.43408203125	n/a	START	3033977	n/a	LTP355	ltpFR2	12	n/a	n/a	n/a	10	n/a	n/a	n/a	n/a
1482.47705078125	n/a	DISTRACTOR	3036113	n/a	LTP355	ltpFR2	12	7	n/a	n/a	n/a	n/a	0	0	0
1482.48291015625	n/a	PROB	3036125	n/a	LTP355	ltpFR2	12	n/a	n/a	n/a	10	16	2	5	9
1484.36474609375	n/a	PROB	3039979	n/a	LTP355	ltpFR2	12	n/a	n/a	n/a	10	25	7	9	9
1487.78125	n/a	PROB	3046976	n/a	LTP355	ltpFR2	12	n/a	n/a	n/a	10	22	7	7	8
1489.72998046875	n/a	PROB	3050967	n/a	LTP355	ltpFR2	12	n/a	n/a	n/a	10	17	9	2	6
1491.59521484375	n/a	PROB	3054787	n/a	LTP355	ltpFR2	12	n/a	n/a	n/a	10	9	7	1	1
1492.6279296875	n/a	PROB	3056902	n/a	LTP355	ltpFR2	12	n/a	n/a	n/a	10	18	7	5	6
1494.14404296875	n/a	PROB	3060007	n/a	LTP355	ltpFR2	12	n/a	n/a	n/a	10	11	7	3	1
1495.22705078125	n/a	PROB	3062225	n/a	LTP355	ltpFR2	12	n/a	n/a	n/a	10	14	9	3	2
1496.8271484375	n/a	PROB	3065502	n/a	LTP355	ltpFR2	12	n/a	n/a	n/a	10	12	3	7	2
1497.94189453125	n/a	PROB	3067785	n/a	LTP355	ltpFR2	12	n/a	n/a	n/a	10	7	3	2	2
1500.05810546875	n/a	PROB	3072119	n/a	LTP355	ltpFR2	12	n/a	n/a	n/a	10	16	9	5	2
1501.490234375	n/a	PROB	3075052	n/a	LTP355	ltpFR2	12	n/a	n/a	n/a	10	18	9	1	8
1502.63916015625	n/a	PROB	3077405	n/a	LTP355	ltpFR2	12	n/a	n/a	n/a	10	22	8	9	5
1504.205078125	n/a	STOP	3080612	n/a	LTP355	ltpFR2	12	n/a	n/a	n/a	10	n/a	n/a	n/a	n/a
1507.27099609375	n/a	REC_START	3086891	n/a	LTP355	ltpFR2	12	7	n/a	n/a	n/a	n/a	0	0	0
1513.076171875	n/a	REC_WORD	3098780	wordpools/wasnorm_wordpool_576.txt	LTP355	ltpFR2	12	7	GUITAR	670	n/a	n/a	0	0	0
1513.7802734375	n/a	REC_WORD	3100222	wordpools/wasnorm_wordpool_576.txt	LTP355	ltpFR2	12	7	HARP	689	n/a	n/a	0	0	0
1514.56103515625	n/a	REC_WORD	3101821	wordpools/wasnorm_wordpool_576.txt	LTP355	ltpFR2	12	7	SPOON	1357	n/a	n/a	0	0	0
1515.7333984375	n/a	REC_WORD	3104222	wordpools/wasnorm_wordpool_576.txt	LTP355	ltpFR2	12	7	RATTLE	1170	n/a	n/a	0	0	0
1516.5771484375	n/a	REC_WORD	3105950	wordpools/wasnorm_wordpool_576.txt	LTP355	ltpFR2	12	7	COBRA	336	n/a	n/a	0	0	0
1519.18310546875	n/a	REC_WORD	3111287	wordpools/wasnorm_wordpool_576.txt	LTP355	ltpFR2	12	7	HARP	689	n/a	n/a	0	0	0
1520.1943359375	n/a	REC_WORD	3113358	wordpools/wasnorm_wordpool_576.txt	LTP355	ltpFR2	12	7	TOMBSTONE	1478	n/a	n/a	0	0	0
1521.09716796875	n/a	REC_WORD	3115207	wordpools/wasnorm_wordpool_576.txt	LTP355	ltpFR2	12	7	MUSTARD	935	n/a	n/a	0	0	0
1527.201171875	n/a	REC_WORD	3127708	wordpools/wasnorm_wordpool_576.txt	LTP355	ltpFR2	12	7	COLLEGE	346	n/a	n/a	0	0	0
1527.9443359375	n/a	REC_WORD	3129230	wordpools/wasnorm_wordpool_576.txt	LTP355	ltpFR2	12	7	PROTON	1132	n/a	n/a	0	0	0
1540.8134765625	n/a	REC_WORD	3155586	wordpools/wasnorm_wordpool_576.txt	LTP355	ltpFR2	12	7	DRIVER	499	n/a	n/a	0	0	0
1541.5166015625	n/a	REC_WORD	3157026	wordpools/wasnorm_wordpool_576.txt	LTP355	ltpFR2	12	7	HIGHWAY	707	n/a	n/a	0	0	0
1545.8564453125	n/a	REC_WORD	3165914	wordpools/wasnorm_wordpool_576.txt	LTP355	ltpFR2	12	7	BRANCH	168	n/a	n/a	0	0	0
1546.5625	n/a	REC_WORD	3167360	wordpools/wasnorm_wordpool_576.txt	LTP355	ltpFR2	12	7	BRAKE	166	n/a	n/a	0	0	0
1550.41650390625	n/a	REC_WORD	3175253	wordpools/wasnorm_wordpool_576.txt	LTP355	ltpFR2	12	7	INFANT	737	n/a	n/a	0	0	0
1552.81640625	n/a	REC_WORD	3180168	wordpools/wasnorm_wordpool_576.txt	LTP355	ltpFR2	12	7	BANJO	82	n/a	n/a	0	0	0
1555.7744140625	n/a	REC_WORD	3186226	wordpools/wasnorm_wordpool_576.txt	LTP355	ltpFR2	12	7	HARP	689	n/a	n/a	0	0	0
1597.7275390625	n/a	WORD	3272146	wordpools/wasnorm_wordpool_576.txt	LTP355	ltpFR2	12	8	BRICK	172	n/a	n/a	0	0	0
1600.474609375	n/a	WORD	3277772	wordpools/wasnorm_wordpool_576.txt	LTP355	ltpFR2	12	8	CHEMIST	292	n/a	n/a	0	0	0
1603.27392578125	n/a	WORD	3283505	wordpools/wasnorm_wordpool_576.txt	LTP355	ltpFR2	12	8	KNAPSACK	783	n/a	n/a	0	0	0
1605.90576171875	n/a	WORD	3288895	wordpools/wasnorm_wordpool_576.txt	LTP355	ltpFR2	12	8	CLOTHES	327	n/a	n/a	0	0	0
1608.7216796875	n/a	WORD	3294662	wordpools/wasnorm_wordpool_576.txt	LTP355	ltpFR2	12	8	BABY	64	n/a	n/a	0	0	0
1611.38671875	n/a	WORD	3300120	wordpools/wasnorm_wordpool_576.txt	LTP355	ltpFR2	12	8	POWDER	1117	n/a	n/a	0	0	0
1614.001953125	n/a	WORD	3305476	wordpools/wasnorm_wordpool_576.txt	LTP355	ltpFR2	12	8	POCKET	1093	n/a	n/a	0	0	0
1616.56689453125	n/a	WORD	3310729	wordpools/wasnorm_wordpool_576.txt	LTP355	ltpFR2	12	8	BARREL	91	n/a	n/a	0	0	0
1619.1328125	n/a	WORD	3315984	wordpools/wasnorm_wordpool_576.txt	LTP355	ltpFR2	12	8	BULLET	194	n/a	n/a	0	0	0
1621.798828125	n/a	WORD	3321444	wordpools/wasnorm_wordpool_576.txt	LTP355	ltpFR2	12	8	COTTAGE	384	n/a	n/a	0	0	0
1624.52978515625	n/a	WORD	3327037	wordpools/wasnorm_wordpool_576.txt	LTP355	ltpFR2	12	8	SCALLOP	1242	n/a	n/a	0	0	0
1626.9951171875	n/a	WORD	3332086	wordpools/wasnorm_wordpool_576.txt	LTP355	ltpFR2	12	8	BATHTUB	100	n/a	n/a	0	0	0
1629.44384765625	n/a	WORD	3337101	wordpools/wasnorm_wordpool_576.txt	LTP355	ltpFR2	12	8	COWBOY	395	n/a	n/a	0	0	0
1632.2099609375	n/a	WORD	3342766	wordpools/wasnorm_wordpool_576.txt	LTP355	ltpFR2	12	8	ZIPPER	1636	n/a	n/a	0	0	0
1634.826171875	n/a	WORD	3348124	wordpools/wasnorm_wordpool_576.txt	LTP355	ltpFR2	12	8	RIFLE	1192	n/a	n/a	0	0	0
1637.33984375	n/a	WORD	3353272	wordpools/wasnorm_wordpool_576.txt	LTP355	ltpFR2	12	8	STALLION	1369	n/a	n/a	0	0	0
1639.88916015625	n/a	WORD	3358493	wordpools/wasnorm_wordpool_576.txt	LTP355	ltpFR2	12	8	SLOPE	1328	n/a	n/a	0	0	0
1642.65380859375	n/a	WORD	3364155	wordpools/wasnorm_wordpool_576.txt	LTP355	ltpFR2	12	8	LADDER	793	n/a	n/a	0	0	0
1645.22021484375	n/a	WORD	3369411	wordpools/wasnorm_wordpool_576.txt	LTP355	ltpFR2	12	8	PRINCESS	1125	n/a	n/a	0	0	0
1647.96826171875	n/a	WORD	3375039	wordpools/wasnorm_wordpool_576.txt	LTP355	ltpFR2	12	8	PEBBLE	1035	n/a	n/a	0	0	0
1650.73486328125	n/a	WORD	3380705	wordpools/wasnorm_wordpool_576.txt	LTP355	ltpFR2	12	8	JUDGE	761	n/a	n/a	0	0	0
1653.48193359375	n/a	WORD	3386331	wordpools/wasnorm_wordpool_576.txt	LTP355	ltpFR2	12	8	SPONGE	1355	n/a	n/a	0	0	0
1656.29833984375	n/a	WORD	3392099	wordpools/wasnorm_wordpool_576.txt	LTP355	ltpFR2	12	8	SWIMMER	1420	n/a	n/a	0	0	0
1658.78125	n/a	WORD	3397184	wordpools/wasnorm_wordpool_576.txt	LTP355	ltpFR2	12	8	HORSE	719	n/a	n/a	0	0	0
1660.39599609375	n/a	START	3400491	n/a	LTP355	ltpFR2	12	n/a	n/a	n/a	11	n/a	n/a	n/a	n/a
1661.29296875	n/a	DISTRACTOR	3402328	n/a	LTP355	ltpFR2	12	8	n/a	n/a	n/a	n/a	0	0	0
1661.294921875	n/a	PROB	3402332	n/a	LTP355	ltpFR2	12	n/a	n/a	n/a	11	11	1	9	1
1663.27734375	n/a	PROB	3406392	n/a	LTP355	ltpFR2	12	n/a	n/a	n/a	11	14	5	6	3
1666.17626953125	n/a	PROB	3412329	n/a	LTP355	ltpFR2	12	n/a	n/a	n/a	11	11	3	6	2
1668.09228515625	n/a	PROB	3416253	n/a	LTP355	ltpFR2	12	n/a	n/a	n/a	11	13	6	6	1
1669.2412109375	n/a	PROB	3418606	n/a	LTP355	ltpFR2	12	n/a	n/a	n/a	11	15	6	3	6
1671.107421875	n/a	PROB	3422428	n/a	LTP355	ltpFR2	12	n/a	n/a	n/a	11	16	3	7	6
1672.34033203125	n/a	PROB	3424953	n/a	LTP355	ltpFR2	12	n/a	n/a	n/a	11	15	5	4	6
1673.8232421875	n/a	PROB	3427990	n/a	LTP355	ltpFR2	12	n/a	n/a	n/a	11	17	9	1	7
1675.7392578125	n/a	PROB	3431914	n/a	LTP355	ltpFR2	12	n/a	n/a	n/a	11	11	5	5	1
1677.08740234375	n/a	PROB	3434675	n/a	LTP355	ltpFR2	12	n/a	n/a	n/a	11	18	3	9	6
1678.80419921875	n/a	PROB	3438191	n/a	LTP355	ltpFR2	12	n/a	n/a	n/a	11	11	2	7	2
1680.96923828125	n/a	PROB	3442625	n/a	LTP355	ltpFR2	12	n/a	n/a	n/a	11	17	8	1	8
1683.2861328125	n/a	STOP	3447370	n/a	LTP355	ltpFR2	12	n/a	n/a	n/a	11	n/a	n/a	n/a	n/a
1686.30029296875	n/a	REC_START	3453543	n/a	LTP355	ltpFR2	12	8	n/a	n/a	n/a	n/a	0	0	0
1689.4111328125	n/a	REC_WORD	3459914	wordpools/wasnorm_wordpool_576.txt	LTP355	ltpFR2	12	8	BRICK	172	n/a	n/a	0	0	0
1691.88720703125	n/a	REC_WORD	3464985	wordpools/wasnorm_wordpool_576.txt	LTP355	ltpFR2	12	8	CHEMIST	292	n/a	n/a	0	0	0
1694.91748046875	n/a	REC_WORD	3471191	wordpools/wasnorm_wordpool_576.txt	LTP355	ltpFR2	12	8	KNAPSACK	783	n/a	n/a	0	0	0
1697.00732421875	n/a	REC_WORD	3475471	wordpools/wasnorm_wordpool_576.txt	LTP355	ltpFR2	12	8	POWDER	1117	n/a	n/a	0	0	0
1697.783203125	n/a	REC_WORD	3477060	wordpools/wasnorm_wordpool_576.txt	LTP355	ltpFR2	12	8	POCKET	1093	n/a	n/a	0	0	0
1699.16748046875	n/a	REC_WORD	3479895	wordpools/wasnorm_wordpool_576.txt	LTP355	ltpFR2	12	8	BARREL	91	n/a	n/a	0	0	0
1699.91015625	n/a	REC_WORD	3481416	wordpools/wasnorm_wordpool_576.txt	LTP355	ltpFR2	12	8	BULLET	194	n/a	n/a	0	0	0
1702.08251953125	n/a	REC_WORD	3485865	wordpools/wasnorm_wordpool_576.txt	LTP355	ltpFR2	12	8	COTTAGE	384	n/a	n/a	0	0	0
1708.2412109375	n/a	REC_WORD	3498478	wordpools/wasnorm_wordpool_576.txt	LTP355	ltpFR2	12	8	SCALLOP	1242	n/a	n/a	0	0	0
1710.14453125	n/a	REC_WORD	3502376	wordpools/wasnorm_wordpool_576.txt	LTP355	ltpFR2	12	8	BATHTUB	100	n/a	n/a	0	0	0
1712.5283203125	n/a	REC_WORD	3507258	wordpools/wasnorm_wordpool_576.txt	LTP355	ltpFR2	12	8	COWBOY	395	n/a	n/a	0	0	0
1714.92529296875	n/a	REC_WORD	3512167	wordpools/wasnorm_wordpool_576.txt	LTP355	ltpFR2	12	8	ZIPPER	1636	n/a	n/a	0	0	0
1715.75732421875	n/a	REC_WORD	3513871	wordpools/wasnorm_wordpool_576.txt	LTP355	ltpFR2	12	8	RIFLE	1192	n/a	n/a	0	0	0
1716.8916015625	n/a	REC_WORD	3516194	wordpools/wasnorm_wordpool_576.txt	LTP355	ltpFR2	12	8	STALLION	1369	n/a	n/a	0	0	0
1717.6943359375	n/a	REC_WORD	3517838	wordpools/wasnorm_wordpool_576.txt	LTP355	ltpFR2	12	8	HORSE	719	n/a	n/a	0	0	0
1719.5146484375	n/a	REC_WORD	3521566	wordpools/wasnorm_wordpool_576.txt	LTP355	ltpFR2	12	8	LADDER	793	n/a	n/a	0	0	0
1720.1806640625	n/a	REC_WORD	3522930	wordpools/wasnorm_wordpool_576.txt	LTP355	ltpFR2	12	8	PRINCESS	1125	n/a	n/a	0	0	0
1721.17431640625	n/a	REC_WORD	3524965	wordpools/wasnorm_wordpool_576.txt	LTP355	ltpFR2	12	8	PEBBLE	1035	n/a	n/a	0	0	0
1722.03955078125	n/a	REC_WORD	3526737	wordpools/wasnorm_wordpool_576.txt	LTP355	ltpFR2	12	8	SWIMMER	1420	n/a	n/a	0	0	0
1729.07470703125	n/a	REC_WORD	3541145	wordpools/wasnorm_wordpool_576.txt	LTP355	ltpFR2	12	8	SPONGE	1355	n/a	n/a	0	0	0
1762.8466796875	n/a	REST_REWET	3610310	n/a	LTP355	ltpFR2	12	8	n/a	n/a	n/a	n/a	0	0	0
1969.72802734375	n/a	DISTRACTOR	4034003	n/a	LTP355	ltpFR2	12	9	n/a	n/a	n/a	n/a	0	0	0
1969.72900390625	n/a	START	4034005	n/a	LTP355	ltpFR2	12	n/a	n/a	n/a	12	n/a	n/a	n/a	n/a
1969.7451171875	n/a	PROB	4034038	n/a	LTP355	ltpFR2	12	n/a	n/a	n/a	12	24	9	7	8
1973.208984375	n/a	PROB	4041132	n/a	LTP355	ltpFR2	12	n/a	n/a	n/a	12	13	1	9	3
1974.3251953125	n/a	PROB	4043418	n/a	LTP355	ltpFR2	12	n/a	n/a	n/a	12	20	6	5	9
1975.94091796875	n/a	PROB	4046727	n/a	LTP355	ltpFR2	12	n/a	n/a	n/a	12	11	5	3	3
1977.3232421875	n/a	PROB	4049558	n/a	LTP355	ltpFR2	12	n/a	n/a	n/a	12	15	3	7	5
1978.42333984375	n/a	PROB	4051811	n/a	LTP355	ltpFR2	12	n/a	n/a	n/a	12	17	5	3	9
1980.13916015625	n/a	PROB	4055325	n/a	LTP355	ltpFR2	12	n/a	n/a	n/a	12	19	3	9	7
1981.67138671875	n/a	PROB	4058463	n/a	LTP355	ltpFR2	12	n/a	n/a	n/a	12	20	4	9	7
1983.87109375	n/a	PROB	4062968	n/a	LTP355	ltpFR2	12	n/a	n/a	n/a	12	10	2	6	2
1985.5361328125	n/a	PROB	4066378	n/a	LTP355	ltpFR2	12	n/a	n/a	n/a	12	22	9	7	6
1987.38525390625	n/a	PROB	4070165	n/a	LTP355	ltpFR2	12	n/a	n/a	n/a	12	7	1	2	4
1990.41748046875	n/a	PROB	4076375	n/a	LTP355	ltpFR2	12	n/a	n/a	n/a	12	16	2	7	7
1993.7294921875	n/a	STOP	4083158	n/a	LTP355	ltpFR2	12	n/a	n/a	n/a	12	n/a	n/a	n/a	n/a
1994.84912109375	n/a	WORD	4085451	wordpools/wasnorm_wordpool_576.txt	LTP355	ltpFR2	12	9	RABBIT	1152	n/a	n/a	0	0	0
1997.29736328125	n/a	WORD	4090465	wordpools/wasnorm_wordpool_576.txt	LTP355	ltpFR2	12	9	MOTEL	919	n/a	n/a	0	0	0
1999.86328125	n/a	WORD	4095720	wordpools/wasnorm_wordpool_576.txt	LTP355	ltpFR2	12	9	PAIL	1002	n/a	n/a	0	0	0
2002.67822265625	n/a	WORD	4101485	wordpools/wasnorm_wordpool_576.txt	LTP355	ltpFR2	12	9	ATOM	55	n/a	n/a	0	0	0
2005.46044921875	n/a	WORD	4107183	wordpools/wasnorm_wordpool_576.txt	LTP355	ltpFR2	12	9	SCULPTURE	1258	n/a	n/a	0	0	0
2008.25830078125	n/a	WORD	4112913	wordpools/wasnorm_wordpool_576.txt	LTP355	ltpFR2	12	9	MILDEW	893	n/a	n/a	0	0	0
2010.80859375	n/a	WORD	4118136	wordpools/wasnorm_wordpool_576.txt	LTP355	ltpFR2	12	9	PERMIT	1051	n/a	n/a	0	0	0
2013.33935546875	n/a	WORD	4123319	wordpools/wasnorm_wordpool_576.txt	LTP355	ltpFR2	12	9	RAZOR	1171	n/a	n/a	0	0	0
2015.83935546875	n/a	WORD	4128439	wordpools/wasnorm_wordpool_576.txt	LTP355	ltpFR2	12	9	SCALPEL	1243	n/a	n/a	0	0	0
2018.5205078125	n/a	WORD	4133930	wordpools/wasnorm_wordpool_576.txt	LTP355	ltpFR2	12	9	PEDAL	1037	n/a	n/a	0	0	0
2021.25244140625	n/a	WORD	4139525	wordpools/wasnorm_wordpool_576.txt	LTP355	ltpFR2	12	9	GREASE	660	n/a	n/a	0	0	0
2023.8515625	n/a	WORD	4144848	wordpools/wasnorm_wordpool_576.txt	LTP355	ltpFR2	12	9	AIRPLANE	12	n/a	n/a	0	0	0
2026.49951171875	n/a	WORD	4150271	wordpools/wasnorm_wordpool_576.txt	LTP355	ltpFR2	12	9	SPHINX	1349	n/a	n/a	0	0	0
2029.1484375	n/a	WORD	4155696	wordpools/wasnorm_wordpool_576.txt	LTP355	ltpFR2	12	9	TORTOISE	1486	n/a	n/a	0	0	0
2031.58056640625	n/a	WORD	4160677	wordpools/wasnorm_wordpool_576.txt	LTP355	ltpFR2	12	9	KLEENEX	782	n/a	n/a	0	0	0
2034.1455078125	n/a	WORD	4165930	wordpools/wasnorm_wordpool_576.txt	LTP355	ltpFR2	12	9	OZONE	996	n/a	n/a	0	0	0
2036.7626953125	n/a	WORD	4171290	wordpools/wasnorm_wordpool_576.txt	LTP355	ltpFR2	12	9	XEROX	1628	n/a	n/a	0	0	0
2039.29345703125	n/a	WORD	4176473	wordpools/wasnorm_wordpool_576.txt	LTP355	ltpFR2	12	9	RAFT	1159	n/a	n/a	0	0	0
2041.759765625	n/a	WORD	4181524	wordpools/wasnorm_wordpool_576.txt	LTP355	ltpFR2	12	9	ORCHID	982	n/a	n/a	0	0	0
2044.5576171875	n/a	WORD	4187254	wordpools/wasnorm_wordpool_576.txt	LTP355	ltpFR2	12	9	GIRL	637	n/a	n/a	0	0	0
2047.35546875	n/a	WORD	4192984	wordpools/wasnorm_wordpool_576.txt	LTP355	ltpFR2	12	9	YOLK	1633	n/a	n/a	0	0	0
2049.9375	n/a	WORD	4198272	wordpools/wasnorm_wordpool_576.txt	LTP355	ltpFR2	12	9	TERMITE	1451	n/a	n/a	0	0	0
2052.58642578125	n/a	WORD	4203697	wordpools/wasnorm_wordpool_576.txt	LTP355	ltpFR2	12	9	SPOOL	1356	n/a	n/a	0	0	0
2055.185546875	n/a	WORD	4209020	wordpools/wasnorm_wordpool_576.txt	LTP355	ltpFR2	12	9	YARN	1631	n/a	n/a	0	0	0
2056.802734375	n/a	START	4212332	n/a	LTP355	ltpFR2	12	n/a	n/a	n/a	13	n/a	n/a	n/a	n/a
2058.00146484375	n/a	DISTRACTOR	4214787	n/a	LTP355	ltpFR2	12	9	n/a	n/a	n/a	n/a	0	0	0
2058.017578125	n/a	PROB	4214820	n/a	LTP355	ltpFR2	12	n/a	n/a	n/a	13	13	3	6	4
2059.75048828125	n/a	PROB	4218369	n/a	LTP355	ltpFR2	12	n/a	n/a	n/a	13	14	5	4	5
2061.14990234375	n/a	PROB	4221235	n/a	LTP355	ltpFR2	12	n/a	n/a	n/a	13	18	7	5	6
2063.69775390625	n/a	PROB	4226453	n/a	LTP355	ltpFR2	12	n/a	n/a	n/a	13	9	3	3	3
2064.89794921875	n/a	PROB	4228911	n/a	LTP355	ltpFR2	12	n/a	n/a	n/a	13	21	5	7	9
2066.296875	n/a	PROB	4231776	n/a	LTP355	ltpFR2	12	n/a	n/a	n/a	13	12	3	7	2
2067.52978515625	n/a	PROB	4234301	n/a	LTP355	ltpFR2	12	n/a	n/a	n/a	13	7	3	3	1
2069.11181640625	n/a	PROB	4237541	n/a	LTP355	ltpFR2	12	n/a	n/a	n/a	13	24	9	6	9
2071.3935546875	n/a	PROB	4242214	n/a	LTP355	ltpFR2	12	n/a	n/a	n/a	13	13	3	7	3
2072.7607421875	n/a	PROB	4245014	n/a	LTP355	ltpFR2	12	n/a	n/a	n/a	13	19	7	3	9
2074.0595703125	n/a	PROB	4247674	n/a	LTP355	ltpFR2	12	n/a	n/a	n/a	13	9	1	1	7
2075.17578125	n/a	PROB	4249960	n/a	LTP355	ltpFR2	12	n/a	n/a	n/a	13	22	7	6	9
2077.57470703125	n/a	PROB	4254873	n/a	LTP355	ltpFR2	12	n/a	n/a	n/a	13	15	2	5	8
2078.90673828125	n/a	PROB	4257601	n/a	LTP355	ltpFR2	12	n/a	n/a	n/a	13	15	6	4	5
2080.12890625	n/a	STOP	4260104	n/a	LTP355	ltpFR2	12	n/a	n/a	n/a	13	n/a	n/a	n/a	n/a
2082.556640625	n/a	REC_START	4265076	n/a	LTP355	ltpFR2	12	9	n/a	n/a	n/a	n/a	0	0	0
2086.1328125	n/a	REC_WORD	4272400	wordpools/wasnorm_wordpool_576.txt	LTP355	ltpFR2	12	9	SPHINX	1349	n/a	n/a	0	0	0
2087.2998046875	n/a	REC_WORD	4274790	wordpools/wasnorm_wordpool_576.txt	LTP355	ltpFR2	12	9	ORCHID	982	n/a	n/a	0	0	0
2087.9990234375	n/a	REC_WORD	4276222	wordpools/wasnorm_wordpool_576.txt	LTP355	ltpFR2	12	9	RAFT	1159	n/a	n/a	0	0	0
2090.72998046875	n/a	REC_WORD	4281815	wordpools/wasnorm_wordpool_576.txt	LTP355	ltpFR2	12	9	RABBIT	1152	n/a	n/a	0	0	0
2091.79296875	n/a	REC_WORD	4283992	wordpools/wasnorm_wordpool_576.txt	LTP355	ltpFR2	12	9	PAIL	1002	n/a	n/a	0	0	0
2103.6630859375	n/a	REC_WORD	4308302	wordpools/wasnorm_wordpool_576.txt	LTP355	ltpFR2	12	9	SCULPTURE	1258	n/a	n/a	0	0	0
2106.36083984375	n/a	REC_WORD	4313827	wordpools/wasnorm_wordpool_576.txt	LTP355	ltpFR2	12	9	MILDEW	893	n/a	n/a	0	0	0
2107.43017578125	n/a	REC_WORD	4316017	wordpools/wasnorm_wordpool_576.txt	LTP355	ltpFR2	12	9	MOTEL	919	n/a	n/a	0	0	0
2108.4990234375	n/a	REC_WORD	4318206	wordpools/wasnorm_wordpool_576.txt	LTP355	ltpFR2	12	9	GIRL	637	n/a	n/a	0	0	0
2110.68994140625	n/a	REC_WORD	4322693	wordpools/wasnorm_wordpool_576.txt	LTP355	ltpFR2	12	9	TERMITE	1451	n/a	n/a	0	0	0
2112.31103515625	n/a	REC_WORD	4326013	wordpools/wasnorm_wordpool_576.txt	LTP355	ltpFR2	12	9	SPOOL	1356	n/a	n/a	0	0	0
2113.1259765625	n/a	REC_WORD	4327682	wordpools/wasnorm_wordpool_576.txt	LTP355	ltpFR2	12	9	YARN	1631	n/a	n/a	0	0	0
2132.783203125	n/a	REC_WORD	4367940	wordpools/wasnorm_wordpool_576.txt	LTP355	ltpFR2	12	9	YOLK	1633	n/a	n/a	0	0	0
2136.4033203125	n/a	REC_WORD	4375354	wordpools/wasnorm_wordpool_576.txt	LTP355	ltpFR2	12	9	PEDAL	1037	n/a	n/a	0	0	0
2137.10009765625	n/a	REC_WORD	4376781	wordpools/wasnorm_wordpool_576.txt	LTP355	ltpFR2	12	9	GREASE	660	n/a	n/a	0	0	0
2138.47509765625	n/a	REC_WORD	4379597	wordpools/wasnorm_wordpool_576.txt	LTP355	ltpFR2	12	9	AIRPLANE	12	n/a	n/a	0	0	0
2173.01123046875	n/a	WORD	4450327	wordpools/wasnorm_wordpool_576.txt	LTP355	ltpFR2	12	10	SANDWICH	1232	n/a	n/a	0	0	0
2175.810546875	n/a	WORD	4456060	wordpools/wasnorm_wordpool_576.txt	LTP355	ltpFR2	12	10	PISTON	1076	n/a	n/a	0	0	0
2178.50830078125	n/a	WORD	4461585	wordpools/wasnorm_wordpool_576.txt	LTP355	ltpFR2	12	10	HOOD	714	n/a	n/a	0	0	0
2181.15771484375	n/a	WORD	4467011	wordpools/wasnorm_wordpool_576.txt	LTP355	ltpFR2	12	10	STAKE	1368	n/a	n/a	0	0	0
2183.58935546875	n/a	WORD	4471991	wordpools/wasnorm_wordpool_576.txt	LTP355	ltpFR2	12	10	TRACTOR	1493	n/a	n/a	0	0	0
2186.03759765625	n/a	WORD	4477005	wordpools/wasnorm_wordpool_576.txt	LTP355	ltpFR2	12	10	SHELTER	1282	n/a	n/a	0	0	0
2188.75439453125	n/a	WORD	4482569	wordpools/wasnorm_wordpool_576.txt	LTP355	ltpFR2	12	10	MESSAGE	888	n/a	n/a	0	0	0
2191.45263671875	n/a	WORD	4488095	wordpools/wasnorm_wordpool_576.txt	LTP355	ltpFR2	12	10	RELISH	1183	n/a	n/a	0	0	0
2194.11767578125	n/a	WORD	4493553	wordpools/wasnorm_wordpool_576.txt	LTP355	ltpFR2	12	10	SALT	1229	n/a	n/a	0	0	0
2196.58251953125	n/a	WORD	4498601	wordpools/wasnorm_wordpool_576.txt	LTP355	ltpFR2	12	10	SLUG	1329	n/a	n/a	0	0	0
2199.19873046875	n/a	WORD	4503959	wordpools/wasnorm_wordpool_576.txt	LTP355	ltpFR2	12	10	CREATURE	403	n/a	n/a	0	0	0
2201.84765625	n/a	WORD	4509384	wordpools/wasnorm_wordpool_576.txt	LTP355	ltpFR2	12	10	BEAST	108	n/a	n/a	0	0	0
2204.3955078125	n/a	WORD	4514602	wordpools/wasnorm_wordpool_576.txt	LTP355	ltpFR2	12	10	BUG	187	n/a	n/a	0	0	0
2207.14453125	n/a	WORD	4520232	wordpools/wasnorm_wordpool_576.txt	LTP355	ltpFR2	12	10	ROOSTER	1209	n/a	n/a	0	0	0
2209.65966796875	n/a	WORD	4525383	wordpools/wasnorm_wordpool_576.txt	LTP355	ltpFR2	12	10	KEEPER	769	n/a	n/a	0	0	0
2212.24169921875	n/a	WORD	4530671	wordpools/wasnorm_wordpool_576.txt	LTP355	ltpFR2	12	10	QUARTER	1148	n/a	n/a	0	0	0
2214.841796875	n/a	WORD	4535996	wordpools/wasnorm_wordpool_576.txt	LTP355	ltpFR2	12	10	DRAGON	492	n/a	n/a	0	0	0
2217.27294921875	n/a	WORD	4540975	wordpools/wasnorm_wordpool_576.txt	LTP355	ltpFR2	12	10	COOKBOOK	373	n/a	n/a	0	0	0
2219.8388671875	n/a	WORD	4546230	wordpools/wasnorm_wordpool_576.txt	LTP355	ltpFR2	12	10	BACON	67	n/a	n/a	0	0	0
2222.4697265625	n/a	WORD	4551618	wordpools/wasnorm_wordpool_576.txt	LTP355	ltpFR2	12	10	TREAT	1501	n/a	n/a	0	0	0
2224.935546875	n/a	WORD	4556668	wordpools/wasnorm_wordpool_576.txt	LTP355	ltpFR2	12	10	HAWK	692	n/a	n/a	0	0	0
2227.41796875	n/a	WORD	4561752	wordpools/wasnorm_wordpool_576.txt	LTP355	ltpFR2	12	10	GAVEL	627	n/a	n/a	0	0	0
2230.0166015625	n/a	WORD	4567074	wordpools/wasnorm_wordpool_576.txt	LTP355	ltpFR2	12	10	JURY	766	n/a	n/a	0	0	0
2232.58203125	n/a	WORD	4572328	wordpools/wasnorm_wordpool_576.txt	LTP355	ltpFR2	12	10	RECEIPT	1173	n/a	n/a	0	0	0
2234.19775390625	n/a	START	4575637	n/a	LTP355	ltpFR2	12	n/a	n/a	n/a	14	n/a	n/a	n/a	n/a
2235.1298828125	n/a	DISTRACTOR	4577546	n/a	LTP355	ltpFR2	12	10	n/a	n/a	n/a	n/a	0	0	0
2235.14697265625	n/a	PROB	4577581	n/a	LTP355	ltpFR2	12	n/a	n/a	n/a	14	24	8	7	8
2238.77978515625	n/a	PROB	4585021	n/a	LTP355	ltpFR2	12	n/a	n/a	n/a	14	16	8	6	2
2242.0439453125	n/a	PROB	4591706	n/a	LTP355	ltpFR2	12	n/a	n/a	n/a	14	14	7	2	5
2243.90966796875	n/a	PROB	4595527	n/a	LTP355	ltpFR2	12	n/a	n/a	n/a	14	26	8	9	9
2245.55908203125	n/a	PROB	4598905	n/a	LTP355	ltpFR2	12	n/a	n/a	n/a	14	12	5	4	3
2247.15771484375	n/a	PROB	4602179	n/a	LTP355	ltpFR2	12	n/a	n/a	n/a	14	18	7	4	7
2248.77490234375	n/a	PROB	4605491	n/a	LTP355	ltpFR2	12	n/a	n/a	n/a	14	19	8	5	6
2250.32275390625	n/a	PROB	4608661	n/a	LTP355	ltpFR2	12	n/a	n/a	n/a	14	13	2	8	3
2251.48876953125	n/a	PROB	4611049	n/a	LTP355	ltpFR2	12	n/a	n/a	n/a	14	18	4	6	8
2252.72314453125	n/a	PROB	4613577	n/a	LTP355	ltpFR2	12	n/a	n/a	n/a	14	21	9	6	6
2256.10400390625	n/a	PROB	4620501	n/a	LTP355	ltpFR2	12	n/a	n/a	n/a	14	8	4	3	1
2257.2177734375	n/a	STOP	4622782	n/a	LTP355	ltpFR2	12	n/a	n/a	n/a	14	n/a	n/a	n/a	n/a
2259.953125	n/a	REC_START	4628384	n/a	LTP355	ltpFR2	12	10	n/a	n/a	n/a	n/a	0	0	0
2260.81494140625	n/a	REC_WORD	4630149	wordpools/wasnorm_wordpool_576.txt	LTP355	ltpFR2	12	10	GAVEL	627	n/a	n/a	0	0	0
2261.42919921875	n/a	REC_WORD	4631407	wordpools/wasnorm_wordpool_576.txt	LTP355	ltpFR2	12	10	JURY	766	n/a	n/a	0	0	0
2262.041015625	n/a	REC_WORD	4632660	wordpools/wasnorm_wordpool_576.txt	LTP355	ltpFR2	12	10	RECEIPT	1173	n/a	n/a	0	0	0
2266.26513671875	n/a	REC_WORD	4641311	wordpools/wasnorm_wordpool_576.txt	LTP355	ltpFR2	12	10	SANDWICH	1232	n/a	n/a	0	0	0
2267.18115234375	n/a	REC_WORD	4643187	wordpools/wasnorm_wordpool_576.txt	LTP355	ltpFR2	12	10	PISTON	1076	n/a	n/a	0	0	0
2291.3203125	n/a	REC_WORD	4692624	wordpools/wasnorm_wordpool_576.txt	LTP355	ltpFR2	12	10	BACON	67	n/a	n/a	0	0	0
2291.998046875	n/a	REC_WORD	4694012	wordpools/wasnorm_wordpool_576.txt	LTP355	ltpFR2	12	10	TREAT	1501	n/a	n/a	0	0	0
2292.67431640625	n/a	REC_WORD	4695397	wordpools/wasnorm_wordpool_576.txt	LTP355	ltpFR2	12	10	TRACTOR	1493	n/a	n/a	0	0	0
2293.7802734375	n/a	REC_WORD	4697662	wordpools/wasnorm_wordpool_576.txt	LTP355	ltpFR2	12	10	SHELTER	1282	n/a	n/a	0	0	0
2295.17529296875	n/a	REC_WORD	4700519	wordpools/wasnorm_wordpool_576.txt	LTP355	ltpFR2	12	10	MESSAGE	888	n/a	n/a	0	0	0
2296.21533203125	n/a	REC_WORD	4702649	wordpools/wasnorm_wordpool_576.txt	LTP355	ltpFR2	12	10	RELISH	1183	n/a	n/a	0	0	0
2350.4248046875	n/a	WORD	4813670	wordpools/wasnorm_wordpool_576.txt	LTP355	ltpFR2	12	11	SERVANT	1271	n/a	n/a	0	0	0
2353.189453125	n/a	WORD	4819332	wordpools/wasnorm_wordpool_576.txt	LTP355	ltpFR2	12	11	CRITIC	410	n/a	n/a	0	0	0
2355.65478515625	n/a	WORD	4824381	wordpools/wasnorm_wordpool_576.txt	LTP355	ltpFR2	12	11	ACTOR	5	n/a	n/a	0	0	0
2358.13671875	n/a	WORD	4829464	wordpools/wasnorm_wordpool_576.txt	LTP355	ltpFR2	12	11	FLESH	579	n/a	n/a	0	0	0
2360.6025390625	n/a	WORD	4834514	wordpools/wasnorm_wordpool_576.txt	LTP355	ltpFR2	12	11	PLUTO	1092	n/a	n/a	0	0	0
2363.41748046875	n/a	WORD	4840279	wordpools/wasnorm_wordpool_576.txt	LTP355	ltpFR2	12	11	BUBBLE	183	n/a	n/a	0	0	0
2365.99951171875	n/a	WORD	4845567	wordpools/wasnorm_wordpool_576.txt	LTP355	ltpFR2	12	11	WASHER	1592	n/a	n/a	0	0	0
2368.44873046875	n/a	WORD	4850583	wordpools/wasnorm_wordpool_576.txt	LTP355	ltpFR2	12	11	TRANSPLANT	1496	n/a	n/a	0	0	0
2371.2138671875	n/a	WORD	4856246	wordpools/wasnorm_wordpool_576.txt	LTP355	ltpFR2	12	11	DONOR	485	n/a	n/a	0	0	0
2373.6455078125	n/a	WORD	4861226	wordpools/wasnorm_wordpool_576.txt	LTP355	ltpFR2	12	11	FILM	565	n/a	n/a	0	0	0
2376.4619140625	n/a	WORD	4866994	wordpools/wasnorm_wordpool_576.txt	LTP355	ltpFR2	12	11	COCOON	339	n/a	n/a	0	0	0
2379.0439453125	n/a	WORD	4872282	wordpools/wasnorm_wordpool_576.txt	LTP355	ltpFR2	12	11	HATCHET	691	n/a	n/a	0	0	0
2381.8427734375	n/a	WORD	4878014	wordpools/wasnorm_wordpool_576.txt	LTP355	ltpFR2	12	11	PIGMENT	1066	n/a	n/a	0	0	0
2384.4736328125	n/a	WORD	4883402	wordpools/wasnorm_wordpool_576.txt	LTP355	ltpFR2	12	11	VIKING	1565	n/a	n/a	0	0	0
2387.27294921875	n/a	WORD	4889135	wordpools/wasnorm_wordpool_576.txt	LTP355	ltpFR2	12	11	PASSAGE	1019	n/a	n/a	0	0	0
2389.82275390625	n/a	WORD	4894357	wordpools/wasnorm_wordpool_576.txt	LTP355	ltpFR2	12	11	STICKER	1382	n/a	n/a	0	0	0
2392.52001953125	n/a	WORD	4899881	wordpools/wasnorm_wordpool_576.txt	LTP355	ltpFR2	12	11	HOUND	724	n/a	n/a	0	0	0
2395.3017578125	n/a	WORD	4905578	wordpools/wasnorm_wordpool_576.txt	LTP355	ltpFR2	12	11	FLEET	578	n/a	n/a	0	0	0
2398.06787109375	n/a	WORD	4911243	wordpools/wasnorm_wordpool_576.txt	LTP355	ltpFR2	12	11	GOBLIN	645	n/a	n/a	0	0	0
2400.7509765625	n/a	WORD	4916738	wordpools/wasnorm_wordpool_576.txt	LTP355	ltpFR2	12	11	PERCH	1048	n/a	n/a	0	0	0
2403.19775390625	n/a	WORD	4921749	wordpools/wasnorm_wordpool_576.txt	LTP355	ltpFR2	12	11	ARMY	39	n/a	n/a	0	0	0
2405.73095703125	n/a	WORD	4926937	wordpools/wasnorm_wordpool_576.txt	LTP355	ltpFR2	12	11	SWORD	1423	n/a	n/a	0	0	0
2408.2958984375	n/a	WORD	4932190	wordpools/wasnorm_wordpool_576.txt	LTP355	ltpFR2	12	11	WORLD	1622	n/a	n/a	0	0	0
2411.06103515625	n/a	WORD	4937853	wordpools/wasnorm_wordpool_576.txt	LTP355	ltpFR2	12	11	VIRUS	1572	n/a	n/a	0	0	0
2412.6767578125	n/a	START	4941162	n/a	LTP355	ltpFR2	12	n/a	n/a	n/a	15	n/a	n/a	n/a	n/a
2413.76416015625	n/a	DISTRACTOR	4943389	n/a	LTP355	ltpFR2	12	11	n/a	n/a	n/a	n/a	0	0	0
2413.77685546875	n/a	PROB	4943415	n/a	LTP355	ltpFR2	12	n/a	n/a	n/a	15	22	7	6	9
2415.7431640625	n/a	PROB	4947442	n/a	LTP355	ltpFR2	12	n/a	n/a	n/a	15	14	1	5	8
2417.3408203125	n/a	PROB	4950714	n/a	LTP355	ltpFR2	12	n/a	n/a	n/a	15	12	5	5	2
2418.35791015625	n/a	PROB	4952797	n/a	LTP355	ltpFR2	12	n/a	n/a	n/a	15	21	9	6	6
2419.72509765625	n/a	PROB	4955597	n/a	LTP355	ltpFR2	12	n/a	n/a	n/a	15	24	9	7	8
2422.072265625	n/a	PROB	4960404	n/a	LTP355	ltpFR2	12	n/a	n/a	n/a	15	14	6	7	1
2423.8720703125	n/a	PROB	4964090	n/a	LTP355	ltpFR2	12	n/a	n/a	n/a	15	6	2	1	3
2425.12109375	n/a	PROB	4966648	n/a	LTP355	ltpFR2	12	n/a	n/a	n/a	15	12	4	2	4
2427.453125	n/a	PROB	4971424	n/a	LTP355	ltpFR2	12	n/a	n/a	n/a	15	16	6	5	5
2430.98486328125	n/a	PROB	4978657	n/a	LTP355	ltpFR2	12	n/a	n/a	n/a	15	10	6	1	3
2432.8681640625	n/a	PROB	4982514	n/a	LTP355	ltpFR2	12	n/a	n/a	n/a	15	21	7	8	6
2434.666015625	n/a	PROB	4986196	n/a	LTP355	ltpFR2	12	n/a	n/a	n/a	15	18	1	9	8
2435.97900390625	n/a	STOP	4988885	n/a	LTP355	ltpFR2	12	n/a	n/a	n/a	15	n/a	n/a	n/a	n/a
2438.46533203125	n/a	REC_START	4993977	n/a	LTP355	ltpFR2	12	11	n/a	n/a	n/a	n/a	0	0	0
2441.84326171875	n/a	REC_WORD	5000895	wordpools/wasnorm_wordpool_576.txt	LTP355	ltpFR2	12	11	ARMY	39	n/a	n/a	0	0	0
2445.50927734375	n/a	REC_WORD	5008403	wordpools/wasnorm_wordpool_576.txt	LTP355	ltpFR2	12	11	SWORD	1423	n/a	n/a	0	0	0
2446.30224609375	n/a	REC_WORD	5010027	wordpools/wasnorm_wordpool_576.txt	LTP355	ltpFR2	12	11	GOBLIN	645	n/a	n/a	0	0	0
2450.54541015625	n/a	REC_WORD	5018717	wordpools/wasnorm_wordpool_576.txt	LTP355	ltpFR2	12	11	SERVANT	1271	n/a	n/a	0	0	0
2451.36328125	n/a	REC_WORD	5020392	wordpools/wasnorm_wordpool_576.txt	LTP355	ltpFR2	12	11	CRITIC	410	n/a	n/a	0	0	0
2451.951171875	n/a	REC_WORD	5021596	wordpools/wasnorm_wordpool_576.txt	LTP355	ltpFR2	12	11	FLESH	579	n/a	n/a	0	0	0
2452.79443359375	n/a	REC_WORD	5023323	wordpools/wasnorm_wordpool_576.txt	LTP355	ltpFR2	12	11	ACTOR	5	n/a	n/a	0	0	0
2454.9453125	n/a	REC_WORD	5027728	wordpools/wasnorm_wordpool_576.txt	LTP355	ltpFR2	12	11	FILM	565	n/a	n/a	0	0	0
2456.09423828125	n/a	REC_WORD	5030081	wordpools/wasnorm_wordpool_576.txt	LTP355	ltpFR2	12	11	COCOON	339	n/a	n/a	0	0	0
2456.748046875	n/a	REC_WORD	5031420	wordpools/wasnorm_wordpool_576.txt	LTP355	ltpFR2	12	11	HATCHET	691	n/a	n/a	0	0	0
2457.576171875	n/a	REC_WORD	5033116	wordpools/wasnorm_wordpool_576.txt	LTP355	ltpFR2	12	11	PIGMENT	1066	n/a	n/a	0	0	0
2458.3193359375	n/a	REC_WORD	5034638	wordpools/wasnorm_wordpool_576.txt	LTP355	ltpFR2	12	11	VIKING	1565	n/a	n/a	0	0	0
2528.90380859375	n/a	DISTRACTOR	5179195	n/a	LTP355	ltpFR2	12	12	n/a	n/a	n/a	n/a	0	0	0
2528.90380859375	n/a	START	5179195	n/a	LTP355	ltpFR2	12	n/a	n/a	n/a	16	n/a	n/a	n/a	n/a
2528.919921875	n/a	PROB	5179228	n/a	LTP355	ltpFR2	12	n/a	n/a	n/a	16	14	3	6	5
2530.9189453125	n/a	PROB	5183322	n/a	LTP355	ltpFR2	12	n/a	n/a	n/a	16	15	7	6	2
2532.8359375	n/a	PROB	5187248	n/a	LTP355	ltpFR2	12	n/a	n/a	n/a	16	20	7	5	8
2535.767578125	n/a	PROB	5193252	n/a	LTP355	ltpFR2	12	n/a	n/a	n/a	16	8	2	1	5
2537.2158203125	n/a	PROB	5196218	n/a	LTP355	ltpFR2	12	n/a	n/a	n/a	16	7	3	3	1
2538.61474609375	n/a	PROB	5199083	n/a	LTP355	ltpFR2	12	n/a	n/a	n/a	16	11	6	2	3
2540.91357421875	n/a	PROB	5203791	n/a	LTP355	ltpFR2	12	n/a	n/a	n/a	16	21	3	9	9
2542.24658203125	n/a	PROB	5206521	n/a	LTP355	ltpFR2	12	n/a	n/a	n/a	16	19	9	5	5
2543.49560546875	n/a	PROB	5209079	n/a	LTP355	ltpFR2	12	n/a	n/a	n/a	16	9	4	3	2
2544.82958984375	n/a	PROB	5211811	n/a	LTP355	ltpFR2	12	n/a	n/a	n/a	16	15	1	5	9
2546.044921875	n/a	PROB	5214300	n/a	LTP355	ltpFR2	12	n/a	n/a	n/a	16	26	9	9	8
2547.61083984375	n/a	PROB	5217507	n/a	LTP355	ltpFR2	12	n/a	n/a	n/a	16	14	1	8	5
2549.009765625	n/a	PROB	5220372	n/a	LTP355	ltpFR2	12	n/a	n/a	n/a	16	13	3	2	8
2550.259765625	n/a	PROB	5222932	n/a	LTP355	ltpFR2	12	n/a	n/a	n/a	16	12	6	5	1
2552.02783203125	n/a	STOP	5226553	n/a	LTP355	ltpFR2	12	n/a	n/a	n/a	16	n/a	n/a	n/a	n/a
2553.841796875	n/a	WORD	5230268	wordpools/wasnorm_wordpool_576.txt	LTP355	ltpFR2	12	12	SUMMIT	1405	n/a	n/a	0	0	0
2556.60693359375	n/a	WORD	5235931	wordpools/wasnorm_wordpool_576.txt	LTP355	ltpFR2	12	12	QUEEN	1149	n/a	n/a	0	0	0
2559.2548828125	n/a	WORD	5241354	wordpools/wasnorm_wordpool_576.txt	LTP355	ltpFR2	12	12	GALLON	618	n/a	n/a	0	0	0
2562.02001953125	n/a	WORD	5247017	wordpools/wasnorm_wordpool_576.txt	LTP355	ltpFR2	12	12	BLENDER	136	n/a	n/a	0	0	0
2564.552734375	n/a	WORD	5252204	wordpools/wasnorm_wordpool_576.txt	LTP355	ltpFR2	12	12	FRIEND	606	n/a	n/a	0	0	0
2567.31787109375	n/a	WORD	5257867	wordpools/wasnorm_wordpool_576.txt	LTP355	ltpFR2	12	12	DONKEY	484	n/a	n/a	0	0	0
2570.10009765625	n/a	WORD	5263565	wordpools/wasnorm_wordpool_576.txt	LTP355	ltpFR2	12	12	GROUND	666	n/a	n/a	0	0	0
2572.69921875	n/a	WORD	5268888	wordpools/wasnorm_wordpool_576.txt	LTP355	ltpFR2	12	12	NECKLACE	940	n/a	n/a	0	0	0
2575.28125	n/a	WORD	5274176	wordpools/wasnorm_wordpool_576.txt	LTP355	ltpFR2	12	12	GRILL	661	n/a	n/a	0	0	0
2577.99609375	n/a	WORD	5279736	wordpools/wasnorm_wordpool_576.txt	LTP355	ltpFR2	12	12	LUMBER	848	n/a	n/a	0	0	0
2580.44482421875	n/a	WORD	5284751	wordpools/wasnorm_wordpool_576.txt	LTP355	ltpFR2	12	12	FIREPLACE	570	n/a	n/a	0	0	0
2583.2099609375	n/a	WORD	5290414	wordpools/wasnorm_wordpool_576.txt	LTP355	ltpFR2	12	12	LUGGAGE	847	n/a	n/a	0	0	0
2585.84326171875	n/a	WORD	5295807	wordpools/wasnorm_wordpool_576.txt	LTP355	ltpFR2	12	12	SISTER	1312	n/a	n/a	0	0	0
2588.27392578125	n/a	WORD	5300785	wordpools/wasnorm_wordpool_576.txt	LTP355	ltpFR2	12	12	BANQUET	86	n/a	n/a	0	0	0
2590.84033203125	n/a	WORD	5306041	wordpools/wasnorm_wordpool_576.txt	LTP355	ltpFR2	12	12	CHEST	295	n/a	n/a	0	0	0
2593.6552734375	n/a	WORD	5311806	wordpools/wasnorm_wordpool_576.txt	LTP355	ltpFR2	12	12	CRUTCH	417	n/a	n/a	0	0	0
2596.453125	n/a	WORD	5317536	wordpools/wasnorm_wordpool_576.txt	LTP355	ltpFR2	12	12	JAPAN	749	n/a	n/a	0	0	0
2599.10205078125	n/a	WORD	5322961	wordpools/wasnorm_wordpool_576.txt	LTP355	ltpFR2	12	12	CASKET	255	n/a	n/a	0	0	0
2601.583984375	n/a	WORD	5328044	wordpools/wasnorm_wordpool_576.txt	LTP355	ltpFR2	12	12	PLAID	1080	n/a	n/a	0	0	0
2604.35009765625	n/a	WORD	5333709	wordpools/wasnorm_wordpool_576.txt	LTP355	ltpFR2	12	12	SHIRT	1287	n/a	n/a	0	0	0
2607.09814453125	n/a	WORD	5339337	wordpools/wasnorm_wordpool_576.txt	LTP355	ltpFR2	12	12	ROBOT	1200	n/a	n/a	0	0	0
2609.68017578125	n/a	WORD	5344625	wordpools/wasnorm_wordpool_576.txt	LTP355	ltpFR2	12	12	JUNGLE	764	n/a	n/a	0	0	0
2612.3623046875	n/a	WORD	5350118	wordpools/wasnorm_wordpool_576.txt	LTP355	ltpFR2	12	12	SMOG	1330	n/a	n/a	0	0	0
2614.8291015625	n/a	WORD	5355170	wordpools/wasnorm_wordpool_576.txt	LTP355	ltpFR2	12	12	SUITCASE	1403	n/a	n/a	0	0	0
2616.4443359375	n/a	START	5358478	n/a	LTP355	ltpFR2	12	n/a	n/a	n/a	17	n/a	n/a	n/a	n/a
2617.4541015625	n/a	DISTRACTOR	5360546	n/a	LTP355	ltpFR2	12	12	n/a	n/a	n/a	n/a	0	0	0
2617.46044921875	n/a	PROB	5360559	n/a	LTP355	ltpFR2	12	n/a	n/a	n/a	17	18	8	5	5
2619.29248046875	n/a	PROB	5364311	n/a	LTP355	ltpFR2	12	n/a	n/a	n/a	17	13	8	2	3
2620.47509765625	n/a	PROB	5366733	n/a	LTP355	ltpFR2	12	n/a	n/a	n/a	17	12	1	4	7
2622.107421875	n/a	PROB	5370076	n/a	LTP355	ltpFR2	12	n/a	n/a	n/a	17	16	9	5	2
2623.64013671875	n/a	PROB	5373215	n/a	LTP355	ltpFR2	12	n/a	n/a	n/a	17	13	3	8	2
2625.9052734375	n/a	PROB	5377854	n/a	LTP355	ltpFR2	12	n/a	n/a	n/a	17	16	5	4	7
2627.33837890625	n/a	PROB	5380789	n/a	LTP355	ltpFR2	12	n/a	n/a	n/a	17	10	3	2	5
2628.5712890625	n/a	PROB	5383314	n/a	LTP355	ltpFR2	12	n/a	n/a	n/a	17	15	8	6	1
2630.30322265625	n/a	PROB	5386861	n/a	LTP355	ltpFR2	12	n/a	n/a	n/a	17	14	6	3	5
2632.03662109375	n/a	PROB	5390411	n/a	LTP355	ltpFR2	12	n/a	n/a	n/a	17	17	6	5	6
2633.951171875	n/a	PROB	5394332	n/a	LTP355	ltpFR2	12	n/a	n/a	n/a	17	12	3	4	5
2635.3173828125	n/a	PROB	5397130	n/a	LTP355	ltpFR2	12	n/a	n/a	n/a	17	12	5	6	1
2636.46728515625	n/a	PROB	5399485	n/a	LTP355	ltpFR2	12	n/a	n/a	n/a	17	17	6	7	4
2638.16650390625	n/a	PROB	5402965	n/a	LTP355	ltpFR2	12	n/a	n/a	n/a	17	10	4	5	1
2639.34033203125	n/a	STOP	5405369	n/a	LTP355	ltpFR2	12	n/a	n/a	n/a	17	n/a	n/a	n/a	n/a
2642.33154296875	n/a	REC_START	5411495	n/a	LTP355	ltpFR2	12	12	n/a	n/a	n/a	n/a	0	0	0
2643.78759765625	n/a	REC_WORD	5414477	wordpools/wasnorm_wordpool_576.txt	LTP355	ltpFR2	12	12	SUMMIT	1405	n/a	n/a	0	0	0
2644.62646484375	n/a	REC_WORD	5416195	wordpools/wasnorm_wordpool_576.txt	LTP355	ltpFR2	12	12	QUEEN	1149	n/a	n/a	0	0	0
2645.42626953125	n/a	REC_WORD	5417833	wordpools/wasnorm_wordpool_576.txt	LTP355	ltpFR2	12	12	GALLON	618	n/a	n/a	0	0	0
2647.3037109375	n/a	REC_WORD	5421678	wordpools/wasnorm_wordpool_576.txt	LTP355	ltpFR2	12	12	BLENDER	136	n/a	n/a	0	0	0
2652.08154296875	n/a	REC_WORD	5431463	wordpools/wasnorm_wordpool_576.txt	LTP355	ltpFR2	12	12	GROUND	666	n/a	n/a	0	0	0
2652.642578125	n/a	REC_WORD	5432612	wordpools/wasnorm_wordpool_576.txt	LTP355	ltpFR2	12	12	DONKEY	484	n/a	n/a	0	0	0
2653.25830078125	n/a	REC_WORD	5433873	wordpools/wasnorm_wordpool_576.txt	LTP355	ltpFR2	12	12	FRIEND	606	n/a	n/a	0	0	0
2658.19970703125	n/a	REC_WORD	5443993	wordpools/wasnorm_wordpool_576.txt	LTP355	ltpFR2	12	12	NECKLACE	940	n/a	n/a	0	0	0
2658.8876953125	n/a	REC_WORD	5445402	wordpools/wasnorm_wordpool_576.txt	LTP355	ltpFR2	12	12	SISTER	1312	n/a	n/a	0	0	0
2659.728515625	n/a	REC_WORD	5447124	wordpools/wasnorm_wordpool_576.txt	LTP355	ltpFR2	12	12	BANQUET	86	n/a	n/a	0	0	0
2661.228515625	n/a	REC_WORD	5450196	wordpools/wasnorm_wordpool_576.txt	LTP355	ltpFR2	12	12	PLAID	1080	n/a	n/a	0	0	0
2661.79443359375	n/a	REC_WORD	5451355	wordpools/wasnorm_wordpool_576.txt	LTP355	ltpFR2	12	12	SHIRT	1287	n/a	n/a	0	0	0
2667.8427734375	n/a	REC_WORD	5463742	wordpools/wasnorm_wordpool_576.txt	LTP355	ltpFR2	12	12	CASKET	255	n/a	n/a	0	0	0
2732.7880859375	n/a	DISTRACTOR	5596750	n/a	LTP355	ltpFR2	12	13	n/a	n/a	n/a	n/a	0	0	0
2732.7880859375	n/a	START	5596750	n/a	LTP355	ltpFR2	12	n/a	n/a	n/a	18	n/a	n/a	n/a	n/a
2732.80419921875	n/a	PROB	5596783	n/a	LTP355	ltpFR2	12	n/a	n/a	n/a	18	16	5	7	4
2734.65185546875	n/a	PROB	5600567	n/a	LTP355	ltpFR2	12	n/a	n/a	n/a	18	19	7	6	6
2736.48486328125	n/a	PROB	5604321	n/a	LTP355	ltpFR2	12	n/a	n/a	n/a	18	17	6	6	5
2737.9169921875	n/a	PROB	5607254	n/a	LTP355	ltpFR2	12	n/a	n/a	n/a	18	19	9	3	7
2739.30029296875	n/a	PROB	5610087	n/a	LTP355	ltpFR2	12	n/a	n/a	n/a	18	15	6	8	1
2740.76708984375	n/a	PROB	5613091	n/a	LTP355	ltpFR2	12	n/a	n/a	n/a	18	19	6	4	9
2741.94921875	n/a	PROB	5615512	n/a	LTP355	ltpFR2	12	n/a	n/a	n/a	18	23	9	6	8
2744.3642578125	n/a	PROB	5620458	n/a	LTP355	ltpFR2	12	n/a	n/a	n/a	18	11	1	8	2
2745.84814453125	n/a	PROB	5623497	n/a	LTP355	ltpFR2	12	n/a	n/a	n/a	18	17	3	8	6
2747.76416015625	n/a	PROB	5627421	n/a	LTP355	ltpFR2	12	n/a	n/a	n/a	18	8	4	3	1
2749.0791015625	n/a	PROB	5630114	n/a	LTP355	ltpFR2	12	n/a	n/a	n/a	18	20	8	5	7
2750.67822265625	n/a	PROB	5633389	n/a	LTP355	ltpFR2	12	n/a	n/a	n/a	18	11	6	3	2
2752.26025390625	n/a	PROB	5636629	n/a	LTP355	ltpFR2	12	n/a	n/a	n/a	18	10	1	2	7
2753.861328125	n/a	PROB	5639908	n/a	LTP355	ltpFR2	12	n/a	n/a	n/a	18	15	4	2	9
2756.708984375	n/a	STOP	5645740	n/a	LTP355	ltpFR2	12	n/a	n/a	n/a	18	n/a	n/a	n/a	n/a
2757.7919921875	n/a	WORD	5647958	wordpools/wasnorm_wordpool_576.txt	LTP355	ltpFR2	12	13	DENTIST	447	n/a	n/a	0	0	0
2760.5234375	n/a	WORD	5653552	wordpools/wasnorm_wordpool_576.txt	LTP355	ltpFR2	12	13	LAGOON	795	n/a	n/a	0	0	0
2763.08837890625	n/a	WORD	5658805	wordpools/wasnorm_wordpool_576.txt	LTP355	ltpFR2	12	13	PENGUIN	1044	n/a	n/a	0	0	0
2765.904296875	n/a	WORD	5664572	wordpools/wasnorm_wordpool_576.txt	LTP355	ltpFR2	12	13	TRENCH	1503	n/a	n/a	0	0	0
2768.71923828125	n/a	WORD	5670337	wordpools/wasnorm_wordpool_576.txt	LTP355	ltpFR2	12	13	POSSUM	1112	n/a	n/a	0	0	0
2771.38427734375	n/a	WORD	5675795	wordpools/wasnorm_wordpool_576.txt	LTP355	ltpFR2	12	13	BLADE	134	n/a	n/a	0	0	0
2774.1494140625	n/a	WORD	5681458	wordpools/wasnorm_wordpool_576.txt	LTP355	ltpFR2	12	13	SCRIBBLE	1256	n/a	n/a	0	0	0
2776.8662109375	n/a	WORD	5687022	wordpools/wasnorm_wordpool_576.txt	LTP355	ltpFR2	12	13	MARSH	874	n/a	n/a	0	0	0
2779.68017578125	n/a	WORD	5692785	wordpools/wasnorm_wordpool_576.txt	LTP355	ltpFR2	12	13	TYPIST	1532	n/a	n/a	0	0	0
2782.4453125	n/a	WORD	5698448	wordpools/wasnorm_wordpool_576.txt	LTP355	ltpFR2	12	13	ICEBERG	731	n/a	n/a	0	0	0
2784.87939453125	n/a	WORD	5703433	wordpools/wasnorm_wordpool_576.txt	LTP355	ltpFR2	12	13	DIME	466	n/a	n/a	0	0	0
2787.6591796875	n/a	WORD	5709126	wordpools/wasnorm_wordpool_576.txt	LTP355	ltpFR2	12	13	DAISY	435	n/a	n/a	0	0	0
2790.34130859375	n/a	WORD	5714619	wordpools/wasnorm_wordpool_576.txt	LTP355	ltpFR2	12	13	OUTDOORS	987	n/a	n/a	0	0	0
2792.84130859375	n/a	WORD	5719739	wordpools/wasnorm_wordpool_576.txt	LTP355	ltpFR2	12	13	BELLY	119	n/a	n/a	0	0	0
2795.556640625	n/a	WORD	5725300	wordpools/wasnorm_wordpool_576.txt	LTP355	ltpFR2	12	13	ULCER	1533	n/a	n/a	0	0	0
2798.12158203125	n/a	WORD	5730553	wordpools/wasnorm_wordpool_576.txt	LTP355	ltpFR2	12	13	CARRIAGE	248	n/a	n/a	0	0	0
2800.75439453125	n/a	WORD	5735945	wordpools/wasnorm_wordpool_576.txt	LTP355	ltpFR2	12	13	SNAIL	1332	n/a	n/a	0	0	0
2803.568359375	n/a	WORD	5741708	wordpools/wasnorm_wordpool_576.txt	LTP355	ltpFR2	12	13	BROOK	177	n/a	n/a	0	0	0
2806.33349609375	n/a	WORD	5747371	wordpools/wasnorm_wordpool_576.txt	LTP355	ltpFR2	12	13	FIREMAN	569	n/a	n/a	0	0	0
2808.8994140625	n/a	WORD	5752626	wordpools/wasnorm_wordpool_576.txt	LTP355	ltpFR2	12	13	LIZARD	834	n/a	n/a	0	0	0
2811.66455078125	n/a	WORD	5758289	wordpools/wasnorm_wordpool_576.txt	LTP355	ltpFR2	12	13	BURGLAR	200	n/a	n/a	0	0	0
2814.36376953125	n/a	WORD	5763817	wordpools/wasnorm_wordpool_576.txt	LTP355	ltpFR2	12	13	ROBBER	1197	n/a	n/a	0	0	0
2816.91259765625	n/a	WORD	5769037	wordpools/wasnorm_wordpool_576.txt	LTP355	ltpFR2	12	13	FRAME	600	n/a	n/a	0	0	0
2819.49462890625	n/a	WORD	5774325	wordpools/wasnorm_wordpool_576.txt	LTP355	ltpFR2	12	13	SADDLE	1221	n/a	n/a	0	0	0
2821.11083984375	n/a	START	5777635	n/a	LTP355	ltpFR2	12	n/a	n/a	n/a	19	n/a	n/a	n/a	n/a
2822.0908203125	n/a	DISTRACTOR	5779642	n/a	LTP355	ltpFR2	12	13	n/a	n/a	n/a	n/a	0	0	0
2822.0927734375	n/a	PROB	5779646	n/a	LTP355	ltpFR2	12	n/a	n/a	n/a	19	18	5	6	7
2824.62451171875	n/a	PROB	5784831	n/a	LTP355	ltpFR2	12	n/a	n/a	n/a	19	18	4	9	5
2826.12451171875	n/a	PROB	5787903	n/a	LTP355	ltpFR2	12	n/a	n/a	n/a	19	9	5	3	1
2827.4736328125	n/a	PROB	5790666	n/a	LTP355	ltpFR2	12	n/a	n/a	n/a	19	15	5	5	5
2828.70654296875	n/a	PROB	5793191	n/a	LTP355	ltpFR2	12	n/a	n/a	n/a	19	13	4	2	7
2830.4228515625	n/a	PROB	5796706	n/a	LTP355	ltpFR2	12	n/a	n/a	n/a	19	19	2	8	9
2831.638671875	n/a	PROB	5799196	n/a	LTP355	ltpFR2	12	n/a	n/a	n/a	19	15	3	7	5
2832.771484375	n/a	PROB	5801516	n/a	LTP355	ltpFR2	12	n/a	n/a	n/a	19	18	7	4	7
2834.20361328125	n/a	PROB	5804449	n/a	LTP355	ltpFR2	12	n/a	n/a	n/a	19	13	2	6	5
2836.06982421875	n/a	PROB	5808271	n/a	LTP355	ltpFR2	12	n/a	n/a	n/a	19	14	7	2	5
2837.95166015625	n/a	PROB	5812125	n/a	LTP355	ltpFR2	12	n/a	n/a	n/a	19	9	1	4	4
2839.1845703125	n/a	PROB	5814650	n/a	LTP355	ltpFR2	12	n/a	n/a	n/a	19	21	7	7	7
2840.55078125	n/a	PROB	5817448	n/a	LTP355	ltpFR2	12	n/a	n/a	n/a	19	10	1	4	5
2843.70166015625	n/a	STOP	5823901	n/a	LTP355	ltpFR2	12	n/a	n/a	n/a	19	n/a	n/a	n/a	n/a
2846.94775390625	n/a	REC_START	5830549	n/a	LTP355	ltpFR2	12	13	n/a	n/a	n/a	n/a	0	0	0
2848.4228515625	n/a	REC_WORD	5833570	wordpools/wasnorm_wordpool_576.txt	LTP355	ltpFR2	12	13	DENTIST	447	n/a	n/a	0	0	0
2849.16064453125	n/a	REC_WORD	5835081	wordpools/wasnorm_wordpool_576.txt	LTP355	ltpFR2	12	13	LAGOON	795	n/a	n/a	0	0	0
2850.94384765625	n/a	REC_WORD	5838733	wordpools/wasnorm_wordpool_576.txt	LTP355	ltpFR2	12	13	PENGUIN	1044	n/a	n/a	0	0	0
2854.31396484375	n/a	REC_WORD	5845635	wordpools/wasnorm_wordpool_576.txt	LTP355	ltpFR2	12	13	POSSUM	1112	n/a	n/a	0	0	0
2856.169921875	n/a	REC_WORD	5849436	wordpools/wasnorm_wordpool_576.txt	LTP355	ltpFR2	12	13	MARSH	874	n/a	n/a	0	0	0
2856.7548828125	n/a	REC_WORD	5850634	wordpools/wasnorm_wordpool_576.txt	LTP355	ltpFR2	12	13	SWAMP	1416	n/a	n/a	0	0	0
2868.8369140625	n/a	REC_WORD	5875378	wordpools/wasnorm_wordpool_576.txt	LTP355	ltpFR2	12	13	BLADE	134	n/a	n/a	0	0	0
2869.39794921875	n/a	REC_WORD	5876527	wordpools/wasnorm_wordpool_576.txt	LTP355	ltpFR2	12	13	SCRIBBLE	1256	n/a	n/a	0	0	0
2937.38623046875	n/a	DISTRACTOR	6015767	n/a	LTP355	ltpFR2	12	14	n/a	n/a	n/a	n/a	0	0	0
2937.38623046875	n/a	START	6015767	n/a	LTP355	ltpFR2	12	n/a	n/a	n/a	20	n/a	n/a	n/a	n/a
2937.4033203125	n/a	PROB	6015802	n/a	LTP355	ltpFR2	12	n/a	n/a	n/a	20	13	9	3	1
2938.88623046875	n/a	PROB	6018839	n/a	LTP355	ltpFR2	12	n/a	n/a	n/a	20	13	5	4	4
2940.38525390625	n/a	PROB	6021909	n/a	LTP355	ltpFR2	12	n/a	n/a	n/a	20	18	9	8	1
2941.78515625	n/a	PROB	6024776	n/a	LTP355	ltpFR2	12	n/a	n/a	n/a	20	11	1	3	7
2942.83447265625	n/a	PROB	6026925	n/a	LTP355	ltpFR2	12	n/a	n/a	n/a	20	13	5	4	4
2944.18359375	n/a	PROB	6029688	n/a	LTP355	ltpFR2	12	n/a	n/a	n/a	20	18	8	3	7
2945.3994140625	n/a	PROB	6032178	n/a	LTP355	ltpFR2	12	n/a	n/a	n/a	20	11	1	2	8
2946.849609375	n/a	PROB	6035148	n/a	LTP355	ltpFR2	12	n/a	n/a	n/a	20	10	4	3	3
2948.71435546875	n/a	PROB	6038967	n/a	LTP355	ltpFR2	12	n/a	n/a	n/a	20	9	6	1	2
2952.0625	n/a	PROB	6045824	n/a	LTP355	ltpFR2	12	n/a	n/a	n/a	20	13	2	2	9
2953.1953125	n/a	PROB	6048144	n/a	LTP355	ltpFR2	12	n/a	n/a	n/a	20	13	3	6	4
2954.4287109375	n/a	PROB	6050670	n/a	LTP355	ltpFR2	12	n/a	n/a	n/a	20	16	9	4	3
2956.46044921875	n/a	PROB	6054831	n/a	LTP355	ltpFR2	12	n/a	n/a	n/a	20	4	2	1	1
2957.42626953125	n/a	PROB	6056809	n/a	LTP355	ltpFR2	12	n/a	n/a	n/a	20	20	5	9	6
2959.00927734375	n/a	PROB	6060051	n/a	LTP355	ltpFR2	12	n/a	n/a	n/a	20	18	6	7	5
2961.12646484375	n/a	STOP	6064387	n/a	LTP355	ltpFR2	12	n/a	n/a	n/a	20	n/a	n/a	n/a	n/a
2962.40771484375	n/a	WORD	6067011	wordpools/wasnorm_wordpool_576.txt	LTP355	ltpFR2	12	14	QUAIL	1147	n/a	n/a	0	0	0
2965.1064453125	n/a	WORD	6072538	wordpools/wasnorm_wordpool_576.txt	LTP355	ltpFR2	12	14	STAR	1373	n/a	n/a	0	0	0
2967.82275390625	n/a	WORD	6078101	wordpools/wasnorm_wordpool_576.txt	LTP355	ltpFR2	12	14	POSTAGE	1113	n/a	n/a	0	0	0
2970.38671875	n/a	WORD	6083352	wordpools/wasnorm_wordpool_576.txt	LTP355	ltpFR2	12	14	CAMEL	223	n/a	n/a	0	0	0
2973.16845703125	n/a	WORD	6089049	wordpools/wasnorm_wordpool_576.txt	LTP355	ltpFR2	12	14	TEMPLE	1448	n/a	n/a	0	0	0
2975.8857421875	n/a	WORD	6094614	wordpools/wasnorm_wordpool_576.txt	LTP355	ltpFR2	12	14	PREACHER	1119	n/a	n/a	0	0	0
2978.66650390625	n/a	WORD	6100309	wordpools/wasnorm_wordpool_576.txt	LTP355	ltpFR2	12	14	GLOBE	641	n/a	n/a	0	0	0
2981.11474609375	n/a	WORD	6105323	wordpools/wasnorm_wordpool_576.txt	LTP355	ltpFR2	12	14	DUST	508	n/a	n/a	0	0	0
2983.69677734375	n/a	WORD	6110611	wordpools/wasnorm_wordpool_576.txt	LTP355	ltpFR2	12	14	SILK	1307	n/a	n/a	0	0	0
2986.32861328125	n/a	WORD	6116001	wordpools/wasnorm_wordpool_576.txt	LTP355	ltpFR2	12	14	PASTRY	1022	n/a	n/a	0	0	0
2989.11083984375	n/a	WORD	6121699	wordpools/wasnorm_wordpool_576.txt	LTP355	ltpFR2	12	14	DINER	467	n/a	n/a	0	0	0
2991.9267578125	n/a	WORD	6127466	wordpools/wasnorm_wordpool_576.txt	LTP355	ltpFR2	12	14	CIGAR	308	n/a	n/a	0	0	0
2994.74267578125	n/a	WORD	6133233	wordpools/wasnorm_wordpool_576.txt	LTP355	ltpFR2	12	14	RIVER	1194	n/a	n/a	0	0	0
2997.45654296875	n/a	WORD	6138791	wordpools/wasnorm_wordpool_576.txt	LTP355	ltpFR2	12	14	BUCKET	184	n/a	n/a	0	0	0
3000.02294921875	n/a	WORD	6144047	wordpools/wasnorm_wordpool_576.txt	LTP355	ltpFR2	12	14	CORAL	378	n/a	n/a	0	0	0
3002.5546875	n/a	WORD	6149232	wordpools/wasnorm_wordpool_576.txt	LTP355	ltpFR2	12	14	TRUCK	1512	n/a	n/a	0	0	0
3005.13671875	n/a	WORD	6154520	wordpools/wasnorm_wordpool_576.txt	LTP355	ltpFR2	12	14	BOARD	143	n/a	n/a	0	0	0
3007.6689453125	n/a	WORD	6159706	wordpools/wasnorm_wordpool_576.txt	LTP355	ltpFR2	12	14	WOMAN	1620	n/a	n/a	0	0	0
3010.466796875	n/a	WORD	6165436	wordpools/wasnorm_wordpool_576.txt	LTP355	ltpFR2	12	14	ONION	977	n/a	n/a	0	0	0
3013.06591796875	n/a	WORD	6170759	wordpools/wasnorm_wordpool_576.txt	LTP355	ltpFR2	12	14	PEANUT	1032	n/a	n/a	0	0	0
3015.86572265625	n/a	WORD	6176493	wordpools/wasnorm_wordpool_576.txt	LTP355	ltpFR2	12	14	LACE	792	n/a	n/a	0	0	0
3018.56396484375	n/a	WORD	6182019	wordpools/wasnorm_wordpool_576.txt	LTP355	ltpFR2	12	14	CHAUFFEUR	283	n/a	n/a	0	0	0
3021.0947265625	n/a	WORD	6187202	wordpools/wasnorm_wordpool_576.txt	LTP355	ltpFR2	12	14	PRIMATE	1123	n/a	n/a	0	0	0
3023.72900390625	n/a	WORD	6192597	wordpools/wasnorm_wordpool_576.txt	LTP355	ltpFR2	12	14	WRIST	1626	n/a	n/a	0	0	0
3025.34375	n/a	START	6195904	n/a	LTP355	ltpFR2	12	n/a	n/a	n/a	21	n/a	n/a	n/a	n/a
3026.18701171875	n/a	DISTRACTOR	6197631	n/a	LTP355	ltpFR2	12	14	n/a	n/a	n/a	n/a	0	0	0
3026.19287109375	n/a	PROB	6197643	n/a	LTP355	ltpFR2	12	n/a	n/a	n/a	21	15	3	6	6
3028.091796875	n/a	PROB	6201532	n/a	LTP355	ltpFR2	12	n/a	n/a	n/a	21	17	6	3	8
3029.80908203125	n/a	PROB	6205049	n/a	LTP355	ltpFR2	12	n/a	n/a	n/a	21	21	9	6	6
3033.23974609375	n/a	PROB	6212075	n/a	LTP355	ltpFR2	12	n/a	n/a	n/a	21	14	4	2	8
3034.97216796875	n/a	PROB	6215623	n/a	LTP355	ltpFR2	12	n/a	n/a	n/a	21	9	2	4	3
3037.13818359375	n/a	PROB	6220059	n/a	LTP355	ltpFR2	12	n/a	n/a	n/a	21	18	6	8	4
3038.73779296875	n/a	PROB	6223335	n/a	LTP355	ltpFR2	12	n/a	n/a	n/a	21	17	6	9	2
3045.26708984375	n/a	PROB	6236707	n/a	LTP355	ltpFR2	12	n/a	n/a	n/a	21	6	1	3	2
3046.5830078125	n/a	PROB	6239402	n/a	LTP355	ltpFR2	12	n/a	n/a	n/a	21	14	4	7	3
3049.34423828125	n/a	STOP	6245057	n/a	LTP355	ltpFR2	12	n/a	n/a	n/a	21	n/a	n/a	n/a	n/a
3051.115234375	n/a	REC_START	6248684	n/a	LTP355	ltpFR2	12	14	n/a	n/a	n/a	n/a	0	0	0
3055.5380859375	n/a	REC_WORD	6257742	wordpools/wasnorm_wordpool_576.txt	LTP355	ltpFR2	12	14	QUAIL	1147	n/a	n/a	0	0	0
3056.25537109375	n/a	REC_WORD	6259211	wordpools/wasnorm_wordpool_576.txt	LTP355	ltpFR2	12	14	STAR	1373	n/a	n/a	0	0	0
3057.10791015625	n/a	REC_WORD	6260957	wordpools/wasnorm_wordpool_576.txt	LTP355	ltpFR2	12	14	POSTAGE	1113	n/a	n/a	0	0	0
3059.2041015625	n/a	REC_WORD	6265250	wordpools/wasnorm_wordpool_576.txt	LTP355	ltpFR2	12	14	WRIST	1626	n/a	n/a	0	0	0
3061.6279296875	n/a	REC_WORD	6270214	wordpools/wasnorm_wordpool_576.txt	LTP355	ltpFR2	12	14	TRUCK	1512	n/a	n/a	0	0	0
3062.39599609375	n/a	REC_WORD	6271787	wordpools/wasnorm_wordpool_576.txt	LTP355	ltpFR2	12	14	BOARD	143	n/a	n/a	0	0	0
3063.2392578125	n/a	REC_WORD	6273514	wordpools/wasnorm_wordpool_576.txt	LTP355	ltpFR2	12	14	WOMAN	1620	n/a	n/a	0	0	0
3064.22412109375	n/a	REC_WORD	6275531	wordpools/wasnorm_wordpool_576.txt	LTP355	ltpFR2	12	14	ONION	977	n/a	n/a	0	0	0
3074.13916015625	n/a	REC_WORD	6295837	wordpools/wasnorm_wordpool_576.txt	LTP355	ltpFR2	12	14	SILK	1307	n/a	n/a	0	0	0
3076.4443359375	n/a	REC_WORD	6300558	wordpools/wasnorm_wordpool_576.txt	LTP355	ltpFR2	12	14	LACE	792	n/a	n/a	0	0	0
3083.896484375	n/a	REC_WORD	6315820	wordpools/wasnorm_wordpool_576.txt	LTP355	ltpFR2	12	14	RIVER	1194	n/a	n/a	0	0	0
3085.50146484375	n/a	REC_WORD	6319107	wordpools/wasnorm_wordpool_576.txt	LTP355	ltpFR2	12	14	BUCKET	184	n/a	n/a	0	0	0
3086.283203125	n/a	REC_WORD	6320708	wordpools/wasnorm_wordpool_576.txt	LTP355	ltpFR2	12	14	CORAL	378	n/a	n/a	0	0	0
3115.8603515625	n/a	REC_WORD	6381282	wordpools/wasnorm_wordpool_576.txt	LTP355	ltpFR2	12	14	POSSUM	1112	n/a	n/a	0	0	0
3141.56982421875	n/a	DISTRACTOR	6433935	n/a	LTP355	ltpFR2	12	15	n/a	n/a	n/a	n/a	0	0	0
3141.56982421875	n/a	START	6433935	n/a	LTP355	ltpFR2	12	n/a	n/a	n/a	22	n/a	n/a	n/a	n/a
3141.5869140625	n/a	PROB	6433970	n/a	LTP355	ltpFR2	12	n/a	n/a	n/a	22	17	5	9	3
3143.53564453125	n/a	PROB	6437961	n/a	LTP355	ltpFR2	12	n/a	n/a	n/a	22	11	5	4	2
3145.267578125	n/a	PROB	6441508	n/a	LTP355	ltpFR2	12	n/a	n/a	n/a	22	13	5	1	7
3146.66748046875	n/a	PROB	6444375	n/a	LTP355	ltpFR2	12	n/a	n/a	n/a	22	8	2	2	4
3147.767578125	n/a	PROB	6446628	n/a	LTP355	ltpFR2	12	n/a	n/a	n/a	22	15	2	8	5
3149.24951171875	n/a	PROB	6449663	n/a	LTP355	ltpFR2	12	n/a	n/a	n/a	22	22	8	8	6
3151.11474609375	n/a	PROB	6453483	n/a	LTP355	ltpFR2	12	n/a	n/a	n/a	22	18	7	2	9
3152.69775390625	n/a	PROB	6456725	n/a	LTP355	ltpFR2	12	n/a	n/a	n/a	22	14	5	5	4
3154.046875	n/a	PROB	6459488	n/a	LTP355	ltpFR2	12	n/a	n/a	n/a	22	23	9	6	8
3157.41162109375	n/a	PROB	6466379	n/a	LTP355	ltpFR2	12	n/a	n/a	n/a	22	16	5	7	4
3158.87890625	n/a	PROB	6469384	n/a	LTP355	ltpFR2	12	n/a	n/a	n/a	22	22	6	7	9
3160.6767578125	n/a	PROB	6473066	n/a	LTP355	ltpFR2	12	n/a	n/a	n/a	22	13	5	4	4
3162.958984375	n/a	PROB	6477740	n/a	LTP355	ltpFR2	12	n/a	n/a	n/a	22	14	5	5	4
3165.56787109375	n/a	STOP	6483083	n/a	LTP355	ltpFR2	12	n/a	n/a	n/a	22	n/a	n/a	n/a	n/a
3166.65771484375	n/a	WORD	6485315	wordpools/wasnorm_wordpool_576.txt	LTP355	ltpFR2	12	15	INMATE	738	n/a	n/a	0	0	0
3169.2900390625	n/a	WORD	6490706	wordpools/wasnorm_wordpool_576.txt	LTP355	ltpFR2	12	15	FRUIT	610	n/a	n/a	0	0	0
3171.873046875	n/a	WORD	6495996	wordpools/wasnorm_wordpool_576.txt	LTP355	ltpFR2	12	15	PISTOL	1075	n/a	n/a	0	0	0
3174.52001953125	n/a	WORD	6501417	wordpools/wasnorm_wordpool_576.txt	LTP355	ltpFR2	12	15	GANGSTER	620	n/a	n/a	0	0	0
3177.26904296875	n/a	WORD	6507047	wordpools/wasnorm_wordpool_576.txt	LTP355	ltpFR2	12	15	CHAMPAGNE	278	n/a	n/a	0	0	0
3179.8017578125	n/a	WORD	6512234	wordpools/wasnorm_wordpool_576.txt	LTP355	ltpFR2	12	15	CONVICT	371	n/a	n/a	0	0	0
3182.43310546875	n/a	WORD	6517623	wordpools/wasnorm_wordpool_576.txt	LTP355	ltpFR2	12	15	PALACE	1006	n/a	n/a	0	0	0
3185.048828125	n/a	WORD	6522980	wordpools/wasnorm_wordpool_576.txt	LTP355	ltpFR2	12	15	ROBIN	1199	n/a	n/a	0	0	0
3187.86474609375	n/a	WORD	6528747	wordpools/wasnorm_wordpool_576.txt	LTP355	ltpFR2	12	15	BRACES	164	n/a	n/a	0	0	0
3190.36279296875	n/a	WORD	6533863	wordpools/wasnorm_wordpool_576.txt	LTP355	ltpFR2	12	15	VELVET	1555	n/a	n/a	0	0	0
3192.94482421875	n/a	WORD	6539151	wordpools/wasnorm_wordpool_576.txt	LTP355	ltpFR2	12	15	GIFT	635	n/a	n/a	0	0	0
3195.5771484375	n/a	WORD	6544542	wordpools/wasnorm_wordpool_576.txt	LTP355	ltpFR2	12	15	CRAB	397	n/a	n/a	0	0	0
3198.375	n/a	WORD	6550272	wordpools/wasnorm_wordpool_576.txt	LTP355	ltpFR2	12	15	PIMPLE	1071	n/a	n/a	0	0	0
3201.08984375	n/a	WORD	6555832	wordpools/wasnorm_wordpool_576.txt	LTP355	ltpFR2	12	15	CABBAGE	210	n/a	n/a	0	0	0
3203.63916015625	n/a	WORD	6561053	wordpools/wasnorm_wordpool_576.txt	LTP355	ltpFR2	12	15	WAITER	1580	n/a	n/a	0	0	0
3206.0712890625	n/a	WORD	6566034	wordpools/wasnorm_wordpool_576.txt	LTP355	ltpFR2	12	15	PLIERS	1089	n/a	n/a	0	0	0
3208.88818359375	n/a	WORD	6571803	wordpools/wasnorm_wordpool_576.txt	LTP355	ltpFR2	12	15	ICING	732	n/a	n/a	0	0	0
3211.501953125	n/a	WORD	6577156	wordpools/wasnorm_wordpool_576.txt	LTP355	ltpFR2	12	15	MUFFIN	929	n/a	n/a	0	0	0
3213.984375	n/a	WORD	6582240	wordpools/wasnorm_wordpool_576.txt	LTP355	ltpFR2	12	15	PRINCE	1124	n/a	n/a	0	0	0
3216.51611328125	n/a	WORD	6587425	wordpools/wasnorm_wordpool_576.txt	LTP355	ltpFR2	12	15	COMPASS	358	n/a	n/a	0	0	0
3219.29833984375	n/a	WORD	6593123	wordpools/wasnorm_wordpool_576.txt	LTP355	ltpFR2	12	15	MAMMAL	861	n/a	n/a	0	0	0
3221.947265625	n/a	WORD	6598548	wordpools/wasnorm_wordpool_576.txt	LTP355	ltpFR2	12	15	DRAWING	494	n/a	n/a	0	0	0
3224.62939453125	n/a	WORD	6604041	wordpools/wasnorm_wordpool_576.txt	LTP355	ltpFR2	12	15	SERVER	1272	n/a	n/a	0	0	0
3227.361328125	n/a	WORD	6609636	wordpools/wasnorm_wordpool_576.txt	LTP355	ltpFR2	12	15	WAITRESS	1581	n/a	n/a	0	0	0
3228.97705078125	n/a	START	6612945	n/a	LTP355	ltpFR2	12	n/a	n/a	n/a	23	n/a	n/a	n/a	n/a
3230.0810546875	n/a	DISTRACTOR	6615206	n/a	LTP355	ltpFR2	12	15	n/a	n/a	n/a	n/a	0	0	0
3230.09326171875	n/a	PROB	6615231	n/a	LTP355	ltpFR2	12	n/a	n/a	n/a	23	13	4	3	6
3234.09130859375	n/a	PROB	6623419	n/a	LTP355	ltpFR2	12	n/a	n/a	n/a	23	14	4	8	2
3235.6904296875	n/a	PROB	6626694	n/a	LTP355	ltpFR2	12	n/a	n/a	n/a	23	16	4	9	3
3238.05615234375	n/a	PROB	6631539	n/a	LTP355	ltpFR2	12	n/a	n/a	n/a	23	17	3	7	7
3240.13818359375	n/a	PROB	6635803	n/a	LTP355	ltpFR2	12	n/a	n/a	n/a	23	15	6	1	8
3244.16943359375	n/a	PROB	6644059	n/a	LTP355	ltpFR2	12	n/a	n/a	n/a	23	20	9	6	5
3246.0185546875	n/a	PROB	6647846	n/a	LTP355	ltpFR2	12	n/a	n/a	n/a	23	21	6	9	8
3252.9775390625	n/a	STOP	6662098	n/a	LTP355	ltpFR2	12	n/a	n/a	n/a	23	n/a	n/a	n/a	n/a
3254.83251953125	n/a	REC_START	6665897	n/a	LTP355	ltpFR2	12	15	n/a	n/a	n/a	n/a	0	0	0
3256.1025390625	n/a	REC_WORD	6668498	wordpools/wasnorm_wordpool_576.txt	LTP355	ltpFR2	12	15	WAITRESS	1581	n/a	n/a	0	0	0
3256.70361328125	n/a	REC_WORD	6669729	wordpools/wasnorm_wordpool_576.txt	LTP355	ltpFR2	12	15	SERVER	1272	n/a	n/a	0	0	0
3257.431640625	n/a	REC_WORD	6671220	wordpools/wasnorm_wordpool_576.txt	LTP355	ltpFR2	12	15	DRAWING	494	n/a	n/a	0	0	0
3258.1513671875	n/a	REC_WORD	6672694	wordpools/wasnorm_wordpool_576.txt	LTP355	ltpFR2	12	15	PALACE	1006	n/a	n/a	0	0	0
3260.8212890625	n/a	REC_WORD	6678162	wordpools/wasnorm_wordpool_576.txt	LTP355	ltpFR2	12	15	GANGSTER	620	n/a	n/a	0	0	0
3261.50146484375	n/a	REC_WORD	6679555	wordpools/wasnorm_wordpool_576.txt	LTP355	ltpFR2	12	15	PISTOL	1075	n/a	n/a	0	0	0
3262.193359375	n/a	REC_WORD	6680972	wordpools/wasnorm_wordpool_576.txt	LTP355	ltpFR2	12	15	FRUIT	610	n/a	n/a	0	0	0
3262.8212890625	n/a	REC_WORD	6682258	wordpools/wasnorm_wordpool_576.txt	LTP355	ltpFR2	12	15	CHAMPAGNE	278	n/a	n/a	0	0	0
3263.8076171875	n/a	REC_WORD	6684278	wordpools/wasnorm_wordpool_576.txt	LTP355	ltpFR2	12	15	INMATE	738	n/a	n/a	0	0	0
3264.58349609375	n/a	REC_WORD	6685867	wordpools/wasnorm_wordpool_576.txt	LTP355	ltpFR2	12	15	CONVICT	371	n/a	n/a	0	0	0
3265.3994140625	n/a	REC_WORD	6687538	wordpools/wasnorm_wordpool_576.txt	LTP355	ltpFR2	12	15	COMPASS	358	n/a	n/a	0	0	0
3282.24365234375	n/a	REC_WORD	6722035	wordpools/wasnorm_wordpool_576.txt	LTP355	ltpFR2	12	15	PLIERS	1089	n/a	n/a	0	0	0
3284.61083984375	n/a	REC_WORD	6726883	wordpools/wasnorm_wordpool_576.txt	LTP355	ltpFR2	12	15	ICING	732	n/a	n/a	0	0	0
3285.33154296875	n/a	REC_WORD	6728359	wordpools/wasnorm_wordpool_576.txt	LTP355	ltpFR2	12	15	MUFFIN	929	n/a	n/a	0	0	0
3290.9296875	n/a	REC_WORD	6739824	wordpools/wasnorm_wordpool_576.txt	LTP355	ltpFR2	12	15	PRINCE	1124	n/a	n/a	0	0	0
3291.58544921875	n/a	REC_WORD	6741167	wordpools/wasnorm_wordpool_576.txt	LTP355	ltpFR2	12	15	PALACE	1006	n/a	n/a	0	0	0
3345.27001953125	n/a	DISTRACTOR	6851113	n/a	LTP355	ltpFR2	12	16	n/a	n/a	n/a	n/a	0	0	0
3345.27001953125	n/a	START	6851113	n/a	LTP355	ltpFR2	12	n/a	n/a	n/a	24	n/a	n/a	n/a	n/a
3345.287109375	n/a	PROB	6851148	n/a	LTP355	ltpFR2	12	n/a	n/a	n/a	24	11	5	2	4
3347.35205078125	n/a	PROB	6855377	n/a	LTP355	ltpFR2	12	n/a	n/a	n/a	24	13	4	4	5
3348.60205078125	n/a	PROB	6857937	n/a	LTP355	ltpFR2	12	n/a	n/a	n/a	24	15	6	4	5
3349.751953125	n/a	PROB	6860292	n/a	LTP355	ltpFR2	12	n/a	n/a	n/a	24	18	4	8	6
3351.10009765625	n/a	PROB	6863053	n/a	LTP355	ltpFR2	12	n/a	n/a	n/a	24	17	7	9	1
3352.35009765625	n/a	PROB	6865613	n/a	LTP355	ltpFR2	12	n/a	n/a	n/a	24	15	5	2	8
3353.8828125	n/a	PROB	6868752	n/a	LTP355	ltpFR2	12	n/a	n/a	n/a	24	14	5	1	8
3356.130859375	n/a	PROB	6873356	n/a	LTP355	ltpFR2	12	n/a	n/a	n/a	24	14	7	4	3
3357.7138671875	n/a	PROB	6876598	n/a	LTP355	ltpFR2	12	n/a	n/a	n/a	24	21	9	5	7
3361.2119140625	n/a	PROB	6883762	n/a	LTP355	ltpFR2	12	n/a	n/a	n/a	24	9	1	2	6
3363.1279296875	n/a	PROB	6887686	n/a	LTP355	ltpFR2	12	n/a	n/a	n/a	24	15	6	8	1
3366.77734375	n/a	PROB	6895160	n/a	LTP355	ltpFR2	12	n/a	n/a	n/a	24	14	3	3	8
3368.033203125	n/a	STOP	6897732	n/a	LTP355	ltpFR2	12	n/a	n/a	n/a	24	n/a	n/a	n/a	n/a
3370.42431640625	n/a	WORD	6902629	wordpools/wasnorm_wordpool_576.txt	LTP355	ltpFR2	12	16	TOURIST	1488	n/a	n/a	0	0	0
3373.22314453125	n/a	WORD	6908361	wordpools/wasnorm_wordpool_576.txt	LTP355	ltpFR2	12	16	JELLY	755	n/a	n/a	0	0	0
3375.75634765625	n/a	WORD	6913549	wordpools/wasnorm_wordpool_576.txt	LTP355	ltpFR2	12	16	PICNIC	1060	n/a	n/a	0	0	0
3378.47021484375	n/a	WORD	6919107	wordpools/wasnorm_wordpool_576.txt	LTP355	ltpFR2	12	16	CASHIER	254	n/a	n/a	0	0	0
3380.96923828125	n/a	WORD	6924225	wordpools/wasnorm_wordpool_576.txt	LTP355	ltpFR2	12	16	SUNRISE	1407	n/a	n/a	0	0	0
3383.63427734375	n/a	WORD	6929683	wordpools/wasnorm_wordpool_576.txt	LTP355	ltpFR2	12	16	MUMMY	932	n/a	n/a	0	0	0
3386.08349609375	n/a	WORD	6934699	wordpools/wasnorm_wordpool_576.txt	LTP355	ltpFR2	12	16	PARENT	1013	n/a	n/a	0	0	0
3388.88330078125	n/a	WORD	6940433	wordpools/wasnorm_wordpool_576.txt	LTP355	ltpFR2	12	16	COIN	343	n/a	n/a	0	0	0
3391.3974609375	n/a	WORD	6945582	wordpools/wasnorm_wordpool_576.txt	LTP355	ltpFR2	12	16	BANKER	84	n/a	n/a	0	0	0
3393.96240234375	n/a	WORD	6950835	wordpools/wasnorm_wordpool_576.txt	LTP355	ltpFR2	12	16	MONSTER	912	n/a	n/a	0	0	0
3396.71142578125	n/a	WORD	6956465	wordpools/wasnorm_wordpool_576.txt	LTP355	ltpFR2	12	16	SHARK	1275	n/a	n/a	0	0	0
3399.17724609375	n/a	WORD	6961515	wordpools/wasnorm_wordpool_576.txt	LTP355	ltpFR2	12	16	DRILL	497	n/a	n/a	0	0	0
3401.826171875	n/a	WORD	6966940	wordpools/wasnorm_wordpool_576.txt	LTP355	ltpFR2	12	16	FREEZER	604	n/a	n/a	0	0	0
3404.29150390625	n/a	WORD	6971989	wordpools/wasnorm_wordpool_576.txt	LTP355	ltpFR2	12	16	LODGE	839	n/a	n/a	0	0	0
3407.00634765625	n/a	WORD	6977549	wordpools/wasnorm_wordpool_576.txt	LTP355	ltpFR2	12	16	CATTLE	261	n/a	n/a	0	0	0
