onset	duration	trial_type	sample	stim_file	subject	experiment	session	trial	task	item_name	item_num	recog_resp	recog_conf	resp	answer	test_x	test_y	test_z	color_r	color_g	color_b	case	font
293.72	n/a	SESS_START	146860	n/a	LTP287	ltpFR	7	n/a	n/a	n/a	n/a	1	n/a	n/a	n/a	0	0	0	n/a	n/a	n/a	n/a	n/a
513.216	n/a	START	256608	n/a	LTP287	ltpFR	7	n/a	n/a	n/a	n/a	n/a	n/a	n/a	n/a	n/a	n/a	n/a	n/a	n/a	n/a	n/a	n/a
513.264	n/a	PROB	256632	n/a	LTP287	ltpFR	7	n/a	n/a	n/a	n/a	n/a	n/a	n/a	20	6	6	8	n/a	n/a	n/a	n/a	n/a
515.642	n/a	PROB	257821	n/a	LTP287	ltpFR	7	n/a	n/a	n/a	n/a	n/a	n/a	n/a	11	4	2	3	n/a	n/a	n/a	n/a	n/a
518.196	n/a	PROB	259098	n/a	LTP287	ltpFR	7	n/a	n/a	n/a	n/a	n/a	n/a	n/a	13	2	6	5	n/a	n/a	n/a	n/a	n/a
522.128	n/a	PROB	261064	n/a	LTP287	ltpFR	7	n/a	n/a	n/a	n/a	n/a	n/a	n/a	9	3	3	3	n/a	n/a	n/a	n/a	n/a
524.072	n/a	PROB	262036	n/a	LTP287	ltpFR	7	n/a	n/a	n/a	n/a	n/a	n/a	n/a	16	4	3	9	n/a	n/a	n/a	n/a	n/a
529.578	n/a	PROB	264789	n/a	LTP287	ltpFR	7	n/a	n/a	n/a	n/a	n/a	n/a	n/a	13	9	3	1	n/a	n/a	n/a	n/a	n/a
532.376	n/a	STOP	266188	n/a	LTP287	ltpFR	7	n/a	n/a	n/a	n/a	n/a	n/a	n/a	n/a	n/a	n/a	n/a	n/a	n/a	n/a	n/a	n/a
731.432	n/a	WORD	365716	wordpools/wasnorm_wordpool_less_exclusions.txt	LTP287	ltpFR	7	1	0	STEM	1376	n/a	n/a	1	n/a	0	0	0	0.57763671875	0.412841796875	1	lower	zerothre.ttf
735.362	n/a	WORD	367681	wordpools/wasnorm_wordpool_less_exclusions.txt	LTP287	ltpFR	7	1	0	BRIEFCASE	175	n/a	n/a	0	n/a	0	0	0	0.57763671875	0.412841796875	1	lower	zerothre.ttf
739.194	n/a	WORD	369597	wordpools/wasnorm_wordpool_less_exclusions.txt	LTP287	ltpFR	7	1	0	RADIATOR	1156	n/a	n/a	0	n/a	0	0	0	0.57763671875	0.412841796875	1	lower	zerothre.ttf
743.256	n/a	WORD	371628	wordpools/wasnorm_wordpool_less_exclusions.txt	LTP287	ltpFR	7	1	0	MAT	877	n/a	n/a	0	n/a	0	0	0	0.57763671875	0.412841796875	1	lower	zerothre.ttf
747.342	n/a	WORD	373671	wordpools/wasnorm_wordpool_less_exclusions.txt	LTP287	ltpFR	7	1	0	FLOOR	581	n/a	n/a	1	n/a	0	0	0	0.57763671875	0.412841796875	1	lower	zerothre.ttf
751.542	n/a	WORD	375771	wordpools/wasnorm_wordpool_less_exclusions.txt	LTP287	ltpFR	7	1	0	JELLO	754	n/a	n/a	0	n/a	0	0	0	0.57763671875	0.412841796875	1	lower	zerothre.ttf
755.642	n/a	WORD	377821	wordpools/wasnorm_wordpool_less_exclusions.txt	LTP287	ltpFR	7	1	0	COWBOY	395	n/a	n/a	1	n/a	0	0	0	0.57763671875	0.412841796875	1	lower	zerothre.ttf
759.506	n/a	WORD	379753	wordpools/wasnorm_wordpool_less_exclusions.txt	LTP287	ltpFR	7	1	0	TUBA	1515	n/a	n/a	1	n/a	0	0	0	0.57763671875	0.412841796875	1	lower	zerothre.ttf
763.638	n/a	WORD	381819	wordpools/wasnorm_wordpool_less_exclusions.txt	LTP287	ltpFR	7	1	0	FLUTE	585	n/a	n/a	0	n/a	0	0	0	0.57763671875	0.412841796875	1	lower	zerothre.ttf
767.486	n/a	WORD	383743	wordpools/wasnorm_wordpool_less_exclusions.txt	LTP287	ltpFR	7	1	0	CROCODILE	411	n/a	n/a	1	n/a	0	0	0	0.57763671875	0.412841796875	1	lower	zerothre.ttf
771.682	n/a	WORD	385841	wordpools/wasnorm_wordpool_less_exclusions.txt	LTP287	ltpFR	7	1	0	BARTENDER	92	n/a	n/a	1	n/a	0	0	0	0.57763671875	0.412841796875	1	lower	zerothre.ttf
775.868	n/a	WORD	387934	wordpools/wasnorm_wordpool_less_exclusions.txt	LTP287	ltpFR	7	1	0	SHORE	1291	n/a	n/a	1	n/a	0	0	0	0.57763671875	0.412841796875	1	lower	zerothre.ttf
780.0	n/a	WORD	390000	wordpools/wasnorm_wordpool_less_exclusions.txt	LTP287	ltpFR	7	1	0	WATERFALL	1595	n/a	n/a	1	n/a	0	0	0	0.57763671875	0.412841796875	1	lower	zerothre.ttf
783.948	n/a	WORD	391974	wordpools/wasnorm_wordpool_less_exclusions.txt	LTP287	ltpFR	7	1	0	PAD	998	n/a	n/a	0	n/a	0	0	0	0.57763671875	0.412841796875	1	lower	zerothre.ttf
787.896	n/a	WORD	393948	wordpools/wasnorm_wordpool_less_exclusions.txt	LTP287	ltpFR	7	1	0	FAUCET	555	n/a	n/a	0	n/a	0	0	0	0.57763671875	0.412841796875	1	lower	zerothre.ttf
791.78	n/a	WORD	395890	wordpools/wasnorm_wordpool_less_exclusions.txt	LTP287	ltpFR	7	1	0	SEED	1266	n/a	n/a	0	n/a	0	0	0	0.57763671875	0.412841796875	1	lower	zerothre.ttf
794.79	n/a	START	397395	n/a	LTP287	ltpFR	7	n/a	n/a	n/a	n/a	n/a	n/a	n/a	n/a	n/a	n/a	n/a	n/a	n/a	n/a	n/a	n/a
795.76	n/a	PROB	397880	n/a	LTP287	ltpFR	7	n/a	n/a	n/a	n/a	n/a	n/a	n/a	18	9	6	5	n/a	n/a	n/a	n/a	n/a
802.79	n/a	STOP	401395	n/a	LTP287	ltpFR	7	n/a	n/a	n/a	n/a	n/a	n/a	n/a	n/a	n/a	n/a	n/a	n/a	n/a	n/a	n/a	n/a
804.646	n/a	REC_START	402323	n/a	LTP287	ltpFR	7	1	n/a	n/a	n/a	n/a	n/a	n/a	n/a	0	0	0	n/a	n/a	n/a	n/a	n/a
805.884	n/a	REC_WORD	402942	wordpools/wasnorm_wordpool_less_exclusions.txt	LTP287	ltpFR	7	1	0	COWBOY	395	n/a	n/a	1	n/a	0	0	0	n/a	n/a	n/a	n/a	n/a
807.048	n/a	REC_WORD	403524	wordpools/wasnorm_wordpool_less_exclusions.txt	LTP287	ltpFR	7	1	0	BARTENDER	92	n/a	n/a	1	n/a	0	0	0	n/a	n/a	n/a	n/a	n/a
808.19	n/a	REC_WORD	404095	wordpools/wasnorm_wordpool_less_exclusions.txt	LTP287	ltpFR	7	1	0	SEED	1266	n/a	n/a	0	n/a	0	0	0	n/a	n/a	n/a	n/a	n/a
809.278	n/a	REC_WORD	404639	wordpools/wasnorm_wordpool_less_exclusions.txt	LTP287	ltpFR	7	1	0	SHORE	1291	n/a	n/a	1	n/a	0	0	0	n/a	n/a	n/a	n/a	n/a
810.716	n/a	REC_WORD	405358	wordpools/wasnorm_wordpool_less_exclusions.txt	LTP287	ltpFR	7	1	0	RADIATOR	1156	n/a	n/a	0	n/a	0	0	0	n/a	n/a	n/a	n/a	n/a
814.706	n/a	REC_WORD	407353	wordpools/wasnorm_wordpool_less_exclusions.txt	LTP287	ltpFR	7	1	0	STEM	1376	n/a	n/a	1	n/a	0	0	0	n/a	n/a	n/a	n/a	n/a
819.288	n/a	REC_WORD	409644	wordpools/wasnorm_wordpool_less_exclusions.txt	LTP287	ltpFR	7	1	0	TUBA	1515	n/a	n/a	1	n/a	0	0	0	n/a	n/a	n/a	n/a	n/a
820.068	n/a	REC_WORD	410034	wordpools/wasnorm_wordpool_less_exclusions.txt	LTP287	ltpFR	7	1	0	FLUTE	585	n/a	n/a	0	n/a	0	0	0	n/a	n/a	n/a	n/a	n/a
831.892	n/a	REC_WORD	415946	wordpools/wasnorm_wordpool_less_exclusions.txt	LTP287	ltpFR	7	1	0	FLOOR	581	n/a	n/a	1	n/a	0	0	0	n/a	n/a	n/a	n/a	n/a
837.61	n/a	REC_WORD	418805	wordpools/wasnorm_wordpool_less_exclusions.txt	LTP287	ltpFR	7	1	0	CROCODILE	411	n/a	n/a	1	n/a	0	0	0	n/a	n/a	n/a	n/a	n/a
943.392	n/a	WORD	471696	wordpools/wasnorm_wordpool_less_exclusions.txt	LTP287	ltpFR	7	2	1	SUITE	1404	n/a	n/a	0	n/a	0	0	0	0.422607421875	0.5869140625	0	upper	amplitud.ttf
947.474	n/a	WORD	473737	wordpools/wasnorm_wordpool_less_exclusions.txt	LTP287	ltpFR	7	2	1	RESORT	1186	n/a	n/a	0	n/a	0	0	0	0.422607421875	0.5869140625	0	upper	amplitud.ttf
951.62	n/a	WORD	475810	wordpools/wasnorm_wordpool_less_exclusions.txt	LTP287	ltpFR	7	2	1	MOSQUITO	917	n/a	n/a	1	n/a	0	0	0	0.422607421875	0.5869140625	0	upper	amplitud.ttf
955.488	n/a	WORD	477744	wordpools/wasnorm_wordpool_less_exclusions.txt	LTP287	ltpFR	7	2	1	PIT	1077	n/a	n/a	0	n/a	0	0	0	0.422607421875	0.5869140625	0	upper	amplitud.ttf
959.504	n/a	WORD	479752	wordpools/wasnorm_wordpool_less_exclusions.txt	LTP287	ltpFR	7	2	1	CITRUS	313	n/a	n/a	0	n/a	0	0	0	0.422607421875	0.5869140625	0	upper	amplitud.ttf
963.35	n/a	WORD	481675	wordpools/wasnorm_wordpool_less_exclusions.txt	LTP287	ltpFR	7	2	1	SUIT	1402	n/a	n/a	0	n/a	0	0	0	0.422607421875	0.5869140625	0	upper	amplitud.ttf
967.216	n/a	WORD	483608	wordpools/wasnorm_wordpool_less_exclusions.txt	LTP287	ltpFR	7	2	1	KNOT	788	n/a	n/a	0	n/a	0	0	0	0.422607421875	0.5869140625	0	upper	amplitud.ttf
971.198	n/a	WORD	485599	wordpools/wasnorm_wordpool_less_exclusions.txt	LTP287	ltpFR	7	2	1	UMPIRE	1535	n/a	n/a	1	n/a	0	0	0	0.422607421875	0.5869140625	0	upper	amplitud.ttf
975.398	n/a	WORD	487699	wordpools/wasnorm_wordpool_less_exclusions.txt	LTP287	ltpFR	7	2	1	WINNER	1615	n/a	n/a	1	n/a	0	0	0	0.422607421875	0.5869140625	0	upper	amplitud.ttf
979.564	n/a	WORD	489782	wordpools/wasnorm_wordpool_less_exclusions.txt	LTP287	ltpFR	7	2	1	CLAY	320	n/a	n/a	0	n/a	0	0	0	0.422607421875	0.5869140625	0	upper	amplitud.ttf
983.612	n/a	WORD	491806	wordpools/wasnorm_wordpool_less_exclusions.txt	LTP287	ltpFR	7	2	1	VIOLA	1570	n/a	n/a	0	n/a	0	0	0	0.422607421875	0.5869140625	0	upper	amplitud.ttf
987.744	n/a	WORD	493872	wordpools/wasnorm_wordpool_less_exclusions.txt	LTP287	ltpFR	7	2	1	ORNAMENT	985	n/a	n/a	0	n/a	0	0	0	0.422607421875	0.5869140625	0	upper	amplitud.ttf
991.944	n/a	WORD	495972	wordpools/wasnorm_wordpool_less_exclusions.txt	LTP287	ltpFR	7	2	1	WOLF	1619	n/a	n/a	1	n/a	0	0	0	0.422607421875	0.5869140625	0	upper	amplitud.ttf
995.824	n/a	WORD	497912	wordpools/wasnorm_wordpool_less_exclusions.txt	LTP287	ltpFR	7	2	1	BASEBALL	93	n/a	n/a	0	n/a	0	0	0	0.422607421875	0.5869140625	0	upper	amplitud.ttf
999.724	n/a	WORD	499862	wordpools/wasnorm_wordpool_less_exclusions.txt	LTP287	ltpFR	7	2	1	SQUIRREL	1362	n/a	n/a	1	n/a	0	0	0	0.422607421875	0.5869140625	0	upper	amplitud.ttf
1003.836	n/a	WORD	501918	wordpools/wasnorm_wordpool_less_exclusions.txt	LTP287	ltpFR	7	2	1	RADIO	1157	n/a	n/a	0	n/a	0	0	0	0.422607421875	0.5869140625	0	upper	amplitud.ttf
1006.85	n/a	START	503425	n/a	LTP287	ltpFR	7	n/a	n/a	n/a	n/a	n/a	n/a	n/a	n/a	n/a	n/a	n/a	n/a	n/a	n/a	n/a	n/a
1008.056	n/a	PROB	504028	n/a	LTP287	ltpFR	7	n/a	n/a	n/a	n/a	n/a	n/a	n/a	20	6	7	7	n/a	n/a	n/a	n/a	n/a
1010.264	n/a	PROB	505132	n/a	LTP287	ltpFR	7	n/a	n/a	n/a	n/a	n/a	n/a	n/a	22	9	9	4	n/a	n/a	n/a	n/a	n/a
1011.802	n/a	PROB	505901	n/a	LTP287	ltpFR	7	n/a	n/a	n/a	n/a	n/a	n/a	n/a	21	6	7	7	n/a	n/a	n/a	n/a	n/a
1013.826	n/a	STOP	506913	n/a	LTP287	ltpFR	7	n/a	n/a	n/a	n/a	n/a	n/a	n/a	n/a	n/a	n/a	n/a	n/a	n/a	n/a	n/a	n/a
1016.724	n/a	REC_START	508362	n/a	LTP287	ltpFR	7	2	n/a	n/a	n/a	n/a	n/a	n/a	n/a	0	0	0	n/a	n/a	n/a	n/a	n/a
1017.358	n/a	REC_WORD	508679	wordpools/wasnorm_wordpool_less_exclusions.txt	LTP287	ltpFR	7	2	1	SQUIRREL	1362	n/a	n/a	1	n/a	0	0	0	n/a	n/a	n/a	n/a	n/a
1018.384	n/a	REC_WORD	509192	wordpools/wasnorm_wordpool_less_exclusions.txt	LTP287	ltpFR	7	2	1	MOSQUITO	917	n/a	n/a	1	n/a	0	0	0	n/a	n/a	n/a	n/a	n/a
1019.568	n/a	REC_WORD	509784	wordpools/wasnorm_wordpool_less_exclusions.txt	LTP287	ltpFR	7	2	1	SUITE	1404	n/a	n/a	0	n/a	0	0	0	n/a	n/a	n/a	n/a	n/a
1020.668	n/a	REC_WORD	510334	wordpools/wasnorm_wordpool_less_exclusions.txt	LTP287	ltpFR	7	2	1	SUIT	1402	n/a	n/a	0	n/a	0	0	0	n/a	n/a	n/a	n/a	n/a
1021.73	n/a	REC_WORD	510865	wordpools/wasnorm_wordpool_less_exclusions.txt	LTP287	ltpFR	7	2	1	RESORT	1186	n/a	n/a	0	n/a	0	0	0	n/a	n/a	n/a	n/a	n/a
1022.72	n/a	REC_WORD	511360	wordpools/wasnorm_wordpool_less_exclusions.txt	LTP287	ltpFR	7	2	1	CITRUS	313	n/a	n/a	0	n/a	0	0	0	n/a	n/a	n/a	n/a	n/a
1024.03	n/a	REC_WORD	512015	wordpools/wasnorm_wordpool_less_exclusions.txt	LTP287	ltpFR	7	2	1	PIT	1077	n/a	n/a	0	n/a	0	0	0	n/a	n/a	n/a	n/a	n/a
1025.396	n/a	REC_WORD	512698	wordpools/wasnorm_wordpool_less_exclusions.txt	LTP287	ltpFR	7	2	1	UMPIRE	1535	n/a	n/a	1	n/a	0	0	0	n/a	n/a	n/a	n/a	n/a
1026.298	n/a	REC_WORD	513149	wordpools/wasnorm_wordpool_less_exclusions.txt	LTP287	ltpFR	7	2	1	KNOT	788	n/a	n/a	0	n/a	0	0	0	n/a	n/a	n/a	n/a	n/a
1027.406	n/a	REC_WORD	513703	wordpools/wasnorm_wordpool_less_exclusions.txt	LTP287	ltpFR	7	2	1	BASEBALL	93	n/a	n/a	0	n/a	0	0	0	n/a	n/a	n/a	n/a	n/a
1107.638	n/a	START	553819	n/a	LTP287	ltpFR	7	n/a	n/a	n/a	n/a	n/a	n/a	n/a	n/a	n/a	n/a	n/a	n/a	n/a	n/a	n/a	n/a
1109.154	n/a	PROB	554577	n/a	LTP287	ltpFR	7	n/a	n/a	n/a	n/a	n/a	n/a	n/a	14	6	9	5	n/a	n/a	n/a	n/a	n/a
1111.902	n/a	PROB	555951	n/a	LTP287	ltpFR	7	n/a	n/a	n/a	n/a	n/a	n/a	n/a	11	8	1	2	n/a	n/a	n/a	n/a	n/a
1115.638	n/a	STOP	557819	n/a	LTP287	ltpFR	7	n/a	n/a	n/a	n/a	n/a	n/a	n/a	n/a	n/a	n/a	n/a	n/a	n/a	n/a	n/a	n/a
1116.868	n/a	WORD	558434	wordpools/wasnorm_wordpool_less_exclusions.txt	LTP287	ltpFR	7	3	1	VALVE	1546	n/a	n/a	0	n/a	0	0	0	0.422607421875	0.5869140625	0	upper	amplitud.ttf
1119.882	n/a	START	559941	n/a	LTP287	ltpFR	7	n/a	n/a	n/a	n/a	n/a	n/a	n/a	n/a	n/a	n/a	n/a	n/a	n/a	n/a	n/a	n/a
1120.77	n/a	PROB	560385	n/a	LTP287	ltpFR	7	n/a	n/a	n/a	n/a	n/a	n/a	n/a	18	4	7	7	n/a	n/a	n/a	n/a	n/a
1122.762	n/a	PROB	561381	n/a	LTP287	ltpFR	7	n/a	n/a	n/a	n/a	n/a	n/a	n/a	22	6	8	8	n/a	n/a	n/a	n/a	n/a
1125.74	n/a	PROB	562870	n/a	LTP287	ltpFR	7	n/a	n/a	n/a	n/a	n/a	n/a	n/a	13	3	3	7	n/a	n/a	n/a	n/a	n/a
1127.824	n/a	STOP	563912	n/a	LTP287	ltpFR	7	n/a	n/a	n/a	n/a	n/a	n/a	n/a	n/a	n/a	n/a	n/a	n/a	n/a	n/a	n/a	n/a
1129.0	n/a	WORD	564500	wordpools/wasnorm_wordpool_less_exclusions.txt	LTP287	ltpFR	7	3	1	CELERY	266	n/a	n/a	1	n/a	0	0	0	0.422607421875	0.5869140625	0	upper	amplitud.ttf
1132.012	n/a	START	566006	n/a	LTP287	ltpFR	7	n/a	n/a	n/a	n/a	n/a	n/a	n/a	n/a	n/a	n/a	n/a	n/a	n/a	n/a	n/a	n/a
1132.866	n/a	PROB	566433	n/a	LTP287	ltpFR	7	n/a	n/a	n/a	n/a	n/a	n/a	n/a	16	7	3	6	n/a	n/a	n/a	n/a	n/a
1134.902	n/a	PROB	567451	n/a	LTP287	ltpFR	7	n/a	n/a	n/a	n/a	n/a	n/a	n/a	17	2	4	9	n/a	n/a	n/a	n/a	n/a
1137.396	n/a	PROB	568698	n/a	LTP287	ltpFR	7	n/a	n/a	n/a	n/a	n/a	n/a	n/a	19	9	5	5	n/a	n/a	n/a	n/a	n/a
1139.72	n/a	STOP	569860	n/a	LTP287	ltpFR	7	n/a	n/a	n/a	n/a	n/a	n/a	n/a	n/a	n/a	n/a	n/a	n/a	n/a	n/a	n/a	n/a
1140.846	n/a	WORD	570423	wordpools/wasnorm_wordpool_less_exclusions.txt	LTP287	ltpFR	7	3	1	MARKET	871	n/a	n/a	1	n/a	0	0	0	0.422607421875	0.5869140625	0	upper	amplitud.ttf
1143.858	n/a	START	571929	n/a	LTP287	ltpFR	7	n/a	n/a	n/a	n/a	n/a	n/a	n/a	n/a	n/a	n/a	n/a	n/a	n/a	n/a	n/a	n/a
1144.758	n/a	PROB	572379	n/a	LTP287	ltpFR	7	n/a	n/a	n/a	n/a	n/a	n/a	n/a	11	2	1	8	n/a	n/a	n/a	n/a	n/a
1146.334	n/a	PROB	573167	n/a	LTP287	ltpFR	7	n/a	n/a	n/a	n/a	n/a	n/a	n/a	22	9	7	4	n/a	n/a	n/a	n/a	n/a
1149.278	n/a	PROB	574639	n/a	LTP287	ltpFR	7	n/a	n/a	n/a	n/a	n/a	n/a	n/a	14	1	6	7	n/a	n/a	n/a	n/a	n/a
1151.384	n/a	STOP	575692	n/a	LTP287	ltpFR	7	n/a	n/a	n/a	n/a	n/a	n/a	n/a	n/a	n/a	n/a	n/a	n/a	n/a	n/a	n/a	n/a
1152.776	n/a	WORD	576388	wordpools/wasnorm_wordpool_less_exclusions.txt	LTP287	ltpFR	7	3	1	CHIPMUNK	304	n/a	n/a	1	n/a	0	0	0	0.422607421875	0.5869140625	0	upper	amplitud.ttf
1155.788	n/a	START	577894	n/a	LTP287	ltpFR	7	n/a	n/a	n/a	n/a	n/a	n/a	n/a	n/a	n/a	n/a	n/a	n/a	n/a	n/a	n/a	n/a
1156.64	n/a	PROB	578320	n/a	LTP287	ltpFR	7	n/a	n/a	n/a	n/a	n/a	n/a	n/a	15	9	1	5	n/a	n/a	n/a	n/a	n/a
1158.246	n/a	PROB	579123	n/a	LTP287	ltpFR	7	n/a	n/a	n/a	n/a	n/a	n/a	n/a	18	8	6	2	n/a	n/a	n/a	n/a	n/a
1163.788	n/a	STOP	581894	n/a	LTP287	ltpFR	7	n/a	n/a	n/a	n/a	n/a	n/a	n/a	n/a	n/a	n/a	n/a	n/a	n/a	n/a	n/a	n/a
1164.638	n/a	WORD	582319	wordpools/wasnorm_wordpool_less_exclusions.txt	LTP287	ltpFR	7	3	1	ANIMAL	23	n/a	n/a	1	n/a	0	0	0	0.422607421875	0.5869140625	0	upper	amplitud.ttf
1167.65	n/a	START	583825	n/a	LTP287	ltpFR	7	n/a	n/a	n/a	n/a	n/a	n/a	n/a	n/a	n/a	n/a	n/a	n/a	n/a	n/a	n/a	n/a
1168.566	n/a	PROB	584283	n/a	LTP287	ltpFR	7	n/a	n/a	n/a	n/a	n/a	n/a	n/a	15	8	4	1	n/a	n/a	n/a	n/a	n/a
1170.89	n/a	PROB	585445	n/a	LTP287	ltpFR	7	n/a	n/a	n/a	n/a	n/a	n/a	n/a	17	6	7	4	n/a	n/a	n/a	n/a	n/a
1173.502	n/a	PROB	586751	n/a	LTP287	ltpFR	7	n/a	n/a	n/a	n/a	n/a	n/a	n/a	4	1	1	2	n/a	n/a	n/a	n/a	n/a
1174.842	n/a	STOP	587421	n/a	LTP287	ltpFR	7	n/a	n/a	n/a	n/a	n/a	n/a	n/a	n/a	n/a	n/a	n/a	n/a	n/a	n/a	n/a	n/a
1176.55	n/a	WORD	588275	wordpools/wasnorm_wordpool_less_exclusions.txt	LTP287	ltpFR	7	3	1	OX	994	n/a	n/a	1	n/a	0	0	0	0.422607421875	0.5869140625	0	upper	amplitud.ttf
1179.562	n/a	START	589781	n/a	LTP287	ltpFR	7	n/a	n/a	n/a	n/a	n/a	n/a	n/a	n/a	n/a	n/a	n/a	n/a	n/a	n/a	n/a	n/a
1180.732	n/a	PROB	590366	n/a	LTP287	ltpFR	7	n/a	n/a	n/a	n/a	n/a	n/a	n/a	19	7	3	9	n/a	n/a	n/a	n/a	n/a
1182.368	n/a	PROB	591184	n/a	LTP287	ltpFR	7	n/a	n/a	n/a	n/a	n/a	n/a	n/a	15	5	4	6	n/a	n/a	n/a	n/a	n/a
1184.142	n/a	PROB	592071	n/a	LTP287	ltpFR	7	n/a	n/a	n/a	n/a	n/a	n/a	n/a	11	3	2	6	n/a	n/a	n/a	n/a	n/a
1186.034	n/a	STOP	593017	n/a	LTP287	ltpFR	7	n/a	n/a	n/a	n/a	n/a	n/a	n/a	n/a	n/a	n/a	n/a	n/a	n/a	n/a	n/a	n/a
1188.446	n/a	WORD	594223	wordpools/wasnorm_wordpool_less_exclusions.txt	LTP287	ltpFR	7	3	1	MUSEUM	933	n/a	n/a	0	n/a	0	0	0	0.422607421875	0.5869140625	0	upper	amplitud.ttf
1191.458	n/a	START	595729	n/a	LTP287	ltpFR	7	n/a	n/a	n/a	n/a	n/a	n/a	n/a	n/a	n/a	n/a	n/a	n/a	n/a	n/a	n/a	n/a
1192.494	n/a	PROB	596247	n/a	LTP287	ltpFR	7	n/a	n/a	n/a	n/a	n/a	n/a	n/a	14	9	1	4	n/a	n/a	n/a	n/a	n/a
1194.346	n/a	PROB	597173	n/a	LTP287	ltpFR	7	n/a	n/a	n/a	n/a	n/a	n/a	n/a	16	4	8	4	n/a	n/a	n/a	n/a	n/a
1196.59	n/a	PROB	598295	n/a	LTP287	ltpFR	7	n/a	n/a	n/a	n/a	n/a	n/a	n/a	19	6	6	7	n/a	n/a	n/a	n/a	n/a
1199.148	n/a	STOP	599574	n/a	LTP287	ltpFR	7	n/a	n/a	n/a	n/a	n/a	n/a	n/a	n/a	n/a	n/a	n/a	n/a	n/a	n/a	n/a	n/a
1200.438	n/a	WORD	600219	wordpools/wasnorm_wordpool_less_exclusions.txt	LTP287	ltpFR	7	3	1	ANTENNA	28	n/a	n/a	0	n/a	0	0	0	0.422607421875	0.5869140625	0	upper	amplitud.ttf
1203.454	n/a	START	601727	n/a	LTP287	ltpFR	7	n/a	n/a	n/a	n/a	n/a	n/a	n/a	n/a	n/a	n/a	n/a	n/a	n/a	n/a	n/a	n/a
1204.506	n/a	PROB	602253	n/a	LTP287	ltpFR	7	n/a	n/a	n/a	n/a	n/a	n/a	n/a	14	6	7	4	n/a	n/a	n/a	n/a	n/a
1206.962	n/a	PROB	603481	n/a	LTP287	ltpFR	7	n/a	n/a	n/a	n/a	n/a	n/a	n/a	18	4	7	7	n/a	n/a	n/a	n/a	n/a
1209.22	n/a	PROB	604610	n/a	LTP287	ltpFR	7	n/a	n/a	n/a	n/a	n/a	n/a	n/a	17	3	6	8	n/a	n/a	n/a	n/a	n/a
1211.204	n/a	STOP	605602	n/a	LTP287	ltpFR	7	n/a	n/a	n/a	n/a	n/a	n/a	n/a	n/a	n/a	n/a	n/a	n/a	n/a	n/a	n/a	n/a
1212.286	n/a	WORD	606143	wordpools/wasnorm_wordpool_less_exclusions.txt	LTP287	ltpFR	7	3	1	POLYESTER	1100	n/a	n/a	0	n/a	0	0	0	0.422607421875	0.5869140625	0	upper	amplitud.ttf
1215.298	n/a	START	607649	n/a	LTP287	ltpFR	7	n/a	n/a	n/a	n/a	n/a	n/a	n/a	n/a	n/a	n/a	n/a	n/a	n/a	n/a	n/a	n/a
1216.296	n/a	PROB	608148	n/a	LTP287	ltpFR	7	n/a	n/a	n/a	n/a	n/a	n/a	n/a	12	5	5	2	n/a	n/a	n/a	n/a	n/a
1217.688	n/a	PROB	608844	n/a	LTP287	ltpFR	7	n/a	n/a	n/a	n/a	n/a	n/a	n/a	7	1	2	4	n/a	n/a	n/a	n/a	n/a
1222.196	n/a	STOP	611098	n/a	LTP287	ltpFR	7	n/a	n/a	n/a	n/a	n/a	n/a	n/a	n/a	n/a	n/a	n/a	n/a	n/a	n/a	n/a	n/a
1224.514	n/a	WORD	612257	wordpools/wasnorm_wordpool_less_exclusions.txt	LTP287	ltpFR	7	3	1	SHIRT	1287	n/a	n/a	0	n/a	0	0	0	0.422607421875	0.5869140625	0	upper	amplitud.ttf
1227.528	n/a	START	613764	n/a	LTP287	ltpFR	7	n/a	n/a	n/a	n/a	n/a	n/a	n/a	n/a	n/a	n/a	n/a	n/a	n/a	n/a	n/a	n/a
1228.566	n/a	PROB	614283	n/a	LTP287	ltpFR	7	n/a	n/a	n/a	n/a	n/a	n/a	n/a	18	6	9	3	n/a	n/a	n/a	n/a	n/a
1231.254	n/a	PROB	615627	n/a	LTP287	ltpFR	7	n/a	n/a	n/a	n/a	n/a	n/a	n/a	7	3	3	1	n/a	n/a	n/a	n/a	n/a
1235.53	n/a	STOP	617765	n/a	LTP287	ltpFR	7	n/a	n/a	n/a	n/a	n/a	n/a	n/a	n/a	n/a	n/a	n/a	n/a	n/a	n/a	n/a	n/a
1236.664	n/a	WORD	618332	wordpools/wasnorm_wordpool_less_exclusions.txt	LTP287	ltpFR	7	3	1	ENGINE	535	n/a	n/a	0	n/a	0	0	0	0.422607421875	0.5869140625	0	upper	amplitud.ttf
1239.676	n/a	START	619838	n/a	LTP287	ltpFR	7	n/a	n/a	n/a	n/a	n/a	n/a	n/a	n/a	n/a	n/a	n/a	n/a	n/a	n/a	n/a	n/a
1240.762	n/a	PROB	620381	n/a	LTP287	ltpFR	7	n/a	n/a	n/a	n/a	n/a	n/a	n/a	17	6	6	5	n/a	n/a	n/a	n/a	n/a
1243.084	n/a	PROB	621542	n/a	LTP287	ltpFR	7	n/a	n/a	n/a	n/a	n/a	n/a	n/a	16	4	4	8	n/a	n/a	n/a	n/a	n/a
1247.676	n/a	STOP	623838	n/a	LTP287	ltpFR	7	n/a	n/a	n/a	n/a	n/a	n/a	n/a	n/a	n/a	n/a	n/a	n/a	n/a	n/a	n/a	n/a
1248.692	n/a	WORD	624346	wordpools/wasnorm_wordpool_less_exclusions.txt	LTP287	ltpFR	7	3	1	BUTTON	207	n/a	n/a	0	n/a	0	0	0	0.422607421875	0.5869140625	0	upper	amplitud.ttf
1251.704	n/a	START	625852	n/a	LTP287	ltpFR	7	n/a	n/a	n/a	n/a	n/a	n/a	n/a	n/a	n/a	n/a	n/a	n/a	n/a	n/a	n/a	n/a
1252.524	n/a	PROB	626262	n/a	LTP287	ltpFR	7	n/a	n/a	n/a	n/a	n/a	n/a	n/a	7	4	2	2	n/a	n/a	n/a	n/a	n/a
1259.704	n/a	STOP	629852	n/a	LTP287	ltpFR	7	n/a	n/a	n/a	n/a	n/a	n/a	n/a	n/a	n/a	n/a	n/a	n/a	n/a	n/a	n/a	n/a
1260.884	n/a	WORD	630442	wordpools/wasnorm_wordpool_less_exclusions.txt	LTP287	ltpFR	7	3	1	GAZELLE	628	n/a	n/a	0	n/a	0	0	0	0.422607421875	0.5869140625	0	upper	amplitud.ttf
1263.9	n/a	START	631950	n/a	LTP287	ltpFR	7	n/a	n/a	n/a	n/a	n/a	n/a	n/a	n/a	n/a	n/a	n/a	n/a	n/a	n/a	n/a	n/a
1264.954	n/a	PROB	632477	n/a	LTP287	ltpFR	7	n/a	n/a	n/a	n/a	n/a	n/a	n/a	20	6	5	9	n/a	n/a	n/a	n/a	n/a
1267.978	n/a	PROB	633989	n/a	LTP287	ltpFR	7	n/a	n/a	n/a	n/a	n/a	n/a	n/a	8	6	1	1	n/a	n/a	n/a	n/a	n/a
1271.9	n/a	STOP	635950	n/a	LTP287	ltpFR	7	n/a	n/a	n/a	n/a	n/a	n/a	n/a	n/a	n/a	n/a	n/a	n/a	n/a	n/a	n/a	n/a
1272.85	n/a	WORD	636425	wordpools/wasnorm_wordpool_less_exclusions.txt	LTP287	ltpFR	7	3	1	ROBOT	1200	n/a	n/a	n/a	n/a	0	0	0	0.422607421875	0.5869140625	0	upper	amplitud.ttf
1275.896	n/a	SLOW_MSG	637948	n/a	LTP287	ltpFR	7	3	n/a	n/a	n/a	n/a	n/a	n/a	n/a	0	0	0	n/a	n/a	n/a	n/a	n/a
1277.418	n/a	START	638709	n/a	LTP287	ltpFR	7	n/a	n/a	n/a	n/a	n/a	n/a	n/a	n/a	n/a	n/a	n/a	n/a	n/a	n/a	n/a	n/a
1278.472	n/a	PROB	639236	n/a	LTP287	ltpFR	7	n/a	n/a	n/a	n/a	n/a	n/a	n/a	17	9	1	7	n/a	n/a	n/a	n/a	n/a
1280.528	n/a	PROB	640264	n/a	LTP287	ltpFR	7	n/a	n/a	n/a	n/a	n/a	n/a	n/a	9	4	4	1	n/a	n/a	n/a	n/a	n/a
1285.418	n/a	STOP	642709	n/a	LTP287	ltpFR	7	n/a	n/a	n/a	n/a	n/a	n/a	n/a	n/a	n/a	n/a	n/a	n/a	n/a	n/a	n/a	n/a
1286.282	n/a	WORD	643141	wordpools/wasnorm_wordpool_less_exclusions.txt	LTP287	ltpFR	7	3	1	ENGINEER	536	n/a	n/a	1	n/a	0	0	0	0.422607421875	0.5869140625	0	upper	amplitud.ttf
1289.296	n/a	START	644648	n/a	LTP287	ltpFR	7	n/a	n/a	n/a	n/a	n/a	n/a	n/a	n/a	n/a	n/a	n/a	n/a	n/a	n/a	n/a	n/a
1290.484	n/a	PROB	645242	n/a	LTP287	ltpFR	7	n/a	n/a	n/a	n/a	n/a	n/a	n/a	18	3	6	9	n/a	n/a	n/a	n/a	n/a
1292.66	n/a	PROB	646330	n/a	LTP287	ltpFR	7	n/a	n/a	n/a	n/a	n/a	n/a	n/a	19	8	5	6	n/a	n/a	n/a	n/a	n/a
1297.298	n/a	STOP	648649	n/a	LTP287	ltpFR	7	n/a	n/a	n/a	n/a	n/a	n/a	n/a	n/a	n/a	n/a	n/a	n/a	n/a	n/a	n/a	n/a
1298.466	n/a	WORD	649233	wordpools/wasnorm_wordpool_less_exclusions.txt	LTP287	ltpFR	7	3	1	POET	1095	n/a	n/a	1	n/a	0	0	0	0.422607421875	0.5869140625	0	upper	amplitud.ttf
1301.478	n/a	START	650739	n/a	LTP287	ltpFR	7	n/a	n/a	n/a	n/a	n/a	n/a	n/a	n/a	n/a	n/a	n/a	n/a	n/a	n/a	n/a	n/a
1302.548	n/a	PROB	651274	n/a	LTP287	ltpFR	7	n/a	n/a	n/a	n/a	n/a	n/a	n/a	23	9	5	8	n/a	n/a	n/a	n/a	n/a
1305.81	n/a	PROB	652905	n/a	LTP287	ltpFR	7	n/a	n/a	n/a	n/a	n/a	n/a	n/a	18	6	4	6	n/a	n/a	n/a	n/a	n/a
1307.928	n/a	STOP	653964	n/a	LTP287	ltpFR	7	n/a	n/a	n/a	n/a	n/a	n/a	n/a	n/a	n/a	n/a	n/a	n/a	n/a	n/a	n/a	n/a
1311.298	n/a	REC_START	655649	n/a	LTP287	ltpFR	7	3	n/a	n/a	n/a	n/a	n/a	n/a	n/a	0	0	0	n/a	n/a	n/a	n/a	n/a
1312.818	n/a	REC_WORD	656409	wordpools/wasnorm_wordpool_less_exclusions.txt	LTP287	ltpFR	7	3	1	BUTTON	207	n/a	n/a	0	n/a	0	0	0	n/a	n/a	n/a	n/a	n/a
1313.682	n/a	REC_WORD	656841	wordpools/wasnorm_wordpool_less_exclusions.txt	LTP287	ltpFR	7	3	1	CHIPMUNK	304	n/a	n/a	1	n/a	0	0	0	n/a	n/a	n/a	n/a	n/a
1314.804	n/a	REC_WORD	657402	wordpools/wasnorm_wordpool_less_exclusions.txt	LTP287	ltpFR	7	3	1	ENGINE	535	n/a	n/a	0	n/a	0	0	0	n/a	n/a	n/a	n/a	n/a
1315.87	n/a	REC_WORD	657935	wordpools/wasnorm_wordpool_less_exclusions.txt	LTP287	ltpFR	7	3	1	ENGINEER	536	n/a	n/a	1	n/a	0	0	0	n/a	n/a	n/a	n/a	n/a
1330.178	n/a	REC_WORD	665089	wordpools/wasnorm_wordpool_less_exclusions.txt	LTP287	ltpFR	7	3	1	POET	1095	n/a	n/a	1	n/a	0	0	0	n/a	n/a	n/a	n/a	n/a
1459.012	n/a	START	729506	n/a	LTP287	ltpFR	7	n/a	n/a	n/a	n/a	n/a	n/a	n/a	n/a	n/a	n/a	n/a	n/a	n/a	n/a	n/a	n/a
1460.518	n/a	PROB	730259	n/a	LTP287	ltpFR	7	n/a	n/a	n/a	n/a	n/a	n/a	n/a	15	2	9	4	n/a	n/a	n/a	n/a	n/a
1463.29	n/a	PROB	731645	n/a	LTP287	ltpFR	7	n/a	n/a	n/a	n/a	n/a	n/a	n/a	10	2	6	2	n/a	n/a	n/a	n/a	n/a
1465.754	n/a	STOP	732877	n/a	LTP287	ltpFR	7	n/a	n/a	n/a	n/a	n/a	n/a	n/a	n/a	n/a	n/a	n/a	n/a	n/a	n/a	n/a	n/a
1467.896	n/a	WORD	733948	wordpools/wasnorm_wordpool_less_exclusions.txt	LTP287	ltpFR	7	4	0	LOBSTER	837	n/a	n/a	0	n/a	0	0	0	0.57763671875	0.412841796875	1	lower	zerothre.ttf
1470.908	n/a	START	735454	n/a	LTP287	ltpFR	7	n/a	n/a	n/a	n/a	n/a	n/a	n/a	n/a	n/a	n/a	n/a	n/a	n/a	n/a	n/a	n/a
1471.744	n/a	PROB	735872	n/a	LTP287	ltpFR	7	n/a	n/a	n/a	n/a	n/a	n/a	n/a	9	5	3	1	n/a	n/a	n/a	n/a	n/a
1473.498	n/a	PROB	736749	n/a	LTP287	ltpFR	7	n/a	n/a	n/a	n/a	n/a	n/a	n/a	21	8	7	6	n/a	n/a	n/a	n/a	n/a
1476.408	n/a	PROB	738204	n/a	LTP287	ltpFR	7	n/a	n/a	n/a	n/a	n/a	n/a	n/a	13	6	1	6	n/a	n/a	n/a	n/a	n/a
1478.026	n/a	STOP	739013	n/a	LTP287	ltpFR	7	n/a	n/a	n/a	n/a	n/a	n/a	n/a	n/a	n/a	n/a	n/a	n/a	n/a	n/a	n/a	n/a
1479.824	n/a	WORD	739912	wordpools/wasnorm_wordpool_less_exclusions.txt	LTP287	ltpFR	7	4	0	SHRINE	1298	n/a	n/a	1	n/a	0	0	0	0.57763671875	0.412841796875	1	lower	zerothre.ttf
1482.838	n/a	START	741419	n/a	LTP287	ltpFR	7	n/a	n/a	n/a	n/a	n/a	n/a	n/a	n/a	n/a	n/a	n/a	n/a	n/a	n/a	n/a	n/a
1484.042	n/a	PROB	742021	n/a	LTP287	ltpFR	7	n/a	n/a	n/a	n/a	n/a	n/a	n/a	10	3	2	5	n/a	n/a	n/a	n/a	n/a
1486.196	n/a	PROB	743098	n/a	LTP287	ltpFR	7	n/a	n/a	n/a	n/a	n/a	n/a	n/a	14	6	5	3	n/a	n/a	n/a	n/a	n/a
1488.404	n/a	PROB	744202	n/a	LTP287	ltpFR	7	n/a	n/a	n/a	n/a	n/a	n/a	n/a	14	9	1	7	n/a	n/a	n/a	n/a	n/a
1490.7	n/a	STOP	745350	n/a	LTP287	ltpFR	7	n/a	n/a	n/a	n/a	n/a	n/a	n/a	n/a	n/a	n/a	n/a	n/a	n/a	n/a	n/a	n/a
1492.022	n/a	WORD	746011	wordpools/wasnorm_wordpool_less_exclusions.txt	LTP287	ltpFR	7	4	0	LIMOUSINE	824	n/a	n/a	1	n/a	0	0	0	0.57763671875	0.412841796875	1	lower	zerothre.ttf
1495.034	n/a	START	747517	n/a	LTP287	ltpFR	7	n/a	n/a	n/a	n/a	n/a	n/a	n/a	n/a	n/a	n/a	n/a	n/a	n/a	n/a	n/a	n/a
1496.236	n/a	PROB	748118	n/a	LTP287	ltpFR	7	n/a	n/a	n/a	n/a	n/a	n/a	n/a	18	7	4	7	n/a	n/a	n/a	n/a	n/a
1498.074	n/a	PROB	749037	n/a	LTP287	ltpFR	7	n/a	n/a	n/a	n/a	n/a	n/a	n/a	15	1	7	9	n/a	n/a	n/a	n/a	n/a
1503.034	n/a	STOP	751517	n/a	LTP287	ltpFR	7	n/a	n/a	n/a	n/a	n/a	n/a	n/a	n/a	n/a	n/a	n/a	n/a	n/a	n/a	n/a	n/a
1504.05	n/a	WORD	752025	wordpools/wasnorm_wordpool_less_exclusions.txt	LTP287	ltpFR	7	4	0	BATHTUB	100	n/a	n/a	1	n/a	0	0	0	0.57763671875	0.412841796875	1	lower	zerothre.ttf
1507.062	n/a	START	753531	n/a	LTP287	ltpFR	7	n/a	n/a	n/a	n/a	n/a	n/a	n/a	n/a	n/a	n/a	n/a	n/a	n/a	n/a	n/a	n/a
1507.998	n/a	PROB	753999	n/a	LTP287	ltpFR	7	n/a	n/a	n/a	n/a	n/a	n/a	n/a	15	5	8	1	n/a	n/a	n/a	n/a	n/a
1510.726	n/a	PROB	755363	n/a	LTP287	ltpFR	7	n/a	n/a	n/a	n/a	n/a	n/a	n/a	18	8	9	1	n/a	n/a	n/a	n/a	n/a
1515.062	n/a	STOP	757531	n/a	LTP287	ltpFR	7	n/a	n/a	n/a	n/a	n/a	n/a	n/a	n/a	n/a	n/a	n/a	n/a	n/a	n/a	n/a	n/a
1516.13	n/a	WORD	758065	wordpools/wasnorm_wordpool_less_exclusions.txt	LTP287	ltpFR	7	4	0	THESAURUS	1454	n/a	n/a	0	n/a	0	0	0	0.57763671875	0.412841796875	1	lower	zerothre.ttf
1519.142	n/a	START	759571	n/a	LTP287	ltpFR	7	n/a	n/a	n/a	n/a	n/a	n/a	n/a	n/a	n/a	n/a	n/a	n/a	n/a	n/a	n/a	n/a
1520.194	n/a	PROB	760097	n/a	LTP287	ltpFR	7	n/a	n/a	n/a	n/a	n/a	n/a	n/a	10	4	4	2	n/a	n/a	n/a	n/a	n/a
1522.72	n/a	PROB	761360	n/a	LTP287	ltpFR	7	n/a	n/a	n/a	n/a	n/a	n/a	n/a	6	4	1	4	n/a	n/a	n/a	n/a	n/a
1525.312	n/a	PROB	762656	n/a	LTP287	ltpFR	7	n/a	n/a	n/a	n/a	n/a	n/a	n/a	8	6	1	1	n/a	n/a	n/a	n/a	n/a
1526.742	n/a	STOP	763371	n/a	LTP287	ltpFR	7	n/a	n/a	n/a	n/a	n/a	n/a	n/a	n/a	n/a	n/a	n/a	n/a	n/a	n/a	n/a	n/a
1528.026	n/a	WORD	764013	wordpools/wasnorm_wordpool_less_exclusions.txt	LTP287	ltpFR	7	4	0	TELESCOPE	1446	n/a	n/a	0	n/a	0	0	0	0.57763671875	0.412841796875	1	lower	zerothre.ttf
1531.038	n/a	START	765519	n/a	LTP287	ltpFR	7	n/a	n/a	n/a	n/a	n/a	n/a	n/a	n/a	n/a	n/a	n/a	n/a	n/a	n/a	n/a	n/a
1531.974	n/a	PROB	765987	n/a	LTP287	ltpFR	7	n/a	n/a	n/a	n/a	n/a	n/a	n/a	10	1	7	2	n/a	n/a	n/a	n/a	n/a
1533.698	n/a	PROB	766849	n/a	LTP287	ltpFR	7	n/a	n/a	n/a	n/a	n/a	n/a	n/a	10	3	1	6	n/a	n/a	n/a	n/a	n/a
1539.038	n/a	STOP	769519	n/a	LTP287	ltpFR	7	n/a	n/a	n/a	n/a	n/a	n/a	n/a	n/a	n/a	n/a	n/a	n/a	n/a	n/a	n/a	n/a
1539.972	n/a	WORD	769986	wordpools/wasnorm_wordpool_less_exclusions.txt	LTP287	ltpFR	7	4	0	GARBAGE	622	n/a	n/a	1	n/a	0	0	0	0.57763671875	0.412841796875	1	lower	zerothre.ttf
1542.984	n/a	START	771492	n/a	LTP287	ltpFR	7	n/a	n/a	n/a	n/a	n/a	n/a	n/a	n/a	n/a	n/a	n/a	n/a	n/a	n/a	n/a	n/a
1544.12	n/a	PROB	772060	n/a	LTP287	ltpFR	7	n/a	n/a	n/a	n/a	n/a	n/a	n/a	17	4	9	4	n/a	n/a	n/a	n/a	n/a
1546.982	n/a	PROB	773491	n/a	LTP287	ltpFR	7	n/a	n/a	n/a	n/a	n/a	n/a	n/a	11	1	8	2	n/a	n/a	n/a	n/a	n/a
1549.854	n/a	STOP	774927	n/a	LTP287	ltpFR	7	n/a	n/a	n/a	n/a	n/a	n/a	n/a	n/a	n/a	n/a	n/a	n/a	n/a	n/a	n/a	n/a
1552.2	n/a	WORD	776100	wordpools/wasnorm_wordpool_less_exclusions.txt	LTP287	ltpFR	7	4	0	LITTER	832	n/a	n/a	0	n/a	0	0	0	0.57763671875	0.412841796875	1	lower	zerothre.ttf
1555.212	n/a	START	777606	n/a	LTP287	ltpFR	7	n/a	n/a	n/a	n/a	n/a	n/a	n/a	n/a	n/a	n/a	n/a	n/a	n/a	n/a	n/a	n/a
1556.266	n/a	PROB	778133	n/a	LTP287	ltpFR	7	n/a	n/a	n/a	n/a	n/a	n/a	n/a	15	6	2	7	n/a	n/a	n/a	n/a	n/a
1558.34	n/a	PROB	779170	n/a	LTP287	ltpFR	7	n/a	n/a	n/a	n/a	n/a	n/a	n/a	19	9	7	3	n/a	n/a	n/a	n/a	n/a
1560.852	n/a	PROB	780426	n/a	LTP287	ltpFR	7	n/a	n/a	n/a	n/a	n/a	n/a	n/a	13	2	3	8	n/a	n/a	n/a	n/a	n/a
1563.03	n/a	STOP	781515	n/a	LTP287	ltpFR	7	n/a	n/a	n/a	n/a	n/a	n/a	n/a	n/a	n/a	n/a	n/a	n/a	n/a	n/a	n/a	n/a
1564.414	n/a	WORD	782207	wordpools/wasnorm_wordpool_less_exclusions.txt	LTP287	ltpFR	7	4	0	FEAST	556	n/a	n/a	1	n/a	0	0	0	0.57763671875	0.412841796875	1	lower	zerothre.ttf
1567.426	n/a	START	783713	n/a	LTP287	ltpFR	7	n/a	n/a	n/a	n/a	n/a	n/a	n/a	n/a	n/a	n/a	n/a	n/a	n/a	n/a	n/a	n/a
1568.464	n/a	PROB	784232	n/a	LTP287	ltpFR	7	n/a	n/a	n/a	n/a	n/a	n/a	n/a	11	1	8	1	n/a	n/a	n/a	n/a	n/a
1571.922	n/a	PROB	785961	n/a	LTP287	ltpFR	7	n/a	n/a	n/a	n/a	n/a	n/a	n/a	16	4	7	5	n/a	n/a	n/a	n/a	n/a
1574.942	n/a	STOP	787471	n/a	LTP287	ltpFR	7	n/a	n/a	n/a	n/a	n/a	n/a	n/a	n/a	n/a	n/a	n/a	n/a	n/a	n/a	n/a	n/a
1576.41	n/a	WORD	788205	wordpools/wasnorm_wordpool_less_exclusions.txt	LTP287	ltpFR	7	4	0	PLATE	1086	n/a	n/a	0	n/a	0	0	0	0.57763671875	0.412841796875	1	lower	zerothre.ttf
1579.422	n/a	START	789711	n/a	LTP287	ltpFR	7	n/a	n/a	n/a	n/a	n/a	n/a	n/a	n/a	n/a	n/a	n/a	n/a	n/a	n/a	n/a	n/a
1580.494	n/a	PROB	790247	n/a	LTP287	ltpFR	7	n/a	n/a	n/a	n/a	n/a	n/a	n/a	12	3	1	8	n/a	n/a	n/a	n/a	n/a
1582.502	n/a	PROB	791251	n/a	LTP287	ltpFR	7	n/a	n/a	n/a	n/a	n/a	n/a	n/a	10	1	2	7	n/a	n/a	n/a	n/a	n/a
1584.02	n/a	PROB	792010	n/a	LTP287	ltpFR	7	n/a	n/a	n/a	n/a	n/a	n/a	n/a	8	3	3	2	n/a	n/a	n/a	n/a	n/a
1587.422	n/a	STOP	793711	n/a	LTP287	ltpFR	7	n/a	n/a	n/a	n/a	n/a	n/a	n/a	n/a	n/a	n/a	n/a	n/a	n/a	n/a	n/a	n/a
1588.44	n/a	WORD	794220	wordpools/wasnorm_wordpool_less_exclusions.txt	LTP287	ltpFR	7	4	0	PARSLEY	1016	n/a	n/a	0	n/a	0	0	0	0.57763671875	0.412841796875	1	lower	zerothre.ttf
1591.452	n/a	START	795726	n/a	LTP287	ltpFR	7	n/a	n/a	n/a	n/a	n/a	n/a	n/a	n/a	n/a	n/a	n/a	n/a	n/a	n/a	n/a	n/a
1592.572	n/a	PROB	796286	n/a	LTP287	ltpFR	7	n/a	n/a	n/a	n/a	n/a	n/a	n/a	18	4	8	6	n/a	n/a	n/a	n/a	n/a
1594.78	n/a	PROB	797390	n/a	LTP287	ltpFR	7	n/a	n/a	n/a	n/a	n/a	n/a	n/a	17	4	9	4	n/a	n/a	n/a	n/a	n/a
1599.454	n/a	STOP	799727	n/a	LTP287	ltpFR	7	n/a	n/a	n/a	n/a	n/a	n/a	n/a	n/a	n/a	n/a	n/a	n/a	n/a	n/a	n/a	n/a
1600.402	n/a	WORD	800201	wordpools/wasnorm_wordpool_less_exclusions.txt	LTP287	ltpFR	7	4	0	CABIN	211	n/a	n/a	1	n/a	0	0	0	0.57763671875	0.412841796875	1	lower	zerothre.ttf
1603.414	n/a	START	801707	n/a	LTP287	ltpFR	7	n/a	n/a	n/a	n/a	n/a	n/a	n/a	n/a	n/a	n/a	n/a	n/a	n/a	n/a	n/a	n/a
1604.4	n/a	PROB	802200	n/a	LTP287	ltpFR	7	n/a	n/a	n/a	n/a	n/a	n/a	n/a	8	4	3	1	n/a	n/a	n/a	n/a	n/a
1606.572	n/a	PROB	803286	n/a	LTP287	ltpFR	7	n/a	n/a	n/a	n/a	n/a	n/a	n/a	16	4	4	8	n/a	n/a	n/a	n/a	n/a
1611.414	n/a	STOP	805707	n/a	LTP287	ltpFR	7	n/a	n/a	n/a	n/a	n/a	n/a	n/a	n/a	n/a	n/a	n/a	n/a	n/a	n/a	n/a	n/a
1612.516	n/a	WORD	806258	wordpools/wasnorm_wordpool_less_exclusions.txt	LTP287	ltpFR	7	4	0	SIDING	1304	n/a	n/a	0	n/a	0	0	0	0.57763671875	0.412841796875	1	lower	zerothre.ttf
1615.528	n/a	START	807764	n/a	LTP287	ltpFR	7	n/a	n/a	n/a	n/a	n/a	n/a	n/a	n/a	n/a	n/a	n/a	n/a	n/a	n/a	n/a	n/a
1616.532	n/a	PROB	808266	n/a	LTP287	ltpFR	7	n/a	n/a	n/a	n/a	n/a	n/a	n/a	22	8	8	6	n/a	n/a	n/a	n/a	n/a
1618.556	n/a	PROB	809278	n/a	LTP287	ltpFR	7	n/a	n/a	n/a	n/a	n/a	n/a	n/a	14	7	2	5	n/a	n/a	n/a	n/a	n/a
1621.044	n/a	PROB	810522	n/a	LTP287	ltpFR	7	n/a	n/a	n/a	n/a	n/a	n/a	n/a	8	3	3	2	n/a	n/a	n/a	n/a	n/a
1623.218	n/a	STOP	811609	n/a	LTP287	ltpFR	7	n/a	n/a	n/a	n/a	n/a	n/a	n/a	n/a	n/a	n/a	n/a	n/a	n/a	n/a	n/a	n/a
1624.746	n/a	WORD	812373	wordpools/wasnorm_wordpool_less_exclusions.txt	LTP287	ltpFR	7	4	0	PREACHER	1119	n/a	n/a	1	n/a	0	0	0	0.57763671875	0.412841796875	1	lower	zerothre.ttf
1627.758	n/a	START	813879	n/a	LTP287	ltpFR	7	n/a	n/a	n/a	n/a	n/a	n/a	n/a	n/a	n/a	n/a	n/a	n/a	n/a	n/a	n/a	n/a
1628.61	n/a	PROB	814305	n/a	LTP287	ltpFR	7	n/a	n/a	n/a	n/a	n/a	n/a	n/a	14	1	7	6	n/a	n/a	n/a	n/a	n/a
1631.2	n/a	PROB	815600	n/a	LTP287	ltpFR	7	n/a	n/a	n/a	n/a	n/a	n/a	n/a	20	9	2	9	n/a	n/a	n/a	n/a	n/a
1635.758	n/a	STOP	817879	n/a	LTP287	ltpFR	7	n/a	n/a	n/a	n/a	n/a	n/a	n/a	n/a	n/a	n/a	n/a	n/a	n/a	n/a	n/a	n/a
1636.904	n/a	WORD	818452	wordpools/wasnorm_wordpool_less_exclusions.txt	LTP287	ltpFR	7	4	0	BRAKE	166	n/a	n/a	0	n/a	0	0	0	0.57763671875	0.412841796875	1	lower	zerothre.ttf
1639.92	n/a	START	819960	n/a	LTP287	ltpFR	7	n/a	n/a	n/a	n/a	n/a	n/a	n/a	n/a	n/a	n/a	n/a	n/a	n/a	n/a	n/a	n/a
1640.84	n/a	PROB	820420	n/a	LTP287	ltpFR	7	n/a	n/a	n/a	n/a	n/a	n/a	n/a	9	6	1	2	n/a	n/a	n/a	n/a	n/a
1643.38	n/a	PROB	821690	n/a	LTP287	ltpFR	7	n/a	n/a	n/a	n/a	n/a	n/a	n/a	18	9	3	6	n/a	n/a	n/a	n/a	n/a
1647.92	n/a	STOP	823960	n/a	LTP287	ltpFR	7	n/a	n/a	n/a	n/a	n/a	n/a	n/a	n/a	n/a	n/a	n/a	n/a	n/a	n/a	n/a	n/a
1649.138	n/a	WORD	824569	wordpools/wasnorm_wordpool_less_exclusions.txt	LTP287	ltpFR	7	4	0	CASH	252	n/a	n/a	0	n/a	0	0	0	0.57763671875	0.412841796875	1	lower	zerothre.ttf
1652.15	n/a	START	826075	n/a	LTP287	ltpFR	7	n/a	n/a	n/a	n/a	n/a	n/a	n/a	n/a	n/a	n/a	n/a	n/a	n/a	n/a	n/a	n/a
1653.22	n/a	PROB	826610	n/a	LTP287	ltpFR	7	n/a	n/a	n/a	n/a	n/a	n/a	n/a	20	8	6	6	n/a	n/a	n/a	n/a	n/a
1656.498	n/a	PROB	828249	n/a	LTP287	ltpFR	7	n/a	n/a	n/a	n/a	n/a	n/a	n/a	12	6	2	4	n/a	n/a	n/a	n/a	n/a
1660.15	n/a	STOP	830075	n/a	LTP287	ltpFR	7	n/a	n/a	n/a	n/a	n/a	n/a	n/a	n/a	n/a	n/a	n/a	n/a	n/a	n/a	n/a	n/a
1661.922	n/a	REC_START	830961	n/a	LTP287	ltpFR	7	4	n/a	n/a	n/a	n/a	n/a	n/a	n/a	0	0	0	n/a	n/a	n/a	n/a	n/a
1662.942	n/a	REC_WORD	831471	wordpools/wasnorm_wordpool_less_exclusions.txt	LTP287	ltpFR	7	4	0	GARBAGE	622	n/a	n/a	1	n/a	0	0	0	n/a	n/a	n/a	n/a	n/a
1664.412	n/a	REC_WORD	832206	wordpools/wasnorm_wordpool_less_exclusions.txt	LTP287	ltpFR	7	4	0	LITTER	832	n/a	n/a	0	n/a	0	0	0	n/a	n/a	n/a	n/a	n/a
1665.504	n/a	REC_WORD	832752	wordpools/wasnorm_wordpool_less_exclusions.txt	LTP287	ltpFR	7	4	0	CASH	252	n/a	n/a	0	n/a	0	0	0	n/a	n/a	n/a	n/a	n/a
1666.422	n/a	REC_WORD	833211	wordpools/wasnorm_wordpool_less_exclusions.txt	LTP287	ltpFR	7	4	0	LIMOUSINE	824	n/a	n/a	1	n/a	0	0	0	n/a	n/a	n/a	n/a	n/a
1667.582	n/a	REC_WORD	833791	wordpools/wasnorm_wordpool_less_exclusions.txt	LTP287	ltpFR	7	4	0	PREACHER	1119	n/a	n/a	1	n/a	0	0	0	n/a	n/a	n/a	n/a	n/a
1673.462	n/a	REC_WORD	836731	wordpools/wasnorm_wordpool_less_exclusions.txt	LTP287	ltpFR	7	4	0	SIDING	1304	n/a	n/a	0	n/a	0	0	0	n/a	n/a	n/a	n/a	n/a
1674.408	n/a	REC_WORD	837204	wordpools/wasnorm_wordpool_less_exclusions.txt	LTP287	ltpFR	7	4	0	CABIN	211	n/a	n/a	1	n/a	0	0	0	n/a	n/a	n/a	n/a	n/a
1715.36	n/a	REC_WORD	857680	wordpools/wasnorm_wordpool_less_exclusions.txt	LTP287	ltpFR	7	4	0	LOBSTER	837	n/a	n/a	0	n/a	0	0	0	n/a	n/a	n/a	n/a	n/a
1742.946	n/a	START	871473	n/a	LTP287	ltpFR	7	n/a	n/a	n/a	n/a	n/a	n/a	n/a	n/a	n/a	n/a	n/a	n/a	n/a	n/a	n/a	n/a
1744.454	n/a	PROB	872227	n/a	LTP287	ltpFR	7	n/a	n/a	n/a	n/a	n/a	n/a	n/a	13	5	5	3	n/a	n/a	n/a	n/a	n/a
1746.46	n/a	PROB	873230	n/a	LTP287	ltpFR	7	n/a	n/a	n/a	n/a	n/a	n/a	n/a	10	1	5	4	n/a	n/a	n/a	n/a	n/a
1749.2	n/a	PROB	874600	n/a	LTP287	ltpFR	7	n/a	n/a	n/a	n/a	n/a	n/a	n/a	15	2	8	4	n/a	n/a	n/a	n/a	n/a
1751.158	n/a	PROB	875579	n/a	LTP287	ltpFR	7	n/a	n/a	n/a	n/a	n/a	n/a	n/a	11	7	2	2	n/a	n/a	n/a	n/a	n/a
1753.736	n/a	PROB	876868	n/a	LTP287	ltpFR	7	n/a	n/a	n/a	n/a	n/a	n/a	n/a	11	9	1	1	n/a	n/a	n/a	n/a	n/a
1755.842	n/a	PROB	877921	n/a	LTP287	ltpFR	7	n/a	n/a	n/a	n/a	n/a	n/a	n/a	6	2	2	2	n/a	n/a	n/a	n/a	n/a
1758.344	n/a	STOP	879172	n/a	LTP287	ltpFR	7	n/a	n/a	n/a	n/a	n/a	n/a	n/a	n/a	n/a	n/a	n/a	n/a	n/a	n/a	n/a	n/a
1759.894	n/a	WORD	879947	wordpools/wasnorm_wordpool_less_exclusions.txt	LTP287	ltpFR	7	5	1	APRON	35	n/a	n/a	0	n/a	0	0	0	0.422607421875	0.5869140625	0	upper	amplitud.ttf
1762.906	n/a	START	881453	n/a	LTP287	ltpFR	7	n/a	n/a	n/a	n/a	n/a	n/a	n/a	n/a	n/a	n/a	n/a	n/a	n/a	n/a	n/a	n/a
1763.776	n/a	PROB	881888	n/a	LTP287	ltpFR	7	n/a	n/a	n/a	n/a	n/a	n/a	n/a	17	7	6	4	n/a	n/a	n/a	n/a	n/a
1766.752	n/a	PROB	883376	n/a	LTP287	ltpFR	7	n/a	n/a	n/a	n/a	n/a	n/a	n/a	12	5	2	5	n/a	n/a	n/a	n/a	n/a
1768.038	n/a	PROB	884019	n/a	LTP287	ltpFR	7	n/a	n/a	n/a	n/a	n/a	n/a	n/a	14	7	3	4	n/a	n/a	n/a	n/a	n/a
1770.148	n/a	PROB	885074	n/a	LTP287	ltpFR	7	n/a	n/a	n/a	n/a	n/a	n/a	n/a	17	4	4	9	n/a	n/a	n/a	n/a	n/a
1772.628	n/a	PROB	886314	n/a	LTP287	ltpFR	7	n/a	n/a	n/a	n/a	n/a	n/a	n/a	18	4	6	6	n/a	n/a	n/a	n/a	n/a
1774.668	n/a	PROB	887334	n/a	LTP287	ltpFR	7	n/a	n/a	n/a	n/a	n/a	n/a	n/a	20	9	8	3	n/a	n/a	n/a	n/a	n/a
1777.354	n/a	STOP	888677	n/a	LTP287	ltpFR	7	n/a	n/a	n/a	n/a	n/a	n/a	n/a	n/a	n/a	n/a	n/a	n/a	n/a	n/a	n/a	n/a
1779.768	n/a	WORD	889884	wordpools/wasnorm_wordpool_less_exclusions.txt	LTP287	ltpFR	7	5	1	HAMBURGER	679	n/a	n/a	0	n/a	0	0	0	0.422607421875	0.5869140625	0	upper	amplitud.ttf
1782.784	n/a	START	891392	n/a	LTP287	ltpFR	7	n/a	n/a	n/a	n/a	n/a	n/a	n/a	n/a	n/a	n/a	n/a	n/a	n/a	n/a	n/a	n/a
1783.886	n/a	PROB	891943	n/a	LTP287	ltpFR	7	n/a	n/a	n/a	n/a	n/a	n/a	n/a	16	7	8	1	n/a	n/a	n/a	n/a	n/a
1785.824	n/a	PROB	892912	n/a	LTP287	ltpFR	7	n/a	n/a	n/a	n/a	n/a	n/a	n/a	14	5	7	2	n/a	n/a	n/a	n/a	n/a
1788.016	n/a	PROB	894008	n/a	LTP287	ltpFR	7	n/a	n/a	n/a	n/a	n/a	n/a	n/a	1	2	2	6	n/a	n/a	n/a	n/a	n/a
1790.444	n/a	PROB	895222	n/a	LTP287	ltpFR	7	n/a	n/a	n/a	n/a	n/a	n/a	n/a	18	9	8	3	n/a	n/a	n/a	n/a	n/a
1792.654	n/a	PROB	896327	n/a	LTP287	ltpFR	7	n/a	n/a	n/a	n/a	n/a	n/a	n/a	18	9	7	2	n/a	n/a	n/a	n/a	n/a
1795.426	n/a	PROB	897713	n/a	LTP287	ltpFR	7	n/a	n/a	n/a	n/a	n/a	n/a	n/a	16	4	7	5	n/a	n/a	n/a	n/a	n/a
1798.708	n/a	STOP	899354	n/a	LTP287	ltpFR	7	n/a	n/a	n/a	n/a	n/a	n/a	n/a	n/a	n/a	n/a	n/a	n/a	n/a	n/a	n/a	n/a
1799.98	n/a	WORD	899990	wordpools/wasnorm_wordpool_less_exclusions.txt	LTP287	ltpFR	7	5	1	FRAGRANCE	599	n/a	n/a	0	n/a	0	0	0	0.422607421875	0.5869140625	0	upper	amplitud.ttf
1802.994	n/a	START	901497	n/a	LTP287	ltpFR	7	n/a	n/a	n/a	n/a	n/a	n/a	n/a	n/a	n/a	n/a	n/a	n/a	n/a	n/a	n/a	n/a
1803.814	n/a	PROB	901907	n/a	LTP287	ltpFR	7	n/a	n/a	n/a	n/a	n/a	n/a	n/a	22	8	4	9	n/a	n/a	n/a	n/a	n/a
1806.422	n/a	PROB	903211	n/a	LTP287	ltpFR	7	n/a	n/a	n/a	n/a	n/a	n/a	n/a	18	7	8	3	n/a	n/a	n/a	n/a	n/a
1808.528	n/a	PROB	904264	n/a	LTP287	ltpFR	7	n/a	n/a	n/a	n/a	n/a	n/a	n/a	20	7	9	4	n/a	n/a	n/a	n/a	n/a
1811.472	n/a	PROB	905736	n/a	LTP287	ltpFR	7	n/a	n/a	n/a	n/a	n/a	n/a	n/a	20	9	6	5	n/a	n/a	n/a	n/a	n/a
1813.918	n/a	PROB	906959	n/a	LTP287	ltpFR	7	n/a	n/a	n/a	n/a	n/a	n/a	n/a	4	1	1	2	n/a	n/a	n/a	n/a	n/a
1815.252	n/a	PROB	907626	n/a	LTP287	ltpFR	7	n/a	n/a	n/a	n/a	n/a	n/a	n/a	9	3	3	3	n/a	n/a	n/a	n/a	n/a
1816.428	n/a	PROB	908214	n/a	LTP287	ltpFR	7	n/a	n/a	n/a	n/a	n/a	n/a	n/a	16	7	4	5	n/a	n/a	n/a	n/a	n/a
1818.908	n/a	STOP	909454	n/a	LTP287	ltpFR	7	n/a	n/a	n/a	n/a	n/a	n/a	n/a	n/a	n/a	n/a	n/a	n/a	n/a	n/a	n/a	n/a
1819.856	n/a	WORD	909928	wordpools/wasnorm_wordpool_less_exclusions.txt	LTP287	ltpFR	7	5	1	VINEGAR	1569	n/a	n/a	0	n/a	0	0	0	0.422607421875	0.5869140625	0	upper	amplitud.ttf
1822.868	n/a	START	911434	n/a	LTP287	ltpFR	7	n/a	n/a	n/a	n/a	n/a	n/a	n/a	n/a	n/a	n/a	n/a	n/a	n/a	n/a	n/a	n/a
1823.906	n/a	PROB	911953	n/a	LTP287	ltpFR	7	n/a	n/a	n/a	n/a	n/a	n/a	n/a	15	3	8	4	n/a	n/a	n/a	n/a	n/a
1826.182	n/a	PROB	913091	n/a	LTP287	ltpFR	7	n/a	n/a	n/a	n/a	n/a	n/a	n/a	15	7	2	8	n/a	n/a	n/a	n/a	n/a
1828.84	n/a	PROB	914420	n/a	LTP287	ltpFR	7	n/a	n/a	n/a	n/a	n/a	n/a	n/a	18	7	6	5	n/a	n/a	n/a	n/a	n/a
1831.984	n/a	PROB	915992	n/a	LTP287	ltpFR	7	n/a	n/a	n/a	n/a	n/a	n/a	n/a	10	1	6	3	n/a	n/a	n/a	n/a	n/a
1834.932	n/a	PROB	917466	n/a	LTP287	ltpFR	7	n/a	n/a	n/a	n/a	n/a	n/a	n/a	13	5	5	3	n/a	n/a	n/a	n/a	n/a
1838.868	n/a	STOP	919434	n/a	LTP287	ltpFR	7	n/a	n/a	n/a	n/a	n/a	n/a	n/a	n/a	n/a	n/a	n/a	n/a	n/a	n/a	n/a	n/a
1840.068	n/a	WORD	920034	wordpools/wasnorm_wordpool_less_exclusions.txt	LTP287	ltpFR	7	5	1	FREEWAY	603	n/a	n/a	0	n/a	0	0	0	0.422607421875	0.5869140625	0	upper	amplitud.ttf
1843.08	n/a	START	921540	n/a	LTP287	ltpFR	7	n/a	n/a	n/a	n/a	n/a	n/a	n/a	n/a	n/a	n/a	n/a	n/a	n/a	n/a	n/a	n/a
1844.13	n/a	PROB	922065	n/a	LTP287	ltpFR	7	n/a	n/a	n/a	n/a	n/a	n/a	n/a	16	4	4	8	n/a	n/a	n/a	n/a	n/a
1845.79	n/a	PROB	922895	n/a	LTP287	ltpFR	7	n/a	n/a	n/a	n/a	n/a	n/a	n/a	9	1	7	1	n/a	n/a	n/a	n/a	n/a
1848.232	n/a	PROB	924116	n/a	LTP287	ltpFR	7	n/a	n/a	n/a	n/a	n/a	n/a	n/a	20	5	8	7	n/a	n/a	n/a	n/a	n/a
1851.274	n/a	PROB	925637	n/a	LTP287	ltpFR	7	n/a	n/a	n/a	n/a	n/a	n/a	n/a	14	1	7	5	n/a	n/a	n/a	n/a	n/a
1853.55	n/a	PROB	926775	n/a	LTP287	ltpFR	7	n/a	n/a	n/a	n/a	n/a	n/a	n/a	16	8	8	2	n/a	n/a	n/a	n/a	n/a
1859.08	n/a	STOP	929540	n/a	LTP287	ltpFR	7	n/a	n/a	n/a	n/a	n/a	n/a	n/a	n/a	n/a	n/a	n/a	n/a	n/a	n/a	n/a	n/a
1859.99	n/a	WORD	929995	wordpools/wasnorm_wordpool_less_exclusions.txt	LTP287	ltpFR	7	5	1	SEAT	1264	n/a	n/a	0	n/a	0	0	0	0.422607421875	0.5869140625	0	upper	amplitud.ttf
1863.006	n/a	START	931503	n/a	LTP287	ltpFR	7	n/a	n/a	n/a	n/a	n/a	n/a	n/a	n/a	n/a	n/a	n/a	n/a	n/a	n/a	n/a	n/a
1864.194	n/a	PROB	932097	n/a	LTP287	ltpFR	7	n/a	n/a	n/a	n/a	n/a	n/a	n/a	17	2	4	9	n/a	n/a	n/a	n/a	n/a
1867.604	n/a	PROB	933802	n/a	LTP287	ltpFR	7	n/a	n/a	n/a	n/a	n/a	n/a	n/a	20	9	5	6	n/a	n/a	n/a	n/a	n/a
1870.082	n/a	PROB	935041	n/a	LTP287	ltpFR	7	n/a	n/a	n/a	n/a	n/a	n/a	n/a	14	8	4	2	n/a	n/a	n/a	n/a	n/a
1873.074	n/a	PROB	936537	n/a	LTP287	ltpFR	7	n/a	n/a	n/a	n/a	n/a	n/a	n/a	10	8	1	1	n/a	n/a	n/a	n/a	n/a
1875.718	n/a	PROB	937859	n/a	LTP287	ltpFR	7	n/a	n/a	n/a	n/a	n/a	n/a	n/a	13	2	6	5	n/a	n/a	n/a	n/a	n/a
1877.84	n/a	STOP	938920	n/a	LTP287	ltpFR	7	n/a	n/a	n/a	n/a	n/a	n/a	n/a	n/a	n/a	n/a	n/a	n/a	n/a	n/a	n/a	n/a
1880.104	n/a	WORD	940052	wordpools/wasnorm_wordpool_less_exclusions.txt	LTP287	ltpFR	7	5	1	SHARK	1275	n/a	n/a	1	n/a	0	0	0	0.422607421875	0.5869140625	0	upper	amplitud.ttf
1883.116	n/a	START	941558	n/a	LTP287	ltpFR	7	n/a	n/a	n/a	n/a	n/a	n/a	n/a	n/a	n/a	n/a	n/a	n/a	n/a	n/a	n/a	n/a
1884.104	n/a	PROB	942052	n/a	LTP287	ltpFR	7	n/a	n/a	n/a	n/a	n/a	n/a	n/a	17	7	7	3	n/a	n/a	n/a	n/a	n/a
1885.974	n/a	PROB	942987	n/a	LTP287	ltpFR	7	n/a	n/a	n/a	n/a	n/a	n/a	n/a	13	3	4	6	n/a	n/a	n/a	n/a	n/a
1890.076	n/a	PROB	945038	n/a	LTP287	ltpFR	7	n/a	n/a	n/a	n/a	n/a	n/a	n/a	7	2	4	1	n/a	n/a	n/a	n/a	n/a
1892.348	n/a	PROB	946174	n/a	LTP287	ltpFR	7	n/a	n/a	n/a	n/a	n/a	n/a	n/a	16	9	5	2	n/a	n/a	n/a	n/a	n/a
1895.678	n/a	PROB	947839	n/a	LTP287	ltpFR	7	n/a	n/a	n/a	n/a	n/a	n/a	n/a	13	3	8	2	n/a	n/a	n/a	n/a	n/a
1897.536	n/a	STOP	948768	n/a	LTP287	ltpFR	7	n/a	n/a	n/a	n/a	n/a	n/a	n/a	n/a	n/a	n/a	n/a	n/a	n/a	n/a	n/a	n/a
1900.114	n/a	WORD	950057	wordpools/wasnorm_wordpool_less_exclusions.txt	LTP287	ltpFR	7	5	1	COMMANDER	354	n/a	n/a	1	n/a	0	0	0	0.422607421875	0.5869140625	0	upper	amplitud.ttf
1903.126	n/a	START	951563	n/a	LTP287	ltpFR	7	n/a	n/a	n/a	n/a	n/a	n/a	n/a	n/a	n/a	n/a	n/a	n/a	n/a	n/a	n/a	n/a
1904.314	n/a	PROB	952157	n/a	LTP287	ltpFR	7	n/a	n/a	n/a	n/a	n/a	n/a	n/a	1	7	7	6	n/a	n/a	n/a	n/a	n/a
1906.62	n/a	PROB	953310	n/a	LTP287	ltpFR	7	n/a	n/a	n/a	n/a	n/a	n/a	n/a	12	2	6	4	n/a	n/a	n/a	n/a	n/a
1908.794	n/a	PROB	954397	n/a	LTP287	ltpFR	7	n/a	n/a	n/a	n/a	n/a	n/a	n/a	20	8	8	4	n/a	n/a	n/a	n/a	n/a
1910.788	n/a	PROB	955394	n/a	LTP287	ltpFR	7	n/a	n/a	n/a	n/a	n/a	n/a	n/a	20	7	5	8	n/a	n/a	n/a	n/a	n/a
1913.662	n/a	PROB	956831	n/a	LTP287	ltpFR	7	n/a	n/a	n/a	n/a	n/a	n/a	n/a	13	3	7	3	n/a	n/a	n/a	n/a	n/a
1915.452	n/a	PROB	957726	n/a	LTP287	ltpFR	7	n/a	n/a	n/a	n/a	n/a	n/a	n/a	17	2	9	6	n/a	n/a	n/a	n/a	n/a
1918.458	n/a	STOP	959229	n/a	LTP287	ltpFR	7	n/a	n/a	n/a	n/a	n/a	n/a	n/a	n/a	n/a	n/a	n/a	n/a	n/a	n/a	n/a	n/a
1920.254	n/a	WORD	960127	wordpools/wasnorm_wordpool_less_exclusions.txt	LTP287	ltpFR	7	5	1	BIRD	129	n/a	n/a	1	n/a	0	0	0	0.422607421875	0.5869140625	0	upper	amplitud.ttf
1923.27	n/a	START	961635	n/a	LTP287	ltpFR	7	n/a	n/a	n/a	n/a	n/a	n/a	n/a	n/a	n/a	n/a	n/a	n/a	n/a	n/a	n/a	n/a
1924.152	n/a	PROB	962076	n/a	LTP287	ltpFR	7	n/a	n/a	n/a	n/a	n/a	n/a	n/a	18	8	8	2	n/a	n/a	n/a	n/a	n/a
1926.934	n/a	PROB	963467	n/a	LTP287	ltpFR	7	n/a	n/a	n/a	n/a	n/a	n/a	n/a	17	8	5	4	n/a	n/a	n/a	n/a	n/a
1929.524	n/a	PROB	964762	n/a	LTP287	ltpFR	7	n/a	n/a	n/a	n/a	n/a	n/a	n/a	13	9	3	1	n/a	n/a	n/a	n/a	n/a
1932.602	n/a	PROB	966301	n/a	LTP287	ltpFR	7	n/a	n/a	n/a	n/a	n/a	n/a	n/a	13	3	7	3	n/a	n/a	n/a	n/a	n/a
1933.922	n/a	PROB	966961	n/a	LTP287	ltpFR	7	n/a	n/a	n/a	n/a	n/a	n/a	n/a	11	2	6	3	n/a	n/a	n/a	n/a	n/a
1936.92	n/a	PROB	968460	n/a	LTP287	ltpFR	7	n/a	n/a	n/a	n/a	n/a	n/a	n/a	7	5	1	1	n/a	n/a	n/a	n/a	n/a
1938.474	n/a	STOP	969237	n/a	LTP287	ltpFR	7	n/a	n/a	n/a	n/a	n/a	n/a	n/a	n/a	n/a	n/a	n/a	n/a	n/a	n/a	n/a	n/a
1940.352	n/a	WORD	970176	wordpools/wasnorm_wordpool_less_exclusions.txt	LTP287	ltpFR	7	5	1	SPARROW	1347	n/a	n/a	1	n/a	0	0	0	0.422607421875	0.5869140625	0	upper	amplitud.ttf
1943.364	n/a	START	971682	n/a	LTP287	ltpFR	7	n/a	n/a	n/a	n/a	n/a	n/a	n/a	n/a	n/a	n/a	n/a	n/a	n/a	n/a	n/a	n/a
1944.43	n/a	PROB	972215	n/a	LTP287	ltpFR	7	n/a	n/a	n/a	n/a	n/a	n/a	n/a	15	8	5	2	n/a	n/a	n/a	n/a	n/a
1948.094	n/a	PROB	974047	n/a	LTP287	ltpFR	7	n/a	n/a	n/a	n/a	n/a	n/a	n/a	16	3	5	8	n/a	n/a	n/a	n/a	n/a
1950.42	n/a	PROB	975210	n/a	LTP287	ltpFR	7	n/a	n/a	n/a	n/a	n/a	n/a	n/a	16	5	8	3	n/a	n/a	n/a	n/a	n/a
1951.942	n/a	PROB	975971	n/a	LTP287	ltpFR	7	n/a	n/a	n/a	n/a	n/a	n/a	n/a	11	2	3	6	n/a	n/a	n/a	n/a	n/a
1954.304	n/a	PROB	977152	n/a	LTP287	ltpFR	7	n/a	n/a	n/a	n/a	n/a	n/a	n/a	20	7	7	6	n/a	n/a	n/a	n/a	n/a
1956.442	n/a	PROB	978221	n/a	LTP287	ltpFR	7	n/a	n/a	n/a	n/a	n/a	n/a	n/a	11	3	6	2	n/a	n/a	n/a	n/a	n/a
1958.378	n/a	STOP	979189	n/a	LTP287	ltpFR	7	n/a	n/a	n/a	n/a	n/a	n/a	n/a	n/a	n/a	n/a	n/a	n/a	n/a	n/a	n/a	n/a
1960.424	n/a	WORD	980212	wordpools/wasnorm_wordpool_less_exclusions.txt	LTP287	ltpFR	7	5	1	CALF	222	n/a	n/a	1	n/a	0	0	0	0.422607421875	0.5869140625	0	upper	amplitud.ttf
1963.44	n/a	START	981720	n/a	LTP287	ltpFR	7	n/a	n/a	n/a	n/a	n/a	n/a	n/a	n/a	n/a	n/a	n/a	n/a	n/a	n/a	n/a	n/a
1964.39	n/a	PROB	982195	n/a	LTP287	ltpFR	7	n/a	n/a	n/a	n/a	n/a	n/a	n/a	15	4	5	8	n/a	n/a	n/a	n/a	n/a
1966.468	n/a	PROB	983234	n/a	LTP287	ltpFR	7	n/a	n/a	n/a	n/a	n/a	n/a	n/a	21	5	8	8	n/a	n/a	n/a	n/a	n/a
1969.124	n/a	PROB	984562	n/a	LTP287	ltpFR	7	n/a	n/a	n/a	n/a	n/a	n/a	n/a	10	2	6	2	n/a	n/a	n/a	n/a	n/a
1971.618	n/a	PROB	985809	n/a	LTP287	ltpFR	7	n/a	n/a	n/a	n/a	n/a	n/a	n/a	20	6	6	8	n/a	n/a	n/a	n/a	n/a
1973.776	n/a	PROB	986888	n/a	LTP287	ltpFR	7	n/a	n/a	n/a	n/a	n/a	n/a	n/a	22	9	8	5	n/a	n/a	n/a	n/a	n/a
1976.774	n/a	PROB	988387	n/a	LTP287	ltpFR	7	n/a	n/a	n/a	n/a	n/a	n/a	n/a	19	1	5	3	n/a	n/a	n/a	n/a	n/a
1979.22	n/a	STOP	989610	n/a	LTP287	ltpFR	7	n/a	n/a	n/a	n/a	n/a	n/a	n/a	n/a	n/a	n/a	n/a	n/a	n/a	n/a	n/a	n/a
1980.334	n/a	WORD	990167	wordpools/wasnorm_wordpool_less_exclusions.txt	LTP287	ltpFR	7	5	1	SWIMMER	1420	n/a	n/a	1	n/a	0	0	0	0.422607421875	0.5869140625	0	upper	amplitud.ttf
1983.35	n/a	START	991675	n/a	LTP287	ltpFR	7	n/a	n/a	n/a	n/a	n/a	n/a	n/a	n/a	n/a	n/a	n/a	n/a	n/a	n/a	n/a	n/a
1984.386	n/a	PROB	992193	n/a	LTP287	ltpFR	7	n/a	n/a	n/a	n/a	n/a	n/a	n/a	19	9	4	8	n/a	n/a	n/a	n/a	n/a
1986.712	n/a	PROB	993356	n/a	LTP287	ltpFR	7	n/a	n/a	n/a	n/a	n/a	n/a	n/a	13	3	3	7	n/a	n/a	n/a	n/a	n/a
1988.516	n/a	PROB	994258	n/a	LTP287	ltpFR	7	n/a	n/a	n/a	n/a	n/a	n/a	n/a	13	2	2	9	n/a	n/a	n/a	n/a	n/a
1990.874	n/a	PROB	995437	n/a	LTP287	ltpFR	7	n/a	n/a	n/a	n/a	n/a	n/a	n/a	20	2	9	9	n/a	n/a	n/a	n/a	n/a
1993.836	n/a	PROB	996918	n/a	LTP287	ltpFR	7	n/a	n/a	n/a	n/a	n/a	n/a	n/a	26	9	9	8	n/a	n/a	n/a	n/a	n/a
1999.35	n/a	STOP	999675	n/a	LTP287	ltpFR	7	n/a	n/a	n/a	n/a	n/a	n/a	n/a	n/a	n/a	n/a	n/a	n/a	n/a	n/a	n/a	n/a
2000.214	n/a	WORD	1000107	wordpools/wasnorm_wordpool_less_exclusions.txt	LTP287	ltpFR	7	5	1	MONK	910	n/a	n/a	1	n/a	0	0	0	0.422607421875	0.5869140625	0	upper	amplitud.ttf
2003.226	n/a	START	1001613	n/a	LTP287	ltpFR	7	n/a	n/a	n/a	n/a	n/a	n/a	n/a	n/a	n/a	n/a	n/a	n/a	n/a	n/a	n/a	n/a
2004.228	n/a	PROB	1002114	n/a	LTP287	ltpFR	7	n/a	n/a	n/a	n/a	n/a	n/a	n/a	13	9	6	4	n/a	n/a	n/a	n/a	n/a
2007.626	n/a	PROB	1003813	n/a	LTP287	ltpFR	7	n/a	n/a	n/a	n/a	n/a	n/a	n/a	16	7	6	3	n/a	n/a	n/a	n/a	n/a
2010.198	n/a	PROB	1005099	n/a	LTP287	ltpFR	7	n/a	n/a	n/a	n/a	n/a	n/a	n/a	13	2	7	4	n/a	n/a	n/a	n/a	n/a
2012.794	n/a	PROB	1006397	n/a	LTP287	ltpFR	7	n/a	n/a	n/a	n/a	n/a	n/a	n/a	15	9	9	7	n/a	n/a	n/a	n/a	n/a
2015.736	n/a	PROB	1007868	n/a	LTP287	ltpFR	7	n/a	n/a	n/a	n/a	n/a	n/a	n/a	16	4	2	8	n/a	n/a	n/a	n/a	n/a
2017.918	n/a	STOP	1008959	n/a	LTP287	ltpFR	7	n/a	n/a	n/a	n/a	n/a	n/a	n/a	n/a	n/a	n/a	n/a	n/a	n/a	n/a	n/a	n/a
2020.09	n/a	WORD	1010045	wordpools/wasnorm_wordpool_less_exclusions.txt	LTP287	ltpFR	7	5	1	PAVEMENT	1028	n/a	n/a	0	n/a	0	0	0	0.422607421875	0.5869140625	0	upper	amplitud.ttf
2023.102	n/a	START	1011551	n/a	LTP287	ltpFR	7	n/a	n/a	n/a	n/a	n/a	n/a	n/a	n/a	n/a	n/a	n/a	n/a	n/a	n/a	n/a	n/a
2024.07	n/a	PROB	1012035	n/a	LTP287	ltpFR	7	n/a	n/a	n/a	n/a	n/a	n/a	n/a	21	5	7	1	n/a	n/a	n/a	n/a	n/a
2026.146	n/a	PROB	1013073	n/a	LTP287	ltpFR	7	n/a	n/a	n/a	n/a	n/a	n/a	n/a	15	2	6	7	n/a	n/a	n/a	n/a	n/a
2028.388	n/a	PROB	1014194	n/a	LTP287	ltpFR	7	n/a	n/a	n/a	n/a	n/a	n/a	n/a	21	3	9	9	n/a	n/a	n/a	n/a	n/a
2031.198	n/a	PROB	1015599	n/a	LTP287	ltpFR	7	n/a	n/a	n/a	n/a	n/a	n/a	n/a	10	4	2	4	n/a	n/a	n/a	n/a	n/a
2033.904	n/a	PROB	1016952	n/a	LTP287	ltpFR	7	n/a	n/a	n/a	n/a	n/a	n/a	n/a	20	6	9	5	n/a	n/a	n/a	n/a	n/a
2039.102	n/a	STOP	1019551	n/a	LTP287	ltpFR	7	n/a	n/a	n/a	n/a	n/a	n/a	n/a	n/a	n/a	n/a	n/a	n/a	n/a	n/a	n/a	n/a
2040.082	n/a	WORD	1020041	wordpools/wasnorm_wordpool_less_exclusions.txt	LTP287	ltpFR	7	5	1	FIELD	562	n/a	n/a	0	n/a	0	0	0	0.422607421875	0.5869140625	0	upper	amplitud.ttf
2043.094	n/a	START	1021547	n/a	LTP287	ltpFR	7	n/a	n/a	n/a	n/a	n/a	n/a	n/a	n/a	n/a	n/a	n/a	n/a	n/a	n/a	n/a	n/a
2044.13	n/a	PROB	1022065	n/a	LTP287	ltpFR	7	n/a	n/a	n/a	n/a	n/a	n/a	n/a	16	7	2	7	n/a	n/a	n/a	n/a	n/a
2046.122	n/a	PROB	1023061	n/a	LTP287	ltpFR	7	n/a	n/a	n/a	n/a	n/a	n/a	n/a	14	4	4	6	n/a	n/a	n/a	n/a	n/a
2048.75	n/a	PROB	1024375	n/a	LTP287	ltpFR	7	n/a	n/a	n/a	n/a	n/a	n/a	n/a	28	9	9	7	n/a	n/a	n/a	n/a	n/a
2051.706	n/a	PROB	1025853	n/a	LTP287	ltpFR	7	n/a	n/a	n/a	n/a	n/a	n/a	n/a	18	9	4	5	n/a	n/a	n/a	n/a	n/a
2056.06	n/a	PROB	1028030	n/a	LTP287	ltpFR	7	n/a	n/a	n/a	n/a	n/a	n/a	n/a	19	9	8	2	n/a	n/a	n/a	n/a	n/a
2058.674	n/a	STOP	1029337	n/a	LTP287	ltpFR	7	n/a	n/a	n/a	n/a	n/a	n/a	n/a	n/a	n/a	n/a	n/a	n/a	n/a	n/a	n/a	n/a
2060.208	n/a	WORD	1030104	wordpools/wasnorm_wordpool_less_exclusions.txt	LTP287	ltpFR	7	5	1	LAGOON	795	n/a	n/a	0	n/a	0	0	0	0.422607421875	0.5869140625	0	upper	amplitud.ttf
2063.22	n/a	START	1031610	n/a	LTP287	ltpFR	7	n/a	n/a	n/a	n/a	n/a	n/a	n/a	n/a	n/a	n/a	n/a	n/a	n/a	n/a	n/a	n/a
2064.04	n/a	PROB	1032020	n/a	LTP287	ltpFR	7	n/a	n/a	n/a	n/a	n/a	n/a	n/a	12	5	3	4	n/a	n/a	n/a	n/a	n/a
2066.734	n/a	PROB	1033367	n/a	LTP287	ltpFR	7	n/a	n/a	n/a	n/a	n/a	n/a	n/a	17	6	6	5	n/a	n/a	n/a	n/a	n/a
2069.428	n/a	PROB	1034714	n/a	LTP287	ltpFR	7	n/a	n/a	n/a	n/a	n/a	n/a	n/a	17	2	9	6	n/a	n/a	n/a	n/a	n/a
2072.036	n/a	PROB	1036018	n/a	LTP287	ltpFR	7	n/a	n/a	n/a	n/a	n/a	n/a	n/a	19	7	8	4	n/a	n/a	n/a	n/a	n/a
2074.862	n/a	PROB	1037431	n/a	LTP287	ltpFR	7	n/a	n/a	n/a	n/a	n/a	n/a	n/a	12	2	3	7	n/a	n/a	n/a	n/a	n/a
2079.22	n/a	STOP	1039610	n/a	LTP287	ltpFR	7	n/a	n/a	n/a	n/a	n/a	n/a	n/a	n/a	n/a	n/a	n/a	n/a	n/a	n/a	n/a	n/a
2081.106	n/a	REC_START	1040553	n/a	LTP287	ltpFR	7	5	n/a	n/a	n/a	n/a	n/a	n/a	n/a	0	0	0	n/a	n/a	n/a	n/a	n/a
2081.83	n/a	REC_WORD	1040915	wordpools/wasnorm_wordpool_less_exclusions.txt	LTP287	ltpFR	7	5	1	LAGOON	795	n/a	n/a	0	n/a	0	0	0	n/a	n/a	n/a	n/a	n/a
2083.274	n/a	REC_WORD	1041637	wordpools/wasnorm_wordpool_less_exclusions.txt	LTP287	ltpFR	7	5	1	FRAGRANCE	599	n/a	n/a	0	n/a	0	0	0	n/a	n/a	n/a	n/a	n/a
2084.538	n/a	REC_WORD	1042269	wordpools/wasnorm_wordpool_less_exclusions.txt	LTP287	ltpFR	7	5	1	HAMBURGER	679	n/a	n/a	0	n/a	0	0	0	n/a	n/a	n/a	n/a	n/a
2085.784	n/a	REC_WORD	1042892	wordpools/wasnorm_wordpool_less_exclusions.txt	LTP287	ltpFR	7	5	1	APRON	35	n/a	n/a	0	n/a	0	0	0	n/a	n/a	n/a	n/a	n/a
2086.704	n/a	REC_WORD	1043352	wordpools/wasnorm_wordpool_less_exclusions.txt	LTP287	ltpFR	7	5	1	SHARK	1275	n/a	n/a	1	n/a	0	0	0	n/a	n/a	n/a	n/a	n/a
2088.078	n/a	REC_WORD	1044039	wordpools/wasnorm_wordpool_less_exclusions.txt	LTP287	ltpFR	7	5	1	BIRD	129	n/a	n/a	1	n/a	0	0	0	n/a	n/a	n/a	n/a	n/a
2089.0	n/a	REC_WORD	1044500	wordpools/wasnorm_wordpool_less_exclusions.txt	LTP287	ltpFR	7	5	1	SPARROW	1347	n/a	n/a	1	n/a	0	0	0	n/a	n/a	n/a	n/a	n/a
2164.456	n/a	WORD	1082228	wordpools/wasnorm_wordpool_less_exclusions.txt	LTP287	ltpFR	7	6	1	SUPERVISOR	1410	n/a	n/a	1	n/a	0	0	0	0.422607421875	0.5869140625	0	upper	amplitud.ttf
2168.524	n/a	WORD	1084262	wordpools/wasnorm_wordpool_less_exclusions.txt	LTP287	ltpFR	7	6	1	BED	110	n/a	n/a	0	n/a	0	0	0	0.422607421875	0.5869140625	0	upper	amplitud.ttf
2172.49	n/a	WORD	1086245	wordpools/wasnorm_wordpool_less_exclusions.txt	LTP287	ltpFR	7	6	1	BALLERINA	74	n/a	n/a	1	n/a	0	0	0	0.422607421875	0.5869140625	0	upper	amplitud.ttf
2176.588	n/a	WORD	1088294	wordpools/wasnorm_wordpool_less_exclusions.txt	LTP287	ltpFR	7	6	1	DRAWER	493	n/a	n/a	0	n/a	0	0	0	0.422607421875	0.5869140625	0	upper	amplitud.ttf
2180.536	n/a	WORD	1090268	wordpools/wasnorm_wordpool_less_exclusions.txt	LTP287	ltpFR	7	6	1	CLOTHES	327	n/a	n/a	0	n/a	0	0	0	0.422607421875	0.5869140625	0	upper	amplitud.ttf
2184.686	n/a	WORD	1092343	wordpools/wasnorm_wordpool_less_exclusions.txt	LTP287	ltpFR	7	6	1	CIGARETTE	309	n/a	n/a	0	n/a	0	0	0	0.422607421875	0.5869140625	0	upper	amplitud.ttf
2188.518	n/a	WORD	1094259	wordpools/wasnorm_wordpool_less_exclusions.txt	LTP287	ltpFR	7	6	1	POT	1114	n/a	n/a	0	n/a	0	0	0	0.422607421875	0.5869140625	0	upper	amplitud.ttf
2192.498	n/a	WORD	1096249	wordpools/wasnorm_wordpool_less_exclusions.txt	LTP287	ltpFR	7	6	1	DRIVEWAY	500	n/a	n/a	0	n/a	0	0	0	0.422607421875	0.5869140625	0	upper	amplitud.ttf
2196.498	n/a	WORD	1098249	wordpools/wasnorm_wordpool_less_exclusions.txt	LTP287	ltpFR	7	6	1	TREASURE	1500	n/a	n/a	0	n/a	0	0	0	0.422607421875	0.5869140625	0	upper	amplitud.ttf
2200.39	n/a	WORD	1100195	wordpools/wasnorm_wordpool_less_exclusions.txt	LTP287	ltpFR	7	6	1	ROOF	1205	n/a	n/a	0	n/a	0	0	0	0.422607421875	0.5869140625	0	upper	amplitud.ttf
2204.41	n/a	WORD	1102205	wordpools/wasnorm_wordpool_less_exclusions.txt	LTP287	ltpFR	7	6	1	CUBE	420	n/a	n/a	0	n/a	0	0	0	0.422607421875	0.5869140625	0	upper	amplitud.ttf
2208.524	n/a	WORD	1104262	wordpools/wasnorm_wordpool_less_exclusions.txt	LTP287	ltpFR	7	6	1	CAB	209	n/a	n/a	0	n/a	0	0	0	0.422607421875	0.5869140625	0	upper	amplitud.ttf
2212.66	n/a	WORD	1106330	wordpools/wasnorm_wordpool_less_exclusions.txt	LTP287	ltpFR	7	6	1	CHECK	284	n/a	n/a	0	n/a	0	0	0	0.422607421875	0.5869140625	0	upper	amplitud.ttf
2216.658	n/a	WORD	1108329	wordpools/wasnorm_wordpool_less_exclusions.txt	LTP287	ltpFR	7	6	1	ARCHITECT	36	n/a	n/a	1	n/a	0	0	0	0.422607421875	0.5869140625	0	upper	amplitud.ttf
2220.59	n/a	WORD	1110295	wordpools/wasnorm_wordpool_less_exclusions.txt	LTP287	ltpFR	7	6	1	PRESIDENT	1121	n/a	n/a	1	n/a	0	0	0	0.422607421875	0.5869140625	0	upper	amplitud.ttf
2224.47	n/a	WORD	1112235	wordpools/wasnorm_wordpool_less_exclusions.txt	LTP287	ltpFR	7	6	1	FOLLOWER	589	n/a	n/a	1	n/a	0	0	0	0.422607421875	0.5869140625	0	upper	amplitud.ttf
2227.482	n/a	START	1113741	n/a	LTP287	ltpFR	7	n/a	n/a	n/a	n/a	n/a	n/a	n/a	n/a	n/a	n/a	n/a	n/a	n/a	n/a	n/a	n/a
2228.57	n/a	PROB	1114285	n/a	LTP287	ltpFR	7	n/a	n/a	n/a	n/a	n/a	n/a	n/a	17	7	9	1	n/a	n/a	n/a	n/a	n/a
2232.314	n/a	PROB	1116157	n/a	LTP287	ltpFR	7	n/a	n/a	n/a	n/a	n/a	n/a	n/a	15	8	1	6	n/a	n/a	n/a	n/a	n/a
2234.762	n/a	STOP	1117381	n/a	LTP287	ltpFR	7	n/a	n/a	n/a	n/a	n/a	n/a	n/a	n/a	n/a	n/a	n/a	n/a	n/a	n/a	n/a	n/a
2237.286	n/a	REC_START	1118643	n/a	LTP287	ltpFR	7	6	n/a	n/a	n/a	n/a	n/a	n/a	n/a	0	0	0	n/a	n/a	n/a	n/a	n/a
2237.842	n/a	REC_WORD	1118921	wordpools/wasnorm_wordpool_less_exclusions.txt	LTP287	ltpFR	7	6	1	SUPERVISOR	1410	n/a	n/a	1	n/a	0	0	0	n/a	n/a	n/a	n/a	n/a
2239.456	n/a	REC_WORD	1119728	wordpools/wasnorm_wordpool_less_exclusions.txt	LTP287	ltpFR	7	6	1	ARCHITECT	36	n/a	n/a	1	n/a	0	0	0	n/a	n/a	n/a	n/a	n/a
2240.886	n/a	REC_WORD	1120443	wordpools/wasnorm_wordpool_less_exclusions.txt	LTP287	ltpFR	7	6	1	BED	110	n/a	n/a	0	n/a	0	0	0	n/a	n/a	n/a	n/a	n/a
2244.926	n/a	REC_WORD	1122463	wordpools/wasnorm_wordpool_less_exclusions.txt	LTP287	ltpFR	7	6	1	BALLERINA	74	n/a	n/a	1	n/a	0	0	0	n/a	n/a	n/a	n/a	n/a
2246.116	n/a	REC_WORD	1123058	wordpools/wasnorm_wordpool_less_exclusions.txt	LTP287	ltpFR	7	6	1	DRAWER	493	n/a	n/a	0	n/a	0	0	0	n/a	n/a	n/a	n/a	n/a
2247.298	n/a	REC_WORD	1123649	wordpools/wasnorm_wordpool_less_exclusions.txt	LTP287	ltpFR	7	6	1	CLOTHES	327	n/a	n/a	0	n/a	0	0	0	n/a	n/a	n/a	n/a	n/a
2251.972	n/a	REC_WORD	1125986	wordpools/wasnorm_wordpool_less_exclusions.txt	LTP287	ltpFR	7	6	1	PRESIDENT	1121	n/a	n/a	1	n/a	0	0	0	n/a	n/a	n/a	n/a	n/a
2275.354	n/a	REC_WORD	1137677	wordpools/wasnorm_wordpool_less_exclusions.txt	LTP287	ltpFR	7	6	1	POT	1114	n/a	n/a	0	n/a	0	0	0	n/a	n/a	n/a	n/a	n/a
2276.398	n/a	REC_WORD	1138199	wordpools/wasnorm_wordpool_less_exclusions.txt	LTP287	ltpFR	7	6	1	CIGARETTE	309	n/a	n/a	0	n/a	0	0	0	n/a	n/a	n/a	n/a	n/a
2312.942	n/a	REST_REWET	1156471	n/a	LTP287	ltpFR	7	6	n/a	n/a	n/a	n/a	n/a	n/a	n/a	0	0	0	n/a	n/a	n/a	n/a	n/a
2480.464	n/a	WORD	1240232	wordpools/wasnorm_wordpool_less_exclusions.txt	LTP287	ltpFR	7	7	0	GOVERNOR	651	n/a	n/a	1	n/a	0	0	0	0.57763671875	0.412841796875	1	lower	zerothre.ttf
2484.48	n/a	WORD	1242240	wordpools/wasnorm_wordpool_less_exclusions.txt	LTP287	ltpFR	7	7	0	POLITICIAN	1099	n/a	n/a	1	n/a	0	0	0	0.57763671875	0.412841796875	1	lower	zerothre.ttf
2488.412	n/a	WORD	1244206	wordpools/wasnorm_wordpool_less_exclusions.txt	LTP287	ltpFR	7	7	0	PICNIC	1060	n/a	n/a	0	n/a	0	0	0	0.57763671875	0.412841796875	1	lower	zerothre.ttf
2492.462	n/a	WORD	1246231	wordpools/wasnorm_wordpool_less_exclusions.txt	LTP287	ltpFR	7	7	0	BIBLE	124	n/a	n/a	0	n/a	0	0	0	0.57763671875	0.412841796875	1	lower	zerothre.ttf
2496.342	n/a	WORD	1248171	wordpools/wasnorm_wordpool_less_exclusions.txt	LTP287	ltpFR	7	7	0	CHAPEL	280	n/a	n/a	1	n/a	0	0	0	0.57763671875	0.412841796875	1	lower	zerothre.ttf
2500.224	n/a	WORD	1250112	wordpools/wasnorm_wordpool_less_exclusions.txt	LTP287	ltpFR	7	7	0	STRAWBERRY	1391	n/a	n/a	0	n/a	0	0	0	0.57763671875	0.412841796875	1	lower	zerothre.ttf
2504.172	n/a	WORD	1252086	wordpools/wasnorm_wordpool_less_exclusions.txt	LTP287	ltpFR	7	7	0	COPIER	377	n/a	n/a	1	n/a	0	0	0	0.57763671875	0.412841796875	1	lower	zerothre.ttf
2508.338	n/a	WORD	1254169	wordpools/wasnorm_wordpool_less_exclusions.txt	LTP287	ltpFR	7	7	0	KITCHEN	778	n/a	n/a	1	n/a	0	0	0	0.57763671875	0.412841796875	1	lower	zerothre.ttf
2512.556	n/a	WORD	1256278	wordpools/wasnorm_wordpool_less_exclusions.txt	LTP287	ltpFR	7	7	0	RASPBERRY	1168	n/a	n/a	0	n/a	0	0	0	0.57763671875	0.412841796875	1	lower	zerothre.ttf
2516.584	n/a	WORD	1258292	wordpools/wasnorm_wordpool_less_exclusions.txt	LTP287	ltpFR	7	7	0	JOURNAL	760	n/a	n/a	0	n/a	0	0	0	0.57763671875	0.412841796875	1	lower	zerothre.ttf
2520.686	n/a	WORD	1260343	wordpools/wasnorm_wordpool_less_exclusions.txt	LTP287	ltpFR	7	7	0	BUCKET	184	n/a	n/a	0	n/a	0	0	0	0.57763671875	0.412841796875	1	lower	zerothre.ttf
2524.732	n/a	WORD	1262366	wordpools/wasnorm_wordpool_less_exclusions.txt	LTP287	ltpFR	7	7	0	ZUCCHINI	1638	n/a	n/a	0	n/a	0	0	0	0.57763671875	0.412841796875	1	lower	zerothre.ttf
2528.7	n/a	WORD	1264350	wordpools/wasnorm_wordpool_less_exclusions.txt	LTP287	ltpFR	7	7	0	SCENERY	1247	n/a	n/a	0	n/a	0	0	0	0.57763671875	0.412841796875	1	lower	zerothre.ttf
2532.898	n/a	WORD	1266449	wordpools/wasnorm_wordpool_less_exclusions.txt	LTP287	ltpFR	7	7	0	BLANKET	135	n/a	n/a	1	n/a	0	0	0	0.57763671875	0.412841796875	1	lower	zerothre.ttf
2537.014	n/a	WORD	1268507	wordpools/wasnorm_wordpool_less_exclusions.txt	LTP287	ltpFR	7	7	0	COB	334	n/a	n/a	0	n/a	0	0	0	0.57763671875	0.412841796875	1	lower	zerothre.ttf
2541.126	n/a	WORD	1270563	wordpools/wasnorm_wordpool_less_exclusions.txt	LTP287	ltpFR	7	7	0	FLEET	578	n/a	n/a	1	n/a	0	0	0	0.57763671875	0.412841796875	1	lower	zerothre.ttf
2547.07	n/a	REC_START	1273535	n/a	LTP287	ltpFR	7	7	n/a	n/a	n/a	n/a	n/a	n/a	n/a	0	0	0	n/a	n/a	n/a	n/a	n/a
2547.776	n/a	REC_WORD	1273888	wordpools/wasnorm_wordpool_less_exclusions.txt	LTP287	ltpFR	7	7	0	FLEET	578	n/a	n/a	1	n/a	0	0	0	n/a	n/a	n/a	n/a	n/a
2549.026	n/a	REC_WORD	1274513	wordpools/wasnorm_wordpool_less_exclusions.txt	LTP287	ltpFR	7	7	0	PICNIC	1060	n/a	n/a	0	n/a	0	0	0	n/a	n/a	n/a	n/a	n/a
2550.28	n/a	REC_WORD	1275140	wordpools/wasnorm_wordpool_less_exclusions.txt	LTP287	ltpFR	7	7	0	GOVERNOR	651	n/a	n/a	1	n/a	0	0	0	n/a	n/a	n/a	n/a	n/a
2551.302	n/a	REC_WORD	1275651	wordpools/wasnorm_wordpool_less_exclusions.txt	LTP287	ltpFR	7	7	0	POLITICIAN	1099	n/a	n/a	1	n/a	0	0	0	n/a	n/a	n/a	n/a	n/a
2552.75	n/a	REC_WORD	1276375	wordpools/wasnorm_wordpool_less_exclusions.txt	LTP287	ltpFR	7	7	0	BLANKET	135	n/a	n/a	1	n/a	0	0	0	n/a	n/a	n/a	n/a	n/a
2554.386	n/a	REC_WORD	1277193	wordpools/wasnorm_wordpool_less_exclusions.txt	LTP287	ltpFR	7	7	0	STRAWBERRY	1391	n/a	n/a	0	n/a	0	0	0	n/a	n/a	n/a	n/a	n/a
2555.81	n/a	REC_WORD	1277905	wordpools/wasnorm_wordpool_less_exclusions.txt	LTP287	ltpFR	7	7	0	RASPBERRY	1168	n/a	n/a	0	n/a	0	0	0	n/a	n/a	n/a	n/a	n/a
2560.962	n/a	REC_WORD	1280481	wordpools/wasnorm_wordpool_less_exclusions.txt	LTP287	ltpFR	7	7	0	SCENERY	1247	n/a	n/a	0	n/a	0	0	0	n/a	n/a	n/a	n/a	n/a
2562.662	n/a	REC_WORD	1281331	wordpools/wasnorm_wordpool_less_exclusions.txt	LTP287	ltpFR	7	7	0	CHAPEL	280	n/a	n/a	1	n/a	0	0	0	n/a	n/a	n/a	n/a	n/a
2563.952	n/a	REC_WORD	1281976	wordpools/wasnorm_wordpool_less_exclusions.txt	LTP287	ltpFR	7	7	0	BIBLE	124	n/a	n/a	0	n/a	0	0	0	n/a	n/a	n/a	n/a	n/a
2565.12	n/a	REC_WORD	1282560	wordpools/wasnorm_wordpool_less_exclusions.txt	LTP287	ltpFR	7	7	0	JOURNAL	760	n/a	n/a	0	n/a	0	0	0	n/a	n/a	n/a	n/a	n/a
2628.364	n/a	WORD	1314182	wordpools/wasnorm_wordpool_less_exclusions.txt	LTP287	ltpFR	7	8	1	HANDKERCHIEF	686	n/a	n/a	0	n/a	0	0	0	0.422607421875	0.5869140625	0	upper	amplitud.ttf
2632.346	n/a	WORD	1316173	wordpools/wasnorm_wordpool_less_exclusions.txt	LTP287	ltpFR	7	8	1	NOSE	957	n/a	n/a	0	n/a	0	0	0	0.422607421875	0.5869140625	0	upper	amplitud.ttf
2636.562	n/a	WORD	1318281	wordpools/wasnorm_wordpool_less_exclusions.txt	LTP287	ltpFR	7	8	1	BEE	112	n/a	n/a	1	n/a	0	0	0	0.422607421875	0.5869140625	0	upper	amplitud.ttf
2640.408	n/a	WORD	1320204	wordpools/wasnorm_wordpool_less_exclusions.txt	LTP287	ltpFR	7	8	1	MOSS	918	n/a	n/a	1	n/a	0	0	0	0.422607421875	0.5869140625	0	upper	amplitud.ttf
2644.258	n/a	WORD	1322129	wordpools/wasnorm_wordpool_less_exclusions.txt	LTP287	ltpFR	7	8	1	SLACKS	1323	n/a	n/a	0	n/a	0	0	0	0.422607421875	0.5869140625	0	upper	amplitud.ttf
2648.374	n/a	WORD	1324187	wordpools/wasnorm_wordpool_less_exclusions.txt	LTP287	ltpFR	7	8	1	DETERGENT	455	n/a	n/a	0	n/a	0	0	0	0.422607421875	0.5869140625	0	upper	amplitud.ttf
2652.418	n/a	WORD	1326209	wordpools/wasnorm_wordpool_less_exclusions.txt	LTP287	ltpFR	7	8	1	CANDIDATE	228	n/a	n/a	1	n/a	0	0	0	0.422607421875	0.5869140625	0	upper	amplitud.ttf
2656.266	n/a	WORD	1328133	wordpools/wasnorm_wordpool_less_exclusions.txt	LTP287	ltpFR	7	8	1	MAID	856	n/a	n/a	1	n/a	0	0	0	0.422607421875	0.5869140625	0	upper	amplitud.ttf
2660.452	n/a	WORD	1330226	wordpools/wasnorm_wordpool_less_exclusions.txt	LTP287	ltpFR	7	8	1	SAPPHIRE	1234	n/a	n/a	0	n/a	0	0	0	0.422607421875	0.5869140625	0	upper	amplitud.ttf
2664.536	n/a	WORD	1332268	wordpools/wasnorm_wordpool_less_exclusions.txt	LTP287	ltpFR	7	8	1	TELEPHONE	1445	n/a	n/a	0	n/a	0	0	0	0.422607421875	0.5869140625	0	upper	amplitud.ttf
2668.552	n/a	WORD	1334276	wordpools/wasnorm_wordpool_less_exclusions.txt	LTP287	ltpFR	7	8	1	HORNET	718	n/a	n/a	1	n/a	0	0	0	0.422607421875	0.5869140625	0	upper	amplitud.ttf
2672.58	n/a	WORD	1336290	wordpools/wasnorm_wordpool_less_exclusions.txt	LTP287	ltpFR	7	8	1	SIREN	1310	n/a	n/a	0	n/a	0	0	0	0.422607421875	0.5869140625	0	upper	amplitud.ttf
2676.732	n/a	WORD	1338366	wordpools/wasnorm_wordpool_less_exclusions.txt	LTP287	ltpFR	7	8	1	DETECTIVE	454	n/a	n/a	1	n/a	0	0	0	0.422607421875	0.5869140625	0	upper	amplitud.ttf
2680.646	n/a	WORD	1340323	wordpools/wasnorm_wordpool_less_exclusions.txt	LTP287	ltpFR	7	8	1	TAG	1429	n/a	n/a	0	n/a	0	0	0	0.422607421875	0.5869140625	0	upper	amplitud.ttf
2684.726	n/a	WORD	1342363	wordpools/wasnorm_wordpool_less_exclusions.txt	LTP287	ltpFR	7	8	1	SKIRT	1319	n/a	n/a	0	n/a	0	0	0	0.422607421875	0.5869140625	0	upper	amplitud.ttf
2688.678	n/a	WORD	1344339	wordpools/wasnorm_wordpool_less_exclusions.txt	LTP287	ltpFR	7	8	1	SHORTS	1293	n/a	n/a	0	n/a	0	0	0	0.422607421875	0.5869140625	0	upper	amplitud.ttf
2691.69	n/a	START	1345845	n/a	LTP287	ltpFR	7	n/a	n/a	n/a	n/a	n/a	n/a	n/a	n/a	n/a	n/a	n/a	n/a	n/a	n/a	n/a	n/a
2692.576	n/a	PROB	1346288	n/a	LTP287	ltpFR	7	n/a	n/a	n/a	n/a	n/a	n/a	n/a	10	1	2	7	n/a	n/a	n/a	n/a	n/a
2695.0	n/a	PROB	1347500	n/a	LTP287	ltpFR	7	n/a	n/a	n/a	n/a	n/a	n/a	n/a	21	4	9	7	n/a	n/a	n/a	n/a	n/a
2697.862	n/a	PROB	1348931	n/a	LTP287	ltpFR	7	n/a	n/a	n/a	n/a	n/a	n/a	n/a	15	7	9	7	n/a	n/a	n/a	n/a	n/a
2699.516	n/a	PROB	1349758	n/a	LTP287	ltpFR	7	n/a	n/a	n/a	n/a	n/a	n/a	n/a	21	6	7	8	n/a	n/a	n/a	n/a	n/a
2702.514	n/a	PROB	1351257	n/a	LTP287	ltpFR	7	n/a	n/a	n/a	n/a	n/a	n/a	n/a	13	5	9	9	n/a	n/a	n/a	n/a	n/a
2704.774	n/a	PROB	1352387	n/a	LTP287	ltpFR	7	n/a	n/a	n/a	n/a	n/a	n/a	n/a	8	2	5	1	n/a	n/a	n/a	n/a	n/a
2706.89	n/a	STOP	1353445	n/a	LTP287	ltpFR	7	n/a	n/a	n/a	n/a	n/a	n/a	n/a	n/a	n/a	n/a	n/a	n/a	n/a	n/a	n/a	n/a
2709.542	n/a	REC_START	1354771	n/a	LTP287	ltpFR	7	8	n/a	n/a	n/a	n/a	n/a	n/a	n/a	0	0	0	n/a	n/a	n/a	n/a	n/a
2710.15	n/a	REC_WORD	1355075	wordpools/wasnorm_wordpool_less_exclusions.txt	LTP287	ltpFR	7	8	1	HORNET	718	n/a	n/a	1	n/a	0	0	0	n/a	n/a	n/a	n/a	n/a
2711.69	n/a	REC_WORD	1355845	wordpools/wasnorm_wordpool_less_exclusions.txt	LTP287	ltpFR	7	8	1	BEE	112	n/a	n/a	1	n/a	0	0	0	n/a	n/a	n/a	n/a	n/a
2712.678	n/a	REC_WORD	1356339	wordpools/wasnorm_wordpool_less_exclusions.txt	LTP287	ltpFR	7	8	1	NOSE	957	n/a	n/a	0	n/a	0	0	0	n/a	n/a	n/a	n/a	n/a
2713.81	n/a	REC_WORD	1356905	wordpools/wasnorm_wordpool_less_exclusions.txt	LTP287	ltpFR	7	8	1	HANDKERCHIEF	686	n/a	n/a	0	n/a	0	0	0	n/a	n/a	n/a	n/a	n/a
2714.948	n/a	REC_WORD	1357474	wordpools/wasnorm_wordpool_less_exclusions.txt	LTP287	ltpFR	7	8	1	MOSS	918	n/a	n/a	1	n/a	0	0	0	n/a	n/a	n/a	n/a	n/a
2716.192	n/a	REC_WORD	1358096	wordpools/wasnorm_wordpool_less_exclusions.txt	LTP287	ltpFR	7	8	1	TAG	1429	n/a	n/a	0	n/a	0	0	0	n/a	n/a	n/a	n/a	n/a
2717.58	n/a	REC_WORD	1358790	wordpools/wasnorm_wordpool_less_exclusions.txt	LTP287	ltpFR	7	8	1	CANDIDATE	228	n/a	n/a	1	n/a	0	0	0	n/a	n/a	n/a	n/a	n/a
2723.264	n/a	REC_WORD	1361632	wordpools/wasnorm_wordpool_less_exclusions.txt	LTP287	ltpFR	7	8	1	MAID	856	n/a	n/a	1	n/a	0	0	0	n/a	n/a	n/a	n/a	n/a
2747.494	n/a	REC_WORD	1373747	wordpools/wasnorm_wordpool_less_exclusions.txt	LTP287	ltpFR	7	8	1	DETERGENT	455	n/a	n/a	0	n/a	0	0	0	n/a	n/a	n/a	n/a	n/a
2792.156	n/a	START	1396078	n/a	LTP287	ltpFR	7	n/a	n/a	n/a	n/a	n/a	n/a	n/a	n/a	n/a	n/a	n/a	n/a	n/a	n/a	n/a	n/a
2793.662	n/a	PROB	1396831	n/a	LTP287	ltpFR	7	n/a	n/a	n/a	n/a	n/a	n/a	n/a	12	8	4	8	n/a	n/a	n/a	n/a	n/a
2795.234	n/a	PROB	1397617	n/a	LTP287	ltpFR	7	n/a	n/a	n/a	n/a	n/a	n/a	n/a	13	8	1	2	n/a	n/a	n/a	n/a	n/a
2797.426	n/a	PROB	1398713	n/a	LTP287	ltpFR	7	n/a	n/a	n/a	n/a	n/a	n/a	n/a	22	4	9	9	n/a	n/a	n/a	n/a	n/a
2799.992	n/a	STOP	1399996	n/a	LTP287	ltpFR	7	n/a	n/a	n/a	n/a	n/a	n/a	n/a	n/a	n/a	n/a	n/a	n/a	n/a	n/a	n/a	n/a
2801.174	n/a	WORD	1400587	wordpools/wasnorm_wordpool_less_exclusions.txt	LTP287	ltpFR	7	9	1	WALL	1582	n/a	n/a	0	n/a	0	0	0	0.422607421875	0.5869140625	0	upper	amplitud.ttf
2804.186	n/a	START	1402093	n/a	LTP287	ltpFR	7	n/a	n/a	n/a	n/a	n/a	n/a	n/a	n/a	n/a	n/a	n/a	n/a	n/a	n/a	n/a	n/a
2805.27	n/a	PROB	1402635	n/a	LTP287	ltpFR	7	n/a	n/a	n/a	n/a	n/a	n/a	n/a	12	3	5	4	n/a	n/a	n/a	n/a	n/a
2807.346	n/a	PROB	1403673	n/a	LTP287	ltpFR	7	n/a	n/a	n/a	n/a	n/a	n/a	n/a	16	8	8	2	n/a	n/a	n/a	n/a	n/a
2812.184	n/a	STOP	1406092	n/a	LTP287	ltpFR	7	n/a	n/a	n/a	n/a	n/a	n/a	n/a	n/a	n/a	n/a	n/a	n/a	n/a	n/a	n/a	n/a
2813.136	n/a	WORD	1406568	wordpools/wasnorm_wordpool_less_exclusions.txt	LTP287	ltpFR	7	9	1	WAVE	1596	n/a	n/a	0	n/a	0	0	0	0.422607421875	0.5869140625	0	upper	amplitud.ttf
2816.148	n/a	START	1408074	n/a	LTP287	ltpFR	7	n/a	n/a	n/a	n/a	n/a	n/a	n/a	n/a	n/a	n/a	n/a	n/a	n/a	n/a	n/a	n/a
2817.348	n/a	PROB	1408674	n/a	LTP287	ltpFR	7	n/a	n/a	n/a	n/a	n/a	n/a	n/a	15	7	1	7	n/a	n/a	n/a	n/a	n/a
2819.076	n/a	PROB	1409538	n/a	LTP287	ltpFR	7	n/a	n/a	n/a	n/a	n/a	n/a	n/a	17	8	1	7	n/a	n/a	n/a	n/a	n/a
2821.414	n/a	PROB	1410707	n/a	LTP287	ltpFR	7	n/a	n/a	n/a	n/a	n/a	n/a	n/a	12	7	2	3	n/a	n/a	n/a	n/a	n/a
2824.04	n/a	STOP	1412020	n/a	LTP287	ltpFR	7	n/a	n/a	n/a	n/a	n/a	n/a	n/a	n/a	n/a	n/a	n/a	n/a	n/a	n/a	n/a	n/a
2825.014	n/a	WORD	1412507	wordpools/wasnorm_wordpool_less_exclusions.txt	LTP287	ltpFR	7	9	1	IGLOO	734	n/a	n/a	0	n/a	0	0	0	0.422607421875	0.5869140625	0	upper	amplitud.ttf
2828.026	n/a	START	1414013	n/a	LTP287	ltpFR	7	n/a	n/a	n/a	n/a	n/a	n/a	n/a	n/a	n/a	n/a	n/a	n/a	n/a	n/a	n/a	n/a
2828.896	n/a	PROB	1414448	n/a	LTP287	ltpFR	7	n/a	n/a	n/a	n/a	n/a	n/a	n/a	18	3	9	6	n/a	n/a	n/a	n/a	n/a
2831.222	n/a	PROB	1415611	n/a	LTP287	ltpFR	7	n/a	n/a	n/a	n/a	n/a	n/a	n/a	20	9	2	9	n/a	n/a	n/a	n/a	n/a
2833.012	n/a	PROB	1416506	n/a	LTP287	ltpFR	7	n/a	n/a	n/a	n/a	n/a	n/a	n/a	16	9	5	2	n/a	n/a	n/a	n/a	n/a
2835.05	n/a	STOP	1417525	n/a	LTP287	ltpFR	7	n/a	n/a	n/a	n/a	n/a	n/a	n/a	n/a	n/a	n/a	n/a	n/a	n/a	n/a	n/a	n/a
2837.228	n/a	WORD	1418614	wordpools/wasnorm_wordpool_less_exclusions.txt	LTP287	ltpFR	7	9	1	DICE	461	n/a	n/a	0	n/a	0	0	0	0.422607421875	0.5869140625	0	upper	amplitud.ttf
2840.24	n/a	START	1420120	n/a	LTP287	ltpFR	7	n/a	n/a	n/a	n/a	n/a	n/a	n/a	n/a	n/a	n/a	n/a	n/a	n/a	n/a	n/a	n/a
2841.142	n/a	PROB	1420571	n/a	LTP287	ltpFR	7	n/a	n/a	n/a	n/a	n/a	n/a	n/a	16	7	7	2	n/a	n/a	n/a	n/a	n/a
2842.734	n/a	PROB	1421367	n/a	LTP287	ltpFR	7	n/a	n/a	n/a	n/a	n/a	n/a	n/a	17	6	6	5	n/a	n/a	n/a	n/a	n/a
2844.908	n/a	PROB	1422454	n/a	LTP287	ltpFR	7	n/a	n/a	n/a	n/a	n/a	n/a	n/a	8	2	2	4	n/a	n/a	n/a	n/a	n/a
2846.43	n/a	PROB	1423215	n/a	LTP287	ltpFR	7	n/a	n/a	n/a	n/a	n/a	n/a	n/a	20	8	6	6	n/a	n/a	n/a	n/a	n/a
2848.034	n/a	STOP	1424017	n/a	LTP287	ltpFR	7	n/a	n/a	n/a	n/a	n/a	n/a	n/a	n/a	n/a	n/a	n/a	n/a	n/a	n/a	n/a	n/a
2849.224	n/a	WORD	1424612	wordpools/wasnorm_wordpool_less_exclusions.txt	LTP287	ltpFR	7	9	1	SANDWICH	1232	n/a	n/a	0	n/a	0	0	0	0.422607421875	0.5869140625	0	upper	amplitud.ttf
2852.236	n/a	START	1426118	n/a	LTP287	ltpFR	7	n/a	n/a	n/a	n/a	n/a	n/a	n/a	n/a	n/a	n/a	n/a	n/a	n/a	n/a	n/a	n/a
2853.19	n/a	PROB	1426595	n/a	LTP287	ltpFR	7	n/a	n/a	n/a	n/a	n/a	n/a	n/a	15	7	5	2	n/a	n/a	n/a	n/a	n/a
2856.432	n/a	PROB	1428216	n/a	LTP287	ltpFR	7	n/a	n/a	n/a	n/a	n/a	n/a	n/a	10	1	6	3	n/a	n/a	n/a	n/a	n/a
2859.258	n/a	STOP	1429629	n/a	LTP287	ltpFR	7	n/a	n/a	n/a	n/a	n/a	n/a	n/a	n/a	n/a	n/a	n/a	n/a	n/a	n/a	n/a	n/a
2861.27	n/a	WORD	1430635	wordpools/wasnorm_wordpool_less_exclusions.txt	LTP287	ltpFR	7	9	1	AWARD	63	n/a	n/a	0	n/a	0	0	0	0.422607421875	0.5869140625	0	upper	amplitud.ttf
2864.282	n/a	START	1432141	n/a	LTP287	ltpFR	7	n/a	n/a	n/a	n/a	n/a	n/a	n/a	n/a	n/a	n/a	n/a	n/a	n/a	n/a	n/a	n/a
2865.418	n/a	PROB	1432709	n/a	LTP287	ltpFR	7	n/a	n/a	n/a	n/a	n/a	n/a	n/a	19	9	9	1	n/a	n/a	n/a	n/a	n/a
2867.678	n/a	PROB	1433839	n/a	LTP287	ltpFR	7	n/a	n/a	n/a	n/a	n/a	n/a	n/a	19	3	9	7	n/a	n/a	n/a	n/a	n/a
2872.282	n/a	STOP	1436141	n/a	LTP287	ltpFR	7	n/a	n/a	n/a	n/a	n/a	n/a	n/a	n/a	n/a	n/a	n/a	n/a	n/a	n/a	n/a	n/a
2873.5	n/a	WORD	1436750	wordpools/wasnorm_wordpool_less_exclusions.txt	LTP287	ltpFR	7	9	1	HIKER	708	n/a	n/a	1	n/a	0	0	0	0.422607421875	0.5869140625	0	upper	amplitud.ttf
2876.514	n/a	START	1438257	n/a	LTP287	ltpFR	7	n/a	n/a	n/a	n/a	n/a	n/a	n/a	n/a	n/a	n/a	n/a	n/a	n/a	n/a	n/a	n/a
2877.332	n/a	PROB	1438666	n/a	LTP287	ltpFR	7	n/a	n/a	n/a	n/a	n/a	n/a	n/a	18	8	8	2	n/a	n/a	n/a	n/a	n/a
2879.604	n/a	PROB	1439802	n/a	LTP287	ltpFR	7	n/a	n/a	n/a	n/a	n/a	n/a	n/a	15	2	9	3	n/a	n/a	n/a	n/a	n/a
2884.512	n/a	STOP	1442256	n/a	LTP287	ltpFR	7	n/a	n/a	n/a	n/a	n/a	n/a	n/a	n/a	n/a	n/a	n/a	n/a	n/a	n/a	n/a	n/a
2885.396	n/a	WORD	1442698	wordpools/wasnorm_wordpool_less_exclusions.txt	LTP287	ltpFR	7	9	1	THUMB	1462	n/a	n/a	0	n/a	0	0	0	0.422607421875	0.5869140625	0	upper	amplitud.ttf
2888.408	n/a	START	1444204	n/a	LTP287	ltpFR	7	n/a	n/a	n/a	n/a	n/a	n/a	n/a	n/a	n/a	n/a	n/a	n/a	n/a	n/a	n/a	n/a
2889.426	n/a	PROB	1444713	n/a	LTP287	ltpFR	7	n/a	n/a	n/a	n/a	n/a	n/a	n/a	18	1	6	9	n/a	n/a	n/a	n/a	n/a
2891.938	n/a	PROB	1445969	n/a	LTP287	ltpFR	7	n/a	n/a	n/a	n/a	n/a	n/a	n/a	9	3	3	3	n/a	n/a	n/a	n/a	n/a
2893.528	n/a	PROB	1446764	n/a	LTP287	ltpFR	7	n/a	n/a	n/a	n/a	n/a	n/a	n/a	14	6	6	2	n/a	n/a	n/a	n/a	n/a
2895.774	n/a	STOP	1447887	n/a	LTP287	ltpFR	7	n/a	n/a	n/a	n/a	n/a	n/a	n/a	n/a	n/a	n/a	n/a	n/a	n/a	n/a	n/a	n/a
2897.594	n/a	WORD	1448797	wordpools/wasnorm_wordpool_less_exclusions.txt	LTP287	ltpFR	7	9	1	BOULEVARD	156	n/a	n/a	0	n/a	0	0	0	0.422607421875	0.5869140625	0	upper	amplitud.ttf
2900.606	n/a	START	1450303	n/a	LTP287	ltpFR	7	n/a	n/a	n/a	n/a	n/a	n/a	n/a	n/a	n/a	n/a	n/a	n/a	n/a	n/a	n/a	n/a
2901.524	n/a	PROB	1450762	n/a	LTP287	ltpFR	7	n/a	n/a	n/a	n/a	n/a	n/a	n/a	13	1	7	4	n/a	n/a	n/a	n/a	n/a
2904.1	n/a	PROB	1452050	n/a	LTP287	ltpFR	7	n/a	n/a	n/a	n/a	n/a	n/a	n/a	15	9	8	8	n/a	n/a	n/a	n/a	n/a
2908.604	n/a	STOP	1454302	n/a	LTP287	ltpFR	7	n/a	n/a	n/a	n/a	n/a	n/a	n/a	n/a	n/a	n/a	n/a	n/a	n/a	n/a	n/a	n/a
2909.522	n/a	WORD	1454761	wordpools/wasnorm_wordpool_less_exclusions.txt	LTP287	ltpFR	7	9	1	REFRIGERATOR	1179	n/a	n/a	0	n/a	0	0	0	0.422607421875	0.5869140625	0	upper	amplitud.ttf
2912.534	n/a	START	1456267	n/a	LTP287	ltpFR	7	n/a	n/a	n/a	n/a	n/a	n/a	n/a	n/a	n/a	n/a	n/a	n/a	n/a	n/a	n/a	n/a
2913.672	n/a	PROB	1456836	n/a	LTP287	ltpFR	7	n/a	n/a	n/a	n/a	n/a	n/a	n/a	17	7	3	7	n/a	n/a	n/a	n/a	n/a
2915.658	n/a	PROB	1457829	n/a	LTP287	ltpFR	7	n/a	n/a	n/a	n/a	n/a	n/a	n/a	18	7	5	6	n/a	n/a	n/a	n/a	n/a
2918.522	n/a	PROB	1459261	n/a	LTP287	ltpFR	7	n/a	n/a	n/a	n/a	n/a	n/a	n/a	10	2	1	7	n/a	n/a	n/a	n/a	n/a
2920.158	n/a	STOP	1460079	n/a	LTP287	ltpFR	7	n/a	n/a	n/a	n/a	n/a	n/a	n/a	n/a	n/a	n/a	n/a	n/a	n/a	n/a	n/a	n/a
2921.466	n/a	WORD	1460733	wordpools/wasnorm_wordpool_less_exclusions.txt	LTP287	ltpFR	7	9	1	RADISH	1158	n/a	n/a	1	n/a	0	0	0	0.422607421875	0.5869140625	0	upper	amplitud.ttf
2924.478	n/a	START	1462239	n/a	LTP287	ltpFR	7	n/a	n/a	n/a	n/a	n/a	n/a	n/a	n/a	n/a	n/a	n/a	n/a	n/a	n/a	n/a	n/a
2925.546	n/a	PROB	1462773	n/a	LTP287	ltpFR	7	n/a	n/a	n/a	n/a	n/a	n/a	n/a	22	5	9	7	n/a	n/a	n/a	n/a	n/a
2929.076	n/a	PROB	1464538	n/a	LTP287	ltpFR	7	n/a	n/a	n/a	n/a	n/a	n/a	n/a	15	2	5	8	n/a	n/a	n/a	n/a	n/a
2931.528	n/a	STOP	1465764	n/a	LTP287	ltpFR	7	n/a	n/a	n/a	n/a	n/a	n/a	n/a	n/a	n/a	n/a	n/a	n/a	n/a	n/a	n/a	n/a
2933.682	n/a	WORD	1466841	wordpools/wasnorm_wordpool_less_exclusions.txt	LTP287	ltpFR	7	9	1	WAGON	1578	n/a	n/a	0	n/a	0	0	0	0.422607421875	0.5869140625	0	upper	amplitud.ttf
2936.694	n/a	START	1468347	n/a	LTP287	ltpFR	7	n/a	n/a	n/a	n/a	n/a	n/a	n/a	n/a	n/a	n/a	n/a	n/a	n/a	n/a	n/a	n/a
2937.83	n/a	PROB	1468915	n/a	LTP287	ltpFR	7	n/a	n/a	n/a	n/a	n/a	n/a	n/a	7	2	4	1	n/a	n/a	n/a	n/a	n/a
2940.386	n/a	PROB	1470193	n/a	LTP287	ltpFR	7	n/a	n/a	n/a	n/a	n/a	n/a	n/a	11	8	1	2	n/a	n/a	n/a	n/a	n/a
2942.38	n/a	PROB	1471190	n/a	LTP287	ltpFR	7	n/a	n/a	n/a	n/a	n/a	n/a	n/a	11	2	7	2	n/a	n/a	n/a	n/a	n/a
2943.95	n/a	STOP	1471975	n/a	LTP287	ltpFR	7	n/a	n/a	n/a	n/a	n/a	n/a	n/a	n/a	n/a	n/a	n/a	n/a	n/a	n/a	n/a	n/a
2945.542	n/a	WORD	1472771	wordpools/wasnorm_wordpool_less_exclusions.txt	LTP287	ltpFR	7	9	1	DONKEY	484	n/a	n/a	1	n/a	0	0	0	0.422607421875	0.5869140625	0	upper	amplitud.ttf
2948.556	n/a	START	1474278	n/a	LTP287	ltpFR	7	n/a	n/a	n/a	n/a	n/a	n/a	n/a	n/a	n/a	n/a	n/a	n/a	n/a	n/a	n/a	n/a
2949.576	n/a	PROB	1474788	n/a	LTP287	ltpFR	7	n/a	n/a	n/a	n/a	n/a	n/a	n/a	18	5	5	8	n/a	n/a	n/a	n/a	n/a
2950.926	n/a	PROB	1475463	n/a	LTP287	ltpFR	7	n/a	n/a	n/a	n/a	n/a	n/a	n/a	15	4	3	8	n/a	n/a	n/a	n/a	n/a
2953.1	n/a	PROB	1476550	n/a	LTP287	ltpFR	7	n/a	n/a	n/a	n/a	n/a	n/a	n/a	10	1	3	6	n/a	n/a	n/a	n/a	n/a
2955.24	n/a	STOP	1477620	n/a	LTP287	ltpFR	7	n/a	n/a	n/a	n/a	n/a	n/a	n/a	n/a	n/a	n/a	n/a	n/a	n/a	n/a	n/a	n/a
2957.572	n/a	WORD	1478786	wordpools/wasnorm_wordpool_less_exclusions.txt	LTP287	ltpFR	7	9	1	TYPIST	1532	n/a	n/a	1	n/a	0	0	0	0.422607421875	0.5869140625	0	upper	amplitud.ttf
2960.584	n/a	START	1480292	n/a	LTP287	ltpFR	7	n/a	n/a	n/a	n/a	n/a	n/a	n/a	n/a	n/a	n/a	n/a	n/a	n/a	n/a	n/a	n/a
2961.784	n/a	PROB	1480892	n/a	LTP287	ltpFR	7	n/a	n/a	n/a	n/a	n/a	n/a	n/a	13	2	3	8	n/a	n/a	n/a	n/a	n/a
2964.108	n/a	PROB	1482054	n/a	LTP287	ltpFR	7	n/a	n/a	n/a	n/a	n/a	n/a	n/a	16	7	8	1	n/a	n/a	n/a	n/a	n/a
2965.916	n/a	PROB	1482958	n/a	LTP287	ltpFR	7	n/a	n/a	n/a	n/a	n/a	n/a	n/a	13	3	2	8	n/a	n/a	n/a	n/a	n/a
2967.802	n/a	STOP	1483901	n/a	LTP287	ltpFR	7	n/a	n/a	n/a	n/a	n/a	n/a	n/a	n/a	n/a	n/a	n/a	n/a	n/a	n/a	n/a	n/a
2969.518	n/a	WORD	1484759	wordpools/wasnorm_wordpool_less_exclusions.txt	LTP287	ltpFR	7	9	1	RECEPTIONIST	1174	n/a	n/a	1	n/a	0	0	0	0.422607421875	0.5869140625	0	upper	amplitud.ttf
2972.53	n/a	START	1486265	n/a	LTP287	ltpFR	7	n/a	n/a	n/a	n/a	n/a	n/a	n/a	n/a	n/a	n/a	n/a	n/a	n/a	n/a	n/a	n/a
2973.58	n/a	PROB	1486790	n/a	LTP287	ltpFR	7	n/a	n/a	n/a	n/a	n/a	n/a	n/a	12	8	4	4	n/a	n/a	n/a	n/a	n/a
2975.206	n/a	PROB	1487603	n/a	LTP287	ltpFR	7	n/a	n/a	n/a	n/a	n/a	n/a	n/a	12	6	2	4	n/a	n/a	n/a	n/a	n/a
2977.816	n/a	PROB	1488908	n/a	LTP287	ltpFR	7	n/a	n/a	n/a	n/a	n/a	n/a	n/a	18	4	5	9	n/a	n/a	n/a	n/a	n/a
2980.368	n/a	STOP	1490184	n/a	LTP287	ltpFR	7	n/a	n/a	n/a	n/a	n/a	n/a	n/a	n/a	n/a	n/a	n/a	n/a	n/a	n/a	n/a	n/a
2981.73	n/a	WORD	1490865	wordpools/wasnorm_wordpool_less_exclusions.txt	LTP287	ltpFR	7	9	1	OCEAN	970	n/a	n/a	0	n/a	0	0	0	0.422607421875	0.5869140625	0	upper	amplitud.ttf
2984.742	n/a	START	1492371	n/a	LTP287	ltpFR	7	n/a	n/a	n/a	n/a	n/a	n/a	n/a	n/a	n/a	n/a	n/a	n/a	n/a	n/a	n/a	n/a
2985.596	n/a	PROB	1492798	n/a	LTP287	ltpFR	7	n/a	n/a	n/a	n/a	n/a	n/a	n/a	11	5	3	3	n/a	n/a	n/a	n/a	n/a
2988.052	n/a	PROB	1494026	n/a	LTP287	ltpFR	7	n/a	n/a	n/a	n/a	n/a	n/a	n/a	18	9	5	4	n/a	n/a	n/a	n/a	n/a
2990.058	n/a	PROB	1495029	n/a	LTP287	ltpFR	7	n/a	n/a	n/a	n/a	n/a	n/a	n/a	18	6	6	6	n/a	n/a	n/a	n/a	n/a
2991.346	n/a	STOP	1495673	n/a	LTP287	ltpFR	7	n/a	n/a	n/a	n/a	n/a	n/a	n/a	n/a	n/a	n/a	n/a	n/a	n/a	n/a	n/a	n/a
2994.648	n/a	REC_START	1497324	n/a	LTP287	ltpFR	7	9	n/a	n/a	n/a	n/a	n/a	n/a	n/a	0	0	0	n/a	n/a	n/a	n/a	n/a
2995.626	n/a	REC_WORD	1497813	wordpools/wasnorm_wordpool_less_exclusions.txt	LTP287	ltpFR	7	9	1	TYPIST	1532	n/a	n/a	1	n/a	0	0	0	n/a	n/a	n/a	n/a	n/a
2997.09	n/a	REC_WORD	1498545	wordpools/wasnorm_wordpool_less_exclusions.txt	LTP287	ltpFR	7	9	1	RECEPTIONIST	1174	n/a	n/a	1	n/a	0	0	0	n/a	n/a	n/a	n/a	n/a
2998.548	n/a	REC_WORD	1499274	wordpools/wasnorm_wordpool_less_exclusions.txt	LTP287	ltpFR	7	9	1	WALL	1582	n/a	n/a	0	n/a	0	0	0	n/a	n/a	n/a	n/a	n/a
2999.722	n/a	REC_WORD	1499861	wordpools/wasnorm_wordpool_less_exclusions.txt	LTP287	ltpFR	7	9	1	WAVE	1596	n/a	n/a	0	n/a	0	0	0	n/a	n/a	n/a	n/a	n/a
3000.858	n/a	REC_WORD	1500429	wordpools/wasnorm_wordpool_less_exclusions.txt	LTP287	ltpFR	7	9	1	HIKER	708	n/a	n/a	1	n/a	0	0	0	n/a	n/a	n/a	n/a	n/a
3002.054	n/a	REC_WORD	1501027	wordpools/wasnorm_wordpool_less_exclusions.txt	LTP287	ltpFR	7	9	1	IGLOO	734	n/a	n/a	0	n/a	0	0	0	n/a	n/a	n/a	n/a	n/a
3003.354	n/a	REC_WORD	1501677	wordpools/wasnorm_wordpool_less_exclusions.txt	LTP287	ltpFR	7	9	1	RADISH	1158	n/a	n/a	1	n/a	0	0	0	n/a	n/a	n/a	n/a	n/a
3009.408	n/a	REC_WORD	1504704	wordpools/wasnorm_wordpool_less_exclusions.txt	LTP287	ltpFR	7	9	1	OCEAN	970	n/a	n/a	0	n/a	0	0	0	n/a	n/a	n/a	n/a	n/a
3074.804	n/a	WORD	1537402	wordpools/wasnorm_wordpool_less_exclusions.txt	LTP287	ltpFR	7	10	0	CABINET	212	n/a	n/a	0	n/a	0	0	0	0.57763671875	0.412841796875	1	lower	zerothre.ttf
3078.934	n/a	WORD	1539467	wordpools/wasnorm_wordpool_less_exclusions.txt	LTP287	ltpFR	7	10	0	SANDPAPER	1231	n/a	n/a	0	n/a	0	0	0	0.57763671875	0.412841796875	1	lower	zerothre.ttf
3082.98	n/a	WORD	1541490	wordpools/wasnorm_wordpool_less_exclusions.txt	LTP287	ltpFR	7	10	0	HUT	729	n/a	n/a	1	n/a	0	0	0	0.57763671875	0.412841796875	1	lower	zerothre.ttf
3087.0	n/a	WORD	1543500	wordpools/wasnorm_wordpool_less_exclusions.txt	LTP287	ltpFR	7	10	0	REGISTER	1180	n/a	n/a	0	n/a	0	0	0	0.57763671875	0.412841796875	1	lower	zerothre.ttf
3090.948	n/a	WORD	1545474	wordpools/wasnorm_wordpool_less_exclusions.txt	LTP287	ltpFR	7	10	0	NOVEL	960	n/a	n/a	0	n/a	0	0	0	0.57763671875	0.412841796875	1	lower	zerothre.ttf
3095.046	n/a	WORD	1547523	wordpools/wasnorm_wordpool_less_exclusions.txt	LTP287	ltpFR	7	10	0	RUNNER	1218	n/a	n/a	1	n/a	0	0	0	0.57763671875	0.412841796875	1	lower	zerothre.ttf
3098.91	n/a	WORD	1549455	wordpools/wasnorm_wordpool_less_exclusions.txt	LTP287	ltpFR	7	10	0	OAR	966	n/a	n/a	1	n/a	0	0	0	0.57763671875	0.412841796875	1	lower	zerothre.ttf
3102.994	n/a	WORD	1551497	wordpools/wasnorm_wordpool_less_exclusions.txt	LTP287	ltpFR	7	10	0	CASHIER	254	n/a	n/a	1	n/a	0	0	0	0.57763671875	0.412841796875	1	lower	zerothre.ttf
3107.042	n/a	WORD	1553521	wordpools/wasnorm_wordpool_less_exclusions.txt	LTP287	ltpFR	7	10	0	TAPE	1433	n/a	n/a	0	n/a	0	0	0	0.57763671875	0.412841796875	1	lower	zerothre.ttf
3110.874	n/a	WORD	1555437	wordpools/wasnorm_wordpool_less_exclusions.txt	LTP287	ltpFR	7	10	0	TOTE	1487	n/a	n/a	0	n/a	0	0	0	0.57763671875	0.412841796875	1	lower	zerothre.ttf
3114.822	n/a	WORD	1557411	wordpools/wasnorm_wordpool_less_exclusions.txt	LTP287	ltpFR	7	10	0	UNICORN	1538	n/a	n/a	1	n/a	0	0	0	0.57763671875	0.412841796875	1	lower	zerothre.ttf
3119.004	n/a	WORD	1559502	wordpools/wasnorm_wordpool_less_exclusions.txt	LTP287	ltpFR	7	10	0	BARN	89	n/a	n/a	1	n/a	0	0	0	0.57763671875	0.412841796875	1	lower	zerothre.ttf
3122.854	n/a	WORD	1561427	wordpools/wasnorm_wordpool_less_exclusions.txt	LTP287	ltpFR	7	10	0	RECORD	1176	n/a	n/a	0	n/a	0	0	0	0.57763671875	0.412841796875	1	lower	zerothre.ttf
3126.986	n/a	WORD	1563493	wordpools/wasnorm_wordpool_less_exclusions.txt	LTP287	ltpFR	7	10	0	STORE	1387	n/a	n/a	1	n/a	0	0	0	0.57763671875	0.412841796875	1	lower	zerothre.ttf
3131.134	n/a	WORD	1565567	wordpools/wasnorm_wordpool_less_exclusions.txt	LTP287	ltpFR	7	10	0	MOLECULE	905	n/a	n/a	0	n/a	0	0	0	0.57763671875	0.412841796875	1	lower	zerothre.ttf
3135.25	n/a	WORD	1567625	wordpools/wasnorm_wordpool_less_exclusions.txt	LTP287	ltpFR	7	10	0	NEUTRON	947	n/a	n/a	0	n/a	0	0	0	0.57763671875	0.412841796875	1	lower	zerothre.ttf
3141.14	n/a	REC_START	1570570	n/a	LTP287	ltpFR	7	10	n/a	n/a	n/a	n/a	n/a	n/a	n/a	0	0	0	n/a	n/a	n/a	n/a	n/a
3141.918	n/a	REC_WORD	1570959	wordpools/wasnorm_wordpool_less_exclusions.txt	LTP287	ltpFR	7	10	0	NEUTRON	947	n/a	n/a	0	n/a	0	0	0	n/a	n/a	n/a	n/a	n/a
3143.064	n/a	REC_WORD	1571532	wordpools/wasnorm_wordpool_less_exclusions.txt	LTP287	ltpFR	7	10	0	MOLECULE	905	n/a	n/a	0	n/a	0	0	0	n/a	n/a	n/a	n/a	n/a
3144.394	n/a	REC_WORD	1572197	wordpools/wasnorm_wordpool_less_exclusions.txt	LTP287	ltpFR	7	10	0	RUNNER	1218	n/a	n/a	1	n/a	0	0	0	n/a	n/a	n/a	n/a	n/a
3145.514	n/a	REC_WORD	1572757	wordpools/wasnorm_wordpool_less_exclusions.txt	LTP287	ltpFR	7	10	0	REGISTER	1180	n/a	n/a	0	n/a	0	0	0	n/a	n/a	n/a	n/a	n/a
3146.562	n/a	REC_WORD	1573281	wordpools/wasnorm_wordpool_less_exclusions.txt	LTP287	ltpFR	7	10	0	CASHIER	254	n/a	n/a	1	n/a	0	0	0	n/a	n/a	n/a	n/a	n/a
3147.634	n/a	REC_WORD	1573817	wordpools/wasnorm_wordpool_less_exclusions.txt	LTP287	ltpFR	7	10	0	STORE	1387	n/a	n/a	1	n/a	0	0	0	n/a	n/a	n/a	n/a	n/a
3148.978	n/a	REC_WORD	1574489	wordpools/wasnorm_wordpool_less_exclusions.txt	LTP287	ltpFR	7	10	0	CABINET	212	n/a	n/a	0	n/a	0	0	0	n/a	n/a	n/a	n/a	n/a
3150.012	n/a	REC_WORD	1575006	wordpools/wasnorm_wordpool_less_exclusions.txt	LTP287	ltpFR	7	10	0	HUT	729	n/a	n/a	1	n/a	0	0	0	n/a	n/a	n/a	n/a	n/a
3151.22	n/a	REC_WORD	1575610	wordpools/wasnorm_wordpool_less_exclusions.txt	LTP287	ltpFR	7	10	0	BARN	89	n/a	n/a	1	n/a	0	0	0	n/a	n/a	n/a	n/a	n/a
3152.17	n/a	REC_WORD	1576085	wordpools/wasnorm_wordpool_less_exclusions.txt	LTP287	ltpFR	7	10	0	SANDPAPER	1231	n/a	n/a	0	n/a	0	0	0	n/a	n/a	n/a	n/a	n/a
3164.28	n/a	REC_WORD	1582140	wordpools/wasnorm_wordpool_less_exclusions.txt	LTP287	ltpFR	7	10	0	UNICORN	1538	n/a	n/a	1	n/a	0	0	0	n/a	n/a	n/a	n/a	n/a
3169.09	n/a	REC_WORD	1584545	wordpools/wasnorm_wordpool_less_exclusions.txt	LTP287	ltpFR	7	10	0	OAR	966	n/a	n/a	1	n/a	0	0	0	n/a	n/a	n/a	n/a	n/a
3222.568	n/a	WORD	1611284	wordpools/wasnorm_wordpool_less_exclusions.txt	LTP287	ltpFR	7	11	1	PATRIOT	1026	n/a	n/a	0	n/a	0	0	0	0.422607421875	0.5869140625	0	upper	amplitud.ttf
3226.65	n/a	WORD	1613325	wordpools/wasnorm_wordpool_less_exclusions.txt	LTP287	ltpFR	7	11	1	SAXOPHONE	1240	n/a	n/a	0	n/a	0	0	0	0.422607421875	0.5869140625	0	upper	amplitud.ttf
3230.698	n/a	WORD	1615349	wordpools/wasnorm_wordpool_less_exclusions.txt	LTP287	ltpFR	7	11	1	OBOE	969	n/a	n/a	0	n/a	0	0	0	0.422607421875	0.5869140625	0	upper	amplitud.ttf
3234.648	n/a	WORD	1617324	wordpools/wasnorm_wordpool_less_exclusions.txt	LTP287	ltpFR	7	11	1	SWORD	1423	n/a	n/a	0	n/a	0	0	0	0.422607421875	0.5869140625	0	upper	amplitud.ttf
3238.796	n/a	WORD	1619398	wordpools/wasnorm_wordpool_less_exclusions.txt	LTP287	ltpFR	7	11	1	SHEPHERD	1283	n/a	n/a	1	n/a	0	0	0	0.422607421875	0.5869140625	0	upper	amplitud.ttf
3242.708	n/a	WORD	1621354	wordpools/wasnorm_wordpool_less_exclusions.txt	LTP287	ltpFR	7	11	1	MOUTH	926	n/a	n/a	0	n/a	0	0	0	0.422607421875	0.5869140625	0	upper	amplitud.ttf
3246.676	n/a	WORD	1623338	wordpools/wasnorm_wordpool_less_exclusions.txt	LTP287	ltpFR	7	11	1	SERGEANT	1269	n/a	n/a	1	n/a	0	0	0	0.422607421875	0.5869140625	0	upper	amplitud.ttf
3250.858	n/a	WORD	1625429	wordpools/wasnorm_wordpool_less_exclusions.txt	LTP287	ltpFR	7	11	1	IDOL	733	n/a	n/a	0	n/a	0	0	0	0.422607421875	0.5869140625	0	upper	amplitud.ttf
3254.738	n/a	WORD	1627369	wordpools/wasnorm_wordpool_less_exclusions.txt	LTP287	ltpFR	7	11	1	CUFF	423	n/a	n/a	0	n/a	0	0	0	0.422607421875	0.5869140625	0	upper	amplitud.ttf
3258.572	n/a	WORD	1629286	wordpools/wasnorm_wordpool_less_exclusions.txt	LTP287	ltpFR	7	11	1	UTENSIL	1542	n/a	n/a	0	n/a	0	0	0	0.422607421875	0.5869140625	0	upper	amplitud.ttf
3262.416	n/a	WORD	1631208	wordpools/wasnorm_wordpool_less_exclusions.txt	LTP287	ltpFR	7	11	1	SKI	1316	n/a	n/a	0	n/a	0	0	0	0.422607421875	0.5869140625	0	upper	amplitud.ttf
3266.284	n/a	WORD	1633142	wordpools/wasnorm_wordpool_less_exclusions.txt	LTP287	ltpFR	7	11	1	ANCHOR	21	n/a	n/a	0	n/a	0	0	0	0.422607421875	0.5869140625	0	upper	amplitud.ttf
3270.316	n/a	WORD	1635158	wordpools/wasnorm_wordpool_less_exclusions.txt	LTP287	ltpFR	7	11	1	PLAID	1080	n/a	n/a	0	n/a	0	0	0	0.422607421875	0.5869140625	0	upper	amplitud.ttf
3274.148	n/a	WORD	1637074	wordpools/wasnorm_wordpool_less_exclusions.txt	LTP287	ltpFR	7	11	1	OWL	992	n/a	n/a	1	n/a	0	0	0	0.422607421875	0.5869140625	0	upper	amplitud.ttf
3278.314	n/a	WORD	1639157	wordpools/wasnorm_wordpool_less_exclusions.txt	LTP287	ltpFR	7	11	1	APPENDAGE	32	n/a	n/a	0	n/a	0	0	0	0.422607421875	0.5869140625	0	upper	amplitud.ttf
3282.512	n/a	WORD	1641256	wordpools/wasnorm_wordpool_less_exclusions.txt	LTP287	ltpFR	7	11	1	ANKLE	24	n/a	n/a	0	n/a	0	0	0	0.422607421875	0.5869140625	0	upper	amplitud.ttf
3285.524	n/a	START	1642762	n/a	LTP287	ltpFR	7	n/a	n/a	n/a	n/a	n/a	n/a	n/a	n/a	n/a	n/a	n/a	n/a	n/a	n/a	n/a	n/a
3286.444	n/a	PROB	1643222	n/a	LTP287	ltpFR	7	n/a	n/a	n/a	n/a	n/a	n/a	n/a	18	3	8	7	n/a	n/a	n/a	n/a	n/a
3288.584	n/a	PROB	1644292	n/a	LTP287	ltpFR	7	n/a	n/a	n/a	n/a	n/a	n/a	n/a	7	1	2	4	n/a	n/a	n/a	n/a	n/a
3290.658	n/a	PROB	1645329	n/a	LTP287	ltpFR	7	n/a	n/a	n/a	n/a	n/a	n/a	n/a	15	5	4	6	n/a	n/a	n/a	n/a	n/a
3292.658	n/a	STOP	1646329	n/a	LTP287	ltpFR	7	n/a	n/a	n/a	n/a	n/a	n/a	n/a	n/a	n/a	n/a	n/a	n/a	n/a	n/a	n/a	n/a
3295.38	n/a	REC_START	1647690	n/a	LTP287	ltpFR	7	11	n/a	n/a	n/a	n/a	n/a	n/a	n/a	0	0	0	n/a	n/a	n/a	n/a	n/a
3296.46	n/a	REC_WORD	1648230	wordpools/wasnorm_wordpool_less_exclusions.txt	LTP287	ltpFR	7	11	1	APPENDAGE	32	n/a	n/a	0	n/a	0	0	0	n/a	n/a	n/a	n/a	n/a
3298.062	n/a	REC_WORD	1649031	wordpools/wasnorm_wordpool_less_exclusions.txt	LTP287	ltpFR	7	11	1	MOUTH	926	n/a	n/a	0	n/a	0	0	0	n/a	n/a	n/a	n/a	n/a
3308.152	n/a	REC_WORD	1654076	wordpools/wasnorm_wordpool_less_exclusions.txt	LTP287	ltpFR	7	11	1	ANCHOR	21	n/a	n/a	0	n/a	0	0	0	n/a	n/a	n/a	n/a	n/a
3310.52	n/a	REC_WORD	1655260	wordpools/wasnorm_wordpool_less_exclusions.txt	LTP287	ltpFR	7	11	1	OWL	992	n/a	n/a	1	n/a	0	0	0	n/a	n/a	n/a	n/a	n/a
3312.904	n/a	REC_WORD	1656452	wordpools/wasnorm_wordpool_less_exclusions.txt	LTP287	ltpFR	7	11	1	PATRIOT	1026	n/a	n/a	0	n/a	0	0	0	n/a	n/a	n/a	n/a	n/a
3314.008	n/a	REC_WORD	1657004	wordpools/wasnorm_wordpool_less_exclusions.txt	LTP287	ltpFR	7	11	1	SERGEANT	1269	n/a	n/a	1	n/a	0	0	0	n/a	n/a	n/a	n/a	n/a
3315.078	n/a	REC_WORD	1657539	wordpools/wasnorm_wordpool_less_exclusions.txt	LTP287	ltpFR	7	11	1	SAXOPHONE	1240	n/a	n/a	0	n/a	0	0	0	n/a	n/a	n/a	n/a	n/a
3316.436	n/a	REC_WORD	1658218	wordpools/wasnorm_wordpool_less_exclusions.txt	LTP287	ltpFR	7	11	1	OBOE	969	n/a	n/a	0	n/a	0	0	0	n/a	n/a	n/a	n/a	n/a
3331.626	n/a	REC_WORD	1665813	wordpools/wasnorm_wordpool_less_exclusions.txt	LTP287	ltpFR	7	11	1	ANKLE	24	n/a	n/a	0	n/a	0	0	0	n/a	n/a	n/a	n/a	n/a
3377.274	n/a	WORD	1688637	wordpools/wasnorm_wordpool_less_exclusions.txt	LTP287	ltpFR	7	12	0	IRON	744	n/a	n/a	0	n/a	0	0	0	0.57763671875	0.412841796875	1	lower	zerothre.ttf
3381.24	n/a	WORD	1690620	wordpools/wasnorm_wordpool_less_exclusions.txt	LTP287	ltpFR	7	12	0	NECKLACE	940	n/a	n/a	0	n/a	0	0	0	0.57763671875	0.412841796875	1	lower	zerothre.ttf
3385.154	n/a	WORD	1692577	wordpools/wasnorm_wordpool_less_exclusions.txt	LTP287	ltpFR	7	12	0	SHAMPOO	1274	n/a	n/a	0	n/a	0	0	0	0.57763671875	0.412841796875	1	lower	zerothre.ttf
3389.304	n/a	WORD	1694652	wordpools/wasnorm_wordpool_less_exclusions.txt	LTP287	ltpFR	7	12	0	HANGER	687	n/a	n/a	0	n/a	0	0	0	0.57763671875	0.412841796875	1	lower	zerothre.ttf
3393.286	n/a	WORD	1696643	wordpools/wasnorm_wordpool_less_exclusions.txt	LTP287	ltpFR	7	12	0	WARDROBE	1587	n/a	n/a	1	n/a	0	0	0	0.57763671875	0.412841796875	1	lower	zerothre.ttf
3397.418	n/a	WORD	1698709	wordpools/wasnorm_wordpool_less_exclusions.txt	LTP287	ltpFR	7	12	0	ALLIGATOR	16	n/a	n/a	1	n/a	0	0	0	0.57763671875	0.412841796875	1	lower	zerothre.ttf
3401.552	n/a	WORD	1700776	wordpools/wasnorm_wordpool_less_exclusions.txt	LTP287	ltpFR	7	12	0	ATTIRE	57	n/a	n/a	1	n/a	0	0	0	0.57763671875	0.412841796875	1	lower	zerothre.ttf
3405.416	n/a	WORD	1702708	wordpools/wasnorm_wordpool_less_exclusions.txt	LTP287	ltpFR	7	12	0	COW	393	n/a	n/a	1	n/a	0	0	0	0.57763671875	0.412841796875	1	lower	zerothre.ttf
3409.394	n/a	WORD	1704697	wordpools/wasnorm_wordpool_less_exclusions.txt	LTP287	ltpFR	7	12	0	BEAVER	109	n/a	n/a	0	n/a	0	0	0	0.57763671875	0.412841796875	1	lower	zerothre.ttf
3413.53	n/a	WORD	1706765	wordpools/wasnorm_wordpool_less_exclusions.txt	LTP287	ltpFR	7	12	0	TOWEL	1489	n/a	n/a	0	n/a	0	0	0	0.57763671875	0.412841796875	1	lower	zerothre.ttf
3417.412	n/a	WORD	1708706	wordpools/wasnorm_wordpool_less_exclusions.txt	LTP287	ltpFR	7	12	0	WOMAN	1620	n/a	n/a	1	n/a	0	0	0	0.57763671875	0.412841796875	1	lower	zerothre.ttf
3421.394	n/a	WORD	1710697	wordpools/wasnorm_wordpool_less_exclusions.txt	LTP287	ltpFR	7	12	0	MAN	862	n/a	n/a	1	n/a	0	0	0	0.57763671875	0.412841796875	1	lower	zerothre.ttf
3425.56	n/a	WORD	1712780	wordpools/wasnorm_wordpool_less_exclusions.txt	LTP287	ltpFR	7	12	0	DRAWING	494	n/a	n/a	1	n/a	0	0	0	0.57763671875	0.412841796875	1	lower	zerothre.ttf
3429.61	n/a	WORD	1714805	wordpools/wasnorm_wordpool_less_exclusions.txt	LTP287	ltpFR	7	12	0	CANOE	233	n/a	n/a	1	n/a	0	0	0	0.57763671875	0.412841796875	1	lower	zerothre.ttf
3433.456	n/a	WORD	1716728	wordpools/wasnorm_wordpool_less_exclusions.txt	LTP287	ltpFR	7	12	0	RUM	1217	n/a	n/a	0	n/a	0	0	0	0.57763671875	0.412841796875	1	lower	zerothre.ttf
3437.37	n/a	WORD	1718685	wordpools/wasnorm_wordpool_less_exclusions.txt	LTP287	ltpFR	7	12	0	COOLER	375	n/a	n/a	1	n/a	0	0	0	0.57763671875	0.412841796875	1	lower	zerothre.ttf
3440.382	n/a	START	1720191	n/a	LTP287	ltpFR	7	n/a	n/a	n/a	n/a	n/a	n/a	n/a	n/a	n/a	n/a	n/a	n/a	n/a	n/a	n/a	n/a
3441.504	n/a	PROB	1720752	n/a	LTP287	ltpFR	7	n/a	n/a	n/a	n/a	n/a	n/a	n/a	11	5	2	4	n/a	n/a	n/a	n/a	n/a
3444.328	n/a	PROB	1722164	n/a	LTP287	ltpFR	7	n/a	n/a	n/a	n/a	n/a	n/a	n/a	17	7	8	4	n/a	n/a	n/a	n/a	n/a
3446.236	n/a	PROB	1723118	n/a	LTP287	ltpFR	7	n/a	n/a	n/a	n/a	n/a	n/a	n/a	12	1	5	6	n/a	n/a	n/a	n/a	n/a
3448.46	n/a	PROB	1724230	n/a	LTP287	ltpFR	7	n/a	n/a	n/a	n/a	n/a	n/a	n/a	16	6	8	2	n/a	n/a	n/a	n/a	n/a
3450.79	n/a	PROB	1725395	n/a	LTP287	ltpFR	7	n/a	n/a	n/a	n/a	n/a	n/a	n/a	17	6	4	7	n/a	n/a	n/a	n/a	n/a
3453.346	n/a	PROB	1726673	n/a	LTP287	ltpFR	7	n/a	n/a	n/a	n/a	n/a	n/a	n/a	14	3	7	4	n/a	n/a	n/a	n/a	n/a
3454.826	n/a	STOP	1727413	n/a	LTP287	ltpFR	7	n/a	n/a	n/a	n/a	n/a	n/a	n/a	n/a	n/a	n/a	n/a	n/a	n/a	n/a	n/a	n/a
3458.284	n/a	REC_START	1729142	n/a	LTP287	ltpFR	7	12	n/a	n/a	n/a	n/a	n/a	n/a	n/a	0	0	0	n/a	n/a	n/a	n/a	n/a
3459.538	n/a	REC_WORD	1729769	wordpools/wasnorm_wordpool_less_exclusions.txt	LTP287	ltpFR	7	12	0	BEAVER	109	n/a	n/a	0	n/a	0	0	0	n/a	n/a	n/a	n/a	n/a
3460.42	n/a	REC_WORD	1730210	wordpools/wasnorm_wordpool_less_exclusions.txt	LTP287	ltpFR	7	12	0	SHAMPOO	1274	n/a	n/a	0	n/a	0	0	0	n/a	n/a	n/a	n/a	n/a
3461.962	n/a	REC_WORD	1730981	wordpools/wasnorm_wordpool_less_exclusions.txt	LTP287	ltpFR	7	12	0	NECKLACE	940	n/a	n/a	0	n/a	0	0	0	n/a	n/a	n/a	n/a	n/a
3463.308	n/a	REC_WORD	1731654	wordpools/wasnorm_wordpool_less_exclusions.txt	LTP287	ltpFR	7	12	0	IRON	744	n/a	n/a	0	n/a	0	0	0	n/a	n/a	n/a	n/a	n/a
3464.444	n/a	REC_WORD	1732222	wordpools/wasnorm_wordpool_less_exclusions.txt	LTP287	ltpFR	7	12	0	HANGER	687	n/a	n/a	0	n/a	0	0	0	n/a	n/a	n/a	n/a	n/a
3465.828	n/a	REC_WORD	1732914	wordpools/wasnorm_wordpool_less_exclusions.txt	LTP287	ltpFR	7	12	0	COW	393	n/a	n/a	1	n/a	0	0	0	n/a	n/a	n/a	n/a	n/a
3467.028	n/a	REC_WORD	1733514	wordpools/wasnorm_wordpool_less_exclusions.txt	LTP287	ltpFR	7	12	0	WOMAN	1620	n/a	n/a	1	n/a	0	0	0	n/a	n/a	n/a	n/a	n/a
3468.164	n/a	REC_WORD	1734082	wordpools/wasnorm_wordpool_less_exclusions.txt	LTP287	ltpFR	7	12	0	RUM	1217	n/a	n/a	0	n/a	0	0	0	n/a	n/a	n/a	n/a	n/a
3469.522	n/a	REC_WORD	1734761	wordpools/wasnorm_wordpool_less_exclusions.txt	LTP287	ltpFR	7	12	0	COOLER	375	n/a	n/a	1	n/a	0	0	0	n/a	n/a	n/a	n/a	n/a
3474.108	n/a	REC_WORD	1737054	wordpools/wasnorm_wordpool_less_exclusions.txt	LTP287	ltpFR	7	12	0	CANOE	233	n/a	n/a	1	n/a	0	0	0	n/a	n/a	n/a	n/a	n/a
3485.724	n/a	REC_WORD	1742862	wordpools/wasnorm_wordpool_less_exclusions.txt	LTP287	ltpFR	7	12	0	ALLIGATOR	16	n/a	n/a	1	n/a	0	0	0	n/a	n/a	n/a	n/a	n/a
3540.148	n/a	START	1770074	n/a	LTP287	ltpFR	7	n/a	n/a	n/a	n/a	n/a	n/a	n/a	n/a	n/a	n/a	n/a	n/a	n/a	n/a	n/a	n/a
3541.654	n/a	PROB	1770827	n/a	LTP287	ltpFR	7	n/a	n/a	n/a	n/a	n/a	n/a	n/a	14	6	6	2	n/a	n/a	n/a	n/a	n/a
3543.726	n/a	PROB	1771863	n/a	LTP287	ltpFR	7	n/a	n/a	n/a	n/a	n/a	n/a	n/a	16	7	5	4	n/a	n/a	n/a	n/a	n/a
3546.632	n/a	STOP	1773316	n/a	LTP287	ltpFR	7	n/a	n/a	n/a	n/a	n/a	n/a	n/a	n/a	n/a	n/a	n/a	n/a	n/a	n/a	n/a	n/a
3549.298	n/a	WORD	1774649	wordpools/wasnorm_wordpool_less_exclusions.txt	LTP287	ltpFR	7	13	0	SEAL	1262	n/a	n/a	0	n/a	0	0	0	0.57763671875	0.412841796875	1	lower	zerothre.ttf
3552.31	n/a	START	1776155	n/a	LTP287	ltpFR	7	n/a	n/a	n/a	n/a	n/a	n/a	n/a	n/a	n/a	n/a	n/a	n/a	n/a	n/a	n/a	n/a
3553.348	n/a	PROB	1776674	n/a	LTP287	ltpFR	7	n/a	n/a	n/a	n/a	n/a	n/a	n/a	14	5	8	1	n/a	n/a	n/a	n/a	n/a
3555.422	n/a	PROB	1777711	n/a	LTP287	ltpFR	7	n/a	n/a	n/a	n/a	n/a	n/a	n/a	18	6	8	4	n/a	n/a	n/a	n/a	n/a
3557.246	n/a	PROB	1778623	n/a	LTP287	ltpFR	7	n/a	n/a	n/a	n/a	n/a	n/a	n/a	20	9	2	9	n/a	n/a	n/a	n/a	n/a
3559.176	n/a	STOP	1779588	n/a	LTP287	ltpFR	7	n/a	n/a	n/a	n/a	n/a	n/a	n/a	n/a	n/a	n/a	n/a	n/a	n/a	n/a	n/a	n/a
3561.312	n/a	WORD	1780656	wordpools/wasnorm_wordpool_less_exclusions.txt	LTP287	ltpFR	7	13	0	SAND	1230	n/a	n/a	0	n/a	0	0	0	0.57763671875	0.412841796875	1	lower	zerothre.ttf
3564.324	n/a	START	1782162	n/a	LTP287	ltpFR	7	n/a	n/a	n/a	n/a	n/a	n/a	n/a	n/a	n/a	n/a	n/a	n/a	n/a	n/a	n/a	n/a
3565.394	n/a	PROB	1782697	n/a	LTP287	ltpFR	7	n/a	n/a	n/a	n/a	n/a	n/a	n/a	12	3	8	1	n/a	n/a	n/a	n/a	n/a
3568.0	n/a	PROB	1784000	n/a	LTP287	ltpFR	7	n/a	n/a	n/a	n/a	n/a	n/a	n/a	17	8	7	2	n/a	n/a	n/a	n/a	n/a
3572.324	n/a	STOP	1786162	n/a	LTP287	ltpFR	7	n/a	n/a	n/a	n/a	n/a	n/a	n/a	n/a	n/a	n/a	n/a	n/a	n/a	n/a	n/a	n/a
3573.17	n/a	WORD	1786585	wordpools/wasnorm_wordpool_less_exclusions.txt	LTP287	ltpFR	7	13	0	KIWI	781	n/a	n/a	0	n/a	0	0	0	0.57763671875	0.412841796875	1	lower	zerothre.ttf
3576.186	n/a	START	1788093	n/a	LTP287	ltpFR	7	n/a	n/a	n/a	n/a	n/a	n/a	n/a	n/a	n/a	n/a	n/a	n/a	n/a	n/a	n/a	n/a
3577.272	n/a	PROB	1788636	n/a	LTP287	ltpFR	7	n/a	n/a	n/a	n/a	n/a	n/a	n/a	15	8	5	2	n/a	n/a	n/a	n/a	n/a
3579.364	n/a	PROB	1789682	n/a	LTP287	ltpFR	7	n/a	n/a	n/a	n/a	n/a	n/a	n/a	14	1	7	4	n/a	n/a	n/a	n/a	n/a
3581.724	n/a	PROB	1790862	n/a	LTP287	ltpFR	7	n/a	n/a	n/a	n/a	n/a	n/a	n/a	1	9	1	9	n/a	n/a	n/a	n/a	n/a
3583.922	n/a	STOP	1791961	n/a	LTP287	ltpFR	7	n/a	n/a	n/a	n/a	n/a	n/a	n/a	n/a	n/a	n/a	n/a	n/a	n/a	n/a	n/a	n/a
3585.286	n/a	WORD	1792643	wordpools/wasnorm_wordpool_less_exclusions.txt	LTP287	ltpFR	7	13	0	DRINK	498	n/a	n/a	0	n/a	0	0	0	0.57763671875	0.412841796875	1	lower	zerothre.ttf
3588.298	n/a	START	1794149	n/a	LTP287	ltpFR	7	n/a	n/a	n/a	n/a	n/a	n/a	n/a	n/a	n/a	n/a	n/a	n/a	n/a	n/a	n/a	n/a
3589.364	n/a	PROB	1794682	n/a	LTP287	ltpFR	7	n/a	n/a	n/a	n/a	n/a	n/a	n/a	9	2	5	2	n/a	n/a	n/a	n/a	n/a
3591.208	n/a	PROB	1795604	n/a	LTP287	ltpFR	7	n/a	n/a	n/a	n/a	n/a	n/a	n/a	18	7	6	5	n/a	n/a	n/a	n/a	n/a
3593.5	n/a	PROB	1796750	n/a	LTP287	ltpFR	7	n/a	n/a	n/a	n/a	n/a	n/a	n/a	17	5	9	2	n/a	n/a	n/a	n/a	n/a
3596.258	n/a	STOP	1798129	n/a	LTP287	ltpFR	7	n/a	n/a	n/a	n/a	n/a	n/a	n/a	n/a	n/a	n/a	n/a	n/a	n/a	n/a	n/a	n/a
3597.266	n/a	WORD	1798633	wordpools/wasnorm_wordpool_less_exclusions.txt	LTP287	ltpFR	7	13	0	SAILOR	1223	n/a	n/a	1	n/a	0	0	0	0.57763671875	0.412841796875	1	lower	zerothre.ttf
3600.278	n/a	START	1800139	n/a	LTP287	ltpFR	7	n/a	n/a	n/a	n/a	n/a	n/a	n/a	n/a	n/a	n/a	n/a	n/a	n/a	n/a	n/a	n/a
3601.164	n/a	PROB	1800582	n/a	LTP287	ltpFR	7	n/a	n/a	n/a	n/a	n/a	n/a	n/a	12	3	5	4	n/a	n/a	n/a	n/a	n/a
3604.54	n/a	PROB	1802270	n/a	LTP287	ltpFR	7	n/a	n/a	n/a	n/a	n/a	n/a	n/a	21	9	9	3	n/a	n/a	n/a	n/a	n/a
3606.18	n/a	PROB	1803090	n/a	LTP287	ltpFR	7	n/a	n/a	n/a	n/a	n/a	n/a	n/a	18	7	8	8	n/a	n/a	n/a	n/a	n/a
3607.77	n/a	STOP	1803885	n/a	LTP287	ltpFR	7	n/a	n/a	n/a	n/a	n/a	n/a	n/a	n/a	n/a	n/a	n/a	n/a	n/a	n/a	n/a	n/a
3609.308	n/a	WORD	1804654	wordpools/wasnorm_wordpool_less_exclusions.txt	LTP287	ltpFR	7	13	0	STEAM	1375	n/a	n/a	0	n/a	0	0	0	0.57763671875	0.412841796875	1	lower	zerothre.ttf
3612.324	n/a	START	1806162	n/a	LTP287	ltpFR	7	n/a	n/a	n/a	n/a	n/a	n/a	n/a	n/a	n/a	n/a	n/a	n/a	n/a	n/a	n/a	n/a
3613.444	n/a	PROB	1806722	n/a	LTP287	ltpFR	7	n/a	n/a	n/a	n/a	n/a	n/a	n/a	14	2	4	8	n/a	n/a	n/a	n/a	n/a
3615.818	n/a	PROB	1807909	n/a	LTP287	ltpFR	7	n/a	n/a	n/a	n/a	n/a	n/a	n/a	17	4	4	9	n/a	n/a	n/a	n/a	n/a
3620.324	n/a	STOP	1810162	n/a	LTP287	ltpFR	7	n/a	n/a	n/a	n/a	n/a	n/a	n/a	n/a	n/a	n/a	n/a	n/a	n/a	n/a	n/a	n/a
3621.454	n/a	WORD	1810727	wordpools/wasnorm_wordpool_less_exclusions.txt	LTP287	ltpFR	7	13	0	GRAPE	654	n/a	n/a	0	n/a	0	0	0	0.57763671875	0.412841796875	1	lower	zerothre.ttf
3624.47	n/a	START	1812235	n/a	LTP287	ltpFR	7	n/a	n/a	n/a	n/a	n/a	n/a	n/a	n/a	n/a	n/a	n/a	n/a	n/a	n/a	n/a	n/a
3625.558	n/a	PROB	1812779	n/a	LTP287	ltpFR	7	n/a	n/a	n/a	n/a	n/a	n/a	n/a	22	9	9	4	n/a	n/a	n/a	n/a	n/a
3627.73	n/a	PROB	1813865	n/a	LTP287	ltpFR	7	n/a	n/a	n/a	n/a	n/a	n/a	n/a	15	6	8	1	n/a	n/a	n/a	n/a	n/a
3630.154	n/a	PROB	1815077	n/a	LTP287	ltpFR	7	n/a	n/a	n/a	n/a	n/a	n/a	n/a	20	8	8	4	n/a	n/a	n/a	n/a	n/a
3632.082	n/a	STOP	1816041	n/a	LTP287	ltpFR	7	n/a	n/a	n/a	n/a	n/a	n/a	n/a	n/a	n/a	n/a	n/a	n/a	n/a	n/a	n/a	n/a
3633.404	n/a	WORD	1816702	wordpools/wasnorm_wordpool_less_exclusions.txt	LTP287	ltpFR	7	13	0	CAMERA	224	n/a	n/a	0	n/a	0	0	0	0.57763671875	0.412841796875	1	lower	zerothre.ttf
3636.416	n/a	START	1818208	n/a	LTP287	ltpFR	7	n/a	n/a	n/a	n/a	n/a	n/a	n/a	n/a	n/a	n/a	n/a	n/a	n/a	n/a	n/a	n/a
3637.416	n/a	PROB	1818708	n/a	LTP287	ltpFR	7	n/a	n/a	n/a	n/a	n/a	n/a	n/a	15	7	2	6	n/a	n/a	n/a	n/a	n/a
3639.444	n/a	PROB	1819722	n/a	LTP287	ltpFR	7	n/a	n/a	n/a	n/a	n/a	n/a	n/a	125	7	9	9	n/a	n/a	n/a	n/a	n/a
3644.414	n/a	STOP	1822207	n/a	LTP287	ltpFR	7	n/a	n/a	n/a	n/a	n/a	n/a	n/a	n/a	n/a	n/a	n/a	n/a	n/a	n/a	n/a	n/a
3645.346	n/a	WORD	1822673	wordpools/wasnorm_wordpool_less_exclusions.txt	LTP287	ltpFR	7	13	0	BEAR	106	n/a	n/a	1	n/a	0	0	0	0.57763671875	0.412841796875	1	lower	zerothre.ttf
3648.36	n/a	START	1824180	n/a	LTP287	ltpFR	7	n/a	n/a	n/a	n/a	n/a	n/a	n/a	n/a	n/a	n/a	n/a	n/a	n/a	n/a	n/a	n/a
3649.264	n/a	PROB	1824632	n/a	LTP287	ltpFR	7	n/a	n/a	n/a	n/a	n/a	n/a	n/a	20	9	4	7	n/a	n/a	n/a	n/a	n/a
3651.322	n/a	PROB	1825661	n/a	LTP287	ltpFR	7	n/a	n/a	n/a	n/a	n/a	n/a	n/a	14	2	4	8	n/a	n/a	n/a	n/a	n/a
3654.146	n/a	PROB	1827073	n/a	LTP287	ltpFR	7	n/a	n/a	n/a	n/a	n/a	n/a	n/a	13	2	4	7	n/a	n/a	n/a	n/a	n/a
3656.06	n/a	STOP	1828030	n/a	LTP287	ltpFR	7	n/a	n/a	n/a	n/a	n/a	n/a	n/a	n/a	n/a	n/a	n/a	n/a	n/a	n/a	n/a	n/a
3657.396	n/a	WORD	1828698	wordpools/wasnorm_wordpool_less_exclusions.txt	LTP287	ltpFR	7	13	0	GRIZZLY	662	n/a	n/a	1	n/a	0	0	0	0.57763671875	0.412841796875	1	lower	zerothre.ttf
3660.408	n/a	START	1830204	n/a	LTP287	ltpFR	7	n/a	n/a	n/a	n/a	n/a	n/a	n/a	n/a	n/a	n/a	n/a	n/a	n/a	n/a	n/a	n/a
3661.306	n/a	PROB	1830653	n/a	LTP287	ltpFR	7	n/a	n/a	n/a	n/a	n/a	n/a	n/a	9	1	5	3	n/a	n/a	n/a	n/a	n/a
3663.334	n/a	PROB	1831667	n/a	LTP287	ltpFR	7	n/a	n/a	n/a	n/a	n/a	n/a	n/a	20	9	8	3	n/a	n/a	n/a	n/a	n/a
3665.694	n/a	PROB	1832847	n/a	LTP287	ltpFR	7	n/a	n/a	n/a	n/a	n/a	n/a	n/a	12	1	5	6	n/a	n/a	n/a	n/a	n/a
3667.212	n/a	STOP	1833606	n/a	LTP287	ltpFR	7	n/a	n/a	n/a	n/a	n/a	n/a	n/a	n/a	n/a	n/a	n/a	n/a	n/a	n/a	n/a	n/a
3669.24	n/a	WORD	1834620	wordpools/wasnorm_wordpool_less_exclusions.txt	LTP287	ltpFR	7	13	0	GRAVEL	659	n/a	n/a	0	n/a	0	0	0	0.57763671875	0.412841796875	1	lower	zerothre.ttf
3672.254	n/a	START	1836127	n/a	LTP287	ltpFR	7	n/a	n/a	n/a	n/a	n/a	n/a	n/a	n/a	n/a	n/a	n/a	n/a	n/a	n/a	n/a	n/a
3673.106	n/a	PROB	1836553	n/a	LTP287	ltpFR	7	n/a	n/a	n/a	n/a	n/a	n/a	n/a	13	5	5	3	n/a	n/a	n/a	n/a	n/a
3674.596	n/a	PROB	1837298	n/a	LTP287	ltpFR	7	n/a	n/a	n/a	n/a	n/a	n/a	n/a	13	5	2	6	n/a	n/a	n/a	n/a	n/a
3676.352	n/a	PROB	1838176	n/a	LTP287	ltpFR	7	n/a	n/a	n/a	n/a	n/a	n/a	n/a	15	1	6	8	n/a	n/a	n/a	n/a	n/a
3678.154	n/a	PROB	1839077	n/a	LTP287	ltpFR	7	n/a	n/a	n/a	n/a	n/a	n/a	n/a	17	2	5	9	n/a	n/a	n/a	n/a	n/a
