onset	duration	trial_type	sample	stim_file	subject	experiment	session	trial	item_name	item_num	list	answer	test_x	test_y	test_z
131.284	n/a	SESS_START	65642	n/a	LTP318	ltpFR2	4	n/a	n/a	n/a	n/a	n/a	0	0	0
157.844	n/a	START	78922	n/a	LTP318	ltpFR2	4	n/a	n/a	n/a	-1	n/a	n/a	n/a	n/a
157.86	n/a	PROB	78930	n/a	LTP318	ltpFR2	4	n/a	n/a	n/a	-1	17	9	1	7
160.862	n/a	PROB	80431	n/a	LTP318	ltpFR2	4	n/a	n/a	n/a	-1	17	2	6	9
162.93	n/a	PROB	81465	n/a	LTP318	ltpFR2	4	n/a	n/a	n/a	-1	9	5	3	1
164.284	n/a	PROB	82142	n/a	LTP318	ltpFR2	4	n/a	n/a	n/a	-1	15	6	2	7
166.42	n/a	PROB	83210	n/a	LTP318	ltpFR2	4	n/a	n/a	n/a	-1	18	3	6	9
169.844	n/a	STOP	84922	n/a	LTP318	ltpFR2	4	n/a	n/a	n/a	-1	n/a	n/a	n/a	n/a
218.58	n/a	WORD	109290	wordpools/wasnorm_wordpool_576.txt	LTP318	ltpFR2	4	1	FRIAR	605	n/a	n/a	0	0	0
221.034	n/a	WORD	110517	wordpools/wasnorm_wordpool_576.txt	LTP318	ltpFR2	4	1	PUDDLE	1140	n/a	n/a	0	0	0
223.52	n/a	WORD	111760	wordpools/wasnorm_wordpool_576.txt	LTP318	ltpFR2	4	1	SPONGE	1355	n/a	n/a	0	0	0
226.19	n/a	WORD	113095	wordpools/wasnorm_wordpool_576.txt	LTP318	ltpFR2	4	1	COIN	343	n/a	n/a	0	0	0
228.89	n/a	WORD	114445	wordpools/wasnorm_wordpool_576.txt	LTP318	ltpFR2	4	1	MAPLE	866	n/a	n/a	0	0	0
231.494	n/a	WORD	115747	wordpools/wasnorm_wordpool_576.txt	LTP318	ltpFR2	4	1	RAFT	1159	n/a	n/a	0	0	0
234.096	n/a	WORD	117048	wordpools/wasnorm_wordpool_576.txt	LTP318	ltpFR2	4	1	PEBBLE	1035	n/a	n/a	0	0	0
236.716	n/a	WORD	118358	wordpools/wasnorm_wordpool_576.txt	LTP318	ltpFR2	4	1	SWAMP	1416	n/a	n/a	0	0	0
239.234	n/a	WORD	119617	wordpools/wasnorm_wordpool_576.txt	LTP318	ltpFR2	4	1	SHOVEL	1295	n/a	n/a	0	0	0
241.986	n/a	WORD	120993	wordpools/wasnorm_wordpool_576.txt	LTP318	ltpFR2	4	1	FRAGRANCE	599	n/a	n/a	0	0	0
244.472	n/a	WORD	122236	wordpools/wasnorm_wordpool_576.txt	LTP318	ltpFR2	4	1	ORCHID	982	n/a	n/a	0	0	0
247.224	n/a	WORD	123612	wordpools/wasnorm_wordpool_576.txt	LTP318	ltpFR2	4	1	BURGLAR	200	n/a	n/a	0	0	0
249.992	n/a	WORD	124996	wordpools/wasnorm_wordpool_576.txt	LTP318	ltpFR2	4	1	WORLD	1622	n/a	n/a	0	0	0
252.728	n/a	WORD	126364	wordpools/wasnorm_wordpool_576.txt	LTP318	ltpFR2	4	1	GLOBE	641	n/a	n/a	0	0	0
255.546	n/a	WORD	127773	wordpools/wasnorm_wordpool_576.txt	LTP318	ltpFR2	4	1	TROMBONE	1508	n/a	n/a	0	0	0
258.134	n/a	WORD	129067	wordpools/wasnorm_wordpool_576.txt	LTP318	ltpFR2	4	1	PIGMENT	1066	n/a	n/a	0	0	0
260.602	n/a	WORD	130301	wordpools/wasnorm_wordpool_576.txt	LTP318	ltpFR2	4	1	CRAB	397	n/a	n/a	0	0	0
263.052	n/a	WORD	131526	wordpools/wasnorm_wordpool_576.txt	LTP318	ltpFR2	4	1	TURNIP	1521	n/a	n/a	0	0	0
265.688	n/a	WORD	132844	wordpools/wasnorm_wordpool_576.txt	LTP318	ltpFR2	4	1	MILK	895	n/a	n/a	0	0	0
268.492	n/a	WORD	134246	wordpools/wasnorm_wordpool_576.txt	LTP318	ltpFR2	4	1	ICEBERG	731	n/a	n/a	0	0	0
271.094	n/a	WORD	135547	wordpools/wasnorm_wordpool_576.txt	LTP318	ltpFR2	4	1	ROBBER	1197	n/a	n/a	0	0	0
273.678	n/a	WORD	136839	wordpools/wasnorm_wordpool_576.txt	LTP318	ltpFR2	4	1	TWIG	1527	n/a	n/a	0	0	0
276.464	n/a	WORD	138232	wordpools/wasnorm_wordpool_576.txt	LTP318	ltpFR2	4	1	OYSTER	995	n/a	n/a	0	0	0
278.932	n/a	WORD	139466	wordpools/wasnorm_wordpool_576.txt	LTP318	ltpFR2	4	1	MILDEW	893	n/a	n/a	0	0	0
280.552	n/a	START	140276	n/a	LTP318	ltpFR2	4	n/a	n/a	n/a	1	n/a	n/a	n/a	n/a
281.678	n/a	DISTRACTOR	140839	n/a	LTP318	ltpFR2	4	1	n/a	n/a	n/a	n/a	0	0	0
281.684	n/a	PROB	140842	n/a	LTP318	ltpFR2	4	n/a	n/a	n/a	1	21	8	5	8
283.772	n/a	PROB	141886	n/a	LTP318	ltpFR2	4	n/a	n/a	n/a	1	3	1	1	1
284.838	n/a	PROB	142419	n/a	LTP318	ltpFR2	4	n/a	n/a	n/a	1	19	8	6	5
287.588	n/a	PROB	143794	n/a	LTP318	ltpFR2	4	n/a	n/a	n/a	1	7	3	1	3
288.826	n/a	PROB	144413	n/a	LTP318	ltpFR2	4	n/a	n/a	n/a	1	21	3	9	9
290.238	n/a	PROB	145119	n/a	LTP318	ltpFR2	4	n/a	n/a	n/a	1	22	9	9	4
291.578	n/a	PROB	145789	n/a	LTP318	ltpFR2	4	n/a	n/a	n/a	1	19	1	9	9
293.424	n/a	PROB	146712	n/a	LTP318	ltpFR2	4	n/a	n/a	n/a	1	17	9	4	4
294.978	n/a	PROB	147489	n/a	LTP318	ltpFR2	4	n/a	n/a	n/a	1	6	1	2	3
296.042	n/a	PROB	148021	n/a	LTP318	ltpFR2	4	n/a	n/a	n/a	1	12	9	2	1
297.428	n/a	PROB	148714	n/a	LTP318	ltpFR2	4	n/a	n/a	n/a	1	22	8	6	8
300.614	n/a	PROB	150307	n/a	LTP318	ltpFR2	4	n/a	n/a	n/a	1	14	4	8	2
304.552	n/a	STOP	152276	n/a	LTP318	ltpFR2	4	n/a	n/a	n/a	1	n/a	n/a	n/a	n/a
306.506	n/a	REC_START	153253	n/a	LTP318	ltpFR2	4	1	n/a	n/a	n/a	n/a	0	0	0
306.506	n/a	REC_WORD_VV	153253	wordpools/wasnorm_wordpool_576.txt	LTP318	ltpFR2	4	1	<>	-1	n/a	n/a	0	0	0
309.296	n/a	REC_WORD	154648	wordpools/wasnorm_wordpool_576.txt	LTP318	ltpFR2	4	1	FRIAR	605	n/a	n/a	0	0	0
310.626	n/a	REC_WORD	155313	wordpools/wasnorm_wordpool_576.txt	LTP318	ltpFR2	4	1	PUDDLE	1140	n/a	n/a	0	0	0
312.108	n/a	REC_WORD	156054	wordpools/wasnorm_wordpool_576.txt	LTP318	ltpFR2	4	1	SPONGE	1355	n/a	n/a	0	0	0
313.656	n/a	REC_WORD	156828	wordpools/wasnorm_wordpool_576.txt	LTP318	ltpFR2	4	1	COIN	343	n/a	n/a	0	0	0
314.792	n/a	REC_WORD	157396	wordpools/wasnorm_wordpool_576.txt	LTP318	ltpFR2	4	1	TURNIP	1521	n/a	n/a	0	0	0
315.754	n/a	REC_WORD	157877	wordpools/wasnorm_wordpool_576.txt	LTP318	ltpFR2	4	1	MILK	895	n/a	n/a	0	0	0
317.744	n/a	REC_WORD	158872	wordpools/wasnorm_wordpool_576.txt	LTP318	ltpFR2	4	1	RAFT	1159	n/a	n/a	0	0	0
318.974	n/a	REC_WORD	159487	wordpools/wasnorm_wordpool_576.txt	LTP318	ltpFR2	4	1	ICEBERG	731	n/a	n/a	0	0	0
320.574	n/a	REC_WORD	160287	wordpools/wasnorm_wordpool_576.txt	LTP318	ltpFR2	4	1	FRAGRANCE	599	n/a	n/a	0	0	0
322.232	n/a	REC_WORD	161116	wordpools/wasnorm_wordpool_576.txt	LTP318	ltpFR2	4	1	ORCHID	982	n/a	n/a	0	0	0
325.724	n/a	REC_WORD	162862	wordpools/wasnorm_wordpool_576.txt	LTP318	ltpFR2	4	1	WORLD	1622	n/a	n/a	0	0	0
326.934	n/a	REC_WORD	163467	wordpools/wasnorm_wordpool_576.txt	LTP318	ltpFR2	4	1	GLOBE	641	n/a	n/a	0	0	0
330.362	n/a	REC_WORD	165181	wordpools/wasnorm_wordpool_576.txt	LTP318	ltpFR2	4	1	SWAMP	1416	n/a	n/a	0	0	0
331.59	n/a	REC_WORD	165795	wordpools/wasnorm_wordpool_576.txt	LTP318	ltpFR2	4	1	MAPLE	866	n/a	n/a	0	0	0
333.972	n/a	REC_WORD	166986	wordpools/wasnorm_wordpool_576.txt	LTP318	ltpFR2	4	1	TWIG	1527	n/a	n/a	0	0	0
342.9	n/a	REC_WORD	171450	wordpools/wasnorm_wordpool_576.txt	LTP318	ltpFR2	4	1	TROMBONE	1508	n/a	n/a	0	0	0
348.324	n/a	REC_WORD	174162	wordpools/wasnorm_wordpool_576.txt	LTP318	ltpFR2	4	1	BURGLAR	200	n/a	n/a	0	0	0
350.68	n/a	REC_WORD	175340	wordpools/wasnorm_wordpool_576.txt	LTP318	ltpFR2	4	1	THIEF	1456	n/a	n/a	0	0	0
370.16	n/a	REC_WORD	185080	wordpools/wasnorm_wordpool_576.txt	LTP318	ltpFR2	4	1	CLAM	315	n/a	n/a	0	0	0
371.012	n/a	REC_WORD	185506	wordpools/wasnorm_wordpool_576.txt	LTP318	ltpFR2	4	1	OYSTER	995	n/a	n/a	0	0	0
373.168	n/a	REC_WORD_VV	186584	wordpools/wasnorm_wordpool_576.txt	LTP318	ltpFR2	4	1	<>	-1	n/a	n/a	0	0	0
373.398	n/a	REC_WORD	186699	wordpools/wasnorm_wordpool_576.txt	LTP318	ltpFR2	4	1	CRAB	397	n/a	n/a	0	0	0
396.926	n/a	DISTRACTOR	198463	n/a	LTP318	ltpFR2	4	2	n/a	n/a	n/a	n/a	0	0	0
396.926	n/a	START	198463	n/a	LTP318	ltpFR2	4	n/a	n/a	n/a	2	n/a	n/a	n/a	n/a
396.94	n/a	PROB	198470	n/a	LTP318	ltpFR2	4	n/a	n/a	n/a	2	23	5	9	9
398.818	n/a	PROB	199409	n/a	LTP318	ltpFR2	4	n/a	n/a	n/a	2	21	9	5	7
401.154	n/a	PROB	200577	n/a	LTP318	ltpFR2	4	n/a	n/a	n/a	2	9	5	1	3
402.722	n/a	PROB	201361	n/a	LTP318	ltpFR2	4	n/a	n/a	n/a	2	6	1	4	1
403.956	n/a	PROB	201978	n/a	LTP318	ltpFR2	4	n/a	n/a	n/a	2	16	7	7	2
405.44	n/a	PROB	202720	n/a	LTP318	ltpFR2	4	n/a	n/a	n/a	2	6	1	3	2
407.21	n/a	PROB	203605	n/a	LTP318	ltpFR2	4	n/a	n/a	n/a	2	8	1	1	6
408.294	n/a	PROB	204147	n/a	LTP318	ltpFR2	4	n/a	n/a	n/a	2	9	2	4	3
410.63	n/a	PROB	205315	n/a	LTP318	ltpFR2	4	n/a	n/a	n/a	2	11	4	6	1
412.75	n/a	PROB	206375	n/a	LTP318	ltpFR2	4	n/a	n/a	n/a	2	17	7	3	7
413.998	n/a	PROB	206999	n/a	LTP318	ltpFR2	4	n/a	n/a	n/a	2	16	6	7	3
415.716	n/a	PROB	207858	n/a	LTP318	ltpFR2	4	n/a	n/a	n/a	2	23	5	9	9
417.05	n/a	PROB	208525	n/a	LTP318	ltpFR2	4	n/a	n/a	n/a	2	15	4	7	4
419.352	n/a	PROB	209676	n/a	LTP318	ltpFR2	4	n/a	n/a	n/a	2	16	3	6	7
420.76	n/a	STOP	210380	n/a	LTP318	ltpFR2	4	n/a	n/a	n/a	2	n/a	n/a	n/a	n/a
421.796	n/a	WORD	210898	wordpools/wasnorm_wordpool_576.txt	LTP318	ltpFR2	4	2	CREVICE	405	n/a	n/a	0	0	0
424.542	n/a	WORD	212271	wordpools/wasnorm_wordpool_576.txt	LTP318	ltpFR2	4	2	BLUEPRINT	142	n/a	n/a	0	0	0
427.078	n/a	WORD	213539	wordpools/wasnorm_wordpool_576.txt	LTP318	ltpFR2	4	2	HUMAN	726	n/a	n/a	0	0	0
429.78	n/a	WORD	214890	wordpools/wasnorm_wordpool_576.txt	LTP318	ltpFR2	4	2	BODY	145	n/a	n/a	0	0	0
432.6	n/a	WORD	216300	wordpools/wasnorm_wordpool_576.txt	LTP318	ltpFR2	4	2	OFFICE	972	n/a	n/a	0	0	0
435.256	n/a	WORD	217628	wordpools/wasnorm_wordpool_576.txt	LTP318	ltpFR2	4	2	SNAIL	1332	n/a	n/a	0	0	0
438.042	n/a	WORD	219021	wordpools/wasnorm_wordpool_576.txt	LTP318	ltpFR2	4	2	PLATE	1086	n/a	n/a	0	0	0
440.708	n/a	WORD	220354	wordpools/wasnorm_wordpool_576.txt	LTP318	ltpFR2	4	2	SCISSORS	1250	n/a	n/a	0	0	0
443.476	n/a	WORD	221738	wordpools/wasnorm_wordpool_576.txt	LTP318	ltpFR2	4	2	FLAG	573	n/a	n/a	0	0	0
446.03	n/a	WORD	223015	wordpools/wasnorm_wordpool_576.txt	LTP318	ltpFR2	4	2	DONOR	485	n/a	n/a	0	0	0
448.798	n/a	WORD	224399	wordpools/wasnorm_wordpool_576.txt	LTP318	ltpFR2	4	2	STAMP	1370	n/a	n/a	0	0	0
451.416	n/a	WORD	225708	wordpools/wasnorm_wordpool_576.txt	LTP318	ltpFR2	4	2	SILK	1307	n/a	n/a	0	0	0
453.852	n/a	WORD	226926	wordpools/wasnorm_wordpool_576.txt	LTP318	ltpFR2	4	2	XEROX	1628	n/a	n/a	0	0	0
456.486	n/a	WORD	228243	wordpools/wasnorm_wordpool_576.txt	LTP318	ltpFR2	4	2	CLAM	315	n/a	n/a	0	0	0
458.988	n/a	WORD	229494	wordpools/wasnorm_wordpool_576.txt	LTP318	ltpFR2	4	2	HEART	697	n/a	n/a	0	0	0
461.792	n/a	WORD	230896	wordpools/wasnorm_wordpool_576.txt	LTP318	ltpFR2	4	2	BLOUSE	139	n/a	n/a	0	0	0
464.344	n/a	WORD	232172	wordpools/wasnorm_wordpool_576.txt	LTP318	ltpFR2	4	2	POCKET	1093	n/a	n/a	0	0	0
467.08	n/a	WORD	233540	wordpools/wasnorm_wordpool_576.txt	LTP318	ltpFR2	4	2	TRENCH	1503	n/a	n/a	0	0	0
469.698	n/a	WORD	234849	wordpools/wasnorm_wordpool_576.txt	LTP318	ltpFR2	4	2	RECEIPT	1173	n/a	n/a	0	0	0
472.27	n/a	WORD	236135	wordpools/wasnorm_wordpool_576.txt	LTP318	ltpFR2	4	2	MACHINE	852	n/a	n/a	0	0	0
474.952	n/a	WORD	237476	wordpools/wasnorm_wordpool_576.txt	LTP318	ltpFR2	4	2	MATCH	878	n/a	n/a	0	0	0
477.388	n/a	WORD	238694	wordpools/wasnorm_wordpool_576.txt	LTP318	ltpFR2	4	2	DRAGON	492	n/a	n/a	0	0	0
480.192	n/a	WORD	240096	wordpools/wasnorm_wordpool_576.txt	LTP318	ltpFR2	4	2	FIREMAN	569	n/a	n/a	0	0	0
482.728	n/a	WORD	241364	wordpools/wasnorm_wordpool_576.txt	LTP318	ltpFR2	4	2	RIFLE	1192	n/a	n/a	0	0	0
484.344	n/a	START	242172	n/a	LTP318	ltpFR2	4	n/a	n/a	n/a	3	n/a	n/a	n/a	n/a
485.368	n/a	DISTRACTOR	242684	n/a	LTP318	ltpFR2	4	2	n/a	n/a	n/a	n/a	0	0	0
485.38	n/a	PROB	242690	n/a	LTP318	ltpFR2	4	n/a	n/a	n/a	3	9	6	2	1
487.214	n/a	PROB	243607	n/a	LTP318	ltpFR2	4	n/a	n/a	n/a	3	10	5	1	4
489.162	n/a	PROB	244581	n/a	LTP318	ltpFR2	4	n/a	n/a	n/a	3	16	2	8	6
490.73	n/a	PROB	245365	n/a	LTP318	ltpFR2	4	n/a	n/a	n/a	3	12	1	7	4
492.132	n/a	PROB	246066	n/a	LTP318	ltpFR2	4	n/a	n/a	n/a	3	14	3	3	8
493.62	n/a	PROB	246810	n/a	LTP318	ltpFR2	4	n/a	n/a	n/a	3	22	9	8	5
496.068	n/a	PROB	248034	n/a	LTP318	ltpFR2	4	n/a	n/a	n/a	3	11	4	4	3
497.552	n/a	PROB	248776	n/a	LTP318	ltpFR2	4	n/a	n/a	n/a	3	4	1	2	1
498.59	n/a	PROB	249295	n/a	LTP318	ltpFR2	4	n/a	n/a	n/a	3	16	6	9	1
500.054	n/a	PROB	250027	n/a	LTP318	ltpFR2	4	n/a	n/a	n/a	3	19	5	5	9
501.222	n/a	PROB	250611	n/a	LTP318	ltpFR2	4	n/a	n/a	n/a	3	13	5	7	1
502.774	n/a	PROB	251387	n/a	LTP318	ltpFR2	4	n/a	n/a	n/a	3	20	3	8	9
504.642	n/a	PROB	252321	n/a	LTP318	ltpFR2	4	n/a	n/a	n/a	3	17	4	5	8
506.594	n/a	PROB	253297	n/a	LTP318	ltpFR2	4	n/a	n/a	n/a	3	13	4	8	1
508.258	n/a	STOP	254129	n/a	LTP318	ltpFR2	4	n/a	n/a	n/a	3	n/a	n/a	n/a	n/a
510.284	n/a	REC_START	255142	n/a	LTP318	ltpFR2	4	2	n/a	n/a	n/a	n/a	0	0	0
513.396	n/a	REC_WORD	256698	wordpools/wasnorm_wordpool_576.txt	LTP318	ltpFR2	4	2	BLUEPRINT	142	n/a	n/a	0	0	0
514.396	n/a	REC_WORD_VV	257198	wordpools/wasnorm_wordpool_576.txt	LTP318	ltpFR2	4	2	<>	-1	n/a	n/a	0	0	0
515.894	n/a	REC_WORD	257947	wordpools/wasnorm_wordpool_576.txt	LTP318	ltpFR2	4	2	BODY	145	n/a	n/a	0	0	0
518.004	n/a	REC_WORD	259002	wordpools/wasnorm_wordpool_576.txt	LTP318	ltpFR2	4	2	HUMAN	726	n/a	n/a	0	0	0
520.686	n/a	REC_WORD	260343	wordpools/wasnorm_wordpool_576.txt	LTP318	ltpFR2	4	2	SCISSORS	1250	n/a	n/a	0	0	0
522.932	n/a	REC_WORD	261466	wordpools/wasnorm_wordpool_576.txt	LTP318	ltpFR2	4	2	PLATE	1086	n/a	n/a	0	0	0
523.722	n/a	REC_WORD	261861	wordpools/wasnorm_wordpool_576.txt	LTP318	ltpFR2	4	2	SNAIL	1332	n/a	n/a	0	0	0
528.71	n/a	REC_WORD	264355	wordpools/wasnorm_wordpool_576.txt	LTP318	ltpFR2	4	2	CLAM	315	n/a	n/a	0	0	0
531.122	n/a	REC_WORD	265561	wordpools/wasnorm_wordpool_576.txt	LTP318	ltpFR2	4	2	BLOUSE	139	n/a	n/a	0	0	0
532.116	n/a	REC_WORD	266058	wordpools/wasnorm_wordpool_576.txt	LTP318	ltpFR2	4	2	SILK	1307	n/a	n/a	0	0	0
533.336	n/a	REC_WORD	266668	wordpools/wasnorm_wordpool_576.txt	LTP318	ltpFR2	4	2	DONOR	485	n/a	n/a	0	0	0
536.03	n/a	REC_WORD	268015	wordpools/wasnorm_wordpool_576.txt	LTP318	ltpFR2	4	2	HEART	697	n/a	n/a	0	0	0
539.574	n/a	REC_WORD	269787	wordpools/wasnorm_wordpool_576.txt	LTP318	ltpFR2	4	2	CREVICE	405	n/a	n/a	0	0	0
541.456	n/a	REC_WORD	270728	wordpools/wasnorm_wordpool_576.txt	LTP318	ltpFR2	4	2	TRENCH	1503	n/a	n/a	0	0	0
544.122	n/a	REC_WORD	272061	wordpools/wasnorm_wordpool_576.txt	LTP318	ltpFR2	4	2	XEROX	1628	n/a	n/a	0	0	0
545.418	n/a	REC_WORD	272709	wordpools/wasnorm_wordpool_576.txt	LTP318	ltpFR2	4	2	MACHINE	852	n/a	n/a	0	0	0
548.036	n/a	REC_WORD	274018	wordpools/wasnorm_wordpool_576.txt	LTP318	ltpFR2	4	2	POCKET	1093	n/a	n/a	0	0	0
566.26	n/a	REC_WORD	283130	wordpools/wasnorm_wordpool_576.txt	LTP318	ltpFR2	4	2	FLAG	573	n/a	n/a	0	0	0
567.844	n/a	REC_WORD	283922	wordpools/wasnorm_wordpool_576.txt	LTP318	ltpFR2	4	2	RIFLE	1192	n/a	n/a	0	0	0
569.984	n/a	REC_WORD	284992	wordpools/wasnorm_wordpool_576.txt	LTP318	ltpFR2	4	2	DRAGON	492	n/a	n/a	0	0	0
570.716	n/a	REC_WORD	285358	wordpools/wasnorm_wordpool_576.txt	LTP318	ltpFR2	4	2	FIREMAN	569	n/a	n/a	0	0	0
600.712	n/a	DISTRACTOR	300356	n/a	LTP318	ltpFR2	4	3	n/a	n/a	n/a	n/a	0	0	0
600.712	n/a	START	300356	n/a	LTP318	ltpFR2	4	n/a	n/a	n/a	4	n/a	n/a	n/a	n/a
600.724	n/a	PROB	300362	n/a	LTP318	ltpFR2	4	n/a	n/a	n/a	4	14	1	8	5
602.826	n/a	PROB	301413	n/a	LTP318	ltpFR2	4	n/a	n/a	n/a	4	6	2	1	3
604.51	n/a	PROB	302255	n/a	LTP318	ltpFR2	4	n/a	n/a	n/a	4	12	1	2	9
606.546	n/a	PROB	303273	n/a	LTP318	ltpFR2	4	n/a	n/a	n/a	4	18	8	2	8
608.046	n/a	PROB	304023	n/a	LTP318	ltpFR2	4	n/a	n/a	n/a	4	12	2	2	8
609.5	n/a	PROB	304750	n/a	LTP318	ltpFR2	4	n/a	n/a	n/a	4	18	4	8	6
611.068	n/a	PROB	305534	n/a	LTP318	ltpFR2	4	n/a	n/a	n/a	4	7	1	5	1
612.168	n/a	PROB	306084	n/a	LTP318	ltpFR2	4	n/a	n/a	n/a	4	7	1	3	3
613.322	n/a	PROB	306661	n/a	LTP318	ltpFR2	4	n/a	n/a	n/a	4	13	3	5	5
614.706	n/a	PROB	307353	n/a	LTP318	ltpFR2	4	n/a	n/a	n/a	4	14	8	2	4
615.938	n/a	PROB	307969	n/a	LTP318	ltpFR2	4	n/a	n/a	n/a	4	18	9	3	6
617.408	n/a	PROB	308704	n/a	LTP318	ltpFR2	4	n/a	n/a	n/a	4	15	4	7	4
618.808	n/a	PROB	309404	n/a	LTP318	ltpFR2	4	n/a	n/a	n/a	4	15	3	6	6
620.41	n/a	PROB	310205	n/a	LTP318	ltpFR2	4	n/a	n/a	n/a	4	15	6	8	1
622.01	n/a	PROB	311005	n/a	LTP318	ltpFR2	4	n/a	n/a	n/a	4	18	2	8	8
623.326	n/a	STOP	311663	n/a	LTP318	ltpFR2	4	n/a	n/a	n/a	4	n/a	n/a	n/a	n/a
625.89	n/a	WORD	312945	wordpools/wasnorm_wordpool_576.txt	LTP318	ltpFR2	4	3	COCKTAIL	338	n/a	n/a	0	0	0
628.318	n/a	WORD	314159	wordpools/wasnorm_wordpool_576.txt	LTP318	ltpFR2	4	3	TRANSPLANT	1496	n/a	n/a	0	0	0
631.07	n/a	WORD	315535	wordpools/wasnorm_wordpool_576.txt	LTP318	ltpFR2	4	3	PANTHER	1009	n/a	n/a	0	0	0
633.622	n/a	WORD	316811	wordpools/wasnorm_wordpool_576.txt	LTP318	ltpFR2	4	3	SUNSET	1408	n/a	n/a	0	0	0
636.25	n/a	WORD	318125	wordpools/wasnorm_wordpool_576.txt	LTP318	ltpFR2	4	3	BABY	64	n/a	n/a	0	0	0
638.976	n/a	WORD	319488	wordpools/wasnorm_wordpool_576.txt	LTP318	ltpFR2	4	3	BADGE	68	n/a	n/a	0	0	0
641.446	n/a	WORD	320723	wordpools/wasnorm_wordpool_576.txt	LTP318	ltpFR2	4	3	DUSTPAN	509	n/a	n/a	0	0	0
643.948	n/a	WORD	321974	wordpools/wasnorm_wordpool_576.txt	LTP318	ltpFR2	4	3	ONION	977	n/a	n/a	0	0	0
646.734	n/a	WORD	323367	wordpools/wasnorm_wordpool_576.txt	LTP318	ltpFR2	4	3	WARDROBE	1587	n/a	n/a	0	0	0
649.176	n/a	WORD	324588	wordpools/wasnorm_wordpool_576.txt	LTP318	ltpFR2	4	3	WASHER	1592	n/a	n/a	0	0	0
651.972	n/a	WORD	325986	wordpools/wasnorm_wordpool_576.txt	LTP318	ltpFR2	4	3	CHEST	295	n/a	n/a	0	0	0
654.524	n/a	WORD	327262	wordpools/wasnorm_wordpool_576.txt	LTP318	ltpFR2	4	3	CASKET	255	n/a	n/a	0	0	0
657.332	n/a	WORD	328666	wordpools/wasnorm_wordpool_576.txt	LTP318	ltpFR2	4	3	PUPPY	1144	n/a	n/a	0	0	0
660.068	n/a	WORD	330034	wordpools/wasnorm_wordpool_576.txt	LTP318	ltpFR2	4	3	GAZELLE	628	n/a	n/a	0	0	0
662.502	n/a	WORD	331251	wordpools/wasnorm_wordpool_576.txt	LTP318	ltpFR2	4	3	MISTER	901	n/a	n/a	0	0	0
665.234	n/a	WORD	332617	wordpools/wasnorm_wordpool_576.txt	LTP318	ltpFR2	4	3	WOMAN	1620	n/a	n/a	0	0	0
667.692	n/a	WORD	333846	wordpools/wasnorm_wordpool_576.txt	LTP318	ltpFR2	4	3	MOP	916	n/a	n/a	0	0	0
670.388	n/a	WORD	335194	wordpools/wasnorm_wordpool_576.txt	LTP318	ltpFR2	4	3	BRAKE	166	n/a	n/a	0	0	0
673.006	n/a	WORD	336503	wordpools/wasnorm_wordpool_576.txt	LTP318	ltpFR2	4	3	BRICK	172	n/a	n/a	0	0	0
675.826	n/a	WORD	337913	wordpools/wasnorm_wordpool_576.txt	LTP318	ltpFR2	4	3	JURY	766	n/a	n/a	0	0	0
678.562	n/a	WORD	339281	wordpools/wasnorm_wordpool_576.txt	LTP318	ltpFR2	4	3	AGENT	10	n/a	n/a	0	0	0
681.034	n/a	WORD	340517	wordpools/wasnorm_wordpool_576.txt	LTP318	ltpFR2	4	3	PLAZA	1088	n/a	n/a	0	0	0
683.736	n/a	WORD	341868	wordpools/wasnorm_wordpool_576.txt	LTP318	ltpFR2	4	3	BACON	67	n/a	n/a	0	0	0
686.286	n/a	WORD	343143	wordpools/wasnorm_wordpool_576.txt	LTP318	ltpFR2	4	3	TURKEY	1520	n/a	n/a	0	0	0
687.904	n/a	START	343952	n/a	LTP318	ltpFR2	4	n/a	n/a	n/a	5	n/a	n/a	n/a	n/a
689.104	n/a	DISTRACTOR	344552	n/a	LTP318	ltpFR2	4	3	n/a	n/a	n/a	n/a	0	0	0
689.12	n/a	PROB	344560	n/a	LTP318	ltpFR2	4	n/a	n/a	n/a	5	15	4	3	9
691.036	n/a	PROB	345518	n/a	LTP318	ltpFR2	4	n/a	n/a	n/a	5	20	9	3	8
692.988	n/a	PROB	346494	n/a	LTP318	ltpFR2	4	n/a	n/a	n/a	5	9	3	1	5
695.14	n/a	PROB	347570	n/a	LTP318	ltpFR2	4	n/a	n/a	n/a	5	17	8	4	5
696.974	n/a	PROB	348487	n/a	LTP318	ltpFR2	4	n/a	n/a	n/a	5	22	5	8	9
701.864	n/a	PROB	350932	n/a	LTP318	ltpFR2	4	n/a	n/a	n/a	5	14	9	3	2
703.73	n/a	PROB	351865	n/a	LTP318	ltpFR2	4	n/a	n/a	n/a	5	10	5	4	1
704.98	n/a	PROB	352490	n/a	LTP318	ltpFR2	4	n/a	n/a	n/a	5	14	3	3	8
706.366	n/a	PROB	353183	n/a	LTP318	ltpFR2	4	n/a	n/a	n/a	5	20	7	6	7
707.818	n/a	PROB	353909	n/a	LTP318	ltpFR2	4	n/a	n/a	n/a	5	21	5	7	7
709.234	n/a	PROB	354617	n/a	LTP318	ltpFR2	4	n/a	n/a	n/a	5	12	2	2	8
711.07	n/a	STOP	355535	n/a	LTP318	ltpFR2	4	n/a	n/a	n/a	5	n/a	n/a	n/a	n/a
713.692	n/a	REC_START	356846	n/a	LTP318	ltpFR2	4	3	n/a	n/a	n/a	n/a	0	0	0
717.068	n/a	REC_WORD	358534	wordpools/wasnorm_wordpool_576.txt	LTP318	ltpFR2	4	3	MISTER	901	n/a	n/a	0	0	0
718.068	n/a	REC_WORD_VV	359034	wordpools/wasnorm_wordpool_576.txt	LTP318	ltpFR2	4	3	<>	-1	n/a	n/a	0	0	0
720.012	n/a	REC_WORD	360006	wordpools/wasnorm_wordpool_576.txt	LTP318	ltpFR2	4	3	WOMAN	1620	n/a	n/a	0	0	0
721.03	n/a	REC_WORD	360515	wordpools/wasnorm_wordpool_576.txt	LTP318	ltpFR2	4	3	BABY	64	n/a	n/a	0	0	0
726.142	n/a	REC_WORD	363071	wordpools/wasnorm_wordpool_576.txt	LTP318	ltpFR2	4	3	COCKTAIL	338	n/a	n/a	0	0	0
729.196	n/a	REC_WORD	364598	wordpools/wasnorm_wordpool_576.txt	LTP318	ltpFR2	4	3	SUNRISE	1407	n/a	n/a	0	0	0
730.196	n/a	REC_WORD_VV	365098	wordpools/wasnorm_wordpool_576.txt	LTP318	ltpFR2	4	3	<>	-1	n/a	n/a	0	0	0
732.722	n/a	REC_WORD	366361	wordpools/wasnorm_wordpool_576.txt	LTP318	ltpFR2	4	3	ONION	977	n/a	n/a	0	0	0
734.092	n/a	REC_WORD	367046	wordpools/wasnorm_wordpool_576.txt	LTP318	ltpFR2	4	3	BACON	67	n/a	n/a	0	0	0
734.816	n/a	REC_WORD	367408	wordpools/wasnorm_wordpool_576.txt	LTP318	ltpFR2	4	3	TURKEY	1520	n/a	n/a	0	0	0
737.672	n/a	REC_WORD	368836	wordpools/wasnorm_wordpool_576.txt	LTP318	ltpFR2	4	3	CHEST	295	n/a	n/a	0	0	0
738.494	n/a	REC_WORD	369247	wordpools/wasnorm_wordpool_576.txt	LTP318	ltpFR2	4	3	TRANSPLANT	1496	n/a	n/a	0	0	0
739.764	n/a	REC_WORD	369882	wordpools/wasnorm_wordpool_576.txt	LTP318	ltpFR2	4	3	BADGE	68	n/a	n/a	0	0	0
743.682	n/a	REC_WORD	371841	wordpools/wasnorm_wordpool_576.txt	LTP318	ltpFR2	4	3	PANTHER	1009	n/a	n/a	0	0	0
744.526	n/a	REC_WORD	372263	wordpools/wasnorm_wordpool_576.txt	LTP318	ltpFR2	4	3	GAZELLE	628	n/a	n/a	0	0	0
745.708	n/a	REC_WORD	372854	wordpools/wasnorm_wordpool_576.txt	LTP318	ltpFR2	4	3	AGENT	10	n/a	n/a	0	0	0
754.524	n/a	REC_WORD	377262	wordpools/wasnorm_wordpool_576.txt	LTP318	ltpFR2	4	3	BRICK	172	n/a	n/a	0	0	0
756.69	n/a	REC_WORD	378345	wordpools/wasnorm_wordpool_576.txt	LTP318	ltpFR2	4	3	WASHER	1592	n/a	n/a	0	0	0
804.148	n/a	DISTRACTOR	402074	n/a	LTP318	ltpFR2	4	4	n/a	n/a	n/a	n/a	0	0	0
804.15	n/a	START	402075	n/a	LTP318	ltpFR2	4	n/a	n/a	n/a	6	n/a	n/a	n/a	n/a
804.162	n/a	PROB	402081	n/a	LTP318	ltpFR2	4	n/a	n/a	n/a	6	21	6	6	7
806.802	n/a	PROB	403401	n/a	LTP318	ltpFR2	4	n/a	n/a	n/a	6	19	5	6	8
809.048	n/a	PROB	404524	n/a	LTP318	ltpFR2	4	n/a	n/a	n/a	6	20	4	9	7
811.39	n/a	PROB	405695	n/a	LTP318	ltpFR2	4	n/a	n/a	n/a	6	21	8	9	4
813.308	n/a	PROB	406654	n/a	LTP318	ltpFR2	4	n/a	n/a	n/a	6	9	3	5	1
814.97	n/a	PROB	407485	n/a	LTP318	ltpFR2	4	n/a	n/a	n/a	6	5	3	1	1
816.004	n/a	PROB	408002	n/a	LTP318	ltpFR2	4	n/a	n/a	n/a	6	17	9	1	7
817.374	n/a	PROB	408687	n/a	LTP318	ltpFR2	4	n/a	n/a	n/a	6	13	2	6	5
818.978	n/a	PROB	409489	n/a	LTP318	ltpFR2	4	n/a	n/a	n/a	6	12	1	7	4
820.276	n/a	PROB	410138	n/a	LTP318	ltpFR2	4	n/a	n/a	n/a	6	23	9	6	8
822.048	n/a	PROB	411024	n/a	LTP318	ltpFR2	4	n/a	n/a	n/a	6	15	6	8	1
823.612	n/a	PROB	411806	n/a	LTP318	ltpFR2	4	n/a	n/a	n/a	6	5	2	1	2
825.12	n/a	PROB	412560	n/a	LTP318	ltpFR2	4	n/a	n/a	n/a	6	11	1	3	7
828.15	n/a	STOP	414075	n/a	LTP318	ltpFR2	4	n/a	n/a	n/a	6	n/a	n/a	n/a	n/a
829.218	n/a	WORD	414609	wordpools/wasnorm_wordpool_576.txt	LTP318	ltpFR2	4	4	CLOTHES	327	n/a	n/a	0	0	0
831.92	n/a	WORD	415960	wordpools/wasnorm_wordpool_576.txt	LTP318	ltpFR2	4	4	JELLY	755	n/a	n/a	0	0	0
834.64	n/a	WORD	417320	wordpools/wasnorm_wordpool_576.txt	LTP318	ltpFR2	4	4	OINTMENT	974	n/a	n/a	0	0	0
837.448	n/a	WORD	418724	wordpools/wasnorm_wordpool_576.txt	LTP318	ltpFR2	4	4	ANTLER	29	n/a	n/a	0	0	0
840.11	n/a	WORD	420055	wordpools/wasnorm_wordpool_576.txt	LTP318	ltpFR2	4	4	ROBIN	1199	n/a	n/a	0	0	0
842.912	n/a	WORD	421456	wordpools/wasnorm_wordpool_576.txt	LTP318	ltpFR2	4	4	CONVICT	371	n/a	n/a	0	0	0
845.422	n/a	WORD	422711	wordpools/wasnorm_wordpool_576.txt	LTP318	ltpFR2	4	4	SUNRISE	1407	n/a	n/a	0	0	0
847.884	n/a	WORD	423942	wordpools/wasnorm_wordpool_576.txt	LTP318	ltpFR2	4	4	THREAD	1460	n/a	n/a	0	0	0
850.46	n/a	WORD	425230	wordpools/wasnorm_wordpool_576.txt	LTP318	ltpFR2	4	4	BREAST	171	n/a	n/a	0	0	0
853.272	n/a	WORD	426636	wordpools/wasnorm_wordpool_576.txt	LTP318	ltpFR2	4	4	ROOSTER	1209	n/a	n/a	0	0	0
855.698	n/a	WORD	427849	wordpools/wasnorm_wordpool_576.txt	LTP318	ltpFR2	4	4	MOTOR	922	n/a	n/a	0	0	0
858.442	n/a	WORD	429221	wordpools/wasnorm_wordpool_576.txt	LTP318	ltpFR2	4	4	SOFTBALL	1343	n/a	n/a	0	0	0
860.994	n/a	WORD	430497	wordpools/wasnorm_wordpool_576.txt	LTP318	ltpFR2	4	4	BANQUET	86	n/a	n/a	0	0	0
863.654	n/a	WORD	431827	wordpools/wasnorm_wordpool_576.txt	LTP318	ltpFR2	4	4	MOTEL	919	n/a	n/a	0	0	0
866.324	n/a	WORD	433162	wordpools/wasnorm_wordpool_576.txt	LTP318	ltpFR2	4	4	WAGON	1578	n/a	n/a	0	0	0
869.092	n/a	WORD	434546	wordpools/wasnorm_wordpool_576.txt	LTP318	ltpFR2	4	4	NOVEL	960	n/a	n/a	0	0	0
871.752	n/a	WORD	435876	wordpools/wasnorm_wordpool_576.txt	LTP318	ltpFR2	4	4	HOSTESS	723	n/a	n/a	0	0	0
874.37	n/a	WORD	437185	wordpools/wasnorm_wordpool_576.txt	LTP318	ltpFR2	4	4	ICING	732	n/a	n/a	0	0	0
876.866	n/a	WORD	438433	wordpools/wasnorm_wordpool_576.txt	LTP318	ltpFR2	4	4	SHORTCAKE	1292	n/a	n/a	0	0	0
879.642	n/a	WORD	439821	wordpools/wasnorm_wordpool_576.txt	LTP318	ltpFR2	4	4	YARN	1631	n/a	n/a	0	0	0
882.426	n/a	WORD	441213	wordpools/wasnorm_wordpool_576.txt	LTP318	ltpFR2	4	4	HORNET	718	n/a	n/a	0	0	0
884.962	n/a	WORD	442481	wordpools/wasnorm_wordpool_576.txt	LTP318	ltpFR2	4	4	BUNNY	198	n/a	n/a	0	0	0
887.748	n/a	WORD	443874	wordpools/wasnorm_wordpool_576.txt	LTP318	ltpFR2	4	4	DINER	467	n/a	n/a	0	0	0
890.244	n/a	WORD	445122	wordpools/wasnorm_wordpool_576.txt	LTP318	ltpFR2	4	4	PAPER	1011	n/a	n/a	0	0	0
891.852	n/a	START	445926	n/a	LTP318	ltpFR2	4	n/a	n/a	n/a	7	n/a	n/a	n/a	n/a
892.936	n/a	DISTRACTOR	446468	n/a	LTP318	ltpFR2	4	4	n/a	n/a	n/a	n/a	0	0	0
892.944	n/a	PROB	446472	n/a	LTP318	ltpFR2	4	n/a	n/a	n/a	7	15	5	9	1
894.762	n/a	PROB	447381	n/a	LTP318	ltpFR2	4	n/a	n/a	n/a	7	16	6	4	6
896.012	n/a	PROB	448006	n/a	LTP318	ltpFR2	4	n/a	n/a	n/a	7	22	6	8	8
898.298	n/a	PROB	449149	n/a	LTP318	ltpFR2	4	n/a	n/a	n/a	7	13	1	8	4
899.7	n/a	PROB	449850	n/a	LTP318	ltpFR2	4	n/a	n/a	n/a	7	13	1	4	8
901.436	n/a	PROB	450718	n/a	LTP318	ltpFR2	4	n/a	n/a	n/a	7	9	4	2	3
902.634	n/a	PROB	451317	n/a	LTP318	ltpFR2	4	n/a	n/a	n/a	7	18	2	8	8
904.252	n/a	PROB	452126	n/a	LTP318	ltpFR2	4	n/a	n/a	n/a	7	20	5	9	6
907.822	n/a	PROB	453911	n/a	LTP318	ltpFR2	4	n/a	n/a	n/a	7	19	8	9	2
909.44	n/a	PROB	454720	n/a	LTP318	ltpFR2	4	n/a	n/a	n/a	7	8	3	4	1
910.876	n/a	PROB	455438	n/a	LTP318	ltpFR2	4	n/a	n/a	n/a	7	11	1	4	6
912.762	n/a	PROB	456381	n/a	LTP318	ltpFR2	4	n/a	n/a	n/a	7	14	4	5	5
913.994	n/a	PROB	456997	n/a	LTP318	ltpFR2	4	n/a	n/a	n/a	7	15	7	3	5
915.142	n/a	STOP	457571	n/a	LTP318	ltpFR2	4	n/a	n/a	n/a	7	n/a	n/a	n/a	n/a
917.766	n/a	REC_START	458883	n/a	LTP318	ltpFR2	4	4	n/a	n/a	n/a	n/a	0	0	0
920.578	n/a	REC_WORD	460289	wordpools/wasnorm_wordpool_576.txt	LTP318	ltpFR2	4	4	JELLY	755	n/a	n/a	0	0	0
921.718	n/a	REC_WORD	460859	wordpools/wasnorm_wordpool_576.txt	LTP318	ltpFR2	4	4	OINTMENT	974	n/a	n/a	0	0	0
922.75	n/a	REC_WORD	461375	wordpools/wasnorm_wordpool_576.txt	LTP318	ltpFR2	4	4	CLOTHES	327	n/a	n/a	0	0	0
924.472	n/a	REC_WORD_VV	462236	wordpools/wasnorm_wordpool_576.txt	LTP318	ltpFR2	4	4	<>	-1	n/a	n/a	0	0	0
925.24	n/a	REC_WORD	462620	wordpools/wasnorm_wordpool_576.txt	LTP318	ltpFR2	4	4	ANTLER	29	n/a	n/a	0	0	0
927.518	n/a	REC_WORD	463759	wordpools/wasnorm_wordpool_576.txt	LTP318	ltpFR2	4	4	BUNNY	198	n/a	n/a	0	0	0
929.614	n/a	REC_WORD	464807	wordpools/wasnorm_wordpool_576.txt	LTP318	ltpFR2	4	4	ROBIN	1199	n/a	n/a	0	0	0
933.73	n/a	REC_WORD	466865	wordpools/wasnorm_wordpool_576.txt	LTP318	ltpFR2	4	4	THREAD	1460	n/a	n/a	0	0	0
941.786	n/a	REC_WORD	470893	wordpools/wasnorm_wordpool_576.txt	LTP318	ltpFR2	4	4	WAGON	1578	n/a	n/a	0	0	0
942.852	n/a	REC_WORD	471426	wordpools/wasnorm_wordpool_576.txt	LTP318	ltpFR2	4	4	SOFTBALL	1343	n/a	n/a	0	0	0
944.188	n/a	REC_WORD	472094	wordpools/wasnorm_wordpool_576.txt	LTP318	ltpFR2	4	4	BANQUET	86	n/a	n/a	0	0	0
945.08	n/a	REC_WORD	472540	wordpools/wasnorm_wordpool_576.txt	LTP318	ltpFR2	4	4	SUNRISE	1407	n/a	n/a	0	0	0
949.1	n/a	REC_WORD	474550	wordpools/wasnorm_wordpool_576.txt	LTP318	ltpFR2	4	4	ICING	732	n/a	n/a	0	0	0
949.862	n/a	REC_WORD	474931	wordpools/wasnorm_wordpool_576.txt	LTP318	ltpFR2	4	4	SHORTCAKE	1292	n/a	n/a	0	0	0
950.954	n/a	REC_WORD	475477	wordpools/wasnorm_wordpool_576.txt	LTP318	ltpFR2	4	4	HOSTESS	723	n/a	n/a	0	0	0
951.908	n/a	REC_WORD	475954	wordpools/wasnorm_wordpool_576.txt	LTP318	ltpFR2	4	4	DINER	467	n/a	n/a	0	0	0
952.828	n/a	REC_WORD	476414	wordpools/wasnorm_wordpool_576.txt	LTP318	ltpFR2	4	4	MOTEL	919	n/a	n/a	0	0	0
962.588	n/a	REC_WORD	481294	wordpools/wasnorm_wordpool_576.txt	LTP318	ltpFR2	4	4	BREAST	171	n/a	n/a	0	0	0
1008.244	n/a	WORD	504122	wordpools/wasnorm_wordpool_576.txt	LTP318	ltpFR2	4	5	APRON	35	n/a	n/a	0	0	0
1010.814	n/a	WORD	505407	wordpools/wasnorm_wordpool_576.txt	LTP318	ltpFR2	4	5	KLEENEX	782	n/a	n/a	0	0	0
1013.248	n/a	WORD	506624	wordpools/wasnorm_wordpool_576.txt	LTP318	ltpFR2	4	5	BEAVER	109	n/a	n/a	0	0	0
1016.048	n/a	WORD	508024	wordpools/wasnorm_wordpool_576.txt	LTP318	ltpFR2	4	5	BUGGY	188	n/a	n/a	0	0	0
1018.802	n/a	WORD	509401	wordpools/wasnorm_wordpool_576.txt	LTP318	ltpFR2	4	5	HORSE	719	n/a	n/a	0	0	0
1021.488	n/a	WORD	510744	wordpools/wasnorm_wordpool_576.txt	LTP318	ltpFR2	4	5	POISON	1096	n/a	n/a	0	0	0
1024.29	n/a	WORD	512145	wordpools/wasnorm_wordpool_576.txt	LTP318	ltpFR2	4	5	CUPBOARD	425	n/a	n/a	0	0	0
1026.828	n/a	WORD	513414	wordpools/wasnorm_wordpool_576.txt	LTP318	ltpFR2	4	5	BINDER	127	n/a	n/a	0	0	0
1029.494	n/a	WORD	514747	wordpools/wasnorm_wordpool_576.txt	LTP318	ltpFR2	4	5	GRAVE	658	n/a	n/a	0	0	0
1032.012	n/a	WORD	516006	wordpools/wasnorm_wordpool_576.txt	LTP318	ltpFR2	4	5	GOBLIN	645	n/a	n/a	0	0	0
1034.514	n/a	WORD	517257	wordpools/wasnorm_wordpool_576.txt	LTP318	ltpFR2	4	5	SHARK	1275	n/a	n/a	0	0	0
1037.166	n/a	WORD	518583	wordpools/wasnorm_wordpool_576.txt	LTP318	ltpFR2	4	5	PLAYGROUND	1087	n/a	n/a	0	0	0
1039.95	n/a	WORD	519975	wordpools/wasnorm_wordpool_576.txt	LTP318	ltpFR2	4	5	PENGUIN	1044	n/a	n/a	0	0	0
1042.404	n/a	WORD	521202	wordpools/wasnorm_wordpool_576.txt	LTP318	ltpFR2	4	5	PIGEON	1065	n/a	n/a	0	0	0
1044.872	n/a	WORD	522436	wordpools/wasnorm_wordpool_576.txt	LTP318	ltpFR2	4	5	MUFFIN	929	n/a	n/a	0	0	0
1047.658	n/a	WORD	523829	wordpools/wasnorm_wordpool_576.txt	LTP318	ltpFR2	4	5	ZIPPER	1636	n/a	n/a	0	0	0
1050.46	n/a	WORD	525230	wordpools/wasnorm_wordpool_576.txt	LTP318	ltpFR2	4	5	MAMMAL	861	n/a	n/a	0	0	0
1053.178	n/a	WORD	526589	wordpools/wasnorm_wordpool_576.txt	LTP318	ltpFR2	4	5	BLOCKADE	137	n/a	n/a	0	0	0
1055.782	n/a	WORD	527891	wordpools/wasnorm_wordpool_576.txt	LTP318	ltpFR2	4	5	GRIZZLY	662	n/a	n/a	0	0	0
1058.556	n/a	WORD	529278	wordpools/wasnorm_wordpool_576.txt	LTP318	ltpFR2	4	5	MONEY	908	n/a	n/a	0	0	0
1061.336	n/a	WORD	530668	wordpools/wasnorm_wordpool_576.txt	LTP318	ltpFR2	4	5	VIRUS	1572	n/a	n/a	0	0	0
1064.008	n/a	WORD	532004	wordpools/wasnorm_wordpool_576.txt	LTP318	ltpFR2	4	5	CRITIC	410	n/a	n/a	0	0	0
1066.574	n/a	WORD	533287	wordpools/wasnorm_wordpool_576.txt	LTP318	ltpFR2	4	5	BACKBONE	66	n/a	n/a	0	0	0
1069.166	n/a	WORD	534583	wordpools/wasnorm_wordpool_576.txt	LTP318	ltpFR2	4	5	TOASTER	1472	n/a	n/a	0	0	0
1070.776	n/a	START	535388	n/a	LTP318	ltpFR2	4	n/a	n/a	n/a	8	n/a	n/a	n/a	n/a
1071.668	n/a	DISTRACTOR	535834	n/a	LTP318	ltpFR2	4	5	n/a	n/a	n/a	n/a	0	0	0
1071.678	n/a	PROB	535839	n/a	LTP318	ltpFR2	4	n/a	n/a	n/a	8	15	1	5	9
1073.902	n/a	PROB	536951	n/a	LTP318	ltpFR2	4	n/a	n/a	n/a	8	21	6	9	6
1076.638	n/a	PROB	538319	n/a	LTP318	ltpFR2	4	n/a	n/a	n/a	8	14	2	3	9
1078.052	n/a	PROB	539026	n/a	LTP318	ltpFR2	4	n/a	n/a	n/a	8	14	2	6	6
1079.654	n/a	PROB	539827	n/a	LTP318	ltpFR2	4	n/a	n/a	n/a	8	15	3	5	7
1081.556	n/a	PROB	540778	n/a	LTP318	ltpFR2	4	n/a	n/a	n/a	8	15	9	1	5
1082.708	n/a	PROB	541354	n/a	LTP318	ltpFR2	4	n/a	n/a	n/a	8	13	3	7	3
1084.142	n/a	PROB	542071	n/a	LTP318	ltpFR2	4	n/a	n/a	n/a	8	13	8	2	3
1085.276	n/a	PROB	542638	n/a	LTP318	ltpFR2	4	n/a	n/a	n/a	8	12	3	8	1
1086.794	n/a	PROB	543397	n/a	LTP318	ltpFR2	4	n/a	n/a	n/a	8	22	9	5	8
1089.514	n/a	PROB	544757	n/a	LTP318	ltpFR2	4	n/a	n/a	n/a	8	16	2	9	5
1091.182	n/a	PROB	545591	n/a	LTP318	ltpFR2	4	n/a	n/a	n/a	8	24	6	9	9
1094.778	n/a	STOP	547389	n/a	LTP318	ltpFR2	4	n/a	n/a	n/a	8	n/a	n/a	n/a	n/a
1096.704	n/a	REC_START	548352	n/a	LTP318	ltpFR2	4	5	n/a	n/a	n/a	n/a	0	0	0
1099.504	n/a	REC_WORD	549752	wordpools/wasnorm_wordpool_576.txt	LTP318	ltpFR2	4	5	APRON	35	n/a	n/a	0	0	0
1103.706	n/a	REC_WORD	551853	wordpools/wasnorm_wordpool_576.txt	LTP318	ltpFR2	4	5	KLEENEX	782	n/a	n/a	0	0	0
1105.344	n/a	REC_WORD	552672	wordpools/wasnorm_wordpool_576.txt	LTP318	ltpFR2	4	5	POISON	1096	n/a	n/a	0	0	0
1106.678	n/a	REC_WORD	553339	wordpools/wasnorm_wordpool_576.txt	LTP318	ltpFR2	4	5	BUGGY	188	n/a	n/a	0	0	0
1110.152	n/a	REC_WORD	555076	wordpools/wasnorm_wordpool_576.txt	LTP318	ltpFR2	4	5	GRAVE	658	n/a	n/a	0	0	0
1111.062	n/a	REC_WORD	555531	wordpools/wasnorm_wordpool_576.txt	LTP318	ltpFR2	4	5	VIRUS	1572	n/a	n/a	0	0	0
1112.17	n/a	REC_WORD	556085	wordpools/wasnorm_wordpool_576.txt	LTP318	ltpFR2	4	5	CRITIC	410	n/a	n/a	0	0	0
1113.266	n/a	REC_WORD	556633	wordpools/wasnorm_wordpool_576.txt	LTP318	ltpFR2	4	5	BEAVER	109	n/a	n/a	0	0	0
1115.914	n/a	REC_WORD	557957	wordpools/wasnorm_wordpool_576.txt	LTP318	ltpFR2	4	5	PIGEON	1065	n/a	n/a	0	0	0
1117.976	n/a	REC_WORD	558988	wordpools/wasnorm_wordpool_576.txt	LTP318	ltpFR2	4	5	PLAYGROUND	1087	n/a	n/a	0	0	0
1118.926	n/a	REC_WORD	559463	wordpools/wasnorm_wordpool_576.txt	LTP318	ltpFR2	4	5	PENGUIN	1044	n/a	n/a	0	0	0
1143.888	n/a	REC_WORD	571944	wordpools/wasnorm_wordpool_576.txt	LTP318	ltpFR2	4	5	TOASTER	1472	n/a	n/a	0	0	0
1146.578	n/a	REC_WORD	573289	wordpools/wasnorm_wordpool_576.txt	LTP318	ltpFR2	4	5	MUFFIN	929	n/a	n/a	0	0	0
1160.876	n/a	REC_WORD	580438	wordpools/wasnorm_wordpool_576.txt	LTP318	ltpFR2	4	5	ZIPPER	1636	n/a	n/a	0	0	0
1162.522	n/a	REC_WORD	581261	wordpools/wasnorm_wordpool_576.txt	LTP318	ltpFR2	4	5	SHARK	1275	n/a	n/a	0	0	0
1166.494	n/a	REC_WORD	583247	wordpools/wasnorm_wordpool_576.txt	LTP318	ltpFR2	4	5	GRIZZLY	662	n/a	n/a	0	0	0
1167.504	n/a	REC_WORD	583752	wordpools/wasnorm_wordpool_576.txt	LTP318	ltpFR2	4	5	GOBLIN	645	n/a	n/a	0	0	0
1169.518	n/a	REC_WORD	584759	wordpools/wasnorm_wordpool_576.txt	LTP318	ltpFR2	4	5	MAMMAL	861	n/a	n/a	0	0	0
1170.266	n/a	REC_WORD	585133	wordpools/wasnorm_wordpool_576.txt	LTP318	ltpFR2	4	5	BLOCKADE	137	n/a	n/a	0	0	0
1187.166	n/a	WORD	593583	wordpools/wasnorm_wordpool_576.txt	LTP318	ltpFR2	4	6	SPHINX	1349	n/a	n/a	0	0	0
1189.652	n/a	WORD	594826	wordpools/wasnorm_wordpool_576.txt	LTP318	ltpFR2	4	6	LETTUCE	814	n/a	n/a	0	0	0
1192.154	n/a	WORD	596077	wordpools/wasnorm_wordpool_576.txt	LTP318	ltpFR2	4	6	FEMALE	559	n/a	n/a	0	0	0
1194.742	n/a	WORD	597371	wordpools/wasnorm_wordpool_576.txt	LTP318	ltpFR2	4	6	COTTAGE	384	n/a	n/a	0	0	0
1197.476	n/a	WORD	598738	wordpools/wasnorm_wordpool_576.txt	LTP318	ltpFR2	4	6	DAISY	435	n/a	n/a	0	0	0
1200.294	n/a	WORD	600147	wordpools/wasnorm_wordpool_576.txt	LTP318	ltpFR2	4	6	FLOWER	584	n/a	n/a	0	0	0
1202.962	n/a	WORD	601481	wordpools/wasnorm_wordpool_576.txt	LTP318	ltpFR2	4	6	LEADER	807	n/a	n/a	0	0	0
1205.682	n/a	WORD	602841	wordpools/wasnorm_wordpool_576.txt	LTP318	ltpFR2	4	6	BISON	131	n/a	n/a	0	0	0
1208.418	n/a	WORD	604209	wordpools/wasnorm_wordpool_576.txt	LTP318	ltpFR2	4	6	DANCER	437	n/a	n/a	0	0	0
1211.154	n/a	WORD	605577	wordpools/wasnorm_wordpool_576.txt	LTP318	ltpFR2	4	6	ISLAND	745	n/a	n/a	0	0	0
1213.872	n/a	WORD	606936	wordpools/wasnorm_wordpool_576.txt	LTP318	ltpFR2	4	6	SLIDE	1326	n/a	n/a	0	0	0
1216.34	n/a	WORD	608170	wordpools/wasnorm_wordpool_576.txt	LTP318	ltpFR2	4	6	CASHIER	254	n/a	n/a	0	0	0
1219.06	n/a	WORD	609530	wordpools/wasnorm_wordpool_576.txt	LTP318	ltpFR2	4	6	SHERIFF	1284	n/a	n/a	0	0	0
1221.862	n/a	WORD	610931	wordpools/wasnorm_wordpool_576.txt	LTP318	ltpFR2	4	6	ULCER	1533	n/a	n/a	0	0	0
1224.548	n/a	WORD	612274	wordpools/wasnorm_wordpool_576.txt	LTP318	ltpFR2	4	6	CHIPMUNK	304	n/a	n/a	0	0	0
1227.05	n/a	WORD	613525	wordpools/wasnorm_wordpool_576.txt	LTP318	ltpFR2	4	6	JUNGLE	764	n/a	n/a	0	0	0
1229.77	n/a	WORD	614885	wordpools/wasnorm_wordpool_576.txt	LTP318	ltpFR2	4	6	MUMMY	932	n/a	n/a	0	0	0
1232.222	n/a	WORD	616111	wordpools/wasnorm_wordpool_576.txt	LTP318	ltpFR2	4	6	BOYFRIEND	162	n/a	n/a	0	0	0
1234.922	n/a	WORD	617461	wordpools/wasnorm_wordpool_576.txt	LTP318	ltpFR2	4	6	YACHT	1629	n/a	n/a	0	0	0
1237.626	n/a	WORD	618813	wordpools/wasnorm_wordpool_576.txt	LTP318	ltpFR2	4	6	TERMITE	1451	n/a	n/a	0	0	0
1240.344	n/a	WORD	620172	wordpools/wasnorm_wordpool_576.txt	LTP318	ltpFR2	4	6	CABIN	211	n/a	n/a	0	0	0
1242.978	n/a	WORD	621489	wordpools/wasnorm_wordpool_576.txt	LTP318	ltpFR2	4	6	TREAT	1501	n/a	n/a	0	0	0
1245.682	n/a	WORD	622841	wordpools/wasnorm_wordpool_576.txt	LTP318	ltpFR2	4	6	FOX	598	n/a	n/a	0	0	0
1248.4	n/a	WORD	624200	wordpools/wasnorm_wordpool_576.txt	LTP318	ltpFR2	4	6	STAKE	1368	n/a	n/a	0	0	0
1250.018	n/a	START	625009	n/a	LTP318	ltpFR2	4	n/a	n/a	n/a	9	n/a	n/a	n/a	n/a
1251.164	n/a	DISTRACTOR	625582	n/a	LTP318	ltpFR2	4	6	n/a	n/a	n/a	n/a	0	0	0
1251.17	n/a	PROB	625585	n/a	LTP318	ltpFR2	4	n/a	n/a	n/a	9	18	7	7	4
1252.918	n/a	PROB	626459	n/a	LTP318	ltpFR2	4	n/a	n/a	n/a	9	10	2	3	5
1254.468	n/a	PROB	627234	n/a	LTP318	ltpFR2	4	n/a	n/a	n/a	9	14	3	4	7
1256.32	n/a	PROB	628160	n/a	LTP318	ltpFR2	4	n/a	n/a	n/a	9	13	4	8	1
1257.91	n/a	PROB	628955	n/a	LTP318	ltpFR2	4	n/a	n/a	n/a	9	20	7	4	9
1259.69	n/a	PROB	629845	n/a	LTP318	ltpFR2	4	n/a	n/a	n/a	9	10	4	3	3
1261.308	n/a	PROB	630654	n/a	LTP318	ltpFR2	4	n/a	n/a	n/a	9	17	9	6	2
1262.93	n/a	PROB	631465	n/a	LTP318	ltpFR2	4	n/a	n/a	n/a	9	18	9	6	3
1265.11	n/a	PROB	632555	n/a	LTP318	ltpFR2	4	n/a	n/a	n/a	9	13	1	3	9
1267.012	n/a	PROB	633506	n/a	LTP318	ltpFR2	4	n/a	n/a	n/a	9	16	9	2	5
1268.334	n/a	PROB	634167	n/a	LTP318	ltpFR2	4	n/a	n/a	n/a	9	14	5	3	6
1269.998	n/a	PROB	634999	n/a	LTP318	ltpFR2	4	n/a	n/a	n/a	9	17	9	6	2
1271.516	n/a	PROB	635758	n/a	LTP318	ltpFR2	4	n/a	n/a	n/a	9	9	1	7	1
1272.552	n/a	STOP	636276	n/a	LTP318	ltpFR2	4	n/a	n/a	n/a	9	n/a	n/a	n/a	n/a
1275.854	n/a	REC_START	637927	n/a	LTP318	ltpFR2	4	6	n/a	n/a	n/a	n/a	0	0	0
1276.138	n/a	REC_WORD_VV	638069	wordpools/wasnorm_wordpool_576.txt	LTP318	ltpFR2	4	6	<>	-1	n/a	n/a	0	0	0
1278.012	n/a	REC_WORD	639006	wordpools/wasnorm_wordpool_576.txt	LTP318	ltpFR2	4	6	SPHINX	1349	n/a	n/a	0	0	0
1279.012	n/a	REC_WORD_VV	639506	wordpools/wasnorm_wordpool_576.txt	LTP318	ltpFR2	4	6	<>	-1	n/a	n/a	0	0	0
1282.112	n/a	REC_WORD	641056	wordpools/wasnorm_wordpool_576.txt	LTP318	ltpFR2	4	6	COTTAGE	384	n/a	n/a	0	0	0
1283.216	n/a	REC_WORD	641608	wordpools/wasnorm_wordpool_576.txt	LTP318	ltpFR2	4	6	LETTUCE	814	n/a	n/a	0	0	0
1285.708	n/a	REC_WORD	642854	wordpools/wasnorm_wordpool_576.txt	LTP318	ltpFR2	4	6	WOMAN	1620	n/a	n/a	0	0	0
1288.148	n/a	REC_WORD	644074	wordpools/wasnorm_wordpool_576.txt	LTP318	ltpFR2	4	6	TREAT	1501	n/a	n/a	0	0	0
1289.744	n/a	REC_WORD	644872	wordpools/wasnorm_wordpool_576.txt	LTP318	ltpFR2	4	6	FLOWER	584	n/a	n/a	0	0	0
1290.884	n/a	REC_WORD	645442	wordpools/wasnorm_wordpool_576.txt	LTP318	ltpFR2	4	6	DAISY	435	n/a	n/a	0	0	0
1293.232	n/a	REC_WORD	646616	wordpools/wasnorm_wordpool_576.txt	LTP318	ltpFR2	4	6	BISON	131	n/a	n/a	0	0	0
1296.642	n/a	REC_WORD	648321	wordpools/wasnorm_wordpool_576.txt	LTP318	ltpFR2	4	6	JUNGLE	764	n/a	n/a	0	0	0
1298.158	n/a	REC_WORD	649079	wordpools/wasnorm_wordpool_576.txt	LTP318	ltpFR2	4	6	ISLAND	745	n/a	n/a	0	0	0
1299.074	n/a	REC_WORD	649537	wordpools/wasnorm_wordpool_576.txt	LTP318	ltpFR2	4	6	BOYFRIEND	162	n/a	n/a	0	0	0
1310.144	n/a	REC_WORD	655072	wordpools/wasnorm_wordpool_576.txt	LTP318	ltpFR2	4	6	MUMMY	932	n/a	n/a	0	0	0
1321.036	n/a	REC_WORD	660518	wordpools/wasnorm_wordpool_576.txt	LTP318	ltpFR2	4	6	CABIN	211	n/a	n/a	0	0	0
1325.834	n/a	REC_WORD	662917	wordpools/wasnorm_wordpool_576.txt	LTP318	ltpFR2	4	6	LEADER	807	n/a	n/a	0	0	0
1326.682	n/a	REC_WORD	663341	wordpools/wasnorm_wordpool_576.txt	LTP318	ltpFR2	4	6	CASHIER	254	n/a	n/a	0	0	0
1327.89	n/a	REC_WORD	663945	wordpools/wasnorm_wordpool_576.txt	LTP318	ltpFR2	4	6	YACHT	1629	n/a	n/a	0	0	0
1332.134	n/a	REC_WORD	666067	wordpools/wasnorm_wordpool_576.txt	LTP318	ltpFR2	4	6	SHERIFF	1284	n/a	n/a	0	0	0
1366.278	n/a	DISTRACTOR	683139	n/a	LTP318	ltpFR2	4	7	n/a	n/a	n/a	n/a	0	0	0
1366.278	n/a	START	683139	n/a	LTP318	ltpFR2	4	n/a	n/a	n/a	10	n/a	n/a	n/a	n/a
1366.292	n/a	PROB	683146	n/a	LTP318	ltpFR2	4	n/a	n/a	n/a	10	1	8	1	3
1367.87	n/a	PROB	683935	n/a	LTP318	ltpFR2	4	n/a	n/a	n/a	10	17	5	6	6
1369.756	n/a	PROB	684878	n/a	LTP318	ltpFR2	4	n/a	n/a	n/a	10	17	8	5	4
1371.956	n/a	PROB	685978	n/a	LTP318	ltpFR2	4	n/a	n/a	n/a	10	14	1	4	9
1373.626	n/a	PROB	686813	n/a	LTP318	ltpFR2	4	n/a	n/a	n/a	10	21	7	9	5
1375.41	n/a	PROB	687705	n/a	LTP318	ltpFR2	4	n/a	n/a	n/a	10	17	7	1	9
1377.076	n/a	PROB	688538	n/a	LTP318	ltpFR2	4	n/a	n/a	n/a	10	13	5	1	7
1379.898	n/a	PROB	689949	n/a	LTP318	ltpFR2	4	n/a	n/a	n/a	10	16	3	9	4
1381.582	n/a	PROB	690791	n/a	LTP318	ltpFR2	4	n/a	n/a	n/a	10	16	1	9	6
1382.816	n/a	PROB	691408	n/a	LTP318	ltpFR2	4	n/a	n/a	n/a	10	12	9	2	1
1384.366	n/a	PROB	692183	n/a	LTP318	ltpFR2	4	n/a	n/a	n/a	10	23	7	9	7
1387.902	n/a	PROB	693951	n/a	LTP318	ltpFR2	4	n/a	n/a	n/a	10	15	5	1	9
1389.124	n/a	STOP	694562	n/a	LTP318	ltpFR2	4	n/a	n/a	n/a	10	n/a	n/a	n/a	n/a
1391.242	n/a	WORD	695621	wordpools/wasnorm_wordpool_576.txt	LTP318	ltpFR2	4	7	LAPEL	800	n/a	n/a	0	0	0
1393.76	n/a	WORD	696880	wordpools/wasnorm_wordpool_576.txt	LTP318	ltpFR2	4	7	SCALPEL	1243	n/a	n/a	0	0	0
1396.362	n/a	WORD	698181	wordpools/wasnorm_wordpool_576.txt	LTP318	ltpFR2	4	7	EAGLE	512	n/a	n/a	0	0	0
1398.786	n/a	WORD	699393	wordpools/wasnorm_wordpool_576.txt	LTP318	ltpFR2	4	7	PARROT	1015	n/a	n/a	0	0	0
1401.484	n/a	WORD	700742	wordpools/wasnorm_wordpool_576.txt	LTP318	ltpFR2	4	7	RADISH	1158	n/a	n/a	0	0	0
1404.034	n/a	WORD	702017	wordpools/wasnorm_wordpool_576.txt	LTP318	ltpFR2	4	7	CIGAR	308	n/a	n/a	0	0	0
1406.69	n/a	WORD	703345	wordpools/wasnorm_wordpool_576.txt	LTP318	ltpFR2	4	7	BRANDY	169	n/a	n/a	0	0	0
1409.142	n/a	WORD	704571	wordpools/wasnorm_wordpool_576.txt	LTP318	ltpFR2	4	7	PARSLEY	1016	n/a	n/a	0	0	0
1411.726	n/a	WORD	705863	wordpools/wasnorm_wordpool_576.txt	LTP318	ltpFR2	4	7	FOREST	593	n/a	n/a	0	0	0
1414.512	n/a	WORD	707256	wordpools/wasnorm_wordpool_576.txt	LTP318	ltpFR2	4	7	UMPIRE	1535	n/a	n/a	0	0	0
1417.148	n/a	WORD	708574	wordpools/wasnorm_wordpool_576.txt	LTP318	ltpFR2	4	7	FOOTBALL	591	n/a	n/a	0	0	0
1419.784	n/a	WORD	709892	wordpools/wasnorm_wordpool_576.txt	LTP318	ltpFR2	4	7	GALLON	618	n/a	n/a	0	0	0
1422.218	n/a	WORD	711109	wordpools/wasnorm_wordpool_576.txt	LTP318	ltpFR2	4	7	COURSE	390	n/a	n/a	0	0	0
1425.004	n/a	WORD	712502	wordpools/wasnorm_wordpool_576.txt	LTP318	ltpFR2	4	7	COCOON	339	n/a	n/a	0	0	0
1427.474	n/a	WORD	713737	wordpools/wasnorm_wordpool_576.txt	LTP318	ltpFR2	4	7	FIREPLACE	570	n/a	n/a	0	0	0
1430.242	n/a	WORD	715121	wordpools/wasnorm_wordpool_576.txt	LTP318	ltpFR2	4	7	PEACH	1031	n/a	n/a	0	0	0
1432.91	n/a	WORD	716455	wordpools/wasnorm_wordpool_576.txt	LTP318	ltpFR2	4	7	LONDON	843	n/a	n/a	0	0	0
1435.48	n/a	WORD	717740	wordpools/wasnorm_wordpool_576.txt	LTP318	ltpFR2	4	7	SCARF	1246	n/a	n/a	0	0	0
1438.25	n/a	WORD	719125	wordpools/wasnorm_wordpool_576.txt	LTP318	ltpFR2	4	7	KEEPER	769	n/a	n/a	0	0	0
1440.852	n/a	WORD	720426	wordpools/wasnorm_wordpool_576.txt	LTP318	ltpFR2	4	7	PALACE	1006	n/a	n/a	0	0	0
1443.638	n/a	WORD	721819	wordpools/wasnorm_wordpool_576.txt	LTP318	ltpFR2	4	7	BRANCH	168	n/a	n/a	0	0	0
1446.34	n/a	WORD	723170	wordpools/wasnorm_wordpool_576.txt	LTP318	ltpFR2	4	7	TURTLE	1522	n/a	n/a	0	0	0
1449.108	n/a	WORD	724554	wordpools/wasnorm_wordpool_576.txt	LTP318	ltpFR2	4	7	BIKE	125	n/a	n/a	0	0	0
1451.828	n/a	WORD	725914	wordpools/wasnorm_wordpool_576.txt	LTP318	ltpFR2	4	7	PISTON	1076	n/a	n/a	0	0	0
1453.446	n/a	START	726723	n/a	LTP318	ltpFR2	4	n/a	n/a	n/a	11	n/a	n/a	n/a	n/a
1454.378	n/a	DISTRACTOR	727189	n/a	LTP318	ltpFR2	4	7	n/a	n/a	n/a	n/a	0	0	0
1454.396	n/a	PROB	727198	n/a	LTP318	ltpFR2	4	n/a	n/a	n/a	11	11	5	3	3
1456.796	n/a	PROB	728398	n/a	LTP318	ltpFR2	4	n/a	n/a	n/a	11	16	6	7	3
1458.296	n/a	PROB	729148	n/a	LTP318	ltpFR2	4	n/a	n/a	n/a	11	15	5	7	3
1459.782	n/a	PROB	729891	n/a	LTP318	ltpFR2	4	n/a	n/a	n/a	11	10	6	2	2
1462.4	n/a	PROB	731200	n/a	LTP318	ltpFR2	4	n/a	n/a	n/a	11	15	2	9	4
1463.734	n/a	PROB	731867	n/a	LTP318	ltpFR2	4	n/a	n/a	n/a	11	22	7	6	9
1466.336	n/a	PROB	733168	n/a	LTP318	ltpFR2	4	n/a	n/a	n/a	11	8	3	3	2
1468.426	n/a	PROB	734213	n/a	LTP318	ltpFR2	4	n/a	n/a	n/a	11	12	2	8	2
1469.656	n/a	PROB	734828	n/a	LTP318	ltpFR2	4	n/a	n/a	n/a	11	13	5	6	2
1472.312	n/a	PROB	736156	n/a	LTP318	ltpFR2	4	n/a	n/a	n/a	11	17	6	7	4
1474.11	n/a	PROB	737055	n/a	LTP318	ltpFR2	4	n/a	n/a	n/a	11	16	1	8	7
1475.528	n/a	PROB	737764	n/a	LTP318	ltpFR2	4	n/a	n/a	n/a	11	16	6	8	2
1477.31	n/a	STOP	738655	n/a	LTP318	ltpFR2	4	n/a	n/a	n/a	11	n/a	n/a	n/a	n/a
1479.402	n/a	REC_START	739701	n/a	LTP318	ltpFR2	4	7	n/a	n/a	n/a	n/a	0	0	0
1483.016	n/a	REC_WORD	741508	wordpools/wasnorm_wordpool_576.txt	LTP318	ltpFR2	4	7	PISTON	1076	n/a	n/a	0	0	0
1485.662	n/a	REC_WORD	742831	wordpools/wasnorm_wordpool_576.txt	LTP318	ltpFR2	4	7	PALACE	1006	n/a	n/a	0	0	0
1486.368	n/a	REC_WORD	743184	wordpools/wasnorm_wordpool_576.txt	LTP318	ltpFR2	4	7	FOREST	593	n/a	n/a	0	0	0
1488.222	n/a	REC_WORD	744111	wordpools/wasnorm_wordpool_576.txt	LTP318	ltpFR2	4	7	BRANCH	168	n/a	n/a	0	0	0
1491.118	n/a	REC_WORD	745559	wordpools/wasnorm_wordpool_576.txt	LTP318	ltpFR2	4	7	LONDON	843	n/a	n/a	0	0	0
1497.506	n/a	REC_WORD	748753	wordpools/wasnorm_wordpool_576.txt	LTP318	ltpFR2	4	7	COURSE	390	n/a	n/a	0	0	0
1498.688	n/a	REC_WORD	749344	wordpools/wasnorm_wordpool_576.txt	LTP318	ltpFR2	4	7	LAPEL	800	n/a	n/a	0	0	0
1499.466	n/a	REC_WORD	749733	wordpools/wasnorm_wordpool_576.txt	LTP318	ltpFR2	4	7	SCALPEL	1243	n/a	n/a	0	0	0
1500.566	n/a	REC_WORD	750283	wordpools/wasnorm_wordpool_576.txt	LTP318	ltpFR2	4	7	EAGLE	512	n/a	n/a	0	0	0
1501.212	n/a	REC_WORD	750606	wordpools/wasnorm_wordpool_576.txt	LTP318	ltpFR2	4	7	PARROT	1015	n/a	n/a	0	0	0
1503.43	n/a	REC_WORD	751715	wordpools/wasnorm_wordpool_576.txt	LTP318	ltpFR2	4	7	BRANDY	169	n/a	n/a	0	0	0
1504.088	n/a	REC_WORD	752044	wordpools/wasnorm_wordpool_576.txt	LTP318	ltpFR2	4	7	CIGAR	308	n/a	n/a	0	0	0
1505.038	n/a	REC_WORD	752519	wordpools/wasnorm_wordpool_576.txt	LTP318	ltpFR2	4	7	FOOTBALL	591	n/a	n/a	0	0	0
1505.928	n/a	REC_WORD	752964	wordpools/wasnorm_wordpool_576.txt	LTP318	ltpFR2	4	7	UMPIRE	1535	n/a	n/a	0	0	0
1508.702	n/a	REC_WORD	754351	wordpools/wasnorm_wordpool_576.txt	LTP318	ltpFR2	4	7	RADISH	1158	n/a	n/a	0	0	0
1509.512	n/a	REC_WORD	754756	wordpools/wasnorm_wordpool_576.txt	LTP318	ltpFR2	4	7	PARSLEY	1016	n/a	n/a	0	0	0
1512.502	n/a	REC_WORD	756251	wordpools/wasnorm_wordpool_576.txt	LTP318	ltpFR2	4	7	GALLON	618	n/a	n/a	0	0	0
1517.316	n/a	REC_WORD	758658	wordpools/wasnorm_wordpool_576.txt	LTP318	ltpFR2	4	7	PEACH	1031	n/a	n/a	0	0	0
1520.0	n/a	REC_WORD	760000	wordpools/wasnorm_wordpool_576.txt	LTP318	ltpFR2	4	7	BIKE	125	n/a	n/a	0	0	0
1569.83	n/a	DISTRACTOR	784915	n/a	LTP318	ltpFR2	4	8	n/a	n/a	n/a	n/a	0	0	0
1569.83	n/a	START	784915	n/a	LTP318	ltpFR2	4	n/a	n/a	n/a	12	n/a	n/a	n/a	n/a
1569.844	n/a	PROB	784922	n/a	LTP318	ltpFR2	4	n/a	n/a	n/a	12	24	9	6	9
1571.644	n/a	PROB	785822	n/a	LTP318	ltpFR2	4	n/a	n/a	n/a	12	15	2	8	5
1572.88	n/a	PROB	786440	n/a	LTP318	ltpFR2	4	n/a	n/a	n/a	12	18	3	9	6
1575.114	n/a	PROB	787557	n/a	LTP318	ltpFR2	4	n/a	n/a	n/a	12	13	4	3	6
1577.55	n/a	PROB	788775	n/a	LTP318	ltpFR2	4	n/a	n/a	n/a	12	11	2	3	6
1578.9	n/a	PROB	789450	n/a	LTP318	ltpFR2	4	n/a	n/a	n/a	12	13	2	7	4
1580.384	n/a	PROB	790192	n/a	LTP318	ltpFR2	4	n/a	n/a	n/a	12	12	4	2	6
1581.72	n/a	PROB	790860	n/a	LTP318	ltpFR2	4	n/a	n/a	n/a	12	16	5	5	6
1582.922	n/a	PROB	791461	n/a	LTP318	ltpFR2	4	n/a	n/a	n/a	12	16	1	6	9
1584.754	n/a	PROB	792377	n/a	LTP318	ltpFR2	4	n/a	n/a	n/a	12	12	4	4	4
1586.056	n/a	PROB	793028	n/a	LTP318	ltpFR2	4	n/a	n/a	n/a	12	14	4	9	1
1587.558	n/a	PROB	793779	n/a	LTP318	ltpFR2	4	n/a	n/a	n/a	12	13	6	1	6
1588.992	n/a	PROB	794496	n/a	LTP318	ltpFR2	4	n/a	n/a	n/a	12	10	4	1	5
1593.83	n/a	STOP	796915	n/a	LTP318	ltpFR2	4	n/a	n/a	n/a	12	n/a	n/a	n/a	n/a
1594.842	n/a	WORD	797421	wordpools/wasnorm_wordpool_576.txt	LTP318	ltpFR2	4	8	TRACTOR	1493	n/a	n/a	0	0	0
1597.26	n/a	WORD	798630	wordpools/wasnorm_wordpool_576.txt	LTP318	ltpFR2	4	8	SHOULDER	1294	n/a	n/a	0	0	0
1599.796	n/a	WORD	799898	wordpools/wasnorm_wordpool_576.txt	LTP318	ltpFR2	4	8	YOLK	1633	n/a	n/a	0	0	0
1602.54	n/a	WORD	801270	wordpools/wasnorm_wordpool_576.txt	LTP318	ltpFR2	4	8	CABBAGE	210	n/a	n/a	0	0	0
1605.326	n/a	WORD	802663	wordpools/wasnorm_wordpool_576.txt	LTP318	ltpFR2	4	8	COUNTRY	388	n/a	n/a	0	0	0
1607.896	n/a	WORD	803948	wordpools/wasnorm_wordpool_576.txt	LTP318	ltpFR2	4	8	LADDER	793	n/a	n/a	0	0	0
1610.714	n/a	WORD	805357	wordpools/wasnorm_wordpool_576.txt	LTP318	ltpFR2	4	8	GREASE	660	n/a	n/a	0	0	0
1613.256	n/a	WORD	806628	wordpools/wasnorm_wordpool_576.txt	LTP318	ltpFR2	4	8	COUCH	386	n/a	n/a	0	0	0
1616.024	n/a	WORD	808012	wordpools/wasnorm_wordpool_576.txt	LTP318	ltpFR2	4	8	TABLE	1426	n/a	n/a	0	0	0
1618.804	n/a	WORD	809402	wordpools/wasnorm_wordpool_576.txt	LTP318	ltpFR2	4	8	BRIEFCASE	175	n/a	n/a	0	0	0
1621.396	n/a	WORD	810698	wordpools/wasnorm_wordpool_576.txt	LTP318	ltpFR2	4	8	SUSPECT	1415	n/a	n/a	0	0	0
1624.164	n/a	WORD	812082	wordpools/wasnorm_wordpool_576.txt	LTP318	ltpFR2	4	8	BUTCHER	203	n/a	n/a	0	0	0
1626.932	n/a	WORD	813466	wordpools/wasnorm_wordpool_576.txt	LTP318	ltpFR2	4	8	STAPLE	1371	n/a	n/a	0	0	0
1629.48	n/a	WORD	814740	wordpools/wasnorm_wordpool_576.txt	LTP318	ltpFR2	4	8	TYPIST	1532	n/a	n/a	0	0	0
1632.132	n/a	WORD	816066	wordpools/wasnorm_wordpool_576.txt	LTP318	ltpFR2	4	8	FUNGUS	614	n/a	n/a	0	0	0
1634.652	n/a	WORD	817326	wordpools/wasnorm_wordpool_576.txt	LTP318	ltpFR2	4	8	MEAT	883	n/a	n/a	0	0	0
1637.252	n/a	WORD	818626	wordpools/wasnorm_wordpool_576.txt	LTP318	ltpFR2	4	8	BULLET	194	n/a	n/a	0	0	0
1639.906	n/a	WORD	819953	wordpools/wasnorm_wordpool_576.txt	LTP318	ltpFR2	4	8	VICTIM	1562	n/a	n/a	0	0	0
1642.574	n/a	WORD	821287	wordpools/wasnorm_wordpool_576.txt	LTP318	ltpFR2	4	8	ACTOR	5	n/a	n/a	0	0	0
1645.332	n/a	WORD	822666	wordpools/wasnorm_wordpool_576.txt	LTP318	ltpFR2	4	8	MARSH	874	n/a	n/a	0	0	0
1647.864	n/a	WORD	823932	wordpools/wasnorm_wordpool_576.txt	LTP318	ltpFR2	4	8	STALLION	1369	n/a	n/a	0	0	0
1650.498	n/a	WORD	825249	wordpools/wasnorm_wordpool_576.txt	LTP318	ltpFR2	4	8	LUMBER	848	n/a	n/a	0	0	0
1653.0	n/a	WORD	826500	wordpools/wasnorm_wordpool_576.txt	LTP318	ltpFR2	4	8	HEDGE	699	n/a	n/a	0	0	0
1655.786	n/a	WORD	827893	wordpools/wasnorm_wordpool_576.txt	LTP318	ltpFR2	4	8	BASEMENT	94	n/a	n/a	0	0	0
1657.406	n/a	START	828703	n/a	LTP318	ltpFR2	4	n/a	n/a	n/a	13	n/a	n/a	n/a	n/a
1658.472	n/a	DISTRACTOR	829236	n/a	LTP318	ltpFR2	4	8	n/a	n/a	n/a	n/a	0	0	0
1658.488	n/a	PROB	829244	n/a	LTP318	ltpFR2	4	n/a	n/a	n/a	13	11	1	7	3
1660.24	n/a	PROB	830120	n/a	LTP318	ltpFR2	4	n/a	n/a	n/a	13	17	9	2	6
1661.538	n/a	PROB	830769	n/a	LTP318	ltpFR2	4	n/a	n/a	n/a	13	22	9	9	4
1662.872	n/a	PROB	831436	n/a	LTP318	ltpFR2	4	n/a	n/a	n/a	13	17	9	2	6
1664.424	n/a	PROB	832212	n/a	LTP318	ltpFR2	4	n/a	n/a	n/a	13	13	7	2	4
1666.208	n/a	PROB	833104	n/a	LTP318	ltpFR2	4	n/a	n/a	n/a	13	17	8	5	4
1668.108	n/a	PROB	834054	n/a	LTP318	ltpFR2	4	n/a	n/a	n/a	13	17	1	9	7
1669.264	n/a	PROB	834632	n/a	LTP318	ltpFR2	4	n/a	n/a	n/a	13	19	7	3	9
1670.562	n/a	PROB	835281	n/a	LTP318	ltpFR2	4	n/a	n/a	n/a	13	15	2	6	7
1672.234	n/a	PROB	836117	n/a	LTP318	ltpFR2	4	n/a	n/a	n/a	13	18	9	6	3
1673.882	n/a	PROB	836941	n/a	LTP318	ltpFR2	4	n/a	n/a	n/a	13	9	1	4	4
1675.22	n/a	PROB	837610	n/a	LTP318	ltpFR2	4	n/a	n/a	n/a	13	18	8	9	1
1676.62	n/a	PROB	838310	n/a	LTP318	ltpFR2	4	n/a	n/a	n/a	13	21	7	9	5
1678.702	n/a	PROB	839351	n/a	LTP318	ltpFR2	4	n/a	n/a	n/a	13	10	3	5	2
1679.9	n/a	STOP	839950	n/a	LTP318	ltpFR2	4	n/a	n/a	n/a	13	n/a	n/a	n/a	n/a
1683.244	n/a	REC_START	841622	n/a	LTP318	ltpFR2	4	8	n/a	n/a	n/a	n/a	0	0	0
1686.098	n/a	REC_WORD	843049	wordpools/wasnorm_wordpool_576.txt	LTP318	ltpFR2	4	8	TRACTOR	1493	n/a	n/a	0	0	0
1686.946	n/a	REC_WORD	843473	wordpools/wasnorm_wordpool_576.txt	LTP318	ltpFR2	4	8	SHOULDER	1294	n/a	n/a	0	0	0
1687.86	n/a	REC_WORD	843930	wordpools/wasnorm_wordpool_576.txt	LTP318	ltpFR2	4	8	YOLK	1633	n/a	n/a	0	0	0
1688.612	n/a	REC_WORD	844306	wordpools/wasnorm_wordpool_576.txt	LTP318	ltpFR2	4	8	CABBAGE	210	n/a	n/a	0	0	0
1690.952	n/a	REC_WORD	845476	wordpools/wasnorm_wordpool_576.txt	LTP318	ltpFR2	4	8	GREASE	660	n/a	n/a	0	0	0
1691.652	n/a	REC_WORD	845826	wordpools/wasnorm_wordpool_576.txt	LTP318	ltpFR2	4	8	TABLE	1426	n/a	n/a	0	0	0
1692.366	n/a	REC_WORD	846183	wordpools/wasnorm_wordpool_576.txt	LTP318	ltpFR2	4	8	COUCH	386	n/a	n/a	0	0	0
1695.818	n/a	REC_WORD	847909	wordpools/wasnorm_wordpool_576.txt	LTP318	ltpFR2	4	8	SUSPECT	1415	n/a	n/a	0	0	0
1696.89	n/a	REC_WORD	848445	wordpools/wasnorm_wordpool_576.txt	LTP318	ltpFR2	4	8	BRIEFCASE	175	n/a	n/a	0	0	0
1697.852	n/a	REC_WORD	848926	wordpools/wasnorm_wordpool_576.txt	LTP318	ltpFR2	4	8	TYPIST	1532	n/a	n/a	0	0	0
1698.636	n/a	REC_WORD	849318	wordpools/wasnorm_wordpool_576.txt	LTP318	ltpFR2	4	8	STAPLE	1371	n/a	n/a	0	0	0
1699.86	n/a	REC_WORD	849930	wordpools/wasnorm_wordpool_576.txt	LTP318	ltpFR2	4	8	BASEMENT	94	n/a	n/a	0	0	0
1701.058	n/a	REC_WORD	850529	wordpools/wasnorm_wordpool_576.txt	LTP318	ltpFR2	4	8	BULLET	194	n/a	n/a	0	0	0
1701.698	n/a	REC_WORD	850849	wordpools/wasnorm_wordpool_576.txt	LTP318	ltpFR2	4	8	VICTIM	1562	n/a	n/a	0	0	0
1703.768	n/a	REC_WORD	851884	wordpools/wasnorm_wordpool_576.txt	LTP318	ltpFR2	4	8	ACTOR	5	n/a	n/a	0	0	0
1704.71	n/a	REC_WORD	852355	wordpools/wasnorm_wordpool_576.txt	LTP318	ltpFR2	4	8	MARSH	874	n/a	n/a	0	0	0
1706.916	n/a	REC_WORD	853458	wordpools/wasnorm_wordpool_576.txt	LTP318	ltpFR2	4	8	STALLION	1369	n/a	n/a	0	0	0
1709.438	n/a	REC_WORD	854719	wordpools/wasnorm_wordpool_576.txt	LTP318	ltpFR2	4	8	MEAT	883	n/a	n/a	0	0	0
1710.318	n/a	REC_WORD	855159	wordpools/wasnorm_wordpool_576.txt	LTP318	ltpFR2	4	8	BUTCHER	203	n/a	n/a	0	0	0
1711.066	n/a	REC_WORD	855533	wordpools/wasnorm_wordpool_576.txt	LTP318	ltpFR2	4	8	FUNGUS	614	n/a	n/a	0	0	0
1747.364	n/a	REC_WORD	873682	wordpools/wasnorm_wordpool_576.txt	LTP318	ltpFR2	4	8	LUMBER	848	n/a	n/a	0	0	0
1759.788	n/a	REST_REWET	879894	n/a	LTP318	ltpFR2	4	8	n/a	n/a	n/a	n/a	0	0	0
2260.982	n/a	WORD	1130491	wordpools/wasnorm_wordpool_576.txt	LTP318	ltpFR2	4	9	DOUGHNUT	490	n/a	n/a	0	0	0
2263.62	n/a	WORD	1131810	wordpools/wasnorm_wordpool_576.txt	LTP318	ltpFR2	4	9	PICNIC	1060	n/a	n/a	0	0	0
2266.162	n/a	WORD	1133081	wordpools/wasnorm_wordpool_576.txt	LTP318	ltpFR2	4	9	SANDWICH	1232	n/a	n/a	0	0	0
2268.608	n/a	WORD	1134304	wordpools/wasnorm_wordpool_576.txt	LTP318	ltpFR2	4	9	RATTLE	1170	n/a	n/a	0	0	0
2271.316	n/a	WORD	1135658	wordpools/wasnorm_wordpool_576.txt	LTP318	ltpFR2	4	9	PECAN	1036	n/a	n/a	0	0	0
2274.084	n/a	WORD	1137042	wordpools/wasnorm_wordpool_576.txt	LTP318	ltpFR2	4	9	BALLOON	75	n/a	n/a	0	0	0
2276.514	n/a	WORD	1138257	wordpools/wasnorm_wordpool_576.txt	LTP318	ltpFR2	4	9	ACTRESS	6	n/a	n/a	0	0	0
2279.266	n/a	WORD	1139633	wordpools/wasnorm_wordpool_576.txt	LTP318	ltpFR2	4	9	SALMON	1227	n/a	n/a	0	0	0
2281.702	n/a	WORD	1140851	wordpools/wasnorm_wordpool_576.txt	LTP318	ltpFR2	4	9	MARKER	870	n/a	n/a	0	0	0
2284.176	n/a	WORD	1142088	wordpools/wasnorm_wordpool_576.txt	LTP318	ltpFR2	4	9	POPCORN	1104	n/a	n/a	0	0	0
2286.756	n/a	WORD	1143378	wordpools/wasnorm_wordpool_576.txt	LTP318	ltpFR2	4	9	GARLIC	624	n/a	n/a	0	0	0
2289.558	n/a	WORD	1144779	wordpools/wasnorm_wordpool_576.txt	LTP318	ltpFR2	4	9	CRAYON	401	n/a	n/a	0	0	0
2292.16	n/a	WORD	1146080	wordpools/wasnorm_wordpool_576.txt	LTP318	ltpFR2	4	9	TART	1436	n/a	n/a	0	0	0
2294.578	n/a	WORD	1147289	wordpools/wasnorm_wordpool_576.txt	LTP318	ltpFR2	4	9	THRONE	1461	n/a	n/a	0	0	0
2297.238	n/a	WORD	1148619	wordpools/wasnorm_wordpool_576.txt	LTP318	ltpFR2	4	9	CROWN	415	n/a	n/a	0	0	0
2299.766	n/a	WORD	1149883	wordpools/wasnorm_wordpool_576.txt	LTP318	ltpFR2	4	9	SPOOL	1356	n/a	n/a	0	0	0
2302.468	n/a	WORD	1151234	wordpools/wasnorm_wordpool_576.txt	LTP318	ltpFR2	4	9	FARMER	553	n/a	n/a	0	0	0
2305.128	n/a	WORD	1152564	wordpools/wasnorm_wordpool_576.txt	LTP318	ltpFR2	4	9	CATTLE	261	n/a	n/a	0	0	0
2307.696	n/a	WORD	1153848	wordpools/wasnorm_wordpool_576.txt	LTP318	ltpFR2	4	9	SEAFOOD	1260	n/a	n/a	0	0	0
2310.132	n/a	WORD	1155066	wordpools/wasnorm_wordpool_576.txt	LTP318	ltpFR2	4	9	LAKE	796	n/a	n/a	0	0	0
2312.768	n/a	WORD	1156384	wordpools/wasnorm_wordpool_576.txt	LTP318	ltpFR2	4	9	SHIRT	1287	n/a	n/a	0	0	0
2315.486	n/a	WORD	1157743	wordpools/wasnorm_wordpool_576.txt	LTP318	ltpFR2	4	9	BUBBLE	183	n/a	n/a	0	0	0
2318.08	n/a	WORD	1159040	wordpools/wasnorm_wordpool_576.txt	LTP318	ltpFR2	4	9	PROTON	1132	n/a	n/a	0	0	0
2320.54	n/a	WORD	1160270	wordpools/wasnorm_wordpool_576.txt	LTP318	ltpFR2	4	9	CHAPEL	280	n/a	n/a	0	0	0
2322.15	n/a	START	1161075	n/a	LTP318	ltpFR2	4	n/a	n/a	n/a	14	n/a	n/a	n/a	n/a
2323.246	n/a	DISTRACTOR	1161623	n/a	LTP318	ltpFR2	4	9	n/a	n/a	n/a	n/a	0	0	0
2323.262	n/a	PROB	1161631	n/a	LTP318	ltpFR2	4	n/a	n/a	n/a	14	19	9	4	6
2325.51	n/a	PROB	1162755	n/a	LTP318	ltpFR2	4	n/a	n/a	n/a	14	16	7	8	1
2326.96	n/a	PROB	1163480	n/a	LTP318	ltpFR2	4	n/a	n/a	n/a	14	10	6	3	1
2328.648	n/a	PROB	1164324	n/a	LTP318	ltpFR2	4	n/a	n/a	n/a	14	11	7	1	3
2330.046	n/a	PROB	1165023	n/a	LTP318	ltpFR2	4	n/a	n/a	n/a	14	10	4	1	5
2331.266	n/a	PROB	1165633	n/a	LTP318	ltpFR2	4	n/a	n/a	n/a	14	18	9	6	3
2332.986	n/a	PROB	1166493	n/a	LTP318	ltpFR2	4	n/a	n/a	n/a	14	13	5	6	1
2335.702	n/a	PROB	1167851	n/a	LTP318	ltpFR2	4	n/a	n/a	n/a	14	21	4	8	9
2338.538	n/a	PROB	1169269	n/a	LTP318	ltpFR2	4	n/a	n/a	n/a	14	12	6	3	3
2340.088	n/a	PROB	1170044	n/a	LTP318	ltpFR2	4	n/a	n/a	n/a	14	15	5	4	6
2341.39	n/a	PROB	1170695	n/a	LTP318	ltpFR2	4	n/a	n/a	n/a	14	17	8	7	2
2343.41	n/a	PROB	1171705	n/a	LTP318	ltpFR2	4	n/a	n/a	n/a	14	12	3	8	1
2345.208	n/a	STOP	1172604	n/a	LTP318	ltpFR2	4	n/a	n/a	n/a	14	n/a	n/a	n/a	n/a
2348.078	n/a	REC_START	1174039	n/a	LTP318	ltpFR2	4	9	n/a	n/a	n/a	n/a	0	0	0
2351.408	n/a	REC_WORD	1175704	wordpools/wasnorm_wordpool_576.txt	LTP318	ltpFR2	4	9	THRONE	1461	n/a	n/a	0	0	0
2352.592	n/a	REC_WORD	1176296	wordpools/wasnorm_wordpool_576.txt	LTP318	ltpFR2	4	9	CROWN	415	n/a	n/a	0	0	0
2353.538	n/a	REC_WORD	1176769	wordpools/wasnorm_wordpool_576.txt	LTP318	ltpFR2	4	9	ACTRESS	6	n/a	n/a	0	0	0
2354.51	n/a	REC_WORD	1177255	wordpools/wasnorm_wordpool_576.txt	LTP318	ltpFR2	4	9	FARMER	553	n/a	n/a	0	0	0
2355.516	n/a	REC_WORD	1177758	wordpools/wasnorm_wordpool_576.txt	LTP318	ltpFR2	4	9	LAKE	796	n/a	n/a	0	0	0
2356.332	n/a	REC_WORD	1178166	wordpools/wasnorm_wordpool_576.txt	LTP318	ltpFR2	4	9	SEAFOOD	1260	n/a	n/a	0	0	0
2358.896	n/a	REC_WORD	1179448	wordpools/wasnorm_wordpool_576.txt	LTP318	ltpFR2	4	9	BUBBLE	183	n/a	n/a	0	0	0
2359.76	n/a	REC_WORD	1179880	wordpools/wasnorm_wordpool_576.txt	LTP318	ltpFR2	4	9	PROTON	1132	n/a	n/a	0	0	0
2366.572	n/a	REC_WORD	1183286	wordpools/wasnorm_wordpool_576.txt	LTP318	ltpFR2	4	9	PICNIC	1060	n/a	n/a	0	0	0
2367.258	n/a	REC_WORD	1183629	wordpools/wasnorm_wordpool_576.txt	LTP318	ltpFR2	4	9	SANDWICH	1232	n/a	n/a	0	0	0
2372.288	n/a	REC_WORD	1186144	wordpools/wasnorm_wordpool_576.txt	LTP318	ltpFR2	4	9	TART	1436	n/a	n/a	0	0	0
2373.282	n/a	REC_WORD	1186641	wordpools/wasnorm_wordpool_576.txt	LTP318	ltpFR2	4	9	PECAN	1036	n/a	n/a	0	0	0
2376.562	n/a	REC_WORD	1188281	wordpools/wasnorm_wordpool_576.txt	LTP318	ltpFR2	4	9	DOUGHNUT	490	n/a	n/a	0	0	0
2379.232	n/a	REC_WORD	1189616	wordpools/wasnorm_wordpool_576.txt	LTP318	ltpFR2	4	9	SALMON	1227	n/a	n/a	0	0	0
2380.41	n/a	REC_WORD	1190205	wordpools/wasnorm_wordpool_576.txt	LTP318	ltpFR2	4	9	GARLIC	624	n/a	n/a	0	0	0
2381.33	n/a	REC_WORD	1190665	wordpools/wasnorm_wordpool_576.txt	LTP318	ltpFR2	4	9	POPCORN	1104	n/a	n/a	0	0	0
2383.138	n/a	REC_WORD	1191569	wordpools/wasnorm_wordpool_576.txt	LTP318	ltpFR2	4	9	MARKER	870	n/a	n/a	0	0	0
2384.148	n/a	REC_WORD	1192074	wordpools/wasnorm_wordpool_576.txt	LTP318	ltpFR2	4	9	CRAYON	401	n/a	n/a	0	0	0
2385.032	n/a	REC_WORD	1192516	wordpools/wasnorm_wordpool_576.txt	LTP318	ltpFR2	4	9	BALLOON	75	n/a	n/a	0	0	0
2385.952	n/a	REC_WORD	1192976	wordpools/wasnorm_wordpool_576.txt	LTP318	ltpFR2	4	9	RATTLE	1170	n/a	n/a	0	0	0
2395.916	n/a	REC_WORD	1197958	wordpools/wasnorm_wordpool_576.txt	LTP318	ltpFR2	4	9	FARMER	553	n/a	n/a	0	0	0
2396.976	n/a	REC_WORD	1198488	wordpools/wasnorm_wordpool_576.txt	LTP318	ltpFR2	4	9	SPOOL	1356	n/a	n/a	0	0	0
2419.298	n/a	REC_WORD	1209649	wordpools/wasnorm_wordpool_576.txt	LTP318	ltpFR2	4	9	BABY	64	n/a	n/a	0	0	0
2438.558	n/a	WORD	1219279	wordpools/wasnorm_wordpool_576.txt	LTP318	ltpFR2	4	10	SAUSAGE	1238	n/a	n/a	0	0	0
2441.328	n/a	WORD	1220664	wordpools/wasnorm_wordpool_576.txt	LTP318	ltpFR2	4	10	SKIRT	1319	n/a	n/a	0	0	0
2443.83	n/a	WORD	1221915	wordpools/wasnorm_wordpool_576.txt	LTP318	ltpFR2	4	10	LACE	792	n/a	n/a	0	0	0
2446.532	n/a	WORD	1223266	wordpools/wasnorm_wordpool_576.txt	LTP318	ltpFR2	4	10	HAMPER	682	n/a	n/a	0	0	0
2449.302	n/a	WORD	1224651	wordpools/wasnorm_wordpool_576.txt	LTP318	ltpFR2	4	10	CHURCH	307	n/a	n/a	0	0	0
2452.12	n/a	WORD	1226060	wordpools/wasnorm_wordpool_576.txt	LTP318	ltpFR2	4	10	CRUTCH	417	n/a	n/a	0	0	0
2454.654	n/a	WORD	1227327	wordpools/wasnorm_wordpool_576.txt	LTP318	ltpFR2	4	10	CEILING	265	n/a	n/a	0	0	0
2457.19	n/a	WORD	1228595	wordpools/wasnorm_wordpool_576.txt	LTP318	ltpFR2	4	10	RUG	1215	n/a	n/a	0	0	0
2459.86	n/a	WORD	1229930	wordpools/wasnorm_wordpool_576.txt	LTP318	ltpFR2	4	10	LASER	801	n/a	n/a	0	0	0
2462.478	n/a	WORD	1231239	wordpools/wasnorm_wordpool_576.txt	LTP318	ltpFR2	4	10	SURVEY	1414	n/a	n/a	0	0	0
2465.266	n/a	WORD	1232633	wordpools/wasnorm_wordpool_576.txt	LTP318	ltpFR2	4	10	CELLAR	267	n/a	n/a	0	0	0
2467.932	n/a	WORD	1233966	wordpools/wasnorm_wordpool_576.txt	LTP318	ltpFR2	4	10	CHILD	299	n/a	n/a	0	0	0
2470.518	n/a	WORD	1235259	wordpools/wasnorm_wordpool_576.txt	LTP318	ltpFR2	4	10	MARINE	869	n/a	n/a	0	0	0
2473.086	n/a	WORD	1236543	wordpools/wasnorm_wordpool_576.txt	LTP318	ltpFR2	4	10	DIVER	476	n/a	n/a	0	0	0
2475.588	n/a	WORD	1237794	wordpools/wasnorm_wordpool_576.txt	LTP318	ltpFR2	4	10	DRINK	498	n/a	n/a	0	0	0
2478.424	n/a	WORD	1239212	wordpools/wasnorm_wordpool_576.txt	LTP318	ltpFR2	4	10	POET	1095	n/a	n/a	0	0	0
2481.18	n/a	WORD	1240590	wordpools/wasnorm_wordpool_576.txt	LTP318	ltpFR2	4	10	INFANT	737	n/a	n/a	0	0	0
2483.778	n/a	WORD	1241889	wordpools/wasnorm_wordpool_576.txt	LTP318	ltpFR2	4	10	BUG	187	n/a	n/a	0	0	0
2486.246	n/a	WORD	1243123	wordpools/wasnorm_wordpool_576.txt	LTP318	ltpFR2	4	10	HAND	683	n/a	n/a	0	0	0
2488.986	n/a	WORD	1244493	wordpools/wasnorm_wordpool_576.txt	LTP318	ltpFR2	4	10	CROSS	413	n/a	n/a	0	0	0
2491.788	n/a	WORD	1245894	wordpools/wasnorm_wordpool_576.txt	LTP318	ltpFR2	4	10	POWDER	1117	n/a	n/a	0	0	0
2494.27	n/a	WORD	1247135	wordpools/wasnorm_wordpool_576.txt	LTP318	ltpFR2	4	10	RACKET	1155	n/a	n/a	0	0	0
2496.944	n/a	WORD	1248472	wordpools/wasnorm_wordpool_576.txt	LTP318	ltpFR2	4	10	FLIPPER	580	n/a	n/a	0	0	0
2499.624	n/a	WORD	1249812	wordpools/wasnorm_wordpool_576.txt	LTP318	ltpFR2	4	10	SUPPER	1411	n/a	n/a	0	0	0
2501.232	n/a	START	1250616	n/a	LTP318	ltpFR2	4	n/a	n/a	n/a	15	n/a	n/a	n/a	n/a
2502.284	n/a	DISTRACTOR	1251142	n/a	LTP318	ltpFR2	4	10	n/a	n/a	n/a	n/a	0	0	0
2502.292	n/a	PROB	1251146	n/a	LTP318	ltpFR2	4	n/a	n/a	n/a	15	20	7	9	4
2505.032	n/a	PROB	1252516	n/a	LTP318	ltpFR2	4	n/a	n/a	n/a	15	6	4	1	1
2506.344	n/a	PROB	1253172	n/a	LTP318	ltpFR2	4	n/a	n/a	n/a	15	23	5	9	9
2507.718	n/a	PROB	1253859	n/a	LTP318	ltpFR2	4	n/a	n/a	n/a	15	17	9	6	2
2509.212	n/a	PROB	1254606	n/a	LTP318	ltpFR2	4	n/a	n/a	n/a	15	13	3	7	3
2510.354	n/a	PROB	1255177	n/a	LTP318	ltpFR2	4	n/a	n/a	n/a	15	14	2	6	6
2511.62	n/a	PROB	1255810	n/a	LTP318	ltpFR2	4	n/a	n/a	n/a	15	19	7	3	9
2512.822	n/a	PROB	1256411	n/a	LTP318	ltpFR2	4	n/a	n/a	n/a	15	18	7	6	5
2514.69	n/a	PROB	1257345	n/a	LTP318	ltpFR2	4	n/a	n/a	n/a	15	11	2	2	7
2517.042	n/a	PROB	1258521	n/a	LTP318	ltpFR2	4	n/a	n/a	n/a	15	12	2	9	1
2518.226	n/a	PROB	1259113	n/a	LTP318	ltpFR2	4	n/a	n/a	n/a	15	6	2	2	2
2519.294	n/a	PROB	1259647	n/a	LTP318	ltpFR2	4	n/a	n/a	n/a	15	10	6	1	3
2520.994	n/a	PROB	1260497	n/a	LTP318	ltpFR2	4	n/a	n/a	n/a	15	12	8	1	3
2522.43	n/a	PROB	1261215	n/a	LTP318	ltpFR2	4	n/a	n/a	n/a	15	15	9	3	3
2524.156	n/a	STOP	1262078	n/a	LTP318	ltpFR2	4	n/a	n/a	n/a	15	n/a	n/a	n/a	n/a
2527.168	n/a	REC_START	1263584	n/a	LTP318	ltpFR2	4	10	n/a	n/a	n/a	n/a	0	0	0
2530.602	n/a	REC_WORD	1265301	wordpools/wasnorm_wordpool_576.txt	LTP318	ltpFR2	4	10	SAUSAGE	1238	n/a	n/a	0	0	0
2531.602	n/a	REC_WORD_VV	1265801	wordpools/wasnorm_wordpool_576.txt	LTP318	ltpFR2	4	10	<>	-1	n/a	n/a	0	0	0
2532.238	n/a	REC_WORD	1266119	wordpools/wasnorm_wordpool_576.txt	LTP318	ltpFR2	4	10	SKIRT	1319	n/a	n/a	0	0	0
2533.18	n/a	REC_WORD	1266590	wordpools/wasnorm_wordpool_576.txt	LTP318	ltpFR2	4	10	LACE	792	n/a	n/a	0	0	0
2533.914	n/a	REC_WORD	1266957	wordpools/wasnorm_wordpool_576.txt	LTP318	ltpFR2	4	10	HAMPER	682	n/a	n/a	0	0	0
2535.006	n/a	REC_WORD	1267503	wordpools/wasnorm_wordpool_576.txt	LTP318	ltpFR2	4	10	CHURCH	307	n/a	n/a	0	0	0
2535.762	n/a	REC_WORD	1267881	wordpools/wasnorm_wordpool_576.txt	LTP318	ltpFR2	4	10	CEILING	265	n/a	n/a	0	0	0
2536.812	n/a	REC_WORD	1268406	wordpools/wasnorm_wordpool_576.txt	LTP318	ltpFR2	4	10	RUG	1215	n/a	n/a	0	0	0
2538.508	n/a	REC_WORD	1269254	wordpools/wasnorm_wordpool_576.txt	LTP318	ltpFR2	4	10	CROSS	413	n/a	n/a	0	0	0
2543.17	n/a	REC_WORD	1271585	wordpools/wasnorm_wordpool_576.txt	LTP318	ltpFR2	4	10	CHILD	299	n/a	n/a	0	0	0
2544.214	n/a	REC_WORD	1272107	wordpools/wasnorm_wordpool_576.txt	LTP318	ltpFR2	4	10	INFANT	737	n/a	n/a	0	0	0
2546.544	n/a	REC_WORD	1273272	wordpools/wasnorm_wordpool_576.txt	LTP318	ltpFR2	4	10	CELLAR	267	n/a	n/a	0	0	0
2551.884	n/a	REC_WORD	1275942	wordpools/wasnorm_wordpool_576.txt	LTP318	ltpFR2	4	10	MARINE	869	n/a	n/a	0	0	0
2553.258	n/a	REC_WORD	1276629	wordpools/wasnorm_wordpool_576.txt	LTP318	ltpFR2	4	10	DIVER	476	n/a	n/a	0	0	0
2555.144	n/a	REC_WORD	1277572	wordpools/wasnorm_wordpool_576.txt	LTP318	ltpFR2	4	10	DRINK	498	n/a	n/a	0	0	0
2560.954	n/a	REC_WORD	1280477	wordpools/wasnorm_wordpool_576.txt	LTP318	ltpFR2	4	10	POET	1095	n/a	n/a	0	0	0
2578.11	n/a	REC_WORD	1289055	wordpools/wasnorm_wordpool_576.txt	LTP318	ltpFR2	4	10	SURVEY	1414	n/a	n/a	0	0	0
2617.628	n/a	WORD	1308814	wordpools/wasnorm_wordpool_576.txt	LTP318	ltpFR2	4	11	RECORD	1176	n/a	n/a	0	0	0
2620.152	n/a	WORD	1310076	wordpools/wasnorm_wordpool_576.txt	LTP318	ltpFR2	4	11	GIFT	635	n/a	n/a	0	0	0
2622.802	n/a	WORD	1311401	wordpools/wasnorm_wordpool_576.txt	LTP318	ltpFR2	4	11	SLUG	1329	n/a	n/a	0	0	0
2625.588	n/a	WORD	1312794	wordpools/wasnorm_wordpool_576.txt	LTP318	ltpFR2	4	11	ARMY	39	n/a	n/a	0	0	0
2628.022	n/a	WORD	1314011	wordpools/wasnorm_wordpool_576.txt	LTP318	ltpFR2	4	11	GLOVE	642	n/a	n/a	0	0	0
2630.692	n/a	WORD	1315346	wordpools/wasnorm_wordpool_576.txt	LTP318	ltpFR2	4	11	SIDEWALK	1303	n/a	n/a	0	0	0
2633.512	n/a	WORD	1316756	wordpools/wasnorm_wordpool_576.txt	LTP318	ltpFR2	4	11	CONCERT	360	n/a	n/a	0	0	0
2636.23	n/a	WORD	1318115	wordpools/wasnorm_wordpool_576.txt	LTP318	ltpFR2	4	11	PIANO	1057	n/a	n/a	0	0	0
2638.684	n/a	WORD	1319342	wordpools/wasnorm_wordpool_576.txt	LTP318	ltpFR2	4	11	TROUT	1511	n/a	n/a	0	0	0
2641.202	n/a	WORD	1320601	wordpools/wasnorm_wordpool_576.txt	LTP318	ltpFR2	4	11	OMELET	976	n/a	n/a	0	0	0
2643.838	n/a	WORD	1321919	wordpools/wasnorm_wordpool_576.txt	LTP318	ltpFR2	4	11	ARM	38	n/a	n/a	0	0	0
2646.538	n/a	WORD	1323269	wordpools/wasnorm_wordpool_576.txt	LTP318	ltpFR2	4	11	TILE	1468	n/a	n/a	0	0	0
2649.34	n/a	WORD	1324670	wordpools/wasnorm_wordpool_576.txt	LTP318	ltpFR2	4	11	BARREL	91	n/a	n/a	0	0	0
2652.078	n/a	WORD	1326039	wordpools/wasnorm_wordpool_576.txt	LTP318	ltpFR2	4	11	SERVANT	1271	n/a	n/a	0	0	0
2654.63	n/a	WORD	1327315	wordpools/wasnorm_wordpool_576.txt	LTP318	ltpFR2	4	11	SPIDER	1351	n/a	n/a	0	0	0
2657.282	n/a	WORD	1328641	wordpools/wasnorm_wordpool_576.txt	LTP318	ltpFR2	4	11	CRICKET	408	n/a	n/a	0	0	0
2659.966	n/a	WORD	1329983	wordpools/wasnorm_wordpool_576.txt	LTP318	ltpFR2	4	11	QUARTER	1148	n/a	n/a	0	0	0
2662.486	n/a	WORD	1331243	wordpools/wasnorm_wordpool_576.txt	LTP318	ltpFR2	4	11	JELLO	754	n/a	n/a	0	0	0
2665.088	n/a	WORD	1332544	wordpools/wasnorm_wordpool_576.txt	LTP318	ltpFR2	4	11	PASTRY	1022	n/a	n/a	0	0	0
2667.724	n/a	WORD	1333862	wordpools/wasnorm_wordpool_576.txt	LTP318	ltpFR2	4	11	CONTRACT	368	n/a	n/a	0	0	0
2670.428	n/a	WORD	1335214	wordpools/wasnorm_wordpool_576.txt	LTP318	ltpFR2	4	11	GRAVEL	659	n/a	n/a	0	0	0
2672.994	n/a	WORD	1336497	wordpools/wasnorm_wordpool_576.txt	LTP318	ltpFR2	4	11	HIGHWAY	707	n/a	n/a	0	0	0
2675.564	n/a	WORD	1337782	wordpools/wasnorm_wordpool_576.txt	LTP318	ltpFR2	4	11	PACKAGE	997	n/a	n/a	0	0	0
2678.032	n/a	WORD	1339016	wordpools/wasnorm_wordpool_576.txt	LTP318	ltpFR2	4	11	BELLY	119	n/a	n/a	0	0	0
2679.65	n/a	START	1339825	n/a	LTP318	ltpFR2	4	n/a	n/a	n/a	16	n/a	n/a	n/a	n/a
2680.736	n/a	DISTRACTOR	1340368	n/a	LTP318	ltpFR2	4	11	n/a	n/a	n/a	n/a	0	0	0
2680.752	n/a	PROB	1340376	n/a	LTP318	ltpFR2	4	n/a	n/a	n/a	16	18	8	7	3
2682.484	n/a	PROB	1341242	n/a	LTP318	ltpFR2	4	n/a	n/a	n/a	16	11	2	3	6
2684.0	n/a	PROB	1342000	n/a	LTP318	ltpFR2	4	n/a	n/a	n/a	16	4	2	1	1
2685.052	n/a	PROB	1342526	n/a	LTP318	ltpFR2	4	n/a	n/a	n/a	16	12	5	5	2
2686.154	n/a	PROB	1343077	n/a	LTP318	ltpFR2	4	n/a	n/a	n/a	16	18	1	8	9
2687.44	n/a	PROB	1343720	n/a	LTP318	ltpFR2	4	n/a	n/a	n/a	16	21	6	7	6
2690.026	n/a	PROB	1345013	n/a	LTP318	ltpFR2	4	n/a	n/a	n/a	16	13	5	5	3
2691.344	n/a	PROB	1345672	n/a	LTP318	ltpFR2	4	n/a	n/a	n/a	16	12	3	1	8
2693.61	n/a	PROB	1346805	n/a	LTP318	ltpFR2	4	n/a	n/a	n/a	16	6	1	2	3
2695.328	n/a	PROB	1347664	n/a	LTP318	ltpFR2	4	n/a	n/a	n/a	16	12	4	2	6
2696.746	n/a	PROB	1348373	n/a	LTP318	ltpFR2	4	n/a	n/a	n/a	16	11	7	1	3
2698.248	n/a	PROB	1349124	n/a	LTP318	ltpFR2	4	n/a	n/a	n/a	16	11	1	7	3
2699.58	n/a	PROB	1349790	n/a	LTP318	ltpFR2	4	n/a	n/a	n/a	16	14	8	4	2
2700.95	n/a	PROB	1350475	n/a	LTP318	ltpFR2	4	n/a	n/a	n/a	16	16	8	2	6
2702.122	n/a	STOP	1351061	n/a	LTP318	ltpFR2	4	n/a	n/a	n/a	16	n/a	n/a	n/a	n/a
2705.492	n/a	REC_START	1352746	n/a	LTP318	ltpFR2	4	11	n/a	n/a	n/a	n/a	0	0	0
2710.26	n/a	REC_WORD_VV	1355130	wordpools/wasnorm_wordpool_576.txt	LTP318	ltpFR2	4	11	<>	-1	n/a	n/a	0	0	0
2711.26	n/a	REC_WORD_VV	1355630	wordpools/wasnorm_wordpool_576.txt	LTP318	ltpFR2	4	11	<>	-1	n/a	n/a	0	0	0
2714.888	n/a	REC_WORD	1357444	wordpools/wasnorm_wordpool_576.txt	LTP318	ltpFR2	4	11	ARMY	39	n/a	n/a	0	0	0
2719.492	n/a	REC_WORD	1359746	wordpools/wasnorm_wordpool_576.txt	LTP318	ltpFR2	4	11	PACKAGE	997	n/a	n/a	0	0	0
2720.666	n/a	REC_WORD	1360333	wordpools/wasnorm_wordpool_576.txt	LTP318	ltpFR2	4	11	BARREL	91	n/a	n/a	0	0	0
2725.496	n/a	REC_WORD	1362748	wordpools/wasnorm_wordpool_576.txt	LTP318	ltpFR2	4	11	CONCERT	360	n/a	n/a	0	0	0
2726.508	n/a	REC_WORD	1363254	wordpools/wasnorm_wordpool_576.txt	LTP318	ltpFR2	4	11	PIANO	1057	n/a	n/a	0	0	0
2729.268	n/a	REC_WORD	1364634	wordpools/wasnorm_wordpool_576.txt	LTP318	ltpFR2	4	11	BELLY	119	n/a	n/a	0	0	0
2731.132	n/a	REC_WORD	1365566	wordpools/wasnorm_wordpool_576.txt	LTP318	ltpFR2	4	11	SERVANT	1271	n/a	n/a	0	0	0
2732.824	n/a	REC_WORD	1366412	wordpools/wasnorm_wordpool_576.txt	LTP318	ltpFR2	4	11	TILE	1468	n/a	n/a	0	0	0
2738.092	n/a	REC_WORD	1369046	wordpools/wasnorm_wordpool_576.txt	LTP318	ltpFR2	4	11	SIDEWALK	1303	n/a	n/a	0	0	0
2739.282	n/a	REC_WORD	1369641	wordpools/wasnorm_wordpool_576.txt	LTP318	ltpFR2	4	11	GRAVEL	659	n/a	n/a	0	0	0
2748.92	n/a	REC_WORD	1374460	wordpools/wasnorm_wordpool_576.txt	LTP318	ltpFR2	4	11	JELLY	755	n/a	n/a	0	0	0
2750.15	n/a	REC_WORD	1375075	wordpools/wasnorm_wordpool_576.txt	LTP318	ltpFR2	4	11	ARM	38	n/a	n/a	0	0	0
2752.894	n/a	REC_WORD	1376447	wordpools/wasnorm_wordpool_576.txt	LTP318	ltpFR2	4	11	CRICKET	408	n/a	n/a	0	0	0
2753.676	n/a	REC_WORD	1376838	wordpools/wasnorm_wordpool_576.txt	LTP318	ltpFR2	4	11	SPIDER	1351	n/a	n/a	0	0	0
2795.932	n/a	WORD	1397966	wordpools/wasnorm_wordpool_576.txt	LTP318	ltpFR2	4	12	LION	827	n/a	n/a	0	0	0
2798.402	n/a	WORD	1399201	wordpools/wasnorm_wordpool_576.txt	LTP318	ltpFR2	4	12	ORANGE	980	n/a	n/a	0	0	0
2800.83	n/a	WORD	1400415	wordpools/wasnorm_wordpool_576.txt	LTP318	ltpFR2	4	12	NOTEBOOK	959	n/a	n/a	0	0	0
2803.632	n/a	WORD	1401816	wordpools/wasnorm_wordpool_576.txt	LTP318	ltpFR2	4	12	CLAMP	316	n/a	n/a	0	0	0
2806.384	n/a	WORD	1403192	wordpools/wasnorm_wordpool_576.txt	LTP318	ltpFR2	4	12	STREAM	1392	n/a	n/a	0	0	0
2808.968	n/a	WORD	1404484	wordpools/wasnorm_wordpool_576.txt	LTP318	ltpFR2	4	12	BROOK	177	n/a	n/a	0	0	0
2811.614	n/a	WORD	1405807	wordpools/wasnorm_wordpool_576.txt	LTP318	ltpFR2	4	12	FREEZER	604	n/a	n/a	0	0	0
2814.284	n/a	WORD	1407142	wordpools/wasnorm_wordpool_576.txt	LTP318	ltpFR2	4	12	COOKBOOK	373	n/a	n/a	0	0	0
2816.858	n/a	WORD	1408429	wordpools/wasnorm_wordpool_576.txt	LTP318	ltpFR2	4	12	PARENT	1013	n/a	n/a	0	0	0
2819.588	n/a	WORD	1409794	wordpools/wasnorm_wordpool_576.txt	LTP318	ltpFR2	4	12	DAUGHTER	442	n/a	n/a	0	0	0
2822.33	n/a	WORD	1411165	wordpools/wasnorm_wordpool_576.txt	LTP318	ltpFR2	4	12	STICKER	1382	n/a	n/a	0	0	0
2824.942	n/a	WORD	1412471	wordpools/wasnorm_wordpool_576.txt	LTP318	ltpFR2	4	12	PEANUT	1032	n/a	n/a	0	0	0
2827.56	n/a	WORD	1413780	wordpools/wasnorm_wordpool_576.txt	LTP318	ltpFR2	4	12	DASHBOARD	441	n/a	n/a	0	0	0
2830.302	n/a	WORD	1415151	wordpools/wasnorm_wordpool_576.txt	LTP318	ltpFR2	4	12	SWITCH	1422	n/a	n/a	0	0	0
2832.732	n/a	WORD	1416366	wordpools/wasnorm_wordpool_576.txt	LTP318	ltpFR2	4	12	COLLEGE	346	n/a	n/a	0	0	0
2835.502	n/a	WORD	1417751	wordpools/wasnorm_wordpool_576.txt	LTP318	ltpFR2	4	12	DRESSER	496	n/a	n/a	0	0	0
2838.154	n/a	WORD	1419077	wordpools/wasnorm_wordpool_576.txt	LTP318	ltpFR2	4	12	BOARD	143	n/a	n/a	0	0	0
2840.74	n/a	WORD	1420370	wordpools/wasnorm_wordpool_576.txt	LTP318	ltpFR2	4	12	NIGHTGOWN	953	n/a	n/a	0	0	0
2843.464	n/a	WORD	1421732	wordpools/wasnorm_wordpool_576.txt	LTP318	ltpFR2	4	12	LUNCH	849	n/a	n/a	0	0	0
2845.898	n/a	WORD	1422949	wordpools/wasnorm_wordpool_576.txt	LTP318	ltpFR2	4	12	COWBOY	395	n/a	n/a	0	0	0
2848.478	n/a	WORD	1424239	wordpools/wasnorm_wordpool_576.txt	LTP318	ltpFR2	4	12	SKILLET	1317	n/a	n/a	0	0	0
2851.22	n/a	WORD	1425610	wordpools/wasnorm_wordpool_576.txt	LTP318	ltpFR2	4	12	MARKET	871	n/a	n/a	0	0	0
2853.666	n/a	WORD	1426833	wordpools/wasnorm_wordpool_576.txt	LTP318	ltpFR2	4	12	CASHEW	253	n/a	n/a	0	0	0
2856.17	n/a	WORD	1428085	wordpools/wasnorm_wordpool_576.txt	LTP318	ltpFR2	4	12	PAIL	1002	n/a	n/a	0	0	0
2857.788	n/a	START	1428894	n/a	LTP318	ltpFR2	4	n/a	n/a	n/a	17	n/a	n/a	n/a	n/a
2858.748	n/a	DISTRACTOR	1429374	n/a	LTP318	ltpFR2	4	12	n/a	n/a	n/a	n/a	0	0	0
2858.754	n/a	PROB	1429377	n/a	LTP318	ltpFR2	4	n/a	n/a	n/a	17	16	5	3	8
2860.74	n/a	PROB	1430370	n/a	LTP318	ltpFR2	4	n/a	n/a	n/a	17	19	5	5	9
2862.07	n/a	PROB	1431035	n/a	LTP318	ltpFR2	4	n/a	n/a	n/a	17	12	4	7	1
2863.892	n/a	PROB	1431946	n/a	LTP318	ltpFR2	4	n/a	n/a	n/a	17	15	3	6	6
2865.674	n/a	PROB	1432837	n/a	LTP318	ltpFR2	4	n/a	n/a	n/a	17	18	8	9	1
2867.376	n/a	PROB	1433688	n/a	LTP318	ltpFR2	4	n/a	n/a	n/a	17	16	6	1	9
2868.878	n/a	PROB	1434439	n/a	LTP318	ltpFR2	4	n/a	n/a	n/a	17	14	5	4	5
2870.21	n/a	PROB	1435105	n/a	LTP318	ltpFR2	4	n/a	n/a	n/a	17	20	8	7	5
2872.482	n/a	PROB	1436241	n/a	LTP318	ltpFR2	4	n/a	n/a	n/a	17	15	1	5	9
2873.7	n/a	PROB	1436850	n/a	LTP318	ltpFR2	4	n/a	n/a	n/a	17	13	4	4	5
2875.132	n/a	PROB	1437566	n/a	LTP318	ltpFR2	4	n/a	n/a	n/a	17	20	5	9	6
2877.152	n/a	PROB	1438576	n/a	LTP318	ltpFR2	4	n/a	n/a	n/a	17	19	6	5	8
2878.92	n/a	PROB	1439460	n/a	LTP318	ltpFR2	4	n/a	n/a	n/a	17	14	3	7	4
2881.728	n/a	STOP	1440864	n/a	LTP318	ltpFR2	4	n/a	n/a	n/a	17	n/a	n/a	n/a	n/a
2883.592	n/a	REC_START	1441796	n/a	LTP318	ltpFR2	4	12	n/a	n/a	n/a	n/a	0	0	0
2887.128	n/a	REC_WORD	1443564	wordpools/wasnorm_wordpool_576.txt	LTP318	ltpFR2	4	12	ORANGE	980	n/a	n/a	0	0	0
2888.492	n/a	REC_WORD	1444246	wordpools/wasnorm_wordpool_576.txt	LTP318	ltpFR2	4	12	LION	827	n/a	n/a	0	0	0
2889.408	n/a	REC_WORD	1444704	wordpools/wasnorm_wordpool_576.txt	LTP318	ltpFR2	4	12	NOTEBOOK	959	n/a	n/a	0	0	0
2890.452	n/a	REC_WORD	1445226	wordpools/wasnorm_wordpool_576.txt	LTP318	ltpFR2	4	12	CLAMP	316	n/a	n/a	0	0	0
2893.046	n/a	REC_WORD	1446523	wordpools/wasnorm_wordpool_576.txt	LTP318	ltpFR2	4	12	FREEZER	604	n/a	n/a	0	0	0
2894.662	n/a	REC_WORD	1447331	wordpools/wasnorm_wordpool_576.txt	LTP318	ltpFR2	4	12	COOKBOOK	373	n/a	n/a	0	0	0
2898.358	n/a	REC_WORD	1449179	wordpools/wasnorm_wordpool_576.txt	LTP318	ltpFR2	4	12	DAUGHTER	442	n/a	n/a	0	0	0
2899.216	n/a	REC_WORD	1449608	wordpools/wasnorm_wordpool_576.txt	LTP318	ltpFR2	4	12	PARENT	1013	n/a	n/a	0	0	0
2906.868	n/a	REC_WORD	1453434	wordpools/wasnorm_wordpool_576.txt	LTP318	ltpFR2	4	12	COLLEGE	346	n/a	n/a	0	0	0
2907.886	n/a	REC_WORD	1453943	wordpools/wasnorm_wordpool_576.txt	LTP318	ltpFR2	4	12	DRESSER	496	n/a	n/a	0	0	0
2908.864	n/a	REC_WORD	1454432	wordpools/wasnorm_wordpool_576.txt	LTP318	ltpFR2	4	12	NOTEBOOK	959	n/a	n/a	0	0	0
2911.77	n/a	REC_WORD	1455885	wordpools/wasnorm_wordpool_576.txt	LTP318	ltpFR2	4	12	NIGHTGOWN	953	n/a	n/a	0	0	0
2914.81	n/a	REC_WORD	1457405	wordpools/wasnorm_wordpool_576.txt	LTP318	ltpFR2	4	12	BROOK	177	n/a	n/a	0	0	0
2915.488	n/a	REC_WORD	1457744	wordpools/wasnorm_wordpool_576.txt	LTP318	ltpFR2	4	12	STREAM	1392	n/a	n/a	0	0	0
2919.112	n/a	REC_WORD	1459556	wordpools/wasnorm_wordpool_576.txt	LTP318	ltpFR2	4	12	CASHEW	253	n/a	n/a	0	0	0
2920.344	n/a	REC_WORD	1460172	wordpools/wasnorm_wordpool_576.txt	LTP318	ltpFR2	4	12	PAIL	1002	n/a	n/a	0	0	0
2921.34	n/a	REC_WORD	1460670	wordpools/wasnorm_wordpool_576.txt	LTP318	ltpFR2	4	12	MARKET	871	n/a	n/a	0	0	0
2922.586	n/a	REC_WORD	1461293	wordpools/wasnorm_wordpool_576.txt	LTP318	ltpFR2	4	12	LUNCH	849	n/a	n/a	0	0	0
2930.418	n/a	REC_WORD	1465209	wordpools/wasnorm_wordpool_576.txt	LTP318	ltpFR2	4	12	SKILLET	1317	n/a	n/a	0	0	0
2931.524	n/a	REC_WORD	1465762	wordpools/wasnorm_wordpool_576.txt	LTP318	ltpFR2	4	12	COWBOY	395	n/a	n/a	0	0	0
2974.062	n/a	WORD	1487031	wordpools/wasnorm_wordpool_576.txt	LTP318	ltpFR2	4	13	BATHTUB	100	n/a	n/a	0	0	0
2976.736	n/a	WORD	1488368	wordpools/wasnorm_wordpool_576.txt	LTP318	ltpFR2	4	13	FLASK	576	n/a	n/a	0	0	0
2979.472	n/a	WORD	1489736	wordpools/wasnorm_wordpool_576.txt	LTP318	ltpFR2	4	13	CHAMPAGNE	278	n/a	n/a	0	0	0
2982.106	n/a	WORD	1491053	wordpools/wasnorm_wordpool_576.txt	LTP318	ltpFR2	4	13	SEAGULL	1261	n/a	n/a	0	0	0
2984.73	n/a	WORD	1492365	wordpools/wasnorm_wordpool_576.txt	LTP318	ltpFR2	4	13	REPORT	1184	n/a	n/a	0	0	0
2987.26	n/a	WORD	1493630	wordpools/wasnorm_wordpool_576.txt	LTP318	ltpFR2	4	13	QUEEN	1149	n/a	n/a	0	0	0
2989.878	n/a	WORD	1494939	wordpools/wasnorm_wordpool_576.txt	LTP318	ltpFR2	4	13	EMPIRE	530	n/a	n/a	0	0	0
2992.636	n/a	WORD	1496318	wordpools/wasnorm_wordpool_576.txt	LTP318	ltpFR2	4	13	SCULPTURE	1258	n/a	n/a	0	0	0
2995.306	n/a	WORD	1497653	wordpools/wasnorm_wordpool_576.txt	LTP318	ltpFR2	4	13	RAZOR	1171	n/a	n/a	0	0	0
2997.968	n/a	WORD	1498984	wordpools/wasnorm_wordpool_576.txt	LTP318	ltpFR2	4	13	GUITAR	670	n/a	n/a	0	0	0
3000.42	n/a	WORD	1500210	wordpools/wasnorm_wordpool_576.txt	LTP318	ltpFR2	4	13	PATROL	1027	n/a	n/a	0	0	0
3003.206	n/a	WORD	1501603	wordpools/wasnorm_wordpool_576.txt	LTP318	ltpFR2	4	13	TRIBE	1505	n/a	n/a	0	0	0
3006.006	n/a	WORD	1503003	wordpools/wasnorm_wordpool_576.txt	LTP318	ltpFR2	4	13	THIEF	1456	n/a	n/a	0	0	0
3008.528	n/a	WORD	1504264	wordpools/wasnorm_wordpool_576.txt	LTP318	ltpFR2	4	13	CAPTIVE	240	n/a	n/a	0	0	0
3011.264	n/a	WORD	1505632	wordpools/wasnorm_wordpool_576.txt	LTP318	ltpFR2	4	13	STONE	1385	n/a	n/a	0	0	0
3013.932	n/a	WORD	1506966	wordpools/wasnorm_wordpool_576.txt	LTP318	ltpFR2	4	13	POSTAGE	1113	n/a	n/a	0	0	0
3016.4	n/a	WORD	1508200	wordpools/wasnorm_wordpool_576.txt	LTP318	ltpFR2	4	13	MESSAGE	888	n/a	n/a	0	0	0
3018.86	n/a	WORD	1509430	wordpools/wasnorm_wordpool_576.txt	LTP318	ltpFR2	4	13	HAWK	692	n/a	n/a	0	0	0
3021.32	n/a	WORD	1510660	wordpools/wasnorm_wordpool_576.txt	LTP318	ltpFR2	4	13	PREACHER	1119	n/a	n/a	0	0	0
3023.906	n/a	WORD	1511953	wordpools/wasnorm_wordpool_576.txt	LTP318	ltpFR2	4	13	SHELF	1280	n/a	n/a	0	0	0
3026.374	n/a	WORD	1513187	wordpools/wasnorm_wordpool_576.txt	LTP318	ltpFR2	4	13	TOURIST	1488	n/a	n/a	0	0	0
3029.084	n/a	WORD	1514542	wordpools/wasnorm_wordpool_576.txt	LTP318	ltpFR2	4	13	FLUTE	585	n/a	n/a	0	0	0
3031.644	n/a	WORD	1515822	wordpools/wasnorm_wordpool_576.txt	LTP318	ltpFR2	4	13	IDOL	733	n/a	n/a	0	0	0
3034.314	n/a	WORD	1517157	wordpools/wasnorm_wordpool_576.txt	LTP318	ltpFR2	4	13	SKETCH	1315	n/a	n/a	0	0	0
3035.924	n/a	START	1517962	n/a	LTP318	ltpFR2	4	n/a	n/a	n/a	18	n/a	n/a	n/a	n/a
3037.056	n/a	DISTRACTOR	1518528	n/a	LTP318	ltpFR2	4	13	n/a	n/a	n/a	n/a	0	0	0
3037.066	n/a	PROB	1518533	n/a	LTP318	ltpFR2	4	n/a	n/a	n/a	18	9	7	1	1
3038.642	n/a	PROB	1519321	n/a	LTP318	ltpFR2	4	n/a	n/a	n/a	18	14	6	5	3
3040.34	n/a	PROB	1520170	n/a	LTP318	ltpFR2	4	n/a	n/a	n/a	18	14	6	7	1
3045.28	n/a	PROB	1522640	n/a	LTP318	ltpFR2	4	n/a	n/a	n/a	18	16	4	3	9
3046.868	n/a	PROB	1523434	n/a	LTP318	ltpFR2	4	n/a	n/a	n/a	18	17	1	7	9
3048.666	n/a	PROB	1524333	n/a	LTP318	ltpFR2	4	n/a	n/a	n/a	18	18	9	2	7
3049.92	n/a	PROB	1524960	n/a	LTP318	ltpFR2	4	n/a	n/a	n/a	18	14	5	6	3
3052.352	n/a	PROB	1526176	n/a	LTP318	ltpFR2	4	n/a	n/a	n/a	18	12	2	5	5
3053.438	n/a	PROB	1526719	n/a	LTP318	ltpFR2	4	n/a	n/a	n/a	18	11	3	6	2
3055.47	n/a	PROB	1527735	n/a	LTP318	ltpFR2	4	n/a	n/a	n/a	18	14	8	3	3
3059.916	n/a	STOP	1529958	n/a	LTP318	ltpFR2	4	n/a	n/a	n/a	18	n/a	n/a	n/a	n/a
3061.794	n/a	REC_START	1530897	n/a	LTP318	ltpFR2	4	13	n/a	n/a	n/a	n/a	0	0	0
3064.896	n/a	REC_WORD	1532448	wordpools/wasnorm_wordpool_576.txt	LTP318	ltpFR2	4	13	BATHTUB	100	n/a	n/a	0	0	0
3065.818	n/a	REC_WORD	1532909	wordpools/wasnorm_wordpool_576.txt	LTP318	ltpFR2	4	13	FLASK	576	n/a	n/a	0	0	0
3066.718	n/a	REC_WORD	1533359	wordpools/wasnorm_wordpool_576.txt	LTP318	ltpFR2	4	13	CHAMPAGNE	278	n/a	n/a	0	0	0
3069.696	n/a	REC_WORD	1534848	wordpools/wasnorm_wordpool_576.txt	LTP318	ltpFR2	4	13	SEAGULL	1261	n/a	n/a	0	0	0
3071.818	n/a	REC_WORD	1535909	wordpools/wasnorm_wordpool_576.txt	LTP318	ltpFR2	4	13	HAWK	692	n/a	n/a	0	0	0
3076.032	n/a	REC_WORD	1538016	wordpools/wasnorm_wordpool_576.txt	LTP318	ltpFR2	4	13	QUEEN	1149	n/a	n/a	0	0	0
3076.926	n/a	REC_WORD	1538463	wordpools/wasnorm_wordpool_576.txt	LTP318	ltpFR2	4	13	EMPIRE	530	n/a	n/a	0	0	0
3078.938	n/a	REC_WORD	1539469	wordpools/wasnorm_wordpool_576.txt	LTP318	ltpFR2	4	13	REPORT	1184	n/a	n/a	0	0	0
3083.234	n/a	REC_WORD	1541617	wordpools/wasnorm_wordpool_576.txt	LTP318	ltpFR2	4	13	GUITAR	670	n/a	n/a	0	0	0
3086.576	n/a	REC_WORD	1543288	wordpools/wasnorm_wordpool_576.txt	LTP318	ltpFR2	4	13	FLUTE	585	n/a	n/a	0	0	0
3090.322	n/a	REC_WORD	1545161	wordpools/wasnorm_wordpool_576.txt	LTP318	ltpFR2	4	13	SCULPTURE	1258	n/a	n/a	0	0	0
3092.52	n/a	REC_WORD	1546260	wordpools/wasnorm_wordpool_576.txt	LTP318	ltpFR2	4	13	IDOL	733	n/a	n/a	0	0	0
3095.582	n/a	REC_WORD	1547791	wordpools/wasnorm_wordpool_576.txt	LTP318	ltpFR2	4	13	TRIBE	1505	n/a	n/a	0	0	0
3099.496	n/a	REC_WORD	1549748	wordpools/wasnorm_wordpool_576.txt	LTP318	ltpFR2	4	13	CAPTIVE	240	n/a	n/a	0	0	0
3104.8	n/a	REC_WORD	1552400	wordpools/wasnorm_wordpool_576.txt	LTP318	ltpFR2	4	13	PATROL	1027	n/a	n/a	0	0	0
3109.292	n/a	REC_WORD	1554646	wordpools/wasnorm_wordpool_576.txt	LTP318	ltpFR2	4	13	THIEF	1456	n/a	n/a	0	0	0
3114.902	n/a	REC_WORD	1557451	wordpools/wasnorm_wordpool_576.txt	LTP318	ltpFR2	4	13	TOURIST	1488	n/a	n/a	0	0	0
3115.762	n/a	REC_WORD	1557881	wordpools/wasnorm_wordpool_576.txt	LTP318	ltpFR2	4	13	SHELF	1280	n/a	n/a	0	0	0
3119.824	n/a	REC_WORD	1559912	wordpools/wasnorm_wordpool_576.txt	LTP318	ltpFR2	4	13	PREACHER	1119	n/a	n/a	0	0	0
3152.242	n/a	DISTRACTOR	1576121	n/a	LTP318	ltpFR2	4	14	n/a	n/a	n/a	n/a	0	0	0
3152.242	n/a	START	1576121	n/a	LTP318	ltpFR2	4	n/a	n/a	n/a	19	n/a	n/a	n/a	n/a
3152.256	n/a	PROB	1576128	n/a	LTP318	ltpFR2	4	n/a	n/a	n/a	19	15	4	5	6
3153.99	n/a	PROB	1576995	n/a	LTP318	ltpFR2	4	n/a	n/a	n/a	19	19	1	9	9
3155.542	n/a	PROB	1577771	n/a	LTP318	ltpFR2	4	n/a	n/a	n/a	19	21	9	6	6
3158.928	n/a	PROB	1579464	n/a	LTP318	ltpFR2	4	n/a	n/a	n/a	19	8	6	1	1
3160.094	n/a	PROB	1580047	n/a	LTP318	ltpFR2	4	n/a	n/a	n/a	19	10	7	1	2
3161.846	n/a	PROB	1580923	n/a	LTP318	ltpFR2	4	n/a	n/a	n/a	19	16	8	5	3
3163.98	n/a	PROB	1581990	n/a	LTP318	ltpFR2	4	n/a	n/a	n/a	19	9	3	4	2
3165.266	n/a	PROB	1582633	n/a	LTP318	ltpFR2	4	n/a	n/a	n/a	19	14	4	2	8
3167.318	n/a	PROB	1583659	n/a	LTP318	ltpFR2	4	n/a	n/a	n/a	19	14	2	4	8
3168.902	n/a	PROB	1584451	n/a	LTP318	ltpFR2	4	n/a	n/a	n/a	19	13	7	5	1
3170.704	n/a	PROB	1585352	n/a	LTP318	ltpFR2	4	n/a	n/a	n/a	19	17	9	2	6
3172.07	n/a	PROB	1586035	n/a	LTP318	ltpFR2	4	n/a	n/a	n/a	19	18	6	6	6
3173.438	n/a	PROB	1586719	n/a	LTP318	ltpFR2	4	n/a	n/a	n/a	19	14	4	8	2
3174.744	n/a	STOP	1587372	n/a	LTP318	ltpFR2	4	n/a	n/a	n/a	19	n/a	n/a	n/a	n/a
3177.16	n/a	WORD	1588580	wordpools/wasnorm_wordpool_576.txt	LTP318	ltpFR2	4	14	GYMNAST	675	n/a	n/a	0	0	0
3179.812	n/a	WORD	1589906	wordpools/wasnorm_wordpool_576.txt	LTP318	ltpFR2	4	14	LIGHTNING	820	n/a	n/a	0	0	0
3182.466	n/a	WORD	1591233	wordpools/wasnorm_wordpool_576.txt	LTP318	ltpFR2	4	14	SUMMIT	1405	n/a	n/a	0	0	0
3185.184	n/a	WORD	1592592	wordpools/wasnorm_wordpool_576.txt	LTP318	ltpFR2	4	14	PERMIT	1051	n/a	n/a	0	0	0
3187.852	n/a	WORD	1593926	wordpools/wasnorm_wordpool_576.txt	LTP318	ltpFR2	4	14	AUTHOR	61	n/a	n/a	0	0	0
3190.57	n/a	WORD	1595285	wordpools/wasnorm_wordpool_576.txt	LTP318	ltpFR2	4	14	JOURNAL	760	n/a	n/a	0	0	0
3193.24	n/a	WORD	1596620	wordpools/wasnorm_wordpool_576.txt	LTP318	ltpFR2	4	14	APPLE	33	n/a	n/a	0	0	0
3195.892	n/a	WORD	1597946	wordpools/wasnorm_wordpool_576.txt	LTP318	ltpFR2	4	14	SPACE	1345	n/a	n/a	0	0	0
3198.71	n/a	WORD	1599355	wordpools/wasnorm_wordpool_576.txt	LTP318	ltpFR2	4	14	DANDRUFF	439	n/a	n/a	0	0	0
3201.396	n/a	WORD	1600698	wordpools/wasnorm_wordpool_576.txt	LTP318	ltpFR2	4	14	JEANS	752	n/a	n/a	0	0	0
3203.998	n/a	WORD	1601999	wordpools/wasnorm_wordpool_576.txt	LTP318	ltpFR2	4	14	SHORTS	1293	n/a	n/a	0	0	0
3206.684	n/a	WORD	1603342	wordpools/wasnorm_wordpool_576.txt	LTP318	ltpFR2	4	14	BLACKBOARD	133	n/a	n/a	0	0	0
3209.172	n/a	WORD	1604586	wordpools/wasnorm_wordpool_576.txt	LTP318	ltpFR2	4	14	GANGSTER	620	n/a	n/a	0	0	0
3211.754	n/a	WORD	1605877	wordpools/wasnorm_wordpool_576.txt	LTP318	ltpFR2	4	14	OZONE	996	n/a	n/a	0	0	0
3214.276	n/a	WORD	1607138	wordpools/wasnorm_wordpool_576.txt	LTP318	ltpFR2	4	14	HONEY	713	n/a	n/a	0	0	0
3216.896	n/a	WORD	1608448	wordpools/wasnorm_wordpool_576.txt	LTP318	ltpFR2	4	14	BRACES	164	n/a	n/a	0	0	0
3219.398	n/a	WORD	1609699	wordpools/wasnorm_wordpool_576.txt	LTP318	ltpFR2	4	14	GHETTO	633	n/a	n/a	0	0	0
3222.18	n/a	WORD	1611090	wordpools/wasnorm_wordpool_576.txt	LTP318	ltpFR2	4	14	WAITER	1580	n/a	n/a	0	0	0
3224.916	n/a	WORD	1612458	wordpools/wasnorm_wordpool_576.txt	LTP318	ltpFR2	4	14	BANK	83	n/a	n/a	0	0	0
3227.366	n/a	WORD	1613683	wordpools/wasnorm_wordpool_576.txt	LTP318	ltpFR2	4	14	WORKER	1621	n/a	n/a	0	0	0
3229.984	n/a	WORD	1614992	wordpools/wasnorm_wordpool_576.txt	LTP318	ltpFR2	4	14	WHISKERS	1605	n/a	n/a	0	0	0
3232.454	n/a	WORD	1616227	wordpools/wasnorm_wordpool_576.txt	LTP318	ltpFR2	4	14	FRUIT	610	n/a	n/a	0	0	0
3235.156	n/a	WORD	1617578	wordpools/wasnorm_wordpool_576.txt	LTP318	ltpFR2	4	14	LABEL	790	n/a	n/a	0	0	0
3237.648	n/a	WORD	1618824	wordpools/wasnorm_wordpool_576.txt	LTP318	ltpFR2	4	14	STAR	1373	n/a	n/a	0	0	0
3239.26	n/a	START	1619630	n/a	LTP318	ltpFR2	4	n/a	n/a	n/a	20	n/a	n/a	n/a	n/a
3240.132	n/a	DISTRACTOR	1620066	n/a	LTP318	ltpFR2	4	14	n/a	n/a	n/a	n/a	0	0	0
3240.142	n/a	PROB	1620071	n/a	LTP318	ltpFR2	4	n/a	n/a	n/a	20	8	2	4	2
3241.916	n/a	PROB	1620958	n/a	LTP318	ltpFR2	4	n/a	n/a	n/a	20	14	9	1	4
3243.268	n/a	PROB	1621634	n/a	LTP318	ltpFR2	4	n/a	n/a	n/a	20	14	3	9	2
3244.8	n/a	PROB	1622400	n/a	LTP318	ltpFR2	4	n/a	n/a	n/a	20	20	8	4	8
3246.62	n/a	PROB	1623310	n/a	LTP318	ltpFR2	4	n/a	n/a	n/a	20	17	7	1	9
3248.072	n/a	PROB	1624036	n/a	LTP318	ltpFR2	4	n/a	n/a	n/a	20	16	6	5	5
3249.39	n/a	PROB	1624695	n/a	LTP318	ltpFR2	4	n/a	n/a	n/a	20	12	2	8	2
3250.658	n/a	PROB	1625329	n/a	LTP318	ltpFR2	4	n/a	n/a	n/a	20	14	3	2	9
3252.158	n/a	PROB	1626079	n/a	LTP318	ltpFR2	4	n/a	n/a	n/a	20	13	1	9	3
3253.324	n/a	PROB	1626662	n/a	LTP318	ltpFR2	4	n/a	n/a	n/a	20	27	9	9	9
3254.56	n/a	PROB	1627280	n/a	LTP318	ltpFR2	4	n/a	n/a	n/a	20	18	8	5	5
3255.81	n/a	PROB	1627905	n/a	LTP318	ltpFR2	4	n/a	n/a	n/a	20	18	8	3	7
3257.362	n/a	PROB	1628681	n/a	LTP318	ltpFR2	4	n/a	n/a	n/a	20	16	5	6	5
3258.912	n/a	PROB	1629456	n/a	LTP318	ltpFR2	4	n/a	n/a	n/a	20	18	7	6	5
3260.532	n/a	PROB	1630266	n/a	LTP318	ltpFR2	4	n/a	n/a	n/a	20	12	2	7	3
3262.002	n/a	STOP	1631001	n/a	LTP318	ltpFR2	4	n/a	n/a	n/a	20	n/a	n/a	n/a	n/a
3265.152	n/a	REC_START	1632576	n/a	LTP318	ltpFR2	4	14	n/a	n/a	n/a	n/a	0	0	0
3267.308	n/a	REC_WORD	1633654	wordpools/wasnorm_wordpool_576.txt	LTP318	ltpFR2	4	14	SUMMIT	1405	n/a	n/a	0	0	0
3268.3	n/a	REC_WORD	1634150	wordpools/wasnorm_wordpool_576.txt	LTP318	ltpFR2	4	14	LIGHTNING	820	n/a	n/a	0	0	0
3269.306	n/a	REC_WORD	1634653	wordpools/wasnorm_wordpool_576.txt	LTP318	ltpFR2	4	14	GYMNAST	675	n/a	n/a	0	0	0
3273.224	n/a	REC_WORD	1636612	wordpools/wasnorm_wordpool_576.txt	LTP318	ltpFR2	4	14	PERMIT	1051	n/a	n/a	0	0	0
3275.92	n/a	REC_WORD	1637960	wordpools/wasnorm_wordpool_576.txt	LTP318	ltpFR2	4	14	JOURNAL	760	n/a	n/a	0	0	0
3277.248	n/a	REC_WORD	1638624	wordpools/wasnorm_wordpool_576.txt	LTP318	ltpFR2	4	14	AUTHOR	61	n/a	n/a	0	0	0
3279.5	n/a	REC_WORD	1639750	wordpools/wasnorm_wordpool_576.txt	LTP318	ltpFR2	4	14	DANDRUFF	439	n/a	n/a	0	0	0
3280.454	n/a	REC_WORD	1640227	wordpools/wasnorm_wordpool_576.txt	LTP318	ltpFR2	4	14	SHORTS	1293	n/a	n/a	0	0	0
3281.69	n/a	REC_WORD	1640845	wordpools/wasnorm_wordpool_576.txt	LTP318	ltpFR2	4	14	JEANS	752	n/a	n/a	0	0	0
3286.41	n/a	REC_WORD	1643205	wordpools/wasnorm_wordpool_576.txt	LTP318	ltpFR2	4	14	STAR	1373	n/a	n/a	0	0	0
3292.716	n/a	REC_WORD	1646358	wordpools/wasnorm_wordpool_576.txt	LTP318	ltpFR2	4	14	GHETTO	633	n/a	n/a	0	0	0
3293.658	n/a	REC_WORD	1646829	wordpools/wasnorm_wordpool_576.txt	LTP318	ltpFR2	4	14	GANGSTER	620	n/a	n/a	0	0	0
3294.736	n/a	REC_WORD	1647368	wordpools/wasnorm_wordpool_576.txt	LTP318	ltpFR2	4	14	BLACKBOARD	133	n/a	n/a	0	0	0
3298.244	n/a	REC_WORD	1649122	wordpools/wasnorm_wordpool_576.txt	LTP318	ltpFR2	4	14	WORKER	1621	n/a	n/a	0	0	0
3299.238	n/a	REC_WORD	1649619	wordpools/wasnorm_wordpool_576.txt	LTP318	ltpFR2	4	14	BANK	83	n/a	n/a	0	0	0
3300.904	n/a	REC_WORD	1650452	wordpools/wasnorm_wordpool_576.txt	LTP318	ltpFR2	4	14	WAITER	1580	n/a	n/a	0	0	0
3305.186	n/a	REC_WORD	1652593	wordpools/wasnorm_wordpool_576.txt	LTP318	ltpFR2	4	14	APPLE	33	n/a	n/a	0	0	0
3305.806	n/a	REC_WORD	1652903	wordpools/wasnorm_wordpool_576.txt	LTP318	ltpFR2	4	14	FRUIT	610	n/a	n/a	0	0	0
3315.656	n/a	REC_WORD	1657828	wordpools/wasnorm_wordpool_576.txt	LTP318	ltpFR2	4	14	SPACE	1345	n/a	n/a	0	0	0
3355.6	n/a	DISTRACTOR	1677800	n/a	LTP318	ltpFR2	4	15	n/a	n/a	n/a	n/a	0	0	0
3355.6	n/a	START	1677800	n/a	LTP318	ltpFR2	4	n/a	n/a	n/a	21	n/a	n/a	n/a	n/a
3355.614	n/a	PROB	1677807	n/a	LTP318	ltpFR2	4	n/a	n/a	n/a	21	17	5	4	8
3357.898	n/a	PROB	1678949	n/a	LTP318	ltpFR2	4	n/a	n/a	n/a	21	20	9	7	4
3359.334	n/a	PROB	1679667	n/a	LTP318	ltpFR2	4	n/a	n/a	n/a	21	12	2	8	2
3360.554	n/a	PROB	1680277	n/a	LTP318	ltpFR2	4	n/a	n/a	n/a	21	16	3	5	8
3362.286	n/a	PROB	1681143	n/a	LTP318	ltpFR2	4	n/a	n/a	n/a	21	24	8	9	7
3365.24	n/a	PROB	1682620	n/a	LTP318	ltpFR2	4	n/a	n/a	n/a	21	9	4	4	1
3366.272	n/a	PROB	1683136	n/a	LTP318	ltpFR2	4	n/a	n/a	n/a	21	20	7	6	7
3368.074	n/a	PROB	1684037	n/a	LTP318	ltpFR2	4	n/a	n/a	n/a	21	20	4	7	9
3369.974	n/a	PROB	1684987	n/a	LTP318	ltpFR2	4	n/a	n/a	n/a	21	10	1	5	4
3371.492	n/a	PROB	1685746	n/a	LTP318	ltpFR2	4	n/a	n/a	n/a	21	11	5	4	2
3372.794	n/a	PROB	1686397	n/a	LTP318	ltpFR2	4	n/a	n/a	n/a	21	18	2	9	7
3374.678	n/a	PROB	1687339	n/a	LTP318	ltpFR2	4	n/a	n/a	n/a	21	16	5	3	8
3376.028	n/a	PROB	1688014	n/a	LTP318	ltpFR2	4	n/a	n/a	n/a	21	19	9	8	2
3377.764	n/a	PROB	1688882	n/a	LTP318	ltpFR2	4	n/a	n/a	n/a	21	13	6	1	6
3379.052	n/a	STOP	1689526	n/a	LTP318	ltpFR2	4	n/a	n/a	n/a	21	n/a	n/a	n/a	n/a
3380.67	n/a	WORD	1690335	wordpools/wasnorm_wordpool_576.txt	LTP318	ltpFR2	4	15	PADDING	999	n/a	n/a	0	0	0
3383.372	n/a	WORD	1691686	wordpools/wasnorm_wordpool_576.txt	LTP318	ltpFR2	4	15	VAGRANT	1544	n/a	n/a	0	0	0
3386.074	n/a	WORD	1693037	wordpools/wasnorm_wordpool_576.txt	LTP318	ltpFR2	4	15	ROD	1203	n/a	n/a	0	0	0
3388.596	n/a	WORD	1694298	wordpools/wasnorm_wordpool_576.txt	LTP318	ltpFR2	4	15	GARBAGE	622	n/a	n/a	0	0	0
3391.112	n/a	WORD	1695556	wordpools/wasnorm_wordpool_576.txt	LTP318	ltpFR2	4	15	TEACHER	1440	n/a	n/a	0	0	0
3393.882	n/a	WORD	1696941	wordpools/wasnorm_wordpool_576.txt	LTP318	ltpFR2	4	15	SPOON	1357	n/a	n/a	0	0	0
3396.384	n/a	WORD	1698192	wordpools/wasnorm_wordpool_576.txt	LTP318	ltpFR2	4	15	PATIENT	1024	n/a	n/a	0	0	0
3399.07	n/a	WORD	1699535	wordpools/wasnorm_wordpool_576.txt	LTP318	ltpFR2	4	15	DENTIST	447	n/a	n/a	0	0	0
3401.822	n/a	WORD	1700911	wordpools/wasnorm_wordpool_576.txt	LTP318	ltpFR2	4	15	ROCKET	1202	n/a	n/a	0	0	0
3404.458	n/a	WORD	1702229	wordpools/wasnorm_wordpool_576.txt	LTP318	ltpFR2	4	15	DUST	508	n/a	n/a	0	0	0
3407.158	n/a	WORD	1703579	wordpools/wasnorm_wordpool_576.txt	LTP318	ltpFR2	4	15	GROUND	666	n/a	n/a	0	0	0
3409.746	n/a	WORD	1704873	wordpools/wasnorm_wordpool_576.txt	LTP318	ltpFR2	4	15	SALAD	1224	n/a	n/a	0	0	0
3412.314	n/a	WORD	1706157	wordpools/wasnorm_wordpool_576.txt	LTP318	ltpFR2	4	15	SODA	1341	n/a	n/a	0	0	0
3414.932	n/a	WORD	1707466	wordpools/wasnorm_wordpool_576.txt	LTP318	ltpFR2	4	15	MATTRESS	879	n/a	n/a	0	0	0
3417.736	n/a	WORD	1708868	wordpools/wasnorm_wordpool_576.txt	LTP318	ltpFR2	4	15	CYCLONE	431	n/a	n/a	0	0	0
3420.22	n/a	WORD	1710110	wordpools/wasnorm_wordpool_576.txt	LTP318	ltpFR2	4	15	PADDLE	1000	n/a	n/a	0	0	0
3422.656	n/a	WORD	1711328	wordpools/wasnorm_wordpool_576.txt	LTP318	ltpFR2	4	15	GARDEN	623	n/a	n/a	0	0	0
3425.442	n/a	WORD	1712721	wordpools/wasnorm_wordpool_576.txt	LTP318	ltpFR2	4	15	TEMPLE	1448	n/a	n/a	0	0	0
3428.026	n/a	WORD	1714013	wordpools/wasnorm_wordpool_576.txt	LTP318	ltpFR2	4	15	PLASTER	1085	n/a	n/a	0	0	0
3430.528	n/a	WORD	1715264	wordpools/wasnorm_wordpool_576.txt	LTP318	ltpFR2	4	15	SNACK	1331	n/a	n/a	0	0	0
3433.282	n/a	WORD	1716641	wordpools/wasnorm_wordpool_576.txt	LTP318	ltpFR2	4	15	CAFE	216	n/a	n/a	0	0	0
3436.014	n/a	WORD	1718007	wordpools/wasnorm_wordpool_576.txt	LTP318	ltpFR2	4	15	SMOG	1330	n/a	n/a	0	0	0
3438.734	n/a	WORD	1719367	wordpools/wasnorm_wordpool_576.txt	LTP318	ltpFR2	4	15	PORTRAIT	1111	n/a	n/a	0	0	0
3441.486	n/a	WORD	1720743	wordpools/wasnorm_wordpool_576.txt	LTP318	ltpFR2	4	15	PUPIL	1143	n/a	n/a	0	0	0
3443.104	n/a	START	1721552	n/a	LTP318	ltpFR2	4	n/a	n/a	n/a	22	n/a	n/a	n/a	n/a
3443.928	n/a	DISTRACTOR	1721964	n/a	LTP318	ltpFR2	4	15	n/a	n/a	n/a	n/a	0	0	0
3443.938	n/a	PROB	1721969	n/a	LTP318	ltpFR2	4	n/a	n/a	n/a	22	12	1	6	5
3447.254	n/a	PROB	1723627	n/a	LTP318	ltpFR2	4	n/a	n/a	n/a	22	12	3	2	7
3448.776	n/a	PROB	1724388	n/a	LTP318	ltpFR2	4	n/a	n/a	n/a	22	12	4	7	1
3450.546	n/a	PROB	1725273	n/a	LTP318	ltpFR2	4	n/a	n/a	n/a	22	15	6	4	5
3451.792	n/a	PROB	1725896	n/a	LTP318	ltpFR2	4	n/a	n/a	n/a	22	13	4	6	3
3452.942	n/a	PROB	1726471	n/a	LTP318	ltpFR2	4	n/a	n/a	n/a	22	16	4	5	7
3454.848	n/a	PROB	1727424	n/a	LTP318	ltpFR2	4	n/a	n/a	n/a	22	15	1	9	5
3455.946	n/a	PROB	1727973	n/a	LTP318	ltpFR2	4	n/a	n/a	n/a	22	12	8	1	3
3457.314	n/a	PROB	1728657	n/a	LTP318	ltpFR2	4	n/a	n/a	n/a	22	18	4	8	6
3460.724	n/a	PROB	1730362	n/a	LTP318	ltpFR2	4	n/a	n/a	n/a	22	11	3	1	7
3462.218	n/a	PROB	1731109	n/a	LTP318	ltpFR2	4	n/a	n/a	n/a	22	13	5	5	3
3463.384	n/a	PROB	1731692	n/a	LTP318	ltpFR2	4	n/a	n/a	n/a	22	16	4	9	3
3464.82	n/a	PROB	1732410	n/a	LTP318	ltpFR2	4	n/a	n/a	n/a	22	14	8	5	1
3466.568	n/a	STOP	1733284	n/a	LTP318	ltpFR2	4	n/a	n/a	n/a	22	n/a	n/a	n/a	n/a
3468.856	n/a	REC_START	1734428	n/a	LTP318	ltpFR2	4	15	n/a	n/a	n/a	n/a	0	0	0
3472.15	n/a	REC_WORD	1736075	wordpools/wasnorm_wordpool_576.txt	LTP318	ltpFR2	4	15	PADDING	999	n/a	n/a	0	0	0
3473.17	n/a	REC_WORD	1736585	wordpools/wasnorm_wordpool_576.txt	LTP318	ltpFR2	4	15	VAGRANT	1544	n/a	n/a	0	0	0
3474.47	n/a	REC_WORD	1737235	wordpools/wasnorm_wordpool_576.txt	LTP318	ltpFR2	4	15	ROD	1203	n/a	n/a	0	0	0
3476.818	n/a	REC_WORD	1738409	wordpools/wasnorm_wordpool_576.txt	LTP318	ltpFR2	4	15	DUST	508	n/a	n/a	0	0	0
3477.788	n/a	REC_WORD	1738894	wordpools/wasnorm_wordpool_576.txt	LTP318	ltpFR2	4	15	GROUND	666	n/a	n/a	0	0	0
3480.026	n/a	REC_WORD	1740013	wordpools/wasnorm_wordpool_576.txt	LTP318	ltpFR2	4	15	TEACHER	1440	n/a	n/a	0	0	0
3485.164	n/a	REC_WORD	1742582	wordpools/wasnorm_wordpool_576.txt	LTP318	ltpFR2	4	15	ROCKET	1202	n/a	n/a	0	0	0
3493.286	n/a	REC_WORD	1746643	wordpools/wasnorm_wordpool_576.txt	LTP318	ltpFR2	4	15	PLASTER	1085	n/a	n/a	0	0	0
3494.466	n/a	REC_WORD	1747233	wordpools/wasnorm_wordpool_576.txt	LTP318	ltpFR2	4	15	TEMPLE	1448	n/a	n/a	0	0	0
3495.428	n/a	REC_WORD	1747714	wordpools/wasnorm_wordpool_576.txt	LTP318	ltpFR2	4	15	GARDEN	623	n/a	n/a	0	0	0
3510.718	n/a	REC_WORD	1755359	wordpools/wasnorm_wordpool_576.txt	LTP318	ltpFR2	4	15	PUPIL	1143	n/a	n/a	0	0	0
3511.53	n/a	REC_WORD	1755765	wordpools/wasnorm_wordpool_576.txt	LTP318	ltpFR2	4	15	PORTRAIT	1111	n/a	n/a	0	0	0
3519.106	n/a	REC_WORD	1759553	wordpools/wasnorm_wordpool_576.txt	LTP318	ltpFR2	4	15	DENTIST	447	n/a	n/a	0	0	0
3519.966	n/a	REC_WORD	1759983	wordpools/wasnorm_wordpool_576.txt	LTP318	ltpFR2	4	15	PATIENT	1024	n/a	n/a	0	0	0
3520.76	n/a	REC_WORD	1760380	wordpools/wasnorm_wordpool_576.txt	LTP318	ltpFR2	4	15	SODA	1341	n/a	n/a	0	0	0
3521.632	n/a	REC_WORD	1760816	wordpools/wasnorm_wordpool_576.txt	LTP318	ltpFR2	4	15	SALAD	1224	n/a	n/a	0	0	0
3533.592	n/a	REC_WORD	1766796	wordpools/wasnorm_wordpool_576.txt	LTP318	ltpFR2	4	15	CAFE	216	n/a	n/a	0	0	0
3536.008	n/a	REC_WORD	1768004	wordpools/wasnorm_wordpool_576.txt	LTP318	ltpFR2	4	15	SNACK	1331	n/a	n/a	0	0	0
3559.29	n/a	WORD	1779645	wordpools/wasnorm_wordpool_576.txt	LTP318	ltpFR2	4	16	VELVET	1555	n/a	n/a	0	0	0
3562.01	n/a	WORD	1781005	wordpools/wasnorm_wordpool_576.txt	LTP318	ltpFR2	4	16	CARRIAGE	248	n/a	n/a	0	0	0
3564.714	n/a	WORD	1782357	wordpools/wasnorm_wordpool_576.txt	LTP318	ltpFR2	4	16	FILM	565	n/a	n/a	0	0	0
3567.27	n/a	WORD	1783635	wordpools/wasnorm_wordpool_576.txt	LTP318	ltpFR2	4	16	FRAME	600	n/a	n/a	0	0	0
3569.788	n/a	WORD	1784894	wordpools/wasnorm_wordpool_576.txt	LTP318	ltpFR2	4	16	CLIMBER	323	n/a	n/a	0	0	0
3572.42	n/a	WORD	1786210	wordpools/wasnorm_wordpool_576.txt	LTP318	ltpFR2	4	16	GIRL	637	n/a	n/a	0	0	0
3574.954	n/a	WORD	1787477	wordpools/wasnorm_wordpool_576.txt	LTP318	ltpFR2	4	16	QUAIL	1147	n/a	n/a	0	0	0
3577.64	n/a	WORD	1788820	wordpools/wasnorm_wordpool_576.txt	LTP318	ltpFR2	4	16	SPARROW	1347	n/a	n/a	0	0	0
3580.394	n/a	WORD	1790197	wordpools/wasnorm_wordpool_576.txt	LTP318	ltpFR2	4	16	DONKEY	484	n/a	n/a	0	0	0
3582.878	n/a	WORD	1791439	wordpools/wasnorm_wordpool_576.txt	LTP318	ltpFR2	4	16	SADDLE	1221	n/a	n/a	0	0	0
3585.58	n/a	WORD	1792790	wordpools/wasnorm_wordpool_576.txt	LTP318	ltpFR2	4	16	CARROT	249	n/a	n/a	0	0	0
3588.266	n/a	WORD	1794133	wordpools/wasnorm_wordpool_576.txt	LTP318	ltpFR2	4	16	WHISTLE	1606	n/a	n/a	0	0	0
3590.868	n/a	WORD	1795434	wordpools/wasnorm_wordpool_576.txt	LTP318	ltpFR2	4	16	VENUS	1557	n/a	n/a	0	0	0
3593.338	n/a	WORD	1796669	wordpools/wasnorm_wordpool_576.txt	LTP318	ltpFR2	4	16	MARROW	872	n/a	n/a	0	0	0
3596.006	n/a	WORD	1798003	wordpools/wasnorm_wordpool_576.txt	LTP318	ltpFR2	4	16	FRECKLE	602	n/a	n/a	0	0	0
3598.458	n/a	WORD	1799229	wordpools/wasnorm_wordpool_576.txt	LTP318	ltpFR2	4	16	LIPSTICK	829	n/a	n/a	0	0	0
3601.094	n/a	WORD	1800547	wordpools/wasnorm_wordpool_576.txt	LTP318	ltpFR2	4	16	COD	340	n/a	n/a	0	0	0
3603.746	n/a	WORD	1801873	wordpools/wasnorm_wordpool_576.txt	LTP318	ltpFR2	4	16	FLESH	579	n/a	n/a	0	0	0
3606.248	n/a	WORD	1803124	wordpools/wasnorm_wordpool_576.txt	LTP318	ltpFR2	4	16	KNAPSACK	783	n/a	n/a	0	0	0
3608.85	n/a	WORD	1804425	wordpools/wasnorm_wordpool_576.txt	LTP318	ltpFR2	4	16	DRAWING	494	n/a	n/a	0	0	0
3611.52	n/a	WORD	1805760	wordpools/wasnorm_wordpool_576.txt	LTP318	ltpFR2	4	16	BEAKER	104	n/a	n/a	0	0	0
3614.054	n/a	WORD	1807027	wordpools/wasnorm_wordpool_576.txt	LTP318	ltpFR2	4	16	DRUG	501	n/a	n/a	0	0	0
3616.856	n/a	WORD	1808428	wordpools/wasnorm_wordpool_576.txt	LTP318	ltpFR2	4	16	PICTURE	1061	n/a	n/a	0	0	0
3619.46	n/a	WORD	1809730	wordpools/wasnorm_wordpool_576.txt	LTP318	ltpFR2	4	16	HOOD	714	n/a	n/a	0	0	0
3621.076	n/a	START	1810538	n/a	LTP318	ltpFR2	4	n/a	n/a	n/a	23	n/a	n/a	n/a	n/a
3622.066	n/a	DISTRACTOR	1811033	n/a	LTP318	ltpFR2	4	16	n/a	n/a	n/a	n/a	0	0	0
3622.078	n/a	PROB	1811039	n/a	LTP318	ltpFR2	4	n/a	n/a	n/a	23	20	8	8	4
3623.86	n/a	PROB	1811930	n/a	LTP318	ltpFR2	4	n/a	n/a	n/a	23	18	5	9	4
3625.814	n/a	PROB	1812907	n/a	LTP318	ltpFR2	4	n/a	n/a	n/a	23	16	1	9	6
3627.13	n/a	PROB	1813565	n/a	LTP318	ltpFR2	4	n/a	n/a	n/a	23	14	1	6	7
3628.598	n/a	PROB	1814299	n/a	LTP318	ltpFR2	4	n/a	n/a	n/a	23	13	2	5	6
3630.6	n/a	PROB	1815300	n/a	LTP318	ltpFR2	4	n/a	n/a	n/a	23	19	5	5	9
3631.822	n/a	PROB	1815911	n/a	LTP318	ltpFR2	4	n/a	n/a	n/a	23	16	5	8	3
3633.802	n/a	PROB	1816901	n/a	LTP318	ltpFR2	4	n/a	n/a	n/a	23	16	2	9	5
3635.12	n/a	PROB	1817560	n/a	LTP318	ltpFR2	4	n/a	n/a	n/a	23	7	4	2	1
3636.776	n/a	PROB	1818388	n/a	LTP318	ltpFR2	4	n/a	n/a	n/a	23	9	2	3	4
3637.924	n/a	PROB	1818962	n/a	LTP318	ltpFR2	4	n/a	n/a	n/a	23	16	4	5	7
3639.344	n/a	PROB	1819672	n/a	LTP318	ltpFR2	4	n/a	n/a	n/a	23	11	3	5	3
3642.06	n/a	PROB	1821030	n/a	LTP318	ltpFR2	4	n/a	n/a	n/a	23	14	4	5	5
3643.31	n/a	PROB	1821655	n/a	LTP318	ltpFR2	4	n/a	n/a	n/a	23	16	4	9	3
3645.036	n/a	STOP	1822518	n/a	LTP318	ltpFR2	4	n/a	n/a	n/a	23	n/a	n/a	n/a	n/a
3646.852	n/a	REC_START	1823426	n/a	LTP318	ltpFR2	4	16	n/a	n/a	n/a	n/a	0	0	0
3650.498	n/a	REC_WORD	1825249	wordpools/wasnorm_wordpool_576.txt	LTP318	ltpFR2	4	16	CARRIAGE	248	n/a	n/a	0	0	0
3651.498	n/a	REC_WORD_VV	1825749	wordpools/wasnorm_wordpool_576.txt	LTP318	ltpFR2	4	16	<>	-1	n/a	n/a	0	0	0
3652.778	n/a	REC_WORD	1826389	wordpools/wasnorm_wordpool_576.txt	LTP318	ltpFR2	4	16	VELVET	1555	n/a	n/a	0	0	0
3656.382	n/a	REC_WORD	1828191	wordpools/wasnorm_wordpool_576.txt	LTP318	ltpFR2	4	16	FILM	565	n/a	n/a	0	0	0
3661.91	n/a	REC_WORD	1830955	wordpools/wasnorm_wordpool_576.txt	LTP318	ltpFR2	4	16	FRAME	600	n/a	n/a	0	0	0
3664.524	n/a	REC_WORD	1832262	wordpools/wasnorm_wordpool_576.txt	LTP318	ltpFR2	4	16	GIRL	637	n/a	n/a	0	0	0
3668.2	n/a	REC_WORD	1834100	wordpools/wasnorm_wordpool_576.txt	LTP318	ltpFR2	4	16	WHISTLE	1606	n/a	n/a	0	0	0
3670.948	n/a	REC_WORD	1835474	wordpools/wasnorm_wordpool_576.txt	LTP318	ltpFR2	4	16	FRECKLE	602	n/a	n/a	0	0	0
3672.022	n/a	REC_WORD	1836011	wordpools/wasnorm_wordpool_576.txt	LTP318	ltpFR2	4	16	LIPSTICK	829	n/a	n/a	0	0	0
3673.078	n/a	REC_WORD	1836539	wordpools/wasnorm_wordpool_576.txt	LTP318	ltpFR2	4	16	MARROW	872	n/a	n/a	0	0	0
3674.136	n/a	REC_WORD	1837068	wordpools/wasnorm_wordpool_576.txt	LTP318	ltpFR2	4	16	BEAKER	104	n/a	n/a	0	0	0
