onset	duration	trial_type	sample	stim_file	subject	experiment	session	trial	task	item_name	item_num	recog_resp	recog_conf	resp	answer	test_x	test_y	test_z	color_r	color_g	color_b	case	font
237.856	n/a	SESS_START	118928	n/a	LTP186	ltpFR	10	n/a	n/a	n/a	n/a	1	n/a	n/a	n/a	0	0	0	n/a	n/a	n/a	n/a	n/a
253.856	n/a	START	126928	n/a	LTP186	ltpFR	10	n/a	n/a	n/a	n/a	n/a	n/a	n/a	n/a	n/a	n/a	n/a	n/a	n/a	n/a	n/a	n/a
253.89	n/a	PROB	126945	n/a	LTP186	ltpFR	10	n/a	n/a	n/a	n/a	n/a	n/a	n/a	7	1	5	1	n/a	n/a	n/a	n/a	n/a
255.786	n/a	PROB	127893	n/a	LTP186	ltpFR	10	n/a	n/a	n/a	n/a	n/a	n/a	n/a	116	9	2	5	n/a	n/a	n/a	n/a	n/a
258.782	n/a	PROB	129391	n/a	LTP186	ltpFR	10	n/a	n/a	n/a	n/a	n/a	n/a	n/a	21	9	6	5	n/a	n/a	n/a	n/a	n/a
261.196	n/a	PROB	130598	n/a	LTP186	ltpFR	10	n/a	n/a	n/a	n/a	n/a	n/a	n/a	14	1	6	7	n/a	n/a	n/a	n/a	n/a
265.706	n/a	PROB	132853	n/a	LTP186	ltpFR	10	n/a	n/a	n/a	n/a	n/a	n/a	n/a	13	5	7	1	n/a	n/a	n/a	n/a	n/a
267.568	n/a	PROB	133784	n/a	LTP186	ltpFR	10	n/a	n/a	n/a	n/a	n/a	n/a	n/a	17	8	4	5	n/a	n/a	n/a	n/a	n/a
269.05	n/a	PROB	134525	n/a	LTP186	ltpFR	10	n/a	n/a	n/a	n/a	n/a	n/a	n/a	14	4	3	7	n/a	n/a	n/a	n/a	n/a
273.856	n/a	STOP	136928	n/a	LTP186	ltpFR	10	n/a	n/a	n/a	n/a	n/a	n/a	n/a	n/a	n/a	n/a	n/a	n/a	n/a	n/a	n/a	n/a
281.898	n/a	START	140949	n/a	LTP186	ltpFR	10	n/a	n/a	n/a	n/a	n/a	n/a	n/a	n/a	n/a	n/a	n/a	n/a	n/a	n/a	n/a	n/a
283.412	n/a	PROB	141706	n/a	LTP186	ltpFR	10	n/a	n/a	n/a	n/a	n/a	n/a	n/a	14	1	5	8	n/a	n/a	n/a	n/a	n/a
285.692	n/a	PROB	142846	n/a	LTP186	ltpFR	10	n/a	n/a	n/a	n/a	n/a	n/a	n/a	12	1	8	3	n/a	n/a	n/a	n/a	n/a
287.472	n/a	PROB	143736	n/a	LTP186	ltpFR	10	n/a	n/a	n/a	n/a	n/a	n/a	n/a	20	2	9	9	n/a	n/a	n/a	n/a	n/a
288.838	n/a	STOP	144419	n/a	LTP186	ltpFR	10	n/a	n/a	n/a	n/a	n/a	n/a	n/a	n/a	n/a	n/a	n/a	n/a	n/a	n/a	n/a	n/a
291.018	n/a	WORD	145509	wordpools/wasnorm_wordpool_less_exclusions.txt	LTP186	ltpFR	10	1	1	EAGLE	512	n/a	n/a	3	n/a	0	0	0	0.422607421875	0.5869140625	0	upper	amplitud.ttf
292.15	n/a	KEY_MSG	146075	n/a	LTP186	ltpFR	10	1	n/a	n/a	n/a	n/a	n/a	n/a	n/a	0	0	0	n/a	n/a	n/a	n/a	n/a
294.03	n/a	START	147015	n/a	LTP186	ltpFR	10	n/a	n/a	n/a	n/a	n/a	n/a	n/a	n/a	n/a	n/a	n/a	n/a	n/a	n/a	n/a	n/a
295.028	n/a	PROB	147514	n/a	LTP186	ltpFR	10	n/a	n/a	n/a	n/a	n/a	n/a	n/a	7	2	2	3	n/a	n/a	n/a	n/a	n/a
296.826	n/a	PROB	148413	n/a	LTP186	ltpFR	10	n/a	n/a	n/a	n/a	n/a	n/a	n/a	13	1	9	3	n/a	n/a	n/a	n/a	n/a
298.19	n/a	PROB	149095	n/a	LTP186	ltpFR	10	n/a	n/a	n/a	n/a	n/a	n/a	n/a	19	9	2	8	n/a	n/a	n/a	n/a	n/a
300.104	n/a	PROB	150052	n/a	LTP186	ltpFR	10	n/a	n/a	n/a	n/a	n/a	n/a	n/a	17	9	2	6	n/a	n/a	n/a	n/a	n/a
301.726	n/a	STOP	150863	n/a	LTP186	ltpFR	10	n/a	n/a	n/a	n/a	n/a	n/a	n/a	n/a	n/a	n/a	n/a	n/a	n/a	n/a	n/a	n/a
302.916	n/a	WORD	151458	wordpools/wasnorm_wordpool_less_exclusions.txt	LTP186	ltpFR	10	1	1	CROW	414	n/a	n/a	1	n/a	0	0	0	0.422607421875	0.5869140625	0	upper	amplitud.ttf
305.93	n/a	START	152965	n/a	LTP186	ltpFR	10	n/a	n/a	n/a	n/a	n/a	n/a	n/a	n/a	n/a	n/a	n/a	n/a	n/a	n/a	n/a	n/a
306.744	n/a	PROB	153372	n/a	LTP186	ltpFR	10	n/a	n/a	n/a	n/a	n/a	n/a	n/a	13	2	3	8	n/a	n/a	n/a	n/a	n/a
308.89	n/a	PROB	154445	n/a	LTP186	ltpFR	10	n/a	n/a	n/a	n/a	n/a	n/a	n/a	18	4	8	6	n/a	n/a	n/a	n/a	n/a
310.838	n/a	PROB	155419	n/a	LTP186	ltpFR	10	n/a	n/a	n/a	n/a	n/a	n/a	n/a	21	6	9	6	n/a	n/a	n/a	n/a	n/a
312.07	n/a	PROB	156035	n/a	LTP186	ltpFR	10	n/a	n/a	n/a	n/a	n/a	n/a	n/a	20	9	5	6	n/a	n/a	n/a	n/a	n/a
313.896	n/a	STOP	156948	n/a	LTP186	ltpFR	10	n/a	n/a	n/a	n/a	n/a	n/a	n/a	n/a	n/a	n/a	n/a	n/a	n/a	n/a	n/a	n/a
314.95	n/a	WORD	157475	wordpools/wasnorm_wordpool_less_exclusions.txt	LTP186	ltpFR	10	1	1	SPARROW	1347	n/a	n/a	1	n/a	0	0	0	0.422607421875	0.5869140625	0	upper	amplitud.ttf
317.962	n/a	START	158981	n/a	LTP186	ltpFR	10	n/a	n/a	n/a	n/a	n/a	n/a	n/a	n/a	n/a	n/a	n/a	n/a	n/a	n/a	n/a	n/a
318.926	n/a	PROB	159463	n/a	LTP186	ltpFR	10	n/a	n/a	n/a	n/a	n/a	n/a	n/a	14	4	1	9	n/a	n/a	n/a	n/a	n/a
321.422	n/a	PROB	160711	n/a	LTP186	ltpFR	10	n/a	n/a	n/a	n/a	n/a	n/a	n/a	22	9	9	4	n/a	n/a	n/a	n/a	n/a
323.254	n/a	PROB	161627	n/a	LTP186	ltpFR	10	n/a	n/a	n/a	n/a	n/a	n/a	n/a	19	8	8	3	n/a	n/a	n/a	n/a	n/a
324.744	n/a	STOP	162372	n/a	LTP186	ltpFR	10	n/a	n/a	n/a	n/a	n/a	n/a	n/a	n/a	n/a	n/a	n/a	n/a	n/a	n/a	n/a	n/a
326.914	n/a	WORD	163457	wordpools/wasnorm_wordpool_less_exclusions.txt	LTP186	ltpFR	10	1	1	SCREW	1254	n/a	n/a	0	n/a	0	0	0	0.422607421875	0.5869140625	0	upper	amplitud.ttf
329.928	n/a	START	164964	n/a	LTP186	ltpFR	10	n/a	n/a	n/a	n/a	n/a	n/a	n/a	n/a	n/a	n/a	n/a	n/a	n/a	n/a	n/a	n/a
331.076	n/a	PROB	165538	n/a	LTP186	ltpFR	10	n/a	n/a	n/a	n/a	n/a	n/a	n/a	13	6	5	4	n/a	n/a	n/a	n/a	n/a
333.904	n/a	PROB	166952	n/a	LTP186	ltpFR	10	n/a	n/a	n/a	n/a	n/a	n/a	n/a	20	7	4	9	n/a	n/a	n/a	n/a	n/a
337.928	n/a	STOP	168964	n/a	LTP186	ltpFR	10	n/a	n/a	n/a	n/a	n/a	n/a	n/a	n/a	n/a	n/a	n/a	n/a	n/a	n/a	n/a	n/a
338.996	n/a	WORD	169498	wordpools/wasnorm_wordpool_less_exclusions.txt	LTP186	ltpFR	10	1	1	HOSTESS	723	n/a	n/a	1	n/a	0	0	0	0.422607421875	0.5869140625	0	upper	amplitud.ttf
342.01	n/a	START	171005	n/a	LTP186	ltpFR	10	n/a	n/a	n/a	n/a	n/a	n/a	n/a	n/a	n/a	n/a	n/a	n/a	n/a	n/a	n/a	n/a
343.024	n/a	PROB	171512	n/a	LTP186	ltpFR	10	n/a	n/a	n/a	n/a	n/a	n/a	n/a	13	1	7	5	n/a	n/a	n/a	n/a	n/a
346.886	n/a	PROB	173443	n/a	LTP186	ltpFR	10	n/a	n/a	n/a	n/a	n/a	n/a	n/a	13	6	2	5	n/a	n/a	n/a	n/a	n/a
349.064	n/a	STOP	174532	n/a	LTP186	ltpFR	10	n/a	n/a	n/a	n/a	n/a	n/a	n/a	n/a	n/a	n/a	n/a	n/a	n/a	n/a	n/a	n/a
350.846	n/a	WORD	175423	wordpools/wasnorm_wordpool_less_exclusions.txt	LTP186	ltpFR	10	1	1	COOKBOOK	373	n/a	n/a	0	n/a	0	0	0	0.422607421875	0.5869140625	0	upper	amplitud.ttf
353.858	n/a	START	176929	n/a	LTP186	ltpFR	10	n/a	n/a	n/a	n/a	n/a	n/a	n/a	n/a	n/a	n/a	n/a	n/a	n/a	n/a	n/a	n/a
354.906	n/a	PROB	177453	n/a	LTP186	ltpFR	10	n/a	n/a	n/a	n/a	n/a	n/a	n/a	11	3	1	7	n/a	n/a	n/a	n/a	n/a
356.62	n/a	PROB	178310	n/a	LTP186	ltpFR	10	n/a	n/a	n/a	n/a	n/a	n/a	n/a	18	6	6	6	n/a	n/a	n/a	n/a	n/a
357.752	n/a	PROB	178876	n/a	LTP186	ltpFR	10	n/a	n/a	n/a	n/a	n/a	n/a	n/a	13	3	9	1	n/a	n/a	n/a	n/a	n/a
359.25	n/a	PROB	179625	n/a	LTP186	ltpFR	10	n/a	n/a	n/a	n/a	n/a	n/a	n/a	18	9	6	3	n/a	n/a	n/a	n/a	n/a
361.478	n/a	STOP	180739	n/a	LTP186	ltpFR	10	n/a	n/a	n/a	n/a	n/a	n/a	n/a	n/a	n/a	n/a	n/a	n/a	n/a	n/a	n/a	n/a
362.712	n/a	WORD	181356	wordpools/wasnorm_wordpool_less_exclusions.txt	LTP186	ltpFR	10	1	0	WARDROBE	1587	n/a	n/a	1	n/a	0	0	0	0.57763671875	0.412841796875	1	lower	zerothre.ttf
365.724	n/a	START	182862	n/a	LTP186	ltpFR	10	n/a	n/a	n/a	n/a	n/a	n/a	n/a	n/a	n/a	n/a	n/a	n/a	n/a	n/a	n/a	n/a
366.822	n/a	PROB	183411	n/a	LTP186	ltpFR	10	n/a	n/a	n/a	n/a	n/a	n/a	n/a	22	5	9	8	n/a	n/a	n/a	n/a	n/a
369.45	n/a	PROB	184725	n/a	LTP186	ltpFR	10	n/a	n/a	n/a	n/a	n/a	n/a	n/a	21	6	9	6	n/a	n/a	n/a	n/a	n/a
371.1	n/a	PROB	185550	n/a	LTP186	ltpFR	10	n/a	n/a	n/a	n/a	n/a	n/a	n/a	17	7	6	4	n/a	n/a	n/a	n/a	n/a
373.112	n/a	STOP	186556	n/a	LTP186	ltpFR	10	n/a	n/a	n/a	n/a	n/a	n/a	n/a	n/a	n/a	n/a	n/a	n/a	n/a	n/a	n/a	n/a
374.576	n/a	WORD	187288	wordpools/wasnorm_wordpool_less_exclusions.txt	LTP186	ltpFR	10	1	0	LUMBER	848	n/a	n/a	1	n/a	0	0	0	0.57763671875	0.412841796875	1	lower	zerothre.ttf
377.588	n/a	START	188794	n/a	LTP186	ltpFR	10	n/a	n/a	n/a	n/a	n/a	n/a	n/a	n/a	n/a	n/a	n/a	n/a	n/a	n/a	n/a	n/a
378.604	n/a	PROB	189302	n/a	LTP186	ltpFR	10	n/a	n/a	n/a	n/a	n/a	n/a	n/a	20	3	8	9	n/a	n/a	n/a	n/a	n/a
381.2	n/a	PROB	190600	n/a	LTP186	ltpFR	10	n/a	n/a	n/a	n/a	n/a	n/a	n/a	16	2	6	8	n/a	n/a	n/a	n/a	n/a
382.464	n/a	PROB	191232	n/a	LTP186	ltpFR	10	n/a	n/a	n/a	n/a	n/a	n/a	n/a	10	4	1	5	n/a	n/a	n/a	n/a	n/a
384.51	n/a	STOP	192255	n/a	LTP186	ltpFR	10	n/a	n/a	n/a	n/a	n/a	n/a	n/a	n/a	n/a	n/a	n/a	n/a	n/a	n/a	n/a	n/a
386.758	n/a	WORD	193379	wordpools/wasnorm_wordpool_less_exclusions.txt	LTP186	ltpFR	10	1	0	LEAF	808	n/a	n/a	0	n/a	0	0	0	0.57763671875	0.412841796875	1	lower	zerothre.ttf
389.772	n/a	START	194886	n/a	LTP186	ltpFR	10	n/a	n/a	n/a	n/a	n/a	n/a	n/a	n/a	n/a	n/a	n/a	n/a	n/a	n/a	n/a	n/a
390.97	n/a	PROB	195485	n/a	LTP186	ltpFR	10	n/a	n/a	n/a	n/a	n/a	n/a	n/a	17	8	5	4	n/a	n/a	n/a	n/a	n/a
394.248	n/a	PROB	197124	n/a	LTP186	ltpFR	10	n/a	n/a	n/a	n/a	n/a	n/a	n/a	9	4	3	2	n/a	n/a	n/a	n/a	n/a
397.772	n/a	STOP	198886	n/a	LTP186	ltpFR	10	n/a	n/a	n/a	n/a	n/a	n/a	n/a	n/a	n/a	n/a	n/a	n/a	n/a	n/a	n/a	n/a
398.926	n/a	WORD	199463	wordpools/wasnorm_wordpool_less_exclusions.txt	LTP186	ltpFR	10	1	1	BUTTON	207	n/a	n/a	0	n/a	0	0	0	0.422607421875	0.5869140625	0	upper	amplitud.ttf
401.938	n/a	START	200969	n/a	LTP186	ltpFR	10	n/a	n/a	n/a	n/a	n/a	n/a	n/a	n/a	n/a	n/a	n/a	n/a	n/a	n/a	n/a	n/a
403.118	n/a	PROB	201559	n/a	LTP186	ltpFR	10	n/a	n/a	n/a	n/a	n/a	n/a	n/a	12	6	3	3	n/a	n/a	n/a	n/a	n/a
407.03	n/a	PROB	203515	n/a	LTP186	ltpFR	10	n/a	n/a	n/a	n/a	n/a	n/a	n/a	12	7	2	3	n/a	n/a	n/a	n/a	n/a
409.184	n/a	STOP	204592	n/a	LTP186	ltpFR	10	n/a	n/a	n/a	n/a	n/a	n/a	n/a	n/a	n/a	n/a	n/a	n/a	n/a	n/a	n/a	n/a
411.008	n/a	WORD	205504	wordpools/wasnorm_wordpool_less_exclusions.txt	LTP186	ltpFR	10	1	1	BRANDY	169	n/a	n/a	0	n/a	0	0	0	0.422607421875	0.5869140625	0	upper	amplitud.ttf
414.02	n/a	START	207010	n/a	LTP186	ltpFR	10	n/a	n/a	n/a	n/a	n/a	n/a	n/a	n/a	n/a	n/a	n/a	n/a	n/a	n/a	n/a	n/a
414.984	n/a	PROB	207492	n/a	LTP186	ltpFR	10	n/a	n/a	n/a	n/a	n/a	n/a	n/a	16	2	7	7	n/a	n/a	n/a	n/a	n/a
422.02	n/a	STOP	211010	n/a	LTP186	ltpFR	10	n/a	n/a	n/a	n/a	n/a	n/a	n/a	n/a	n/a	n/a	n/a	n/a	n/a	n/a	n/a	n/a
423.172	n/a	WORD	211586	wordpools/wasnorm_wordpool_less_exclusions.txt	LTP186	ltpFR	10	1	0	FRIAR	605	n/a	n/a	1	n/a	0	0	0	0.57763671875	0.412841796875	1	lower	zerothre.ttf
426.184	n/a	START	213092	n/a	LTP186	ltpFR	10	n/a	n/a	n/a	n/a	n/a	n/a	n/a	n/a	n/a	n/a	n/a	n/a	n/a	n/a	n/a	n/a
427.382	n/a	PROB	213691	n/a	LTP186	ltpFR	10	n/a	n/a	n/a	n/a	n/a	n/a	n/a	14	3	3	8	n/a	n/a	n/a	n/a	n/a
430.728	n/a	PROB	215364	n/a	LTP186	ltpFR	10	n/a	n/a	n/a	n/a	n/a	n/a	n/a	16	1	8	7	n/a	n/a	n/a	n/a	n/a
432.242	n/a	PROB	216121	n/a	LTP186	ltpFR	10	n/a	n/a	n/a	n/a	n/a	n/a	n/a	15	1	5	9	n/a	n/a	n/a	n/a	n/a
433.888	n/a	STOP	216944	n/a	LTP186	ltpFR	10	n/a	n/a	n/a	n/a	n/a	n/a	n/a	n/a	n/a	n/a	n/a	n/a	n/a	n/a	n/a	n/a
435.304	n/a	WORD	217652	wordpools/wasnorm_wordpool_less_exclusions.txt	LTP186	ltpFR	10	1	0	STORE	1387	n/a	n/a	1	n/a	0	0	0	0.57763671875	0.412841796875	1	lower	zerothre.ttf
438.316	n/a	START	219158	n/a	LTP186	ltpFR	10	n/a	n/a	n/a	n/a	n/a	n/a	n/a	n/a	n/a	n/a	n/a	n/a	n/a	n/a	n/a	n/a
439.446	n/a	PROB	219723	n/a	LTP186	ltpFR	10	n/a	n/a	n/a	n/a	n/a	n/a	n/a	16	7	5	4	n/a	n/a	n/a	n/a	n/a
442.46	n/a	PROB	221230	n/a	LTP186	ltpFR	10	n/a	n/a	n/a	n/a	n/a	n/a	n/a	11	2	8	1	n/a	n/a	n/a	n/a	n/a
443.658	n/a	PROB	221829	n/a	LTP186	ltpFR	10	n/a	n/a	n/a	n/a	n/a	n/a	n/a	23	7	7	9	n/a	n/a	n/a	n/a	n/a
445.12	n/a	STOP	222560	n/a	LTP186	ltpFR	10	n/a	n/a	n/a	n/a	n/a	n/a	n/a	n/a	n/a	n/a	n/a	n/a	n/a	n/a	n/a	n/a
447.434	n/a	WORD	223717	wordpools/wasnorm_wordpool_less_exclusions.txt	LTP186	ltpFR	10	1	0	RACKET	1155	n/a	n/a	1	n/a	0	0	0	0.57763671875	0.412841796875	1	lower	zerothre.ttf
450.448	n/a	START	225224	n/a	LTP186	ltpFR	10	n/a	n/a	n/a	n/a	n/a	n/a	n/a	n/a	n/a	n/a	n/a	n/a	n/a	n/a	n/a	n/a
451.264	n/a	PROB	225632	n/a	LTP186	ltpFR	10	n/a	n/a	n/a	n/a	n/a	n/a	n/a	16	7	2	7	n/a	n/a	n/a	n/a	n/a
458.446	n/a	STOP	229223	n/a	LTP186	ltpFR	10	n/a	n/a	n/a	n/a	n/a	n/a	n/a	n/a	n/a	n/a	n/a	n/a	n/a	n/a	n/a	n/a
459.566	n/a	WORD	229783	wordpools/wasnorm_wordpool_less_exclusions.txt	LTP186	ltpFR	10	1	0	PELICAN	1039	n/a	n/a	1	n/a	0	0	0	0.57763671875	0.412841796875	1	lower	zerothre.ttf
462.58	n/a	START	231290	n/a	LTP186	ltpFR	10	n/a	n/a	n/a	n/a	n/a	n/a	n/a	n/a	n/a	n/a	n/a	n/a	n/a	n/a	n/a	n/a
463.646	n/a	PROB	231823	n/a	LTP186	ltpFR	10	n/a	n/a	n/a	n/a	n/a	n/a	n/a	16	2	8	6	n/a	n/a	n/a	n/a	n/a
466.226	n/a	PROB	233113	n/a	LTP186	ltpFR	10	n/a	n/a	n/a	n/a	n/a	n/a	n/a	11	4	6	1	n/a	n/a	n/a	n/a	n/a
467.556	n/a	PROB	233778	n/a	LTP186	ltpFR	10	n/a	n/a	n/a	n/a	n/a	n/a	n/a	8	2	1	5	n/a	n/a	n/a	n/a	n/a
468.806	n/a	PROB	234403	n/a	LTP186	ltpFR	10	n/a	n/a	n/a	n/a	n/a	n/a	n/a	27	9	9	9	n/a	n/a	n/a	n/a	n/a
470.17	n/a	STOP	235085	n/a	LTP186	ltpFR	10	n/a	n/a	n/a	n/a	n/a	n/a	n/a	n/a	n/a	n/a	n/a	n/a	n/a	n/a	n/a	n/a
471.768	n/a	WORD	235884	wordpools/wasnorm_wordpool_less_exclusions.txt	LTP186	ltpFR	10	1	0	SPONGE	1355	n/a	n/a	0	n/a	0	0	0	0.57763671875	0.412841796875	1	lower	zerothre.ttf
474.78	n/a	START	237390	n/a	LTP186	ltpFR	10	n/a	n/a	n/a	n/a	n/a	n/a	n/a	n/a	n/a	n/a	n/a	n/a	n/a	n/a	n/a	n/a
475.594	n/a	PROB	237797	n/a	LTP186	ltpFR	10	n/a	n/a	n/a	n/a	n/a	n/a	n/a	17	9	7	1	n/a	n/a	n/a	n/a	n/a
481.544	n/a	STOP	240772	n/a	LTP186	ltpFR	10	n/a	n/a	n/a	n/a	n/a	n/a	n/a	n/a	n/a	n/a	n/a	n/a	n/a	n/a	n/a	n/a
484.698	n/a	REC_START	242349	n/a	LTP186	ltpFR	10	1	n/a	n/a	n/a	n/a	n/a	n/a	n/a	0	0	0	n/a	n/a	n/a	n/a	n/a
488.922	n/a	REC_WORD	244461	wordpools/wasnorm_wordpool_less_exclusions.txt	LTP186	ltpFR	10	1	1	EAGLE	512	n/a	n/a	3	n/a	0	0	0	n/a	n/a	n/a	n/a	n/a
489.486	n/a	REC_WORD	244743	wordpools/wasnorm_wordpool_less_exclusions.txt	LTP186	ltpFR	10	1	1	SPARROW	1347	n/a	n/a	1	n/a	0	0	0	n/a	n/a	n/a	n/a	n/a
493.288	n/a	REC_WORD	246644	wordpools/wasnorm_wordpool_less_exclusions.txt	LTP186	ltpFR	10	1	1	BRANDY	169	n/a	n/a	0	n/a	0	0	0	n/a	n/a	n/a	n/a	n/a
494.042	n/a	REC_WORD	247021	wordpools/wasnorm_wordpool_less_exclusions.txt	LTP186	ltpFR	10	1	1	COOKBOOK	373	n/a	n/a	0	n/a	0	0	0	n/a	n/a	n/a	n/a	n/a
495.128	n/a	REC_WORD	247564	wordpools/wasnorm_wordpool_less_exclusions.txt	LTP186	ltpFR	10	1	1	SCREW	1254	n/a	n/a	0	n/a	0	0	0	n/a	n/a	n/a	n/a	n/a
498.256	n/a	REC_WORD	249128	wordpools/wasnorm_wordpool_less_exclusions.txt	LTP186	ltpFR	10	1	0	SPONGE	1355	n/a	n/a	0	n/a	0	0	0	n/a	n/a	n/a	n/a	n/a
500.78	n/a	REC_WORD	250390	wordpools/wasnorm_wordpool_less_exclusions.txt	LTP186	ltpFR	10	1	0	PELICAN	1039	n/a	n/a	1	n/a	0	0	0	n/a	n/a	n/a	n/a	n/a
510.614	n/a	REC_WORD	255307	wordpools/wasnorm_wordpool_less_exclusions.txt	LTP186	ltpFR	10	1	0	LUMBER	848	n/a	n/a	1	n/a	0	0	0	n/a	n/a	n/a	n/a	n/a
515.862	n/a	REC_WORD	257931	wordpools/wasnorm_wordpool_less_exclusions.txt	LTP186	ltpFR	10	1	1	HOSTESS	723	n/a	n/a	1	n/a	0	0	0	n/a	n/a	n/a	n/a	n/a
517.338	n/a	REC_WORD	258669	wordpools/wasnorm_wordpool_less_exclusions.txt	LTP186	ltpFR	10	1	0	FRIAR	605	n/a	n/a	1	n/a	0	0	0	n/a	n/a	n/a	n/a	n/a
527.23	n/a	REC_WORD	263615	wordpools/wasnorm_wordpool_less_exclusions.txt	LTP186	ltpFR	10	1	0	STORE	1387	n/a	n/a	1	n/a	0	0	0	n/a	n/a	n/a	n/a	n/a
558.75	n/a	REC_WORD	279375	wordpools/wasnorm_wordpool_less_exclusions.txt	LTP186	ltpFR	10	1	0	WARDROBE	1587	n/a	n/a	1	n/a	0	0	0	n/a	n/a	n/a	n/a	n/a
562.648	n/a	WORD	281324	wordpools/wasnorm_wordpool_less_exclusions.txt	LTP186	ltpFR	10	2	0	KEYBOARD	774	n/a	n/a	1	n/a	0	0	0	0.57763671875	0.412841796875	1	lower	zerothre.ttf
566.776	n/a	WORD	283388	wordpools/wasnorm_wordpool_less_exclusions.txt	LTP186	ltpFR	10	2	0	NEWSPAPER	948	n/a	n/a	0	n/a	0	0	0	0.57763671875	0.412841796875	1	lower	zerothre.ttf
570.936	n/a	WORD	285468	wordpools/wasnorm_wordpool_less_exclusions.txt	LTP186	ltpFR	10	2	0	BEARD	107	n/a	n/a	0	n/a	0	0	0	0.57763671875	0.412841796875	1	lower	zerothre.ttf
574.864	n/a	WORD	287432	wordpools/wasnorm_wordpool_less_exclusions.txt	LTP186	ltpFR	10	2	0	GRILL	661	n/a	n/a	1	n/a	0	0	0	0.57763671875	0.412841796875	1	lower	zerothre.ttf
578.942	n/a	WORD	289471	wordpools/wasnorm_wordpool_less_exclusions.txt	LTP186	ltpFR	10	2	0	BRACELET	163	n/a	n/a	0	n/a	0	0	0	0.57763671875	0.412841796875	1	lower	zerothre.ttf
582.986	n/a	WORD	291493	wordpools/wasnorm_wordpool_less_exclusions.txt	LTP186	ltpFR	10	2	0	APPENDAGE	32	n/a	n/a	1	n/a	0	0	0	0.57763671875	0.412841796875	1	lower	zerothre.ttf
587.162	n/a	WORD	293581	wordpools/wasnorm_wordpool_less_exclusions.txt	LTP186	ltpFR	10	2	0	HEAD	695	n/a	n/a	1	n/a	0	0	0	0.57763671875	0.412841796875	1	lower	zerothre.ttf
591.322	n/a	WORD	295661	wordpools/wasnorm_wordpool_less_exclusions.txt	LTP186	ltpFR	10	2	0	PUBLISHER	1137	n/a	n/a	1	n/a	0	0	0	0.57763671875	0.412841796875	1	lower	zerothre.ttf
595.4	n/a	WORD	297700	wordpools/wasnorm_wordpool_less_exclusions.txt	LTP186	ltpFR	10	2	0	CRATER	400	n/a	n/a	1	n/a	0	0	0	0.57763671875	0.412841796875	1	lower	zerothre.ttf
599.244	n/a	WORD	299622	wordpools/wasnorm_wordpool_less_exclusions.txt	LTP186	ltpFR	10	2	0	BANNER	85	n/a	n/a	1	n/a	0	0	0	0.57763671875	0.412841796875	1	lower	zerothre.ttf
603.272	n/a	WORD	301636	wordpools/wasnorm_wordpool_less_exclusions.txt	LTP186	ltpFR	10	2	0	POLE	1097	n/a	n/a	1	n/a	0	0	0	0.57763671875	0.412841796875	1	lower	zerothre.ttf
607.282	n/a	WORD	303641	wordpools/wasnorm_wordpool_less_exclusions.txt	LTP186	ltpFR	10	2	0	NOVEL	960	n/a	n/a	1	n/a	0	0	0	0.57763671875	0.412841796875	1	lower	zerothre.ttf
611.226	n/a	WORD	305613	wordpools/wasnorm_wordpool_less_exclusions.txt	LTP186	ltpFR	10	2	0	ASH	44	n/a	n/a	0	n/a	0	0	0	0.57763671875	0.412841796875	1	lower	zerothre.ttf
615.354	n/a	WORD	307677	wordpools/wasnorm_wordpool_less_exclusions.txt	LTP186	ltpFR	10	2	0	TORCH	1484	n/a	n/a	1	n/a	0	0	0	0.57763671875	0.412841796875	1	lower	zerothre.ttf
619.514	n/a	WORD	309757	wordpools/wasnorm_wordpool_less_exclusions.txt	LTP186	ltpFR	10	2	0	CLOUD	328	n/a	n/a	1	n/a	0	0	0	0.57763671875	0.412841796875	1	lower	zerothre.ttf
623.458	n/a	WORD	311729	wordpools/wasnorm_wordpool_less_exclusions.txt	LTP186	ltpFR	10	2	0	CANARY	227	n/a	n/a	0	n/a	0	0	0	0.57763671875	0.412841796875	1	lower	zerothre.ttf
626.47	n/a	START	313235	n/a	LTP186	ltpFR	10	n/a	n/a	n/a	n/a	n/a	n/a	n/a	n/a	n/a	n/a	n/a	n/a	n/a	n/a	n/a	n/a
627.354	n/a	PROB	313677	n/a	LTP186	ltpFR	10	n/a	n/a	n/a	n/a	n/a	n/a	n/a	14	6	1	7	n/a	n/a	n/a	n/a	n/a
629.5	n/a	PROB	314750	n/a	LTP186	ltpFR	10	n/a	n/a	n/a	n/a	n/a	n/a	n/a	22	6	7	9	n/a	n/a	n/a	n/a	n/a
631.646	n/a	PROB	315823	n/a	LTP186	ltpFR	10	n/a	n/a	n/a	n/a	n/a	n/a	n/a	12	5	5	2	n/a	n/a	n/a	n/a	n/a
632.728	n/a	PROB	316364	n/a	LTP186	ltpFR	10	n/a	n/a	n/a	n/a	n/a	n/a	n/a	6	3	1	2	n/a	n/a	n/a	n/a	n/a
633.796	n/a	STOP	316898	n/a	LTP186	ltpFR	10	n/a	n/a	n/a	n/a	n/a	n/a	n/a	n/a	n/a	n/a	n/a	n/a	n/a	n/a	n/a	n/a
636.274	n/a	REC_START	318137	n/a	LTP186	ltpFR	10	2	n/a	n/a	n/a	n/a	n/a	n/a	n/a	0	0	0	n/a	n/a	n/a	n/a	n/a
637.342	n/a	REC_WORD	318671	wordpools/wasnorm_wordpool_less_exclusions.txt	LTP186	ltpFR	10	2	0	CANARY	227	n/a	n/a	0	n/a	0	0	0	n/a	n/a	n/a	n/a	n/a
638.15	n/a	REC_WORD	319075	wordpools/wasnorm_wordpool_less_exclusions.txt	LTP186	ltpFR	10	2	0	GRILL	661	n/a	n/a	1	n/a	0	0	0	n/a	n/a	n/a	n/a	n/a
638.628	n/a	REC_WORD	319314	wordpools/wasnorm_wordpool_less_exclusions.txt	LTP186	ltpFR	10	2	0	HEAD	695	n/a	n/a	1	n/a	0	0	0	n/a	n/a	n/a	n/a	n/a
639.282	n/a	REC_WORD	319641	wordpools/wasnorm_wordpool_less_exclusions.txt	LTP186	ltpFR	10	2	0	PUBLISHER	1137	n/a	n/a	1	n/a	0	0	0	n/a	n/a	n/a	n/a	n/a
640.274	n/a	REC_WORD	320137	wordpools/wasnorm_wordpool_less_exclusions.txt	LTP186	ltpFR	10	2	0	APPENDAGE	32	n/a	n/a	1	n/a	0	0	0	n/a	n/a	n/a	n/a	n/a
642.506	n/a	REC_WORD	321253	wordpools/wasnorm_wordpool_less_exclusions.txt	LTP186	ltpFR	10	2	0	NEWSPAPER	948	n/a	n/a	0	n/a	0	0	0	n/a	n/a	n/a	n/a	n/a
658.778	n/a	REC_WORD	329389	wordpools/wasnorm_wordpool_less_exclusions.txt	LTP186	ltpFR	10	2	0	CLOUD	328	n/a	n/a	1	n/a	0	0	0	n/a	n/a	n/a	n/a	n/a
669.28	n/a	REC_WORD	334640	wordpools/wasnorm_wordpool_less_exclusions.txt	LTP186	ltpFR	10	2	0	ASH	44	n/a	n/a	0	n/a	0	0	0	n/a	n/a	n/a	n/a	n/a
669.922	n/a	REC_WORD	334961	wordpools/wasnorm_wordpool_less_exclusions.txt	LTP186	ltpFR	10	2	0	TORCH	1484	n/a	n/a	1	n/a	0	0	0	n/a	n/a	n/a	n/a	n/a
721.714	n/a	WORD	360857	wordpools/wasnorm_wordpool_less_exclusions.txt	LTP186	ltpFR	10	3	1	CATCHER	258	n/a	n/a	1	n/a	0	0	0	0.422607421875	0.5869140625	0	upper	amplitud.ttf
725.79	n/a	WORD	362895	wordpools/wasnorm_wordpool_less_exclusions.txt	LTP186	ltpFR	10	3	1	OVEN	991	n/a	n/a	0	n/a	0	0	0	0.422607421875	0.5869140625	0	upper	amplitud.ttf
729.818	n/a	WORD	364909	wordpools/wasnorm_wordpool_less_exclusions.txt	LTP186	ltpFR	10	3	1	PALM	1007	n/a	n/a	0	n/a	0	0	0	0.422607421875	0.5869140625	0	upper	amplitud.ttf
733.712	n/a	WORD	366856	wordpools/wasnorm_wordpool_less_exclusions.txt	LTP186	ltpFR	10	3	1	THUMB	1462	n/a	n/a	0	n/a	0	0	0	0.422607421875	0.5869140625	0	upper	amplitud.ttf
737.588	n/a	WORD	368794	wordpools/wasnorm_wordpool_less_exclusions.txt	LTP186	ltpFR	10	3	1	COLONEL	348	n/a	n/a	1	n/a	0	0	0	0.422607421875	0.5869140625	0	upper	amplitud.ttf
741.6	n/a	WORD	370800	wordpools/wasnorm_wordpool_less_exclusions.txt	LTP186	ltpFR	10	3	1	CARAVAN	242	n/a	n/a	0	n/a	0	0	0	0.422607421875	0.5869140625	0	upper	amplitud.ttf
745.778	n/a	WORD	372889	wordpools/wasnorm_wordpool_less_exclusions.txt	LTP186	ltpFR	10	3	1	CANAL	226	n/a	n/a	0	n/a	0	0	0	0.422607421875	0.5869140625	0	upper	amplitud.ttf
749.954	n/a	WORD	374977	wordpools/wasnorm_wordpool_less_exclusions.txt	LTP186	ltpFR	10	3	1	UNIFORM	1539	n/a	n/a	0	n/a	0	0	0	0.422607421875	0.5869140625	0	upper	amplitud.ttf
754.132	n/a	WORD	377066	wordpools/wasnorm_wordpool_less_exclusions.txt	LTP186	ltpFR	10	3	1	PLATE	1086	n/a	n/a	0	n/a	0	0	0	0.422607421875	0.5869140625	0	upper	amplitud.ttf
758.092	n/a	WORD	379046	wordpools/wasnorm_wordpool_less_exclusions.txt	LTP186	ltpFR	10	3	1	CUPBOARD	425	n/a	n/a	0	n/a	0	0	0	0.422607421875	0.5869140625	0	upper	amplitud.ttf
762.07	n/a	WORD	381035	wordpools/wasnorm_wordpool_less_exclusions.txt	LTP186	ltpFR	10	3	1	BARK	87	n/a	n/a	0	n/a	0	0	0	0.422607421875	0.5869140625	0	upper	amplitud.ttf
766.198	n/a	WORD	383099	wordpools/wasnorm_wordpool_less_exclusions.txt	LTP186	ltpFR	10	3	1	BIKE	125	n/a	n/a	0	n/a	0	0	0	0.422607421875	0.5869140625	0	upper	amplitud.ttf
770.076	n/a	WORD	385038	wordpools/wasnorm_wordpool_less_exclusions.txt	LTP186	ltpFR	10	3	1	SWIMMER	1420	n/a	n/a	0	n/a	0	0	0	0.422607421875	0.5869140625	0	upper	amplitud.ttf
774.27	n/a	WORD	387135	wordpools/wasnorm_wordpool_less_exclusions.txt	LTP186	ltpFR	10	3	1	CALENDAR	221	n/a	n/a	0	n/a	0	0	0	0.422607421875	0.5869140625	0	upper	amplitud.ttf
778.214	n/a	WORD	389107	wordpools/wasnorm_wordpool_less_exclusions.txt	LTP186	ltpFR	10	3	1	WINGS	1614	n/a	n/a	0	n/a	0	0	0	0.422607421875	0.5869140625	0	upper	amplitud.ttf
782.39	n/a	WORD	391195	wordpools/wasnorm_wordpool_less_exclusions.txt	LTP186	ltpFR	10	3	1	CRICKET	408	n/a	n/a	0	n/a	0	0	0	0.422607421875	0.5869140625	0	upper	amplitud.ttf
785.402	n/a	START	392701	n/a	LTP186	ltpFR	10	n/a	n/a	n/a	n/a	n/a	n/a	n/a	n/a	n/a	n/a	n/a	n/a	n/a	n/a	n/a	n/a
786.45	n/a	PROB	393225	n/a	LTP186	ltpFR	10	n/a	n/a	n/a	n/a	n/a	n/a	n/a	15	6	3	6	n/a	n/a	n/a	n/a	n/a
789.78	n/a	PROB	394890	n/a	LTP186	ltpFR	10	n/a	n/a	n/a	n/a	n/a	n/a	n/a	15	8	2	5	n/a	n/a	n/a	n/a	n/a
791.012	n/a	PROB	395506	n/a	LTP186	ltpFR	10	n/a	n/a	n/a	n/a	n/a	n/a	n/a	14	3	8	6	n/a	n/a	n/a	n/a	n/a
792.392	n/a	PROB	396196	n/a	LTP186	ltpFR	10	n/a	n/a	n/a	n/a	n/a	n/a	n/a	9	4	1	4	n/a	n/a	n/a	n/a	n/a
794.888	n/a	PROB	397444	n/a	LTP186	ltpFR	10	n/a	n/a	n/a	n/a	n/a	n/a	n/a	19	6	8	5	n/a	n/a	n/a	n/a	n/a
796.468	n/a	PROB	398234	n/a	LTP186	ltpFR	10	n/a	n/a	n/a	n/a	n/a	n/a	n/a	11	5	2	4	n/a	n/a	n/a	n/a	n/a
797.684	n/a	PROB	398842	n/a	LTP186	ltpFR	10	n/a	n/a	n/a	n/a	n/a	n/a	n/a	14	2	7	5	n/a	n/a	n/a	n/a	n/a
799.166	n/a	PROB	399583	n/a	LTP186	ltpFR	10	n/a	n/a	n/a	n/a	n/a	n/a	n/a	14	3	8	3	n/a	n/a	n/a	n/a	n/a
801.086	n/a	STOP	400543	n/a	LTP186	ltpFR	10	n/a	n/a	n/a	n/a	n/a	n/a	n/a	n/a	n/a	n/a	n/a	n/a	n/a	n/a	n/a	n/a
803.226	n/a	REC_START	401613	n/a	LTP186	ltpFR	10	3	n/a	n/a	n/a	n/a	n/a	n/a	n/a	0	0	0	n/a	n/a	n/a	n/a	n/a
805.222	n/a	REC_WORD	402611	wordpools/wasnorm_wordpool_less_exclusions.txt	LTP186	ltpFR	10	3	1	CRICKET	408	n/a	n/a	0	n/a	0	0	0	n/a	n/a	n/a	n/a	n/a
806.11	n/a	REC_WORD	403055	wordpools/wasnorm_wordpool_less_exclusions.txt	LTP186	ltpFR	10	3	1	CATCHER	258	n/a	n/a	1	n/a	0	0	0	n/a	n/a	n/a	n/a	n/a
810.42	n/a	REC_WORD	405210	wordpools/wasnorm_wordpool_less_exclusions.txt	LTP186	ltpFR	10	3	1	PALM	1007	n/a	n/a	0	n/a	0	0	0	n/a	n/a	n/a	n/a	n/a
816.522	n/a	REC_WORD	408261	wordpools/wasnorm_wordpool_less_exclusions.txt	LTP186	ltpFR	10	3	1	PLATE	1086	n/a	n/a	0	n/a	0	0	0	n/a	n/a	n/a	n/a	n/a
817.09	n/a	REC_WORD	408545	wordpools/wasnorm_wordpool_less_exclusions.txt	LTP186	ltpFR	10	3	1	UNIFORM	1539	n/a	n/a	0	n/a	0	0	0	n/a	n/a	n/a	n/a	n/a
818.298	n/a	REC_WORD	409149	wordpools/wasnorm_wordpool_less_exclusions.txt	LTP186	ltpFR	10	3	1	CUPBOARD	425	n/a	n/a	0	n/a	0	0	0	n/a	n/a	n/a	n/a	n/a
820.462	n/a	REC_WORD	410231	wordpools/wasnorm_wordpool_less_exclusions.txt	LTP186	ltpFR	10	3	1	WINGS	1614	n/a	n/a	0	n/a	0	0	0	n/a	n/a	n/a	n/a	n/a
826.518	n/a	REC_WORD	413259	wordpools/wasnorm_wordpool_less_exclusions.txt	LTP186	ltpFR	10	3	1	OVEN	991	n/a	n/a	0	n/a	0	0	0	n/a	n/a	n/a	n/a	n/a
842.558	n/a	REC_WORD	421279	wordpools/wasnorm_wordpool_less_exclusions.txt	LTP186	ltpFR	10	3	1	SWIMMER	1420	n/a	n/a	0	n/a	0	0	0	n/a	n/a	n/a	n/a	n/a
847.158	n/a	REC_WORD	423579	wordpools/wasnorm_wordpool_less_exclusions.txt	LTP186	ltpFR	10	3	1	BARK	87	n/a	n/a	0	n/a	0	0	0	n/a	n/a	n/a	n/a	n/a
851.392	n/a	REC_WORD	425696	wordpools/wasnorm_wordpool_less_exclusions.txt	LTP186	ltpFR	10	3	1	COLONEL	348	n/a	n/a	1	n/a	0	0	0	n/a	n/a	n/a	n/a	n/a
875.982	n/a	REC_WORD	437991	wordpools/wasnorm_wordpool_less_exclusions.txt	LTP186	ltpFR	10	3	1	THUMB	1462	n/a	n/a	0	n/a	0	0	0	n/a	n/a	n/a	n/a	n/a
895.006	n/a	WORD	447503	wordpools/wasnorm_wordpool_less_exclusions.txt	LTP186	ltpFR	10	4	0	CABINET	212	n/a	n/a	1	n/a	0	0	0	0.57763671875	0.412841796875	1	lower	zerothre.ttf
898.884	n/a	WORD	449442	wordpools/wasnorm_wordpool_less_exclusions.txt	LTP186	ltpFR	10	4	0	MONSTER	912	n/a	n/a	1	n/a	0	0	0	0.57763671875	0.412841796875	1	lower	zerothre.ttf
902.844	n/a	WORD	451422	wordpools/wasnorm_wordpool_less_exclusions.txt	LTP186	ltpFR	10	4	0	ZEBRA	1635	n/a	n/a	1	n/a	0	0	0	0.57763671875	0.412841796875	1	lower	zerothre.ttf
907.038	n/a	WORD	453519	wordpools/wasnorm_wordpool_less_exclusions.txt	LTP186	ltpFR	10	4	1	BRACES	164	n/a	n/a	0	n/a	0	0	0	0.422607421875	0.5869140625	0	upper	amplitud.ttf
911.032	n/a	WORD	455516	wordpools/wasnorm_wordpool_less_exclusions.txt	LTP186	ltpFR	10	4	1	SCOTCH	1251	n/a	n/a	0	n/a	0	0	0	0.422607421875	0.5869140625	0	upper	amplitud.ttf
914.944	n/a	WORD	457472	wordpools/wasnorm_wordpool_less_exclusions.txt	LTP186	ltpFR	10	4	1	DRUM	502	n/a	n/a	0	n/a	0	0	0	0.422607421875	0.5869140625	0	upper	amplitud.ttf
919.056	n/a	WORD	459528	wordpools/wasnorm_wordpool_less_exclusions.txt	LTP186	ltpFR	10	4	1	BANJO	82	n/a	n/a	0	n/a	0	0	0	0.422607421875	0.5869140625	0	upper	amplitud.ttf
923.198	n/a	WORD	461599	wordpools/wasnorm_wordpool_less_exclusions.txt	LTP186	ltpFR	10	4	1	TOAD	1470	n/a	n/a	1	n/a	0	0	0	0.422607421875	0.5869140625	0	upper	amplitud.ttf
927.342	n/a	WORD	463671	wordpools/wasnorm_wordpool_less_exclusions.txt	LTP186	ltpFR	10	4	1	EYE	545	n/a	n/a	0	n/a	0	0	0	0.422607421875	0.5869140625	0	upper	amplitud.ttf
931.17	n/a	WORD	465585	wordpools/wasnorm_wordpool_less_exclusions.txt	LTP186	ltpFR	10	4	0	SCARECROW	1245	n/a	n/a	1	n/a	0	0	0	0.57763671875	0.412841796875	1	lower	zerothre.ttf
935.148	n/a	WORD	467574	wordpools/wasnorm_wordpool_less_exclusions.txt	LTP186	ltpFR	10	4	0	COYOTE	396	n/a	n/a	1	n/a	0	0	0	0.57763671875	0.412841796875	1	lower	zerothre.ttf
939.308	n/a	WORD	469654	wordpools/wasnorm_wordpool_less_exclusions.txt	LTP186	ltpFR	10	4	0	FOX	598	n/a	n/a	1	n/a	0	0	0	0.57763671875	0.412841796875	1	lower	zerothre.ttf
943.368	n/a	WORD	471684	wordpools/wasnorm_wordpool_less_exclusions.txt	LTP186	ltpFR	10	4	0	DRILL	497	n/a	n/a	1	n/a	0	0	0	0.57763671875	0.412841796875	1	lower	zerothre.ttf
947.494	n/a	WORD	473747	wordpools/wasnorm_wordpool_less_exclusions.txt	LTP186	ltpFR	10	4	0	KITCHEN	778	n/a	n/a	1	n/a	0	0	0	0.57763671875	0.412841796875	1	lower	zerothre.ttf
951.688	n/a	WORD	475844	wordpools/wasnorm_wordpool_less_exclusions.txt	LTP186	ltpFR	10	4	1	DUMP	505	n/a	n/a	0	n/a	0	0	0	0.422607421875	0.5869140625	0	upper	amplitud.ttf
955.866	n/a	WORD	477933	wordpools/wasnorm_wordpool_less_exclusions.txt	LTP186	ltpFR	10	4	1	DRINK	498	n/a	n/a	0	n/a	0	0	0	0.422607421875	0.5869140625	0	upper	amplitud.ttf
958.88	n/a	START	479440	n/a	LTP186	ltpFR	10	n/a	n/a	n/a	n/a	n/a	n/a	n/a	n/a	n/a	n/a	n/a	n/a	n/a	n/a	n/a	n/a
959.76	n/a	PROB	479880	n/a	LTP186	ltpFR	10	n/a	n/a	n/a	n/a	n/a	n/a	n/a	19	8	6	5	n/a	n/a	n/a	n/a	n/a
962.672	n/a	PROB	481336	n/a	LTP186	ltpFR	10	n/a	n/a	n/a	n/a	n/a	n/a	n/a	17	9	7	1	n/a	n/a	n/a	n/a	n/a
964.552	n/a	PROB	482276	n/a	LTP186	ltpFR	10	n/a	n/a	n/a	n/a	n/a	n/a	n/a	13	7	4	2	n/a	n/a	n/a	n/a	n/a
966.296	n/a	STOP	483148	n/a	LTP186	ltpFR	10	n/a	n/a	n/a	n/a	n/a	n/a	n/a	n/a	n/a	n/a	n/a	n/a	n/a	n/a	n/a	n/a
968.714	n/a	REC_START	484357	n/a	LTP186	ltpFR	10	4	n/a	n/a	n/a	n/a	n/a	n/a	n/a	0	0	0	n/a	n/a	n/a	n/a	n/a
970.246	n/a	REC_WORD	485123	wordpools/wasnorm_wordpool_less_exclusions.txt	LTP186	ltpFR	10	4	1	DUMP	505	n/a	n/a	0	n/a	0	0	0	n/a	n/a	n/a	n/a	n/a
971.034	n/a	REC_WORD	485517	wordpools/wasnorm_wordpool_less_exclusions.txt	LTP186	ltpFR	10	4	1	TOAD	1470	n/a	n/a	1	n/a	0	0	0	n/a	n/a	n/a	n/a	n/a
972.016	n/a	REC_WORD	486008	wordpools/wasnorm_wordpool_less_exclusions.txt	LTP186	ltpFR	10	4	1	SCOTCH	1251	n/a	n/a	0	n/a	0	0	0	n/a	n/a	n/a	n/a	n/a
973.728	n/a	REC_WORD	486864	wordpools/wasnorm_wordpool_less_exclusions.txt	LTP186	ltpFR	10	4	0	CABINET	212	n/a	n/a	1	n/a	0	0	0	n/a	n/a	n/a	n/a	n/a
974.56	n/a	REC_WORD	487280	wordpools/wasnorm_wordpool_less_exclusions.txt	LTP186	ltpFR	10	4	0	DRILL	497	n/a	n/a	1	n/a	0	0	0	n/a	n/a	n/a	n/a	n/a
981.84	n/a	REC_WORD	490920	wordpools/wasnorm_wordpool_less_exclusions.txt	LTP186	ltpFR	10	4	0	MONSTER	912	n/a	n/a	1	n/a	0	0	0	n/a	n/a	n/a	n/a	n/a
985.626	n/a	REC_WORD	492813	wordpools/wasnorm_wordpool_less_exclusions.txt	LTP186	ltpFR	10	4	1	BRACES	164	n/a	n/a	0	n/a	0	0	0	n/a	n/a	n/a	n/a	n/a
986.504	n/a	REC_WORD	493252	wordpools/wasnorm_wordpool_less_exclusions.txt	LTP186	ltpFR	10	4	0	ZEBRA	1635	n/a	n/a	1	n/a	0	0	0	n/a	n/a	n/a	n/a	n/a
998.698	n/a	REC_WORD	499349	wordpools/wasnorm_wordpool_less_exclusions.txt	LTP186	ltpFR	10	4	0	COYOTE	396	n/a	n/a	1	n/a	0	0	0	n/a	n/a	n/a	n/a	n/a
1056.666	n/a	START	528333	n/a	LTP186	ltpFR	10	n/a	n/a	n/a	n/a	n/a	n/a	n/a	n/a	n/a	n/a	n/a	n/a	n/a	n/a	n/a	n/a
1058.182	n/a	PROB	529091	n/a	LTP186	ltpFR	10	n/a	n/a	n/a	n/a	n/a	n/a	n/a	15	5	5	5	n/a	n/a	n/a	n/a	n/a
1059.88	n/a	PROB	529940	n/a	LTP186	ltpFR	10	n/a	n/a	n/a	n/a	n/a	n/a	n/a	17	7	8	2	n/a	n/a	n/a	n/a	n/a
1061.558	n/a	PROB	530779	n/a	LTP186	ltpFR	10	n/a	n/a	n/a	n/a	n/a	n/a	n/a	16	8	4	4	n/a	n/a	n/a	n/a	n/a
1062.674	n/a	PROB	531337	n/a	LTP186	ltpFR	10	n/a	n/a	n/a	n/a	n/a	n/a	n/a	14	4	9	1	n/a	n/a	n/a	n/a	n/a
1063.79	n/a	PROB	531895	n/a	LTP186	ltpFR	10	n/a	n/a	n/a	n/a	n/a	n/a	n/a	12	8	2	2	n/a	n/a	n/a	n/a	n/a
1064.972	n/a	PROB	532486	n/a	LTP186	ltpFR	10	n/a	n/a	n/a	n/a	n/a	n/a	n/a	24	9	9	6	n/a	n/a	n/a	n/a	n/a
1066.468	n/a	PROB	533234	n/a	LTP186	ltpFR	10	n/a	n/a	n/a	n/a	n/a	n/a	n/a	17	9	4	4	n/a	n/a	n/a	n/a	n/a
1067.95	n/a	PROB	533975	n/a	LTP186	ltpFR	10	n/a	n/a	n/a	n/a	n/a	n/a	n/a	13	5	4	4	n/a	n/a	n/a	n/a	n/a
1069.216	n/a	PROB	534608	n/a	LTP186	ltpFR	10	n/a	n/a	n/a	n/a	n/a	n/a	n/a	22	5	9	8	n/a	n/a	n/a	n/a	n/a
1071.146	n/a	PROB	535573	n/a	LTP186	ltpFR	10	n/a	n/a	n/a	n/a	n/a	n/a	n/a	9	2	2	5	n/a	n/a	n/a	n/a	n/a
1072.242	n/a	STOP	536121	n/a	LTP186	ltpFR	10	n/a	n/a	n/a	n/a	n/a	n/a	n/a	n/a	n/a	n/a	n/a	n/a	n/a	n/a	n/a	n/a
1073.592	n/a	WORD	536796	wordpools/wasnorm_wordpool_less_exclusions.txt	LTP186	ltpFR	10	5	1	KITTEN	780	n/a	n/a	1	n/a	0	0	0	0.422607421875	0.5869140625	0	upper	amplitud.ttf
1076.604	n/a	START	538302	n/a	LTP186	ltpFR	10	n/a	n/a	n/a	n/a	n/a	n/a	n/a	n/a	n/a	n/a	n/a	n/a	n/a	n/a	n/a	n/a
1077.67	n/a	PROB	538835	n/a	LTP186	ltpFR	10	n/a	n/a	n/a	n/a	n/a	n/a	n/a	15	6	6	3	n/a	n/a	n/a	n/a	n/a
1079.268	n/a	PROB	539634	n/a	LTP186	ltpFR	10	n/a	n/a	n/a	n/a	n/a	n/a	n/a	19	3	7	9	n/a	n/a	n/a	n/a	n/a
1080.382	n/a	PROB	540191	n/a	LTP186	ltpFR	10	n/a	n/a	n/a	n/a	n/a	n/a	n/a	10	2	4	4	n/a	n/a	n/a	n/a	n/a
1081.798	n/a	PROB	540899	n/a	LTP186	ltpFR	10	n/a	n/a	n/a	n/a	n/a	n/a	n/a	14	3	4	7	n/a	n/a	n/a	n/a	n/a
1083.028	n/a	PROB	541514	n/a	LTP186	ltpFR	10	n/a	n/a	n/a	n/a	n/a	n/a	n/a	13	5	6	2	n/a	n/a	n/a	n/a	n/a
1084.078	n/a	PROB	542039	n/a	LTP186	ltpFR	10	n/a	n/a	n/a	n/a	n/a	n/a	n/a	13	3	8	2	n/a	n/a	n/a	n/a	n/a
1085.54	n/a	PROB	542770	n/a	LTP186	ltpFR	10	n/a	n/a	n/a	n/a	n/a	n/a	n/a	8	1	3	4	n/a	n/a	n/a	n/a	n/a
1086.59	n/a	PROB	543295	n/a	LTP186	ltpFR	10	n/a	n/a	n/a	n/a	n/a	n/a	n/a	10	4	4	2	n/a	n/a	n/a	n/a	n/a
1088.272	n/a	PROB	544136	n/a	LTP186	ltpFR	10	n/a	n/a	n/a	n/a	n/a	n/a	n/a	15	8	6	1	n/a	n/a	n/a	n/a	n/a
1089.434	n/a	PROB	544717	n/a	LTP186	ltpFR	10	n/a	n/a	n/a	n/a	n/a	n/a	n/a	22	6	4	9	n/a	n/a	n/a	n/a	n/a
1092.604	n/a	STOP	546302	n/a	LTP186	ltpFR	10	n/a	n/a	n/a	n/a	n/a	n/a	n/a	n/a	n/a	n/a	n/a	n/a	n/a	n/a	n/a	n/a
1093.78	n/a	WORD	546890	wordpools/wasnorm_wordpool_less_exclusions.txt	LTP186	ltpFR	10	5	1	CAT	257	n/a	n/a	1	n/a	0	0	0	0.422607421875	0.5869140625	0	upper	amplitud.ttf
1096.792	n/a	START	548396	n/a	LTP186	ltpFR	10	n/a	n/a	n/a	n/a	n/a	n/a	n/a	n/a	n/a	n/a	n/a	n/a	n/a	n/a	n/a	n/a
1097.84	n/a	PROB	548920	n/a	LTP186	ltpFR	10	n/a	n/a	n/a	n/a	n/a	n/a	n/a	22	8	6	8	n/a	n/a	n/a	n/a	n/a
1100.22	n/a	PROB	550110	n/a	LTP186	ltpFR	10	n/a	n/a	n/a	n/a	n/a	n/a	n/a	15	2	6	7	n/a	n/a	n/a	n/a	n/a
1101.768	n/a	PROB	550884	n/a	LTP186	ltpFR	10	n/a	n/a	n/a	n/a	n/a	n/a	n/a	9	3	3	3	n/a	n/a	n/a	n/a	n/a
1102.682	n/a	PROB	551341	n/a	LTP186	ltpFR	10	n/a	n/a	n/a	n/a	n/a	n/a	n/a	8	1	6	1	n/a	n/a	n/a	n/a	n/a
1103.58	n/a	PROB	551790	n/a	LTP186	ltpFR	10	n/a	n/a	n/a	n/a	n/a	n/a	n/a	13	7	3	3	n/a	n/a	n/a	n/a	n/a
1104.612	n/a	PROB	552306	n/a	LTP186	ltpFR	10	n/a	n/a	n/a	n/a	n/a	n/a	n/a	20	9	5	6	n/a	n/a	n/a	n/a	n/a
1106.012	n/a	PROB	553006	n/a	LTP186	ltpFR	10	n/a	n/a	n/a	n/a	n/a	n/a	n/a	13	5	5	3	n/a	n/a	n/a	n/a	n/a
1107.11	n/a	PROB	553555	n/a	LTP186	ltpFR	10	n/a	n/a	n/a	n/a	n/a	n/a	n/a	14	6	5	3	n/a	n/a	n/a	n/a	n/a
1108.59	n/a	PROB	554295	n/a	LTP186	ltpFR	10	n/a	n/a	n/a	n/a	n/a	n/a	n/a	15	4	7	4	n/a	n/a	n/a	n/a	n/a
1109.838	n/a	PROB	554919	n/a	LTP186	ltpFR	10	n/a	n/a	n/a	n/a	n/a	n/a	n/a	17	6	5	6	n/a	n/a	n/a	n/a	n/a
1111.306	n/a	STOP	555653	n/a	LTP186	ltpFR	10	n/a	n/a	n/a	n/a	n/a	n/a	n/a	n/a	n/a	n/a	n/a	n/a	n/a	n/a	n/a	n/a
1113.832	n/a	WORD	556916	wordpools/wasnorm_wordpool_less_exclusions.txt	LTP186	ltpFR	10	5	1	VEST	1559	n/a	n/a	0	n/a	0	0	0	0.422607421875	0.5869140625	0	upper	amplitud.ttf
1116.846	n/a	START	558423	n/a	LTP186	ltpFR	10	n/a	n/a	n/a	n/a	n/a	n/a	n/a	n/a	n/a	n/a	n/a	n/a	n/a	n/a	n/a	n/a
1117.976	n/a	PROB	558988	n/a	LTP186	ltpFR	10	n/a	n/a	n/a	n/a	n/a	n/a	n/a	4	2	1	1	n/a	n/a	n/a	n/a	n/a
1122.986	n/a	PROB	561493	n/a	LTP186	ltpFR	10	n/a	n/a	n/a	n/a	n/a	n/a	n/a	14	4	8	2	n/a	n/a	n/a	n/a	n/a
1124.516	n/a	PROB	562258	n/a	LTP186	ltpFR	10	n/a	n/a	n/a	n/a	n/a	n/a	n/a	11	2	7	2	n/a	n/a	n/a	n/a	n/a
1126.098	n/a	PROB	563049	n/a	LTP186	ltpFR	10	n/a	n/a	n/a	n/a	n/a	n/a	n/a	16	2	8	6	n/a	n/a	n/a	n/a	n/a
1127.212	n/a	PROB	563606	n/a	LTP186	ltpFR	10	n/a	n/a	n/a	n/a	n/a	n/a	n/a	19	7	7	5	n/a	n/a	n/a	n/a	n/a
1128.926	n/a	PROB	564463	n/a	LTP186	ltpFR	10	n/a	n/a	n/a	n/a	n/a	n/a	n/a	1	2	4	8	n/a	n/a	n/a	n/a	n/a
1130.44	n/a	PROB	565220	n/a	LTP186	ltpFR	10	n/a	n/a	n/a	n/a	n/a	n/a	n/a	11	3	3	5	n/a	n/a	n/a	n/a	n/a
1132.154	n/a	STOP	566077	n/a	LTP186	ltpFR	10	n/a	n/a	n/a	n/a	n/a	n/a	n/a	n/a	n/a	n/a	n/a	n/a	n/a	n/a	n/a	n/a
1133.87	n/a	WORD	566935	wordpools/wasnorm_wordpool_less_exclusions.txt	LTP186	ltpFR	10	5	1	BUREAU	199	n/a	n/a	0	n/a	0	0	0	0.422607421875	0.5869140625	0	upper	amplitud.ttf
1136.882	n/a	START	568441	n/a	LTP186	ltpFR	10	n/a	n/a	n/a	n/a	n/a	n/a	n/a	n/a	n/a	n/a	n/a	n/a	n/a	n/a	n/a	n/a
1137.98	n/a	PROB	568990	n/a	LTP186	ltpFR	10	n/a	n/a	n/a	n/a	n/a	n/a	n/a	7	1	2	4	n/a	n/a	n/a	n/a	n/a
1139.86	n/a	PROB	569930	n/a	LTP186	ltpFR	10	n/a	n/a	n/a	n/a	n/a	n/a	n/a	8	1	5	2	n/a	n/a	n/a	n/a	n/a
1141.308	n/a	PROB	570654	n/a	LTP186	ltpFR	10	n/a	n/a	n/a	n/a	n/a	n/a	n/a	17	5	9	3	n/a	n/a	n/a	n/a	n/a
1143.454	n/a	PROB	571727	n/a	LTP186	ltpFR	10	n/a	n/a	n/a	n/a	n/a	n/a	n/a	8	1	6	1	n/a	n/a	n/a	n/a	n/a
1144.32	n/a	PROB	572160	n/a	LTP186	ltpFR	10	n/a	n/a	n/a	n/a	n/a	n/a	n/a	20	9	6	5	n/a	n/a	n/a	n/a	n/a
1146.368	n/a	PROB	573184	n/a	LTP186	ltpFR	10	n/a	n/a	n/a	n/a	n/a	n/a	n/a	16	2	9	7	n/a	n/a	n/a	n/a	n/a
1147.532	n/a	PROB	573766	n/a	LTP186	ltpFR	10	n/a	n/a	n/a	n/a	n/a	n/a	n/a	19	6	9	4	n/a	n/a	n/a	n/a	n/a
1149.662	n/a	PROB	574831	n/a	LTP186	ltpFR	10	n/a	n/a	n/a	n/a	n/a	n/a	n/a	18	4	9	5	n/a	n/a	n/a	n/a	n/a
1151.994	n/a	STOP	575997	n/a	LTP186	ltpFR	10	n/a	n/a	n/a	n/a	n/a	n/a	n/a	n/a	n/a	n/a	n/a	n/a	n/a	n/a	n/a	n/a
1153.824	n/a	WORD	576912	wordpools/wasnorm_wordpool_less_exclusions.txt	LTP186	ltpFR	10	5	1	BRIEFCASE	175	n/a	n/a	0	n/a	0	0	0	0.422607421875	0.5869140625	0	upper	amplitud.ttf
1156.836	n/a	START	578418	n/a	LTP186	ltpFR	10	n/a	n/a	n/a	n/a	n/a	n/a	n/a	n/a	n/a	n/a	n/a	n/a	n/a	n/a	n/a	n/a
1157.984	n/a	PROB	578992	n/a	LTP186	ltpFR	10	n/a	n/a	n/a	n/a	n/a	n/a	n/a	11	2	4	5	n/a	n/a	n/a	n/a	n/a
1164.458	n/a	PROB	582229	n/a	LTP186	ltpFR	10	n/a	n/a	n/a	n/a	n/a	n/a	n/a	7	4	2	1	n/a	n/a	n/a	n/a	n/a
1167.82	n/a	PROB	583910	n/a	LTP186	ltpFR	10	n/a	n/a	n/a	n/a	n/a	n/a	n/a	11	2	5	4	n/a	n/a	n/a	n/a	n/a
1170.432	n/a	PROB	585216	n/a	LTP186	ltpFR	10	n/a	n/a	n/a	n/a	n/a	n/a	n/a	15	5	7	3	n/a	n/a	n/a	n/a	n/a
1172.218	n/a	STOP	586109	n/a	LTP186	ltpFR	10	n/a	n/a	n/a	n/a	n/a	n/a	n/a	n/a	n/a	n/a	n/a	n/a	n/a	n/a	n/a	n/a
1173.76	n/a	WORD	586880	wordpools/wasnorm_wordpool_less_exclusions.txt	LTP186	ltpFR	10	5	1	COLESLAW	344	n/a	n/a	0	n/a	0	0	0	0.422607421875	0.5869140625	0	upper	amplitud.ttf
1176.774	n/a	START	588387	n/a	LTP186	ltpFR	10	n/a	n/a	n/a	n/a	n/a	n/a	n/a	n/a	n/a	n/a	n/a	n/a	n/a	n/a	n/a	n/a
1177.604	n/a	PROB	588802	n/a	LTP186	ltpFR	10	n/a	n/a	n/a	n/a	n/a	n/a	n/a	17	9	5	3	n/a	n/a	n/a	n/a	n/a
1182.496	n/a	PROB	591248	n/a	LTP186	ltpFR	10	n/a	n/a	n/a	n/a	n/a	n/a	n/a	13	4	6	3	n/a	n/a	n/a	n/a	n/a
1184.078	n/a	PROB	592039	n/a	LTP186	ltpFR	10	n/a	n/a	n/a	n/a	n/a	n/a	n/a	20	6	6	8	n/a	n/a	n/a	n/a	n/a
1186.524	n/a	PROB	593262	n/a	LTP186	ltpFR	10	n/a	n/a	n/a	n/a	n/a	n/a	n/a	11	5	5	1	n/a	n/a	n/a	n/a	n/a
1192.774	n/a	STOP	596387	n/a	LTP186	ltpFR	10	n/a	n/a	n/a	n/a	n/a	n/a	n/a	n/a	n/a	n/a	n/a	n/a	n/a	n/a	n/a	n/a
1193.782	n/a	WORD	596891	wordpools/wasnorm_wordpool_less_exclusions.txt	LTP186	ltpFR	10	5	1	GROCERIES	663	n/a	n/a	0	n/a	0	0	0	0.422607421875	0.5869140625	0	upper	amplitud.ttf
1196.794	n/a	START	598397	n/a	LTP186	ltpFR	10	n/a	n/a	n/a	n/a	n/a	n/a	n/a	n/a	n/a	n/a	n/a	n/a	n/a	n/a	n/a	n/a
1197.992	n/a	PROB	598996	n/a	LTP186	ltpFR	10	n/a	n/a	n/a	n/a	n/a	n/a	n/a	15	7	7	1	n/a	n/a	n/a	n/a	n/a
1201.452	n/a	PROB	600726	n/a	LTP186	ltpFR	10	n/a	n/a	n/a	n/a	n/a	n/a	n/a	15	5	8	2	n/a	n/a	n/a	n/a	n/a
1204.198	n/a	PROB	602099	n/a	LTP186	ltpFR	10	n/a	n/a	n/a	n/a	n/a	n/a	n/a	17	2	6	9	n/a	n/a	n/a	n/a	n/a
1206.528	n/a	PROB	603264	n/a	LTP186	ltpFR	10	n/a	n/a	n/a	n/a	n/a	n/a	n/a	11	1	5	5	n/a	n/a	n/a	n/a	n/a
1207.76	n/a	PROB	603880	n/a	LTP186	ltpFR	10	n/a	n/a	n/a	n/a	n/a	n/a	n/a	19	5	7	7	n/a	n/a	n/a	n/a	n/a
1209.79	n/a	PROB	604895	n/a	LTP186	ltpFR	10	n/a	n/a	n/a	n/a	n/a	n/a	n/a	9	5	3	1	n/a	n/a	n/a	n/a	n/a
1210.822	n/a	PROB	605411	n/a	LTP186	ltpFR	10	n/a	n/a	n/a	n/a	n/a	n/a	n/a	17	9	1	7	n/a	n/a	n/a	n/a	n/a
1212.106	n/a	STOP	606053	n/a	LTP186	ltpFR	10	n/a	n/a	n/a	n/a	n/a	n/a	n/a	n/a	n/a	n/a	n/a	n/a	n/a	n/a	n/a	n/a
1213.634	n/a	WORD	606817	wordpools/wasnorm_wordpool_less_exclusions.txt	LTP186	ltpFR	10	5	1	KANGAROO	768	n/a	n/a	1	n/a	0	0	0	0.422607421875	0.5869140625	0	upper	amplitud.ttf
1216.646	n/a	START	608323	n/a	LTP186	ltpFR	10	n/a	n/a	n/a	n/a	n/a	n/a	n/a	n/a	n/a	n/a	n/a	n/a	n/a	n/a	n/a	n/a
1217.828	n/a	PROB	608914	n/a	LTP186	ltpFR	10	n/a	n/a	n/a	n/a	n/a	n/a	n/a	15	3	6	6	n/a	n/a	n/a	n/a	n/a
1221.706	n/a	PROB	610853	n/a	LTP186	ltpFR	10	n/a	n/a	n/a	n/a	n/a	n/a	n/a	17	7	7	3	n/a	n/a	n/a	n/a	n/a
1223.586	n/a	PROB	611793	n/a	LTP186	ltpFR	10	n/a	n/a	n/a	n/a	n/a	n/a	n/a	22	9	9	4	n/a	n/a	n/a	n/a	n/a
1225.168	n/a	PROB	612584	n/a	LTP186	ltpFR	10	n/a	n/a	n/a	n/a	n/a	n/a	n/a	3	1	1	1	n/a	n/a	n/a	n/a	n/a
1226.616	n/a	PROB	613308	n/a	LTP186	ltpFR	10	n/a	n/a	n/a	n/a	n/a	n/a	n/a	20	9	2	9	n/a	n/a	n/a	n/a	n/a
1232.648	n/a	STOP	616324	n/a	LTP186	ltpFR	10	n/a	n/a	n/a	n/a	n/a	n/a	n/a	n/a	n/a	n/a	n/a	n/a	n/a	n/a	n/a	n/a
1233.622	n/a	WORD	616811	wordpools/wasnorm_wordpool_less_exclusions.txt	LTP186	ltpFR	10	5	1	PILLOW	1069	n/a	n/a	0	n/a	0	0	0	0.422607421875	0.5869140625	0	upper	amplitud.ttf
1236.634	n/a	START	618317	n/a	LTP186	ltpFR	10	n/a	n/a	n/a	n/a	n/a	n/a	n/a	n/a	n/a	n/a	n/a	n/a	n/a	n/a	n/a	n/a
1237.532	n/a	PROB	618766	n/a	LTP186	ltpFR	10	n/a	n/a	n/a	n/a	n/a	n/a	n/a	18	8	8	2	n/a	n/a	n/a	n/a	n/a
1241.51	n/a	PROB	620755	n/a	LTP186	ltpFR	10	n/a	n/a	n/a	n/a	n/a	n/a	n/a	6	4	1	1	n/a	n/a	n/a	n/a	n/a
1242.508	n/a	PROB	621254	n/a	LTP186	ltpFR	10	n/a	n/a	n/a	n/a	n/a	n/a	n/a	17	7	2	8	n/a	n/a	n/a	n/a	n/a
1243.908	n/a	PROB	621954	n/a	LTP186	ltpFR	10	n/a	n/a	n/a	n/a	n/a	n/a	n/a	8	1	2	5	n/a	n/a	n/a	n/a	n/a
1245.038	n/a	PROB	622519	n/a	LTP186	ltpFR	10	n/a	n/a	n/a	n/a	n/a	n/a	n/a	13	3	6	4	n/a	n/a	n/a	n/a	n/a
1246.502	n/a	PROB	623251	n/a	LTP186	ltpFR	10	n/a	n/a	n/a	n/a	n/a	n/a	n/a	11	2	7	2	n/a	n/a	n/a	n/a	n/a
1247.934	n/a	PROB	623967	n/a	LTP186	ltpFR	10	n/a	n/a	n/a	n/a	n/a	n/a	n/a	11	1	4	6	n/a	n/a	n/a	n/a	n/a
1249.232	n/a	PROB	624616	n/a	LTP186	ltpFR	10	n/a	n/a	n/a	n/a	n/a	n/a	n/a	18	9	4	5	n/a	n/a	n/a	n/a	n/a
1250.63	n/a	PROB	625315	n/a	LTP186	ltpFR	10	n/a	n/a	n/a	n/a	n/a	n/a	n/a	12	3	6	3	n/a	n/a	n/a	n/a	n/a
1252.268	n/a	STOP	626134	n/a	LTP186	ltpFR	10	n/a	n/a	n/a	n/a	n/a	n/a	n/a	n/a	n/a	n/a	n/a	n/a	n/a	n/a	n/a	n/a
1253.592	n/a	WORD	626796	wordpools/wasnorm_wordpool_less_exclusions.txt	LTP186	ltpFR	10	5	1	PHOTO	1055	n/a	n/a	0	n/a	0	0	0	0.422607421875	0.5869140625	0	upper	amplitud.ttf
1256.604	n/a	START	628302	n/a	LTP186	ltpFR	10	n/a	n/a	n/a	n/a	n/a	n/a	n/a	n/a	n/a	n/a	n/a	n/a	n/a	n/a	n/a	n/a
1257.586	n/a	PROB	628793	n/a	LTP186	ltpFR	10	n/a	n/a	n/a	n/a	n/a	n/a	n/a	13	1	7	5	n/a	n/a	n/a	n/a	n/a
1263.41	n/a	PROB	631705	n/a	LTP186	ltpFR	10	n/a	n/a	n/a	n/a	n/a	n/a	n/a	21	8	8	5	n/a	n/a	n/a	n/a	n/a
1265.276	n/a	PROB	632638	n/a	LTP186	ltpFR	10	n/a	n/a	n/a	n/a	n/a	n/a	n/a	19	9	4	6	n/a	n/a	n/a	n/a	n/a
1267.388	n/a	PROB	633694	n/a	LTP186	ltpFR	10	n/a	n/a	n/a	n/a	n/a	n/a	n/a	16	7	1	8	n/a	n/a	n/a	n/a	n/a
1268.702	n/a	PROB	634351	n/a	LTP186	ltpFR	10	n/a	n/a	n/a	n/a	n/a	n/a	n/a	19	8	4	7	n/a	n/a	n/a	n/a	n/a
1272.604	n/a	STOP	636302	n/a	LTP186	ltpFR	10	n/a	n/a	n/a	n/a	n/a	n/a	n/a	n/a	n/a	n/a	n/a	n/a	n/a	n/a	n/a	n/a
1273.478	n/a	WORD	636739	wordpools/wasnorm_wordpool_less_exclusions.txt	LTP186	ltpFR	10	5	1	OTTER	986	n/a	n/a	1	n/a	0	0	0	0.422607421875	0.5869140625	0	upper	amplitud.ttf
1276.492	n/a	START	638246	n/a	LTP186	ltpFR	10	n/a	n/a	n/a	n/a	n/a	n/a	n/a	n/a	n/a	n/a	n/a	n/a	n/a	n/a	n/a	n/a
1277.308	n/a	PROB	638654	n/a	LTP186	ltpFR	10	n/a	n/a	n/a	n/a	n/a	n/a	n/a	19	8	3	8	n/a	n/a	n/a	n/a	n/a
1283.564	n/a	PROB	641782	n/a	LTP186	ltpFR	10	n/a	n/a	n/a	n/a	n/a	n/a	n/a	16	5	6	5	n/a	n/a	n/a	n/a	n/a
1284.696	n/a	PROB	642348	n/a	LTP186	ltpFR	10	n/a	n/a	n/a	n/a	n/a	n/a	n/a	17	4	8	5	n/a	n/a	n/a	n/a	n/a
1286.16	n/a	PROB	643080	n/a	LTP186	ltpFR	10	n/a	n/a	n/a	n/a	n/a	n/a	n/a	19	8	8	3	n/a	n/a	n/a	n/a	n/a
1287.742	n/a	PROB	643871	n/a	LTP186	ltpFR	10	n/a	n/a	n/a	n/a	n/a	n/a	n/a	9	4	3	2	n/a	n/a	n/a	n/a	n/a
1289.206	n/a	PROB	644603	n/a	LTP186	ltpFR	10	n/a	n/a	n/a	n/a	n/a	n/a	n/a	18	8	5	5	n/a	n/a	n/a	n/a	n/a
1292.492	n/a	STOP	646246	n/a	LTP186	ltpFR	10	n/a	n/a	n/a	n/a	n/a	n/a	n/a	n/a	n/a	n/a	n/a	n/a	n/a	n/a	n/a	n/a
1293.448	n/a	WORD	646724	wordpools/wasnorm_wordpool_less_exclusions.txt	LTP186	ltpFR	10	5	1	FEMALE	559	n/a	n/a	1	n/a	0	0	0	0.422607421875	0.5869140625	0	upper	amplitud.ttf
1296.462	n/a	START	648231	n/a	LTP186	ltpFR	10	n/a	n/a	n/a	n/a	n/a	n/a	n/a	n/a	n/a	n/a	n/a	n/a	n/a	n/a	n/a	n/a
1297.296	n/a	PROB	648648	n/a	LTP186	ltpFR	10	n/a	n/a	n/a	n/a	n/a	n/a	n/a	14	5	2	7	n/a	n/a	n/a	n/a	n/a
1301.256	n/a	PROB	650628	n/a	LTP186	ltpFR	10	n/a	n/a	n/a	n/a	n/a	n/a	n/a	15	7	3	5	n/a	n/a	n/a	n/a	n/a
1303.684	n/a	PROB	651842	n/a	LTP186	ltpFR	10	n/a	n/a	n/a	n/a	n/a	n/a	n/a	8	5	2	1	n/a	n/a	n/a	n/a	n/a
1306.298	n/a	PROB	653149	n/a	LTP186	ltpFR	10	n/a	n/a	n/a	n/a	n/a	n/a	n/a	16	4	3	9	n/a	n/a	n/a	n/a	n/a
1312.462	n/a	STOP	656231	n/a	LTP186	ltpFR	10	n/a	n/a	n/a	n/a	n/a	n/a	n/a	n/a	n/a	n/a	n/a	n/a	n/a	n/a	n/a	n/a
1313.436	n/a	WORD	656718	wordpools/wasnorm_wordpool_less_exclusions.txt	LTP186	ltpFR	10	5	1	PREACHER	1119	n/a	n/a	1	n/a	0	0	0	0.422607421875	0.5869140625	0	upper	amplitud.ttf
1316.45	n/a	START	658225	n/a	LTP186	ltpFR	10	n/a	n/a	n/a	n/a	n/a	n/a	n/a	n/a	n/a	n/a	n/a	n/a	n/a	n/a	n/a	n/a
1317.48	n/a	PROB	658740	n/a	LTP186	ltpFR	10	n/a	n/a	n/a	n/a	n/a	n/a	n/a	11	3	7	1	n/a	n/a	n/a	n/a	n/a
1324.072	n/a	PROB	662036	n/a	LTP186	ltpFR	10	n/a	n/a	n/a	n/a	n/a	n/a	n/a	17	8	1	8	n/a	n/a	n/a	n/a	n/a
1326.236	n/a	PROB	663118	n/a	LTP186	ltpFR	10	n/a	n/a	n/a	n/a	n/a	n/a	n/a	20	8	7	5	n/a	n/a	n/a	n/a	n/a
1332.45	n/a	STOP	666225	n/a	LTP186	ltpFR	10	n/a	n/a	n/a	n/a	n/a	n/a	n/a	n/a	n/a	n/a	n/a	n/a	n/a	n/a	n/a	n/a
1333.64	n/a	WORD	666820	wordpools/wasnorm_wordpool_less_exclusions.txt	LTP186	ltpFR	10	5	1	BUCKET	184	n/a	n/a	0	n/a	0	0	0	0.422607421875	0.5869140625	0	upper	amplitud.ttf
1336.652	n/a	START	668326	n/a	LTP186	ltpFR	10	n/a	n/a	n/a	n/a	n/a	n/a	n/a	n/a	n/a	n/a	n/a	n/a	n/a	n/a	n/a	n/a
1337.752	n/a	PROB	668876	n/a	LTP186	ltpFR	10	n/a	n/a	n/a	n/a	n/a	n/a	n/a	14	4	6	4	n/a	n/a	n/a	n/a	n/a
1340.512	n/a	PROB	670256	n/a	LTP186	ltpFR	10	n/a	n/a	n/a	n/a	n/a	n/a	n/a	14	3	8	3	n/a	n/a	n/a	n/a	n/a
1342.262	n/a	PROB	671131	n/a	LTP186	ltpFR	10	n/a	n/a	n/a	n/a	n/a	n/a	n/a	10	5	1	4	n/a	n/a	n/a	n/a	n/a
1343.558	n/a	PROB	671779	n/a	LTP186	ltpFR	10	n/a	n/a	n/a	n/a	n/a	n/a	n/a	18	7	2	9	n/a	n/a	n/a	n/a	n/a
1344.724	n/a	PROB	672362	n/a	LTP186	ltpFR	10	n/a	n/a	n/a	n/a	n/a	n/a	n/a	18	8	4	6	n/a	n/a	n/a	n/a	n/a
1346.138	n/a	PROB	673069	n/a	LTP186	ltpFR	10	n/a	n/a	n/a	n/a	n/a	n/a	n/a	10	2	6	2	n/a	n/a	n/a	n/a	n/a
1347.952	n/a	PROB	673976	n/a	LTP186	ltpFR	10	n/a	n/a	n/a	n/a	n/a	n/a	n/a	12	6	1	5	n/a	n/a	n/a	n/a	n/a
1349.866	n/a	PROB	674933	n/a	LTP186	ltpFR	10	n/a	n/a	n/a	n/a	n/a	n/a	n/a	14	7	6	1	n/a	n/a	n/a	n/a	n/a
1351.148	n/a	PROB	675574	n/a	LTP186	ltpFR	10	n/a	n/a	n/a	n/a	n/a	n/a	n/a	17	4	5	8	n/a	n/a	n/a	n/a	n/a
1352.332	n/a	STOP	676166	n/a	LTP186	ltpFR	10	n/a	n/a	n/a	n/a	n/a	n/a	n/a	n/a	n/a	n/a	n/a	n/a	n/a	n/a	n/a	n/a
1353.778	n/a	WORD	676889	wordpools/wasnorm_wordpool_less_exclusions.txt	LTP186	ltpFR	10	5	1	ALBUM	14	n/a	n/a	0	n/a	0	0	0	0.422607421875	0.5869140625	0	upper	amplitud.ttf
1356.79	n/a	START	678395	n/a	LTP186	ltpFR	10	n/a	n/a	n/a	n/a	n/a	n/a	n/a	n/a	n/a	n/a	n/a	n/a	n/a	n/a	n/a	n/a
1357.988	n/a	PROB	678994	n/a	LTP186	ltpFR	10	n/a	n/a	n/a	n/a	n/a	n/a	n/a	12	1	8	3	n/a	n/a	n/a	n/a	n/a
1364.046	n/a	PROB	682023	n/a	LTP186	ltpFR	10	n/a	n/a	n/a	n/a	n/a	n/a	n/a	18	8	1	9	n/a	n/a	n/a	n/a	n/a
1366.54	n/a	PROB	683270	n/a	LTP186	ltpFR	10	n/a	n/a	n/a	n/a	n/a	n/a	n/a	16	6	4	6	n/a	n/a	n/a	n/a	n/a
1367.89	n/a	PROB	683945	n/a	LTP186	ltpFR	10	n/a	n/a	n/a	n/a	n/a	n/a	n/a	13	4	7	2	n/a	n/a	n/a	n/a	n/a
1369.47	n/a	PROB	684735	n/a	LTP186	ltpFR	10	n/a	n/a	n/a	n/a	n/a	n/a	n/a	12	5	5	2	n/a	n/a	n/a	n/a	n/a
1370.684	n/a	PROB	685342	n/a	LTP186	ltpFR	10	n/a	n/a	n/a	n/a	n/a	n/a	n/a	7	1	3	3	n/a	n/a	n/a	n/a	n/a
1371.692	n/a	STOP	685846	n/a	LTP186	ltpFR	10	n/a	n/a	n/a	n/a	n/a	n/a	n/a	n/a	n/a	n/a	n/a	n/a	n/a	n/a	n/a	n/a
1373.898	n/a	WORD	686949	wordpools/wasnorm_wordpool_less_exclusions.txt	LTP186	ltpFR	10	5	1	NOTEBOOK	959	n/a	n/a	0	n/a	0	0	0	0.422607421875	0.5869140625	0	upper	amplitud.ttf
1376.91	n/a	START	688455	n/a	LTP186	ltpFR	10	n/a	n/a	n/a	n/a	n/a	n/a	n/a	n/a	n/a	n/a	n/a	n/a	n/a	n/a	n/a	n/a
1377.776	n/a	PROB	688888	n/a	LTP186	ltpFR	10	n/a	n/a	n/a	n/a	n/a	n/a	n/a	17	9	1	7	n/a	n/a	n/a	n/a	n/a
1381.57	n/a	PROB	690785	n/a	LTP186	ltpFR	10	n/a	n/a	n/a	n/a	n/a	n/a	n/a	18	6	6	6	n/a	n/a	n/a	n/a	n/a
1382.736	n/a	PROB	691368	n/a	LTP186	ltpFR	10	n/a	n/a	n/a	n/a	n/a	n/a	n/a	19	7	5	7	n/a	n/a	n/a	n/a	n/a
1384.414	n/a	PROB	692207	n/a	LTP186	ltpFR	10	n/a	n/a	n/a	n/a	n/a	n/a	n/a	14	1	9	4	n/a	n/a	n/a	n/a	n/a
1385.53	n/a	PROB	692765	n/a	LTP186	ltpFR	10	n/a	n/a	n/a	n/a	n/a	n/a	n/a	15	7	4	4	n/a	n/a	n/a	n/a	n/a
1386.73	n/a	PROB	693365	n/a	LTP186	ltpFR	10	n/a	n/a	n/a	n/a	n/a	n/a	n/a	16	2	7	7	n/a	n/a	n/a	n/a	n/a
1388.542	n/a	PROB	694271	n/a	LTP186	ltpFR	10	n/a	n/a	n/a	n/a	n/a	n/a	n/a	22	6	7	9	n/a	n/a	n/a	n/a	n/a
1392.91	n/a	STOP	696455	n/a	LTP186	ltpFR	10	n/a	n/a	n/a	n/a	n/a	n/a	n/a	n/a	n/a	n/a	n/a	n/a	n/a	n/a	n/a	n/a
1394.834	n/a	REC_START	697417	n/a	LTP186	ltpFR	10	5	n/a	n/a	n/a	n/a	n/a	n/a	n/a	0	0	0	n/a	n/a	n/a	n/a	n/a
1396.95	n/a	REC_WORD	698475	wordpools/wasnorm_wordpool_less_exclusions.txt	LTP186	ltpFR	10	5	1	NOTEBOOK	959	n/a	n/a	0	n/a	0	0	0	n/a	n/a	n/a	n/a	n/a
1398.022	n/a	REC_WORD	699011	wordpools/wasnorm_wordpool_less_exclusions.txt	LTP186	ltpFR	10	5	1	FEMALE	559	n/a	n/a	1	n/a	0	0	0	n/a	n/a	n/a	n/a	n/a
1399.014	n/a	REC_WORD	699507	wordpools/wasnorm_wordpool_less_exclusions.txt	LTP186	ltpFR	10	5	1	PREACHER	1119	n/a	n/a	1	n/a	0	0	0	n/a	n/a	n/a	n/a	n/a
1400.592	n/a	REC_WORD	700296	wordpools/wasnorm_wordpool_less_exclusions.txt	LTP186	ltpFR	10	5	1	PHOTO	1055	n/a	n/a	0	n/a	0	0	0	n/a	n/a	n/a	n/a	n/a
1417.158	n/a	REC_WORD	708579	wordpools/wasnorm_wordpool_less_exclusions.txt	LTP186	ltpFR	10	5	1	CAT	257	n/a	n/a	1	n/a	0	0	0	n/a	n/a	n/a	n/a	n/a
1417.862	n/a	REC_WORD	708931	wordpools/wasnorm_wordpool_less_exclusions.txt	LTP186	ltpFR	10	5	1	KITTEN	780	n/a	n/a	1	n/a	0	0	0	n/a	n/a	n/a	n/a	n/a
1418.98	n/a	REC_WORD	709490	wordpools/wasnorm_wordpool_less_exclusions.txt	LTP186	ltpFR	10	5	1	KANGAROO	768	n/a	n/a	1	n/a	0	0	0	n/a	n/a	n/a	n/a	n/a
1426.332	n/a	REC_WORD	713166	wordpools/wasnorm_wordpool_less_exclusions.txt	LTP186	ltpFR	10	5	1	ALBUM	14	n/a	n/a	0	n/a	0	0	0	n/a	n/a	n/a	n/a	n/a
1428.578	n/a	REC_WORD	714289	wordpools/wasnorm_wordpool_less_exclusions.txt	LTP186	ltpFR	10	5	1	COLESLAW	344	n/a	n/a	0	n/a	0	0	0	n/a	n/a	n/a	n/a	n/a
1430.644	n/a	REC_WORD	715322	wordpools/wasnorm_wordpool_less_exclusions.txt	LTP186	ltpFR	10	5	1	GROCERIES	663	n/a	n/a	0	n/a	0	0	0	n/a	n/a	n/a	n/a	n/a
1460.57	n/a	REC_WORD	730285	wordpools/wasnorm_wordpool_less_exclusions.txt	LTP186	ltpFR	10	5	1	OTTER	986	n/a	n/a	1	n/a	0	0	0	n/a	n/a	n/a	n/a	n/a
1476.562	n/a	WORD	738281	wordpools/wasnorm_wordpool_less_exclusions.txt	LTP186	ltpFR	10	6	1	LOBSTER	837	n/a	n/a	1	n/a	0	0	0	0.422607421875	0.5869140625	0	upper	amplitud.ttf
1480.522	n/a	WORD	740261	wordpools/wasnorm_wordpool_less_exclusions.txt	LTP186	ltpFR	10	6	1	OCTOPUS	971	n/a	n/a	1	n/a	0	0	0	0.422607421875	0.5869140625	0	upper	amplitud.ttf
1484.718	n/a	WORD	742359	wordpools/wasnorm_wordpool_less_exclusions.txt	LTP186	ltpFR	10	6	1	CHAPEL	280	n/a	n/a	0	n/a	0	0	0	0.422607421875	0.5869140625	0	upper	amplitud.ttf
1488.728	n/a	WORD	744364	wordpools/wasnorm_wordpool_less_exclusions.txt	LTP186	ltpFR	10	6	1	MAGAZINE	853	n/a	n/a	0	n/a	0	0	0	0.422607421875	0.5869140625	0	upper	amplitud.ttf
1492.738	n/a	WORD	746369	wordpools/wasnorm_wordpool_less_exclusions.txt	LTP186	ltpFR	10	6	1	FUR	615	n/a	n/a	0	n/a	0	0	0	0.422607421875	0.5869140625	0	upper	amplitud.ttf
1496.714	n/a	WORD	748357	wordpools/wasnorm_wordpool_less_exclusions.txt	LTP186	ltpFR	10	6	1	QUEEN	1149	n/a	n/a	1	n/a	0	0	0	0.422607421875	0.5869140625	0	upper	amplitud.ttf
1500.542	n/a	WORD	750271	wordpools/wasnorm_wordpool_less_exclusions.txt	LTP186	ltpFR	10	6	1	PALACE	1006	n/a	n/a	0	n/a	0	0	0	0.422607421875	0.5869140625	0	upper	amplitud.ttf
1504.554	n/a	WORD	752277	wordpools/wasnorm_wordpool_less_exclusions.txt	LTP186	ltpFR	10	6	1	JACKET	747	n/a	n/a	0	n/a	0	0	0	0.422607421875	0.5869140625	0	upper	amplitud.ttf
1508.48	n/a	WORD	754240	wordpools/wasnorm_wordpool_less_exclusions.txt	LTP186	ltpFR	10	6	1	ANIMAL	23	n/a	n/a	1	n/a	0	0	0	0.422607421875	0.5869140625	0	upper	amplitud.ttf
1512.558	n/a	WORD	756279	wordpools/wasnorm_wordpool_less_exclusions.txt	LTP186	ltpFR	10	6	1	PRINCE	1124	n/a	n/a	1	n/a	0	0	0	0.422607421875	0.5869140625	0	upper	amplitud.ttf
1516.636	n/a	WORD	758318	wordpools/wasnorm_wordpool_less_exclusions.txt	LTP186	ltpFR	10	6	1	WHIP	1604	n/a	n/a	0	n/a	0	0	0	0.422607421875	0.5869140625	0	upper	amplitud.ttf
1520.462	n/a	WORD	760231	wordpools/wasnorm_wordpool_less_exclusions.txt	LTP186	ltpFR	10	6	1	BELT	120	n/a	n/a	0	n/a	0	0	0	0.422607421875	0.5869140625	0	upper	amplitud.ttf
1524.342	n/a	WORD	762171	wordpools/wasnorm_wordpool_less_exclusions.txt	LTP186	ltpFR	10	6	1	KNOT	788	n/a	n/a	0	n/a	0	0	0	0.422607421875	0.5869140625	0	upper	amplitud.ttf
1528.27	n/a	WORD	764135	wordpools/wasnorm_wordpool_less_exclusions.txt	LTP186	ltpFR	10	6	1	CHURCH	307	n/a	n/a	0	n/a	0	0	0	0.422607421875	0.5869140625	0	upper	amplitud.ttf
1532.264	n/a	WORD	766132	wordpools/wasnorm_wordpool_less_exclusions.txt	LTP186	ltpFR	10	6	1	DOVE	491	n/a	n/a	1	n/a	0	0	0	0.422607421875	0.5869140625	0	upper	amplitud.ttf
1536.208	n/a	WORD	768104	wordpools/wasnorm_wordpool_less_exclusions.txt	LTP186	ltpFR	10	6	1	RELISH	1183	n/a	n/a	0	n/a	0	0	0	0.422607421875	0.5869140625	0	upper	amplitud.ttf
1542.034	n/a	REC_START	771017	n/a	LTP186	ltpFR	10	6	n/a	n/a	n/a	n/a	n/a	n/a	n/a	0	0	0	n/a	n/a	n/a	n/a	n/a
1543.076	n/a	REC_WORD	771538	wordpools/wasnorm_wordpool_less_exclusions.txt	LTP186	ltpFR	10	6	1	CHURCH	307	n/a	n/a	0	n/a	0	0	0	n/a	n/a	n/a	n/a	n/a
1543.59	n/a	REC_WORD	771795	wordpools/wasnorm_wordpool_less_exclusions.txt	LTP186	ltpFR	10	6	1	DOVE	491	n/a	n/a	1	n/a	0	0	0	n/a	n/a	n/a	n/a	n/a
1544.036	n/a	REC_WORD	772018	wordpools/wasnorm_wordpool_less_exclusions.txt	LTP186	ltpFR	10	6	1	RELISH	1183	n/a	n/a	0	n/a	0	0	0	n/a	n/a	n/a	n/a	n/a
1544.922	n/a	REC_WORD	772461	wordpools/wasnorm_wordpool_less_exclusions.txt	LTP186	ltpFR	10	6	1	CHAPEL	280	n/a	n/a	0	n/a	0	0	0	n/a	n/a	n/a	n/a	n/a
1548.204	n/a	REC_WORD	774102	wordpools/wasnorm_wordpool_less_exclusions.txt	LTP186	ltpFR	10	6	1	KNOT	788	n/a	n/a	0	n/a	0	0	0	n/a	n/a	n/a	n/a	n/a
1554.55	n/a	REC_WORD	777275	wordpools/wasnorm_wordpool_less_exclusions.txt	LTP186	ltpFR	10	6	1	WHIP	1604	n/a	n/a	0	n/a	0	0	0	n/a	n/a	n/a	n/a	n/a
1557.872	n/a	REC_WORD	778936	wordpools/wasnorm_wordpool_less_exclusions.txt	LTP186	ltpFR	10	6	1	QUEEN	1149	n/a	n/a	1	n/a	0	0	0	n/a	n/a	n/a	n/a	n/a
1558.47	n/a	REC_WORD	779235	wordpools/wasnorm_wordpool_less_exclusions.txt	LTP186	ltpFR	10	6	1	PRINCE	1124	n/a	n/a	1	n/a	0	0	0	n/a	n/a	n/a	n/a	n/a
1559.244	n/a	REC_WORD	779622	wordpools/wasnorm_wordpool_less_exclusions.txt	LTP186	ltpFR	10	6	1	PALACE	1006	n/a	n/a	0	n/a	0	0	0	n/a	n/a	n/a	n/a	n/a
1560.81	n/a	REC_WORD	780405	wordpools/wasnorm_wordpool_less_exclusions.txt	LTP186	ltpFR	10	6	1	LOBSTER	837	n/a	n/a	1	n/a	0	0	0	n/a	n/a	n/a	n/a	n/a
1575.536	n/a	REC_WORD	787768	wordpools/wasnorm_wordpool_less_exclusions.txt	LTP186	ltpFR	10	6	1	FUR	615	n/a	n/a	0	n/a	0	0	0	n/a	n/a	n/a	n/a	n/a
1578.506	n/a	REC_WORD	789253	wordpools/wasnorm_wordpool_less_exclusions.txt	LTP186	ltpFR	10	6	1	JACKET	747	n/a	n/a	0	n/a	0	0	0	n/a	n/a	n/a	n/a	n/a
1600.82	n/a	REC_WORD	800410	wordpools/wasnorm_wordpool_less_exclusions.txt	LTP186	ltpFR	10	6	n/a	CORD	379	n/a	n/a	n/a	n/a	0	0	0	n/a	n/a	n/a	n/a	n/a
1624.81	n/a	START	812405	n/a	LTP186	ltpFR	10	n/a	n/a	n/a	n/a	n/a	n/a	n/a	n/a	n/a	n/a	n/a	n/a	n/a	n/a	n/a	n/a
1626.324	n/a	PROB	813162	n/a	LTP186	ltpFR	10	n/a	n/a	n/a	n/a	n/a	n/a	n/a	13	8	4	1	n/a	n/a	n/a	n/a	n/a
1628.254	n/a	PROB	814127	n/a	LTP186	ltpFR	10	n/a	n/a	n/a	n/a	n/a	n/a	n/a	15	7	6	2	n/a	n/a	n/a	n/a	n/a
1630.052	n/a	PROB	815026	n/a	LTP186	ltpFR	10	n/a	n/a	n/a	n/a	n/a	n/a	n/a	12	8	3	1	n/a	n/a	n/a	n/a	n/a
1632.81	n/a	STOP	816405	n/a	LTP186	ltpFR	10	n/a	n/a	n/a	n/a	n/a	n/a	n/a	n/a	n/a	n/a	n/a	n/a	n/a	n/a	n/a	n/a
1634.012	n/a	WORD	817006	wordpools/wasnorm_wordpool_less_exclusions.txt	LTP186	ltpFR	10	7	0	REEF	1177	n/a	n/a	1	n/a	0	0	0	0.57763671875	0.412841796875	1	lower	zerothre.ttf
1637.026	n/a	START	818513	n/a	LTP186	ltpFR	10	n/a	n/a	n/a	n/a	n/a	n/a	n/a	n/a	n/a	n/a	n/a	n/a	n/a	n/a	n/a	n/a
1637.94	n/a	PROB	818970	n/a	LTP186	ltpFR	10	n/a	n/a	n/a	n/a	n/a	n/a	n/a	10	4	5	1	n/a	n/a	n/a	n/a	n/a
1640.32	n/a	PROB	820160	n/a	LTP186	ltpFR	10	n/a	n/a	n/a	n/a	n/a	n/a	n/a	17	6	3	8	n/a	n/a	n/a	n/a	n/a
1642.218	n/a	PROB	821109	n/a	LTP186	ltpFR	10	n/a	n/a	n/a	n/a	n/a	n/a	n/a	12	1	4	7	n/a	n/a	n/a	n/a	n/a
1643.448	n/a	PROB	821724	n/a	LTP186	ltpFR	10	n/a	n/a	n/a	n/a	n/a	n/a	n/a	14	6	5	3	n/a	n/a	n/a	n/a	n/a
1644.896	n/a	STOP	822448	n/a	LTP186	ltpFR	10	n/a	n/a	n/a	n/a	n/a	n/a	n/a	n/a	n/a	n/a	n/a	n/a	n/a	n/a	n/a	n/a
1646.194	n/a	WORD	823097	wordpools/wasnorm_wordpool_less_exclusions.txt	LTP186	ltpFR	10	7	0	JUPITER	765	n/a	n/a	1	n/a	0	0	0	0.57763671875	0.412841796875	1	lower	zerothre.ttf
1649.208	n/a	START	824604	n/a	LTP186	ltpFR	10	n/a	n/a	n/a	n/a	n/a	n/a	n/a	n/a	n/a	n/a	n/a	n/a	n/a	n/a	n/a	n/a
1657.208	n/a	STOP	828604	n/a	LTP186	ltpFR	10	n/a	n/a	n/a	n/a	n/a	n/a	n/a	n/a	n/a	n/a	n/a	n/a	n/a	n/a	n/a	n/a
1658.276	n/a	WORD	829138	wordpools/wasnorm_wordpool_less_exclusions.txt	LTP186	ltpFR	10	7	0	COBRA	336	n/a	n/a	0	n/a	0	0	0	0.57763671875	0.412841796875	1	lower	zerothre.ttf
1661.29	n/a	START	830645	n/a	LTP186	ltpFR	10	n/a	n/a	n/a	n/a	n/a	n/a	n/a	n/a	n/a	n/a	n/a	n/a	n/a	n/a	n/a	n/a
1662.288	n/a	PROB	831144	n/a	LTP186	ltpFR	10	n/a	n/a	n/a	n/a	n/a	n/a	n/a	14	2	9	3	n/a	n/a	n/a	n/a	n/a
1665.15	n/a	PROB	832575	n/a	LTP186	ltpFR	10	n/a	n/a	n/a	n/a	n/a	n/a	n/a	17	1	9	7	n/a	n/a	n/a	n/a	n/a
1669.29	n/a	STOP	834645	n/a	LTP186	ltpFR	10	n/a	n/a	n/a	n/a	n/a	n/a	n/a	n/a	n/a	n/a	n/a	n/a	n/a	n/a	n/a	n/a
1670.308	n/a	WORD	835154	wordpools/wasnorm_wordpool_less_exclusions.txt	LTP186	ltpFR	10	7	1	WORM	1623	n/a	n/a	1	n/a	0	0	0	0.422607421875	0.5869140625	0	upper	amplitud.ttf
1673.322	n/a	START	836661	n/a	LTP186	ltpFR	10	n/a	n/a	n/a	n/a	n/a	n/a	n/a	n/a	n/a	n/a	n/a	n/a	n/a	n/a	n/a	n/a
1674.252	n/a	PROB	837126	n/a	LTP186	ltpFR	10	n/a	n/a	n/a	n/a	n/a	n/a	n/a	16	2	7	7	n/a	n/a	n/a	n/a	n/a
1681.322	n/a	STOP	840661	n/a	LTP186	ltpFR	10	n/a	n/a	n/a	n/a	n/a	n/a	n/a	n/a	n/a	n/a	n/a	n/a	n/a	n/a	n/a	n/a
1682.308	n/a	WORD	841154	wordpools/wasnorm_wordpool_less_exclusions.txt	LTP186	ltpFR	10	7	1	FEAST	556	n/a	n/a	0	n/a	0	0	0	0.422607421875	0.5869140625	0	upper	amplitud.ttf
1685.322	n/a	START	842661	n/a	LTP186	ltpFR	10	n/a	n/a	n/a	n/a	n/a	n/a	n/a	n/a	n/a	n/a	n/a	n/a	n/a	n/a	n/a	n/a
1686.32	n/a	PROB	843160	n/a	LTP186	ltpFR	10	n/a	n/a	n/a	n/a	n/a	n/a	n/a	10	2	2	6	n/a	n/a	n/a	n/a	n/a
1693.32	n/a	STOP	846660	n/a	LTP186	ltpFR	10	n/a	n/a	n/a	n/a	n/a	n/a	n/a	n/a	n/a	n/a	n/a	n/a	n/a	n/a	n/a	n/a
1694.324	n/a	WORD	847162	wordpools/wasnorm_wordpool_less_exclusions.txt	LTP186	ltpFR	10	7	1	WALNUT	1584	n/a	n/a	0	n/a	0	0	0	0.422607421875	0.5869140625	0	upper	amplitud.ttf
1697.336	n/a	START	848668	n/a	LTP186	ltpFR	10	n/a	n/a	n/a	n/a	n/a	n/a	n/a	n/a	n/a	n/a	n/a	n/a	n/a	n/a	n/a	n/a
1698.184	n/a	PROB	849092	n/a	LTP186	ltpFR	10	n/a	n/a	n/a	n/a	n/a	n/a	n/a	22	8	5	9	n/a	n/a	n/a	n/a	n/a
1705.336	n/a	STOP	852668	n/a	LTP186	ltpFR	10	n/a	n/a	n/a	n/a	n/a	n/a	n/a	n/a	n/a	n/a	n/a	n/a	n/a	n/a	n/a	n/a
1706.356	n/a	WORD	853178	wordpools/wasnorm_wordpool_less_exclusions.txt	LTP186	ltpFR	10	7	0	SUBMARINE	1398	n/a	n/a	1	n/a	0	0	0	0.57763671875	0.412841796875	1	lower	zerothre.ttf
1709.368	n/a	START	854684	n/a	LTP186	ltpFR	10	n/a	n/a	n/a	n/a	n/a	n/a	n/a	n/a	n/a	n/a	n/a	n/a	n/a	n/a	n/a	n/a
1710.316	n/a	PROB	855158	n/a	LTP186	ltpFR	10	n/a	n/a	n/a	n/a	n/a	n/a	n/a	15	3	6	6	n/a	n/a	n/a	n/a	n/a
1717.368	n/a	STOP	858684	n/a	LTP186	ltpFR	10	n/a	n/a	n/a	n/a	n/a	n/a	n/a	n/a	n/a	n/a	n/a	n/a	n/a	n/a	n/a	n/a
1718.436	n/a	WORD	859218	wordpools/wasnorm_wordpool_less_exclusions.txt	LTP186	ltpFR	10	7	0	DIVER	476	n/a	n/a	1	n/a	0	0	0	0.57763671875	0.412841796875	1	lower	zerothre.ttf
1721.45	n/a	START	860725	n/a	LTP186	ltpFR	10	n/a	n/a	n/a	n/a	n/a	n/a	n/a	n/a	n/a	n/a	n/a	n/a	n/a	n/a	n/a	n/a
1722.514	n/a	PROB	861257	n/a	LTP186	ltpFR	10	n/a	n/a	n/a	n/a	n/a	n/a	n/a	12	4	2	6	n/a	n/a	n/a	n/a	n/a
1724.778	n/a	PROB	862389	n/a	LTP186	ltpFR	10	n/a	n/a	n/a	n/a	n/a	n/a	n/a	9	3	3	3	n/a	n/a	n/a	n/a	n/a
1725.844	n/a	PROB	862922	n/a	LTP186	ltpFR	10	n/a	n/a	n/a	n/a	n/a	n/a	n/a	17	7	3	7	n/a	n/a	n/a	n/a	n/a
1727.008	n/a	PROB	863504	n/a	LTP186	ltpFR	10	n/a	n/a	n/a	n/a	n/a	n/a	n/a	21	8	4	9	n/a	n/a	n/a	n/a	n/a
1728.282	n/a	STOP	864141	n/a	LTP186	ltpFR	10	n/a	n/a	n/a	n/a	n/a	n/a	n/a	n/a	n/a	n/a	n/a	n/a	n/a	n/a	n/a	n/a
1730.502	n/a	WORD	865251	wordpools/wasnorm_wordpool_less_exclusions.txt	LTP186	ltpFR	10	7	1	CAVE	263	n/a	n/a	0	n/a	0	0	0	0.422607421875	0.5869140625	0	upper	amplitud.ttf
1733.514	n/a	START	866757	n/a	LTP186	ltpFR	10	n/a	n/a	n/a	n/a	n/a	n/a	n/a	n/a	n/a	n/a	n/a	n/a	n/a	n/a	n/a	n/a
1734.58	n/a	PROB	867290	n/a	LTP186	ltpFR	10	n/a	n/a	n/a	n/a	n/a	n/a	n/a	14	9	3	2	n/a	n/a	n/a	n/a	n/a
1737.574	n/a	PROB	868787	n/a	LTP186	ltpFR	10	n/a	n/a	n/a	n/a	n/a	n/a	n/a	22	7	7	8	n/a	n/a	n/a	n/a	n/a
1741.514	n/a	STOP	870757	n/a	LTP186	ltpFR	10	n/a	n/a	n/a	n/a	n/a	n/a	n/a	n/a	n/a	n/a	n/a	n/a	n/a	n/a	n/a	n/a
1742.618	n/a	WORD	871309	wordpools/wasnorm_wordpool_less_exclusions.txt	LTP186	ltpFR	10	7	1	ROOT	1210	n/a	n/a	0	n/a	0	0	0	0.422607421875	0.5869140625	0	upper	amplitud.ttf
1745.63	n/a	START	872815	n/a	LTP186	ltpFR	10	n/a	n/a	n/a	n/a	n/a	n/a	n/a	n/a	n/a	n/a	n/a	n/a	n/a	n/a	n/a	n/a
1746.562	n/a	PROB	873281	n/a	LTP186	ltpFR	10	n/a	n/a	n/a	n/a	n/a	n/a	n/a	8	4	3	1	n/a	n/a	n/a	n/a	n/a
1750.856	n/a	PROB	875428	n/a	LTP186	ltpFR	10	n/a	n/a	n/a	n/a	n/a	n/a	n/a	11	2	1	8	n/a	n/a	n/a	n/a	n/a
1752.514	n/a	STOP	876257	n/a	LTP186	ltpFR	10	n/a	n/a	n/a	n/a	n/a	n/a	n/a	n/a	n/a	n/a	n/a	n/a	n/a	n/a	n/a	n/a
1754.784	n/a	WORD	877392	wordpools/wasnorm_wordpool_less_exclusions.txt	LTP186	ltpFR	10	7	1	CUB	419	n/a	n/a	1	n/a	0	0	0	0.422607421875	0.5869140625	0	upper	amplitud.ttf
1757.798	n/a	START	878899	n/a	LTP186	ltpFR	10	n/a	n/a	n/a	n/a	n/a	n/a	n/a	n/a	n/a	n/a	n/a	n/a	n/a	n/a	n/a	n/a
1758.628	n/a	PROB	879314	n/a	LTP186	ltpFR	10	n/a	n/a	n/a	n/a	n/a	n/a	n/a	14	1	5	8	n/a	n/a	n/a	n/a	n/a
1760.776	n/a	PROB	880388	n/a	LTP186	ltpFR	10	n/a	n/a	n/a	n/a	n/a	n/a	n/a	13	2	7	4	n/a	n/a	n/a	n/a	n/a
1762.174	n/a	PROB	881087	n/a	LTP186	ltpFR	10	n/a	n/a	n/a	n/a	n/a	n/a	n/a	10	3	3	4	n/a	n/a	n/a	n/a	n/a
1764.458	n/a	STOP	882229	n/a	LTP186	ltpFR	10	n/a	n/a	n/a	n/a	n/a	n/a	n/a	n/a	n/a	n/a	n/a	n/a	n/a	n/a	n/a	n/a
1766.816	n/a	WORD	883408	wordpools/wasnorm_wordpool_less_exclusions.txt	LTP186	ltpFR	10	7	1	THORN	1459	n/a	n/a	0	n/a	0	0	0	0.422607421875	0.5869140625	0	upper	amplitud.ttf
1769.83	n/a	START	884915	n/a	LTP186	ltpFR	10	n/a	n/a	n/a	n/a	n/a	n/a	n/a	n/a	n/a	n/a	n/a	n/a	n/a	n/a	n/a	n/a
1777.83	n/a	STOP	888915	n/a	LTP186	ltpFR	10	n/a	n/a	n/a	n/a	n/a	n/a	n/a	n/a	n/a	n/a	n/a	n/a	n/a	n/a	n/a	n/a
1778.898	n/a	WORD	889449	wordpools/wasnorm_wordpool_less_exclusions.txt	LTP186	ltpFR	10	7	1	PEDAL	1037	n/a	n/a	0	n/a	0	0	0	0.422607421875	0.5869140625	0	upper	amplitud.ttf
1781.912	n/a	START	890956	n/a	LTP186	ltpFR	10	n/a	n/a	n/a	n/a	n/a	n/a	n/a	n/a	n/a	n/a	n/a	n/a	n/a	n/a	n/a	n/a
1782.992	n/a	PROB	891496	n/a	LTP186	ltpFR	10	n/a	n/a	n/a	n/a	n/a	n/a	n/a	10	5	1	4	n/a	n/a	n/a	n/a	n/a
1784.04	n/a	PROB	892020	n/a	LTP186	ltpFR	10	n/a	n/a	n/a	n/a	n/a	n/a	n/a	14	4	1	9	n/a	n/a	n/a	n/a	n/a
1785.904	n/a	PROB	892952	n/a	LTP186	ltpFR	10	n/a	n/a	n/a	n/a	n/a	n/a	n/a	9	3	4	2	n/a	n/a	n/a	n/a	n/a
1787.552	n/a	PROB	893776	n/a	LTP186	ltpFR	10	n/a	n/a	n/a	n/a	n/a	n/a	n/a	21	9	6	6	n/a	n/a	n/a	n/a	n/a
1788.89	n/a	STOP	894445	n/a	LTP186	ltpFR	10	n/a	n/a	n/a	n/a	n/a	n/a	n/a	n/a	n/a	n/a	n/a	n/a	n/a	n/a	n/a	n/a
1790.88	n/a	WORD	895440	wordpools/wasnorm_wordpool_less_exclusions.txt	LTP186	ltpFR	10	7	0	DAM	436	n/a	n/a	1	n/a	0	0	0	0.57763671875	0.412841796875	1	lower	zerothre.ttf
1793.894	n/a	START	896947	n/a	LTP186	ltpFR	10	n/a	n/a	n/a	n/a	n/a	n/a	n/a	n/a	n/a	n/a	n/a	n/a	n/a	n/a	n/a	n/a
1801.894	n/a	STOP	900947	n/a	LTP186	ltpFR	10	n/a	n/a	n/a	n/a	n/a	n/a	n/a	n/a	n/a	n/a	n/a	n/a	n/a	n/a	n/a	n/a
1803.096	n/a	WORD	901548	wordpools/wasnorm_wordpool_less_exclusions.txt	LTP186	ltpFR	10	7	0	FIG	563	n/a	n/a	0	n/a	0	0	0	0.57763671875	0.412841796875	1	lower	zerothre.ttf
1806.108	n/a	START	903054	n/a	LTP186	ltpFR	10	n/a	n/a	n/a	n/a	n/a	n/a	n/a	n/a	n/a	n/a	n/a	n/a	n/a	n/a	n/a	n/a
1807.206	n/a	PROB	903603	n/a	LTP186	ltpFR	10	n/a	n/a	n/a	n/a	n/a	n/a	n/a	21	9	8	4	n/a	n/a	n/a	n/a	n/a
1808.586	n/a	PROB	904293	n/a	LTP186	ltpFR	10	n/a	n/a	n/a	n/a	n/a	n/a	n/a	21	7	6	8	n/a	n/a	n/a	n/a	n/a
1810.768	n/a	PROB	905384	n/a	LTP186	ltpFR	10	n/a	n/a	n/a	n/a	n/a	n/a	n/a	11	4	3	4	n/a	n/a	n/a	n/a	n/a
1814.108	n/a	STOP	907054	n/a	LTP186	ltpFR	10	n/a	n/a	n/a	n/a	n/a	n/a	n/a	n/a	n/a	n/a	n/a	n/a	n/a	n/a	n/a	n/a
1815.228	n/a	WORD	907614	wordpools/wasnorm_wordpool_less_exclusions.txt	LTP186	ltpFR	10	7	0	CAGE	218	n/a	n/a	0	n/a	0	0	0	0.57763671875	0.412841796875	1	lower	zerothre.ttf
1818.24	n/a	START	909120	n/a	LTP186	ltpFR	10	n/a	n/a	n/a	n/a	n/a	n/a	n/a	n/a	n/a	n/a	n/a	n/a	n/a	n/a	n/a	n/a
1826.24	n/a	STOP	913120	n/a	LTP186	ltpFR	10	n/a	n/a	n/a	n/a	n/a	n/a	n/a	n/a	n/a	n/a	n/a	n/a	n/a	n/a	n/a	n/a
1828.076	n/a	REC_START	914038	n/a	LTP186	ltpFR	10	7	n/a	n/a	n/a	n/a	n/a	n/a	n/a	0	0	0	n/a	n/a	n/a	n/a	n/a
1829.518	n/a	REC_WORD	914759	wordpools/wasnorm_wordpool_less_exclusions.txt	LTP186	ltpFR	10	7	0	CAGE	218	n/a	n/a	0	n/a	0	0	0	n/a	n/a	n/a	n/a	n/a
1831.664	n/a	REC_WORD	915832	wordpools/wasnorm_wordpool_less_exclusions.txt	LTP186	ltpFR	10	7	1	CUB	419	n/a	n/a	1	n/a	0	0	0	n/a	n/a	n/a	n/a	n/a
1832.356	n/a	REC_WORD	916178	wordpools/wasnorm_wordpool_less_exclusions.txt	LTP186	ltpFR	10	7	1	THORN	1459	n/a	n/a	0	n/a	0	0	0	n/a	n/a	n/a	n/a	n/a
1849.542	n/a	REC_WORD	924771	wordpools/wasnorm_wordpool_less_exclusions.txt	LTP186	ltpFR	10	7	0	DAM	436	n/a	n/a	1	n/a	0	0	0	n/a	n/a	n/a	n/a	n/a
1859.918	n/a	REC_WORD	929959	wordpools/wasnorm_wordpool_less_exclusions.txt	LTP186	ltpFR	10	7	0	REEF	1177	n/a	n/a	1	n/a	0	0	0	n/a	n/a	n/a	n/a	n/a
1860.638	n/a	REC_WORD	930319	wordpools/wasnorm_wordpool_less_exclusions.txt	LTP186	ltpFR	10	7	0	JUPITER	765	n/a	n/a	1	n/a	0	0	0	n/a	n/a	n/a	n/a	n/a
1862.628	n/a	REC_WORD	931314	wordpools/wasnorm_wordpool_less_exclusions.txt	LTP186	ltpFR	10	7	0	SUBMARINE	1398	n/a	n/a	1	n/a	0	0	0	n/a	n/a	n/a	n/a	n/a
1864.324	n/a	REC_WORD	932162	wordpools/wasnorm_wordpool_less_exclusions.txt	LTP186	ltpFR	10	7	0	DIVER	476	n/a	n/a	1	n/a	0	0	0	n/a	n/a	n/a	n/a	n/a
1911.036	n/a	WORD	955518	wordpools/wasnorm_wordpool_less_exclusions.txt	LTP186	ltpFR	10	8	1	PRESIDENT	1121	n/a	n/a	1	n/a	0	0	0	0.422607421875	0.5869140625	0	upper	amplitud.ttf
1915.196	n/a	WORD	957598	wordpools/wasnorm_wordpool_less_exclusions.txt	LTP186	ltpFR	10	8	1	SHOP	1290	n/a	n/a	0	n/a	0	0	0	0.422607421875	0.5869140625	0	upper	amplitud.ttf
1919.092	n/a	WORD	959546	wordpools/wasnorm_wordpool_less_exclusions.txt	LTP186	ltpFR	10	8	1	BARREL	91	n/a	n/a	0	n/a	0	0	0	0.422607421875	0.5869140625	0	upper	amplitud.ttf
1923.036	n/a	WORD	961518	wordpools/wasnorm_wordpool_less_exclusions.txt	LTP186	ltpFR	10	8	0	CREATURE	403	n/a	n/a	1	n/a	0	0	0	0.57763671875	0.412841796875	1	lower	zerothre.ttf
1927.062	n/a	WORD	963531	wordpools/wasnorm_wordpool_less_exclusions.txt	LTP186	ltpFR	10	8	0	TABLET	1427	n/a	n/a	1	n/a	0	0	0	0.57763671875	0.412841796875	1	lower	zerothre.ttf
1930.89	n/a	WORD	965445	wordpools/wasnorm_wordpool_less_exclusions.txt	LTP186	ltpFR	10	8	0	PENGUIN	1044	n/a	n/a	1	n/a	0	0	0	0.57763671875	0.412841796875	1	lower	zerothre.ttf
1934.85	n/a	WORD	967425	wordpools/wasnorm_wordpool_less_exclusions.txt	LTP186	ltpFR	10	8	0	BLANKET	135	n/a	n/a	0	n/a	0	0	0	0.57763671875	0.412841796875	1	lower	zerothre.ttf
1938.844	n/a	WORD	969422	wordpools/wasnorm_wordpool_less_exclusions.txt	LTP186	ltpFR	10	8	1	BEAD	103	n/a	n/a	0	n/a	0	0	0	0.422607421875	0.5869140625	0	upper	amplitud.ttf
1942.938	n/a	WORD	971469	wordpools/wasnorm_wordpool_less_exclusions.txt	LTP186	ltpFR	10	8	1	JEWEL	757	n/a	n/a	0	n/a	0	0	0	0.422607421875	0.5869140625	0	upper	amplitud.ttf
1946.85	n/a	WORD	973425	wordpools/wasnorm_wordpool_less_exclusions.txt	LTP186	ltpFR	10	8	1	PISTON	1076	n/a	n/a	0	n/a	0	0	0	0.422607421875	0.5869140625	0	upper	amplitud.ttf
1950.86	n/a	WORD	975430	wordpools/wasnorm_wordpool_less_exclusions.txt	LTP186	ltpFR	10	8	1	CUSTOMER	430	n/a	n/a	1	n/a	0	0	0	0.422607421875	0.5869140625	0	upper	amplitud.ttf
1954.87	n/a	WORD	977435	wordpools/wasnorm_wordpool_less_exclusions.txt	LTP186	ltpFR	10	8	1	HOOP	716	n/a	n/a	0	n/a	0	0	0	0.422607421875	0.5869140625	0	upper	amplitud.ttf
1958.882	n/a	WORD	979441	wordpools/wasnorm_wordpool_less_exclusions.txt	LTP186	ltpFR	10	8	0	LEADER	807	n/a	n/a	1	n/a	0	0	0	0.57763671875	0.412841796875	1	lower	zerothre.ttf
1962.742	n/a	WORD	981371	wordpools/wasnorm_wordpool_less_exclusions.txt	LTP186	ltpFR	10	8	0	DICTATOR	462	n/a	n/a	1	n/a	0	0	0	0.57763671875	0.412841796875	1	lower	zerothre.ttf
1966.57	n/a	WORD	983285	wordpools/wasnorm_wordpool_less_exclusions.txt	LTP186	ltpFR	10	8	0	RULER	1216	n/a	n/a	1	n/a	0	0	0	0.57763671875	0.412841796875	1	lower	zerothre.ttf
1970.764	n/a	WORD	985382	wordpools/wasnorm_wordpool_less_exclusions.txt	LTP186	ltpFR	10	8	0	TAXI	1438	n/a	n/a	0	n/a	0	0	0	0.57763671875	0.412841796875	1	lower	zerothre.ttf
1973.792	n/a	START	986896	n/a	LTP186	ltpFR	10	n/a	n/a	n/a	n/a	n/a	n/a	n/a	n/a	n/a	n/a	n/a	n/a	n/a	n/a	n/a	n/a
1974.724	n/a	PROB	987362	n/a	LTP186	ltpFR	10	n/a	n/a	n/a	n/a	n/a	n/a	n/a	13	4	8	1	n/a	n/a	n/a	n/a	n/a
1977.436	n/a	PROB	988718	n/a	LTP186	ltpFR	10	n/a	n/a	n/a	n/a	n/a	n/a	n/a	18	9	8	1	n/a	n/a	n/a	n/a	n/a
1978.736	n/a	PROB	989368	n/a	LTP186	ltpFR	10	n/a	n/a	n/a	n/a	n/a	n/a	n/a	11	3	6	2	n/a	n/a	n/a	n/a	n/a
1980.254	n/a	STOP	990127	n/a	LTP186	ltpFR	10	n/a	n/a	n/a	n/a	n/a	n/a	n/a	n/a	n/a	n/a	n/a	n/a	n/a	n/a	n/a	n/a
1983.646	n/a	REC_START	991823	n/a	LTP186	ltpFR	10	8	n/a	n/a	n/a	n/a	n/a	n/a	n/a	0	0	0	n/a	n/a	n/a	n/a	n/a
1984.852	n/a	REC_WORD	992426	wordpools/wasnorm_wordpool_less_exclusions.txt	LTP186	ltpFR	10	8	1	PRESIDENT	1121	n/a	n/a	1	n/a	0	0	0	n/a	n/a	n/a	n/a	n/a
1985.65	n/a	REC_WORD	992825	wordpools/wasnorm_wordpool_less_exclusions.txt	LTP186	ltpFR	10	8	1	SHOP	1290	n/a	n/a	0	n/a	0	0	0	n/a	n/a	n/a	n/a	n/a
1987.268	n/a	REC_WORD	993634	wordpools/wasnorm_wordpool_less_exclusions.txt	LTP186	ltpFR	10	8	n/a	CRATE	-1	n/a	n/a	n/a	n/a	0	0	0	n/a	n/a	n/a	n/a	n/a
1991.35	n/a	REC_WORD_VV	995675	wordpools/wasnorm_wordpool_less_exclusions.txt	LTP186	ltpFR	10	8	n/a	<>	-1	n/a	n/a	n/a	n/a	0	0	0	n/a	n/a	n/a	n/a	n/a
1992.824	n/a	REC_WORD	996412	wordpools/wasnorm_wordpool_less_exclusions.txt	LTP186	ltpFR	10	8	1	BARREL	91	n/a	n/a	0	n/a	0	0	0	n/a	n/a	n/a	n/a	n/a
1995.428	n/a	REC_WORD	997714	wordpools/wasnorm_wordpool_less_exclusions.txt	LTP186	ltpFR	10	8	1	JEWEL	757	n/a	n/a	0	n/a	0	0	0	n/a	n/a	n/a	n/a	n/a
1996.56	n/a	REC_WORD	998280	wordpools/wasnorm_wordpool_less_exclusions.txt	LTP186	ltpFR	10	8	1	BEAD	103	n/a	n/a	0	n/a	0	0	0	n/a	n/a	n/a	n/a	n/a
1998.552	n/a	REC_WORD	999276	wordpools/wasnorm_wordpool_less_exclusions.txt	LTP186	ltpFR	10	8	0	BLANKET	135	n/a	n/a	0	n/a	0	0	0	n/a	n/a	n/a	n/a	n/a
2000.118	n/a	REC_WORD	1000059	wordpools/wasnorm_wordpool_less_exclusions.txt	LTP186	ltpFR	10	8	0	TAXI	1438	n/a	n/a	0	n/a	0	0	0	n/a	n/a	n/a	n/a	n/a
2001.764	n/a	REC_WORD	1000882	wordpools/wasnorm_wordpool_less_exclusions.txt	LTP186	ltpFR	10	8	1	PISTON	1076	n/a	n/a	0	n/a	0	0	0	n/a	n/a	n/a	n/a	n/a
2005.37	n/a	REC_WORD	1002685	wordpools/wasnorm_wordpool_less_exclusions.txt	LTP186	ltpFR	10	8	0	TABLET	1427	n/a	n/a	1	n/a	0	0	0	n/a	n/a	n/a	n/a	n/a
2006.708	n/a	REC_WORD	1003354	wordpools/wasnorm_wordpool_less_exclusions.txt	LTP186	ltpFR	10	8	0	PENGUIN	1044	n/a	n/a	1	n/a	0	0	0	n/a	n/a	n/a	n/a	n/a
2015.672	n/a	REC_WORD	1007836	wordpools/wasnorm_wordpool_less_exclusions.txt	LTP186	ltpFR	10	8	0	LEADER	807	n/a	n/a	1	n/a	0	0	0	n/a	n/a	n/a	n/a	n/a
2033.418	n/a	REC_WORD	1016709	wordpools/wasnorm_wordpool_less_exclusions.txt	LTP186	ltpFR	10	8	0	CREATURE	403	n/a	n/a	1	n/a	0	0	0	n/a	n/a	n/a	n/a	n/a
2040.916	n/a	REC_WORD	1020458	wordpools/wasnorm_wordpool_less_exclusions.txt	LTP186	ltpFR	10	8	1	HOOP	716	n/a	n/a	0	n/a	0	0	0	n/a	n/a	n/a	n/a	n/a
2067.536	n/a	WORD	1033768	wordpools/wasnorm_wordpool_less_exclusions.txt	LTP186	ltpFR	10	9	0	CREEK	404	n/a	n/a	1	n/a	0	0	0	0.57763671875	0.412841796875	1	lower	zerothre.ttf
2071.58	n/a	WORD	1035790	wordpools/wasnorm_wordpool_less_exclusions.txt	LTP186	ltpFR	10	9	0	LASER	801	n/a	n/a	1	n/a	0	0	0	0.57763671875	0.412841796875	1	lower	zerothre.ttf
2075.558	n/a	WORD	1037779	wordpools/wasnorm_wordpool_less_exclusions.txt	LTP186	ltpFR	10	9	0	TIE	1466	n/a	n/a	0	n/a	0	0	0	0.57763671875	0.412841796875	1	lower	zerothre.ttf
2079.486	n/a	WORD	1039743	wordpools/wasnorm_wordpool_less_exclusions.txt	LTP186	ltpFR	10	9	0	RUNNER	1218	n/a	n/a	1	n/a	0	0	0	0.57763671875	0.412841796875	1	lower	zerothre.ttf
2083.564	n/a	WORD	1041782	wordpools/wasnorm_wordpool_less_exclusions.txt	LTP186	ltpFR	10	9	0	LIST	830	n/a	n/a	0	n/a	0	0	0	0.57763671875	0.412841796875	1	lower	zerothre.ttf
2087.474	n/a	WORD	1043737	wordpools/wasnorm_wordpool_less_exclusions.txt	LTP186	ltpFR	10	9	0	BIBLE	124	n/a	n/a	0	n/a	0	0	0	0.57763671875	0.412841796875	1	lower	zerothre.ttf
2091.434	n/a	WORD	1045717	wordpools/wasnorm_wordpool_less_exclusions.txt	LTP186	ltpFR	10	9	0	SHOULDER	1294	n/a	n/a	1	n/a	0	0	0	0.57763671875	0.412841796875	1	lower	zerothre.ttf
2095.296	n/a	WORD	1047648	wordpools/wasnorm_wordpool_less_exclusions.txt	LTP186	ltpFR	10	9	0	PIT	1077	n/a	n/a	0	n/a	0	0	0	0.57763671875	0.412841796875	1	lower	zerothre.ttf
2099.124	n/a	WORD	1049562	wordpools/wasnorm_wordpool_less_exclusions.txt	LTP186	ltpFR	10	9	0	LAKE	796	n/a	n/a	1	n/a	0	0	0	0.57763671875	0.412841796875	1	lower	zerothre.ttf
2103.202	n/a	WORD	1051601	wordpools/wasnorm_wordpool_less_exclusions.txt	LTP186	ltpFR	10	9	0	HOSE	720	n/a	n/a	0	n/a	0	0	0	0.57763671875	0.412841796875	1	lower	zerothre.ttf
2107.162	n/a	WORD	1053581	wordpools/wasnorm_wordpool_less_exclusions.txt	LTP186	ltpFR	10	9	0	MARSH	874	n/a	n/a	1	n/a	0	0	0	0.57763671875	0.412841796875	1	lower	zerothre.ttf
2111.206	n/a	WORD	1055603	wordpools/wasnorm_wordpool_less_exclusions.txt	LTP186	ltpFR	10	9	0	PAPER	1011	n/a	n/a	0	n/a	0	0	0	0.57763671875	0.412841796875	1	lower	zerothre.ttf
2115.334	n/a	WORD	1057667	wordpools/wasnorm_wordpool_less_exclusions.txt	LTP186	ltpFR	10	9	0	LAGOON	795	n/a	n/a	1	n/a	0	0	0	0.57763671875	0.412841796875	1	lower	zerothre.ttf
2119.328	n/a	WORD	1059664	wordpools/wasnorm_wordpool_less_exclusions.txt	LTP186	ltpFR	10	9	0	AUTHOR	61	n/a	n/a	1	n/a	0	0	0	0.57763671875	0.412841796875	1	lower	zerothre.ttf
2123.188	n/a	WORD	1061594	wordpools/wasnorm_wordpool_less_exclusions.txt	LTP186	ltpFR	10	9	0	TAPE	1433	n/a	n/a	0	n/a	0	0	0	0.57763671875	0.412841796875	1	lower	zerothre.ttf
2127.366	n/a	WORD	1063683	wordpools/wasnorm_wordpool_less_exclusions.txt	LTP186	ltpFR	10	9	0	OBOE	969	n/a	n/a	1	n/a	0	0	0	0.57763671875	0.412841796875	1	lower	zerothre.ttf
2130.378	n/a	START	1065189	n/a	LTP186	ltpFR	10	n/a	n/a	n/a	n/a	n/a	n/a	n/a	n/a	n/a	n/a	n/a	n/a	n/a	n/a	n/a	n/a
2131.278	n/a	PROB	1065639	n/a	LTP186	ltpFR	10	n/a	n/a	n/a	n/a	n/a	n/a	n/a	23	9	5	9	n/a	n/a	n/a	n/a	n/a
2133.522	n/a	PROB	1066761	n/a	LTP186	ltpFR	10	n/a	n/a	n/a	n/a	n/a	n/a	n/a	9	1	2	6	n/a	n/a	n/a	n/a	n/a
2135.072	n/a	PROB	1067536	n/a	LTP186	ltpFR	10	n/a	n/a	n/a	n/a	n/a	n/a	n/a	13	1	5	7	n/a	n/a	n/a	n/a	n/a
2137.318	n/a	PROB	1068659	n/a	LTP186	ltpFR	10	n/a	n/a	n/a	n/a	n/a	n/a	n/a	8	3	4	1	n/a	n/a	n/a	n/a	n/a
2138.466	n/a	PROB	1069233	n/a	LTP186	ltpFR	10	n/a	n/a	n/a	n/a	n/a	n/a	n/a	17	4	5	8	n/a	n/a	n/a	n/a	n/a
2139.914	n/a	PROB	1069957	n/a	LTP186	ltpFR	10	n/a	n/a	n/a	n/a	n/a	n/a	n/a	12	8	1	3	n/a	n/a	n/a	n/a	n/a
2146.378	n/a	STOP	1073189	n/a	LTP186	ltpFR	10	n/a	n/a	n/a	n/a	n/a	n/a	n/a	n/a	n/a	n/a	n/a	n/a	n/a	n/a	n/a	n/a
2148.236	n/a	REC_START	1074118	n/a	LTP186	ltpFR	10	9	n/a	n/a	n/a	n/a	n/a	n/a	n/a	0	0	0	n/a	n/a	n/a	n/a	n/a
2150.316	n/a	REC_WORD	1075158	wordpools/wasnorm_wordpool_less_exclusions.txt	LTP186	ltpFR	10	9	0	OBOE	969	n/a	n/a	1	n/a	0	0	0	n/a	n/a	n/a	n/a	n/a
2150.984	n/a	REC_WORD	1075492	wordpools/wasnorm_wordpool_less_exclusions.txt	LTP186	ltpFR	10	9	0	TAPE	1433	n/a	n/a	0	n/a	0	0	0	n/a	n/a	n/a	n/a	n/a
2152.96	n/a	REC_WORD	1076480	wordpools/wasnorm_wordpool_less_exclusions.txt	LTP186	ltpFR	10	9	0	LAKE	796	n/a	n/a	1	n/a	0	0	0	n/a	n/a	n/a	n/a	n/a
2153.398	n/a	REC_WORD	1076699	wordpools/wasnorm_wordpool_less_exclusions.txt	LTP186	ltpFR	10	9	0	MARSH	874	n/a	n/a	1	n/a	0	0	0	n/a	n/a	n/a	n/a	n/a
2154.222	n/a	REC_WORD	1077111	wordpools/wasnorm_wordpool_less_exclusions.txt	LTP186	ltpFR	10	9	0	LAGOON	795	n/a	n/a	1	n/a	0	0	0	n/a	n/a	n/a	n/a	n/a
2155.818	n/a	REC_WORD	1077909	wordpools/wasnorm_wordpool_less_exclusions.txt	LTP186	ltpFR	10	9	0	PAPER	1011	n/a	n/a	0	n/a	0	0	0	n/a	n/a	n/a	n/a	n/a
2156.258	n/a	REC_WORD	1078129	wordpools/wasnorm_wordpool_less_exclusions.txt	LTP186	ltpFR	10	9	0	PIT	1077	n/a	n/a	0	n/a	0	0	0	n/a	n/a	n/a	n/a	n/a
2157.654	n/a	REC_WORD	1078827	wordpools/wasnorm_wordpool_less_exclusions.txt	LTP186	ltpFR	10	9	0	AUTHOR	61	n/a	n/a	1	n/a	0	0	0	n/a	n/a	n/a	n/a	n/a
2170.15	n/a	REC_WORD	1085075	wordpools/wasnorm_wordpool_less_exclusions.txt	LTP186	ltpFR	10	9	0	TIE	1466	n/a	n/a	0	n/a	0	0	0	n/a	n/a	n/a	n/a	n/a
2178.526	n/a	REC_WORD	1089263	wordpools/wasnorm_wordpool_less_exclusions.txt	LTP186	ltpFR	10	9	0	LIST	830	n/a	n/a	0	n/a	0	0	0	n/a	n/a	n/a	n/a	n/a
2179.33	n/a	REC_WORD	1089665	wordpools/wasnorm_wordpool_less_exclusions.txt	LTP186	ltpFR	10	9	0	BIBLE	124	n/a	n/a	0	n/a	0	0	0	n/a	n/a	n/a	n/a	n/a
2182.532	n/a	REC_WORD	1091266	wordpools/wasnorm_wordpool_less_exclusions.txt	LTP186	ltpFR	10	9	0	SHOULDER	1294	n/a	n/a	1	n/a	0	0	0	n/a	n/a	n/a	n/a	n/a
2191.078	n/a	REC_WORD	1095539	wordpools/wasnorm_wordpool_less_exclusions.txt	LTP186	ltpFR	10	9	0	LASER	801	n/a	n/a	1	n/a	0	0	0	n/a	n/a	n/a	n/a	n/a
2202.278	n/a	REC_WORD	1101139	wordpools/wasnorm_wordpool_less_exclusions.txt	LTP186	ltpFR	10	9	0	CRATER	400	n/a	n/a	1	n/a	0	0	0	n/a	n/a	n/a	n/a	n/a
2228.548	n/a	START	1114274	n/a	LTP186	ltpFR	10	n/a	n/a	n/a	n/a	n/a	n/a	n/a	n/a	n/a	n/a	n/a	n/a	n/a	n/a	n/a	n/a
2230.064	n/a	PROB	1115032	n/a	LTP186	ltpFR	10	n/a	n/a	n/a	n/a	n/a	n/a	n/a	24	6	9	9	n/a	n/a	n/a	n/a	n/a
2232.708	n/a	PROB	1116354	n/a	LTP186	ltpFR	10	n/a	n/a	n/a	n/a	n/a	n/a	n/a	20	5	6	9	n/a	n/a	n/a	n/a	n/a
2234.756	n/a	PROB	1117378	n/a	LTP186	ltpFR	10	n/a	n/a	n/a	n/a	n/a	n/a	n/a	18	8	6	4	n/a	n/a	n/a	n/a	n/a
2236.47	n/a	PROB	1118235	n/a	LTP186	ltpFR	10	n/a	n/a	n/a	n/a	n/a	n/a	n/a	14	3	3	8	n/a	n/a	n/a	n/a	n/a
2237.936	n/a	PROB	1118968	n/a	LTP186	ltpFR	10	n/a	n/a	n/a	n/a	n/a	n/a	n/a	19	9	1	9	n/a	n/a	n/a	n/a	n/a
2239.284	n/a	PROB	1119642	n/a	LTP186	ltpFR	10	n/a	n/a	n/a	n/a	n/a	n/a	n/a	13	8	2	3	n/a	n/a	n/a	n/a	n/a
2240.696	n/a	PROB	1120348	n/a	LTP186	ltpFR	10	n/a	n/a	n/a	n/a	n/a	n/a	n/a	15	5	9	1	n/a	n/a	n/a	n/a	n/a
2244.548	n/a	STOP	1122274	n/a	LTP186	ltpFR	10	n/a	n/a	n/a	n/a	n/a	n/a	n/a	n/a	n/a	n/a	n/a	n/a	n/a	n/a	n/a	n/a
2245.656	n/a	WORD	1122828	wordpools/wasnorm_wordpool_less_exclusions.txt	LTP186	ltpFR	10	10	0	CHICKEN	297	n/a	n/a	1	n/a	0	0	0	0.57763671875	0.412841796875	1	lower	zerothre.ttf
2248.668	n/a	START	1124334	n/a	LTP186	ltpFR	10	n/a	n/a	n/a	n/a	n/a	n/a	n/a	n/a	n/a	n/a	n/a	n/a	n/a	n/a	n/a	n/a
2264.668	n/a	STOP	1132334	n/a	LTP186	ltpFR	10	n/a	n/a	n/a	n/a	n/a	n/a	n/a	n/a	n/a	n/a	n/a	n/a	n/a	n/a	n/a	n/a
2265.526	n/a	WORD	1132763	wordpools/wasnorm_wordpool_less_exclusions.txt	LTP186	ltpFR	10	10	0	CHICK	296	n/a	n/a	0	n/a	0	0	0	0.57763671875	0.412841796875	1	lower	zerothre.ttf
2268.54	n/a	START	1134270	n/a	LTP186	ltpFR	10	n/a	n/a	n/a	n/a	n/a	n/a	n/a	n/a	n/a	n/a	n/a	n/a	n/a	n/a	n/a	n/a
2269.47	n/a	PROB	1134735	n/a	LTP186	ltpFR	10	n/a	n/a	n/a	n/a	n/a	n/a	n/a	17	1	7	9	n/a	n/a	n/a	n/a	n/a
2272.632	n/a	PROB	1136316	n/a	LTP186	ltpFR	10	n/a	n/a	n/a	n/a	n/a	n/a	n/a	8	1	3	4	n/a	n/a	n/a	n/a	n/a
2273.866	n/a	PROB	1136933	n/a	LTP186	ltpFR	10	n/a	n/a	n/a	n/a	n/a	n/a	n/a	8	1	1	6	n/a	n/a	n/a	n/a	n/a
2274.798	n/a	PROB	1137399	n/a	LTP186	ltpFR	10	n/a	n/a	n/a	n/a	n/a	n/a	n/a	7	1	1	5	n/a	n/a	n/a	n/a	n/a
2276.312	n/a	PROB	1138156	n/a	LTP186	ltpFR	10	n/a	n/a	n/a	n/a	n/a	n/a	n/a	19	6	6	7	n/a	n/a	n/a	n/a	n/a
2278.058	n/a	PROB	1139029	n/a	LTP186	ltpFR	10	n/a	n/a	n/a	n/a	n/a	n/a	n/a	10	6	2	2	n/a	n/a	n/a	n/a	n/a
2279.34	n/a	PROB	1139670	n/a	LTP186	ltpFR	10	n/a	n/a	n/a	n/a	n/a	n/a	n/a	15	4	6	5	n/a	n/a	n/a	n/a	n/a
2280.654	n/a	PROB	1140327	n/a	LTP186	ltpFR	10	n/a	n/a	n/a	n/a	n/a	n/a	n/a	23	9	5	9	n/a	n/a	n/a	n/a	n/a
2284.54	n/a	STOP	1142270	n/a	LTP186	ltpFR	10	n/a	n/a	n/a	n/a	n/a	n/a	n/a	n/a	n/a	n/a	n/a	n/a	n/a	n/a	n/a	n/a
2285.598	n/a	WORD	1142799	wordpools/wasnorm_wordpool_less_exclusions.txt	LTP186	ltpFR	10	10	0	POLITICIAN	1099	n/a	n/a	1	n/a	0	0	0	0.57763671875	0.412841796875	1	lower	zerothre.ttf
2288.61	n/a	START	1144305	n/a	LTP186	ltpFR	10	n/a	n/a	n/a	n/a	n/a	n/a	n/a	n/a	n/a	n/a	n/a	n/a	n/a	n/a	n/a	n/a
2289.508	n/a	PROB	1144754	n/a	LTP186	ltpFR	10	n/a	n/a	n/a	n/a	n/a	n/a	n/a	14	5	3	6	n/a	n/a	n/a	n/a	n/a
2294.036	n/a	PROB	1147018	n/a	LTP186	ltpFR	10	n/a	n/a	n/a	n/a	n/a	n/a	n/a	20	9	6	6	n/a	n/a	n/a	n/a	n/a
2304.488	n/a	STOP	1152244	n/a	LTP186	ltpFR	10	n/a	n/a	n/a	n/a	n/a	n/a	n/a	n/a	n/a	n/a	n/a	n/a	n/a	n/a	n/a	n/a
2305.468	n/a	WORD	1152734	wordpools/wasnorm_wordpool_less_exclusions.txt	LTP186	ltpFR	10	10	0	CHIP	303	n/a	n/a	0	n/a	0	0	0	0.57763671875	0.412841796875	1	lower	zerothre.ttf
2308.48	n/a	START	1154240	n/a	LTP186	ltpFR	10	n/a	n/a	n/a	n/a	n/a	n/a	n/a	n/a	n/a	n/a	n/a	n/a	n/a	n/a	n/a	n/a
2309.412	n/a	PROB	1154706	n/a	LTP186	ltpFR	10	n/a	n/a	n/a	n/a	n/a	n/a	n/a	13	6	6	1	n/a	n/a	n/a	n/a	n/a
2311.31	n/a	PROB	1155655	n/a	LTP186	ltpFR	10	n/a	n/a	n/a	n/a	n/a	n/a	n/a	9	2	3	4	n/a	n/a	n/a	n/a	n/a
2314.272	n/a	PROB	1157136	n/a	LTP186	ltpFR	10	n/a	n/a	n/a	n/a	n/a	n/a	n/a	20	9	8	3	n/a	n/a	n/a	n/a	n/a
2316.336	n/a	PROB	1158168	n/a	LTP186	ltpFR	10	n/a	n/a	n/a	n/a	n/a	n/a	n/a	7	1	4	2	n/a	n/a	n/a	n/a	n/a
2318.382	n/a	PROB	1159191	n/a	LTP186	ltpFR	10	n/a	n/a	n/a	n/a	n/a	n/a	n/a	12	7	1	4	n/a	n/a	n/a	n/a	n/a
2319.798	n/a	PROB	1159899	n/a	LTP186	ltpFR	10	n/a	n/a	n/a	n/a	n/a	n/a	n/a	10	3	5	2	n/a	n/a	n/a	n/a	n/a
2320.896	n/a	PROB	1160448	n/a	LTP186	ltpFR	10	n/a	n/a	n/a	n/a	n/a	n/a	n/a	25	9	8	8	n/a	n/a	n/a	n/a	n/a
2324.322	n/a	STOP	1162161	n/a	LTP186	ltpFR	10	n/a	n/a	n/a	n/a	n/a	n/a	n/a	n/a	n/a	n/a	n/a	n/a	n/a	n/a	n/a	n/a
2325.654	n/a	WORD	1162827	wordpools/wasnorm_wordpool_less_exclusions.txt	LTP186	ltpFR	10	10	0	BAY	102	n/a	n/a	1	n/a	0	0	0	0.57763671875	0.412841796875	1	lower	zerothre.ttf
2328.666	n/a	START	1164333	n/a	LTP186	ltpFR	10	n/a	n/a	n/a	n/a	n/a	n/a	n/a	n/a	n/a	n/a	n/a	n/a	n/a	n/a	n/a	n/a
2329.532	n/a	PROB	1164766	n/a	LTP186	ltpFR	10	n/a	n/a	n/a	n/a	n/a	n/a	n/a	10	5	1	4	n/a	n/a	n/a	n/a	n/a
2332.628	n/a	PROB	1166314	n/a	LTP186	ltpFR	10	n/a	n/a	n/a	n/a	n/a	n/a	n/a	17	4	5	8	n/a	n/a	n/a	n/a	n/a
2334.192	n/a	PROB	1167096	n/a	LTP186	ltpFR	10	n/a	n/a	n/a	n/a	n/a	n/a	n/a	17	5	8	4	n/a	n/a	n/a	n/a	n/a
2335.774	n/a	PROB	1167887	n/a	LTP186	ltpFR	10	n/a	n/a	n/a	n/a	n/a	n/a	n/a	17	8	1	8	n/a	n/a	n/a	n/a	n/a
2337.138	n/a	PROB	1168569	n/a	LTP186	ltpFR	10	n/a	n/a	n/a	n/a	n/a	n/a	n/a	12	6	1	5	n/a	n/a	n/a	n/a	n/a
2338.886	n/a	PROB	1169443	n/a	LTP186	ltpFR	10	n/a	n/a	n/a	n/a	n/a	n/a	n/a	12	4	6	2	n/a	n/a	n/a	n/a	n/a
2339.918	n/a	PROB	1169959	n/a	LTP186	ltpFR	10	n/a	n/a	n/a	n/a	n/a	n/a	n/a	17	4	5	8	n/a	n/a	n/a	n/a	n/a
2341.58	n/a	PROB	1170790	n/a	LTP186	ltpFR	10	n/a	n/a	n/a	n/a	n/a	n/a	n/a	13	3	4	5	n/a	n/a	n/a	n/a	n/a
2343.138	n/a	STOP	1171569	n/a	LTP186	ltpFR	10	n/a	n/a	n/a	n/a	n/a	n/a	n/a	n/a	n/a	n/a	n/a	n/a	n/a	n/a	n/a	n/a
2345.758	n/a	WORD	1172879	wordpools/wasnorm_wordpool_less_exclusions.txt	LTP186	ltpFR	10	10	0	CANDIDATE	228	n/a	n/a	1	n/a	0	0	0	0.57763671875	0.412841796875	1	lower	zerothre.ttf
2348.772	n/a	START	1174386	n/a	LTP186	ltpFR	10	n/a	n/a	n/a	n/a	n/a	n/a	n/a	n/a	n/a	n/a	n/a	n/a	n/a	n/a	n/a	n/a
2349.618	n/a	PROB	1174809	n/a	LTP186	ltpFR	10	n/a	n/a	n/a	n/a	n/a	n/a	n/a	14	2	8	4	n/a	n/a	n/a	n/a	n/a
2352.698	n/a	PROB	1176349	n/a	LTP186	ltpFR	10	n/a	n/a	n/a	n/a	n/a	n/a	n/a	21	6	8	7	n/a	n/a	n/a	n/a	n/a
2355.178	n/a	PROB	1177589	n/a	LTP186	ltpFR	10	n/a	n/a	n/a	n/a	n/a	n/a	n/a	7	3	1	3	n/a	n/a	n/a	n/a	n/a
2356.426	n/a	PROB	1178213	n/a	LTP186	ltpFR	10	n/a	n/a	n/a	n/a	n/a	n/a	n/a	16	3	9	4	n/a	n/a	n/a	n/a	n/a
2357.908	n/a	PROB	1178954	n/a	LTP186	ltpFR	10	n/a	n/a	n/a	n/a	n/a	n/a	n/a	21	8	9	4	n/a	n/a	n/a	n/a	n/a
2359.638	n/a	PROB	1179819	n/a	LTP186	ltpFR	10	n/a	n/a	n/a	n/a	n/a	n/a	n/a	15	5	3	7	n/a	n/a	n/a	n/a	n/a
2362.152	n/a	PROB	1181076	n/a	LTP186	ltpFR	10	n/a	n/a	n/a	n/a	n/a	n/a	n/a	11	1	2	8	n/a	n/a	n/a	n/a	n/a
2363.21	n/a	STOP	1181605	n/a	LTP186	ltpFR	10	n/a	n/a	n/a	n/a	n/a	n/a	n/a	n/a	n/a	n/a	n/a	n/a	n/a	n/a	n/a	n/a
2365.764	n/a	WORD	1182882	wordpools/wasnorm_wordpool_less_exclusions.txt	LTP186	ltpFR	10	10	0	BUILDING	191	n/a	n/a	1	n/a	0	0	0	0.57763671875	0.412841796875	1	lower	zerothre.ttf
2368.776	n/a	START	1184388	n/a	LTP186	ltpFR	10	n/a	n/a	n/a	n/a	n/a	n/a	n/a	n/a	n/a	n/a	n/a	n/a	n/a	n/a	n/a	n/a
2369.824	n/a	PROB	1184912	n/a	LTP186	ltpFR	10	n/a	n/a	n/a	n/a	n/a	n/a	n/a	9	5	1	3	n/a	n/a	n/a	n/a	n/a
2379.758	n/a	PROB	1189879	n/a	LTP186	ltpFR	10	n/a	n/a	n/a	n/a	n/a	n/a	n/a	7	1	3	3	n/a	n/a	n/a	n/a	n/a
2384.776	n/a	STOP	1192388	n/a	LTP186	ltpFR	10	n/a	n/a	n/a	n/a	n/a	n/a	n/a	n/a	n/a	n/a	n/a	n/a	n/a	n/a	n/a	n/a
2385.716	n/a	WORD	1192858	wordpools/wasnorm_wordpool_less_exclusions.txt	LTP186	ltpFR	10	10	0	RECORD	1176	n/a	n/a	1	n/a	0	0	0	0.57763671875	0.412841796875	1	lower	zerothre.ttf
2388.73	n/a	START	1194365	n/a	LTP186	ltpFR	10	n/a	n/a	n/a	n/a	n/a	n/a	n/a	n/a	n/a	n/a	n/a	n/a	n/a	n/a	n/a	n/a
2389.844	n/a	PROB	1194922	n/a	LTP186	ltpFR	10	n/a	n/a	n/a	n/a	n/a	n/a	n/a	10	2	3	5	n/a	n/a	n/a	n/a	n/a
2398.264	n/a	PROB	1199132	n/a	LTP186	ltpFR	10	n/a	n/a	n/a	n/a	n/a	n/a	n/a	12	4	7	1	n/a	n/a	n/a	n/a	n/a
2400.162	n/a	PROB	1200081	n/a	LTP186	ltpFR	10	n/a	n/a	n/a	n/a	n/a	n/a	n/a	18	3	8	7	n/a	n/a	n/a	n/a	n/a
2402.042	n/a	PROB	1201021	n/a	LTP186	ltpFR	10	n/a	n/a	n/a	n/a	n/a	n/a	n/a	15	5	6	4	n/a	n/a	n/a	n/a	n/a
2403.434	n/a	STOP	1201717	n/a	LTP186	ltpFR	10	n/a	n/a	n/a	n/a	n/a	n/a	n/a	n/a	n/a	n/a	n/a	n/a	n/a	n/a	n/a	n/a
2405.636	n/a	WORD	1202818	wordpools/wasnorm_wordpool_less_exclusions.txt	LTP186	ltpFR	10	10	0	CAMERA	224	n/a	n/a	1	n/a	0	0	0	0.57763671875	0.412841796875	1	lower	zerothre.ttf
2408.648	n/a	START	1204324	n/a	LTP186	ltpFR	10	n/a	n/a	n/a	n/a	n/a	n/a	n/a	n/a	n/a	n/a	n/a	n/a	n/a	n/a	n/a	n/a
2409.564	n/a	PROB	1204782	n/a	LTP186	ltpFR	10	n/a	n/a	n/a	n/a	n/a	n/a	n/a	14	3	8	3	n/a	n/a	n/a	n/a	n/a
2416.022	n/a	PROB	1208011	n/a	LTP186	ltpFR	10	n/a	n/a	n/a	n/a	n/a	n/a	n/a	17	8	4	5	n/a	n/a	n/a	n/a	n/a
2418.85	n/a	PROB	1209425	n/a	LTP186	ltpFR	10	n/a	n/a	n/a	n/a	n/a	n/a	n/a	19	6	4	9	n/a	n/a	n/a	n/a	n/a
2420.098	n/a	PROB	1210049	n/a	LTP186	ltpFR	10	n/a	n/a	n/a	n/a	n/a	n/a	n/a	20	6	9	5	n/a	n/a	n/a	n/a	n/a
2421.962	n/a	PROB	1210981	n/a	LTP186	ltpFR	10	n/a	n/a	n/a	n/a	n/a	n/a	n/a	26	9	9	8	n/a	n/a	n/a	n/a	n/a
2423.57	n/a	STOP	1211785	n/a	LTP186	ltpFR	10	n/a	n/a	n/a	n/a	n/a	n/a	n/a	n/a	n/a	n/a	n/a	n/a	n/a	n/a	n/a	n/a
2425.656	n/a	WORD	1212828	wordpools/wasnorm_wordpool_less_exclusions.txt	LTP186	ltpFR	10	10	0	WAITRESS	1581	n/a	n/a	3	n/a	0	0	0	0.57763671875	0.412841796875	1	lower	zerothre.ttf
2426.522	n/a	KEY_MSG	1213261	n/a	LTP186	ltpFR	10	10	n/a	n/a	n/a	n/a	n/a	n/a	n/a	0	0	0	n/a	n/a	n/a	n/a	n/a
2428.668	n/a	START	1214334	n/a	LTP186	ltpFR	10	n/a	n/a	n/a	n/a	n/a	n/a	n/a	n/a	n/a	n/a	n/a	n/a	n/a	n/a	n/a	n/a
2429.868	n/a	PROB	1214934	n/a	LTP186	ltpFR	10	n/a	n/a	n/a	n/a	n/a	n/a	n/a	17	6	6	5	n/a	n/a	n/a	n/a	n/a
2432.18	n/a	PROB	1216090	n/a	LTP186	ltpFR	10	n/a	n/a	n/a	n/a	n/a	n/a	n/a	17	2	9	6	n/a	n/a	n/a	n/a	n/a
2444.67	n/a	STOP	1222335	n/a	LTP186	ltpFR	10	n/a	n/a	n/a	n/a	n/a	n/a	n/a	n/a	n/a	n/a	n/a	n/a	n/a	n/a	n/a	n/a
2445.528	n/a	WORD	1222764	wordpools/wasnorm_wordpool_less_exclusions.txt	LTP186	ltpFR	10	10	0	WALL	1582	n/a	n/a	1	n/a	0	0	0	0.57763671875	0.412841796875	1	lower	zerothre.ttf
2448.54	n/a	START	1224270	n/a	LTP186	ltpFR	10	n/a	n/a	n/a	n/a	n/a	n/a	n/a	n/a	n/a	n/a	n/a	n/a	n/a	n/a	n/a	n/a
2449.538	n/a	PROB	1224769	n/a	LTP186	ltpFR	10	n/a	n/a	n/a	n/a	n/a	n/a	n/a	11	2	7	2	n/a	n/a	n/a	n/a	n/a
2451.518	n/a	PROB	1225759	n/a	LTP186	ltpFR	10	n/a	n/a	n/a	n/a	n/a	n/a	n/a	7	2	1	4	n/a	n/a	n/a	n/a	n/a
2453.216	n/a	PROB	1226608	n/a	LTP186	ltpFR	10	n/a	n/a	n/a	n/a	n/a	n/a	n/a	23	8	8	7	n/a	n/a	n/a	n/a	n/a
2454.93	n/a	PROB	1227465	n/a	LTP186	ltpFR	10	n/a	n/a	n/a	n/a	n/a	n/a	n/a	14	6	4	4	n/a	n/a	n/a	n/a	n/a
2456.03	n/a	PROB	1228015	n/a	LTP186	ltpFR	10	n/a	n/a	n/a	n/a	n/a	n/a	n/a	21	7	6	8	n/a	n/a	n/a	n/a	n/a
2458.126	n/a	PROB	1229063	n/a	LTP186	ltpFR	10	n/a	n/a	n/a	n/a	n/a	n/a	n/a	14	9	4	1	n/a	n/a	n/a	n/a	n/a
2459.258	n/a	PROB	1229629	n/a	LTP186	ltpFR	10	n/a	n/a	n/a	n/a	n/a	n/a	n/a	10	3	4	3	n/a	n/a	n/a	n/a	n/a
2460.856	n/a	PROB	1230428	n/a	LTP186	ltpFR	10	n/a	n/a	n/a	n/a	n/a	n/a	n/a	19	1	9	9	n/a	n/a	n/a	n/a	n/a
2462.004	n/a	PROB	1231002	n/a	LTP186	ltpFR	10	n/a	n/a	n/a	n/a	n/a	n/a	n/a	22	7	7	8	n/a	n/a	n/a	n/a	n/a
2463.642	n/a	STOP	1231821	n/a	LTP186	ltpFR	10	n/a	n/a	n/a	n/a	n/a	n/a	n/a	n/a	n/a	n/a	n/a	n/a	n/a	n/a	n/a	n/a
2465.664	n/a	WORD	1232832	wordpools/wasnorm_wordpool_less_exclusions.txt	LTP186	ltpFR	10	10	0	CONCRETE	361	n/a	n/a	1	n/a	0	0	0	0.57763671875	0.412841796875	1	lower	zerothre.ttf
2468.676	n/a	START	1234338	n/a	LTP186	ltpFR	10	n/a	n/a	n/a	n/a	n/a	n/a	n/a	n/a	n/a	n/a	n/a	n/a	n/a	n/a	n/a	n/a
2469.508	n/a	PROB	1234754	n/a	LTP186	ltpFR	10	n/a	n/a	n/a	n/a	n/a	n/a	n/a	15	2	6	7	n/a	n/a	n/a	n/a	n/a
2472.538	n/a	PROB	1236269	n/a	LTP186	ltpFR	10	n/a	n/a	n/a	n/a	n/a	n/a	n/a	13	1	6	6	n/a	n/a	n/a	n/a	n/a
2474.02	n/a	PROB	1237010	n/a	LTP186	ltpFR	10	n/a	n/a	n/a	n/a	n/a	n/a	n/a	21	9	5	7	n/a	n/a	n/a	n/a	n/a
2475.482	n/a	PROB	1237741	n/a	LTP186	ltpFR	10	n/a	n/a	n/a	n/a	n/a	n/a	n/a	7	4	2	1	n/a	n/a	n/a	n/a	n/a
2477.048	n/a	PROB	1238524	n/a	LTP186	ltpFR	10	n/a	n/a	n/a	n/a	n/a	n/a	n/a	15	9	5	1	n/a	n/a	n/a	n/a	n/a
2478.262	n/a	PROB	1239131	n/a	LTP186	ltpFR	10	n/a	n/a	n/a	n/a	n/a	n/a	n/a	12	7	1	4	n/a	n/a	n/a	n/a	n/a
2479.494	n/a	PROB	1239747	n/a	LTP186	ltpFR	10	n/a	n/a	n/a	n/a	n/a	n/a	n/a	23	6	8	9	n/a	n/a	n/a	n/a	n/a
2480.674	n/a	PROB	1240337	n/a	LTP186	ltpFR	10	n/a	n/a	n/a	n/a	n/a	n/a	n/a	11	2	4	5	n/a	n/a	n/a	n/a	n/a
2482.79	n/a	PROB	1241395	n/a	LTP186	ltpFR	10	n/a	n/a	n/a	n/a	n/a	n/a	n/a	14	5	7	2	n/a	n/a	n/a	n/a	n/a
2483.972	n/a	STOP	1241986	n/a	LTP186	ltpFR	10	n/a	n/a	n/a	n/a	n/a	n/a	n/a	n/a	n/a	n/a	n/a	n/a	n/a	n/a	n/a	n/a
2485.518	n/a	WORD	1242759	wordpools/wasnorm_wordpool_less_exclusions.txt	LTP186	ltpFR	10	10	0	CHECK	284	n/a	n/a	0	n/a	0	0	0	0.57763671875	0.412841796875	1	lower	zerothre.ttf
2488.53	n/a	START	1244265	n/a	LTP186	ltpFR	10	n/a	n/a	n/a	n/a	n/a	n/a	n/a	n/a	n/a	n/a	n/a	n/a	n/a	n/a	n/a	n/a
2489.38	n/a	PROB	1244690	n/a	LTP186	ltpFR	10	n/a	n/a	n/a	n/a	n/a	n/a	n/a	15	6	7	2	n/a	n/a	n/a	n/a	n/a
2494.206	n/a	PROB	1247103	n/a	LTP186	ltpFR	10	n/a	n/a	n/a	n/a	n/a	n/a	n/a	17	5	6	6	n/a	n/a	n/a	n/a	n/a
2496.336	n/a	PROB	1248168	n/a	LTP186	ltpFR	10	n/a	n/a	n/a	n/a	n/a	n/a	n/a	11	3	3	5	n/a	n/a	n/a	n/a	n/a
2497.632	n/a	PROB	1248816	n/a	LTP186	ltpFR	10	n/a	n/a	n/a	n/a	n/a	n/a	n/a	14	9	4	1	n/a	n/a	n/a	n/a	n/a
2498.982	n/a	PROB	1249491	n/a	LTP186	ltpFR	10	n/a	n/a	n/a	n/a	n/a	n/a	n/a	10	2	4	4	n/a	n/a	n/a	n/a	n/a
2500.396	n/a	PROB	1250198	n/a	LTP186	ltpFR	10	n/a	n/a	n/a	n/a	n/a	n/a	n/a	13	4	8	1	n/a	n/a	n/a	n/a	n/a
2501.86	n/a	PROB	1250930	n/a	LTP186	ltpFR	10	n/a	n/a	n/a	n/a	n/a	n/a	n/a	15	9	4	2	n/a	n/a	n/a	n/a	n/a
2503.18	n/a	STOP	1251590	n/a	LTP186	ltpFR	10	n/a	n/a	n/a	n/a	n/a	n/a	n/a	n/a	n/a	n/a	n/a	n/a	n/a	n/a	n/a	n/a
2505.488	n/a	WORD	1252744	wordpools/wasnorm_wordpool_less_exclusions.txt	LTP186	ltpFR	10	10	0	DESSERT	453	n/a	n/a	0	n/a	0	0	0	0.57763671875	0.412841796875	1	lower	zerothre.ttf
2508.5	n/a	START	1254250	n/a	LTP186	ltpFR	10	n/a	n/a	n/a	n/a	n/a	n/a	n/a	n/a	n/a	n/a	n/a	n/a	n/a	n/a	n/a	n/a
2509.416	n/a	PROB	1254708	n/a	LTP186	ltpFR	10	n/a	n/a	n/a	n/a	n/a	n/a	n/a	18	6	9	3	n/a	n/a	n/a	n/a	n/a
2513.012	n/a	PROB	1256506	n/a	LTP186	ltpFR	10	n/a	n/a	n/a	n/a	n/a	n/a	n/a	21	8	7	6	n/a	n/a	n/a	n/a	n/a
2516.538	n/a	PROB	1258269	n/a	LTP186	ltpFR	10	n/a	n/a	n/a	n/a	n/a	n/a	n/a	5	2	1	2	n/a	n/a	n/a	n/a	n/a
2517.588	n/a	PROB	1258794	n/a	LTP186	ltpFR	10	n/a	n/a	n/a	n/a	n/a	n/a	n/a	15	3	8	4	n/a	n/a	n/a	n/a	n/a
2519.752	n/a	PROB	1259876	n/a	LTP186	ltpFR	10	n/a	n/a	n/a	n/a	n/a	n/a	n/a	16	9	6	1	n/a	n/a	n/a	n/a	n/a
2521.732	n/a	PROB	1260866	n/a	LTP186	ltpFR	10	n/a	n/a	n/a	n/a	n/a	n/a	n/a	11	3	5	3	n/a	n/a	n/a	n/a	n/a
2523.348	n/a	STOP	1261674	n/a	LTP186	ltpFR	10	n/a	n/a	n/a	n/a	n/a	n/a	n/a	n/a	n/a	n/a	n/a	n/a	n/a	n/a	n/a	n/a
2525.526	n/a	WORD	1262763	wordpools/wasnorm_wordpool_less_exclusions.txt	LTP186	ltpFR	10	10	0	ZUCCHINI	1638	n/a	n/a	0	n/a	0	0	0	0.57763671875	0.412841796875	1	lower	zerothre.ttf
2528.538	n/a	START	1264269	n/a	LTP186	ltpFR	10	n/a	n/a	n/a	n/a	n/a	n/a	n/a	n/a	n/a	n/a	n/a	n/a	n/a	n/a	n/a	n/a
2529.586	n/a	PROB	1264793	n/a	LTP186	ltpFR	10	n/a	n/a	n/a	n/a	n/a	n/a	n/a	23	9	8	6	n/a	n/a	n/a	n/a	n/a
2540.038	n/a	PROB	1270019	n/a	LTP186	ltpFR	10	n/a	n/a	n/a	n/a	n/a	n/a	n/a	11	1	7	3	n/a	n/a	n/a	n/a	n/a
2541.452	n/a	PROB	1270726	n/a	LTP186	ltpFR	10	n/a	n/a	n/a	n/a	n/a	n/a	n/a	11	1	2	8	n/a	n/a	n/a	n/a	n/a
2542.934	n/a	PROB	1271467	n/a	LTP186	ltpFR	10	n/a	n/a	n/a	n/a	n/a	n/a	n/a	13	5	5	3	n/a	n/a	n/a	n/a	n/a
2543.86	n/a	STOP	1271930	n/a	LTP186	ltpFR	10	n/a	n/a	n/a	n/a	n/a	n/a	n/a	n/a	n/a	n/a	n/a	n/a	n/a	n/a	n/a	n/a
2545.728	n/a	WORD	1272864	wordpools/wasnorm_wordpool_less_exclusions.txt	LTP186	ltpFR	10	10	0	CHEF	290	n/a	n/a	1	n/a	0	0	0	0.57763671875	0.412841796875	1	lower	zerothre.ttf
2548.742	n/a	START	1274371	n/a	LTP186	ltpFR	10	n/a	n/a	n/a	n/a	n/a	n/a	n/a	n/a	n/a	n/a	n/a	n/a	n/a	n/a	n/a	n/a
2549.874	n/a	PROB	1274937	n/a	LTP186	ltpFR	10	n/a	n/a	n/a	n/a	n/a	n/a	n/a	13	1	8	4	n/a	n/a	n/a	n/a	n/a
2553.168	n/a	PROB	1276584	n/a	LTP186	ltpFR	10	n/a	n/a	n/a	n/a	n/a	n/a	n/a	11	5	4	2	n/a	n/a	n/a	n/a	n/a
2554.682	n/a	PROB	1277341	n/a	LTP186	ltpFR	10	n/a	n/a	n/a	n/a	n/a	n/a	n/a	15	2	7	6	n/a	n/a	n/a	n/a	n/a
2555.782	n/a	PROB	1277891	n/a	LTP186	ltpFR	10	n/a	n/a	n/a	n/a	n/a	n/a	n/a	13	7	2	4	n/a	n/a	n/a	n/a	n/a
2557.346	n/a	PROB	1278673	n/a	LTP186	ltpFR	10	n/a	n/a	n/a	n/a	n/a	n/a	n/a	15	7	6	2	n/a	n/a	n/a	n/a	n/a
2558.576	n/a	PROB	1279288	n/a	LTP186	ltpFR	10	n/a	n/a	n/a	n/a	n/a	n/a	n/a	24	8	8	8	n/a	n/a	n/a	n/a	n/a
2559.776	n/a	PROB	1279888	n/a	LTP186	ltpFR	10	n/a	n/a	n/a	n/a	n/a	n/a	n/a	21	3	9	9	n/a	n/a	n/a	n/a	n/a
2561.39	n/a	PROB	1280695	n/a	LTP186	ltpFR	10	n/a	n/a	n/a	n/a	n/a	n/a	n/a	13	6	2	5	n/a	n/a	n/a	n/a	n/a
2563.604	n/a	STOP	1281802	n/a	LTP186	ltpFR	10	n/a	n/a	n/a	n/a	n/a	n/a	n/a	n/a	n/a	n/a	n/a	n/a	n/a	n/a	n/a	n/a
2566.498	n/a	REC_START	1283249	n/a	LTP186	ltpFR	10	10	n/a	n/a	n/a	n/a	n/a	n/a	n/a	0	0	0	n/a	n/a	n/a	n/a	n/a
2567.92	n/a	REC_WORD	1283960	wordpools/wasnorm_wordpool_less_exclusions.txt	LTP186	ltpFR	10	10	0	CHEF	290	n/a	n/a	1	n/a	0	0	0	n/a	n/a	n/a	n/a	n/a
2568.592	n/a	REC_WORD	1284296	wordpools/wasnorm_wordpool_less_exclusions.txt	LTP186	ltpFR	10	10	0	ZUCCHINI	1638	n/a	n/a	0	n/a	0	0	0	n/a	n/a	n/a	n/a	n/a
2571.192	n/a	REC_WORD	1285596	wordpools/wasnorm_wordpool_less_exclusions.txt	LTP186	ltpFR	10	10	0	BUILDING	191	n/a	n/a	1	n/a	0	0	0	n/a	n/a	n/a	n/a	n/a
2573.138	n/a	REC_WORD	1286569	wordpools/wasnorm_wordpool_less_exclusions.txt	LTP186	ltpFR	10	10	0	CONCRETE	361	n/a	n/a	1	n/a	0	0	0	n/a	n/a	n/a	n/a	n/a
2574.97	n/a	REC_WORD	1287485	wordpools/wasnorm_wordpool_less_exclusions.txt	LTP186	ltpFR	10	10	0	WALL	1582	n/a	n/a	1	n/a	0	0	0	n/a	n/a	n/a	n/a	n/a
2605.272	n/a	REC_WORD	1302636	wordpools/wasnorm_wordpool_less_exclusions.txt	LTP186	ltpFR	10	10	0	POLITICIAN	1099	n/a	n/a	1	n/a	0	0	0	n/a	n/a	n/a	n/a	n/a
2606.642	n/a	REC_WORD	1303321	wordpools/wasnorm_wordpool_less_exclusions.txt	LTP186	ltpFR	10	10	0	CANDIDATE	228	n/a	n/a	1	n/a	0	0	0	n/a	n/a	n/a	n/a	n/a
2610.968	n/a	REC_WORD	1305484	wordpools/wasnorm_wordpool_less_exclusions.txt	LTP186	ltpFR	10	10	0	WAITRESS	1581	n/a	n/a	3	n/a	0	0	0	n/a	n/a	n/a	n/a	n/a
2614.356	n/a	REC_WORD	1307178	wordpools/wasnorm_wordpool_less_exclusions.txt	LTP186	ltpFR	10	10	n/a	RECEIPT	1173	n/a	n/a	n/a	n/a	0	0	0	n/a	n/a	n/a	n/a	n/a
2642.086	n/a	REST_REWET	1321043	n/a	LTP186	ltpFR	10	10	n/a	n/a	n/a	n/a	n/a	n/a	n/a	0	0	0	n/a	n/a	n/a	n/a	n/a
2976.092	n/a	WORD	1488046	wordpools/wasnorm_wordpool_less_exclusions.txt	LTP186	ltpFR	10	11	0	CHISEL	305	n/a	n/a	0	n/a	0	0	0	0.57763671875	0.412841796875	1	lower	zerothre.ttf
2980.004	n/a	WORD	1490002	wordpools/wasnorm_wordpool_less_exclusions.txt	LTP186	ltpFR	10	11	0	CARPENTER	246	n/a	n/a	1	n/a	0	0	0	0.57763671875	0.412841796875	1	lower	zerothre.ttf
2984.014	n/a	WORD	1492007	wordpools/wasnorm_wordpool_less_exclusions.txt	LTP186	ltpFR	10	11	0	FIREPLACE	570	n/a	n/a	1	n/a	0	0	0	0.57763671875	0.412841796875	1	lower	zerothre.ttf
2988.008	n/a	WORD	1494004	wordpools/wasnorm_wordpool_less_exclusions.txt	LTP186	ltpFR	10	11	0	BOXER	160	n/a	n/a	1	n/a	0	0	0	0.57763671875	0.412841796875	1	lower	zerothre.ttf
2992.036	n/a	WORD	1496018	wordpools/wasnorm_wordpool_less_exclusions.txt	LTP186	ltpFR	10	11	1	TRASH	1497	n/a	n/a	0	n/a	0	0	0	0.422607421875	0.5869140625	0	upper	amplitud.ttf
2996.146	n/a	WORD	1498073	wordpools/wasnorm_wordpool_less_exclusions.txt	LTP186	ltpFR	10	11	1	HEATER	698	n/a	n/a	0	n/a	0	0	0	0.422607421875	0.5869140625	0	upper	amplitud.ttf
3000.106	n/a	WORD	1500053	wordpools/wasnorm_wordpool_less_exclusions.txt	LTP186	ltpFR	10	11	1	KIWI	781	n/a	n/a	0	n/a	0	0	0	0.422607421875	0.5869140625	0	upper	amplitud.ttf
3004.25	n/a	WORD	1502125	wordpools/wasnorm_wordpool_less_exclusions.txt	LTP186	ltpFR	10	11	1	LAWYER	806	n/a	n/a	1	n/a	0	0	0	0.422607421875	0.5869140625	0	upper	amplitud.ttf
3008.394	n/a	WORD	1504197	wordpools/wasnorm_wordpool_less_exclusions.txt	LTP186	ltpFR	10	11	0	TELEVISION	1447	n/a	n/a	1	n/a	0	0	0	0.57763671875	0.412841796875	1	lower	zerothre.ttf
3012.42	n/a	WORD	1506210	wordpools/wasnorm_wordpool_less_exclusions.txt	LTP186	ltpFR	10	11	0	POPCORN	1104	n/a	n/a	0	n/a	0	0	0	0.57763671875	0.412841796875	1	lower	zerothre.ttf
3016.582	n/a	WORD	1508291	wordpools/wasnorm_wordpool_less_exclusions.txt	LTP186	ltpFR	10	11	0	REBEL	1172	n/a	n/a	1	n/a	0	0	0	0.57763671875	0.412841796875	1	lower	zerothre.ttf
3020.41	n/a	WORD	1510205	wordpools/wasnorm_wordpool_less_exclusions.txt	LTP186	ltpFR	10	11	0	OFFICER	973	n/a	n/a	1	n/a	0	0	0	0.57763671875	0.412841796875	1	lower	zerothre.ttf
3024.404	n/a	WORD	1512202	wordpools/wasnorm_wordpool_less_exclusions.txt	LTP186	ltpFR	10	11	1	GUARD	667	n/a	n/a	1	n/a	0	0	0	0.422607421875	0.5869140625	0	upper	amplitud.ttf
3028.348	n/a	WORD	1514174	wordpools/wasnorm_wordpool_less_exclusions.txt	LTP186	ltpFR	10	11	1	RASPBERRY	1168	n/a	n/a	0	n/a	0	0	0	0.422607421875	0.5869140625	0	upper	amplitud.ttf
3032.376	n/a	WORD	1516188	wordpools/wasnorm_wordpool_less_exclusions.txt	LTP186	ltpFR	10	11	1	PRINTER	1126	n/a	n/a	0	n/a	0	0	0	0.422607421875	0.5869140625	0	upper	amplitud.ttf
3036.584	n/a	WORD	1518292	wordpools/wasnorm_wordpool_less_exclusions.txt	LTP186	ltpFR	10	11	1	KETTLE	772	n/a	n/a	0	n/a	0	0	0	0.422607421875	0.5869140625	0	upper	amplitud.ttf
3042.328	n/a	REC_START	1521164	n/a	LTP186	ltpFR	10	11	n/a	n/a	n/a	n/a	n/a	n/a	n/a	0	0	0	n/a	n/a	n/a	n/a	n/a
3045.062	n/a	REC_WORD	1522531	wordpools/wasnorm_wordpool_less_exclusions.txt	LTP186	ltpFR	10	11	0	CARPENTER	246	n/a	n/a	1	n/a	0	0	0	n/a	n/a	n/a	n/a	n/a
3045.9	n/a	REC_WORD	1522950	wordpools/wasnorm_wordpool_less_exclusions.txt	LTP186	ltpFR	10	11	0	CHISEL	305	n/a	n/a	0	n/a	0	0	0	n/a	n/a	n/a	n/a	n/a
3047.282	n/a	REC_WORD	1523641	wordpools/wasnorm_wordpool_less_exclusions.txt	LTP186	ltpFR	10	11	0	BOXER	160	n/a	n/a	1	n/a	0	0	0	n/a	n/a	n/a	n/a	n/a
3048.424	n/a	REC_WORD	1524212	wordpools/wasnorm_wordpool_less_exclusions.txt	LTP186	ltpFR	10	11	0	FIREPLACE	570	n/a	n/a	1	n/a	0	0	0	n/a	n/a	n/a	n/a	n/a
3049.424	n/a	REC_WORD_VV	1524712	wordpools/wasnorm_wordpool_less_exclusions.txt	LTP186	ltpFR	10	11	n/a	<>	-1	n/a	n/a	n/a	n/a	0	0	0	n/a	n/a	n/a	n/a	n/a
3055.104	n/a	REC_WORD	1527552	wordpools/wasnorm_wordpool_less_exclusions.txt	LTP186	ltpFR	10	11	1	LAWYER	806	n/a	n/a	1	n/a	0	0	0	n/a	n/a	n/a	n/a	n/a
3055.638	n/a	REC_WORD	1527819	wordpools/wasnorm_wordpool_less_exclusions.txt	LTP186	ltpFR	10	11	0	POPCORN	1104	n/a	n/a	0	n/a	0	0	0	n/a	n/a	n/a	n/a	n/a
3056.52	n/a	REC_WORD	1528260	wordpools/wasnorm_wordpool_less_exclusions.txt	LTP186	ltpFR	10	11	0	OFFICER	973	n/a	n/a	1	n/a	0	0	0	n/a	n/a	n/a	n/a	n/a
3057.488	n/a	REC_WORD	1528744	wordpools/wasnorm_wordpool_less_exclusions.txt	LTP186	ltpFR	10	11	0	REBEL	1172	n/a	n/a	1	n/a	0	0	0	n/a	n/a	n/a	n/a	n/a
3058.572	n/a	REC_WORD	1529286	wordpools/wasnorm_wordpool_less_exclusions.txt	LTP186	ltpFR	10	11	1	GUARD	667	n/a	n/a	1	n/a	0	0	0	n/a	n/a	n/a	n/a	n/a
3061.366	n/a	REC_WORD	1530683	wordpools/wasnorm_wordpool_less_exclusions.txt	LTP186	ltpFR	10	11	1	KIWI	781	n/a	n/a	0	n/a	0	0	0	n/a	n/a	n/a	n/a	n/a
3064.228	n/a	REC_WORD	1532114	wordpools/wasnorm_wordpool_less_exclusions.txt	LTP186	ltpFR	10	11	1	RASPBERRY	1168	n/a	n/a	0	n/a	0	0	0	n/a	n/a	n/a	n/a	n/a
3069.956	n/a	REC_WORD	1534978	wordpools/wasnorm_wordpool_less_exclusions.txt	LTP186	ltpFR	10	11	1	TRASH	1497	n/a	n/a	0	n/a	0	0	0	n/a	n/a	n/a	n/a	n/a
3071.112	n/a	REC_WORD	1535556	wordpools/wasnorm_wordpool_less_exclusions.txt	LTP186	ltpFR	10	11	0	FIREPLACE	570	n/a	n/a	1	n/a	0	0	0	n/a	n/a	n/a	n/a	n/a
3072.112	n/a	REC_WORD_VV	1536056	wordpools/wasnorm_wordpool_less_exclusions.txt	LTP186	ltpFR	10	11	n/a	<>	-1	n/a	n/a	n/a	n/a	0	0	0	n/a	n/a	n/a	n/a	n/a
3076.616	n/a	REC_WORD	1538308	wordpools/wasnorm_wordpool_less_exclusions.txt	LTP186	ltpFR	10	11	1	HEATER	698	n/a	n/a	0	n/a	0	0	0	n/a	n/a	n/a	n/a	n/a
3097.672	n/a	REC_WORD	1548836	wordpools/wasnorm_wordpool_less_exclusions.txt	LTP186	ltpFR	10	11	0	TELEVISION	1447	n/a	n/a	1	n/a	0	0	0	n/a	n/a	n/a	n/a	n/a
3107.674	n/a	REC_WORD	1553837	wordpools/wasnorm_wordpool_less_exclusions.txt	LTP186	ltpFR	10	11	0	POPCORN	1104	n/a	n/a	0	n/a	0	0	0	n/a	n/a	n/a	n/a	n/a
3108.298	n/a	REC_WORD	1554149	wordpools/wasnorm_wordpool_less_exclusions.txt	LTP186	ltpFR	10	11	0	REBEL	1172	n/a	n/a	1	n/a	0	0	0	n/a	n/a	n/a	n/a	n/a
3133.16	n/a	START	1566580	n/a	LTP186	ltpFR	10	n/a	n/a	n/a	n/a	n/a	n/a	n/a	n/a	n/a	n/a	n/a	n/a	n/a	n/a	n/a	n/a
3134.674	n/a	PROB	1567337	n/a	LTP186	ltpFR	10	n/a	n/a	n/a	n/a	n/a	n/a	n/a	8	1	3	5	n/a	n/a	n/a	n/a	n/a
