onset	duration	trial_type	sample	stim_file	subject	experiment	session	trial	item_name	item_num	list	answer	test_x	test_y	test_z
226.0517578125	n/a	SESS_START	462954	n/a	LTP376	ltpFR2	3	n/a	n/a	n/a	n/a	n/a	0	0	0
259.98779296875	n/a	START	532455	n/a	LTP376	ltpFR2	3	n/a	n/a	n/a	-1	n/a	n/a	n/a	n/a
260.017578125	n/a	PROB	532516	n/a	LTP376	ltpFR2	3	n/a	n/a	n/a	-1	19	1	9	9
263.08251953125	n/a	PROB	538793	n/a	LTP376	ltpFR2	3	n/a	n/a	n/a	-1	6	1	4	1
264.58251953125	n/a	PROB	541865	n/a	LTP376	ltpFR2	3	n/a	n/a	n/a	-1	17	9	3	5
271.9873046875	n/a	STOP	557030	n/a	LTP376	ltpFR2	3	n/a	n/a	n/a	-1	n/a	n/a	n/a	n/a
324.06982421875	n/a	DISTRACTOR	663695	n/a	LTP376	ltpFR2	3	1	n/a	n/a	n/a	n/a	0	0	0
324.06982421875	n/a	START	663695	n/a	LTP376	ltpFR2	3	n/a	n/a	n/a	1	n/a	n/a	n/a	n/a
324.0859375	n/a	PROB	663728	n/a	LTP376	ltpFR2	3	n/a	n/a	n/a	1	11	2	5	4
327.31787109375	n/a	PROB	670347	n/a	LTP376	ltpFR2	3	n/a	n/a	n/a	1	20	3	8	9
331.0498046875	n/a	PROB	677990	n/a	LTP376	ltpFR2	3	n/a	n/a	n/a	1	24	7	8	9
334.66455078125	n/a	PROB	685393	n/a	LTP376	ltpFR2	3	n/a	n/a	n/a	1	19	7	6	8
339.8955078125	n/a	PROB	696106	n/a	LTP376	ltpFR2	3	n/a	n/a	n/a	1	12	3	2	7
341.92724609375	n/a	PROB	700267	n/a	LTP376	ltpFR2	3	n/a	n/a	n/a	1	14	2	9	2
348.06884765625	n/a	STOP	712845	n/a	LTP376	ltpFR2	3	n/a	n/a	n/a	1	n/a	n/a	n/a	n/a
349.08984375	n/a	WORD	714936	wordpools/wasnorm_wordpool_576.txt	LTP376	ltpFR2	3	1	GRIZZLY	662	n/a	n/a	0	0	0
351.55615234375	n/a	WORD	719987	wordpools/wasnorm_wordpool_576.txt	LTP376	ltpFR2	3	1	LEOPARD	812	n/a	n/a	0	0	0
354.087890625	n/a	WORD	725172	wordpools/wasnorm_wordpool_576.txt	LTP376	ltpFR2	3	1	BEAVER	109	n/a	n/a	0	0	0
356.8369140625	n/a	WORD	730802	wordpools/wasnorm_wordpool_576.txt	LTP376	ltpFR2	3	1	BADGE	68	n/a	n/a	0	0	0
359.28564453125	n/a	WORD	735817	wordpools/wasnorm_wordpool_576.txt	LTP376	ltpFR2	3	1	COUNTY	389	n/a	n/a	0	0	0
361.767578125	n/a	WORD	740900	wordpools/wasnorm_wordpool_576.txt	LTP376	ltpFR2	3	1	LION	827	n/a	n/a	0	0	0
364.56640625	n/a	WORD	746632	wordpools/wasnorm_wordpool_576.txt	LTP376	ltpFR2	3	1	COD	340	n/a	n/a	0	0	0
367.19873046875	n/a	WORD	752023	wordpools/wasnorm_wordpool_576.txt	LTP376	ltpFR2	3	1	CLAMP	316	n/a	n/a	0	0	0
369.88037109375	n/a	WORD	757515	wordpools/wasnorm_wordpool_576.txt	LTP376	ltpFR2	3	1	PANTHER	1009	n/a	n/a	0	0	0
372.3623046875	n/a	WORD	762598	wordpools/wasnorm_wordpool_576.txt	LTP376	ltpFR2	3	1	SURVEY	1414	n/a	n/a	0	0	0
374.87841796875	n/a	WORD	767751	wordpools/wasnorm_wordpool_576.txt	LTP376	ltpFR2	3	1	SHORTCAKE	1292	n/a	n/a	0	0	0
377.4443359375	n/a	WORD	773006	wordpools/wasnorm_wordpool_576.txt	LTP376	ltpFR2	3	1	APPLE	33	n/a	n/a	0	0	0
380.0751953125	n/a	WORD	778394	wordpools/wasnorm_wordpool_576.txt	LTP376	ltpFR2	3	1	ASIA	46	n/a	n/a	0	0	0
382.7568359375	n/a	WORD	783886	wordpools/wasnorm_wordpool_576.txt	LTP376	ltpFR2	3	1	ROBBER	1197	n/a	n/a	0	0	0
385.18896484375	n/a	WORD	788867	wordpools/wasnorm_wordpool_576.txt	LTP376	ltpFR2	3	1	STAMP	1370	n/a	n/a	0	0	0
387.73779296875	n/a	WORD	794087	wordpools/wasnorm_wordpool_576.txt	LTP376	ltpFR2	3	1	LADY	794	n/a	n/a	0	0	0
390.20361328125	n/a	WORD	799137	wordpools/wasnorm_wordpool_576.txt	LTP376	ltpFR2	3	1	WORLD	1622	n/a	n/a	0	0	0
392.8359375	n/a	WORD	804528	wordpools/wasnorm_wordpool_576.txt	LTP376	ltpFR2	3	1	COOK	372	n/a	n/a	0	0	0
395.384765625	n/a	WORD	809748	wordpools/wasnorm_wordpool_576.txt	LTP376	ltpFR2	3	1	SEAL	1262	n/a	n/a	0	0	0
397.99951171875	n/a	WORD	815103	wordpools/wasnorm_wordpool_576.txt	LTP376	ltpFR2	3	1	MEDAL	885	n/a	n/a	0	0	0
400.4814453125	n/a	WORD	820186	wordpools/wasnorm_wordpool_576.txt	LTP376	ltpFR2	3	1	OUTLAW	989	n/a	n/a	0	0	0
403.04736328125	n/a	WORD	825441	wordpools/wasnorm_wordpool_576.txt	LTP376	ltpFR2	3	1	BARLEY	88	n/a	n/a	0	0	0
405.662109375	n/a	WORD	830796	wordpools/wasnorm_wordpool_576.txt	LTP376	ltpFR2	3	1	XEROX	1628	n/a	n/a	0	0	0
408.1943359375	n/a	WORD	835982	wordpools/wasnorm_wordpool_576.txt	LTP376	ltpFR2	3	1	TABLET	1427	n/a	n/a	0	0	0
409.81103515625	n/a	START	839293	n/a	LTP376	ltpFR2	3	n/a	n/a	n/a	2	n/a	n/a	n/a	n/a
410.82421875	n/a	DISTRACTOR	841368	n/a	LTP376	ltpFR2	3	1	n/a	n/a	n/a	n/a	0	0	0
410.8271484375	n/a	PROB	841374	n/a	LTP376	ltpFR2	3	n/a	n/a	n/a	2	15	9	9	3
414.5078125	n/a	PROB	848912	n/a	LTP376	ltpFR2	3	n/a	n/a	n/a	2	18	8	6	4
417.873046875	n/a	PROB	855804	n/a	LTP376	ltpFR2	3	n/a	n/a	n/a	2	17	8	6	3
421.0380859375	n/a	PROB	862286	n/a	LTP376	ltpFR2	3	n/a	n/a	n/a	2	18	8	4	6
422.720703125	n/a	PROB	865732	n/a	LTP376	ltpFR2	3	n/a	n/a	n/a	2	7	1	1	5
424.6025390625	n/a	PROB	869586	n/a	LTP376	ltpFR2	3	n/a	n/a	n/a	2	14	5	7	2
428.95068359375	n/a	PROB	878491	n/a	LTP376	ltpFR2	3	n/a	n/a	n/a	2	14	1	7	6
433.00048828125	n/a	STOP	886785	n/a	LTP376	ltpFR2	3	n/a	n/a	n/a	2	n/a	n/a	n/a	n/a
435.6484375	n/a	REC_START	892208	n/a	LTP376	ltpFR2	3	1	n/a	n/a	n/a	n/a	0	0	0
437.05224609375	n/a	REC_WORD	895083	wordpools/wasnorm_wordpool_576.txt	LTP376	ltpFR2	3	1	GRIZZLY	662	n/a	n/a	0	0	0
439.978515625	n/a	REC_WORD	901076	wordpools/wasnorm_wordpool_576.txt	LTP376	ltpFR2	3	1	BADGE	68	n/a	n/a	0	0	0
441.96142578125	n/a	REC_WORD	905137	wordpools/wasnorm_wordpool_576.txt	LTP376	ltpFR2	3	1	PANTHER	1009	n/a	n/a	0	0	0
443.73828125	n/a	REC_WORD	908776	wordpools/wasnorm_wordpool_576.txt	LTP376	ltpFR2	3	1	COUNTY	389	n/a	n/a	0	0	0
447.94189453125	n/a	REC_WORD	917385	wordpools/wasnorm_wordpool_576.txt	LTP376	ltpFR2	3	1	BARLEY	88	n/a	n/a	0	0	0
477.81787109375	n/a	REC_WORD	978571	wordpools/wasnorm_wordpool_576.txt	LTP376	ltpFR2	3	1	COD	340	n/a	n/a	0	0	0
497.21240234375	n/a	REC_WORD	1018291	wordpools/wasnorm_wordpool_576.txt	LTP376	ltpFR2	3	1	XEROX	1628	n/a	n/a	0	0	0
526.06982421875	n/a	DISTRACTOR	1077391	n/a	LTP376	ltpFR2	3	2	n/a	n/a	n/a	n/a	0	0	0
526.06982421875	n/a	START	1077391	n/a	LTP376	ltpFR2	3	n/a	n/a	n/a	3	n/a	n/a	n/a	n/a
526.08642578125	n/a	PROB	1077425	n/a	LTP376	ltpFR2	3	n/a	n/a	n/a	3	7	1	3	3
528.2353515625	n/a	PROB	1081826	n/a	LTP376	ltpFR2	3	n/a	n/a	n/a	3	11	8	2	1
529.8515625	n/a	PROB	1085136	n/a	LTP376	ltpFR2	3	n/a	n/a	n/a	3	17	8	3	6
533.06640625	n/a	PROB	1091720	n/a	LTP376	ltpFR2	3	n/a	n/a	n/a	3	24	6	8	8
536.08154296875	n/a	PROB	1097895	n/a	LTP376	ltpFR2	3	n/a	n/a	n/a	3	18	4	8	6
538.86328125	n/a	PROB	1103592	n/a	LTP376	ltpFR2	3	n/a	n/a	n/a	3	10	7	2	1
540.64599609375	n/a	PROB	1107243	n/a	LTP376	ltpFR2	3	n/a	n/a	n/a	3	19	4	6	9
546.06005859375	n/a	PROB	1118331	n/a	LTP376	ltpFR2	3	n/a	n/a	n/a	3	16	8	7	1
550.06884765625	n/a	STOP	1126541	n/a	LTP376	ltpFR2	3	n/a	n/a	n/a	3	n/a	n/a	n/a	n/a
550.94091796875	n/a	WORD	1128327	wordpools/wasnorm_wordpool_576.txt	LTP376	ltpFR2	3	2	BEEF	113	n/a	n/a	0	0	0
553.5556640625	n/a	WORD	1133682	wordpools/wasnorm_wordpool_576.txt	LTP376	ltpFR2	3	2	NAPKIN	937	n/a	n/a	0	0	0
556.20458984375	n/a	WORD	1139107	wordpools/wasnorm_wordpool_576.txt	LTP376	ltpFR2	3	2	COCOON	339	n/a	n/a	0	0	0
558.9697265625	n/a	WORD	1144770	wordpools/wasnorm_wordpool_576.txt	LTP376	ltpFR2	3	2	SPOON	1357	n/a	n/a	0	0	0
561.66845703125	n/a	WORD	1150297	wordpools/wasnorm_wordpool_576.txt	LTP376	ltpFR2	3	2	ARMY	39	n/a	n/a	0	0	0
564.484375	n/a	WORD	1156064	wordpools/wasnorm_wordpool_576.txt	LTP376	ltpFR2	3	2	HONEY	713	n/a	n/a	0	0	0
567.099609375	n/a	WORD	1161420	wordpools/wasnorm_wordpool_576.txt	LTP376	ltpFR2	3	2	MAPLE	866	n/a	n/a	0	0	0
569.814453125	n/a	WORD	1166980	wordpools/wasnorm_wordpool_576.txt	LTP376	ltpFR2	3	2	KNIFE	785	n/a	n/a	0	0	0
572.580078125	n/a	WORD	1172644	wordpools/wasnorm_wordpool_576.txt	LTP376	ltpFR2	3	2	SPACE	1345	n/a	n/a	0	0	0
575.3291015625	n/a	WORD	1178274	wordpools/wasnorm_wordpool_576.txt	LTP376	ltpFR2	3	2	COMET	353	n/a	n/a	0	0	0
577.8271484375	n/a	WORD	1183390	wordpools/wasnorm_wordpool_576.txt	LTP376	ltpFR2	3	2	DIME	466	n/a	n/a	0	0	0
580.56005859375	n/a	WORD	1188987	wordpools/wasnorm_wordpool_576.txt	LTP376	ltpFR2	3	2	HANDBAG	684	n/a	n/a	0	0	0
583.14208984375	n/a	WORD	1194275	wordpools/wasnorm_wordpool_576.txt	LTP376	ltpFR2	3	2	DUSTPAN	509	n/a	n/a	0	0	0
585.8740234375	n/a	WORD	1199870	wordpools/wasnorm_wordpool_576.txt	LTP376	ltpFR2	3	2	HATCHET	691	n/a	n/a	0	0	0
588.5888671875	n/a	WORD	1205430	wordpools/wasnorm_wordpool_576.txt	LTP376	ltpFR2	3	2	PLIERS	1089	n/a	n/a	0	0	0
591.3544921875	n/a	WORD	1211094	wordpools/wasnorm_wordpool_576.txt	LTP376	ltpFR2	3	2	TILE	1468	n/a	n/a	0	0	0
593.83642578125	n/a	WORD	1216177	wordpools/wasnorm_wordpool_576.txt	LTP376	ltpFR2	3	2	SPIDER	1351	n/a	n/a	0	0	0
596.6513671875	n/a	WORD	1221942	wordpools/wasnorm_wordpool_576.txt	LTP376	ltpFR2	3	2	IDOL	733	n/a	n/a	0	0	0
599.3505859375	n/a	WORD	1227470	wordpools/wasnorm_wordpool_576.txt	LTP376	ltpFR2	3	2	INFANT	737	n/a	n/a	0	0	0
602.08251953125	n/a	WORD	1233065	wordpools/wasnorm_wordpool_576.txt	LTP376	ltpFR2	3	2	FILM	565	n/a	n/a	0	0	0
604.6640625	n/a	WORD	1238352	wordpools/wasnorm_wordpool_576.txt	LTP376	ltpFR2	3	2	OZONE	996	n/a	n/a	0	0	0
607.26318359375	n/a	WORD	1243675	wordpools/wasnorm_wordpool_576.txt	LTP376	ltpFR2	3	2	PLAYGROUND	1087	n/a	n/a	0	0	0
609.92822265625	n/a	WORD	1249133	wordpools/wasnorm_wordpool_576.txt	LTP376	ltpFR2	3	2	PASTA	1021	n/a	n/a	0	0	0
612.66015625	n/a	WORD	1254728	wordpools/wasnorm_wordpool_576.txt	LTP376	ltpFR2	3	2	TOASTER	1472	n/a	n/a	0	0	0
614.27685546875	n/a	START	1258039	n/a	LTP376	ltpFR2	3	n/a	n/a	n/a	4	n/a	n/a	n/a	n/a
615.32275390625	n/a	DISTRACTOR	1260181	n/a	LTP376	ltpFR2	3	2	n/a	n/a	n/a	n/a	0	0	0
615.32568359375	n/a	PROB	1260187	n/a	LTP376	ltpFR2	3	n/a	n/a	n/a	4	10	1	2	7
617.224609375	n/a	PROB	1264076	n/a	LTP376	ltpFR2	3	n/a	n/a	n/a	4	16	1	8	7
619.3896484375	n/a	PROB	1268510	n/a	LTP376	ltpFR2	3	n/a	n/a	n/a	4	12	6	2	4
621.005859375	n/a	PROB	1271820	n/a	LTP376	ltpFR2	3	n/a	n/a	n/a	4	25	7	9	9
625.720703125	n/a	PROB	1281476	n/a	LTP376	ltpFR2	3	n/a	n/a	n/a	4	12	1	9	2
627.91943359375	n/a	PROB	1285979	n/a	LTP376	ltpFR2	3	n/a	n/a	n/a	4	7	4	2	1
630.068359375	n/a	PROB	1290380	n/a	LTP376	ltpFR2	3	n/a	n/a	n/a	4	18	6	5	7
634.6162109375	n/a	PROB	1299694	n/a	LTP376	ltpFR2	3	n/a	n/a	n/a	4	17	8	6	3
637.736328125	n/a	STOP	1306084	n/a	LTP376	ltpFR2	3	n/a	n/a	n/a	4	n/a	n/a	n/a	n/a
640.09814453125	n/a	REC_START	1310921	n/a	LTP376	ltpFR2	3	2	n/a	n/a	n/a	n/a	0	0	0
642.44189453125	n/a	REC_WORD	1315721	wordpools/wasnorm_wordpool_576.txt	LTP376	ltpFR2	3	2	PASTA	1021	n/a	n/a	0	0	0
643.7578125	n/a	REC_WORD	1318416	wordpools/wasnorm_wordpool_576.txt	LTP376	ltpFR2	3	2	TOASTER	1472	n/a	n/a	0	0	0
647.06396484375	n/a	REC_WORD	1325187	wordpools/wasnorm_wordpool_576.txt	LTP376	ltpFR2	3	2	TILE	1468	n/a	n/a	0	0	0
648.15771484375	n/a	REC_WORD	1327427	wordpools/wasnorm_wordpool_576.txt	LTP376	ltpFR2	3	2	SPIDER	1351	n/a	n/a	0	0	0
650.296875	n/a	REC_WORD	1331808	wordpools/wasnorm_wordpool_576.txt	LTP376	ltpFR2	3	2	DUSTPAN	509	n/a	n/a	0	0	0
654.1875	n/a	REC_WORD_VV	1339776	wordpools/wasnorm_wordpool_576.txt	LTP376	ltpFR2	3	2	<>	-1	n/a	n/a	0	0	0
655.1875	n/a	REC_WORD_VV	1341824	wordpools/wasnorm_wordpool_576.txt	LTP376	ltpFR2	3	2	<>	-1	n/a	n/a	0	0	0
730.53515625	n/a	WORD	1496136	wordpools/wasnorm_wordpool_576.txt	LTP376	ltpFR2	3	3	CREVICE	405	n/a	n/a	0	0	0
733.0673828125	n/a	WORD	1501322	wordpools/wasnorm_wordpool_576.txt	LTP376	ltpFR2	3	3	BROTHER	179	n/a	n/a	0	0	0
735.81640625	n/a	WORD	1506952	wordpools/wasnorm_wordpool_576.txt	LTP376	ltpFR2	3	3	AWARD	63	n/a	n/a	0	0	0
738.63134765625	n/a	WORD	1512717	wordpools/wasnorm_wordpool_576.txt	LTP376	ltpFR2	3	3	KITCHEN	778	n/a	n/a	0	0	0
741.31298828125	n/a	WORD	1518209	wordpools/wasnorm_wordpool_576.txt	LTP376	ltpFR2	3	3	SKILLET	1317	n/a	n/a	0	0	0
744.0947265625	n/a	WORD	1523906	wordpools/wasnorm_wordpool_576.txt	LTP376	ltpFR2	3	3	MEAT	883	n/a	n/a	0	0	0
746.52685546875	n/a	WORD	1528887	wordpools/wasnorm_wordpool_576.txt	LTP376	ltpFR2	3	3	MAMMAL	861	n/a	n/a	0	0	0
748.9599609375	n/a	WORD	1533870	wordpools/wasnorm_wordpool_576.txt	LTP376	ltpFR2	3	3	DOLPHIN	483	n/a	n/a	0	0	0
751.70751953125	n/a	WORD	1539497	wordpools/wasnorm_wordpool_576.txt	LTP376	ltpFR2	3	3	STAKE	1368	n/a	n/a	0	0	0
754.140625	n/a	WORD	1544480	wordpools/wasnorm_wordpool_576.txt	LTP376	ltpFR2	3	3	WORKER	1621	n/a	n/a	0	0	0
756.6884765625	n/a	WORD	1549698	wordpools/wasnorm_wordpool_576.txt	LTP376	ltpFR2	3	3	DONOR	485	n/a	n/a	0	0	0
759.154296875	n/a	WORD	1554748	wordpools/wasnorm_wordpool_576.txt	LTP376	ltpFR2	3	3	STOVE	1388	n/a	n/a	0	0	0
761.86962890625	n/a	WORD	1560309	wordpools/wasnorm_wordpool_576.txt	LTP376	ltpFR2	3	3	UMPIRE	1535	n/a	n/a	0	0	0
764.568359375	n/a	WORD	1565836	wordpools/wasnorm_wordpool_576.txt	LTP376	ltpFR2	3	3	TART	1436	n/a	n/a	0	0	0
767.3330078125	n/a	WORD	1571498	wordpools/wasnorm_wordpool_576.txt	LTP376	ltpFR2	3	3	COLONEL	348	n/a	n/a	0	0	0
769.96533203125	n/a	WORD	1576889	wordpools/wasnorm_wordpool_576.txt	LTP376	ltpFR2	3	3	STAPLE	1371	n/a	n/a	0	0	0
772.630859375	n/a	WORD	1582348	wordpools/wasnorm_wordpool_576.txt	LTP376	ltpFR2	3	3	HAMPER	682	n/a	n/a	0	0	0
775.34619140625	n/a	WORD	1587909	wordpools/wasnorm_wordpool_576.txt	LTP376	ltpFR2	3	3	PEACH	1031	n/a	n/a	0	0	0
777.77880859375	n/a	WORD	1592891	wordpools/wasnorm_wordpool_576.txt	LTP376	ltpFR2	3	3	PIMPLE	1071	n/a	n/a	0	0	0
780.31103515625	n/a	WORD	1598077	wordpools/wasnorm_wordpool_576.txt	LTP376	ltpFR2	3	3	WHISKERS	1605	n/a	n/a	0	0	0
783.009765625	n/a	WORD	1603604	wordpools/wasnorm_wordpool_576.txt	LTP376	ltpFR2	3	3	TEACHER	1440	n/a	n/a	0	0	0
785.5576171875	n/a	WORD	1608822	wordpools/wasnorm_wordpool_576.txt	LTP376	ltpFR2	3	3	TYPIST	1532	n/a	n/a	0	0	0
788.20654296875	n/a	WORD	1614247	wordpools/wasnorm_wordpool_576.txt	LTP376	ltpFR2	3	3	WARDROBE	1587	n/a	n/a	0	0	0
790.67236328125	n/a	WORD	1619297	wordpools/wasnorm_wordpool_576.txt	LTP376	ltpFR2	3	3	EXPERT	543	n/a	n/a	0	0	0
792.28857421875	n/a	START	1622607	n/a	LTP376	ltpFR2	3	n/a	n/a	n/a	5	n/a	n/a	n/a	n/a
793.263671875	n/a	DISTRACTOR	1624604	n/a	LTP376	ltpFR2	3	3	n/a	n/a	n/a	n/a	0	0	0
793.2705078125	n/a	PROB	1624618	n/a	LTP376	ltpFR2	3	n/a	n/a	n/a	5	15	6	6	7
796.75244140625	n/a	PROB	1631749	n/a	LTP376	ltpFR2	3	n/a	n/a	n/a	5	14	4	9	1
798.7841796875	n/a	PROB	1635910	n/a	LTP376	ltpFR2	3	n/a	n/a	n/a	5	10	4	5	1
800.8330078125	n/a	PROB	1640106	n/a	LTP376	ltpFR2	3	n/a	n/a	n/a	5	13	5	1	7
803.76513671875	n/a	PROB	1646111	n/a	LTP376	ltpFR2	3	n/a	n/a	n/a	5	11	3	4	4
809.462890625	n/a	PROB	1657780	n/a	LTP376	ltpFR2	3	n/a	n/a	n/a	5	15	8	4	3
812.94482421875	n/a	PROB	1664911	n/a	LTP376	ltpFR2	3	n/a	n/a	n/a	5	8	2	2	4
815.0966796875	n/a	STOP	1669318	n/a	LTP376	ltpFR2	3	n/a	n/a	n/a	5	n/a	n/a	n/a	n/a
818.10888671875	n/a	REC_START	1675487	n/a	LTP376	ltpFR2	3	3	n/a	n/a	n/a	n/a	0	0	0
819.41748046875	n/a	REC_WORD	1678167	wordpools/wasnorm_wordpool_576.txt	LTP376	ltpFR2	3	3	KITCHEN	778	n/a	n/a	0	0	0
820.21240234375	n/a	REC_WORD	1679795	wordpools/wasnorm_wordpool_576.txt	LTP376	ltpFR2	3	3	SKILLET	1317	n/a	n/a	0	0	0
821.36865234375	n/a	REC_WORD	1682163	wordpools/wasnorm_wordpool_576.txt	LTP376	ltpFR2	3	3	BROTHER	179	n/a	n/a	0	0	0
822.28759765625	n/a	REC_WORD	1684045	wordpools/wasnorm_wordpool_576.txt	LTP376	ltpFR2	3	3	MEAT	883	n/a	n/a	0	0	0
823.234375	n/a	REC_WORD	1685984	wordpools/wasnorm_wordpool_576.txt	LTP376	ltpFR2	3	3	STAKE	1368	n/a	n/a	0	0	0
824.8544921875	n/a	REC_WORD	1689302	wordpools/wasnorm_wordpool_576.txt	LTP376	ltpFR2	3	3	MAMMAL	861	n/a	n/a	0	0	0
826.54638671875	n/a	REC_WORD	1692767	wordpools/wasnorm_wordpool_576.txt	LTP376	ltpFR2	3	3	DOLPHIN	483	n/a	n/a	0	0	0
830.025390625	n/a	REC_WORD_VV	1699892	wordpools/wasnorm_wordpool_576.txt	LTP376	ltpFR2	3	3	<>	-1	n/a	n/a	0	0	0
831.025390625	n/a	REC_WORD_VV	1701940	wordpools/wasnorm_wordpool_576.txt	LTP376	ltpFR2	3	3	<>	-1	n/a	n/a	0	0	0
863.00439453125	n/a	REC_WORD	1767433	wordpools/wasnorm_wordpool_576.txt	LTP376	ltpFR2	3	3	COLONEL	348	n/a	n/a	0	0	0
864.3154296875	n/a	REC_WORD	1770118	wordpools/wasnorm_wordpool_576.txt	LTP376	ltpFR2	3	3	TYPIST	1532	n/a	n/a	0	0	0
867.06640625	n/a	REC_WORD	1775752	wordpools/wasnorm_wordpool_576.txt	LTP376	ltpFR2	3	3	TEACHER	1440	n/a	n/a	0	0	0
869.06494140625	n/a	REC_WORD	1779845	wordpools/wasnorm_wordpool_576.txt	LTP376	ltpFR2	3	3	EXPERT	543	n/a	n/a	0	0	0
878.0439453125	n/a	REC_WORD	1798234	wordpools/wasnorm_wordpool_576.txt	LTP376	ltpFR2	3	3	WARDROBE	1587	n/a	n/a	0	0	0
908.546875	n/a	WORD	1860704	wordpools/wasnorm_wordpool_576.txt	LTP376	ltpFR2	3	4	WAITRESS	1581	n/a	n/a	0	0	0
911.36279296875	n/a	WORD	1866471	wordpools/wasnorm_wordpool_576.txt	LTP376	ltpFR2	3	4	QUAIL	1147	n/a	n/a	0	0	0
913.86083984375	n/a	WORD	1871587	wordpools/wasnorm_wordpool_576.txt	LTP376	ltpFR2	3	4	PARROT	1015	n/a	n/a	0	0	0
916.29345703125	n/a	WORD	1876569	wordpools/wasnorm_wordpool_576.txt	LTP376	ltpFR2	3	4	MONSTER	912	n/a	n/a	0	0	0
918.9755859375	n/a	WORD	1882062	wordpools/wasnorm_wordpool_576.txt	LTP376	ltpFR2	3	4	PEANUT	1032	n/a	n/a	0	0	0
921.5234375	n/a	WORD	1887280	wordpools/wasnorm_wordpool_576.txt	LTP376	ltpFR2	3	4	POCKET	1093	n/a	n/a	0	0	0
924.08935546875	n/a	WORD	1892535	wordpools/wasnorm_wordpool_576.txt	LTP376	ltpFR2	3	4	TURKEY	1520	n/a	n/a	0	0	0
926.75439453125	n/a	WORD	1897993	wordpools/wasnorm_wordpool_576.txt	LTP376	ltpFR2	3	4	RELISH	1183	n/a	n/a	0	0	0
929.47021484375	n/a	WORD	1903555	wordpools/wasnorm_wordpool_576.txt	LTP376	ltpFR2	3	4	PEPPER	1047	n/a	n/a	0	0	0
932.13525390625	n/a	WORD	1909013	wordpools/wasnorm_wordpool_576.txt	LTP376	ltpFR2	3	4	MAILMAN	858	n/a	n/a	0	0	0
934.833984375	n/a	WORD	1914540	wordpools/wasnorm_wordpool_576.txt	LTP376	ltpFR2	3	4	MONEY	908	n/a	n/a	0	0	0
937.3330078125	n/a	WORD	1919658	wordpools/wasnorm_wordpool_576.txt	LTP376	ltpFR2	3	4	MISSILE	900	n/a	n/a	0	0	0
939.93212890625	n/a	WORD	1924981	wordpools/wasnorm_wordpool_576.txt	LTP376	ltpFR2	3	4	FIREMAN	569	n/a	n/a	0	0	0
942.44775390625	n/a	WORD	1930133	wordpools/wasnorm_wordpool_576.txt	LTP376	ltpFR2	3	4	SPOOL	1356	n/a	n/a	0	0	0
945.22900390625	n/a	WORD	1935829	wordpools/wasnorm_wordpool_576.txt	LTP376	ltpFR2	3	4	PECAN	1036	n/a	n/a	0	0	0
948.0107421875	n/a	WORD	1941526	wordpools/wasnorm_wordpool_576.txt	LTP376	ltpFR2	3	4	YACHT	1629	n/a	n/a	0	0	0
950.54248046875	n/a	WORD	1946711	wordpools/wasnorm_wordpool_576.txt	LTP376	ltpFR2	3	4	MARINE	869	n/a	n/a	0	0	0
953.224609375	n/a	WORD	1952204	wordpools/wasnorm_wordpool_576.txt	LTP376	ltpFR2	3	4	SCULPTURE	1258	n/a	n/a	0	0	0
955.90625	n/a	WORD	1957696	wordpools/wasnorm_wordpool_576.txt	LTP376	ltpFR2	3	4	SALT	1229	n/a	n/a	0	0	0
958.45556640625	n/a	WORD	1962917	wordpools/wasnorm_wordpool_576.txt	LTP376	ltpFR2	3	4	ROCKET	1202	n/a	n/a	0	0	0
961.1875	n/a	WORD	1968512	wordpools/wasnorm_wordpool_576.txt	LTP376	ltpFR2	3	4	GRILL	661	n/a	n/a	0	0	0
963.953125	n/a	WORD	1974176	wordpools/wasnorm_wordpool_576.txt	LTP376	ltpFR2	3	4	BODY	145	n/a	n/a	0	0	0
966.66796875	n/a	WORD	1979736	wordpools/wasnorm_wordpool_576.txt	LTP376	ltpFR2	3	4	JELLY	755	n/a	n/a	0	0	0
969.21728515625	n/a	WORD	1984957	wordpools/wasnorm_wordpool_576.txt	LTP376	ltpFR2	3	4	ANKLE	24	n/a	n/a	0	0	0
970.8330078125	n/a	START	1988266	n/a	LTP376	ltpFR2	3	n/a	n/a	n/a	6	n/a	n/a	n/a	n/a
971.9150390625	n/a	DISTRACTOR	1990482	n/a	LTP376	ltpFR2	3	4	n/a	n/a	n/a	n/a	0	0	0
971.93212890625	n/a	PROB	1990517	n/a	LTP376	ltpFR2	3	n/a	n/a	n/a	6	18	7	8	3
974.1650390625	n/a	PROB	1995090	n/a	LTP376	ltpFR2	3	n/a	n/a	n/a	6	10	2	3	5
976.44775390625	n/a	PROB	1999765	n/a	LTP376	ltpFR2	3	n/a	n/a	n/a	6	15	9	2	4
979.07861328125	n/a	PROB	2005153	n/a	LTP376	ltpFR2	3	n/a	n/a	n/a	6	19	8	3	8
981.927734375	n/a	PROB	2010988	n/a	LTP376	ltpFR2	3	n/a	n/a	n/a	6	9	2	2	5
984.49267578125	n/a	PROB	2016241	n/a	LTP376	ltpFR2	3	n/a	n/a	n/a	6	15	6	1	8
986.87451171875	n/a	PROB	2021119	n/a	LTP376	ltpFR2	3	n/a	n/a	n/a	6	20	5	6	9
989.990234375	n/a	PROB	2027500	n/a	LTP376	ltpFR2	3	n/a	n/a	n/a	6	13	8	3	2
993.76953125	n/a	STOP	2035240	n/a	LTP376	ltpFR2	3	n/a	n/a	n/a	6	n/a	n/a	n/a	n/a
996.68701171875	n/a	REC_START	2041215	n/a	LTP376	ltpFR2	3	4	n/a	n/a	n/a	n/a	0	0	0
998.04931640625	n/a	REC_WORD	2044005	wordpools/wasnorm_wordpool_576.txt	LTP376	ltpFR2	3	4	QUAIL	1147	n/a	n/a	0	0	0
999.078125	n/a	REC_WORD	2046112	wordpools/wasnorm_wordpool_576.txt	LTP376	ltpFR2	3	4	TURKEY	1520	n/a	n/a	0	0	0
1000.5009765625	n/a	REC_WORD	2049026	wordpools/wasnorm_wordpool_576.txt	LTP376	ltpFR2	3	4	SALT	1229	n/a	n/a	0	0	0
1001.26025390625	n/a	REC_WORD	2050581	wordpools/wasnorm_wordpool_576.txt	LTP376	ltpFR2	3	4	PEPPER	1047	n/a	n/a	0	0	0
1002.70703125	n/a	REC_WORD	2053544	wordpools/wasnorm_wordpool_576.txt	LTP376	ltpFR2	3	4	WAITRESS	1581	n/a	n/a	0	0	0
1004.205078125	n/a	REC_WORD	2056612	wordpools/wasnorm_wordpool_576.txt	LTP376	ltpFR2	3	4	MAILMAN	858	n/a	n/a	0	0	0
1006.9599609375	n/a	REC_WORD	2062254	wordpools/wasnorm_wordpool_576.txt	LTP376	ltpFR2	3	4	FIREMAN	569	n/a	n/a	0	0	0
1019.62939453125	n/a	REC_WORD_VV	2088201	wordpools/wasnorm_wordpool_576.txt	LTP376	ltpFR2	3	4	<>	-1	n/a	n/a	0	0	0
1065.53515625	n/a	REC_WORD	2182216	wordpools/wasnorm_wordpool_576.txt	LTP376	ltpFR2	3	4	BODY	145	n/a	n/a	0	0	0
1066.48486328125	n/a	REC_WORD	2184161	wordpools/wasnorm_wordpool_576.txt	LTP376	ltpFR2	3	4	ANKLE	24	n/a	n/a	0	0	0
1068.06982421875	n/a	REC_WORD	2187407	wordpools/wasnorm_wordpool_576.txt	LTP376	ltpFR2	3	4	JELLY	755	n/a	n/a	0	0	0
1087.12548828125	n/a	DISTRACTOR	2226433	n/a	LTP376	ltpFR2	3	5	n/a	n/a	n/a	n/a	0	0	0
1087.12548828125	n/a	START	2226433	n/a	LTP376	ltpFR2	3	n/a	n/a	n/a	7	n/a	n/a	n/a	n/a
1087.1416015625	n/a	PROB	2226466	n/a	LTP376	ltpFR2	3	n/a	n/a	n/a	7	17	8	7	2
1089.224609375	n/a	PROB	2230732	n/a	LTP376	ltpFR2	3	n/a	n/a	n/a	7	20	8	3	9
1092.572265625	n/a	PROB	2237588	n/a	LTP376	ltpFR2	3	n/a	n/a	n/a	7	14	4	1	9
1094.30517578125	n/a	PROB	2241137	n/a	LTP376	ltpFR2	3	n/a	n/a	n/a	7	24	9	6	9
1099.31884765625	n/a	PROB	2251405	n/a	LTP376	ltpFR2	3	n/a	n/a	n/a	7	18	6	3	9
1102.56787109375	n/a	PROB	2258059	n/a	LTP376	ltpFR2	3	n/a	n/a	n/a	7	15	3	4	4
1105.78271484375	n/a	PROB	2264643	n/a	LTP376	ltpFR2	3	n/a	n/a	n/a	7	17	7	6	4
1111.12451171875	n/a	STOP	2275583	n/a	LTP376	ltpFR2	3	n/a	n/a	n/a	7	n/a	n/a	n/a	n/a
1112.1298828125	n/a	WORD	2277642	wordpools/wasnorm_wordpool_576.txt	LTP376	ltpFR2	3	5	STREAM	1392	n/a	n/a	0	0	0
1114.76171875	n/a	WORD	2283032	wordpools/wasnorm_wordpool_576.txt	LTP376	ltpFR2	3	5	LADDER	793	n/a	n/a	0	0	0
1117.560546875	n/a	WORD	2288764	wordpools/wasnorm_wordpool_576.txt	LTP376	ltpFR2	3	5	FRUIT	610	n/a	n/a	0	0	0
1120.25830078125	n/a	WORD	2294289	wordpools/wasnorm_wordpool_576.txt	LTP376	ltpFR2	3	5	COUSIN	392	n/a	n/a	0	0	0
1122.82421875	n/a	WORD	2299544	wordpools/wasnorm_wordpool_576.txt	LTP376	ltpFR2	3	5	HERO	706	n/a	n/a	0	0	0
1125.6064453125	n/a	WORD	2305242	wordpools/wasnorm_wordpool_576.txt	LTP376	ltpFR2	3	5	FLAG	573	n/a	n/a	0	0	0
1128.2880859375	n/a	WORD	2310734	wordpools/wasnorm_wordpool_576.txt	LTP376	ltpFR2	3	5	FRAME	600	n/a	n/a	0	0	0
1130.77001953125	n/a	WORD	2315817	wordpools/wasnorm_wordpool_576.txt	LTP376	ltpFR2	3	5	CEILING	265	n/a	n/a	0	0	0
1133.3359375	n/a	WORD	2321072	wordpools/wasnorm_wordpool_576.txt	LTP376	ltpFR2	3	5	RUG	1215	n/a	n/a	0	0	0
1135.76806640625	n/a	WORD	2326053	wordpools/wasnorm_wordpool_576.txt	LTP376	ltpFR2	3	5	AUTHOR	61	n/a	n/a	0	0	0
1138.2998046875	n/a	WORD	2331238	wordpools/wasnorm_wordpool_576.txt	LTP376	ltpFR2	3	5	BEAKER	104	n/a	n/a	0	0	0
1140.98193359375	n/a	WORD	2336731	wordpools/wasnorm_wordpool_576.txt	LTP376	ltpFR2	3	5	PADDLE	1000	n/a	n/a	0	0	0
1143.44775390625	n/a	WORD	2341781	wordpools/wasnorm_wordpool_576.txt	LTP376	ltpFR2	3	5	MARSH	874	n/a	n/a	0	0	0
1146.0625	n/a	WORD	2347136	wordpools/wasnorm_wordpool_576.txt	LTP376	ltpFR2	3	5	MOTOR	922	n/a	n/a	0	0	0
1148.51171875	n/a	WORD	2352152	wordpools/wasnorm_wordpool_576.txt	LTP376	ltpFR2	3	5	BRIEFCASE	175	n/a	n/a	0	0	0
1151.24365234375	n/a	WORD	2357747	wordpools/wasnorm_wordpool_576.txt	LTP376	ltpFR2	3	5	BUREAU	199	n/a	n/a	0	0	0
1153.87548828125	n/a	WORD	2363137	wordpools/wasnorm_wordpool_576.txt	LTP376	ltpFR2	3	5	SAUSAGE	1238	n/a	n/a	0	0	0
1156.42529296875	n/a	WORD	2368359	wordpools/wasnorm_wordpool_576.txt	LTP376	ltpFR2	3	5	CASHEW	253	n/a	n/a	0	0	0
1159.2392578125	n/a	WORD	2374122	wordpools/wasnorm_wordpool_576.txt	LTP376	ltpFR2	3	5	ARM	38	n/a	n/a	0	0	0
1161.87109375	n/a	WORD	2379512	wordpools/wasnorm_wordpool_576.txt	LTP376	ltpFR2	3	5	CHILD	299	n/a	n/a	0	0	0
1164.3203125	n/a	WORD	2384528	wordpools/wasnorm_wordpool_576.txt	LTP376	ltpFR2	3	5	BABY	64	n/a	n/a	0	0	0
1167.119140625	n/a	WORD	2390260	wordpools/wasnorm_wordpool_576.txt	LTP376	ltpFR2	3	5	KEEPER	769	n/a	n/a	0	0	0
1169.70068359375	n/a	WORD	2395547	wordpools/wasnorm_wordpool_576.txt	LTP376	ltpFR2	3	5	UNCLE	1536	n/a	n/a	0	0	0
1172.31689453125	n/a	WORD	2400905	wordpools/wasnorm_wordpool_576.txt	LTP376	ltpFR2	3	5	JAPAN	749	n/a	n/a	0	0	0
1173.9326171875	n/a	START	2404214	n/a	LTP376	ltpFR2	3	n/a	n/a	n/a	8	n/a	n/a	n/a	n/a
1174.86181640625	n/a	DISTRACTOR	2406117	n/a	LTP376	ltpFR2	3	5	n/a	n/a	n/a	n/a	0	0	0
1174.86474609375	n/a	PROB	2406123	n/a	LTP376	ltpFR2	3	n/a	n/a	n/a	8	15	5	5	5
1176.61474609375	n/a	PROB	2409707	n/a	LTP376	ltpFR2	3	n/a	n/a	n/a	8	13	3	4	6
1178.646484375	n/a	PROB	2413868	n/a	LTP376	ltpFR2	3	n/a	n/a	n/a	8	15	5	6	4
1180.0625	n/a	PROB	2416768	n/a	LTP376	ltpFR2	3	n/a	n/a	n/a	8	15	2	5	8
1182.37939453125	n/a	PROB	2421513	n/a	LTP376	ltpFR2	3	n/a	n/a	n/a	8	18	4	5	9
1185.01025390625	n/a	PROB	2426901	n/a	LTP376	ltpFR2	3	n/a	n/a	n/a	8	21	8	4	9
1189.50830078125	n/a	PROB	2436113	n/a	LTP376	ltpFR2	3	n/a	n/a	n/a	8	13	8	3	2
1194.08935546875	n/a	PROB	2445495	n/a	LTP376	ltpFR2	3	n/a	n/a	n/a	8	9	4	3	2
1197.93212890625	n/a	STOP	2453365	n/a	LTP376	ltpFR2	3	n/a	n/a	n/a	8	n/a	n/a	n/a	n/a
1199.703125	n/a	REC_START	2456992	n/a	LTP376	ltpFR2	3	5	n/a	n/a	n/a	n/a	0	0	0
1201.27978515625	n/a	REC_WORD	2460221	wordpools/wasnorm_wordpool_576.txt	LTP376	ltpFR2	3	5	JAPAN	749	n/a	n/a	0	0	0
1227.56005859375	n/a	REC_WORD	2514043	wordpools/wasnorm_wordpool_576.txt	LTP376	ltpFR2	3	5	CHILD	299	n/a	n/a	0	0	0
1228.830078125	n/a	REC_WORD	2516644	wordpools/wasnorm_wordpool_576.txt	LTP376	ltpFR2	3	5	BABY	64	n/a	n/a	0	0	0
1230.40283203125	n/a	REC_WORD	2519865	wordpools/wasnorm_wordpool_576.txt	LTP376	ltpFR2	3	5	STREAM	1392	n/a	n/a	0	0	0
1232.40087890625	n/a	REC_WORD	2523957	wordpools/wasnorm_wordpool_576.txt	LTP376	ltpFR2	3	5	MARSH	874	n/a	n/a	0	0	0
1234.22900390625	n/a	REC_WORD	2527701	wordpools/wasnorm_wordpool_576.txt	LTP376	ltpFR2	3	5	PADDLE	1000	n/a	n/a	0	0	0
1236.45166015625	n/a	REC_WORD	2532253	wordpools/wasnorm_wordpool_576.txt	LTP376	ltpFR2	3	5	MOTOR	922	n/a	n/a	0	0	0
1239.40673828125	n/a	REC_WORD	2538305	wordpools/wasnorm_wordpool_576.txt	LTP376	ltpFR2	3	5	LADDER	793	n/a	n/a	0	0	0
1249.3203125	n/a	REC_WORD	2558608	wordpools/wasnorm_wordpool_576.txt	LTP376	ltpFR2	3	5	CASHEW	253	n/a	n/a	0	0	0
1251.30419921875	n/a	REC_WORD	2562671	wordpools/wasnorm_wordpool_576.txt	LTP376	ltpFR2	3	5	BUREAU	199	n/a	n/a	0	0	0
1253.1181640625	n/a	REC_WORD	2566386	wordpools/wasnorm_wordpool_576.txt	LTP376	ltpFR2	3	5	BRIEFCASE	175	n/a	n/a	0	0	0
1259.5302734375	n/a	REC_WORD	2579518	wordpools/wasnorm_wordpool_576.txt	LTP376	ltpFR2	3	5	ARM	38	n/a	n/a	0	0	0
1290.158203125	n/a	DISTRACTOR	2642244	n/a	LTP376	ltpFR2	3	6	n/a	n/a	n/a	n/a	0	0	0
1290.158203125	n/a	START	2642244	n/a	LTP376	ltpFR2	3	n/a	n/a	n/a	9	n/a	n/a	n/a	n/a
1290.17431640625	n/a	PROB	2642277	n/a	LTP376	ltpFR2	3	n/a	n/a	n/a	9	14	4	5	5
1292.42431640625	n/a	PROB	2646885	n/a	LTP376	ltpFR2	3	n/a	n/a	n/a	9	23	7	8	8
1297.47119140625	n/a	PROB	2657221	n/a	LTP376	ltpFR2	3	n/a	n/a	n/a	9	14	2	6	6
1300.669921875	n/a	PROB	2663772	n/a	LTP376	ltpFR2	3	n/a	n/a	n/a	9	20	9	2	9
1305.68359375	n/a	PROB	2674040	n/a	LTP376	ltpFR2	3	n/a	n/a	n/a	9	19	9	5	5
1309.08154296875	n/a	PROB	2680999	n/a	LTP376	ltpFR2	3	n/a	n/a	n/a	9	12	3	5	4
1314.15771484375	n/a	STOP	2691395	n/a	LTP376	ltpFR2	3	n/a	n/a	n/a	9	n/a	n/a	n/a	n/a
1314.9794921875	n/a	WORD	2693078	wordpools/wasnorm_wordpool_576.txt	LTP376	ltpFR2	3	6	TERMITE	1451	n/a	n/a	0	0	0
1317.52734375	n/a	WORD	2698296	wordpools/wasnorm_wordpool_576.txt	LTP376	ltpFR2	3	6	ATLAS	53	n/a	n/a	0	0	0
1320.01025390625	n/a	WORD	2703381	wordpools/wasnorm_wordpool_576.txt	LTP376	ltpFR2	3	6	SCOTCH	1251	n/a	n/a	0	0	0
1322.775390625	n/a	WORD	2709044	wordpools/wasnorm_wordpool_576.txt	LTP376	ltpFR2	3	6	FRANCE	601	n/a	n/a	0	0	0
1325.375	n/a	WORD	2714368	wordpools/wasnorm_wordpool_576.txt	LTP376	ltpFR2	3	6	BURGLAR	200	n/a	n/a	0	0	0
1328.15625	n/a	WORD	2720064	wordpools/wasnorm_wordpool_576.txt	LTP376	ltpFR2	3	6	PIANO	1057	n/a	n/a	0	0	0
1330.62109375	n/a	WORD	2725112	wordpools/wasnorm_wordpool_576.txt	LTP376	ltpFR2	3	6	VIKING	1565	n/a	n/a	0	0	0
1333.2529296875	n/a	WORD	2730502	wordpools/wasnorm_wordpool_576.txt	LTP376	ltpFR2	3	6	SODA	1341	n/a	n/a	0	0	0
1335.96875	n/a	WORD	2736064	wordpools/wasnorm_wordpool_576.txt	LTP376	ltpFR2	3	6	WASP	1593	n/a	n/a	0	0	0
1338.66796875	n/a	WORD	2741592	wordpools/wasnorm_wordpool_576.txt	LTP376	ltpFR2	3	6	HOSTESS	723	n/a	n/a	0	0	0
1341.265625	n/a	WORD	2746912	wordpools/wasnorm_wordpool_576.txt	LTP376	ltpFR2	3	6	CHAMPAGNE	278	n/a	n/a	0	0	0
1343.814453125	n/a	WORD	2752132	wordpools/wasnorm_wordpool_576.txt	LTP376	ltpFR2	3	6	LODGE	839	n/a	n/a	0	0	0
1346.54638671875	n/a	WORD	2757727	wordpools/wasnorm_wordpool_576.txt	LTP376	ltpFR2	3	6	MOTEL	919	n/a	n/a	0	0	0
1349.0625	n/a	WORD	2762880	wordpools/wasnorm_wordpool_576.txt	LTP376	ltpFR2	3	6	SCARF	1246	n/a	n/a	0	0	0
1351.8271484375	n/a	WORD	2768542	wordpools/wasnorm_wordpool_576.txt	LTP376	ltpFR2	3	6	SPHINX	1349	n/a	n/a	0	0	0
1354.41015625	n/a	WORD	2773832	wordpools/wasnorm_wordpool_576.txt	LTP376	ltpFR2	3	6	JUGGLER	763	n/a	n/a	0	0	0
1356.9912109375	n/a	WORD	2779118	wordpools/wasnorm_wordpool_576.txt	LTP376	ltpFR2	3	6	GYMNAST	675	n/a	n/a	0	0	0
1359.6240234375	n/a	WORD	2784510	wordpools/wasnorm_wordpool_576.txt	LTP376	ltpFR2	3	6	LAVA	804	n/a	n/a	0	0	0
1362.18896484375	n/a	WORD	2789763	wordpools/wasnorm_wordpool_576.txt	LTP376	ltpFR2	3	6	RECORD	1176	n/a	n/a	0	0	0
1364.87109375	n/a	WORD	2795256	wordpools/wasnorm_wordpool_576.txt	LTP376	ltpFR2	3	6	THREAD	1460	n/a	n/a	0	0	0
1367.3369140625	n/a	WORD	2800306	wordpools/wasnorm_wordpool_576.txt	LTP376	ltpFR2	3	6	PUDDLE	1140	n/a	n/a	0	0	0
1369.86865234375	n/a	WORD	2805491	wordpools/wasnorm_wordpool_576.txt	LTP376	ltpFR2	3	6	RIVER	1194	n/a	n/a	0	0	0
1372.48388671875	n/a	WORD	2810847	wordpools/wasnorm_wordpool_576.txt	LTP376	ltpFR2	3	6	GLOBE	641	n/a	n/a	0	0	0
1374.99951171875	n/a	WORD	2815999	wordpools/wasnorm_wordpool_576.txt	LTP376	ltpFR2	3	6	MAILBOX	857	n/a	n/a	0	0	0
1376.61572265625	n/a	START	2819309	n/a	LTP376	ltpFR2	3	n/a	n/a	n/a	10	n/a	n/a	n/a	n/a
1377.6875	n/a	DISTRACTOR	2821504	n/a	LTP376	ltpFR2	3	6	n/a	n/a	n/a	n/a	0	0	0
1377.69775390625	n/a	PROB	2821525	n/a	LTP376	ltpFR2	3	n/a	n/a	n/a	10	13	8	1	4
1381.0634765625	n/a	PROB	2828418	n/a	LTP376	ltpFR2	3	n/a	n/a	n/a	10	11	1	1	8
1383.1953125	n/a	PROB	2832784	n/a	LTP376	ltpFR2	3	n/a	n/a	n/a	10	12	5	4	3
1388.826171875	n/a	PROB	2844316	n/a	LTP376	ltpFR2	3	n/a	n/a	n/a	10	18	7	8	3
1392.35693359375	n/a	PROB	2851547	n/a	LTP376	ltpFR2	3	n/a	n/a	n/a	10	6	2	3	1
1395.05615234375	n/a	PROB	2857075	n/a	LTP376	ltpFR2	3	n/a	n/a	n/a	10	16	9	1	6
1400.61474609375	n/a	STOP	2868459	n/a	LTP376	ltpFR2	3	n/a	n/a	n/a	10	n/a	n/a	n/a	n/a
1402.40380859375	n/a	REC_START	2872123	n/a	LTP376	ltpFR2	3	6	n/a	n/a	n/a	n/a	0	0	0
1403.54052734375	n/a	REC_WORD	2874451	wordpools/wasnorm_wordpool_576.txt	LTP376	ltpFR2	3	6	MAILBOX	857	n/a	n/a	0	0	0
1408.7734375	n/a	REC_WORD	2885168	wordpools/wasnorm_wordpool_576.txt	LTP376	ltpFR2	3	6	FRANCE	601	n/a	n/a	0	0	0
1492.85791015625	n/a	WORD	3057373	wordpools/wasnorm_wordpool_576.txt	LTP376	ltpFR2	3	7	BEAST	108	n/a	n/a	0	0	0
1495.47314453125	n/a	WORD	3062729	wordpools/wasnorm_wordpool_576.txt	LTP376	ltpFR2	3	7	MUMMY	932	n/a	n/a	0	0	0
1498.0546875	n/a	WORD	3068016	wordpools/wasnorm_wordpool_576.txt	LTP376	ltpFR2	3	7	WIDOW	1608	n/a	n/a	0	0	0
1500.8369140625	n/a	WORD	3073714	wordpools/wasnorm_wordpool_576.txt	LTP376	ltpFR2	3	7	PORTRAIT	1111	n/a	n/a	0	0	0
1503.28564453125	n/a	WORD	3078729	wordpools/wasnorm_wordpool_576.txt	LTP376	ltpFR2	3	7	PICTURE	1061	n/a	n/a	0	0	0
1505.73486328125	n/a	WORD	3083745	wordpools/wasnorm_wordpool_576.txt	LTP376	ltpFR2	3	7	DENIM	446	n/a	n/a	0	0	0
1508.5166015625	n/a	WORD	3089442	wordpools/wasnorm_wordpool_576.txt	LTP376	ltpFR2	3	7	CLOTHES	327	n/a	n/a	0	0	0
1511.0654296875	n/a	WORD	3094662	wordpools/wasnorm_wordpool_576.txt	LTP376	ltpFR2	3	7	DANDRUFF	439	n/a	n/a	0	0	0
1513.63037109375	n/a	WORD	3099915	wordpools/wasnorm_wordpool_576.txt	LTP376	ltpFR2	3	7	CHIPMUNK	304	n/a	n/a	0	0	0
1516.1123046875	n/a	WORD	3104998	wordpools/wasnorm_wordpool_576.txt	LTP376	ltpFR2	3	7	SADDLE	1221	n/a	n/a	0	0	0
1518.54541015625	n/a	WORD	3109981	wordpools/wasnorm_wordpool_576.txt	LTP376	ltpFR2	3	7	CREATURE	403	n/a	n/a	0	0	0
1521.16015625	n/a	WORD	3115336	wordpools/wasnorm_wordpool_576.txt	LTP376	ltpFR2	3	7	FOX	598	n/a	n/a	0	0	0
1523.69189453125	n/a	WORD	3120521	wordpools/wasnorm_wordpool_576.txt	LTP376	ltpFR2	3	7	AIRPLANE	12	n/a	n/a	0	0	0
1526.19091796875	n/a	WORD	3125639	wordpools/wasnorm_wordpool_576.txt	LTP376	ltpFR2	3	7	CABBAGE	210	n/a	n/a	0	0	0
1528.98974609375	n/a	WORD	3131371	wordpools/wasnorm_wordpool_576.txt	LTP376	ltpFR2	3	7	STICKER	1382	n/a	n/a	0	0	0
1531.6220703125	n/a	WORD	3136762	wordpools/wasnorm_wordpool_576.txt	LTP376	ltpFR2	3	7	SHELF	1280	n/a	n/a	0	0	0
1534.07080078125	n/a	WORD	3141777	wordpools/wasnorm_wordpool_576.txt	LTP376	ltpFR2	3	7	PATROL	1027	n/a	n/a	0	0	0
1536.6025390625	n/a	WORD	3146962	wordpools/wasnorm_wordpool_576.txt	LTP376	ltpFR2	3	7	JUNGLE	764	n/a	n/a	0	0	0
1539.134765625	n/a	WORD	3152148	wordpools/wasnorm_wordpool_576.txt	LTP376	ltpFR2	3	7	OYSTER	995	n/a	n/a	0	0	0
1541.88330078125	n/a	WORD	3157777	wordpools/wasnorm_wordpool_576.txt	LTP376	ltpFR2	3	7	CARRIAGE	248	n/a	n/a	0	0	0
1544.38330078125	n/a	WORD	3162897	wordpools/wasnorm_wordpool_576.txt	LTP376	ltpFR2	3	7	TRACTOR	1493	n/a	n/a	0	0	0
1547.1474609375	n/a	WORD	3168558	wordpools/wasnorm_wordpool_576.txt	LTP376	ltpFR2	3	7	QUEEN	1149	n/a	n/a	0	0	0
1549.7294921875	n/a	WORD	3173846	wordpools/wasnorm_wordpool_576.txt	LTP376	ltpFR2	3	7	CASKET	255	n/a	n/a	0	0	0
1552.1953125	n/a	WORD	3178896	wordpools/wasnorm_wordpool_576.txt	LTP376	ltpFR2	3	7	CHEST	295	n/a	n/a	0	0	0
1553.81103515625	n/a	START	3182205	n/a	LTP376	ltpFR2	3	n/a	n/a	n/a	11	n/a	n/a	n/a	n/a
1554.6572265625	n/a	DISTRACTOR	3183938	n/a	LTP376	ltpFR2	3	7	n/a	n/a	n/a	n/a	0	0	0
1554.66015625	n/a	PROB	3183944	n/a	LTP376	ltpFR2	3	n/a	n/a	n/a	11	15	5	2	6
1558.5419921875	n/a	PROB	3191894	n/a	LTP376	ltpFR2	3	n/a	n/a	n/a	11	13	5	6	6
1567.28759765625	n/a	PROB	3209805	n/a	LTP376	ltpFR2	3	n/a	n/a	n/a	11	8	6	1	1
1568.9697265625	n/a	PROB	3213250	n/a	LTP376	ltpFR2	3	n/a	n/a	n/a	11	17	8	2	7
1573.16748046875	n/a	PROB	3221847	n/a	LTP376	ltpFR2	3	n/a	n/a	n/a	11	13	1	4	8
1577.8095703125	n/a	STOP	3231354	n/a	LTP376	ltpFR2	3	n/a	n/a	n/a	11	n/a	n/a	n/a	n/a
1579.66552734375	n/a	REC_START	3235155	n/a	LTP376	ltpFR2	3	7	n/a	n/a	n/a	n/a	0	0	0
1582.451171875	n/a	REC_WORD	3240860	wordpools/wasnorm_wordpool_576.txt	LTP376	ltpFR2	3	7	BEAST	108	n/a	n/a	0	0	0
1583.46337890625	n/a	REC_WORD	3242933	wordpools/wasnorm_wordpool_576.txt	LTP376	ltpFR2	3	7	CREATURE	403	n/a	n/a	0	0	0
1585.05322265625	n/a	REC_WORD	3246189	wordpools/wasnorm_wordpool_576.txt	LTP376	ltpFR2	3	7	FOX	598	n/a	n/a	0	0	0
1587.3798828125	n/a	REC_WORD	3250954	wordpools/wasnorm_wordpool_576.txt	LTP376	ltpFR2	3	7	TOMB	1477	n/a	n/a	0	0	0
1589.10302734375	n/a	REC_WORD	3254483	wordpools/wasnorm_wordpool_576.txt	LTP376	ltpFR2	3	7	MUMMY	932	n/a	n/a	0	0	0
1670.103515625	n/a	WORD	3420372	wordpools/wasnorm_wordpool_576.txt	LTP376	ltpFR2	3	8	BISON	131	n/a	n/a	0	0	0
1672.6015625	n/a	WORD	3425488	wordpools/wasnorm_wordpool_576.txt	LTP376	ltpFR2	3	8	BUTCHER	203	n/a	n/a	0	0	0
1675.25048828125	n/a	WORD	3430913	wordpools/wasnorm_wordpool_576.txt	LTP376	ltpFR2	3	8	CRATER	400	n/a	n/a	0	0	0
1677.83251953125	n/a	WORD	3436201	wordpools/wasnorm_wordpool_576.txt	LTP376	ltpFR2	3	8	DOUGHNUT	490	n/a	n/a	0	0	0
1680.4150390625	n/a	WORD	3441490	wordpools/wasnorm_wordpool_576.txt	LTP376	ltpFR2	3	8	FUNGUS	614	n/a	n/a	0	0	0
1683.1962890625	n/a	WORD	3447186	wordpools/wasnorm_wordpool_576.txt	LTP376	ltpFR2	3	8	GOBLIN	645	n/a	n/a	0	0	0
1685.7119140625	n/a	WORD	3452338	wordpools/wasnorm_wordpool_576.txt	LTP376	ltpFR2	3	8	BLUEPRINT	142	n/a	n/a	0	0	0
1688.4609375	n/a	WORD	3457968	wordpools/wasnorm_wordpool_576.txt	LTP376	ltpFR2	3	8	TUNNEL	1519	n/a	n/a	0	0	0
1691.2587890625	n/a	WORD	3463698	wordpools/wasnorm_wordpool_576.txt	LTP376	ltpFR2	3	8	DANCER	437	n/a	n/a	0	0	0
1693.74169921875	n/a	WORD	3468783	wordpools/wasnorm_wordpool_576.txt	LTP376	ltpFR2	3	8	LETTUCE	814	n/a	n/a	0	0	0
1696.2236328125	n/a	WORD	3473866	wordpools/wasnorm_wordpool_576.txt	LTP376	ltpFR2	3	8	OFFICE	972	n/a	n/a	0	0	0
1698.70556640625	n/a	WORD	3478949	wordpools/wasnorm_wordpool_576.txt	LTP376	ltpFR2	3	8	TABLE	1426	n/a	n/a	0	0	0
1701.23779296875	n/a	WORD	3484135	wordpools/wasnorm_wordpool_576.txt	LTP376	ltpFR2	3	8	ACTRESS	6	n/a	n/a	0	0	0
1703.8525390625	n/a	WORD	3489490	wordpools/wasnorm_wordpool_576.txt	LTP376	ltpFR2	3	8	LIVER	833	n/a	n/a	0	0	0
1706.55126953125	n/a	WORD	3495017	wordpools/wasnorm_wordpool_576.txt	LTP376	ltpFR2	3	8	ZIPPER	1636	n/a	n/a	0	0	0
1709.18359375	n/a	WORD	3500408	wordpools/wasnorm_wordpool_576.txt	LTP376	ltpFR2	3	8	JEANS	752	n/a	n/a	0	0	0
1711.88232421875	n/a	WORD	3505935	wordpools/wasnorm_wordpool_576.txt	LTP376	ltpFR2	3	8	HORSE	719	n/a	n/a	0	0	0
1714.314453125	n/a	WORD	3510916	wordpools/wasnorm_wordpool_576.txt	LTP376	ltpFR2	3	8	PAPER	1011	n/a	n/a	0	0	0
1716.9130859375	n/a	WORD	3516238	wordpools/wasnorm_wordpool_576.txt	LTP376	ltpFR2	3	8	NOMAD	955	n/a	n/a	0	0	0
1719.59521484375	n/a	WORD	3521731	wordpools/wasnorm_wordpool_576.txt	LTP376	ltpFR2	3	8	MISTER	901	n/a	n/a	0	0	0
1722.19384765625	n/a	WORD	3527053	wordpools/wasnorm_wordpool_576.txt	LTP376	ltpFR2	3	8	CUPBOARD	425	n/a	n/a	0	0	0
1724.80908203125	n/a	WORD	3532409	wordpools/wasnorm_wordpool_576.txt	LTP376	ltpFR2	3	8	ICING	732	n/a	n/a	0	0	0
1727.2919921875	n/a	WORD	3537494	wordpools/wasnorm_wordpool_576.txt	LTP376	ltpFR2	3	8	CANDY	230	n/a	n/a	0	0	0
1730.10693359375	n/a	WORD	3543259	wordpools/wasnorm_wordpool_576.txt	LTP376	ltpFR2	3	8	ZEBRA	1635	n/a	n/a	0	0	0
1731.72265625	n/a	START	3546568	n/a	LTP376	ltpFR2	3	n/a	n/a	n/a	12	n/a	n/a	n/a	n/a
1732.6826171875	n/a	DISTRACTOR	3548534	n/a	LTP376	ltpFR2	3	8	n/a	n/a	n/a	n/a	0	0	0
1732.6884765625	n/a	PROB	3548546	n/a	LTP376	ltpFR2	3	n/a	n/a	n/a	12	20	5	7	8
1735.603515625	n/a	PROB	3554516	n/a	LTP376	ltpFR2	3	n/a	n/a	n/a	12	16	1	8	7
1737.65234375	n/a	PROB	3558712	n/a	LTP376	ltpFR2	3	n/a	n/a	n/a	12	11	1	4	6
1739.0185546875	n/a	PROB	3561510	n/a	LTP376	ltpFR2	3	n/a	n/a	n/a	12	19	4	7	8
1742.767578125	n/a	PROB	3569188	n/a	LTP376	ltpFR2	3	n/a	n/a	n/a	12	24	7	8	9
1747.84814453125	n/a	PROB	3579593	n/a	LTP376	ltpFR2	3	n/a	n/a	n/a	12	21	7	4	7
1754.75390625	n/a	STOP	3593736	n/a	LTP376	ltpFR2	3	n/a	n/a	n/a	12	n/a	n/a	n/a	n/a
1757.65966796875	n/a	REC_START	3599687	n/a	LTP376	ltpFR2	3	8	n/a	n/a	n/a	n/a	0	0	0
1767.15380859375	n/a	REC_WORD	3619131	wordpools/wasnorm_wordpool_576.txt	LTP376	ltpFR2	3	8	NOMAD	955	n/a	n/a	0	0	0
1768.6435546875	n/a	REC_WORD	3622182	wordpools/wasnorm_wordpool_576.txt	LTP376	ltpFR2	3	8	MISTER	901	n/a	n/a	0	0	0
1772.3515625	n/a	REC_WORD	3629776	wordpools/wasnorm_wordpool_576.txt	LTP376	ltpFR2	3	8	BISON	131	n/a	n/a	0	0	0
1793.171875	n/a	REC_WORD_VV	3672416	wordpools/wasnorm_wordpool_576.txt	LTP376	ltpFR2	3	8	<>	-1	n/a	n/a	0	0	0
1834.1884765625	n/a	REST_REWET	3756418	n/a	LTP376	ltpFR2	3	8	n/a	n/a	n/a	n/a	0	0	0
2018.6796875	n/a	WORD	4134256	wordpools/wasnorm_wordpool_576.txt	LTP376	ltpFR2	3	9	SNACK	1331	n/a	n/a	0	0	0
2021.41259765625	n/a	WORD	4139853	wordpools/wasnorm_wordpool_576.txt	LTP376	ltpFR2	3	9	ISLAND	745	n/a	n/a	0	0	0
2024.07763671875	n/a	WORD	4145311	wordpools/wasnorm_wordpool_576.txt	LTP376	ltpFR2	3	9	MACHINE	852	n/a	n/a	0	0	0
2026.69287109375	n/a	WORD	4150667	wordpools/wasnorm_wordpool_576.txt	LTP376	ltpFR2	3	9	WHISTLE	1606	n/a	n/a	0	0	0
2029.15869140625	n/a	WORD	4155717	wordpools/wasnorm_wordpool_576.txt	LTP376	ltpFR2	3	9	SNAKE	1333	n/a	n/a	0	0	0
2031.90771484375	n/a	WORD	4161347	wordpools/wasnorm_wordpool_576.txt	LTP376	ltpFR2	3	9	PLUTO	1092	n/a	n/a	0	0	0
2034.689453125	n/a	WORD	4167044	wordpools/wasnorm_wordpool_576.txt	LTP376	ltpFR2	3	9	HIGHWAY	707	n/a	n/a	0	0	0
2037.4541015625	n/a	WORD	4172706	wordpools/wasnorm_wordpool_576.txt	LTP376	ltpFR2	3	9	PARSLEY	1016	n/a	n/a	0	0	0
2040.16943359375	n/a	WORD	4178267	wordpools/wasnorm_wordpool_576.txt	LTP376	ltpFR2	3	9	WITNESS	1618	n/a	n/a	0	0	0
2042.8681640625	n/a	WORD	4183794	wordpools/wasnorm_wordpool_576.txt	LTP376	ltpFR2	3	9	RATTLE	1170	n/a	n/a	0	0	0
2045.4169921875	n/a	WORD	4189014	wordpools/wasnorm_wordpool_576.txt	LTP376	ltpFR2	3	9	CASHIER	254	n/a	n/a	0	0	0
2048.18212890625	n/a	WORD	4194677	wordpools/wasnorm_wordpool_576.txt	LTP376	ltpFR2	3	9	CIGAR	308	n/a	n/a	0	0	0
2050.61474609375	n/a	WORD	4199659	wordpools/wasnorm_wordpool_576.txt	LTP376	ltpFR2	3	9	CAMEL	223	n/a	n/a	0	0	0
2053.1630859375	n/a	WORD	4204878	wordpools/wasnorm_wordpool_576.txt	LTP376	ltpFR2	3	9	FREEZER	604	n/a	n/a	0	0	0
2055.8447265625	n/a	WORD	4210370	wordpools/wasnorm_wordpool_576.txt	LTP376	ltpFR2	3	9	GARLIC	624	n/a	n/a	0	0	0
2058.49365234375	n/a	WORD	4215795	wordpools/wasnorm_wordpool_576.txt	LTP376	ltpFR2	3	9	SUITCASE	1403	n/a	n/a	0	0	0
2061.15966796875	n/a	WORD	4221255	wordpools/wasnorm_wordpool_576.txt	LTP376	ltpFR2	3	9	VENUS	1557	n/a	n/a	0	0	0
2063.79150390625	n/a	WORD	4226645	wordpools/wasnorm_wordpool_576.txt	LTP376	ltpFR2	3	9	BANK	83	n/a	n/a	0	0	0
2066.3916015625	n/a	WORD	4231970	wordpools/wasnorm_wordpool_576.txt	LTP376	ltpFR2	3	9	MARKET	871	n/a	n/a	0	0	0
2069.20556640625	n/a	WORD	4237733	wordpools/wasnorm_wordpool_576.txt	LTP376	ltpFR2	3	9	OINTMENT	974	n/a	n/a	0	0	0
2072.00439453125	n/a	WORD	4243465	wordpools/wasnorm_wordpool_576.txt	LTP376	ltpFR2	3	9	DRUG	501	n/a	n/a	0	0	0
2074.46923828125	n/a	WORD	4248513	wordpools/wasnorm_wordpool_576.txt	LTP376	ltpFR2	3	9	MILDEW	893	n/a	n/a	0	0	0
2077.2509765625	n/a	WORD	4254210	wordpools/wasnorm_wordpool_576.txt	LTP376	ltpFR2	3	9	BUBBLE	183	n/a	n/a	0	0	0
2079.75	n/a	WORD	4259328	wordpools/wasnorm_wordpool_576.txt	LTP376	ltpFR2	3	9	BUCKET	184	n/a	n/a	0	0	0
2081.3671875	n/a	START	4262640	n/a	LTP376	ltpFR2	3	n/a	n/a	n/a	13	n/a	n/a	n/a	n/a
2082.291015625	n/a	DISTRACTOR	4264532	n/a	LTP376	ltpFR2	3	9	n/a	n/a	n/a	n/a	0	0	0
2082.298828125	n/a	PROB	4264548	n/a	LTP376	ltpFR2	3	n/a	n/a	n/a	13	9	3	4	2
2085.2470703125	n/a	PROB	4270586	n/a	LTP376	ltpFR2	3	n/a	n/a	n/a	13	19	9	7	3
2087.41357421875	n/a	PROB	4275023	n/a	LTP376	ltpFR2	3	n/a	n/a	n/a	13	15	6	1	8
2089.61181640625	n/a	PROB	4279525	n/a	LTP376	ltpFR2	3	n/a	n/a	n/a	13	16	2	6	8
2093.37744140625	n/a	PROB	4287237	n/a	LTP376	ltpFR2	3	n/a	n/a	n/a	13	26	8	9	5
2105.3662109375	n/a	STOP	4311790	n/a	LTP376	ltpFR2	3	n/a	n/a	n/a	13	n/a	n/a	n/a	n/a
2107.22021484375	n/a	REC_START	4315587	n/a	LTP376	ltpFR2	3	9	n/a	n/a	n/a	n/a	0	0	0
2108.578125	n/a	REC_WORD	4318368	wordpools/wasnorm_wordpool_576.txt	LTP376	ltpFR2	3	9	CASHIER	254	n/a	n/a	0	0	0
2110.41015625	n/a	REC_WORD	4322120	wordpools/wasnorm_wordpool_576.txt	LTP376	ltpFR2	3	9	RATTLE	1170	n/a	n/a	0	0	0
2113.0341796875	n/a	REC_WORD	4327494	wordpools/wasnorm_wordpool_576.txt	LTP376	ltpFR2	3	9	SNAKE	1333	n/a	n/a	0	0	0
2114.02880859375	n/a	REC_WORD	4329531	wordpools/wasnorm_wordpool_576.txt	LTP376	ltpFR2	3	9	ISLAND	745	n/a	n/a	0	0	0
2115.47802734375	n/a	REC_WORD	4332499	wordpools/wasnorm_wordpool_576.txt	LTP376	ltpFR2	3	9	SNACK	1331	n/a	n/a	0	0	0
2117.3779296875	n/a	REC_WORD	4336390	wordpools/wasnorm_wordpool_576.txt	LTP376	ltpFR2	3	9	MACHINE	852	n/a	n/a	0	0	0
2131.0537109375	n/a	REC_WORD_VV	4364398	wordpools/wasnorm_wordpool_576.txt	LTP376	ltpFR2	3	9	<>	-1	n/a	n/a	0	0	0
2197.6416015625	n/a	DISTRACTOR	4500770	n/a	LTP376	ltpFR2	3	10	n/a	n/a	n/a	n/a	0	0	0
2197.6416015625	n/a	START	4500770	n/a	LTP376	ltpFR2	3	n/a	n/a	n/a	14	n/a	n/a	n/a	n/a
2197.658203125	n/a	PROB	4500804	n/a	LTP376	ltpFR2	3	n/a	n/a	n/a	14	9	3	2	2
2199.54052734375	n/a	PROB	4504659	n/a	LTP376	ltpFR2	3	n/a	n/a	n/a	14	9	1	4	4
2203.705078125	n/a	PROB	4513188	n/a	LTP376	ltpFR2	3	n/a	n/a	n/a	14	9	1	1	7
2205.4541015625	n/a	PROB	4516770	n/a	LTP376	ltpFR2	3	n/a	n/a	n/a	14	15	5	3	7
2206.9873046875	n/a	PROB	4519910	n/a	LTP376	ltpFR2	3	n/a	n/a	n/a	14	18	9	1	8
2208.93603515625	n/a	PROB	4523901	n/a	LTP376	ltpFR2	3	n/a	n/a	n/a	14	23	7	9	5
2221.640625	n/a	STOP	4549920	n/a	LTP376	ltpFR2	3	n/a	n/a	n/a	14	n/a	n/a	n/a	n/a
2222.61279296875	n/a	WORD	4551911	wordpools/wasnorm_wordpool_576.txt	LTP376	ltpFR2	3	10	CONVICT	371	n/a	n/a	0	0	0
2225.26171875	n/a	WORD	4557336	wordpools/wasnorm_wordpool_576.txt	LTP376	ltpFR2	3	10	GALLON	618	n/a	n/a	0	0	0
2228.00927734375	n/a	WORD	4562963	wordpools/wasnorm_wordpool_576.txt	LTP376	ltpFR2	3	10	MILK	895	n/a	n/a	0	0	0
2230.79150390625	n/a	WORD	4568661	wordpools/wasnorm_wordpool_576.txt	LTP376	ltpFR2	3	10	THRONE	1461	n/a	n/a	0	0	0
2233.22412109375	n/a	WORD	4573643	wordpools/wasnorm_wordpool_576.txt	LTP376	ltpFR2	3	10	PRINCESS	1125	n/a	n/a	0	0	0
2235.80615234375	n/a	WORD	4578931	wordpools/wasnorm_wordpool_576.txt	LTP376	ltpFR2	3	10	MARS	873	n/a	n/a	0	0	0
2238.60400390625	n/a	WORD	4584661	wordpools/wasnorm_wordpool_576.txt	LTP376	ltpFR2	3	10	VALVE	1546	n/a	n/a	0	0	0
2241.05322265625	n/a	WORD	4589677	wordpools/wasnorm_wordpool_576.txt	LTP376	ltpFR2	3	10	LAGOON	795	n/a	n/a	0	0	0
2243.5361328125	n/a	WORD	4594762	wordpools/wasnorm_wordpool_576.txt	LTP376	ltpFR2	3	10	BRANDY	169	n/a	n/a	0	0	0
2246.1181640625	n/a	WORD	4600050	wordpools/wasnorm_wordpool_576.txt	LTP376	ltpFR2	3	10	WIFE	1609	n/a	n/a	0	0	0
2248.9326171875	n/a	WORD	4605814	wordpools/wasnorm_wordpool_576.txt	LTP376	ltpFR2	3	10	HEDGE	699	n/a	n/a	0	0	0
2251.5146484375	n/a	WORD	4611102	wordpools/wasnorm_wordpool_576.txt	LTP376	ltpFR2	3	10	MASK	876	n/a	n/a	0	0	0
2254.130859375	n/a	WORD	4616460	wordpools/wasnorm_wordpool_576.txt	LTP376	ltpFR2	3	10	POPCORN	1104	n/a	n/a	0	0	0
2256.69580078125	n/a	WORD	4621713	wordpools/wasnorm_wordpool_576.txt	LTP376	ltpFR2	3	10	TORTOISE	1486	n/a	n/a	0	0	0
2259.361328125	n/a	WORD	4627172	wordpools/wasnorm_wordpool_576.txt	LTP376	ltpFR2	3	10	TRIBE	1505	n/a	n/a	0	0	0
2262.17626953125	n/a	WORD	4632937	wordpools/wasnorm_wordpool_576.txt	LTP376	ltpFR2	3	10	EYELASH	546	n/a	n/a	0	0	0
2264.62548828125	n/a	WORD	4637953	wordpools/wasnorm_wordpool_576.txt	LTP376	ltpFR2	3	10	TWIG	1527	n/a	n/a	0	0	0
2267.107421875	n/a	WORD	4643036	wordpools/wasnorm_wordpool_576.txt	LTP376	ltpFR2	3	10	CROWN	415	n/a	n/a	0	0	0
2269.90625	n/a	WORD	4648768	wordpools/wasnorm_wordpool_576.txt	LTP376	ltpFR2	3	10	HAND	683	n/a	n/a	0	0	0
2272.62109375	n/a	WORD	4654328	wordpools/wasnorm_wordpool_576.txt	LTP376	ltpFR2	3	10	PEBBLE	1035	n/a	n/a	0	0	0
2275.2529296875	n/a	WORD	4659718	wordpools/wasnorm_wordpool_576.txt	LTP376	ltpFR2	3	10	PALACE	1006	n/a	n/a	0	0	0
2278.001953125	n/a	WORD	4665348	wordpools/wasnorm_wordpool_576.txt	LTP376	ltpFR2	3	10	MUSTARD	935	n/a	n/a	0	0	0
2280.45068359375	n/a	WORD	4670363	wordpools/wasnorm_wordpool_576.txt	LTP376	ltpFR2	3	10	LILY	821	n/a	n/a	0	0	0
2283.11572265625	n/a	WORD	4675821	wordpools/wasnorm_wordpool_576.txt	LTP376	ltpFR2	3	10	KIDNEY	776	n/a	n/a	0	0	0
2284.73193359375	n/a	START	4679131	n/a	LTP376	ltpFR2	3	n/a	n/a	n/a	15	n/a	n/a	n/a	n/a
2285.86376953125	n/a	DISTRACTOR	4681449	n/a	LTP376	ltpFR2	3	10	n/a	n/a	n/a	n/a	0	0	0
2285.880859375	n/a	PROB	4681484	n/a	LTP376	ltpFR2	3	n/a	n/a	n/a	15	24	8	6	8
2289.87939453125	n/a	PROB	4689673	n/a	LTP376	ltpFR2	3	n/a	n/a	n/a	15	17	2	7	8
2295.00927734375	n/a	PROB	4700179	n/a	LTP376	ltpFR2	3	n/a	n/a	n/a	15	18	8	2	8
2297.0751953125	n/a	PROB	4704410	n/a	LTP376	ltpFR2	3	n/a	n/a	n/a	15	17	2	6	9
2301.990234375	n/a	PROB	4714476	n/a	LTP376	ltpFR2	3	n/a	n/a	n/a	15	14	2	5	7
2308.73095703125	n/a	STOP	4728281	n/a	LTP376	ltpFR2	3	n/a	n/a	n/a	15	n/a	n/a	n/a	n/a
2310.5029296875	n/a	REC_START	4731910	n/a	LTP376	ltpFR2	3	10	n/a	n/a	n/a	n/a	0	0	0
2311.82275390625	n/a	REC_WORD	4734613	wordpools/wasnorm_wordpool_576.txt	LTP376	ltpFR2	3	10	PRINCESS	1125	n/a	n/a	0	0	0
2313.19775390625	n/a	REC_WORD	4737429	wordpools/wasnorm_wordpool_576.txt	LTP376	ltpFR2	3	10	THRONE	1461	n/a	n/a	0	0	0
2314.8916015625	n/a	REC_WORD	4740898	wordpools/wasnorm_wordpool_576.txt	LTP376	ltpFR2	3	10	CROWN	415	n/a	n/a	0	0	0
2316.73486328125	n/a	REC_WORD	4744673	wordpools/wasnorm_wordpool_576.txt	LTP376	ltpFR2	3	10	PLUTO	1092	n/a	n/a	0	0	0
2318.474609375	n/a	REC_WORD	4748236	wordpools/wasnorm_wordpool_576.txt	LTP376	ltpFR2	3	10	LILY	821	n/a	n/a	0	0	0
2321.53759765625	n/a	REC_WORD	4754509	wordpools/wasnorm_wordpool_576.txt	LTP376	ltpFR2	3	10	HAND	683	n/a	n/a	0	0	0
2337.740234375	n/a	REC_WORD	4787692	wordpools/wasnorm_wordpool_576.txt	LTP376	ltpFR2	3	10	TWIG	1527	n/a	n/a	0	0	0
2503.1728515625	n/a	WORD	5126498	wordpools/wasnorm_wordpool_576.txt	LTP376	ltpFR2	3	11	SUPPER	1411	n/a	n/a	0	0	0
2505.60595703125	n/a	WORD	5131481	wordpools/wasnorm_wordpool_576.txt	LTP376	ltpFR2	3	11	NOVEL	960	n/a	n/a	0	0	0
2508.0537109375	n/a	WORD	5136494	wordpools/wasnorm_wordpool_576.txt	LTP376	ltpFR2	3	11	COTTAGE	384	n/a	n/a	0	0	0
2510.802734375	n/a	WORD	5142124	wordpools/wasnorm_wordpool_576.txt	LTP376	ltpFR2	3	11	SHELTER	1282	n/a	n/a	0	0	0
2513.40283203125	n/a	WORD	5147449	wordpools/wasnorm_wordpool_576.txt	LTP376	ltpFR2	3	11	DRESS	495	n/a	n/a	0	0	0
2515.93359375	n/a	WORD	5152632	wordpools/wasnorm_wordpool_576.txt	LTP376	ltpFR2	3	11	POLICE	1098	n/a	n/a	0	0	0
2518.58251953125	n/a	WORD	5158057	wordpools/wasnorm_wordpool_576.txt	LTP376	ltpFR2	3	11	BRANCH	168	n/a	n/a	0	0	0
2521.11474609375	n/a	WORD	5163243	wordpools/wasnorm_wordpool_576.txt	LTP376	ltpFR2	3	11	COLLEGE	346	n/a	n/a	0	0	0
2523.66357421875	n/a	WORD	5168463	wordpools/wasnorm_wordpool_576.txt	LTP376	ltpFR2	3	11	COFFEE	341	n/a	n/a	0	0	0
2526.34619140625	n/a	WORD	5173957	wordpools/wasnorm_wordpool_576.txt	LTP376	ltpFR2	3	11	CAFE	216	n/a	n/a	0	0	0
2529.02734375	n/a	WORD	5179448	wordpools/wasnorm_wordpool_576.txt	LTP376	ltpFR2	3	11	SLIDE	1326	n/a	n/a	0	0	0
2531.458984375	n/a	WORD	5184428	wordpools/wasnorm_wordpool_576.txt	LTP376	ltpFR2	3	11	POSTAGE	1113	n/a	n/a	0	0	0
2534.14111328125	n/a	WORD	5189921	wordpools/wasnorm_wordpool_576.txt	LTP376	ltpFR2	3	11	BOUQUET	157	n/a	n/a	0	0	0
2536.68994140625	n/a	WORD	5195141	wordpools/wasnorm_wordpool_576.txt	LTP376	ltpFR2	3	11	GAZELLE	628	n/a	n/a	0	0	0
2539.1220703125	n/a	WORD	5200122	wordpools/wasnorm_wordpool_576.txt	LTP376	ltpFR2	3	11	JELLO	754	n/a	n/a	0	0	0
2541.837890625	n/a	WORD	5205684	wordpools/wasnorm_wordpool_576.txt	LTP376	ltpFR2	3	11	DONKEY	484	n/a	n/a	0	0	0
2544.419921875	n/a	WORD	5210972	wordpools/wasnorm_wordpool_576.txt	LTP376	ltpFR2	3	11	ICEBERG	731	n/a	n/a	0	0	0
2547.134765625	n/a	WORD	5216532	wordpools/wasnorm_wordpool_576.txt	LTP376	ltpFR2	3	11	SUNRISE	1407	n/a	n/a	0	0	0
2549.61767578125	n/a	WORD	5221617	wordpools/wasnorm_wordpool_576.txt	LTP376	ltpFR2	3	11	PIGEON	1065	n/a	n/a	0	0	0
2552.0498046875	n/a	WORD	5226598	wordpools/wasnorm_wordpool_576.txt	LTP376	ltpFR2	3	11	INMATE	738	n/a	n/a	0	0	0
2554.66455078125	n/a	WORD	5231953	wordpools/wasnorm_wordpool_576.txt	LTP376	ltpFR2	3	11	CELLAR	267	n/a	n/a	0	0	0
2557.42919921875	n/a	WORD	5237615	wordpools/wasnorm_wordpool_576.txt	LTP376	ltpFR2	3	11	SEAGULL	1261	n/a	n/a	0	0	0
2560.21240234375	n/a	WORD	5243315	wordpools/wasnorm_wordpool_576.txt	LTP376	ltpFR2	3	11	MESSAGE	888	n/a	n/a	0	0	0
2562.6943359375	n/a	WORD	5248398	wordpools/wasnorm_wordpool_576.txt	LTP376	ltpFR2	3	11	POISON	1096	n/a	n/a	0	0	0
2564.31005859375	n/a	START	5251707	n/a	LTP376	ltpFR2	3	n/a	n/a	n/a	16	n/a	n/a	n/a	n/a
2565.42919921875	n/a	DISTRACTOR	5253999	n/a	LTP376	ltpFR2	3	11	n/a	n/a	n/a	n/a	0	0	0
2565.4423828125	n/a	PROB	5254026	n/a	LTP376	ltpFR2	3	n/a	n/a	n/a	16	24	7	7	8
2570.623046875	n/a	PROB	5264636	n/a	LTP376	ltpFR2	3	n/a	n/a	n/a	16	12	3	1	8
2573.955078125	n/a	PROB	5271460	n/a	LTP376	ltpFR2	3	n/a	n/a	n/a	16	19	8	3	8
2581.50146484375	n/a	PROB	5286915	n/a	LTP376	ltpFR2	3	n/a	n/a	n/a	16	18	9	8	1
2583.6005859375	n/a	PROB	5291214	n/a	LTP376	ltpFR2	3	n/a	n/a	n/a	16	21	9	9	3
2586.88232421875	n/a	STOP	5297935	n/a	LTP376	ltpFR2	3	n/a	n/a	n/a	16	n/a	n/a	n/a	n/a
2590.197265625	n/a	REC_START	5304724	n/a	LTP376	ltpFR2	3	11	n/a	n/a	n/a	n/a	0	0	0
2592.04052734375	n/a	REC_WORD	5308499	wordpools/wasnorm_wordpool_576.txt	LTP376	ltpFR2	3	11	SEAGULL	1261	n/a	n/a	0	0	0
2595.3662109375	n/a	REC_WORD	5315310	wordpools/wasnorm_wordpool_576.txt	LTP376	ltpFR2	3	11	COLLEGE	346	n/a	n/a	0	0	0
2596.873046875	n/a	REC_WORD	5318396	wordpools/wasnorm_wordpool_576.txt	LTP376	ltpFR2	3	11	COFFEE	341	n/a	n/a	0	0	0
2598.92724609375	n/a	REC_WORD	5322603	wordpools/wasnorm_wordpool_576.txt	LTP376	ltpFR2	3	11	SUPPER	1411	n/a	n/a	0	0	0
2600.85791015625	n/a	REC_WORD	5326557	wordpools/wasnorm_wordpool_576.txt	LTP376	ltpFR2	3	11	COTTAGE	384	n/a	n/a	0	0	0
2606.677734375	n/a	REC_WORD	5338476	wordpools/wasnorm_wordpool_576.txt	LTP376	ltpFR2	3	11	NOVEL	960	n/a	n/a	0	0	0
2661.9052734375	n/a	REC_WORD	5451582	wordpools/wasnorm_wordpool_576.txt	LTP376	ltpFR2	3	11	CAFE	216	n/a	n/a	0	0	0
2680.6357421875	n/a	DISTRACTOR	5489942	n/a	LTP376	ltpFR2	3	12	n/a	n/a	n/a	n/a	0	0	0
2680.6357421875	n/a	START	5489942	n/a	LTP376	ltpFR2	3	n/a	n/a	n/a	17	n/a	n/a	n/a	n/a
2680.65283203125	n/a	PROB	5489977	n/a	LTP376	ltpFR2	3	n/a	n/a	n/a	17	12	7	2	3
2682.5517578125	n/a	PROB	5493866	n/a	LTP376	ltpFR2	3	n/a	n/a	n/a	17	15	1	5	7
2686.21533203125	n/a	PROB	5501369	n/a	LTP376	ltpFR2	3	n/a	n/a	n/a	17	11	2	5	4
2690.9970703125	n/a	PROB	5511162	n/a	LTP376	ltpFR2	3	n/a	n/a	n/a	17	17	6	9	2
2695.59521484375	n/a	PROB	5520579	n/a	LTP376	ltpFR2	3	n/a	n/a	n/a	17	19	5	5	9
2698.126953125	n/a	PROB	5525764	n/a	LTP376	ltpFR2	3	n/a	n/a	n/a	17	11	9	1	1
2700.458984375	n/a	PROB	5530540	n/a	LTP376	ltpFR2	3	n/a	n/a	n/a	17	10	2	1	7
2702.44091796875	n/a	PROB	5534599	n/a	LTP376	ltpFR2	3	n/a	n/a	n/a	17	16	5	5	6
2704.505859375	n/a	STOP	5538828	n/a	LTP376	ltpFR2	3	n/a	n/a	n/a	17	n/a	n/a	n/a	n/a
2705.57275390625	n/a	WORD	5541013	wordpools/wasnorm_wordpool_576.txt	LTP376	ltpFR2	3	12	HUSBAND	728	n/a	n/a	0	0	0
2708.3896484375	n/a	WORD	5546782	wordpools/wasnorm_wordpool_576.txt	LTP376	ltpFR2	3	12	SUSPECT	1415	n/a	n/a	0	0	0
2710.82080078125	n/a	WORD	5551761	wordpools/wasnorm_wordpool_576.txt	LTP376	ltpFR2	3	12	TWEEZERS	1526	n/a	n/a	0	0	0
2713.56884765625	n/a	WORD	5557389	wordpools/wasnorm_wordpool_576.txt	LTP376	ltpFR2	3	12	RAZOR	1171	n/a	n/a	0	0	0
2716.11767578125	n/a	WORD	5562609	wordpools/wasnorm_wordpool_576.txt	LTP376	ltpFR2	3	12	SLIME	1327	n/a	n/a	0	0	0
2718.94921875	n/a	WORD	5568408	wordpools/wasnorm_wordpool_576.txt	LTP376	ltpFR2	3	12	CRUTCH	417	n/a	n/a	0	0	0
2721.58251953125	n/a	WORD	5573801	wordpools/wasnorm_wordpool_576.txt	LTP376	ltpFR2	3	12	THIEF	1456	n/a	n/a	0	0	0
2724.0302734375	n/a	WORD	5578814	wordpools/wasnorm_wordpool_576.txt	LTP376	ltpFR2	3	12	MARROW	872	n/a	n/a	0	0	0
2726.81201171875	n/a	WORD	5584511	wordpools/wasnorm_wordpool_576.txt	LTP376	ltpFR2	3	12	RAFT	1159	n/a	n/a	0	0	0
2729.2451171875	n/a	WORD	5589494	wordpools/wasnorm_wordpool_576.txt	LTP376	ltpFR2	3	12	LIGHTNING	820	n/a	n/a	0	0	0
2732.04296875	n/a	WORD	5595224	wordpools/wasnorm_wordpool_576.txt	LTP376	ltpFR2	3	12	FLEET	578	n/a	n/a	0	0	0
2734.85888671875	n/a	WORD	5600991	wordpools/wasnorm_wordpool_576.txt	LTP376	ltpFR2	3	12	TROUT	1511	n/a	n/a	0	0	0
2737.60693359375	n/a	WORD	5606619	wordpools/wasnorm_wordpool_576.txt	LTP376	ltpFR2	3	12	CHURCH	307	n/a	n/a	0	0	0
2740.15576171875	n/a	WORD	5611839	wordpools/wasnorm_wordpool_576.txt	LTP376	ltpFR2	3	12	HEART	697	n/a	n/a	0	0	0
2742.87158203125	n/a	WORD	5617401	wordpools/wasnorm_wordpool_576.txt	LTP376	ltpFR2	3	12	FOREHEAD	592	n/a	n/a	0	0	0
2745.56982421875	n/a	WORD	5622927	wordpools/wasnorm_wordpool_576.txt	LTP376	ltpFR2	3	12	HEADBAND	696	n/a	n/a	0	0	0
2748.11865234375	n/a	WORD	5628147	wordpools/wasnorm_wordpool_576.txt	LTP376	ltpFR2	3	12	CRICKET	408	n/a	n/a	0	0	0
2750.6005859375	n/a	WORD	5633230	wordpools/wasnorm_wordpool_576.txt	LTP376	ltpFR2	3	12	PEDAL	1037	n/a	n/a	0	0	0
2753.1494140625	n/a	WORD	5638450	wordpools/wasnorm_wordpool_576.txt	LTP376	ltpFR2	3	12	COCKTAIL	338	n/a	n/a	0	0	0
2755.71533203125	n/a	WORD	5643705	wordpools/wasnorm_wordpool_576.txt	LTP376	ltpFR2	3	12	DRINK	498	n/a	n/a	0	0	0
2758.23046875	n/a	WORD	5648856	wordpools/wasnorm_wordpool_576.txt	LTP376	ltpFR2	3	12	NECKLACE	940	n/a	n/a	0	0	0
2760.89501953125	n/a	WORD	5654313	wordpools/wasnorm_wordpool_576.txt	LTP376	ltpFR2	3	12	CROSS	413	n/a	n/a	0	0	0
2763.64404296875	n/a	WORD	5659943	wordpools/wasnorm_wordpool_576.txt	LTP376	ltpFR2	3	12	PRIMATE	1123	n/a	n/a	0	0	0
2766.27587890625	n/a	WORD	5665333	wordpools/wasnorm_wordpool_576.txt	LTP376	ltpFR2	3	12	YOLK	1633	n/a	n/a	0	0	0
2767.89306640625	n/a	START	5668645	n/a	LTP376	ltpFR2	3	n/a	n/a	n/a	18	n/a	n/a	n/a	n/a
2768.82080078125	n/a	DISTRACTOR	5670545	n/a	LTP376	ltpFR2	3	12	n/a	n/a	n/a	n/a	0	0	0
2768.82470703125	n/a	PROB	5670553	n/a	LTP376	ltpFR2	3	n/a	n/a	n/a	18	24	7	6	9
2774.921875	n/a	PROB	5683040	n/a	LTP376	ltpFR2	3	n/a	n/a	n/a	18	12	6	3	3
2781.818359375	n/a	PROB	5697164	n/a	LTP376	ltpFR2	3	n/a	n/a	n/a	18	13	2	5	6
2791.89208984375	n/a	STOP	5717795	n/a	LTP376	ltpFR2	3	n/a	n/a	n/a	18	n/a	n/a	n/a	n/a
2793.6630859375	n/a	REC_START	5721422	n/a	LTP376	ltpFR2	3	12	n/a	n/a	n/a	n/a	0	0	0
2868.65576171875	n/a	REC_WORD_VV	5875007	wordpools/wasnorm_wordpool_576.txt	LTP376	ltpFR2	3	12	<>	-1	n/a	n/a	0	0	0
2930.14501953125	n/a	WORD	6000937	wordpools/wasnorm_wordpool_576.txt	LTP376	ltpFR2	3	13	ROBOT	1200	n/a	n/a	0	0	0
2932.69384765625	n/a	WORD	6006157	wordpools/wasnorm_wordpool_576.txt	LTP376	ltpFR2	3	13	ORCHID	982	n/a	n/a	0	0	0
2935.17578125	n/a	WORD	6011240	wordpools/wasnorm_wordpool_576.txt	LTP376	ltpFR2	3	13	SOFTBALL	1343	n/a	n/a	0	0	0
2937.90771484375	n/a	WORD	6016835	wordpools/wasnorm_wordpool_576.txt	LTP376	ltpFR2	3	13	BLACKBOARD	133	n/a	n/a	0	0	0
2940.673828125	n/a	WORD	6022500	wordpools/wasnorm_wordpool_576.txt	LTP376	ltpFR2	3	13	BOARD	143	n/a	n/a	0	0	0
2943.48876953125	n/a	WORD	6028265	wordpools/wasnorm_wordpool_576.txt	LTP376	ltpFR2	3	13	CLOCK	325	n/a	n/a	0	0	0
2946.17041015625	n/a	WORD	6033757	wordpools/wasnorm_wordpool_576.txt	LTP376	ltpFR2	3	13	PASSAGE	1019	n/a	n/a	0	0	0
2948.75244140625	n/a	WORD	6039045	wordpools/wasnorm_wordpool_576.txt	LTP376	ltpFR2	3	13	CHAUFFEUR	283	n/a	n/a	0	0	0
2951.50146484375	n/a	WORD	6044675	wordpools/wasnorm_wordpool_576.txt	LTP376	ltpFR2	3	13	TUTU	1524	n/a	n/a	0	0	0
2954.30029296875	n/a	WORD	6050407	wordpools/wasnorm_wordpool_576.txt	LTP376	ltpFR2	3	13	STAR	1373	n/a	n/a	0	0	0
2957.09814453125	n/a	WORD	6056137	wordpools/wasnorm_wordpool_576.txt	LTP376	ltpFR2	3	13	TRANSPLANT	1496	n/a	n/a	0	0	0
2959.796875	n/a	WORD	6061664	wordpools/wasnorm_wordpool_576.txt	LTP376	ltpFR2	3	13	FLESH	579	n/a	n/a	0	0	0
2962.51220703125	n/a	WORD	6067225	wordpools/wasnorm_wordpool_576.txt	LTP376	ltpFR2	3	13	BIKE	125	n/a	n/a	0	0	0
2965.3291015625	n/a	WORD	6072994	wordpools/wasnorm_wordpool_576.txt	LTP376	ltpFR2	3	13	PIGMENT	1066	n/a	n/a	0	0	0
2967.85986328125	n/a	WORD	6078177	wordpools/wasnorm_wordpool_576.txt	LTP376	ltpFR2	3	13	HOUND	724	n/a	n/a	0	0	0
2970.62451171875	n/a	WORD	6083839	wordpools/wasnorm_wordpool_576.txt	LTP376	ltpFR2	3	13	GUARD	667	n/a	n/a	0	0	0
2973.1904296875	n/a	WORD	6089094	wordpools/wasnorm_wordpool_576.txt	LTP376	ltpFR2	3	13	CRITIC	410	n/a	n/a	0	0	0
2975.82275390625	n/a	WORD	6094485	wordpools/wasnorm_wordpool_576.txt	LTP376	ltpFR2	3	13	MARKER	870	n/a	n/a	0	0	0
2978.45458984375	n/a	WORD	6099875	wordpools/wasnorm_wordpool_576.txt	LTP376	ltpFR2	3	13	BARREL	91	n/a	n/a	0	0	0
2980.96923828125	n/a	WORD	6105025	wordpools/wasnorm_wordpool_576.txt	LTP376	ltpFR2	3	13	FEMALE	559	n/a	n/a	0	0	0
2983.4853515625	n/a	WORD	6110178	wordpools/wasnorm_wordpool_576.txt	LTP376	ltpFR2	3	13	HELMET	702	n/a	n/a	0	0	0
2986.13427734375	n/a	WORD	6115603	wordpools/wasnorm_wordpool_576.txt	LTP376	ltpFR2	3	13	WRENCH	1625	n/a	n/a	0	0	0
2988.88232421875	n/a	WORD	6121231	wordpools/wasnorm_wordpool_576.txt	LTP376	ltpFR2	3	13	TREAT	1501	n/a	n/a	0	0	0
2991.53125	n/a	WORD	6126656	wordpools/wasnorm_wordpool_576.txt	LTP376	ltpFR2	3	13	BALLOON	75	n/a	n/a	0	0	0
2993.14697265625	n/a	START	6129965	n/a	LTP376	ltpFR2	3	n/a	n/a	n/a	19	n/a	n/a	n/a	n/a
2994.31298828125	n/a	DISTRACTOR	6132353	n/a	LTP376	ltpFR2	3	13	n/a	n/a	n/a	n/a	0	0	0
2994.3310546875	n/a	PROB	6132390	n/a	LTP376	ltpFR2	3	n/a	n/a	n/a	19	14	6	7	1
2999.0107421875	n/a	PROB	6141974	n/a	LTP376	ltpFR2	3	n/a	n/a	n/a	19	10	1	1	8
3001.2099609375	n/a	PROB	6146478	n/a	LTP376	ltpFR2	3	n/a	n/a	n/a	19	24	8	7	8
3006.54052734375	n/a	PROB	6157395	n/a	LTP376	ltpFR2	3	n/a	n/a	n/a	19	15	8	3	4
3010.888671875	n/a	PROB	6166300	n/a	LTP376	ltpFR2	3	n/a	n/a	n/a	19	16	6	1	7
3017.146484375	n/a	STOP	6179116	n/a	LTP376	ltpFR2	3	n/a	n/a	n/a	19	n/a	n/a	n/a	n/a
3018.951171875	n/a	REC_START	6182812	n/a	LTP376	ltpFR2	3	13	n/a	n/a	n/a	n/a	0	0	0
3019.994140625	n/a	REC_WORD	6184948	wordpools/wasnorm_wordpool_576.txt	LTP376	ltpFR2	3	13	ORCHID	982	n/a	n/a	0	0	0
3021.34619140625	n/a	REC_WORD	6187717	wordpools/wasnorm_wordpool_576.txt	LTP376	ltpFR2	3	13	ROBOT	1200	n/a	n/a	0	0	0
3037.56591796875	n/a	REC_WORD	6220935	wordpools/wasnorm_wordpool_576.txt	LTP376	ltpFR2	3	13	BLACKBOARD	133	n/a	n/a	0	0	0
3039.87353515625	n/a	REC_WORD	6225661	wordpools/wasnorm_wordpool_576.txt	LTP376	ltpFR2	3	13	BOARD	143	n/a	n/a	0	0	0
3048.87548828125	n/a	REC_WORD	6244097	wordpools/wasnorm_wordpool_576.txt	LTP376	ltpFR2	3	13	FEMALE	559	n/a	n/a	0	0	0
3109.3896484375	n/a	DISTRACTOR	6368030	n/a	LTP376	ltpFR2	3	14	n/a	n/a	n/a	n/a	0	0	0
3109.3896484375	n/a	START	6368030	n/a	LTP376	ltpFR2	3	n/a	n/a	n/a	20	n/a	n/a	n/a	n/a
3109.40673828125	n/a	PROB	6368065	n/a	LTP376	ltpFR2	3	n/a	n/a	n/a	20	23	9	7	5
3115.4033203125	n/a	PROB	6380346	n/a	LTP376	ltpFR2	3	n/a	n/a	n/a	20	11	2	3	6
3119.5009765625	n/a	PROB	6388738	n/a	LTP376	ltpFR2	3	n/a	n/a	n/a	20	17	9	2	6
3123.39892578125	n/a	PROB	6396721	n/a	LTP376	ltpFR2	3	n/a	n/a	n/a	20	20	7	6	7
3133.388671875	n/a	STOP	6417180	n/a	LTP376	ltpFR2	3	n/a	n/a	n/a	20	n/a	n/a	n/a	n/a
3134.4267578125	n/a	WORD	6419306	wordpools/wasnorm_wordpool_576.txt	LTP376	ltpFR2	3	14	NOTEBOOK	959	n/a	n/a	0	0	0
3137.02587890625	n/a	WORD	6424629	wordpools/wasnorm_wordpool_576.txt	LTP376	ltpFR2	3	14	CONTRACT	368	n/a	n/a	0	0	0
3139.79150390625	n/a	WORD	6430293	wordpools/wasnorm_wordpool_576.txt	LTP376	ltpFR2	3	14	FRIEND	606	n/a	n/a	0	0	0
3142.42333984375	n/a	WORD	6435683	wordpools/wasnorm_wordpool_576.txt	LTP376	ltpFR2	3	14	PARTNER	1017	n/a	n/a	0	0	0
3144.9052734375	n/a	WORD	6440766	wordpools/wasnorm_wordpool_576.txt	LTP376	ltpFR2	3	14	KNAPSACK	783	n/a	n/a	0	0	0
3147.58740234375	n/a	WORD	6446259	wordpools/wasnorm_wordpool_576.txt	LTP376	ltpFR2	3	14	VELVET	1555	n/a	n/a	0	0	0
3150.2861328125	n/a	WORD	6451786	wordpools/wasnorm_wordpool_576.txt	LTP376	ltpFR2	3	14	RADISH	1158	n/a	n/a	0	0	0
3152.7353515625	n/a	WORD	6456802	wordpools/wasnorm_wordpool_576.txt	LTP376	ltpFR2	3	14	BUGGY	188	n/a	n/a	0	0	0
3155.43310546875	n/a	WORD	6462327	wordpools/wasnorm_wordpool_576.txt	LTP376	ltpFR2	3	14	SEAFOOD	1260	n/a	n/a	0	0	0
3158.09912109375	n/a	WORD	6467787	wordpools/wasnorm_wordpool_576.txt	LTP376	ltpFR2	3	14	ITEM	746	n/a	n/a	0	0	0
3160.59814453125	n/a	WORD	6472905	wordpools/wasnorm_wordpool_576.txt	LTP376	ltpFR2	3	14	DRESSER	496	n/a	n/a	0	0	0
3163.4130859375	n/a	WORD	6478670	wordpools/wasnorm_wordpool_576.txt	LTP376	ltpFR2	3	14	CITRUS	313	n/a	n/a	0	0	0
3165.89453125	n/a	WORD	6483752	wordpools/wasnorm_wordpool_576.txt	LTP376	ltpFR2	3	14	SMOG	1330	n/a	n/a	0	0	0
3168.69384765625	n/a	WORD	6489485	wordpools/wasnorm_wordpool_576.txt	LTP376	ltpFR2	3	14	LUGGAGE	847	n/a	n/a	0	0	0
3171.142578125	n/a	WORD	6494500	wordpools/wasnorm_wordpool_576.txt	LTP376	ltpFR2	3	14	WAGON	1578	n/a	n/a	0	0	0
3173.87451171875	n/a	WORD	6500095	wordpools/wasnorm_wordpool_576.txt	LTP376	ltpFR2	3	14	FRAGRANCE	599	n/a	n/a	0	0	0
3176.556640625	n/a	WORD	6505588	wordpools/wasnorm_wordpool_576.txt	LTP376	ltpFR2	3	14	ONION	977	n/a	n/a	0	0	0
3179.1884765625	n/a	WORD	6510978	wordpools/wasnorm_wordpool_576.txt	LTP376	ltpFR2	3	14	BACKBONE	66	n/a	n/a	0	0	0
3181.8203125	n/a	WORD	6516368	wordpools/wasnorm_wordpool_576.txt	LTP376	ltpFR2	3	14	PACKAGE	997	n/a	n/a	0	0	0
3184.30224609375	n/a	WORD	6521451	wordpools/wasnorm_wordpool_576.txt	LTP376	ltpFR2	3	14	POET	1095	n/a	n/a	0	0	0
3186.7509765625	n/a	WORD	6526466	wordpools/wasnorm_wordpool_576.txt	LTP376	ltpFR2	3	14	LUNCH	849	n/a	n/a	0	0	0
3189.4658203125	n/a	WORD	6532026	wordpools/wasnorm_wordpool_576.txt	LTP376	ltpFR2	3	14	SHORTS	1293	n/a	n/a	0	0	0
3191.98193359375	n/a	WORD	6537179	wordpools/wasnorm_wordpool_576.txt	LTP376	ltpFR2	3	14	GRAVEL	659	n/a	n/a	0	0	0
3194.4140625	n/a	WORD	6542160	wordpools/wasnorm_wordpool_576.txt	LTP376	ltpFR2	3	14	CLAM	315	n/a	n/a	0	0	0
3196.046875	n/a	START	6545504	n/a	LTP376	ltpFR2	3	n/a	n/a	n/a	21	n/a	n/a	n/a	n/a
3197.041015625	n/a	DISTRACTOR	6547540	n/a	LTP376	ltpFR2	3	14	n/a	n/a	n/a	n/a	0	0	0
3197.0458984375	n/a	PROB	6547550	n/a	LTP376	ltpFR2	3	n/a	n/a	n/a	21	23	5	9	8
3202.060546875	n/a	PROB	6557820	n/a	LTP376	ltpFR2	3	n/a	n/a	n/a	21	9	1	1	7
3203.45947265625	n/a	PROB	6560685	n/a	LTP376	ltpFR2	3	n/a	n/a	n/a	21	15	9	5	1
3205.04248046875	n/a	PROB	6563927	n/a	LTP376	ltpFR2	3	n/a	n/a	n/a	21	25	7	6	8
3210.53955078125	n/a	PROB	6575185	n/a	LTP376	ltpFR2	3	n/a	n/a	n/a	21	23	8	8	9
3220.0458984375	n/a	STOP	6594654	n/a	LTP376	ltpFR2	3	n/a	n/a	n/a	21	n/a	n/a	n/a	n/a
3221.951171875	n/a	REC_START	6598556	n/a	LTP376	ltpFR2	3	14	n/a	n/a	n/a	n/a	0	0	0
3223.046875	n/a	REC_WORD	6600800	wordpools/wasnorm_wordpool_576.txt	LTP376	ltpFR2	3	14	BUGGY	188	n/a	n/a	0	0	0
3224.2412109375	n/a	REC_WORD	6603246	wordpools/wasnorm_wordpool_576.txt	LTP376	ltpFR2	3	14	PACKAGE	997	n/a	n/a	0	0	0
3225.05078125	n/a	REC_WORD	6604904	wordpools/wasnorm_wordpool_576.txt	LTP376	ltpFR2	3	14	SMOG	1330	n/a	n/a	0	0	0
3227.02001953125	n/a	REC_WORD	6608937	wordpools/wasnorm_wordpool_576.txt	LTP376	ltpFR2	3	14	GRAVEL	659	n/a	n/a	0	0	0
3273.75732421875	n/a	REC_WORD	6704655	wordpools/wasnorm_wordpool_576.txt	LTP376	ltpFR2	3	14	CLAM	315	n/a	n/a	0	0	0
3312.38916015625	n/a	DISTRACTOR	6783773	n/a	LTP376	ltpFR2	3	15	n/a	n/a	n/a	n/a	0	0	0
3312.38916015625	n/a	START	6783773	n/a	LTP376	ltpFR2	3	n/a	n/a	n/a	22	n/a	n/a	n/a	n/a
3312.4052734375	n/a	PROB	6783806	n/a	LTP376	ltpFR2	3	n/a	n/a	n/a	22	21	7	8	6
3317.4033203125	n/a	PROB	6794042	n/a	LTP376	ltpFR2	3	n/a	n/a	n/a	22	21	9	4	8
3320.80078125	n/a	PROB	6801000	n/a	LTP376	ltpFR2	3	n/a	n/a	n/a	22	19	9	2	8
3322.833984375	n/a	PROB	6805164	n/a	LTP376	ltpFR2	3	n/a	n/a	n/a	22	17	7	8	2
3324.44970703125	n/a	PROB	6808473	n/a	LTP376	ltpFR2	3	n/a	n/a	n/a	22	12	4	2	6
3326.19873046875	n/a	PROB	6812055	n/a	LTP376	ltpFR2	3	n/a	n/a	n/a	22	12	1	8	3
3328.64794921875	n/a	PROB	6817071	n/a	LTP376	ltpFR2	3	n/a	n/a	n/a	22	21	6	6	9
3334.8828125	n/a	STOP	6829840	n/a	LTP376	ltpFR2	3	n/a	n/a	n/a	22	n/a	n/a	n/a	n/a
3337.42626953125	n/a	WORD	6835049	wordpools/wasnorm_wordpool_576.txt	LTP376	ltpFR2	3	15	LIZARD	834	n/a	n/a	0	0	0
3340.0751953125	n/a	WORD	6840474	wordpools/wasnorm_wordpool_576.txt	LTP376	ltpFR2	3	15	TROMBONE	1508	n/a	n/a	0	0	0
3342.67431640625	n/a	WORD	6845797	wordpools/wasnorm_wordpool_576.txt	LTP376	ltpFR2	3	15	PUPIL	1143	n/a	n/a	0	0	0
3345.38916015625	n/a	WORD	6851357	wordpools/wasnorm_wordpool_576.txt	LTP376	ltpFR2	3	15	OX	994	n/a	n/a	0	0	0
3347.904296875	n/a	WORD	6856508	wordpools/wasnorm_wordpool_576.txt	LTP376	ltpFR2	3	15	RECEIPT	1173	n/a	n/a	0	0	0
3350.6533203125	n/a	WORD	6862138	wordpools/wasnorm_wordpool_576.txt	LTP376	ltpFR2	3	15	SKIRT	1319	n/a	n/a	0	0	0
3353.4521484375	n/a	WORD	6867870	wordpools/wasnorm_wordpool_576.txt	LTP376	ltpFR2	3	15	PICNIC	1060	n/a	n/a	0	0	0
3356.10107421875	n/a	WORD	6873295	wordpools/wasnorm_wordpool_576.txt	LTP376	ltpFR2	3	15	ORANGE	980	n/a	n/a	0	0	0
3358.81591796875	n/a	WORD	6878855	wordpools/wasnorm_wordpool_576.txt	LTP376	ltpFR2	3	15	STUDENT	1395	n/a	n/a	0	0	0
3361.36572265625	n/a	WORD	6884077	wordpools/wasnorm_wordpool_576.txt	LTP376	ltpFR2	3	15	PUPPY	1144	n/a	n/a	0	0	0
3363.9638671875	n/a	WORD	6889398	wordpools/wasnorm_wordpool_576.txt	LTP376	ltpFR2	3	15	BULLET	194	n/a	n/a	0	0	0
3366.51171875	n/a	WORD	6894616	wordpools/wasnorm_wordpool_576.txt	LTP376	ltpFR2	3	15	PISTOL	1075	n/a	n/a	0	0	0
3368.9775390625	n/a	WORD	6899666	wordpools/wasnorm_wordpool_576.txt	LTP376	ltpFR2	3	15	BRAKE	166	n/a	n/a	0	0	0
3371.609375	n/a	WORD	6905056	wordpools/wasnorm_wordpool_576.txt	LTP376	ltpFR2	3	15	FOOTBALL	591	n/a	n/a	0	0	0
3374.2412109375	n/a	WORD	6910446	wordpools/wasnorm_wordpool_576.txt	LTP376	ltpFR2	3	15	CATCHER	258	n/a	n/a	0	0	0
3377.00732421875	n/a	WORD	6916111	wordpools/wasnorm_wordpool_576.txt	LTP376	ltpFR2	3	15	PROTON	1132	n/a	n/a	0	0	0
3379.7392578125	n/a	WORD	6921706	wordpools/wasnorm_wordpool_576.txt	LTP376	ltpFR2	3	15	FLASK	576	n/a	n/a	0	0	0
3382.52099609375	n/a	WORD	6927403	wordpools/wasnorm_wordpool_576.txt	LTP376	ltpFR2	3	15	REBEL	1172	n/a	n/a	0	0	0
3385.01904296875	n/a	WORD	6932519	wordpools/wasnorm_wordpool_576.txt	LTP376	ltpFR2	3	15	PASTRY	1022	n/a	n/a	0	0	0
3387.8349609375	n/a	WORD	6938286	wordpools/wasnorm_wordpool_576.txt	LTP376	ltpFR2	3	15	SCRIBBLE	1256	n/a	n/a	0	0	0
3390.39990234375	n/a	WORD	6943539	wordpools/wasnorm_wordpool_576.txt	LTP376	ltpFR2	3	15	DRILL	497	n/a	n/a	0	0	0
3393.03173828125	n/a	WORD	6948929	wordpools/wasnorm_wordpool_576.txt	LTP376	ltpFR2	3	15	FIREPLACE	570	n/a	n/a	0	0	0
3395.59765625	n/a	WORD	6954184	wordpools/wasnorm_wordpool_576.txt	LTP376	ltpFR2	3	15	REPORT	1184	n/a	n/a	0	0	0
3398.24658203125	n/a	WORD	6959609	wordpools/wasnorm_wordpool_576.txt	LTP376	ltpFR2	3	15	WASHER	1592	n/a	n/a	0	0	0
3399.86279296875	n/a	START	6962919	n/a	LTP376	ltpFR2	3	n/a	n/a	n/a	23	n/a	n/a	n/a	n/a
3400.849609375	n/a	DISTRACTOR	6964940	n/a	LTP376	ltpFR2	3	15	n/a	n/a	n/a	n/a	0	0	0
3400.861328125	n/a	PROB	6964964	n/a	LTP376	ltpFR2	3	n/a	n/a	n/a	23	16	5	9	2
3404.07666015625	n/a	PROB	6971549	n/a	LTP376	ltpFR2	3	n/a	n/a	n/a	23	19	5	9	5
3406.4423828125	n/a	PROB	6976394	n/a	LTP376	ltpFR2	3	n/a	n/a	n/a	23	14	9	3	2
3409.107421875	n/a	PROB	6981852	n/a	LTP376	ltpFR2	3	n/a	n/a	n/a	23	8	3	2	3
3411.5732421875	n/a	PROB	6986902	n/a	LTP376	ltpFR2	3	n/a	n/a	n/a	23	13	9	2	2
3414.42138671875	n/a	PROB	6992735	n/a	LTP376	ltpFR2	3	n/a	n/a	n/a	23	26	7	7	8
3423.86181640625	n/a	STOP	7012069	n/a	LTP376	ltpFR2	3	n/a	n/a	n/a	23	n/a	n/a	n/a	n/a
3425.61669921875	n/a	REC_START	7015663	n/a	LTP376	ltpFR2	3	15	n/a	n/a	n/a	n/a	0	0	0
3441.70947265625	n/a	REC_WORD	7048621	wordpools/wasnorm_wordpool_576.txt	LTP376	ltpFR2	3	15	PISTOL	1075	n/a	n/a	0	0	0
3443.05322265625	n/a	REC_WORD	7051373	wordpools/wasnorm_wordpool_576.txt	LTP376	ltpFR2	3	15	BULLET	194	n/a	n/a	0	0	0
3444.68115234375	n/a	REC_WORD	7054707	wordpools/wasnorm_wordpool_576.txt	LTP376	ltpFR2	3	15	REBEL	1172	n/a	n/a	0	0	0
3450.4638671875	n/a	REC_WORD	7066550	wordpools/wasnorm_wordpool_576.txt	LTP376	ltpFR2	3	15	SKIRT	1319	n/a	n/a	0	0	0
3452.60791015625	n/a	REC_WORD	7070941	wordpools/wasnorm_wordpool_576.txt	LTP376	ltpFR2	3	15	STUDENT	1395	n/a	n/a	0	0	0
3516.07080078125	n/a	WORD	7200913	wordpools/wasnorm_wordpool_576.txt	LTP376	ltpFR2	3	16	SILK	1307	n/a	n/a	0	0	0
3518.552734375	n/a	WORD	7205996	wordpools/wasnorm_wordpool_576.txt	LTP376	ltpFR2	3	16	HORNET	718	n/a	n/a	0	0	0
3521.03564453125	n/a	WORD	7211081	wordpools/wasnorm_wordpool_576.txt	LTP376	ltpFR2	3	16	PAIL	1002	n/a	n/a	0	0	0
3523.6005859375	n/a	WORD	7216334	wordpools/wasnorm_wordpool_576.txt	LTP376	ltpFR2	3	16	CUSTARD	429	n/a	n/a	0	0	0
3526.03271484375	n/a	WORD	7221315	wordpools/wasnorm_wordpool_576.txt	LTP376	ltpFR2	3	16	PUDDING	1139	n/a	n/a	0	0	0
3528.61474609375	n/a	WORD	7226603	wordpools/wasnorm_wordpool_576.txt	LTP376	ltpFR2	3	16	CHEMIST	292	n/a	n/a	0	0	0
3531.33154296875	n/a	WORD	7232167	wordpools/wasnorm_wordpool_576.txt	LTP376	ltpFR2	3	16	BOX	159	n/a	n/a	0	0	0
3533.779296875	n/a	WORD	7237180	wordpools/wasnorm_wordpool_576.txt	LTP376	ltpFR2	3	16	CYCLONE	431	n/a	n/a	0	0	0
3536.57763671875	n/a	WORD	7242911	wordpools/wasnorm_wordpool_576.txt	LTP376	ltpFR2	3	16	LOFT	840	n/a	n/a	0	0	0
3539.2265625	n/a	WORD	7248336	wordpools/wasnorm_wordpool_576.txt	LTP376	ltpFR2	3	16	SIBLING	1301	n/a	n/a	0	0	0
3541.67529296875	n/a	WORD	7253351	wordpools/wasnorm_wordpool_576.txt	LTP376	ltpFR2	3	16	DAUGHTER	442	n/a	n/a	0	0	0
3544.43994140625	n/a	WORD	7259013	wordpools/wasnorm_wordpool_576.txt	LTP376	ltpFR2	3	16	GROUND	666	n/a	n/a	0	0	0
3547.02197265625	n/a	WORD	7264301	wordpools/wasnorm_wordpool_576.txt	LTP376	ltpFR2	3	16	GIFT	635	n/a	n/a	0	0	0
3549.52099609375	n/a	WORD	7269419	wordpools/wasnorm_wordpool_576.txt	LTP376	ltpFR2	3	16	GUITAR	670	n/a	n/a	0	0	0
3552.06982421875	n/a	WORD	7274639	wordpools/wasnorm_wordpool_576.txt	LTP376	ltpFR2	3	16	BINDER	127	n/a	n/a	0	0	0
3554.78466796875	n/a	WORD	7280199	wordpools/wasnorm_wordpool_576.txt	LTP376	ltpFR2	3	16	BUG	187	n/a	n/a	0	0	0
3557.45068359375	n/a	WORD	7285659	wordpools/wasnorm_wordpool_576.txt	LTP376	ltpFR2	3	16	PERMIT	1051	n/a	n/a	0	0	0
3560.24951171875	n/a	WORD	7291391	wordpools/wasnorm_wordpool_576.txt	LTP376	ltpFR2	3	16	TWISTER	1530	n/a	n/a	0	0	0
3562.94775390625	n/a	WORD	7296917	wordpools/wasnorm_wordpool_576.txt	LTP376	ltpFR2	3	16	NEUTRON	947	n/a	n/a	0	0	0
3565.61328125	n/a	WORD	7302376	wordpools/wasnorm_wordpool_576.txt	LTP376	ltpFR2	3	16	CATTLE	261	n/a	n/a	0	0	0
3568.1953125	n/a	WORD	7307664	wordpools/wasnorm_wordpool_576.txt	LTP376	ltpFR2	3	16	FARMER	553	n/a	n/a	0	0	0
3570.9775390625	n/a	WORD	7313362	wordpools/wasnorm_wordpool_576.txt	LTP376	ltpFR2	3	16	PREACHER	1119	n/a	n/a	0	0	0
3573.54248046875	n/a	WORD	7318615	wordpools/wasnorm_wordpool_576.txt	LTP376	ltpFR2	3	16	SHRUB	1299	n/a	n/a	0	0	0
3576.2744140625	n/a	WORD	7324210	wordpools/wasnorm_wordpool_576.txt	LTP376	ltpFR2	3	16	ATOM	55	n/a	n/a	0	0	0
3577.89111328125	n/a	START	7327521	n/a	LTP376	ltpFR2	3	n/a	n/a	n/a	24	n/a	n/a	n/a	n/a
3578.84326171875	n/a	DISTRACTOR	7329471	n/a	LTP376	ltpFR2	3	16	n/a	n/a	n/a	n/a	0	0	0
3578.85693359375	n/a	PROB	7329499	n/a	LTP376	ltpFR2	3	n/a	n/a	n/a	24	18	3	7	8
3584.4541015625	n/a	PROB	7340962	n/a	LTP376	ltpFR2	3	n/a	n/a	n/a	24	10	1	5	4
3587.052734375	n/a	PROB	7346284	n/a	LTP376	ltpFR2	3	n/a	n/a	n/a	24	13	5	7	1
3590.61767578125	n/a	PROB	7353585	n/a	LTP376	ltpFR2	3	n/a	n/a	n/a	24	9	2	5	2
3592.8828125	n/a	PROB	7358224	n/a	LTP376	ltpFR2	3	n/a	n/a	n/a	24	14	4	8	2
3594.86572265625	n/a	PROB	7362285	n/a	LTP376	ltpFR2	3	n/a	n/a	n/a	24	9	2	1	6
3601.890625	n/a	STOP	7376672	n/a	LTP376	ltpFR2	3	n/a	n/a	n/a	24	n/a	n/a	n/a	n/a
3603.828125	n/a	REC_START	7380640	n/a	LTP376	ltpFR2	3	16	n/a	n/a	n/a	n/a	0	0	0
3604.9091796875	n/a	REC_WORD	7382854	wordpools/wasnorm_wordpool_576.txt	LTP376	ltpFR2	3	16	CATTLE	261	n/a	n/a	0	0	0
3605.5712890625	n/a	REC_WORD	7384210	wordpools/wasnorm_wordpool_576.txt	LTP376	ltpFR2	3	16	FARMER	553	n/a	n/a	0	0	0
3607.46728515625	n/a	REC_WORD	7388093	wordpools/wasnorm_wordpool_576.txt	LTP376	ltpFR2	3	16	ATOM	55	n/a	n/a	0	0	0
3609.93701171875	n/a	REC_WORD	7393151	wordpools/wasnorm_wordpool_576.txt	LTP376	ltpFR2	3	16	DAUGHTER	442	n/a	n/a	0	0	0
3611.6982421875	n/a	REC_WORD	7396758	wordpools/wasnorm_wordpool_576.txt	LTP376	ltpFR2	3	16	SIBLING	1301	n/a	n/a	0	0	0
3613.52392578125	n/a	REC_WORD	7400497	wordpools/wasnorm_wordpool_576.txt	LTP376	ltpFR2	3	16	PREACHER	1119	n/a	n/a	0	0	0
3616.2080078125	n/a	REC_WORD	7405994	wordpools/wasnorm_wordpool_576.txt	LTP376	ltpFR2	3	16	NEUTRON	947	n/a	n/a	0	0	0
3618.94775390625	n/a	REC_WORD	7411605	wordpools/wasnorm_wordpool_576.txt	LTP376	ltpFR2	3	16	CYCLONE	431	n/a	n/a	0	0	0
3629.58837890625	n/a	REC_WORD	7433397	wordpools/wasnorm_wordpool_576.txt	LTP376	ltpFR2	3	16	TWISTER	1530	n/a	n/a	0	0	0
3680.373046875	n/a	REST_REWET	7537404	n/a	LTP376	ltpFR2	3	16	n/a	n/a	n/a	n/a	0	0	0
3820.53662109375	n/a	WORD	7824459	wordpools/wasnorm_wordpool_576.txt	LTP376	ltpFR2	3	17	SHOULDER	1294	n/a	n/a	0	0	0
3823.03564453125	n/a	WORD	7829577	wordpools/wasnorm_wordpool_576.txt	LTP376	ltpFR2	3	17	SHOVEL	1295	n/a	n/a	0	0	0
3825.80078125	n/a	WORD	7835240	wordpools/wasnorm_wordpool_576.txt	LTP376	ltpFR2	3	17	CANYON	235	n/a	n/a	0	0	0
3828.3994140625	n/a	WORD	7840562	wordpools/wasnorm_wordpool_576.txt	LTP376	ltpFR2	3	17	SPARROW	1347	n/a	n/a	0	0	0
3831.03125	n/a	WORD	7845952	wordpools/wasnorm_wordpool_576.txt	LTP376	ltpFR2	3	17	RABBIT	1152	n/a	n/a	0	0	0
3833.7470703125	n/a	WORD	7851514	wordpools/wasnorm_wordpool_576.txt	LTP376	ltpFR2	3	17	LABEL	790	n/a	n/a	0	0	0
3836.46240234375	n/a	WORD	7857075	wordpools/wasnorm_wordpool_576.txt	LTP376	ltpFR2	3	17	PLASTER	1085	n/a	n/a	0	0	0
3838.9609375	n/a	WORD	7862192	wordpools/wasnorm_wordpool_576.txt	LTP376	ltpFR2	3	17	COOKBOOK	373	n/a	n/a	0	0	0
3841.66015625	n/a	WORD	7867720	wordpools/wasnorm_wordpool_576.txt	LTP376	ltpFR2	3	17	DRAWING	494	n/a	n/a	0	0	0
3844.47509765625	n/a	WORD	7873485	wordpools/wasnorm_wordpool_576.txt	LTP376	ltpFR2	3	17	FIDDLE	561	n/a	n/a	0	0	0
3847.20703125	n/a	WORD	7879080	wordpools/wasnorm_wordpool_576.txt	LTP376	ltpFR2	3	17	TURNIP	1521	n/a	n/a	0	0	0
3849.7060546875	n/a	WORD	7884198	wordpools/wasnorm_wordpool_576.txt	LTP376	ltpFR2	3	17	SALAD	1224	n/a	n/a	0	0	0
3852.32177734375	n/a	WORD	7889555	wordpools/wasnorm_wordpool_576.txt	LTP376	ltpFR2	3	17	BLENDER	136	n/a	n/a	0	0	0
3854.90283203125	n/a	WORD	7894841	wordpools/wasnorm_wordpool_576.txt	LTP376	ltpFR2	3	17	TUBA	1515	n/a	n/a	0	0	0
3857.3857421875	n/a	WORD	7899926	wordpools/wasnorm_wordpool_576.txt	LTP376	ltpFR2	3	17	PIZZA	1079	n/a	n/a	0	0	0
3860.18359375	n/a	WORD	7905656	wordpools/wasnorm_wordpool_576.txt	LTP376	ltpFR2	3	17	BREAST	171	n/a	n/a	0	0	0
3862.7822265625	n/a	WORD	7910978	wordpools/wasnorm_wordpool_576.txt	LTP376	ltpFR2	3	17	FLUTE	585	n/a	n/a	0	0	0
3865.564453125	n/a	WORD	7916676	wordpools/wasnorm_wordpool_576.txt	LTP376	ltpFR2	3	17	FLIPPER	580	n/a	n/a	0	0	0
3868.38037109375	n/a	WORD	7922443	wordpools/wasnorm_wordpool_576.txt	LTP376	ltpFR2	3	17	SERVER	1272	n/a	n/a	0	0	0
3870.84521484375	n/a	WORD	7927491	wordpools/wasnorm_wordpool_576.txt	LTP376	ltpFR2	3	17	DORM	488	n/a	n/a	0	0	0
3873.51025390625	n/a	WORD	7932949	wordpools/wasnorm_wordpool_576.txt	LTP376	ltpFR2	3	17	PORK	1108	n/a	n/a	0	0	0
3876.1259765625	n/a	WORD	7938306	wordpools/wasnorm_wordpool_576.txt	LTP376	ltpFR2	3	17	SKETCH	1315	n/a	n/a	0	0	0
3878.69091796875	n/a	WORD	7943559	wordpools/wasnorm_wordpool_576.txt	LTP376	ltpFR2	3	17	CANAL	226	n/a	n/a	0	0	0
3881.373046875	n/a	WORD	7949052	wordpools/wasnorm_wordpool_576.txt	LTP376	ltpFR2	3	17	SWIMMER	1420	n/a	n/a	0	0	0
3882.98974609375	n/a	START	7952363	n/a	LTP376	ltpFR2	3	n/a	n/a	n/a	25	n/a	n/a	n/a	n/a
3883.82373046875	n/a	DISTRACTOR	7954071	n/a	LTP376	ltpFR2	3	17	n/a	n/a	n/a	n/a	0	0	0
3883.8388671875	n/a	PROB	7954102	n/a	LTP376	ltpFR2	3	n/a	n/a	n/a	25	16	8	7	1
3886.8876953125	n/a	PROB	7960346	n/a	LTP376	ltpFR2	3	n/a	n/a	n/a	25	14	3	3	8
3892.21728515625	n/a	PROB	7971261	n/a	LTP376	ltpFR2	3	n/a	n/a	n/a	25	12	7	1	4
3895.08349609375	n/a	PROB	7977131	n/a	LTP376	ltpFR2	3	n/a	n/a	n/a	25	21	5	8	8
3906.9892578125	n/a	STOP	8001514	n/a	LTP376	ltpFR2	3	n/a	n/a	n/a	25	n/a	n/a	n/a	n/a
3908.744140625	n/a	REC_START	8005108	n/a	LTP376	ltpFR2	3	17	n/a	n/a	n/a	n/a	0	0	0
3910.55078125	n/a	REC_WORD	8008808	wordpools/wasnorm_wordpool_576.txt	LTP376	ltpFR2	3	17	CANYON	235	n/a	n/a	0	0	0
3912.55712890625	n/a	REC_WORD	8012917	wordpools/wasnorm_wordpool_576.txt	LTP376	ltpFR2	3	17	SHOVEL	1295	n/a	n/a	0	0	0
3931.076171875	n/a	REC_WORD	8050844	wordpools/wasnorm_wordpool_576.txt	LTP376	ltpFR2	3	17	PIZZA	1079	n/a	n/a	0	0	0
3932.4912109375	n/a	REC_WORD	8053742	wordpools/wasnorm_wordpool_576.txt	LTP376	ltpFR2	3	17	BLENDER	136	n/a	n/a	0	0	0
3939.65185546875	n/a	REC_WORD	8068407	wordpools/wasnorm_wordpool_576.txt	LTP376	ltpFR2	3	17	STREAM	1392	n/a	n/a	0	0	0
3941.90283203125	n/a	REC_WORD	8073017	wordpools/wasnorm_wordpool_576.txt	LTP376	ltpFR2	3	17	RIVER	1194	n/a	n/a	0	0	0
3999.1982421875	n/a	DISTRACTOR	8190358	n/a	LTP376	ltpFR2	3	18	n/a	n/a	n/a	n/a	0	0	0
3999.1982421875	n/a	START	8190358	n/a	LTP376	ltpFR2	3	n/a	n/a	n/a	26	n/a	n/a	n/a	n/a
3999.21533203125	n/a	PROB	8190393	n/a	LTP376	ltpFR2	3	n/a	n/a	n/a	26	13	1	8	4
4001.830078125	n/a	PROB	8195748	n/a	LTP376	ltpFR2	3	n/a	n/a	n/a	26	15	1	8	6
4003.912109375	n/a	PROB	8200012	n/a	LTP376	ltpFR2	3	n/a	n/a	n/a	26	16	9	5	2
4007.09423828125	n/a	PROB	8206529	n/a	LTP376	ltpFR2	3	n/a	n/a	n/a	26	17	8	5	6
4010.7587890625	n/a	PROB	8214034	n/a	LTP376	ltpFR2	3	n/a	n/a	n/a	26	14	9	1	4
4013.19091796875	n/a	PROB	8219015	n/a	LTP376	ltpFR2	3	n/a	n/a	n/a	26	17	8	7	2
4017.0556640625	n/a	PROB	8226930	n/a	LTP376	ltpFR2	3	n/a	n/a	n/a	26	17	8	6	3
4019.83740234375	n/a	PROB	8232627	n/a	LTP376	ltpFR2	3	n/a	n/a	n/a	26	11	2	9	1
4021.73876953125	n/a	STOP	8236521	n/a	LTP376	ltpFR2	3	n/a	n/a	n/a	26	n/a	n/a	n/a	n/a
4024.33642578125	n/a	WORD	8241841	wordpools/wasnorm_wordpool_576.txt	LTP376	ltpFR2	3	18	BELLY	119	n/a	n/a	0	0	0
4026.8671875	n/a	WORD	8247024	wordpools/wasnorm_wordpool_576.txt	LTP376	ltpFR2	3	18	STOMACH	1384	n/a	n/a	0	0	0
4029.43310546875	n/a	WORD	8252279	wordpools/wasnorm_wordpool_576.txt	LTP376	ltpFR2	3	18	CABIN	211	n/a	n/a	0	0	0
4032.08203125	n/a	WORD	8257704	wordpools/wasnorm_wordpool_576.txt	LTP376	ltpFR2	3	18	COWBOY	395	n/a	n/a	0	0	0
4034.88037109375	n/a	WORD	8263435	wordpools/wasnorm_wordpool_576.txt	LTP376	ltpFR2	3	18	CLOUD	328	n/a	n/a	0	0	0
4037.51220703125	n/a	WORD	8268825	wordpools/wasnorm_wordpool_576.txt	LTP376	ltpFR2	3	18	CRIB	407	n/a	n/a	0	0	0
4040.09521484375	n/a	WORD	8274115	wordpools/wasnorm_wordpool_576.txt	LTP376	ltpFR2	3	18	ELBOW	520	n/a	n/a	0	0	0
4042.81005859375	n/a	WORD	8279675	wordpools/wasnorm_wordpool_576.txt	LTP376	ltpFR2	3	18	PLAZA	1088	n/a	n/a	0	0	0
4045.52490234375	n/a	WORD	8285235	wordpools/wasnorm_wordpool_576.txt	LTP376	ltpFR2	3	18	RIFLE	1192	n/a	n/a	0	0	0
4048.07373046875	n/a	WORD	8290455	wordpools/wasnorm_wordpool_576.txt	LTP376	ltpFR2	3	18	VICTIM	1562	n/a	n/a	0	0	0
4050.83984375	n/a	WORD	8296120	wordpools/wasnorm_wordpool_576.txt	LTP376	ltpFR2	3	18	WOMAN	1620	n/a	n/a	0	0	0
4053.33837890625	n/a	WORD	8301237	wordpools/wasnorm_wordpool_576.txt	LTP376	ltpFR2	3	18	YARN	1631	n/a	n/a	0	0	0
4055.87060546875	n/a	WORD	8306423	wordpools/wasnorm_wordpool_576.txt	LTP376	ltpFR2	3	18	STALLION	1369	n/a	n/a	0	0	0
4058.38525390625	n/a	WORD	8311573	wordpools/wasnorm_wordpool_576.txt	LTP376	ltpFR2	3	18	BLOCKADE	137	n/a	n/a	0	0	0
4060.8173828125	n/a	WORD	8316554	wordpools/wasnorm_wordpool_576.txt	LTP376	ltpFR2	3	18	SIDEWALK	1303	n/a	n/a	0	0	0
4063.33447265625	n/a	WORD	8321709	wordpools/wasnorm_wordpool_576.txt	LTP376	ltpFR2	3	18	GAVEL	627	n/a	n/a	0	0	0
4065.84814453125	n/a	WORD	8326857	wordpools/wasnorm_wordpool_576.txt	LTP376	ltpFR2	3	18	SCISSORS	1250	n/a	n/a	0	0	0
4068.56396484375	n/a	WORD	8332419	wordpools/wasnorm_wordpool_576.txt	LTP376	ltpFR2	3	18	SCALPEL	1243	n/a	n/a	0	0	0
4071.22900390625	n/a	WORD	8337877	wordpools/wasnorm_wordpool_576.txt	LTP376	ltpFR2	3	18	SISTER	1312	n/a	n/a	0	0	0
4073.72802734375	n/a	WORD	8342995	wordpools/wasnorm_wordpool_576.txt	LTP376	ltpFR2	3	18	LEG	809	n/a	n/a	0	0	0
4076.19287109375	n/a	WORD	8348043	wordpools/wasnorm_wordpool_576.txt	LTP376	ltpFR2	3	18	RUST	1219	n/a	n/a	0	0	0
4078.7587890625	n/a	WORD	8353298	wordpools/wasnorm_wordpool_576.txt	LTP376	ltpFR2	3	18	PENGUIN	1044	n/a	n/a	0	0	0
4081.45751953125	n/a	WORD	8358825	wordpools/wasnorm_wordpool_576.txt	LTP376	ltpFR2	3	18	LACE	792	n/a	n/a	0	0	0
4084.005859375	n/a	WORD	8364044	wordpools/wasnorm_wordpool_576.txt	LTP376	ltpFR2	3	18	COIN	343	n/a	n/a	0	0	0
4085.62255859375	n/a	START	8367355	n/a	LTP376	ltpFR2	3	n/a	n/a	n/a	27	n/a	n/a	n/a	n/a
4086.66943359375	n/a	DISTRACTOR	8369499	n/a	LTP376	ltpFR2	3	18	n/a	n/a	n/a	n/a	0	0	0
4086.67138671875	n/a	PROB	8369503	n/a	LTP376	ltpFR2	3	n/a	n/a	n/a	27	21	5	8	8
4091.46923828125	n/a	PROB	8379329	n/a	LTP376	ltpFR2	3	n/a	n/a	n/a	27	14	4	7	3
4093.16845703125	n/a	PROB	8382809	n/a	LTP376	ltpFR2	3	n/a	n/a	n/a	27	16	1	9	6
4094.83447265625	n/a	PROB	8386221	n/a	LTP376	ltpFR2	3	n/a	n/a	n/a	27	16	3	7	6
4097.916015625	n/a	PROB	8392532	n/a	LTP376	ltpFR2	3	n/a	n/a	n/a	27	17	8	4	5
4103.1630859375	n/a	PROB	8403278	n/a	LTP376	ltpFR2	3	n/a	n/a	n/a	27	10	1	2	7
4105.39501953125	n/a	PROB	8407849	n/a	LTP376	ltpFR2	3	n/a	n/a	n/a	27	7	1	2	4
4109.6220703125	n/a	STOP	8416506	n/a	LTP376	ltpFR2	3	n/a	n/a	n/a	27	n/a	n/a	n/a	n/a
4111.4267578125	n/a	REC_START	8420202	n/a	LTP376	ltpFR2	3	18	n/a	n/a	n/a	n/a	0	0	0
4113.5166015625	n/a	REC_WORD	8424482	wordpools/wasnorm_wordpool_576.txt	LTP376	ltpFR2	3	18	COWBOY	395	n/a	n/a	0	0	0
4115.20849609375	n/a	REC_WORD	8427947	wordpools/wasnorm_wordpool_576.txt	LTP376	ltpFR2	3	18	RIFLE	1192	n/a	n/a	0	0	0
4117.8173828125	n/a	REC_WORD	8433290	wordpools/wasnorm_wordpool_576.txt	LTP376	ltpFR2	3	18	RUST	1219	n/a	n/a	0	0	0
4124.3505859375	n/a	REC_WORD	8446670	wordpools/wasnorm_wordpool_576.txt	LTP376	ltpFR2	3	18	BELLY	119	n/a	n/a	0	0	0
4125.37939453125	n/a	REC_WORD	8448777	wordpools/wasnorm_wordpool_576.txt	LTP376	ltpFR2	3	18	STOMACH	1384	n/a	n/a	0	0	0
4127.1142578125	n/a	REC_WORD	8452330	wordpools/wasnorm_wordpool_576.txt	LTP376	ltpFR2	3	18	ARM	38	n/a	n/a	0	0	0
4183.13671875	n/a	REC_WORD	8567064	wordpools/wasnorm_wordpool_576.txt	LTP376	ltpFR2	3	18	ELBOW	520	n/a	n/a	0	0	0
4201.880859375	n/a	WORD	8605452	wordpools/wasnorm_wordpool_576.txt	LTP376	ltpFR2	3	19	DIVER	476	n/a	n/a	0	0	0
4204.51318359375	n/a	WORD	8610843	wordpools/wasnorm_wordpool_576.txt	LTP376	ltpFR2	3	19	SUMMIT	1405	n/a	n/a	0	0	0
4207.0947265625	n/a	WORD	8616130	wordpools/wasnorm_wordpool_576.txt	LTP376	ltpFR2	3	19	VALLEY	1545	n/a	n/a	0	0	0
4209.7265625	n/a	WORD	8621520	wordpools/wasnorm_wordpool_576.txt	LTP376	ltpFR2	3	19	BOYFRIEND	162	n/a	n/a	0	0	0
4212.52587890625	n/a	WORD	8627253	wordpools/wasnorm_wordpool_576.txt	LTP376	ltpFR2	3	19	WINDOW	1611	n/a	n/a	0	0	0
4215.04150390625	n/a	WORD	8632405	wordpools/wasnorm_wordpool_576.txt	LTP376	ltpFR2	3	19	POWDER	1117	n/a	n/a	0	0	0
4217.57373046875	n/a	WORD	8637591	wordpools/wasnorm_wordpool_576.txt	LTP376	ltpFR2	3	19	SANDWICH	1232	n/a	n/a	0	0	0
4220.23828125	n/a	WORD	8643048	wordpools/wasnorm_wordpool_576.txt	LTP376	ltpFR2	3	19	CHAPEL	280	n/a	n/a	0	0	0
4222.75439453125	n/a	WORD	8648201	wordpools/wasnorm_wordpool_576.txt	LTP376	ltpFR2	3	19	FOREST	593	n/a	n/a	0	0	0
4225.5361328125	n/a	WORD	8653898	wordpools/wasnorm_wordpool_576.txt	LTP376	ltpFR2	3	19	LUMBER	848	n/a	n/a	0	0	0
4228.00146484375	n/a	WORD	8658947	wordpools/wasnorm_wordpool_576.txt	LTP376	ltpFR2	3	19	ULCER	1533	n/a	n/a	0	0	0
4230.6669921875	n/a	WORD	8664406	wordpools/wasnorm_wordpool_576.txt	LTP376	ltpFR2	3	19	CLIMBER	323	n/a	n/a	0	0	0
4233.2490234375	n/a	WORD	8669694	wordpools/wasnorm_wordpool_576.txt	LTP376	ltpFR2	3	19	GRAVE	658	n/a	n/a	0	0	0
4236.01416015625	n/a	WORD	8675357	wordpools/wasnorm_wordpool_576.txt	LTP376	ltpFR2	3	19	COBRA	336	n/a	n/a	0	0	0
4238.62890625	n/a	WORD	8680712	wordpools/wasnorm_wordpool_576.txt	LTP376	ltpFR2	3	19	SUBWAY	1400	n/a	n/a	0	0	0
4241.39501953125	n/a	WORD	8686377	wordpools/wasnorm_wordpool_576.txt	LTP376	ltpFR2	3	19	DAISY	435	n/a	n/a	0	0	0
4244.0595703125	n/a	WORD	8691834	wordpools/wasnorm_wordpool_576.txt	LTP376	ltpFR2	3	19	FLOWER	584	n/a	n/a	0	0	0
4246.79150390625	n/a	WORD	8697429	wordpools/wasnorm_wordpool_576.txt	LTP376	ltpFR2	3	19	GIRL	637	n/a	n/a	0	0	0
4249.42333984375	n/a	WORD	8702819	wordpools/wasnorm_wordpool_576.txt	LTP376	ltpFR2	3	19	LOVER	846	n/a	n/a	0	0	0
4251.8896484375	n/a	WORD	8707870	wordpools/wasnorm_wordpool_576.txt	LTP376	ltpFR2	3	19	HIKER	708	n/a	n/a	0	0	0
4254.67138671875	n/a	WORD	8713567	wordpools/wasnorm_wordpool_576.txt	LTP376	ltpFR2	3	19	DASHBOARD	441	n/a	n/a	0	0	0
4257.42041015625	n/a	WORD	8719197	wordpools/wasnorm_wordpool_576.txt	LTP376	ltpFR2	3	19	LEADER	807	n/a	n/a	0	0	0
4260.0693359375	n/a	WORD	8724622	wordpools/wasnorm_wordpool_576.txt	LTP376	ltpFR2	3	19	PATIENT	1024	n/a	n/a	0	0	0
4262.5673828125	n/a	WORD	8729738	wordpools/wasnorm_wordpool_576.txt	LTP376	ltpFR2	3	19	BACON	67	n/a	n/a	0	0	0
4264.18408203125	n/a	START	8733049	n/a	LTP376	ltpFR2	3	n/a	n/a	n/a	28	n/a	n/a	n/a	n/a
4265.0029296875	n/a	DISTRACTOR	8734726	n/a	LTP376	ltpFR2	3	19	n/a	n/a	n/a	n/a	0	0	0
4265.01611328125	n/a	PROB	8734753	n/a	LTP376	ltpFR2	3	n/a	n/a	n/a	28	17	8	2	7
4268.18115234375	n/a	PROB	8741235	n/a	LTP376	ltpFR2	3	n/a	n/a	n/a	28	11	1	3	7
4269.796875	n/a	PROB	8744544	n/a	LTP376	ltpFR2	3	n/a	n/a	n/a	28	15	4	6	5
4273.06298828125	n/a	PROB	8751233	n/a	LTP376	ltpFR2	3	n/a	n/a	n/a	28	11	3	6	2
4275.3779296875	n/a	PROB	8755974	n/a	LTP376	ltpFR2	3	n/a	n/a	n/a	28	11	5	3	3
4278.60986328125	n/a	PROB	8762593	n/a	LTP376	ltpFR2	3	n/a	n/a	n/a	28	15	5	7	3
4280.19287109375	n/a	PROB	8765835	n/a	LTP376	ltpFR2	3	n/a	n/a	n/a	28	15	5	7	3
4281.94140625	n/a	PROB	8769416	n/a	LTP376	ltpFR2	3	n/a	n/a	n/a	28	17	5	7	4
4287.96240234375	n/a	STOP	8781747	n/a	LTP376	ltpFR2	3	n/a	n/a	n/a	28	n/a	n/a	n/a	n/a
4289.97119140625	n/a	REC_START	8785861	n/a	LTP376	ltpFR2	3	19	n/a	n/a	n/a	n/a	0	0	0
4290.8994140625	n/a	REC_WORD	8787762	wordpools/wasnorm_wordpool_576.txt	LTP376	ltpFR2	3	19	CLIMBER	323	n/a	n/a	0	0	0
4292.29638671875	n/a	REC_WORD	8790623	wordpools/wasnorm_wordpool_576.txt	LTP376	ltpFR2	3	19	HIKER	708	n/a	n/a	0	0	0
4294.078125	n/a	REC_WORD	8794272	wordpools/wasnorm_wordpool_576.txt	LTP376	ltpFR2	3	19	SUMMIT	1405	n/a	n/a	0	0	0
4295.9619140625	n/a	REC_WORD	8798130	wordpools/wasnorm_wordpool_576.txt	LTP376	ltpFR2	3	19	DIVER	476	n/a	n/a	0	0	0
4302.72900390625	n/a	REC_WORD	8811989	wordpools/wasnorm_wordpool_576.txt	LTP376	ltpFR2	3	19	GIRL	637	n/a	n/a	0	0	0
4303.90771484375	n/a	REC_WORD	8814403	wordpools/wasnorm_wordpool_576.txt	LTP376	ltpFR2	3	19	LOVER	846	n/a	n/a	0	0	0
4305.35888671875	n/a	REC_WORD	8817375	wordpools/wasnorm_wordpool_576.txt	LTP376	ltpFR2	3	19	DAISY	435	n/a	n/a	0	0	0
4306.970703125	n/a	REC_WORD	8820676	wordpools/wasnorm_wordpool_576.txt	LTP376	ltpFR2	3	19	FLOWER	584	n/a	n/a	0	0	0
4363.169921875	n/a	REC_WORD_VV	8935772	wordpools/wasnorm_wordpool_576.txt	LTP376	ltpFR2	3	19	<>	-1	n/a	n/a	0	0	0
4380.42578125	n/a	WORD	8971112	wordpools/wasnorm_wordpool_576.txt	LTP376	ltpFR2	3	20	MATTRESS	879	n/a	n/a	0	0	0
4382.8916015625	n/a	WORD	8976162	wordpools/wasnorm_wordpool_576.txt	LTP376	ltpFR2	3	20	HOOD	714	n/a	n/a	0	0	0
4385.640625	n/a	WORD	8981792	wordpools/wasnorm_wordpool_576.txt	LTP376	ltpFR2	3	20	COUCH	386	n/a	n/a	0	0	0
4388.13818359375	n/a	WORD	8986907	wordpools/wasnorm_wordpool_576.txt	LTP376	ltpFR2	3	20	PADDING	999	n/a	n/a	0	0	0
4390.93701171875	n/a	WORD	8992639	wordpools/wasnorm_wordpool_576.txt	LTP376	ltpFR2	3	20	COMPASS	358	n/a	n/a	0	0	0
4393.7021484375	n/a	WORD	8998302	wordpools/wasnorm_wordpool_576.txt	LTP376	ltpFR2	3	20	BUNNY	198	n/a	n/a	0	0	0
4396.46826171875	n/a	WORD	9003967	wordpools/wasnorm_wordpool_576.txt	LTP376	ltpFR2	3	20	OMELET	976	n/a	n/a	0	0	0
4399.1162109375	n/a	WORD	9009390	wordpools/wasnorm_wordpool_576.txt	LTP376	ltpFR2	3	20	ROD	1203	n/a	n/a	0	0	0
4401.59912109375	n/a	WORD	9014475	wordpools/wasnorm_wordpool_576.txt	LTP376	ltpFR2	3	20	HOOK	715	n/a	n/a	0	0	0
4404.4140625	n/a	WORD	9020240	wordpools/wasnorm_wordpool_576.txt	LTP376	ltpFR2	3	20	DENTIST	447	n/a	n/a	0	0	0
4406.845703125	n/a	WORD	9025220	wordpools/wasnorm_wordpool_576.txt	LTP376	ltpFR2	3	20	BRACES	164	n/a	n/a	0	0	0
4409.5947265625	n/a	WORD	9030850	wordpools/wasnorm_wordpool_576.txt	LTP376	ltpFR2	3	20	AGENT	10	n/a	n/a	0	0	0
4412.21044921875	n/a	WORD	9036207	wordpools/wasnorm_wordpool_576.txt	LTP376	ltpFR2	3	20	FRIAR	605	n/a	n/a	0	0	0
4414.82568359375	n/a	WORD	9041563	wordpools/wasnorm_wordpool_576.txt	LTP376	ltpFR2	3	20	COURSE	390	n/a	n/a	0	0	0
4417.59033203125	n/a	WORD	9047225	wordpools/wasnorm_wordpool_576.txt	LTP376	ltpFR2	3	20	SLUG	1329	n/a	n/a	0	0	0
4420.13916015625	n/a	WORD	9052445	wordpools/wasnorm_wordpool_576.txt	LTP376	ltpFR2	3	20	SUNSET	1408	n/a	n/a	0	0	0
4422.80517578125	n/a	WORD	9057905	wordpools/wasnorm_wordpool_576.txt	LTP376	ltpFR2	3	20	CONCERT	360	n/a	n/a	0	0	0
4425.4873046875	n/a	WORD	9063398	wordpools/wasnorm_wordpool_576.txt	LTP376	ltpFR2	3	20	SALMON	1227	n/a	n/a	0	0	0
4428.03515625	n/a	WORD	9068616	wordpools/wasnorm_wordpool_576.txt	LTP376	ltpFR2	3	20	TRENCH	1503	n/a	n/a	0	0	0
4430.7841796875	n/a	WORD	9074246	wordpools/wasnorm_wordpool_576.txt	LTP376	ltpFR2	3	20	CARROT	249	n/a	n/a	0	0	0
4433.30078125	n/a	WORD	9079400	wordpools/wasnorm_wordpool_576.txt	LTP376	ltpFR2	3	20	CRAYON	401	n/a	n/a	0	0	0
4436.0478515625	n/a	WORD	9085026	wordpools/wasnorm_wordpool_576.txt	LTP376	ltpFR2	3	20	AIRPORT	13	n/a	n/a	0	0	0
4438.6796875	n/a	WORD	9090416	wordpools/wasnorm_wordpool_576.txt	LTP376	ltpFR2	3	20	HARP	689	n/a	n/a	0	0	0
4441.1787109375	n/a	WORD	9095534	wordpools/wasnorm_wordpool_576.txt	LTP376	ltpFR2	3	20	GANGSTER	620	n/a	n/a	0	0	0
4442.79541015625	n/a	START	9098845	n/a	LTP376	ltpFR2	3	n/a	n/a	n/a	29	n/a	n/a	n/a	n/a
4443.67041015625	n/a	DISTRACTOR	9100637	n/a	LTP376	ltpFR2	3	20	n/a	n/a	n/a	n/a	0	0	0
4443.677734375	n/a	PROB	9100652	n/a	LTP376	ltpFR2	3	n/a	n/a	n/a	29	12	1	3	8
4447.62548828125	n/a	PROB	9108737	n/a	LTP376	ltpFR2	3	n/a	n/a	n/a	29	15	8	3	4
4450.5244140625	n/a	PROB	9114674	n/a	LTP376	ltpFR2	3	n/a	n/a	n/a	29	14	2	5	9
4453.6064453125	n/a	PROB	9120986	n/a	LTP376	ltpFR2	3	n/a	n/a	n/a	29	10	4	4	2
4456.47119140625	n/a	PROB	9126853	n/a	LTP376	ltpFR2	3	n/a	n/a	n/a	29	16	2	8	6
4466.7939453125	n/a	STOP	9147994	n/a	LTP376	ltpFR2	3	n/a	n/a	n/a	29	n/a	n/a	n/a	n/a
4468.73291015625	n/a	REC_START	9151965	n/a	LTP376	ltpFR2	3	20	n/a	n/a	n/a	n/a	0	0	0
4470.0048828125	n/a	REC_WORD	9154570	wordpools/wasnorm_wordpool_576.txt	LTP376	ltpFR2	3	20	HOOK	715	n/a	n/a	0	0	0
4470.86181640625	n/a	REC_WORD	9156325	wordpools/wasnorm_wordpool_576.txt	LTP376	ltpFR2	3	20	HOOD	714	n/a	n/a	0	0	0
4472.56787109375	n/a	REC_WORD	9159819	wordpools/wasnorm_wordpool_576.txt	LTP376	ltpFR2	3	20	GANGSTER	620	n/a	n/a	0	0	0
4474.5576171875	n/a	REC_WORD	9163894	wordpools/wasnorm_wordpool_576.txt	LTP376	ltpFR2	3	20	MATTRESS	879	n/a	n/a	0	0	0
4477.49462890625	n/a	REC_WORD	9169909	wordpools/wasnorm_wordpool_576.txt	LTP376	ltpFR2	3	20	STUFFING	-1	n/a	n/a	0	0	0
4479.3134765625	n/a	REC_WORD	9173634	wordpools/wasnorm_wordpool_576.txt	LTP376	ltpFR2	3	20	COUCH	386	n/a	n/a	0	0	0
4486.41943359375	n/a	REC_WORD	9188187	wordpools/wasnorm_wordpool_576.txt	LTP376	ltpFR2	3	20	CARROT	249	n/a	n/a	0	0	0
4487.88720703125	n/a	REC_WORD	9191193	wordpools/wasnorm_wordpool_576.txt	LTP376	ltpFR2	3	20	GRASS	655	n/a	n/a	0	0	0
4490.82421875	n/a	REC_WORD	9197208	wordpools/wasnorm_wordpool_576.txt	LTP376	ltpFR2	3	20	AIRPLANE	12	n/a	n/a	0	0	0
4501.77099609375	n/a	REC_WORD	9219627	wordpools/wasnorm_wordpool_576.txt	LTP376	ltpFR2	3	20	DENTIST	447	n/a	n/a	0	0	0
4503.27392578125	n/a	REC_WORD	9222705	wordpools/wasnorm_wordpool_576.txt	LTP376	ltpFR2	3	20	BRACES	164	n/a	n/a	0	0	0
4559.18701171875	n/a	WORD	9337215	wordpools/wasnorm_wordpool_576.txt	LTP376	ltpFR2	3	21	BROOK	177	n/a	n/a	0	0	0
4561.6689453125	n/a	WORD	9342298	wordpools/wasnorm_wordpool_576.txt	LTP376	ltpFR2	3	21	NIGHTGOWN	953	n/a	n/a	0	0	0
4564.2861328125	n/a	WORD	9347658	wordpools/wasnorm_wordpool_576.txt	LTP376	ltpFR2	3	21	ANTLER	29	n/a	n/a	0	0	0
4567.0	n/a	WORD	9353216	wordpools/wasnorm_wordpool_576.txt	LTP376	ltpFR2	3	21	JURY	766	n/a	n/a	0	0	0
4569.66552734375	n/a	WORD	9358675	wordpools/wasnorm_wordpool_576.txt	LTP376	ltpFR2	3	21	COSTUME	383	n/a	n/a	0	0	0
4572.314453125	n/a	WORD	9364100	wordpools/wasnorm_wordpool_576.txt	LTP376	ltpFR2	3	21	PERFUME	1049	n/a	n/a	0	0	0
4575.12939453125	n/a	WORD	9369865	wordpools/wasnorm_wordpool_576.txt	LTP376	ltpFR2	3	21	OUTFIT	988	n/a	n/a	0	0	0
4577.927734375	n/a	WORD	9375596	wordpools/wasnorm_wordpool_576.txt	LTP376	ltpFR2	3	21	PLAID	1080	n/a	n/a	0	0	0
4580.5595703125	n/a	WORD	9380986	wordpools/wasnorm_wordpool_576.txt	LTP376	ltpFR2	3	21	CRAB	397	n/a	n/a	0	0	0
4583.142578125	n/a	WORD	9386276	wordpools/wasnorm_wordpool_576.txt	LTP376	ltpFR2	3	21	CORAL	378	n/a	n/a	0	0	0
4585.9404296875	n/a	WORD	9392006	wordpools/wasnorm_wordpool_576.txt	LTP376	ltpFR2	3	21	SPOUSE	1358	n/a	n/a	0	0	0
4588.60595703125	n/a	WORD	9397465	wordpools/wasnorm_wordpool_576.txt	LTP376	ltpFR2	3	21	ROOSTER	1209	n/a	n/a	0	0	0
4591.0712890625	n/a	WORD	9402514	wordpools/wasnorm_wordpool_576.txt	LTP376	ltpFR2	3	21	STONE	1385	n/a	n/a	0	0	0
4593.85302734375	n/a	WORD	9408211	wordpools/wasnorm_wordpool_576.txt	LTP376	ltpFR2	3	21	BANQUET	86	n/a	n/a	0	0	0
4596.48486328125	n/a	WORD	9413601	wordpools/wasnorm_wordpool_576.txt	LTP376	ltpFR2	3	21	KETCHUP	771	n/a	n/a	0	0	0
4599.15087890625	n/a	WORD	9419061	wordpools/wasnorm_wordpool_576.txt	LTP376	ltpFR2	3	21	ACTOR	5	n/a	n/a	0	0	0
4601.9658203125	n/a	WORD	9424826	wordpools/wasnorm_wordpool_576.txt	LTP376	ltpFR2	3	21	PERCH	1048	n/a	n/a	0	0	0
4604.59765625	n/a	WORD	9430216	wordpools/wasnorm_wordpool_576.txt	LTP376	ltpFR2	3	21	EAGLE	512	n/a	n/a	0	0	0
4607.11376953125	n/a	WORD	9435369	wordpools/wasnorm_wordpool_576.txt	LTP376	ltpFR2	3	21	JUDGE	761	n/a	n/a	0	0	0
4609.6455078125	n/a	WORD	9440554	wordpools/wasnorm_wordpool_576.txt	LTP376	ltpFR2	3	21	GREASE	660	n/a	n/a	0	0	0
4612.26025390625	n/a	WORD	9445909	wordpools/wasnorm_wordpool_576.txt	LTP376	ltpFR2	3	21	TAXI	1438	n/a	n/a	0	0	0
4614.79345703125	n/a	WORD	9451097	wordpools/wasnorm_wordpool_576.txt	LTP376	ltpFR2	3	21	QUARTER	1148	n/a	n/a	0	0	0
4617.22509765625	n/a	WORD	9456077	wordpools/wasnorm_wordpool_576.txt	LTP376	ltpFR2	3	21	BATHTUB	100	n/a	n/a	0	0	0
4619.97314453125	n/a	WORD	9461705	wordpools/wasnorm_wordpool_576.txt	LTP376	ltpFR2	3	21	BLOUSE	139	n/a	n/a	0	0	0
4621.59033203125	n/a	START	9465017	n/a	LTP376	ltpFR2	3	n/a	n/a	n/a	30	n/a	n/a	n/a	n/a
4622.73193359375	n/a	DISTRACTOR	9467355	n/a	LTP376	ltpFR2	3	21	n/a	n/a	n/a	n/a	0	0	0
4622.7392578125	n/a	PROB	9467370	n/a	LTP376	ltpFR2	3	n/a	n/a	n/a	30	18	9	5	4
4626.9541015625	n/a	PROB	9476002	n/a	LTP376	ltpFR2	3	n/a	n/a	n/a	30	18	6	8	4
4632.083984375	n/a	PROB	9486508	n/a	LTP376	ltpFR2	3	n/a	n/a	n/a	30	18	3	8	7
4634.19970703125	n/a	PROB	9490841	n/a	LTP376	ltpFR2	3	n/a	n/a	n/a	30	22	8	4	9
4645.58935546875	n/a	STOP	9514167	n/a	LTP376	ltpFR2	3	n/a	n/a	n/a	30	n/a	n/a	n/a	n/a
4647.46044921875	n/a	REC_START	9517999	n/a	LTP376	ltpFR2	3	21	n/a	n/a	n/a	n/a	0	0	0
4649.13427734375	n/a	REC_WORD	9521427	wordpools/wasnorm_wordpool_576.txt	LTP376	ltpFR2	3	21	PLAID	1080	n/a	n/a	0	0	0
4650.62939453125	n/a	REC_WORD	9524489	wordpools/wasnorm_wordpool_576.txt	LTP376	ltpFR2	3	21	BATHTUB	100	n/a	n/a	0	0	0
4653.623046875	n/a	REC_WORD	9530620	wordpools/wasnorm_wordpool_576.txt	LTP376	ltpFR2	3	21	COSTUME	383	n/a	n/a	0	0	0
4660.9677734375	n/a	REC_WORD	9545662	wordpools/wasnorm_wordpool_576.txt	LTP376	ltpFR2	3	21	SPOUSE	1358	n/a	n/a	0	0	0
4701.640625	n/a	REC_WORD_VV	9628960	wordpools/wasnorm_wordpool_576.txt	LTP376	ltpFR2	3	21	<>	-1	n/a	n/a	0	0	0
4737.8984375	n/a	DISTRACTOR	9703216	n/a	LTP376	ltpFR2	3	22	n/a	n/a	n/a	n/a	0	0	0
4737.8984375	n/a	START	9703216	n/a	LTP376	ltpFR2	3	n/a	n/a	n/a	31	n/a	n/a	n/a	n/a
4737.91552734375	n/a	PROB	9703251	n/a	LTP376	ltpFR2	3	n/a	n/a	n/a	31	20	6	6	8
4741.779296875	n/a	PROB	9711164	n/a	LTP376	ltpFR2	3	n/a	n/a	n/a	31	17	2	8	7
4743.84521484375	n/a	PROB	9715395	n/a	LTP376	ltpFR2	3	n/a	n/a	n/a	31	17	9	2	6
4747.8603515625	n/a	PROB	9723618	n/a	LTP376	ltpFR2	3	n/a	n/a	n/a	31	18	4	7	7
4752.14111328125	n/a	PROB	9732385	n/a	LTP376	ltpFR2	3	n/a	n/a	n/a	31	11	2	3	6
4755.20703125	n/a	PROB	9738664	n/a	LTP376	ltpFR2	3	n/a	n/a	n/a	31	11	5	1	5
4756.68896484375	n/a	PROB	9741699	n/a	LTP376	ltpFR2	3	n/a	n/a	n/a	31	17	8	2	7
4758.3720703125	n/a	PROB	9745146	n/a	LTP376	ltpFR2	3	n/a	n/a	n/a	31	7	1	1	5
4761.89794921875	n/a	STOP	9752367	n/a	LTP376	ltpFR2	3	n/a	n/a	n/a	31	n/a	n/a	n/a	n/a
4762.7197265625	n/a	WORD	9754050	wordpools/wasnorm_wordpool_576.txt	LTP376	ltpFR2	3	22	NURSE	963	n/a	n/a	0	0	0
4765.23486328125	n/a	WORD	9759201	wordpools/wasnorm_wordpool_576.txt	LTP376	ltpFR2	3	22	GARDEN	623	n/a	n/a	0	0	0
4767.716796875	n/a	WORD	9764284	wordpools/wasnorm_wordpool_576.txt	LTP376	ltpFR2	3	22	TOURIST	1488	n/a	n/a	0	0	0
4770.31640625	n/a	WORD	9769608	wordpools/wasnorm_wordpool_576.txt	LTP376	ltpFR2	3	22	BLADE	134	n/a	n/a	0	0	0
4773.11474609375	n/a	WORD	9775339	wordpools/wasnorm_wordpool_576.txt	LTP376	ltpFR2	3	22	SWORD	1423	n/a	n/a	0	0	0
4775.5966796875	n/a	WORD	9780422	wordpools/wasnorm_wordpool_576.txt	LTP376	ltpFR2	3	22	CAPTIVE	240	n/a	n/a	0	0	0
4778.228515625	n/a	WORD	9785812	wordpools/wasnorm_wordpool_576.txt	LTP376	ltpFR2	3	22	SLOPE	1328	n/a	n/a	0	0	0
4780.66015625	n/a	WORD	9790792	wordpools/wasnorm_wordpool_576.txt	LTP376	ltpFR2	3	22	BANJO	82	n/a	n/a	0	0	0
4783.39208984375	n/a	WORD	9796387	wordpools/wasnorm_wordpool_576.txt	LTP376	ltpFR2	3	22	LONDON	843	n/a	n/a	0	0	0
4785.875	n/a	WORD	9801472	wordpools/wasnorm_wordpool_576.txt	LTP376	ltpFR2	3	22	MOP	916	n/a	n/a	0	0	0
4788.43994140625	n/a	WORD	9806725	wordpools/wasnorm_wordpool_576.txt	LTP376	ltpFR2	3	22	GLASS	639	n/a	n/a	0	0	0
4791.23876953125	n/a	WORD	9812457	wordpools/wasnorm_wordpool_576.txt	LTP376	ltpFR2	3	22	POSSUM	1112	n/a	n/a	0	0	0
4793.77099609375	n/a	WORD	9817643	wordpools/wasnorm_wordpool_576.txt	LTP376	ltpFR2	3	22	DINER	467	n/a	n/a	0	0	0
4796.20263671875	n/a	WORD	9822623	wordpools/wasnorm_wordpool_576.txt	LTP376	ltpFR2	3	22	SERVANT	1271	n/a	n/a	0	0	0
4798.91796875	n/a	WORD	9828184	wordpools/wasnorm_wordpool_576.txt	LTP376	ltpFR2	3	22	WAITER	1580	n/a	n/a	0	0	0
4801.65087890625	n/a	WORD	9833781	wordpools/wasnorm_wordpool_576.txt	LTP376	ltpFR2	3	22	EGYPT	519	n/a	n/a	0	0	0
4804.11572265625	n/a	WORD	9838829	wordpools/wasnorm_wordpool_576.txt	LTP376	ltpFR2	3	22	COUNTRY	388	n/a	n/a	0	0	0
4806.6474609375	n/a	WORD	9844014	wordpools/wasnorm_wordpool_576.txt	LTP376	ltpFR2	3	22	EUROPE	541	n/a	n/a	0	0	0
4809.2294921875	n/a	WORD	9849302	wordpools/wasnorm_wordpool_576.txt	LTP376	ltpFR2	3	22	JOURNAL	760	n/a	n/a	0	0	0
