onset	duration	trial_type	sample	stim_file	subject	experiment	session	trial	item_name	item_num	list	answer	test_x	test_y	test_z
253.77197265625	n/a	SESS_START	519725	n/a	LTP339	ltpFR2	5	n/a	n/a	n/a	n/a	n/a	0	0	0
286.59716796875	n/a	START	586951	n/a	LTP339	ltpFR2	5	n/a	n/a	n/a	-1	n/a	n/a	n/a	n/a
286.626953125	n/a	PROB	587012	n/a	LTP339	ltpFR2	5	n/a	n/a	n/a	-1	9	3	5	1
288.26611328125	n/a	PROB	590369	n/a	LTP339	ltpFR2	5	n/a	n/a	n/a	-1	16	8	3	5
291.3759765625	n/a	PROB	596738	n/a	LTP339	ltpFR2	5	n/a	n/a	n/a	-1	7	1	2	4
293.64990234375	n/a	PROB	601395	n/a	LTP339	ltpFR2	5	n/a	n/a	n/a	-1	14	2	9	3
295.5888671875	n/a	PROB	605366	n/a	LTP339	ltpFR2	5	n/a	n/a	n/a	-1	26	9	9	7
298.15673828125	n/a	STOP	610625	n/a	LTP339	ltpFR2	5	n/a	n/a	n/a	-1	n/a	n/a	n/a	n/a
327.79296875	n/a	DISTRACTOR	671320	n/a	LTP339	ltpFR2	5	1	n/a	n/a	n/a	n/a	0	0	0
327.79296875	n/a	START	671320	n/a	LTP339	ltpFR2	5	n/a	n/a	n/a	1	n/a	n/a	n/a	n/a
327.81005859375	n/a	PROB	671355	n/a	LTP339	ltpFR2	5	n/a	n/a	n/a	1	16	6	2	8
329.6318359375	n/a	PROB	675086	n/a	LTP339	ltpFR2	5	n/a	n/a	n/a	1	17	4	4	9
332.07275390625	n/a	PROB	680085	n/a	LTP339	ltpFR2	5	n/a	n/a	n/a	1	17	9	7	1
334.53076171875	n/a	PROB	685119	n/a	LTP339	ltpFR2	5	n/a	n/a	n/a	1	15	6	3	4
336.62060546875	n/a	PROB	689399	n/a	LTP339	ltpFR2	5	n/a	n/a	n/a	1	14	3	5	6
339.16259765625	n/a	PROB	694605	n/a	LTP339	ltpFR2	5	n/a	n/a	n/a	1	8	4	1	3
341.0185546875	n/a	PROB	698406	n/a	LTP339	ltpFR2	5	n/a	n/a	n/a	1	5	2	2	1
342.17236328125	n/a	PROB	700769	n/a	LTP339	ltpFR2	5	n/a	n/a	n/a	1	12	2	3	7
343.76025390625	n/a	PROB	704021	n/a	LTP339	ltpFR2	5	n/a	n/a	n/a	1	14	1	7	6
346.2685546875	n/a	PROB	709158	n/a	LTP339	ltpFR2	5	n/a	n/a	n/a	1	12	5	2	4
351.7919921875	n/a	STOP	720470	n/a	LTP339	ltpFR2	5	n/a	n/a	n/a	1	n/a	n/a	n/a	n/a
352.84130859375	n/a	WORD	722619	wordpools/wasnorm_wordpool_576.txt	LTP339	ltpFR2	5	1	TROUT	1511	n/a	n/a	0	0	0
355.28125	n/a	WORD	727616	wordpools/wasnorm_wordpool_576.txt	LTP339	ltpFR2	5	1	LAMP	798	n/a	n/a	0	0	0
357.80615234375	n/a	WORD	732787	wordpools/wasnorm_wordpool_576.txt	LTP339	ltpFR2	5	1	TOMBSTONE	1478	n/a	n/a	0	0	0
360.22998046875	n/a	WORD	737751	wordpools/wasnorm_wordpool_576.txt	LTP339	ltpFR2	5	1	CHAMPAGNE	278	n/a	n/a	0	0	0
362.98876953125	n/a	WORD	743401	wordpools/wasnorm_wordpool_576.txt	LTP339	ltpFR2	5	1	MAPLE	866	n/a	n/a	0	0	0
365.56396484375	n/a	WORD	748675	wordpools/wasnorm_wordpool_576.txt	LTP339	ltpFR2	5	1	SCULPTURE	1258	n/a	n/a	0	0	0
368.12158203125	n/a	WORD	753913	wordpools/wasnorm_wordpool_576.txt	LTP339	ltpFR2	5	1	KIDNEY	776	n/a	n/a	0	0	0
370.91552734375	n/a	WORD	759635	wordpools/wasnorm_wordpool_576.txt	LTP339	ltpFR2	5	1	DUSTPAN	509	n/a	n/a	0	0	0
373.50634765625	n/a	WORD	764941	wordpools/wasnorm_wordpool_576.txt	LTP339	ltpFR2	5	1	RATTLE	1170	n/a	n/a	0	0	0
376.1474609375	n/a	WORD	770350	wordpools/wasnorm_wordpool_576.txt	LTP339	ltpFR2	5	1	BLUEPRINT	142	n/a	n/a	0	0	0
378.95849609375	n/a	WORD	776107	wordpools/wasnorm_wordpool_576.txt	LTP339	ltpFR2	5	1	TRIBE	1505	n/a	n/a	0	0	0
381.58251953125	n/a	WORD	781481	wordpools/wasnorm_wordpool_576.txt	LTP339	ltpFR2	5	1	COCOON	339	n/a	n/a	0	0	0
384.0234375	n/a	WORD	786480	wordpools/wasnorm_wordpool_576.txt	LTP339	ltpFR2	5	1	WORKER	1621	n/a	n/a	0	0	0
386.68115234375	n/a	WORD	791923	wordpools/wasnorm_wordpool_576.txt	LTP339	ltpFR2	5	1	GARLIC	624	n/a	n/a	0	0	0
389.2060546875	n/a	WORD	797094	wordpools/wasnorm_wordpool_576.txt	LTP339	ltpFR2	5	1	FRAGRANCE	599	n/a	n/a	0	0	0
391.84912109375	n/a	WORD	802507	wordpools/wasnorm_wordpool_576.txt	LTP339	ltpFR2	5	1	CLAM	315	n/a	n/a	0	0	0
394.2890625	n/a	WORD	807504	wordpools/wasnorm_wordpool_576.txt	LTP339	ltpFR2	5	1	SALMON	1227	n/a	n/a	0	0	0
396.83203125	n/a	WORD	812712	wordpools/wasnorm_wordpool_576.txt	LTP339	ltpFR2	5	1	VIRUS	1572	n/a	n/a	0	0	0
399.5400390625	n/a	WORD	818258	wordpools/wasnorm_wordpool_576.txt	LTP339	ltpFR2	5	1	SLIDE	1326	n/a	n/a	0	0	0
402.3486328125	n/a	WORD	824010	wordpools/wasnorm_wordpool_576.txt	LTP339	ltpFR2	5	1	DRIVER	499	n/a	n/a	0	0	0
405.07373046875	n/a	WORD	829591	wordpools/wasnorm_wordpool_576.txt	LTP339	ltpFR2	5	1	SPIDER	1351	n/a	n/a	0	0	0
407.548828125	n/a	WORD	834660	wordpools/wasnorm_wordpool_576.txt	LTP339	ltpFR2	5	1	PISTON	1076	n/a	n/a	0	0	0
409.9736328125	n/a	WORD	839626	wordpools/wasnorm_wordpool_576.txt	LTP339	ltpFR2	5	1	TRUCK	1512	n/a	n/a	0	0	0
412.53125	n/a	WORD	844864	wordpools/wasnorm_wordpool_576.txt	LTP339	ltpFR2	5	1	TERMITE	1451	n/a	n/a	0	0	0
414.13623046875	n/a	START	848151	n/a	LTP339	ltpFR2	5	n/a	n/a	n/a	2	n/a	n/a	n/a	n/a
415.20654296875	n/a	DISTRACTOR	850343	n/a	LTP339	ltpFR2	5	1	n/a	n/a	n/a	n/a	0	0	0
415.22314453125	n/a	PROB	850377	n/a	LTP339	ltpFR2	5	n/a	n/a	n/a	2	15	3	6	6
417.1962890625	n/a	PROB	854418	n/a	LTP339	ltpFR2	5	n/a	n/a	n/a	2	11	3	1	5
420.30615234375	n/a	PROB	860787	n/a	LTP339	ltpFR2	5	n/a	n/a	n/a	2	17	8	2	7
421.912109375	n/a	PROB	864076	n/a	LTP339	ltpFR2	5	n/a	n/a	n/a	2	12	1	6	5
424.93896484375	n/a	PROB	870275	n/a	LTP339	ltpFR2	5	n/a	n/a	n/a	2	13	2	3	8
426.7099609375	n/a	PROB	873902	n/a	LTP339	ltpFR2	5	n/a	n/a	n/a	2	14	8	4	2
428.73291015625	n/a	PROB	878045	n/a	LTP339	ltpFR2	5	n/a	n/a	n/a	2	19	8	5	6
433.28076171875	n/a	PROB	887359	n/a	LTP339	ltpFR2	5	n/a	n/a	n/a	2	10	2	6	2
435.40478515625	n/a	PROB	891709	n/a	LTP339	ltpFR2	5	n/a	n/a	n/a	2	16	9	4	3
437.7646484375	n/a	STOP	896542	n/a	LTP339	ltpFR2	5	n/a	n/a	n/a	2	n/a	n/a	n/a	n/a
439.9375	n/a	REC_START	900992	n/a	LTP339	ltpFR2	5	1	n/a	n/a	n/a	n/a	0	0	0
440.91748046875	n/a	REC_WORD	902999	wordpools/wasnorm_wordpool_576.txt	LTP339	ltpFR2	5	1	TROUT	1511	n/a	n/a	0	0	0
442.25439453125	n/a	REC_WORD	905737	wordpools/wasnorm_wordpool_576.txt	LTP339	ltpFR2	5	1	TERMITE	1451	n/a	n/a	0	0	0
443.42236328125	n/a	REC_WORD	908129	wordpools/wasnorm_wordpool_576.txt	LTP339	ltpFR2	5	1	MAPLE	866	n/a	n/a	0	0	0
444.47265625	n/a	REC_WORD	910280	wordpools/wasnorm_wordpool_576.txt	LTP339	ltpFR2	5	1	COCOON	339	n/a	n/a	0	0	0
445.79150390625	n/a	REC_WORD	912981	wordpools/wasnorm_wordpool_576.txt	LTP339	ltpFR2	5	1	TOMBSTONE	1478	n/a	n/a	0	0	0
447.13720703125	n/a	REC_WORD	915737	wordpools/wasnorm_wordpool_576.txt	LTP339	ltpFR2	5	1	CHAMPAGNE	278	n/a	n/a	0	0	0
453.93798828125	n/a	REC_WORD	929665	wordpools/wasnorm_wordpool_576.txt	LTP339	ltpFR2	5	1	SLIDE	1326	n/a	n/a	0	0	0
474.58447265625	n/a	REC_WORD_VV	971949	wordpools/wasnorm_wordpool_576.txt	LTP339	ltpFR2	5	1	<>	-1	n/a	n/a	0	0	0
530.39306640625	n/a	WORD	1086245	wordpools/wasnorm_wordpool_576.txt	LTP339	ltpFR2	5	2	TRANSPLANT	1496	n/a	n/a	0	0	0
533.18505859375	n/a	WORD	1091963	wordpools/wasnorm_wordpool_576.txt	LTP339	ltpFR2	5	2	LODGE	839	n/a	n/a	0	0	0
535.759765625	n/a	WORD	1097236	wordpools/wasnorm_wordpool_576.txt	LTP339	ltpFR2	5	2	HIKER	708	n/a	n/a	0	0	0
538.3349609375	n/a	WORD	1102510	wordpools/wasnorm_wordpool_576.txt	LTP339	ltpFR2	5	2	FEMALE	559	n/a	n/a	0	0	0
541.07763671875	n/a	WORD	1108127	wordpools/wasnorm_wordpool_576.txt	LTP339	ltpFR2	5	2	LONDON	843	n/a	n/a	0	0	0
543.802734375	n/a	WORD	1113708	wordpools/wasnorm_wordpool_576.txt	LTP339	ltpFR2	5	2	CONCERT	360	n/a	n/a	0	0	0
546.32763671875	n/a	WORD	1118879	wordpools/wasnorm_wordpool_576.txt	LTP339	ltpFR2	5	2	COMET	353	n/a	n/a	0	0	0
549.11962890625	n/a	WORD	1124597	wordpools/wasnorm_wordpool_576.txt	LTP339	ltpFR2	5	2	BUREAU	199	n/a	n/a	0	0	0
551.8291015625	n/a	WORD	1130146	wordpools/wasnorm_wordpool_576.txt	LTP339	ltpFR2	5	2	DINER	467	n/a	n/a	0	0	0
554.26904296875	n/a	WORD	1135143	wordpools/wasnorm_wordpool_576.txt	LTP339	ltpFR2	5	2	LUNCH	849	n/a	n/a	0	0	0
556.87939453125	n/a	WORD	1140489	wordpools/wasnorm_wordpool_576.txt	LTP339	ltpFR2	5	2	APPLE	33	n/a	n/a	0	0	0
559.55322265625	n/a	WORD	1145965	wordpools/wasnorm_wordpool_576.txt	LTP339	ltpFR2	5	2	NOMAD	955	n/a	n/a	0	0	0
562.34521484375	n/a	WORD	1151683	wordpools/wasnorm_wordpool_576.txt	LTP339	ltpFR2	5	2	MISTER	901	n/a	n/a	0	0	0
564.85498046875	n/a	WORD	1156823	wordpools/wasnorm_wordpool_576.txt	LTP339	ltpFR2	5	2	DONKEY	484	n/a	n/a	0	0	0
567.62890625	n/a	WORD	1162504	wordpools/wasnorm_wordpool_576.txt	LTP339	ltpFR2	5	2	BLOCKADE	137	n/a	n/a	0	0	0
570.3876953125	n/a	WORD	1168154	wordpools/wasnorm_wordpool_576.txt	LTP339	ltpFR2	5	2	BANJO	82	n/a	n/a	0	0	0
573.0634765625	n/a	WORD	1173634	wordpools/wasnorm_wordpool_576.txt	LTP339	ltpFR2	5	2	UNCLE	1536	n/a	n/a	0	0	0
575.8056640625	n/a	WORD	1179250	wordpools/wasnorm_wordpool_576.txt	LTP339	ltpFR2	5	2	ULCER	1533	n/a	n/a	0	0	0
578.29638671875	n/a	WORD	1184351	wordpools/wasnorm_wordpool_576.txt	LTP339	ltpFR2	5	2	HELMET	702	n/a	n/a	0	0	0
581.00537109375	n/a	WORD	1189899	wordpools/wasnorm_wordpool_576.txt	LTP339	ltpFR2	5	2	JAPAN	749	n/a	n/a	0	0	0
583.59716796875	n/a	WORD	1195207	wordpools/wasnorm_wordpool_576.txt	LTP339	ltpFR2	5	2	GRAVE	658	n/a	n/a	0	0	0
586.13818359375	n/a	WORD	1200411	wordpools/wasnorm_wordpool_576.txt	LTP339	ltpFR2	5	2	BADGE	68	n/a	n/a	0	0	0
588.88134765625	n/a	WORD	1206029	wordpools/wasnorm_wordpool_576.txt	LTP339	ltpFR2	5	2	FLESH	579	n/a	n/a	0	0	0
591.572265625	n/a	WORD	1211540	wordpools/wasnorm_wordpool_576.txt	LTP339	ltpFR2	5	2	BRAKE	166	n/a	n/a	0	0	0
593.17822265625	n/a	START	1214829	n/a	LTP339	ltpFR2	5	n/a	n/a	n/a	3	n/a	n/a	n/a	n/a
594.1669921875	n/a	DISTRACTOR	1216854	n/a	LTP339	ltpFR2	5	2	n/a	n/a	n/a	n/a	0	0	0
594.18115234375	n/a	PROB	1216883	n/a	LTP339	ltpFR2	5	n/a	n/a	n/a	3	22	8	9	5
598.4609375	n/a	PROB	1225648	n/a	LTP339	ltpFR2	5	n/a	n/a	n/a	3	17	9	3	5
600.73583984375	n/a	PROB	1230307	n/a	LTP339	ltpFR2	5	n/a	n/a	n/a	3	17	2	9	6
603.66162109375	n/a	PROB	1236299	n/a	LTP339	ltpFR2	5	n/a	n/a	n/a	3	21	8	4	9
606.26953125	n/a	PROB	1241640	n/a	LTP339	ltpFR2	5	n/a	n/a	n/a	3	15	6	7	2
610.6005859375	n/a	PROB	1250510	n/a	LTP339	ltpFR2	5	n/a	n/a	n/a	3	23	8	7	8
614.16162109375	n/a	PROB	1257803	n/a	LTP339	ltpFR2	5	n/a	n/a	n/a	3	10	3	1	6
616.33349609375	n/a	STOP	1262251	n/a	LTP339	ltpFR2	5	n/a	n/a	n/a	3	n/a	n/a	n/a	n/a
619.078125	n/a	REC_START	1267872	n/a	LTP339	ltpFR2	5	2	n/a	n/a	n/a	n/a	0	0	0
621.68603515625	n/a	REC_WORD	1273213	wordpools/wasnorm_wordpool_576.txt	LTP339	ltpFR2	5	2	BADGE	68	n/a	n/a	0	0	0
623.04345703125	n/a	REC_WORD	1275993	wordpools/wasnorm_wordpool_576.txt	LTP339	ltpFR2	5	2	BUREAU	199	n/a	n/a	0	0	0
625.06103515625	n/a	REC_WORD	1280125	wordpools/wasnorm_wordpool_576.txt	LTP339	ltpFR2	5	2	FLESH	579	n/a	n/a	0	0	0
629.98095703125	n/a	REC_WORD	1290201	wordpools/wasnorm_wordpool_576.txt	LTP339	ltpFR2	5	2	MISTER	901	n/a	n/a	0	0	0
631.39013671875	n/a	REC_WORD	1293087	wordpools/wasnorm_wordpool_576.txt	LTP339	ltpFR2	5	2	HIKER	708	n/a	n/a	0	0	0
632.8369140625	n/a	REC_WORD	1296050	wordpools/wasnorm_wordpool_576.txt	LTP339	ltpFR2	5	2	DINER	467	n/a	n/a	0	0	0
634.10791015625	n/a	REC_WORD	1298653	wordpools/wasnorm_wordpool_576.txt	LTP339	ltpFR2	5	2	LUNCH	849	n/a	n/a	0	0	0
709.517578125	n/a	DISTRACTOR	1453092	n/a	LTP339	ltpFR2	5	3	n/a	n/a	n/a	n/a	0	0	0
709.517578125	n/a	START	1453092	n/a	LTP339	ltpFR2	5	n/a	n/a	n/a	4	n/a	n/a	n/a	n/a
709.53466796875	n/a	PROB	1453127	n/a	LTP339	ltpFR2	5	n/a	n/a	n/a	4	21	8	7	6
714.55078125	n/a	PROB	1463400	n/a	LTP339	ltpFR2	5	n/a	n/a	n/a	4	15	7	1	7
715.939453125	n/a	PROB	1466244	n/a	LTP339	ltpFR2	5	n/a	n/a	n/a	4	9	2	3	4
718.396484375	n/a	PROB	1471276	n/a	LTP339	ltpFR2	5	n/a	n/a	n/a	4	10	2	4	4
719.96826171875	n/a	PROB	1474495	n/a	LTP339	ltpFR2	5	n/a	n/a	n/a	4	16	6	2	8
721.47314453125	n/a	PROB	1477577	n/a	LTP339	ltpFR2	5	n/a	n/a	n/a	4	19	2	9	8
723.9814453125	n/a	PROB	1482714	n/a	LTP339	ltpFR2	5	n/a	n/a	n/a	4	8	2	5	1
725.8212890625	n/a	PROB	1486482	n/a	LTP339	ltpFR2	5	n/a	n/a	n/a	4	19	6	8	5
728.39501953125	n/a	PROB	1491753	n/a	LTP339	ltpFR2	5	n/a	n/a	n/a	4	12	1	7	4
730.1669921875	n/a	PROB	1495382	n/a	LTP339	ltpFR2	5	n/a	n/a	n/a	4	14	3	9	2
731.98095703125	n/a	STOP	1499097	n/a	LTP339	ltpFR2	5	n/a	n/a	n/a	4	n/a	n/a	n/a	n/a
734.48095703125	n/a	WORD	1504217	wordpools/wasnorm_wordpool_576.txt	LTP339	ltpFR2	5	3	LABEL	790	n/a	n/a	0	0	0
737.23974609375	n/a	WORD	1509867	wordpools/wasnorm_wordpool_576.txt	LTP339	ltpFR2	5	3	GYMNAST	675	n/a	n/a	0	0	0
739.89990234375	n/a	WORD	1515315	wordpools/wasnorm_wordpool_576.txt	LTP339	ltpFR2	5	3	JUGGLER	763	n/a	n/a	0	0	0
742.52392578125	n/a	WORD	1520689	wordpools/wasnorm_wordpool_576.txt	LTP339	ltpFR2	5	3	PARENT	1013	n/a	n/a	0	0	0
745.33251953125	n/a	WORD	1526441	wordpools/wasnorm_wordpool_576.txt	LTP339	ltpFR2	5	3	SPARROW	1347	n/a	n/a	0	0	0
747.974609375	n/a	WORD	1531852	wordpools/wasnorm_wordpool_576.txt	LTP339	ltpFR2	5	3	GAZELLE	628	n/a	n/a	0	0	0
750.46533203125	n/a	WORD	1536953	wordpools/wasnorm_wordpool_576.txt	LTP339	ltpFR2	5	3	MUMMY	932	n/a	n/a	0	0	0
753.107421875	n/a	WORD	1542364	wordpools/wasnorm_wordpool_576.txt	LTP339	ltpFR2	5	3	SHELF	1280	n/a	n/a	0	0	0
755.8515625	n/a	WORD	1547984	wordpools/wasnorm_wordpool_576.txt	LTP339	ltpFR2	5	3	CHIPMUNK	304	n/a	n/a	0	0	0
758.32421875	n/a	WORD	1553048	wordpools/wasnorm_wordpool_576.txt	LTP339	ltpFR2	5	3	GROUND	666	n/a	n/a	0	0	0
760.7490234375	n/a	WORD	1558014	wordpools/wasnorm_wordpool_576.txt	LTP339	ltpFR2	5	3	PRIMATE	1123	n/a	n/a	0	0	0
763.30712890625	n/a	WORD	1563253	wordpools/wasnorm_wordpool_576.txt	LTP339	ltpFR2	5	3	HUMAN	726	n/a	n/a	0	0	0
766.01611328125	n/a	WORD	1568801	wordpools/wasnorm_wordpool_576.txt	LTP339	ltpFR2	5	3	LUMBER	848	n/a	n/a	0	0	0
768.826171875	n/a	WORD	1574556	wordpools/wasnorm_wordpool_576.txt	LTP339	ltpFR2	5	3	QUARTER	1148	n/a	n/a	0	0	0
771.28271484375	n/a	WORD	1579587	wordpools/wasnorm_wordpool_576.txt	LTP339	ltpFR2	5	3	BRANCH	168	n/a	n/a	0	0	0
774.0078125	n/a	WORD	1585168	wordpools/wasnorm_wordpool_576.txt	LTP339	ltpFR2	5	3	SEAFOOD	1260	n/a	n/a	0	0	0
776.66650390625	n/a	WORD	1590613	wordpools/wasnorm_wordpool_576.txt	LTP339	ltpFR2	5	3	SHARK	1275	n/a	n/a	0	0	0
779.2587890625	n/a	WORD	1595922	wordpools/wasnorm_wordpool_576.txt	LTP339	ltpFR2	5	3	BRACES	164	n/a	n/a	0	0	0
781.716796875	n/a	WORD	1600956	wordpools/wasnorm_wordpool_576.txt	LTP339	ltpFR2	5	3	CHAPEL	280	n/a	n/a	0	0	0
784.44140625	n/a	WORD	1606536	wordpools/wasnorm_wordpool_576.txt	LTP339	ltpFR2	5	3	SHRUB	1299	n/a	n/a	0	0	0
787.05029296875	n/a	WORD	1611879	wordpools/wasnorm_wordpool_576.txt	LTP339	ltpFR2	5	3	CRICKET	408	n/a	n/a	0	0	0
789.54150390625	n/a	WORD	1616981	wordpools/wasnorm_wordpool_576.txt	LTP339	ltpFR2	5	3	CRITIC	410	n/a	n/a	0	0	0
792.08349609375	n/a	WORD	1622187	wordpools/wasnorm_wordpool_576.txt	LTP339	ltpFR2	5	3	CASHEW	253	n/a	n/a	0	0	0
794.64111328125	n/a	WORD	1627425	wordpools/wasnorm_wordpool_576.txt	LTP339	ltpFR2	5	3	NOVEL	960	n/a	n/a	0	0	0
796.24609375	n/a	START	1630712	n/a	LTP339	ltpFR2	5	n/a	n/a	n/a	5	n/a	n/a	n/a	n/a
797.3759765625	n/a	DISTRACTOR	1633026	n/a	LTP339	ltpFR2	5	3	n/a	n/a	n/a	n/a	0	0	0
797.38330078125	n/a	PROB	1633041	n/a	LTP339	ltpFR2	5	n/a	n/a	n/a	5	19	3	8	8
799.64013671875	n/a	PROB	1637663	n/a	LTP339	ltpFR2	5	n/a	n/a	n/a	5	10	6	1	3
801.49609375	n/a	PROB	1641464	n/a	LTP339	ltpFR2	5	n/a	n/a	n/a	5	11	2	5	4
803.3359375	n/a	PROB	1645232	n/a	LTP339	ltpFR2	5	n/a	n/a	n/a	5	16	5	4	7
806.07763671875	n/a	PROB	1650847	n/a	LTP339	ltpFR2	5	n/a	n/a	n/a	5	12	5	6	1
809.0537109375	n/a	PROB	1656942	n/a	LTP339	ltpFR2	5	n/a	n/a	n/a	5	20	5	7	8
812.86767578125	n/a	PROB	1664753	n/a	LTP339	ltpFR2	5	n/a	n/a	n/a	5	21	7	5	9
816.04345703125	n/a	PROB	1671257	n/a	LTP339	ltpFR2	5	n/a	n/a	n/a	5	7	3	1	3
817.8994140625	n/a	PROB	1675058	n/a	LTP339	ltpFR2	5	n/a	n/a	n/a	5	9	2	1	6
819.5322265625	n/a	STOP	1678402	n/a	LTP339	ltpFR2	5	n/a	n/a	n/a	5	n/a	n/a	n/a	n/a
821.99658203125	n/a	REC_START	1683449	n/a	LTP339	ltpFR2	5	3	n/a	n/a	n/a	n/a	0	0	0
822.8603515625	n/a	REC_WORD	1685218	wordpools/wasnorm_wordpool_576.txt	LTP339	ltpFR2	5	3	LABEL	790	n/a	n/a	0	0	0
823.8984375	n/a	REC_WORD	1687344	wordpools/wasnorm_wordpool_576.txt	LTP339	ltpFR2	5	3	BRANCH	168	n/a	n/a	0	0	0
825.45947265625	n/a	REC_WORD	1690541	wordpools/wasnorm_wordpool_576.txt	LTP339	ltpFR2	5	3	CRICKET	408	n/a	n/a	0	0	0
831.64501953125	n/a	REC_WORD	1703209	wordpools/wasnorm_wordpool_576.txt	LTP339	ltpFR2	5	3	GROUND	666	n/a	n/a	0	0	0
837.93310546875	n/a	REC_WORD_VV	1716087	wordpools/wasnorm_wordpool_576.txt	LTP339	ltpFR2	5	3	<>	-1	n/a	n/a	0	0	0
912.45263671875	n/a	DISTRACTOR	1868703	n/a	LTP339	ltpFR2	5	4	n/a	n/a	n/a	n/a	0	0	0
912.45263671875	n/a	START	1868703	n/a	LTP339	ltpFR2	5	n/a	n/a	n/a	6	n/a	n/a	n/a	n/a
912.46875	n/a	PROB	1868736	n/a	LTP339	ltpFR2	5	n/a	n/a	n/a	6	13	3	5	5
914.24169921875	n/a	PROB	1872367	n/a	LTP339	ltpFR2	5	n/a	n/a	n/a	6	18	5	9	4
916.38134765625	n/a	PROB	1876749	n/a	LTP339	ltpFR2	5	n/a	n/a	n/a	6	21	7	5	7
917.986328125	n/a	PROB	1880036	n/a	LTP339	ltpFR2	5	n/a	n/a	n/a	6	13	4	6	3
922.08349609375	n/a	PROB	1888427	n/a	LTP339	ltpFR2	5	n/a	n/a	n/a	6	15	1	6	8
926.12939453125	n/a	PROB	1896713	n/a	LTP339	ltpFR2	5	n/a	n/a	n/a	6	14	4	8	2
928.18603515625	n/a	PROB	1900925	n/a	LTP339	ltpFR2	5	n/a	n/a	n/a	6	21	9	6	6
930.84619140625	n/a	PROB	1906373	n/a	LTP339	ltpFR2	5	n/a	n/a	n/a	6	14	8	2	4
936.4521484375	n/a	STOP	1917854	n/a	LTP339	ltpFR2	5	n/a	n/a	n/a	6	n/a	n/a	n/a	n/a
937.51611328125	n/a	WORD	1920033	wordpools/wasnorm_wordpool_576.txt	LTP339	ltpFR2	5	4	PENGUIN	1044	n/a	n/a	0	0	0
940.125	n/a	WORD	1925376	wordpools/wasnorm_wordpool_576.txt	LTP339	ltpFR2	5	4	OINTMENT	974	n/a	n/a	0	0	0
942.73291015625	n/a	WORD	1930717	wordpools/wasnorm_wordpool_576.txt	LTP339	ltpFR2	5	4	PEPPER	1047	n/a	n/a	0	0	0
945.140625	n/a	WORD	1935648	wordpools/wasnorm_wordpool_576.txt	LTP339	ltpFR2	5	4	CONTRACT	368	n/a	n/a	0	0	0
947.8505859375	n/a	WORD	1941198	wordpools/wasnorm_wordpool_576.txt	LTP339	ltpFR2	5	4	JUDGE	761	n/a	n/a	0	0	0
950.32373046875	n/a	WORD	1946263	wordpools/wasnorm_wordpool_576.txt	LTP339	ltpFR2	5	4	BEEF	113	n/a	n/a	0	0	0
953.099609375	n/a	WORD	1951948	wordpools/wasnorm_wordpool_576.txt	LTP339	ltpFR2	5	4	HARP	689	n/a	n/a	0	0	0
955.607421875	n/a	WORD	1957084	wordpools/wasnorm_wordpool_576.txt	LTP339	ltpFR2	5	4	SAUSAGE	1238	n/a	n/a	0	0	0
958.2822265625	n/a	WORD	1962562	wordpools/wasnorm_wordpool_576.txt	LTP339	ltpFR2	5	4	BARLEY	88	n/a	n/a	0	0	0
961.05810546875	n/a	WORD	1968247	wordpools/wasnorm_wordpool_576.txt	LTP339	ltpFR2	5	4	ROD	1203	n/a	n/a	0	0	0
963.54931640625	n/a	WORD	1973349	wordpools/wasnorm_wordpool_576.txt	LTP339	ltpFR2	5	4	CURTAIN	427	n/a	n/a	0	0	0
966.19091796875	n/a	WORD	1978759	wordpools/wasnorm_wordpool_576.txt	LTP339	ltpFR2	5	4	GLASS	639	n/a	n/a	0	0	0
968.91796875	n/a	WORD	1984344	wordpools/wasnorm_wordpool_576.txt	LTP339	ltpFR2	5	4	TORTOISE	1486	n/a	n/a	0	0	0
971.5087890625	n/a	WORD	1989650	wordpools/wasnorm_wordpool_576.txt	LTP339	ltpFR2	5	4	SNAIL	1332	n/a	n/a	0	0	0
974.11669921875	n/a	WORD	1994991	wordpools/wasnorm_wordpool_576.txt	LTP339	ltpFR2	5	4	PACKAGE	997	n/a	n/a	0	0	0
976.876953125	n/a	WORD	2000644	wordpools/wasnorm_wordpool_576.txt	LTP339	ltpFR2	5	4	SUNSET	1408	n/a	n/a	0	0	0
979.48388671875	n/a	WORD	2005983	wordpools/wasnorm_wordpool_576.txt	LTP339	ltpFR2	5	4	CRATER	400	n/a	n/a	0	0	0
982.20947265625	n/a	WORD	2011565	wordpools/wasnorm_wordpool_576.txt	LTP339	ltpFR2	5	4	WRENCH	1625	n/a	n/a	0	0	0
984.78466796875	n/a	WORD	2016839	wordpools/wasnorm_wordpool_576.txt	LTP339	ltpFR2	5	4	BRANDY	169	n/a	n/a	0	0	0
987.59326171875	n/a	WORD	2022591	wordpools/wasnorm_wordpool_576.txt	LTP339	ltpFR2	5	4	RIVER	1194	n/a	n/a	0	0	0
990.3525390625	n/a	WORD	2028242	wordpools/wasnorm_wordpool_576.txt	LTP339	ltpFR2	5	4	GIFT	635	n/a	n/a	0	0	0
992.8115234375	n/a	WORD	2033278	wordpools/wasnorm_wordpool_576.txt	LTP339	ltpFR2	5	4	DANCER	437	n/a	n/a	0	0	0
995.46826171875	n/a	WORD	2038719	wordpools/wasnorm_wordpool_576.txt	LTP339	ltpFR2	5	4	BUCKET	184	n/a	n/a	0	0	0
998.26123046875	n/a	WORD	2044439	wordpools/wasnorm_wordpool_576.txt	LTP339	ltpFR2	5	4	BARREL	91	n/a	n/a	0	0	0
999.8671875	n/a	START	2047728	n/a	LTP339	ltpFR2	5	n/a	n/a	n/a	7	n/a	n/a	n/a	n/a
1001.005859375	n/a	DISTRACTOR	2050060	n/a	LTP339	ltpFR2	5	4	n/a	n/a	n/a	n/a	0	0	0
1001.02001953125	n/a	PROB	2050089	n/a	LTP339	ltpFR2	5	n/a	n/a	n/a	7	17	3	9	5
1003.94580078125	n/a	PROB	2056081	n/a	LTP339	ltpFR2	5	n/a	n/a	n/a	7	17	6	7	4
1007.82568359375	n/a	PROB	2064027	n/a	LTP339	ltpFR2	5	n/a	n/a	n/a	7	10	4	4	2
1009.19580078125	n/a	PROB	2066833	n/a	LTP339	ltpFR2	5	n/a	n/a	n/a	7	10	3	6	1
1010.8359375	n/a	PROB	2070192	n/a	LTP339	ltpFR2	5	n/a	n/a	n/a	7	19	6	7	6
1014.44677734375	n/a	PROB	2077587	n/a	LTP339	ltpFR2	5	n/a	n/a	n/a	7	21	9	7	5
1019.26171875	n/a	PROB	2087448	n/a	LTP339	ltpFR2	5	n/a	n/a	n/a	7	23	7	7	9
1023.865234375	n/a	STOP	2096876	n/a	LTP339	ltpFR2	5	n/a	n/a	n/a	7	n/a	n/a	n/a	n/a
1025.68359375	n/a	REC_START	2100600	n/a	LTP339	ltpFR2	5	4	n/a	n/a	n/a	n/a	0	0	0
1026.82421875	n/a	REC_WORD	2102936	wordpools/wasnorm_wordpool_576.txt	LTP339	ltpFR2	5	4	BARLEY	88	n/a	n/a	0	0	0
1027.7431640625	n/a	REC_WORD	2104818	wordpools/wasnorm_wordpool_576.txt	LTP339	ltpFR2	5	4	SNAIL	1332	n/a	n/a	0	0	0
1030.62646484375	n/a	REC_WORD	2110723	wordpools/wasnorm_wordpool_576.txt	LTP339	ltpFR2	5	4	WRENCH	1625	n/a	n/a	0	0	0
1033.96435546875	n/a	REC_WORD	2117559	wordpools/wasnorm_wordpool_576.txt	LTP339	ltpFR2	5	4	CRATER	400	n/a	n/a	0	0	0
1037.4140625	n/a	REC_WORD	2124624	wordpools/wasnorm_wordpool_576.txt	LTP339	ltpFR2	5	4	BARREL	91	n/a	n/a	0	0	0
1069.3671875	n/a	REC_WORD	2190064	wordpools/wasnorm_wordpool_576.txt	LTP339	ltpFR2	5	4	BARLEY	88	n/a	n/a	0	0	0
1116.1396484375	n/a	WORD	2285854	wordpools/wasnorm_wordpool_576.txt	LTP339	ltpFR2	5	5	FLAG	573	n/a	n/a	0	0	0
1118.69775390625	n/a	WORD	2291093	wordpools/wasnorm_wordpool_576.txt	LTP339	ltpFR2	5	5	HANDBAG	684	n/a	n/a	0	0	0
1121.22265625	n/a	WORD	2296264	wordpools/wasnorm_wordpool_576.txt	LTP339	ltpFR2	5	5	BANK	83	n/a	n/a	0	0	0
1123.99755859375	n/a	WORD	2301947	wordpools/wasnorm_wordpool_576.txt	LTP339	ltpFR2	5	5	SPONGE	1355	n/a	n/a	0	0	0
1126.45556640625	n/a	WORD	2306981	wordpools/wasnorm_wordpool_576.txt	LTP339	ltpFR2	5	5	BEAKER	104	n/a	n/a	0	0	0
1129.1474609375	n/a	WORD	2312494	wordpools/wasnorm_wordpool_576.txt	LTP339	ltpFR2	5	5	FLASK	576	n/a	n/a	0	0	0
1131.72216796875	n/a	WORD	2317767	wordpools/wasnorm_wordpool_576.txt	LTP339	ltpFR2	5	5	SHORTCAKE	1292	n/a	n/a	0	0	0
1134.48095703125	n/a	WORD	2323417	wordpools/wasnorm_wordpool_576.txt	LTP339	ltpFR2	5	5	NECKLACE	940	n/a	n/a	0	0	0
1136.97314453125	n/a	WORD	2328521	wordpools/wasnorm_wordpool_576.txt	LTP339	ltpFR2	5	5	RELISH	1183	n/a	n/a	0	0	0
1139.71484375	n/a	WORD	2334136	wordpools/wasnorm_wordpool_576.txt	LTP339	ltpFR2	5	5	EAGLE	512	n/a	n/a	0	0	0
1142.30712890625	n/a	WORD	2339445	wordpools/wasnorm_wordpool_576.txt	LTP339	ltpFR2	5	5	DRUG	501	n/a	n/a	0	0	0
1144.7646484375	n/a	WORD	2344478	wordpools/wasnorm_wordpool_576.txt	LTP339	ltpFR2	5	5	TUTU	1524	n/a	n/a	0	0	0
1147.23876953125	n/a	WORD	2349545	wordpools/wasnorm_wordpool_576.txt	LTP339	ltpFR2	5	5	BUTCHER	203	n/a	n/a	0	0	0
1149.81494140625	n/a	WORD	2354821	wordpools/wasnorm_wordpool_576.txt	LTP339	ltpFR2	5	5	PADDING	999	n/a	n/a	0	0	0
1152.23876953125	n/a	WORD	2359785	wordpools/wasnorm_wordpool_576.txt	LTP339	ltpFR2	5	5	CRUTCH	417	n/a	n/a	0	0	0
1154.83056640625	n/a	WORD	2365093	wordpools/wasnorm_wordpool_576.txt	LTP339	ltpFR2	5	5	SILK	1307	n/a	n/a	0	0	0
1157.6396484375	n/a	WORD	2370846	wordpools/wasnorm_wordpool_576.txt	LTP339	ltpFR2	5	5	VELVET	1555	n/a	n/a	0	0	0
1160.26416015625	n/a	WORD	2376221	wordpools/wasnorm_wordpool_576.txt	LTP339	ltpFR2	5	5	CITRUS	313	n/a	n/a	0	0	0
1162.84033203125	n/a	WORD	2381497	wordpools/wasnorm_wordpool_576.txt	LTP339	ltpFR2	5	5	VALLEY	1545	n/a	n/a	0	0	0
1165.2802734375	n/a	WORD	2386494	wordpools/wasnorm_wordpool_576.txt	LTP339	ltpFR2	5	5	SCALPEL	1243	n/a	n/a	0	0	0
1167.93896484375	n/a	WORD	2391939	wordpools/wasnorm_wordpool_576.txt	LTP339	ltpFR2	5	5	DRINK	498	n/a	n/a	0	0	0
1170.43017578125	n/a	WORD	2397041	wordpools/wasnorm_wordpool_576.txt	LTP339	ltpFR2	5	5	DAUGHTER	442	n/a	n/a	0	0	0
1172.8720703125	n/a	WORD	2402042	wordpools/wasnorm_wordpool_576.txt	LTP339	ltpFR2	5	5	RABBIT	1152	n/a	n/a	0	0	0
1175.51318359375	n/a	WORD	2407451	wordpools/wasnorm_wordpool_576.txt	LTP339	ltpFR2	5	5	TURTLE	1522	n/a	n/a	0	0	0
1177.119140625	n/a	START	2410740	n/a	LTP339	ltpFR2	5	n/a	n/a	n/a	8	n/a	n/a	n/a	n/a
1178.27294921875	n/a	DISTRACTOR	2413103	n/a	LTP339	ltpFR2	5	5	n/a	n/a	n/a	n/a	0	0	0
1178.2890625	n/a	PROB	2413136	n/a	LTP339	ltpFR2	5	n/a	n/a	n/a	8	11	3	3	5
1181.431640625	n/a	PROB	2419572	n/a	LTP339	ltpFR2	5	n/a	n/a	n/a	8	18	8	6	4
1184.24072265625	n/a	PROB	2425325	n/a	LTP339	ltpFR2	5	n/a	n/a	n/a	8	14	1	8	5
1187.568359375	n/a	PROB	2432140	n/a	LTP339	ltpFR2	5	n/a	n/a	n/a	8	15	8	2	5
1189.1064453125	n/a	PROB	2435290	n/a	LTP339	ltpFR2	5	n/a	n/a	n/a	8	16	1	9	6
1190.9794921875	n/a	PROB	2439126	n/a	LTP339	ltpFR2	5	n/a	n/a	n/a	8	14	5	3	6
1196.982421875	n/a	PROB	2451420	n/a	LTP339	ltpFR2	5	n/a	n/a	n/a	8	25	8	8	9
1201.1171875	n/a	STOP	2459888	n/a	LTP339	ltpFR2	5	n/a	n/a	n/a	8	n/a	n/a	n/a	n/a
1202.88623046875	n/a	REC_START	2463511	n/a	LTP339	ltpFR2	5	5	n/a	n/a	n/a	n/a	0	0	0
1203.31396484375	n/a	REC_WORD	2464387	wordpools/wasnorm_wordpool_576.txt	LTP339	ltpFR2	5	5	FLAG	573	n/a	n/a	0	0	0
1204.51904296875	n/a	REC_WORD	2466855	wordpools/wasnorm_wordpool_576.txt	LTP339	ltpFR2	5	5	BANK	83	n/a	n/a	0	0	0
1205.27294921875	n/a	REC_WORD	2468399	wordpools/wasnorm_wordpool_576.txt	LTP339	ltpFR2	5	5	SPONGE	1355	n/a	n/a	0	0	0
1206.46923828125	n/a	REC_WORD	2470849	wordpools/wasnorm_wordpool_576.txt	LTP339	ltpFR2	5	5	BEAKER	104	n/a	n/a	0	0	0
1207.35888671875	n/a	REC_WORD	2472671	wordpools/wasnorm_wordpool_576.txt	LTP339	ltpFR2	5	5	FLASK	576	n/a	n/a	0	0	0
1208.68017578125	n/a	REC_WORD	2475377	wordpools/wasnorm_wordpool_576.txt	LTP339	ltpFR2	5	5	DRINK	498	n/a	n/a	0	0	0
1209.69384765625	n/a	REC_WORD	2477453	wordpools/wasnorm_wordpool_576.txt	LTP339	ltpFR2	5	5	PADDING	999	n/a	n/a	0	0	0
1210.7919921875	n/a	REC_WORD	2479702	wordpools/wasnorm_wordpool_576.txt	LTP339	ltpFR2	5	5	HANDBAG	684	n/a	n/a	0	0	0
1293.34130859375	n/a	DISTRACTOR	2648763	n/a	LTP339	ltpFR2	5	6	n/a	n/a	n/a	n/a	0	0	0
1293.34130859375	n/a	START	2648763	n/a	LTP339	ltpFR2	5	n/a	n/a	n/a	9	n/a	n/a	n/a	n/a
1293.357421875	n/a	PROB	2648796	n/a	LTP339	ltpFR2	5	n/a	n/a	n/a	9	21	8	5	8
1296.2001953125	n/a	PROB	2654618	n/a	LTP339	ltpFR2	5	n/a	n/a	n/a	9	13	8	4	1
1301.400390625	n/a	PROB	2665268	n/a	LTP339	ltpFR2	5	n/a	n/a	n/a	9	16	9	4	3
1303.25634765625	n/a	PROB	2669069	n/a	LTP339	ltpFR2	5	n/a	n/a	n/a	9	16	4	7	5
1306.56689453125	n/a	PROB	2675849	n/a	LTP339	ltpFR2	5	n/a	n/a	n/a	9	13	2	7	4
1309.72705078125	n/a	PROB	2682321	n/a	LTP339	ltpFR2	5	n/a	n/a	n/a	9	20	7	6	7
1311.51611328125	n/a	PROB	2685985	n/a	LTP339	ltpFR2	5	n/a	n/a	n/a	9	20	9	2	9
1313.32177734375	n/a	PROB	2689683	n/a	LTP339	ltpFR2	5	n/a	n/a	n/a	9	10	3	1	6
1317.33984375	n/a	STOP	2697912	n/a	LTP339	ltpFR2	5	n/a	n/a	n/a	9	n/a	n/a	n/a	n/a
1318.53857421875	n/a	WORD	2700367	wordpools/wasnorm_wordpool_576.txt	LTP339	ltpFR2	5	6	SUSPECT	1415	n/a	n/a	0	0	0
1321.19775390625	n/a	WORD	2705813	wordpools/wasnorm_wordpool_576.txt	LTP339	ltpFR2	5	6	MARS	873	n/a	n/a	0	0	0
1323.62158203125	n/a	WORD	2710777	wordpools/wasnorm_wordpool_576.txt	LTP339	ltpFR2	5	6	CYCLONE	431	n/a	n/a	0	0	0
1326.34765625	n/a	WORD	2716360	wordpools/wasnorm_wordpool_576.txt	LTP339	ltpFR2	5	6	GRAPE	654	n/a	n/a	0	0	0
1328.92333984375	n/a	WORD	2721635	wordpools/wasnorm_wordpool_576.txt	LTP339	ltpFR2	5	6	BROTHER	179	n/a	n/a	0	0	0
1331.49755859375	n/a	WORD	2726907	wordpools/wasnorm_wordpool_576.txt	LTP339	ltpFR2	5	6	SISTER	1312	n/a	n/a	0	0	0
1334.13916015625	n/a	WORD	2732317	wordpools/wasnorm_wordpool_576.txt	LTP339	ltpFR2	5	6	BACON	67	n/a	n/a	0	0	0
1336.8154296875	n/a	WORD	2737798	wordpools/wasnorm_wordpool_576.txt	LTP339	ltpFR2	5	6	BLADE	134	n/a	n/a	0	0	0
1339.3720703125	n/a	WORD	2743034	wordpools/wasnorm_wordpool_576.txt	LTP339	ltpFR2	5	6	TWISTER	1530	n/a	n/a	0	0	0
1341.9638671875	n/a	WORD	2748342	wordpools/wasnorm_wordpool_576.txt	LTP339	ltpFR2	5	6	HERO	706	n/a	n/a	0	0	0
1344.755859375	n/a	WORD	2754060	wordpools/wasnorm_wordpool_576.txt	LTP339	ltpFR2	5	6	FLASHLIGHT	575	n/a	n/a	0	0	0
1347.36474609375	n/a	WORD	2759403	wordpools/wasnorm_wordpool_576.txt	LTP339	ltpFR2	5	6	MATCH	878	n/a	n/a	0	0	0
1349.8740234375	n/a	WORD	2764542	wordpools/wasnorm_wordpool_576.txt	LTP339	ltpFR2	5	6	WIFE	1609	n/a	n/a	0	0	0
1352.44775390625	n/a	WORD	2769813	wordpools/wasnorm_wordpool_576.txt	LTP339	ltpFR2	5	6	EUROPE	541	n/a	n/a	0	0	0
1355.1396484375	n/a	WORD	2775326	wordpools/wasnorm_wordpool_576.txt	LTP339	ltpFR2	5	6	SANDWICH	1232	n/a	n/a	0	0	0
1357.7314453125	n/a	WORD	2780634	wordpools/wasnorm_wordpool_576.txt	LTP339	ltpFR2	5	6	SHORTS	1293	n/a	n/a	0	0	0
1360.5234375	n/a	WORD	2786352	wordpools/wasnorm_wordpool_576.txt	LTP339	ltpFR2	5	6	SUNRISE	1407	n/a	n/a	0	0	0
1363.24853515625	n/a	WORD	2791933	wordpools/wasnorm_wordpool_576.txt	LTP339	ltpFR2	5	6	ARM	38	n/a	n/a	0	0	0
1365.92529296875	n/a	WORD	2797415	wordpools/wasnorm_wordpool_576.txt	LTP339	ltpFR2	5	6	NOTEBOOK	959	n/a	n/a	0	0	0
1368.43212890625	n/a	WORD	2802549	wordpools/wasnorm_wordpool_576.txt	LTP339	ltpFR2	5	6	BASEMENT	94	n/a	n/a	0	0	0
1370.95703125	n/a	WORD	2807720	wordpools/wasnorm_wordpool_576.txt	LTP339	ltpFR2	5	6	WHISTLE	1606	n/a	n/a	0	0	0
1373.64892578125	n/a	WORD	2813233	wordpools/wasnorm_wordpool_576.txt	LTP339	ltpFR2	5	6	INFANT	737	n/a	n/a	0	0	0
1376.30712890625	n/a	WORD	2818677	wordpools/wasnorm_wordpool_576.txt	LTP339	ltpFR2	5	6	BUGGY	188	n/a	n/a	0	0	0
1379.03271484375	n/a	WORD	2824259	wordpools/wasnorm_wordpool_576.txt	LTP339	ltpFR2	5	6	ORANGE	980	n/a	n/a	0	0	0
1380.6376953125	n/a	START	2827546	n/a	LTP339	ltpFR2	5	n/a	n/a	n/a	10	n/a	n/a	n/a	n/a
1381.82568359375	n/a	DISTRACTOR	2829979	n/a	LTP339	ltpFR2	5	6	n/a	n/a	n/a	n/a	0	0	0
1381.8427734375	n/a	PROB	2830014	n/a	LTP339	ltpFR2	5	n/a	n/a	n/a	10	25	9	8	8
1384.86865234375	n/a	PROB	2836211	n/a	LTP339	ltpFR2	5	n/a	n/a	n/a	10	17	5	9	3
1387.40966796875	n/a	PROB	2841415	n/a	LTP339	ltpFR2	5	n/a	n/a	n/a	10	18	1	9	8
1388.99755859375	n/a	PROB	2844667	n/a	LTP339	ltpFR2	5	n/a	n/a	n/a	10	15	3	3	7
1391.6396484375	n/a	PROB	2850078	n/a	LTP339	ltpFR2	5	n/a	n/a	n/a	10	9	5	3	1
1394.68359375	n/a	PROB	2856312	n/a	LTP339	ltpFR2	5	n/a	n/a	n/a	10	12	4	6	2
1396.1875	n/a	PROB	2859392	n/a	LTP339	ltpFR2	5	n/a	n/a	n/a	10	6	2	1	3
1398.96337890625	n/a	PROB	2865077	n/a	LTP339	ltpFR2	5	n/a	n/a	n/a	10	21	9	9	3
1404.63720703125	n/a	STOP	2876697	n/a	LTP339	ltpFR2	5	n/a	n/a	n/a	10	n/a	n/a	n/a	n/a
1406.5380859375	n/a	REC_START	2880590	n/a	LTP339	ltpFR2	5	6	n/a	n/a	n/a	n/a	0	0	0
1407.13623046875	n/a	REC_WORD	2881815	wordpools/wasnorm_wordpool_576.txt	LTP339	ltpFR2	5	6	EUROPE	541	n/a	n/a	0	0	0
1407.83203125	n/a	REC_WORD	2883240	wordpools/wasnorm_wordpool_576.txt	LTP339	ltpFR2	5	6	SANDWICH	1232	n/a	n/a	0	0	0
1409.365234375	n/a	REC_WORD	2886380	wordpools/wasnorm_wordpool_576.txt	LTP339	ltpFR2	5	6	SHORTS	1293	n/a	n/a	0	0	0
1410.63916015625	n/a	REC_WORD	2888989	wordpools/wasnorm_wordpool_576.txt	LTP339	ltpFR2	5	6	SUNRISE	1407	n/a	n/a	0	0	0
1411.7978515625	n/a	REC_WORD	2891362	wordpools/wasnorm_wordpool_576.txt	LTP339	ltpFR2	5	6	ARM	38	n/a	n/a	0	0	0
1412.837890625	n/a	REC_WORD	2893492	wordpools/wasnorm_wordpool_576.txt	LTP339	ltpFR2	5	6	BROTHER	179	n/a	n/a	0	0	0
1413.8701171875	n/a	REC_WORD	2895606	wordpools/wasnorm_wordpool_576.txt	LTP339	ltpFR2	5	6	SISTER	1312	n/a	n/a	0	0	0
1415.28076171875	n/a	REC_WORD	2898495	wordpools/wasnorm_wordpool_576.txt	LTP339	ltpFR2	5	6	NOTEBOOK	959	n/a	n/a	0	0	0
1423.0087890625	n/a	REC_WORD	2914322	wordpools/wasnorm_wordpool_576.txt	LTP339	ltpFR2	5	6	BACON	67	n/a	n/a	0	0	0
1426.677734375	n/a	REC_WORD	2921836	wordpools/wasnorm_wordpool_576.txt	LTP339	ltpFR2	5	6	SUSPECT	1415	n/a	n/a	0	0	0
1431.95556640625	n/a	REC_WORD	2932645	wordpools/wasnorm_wordpool_576.txt	LTP339	ltpFR2	5	6	ORANGE	980	n/a	n/a	0	0	0
1496.99462890625	n/a	WORD	3065845	wordpools/wasnorm_wordpool_576.txt	LTP339	ltpFR2	5	7	AIRPORT	13	n/a	n/a	0	0	0
1499.51953125	n/a	WORD	3071016	wordpools/wasnorm_wordpool_576.txt	LTP339	ltpFR2	5	7	PILOT	1070	n/a	n/a	0	0	0
1502.09423828125	n/a	WORD	3076289	wordpools/wasnorm_wordpool_576.txt	LTP339	ltpFR2	5	7	VALVE	1546	n/a	n/a	0	0	0
1504.83740234375	n/a	WORD	3081907	wordpools/wasnorm_wordpool_576.txt	LTP339	ltpFR2	5	7	SKETCH	1315	n/a	n/a	0	0	0
1507.5283203125	n/a	WORD	3087418	wordpools/wasnorm_wordpool_576.txt	LTP339	ltpFR2	5	7	SHELTER	1282	n/a	n/a	0	0	0
1510.2041015625	n/a	WORD	3092898	wordpools/wasnorm_wordpool_576.txt	LTP339	ltpFR2	5	7	STAR	1373	n/a	n/a	0	0	0
1512.99609375	n/a	WORD	3098616	wordpools/wasnorm_wordpool_576.txt	LTP339	ltpFR2	5	7	STICKER	1382	n/a	n/a	0	0	0
1515.50390625	n/a	WORD	3103752	wordpools/wasnorm_wordpool_576.txt	LTP339	ltpFR2	5	7	MONEY	908	n/a	n/a	0	0	0
1518.212890625	n/a	WORD	3109300	wordpools/wasnorm_wordpool_576.txt	LTP339	ltpFR2	5	7	SPACE	1345	n/a	n/a	0	0	0
1520.9228515625	n/a	WORD	3114850	wordpools/wasnorm_wordpool_576.txt	LTP339	ltpFR2	5	7	GANGSTER	620	n/a	n/a	0	0	0
1523.4794921875	n/a	WORD	3120086	wordpools/wasnorm_wordpool_576.txt	LTP339	ltpFR2	5	7	SLUG	1329	n/a	n/a	0	0	0
1526.00439453125	n/a	WORD	3125257	wordpools/wasnorm_wordpool_576.txt	LTP339	ltpFR2	5	7	ACTOR	5	n/a	n/a	0	0	0
1528.763671875	n/a	WORD	3130908	wordpools/wasnorm_wordpool_576.txt	LTP339	ltpFR2	5	7	HORSE	719	n/a	n/a	0	0	0
1531.271484375	n/a	WORD	3136044	wordpools/wasnorm_wordpool_576.txt	LTP339	ltpFR2	5	7	DORM	488	n/a	n/a	0	0	0
1533.9462890625	n/a	WORD	3141522	wordpools/wasnorm_wordpool_576.txt	LTP339	ltpFR2	5	7	COTTAGE	384	n/a	n/a	0	0	0
1536.5712890625	n/a	WORD	3146898	wordpools/wasnorm_wordpool_576.txt	LTP339	ltpFR2	5	7	JELLO	754	n/a	n/a	0	0	0
1539.13037109375	n/a	WORD	3152139	wordpools/wasnorm_wordpool_576.txt	LTP339	ltpFR2	5	7	LION	827	n/a	n/a	0	0	0
1541.73828125	n/a	WORD	3157480	wordpools/wasnorm_wordpool_576.txt	LTP339	ltpFR2	5	7	BRICK	172	n/a	n/a	0	0	0
1544.3798828125	n/a	WORD	3162890	wordpools/wasnorm_wordpool_576.txt	LTP339	ltpFR2	5	7	BALLOON	75	n/a	n/a	0	0	0
1546.8720703125	n/a	WORD	3167994	wordpools/wasnorm_wordpool_576.txt	LTP339	ltpFR2	5	7	JUNGLE	764	n/a	n/a	0	0	0
1549.345703125	n/a	WORD	3173060	wordpools/wasnorm_wordpool_576.txt	LTP339	ltpFR2	5	7	HOSTESS	723	n/a	n/a	0	0	0
1551.921875	n/a	WORD	3178336	wordpools/wasnorm_wordpool_576.txt	LTP339	ltpFR2	5	7	JELLY	755	n/a	n/a	0	0	0
1554.52880859375	n/a	WORD	3183675	wordpools/wasnorm_wordpool_576.txt	LTP339	ltpFR2	5	7	MUFFIN	929	n/a	n/a	0	0	0
1557.32177734375	n/a	WORD	3189395	wordpools/wasnorm_wordpool_576.txt	LTP339	ltpFR2	5	7	MAMMAL	861	n/a	n/a	0	0	0
1558.927734375	n/a	START	3192684	n/a	LTP339	ltpFR2	5	n/a	n/a	n/a	11	n/a	n/a	n/a	n/a
1560.11669921875	n/a	DISTRACTOR	3195119	n/a	LTP339	ltpFR2	5	7	n/a	n/a	n/a	n/a	0	0	0
1560.130859375	n/a	PROB	3195148	n/a	LTP339	ltpFR2	5	n/a	n/a	n/a	11	14	1	9	4
1562.4375	n/a	PROB	3199872	n/a	LTP339	ltpFR2	5	n/a	n/a	n/a	11	8	3	4	1
1564.6787109375	n/a	PROB	3204462	n/a	LTP339	ltpFR2	5	n/a	n/a	n/a	11	26	8	9	9
1568.5244140625	n/a	PROB	3212338	n/a	LTP339	ltpFR2	5	n/a	n/a	n/a	11	8	1	5	2
1570.162109375	n/a	PROB	3215692	n/a	LTP339	ltpFR2	5	n/a	n/a	n/a	11	14	3	4	7
1574.05810546875	n/a	PROB	3223671	n/a	LTP339	ltpFR2	5	n/a	n/a	n/a	11	10	1	4	5
1575.76416015625	n/a	PROB	3227165	n/a	LTP339	ltpFR2	5	n/a	n/a	n/a	11	20	6	4	6
1577.6533203125	n/a	PROB	3231034	n/a	LTP339	ltpFR2	5	n/a	n/a	n/a	11	20	9	2	9
1582.9267578125	n/a	STOP	3241834	n/a	LTP339	ltpFR2	5	n/a	n/a	n/a	11	n/a	n/a	n/a	n/a
1584.74365234375	n/a	REC_START	3245555	n/a	LTP339	ltpFR2	5	7	n/a	n/a	n/a	n/a	0	0	0
1585.537109375	n/a	REC_WORD	3247180	wordpools/wasnorm_wordpool_576.txt	LTP339	ltpFR2	5	7	VALVE	1546	n/a	n/a	0	0	0
1588.380859375	n/a	REC_WORD	3253004	wordpools/wasnorm_wordpool_576.txt	LTP339	ltpFR2	5	7	PILOT	1070	n/a	n/a	0	0	0
1594.40283203125	n/a	REC_WORD	3265337	wordpools/wasnorm_wordpool_576.txt	LTP339	ltpFR2	5	7	AIRPORT	13	n/a	n/a	0	0	0
1601.98828125	n/a	REC_WORD	3280872	wordpools/wasnorm_wordpool_576.txt	LTP339	ltpFR2	5	7	JELLO	754	n/a	n/a	0	0	0
1603.357421875	n/a	REC_WORD	3283676	wordpools/wasnorm_wordpool_576.txt	LTP339	ltpFR2	5	7	JELLY	755	n/a	n/a	0	0	0
1608.47900390625	n/a	REC_WORD	3294165	wordpools/wasnorm_wordpool_576.txt	LTP339	ltpFR2	5	7	STAR	1373	n/a	n/a	0	0	0
1675.2001953125	n/a	WORD	3430810	wordpools/wasnorm_wordpool_576.txt	LTP339	ltpFR2	5	8	TUNNEL	1519	n/a	n/a	0	0	0
1677.859375	n/a	WORD	3436256	wordpools/wasnorm_wordpool_576.txt	LTP339	ltpFR2	5	8	SPOOL	1356	n/a	n/a	0	0	0
1680.3662109375	n/a	WORD	3441390	wordpools/wasnorm_wordpool_576.txt	LTP339	ltpFR2	5	8	SCRIBBLE	1256	n/a	n/a	0	0	0
1682.89208984375	n/a	WORD	3446563	wordpools/wasnorm_wordpool_576.txt	LTP339	ltpFR2	5	8	LASER	801	n/a	n/a	0	0	0
1685.5830078125	n/a	WORD	3452074	wordpools/wasnorm_wordpool_576.txt	LTP339	ltpFR2	5	8	DOLPHIN	483	n/a	n/a	0	0	0
1688.3759765625	n/a	WORD	3457794	wordpools/wasnorm_wordpool_576.txt	LTP339	ltpFR2	5	8	PROTON	1132	n/a	n/a	0	0	0
1691.1005859375	n/a	WORD	3463374	wordpools/wasnorm_wordpool_576.txt	LTP339	ltpFR2	5	8	EXPERT	543	n/a	n/a	0	0	0
1693.79345703125	n/a	WORD	3468889	wordpools/wasnorm_wordpool_576.txt	LTP339	ltpFR2	5	8	SUPPER	1411	n/a	n/a	0	0	0
1696.28466796875	n/a	WORD	3473991	wordpools/wasnorm_wordpool_576.txt	LTP339	ltpFR2	5	8	PUDDLE	1140	n/a	n/a	0	0	0
1699.07666015625	n/a	WORD	3479709	wordpools/wasnorm_wordpool_576.txt	LTP339	ltpFR2	5	8	MARINE	869	n/a	n/a	0	0	0
1701.55126953125	n/a	WORD	3484777	wordpools/wasnorm_wordpool_576.txt	LTP339	ltpFR2	5	8	SCALLOP	1242	n/a	n/a	0	0	0
1704.12646484375	n/a	WORD	3490051	wordpools/wasnorm_wordpool_576.txt	LTP339	ltpFR2	5	8	CRAB	397	n/a	n/a	0	0	0
1706.63427734375	n/a	WORD	3495187	wordpools/wasnorm_wordpool_576.txt	LTP339	ltpFR2	5	8	CHEST	295	n/a	n/a	0	0	0
1709.2421875	n/a	WORD	3500528	wordpools/wasnorm_wordpool_576.txt	LTP339	ltpFR2	5	8	FLEET	578	n/a	n/a	0	0	0
1711.93408203125	n/a	WORD	3506041	wordpools/wasnorm_wordpool_576.txt	LTP339	ltpFR2	5	8	NURSE	963	n/a	n/a	0	0	0
1714.54296875	n/a	WORD	3511384	wordpools/wasnorm_wordpool_576.txt	LTP339	ltpFR2	5	8	THREAD	1460	n/a	n/a	0	0	0
1716.98388671875	n/a	WORD	3516383	wordpools/wasnorm_wordpool_576.txt	LTP339	ltpFR2	5	8	MAILMAN	858	n/a	n/a	0	0	0
1719.39208984375	n/a	WORD	3521315	wordpools/wasnorm_wordpool_576.txt	LTP339	ltpFR2	5	8	BODY	145	n/a	n/a	0	0	0
1721.8837890625	n/a	WORD	3526418	wordpools/wasnorm_wordpool_576.txt	LTP339	ltpFR2	5	8	CLOUD	328	n/a	n/a	0	0	0
1724.60888671875	n/a	WORD	3531999	wordpools/wasnorm_wordpool_576.txt	LTP339	ltpFR2	5	8	MAILBOX	857	n/a	n/a	0	0	0
1727.16650390625	n/a	WORD	3537237	wordpools/wasnorm_wordpool_576.txt	LTP339	ltpFR2	5	8	DRAGON	492	n/a	n/a	0	0	0
1729.5908203125	n/a	WORD	3542202	wordpools/wasnorm_wordpool_576.txt	LTP339	ltpFR2	5	8	DAISY	435	n/a	n/a	0	0	0
1732.29931640625	n/a	WORD	3547749	wordpools/wasnorm_wordpool_576.txt	LTP339	ltpFR2	5	8	PEDAL	1037	n/a	n/a	0	0	0
1734.8583984375	n/a	WORD	3552990	wordpools/wasnorm_wordpool_576.txt	LTP339	ltpFR2	5	8	PISTOL	1075	n/a	n/a	0	0	0
1736.46337890625	n/a	START	3556277	n/a	LTP339	ltpFR2	5	n/a	n/a	n/a	12	n/a	n/a	n/a	n/a
1737.42822265625	n/a	DISTRACTOR	3558253	n/a	LTP339	ltpFR2	5	8	n/a	n/a	n/a	n/a	0	0	0
1737.4326171875	n/a	PROB	3558262	n/a	LTP339	ltpFR2	5	n/a	n/a	n/a	12	11	3	7	1
1740.72607421875	n/a	PROB	3565007	n/a	LTP339	ltpFR2	5	n/a	n/a	n/a	12	19	9	4	6
1743.28515625	n/a	PROB	3570248	n/a	LTP339	ltpFR2	5	n/a	n/a	n/a	12	19	5	9	5
1744.791015625	n/a	PROB	3573332	n/a	LTP339	ltpFR2	5	n/a	n/a	n/a	12	16	5	3	8
1747.73193359375	n/a	PROB	3579355	n/a	LTP339	ltpFR2	5	n/a	n/a	n/a	12	12	3	7	2
1749.23681640625	n/a	PROB	3582437	n/a	LTP339	ltpFR2	5	n/a	n/a	n/a	12	20	4	7	9
1752.1298828125	n/a	PROB	3588362	n/a	LTP339	ltpFR2	5	n/a	n/a	n/a	12	15	1	8	6
1754.9560546875	n/a	PROB	3594150	n/a	LTP339	ltpFR2	5	n/a	n/a	n/a	12	25	8	9	8
1760.462890625	n/a	STOP	3605428	n/a	LTP339	ltpFR2	5	n/a	n/a	n/a	12	n/a	n/a	n/a	n/a
1762.2294921875	n/a	REC_START	3609046	n/a	LTP339	ltpFR2	5	8	n/a	n/a	n/a	n/a	0	0	0
1763.02880859375	n/a	REC_WORD	3610683	wordpools/wasnorm_wordpool_576.txt	LTP339	ltpFR2	5	8	BALLOON	75	n/a	n/a	0	0	0
1764.28369140625	n/a	REC_WORD	3613253	wordpools/wasnorm_wordpool_576.txt	LTP339	ltpFR2	5	8	PISTOL	1075	n/a	n/a	0	0	0
1838.75732421875	n/a	REST_REWET	3765775	n/a	LTP339	ltpFR2	5	8	n/a	n/a	n/a	n/a	0	0	0
1948.2763671875	n/a	WORD	3990070	wordpools/wasnorm_wordpool_576.txt	LTP339	ltpFR2	5	9	IDOL	733	n/a	n/a	0	0	0
1950.7001953125	n/a	WORD	3995034	wordpools/wasnorm_wordpool_576.txt	LTP339	ltpFR2	5	9	BACKBONE	66	n/a	n/a	0	0	0
1953.5087890625	n/a	WORD	4000786	wordpools/wasnorm_wordpool_576.txt	LTP339	ltpFR2	5	9	AIRPLANE	12	n/a	n/a	0	0	0
1956.2177734375	n/a	WORD	4006334	wordpools/wasnorm_wordpool_576.txt	LTP339	ltpFR2	5	9	SCISSORS	1250	n/a	n/a	0	0	0
1958.94384765625	n/a	WORD	4011917	wordpools/wasnorm_wordpool_576.txt	LTP339	ltpFR2	5	9	COWBOY	395	n/a	n/a	0	0	0
1961.36767578125	n/a	WORD	4016881	wordpools/wasnorm_wordpool_576.txt	LTP339	ltpFR2	5	9	PIMPLE	1071	n/a	n/a	0	0	0
1963.8935546875	n/a	WORD	4022054	wordpools/wasnorm_wordpool_576.txt	LTP339	ltpFR2	5	9	KNAPSACK	783	n/a	n/a	0	0	0
1966.56787109375	n/a	WORD	4027531	wordpools/wasnorm_wordpool_576.txt	LTP339	ltpFR2	5	9	FILM	565	n/a	n/a	0	0	0
1969.025390625	n/a	WORD	4032564	wordpools/wasnorm_wordpool_576.txt	LTP339	ltpFR2	5	9	ACTRESS	6	n/a	n/a	0	0	0
1971.75146484375	n/a	WORD	4038147	wordpools/wasnorm_wordpool_576.txt	LTP339	ltpFR2	5	9	NAPKIN	937	n/a	n/a	0	0	0
1974.45947265625	n/a	WORD	4043693	wordpools/wasnorm_wordpool_576.txt	LTP339	ltpFR2	5	9	BUBBLE	183	n/a	n/a	0	0	0
1977.1015625	n/a	WORD	4049104	wordpools/wasnorm_wordpool_576.txt	LTP339	ltpFR2	5	9	LAGOON	795	n/a	n/a	0	0	0
1979.7783203125	n/a	WORD	4054586	wordpools/wasnorm_wordpool_576.txt	LTP339	ltpFR2	5	9	BULLET	194	n/a	n/a	0	0	0
1982.28515625	n/a	WORD	4059720	wordpools/wasnorm_wordpool_576.txt	LTP339	ltpFR2	5	9	ROOSTER	1209	n/a	n/a	0	0	0
1984.9443359375	n/a	WORD	4065166	wordpools/wasnorm_wordpool_576.txt	LTP339	ltpFR2	5	9	SOFTBALL	1343	n/a	n/a	0	0	0
1987.46826171875	n/a	WORD	4070335	wordpools/wasnorm_wordpool_576.txt	LTP339	ltpFR2	5	9	TILE	1468	n/a	n/a	0	0	0
1990.009765625	n/a	WORD	4075540	wordpools/wasnorm_wordpool_576.txt	LTP339	ltpFR2	5	9	RUG	1215	n/a	n/a	0	0	0
1992.73486328125	n/a	WORD	4081121	wordpools/wasnorm_wordpool_576.txt	LTP339	ltpFR2	5	9	TREAT	1501	n/a	n/a	0	0	0
1995.52783203125	n/a	WORD	4086841	wordpools/wasnorm_wordpool_576.txt	LTP339	ltpFR2	5	9	SODA	1341	n/a	n/a	0	0	0
1998.052734375	n/a	WORD	4092012	wordpools/wasnorm_wordpool_576.txt	LTP339	ltpFR2	5	9	WHISKERS	1605	n/a	n/a	0	0	0
2000.5107421875	n/a	WORD	4097046	wordpools/wasnorm_wordpool_576.txt	LTP339	ltpFR2	5	9	RIFLE	1192	n/a	n/a	0	0	0
2003.16845703125	n/a	WORD	4102489	wordpools/wasnorm_wordpool_576.txt	LTP339	ltpFR2	5	9	OZONE	996	n/a	n/a	0	0	0
2005.7265625	n/a	WORD	4107728	wordpools/wasnorm_wordpool_576.txt	LTP339	ltpFR2	5	9	GRILL	661	n/a	n/a	0	0	0
2008.33544921875	n/a	WORD	4113071	wordpools/wasnorm_wordpool_576.txt	LTP339	ltpFR2	5	9	ROBOT	1200	n/a	n/a	0	0	0
2009.9404296875	n/a	START	4116358	n/a	LTP339	ltpFR2	5	n/a	n/a	n/a	13	n/a	n/a	n/a	n/a
2010.87939453125	n/a	DISTRACTOR	4118281	n/a	LTP339	ltpFR2	5	9	n/a	n/a	n/a	n/a	0	0	0
2010.89453125	n/a	PROB	4118312	n/a	LTP339	ltpFR2	5	n/a	n/a	n/a	13	10	3	6	1
2013.25146484375	n/a	PROB	4123139	n/a	LTP339	ltpFR2	5	n/a	n/a	n/a	13	15	7	3	5
2014.67236328125	n/a	PROB	4126049	n/a	LTP339	ltpFR2	5	n/a	n/a	n/a	13	12	4	5	3
2017.13037109375	n/a	PROB	4131083	n/a	LTP339	ltpFR2	5	n/a	n/a	n/a	13	15	5	5	5
2018.5009765625	n/a	PROB	4133890	n/a	LTP339	ltpFR2	5	n/a	n/a	n/a	13	9	6	2	1
2020.3740234375	n/a	PROB	4137726	n/a	LTP339	ltpFR2	5	n/a	n/a	n/a	13	13	2	9	2
2024.73779296875	n/a	PROB	4146663	n/a	LTP339	ltpFR2	5	n/a	n/a	n/a	13	18	5	7	6
2028.599609375	n/a	PROB	4154572	n/a	LTP339	ltpFR2	5	n/a	n/a	n/a	13	13	1	3	9
2033.939453125	n/a	STOP	4165508	n/a	LTP339	ltpFR2	5	n/a	n/a	n/a	13	n/a	n/a	n/a	n/a
2035.841796875	n/a	REC_START	4169404	n/a	LTP339	ltpFR2	5	9	n/a	n/a	n/a	n/a	0	0	0
2036.66748046875	n/a	REC_WORD	4171095	wordpools/wasnorm_wordpool_576.txt	LTP339	ltpFR2	5	9	IDOL	733	n/a	n/a	0	0	0
2037.37060546875	n/a	REC_WORD	4172535	wordpools/wasnorm_wordpool_576.txt	LTP339	ltpFR2	5	9	FILM	565	n/a	n/a	0	0	0
2038.80029296875	n/a	REC_WORD	4175463	wordpools/wasnorm_wordpool_576.txt	LTP339	ltpFR2	5	9	BUBBLE	183	n/a	n/a	0	0	0
2039.99755859375	n/a	REC_WORD	4177915	wordpools/wasnorm_wordpool_576.txt	LTP339	ltpFR2	5	9	BULLET	194	n/a	n/a	0	0	0
2041.0234375	n/a	REC_WORD	4180016	wordpools/wasnorm_wordpool_576.txt	LTP339	ltpFR2	5	9	ROOSTER	1209	n/a	n/a	0	0	0
2042.28564453125	n/a	REC_WORD	4182601	wordpools/wasnorm_wordpool_576.txt	LTP339	ltpFR2	5	9	SCISSORS	1250	n/a	n/a	0	0	0
2044.17822265625	n/a	REC_WORD	4186477	wordpools/wasnorm_wordpool_576.txt	LTP339	ltpFR2	5	9	WHISKERS	1605	n/a	n/a	0	0	0
2126.27978515625	n/a	DISTRACTOR	4354621	n/a	LTP339	ltpFR2	5	10	n/a	n/a	n/a	n/a	0	0	0
2126.28076171875	n/a	START	4354623	n/a	LTP339	ltpFR2	5	n/a	n/a	n/a	14	n/a	n/a	n/a	n/a
2126.296875	n/a	PROB	4354656	n/a	LTP339	ltpFR2	5	n/a	n/a	n/a	14	16	1	8	5
2129.640625	n/a	PROB	4361504	n/a	LTP339	ltpFR2	5	n/a	n/a	n/a	14	16	7	5	4
2134.2724609375	n/a	PROB	4370990	n/a	LTP339	ltpFR2	5	n/a	n/a	n/a	14	17	7	2	8
2136.91455078125	n/a	PROB	4376401	n/a	LTP339	ltpFR2	5	n/a	n/a	n/a	14	11	2	1	8
2138.98779296875	n/a	PROB	4380647	n/a	LTP339	ltpFR2	5	n/a	n/a	n/a	14	6	2	2	2
2140.59228515625	n/a	PROB	4383933	n/a	LTP339	ltpFR2	5	n/a	n/a	n/a	14	13	9	1	3
2142.1982421875	n/a	PROB	4387222	n/a	LTP339	ltpFR2	5	n/a	n/a	n/a	14	17	9	4	4
2150.2802734375	n/a	STOP	4403774	n/a	LTP339	ltpFR2	5	n/a	n/a	n/a	14	n/a	n/a	n/a	n/a
2151.42724609375	n/a	WORD	4406123	wordpools/wasnorm_wordpool_576.txt	LTP339	ltpFR2	5	10	MEAT	883	n/a	n/a	0	0	0
2154.05322265625	n/a	WORD	4411501	wordpools/wasnorm_wordpool_576.txt	LTP339	ltpFR2	5	10	OX	994	n/a	n/a	0	0	0
2156.47705078125	n/a	WORD	4416465	wordpools/wasnorm_wordpool_576.txt	LTP339	ltpFR2	5	10	OMELET	976	n/a	n/a	0	0	0
2159.1357421875	n/a	WORD	4421910	wordpools/wasnorm_wordpool_576.txt	LTP339	ltpFR2	5	10	POLICE	1098	n/a	n/a	0	0	0
2161.81201171875	n/a	WORD	4427391	wordpools/wasnorm_wordpool_576.txt	LTP339	ltpFR2	5	10	VENUS	1557	n/a	n/a	0	0	0
2164.43603515625	n/a	WORD	4432765	wordpools/wasnorm_wordpool_576.txt	LTP339	ltpFR2	5	10	YOLK	1633	n/a	n/a	0	0	0
2167.07763671875	n/a	WORD	4438175	wordpools/wasnorm_wordpool_576.txt	LTP339	ltpFR2	5	10	IGLOO	734	n/a	n/a	0	0	0
2169.63671875	n/a	WORD	4443416	wordpools/wasnorm_wordpool_576.txt	LTP339	ltpFR2	5	10	BLOUSE	139	n/a	n/a	0	0	0
2172.44580078125	n/a	WORD	4449169	wordpools/wasnorm_wordpool_576.txt	LTP339	ltpFR2	5	10	SKILLET	1317	n/a	n/a	0	0	0
2174.9697265625	n/a	WORD	4454338	wordpools/wasnorm_wordpool_576.txt	LTP339	ltpFR2	5	10	ONION	977	n/a	n/a	0	0	0
2177.49462890625	n/a	WORD	4459509	wordpools/wasnorm_wordpool_576.txt	LTP339	ltpFR2	5	10	DENIM	446	n/a	n/a	0	0	0
2180.1865234375	n/a	WORD	4465022	wordpools/wasnorm_wordpool_576.txt	LTP339	ltpFR2	5	10	ZIPPER	1636	n/a	n/a	0	0	0
2182.9794921875	n/a	WORD	4470742	wordpools/wasnorm_wordpool_576.txt	LTP339	ltpFR2	5	10	RUST	1219	n/a	n/a	0	0	0
2185.654296875	n/a	WORD	4476220	wordpools/wasnorm_wordpool_576.txt	LTP339	ltpFR2	5	10	TOASTER	1472	n/a	n/a	0	0	0
2188.34619140625	n/a	WORD	4481733	wordpools/wasnorm_wordpool_576.txt	LTP339	ltpFR2	5	10	WAITRESS	1581	n/a	n/a	0	0	0
2190.9208984375	n/a	WORD	4487006	wordpools/wasnorm_wordpool_576.txt	LTP339	ltpFR2	5	10	BOARD	143	n/a	n/a	0	0	0
2193.39599609375	n/a	WORD	4492075	wordpools/wasnorm_wordpool_576.txt	LTP339	ltpFR2	5	10	MESSAGE	888	n/a	n/a	0	0	0
2195.9208984375	n/a	WORD	4497246	wordpools/wasnorm_wordpool_576.txt	LTP339	ltpFR2	5	10	FREEZER	604	n/a	n/a	0	0	0
2198.5458984375	n/a	WORD	4502622	wordpools/wasnorm_wordpool_576.txt	LTP339	ltpFR2	5	10	VICTIM	1562	n/a	n/a	0	0	0
2201.0537109375	n/a	WORD	4507758	wordpools/wasnorm_wordpool_576.txt	LTP339	ltpFR2	5	10	SPOON	1357	n/a	n/a	0	0	0
2203.5947265625	n/a	WORD	4512962	wordpools/wasnorm_wordpool_576.txt	LTP339	ltpFR2	5	10	FRANCE	601	n/a	n/a	0	0	0
2206.16943359375	n/a	WORD	4518235	wordpools/wasnorm_wordpool_576.txt	LTP339	ltpFR2	5	10	PLASTER	1085	n/a	n/a	0	0	0
2208.5947265625	n/a	WORD	4523202	wordpools/wasnorm_wordpool_576.txt	LTP339	ltpFR2	5	10	STATUE	1374	n/a	n/a	0	0	0
2211.16943359375	n/a	WORD	4528475	wordpools/wasnorm_wordpool_576.txt	LTP339	ltpFR2	5	10	GUARD	667	n/a	n/a	0	0	0
2212.775390625	n/a	START	4531764	n/a	LTP339	ltpFR2	5	n/a	n/a	n/a	15	n/a	n/a	n/a	n/a
2213.93115234375	n/a	DISTRACTOR	4534131	n/a	LTP339	ltpFR2	5	10	n/a	n/a	n/a	n/a	0	0	0
2213.9453125	n/a	PROB	4534160	n/a	LTP339	ltpFR2	5	n/a	n/a	n/a	15	23	9	8	4
2219.37939453125	n/a	PROB	4545289	n/a	LTP339	ltpFR2	5	n/a	n/a	n/a	15	19	8	3	8
2222.18798828125	n/a	PROB	4551041	n/a	LTP339	ltpFR2	5	n/a	n/a	n/a	15	17	4	4	9
2225.02978515625	n/a	PROB	4556861	n/a	LTP339	ltpFR2	5	n/a	n/a	n/a	15	2	5	8	7
2236.77490234375	n/a	STOP	4580915	n/a	LTP339	ltpFR2	5	n/a	n/a	n/a	15	n/a	n/a	n/a	n/a
2238.70849609375	n/a	REC_START	4584875	n/a	LTP339	ltpFR2	5	10	n/a	n/a	n/a	n/a	0	0	0
2239.73876953125	n/a	REC_WORD	4586985	wordpools/wasnorm_wordpool_576.txt	LTP339	ltpFR2	5	10	DENIM	446	n/a	n/a	0	0	0
2240.5634765625	n/a	REC_WORD	4588674	wordpools/wasnorm_wordpool_576.txt	LTP339	ltpFR2	5	10	ZIPPER	1636	n/a	n/a	0	0	0
2241.79638671875	n/a	REC_WORD	4591199	wordpools/wasnorm_wordpool_576.txt	LTP339	ltpFR2	5	10	RUST	1219	n/a	n/a	0	0	0
2242.96142578125	n/a	REC_WORD	4593585	wordpools/wasnorm_wordpool_576.txt	LTP339	ltpFR2	5	10	TOASTER	1472	n/a	n/a	0	0	0
2329.14794921875	n/a	DISTRACTOR	4770095	n/a	LTP339	ltpFR2	5	11	n/a	n/a	n/a	n/a	0	0	0
2329.14794921875	n/a	START	4770095	n/a	LTP339	ltpFR2	5	n/a	n/a	n/a	16	n/a	n/a	n/a	n/a
2329.1650390625	n/a	PROB	4770130	n/a	LTP339	ltpFR2	5	n/a	n/a	n/a	16	9	6	2	1
2331.32177734375	n/a	PROB	4774547	n/a	LTP339	ltpFR2	5	n/a	n/a	n/a	16	19	3	7	9
2332.8779296875	n/a	PROB	4777734	n/a	LTP339	ltpFR2	5	n/a	n/a	n/a	16	19	9	2	8
2335.20068359375	n/a	PROB	4782491	n/a	LTP339	ltpFR2	5	n/a	n/a	n/a	16	18	9	2	7
2339.46484375	n/a	PROB	4791224	n/a	LTP339	ltpFR2	5	n/a	n/a	n/a	16	13	9	2	2
2343.46044921875	n/a	PROB	4799407	n/a	LTP339	ltpFR2	5	n/a	n/a	n/a	16	14	1	9	4
2345.38330078125	n/a	PROB	4803345	n/a	LTP339	ltpFR2	5	n/a	n/a	n/a	16	18	6	9	3
2353.1474609375	n/a	STOP	4819246	n/a	LTP339	ltpFR2	5	n/a	n/a	n/a	16	n/a	n/a	n/a	n/a
2354.078125	n/a	WORD	4821152	wordpools/wasnorm_wordpool_576.txt	LTP339	ltpFR2	5	11	COLLEGE	346	n/a	n/a	0	0	0
2356.83837890625	n/a	WORD	4826805	wordpools/wasnorm_wordpool_576.txt	LTP339	ltpFR2	5	11	GAVEL	627	n/a	n/a	0	0	0
2359.47900390625	n/a	WORD	4832213	wordpools/wasnorm_wordpool_576.txt	LTP339	ltpFR2	5	11	FOX	598	n/a	n/a	0	0	0
2362.02001953125	n/a	WORD	4837417	wordpools/wasnorm_wordpool_576.txt	LTP339	ltpFR2	5	11	JOURNAL	760	n/a	n/a	0	0	0
2364.7626953125	n/a	WORD	4843034	wordpools/wasnorm_wordpool_576.txt	LTP339	ltpFR2	5	11	TABLET	1427	n/a	n/a	0	0	0
2367.27001953125	n/a	WORD	4848169	wordpools/wasnorm_wordpool_576.txt	LTP339	ltpFR2	5	11	SPHINX	1349	n/a	n/a	0	0	0
2369.91162109375	n/a	WORD	4853579	wordpools/wasnorm_wordpool_576.txt	LTP339	ltpFR2	5	11	BEAST	108	n/a	n/a	0	0	0
2372.587890625	n/a	WORD	4859060	wordpools/wasnorm_wordpool_576.txt	LTP339	ltpFR2	5	11	SALT	1229	n/a	n/a	0	0	0
2375.19580078125	n/a	WORD	4864401	wordpools/wasnorm_wordpool_576.txt	LTP339	ltpFR2	5	11	WITNESS	1618	n/a	n/a	0	0	0
2377.9716796875	n/a	WORD	4870086	wordpools/wasnorm_wordpool_576.txt	LTP339	ltpFR2	5	11	HEADBAND	696	n/a	n/a	0	0	0
2380.74658203125	n/a	WORD	4875769	wordpools/wasnorm_wordpool_576.txt	LTP339	ltpFR2	5	11	SNAKE	1333	n/a	n/a	0	0	0
2383.23828125	n/a	WORD	4880872	wordpools/wasnorm_wordpool_576.txt	LTP339	ltpFR2	5	11	PLAYGROUND	1087	n/a	n/a	0	0	0
2385.947265625	n/a	WORD	4886420	wordpools/wasnorm_wordpool_576.txt	LTP339	ltpFR2	5	11	RECORD	1176	n/a	n/a	0	0	0
2388.42138671875	n/a	WORD	4891487	wordpools/wasnorm_wordpool_576.txt	LTP339	ltpFR2	5	11	FLIPPER	580	n/a	n/a	0	0	0
2391.1630859375	n/a	WORD	4897102	wordpools/wasnorm_wordpool_576.txt	LTP339	ltpFR2	5	11	JURY	766	n/a	n/a	0	0	0
2393.97314453125	n/a	WORD	4902857	wordpools/wasnorm_wordpool_576.txt	LTP339	ltpFR2	5	11	SUITCASE	1403	n/a	n/a	0	0	0
2396.783203125	n/a	WORD	4908612	wordpools/wasnorm_wordpool_576.txt	LTP339	ltpFR2	5	11	BRIEFCASE	175	n/a	n/a	0	0	0
2399.22265625	n/a	WORD	4913608	wordpools/wasnorm_wordpool_576.txt	LTP339	ltpFR2	5	11	TRACTOR	1493	n/a	n/a	0	0	0
2401.8818359375	n/a	WORD	4919054	wordpools/wasnorm_wordpool_576.txt	LTP339	ltpFR2	5	11	OUTFIT	988	n/a	n/a	0	0	0
2404.37255859375	n/a	WORD	4924155	wordpools/wasnorm_wordpool_576.txt	LTP339	ltpFR2	5	11	WARDROBE	1587	n/a	n/a	0	0	0
2407.11474609375	n/a	WORD	4929771	wordpools/wasnorm_wordpool_576.txt	LTP339	ltpFR2	5	11	PICNIC	1060	n/a	n/a	0	0	0
2409.7578125	n/a	WORD	4935184	wordpools/wasnorm_wordpool_576.txt	LTP339	ltpFR2	5	11	APRON	35	n/a	n/a	0	0	0
2412.44873046875	n/a	WORD	4940695	wordpools/wasnorm_wordpool_576.txt	LTP339	ltpFR2	5	11	PRINCESS	1125	n/a	n/a	0	0	0
2415.17431640625	n/a	WORD	4946277	wordpools/wasnorm_wordpool_576.txt	LTP339	ltpFR2	5	11	DONOR	485	n/a	n/a	0	0	0
2416.7802734375	n/a	START	4949566	n/a	LTP339	ltpFR2	5	n/a	n/a	n/a	17	n/a	n/a	n/a	n/a
2417.64013671875	n/a	DISTRACTOR	4951327	n/a	LTP339	ltpFR2	5	11	n/a	n/a	n/a	n/a	0	0	0
2417.6484375	n/a	PROB	4951344	n/a	LTP339	ltpFR2	5	n/a	n/a	n/a	17	16	1	6	9
2421.611328125	n/a	PROB	4959460	n/a	LTP339	ltpFR2	5	n/a	n/a	n/a	17	16	6	5	5
2423.04931640625	n/a	PROB	4962405	n/a	LTP339	ltpFR2	5	n/a	n/a	n/a	17	10	1	6	3
2424.822265625	n/a	PROB	4966036	n/a	LTP339	ltpFR2	5	n/a	n/a	n/a	17	16	4	6	6
2428.3828125	n/a	PROB	4973328	n/a	LTP339	ltpFR2	5	n/a	n/a	n/a	17	11	3	2	7
2432.37890625	n/a	PROB	4981512	n/a	LTP339	ltpFR2	5	n/a	n/a	n/a	17	14	4	5	5
2434.53564453125	n/a	PROB	4985929	n/a	LTP339	ltpFR2	5	n/a	n/a	n/a	17	13	2	6	5
2437.86474609375	n/a	PROB	4992747	n/a	LTP339	ltpFR2	5	n/a	n/a	n/a	17	22	7	8	7
2440.138671875	n/a	STOP	4997404	n/a	LTP339	ltpFR2	5	n/a	n/a	n/a	17	n/a	n/a	n/a	n/a
2442.69677734375	n/a	REC_START	5002643	n/a	LTP339	ltpFR2	5	11	n/a	n/a	n/a	n/a	0	0	0
2443.181640625	n/a	REC_WORD	5003636	wordpools/wasnorm_wordpool_576.txt	LTP339	ltpFR2	5	11	DONOR	485	n/a	n/a	0	0	0
2443.82373046875	n/a	REC_WORD	5004951	wordpools/wasnorm_wordpool_576.txt	LTP339	ltpFR2	5	11	SPHINX	1349	n/a	n/a	0	0	0
2445.13671875	n/a	REC_WORD	5007640	wordpools/wasnorm_wordpool_576.txt	LTP339	ltpFR2	5	11	PLAYGROUND	1087	n/a	n/a	0	0	0
2446.28955078125	n/a	REC_WORD	5010001	wordpools/wasnorm_wordpool_576.txt	LTP339	ltpFR2	5	11	SPOON	1357	n/a	n/a	0	0	0
2507.33056640625	n/a	REC_WORD	5135013	wordpools/wasnorm_wordpool_576.txt	LTP339	ltpFR2	5	11	TRACTOR	1493	n/a	n/a	0	0	0
2533.1357421875	n/a	DISTRACTOR	5187862	n/a	LTP339	ltpFR2	5	12	n/a	n/a	n/a	n/a	0	0	0
2533.1357421875	n/a	START	5187862	n/a	LTP339	ltpFR2	5	n/a	n/a	n/a	18	n/a	n/a	n/a	n/a
2533.15283203125	n/a	PROB	5187897	n/a	LTP339	ltpFR2	5	n/a	n/a	n/a	18	10	3	1	6
2535.31005859375	n/a	PROB	5192315	n/a	LTP339	ltpFR2	5	n/a	n/a	n/a	18	12	1	2	9
2537.8017578125	n/a	PROB	5197418	n/a	LTP339	ltpFR2	5	n/a	n/a	n/a	18	8	4	3	1
2541.0107421875	n/a	PROB	5203990	n/a	LTP339	ltpFR2	5	n/a	n/a	n/a	18	21	8	8	5
2543.70263671875	n/a	PROB	5209503	n/a	LTP339	ltpFR2	5	n/a	n/a	n/a	18	18	7	7	4
2546.51171875	n/a	PROB	5215256	n/a	LTP339	ltpFR2	5	n/a	n/a	n/a	18	16	3	4	9
2550.140625	n/a	PROB	5222688	n/a	LTP339	ltpFR2	5	n/a	n/a	n/a	18	15	2	8	5
2554.25341796875	n/a	PROB	5231111	n/a	LTP339	ltpFR2	5	n/a	n/a	n/a	18	9	3	2	4
2556.45947265625	n/a	STOP	5235629	n/a	LTP339	ltpFR2	5	n/a	n/a	n/a	18	n/a	n/a	n/a	n/a
2558.13232421875	n/a	WORD	5239055	wordpools/wasnorm_wordpool_576.txt	LTP339	ltpFR2	5	12	ORCHID	982	n/a	n/a	0	0	0
2560.75927734375	n/a	WORD	5244435	wordpools/wasnorm_wordpool_576.txt	LTP339	ltpFR2	5	12	WASHER	1592	n/a	n/a	0	0	0
2563.19921875	n/a	WORD	5249432	wordpools/wasnorm_wordpool_576.txt	LTP339	ltpFR2	5	12	ANTLER	29	n/a	n/a	0	0	0
2565.8251953125	n/a	WORD	5254810	wordpools/wasnorm_wordpool_576.txt	LTP339	ltpFR2	5	12	FRECKLE	602	n/a	n/a	0	0	0
2568.298828125	n/a	WORD	5259876	wordpools/wasnorm_wordpool_576.txt	LTP339	ltpFR2	5	12	POWDER	1117	n/a	n/a	0	0	0
2570.70703125	n/a	WORD	5264808	wordpools/wasnorm_wordpool_576.txt	LTP339	ltpFR2	5	12	FRAME	600	n/a	n/a	0	0	0
2573.24755859375	n/a	WORD	5270011	wordpools/wasnorm_wordpool_576.txt	LTP339	ltpFR2	5	12	DRESSER	496	n/a	n/a	0	0	0
2576.0234375	n/a	WORD	5275696	wordpools/wasnorm_wordpool_576.txt	LTP339	ltpFR2	5	12	TART	1436	n/a	n/a	0	0	0
2578.46484375	n/a	WORD	5280696	wordpools/wasnorm_wordpool_576.txt	LTP339	ltpFR2	5	12	THRONE	1461	n/a	n/a	0	0	0
2581.056640625	n/a	WORD	5286004	wordpools/wasnorm_wordpool_576.txt	LTP339	ltpFR2	5	12	MILK	895	n/a	n/a	0	0	0
2583.54736328125	n/a	WORD	5291105	wordpools/wasnorm_wordpool_576.txt	LTP339	ltpFR2	5	12	GARBAGE	622	n/a	n/a	0	0	0
2586.3564453125	n/a	WORD	5296858	wordpools/wasnorm_wordpool_576.txt	LTP339	ltpFR2	5	12	SMOG	1330	n/a	n/a	0	0	0
2588.99853515625	n/a	WORD	5302269	wordpools/wasnorm_wordpool_576.txt	LTP339	ltpFR2	5	12	LADY	794	n/a	n/a	0	0	0
2591.740234375	n/a	WORD	5307884	wordpools/wasnorm_wordpool_576.txt	LTP339	ltpFR2	5	12	WOMAN	1620	n/a	n/a	0	0	0
2594.34912109375	n/a	WORD	5313227	wordpools/wasnorm_wordpool_576.txt	LTP339	ltpFR2	5	12	CHEMIST	292	n/a	n/a	0	0	0
2596.875	n/a	WORD	5318400	wordpools/wasnorm_wordpool_576.txt	LTP339	ltpFR2	5	12	DOUGHNUT	490	n/a	n/a	0	0	0
2599.51513671875	n/a	WORD	5323807	wordpools/wasnorm_wordpool_576.txt	LTP339	ltpFR2	5	12	LIGHTNING	820	n/a	n/a	0	0	0
2602.173828125	n/a	WORD	5329252	wordpools/wasnorm_wordpool_576.txt	LTP339	ltpFR2	5	12	KEEPER	769	n/a	n/a	0	0	0
2604.86669921875	n/a	WORD	5334767	wordpools/wasnorm_wordpool_576.txt	LTP339	ltpFR2	5	12	MOTOR	922	n/a	n/a	0	0	0
2607.49072265625	n/a	WORD	5340141	wordpools/wasnorm_wordpool_576.txt	LTP339	ltpFR2	5	12	MISSILE	900	n/a	n/a	0	0	0
2610.2666015625	n/a	WORD	5345826	wordpools/wasnorm_wordpool_576.txt	LTP339	ltpFR2	5	12	FIREMAN	569	n/a	n/a	0	0	0
2612.87548828125	n/a	WORD	5351169	wordpools/wasnorm_wordpool_576.txt	LTP339	ltpFR2	5	12	STOMACH	1384	n/a	n/a	0	0	0
2615.43359375	n/a	WORD	5356408	wordpools/wasnorm_wordpool_576.txt	LTP339	ltpFR2	5	12	PICTURE	1061	n/a	n/a	0	0	0
2617.9072265625	n/a	WORD	5361474	wordpools/wasnorm_wordpool_576.txt	LTP339	ltpFR2	5	12	HONEY	713	n/a	n/a	0	0	0
2619.51318359375	n/a	START	5364763	n/a	LTP339	ltpFR2	5	n/a	n/a	n/a	19	n/a	n/a	n/a	n/a
2620.55126953125	n/a	DISTRACTOR	5366889	n/a	LTP339	ltpFR2	5	12	n/a	n/a	n/a	n/a	0	0	0
2620.56640625	n/a	PROB	5366920	n/a	LTP339	ltpFR2	5	n/a	n/a	n/a	19	16	9	3	4
2622.67333984375	n/a	PROB	5371235	n/a	LTP339	ltpFR2	5	n/a	n/a	n/a	19	20	3	9	8
2626.38525390625	n/a	PROB	5378837	n/a	LTP339	ltpFR2	5	n/a	n/a	n/a	19	10	3	4	3
2628.625	n/a	PROB	5383424	n/a	LTP339	ltpFR2	5	n/a	n/a	n/a	19	17	7	6	4
2630.58203125	n/a	PROB	5387432	n/a	LTP339	ltpFR2	5	n/a	n/a	n/a	19	12	3	3	6
2632.77294921875	n/a	PROB	5391919	n/a	LTP339	ltpFR2	5	n/a	n/a	n/a	19	14	8	3	3
2635.6650390625	n/a	PROB	5397842	n/a	LTP339	ltpFR2	5	n/a	n/a	n/a	19	17	5	9	3
2643.51171875	n/a	STOP	5413912	n/a	LTP339	ltpFR2	5	n/a	n/a	n/a	19	n/a	n/a	n/a	n/a
2645.44677734375	n/a	REC_START	5417875	n/a	LTP339	ltpFR2	5	12	n/a	n/a	n/a	n/a	0	0	0
2646.1796875	n/a	REC_WORD	5419376	wordpools/wasnorm_wordpool_576.txt	LTP339	ltpFR2	5	12	LADY	794	n/a	n/a	0	0	0
2647.15966796875	n/a	REC_WORD	5421383	wordpools/wasnorm_wordpool_576.txt	LTP339	ltpFR2	5	12	WOMAN	1620	n/a	n/a	0	0	0
2648.9384765625	n/a	REC_WORD	5425026	wordpools/wasnorm_wordpool_576.txt	LTP339	ltpFR2	5	12	CHEMIST	292	n/a	n/a	0	0	0
2649.935546875	n/a	REC_WORD	5427068	wordpools/wasnorm_wordpool_576.txt	LTP339	ltpFR2	5	12	DOUGHNUT	490	n/a	n/a	0	0	0
2650.91650390625	n/a	REC_WORD	5429077	wordpools/wasnorm_wordpool_576.txt	LTP339	ltpFR2	5	12	LIGHTNING	820	n/a	n/a	0	0	0
2662.23828125	n/a	REC_WORD	5452264	wordpools/wasnorm_wordpool_576.txt	LTP339	ltpFR2	5	12	FIREMAN	569	n/a	n/a	0	0	0
2664.72119140625	n/a	REC_WORD	5457349	wordpools/wasnorm_wordpool_576.txt	LTP339	ltpFR2	5	12	PICTURE	1061	n/a	n/a	0	0	0
2666.14599609375	n/a	REC_WORD	5460267	wordpools/wasnorm_wordpool_576.txt	LTP339	ltpFR2	5	12	FRAME	600	n/a	n/a	0	0	0
2711.02587890625	n/a	REC_WORD	5552181	wordpools/wasnorm_wordpool_576.txt	LTP339	ltpFR2	5	12	MISSILE	900	n/a	n/a	0	0	0
2735.90283203125	n/a	WORD	5603129	wordpools/wasnorm_wordpool_576.txt	LTP339	ltpFR2	5	13	MOP	916	n/a	n/a	0	0	0
2738.4609375	n/a	WORD	5608368	wordpools/wasnorm_wordpool_576.txt	LTP339	ltpFR2	5	13	SHIRT	1287	n/a	n/a	0	0	0
2741.15283203125	n/a	WORD	5613881	wordpools/wasnorm_wordpool_576.txt	LTP339	ltpFR2	5	13	SWAMP	1416	n/a	n/a	0	0	0
2743.5947265625	n/a	WORD	5618882	wordpools/wasnorm_wordpool_576.txt	LTP339	ltpFR2	5	13	CHILD	299	n/a	n/a	0	0	0
2746.1025390625	n/a	WORD	5624018	wordpools/wasnorm_wordpool_576.txt	LTP339	ltpFR2	5	13	TROMBONE	1508	n/a	n/a	0	0	0
2748.71044921875	n/a	WORD	5629359	wordpools/wasnorm_wordpool_576.txt	LTP339	ltpFR2	5	13	BURGLAR	200	n/a	n/a	0	0	0
2751.25244140625	n/a	WORD	5634565	wordpools/wasnorm_wordpool_576.txt	LTP339	ltpFR2	5	13	GRAVEL	659	n/a	n/a	0	0	0
2753.74365234375	n/a	WORD	5639667	wordpools/wasnorm_wordpool_576.txt	LTP339	ltpFR2	5	13	WAITER	1580	n/a	n/a	0	0	0
2756.46923828125	n/a	WORD	5645249	wordpools/wasnorm_wordpool_576.txt	LTP339	ltpFR2	5	13	SNACK	1331	n/a	n/a	0	0	0
2758.92724609375	n/a	WORD	5650283	wordpools/wasnorm_wordpool_576.txt	LTP339	ltpFR2	5	13	BOX	159	n/a	n/a	0	0	0
2761.4013671875	n/a	WORD	5655350	wordpools/wasnorm_wordpool_576.txt	LTP339	ltpFR2	5	13	CHAUFFEUR	283	n/a	n/a	0	0	0
2763.84326171875	n/a	WORD	5660351	wordpools/wasnorm_wordpool_576.txt	LTP339	ltpFR2	5	13	PANTHER	1009	n/a	n/a	0	0	0
2766.35107421875	n/a	WORD	5665487	wordpools/wasnorm_wordpool_576.txt	LTP339	ltpFR2	5	13	LEOPARD	812	n/a	n/a	0	0	0
2769.1259765625	n/a	WORD	5671170	wordpools/wasnorm_wordpool_576.txt	LTP339	ltpFR2	5	13	ROBIN	1199	n/a	n/a	0	0	0
2771.802734375	n/a	WORD	5676652	wordpools/wasnorm_wordpool_576.txt	LTP339	ltpFR2	5	13	PAIL	1002	n/a	n/a	0	0	0
2774.57666015625	n/a	WORD	5682333	wordpools/wasnorm_wordpool_576.txt	LTP339	ltpFR2	5	13	COUNTRY	388	n/a	n/a	0	0	0
2777.2685546875	n/a	WORD	5687846	wordpools/wasnorm_wordpool_576.txt	LTP339	ltpFR2	5	13	SADDLE	1221	n/a	n/a	0	0	0
2779.87890625	n/a	WORD	5693192	wordpools/wasnorm_wordpool_576.txt	LTP339	ltpFR2	5	13	THIEF	1456	n/a	n/a	0	0	0
2782.552734375	n/a	WORD	5698668	wordpools/wasnorm_wordpool_576.txt	LTP339	ltpFR2	5	13	CONVICT	371	n/a	n/a	0	0	0
2785.2783203125	n/a	WORD	5704250	wordpools/wasnorm_wordpool_576.txt	LTP339	ltpFR2	5	13	PORK	1108	n/a	n/a	0	0	0
2787.9365234375	n/a	WORD	5709694	wordpools/wasnorm_wordpool_576.txt	LTP339	ltpFR2	5	13	MOTEL	919	n/a	n/a	0	0	0
2790.62841796875	n/a	WORD	5715207	wordpools/wasnorm_wordpool_576.txt	LTP339	ltpFR2	5	13	PLIERS	1089	n/a	n/a	0	0	0
2793.2373046875	n/a	WORD	5720550	wordpools/wasnorm_wordpool_576.txt	LTP339	ltpFR2	5	13	CARRIAGE	248	n/a	n/a	0	0	0
2795.86328125	n/a	WORD	5725928	wordpools/wasnorm_wordpool_576.txt	LTP339	ltpFR2	5	13	WINDOW	1611	n/a	n/a	0	0	0
2797.46728515625	n/a	START	5729213	n/a	LTP339	ltpFR2	5	n/a	n/a	n/a	20	n/a	n/a	n/a	n/a
2798.3662109375	n/a	DISTRACTOR	5731054	n/a	LTP339	ltpFR2	5	13	n/a	n/a	n/a	n/a	0	0	0
2798.3701171875	n/a	PROB	5731062	n/a	LTP339	ltpFR2	5	n/a	n/a	n/a	20	20	9	2	9
2800.376953125	n/a	PROB	5735172	n/a	LTP339	ltpFR2	5	n/a	n/a	n/a	20	17	7	7	3
2802.583984375	n/a	PROB	5739692	n/a	LTP339	ltpFR2	5	n/a	n/a	n/a	20	15	3	3	9
2805.24169921875	n/a	PROB	5745135	n/a	LTP339	ltpFR2	5	n/a	n/a	n/a	20	17	5	5	7
2806.7138671875	n/a	PROB	5748150	n/a	LTP339	ltpFR2	5	n/a	n/a	n/a	20	20	4	7	9
2812.80078125	n/a	PROB	5760616	n/a	LTP339	ltpFR2	5	n/a	n/a	n/a	20	16	5	4	7
2815.357421875	n/a	PROB	5765852	n/a	LTP339	ltpFR2	5	n/a	n/a	n/a	20	10	2	1	7
2821.46630859375	n/a	STOP	5778363	n/a	LTP339	ltpFR2	5	n/a	n/a	n/a	20	n/a	n/a	n/a	n/a
2823.3671875	n/a	REC_START	5782256	n/a	LTP339	ltpFR2	5	13	n/a	n/a	n/a	n/a	0	0	0
2823.8974609375	n/a	REC_WORD	5783342	wordpools/wasnorm_wordpool_576.txt	LTP339	ltpFR2	5	13	MOP	916	n/a	n/a	0	0	0
2824.66455078125	n/a	REC_WORD	5784913	wordpools/wasnorm_wordpool_576.txt	LTP339	ltpFR2	5	13	SHIRT	1287	n/a	n/a	0	0	0
2825.5185546875	n/a	REC_WORD	5786662	wordpools/wasnorm_wordpool_576.txt	LTP339	ltpFR2	5	13	SWAMP	1416	n/a	n/a	0	0	0
2826.58740234375	n/a	REC_WORD	5788851	wordpools/wasnorm_wordpool_576.txt	LTP339	ltpFR2	5	13	TROMBONE	1508	n/a	n/a	0	0	0
2828.96923828125	n/a	REC_WORD	5793729	wordpools/wasnorm_wordpool_576.txt	LTP339	ltpFR2	5	13	CHILD	299	n/a	n/a	0	0	0
2841.94091796875	n/a	REC_WORD	5820295	wordpools/wasnorm_wordpool_576.txt	LTP339	ltpFR2	5	13	ORCHID	982	n/a	n/a	0	0	0
2913.82470703125	n/a	WORD	5967513	wordpools/wasnorm_wordpool_576.txt	LTP339	ltpFR2	5	14	SPOUSE	1358	n/a	n/a	0	0	0
2916.53271484375	n/a	WORD	5973059	wordpools/wasnorm_wordpool_576.txt	LTP339	ltpFR2	5	14	HAMPER	682	n/a	n/a	0	0	0
2919.2744140625	n/a	WORD	5978674	wordpools/wasnorm_wordpool_576.txt	LTP339	ltpFR2	5	14	LILY	821	n/a	n/a	0	0	0
2921.80029296875	n/a	WORD	5983847	wordpools/wasnorm_wordpool_576.txt	LTP339	ltpFR2	5	14	OYSTER	995	n/a	n/a	0	0	0
2924.34130859375	n/a	WORD	5989051	wordpools/wasnorm_wordpool_576.txt	LTP339	ltpFR2	5	14	PASTA	1021	n/a	n/a	0	0	0
2926.8994140625	n/a	WORD	5994290	wordpools/wasnorm_wordpool_576.txt	LTP339	ltpFR2	5	14	CEILING	265	n/a	n/a	0	0	0
2929.357421875	n/a	WORD	5999324	wordpools/wasnorm_wordpool_576.txt	LTP339	ltpFR2	5	14	WIDOW	1608	n/a	n/a	0	0	0
2932.1162109375	n/a	WORD	6004974	wordpools/wasnorm_wordpool_576.txt	LTP339	ltpFR2	5	14	HUSBAND	728	n/a	n/a	0	0	0
2934.92529296875	n/a	WORD	6010727	wordpools/wasnorm_wordpool_576.txt	LTP339	ltpFR2	5	14	PLATE	1086	n/a	n/a	0	0	0
2937.3662109375	n/a	WORD	6015726	wordpools/wasnorm_wordpool_576.txt	LTP339	ltpFR2	5	14	LOVER	846	n/a	n/a	0	0	0
2940.07470703125	n/a	WORD	6021273	wordpools/wasnorm_wordpool_576.txt	LTP339	ltpFR2	5	14	SUBWAY	1400	n/a	n/a	0	0	0
2942.76806640625	n/a	WORD	6026789	wordpools/wasnorm_wordpool_576.txt	LTP339	ltpFR2	5	14	WAGON	1578	n/a	n/a	0	0	0
2945.341796875	n/a	WORD	6032060	wordpools/wasnorm_wordpool_576.txt	LTP339	ltpFR2	5	14	PORTRAIT	1111	n/a	n/a	0	0	0
2947.78369140625	n/a	WORD	6037061	wordpools/wasnorm_wordpool_576.txt	LTP339	ltpFR2	5	14	MACHINE	852	n/a	n/a	0	0	0
2950.37451171875	n/a	WORD	6042367	wordpools/wasnorm_wordpool_576.txt	LTP339	ltpFR2	5	14	PASSAGE	1019	n/a	n/a	0	0	0
2952.78369140625	n/a	WORD	6047301	wordpools/wasnorm_wordpool_576.txt	LTP339	ltpFR2	5	14	PATROL	1027	n/a	n/a	0	0	0
2955.32373046875	n/a	WORD	6052503	wordpools/wasnorm_wordpool_576.txt	LTP339	ltpFR2	5	14	TEMPLE	1448	n/a	n/a	0	0	0
2957.9326171875	n/a	WORD	6057846	wordpools/wasnorm_wordpool_576.txt	LTP339	ltpFR2	5	14	SLIME	1327	n/a	n/a	0	0	0
2960.69140625	n/a	WORD	6063496	wordpools/wasnorm_wordpool_576.txt	LTP339	ltpFR2	5	14	FUNGUS	614	n/a	n/a	0	0	0
2963.19921875	n/a	WORD	6068632	wordpools/wasnorm_wordpool_576.txt	LTP339	ltpFR2	5	14	CROSS	413	n/a	n/a	0	0	0
2965.64013671875	n/a	WORD	6073631	wordpools/wasnorm_wordpool_576.txt	LTP339	ltpFR2	5	14	EYELASH	546	n/a	n/a	0	0	0
2968.248046875	n/a	WORD	6078972	wordpools/wasnorm_wordpool_576.txt	LTP339	ltpFR2	5	14	CIGAR	308	n/a	n/a	0	0	0
2970.7060546875	n/a	WORD	6084006	wordpools/wasnorm_wordpool_576.txt	LTP339	ltpFR2	5	14	FRIAR	605	n/a	n/a	0	0	0
2973.2978515625	n/a	WORD	6089314	wordpools/wasnorm_wordpool_576.txt	LTP339	ltpFR2	5	14	DRAWING	494	n/a	n/a	0	0	0
2974.90283203125	n/a	START	6092601	n/a	LTP339	ltpFR2	5	n/a	n/a	n/a	21	n/a	n/a	n/a	n/a
2975.955078125	n/a	DISTRACTOR	6094756	n/a	LTP339	ltpFR2	5	14	n/a	n/a	n/a	n/a	0	0	0
2975.95703125	n/a	PROB	6094760	n/a	LTP339	ltpFR2	5	n/a	n/a	n/a	21	23	8	9	6
2982.9287109375	n/a	PROB	6109038	n/a	LTP339	ltpFR2	5	n/a	n/a	n/a	21	11	7	2	2
2985.08544921875	n/a	PROB	6113455	n/a	LTP339	ltpFR2	5	n/a	n/a	n/a	21	13	4	8	1
2988.3623046875	n/a	PROB	6120166	n/a	LTP339	ltpFR2	5	n/a	n/a	n/a	21	8	4	3	1
2990.21826171875	n/a	PROB	6123967	n/a	LTP339	ltpFR2	5	n/a	n/a	n/a	21	18	8	2	8
2992.392578125	n/a	PROB	6128420	n/a	LTP339	ltpFR2	5	n/a	n/a	n/a	21	18	7	3	8
2994.26513671875	n/a	PROB	6132255	n/a	LTP339	ltpFR2	5	n/a	n/a	n/a	21	11	1	6	4
2998.90234375	n/a	STOP	6141752	n/a	LTP339	ltpFR2	5	n/a	n/a	n/a	21	n/a	n/a	n/a	n/a
3000.72021484375	n/a	REC_START	6145475	n/a	LTP339	ltpFR2	5	14	n/a	n/a	n/a	n/a	0	0	0
3001.56103515625	n/a	REC_WORD	6147197	wordpools/wasnorm_wordpool_576.txt	LTP339	ltpFR2	5	14	OYSTER	995	n/a	n/a	0	0	0
3002.67529296875	n/a	REC_WORD	6149479	wordpools/wasnorm_wordpool_576.txt	LTP339	ltpFR2	5	14	LILY	821	n/a	n/a	0	0	0
3003.59130859375	n/a	REC_WORD	6151355	wordpools/wasnorm_wordpool_576.txt	LTP339	ltpFR2	5	14	SWAMP	1416	n/a	n/a	0	0	0
3005.2822265625	n/a	REC_WORD	6154818	wordpools/wasnorm_wordpool_576.txt	LTP339	ltpFR2	5	14	PORTRAIT	1111	n/a	n/a	0	0	0
3012.81689453125	n/a	REC_WORD	6170249	wordpools/wasnorm_wordpool_576.txt	LTP339	ltpFR2	5	14	HUSBAND	728	n/a	n/a	0	0	0
3017.16552734375	n/a	REC_WORD	6179155	wordpools/wasnorm_wordpool_576.txt	LTP339	ltpFR2	5	14	WIDOW	1608	n/a	n/a	0	0	0
3052.5986328125	n/a	REC_WORD	6251722	wordpools/wasnorm_wordpool_576.txt	LTP339	ltpFR2	5	14	CROSS	413	n/a	n/a	0	0	0
3091.17626953125	n/a	WORD	6330729	wordpools/wasnorm_wordpool_576.txt	LTP339	ltpFR2	5	15	BLENDER	136	n/a	n/a	0	0	0
3093.6171875	n/a	WORD	6335728	wordpools/wasnorm_wordpool_576.txt	LTP339	ltpFR2	5	15	ATOM	55	n/a	n/a	0	0	0
3096.04150390625	n/a	WORD	6340693	wordpools/wasnorm_wordpool_576.txt	LTP339	ltpFR2	5	15	KNIFE	785	n/a	n/a	0	0	0
3098.58349609375	n/a	WORD	6345899	wordpools/wasnorm_wordpool_576.txt	LTP339	ltpFR2	5	15	HAWK	692	n/a	n/a	0	0	0
3101.359375	n/a	WORD	6351584	wordpools/wasnorm_wordpool_576.txt	LTP339	ltpFR2	5	15	PERCH	1048	n/a	n/a	0	0	0
3104.16796875	n/a	WORD	6357336	wordpools/wasnorm_wordpool_576.txt	LTP339	ltpFR2	5	15	CRAYON	401	n/a	n/a	0	0	0
3106.76123046875	n/a	WORD	6362647	wordpools/wasnorm_wordpool_576.txt	LTP339	ltpFR2	5	15	EMPIRE	530	n/a	n/a	0	0	0
3109.23388671875	n/a	WORD	6367711	wordpools/wasnorm_wordpool_576.txt	LTP339	ltpFR2	5	15	COUNTY	389	n/a	n/a	0	0	0
3111.77685546875	n/a	WORD	6372919	wordpools/wasnorm_wordpool_576.txt	LTP339	ltpFR2	5	15	PIGMENT	1066	n/a	n/a	0	0	0
3114.4677734375	n/a	WORD	6378430	wordpools/wasnorm_wordpool_576.txt	LTP339	ltpFR2	5	15	GHETTO	633	n/a	n/a	0	0	0
3117.0595703125	n/a	WORD	6383738	wordpools/wasnorm_wordpool_576.txt	LTP339	ltpFR2	5	15	LAVA	804	n/a	n/a	0	0	0
3119.56787109375	n/a	WORD	6388875	wordpools/wasnorm_wordpool_576.txt	LTP339	ltpFR2	5	15	SEAGULL	1261	n/a	n/a	0	0	0
3122.37646484375	n/a	WORD	6394627	wordpools/wasnorm_wordpool_576.txt	LTP339	ltpFR2	5	15	LIPSTICK	829	n/a	n/a	0	0	0
3124.83544921875	n/a	WORD	6399663	wordpools/wasnorm_wordpool_576.txt	LTP339	ltpFR2	5	15	FOOTBALL	591	n/a	n/a	0	0	0
3127.3251953125	n/a	WORD	6404762	wordpools/wasnorm_wordpool_576.txt	LTP339	ltpFR2	5	15	VIKING	1565	n/a	n/a	0	0	0
3130.0673828125	n/a	WORD	6410378	wordpools/wasnorm_wordpool_576.txt	LTP339	ltpFR2	5	15	HATCHET	691	n/a	n/a	0	0	0
3132.4921875	n/a	WORD	6415344	wordpools/wasnorm_wordpool_576.txt	LTP339	ltpFR2	5	15	CUSTARD	429	n/a	n/a	0	0	0
3134.96728515625	n/a	WORD	6420413	wordpools/wasnorm_wordpool_576.txt	LTP339	ltpFR2	5	15	BATHTUB	100	n/a	n/a	0	0	0
3137.708984375	n/a	WORD	6426028	wordpools/wasnorm_wordpool_576.txt	LTP339	ltpFR2	5	15	STONE	1385	n/a	n/a	0	0	0
3140.18310546875	n/a	WORD	6431095	wordpools/wasnorm_wordpool_576.txt	LTP339	ltpFR2	5	15	HAND	683	n/a	n/a	0	0	0
3142.64111328125	n/a	WORD	6436129	wordpools/wasnorm_wordpool_576.txt	LTP339	ltpFR2	5	15	WRIST	1626	n/a	n/a	0	0	0
3145.06591796875	n/a	WORD	6441095	wordpools/wasnorm_wordpool_576.txt	LTP339	ltpFR2	5	15	BIKE	125	n/a	n/a	0	0	0
3147.85888671875	n/a	WORD	6446815	wordpools/wasnorm_wordpool_576.txt	LTP339	ltpFR2	5	15	CANYON	235	n/a	n/a	0	0	0
3150.39990234375	n/a	WORD	6452019	wordpools/wasnorm_wordpool_576.txt	LTP339	ltpFR2	5	15	BUNNY	198	n/a	n/a	0	0	0
3152.0048828125	n/a	START	6455306	n/a	LTP339	ltpFR2	5	n/a	n/a	n/a	22	n/a	n/a	n/a	n/a
3152.853515625	n/a	DISTRACTOR	6457044	n/a	LTP339	ltpFR2	5	15	n/a	n/a	n/a	n/a	0	0	0
3152.85888671875	n/a	PROB	6457055	n/a	LTP339	ltpFR2	5	n/a	n/a	n/a	22	20	5	9	8
3166.71826171875	n/a	PROB	6485439	n/a	LTP339	ltpFR2	5	n/a	n/a	n/a	22	21	7	6	8
3175.9541015625	n/a	STOP	6504354	n/a	LTP339	ltpFR2	5	n/a	n/a	n/a	22	n/a	n/a	n/a	n/a
3177.93896484375	n/a	REC_START	6508419	n/a	LTP339	ltpFR2	5	15	n/a	n/a	n/a	n/a	0	0	0
3185.97265625	n/a	REC_WORD	6524872	wordpools/wasnorm_wordpool_576.txt	LTP339	ltpFR2	5	15	GHETTO	633	n/a	n/a	0	0	0
3188.23486328125	n/a	REC_WORD	6529505	wordpools/wasnorm_wordpool_576.txt	LTP339	ltpFR2	5	15	SEAGULL	1261	n/a	n/a	0	0	0
3205.98095703125	n/a	REC_WORD_VV	6565849	wordpools/wasnorm_wordpool_576.txt	LTP339	ltpFR2	5	15	<>	-1	n/a	n/a	0	0	0
3249.95068359375	n/a	REC_WORD	6655899	wordpools/wasnorm_wordpool_576.txt	LTP339	ltpFR2	5	15	WRIST	1626	n/a	n/a	0	0	0
3268.3955078125	n/a	WORD	6693674	wordpools/wasnorm_wordpool_576.txt	LTP339	ltpFR2	5	16	OUTDOORS	987	n/a	n/a	0	0	0
3270.91943359375	n/a	WORD	6698843	wordpools/wasnorm_wordpool_576.txt	LTP339	ltpFR2	5	16	PEANUT	1032	n/a	n/a	0	0	0
3273.662109375	n/a	WORD	6704460	wordpools/wasnorm_wordpool_576.txt	LTP339	ltpFR2	5	16	SHOVEL	1295	n/a	n/a	0	0	0
3276.35400390625	n/a	WORD	6709973	wordpools/wasnorm_wordpool_576.txt	LTP339	ltpFR2	5	16	DUST	508	n/a	n/a	0	0	0
3278.77880859375	n/a	WORD	6714939	wordpools/wasnorm_wordpool_576.txt	LTP339	ltpFR2	5	16	LUGGAGE	847	n/a	n/a	0	0	0
3281.5537109375	n/a	WORD	6720622	wordpools/wasnorm_wordpool_576.txt	LTP339	ltpFR2	5	16	PECAN	1036	n/a	n/a	0	0	0
3284.0947265625	n/a	WORD	6725826	wordpools/wasnorm_wordpool_576.txt	LTP339	ltpFR2	5	16	PARTNER	1017	n/a	n/a	0	0	0
3286.65380859375	n/a	WORD	6731067	wordpools/wasnorm_wordpool_576.txt	LTP339	ltpFR2	5	16	SCARF	1246	n/a	n/a	0	0	0
3289.3115234375	n/a	WORD	6736510	wordpools/wasnorm_wordpool_576.txt	LTP339	ltpFR2	5	16	COD	340	n/a	n/a	0	0	0
3291.82080078125	n/a	WORD	6741649	wordpools/wasnorm_wordpool_576.txt	LTP339	ltpFR2	5	16	DIVER	476	n/a	n/a	0	0	0
3294.5625	n/a	WORD	6747264	wordpools/wasnorm_wordpool_576.txt	LTP339	ltpFR2	5	16	BOYFRIEND	162	n/a	n/a	0	0	0
3297.12060546875	n/a	WORD	6752503	wordpools/wasnorm_wordpool_576.txt	LTP339	ltpFR2	5	16	LACE	792	n/a	n/a	0	0	0
3299.84619140625	n/a	WORD	6758085	wordpools/wasnorm_wordpool_576.txt	LTP339	ltpFR2	5	16	RADISH	1158	n/a	n/a	0	0	0
3302.35302734375	n/a	WORD	6763219	wordpools/wasnorm_wordpool_576.txt	LTP339	ltpFR2	5	16	JEANS	752	n/a	n/a	0	0	0
3304.84619140625	n/a	WORD	6768325	wordpools/wasnorm_wordpool_576.txt	LTP339	ltpFR2	5	16	FINGER	567	n/a	n/a	0	0	0
3307.60400390625	n/a	WORD	6773973	wordpools/wasnorm_wordpool_576.txt	LTP339	ltpFR2	5	16	STUDENT	1395	n/a	n/a	0	0	0
3310.3291015625	n/a	WORD	6779554	wordpools/wasnorm_wordpool_576.txt	LTP339	ltpFR2	5	16	AGENT	10	n/a	n/a	0	0	0
3312.77197265625	n/a	WORD	6784557	wordpools/wasnorm_wordpool_576.txt	LTP339	ltpFR2	5	16	TURNIP	1521	n/a	n/a	0	0	0
3315.37890625	n/a	WORD	6789896	wordpools/wasnorm_wordpool_576.txt	LTP339	ltpFR2	5	16	PLUTO	1092	n/a	n/a	0	0	0
3317.82080078125	n/a	WORD	6794897	wordpools/wasnorm_wordpool_576.txt	LTP339	ltpFR2	5	16	TYPIST	1532	n/a	n/a	0	0	0
3320.24462890625	n/a	WORD	6799861	wordpools/wasnorm_wordpool_576.txt	LTP339	ltpFR2	5	16	COOK	372	n/a	n/a	0	0	0
3322.73681640625	n/a	WORD	6804965	wordpools/wasnorm_wordpool_576.txt	LTP339	ltpFR2	5	16	STOVE	1388	n/a	n/a	0	0	0
3325.27783203125	n/a	WORD	6810169	wordpools/wasnorm_wordpool_576.txt	LTP339	ltpFR2	5	16	TWEEZERS	1526	n/a	n/a	0	0	0
3327.76953125	n/a	WORD	6815272	wordpools/wasnorm_wordpool_576.txt	LTP339	ltpFR2	5	16	PUPIL	1143	n/a	n/a	0	0	0
3329.37451171875	n/a	START	6818559	n/a	LTP339	ltpFR2	5	n/a	n/a	n/a	23	n/a	n/a	n/a	n/a
3330.1884765625	n/a	DISTRACTOR	6820226	n/a	LTP339	ltpFR2	5	16	n/a	n/a	n/a	n/a	0	0	0
3330.193359375	n/a	PROB	6820236	n/a	LTP339	ltpFR2	5	n/a	n/a	n/a	23	13	2	7	4
3333.50341796875	n/a	PROB	6827015	n/a	LTP339	ltpFR2	5	n/a	n/a	n/a	23	18	2	7	9
3338.83837890625	n/a	PROB	6837941	n/a	LTP339	ltpFR2	5	n/a	n/a	n/a	23	8	1	1	6
3340.2919921875	n/a	PROB	6840918	n/a	LTP339	ltpFR2	5	n/a	n/a	n/a	23	12	5	5	2
3341.9638671875	n/a	PROB	6844342	n/a	LTP339	ltpFR2	5	n/a	n/a	n/a	23	16	3	9	4
3347.4150390625	n/a	PROB	6855506	n/a	LTP339	ltpFR2	5	n/a	n/a	n/a	23	12	7	4	1
3353.37353515625	n/a	STOP	6867709	n/a	LTP339	ltpFR2	5	n/a	n/a	n/a	23	n/a	n/a	n/a	n/a
3355.12353515625	n/a	REC_START	6871293	n/a	LTP339	ltpFR2	5	16	n/a	n/a	n/a	n/a	0	0	0
3355.7216796875	n/a	REC_WORD	6872518	wordpools/wasnorm_wordpool_576.txt	LTP339	ltpFR2	5	16	OUTDOORS	987	n/a	n/a	0	0	0
3356.759765625	n/a	REC_WORD	6874644	wordpools/wasnorm_wordpool_576.txt	LTP339	ltpFR2	5	16	PEANUT	1032	n/a	n/a	0	0	0
3357.71875	n/a	REC_WORD	6876608	wordpools/wasnorm_wordpool_576.txt	LTP339	ltpFR2	5	16	SHOVEL	1295	n/a	n/a	0	0	0
3358.81982421875	n/a	REC_WORD	6878863	wordpools/wasnorm_wordpool_576.txt	LTP339	ltpFR2	5	16	BOYFRIEND	162	n/a	n/a	0	0	0
3359.8896484375	n/a	REC_WORD	6881054	wordpools/wasnorm_wordpool_576.txt	LTP339	ltpFR2	5	16	DUST	508	n/a	n/a	0	0	0
3360.84765625	n/a	REC_WORD	6883016	wordpools/wasnorm_wordpool_576.txt	LTP339	ltpFR2	5	16	LACE	792	n/a	n/a	0	0	0
3362.12939453125	n/a	REC_WORD	6885641	wordpools/wasnorm_wordpool_576.txt	LTP339	ltpFR2	5	16	STOVE	1388	n/a	n/a	0	0	0
3370.490234375	n/a	REC_WORD	6902764	wordpools/wasnorm_wordpool_576.txt	LTP339	ltpFR2	5	16	AGENT	10	n/a	n/a	0	0	0
3371.2373046875	n/a	REC_WORD	6904294	wordpools/wasnorm_wordpool_576.txt	LTP339	ltpFR2	5	16	STUDENT	1395	n/a	n/a	0	0	0
3389.28759765625	n/a	REC_WORD_VV	6941261	wordpools/wasnorm_wordpool_576.txt	LTP339	ltpFR2	5	16	<>	-1	n/a	n/a	0	0	0
3431.6513671875	n/a	REST_REWET	7028022	n/a	LTP339	ltpFR2	5	16	n/a	n/a	n/a	n/a	0	0	0
3569.71142578125	n/a	DISTRACTOR	7310769	n/a	LTP339	ltpFR2	5	17	n/a	n/a	n/a	n/a	0	0	0
3569.71142578125	n/a	START	7310769	n/a	LTP339	ltpFR2	5	n/a	n/a	n/a	24	n/a	n/a	n/a	n/a
3569.7294921875	n/a	PROB	7310806	n/a	LTP339	ltpFR2	5	n/a	n/a	n/a	24	15	5	8	4
3573.25634765625	n/a	PROB	7318029	n/a	LTP339	ltpFR2	5	n/a	n/a	n/a	24	24	9	9	6
3577.669921875	n/a	PROB	7327068	n/a	LTP339	ltpFR2	5	n/a	n/a	n/a	24	20	3	9	8
3581.09814453125	n/a	PROB	7334089	n/a	LTP339	ltpFR2	5	n/a	n/a	n/a	24	6	2	1	3
3584.158203125	n/a	PROB	7340356	n/a	LTP339	ltpFR2	5	n/a	n/a	n/a	24	21	9	9	3
3586.86767578125	n/a	PROB	7345905	n/a	LTP339	ltpFR2	5	n/a	n/a	n/a	24	14	8	5	1
3589.1240234375	n/a	PROB	7350526	n/a	LTP339	ltpFR2	5	n/a	n/a	n/a	24	10	3	1	6
3593.70556640625	n/a	STOP	7359909	n/a	LTP339	ltpFR2	5	n/a	n/a	n/a	24	n/a	n/a	n/a	n/a
3594.607421875	n/a	WORD	7361756	wordpools/wasnorm_wordpool_576.txt	LTP339	ltpFR2	5	17	OUTLAW	989	n/a	n/a	0	0	0
3597.1826171875	n/a	WORD	7367030	wordpools/wasnorm_wordpool_576.txt	LTP339	ltpFR2	5	17	SHERIFF	1284	n/a	n/a	0	0	0
3599.87451171875	n/a	WORD	7372543	wordpools/wasnorm_wordpool_576.txt	LTP339	ltpFR2	5	17	SHOULDER	1294	n/a	n/a	0	0	0
3602.29931640625	n/a	WORD	7377509	wordpools/wasnorm_wordpool_576.txt	LTP339	ltpFR2	5	17	KITCHEN	778	n/a	n/a	0	0	0
3604.97412109375	n/a	WORD	7382987	wordpools/wasnorm_wordpool_576.txt	LTP339	ltpFR2	5	17	SUMMIT	1405	n/a	n/a	0	0	0
3607.650390625	n/a	WORD	7388468	wordpools/wasnorm_wordpool_576.txt	LTP339	ltpFR2	5	17	NEUTRON	947	n/a	n/a	0	0	0
3610.4091796875	n/a	WORD	7394118	wordpools/wasnorm_wordpool_576.txt	LTP339	ltpFR2	5	17	LIVER	833	n/a	n/a	0	0	0
3612.88330078125	n/a	WORD	7399185	wordpools/wasnorm_wordpool_576.txt	LTP339	ltpFR2	5	17	ELBOW	520	n/a	n/a	0	0	0
3615.5078125	n/a	WORD	7404560	wordpools/wasnorm_wordpool_576.txt	LTP339	ltpFR2	5	17	GLOBE	641	n/a	n/a	0	0	0
3618.14990234375	n/a	WORD	7409971	wordpools/wasnorm_wordpool_576.txt	LTP339	ltpFR2	5	17	GARDEN	623	n/a	n/a	0	0	0
3620.72607421875	n/a	WORD	7415247	wordpools/wasnorm_wordpool_576.txt	LTP339	ltpFR2	5	17	TEACHER	1440	n/a	n/a	0	0	0
3623.1669921875	n/a	WORD	7420246	wordpools/wasnorm_wordpool_576.txt	LTP339	ltpFR2	5	17	CATTLE	261	n/a	n/a	0	0	0
3625.70751953125	n/a	WORD	7425449	wordpools/wasnorm_wordpool_576.txt	LTP339	ltpFR2	5	17	CUPBOARD	425	n/a	n/a	0	0	0
3628.1328125	n/a	WORD	7430416	wordpools/wasnorm_wordpool_576.txt	LTP339	ltpFR2	5	17	SERVANT	1271	n/a	n/a	0	0	0
3630.65673828125	n/a	WORD	7435585	wordpools/wasnorm_wordpool_576.txt	LTP339	ltpFR2	5	17	PRINCE	1124	n/a	n/a	0	0	0
3633.349609375	n/a	WORD	7441100	wordpools/wasnorm_wordpool_576.txt	LTP339	ltpFR2	5	17	PALACE	1006	n/a	n/a	0	0	0
3635.8076171875	n/a	WORD	7446134	wordpools/wasnorm_wordpool_576.txt	LTP339	ltpFR2	5	17	FIREPLACE	570	n/a	n/a	0	0	0
3638.54931640625	n/a	WORD	7451749	wordpools/wasnorm_wordpool_576.txt	LTP339	ltpFR2	5	17	YACHT	1629	n/a	n/a	0	0	0
3641.107421875	n/a	WORD	7456988	wordpools/wasnorm_wordpool_576.txt	LTP339	ltpFR2	5	17	PERMIT	1051	n/a	n/a	0	0	0
3643.54833984375	n/a	WORD	7461987	wordpools/wasnorm_wordpool_576.txt	LTP339	ltpFR2	5	17	STAMP	1370	n/a	n/a	0	0	0
3646.10595703125	n/a	WORD	7467225	wordpools/wasnorm_wordpool_576.txt	LTP339	ltpFR2	5	17	POSTAGE	1113	n/a	n/a	0	0	0
3648.56396484375	n/a	WORD	7472259	wordpools/wasnorm_wordpool_576.txt	LTP339	ltpFR2	5	17	BOUQUET	157	n/a	n/a	0	0	0
3651.35693359375	n/a	WORD	7477979	wordpools/wasnorm_wordpool_576.txt	LTP339	ltpFR2	5	17	LEG	809	n/a	n/a	0	0	0
3653.94873046875	n/a	WORD	7483287	wordpools/wasnorm_wordpool_576.txt	LTP339	ltpFR2	5	17	PUPPY	1144	n/a	n/a	0	0	0
3655.5537109375	n/a	START	7486574	n/a	LTP339	ltpFR2	5	n/a	n/a	n/a	25	n/a	n/a	n/a	n/a
3656.6728515625	n/a	DISTRACTOR	7488866	n/a	LTP339	ltpFR2	5	17	n/a	n/a	n/a	n/a	0	0	0
3656.673828125	n/a	PROB	7488868	n/a	LTP339	ltpFR2	5	n/a	n/a	n/a	25	18	3	9	6
3660.03466796875	n/a	PROB	7495751	n/a	LTP339	ltpFR2	5	n/a	n/a	n/a	25	11	5	4	2
3662.32568359375	n/a	PROB	7500443	n/a	LTP339	ltpFR2	5	n/a	n/a	n/a	25	9	4	2	3
3666.08740234375	n/a	PROB	7508147	n/a	LTP339	ltpFR2	5	n/a	n/a	n/a	25	20	9	6	5
3675.30029296875	n/a	PROB	7527015	n/a	LTP339	ltpFR2	5	n/a	n/a	n/a	25	6	2	2	2
3679.55224609375	n/a	STOP	7535723	n/a	LTP339	ltpFR2	5	n/a	n/a	n/a	25	n/a	n/a	n/a	n/a
3681.4541015625	n/a	REC_START	7539618	n/a	LTP339	ltpFR2	5	17	n/a	n/a	n/a	n/a	0	0	0
3682.0888671875	n/a	REC_WORD	7540918	wordpools/wasnorm_wordpool_576.txt	LTP339	ltpFR2	5	17	OUTLAW	989	n/a	n/a	0	0	0
3682.97509765625	n/a	REC_WORD	7542733	wordpools/wasnorm_wordpool_576.txt	LTP339	ltpFR2	5	17	GARDEN	623	n/a	n/a	0	0	0
3683.85595703125	n/a	REC_WORD	7544537	wordpools/wasnorm_wordpool_576.txt	LTP339	ltpFR2	5	17	TEACHER	1440	n/a	n/a	0	0	0
3684.5322265625	n/a	REC_WORD	7545922	wordpools/wasnorm_wordpool_576.txt	LTP339	ltpFR2	5	17	STAMP	1370	n/a	n/a	0	0	0
3685.7109375	n/a	REC_WORD	7548336	wordpools/wasnorm_wordpool_576.txt	LTP339	ltpFR2	5	17	POSTAGE	1113	n/a	n/a	0	0	0
3739.49755859375	n/a	REC_WORD	7658491	wordpools/wasnorm_wordpool_576.txt	LTP339	ltpFR2	5	17	LEG	809	n/a	n/a	0	0	0
3771.8935546875	n/a	DISTRACTOR	7724838	n/a	LTP339	ltpFR2	5	18	n/a	n/a	n/a	n/a	0	0	0
3771.8935546875	n/a	START	7724838	n/a	LTP339	ltpFR2	5	n/a	n/a	n/a	26	n/a	n/a	n/a	n/a
3771.91064453125	n/a	PROB	7724873	n/a	LTP339	ltpFR2	5	n/a	n/a	n/a	26	15	2	7	6
3774.80322265625	n/a	PROB	7730797	n/a	LTP339	ltpFR2	5	n/a	n/a	n/a	26	17	2	6	9
3778.3310546875	n/a	PROB	7738022	n/a	LTP339	ltpFR2	5	n/a	n/a	n/a	26	18	3	9	6
3782.76318359375	n/a	PROB	7747099	n/a	LTP339	ltpFR2	5	n/a	n/a	n/a	26	12	4	3	5
3787.56103515625	n/a	PROB	7756925	n/a	LTP339	ltpFR2	5	n/a	n/a	n/a	26	16	2	9	5
3794.880859375	n/a	STOP	7771916	n/a	LTP339	ltpFR2	5	n/a	n/a	n/a	26	n/a	n/a	n/a	n/a
3796.87353515625	n/a	WORD	7775997	wordpools/wasnorm_wordpool_576.txt	LTP339	ltpFR2	5	18	CLOTHES	327	n/a	n/a	0	0	0
3799.6494140625	n/a	WORD	7781682	wordpools/wasnorm_wordpool_576.txt	LTP339	ltpFR2	5	18	CAPTIVE	240	n/a	n/a	0	0	0
3802.29150390625	n/a	WORD	7787093	wordpools/wasnorm_wordpool_576.txt	LTP339	ltpFR2	5	18	TOURIST	1488	n/a	n/a	0	0	0
3804.96630859375	n/a	WORD	7792571	wordpools/wasnorm_wordpool_576.txt	LTP339	ltpFR2	5	18	VAGRANT	1544	n/a	n/a	0	0	0
3807.54150390625	n/a	WORD	7797845	wordpools/wasnorm_wordpool_576.txt	LTP339	ltpFR2	5	18	CROWN	415	n/a	n/a	0	0	0
3809.982421875	n/a	WORD	7802844	wordpools/wasnorm_wordpool_576.txt	LTP339	ltpFR2	5	18	QUEEN	1149	n/a	n/a	0	0	0
3812.42333984375	n/a	WORD	7807843	wordpools/wasnorm_wordpool_576.txt	LTP339	ltpFR2	5	18	PATIENT	1024	n/a	n/a	0	0	0
3814.89794921875	n/a	WORD	7812911	wordpools/wasnorm_wordpool_576.txt	LTP339	ltpFR2	5	18	XEROX	1628	n/a	n/a	0	0	0
3817.490234375	n/a	WORD	7818220	wordpools/wasnorm_wordpool_576.txt	LTP339	ltpFR2	5	18	BELLY	119	n/a	n/a	0	0	0
3820.06494140625	n/a	WORD	7823493	wordpools/wasnorm_wordpool_576.txt	LTP339	ltpFR2	5	18	TRENCH	1503	n/a	n/a	0	0	0
3822.89111328125	n/a	WORD	7829281	wordpools/wasnorm_wordpool_576.txt	LTP339	ltpFR2	5	18	CREVICE	405	n/a	n/a	0	0	0
3825.5830078125	n/a	WORD	7834794	wordpools/wasnorm_wordpool_576.txt	LTP339	ltpFR2	5	18	MATTRESS	879	n/a	n/a	0	0	0
3828.2578125	n/a	WORD	7840272	wordpools/wasnorm_wordpool_576.txt	LTP339	ltpFR2	5	18	DRESS	495	n/a	n/a	0	0	0
3830.99951171875	n/a	WORD	7845887	wordpools/wasnorm_wordpool_576.txt	LTP339	ltpFR2	5	18	KETCHUP	771	n/a	n/a	0	0	0
3833.6416015625	n/a	WORD	7851298	wordpools/wasnorm_wordpool_576.txt	LTP339	ltpFR2	5	18	INMATE	738	n/a	n/a	0	0	0
3836.43359375	n/a	WORD	7857016	wordpools/wasnorm_wordpool_576.txt	LTP339	ltpFR2	5	18	LADDER	793	n/a	n/a	0	0	0
3839.00830078125	n/a	WORD	7862289	wordpools/wasnorm_wordpool_576.txt	LTP339	ltpFR2	5	18	SWITCH	1422	n/a	n/a	0	0	0
3841.55029296875	n/a	WORD	7867495	wordpools/wasnorm_wordpool_576.txt	LTP339	ltpFR2	5	18	FRUIT	610	n/a	n/a	0	0	0
3844.1923828125	n/a	WORD	7872906	wordpools/wasnorm_wordpool_576.txt	LTP339	ltpFR2	5	18	CARROT	249	n/a	n/a	0	0	0
3846.80126953125	n/a	WORD	7878249	wordpools/wasnorm_wordpool_576.txt	LTP339	ltpFR2	5	18	BREAST	171	n/a	n/a	0	0	0
3849.42529296875	n/a	WORD	7883623	wordpools/wasnorm_wordpool_576.txt	LTP339	ltpFR2	5	18	BANQUET	86	n/a	n/a	0	0	0
3852.15087890625	n/a	WORD	7889205	wordpools/wasnorm_wordpool_576.txt	LTP339	ltpFR2	5	18	CANDY	230	n/a	n/a	0	0	0
3854.85986328125	n/a	WORD	7894753	wordpools/wasnorm_wordpool_576.txt	LTP339	ltpFR2	5	18	STREAM	1392	n/a	n/a	0	0	0
3857.4677734375	n/a	WORD	7900094	wordpools/wasnorm_wordpool_576.txt	LTP339	ltpFR2	5	18	DANDRUFF	439	n/a	n/a	0	0	0
3859.07373046875	n/a	START	7903383	n/a	LTP339	ltpFR2	5	n/a	n/a	n/a	27	n/a	n/a	n/a	n/a
3860.23291015625	n/a	DISTRACTOR	7905757	n/a	LTP339	ltpFR2	5	18	n/a	n/a	n/a	n/a	0	0	0
3860.24365234375	n/a	PROB	7905779	n/a	LTP339	ltpFR2	5	n/a	n/a	n/a	27	18	2	9	7
3864.40673828125	n/a	PROB	7914305	n/a	LTP339	ltpFR2	5	n/a	n/a	n/a	27	16	4	5	7
3867.53369140625	n/a	PROB	7920709	n/a	LTP339	ltpFR2	5	n/a	n/a	n/a	27	20	5	8	7
3873.28564453125	n/a	PROB	7932489	n/a	LTP339	ltpFR2	5	n/a	n/a	n/a	27	17	7	5	5
3874.8583984375	n/a	PROB	7935710	n/a	LTP339	ltpFR2	5	n/a	n/a	n/a	27	21	7	8	6
3879.75732421875	n/a	PROB	7945743	n/a	LTP339	ltpFR2	5	n/a	n/a	n/a	27	12	9	2	1
3881.92919921875	n/a	STOP	7950191	n/a	LTP339	ltpFR2	5	n/a	n/a	n/a	27	n/a	n/a	n/a	n/a
3884.873046875	n/a	REC_START	7956220	n/a	LTP339	ltpFR2	5	18	n/a	n/a	n/a	n/a	0	0	0
3885.6240234375	n/a	REC_WORD	7957758	wordpools/wasnorm_wordpool_576.txt	LTP339	ltpFR2	5	18	CLOTHES	327	n/a	n/a	0	0	0
3886.5078125	n/a	REC_WORD	7959568	wordpools/wasnorm_wordpool_576.txt	LTP339	ltpFR2	5	18	CAPTIVE	240	n/a	n/a	0	0	0
3887.43701171875	n/a	REC_WORD	7961471	wordpools/wasnorm_wordpool_576.txt	LTP339	ltpFR2	5	18	TOURIST	1488	n/a	n/a	0	0	0
3888.5908203125	n/a	REC_WORD	7963834	wordpools/wasnorm_wordpool_576.txt	LTP339	ltpFR2	5	18	CROWN	415	n/a	n/a	0	0	0
3889.7470703125	n/a	REC_WORD	7966202	wordpools/wasnorm_wordpool_576.txt	LTP339	ltpFR2	5	18	QUEEN	1149	n/a	n/a	0	0	0
3891.10498046875	n/a	REC_WORD	7968983	wordpools/wasnorm_wordpool_576.txt	LTP339	ltpFR2	5	18	DRESS	495	n/a	n/a	0	0	0
3892.27685546875	n/a	REC_WORD	7971383	wordpools/wasnorm_wordpool_576.txt	LTP339	ltpFR2	5	18	XEROX	1628	n/a	n/a	0	0	0
3894.14794921875	n/a	REC_WORD_VV	7975215	wordpools/wasnorm_wordpool_576.txt	LTP339	ltpFR2	5	18	<>	-1	n/a	n/a	0	0	0
3894.9208984375	n/a	REC_WORD	7976798	wordpools/wasnorm_wordpool_576.txt	LTP339	ltpFR2	5	18	BELLY	119	n/a	n/a	0	0	0
3902.86865234375	n/a	REC_WORD	7993075	wordpools/wasnorm_wordpool_576.txt	LTP339	ltpFR2	5	18	BANQUET	86	n/a	n/a	0	0	0
3909.30224609375	n/a	REC_WORD	8006251	wordpools/wasnorm_wordpool_576.txt	LTP339	ltpFR2	5	18	VAGRANT	1544	n/a	n/a	0	0	0
3947.578125	n/a	REC_WORD	8084640	wordpools/wasnorm_wordpool_576.txt	LTP339	ltpFR2	5	18	CREVICE	405	n/a	n/a	0	0	0
3953.89404296875	n/a	REC_WORD_VV	8097575	wordpools/wasnorm_wordpool_576.txt	LTP339	ltpFR2	5	18	<>	-1	n/a	n/a	0	0	0
3975.3125	n/a	DISTRACTOR	8141440	n/a	LTP339	ltpFR2	5	19	n/a	n/a	n/a	n/a	0	0	0
3975.3134765625	n/a	START	8141442	n/a	LTP339	ltpFR2	5	n/a	n/a	n/a	28	n/a	n/a	n/a	n/a
3975.32958984375	n/a	PROB	8141475	n/a	LTP339	ltpFR2	5	n/a	n/a	n/a	28	13	2	3	8
3977.771484375	n/a	PROB	8146476	n/a	LTP339	ltpFR2	5	n/a	n/a	n/a	28	14	9	1	4
3979.2421875	n/a	PROB	8149488	n/a	LTP339	ltpFR2	5	n/a	n/a	n/a	28	20	3	8	9
3983.35498046875	n/a	PROB	8157911	n/a	LTP339	ltpFR2	5	n/a	n/a	n/a	28	7	2	4	1
3985.72998046875	n/a	PROB	8162775	n/a	LTP339	ltpFR2	5	n/a	n/a	n/a	28	13	5	5	3
3987.31787109375	n/a	PROB	8166027	n/a	LTP339	ltpFR2	5	n/a	n/a	n/a	28	19	9	6	4
3990.89599609375	n/a	PROB	8173355	n/a	LTP339	ltpFR2	5	n/a	n/a	n/a	28	22	8	8	6
3999.3125	n/a	STOP	8190592	n/a	LTP339	ltpFR2	5	n/a	n/a	n/a	28	n/a	n/a	n/a	n/a
4000.5107421875	n/a	WORD	8193046	wordpools/wasnorm_wordpool_576.txt	LTP339	ltpFR2	5	19	CREATURE	403	n/a	n/a	0	0	0
4002.96875	n/a	WORD	8198080	wordpools/wasnorm_wordpool_576.txt	LTP339	ltpFR2	5	19	LIZARD	834	n/a	n/a	0	0	0
4005.57666015625	n/a	WORD	8203421	wordpools/wasnorm_wordpool_576.txt	LTP339	ltpFR2	5	19	CABIN	211	n/a	n/a	0	0	0
4008.30224609375	n/a	WORD	8209003	wordpools/wasnorm_wordpool_576.txt	LTP339	ltpFR2	5	19	TWIG	1527	n/a	n/a	0	0	0
4011.0771484375	n/a	WORD	8214686	wordpools/wasnorm_wordpool_576.txt	LTP339	ltpFR2	5	19	OFFICE	972	n/a	n/a	0	0	0
4013.80419921875	n/a	WORD	8220271	wordpools/wasnorm_wordpool_576.txt	LTP339	ltpFR2	5	19	SERVER	1272	n/a	n/a	0	0	0
4016.54541015625	n/a	WORD	8225885	wordpools/wasnorm_wordpool_576.txt	LTP339	ltpFR2	5	19	MUSTARD	935	n/a	n/a	0	0	0
4019.3369140625	n/a	WORD	8231602	wordpools/wasnorm_wordpool_576.txt	LTP339	ltpFR2	5	19	ZEBRA	1635	n/a	n/a	0	0	0
4022.06298828125	n/a	WORD	8237185	wordpools/wasnorm_wordpool_576.txt	LTP339	ltpFR2	5	19	PASTRY	1022	n/a	n/a	0	0	0
4024.7890625	n/a	WORD	8242768	wordpools/wasnorm_wordpool_576.txt	LTP339	ltpFR2	5	19	COOKBOOK	373	n/a	n/a	0	0	0
4027.19580078125	n/a	WORD	8247697	wordpools/wasnorm_wordpool_576.txt	LTP339	ltpFR2	5	19	HEDGE	699	n/a	n/a	0	0	0
4029.62060546875	n/a	WORD	8252663	wordpools/wasnorm_wordpool_576.txt	LTP339	ltpFR2	5	19	FOREST	593	n/a	n/a	0	0	0
4032.1787109375	n/a	WORD	8257902	wordpools/wasnorm_wordpool_576.txt	LTP339	ltpFR2	5	19	CLIMBER	323	n/a	n/a	0	0	0
4034.6865234375	n/a	WORD	8263038	wordpools/wasnorm_wordpool_576.txt	LTP339	ltpFR2	5	19	FLOWER	584	n/a	n/a	0	0	0
4037.228515625	n/a	WORD	8268244	wordpools/wasnorm_wordpool_576.txt	LTP339	ltpFR2	5	19	STALLION	1369	n/a	n/a	0	0	0
4039.75341796875	n/a	WORD	8273415	wordpools/wasnorm_wordpool_576.txt	LTP339	ltpFR2	5	19	PAPER	1011	n/a	n/a	0	0	0
4042.24462890625	n/a	WORD	8278517	wordpools/wasnorm_wordpool_576.txt	LTP339	ltpFR2	5	19	ISLAND	745	n/a	n/a	0	0	0
4044.96923828125	n/a	WORD	8284097	wordpools/wasnorm_wordpool_576.txt	LTP339	ltpFR2	5	19	COBRA	336	n/a	n/a	0	0	0
4047.5283203125	n/a	WORD	8289338	wordpools/wasnorm_wordpool_576.txt	LTP339	ltpFR2	5	19	CAFE	216	n/a	n/a	0	0	0
4050.203125	n/a	WORD	8294816	wordpools/wasnorm_wordpool_576.txt	LTP339	ltpFR2	5	19	FARMER	553	n/a	n/a	0	0	0
4052.912109375	n/a	WORD	8300364	wordpools/wasnorm_wordpool_576.txt	LTP339	ltpFR2	5	19	TABLE	1426	n/a	n/a	0	0	0
4055.35302734375	n/a	WORD	8305363	wordpools/wasnorm_wordpool_576.txt	LTP339	ltpFR2	5	19	MARKER	870	n/a	n/a	0	0	0
4058.01123046875	n/a	WORD	8310807	wordpools/wasnorm_wordpool_576.txt	LTP339	ltpFR2	5	19	SURVEY	1414	n/a	n/a	0	0	0
4060.5859375	n/a	WORD	8316080	wordpools/wasnorm_wordpool_576.txt	LTP339	ltpFR2	5	19	LAKE	796	n/a	n/a	0	0	0
4062.19189453125	n/a	START	8319369	n/a	LTP339	ltpFR2	5	n/a	n/a	n/a	29	n/a	n/a	n/a	n/a
4063.02392578125	n/a	DISTRACTOR	8321073	n/a	LTP339	ltpFR2	5	19	n/a	n/a	n/a	n/a	0	0	0
4063.02783203125	n/a	PROB	8321081	n/a	LTP339	ltpFR2	5	n/a	n/a	n/a	29	11	1	4	6
4066.53857421875	n/a	PROB	8328271	n/a	LTP339	ltpFR2	5	n/a	n/a	n/a	29	9	3	5	1
4068.69580078125	n/a	PROB	8332689	n/a	LTP339	ltpFR2	5	n/a	n/a	n/a	29	14	4	7	3
4071.00341796875	n/a	PROB	8337415	n/a	LTP339	ltpFR2	5	n/a	n/a	n/a	29	19	6	4	9
4074.4306640625	n/a	PROB	8344434	n/a	LTP339	ltpFR2	5	n/a	n/a	n/a	29	13	7	3	3
4076.2705078125	n/a	PROB	8348202	n/a	LTP339	ltpFR2	5	n/a	n/a	n/a	29	10	3	4	3
4080.38330078125	n/a	PROB	8356625	n/a	LTP339	ltpFR2	5	n/a	n/a	n/a	29	17	9	4	4
4083.09228515625	n/a	PROB	8362173	n/a	LTP339	ltpFR2	5	n/a	n/a	n/a	29	10	1	5	4
4084.6640625	n/a	STOP	8365392	n/a	LTP339	ltpFR2	5	n/a	n/a	n/a	29	n/a	n/a	n/a	n/a
4088.00830078125	n/a	REC_START	8372241	n/a	LTP339	ltpFR2	5	19	n/a	n/a	n/a	n/a	0	0	0
4088.533203125	n/a	REC_WORD	8373316	wordpools/wasnorm_wordpool_576.txt	LTP339	ltpFR2	5	19	CREATURE	403	n/a	n/a	0	0	0
4089.38916015625	n/a	REC_WORD	8375069	wordpools/wasnorm_wordpool_576.txt	LTP339	ltpFR2	5	19	LIZARD	834	n/a	n/a	0	0	0
4090.2509765625	n/a	REC_WORD	8376834	wordpools/wasnorm_wordpool_576.txt	LTP339	ltpFR2	5	19	OFFICE	972	n/a	n/a	0	0	0
4090.7392578125	n/a	REC_WORD	8377834	wordpools/wasnorm_wordpool_576.txt	LTP339	ltpFR2	5	19	SERVER	1272	n/a	n/a	0	0	0
4092.10693359375	n/a	REC_WORD	8380635	wordpools/wasnorm_wordpool_576.txt	LTP339	ltpFR2	5	19	HEDGE	699	n/a	n/a	0	0	0
4093.52197265625	n/a	REC_WORD	8383533	wordpools/wasnorm_wordpool_576.txt	LTP339	ltpFR2	5	19	FOREST	593	n/a	n/a	0	0	0
4178.46435546875	n/a	WORD	8557495	wordpools/wasnorm_wordpool_576.txt	LTP339	ltpFR2	5	20	PLAZA	1088	n/a	n/a	0	0	0
4180.92236328125	n/a	WORD	8562529	wordpools/wasnorm_wordpool_576.txt	LTP339	ltpFR2	5	20	RAFT	1159	n/a	n/a	0	0	0
4183.34716796875	n/a	WORD	8567495	wordpools/wasnorm_wordpool_576.txt	LTP339	ltpFR2	5	20	UMPIRE	1535	n/a	n/a	0	0	0
4185.80615234375	n/a	WORD	8572531	wordpools/wasnorm_wordpool_576.txt	LTP339	ltpFR2	5	20	HOOK	715	n/a	n/a	0	0	0
4188.29638671875	n/a	WORD	8577631	wordpools/wasnorm_wordpool_576.txt	LTP339	ltpFR2	5	20	FRIEND	606	n/a	n/a	0	0	0
4191.02197265625	n/a	WORD	8583213	wordpools/wasnorm_wordpool_576.txt	LTP339	ltpFR2	5	20	SIDEWALK	1303	n/a	n/a	0	0	0
4193.748046875	n/a	WORD	8588796	wordpools/wasnorm_wordpool_576.txt	LTP339	ltpFR2	5	20	HIGHWAY	707	n/a	n/a	0	0	0
4196.48876953125	n/a	WORD	8594409	wordpools/wasnorm_wordpool_576.txt	LTP339	ltpFR2	5	20	CRIB	407	n/a	n/a	0	0	0
4199.0810546875	n/a	WORD	8599718	wordpools/wasnorm_wordpool_576.txt	LTP339	ltpFR2	5	20	CORAL	378	n/a	n/a	0	0	0
4201.8896484375	n/a	WORD	8605470	wordpools/wasnorm_wordpool_576.txt	LTP339	ltpFR2	5	20	HORNET	718	n/a	n/a	0	0	0
4204.53173828125	n/a	WORD	8610881	wordpools/wasnorm_wordpool_576.txt	LTP339	ltpFR2	5	20	ASIA	46	n/a	n/a	0	0	0
4207.0068359375	n/a	WORD	8615950	wordpools/wasnorm_wordpool_576.txt	LTP339	ltpFR2	5	20	ROCKET	1202	n/a	n/a	0	0	0
4209.74951171875	n/a	WORD	8621567	wordpools/wasnorm_wordpool_576.txt	LTP339	ltpFR2	5	20	SWIMMER	1420	n/a	n/a	0	0	0
4212.42333984375	n/a	WORD	8627043	wordpools/wasnorm_wordpool_576.txt	LTP339	ltpFR2	5	20	STAPLE	1371	n/a	n/a	0	0	0
4214.93115234375	n/a	WORD	8632179	wordpools/wasnorm_wordpool_576.txt	LTP339	ltpFR2	5	20	RECEIPT	1173	n/a	n/a	0	0	0
4217.54052734375	n/a	WORD	8637523	wordpools/wasnorm_wordpool_576.txt	LTP339	ltpFR2	5	20	CASKET	255	n/a	n/a	0	0	0
4220.09814453125	n/a	WORD	8642761	wordpools/wasnorm_wordpool_576.txt	LTP339	ltpFR2	5	20	POISON	1096	n/a	n/a	0	0	0
4222.82421875	n/a	WORD	8648344	wordpools/wasnorm_wordpool_576.txt	LTP339	ltpFR2	5	20	CLOCK	325	n/a	n/a	0	0	0
4225.31494140625	n/a	WORD	8653445	wordpools/wasnorm_wordpool_576.txt	LTP339	ltpFR2	5	20	PIANO	1057	n/a	n/a	0	0	0
4227.97314453125	n/a	WORD	8658889	wordpools/wasnorm_wordpool_576.txt	LTP339	ltpFR2	5	20	PARSLEY	1016	n/a	n/a	0	0	0
4230.75	n/a	WORD	8664576	wordpools/wasnorm_wordpool_576.txt	LTP339	ltpFR2	5	20	BROOK	177	n/a	n/a	0	0	0
4233.3408203125	n/a	WORD	8669882	wordpools/wasnorm_wordpool_576.txt	LTP339	ltpFR2	5	20	PEBBLE	1035	n/a	n/a	0	0	0
4235.8818359375	n/a	WORD	8675086	wordpools/wasnorm_wordpool_576.txt	LTP339	ltpFR2	5	20	COFFEE	341	n/a	n/a	0	0	0
4238.4736328125	n/a	WORD	8680394	wordpools/wasnorm_wordpool_576.txt	LTP339	ltpFR2	5	20	GALLON	618	n/a	n/a	0	0	0
4240.07958984375	n/a	START	8683683	n/a	LTP339	ltpFR2	5	n/a	n/a	n/a	30	n/a	n/a	n/a	n/a
4241.07568359375	n/a	DISTRACTOR	8685723	n/a	LTP339	ltpFR2	5	20	n/a	n/a	n/a	n/a	0	0	0
4241.08251953125	n/a	PROB	8685737	n/a	LTP339	ltpFR2	5	n/a	n/a	n/a	30	19	9	3	7
4243.17236328125	n/a	PROB	8690017	n/a	LTP339	ltpFR2	5	n/a	n/a	n/a	30	9	1	6	2
4246.900390625	n/a	PROB	8697652	n/a	LTP339	ltpFR2	5	n/a	n/a	n/a	30	11	3	5	3
4250.2783203125	n/a	PROB	8704570	n/a	LTP339	ltpFR2	5	n/a	n/a	n/a	30	23	8	8	7
4252.38525390625	n/a	PROB	8708885	n/a	LTP339	ltpFR2	5	n/a	n/a	n/a	30	9	5	1	3
4257.14990234375	n/a	PROB	8718643	n/a	LTP339	ltpFR2	5	n/a	n/a	n/a	30	10	7	4	1
4261.59814453125	n/a	PROB	8727753	n/a	LTP339	ltpFR2	5	n/a	n/a	n/a	30	17	6	7	4
4263.84814453125	n/a	STOP	8732361	n/a	LTP339	ltpFR2	5	n/a	n/a	n/a	30	n/a	n/a	n/a	n/a
4266.0126953125	n/a	REC_START	8736794	n/a	LTP339	ltpFR2	5	20	n/a	n/a	n/a	n/a	0	0	0
4266.5966796875	n/a	REC_WORD	8737990	wordpools/wasnorm_wordpool_576.txt	LTP339	ltpFR2	5	20	PLAZA	1088	n/a	n/a	0	0	0
4267.68603515625	n/a	REC_WORD	8740221	wordpools/wasnorm_wordpool_576.txt	LTP339	ltpFR2	5	20	UMPIRE	1535	n/a	n/a	0	0	0
4268.8046875	n/a	REC_WORD	8742512	wordpools/wasnorm_wordpool_576.txt	LTP339	ltpFR2	5	20	FRIEND	606	n/a	n/a	0	0	0
4269.8798828125	n/a	REC_WORD	8744714	wordpools/wasnorm_wordpool_576.txt	LTP339	ltpFR2	5	20	SIDEWALK	1303	n/a	n/a	0	0	0
4271.294921875	n/a	REC_WORD	8747612	wordpools/wasnorm_wordpool_576.txt	LTP339	ltpFR2	5	20	ASIA	46	n/a	n/a	0	0	0
4279.20849609375	n/a	REC_WORD	8763819	wordpools/wasnorm_wordpool_576.txt	LTP339	ltpFR2	5	20	PIANO	1057	n/a	n/a	0	0	0
4356.46923828125	n/a	WORD	8922049	wordpools/wasnorm_wordpool_576.txt	LTP339	ltpFR2	5	21	POSSUM	1112	n/a	n/a	0	0	0
4358.89306640625	n/a	WORD	8927013	wordpools/wasnorm_wordpool_576.txt	LTP339	ltpFR2	5	21	ICEBERG	731	n/a	n/a	0	0	0
4361.53515625	n/a	WORD	8932424	wordpools/wasnorm_wordpool_576.txt	LTP339	ltpFR2	5	21	KLEENEX	782	n/a	n/a	0	0	0
4363.9599609375	n/a	WORD	8937390	wordpools/wasnorm_wordpool_576.txt	LTP339	ltpFR2	5	21	ROBBER	1197	n/a	n/a	0	0	0
4366.77001953125	n/a	WORD	8943145	wordpools/wasnorm_wordpool_576.txt	LTP339	ltpFR2	5	21	RAZOR	1171	n/a	n/a	0	0	0
4369.34375	n/a	WORD	8948416	wordpools/wasnorm_wordpool_576.txt	LTP339	ltpFR2	5	21	ITEM	746	n/a	n/a	0	0	0
4372.11865234375	n/a	WORD	8954099	wordpools/wasnorm_wordpool_576.txt	LTP339	ltpFR2	5	21	SALAD	1224	n/a	n/a	0	0	0
4374.71142578125	n/a	WORD	8959409	wordpools/wasnorm_wordpool_576.txt	LTP339	ltpFR2	5	21	CABBAGE	210	n/a	n/a	0	0	0
4377.41943359375	n/a	WORD	8964955	wordpools/wasnorm_wordpool_576.txt	LTP339	ltpFR2	5	21	GRIZZLY	662	n/a	n/a	0	0	0
4379.89453125	n/a	WORD	8970024	wordpools/wasnorm_wordpool_576.txt	LTP339	ltpFR2	5	21	CASHIER	254	n/a	n/a	0	0	0
4382.45263671875	n/a	WORD	8975263	wordpools/wasnorm_wordpool_576.txt	LTP339	ltpFR2	5	21	MARKET	871	n/a	n/a	0	0	0
4385.1611328125	n/a	WORD	8980810	wordpools/wasnorm_wordpool_576.txt	LTP339	ltpFR2	5	21	BUG	187	n/a	n/a	0	0	0
4387.8701171875	n/a	WORD	8986358	wordpools/wasnorm_wordpool_576.txt	LTP339	ltpFR2	5	21	ICING	732	n/a	n/a	0	0	0
4390.5283203125	n/a	WORD	8991802	wordpools/wasnorm_wordpool_576.txt	LTP339	ltpFR2	5	21	REBEL	1172	n/a	n/a	0	0	0
4392.96923828125	n/a	WORD	8996801	wordpools/wasnorm_wordpool_576.txt	LTP339	ltpFR2	5	21	BANKER	84	n/a	n/a	0	0	0
4395.39404296875	n/a	WORD	9001767	wordpools/wasnorm_wordpool_576.txt	LTP339	ltpFR2	5	21	STAKE	1368	n/a	n/a	0	0	0
4397.85205078125	n/a	WORD	9006801	wordpools/wasnorm_wordpool_576.txt	LTP339	ltpFR2	5	21	CANAL	226	n/a	n/a	0	0	0
4400.5439453125	n/a	WORD	9012314	wordpools/wasnorm_wordpool_576.txt	LTP339	ltpFR2	5	21	POPCORN	1104	n/a	n/a	0	0	0
4403.21875	n/a	WORD	9017792	wordpools/wasnorm_wordpool_576.txt	LTP339	ltpFR2	5	21	SWORD	1423	n/a	n/a	0	0	0
4405.89453125	n/a	WORD	9023272	wordpools/wasnorm_wordpool_576.txt	LTP339	ltpFR2	5	21	BEAVER	109	n/a	n/a	0	0	0
4408.63671875	n/a	WORD	9028888	wordpools/wasnorm_wordpool_576.txt	LTP339	ltpFR2	5	21	SCOTCH	1251	n/a	n/a	0	0	0
4411.41162109375	n/a	WORD	9034571	wordpools/wasnorm_wordpool_576.txt	LTP339	ltpFR2	5	21	COUSIN	392	n/a	n/a	0	0	0
4414.0703125	n/a	WORD	9040016	wordpools/wasnorm_wordpool_576.txt	LTP339	ltpFR2	5	21	MASK	876	n/a	n/a	0	0	0
4416.54541015625	n/a	WORD	9045085	wordpools/wasnorm_wordpool_576.txt	LTP339	ltpFR2	5	21	MARSH	874	n/a	n/a	0	0	0
4418.150390625	n/a	START	9048372	n/a	LTP339	ltpFR2	5	n/a	n/a	n/a	31	n/a	n/a	n/a	n/a
4419.33837890625	n/a	DISTRACTOR	9050805	n/a	LTP339	ltpFR2	5	21	n/a	n/a	n/a	n/a	0	0	0
4419.3544921875	n/a	PROB	9050838	n/a	LTP339	ltpFR2	5	n/a	n/a	n/a	31	18	3	6	9
4422.09619140625	n/a	PROB	9056453	n/a	LTP339	ltpFR2	5	n/a	n/a	n/a	31	10	3	4	5
4424.119140625	n/a	PROB	9060596	n/a	LTP339	ltpFR2	5	n/a	n/a	n/a	31	17	7	6	4
4426.611328125	n/a	PROB	9065700	n/a	LTP339	ltpFR2	5	n/a	n/a	n/a	31	19	5	8	6
4429.05224609375	n/a	PROB	9070699	n/a	LTP339	ltpFR2	5	n/a	n/a	n/a	31	8	1	5	2
4431.10888671875	n/a	PROB	9074911	n/a	LTP339	ltpFR2	5	n/a	n/a	n/a	31	11	8	1	2
4433.4658203125	n/a	PROB	9079738	n/a	LTP339	ltpFR2	5	n/a	n/a	n/a	31	14	6	2	6
4435.43896484375	n/a	PROB	9083779	n/a	LTP339	ltpFR2	5	n/a	n/a	n/a	31	14	1	9	4
4437.24462890625	n/a	PROB	9087477	n/a	LTP339	ltpFR2	5	n/a	n/a	n/a	31	18	9	2	7
4442.14990234375	n/a	STOP	9097523	n/a	LTP339	ltpFR2	5	n/a	n/a	n/a	31	n/a	n/a	n/a	n/a
4443.91650390625	n/a	REC_START	9101141	n/a	LTP339	ltpFR2	5	21	n/a	n/a	n/a	n/a	0	0	0
4444.634765625	n/a	REC_WORD	9102612	wordpools/wasnorm_wordpool_576.txt	LTP339	ltpFR2	5	21	BEAVER	109	n/a	n/a	0	0	0
4445.44580078125	n/a	REC_WORD	9104273	wordpools/wasnorm_wordpool_576.txt	LTP339	ltpFR2	5	21	POSSUM	1112	n/a	n/a	0	0	0
4446.16650390625	n/a	REC_WORD	9105749	wordpools/wasnorm_wordpool_576.txt	LTP339	ltpFR2	5	21	SCOTCH	1251	n/a	n/a	0	0	0
4447.53466796875	n/a	REC_WORD	9108551	wordpools/wasnorm_wordpool_576.txt	LTP339	ltpFR2	5	21	BUG	187	n/a	n/a	0	0	0
