mstime	trial_type	stim_file	subject	experiment	session	trial	task	item_name	item_num	recog_conf	resp	color_b	color_g	color_r	case	font
0	SESS_START	n/a	LTP137	ltpFR	15	n/a	n/a	n/a	n/a	n/a	n/a	n/a	n/a	n/a	n/a	n/a
63995	WORD	wordpools/wasnorm_wordpool.txt	LTP137	ltpFR	15	1	0	VINE	1568	n/a	0	1	0.412841796875	0.57763671875	upper	../fonts/amplitud.ttf
67999	WORD	wordpools/wasnorm_wordpool.txt	LTP137	ltpFR	15	1	0	DIAGRAM	456	n/a	0	1	0.412841796875	0.57763671875	upper	../fonts/amplitud.ttf
72111	WORD	wordpools/wasnorm_wordpool.txt	LTP137	ltpFR	15	1	1	THIGH	1457	n/a	0	0	0.5869140625	0.422607421875	lower	../fonts/zerothre.ttf
75956	WORD	wordpools/wasnorm_wordpool.txt	LTP137	ltpFR	15	1	1	ANKLE	24	n/a	0	0	0.5869140625	0.422607421875	lower	../fonts/zerothre.ttf
80085	WORD	wordpools/wasnorm_wordpool.txt	LTP137	ltpFR	15	1	1	LID	817	n/a	0	0	0.5869140625	0.422607421875	lower	../fonts/zerothre.ttf
84172	WORD	wordpools/wasnorm_wordpool.txt	LTP137	ltpFR	15	1	1	CAPTAIN	239	n/a	1	0	0.5869140625	0.422607421875	lower	../fonts/zerothre.ttf
88209	WORD	wordpools/wasnorm_wordpool.txt	LTP137	ltpFR	15	1	0	THIEF	1456	n/a	1	1	0.412841796875	0.57763671875	upper	../fonts/amplitud.ttf
92229	WORD	wordpools/wasnorm_wordpool.txt	LTP137	ltpFR	15	1	0	CABINET	212	n/a	1	1	0.412841796875	0.57763671875	upper	../fonts/amplitud.ttf
96274	WORD	wordpools/wasnorm_wordpool.txt	LTP137	ltpFR	15	1	0	ZEBRA	1635	n/a	1	1	0.412841796875	0.57763671875	upper	../fonts/amplitud.ttf
100278	WORD	wordpools/wasnorm_wordpool.txt	LTP137	ltpFR	15	1	1	JUGGLER	763	n/a	1	0	0.5869140625	0.422607421875	lower	../fonts/zerothre.ttf
104423	WORD	wordpools/wasnorm_wordpool.txt	LTP137	ltpFR	15	1	1	PIER	1063	n/a	0	0	0.5869140625	0.422607421875	lower	../fonts/zerothre.ttf
108319	WORD	wordpools/wasnorm_wordpool.txt	LTP137	ltpFR	15	1	1	REPTILE	1185	n/a	1	0	0.5869140625	0.422607421875	lower	../fonts/zerothre.ttf
112446	WORD	wordpools/wasnorm_wordpool.txt	LTP137	ltpFR	15	1	1	LIZARD	834	n/a	1	0	0.5869140625	0.422607421875	lower	../fonts/zerothre.ttf
116301	WORD	wordpools/wasnorm_wordpool.txt	LTP137	ltpFR	15	1	0	STALLION	1369	n/a	1	1	0.412841796875	0.57763671875	upper	../fonts/amplitud.ttf
120138	WORD	wordpools/wasnorm_wordpool.txt	LTP137	ltpFR	15	1	0	RAILROAD	1162	n/a	1	1	0.412841796875	0.57763671875	upper	../fonts/amplitud.ttf
124034	WORD	wordpools/wasnorm_wordpool.txt	LTP137	ltpFR	15	1	0	TAR	1435	n/a	0	1	0.412841796875	0.57763671875	upper	../fonts/amplitud.ttf
130003	REC_START	n/a	LTP137	ltpFR	15	1	n/a	n/a	n/a	n/a	n/a	n/a	n/a	n/a	n/a	n/a
131898	REC_WORD	wordpools/wasnorm_wordpool.txt	LTP137	ltpFR	15	1	1	CAPTAIN	239	n/a	1	n/a	n/a	n/a	n/a	n/a
132901	REC_WORD_VV	wordpools/wasnorm_wordpool.txt	LTP137	ltpFR	15	1	n/a	<>	-1	n/a	n/a	n/a	n/a	n/a	n/a	n/a
133200	REC_WORD	wordpools/wasnorm_wordpool.txt	LTP137	ltpFR	15	1	0	THIEF	1456	n/a	1	n/a	n/a	n/a	n/a	n/a
134398	REC_WORD	wordpools/wasnorm_wordpool.txt	LTP137	ltpFR	15	1	1	PIER	1063	n/a	0	n/a	n/a	n/a	n/a	n/a
135281	REC_WORD	wordpools/wasnorm_wordpool.txt	LTP137	ltpFR	15	1	0	TAR	1435	n/a	0	n/a	n/a	n/a	n/a	n/a
136508	REC_WORD	wordpools/wasnorm_wordpool.txt	LTP137	ltpFR	15	1	1	ANKLE	24	n/a	0	n/a	n/a	n/a	n/a	n/a
137650	REC_WORD	wordpools/wasnorm_wordpool.txt	LTP137	ltpFR	15	1	1	THIGH	1457	n/a	0	n/a	n/a	n/a	n/a	n/a
139167	REC_WORD	wordpools/wasnorm_wordpool.txt	LTP137	ltpFR	15	1	1	LID	817	n/a	0	n/a	n/a	n/a	n/a	n/a
141706	REC_WORD	wordpools/wasnorm_wordpool.txt	LTP137	ltpFR	15	1	0	VINE	1568	n/a	0	n/a	n/a	n/a	n/a	n/a
142669	REC_WORD	wordpools/wasnorm_wordpool.txt	LTP137	ltpFR	15	1	0	DIAGRAM	456	n/a	0	n/a	n/a	n/a	n/a	n/a
162090	REC_WORD	wordpools/wasnorm_wordpool.txt	LTP137	ltpFR	15	1	1	LIZARD	834	n/a	1	n/a	n/a	n/a	n/a	n/a
163092	REC_WORD	wordpools/wasnorm_wordpool.txt	LTP137	ltpFR	15	1	1	REPTILE	1185	n/a	1	n/a	n/a	n/a	n/a	n/a
164444	REC_WORD_VV	wordpools/wasnorm_wordpool.txt	LTP137	ltpFR	15	1	n/a	<>	-1	n/a	n/a	n/a	n/a	n/a	n/a	n/a
183531	REC_WORD	wordpools/wasnorm_wordpool.txt	LTP137	ltpFR	15	1	0	RAILROAD	1162	n/a	1	n/a	n/a	n/a	n/a	n/a
216517	WORD	wordpools/wasnorm_wordpool.txt	LTP137	ltpFR	15	2	1	FOX	598	n/a	1	0	0.5869140625	0.422607421875	lower	../fonts/zerothre.ttf
220504	WORD	wordpools/wasnorm_wordpool.txt	LTP137	ltpFR	15	2	1	MOOSE	915	n/a	1	0	0.5869140625	0.422607421875	lower	../fonts/zerothre.ttf
224401	WORD	wordpools/wasnorm_wordpool.txt	LTP137	ltpFR	15	2	1	SHIRT	1287	n/a	0	0	0.5869140625	0.422607421875	lower	../fonts/zerothre.ttf
228280	WORD	wordpools/wasnorm_wordpool.txt	LTP137	ltpFR	15	2	1	PECAN	1036	n/a	0	0	0.5869140625	0.422607421875	lower	../fonts/zerothre.ttf
232167	WORD	wordpools/wasnorm_wordpool.txt	LTP137	ltpFR	15	2	0	DEPUTY	450	n/a	1	1	0.412841796875	0.57763671875	upper	../fonts/amplitud.ttf
236087	WORD	wordpools/wasnorm_wordpool.txt	LTP137	ltpFR	15	2	0	COAT	333	n/a	0	1	0.412841796875	0.57763671875	upper	../fonts/amplitud.ttf
240174	WORD	wordpools/wasnorm_wordpool.txt	LTP137	ltpFR	15	2	1	DISC	473	n/a	0	0	0.5869140625	0.422607421875	lower	../fonts/zerothre.ttf
244286	WORD	wordpools/wasnorm_wordpool.txt	LTP137	ltpFR	15	2	1	BABY	64	n/a	1	0	0.5869140625	0.422607421875	lower	../fonts/zerothre.ttf
248431	WORD	wordpools/wasnorm_wordpool.txt	LTP137	ltpFR	15	2	1	INFANT	737	n/a	1	0	0.5869140625	0.422607421875	lower	../fonts/zerothre.ttf
252377	WORD	wordpools/wasnorm_wordpool.txt	LTP137	ltpFR	15	2	1	CRADLE	399	n/a	0	0	0.5869140625	0.422607421875	lower	../fonts/zerothre.ttf
256571	WORD	wordpools/wasnorm_wordpool.txt	LTP137	ltpFR	15	2	0	QUARTER	1148	n/a	0	1	0.412841796875	0.57763671875	upper	../fonts/amplitud.ttf
260533	WORD	wordpools/wasnorm_wordpool.txt	LTP137	ltpFR	15	2	0	PEANUT	1032	n/a	0	1	0.412841796875	0.57763671875	upper	../fonts/amplitud.ttf
264363	WORD	wordpools/wasnorm_wordpool.txt	LTP137	ltpFR	15	2	0	GUITAR	670	n/a	1	1	0.412841796875	0.57763671875	upper	../fonts/amplitud.ttf
268192	WORD	wordpools/wasnorm_wordpool.txt	LTP137	ltpFR	15	2	0	CARAVAN	242	n/a	1	1	0.412841796875	0.57763671875	upper	../fonts/amplitud.ttf
272212	WORD	wordpools/wasnorm_wordpool.txt	LTP137	ltpFR	15	2	0	STAKE	1368	n/a	1	1	0.412841796875	0.57763671875	upper	../fonts/amplitud.ttf
276091	WORD	wordpools/wasnorm_wordpool.txt	LTP137	ltpFR	15	2	0	TIMBER	1469	n/a	1	1	0.412841796875	0.57763671875	upper	../fonts/amplitud.ttf
281818	REC_START	n/a	LTP137	ltpFR	15	2	n/a	n/a	n/a	n/a	n/a	n/a	n/a	n/a	n/a	n/a
283200	REC_WORD	wordpools/wasnorm_wordpool.txt	LTP137	ltpFR	15	2	0	CARAVAN	242	n/a	1	n/a	n/a	n/a	n/a	n/a
284012	REC_WORD	wordpools/wasnorm_wordpool.txt	LTP137	ltpFR	15	2	0	STAKE	1368	n/a	1	n/a	n/a	n/a	n/a	n/a
285300	REC_WORD	wordpools/wasnorm_wordpool.txt	LTP137	ltpFR	15	2	0	TIMBER	1469	n/a	1	n/a	n/a	n/a	n/a	n/a
287899	REC_WORD	wordpools/wasnorm_wordpool.txt	LTP137	ltpFR	15	2	1	DISC	473	n/a	0	n/a	n/a	n/a	n/a	n/a
289026	REC_WORD	wordpools/wasnorm_wordpool.txt	LTP137	ltpFR	15	2	1	BABY	64	n/a	1	n/a	n/a	n/a	n/a	n/a
289943	REC_WORD	wordpools/wasnorm_wordpool.txt	LTP137	ltpFR	15	2	1	CRADLE	399	n/a	0	n/a	n/a	n/a	n/a	n/a
291964	REC_WORD	wordpools/wasnorm_wordpool.txt	LTP137	ltpFR	15	2	0	PEANUT	1032	n/a	0	n/a	n/a	n/a	n/a	n/a
293564	REC_WORD	wordpools/wasnorm_wordpool.txt	LTP137	ltpFR	15	2	1	INFANT	737	n/a	1	n/a	n/a	n/a	n/a	n/a
298719	REC_WORD	wordpools/wasnorm_wordpool.txt	LTP137	ltpFR	15	2	1	FOX	598	n/a	1	n/a	n/a	n/a	n/a	n/a
299767	REC_WORD	wordpools/wasnorm_wordpool.txt	LTP137	ltpFR	15	2	1	MOOSE	915	n/a	1	n/a	n/a	n/a	n/a	n/a
300854	REC_WORD	wordpools/wasnorm_wordpool.txt	LTP137	ltpFR	15	2	0	DEPUTY	450	n/a	1	n/a	n/a	n/a	n/a	n/a
302296	REC_WORD	wordpools/wasnorm_wordpool.txt	LTP137	ltpFR	15	2	0	QUARTER	1148	n/a	0	n/a	n/a	n/a	n/a	n/a
303902	REC_WORD	wordpools/wasnorm_wordpool.txt	LTP137	ltpFR	15	2	0	PEANUT	1032	n/a	0	n/a	n/a	n/a	n/a	n/a
316155	REC_WORD	wordpools/wasnorm_wordpool.txt	LTP137	ltpFR	15	2	n/a	MUSIC	-1	n/a	n/a	n/a	n/a	n/a	n/a	n/a
317571	REC_WORD	wordpools/wasnorm_wordpool.txt	LTP137	ltpFR	15	2	0	GUITAR	670	n/a	1	n/a	n/a	n/a	n/a	n/a
339417	REC_WORD	wordpools/wasnorm_wordpool.txt	LTP137	ltpFR	15	2	1	SHIRT	1287	n/a	0	n/a	n/a	n/a	n/a	n/a
362957	WORD	wordpools/wasnorm_wordpool.txt	LTP137	ltpFR	15	3	0	WAREHOUSE	1588	n/a	1	1	0.412841796875	0.57763671875	upper	../fonts/amplitud.ttf
366794	WORD	wordpools/wasnorm_wordpool.txt	LTP137	ltpFR	15	3	0	MOB	904	n/a	1	1	0.412841796875	0.57763671875	upper	../fonts/amplitud.ttf
370856	WORD	wordpools/wasnorm_wordpool.txt	LTP137	ltpFR	15	3	0	BROCCOLI	176	n/a	0	1	0.412841796875	0.57763671875	upper	../fonts/amplitud.ttf
375002	WORD	wordpools/wasnorm_wordpool.txt	LTP137	ltpFR	15	3	0	TUXEDO	1525	n/a	1	1	0.412841796875	0.57763671875	upper	../fonts/amplitud.ttf
378897	WORD	wordpools/wasnorm_wordpool.txt	LTP137	ltpFR	15	3	0	NECKLACE	940	n/a	0	1	0.412841796875	0.57763671875	upper	../fonts/amplitud.ttf
382734	WORD	wordpools/wasnorm_wordpool.txt	LTP137	ltpFR	15	3	0	PEARL	1034	n/a	0	1	0.412841796875	0.57763671875	upper	../fonts/amplitud.ttf
386896	WORD	wordpools/wasnorm_wordpool.txt	LTP137	ltpFR	15	3	0	GANG	619	n/a	0	1	0.412841796875	0.57763671875	upper	../fonts/amplitud.ttf
390750	WORD	wordpools/wasnorm_wordpool.txt	LTP137	ltpFR	15	3	0	SPIDER	1351	n/a	0	1	0.412841796875	0.57763671875	upper	../fonts/amplitud.ttf
394704	WORD	wordpools/wasnorm_wordpool.txt	LTP137	ltpFR	15	3	0	MAN	862	n/a	1	1	0.412841796875	0.57763671875	upper	../fonts/amplitud.ttf
398557	WORD	wordpools/wasnorm_wordpool.txt	LTP137	ltpFR	15	3	0	SKYSCRAPER	1322	n/a	1	1	0.412841796875	0.57763671875	upper	../fonts/amplitud.ttf
402728	WORD	wordpools/wasnorm_wordpool.txt	LTP137	ltpFR	15	3	0	SHERIFF	1284	n/a	1	1	0.412841796875	0.57763671875	upper	../fonts/amplitud.ttf
406815	WORD	wordpools/wasnorm_wordpool.txt	LTP137	ltpFR	15	3	0	BULLY	196	n/a	1	1	0.412841796875	0.57763671875	upper	../fonts/amplitud.ttf
410710	WORD	wordpools/wasnorm_wordpool.txt	LTP137	ltpFR	15	3	0	MATTRESS	879	n/a	1	1	0.412841796875	0.57763671875	upper	../fonts/amplitud.ttf
414755	WORD	wordpools/wasnorm_wordpool.txt	LTP137	ltpFR	15	3	0	WILDERNESS	1610	n/a	1	1	0.412841796875	0.57763671875	upper	../fonts/amplitud.ttf
418734	WORD	wordpools/wasnorm_wordpool.txt	LTP137	ltpFR	15	3	0	TAG	1429	n/a	0	1	0.412841796875	0.57763671875	upper	../fonts/amplitud.ttf
422796	WORD	wordpools/wasnorm_wordpool.txt	LTP137	ltpFR	15	3	0	WARDROBE	1587	n/a	1	1	0.412841796875	0.57763671875	upper	../fonts/amplitud.ttf
428631	REC_START	n/a	LTP137	ltpFR	15	3	n/a	n/a	n/a	n/a	n/a	n/a	n/a	n/a	n/a	n/a
430387	REC_WORD	wordpools/wasnorm_wordpool.txt	LTP137	ltpFR	15	3	0	WAREHOUSE	1588	n/a	1	n/a	n/a	n/a	n/a	n/a
431599	REC_WORD	wordpools/wasnorm_wordpool.txt	LTP137	ltpFR	15	3	0	BROCCOLI	176	n/a	0	n/a	n/a	n/a	n/a	n/a
432736	REC_WORD	wordpools/wasnorm_wordpool.txt	LTP137	ltpFR	15	3	0	TAG	1429	n/a	0	n/a	n/a	n/a	n/a	n/a
433465	REC_WORD	wordpools/wasnorm_wordpool.txt	LTP137	ltpFR	15	3	0	WARDROBE	1587	n/a	1	n/a	n/a	n/a	n/a	n/a
435031	REC_WORD	wordpools/wasnorm_wordpool.txt	LTP137	ltpFR	15	3	0	GANG	619	n/a	0	n/a	n/a	n/a	n/a	n/a
435989	REC_WORD	wordpools/wasnorm_wordpool.txt	LTP137	ltpFR	15	3	0	MOB	904	n/a	1	n/a	n/a	n/a	n/a	n/a
437805	REC_WORD	wordpools/wasnorm_wordpool.txt	LTP137	ltpFR	15	3	0	PEARL	1034	n/a	0	n/a	n/a	n/a	n/a	n/a
438852	REC_WORD	wordpools/wasnorm_wordpool.txt	LTP137	ltpFR	15	3	0	NECKLACE	940	n/a	0	n/a	n/a	n/a	n/a	n/a
439852	REC_WORD_VV	wordpools/wasnorm_wordpool.txt	LTP137	ltpFR	15	3	n/a	<>	-1	n/a	n/a	n/a	n/a	n/a	n/a	n/a
443347	REC_WORD	wordpools/wasnorm_wordpool.txt	LTP137	ltpFR	15	3	0	MATTRESS	879	n/a	1	n/a	n/a	n/a	n/a	n/a
444347	REC_WORD_VV	wordpools/wasnorm_wordpool.txt	LTP137	ltpFR	15	3	n/a	<>	-1	n/a	n/a	n/a	n/a	n/a	n/a	n/a
444784	REC_WORD	wordpools/wasnorm_wordpool.txt	LTP137	ltpFR	15	3	0	WILDERNESS	1610	n/a	1	n/a	n/a	n/a	n/a	n/a
456772	REC_WORD	wordpools/wasnorm_wordpool.txt	LTP137	ltpFR	15	3	n/a	WALL	1582	n/a	n/a	n/a	n/a	n/a	n/a	n/a
458049	REC_WORD	wordpools/wasnorm_wordpool.txt	LTP137	ltpFR	15	3	0	TAG	1429	n/a	0	n/a	n/a	n/a	n/a	n/a
469303	REC_WORD	wordpools/wasnorm_wordpool.txt	LTP137	ltpFR	15	3	n/a	BUILDING	191	n/a	n/a	n/a	n/a	n/a	n/a	n/a
470375	REC_WORD	wordpools/wasnorm_wordpool.txt	LTP137	ltpFR	15	3	0	SKYSCRAPER	1322	n/a	1	n/a	n/a	n/a	n/a	n/a
471375	REC_WORD_VV	wordpools/wasnorm_wordpool.txt	LTP137	ltpFR	15	3	n/a	<>	-1	n/a	n/a	n/a	n/a	n/a	n/a	n/a
493733	REC_WORD	wordpools/wasnorm_wordpool.txt	LTP137	ltpFR	15	3	0	SHERIFF	1284	n/a	1	n/a	n/a	n/a	n/a	n/a
499190	REC_WORD	wordpools/wasnorm_wordpool.txt	LTP137	ltpFR	15	3	0	TUXEDO	1525	n/a	1	n/a	n/a	n/a	n/a	n/a
526901	WORD	wordpools/wasnorm_wordpool.txt	LTP137	ltpFR	15	4	1	ANTENNA	28	n/a	0	0	0.5869140625	0.422607421875	lower	../fonts/zerothre.ttf
530846	WORD	wordpools/wasnorm_wordpool.txt	LTP137	ltpFR	15	4	1	FLAG	573	n/a	0	0	0.5869140625	0.422607421875	lower	../fonts/zerothre.ttf
534958	WORD	wordpools/wasnorm_wordpool.txt	LTP137	ltpFR	15	4	1	MEADOW	881	n/a	1	0	0.5869140625	0.422607421875	lower	../fonts/zerothre.ttf
538803	WORD	wordpools/wasnorm_wordpool.txt	LTP137	ltpFR	15	4	1	HORNET	718	n/a	1	0	0.5869140625	0.422607421875	lower	../fonts/zerothre.ttf
542640	WORD	wordpools/wasnorm_wordpool.txt	LTP137	ltpFR	15	4	1	PRIEST	1122	n/a	1	0	0.5869140625	0.422607421875	lower	../fonts/zerothre.ttf
546494	WORD	wordpools/wasnorm_wordpool.txt	LTP137	ltpFR	15	4	1	CHURCH	307	n/a	0	0	0.5869140625	0.422607421875	lower	../fonts/zerothre.ttf
550315	WORD	wordpools/wasnorm_wordpool.txt	LTP137	ltpFR	15	4	0	BROOK	177	n/a	1	1	0.412841796875	0.57763671875	upper	../fonts/amplitud.ttf
554319	WORD	wordpools/wasnorm_wordpool.txt	LTP137	ltpFR	15	4	0	DUCK	504	n/a	0	1	0.412841796875	0.57763671875	upper	../fonts/amplitud.ttf
558364	WORD	wordpools/wasnorm_wordpool.txt	LTP137	ltpFR	15	4	0	STRING	1394	n/a	0	1	0.412841796875	0.57763671875	upper	../fonts/amplitud.ttf
562351	WORD	wordpools/wasnorm_wordpool.txt	LTP137	ltpFR	15	4	0	LOOP	844	n/a	0	1	0.412841796875	0.57763671875	upper	../fonts/amplitud.ttf
566163	WORD	wordpools/wasnorm_wordpool.txt	LTP137	ltpFR	15	4	1	SHAMPOO	1274	n/a	0	0	0.5869140625	0.422607421875	lower	../fonts/zerothre.ttf
570325	WORD	wordpools/wasnorm_wordpool.txt	LTP137	ltpFR	15	4	1	BLOUSE	139	n/a	0	0	0.5869140625	0.422607421875	lower	../fonts/zerothre.ttf
574444	WORD	wordpools/wasnorm_wordpool.txt	LTP137	ltpFR	15	4	0	ROSE	1212	n/a	0	1	0.412841796875	0.57763671875	upper	../fonts/amplitud.ttf
578531	WORD	wordpools/wasnorm_wordpool.txt	LTP137	ltpFR	15	4	0	BEE	112	n/a	0	1	0.412841796875	0.57763671875	upper	../fonts/amplitud.ttf
582719	WORD	wordpools/wasnorm_wordpool.txt	LTP137	ltpFR	15	4	0	SOLDIER	1344	n/a	1	1	0.412841796875	0.57763671875	upper	../fonts/amplitud.ttf
586630	WORD	wordpools/wasnorm_wordpool.txt	LTP137	ltpFR	15	4	0	ORCHID	982	n/a	0	1	0.412841796875	0.57763671875	upper	../fonts/amplitud.ttf
592226	REC_START	n/a	LTP137	ltpFR	15	4	n/a	n/a	n/a	n/a	n/a	n/a	n/a	n/a	n/a	n/a
593862	REC_WORD	wordpools/wasnorm_wordpool.txt	LTP137	ltpFR	15	4	0	ORCHID	982	n/a	0	n/a	n/a	n/a	n/a	n/a
594790	REC_WORD	wordpools/wasnorm_wordpool.txt	LTP137	ltpFR	15	4	1	BLOUSE	139	n/a	0	n/a	n/a	n/a	n/a	n/a
595588	REC_WORD	wordpools/wasnorm_wordpool.txt	LTP137	ltpFR	15	4	1	SHAMPOO	1274	n/a	0	n/a	n/a	n/a	n/a	n/a
599938	REC_WORD	wordpools/wasnorm_wordpool.txt	LTP137	ltpFR	15	4	1	PRIEST	1122	n/a	1	n/a	n/a	n/a	n/a	n/a
602238	REC_WORD	wordpools/wasnorm_wordpool.txt	LTP137	ltpFR	15	4	1	ANTENNA	28	n/a	0	n/a	n/a	n/a	n/a	n/a
603071	REC_WORD	wordpools/wasnorm_wordpool.txt	LTP137	ltpFR	15	4	1	FLAG	573	n/a	0	n/a	n/a	n/a	n/a	n/a
604219	REC_WORD	wordpools/wasnorm_wordpool.txt	LTP137	ltpFR	15	4	1	MEADOW	881	n/a	1	n/a	n/a	n/a	n/a	n/a
605396	REC_WORD	wordpools/wasnorm_wordpool.txt	LTP137	ltpFR	15	4	0	BEE	112	n/a	0	n/a	n/a	n/a	n/a	n/a
606074	REC_WORD	wordpools/wasnorm_wordpool.txt	LTP137	ltpFR	15	4	1	HORNET	718	n/a	1	n/a	n/a	n/a	n/a	n/a
607591	REC_WORD	wordpools/wasnorm_wordpool.txt	LTP137	ltpFR	15	4	0	BROOK	177	n/a	1	n/a	n/a	n/a	n/a	n/a
608863	REC_WORD	wordpools/wasnorm_wordpool.txt	LTP137	ltpFR	15	4	0	DUCK	504	n/a	0	n/a	n/a	n/a	n/a	n/a
611766	REC_WORD	wordpools/wasnorm_wordpool.txt	LTP137	ltpFR	15	4	1	CHURCH	307	n/a	0	n/a	n/a	n/a	n/a	n/a
621987	REC_WORD	wordpools/wasnorm_wordpool.txt	LTP137	ltpFR	15	4	0	SOLDIER	1344	n/a	1	n/a	n/a	n/a	n/a	n/a
640635	REC_WORD	wordpools/wasnorm_wordpool.txt	LTP137	ltpFR	15	4	n/a	FLOWER	584	n/a	n/a	n/a	n/a	n/a	n/a	n/a
642127	REC_WORD	wordpools/wasnorm_wordpool.txt	LTP137	ltpFR	15	4	0	ROSE	1212	n/a	0	n/a	n/a	n/a	n/a	n/a
643365	REC_WORD	wordpools/wasnorm_wordpool.txt	LTP137	ltpFR	15	4	0	ORCHID	982	n/a	0	n/a	n/a	n/a	n/a	n/a
666692	REC_WORD	wordpools/wasnorm_wordpool.txt	LTP137	ltpFR	15	4	0	STRING	1394	n/a	0	n/a	n/a	n/a	n/a	n/a
694040	WORD	wordpools/wasnorm_wordpool.txt	LTP137	ltpFR	15	5	0	GROUND	666	n/a	1	1	0.412841796875	0.57763671875	upper	../fonts/amplitud.ttf
697861	WORD	wordpools/wasnorm_wordpool.txt	LTP137	ltpFR	15	5	0	NAIL	936	n/a	0	1	0.412841796875	0.57763671875	upper	../fonts/amplitud.ttf
701890	WORD	wordpools/wasnorm_wordpool.txt	LTP137	ltpFR	15	5	0	GROCERIES	663	n/a	1	1	0.412841796875	0.57763671875	upper	../fonts/amplitud.ttf
705910	WORD	wordpools/wasnorm_wordpool.txt	LTP137	ltpFR	15	5	0	RUG	1215	n/a	1	1	0.412841796875	0.57763671875	upper	../fonts/amplitud.ttf
709789	WORD	wordpools/wasnorm_wordpool.txt	LTP137	ltpFR	15	5	0	PAINTER	1004	n/a	1	1	0.412841796875	0.57763671875	upper	../fonts/amplitud.ttf
713959	WORD	wordpools/wasnorm_wordpool.txt	LTP137	ltpFR	15	5	0	FLY	586	n/a	0	1	0.412841796875	0.57763671875	upper	../fonts/amplitud.ttf
718037	WORD	wordpools/wasnorm_wordpool.txt	LTP137	ltpFR	15	5	1	CRICKET	408	n/a	1	0	0.5869140625	0.422607421875	lower	../fonts/zerothre.ttf
722149	WORD	wordpools/wasnorm_wordpool.txt	LTP137	ltpFR	15	5	1	GODDESS	646	n/a	1	0	0.5869140625	0.422607421875	lower	../fonts/zerothre.ttf
726012	WORD	wordpools/wasnorm_wordpool.txt	LTP137	ltpFR	15	5	1	TEMPLE	1448	n/a	0	0	0.5869140625	0.422607421875	lower	../fonts/zerothre.ttf
730032	WORD	wordpools/wasnorm_wordpool.txt	LTP137	ltpFR	15	5	1	VAN	1548	n/a	0	0	0.5869140625	0.422607421875	lower	../fonts/zerothre.ttf
734111	WORD	wordpools/wasnorm_wordpool.txt	LTP137	ltpFR	15	5	0	PUB	1135	n/a	1	1	0.412841796875	0.57763671875	upper	../fonts/amplitud.ttf
738039	WORD	wordpools/wasnorm_wordpool.txt	LTP137	ltpFR	15	5	0	CUSTARD	429	n/a	1	1	0.412841796875	0.57763671875	upper	../fonts/amplitud.ttf
742010	WORD	wordpools/wasnorm_wordpool.txt	LTP137	ltpFR	15	5	1	TOOTH	1481	n/a	0	0	0.5869140625	0.422607421875	lower	../fonts/zerothre.ttf
745855	WORD	wordpools/wasnorm_wordpool.txt	LTP137	ltpFR	15	5	1	CAVITY	264	n/a	0	0	0.5869140625	0.422607421875	lower	../fonts/zerothre.ttf
749917	WORD	wordpools/wasnorm_wordpool.txt	LTP137	ltpFR	15	5	1	CLERK	321	n/a	1	0	0.5869140625	0.422607421875	lower	../fonts/zerothre.ttf
753963	WORD	wordpools/wasnorm_wordpool.txt	LTP137	ltpFR	15	5	1	PISTON	1076	n/a	0	0	0.5869140625	0.422607421875	lower	../fonts/zerothre.ttf
759923	REC_START	n/a	LTP137	ltpFR	15	5	n/a	n/a	n/a	n/a	n/a	n/a	n/a	n/a	n/a	n/a
761045	REC_WORD	wordpools/wasnorm_wordpool.txt	LTP137	ltpFR	15	5	1	CLERK	321	n/a	1	n/a	n/a	n/a	n/a	n/a
761958	REC_WORD	wordpools/wasnorm_wordpool.txt	LTP137	ltpFR	15	5	1	PISTON	1076	n/a	0	n/a	n/a	n/a	n/a	n/a
764662	REC_WORD	wordpools/wasnorm_wordpool.txt	LTP137	ltpFR	15	5	0	PUB	1135	n/a	1	n/a	n/a	n/a	n/a	n/a
766677	REC_WORD	wordpools/wasnorm_wordpool.txt	LTP137	ltpFR	15	5	1	TEMPLE	1448	n/a	0	n/a	n/a	n/a	n/a	n/a
767540	REC_WORD	wordpools/wasnorm_wordpool.txt	LTP137	ltpFR	15	5	1	VAN	1548	n/a	0	n/a	n/a	n/a	n/a	n/a
769241	REC_WORD	wordpools/wasnorm_wordpool.txt	LTP137	ltpFR	15	5	0	PAINTER	1004	n/a	1	n/a	n/a	n/a	n/a	n/a
770234	REC_WORD	wordpools/wasnorm_wordpool.txt	LTP137	ltpFR	15	5	0	NAIL	936	n/a	0	n/a	n/a	n/a	n/a	n/a
771052	REC_WORD	wordpools/wasnorm_wordpool.txt	LTP137	ltpFR	15	5	0	GROUND	666	n/a	1	n/a	n/a	n/a	n/a	n/a
776225	REC_WORD	wordpools/wasnorm_wordpool.txt	LTP137	ltpFR	15	5	n/a	FOOD	-1	n/a	n/a	n/a	n/a	n/a	n/a	n/a
777658	REC_WORD	wordpools/wasnorm_wordpool.txt	LTP137	ltpFR	15	5	0	CUSTARD	429	n/a	1	n/a	n/a	n/a	n/a	n/a
779104	REC_WORD	wordpools/wasnorm_wordpool.txt	LTP137	ltpFR	15	5	1	GODDESS	646	n/a	1	n/a	n/a	n/a	n/a	n/a
782457	REC_WORD	wordpools/wasnorm_wordpool.txt	LTP137	ltpFR	15	5	1	TOOTH	1481	n/a	0	n/a	n/a	n/a	n/a	n/a
783365	REC_WORD	wordpools/wasnorm_wordpool.txt	LTP137	ltpFR	15	5	1	CAVITY	264	n/a	0	n/a	n/a	n/a	n/a	n/a
787718	REC_WORD	wordpools/wasnorm_wordpool.txt	LTP137	ltpFR	15	5	0	FLY	586	n/a	0	n/a	n/a	n/a	n/a	n/a
800086	REC_WORD	wordpools/wasnorm_wordpool.txt	LTP137	ltpFR	15	5	1	PISTON	1076	n/a	0	n/a	n/a	n/a	n/a	n/a
812897	REC_WORD	wordpools/wasnorm_wordpool.txt	LTP137	ltpFR	15	5	1	CRICKET	408	n/a	1	n/a	n/a	n/a	n/a	n/a
827958	REC_WORD	wordpools/wasnorm_wordpool.txt	LTP137	ltpFR	15	5	0	GROCERIES	663	n/a	1	n/a	n/a	n/a	n/a	n/a
833820	REC_WORD	wordpools/wasnorm_wordpool.txt	LTP137	ltpFR	15	5	0	RUG	1215	n/a	1	n/a	n/a	n/a	n/a	n/a
860930	WORD	wordpools/wasnorm_wordpool.txt	LTP137	ltpFR	15	6	0	WORKER	1621	n/a	1	1	0.412841796875	0.57763671875	upper	../fonts/amplitud.ttf
864959	WORD	wordpools/wasnorm_wordpool.txt	LTP137	ltpFR	15	6	0	SUPPER	1411	n/a	1	1	0.412841796875	0.57763671875	upper	../fonts/amplitud.ttf
868821	WORD	wordpools/wasnorm_wordpool.txt	LTP137	ltpFR	15	6	0	FOE	587	n/a	1	1	0.412841796875	0.57763671875	upper	../fonts/amplitud.ttf
872983	WORD	wordpools/wasnorm_wordpool.txt	LTP137	ltpFR	15	6	0	TRENCH	1503	n/a	1	1	0.412841796875	0.57763671875	upper	../fonts/amplitud.ttf
877186	WORD	wordpools/wasnorm_wordpool.txt	LTP137	ltpFR	15	6	0	JACKET	747	n/a	1	1	0.412841796875	0.57763671875	upper	../fonts/amplitud.ttf
881082	WORD	wordpools/wasnorm_wordpool.txt	LTP137	ltpFR	15	6	0	SERPENT	1270	n/a	1	1	0.412841796875	0.57763671875	upper	../fonts/amplitud.ttf
885102	WORD	wordpools/wasnorm_wordpool.txt	LTP137	ltpFR	15	6	0	SNAKE	1333	n/a	1	1	0.412841796875	0.57763671875	upper	../fonts/amplitud.ttf
888948	WORD	wordpools/wasnorm_wordpool.txt	LTP137	ltpFR	15	6	0	SCRIBBLE	1256	n/a	0	1	0.412841796875	0.57763671875	upper	../fonts/amplitud.ttf
893026	WORD	wordpools/wasnorm_wordpool.txt	LTP137	ltpFR	15	6	0	MAGAZINE	853	n/a	0	1	0.412841796875	0.57763671875	upper	../fonts/amplitud.ttf
897039	WORD	wordpools/wasnorm_wordpool.txt	LTP137	ltpFR	15	6	0	WAIST	1579	n/a	0	1	0.412841796875	0.57763671875	upper	../fonts/amplitud.ttf
901167	WORD	wordpools/wasnorm_wordpool.txt	LTP137	ltpFR	15	6	0	CARPENTER	246	n/a	1	1	0.412841796875	0.57763671875	upper	../fonts/amplitud.ttf
905013	WORD	wordpools/wasnorm_wordpool.txt	LTP137	ltpFR	15	6	0	NAVIGATOR	938	n/a	1	1	0.412841796875	0.57763671875	upper	../fonts/amplitud.ttf
908875	WORD	wordpools/wasnorm_wordpool.txt	LTP137	ltpFR	15	6	0	BOSS	152	n/a	1	1	0.412841796875	0.57763671875	upper	../fonts/amplitud.ttf
912837	WORD	wordpools/wasnorm_wordpool.txt	LTP137	ltpFR	15	6	0	SCOTCH	1251	n/a	0	1	0.412841796875	0.57763671875	upper	../fonts/amplitud.ttf
917032	WORD	wordpools/wasnorm_wordpool.txt	LTP137	ltpFR	15	6	0	PLANE	1081	n/a	1	1	0.412841796875	0.57763671875	upper	../fonts/amplitud.ttf
921202	WORD	wordpools/wasnorm_wordpool.txt	LTP137	ltpFR	15	6	0	APRON	35	n/a	0	1	0.412841796875	0.57763671875	upper	../fonts/amplitud.ttf
926971	REC_START	n/a	LTP137	ltpFR	15	6	n/a	n/a	n/a	n/a	n/a	n/a	n/a	n/a	n/a	n/a
928657	REC_WORD	wordpools/wasnorm_wordpool.txt	LTP137	ltpFR	15	6	0	BOSS	152	n/a	1	n/a	n/a	n/a	n/a	n/a
929460	REC_WORD	wordpools/wasnorm_wordpool.txt	LTP137	ltpFR	15	6	0	APRON	35	n/a	0	n/a	n/a	n/a	n/a	n/a
931705	REC_WORD	wordpools/wasnorm_wordpool.txt	LTP137	ltpFR	15	6	0	WORKER	1621	n/a	1	n/a	n/a	n/a	n/a	n/a
932638	REC_WORD	wordpools/wasnorm_wordpool.txt	LTP137	ltpFR	15	6	0	NAVIGATOR	938	n/a	1	n/a	n/a	n/a	n/a	n/a
940909	REC_WORD	wordpools/wasnorm_wordpool.txt	LTP137	ltpFR	15	6	0	MAGAZINE	853	n/a	0	n/a	n/a	n/a	n/a	n/a
942186	REC_WORD	wordpools/wasnorm_wordpool.txt	LTP137	ltpFR	15	6	0	PLANE	1081	n/a	1	n/a	n/a	n/a	n/a	n/a
942989	REC_WORD	wordpools/wasnorm_wordpool.txt	LTP137	ltpFR	15	6	0	SCOTCH	1251	n/a	0	n/a	n/a	n/a	n/a	n/a
944167	REC_WORD	wordpools/wasnorm_wordpool.txt	LTP137	ltpFR	15	6	0	APRON	35	n/a	0	n/a	n/a	n/a	n/a	n/a
950561	REC_WORD	wordpools/wasnorm_wordpool.txt	LTP137	ltpFR	15	6	0	CARPENTER	246	n/a	1	n/a	n/a	n/a	n/a	n/a
953195	REC_WORD	wordpools/wasnorm_wordpool.txt	LTP137	ltpFR	15	6	0	SUPPER	1411	n/a	1	n/a	n/a	n/a	n/a	n/a
954598	REC_WORD	wordpools/wasnorm_wordpool.txt	LTP137	ltpFR	15	6	0	SCRIBBLE	1256	n/a	0	n/a	n/a	n/a	n/a	n/a
955598	REC_WORD_VV	wordpools/wasnorm_wordpool.txt	LTP137	ltpFR	15	6	n/a	<>	-1	n/a	n/a	n/a	n/a	n/a	n/a	n/a
956144	REC_WORD	wordpools/wasnorm_wordpool.txt	LTP137	ltpFR	15	6	0	FOE	587	n/a	1	n/a	n/a	n/a	n/a	n/a
958264	REC_WORD	wordpools/wasnorm_wordpool.txt	LTP137	ltpFR	15	6	0	SNAKE	1333	n/a	1	n/a	n/a	n/a	n/a	n/a
961556	REC_WORD	wordpools/wasnorm_wordpool.txt	LTP137	ltpFR	15	6	1	LIZARD	834	n/a	1	n/a	n/a	n/a	n/a	n/a
962919	REC_WORD	wordpools/wasnorm_wordpool.txt	LTP137	ltpFR	15	6	0	SERPENT	1270	n/a	1	n/a	n/a	n/a	n/a	n/a
969424	REC_WORD	wordpools/wasnorm_wordpool.txt	LTP137	ltpFR	15	6	0	WAIST	1579	n/a	0	n/a	n/a	n/a	n/a	n/a
972737	REC_WORD	wordpools/wasnorm_wordpool.txt	LTP137	ltpFR	15	6	0	JACKET	747	n/a	1	n/a	n/a	n/a	n/a	n/a
1028969	WORD	wordpools/wasnorm_wordpool.txt	LTP137	ltpFR	15	7	1	FAMILY	550	n/a	1	0	0.5869140625	0.422607421875	lower	../fonts/zerothre.ttf
1033114	WORD	wordpools/wasnorm_wordpool.txt	LTP137	ltpFR	15	7	1	MOLECULE	905	n/a	0	0	0.5869140625	0.422607421875	lower	../fonts/zerothre.ttf
1036993	WORD	wordpools/wasnorm_wordpool.txt	LTP137	ltpFR	15	7	1	FARM	552	n/a	0	0	0.5869140625	0.422607421875	lower	../fonts/zerothre.ttf
1041105	WORD	wordpools/wasnorm_wordpool.txt	LTP137	ltpFR	15	7	1	BAIT	70	n/a	0	0	0.5869140625	0.422607421875	lower	../fonts/zerothre.ttf
1045109	WORD	wordpools/wasnorm_wordpool.txt	LTP137	ltpFR	15	7	1	FUNERAL	613	n/a	0	0	0.5869140625	0.422607421875	lower	../fonts/zerothre.ttf
1048946	WORD	wordpools/wasnorm_wordpool.txt	LTP137	ltpFR	15	7	1	MILK	895	n/a	0	0	0.5869140625	0.422607421875	lower	../fonts/zerothre.ttf
1053116	WORD	wordpools/wasnorm_wordpool.txt	LTP137	ltpFR	15	7	1	SHARK	1275	n/a	1	0	0.5869140625	0.422607421875	lower	../fonts/zerothre.ttf
1057053	WORD	wordpools/wasnorm_wordpool.txt	LTP137	ltpFR	15	7	1	BUTCHER	203	n/a	1	0	0.5869140625	0.422607421875	lower	../fonts/zerothre.ttf
1060924	WORD	wordpools/wasnorm_wordpool.txt	LTP137	ltpFR	15	7	1	CHARCOAL	281	n/a	0	0	0.5869140625	0.422607421875	lower	../fonts/zerothre.ttf
1064902	WORD	wordpools/wasnorm_wordpool.txt	LTP137	ltpFR	15	7	1	EXPLOSION	544	n/a	0	0	0.5869140625	0.422607421875	lower	../fonts/zerothre.ttf
1068956	WORD	wordpools/wasnorm_wordpool.txt	LTP137	ltpFR	15	7	1	SKUNK	1321	n/a	1	0	0.5869140625	0.422607421875	lower	../fonts/zerothre.ttf
1072843	WORD	wordpools/wasnorm_wordpool.txt	LTP137	ltpFR	15	7	1	GARLIC	624	n/a	0	0	0.5869140625	0.422607421875	lower	../fonts/zerothre.ttf
1076855	WORD	wordpools/wasnorm_wordpool.txt	LTP137	ltpFR	15	7	1	PASTRY	1022	n/a	0	0	0.5869140625	0.422607421875	lower	../fonts/zerothre.ttf
1080701	WORD	wordpools/wasnorm_wordpool.txt	LTP137	ltpFR	15	7	1	CAKE	219	n/a	0	0	0.5869140625	0.422607421875	lower	../fonts/zerothre.ttf
1084529	WORD	wordpools/wasnorm_wordpool.txt	LTP137	ltpFR	15	7	1	BLANKET	135	n/a	0	0	0.5869140625	0.422607421875	lower	../fonts/zerothre.ttf
1088417	WORD	wordpools/wasnorm_wordpool.txt	LTP137	ltpFR	15	7	1	LIVER	833	n/a	0	0	0.5869140625	0.422607421875	lower	../fonts/zerothre.ttf
1094053	REC_START	n/a	LTP137	ltpFR	15	7	n/a	n/a	n/a	n/a	n/a	n/a	n/a	n/a	n/a	n/a
1096722	REC_WORD	wordpools/wasnorm_wordpool.txt	LTP137	ltpFR	15	7	1	LIVER	833	n/a	0	n/a	n/a	n/a	n/a	n/a
1097545	REC_WORD	wordpools/wasnorm_wordpool.txt	LTP137	ltpFR	15	7	1	PASTRY	1022	n/a	0	n/a	n/a	n/a	n/a	n/a
1098458	REC_WORD	wordpools/wasnorm_wordpool.txt	LTP137	ltpFR	15	7	1	CAKE	219	n/a	0	n/a	n/a	n/a	n/a	n/a
1101620	REC_WORD	wordpools/wasnorm_wordpool.txt	LTP137	ltpFR	15	7	1	FAMILY	550	n/a	1	n/a	n/a	n/a	n/a	n/a
1102459	REC_WORD	wordpools/wasnorm_wordpool.txt	LTP137	ltpFR	15	7	1	MOLECULE	905	n/a	0	n/a	n/a	n/a	n/a	n/a
1104579	REC_WORD	wordpools/wasnorm_wordpool.txt	LTP137	ltpFR	15	7	1	GARLIC	624	n/a	0	n/a	n/a	n/a	n/a	n/a
1105617	REC_WORD	wordpools/wasnorm_wordpool.txt	LTP137	ltpFR	15	7	1	CHARCOAL	281	n/a	0	n/a	n/a	n/a	n/a	n/a
1113534	REC_WORD	wordpools/wasnorm_wordpool.txt	LTP137	ltpFR	15	7	1	SHARK	1275	n/a	1	n/a	n/a	n/a	n/a	n/a
1114651	REC_WORD	wordpools/wasnorm_wordpool.txt	LTP137	ltpFR	15	7	1	BAIT	70	n/a	0	n/a	n/a	n/a	n/a	n/a
1124952	REC_WORD	wordpools/wasnorm_wordpool.txt	LTP137	ltpFR	15	7	1	BUTCHER	203	n/a	1	n/a	n/a	n/a	n/a	n/a
1130056	REC_WORD	wordpools/wasnorm_wordpool.txt	LTP137	ltpFR	15	7	1	EXPLOSION	544	n/a	0	n/a	n/a	n/a	n/a	n/a
1131056	REC_WORD_VV	wordpools/wasnorm_wordpool.txt	LTP137	ltpFR	15	7	n/a	<>	-1	n/a	n/a	n/a	n/a	n/a	n/a	n/a
1135210	REC_WORD	wordpools/wasnorm_wordpool.txt	LTP137	ltpFR	15	7	1	SKUNK	1321	n/a	1	n/a	n/a	n/a	n/a	n/a
1143251	REC_WORD	wordpools/wasnorm_wordpool.txt	LTP137	ltpFR	15	7	1	FARM	552	n/a	0	n/a	n/a	n/a	n/a	n/a
1174792	WORD	wordpools/wasnorm_wordpool.txt	LTP137	ltpFR	15	8	-1	STAGE	1366	n/a	-1	1	1.0	1.0	upper	../fonts/Verdana.ttf
1178704	WORD	wordpools/wasnorm_wordpool.txt	LTP137	ltpFR	15	8	-1	ACTOR	5	n/a	-1	1	1.0	1.0	upper	../fonts/Verdana.ttf
1182708	WORD	wordpools/wasnorm_wordpool.txt	LTP137	ltpFR	15	8	-1	ENGINE	535	n/a	-1	1	1.0	1.0	upper	../fonts/Verdana.ttf
1186560	WORD	wordpools/wasnorm_wordpool.txt	LTP137	ltpFR	15	8	-1	WAX	1597	n/a	-1	1	1.0	1.0	upper	../fonts/Verdana.ttf
1190448	WORD	wordpools/wasnorm_wordpool.txt	LTP137	ltpFR	15	8	-1	TROMBONE	1508	n/a	-1	1	1.0	1.0	upper	../fonts/Verdana.ttf
1194518	WORD	wordpools/wasnorm_wordpool.txt	LTP137	ltpFR	15	8	-1	BRACELET	163	n/a	-1	1	1.0	1.0	upper	../fonts/Verdana.ttf
1198547	WORD	wordpools/wasnorm_wordpool.txt	LTP137	ltpFR	15	8	-1	BATHTUB	100	n/a	-1	1	1.0	1.0	upper	../fonts/Verdana.ttf
1202659	WORD	wordpools/wasnorm_wordpool.txt	LTP137	ltpFR	15	8	-1	DIRT	472	n/a	-1	1	1.0	1.0	upper	../fonts/Verdana.ttf
1206738	WORD	wordpools/wasnorm_wordpool.txt	LTP137	ltpFR	15	8	-1	CLAMP	316	n/a	-1	1	1.0	1.0	upper	../fonts/Verdana.ttf
1210558	WORD	wordpools/wasnorm_wordpool.txt	LTP137	ltpFR	15	8	-1	PAINT	1003	n/a	-1	1	1.0	1.0	upper	../fonts/Verdana.ttf
1214371	WORD	wordpools/wasnorm_wordpool.txt	LTP137	ltpFR	15	8	-1	PHOTO	1055	n/a	-1	1	1.0	1.0	upper	../fonts/Verdana.ttf
1218441	WORD	wordpools/wasnorm_wordpool.txt	LTP137	ltpFR	15	8	-1	TRUCK	1512	n/a	-1	1	1.0	1.0	upper	../fonts/Verdana.ttf
1222420	WORD	wordpools/wasnorm_wordpool.txt	LTP137	ltpFR	15	8	-1	WAGON	1578	n/a	-1	1	1.0	1.0	upper	../fonts/Verdana.ttf
1226240	WORD	wordpools/wasnorm_wordpool.txt	LTP137	ltpFR	15	8	-1	BATTERY	101	n/a	-1	1	1.0	1.0	upper	../fonts/Verdana.ttf
1230053	WORD	wordpools/wasnorm_wordpool.txt	LTP137	ltpFR	15	8	-1	RIVER	1194	n/a	-1	1	1.0	1.0	upper	../fonts/Verdana.ttf
1234181	WORD	wordpools/wasnorm_wordpool.txt	LTP137	ltpFR	15	8	-1	MOP	916	n/a	-1	1	1.0	1.0	upper	../fonts/Verdana.ttf
1239775	REC_START	n/a	LTP137	ltpFR	15	8	n/a	n/a	n/a	n/a	n/a	n/a	n/a	n/a	n/a	n/a
1241755	REC_WORD	wordpools/wasnorm_wordpool.txt	LTP137	ltpFR	15	8	-1	MOP	916	n/a	-1	n/a	n/a	n/a	n/a	n/a
1242458	REC_WORD	wordpools/wasnorm_wordpool.txt	LTP137	ltpFR	15	8	-1	STAGE	1366	n/a	-1	n/a	n/a	n/a	n/a	n/a
1243491	REC_WORD	wordpools/wasnorm_wordpool.txt	LTP137	ltpFR	15	8	-1	ACTOR	5	n/a	-1	n/a	n/a	n/a	n/a	n/a
1244823	REC_WORD	wordpools/wasnorm_wordpool.txt	LTP137	ltpFR	15	8	-1	RIVER	1194	n/a	-1	n/a	n/a	n/a	n/a	n/a
1245896	REC_WORD	wordpools/wasnorm_wordpool.txt	LTP137	ltpFR	15	8	-1	DIRT	472	n/a	-1	n/a	n/a	n/a	n/a	n/a
1246454	REC_WORD	wordpools/wasnorm_wordpool.txt	LTP137	ltpFR	15	8	-1	PAINT	1003	n/a	-1	n/a	n/a	n/a	n/a	n/a
1247007	REC_WORD	wordpools/wasnorm_wordpool.txt	LTP137	ltpFR	15	8	-1	PHOTO	1055	n/a	-1	n/a	n/a	n/a	n/a	n/a
1248874	REC_WORD	wordpools/wasnorm_wordpool.txt	LTP137	ltpFR	15	8	-1	BATHTUB	100	n/a	-1	n/a	n/a	n/a	n/a	n/a
1250016	REC_WORD	wordpools/wasnorm_wordpool.txt	LTP137	ltpFR	15	8	-1	CLAMP	316	n/a	-1	n/a	n/a	n/a	n/a	n/a
1258816	REC_WORD	wordpools/wasnorm_wordpool.txt	LTP137	ltpFR	15	8	-1	ENGINE	535	n/a	-1	n/a	n/a	n/a	n/a	n/a
1263336	REC_WORD	wordpools/wasnorm_wordpool.txt	LTP137	ltpFR	15	8	-1	TROMBONE	1508	n/a	-1	n/a	n/a	n/a	n/a	n/a
1264384	REC_WORD	wordpools/wasnorm_wordpool.txt	LTP137	ltpFR	15	8	-1	BRACELET	163	n/a	-1	n/a	n/a	n/a	n/a	n/a
1287257	REC_WORD	wordpools/wasnorm_wordpool.txt	LTP137	ltpFR	15	8	-1	ENGINE	535	n/a	-1	n/a	n/a	n/a	n/a	n/a
1381294	WORD	wordpools/wasnorm_wordpool.txt	LTP137	ltpFR	15	9	0	ANCHOR	21	n/a	1	1	0.412841796875	0.57763671875	upper	../fonts/amplitud.ttf
1385265	WORD	wordpools/wasnorm_wordpool.txt	LTP137	ltpFR	15	9	0	SPRINKLE	1359	n/a	n/a	1	0.412841796875	0.57763671875	upper	../fonts/amplitud.ttf
1388286	SLOW_MSG	n/a	LTP137	ltpFR	15	9	n/a	n/a	n/a	n/a	n/a	n/a	n/a	n/a	n/a	n/a
1390891	WORD	wordpools/wasnorm_wordpool.txt	LTP137	ltpFR	15	9	0	CRITIC	410	n/a	1	1	0.412841796875	0.57763671875	upper	../fonts/amplitud.ttf
1394962	WORD	wordpools/wasnorm_wordpool.txt	LTP137	ltpFR	15	9	0	BUS	201	n/a	1	1	0.412841796875	0.57763671875	upper	../fonts/amplitud.ttf
1399015	WORD	wordpools/wasnorm_wordpool.txt	LTP137	ltpFR	15	9	0	SICKLE	1302	n/a	1	1	0.412841796875	0.57763671875	upper	../fonts/amplitud.ttf
1403144	WORD	wordpools/wasnorm_wordpool.txt	LTP137	ltpFR	15	9	0	TACK	1428	n/a	0	1	0.412841796875	0.57763671875	upper	../fonts/amplitud.ttf
1407073	WORD	wordpools/wasnorm_wordpool.txt	LTP137	ltpFR	15	9	0	STRAW	1390	n/a	0	1	0.412841796875	0.57763671875	upper	../fonts/amplitud.ttf
1410902	WORD	wordpools/wasnorm_wordpool.txt	LTP137	ltpFR	15	9	0	COCKTAIL	338	n/a	0	1	0.412841796875	0.57763671875	upper	../fonts/amplitud.ttf
1415014	WORD	wordpools/wasnorm_wordpool.txt	LTP137	ltpFR	15	9	0	CAGE	218	n/a	1	1	0.412841796875	0.57763671875	upper	../fonts/amplitud.ttf
1418942	WORD	wordpools/wasnorm_wordpool.txt	LTP137	ltpFR	15	9	0	PATRIOT	1026	n/a	1	1	0.412841796875	0.57763671875	upper	../fonts/amplitud.ttf
1422921	WORD	wordpools/wasnorm_wordpool.txt	LTP137	ltpFR	15	9	0	FILM	565	n/a	0	1	0.412841796875	0.57763671875	upper	../fonts/amplitud.ttf
1426792	WORD	wordpools/wasnorm_wordpool.txt	LTP137	ltpFR	15	9	0	METEOR	889	n/a	1	1	0.412841796875	0.57763671875	upper	../fonts/amplitud.ttf
1430953	WORD	wordpools/wasnorm_wordpool.txt	LTP137	ltpFR	15	9	0	TIDE	1465	n/a	1	1	0.412841796875	0.57763671875	upper	../fonts/amplitud.ttf
1434982	WORD	wordpools/wasnorm_wordpool.txt	LTP137	ltpFR	15	9	0	WAND	1586	n/a	0	1	0.412841796875	0.57763671875	upper	../fonts/amplitud.ttf
1438919	WORD	wordpools/wasnorm_wordpool.txt	LTP137	ltpFR	15	9	0	HARE	688	n/a	0	1	0.412841796875	0.57763671875	upper	../fonts/amplitud.ttf
1443056	WORD	wordpools/wasnorm_wordpool.txt	LTP137	ltpFR	15	9	0	CANDY	230	n/a	0	1	0.412841796875	0.57763671875	upper	../fonts/amplitud.ttf
1448758	REC_START	n/a	LTP137	ltpFR	15	9	n/a	n/a	n/a	n/a	n/a	n/a	n/a	n/a	n/a	n/a
1449865	REC_WORD	wordpools/wasnorm_wordpool.txt	LTP137	ltpFR	15	9	0	HARE	688	n/a	0	n/a	n/a	n/a	n/a	n/a
1450698	REC_WORD	wordpools/wasnorm_wordpool.txt	LTP137	ltpFR	15	9	0	WAND	1586	n/a	0	n/a	n/a	n/a	n/a	n/a
1451466	REC_WORD	wordpools/wasnorm_wordpool.txt	LTP137	ltpFR	15	9	0	CANDY	230	n/a	0	n/a	n/a	n/a	n/a	n/a
1452499	REC_WORD	wordpools/wasnorm_wordpool.txt	LTP137	ltpFR	15	9	0	BUS	201	n/a	1	n/a	n/a	n/a	n/a	n/a
1453377	REC_WORD	wordpools/wasnorm_wordpool.txt	LTP137	ltpFR	15	9	0	CRITIC	410	n/a	1	n/a	n/a	n/a	n/a	n/a
1457687	REC_WORD	wordpools/wasnorm_wordpool.txt	LTP137	ltpFR	15	9	0	TIDE	1465	n/a	1	n/a	n/a	n/a	n/a	n/a
1459757	REC_WORD	wordpools/wasnorm_wordpool.txt	LTP137	ltpFR	15	9	0	METEOR	889	n/a	1	n/a	n/a	n/a	n/a	n/a
1460949	REC_WORD	wordpools/wasnorm_wordpool.txt	LTP137	ltpFR	15	9	0	ANCHOR	21	n/a	1	n/a	n/a	n/a	n/a	n/a
1464657	REC_WORD	wordpools/wasnorm_wordpool.txt	LTP137	ltpFR	15	9	0	STRAW	1390	n/a	0	n/a	n/a	n/a	n/a	n/a
1466263	REC_WORD	wordpools/wasnorm_wordpool.txt	LTP137	ltpFR	15	9	n/a	DRINK	498	n/a	n/a	n/a	n/a	n/a	n/a	n/a
1467460	REC_WORD	wordpools/wasnorm_wordpool.txt	LTP137	ltpFR	15	9	0	COCKTAIL	338	n/a	0	n/a	n/a	n/a	n/a	n/a
1487654	REC_WORD	wordpools/wasnorm_wordpool.txt	LTP137	ltpFR	15	9	0	TACK	1428	n/a	0	n/a	n/a	n/a	n/a	n/a
1502885	REC_WORD	wordpools/wasnorm_wordpool.txt	LTP137	ltpFR	15	9	0	BUS	201	n/a	1	n/a	n/a	n/a	n/a	n/a
1509031	REC_WORD	wordpools/wasnorm_wordpool.txt	LTP137	ltpFR	15	9	0	CAGE	218	n/a	1	n/a	n/a	n/a	n/a	n/a
1578341	WORD	wordpools/wasnorm_wordpool.txt	LTP137	ltpFR	15	10	1	RUNNER	1218	n/a	1	0	0.5869140625	0.422607421875	lower	../fonts/zerothre.ttf
1582502	WORD	wordpools/wasnorm_wordpool.txt	LTP137	ltpFR	15	10	1	PORPOISE	1109	n/a	1	0	0.5869140625	0.422607421875	lower	../fonts/zerothre.ttf
1586597	WORD	wordpools/wasnorm_wordpool.txt	LTP137	ltpFR	15	10	0	CHALK	276	n/a	0	1	0.412841796875	0.57763671875	upper	../fonts/amplitud.ttf
1590484	WORD	wordpools/wasnorm_wordpool.txt	LTP137	ltpFR	15	10	0	ROPE	1211	n/a	0	1	0.412841796875	0.57763671875	upper	../fonts/amplitud.ttf
1594306	WORD	wordpools/wasnorm_wordpool.txt	LTP137	ltpFR	15	10	0	ACROBAT	4	n/a	1	1	0.412841796875	0.57763671875	upper	../fonts/amplitud.ttf
1598135	WORD	wordpools/wasnorm_wordpool.txt	LTP137	ltpFR	15	10	1	BEAVER	109	n/a	1	0	0.5869140625	0.422607421875	lower	../fonts/zerothre.ttf
1601955	WORD	wordpools/wasnorm_wordpool.txt	LTP137	ltpFR	15	10	1	KITTEN	780	n/a	1	0	0.5869140625	0.422607421875	lower	../fonts/zerothre.ttf
1605892	WORD	wordpools/wasnorm_wordpool.txt	LTP137	ltpFR	15	10	0	MOTHER	921	n/a	3	1	0.412841796875	0.57763671875	upper	../fonts/amplitud.ttf
1607149	KEY_MSG	n/a	LTP137	ltpFR	15	10	n/a	n/a	n/a	n/a	n/a	n/a	n/a	n/a	n/a	n/a
1609821	WORD	wordpools/wasnorm_wordpool.txt	LTP137	ltpFR	15	10	0	GUARDIAN	668	n/a	1	1	0.412841796875	0.57763671875	upper	../fonts/amplitud.ttf
1614000	WORD	wordpools/wasnorm_wordpool.txt	LTP137	ltpFR	15	10	0	TUNNEL	1519	n/a	1	1	0.412841796875	0.57763671875	upper	../fonts/amplitud.ttf
1618103	WORD	wordpools/wasnorm_wordpool.txt	LTP137	ltpFR	15	10	0	SIRLOIN	1311	n/a	0	1	0.412841796875	0.57763671875	upper	../fonts/amplitud.ttf
1622065	WORD	wordpools/wasnorm_wordpool.txt	LTP137	ltpFR	15	10	0	WOMAN	1620	n/a	1	1	0.412841796875	0.57763671875	upper	../fonts/amplitud.ttf
1625994	WORD	wordpools/wasnorm_wordpool.txt	LTP137	ltpFR	15	10	1	CHIPMUNK	304	n/a	1	0	0.5869140625	0.422607421875	lower	../fonts/zerothre.ttf
1629989	WORD	wordpools/wasnorm_wordpool.txt	LTP137	ltpFR	15	10	1	SAUSAGE	1238	n/a	0	0	0.5869140625	0.422607421875	lower	../fonts/zerothre.ttf
1633918	WORD	wordpools/wasnorm_wordpool.txt	LTP137	ltpFR	15	10	1	CATTLE	261	n/a	1	0	0.5869140625	0.422607421875	lower	../fonts/zerothre.ttf
1638105	WORD	wordpools/wasnorm_wordpool.txt	LTP137	ltpFR	15	10	1	VEAL	1551	n/a	0	0	0.5869140625	0.422607421875	lower	../fonts/zerothre.ttf
1644032	REC_START	n/a	LTP137	ltpFR	15	10	n/a	n/a	n/a	n/a	n/a	n/a	n/a	n/a	n/a	n/a
1646032	REC_WORD	wordpools/wasnorm_wordpool.txt	LTP137	ltpFR	15	10	0	SIRLOIN	1311	n/a	0	n/a	n/a	n/a	n/a	n/a
1647639	REC_WORD	wordpools/wasnorm_wordpool.txt	LTP137	ltpFR	15	10	1	VEAL	1551	n/a	0	n/a	n/a	n/a	n/a	n/a
1650382	REC_WORD	wordpools/wasnorm_wordpool.txt	LTP137	ltpFR	15	10	0	TUNNEL	1519	n/a	1	n/a	n/a	n/a	n/a	n/a
1653186	REC_WORD	wordpools/wasnorm_wordpool.txt	LTP137	ltpFR	15	10	0	MOTHER	921	n/a	3	n/a	n/a	n/a	n/a	n/a
1653954	REC_WORD	wordpools/wasnorm_wordpool.txt	LTP137	ltpFR	15	10	0	WOMAN	1620	n/a	1	n/a	n/a	n/a	n/a	n/a
1654952	REC_WORD	wordpools/wasnorm_wordpool.txt	LTP137	ltpFR	15	10	0	ROPE	1211	n/a	0	n/a	n/a	n/a	n/a	n/a
1662035	REC_WORD	wordpools/wasnorm_wordpool.txt	LTP137	ltpFR	15	10	1	SAUSAGE	1238	n/a	0	n/a	n/a	n/a	n/a	n/a
1663035	REC_WORD_VV	wordpools/wasnorm_wordpool.txt	LTP137	ltpFR	15	10	n/a	<>	-1	n/a	n/a	n/a	n/a	n/a	n/a	n/a
1669579	REC_WORD	wordpools/wasnorm_wordpool.txt	LTP137	ltpFR	15	10	0	HARE	688	n/a	0	n/a	n/a	n/a	n/a	n/a
1671290	REC_WORD	wordpools/wasnorm_wordpool.txt	LTP137	ltpFR	15	10	1	PORPOISE	1109	n/a	1	n/a	n/a	n/a	n/a	n/a
1672891	REC_WORD	wordpools/wasnorm_wordpool.txt	LTP137	ltpFR	15	10	1	RUNNER	1218	n/a	1	n/a	n/a	n/a	n/a	n/a
1685088	REC_WORD	wordpools/wasnorm_wordpool.txt	LTP137	ltpFR	15	10	1	CATTLE	261	n/a	1	n/a	n/a	n/a	n/a	n/a
1729565	WORD	wordpools/wasnorm_wordpool.txt	LTP137	ltpFR	15	11	0	BUN	197	n/a	0	1	0.412841796875	0.57763671875	upper	../fonts/amplitud.ttf
1733485	WORD	wordpools/wasnorm_wordpool.txt	LTP137	ltpFR	15	11	0	BREAD	170	n/a	0	1	0.412841796875	0.57763671875	upper	../fonts/amplitud.ttf
1737423	WORD	wordpools/wasnorm_wordpool.txt	LTP137	ltpFR	15	11	1	BANKER	84	n/a	1	0	0.5869140625	0.422607421875	lower	../fonts/zerothre.ttf
1741534	WORD	wordpools/wasnorm_wordpool.txt	LTP137	ltpFR	15	11	1	SAILOR	1223	n/a	1	0	0.5869140625	0.422607421875	lower	../fonts/zerothre.ttf
1745414	WORD	wordpools/wasnorm_wordpool.txt	LTP137	ltpFR	15	11	1	MARINE	869	n/a	1	0	0.5869140625	0.422607421875	lower	../fonts/zerothre.ttf
1749542	WORD	wordpools/wasnorm_wordpool.txt	LTP137	ltpFR	15	11	0	BALCONY	72	n/a	1	1	0.412841796875	0.57763671875	upper	../fonts/amplitud.ttf
1753413	WORD	wordpools/wasnorm_wordpool.txt	LTP137	ltpFR	15	11	0	SAGE	1222	n/a	1	1	0.412841796875	0.57763671875	upper	../fonts/amplitud.ttf
1757250	WORD	wordpools/wasnorm_wordpool.txt	LTP137	ltpFR	15	11	0	LOLLIPOP	842	n/a	0	1	0.412841796875	0.57763671875	upper	../fonts/amplitud.ttf
1761354	WORD	wordpools/wasnorm_wordpool.txt	LTP137	ltpFR	15	11	1	FINGER	567	n/a	0	0	0.5869140625	0.422607421875	lower	../fonts/zerothre.ttf
1765199	WORD	wordpools/wasnorm_wordpool.txt	LTP137	ltpFR	15	11	1	BULB	192	n/a	0	0	0.5869140625	0.422607421875	lower	../fonts/zerothre.ttf
1769078	WORD	wordpools/wasnorm_wordpool.txt	LTP137	ltpFR	15	11	1	MULE	931	n/a	1	0	0.5869140625	0.422607421875	lower	../fonts/zerothre.ttf
1773140	WORD	wordpools/wasnorm_wordpool.txt	LTP137	ltpFR	15	11	1	HAT	690	n/a	0	0	0.5869140625	0.422607421875	lower	../fonts/zerothre.ttf
1776961	WORD	wordpools/wasnorm_wordpool.txt	LTP137	ltpFR	15	11	1	ANTELOPE	27	n/a	1	0	0.5869140625	0.422607421875	lower	../fonts/zerothre.ttf
1781098	WORD	wordpools/wasnorm_wordpool.txt	LTP137	ltpFR	15	11	0	FIST	572	n/a	0	1	0.412841796875	0.57763671875	upper	../fonts/amplitud.ttf
1785185	WORD	wordpools/wasnorm_wordpool.txt	LTP137	ltpFR	15	11	0	MARROW	872	n/a	0	1	0.412841796875	0.57763671875	upper	../fonts/amplitud.ttf
1789072	WORD	wordpools/wasnorm_wordpool.txt	LTP137	ltpFR	15	11	0	ELK	526	n/a	1	1	0.412841796875	0.57763671875	upper	../fonts/amplitud.ttf
1794824	REC_START	n/a	LTP137	ltpFR	15	11	n/a	n/a	n/a	n/a	n/a	n/a	n/a	n/a	n/a	n/a
1796505	REC_WORD	wordpools/wasnorm_wordpool.txt	LTP137	ltpFR	15	11	0	ELK	526	n/a	1	n/a	n/a	n/a	n/a	n/a
1797458	REC_WORD	wordpools/wasnorm_wordpool.txt	LTP137	ltpFR	15	11	0	MARROW	872	n/a	0	n/a	n/a	n/a	n/a	n/a
1798690	REC_WORD	wordpools/wasnorm_wordpool.txt	LTP137	ltpFR	15	11	1	MARINE	869	n/a	1	n/a	n/a	n/a	n/a	n/a
1801099	REC_WORD	wordpools/wasnorm_wordpool.txt	LTP137	ltpFR	15	11	1	SAILOR	1223	n/a	1	n/a	n/a	n/a	n/a	n/a
1802641	REC_WORD	wordpools/wasnorm_wordpool.txt	LTP137	ltpFR	15	11	1	BANKER	84	n/a	1	n/a	n/a	n/a	n/a	n/a
1805280	REC_WORD	wordpools/wasnorm_wordpool.txt	LTP137	ltpFR	15	11	0	FIST	572	n/a	0	n/a	n/a	n/a	n/a	n/a
1808897	REC_WORD	wordpools/wasnorm_wordpool.txt	LTP137	ltpFR	15	11	1	FINGER	567	n/a	0	n/a	n/a	n/a	n/a	n/a
1812319	REC_WORD	wordpools/wasnorm_wordpool.txt	LTP137	ltpFR	15	11	1	MOOSE	915	n/a	1	n/a	n/a	n/a	n/a	n/a
1813856	REC_WORD	wordpools/wasnorm_wordpool.txt	LTP137	ltpFR	15	11	n/a	SILK	1307	n/a	n/a	n/a	n/a	n/a	n/a	n/a
1817298	REC_WORD	wordpools/wasnorm_wordpool.txt	LTP137	ltpFR	15	11	0	BALCONY	72	n/a	1	n/a	n/a	n/a	n/a	n/a
1829185	REC_WORD	wordpools/wasnorm_wordpool.txt	LTP137	ltpFR	15	11	1	HAT	690	n/a	0	n/a	n/a	n/a	n/a	n/a
1894433	WORD	wordpools/wasnorm_wordpool.txt	LTP137	ltpFR	15	12	-1	BRIEFCASE	175	n/a	-1	1	1.0	1.0	upper	../fonts/Verdana.ttf
1898636	WORD	wordpools/wasnorm_wordpool.txt	LTP137	ltpFR	15	12	-1	CEREAL	272	n/a	-1	1	1.0	1.0	upper	../fonts/Verdana.ttf
1902523	WORD	wordpools/wasnorm_wordpool.txt	LTP137	ltpFR	15	12	-1	BRAN	167	n/a	-1	1	1.0	1.0	upper	../fonts/Verdana.ttf
1906618	WORD	wordpools/wasnorm_wordpool.txt	LTP137	ltpFR	15	12	-1	SIREN	1310	n/a	-1	1	1.0	1.0	upper	../fonts/Verdana.ttf
1910822	WORD	wordpools/wasnorm_wordpool.txt	LTP137	ltpFR	15	12	-1	DRUG	501	n/a	-1	1	1.0	1.0	upper	../fonts/Verdana.ttf
1914884	WORD	wordpools/wasnorm_wordpool.txt	LTP137	ltpFR	15	12	-1	WEED	1599	n/a	-1	1	1.0	1.0	upper	../fonts/Verdana.ttf
1918938	WORD	wordpools/wasnorm_wordpool.txt	LTP137	ltpFR	15	12	-1	OFFICER	973	n/a	-1	1	1.0	1.0	upper	../fonts/Verdana.ttf
1922767	WORD	wordpools/wasnorm_wordpool.txt	LTP137	ltpFR	15	12	-1	PARTY	1018	n/a	-1	1	1.0	1.0	upper	../fonts/Verdana.ttf
1926729	WORD	wordpools/wasnorm_wordpool.txt	LTP137	ltpFR	15	12	-1	TWIG	1527	n/a	-1	1	1.0	1.0	upper	../fonts/Verdana.ttf
1930874	WORD	wordpools/wasnorm_wordpool.txt	LTP137	ltpFR	15	12	-1	UMPIRE	1535	n/a	-1	1	1.0	1.0	upper	../fonts/Verdana.ttf
1935061	WORD	wordpools/wasnorm_wordpool.txt	LTP137	ltpFR	15	12	-1	CHESS	294	n/a	-1	1	1.0	1.0	upper	../fonts/Verdana.ttf
1938907	WORD	wordpools/wasnorm_wordpool.txt	LTP137	ltpFR	15	12	-1	UNIVERSITY	1541	n/a	-1	1	1.0	1.0	upper	../fonts/Verdana.ttf
1942860	WORD	wordpools/wasnorm_wordpool.txt	LTP137	ltpFR	15	12	-1	COTTON	385	n/a	-1	1	1.0	1.0	upper	../fonts/Verdana.ttf
1947006	WORD	wordpools/wasnorm_wordpool.txt	LTP137	ltpFR	15	12	-1	DENIM	446	n/a	-1	1	1.0	1.0	upper	../fonts/Verdana.ttf
1951126	WORD	wordpools/wasnorm_wordpool.txt	LTP137	ltpFR	15	12	-1	MAPLE	866	n/a	-1	1	1.0	1.0	upper	../fonts/Verdana.ttf
1955254	WORD	wordpools/wasnorm_wordpool.txt	LTP137	ltpFR	15	12	-1	GIRL	637	n/a	-1	1	1.0	1.0	upper	../fonts/Verdana.ttf
1961098	REC_START	n/a	LTP137	ltpFR	15	12	n/a	n/a	n/a	n/a	n/a	n/a	n/a	n/a	n/a	n/a
1963382	REC_WORD	wordpools/wasnorm_wordpool.txt	LTP137	ltpFR	15	12	-1	TWIG	1527	n/a	-1	n/a	n/a	n/a	n/a	n/a
1964635	REC_WORD	wordpools/wasnorm_wordpool.txt	LTP137	ltpFR	15	12	-1	GIRL	637	n/a	-1	n/a	n/a	n/a	n/a	n/a
1965637	REC_WORD	wordpools/wasnorm_wordpool.txt	LTP137	ltpFR	15	12	-1	PARTY	1018	n/a	-1	n/a	n/a	n/a	n/a	n/a
1966954	REC_WORD	wordpools/wasnorm_wordpool.txt	LTP137	ltpFR	15	12	-1	DRUG	501	n/a	-1	n/a	n/a	n/a	n/a	n/a
1968686	REC_WORD	wordpools/wasnorm_wordpool.txt	LTP137	ltpFR	15	12	-1	WEED	1599	n/a	-1	n/a	n/a	n/a	n/a	n/a
1969712	REC_WORD	wordpools/wasnorm_wordpool.txt	LTP137	ltpFR	15	12	-1	BRIEFCASE	175	n/a	-1	n/a	n/a	n/a	n/a	n/a
1970712	REC_WORD_VV	wordpools/wasnorm_wordpool.txt	LTP137	ltpFR	15	12	n/a	<>	-1	n/a	n/a	n/a	n/a	n/a	n/a	n/a
1971344	REC_WORD	wordpools/wasnorm_wordpool.txt	LTP137	ltpFR	15	12	-1	BRAN	167	n/a	-1	n/a	n/a	n/a	n/a	n/a
1981186	REC_WORD	wordpools/wasnorm_wordpool.txt	LTP137	ltpFR	15	12	-1	CEREAL	272	n/a	-1	n/a	n/a	n/a	n/a	n/a
1986300	REC_WORD	wordpools/wasnorm_wordpool.txt	LTP137	ltpFR	15	12	-1	SIREN	1310	n/a	-1	n/a	n/a	n/a	n/a	n/a
1994515	REC_WORD	wordpools/wasnorm_wordpool.txt	LTP137	ltpFR	15	12	-1	UNIVERSITY	1541	n/a	-1	n/a	n/a	n/a	n/a	n/a
1995515	REC_WORD_VV	wordpools/wasnorm_wordpool.txt	LTP137	ltpFR	15	12	n/a	<>	-1	n/a	n/a	n/a	n/a	n/a	n/a	n/a
2004479	REC_WORD	wordpools/wasnorm_wordpool.txt	LTP137	ltpFR	15	12	-1	CHESS	294	n/a	-1	n/a	n/a	n/a	n/a	n/a
2006963	REC_WORD	wordpools/wasnorm_wordpool.txt	LTP137	ltpFR	15	12	n/a	REFEREE	1178	n/a	n/a	n/a	n/a	n/a	n/a	n/a
2008630	REC_WORD	wordpools/wasnorm_wordpool.txt	LTP137	ltpFR	15	12	-1	UMPIRE	1535	n/a	-1	n/a	n/a	n/a	n/a	n/a
2009727	REC_WORD	wordpools/wasnorm_wordpool.txt	LTP137	ltpFR	15	12	-1	COTTON	385	n/a	-1	n/a	n/a	n/a	n/a	n/a
2010775	REC_WORD	wordpools/wasnorm_wordpool.txt	LTP137	ltpFR	15	12	-1	DENIM	446	n/a	-1	n/a	n/a	n/a	n/a	n/a
2013474	REC_WORD	wordpools/wasnorm_wordpool.txt	LTP137	ltpFR	15	12	-1	MAPLE	866	n/a	-1	n/a	n/a	n/a	n/a	n/a
2032649	REC_WORD	wordpools/wasnorm_wordpool.txt	LTP137	ltpFR	15	12	-1	OFFICER	973	n/a	-1	n/a	n/a	n/a	n/a	n/a
2036677	REST_REWET	n/a	LTP137	ltpFR	15	12	n/a	n/a	n/a	n/a	n/a	n/a	n/a	n/a	n/a	n/a
2464115	WORD	wordpools/wasnorm_wordpool.txt	LTP137	ltpFR	15	13	1	HONEY	713	n/a	0	0	0.5869140625	0.422607421875	lower	../fonts/zerothre.ttf
2468077	WORD	wordpools/wasnorm_wordpool.txt	LTP137	ltpFR	15	13	1	WASP	1593	n/a	1	0	0.5869140625	0.422607421875	lower	../fonts/zerothre.ttf
2472022	WORD	wordpools/wasnorm_wordpool.txt	LTP137	ltpFR	15	13	1	ELECTRICIAN	521	n/a	1	0	0.5869140625	0.422607421875	lower	../fonts/zerothre.ttf
2475868	WORD	wordpools/wasnorm_wordpool.txt	LTP137	ltpFR	15	13	1	EMPLOYEE	531	n/a	1	0	0.5869140625	0.422607421875	lower	../fonts/zerothre.ttf
2479822	WORD	wordpools/wasnorm_wordpool.txt	LTP137	ltpFR	15	13	1	JEWEL	757	n/a	0	0	0.5869140625	0.422607421875	lower	../fonts/zerothre.ttf
2483734	WORD	wordpools/wasnorm_wordpool.txt	LTP137	ltpFR	15	13	1	BEAD	103	n/a	0	0	0.5869140625	0.422607421875	lower	../fonts/zerothre.ttf
2487562	WORD	wordpools/wasnorm_wordpool.txt	LTP137	ltpFR	15	13	1	PARIS	1014	n/a	0	0	0.5869140625	0.422607421875	lower	../fonts/zerothre.ttf
2491658	WORD	wordpools/wasnorm_wordpool.txt	LTP137	ltpFR	15	13	1	JUPITER	765	n/a	0	0	0.5869140625	0.422607421875	lower	../fonts/zerothre.ttf
2495469	WORD	wordpools/wasnorm_wordpool.txt	LTP137	ltpFR	15	13	1	STY	1397	n/a	0	0	0.5869140625	0.422607421875	lower	../fonts/zerothre.ttf
2499407	WORD	wordpools/wasnorm_wordpool.txt	LTP137	ltpFR	15	13	1	WOLF	1619	n/a	1	0	0.5869140625	0.422607421875	lower	../fonts/zerothre.ttf
2503618	WORD	wordpools/wasnorm_wordpool.txt	LTP137	ltpFR	15	13	1	CHIME	300	n/a	0	0	0.5869140625	0.422607421875	lower	../fonts/zerothre.ttf
2507764	WORD	wordpools/wasnorm_wordpool.txt	LTP137	ltpFR	15	13	1	COWARD	394	n/a	1	0	0.5869140625	0.422607421875	lower	../fonts/zerothre.ttf
2511901	WORD	wordpools/wasnorm_wordpool.txt	LTP137	ltpFR	15	13	1	HAM	678	n/a	0	0	0.5869140625	0.422607421875	lower	../fonts/zerothre.ttf
2515855	WORD	wordpools/wasnorm_wordpool.txt	LTP137	ltpFR	15	13	1	PUPPY	1144	n/a	1	0	0.5869140625	0.422607421875	lower	../fonts/zerothre.ttf
2520000	WORD	wordpools/wasnorm_wordpool.txt	LTP137	ltpFR	15	13	1	SAPPHIRE	1234	n/a	0	0	0.5869140625	0.422607421875	lower	../fonts/zerothre.ttf
2523862	WORD	wordpools/wasnorm_wordpool.txt	LTP137	ltpFR	15	13	1	DIAPER	459	n/a	0	0	0.5869140625	0.422607421875	lower	../fonts/zerothre.ttf
2529539	REC_START	n/a	LTP137	ltpFR	15	13	n/a	n/a	n/a	n/a	n/a	n/a	n/a	n/a	n/a	n/a
2531509	REC_WORD	wordpools/wasnorm_wordpool.txt	LTP137	ltpFR	15	13	1	DIAPER	459	n/a	0	n/a	n/a	n/a	n/a	n/a
2532347	REC_WORD	wordpools/wasnorm_wordpool.txt	LTP137	ltpFR	15	13	1	SAPPHIRE	1234	n/a	0	n/a	n/a	n/a	n/a	n/a
2533344	REC_WORD	wordpools/wasnorm_wordpool.txt	LTP137	ltpFR	15	13	1	PUPPY	1144	n/a	1	n/a	n/a	n/a	n/a	n/a
2534098	REC_WORD	wordpools/wasnorm_wordpool.txt	LTP137	ltpFR	15	13	1	JEWEL	757	n/a	0	n/a	n/a	n/a	n/a	n/a
2539486	REC_WORD	wordpools/wasnorm_wordpool.txt	LTP137	ltpFR	15	13	1	BEAD	103	n/a	0	n/a	n/a	n/a	n/a	n/a
2542025	REC_WORD	wordpools/wasnorm_wordpool.txt	LTP137	ltpFR	15	13	1	WASP	1593	n/a	1	n/a	n/a	n/a	n/a	n/a
2542948	REC_WORD	wordpools/wasnorm_wordpool.txt	LTP137	ltpFR	15	13	1	HONEY	713	n/a	0	n/a	n/a	n/a	n/a	n/a
2545103	REC_WORD	wordpools/wasnorm_wordpool.txt	LTP137	ltpFR	15	13	1	ELECTRICIAN	521	n/a	1	n/a	n/a	n/a	n/a	n/a
2546150	REC_WORD	wordpools/wasnorm_wordpool.txt	LTP137	ltpFR	15	13	1	EMPLOYEE	531	n/a	1	n/a	n/a	n/a	n/a	n/a
2547413	REC_WORD	wordpools/wasnorm_wordpool.txt	LTP137	ltpFR	15	13	1	CHIME	300	n/a	0	n/a	n/a	n/a	n/a	n/a
2550097	REC_WORD	wordpools/wasnorm_wordpool.txt	LTP137	ltpFR	15	13	1	PARIS	1014	n/a	0	n/a	n/a	n/a	n/a	n/a
2551210	REC_WORD	wordpools/wasnorm_wordpool.txt	LTP137	ltpFR	15	13	1	JUPITER	765	n/a	0	n/a	n/a	n/a	n/a	n/a
2552221	REC_WORD	wordpools/wasnorm_wordpool.txt	LTP137	ltpFR	15	13	1	STY	1397	n/a	0	n/a	n/a	n/a	n/a	n/a
2553221	REC_WORD_VV	wordpools/wasnorm_wordpool.txt	LTP137	ltpFR	15	13	n/a	<>	-1	n/a	n/a	n/a	n/a	n/a	n/a	n/a
2561032	REC_WORD	wordpools/wasnorm_wordpool.txt	LTP137	ltpFR	15	13	1	DIAPER	459	n/a	0	n/a	n/a	n/a	n/a	n/a
2568849	REC_WORD	wordpools/wasnorm_wordpool.txt	LTP137	ltpFR	15	13	1	WOLF	1619	n/a	1	n/a	n/a	n/a	n/a	n/a
2609896	WORD	wordpools/wasnorm_wordpool.txt	LTP137	ltpFR	15	14	-1	ROACH	1195	n/a	-1	1	1.0	1.0	upper	../fonts/Verdana.ttf
2613991	WORD	wordpools/wasnorm_wordpool.txt	LTP137	ltpFR	15	14	-1	BUTTERFLY	206	n/a	-1	1	1.0	1.0	upper	../fonts/Verdana.ttf
2617962	WORD	wordpools/wasnorm_wordpool.txt	LTP137	ltpFR	15	14	-1	CLAM	315	n/a	-1	1	1.0	1.0	upper	../fonts/Verdana.ttf
2622173	WORD	wordpools/wasnorm_wordpool.txt	LTP137	ltpFR	15	14	-1	DILL	465	n/a	-1	1	1.0	1.0	upper	../fonts/Verdana.ttf
2626244	WORD	wordpools/wasnorm_wordpool.txt	LTP137	ltpFR	15	14	-1	GRAVEL	659	n/a	-1	1	1.0	1.0	upper	../fonts/Verdana.ttf
2630422	WORD	wordpools/wasnorm_wordpool.txt	LTP137	ltpFR	15	14	-1	COLT	349	n/a	-1	1	1.0	1.0	upper	../fonts/Verdana.ttf
2634318	WORD	wordpools/wasnorm_wordpool.txt	LTP137	ltpFR	15	14	-1	LETTUCE	814	n/a	-1	1	1.0	1.0	upper	../fonts/Verdana.ttf
2638528	WORD	wordpools/wasnorm_wordpool.txt	LTP137	ltpFR	15	14	-1	AWARD	63	n/a	-1	1	1.0	1.0	upper	../fonts/Verdana.ttf
2642342	WORD	wordpools/wasnorm_wordpool.txt	LTP137	ltpFR	15	14	-1	CHIEF	298	n/a	-1	1	1.0	1.0	upper	../fonts/Verdana.ttf
2646494	WORD	wordpools/wasnorm_wordpool.txt	LTP137	ltpFR	15	14	-1	VEGETABLE	1552	n/a	-1	1	1.0	1.0	upper	../fonts/Verdana.ttf
2650699	WORD	wordpools/wasnorm_wordpool.txt	LTP137	ltpFR	15	14	-1	RECEIPT	1173	n/a	-1	1	1.0	1.0	upper	../fonts/Verdana.ttf
2654869	WORD	wordpools/wasnorm_wordpool.txt	LTP137	ltpFR	15	14	-1	DESIGNER	451	n/a	-1	1	1.0	1.0	upper	../fonts/Verdana.ttf
2658931	WORD	wordpools/wasnorm_wordpool.txt	LTP137	ltpFR	15	14	-1	SHOVEL	1295	n/a	-1	1	1.0	1.0	upper	../fonts/Verdana.ttf
2662818	WORD	wordpools/wasnorm_wordpool.txt	LTP137	ltpFR	15	14	-1	CHAIN	273	n/a	-1	1	1.0	1.0	upper	../fonts/Verdana.ttf
2666655	WORD	wordpools/wasnorm_wordpool.txt	LTP137	ltpFR	15	14	-1	FRECKLE	602	n/a	-1	1	1.0	1.0	upper	../fonts/Verdana.ttf
2670641	WORD	wordpools/wasnorm_wordpool.txt	LTP137	ltpFR	15	14	-1	LIPSTICK	829	n/a	-1	1	1.0	1.0	upper	../fonts/Verdana.ttf
2676610	REC_START	n/a	LTP137	ltpFR	15	14	n/a	n/a	n/a	n/a	n/a	n/a	n/a	n/a	n/a	n/a
2678216	REC_WORD	wordpools/wasnorm_wordpool.txt	LTP137	ltpFR	15	14	-1	RECEIPT	1173	n/a	-1	n/a	n/a	n/a	n/a	n/a
2679349	REC_WORD	wordpools/wasnorm_wordpool.txt	LTP137	ltpFR	15	14	-1	DESIGNER	451	n/a	-1	n/a	n/a	n/a	n/a	n/a
2682212	REC_WORD	wordpools/wasnorm_wordpool.txt	LTP137	ltpFR	15	14	-1	SHOVEL	1295	n/a	-1	n/a	n/a	n/a	n/a	n/a
2688677	REC_WORD	wordpools/wasnorm_wordpool.txt	LTP137	ltpFR	15	14	-1	CHAIN	273	n/a	-1	n/a	n/a	n/a	n/a	n/a
2693855	REC_WORD	wordpools/wasnorm_wordpool.txt	LTP137	ltpFR	15	14	-1	GRAVEL	659	n/a	-1	n/a	n/a	n/a	n/a	n/a
2695911	REC_WORD	wordpools/wasnorm_wordpool.txt	LTP137	ltpFR	15	14	-1	ROACH	1195	n/a	-1	n/a	n/a	n/a	n/a	n/a
2697118	REC_WORD	wordpools/wasnorm_wordpool.txt	LTP137	ltpFR	15	14	-1	BUTTERFLY	206	n/a	-1	n/a	n/a	n/a	n/a	n/a
2698118	REC_WORD_VV	wordpools/wasnorm_wordpool.txt	LTP137	ltpFR	15	14	n/a	<>	-1	n/a	n/a	n/a	n/a	n/a	n/a	n/a
2698904	REC_WORD	wordpools/wasnorm_wordpool.txt	LTP137	ltpFR	15	14	-1	CLAM	315	n/a	-1	n/a	n/a	n/a	n/a	n/a
2706597	REC_WORD	wordpools/wasnorm_wordpool.txt	LTP137	ltpFR	15	14	-1	AWARD	63	n/a	-1	n/a	n/a	n/a	n/a	n/a
2710048	REC_WORD	wordpools/wasnorm_wordpool.txt	LTP137	ltpFR	15	14	-1	VEGETABLE	1552	n/a	-1	n/a	n/a	n/a	n/a	n/a
2712313	REC_WORD	wordpools/wasnorm_wordpool.txt	LTP137	ltpFR	15	14	n/a	SALAD	1224	n/a	n/a	n/a	n/a	n/a	n/a	n/a
2713935	REC_WORD	wordpools/wasnorm_wordpool.txt	LTP137	ltpFR	15	14	-1	LETTUCE	814	n/a	-1	n/a	n/a	n/a	n/a	n/a
2715411	REC_WORD	wordpools/wasnorm_wordpool.txt	LTP137	ltpFR	15	14	-1	COLT	349	n/a	-1	n/a	n/a	n/a	n/a	n/a
2730602	REC_WORD	wordpools/wasnorm_wordpool.txt	LTP137	ltpFR	15	14	-1	CHIEF	298	n/a	-1	n/a	n/a	n/a	n/a	n/a
2754878	WORD	wordpools/wasnorm_wordpool.txt	LTP137	ltpFR	15	15	1	QUAIL	1147	n/a	1	0	0.5869140625	0.422607421875	lower	../fonts/zerothre.ttf
2759057	WORD	wordpools/wasnorm_wordpool.txt	LTP137	ltpFR	15	15	1	BINDER	127	n/a	0	0	0.5869140625	0.422607421875	lower	../fonts/zerothre.ttf
2763243	WORD	wordpools/wasnorm_wordpool.txt	LTP137	ltpFR	15	15	1	GRADUATE	653	n/a	1	0	0.5869140625	0.422607421875	lower	../fonts/zerothre.ttf
2767114	WORD	wordpools/wasnorm_wordpool.txt	LTP137	ltpFR	15	15	1	ARENA	37	n/a	0	0	0.5869140625	0.422607421875	lower	../fonts/zerothre.ttf
2771234	WORD	wordpools/wasnorm_wordpool.txt	LTP137	ltpFR	15	15	1	RADIO	1157	n/a	0	0	0.5869140625	0.422607421875	lower	../fonts/zerothre.ttf
2775063	WORD	wordpools/wasnorm_wordpool.txt	LTP137	ltpFR	15	15	1	VINEGAR	1569	n/a	0	0	0.5869140625	0.422607421875	lower	../fonts/zerothre.ttf
2779092	WORD	wordpools/wasnorm_wordpool.txt	LTP137	ltpFR	15	15	1	COLOGNE	347	n/a	0	0	0.5869140625	0.422607421875	lower	../fonts/zerothre.ttf
2783170	WORD	wordpools/wasnorm_wordpool.txt	LTP137	ltpFR	15	15	1	ORGAN	984	n/a	0	0	0.5869140625	0.422607421875	lower	../fonts/zerothre.ttf
2787174	WORD	wordpools/wasnorm_wordpool.txt	LTP137	ltpFR	15	15	1	MALL	860	n/a	0	0	0.5869140625	0.422607421875	lower	../fonts/zerothre.ttf
2791103	WORD	wordpools/wasnorm_wordpool.txt	LTP137	ltpFR	15	15	1	HANDCUFFS	685	n/a	0	0	0.5869140625	0.422607421875	lower	../fonts/zerothre.ttf
2795181	WORD	wordpools/wasnorm_wordpool.txt	LTP137	ltpFR	15	15	1	VACUUM	1543	n/a	0	0	0.5869140625	0.422607421875	lower	../fonts/zerothre.ttf
2799077	WORD	wordpools/wasnorm_wordpool.txt	LTP137	ltpFR	15	15	1	TUBA	1515	n/a	0	0	0.5869140625	0.422607421875	lower	../fonts/zerothre.ttf
2802931	WORD	wordpools/wasnorm_wordpool.txt	LTP137	ltpFR	15	15	1	CARDINAL	244	n/a	1	0	0.5869140625	0.422607421875	lower	../fonts/zerothre.ttf
2806876	WORD	wordpools/wasnorm_wordpool.txt	LTP137	ltpFR	15	15	1	PRINTER	1126	n/a	0	0	0.5869140625	0.422607421875	lower	../fonts/zerothre.ttf
2810955	WORD	wordpools/wasnorm_wordpool.txt	LTP137	ltpFR	15	15	1	YOUTH	1634	n/a	0	0	0.5869140625	0.422607421875	lower	../fonts/zerothre.ttf
2814983	WORD	wordpools/wasnorm_wordpool.txt	LTP137	ltpFR	15	15	1	DELINQUENT	445	n/a	1	0	0.5869140625	0.422607421875	lower	../fonts/zerothre.ttf
2820836	REC_START	n/a	LTP137	ltpFR	15	15	n/a	n/a	n/a	n/a	n/a	n/a	n/a	n/a	n/a	n/a
2822776	REC_WORD	wordpools/wasnorm_wordpool.txt	LTP137	ltpFR	15	15	1	DELINQUENT	445	n/a	1	n/a	n/a	n/a	n/a	n/a
2824318	REC_WORD	wordpools/wasnorm_wordpool.txt	LTP137	ltpFR	15	15	1	YOUTH	1634	n/a	0	n/a	n/a	n/a	n/a	n/a
2825760	REC_WORD	wordpools/wasnorm_wordpool.txt	LTP137	ltpFR	15	15	1	MALL	860	n/a	0	n/a	n/a	n/a	n/a	n/a
2827710	REC_WORD	wordpools/wasnorm_wordpool.txt	LTP137	ltpFR	15	15	1	TUBA	1515	n/a	0	n/a	n/a	n/a	n/a	n/a
2828767	REC_WORD	wordpools/wasnorm_wordpool.txt	LTP137	ltpFR	15	15	1	PRINTER	1126	n/a	0	n/a	n/a	n/a	n/a	n/a
2831361	REC_WORD	wordpools/wasnorm_wordpool.txt	LTP137	ltpFR	15	15	1	QUAIL	1147	n/a	1	n/a	n/a	n/a	n/a	n/a
2832459	REC_WORD	wordpools/wasnorm_wordpool.txt	LTP137	ltpFR	15	15	1	CARDINAL	244	n/a	1	n/a	n/a	n/a	n/a	n/a
2833706	REC_WORD	wordpools/wasnorm_wordpool.txt	LTP137	ltpFR	15	15	1	BINDER	127	n/a	0	n/a	n/a	n/a	n/a	n/a
2834699	REC_WORD	wordpools/wasnorm_wordpool.txt	LTP137	ltpFR	15	15	1	GRADUATE	653	n/a	1	n/a	n/a	n/a	n/a	n/a
2835652	REC_WORD	wordpools/wasnorm_wordpool.txt	LTP137	ltpFR	15	15	1	COLOGNE	347	n/a	0	n/a	n/a	n/a	n/a	n/a
2840785	REC_WORD	wordpools/wasnorm_wordpool.txt	LTP137	ltpFR	15	15	1	ARENA	37	n/a	0	n/a	n/a	n/a	n/a	n/a
2843478	REC_WORD	wordpools/wasnorm_wordpool.txt	LTP137	ltpFR	15	15	1	HANDCUFFS	685	n/a	0	n/a	n/a	n/a	n/a	n/a
2844478	REC_WORD_VV	wordpools/wasnorm_wordpool.txt	LTP137	ltpFR	15	15	n/a	<>	-1	n/a	n/a	n/a	n/a	n/a	n/a	n/a
2933163	WORD	wordpools/wasnorm_wordpool.txt	LTP137	ltpFR	15	16	-1	ASSOCIATE	49	n/a	-1	1	1.0	1.0	upper	../fonts/Verdana.ttf
2937358	WORD	wordpools/wasnorm_wordpool.txt	LTP137	ltpFR	15	16	-1	LIMOUSINE	824	n/a	-1	1	1.0	1.0	upper	../fonts/Verdana.ttf
2941412	WORD	wordpools/wasnorm_wordpool.txt	LTP137	ltpFR	15	16	-1	FIG	563	n/a	-1	1	1.0	1.0	upper	../fonts/Verdana.ttf
2945366	WORD	wordpools/wasnorm_wordpool.txt	LTP137	ltpFR	15	16	-1	GUEST	669	n/a	-1	1	1.0	1.0	upper	../fonts/Verdana.ttf
2949386	WORD	wordpools/wasnorm_wordpool.txt	LTP137	ltpFR	15	16	-1	OREGANO	983	n/a	-1	1	1.0	1.0	upper	../fonts/Verdana.ttf
2953589	WORD	wordpools/wasnorm_wordpool.txt	LTP137	ltpFR	15	16	-1	MUFFIN	929	n/a	-1	1	1.0	1.0	upper	../fonts/Verdana.ttf
2957410	WORD	wordpools/wasnorm_wordpool.txt	LTP137	ltpFR	15	16	-1	TOAST	1471	n/a	-1	1	1.0	1.0	upper	../fonts/Verdana.ttf
2961406	WORD	wordpools/wasnorm_wordpool.txt	LTP137	ltpFR	15	16	-1	AMBULANCE	19	n/a	-1	1	1.0	1.0	upper	../fonts/Verdana.ttf
2965268	WORD	wordpools/wasnorm_wordpool.txt	LTP137	ltpFR	15	16	-1	FRUIT	610	n/a	-1	1	1.0	1.0	upper	../fonts/Verdana.ttf
2969338	WORD	wordpools/wasnorm_wordpool.txt	LTP137	ltpFR	15	16	-1	MAID	856	n/a	-1	1	1.0	1.0	upper	../fonts/Verdana.ttf
2973482	WORD	wordpools/wasnorm_wordpool.txt	LTP137	ltpFR	15	16	-1	SNOB	1335	n/a	-1	1	1.0	1.0	upper	../fonts/Verdana.ttf
2977494	WORD	wordpools/wasnorm_wordpool.txt	LTP137	ltpFR	15	16	-1	BREAST	171	n/a	-1	1	1.0	1.0	upper	../fonts/Verdana.ttf
2981589	WORD	wordpools/wasnorm_wordpool.txt	LTP137	ltpFR	15	16	-1	FIGHTER	564	n/a	-1	1	1.0	1.0	upper	../fonts/Verdana.ttf
2985436	WORD	wordpools/wasnorm_wordpool.txt	LTP137	ltpFR	15	16	-1	TERMINAL	1450	n/a	-1	1	1.0	1.0	upper	../fonts/Verdana.ttf
2989555	WORD	wordpools/wasnorm_wordpool.txt	LTP137	ltpFR	15	16	-1	TOURIST	1488	n/a	-1	1	1.0	1.0	upper	../fonts/Verdana.ttf
2993685	WORD	wordpools/wasnorm_wordpool.txt	LTP137	ltpFR	15	16	-1	PORTRAIT	1111	n/a	-1	1	1.0	1.0	upper	../fonts/Verdana.ttf
2999653	REC_START	n/a	LTP137	ltpFR	15	16	n/a	n/a	n/a	n/a	n/a	n/a	n/a	n/a	n/a	n/a
3000935	REC_WORD	wordpools/wasnorm_wordpool.txt	LTP137	ltpFR	15	16	-1	PORTRAIT	1111	n/a	-1	n/a	n/a	n/a	n/a	n/a
3002137	REC_WORD	wordpools/wasnorm_wordpool.txt	LTP137	ltpFR	15	16	-1	ASSOCIATE	49	n/a	-1	n/a	n/a	n/a	n/a	n/a
3003454	REC_WORD	wordpools/wasnorm_wordpool.txt	LTP137	ltpFR	15	16	-1	MAID	856	n/a	-1	n/a	n/a	n/a	n/a	n/a
3004402	REC_WORD	wordpools/wasnorm_wordpool.txt	LTP137	ltpFR	15	16	-1	FRUIT	610	n/a	-1	n/a	n/a	n/a	n/a	n/a
3005983	REC_WORD	wordpools/wasnorm_wordpool.txt	LTP137	ltpFR	15	16	-1	OREGANO	983	n/a	-1	n/a	n/a	n/a	n/a	n/a
3007435	REC_WORD	wordpools/wasnorm_wordpool.txt	LTP137	ltpFR	15	16	-1	TOAST	1471	n/a	-1	n/a	n/a	n/a	n/a	n/a
3008428	REC_WORD	wordpools/wasnorm_wordpool.txt	LTP137	ltpFR	15	16	-1	MUFFIN	929	n/a	-1	n/a	n/a	n/a	n/a	n/a
3009904	REC_WORD	wordpools/wasnorm_wordpool.txt	LTP137	ltpFR	15	16	-1	FIG	563	n/a	-1	n/a	n/a	n/a	n/a	n/a
3011226	REC_WORD	wordpools/wasnorm_wordpool.txt	LTP137	ltpFR	15	16	-1	AMBULANCE	19	n/a	-1	n/a	n/a	n/a	n/a	n/a
3012289	REC_WORD	wordpools/wasnorm_wordpool.txt	LTP137	ltpFR	15	16	-1	FIGHTER	564	n/a	-1	n/a	n/a	n/a	n/a	n/a
3013137	REC_WORD	wordpools/wasnorm_wordpool.txt	LTP137	ltpFR	15	16	-1	TERMINAL	1450	n/a	-1	n/a	n/a	n/a	n/a	n/a
3014893	REC_WORD	wordpools/wasnorm_wordpool.txt	LTP137	ltpFR	15	16	-1	BREAST	171	n/a	-1	n/a	n/a	n/a	n/a	n/a
3015841	REC_WORD	wordpools/wasnorm_wordpool.txt	LTP137	ltpFR	15	16	-1	SNOB	1335	n/a	-1	n/a	n/a	n/a	n/a	n/a
3019847	REC_WORD	wordpools/wasnorm_wordpool.txt	LTP137	ltpFR	15	16	-1	LIMOUSINE	824	n/a	-1	n/a	n/a	n/a	n/a	n/a
3026058	REC_WORD	wordpools/wasnorm_wordpool.txt	LTP137	ltpFR	15	16	-1	PORTRAIT	1111	n/a	-1	n/a	n/a	n/a	n/a	n/a
3092620	REC_START	n/a	LTP137	ltpFR	15	n/a	n/a	n/a	n/a	n/a	n/a	n/a	n/a	n/a	n/a	n/a
3094181	FFR_REC_WORD	wordpools/wasnorm_wordpool.txt	LTP137	ltpFR	15	n/a	1	PARIS	1014	n/a	0	n/a	n/a	n/a	n/a	n/a
3095124	FFR_REC_WORD	wordpools/wasnorm_wordpool.txt	LTP137	ltpFR	15	n/a	1	JUPITER	765	n/a	0	n/a	n/a	n/a	n/a	n/a
3096022	FFR_REC_WORD	wordpools/wasnorm_wordpool.txt	LTP137	ltpFR	15	n/a	1	WASP	1593	n/a	1	n/a	n/a	n/a	n/a	n/a
3096760	FFR_REC_WORD	wordpools/wasnorm_wordpool.txt	LTP137	ltpFR	15	n/a	1	HONEY	713	n/a	0	n/a	n/a	n/a	n/a	n/a
3098656	FFR_REC_WORD	wordpools/wasnorm_wordpool.txt	LTP137	ltpFR	15	n/a	1	DIAPER	459	n/a	0	n/a	n/a	n/a	n/a	n/a
3100422	FFR_REC_WORD	wordpools/wasnorm_wordpool.txt	LTP137	ltpFR	15	n/a	1	COWARD	394	n/a	1	n/a	n/a	n/a	n/a	n/a
3101445	FFR_REC_WORD	wordpools/wasnorm_wordpool.txt	LTP137	ltpFR	15	n/a	0	BALCONY	72	n/a	1	n/a	n/a	n/a	n/a	n/a
3104463	FFR_REC_WORD	wordpools/wasnorm_wordpool.txt	LTP137	ltpFR	15	n/a	1	EMPLOYEE	531	n/a	1	n/a	n/a	n/a	n/a	n/a
3105490	FFR_REC_WORD	wordpools/wasnorm_wordpool.txt	LTP137	ltpFR	15	n/a	1	ELECTRICIAN	521	n/a	1	n/a	n/a	n/a	n/a	n/a
3108998	FFR_REC_WORD	wordpools/wasnorm_wordpool.txt	LTP137	ltpFR	15	n/a	-1	BRIEFCASE	175	n/a	-1	n/a	n/a	n/a	n/a	n/a
3110963	FFR_REC_WORD	wordpools/wasnorm_wordpool.txt	LTP137	ltpFR	15	n/a	-1	BRAN	167	n/a	-1	n/a	n/a	n/a	n/a	n/a
3112040	FFR_REC_WORD	wordpools/wasnorm_wordpool.txt	LTP137	ltpFR	15	n/a	-1	DRUG	501	n/a	-1	n/a	n/a	n/a	n/a	n/a
3112749	FFR_REC_WORD	wordpools/wasnorm_wordpool.txt	LTP137	ltpFR	15	n/a	-1	WEED	1599	n/a	-1	n/a	n/a	n/a	n/a	n/a
3114280	FFR_REC_WORD	wordpools/wasnorm_wordpool.txt	LTP137	ltpFR	15	n/a	-1	PARTY	1018	n/a	-1	n/a	n/a	n/a	n/a	n/a
3115607	FFR_REC_WORD	wordpools/wasnorm_wordpool.txt	LTP137	ltpFR	15	n/a	-1	UNIVERSITY	1541	n/a	-1	n/a	n/a	n/a	n/a	n/a
3116607	FFR_REC_WORD_VV	wordpools/wasnorm_wordpool.txt	LTP137	ltpFR	15	n/a	n/a	<>	-1	n/a	n/a	n/a	n/a	n/a	n/a	n/a
3118755	FFR_REC_WORD	wordpools/wasnorm_wordpool.txt	LTP137	ltpFR	15	n/a	-1	CHESS	294	n/a	-1	n/a	n/a	n/a	n/a	n/a
3119598	FFR_REC_WORD	wordpools/wasnorm_wordpool.txt	LTP137	ltpFR	15	n/a	-1	UMPIRE	1535	n/a	-1	n/a	n/a	n/a	n/a	n/a
3124368	FFR_REC_WORD	wordpools/wasnorm_wordpool.txt	LTP137	ltpFR	15	n/a	n/a	AIRPLANE	12	n/a	n/a	n/a	n/a	n/a	n/a	n/a
3129678	FFR_REC_WORD	wordpools/wasnorm_wordpool.txt	LTP137	ltpFR	15	n/a	1	DISC	473	n/a	0	n/a	n/a	n/a	n/a	n/a
3131540	FFR_REC_WORD	wordpools/wasnorm_wordpool.txt	LTP137	ltpFR	15	n/a	0	DEPUTY	450	n/a	1	n/a	n/a	n/a	n/a	n/a
3135482	FFR_REC_WORD	wordpools/wasnorm_wordpool.txt	LTP137	ltpFR	15	n/a	-1	TRUCK	1512	n/a	-1	n/a	n/a	n/a	n/a	n/a
3136360	FFR_REC_WORD	wordpools/wasnorm_wordpool.txt	LTP137	ltpFR	15	n/a	-1	ENGINE	535	n/a	-1	n/a	n/a	n/a	n/a	n/a
3138820	FFR_REC_WORD	wordpools/wasnorm_wordpool.txt	LTP137	ltpFR	15	n/a	1	FOX	598	n/a	1	n/a	n/a	n/a	n/a	n/a
3139767	FFR_REC_WORD	wordpools/wasnorm_wordpool.txt	LTP137	ltpFR	15	n/a	1	MOOSE	915	n/a	1	n/a	n/a	n/a	n/a	n/a
3143769	FFR_REC_WORD	wordpools/wasnorm_wordpool.txt	LTP137	ltpFR	15	n/a	-1	BATHTUB	100	n/a	-1	n/a	n/a	n/a	n/a	n/a
3145778	FFR_REC_WORD	wordpools/wasnorm_wordpool.txt	LTP137	ltpFR	15	n/a	-1	PORTRAIT	1111	n/a	-1	n/a	n/a	n/a	n/a	n/a
3146816	FFR_REC_WORD	wordpools/wasnorm_wordpool.txt	LTP137	ltpFR	15	n/a	0	PAINTER	1004	n/a	1	n/a	n/a	n/a	n/a	n/a
3147749	FFR_REC_WORD	wordpools/wasnorm_wordpool.txt	LTP137	ltpFR	15	n/a	-1	AMBULANCE	19	n/a	-1	n/a	n/a	n/a	n/a	n/a
3150508	FFR_REC_WORD	wordpools/wasnorm_wordpool.txt	LTP137	ltpFR	15	n/a	0	SAGE	1222	n/a	1	n/a	n/a	n/a	n/a	n/a
3151626	FFR_REC_WORD	wordpools/wasnorm_wordpool.txt	LTP137	ltpFR	15	n/a	-1	ACTOR	5	n/a	-1	n/a	n/a	n/a	n/a	n/a
3153900	FFR_REC_WORD	wordpools/wasnorm_wordpool.txt	LTP137	ltpFR	15	n/a	-1	MOP	916	n/a	-1	n/a	n/a	n/a	n/a	n/a
3157836	FFR_REC_WORD	wordpools/wasnorm_wordpool.txt	LTP137	ltpFR	15	n/a	1	PUPPY	1144	n/a	1	n/a	n/a	n/a	n/a	n/a
3184845	FFR_REC_WORD	wordpools/wasnorm_wordpool.txt	LTP137	ltpFR	15	n/a	0	CABINET	212	n/a	1	n/a	n/a	n/a	n/a	n/a
3186042	FFR_REC_WORD	wordpools/wasnorm_wordpool.txt	LTP137	ltpFR	15	n/a	1	PIER	1063	n/a	0	n/a	n/a	n/a	n/a	n/a
3188925	FFR_REC_WORD	wordpools/wasnorm_wordpool.txt	LTP137	ltpFR	15	n/a	1	SAILOR	1223	n/a	1	n/a	n/a	n/a	n/a	n/a
3190566	FFR_REC_WORD	wordpools/wasnorm_wordpool.txt	LTP137	ltpFR	15	n/a	1	PRINTER	1126	n/a	0	n/a	n/a	n/a	n/a	n/a
3192128	FFR_REC_WORD	wordpools/wasnorm_wordpool.txt	LTP137	ltpFR	15	n/a	1	MEADOW	881	n/a	1	n/a	n/a	n/a	n/a	n/a
3193166	FFR_REC_WORD	wordpools/wasnorm_wordpool.txt	LTP137	ltpFR	15	n/a	1	PRIEST	1122	n/a	1	n/a	n/a	n/a	n/a	n/a
3195047	FFR_REC_WORD	wordpools/wasnorm_wordpool.txt	LTP137	ltpFR	15	n/a	1	BLOUSE	139	n/a	0	n/a	n/a	n/a	n/a	n/a
3202944	FFR_REC_WORD	wordpools/wasnorm_wordpool.txt	LTP137	ltpFR	15	n/a	1	BINDER	127	n/a	0	n/a	n/a	n/a	n/a	n/a
3204251	FFR_REC_WORD	wordpools/wasnorm_wordpool.txt	LTP137	ltpFR	15	n/a	1	QUAIL	1147	n/a	1	n/a	n/a	n/a	n/a	n/a
3205189	FFR_REC_WORD	wordpools/wasnorm_wordpool.txt	LTP137	ltpFR	15	n/a	1	CARDINAL	244	n/a	1	n/a	n/a	n/a	n/a	n/a
3206167	FFR_REC_WORD	wordpools/wasnorm_wordpool.txt	LTP137	ltpFR	15	n/a	1	GRADUATE	653	n/a	1	n/a	n/a	n/a	n/a	n/a
3233933	FFR_REC_WORD	wordpools/wasnorm_wordpool.txt	LTP137	ltpFR	15	n/a	0	WORKER	1621	n/a	1	n/a	n/a	n/a	n/a	n/a
3234996	FFR_REC_WORD	wordpools/wasnorm_wordpool.txt	LTP137	ltpFR	15	n/a	0	CARPENTER	246	n/a	1	n/a	n/a	n/a	n/a	n/a
3236208	FFR_REC_WORD	wordpools/wasnorm_wordpool.txt	LTP137	ltpFR	15	n/a	0	NAVIGATOR	938	n/a	1	n/a	n/a	n/a	n/a	n/a
3237208	FFR_REC_WORD_VV	wordpools/wasnorm_wordpool.txt	LTP137	ltpFR	15	n/a	n/a	<>	-1	n/a	n/a	n/a	n/a	n/a	n/a	n/a
3237570	FFR_REC_WORD	wordpools/wasnorm_wordpool.txt	LTP137	ltpFR	15	n/a	0	BOSS	152	n/a	1	n/a	n/a	n/a	n/a	n/a
3239370	FFR_REC_WORD	wordpools/wasnorm_wordpool.txt	LTP137	ltpFR	15	n/a	0	APRON	35	n/a	0	n/a	n/a	n/a	n/a	n/a
3254751	FFR_REC_WORD	wordpools/wasnorm_wordpool.txt	LTP137	ltpFR	15	n/a	-1	RECEIPT	1173	n/a	-1	n/a	n/a	n/a	n/a	n/a
3256841	FFR_REC_WORD	wordpools/wasnorm_wordpool.txt	LTP137	ltpFR	15	n/a	-1	BUTTERFLY	206	n/a	-1	n/a	n/a	n/a	n/a	n/a
3258188	FFR_REC_WORD	wordpools/wasnorm_wordpool.txt	LTP137	ltpFR	15	n/a	-1	ROACH	1195	n/a	-1	n/a	n/a	n/a	n/a	n/a
3259041	FFR_REC_WORD	wordpools/wasnorm_wordpool.txt	LTP137	ltpFR	15	n/a	-1	GRAVEL	659	n/a	-1	n/a	n/a	n/a	n/a	n/a
3259969	FFR_REC_WORD	wordpools/wasnorm_wordpool.txt	LTP137	ltpFR	15	n/a	-1	SHOVEL	1295	n/a	-1	n/a	n/a	n/a	n/a	n/a
3262942	FFR_REC_WORD	wordpools/wasnorm_wordpool.txt	LTP137	ltpFR	15	n/a	-1	AWARD	63	n/a	-1	n/a	n/a	n/a	n/a	n/a
3263932	FFR_REC_WORD	wordpools/wasnorm_wordpool.txt	LTP137	ltpFR	15	n/a	-1	LETTUCE	814	n/a	-1	n/a	n/a	n/a	n/a	n/a
3264678	FFR_REC_WORD	wordpools/wasnorm_wordpool.txt	LTP137	ltpFR	15	n/a	-1	VEGETABLE	1552	n/a	-1	n/a	n/a	n/a	n/a	n/a
3265741	FFR_REC_WORD	wordpools/wasnorm_wordpool.txt	LTP137	ltpFR	15	n/a	-1	COLT	349	n/a	-1	n/a	n/a	n/a	n/a	n/a
3268245	FFR_REC_WORD	wordpools/wasnorm_wordpool.txt	LTP137	ltpFR	15	n/a	-1	CLAM	315	n/a	-1	n/a	n/a	n/a	n/a	n/a
3272860	FFR_REC_WORD	wordpools/wasnorm_wordpool.txt	LTP137	ltpFR	15	n/a	-1	CHIEF	298	n/a	-1	n/a	n/a	n/a	n/a	n/a
3275619	FFR_REC_WORD	wordpools/wasnorm_wordpool.txt	LTP137	ltpFR	15	n/a	0	SHERIFF	1284	n/a	1	n/a	n/a	n/a	n/a	n/a
3277820	FFR_REC_WORD	wordpools/wasnorm_wordpool.txt	LTP137	ltpFR	15	n/a	-1	TRUCK	1512	n/a	-1	n/a	n/a	n/a	n/a	n/a
3280568	FFR_REC_WORD	wordpools/wasnorm_wordpool.txt	LTP137	ltpFR	15	n/a	-1	WAGON	1578	n/a	-1	n/a	n/a	n/a	n/a	n/a
3287791	FFR_REC_WORD	wordpools/wasnorm_wordpool.txt	LTP137	ltpFR	15	n/a	1	SHARK	1275	n/a	1	n/a	n/a	n/a	n/a	n/a
3294590	FFR_REC_WORD	wordpools/wasnorm_wordpool.txt	LTP137	ltpFR	15	n/a	0	FOE	587	n/a	1	n/a	n/a	n/a	n/a	n/a
3300646	FFR_REC_WORD	wordpools/wasnorm_wordpool.txt	LTP137	ltpFR	15	n/a	0	SPIDER	1351	n/a	0	n/a	n/a	n/a	n/a	n/a
3302582	FFR_REC_WORD	wordpools/wasnorm_wordpool.txt	LTP137	ltpFR	15	n/a	0	SKYSCRAPER	1322	n/a	1	n/a	n/a	n/a	n/a	n/a
3303819	FFR_REC_WORD	wordpools/wasnorm_wordpool.txt	LTP137	ltpFR	15	n/a	0	WAREHOUSE	1588	n/a	1	n/a	n/a	n/a	n/a	n/a
3304633	FFR_REC_WORD	wordpools/wasnorm_wordpool.txt	LTP137	ltpFR	15	n/a	0	MOB	904	n/a	1	n/a	n/a	n/a	n/a	n/a
3305546	FFR_REC_WORD	wordpools/wasnorm_wordpool.txt	LTP137	ltpFR	15	n/a	0	GANG	619	n/a	0	n/a	n/a	n/a	n/a	n/a
3311472	FFR_REC_WORD	wordpools/wasnorm_wordpool.txt	LTP137	ltpFR	15	n/a	n/a	TYPER	-1	n/a	n/a	n/a	n/a	n/a	n/a	n/a
3314659	FFR_REC_WORD	wordpools/wasnorm_wordpool.txt	LTP137	ltpFR	15	n/a	0	MATTRESS	879	n/a	1	n/a	n/a	n/a	n/a	n/a
3318566	FFR_REC_WORD	wordpools/wasnorm_wordpool.txt	LTP137	ltpFR	15	n/a	0	PEARL	1034	n/a	0	n/a	n/a	n/a	n/a	n/a
3319444	FFR_REC_WORD	wordpools/wasnorm_wordpool.txt	LTP137	ltpFR	15	n/a	1	JEWEL	757	n/a	0	n/a	n/a	n/a	n/a	n/a
3320242	FFR_REC_WORD	wordpools/wasnorm_wordpool.txt	LTP137	ltpFR	15	n/a	1	BEAD	103	n/a	0	n/a	n/a	n/a	n/a	n/a
3320765	FFR_REC_WORD	wordpools/wasnorm_wordpool.txt	LTP137	ltpFR	15	n/a	0	NECKLACE	940	n/a	0	n/a	n/a	n/a	n/a	n/a
3322636	FFR_REC_WORD	wordpools/wasnorm_wordpool.txt	LTP137	ltpFR	15	n/a	n/a	MOSQUITO	917	n/a	n/a	n/a	n/a	n/a	n/a	n/a
3332498	FFR_REC_WORD	wordpools/wasnorm_wordpool.txt	LTP137	ltpFR	15	n/a	0	ZEBRA	1635	n/a	1	n/a	n/a	n/a	n/a	n/a
3336006	FFR_REC_WORD	wordpools/wasnorm_wordpool.txt	LTP137	ltpFR	15	n/a	1	ANKLE	24	n/a	0	n/a	n/a	n/a	n/a	n/a
3336900	FFR_REC_WORD	wordpools/wasnorm_wordpool.txt	LTP137	ltpFR	15	n/a	1	THIGH	1457	n/a	0	n/a	n/a	n/a	n/a	n/a
3339783	FFR_REC_WORD	wordpools/wasnorm_wordpool.txt	LTP137	ltpFR	15	n/a	0	VINE	1568	n/a	0	n/a	n/a	n/a	n/a	n/a
3341464	FFR_REC_WORD	wordpools/wasnorm_wordpool.txt	LTP137	ltpFR	15	n/a	0	DIAGRAM	456	n/a	0	n/a	n/a	n/a	n/a	n/a
3347819	FFR_REC_WORD	wordpools/wasnorm_wordpool.txt	LTP137	ltpFR	15	n/a	1	INFANT	737	n/a	1	n/a	n/a	n/a	n/a	n/a
3348817	FFR_REC_WORD	wordpools/wasnorm_wordpool.txt	LTP137	ltpFR	15	n/a	1	BABY	64	n/a	1	n/a	n/a	n/a	n/a	n/a
3349490	FFR_REC_WORD	wordpools/wasnorm_wordpool.txt	LTP137	ltpFR	15	n/a	1	CRADLE	399	n/a	0	n/a	n/a	n/a	n/a	n/a
3357558	FFR_REC_WORD	wordpools/wasnorm_wordpool.txt	LTP137	ltpFR	15	n/a	-1	GIRL	637	n/a	-1	n/a	n/a	n/a	n/a	n/a
3359379	FFR_REC_WORD	wordpools/wasnorm_wordpool.txt	LTP137	ltpFR	15	n/a	0	WOMAN	1620	n/a	1	n/a	n/a	n/a	n/a	n/a
3360046	FFR_REC_WORD	wordpools/wasnorm_wordpool.txt	LTP137	ltpFR	15	n/a	0	MOTHER	921	n/a	3	n/a	n/a	n/a	n/a	n/a
3360750	FFR_REC_WORD	wordpools/wasnorm_wordpool.txt	LTP137	ltpFR	15	n/a	0	HARE	688	n/a	0	n/a	n/a	n/a	n/a	n/a
3361568	FFR_REC_WORD	wordpools/wasnorm_wordpool.txt	LTP137	ltpFR	15	n/a	0	TUNNEL	1519	n/a	1	n/a	n/a	n/a	n/a	n/a
3364372	FFR_REC_WORD	wordpools/wasnorm_wordpool.txt	LTP137	ltpFR	15	n/a	1	RUNNER	1218	n/a	1	n/a	n/a	n/a	n/a	n/a
3375322	FFR_REC_WORD	wordpools/wasnorm_wordpool.txt	LTP137	ltpFR	15	n/a	1	MALL	860	n/a	0	n/a	n/a	n/a	n/a	n/a
3379203	FFR_REC_WORD	wordpools/wasnorm_wordpool.txt	LTP137	ltpFR	15	n/a	1	ARENA	37	n/a	0	n/a	n/a	n/a	n/a	n/a
3385239	FFR_REC_WORD	wordpools/wasnorm_wordpool.txt	LTP137	ltpFR	15	n/a	0	COCKTAIL	338	n/a	0	n/a	n/a	n/a	n/a	n/a
3386178	FFR_REC_WORD	wordpools/wasnorm_wordpool.txt	LTP137	ltpFR	15	n/a	0	STRAW	1390	n/a	0	n/a	n/a	n/a	n/a	n/a
3392287	FFR_REC_WORD_VV	wordpools/wasnorm_wordpool.txt	LTP137	ltpFR	15	n/a	n/a	<>	-1	n/a	n/a	n/a	n/a	n/a	n/a	n/a
3439794	REC_START	n/a	LTP137	ltpFR	15	1	n/a	n/a	n/a	n/a	n/a	n/a	n/a	n/a	n/a	n/a
3439826	RECOG_TARGET	n/a	LTP137	ltpFR	15	1	1	CRADLE	399	5	0	n/a	n/a	n/a	n/a	n/a
3441370	RECOG_RESP	n/a	LTP137	ltpFR	15	1	1	CRADLE	399	n/a	0	n/a	n/a	n/a	n/a	n/a
3443002	RECOG_CONF	n/a	LTP137	ltpFR	15	1	1	CRADLE	399	5	0	n/a	n/a	n/a	n/a	n/a
3444771	RECOG_TARGET	n/a	LTP137	ltpFR	15	1	1	ANTENNA	28	5	0	n/a	n/a	n/a	n/a	n/a
3445617	RECOG_RESP	n/a	LTP137	ltpFR	15	1	1	ANTENNA	28	n/a	0	n/a	n/a	n/a	n/a	n/a
3446713	RECOG_CONF	n/a	LTP137	ltpFR	15	1	1	ANTENNA	28	5	0	n/a	n/a	n/a	n/a	n/a
3448408	RECOG_TARGET	n/a	LTP137	ltpFR	15	1	1	VINEGAR	1569	5	0	n/a	n/a	n/a	n/a	n/a
3449201	RECOG_RESP	n/a	LTP137	ltpFR	15	1	1	VINEGAR	1569	n/a	0	n/a	n/a	n/a	n/a	n/a
3450105	RECOG_CONF	n/a	LTP137	ltpFR	15	1	1	VINEGAR	1569	5	0	n/a	n/a	n/a	n/a	n/a
3451628	RECOG_TARGET	n/a	LTP137	ltpFR	15	1	1	WOLF	1619	5	1	n/a	n/a	n/a	n/a	n/a
3452415	RECOG_RESP	n/a	LTP137	ltpFR	15	1	1	WOLF	1619	n/a	1	n/a	n/a	n/a	n/a	n/a
3453398	RECOG_CONF	n/a	LTP137	ltpFR	15	1	1	WOLF	1619	5	1	n/a	n/a	n/a	n/a	n/a
3454975	RECOG_TARGET	n/a	LTP137	ltpFR	15	1	1	QUAIL	1147	5	1	n/a	n/a	n/a	n/a	n/a
3455625	RECOG_RESP	n/a	LTP137	ltpFR	15	1	1	QUAIL	1147	n/a	1	n/a	n/a	n/a	n/a	n/a
3456471	RECOG_CONF	n/a	LTP137	ltpFR	15	1	1	QUAIL	1147	5	1	n/a	n/a	n/a	n/a	n/a
3457964	RECOG_TARGET	n/a	LTP137	ltpFR	15	1	-1	CHESS	294	5	-1	n/a	n/a	n/a	n/a	n/a
3458638	RECOG_RESP	n/a	LTP137	ltpFR	15	1	-1	CHESS	294	n/a	-1	n/a	n/a	n/a	n/a	n/a
3459391	RECOG_CONF	n/a	LTP137	ltpFR	15	1	-1	CHESS	294	5	-1	n/a	n/a	n/a	n/a	n/a
3460952	RECOG_TARGET	n/a	LTP137	ltpFR	15	1	1	ORGAN	984	5	0	n/a	n/a	n/a	n/a	n/a
3461656	RECOG_RESP	n/a	LTP137	ltpFR	15	1	1	ORGAN	984	n/a	0	n/a	n/a	n/a	n/a	n/a
3462417	RECOG_CONF	n/a	LTP137	ltpFR	15	1	1	ORGAN	984	5	0	n/a	n/a	n/a	n/a	n/a
3463849	RECOG_TARGET	n/a	LTP137	ltpFR	15	1	-1	RECEIPT	1173	5	-1	n/a	n/a	n/a	n/a	n/a
3464578	RECOG_RESP	n/a	LTP137	ltpFR	15	1	-1	RECEIPT	1173	n/a	-1	n/a	n/a	n/a	n/a	n/a
3465331	RECOG_CONF	n/a	LTP137	ltpFR	15	1	-1	RECEIPT	1173	5	-1	n/a	n/a	n/a	n/a	n/a
3466787	RECOG_TARGET	n/a	LTP137	ltpFR	15	1	0	TRENCH	1503	5	1	n/a	n/a	n/a	n/a	n/a
3467429	RECOG_RESP	n/a	LTP137	ltpFR	15	1	0	TRENCH	1503	n/a	1	n/a	n/a	n/a	n/a	n/a
3468178	RECOG_CONF	n/a	LTP137	ltpFR	15	1	0	TRENCH	1503	5	1	n/a	n/a	n/a	n/a	n/a
3469632	RECOG_TARGET	n/a	LTP137	ltpFR	15	1	1	BANKER	84	5	1	n/a	n/a	n/a	n/a	n/a
3470214	RECOG_RESP	n/a	LTP137	ltpFR	15	1	1	BANKER	84	n/a	1	n/a	n/a	n/a	n/a	n/a
3470938	RECOG_CONF	n/a	LTP137	ltpFR	15	1	1	BANKER	84	5	1	n/a	n/a	n/a	n/a	n/a
3472405	RECOG_TARGET	n/a	LTP137	ltpFR	15	1	1	FARM	552	5	0	n/a	n/a	n/a	n/a	n/a
3473088	RECOG_RESP	n/a	LTP137	ltpFR	15	1	1	FARM	552	n/a	0	n/a	n/a	n/a	n/a	n/a
3473808	RECOG_CONF	n/a	LTP137	ltpFR	15	1	1	FARM	552	5	0	n/a	n/a	n/a	n/a	n/a
3475285	RECOG_TARGET	n/a	LTP137	ltpFR	15	1	1	CAPTAIN	239	4	1	n/a	n/a	n/a	n/a	n/a
3476306	RECOG_RESP	n/a	LTP137	ltpFR	15	1	1	CAPTAIN	239	n/a	1	n/a	n/a	n/a	n/a	n/a
3477184	RECOG_CONF	n/a	LTP137	ltpFR	15	1	1	CAPTAIN	239	4	1	n/a	n/a	n/a	n/a	n/a
3478806	RECOG_LURE	n/a	LTP137	ltpFR	15	1	n/a	CIRCUS	311	4	n/a	n/a	n/a	n/a	n/a	n/a
3479573	RECOG_RESP	n/a	LTP137	ltpFR	15	1	n/a	CIRCUS	311	n/a	n/a	n/a	n/a	n/a	n/a	n/a
3480347	RECOG_CONF	n/a	LTP137	ltpFR	15	1	n/a	CIRCUS	311	4	n/a	n/a	n/a	n/a	n/a	n/a
3481803	RECOG_LURE	n/a	LTP137	ltpFR	15	1	n/a	NECK	939	5	n/a	n/a	n/a	n/a	n/a	n/a
3482626	RECOG_RESP	n/a	LTP137	ltpFR	15	1	n/a	NECK	939	n/a	n/a	n/a	n/a	n/a	n/a	n/a
3483350	RECOG_CONF	n/a	LTP137	ltpFR	15	1	n/a	NECK	939	5	n/a	n/a	n/a	n/a	n/a	n/a
3485024	RECOG_TARGET	n/a	LTP137	ltpFR	15	1	0	GROUND	666	5	1	n/a	n/a	n/a	n/a	n/a
3485833	RECOG_RESP	n/a	LTP137	ltpFR	15	1	0	GROUND	666	n/a	1	n/a	n/a	n/a	n/a	n/a
3486517	RECOG_CONF	n/a	LTP137	ltpFR	15	1	0	GROUND	666	5	1	n/a	n/a	n/a	n/a	n/a
3488054	RECOG_LURE	n/a	LTP137	ltpFR	15	1	n/a	NEWSSTAND	949	5	n/a	n/a	n/a	n/a	n/a	n/a
3488900	RECOG_RESP	n/a	LTP137	ltpFR	15	1	n/a	NEWSSTAND	949	n/a	n/a	n/a	n/a	n/a	n/a	n/a
3489672	RECOG_CONF	n/a	LTP137	ltpFR	15	1	n/a	NEWSSTAND	949	5	n/a	n/a	n/a	n/a	n/a	n/a
3491250	RECOG_TARGET	n/a	LTP137	ltpFR	15	1	0	SKYSCRAPER	1322	5	1	n/a	n/a	n/a	n/a	n/a
3491870	RECOG_RESP	n/a	LTP137	ltpFR	15	1	0	SKYSCRAPER	1322	n/a	1	n/a	n/a	n/a	n/a	n/a
3492609	RECOG_CONF	n/a	LTP137	ltpFR	15	1	0	SKYSCRAPER	1322	5	1	n/a	n/a	n/a	n/a	n/a
3494080	RECOG_TARGET	n/a	LTP137	ltpFR	15	1	-1	BREAST	171	5	-1	n/a	n/a	n/a	n/a	n/a
3494740	RECOG_RESP	n/a	LTP137	ltpFR	15	1	-1	BREAST	171	n/a	-1	n/a	n/a	n/a	n/a	n/a
3495466	RECOG_CONF	n/a	LTP137	ltpFR	15	1	-1	BREAST	171	5	-1	n/a	n/a	n/a	n/a	n/a
3496977	RECOG_TARGET	n/a	LTP137	ltpFR	15	1	1	RADIO	1157	4	0	n/a	n/a	n/a	n/a	n/a
3498089	RECOG_RESP	n/a	LTP137	ltpFR	15	1	1	RADIO	1157	n/a	0	n/a	n/a	n/a	n/a	n/a
3498871	RECOG_CONF	n/a	LTP137	ltpFR	15	1	1	RADIO	1157	4	0	n/a	n/a	n/a	n/a	n/a
3500381	RECOG_TARGET	n/a	LTP137	ltpFR	15	1	1	JUPITER	765	5	0	n/a	n/a	n/a	n/a	n/a
3500947	RECOG_RESP	n/a	LTP137	ltpFR	15	1	1	JUPITER	765	n/a	0	n/a	n/a	n/a	n/a	n/a
3501682	RECOG_CONF	n/a	LTP137	ltpFR	15	1	1	JUPITER	765	5	0	n/a	n/a	n/a	n/a	n/a
3504907	REC_START	n/a	LTP137	ltpFR	15	2	n/a	n/a	n/a	n/a	n/a	n/a	n/a	n/a	n/a	n/a
3504934	RECOG_LURE	n/a	LTP137	ltpFR	15	2	n/a	HEEL	700	5	n/a	n/a	n/a	n/a	n/a	n/a
3505853	RECOG_RESP	n/a	LTP137	ltpFR	15	2	n/a	HEEL	700	n/a	n/a	n/a	n/a	n/a	n/a	n/a
3506609	RECOG_CONF	n/a	LTP137	ltpFR	15	2	n/a	HEEL	700	5	n/a	n/a	n/a	n/a	n/a	n/a
3507997	RECOG_TARGET	n/a	LTP137	ltpFR	15	2	-1	TWIG	1527	5	-1	n/a	n/a	n/a	n/a	n/a
3508716	RECOG_RESP	n/a	LTP137	ltpFR	15	2	-1	TWIG	1527	n/a	-1	n/a	n/a	n/a	n/a	n/a
3509445	RECOG_CONF	n/a	LTP137	ltpFR	15	2	-1	TWIG	1527	5	-1	n/a	n/a	n/a	n/a	n/a
3510827	RECOG_TARGET	n/a	LTP137	ltpFR	15	2	-1	ENGINE	535	5	-1	n/a	n/a	n/a	n/a	n/a
3511483	RECOG_RESP	n/a	LTP137	ltpFR	15	2	-1	ENGINE	535	n/a	-1	n/a	n/a	n/a	n/a	n/a
3512185	RECOG_CONF	n/a	LTP137	ltpFR	15	2	-1	ENGINE	535	5	-1	n/a	n/a	n/a	n/a	n/a
3513557	RECOG_LURE	n/a	LTP137	ltpFR	15	2	n/a	THIMBLE	1458	4	n/a	n/a	n/a	n/a	n/a	n/a
3514665	RECOG_RESP	n/a	LTP137	ltpFR	15	2	n/a	THIMBLE	1458	n/a	n/a	n/a	n/a	n/a	n/a	n/a
3515583	RECOG_CONF	n/a	LTP137	ltpFR	15	2	n/a	THIMBLE	1458	4	n/a	n/a	n/a	n/a	n/a	n/a
3516979	RECOG_LURE	n/a	LTP137	ltpFR	15	2	n/a	KNEE	784	2	n/a	n/a	n/a	n/a	n/a	n/a
3517655	RECOG_RESP	n/a	LTP137	ltpFR	15	2	n/a	KNEE	784	n/a	n/a	n/a	n/a	n/a	n/a	n/a
3518932	RECOG_CONF	n/a	LTP137	ltpFR	15	2	n/a	KNEE	784	2	n/a	n/a	n/a	n/a	n/a	n/a
3520341	RECOG_LURE	n/a	LTP137	ltpFR	15	2	n/a	SMOG	1330	4	n/a	n/a	n/a	n/a	n/a	n/a
3521185	RECOG_RESP	n/a	LTP137	ltpFR	15	2	n/a	SMOG	1330	n/a	n/a	n/a	n/a	n/a	n/a	n/a
3521933	RECOG_CONF	n/a	LTP137	ltpFR	15	2	n/a	SMOG	1330	4	n/a	n/a	n/a	n/a	n/a	n/a
3523346	RECOG_TARGET	n/a	LTP137	ltpFR	15	2	0	WILDERNESS	1610	5	1	n/a	n/a	n/a	n/a	n/a
3524108	RECOG_RESP	n/a	LTP137	ltpFR	15	2	0	WILDERNESS	1610	n/a	1	n/a	n/a	n/a	n/a	n/a
3524847	RECOG_CONF	n/a	LTP137	ltpFR	15	2	0	WILDERNESS	1610	5	1	n/a	n/a	n/a	n/a	n/a
3526359	RECOG_TARGET	n/a	LTP137	ltpFR	15	2	0	APRON	35	5	0	n/a	n/a	n/a	n/a	n/a
3527002	RECOG_RESP	n/a	LTP137	ltpFR	15	2	0	APRON	35	n/a	0	n/a	n/a	n/a	n/a	n/a
3527740	RECOG_CONF	n/a	LTP137	ltpFR	15	2	0	APRON	35	5	0	n/a	n/a	n/a	n/a	n/a
3529106	RECOG_TARGET	n/a	LTP137	ltpFR	15	2	0	DUCK	504	5	0	n/a	n/a	n/a	n/a	n/a
3530324	RECOG_RESP	n/a	LTP137	ltpFR	15	2	0	DUCK	504	n/a	0	n/a	n/a	n/a	n/a	n/a
3531198	RECOG_CONF	n/a	LTP137	ltpFR	15	2	0	DUCK	504	5	0	n/a	n/a	n/a	n/a	n/a
3532719	RECOG_TARGET	n/a	LTP137	ltpFR	15	2	1	JUGGLER	763	3	1	n/a	n/a	n/a	n/a	n/a
3533868	RECOG_RESP	n/a	LTP137	ltpFR	15	2	1	JUGGLER	763	n/a	1	n/a	n/a	n/a	n/a	n/a
3534705	RECOG_CONF	n/a	LTP137	ltpFR	15	2	1	JUGGLER	763	3	1	n/a	n/a	n/a	n/a	n/a
3536206	RECOG_TARGET	n/a	LTP137	ltpFR	15	2	1	SAUSAGE	1238	5	0	n/a	n/a	n/a	n/a	n/a
3536872	RECOG_RESP	n/a	LTP137	ltpFR	15	2	1	SAUSAGE	1238	n/a	0	n/a	n/a	n/a	n/a	n/a
3537599	RECOG_CONF	n/a	LTP137	ltpFR	15	2	1	SAUSAGE	1238	5	0	n/a	n/a	n/a	n/a	n/a
3538970	RECOG_LURE	n/a	LTP137	ltpFR	15	2	n/a	POSSUM	1112	4	n/a	n/a	n/a	n/a	n/a	n/a
3539781	RECOG_RESP	n/a	LTP137	ltpFR	15	2	n/a	POSSUM	1112	n/a	n/a	n/a	n/a	n/a	n/a	n/a
3540537	RECOG_CONF	n/a	LTP137	ltpFR	15	2	n/a	POSSUM	1112	4	n/a	n/a	n/a	n/a	n/a	n/a
3541883	RECOG_TARGET	n/a	LTP137	ltpFR	15	2	0	TIMBER	1469	5	1	n/a	n/a	n/a	n/a	n/a
3542564	RECOG_RESP	n/a	LTP137	ltpFR	15	2	0	TIMBER	1469	n/a	1	n/a	n/a	n/a	n/a	n/a
3543325	RECOG_CONF	n/a	LTP137	ltpFR	15	2	0	TIMBER	1469	5	1	n/a	n/a	n/a	n/a	n/a
3544705	RECOG_TARGET	n/a	LTP137	ltpFR	15	2	0	THIEF	1456	5	1	n/a	n/a	n/a	n/a	n/a
3545344	RECOG_RESP	n/a	LTP137	ltpFR	15	2	0	THIEF	1456	n/a	1	n/a	n/a	n/a	n/a	n/a
3546138	RECOG_CONF	n/a	LTP137	ltpFR	15	2	0	THIEF	1456	5	1	n/a	n/a	n/a	n/a	n/a
3547526	RECOG_TARGET	n/a	LTP137	ltpFR	15	2	0	TAG	1429	5	0	n/a	n/a	n/a	n/a	n/a
3548257	RECOG_RESP	n/a	LTP137	ltpFR	15	2	0	TAG	1429	n/a	0	n/a	n/a	n/a	n/a	n/a
3549071	RECOG_CONF	n/a	LTP137	ltpFR	15	2	0	TAG	1429	5	0	n/a	n/a	n/a	n/a	n/a
3550415	RECOG_TARGET	n/a	LTP137	ltpFR	15	2	-1	AWARD	63	5	-1	n/a	n/a	n/a	n/a	n/a
3551063	RECOG_RESP	n/a	LTP137	ltpFR	15	2	-1	AWARD	63	n/a	-1	n/a	n/a	n/a	n/a	n/a
3551770	RECOG_CONF	n/a	LTP137	ltpFR	15	2	-1	AWARD	63	5	-1	n/a	n/a	n/a	n/a	n/a
3553228	RECOG_TARGET	n/a	LTP137	ltpFR	15	2	1	WASP	1593	5	1	n/a	n/a	n/a	n/a	n/a
3554874	RECOG_RESP	n/a	LTP137	ltpFR	15	2	1	WASP	1593	n/a	1	n/a	n/a	n/a	n/a	n/a
3555607	RECOG_CONF	n/a	LTP137	ltpFR	15	2	1	WASP	1593	5	1	n/a	n/a	n/a	n/a	n/a
3556966	RECOG_TARGET	n/a	LTP137	ltpFR	15	2	-1	BATHTUB	100	5	-1	n/a	n/a	n/a	n/a	n/a
3557509	RECOG_RESP	n/a	LTP137	ltpFR	15	2	-1	BATHTUB	100	n/a	-1	n/a	n/a	n/a	n/a	n/a
3558219	RECOG_CONF	n/a	LTP137	ltpFR	15	2	-1	BATHTUB	100	5	-1	n/a	n/a	n/a	n/a	n/a
3559687	RECOG_TARGET	n/a	LTP137	ltpFR	15	2	0	CAGE	218	5	1	n/a	n/a	n/a	n/a	n/a
3560277	RECOG_RESP	n/a	LTP137	ltpFR	15	2	0	CAGE	218	n/a	1	n/a	n/a	n/a	n/a	n/a
3560994	RECOG_CONF	n/a	LTP137	ltpFR	15	2	0	CAGE	218	5	1	n/a	n/a	n/a	n/a	n/a
3562393	RECOG_TARGET	n/a	LTP137	ltpFR	15	2	-1	BATTERY	101	4	-1	n/a	n/a	n/a	n/a	n/a
3563372	RECOG_RESP	n/a	LTP137	ltpFR	15	2	-1	BATTERY	101	n/a	-1	n/a	n/a	n/a	n/a	n/a
3564124	RECOG_CONF	n/a	LTP137	ltpFR	15	2	-1	BATTERY	101	4	-1	n/a	n/a	n/a	n/a	n/a
3567163	REC_START	n/a	LTP137	ltpFR	15	3	n/a	n/a	n/a	n/a	n/a	n/a	n/a	n/a	n/a	n/a
3567195	RECOG_TARGET	n/a	LTP137	ltpFR	15	3	-1	TRUCK	1512	5	-1	n/a	n/a	n/a	n/a	n/a
3567934	RECOG_RESP	n/a	LTP137	ltpFR	15	3	-1	TRUCK	1512	n/a	-1	n/a	n/a	n/a	n/a	n/a
3568640	RECOG_CONF	n/a	LTP137	ltpFR	15	3	-1	TRUCK	1512	5	-1	n/a	n/a	n/a	n/a	n/a
3570159	RECOG_TARGET	n/a	LTP137	ltpFR	15	3	0	PAINTER	1004	2	1	n/a	n/a	n/a	n/a	n/a
3570940	RECOG_RESP	n/a	LTP137	ltpFR	15	3	0	PAINTER	1004	n/a	1	n/a	n/a	n/a	n/a	n/a
3571699	RECOG_CONF	n/a	LTP137	ltpFR	15	3	0	PAINTER	1004	2	1	n/a	n/a	n/a	n/a	n/a
3573172	RECOG_TARGET	n/a	LTP137	ltpFR	15	3	-1	MOP	916	5	-1	n/a	n/a	n/a	n/a	n/a
3573827	RECOG_RESP	n/a	LTP137	ltpFR	15	3	-1	MOP	916	n/a	-1	n/a	n/a	n/a	n/a	n/a
3574570	RECOG_CONF	n/a	LTP137	ltpFR	15	3	-1	MOP	916	5	-1	n/a	n/a	n/a	n/a	n/a
3575994	RECOG_TARGET	n/a	LTP137	ltpFR	15	3	1	TOOTH	1481	5	0	n/a	n/a	n/a	n/a	n/a
3577180	RECOG_RESP	n/a	LTP137	ltpFR	15	3	1	TOOTH	1481	n/a	0	n/a	n/a	n/a	n/a	n/a
3577876	RECOG_CONF	n/a	LTP137	ltpFR	15	3	1	TOOTH	1481	5	0	n/a	n/a	n/a	n/a	n/a
3579323	RECOG_TARGET	n/a	LTP137	ltpFR	15	3	0	COCKTAIL	338	5	0	n/a	n/a	n/a	n/a	n/a
3580420	RECOG_RESP	n/a	LTP137	ltpFR	15	3	0	COCKTAIL	338	n/a	0	n/a	n/a	n/a	n/a	n/a
3581139	RECOG_CONF	n/a	LTP137	ltpFR	15	3	0	COCKTAIL	338	5	0	n/a	n/a	n/a	n/a	n/a
3582686	RECOG_TARGET	n/a	LTP137	ltpFR	15	3	0	METEOR	889	5	1	n/a	n/a	n/a	n/a	n/a
3583388	RECOG_RESP	n/a	LTP137	ltpFR	15	3	0	METEOR	889	n/a	1	n/a	n/a	n/a	n/a	n/a
3584099	RECOG_CONF	n/a	LTP137	ltpFR	15	3	0	METEOR	889	5	1	n/a	n/a	n/a	n/a	n/a
3585465	RECOG_LURE	n/a	LTP137	ltpFR	15	3	n/a	MONSTER	912	4	n/a	n/a	n/a	n/a	n/a	n/a
3586696	RECOG_RESP	n/a	LTP137	ltpFR	15	3	n/a	MONSTER	912	n/a	n/a	n/a	n/a	n/a	n/a	n/a
3587389	RECOG_CONF	n/a	LTP137	ltpFR	15	3	n/a	MONSTER	912	4	n/a	n/a	n/a	n/a	n/a	n/a
3588829	RECOG_TARGET	n/a	LTP137	ltpFR	15	3	0	WAREHOUSE	1588	5	1	n/a	n/a	n/a	n/a	n/a
3589677	RECOG_RESP	n/a	LTP137	ltpFR	15	3	0	WAREHOUSE	1588	n/a	1	n/a	n/a	n/a	n/a	n/a
3590394	RECOG_CONF	n/a	LTP137	ltpFR	15	3	0	WAREHOUSE	1588	5	1	n/a	n/a	n/a	n/a	n/a
3591800	RECOG_TARGET	n/a	LTP137	ltpFR	15	3	-1	BUTTERFLY	206	5	-1	n/a	n/a	n/a	n/a	n/a
3592625	RECOG_RESP	n/a	LTP137	ltpFR	15	3	-1	BUTTERFLY	206	n/a	-1	n/a	n/a	n/a	n/a	n/a
3593287	RECOG_CONF	n/a	LTP137	ltpFR	15	3	-1	BUTTERFLY	206	5	-1	n/a	n/a	n/a	n/a	n/a
3594755	RECOG_TARGET	n/a	LTP137	ltpFR	15	3	0	LOOP	844	5	0	n/a	n/a	n/a	n/a	n/a
3595489	RECOG_RESP	n/a	LTP137	ltpFR	15	3	0	LOOP	844	n/a	0	n/a	n/a	n/a	n/a	n/a
3596172	RECOG_CONF	n/a	LTP137	ltpFR	15	3	0	LOOP	844	5	0	n/a	n/a	n/a	n/a	n/a
3597559	RECOG_TARGET	n/a	LTP137	ltpFR	15	3	1	TUBA	1515	5	0	n/a	n/a	n/a	n/a	n/a
3598326	RECOG_RESP	n/a	LTP137	ltpFR	15	3	1	TUBA	1515	n/a	0	n/a	n/a	n/a	n/a	n/a
3598993	RECOG_CONF	n/a	LTP137	ltpFR	15	3	1	TUBA	1515	5	0	n/a	n/a	n/a	n/a	n/a
3600473	RECOG_TARGET	n/a	LTP137	ltpFR	15	3	0	BROOK	177	5	1	n/a	n/a	n/a	n/a	n/a
3601502	RECOG_RESP	n/a	LTP137	ltpFR	15	3	0	BROOK	177	n/a	1	n/a	n/a	n/a	n/a	n/a
3602158	RECOG_CONF	n/a	LTP137	ltpFR	15	3	0	BROOK	177	5	1	n/a	n/a	n/a	n/a	n/a
3603569	RECOG_TARGET	n/a	LTP137	ltpFR	15	3	-1	WAX	1597	5	-1	n/a	n/a	n/a	n/a	n/a
3604317	RECOG_RESP	n/a	LTP137	ltpFR	15	3	-1	WAX	1597	n/a	-1	n/a	n/a	n/a	n/a	n/a
3604993	RECOG_CONF	n/a	LTP137	ltpFR	15	3	-1	WAX	1597	5	-1	n/a	n/a	n/a	n/a	n/a
3606367	RECOG_LURE	n/a	LTP137	ltpFR	15	3	n/a	ITEM	746	5	n/a	n/a	n/a	n/a	n/a	n/a
3607230	RECOG_RESP	n/a	LTP137	ltpFR	15	3	n/a	ITEM	746	n/a	n/a	n/a	n/a	n/a	n/a	n/a
3607925	RECOG_CONF	n/a	LTP137	ltpFR	15	3	n/a	ITEM	746	5	n/a	n/a	n/a	n/a	n/a	n/a
3609405	RECOG_TARGET	n/a	LTP137	ltpFR	15	3	-1	DIRT	472	5	-1	n/a	n/a	n/a	n/a	n/a
3610162	RECOG_RESP	n/a	LTP137	ltpFR	15	3	-1	DIRT	472	n/a	-1	n/a	n/a	n/a	n/a	n/a
3610853	RECOG_CONF	n/a	LTP137	ltpFR	15	3	-1	DIRT	472	5	-1	n/a	n/a	n/a	n/a	n/a
3612351	RECOG_TARGET	n/a	LTP137	ltpFR	15	3	0	SUPPER	1411	5	1	n/a	n/a	n/a	n/a	n/a
3613115	RECOG_RESP	n/a	LTP137	ltpFR	15	3	0	SUPPER	1411	n/a	1	n/a	n/a	n/a	n/a	n/a
3613845	RECOG_CONF	n/a	LTP137	ltpFR	15	3	0	SUPPER	1411	5	1	n/a	n/a	n/a	n/a	n/a
3615273	RECOG_TARGET	n/a	LTP137	ltpFR	15	3	0	STRAW	1390	5	0	n/a	n/a	n/a	n/a	n/a
3616386	RECOG_RESP	n/a	LTP137	ltpFR	15	3	0	STRAW	1390	n/a	0	n/a	n/a	n/a	n/a	n/a
3617144	RECOG_CONF	n/a	LTP137	ltpFR	15	3	0	STRAW	1390	5	0	n/a	n/a	n/a	n/a	n/a
3618652	RECOG_LURE	n/a	LTP137	ltpFR	15	3	n/a	SOFTBALL	1343	2	n/a	n/a	n/a	n/a	n/a	n/a
3620050	RECOG_RESP	n/a	LTP137	ltpFR	15	3	n/a	SOFTBALL	1343	n/a	n/a	n/a	n/a	n/a	n/a	n/a
3620943	RECOG_CONF	n/a	LTP137	ltpFR	15	3	n/a	SOFTBALL	1343	2	n/a	n/a	n/a	n/a	n/a	n/a
3622539	RECOG_TARGET	n/a	LTP137	ltpFR	15	3	-1	BRACELET	163	5	-1	n/a	n/a	n/a	n/a	n/a
3623221	RECOG_RESP	n/a	LTP137	ltpFR	15	3	-1	BRACELET	163	n/a	-1	n/a	n/a	n/a	n/a	n/a
3623937	RECOG_CONF	n/a	LTP137	ltpFR	15	3	-1	BRACELET	163	5	-1	n/a	n/a	n/a	n/a	n/a
3625336	RECOG_TARGET	n/a	LTP137	ltpFR	15	3	0	ACROBAT	4	2	1	n/a	n/a	n/a	n/a	n/a
3626162	RECOG_RESP	n/a	LTP137	ltpFR	15	3	0	ACROBAT	4	n/a	1	n/a	n/a	n/a	n/a	n/a
3626871	RECOG_CONF	n/a	LTP137	ltpFR	15	3	0	ACROBAT	4	2	1	n/a	n/a	n/a	n/a	n/a
3629930	REC_START	n/a	LTP137	ltpFR	15	4	n/a	n/a	n/a	n/a	n/a	n/a	n/a	n/a	n/a	n/a
3629956	RECOG_TARGET	n/a	LTP137	ltpFR	15	4	0	SIRLOIN	1311	5	0	n/a	n/a	n/a	n/a	n/a
3630575	RECOG_RESP	n/a	LTP137	ltpFR	15	4	0	SIRLOIN	1311	n/a	0	n/a	n/a	n/a	n/a	n/a
3631431	RECOG_CONF	n/a	LTP137	ltpFR	15	4	0	SIRLOIN	1311	5	0	n/a	n/a	n/a	n/a	n/a
3633036	RECOG_TARGET	n/a	LTP137	ltpFR	15	4	0	VINE	1568	5	0	n/a	n/a	n/a	n/a	n/a
3634115	RECOG_RESP	n/a	LTP137	ltpFR	15	4	0	VINE	1568	n/a	0	n/a	n/a	n/a	n/a	n/a
3634815	RECOG_CONF	n/a	LTP137	ltpFR	15	4	0	VINE	1568	5	0	n/a	n/a	n/a	n/a	n/a
3636249	RECOG_TARGET	n/a	LTP137	ltpFR	15	4	1	COLOGNE	347	5	0	n/a	n/a	n/a	n/a	n/a
3636886	RECOG_RESP	n/a	LTP137	ltpFR	15	4	1	COLOGNE	347	n/a	0	n/a	n/a	n/a	n/a	n/a
3637617	RECOG_CONF	n/a	LTP137	ltpFR	15	4	1	COLOGNE	347	5	0	n/a	n/a	n/a	n/a	n/a
3639029	RECOG_TARGET	n/a	LTP137	ltpFR	15	4	0	SPIDER	1351	5	0	n/a	n/a	n/a	n/a	n/a
3639864	RECOG_RESP	n/a	LTP137	ltpFR	15	4	0	SPIDER	1351	n/a	0	n/a	n/a	n/a	n/a	n/a
3640640	RECOG_CONF	n/a	LTP137	ltpFR	15	4	0	SPIDER	1351	5	0	n/a	n/a	n/a	n/a	n/a
3642100	RECOG_TARGET	n/a	LTP137	ltpFR	15	4	1	CHIME	300	5	0	n/a	n/a	n/a	n/a	n/a
3643371	RECOG_RESP	n/a	LTP137	ltpFR	15	4	1	CHIME	300	n/a	0	n/a	n/a	n/a	n/a	n/a
3644067	RECOG_CONF	n/a	LTP137	ltpFR	15	4	1	CHIME	300	5	0	n/a	n/a	n/a	n/a	n/a
3645620	RECOG_LURE	n/a	LTP137	ltpFR	15	4	n/a	SWIMMER	1420	4	n/a	n/a	n/a	n/a	n/a	n/a
3646496	RECOG_RESP	n/a	LTP137	ltpFR	15	4	n/a	SWIMMER	1420	n/a	n/a	n/a	n/a	n/a	n/a	n/a
3647286	RECOG_CONF	n/a	LTP137	ltpFR	15	4	n/a	SWIMMER	1420	4	n/a	n/a	n/a	n/a	n/a	n/a
3648851	RECOG_TARGET	n/a	LTP137	ltpFR	15	4	-1	TOURIST	1488	5	-1	n/a	n/a	n/a	n/a	n/a
3649604	RECOG_RESP	n/a	LTP137	ltpFR	15	4	-1	TOURIST	1488	n/a	-1	n/a	n/a	n/a	n/a	n/a
3650318	RECOG_CONF	n/a	LTP137	ltpFR	15	4	-1	TOURIST	1488	5	-1	n/a	n/a	n/a	n/a	n/a
3651764	RECOG_TARGET	n/a	LTP137	ltpFR	15	4	-1	ASSOCIATE	49	5	-1	n/a	n/a	n/a	n/a	n/a
3652399	RECOG_RESP	n/a	LTP137	ltpFR	15	4	-1	ASSOCIATE	49	n/a	-1	n/a	n/a	n/a	n/a	n/a
3653132	RECOG_CONF	n/a	LTP137	ltpFR	15	4	-1	ASSOCIATE	49	5	-1	n/a	n/a	n/a	n/a	n/a
3654610	RECOG_TARGET	n/a	LTP137	ltpFR	15	4	0	STRING	1394	5	0	n/a	n/a	n/a	n/a	n/a
3655235	RECOG_RESP	n/a	LTP137	ltpFR	15	4	0	STRING	1394	n/a	0	n/a	n/a	n/a	n/a	n/a
3655965	RECOG_CONF	n/a	LTP137	ltpFR	15	4	0	STRING	1394	5	0	n/a	n/a	n/a	n/a	n/a
3657498	RECOG_TARGET	n/a	LTP137	ltpFR	15	4	1	PRIEST	1122	5	1	n/a	n/a	n/a	n/a	n/a
3658628	RECOG_RESP	n/a	LTP137	ltpFR	15	4	1	PRIEST	1122	n/a	1	n/a	n/a	n/a	n/a	n/a
3659345	RECOG_CONF	n/a	LTP137	ltpFR	15	4	1	PRIEST	1122	5	1	n/a	n/a	n/a	n/a	n/a
3660845	RECOG_TARGET	n/a	LTP137	ltpFR	15	4	1	PECAN	1036	5	0	n/a	n/a	n/a	n/a	n/a
3661587	RECOG_RESP	n/a	LTP137	ltpFR	15	4	1	PECAN	1036	n/a	0	n/a	n/a	n/a	n/a	n/a
3662295	RECOG_CONF	n/a	LTP137	ltpFR	15	4	1	PECAN	1036	5	0	n/a	n/a	n/a	n/a	n/a
3663800	RECOG_TARGET	n/a	LTP137	ltpFR	15	4	0	FIST	572	5	0	n/a	n/a	n/a	n/a	n/a
3664416	RECOG_RESP	n/a	LTP137	ltpFR	15	4	0	FIST	572	n/a	0	n/a	n/a	n/a	n/a	n/a
3665182	RECOG_CONF	n/a	LTP137	ltpFR	15	4	0	FIST	572	5	0	n/a	n/a	n/a	n/a	n/a
3666713	RECOG_TARGET	n/a	LTP137	ltpFR	15	4	1	CAVITY	264	5	0	n/a	n/a	n/a	n/a	n/a
3667556	RECOG_RESP	n/a	LTP137	ltpFR	15	4	1	CAVITY	264	n/a	0	n/a	n/a	n/a	n/a	n/a
3668290	RECOG_CONF	n/a	LTP137	ltpFR	15	4	1	CAVITY	264	5	0	n/a	n/a	n/a	n/a	n/a
3669827	RECOG_TARGET	n/a	LTP137	ltpFR	15	4	0	HARE	688	5	0	n/a	n/a	n/a	n/a	n/a
3670515	RECOG_RESP	n/a	LTP137	ltpFR	15	4	0	HARE	688	n/a	0	n/a	n/a	n/a	n/a	n/a
3671235	RECOG_CONF	n/a	LTP137	ltpFR	15	4	0	HARE	688	5	0	n/a	n/a	n/a	n/a	n/a
3672740	RECOG_LURE	n/a	LTP137	ltpFR	15	4	n/a	HORSE	719	3	n/a	n/a	n/a	n/a	n/a	n/a
3673857	RECOG_RESP	n/a	LTP137	ltpFR	15	4	n/a	HORSE	719	n/a	n/a	n/a	n/a	n/a	n/a	n/a
3674635	RECOG_CONF	n/a	LTP137	ltpFR	15	4	n/a	HORSE	719	3	n/a	n/a	n/a	n/a	n/a	n/a
3676194	RECOG_TARGET	n/a	LTP137	ltpFR	15	4	1	CARDINAL	244	4	1	n/a	n/a	n/a	n/a	n/a
3677328	RECOG_RESP	n/a	LTP137	ltpFR	15	4	1	CARDINAL	244	n/a	1	n/a	n/a	n/a	n/a	n/a
3678070	RECOG_CONF	n/a	LTP137	ltpFR	15	4	1	CARDINAL	244	4	1	n/a	n/a	n/a	n/a	n/a
3679639	RECOG_TARGET	n/a	LTP137	ltpFR	15	4	1	HONEY	713	5	0	n/a	n/a	n/a	n/a	n/a
3680500	RECOG_RESP	n/a	LTP137	ltpFR	15	4	1	HONEY	713	n/a	0	n/a	n/a	n/a	n/a	n/a
3681511	RECOG_CONF	n/a	LTP137	ltpFR	15	4	1	HONEY	713	5	0	n/a	n/a	n/a	n/a	n/a
3683228	RECOG_TARGET	n/a	LTP137	ltpFR	15	4	-1	LIMOUSINE	824	5	-1	n/a	n/a	n/a	n/a	n/a
3684231	RECOG_RESP	n/a	LTP137	ltpFR	15	4	-1	LIMOUSINE	824	n/a	-1	n/a	n/a	n/a	n/a	n/a
3685032	RECOG_CONF	n/a	LTP137	ltpFR	15	4	-1	LIMOUSINE	824	5	-1	n/a	n/a	n/a	n/a	n/a
3686498	RECOG_LURE	n/a	LTP137	ltpFR	15	4	n/a	FEMALE	559	3	n/a	n/a	n/a	n/a	n/a	n/a
3687645	RECOG_RESP	n/a	LTP137	ltpFR	15	4	n/a	FEMALE	559	n/a	n/a	n/a	n/a	n/a	n/a	n/a
3688626	RECOG_CONF	n/a	LTP137	ltpFR	15	4	n/a	FEMALE	559	3	n/a	n/a	n/a	n/a	n/a	n/a
3690195	RECOG_TARGET	n/a	LTP137	ltpFR	15	4	0	SOLDIER	1344	5	1	n/a	n/a	n/a	n/a	n/a
3690873	RECOG_RESP	n/a	LTP137	ltpFR	15	4	0	SOLDIER	1344	n/a	1	n/a	n/a	n/a	n/a	n/a
3691542	RECOG_CONF	n/a	LTP137	ltpFR	15	4	0	SOLDIER	1344	5	1	n/a	n/a	n/a	n/a	n/a
3694924	REC_START	n/a	LTP137	ltpFR	15	5	n/a	n/a	n/a	n/a	n/a	n/a	n/a	n/a	n/a	n/a
3694947	RECOG_LURE	n/a	LTP137	ltpFR	15	5	n/a	OWL	992	5	n/a	n/a	n/a	n/a	n/a	n/a
3695792	RECOG_RESP	n/a	LTP137	ltpFR	15	5	n/a	OWL	992	n/a	n/a	n/a	n/a	n/a	n/a	n/a
3696527	RECOG_CONF	n/a	LTP137	ltpFR	15	5	n/a	OWL	992	5	n/a	n/a	n/a	n/a	n/a	n/a
3698160	RECOG_TARGET	n/a	LTP137	ltpFR	15	5	0	TUXEDO	1525	5	1	n/a	n/a	n/a	n/a	n/a
3698883	RECOG_RESP	n/a	LTP137	ltpFR	15	5	0	TUXEDO	1525	n/a	1	n/a	n/a	n/a	n/a	n/a
3699601	RECOG_CONF	n/a	LTP137	ltpFR	15	5	0	TUXEDO	1525	5	1	n/a	n/a	n/a	n/a	n/a
3701190	RECOG_TARGET	n/a	LTP137	ltpFR	15	5	1	DISC	473	5	0	n/a	n/a	n/a	n/a	n/a
3701923	RECOG_RESP	n/a	LTP137	ltpFR	15	5	1	DISC	473	n/a	0	n/a	n/a	n/a	n/a	n/a
3702621	RECOG_CONF	n/a	LTP137	ltpFR	15	5	1	DISC	473	5	0	n/a	n/a	n/a	n/a	n/a
3704544	RECOG_TARGET	n/a	LTP137	ltpFR	15	5	1	ANKLE	24	5	0	n/a	n/a	n/a	n/a	n/a
3705575	RECOG_RESP	n/a	LTP137	ltpFR	15	5	1	ANKLE	24	n/a	0	n/a	n/a	n/a	n/a	n/a
3706393	RECOG_CONF	n/a	LTP137	ltpFR	15	5	1	ANKLE	24	5	0	n/a	n/a	n/a	n/a	n/a
3707949	RECOG_TARGET	n/a	LTP137	ltpFR	15	5	1	MALL	860	5	0	n/a	n/a	n/a	n/a	n/a
3709264	RECOG_RESP	n/a	LTP137	ltpFR	15	5	1	MALL	860	n/a	0	n/a	n/a	n/a	n/a	n/a
3710094	RECOG_CONF	n/a	LTP137	ltpFR	15	5	1	MALL	860	5	0	n/a	n/a	n/a	n/a	n/a
3711695	RECOG_TARGET	n/a	LTP137	ltpFR	15	5	1	SHAMPOO	1274	5	0	n/a	n/a	n/a	n/a	n/a
3712454	RECOG_RESP	n/a	LTP137	ltpFR	15	5	1	SHAMPOO	1274	n/a	0	n/a	n/a	n/a	n/a	n/a
3713134	RECOG_CONF	n/a	LTP137	ltpFR	15	5	1	SHAMPOO	1274	5	0	n/a	n/a	n/a	n/a	n/a
3714649	RECOG_LURE	n/a	LTP137	ltpFR	15	5	n/a	HAIL	676	3	n/a	n/a	n/a	n/a	n/a	n/a
3715869	RECOG_RESP	n/a	LTP137	ltpFR	15	5	n/a	HAIL	676	n/a	n/a	n/a	n/a	n/a	n/a	n/a
3716438	RECOG_CONF	n/a	LTP137	ltpFR	15	5	n/a	HAIL	676	3	n/a	n/a	n/a	n/a	n/a	n/a
3717937	RECOG_TARGET	n/a	LTP137	ltpFR	15	5	0	MAN	862	2	1	n/a	n/a	n/a	n/a	n/a
3718940	RECOG_RESP	n/a	LTP137	ltpFR	15	5	0	MAN	862	n/a	1	n/a	n/a	n/a	n/a	n/a
3719844	RECOG_CONF	n/a	LTP137	ltpFR	15	5	0	MAN	862	2	1	n/a	n/a	n/a	n/a	n/a
3721234	RECOG_TARGET	n/a	LTP137	ltpFR	15	5	1	CATTLE	261	5	1	n/a	n/a	n/a	n/a	n/a
3721939	RECOG_RESP	n/a	LTP137	ltpFR	15	5	1	CATTLE	261	n/a	1	n/a	n/a	n/a	n/a	n/a
3722619	RECOG_CONF	n/a	LTP137	ltpFR	15	5	1	CATTLE	261	5	1	n/a	n/a	n/a	n/a	n/a
3723889	RECOG_TARGET	n/a	LTP137	ltpFR	15	5	0	PEANUT	1032	5	0	n/a	n/a	n/a	n/a	n/a
3725100	RECOG_RESP	n/a	LTP137	ltpFR	15	5	0	PEANUT	1032	n/a	0	n/a	n/a	n/a	n/a	n/a
3725805	RECOG_CONF	n/a	LTP137	ltpFR	15	5	0	PEANUT	1032	5	0	n/a	n/a	n/a	n/a	n/a
3727177	RECOG_TARGET	n/a	LTP137	ltpFR	15	5	0	PATRIOT	1026	5	1	n/a	n/a	n/a	n/a	n/a
3728303	RECOG_RESP	n/a	LTP137	ltpFR	15	5	0	PATRIOT	1026	n/a	1	n/a	n/a	n/a	n/a	n/a
3728956	RECOG_CONF	n/a	LTP137	ltpFR	15	5	0	PATRIOT	1026	5	1	n/a	n/a	n/a	n/a	n/a
3730406	RECOG_TARGET	n/a	LTP137	ltpFR	15	5	1	HAT	690	5	0	n/a	n/a	n/a	n/a	n/a
3732499	RECOG_RESP	n/a	LTP137	ltpFR	15	5	1	HAT	690	n/a	0	n/a	n/a	n/a	n/a	n/a
3733262	RECOG_CONF	n/a	LTP137	ltpFR	15	5	1	HAT	690	5	0	n/a	n/a	n/a	n/a	n/a
3734701	RECOG_TARGET	n/a	LTP137	ltpFR	15	5	-1	BRIEFCASE	175	5	-1	n/a	n/a	n/a	n/a	n/a
3735277	RECOG_RESP	n/a	LTP137	ltpFR	15	5	-1	BRIEFCASE	175	n/a	-1	n/a	n/a	n/a	n/a	n/a
3735935	RECOG_CONF	n/a	LTP137	ltpFR	15	5	-1	BRIEFCASE	175	5	-1	n/a	n/a	n/a	n/a	n/a
3737257	RECOG_TARGET	n/a	LTP137	ltpFR	15	5	0	LOLLIPOP	842	5	0	n/a	n/a	n/a	n/a	n/a
3738260	RECOG_RESP	n/a	LTP137	ltpFR	15	5	0	LOLLIPOP	842	n/a	0	n/a	n/a	n/a	n/a	n/a
3739059	RECOG_CONF	n/a	LTP137	ltpFR	15	5	0	LOLLIPOP	842	5	0	n/a	n/a	n/a	n/a	n/a
3740420	RECOG_TARGET	n/a	LTP137	ltpFR	15	5	1	BEAD	103	5	0	n/a	n/a	n/a	n/a	n/a
3741198	RECOG_RESP	n/a	LTP137	ltpFR	15	5	1	BEAD	103	n/a	0	n/a	n/a	n/a	n/a	n/a
3742042	RECOG_CONF	n/a	LTP137	ltpFR	15	5	1	BEAD	103	5	0	n/a	n/a	n/a	n/a	n/a
3745705	RECOG_TARGET	n/a	LTP137	ltpFR	15	5	0	TAR	1435	5	0	n/a	n/a	n/a	n/a	n/a
3747714	RECOG_RESP	n/a	LTP137	ltpFR	15	5	0	TAR	1435	n/a	0	n/a	n/a	n/a	n/a	n/a
3748426	RECOG_CONF	n/a	LTP137	ltpFR	15	5	0	TAR	1435	5	0	n/a	n/a	n/a	n/a	n/a
3751274	RECOG_TARGET	n/a	LTP137	ltpFR	15	5	1	PARIS	1014	5	0	n/a	n/a	n/a	n/a	n/a
3752139	RECOG_RESP	n/a	LTP137	ltpFR	15	5	1	PARIS	1014	n/a	0	n/a	n/a	n/a	n/a	n/a
3752767	RECOG_CONF	n/a	LTP137	ltpFR	15	5	1	PARIS	1014	5	0	n/a	n/a	n/a	n/a	n/a
3754229	RECOG_TARGET	n/a	LTP137	ltpFR	15	5	1	LID	817	5	0	n/a	n/a	n/a	n/a	n/a
3755101	RECOG_RESP	n/a	LTP137	ltpFR	15	5	1	LID	817	n/a	0	n/a	n/a	n/a	n/a	n/a
3755803	RECOG_CONF	n/a	LTP137	ltpFR	15	5	1	LID	817	5	0	n/a	n/a	n/a	n/a	n/a
3757234	RECOG_LURE	n/a	LTP137	ltpFR	15	5	n/a	TICK	1463	2	n/a	n/a	n/a	n/a	n/a	n/a
3758468	RECOG_RESP	n/a	LTP137	ltpFR	15	5	n/a	TICK	1463	n/a	n/a	n/a	n/a	n/a	n/a	n/a
3759211	RECOG_CONF	n/a	LTP137	ltpFR	15	5	n/a	TICK	1463	2	n/a	n/a	n/a	n/a	n/a	n/a
3760655	RECOG_TARGET	n/a	LTP137	ltpFR	15	5	1	VEAL	1551	5	0	n/a	n/a	n/a	n/a	n/a
3761649	RECOG_RESP	n/a	LTP137	ltpFR	15	5	1	VEAL	1551	n/a	0	n/a	n/a	n/a	n/a	n/a
3762306	RECOG_CONF	n/a	LTP137	ltpFR	15	5	1	VEAL	1551	5	0	n/a	n/a	n/a	n/a	n/a
3778810	REC_START	n/a	LTP137	ltpFR	15	6	n/a	n/a	n/a	n/a	n/a	n/a	n/a	n/a	n/a	n/a
3778842	RECOG_TARGET	n/a	LTP137	ltpFR	15	6	-1	UNIVERSITY	1541	5	-1	n/a	n/a	n/a	n/a	n/a
3779541	RECOG_RESP	n/a	LTP137	ltpFR	15	6	-1	UNIVERSITY	1541	n/a	-1	n/a	n/a	n/a	n/a	n/a
3780349	RECOG_CONF	n/a	LTP137	ltpFR	15	6	-1	UNIVERSITY	1541	5	-1	n/a	n/a	n/a	n/a	n/a
3781847	RECOG_TARGET	n/a	LTP137	ltpFR	15	6	-1	WAGON	1578	5	-1	n/a	n/a	n/a	n/a	n/a
3782605	RECOG_RESP	n/a	LTP137	ltpFR	15	6	-1	WAGON	1578	n/a	-1	n/a	n/a	n/a	n/a	n/a
3783364	RECOG_CONF	n/a	LTP137	ltpFR	15	6	-1	WAGON	1578	5	-1	n/a	n/a	n/a	n/a	n/a
3784752	RECOG_LURE	n/a	LTP137	ltpFR	15	6	n/a	BARREL	91	3	n/a	n/a	n/a	n/a	n/a	n/a
3786195	RECOG_RESP	n/a	LTP137	ltpFR	15	6	n/a	BARREL	91	n/a	n/a	n/a	n/a	n/a	n/a	n/a
3786827	RECOG_CONF	n/a	LTP137	ltpFR	15	6	n/a	BARREL	91	3	n/a	n/a	n/a	n/a	n/a	n/a
3788289	RECOG_TARGET	n/a	LTP137	ltpFR	15	6	-1	COLT	349	5	-1	n/a	n/a	n/a	n/a	n/a
3789041	RECOG_RESP	n/a	LTP137	ltpFR	15	6	-1	COLT	349	n/a	-1	n/a	n/a	n/a	n/a	n/a
3789697	RECOG_CONF	n/a	LTP137	ltpFR	15	6	-1	COLT	349	5	-1	n/a	n/a	n/a	n/a	n/a
3791103	RECOG_TARGET	n/a	LTP137	ltpFR	15	6	0	ZEBRA	1635	5	1	n/a	n/a	n/a	n/a	n/a
3791765	RECOG_RESP	n/a	LTP137	ltpFR	15	6	0	ZEBRA	1635	n/a	1	n/a	n/a	n/a	n/a	n/a
3792449	RECOG_CONF	n/a	LTP137	ltpFR	15	6	0	ZEBRA	1635	5	1	n/a	n/a	n/a	n/a	n/a
3793825	RECOG_LURE	n/a	LTP137	ltpFR	15	6	n/a	BUREAU	199	3	n/a	n/a	n/a	n/a	n/a	n/a
3794783	RECOG_RESP	n/a	LTP137	ltpFR	15	6	n/a	BUREAU	199	n/a	n/a	n/a	n/a	n/a	n/a	n/a
3795437	RECOG_CONF	n/a	LTP137	ltpFR	15	6	n/a	BUREAU	199	3	n/a	n/a	n/a	n/a	n/a	n/a
3796904	RECOG_TARGET	n/a	LTP137	ltpFR	15	6	-1	TOAST	1471	5	-1	n/a	n/a	n/a	n/a	n/a
3797547	RECOG_RESP	n/a	LTP137	ltpFR	15	6	-1	TOAST	1471	n/a	-1	n/a	n/a	n/a	n/a	n/a
3798186	RECOG_CONF	n/a	LTP137	ltpFR	15	6	-1	TOAST	1471	5	-1	n/a	n/a	n/a	n/a	n/a
3799625	RECOG_TARGET	n/a	LTP137	ltpFR	15	6	1	GODDESS	646	5	1	n/a	n/a	n/a	n/a	n/a
3800283	RECOG_RESP	n/a	LTP137	ltpFR	15	6	1	GODDESS	646	n/a	1	n/a	n/a	n/a	n/a	n/a
3801044	RECOG_CONF	n/a	LTP137	ltpFR	15	6	1	GODDESS	646	5	1	n/a	n/a	n/a	n/a	n/a
3802398	RECOG_LURE	n/a	LTP137	ltpFR	15	6	n/a	WALRUS	1585	3	n/a	n/a	n/a	n/a	n/a	n/a
3803636	RECOG_RESP	n/a	LTP137	ltpFR	15	6	n/a	WALRUS	1585	n/a	n/a	n/a	n/a	n/a	n/a	n/a
3804402	RECOG_CONF	n/a	LTP137	ltpFR	15	6	n/a	WALRUS	1585	3	n/a	n/a	n/a	n/a	n/a	n/a
3805869	RECOG_TARGET	n/a	LTP137	ltpFR	15	6	-1	OREGANO	983	5	-1	n/a	n/a	n/a	n/a	n/a
3806486	RECOG_RESP	n/a	LTP137	ltpFR	15	6	-1	OREGANO	983	n/a	-1	n/a	n/a	n/a	n/a	n/a
