mstime	trial_type	stim_file	subject	experiment	session	trial	task	item_name	item_num	recog_conf	resp	answer	test_x	test_y	test_z	color_b	color_g	color_r	case	font
0	SESS_START	n/a	LTP275	ltpFR	10	n/a	n/a	n/a	n/a	1	n/a	n/a	0	0	0	n/a	n/a	n/a	n/a	n/a
30735	START	n/a	LTP275	ltpFR	10	n/a	n/a	n/a	n/a	n/a	n/a	n/a	n/a	n/a	n/a	n/a	n/a	n/a	n/a	n/a
30768	PROB	n/a	LTP275	ltpFR	10	n/a	n/a	n/a	n/a	n/a	n/a	19	6	7	6	n/a	n/a	n/a	n/a	n/a
33398	PROB	n/a	LTP275	ltpFR	10	n/a	n/a	n/a	n/a	n/a	n/a	7	3	2	2	n/a	n/a	n/a	n/a	n/a
35145	PROB	n/a	LTP275	ltpFR	10	n/a	n/a	n/a	n/a	n/a	n/a	12	4	1	7	n/a	n/a	n/a	n/a	n/a
36992	PROB	n/a	LTP275	ltpFR	10	n/a	n/a	n/a	n/a	n/a	n/a	7	2	2	3	n/a	n/a	n/a	n/a	n/a
38823	PROB	n/a	LTP275	ltpFR	10	n/a	n/a	n/a	n/a	n/a	n/a	20	4	9	7	n/a	n/a	n/a	n/a	n/a
40321	PROB	n/a	LTP275	ltpFR	10	n/a	n/a	n/a	n/a	n/a	n/a	17	2	9	6	n/a	n/a	n/a	n/a	n/a
41818	PROB	n/a	LTP275	ltpFR	10	n/a	n/a	n/a	n/a	n/a	n/a	12	2	1	9	n/a	n/a	n/a	n/a	n/a
43166	PROB	n/a	LTP275	ltpFR	10	n/a	n/a	n/a	n/a	n/a	n/a	6	4	1	1	n/a	n/a	n/a	n/a	n/a
44581	PROB	n/a	LTP275	ltpFR	10	n/a	n/a	n/a	n/a	n/a	n/a	16	7	5	4	n/a	n/a	n/a	n/a	n/a
46095	PROB	n/a	LTP275	ltpFR	10	n/a	n/a	n/a	n/a	n/a	n/a	13	5	3	5	n/a	n/a	n/a	n/a	n/a
47709	PROB	n/a	LTP275	ltpFR	10	n/a	n/a	n/a	n/a	n/a	n/a	14	3	7	4	n/a	n/a	n/a	n/a	n/a
49007	PROB	n/a	LTP275	ltpFR	10	n/a	n/a	n/a	n/a	n/a	n/a	11	1	1	9	n/a	n/a	n/a	n/a	n/a
50202	STOP	n/a	LTP275	ltpFR	10	n/a	n/a	n/a	n/a	n/a	n/a	n/a	n/a	n/a	n/a	n/a	n/a	n/a	n/a	n/a
76699	WORD	wordpools/wasnorm_wordpool_less_exclusions.txt	LTP275	ltpFR	10	1	0	FIST	572	n/a	0	n/a	0	0	0	1	0.412841796875	0.57763671875	upper	../fonts/amplitud.ttf
80910	WORD	wordpools/wasnorm_wordpool_less_exclusions.txt	LTP275	ltpFR	10	1	0	MONGOOSE	909	n/a	1	n/a	0	0	0	1	0.412841796875	0.57763671875	upper	../fonts/amplitud.ttf
84920	WORD	wordpools/wasnorm_wordpool_less_exclusions.txt	LTP275	ltpFR	10	1	0	LEAF	808	n/a	0	n/a	0	0	0	1	0.412841796875	0.57763671875	upper	../fonts/amplitud.ttf
89064	WORD	wordpools/wasnorm_wordpool_less_exclusions.txt	LTP275	ltpFR	10	1	0	JURY	766	n/a	1	n/a	0	0	0	1	0.412841796875	0.57763671875	upper	../fonts/amplitud.ttf
92942	WORD	wordpools/wasnorm_wordpool_less_exclusions.txt	LTP275	ltpFR	10	1	1	SPARROW	1347	n/a	1	n/a	0	0	0	0	0.5869140625	0.422607421875	lower	../fonts/zerothre.ttf
96886	WORD	wordpools/wasnorm_wordpool_less_exclusions.txt	LTP275	ltpFR	10	1	1	CROCODILE	411	n/a	1	n/a	0	0	0	0	0.5869140625	0.422607421875	lower	../fonts/zerothre.ttf
101030	WORD	wordpools/wasnorm_wordpool_less_exclusions.txt	LTP275	ltpFR	10	1	1	CABIN	211	n/a	0	n/a	0	0	0	0	0.5869140625	0.422607421875	lower	../fonts/zerothre.ttf
105157	WORD	wordpools/wasnorm_wordpool_less_exclusions.txt	LTP275	ltpFR	10	1	1	MICROWAVE	892	n/a	0	n/a	0	0	0	0	0.5869140625	0.422607421875	lower	../fonts/zerothre.ttf
108984	WORD	wordpools/wasnorm_wordpool_less_exclusions.txt	LTP275	ltpFR	10	1	1	KITCHEN	778	n/a	0	n/a	0	0	0	0	0.5869140625	0.422607421875	lower	../fonts/zerothre.ttf
112962	WORD	wordpools/wasnorm_wordpool_less_exclusions.txt	LTP275	ltpFR	10	1	1	QUAIL	1147	n/a	1	n/a	0	0	0	0	0.5869140625	0.422607421875	lower	../fonts/zerothre.ttf
117039	WORD	wordpools/wasnorm_wordpool_less_exclusions.txt	LTP275	ltpFR	10	1	0	SCENERY	1247	n/a	1	n/a	0	0	0	1	0.412841796875	0.57763671875	upper	../fonts/amplitud.ttf
121100	WORD	wordpools/wasnorm_wordpool_less_exclusions.txt	LTP275	ltpFR	10	1	0	POT	1114	n/a	1	n/a	0	0	0	1	0.412841796875	0.57763671875	upper	../fonts/amplitud.ttf
125077	WORD	wordpools/wasnorm_wordpool_less_exclusions.txt	LTP275	ltpFR	10	1	1	POCKET	1093	n/a	0	n/a	0	0	0	0	0.5869140625	0.422607421875	lower	../fonts/zerothre.ttf
128921	WORD	wordpools/wasnorm_wordpool_less_exclusions.txt	LTP275	ltpFR	10	1	1	MONEY	908	n/a	0	n/a	0	0	0	0	0.5869140625	0.422607421875	lower	../fonts/zerothre.ttf
133132	WORD	wordpools/wasnorm_wordpool_less_exclusions.txt	LTP275	ltpFR	10	1	0	BATH	98	n/a	1	n/a	0	0	0	1	0.412841796875	0.57763671875	upper	../fonts/amplitud.ttf
136993	WORD	wordpools/wasnorm_wordpool_less_exclusions.txt	LTP275	ltpFR	10	1	0	NAPKIN	937	n/a	0	n/a	0	0	0	1	0.412841796875	0.57763671875	upper	../fonts/amplitud.ttf
140005	START	n/a	LTP275	ltpFR	10	n/a	n/a	n/a	n/a	n/a	n/a	n/a	n/a	n/a	n/a	n/a	n/a	n/a	n/a	n/a
140920	PROB	n/a	LTP275	ltpFR	10	n/a	n/a	n/a	n/a	n/a	n/a	12	4	3	5	n/a	n/a	n/a	n/a	n/a
142552	PROB	n/a	LTP275	ltpFR	10	n/a	n/a	n/a	n/a	n/a	n/a	21	8	8	5	n/a	n/a	n/a	n/a	n/a
143999	PROB	n/a	LTP275	ltpFR	10	n/a	n/a	n/a	n/a	n/a	n/a	15	6	8	1	n/a	n/a	n/a	n/a	n/a
145131	PROB	n/a	LTP275	ltpFR	10	n/a	n/a	n/a	n/a	n/a	n/a	13	3	3	7	n/a	n/a	n/a	n/a	n/a
146413	PROB	n/a	LTP275	ltpFR	10	n/a	n/a	n/a	n/a	n/a	n/a	23	6	8	9	n/a	n/a	n/a	n/a	n/a
147730	STOP	n/a	LTP275	ltpFR	10	n/a	n/a	n/a	n/a	n/a	n/a	n/a	n/a	n/a	n/a	n/a	n/a	n/a	n/a	n/a
149824	REC_START	n/a	LTP275	ltpFR	10	1	n/a	n/a	n/a	n/a	n/a	n/a	0	0	0	n/a	n/a	n/a	n/a	n/a
151912	REC_WORD	wordpools/wasnorm_wordpool_less_exclusions.txt	LTP275	ltpFR	10	1	0	FIST	572	n/a	0	n/a	0	0	0	n/a	n/a	n/a	n/a	n/a
152897	REC_WORD	wordpools/wasnorm_wordpool_less_exclusions.txt	LTP275	ltpFR	10	1	0	MONGOOSE	909	n/a	1	n/a	0	0	0	n/a	n/a	n/a	n/a	n/a
154238	REC_WORD	wordpools/wasnorm_wordpool_less_exclusions.txt	LTP275	ltpFR	10	1	0	LEAF	808	n/a	0	n/a	0	0	0	n/a	n/a	n/a	n/a	n/a
155473	REC_WORD	wordpools/wasnorm_wordpool_less_exclusions.txt	LTP275	ltpFR	10	1	0	JURY	766	n/a	1	n/a	0	0	0	n/a	n/a	n/a	n/a	n/a
156491	REC_WORD	wordpools/wasnorm_wordpool_less_exclusions.txt	LTP275	ltpFR	10	1	1	SPARROW	1347	n/a	1	n/a	0	0	0	n/a	n/a	n/a	n/a	n/a
157786	REC_WORD	wordpools/wasnorm_wordpool_less_exclusions.txt	LTP275	ltpFR	10	1	1	QUAIL	1147	n/a	1	n/a	0	0	0	n/a	n/a	n/a	n/a	n/a
159044	REC_WORD	wordpools/wasnorm_wordpool_less_exclusions.txt	LTP275	ltpFR	10	1	1	CROCODILE	411	n/a	1	n/a	0	0	0	n/a	n/a	n/a	n/a	n/a
160617	REC_WORD	wordpools/wasnorm_wordpool_less_exclusions.txt	LTP275	ltpFR	10	1	1	CABIN	211	n/a	0	n/a	0	0	0	n/a	n/a	n/a	n/a	n/a
161853	REC_WORD	wordpools/wasnorm_wordpool_less_exclusions.txt	LTP275	ltpFR	10	1	1	KITCHEN	778	n/a	0	n/a	0	0	0	n/a	n/a	n/a	n/a	n/a
163046	REC_WORD	wordpools/wasnorm_wordpool_less_exclusions.txt	LTP275	ltpFR	10	1	1	MICROWAVE	892	n/a	0	n/a	0	0	0	n/a	n/a	n/a	n/a	n/a
165106	REC_WORD	wordpools/wasnorm_wordpool_less_exclusions.txt	LTP275	ltpFR	10	1	0	POT	1114	n/a	1	n/a	0	0	0	n/a	n/a	n/a	n/a	n/a
166680	REC_WORD	wordpools/wasnorm_wordpool_less_exclusions.txt	LTP275	ltpFR	10	1	0	NAPKIN	937	n/a	0	n/a	0	0	0	n/a	n/a	n/a	n/a	n/a
171572	REC_WORD	wordpools/wasnorm_wordpool_less_exclusions.txt	LTP275	ltpFR	10	1	n/a	BATHTUB	100	n/a	n/a	n/a	0	0	0	n/a	n/a	n/a	n/a	n/a
180847	REC_WORD	wordpools/wasnorm_wordpool_less_exclusions.txt	LTP275	ltpFR	10	1	1	POCKET	1093	n/a	0	n/a	0	0	0	n/a	n/a	n/a	n/a	n/a
181754	REC_WORD	wordpools/wasnorm_wordpool_less_exclusions.txt	LTP275	ltpFR	10	1	1	MONEY	908	n/a	0	n/a	0	0	0	n/a	n/a	n/a	n/a	n/a
233234	START	n/a	LTP275	ltpFR	10	n/a	n/a	n/a	n/a	n/a	n/a	n/a	n/a	n/a	n/a	n/a	n/a	n/a	n/a	n/a
234747	PROB	n/a	LTP275	ltpFR	10	n/a	n/a	n/a	n/a	n/a	n/a	25	9	8	8	n/a	n/a	n/a	n/a	n/a
238874	PROB	n/a	LTP275	ltpFR	10	n/a	n/a	n/a	n/a	n/a	n/a	15	7	1	7	n/a	n/a	n/a	n/a	n/a
240106	STOP	n/a	LTP275	ltpFR	10	n/a	n/a	n/a	n/a	n/a	n/a	n/a	n/a	n/a	n/a	n/a	n/a	n/a	n/a	n/a
242287	WORD	wordpools/wasnorm_wordpool_less_exclusions.txt	LTP275	ltpFR	10	2	1	GUARDIAN	668	n/a	1	n/a	0	0	0	0	0.5869140625	0.422607421875	lower	../fonts/zerothre.ttf
245299	START	n/a	LTP275	ltpFR	10	n/a	n/a	n/a	n/a	n/a	n/a	n/a	n/a	n/a	n/a	n/a	n/a	n/a	n/a	n/a
246231	PROB	n/a	LTP275	ltpFR	10	n/a	n/a	n/a	n/a	n/a	n/a	15	9	2	4	n/a	n/a	n/a	n/a	n/a
247479	PROB	n/a	LTP275	ltpFR	10	n/a	n/a	n/a	n/a	n/a	n/a	20	7	7	6	n/a	n/a	n/a	n/a	n/a
248759	PROB	n/a	LTP275	ltpFR	10	n/a	n/a	n/a	n/a	n/a	n/a	17	8	3	6	n/a	n/a	n/a	n/a	n/a
250140	PROB	n/a	LTP275	ltpFR	10	n/a	n/a	n/a	n/a	n/a	n/a	19	5	7	7	n/a	n/a	n/a	n/a	n/a
251572	PROB	n/a	LTP275	ltpFR	10	n/a	n/a	n/a	n/a	n/a	n/a	20	9	9	2	n/a	n/a	n/a	n/a	n/a
252778	STOP	n/a	LTP275	ltpFR	10	n/a	n/a	n/a	n/a	n/a	n/a	n/a	n/a	n/a	n/a	n/a	n/a	n/a	n/a	n/a
254318	WORD	wordpools/wasnorm_wordpool_less_exclusions.txt	LTP275	ltpFR	10	2	1	DAUGHTER	442	n/a	1	n/a	0	0	0	0	0.5869140625	0.422607421875	lower	../fonts/zerothre.ttf
257331	START	n/a	LTP275	ltpFR	10	n/a	n/a	n/a	n/a	n/a	n/a	n/a	n/a	n/a	n/a	n/a	n/a	n/a	n/a	n/a
258246	PROB	n/a	LTP275	ltpFR	10	n/a	n/a	n/a	n/a	n/a	n/a	7	3	1	3	n/a	n/a	n/a	n/a	n/a
259477	PROB	n/a	LTP275	ltpFR	10	n/a	n/a	n/a	n/a	n/a	n/a	15	6	8	1	n/a	n/a	n/a	n/a	n/a
260575	PROB	n/a	LTP275	ltpFR	10	n/a	n/a	n/a	n/a	n/a	n/a	13	3	6	4	n/a	n/a	n/a	n/a	n/a
261890	PROB	n/a	LTP275	ltpFR	10	n/a	n/a	n/a	n/a	n/a	n/a	11	5	1	5	n/a	n/a	n/a	n/a	n/a
262955	PROB	n/a	LTP275	ltpFR	10	n/a	n/a	n/a	n/a	n/a	n/a	9	5	3	1	n/a	n/a	n/a	n/a	n/a
264018	STOP	n/a	LTP275	ltpFR	10	n/a	n/a	n/a	n/a	n/a	n/a	n/a	n/a	n/a	n/a	n/a	n/a	n/a	n/a	n/a
266450	WORD	wordpools/wasnorm_wordpool_less_exclusions.txt	LTP275	ltpFR	10	2	1	BUGLE	189	n/a	0	n/a	0	0	0	0	0.5869140625	0.422607421875	lower	../fonts/zerothre.ttf
269463	START	n/a	LTP275	ltpFR	10	n/a	n/a	n/a	n/a	n/a	n/a	n/a	n/a	n/a	n/a	n/a	n/a	n/a	n/a	n/a
270610	PROB	n/a	LTP275	ltpFR	10	n/a	n/a	n/a	n/a	n/a	n/a	16	3	6	7	n/a	n/a	n/a	n/a	n/a
272757	PROB	n/a	LTP275	ltpFR	10	n/a	n/a	n/a	n/a	n/a	n/a	21	4	8	9	n/a	n/a	n/a	n/a	n/a
274138	PROB	n/a	LTP275	ltpFR	10	n/a	n/a	n/a	n/a	n/a	n/a	18	6	6	6	n/a	n/a	n/a	n/a	n/a
275454	PROB	n/a	LTP275	ltpFR	10	n/a	n/a	n/a	n/a	n/a	n/a	23	6	8	9	n/a	n/a	n/a	n/a	n/a
276954	STOP	n/a	LTP275	ltpFR	10	n/a	n/a	n/a	n/a	n/a	n/a	n/a	n/a	n/a	n/a	n/a	n/a	n/a	n/a	n/a
278648	WORD	wordpools/wasnorm_wordpool_less_exclusions.txt	LTP275	ltpFR	10	2	1	MANSION	864	n/a	0	n/a	0	0	0	0	0.5869140625	0.422607421875	lower	../fonts/zerothre.ttf
281660	START	n/a	LTP275	ltpFR	10	n/a	n/a	n/a	n/a	n/a	n/a	n/a	n/a	n/a	n/a	n/a	n/a	n/a	n/a	n/a
282526	PROB	n/a	LTP275	ltpFR	10	n/a	n/a	n/a	n/a	n/a	n/a	15	9	1	5	n/a	n/a	n/a	n/a	n/a
283724	PROB	n/a	LTP275	ltpFR	10	n/a	n/a	n/a	n/a	n/a	n/a	14	9	2	3	n/a	n/a	n/a	n/a	n/a
285155	PROB	n/a	LTP275	ltpFR	10	n/a	n/a	n/a	n/a	n/a	n/a	15	4	5	6	n/a	n/a	n/a	n/a	n/a
286470	PROB	n/a	LTP275	ltpFR	10	n/a	n/a	n/a	n/a	n/a	n/a	20	9	5	8	n/a	n/a	n/a	n/a	n/a
289660	STOP	n/a	LTP275	ltpFR	10	n/a	n/a	n/a	n/a	n/a	n/a	n/a	n/a	n/a	n/a	n/a	n/a	n/a	n/a	n/a
290796	WORD	wordpools/wasnorm_wordpool_less_exclusions.txt	LTP275	ltpFR	10	2	1	SHELF	1280	n/a	0	n/a	0	0	0	0	0.5869140625	0.422607421875	lower	../fonts/zerothre.ttf
293809	START	n/a	LTP275	ltpFR	10	n/a	n/a	n/a	n/a	n/a	n/a	n/a	n/a	n/a	n/a	n/a	n/a	n/a	n/a	n/a
294774	PROB	n/a	LTP275	ltpFR	10	n/a	n/a	n/a	n/a	n/a	n/a	23	5	9	9	n/a	n/a	n/a	n/a	n/a
296406	PROB	n/a	LTP275	ltpFR	10	n/a	n/a	n/a	n/a	n/a	n/a	12	2	4	6	n/a	n/a	n/a	n/a	n/a
297586	PROB	n/a	LTP275	ltpFR	10	n/a	n/a	n/a	n/a	n/a	n/a	23	7	8	9	n/a	n/a	n/a	n/a	n/a
298951	PROB	n/a	LTP275	ltpFR	10	n/a	n/a	n/a	n/a	n/a	n/a	8	2	5	1	n/a	n/a	n/a	n/a	n/a
300251	STOP	n/a	LTP275	ltpFR	10	n/a	n/a	n/a	n/a	n/a	n/a	n/a	n/a	n/a	n/a	n/a	n/a	n/a	n/a	n/a
303011	WORD	wordpools/wasnorm_wordpool_less_exclusions.txt	LTP275	ltpFR	10	2	1	POET	1095	n/a	1	n/a	0	0	0	0	0.5869140625	0.422607421875	lower	../fonts/zerothre.ttf
306024	START	n/a	LTP275	ltpFR	10	n/a	n/a	n/a	n/a	n/a	n/a	n/a	n/a	n/a	n/a	n/a	n/a	n/a	n/a	n/a
307039	PROB	n/a	LTP275	ltpFR	10	n/a	n/a	n/a	n/a	n/a	n/a	16	3	5	8	n/a	n/a	n/a	n/a	n/a
308454	PROB	n/a	LTP275	ltpFR	10	n/a	n/a	n/a	n/a	n/a	n/a	13	6	1	6	n/a	n/a	n/a	n/a	n/a
309901	PROB	n/a	LTP275	ltpFR	10	n/a	n/a	n/a	n/a	n/a	n/a	22	8	7	7	n/a	n/a	n/a	n/a	n/a
311217	PROB	n/a	LTP275	ltpFR	10	n/a	n/a	n/a	n/a	n/a	n/a	13	8	3	2	n/a	n/a	n/a	n/a	n/a
312786	STOP	n/a	LTP275	ltpFR	10	n/a	n/a	n/a	n/a	n/a	n/a	n/a	n/a	n/a	n/a	n/a	n/a	n/a	n/a	n/a
315193	WORD	wordpools/wasnorm_wordpool_less_exclusions.txt	LTP275	ltpFR	10	2	1	HERB	704	n/a	1	n/a	0	0	0	0	0.5869140625	0.422607421875	lower	../fonts/zerothre.ttf
318207	START	n/a	LTP275	ltpFR	10	n/a	n/a	n/a	n/a	n/a	n/a	n/a	n/a	n/a	n/a	n/a	n/a	n/a	n/a	n/a
319104	PROB	n/a	LTP275	ltpFR	10	n/a	n/a	n/a	n/a	n/a	n/a	14	2	3	9	n/a	n/a	n/a	n/a	n/a
320536	PROB	n/a	LTP275	ltpFR	10	n/a	n/a	n/a	n/a	n/a	n/a	18	8	8	2	n/a	n/a	n/a	n/a	n/a
322699	PROB	n/a	LTP275	ltpFR	10	n/a	n/a	n/a	n/a	n/a	n/a	15	1	5	9	n/a	n/a	n/a	n/a	n/a
324514	PROB	n/a	LTP275	ltpFR	10	n/a	n/a	n/a	n/a	n/a	n/a	12	5	4	3	n/a	n/a	n/a	n/a	n/a
325634	STOP	n/a	LTP275	ltpFR	10	n/a	n/a	n/a	n/a	n/a	n/a	n/a	n/a	n/a	n/a	n/a	n/a	n/a	n/a	n/a
327210	WORD	wordpools/wasnorm_wordpool_less_exclusions.txt	LTP275	ltpFR	10	2	1	SALT	1229	n/a	0	n/a	0	0	0	0	0.5869140625	0.422607421875	lower	../fonts/zerothre.ttf
330222	START	n/a	LTP275	ltpFR	10	n/a	n/a	n/a	n/a	n/a	n/a	n/a	n/a	n/a	n/a	n/a	n/a	n/a	n/a	n/a
331420	PROB	n/a	LTP275	ltpFR	10	n/a	n/a	n/a	n/a	n/a	n/a	19	6	9	4	n/a	n/a	n/a	n/a	n/a
333050	PROB	n/a	LTP275	ltpFR	10	n/a	n/a	n/a	n/a	n/a	n/a	8	1	4	3	n/a	n/a	n/a	n/a	n/a
334299	PROB	n/a	LTP275	ltpFR	10	n/a	n/a	n/a	n/a	n/a	n/a	11	6	4	1	n/a	n/a	n/a	n/a	n/a
335431	PROB	n/a	LTP275	ltpFR	10	n/a	n/a	n/a	n/a	n/a	n/a	10	1	2	7	n/a	n/a	n/a	n/a	n/a
336694	PROB	n/a	LTP275	ltpFR	10	n/a	n/a	n/a	n/a	n/a	n/a	11	5	1	5	n/a	n/a	n/a	n/a	n/a
337690	STOP	n/a	LTP275	ltpFR	10	n/a	n/a	n/a	n/a	n/a	n/a	n/a	n/a	n/a	n/a	n/a	n/a	n/a	n/a	n/a
339308	WORD	wordpools/wasnorm_wordpool_less_exclusions.txt	LTP275	ltpFR	10	2	1	RADIATOR	1156	n/a	0	n/a	0	0	0	0	0.5869140625	0.422607421875	lower	../fonts/zerothre.ttf
342321	START	n/a	LTP275	ltpFR	10	n/a	n/a	n/a	n/a	n/a	n/a	n/a	n/a	n/a	n/a	n/a	n/a	n/a	n/a	n/a
343168	PROB	n/a	LTP275	ltpFR	10	n/a	n/a	n/a	n/a	n/a	n/a	14	2	4	8	n/a	n/a	n/a	n/a	n/a
344766	PROB	n/a	LTP275	ltpFR	10	n/a	n/a	n/a	n/a	n/a	n/a	12	5	6	1	n/a	n/a	n/a	n/a	n/a
345931	PROB	n/a	LTP275	ltpFR	10	n/a	n/a	n/a	n/a	n/a	n/a	16	7	1	8	n/a	n/a	n/a	n/a	n/a
347728	PROB	n/a	LTP275	ltpFR	10	n/a	n/a	n/a	n/a	n/a	n/a	14	7	1	6	n/a	n/a	n/a	n/a	n/a
349243	STOP	n/a	LTP275	ltpFR	10	n/a	n/a	n/a	n/a	n/a	n/a	n/a	n/a	n/a	n/a	n/a	n/a	n/a	n/a	n/a
351240	WORD	wordpools/wasnorm_wordpool_less_exclusions.txt	LTP275	ltpFR	10	2	1	TRIBE	1505	n/a	0	n/a	0	0	0	0	0.5869140625	0.422607421875	lower	../fonts/zerothre.ttf
354253	START	n/a	LTP275	ltpFR	10	n/a	n/a	n/a	n/a	n/a	n/a	n/a	n/a	n/a	n/a	n/a	n/a	n/a	n/a	n/a
355251	PROB	n/a	LTP275	ltpFR	10	n/a	n/a	n/a	n/a	n/a	n/a	14	7	4	3	n/a	n/a	n/a	n/a	n/a
356483	PROB	n/a	LTP275	ltpFR	10	n/a	n/a	n/a	n/a	n/a	n/a	10	3	1	6	n/a	n/a	n/a	n/a	n/a
357913	PROB	n/a	LTP275	ltpFR	10	n/a	n/a	n/a	n/a	n/a	n/a	13	9	2	2	n/a	n/a	n/a	n/a	n/a
359245	PROB	n/a	LTP275	ltpFR	10	n/a	n/a	n/a	n/a	n/a	n/a	16	8	5	3	n/a	n/a	n/a	n/a	n/a
360609	PROB	n/a	LTP275	ltpFR	10	n/a	n/a	n/a	n/a	n/a	n/a	15	2	6	5	n/a	n/a	n/a	n/a	n/a
361770	STOP	n/a	LTP275	ltpFR	10	n/a	n/a	n/a	n/a	n/a	n/a	n/a	n/a	n/a	n/a	n/a	n/a	n/a	n/a	n/a
363372	WORD	wordpools/wasnorm_wordpool_less_exclusions.txt	LTP275	ltpFR	10	2	1	SPY	1360	n/a	1	n/a	0	0	0	0	0.5869140625	0.422607421875	lower	../fonts/zerothre.ttf
366385	START	n/a	LTP275	ltpFR	10	n/a	n/a	n/a	n/a	n/a	n/a	n/a	n/a	n/a	n/a	n/a	n/a	n/a	n/a	n/a
367199	PROB	n/a	LTP275	ltpFR	10	n/a	n/a	n/a	n/a	n/a	n/a	11	1	4	6	n/a	n/a	n/a	n/a	n/a
368797	PROB	n/a	LTP275	ltpFR	10	n/a	n/a	n/a	n/a	n/a	n/a	19	9	9	1	n/a	n/a	n/a	n/a	n/a
370145	PROB	n/a	LTP275	ltpFR	10	n/a	n/a	n/a	n/a	n/a	n/a	11	7	3	1	n/a	n/a	n/a	n/a	n/a
371261	PROB	n/a	LTP275	ltpFR	10	n/a	n/a	n/a	n/a	n/a	n/a	10	1	7	2	n/a	n/a	n/a	n/a	n/a
372874	PROB	n/a	LTP275	ltpFR	10	n/a	n/a	n/a	n/a	n/a	n/a	16	3	8	5	n/a	n/a	n/a	n/a	n/a
374058	STOP	n/a	LTP275	ltpFR	10	n/a	n/a	n/a	n/a	n/a	n/a	n/a	n/a	n/a	n/a	n/a	n/a	n/a	n/a	n/a
375205	WORD	wordpools/wasnorm_wordpool_less_exclusions.txt	LTP275	ltpFR	10	2	1	PERSONNEL	1053	n/a	1	n/a	0	0	0	0	0.5869140625	0.422607421875	lower	../fonts/zerothre.ttf
378217	START	n/a	LTP275	ltpFR	10	n/a	n/a	n/a	n/a	n/a	n/a	n/a	n/a	n/a	n/a	n/a	n/a	n/a	n/a	n/a
379215	PROB	n/a	LTP275	ltpFR	10	n/a	n/a	n/a	n/a	n/a	n/a	16	8	3	5	n/a	n/a	n/a	n/a	n/a
380547	PROB	n/a	LTP275	ltpFR	10	n/a	n/a	n/a	n/a	n/a	n/a	16	2	7	7	n/a	n/a	n/a	n/a	n/a
382659	PROB	n/a	LTP275	ltpFR	10	n/a	n/a	n/a	n/a	n/a	n/a	20	7	6	7	n/a	n/a	n/a	n/a	n/a
385082	STOP	n/a	LTP275	ltpFR	10	n/a	n/a	n/a	n/a	n/a	n/a	n/a	n/a	n/a	n/a	n/a	n/a	n/a	n/a	n/a
387220	WORD	wordpools/wasnorm_wordpool_less_exclusions.txt	LTP275	ltpFR	10	2	1	BLUEPRINT	142	n/a	0	n/a	0	0	0	0	0.5869140625	0.422607421875	lower	../fonts/zerothre.ttf
390233	START	n/a	LTP275	ltpFR	10	n/a	n/a	n/a	n/a	n/a	n/a	n/a	n/a	n/a	n/a	n/a	n/a	n/a	n/a	n/a
391447	PROB	n/a	LTP275	ltpFR	10	n/a	n/a	n/a	n/a	n/a	n/a	23	6	9	8	n/a	n/a	n/a	n/a	n/a
393094	PROB	n/a	LTP275	ltpFR	10	n/a	n/a	n/a	n/a	n/a	n/a	11	2	8	1	n/a	n/a	n/a	n/a	n/a
394159	PROB	n/a	LTP275	ltpFR	10	n/a	n/a	n/a	n/a	n/a	n/a	14	2	9	2	n/a	n/a	n/a	n/a	n/a
395508	PROB	n/a	LTP275	ltpFR	10	n/a	n/a	n/a	n/a	n/a	n/a	22	9	9	4	n/a	n/a	n/a	n/a	n/a
396810	STOP	n/a	LTP275	ltpFR	10	n/a	n/a	n/a	n/a	n/a	n/a	n/a	n/a	n/a	n/a	n/a	n/a	n/a	n/a	n/a
399219	WORD	wordpools/wasnorm_wordpool_less_exclusions.txt	LTP275	ltpFR	10	2	1	CLAY	320	n/a	0	n/a	0	0	0	0	0.5869140625	0.422607421875	lower	../fonts/zerothre.ttf
402231	START	n/a	LTP275	ltpFR	10	n/a	n/a	n/a	n/a	n/a	n/a	n/a	n/a	n/a	n/a	n/a	n/a	n/a	n/a	n/a
403263	PROB	n/a	LTP275	ltpFR	10	n/a	n/a	n/a	n/a	n/a	n/a	9	2	5	2	n/a	n/a	n/a	n/a	n/a
404776	PROB	n/a	LTP275	ltpFR	10	n/a	n/a	n/a	n/a	n/a	n/a	15	1	6	8	n/a	n/a	n/a	n/a	n/a
406458	PROB	n/a	LTP275	ltpFR	10	n/a	n/a	n/a	n/a	n/a	n/a	16	7	6	3	n/a	n/a	n/a	n/a	n/a
407805	PROB	n/a	LTP275	ltpFR	10	n/a	n/a	n/a	n/a	n/a	n/a	19	8	3	7	n/a	n/a	n/a	n/a	n/a
409194	STOP	n/a	LTP275	ltpFR	10	n/a	n/a	n/a	n/a	n/a	n/a	n/a	n/a	n/a	n/a	n/a	n/a	n/a	n/a	n/a
411284	WORD	wordpools/wasnorm_wordpool_less_exclusions.txt	LTP275	ltpFR	10	2	1	SCOUT	1252	n/a	1	n/a	0	0	0	0	0.5869140625	0.422607421875	lower	../fonts/zerothre.ttf
414297	START	n/a	LTP275	ltpFR	10	n/a	n/a	n/a	n/a	n/a	n/a	n/a	n/a	n/a	n/a	n/a	n/a	n/a	n/a	n/a
415295	PROB	n/a	LTP275	ltpFR	10	n/a	n/a	n/a	n/a	n/a	n/a	16	4	4	8	n/a	n/a	n/a	n/a	n/a
417242	PROB	n/a	LTP275	ltpFR	10	n/a	n/a	n/a	n/a	n/a	n/a	14	2	9	3	n/a	n/a	n/a	n/a	n/a
418572	PROB	n/a	LTP275	ltpFR	10	n/a	n/a	n/a	n/a	n/a	n/a	16	2	6	8	n/a	n/a	n/a	n/a	n/a
419904	PROB	n/a	LTP275	ltpFR	10	n/a	n/a	n/a	n/a	n/a	n/a	9	5	3	1	n/a	n/a	n/a	n/a	n/a
421307	STOP	n/a	LTP275	ltpFR	10	n/a	n/a	n/a	n/a	n/a	n/a	n/a	n/a	n/a	n/a	n/a	n/a	n/a	n/a	n/a
423349	WORD	wordpools/wasnorm_wordpool_less_exclusions.txt	LTP275	ltpFR	10	2	1	CABINET	212	n/a	0	n/a	0	0	0	0	0.5869140625	0.422607421875	lower	../fonts/zerothre.ttf
426362	START	n/a	LTP275	ltpFR	10	n/a	n/a	n/a	n/a	n/a	n/a	n/a	n/a	n/a	n/a	n/a	n/a	n/a	n/a	n/a
427310	PROB	n/a	LTP275	ltpFR	10	n/a	n/a	n/a	n/a	n/a	n/a	19	7	5	7	n/a	n/a	n/a	n/a	n/a
428774	PROB	n/a	LTP275	ltpFR	10	n/a	n/a	n/a	n/a	n/a	n/a	21	8	5	8	n/a	n/a	n/a	n/a	n/a
430206	PROB	n/a	LTP275	ltpFR	10	n/a	n/a	n/a	n/a	n/a	n/a	15	7	1	7	n/a	n/a	n/a	n/a	n/a
431454	PROB	n/a	LTP275	ltpFR	10	n/a	n/a	n/a	n/a	n/a	n/a	13	9	2	2	n/a	n/a	n/a	n/a	n/a
433235	STOP	n/a	LTP275	ltpFR	10	n/a	n/a	n/a	n/a	n/a	n/a	n/a	n/a	n/a	n/a	n/a	n/a	n/a	n/a	n/a
436297	REC_START	n/a	LTP275	ltpFR	10	2	n/a	n/a	n/a	n/a	n/a	n/a	0	0	0	n/a	n/a	n/a	n/a	n/a
438899	REC_WORD	wordpools/wasnorm_wordpool_less_exclusions.txt	LTP275	ltpFR	10	2	1	MANSION	864	n/a	0	n/a	0	0	0	n/a	n/a	n/a	n/a	n/a
440331	REC_WORD	wordpools/wasnorm_wordpool_less_exclusions.txt	LTP275	ltpFR	10	2	1	CABINET	212	n/a	0	n/a	0	0	0	n/a	n/a	n/a	n/a	n/a
441339	REC_WORD	wordpools/wasnorm_wordpool_less_exclusions.txt	LTP275	ltpFR	10	2	1	SHELF	1280	n/a	0	n/a	0	0	0	n/a	n/a	n/a	n/a	n/a
442690	REC_WORD	wordpools/wasnorm_wordpool_less_exclusions.txt	LTP275	ltpFR	10	2	1	BUGLE	189	n/a	0	n/a	0	0	0	n/a	n/a	n/a	n/a	n/a
443883	REC_WORD	wordpools/wasnorm_wordpool_less_exclusions.txt	LTP275	ltpFR	10	2	1	RADIATOR	1156	n/a	0	n/a	0	0	0	n/a	n/a	n/a	n/a	n/a
445383	REC_WORD	wordpools/wasnorm_wordpool_less_exclusions.txt	LTP275	ltpFR	10	2	1	GUARDIAN	668	n/a	1	n/a	0	0	0	n/a	n/a	n/a	n/a	n/a
446714	REC_WORD	wordpools/wasnorm_wordpool_less_exclusions.txt	LTP275	ltpFR	10	2	1	DAUGHTER	442	n/a	1	n/a	0	0	0	n/a	n/a	n/a	n/a	n/a
449970	REC_WORD	wordpools/wasnorm_wordpool_less_exclusions.txt	LTP275	ltpFR	10	2	1	PERSONNEL	1053	n/a	1	n/a	0	0	0	n/a	n/a	n/a	n/a	n/a
451199	REC_WORD	wordpools/wasnorm_wordpool_less_exclusions.txt	LTP275	ltpFR	10	2	1	TRIBE	1505	n/a	0	n/a	0	0	0	n/a	n/a	n/a	n/a	n/a
452484	REC_WORD	wordpools/wasnorm_wordpool_less_exclusions.txt	LTP275	ltpFR	10	2	1	SCOUT	1252	n/a	1	n/a	0	0	0	n/a	n/a	n/a	n/a	n/a
453778	REC_WORD	wordpools/wasnorm_wordpool_less_exclusions.txt	LTP275	ltpFR	10	2	1	SPY	1360	n/a	1	n/a	0	0	0	n/a	n/a	n/a	n/a	n/a
455447	REC_WORD	wordpools/wasnorm_wordpool_less_exclusions.txt	LTP275	ltpFR	10	2	1	POET	1095	n/a	1	n/a	0	0	0	n/a	n/a	n/a	n/a	n/a
456868	REC_WORD	wordpools/wasnorm_wordpool_less_exclusions.txt	LTP275	ltpFR	10	2	1	HERB	704	n/a	1	n/a	0	0	0	n/a	n/a	n/a	n/a	n/a
457885	REC_WORD	wordpools/wasnorm_wordpool_less_exclusions.txt	LTP275	ltpFR	10	2	1	SALT	1229	n/a	0	n/a	0	0	0	n/a	n/a	n/a	n/a	n/a
459338	REC_WORD	wordpools/wasnorm_wordpool_less_exclusions.txt	LTP275	ltpFR	10	2	1	CLAY	320	n/a	0	n/a	0	0	0	n/a	n/a	n/a	n/a	n/a
524714	WORD	wordpools/wasnorm_wordpool_less_exclusions.txt	LTP275	ltpFR	10	3	0	COIN	343	n/a	0	n/a	0	0	0	1	0.412841796875	0.57763671875	upper	../fonts/amplitud.ttf
528924	WORD	wordpools/wasnorm_wordpool_less_exclusions.txt	LTP275	ltpFR	10	3	0	ROOT	1210	n/a	0	n/a	0	0	0	1	0.412841796875	0.57763671875	upper	../fonts/amplitud.ttf
532885	WORD	wordpools/wasnorm_wordpool_less_exclusions.txt	LTP275	ltpFR	10	3	0	DIME	466	n/a	0	n/a	0	0	0	1	0.412841796875	0.57763671875	upper	../fonts/amplitud.ttf
536879	WORD	wordpools/wasnorm_wordpool_less_exclusions.txt	LTP275	ltpFR	10	3	0	PAWN	1030	n/a	0	n/a	0	0	0	1	0.412841796875	0.57763671875	upper	../fonts/amplitud.ttf
541006	WORD	wordpools/wasnorm_wordpool_less_exclusions.txt	LTP275	ltpFR	10	3	0	SLOPE	1328	n/a	1	n/a	0	0	0	1	0.412841796875	0.57763671875	upper	../fonts/amplitud.ttf
544967	WORD	wordpools/wasnorm_wordpool_less_exclusions.txt	LTP275	ltpFR	10	3	0	VALLEY	1545	n/a	1	n/a	0	0	0	1	0.412841796875	0.57763671875	upper	../fonts/amplitud.ttf
549161	WORD	wordpools/wasnorm_wordpool_less_exclusions.txt	LTP275	ltpFR	10	3	0	GROUND	666	n/a	1	n/a	0	0	0	1	0.412841796875	0.57763671875	upper	../fonts/amplitud.ttf
553222	WORD	wordpools/wasnorm_wordpool_less_exclusions.txt	LTP275	ltpFR	10	3	0	LID	817	n/a	0	n/a	0	0	0	1	0.412841796875	0.57763671875	upper	../fonts/amplitud.ttf
557383	WORD	wordpools/wasnorm_wordpool_less_exclusions.txt	LTP275	ltpFR	10	3	0	CUPBOARD	425	n/a	1	n/a	0	0	0	1	0.412841796875	0.57763671875	upper	../fonts/amplitud.ttf
561360	WORD	wordpools/wasnorm_wordpool_less_exclusions.txt	LTP275	ltpFR	10	3	0	CRAB	397	n/a	0	n/a	0	0	0	1	0.412841796875	0.57763671875	upper	../fonts/amplitud.ttf
565387	WORD	wordpools/wasnorm_wordpool_less_exclusions.txt	LTP275	ltpFR	10	3	0	CRUMB	416	n/a	0	n/a	0	0	0	1	0.412841796875	0.57763671875	upper	../fonts/amplitud.ttf
569381	WORD	wordpools/wasnorm_wordpool_less_exclusions.txt	LTP275	ltpFR	10	3	0	SOAP	1337	n/a	0	n/a	0	0	0	1	0.412841796875	0.57763671875	upper	../fonts/amplitud.ttf
573459	WORD	wordpools/wasnorm_wordpool_less_exclusions.txt	LTP275	ltpFR	10	3	0	LUNCH	849	n/a	0	n/a	0	0	0	1	0.412841796875	0.57763671875	upper	../fonts/amplitud.ttf
577552	WORD	wordpools/wasnorm_wordpool_less_exclusions.txt	LTP275	ltpFR	10	3	0	OCTOPUS	971	n/a	1	n/a	0	0	0	1	0.412841796875	0.57763671875	upper	../fonts/amplitud.ttf
581447	WORD	wordpools/wasnorm_wordpool_less_exclusions.txt	LTP275	ltpFR	10	3	0	ELM	527	n/a	1	n/a	0	0	0	1	0.412841796875	0.57763671875	upper	../fonts/amplitud.ttf
585374	WORD	wordpools/wasnorm_wordpool_less_exclusions.txt	LTP275	ltpFR	10	3	0	POPCORN	1104	n/a	0	n/a	0	0	0	1	0.412841796875	0.57763671875	upper	../fonts/amplitud.ttf
588387	START	n/a	LTP275	ltpFR	10	n/a	n/a	n/a	n/a	n/a	n/a	n/a	n/a	n/a	n/a	n/a	n/a	n/a	n/a	n/a
589518	PROB	n/a	LTP275	ltpFR	10	n/a	n/a	n/a	n/a	n/a	n/a	8	2	1	5	n/a	n/a	n/a	n/a	n/a
591680	PROB	n/a	LTP275	ltpFR	10	n/a	n/a	n/a	n/a	n/a	n/a	18	4	5	9	n/a	n/a	n/a	n/a	n/a
592945	PROB	n/a	LTP275	ltpFR	10	n/a	n/a	n/a	n/a	n/a	n/a	11	4	3	4	n/a	n/a	n/a	n/a	n/a
594411	PROB	n/a	LTP275	ltpFR	10	n/a	n/a	n/a	n/a	n/a	n/a	18	6	7	5	n/a	n/a	n/a	n/a	n/a
595741	PROB	n/a	LTP275	ltpFR	10	n/a	n/a	n/a	n/a	n/a	n/a	15	6	3	6	n/a	n/a	n/a	n/a	n/a
597290	PROB	n/a	LTP275	ltpFR	10	n/a	n/a	n/a	n/a	n/a	n/a	17	7	2	8	n/a	n/a	n/a	n/a	n/a
598786	PROB	n/a	LTP275	ltpFR	10	n/a	n/a	n/a	n/a	n/a	n/a	15	2	7	6	n/a	n/a	n/a	n/a	n/a
599951	PROB	n/a	LTP275	ltpFR	10	n/a	n/a	n/a	n/a	n/a	n/a	15	4	8	3	n/a	n/a	n/a	n/a	n/a
601166	PROB	n/a	LTP275	ltpFR	10	n/a	n/a	n/a	n/a	n/a	n/a	13	8	1	4	n/a	n/a	n/a	n/a	n/a
602581	PROB	n/a	LTP275	ltpFR	10	n/a	n/a	n/a	n/a	n/a	n/a	12	2	9	1	n/a	n/a	n/a	n/a	n/a
604002	STOP	n/a	LTP275	ltpFR	10	n/a	n/a	n/a	n/a	n/a	n/a	n/a	n/a	n/a	n/a	n/a	n/a	n/a	n/a	n/a
606210	REC_START	n/a	LTP275	ltpFR	10	3	n/a	n/a	n/a	n/a	n/a	n/a	0	0	0	n/a	n/a	n/a	n/a	n/a
607940	REC_WORD	wordpools/wasnorm_wordpool_less_exclusions.txt	LTP275	ltpFR	10	3	0	VALLEY	1545	n/a	1	n/a	0	0	0	n/a	n/a	n/a	n/a	n/a
608657	REC_WORD	wordpools/wasnorm_wordpool_less_exclusions.txt	LTP275	ltpFR	10	3	0	SLOPE	1328	n/a	1	n/a	0	0	0	n/a	n/a	n/a	n/a	n/a
609788	REC_WORD	wordpools/wasnorm_wordpool_less_exclusions.txt	LTP275	ltpFR	10	3	0	GROUND	666	n/a	1	n/a	0	0	0	n/a	n/a	n/a	n/a	n/a
610954	REC_WORD	wordpools/wasnorm_wordpool_less_exclusions.txt	LTP275	ltpFR	10	3	0	ELM	527	n/a	1	n/a	0	0	0	n/a	n/a	n/a	n/a	n/a
612349	REC_WORD	wordpools/wasnorm_wordpool_less_exclusions.txt	LTP275	ltpFR	10	3	0	OCTOPUS	971	n/a	1	n/a	0	0	0	n/a	n/a	n/a	n/a	n/a
615454	REC_WORD	wordpools/wasnorm_wordpool_less_exclusions.txt	LTP275	ltpFR	10	3	0	CRAB	397	n/a	0	n/a	0	0	0	n/a	n/a	n/a	n/a	n/a
616454	REC_WORD	wordpools/wasnorm_wordpool_less_exclusions.txt	LTP275	ltpFR	10	3	0	CUPBOARD	425	n/a	1	n/a	0	0	0	n/a	n/a	n/a	n/a	n/a
617414	REC_WORD	wordpools/wasnorm_wordpool_less_exclusions.txt	LTP275	ltpFR	10	3	0	LID	817	n/a	0	n/a	0	0	0	n/a	n/a	n/a	n/a	n/a
618447	REC_WORD	wordpools/wasnorm_wordpool_less_exclusions.txt	LTP275	ltpFR	10	3	0	CRUMB	416	n/a	0	n/a	0	0	0	n/a	n/a	n/a	n/a	n/a
619666	REC_WORD	wordpools/wasnorm_wordpool_less_exclusions.txt	LTP275	ltpFR	10	3	0	POPCORN	1104	n/a	0	n/a	0	0	0	n/a	n/a	n/a	n/a	n/a
622378	REC_WORD	wordpools/wasnorm_wordpool_less_exclusions.txt	LTP275	ltpFR	10	3	0	ROOT	1210	n/a	0	n/a	0	0	0	n/a	n/a	n/a	n/a	n/a
623390	REC_WORD	wordpools/wasnorm_wordpool_less_exclusions.txt	LTP275	ltpFR	10	3	0	DIME	466	n/a	0	n/a	0	0	0	n/a	n/a	n/a	n/a	n/a
624488	REC_WORD	wordpools/wasnorm_wordpool_less_exclusions.txt	LTP275	ltpFR	10	3	0	COIN	343	n/a	0	n/a	0	0	0	n/a	n/a	n/a	n/a	n/a
634484	REC_WORD	wordpools/wasnorm_wordpool_less_exclusions.txt	LTP275	ltpFR	10	3	0	SOAP	1337	n/a	0	n/a	0	0	0	n/a	n/a	n/a	n/a	n/a
686440	WORD	wordpools/wasnorm_wordpool_less_exclusions.txt	LTP275	ltpFR	10	4	0	CELERY	266	n/a	0	n/a	0	0	0	1	0.412841796875	0.57763671875	upper	../fonts/amplitud.ttf
690501	WORD	wordpools/wasnorm_wordpool_less_exclusions.txt	LTP275	ltpFR	10	4	0	NUCLEUS	961	n/a	0	n/a	0	0	0	1	0.412841796875	0.57763671875	upper	../fonts/amplitud.ttf
694660	WORD	wordpools/wasnorm_wordpool_less_exclusions.txt	LTP275	ltpFR	10	4	0	SUBMARINE	1398	n/a	1	n/a	0	0	0	1	0.412841796875	0.57763671875	upper	../fonts/amplitud.ttf
698621	WORD	wordpools/wasnorm_wordpool_less_exclusions.txt	LTP275	ltpFR	10	4	0	BOAT	144	n/a	1	n/a	0	0	0	1	0.412841796875	0.57763671875	upper	../fonts/amplitud.ttf
702449	WORD	wordpools/wasnorm_wordpool_less_exclusions.txt	LTP275	ltpFR	10	4	0	BAKER	71	n/a	1	n/a	0	0	0	1	0.412841796875	0.57763671875	upper	../fonts/amplitud.ttf
706527	WORD	wordpools/wasnorm_wordpool_less_exclusions.txt	LTP275	ltpFR	10	4	0	NERVE	944	n/a	0	n/a	0	0	0	1	0.412841796875	0.57763671875	upper	../fonts/amplitud.ttf
710454	WORD	wordpools/wasnorm_wordpool_less_exclusions.txt	LTP275	ltpFR	10	4	0	SALAD	1224	n/a	1	n/a	0	0	0	1	0.412841796875	0.57763671875	upper	../fonts/amplitud.ttf
714498	WORD	wordpools/wasnorm_wordpool_less_exclusions.txt	LTP275	ltpFR	10	4	0	DOVE	491	n/a	0	n/a	0	0	0	1	0.412841796875	0.57763671875	upper	../fonts/amplitud.ttf
718624	WORD	wordpools/wasnorm_wordpool_less_exclusions.txt	LTP275	ltpFR	10	4	0	COBBLER	335	n/a	1	n/a	0	0	0	1	0.412841796875	0.57763671875	upper	../fonts/amplitud.ttf
722768	WORD	wordpools/wasnorm_wordpool_less_exclusions.txt	LTP275	ltpFR	10	4	0	PASSENGER	1020	n/a	1	n/a	0	0	0	1	0.412841796875	0.57763671875	upper	../fonts/amplitud.ttf
726978	WORD	wordpools/wasnorm_wordpool_less_exclusions.txt	LTP275	ltpFR	10	4	0	CABLE	213	n/a	0	n/a	0	0	0	1	0.412841796875	0.57763671875	upper	../fonts/amplitud.ttf
731172	WORD	wordpools/wasnorm_wordpool_less_exclusions.txt	LTP275	ltpFR	10	4	0	CELLO	268	n/a	1	n/a	0	0	0	1	0.412841796875	0.57763671875	upper	../fonts/amplitud.ttf
735284	WORD	wordpools/wasnorm_wordpool_less_exclusions.txt	LTP275	ltpFR	10	4	0	HARP	689	n/a	1	n/a	0	0	0	1	0.412841796875	0.57763671875	upper	../fonts/amplitud.ttf
739294	WORD	wordpools/wasnorm_wordpool_less_exclusions.txt	LTP275	ltpFR	10	4	0	HONEY	713	n/a	0	n/a	0	0	0	1	0.412841796875	0.57763671875	upper	../fonts/amplitud.ttf
743322	WORD	wordpools/wasnorm_wordpool_less_exclusions.txt	LTP275	ltpFR	10	4	0	CARD	243	n/a	0	n/a	0	0	0	1	0.412841796875	0.57763671875	upper	../fonts/amplitud.ttf
747399	WORD	wordpools/wasnorm_wordpool_less_exclusions.txt	LTP275	ltpFR	10	4	0	BOARD	143	n/a	1	n/a	0	0	0	1	0.412841796875	0.57763671875	upper	../fonts/amplitud.ttf
753357	REC_START	n/a	LTP275	ltpFR	10	4	n/a	n/a	n/a	n/a	n/a	n/a	0	0	0	n/a	n/a	n/a	n/a	n/a
755200	REC_WORD	wordpools/wasnorm_wordpool_less_exclusions.txt	LTP275	ltpFR	10	4	0	SUBMARINE	1398	n/a	1	n/a	0	0	0	n/a	n/a	n/a	n/a	n/a
757215	REC_WORD	wordpools/wasnorm_wordpool_less_exclusions.txt	LTP275	ltpFR	10	4	0	NUCLEUS	961	n/a	0	n/a	0	0	0	n/a	n/a	n/a	n/a	n/a
758527	REC_WORD	wordpools/wasnorm_wordpool_less_exclusions.txt	LTP275	ltpFR	10	4	0	NERVE	944	n/a	0	n/a	0	0	0	n/a	n/a	n/a	n/a	n/a
759885	REC_WORD	wordpools/wasnorm_wordpool_less_exclusions.txt	LTP275	ltpFR	10	4	0	CELERY	266	n/a	0	n/a	0	0	0	n/a	n/a	n/a	n/a	n/a
762173	REC_WORD	wordpools/wasnorm_wordpool_less_exclusions.txt	LTP275	ltpFR	10	4	0	BOAT	144	n/a	1	n/a	0	0	0	n/a	n/a	n/a	n/a	n/a
764208	REC_WORD	wordpools/wasnorm_wordpool_less_exclusions.txt	LTP275	ltpFR	10	4	0	BAKER	71	n/a	1	n/a	0	0	0	n/a	n/a	n/a	n/a	n/a
765871	REC_WORD	wordpools/wasnorm_wordpool_less_exclusions.txt	LTP275	ltpFR	10	4	0	HONEY	713	n/a	0	n/a	0	0	0	n/a	n/a	n/a	n/a	n/a
767271	REC_WORD	wordpools/wasnorm_wordpool_less_exclusions.txt	LTP275	ltpFR	10	4	0	SALAD	1224	n/a	1	n/a	0	0	0	n/a	n/a	n/a	n/a	n/a
769912	REC_WORD	wordpools/wasnorm_wordpool_less_exclusions.txt	LTP275	ltpFR	10	4	0	PASSENGER	1020	n/a	1	n/a	0	0	0	n/a	n/a	n/a	n/a	n/a
771321	REC_WORD	wordpools/wasnorm_wordpool_less_exclusions.txt	LTP275	ltpFR	10	4	0	HARP	689	n/a	1	n/a	0	0	0	n/a	n/a	n/a	n/a	n/a
772544	REC_WORD	wordpools/wasnorm_wordpool_less_exclusions.txt	LTP275	ltpFR	10	4	0	CELLO	268	n/a	1	n/a	0	0	0	n/a	n/a	n/a	n/a	n/a
774358	REC_WORD	wordpools/wasnorm_wordpool_less_exclusions.txt	LTP275	ltpFR	10	4	0	CABLE	213	n/a	0	n/a	0	0	0	n/a	n/a	n/a	n/a	n/a
775882	REC_WORD	wordpools/wasnorm_wordpool_less_exclusions.txt	LTP275	ltpFR	10	4	0	CARD	243	n/a	0	n/a	0	0	0	n/a	n/a	n/a	n/a	n/a
797564	REC_WORD	wordpools/wasnorm_wordpool_less_exclusions.txt	LTP275	ltpFR	10	4	0	COBBLER	335	n/a	1	n/a	0	0	0	n/a	n/a	n/a	n/a	n/a
806790	REC_WORD	wordpools/wasnorm_wordpool_less_exclusions.txt	LTP275	ltpFR	10	4	0	BOARD	143	n/a	1	n/a	0	0	0	n/a	n/a	n/a	n/a	n/a
834302	WORD	wordpools/wasnorm_wordpool_less_exclusions.txt	LTP275	ltpFR	10	5	1	BEETLE	116	n/a	1	n/a	0	0	0	0	0.5869140625	0.422607421875	lower	../fonts/zerothre.ttf
838129	WORD	wordpools/wasnorm_wordpool_less_exclusions.txt	LTP275	ltpFR	10	5	1	MARKET	871	n/a	0	n/a	0	0	0	0	0.5869140625	0.422607421875	lower	../fonts/zerothre.ttf
842324	WORD	wordpools/wasnorm_wordpool_less_exclusions.txt	LTP275	ltpFR	10	5	1	ASSISTANT	48	n/a	1	n/a	0	0	0	0	0.5869140625	0.422607421875	lower	../fonts/zerothre.ttf
846150	WORD	wordpools/wasnorm_wordpool_less_exclusions.txt	LTP275	ltpFR	10	5	1	KLEENEX	782	n/a	0	n/a	0	0	0	0	0.5869140625	0.422607421875	lower	../fonts/zerothre.ttf
850011	WORD	wordpools/wasnorm_wordpool_less_exclusions.txt	LTP275	ltpFR	10	5	1	TICK	1463	n/a	1	n/a	0	0	0	0	0.5869140625	0.422607421875	lower	../fonts/zerothre.ttf
854172	WORD	wordpools/wasnorm_wordpool_less_exclusions.txt	LTP275	ltpFR	10	5	1	SUBWAY	1400	n/a	0	n/a	0	0	0	0	0.5869140625	0.422607421875	lower	../fonts/zerothre.ttf
858116	WORD	wordpools/wasnorm_wordpool_less_exclusions.txt	LTP275	ltpFR	10	5	1	VOLUNTEER	1577	n/a	1	n/a	0	0	0	0	0.5869140625	0.422607421875	lower	../fonts/zerothre.ttf
862211	WORD	wordpools/wasnorm_wordpool_less_exclusions.txt	LTP275	ltpFR	10	5	1	ARCHITECT	36	n/a	1	n/a	0	0	0	0	0.5869140625	0.422607421875	lower	../fonts/zerothre.ttf
866288	WORD	wordpools/wasnorm_wordpool_less_exclusions.txt	LTP275	ltpFR	10	5	1	KEEPER	769	n/a	1	n/a	0	0	0	0	0.5869140625	0.422607421875	lower	../fonts/zerothre.ttf
870382	WORD	wordpools/wasnorm_wordpool_less_exclusions.txt	LTP275	ltpFR	10	5	1	COOKBOOK	373	n/a	0	n/a	0	0	0	0	0.5869140625	0.422607421875	lower	../fonts/zerothre.ttf
874443	WORD	wordpools/wasnorm_wordpool_less_exclusions.txt	LTP275	ltpFR	10	5	1	KEYBOARD	774	n/a	0	n/a	0	0	0	0	0.5869140625	0.422607421875	lower	../fonts/zerothre.ttf
878503	WORD	wordpools/wasnorm_wordpool_less_exclusions.txt	LTP275	ltpFR	10	5	1	FIDDLE	561	n/a	0	n/a	0	0	0	0	0.5869140625	0.422607421875	lower	../fonts/zerothre.ttf
882381	WORD	wordpools/wasnorm_wordpool_less_exclusions.txt	LTP275	ltpFR	10	5	1	PAGE	1001	n/a	0	n/a	0	0	0	0	0.5869140625	0.422607421875	lower	../fonts/zerothre.ttf
886475	WORD	wordpools/wasnorm_wordpool_less_exclusions.txt	LTP275	ltpFR	10	5	1	NOVEL	960	n/a	0	n/a	0	0	0	0	0.5869140625	0.422607421875	lower	../fonts/zerothre.ttf
890502	WORD	wordpools/wasnorm_wordpool_less_exclusions.txt	LTP275	ltpFR	10	5	1	VEHICLE	1553	n/a	0	n/a	0	0	0	0	0.5869140625	0.422607421875	lower	../fonts/zerothre.ttf
894479	WORD	wordpools/wasnorm_wordpool_less_exclusions.txt	LTP275	ltpFR	10	5	1	INFANT	737	n/a	1	n/a	0	0	0	0	0.5869140625	0.422607421875	lower	../fonts/zerothre.ttf
897492	START	n/a	LTP275	ltpFR	10	n/a	n/a	n/a	n/a	n/a	n/a	n/a	n/a	n/a	n/a	n/a	n/a	n/a	n/a	n/a
898655	PROB	n/a	LTP275	ltpFR	10	n/a	n/a	n/a	n/a	n/a	n/a	13	6	2	5	n/a	n/a	n/a	n/a	n/a
900287	PROB	n/a	LTP275	ltpFR	10	n/a	n/a	n/a	n/a	n/a	n/a	5	2	1	2	n/a	n/a	n/a	n/a	n/a
901485	PROB	n/a	LTP275	ltpFR	10	n/a	n/a	n/a	n/a	n/a	n/a	12	4	6	2	n/a	n/a	n/a	n/a	n/a
902534	PROB	n/a	LTP275	ltpFR	10	n/a	n/a	n/a	n/a	n/a	n/a	6	2	1	3	n/a	n/a	n/a	n/a	n/a
905202	STOP	n/a	LTP275	ltpFR	10	n/a	n/a	n/a	n/a	n/a	n/a	n/a	n/a	n/a	n/a	n/a	n/a	n/a	n/a	n/a
907294	REC_START	n/a	LTP275	ltpFR	10	5	n/a	n/a	n/a	n/a	n/a	n/a	0	0	0	n/a	n/a	n/a	n/a	n/a
909948	REC_WORD	wordpools/wasnorm_wordpool_less_exclusions.txt	LTP275	ltpFR	10	5	1	BEETLE	116	n/a	1	n/a	0	0	0	n/a	n/a	n/a	n/a	n/a
911238	REC_WORD	wordpools/wasnorm_wordpool_less_exclusions.txt	LTP275	ltpFR	10	5	1	TICK	1463	n/a	1	n/a	0	0	0	n/a	n/a	n/a	n/a	n/a
912434	REC_WORD	wordpools/wasnorm_wordpool_less_exclusions.txt	LTP275	ltpFR	10	5	1	MARKET	871	n/a	0	n/a	0	0	0	n/a	n/a	n/a	n/a	n/a
913779	REC_WORD	wordpools/wasnorm_wordpool_less_exclusions.txt	LTP275	ltpFR	10	5	1	SUBWAY	1400	n/a	0	n/a	0	0	0	n/a	n/a	n/a	n/a	n/a
914887	REC_WORD	wordpools/wasnorm_wordpool_less_exclusions.txt	LTP275	ltpFR	10	5	1	VEHICLE	1553	n/a	0	n/a	0	0	0	n/a	n/a	n/a	n/a	n/a
916450	REC_WORD	wordpools/wasnorm_wordpool_less_exclusions.txt	LTP275	ltpFR	10	5	1	ASSISTANT	48	n/a	1	n/a	0	0	0	n/a	n/a	n/a	n/a	n/a
917837	REC_WORD	wordpools/wasnorm_wordpool_less_exclusions.txt	LTP275	ltpFR	10	5	1	KLEENEX	782	n/a	0	n/a	0	0	0	n/a	n/a	n/a	n/a	n/a
919193	REC_WORD	wordpools/wasnorm_wordpool_less_exclusions.txt	LTP275	ltpFR	10	5	1	VOLUNTEER	1577	n/a	1	n/a	0	0	0	n/a	n/a	n/a	n/a	n/a
920782	REC_WORD	wordpools/wasnorm_wordpool_less_exclusions.txt	LTP275	ltpFR	10	5	1	KEEPER	769	n/a	1	n/a	0	0	0	n/a	n/a	n/a	n/a	n/a
922327	REC_WORD	wordpools/wasnorm_wordpool_less_exclusions.txt	LTP275	ltpFR	10	5	1	ARCHITECT	36	n/a	1	n/a	0	0	0	n/a	n/a	n/a	n/a	n/a
924528	REC_WORD	wordpools/wasnorm_wordpool_less_exclusions.txt	LTP275	ltpFR	10	5	1	FIDDLE	561	n/a	0	n/a	0	0	0	n/a	n/a	n/a	n/a	n/a
925932	REC_WORD	wordpools/wasnorm_wordpool_less_exclusions.txt	LTP275	ltpFR	10	5	1	PAGE	1001	n/a	0	n/a	0	0	0	n/a	n/a	n/a	n/a	n/a
927269	REC_WORD	wordpools/wasnorm_wordpool_less_exclusions.txt	LTP275	ltpFR	10	5	1	NOVEL	960	n/a	0	n/a	0	0	0	n/a	n/a	n/a	n/a	n/a
930664	REC_WORD	wordpools/wasnorm_wordpool_less_exclusions.txt	LTP275	ltpFR	10	5	1	COOKBOOK	373	n/a	0	n/a	0	0	0	n/a	n/a	n/a	n/a	n/a
990652	START	n/a	LTP275	ltpFR	10	n/a	n/a	n/a	n/a	n/a	n/a	n/a	n/a	n/a	n/a	n/a	n/a	n/a	n/a	n/a
992166	PROB	n/a	LTP275	ltpFR	10	n/a	n/a	n/a	n/a	n/a	n/a	17	2	6	9	n/a	n/a	n/a	n/a	n/a
994795	PROB	n/a	LTP275	ltpFR	10	n/a	n/a	n/a	n/a	n/a	n/a	17	7	9	1	n/a	n/a	n/a	n/a	n/a
997379	STOP	n/a	LTP275	ltpFR	10	n/a	n/a	n/a	n/a	n/a	n/a	n/a	n/a	n/a	n/a	n/a	n/a	n/a	n/a	n/a
999821	WORD	wordpools/wasnorm_wordpool_less_exclusions.txt	LTP275	ltpFR	10	6	0	TABLE	1426	n/a	1	n/a	0	0	0	1	0.412841796875	0.57763671875	upper	../fonts/amplitud.ttf
1002834	START	n/a	LTP275	ltpFR	10	n/a	n/a	n/a	n/a	n/a	n/a	n/a	n/a	n/a	n/a	n/a	n/a	n/a	n/a	n/a
1003998	PROB	n/a	LTP275	ltpFR	10	n/a	n/a	n/a	n/a	n/a	n/a	21	5	9	7	n/a	n/a	n/a	n/a	n/a
1005845	PROB	n/a	LTP275	ltpFR	10	n/a	n/a	n/a	n/a	n/a	n/a	17	5	8	4	n/a	n/a	n/a	n/a	n/a
1007461	PROB	n/a	LTP275	ltpFR	10	n/a	n/a	n/a	n/a	n/a	n/a	3	9	3	1	n/a	n/a	n/a	n/a	n/a
1009174	PROB	n/a	LTP275	ltpFR	10	n/a	n/a	n/a	n/a	n/a	n/a	14	5	3	6	n/a	n/a	n/a	n/a	n/a
1010475	STOP	n/a	LTP275	ltpFR	10	n/a	n/a	n/a	n/a	n/a	n/a	n/a	n/a	n/a	n/a	n/a	n/a	n/a	n/a	n/a
1011786	WORD	wordpools/wasnorm_wordpool_less_exclusions.txt	LTP275	ltpFR	10	6	0	POSSUM	1112	n/a	1	n/a	0	0	0	1	0.412841796875	0.57763671875	upper	../fonts/amplitud.ttf
1014799	START	n/a	LTP275	ltpFR	10	n/a	n/a	n/a	n/a	n/a	n/a	n/a	n/a	n/a	n/a	n/a	n/a	n/a	n/a	n/a
1015697	PROB	n/a	LTP275	ltpFR	10	n/a	n/a	n/a	n/a	n/a	n/a	13	4	1	8	n/a	n/a	n/a	n/a	n/a
1017095	PROB	n/a	LTP275	ltpFR	10	n/a	n/a	n/a	n/a	n/a	n/a	17	3	8	6	n/a	n/a	n/a	n/a	n/a
1018610	PROB	n/a	LTP275	ltpFR	10	n/a	n/a	n/a	n/a	n/a	n/a	11	6	4	1	n/a	n/a	n/a	n/a	n/a
1019741	PROB	n/a	LTP275	ltpFR	10	n/a	n/a	n/a	n/a	n/a	n/a	13	5	5	3	n/a	n/a	n/a	n/a	n/a
1020856	PROB	n/a	LTP275	ltpFR	10	n/a	n/a	n/a	n/a	n/a	n/a	18	5	7	6	n/a	n/a	n/a	n/a	n/a
1022050	STOP	n/a	LTP275	ltpFR	10	n/a	n/a	n/a	n/a	n/a	n/a	n/a	n/a	n/a	n/a	n/a	n/a	n/a	n/a	n/a
1023835	WORD	wordpools/wasnorm_wordpool_less_exclusions.txt	LTP275	ltpFR	10	6	0	SANDWICH	1232	n/a	0	n/a	0	0	0	1	0.412841796875	0.57763671875	upper	../fonts/amplitud.ttf
1026848	START	n/a	LTP275	ltpFR	10	n/a	n/a	n/a	n/a	n/a	n/a	n/a	n/a	n/a	n/a	n/a	n/a	n/a	n/a	n/a
1027812	PROB	n/a	LTP275	ltpFR	10	n/a	n/a	n/a	n/a	n/a	n/a	12	2	9	1	n/a	n/a	n/a	n/a	n/a
1029411	PROB	n/a	LTP275	ltpFR	10	n/a	n/a	n/a	n/a	n/a	n/a	14	4	9	1	n/a	n/a	n/a	n/a	n/a
1030858	PROB	n/a	LTP275	ltpFR	10	n/a	n/a	n/a	n/a	n/a	n/a	13	5	4	4	n/a	n/a	n/a	n/a	n/a
1032323	PROB	n/a	LTP275	ltpFR	10	n/a	n/a	n/a	n/a	n/a	n/a	22	6	9	7	n/a	n/a	n/a	n/a	n/a
1033602	STOP	n/a	LTP275	ltpFR	10	n/a	n/a	n/a	n/a	n/a	n/a	n/a	n/a	n/a	n/a	n/a	n/a	n/a	n/a	n/a
1035801	WORD	wordpools/wasnorm_wordpool_less_exclusions.txt	LTP275	ltpFR	10	6	0	BREAST	171	n/a	1	n/a	0	0	0	1	0.412841796875	0.57763671875	upper	../fonts/amplitud.ttf
1038813	START	n/a	LTP275	ltpFR	10	n/a	n/a	n/a	n/a	n/a	n/a	n/a	n/a	n/a	n/a	n/a	n/a	n/a	n/a	n/a
1039961	PROB	n/a	LTP275	ltpFR	10	n/a	n/a	n/a	n/a	n/a	n/a	11	2	7	2	n/a	n/a	n/a	n/a	n/a
1041908	PROB	n/a	LTP275	ltpFR	10	n/a	n/a	n/a	n/a	n/a	n/a	17	6	4	7	n/a	n/a	n/a	n/a	n/a
1043156	PROB	n/a	LTP275	ltpFR	10	n/a	n/a	n/a	n/a	n/a	n/a	14	2	4	8	n/a	n/a	n/a	n/a	n/a
1044505	PROB	n/a	LTP275	ltpFR	10	n/a	n/a	n/a	n/a	n/a	n/a	23	6	8	9	n/a	n/a	n/a	n/a	n/a
1046275	STOP	n/a	LTP275	ltpFR	10	n/a	n/a	n/a	n/a	n/a	n/a	n/a	n/a	n/a	n/a	n/a	n/a	n/a	n/a	n/a
1047816	WORD	wordpools/wasnorm_wordpool_less_exclusions.txt	LTP275	ltpFR	10	6	0	PALM	1007	n/a	0	n/a	0	0	0	1	0.412841796875	0.57763671875	upper	../fonts/amplitud.ttf
1050829	START	n/a	LTP275	ltpFR	10	n/a	n/a	n/a	n/a	n/a	n/a	n/a	n/a	n/a	n/a	n/a	n/a	n/a	n/a	n/a
1051877	PROB	n/a	LTP275	ltpFR	10	n/a	n/a	n/a	n/a	n/a	n/a	15	2	7	6	n/a	n/a	n/a	n/a	n/a
1053275	PROB	n/a	LTP275	ltpFR	10	n/a	n/a	n/a	n/a	n/a	n/a	22	7	9	6	n/a	n/a	n/a	n/a	n/a
1055389	PROB	n/a	LTP275	ltpFR	10	n/a	n/a	n/a	n/a	n/a	n/a	18	8	9	1	n/a	n/a	n/a	n/a	n/a
1057890	STOP	n/a	LTP275	ltpFR	10	n/a	n/a	n/a	n/a	n/a	n/a	n/a	n/a	n/a	n/a	n/a	n/a	n/a	n/a	n/a
1059698	WORD	wordpools/wasnorm_wordpool_less_exclusions.txt	LTP275	ltpFR	10	6	1	CHAIR	274	n/a	0	n/a	0	0	0	0	0.5869140625	0.422607421875	lower	../fonts/zerothre.ttf
1062711	START	n/a	LTP275	ltpFR	10	n/a	n/a	n/a	n/a	n/a	n/a	n/a	n/a	n/a	n/a	n/a	n/a	n/a	n/a	n/a
1063609	PROB	n/a	LTP275	ltpFR	10	n/a	n/a	n/a	n/a	n/a	n/a	15	1	6	8	n/a	n/a	n/a	n/a	n/a
1064840	PROB	n/a	LTP275	ltpFR	10	n/a	n/a	n/a	n/a	n/a	n/a	18	6	6	6	n/a	n/a	n/a	n/a	n/a
1066155	PROB	n/a	LTP275	ltpFR	10	n/a	n/a	n/a	n/a	n/a	n/a	23	9	5	9	n/a	n/a	n/a	n/a	n/a
1067919	PROB	n/a	LTP275	ltpFR	10	n/a	n/a	n/a	n/a	n/a	n/a	24	8	9	7	n/a	n/a	n/a	n/a	n/a
1069435	STOP	n/a	LTP275	ltpFR	10	n/a	n/a	n/a	n/a	n/a	n/a	n/a	n/a	n/a	n/a	n/a	n/a	n/a	n/a	n/a
1071897	WORD	wordpools/wasnorm_wordpool_less_exclusions.txt	LTP275	ltpFR	10	6	1	GOBLIN	645	n/a	1	n/a	0	0	0	0	0.5869140625	0.422607421875	lower	../fonts/zerothre.ttf
1074909	START	n/a	LTP275	ltpFR	10	n/a	n/a	n/a	n/a	n/a	n/a	n/a	n/a	n/a	n/a	n/a	n/a	n/a	n/a	n/a
1076124	PROB	n/a	LTP275	ltpFR	10	n/a	n/a	n/a	n/a	n/a	n/a	19	8	2	9	n/a	n/a	n/a	n/a	n/a
1077621	PROB	n/a	LTP275	ltpFR	10	n/a	n/a	n/a	n/a	n/a	n/a	17	9	3	5	n/a	n/a	n/a	n/a	n/a
1079203	PROB	n/a	LTP275	ltpFR	10	n/a	n/a	n/a	n/a	n/a	n/a	8	2	2	4	n/a	n/a	n/a	n/a	n/a
1080650	PROB	n/a	LTP275	ltpFR	10	n/a	n/a	n/a	n/a	n/a	n/a	14	2	5	7	n/a	n/a	n/a	n/a	n/a
1082459	STOP	n/a	LTP275	ltpFR	10	n/a	n/a	n/a	n/a	n/a	n/a	n/a	n/a	n/a	n/a	n/a	n/a	n/a	n/a	n/a
1084112	WORD	wordpools/wasnorm_wordpool_less_exclusions.txt	LTP275	ltpFR	10	6	1	BEAN	105	n/a	1	n/a	0	0	0	0	0.5869140625	0.422607421875	lower	../fonts/zerothre.ttf
1087124	START	n/a	LTP275	ltpFR	10	n/a	n/a	n/a	n/a	n/a	n/a	n/a	n/a	n/a	n/a	n/a	n/a	n/a	n/a	n/a
1088023	PROB	n/a	LTP275	ltpFR	10	n/a	n/a	n/a	n/a	n/a	n/a	16	6	6	4	n/a	n/a	n/a	n/a	n/a
1089986	PROB	n/a	LTP275	ltpFR	10	n/a	n/a	n/a	n/a	n/a	n/a	14	3	9	2	n/a	n/a	n/a	n/a	n/a
1091235	PROB	n/a	LTP275	ltpFR	10	n/a	n/a	n/a	n/a	n/a	n/a	10	3	5	2	n/a	n/a	n/a	n/a	n/a
1092582	PROB	n/a	LTP275	ltpFR	10	n/a	n/a	n/a	n/a	n/a	n/a	21	5	7	9	n/a	n/a	n/a	n/a	n/a
1094618	STOP	n/a	LTP275	ltpFR	10	n/a	n/a	n/a	n/a	n/a	n/a	n/a	n/a	n/a	n/a	n/a	n/a	n/a	n/a	n/a
1096144	WORD	wordpools/wasnorm_wordpool_less_exclusions.txt	LTP275	ltpFR	10	6	1	GRASSHOPPER	656	n/a	1	n/a	0	0	0	0	0.5869140625	0.422607421875	lower	../fonts/zerothre.ttf
1099156	START	n/a	LTP275	ltpFR	10	n/a	n/a	n/a	n/a	n/a	n/a	n/a	n/a	n/a	n/a	n/a	n/a	n/a	n/a	n/a
1100372	PROB	n/a	LTP275	ltpFR	10	n/a	n/a	n/a	n/a	n/a	n/a	10	2	4	4	n/a	n/a	n/a	n/a	n/a
1102168	PROB	n/a	LTP275	ltpFR	10	n/a	n/a	n/a	n/a	n/a	n/a	17	5	8	4	n/a	n/a	n/a	n/a	n/a
1103699	PROB	n/a	LTP275	ltpFR	10	n/a	n/a	n/a	n/a	n/a	n/a	11	8	1	2	n/a	n/a	n/a	n/a	n/a
1105064	PROB	n/a	LTP275	ltpFR	10	n/a	n/a	n/a	n/a	n/a	n/a	11	8	2	1	n/a	n/a	n/a	n/a	n/a
1106227	STOP	n/a	LTP275	ltpFR	10	n/a	n/a	n/a	n/a	n/a	n/a	n/a	n/a	n/a	n/a	n/a	n/a	n/a	n/a	n/a
1108076	WORD	wordpools/wasnorm_wordpool_less_exclusions.txt	LTP275	ltpFR	10	6	1	THUMB	1462	n/a	1	n/a	0	0	0	0	0.5869140625	0.422607421875	lower	../fonts/zerothre.ttf
1111089	START	n/a	LTP275	ltpFR	10	n/a	n/a	n/a	n/a	n/a	n/a	n/a	n/a	n/a	n/a	n/a	n/a	n/a	n/a	n/a
1111970	PROB	n/a	LTP275	ltpFR	10	n/a	n/a	n/a	n/a	n/a	n/a	11	4	2	5	n/a	n/a	n/a	n/a	n/a
1113419	PROB	n/a	LTP275	ltpFR	10	n/a	n/a	n/a	n/a	n/a	n/a	21	4	8	9	n/a	n/a	n/a	n/a	n/a
1114899	PROB	n/a	LTP275	ltpFR	10	n/a	n/a	n/a	n/a	n/a	n/a	14	3	4	7	n/a	n/a	n/a	n/a	n/a
1116081	PROB	n/a	LTP275	ltpFR	10	n/a	n/a	n/a	n/a	n/a	n/a	12	1	5	6	n/a	n/a	n/a	n/a	n/a
1117818	STOP	n/a	LTP275	ltpFR	10	n/a	n/a	n/a	n/a	n/a	n/a	n/a	n/a	n/a	n/a	n/a	n/a	n/a	n/a	n/a
1120292	WORD	wordpools/wasnorm_wordpool_less_exclusions.txt	LTP275	ltpFR	10	6	1	SUITCASE	1403	n/a	0	n/a	0	0	0	0	0.5869140625	0.422607421875	lower	../fonts/zerothre.ttf
1123305	START	n/a	LTP275	ltpFR	10	n/a	n/a	n/a	n/a	n/a	n/a	n/a	n/a	n/a	n/a	n/a	n/a	n/a	n/a	n/a
1124419	PROB	n/a	LTP275	ltpFR	10	n/a	n/a	n/a	n/a	n/a	n/a	19	6	4	9	n/a	n/a	n/a	n/a	n/a
1125766	PROB	n/a	LTP275	ltpFR	10	n/a	n/a	n/a	n/a	n/a	n/a	15	3	5	7	n/a	n/a	n/a	n/a	n/a
1127048	PROB	n/a	LTP275	ltpFR	10	n/a	n/a	n/a	n/a	n/a	n/a	12	9	1	2	n/a	n/a	n/a	n/a	n/a
1128230	PROB	n/a	LTP275	ltpFR	10	n/a	n/a	n/a	n/a	n/a	n/a	21	8	4	9	n/a	n/a	n/a	n/a	n/a
1129760	PROB	n/a	LTP275	ltpFR	10	n/a	n/a	n/a	n/a	n/a	n/a	17	2	7	8	n/a	n/a	n/a	n/a	n/a
1131243	STOP	n/a	LTP275	ltpFR	10	n/a	n/a	n/a	n/a	n/a	n/a	n/a	n/a	n/a	n/a	n/a	n/a	n/a	n/a	n/a
1132424	WORD	wordpools/wasnorm_wordpool_less_exclusions.txt	LTP275	ltpFR	10	6	0	WOLF	1619	n/a	1	n/a	0	0	0	1	0.412841796875	0.57763671875	upper	../fonts/amplitud.ttf
1135437	START	n/a	LTP275	ltpFR	10	n/a	n/a	n/a	n/a	n/a	n/a	n/a	n/a	n/a	n/a	n/a	n/a	n/a	n/a	n/a
1136268	PROB	n/a	LTP275	ltpFR	10	n/a	n/a	n/a	n/a	n/a	n/a	10	1	4	5	n/a	n/a	n/a	n/a	n/a
1138015	PROB	n/a	LTP275	ltpFR	10	n/a	n/a	n/a	n/a	n/a	n/a	23	8	8	7	n/a	n/a	n/a	n/a	n/a
1140178	PROB	n/a	LTP275	ltpFR	10	n/a	n/a	n/a	n/a	n/a	n/a	16	9	6	1	n/a	n/a	n/a	n/a	n/a
1141593	PROB	n/a	LTP275	ltpFR	10	n/a	n/a	n/a	n/a	n/a	n/a	23	5	9	9	n/a	n/a	n/a	n/a	n/a
1143010	STOP	n/a	LTP275	ltpFR	10	n/a	n/a	n/a	n/a	n/a	n/a	n/a	n/a	n/a	n/a	n/a	n/a	n/a	n/a	n/a
1144373	WORD	wordpools/wasnorm_wordpool_less_exclusions.txt	LTP275	ltpFR	10	6	0	UTENSIL	1542	n/a	0	n/a	0	0	0	1	0.412841796875	0.57763671875	upper	../fonts/amplitud.ttf
1147385	START	n/a	LTP275	ltpFR	10	n/a	n/a	n/a	n/a	n/a	n/a	n/a	n/a	n/a	n/a	n/a	n/a	n/a	n/a	n/a
1148467	PROB	n/a	LTP275	ltpFR	10	n/a	n/a	n/a	n/a	n/a	n/a	18	4	5	9	n/a	n/a	n/a	n/a	n/a
1149947	PROB	n/a	LTP275	ltpFR	10	n/a	n/a	n/a	n/a	n/a	n/a	13	2	4	7	n/a	n/a	n/a	n/a	n/a
1151628	PROB	n/a	LTP275	ltpFR	10	n/a	n/a	n/a	n/a	n/a	n/a	19	7	5	7	n/a	n/a	n/a	n/a	n/a
1153243	PROB	n/a	LTP275	ltpFR	10	n/a	n/a	n/a	n/a	n/a	n/a	13	3	6	4	n/a	n/a	n/a	n/a	n/a
1154531	STOP	n/a	LTP275	ltpFR	10	n/a	n/a	n/a	n/a	n/a	n/a	n/a	n/a	n/a	n/a	n/a	n/a	n/a	n/a	n/a
1156305	WORD	wordpools/wasnorm_wordpool_less_exclusions.txt	LTP275	ltpFR	10	6	0	FOUNTAIN	597	n/a	1	n/a	0	0	0	1	0.412841796875	0.57763671875	upper	../fonts/amplitud.ttf
1159318	START	n/a	LTP275	ltpFR	10	n/a	n/a	n/a	n/a	n/a	n/a	n/a	n/a	n/a	n/a	n/a	n/a	n/a	n/a	n/a
1160266	PROB	n/a	LTP275	ltpFR	10	n/a	n/a	n/a	n/a	n/a	n/a	22	5	8	9	n/a	n/a	n/a	n/a	n/a
1161713	PROB	n/a	LTP275	ltpFR	10	n/a	n/a	n/a	n/a	n/a	n/a	16	7	8	1	n/a	n/a	n/a	n/a	n/a
1162977	PROB	n/a	LTP275	ltpFR	10	n/a	n/a	n/a	n/a	n/a	n/a	23	7	8	9	n/a	n/a	n/a	n/a	n/a
1165391	PROB	n/a	LTP275	ltpFR	10	n/a	n/a	n/a	n/a	n/a	n/a	16	3	8	5	n/a	n/a	n/a	n/a	n/a
1167002	STOP	n/a	LTP275	ltpFR	10	n/a	n/a	n/a	n/a	n/a	n/a	n/a	n/a	n/a	n/a	n/a	n/a	n/a	n/a	n/a
1168354	WORD	wordpools/wasnorm_wordpool_less_exclusions.txt	LTP275	ltpFR	10	6	1	GARDEN	623	n/a	0	n/a	0	0	0	0	0.5869140625	0.422607421875	lower	../fonts/zerothre.ttf
1171366	START	n/a	LTP275	ltpFR	10	n/a	n/a	n/a	n/a	n/a	n/a	n/a	n/a	n/a	n/a	n/a	n/a	n/a	n/a	n/a
1172215	PROB	n/a	LTP275	ltpFR	10	n/a	n/a	n/a	n/a	n/a	n/a	12	3	1	8	n/a	n/a	n/a	n/a	n/a
1173546	PROB	n/a	LTP275	ltpFR	10	n/a	n/a	n/a	n/a	n/a	n/a	20	4	8	8	n/a	n/a	n/a	n/a	n/a
1175093	PROB	n/a	LTP275	ltpFR	10	n/a	n/a	n/a	n/a	n/a	n/a	18	7	7	4	n/a	n/a	n/a	n/a	n/a
1176558	PROB	n/a	LTP275	ltpFR	10	n/a	n/a	n/a	n/a	n/a	n/a	13	5	6	2	n/a	n/a	n/a	n/a	n/a
1177772	PROB	n/a	LTP275	ltpFR	10	n/a	n/a	n/a	n/a	n/a	n/a	19	5	7	7	n/a	n/a	n/a	n/a	n/a
1179106	STOP	n/a	LTP275	ltpFR	10	n/a	n/a	n/a	n/a	n/a	n/a	n/a	n/a	n/a	n/a	n/a	n/a	n/a	n/a	n/a
1180269	WORD	wordpools/wasnorm_wordpool_less_exclusions.txt	LTP275	ltpFR	10	6	1	FLOWER	584	n/a	1	n/a	0	0	0	0	0.5869140625	0.422607421875	lower	../fonts/zerothre.ttf
1183282	START	n/a	LTP275	ltpFR	10	n/a	n/a	n/a	n/a	n/a	n/a	n/a	n/a	n/a	n/a	n/a	n/a	n/a	n/a	n/a
1184330	PROB	n/a	LTP275	ltpFR	10	n/a	n/a	n/a	n/a	n/a	n/a	19	8	9	2	n/a	n/a	n/a	n/a	n/a
1185793	PROB	n/a	LTP275	ltpFR	10	n/a	n/a	n/a	n/a	n/a	n/a	14	2	9	2	n/a	n/a	n/a	n/a	n/a
1187342	PROB	n/a	LTP275	ltpFR	10	n/a	n/a	n/a	n/a	n/a	n/a	16	5	7	4	n/a	n/a	n/a	n/a	n/a
1188772	PROB	n/a	LTP275	ltpFR	10	n/a	n/a	n/a	n/a	n/a	n/a	13	6	6	1	n/a	n/a	n/a	n/a	n/a
1189794	STOP	n/a	LTP275	ltpFR	10	n/a	n/a	n/a	n/a	n/a	n/a	n/a	n/a	n/a	n/a	n/a	n/a	n/a	n/a	n/a
1193150	REC_START	n/a	LTP275	ltpFR	10	6	n/a	n/a	n/a	n/a	n/a	n/a	0	0	0	n/a	n/a	n/a	n/a	n/a
1195767	REC_WORD	wordpools/wasnorm_wordpool_less_exclusions.txt	LTP275	ltpFR	10	6	0	TABLE	1426	n/a	1	n/a	0	0	0	n/a	n/a	n/a	n/a	n/a
1196855	REC_WORD	wordpools/wasnorm_wordpool_less_exclusions.txt	LTP275	ltpFR	10	6	1	CHAIR	274	n/a	0	n/a	0	0	0	n/a	n/a	n/a	n/a	n/a
1198530	REC_WORD	wordpools/wasnorm_wordpool_less_exclusions.txt	LTP275	ltpFR	10	6	0	POSSUM	1112	n/a	1	n/a	0	0	0	n/a	n/a	n/a	n/a	n/a
1200028	REC_WORD	wordpools/wasnorm_wordpool_less_exclusions.txt	LTP275	ltpFR	10	6	0	BREAST	171	n/a	1	n/a	0	0	0	n/a	n/a	n/a	n/a	n/a
1201298	REC_WORD	wordpools/wasnorm_wordpool_less_exclusions.txt	LTP275	ltpFR	10	6	0	PALM	1007	n/a	0	n/a	0	0	0	n/a	n/a	n/a	n/a	n/a
1202551	REC_WORD	wordpools/wasnorm_wordpool_less_exclusions.txt	LTP275	ltpFR	10	6	1	THUMB	1462	n/a	1	n/a	0	0	0	n/a	n/a	n/a	n/a	n/a
1208885	REC_WORD	wordpools/wasnorm_wordpool_less_exclusions.txt	LTP275	ltpFR	10	6	1	GOBLIN	645	n/a	1	n/a	0	0	0	n/a	n/a	n/a	n/a	n/a
1209882	REC_WORD	wordpools/wasnorm_wordpool_less_exclusions.txt	LTP275	ltpFR	10	6	1	BEAN	105	n/a	1	n/a	0	0	0	n/a	n/a	n/a	n/a	n/a
1210778	REC_WORD	wordpools/wasnorm_wordpool_less_exclusions.txt	LTP275	ltpFR	10	6	n/a	CRICKET	408	n/a	n/a	n/a	0	0	0	n/a	n/a	n/a	n/a	n/a
1212376	REC_WORD	wordpools/wasnorm_wordpool_less_exclusions.txt	LTP275	ltpFR	10	6	1	SUITCASE	1403	n/a	0	n/a	0	0	0	n/a	n/a	n/a	n/a	n/a
1213376	REC_WORD_VV	wordpools/wasnorm_wordpool_less_exclusions.txt	LTP275	ltpFR	10	6	n/a	<>	-1	n/a	n/a	n/a	0	0	0	n/a	n/a	n/a	n/a	n/a
1213915	REC_WORD	wordpools/wasnorm_wordpool_less_exclusions.txt	LTP275	ltpFR	10	6	1	GRASSHOPPER	656	n/a	1	n/a	0	0	0	n/a	n/a	n/a	n/a	n/a
1215729	REC_WORD	wordpools/wasnorm_wordpool_less_exclusions.txt	LTP275	ltpFR	10	6	0	UTENSIL	1542	n/a	0	n/a	0	0	0	n/a	n/a	n/a	n/a	n/a
1217423	REC_WORD	wordpools/wasnorm_wordpool_less_exclusions.txt	LTP275	ltpFR	10	6	1	GARDEN	623	n/a	0	n/a	0	0	0	n/a	n/a	n/a	n/a	n/a
1218212	REC_WORD	wordpools/wasnorm_wordpool_less_exclusions.txt	LTP275	ltpFR	10	6	1	FLOWER	584	n/a	1	n/a	0	0	0	n/a	n/a	n/a	n/a	n/a
1219348	REC_WORD	wordpools/wasnorm_wordpool_less_exclusions.txt	LTP275	ltpFR	10	6	0	FOUNTAIN	597	n/a	1	n/a	0	0	0	n/a	n/a	n/a	n/a	n/a
1220681	REC_WORD	wordpools/wasnorm_wordpool_less_exclusions.txt	LTP275	ltpFR	10	6	0	WOLF	1619	n/a	1	n/a	0	0	0	n/a	n/a	n/a	n/a	n/a
1268769	REST_REWET	n/a	LTP275	ltpFR	10	6	n/a	n/a	n/a	n/a	n/a	n/a	0	0	0	n/a	n/a	n/a	n/a	n/a
1638984	START	n/a	LTP275	ltpFR	10	n/a	n/a	n/a	n/a	n/a	n/a	n/a	n/a	n/a	n/a	n/a	n/a	n/a	n/a	n/a
1640499	PROB	n/a	LTP275	ltpFR	10	n/a	n/a	n/a	n/a	n/a	n/a	22	8	9	5	n/a	n/a	n/a	n/a	n/a
1642562	PROB	n/a	LTP275	ltpFR	10	n/a	n/a	n/a	n/a	n/a	n/a	17	5	3	9	n/a	n/a	n/a	n/a	n/a
1644009	PROB	n/a	LTP275	ltpFR	10	n/a	n/a	n/a	n/a	n/a	n/a	9	4	1	4	n/a	n/a	n/a	n/a	n/a
1645358	PROB	n/a	LTP275	ltpFR	10	n/a	n/a	n/a	n/a	n/a	n/a	10	7	1	2	n/a	n/a	n/a	n/a	n/a
1648053	PROB	n/a	LTP275	ltpFR	10	n/a	n/a	n/a	n/a	n/a	n/a	23	9	5	9	n/a	n/a	n/a	n/a	n/a
1650284	PROB	n/a	LTP275	ltpFR	10	n/a	n/a	n/a	n/a	n/a	n/a	15	2	7	6	n/a	n/a	n/a	n/a	n/a
1651532	PROB	n/a	LTP275	ltpFR	10	n/a	n/a	n/a	n/a	n/a	n/a	12	7	1	4	n/a	n/a	n/a	n/a	n/a
1653112	PROB	n/a	LTP275	ltpFR	10	n/a	n/a	n/a	n/a	n/a	n/a	16	5	7	4	n/a	n/a	n/a	n/a	n/a
1654499	STOP	n/a	LTP275	ltpFR	10	n/a	n/a	n/a	n/a	n/a	n/a	n/a	n/a	n/a	n/a	n/a	n/a	n/a	n/a	n/a
1655908	WORD	wordpools/wasnorm_wordpool_less_exclusions.txt	LTP275	ltpFR	10	7	1	HELICOPTER	701	n/a	0	n/a	0	0	0	0	0.5869140625	0.422607421875	lower	../fonts/zerothre.ttf
1658921	START	n/a	LTP275	ltpFR	10	n/a	n/a	n/a	n/a	n/a	n/a	n/a	n/a	n/a	n/a	n/a	n/a	n/a	n/a	n/a
1659935	PROB	n/a	LTP275	ltpFR	10	n/a	n/a	n/a	n/a	n/a	n/a	21	9	6	6	n/a	n/a	n/a	n/a	n/a
1661633	PROB	n/a	LTP275	ltpFR	10	n/a	n/a	n/a	n/a	n/a	n/a	5	1	3	1	n/a	n/a	n/a	n/a	n/a
1662764	PROB	n/a	LTP275	ltpFR	10	n/a	n/a	n/a	n/a	n/a	n/a	10	2	1	7	n/a	n/a	n/a	n/a	n/a
1664062	PROB	n/a	LTP275	ltpFR	10	n/a	n/a	n/a	n/a	n/a	n/a	9	1	1	7	n/a	n/a	n/a	n/a	n/a
1665194	PROB	n/a	LTP275	ltpFR	10	n/a	n/a	n/a	n/a	n/a	n/a	24	7	9	8	n/a	n/a	n/a	n/a	n/a
1666825	PROB	n/a	LTP275	ltpFR	10	n/a	n/a	n/a	n/a	n/a	n/a	22	9	9	4	n/a	n/a	n/a	n/a	n/a
1668156	PROB	n/a	LTP275	ltpFR	10	n/a	n/a	n/a	n/a	n/a	n/a	23	9	6	9	n/a	n/a	n/a	n/a	n/a
1669704	PROB	n/a	LTP275	ltpFR	10	n/a	n/a	n/a	n/a	n/a	n/a	20	5	6	9	n/a	n/a	n/a	n/a	n/a
1671119	PROB	n/a	LTP275	ltpFR	10	n/a	n/a	n/a	n/a	n/a	n/a	18	9	4	5	n/a	n/a	n/a	n/a	n/a
1672683	PROB	n/a	LTP275	ltpFR	10	n/a	n/a	n/a	n/a	n/a	n/a	17	7	7	3	n/a	n/a	n/a	n/a	n/a
1674347	STOP	n/a	LTP275	ltpFR	10	n/a	n/a	n/a	n/a	n/a	n/a	n/a	n/a	n/a	n/a	n/a	n/a	n/a	n/a	n/a
1675878	WORD	wordpools/wasnorm_wordpool_less_exclusions.txt	LTP275	ltpFR	10	7	1	AIRPORT	13	n/a	0	n/a	0	0	0	0	0.5869140625	0.422607421875	lower	../fonts/zerothre.ttf
1678891	START	n/a	LTP275	ltpFR	10	n/a	n/a	n/a	n/a	n/a	n/a	n/a	n/a	n/a	n/a	n/a	n/a	n/a	n/a	n/a
1679922	PROB	n/a	LTP275	ltpFR	10	n/a	n/a	n/a	n/a	n/a	n/a	13	7	2	4	n/a	n/a	n/a	n/a	n/a
1681221	PROB	n/a	LTP275	ltpFR	10	n/a	n/a	n/a	n/a	n/a	n/a	11	5	5	1	n/a	n/a	n/a	n/a	n/a
1682635	PROB	n/a	LTP275	ltpFR	10	n/a	n/a	n/a	n/a	n/a	n/a	11	1	6	4	n/a	n/a	n/a	n/a	n/a
1685448	PROB	n/a	LTP275	ltpFR	10	n/a	n/a	n/a	n/a	n/a	n/a	15	2	8	5	n/a	n/a	n/a	n/a	n/a
1686679	PROB	n/a	LTP275	ltpFR	10	n/a	n/a	n/a	n/a	n/a	n/a	20	5	9	6	n/a	n/a	n/a	n/a	n/a
1687977	PROB	n/a	LTP275	ltpFR	10	n/a	n/a	n/a	n/a	n/a	n/a	23	5	9	9	n/a	n/a	n/a	n/a	n/a
1690124	PROB	n/a	LTP275	ltpFR	10	n/a	n/a	n/a	n/a	n/a	n/a	15	7	3	5	n/a	n/a	n/a	n/a	n/a
1691189	PROB	n/a	LTP275	ltpFR	10	n/a	n/a	n/a	n/a	n/a	n/a	19	9	1	9	n/a	n/a	n/a	n/a	n/a
1693152	PROB	n/a	LTP275	ltpFR	10	n/a	n/a	n/a	n/a	n/a	n/a	11	2	4	5	n/a	n/a	n/a	n/a	n/a
1694499	STOP	n/a	LTP275	ltpFR	10	n/a	n/a	n/a	n/a	n/a	n/a	n/a	n/a	n/a	n/a	n/a	n/a	n/a	n/a	n/a
1696048	WORD	wordpools/wasnorm_wordpool_less_exclusions.txt	LTP275	ltpFR	10	7	1	WORM	1623	n/a	1	n/a	0	0	0	0	0.5869140625	0.422607421875	lower	../fonts/zerothre.ttf
1699061	START	n/a	LTP275	ltpFR	10	n/a	n/a	n/a	n/a	n/a	n/a	n/a	n/a	n/a	n/a	n/a	n/a	n/a	n/a	n/a
1700243	PROB	n/a	LTP275	ltpFR	10	n/a	n/a	n/a	n/a	n/a	n/a	16	9	4	3	n/a	n/a	n/a	n/a	n/a
1702139	PROB	n/a	LTP275	ltpFR	10	n/a	n/a	n/a	n/a	n/a	n/a	18	8	5	5	n/a	n/a	n/a	n/a	n/a
1704270	PROB	n/a	LTP275	ltpFR	10	n/a	n/a	n/a	n/a	n/a	n/a	14	4	3	7	n/a	n/a	n/a	n/a	n/a
1705933	PROB	n/a	LTP275	ltpFR	10	n/a	n/a	n/a	n/a	n/a	n/a	13	5	6	2	n/a	n/a	n/a	n/a	n/a
1707532	PROB	n/a	LTP275	ltpFR	10	n/a	n/a	n/a	n/a	n/a	n/a	19	4	6	9	n/a	n/a	n/a	n/a	n/a
1709012	PROB	n/a	LTP275	ltpFR	10	n/a	n/a	n/a	n/a	n/a	n/a	21	9	7	5	n/a	n/a	n/a	n/a	n/a
1710527	PROB	n/a	LTP275	ltpFR	10	n/a	n/a	n/a	n/a	n/a	n/a	10	2	3	5	n/a	n/a	n/a	n/a	n/a
1711725	PROB	n/a	LTP275	ltpFR	10	n/a	n/a	n/a	n/a	n/a	n/a	11	3	5	3	n/a	n/a	n/a	n/a	n/a
1713499	STOP	n/a	LTP275	ltpFR	10	n/a	n/a	n/a	n/a	n/a	n/a	n/a	n/a	n/a	n/a	n/a	n/a	n/a	n/a	n/a
1716018	WORD	wordpools/wasnorm_wordpool_less_exclusions.txt	LTP275	ltpFR	10	7	1	CASTLE	256	n/a	0	n/a	0	0	0	0	0.5869140625	0.422607421875	lower	../fonts/zerothre.ttf
1719031	START	n/a	LTP275	ltpFR	10	n/a	n/a	n/a	n/a	n/a	n/a	n/a	n/a	n/a	n/a	n/a	n/a	n/a	n/a	n/a
1720129	PROB	n/a	LTP275	ltpFR	10	n/a	n/a	n/a	n/a	n/a	n/a	17	7	4	6	n/a	n/a	n/a	n/a	n/a
1721643	PROB	n/a	LTP275	ltpFR	10	n/a	n/a	n/a	n/a	n/a	n/a	19	6	8	5	n/a	n/a	n/a	n/a	n/a
1723475	PROB	n/a	LTP275	ltpFR	10	n/a	n/a	n/a	n/a	n/a	n/a	19	7	9	3	n/a	n/a	n/a	n/a	n/a
1724922	PROB	n/a	LTP275	ltpFR	10	n/a	n/a	n/a	n/a	n/a	n/a	15	1	7	7	n/a	n/a	n/a	n/a	n/a
1726602	PROB	n/a	LTP275	ltpFR	10	n/a	n/a	n/a	n/a	n/a	n/a	5	1	3	1	n/a	n/a	n/a	n/a	n/a
1727751	PROB	n/a	LTP275	ltpFR	10	n/a	n/a	n/a	n/a	n/a	n/a	8	1	5	2	n/a	n/a	n/a	n/a	n/a
1729249	PROB	n/a	LTP275	ltpFR	10	n/a	n/a	n/a	n/a	n/a	n/a	21	4	9	8	n/a	n/a	n/a	n/a	n/a
1730580	PROB	n/a	LTP275	ltpFR	10	n/a	n/a	n/a	n/a	n/a	n/a	13	3	3	7	n/a	n/a	n/a	n/a	n/a
1732228	PROB	n/a	LTP275	ltpFR	10	n/a	n/a	n/a	n/a	n/a	n/a	21	8	6	7	n/a	n/a	n/a	n/a	n/a
1735031	STOP	n/a	LTP275	ltpFR	10	n/a	n/a	n/a	n/a	n/a	n/a	n/a	n/a	n/a	n/a	n/a	n/a	n/a	n/a	n/a
1735938	WORD	wordpools/wasnorm_wordpool_less_exclusions.txt	LTP275	ltpFR	10	7	0	LINT	826	n/a	0	n/a	0	0	0	1	0.412841796875	0.57763671875	upper	../fonts/amplitud.ttf
1738951	START	n/a	LTP275	ltpFR	10	n/a	n/a	n/a	n/a	n/a	n/a	n/a	n/a	n/a	n/a	n/a	n/a	n/a	n/a	n/a
1739982	PROB	n/a	LTP275	ltpFR	10	n/a	n/a	n/a	n/a	n/a	n/a	22	8	9	5	n/a	n/a	n/a	n/a	n/a
1741597	PROB	n/a	LTP275	ltpFR	10	n/a	n/a	n/a	n/a	n/a	n/a	14	1	9	4	n/a	n/a	n/a	n/a	n/a
1743011	PROB	n/a	LTP275	ltpFR	10	n/a	n/a	n/a	n/a	n/a	n/a	20	6	6	8	n/a	n/a	n/a	n/a	n/a
1744759	PROB	n/a	LTP275	ltpFR	10	n/a	n/a	n/a	n/a	n/a	n/a	23	9	6	8	n/a	n/a	n/a	n/a	n/a
1746257	PROB	n/a	LTP275	ltpFR	10	n/a	n/a	n/a	n/a	n/a	n/a	16	8	2	6	n/a	n/a	n/a	n/a	n/a
1747505	PROB	n/a	LTP275	ltpFR	10	n/a	n/a	n/a	n/a	n/a	n/a	13	1	4	8	n/a	n/a	n/a	n/a	n/a
1748869	PROB	n/a	LTP275	ltpFR	10	n/a	n/a	n/a	n/a	n/a	n/a	15	6	7	2	n/a	n/a	n/a	n/a	n/a
1750184	PROB	n/a	LTP275	ltpFR	10	n/a	n/a	n/a	n/a	n/a	n/a	14	4	2	8	n/a	n/a	n/a	n/a	n/a
1751698	PROB	n/a	LTP275	ltpFR	10	n/a	n/a	n/a	n/a	n/a	n/a	18	6	7	4	n/a	n/a	n/a	n/a	n/a
1754950	STOP	n/a	LTP275	ltpFR	10	n/a	n/a	n/a	n/a	n/a	n/a	n/a	n/a	n/a	n/a	n/a	n/a	n/a	n/a	n/a
1755992	WORD	wordpools/wasnorm_wordpool_less_exclusions.txt	LTP275	ltpFR	10	7	0	CASHIER	254	n/a	1	n/a	0	0	0	1	0.412841796875	0.57763671875	upper	../fonts/amplitud.ttf
1759004	START	n/a	LTP275	ltpFR	10	n/a	n/a	n/a	n/a	n/a	n/a	n/a	n/a	n/a	n/a	n/a	n/a	n/a	n/a	n/a
1759903	PROB	n/a	LTP275	ltpFR	10	n/a	n/a	n/a	n/a	n/a	n/a	12	3	4	5	n/a	n/a	n/a	n/a	n/a
1761268	PROB	n/a	LTP275	ltpFR	10	n/a	n/a	n/a	n/a	n/a	n/a	17	2	9	6	n/a	n/a	n/a	n/a	n/a
1763031	PROB	n/a	LTP275	ltpFR	10	n/a	n/a	n/a	n/a	n/a	n/a	17	9	6	2	n/a	n/a	n/a	n/a	n/a
1764762	PROB	n/a	LTP275	ltpFR	10	n/a	n/a	n/a	n/a	n/a	n/a	5	1	3	1	n/a	n/a	n/a	n/a	n/a
1765794	PROB	n/a	LTP275	ltpFR	10	n/a	n/a	n/a	n/a	n/a	n/a	18	4	8	8	n/a	n/a	n/a	n/a	n/a
1767907	PROB	n/a	LTP275	ltpFR	10	n/a	n/a	n/a	n/a	n/a	n/a	11	7	2	2	n/a	n/a	n/a	n/a	n/a
1769373	PROB	n/a	LTP275	ltpFR	10	n/a	n/a	n/a	n/a	n/a	n/a	9	2	5	2	n/a	n/a	n/a	n/a	n/a
1771718	PROB	n/a	LTP275	ltpFR	10	n/a	n/a	n/a	n/a	n/a	n/a	11	6	1	4	n/a	n/a	n/a	n/a	n/a
1773515	STOP	n/a	LTP275	ltpFR	10	n/a	n/a	n/a	n/a	n/a	n/a	n/a	n/a	n/a	n/a	n/a	n/a	n/a	n/a	n/a
1775979	WORD	wordpools/wasnorm_wordpool_less_exclusions.txt	LTP275	ltpFR	10	7	0	SHACK	1273	n/a	1	n/a	0	0	0	1	0.412841796875	0.57763671875	upper	../fonts/amplitud.ttf
1778991	START	n/a	LTP275	ltpFR	10	n/a	n/a	n/a	n/a	n/a	n/a	n/a	n/a	n/a	n/a	n/a	n/a	n/a	n/a	n/a
1780122	PROB	n/a	LTP275	ltpFR	10	n/a	n/a	n/a	n/a	n/a	n/a	18	6	7	5	n/a	n/a	n/a	n/a	n/a
1781720	PROB	n/a	LTP275	ltpFR	10	n/a	n/a	n/a	n/a	n/a	n/a	18	4	5	9	n/a	n/a	n/a	n/a	n/a
1783185	PROB	n/a	LTP275	ltpFR	10	n/a	n/a	n/a	n/a	n/a	n/a	18	5	6	7	n/a	n/a	n/a	n/a	n/a
1784434	PROB	n/a	LTP275	ltpFR	10	n/a	n/a	n/a	n/a	n/a	n/a	23	8	7	9	n/a	n/a	n/a	n/a	n/a
1786114	PROB	n/a	LTP275	ltpFR	10	n/a	n/a	n/a	n/a	n/a	n/a	10	4	2	4	n/a	n/a	n/a	n/a	n/a
1788278	PROB	n/a	LTP275	ltpFR	10	n/a	n/a	n/a	n/a	n/a	n/a	19	9	4	6	n/a	n/a	n/a	n/a	n/a
1789708	PROB	n/a	LTP275	ltpFR	10	n/a	n/a	n/a	n/a	n/a	n/a	14	2	6	6	n/a	n/a	n/a	n/a	n/a
1791540	PROB	n/a	LTP275	ltpFR	10	n/a	n/a	n/a	n/a	n/a	n/a	16	7	3	6	n/a	n/a	n/a	n/a	n/a
1792870	PROB	n/a	LTP275	ltpFR	10	n/a	n/a	n/a	n/a	n/a	n/a	12	3	4	5	n/a	n/a	n/a	n/a	n/a
1794114	STOP	n/a	LTP275	ltpFR	10	n/a	n/a	n/a	n/a	n/a	n/a	n/a	n/a	n/a	n/a	n/a	n/a	n/a	n/a	n/a
1796165	WORD	wordpools/wasnorm_wordpool_less_exclusions.txt	LTP275	ltpFR	10	7	1	SERPENT	1270	n/a	1	n/a	0	0	0	0	0.5869140625	0.422607421875	lower	../fonts/zerothre.ttf
1799178	START	n/a	LTP275	ltpFR	10	n/a	n/a	n/a	n/a	n/a	n/a	n/a	n/a	n/a	n/a	n/a	n/a	n/a	n/a	n/a
1800043	PROB	n/a	LTP275	ltpFR	10	n/a	n/a	n/a	n/a	n/a	n/a	15	6	7	2	n/a	n/a	n/a	n/a	n/a
1801723	PROB	n/a	LTP275	ltpFR	10	n/a	n/a	n/a	n/a	n/a	n/a	1	9	1	2	n/a	n/a	n/a	n/a	n/a
1802922	PROB	n/a	LTP275	ltpFR	10	n/a	n/a	n/a	n/a	n/a	n/a	14	4	8	2	n/a	n/a	n/a	n/a	n/a
1804454	PROB	n/a	LTP275	ltpFR	10	n/a	n/a	n/a	n/a	n/a	n/a	11	8	1	2	n/a	n/a	n/a	n/a	n/a
1806467	PROB	n/a	LTP275	ltpFR	10	n/a	n/a	n/a	n/a	n/a	n/a	13	9	3	1	n/a	n/a	n/a	n/a	n/a
1808215	PROB	n/a	LTP275	ltpFR	10	n/a	n/a	n/a	n/a	n/a	n/a	6	1	2	3	n/a	n/a	n/a	n/a	n/a
1809861	PROB	n/a	LTP275	ltpFR	10	n/a	n/a	n/a	n/a	n/a	n/a	16	9	3	4	n/a	n/a	n/a	n/a	n/a
1811277	PROB	n/a	LTP275	ltpFR	10	n/a	n/a	n/a	n/a	n/a	n/a	16	6	9	1	n/a	n/a	n/a	n/a	n/a
1812874	PROB	n/a	LTP275	ltpFR	10	n/a	n/a	n/a	n/a	n/a	n/a	19	8	8	3	n/a	n/a	n/a	n/a	n/a
1814235	STOP	n/a	LTP275	ltpFR	10	n/a	n/a	n/a	n/a	n/a	n/a	n/a	n/a	n/a	n/a	n/a	n/a	n/a	n/a	n/a
1816319	WORD	wordpools/wasnorm_wordpool_less_exclusions.txt	LTP275	ltpFR	10	7	1	RECEIPT	1173	n/a	0	n/a	0	0	0	0	0.5869140625	0.422607421875	lower	../fonts/zerothre.ttf
1819332	START	n/a	LTP275	ltpFR	10	n/a	n/a	n/a	n/a	n/a	n/a	n/a	n/a	n/a	n/a	n/a	n/a	n/a	n/a	n/a
1820430	PROB	n/a	LTP275	ltpFR	10	n/a	n/a	n/a	n/a	n/a	n/a	16	8	5	3	n/a	n/a	n/a	n/a	n/a
1822060	PROB	n/a	LTP275	ltpFR	10	n/a	n/a	n/a	n/a	n/a	n/a	10	3	4	3	n/a	n/a	n/a	n/a	n/a
1823691	PROB	n/a	LTP275	ltpFR	10	n/a	n/a	n/a	n/a	n/a	n/a	23	6	8	9	n/a	n/a	n/a	n/a	n/a
1825072	PROB	n/a	LTP275	ltpFR	10	n/a	n/a	n/a	n/a	n/a	n/a	14	5	6	3	n/a	n/a	n/a	n/a	n/a
1826454	PROB	n/a	LTP275	ltpFR	10	n/a	n/a	n/a	n/a	n/a	n/a	14	7	2	5	n/a	n/a	n/a	n/a	n/a
1828117	PROB	n/a	LTP275	ltpFR	10	n/a	n/a	n/a	n/a	n/a	n/a	13	8	4	1	n/a	n/a	n/a	n/a	n/a
1829317	PROB	n/a	LTP275	ltpFR	10	n/a	n/a	n/a	n/a	n/a	n/a	7	2	3	2	n/a	n/a	n/a	n/a	n/a
1830680	PROB	n/a	LTP275	ltpFR	10	n/a	n/a	n/a	n/a	n/a	n/a	17	4	9	4	n/a	n/a	n/a	n/a	n/a
1832195	PROB	n/a	LTP275	ltpFR	10	n/a	n/a	n/a	n/a	n/a	n/a	15	4	2	9	n/a	n/a	n/a	n/a	n/a
1833626	PROB	n/a	LTP275	ltpFR	10	n/a	n/a	n/a	n/a	n/a	n/a	13	6	5	2	n/a	n/a	n/a	n/a	n/a
1834794	STOP	n/a	LTP275	ltpFR	10	n/a	n/a	n/a	n/a	n/a	n/a	n/a	n/a	n/a	n/a	n/a	n/a	n/a	n/a	n/a
1836356	WORD	wordpools/wasnorm_wordpool_less_exclusions.txt	LTP275	ltpFR	10	7	0	BAIT	70	n/a	0	n/a	0	0	0	1	0.412841796875	0.57763671875	upper	../fonts/amplitud.ttf
1839369	START	n/a	LTP275	ltpFR	10	n/a	n/a	n/a	n/a	n/a	n/a	n/a	n/a	n/a	n/a	n/a	n/a	n/a	n/a	n/a
1840217	PROB	n/a	LTP275	ltpFR	10	n/a	n/a	n/a	n/a	n/a	n/a	18	9	6	3	n/a	n/a	n/a	n/a	n/a
1842646	PROB	n/a	LTP275	ltpFR	10	n/a	n/a	n/a	n/a	n/a	n/a	19	6	9	4	n/a	n/a	n/a	n/a	n/a
1844278	PROB	n/a	LTP275	ltpFR	10	n/a	n/a	n/a	n/a	n/a	n/a	13	3	4	6	n/a	n/a	n/a	n/a	n/a
1845492	PROB	n/a	LTP275	ltpFR	10	n/a	n/a	n/a	n/a	n/a	n/a	10	7	2	1	n/a	n/a	n/a	n/a	n/a
1846656	PROB	n/a	LTP275	ltpFR	10	n/a	n/a	n/a	n/a	n/a	n/a	23	7	7	9	n/a	n/a	n/a	n/a	n/a
1848004	PROB	n/a	LTP275	ltpFR	10	n/a	n/a	n/a	n/a	n/a	n/a	26	8	9	9	n/a	n/a	n/a	n/a	n/a
1850435	PROB	n/a	LTP275	ltpFR	10	n/a	n/a	n/a	n/a	n/a	n/a	20	6	9	5	n/a	n/a	n/a	n/a	n/a
1852048	PROB	n/a	LTP275	ltpFR	10	n/a	n/a	n/a	n/a	n/a	n/a	6	1	3	2	n/a	n/a	n/a	n/a	n/a
1853779	PROB	n/a	LTP275	ltpFR	10	n/a	n/a	n/a	n/a	n/a	n/a	18	8	2	8	n/a	n/a	n/a	n/a	n/a
1854962	STOP	n/a	LTP275	ltpFR	10	n/a	n/a	n/a	n/a	n/a	n/a	n/a	n/a	n/a	n/a	n/a	n/a	n/a	n/a	n/a
1856426	WORD	wordpools/wasnorm_wordpool_less_exclusions.txt	LTP275	ltpFR	10	7	0	PORPOISE	1109	n/a	1	n/a	0	0	0	1	0.412841796875	0.57763671875	upper	../fonts/amplitud.ttf
1859439	START	n/a	LTP275	ltpFR	10	n/a	n/a	n/a	n/a	n/a	n/a	n/a	n/a	n/a	n/a	n/a	n/a	n/a	n/a	n/a
1860270	PROB	n/a	LTP275	ltpFR	10	n/a	n/a	n/a	n/a	n/a	n/a	17	2	7	8	n/a	n/a	n/a	n/a	n/a
1862150	PROB	n/a	LTP275	ltpFR	10	n/a	n/a	n/a	n/a	n/a	n/a	16	4	5	7	n/a	n/a	n/a	n/a	n/a
1863664	PROB	n/a	LTP275	ltpFR	10	n/a	n/a	n/a	n/a	n/a	n/a	16	6	1	9	n/a	n/a	n/a	n/a	n/a
1866676	PROB	n/a	LTP275	ltpFR	10	n/a	n/a	n/a	n/a	n/a	n/a	7	2	3	2	n/a	n/a	n/a	n/a	n/a
1869589	PROB	n/a	LTP275	ltpFR	10	n/a	n/a	n/a	n/a	n/a	n/a	19	8	3	8	n/a	n/a	n/a	n/a	n/a
1871454	PROB	n/a	LTP275	ltpFR	10	n/a	n/a	n/a	n/a	n/a	n/a	11	2	5	4	n/a	n/a	n/a	n/a	n/a
1872718	PROB	n/a	LTP275	ltpFR	10	n/a	n/a	n/a	n/a	n/a	n/a	18	8	5	5	n/a	n/a	n/a	n/a	n/a
1874178	STOP	n/a	LTP275	ltpFR	10	n/a	n/a	n/a	n/a	n/a	n/a	n/a	n/a	n/a	n/a	n/a	n/a	n/a	n/a	n/a
1876612	WORD	wordpools/wasnorm_wordpool_less_exclusions.txt	LTP275	ltpFR	10	7	0	INN	739	n/a	1	n/a	0	0	0	1	0.412841796875	0.57763671875	upper	../fonts/amplitud.ttf
1879624	START	n/a	LTP275	ltpFR	10	n/a	n/a	n/a	n/a	n/a	n/a	n/a	n/a	n/a	n/a	n/a	n/a	n/a	n/a	n/a
1880639	PROB	n/a	LTP275	ltpFR	10	n/a	n/a	n/a	n/a	n/a	n/a	16	5	8	3	n/a	n/a	n/a	n/a	n/a
1882054	PROB	n/a	LTP275	ltpFR	10	n/a	n/a	n/a	n/a	n/a	n/a	21	6	6	9	n/a	n/a	n/a	n/a	n/a
1884384	PROB	n/a	LTP275	ltpFR	10	n/a	n/a	n/a	n/a	n/a	n/a	15	4	8	3	n/a	n/a	n/a	n/a	n/a
1885615	PROB	n/a	LTP275	ltpFR	10	n/a	n/a	n/a	n/a	n/a	n/a	17	5	5	7	n/a	n/a	n/a	n/a	n/a
1886846	PROB	n/a	LTP275	ltpFR	10	n/a	n/a	n/a	n/a	n/a	n/a	20	8	4	8	n/a	n/a	n/a	n/a	n/a
1888128	PROB	n/a	LTP275	ltpFR	10	n/a	n/a	n/a	n/a	n/a	n/a	14	1	7	6	n/a	n/a	n/a	n/a	n/a
1889692	PROB	n/a	LTP275	ltpFR	10	n/a	n/a	n/a	n/a	n/a	n/a	23	9	7	9	n/a	n/a	n/a	n/a	n/a
1891173	PROB	n/a	LTP275	ltpFR	10	n/a	n/a	n/a	n/a	n/a	n/a	19	7	5	7	n/a	n/a	n/a	n/a	n/a
1892788	PROB	n/a	LTP275	ltpFR	10	n/a	n/a	n/a	n/a	n/a	n/a	17	6	2	9	n/a	n/a	n/a	n/a	n/a
1894074	STOP	n/a	LTP275	ltpFR	10	n/a	n/a	n/a	n/a	n/a	n/a	n/a	n/a	n/a	n/a	n/a	n/a	n/a	n/a	n/a
1896665	WORD	wordpools/wasnorm_wordpool_less_exclusions.txt	LTP275	ltpFR	10	7	0	CAP	236	n/a	0	n/a	0	0	0	1	0.412841796875	0.57763671875	upper	../fonts/amplitud.ttf
1899678	START	n/a	LTP275	ltpFR	10	n/a	n/a	n/a	n/a	n/a	n/a	n/a	n/a	n/a	n/a	n/a	n/a	n/a	n/a	n/a
1900709	PROB	n/a	LTP275	ltpFR	10	n/a	n/a	n/a	n/a	n/a	n/a	13	4	3	6	n/a	n/a	n/a	n/a	n/a
1902773	PROB	n/a	LTP275	ltpFR	10	n/a	n/a	n/a	n/a	n/a	n/a	16	3	6	7	n/a	n/a	n/a	n/a	n/a
1904803	PROB	n/a	LTP275	ltpFR	10	n/a	n/a	n/a	n/a	n/a	n/a	15	1	8	6	n/a	n/a	n/a	n/a	n/a
1906168	PROB	n/a	LTP275	ltpFR	10	n/a	n/a	n/a	n/a	n/a	n/a	25	7	9	9	n/a	n/a	n/a	n/a	n/a
1908880	PROB	n/a	LTP275	ltpFR	10	n/a	n/a	n/a	n/a	n/a	n/a	3	1	1	1	n/a	n/a	n/a	n/a	n/a
1910195	PROB	n/a	LTP275	ltpFR	10	n/a	n/a	n/a	n/a	n/a	n/a	14	2	9	3	n/a	n/a	n/a	n/a	n/a
1911576	PROB	n/a	LTP275	ltpFR	10	n/a	n/a	n/a	n/a	n/a	n/a	16	5	8	3	n/a	n/a	n/a	n/a	n/a
1912991	PROB	n/a	LTP275	ltpFR	10	n/a	n/a	n/a	n/a	n/a	n/a	22	6	7	9	n/a	n/a	n/a	n/a	n/a
1914379	STOP	n/a	LTP275	ltpFR	10	n/a	n/a	n/a	n/a	n/a	n/a	n/a	n/a	n/a	n/a	n/a	n/a	n/a	n/a	n/a
1916585	WORD	wordpools/wasnorm_wordpool_less_exclusions.txt	LTP275	ltpFR	10	7	0	FOREHEAD	592	n/a	0	n/a	0	0	0	1	0.412841796875	0.57763671875	upper	../fonts/amplitud.ttf
1919598	START	n/a	LTP275	ltpFR	10	n/a	n/a	n/a	n/a	n/a	n/a	n/a	n/a	n/a	n/a	n/a	n/a	n/a	n/a	n/a
1920447	PROB	n/a	LTP275	ltpFR	10	n/a	n/a	n/a	n/a	n/a	n/a	11	1	1	9	n/a	n/a	n/a	n/a	n/a
1921911	PROB	n/a	LTP275	ltpFR	10	n/a	n/a	n/a	n/a	n/a	n/a	21	3	4	4	n/a	n/a	n/a	n/a	n/a
1923658	PROB	n/a	LTP275	ltpFR	10	n/a	n/a	n/a	n/a	n/a	n/a	18	7	9	2	n/a	n/a	n/a	n/a	n/a
1924989	PROB	n/a	LTP275	ltpFR	10	n/a	n/a	n/a	n/a	n/a	n/a	16	4	5	7	n/a	n/a	n/a	n/a	n/a
1926338	PROB	n/a	LTP275	ltpFR	10	n/a	n/a	n/a	n/a	n/a	n/a	14	9	1	4	n/a	n/a	n/a	n/a	n/a
1927537	PROB	n/a	LTP275	ltpFR	10	n/a	n/a	n/a	n/a	n/a	n/a	11	8	2	1	n/a	n/a	n/a	n/a	n/a
1928651	PROB	n/a	LTP275	ltpFR	10	n/a	n/a	n/a	n/a	n/a	n/a	21	6	6	9	n/a	n/a	n/a	n/a	n/a
1929915	PROB	n/a	LTP275	ltpFR	10	n/a	n/a	n/a	n/a	n/a	n/a	14	4	8	2	n/a	n/a	n/a	n/a	n/a
1931248	PROB	n/a	LTP275	ltpFR	10	n/a	n/a	n/a	n/a	n/a	n/a	15	2	7	6	n/a	n/a	n/a	n/a	n/a
1932413	PROB	n/a	LTP275	ltpFR	10	n/a	n/a	n/a	n/a	n/a	n/a	17	4	9	4	n/a	n/a	n/a	n/a	n/a
1934043	PROB	n/a	LTP275	ltpFR	10	n/a	n/a	n/a	n/a	n/a	n/a	19	9	4	6	n/a	n/a	n/a	n/a	n/a
1935403	STOP	n/a	LTP275	ltpFR	10	n/a	n/a	n/a	n/a	n/a	n/a	n/a	n/a	n/a	n/a	n/a	n/a	n/a	n/a	n/a
1936739	WORD	wordpools/wasnorm_wordpool_less_exclusions.txt	LTP275	ltpFR	10	7	1	TOOTH	1481	n/a	0	n/a	0	0	0	0	0.5869140625	0.422607421875	lower	../fonts/zerothre.ttf
1939751	START	n/a	LTP275	ltpFR	10	n/a	n/a	n/a	n/a	n/a	n/a	n/a	n/a	n/a	n/a	n/a	n/a	n/a	n/a	n/a
1940949	PROB	n/a	LTP275	ltpFR	10	n/a	n/a	n/a	n/a	n/a	n/a	23	9	5	9	n/a	n/a	n/a	n/a	n/a
1943179	PROB	n/a	LTP275	ltpFR	10	n/a	n/a	n/a	n/a	n/a	n/a	20	9	4	7	n/a	n/a	n/a	n/a	n/a
1945043	PROB	n/a	LTP275	ltpFR	10	n/a	n/a	n/a	n/a	n/a	n/a	9	3	2	4	n/a	n/a	n/a	n/a	n/a
1946359	PROB	n/a	LTP275	ltpFR	10	n/a	n/a	n/a	n/a	n/a	n/a	15	3	6	6	n/a	n/a	n/a	n/a	n/a
1947789	PROB	n/a	LTP275	ltpFR	10	n/a	n/a	n/a	n/a	n/a	n/a	12	2	5	5	n/a	n/a	n/a	n/a	n/a
1948987	PROB	n/a	LTP275	ltpFR	10	n/a	n/a	n/a	n/a	n/a	n/a	16	9	2	6	n/a	n/a	n/a	n/a	n/a
1951567	PROB	n/a	LTP275	ltpFR	10	n/a	n/a	n/a	n/a	n/a	n/a	9	2	6	1	n/a	n/a	n/a	n/a	n/a
1952898	PROB	n/a	LTP275	ltpFR	10	n/a	n/a	n/a	n/a	n/a	n/a	13	4	5	4	n/a	n/a	n/a	n/a	n/a
1955750	STOP	n/a	LTP275	ltpFR	10	n/a	n/a	n/a	n/a	n/a	n/a	n/a	n/a	n/a	n/a	n/a	n/a	n/a	n/a	n/a
1956842	WORD	wordpools/wasnorm_wordpool_less_exclusions.txt	LTP275	ltpFR	10	7	1	ENGINE	535	n/a	0	n/a	0	0	0	0	0.5869140625	0.422607421875	lower	../fonts/zerothre.ttf
1959854	START	n/a	LTP275	ltpFR	10	n/a	n/a	n/a	n/a	n/a	n/a	n/a	n/a	n/a	n/a	n/a	n/a	n/a	n/a	n/a
1961019	PROB	n/a	LTP275	ltpFR	10	n/a	n/a	n/a	n/a	n/a	n/a	17	8	1	8	n/a	n/a	n/a	n/a	n/a
1963099	PROB	n/a	LTP275	ltpFR	10	n/a	n/a	n/a	n/a	n/a	n/a	17	5	4	8	n/a	n/a	n/a	n/a	n/a
1965778	PROB	n/a	LTP275	ltpFR	10	n/a	n/a	n/a	n/a	n/a	n/a	13	5	6	2	n/a	n/a	n/a	n/a	n/a
1967311	PROB	n/a	LTP275	ltpFR	10	n/a	n/a	n/a	n/a	n/a	n/a	15	8	2	5	n/a	n/a	n/a	n/a	n/a
1968376	PROB	n/a	LTP275	ltpFR	10	n/a	n/a	n/a	n/a	n/a	n/a	15	6	3	6	n/a	n/a	n/a	n/a	n/a
1970206	PROB	n/a	LTP275	ltpFR	10	n/a	n/a	n/a	n/a	n/a	n/a	18	8	8	3	n/a	n/a	n/a	n/a	n/a
1971587	PROB	n/a	LTP275	ltpFR	10	n/a	n/a	n/a	n/a	n/a	n/a	13	1	6	6	n/a	n/a	n/a	n/a	n/a
1972968	PROB	n/a	LTP275	ltpFR	10	n/a	n/a	n/a	n/a	n/a	n/a	144	8	3	3	n/a	n/a	n/a	n/a	n/a
1974642	STOP	n/a	LTP275	ltpFR	10	n/a	n/a	n/a	n/a	n/a	n/a	n/a	n/a	n/a	n/a	n/a	n/a	n/a	n/a	n/a
1977661	REC_START	n/a	LTP275	ltpFR	10	7	n/a	n/a	n/a	n/a	n/a	n/a	0	0	0	n/a	n/a	n/a	n/a	n/a
1980437	REC_WORD	wordpools/wasnorm_wordpool_less_exclusions.txt	LTP275	ltpFR	10	7	0	PORPOISE	1109	n/a	1	n/a	0	0	0	n/a	n/a	n/a	n/a	n/a
1981604	REC_WORD	wordpools/wasnorm_wordpool_less_exclusions.txt	LTP275	ltpFR	10	7	0	BAIT	70	n/a	0	n/a	0	0	0	n/a	n/a	n/a	n/a	n/a
1982963	REC_WORD	wordpools/wasnorm_wordpool_less_exclusions.txt	LTP275	ltpFR	10	7	1	WORM	1623	n/a	1	n/a	0	0	0	n/a	n/a	n/a	n/a	n/a
1984463	REC_WORD	wordpools/wasnorm_wordpool_less_exclusions.txt	LTP275	ltpFR	10	7	1	AIRPORT	13	n/a	0	n/a	0	0	0	n/a	n/a	n/a	n/a	n/a
1989300	REC_WORD	wordpools/wasnorm_wordpool_less_exclusions.txt	LTP275	ltpFR	10	7	0	SHACK	1273	n/a	1	n/a	0	0	0	n/a	n/a	n/a	n/a	n/a
1990144	REC_WORD	wordpools/wasnorm_wordpool_less_exclusions.txt	LTP275	ltpFR	10	7	0	CASHIER	254	n/a	1	n/a	0	0	0	n/a	n/a	n/a	n/a	n/a
1991252	REC_WORD	wordpools/wasnorm_wordpool_less_exclusions.txt	LTP275	ltpFR	10	7	1	RECEIPT	1173	n/a	0	n/a	0	0	0	n/a	n/a	n/a	n/a	n/a
1993476	REC_WORD	wordpools/wasnorm_wordpool_less_exclusions.txt	LTP275	ltpFR	10	7	0	FOREHEAD	592	n/a	0	n/a	0	0	0	n/a	n/a	n/a	n/a	n/a
1994634	REC_WORD	wordpools/wasnorm_wordpool_less_exclusions.txt	LTP275	ltpFR	10	7	1	TOOTH	1481	n/a	0	n/a	0	0	0	n/a	n/a	n/a	n/a	n/a
2009965	REC_WORD	wordpools/wasnorm_wordpool_less_exclusions.txt	LTP275	ltpFR	10	7	0	LINT	826	n/a	0	n/a	0	0	0	n/a	n/a	n/a	n/a	n/a
2048399	REC_WORD	wordpools/wasnorm_wordpool_less_exclusions.txt	LTP275	ltpFR	10	7	1	ENGINE	535	n/a	0	n/a	0	0	0	n/a	n/a	n/a	n/a	n/a
2056660	START	n/a	LTP275	ltpFR	10	n/a	n/a	n/a	n/a	n/a	n/a	n/a	n/a	n/a	n/a	n/a	n/a	n/a	n/a	n/a
2058174	PROB	n/a	LTP275	ltpFR	10	n/a	n/a	n/a	n/a	n/a	n/a	19	8	3	8	n/a	n/a	n/a	n/a	n/a
2059788	PROB	n/a	LTP275	ltpFR	10	n/a	n/a	n/a	n/a	n/a	n/a	17	7	9	1	n/a	n/a	n/a	n/a	n/a
2061918	PROB	n/a	LTP275	ltpFR	10	n/a	n/a	n/a	n/a	n/a	n/a	12	2	9	1	n/a	n/a	n/a	n/a	n/a
2063235	STOP	n/a	LTP275	ltpFR	10	n/a	n/a	n/a	n/a	n/a	n/a	n/a	n/a	n/a	n/a	n/a	n/a	n/a	n/a	n/a
2065613	WORD	wordpools/wasnorm_wordpool_less_exclusions.txt	LTP275	ltpFR	10	8	1	HAM	678	n/a	0	n/a	0	0	0	0	0.5869140625	0.422607421875	lower	../fonts/zerothre.ttf
2068625	START	n/a	LTP275	ltpFR	10	n/a	n/a	n/a	n/a	n/a	n/a	n/a	n/a	n/a	n/a	n/a	n/a	n/a	n/a	n/a
2069823	PROB	n/a	LTP275	ltpFR	10	n/a	n/a	n/a	n/a	n/a	n/a	13	6	3	4	n/a	n/a	n/a	n/a	n/a
2071754	PROB	n/a	LTP275	ltpFR	10	n/a	n/a	n/a	n/a	n/a	n/a	7	1	2	4	n/a	n/a	n/a	n/a	n/a
2073068	PROB	n/a	LTP275	ltpFR	10	n/a	n/a	n/a	n/a	n/a	n/a	18	9	3	6	n/a	n/a	n/a	n/a	n/a
2074501	PROB	n/a	LTP275	ltpFR	10	n/a	n/a	n/a	n/a	n/a	n/a	22	8	6	8	n/a	n/a	n/a	n/a	n/a
2075874	STOP	n/a	LTP275	ltpFR	10	n/a	n/a	n/a	n/a	n/a	n/a	n/a	n/a	n/a	n/a	n/a	n/a	n/a	n/a	n/a
2077695	WORD	wordpools/wasnorm_wordpool_less_exclusions.txt	LTP275	ltpFR	10	8	1	CHEDDAR	286	n/a	0	n/a	0	0	0	0	0.5869140625	0.422607421875	lower	../fonts/zerothre.ttf
2080707	START	n/a	LTP275	ltpFR	10	n/a	n/a	n/a	n/a	n/a	n/a	n/a	n/a	n/a	n/a	n/a	n/a	n/a	n/a	n/a
2081922	PROB	n/a	LTP275	ltpFR	10	n/a	n/a	n/a	n/a	n/a	n/a	15	3	8	4	n/a	n/a	n/a	n/a	n/a
2083170	PROB	n/a	LTP275	ltpFR	10	n/a	n/a	n/a	n/a	n/a	n/a	22	8	7	7	n/a	n/a	n/a	n/a	n/a
2084751	PROB	n/a	LTP275	ltpFR	10	n/a	n/a	n/a	n/a	n/a	n/a	20	3	9	8	n/a	n/a	n/a	n/a	n/a
2086132	PROB	n/a	LTP275	ltpFR	10	n/a	n/a	n/a	n/a	n/a	n/a	16	8	6	2	n/a	n/a	n/a	n/a	n/a
2087475	STOP	n/a	LTP275	ltpFR	10	n/a	n/a	n/a	n/a	n/a	n/a	n/a	n/a	n/a	n/a	n/a	n/a	n/a	n/a	n/a
2089843	WORD	wordpools/wasnorm_wordpool_less_exclusions.txt	LTP275	ltpFR	10	8	1	SINK	1309	n/a	0	n/a	0	0	0	0	0.5869140625	0.422607421875	lower	../fonts/zerothre.ttf
2092856	START	n/a	LTP275	ltpFR	10	n/a	n/a	n/a	n/a	n/a	n/a	n/a	n/a	n/a	n/a	n/a	n/a	n/a	n/a	n/a
2093987	PROB	n/a	LTP275	ltpFR	10	n/a	n/a	n/a	n/a	n/a	n/a	14	4	2	8	n/a	n/a	n/a	n/a	n/a
2095436	PROB	n/a	LTP275	ltpFR	10	n/a	n/a	n/a	n/a	n/a	n/a	11	1	9	1	n/a	n/a	n/a	n/a	n/a
2096551	PROB	n/a	LTP275	ltpFR	10	n/a	n/a	n/a	n/a	n/a	n/a	11	8	1	2	n/a	n/a	n/a	n/a	n/a
2097848	PROB	n/a	LTP275	ltpFR	10	n/a	n/a	n/a	n/a	n/a	n/a	19	5	7	7	n/a	n/a	n/a	n/a	n/a
2099443	STOP	n/a	LTP275	ltpFR	10	n/a	n/a	n/a	n/a	n/a	n/a	n/a	n/a	n/a	n/a	n/a	n/a	n/a	n/a	n/a
2101892	WORD	wordpools/wasnorm_wordpool_less_exclusions.txt	LTP275	ltpFR	10	8	1	DEODORANT	448	n/a	0	n/a	0	0	0	0	0.5869140625	0.422607421875	lower	../fonts/zerothre.ttf
2104905	START	n/a	LTP275	ltpFR	10	n/a	n/a	n/a	n/a	n/a	n/a	n/a	n/a	n/a	n/a	n/a	n/a	n/a	n/a	n/a
2106002	PROB	n/a	LTP275	ltpFR	10	n/a	n/a	n/a	n/a	n/a	n/a	23	5	9	9	n/a	n/a	n/a	n/a	n/a
2107551	PROB	n/a	LTP275	ltpFR	10	n/a	n/a	n/a	n/a	n/a	n/a	25	7	9	9	n/a	n/a	n/a	n/a	n/a
2109415	PROB	n/a	LTP275	ltpFR	10	n/a	n/a	n/a	n/a	n/a	n/a	21	8	6	7	n/a	n/a	n/a	n/a	n/a
2110779	PROB	n/a	LTP275	ltpFR	10	n/a	n/a	n/a	n/a	n/a	n/a	8	2	3	3	n/a	n/a	n/a	n/a	n/a
2112178	STOP	n/a	LTP275	ltpFR	10	n/a	n/a	n/a	n/a	n/a	n/a	n/a	n/a	n/a	n/a	n/a	n/a	n/a	n/a	n/a
2113824	WORD	wordpools/wasnorm_wordpool_less_exclusions.txt	LTP275	ltpFR	10	8	0	MOOSE	915	n/a	1	n/a	0	0	0	1	0.412841796875	0.57763671875	upper	../fonts/amplitud.ttf
2116837	START	n/a	LTP275	ltpFR	10	n/a	n/a	n/a	n/a	n/a	n/a	n/a	n/a	n/a	n/a	n/a	n/a	n/a	n/a	n/a
2117768	PROB	n/a	LTP275	ltpFR	10	n/a	n/a	n/a	n/a	n/a	n/a	10	4	1	5	n/a	n/a	n/a	n/a	n/a
2119500	PROB	n/a	LTP275	ltpFR	10	n/a	n/a	n/a	n/a	n/a	n/a	15	8	5	2	n/a	n/a	n/a	n/a	n/a
2120714	PROB	n/a	LTP275	ltpFR	10	n/a	n/a	n/a	n/a	n/a	n/a	12	2	9	1	n/a	n/a	n/a	n/a	n/a
2122145	PROB	n/a	LTP275	ltpFR	10	n/a	n/a	n/a	n/a	n/a	n/a	18	2	8	8	n/a	n/a	n/a	n/a	n/a
2123507	STOP	n/a	LTP275	ltpFR	10	n/a	n/a	n/a	n/a	n/a	n/a	n/a	n/a	n/a	n/a	n/a	n/a	n/a	n/a	n/a
2125923	WORD	wordpools/wasnorm_wordpool_less_exclusions.txt	LTP275	ltpFR	10	8	0	NET	946	n/a	1	n/a	0	0	0	1	0.412841796875	0.57763671875	upper	../fonts/amplitud.ttf
2128935	START	n/a	LTP275	ltpFR	10	n/a	n/a	n/a	n/a	n/a	n/a	n/a	n/a	n/a	n/a	n/a	n/a	n/a	n/a	n/a
2129800	PROB	n/a	LTP275	ltpFR	10	n/a	n/a	n/a	n/a	n/a	n/a	9	1	1	7	n/a	n/a	n/a	n/a	n/a
2131065	PROB	n/a	LTP275	ltpFR	10	n/a	n/a	n/a	n/a	n/a	n/a	19	5	6	8	n/a	n/a	n/a	n/a	n/a
2132431	PROB	n/a	LTP275	ltpFR	10	n/a	n/a	n/a	n/a	n/a	n/a	18	8	5	5	n/a	n/a	n/a	n/a	n/a
2133944	PROB	n/a	LTP275	ltpFR	10	n/a	n/a	n/a	n/a	n/a	n/a	6	1	1	4	n/a	n/a	n/a	n/a	n/a
2135092	PROB	n/a	LTP275	ltpFR	10	n/a	n/a	n/a	n/a	n/a	n/a	23	7	8	8	n/a	n/a	n/a	n/a	n/a
2136610	STOP	n/a	LTP275	ltpFR	10	n/a	n/a	n/a	n/a	n/a	n/a	n/a	n/a	n/a	n/a	n/a	n/a	n/a	n/a	n/a
2137971	WORD	wordpools/wasnorm_wordpool_less_exclusions.txt	LTP275	ltpFR	10	8	0	SHARK	1275	n/a	1	n/a	0	0	0	1	0.412841796875	0.57763671875	upper	../fonts/amplitud.ttf
2140984	START	n/a	LTP275	ltpFR	10	n/a	n/a	n/a	n/a	n/a	n/a	n/a	n/a	n/a	n/a	n/a	n/a	n/a	n/a	n/a
2142082	PROB	n/a	LTP275	ltpFR	10	n/a	n/a	n/a	n/a	n/a	n/a	12	8	1	3	n/a	n/a	n/a	n/a	n/a
2143630	PROB	n/a	LTP275	ltpFR	10	n/a	n/a	n/a	n/a	n/a	n/a	8	3	4	1	n/a	n/a	n/a	n/a	n/a
2145311	PROB	n/a	LTP275	ltpFR	10	n/a	n/a	n/a	n/a	n/a	n/a	25	8	9	8	n/a	n/a	n/a	n/a	n/a
2146808	PROB	n/a	LTP275	ltpFR	10	n/a	n/a	n/a	n/a	n/a	n/a	16	2	5	9	n/a	n/a	n/a	n/a	n/a
2148122	STOP	n/a	LTP275	ltpFR	10	n/a	n/a	n/a	n/a	n/a	n/a	n/a	n/a	n/a	n/a	n/a	n/a	n/a	n/a	n/a
2149970	WORD	wordpools/wasnorm_wordpool_less_exclusions.txt	LTP275	ltpFR	10	8	0	MOSQUITO	917	n/a	0	n/a	0	0	0	1	0.412841796875	0.57763671875	upper	../fonts/amplitud.ttf
2152983	START	n/a	LTP275	ltpFR	10	n/a	n/a	n/a	n/a	n/a	n/a	n/a	n/a	n/a	n/a	n/a	n/a	n/a	n/a	n/a
2153814	PROB	n/a	LTP275	ltpFR	10	n/a	n/a	n/a	n/a	n/a	n/a	12	3	8	1	n/a	n/a	n/a	n/a	n/a
2155396	PROB	n/a	LTP275	ltpFR	10	n/a	n/a	n/a	n/a	n/a	n/a	11	7	3	1	n/a	n/a	n/a	n/a	n/a
2156528	PROB	n/a	LTP275	ltpFR	10	n/a	n/a	n/a	n/a	n/a	n/a	10	1	8	1	n/a	n/a	n/a	n/a	n/a
2157775	PROB	n/a	LTP275	ltpFR	10	n/a	n/a	n/a	n/a	n/a	n/a	16	6	9	1	n/a	n/a	n/a	n/a	n/a
2160983	STOP	n/a	LTP275	ltpFR	10	n/a	n/a	n/a	n/a	n/a	n/a	n/a	n/a	n/a	n/a	n/a	n/a	n/a	n/a	n/a
2161852	WORD	wordpools/wasnorm_wordpool_less_exclusions.txt	LTP275	ltpFR	10	8	0	BIOLOGIST	128	n/a	1	n/a	0	0	0	1	0.412841796875	0.57763671875	upper	../fonts/amplitud.ttf
2164865	START	n/a	LTP275	ltpFR	10	n/a	n/a	n/a	n/a	n/a	n/a	n/a	n/a	n/a	n/a	n/a	n/a	n/a	n/a	n/a
2165963	PROB	n/a	LTP275	ltpFR	10	n/a	n/a	n/a	n/a	n/a	n/a	11	3	2	6	n/a	n/a	n/a	n/a	n/a
2167312	PROB	n/a	LTP275	ltpFR	10	n/a	n/a	n/a	n/a	n/a	n/a	14	6	4	4	n/a	n/a	n/a	n/a	n/a
2168493	PROB	n/a	LTP275	ltpFR	10	n/a	n/a	n/a	n/a	n/a	n/a	16	7	5	4	n/a	n/a	n/a	n/a	n/a
2169791	PROB	n/a	LTP275	ltpFR	10	n/a	n/a	n/a	n/a	n/a	n/a	12	2	3	7	n/a	n/a	n/a	n/a	n/a
2171055	PROB	n/a	LTP275	ltpFR	10	n/a	n/a	n/a	n/a	n/a	n/a	9	2	6	1	n/a	n/a	n/a	n/a	n/a
2172267	STOP	n/a	LTP275	ltpFR	10	n/a	n/a	n/a	n/a	n/a	n/a	n/a	n/a	n/a	n/a	n/a	n/a	n/a	n/a	n/a
2173934	WORD	wordpools/wasnorm_wordpool_less_exclusions.txt	LTP275	ltpFR	10	8	0	DRUM	502	n/a	1	n/a	0	0	0	1	0.412841796875	0.57763671875	upper	../fonts/amplitud.ttf
2176947	START	n/a	LTP275	ltpFR	10	n/a	n/a	n/a	n/a	n/a	n/a	n/a	n/a	n/a	n/a	n/a	n/a	n/a	n/a	n/a
2177812	PROB	n/a	LTP275	ltpFR	10	n/a	n/a	n/a	n/a	n/a	n/a	22	5	9	8	n/a	n/a	n/a	n/a	n/a
2179193	PROB	n/a	LTP275	ltpFR	10	n/a	n/a	n/a	n/a	n/a	n/a	11	1	7	3	n/a	n/a	n/a	n/a	n/a
2180891	PROB	n/a	LTP275	ltpFR	10	n/a	n/a	n/a	n/a	n/a	n/a	16	2	6	8	n/a	n/a	n/a	n/a	n/a
2182056	PROB	n/a	LTP275	ltpFR	10	n/a	n/a	n/a	n/a	n/a	n/a	15	8	3	4	n/a	n/a	n/a	n/a	n/a
2183154	PROB	n/a	LTP275	ltpFR	10	n/a	n/a	n/a	n/a	n/a	n/a	6	3	2	1	n/a	n/a	n/a	n/a	n/a
2184427	STOP	n/a	LTP275	ltpFR	10	n/a	n/a	n/a	n/a	n/a	n/a	n/a	n/a	n/a	n/a	n/a	n/a	n/a	n/a	n/a
2185767	WORD	wordpools/wasnorm_wordpool_less_exclusions.txt	LTP275	ltpFR	10	8	1	SAGE	1222	n/a	1	n/a	0	0	0	0	0.5869140625	0.422607421875	lower	../fonts/zerothre.ttf
2188779	START	n/a	LTP275	ltpFR	10	n/a	n/a	n/a	n/a	n/a	n/a	n/a	n/a	n/a	n/a	n/a	n/a	n/a	n/a	n/a
2189811	PROB	n/a	LTP275	ltpFR	10	n/a	n/a	n/a	n/a	n/a	n/a	14	3	6	5	n/a	n/a	n/a	n/a	n/a
2191142	PROB	n/a	LTP275	ltpFR	10	n/a	n/a	n/a	n/a	n/a	n/a	20	7	8	5	n/a	n/a	n/a	n/a	n/a
2192458	PROB	n/a	LTP275	ltpFR	10	n/a	n/a	n/a	n/a	n/a	n/a	18	5	5	8	n/a	n/a	n/a	n/a	n/a
2194703	PROB	n/a	LTP275	ltpFR	10	n/a	n/a	n/a	n/a	n/a	n/a	20	9	5	6	n/a	n/a	n/a	n/a	n/a
2195849	STOP	n/a	LTP275	ltpFR	10	n/a	n/a	n/a	n/a	n/a	n/a	n/a	n/a	n/a	n/a	n/a	n/a	n/a	n/a	n/a
2197832	WORD	wordpools/wasnorm_wordpool_less_exclusions.txt	LTP275	ltpFR	10	8	1	HORSE	719	n/a	1	n/a	0	0	0	0	0.5869140625	0.422607421875	lower	../fonts/zerothre.ttf
2200845	START	n/a	LTP275	ltpFR	10	n/a	n/a	n/a	n/a	n/a	n/a	n/a	n/a	n/a	n/a	n/a	n/a	n/a	n/a	n/a
2201893	PROB	n/a	LTP275	ltpFR	10	n/a	n/a	n/a	n/a	n/a	n/a	14	5	4	5	n/a	n/a	n/a	n/a	n/a
2203475	PROB	n/a	LTP275	ltpFR	10	n/a	n/a	n/a	n/a	n/a	n/a	24	8	9	7	n/a	n/a	n/a	n/a	n/a
2205488	PROB	n/a	LTP275	ltpFR	10	n/a	n/a	n/a	n/a	n/a	n/a	19	7	9	3	n/a	n/a	n/a	n/a	n/a
2206852	PROB	n/a	LTP275	ltpFR	10	n/a	n/a	n/a	n/a	n/a	n/a	9	4	1	4	n/a	n/a	n/a	n/a	n/a
2208178	STOP	n/a	LTP275	ltpFR	10	n/a	n/a	n/a	n/a	n/a	n/a	n/a	n/a	n/a	n/a	n/a	n/a	n/a	n/a	n/a
2209748	WORD	wordpools/wasnorm_wordpool_less_exclusions.txt	LTP275	ltpFR	10	8	1	WAGON	1578	n/a	0	n/a	0	0	0	0	0.5869140625	0.422607421875	lower	../fonts/zerothre.ttf
2212760	START	n/a	LTP275	ltpFR	10	n/a	n/a	n/a	n/a	n/a	n/a	n/a	n/a	n/a	n/a	n/a	n/a	n/a	n/a	n/a
2213758	PROB	n/a	LTP275	ltpFR	10	n/a	n/a	n/a	n/a	n/a	n/a	22	8	9	5	n/a	n/a	n/a	n/a	n/a
2216088	PROB	n/a	LTP275	ltpFR	10	n/a	n/a	n/a	n/a	n/a	n/a	19	9	7	6	n/a	n/a	n/a	n/a	n/a
2218135	PROB	n/a	LTP275	ltpFR	10	n/a	n/a	n/a	n/a	n/a	n/a	16	9	2	5	n/a	n/a	n/a	n/a	n/a
2219826	STOP	n/a	LTP275	ltpFR	10	n/a	n/a	n/a	n/a	n/a	n/a	n/a	n/a	n/a	n/a	n/a	n/a	n/a	n/a	n/a
2221929	WORD	wordpools/wasnorm_wordpool_less_exclusions.txt	LTP275	ltpFR	10	8	1	CLOVE	329	n/a	1	n/a	0	0	0	0	0.5869140625	0.422607421875	lower	../fonts/zerothre.ttf
2224942	START	n/a	LTP275	ltpFR	10	n/a	n/a	n/a	n/a	n/a	n/a	n/a	n/a	n/a	n/a	n/a	n/a	n/a	n/a	n/a
2225874	PROB	n/a	LTP275	ltpFR	10	n/a	n/a	n/a	n/a	n/a	n/a	17	6	2	9	n/a	n/a	n/a	n/a	n/a
2227671	PROB	n/a	LTP275	ltpFR	10	n/a	n/a	n/a	n/a	n/a	n/a	12	4	3	5	n/a	n/a	n/a	n/a	n/a
2229536	PROB	n/a	LTP275	ltpFR	10	n/a	n/a	n/a	n/a	n/a	n/a	15	6	4	5	n/a	n/a	n/a	n/a	n/a
2230600	PROB	n/a	LTP275	ltpFR	10	n/a	n/a	n/a	n/a	n/a	n/a	17	1	7	9	n/a	n/a	n/a	n/a	n/a
2232738	STOP	n/a	LTP275	ltpFR	10	n/a	n/a	n/a	n/a	n/a	n/a	n/a	n/a	n/a	n/a	n/a	n/a	n/a	n/a	n/a
2234061	WORD	wordpools/wasnorm_wordpool_less_exclusions.txt	LTP275	ltpFR	10	8	0	GUITAR	670	n/a	1	n/a	0	0	0	1	0.412841796875	0.57763671875	upper	../fonts/amplitud.ttf
2237074	START	n/a	LTP275	ltpFR	10	n/a	n/a	n/a	n/a	n/a	n/a	n/a	n/a	n/a	n/a	n/a	n/a	n/a	n/a	n/a
2238139	PROB	n/a	LTP275	ltpFR	10	n/a	n/a	n/a	n/a	n/a	n/a	13	5	1	7	n/a	n/a	n/a	n/a	n/a
2239504	PROB	n/a	LTP275	ltpFR	10	n/a	n/a	n/a	n/a	n/a	n/a	15	3	8	7	n/a	n/a	n/a	n/a	n/a
2240901	PROB	n/a	LTP275	ltpFR	10	n/a	n/a	n/a	n/a	n/a	n/a	7	1	2	4	n/a	n/a	n/a	n/a	n/a
2242533	PROB	n/a	LTP275	ltpFR	10	n/a	n/a	n/a	n/a	n/a	n/a	9	1	7	1	n/a	n/a	n/a	n/a	n/a
2243610	STOP	n/a	LTP275	ltpFR	10	n/a	n/a	n/a	n/a	n/a	n/a	n/a	n/a	n/a	n/a	n/a	n/a	n/a	n/a	n/a
2245977	WORD	wordpools/wasnorm_wordpool_less_exclusions.txt	LTP275	ltpFR	10	8	0	RIVER	1194	n/a	1	n/a	0	0	0	1	0.412841796875	0.57763671875	upper	../fonts/amplitud.ttf
2248989	START	n/a	LTP275	ltpFR	10	n/a	n/a	n/a	n/a	n/a	n/a	n/a	n/a	n/a	n/a	n/a	n/a	n/a	n/a	n/a
2249838	PROB	n/a	LTP275	ltpFR	10	n/a	n/a	n/a	n/a	n/a	n/a	19	9	3	7	n/a	n/a	n/a	n/a	n/a
2252101	PROB	n/a	LTP275	ltpFR	10	n/a	n/a	n/a	n/a	n/a	n/a	16	5	4	7	n/a	n/a	n/a	n/a	n/a
2253567	PROB	n/a	LTP275	ltpFR	10	n/a	n/a	n/a	n/a	n/a	n/a	8	2	2	4	n/a	n/a	n/a	n/a	n/a
2254714	PROB	n/a	LTP275	ltpFR	10	n/a	n/a	n/a	n/a	n/a	n/a	22	8	9	5	n/a	n/a	n/a	n/a	n/a
2256202	STOP	n/a	LTP275	ltpFR	10	n/a	n/a	n/a	n/a	n/a	n/a	n/a	n/a	n/a	n/a	n/a	n/a	n/a	n/a	n/a
2258858	REC_START	n/a	LTP275	ltpFR	10	8	n/a	n/a	n/a	n/a	n/a	n/a	0	0	0	n/a	n/a	n/a	n/a	n/a
2261597	REC_WORD	wordpools/wasnorm_wordpool_less_exclusions.txt	LTP275	ltpFR	10	8	0	BIOLOGIST	128	n/a	1	n/a	0	0	0	n/a	n/a	n/a	n/a	n/a
2263170	REC_WORD	wordpools/wasnorm_wordpool_less_exclusions.txt	LTP275	ltpFR	10	8	0	DRUM	502	n/a	1	n/a	0	0	0	n/a	n/a	n/a	n/a	n/a
2263959	REC_WORD	wordpools/wasnorm_wordpool_less_exclusions.txt	LTP275	ltpFR	10	8	0	GUITAR	670	n/a	1	n/a	0	0	0	n/a	n/a	n/a	n/a	n/a
2265287	REC_WORD	wordpools/wasnorm_wordpool_less_exclusions.txt	LTP275	ltpFR	10	8	1	HAM	678	n/a	0	n/a	0	0	0	n/a	n/a	n/a	n/a	n/a
2266276	REC_WORD	wordpools/wasnorm_wordpool_less_exclusions.txt	LTP275	ltpFR	10	8	1	CHEDDAR	286	n/a	0	n/a	0	0	0	n/a	n/a	n/a	n/a	n/a
2267465	REC_WORD	wordpools/wasnorm_wordpool_less_exclusions.txt	LTP275	ltpFR	10	8	1	CLOVE	329	n/a	1	n/a	0	0	0	n/a	n/a	n/a	n/a	n/a
2268410	REC_WORD	wordpools/wasnorm_wordpool_less_exclusions.txt	LTP275	ltpFR	10	8	1	SAGE	1222	n/a	1	n/a	0	0	0	n/a	n/a	n/a	n/a	n/a
2271746	REC_WORD	wordpools/wasnorm_wordpool_less_exclusions.txt	LTP275	ltpFR	10	8	1	SINK	1309	n/a	0	n/a	0	0	0	n/a	n/a	n/a	n/a	n/a
2272871	REC_WORD	wordpools/wasnorm_wordpool_less_exclusions.txt	LTP275	ltpFR	10	8	1	DEODORANT	448	n/a	0	n/a	0	0	0	n/a	n/a	n/a	n/a	n/a
2275233	REC_WORD	wordpools/wasnorm_wordpool_less_exclusions.txt	LTP275	ltpFR	10	8	0	MOOSE	915	n/a	1	n/a	0	0	0	n/a	n/a	n/a	n/a	n/a
2275967	REC_WORD	wordpools/wasnorm_wordpool_less_exclusions.txt	LTP275	ltpFR	10	8	0	NET	946	n/a	1	n/a	0	0	0	n/a	n/a	n/a	n/a	n/a
2279325	REC_WORD	wordpools/wasnorm_wordpool_less_exclusions.txt	LTP275	ltpFR	10	8	1	HORSE	719	n/a	1	n/a	0	0	0	n/a	n/a	n/a	n/a	n/a
2280116	REC_WORD	wordpools/wasnorm_wordpool_less_exclusions.txt	LTP275	ltpFR	10	8	0	SHARK	1275	n/a	1	n/a	0	0	0	n/a	n/a	n/a	n/a	n/a
2280943	REC_WORD	wordpools/wasnorm_wordpool_less_exclusions.txt	LTP275	ltpFR	10	8	0	MOSQUITO	917	n/a	0	n/a	0	0	0	n/a	n/a	n/a	n/a	n/a
2288303	REC_WORD	wordpools/wasnorm_wordpool_less_exclusions.txt	LTP275	ltpFR	10	8	0	RIVER	1194	n/a	1	n/a	0	0	0	n/a	n/a	n/a	n/a	n/a
2294717	REC_WORD	wordpools/wasnorm_wordpool_less_exclusions.txt	LTP275	ltpFR	10	8	1	WAGON	1578	n/a	0	n/a	0	0	0	n/a	n/a	n/a	n/a	n/a
2341469	START	n/a	LTP275	ltpFR	10	n/a	n/a	n/a	n/a	n/a	n/a	n/a	n/a	n/a	n/a	n/a	n/a	n/a	n/a	n/a
2342982	PROB	n/a	LTP275	ltpFR	10	n/a	n/a	n/a	n/a	n/a	n/a	17	7	2	8	n/a	n/a	n/a	n/a	n/a
2344713	PROB	n/a	LTP275	ltpFR	10	n/a	n/a	n/a	n/a	n/a	n/a	17	9	5	3	n/a	n/a	n/a	n/a	n/a
2346544	PROB	n/a	LTP275	ltpFR	10	n/a	n/a	n/a	n/a	n/a	n/a	17	2	8	7	n/a	n/a	n/a	n/a	n/a
2347858	PROB	n/a	LTP275	ltpFR	10	n/a	n/a	n/a	n/a	n/a	n/a	16	7	4	5	n/a	n/a	n/a	n/a	n/a
2349207	PROB	n/a	LTP275	ltpFR	10	n/a	n/a	n/a	n/a	n/a	n/a	15	4	5	6	n/a	n/a	n/a	n/a	n/a
2350505	PROB	n/a	LTP275	ltpFR	10	n/a	n/a	n/a	n/a	n/a	n/a	8	3	1	4	n/a	n/a	n/a	n/a	n/a
2352118	PROB	n/a	LTP275	ltpFR	10	n/a	n/a	n/a	n/a	n/a	n/a	14	5	3	6	n/a	n/a	n/a	n/a	n/a
2353616	PROB	n/a	LTP275	ltpFR	10	n/a	n/a	n/a	n/a	n/a	n/a	18	4	7	7	n/a	n/a	n/a	n/a	n/a
2355114	PROB	n/a	LTP275	ltpFR	10	n/a	n/a	n/a	n/a	n/a	n/a	14	6	2	6	n/a	n/a	n/a	n/a	n/a
2356642	STOP	n/a	LTP275	ltpFR	10	n/a	n/a	n/a	n/a	n/a	n/a	n/a	n/a	n/a	n/a	n/a	n/a	n/a	n/a	n/a
2358293	WORD	wordpools/wasnorm_wordpool_less_exclusions.txt	LTP275	ltpFR	10	9	1	SWING	1421	n/a	0	n/a	0	0	0	0	0.5869140625	0.422607421875	lower	../fonts/zerothre.ttf
2361306	START	n/a	LTP275	ltpFR	10	n/a	n/a	n/a	n/a	n/a	n/a	n/a	n/a	n/a	n/a	n/a	n/a	n/a	n/a	n/a
2362287	PROB	n/a	LTP275	ltpFR	10	n/a	n/a	n/a	n/a	n/a	n/a	13	1	4	9	n/a	n/a	n/a	n/a	n/a
2363651	PROB	n/a	LTP275	ltpFR	10	n/a	n/a	n/a	n/a	n/a	n/a	9	4	3	2	n/a	n/a	n/a	n/a	n/a
2364866	PROB	n/a	LTP275	ltpFR	10	n/a	n/a	n/a	n/a	n/a	n/a	16	8	1	7	n/a	n/a	n/a	n/a	n/a
2366498	PROB	n/a	LTP275	ltpFR	10	n/a	n/a	n/a	n/a	n/a	n/a	16	1	6	9	n/a	n/a	n/a	n/a	n/a
2368061	PROB	n/a	LTP275	ltpFR	10	n/a	n/a	n/a	n/a	n/a	n/a	17	9	6	2	n/a	n/a	n/a	n/a	n/a
2370058	PROB	n/a	LTP275	ltpFR	10	n/a	n/a	n/a	n/a	n/a	n/a	19	7	6	6	n/a	n/a	n/a	n/a	n/a
2371474	PROB	n/a	LTP275	ltpFR	10	n/a	n/a	n/a	n/a	n/a	n/a	12	1	4	7	n/a	n/a	n/a	n/a	n/a
2372604	PROB	n/a	LTP275	ltpFR	10	n/a	n/a	n/a	n/a	n/a	n/a	22	6	9	5	n/a	n/a	n/a	n/a	n/a
2374185	PROB	n/a	LTP275	ltpFR	10	n/a	n/a	n/a	n/a	n/a	n/a	20	6	6	8	n/a	n/a	n/a	n/a	n/a
2376826	STOP	n/a	LTP275	ltpFR	10	n/a	n/a	n/a	n/a	n/a	n/a	n/a	n/a	n/a	n/a	n/a	n/a	n/a	n/a	n/a
2378430	WORD	wordpools/wasnorm_wordpool_less_exclusions.txt	LTP275	ltpFR	10	9	1	DYNAMITE	511	n/a	0	n/a	0	0	0	0	0.5869140625	0.422607421875	lower	../fonts/zerothre.ttf
2381443	START	n/a	LTP275	ltpFR	10	n/a	n/a	n/a	n/a	n/a	n/a	n/a	n/a	n/a	n/a	n/a	n/a	n/a	n/a	n/a
2382357	PROB	n/a	LTP275	ltpFR	10	n/a	n/a	n/a	n/a	n/a	n/a	10	6	3	1	n/a	n/a	n/a	n/a	n/a
2383771	PROB	n/a	LTP275	ltpFR	10	n/a	n/a	n/a	n/a	n/a	n/a	17	1	8	8	n/a	n/a	n/a	n/a	n/a
2385353	PROB	n/a	LTP275	ltpFR	10	n/a	n/a	n/a	n/a	n/a	n/a	16	9	6	1	n/a	n/a	n/a	n/a	n/a
2386866	PROB	n/a	LTP275	ltpFR	10	n/a	n/a	n/a	n/a	n/a	n/a	9	1	7	1	n/a	n/a	n/a	n/a	n/a
2388565	PROB	n/a	LTP275	ltpFR	10	n/a	n/a	n/a	n/a	n/a	n/a	10	6	3	1	n/a	n/a	n/a	n/a	n/a
2389879	PROB	n/a	LTP275	ltpFR	10	n/a	n/a	n/a	n/a	n/a	n/a	8	1	5	2	n/a	n/a	n/a	n/a	n/a
2391143	PROB	n/a	LTP275	ltpFR	10	n/a	n/a	n/a	n/a	n/a	n/a	8	1	5	2	n/a	n/a	n/a	n/a	n/a
2392276	PROB	n/a	LTP275	ltpFR	10	n/a	n/a	n/a	n/a	n/a	n/a	19	6	9	4	n/a	n/a	n/a	n/a	n/a
2394039	PROB	n/a	LTP275	ltpFR	10	n/a	n/a	n/a	n/a	n/a	n/a	11	6	2	3	n/a	n/a	n/a	n/a	n/a
2395338	PROB	n/a	LTP275	ltpFR	10	n/a	n/a	n/a	n/a	n/a	n/a	7	2	2	3	n/a	n/a	n/a	n/a	n/a
2396555	STOP	n/a	LTP275	ltpFR	10	n/a	n/a	n/a	n/a	n/a	n/a	n/a	n/a	n/a	n/a	n/a	n/a	n/a	n/a	n/a
2398616	WORD	wordpools/wasnorm_wordpool_less_exclusions.txt	LTP275	ltpFR	10	9	1	DRAGON	492	n/a	1	n/a	0	0	0	0	0.5869140625	0.422607421875	lower	../fonts/zerothre.ttf
2401628	START	n/a	LTP275	ltpFR	10	n/a	n/a	n/a	n/a	n/a	n/a	n/a	n/a	n/a	n/a	n/a	n/a	n/a	n/a	n/a
2402593	PROB	n/a	LTP275	ltpFR	10	n/a	n/a	n/a	n/a	n/a	n/a	17	6	2	9	n/a	n/a	n/a	n/a	n/a
2404823	PROB	n/a	LTP275	ltpFR	10	n/a	n/a	n/a	n/a	n/a	n/a	17	8	8	1	n/a	n/a	n/a	n/a	n/a
2406171	PROB	n/a	LTP275	ltpFR	10	n/a	n/a	n/a	n/a	n/a	n/a	17	5	6	6	n/a	n/a	n/a	n/a	n/a
2407635	PROB	n/a	LTP275	ltpFR	10	n/a	n/a	n/a	n/a	n/a	n/a	12	4	2	6	n/a	n/a	n/a	n/a	n/a
2409167	PROB	n/a	LTP275	ltpFR	10	n/a	n/a	n/a	n/a	n/a	n/a	20	6	7	7	n/a	n/a	n/a	n/a	n/a
2412562	PROB	n/a	LTP275	ltpFR	10	n/a	n/a	n/a	n/a	n/a	n/a	23	7	8	9	n/a	n/a	n/a	n/a	n/a
2413876	PROB	n/a	LTP275	ltpFR	10	n/a	n/a	n/a	n/a	n/a	n/a	13	2	4	7	n/a	n/a	n/a	n/a	n/a
2415890	PROB	n/a	LTP275	ltpFR	10	n/a	n/a	n/a	n/a	n/a	n/a	17	3	7	7	n/a	n/a	n/a	n/a	n/a
2417058	STOP	n/a	LTP275	ltpFR	10	n/a	n/a	n/a	n/a	n/a	n/a	n/a	n/a	n/a	n/a	n/a	n/a	n/a	n/a	n/a
2418553	WORD	wordpools/wasnorm_wordpool_less_exclusions.txt	LTP275	ltpFR	10	9	1	OPERATOR	979	n/a	1	n/a	0	0	0	0	0.5869140625	0.422607421875	lower	../fonts/zerothre.ttf
2421566	START	n/a	LTP275	ltpFR	10	n/a	n/a	n/a	n/a	n/a	n/a	n/a	n/a	n/a	n/a	n/a	n/a	n/a	n/a	n/a
2422696	PROB	n/a	LTP275	ltpFR	10	n/a	n/a	n/a	n/a	n/a	n/a	22	9	7	6	n/a	n/a	n/a	n/a	n/a
2424693	PROB	n/a	LTP275	ltpFR	10	n/a	n/a	n/a	n/a	n/a	n/a	17	8	6	3	n/a	n/a	n/a	n/a	n/a
2426275	PROB	n/a	LTP275	ltpFR	10	n/a	n/a	n/a	n/a	n/a	n/a	13	2	4	7	n/a	n/a	n/a	n/a	n/a
2428920	PROB	n/a	LTP275	ltpFR	10	n/a	n/a	n/a	n/a	n/a	n/a	13	3	5	5	n/a	n/a	n/a	n/a	n/a
2430386	PROB	n/a	LTP275	ltpFR	10	n/a	n/a	n/a	n/a	n/a	n/a	18	5	4	9	n/a	n/a	n/a	n/a	n/a
2431783	PROB	n/a	LTP275	ltpFR	10	n/a	n/a	n/a	n/a	n/a	n/a	15	5	7	3	n/a	n/a	n/a	n/a	n/a
2433164	PROB	n/a	LTP275	ltpFR	10	n/a	n/a	n/a	n/a	n/a	n/a	6	3	2	1	n/a	n/a	n/a	n/a	n/a
2435843	PROB	n/a	LTP275	ltpFR	10	n/a	n/a	n/a	n/a	n/a	n/a	11	1	4	6	n/a	n/a	n/a	n/a	n/a
2437130	STOP	n/a	LTP275	ltpFR	10	n/a	n/a	n/a	n/a	n/a	n/a	n/a	n/a	n/a	n/a	n/a	n/a	n/a	n/a	n/a
2438772	WORD	wordpools/wasnorm_wordpool_less_exclusions.txt	LTP275	ltpFR	10	9	1	VESSEL	1558	n/a	0	n/a	0	0	0	0	0.5869140625	0.422607421875	lower	../fonts/zerothre.ttf
2441785	START	n/a	LTP275	ltpFR	10	n/a	n/a	n/a	n/a	n/a	n/a	n/a	n/a	n/a	n/a	n/a	n/a	n/a	n/a	n/a
2442949	PROB	n/a	LTP275	ltpFR	10	n/a	n/a	n/a	n/a	n/a	n/a	18	4	5	9	n/a	n/a	n/a	n/a	n/a
2444548	PROB	n/a	LTP275	ltpFR	10	n/a	n/a	n/a	n/a	n/a	n/a	13	1	4	8	n/a	n/a	n/a	n/a	n/a
2445912	PROB	n/a	LTP275	ltpFR	10	n/a	n/a	n/a	n/a	n/a	n/a	12	2	6	4	n/a	n/a	n/a	n/a	n/a
2447592	PROB	n/a	LTP275	ltpFR	10	n/a	n/a	n/a	n/a	n/a	n/a	16	9	4	3	n/a	n/a	n/a	n/a	n/a
2449258	PROB	n/a	LTP275	ltpFR	10	n/a	n/a	n/a	n/a	n/a	n/a	21	9	2	9	n/a	n/a	n/a	n/a	n/a
2451087	PROB	n/a	LTP275	ltpFR	10	n/a	n/a	n/a	n/a	n/a	n/a	7	1	4	2	n/a	n/a	n/a	n/a	n/a
2453252	PROB	n/a	LTP275	ltpFR	10	n/a	n/a	n/a	n/a	n/a	n/a	9	2	2	5	n/a	n/a	n/a	n/a	n/a
2454433	PROB	n/a	LTP275	ltpFR	10	n/a	n/a	n/a	n/a	n/a	n/a	12	4	3	5	n/a	n/a	n/a	n/a	n/a
2455565	PROB	n/a	LTP275	ltpFR	10	n/a	n/a	n/a	n/a	n/a	n/a	25	9	9	7	n/a	n/a	n/a	n/a	n/a
2457419	STOP	n/a	LTP275	ltpFR	10	n/a	n/a	n/a	n/a	n/a	n/a	n/a	n/a	n/a	n/a	n/a	n/a	n/a	n/a	n/a
2458643	WORD	wordpools/wasnorm_wordpool_less_exclusions.txt	LTP275	ltpFR	10	9	1	MULE	931	n/a	1	n/a	0	0	0	0	0.5869140625	0.422607421875	lower	../fonts/zerothre.ttf
2461655	START	n/a	LTP275	ltpFR	10	n/a	n/a	n/a	n/a	n/a	n/a	n/a	n/a	n/a	n/a	n/a	n/a	n/a	n/a	n/a
2462637	PROB	n/a	LTP275	ltpFR	10	n/a	n/a	n/a	n/a	n/a	n/a	18	3	6	9	n/a	n/a	n/a	n/a	n/a
2464001	PROB	n/a	LTP275	ltpFR	10	n/a	n/a	n/a	n/a	n/a	n/a	14	4	2	8	n/a	n/a	n/a	n/a	n/a
2465517	PROB	n/a	LTP275	ltpFR	10	n/a	n/a	n/a	n/a	n/a	n/a	10	1	7	2	n/a	n/a	n/a	n/a	n/a
2466980	PROB	n/a	LTP275	ltpFR	10	n/a	n/a	n/a	n/a	n/a	n/a	14	9	3	2	n/a	n/a	n/a	n/a	n/a
2468213	PROB	n/a	LTP275	ltpFR	10	n/a	n/a	n/a	n/a	n/a	n/a	25	8	8	9	n/a	n/a	n/a	n/a	n/a
2469976	PROB	n/a	LTP275	ltpFR	10	n/a	n/a	n/a	n/a	n/a	n/a	25	9	7	9	n/a	n/a	n/a	n/a	n/a
2472905	PROB	n/a	LTP275	ltpFR	10	n/a	n/a	n/a	n/a	n/a	n/a	11	1	3	7	n/a	n/a	n/a	n/a	n/a
2474086	PROB	n/a	LTP275	ltpFR	10	n/a	n/a	n/a	n/a	n/a	n/a	20	8	8	6	n/a	n/a	n/a	n/a	n/a
2475419	PROB	n/a	LTP275	ltpFR	10	n/a	n/a	n/a	n/a	n/a	n/a	16	6	9	1	n/a	n/a	n/a	n/a	n/a
2477443	STOP	n/a	LTP275	ltpFR	10	n/a	n/a	n/a	n/a	n/a	n/a	n/a	n/a	n/a	n/a	n/a	n/a	n/a	n/a	n/a
2478663	WORD	wordpools/wasnorm_wordpool_less_exclusions.txt	LTP275	ltpFR	10	9	1	DONKEY	484	n/a	1	n/a	0	0	0	0	0.5869140625	0.422607421875	lower	../fonts/zerothre.ttf
2481675	START	n/a	LTP275	ltpFR	10	n/a	n/a	n/a	n/a	n/a	n/a	n/a	n/a	n/a	n/a	n/a	n/a	n/a	n/a	n/a
2482806	PROB	n/a	LTP275	ltpFR	10	n/a	n/a	n/a	n/a	n/a	n/a	13	3	8	2	n/a	n/a	n/a	n/a	n/a
2484472	PROB	n/a	LTP275	ltpFR	10	n/a	n/a	n/a	n/a	n/a	n/a	21	7	8	6	n/a	n/a	n/a	n/a	n/a
2485802	PROB	n/a	LTP275	ltpFR	10	n/a	n/a	n/a	n/a	n/a	n/a	6	3	2	1	n/a	n/a	n/a	n/a	n/a
2487100	PROB	n/a	LTP275	ltpFR	10	n/a	n/a	n/a	n/a	n/a	n/a	15	6	2	7	n/a	n/a	n/a	n/a	n/a
2488366	PROB	n/a	LTP275	ltpFR	10	n/a	n/a	n/a	n/a	n/a	n/a	18	7	3	8	n/a	n/a	n/a	n/a	n/a
2489646	PROB	n/a	LTP275	ltpFR	10	n/a	n/a	n/a	n/a	n/a	n/a	18	5	4	9	n/a	n/a	n/a	n/a	n/a
2491693	PROB	n/a	LTP275	ltpFR	10	n/a	n/a	n/a	n/a	n/a	n/a	15	5	6	4	n/a	n/a	n/a	n/a	n/a
2492975	PROB	n/a	LTP275	ltpFR	10	n/a	n/a	n/a	n/a	n/a	n/a	12	2	9	1	n/a	n/a	n/a	n/a	n/a
2494689	PROB	n/a	LTP275	ltpFR	10	n/a	n/a	n/a	n/a	n/a	n/a	15	4	2	9	n/a	n/a	n/a	n/a	n/a
2497675	STOP	n/a	LTP275	ltpFR	10	n/a	n/a	n/a	n/a	n/a	n/a	n/a	n/a	n/a	n/a	n/a	n/a	n/a	n/a	n/a
2498501	WORD	wordpools/wasnorm_wordpool_less_exclusions.txt	LTP275	ltpFR	10	9	1	TWINE	1529	n/a	0	n/a	0	0	0	0	0.5869140625	0.422607421875	lower	../fonts/zerothre.ttf
2501513	START	n/a	LTP275	ltpFR	10	n/a	n/a	n/a	n/a	n/a	n/a	n/a	n/a	n/a	n/a	n/a	n/a	n/a	n/a	n/a
2502644	PROB	n/a	LTP275	ltpFR	10	n/a	n/a	n/a	n/a	n/a	n/a	8	2	4	2	n/a	n/a	n/a	n/a	n/a
2504141	PROB	n/a	LTP275	ltpFR	10	n/a	n/a	n/a	n/a	n/a	n/a	15	9	4	2	n/a	n/a	n/a	n/a	n/a
2505689	PROB	n/a	LTP275	ltpFR	10	n/a	n/a	n/a	n/a	n/a	n/a	9	1	3	5	n/a	n/a	n/a	n/a	n/a
2507238	PROB	n/a	LTP275	ltpFR	10	n/a	n/a	n/a	n/a	n/a	n/a	14	7	1	6	n/a	n/a	n/a	n/a	n/a
2508951	PROB	n/a	LTP275	ltpFR	10	n/a	n/a	n/a	n/a	n/a	n/a	12	8	1	3	n/a	n/a	n/a	n/a	n/a
2511014	PROB	n/a	LTP275	ltpFR	10	n/a	n/a	n/a	n/a	n/a	n/a	22	7	7	8	n/a	n/a	n/a	n/a	n/a
2512330	PROB	n/a	LTP275	ltpFR	10	n/a	n/a	n/a	n/a	n/a	n/a	13	9	3	1	n/a	n/a	n/a	n/a	n/a
2513927	PROB	n/a	LTP275	ltpFR	10	n/a	n/a	n/a	n/a	n/a	n/a	15	5	5	5	n/a	n/a	n/a	n/a	n/a
2514958	PROB	n/a	LTP275	ltpFR	10	n/a	n/a	n/a	n/a	n/a	n/a	11	1	5	5	n/a	n/a	n/a	n/a	n/a
2516154	STOP	n/a	LTP275	ltpFR	10	n/a	n/a	n/a	n/a	n/a	n/a	n/a	n/a	n/a	n/a	n/a	n/a	n/a	n/a	n/a
2518504	WORD	wordpools/wasnorm_wordpool_less_exclusions.txt	LTP275	ltpFR	10	9	1	NECK	939	n/a	1	n/a	0	0	0	0	0.5869140625	0.422607421875	lower	../fonts/zerothre.ttf
2521517	START	n/a	LTP275	ltpFR	10	n/a	n/a	n/a	n/a	n/a	n/a	n/a	n/a	n/a	n/a	n/a	n/a	n/a	n/a	n/a
2522365	PROB	n/a	LTP275	ltpFR	10	n/a	n/a	n/a	n/a	n/a	n/a	17	6	8	3	n/a	n/a	n/a	n/a	n/a
2524095	PROB	n/a	LTP275	ltpFR	10	n/a	n/a	n/a	n/a	n/a	n/a	13	2	8	3	n/a	n/a	n/a	n/a	n/a
2525327	PROB	n/a	LTP275	ltpFR	10	n/a	n/a	n/a	n/a	n/a	n/a	21	5	9	7	n/a	n/a	n/a	n/a	n/a
2527823	PROB	n/a	LTP275	ltpFR	10	n/a	n/a	n/a	n/a	n/a	n/a	15	4	9	2	n/a	n/a	n/a	n/a	n/a
2529154	PROB	n/a	LTP275	ltpFR	10	n/a	n/a	n/a	n/a	n/a	n/a	14	5	2	7	n/a	n/a	n/a	n/a	n/a
2530403	PROB	n/a	LTP275	ltpFR	10	n/a	n/a	n/a	n/a	n/a	n/a	16	9	5	2	n/a	n/a	n/a	n/a	n/a
2532649	PROB	n/a	LTP275	ltpFR	10	n/a	n/a	n/a	n/a	n/a	n/a	6	3	1	2	n/a	n/a	n/a	n/a	n/a
2535029	PROB	n/a	LTP275	ltpFR	10	n/a	n/a	n/a	n/a	n/a	n/a	13	4	4	5	n/a	n/a	n/a	n/a	n/a
2536331	STOP	n/a	LTP275	ltpFR	10	n/a	n/a	n/a	n/a	n/a	n/a	n/a	n/a	n/a	n/a	n/a	n/a	n/a	n/a	n/a
2538606	WORD	wordpools/wasnorm_wordpool_less_exclusions.txt	LTP275	ltpFR	10	9	1	WHISKERS	1605	n/a	1	n/a	0	0	0	0	0.5869140625	0.422607421875	lower	../fonts/zerothre.ttf
2541619	START	n/a	LTP275	ltpFR	10	n/a	n/a	n/a	n/a	n/a	n/a	n/a	n/a	n/a	n/a	n/a	n/a	n/a	n/a	n/a
2542667	PROB	n/a	LTP275	ltpFR	10	n/a	n/a	n/a	n/a	n/a	n/a	20	3	8	9	n/a	n/a	n/a	n/a	n/a
2544249	PROB	n/a	LTP275	ltpFR	10	n/a	n/a	n/a	n/a	n/a	n/a	7	1	1	5	n/a	n/a	n/a	n/a	n/a
2545381	PROB	n/a	LTP275	ltpFR	10	n/a	n/a	n/a	n/a	n/a	n/a	16	7	7	2	n/a	n/a	n/a	n/a	n/a
2546611	PROB	n/a	LTP275	ltpFR	10	n/a	n/a	n/a	n/a	n/a	n/a	17	5	3	9	n/a	n/a	n/a	n/a	n/a
2547943	PROB	n/a	LTP275	ltpFR	10	n/a	n/a	n/a	n/a	n/a	n/a	13	1	8	5	n/a	n/a	n/a	n/a	n/a
2549425	PROB	n/a	LTP275	ltpFR	10	n/a	n/a	n/a	n/a	n/a	n/a	13	5	7	1	n/a	n/a	n/a	n/a	n/a
2550905	PROB	n/a	LTP275	ltpFR	10	n/a	n/a	n/a	n/a	n/a	n/a	15	3	5	7	n/a	n/a	n/a	n/a	n/a
2552619	PROB	n/a	LTP275	ltpFR	10	n/a	n/a	n/a	n/a	n/a	n/a	20	5	9	6	n/a	n/a	n/a	n/a	n/a
2553984	PROB	n/a	LTP275	ltpFR	10	n/a	n/a	n/a	n/a	n/a	n/a	21	6	9	6	n/a	n/a	n/a	n/a	n/a
2556435	STOP	n/a	LTP275	ltpFR	10	n/a	n/a	n/a	n/a	n/a	n/a	n/a	n/a	n/a	n/a	n/a	n/a	n/a	n/a	n/a
2558760	WORD	wordpools/wasnorm_wordpool_less_exclusions.txt	LTP275	ltpFR	10	9	1	ELECTRICIAN	521	n/a	1	n/a	0	0	0	0	0.5869140625	0.422607421875	lower	../fonts/zerothre.ttf
2561772	START	n/a	LTP275	ltpFR	10	n/a	n/a	n/a	n/a	n/a	n/a	n/a	n/a	n/a	n/a	n/a	n/a	n/a	n/a	n/a
2562953	PROB	n/a	LTP275	ltpFR	10	n/a	n/a	n/a	n/a	n/a	n/a	15	1	9	5	n/a	n/a	n/a	n/a	n/a
2564236	PROB	n/a	LTP275	ltpFR	10	n/a	n/a	n/a	n/a	n/a	n/a	16	6	7	3	n/a	n/a	n/a	n/a	n/a
2565616	PROB	n/a	LTP275	ltpFR	10	n/a	n/a	n/a	n/a	n/a	n/a	23	7	9	9	n/a	n/a	n/a	n/a	n/a
2567448	PROB	n/a	LTP275	ltpFR	10	n/a	n/a	n/a	n/a	n/a	n/a	15	7	2	6	n/a	n/a	n/a	n/a	n/a
2568678	PROB	n/a	LTP275	ltpFR	10	n/a	n/a	n/a	n/a	n/a	n/a	9	6	2	1	n/a	n/a	n/a	n/a	n/a
2569877	PROB	n/a	LTP275	ltpFR	10	n/a	n/a	n/a	n/a	n/a	n/a	15	4	2	9	n/a	n/a	n/a	n/a	n/a
2571108	PROB	n/a	LTP275	ltpFR	10	n/a	n/a	n/a	n/a	n/a	n/a	13	6	3	5	n/a	n/a	n/a	n/a	n/a
2572507	PROB	n/a	LTP275	ltpFR	10	n/a	n/a	n/a	n/a	n/a	n/a	20	8	8	4	n/a	n/a	n/a	n/a	n/a
2574120	PROB	n/a	LTP275	ltpFR	10	n/a	n/a	n/a	n/a	n/a	n/a	19	6	5	8	n/a	n/a	n/a	n/a	n/a
2575486	PROB	n/a	LTP275	ltpFR	10	n/a	n/a	n/a	n/a	n/a	n/a	19	2	8	9	n/a	n/a	n/a	n/a	n/a
2576666	STOP	n/a	LTP275	ltpFR	10	n/a	n/a	n/a	n/a	n/a	n/a	n/a	n/a	n/a	n/a	n/a	n/a	n/a	n/a	n/a
2578597	WORD	wordpools/wasnorm_wordpool_less_exclusions.txt	LTP275	ltpFR	10	9	1	YACHT	1629	n/a	0	n/a	0	0	0	0	0.5869140625	0.422607421875	lower	../fonts/zerothre.ttf
2581609	START	n/a	LTP275	ltpFR	10	n/a	n/a	n/a	n/a	n/a	n/a	n/a	n/a	n/a	n/a	n/a	n/a	n/a	n/a	n/a
2582790	PROB	n/a	LTP275	ltpFR	10	n/a	n/a	n/a	n/a	n/a	n/a	5	1	2	2	n/a	n/a	n/a	n/a	n/a
2583822	PROB	n/a	LTP275	ltpFR	10	n/a	n/a	n/a	n/a	n/a	n/a	8	1	1	6	n/a	n/a	n/a	n/a	n/a
2585087	PROB	n/a	LTP275	ltpFR	10	n/a	n/a	n/a	n/a	n/a	n/a	15	4	7	4	n/a	n/a	n/a	n/a	n/a
2586253	PROB	n/a	LTP275	ltpFR	10	n/a	n/a	n/a	n/a	n/a	n/a	18	9	6	3	n/a	n/a	n/a	n/a	n/a
2587518	PROB	n/a	LTP275	ltpFR	10	n/a	n/a	n/a	n/a	n/a	n/a	13	1	8	4	n/a	n/a	n/a	n/a	n/a
2588948	PROB	n/a	LTP275	ltpFR	10	n/a	n/a	n/a	n/a	n/a	n/a	16	1	8	7	n/a	n/a	n/a	n/a	n/a
2590397	PROB	n/a	LTP275	ltpFR	10	n/a	n/a	n/a	n/a	n/a	n/a	13	5	1	7	n/a	n/a	n/a	n/a	n/a
2594090	PROB	n/a	LTP275	ltpFR	10	n/a	n/a	n/a	n/a	n/a	n/a	12	3	6	3	n/a	n/a	n/a	n/a	n/a
2595621	PROB	n/a	LTP275	ltpFR	10	n/a	n/a	n/a	n/a	n/a	n/a	10	2	6	2	n/a	n/a	n/a	n/a	n/a
2596874	STOP	n/a	LTP275	ltpFR	10	n/a	n/a	n/a	n/a	n/a	n/a	n/a	n/a	n/a	n/a	n/a	n/a	n/a	n/a	n/a
2598750	WORD	wordpools/wasnorm_wordpool_less_exclusions.txt	LTP275	ltpFR	10	9	1	CLAW	319	n/a	1	n/a	0	0	0	0	0.5869140625	0.422607421875	lower	../fonts/zerothre.ttf
2601763	START	n/a	LTP275	ltpFR	10	n/a	n/a	n/a	n/a	n/a	n/a	n/a	n/a	n/a	n/a	n/a	n/a	n/a	n/a	n/a
2602811	PROB	n/a	LTP275	ltpFR	10	n/a	n/a	n/a	n/a	n/a	n/a	17	7	4	6	n/a	n/a	n/a	n/a	n/a
2604459	PROB	n/a	LTP275	ltpFR	10	n/a	n/a	n/a	n/a	n/a	n/a	19	9	1	9	n/a	n/a	n/a	n/a	n/a
2606356	PROB	n/a	LTP275	ltpFR	10	n/a	n/a	n/a	n/a	n/a	n/a	12	3	2	7	n/a	n/a	n/a	n/a	n/a
2608003	PROB	n/a	LTP275	ltpFR	10	n/a	n/a	n/a	n/a	n/a	n/a	15	8	5	2	n/a	n/a	n/a	n/a	n/a
2610450	PROB	n/a	LTP275	ltpFR	10	n/a	n/a	n/a	n/a	n/a	n/a	14	7	6	2	n/a	n/a	n/a	n/a	n/a
2612014	PROB	n/a	LTP275	ltpFR	10	n/a	n/a	n/a	n/a	n/a	n/a	13	2	5	6	n/a	n/a	n/a	n/a	n/a
2614843	PROB	n/a	LTP275	ltpFR	10	n/a	n/a	n/a	n/a	n/a	n/a	19	3	9	7	n/a	n/a	n/a	n/a	n/a
2616307	STOP	n/a	LTP275	ltpFR	10	n/a	n/a	n/a	n/a	n/a	n/a	n/a	n/a	n/a	n/a	n/a	n/a	n/a	n/a	n/a
2618787	WORD	wordpools/wasnorm_wordpool_less_exclusions.txt	LTP275	ltpFR	10	9	1	STEM	1376	n/a	1	n/a	0	0	0	0	0.5869140625	0.422607421875	lower	../fonts/zerothre.ttf
2621799	START	n/a	LTP275	ltpFR	10	n/a	n/a	n/a	n/a	n/a	n/a	n/a	n/a	n/a	n/a	n/a	n/a	n/a	n/a	n/a
2622814	PROB	n/a	LTP275	ltpFR	10	n/a	n/a	n/a	n/a	n/a	n/a	15	4	4	7	n/a	n/a	n/a	n/a	n/a
2625111	PROB	n/a	LTP275	ltpFR	10	n/a	n/a	n/a	n/a	n/a	n/a	12	2	8	2	n/a	n/a	n/a	n/a	n/a
2626293	PROB	n/a	LTP275	ltpFR	10	n/a	n/a	n/a	n/a	n/a	n/a	210	7	8	5	n/a	n/a	n/a	n/a	n/a
2628655	PROB	n/a	LTP275	ltpFR	10	n/a	n/a	n/a	n/a	n/a	n/a	5	1	4	5	n/a	n/a	n/a	n/a	n/a
