mstime	trial_type	stim_file	subject	experiment	session	trial	task	item_name	item_num	recog_conf	resp	answer	test_x	test_y	test_z	color_b	color_g	color_r	case	font
0	SESS_START	n/a	LTP145	ltpFR	13	n/a	n/a	n/a	n/a	5	n/a	n/a	0	0	0	n/a	n/a	n/a	n/a	n/a
25638	START	n/a	LTP145	ltpFR	13	n/a	n/a	n/a	n/a	n/a	n/a	n/a	n/a	n/a	n/a	n/a	n/a	n/a	n/a	n/a
25663	PROB	n/a	LTP145	ltpFR	13	n/a	n/a	n/a	n/a	n/a	n/a	22	8	6	8	n/a	n/a	n/a	n/a	n/a
29102	PROB	n/a	LTP145	ltpFR	13	n/a	n/a	n/a	n/a	n/a	n/a	15	8	5	2	n/a	n/a	n/a	n/a	n/a
30868	PROB	n/a	LTP145	ltpFR	13	n/a	n/a	n/a	n/a	n/a	n/a	16	1	7	8	n/a	n/a	n/a	n/a	n/a
32502	PROB	n/a	LTP145	ltpFR	13	n/a	n/a	n/a	n/a	n/a	n/a	16	5	2	9	n/a	n/a	n/a	n/a	n/a
35075	PROB	n/a	LTP145	ltpFR	13	n/a	n/a	n/a	n/a	n/a	n/a	14	6	3	5	n/a	n/a	n/a	n/a	n/a
37234	PROB	n/a	LTP145	ltpFR	13	n/a	n/a	n/a	n/a	n/a	n/a	14	7	6	1	n/a	n/a	n/a	n/a	n/a
38824	PROB	n/a	LTP145	ltpFR	13	n/a	n/a	n/a	n/a	n/a	n/a	15	2	7	6	n/a	n/a	n/a	n/a	n/a
40416	PROB	n/a	LTP145	ltpFR	13	n/a	n/a	n/a	n/a	n/a	n/a	13	5	1	7	n/a	n/a	n/a	n/a	n/a
42224	PROB	n/a	LTP145	ltpFR	13	n/a	n/a	n/a	n/a	n/a	n/a	11	4	4	3	n/a	n/a	n/a	n/a	n/a
44114	STOP	n/a	LTP145	ltpFR	13	n/a	n/a	n/a	n/a	n/a	n/a	n/a	n/a	n/a	n/a	n/a	n/a	n/a	n/a	n/a
65998	START	n/a	LTP145	ltpFR	13	n/a	n/a	n/a	n/a	n/a	n/a	n/a	n/a	n/a	n/a	n/a	n/a	n/a	n/a	n/a
67498	PROB	n/a	LTP145	ltpFR	13	n/a	n/a	n/a	n/a	n/a	n/a	19	5	9	5	n/a	n/a	n/a	n/a	n/a
68988	PROB	n/a	LTP145	ltpFR	13	n/a	n/a	n/a	n/a	n/a	n/a	15	5	8	2	n/a	n/a	n/a	n/a	n/a
70538	PROB	n/a	LTP145	ltpFR	13	n/a	n/a	n/a	n/a	n/a	n/a	8	1	5	2	n/a	n/a	n/a	n/a	n/a
73998	STOP	n/a	LTP145	ltpFR	13	n/a	n/a	n/a	n/a	n/a	n/a	n/a	n/a	n/a	n/a	n/a	n/a	n/a	n/a	n/a
74869	WORD	wordpools/wasnorm_wordpool.txt	LTP145	ltpFR	13	1	1	CANYON	235	n/a	0	n/a	0	0	0	0	0.5869140625	0.422607421875	upper	../fonts/amplitud.ttf
77877	START	n/a	LTP145	ltpFR	13	n/a	n/a	n/a	n/a	n/a	n/a	n/a	n/a	n/a	n/a	n/a	n/a	n/a	n/a	n/a
78926	PROB	n/a	LTP145	ltpFR	13	n/a	n/a	n/a	n/a	n/a	n/a	10	3	1	6	n/a	n/a	n/a	n/a	n/a
80593	PROB	n/a	LTP145	ltpFR	13	n/a	n/a	n/a	n/a	n/a	n/a	10	4	3	3	n/a	n/a	n/a	n/a	n/a
82601	PROB	n/a	LTP145	ltpFR	13	n/a	n/a	n/a	n/a	n/a	n/a	19	4	6	7	n/a	n/a	n/a	n/a	n/a
84451	STOP	n/a	LTP145	ltpFR	13	n/a	n/a	n/a	n/a	n/a	n/a	n/a	n/a	n/a	n/a	n/a	n/a	n/a	n/a	n/a
86698	WORD	wordpools/wasnorm_wordpool.txt	LTP145	ltpFR	13	1	1	LIP	828	n/a	0	n/a	0	0	0	0	0.5869140625	0.422607421875	upper	../fonts/amplitud.ttf
89706	START	n/a	LTP145	ltpFR	13	n/a	n/a	n/a	n/a	n/a	n/a	n/a	n/a	n/a	n/a	n/a	n/a	n/a	n/a	n/a
90673	PROB	n/a	LTP145	ltpFR	13	n/a	n/a	n/a	n/a	n/a	n/a	17	9	7	1	n/a	n/a	n/a	n/a	n/a
92264	PROB	n/a	LTP145	ltpFR	13	n/a	n/a	n/a	n/a	n/a	n/a	19	7	6	6	n/a	n/a	n/a	n/a	n/a
93912	PROB	n/a	LTP145	ltpFR	13	n/a	n/a	n/a	n/a	n/a	n/a	17	8	7	2	n/a	n/a	n/a	n/a	n/a
97705	STOP	n/a	LTP145	ltpFR	13	n/a	n/a	n/a	n/a	n/a	n/a	n/a	n/a	n/a	n/a	n/a	n/a	n/a	n/a	n/a
98836	WORD	wordpools/wasnorm_wordpool.txt	LTP145	ltpFR	13	1	1	DONKEY	484	n/a	1	n/a	0	0	0	0	0.5869140625	0.422607421875	upper	../fonts/amplitud.ttf
101843	START	n/a	LTP145	ltpFR	13	n/a	n/a	n/a	n/a	n/a	n/a	n/a	n/a	n/a	n/a	n/a	n/a	n/a	n/a	n/a
102768	PROB	n/a	LTP145	ltpFR	13	n/a	n/a	n/a	n/a	n/a	n/a	8	4	3	1	n/a	n/a	n/a	n/a	n/a
104335	PROB	n/a	LTP145	ltpFR	13	n/a	n/a	n/a	n/a	n/a	n/a	14	2	3	9	n/a	n/a	n/a	n/a	n/a
106075	PROB	n/a	LTP145	ltpFR	13	n/a	n/a	n/a	n/a	n/a	n/a	10	4	2	4	n/a	n/a	n/a	n/a	n/a
107857	PROB	n/a	LTP145	ltpFR	13	n/a	n/a	n/a	n/a	n/a	n/a	12	8	3	1	n/a	n/a	n/a	n/a	n/a
109531	STOP	n/a	LTP145	ltpFR	13	n/a	n/a	n/a	n/a	n/a	n/a	n/a	n/a	n/a	n/a	n/a	n/a	n/a	n/a	n/a
110865	WORD	wordpools/wasnorm_wordpool.txt	LTP145	ltpFR	13	1	1	MULE	931	n/a	1	n/a	0	0	0	0	0.5869140625	0.422607421875	upper	../fonts/amplitud.ttf
113872	START	n/a	LTP145	ltpFR	13	n/a	n/a	n/a	n/a	n/a	n/a	n/a	n/a	n/a	n/a	n/a	n/a	n/a	n/a	n/a
114805	PROB	n/a	LTP145	ltpFR	13	n/a	n/a	n/a	n/a	n/a	n/a	22	9	6	7	n/a	n/a	n/a	n/a	n/a
119371	PROB	n/a	LTP145	ltpFR	13	n/a	n/a	n/a	n/a	n/a	n/a	22	7	8	8	n/a	n/a	n/a	n/a	n/a
121794	STOP	n/a	LTP145	ltpFR	13	n/a	n/a	n/a	n/a	n/a	n/a	n/a	n/a	n/a	n/a	n/a	n/a	n/a	n/a	n/a
122960	WORD	wordpools/wasnorm_wordpool.txt	LTP145	ltpFR	13	1	1	DESK	452	n/a	0	n/a	0	0	0	0	0.5869140625	0.422607421875	upper	../fonts/amplitud.ttf
125968	START	n/a	LTP145	ltpFR	13	n/a	n/a	n/a	n/a	n/a	n/a	n/a	n/a	n/a	n/a	n/a	n/a	n/a	n/a	n/a
127059	PROB	n/a	LTP145	ltpFR	13	n/a	n/a	n/a	n/a	n/a	n/a	11	1	1	9	n/a	n/a	n/a	n/a	n/a
128426	PROB	n/a	LTP145	ltpFR	13	n/a	n/a	n/a	n/a	n/a	n/a	11	1	9	1	n/a	n/a	n/a	n/a	n/a
129775	PROB	n/a	LTP145	ltpFR	13	n/a	n/a	n/a	n/a	n/a	n/a	8	1	2	5	n/a	n/a	n/a	n/a	n/a
131175	PROB	n/a	LTP145	ltpFR	13	n/a	n/a	n/a	n/a	n/a	n/a	7	3	2	2	n/a	n/a	n/a	n/a	n/a
133219	STOP	n/a	LTP145	ltpFR	13	n/a	n/a	n/a	n/a	n/a	n/a	n/a	n/a	n/a	n/a	n/a	n/a	n/a	n/a	n/a
135098	WORD	wordpools/wasnorm_wordpool.txt	LTP145	ltpFR	13	1	0	CLERK	321	n/a	1	n/a	0	0	0	1	0.412841796875	0.57763671875	lower	../fonts/zerothre.ttf
138105	START	n/a	LTP145	ltpFR	13	n/a	n/a	n/a	n/a	n/a	n/a	n/a	n/a	n/a	n/a	n/a	n/a	n/a	n/a	n/a
139214	PROB	n/a	LTP145	ltpFR	13	n/a	n/a	n/a	n/a	n/a	n/a	13	3	4	6	n/a	n/a	n/a	n/a	n/a
140522	PROB	n/a	LTP145	ltpFR	13	n/a	n/a	n/a	n/a	n/a	n/a	11	7	1	3	n/a	n/a	n/a	n/a	n/a
142029	PROB	n/a	LTP145	ltpFR	13	n/a	n/a	n/a	n/a	n/a	n/a	17	8	7	2	n/a	n/a	n/a	n/a	n/a
143637	PROB	n/a	LTP145	ltpFR	13	n/a	n/a	n/a	n/a	n/a	n/a	13	9	1	3	n/a	n/a	n/a	n/a	n/a
144946	STOP	n/a	LTP145	ltpFR	13	n/a	n/a	n/a	n/a	n/a	n/a	n/a	n/a	n/a	n/a	n/a	n/a	n/a	n/a	n/a
147294	WORD	wordpools/wasnorm_wordpool.txt	LTP145	ltpFR	13	1	0	TRASH	1497	n/a	0	n/a	0	0	0	1	0.412841796875	0.57763671875	lower	../fonts/zerothre.ttf
150302	START	n/a	LTP145	ltpFR	13	n/a	n/a	n/a	n/a	n/a	n/a	n/a	n/a	n/a	n/a	n/a	n/a	n/a	n/a	n/a
151426	PROB	n/a	LTP145	ltpFR	13	n/a	n/a	n/a	n/a	n/a	n/a	12	5	2	5	n/a	n/a	n/a	n/a	n/a
152941	PROB	n/a	LTP145	ltpFR	13	n/a	n/a	n/a	n/a	n/a	n/a	14	9	1	4	n/a	n/a	n/a	n/a	n/a
154774	PROB	n/a	LTP145	ltpFR	13	n/a	n/a	n/a	n/a	n/a	n/a	13	5	4	4	n/a	n/a	n/a	n/a	n/a
157080	STOP	n/a	LTP145	ltpFR	13	n/a	n/a	n/a	n/a	n/a	n/a	n/a	n/a	n/a	n/a	n/a	n/a	n/a	n/a	n/a
159423	WORD	wordpools/wasnorm_wordpool.txt	LTP145	ltpFR	13	1	0	HOSTAGE	722	n/a	1	n/a	0	0	0	1	0.412841796875	0.57763671875	lower	../fonts/zerothre.ttf
162431	START	n/a	LTP145	ltpFR	13	n/a	n/a	n/a	n/a	n/a	n/a	n/a	n/a	n/a	n/a	n/a	n/a	n/a	n/a	n/a
163472	PROB	n/a	LTP145	ltpFR	13	n/a	n/a	n/a	n/a	n/a	n/a	16	2	6	8	n/a	n/a	n/a	n/a	n/a
164771	PROB	n/a	LTP145	ltpFR	13	n/a	n/a	n/a	n/a	n/a	n/a	17	8	1	8	n/a	n/a	n/a	n/a	n/a
166795	PROB	n/a	LTP145	ltpFR	13	n/a	n/a	n/a	n/a	n/a	n/a	13	5	3	5	n/a	n/a	n/a	n/a	n/a
168304	PROB	n/a	LTP145	ltpFR	13	n/a	n/a	n/a	n/a	n/a	n/a	9	5	3	1	n/a	n/a	n/a	n/a	n/a
170251	STOP	n/a	LTP145	ltpFR	13	n/a	n/a	n/a	n/a	n/a	n/a	n/a	n/a	n/a	n/a	n/a	n/a	n/a	n/a	n/a
171561	WORD	wordpools/wasnorm_wordpool.txt	LTP145	ltpFR	13	1	0	PHYSICIAN	1056	n/a	1	n/a	0	0	0	1	0.412841796875	0.57763671875	lower	../fonts/zerothre.ttf
174568	START	n/a	LTP145	ltpFR	13	n/a	n/a	n/a	n/a	n/a	n/a	n/a	n/a	n/a	n/a	n/a	n/a	n/a	n/a	n/a
175609	PROB	n/a	LTP145	ltpFR	13	n/a	n/a	n/a	n/a	n/a	n/a	17	2	9	6	n/a	n/a	n/a	n/a	n/a
178016	PROB	n/a	LTP145	ltpFR	13	n/a	n/a	n/a	n/a	n/a	n/a	13	2	7	4	n/a	n/a	n/a	n/a	n/a
180249	PROB	n/a	LTP145	ltpFR	13	n/a	n/a	n/a	n/a	n/a	n/a	20	8	3	9	n/a	n/a	n/a	n/a	n/a
181898	STOP	n/a	LTP145	ltpFR	13	n/a	n/a	n/a	n/a	n/a	n/a	n/a	n/a	n/a	n/a	n/a	n/a	n/a	n/a	n/a
183657	WORD	wordpools/wasnorm_wordpool.txt	LTP145	ltpFR	13	1	0	BASSINET	97	n/a	1	n/a	0	0	0	1	0.412841796875	0.57763671875	lower	../fonts/zerothre.ttf
186664	START	n/a	LTP145	ltpFR	13	n/a	n/a	n/a	n/a	n/a	n/a	n/a	n/a	n/a	n/a	n/a	n/a	n/a	n/a	n/a
187746	PROB	n/a	LTP145	ltpFR	13	n/a	n/a	n/a	n/a	n/a	n/a	12	2	6	4	n/a	n/a	n/a	n/a	n/a
188954	PROB	n/a	LTP145	ltpFR	13	n/a	n/a	n/a	n/a	n/a	n/a	9	1	5	3	n/a	n/a	n/a	n/a	n/a
190961	PROB	n/a	LTP145	ltpFR	13	n/a	n/a	n/a	n/a	n/a	n/a	5	1	2	2	n/a	n/a	n/a	n/a	n/a
192078	PROB	n/a	LTP145	ltpFR	13	n/a	n/a	n/a	n/a	n/a	n/a	12	4	1	7	n/a	n/a	n/a	n/a	n/a
193675	STOP	n/a	LTP145	ltpFR	13	n/a	n/a	n/a	n/a	n/a	n/a	n/a	n/a	n/a	n/a	n/a	n/a	n/a	n/a	n/a
195552	WORD	wordpools/wasnorm_wordpool.txt	LTP145	ltpFR	13	1	1	CHISEL	305	n/a	0	n/a	0	0	0	0	0.5869140625	0.422607421875	upper	../fonts/amplitud.ttf
198560	START	n/a	LTP145	ltpFR	13	n/a	n/a	n/a	n/a	n/a	n/a	n/a	n/a	n/a	n/a	n/a	n/a	n/a	n/a	n/a
199750	PROB	n/a	LTP145	ltpFR	13	n/a	n/a	n/a	n/a	n/a	n/a	8	4	3	1	n/a	n/a	n/a	n/a	n/a
201049	PROB	n/a	LTP145	ltpFR	13	n/a	n/a	n/a	n/a	n/a	n/a	20	9	3	8	n/a	n/a	n/a	n/a	n/a
202740	PROB	n/a	LTP145	ltpFR	13	n/a	n/a	n/a	n/a	n/a	n/a	13	6	3	4	n/a	n/a	n/a	n/a	n/a
206560	STOP	n/a	LTP145	ltpFR	13	n/a	n/a	n/a	n/a	n/a	n/a	n/a	n/a	n/a	n/a	n/a	n/a	n/a	n/a	n/a
207415	WORD	wordpools/wasnorm_wordpool.txt	LTP145	ltpFR	13	1	1	SCULPTURE	1258	n/a	0	n/a	0	0	0	0	0.5869140625	0.422607421875	upper	../fonts/amplitud.ttf
210423	START	n/a	LTP145	ltpFR	13	n/a	n/a	n/a	n/a	n/a	n/a	n/a	n/a	n/a	n/a	n/a	n/a	n/a	n/a	n/a
211405	PROB	n/a	LTP145	ltpFR	13	n/a	n/a	n/a	n/a	n/a	n/a	14	3	7	4	n/a	n/a	n/a	n/a	n/a
214321	PROB	n/a	LTP145	ltpFR	13	n/a	n/a	n/a	n/a	n/a	n/a	13	2	3	8	n/a	n/a	n/a	n/a	n/a
215612	PROB	n/a	LTP145	ltpFR	13	n/a	n/a	n/a	n/a	n/a	n/a	15	5	8	2	n/a	n/a	n/a	n/a	n/a
217026	STOP	n/a	LTP145	ltpFR	13	n/a	n/a	n/a	n/a	n/a	n/a	n/a	n/a	n/a	n/a	n/a	n/a	n/a	n/a	n/a
219519	WORD	wordpools/wasnorm_wordpool.txt	LTP145	ltpFR	13	1	1	TRUCK	1512	n/a	0	n/a	0	0	0	0	0.5869140625	0.422607421875	upper	../fonts/amplitud.ttf
222527	START	n/a	LTP145	ltpFR	13	n/a	n/a	n/a	n/a	n/a	n/a	n/a	n/a	n/a	n/a	n/a	n/a	n/a	n/a	n/a
223700	PROB	n/a	LTP145	ltpFR	13	n/a	n/a	n/a	n/a	n/a	n/a	20	9	5	6	n/a	n/a	n/a	n/a	n/a
226132	PROB	n/a	LTP145	ltpFR	13	n/a	n/a	n/a	n/a	n/a	n/a	14	3	9	2	n/a	n/a	n/a	n/a	n/a
228191	PROB	n/a	LTP145	ltpFR	13	n/a	n/a	n/a	n/a	n/a	n/a	8	5	2	1	n/a	n/a	n/a	n/a	n/a
229858	STOP	n/a	LTP145	ltpFR	13	n/a	n/a	n/a	n/a	n/a	n/a	n/a	n/a	n/a	n/a	n/a	n/a	n/a	n/a	n/a
231623	WORD	wordpools/wasnorm_wordpool.txt	LTP145	ltpFR	13	1	0	MOUTH	926	n/a	2	n/a	0	0	0	1	0.412841796875	0.57763671875	lower	../fonts/zerothre.ttf
232597	KEY_MSG	n/a	LTP145	ltpFR	13	1	n/a	n/a	n/a	n/a	n/a	n/a	0	0	0	n/a	n/a	n/a	n/a	n/a
234631	START	n/a	LTP145	ltpFR	13	n/a	n/a	n/a	n/a	n/a	n/a	n/a	n/a	n/a	n/a	n/a	n/a	n/a	n/a	n/a
235671	PROB	n/a	LTP145	ltpFR	13	n/a	n/a	n/a	n/a	n/a	n/a	11	1	1	9	n/a	n/a	n/a	n/a	n/a
236945	PROB	n/a	LTP145	ltpFR	13	n/a	n/a	n/a	n/a	n/a	n/a	26	7	9	9	n/a	n/a	n/a	n/a	n/a
239378	PROB	n/a	LTP145	ltpFR	13	n/a	n/a	n/a	n/a	n/a	n/a	23	7	7	9	n/a	n/a	n/a	n/a	n/a
241698	STOP	n/a	LTP145	ltpFR	13	n/a	n/a	n/a	n/a	n/a	n/a	n/a	n/a	n/a	n/a	n/a	n/a	n/a	n/a	n/a
243759	WORD	wordpools/wasnorm_wordpool.txt	LTP145	ltpFR	13	1	0	SUSPECT	1415	n/a	1	n/a	0	0	0	1	0.412841796875	0.57763671875	lower	../fonts/zerothre.ttf
246767	START	n/a	LTP145	ltpFR	13	n/a	n/a	n/a	n/a	n/a	n/a	n/a	n/a	n/a	n/a	n/a	n/a	n/a	n/a	n/a
247609	PROB	n/a	LTP145	ltpFR	13	n/a	n/a	n/a	n/a	n/a	n/a	12	4	2	6	n/a	n/a	n/a	n/a	n/a
249049	PROB	n/a	LTP145	ltpFR	13	n/a	n/a	n/a	n/a	n/a	n/a	20	3	8	9	n/a	n/a	n/a	n/a	n/a
250848	PROB	n/a	LTP145	ltpFR	13	n/a	n/a	n/a	n/a	n/a	n/a	17	3	8	6	n/a	n/a	n/a	n/a	n/a
253097	PROB	n/a	LTP145	ltpFR	13	n/a	n/a	n/a	n/a	n/a	n/a	7	1	2	4	n/a	n/a	n/a	n/a	n/a
254643	STOP	n/a	LTP145	ltpFR	13	n/a	n/a	n/a	n/a	n/a	n/a	n/a	n/a	n/a	n/a	n/a	n/a	n/a	n/a	n/a
255871	WORD	wordpools/wasnorm_wordpool.txt	LTP145	ltpFR	13	1	0	BAG	69	n/a	0	n/a	0	0	0	1	0.412841796875	0.57763671875	lower	../fonts/zerothre.ttf
258879	START	n/a	LTP145	ltpFR	13	n/a	n/a	n/a	n/a	n/a	n/a	n/a	n/a	n/a	n/a	n/a	n/a	n/a	n/a	n/a
259687	PROB	n/a	LTP145	ltpFR	13	n/a	n/a	n/a	n/a	n/a	n/a	12	1	6	5	n/a	n/a	n/a	n/a	n/a
261095	PROB	n/a	LTP145	ltpFR	13	n/a	n/a	n/a	n/a	n/a	n/a	18	1	9	8	n/a	n/a	n/a	n/a	n/a
263220	PROB	n/a	LTP145	ltpFR	13	n/a	n/a	n/a	n/a	n/a	n/a	10	4	1	5	n/a	n/a	n/a	n/a	n/a
264893	PROB	n/a	LTP145	ltpFR	13	n/a	n/a	n/a	n/a	n/a	n/a	15	1	9	5	n/a	n/a	n/a	n/a	n/a
266499	STOP	n/a	LTP145	ltpFR	13	n/a	n/a	n/a	n/a	n/a	n/a	n/a	n/a	n/a	n/a	n/a	n/a	n/a	n/a	n/a
268709	REC_START	n/a	LTP145	ltpFR	13	1	n/a	n/a	n/a	n/a	n/a	n/a	0	0	0	n/a	n/a	n/a	n/a	n/a
269761	REC_WORD	wordpools/wasnorm_wordpool.txt	LTP145	ltpFR	13	1	0	CLERK	321	n/a	1	n/a	0	0	0	n/a	n/a	n/a	n/a	n/a
270464	REC_WORD	wordpools/wasnorm_wordpool.txt	LTP145	ltpFR	13	1	0	SUSPECT	1415	n/a	1	n/a	0	0	0	n/a	n/a	n/a	n/a	n/a
272001	REC_WORD	wordpools/wasnorm_wordpool.txt	LTP145	ltpFR	13	1	1	DONKEY	484	n/a	1	n/a	0	0	0	n/a	n/a	n/a	n/a	n/a
272994	REC_WORD	wordpools/wasnorm_wordpool.txt	LTP145	ltpFR	13	1	1	MULE	931	n/a	1	n/a	0	0	0	n/a	n/a	n/a	n/a	n/a
274042	REC_WORD	wordpools/wasnorm_wordpool.txt	LTP145	ltpFR	13	1	n/a	CANNON	232	n/a	n/a	n/a	0	0	0	n/a	n/a	n/a	n/a	n/a
275488	REC_WORD	wordpools/wasnorm_wordpool.txt	LTP145	ltpFR	13	1	1	CANYON	235	n/a	0	n/a	0	0	0	n/a	n/a	n/a	n/a	n/a
277658	REC_WORD	wordpools/wasnorm_wordpool.txt	LTP145	ltpFR	13	1	1	LIP	828	n/a	0	n/a	0	0	0	n/a	n/a	n/a	n/a	n/a
282078	REC_WORD	wordpools/wasnorm_wordpool.txt	LTP145	ltpFR	13	1	1	CHISEL	305	n/a	0	n/a	0	0	0	n/a	n/a	n/a	n/a	n/a
284074	REC_WORD	wordpools/wasnorm_wordpool.txt	LTP145	ltpFR	13	1	0	BAG	69	n/a	0	n/a	0	0	0	n/a	n/a	n/a	n/a	n/a
347348	WORD	wordpools/wasnorm_wordpool.txt	LTP145	ltpFR	13	2	0	DOLL	481	n/a	0	n/a	0	0	0	1	0.412841796875	0.57763671875	lower	../fonts/zerothre.ttf
351372	WORD	wordpools/wasnorm_wordpool.txt	LTP145	ltpFR	13	2	0	HELICOPTER	701	n/a	1	n/a	0	0	0	1	0.412841796875	0.57763671875	lower	../fonts/zerothre.ttf
355187	WORD	wordpools/wasnorm_wordpool.txt	LTP145	ltpFR	13	2	0	KITE	779	n/a	1	n/a	0	0	0	1	0.412841796875	0.57763671875	lower	../fonts/zerothre.ttf
359035	WORD	wordpools/wasnorm_wordpool.txt	LTP145	ltpFR	13	2	0	CHIMPANZEE	302	n/a	1	n/a	0	0	0	1	0.412841796875	0.57763671875	lower	../fonts/zerothre.ttf
362958	WORD	wordpools/wasnorm_wordpool.txt	LTP145	ltpFR	13	2	1	GARLIC	624	n/a	0	n/a	0	0	0	0	0.5869140625	0.422607421875	upper	../fonts/amplitud.ttf
367149	WORD	wordpools/wasnorm_wordpool.txt	LTP145	ltpFR	13	2	1	SPICE	1350	n/a	0	n/a	0	0	0	0	0.5869140625	0.422607421875	upper	../fonts/amplitud.ttf
371114	WORD	wordpools/wasnorm_wordpool.txt	LTP145	ltpFR	13	2	1	NURSERY	964	n/a	0	n/a	0	0	0	0	0.5869140625	0.422607421875	upper	../fonts/amplitud.ttf
374971	WORD	wordpools/wasnorm_wordpool.txt	LTP145	ltpFR	13	2	1	TOAST	1471	n/a	0	n/a	0	0	0	0	0.5869140625	0.422607421875	upper	../fonts/amplitud.ttf
379053	WORD	wordpools/wasnorm_wordpool.txt	LTP145	ltpFR	13	2	1	LEOPARD	812	n/a	1	n/a	0	0	0	0	0.5869140625	0.422607421875	upper	../fonts/amplitud.ttf
382985	WORD	wordpools/wasnorm_wordpool.txt	LTP145	ltpFR	13	2	1	MAGNET	855	n/a	0	n/a	0	0	0	0	0.5869140625	0.422607421875	upper	../fonts/amplitud.ttf
387058	WORD	wordpools/wasnorm_wordpool.txt	LTP145	ltpFR	13	2	0	CRUMB	416	n/a	0	n/a	0	0	0	1	0.412841796875	0.57763671875	lower	../fonts/zerothre.ttf
391090	WORD	wordpools/wasnorm_wordpool.txt	LTP145	ltpFR	13	2	0	WIDOW	1608	n/a	1	n/a	0	0	0	1	0.412841796875	0.57763671875	lower	../fonts/zerothre.ttf
395240	WORD	wordpools/wasnorm_wordpool.txt	LTP145	ltpFR	13	2	1	WOMAN	1620	n/a	1	n/a	0	0	0	0	0.5869140625	0.422607421875	upper	../fonts/amplitud.ttf
399271	WORD	wordpools/wasnorm_wordpool.txt	LTP145	ltpFR	13	2	1	MARGARINE	868	n/a	0	n/a	0	0	0	0	0.5869140625	0.422607421875	upper	../fonts/amplitud.ttf
403262	WORD	wordpools/wasnorm_wordpool.txt	LTP145	ltpFR	13	2	0	WIFE	1609	n/a	1	n/a	0	0	0	1	0.412841796875	0.57763671875	lower	../fonts/zerothre.ttf
407460	WORD	wordpools/wasnorm_wordpool.txt	LTP145	ltpFR	13	2	0	DELINQUENT	445	n/a	1	n/a	0	0	0	1	0.412841796875	0.57763671875	lower	../fonts/zerothre.ttf
410468	START	n/a	LTP145	ltpFR	13	n/a	n/a	n/a	n/a	n/a	n/a	n/a	n/a	n/a	n/a	n/a	n/a	n/a	n/a	n/a
411326	PROB	n/a	LTP145	ltpFR	13	n/a	n/a	n/a	n/a	n/a	n/a	23	8	8	7	n/a	n/a	n/a	n/a	n/a
417203	STOP	n/a	LTP145	ltpFR	13	n/a	n/a	n/a	n/a	n/a	n/a	n/a	n/a	n/a	n/a	n/a	n/a	n/a	n/a	n/a
420365	REC_START	n/a	LTP145	ltpFR	13	2	n/a	n/a	n/a	n/a	n/a	n/a	0	0	0	n/a	n/a	n/a	n/a	n/a
422086	REC_WORD	wordpools/wasnorm_wordpool.txt	LTP145	ltpFR	13	2	1	LEOPARD	812	n/a	1	n/a	0	0	0	n/a	n/a	n/a	n/a	n/a
423897	REC_WORD	wordpools/wasnorm_wordpool.txt	LTP145	ltpFR	13	2	0	CHIMPANZEE	302	n/a	1	n/a	0	0	0	n/a	n/a	n/a	n/a	n/a
427194	REC_WORD	wordpools/wasnorm_wordpool.txt	LTP145	ltpFR	13	2	0	HELICOPTER	701	n/a	1	n/a	0	0	0	n/a	n/a	n/a	n/a	n/a
428262	REC_WORD	wordpools/wasnorm_wordpool.txt	LTP145	ltpFR	13	2	0	KITE	779	n/a	1	n/a	0	0	0	n/a	n/a	n/a	n/a	n/a
429128	REC_WORD	wordpools/wasnorm_wordpool.txt	LTP145	ltpFR	13	2	0	DOLL	481	n/a	0	n/a	0	0	0	n/a	n/a	n/a	n/a	n/a
430532	REC_WORD	wordpools/wasnorm_wordpool.txt	LTP145	ltpFR	13	2	0	DELINQUENT	445	n/a	1	n/a	0	0	0	n/a	n/a	n/a	n/a	n/a
431811	REC_WORD	wordpools/wasnorm_wordpool.txt	LTP145	ltpFR	13	2	0	WIFE	1609	n/a	1	n/a	0	0	0	n/a	n/a	n/a	n/a	n/a
432702	REC_WORD	wordpools/wasnorm_wordpool.txt	LTP145	ltpFR	13	2	1	WOMAN	1620	n/a	1	n/a	0	0	0	n/a	n/a	n/a	n/a	n/a
434712	REC_WORD	wordpools/wasnorm_wordpool.txt	LTP145	ltpFR	13	2	1	TOAST	1471	n/a	0	n/a	0	0	0	n/a	n/a	n/a	n/a	n/a
436423	REC_WORD	wordpools/wasnorm_wordpool.txt	LTP145	ltpFR	13	2	1	MARGARINE	868	n/a	0	n/a	0	0	0	n/a	n/a	n/a	n/a	n/a
437486	REC_WORD	wordpools/wasnorm_wordpool.txt	LTP145	ltpFR	13	2	1	GARLIC	624	n/a	0	n/a	0	0	0	n/a	n/a	n/a	n/a	n/a
438099	REC_WORD	wordpools/wasnorm_wordpool.txt	LTP145	ltpFR	13	2	1	SPICE	1350	n/a	0	n/a	0	0	0	n/a	n/a	n/a	n/a	n/a
439227	REC_WORD	wordpools/wasnorm_wordpool.txt	LTP145	ltpFR	13	2	1	NURSERY	964	n/a	0	n/a	0	0	0	n/a	n/a	n/a	n/a	n/a
497537	START	n/a	LTP145	ltpFR	13	n/a	n/a	n/a	n/a	n/a	n/a	n/a	n/a	n/a	n/a	n/a	n/a	n/a	n/a	n/a
499043	PROB	n/a	LTP145	ltpFR	13	n/a	n/a	n/a	n/a	n/a	n/a	17	9	2	6	n/a	n/a	n/a	n/a	n/a
501344	PROB	n/a	LTP145	ltpFR	13	n/a	n/a	n/a	n/a	n/a	n/a	10	3	3	4	n/a	n/a	n/a	n/a	n/a
503351	PROB	n/a	LTP145	ltpFR	13	n/a	n/a	n/a	n/a	n/a	n/a	16	7	4	5	n/a	n/a	n/a	n/a	n/a
506433	PROB	n/a	LTP145	ltpFR	13	n/a	n/a	n/a	n/a	n/a	n/a	10	6	1	3	n/a	n/a	n/a	n/a	n/a
507849	PROB	n/a	LTP145	ltpFR	13	n/a	n/a	n/a	n/a	n/a	n/a	10	7	1	2	n/a	n/a	n/a	n/a	n/a
509690	PROB	n/a	LTP145	ltpFR	13	n/a	n/a	n/a	n/a	n/a	n/a	17	5	8	4	n/a	n/a	n/a	n/a	n/a
513537	STOP	n/a	LTP145	ltpFR	13	n/a	n/a	n/a	n/a	n/a	n/a	n/a	n/a	n/a	n/a	n/a	n/a	n/a	n/a	n/a
514447	WORD	wordpools/wasnorm_wordpool.txt	LTP145	ltpFR	13	3	0	CORAL	378	n/a	1	n/a	0	0	0	1	0.412841796875	0.57763671875	lower	../fonts/zerothre.ttf
517455	START	n/a	LTP145	ltpFR	13	n/a	n/a	n/a	n/a	n/a	n/a	n/a	n/a	n/a	n/a	n/a	n/a	n/a	n/a	n/a
518429	PROB	n/a	LTP145	ltpFR	13	n/a	n/a	n/a	n/a	n/a	n/a	14	7	4	3	n/a	n/a	n/a	n/a	n/a
520612	PROB	n/a	LTP145	ltpFR	13	n/a	n/a	n/a	n/a	n/a	n/a	7	1	4	2	n/a	n/a	n/a	n/a	n/a
523619	PROB	n/a	LTP145	ltpFR	13	n/a	n/a	n/a	n/a	n/a	n/a	14	4	4	6	n/a	n/a	n/a	n/a	n/a
525360	PROB	n/a	LTP145	ltpFR	13	n/a	n/a	n/a	n/a	n/a	n/a	19	3	8	8	n/a	n/a	n/a	n/a	n/a
527376	PROB	n/a	LTP145	ltpFR	13	n/a	n/a	n/a	n/a	n/a	n/a	15	2	6	7	n/a	n/a	n/a	n/a	n/a
528966	PROB	n/a	LTP145	ltpFR	13	n/a	n/a	n/a	n/a	n/a	n/a	14	6	1	7	n/a	n/a	n/a	n/a	n/a
533454	STOP	n/a	LTP145	ltpFR	13	n/a	n/a	n/a	n/a	n/a	n/a	n/a	n/a	n/a	n/a	n/a	n/a	n/a	n/a	n/a
534565	WORD	wordpools/wasnorm_wordpool.txt	LTP145	ltpFR	13	3	0	BUS	201	n/a	1	n/a	0	0	0	1	0.412841796875	0.57763671875	lower	../fonts/zerothre.ttf
537573	START	n/a	LTP145	ltpFR	13	n/a	n/a	n/a	n/a	n/a	n/a	n/a	n/a	n/a	n/a	n/a	n/a	n/a	n/a	n/a
538696	PROB	n/a	LTP145	ltpFR	13	n/a	n/a	n/a	n/a	n/a	n/a	13	6	1	6	n/a	n/a	n/a	n/a	n/a
540530	PROB	n/a	LTP145	ltpFR	13	n/a	n/a	n/a	n/a	n/a	n/a	17	7	9	1	n/a	n/a	n/a	n/a	n/a
542120	PROB	n/a	LTP145	ltpFR	13	n/a	n/a	n/a	n/a	n/a	n/a	20	9	8	3	n/a	n/a	n/a	n/a	n/a
544027	PROB	n/a	LTP145	ltpFR	13	n/a	n/a	n/a	n/a	n/a	n/a	8	2	4	2	n/a	n/a	n/a	n/a	n/a
546110	PROB	n/a	LTP145	ltpFR	13	n/a	n/a	n/a	n/a	n/a	n/a	17	4	7	6	n/a	n/a	n/a	n/a	n/a
548068	PROB	n/a	LTP145	ltpFR	13	n/a	n/a	n/a	n/a	n/a	n/a	15	7	7	1	n/a	n/a	n/a	n/a	n/a
549443	PROB	n/a	LTP145	ltpFR	13	n/a	n/a	n/a	n/a	n/a	n/a	16	7	2	7	n/a	n/a	n/a	n/a	n/a
551125	PROB	n/a	LTP145	ltpFR	13	n/a	n/a	n/a	n/a	n/a	n/a	12	2	4	6	n/a	n/a	n/a	n/a	n/a
552459	STOP	n/a	LTP145	ltpFR	13	n/a	n/a	n/a	n/a	n/a	n/a	n/a	n/a	n/a	n/a	n/a	n/a	n/a	n/a	n/a
554732	WORD	wordpools/wasnorm_wordpool.txt	LTP145	ltpFR	13	3	0	BROCCOLI	176	n/a	0	n/a	0	0	0	1	0.412841796875	0.57763671875	lower	../fonts/zerothre.ttf
557740	START	n/a	LTP145	ltpFR	13	n/a	n/a	n/a	n/a	n/a	n/a	n/a	n/a	n/a	n/a	n/a	n/a	n/a	n/a	n/a
558772	PROB	n/a	LTP145	ltpFR	13	n/a	n/a	n/a	n/a	n/a	n/a	24	6	9	9	n/a	n/a	n/a	n/a	n/a
562063	PROB	n/a	LTP145	ltpFR	13	n/a	n/a	n/a	n/a	n/a	n/a	15	7	4	4	n/a	n/a	n/a	n/a	n/a
564163	PROB	n/a	LTP145	ltpFR	13	n/a	n/a	n/a	n/a	n/a	n/a	23	9	5	9	n/a	n/a	n/a	n/a	n/a
566429	PROB	n/a	LTP145	ltpFR	13	n/a	n/a	n/a	n/a	n/a	n/a	11	1	5	5	n/a	n/a	n/a	n/a	n/a
567877	PROB	n/a	LTP145	ltpFR	13	n/a	n/a	n/a	n/a	n/a	n/a	19	9	7	3	n/a	n/a	n/a	n/a	n/a
569478	PROB	n/a	LTP145	ltpFR	13	n/a	n/a	n/a	n/a	n/a	n/a	15	4	2	9	n/a	n/a	n/a	n/a	n/a
573730	STOP	n/a	LTP145	ltpFR	13	n/a	n/a	n/a	n/a	n/a	n/a	n/a	n/a	n/a	n/a	n/a	n/a	n/a	n/a	n/a
574800	WORD	wordpools/wasnorm_wordpool.txt	LTP145	ltpFR	13	3	0	ALLEY	15	n/a	1	n/a	0	0	0	1	0.412841796875	0.57763671875	lower	../fonts/zerothre.ttf
577807	START	n/a	LTP145	ltpFR	13	n/a	n/a	n/a	n/a	n/a	n/a	n/a	n/a	n/a	n/a	n/a	n/a	n/a	n/a	n/a
578732	PROB	n/a	LTP145	ltpFR	13	n/a	n/a	n/a	n/a	n/a	n/a	15	4	4	7	n/a	n/a	n/a	n/a	n/a
580366	PROB	n/a	LTP145	ltpFR	13	n/a	n/a	n/a	n/a	n/a	n/a	14	2	3	9	n/a	n/a	n/a	n/a	n/a
582248	PROB	n/a	LTP145	ltpFR	13	n/a	n/a	n/a	n/a	n/a	n/a	7	3	3	1	n/a	n/a	n/a	n/a	n/a
583673	PROB	n/a	LTP145	ltpFR	13	n/a	n/a	n/a	n/a	n/a	n/a	21	7	9	5	n/a	n/a	n/a	n/a	n/a
587962	PROB	n/a	LTP145	ltpFR	13	n/a	n/a	n/a	n/a	n/a	n/a	12	1	5	6	n/a	n/a	n/a	n/a	n/a
589296	PROB	n/a	LTP145	ltpFR	13	n/a	n/a	n/a	n/a	n/a	n/a	11	9	1	1	n/a	n/a	n/a	n/a	n/a
590752	PROB	n/a	LTP145	ltpFR	13	n/a	n/a	n/a	n/a	n/a	n/a	9	1	5	3	n/a	n/a	n/a	n/a	n/a
593807	STOP	n/a	LTP145	ltpFR	13	n/a	n/a	n/a	n/a	n/a	n/a	n/a	n/a	n/a	n/a	n/a	n/a	n/a	n/a	n/a
594851	WORD	wordpools/wasnorm_wordpool.txt	LTP145	ltpFR	13	3	0	WALL	1582	n/a	1	n/a	0	0	0	1	0.412841796875	0.57763671875	lower	../fonts/zerothre.ttf
597859	START	n/a	LTP145	ltpFR	13	n/a	n/a	n/a	n/a	n/a	n/a	n/a	n/a	n/a	n/a	n/a	n/a	n/a	n/a	n/a
598708	PROB	n/a	LTP145	ltpFR	13	n/a	n/a	n/a	n/a	n/a	n/a	20	7	8	5	n/a	n/a	n/a	n/a	n/a
600941	PROB	n/a	LTP145	ltpFR	13	n/a	n/a	n/a	n/a	n/a	n/a	16	6	1	9	n/a	n/a	n/a	n/a	n/a
602358	PROB	n/a	LTP145	ltpFR	13	n/a	n/a	n/a	n/a	n/a	n/a	15	7	3	5	n/a	n/a	n/a	n/a	n/a
603698	PROB	n/a	LTP145	ltpFR	13	n/a	n/a	n/a	n/a	n/a	n/a	9	5	2	2	n/a	n/a	n/a	n/a	n/a
605290	PROB	n/a	LTP145	ltpFR	13	n/a	n/a	n/a	n/a	n/a	n/a	14	6	1	7	n/a	n/a	n/a	n/a	n/a
607497	PROB	n/a	LTP145	ltpFR	13	n/a	n/a	n/a	n/a	n/a	n/a	7	3	1	3	n/a	n/a	n/a	n/a	n/a
609230	PROB	n/a	LTP145	ltpFR	13	n/a	n/a	n/a	n/a	n/a	n/a	19	8	3	8	n/a	n/a	n/a	n/a	n/a
611271	PROB	n/a	LTP145	ltpFR	13	n/a	n/a	n/a	n/a	n/a	n/a	18	4	8	6	n/a	n/a	n/a	n/a	n/a
612746	STOP	n/a	LTP145	ltpFR	13	n/a	n/a	n/a	n/a	n/a	n/a	n/a	n/a	n/a	n/a	n/a	n/a	n/a	n/a	n/a
614736	WORD	wordpools/wasnorm_wordpool.txt	LTP145	ltpFR	13	3	0	JEEP	753	n/a	1	n/a	0	0	0	1	0.412841796875	0.57763671875	lower	../fonts/zerothre.ttf
617743	START	n/a	LTP145	ltpFR	13	n/a	n/a	n/a	n/a	n/a	n/a	n/a	n/a	n/a	n/a	n/a	n/a	n/a	n/a	n/a
618751	PROB	n/a	LTP145	ltpFR	13	n/a	n/a	n/a	n/a	n/a	n/a	17	3	9	5	n/a	n/a	n/a	n/a	n/a
621000	PROB	n/a	LTP145	ltpFR	13	n/a	n/a	n/a	n/a	n/a	n/a	17	1	9	7	n/a	n/a	n/a	n/a	n/a
622983	PROB	n/a	LTP145	ltpFR	13	n/a	n/a	n/a	n/a	n/a	n/a	21	7	9	5	n/a	n/a	n/a	n/a	n/a
626299	PROB	n/a	LTP145	ltpFR	13	n/a	n/a	n/a	n/a	n/a	n/a	21	9	6	7	n/a	n/a	n/a	n/a	n/a
628964	PROB	n/a	LTP145	ltpFR	13	n/a	n/a	n/a	n/a	n/a	n/a	16	7	1	8	n/a	n/a	n/a	n/a	n/a
630905	PROB	n/a	LTP145	ltpFR	13	n/a	n/a	n/a	n/a	n/a	n/a	12	1	2	9	n/a	n/a	n/a	n/a	n/a
632275	STOP	n/a	LTP145	ltpFR	13	n/a	n/a	n/a	n/a	n/a	n/a	n/a	n/a	n/a	n/a	n/a	n/a	n/a	n/a	n/a
634695	WORD	wordpools/wasnorm_wordpool.txt	LTP145	ltpFR	13	3	0	ALMOND	18	n/a	0	n/a	0	0	0	1	0.412841796875	0.57763671875	lower	../fonts/zerothre.ttf
637703	START	n/a	LTP145	ltpFR	13	n/a	n/a	n/a	n/a	n/a	n/a	n/a	n/a	n/a	n/a	n/a	n/a	n/a	n/a	n/a
638685	PROB	n/a	LTP145	ltpFR	13	n/a	n/a	n/a	n/a	n/a	n/a	16	7	4	5	n/a	n/a	n/a	n/a	n/a
642126	PROB	n/a	LTP145	ltpFR	13	n/a	n/a	n/a	n/a	n/a	n/a	9	1	6	2	n/a	n/a	n/a	n/a	n/a
644150	PROB	n/a	LTP145	ltpFR	13	n/a	n/a	n/a	n/a	n/a	n/a	23	9	8	6	n/a	n/a	n/a	n/a	n/a
647433	PROB	n/a	LTP145	ltpFR	13	n/a	n/a	n/a	n/a	n/a	n/a	22	7	9	6	n/a	n/a	n/a	n/a	n/a
650773	PROB	n/a	LTP145	ltpFR	13	n/a	n/a	n/a	n/a	n/a	n/a	12	6	3	3	n/a	n/a	n/a	n/a	n/a
653219	STOP	n/a	LTP145	ltpFR	13	n/a	n/a	n/a	n/a	n/a	n/a	n/a	n/a	n/a	n/a	n/a	n/a	n/a	n/a	n/a
654838	WORD	wordpools/wasnorm_wordpool.txt	LTP145	ltpFR	13	3	0	GRILL	661	n/a	1	n/a	0	0	0	1	0.412841796875	0.57763671875	lower	../fonts/zerothre.ttf
657846	START	n/a	LTP145	ltpFR	13	n/a	n/a	n/a	n/a	n/a	n/a	n/a	n/a	n/a	n/a	n/a	n/a	n/a	n/a	n/a
658654	PROB	n/a	LTP145	ltpFR	13	n/a	n/a	n/a	n/a	n/a	n/a	23	9	9	5	n/a	n/a	n/a	n/a	n/a
660836	PROB	n/a	LTP145	ltpFR	13	n/a	n/a	n/a	n/a	n/a	n/a	13	4	1	8	n/a	n/a	n/a	n/a	n/a
662719	PROB	n/a	LTP145	ltpFR	13	n/a	n/a	n/a	n/a	n/a	n/a	11	1	9	1	n/a	n/a	n/a	n/a	n/a
664076	PROB	n/a	LTP145	ltpFR	13	n/a	n/a	n/a	n/a	n/a	n/a	16	6	9	1	n/a	n/a	n/a	n/a	n/a
665684	PROB	n/a	LTP145	ltpFR	13	n/a	n/a	n/a	n/a	n/a	n/a	10	1	1	8	n/a	n/a	n/a	n/a	n/a
667268	PROB	n/a	LTP145	ltpFR	13	n/a	n/a	n/a	n/a	n/a	n/a	11	1	9	1	n/a	n/a	n/a	n/a	n/a
668609	PROB	n/a	LTP145	ltpFR	13	n/a	n/a	n/a	n/a	n/a	n/a	19	7	7	5	n/a	n/a	n/a	n/a	n/a
670200	PROB	n/a	LTP145	ltpFR	13	n/a	n/a	n/a	n/a	n/a	n/a	11	3	6	2	n/a	n/a	n/a	n/a	n/a
672754	STOP	n/a	LTP145	ltpFR	13	n/a	n/a	n/a	n/a	n/a	n/a	n/a	n/a	n/a	n/a	n/a	n/a	n/a	n/a	n/a
674674	WORD	wordpools/wasnorm_wordpool.txt	LTP145	ltpFR	13	3	0	CLIFF	322	n/a	1	n/a	0	0	0	1	0.412841796875	0.57763671875	lower	../fonts/zerothre.ttf
677681	START	n/a	LTP145	ltpFR	13	n/a	n/a	n/a	n/a	n/a	n/a	n/a	n/a	n/a	n/a	n/a	n/a	n/a	n/a	n/a
678854	PROB	n/a	LTP145	ltpFR	13	n/a	n/a	n/a	n/a	n/a	n/a	8	3	2	3	n/a	n/a	n/a	n/a	n/a
681246	PROB	n/a	LTP145	ltpFR	13	n/a	n/a	n/a	n/a	n/a	n/a	21	3	9	9	n/a	n/a	n/a	n/a	n/a
682795	PROB	n/a	LTP145	ltpFR	13	n/a	n/a	n/a	n/a	n/a	n/a	18	1	9	8	n/a	n/a	n/a	n/a	n/a
684520	PROB	n/a	LTP145	ltpFR	13	n/a	n/a	n/a	n/a	n/a	n/a	18	9	5	4	n/a	n/a	n/a	n/a	n/a
686219	PROB	n/a	LTP145	ltpFR	13	n/a	n/a	n/a	n/a	n/a	n/a	16	5	3	8	n/a	n/a	n/a	n/a	n/a
688294	PROB	n/a	LTP145	ltpFR	13	n/a	n/a	n/a	n/a	n/a	n/a	14	2	7	5	n/a	n/a	n/a	n/a	n/a
690351	PROB	n/a	LTP145	ltpFR	13	n/a	n/a	n/a	n/a	n/a	n/a	21	6	9	6	n/a	n/a	n/a	n/a	n/a
692499	STOP	n/a	LTP145	ltpFR	13	n/a	n/a	n/a	n/a	n/a	n/a	n/a	n/a	n/a	n/a	n/a	n/a	n/a	n/a	n/a
694675	WORD	wordpools/wasnorm_wordpool.txt	LTP145	ltpFR	13	3	0	PARENT	1013	n/a	1	n/a	0	0	0	1	0.412841796875	0.57763671875	lower	../fonts/zerothre.ttf
697682	START	n/a	LTP145	ltpFR	13	n/a	n/a	n/a	n/a	n/a	n/a	n/a	n/a	n/a	n/a	n/a	n/a	n/a	n/a	n/a
698498	PROB	n/a	LTP145	ltpFR	13	n/a	n/a	n/a	n/a	n/a	n/a	17	6	5	6	n/a	n/a	n/a	n/a	n/a
701730	PROB	n/a	LTP145	ltpFR	13	n/a	n/a	n/a	n/a	n/a	n/a	18	3	6	9	n/a	n/a	n/a	n/a	n/a
703737	PROB	n/a	LTP145	ltpFR	13	n/a	n/a	n/a	n/a	n/a	n/a	11	1	3	7	n/a	n/a	n/a	n/a	n/a
705137	PROB	n/a	LTP145	ltpFR	13	n/a	n/a	n/a	n/a	n/a	n/a	14	6	7	1	n/a	n/a	n/a	n/a	n/a
708094	PROB	n/a	LTP145	ltpFR	13	n/a	n/a	n/a	n/a	n/a	n/a	17	4	7	6	n/a	n/a	n/a	n/a	n/a
709769	PROB	n/a	LTP145	ltpFR	13	n/a	n/a	n/a	n/a	n/a	n/a	19	4	9	6	n/a	n/a	n/a	n/a	n/a
712347	STOP	n/a	LTP145	ltpFR	13	n/a	n/a	n/a	n/a	n/a	n/a	n/a	n/a	n/a	n/a	n/a	n/a	n/a	n/a	n/a
714800	WORD	wordpools/wasnorm_wordpool.txt	LTP145	ltpFR	13	3	0	COLT	349	n/a	1	n/a	0	0	0	1	0.412841796875	0.57763671875	lower	../fonts/zerothre.ttf
717808	START	n/a	LTP145	ltpFR	13	n/a	n/a	n/a	n/a	n/a	n/a	n/a	n/a	n/a	n/a	n/a	n/a	n/a	n/a	n/a
718865	PROB	n/a	LTP145	ltpFR	13	n/a	n/a	n/a	n/a	n/a	n/a	19	9	1	9	n/a	n/a	n/a	n/a	n/a
720549	PROB	n/a	LTP145	ltpFR	13	n/a	n/a	n/a	n/a	n/a	n/a	14	4	9	1	n/a	n/a	n/a	n/a	n/a
722897	PROB	n/a	LTP145	ltpFR	13	n/a	n/a	n/a	n/a	n/a	n/a	16	8	2	6	n/a	n/a	n/a	n/a	n/a
725738	PROB	n/a	LTP145	ltpFR	13	n/a	n/a	n/a	n/a	n/a	n/a	14	5	5	4	n/a	n/a	n/a	n/a	n/a
727371	PROB	n/a	LTP145	ltpFR	13	n/a	n/a	n/a	n/a	n/a	n/a	24	8	7	9	n/a	n/a	n/a	n/a	n/a
730437	PROB	n/a	LTP145	ltpFR	13	n/a	n/a	n/a	n/a	n/a	n/a	5	2	2	1	n/a	n/a	n/a	n/a	n/a
731637	PROB	n/a	LTP145	ltpFR	13	n/a	n/a	n/a	n/a	n/a	n/a	13	8	1	4	n/a	n/a	n/a	n/a	n/a
733499	STOP	n/a	LTP145	ltpFR	13	n/a	n/a	n/a	n/a	n/a	n/a	n/a	n/a	n/a	n/a	n/a	n/a	n/a	n/a	n/a
734926	WORD	wordpools/wasnorm_wordpool.txt	LTP145	ltpFR	13	3	0	STALLION	1369	n/a	1	n/a	0	0	0	1	0.412841796875	0.57763671875	lower	../fonts/zerothre.ttf
737934	START	n/a	LTP145	ltpFR	13	n/a	n/a	n/a	n/a	n/a	n/a	n/a	n/a	n/a	n/a	n/a	n/a	n/a	n/a	n/a
739091	PROB	n/a	LTP145	ltpFR	13	n/a	n/a	n/a	n/a	n/a	n/a	12	2	7	3	n/a	n/a	n/a	n/a	n/a
740450	PROB	n/a	LTP145	ltpFR	13	n/a	n/a	n/a	n/a	n/a	n/a	10	3	3	4	n/a	n/a	n/a	n/a	n/a
742915	PROB	n/a	LTP145	ltpFR	13	n/a	n/a	n/a	n/a	n/a	n/a	15	6	2	7	n/a	n/a	n/a	n/a	n/a
745073	PROB	n/a	LTP145	ltpFR	13	n/a	n/a	n/a	n/a	n/a	n/a	20	7	6	7	n/a	n/a	n/a	n/a	n/a
746847	PROB	n/a	LTP145	ltpFR	13	n/a	n/a	n/a	n/a	n/a	n/a	22	9	4	9	n/a	n/a	n/a	n/a	n/a
749821	PROB	n/a	LTP145	ltpFR	13	n/a	n/a	n/a	n/a	n/a	n/a	19	4	7	8	n/a	n/a	n/a	n/a	n/a
751596	PROB	n/a	LTP145	ltpFR	13	n/a	n/a	n/a	n/a	n/a	n/a	20	7	4	9	n/a	n/a	n/a	n/a	n/a
753818	STOP	n/a	LTP145	ltpFR	13	n/a	n/a	n/a	n/a	n/a	n/a	n/a	n/a	n/a	n/a	n/a	n/a	n/a	n/a	n/a
754986	WORD	wordpools/wasnorm_wordpool.txt	LTP145	ltpFR	13	3	0	SHRIMP	1297	n/a	0	n/a	0	0	0	1	0.412841796875	0.57763671875	lower	../fonts/zerothre.ttf
757993	START	n/a	LTP145	ltpFR	13	n/a	n/a	n/a	n/a	n/a	n/a	n/a	n/a	n/a	n/a	n/a	n/a	n/a	n/a	n/a
759001	PROB	n/a	LTP145	ltpFR	13	n/a	n/a	n/a	n/a	n/a	n/a	9	2	3	4	n/a	n/a	n/a	n/a	n/a
760618	PROB	n/a	LTP145	ltpFR	13	n/a	n/a	n/a	n/a	n/a	n/a	15	7	5	3	n/a	n/a	n/a	n/a	n/a
762050	PROB	n/a	LTP145	ltpFR	13	n/a	n/a	n/a	n/a	n/a	n/a	10	3	4	3	n/a	n/a	n/a	n/a	n/a
764675	PROB	n/a	LTP145	ltpFR	13	n/a	n/a	n/a	n/a	n/a	n/a	12	8	3	1	n/a	n/a	n/a	n/a	n/a
766906	PROB	n/a	LTP145	ltpFR	13	n/a	n/a	n/a	n/a	n/a	n/a	5	2	2	1	n/a	n/a	n/a	n/a	n/a
768006	PROB	n/a	LTP145	ltpFR	13	n/a	n/a	n/a	n/a	n/a	n/a	15	2	7	5	n/a	n/a	n/a	n/a	n/a
770165	PROB	n/a	LTP145	ltpFR	13	n/a	n/a	n/a	n/a	n/a	n/a	19	9	1	9	n/a	n/a	n/a	n/a	n/a
773395	STOP	n/a	LTP145	ltpFR	13	n/a	n/a	n/a	n/a	n/a	n/a	n/a	n/a	n/a	n/a	n/a	n/a	n/a	n/a	n/a
775079	WORD	wordpools/wasnorm_wordpool.txt	LTP145	ltpFR	13	3	0	VEIN	1554	n/a	0	n/a	0	0	0	1	0.412841796875	0.57763671875	lower	../fonts/zerothre.ttf
778086	START	n/a	LTP145	ltpFR	13	n/a	n/a	n/a	n/a	n/a	n/a	n/a	n/a	n/a	n/a	n/a	n/a	n/a	n/a	n/a
779170	PROB	n/a	LTP145	ltpFR	13	n/a	n/a	n/a	n/a	n/a	n/a	15	2	7	6	n/a	n/a	n/a	n/a	n/a
781586	PROB	n/a	LTP145	ltpFR	13	n/a	n/a	n/a	n/a	n/a	n/a	15	8	1	6	n/a	n/a	n/a	n/a	n/a
783684	PROB	n/a	LTP145	ltpFR	13	n/a	n/a	n/a	n/a	n/a	n/a	8	2	5	1	n/a	n/a	n/a	n/a	n/a
785551	PROB	n/a	LTP145	ltpFR	13	n/a	n/a	n/a	n/a	n/a	n/a	15	8	1	6	n/a	n/a	n/a	n/a	n/a
787141	PROB	n/a	LTP145	ltpFR	13	n/a	n/a	n/a	n/a	n/a	n/a	16	1	8	7	n/a	n/a	n/a	n/a	n/a
788965	PROB	n/a	LTP145	ltpFR	13	n/a	n/a	n/a	n/a	n/a	n/a	17	8	8	1	n/a	n/a	n/a	n/a	n/a
790906	PROB	n/a	LTP145	ltpFR	13	n/a	n/a	n/a	n/a	n/a	n/a	19	9	5	5	n/a	n/a	n/a	n/a	n/a
792515	PROB	n/a	LTP145	ltpFR	13	n/a	n/a	n/a	n/a	n/a	n/a	14	7	3	4	n/a	n/a	n/a	n/a	n/a
793978	STOP	n/a	LTP145	ltpFR	13	n/a	n/a	n/a	n/a	n/a	n/a	n/a	n/a	n/a	n/a	n/a	n/a	n/a	n/a	n/a
795080	WORD	wordpools/wasnorm_wordpool.txt	LTP145	ltpFR	13	3	0	KIDNEY	776	n/a	0	n/a	0	0	0	1	0.412841796875	0.57763671875	lower	../fonts/zerothre.ttf
798087	START	n/a	LTP145	ltpFR	13	n/a	n/a	n/a	n/a	n/a	n/a	n/a	n/a	n/a	n/a	n/a	n/a	n/a	n/a	n/a
799196	PROB	n/a	LTP145	ltpFR	13	n/a	n/a	n/a	n/a	n/a	n/a	20	6	6	8	n/a	n/a	n/a	n/a	n/a
801128	PROB	n/a	LTP145	ltpFR	13	n/a	n/a	n/a	n/a	n/a	n/a	15	7	5	3	n/a	n/a	n/a	n/a	n/a
803236	PROB	n/a	LTP145	ltpFR	13	n/a	n/a	n/a	n/a	n/a	n/a	18	5	8	5	n/a	n/a	n/a	n/a	n/a
805277	PROB	n/a	LTP145	ltpFR	13	n/a	n/a	n/a	n/a	n/a	n/a	14	1	9	4	n/a	n/a	n/a	n/a	n/a
806859	PROB	n/a	LTP145	ltpFR	13	n/a	n/a	n/a	n/a	n/a	n/a	16	8	6	2	n/a	n/a	n/a	n/a	n/a
808733	PROB	n/a	LTP145	ltpFR	13	n/a	n/a	n/a	n/a	n/a	n/a	8	1	5	2	n/a	n/a	n/a	n/a	n/a
810149	PROB	n/a	LTP145	ltpFR	13	n/a	n/a	n/a	n/a	n/a	n/a	18	9	3	6	n/a	n/a	n/a	n/a	n/a
814087	STOP	n/a	LTP145	ltpFR	13	n/a	n/a	n/a	n/a	n/a	n/a	n/a	n/a	n/a	n/a	n/a	n/a	n/a	n/a	n/a
814914	WORD	wordpools/wasnorm_wordpool.txt	LTP145	ltpFR	13	3	0	CHEDDAR	286	n/a	0	n/a	0	0	0	1	0.412841796875	0.57763671875	lower	../fonts/zerothre.ttf
817922	START	n/a	LTP145	ltpFR	13	n/a	n/a	n/a	n/a	n/a	n/a	n/a	n/a	n/a	n/a	n/a	n/a	n/a	n/a	n/a
819088	PROB	n/a	LTP145	ltpFR	13	n/a	n/a	n/a	n/a	n/a	n/a	13	6	1	6	n/a	n/a	n/a	n/a	n/a
820430	PROB	n/a	LTP145	ltpFR	13	n/a	n/a	n/a	n/a	n/a	n/a	19	7	6	6	n/a	n/a	n/a	n/a	n/a
823246	PROB	n/a	LTP145	ltpFR	13	n/a	n/a	n/a	n/a	n/a	n/a	19	8	7	4	n/a	n/a	n/a	n/a	n/a
825220	PROB	n/a	LTP145	ltpFR	13	n/a	n/a	n/a	n/a	n/a	n/a	14	3	3	8	n/a	n/a	n/a	n/a	n/a
827018	PROB	n/a	LTP145	ltpFR	13	n/a	n/a	n/a	n/a	n/a	n/a	7	2	1	4	n/a	n/a	n/a	n/a	n/a
829126	PROB	n/a	LTP145	ltpFR	13	n/a	n/a	n/a	n/a	n/a	n/a	8	1	5	2	n/a	n/a	n/a	n/a	n/a
830775	PROB	n/a	LTP145	ltpFR	13	n/a	n/a	n/a	n/a	n/a	n/a	18	7	7	4	n/a	n/a	n/a	n/a	n/a
832571	STOP	n/a	LTP145	ltpFR	13	n/a	n/a	n/a	n/a	n/a	n/a	n/a	n/a	n/a	n/a	n/a	n/a	n/a	n/a	n/a
835733	REC_START	n/a	LTP145	ltpFR	13	3	n/a	n/a	n/a	n/a	n/a	n/a	0	0	0	n/a	n/a	n/a	n/a	n/a
837189	REC_WORD	wordpools/wasnorm_wordpool.txt	LTP145	ltpFR	13	3	0	ALLEY	15	n/a	1	n/a	0	0	0	n/a	n/a	n/a	n/a	n/a
838253	REC_WORD	wordpools/wasnorm_wordpool.txt	LTP145	ltpFR	13	3	0	WALL	1582	n/a	1	n/a	0	0	0	n/a	n/a	n/a	n/a	n/a
839918	REC_WORD	wordpools/wasnorm_wordpool.txt	LTP145	ltpFR	13	3	0	CLIFF	322	n/a	1	n/a	0	0	0	n/a	n/a	n/a	n/a	n/a
842413	REC_WORD	wordpools/wasnorm_wordpool.txt	LTP145	ltpFR	13	3	n/a	PONY	1102	n/a	n/a	n/a	0	0	0	n/a	n/a	n/a	n/a	n/a
844068	REC_WORD	wordpools/wasnorm_wordpool.txt	LTP145	ltpFR	13	3	0	STALLION	1369	n/a	1	n/a	0	0	0	n/a	n/a	n/a	n/a	n/a
848404	REC_WORD	wordpools/wasnorm_wordpool.txt	LTP145	ltpFR	13	3	0	VEIN	1554	n/a	0	n/a	0	0	0	n/a	n/a	n/a	n/a	n/a
849711	REC_WORD	wordpools/wasnorm_wordpool.txt	LTP145	ltpFR	13	3	0	KIDNEY	776	n/a	0	n/a	0	0	0	n/a	n/a	n/a	n/a	n/a
913805	START	n/a	LTP145	ltpFR	13	n/a	n/a	n/a	n/a	n/a	n/a	n/a	n/a	n/a	n/a	n/a	n/a	n/a	n/a	n/a
915305	PROB	n/a	LTP145	ltpFR	13	n/a	n/a	n/a	n/a	n/a	n/a	17	6	6	5	n/a	n/a	n/a	n/a	n/a
917045	PROB	n/a	LTP145	ltpFR	13	n/a	n/a	n/a	n/a	n/a	n/a	15	5	4	6	n/a	n/a	n/a	n/a	n/a
918495	PROB	n/a	LTP145	ltpFR	13	n/a	n/a	n/a	n/a	n/a	n/a	15	4	2	9	n/a	n/a	n/a	n/a	n/a
920331	STOP	n/a	LTP145	ltpFR	13	n/a	n/a	n/a	n/a	n/a	n/a	n/a	n/a	n/a	n/a	n/a	n/a	n/a	n/a	n/a
922851	WORD	wordpools/wasnorm_wordpool.txt	LTP145	ltpFR	13	4	0	PUMP	1141	n/a	0	n/a	0	0	0	1	0.412841796875	0.57763671875	lower	../fonts/zerothre.ttf
925859	START	n/a	LTP145	ltpFR	13	n/a	n/a	n/a	n/a	n/a	n/a	n/a	n/a	n/a	n/a	n/a	n/a	n/a	n/a	n/a
926941	PROB	n/a	LTP145	ltpFR	13	n/a	n/a	n/a	n/a	n/a	n/a	16	5	4	7	n/a	n/a	n/a	n/a	n/a
929007	PROB	n/a	LTP145	ltpFR	13	n/a	n/a	n/a	n/a	n/a	n/a	17	3	5	9	n/a	n/a	n/a	n/a	n/a
931224	PROB	n/a	LTP145	ltpFR	13	n/a	n/a	n/a	n/a	n/a	n/a	17	5	8	4	n/a	n/a	n/a	n/a	n/a
933563	STOP	n/a	LTP145	ltpFR	13	n/a	n/a	n/a	n/a	n/a	n/a	n/a	n/a	n/a	n/a	n/a	n/a	n/a	n/a	n/a
934863	WORD	wordpools/wasnorm_wordpool.txt	LTP145	ltpFR	13	4	0	JOINT	758	n/a	0	n/a	0	0	0	1	0.412841796875	0.57763671875	lower	../fonts/zerothre.ttf
937871	START	n/a	LTP145	ltpFR	13	n/a	n/a	n/a	n/a	n/a	n/a	n/a	n/a	n/a	n/a	n/a	n/a	n/a	n/a	n/a
938937	PROB	n/a	LTP145	ltpFR	13	n/a	n/a	n/a	n/a	n/a	n/a	9	3	5	1	n/a	n/a	n/a	n/a	n/a
940271	PROB	n/a	LTP145	ltpFR	13	n/a	n/a	n/a	n/a	n/a	n/a	23	8	9	6	n/a	n/a	n/a	n/a	n/a
945871	STOP	n/a	LTP145	ltpFR	13	n/a	n/a	n/a	n/a	n/a	n/a	n/a	n/a	n/a	n/a	n/a	n/a	n/a	n/a	n/a
946851	WORD	wordpools/wasnorm_wordpool.txt	LTP145	ltpFR	13	4	1	GRADUATE	653	n/a	1	n/a	0	0	0	0	0.5869140625	0.422607421875	upper	../fonts/amplitud.ttf
949859	START	n/a	LTP145	ltpFR	13	n/a	n/a	n/a	n/a	n/a	n/a	n/a	n/a	n/a	n/a	n/a	n/a	n/a	n/a	n/a
950816	PROB	n/a	LTP145	ltpFR	13	n/a	n/a	n/a	n/a	n/a	n/a	15	6	7	2	n/a	n/a	n/a	n/a	n/a
952417	PROB	n/a	LTP145	ltpFR	13	n/a	n/a	n/a	n/a	n/a	n/a	18	9	1	8	n/a	n/a	n/a	n/a	n/a
953932	PROB	n/a	LTP145	ltpFR	13	n/a	n/a	n/a	n/a	n/a	n/a	12	4	5	3	n/a	n/a	n/a	n/a	n/a
957859	STOP	n/a	LTP145	ltpFR	13	n/a	n/a	n/a	n/a	n/a	n/a	n/a	n/a	n/a	n/a	n/a	n/a	n/a	n/a	n/a
958913	WORD	wordpools/wasnorm_wordpool.txt	LTP145	ltpFR	13	4	1	PHILOSOPHER	1054	n/a	1	n/a	0	0	0	0	0.5869140625	0.422607421875	upper	../fonts/amplitud.ttf
961921	START	n/a	LTP145	ltpFR	13	n/a	n/a	n/a	n/a	n/a	n/a	n/a	n/a	n/a	n/a	n/a	n/a	n/a	n/a	n/a
962987	PROB	n/a	LTP145	ltpFR	13	n/a	n/a	n/a	n/a	n/a	n/a	10	3	4	3	n/a	n/a	n/a	n/a	n/a
964769	PROB	n/a	LTP145	ltpFR	13	n/a	n/a	n/a	n/a	n/a	n/a	19	2	9	8	n/a	n/a	n/a	n/a	n/a
966470	PROB	n/a	LTP145	ltpFR	13	n/a	n/a	n/a	n/a	n/a	n/a	20	5	7	8	n/a	n/a	n/a	n/a	n/a
969034	STOP	n/a	LTP145	ltpFR	13	n/a	n/a	n/a	n/a	n/a	n/a	n/a	n/a	n/a	n/a	n/a	n/a	n/a	n/a	n/a
970809	WORD	wordpools/wasnorm_wordpool.txt	LTP145	ltpFR	13	4	1	VILLAGE	1566	n/a	1	n/a	0	0	0	0	0.5869140625	0.422607421875	upper	../fonts/amplitud.ttf
973817	START	n/a	LTP145	ltpFR	13	n/a	n/a	n/a	n/a	n/a	n/a	n/a	n/a	n/a	n/a	n/a	n/a	n/a	n/a	n/a
974916	PROB	n/a	LTP145	ltpFR	13	n/a	n/a	n/a	n/a	n/a	n/a	15	9	4	2	n/a	n/a	n/a	n/a	n/a
977873	PROB	n/a	LTP145	ltpFR	13	n/a	n/a	n/a	n/a	n/a	n/a	18	5	8	5	n/a	n/a	n/a	n/a	n/a
981817	STOP	n/a	LTP145	ltpFR	13	n/a	n/a	n/a	n/a	n/a	n/a	n/a	n/a	n/a	n/a	n/a	n/a	n/a	n/a	n/a
983013	WORD	wordpools/wasnorm_wordpool.txt	LTP145	ltpFR	13	4	1	CITY	314	n/a	0	n/a	0	0	0	0	0.5869140625	0.422607421875	upper	../fonts/amplitud.ttf
986021	START	n/a	LTP145	ltpFR	13	n/a	n/a	n/a	n/a	n/a	n/a	n/a	n/a	n/a	n/a	n/a	n/a	n/a	n/a	n/a
986937	PROB	n/a	LTP145	ltpFR	13	n/a	n/a	n/a	n/a	n/a	n/a	22	8	6	8	n/a	n/a	n/a	n/a	n/a
989570	PROB	n/a	LTP145	ltpFR	13	n/a	n/a	n/a	n/a	n/a	n/a	12	4	7	1	n/a	n/a	n/a	n/a	n/a
994021	STOP	n/a	LTP145	ltpFR	13	n/a	n/a	n/a	n/a	n/a	n/a	n/a	n/a	n/a	n/a	n/a	n/a	n/a	n/a	n/a
994950	WORD	wordpools/wasnorm_wordpool.txt	LTP145	ltpFR	13	4	1	SECRETARY	1265	n/a	1	n/a	0	0	0	0	0.5869140625	0.422607421875	upper	../fonts/amplitud.ttf
997958	START	n/a	LTP145	ltpFR	13	n/a	n/a	n/a	n/a	n/a	n/a	n/a	n/a	n/a	n/a	n/a	n/a	n/a	n/a	n/a
998932	PROB	n/a	LTP145	ltpFR	13	n/a	n/a	n/a	n/a	n/a	n/a	14	1	9	4	n/a	n/a	n/a	n/a	n/a
1001249	PROB	n/a	LTP145	ltpFR	13	n/a	n/a	n/a	n/a	n/a	n/a	21	9	8	4	n/a	n/a	n/a	n/a	n/a
1003282	PROB	n/a	LTP145	ltpFR	13	n/a	n/a	n/a	n/a	n/a	n/a	4	1	1	2	n/a	n/a	n/a	n/a	n/a
1004698	STOP	n/a	LTP145	ltpFR	13	n/a	n/a	n/a	n/a	n/a	n/a	n/a	n/a	n/a	n/a	n/a	n/a	n/a	n/a	n/a
1006779	WORD	wordpools/wasnorm_wordpool.txt	LTP145	ltpFR	13	4	0	GLASSES	640	n/a	0	n/a	0	0	0	1	0.412841796875	0.57763671875	lower	../fonts/zerothre.ttf
1009787	START	n/a	LTP145	ltpFR	13	n/a	n/a	n/a	n/a	n/a	n/a	n/a	n/a	n/a	n/a	n/a	n/a	n/a	n/a	n/a
1010911	PROB	n/a	LTP145	ltpFR	13	n/a	n/a	n/a	n/a	n/a	n/a	15	2	7	6	n/a	n/a	n/a	n/a	n/a
1012428	PROB	n/a	LTP145	ltpFR	13	n/a	n/a	n/a	n/a	n/a	n/a	11	4	5	2	n/a	n/a	n/a	n/a	n/a
1014236	PROB	n/a	LTP145	ltpFR	13	n/a	n/a	n/a	n/a	n/a	n/a	17	5	9	3	n/a	n/a	n/a	n/a	n/a
1016970	STOP	n/a	LTP145	ltpFR	13	n/a	n/a	n/a	n/a	n/a	n/a	n/a	n/a	n/a	n/a	n/a	n/a	n/a	n/a	n/a
1018917	WORD	wordpools/wasnorm_wordpool.txt	LTP145	ltpFR	13	4	0	LETTUCE	814	n/a	0	n/a	0	0	0	1	0.412841796875	0.57763671875	lower	../fonts/zerothre.ttf
1021925	START	n/a	LTP145	ltpFR	13	n/a	n/a	n/a	n/a	n/a	n/a	n/a	n/a	n/a	n/a	n/a	n/a	n/a	n/a	n/a
1022874	PROB	n/a	LTP145	ltpFR	13	n/a	n/a	n/a	n/a	n/a	n/a	24	9	8	7	n/a	n/a	n/a	n/a	n/a
1024333	PROB	n/a	LTP145	ltpFR	13	n/a	n/a	n/a	n/a	n/a	n/a	10	6	1	3	n/a	n/a	n/a	n/a	n/a
1025789	PROB	n/a	LTP145	ltpFR	13	n/a	n/a	n/a	n/a	n/a	n/a	16	6	7	3	n/a	n/a	n/a	n/a	n/a
1027223	PROB	n/a	LTP145	ltpFR	13	n/a	n/a	n/a	n/a	n/a	n/a	13	6	3	4	n/a	n/a	n/a	n/a	n/a
1028714	STOP	n/a	LTP145	ltpFR	13	n/a	n/a	n/a	n/a	n/a	n/a	n/a	n/a	n/a	n/a	n/a	n/a	n/a	n/a	n/a
1030754	WORD	wordpools/wasnorm_wordpool.txt	LTP145	ltpFR	13	4	0	WARDROBE	1587	n/a	1	n/a	0	0	0	1	0.412841796875	0.57763671875	lower	../fonts/zerothre.ttf
1033762	START	n/a	LTP145	ltpFR	13	n/a	n/a	n/a	n/a	n/a	n/a	n/a	n/a	n/a	n/a	n/a	n/a	n/a	n/a	n/a
1034878	PROB	n/a	LTP145	ltpFR	13	n/a	n/a	n/a	n/a	n/a	n/a	11	2	2	7	n/a	n/a	n/a	n/a	n/a
1036620	PROB	n/a	LTP145	ltpFR	13	n/a	n/a	n/a	n/a	n/a	n/a	17	9	2	6	n/a	n/a	n/a	n/a	n/a
1039026	PROB	n/a	LTP145	ltpFR	13	n/a	n/a	n/a	n/a	n/a	n/a	13	3	2	8	n/a	n/a	n/a	n/a	n/a
1040834	STOP	n/a	LTP145	ltpFR	13	n/a	n/a	n/a	n/a	n/a	n/a	n/a	n/a	n/a	n/a	n/a	n/a	n/a	n/a	n/a
1042925	WORD	wordpools/wasnorm_wordpool.txt	LTP145	ltpFR	13	4	0	FUR	615	n/a	0	n/a	0	0	0	1	0.412841796875	0.57763671875	lower	../fonts/zerothre.ttf
1045933	START	n/a	LTP145	ltpFR	13	n/a	n/a	n/a	n/a	n/a	n/a	n/a	n/a	n/a	n/a	n/a	n/a	n/a	n/a	n/a
1046799	PROB	n/a	LTP145	ltpFR	13	n/a	n/a	n/a	n/a	n/a	n/a	14	5	1	7	n/a	n/a	n/a	n/a	n/a
1048956	PROB	n/a	LTP145	ltpFR	13	n/a	n/a	n/a	n/a	n/a	n/a	12	7	4	1	n/a	n/a	n/a	n/a	n/a
1053933	STOP	n/a	LTP145	ltpFR	13	n/a	n/a	n/a	n/a	n/a	n/a	n/a	n/a	n/a	n/a	n/a	n/a	n/a	n/a	n/a
1054929	WORD	wordpools/wasnorm_wordpool.txt	LTP145	ltpFR	13	4	0	HARE	688	n/a	0	n/a	0	0	0	1	0.412841796875	0.57763671875	lower	../fonts/zerothre.ttf
1057937	START	n/a	LTP145	ltpFR	13	n/a	n/a	n/a	n/a	n/a	n/a	n/a	n/a	n/a	n/a	n/a	n/a	n/a	n/a	n/a
1058886	PROB	n/a	LTP145	ltpFR	13	n/a	n/a	n/a	n/a	n/a	n/a	5	1	2	2	n/a	n/a	n/a	n/a	n/a
1060011	PROB	n/a	LTP145	ltpFR	13	n/a	n/a	n/a	n/a	n/a	n/a	12	2	8	2	n/a	n/a	n/a	n/a	n/a
1061311	PROB	n/a	LTP145	ltpFR	13	n/a	n/a	n/a	n/a	n/a	n/a	8	4	3	1	n/a	n/a	n/a	n/a	n/a
1062701	PROB	n/a	LTP145	ltpFR	13	n/a	n/a	n/a	n/a	n/a	n/a	11	3	1	7	n/a	n/a	n/a	n/a	n/a
1063976	PROB	n/a	LTP145	ltpFR	13	n/a	n/a	n/a	n/a	n/a	n/a	12	1	9	2	n/a	n/a	n/a	n/a	n/a
1065515	STOP	n/a	LTP145	ltpFR	13	n/a	n/a	n/a	n/a	n/a	n/a	n/a	n/a	n/a	n/a	n/a	n/a	n/a	n/a	n/a
1067108	WORD	wordpools/wasnorm_wordpool.txt	LTP145	ltpFR	13	4	0	BRACES	164	n/a	0	n/a	0	0	0	1	0.412841796875	0.57763671875	lower	../fonts/zerothre.ttf
1070116	START	n/a	LTP145	ltpFR	13	n/a	n/a	n/a	n/a	n/a	n/a	n/a	n/a	n/a	n/a	n/a	n/a	n/a	n/a	n/a
1071065	PROB	n/a	LTP145	ltpFR	13	n/a	n/a	n/a	n/a	n/a	n/a	12	2	1	9	n/a	n/a	n/a	n/a	n/a
1072299	PROB	n/a	LTP145	ltpFR	13	n/a	n/a	n/a	n/a	n/a	n/a	15	4	2	9	n/a	n/a	n/a	n/a	n/a
1074631	PROB	n/a	LTP145	ltpFR	13	n/a	n/a	n/a	n/a	n/a	n/a	20	5	6	9	n/a	n/a	n/a	n/a	n/a
1076906	STOP	n/a	LTP145	ltpFR	13	n/a	n/a	n/a	n/a	n/a	n/a	n/a	n/a	n/a	n/a	n/a	n/a	n/a	n/a	n/a
1079029	WORD	wordpools/wasnorm_wordpool.txt	LTP145	ltpFR	13	4	1	UNDERWEAR	1537	n/a	0	n/a	0	0	0	0	0.5869140625	0.422607421875	upper	../fonts/amplitud.ttf
1082037	START	n/a	LTP145	ltpFR	13	n/a	n/a	n/a	n/a	n/a	n/a	n/a	n/a	n/a	n/a	n/a	n/a	n/a	n/a	n/a
1083144	PROB	n/a	LTP145	ltpFR	13	n/a	n/a	n/a	n/a	n/a	n/a	10	8	1	1	n/a	n/a	n/a	n/a	n/a
1084777	PROB	n/a	LTP145	ltpFR	13	n/a	n/a	n/a	n/a	n/a	n/a	15	6	1	8	n/a	n/a	n/a	n/a	n/a
1086161	PROB	n/a	LTP145	ltpFR	13	n/a	n/a	n/a	n/a	n/a	n/a	16	6	7	3	n/a	n/a	n/a	n/a	n/a
1087477	PROB	n/a	LTP145	ltpFR	13	n/a	n/a	n/a	n/a	n/a	n/a	13	1	6	6	n/a	n/a	n/a	n/a	n/a
1088874	STOP	n/a	LTP145	ltpFR	13	n/a	n/a	n/a	n/a	n/a	n/a	n/a	n/a	n/a	n/a	n/a	n/a	n/a	n/a	n/a
1090858	WORD	wordpools/wasnorm_wordpool.txt	LTP145	ltpFR	13	4	1	SLIME	1327	n/a	0	n/a	0	0	0	0	0.5869140625	0.422607421875	upper	../fonts/amplitud.ttf
1093866	START	n/a	LTP145	ltpFR	13	n/a	n/a	n/a	n/a	n/a	n/a	n/a	n/a	n/a	n/a	n/a	n/a	n/a	n/a	n/a
1094940	PROB	n/a	LTP145	ltpFR	13	n/a	n/a	n/a	n/a	n/a	n/a	10	3	4	3	n/a	n/a	n/a	n/a	n/a
1096914	PROB	n/a	LTP145	ltpFR	13	n/a	n/a	n/a	n/a	n/a	n/a	13	8	3	2	n/a	n/a	n/a	n/a	n/a
1101866	STOP	n/a	LTP145	ltpFR	13	n/a	n/a	n/a	n/a	n/a	n/a	n/a	n/a	n/a	n/a	n/a	n/a	n/a	n/a	n/a
1102695	WORD	wordpools/wasnorm_wordpool.txt	LTP145	ltpFR	13	4	1	CHAIN	273	n/a	0	n/a	0	0	0	0	0.5869140625	0.422607421875	upper	../fonts/amplitud.ttf
1105703	START	n/a	LTP145	ltpFR	13	n/a	n/a	n/a	n/a	n/a	n/a	n/a	n/a	n/a	n/a	n/a	n/a	n/a	n/a	n/a
1106537	PROB	n/a	LTP145	ltpFR	13	n/a	n/a	n/a	n/a	n/a	n/a	17	2	8	7	n/a	n/a	n/a	n/a	n/a
1108528	PROB	n/a	LTP145	ltpFR	13	n/a	n/a	n/a	n/a	n/a	n/a	14	5	6	3	n/a	n/a	n/a	n/a	n/a
1110552	PROB	n/a	LTP145	ltpFR	13	n/a	n/a	n/a	n/a	n/a	n/a	8	4	2	2	n/a	n/a	n/a	n/a	n/a
1111950	PROB	n/a	LTP145	ltpFR	13	n/a	n/a	n/a	n/a	n/a	n/a	18	7	8	3	n/a	n/a	n/a	n/a	n/a
1113331	STOP	n/a	LTP145	ltpFR	13	n/a	n/a	n/a	n/a	n/a	n/a	n/a	n/a	n/a	n/a	n/a	n/a	n/a	n/a	n/a
1115617	REC_START	n/a	LTP145	ltpFR	13	4	n/a	n/a	n/a	n/a	n/a	n/a	0	0	0	n/a	n/a	n/a	n/a	n/a
1121523	REC_WORD	wordpools/wasnorm_wordpool.txt	LTP145	ltpFR	13	4	0	BRACES	164	n/a	0	n/a	0	0	0	n/a	n/a	n/a	n/a	n/a
1122970	REC_WORD	wordpools/wasnorm_wordpool.txt	LTP145	ltpFR	13	4	0	LETTUCE	814	n/a	0	n/a	0	0	0	n/a	n/a	n/a	n/a	n/a
1126033	REC_WORD	wordpools/wasnorm_wordpool.txt	LTP145	ltpFR	13	4	0	JOINT	758	n/a	0	n/a	0	0	0	n/a	n/a	n/a	n/a	n/a
1129046	REC_WORD	wordpools/wasnorm_wordpool.txt	LTP145	ltpFR	13	4	0	PUMP	1141	n/a	0	n/a	0	0	0	n/a	n/a	n/a	n/a	n/a
1131755	REC_WORD	wordpools/wasnorm_wordpool.txt	LTP145	ltpFR	13	4	0	FUR	615	n/a	0	n/a	0	0	0	n/a	n/a	n/a	n/a	n/a
1133002	REC_WORD	wordpools/wasnorm_wordpool.txt	LTP145	ltpFR	13	4	0	HARE	688	n/a	0	n/a	0	0	0	n/a	n/a	n/a	n/a	n/a
1140884	REC_WORD	wordpools/wasnorm_wordpool.txt	LTP145	ltpFR	13	4	0	GLASSES	640	n/a	0	n/a	0	0	0	n/a	n/a	n/a	n/a	n/a
1193946	WORD	wordpools/wasnorm_wordpool.txt	LTP145	ltpFR	13	5	0	COOKBOOK	373	n/a	0	n/a	0	0	0	1	0.412841796875	0.57763671875	lower	../fonts/zerothre.ttf
1198053	WORD	wordpools/wasnorm_wordpool.txt	LTP145	ltpFR	13	5	0	DEODORANT	448	n/a	0	n/a	0	0	0	1	0.412841796875	0.57763671875	lower	../fonts/zerothre.ttf
1202219	WORD	wordpools/wasnorm_wordpool.txt	LTP145	ltpFR	13	5	0	PROFESSOR	1131	n/a	1	n/a	0	0	0	1	0.412841796875	0.57763671875	lower	../fonts/zerothre.ttf
1206276	WORD	wordpools/wasnorm_wordpool.txt	LTP145	ltpFR	13	5	0	BAKER	71	n/a	1	n/a	0	0	0	1	0.412841796875	0.57763671875	lower	../fonts/zerothre.ttf
1210325	WORD	wordpools/wasnorm_wordpool.txt	LTP145	ltpFR	13	5	1	BEDROOM	111	n/a	1	n/a	0	0	0	0	0.5869140625	0.422607421875	upper	../fonts/amplitud.ttf
1214190	WORD	wordpools/wasnorm_wordpool.txt	LTP145	ltpFR	13	5	1	LINEN	825	n/a	0	n/a	0	0	0	0	0.5869140625	0.422607421875	upper	../fonts/amplitud.ttf
1218197	WORD	wordpools/wasnorm_wordpool.txt	LTP145	ltpFR	13	5	1	TAVERN	1437	n/a	0	n/a	0	0	0	0	0.5869140625	0.422607421875	upper	../fonts/amplitud.ttf
1222020	WORD	wordpools/wasnorm_wordpool.txt	LTP145	ltpFR	13	5	1	CELLO	268	n/a	0	n/a	0	0	0	0	0.5869140625	0.422607421875	upper	../fonts/amplitud.ttf
1225985	WORD	wordpools/wasnorm_wordpool.txt	LTP145	ltpFR	13	5	1	RIB	1188	n/a	0	n/a	0	0	0	0	0.5869140625	0.422607421875	upper	../fonts/amplitud.ttf
1229859	WORD	wordpools/wasnorm_wordpool.txt	LTP145	ltpFR	13	5	1	MARROW	872	n/a	0	n/a	0	0	0	0	0.5869140625	0.422607421875	upper	../fonts/amplitud.ttf
1233915	WORD	wordpools/wasnorm_wordpool.txt	LTP145	ltpFR	13	5	0	THIGH	1457	n/a	0	n/a	0	0	0	1	0.412841796875	0.57763671875	lower	../fonts/zerothre.ttf
1237772	WORD	wordpools/wasnorm_wordpool.txt	LTP145	ltpFR	13	5	0	ROOST	1208	n/a	0	n/a	0	0	0	1	0.412841796875	0.57763671875	lower	../fonts/zerothre.ttf
1241904	WORD	wordpools/wasnorm_wordpool.txt	LTP145	ltpFR	13	5	0	CHICKEN	297	n/a	1	n/a	0	0	0	1	0.412841796875	0.57763671875	lower	../fonts/zerothre.ttf
1245828	WORD	wordpools/wasnorm_wordpool.txt	LTP145	ltpFR	13	5	0	REFEREE	1178	n/a	1	n/a	0	0	0	1	0.412841796875	0.57763671875	lower	../fonts/zerothre.ttf
1249885	WORD	wordpools/wasnorm_wordpool.txt	LTP145	ltpFR	13	5	1	STUDENT	1395	n/a	1	n/a	0	0	0	0	0.5869140625	0.422607421875	upper	../fonts/amplitud.ttf
1253717	WORD	wordpools/wasnorm_wordpool.txt	LTP145	ltpFR	13	5	1	JAR	750	n/a	0	n/a	0	0	0	0	0.5869140625	0.422607421875	upper	../fonts/amplitud.ttf
1256724	START	n/a	LTP145	ltpFR	13	n/a	n/a	n/a	n/a	n/a	n/a	n/a	n/a	n/a	n/a	n/a	n/a	n/a	n/a	n/a
1257633	PROB	n/a	LTP145	ltpFR	13	n/a	n/a	n/a	n/a	n/a	n/a	12	1	2	9	n/a	n/a	n/a	n/a	n/a
1259382	PROB	n/a	LTP145	ltpFR	13	n/a	n/a	n/a	n/a	n/a	n/a	15	6	8	1	n/a	n/a	n/a	n/a	n/a
1260989	PROB	n/a	LTP145	ltpFR	13	n/a	n/a	n/a	n/a	n/a	n/a	11	3	1	7	n/a	n/a	n/a	n/a	n/a
1262281	PROB	n/a	LTP145	ltpFR	13	n/a	n/a	n/a	n/a	n/a	n/a	12	2	7	3	n/a	n/a	n/a	n/a	n/a
1263556	PROB	n/a	LTP145	ltpFR	13	n/a	n/a	n/a	n/a	n/a	n/a	18	8	4	6	n/a	n/a	n/a	n/a	n/a
1264954	PROB	n/a	LTP145	ltpFR	13	n/a	n/a	n/a	n/a	n/a	n/a	16	4	7	5	n/a	n/a	n/a	n/a	n/a
1267338	PROB	n/a	LTP145	ltpFR	13	n/a	n/a	n/a	n/a	n/a	n/a	11	2	3	6	n/a	n/a	n/a	n/a	n/a
1269061	PROB	n/a	LTP145	ltpFR	13	n/a	n/a	n/a	n/a	n/a	n/a	18	8	3	7	n/a	n/a	n/a	n/a	n/a
1270570	PROB	n/a	LTP145	ltpFR	13	n/a	n/a	n/a	n/a	n/a	n/a	19	6	4	9	n/a	n/a	n/a	n/a	n/a
1271874	STOP	n/a	LTP145	ltpFR	13	n/a	n/a	n/a	n/a	n/a	n/a	n/a	n/a	n/a	n/a	n/a	n/a	n/a	n/a	n/a
1274619	REC_START	n/a	LTP145	ltpFR	13	5	n/a	n/a	n/a	n/a	n/a	n/a	0	0	0	n/a	n/a	n/a	n/a	n/a
1275871	REC_WORD	wordpools/wasnorm_wordpool.txt	LTP145	ltpFR	13	5	1	JAR	750	n/a	0	n/a	0	0	0	n/a	n/a	n/a	n/a	n/a
1277018	REC_WORD	wordpools/wasnorm_wordpool.txt	LTP145	ltpFR	13	5	1	STUDENT	1395	n/a	1	n/a	0	0	0	n/a	n/a	n/a	n/a	n/a
1278595	REC_WORD	wordpools/wasnorm_wordpool.txt	LTP145	ltpFR	13	5	0	PROFESSOR	1131	n/a	1	n/a	0	0	0	n/a	n/a	n/a	n/a	n/a
1281134	REC_WORD	wordpools/wasnorm_wordpool.txt	LTP145	ltpFR	13	5	0	BAKER	71	n/a	1	n/a	0	0	0	n/a	n/a	n/a	n/a	n/a
1282296	REC_WORD	wordpools/wasnorm_wordpool.txt	LTP145	ltpFR	13	5	0	COOKBOOK	373	n/a	0	n/a	0	0	0	n/a	n/a	n/a	n/a	n/a
1284092	REC_WORD	wordpools/wasnorm_wordpool.txt	LTP145	ltpFR	13	5	0	DEODORANT	448	n/a	0	n/a	0	0	0	n/a	n/a	n/a	n/a	n/a
1285484	REC_WORD	wordpools/wasnorm_wordpool.txt	LTP145	ltpFR	13	5	1	BEDROOM	111	n/a	1	n/a	0	0	0	n/a	n/a	n/a	n/a	n/a
1286656	REC_WORD	wordpools/wasnorm_wordpool.txt	LTP145	ltpFR	13	5	1	LINEN	825	n/a	0	n/a	0	0	0	n/a	n/a	n/a	n/a	n/a
1295586	REC_WORD	wordpools/wasnorm_wordpool.txt	LTP145	ltpFR	13	5	0	CHICKEN	297	n/a	1	n/a	0	0	0	n/a	n/a	n/a	n/a	n/a
1297302	REC_WORD	wordpools/wasnorm_wordpool.txt	LTP145	ltpFR	13	5	1	RIB	1188	n/a	0	n/a	0	0	0	n/a	n/a	n/a	n/a	n/a
1298274	REC_WORD	wordpools/wasnorm_wordpool.txt	LTP145	ltpFR	13	5	0	THIGH	1457	n/a	0	n/a	0	0	0	n/a	n/a	n/a	n/a	n/a
1299657	REC_WORD	wordpools/wasnorm_wordpool.txt	LTP145	ltpFR	13	5	0	ROOST	1208	n/a	0	n/a	0	0	0	n/a	n/a	n/a	n/a	n/a
1317726	REC_WORD	wordpools/wasnorm_wordpool.txt	LTP145	ltpFR	13	5	1	MARROW	872	n/a	0	n/a	0	0	0	n/a	n/a	n/a	n/a	n/a
1355131	WORD	wordpools/wasnorm_wordpool.txt	LTP145	ltpFR	13	6	0	TIDE	1465	n/a	0	n/a	0	0	0	1	0.412841796875	0.57763671875	lower	../fonts/zerothre.ttf
1359164	WORD	wordpools/wasnorm_wordpool.txt	LTP145	ltpFR	13	6	0	IGLOO	734	n/a	1	n/a	0	0	0	1	0.412841796875	0.57763671875	lower	../fonts/zerothre.ttf
1363320	WORD	wordpools/wasnorm_wordpool.txt	LTP145	ltpFR	13	6	0	BOTTLE	153	n/a	0	n/a	0	0	0	1	0.412841796875	0.57763671875	lower	../fonts/zerothre.ttf
1367486	WORD	wordpools/wasnorm_wordpool.txt	LTP145	ltpFR	13	6	0	DUNGEON	507	n/a	1	n/a	0	0	0	1	0.412841796875	0.57763671875	lower	../fonts/zerothre.ttf
1371567	WORD	wordpools/wasnorm_wordpool.txt	LTP145	ltpFR	13	6	0	COTTON	385	n/a	0	n/a	0	0	0	1	0.412841796875	0.57763671875	lower	../fonts/zerothre.ttf
1375707	WORD	wordpools/wasnorm_wordpool.txt	LTP145	ltpFR	13	6	0	PEDESTRIAN	1038	n/a	1	n/a	0	0	0	1	0.412841796875	0.57763671875	lower	../fonts/zerothre.ttf
1379914	WORD	wordpools/wasnorm_wordpool.txt	LTP145	ltpFR	13	6	0	BUILDING	191	n/a	1	n/a	0	0	0	1	0.412841796875	0.57763671875	lower	../fonts/zerothre.ttf
1383904	WORD	wordpools/wasnorm_wordpool.txt	LTP145	ltpFR	13	6	0	WAREHOUSE	1588	n/a	1	n/a	0	0	0	1	0.412841796875	0.57763671875	lower	../fonts/zerothre.ttf
1388077	WORD	wordpools/wasnorm_wordpool.txt	LTP145	ltpFR	13	6	0	GRAPE	654	n/a	0	n/a	0	0	0	1	0.412841796875	0.57763671875	lower	../fonts/zerothre.ttf
1392151	WORD	wordpools/wasnorm_wordpool.txt	LTP145	ltpFR	13	6	0	HARP	689	n/a	1	n/a	0	0	0	1	0.412841796875	0.57763671875	lower	../fonts/zerothre.ttf
1396184	WORD	wordpools/wasnorm_wordpool.txt	LTP145	ltpFR	13	6	0	TUBA	1515	n/a	1	n/a	0	0	0	1	0.412841796875	0.57763671875	lower	../fonts/zerothre.ttf
1400182	WORD	wordpools/wasnorm_wordpool.txt	LTP145	ltpFR	13	6	0	ICE	730	n/a	1	n/a	0	0	0	1	0.412841796875	0.57763671875	lower	../fonts/zerothre.ttf
1404189	WORD	wordpools/wasnorm_wordpool.txt	LTP145	ltpFR	13	6	0	STONE	1385	n/a	1	n/a	0	0	0	1	0.412841796875	0.57763671875	lower	../fonts/zerothre.ttf
1408346	WORD	wordpools/wasnorm_wordpool.txt	LTP145	ltpFR	13	6	0	DUNE	506	n/a	1	n/a	0	0	0	1	0.412841796875	0.57763671875	lower	../fonts/zerothre.ttf
1412370	WORD	wordpools/wasnorm_wordpool.txt	LTP145	ltpFR	13	6	0	PORCH	1106	n/a	1	n/a	0	0	0	1	0.412841796875	0.57763671875	lower	../fonts/zerothre.ttf
1416227	WORD	wordpools/wasnorm_wordpool.txt	LTP145	ltpFR	13	6	0	SWING	1421	n/a	1	n/a	0	0	0	1	0.412841796875	0.57763671875	lower	../fonts/zerothre.ttf
1422107	REC_START	n/a	LTP145	ltpFR	13	6	n/a	n/a	n/a	n/a	n/a	n/a	0	0	0	n/a	n/a	n/a	n/a	n/a
1425514	REC_WORD	wordpools/wasnorm_wordpool.txt	LTP145	ltpFR	13	6	0	IGLOO	734	n/a	1	n/a	0	0	0	n/a	n/a	n/a	n/a	n/a
1426637	REC_WORD	wordpools/wasnorm_wordpool.txt	LTP145	ltpFR	13	6	0	ICE	730	n/a	1	n/a	0	0	0	n/a	n/a	n/a	n/a	n/a
1428627	REC_WORD	wordpools/wasnorm_wordpool.txt	LTP145	ltpFR	13	6	0	PORCH	1106	n/a	1	n/a	0	0	0	n/a	n/a	n/a	n/a	n/a
1429462	REC_WORD	wordpools/wasnorm_wordpool.txt	LTP145	ltpFR	13	6	0	SWING	1421	n/a	1	n/a	0	0	0	n/a	n/a	n/a	n/a	n/a
1431715	REC_WORD	wordpools/wasnorm_wordpool.txt	LTP145	ltpFR	13	6	0	BUILDING	191	n/a	1	n/a	0	0	0	n/a	n/a	n/a	n/a	n/a
1432746	REC_WORD	wordpools/wasnorm_wordpool.txt	LTP145	ltpFR	13	6	0	WAREHOUSE	1588	n/a	1	n/a	0	0	0	n/a	n/a	n/a	n/a	n/a
1434052	REC_WORD	wordpools/wasnorm_wordpool.txt	LTP145	ltpFR	13	6	0	DUNGEON	507	n/a	1	n/a	0	0	0	n/a	n/a	n/a	n/a	n/a
1436354	REC_WORD	wordpools/wasnorm_wordpool.txt	LTP145	ltpFR	13	6	0	PEDESTRIAN	1038	n/a	1	n/a	0	0	0	n/a	n/a	n/a	n/a	n/a
1437751	REC_WORD	wordpools/wasnorm_wordpool.txt	LTP145	ltpFR	13	6	0	BOTTLE	153	n/a	0	n/a	0	0	0	n/a	n/a	n/a	n/a	n/a
1439248	REC_WORD	wordpools/wasnorm_wordpool.txt	LTP145	ltpFR	13	6	0	COTTON	385	n/a	0	n/a	0	0	0	n/a	n/a	n/a	n/a	n/a
1441687	REC_WORD	wordpools/wasnorm_wordpool.txt	LTP145	ltpFR	13	6	0	TUBA	1515	n/a	1	n/a	0	0	0	n/a	n/a	n/a	n/a	n/a
1442553	REC_WORD	wordpools/wasnorm_wordpool.txt	LTP145	ltpFR	13	6	0	HARP	689	n/a	1	n/a	0	0	0	n/a	n/a	n/a	n/a	n/a
1443507	REC_WORD	wordpools/wasnorm_wordpool.txt	LTP145	ltpFR	13	6	0	GRAPE	654	n/a	0	n/a	0	0	0	n/a	n/a	n/a	n/a	n/a
1452034	REC_WORD	wordpools/wasnorm_wordpool.txt	LTP145	ltpFR	13	6	0	TIDE	1465	n/a	0	n/a	0	0	0	n/a	n/a	n/a	n/a	n/a
1453291	REC_WORD	wordpools/wasnorm_wordpool.txt	LTP145	ltpFR	13	6	0	DUNE	506	n/a	1	n/a	0	0	0	n/a	n/a	n/a	n/a	n/a
1504719	WORD	wordpools/wasnorm_wordpool.txt	LTP145	ltpFR	13	7	0	COACH	331	n/a	1	n/a	0	0	0	1	0.412841796875	0.57763671875	lower	../fonts/zerothre.ttf
1508585	WORD	wordpools/wasnorm_wordpool.txt	LTP145	ltpFR	13	7	0	TRUMPET	1513	n/a	1	n/a	0	0	0	1	0.412841796875	0.57763671875	lower	../fonts/zerothre.ttf
1512426	WORD	wordpools/wasnorm_wordpool.txt	LTP145	ltpFR	13	7	0	MOSS	918	n/a	1	n/a	0	0	0	1	0.412841796875	0.57763671875	lower	../fonts/zerothre.ttf
1516566	WORD	wordpools/wasnorm_wordpool.txt	LTP145	ltpFR	13	7	0	STEM	1376	n/a	0	n/a	0	0	0	1	0.412841796875	0.57763671875	lower	../fonts/zerothre.ttf
1520448	WORD	wordpools/wasnorm_wordpool.txt	LTP145	ltpFR	13	7	0	SHIRT	1287	n/a	1	n/a	0	0	0	1	0.412841796875	0.57763671875	lower	../fonts/zerothre.ttf
1524380	WORD	wordpools/wasnorm_wordpool.txt	LTP145	ltpFR	13	7	0	PIANO	1057	n/a	1	n/a	0	0	0	1	0.412841796875	0.57763671875	lower	../fonts/zerothre.ttf
1528228	WORD	wordpools/wasnorm_wordpool.txt	LTP145	ltpFR	13	7	0	TAPE	1433	n/a	0	n/a	0	0	0	1	0.412841796875	0.57763671875	lower	../fonts/zerothre.ttf
1532059	WORD	wordpools/wasnorm_wordpool.txt	LTP145	ltpFR	13	7	0	CREEK	404	n/a	1	n/a	0	0	0	1	0.412841796875	0.57763671875	lower	../fonts/zerothre.ttf
1536041	WORD	wordpools/wasnorm_wordpool.txt	LTP145	ltpFR	13	7	0	CAT	257	n/a	0	n/a	0	0	0	1	0.412841796875	0.57763671875	lower	../fonts/zerothre.ttf
1540224	WORD	wordpools/wasnorm_wordpool.txt	LTP145	ltpFR	13	7	0	INVENTOR	743	n/a	1	n/a	0	0	0	1	0.412841796875	0.57763671875	lower	../fonts/zerothre.ttf
1544097	WORD	wordpools/wasnorm_wordpool.txt	LTP145	ltpFR	13	7	0	CANDY	230	n/a	0	n/a	0	0	0	1	0.412841796875	0.57763671875	lower	../fonts/zerothre.ttf
1548163	WORD	wordpools/wasnorm_wordpool.txt	LTP145	ltpFR	13	7	0	PASTRY	1022	n/a	0	n/a	0	0	0	1	0.412841796875	0.57763671875	lower	../fonts/zerothre.ttf
1551986	WORD	wordpools/wasnorm_wordpool.txt	LTP145	ltpFR	13	7	0	ARTIST	43	n/a	1	n/a	0	0	0	1	0.412841796875	0.57763671875	lower	../fonts/zerothre.ttf
1556059	WORD	wordpools/wasnorm_wordpool.txt	LTP145	ltpFR	13	7	0	CHECKERS	285	n/a	0	n/a	0	0	0	1	0.412841796875	0.57763671875	lower	../fonts/zerothre.ttf
1559949	WORD	wordpools/wasnorm_wordpool.txt	LTP145	ltpFR	13	7	0	DRESS	495	n/a	0	n/a	0	0	0	1	0.412841796875	0.57763671875	lower	../fonts/zerothre.ttf
1564123	WORD	wordpools/wasnorm_wordpool.txt	LTP145	ltpFR	13	7	0	WOLF	1619	n/a	1	n/a	0	0	0	1	0.412841796875	0.57763671875	lower	../fonts/zerothre.ttf
1567130	START	n/a	LTP145	ltpFR	13	n/a	n/a	n/a	n/a	n/a	n/a	n/a	n/a	n/a	n/a	n/a	n/a	n/a	n/a	n/a
1568013	PROB	n/a	LTP145	ltpFR	13	n/a	n/a	n/a	n/a	n/a	n/a	16	7	7	2	n/a	n/a	n/a	n/a	n/a
1569688	PROB	n/a	LTP145	ltpFR	13	n/a	n/a	n/a	n/a	n/a	n/a	14	6	1	7	n/a	n/a	n/a	n/a	n/a
1571230	PROB	n/a	LTP145	ltpFR	13	n/a	n/a	n/a	n/a	n/a	n/a	17	6	5	6	n/a	n/a	n/a	n/a	n/a
1573379	PROB	n/a	LTP145	ltpFR	13	n/a	n/a	n/a	n/a	n/a	n/a	11	1	8	2	n/a	n/a	n/a	n/a	n/a
1574667	STOP	n/a	LTP145	ltpFR	13	n/a	n/a	n/a	n/a	n/a	n/a	n/a	n/a	n/a	n/a	n/a	n/a	n/a	n/a	n/a
1577052	REC_START	n/a	LTP145	ltpFR	13	7	n/a	n/a	n/a	n/a	n/a	n/a	0	0	0	n/a	n/a	n/a	n/a	n/a
1579142	REC_WORD	wordpools/wasnorm_wordpool.txt	LTP145	ltpFR	13	7	0	WOLF	1619	n/a	1	n/a	0	0	0	n/a	n/a	n/a	n/a	n/a
1580883	REC_WORD	wordpools/wasnorm_wordpool.txt	LTP145	ltpFR	13	7	0	PIANO	1057	n/a	1	n/a	0	0	0	n/a	n/a	n/a	n/a	n/a
1581966	REC_WORD	wordpools/wasnorm_wordpool.txt	LTP145	ltpFR	13	7	0	COACH	331	n/a	1	n/a	0	0	0	n/a	n/a	n/a	n/a	n/a
1582978	REC_WORD	wordpools/wasnorm_wordpool.txt	LTP145	ltpFR	13	7	0	MOSS	918	n/a	1	n/a	0	0	0	n/a	n/a	n/a	n/a	n/a
1583918	REC_WORD	wordpools/wasnorm_wordpool.txt	LTP145	ltpFR	13	7	0	STEM	1376	n/a	0	n/a	0	0	0	n/a	n/a	n/a	n/a	n/a
1585483	REC_WORD	wordpools/wasnorm_wordpool.txt	LTP145	ltpFR	13	7	0	CHECKERS	285	n/a	0	n/a	0	0	0	n/a	n/a	n/a	n/a	n/a
1586426	REC_WORD	wordpools/wasnorm_wordpool.txt	LTP145	ltpFR	13	7	0	TRUMPET	1513	n/a	1	n/a	0	0	0	n/a	n/a	n/a	n/a	n/a
1591434	REC_WORD	wordpools/wasnorm_wordpool.txt	LTP145	ltpFR	13	7	0	ARTIST	43	n/a	1	n/a	0	0	0	n/a	n/a	n/a	n/a	n/a
1592272	REC_WORD	wordpools/wasnorm_wordpool.txt	LTP145	ltpFR	13	7	0	INVENTOR	743	n/a	1	n/a	0	0	0	n/a	n/a	n/a	n/a	n/a
1594467	REC_WORD	wordpools/wasnorm_wordpool.txt	LTP145	ltpFR	13	7	0	TAPE	1433	n/a	0	n/a	0	0	0	n/a	n/a	n/a	n/a	n/a
1602220	REC_WORD	wordpools/wasnorm_wordpool.txt	LTP145	ltpFR	13	7	0	SHIRT	1287	n/a	1	n/a	0	0	0	n/a	n/a	n/a	n/a	n/a
1655757	START	n/a	LTP145	ltpFR	13	n/a	n/a	n/a	n/a	n/a	n/a	n/a	n/a	n/a	n/a	n/a	n/a	n/a	n/a	n/a
1657266	PROB	n/a	LTP145	ltpFR	13	n/a	n/a	n/a	n/a	n/a	n/a	11	2	2	7	n/a	n/a	n/a	n/a	n/a
1659298	PROB	n/a	LTP145	ltpFR	13	n/a	n/a	n/a	n/a	n/a	n/a	20	4	9	7	n/a	n/a	n/a	n/a	n/a
1662283	STOP	n/a	LTP145	ltpFR	13	n/a	n/a	n/a	n/a	n/a	n/a	n/a	n/a	n/a	n/a	n/a	n/a	n/a	n/a	n/a
1664680	WORD	wordpools/wasnorm_wordpool.txt	LTP145	ltpFR	13	8	1	CINNAMON	310	n/a	0	n/a	0	0	0	0	0.5869140625	0.422607421875	upper	../fonts/amplitud.ttf
1667687	START	n/a	LTP145	ltpFR	13	n/a	n/a	n/a	n/a	n/a	n/a	n/a	n/a	n/a	n/a	n/a	n/a	n/a	n/a	n/a
1668836	PROB	n/a	LTP145	ltpFR	13	n/a	n/a	n/a	n/a	n/a	n/a	19	7	4	8	n/a	n/a	n/a	n/a	n/a
1670902	PROB	n/a	LTP145	ltpFR	13	n/a	n/a	n/a	n/a	n/a	n/a	12	5	1	6	n/a	n/a	n/a	n/a	n/a
1672352	PROB	n/a	LTP145	ltpFR	13	n/a	n/a	n/a	n/a	n/a	n/a	21	9	7	5	n/a	n/a	n/a	n/a	n/a
1674379	STOP	n/a	LTP145	ltpFR	13	n/a	n/a	n/a	n/a	n/a	n/a	n/a	n/a	n/a	n/a	n/a	n/a	n/a	n/a	n/a
1676750	WORD	wordpools/wasnorm_wordpool.txt	LTP145	ltpFR	13	8	1	MARBLE	867	n/a	0	n/a	0	0	0	0	0.5869140625	0.422607421875	upper	../fonts/amplitud.ttf
1679757	START	n/a	LTP145	ltpFR	13	n/a	n/a	n/a	n/a	n/a	n/a	n/a	n/a	n/a	n/a	n/a	n/a	n/a	n/a	n/a
1680624	PROB	n/a	LTP145	ltpFR	13	n/a	n/a	n/a	n/a	n/a	n/a	14	1	4	9	n/a	n/a	n/a	n/a	n/a
1682064	PROB	n/a	LTP145	ltpFR	13	n/a	n/a	n/a	n/a	n/a	n/a	10	2	6	2	n/a	n/a	n/a	n/a	n/a
1683847	PROB	n/a	LTP145	ltpFR	13	n/a	n/a	n/a	n/a	n/a	n/a	25	8	8	9	n/a	n/a	n/a	n/a	n/a
1685821	PROB	n/a	LTP145	ltpFR	13	n/a	n/a	n/a	n/a	n/a	n/a	18	6	6	6	n/a	n/a	n/a	n/a	n/a
1687130	STOP	n/a	LTP145	ltpFR	13	n/a	n/a	n/a	n/a	n/a	n/a	n/a	n/a	n/a	n/a	n/a	n/a	n/a	n/a	n/a
1688829	WORD	wordpools/wasnorm_wordpool.txt	LTP145	ltpFR	13	8	1	SCOUT	1252	n/a	1	n/a	0	0	0	0	0.5869140625	0.422607421875	upper	../fonts/amplitud.ttf
1691836	START	n/a	LTP145	ltpFR	13	n/a	n/a	n/a	n/a	n/a	n/a	n/a	n/a	n/a	n/a	n/a	n/a	n/a	n/a	n/a
1692810	PROB	n/a	LTP145	ltpFR	13	n/a	n/a	n/a	n/a	n/a	n/a	21	5	8	8	n/a	n/a	n/a	n/a	n/a
1694411	PROB	n/a	LTP145	ltpFR	13	n/a	n/a	n/a	n/a	n/a	n/a	5	1	2	2	n/a	n/a	n/a	n/a	n/a
1695494	PROB	n/a	LTP145	ltpFR	13	n/a	n/a	n/a	n/a	n/a	n/a	13	1	3	9	n/a	n/a	n/a	n/a	n/a
1697001	PROB	n/a	LTP145	ltpFR	13	n/a	n/a	n/a	n/a	n/a	n/a	23	6	8	9	n/a	n/a	n/a	n/a	n/a
1699187	STOP	n/a	LTP145	ltpFR	13	n/a	n/a	n/a	n/a	n/a	n/a	n/a	n/a	n/a	n/a	n/a	n/a	n/a	n/a	n/a
1700816	WORD	wordpools/wasnorm_wordpool.txt	LTP145	ltpFR	13	8	0	MONKEY	911	n/a	1	n/a	0	0	0	1	0.412841796875	0.57763671875	lower	../fonts/zerothre.ttf
1703824	START	n/a	LTP145	ltpFR	13	n/a	n/a	n/a	n/a	n/a	n/a	n/a	n/a	n/a	n/a	n/a	n/a	n/a	n/a	n/a
1704990	PROB	n/a	LTP145	ltpFR	13	n/a	n/a	n/a	n/a	n/a	n/a	20	4	8	8	n/a	n/a	n/a	n/a	n/a
1706423	PROB	n/a	LTP145	ltpFR	13	n/a	n/a	n/a	n/a	n/a	n/a	15	6	3	6	n/a	n/a	n/a	n/a	n/a
1708256	PROB	n/a	LTP145	ltpFR	13	n/a	n/a	n/a	n/a	n/a	n/a	10	5	3	2	n/a	n/a	n/a	n/a	n/a
1710571	STOP	n/a	LTP145	ltpFR	13	n/a	n/a	n/a	n/a	n/a	n/a	n/a	n/a	n/a	n/a	n/a	n/a	n/a	n/a	n/a
1712787	WORD	wordpools/wasnorm_wordpool.txt	LTP145	ltpFR	13	8	0	JET	756	n/a	1	n/a	0	0	0	1	0.412841796875	0.57763671875	lower	../fonts/zerothre.ttf
1715794	START	n/a	LTP145	ltpFR	13	n/a	n/a	n/a	n/a	n/a	n/a	n/a	n/a	n/a	n/a	n/a	n/a	n/a	n/a	n/a
1716852	PROB	n/a	LTP145	ltpFR	13	n/a	n/a	n/a	n/a	n/a	n/a	9	3	1	5	n/a	n/a	n/a	n/a	n/a
1718277	PROB	n/a	LTP145	ltpFR	13	n/a	n/a	n/a	n/a	n/a	n/a	14	9	3	2	n/a	n/a	n/a	n/a	n/a
1720084	PROB	n/a	LTP145	ltpFR	13	n/a	n/a	n/a	n/a	n/a	n/a	9	5	3	1	n/a	n/a	n/a	n/a	n/a
1723794	STOP	n/a	LTP145	ltpFR	13	n/a	n/a	n/a	n/a	n/a	n/a	n/a	n/a	n/a	n/a	n/a	n/a	n/a	n/a	n/a
1724617	WORD	wordpools/wasnorm_wordpool.txt	LTP145	ltpFR	13	8	0	DISH	474	n/a	0	n/a	0	0	0	1	0.412841796875	0.57763671875	lower	../fonts/zerothre.ttf
1727625	START	n/a	LTP145	ltpFR	13	n/a	n/a	n/a	n/a	n/a	n/a	n/a	n/a	n/a	n/a	n/a	n/a	n/a	n/a	n/a
1728441	PROB	n/a	LTP145	ltpFR	13	n/a	n/a	n/a	n/a	n/a	n/a	18	4	7	7	n/a	n/a	n/a	n/a	n/a
1730122	PROB	n/a	LTP145	ltpFR	13	n/a	n/a	n/a	n/a	n/a	n/a	16	3	8	5	n/a	n/a	n/a	n/a	n/a
1731772	PROB	n/a	LTP145	ltpFR	13	n/a	n/a	n/a	n/a	n/a	n/a	22	6	7	8	n/a	n/a	n/a	n/a	n/a
1735515	STOP	n/a	LTP145	ltpFR	13	n/a	n/a	n/a	n/a	n/a	n/a	n/a	n/a	n/a	n/a	n/a	n/a	n/a	n/a	n/a
1736695	WORD	wordpools/wasnorm_wordpool.txt	LTP145	ltpFR	13	8	0	CANE	231	n/a	1	n/a	0	0	0	1	0.412841796875	0.57763671875	lower	../fonts/zerothre.ttf
1739703	START	n/a	LTP145	ltpFR	13	n/a	n/a	n/a	n/a	n/a	n/a	n/a	n/a	n/a	n/a	n/a	n/a	n/a	n/a	n/a
1740868	PROB	n/a	LTP145	ltpFR	13	n/a	n/a	n/a	n/a	n/a	n/a	8	4	1	3	n/a	n/a	n/a	n/a	n/a
1742277	PROB	n/a	LTP145	ltpFR	13	n/a	n/a	n/a	n/a	n/a	n/a	6	1	3	2	n/a	n/a	n/a	n/a	n/a
1743610	PROB	n/a	LTP145	ltpFR	13	n/a	n/a	n/a	n/a	n/a	n/a	8	4	3	1	n/a	n/a	n/a	n/a	n/a
1745150	PROB	n/a	LTP145	ltpFR	13	n/a	n/a	n/a	n/a	n/a	n/a	20	3	8	9	n/a	n/a	n/a	n/a	n/a
1747042	STOP	n/a	LTP145	ltpFR	13	n/a	n/a	n/a	n/a	n/a	n/a	n/a	n/a	n/a	n/a	n/a	n/a	n/a	n/a	n/a
1748816	WORD	wordpools/wasnorm_wordpool.txt	LTP145	ltpFR	13	8	1	SCAPEGOAT	1244	n/a	1	n/a	0	0	0	0	0.5869140625	0.422607421875	upper	../fonts/amplitud.ttf
1751823	START	n/a	LTP145	ltpFR	13	n/a	n/a	n/a	n/a	n/a	n/a	n/a	n/a	n/a	n/a	n/a	n/a	n/a	n/a	n/a
1752698	PROB	n/a	LTP145	ltpFR	13	n/a	n/a	n/a	n/a	n/a	n/a	16	5	6	5	n/a	n/a	n/a	n/a	n/a
1754315	PROB	n/a	LTP145	ltpFR	13	n/a	n/a	n/a	n/a	n/a	n/a	16	2	7	7	n/a	n/a	n/a	n/a	n/a
1755847	PROB	n/a	LTP145	ltpFR	13	n/a	n/a	n/a	n/a	n/a	n/a	15	4	6	5	n/a	n/a	n/a	n/a	n/a
1757630	PROB	n/a	LTP145	ltpFR	13	n/a	n/a	n/a	n/a	n/a	n/a	11	1	1	9	n/a	n/a	n/a	n/a	n/a
1758914	STOP	n/a	LTP145	ltpFR	13	n/a	n/a	n/a	n/a	n/a	n/a	n/a	n/a	n/a	n/a	n/a	n/a	n/a	n/a	n/a
1760953	WORD	wordpools/wasnorm_wordpool.txt	LTP145	ltpFR	13	8	1	GIRAFFE	636	n/a	1	n/a	0	0	0	0	0.5869140625	0.422607421875	upper	../fonts/amplitud.ttf
1763961	START	n/a	LTP145	ltpFR	13	n/a	n/a	n/a	n/a	n/a	n/a	n/a	n/a	n/a	n/a	n/a	n/a	n/a	n/a	n/a
1764768	PROB	n/a	LTP145	ltpFR	13	n/a	n/a	n/a	n/a	n/a	n/a	21	4	8	9	n/a	n/a	n/a	n/a	n/a
1766635	PROB	n/a	LTP145	ltpFR	13	n/a	n/a	n/a	n/a	n/a	n/a	13	4	7	2	n/a	n/a	n/a	n/a	n/a
1768842	PROB	n/a	LTP145	ltpFR	13	n/a	n/a	n/a	n/a	n/a	n/a	6	1	1	4	n/a	n/a	n/a	n/a	n/a
1770125	PROB	n/a	LTP145	ltpFR	13	n/a	n/a	n/a	n/a	n/a	n/a	16	3	6	7	n/a	n/a	n/a	n/a	n/a
1771283	STOP	n/a	LTP145	ltpFR	13	n/a	n/a	n/a	n/a	n/a	n/a	n/a	n/a	n/a	n/a	n/a	n/a	n/a	n/a	n/a
1772899	WORD	wordpools/wasnorm_wordpool.txt	LTP145	ltpFR	13	8	1	DEPUTY	450	n/a	1	n/a	0	0	0	0	0.5869140625	0.422607421875	upper	../fonts/amplitud.ttf
1775906	START	n/a	LTP145	ltpFR	13	n/a	n/a	n/a	n/a	n/a	n/a	n/a	n/a	n/a	n/a	n/a	n/a	n/a	n/a	n/a
1776889	PROB	n/a	LTP145	ltpFR	13	n/a	n/a	n/a	n/a	n/a	n/a	18	6	7	5	n/a	n/a	n/a	n/a	n/a
1779030	PROB	n/a	LTP145	ltpFR	13	n/a	n/a	n/a	n/a	n/a	n/a	11	2	5	4	n/a	n/a	n/a	n/a	n/a
1780754	PROB	n/a	LTP145	ltpFR	13	n/a	n/a	n/a	n/a	n/a	n/a	12	9	1	2	n/a	n/a	n/a	n/a	n/a
1782435	STOP	n/a	LTP145	ltpFR	13	n/a	n/a	n/a	n/a	n/a	n/a	n/a	n/a	n/a	n/a	n/a	n/a	n/a	n/a	n/a
1784819	WORD	wordpools/wasnorm_wordpool.txt	LTP145	ltpFR	13	8	1	BADGE	68	n/a	0	n/a	0	0	0	0	0.5869140625	0.422607421875	upper	../fonts/amplitud.ttf
1787827	START	n/a	LTP145	ltpFR	13	n/a	n/a	n/a	n/a	n/a	n/a	n/a	n/a	n/a	n/a	n/a	n/a	n/a	n/a	n/a
1788677	PROB	n/a	LTP145	ltpFR	13	n/a	n/a	n/a	n/a	n/a	n/a	19	4	7	8	n/a	n/a	n/a	n/a	n/a
1790801	PROB	n/a	LTP145	ltpFR	13	n/a	n/a	n/a	n/a	n/a	n/a	8	1	5	2	n/a	n/a	n/a	n/a	n/a
1792401	PROB	n/a	LTP145	ltpFR	13	n/a	n/a	n/a	n/a	n/a	n/a	12	1	2	9	n/a	n/a	n/a	n/a	n/a
1793950	PROB	n/a	LTP145	ltpFR	13	n/a	n/a	n/a	n/a	n/a	n/a	17	8	5	4	n/a	n/a	n/a	n/a	n/a
1795746	STOP	n/a	LTP145	ltpFR	13	n/a	n/a	n/a	n/a	n/a	n/a	n/a	n/a	n/a	n/a	n/a	n/a	n/a	n/a	n/a
1796832	WORD	wordpools/wasnorm_wordpool.txt	LTP145	ltpFR	13	8	1	AIRCRAFT	11	n/a	1	n/a	0	0	0	0	0.5869140625	0.422607421875	upper	../fonts/amplitud.ttf
1799840	START	n/a	LTP145	ltpFR	13	n/a	n/a	n/a	n/a	n/a	n/a	n/a	n/a	n/a	n/a	n/a	n/a	n/a	n/a	n/a
1800922	PROB	n/a	LTP145	ltpFR	13	n/a	n/a	n/a	n/a	n/a	n/a	13	3	9	1	n/a	n/a	n/a	n/a	n/a
1802256	PROB	n/a	LTP145	ltpFR	13	n/a	n/a	n/a	n/a	n/a	n/a	25	8	9	8	n/a	n/a	n/a	n/a	n/a
1804638	PROB	n/a	LTP145	ltpFR	13	n/a	n/a	n/a	n/a	n/a	n/a	18	9	6	3	n/a	n/a	n/a	n/a	n/a
1806475	STOP	n/a	LTP145	ltpFR	13	n/a	n/a	n/a	n/a	n/a	n/a	n/a	n/a	n/a	n/a	n/a	n/a	n/a	n/a	n/a
1808703	WORD	wordpools/wasnorm_wordpool.txt	LTP145	ltpFR	13	8	0	TAR	1435	n/a	0	n/a	0	0	0	1	0.412841796875	0.57763671875	lower	../fonts/zerothre.ttf
1811710	START	n/a	LTP145	ltpFR	13	n/a	n/a	n/a	n/a	n/a	n/a	n/a	n/a	n/a	n/a	n/a	n/a	n/a	n/a	n/a
1812718	PROB	n/a	LTP145	ltpFR	13	n/a	n/a	n/a	n/a	n/a	n/a	17	9	7	1	n/a	n/a	n/a	n/a	n/a
1814277	PROB	n/a	LTP145	ltpFR	13	n/a	n/a	n/a	n/a	n/a	n/a	11	7	2	2	n/a	n/a	n/a	n/a	n/a
1815825	PROB	n/a	LTP145	ltpFR	13	n/a	n/a	n/a	n/a	n/a	n/a	16	3	7	6	n/a	n/a	n/a	n/a	n/a
1817367	PROB	n/a	LTP145	ltpFR	13	n/a	n/a	n/a	n/a	n/a	n/a	16	1	7	8	n/a	n/a	n/a	n/a	n/a
1819307	STOP	n/a	LTP145	ltpFR	13	n/a	n/a	n/a	n/a	n/a	n/a	n/a	n/a	n/a	n/a	n/a	n/a	n/a	n/a	n/a
1820633	WORD	wordpools/wasnorm_wordpool.txt	LTP145	ltpFR	13	8	0	DRESSER	496	n/a	1	n/a	0	0	0	1	0.412841796875	0.57763671875	lower	../fonts/zerothre.ttf
1823641	START	n/a	LTP145	ltpFR	13	n/a	n/a	n/a	n/a	n/a	n/a	n/a	n/a	n/a	n/a	n/a	n/a	n/a	n/a	n/a
1824689	PROB	n/a	LTP145	ltpFR	13	n/a	n/a	n/a	n/a	n/a	n/a	16	2	5	9	n/a	n/a	n/a	n/a	n/a
1826647	PROB	n/a	LTP145	ltpFR	13	n/a	n/a	n/a	n/a	n/a	n/a	17	9	3	5	n/a	n/a	n/a	n/a	n/a
1828313	PROB	n/a	LTP145	ltpFR	13	n/a	n/a	n/a	n/a	n/a	n/a	12	4	7	1	n/a	n/a	n/a	n/a	n/a
1829970	PROB	n/a	LTP145	ltpFR	13	n/a	n/a	n/a	n/a	n/a	n/a	14	3	3	8	n/a	n/a	n/a	n/a	n/a
1831491	STOP	n/a	LTP145	ltpFR	13	n/a	n/a	n/a	n/a	n/a	n/a	n/a	n/a	n/a	n/a	n/a	n/a	n/a	n/a	n/a
1832462	WORD	wordpools/wasnorm_wordpool.txt	LTP145	ltpFR	13	8	0	SOFTBALL	1343	n/a	0	n/a	0	0	0	1	0.412841796875	0.57763671875	lower	../fonts/zerothre.ttf
1835470	START	n/a	LTP145	ltpFR	13	n/a	n/a	n/a	n/a	n/a	n/a	n/a	n/a	n/a	n/a	n/a	n/a	n/a	n/a	n/a
1836419	PROB	n/a	LTP145	ltpFR	13	n/a	n/a	n/a	n/a	n/a	n/a	18	4	9	5	n/a	n/a	n/a	n/a	n/a
1838476	PROB	n/a	LTP145	ltpFR	13	n/a	n/a	n/a	n/a	n/a	n/a	18	8	5	5	n/a	n/a	n/a	n/a	n/a
1840117	PROB	n/a	LTP145	ltpFR	13	n/a	n/a	n/a	n/a	n/a	n/a	6	2	1	3	n/a	n/a	n/a	n/a	n/a
1841467	PROB	n/a	LTP145	ltpFR	13	n/a	n/a	n/a	n/a	n/a	n/a	12	1	4	7	n/a	n/a	n/a	n/a	n/a
1842690	STOP	n/a	LTP145	ltpFR	13	n/a	n/a	n/a	n/a	n/a	n/a	n/a	n/a	n/a	n/a	n/a	n/a	n/a	n/a	n/a
1844566	WORD	wordpools/wasnorm_wordpool.txt	LTP145	ltpFR	13	8	0	RACKET	1155	n/a	1	n/a	0	0	0	1	0.412841796875	0.57763671875	lower	../fonts/zerothre.ttf
1847573	START	n/a	LTP145	ltpFR	13	n/a	n/a	n/a	n/a	n/a	n/a	n/a	n/a	n/a	n/a	n/a	n/a	n/a	n/a	n/a
1848523	PROB	n/a	LTP145	ltpFR	13	n/a	n/a	n/a	n/a	n/a	n/a	6	2	2	2	n/a	n/a	n/a	n/a	n/a
1849572	PROB	n/a	LTP145	ltpFR	13	n/a	n/a	n/a	n/a	n/a	n/a	14	2	6	6	n/a	n/a	n/a	n/a	n/a
1851497	PROB	n/a	LTP145	ltpFR	13	n/a	n/a	n/a	n/a	n/a	n/a	20	6	9	5	n/a	n/a	n/a	n/a	n/a
1855572	STOP	n/a	LTP145	ltpFR	13	n/a	n/a	n/a	n/a	n/a	n/a	n/a	n/a	n/a	n/a	n/a	n/a	n/a	n/a	n/a
1857379	REC_START	n/a	LTP145	ltpFR	13	8	n/a	n/a	n/a	n/a	n/a	n/a	0	0	0	n/a	n/a	n/a	n/a	n/a
1858481	REC_WORD	wordpools/wasnorm_wordpool.txt	LTP145	ltpFR	13	8	0	RACKET	1155	n/a	1	n/a	0	0	0	n/a	n/a	n/a	n/a	n/a
1859464	REC_WORD	wordpools/wasnorm_wordpool.txt	LTP145	ltpFR	13	8	0	SOFTBALL	1343	n/a	0	n/a	0	0	0	n/a	n/a	n/a	n/a	n/a
1879314	REC_WORD	wordpools/wasnorm_wordpool.txt	LTP145	ltpFR	13	8	0	MONKEY	911	n/a	1	n/a	0	0	0	n/a	n/a	n/a	n/a	n/a
1880062	REC_WORD	wordpools/wasnorm_wordpool.txt	LTP145	ltpFR	13	8	1	GIRAFFE	636	n/a	1	n/a	0	0	0	n/a	n/a	n/a	n/a	n/a
1937375	WORD	wordpools/wasnorm_wordpool.txt	LTP145	ltpFR	13	9	1	BLANKET	135	n/a	0	n/a	0	0	0	0	0.5869140625	0.422607421875	upper	../fonts/amplitud.ttf
1941248	WORD	wordpools/wasnorm_wordpool.txt	LTP145	ltpFR	13	9	1	ROOF	1205	n/a	0	n/a	0	0	0	0	0.5869140625	0.422607421875	upper	../fonts/amplitud.ttf
1945397	WORD	wordpools/wasnorm_wordpool.txt	LTP145	ltpFR	13	9	1	SCREEN	1253	n/a	0	n/a	0	0	0	0	0.5869140625	0.422607421875	upper	../fonts/amplitud.ttf
1949279	WORD	wordpools/wasnorm_wordpool.txt	LTP145	ltpFR	13	9	1	DUCK	504	n/a	1	n/a	0	0	0	0	0.5869140625	0.422607421875	upper	../fonts/amplitud.ttf
1953452	WORD	wordpools/wasnorm_wordpool.txt	LTP145	ltpFR	13	9	1	DAM	436	n/a	0	n/a	0	0	0	0	0.5869140625	0.422607421875	upper	../fonts/amplitud.ttf
1957617	WORD	wordpools/wasnorm_wordpool.txt	LTP145	ltpFR	13	9	1	SLIDE	1326	n/a	0	n/a	0	0	0	0	0.5869140625	0.422607421875	upper	../fonts/amplitud.ttf
1961474	WORD	wordpools/wasnorm_wordpool.txt	LTP145	ltpFR	13	9	1	GROUND	666	n/a	0	n/a	0	0	0	0	0.5869140625	0.422607421875	upper	../fonts/amplitud.ttf
1965381	WORD	wordpools/wasnorm_wordpool.txt	LTP145	ltpFR	13	9	1	CORN	381	n/a	0	n/a	0	0	0	0	0.5869140625	0.422607421875	upper	../fonts/amplitud.ttf
1969421	WORD	wordpools/wasnorm_wordpool.txt	LTP145	ltpFR	13	9	1	PLANT	1083	n/a	0	n/a	0	0	0	0	0.5869140625	0.422607421875	upper	../fonts/amplitud.ttf
1973512	WORD	wordpools/wasnorm_wordpool.txt	LTP145	ltpFR	13	9	1	POPCORN	1104	n/a	0	n/a	0	0	0	0	0.5869140625	0.422607421875	upper	../fonts/amplitud.ttf
1977635	WORD	wordpools/wasnorm_wordpool.txt	LTP145	ltpFR	13	9	1	KANGAROO	768	n/a	1	n/a	0	0	0	0	0.5869140625	0.422607421875	upper	../fonts/amplitud.ttf
1981651	WORD	wordpools/wasnorm_wordpool.txt	LTP145	ltpFR	13	9	1	EAGLE	512	n/a	1	n/a	0	0	0	0	0.5869140625	0.422607421875	upper	../fonts/amplitud.ttf
1985773	WORD	wordpools/wasnorm_wordpool.txt	LTP145	ltpFR	13	9	1	DORM	488	n/a	0	n/a	0	0	0	0	0.5869140625	0.422607421875	upper	../fonts/amplitud.ttf
1989863	WORD	wordpools/wasnorm_wordpool.txt	LTP145	ltpFR	13	9	1	PORT	1110	n/a	0	n/a	0	0	0	0	0.5869140625	0.422607421875	upper	../fonts/amplitud.ttf
1993795	WORD	wordpools/wasnorm_wordpool.txt	LTP145	ltpFR	13	9	1	PADDLE	1000	n/a	0	n/a	0	0	0	0	0.5869140625	0.422607421875	upper	../fonts/amplitud.ttf
1997944	WORD	wordpools/wasnorm_wordpool.txt	LTP145	ltpFR	13	9	1	HOME	712	n/a	0	n/a	0	0	0	0	0.5869140625	0.422607421875	upper	../fonts/amplitud.ttf
2000951	START	n/a	LTP145	ltpFR	13	n/a	n/a	n/a	n/a	n/a	n/a	n/a	n/a	n/a	n/a	n/a	n/a	n/a	n/a	n/a
2001934	PROB	n/a	LTP145	ltpFR	13	n/a	n/a	n/a	n/a	n/a	n/a	9	3	2	4	n/a	n/a	n/a	n/a	n/a
2004384	PROB	n/a	LTP145	ltpFR	13	n/a	n/a	n/a	n/a	n/a	n/a	14	2	5	7	n/a	n/a	n/a	n/a	n/a
2008951	STOP	n/a	LTP145	ltpFR	13	n/a	n/a	n/a	n/a	n/a	n/a	n/a	n/a	n/a	n/a	n/a	n/a	n/a	n/a	n/a
2010731	REC_START	n/a	LTP145	ltpFR	13	9	n/a	n/a	n/a	n/a	n/a	n/a	0	0	0	n/a	n/a	n/a	n/a	n/a
2013310	REC_WORD	wordpools/wasnorm_wordpool.txt	LTP145	ltpFR	13	9	1	DUCK	504	n/a	1	n/a	0	0	0	n/a	n/a	n/a	n/a	n/a
2014358	REC_WORD	wordpools/wasnorm_wordpool.txt	LTP145	ltpFR	13	9	1	PADDLE	1000	n/a	0	n/a	0	0	0	n/a	n/a	n/a	n/a	n/a
2015580	REC_WORD	wordpools/wasnorm_wordpool.txt	LTP145	ltpFR	13	9	1	DAM	436	n/a	0	n/a	0	0	0	n/a	n/a	n/a	n/a	n/a
2016742	REC_WORD	wordpools/wasnorm_wordpool.txt	LTP145	ltpFR	13	9	1	ROOF	1205	n/a	0	n/a	0	0	0	n/a	n/a	n/a	n/a	n/a
2017820	REC_WORD	wordpools/wasnorm_wordpool.txt	LTP145	ltpFR	13	9	1	BLANKET	135	n/a	0	n/a	0	0	0	n/a	n/a	n/a	n/a	n/a
2019017	REC_WORD	wordpools/wasnorm_wordpool.txt	LTP145	ltpFR	13	9	1	SCREEN	1253	n/a	0	n/a	0	0	0	n/a	n/a	n/a	n/a	n/a
2022439	REC_WORD	wordpools/wasnorm_wordpool.txt	LTP145	ltpFR	13	9	1	SLIDE	1326	n/a	0	n/a	0	0	0	n/a	n/a	n/a	n/a	n/a
2023699	REC_WORD	wordpools/wasnorm_wordpool.txt	LTP145	ltpFR	13	9	1	GROUND	666	n/a	0	n/a	0	0	0	n/a	n/a	n/a	n/a	n/a
2025128	REC_WORD	wordpools/wasnorm_wordpool.txt	LTP145	ltpFR	13	9	1	CORN	381	n/a	0	n/a	0	0	0	n/a	n/a	n/a	n/a	n/a
2026475	REC_WORD	wordpools/wasnorm_wordpool.txt	LTP145	ltpFR	13	9	1	POPCORN	1104	n/a	0	n/a	0	0	0	n/a	n/a	n/a	n/a	n/a
2027932	REC_WORD	wordpools/wasnorm_wordpool.txt	LTP145	ltpFR	13	9	1	KANGAROO	768	n/a	1	n/a	0	0	0	n/a	n/a	n/a	n/a	n/a
2031030	REC_WORD	wordpools/wasnorm_wordpool.txt	LTP145	ltpFR	13	9	1	HOME	712	n/a	0	n/a	0	0	0	n/a	n/a	n/a	n/a	n/a
2032317	REC_WORD	wordpools/wasnorm_wordpool.txt	LTP145	ltpFR	13	9	1	DORM	488	n/a	0	n/a	0	0	0	n/a	n/a	n/a	n/a	n/a
2037231	REC_WORD	wordpools/wasnorm_wordpool.txt	LTP145	ltpFR	13	9	1	PORT	1110	n/a	0	n/a	0	0	0	n/a	n/a	n/a	n/a	n/a
2088887	START	n/a	LTP145	ltpFR	13	n/a	n/a	n/a	n/a	n/a	n/a	n/a	n/a	n/a	n/a	n/a	n/a	n/a	n/a	n/a
2090387	PROB	n/a	LTP145	ltpFR	13	n/a	n/a	n/a	n/a	n/a	n/a	17	2	6	9	n/a	n/a	n/a	n/a	n/a
2092419	PROB	n/a	LTP145	ltpFR	13	n/a	n/a	n/a	n/a	n/a	n/a	7	3	1	3	n/a	n/a	n/a	n/a	n/a
2094627	PROB	n/a	LTP145	ltpFR	13	n/a	n/a	n/a	n/a	n/a	n/a	19	8	3	8	n/a	n/a	n/a	n/a	n/a
2096460	PROB	n/a	LTP145	ltpFR	13	n/a	n/a	n/a	n/a	n/a	n/a	14	2	8	3	n/a	n/a	n/a	n/a	n/a
2099325	PROB	n/a	LTP145	ltpFR	13	n/a	n/a	n/a	n/a	n/a	n/a	11	5	5	1	n/a	n/a	n/a	n/a	n/a
2100749	PROB	n/a	LTP145	ltpFR	13	n/a	n/a	n/a	n/a	n/a	n/a	15	3	7	5	n/a	n/a	n/a	n/a	n/a
2102366	PROB	n/a	LTP145	ltpFR	13	n/a	n/a	n/a	n/a	n/a	n/a	11	1	4	6	n/a	n/a	n/a	n/a	n/a
2103587	STOP	n/a	LTP145	ltpFR	13	n/a	n/a	n/a	n/a	n/a	n/a	n/a	n/a	n/a	n/a	n/a	n/a	n/a	n/a	n/a
2105789	WORD	wordpools/wasnorm_wordpool.txt	LTP145	ltpFR	13	10	1	BEGGAR	117	n/a	1	n/a	0	0	0	0	0.5869140625	0.422607421875	upper	../fonts/amplitud.ttf
2108796	START	n/a	LTP145	ltpFR	13	n/a	n/a	n/a	n/a	n/a	n/a	n/a	n/a	n/a	n/a	n/a	n/a	n/a	n/a	n/a
2109921	PROB	n/a	LTP145	ltpFR	13	n/a	n/a	n/a	n/a	n/a	n/a	10	4	5	1	n/a	n/a	n/a	n/a	n/a
2111563	PROB	n/a	LTP145	ltpFR	13	n/a	n/a	n/a	n/a	n/a	n/a	6	1	2	3	n/a	n/a	n/a	n/a	n/a
2112944	PROB	n/a	LTP145	ltpFR	13	n/a	n/a	n/a	n/a	n/a	n/a	6	3	1	2	n/a	n/a	n/a	n/a	n/a
2114278	PROB	n/a	LTP145	ltpFR	13	n/a	n/a	n/a	n/a	n/a	n/a	19	3	6	6	n/a	n/a	n/a	n/a	n/a
2115827	PROB	n/a	LTP145	ltpFR	13	n/a	n/a	n/a	n/a	n/a	n/a	25	7	9	9	n/a	n/a	n/a	n/a	n/a
2119618	PROB	n/a	LTP145	ltpFR	13	n/a	n/a	n/a	n/a	n/a	n/a	8	2	4	2	n/a	n/a	n/a	n/a	n/a
2121243	PROB	n/a	LTP145	ltpFR	13	n/a	n/a	n/a	n/a	n/a	n/a	18	7	5	6	n/a	n/a	n/a	n/a	n/a
2123834	STOP	n/a	LTP145	ltpFR	13	n/a	n/a	n/a	n/a	n/a	n/a	n/a	n/a	n/a	n/a	n/a	n/a	n/a	n/a	n/a
2125740	WORD	wordpools/wasnorm_wordpool.txt	LTP145	ltpFR	13	10	1	BEAVER	109	n/a	1	n/a	0	0	0	0	0.5869140625	0.422607421875	upper	../fonts/amplitud.ttf
2128748	START	n/a	LTP145	ltpFR	13	n/a	n/a	n/a	n/a	n/a	n/a	n/a	n/a	n/a	n/a	n/a	n/a	n/a	n/a	n/a
2129905	PROB	n/a	LTP145	ltpFR	13	n/a	n/a	n/a	n/a	n/a	n/a	21	9	4	8	n/a	n/a	n/a	n/a	n/a
2131729	PROB	n/a	LTP145	ltpFR	13	n/a	n/a	n/a	n/a	n/a	n/a	13	1	7	5	n/a	n/a	n/a	n/a	n/a
2133247	PROB	n/a	LTP145	ltpFR	13	n/a	n/a	n/a	n/a	n/a	n/a	17	8	5	4	n/a	n/a	n/a	n/a	n/a
2135070	PROB	n/a	LTP145	ltpFR	13	n/a	n/a	n/a	n/a	n/a	n/a	8	1	3	4	n/a	n/a	n/a	n/a	n/a
2136736	PROB	n/a	LTP145	ltpFR	13	n/a	n/a	n/a	n/a	n/a	n/a	11	2	5	4	n/a	n/a	n/a	n/a	n/a
2138702	PROB	n/a	LTP145	ltpFR	13	n/a	n/a	n/a	n/a	n/a	n/a	22	7	8	7	n/a	n/a	n/a	n/a	n/a
2141893	PROB	n/a	LTP145	ltpFR	13	n/a	n/a	n/a	n/a	n/a	n/a	19	7	3	9	n/a	n/a	n/a	n/a	n/a
2144682	STOP	n/a	LTP145	ltpFR	13	n/a	n/a	n/a	n/a	n/a	n/a	n/a	n/a	n/a	n/a	n/a	n/a	n/a	n/a	n/a
2145576	WORD	wordpools/wasnorm_wordpool.txt	LTP145	ltpFR	13	10	0	PEARL	1034	n/a	0	n/a	0	0	0	1	0.412841796875	0.57763671875	lower	../fonts/zerothre.ttf
2148583	START	n/a	LTP145	ltpFR	13	n/a	n/a	n/a	n/a	n/a	n/a	n/a	n/a	n/a	n/a	n/a	n/a	n/a	n/a	n/a
2149507	PROB	n/a	LTP145	ltpFR	13	n/a	n/a	n/a	n/a	n/a	n/a	14	2	8	4	n/a	n/a	n/a	n/a	n/a
2151390	PROB	n/a	LTP145	ltpFR	13	n/a	n/a	n/a	n/a	n/a	n/a	11	2	2	7	n/a	n/a	n/a	n/a	n/a
2153938	PROB	n/a	LTP145	ltpFR	13	n/a	n/a	n/a	n/a	n/a	n/a	23	7	9	7	n/a	n/a	n/a	n/a	n/a
2156405	PROB	n/a	LTP145	ltpFR	13	n/a	n/a	n/a	n/a	n/a	n/a	18	4	6	8	n/a	n/a	n/a	n/a	n/a
2158070	PROB	n/a	LTP145	ltpFR	13	n/a	n/a	n/a	n/a	n/a	n/a	15	8	4	3	n/a	n/a	n/a	n/a	n/a
2159869	PROB	n/a	LTP145	ltpFR	13	n/a	n/a	n/a	n/a	n/a	n/a	22	5	8	9	n/a	n/a	n/a	n/a	n/a
2164583	STOP	n/a	LTP145	ltpFR	13	n/a	n/a	n/a	n/a	n/a	n/a	n/a	n/a	n/a	n/a	n/a	n/a	n/a	n/a	n/a
2165652	WORD	wordpools/wasnorm_wordpool.txt	LTP145	ltpFR	13	10	0	ASTRONAUT	51	n/a	1	n/a	0	0	0	1	0.412841796875	0.57763671875	lower	../fonts/zerothre.ttf
2168659	START	n/a	LTP145	ltpFR	13	n/a	n/a	n/a	n/a	n/a	n/a	n/a	n/a	n/a	n/a	n/a	n/a	n/a	n/a	n/a
2169816	PROB	n/a	LTP145	ltpFR	13	n/a	n/a	n/a	n/a	n/a	n/a	18	8	4	6	n/a	n/a	n/a	n/a	n/a
2171533	PROB	n/a	LTP145	ltpFR	13	n/a	n/a	n/a	n/a	n/a	n/a	19	9	6	4	n/a	n/a	n/a	n/a	n/a
2173148	PROB	n/a	LTP145	ltpFR	13	n/a	n/a	n/a	n/a	n/a	n/a	17	7	8	2	n/a	n/a	n/a	n/a	n/a
2174657	PROB	n/a	LTP145	ltpFR	13	n/a	n/a	n/a	n/a	n/a	n/a	18	9	4	5	n/a	n/a	n/a	n/a	n/a
2176231	PROB	n/a	LTP145	ltpFR	13	n/a	n/a	n/a	n/a	n/a	n/a	13	1	3	9	n/a	n/a	n/a	n/a	n/a
2178489	PROB	n/a	LTP145	ltpFR	13	n/a	n/a	n/a	n/a	n/a	n/a	11	3	7	1	n/a	n/a	n/a	n/a	n/a
2180605	PROB	n/a	LTP145	ltpFR	13	n/a	n/a	n/a	n/a	n/a	n/a	18	4	5	9	n/a	n/a	n/a	n/a	n/a
2182204	PROB	n/a	LTP145	ltpFR	13	n/a	n/a	n/a	n/a	n/a	n/a	14	5	4	5	n/a	n/a	n/a	n/a	n/a
2184154	STOP	n/a	LTP145	ltpFR	13	n/a	n/a	n/a	n/a	n/a	n/a	n/a	n/a	n/a	n/a	n/a	n/a	n/a	n/a	n/a
2185719	WORD	wordpools/wasnorm_wordpool.txt	LTP145	ltpFR	13	10	0	ANIMAL	23	n/a	1	n/a	0	0	0	1	0.412841796875	0.57763671875	lower	../fonts/zerothre.ttf
2188726	START	n/a	LTP145	ltpFR	13	n/a	n/a	n/a	n/a	n/a	n/a	n/a	n/a	n/a	n/a	n/a	n/a	n/a	n/a	n/a
2189692	PROB	n/a	LTP145	ltpFR	13	n/a	n/a	n/a	n/a	n/a	n/a	12	2	2	8	n/a	n/a	n/a	n/a	n/a
2191117	PROB	n/a	LTP145	ltpFR	13	n/a	n/a	n/a	n/a	n/a	n/a	12	5	5	2	n/a	n/a	n/a	n/a	n/a
2192609	PROB	n/a	LTP145	ltpFR	13	n/a	n/a	n/a	n/a	n/a	n/a	18	7	6	5	n/a	n/a	n/a	n/a	n/a
2194616	PROB	n/a	LTP145	ltpFR	13	n/a	n/a	n/a	n/a	n/a	n/a	19	5	6	8	n/a	n/a	n/a	n/a	n/a
2196616	PROB	n/a	LTP145	ltpFR	13	n/a	n/a	n/a	n/a	n/a	n/a	10	8	1	1	n/a	n/a	n/a	n/a	n/a
2198199	PROB	n/a	LTP145	ltpFR	13	n/a	n/a	n/a	n/a	n/a	n/a	13	3	8	2	n/a	n/a	n/a	n/a	n/a
2199789	PROB	n/a	LTP145	ltpFR	13	n/a	n/a	n/a	n/a	n/a	n/a	11	6	4	1	n/a	n/a	n/a	n/a	n/a
2201096	PROB	n/a	LTP145	ltpFR	13	n/a	n/a	n/a	n/a	n/a	n/a	12	3	3	6	n/a	n/a	n/a	n/a	n/a
2204726	STOP	n/a	LTP145	ltpFR	13	n/a	n/a	n/a	n/a	n/a	n/a	n/a	n/a	n/a	n/a	n/a	n/a	n/a	n/a	n/a
2205761	WORD	wordpools/wasnorm_wordpool.txt	LTP145	ltpFR	13	10	0	LITTER	832	n/a	0	n/a	0	0	0	1	0.412841796875	0.57763671875	lower	../fonts/zerothre.ttf
2208769	START	n/a	LTP145	ltpFR	13	n/a	n/a	n/a	n/a	n/a	n/a	n/a	n/a	n/a	n/a	n/a	n/a	n/a	n/a	n/a
2209935	PROB	n/a	LTP145	ltpFR	13	n/a	n/a	n/a	n/a	n/a	n/a	16	5	9	2	n/a	n/a	n/a	n/a	n/a
2212360	PROB	n/a	LTP145	ltpFR	13	n/a	n/a	n/a	n/a	n/a	n/a	16	9	5	2	n/a	n/a	n/a	n/a	n/a
2214251	PROB	n/a	LTP145	ltpFR	13	n/a	n/a	n/a	n/a	n/a	n/a	19	8	7	4	n/a	n/a	n/a	n/a	n/a
2216417	PROB	n/a	LTP145	ltpFR	13	n/a	n/a	n/a	n/a	n/a	n/a	20	6	5	9	n/a	n/a	n/a	n/a	n/a
2219948	PROB	n/a	LTP145	ltpFR	13	n/a	n/a	n/a	n/a	n/a	n/a	19	8	7	4	n/a	n/a	n/a	n/a	n/a
2221989	PROB	n/a	LTP145	ltpFR	13	n/a	n/a	n/a	n/a	n/a	n/a	15	3	3	9	n/a	n/a	n/a	n/a	n/a
2223555	STOP	n/a	LTP145	ltpFR	13	n/a	n/a	n/a	n/a	n/a	n/a	n/a	n/a	n/a	n/a	n/a	n/a	n/a	n/a	n/a
2225680	WORD	wordpools/wasnorm_wordpool.txt	LTP145	ltpFR	13	10	0	ATHLETE	52	n/a	1	n/a	0	0	0	1	0.412841796875	0.57763671875	lower	../fonts/zerothre.ttf
2228687	START	n/a	LTP145	ltpFR	13	n/a	n/a	n/a	n/a	n/a	n/a	n/a	n/a	n/a	n/a	n/a	n/a	n/a	n/a	n/a
2229761	PROB	n/a	LTP145	ltpFR	13	n/a	n/a	n/a	n/a	n/a	n/a	6	1	2	3	n/a	n/a	n/a	n/a	n/a
2230961	PROB	n/a	LTP145	ltpFR	13	n/a	n/a	n/a	n/a	n/a	n/a	12	6	2	4	n/a	n/a	n/a	n/a	n/a
2232420	PROB	n/a	LTP145	ltpFR	13	n/a	n/a	n/a	n/a	n/a	n/a	22	9	4	9	n/a	n/a	n/a	n/a	n/a
2234369	PROB	n/a	LTP145	ltpFR	13	n/a	n/a	n/a	n/a	n/a	n/a	14	5	3	6	n/a	n/a	n/a	n/a	n/a
2236352	PROB	n/a	LTP145	ltpFR	13	n/a	n/a	n/a	n/a	n/a	n/a	22	9	9	4	n/a	n/a	n/a	n/a	n/a
2238409	PROB	n/a	LTP145	ltpFR	13	n/a	n/a	n/a	n/a	n/a	n/a	25	8	9	8	n/a	n/a	n/a	n/a	n/a
2241316	PROB	n/a	LTP145	ltpFR	13	n/a	n/a	n/a	n/a	n/a	n/a	11	1	1	9	n/a	n/a	n/a	n/a	n/a
2244687	STOP	n/a	LTP145	ltpFR	13	n/a	n/a	n/a	n/a	n/a	n/a	n/a	n/a	n/a	n/a	n/a	n/a	n/a	n/a	n/a
2245697	WORD	wordpools/wasnorm_wordpool.txt	LTP145	ltpFR	13	10	1	CUPBOARD	425	n/a	0	n/a	0	0	0	0	0.5869140625	0.422607421875	upper	../fonts/amplitud.ttf
2248705	START	n/a	LTP145	ltpFR	13	n/a	n/a	n/a	n/a	n/a	n/a	n/a	n/a	n/a	n/a	n/a	n/a	n/a	n/a	n/a
2249746	PROB	n/a	LTP145	ltpFR	13	n/a	n/a	n/a	n/a	n/a	n/a	26	8	9	9	n/a	n/a	n/a	n/a	n/a
2254179	PROB	n/a	LTP145	ltpFR	13	n/a	n/a	n/a	n/a	n/a	n/a	16	8	5	3	n/a	n/a	n/a	n/a	n/a
2255702	PROB	n/a	LTP145	ltpFR	13	n/a	n/a	n/a	n/a	n/a	n/a	10	6	1	3	n/a	n/a	n/a	n/a	n/a
2257386	PROB	n/a	LTP145	ltpFR	13	n/a	n/a	n/a	n/a	n/a	n/a	4	1	1	2	n/a	n/a	n/a	n/a	n/a
2258635	PROB	n/a	LTP145	ltpFR	13	n/a	n/a	n/a	n/a	n/a	n/a	18	8	9	1	n/a	n/a	n/a	n/a	n/a
2260301	PROB	n/a	LTP145	ltpFR	13	n/a	n/a	n/a	n/a	n/a	n/a	23	9	9	5	n/a	n/a	n/a	n/a	n/a
2262251	PROB	n/a	LTP145	ltpFR	13	n/a	n/a	n/a	n/a	n/a	n/a	11	4	4	3	n/a	n/a	n/a	n/a	n/a
2264098	STOP	n/a	LTP145	ltpFR	13	n/a	n/a	n/a	n/a	n/a	n/a	n/a	n/a	n/a	n/a	n/a	n/a	n/a	n/a	n/a
2265624	WORD	wordpools/wasnorm_wordpool.txt	LTP145	ltpFR	13	10	1	SCALLOP	1242	n/a	0	n/a	0	0	0	0	0.5869140625	0.422607421875	upper	../fonts/amplitud.ttf
2268632	START	n/a	LTP145	ltpFR	13	n/a	n/a	n/a	n/a	n/a	n/a	n/a	n/a	n/a	n/a	n/a	n/a	n/a	n/a	n/a
2269689	PROB	n/a	LTP145	ltpFR	13	n/a	n/a	n/a	n/a	n/a	n/a	17	8	4	5	n/a	n/a	n/a	n/a	n/a
2271214	PROB	n/a	LTP145	ltpFR	13	n/a	n/a	n/a	n/a	n/a	n/a	16	9	6	1	n/a	n/a	n/a	n/a	n/a
2272597	PROB	n/a	LTP145	ltpFR	13	n/a	n/a	n/a	n/a	n/a	n/a	14	5	3	6	n/a	n/a	n/a	n/a	n/a
2274663	PROB	n/a	LTP145	ltpFR	13	n/a	n/a	n/a	n/a	n/a	n/a	14	1	5	8	n/a	n/a	n/a	n/a	n/a
2276745	PROB	n/a	LTP145	ltpFR	13	n/a	n/a	n/a	n/a	n/a	n/a	13	6	3	4	n/a	n/a	n/a	n/a	n/a
2279295	PROB	n/a	LTP145	ltpFR	13	n/a	n/a	n/a	n/a	n/a	n/a	23	7	7	9	n/a	n/a	n/a	n/a	n/a
2281461	PROB	n/a	LTP145	ltpFR	13	n/a	n/a	n/a	n/a	n/a	n/a	20	5	9	6	n/a	n/a	n/a	n/a	n/a
2283906	STOP	n/a	LTP145	ltpFR	13	n/a	n/a	n/a	n/a	n/a	n/a	n/a	n/a	n/a	n/a	n/a	n/a	n/a	n/a	n/a
2285700	WORD	wordpools/wasnorm_wordpool.txt	LTP145	ltpFR	13	10	1	FOLDER	588	n/a	0	n/a	0	0	0	0	0.5869140625	0.422607421875	upper	../fonts/amplitud.ttf
2288707	START	n/a	LTP145	ltpFR	13	n/a	n/a	n/a	n/a	n/a	n/a	n/a	n/a	n/a	n/a	n/a	n/a	n/a	n/a	n/a
2289732	PROB	n/a	LTP145	ltpFR	13	n/a	n/a	n/a	n/a	n/a	n/a	10	1	4	5	n/a	n/a	n/a	n/a	n/a
2291190	PROB	n/a	LTP145	ltpFR	13	n/a	n/a	n/a	n/a	n/a	n/a	10	3	3	4	n/a	n/a	n/a	n/a	n/a
2292847	PROB	n/a	LTP145	ltpFR	13	n/a	n/a	n/a	n/a	n/a	n/a	14	1	4	9	n/a	n/a	n/a	n/a	n/a
2294456	PROB	n/a	LTP145	ltpFR	13	n/a	n/a	n/a	n/a	n/a	n/a	11	4	3	4	n/a	n/a	n/a	n/a	n/a
2296347	PROB	n/a	LTP145	ltpFR	13	n/a	n/a	n/a	n/a	n/a	n/a	19	9	3	7	n/a	n/a	n/a	n/a	n/a
2298230	PROB	n/a	LTP145	ltpFR	13	n/a	n/a	n/a	n/a	n/a	n/a	16	7	7	2	n/a	n/a	n/a	n/a	n/a
2299654	PROB	n/a	LTP145	ltpFR	13	n/a	n/a	n/a	n/a	n/a	n/a	18	4	9	5	n/a	n/a	n/a	n/a	n/a
2301620	PROB	n/a	LTP145	ltpFR	13	n/a	n/a	n/a	n/a	n/a	n/a	7	4	1	2	n/a	n/a	n/a	n/a	n/a
2303052	PROB	n/a	LTP145	ltpFR	13	n/a	n/a	n/a	n/a	n/a	n/a	19	9	6	4	n/a	n/a	n/a	n/a	n/a
2304347	STOP	n/a	LTP145	ltpFR	13	n/a	n/a	n/a	n/a	n/a	n/a	n/a	n/a	n/a	n/a	n/a	n/a	n/a	n/a	n/a
2305868	WORD	wordpools/wasnorm_wordpool.txt	LTP145	ltpFR	13	10	1	PAPER	1011	n/a	0	n/a	0	0	0	0	0.5869140625	0.422607421875	upper	../fonts/amplitud.ttf
2308875	START	n/a	LTP145	ltpFR	13	n/a	n/a	n/a	n/a	n/a	n/a	n/a	n/a	n/a	n/a	n/a	n/a	n/a	n/a	n/a
2309691	PROB	n/a	LTP145	ltpFR	13	n/a	n/a	n/a	n/a	n/a	n/a	9	7	1	1	n/a	n/a	n/a	n/a	n/a
2311066	PROB	n/a	LTP145	ltpFR	13	n/a	n/a	n/a	n/a	n/a	n/a	8	1	5	2	n/a	n/a	n/a	n/a	n/a
2313166	PROB	n/a	LTP145	ltpFR	13	n/a	n/a	n/a	n/a	n/a	n/a	10	3	6	1	n/a	n/a	n/a	n/a	n/a
2314549	PROB	n/a	LTP145	ltpFR	13	n/a	n/a	n/a	n/a	n/a	n/a	16	6	6	4	n/a	n/a	n/a	n/a	n/a
2316022	PROB	n/a	LTP145	ltpFR	13	n/a	n/a	n/a	n/a	n/a	n/a	9	7	1	1	n/a	n/a	n/a	n/a	n/a
2317364	PROB	n/a	LTP145	ltpFR	13	n/a	n/a	n/a	n/a	n/a	n/a	15	9	2	4	n/a	n/a	n/a	n/a	n/a
2319472	PROB	n/a	LTP145	ltpFR	13	n/a	n/a	n/a	n/a	n/a	n/a	12	9	2	1	n/a	n/a	n/a	n/a	n/a
2321588	PROB	n/a	LTP145	ltpFR	13	n/a	n/a	n/a	n/a	n/a	n/a	16	6	3	7	n/a	n/a	n/a	n/a	n/a
2322945	PROB	n/a	LTP145	ltpFR	13	n/a	n/a	n/a	n/a	n/a	n/a	4	2	1	1	n/a	n/a	n/a	n/a	n/a
2324163	STOP	n/a	LTP145	ltpFR	13	n/a	n/a	n/a	n/a	n/a	n/a	n/a	n/a	n/a	n/a	n/a	n/a	n/a	n/a	n/a
2326069	WORD	wordpools/wasnorm_wordpool.txt	LTP145	ltpFR	13	10	0	JUPITER	765	n/a	3	n/a	0	0	0	1	0.412841796875	0.57763671875	lower	../fonts/zerothre.ttf
2327236	KEY_MSG	n/a	LTP145	ltpFR	13	10	n/a	n/a	n/a	n/a	n/a	n/a	0	0	0	n/a	n/a	n/a	n/a	n/a
2329076	START	n/a	LTP145	ltpFR	13	n/a	n/a	n/a	n/a	n/a	n/a	n/a	n/a	n/a	n/a	n/a	n/a	n/a	n/a	n/a
2329959	PROB	n/a	LTP145	ltpFR	13	n/a	n/a	n/a	n/a	n/a	n/a	17	5	3	9	n/a	n/a	n/a	n/a	n/a
2331875	PROB	n/a	LTP145	ltpFR	13	n/a	n/a	n/a	n/a	n/a	n/a	20	5	8	7	n/a	n/a	n/a	n/a	n/a
2333659	PROB	n/a	LTP145	ltpFR	13	n/a	n/a	n/a	n/a	n/a	n/a	13	7	2	4	n/a	n/a	n/a	n/a	n/a
2336065	PROB	n/a	LTP145	ltpFR	13	n/a	n/a	n/a	n/a	n/a	n/a	11	4	2	5	n/a	n/a	n/a	n/a	n/a
2338299	PROB	n/a	LTP145	ltpFR	13	n/a	n/a	n/a	n/a	n/a	n/a	24	6	9	9	n/a	n/a	n/a	n/a	n/a
2340590	PROB	n/a	LTP145	ltpFR	13	n/a	n/a	n/a	n/a	n/a	n/a	19	6	7	6	n/a	n/a	n/a	n/a	n/a
2342946	PROB	n/a	LTP145	ltpFR	13	n/a	n/a	n/a	n/a	n/a	n/a	14	4	3	7	n/a	n/a	n/a	n/a	n/a
2344555	STOP	n/a	LTP145	ltpFR	13	n/a	n/a	n/a	n/a	n/a	n/a	n/a	n/a	n/a	n/a	n/a	n/a	n/a	n/a	n/a
2346053	WORD	wordpools/wasnorm_wordpool.txt	LTP145	ltpFR	13	10	0	PAN	1008	n/a	0	n/a	0	0	0	1	0.412841796875	0.57763671875	lower	../fonts/zerothre.ttf
2349069	START	n/a	LTP145	ltpFR	13	n/a	n/a	n/a	n/a	n/a	n/a	n/a	n/a	n/a	n/a	n/a	n/a	n/a	n/a	n/a
2349902	PROB	n/a	LTP145	ltpFR	13	n/a	n/a	n/a	n/a	n/a	n/a	15	7	5	3	n/a	n/a	n/a	n/a	n/a
2352018	PROB	n/a	LTP145	ltpFR	13	n/a	n/a	n/a	n/a	n/a	n/a	13	2	9	2	n/a	n/a	n/a	n/a	n/a
2354268	PROB	n/a	LTP145	ltpFR	13	n/a	n/a	n/a	n/a	n/a	n/a	17	3	8	6	n/a	n/a	n/a	n/a	n/a
2356525	PROB	n/a	LTP145	ltpFR	13	n/a	n/a	n/a	n/a	n/a	n/a	13	2	4	7	n/a	n/a	n/a	n/a	n/a
2358799	PROB	n/a	LTP145	ltpFR	13	n/a	n/a	n/a	n/a	n/a	n/a	11	7	1	3	n/a	n/a	n/a	n/a	n/a
2360482	PROB	n/a	LTP145	ltpFR	13	n/a	n/a	n/a	n/a	n/a	n/a	15	9	1	5	n/a	n/a	n/a	n/a	n/a
2362657	PROB	n/a	LTP145	ltpFR	13	n/a	n/a	n/a	n/a	n/a	n/a	10	7	1	2	n/a	n/a	n/a	n/a	n/a
2364563	STOP	n/a	LTP145	ltpFR	13	n/a	n/a	n/a	n/a	n/a	n/a	n/a	n/a	n/a	n/a	n/a	n/a	n/a	n/a	n/a
2366113	WORD	wordpools/wasnorm_wordpool.txt	LTP145	ltpFR	13	10	0	STOVE	1388	n/a	1	n/a	0	0	0	1	0.412841796875	0.57763671875	lower	../fonts/zerothre.ttf
2369120	START	n/a	LTP145	ltpFR	13	n/a	n/a	n/a	n/a	n/a	n/a	n/a	n/a	n/a	n/a	n/a	n/a	n/a	n/a	n/a
2370036	PROB	n/a	LTP145	ltpFR	13	n/a	n/a	n/a	n/a	n/a	n/a	17	7	4	6	n/a	n/a	n/a	n/a	n/a
2371827	PROB	n/a	LTP145	ltpFR	13	n/a	n/a	n/a	n/a	n/a	n/a	15	8	3	4	n/a	n/a	n/a	n/a	n/a
2374118	PROB	n/a	LTP145	ltpFR	13	n/a	n/a	n/a	n/a	n/a	n/a	18	7	4	7	n/a	n/a	n/a	n/a	n/a
2375901	PROB	n/a	LTP145	ltpFR	13	n/a	n/a	n/a	n/a	n/a	n/a	11	1	8	2	n/a	n/a	n/a	n/a	n/a
2377651	PROB	n/a	LTP145	ltpFR	13	n/a	n/a	n/a	n/a	n/a	n/a	14	7	3	4	n/a	n/a	n/a	n/a	n/a
2379284	PROB	n/a	LTP145	ltpFR	13	n/a	n/a	n/a	n/a	n/a	n/a	8	2	5	1	n/a	n/a	n/a	n/a	n/a
2381132	PROB	n/a	LTP145	ltpFR	13	n/a	n/a	n/a	n/a	n/a	n/a	16	6	1	9	n/a	n/a	n/a	n/a	n/a
2382641	PROB	n/a	LTP145	ltpFR	13	n/a	n/a	n/a	n/a	n/a	n/a	11	7	1	3	n/a	n/a	n/a	n/a	n/a
2384042	STOP	n/a	LTP145	ltpFR	13	n/a	n/a	n/a	n/a	n/a	n/a	n/a	n/a	n/a	n/a	n/a	n/a	n/a	n/a	n/a
2386156	WORD	wordpools/wasnorm_wordpool.txt	LTP145	ltpFR	13	10	1	CHIME	300	n/a	0	n/a	0	0	0	0	0.5869140625	0.422607421875	upper	../fonts/amplitud.ttf
2389164	START	n/a	LTP145	ltpFR	13	n/a	n/a	n/a	n/a	n/a	n/a	n/a	n/a	n/a	n/a	n/a	n/a	n/a	n/a	n/a
2390255	PROB	n/a	LTP145	ltpFR	13	n/a	n/a	n/a	n/a	n/a	n/a	15	9	2	4	n/a	n/a	n/a	n/a	n/a
2392762	PROB	n/a	LTP145	ltpFR	13	n/a	n/a	n/a	n/a	n/a	n/a	13	2	3	8	n/a	n/a	n/a	n/a	n/a
2394462	PROB	n/a	LTP145	ltpFR	13	n/a	n/a	n/a	n/a	n/a	n/a	14	8	5	1	n/a	n/a	n/a	n/a	n/a
2396445	PROB	n/a	LTP145	ltpFR	13	n/a	n/a	n/a	n/a	n/a	n/a	18	8	2	8	n/a	n/a	n/a	n/a	n/a
2398186	PROB	n/a	LTP145	ltpFR	13	n/a	n/a	n/a	n/a	n/a	n/a	11	7	1	3	n/a	n/a	n/a	n/a	n/a
2399552	PROB	n/a	LTP145	ltpFR	13	n/a	n/a	n/a	n/a	n/a	n/a	12	2	8	2	n/a	n/a	n/a	n/a	n/a
2400817	PROB	n/a	LTP145	ltpFR	13	n/a	n/a	n/a	n/a	n/a	n/a	19	7	9	3	n/a	n/a	n/a	n/a	n/a
2402368	PROB	n/a	LTP145	ltpFR	13	n/a	n/a	n/a	n/a	n/a	n/a	10	2	5	3	n/a	n/a	n/a	n/a	n/a
2404122	STOP	n/a	LTP145	ltpFR	13	n/a	n/a	n/a	n/a	n/a	n/a	n/a	n/a	n/a	n/a	n/a	n/a	n/a	n/a	n/a
2406191	WORD	wordpools/wasnorm_wordpool.txt	LTP145	ltpFR	13	10	1	ARMY	39	n/a	1	n/a	0	0	0	0	0.5869140625	0.422607421875	upper	../fonts/amplitud.ttf
2409199	START	n/a	LTP145	ltpFR	13	n/a	n/a	n/a	n/a	n/a	n/a	n/a	n/a	n/a	n/a	n/a	n/a	n/a	n/a	n/a
2410298	PROB	n/a	LTP145	ltpFR	13	n/a	n/a	n/a	n/a	n/a	n/a	23	7	7	9	n/a	n/a	n/a	n/a	n/a
2412189	PROB	n/a	LTP145	ltpFR	13	n/a	n/a	n/a	n/a	n/a	n/a	6	1	3	2	n/a	n/a	n/a	n/a	n/a
2413539	PROB	n/a	LTP145	ltpFR	13	n/a	n/a	n/a	n/a	n/a	n/a	15	5	3	7	n/a	n/a	n/a	n/a	n/a
2415687	PROB	n/a	LTP145	ltpFR	13	n/a	n/a	n/a	n/a	n/a	n/a	15	3	6	6	n/a	n/a	n/a	n/a	n/a
2417637	PROB	n/a	LTP145	ltpFR	13	n/a	n/a	n/a	n/a	n/a	n/a	8	2	5	1	n/a	n/a	n/a	n/a	n/a
2419303	PROB	n/a	LTP145	ltpFR	13	n/a	n/a	n/a	n/a	n/a	n/a	7	2	4	1	n/a	n/a	n/a	n/a	n/a
2421577	PROB	n/a	LTP145	ltpFR	13	n/a	n/a	n/a	n/a	n/a	n/a	10	1	2	7	n/a	n/a	n/a	n/a	n/a
2425198	STOP	n/a	LTP145	ltpFR	13	n/a	n/a	n/a	n/a	n/a	n/a	n/a	n/a	n/a	n/a	n/a	n/a	n/a	n/a	n/a
2427025	REC_START	n/a	LTP145	ltpFR	13	10	n/a	n/a	n/a	n/a	n/a	n/a	0	0	0	n/a	n/a	n/a	n/a	n/a
2429103	REC_WORD	wordpools/wasnorm_wordpool.txt	LTP145	ltpFR	13	10	1	ARMY	39	n/a	1	n/a	0	0	0	n/a	n/a	n/a	n/a	n/a
2430382	REC_WORD	wordpools/wasnorm_wordpool.txt	LTP145	ltpFR	13	10	1	BEAVER	109	n/a	1	n/a	0	0	0	n/a	n/a	n/a	n/a	n/a
2431445	REC_WORD	wordpools/wasnorm_wordpool.txt	LTP145	ltpFR	13	10	1	PAPER	1011	n/a	0	n/a	0	0	0	n/a	n/a	n/a	n/a	n/a
2432552	REC_WORD	wordpools/wasnorm_wordpool.txt	LTP145	ltpFR	13	10	1	FOLDER	588	n/a	0	n/a	0	0	0	n/a	n/a	n/a	n/a	n/a
2445338	REC_WORD	wordpools/wasnorm_wordpool.txt	LTP145	ltpFR	13	10	0	PAN	1008	n/a	0	n/a	0	0	0	n/a	n/a	n/a	n/a	n/a
2455405	REC_WORD	wordpools/wasnorm_wordpool.txt	LTP145	ltpFR	13	10	0	ANIMAL	23	n/a	1	n/a	0	0	0	n/a	n/a	n/a	n/a	n/a
2502607	REST_REWET	n/a	LTP145	ltpFR	13	10	n/a	n/a	n/a	n/a	n/a	n/a	0	0	0	n/a	n/a	n/a	n/a	n/a
2789580	WORD	wordpools/wasnorm_wordpool.txt	LTP145	ltpFR	13	11	1	PUDDLE	1140	n/a	0	n/a	0	0	0	0	0.5869140625	0.422607421875	upper	../fonts/amplitud.ttf
2793395	WORD	wordpools/wasnorm_wordpool.txt	LTP145	ltpFR	13	11	1	WELL	1600	n/a	0	n/a	0	0	0	0	0.5869140625	0.422607421875	upper	../fonts/amplitud.ttf
2797352	WORD	wordpools/wasnorm_wordpool.txt	LTP145	ltpFR	13	11	1	SHRINE	1298	n/a	0	n/a	0	0	0	0	0.5869140625	0.422607421875	upper	../fonts/amplitud.ttf
2801526	WORD	wordpools/wasnorm_wordpool.txt	LTP145	ltpFR	13	11	1	SLUG	1329	n/a	1	n/a	0	0	0	0	0.5869140625	0.422607421875	upper	../fonts/amplitud.ttf
2805723	WORD	wordpools/wasnorm_wordpool.txt	LTP145	ltpFR	13	11	1	HAMPER	682	n/a	0	n/a	0	0	0	0	0.5869140625	0.422607421875	upper	../fonts/amplitud.ttf
2809631	WORD	wordpools/wasnorm_wordpool.txt	LTP145	ltpFR	13	11	1	CLOSET	326	n/a	0	n/a	0	0	0	0	0.5869140625	0.422607421875	upper	../fonts/amplitud.ttf
2813754	WORD	wordpools/wasnorm_wordpool.txt	LTP145	ltpFR	13	11	1	COUGAR	387	n/a	1	n/a	0	0	0	0	0.5869140625	0.422607421875	upper	../fonts/amplitud.ttf
2817760	WORD	wordpools/wasnorm_wordpool.txt	LTP145	ltpFR	13	11	1	COB	334	n/a	0	n/a	0	0	0	0	0.5869140625	0.422607421875	upper	../fonts/amplitud.ttf
2821876	WORD	wordpools/wasnorm_wordpool.txt	LTP145	ltpFR	13	11	1	DRIVER	499	n/a	1	n/a	0	0	0	0	0.5869140625	0.422607421875	upper	../fonts/amplitud.ttf
2825733	WORD	wordpools/wasnorm_wordpool.txt	LTP145	ltpFR	13	11	1	ATTIRE	57	n/a	0	n/a	0	0	0	0	0.5869140625	0.422607421875	upper	../fonts/amplitud.ttf
2829624	WORD	wordpools/wasnorm_wordpool.txt	LTP145	ltpFR	13	11	1	BEARD	107	n/a	0	n/a	0	0	0	0	0.5869140625	0.422607421875	upper	../fonts/amplitud.ttf
2833598	WORD	wordpools/wasnorm_wordpool.txt	LTP145	ltpFR	13	11	1	POPE	1105	n/a	1	n/a	0	0	0	0	0.5869140625	0.422607421875	upper	../fonts/amplitud.ttf
2837728	WORD	wordpools/wasnorm_wordpool.txt	LTP145	ltpFR	13	11	1	RICE	1190	n/a	0	n/a	0	0	0	0	0.5869140625	0.422607421875	upper	../fonts/amplitud.ttf
2841735	WORD	wordpools/wasnorm_wordpool.txt	LTP145	ltpFR	13	11	1	HAMBURGER	679	n/a	0	n/a	0	0	0	0	0.5869140625	0.422607421875	upper	../fonts/amplitud.ttf
2845618	WORD	wordpools/wasnorm_wordpool.txt	LTP145	ltpFR	13	11	1	HERD	705	n/a	0	n/a	0	0	0	0	0.5869140625	0.422607421875	upper	../fonts/amplitud.ttf
2849682	WORD	wordpools/wasnorm_wordpool.txt	LTP145	ltpFR	13	11	1	BARN	89	n/a	0	n/a	0	0	0	0	0.5869140625	0.422607421875	upper	../fonts/amplitud.ttf
2855640	REC_START	n/a	LTP145	ltpFR	13	11	n/a	n/a	n/a	n/a	n/a	n/a	0	0	0	n/a	n/a	n/a	n/a	n/a
2857077	REC_WORD	wordpools/wasnorm_wordpool.txt	LTP145	ltpFR	13	11	1	BARN	89	n/a	0	n/a	0	0	0	n/a	n/a	n/a	n/a	n/a
2858114	REC_WORD	wordpools/wasnorm_wordpool.txt	LTP145	ltpFR	13	11	1	HERD	705	n/a	0	n/a	0	0	0	n/a	n/a	n/a	n/a	n/a
2859606	REC_WORD	wordpools/wasnorm_wordpool.txt	LTP145	ltpFR	13	11	1	COUGAR	387	n/a	1	n/a	0	0	0	n/a	n/a	n/a	n/a	n/a
2860454	REC_WORD	wordpools/wasnorm_wordpool.txt	LTP145	ltpFR	13	11	1	COB	334	n/a	0	n/a	0	0	0	n/a	n/a	n/a	n/a	n/a
2861406	REC_WORD	wordpools/wasnorm_wordpool.txt	LTP145	ltpFR	13	11	1	DRIVER	499	n/a	1	n/a	0	0	0	n/a	n/a	n/a	n/a	n/a
2862504	REC_WORD	wordpools/wasnorm_wordpool.txt	LTP145	ltpFR	13	11	1	BEARD	107	n/a	0	n/a	0	0	0	n/a	n/a	n/a	n/a	n/a
2865502	REC_WORD	wordpools/wasnorm_wordpool.txt	LTP145	ltpFR	13	11	1	WELL	1600	n/a	0	n/a	0	0	0	n/a	n/a	n/a	n/a	n/a
2866490	REC_WORD	wordpools/wasnorm_wordpool.txt	LTP145	ltpFR	13	11	1	SHRINE	1298	n/a	0	n/a	0	0	0	n/a	n/a	n/a	n/a	n/a
2867587	REC_WORD	wordpools/wasnorm_wordpool.txt	LTP145	ltpFR	13	11	1	SLUG	1329	n/a	1	n/a	0	0	0	n/a	n/a	n/a	n/a	n/a
2869089	REC_WORD	wordpools/wasnorm_wordpool.txt	LTP145	ltpFR	13	11	1	PUDDLE	1140	n/a	0	n/a	0	0	0	n/a	n/a	n/a	n/a	n/a
2870037	REC_WORD	wordpools/wasnorm_wordpool.txt	LTP145	ltpFR	13	11	1	ATTIRE	57	n/a	0	n/a	0	0	0	n/a	n/a	n/a	n/a	n/a
2871264	REC_WORD	wordpools/wasnorm_wordpool.txt	LTP145	ltpFR	13	11	1	HAMPER	682	n/a	0	n/a	0	0	0	n/a	n/a	n/a	n/a	n/a
2873095	REC_WORD	wordpools/wasnorm_wordpool.txt	LTP145	ltpFR	13	11	0	WARDROBE	1587	n/a	1	n/a	0	0	0	n/a	n/a	n/a	n/a	n/a
2874018	REC_WORD	wordpools/wasnorm_wordpool.txt	LTP145	ltpFR	13	11	1	CLOSET	326	n/a	0	n/a	0	0	0	n/a	n/a	n/a	n/a	n/a
2934152	WORD	wordpools/wasnorm_wordpool.txt	LTP145	ltpFR	13	12	1	VISITOR	1573	n/a	1	n/a	0	0	0	0	0.5869140625	0.422607421875	upper	../fonts/amplitud.ttf
2938260	WORD	wordpools/wasnorm_wordpool.txt	LTP145	ltpFR	13	12	1	FELLOW	558	n/a	1	n/a	0	0	0	0	0.5869140625	0.422607421875	upper	../fonts/amplitud.ttf
2942375	WORD	wordpools/wasnorm_wordpool.txt	LTP145	ltpFR	13	12	1	BUSH	202	n/a	0	n/a	0	0	0	0	0.5869140625	0.422607421875	upper	../fonts/amplitud.ttf
2946549	WORD	wordpools/wasnorm_wordpool.txt	LTP145	ltpFR	13	12	1	THUMB	1462	n/a	0	n/a	0	0	0	0	0.5869140625	0.422607421875	upper	../fonts/amplitud.ttf
2950681	WORD	wordpools/wasnorm_wordpool.txt	LTP145	ltpFR	13	12	1	HIKER	708	n/a	1	n/a	0	0	0	0	0.5869140625	0.422607421875	upper	../fonts/amplitud.ttf
2954613	WORD	wordpools/wasnorm_wordpool.txt	LTP145	ltpFR	13	12	1	TICKET	1464	n/a	0	n/a	0	0	0	0	0.5869140625	0.422607421875	upper	../fonts/amplitud.ttf
2958785	WORD	wordpools/wasnorm_wordpool.txt	LTP145	ltpFR	13	12	1	TAIL	1430	n/a	0	n/a	0	0	0	0	0.5869140625	0.422607421875	upper	../fonts/amplitud.ttf
2962652	WORD	wordpools/wasnorm_wordpool.txt	LTP145	ltpFR	13	12	1	NUT	965	n/a	0	n/a	0	0	0	0	0.5869140625	0.422607421875	upper	../fonts/amplitud.ttf
2966492	WORD	wordpools/wasnorm_wordpool.txt	LTP145	ltpFR	13	12	1	WAITRESS	1581	n/a	1	n/a	0	0	0	0	0.5869140625	0.422607421875	upper	../fonts/amplitud.ttf
2970457	WORD	wordpools/wasnorm_wordpool.txt	LTP145	ltpFR	13	12	1	FEAST	556	n/a	0	n/a	0	0	0	0	0.5869140625	0.422607421875	upper	../fonts/amplitud.ttf
2974572	WORD	wordpools/wasnorm_wordpool.txt	LTP145	ltpFR	13	12	1	ZOO	1637	n/a	0	n/a	0	0	0	0	0.5869140625	0.422607421875	upper	../fonts/amplitud.ttf
2978488	WORD	wordpools/wasnorm_wordpool.txt	LTP145	ltpFR	13	12	1	POCKET	1093	n/a	0	n/a	0	0	0	0	0.5869140625	0.422607421875	upper	../fonts/amplitud.ttf
2982461	WORD	wordpools/wasnorm_wordpool.txt	LTP145	ltpFR	13	12	1	STEWARDESS	1381	n/a	1	n/a	0	0	0	0	0.5869140625	0.422607421875	upper	../fonts/amplitud.ttf
2986451	WORD	wordpools/wasnorm_wordpool.txt	LTP145	ltpFR	13	12	1	SQUIRREL	1362	n/a	1	n/a	0	0	0	0	0.5869140625	0.422607421875	upper	../fonts/amplitud.ttf
2990508	WORD	wordpools/wasnorm_wordpool.txt	LTP145	ltpFR	13	12	1	SUBURB	1399	n/a	0	n/a	0	0	0	0	0.5869140625	0.422607421875	upper	../fonts/amplitud.ttf
2994640	WORD	wordpools/wasnorm_wordpool.txt	LTP145	ltpFR	13	12	1	LUMBER	848	n/a	0	n/a	0	0	0	0	0.5869140625	0.422607421875	upper	../fonts/amplitud.ttf
2997648	START	n/a	LTP145	ltpFR	13	n/a	n/a	n/a	n/a	n/a	n/a	n/a	n/a	n/a	n/a	n/a	n/a	n/a	n/a	n/a
2998456	PROB	n/a	LTP145	ltpFR	13	n/a	n/a	n/a	n/a	n/a	n/a	20	8	5	7	n/a	n/a	n/a	n/a	n/a
3002037	PROB	n/a	LTP145	ltpFR	13	n/a	n/a	n/a	n/a	n/a	n/a	20	7	9	4	n/a	n/a	n/a	n/a	n/a
3005195	PROB	n/a	LTP145	ltpFR	13	n/a	n/a	n/a	n/a	n/a	n/a	17	6	5	6	n/a	n/a	n/a	n/a	n/a
3006977	PROB	n/a	LTP145	ltpFR	13	n/a	n/a	n/a	n/a	n/a	n/a	19	6	9	4	n/a	n/a	n/a	n/a	n/a
3009652	PROB	n/a	LTP145	ltpFR	13	n/a	n/a	n/a	n/a	n/a	n/a	18	5	7	6	n/a	n/a	n/a	n/a	n/a
3012114	STOP	n/a	LTP145	ltpFR	13	n/a	n/a	n/a	n/a	n/a	n/a	n/a	n/a	n/a	n/a	n/a	n/a	n/a	n/a	n/a
3015517	REC_START	n/a	LTP145	ltpFR	13	12	n/a	n/a	n/a	n/a	n/a	n/a	0	0	0	n/a	n/a	n/a	n/a	n/a
3017592	REC_WORD	wordpools/wasnorm_wordpool.txt	LTP145	ltpFR	13	12	1	LUMBER	848	n/a	0	n/a	0	0	0	n/a	n/a	n/a	n/a	n/a
3018839	REC_WORD	wordpools/wasnorm_wordpool.txt	LTP145	ltpFR	13	12	1	TICKET	1464	n/a	0	n/a	0	0	0	n/a	n/a	n/a	n/a	n/a
3020456	REC_WORD	wordpools/wasnorm_wordpool.txt	LTP145	ltpFR	13	12	1	BUSH	202	n/a	0	n/a	0	0	0	n/a	n/a	n/a	n/a	n/a
3021304	REC_WORD	wordpools/wasnorm_wordpool.txt	LTP145	ltpFR	13	12	1	VISITOR	1573	n/a	1	n/a	0	0	0	n/a	n/a	n/a	n/a	n/a
3022760	REC_WORD	wordpools/wasnorm_wordpool.txt	LTP145	ltpFR	13	12	1	NUT	965	n/a	0	n/a	0	0	0	n/a	n/a	n/a	n/a	n/a
3023434	REC_WORD	wordpools/wasnorm_wordpool.txt	LTP145	ltpFR	13	12	1	SQUIRREL	1362	n/a	1	n/a	0	0	0	n/a	n/a	n/a	n/a	n/a
3026761	REC_WORD	wordpools/wasnorm_wordpool.txt	LTP145	ltpFR	13	12	1	ZOO	1637	n/a	0	n/a	0	0	0	n/a	n/a	n/a	n/a	n/a
3106501	REC_START	n/a	LTP145	ltpFR	13	n/a	n/a	n/a	n/a	n/a	n/a	n/a	0	0	0	n/a	n/a	n/a	n/a	n/a
3107698	FFR_REC_WORD	wordpools/wasnorm_wordpool.txt	LTP145	ltpFR	13	n/a	0	ICE	730	n/a	1	n/a	0	0	0	n/a	n/a	n/a	n/a	n/a
3108676	FFR_REC_WORD	wordpools/wasnorm_wordpool.txt	LTP145	ltpFR	13	n/a	0	IGLOO	734	n/a	1	n/a	0	0	0	n/a	n/a	n/a	n/a	n/a
3109577	FFR_REC_WORD	wordpools/wasnorm_wordpool.txt	LTP145	ltpFR	13	n/a	0	DUNE	506	n/a	1	n/a	0	0	0	n/a	n/a	n/a	n/a	n/a
3110696	FFR_REC_WORD	wordpools/wasnorm_wordpool.txt	LTP145	ltpFR	13	n/a	1	SQUIRREL	1362	n/a	1	n/a	0	0	0	n/a	n/a	n/a	n/a	n/a
3111626	FFR_REC_WORD	wordpools/wasnorm_wordpool.txt	LTP145	ltpFR	13	n/a	1	NUT	965	n/a	0	n/a	0	0	0	n/a	n/a	n/a	n/a	n/a
3113480	FFR_REC_WORD	wordpools/wasnorm_wordpool.txt	LTP145	ltpFR	13	n/a	1	BUSH	202	n/a	0	n/a	0	0	0	n/a	n/a	n/a	n/a	n/a
3114353	FFR_REC_WORD	wordpools/wasnorm_wordpool.txt	LTP145	ltpFR	13	n/a	n/a	HEDGE	699	n/a	n/a	n/a	0	0	0	n/a	n/a	n/a	n/a	n/a
3117461	FFR_REC_WORD	wordpools/wasnorm_wordpool.txt	LTP145	ltpFR	13	n/a	0	BUILDING	191	n/a	1	n/a	0	0	0	n/a	n/a	n/a	n/a	n/a
3118160	FFR_REC_WORD	wordpools/wasnorm_wordpool.txt	LTP145	ltpFR	13	n/a	0	WAREHOUSE	1588	n/a	1	n/a	0	0	0	n/a	n/a	n/a	n/a	n/a
3119222	FFR_REC_WORD	wordpools/wasnorm_wordpool.txt	LTP145	ltpFR	13	n/a	0	DUNGEON	507	n/a	1	n/a	0	0	0	n/a	n/a	n/a	n/a	n/a
3120918	FFR_REC_WORD	wordpools/wasnorm_wordpool.txt	LTP145	ltpFR	13	n/a	0	HARP	689	n/a	1	n/a	0	0	0	n/a	n/a	n/a	n/a	n/a
3122053	FFR_REC_WORD	wordpools/wasnorm_wordpool.txt	LTP145	ltpFR	13	n/a	0	GRAPE	654	n/a	0	n/a	0	0	0	n/a	n/a	n/a	n/a	n/a
