onset	duration	trial_type	sample	stim_file	subject	experiment	session	trial	item_name	item_num	list	answer	test_x	test_y	test_z
-0.002	n/a	SESS_START	-1	n/a	LTP312	ltpFR2	7	n/a	n/a	n/a	n/a	n/a	0	0	0
-0.002	n/a	START	-1	n/a	LTP312	ltpFR2	7	n/a	n/a	n/a	-1	n/a	n/a	n/a	n/a
-0.002	n/a	PROB	-1	n/a	LTP312	ltpFR2	7	n/a	n/a	n/a	-1	15	9	3	3
-0.002	n/a	PROB	-1	n/a	LTP312	ltpFR2	7	n/a	n/a	n/a	-1	20	3	9	8
-0.002	n/a	PROB	-1	n/a	LTP312	ltpFR2	7	n/a	n/a	n/a	-1	15	2	5	8
-0.002	n/a	PROB	-1	n/a	LTP312	ltpFR2	7	n/a	n/a	n/a	-1	13	6	3	4
-0.002	n/a	PROB	-1	n/a	LTP312	ltpFR2	7	n/a	n/a	n/a	-1	20	8	8	4
-0.002	n/a	PROB	-1	n/a	LTP312	ltpFR2	7	n/a	n/a	n/a	-1	10	4	4	2
-0.002	n/a	PROB	-1	n/a	LTP312	ltpFR2	7	n/a	n/a	n/a	-1	14	1	9	4
-0.002	n/a	STOP	-1	n/a	LTP312	ltpFR2	7	n/a	n/a	n/a	-1	n/a	n/a	n/a	n/a
-0.002	n/a	WORD	-1	wordpools/wasnorm_wordpool_576.txt	LTP312	ltpFR2	7	1	AUTHOR	61	n/a	n/a	0	0	0
-0.002	n/a	WORD	-1	wordpools/wasnorm_wordpool_576.txt	LTP312	ltpFR2	7	1	BOARD	143	n/a	n/a	0	0	0
-0.002	n/a	WORD	-1	wordpools/wasnorm_wordpool_576.txt	LTP312	ltpFR2	7	1	MEDAL	885	n/a	n/a	0	0	0
-0.002	n/a	WORD	-1	wordpools/wasnorm_wordpool_576.txt	LTP312	ltpFR2	7	1	PAIL	1002	n/a	n/a	0	0	0
-0.002	n/a	WORD	-1	wordpools/wasnorm_wordpool_576.txt	LTP312	ltpFR2	7	1	WRIST	1626	n/a	n/a	0	0	0
-0.002	n/a	WORD	-1	wordpools/wasnorm_wordpool_576.txt	LTP312	ltpFR2	7	1	GYMNAST	675	n/a	n/a	0	0	0
-0.002	n/a	WORD	-1	wordpools/wasnorm_wordpool_576.txt	LTP312	ltpFR2	7	1	ULCER	1533	n/a	n/a	0	0	0
-0.002	n/a	WORD	-1	wordpools/wasnorm_wordpool_576.txt	LTP312	ltpFR2	7	1	ARM	38	n/a	n/a	0	0	0
-0.002	n/a	WORD	-1	wordpools/wasnorm_wordpool_576.txt	LTP312	ltpFR2	7	1	MARROW	872	n/a	n/a	0	0	0
-0.002	n/a	WORD	-1	wordpools/wasnorm_wordpool_576.txt	LTP312	ltpFR2	7	1	MILDEW	893	n/a	n/a	0	0	0
-0.002	n/a	WORD	-1	wordpools/wasnorm_wordpool_576.txt	LTP312	ltpFR2	7	1	GRAVEL	659	n/a	n/a	0	0	0
-0.002	n/a	WORD	-1	wordpools/wasnorm_wordpool_576.txt	LTP312	ltpFR2	7	1	PARROT	1015	n/a	n/a	0	0	0
-0.002	n/a	WORD	-1	wordpools/wasnorm_wordpool_576.txt	LTP312	ltpFR2	7	1	WASP	1593	n/a	n/a	0	0	0
-0.002	n/a	WORD	-1	wordpools/wasnorm_wordpool_576.txt	LTP312	ltpFR2	7	1	AWARD	63	n/a	n/a	0	0	0
-0.002	n/a	WORD	-1	wordpools/wasnorm_wordpool_576.txt	LTP312	ltpFR2	7	1	CABBAGE	210	n/a	n/a	0	0	0
-0.002	n/a	WORD	-1	wordpools/wasnorm_wordpool_576.txt	LTP312	ltpFR2	7	1	BISON	131	n/a	n/a	0	0	0
-0.002	n/a	WORD	-1	wordpools/wasnorm_wordpool_576.txt	LTP312	ltpFR2	7	1	OX	994	n/a	n/a	0	0	0
-0.002	n/a	WORD	-1	wordpools/wasnorm_wordpool_576.txt	LTP312	ltpFR2	7	1	JEANS	752	n/a	n/a	0	0	0
-0.002	n/a	WORD	-1	wordpools/wasnorm_wordpool_576.txt	LTP312	ltpFR2	7	1	SPHINX	1349	n/a	n/a	0	0	0
-0.002	n/a	WORD	-1	wordpools/wasnorm_wordpool_576.txt	LTP312	ltpFR2	7	1	FOREHEAD	592	n/a	n/a	0	0	0
-0.002	n/a	WORD	-1	wordpools/wasnorm_wordpool_576.txt	LTP312	ltpFR2	7	1	SUPPER	1411	n/a	n/a	0	0	0
-0.002	n/a	WORD	-1	wordpools/wasnorm_wordpool_576.txt	LTP312	ltpFR2	7	1	GRILL	661	n/a	n/a	0	0	0
-0.002	n/a	WORD	-1	wordpools/wasnorm_wordpool_576.txt	LTP312	ltpFR2	7	1	SNACK	1331	n/a	n/a	0	0	0
-0.002	n/a	WORD	-1	wordpools/wasnorm_wordpool_576.txt	LTP312	ltpFR2	7	1	CANDY	230	n/a	n/a	0	0	0
-0.002	n/a	START	-1	n/a	LTP312	ltpFR2	7	n/a	n/a	n/a	1	n/a	n/a	n/a	n/a
-0.002	n/a	DISTRACTOR	-1	n/a	LTP312	ltpFR2	7	1	n/a	n/a	n/a	n/a	0	0	0
-0.002	n/a	PROB	-1	n/a	LTP312	ltpFR2	7	n/a	n/a	n/a	1	12	3	6	3
-0.002	n/a	PROB	-1	n/a	LTP312	ltpFR2	7	n/a	n/a	n/a	1	19	6	4	9
-0.002	n/a	PROB	-1	n/a	LTP312	ltpFR2	7	n/a	n/a	n/a	1	11	6	3	2
-0.002	n/a	PROB	-1	n/a	LTP312	ltpFR2	7	n/a	n/a	n/a	1	21	7	7	7
-0.002	n/a	PROB	-1	n/a	LTP312	ltpFR2	7	n/a	n/a	n/a	1	15	1	8	6
-0.002	n/a	PROB	-1	n/a	LTP312	ltpFR2	7	n/a	n/a	n/a	1	10	1	5	4
-0.002	n/a	PROB	-1	n/a	LTP312	ltpFR2	7	n/a	n/a	n/a	1	8	6	1	1
-0.002	n/a	PROB	-1	n/a	LTP312	ltpFR2	7	n/a	n/a	n/a	1	16	2	7	7
-0.002	n/a	PROB	-1	n/a	LTP312	ltpFR2	7	n/a	n/a	n/a	1	22	6	7	9
-0.002	n/a	PROB	-1	n/a	LTP312	ltpFR2	7	n/a	n/a	n/a	1	13	2	5	6
-0.002	n/a	PROB	-1	n/a	LTP312	ltpFR2	7	n/a	n/a	n/a	1	14	6	1	7
-0.002	n/a	PROB	-1	n/a	LTP312	ltpFR2	7	n/a	n/a	n/a	1	13	5	2	6
-0.002	n/a	PROB	-1	n/a	LTP312	ltpFR2	7	n/a	n/a	n/a	1	24	9	9	6
-0.002	n/a	PROB	-1	n/a	LTP312	ltpFR2	7	n/a	n/a	n/a	1	17	6	4	7
-0.002	n/a	STOP	-1	n/a	LTP312	ltpFR2	7	n/a	n/a	n/a	1	n/a	n/a	n/a	n/a
-0.002	n/a	REC_START	-1	n/a	LTP312	ltpFR2	7	1	n/a	n/a	n/a	n/a	0	0	0
-0.002	n/a	REC_WORD	-1	wordpools/wasnorm_wordpool_576.txt	LTP312	ltpFR2	7	1	AUTHOR	61	n/a	n/a	0	0	0
-0.002	n/a	REC_WORD	-1	wordpools/wasnorm_wordpool_576.txt	LTP312	ltpFR2	7	1	OX	994	n/a	n/a	0	0	0
-0.002	n/a	REC_WORD	-1	wordpools/wasnorm_wordpool_576.txt	LTP312	ltpFR2	7	1	SPHINX	1349	n/a	n/a	0	0	0
-0.002	n/a	REC_WORD_VV	-1	wordpools/wasnorm_wordpool_576.txt	LTP312	ltpFR2	7	1	<>	-1	n/a	n/a	0	0	0
-0.002	n/a	REC_WORD	-1	wordpools/wasnorm_wordpool_576.txt	LTP312	ltpFR2	7	1	GYMNAST	675	n/a	n/a	0	0	0
-0.002	n/a	REC_WORD	-1	wordpools/wasnorm_wordpool_576.txt	LTP312	ltpFR2	7	1	MARROW	872	n/a	n/a	0	0	0
-0.002	n/a	REC_WORD	-1	wordpools/wasnorm_wordpool_576.txt	LTP312	ltpFR2	7	1	ULCER	1533	n/a	n/a	0	0	0
-0.002	n/a	REC_WORD	-1	wordpools/wasnorm_wordpool_576.txt	LTP312	ltpFR2	7	1	GRAVEL	659	n/a	n/a	0	0	0
-0.002	n/a	REC_WORD	-1	wordpools/wasnorm_wordpool_576.txt	LTP312	ltpFR2	7	1	MILDEW	893	n/a	n/a	0	0	0
-0.002	n/a	REC_WORD	-1	wordpools/wasnorm_wordpool_576.txt	LTP312	ltpFR2	7	1	BOARD	143	n/a	n/a	0	0	0
-0.002	n/a	WORD	-1	wordpools/wasnorm_wordpool_576.txt	LTP312	ltpFR2	7	2	SHOVEL	1295	n/a	n/a	0	0	0
-0.002	n/a	WORD	-1	wordpools/wasnorm_wordpool_576.txt	LTP312	ltpFR2	7	2	LASER	801	n/a	n/a	0	0	0
-0.002	n/a	WORD	-1	wordpools/wasnorm_wordpool_576.txt	LTP312	ltpFR2	7	2	RUG	1215	n/a	n/a	0	0	0
-0.002	n/a	WORD	-1	wordpools/wasnorm_wordpool_576.txt	LTP312	ltpFR2	7	2	TILE	1468	n/a	n/a	0	0	0
-0.002	n/a	WORD	-1	wordpools/wasnorm_wordpool_576.txt	LTP312	ltpFR2	7	2	LAGOON	795	n/a	n/a	0	0	0
-0.002	n/a	WORD	-1	wordpools/wasnorm_wordpool_576.txt	LTP312	ltpFR2	7	2	ISLAND	745	n/a	n/a	0	0	0
-0.002	n/a	WORD	-1	wordpools/wasnorm_wordpool_576.txt	LTP312	ltpFR2	7	2	CLAMP	316	n/a	n/a	0	0	0
-0.002	n/a	WORD	-1	wordpools/wasnorm_wordpool_576.txt	LTP312	ltpFR2	7	2	RAFT	1159	n/a	n/a	0	0	0
-0.002	n/a	WORD	-1	wordpools/wasnorm_wordpool_576.txt	LTP312	ltpFR2	7	2	BADGE	68	n/a	n/a	0	0	0
-0.002	n/a	WORD	-1	wordpools/wasnorm_wordpool_576.txt	LTP312	ltpFR2	7	2	SIBLING	1301	n/a	n/a	0	0	0
-0.002	n/a	WORD	-1	wordpools/wasnorm_wordpool_576.txt	LTP312	ltpFR2	7	2	SHIRT	1287	n/a	n/a	0	0	0
-0.002	n/a	WORD	-1	wordpools/wasnorm_wordpool_576.txt	LTP312	ltpFR2	7	2	PLAZA	1088	n/a	n/a	0	0	0
-0.002	n/a	WORD	-1	wordpools/wasnorm_wordpool_576.txt	LTP312	ltpFR2	7	2	DRIVER	499	n/a	n/a	0	0	0
-0.002	n/a	WORD	-1	wordpools/wasnorm_wordpool_576.txt	LTP312	ltpFR2	7	2	PENGUIN	1044	n/a	n/a	0	0	0
-0.002	n/a	WORD	-1	wordpools/wasnorm_wordpool_576.txt	LTP312	ltpFR2	7	2	REBEL	1172	n/a	n/a	0	0	0
-0.002	n/a	WORD	-1	wordpools/wasnorm_wordpool_576.txt	LTP312	ltpFR2	7	2	APRON	35	n/a	n/a	0	0	0
-0.002	n/a	WORD	-1	wordpools/wasnorm_wordpool_576.txt	LTP312	ltpFR2	7	2	WASHER	1592	n/a	n/a	0	0	0
-0.002	n/a	WORD	-1	wordpools/wasnorm_wordpool_576.txt	LTP312	ltpFR2	7	2	OUTFIT	988	n/a	n/a	0	0	0
-0.002	n/a	WORD	-1	wordpools/wasnorm_wordpool_576.txt	LTP312	ltpFR2	7	2	FLEET	578	n/a	n/a	0	0	0
-0.002	n/a	WORD	-1	wordpools/wasnorm_wordpool_576.txt	LTP312	ltpFR2	7	2	GRIZZLY	662	n/a	n/a	0	0	0
-0.002	n/a	WORD	-1	wordpools/wasnorm_wordpool_576.txt	LTP312	ltpFR2	7	2	MONEY	908	n/a	n/a	0	0	0
-0.002	n/a	WORD	-1	wordpools/wasnorm_wordpool_576.txt	LTP312	ltpFR2	7	2	VIKING	1565	n/a	n/a	0	0	0
-0.002	n/a	WORD	-1	wordpools/wasnorm_wordpool_576.txt	LTP312	ltpFR2	7	2	COLONEL	348	n/a	n/a	0	0	0
-0.002	n/a	WORD	-1	wordpools/wasnorm_wordpool_576.txt	LTP312	ltpFR2	7	2	BARLEY	88	n/a	n/a	0	0	0
-0.002	n/a	START	-1	n/a	LTP312	ltpFR2	7	n/a	n/a	n/a	2	n/a	n/a	n/a	n/a
-0.002	n/a	DISTRACTOR	-1	n/a	LTP312	ltpFR2	7	2	n/a	n/a	n/a	n/a	0	0	0
-0.002	n/a	PROB	-1	n/a	LTP312	ltpFR2	7	n/a	n/a	n/a	2	19	3	7	9
-0.002	n/a	PROB	-1	n/a	LTP312	ltpFR2	7	n/a	n/a	n/a	2	18	9	3	6
-0.002	n/a	PROB	-1	n/a	LTP312	ltpFR2	7	n/a	n/a	n/a	2	15	8	1	6
-0.002	n/a	PROB	-1	n/a	LTP312	ltpFR2	7	n/a	n/a	n/a	2	20	6	6	8
-0.002	n/a	PROB	-1	n/a	LTP312	ltpFR2	7	n/a	n/a	n/a	2	16	4	6	6
-0.002	n/a	PROB	-1	n/a	LTP312	ltpFR2	7	n/a	n/a	n/a	2	16	7	2	7
-0.002	n/a	PROB	-1	n/a	LTP312	ltpFR2	7	n/a	n/a	n/a	2	15	7	3	5
-0.002	n/a	PROB	-1	n/a	LTP312	ltpFR2	7	n/a	n/a	n/a	2	7	2	1	4
-0.002	n/a	PROB	-1	n/a	LTP312	ltpFR2	7	n/a	n/a	n/a	2	18	1	9	8
-0.002	n/a	PROB	-1	n/a	LTP312	ltpFR2	7	n/a	n/a	n/a	2	14	6	4	4
-0.002	n/a	PROB	-1	n/a	LTP312	ltpFR2	7	n/a	n/a	n/a	2	21	9	5	7
-0.002	n/a	PROB	-1	n/a	LTP312	ltpFR2	7	n/a	n/a	n/a	2	8	1	3	4
-0.002	n/a	PROB	-1	n/a	LTP312	ltpFR2	7	n/a	n/a	n/a	2	10	8	1	1
-0.002	n/a	PROB	-1	n/a	LTP312	ltpFR2	7	n/a	n/a	n/a	2	19	9	7	3
-0.002	n/a	STOP	-1	n/a	LTP312	ltpFR2	7	n/a	n/a	n/a	2	n/a	n/a	n/a	n/a
-0.002	n/a	REC_START	-1	n/a	LTP312	ltpFR2	7	2	n/a	n/a	n/a	n/a	0	0	0
-0.002	n/a	REC_WORD	-1	wordpools/wasnorm_wordpool_576.txt	LTP312	ltpFR2	7	2	SHOVEL	1295	n/a	n/a	0	0	0
-0.002	n/a	REC_WORD	-1	wordpools/wasnorm_wordpool_576.txt	LTP312	ltpFR2	7	2	FLEET	578	n/a	n/a	0	0	0
-0.002	n/a	REC_WORD	-1	wordpools/wasnorm_wordpool_576.txt	LTP312	ltpFR2	7	2	GRIZZLY	662	n/a	n/a	0	0	0
-0.002	n/a	REC_WORD	-1	wordpools/wasnorm_wordpool_576.txt	LTP312	ltpFR2	7	2	MONEY	908	n/a	n/a	0	0	0
-0.002	n/a	REC_WORD	-1	wordpools/wasnorm_wordpool_576.txt	LTP312	ltpFR2	7	2	REBEL	1172	n/a	n/a	0	0	0
-0.002	n/a	REC_WORD	-1	wordpools/wasnorm_wordpool_576.txt	LTP312	ltpFR2	7	2	GYMNAST	675	n/a	n/a	0	0	0
-0.002	n/a	DISTRACTOR	-1	n/a	LTP312	ltpFR2	7	3	n/a	n/a	n/a	n/a	0	0	0
-0.002	n/a	START	-1	n/a	LTP312	ltpFR2	7	n/a	n/a	n/a	3	n/a	n/a	n/a	n/a
-0.002	n/a	PROB	-1	n/a	LTP312	ltpFR2	7	n/a	n/a	n/a	3	11	9	1	1
-0.002	n/a	PROB	-1	n/a	LTP312	ltpFR2	7	n/a	n/a	n/a	3	7	1	4	2
-0.002	n/a	PROB	-1	n/a	LTP312	ltpFR2	7	n/a	n/a	n/a	3	14	6	7	1
-0.002	n/a	PROB	-1	n/a	LTP312	ltpFR2	7	n/a	n/a	n/a	3	19	4	8	7
-0.002	n/a	PROB	-1	n/a	LTP312	ltpFR2	7	n/a	n/a	n/a	3	18	4	6	8
-0.002	n/a	PROB	-1	n/a	LTP312	ltpFR2	7	n/a	n/a	n/a	3	14	5	5	4
-0.002	n/a	PROB	-1	n/a	LTP312	ltpFR2	7	n/a	n/a	n/a	3	7	4	2	1
-0.002	n/a	PROB	-1	n/a	LTP312	ltpFR2	7	n/a	n/a	n/a	3	18	3	6	9
-0.002	n/a	PROB	-1	n/a	LTP312	ltpFR2	7	n/a	n/a	n/a	3	11	1	9	1
-0.002	n/a	PROB	-1	n/a	LTP312	ltpFR2	7	n/a	n/a	n/a	3	19	9	5	5
-0.002	n/a	PROB	-1	n/a	LTP312	ltpFR2	7	n/a	n/a	n/a	3	14	6	2	6
-0.002	n/a	PROB	-1	n/a	LTP312	ltpFR2	7	n/a	n/a	n/a	3	14	2	4	8
-0.002	n/a	PROB	-1	n/a	LTP312	ltpFR2	7	n/a	n/a	n/a	3	20	4	9	7
-0.002	n/a	PROB	-1	n/a	LTP312	ltpFR2	7	n/a	n/a	n/a	3	17	7	6	4
-0.002	n/a	PROB	-1	n/a	LTP312	ltpFR2	7	n/a	n/a	n/a	3	8	1	1	6
-0.002	n/a	PROB	-1	n/a	LTP312	ltpFR2	7	n/a	n/a	n/a	3	16	1	7	8
-0.002	n/a	PROB	-1	n/a	LTP312	ltpFR2	7	n/a	n/a	n/a	3	16	9	4	3
-0.002	n/a	STOP	-1	n/a	LTP312	ltpFR2	7	n/a	n/a	n/a	3	n/a	n/a	n/a	n/a
-0.002	n/a	WORD	-1	wordpools/wasnorm_wordpool_576.txt	LTP312	ltpFR2	7	3	TEMPLE	1448	n/a	n/a	0	0	0
-0.002	n/a	WORD	-1	wordpools/wasnorm_wordpool_576.txt	LTP312	ltpFR2	7	3	BANQUET	86	n/a	n/a	0	0	0
-0.002	n/a	WORD	-1	wordpools/wasnorm_wordpool_576.txt	LTP312	ltpFR2	7	3	BLOUSE	139	n/a	n/a	0	0	0
-0.002	n/a	WORD	-1	wordpools/wasnorm_wordpool_576.txt	LTP312	ltpFR2	7	3	TUBA	1515	n/a	n/a	0	0	0
-0.002	n/a	WORD	-1	wordpools/wasnorm_wordpool_576.txt	LTP312	ltpFR2	7	3	LODGE	839	n/a	n/a	0	0	0
-0.002	n/a	WORD	-1	wordpools/wasnorm_wordpool_576.txt	LTP312	ltpFR2	7	3	VALLEY	1545	n/a	n/a	0	0	0
-0.002	n/a	WORD	-1	wordpools/wasnorm_wordpool_576.txt	LTP312	ltpFR2	7	3	VALVE	1546	n/a	n/a	0	0	0
-0.002	n/a	WORD	-1	wordpools/wasnorm_wordpool_576.txt	LTP312	ltpFR2	7	3	FIREPLACE	570	n/a	n/a	0	0	0
-0.002	n/a	WORD	-1	wordpools/wasnorm_wordpool_576.txt	LTP312	ltpFR2	7	3	DRAGON	492	n/a	n/a	0	0	0
-0.002	n/a	WORD	-1	wordpools/wasnorm_wordpool_576.txt	LTP312	ltpFR2	7	3	ROBOT	1200	n/a	n/a	0	0	0
-0.002	n/a	WORD	-1	wordpools/wasnorm_wordpool_576.txt	LTP312	ltpFR2	7	3	RECORD	1176	n/a	n/a	0	0	0
-0.002	n/a	WORD	-1	wordpools/wasnorm_wordpool_576.txt	LTP312	ltpFR2	7	3	NEUTRON	947	n/a	n/a	0	0	0
-0.002	n/a	WORD	-1	wordpools/wasnorm_wordpool_576.txt	LTP312	ltpFR2	7	3	DRINK	498	n/a	n/a	0	0	0
-0.002	n/a	WORD	-1	wordpools/wasnorm_wordpool_576.txt	LTP312	ltpFR2	7	3	ACTRESS	6	n/a	n/a	0	0	0
-0.002	n/a	WORD	-1	wordpools/wasnorm_wordpool_576.txt	LTP312	ltpFR2	7	3	CONTRACT	368	n/a	n/a	0	0	0
-0.002	n/a	WORD	-1	wordpools/wasnorm_wordpool_576.txt	LTP312	ltpFR2	7	3	GROUND	666	n/a	n/a	0	0	0
-0.002	n/a	WORD	-1	wordpools/wasnorm_wordpool_576.txt	LTP312	ltpFR2	7	3	POPCORN	1104	n/a	n/a	0	0	0
-0.002	n/a	WORD	-1	wordpools/wasnorm_wordpool_576.txt	LTP312	ltpFR2	7	3	HARP	689	n/a	n/a	0	0	0
-0.002	n/a	WORD	-1	wordpools/wasnorm_wordpool_576.txt	LTP312	ltpFR2	7	3	COFFEE	341	n/a	n/a	0	0	0
-0.002	n/a	WORD	-1	wordpools/wasnorm_wordpool_576.txt	LTP312	ltpFR2	7	3	LETTUCE	814	n/a	n/a	0	0	0
-0.002	n/a	WORD	-1	wordpools/wasnorm_wordpool_576.txt	LTP312	ltpFR2	7	3	OUTDOORS	987	n/a	n/a	0	0	0
-0.002	n/a	WORD	-1	wordpools/wasnorm_wordpool_576.txt	LTP312	ltpFR2	7	3	KLEENEX	782	n/a	n/a	0	0	0
-0.002	n/a	WORD	-1	wordpools/wasnorm_wordpool_576.txt	LTP312	ltpFR2	7	3	NAPKIN	937	n/a	n/a	0	0	0
-0.002	n/a	WORD	-1	wordpools/wasnorm_wordpool_576.txt	LTP312	ltpFR2	7	3	TRANSPLANT	1496	n/a	n/a	0	0	0
-0.002	n/a	START	-1	n/a	LTP312	ltpFR2	7	n/a	n/a	n/a	4	n/a	n/a	n/a	n/a
-0.002	n/a	DISTRACTOR	-1	n/a	LTP312	ltpFR2	7	3	n/a	n/a	n/a	n/a	0	0	0
-0.002	n/a	PROB	-1	n/a	LTP312	ltpFR2	7	n/a	n/a	n/a	4	7	4	2	1
-0.002	n/a	PROB	-1	n/a	LTP312	ltpFR2	7	n/a	n/a	n/a	4	15	2	8	5
-0.002	n/a	PROB	-1	n/a	LTP312	ltpFR2	7	n/a	n/a	n/a	4	13	2	4	7
-0.002	n/a	PROB	-1	n/a	LTP312	ltpFR2	7	n/a	n/a	n/a	4	19	9	7	3
-0.002	n/a	PROB	-1	n/a	LTP312	ltpFR2	7	n/a	n/a	n/a	4	14	2	5	7
-0.002	n/a	PROB	-1	n/a	LTP312	ltpFR2	7	n/a	n/a	n/a	4	21	9	6	6
-0.002	n/a	PROB	-1	n/a	LTP312	ltpFR2	7	n/a	n/a	n/a	4	7	2	4	1
-0.002	n/a	PROB	-1	n/a	LTP312	ltpFR2	7	n/a	n/a	n/a	4	16	6	3	7
-0.002	n/a	PROB	-1	n/a	LTP312	ltpFR2	7	n/a	n/a	n/a	4	13	1	3	9
-0.002	n/a	PROB	-1	n/a	LTP312	ltpFR2	7	n/a	n/a	n/a	4	17	8	2	7
-0.002	n/a	PROB	-1	n/a	LTP312	ltpFR2	7	n/a	n/a	n/a	4	17	7	3	7
-0.002	n/a	PROB	-1	n/a	LTP312	ltpFR2	7	n/a	n/a	n/a	4	7	2	2	3
-0.002	n/a	PROB	-1	n/a	LTP312	ltpFR2	7	n/a	n/a	n/a	4	14	3	4	7
-0.002	n/a	PROB	-1	n/a	LTP312	ltpFR2	7	n/a	n/a	n/a	4	8	1	5	2
-0.002	n/a	PROB	-1	n/a	LTP312	ltpFR2	7	n/a	n/a	n/a	4	15	1	5	9
-0.002	n/a	STOP	-1	n/a	LTP312	ltpFR2	7	n/a	n/a	n/a	4	n/a	n/a	n/a	n/a
-0.002	n/a	REC_START	-1	n/a	LTP312	ltpFR2	7	3	n/a	n/a	n/a	n/a	0	0	0
-0.002	n/a	REC_WORD	-1	wordpools/wasnorm_wordpool_576.txt	LTP312	ltpFR2	7	3	KLEENEX	782	n/a	n/a	0	0	0
-0.002	n/a	REC_WORD	-1	wordpools/wasnorm_wordpool_576.txt	LTP312	ltpFR2	7	3	NAPKIN	937	n/a	n/a	0	0	0
-0.002	n/a	REC_WORD	-1	wordpools/wasnorm_wordpool_576.txt	LTP312	ltpFR2	7	3	COFFEE	341	n/a	n/a	0	0	0
-0.002	n/a	REC_WORD	-1	wordpools/wasnorm_wordpool_576.txt	LTP312	ltpFR2	7	3	LETTUCE	814	n/a	n/a	0	0	0
-0.002	n/a	REC_WORD	-1	wordpools/wasnorm_wordpool_576.txt	LTP312	ltpFR2	7	3	OUTDOORS	987	n/a	n/a	0	0	0
-0.002	n/a	REC_WORD	-1	wordpools/wasnorm_wordpool_576.txt	LTP312	ltpFR2	7	3	TRANSPLANT	1496	n/a	n/a	0	0	0
-0.002	n/a	REC_WORD	-1	wordpools/wasnorm_wordpool_576.txt	LTP312	ltpFR2	7	3	TEMPLE	1448	n/a	n/a	0	0	0
-0.002	n/a	REC_WORD	-1	wordpools/wasnorm_wordpool_576.txt	LTP312	ltpFR2	7	3	BOUQUET	157	n/a	n/a	0	0	0
-0.002	n/a	REC_WORD	-1	wordpools/wasnorm_wordpool_576.txt	LTP312	ltpFR2	7	3	TUBA	1515	n/a	n/a	0	0	0
-0.002	n/a	REC_WORD	-1	wordpools/wasnorm_wordpool_576.txt	LTP312	ltpFR2	7	3	ACTRESS	6	n/a	n/a	0	0	0
-0.002	n/a	REC_WORD	-1	wordpools/wasnorm_wordpool_576.txt	LTP312	ltpFR2	7	3	DRAGON	492	n/a	n/a	0	0	0
-0.002	n/a	REC_WORD	-1	wordpools/wasnorm_wordpool_576.txt	LTP312	ltpFR2	7	3	CONTRACT	368	n/a	n/a	0	0	0
-0.002	n/a	WORD	-1	wordpools/wasnorm_wordpool_576.txt	LTP312	ltpFR2	7	4	STONE	1385	n/a	n/a	0	0	0
-0.002	n/a	WORD	-1	wordpools/wasnorm_wordpool_576.txt	LTP312	ltpFR2	7	4	CHAMPAGNE	278	n/a	n/a	0	0	0
-0.002	n/a	WORD	-1	wordpools/wasnorm_wordpool_576.txt	LTP312	ltpFR2	7	4	SCARECROW	1245	n/a	n/a	0	0	0
-0.002	n/a	WORD	-1	wordpools/wasnorm_wordpool_576.txt	LTP312	ltpFR2	7	4	SUBWAY	1400	n/a	n/a	0	0	0
-0.002	n/a	WORD	-1	wordpools/wasnorm_wordpool_576.txt	LTP312	ltpFR2	7	4	BLENDER	136	n/a	n/a	0	0	0
-0.002	n/a	WORD	-1	wordpools/wasnorm_wordpool_576.txt	LTP312	ltpFR2	7	4	YACHT	1629	n/a	n/a	0	0	0
-0.002	n/a	WORD	-1	wordpools/wasnorm_wordpool_576.txt	LTP312	ltpFR2	7	4	GRAPE	654	n/a	n/a	0	0	0
-0.002	n/a	WORD	-1	wordpools/wasnorm_wordpool_576.txt	LTP312	ltpFR2	7	4	HUSBAND	728	n/a	n/a	0	0	0
-0.002	n/a	WORD	-1	wordpools/wasnorm_wordpool_576.txt	LTP312	ltpFR2	7	4	BROOK	177	n/a	n/a	0	0	0
-0.002	n/a	WORD	-1	wordpools/wasnorm_wordpool_576.txt	LTP312	ltpFR2	7	4	SCOTCH	1251	n/a	n/a	0	0	0
-0.002	n/a	WORD	-1	wordpools/wasnorm_wordpool_576.txt	LTP312	ltpFR2	7	4	HORNET	718	n/a	n/a	0	0	0
-0.002	n/a	WORD	-1	wordpools/wasnorm_wordpool_576.txt	LTP312	ltpFR2	7	4	HONEY	713	n/a	n/a	0	0	0
-0.002	n/a	WORD	-1	wordpools/wasnorm_wordpool_576.txt	LTP312	ltpFR2	7	4	JUGGLER	763	n/a	n/a	0	0	0
-0.002	n/a	WORD	-1	wordpools/wasnorm_wordpool_576.txt	LTP312	ltpFR2	7	4	RACKET	1155	n/a	n/a	0	0	0
-0.002	n/a	WORD	-1	wordpools/wasnorm_wordpool_576.txt	LTP312	ltpFR2	7	4	VIRUS	1572	n/a	n/a	0	0	0
-0.002	n/a	WORD	-1	wordpools/wasnorm_wordpool_576.txt	LTP312	ltpFR2	7	4	FREEZER	604	n/a	n/a	0	0	0
-0.002	n/a	WORD	-1	wordpools/wasnorm_wordpool_576.txt	LTP312	ltpFR2	7	4	LUNCH	849	n/a	n/a	0	0	0
-0.002	n/a	WORD	-1	wordpools/wasnorm_wordpool_576.txt	LTP312	ltpFR2	7	4	SILK	1307	n/a	n/a	0	0	0
-0.002	n/a	WORD	-1	wordpools/wasnorm_wordpool_576.txt	LTP312	ltpFR2	7	4	DRESS	495	n/a	n/a	0	0	0
-0.002	n/a	WORD	-1	wordpools/wasnorm_wordpool_576.txt	LTP312	ltpFR2	7	4	SMOG	1330	n/a	n/a	0	0	0
-0.002	n/a	WORD	-1	wordpools/wasnorm_wordpool_576.txt	LTP312	ltpFR2	7	4	KIDNEY	776	n/a	n/a	0	0	0
-0.002	n/a	WORD	-1	wordpools/wasnorm_wordpool_576.txt	LTP312	ltpFR2	7	4	JELLY	755	n/a	n/a	0	0	0
-0.002	n/a	WORD	-1	wordpools/wasnorm_wordpool_576.txt	LTP312	ltpFR2	7	4	DUSTPAN	509	n/a	n/a	0	0	0
-0.002	n/a	WORD	-1	wordpools/wasnorm_wordpool_576.txt	LTP312	ltpFR2	7	4	LIPSTICK	829	n/a	n/a	0	0	0
-0.002	n/a	START	-1	n/a	LTP312	ltpFR2	7	n/a	n/a	n/a	5	n/a	n/a	n/a	n/a
-0.002	n/a	DISTRACTOR	-1	n/a	LTP312	ltpFR2	7	4	n/a	n/a	n/a	n/a	0	0	0
-0.002	n/a	PROB	-1	n/a	LTP312	ltpFR2	7	n/a	n/a	n/a	5	8	2	1	5
-0.002	n/a	PROB	-1	n/a	LTP312	ltpFR2	7	n/a	n/a	n/a	5	16	7	2	7
-0.002	n/a	PROB	-1	n/a	LTP312	ltpFR2	7	n/a	n/a	n/a	5	17	9	1	7
-0.002	n/a	PROB	-1	n/a	LTP312	ltpFR2	7	n/a	n/a	n/a	5	4	1	1	2
-0.002	n/a	PROB	-1	n/a	LTP312	ltpFR2	7	n/a	n/a	n/a	5	10	5	3	2
-0.002	n/a	PROB	-1	n/a	LTP312	ltpFR2	7	n/a	n/a	n/a	5	11	1	8	2
-0.002	n/a	PROB	-1	n/a	LTP312	ltpFR2	7	n/a	n/a	n/a	5	18	7	9	2
-0.002	n/a	PROB	-1	n/a	LTP312	ltpFR2	7	n/a	n/a	n/a	5	18	4	8	6
-0.002	n/a	PROB	-1	n/a	LTP312	ltpFR2	7	n/a	n/a	n/a	5	16	5	9	2
-0.002	n/a	PROB	-1	n/a	LTP312	ltpFR2	7	n/a	n/a	n/a	5	17	3	7	7
-0.002	n/a	PROB	-1	n/a	LTP312	ltpFR2	7	n/a	n/a	n/a	5	11	5	1	5
-0.002	n/a	PROB	-1	n/a	LTP312	ltpFR2	7	n/a	n/a	n/a	5	22	9	5	8
-0.002	n/a	PROB	-1	n/a	LTP312	ltpFR2	7	n/a	n/a	n/a	5	16	8	1	7
-0.002	n/a	PROB	-1	n/a	LTP312	ltpFR2	7	n/a	n/a	n/a	5	19	9	2	8
-0.002	n/a	STOP	-1	n/a	LTP312	ltpFR2	7	n/a	n/a	n/a	5	n/a	n/a	n/a	n/a
-0.002	n/a	REC_START	-1	n/a	LTP312	ltpFR2	7	4	n/a	n/a	n/a	n/a	0	0	0
-0.002	n/a	REC_WORD	-1	wordpools/wasnorm_wordpool_576.txt	LTP312	ltpFR2	7	4	HONEY	713	n/a	n/a	0	0	0
-0.002	n/a	REC_WORD	-1	wordpools/wasnorm_wordpool_576.txt	LTP312	ltpFR2	7	4	HUSBAND	728	n/a	n/a	0	0	0
-0.002	n/a	REC_WORD	-1	wordpools/wasnorm_wordpool_576.txt	LTP312	ltpFR2	7	4	SUBWAY	1400	n/a	n/a	0	0	0
-0.002	n/a	REC_WORD_VV	-1	wordpools/wasnorm_wordpool_576.txt	LTP312	ltpFR2	7	4	<>	-1	n/a	n/a	0	0	0
-0.002	n/a	REC_WORD	-1	wordpools/wasnorm_wordpool_576.txt	LTP312	ltpFR2	7	4	BLENDER	136	n/a	n/a	0	0	0
-0.002	n/a	REC_WORD	-1	wordpools/wasnorm_wordpool_576.txt	LTP312	ltpFR2	7	4	KIDNEY	776	n/a	n/a	0	0	0
-0.002	n/a	REC_WORD	-1	wordpools/wasnorm_wordpool_576.txt	LTP312	ltpFR2	7	4	YACHT	1629	n/a	n/a	0	0	0
-0.002	n/a	REC_WORD	-1	wordpools/wasnorm_wordpool_576.txt	LTP312	ltpFR2	7	4	GRAPE	654	n/a	n/a	0	0	0
-0.002	n/a	DISTRACTOR	-1	n/a	LTP312	ltpFR2	7	5	n/a	n/a	n/a	n/a	0	0	0
-0.002	n/a	START	-1	n/a	LTP312	ltpFR2	7	n/a	n/a	n/a	6	n/a	n/a	n/a	n/a
-0.002	n/a	PROB	-1	n/a	LTP312	ltpFR2	7	n/a	n/a	n/a	6	10	2	4	4
-0.002	n/a	PROB	-1	n/a	LTP312	ltpFR2	7	n/a	n/a	n/a	6	10	4	1	5
-0.002	n/a	PROB	-1	n/a	LTP312	ltpFR2	7	n/a	n/a	n/a	6	21	8	9	4
-0.002	n/a	PROB	-1	n/a	LTP312	ltpFR2	7	n/a	n/a	n/a	6	20	3	8	9
-0.002	n/a	PROB	-1	n/a	LTP312	ltpFR2	7	n/a	n/a	n/a	6	13	6	2	5
-0.002	n/a	PROB	-1	n/a	LTP312	ltpFR2	7	n/a	n/a	n/a	6	20	5	8	7
-0.002	n/a	PROB	-1	n/a	LTP312	ltpFR2	7	n/a	n/a	n/a	6	20	6	5	9
-0.002	n/a	PROB	-1	n/a	LTP312	ltpFR2	7	n/a	n/a	n/a	6	9	3	2	4
-0.002	n/a	PROB	-1	n/a	LTP312	ltpFR2	7	n/a	n/a	n/a	6	14	3	4	7
-0.002	n/a	PROB	-1	n/a	LTP312	ltpFR2	7	n/a	n/a	n/a	6	8	1	3	4
-0.002	n/a	PROB	-1	n/a	LTP312	ltpFR2	7	n/a	n/a	n/a	6	13	1	4	8
-0.002	n/a	PROB	-1	n/a	LTP312	ltpFR2	7	n/a	n/a	n/a	6	8	1	6	1
-0.002	n/a	STOP	-1	n/a	LTP312	ltpFR2	7	n/a	n/a	n/a	6	n/a	n/a	n/a	n/a
-0.002	n/a	WORD	-1	wordpools/wasnorm_wordpool_576.txt	LTP312	ltpFR2	7	5	BREAST	171	n/a	n/a	0	0	0
-0.002	n/a	WORD	-1	wordpools/wasnorm_wordpool_576.txt	LTP312	ltpFR2	7	5	HAND	683	n/a	n/a	0	0	0
-0.002	n/a	WORD	-1	wordpools/wasnorm_wordpool_576.txt	LTP312	ltpFR2	7	5	QUAIL	1147	n/a	n/a	0	0	0
-0.002	n/a	WORD	-1	wordpools/wasnorm_wordpool_576.txt	LTP312	ltpFR2	7	5	GARLIC	624	n/a	n/a	0	0	0
-0.002	n/a	WORD	-1	wordpools/wasnorm_wordpool_576.txt	LTP312	ltpFR2	7	5	PUDDING	1139	n/a	n/a	0	0	0
-0.002	n/a	WORD	-1	wordpools/wasnorm_wordpool_576.txt	LTP312	ltpFR2	7	5	ROCKET	1202	n/a	n/a	0	0	0
-0.002	n/a	WORD	-1	wordpools/wasnorm_wordpool_576.txt	LTP312	ltpFR2	7	5	SCARF	1246	n/a	n/a	0	0	0
-0.002	n/a	WORD	-1	wordpools/wasnorm_wordpool_576.txt	LTP312	ltpFR2	7	5	PUPIL	1143	n/a	n/a	0	0	0
-0.002	n/a	WORD	-1	wordpools/wasnorm_wordpool_576.txt	LTP312	ltpFR2	7	5	BLACKBOARD	133	n/a	n/a	0	0	0
-0.002	n/a	WORD	-1	wordpools/wasnorm_wordpool_576.txt	LTP312	ltpFR2	7	5	INFANT	737	n/a	n/a	0	0	0
-0.002	n/a	WORD	-1	wordpools/wasnorm_wordpool_576.txt	LTP312	ltpFR2	7	5	POWDER	1117	n/a	n/a	0	0	0
-0.002	n/a	WORD	-1	wordpools/wasnorm_wordpool_576.txt	LTP312	ltpFR2	7	5	BROTHER	179	n/a	n/a	0	0	0
-0.002	n/a	WORD	-1	wordpools/wasnorm_wordpool_576.txt	LTP312	ltpFR2	7	5	BULLET	194	n/a	n/a	0	0	0
-0.002	n/a	WORD	-1	wordpools/wasnorm_wordpool_576.txt	LTP312	ltpFR2	7	5	COD	340	n/a	n/a	0	0	0
-0.002	n/a	WORD	-1	wordpools/wasnorm_wordpool_576.txt	LTP312	ltpFR2	7	5	LILY	821	n/a	n/a	0	0	0
-0.002	n/a	WORD	-1	wordpools/wasnorm_wordpool_576.txt	LTP312	ltpFR2	7	5	SISTER	1312	n/a	n/a	0	0	0
-0.002	n/a	WORD	-1	wordpools/wasnorm_wordpool_576.txt	LTP312	ltpFR2	7	5	GARDEN	623	n/a	n/a	0	0	0
-0.002	n/a	WORD	-1	wordpools/wasnorm_wordpool_576.txt	LTP312	ltpFR2	7	5	FLOWER	584	n/a	n/a	0	0	0
-0.002	n/a	WORD	-1	wordpools/wasnorm_wordpool_576.txt	LTP312	ltpFR2	7	5	COSTUME	383	n/a	n/a	0	0	0
-0.002	n/a	WORD	-1	wordpools/wasnorm_wordpool_576.txt	LTP312	ltpFR2	7	5	CRICKET	408	n/a	n/a	0	0	0
-0.002	n/a	WORD	-1	wordpools/wasnorm_wordpool_576.txt	LTP312	ltpFR2	7	5	SUNRISE	1407	n/a	n/a	0	0	0
-0.002	n/a	WORD	-1	wordpools/wasnorm_wordpool_576.txt	LTP312	ltpFR2	7	5	WINDOW	1611	n/a	n/a	0	0	0
-0.002	n/a	WORD	-1	wordpools/wasnorm_wordpool_576.txt	LTP312	ltpFR2	7	5	PRINCESS	1125	n/a	n/a	0	0	0
-0.002	n/a	WORD	-1	wordpools/wasnorm_wordpool_576.txt	LTP312	ltpFR2	7	5	GANGSTER	620	n/a	n/a	0	0	0
-0.002	n/a	START	-1	n/a	LTP312	ltpFR2	7	n/a	n/a	n/a	7	n/a	n/a	n/a	n/a
-0.002	n/a	DISTRACTOR	-1	n/a	LTP312	ltpFR2	7	5	n/a	n/a	n/a	n/a	0	0	0
-0.002	n/a	PROB	-1	n/a	LTP312	ltpFR2	7	n/a	n/a	n/a	7	6	1	4	1
-0.002	n/a	PROB	-1	n/a	LTP312	ltpFR2	7	n/a	n/a	n/a	7	14	8	3	3
-0.002	n/a	PROB	-1	n/a	LTP312	ltpFR2	7	n/a	n/a	n/a	7	19	6	8	7
-0.002	n/a	PROB	-1	n/a	LTP312	ltpFR2	7	n/a	n/a	n/a	7	8	2	5	1
-0.002	n/a	PROB	-1	n/a	LTP312	ltpFR2	7	n/a	n/a	n/a	7	16	6	8	2
-0.002	n/a	PROB	-1	n/a	LTP312	ltpFR2	7	n/a	n/a	n/a	7	12	6	5	1
-0.002	n/a	PROB	-1	n/a	LTP312	ltpFR2	7	n/a	n/a	n/a	7	11	7	2	2
-0.002	n/a	PROB	-1	n/a	LTP312	ltpFR2	7	n/a	n/a	n/a	7	8	3	2	2
-0.002	n/a	PROB	-1	n/a	LTP312	ltpFR2	7	n/a	n/a	n/a	7	18	6	3	9
-0.002	n/a	PROB	-1	n/a	LTP312	ltpFR2	7	n/a	n/a	n/a	7	13	5	2	6
-0.002	n/a	PROB	-1	n/a	LTP312	ltpFR2	7	n/a	n/a	n/a	7	9	5	1	3
-0.002	n/a	PROB	-1	n/a	LTP312	ltpFR2	7	n/a	n/a	n/a	7	12	2	3	7
-0.002	n/a	STOP	-1	n/a	LTP312	ltpFR2	7	n/a	n/a	n/a	7	n/a	n/a	n/a	n/a
-0.002	n/a	REC_START	-1	n/a	LTP312	ltpFR2	7	5	n/a	n/a	n/a	n/a	0	0	0
-0.002	n/a	REC_WORD	-1	wordpools/wasnorm_wordpool_576.txt	LTP312	ltpFR2	7	5	BREAST	171	n/a	n/a	0	0	0
-0.002	n/a	REC_WORD	-1	wordpools/wasnorm_wordpool_576.txt	LTP312	ltpFR2	7	5	POWDER	1117	n/a	n/a	0	0	0
-0.002	n/a	REC_WORD	-1	wordpools/wasnorm_wordpool_576.txt	LTP312	ltpFR2	7	5	QUAIL	1147	n/a	n/a	0	0	0
-0.002	n/a	REC_WORD	-1	wordpools/wasnorm_wordpool_576.txt	LTP312	ltpFR2	7	5	BROTHER	179	n/a	n/a	0	0	0
-0.002	n/a	REC_WORD	-1	wordpools/wasnorm_wordpool_576.txt	LTP312	ltpFR2	7	5	BULLET	194	n/a	n/a	0	0	0
-0.002	n/a	REC_WORD	-1	wordpools/wasnorm_wordpool_576.txt	LTP312	ltpFR2	7	5	SISTER	1312	n/a	n/a	0	0	0
-0.002	n/a	REC_WORD_VV	-1	wordpools/wasnorm_wordpool_576.txt	LTP312	ltpFR2	7	5	<>	-1	n/a	n/a	0	0	0
-0.002	n/a	REC_WORD	-1	wordpools/wasnorm_wordpool_576.txt	LTP312	ltpFR2	7	5	LILY	821	n/a	n/a	0	0	0
-0.002	n/a	REC_WORD	-1	wordpools/wasnorm_wordpool_576.txt	LTP312	ltpFR2	7	5	GARDEN	623	n/a	n/a	0	0	0
-0.002	n/a	REC_WORD	-1	wordpools/wasnorm_wordpool_576.txt	LTP312	ltpFR2	7	5	FLOWER	584	n/a	n/a	0	0	0
-0.002	n/a	REC_WORD_VV	-1	wordpools/wasnorm_wordpool_576.txt	LTP312	ltpFR2	7	5	<>	-1	n/a	n/a	0	0	0
-0.002	n/a	REC_WORD	-1	wordpools/wasnorm_wordpool_576.txt	LTP312	ltpFR2	7	5	COSTUME	383	n/a	n/a	0	0	0
-0.002	n/a	REC_WORD_VV	-1	wordpools/wasnorm_wordpool_576.txt	LTP312	ltpFR2	7	5	<>	-1	n/a	n/a	0	0	0
-0.002	n/a	REC_WORD	-1	wordpools/wasnorm_wordpool_576.txt	LTP312	ltpFR2	7	5	QUAIL	1147	n/a	n/a	0	0	0
-0.002	n/a	DISTRACTOR	-1	n/a	LTP312	ltpFR2	7	6	n/a	n/a	n/a	n/a	0	0	0
-0.002	n/a	START	-1	n/a	LTP312	ltpFR2	7	n/a	n/a	n/a	8	n/a	n/a	n/a	n/a
-0.002	n/a	PROB	-1	n/a	LTP312	ltpFR2	7	n/a	n/a	n/a	8	17	3	5	9
-0.002	n/a	PROB	-1	n/a	LTP312	ltpFR2	7	n/a	n/a	n/a	8	16	2	6	8
-0.002	n/a	PROB	-1	n/a	LTP312	ltpFR2	7	n/a	n/a	n/a	8	11	1	8	2
-0.002	n/a	PROB	-1	n/a	LTP312	ltpFR2	7	n/a	n/a	n/a	8	11	1	7	3
-0.002	n/a	PROB	-1	n/a	LTP312	ltpFR2	7	n/a	n/a	n/a	8	18	8	8	2
-0.002	n/a	PROB	-1	n/a	LTP312	ltpFR2	7	n/a	n/a	n/a	8	16	6	3	7
-0.002	n/a	PROB	-1	n/a	LTP312	ltpFR2	7	n/a	n/a	n/a	8	14	1	4	9
-0.002	n/a	PROB	-1	n/a	LTP312	ltpFR2	7	n/a	n/a	n/a	8	16	5	3	9
-0.002	n/a	PROB	-1	n/a	LTP312	ltpFR2	7	n/a	n/a	n/a	8	10	3	3	4
-0.002	n/a	PROB	-1	n/a	LTP312	ltpFR2	7	n/a	n/a	n/a	8	18	9	4	5
-0.002	n/a	PROB	-1	n/a	LTP312	ltpFR2	7	n/a	n/a	n/a	8	14	4	2	8
-0.002	n/a	PROB	-1	n/a	LTP312	ltpFR2	7	n/a	n/a	n/a	8	14	4	9	1
-0.002	n/a	PROB	-1	n/a	LTP312	ltpFR2	7	n/a	n/a	n/a	8	9	3	2	4
-0.002	n/a	PROB	-1	n/a	LTP312	ltpFR2	7	n/a	n/a	n/a	8	8	2	3	3
-0.002	n/a	PROB	-1	n/a	LTP312	ltpFR2	7	n/a	n/a	n/a	8	9	3	3	3
-0.002	n/a	STOP	-1	n/a	LTP312	ltpFR2	7	n/a	n/a	n/a	8	n/a	n/a	n/a	n/a
-0.002	n/a	WORD	-1	wordpools/wasnorm_wordpool_576.txt	LTP312	ltpFR2	7	6	APPLE	33	n/a	n/a	0	0	0
-0.002	n/a	WORD	-1	wordpools/wasnorm_wordpool_576.txt	LTP312	ltpFR2	7	6	DRAWING	494	n/a	n/a	0	0	0
-0.002	n/a	WORD	-1	wordpools/wasnorm_wordpool_576.txt	LTP312	ltpFR2	7	6	CLOCK	325	n/a	n/a	0	0	0
-0.002	n/a	WORD	-1	wordpools/wasnorm_wordpool_576.txt	LTP312	ltpFR2	7	6	YOLK	1633	n/a	n/a	0	0	0
-0.002	n/a	WORD	-1	wordpools/wasnorm_wordpool_576.txt	LTP312	ltpFR2	7	6	SEAFOOD	1260	n/a	n/a	0	0	0
-0.002	n/a	WORD	-1	wordpools/wasnorm_wordpool_576.txt	LTP312	ltpFR2	7	6	OYSTER	995	n/a	n/a	0	0	0
-0.002	n/a	WORD	-1	wordpools/wasnorm_wordpool_576.txt	LTP312	ltpFR2	7	6	TABLE	1426	n/a	n/a	0	0	0
-0.002	n/a	WORD	-1	wordpools/wasnorm_wordpool_576.txt	LTP312	ltpFR2	7	6	FOOTBALL	591	n/a	n/a	0	0	0
-0.002	n/a	WORD	-1	wordpools/wasnorm_wordpool_576.txt	LTP312	ltpFR2	7	6	CROWN	415	n/a	n/a	0	0	0
-0.002	n/a	WORD	-1	wordpools/wasnorm_wordpool_576.txt	LTP312	ltpFR2	7	6	DRESSER	496	n/a	n/a	0	0	0
-0.002	n/a	WORD	-1	wordpools/wasnorm_wordpool_576.txt	LTP312	ltpFR2	7	6	FRUIT	610	n/a	n/a	0	0	0
-0.002	n/a	WORD	-1	wordpools/wasnorm_wordpool_576.txt	LTP312	ltpFR2	7	6	MARKER	870	n/a	n/a	0	0	0
-0.002	n/a	WORD	-1	wordpools/wasnorm_wordpool_576.txt	LTP312	ltpFR2	7	6	UMPIRE	1535	n/a	n/a	0	0	0
-0.002	n/a	WORD	-1	wordpools/wasnorm_wordpool_576.txt	LTP312	ltpFR2	7	6	SWAMP	1416	n/a	n/a	0	0	0
-0.002	n/a	WORD	-1	wordpools/wasnorm_wordpool_576.txt	LTP312	ltpFR2	7	6	LEG	809	n/a	n/a	0	0	0
-0.002	n/a	WORD	-1	wordpools/wasnorm_wordpool_576.txt	LTP312	ltpFR2	7	6	JUDGE	761	n/a	n/a	0	0	0
-0.002	n/a	WORD	-1	wordpools/wasnorm_wordpool_576.txt	LTP312	ltpFR2	7	6	WHISTLE	1606	n/a	n/a	0	0	0
-0.002	n/a	WORD	-1	wordpools/wasnorm_wordpool_576.txt	LTP312	ltpFR2	7	6	CHIPMUNK	304	n/a	n/a	0	0	0
-0.002	n/a	WORD	-1	wordpools/wasnorm_wordpool_576.txt	LTP312	ltpFR2	7	6	CASHEW	253	n/a	n/a	0	0	0
-0.002	n/a	WORD	-1	wordpools/wasnorm_wordpool_576.txt	LTP312	ltpFR2	7	6	GUARD	667	n/a	n/a	0	0	0
-0.002	n/a	WORD	-1	wordpools/wasnorm_wordpool_576.txt	LTP312	ltpFR2	7	6	OZONE	996	n/a	n/a	0	0	0
-0.002	n/a	WORD	-1	wordpools/wasnorm_wordpool_576.txt	LTP312	ltpFR2	7	6	CREATURE	403	n/a	n/a	0	0	0
-0.002	n/a	WORD	-1	wordpools/wasnorm_wordpool_576.txt	LTP312	ltpFR2	7	6	QUEEN	1149	n/a	n/a	0	0	0
-0.002	n/a	WORD	-1	wordpools/wasnorm_wordpool_576.txt	LTP312	ltpFR2	7	6	PALACE	1006	n/a	n/a	0	0	0
-0.002	n/a	START	-1	n/a	LTP312	ltpFR2	7	n/a	n/a	n/a	9	n/a	n/a	n/a	n/a
-0.002	n/a	DISTRACTOR	-1	n/a	LTP312	ltpFR2	7	6	n/a	n/a	n/a	n/a	0	0	0
-0.002	n/a	PROB	-1	n/a	LTP312	ltpFR2	7	n/a	n/a	n/a	9	27	9	9	9
-0.002	n/a	PROB	-1	n/a	LTP312	ltpFR2	7	n/a	n/a	n/a	9	18	7	5	6
-0.002	n/a	PROB	-1	n/a	LTP312	ltpFR2	7	n/a	n/a	n/a	9	22	9	9	4
-0.002	n/a	PROB	-1	n/a	LTP312	ltpFR2	7	n/a	n/a	n/a	9	18	8	9	1
-0.002	n/a	PROB	-1	n/a	LTP312	ltpFR2	7	n/a	n/a	n/a	9	17	3	5	9
-0.002	n/a	PROB	-1	n/a	LTP312	ltpFR2	7	n/a	n/a	n/a	9	8	3	3	2
-0.002	n/a	PROB	-1	n/a	LTP312	ltpFR2	7	n/a	n/a	n/a	9	21	9	6	6
-0.002	n/a	PROB	-1	n/a	LTP312	ltpFR2	7	n/a	n/a	n/a	9	16	9	1	6
-0.002	n/a	PROB	-1	n/a	LTP312	ltpFR2	7	n/a	n/a	n/a	9	19	5	9	5
-0.002	n/a	PROB	-1	n/a	LTP312	ltpFR2	7	n/a	n/a	n/a	9	11	2	5	4
-0.002	n/a	PROB	-1	n/a	LTP312	ltpFR2	7	n/a	n/a	n/a	9	10	5	3	2
-0.002	n/a	PROB	-1	n/a	LTP312	ltpFR2	7	n/a	n/a	n/a	9	17	9	2	6
-0.002	n/a	PROB	-1	n/a	LTP312	ltpFR2	7	n/a	n/a	n/a	9	17	6	8	3
-0.002	n/a	STOP	-1	n/a	LTP312	ltpFR2	7	n/a	n/a	n/a	9	n/a	n/a	n/a	n/a
-0.002	n/a	REC_START	-1	n/a	LTP312	ltpFR2	7	6	n/a	n/a	n/a	n/a	0	0	0
-0.002	n/a	REC_WORD	-1	wordpools/wasnorm_wordpool_576.txt	LTP312	ltpFR2	7	6	YOLK	1633	n/a	n/a	0	0	0
-0.002	n/a	REC_WORD	-1	wordpools/wasnorm_wordpool_576.txt	LTP312	ltpFR2	7	6	OYSTER	995	n/a	n/a	0	0	0
-0.002	n/a	REC_WORD	-1	wordpools/wasnorm_wordpool_576.txt	LTP312	ltpFR2	7	6	SEAFOOD	1260	n/a	n/a	0	0	0
-0.002	n/a	REC_WORD	-1	wordpools/wasnorm_wordpool_576.txt	LTP312	ltpFR2	7	6	FOOTBALL	591	n/a	n/a	0	0	0
-0.002	n/a	REC_WORD	-1	wordpools/wasnorm_wordpool_576.txt	LTP312	ltpFR2	7	6	TABLE	1426	n/a	n/a	0	0	0
-0.002	n/a	REC_WORD	-1	wordpools/wasnorm_wordpool_576.txt	LTP312	ltpFR2	7	6	CROWN	415	n/a	n/a	0	0	0
-0.002	n/a	REC_WORD	-1	wordpools/wasnorm_wordpool_576.txt	LTP312	ltpFR2	7	6	OZONE	996	n/a	n/a	0	0	0
-0.002	n/a	REC_WORD	-1	wordpools/wasnorm_wordpool_576.txt	LTP312	ltpFR2	7	6	CHIPMUNK	304	n/a	n/a	0	0	0
-0.002	n/a	WORD	-1	wordpools/wasnorm_wordpool_576.txt	LTP312	ltpFR2	7	7	SPONGE	1355	n/a	n/a	0	0	0
-0.002	n/a	WORD	-1	wordpools/wasnorm_wordpool_576.txt	LTP312	ltpFR2	7	7	FIREMAN	569	n/a	n/a	0	0	0
-0.002	n/a	WORD	-1	wordpools/wasnorm_wordpool_576.txt	LTP312	ltpFR2	7	7	DASHBOARD	441	n/a	n/a	0	0	0
-0.002	n/a	WORD	-1	wordpools/wasnorm_wordpool_576.txt	LTP312	ltpFR2	7	7	TOMBSTONE	1478	n/a	n/a	0	0	0
-0.002	n/a	WORD	-1	wordpools/wasnorm_wordpool_576.txt	LTP312	ltpFR2	7	7	GRAVE	658	n/a	n/a	0	0	0
-0.002	n/a	WORD	-1	wordpools/wasnorm_wordpool_576.txt	LTP312	ltpFR2	7	7	BANK	83	n/a	n/a	0	0	0
-0.002	n/a	WORD	-1	wordpools/wasnorm_wordpool_576.txt	LTP312	ltpFR2	7	7	HIKER	708	n/a	n/a	0	0	0
-0.002	n/a	WORD	-1	wordpools/wasnorm_wordpool_576.txt	LTP312	ltpFR2	7	7	SCALLOP	1242	n/a	n/a	0	0	0
-0.002	n/a	WORD	-1	wordpools/wasnorm_wordpool_576.txt	LTP312	ltpFR2	7	7	LAMP	798	n/a	n/a	0	0	0
-0.002	n/a	WORD	-1	wordpools/wasnorm_wordpool_576.txt	LTP312	ltpFR2	7	7	RELISH	1183	n/a	n/a	0	0	0
-0.002	n/a	WORD	-1	wordpools/wasnorm_wordpool_576.txt	LTP312	ltpFR2	7	7	SLUG	1329	n/a	n/a	0	0	0
-0.002	n/a	WORD	-1	wordpools/wasnorm_wordpool_576.txt	LTP312	ltpFR2	7	7	EMPIRE	530	n/a	n/a	0	0	0
-0.002	n/a	WORD	-1	wordpools/wasnorm_wordpool_576.txt	LTP312	ltpFR2	7	7	MATCH	878	n/a	n/a	0	0	0
-0.002	n/a	WORD	-1	wordpools/wasnorm_wordpool_576.txt	LTP312	ltpFR2	7	7	DANDRUFF	439	n/a	n/a	0	0	0
-0.002	n/a	WORD	-1	wordpools/wasnorm_wordpool_576.txt	LTP312	ltpFR2	7	7	GHETTO	633	n/a	n/a	0	0	0
-0.002	n/a	WORD	-1	wordpools/wasnorm_wordpool_576.txt	LTP312	ltpFR2	7	7	NOTEBOOK	959	n/a	n/a	0	0	0
-0.002	n/a	WORD	-1	wordpools/wasnorm_wordpool_576.txt	LTP312	ltpFR2	7	7	COTTAGE	384	n/a	n/a	0	0	0
-0.002	n/a	WORD	-1	wordpools/wasnorm_wordpool_576.txt	LTP312	ltpFR2	7	7	CABIN	211	n/a	n/a	0	0	0
-0.002	n/a	WORD	-1	wordpools/wasnorm_wordpool_576.txt	LTP312	ltpFR2	7	7	STUDENT	1395	n/a	n/a	0	0	0
-0.002	n/a	WORD	-1	wordpools/wasnorm_wordpool_576.txt	LTP312	ltpFR2	7	7	DINER	467	n/a	n/a	0	0	0
-0.002	n/a	WORD	-1	wordpools/wasnorm_wordpool_576.txt	LTP312	ltpFR2	7	7	LIVER	833	n/a	n/a	0	0	0
-0.002	n/a	WORD	-1	wordpools/wasnorm_wordpool_576.txt	LTP312	ltpFR2	7	7	DIME	466	n/a	n/a	0	0	0
-0.002	n/a	WORD	-1	wordpools/wasnorm_wordpool_576.txt	LTP312	ltpFR2	7	7	SPIDER	1351	n/a	n/a	0	0	0
-0.002	n/a	WORD	-1	wordpools/wasnorm_wordpool_576.txt	LTP312	ltpFR2	7	7	COMET	353	n/a	n/a	0	0	0
-0.002	n/a	START	-1	n/a	LTP312	ltpFR2	7	n/a	n/a	n/a	10	n/a	n/a	n/a	n/a
-0.002	n/a	DISTRACTOR	-1	n/a	LTP312	ltpFR2	7	7	n/a	n/a	n/a	n/a	0	0	0
-0.002	n/a	PROB	-1	n/a	LTP312	ltpFR2	7	n/a	n/a	n/a	10	11	5	5	1
-0.002	n/a	PROB	-1	n/a	LTP312	ltpFR2	7	n/a	n/a	n/a	10	13	6	4	3
-0.002	n/a	PROB	-1	n/a	LTP312	ltpFR2	7	n/a	n/a	n/a	10	6	1	4	1
-0.002	n/a	PROB	-1	n/a	LTP312	ltpFR2	7	n/a	n/a	n/a	10	18	6	7	5
-0.002	n/a	PROB	-1	n/a	LTP312	ltpFR2	7	n/a	n/a	n/a	10	19	5	7	7
-0.002	n/a	PROB	-1	n/a	LTP312	ltpFR2	7	n/a	n/a	n/a	10	10	3	2	5
-0.002	n/a	PROB	-1	n/a	LTP312	ltpFR2	7	n/a	n/a	n/a	10	11	6	1	4
-0.002	n/a	PROB	-1	n/a	LTP312	ltpFR2	7	n/a	n/a	n/a	10	14	8	1	5
-0.002	n/a	PROB	-1	n/a	LTP312	ltpFR2	7	n/a	n/a	n/a	10	19	2	9	8
-0.002	n/a	PROB	-1	n/a	LTP312	ltpFR2	7	n/a	n/a	n/a	10	16	2	6	8
-0.002	n/a	PROB	-1	n/a	LTP312	ltpFR2	7	n/a	n/a	n/a	10	22	7	8	7
-0.002	n/a	PROB	-1	n/a	LTP312	ltpFR2	7	n/a	n/a	n/a	10	18	8	8	2
-0.002	n/a	PROB	-1	n/a	LTP312	ltpFR2	7	n/a	n/a	n/a	10	19	3	8	8
-0.002	n/a	PROB	-1	n/a	LTP312	ltpFR2	7	n/a	n/a	n/a	10	17	2	9	6
-0.002	n/a	PROB	-1	n/a	LTP312	ltpFR2	7	n/a	n/a	n/a	10	13	1	5	7
-0.002	n/a	STOP	-1	n/a	LTP312	ltpFR2	7	n/a	n/a	n/a	10	n/a	n/a	n/a	n/a
-0.002	n/a	REC_START	-1	n/a	LTP312	ltpFR2	7	7	n/a	n/a	n/a	n/a	0	0	0
-0.002	n/a	REC_WORD	-1	wordpools/wasnorm_wordpool_576.txt	LTP312	ltpFR2	7	7	SPONGE	1355	n/a	n/a	0	0	0
-0.002	n/a	REC_WORD_VV	-1	wordpools/wasnorm_wordpool_576.txt	LTP312	ltpFR2	7	7	<>	-1	n/a	n/a	0	0	0
-0.002	n/a	REC_WORD	-1	wordpools/wasnorm_wordpool_576.txt	LTP312	ltpFR2	7	7	FIREMAN	569	n/a	n/a	0	0	0
-0.002	n/a	REC_WORD_VV	-1	wordpools/wasnorm_wordpool_576.txt	LTP312	ltpFR2	7	7	<>	-1	n/a	n/a	0	0	0
-0.002	n/a	REC_WORD	-1	wordpools/wasnorm_wordpool_576.txt	LTP312	ltpFR2	7	7	SLUG	1329	n/a	n/a	0	0	0
-0.002	n/a	REC_WORD	-1	wordpools/wasnorm_wordpool_576.txt	LTP312	ltpFR2	7	7	EMPIRE	530	n/a	n/a	0	0	0
-0.002	n/a	REC_WORD_VV	-1	wordpools/wasnorm_wordpool_576.txt	LTP312	ltpFR2	7	7	<>	-1	n/a	n/a	0	0	0
-0.002	n/a	REC_WORD	-1	wordpools/wasnorm_wordpool_576.txt	LTP312	ltpFR2	7	7	MATCH	878	n/a	n/a	0	0	0
-0.002	n/a	REC_WORD	-1	wordpools/wasnorm_wordpool_576.txt	LTP312	ltpFR2	7	7	NOTEBOOK	959	n/a	n/a	0	0	0
-0.002	n/a	REC_WORD	-1	wordpools/wasnorm_wordpool_576.txt	LTP312	ltpFR2	7	7	WHISTLE	1606	n/a	n/a	0	0	0
-0.002	n/a	WORD	-1	wordpools/wasnorm_wordpool_576.txt	LTP312	ltpFR2	7	8	RABBIT	1152	n/a	n/a	0	0	0
-0.002	n/a	WORD	-1	wordpools/wasnorm_wordpool_576.txt	LTP312	ltpFR2	7	8	HEDGE	699	n/a	n/a	0	0	0
-0.002	n/a	WORD	-1	wordpools/wasnorm_wordpool_576.txt	LTP312	ltpFR2	7	8	SANDWICH	1232	n/a	n/a	0	0	0
-0.002	n/a	WORD	-1	wordpools/wasnorm_wordpool_576.txt	LTP312	ltpFR2	7	8	SALAD	1224	n/a	n/a	0	0	0
-0.002	n/a	WORD	-1	wordpools/wasnorm_wordpool_576.txt	LTP312	ltpFR2	7	8	CARROT	249	n/a	n/a	0	0	0
-0.002	n/a	WORD	-1	wordpools/wasnorm_wordpool_576.txt	LTP312	ltpFR2	7	8	LABEL	790	n/a	n/a	0	0	0
-0.002	n/a	WORD	-1	wordpools/wasnorm_wordpool_576.txt	LTP312	ltpFR2	7	8	SALMON	1227	n/a	n/a	0	0	0
-0.002	n/a	WORD	-1	wordpools/wasnorm_wordpool_576.txt	LTP312	ltpFR2	7	8	BASEMENT	94	n/a	n/a	0	0	0
-0.002	n/a	WORD	-1	wordpools/wasnorm_wordpool_576.txt	LTP312	ltpFR2	7	8	BACKBONE	66	n/a	n/a	0	0	0
-0.002	n/a	WORD	-1	wordpools/wasnorm_wordpool_576.txt	LTP312	ltpFR2	7	8	SHERIFF	1284	n/a	n/a	0	0	0
-0.002	n/a	WORD	-1	wordpools/wasnorm_wordpool_576.txt	LTP312	ltpFR2	7	8	SAUSAGE	1238	n/a	n/a	0	0	0
-0.002	n/a	WORD	-1	wordpools/wasnorm_wordpool_576.txt	LTP312	ltpFR2	7	8	PISTON	1076	n/a	n/a	0	0	0
-0.002	n/a	WORD	-1	wordpools/wasnorm_wordpool_576.txt	LTP312	ltpFR2	7	8	RIVER	1194	n/a	n/a	0	0	0
-0.002	n/a	WORD	-1	wordpools/wasnorm_wordpool_576.txt	LTP312	ltpFR2	7	8	WAGON	1578	n/a	n/a	0	0	0
-0.002	n/a	WORD	-1	wordpools/wasnorm_wordpool_576.txt	LTP312	ltpFR2	7	8	CRAB	397	n/a	n/a	0	0	0
-0.002	n/a	WORD	-1	wordpools/wasnorm_wordpool_576.txt	LTP312	ltpFR2	7	8	COMPASS	358	n/a	n/a	0	0	0
-0.002	n/a	WORD	-1	wordpools/wasnorm_wordpool_576.txt	LTP312	ltpFR2	7	8	DAISY	435	n/a	n/a	0	0	0
-0.002	n/a	WORD	-1	wordpools/wasnorm_wordpool_576.txt	LTP312	ltpFR2	7	8	TUNNEL	1519	n/a	n/a	0	0	0
-0.002	n/a	WORD	-1	wordpools/wasnorm_wordpool_576.txt	LTP312	ltpFR2	7	8	STAKE	1368	n/a	n/a	0	0	0
-0.002	n/a	WORD	-1	wordpools/wasnorm_wordpool_576.txt	LTP312	ltpFR2	7	8	PUDDLE	1140	n/a	n/a	0	0	0
-0.002	n/a	WORD	-1	wordpools/wasnorm_wordpool_576.txt	LTP312	ltpFR2	7	8	LAKE	796	n/a	n/a	0	0	0
-0.002	n/a	WORD	-1	wordpools/wasnorm_wordpool_576.txt	LTP312	ltpFR2	7	8	EGYPT	519	n/a	n/a	0	0	0
-0.002	n/a	WORD	-1	wordpools/wasnorm_wordpool_576.txt	LTP312	ltpFR2	7	8	MOTEL	919	n/a	n/a	0	0	0
-0.002	n/a	WORD	-1	wordpools/wasnorm_wordpool_576.txt	LTP312	ltpFR2	7	8	HOOK	715	n/a	n/a	0	0	0
-0.002	n/a	START	-1	n/a	LTP312	ltpFR2	7	n/a	n/a	n/a	11	n/a	n/a	n/a	n/a
-0.002	n/a	DISTRACTOR	-1	n/a	LTP312	ltpFR2	7	8	n/a	n/a	n/a	n/a	0	0	0
-0.002	n/a	PROB	-1	n/a	LTP312	ltpFR2	7	n/a	n/a	n/a	11	15	8	5	2
-0.002	n/a	PROB	-1	n/a	LTP312	ltpFR2	7	n/a	n/a	n/a	11	19	7	5	7
-0.002	n/a	PROB	-1	n/a	LTP312	ltpFR2	7	n/a	n/a	n/a	11	15	3	4	8
-0.002	n/a	PROB	-1	n/a	LTP312	ltpFR2	7	n/a	n/a	n/a	11	13	5	1	7
-0.002	n/a	PROB	-1	n/a	LTP312	ltpFR2	7	n/a	n/a	n/a	11	20	9	2	9
-0.002	n/a	PROB	-1	n/a	LTP312	ltpFR2	7	n/a	n/a	n/a	11	22	8	6	8
-0.002	n/a	PROB	-1	n/a	LTP312	ltpFR2	7	n/a	n/a	n/a	11	21	7	9	5
-0.002	n/a	PROB	-1	n/a	LTP312	ltpFR2	7	n/a	n/a	n/a	11	13	3	4	6
-0.002	n/a	PROB	-1	n/a	LTP312	ltpFR2	7	n/a	n/a	n/a	11	7	1	1	5
-0.002	n/a	PROB	-1	n/a	LTP312	ltpFR2	7	n/a	n/a	n/a	11	17	9	1	7
-0.002	n/a	PROB	-1	n/a	LTP312	ltpFR2	7	n/a	n/a	n/a	11	10	5	3	2
-0.002	n/a	PROB	-1	n/a	LTP312	ltpFR2	7	n/a	n/a	n/a	11	23	9	9	5
-0.002	n/a	PROB	-1	n/a	LTP312	ltpFR2	7	n/a	n/a	n/a	11	11	4	2	5
-0.002	n/a	STOP	-1	n/a	LTP312	ltpFR2	7	n/a	n/a	n/a	11	n/a	n/a	n/a	n/a
-0.002	n/a	REC_START	-1	n/a	LTP312	ltpFR2	7	8	n/a	n/a	n/a	n/a	0	0	0
-0.002	n/a	REC_WORD	-1	wordpools/wasnorm_wordpool_576.txt	LTP312	ltpFR2	7	8	MOTEL	919	n/a	n/a	0	0	0
-0.002	n/a	REC_WORD_VV	-1	wordpools/wasnorm_wordpool_576.txt	LTP312	ltpFR2	7	8	<>	-1	n/a	n/a	0	0	0
-0.002	n/a	REC_WORD	-1	wordpools/wasnorm_wordpool_576.txt	LTP312	ltpFR2	7	8	LAKE	796	n/a	n/a	0	0	0
-0.002	n/a	REC_WORD	-1	wordpools/wasnorm_wordpool_576.txt	LTP312	ltpFR2	7	8	EGYPT	519	n/a	n/a	0	0	0
-0.002	n/a	REC_WORD	-1	wordpools/wasnorm_wordpool_576.txt	LTP312	ltpFR2	7	8	PUDDING	1139	n/a	n/a	0	0	0
-0.002	n/a	REC_WORD	-1	wordpools/wasnorm_wordpool_576.txt	LTP312	ltpFR2	7	8	RABBIT	1152	n/a	n/a	0	0	0
-0.002	n/a	REC_WORD	-1	wordpools/wasnorm_wordpool_576.txt	LTP312	ltpFR2	7	8	CABBAGE	210	n/a	n/a	0	0	0
-0.002	n/a	REC_WORD	-1	wordpools/wasnorm_wordpool_576.txt	LTP312	ltpFR2	7	8	HOOK	715	n/a	n/a	0	0	0
-0.002	n/a	REST_REWET	-1	n/a	LTP312	ltpFR2	7	8	n/a	n/a	n/a	n/a	0	0	0
-0.002	n/a	WORD	-1	wordpools/wasnorm_wordpool_576.txt	LTP312	ltpFR2	7	9	RUST	1219	n/a	n/a	0	0	0
-0.002	n/a	WORD	-1	wordpools/wasnorm_wordpool_576.txt	LTP312	ltpFR2	7	9	MOTOR	922	n/a	n/a	0	0	0
-0.002	n/a	WORD	-1	wordpools/wasnorm_wordpool_576.txt	LTP312	ltpFR2	7	9	FARMER	553	n/a	n/a	0	0	0
-0.002	n/a	WORD	-1	wordpools/wasnorm_wordpool_576.txt	LTP312	ltpFR2	7	9	SHORTS	1293	n/a	n/a	0	0	0
-0.002	n/a	WORD	-1	wordpools/wasnorm_wordpool_576.txt	LTP312	ltpFR2	7	9	PEBBLE	1035	n/a	n/a	0	0	0
-0.002	n/a	WORD	-1	wordpools/wasnorm_wordpool_576.txt	LTP312	ltpFR2	7	9	PECAN	1036	n/a	n/a	0	0	0
-0.002	n/a	WORD	-1	wordpools/wasnorm_wordpool_576.txt	LTP312	ltpFR2	7	9	PUPPY	1144	n/a	n/a	0	0	0
-0.002	n/a	WORD	-1	wordpools/wasnorm_wordpool_576.txt	LTP312	ltpFR2	7	9	TYPIST	1532	n/a	n/a	0	0	0
-0.002	n/a	WORD	-1	wordpools/wasnorm_wordpool_576.txt	LTP312	ltpFR2	7	9	COCOON	339	n/a	n/a	0	0	0
-0.002	n/a	WORD	-1	wordpools/wasnorm_wordpool_576.txt	LTP312	ltpFR2	7	9	SHARK	1275	n/a	n/a	0	0	0
-0.002	n/a	WORD	-1	wordpools/wasnorm_wordpool_576.txt	LTP312	ltpFR2	7	9	CLIMBER	323	n/a	n/a	0	0	0
-0.002	n/a	WORD	-1	wordpools/wasnorm_wordpool_576.txt	LTP312	ltpFR2	7	9	DENIM	446	n/a	n/a	0	0	0
-0.002	n/a	WORD	-1	wordpools/wasnorm_wordpool_576.txt	LTP312	ltpFR2	7	9	HIGHWAY	707	n/a	n/a	0	0	0
-0.002	n/a	WORD	-1	wordpools/wasnorm_wordpool_576.txt	LTP312	ltpFR2	7	9	FLAG	573	n/a	n/a	0	0	0
-0.002	n/a	WORD	-1	wordpools/wasnorm_wordpool_576.txt	LTP312	ltpFR2	7	9	LADDER	793	n/a	n/a	0	0	0
-0.002	n/a	WORD	-1	wordpools/wasnorm_wordpool_576.txt	LTP312	ltpFR2	7	9	WORKER	1621	n/a	n/a	0	0	0
-0.002	n/a	WORD	-1	wordpools/wasnorm_wordpool_576.txt	LTP312	ltpFR2	7	9	CUSTARD	429	n/a	n/a	0	0	0
-0.002	n/a	WORD	-1	wordpools/wasnorm_wordpool_576.txt	LTP312	ltpFR2	7	9	JELLO	754	n/a	n/a	0	0	0
-0.002	n/a	WORD	-1	wordpools/wasnorm_wordpool_576.txt	LTP312	ltpFR2	7	9	XEROX	1628	n/a	n/a	0	0	0
-0.002	n/a	WORD	-1	wordpools/wasnorm_wordpool_576.txt	LTP312	ltpFR2	7	9	TREAT	1501	n/a	n/a	0	0	0
-0.002	n/a	WORD	-1	wordpools/wasnorm_wordpool_576.txt	LTP312	ltpFR2	7	9	TORTOISE	1486	n/a	n/a	0	0	0
-0.002	n/a	WORD	-1	wordpools/wasnorm_wordpool_576.txt	LTP312	ltpFR2	7	9	TRACTOR	1493	n/a	n/a	0	0	0
-0.002	n/a	WORD	-1	wordpools/wasnorm_wordpool_576.txt	LTP312	ltpFR2	7	9	FUNGUS	614	n/a	n/a	0	0	0
-0.002	n/a	WORD	-1	wordpools/wasnorm_wordpool_576.txt	LTP312	ltpFR2	7	9	SWITCH	1422	n/a	n/a	0	0	0
-0.002	n/a	START	-1	n/a	LTP312	ltpFR2	7	n/a	n/a	n/a	12	n/a	n/a	n/a	n/a
-0.002	n/a	DISTRACTOR	-1	n/a	LTP312	ltpFR2	7	9	n/a	n/a	n/a	n/a	0	0	0
-0.002	n/a	PROB	-1	n/a	LTP312	ltpFR2	7	n/a	n/a	n/a	12	16	7	3	6
-0.002	n/a	PROB	-1	n/a	LTP312	ltpFR2	7	n/a	n/a	n/a	12	17	5	3	9
-0.002	n/a	PROB	-1	n/a	LTP312	ltpFR2	7	n/a	n/a	n/a	12	15	2	5	8
-0.002	n/a	PROB	-1	n/a	LTP312	ltpFR2	7	n/a	n/a	n/a	12	16	2	6	8
-0.002	n/a	PROB	-1	n/a	LTP312	ltpFR2	7	n/a	n/a	n/a	12	24	9	6	9
-0.002	n/a	PROB	-1	n/a	LTP312	ltpFR2	7	n/a	n/a	n/a	12	15	2	4	9
-0.002	n/a	PROB	-1	n/a	LTP312	ltpFR2	7	n/a	n/a	n/a	12	11	3	7	1
-0.002	n/a	PROB	-1	n/a	LTP312	ltpFR2	7	n/a	n/a	n/a	12	20	7	8	5
-0.002	n/a	PROB	-1	n/a	LTP312	ltpFR2	7	n/a	n/a	n/a	12	13	3	3	7
-0.002	n/a	PROB	-1	n/a	LTP312	ltpFR2	7	n/a	n/a	n/a	12	16	6	9	1
-0.002	n/a	PROB	-1	n/a	LTP312	ltpFR2	7	n/a	n/a	n/a	12	20	9	2	9
-0.002	n/a	PROB	-1	n/a	LTP312	ltpFR2	7	n/a	n/a	n/a	12	17	6	8	3
-0.002	n/a	STOP	-1	n/a	LTP312	ltpFR2	7	n/a	n/a	n/a	12	n/a	n/a	n/a	n/a
-0.002	n/a	REC_START	-1	n/a	LTP312	ltpFR2	7	9	n/a	n/a	n/a	n/a	0	0	0
-0.002	n/a	REC_WORD	-1	wordpools/wasnorm_wordpool_576.txt	LTP312	ltpFR2	7	9	BREAST	171	n/a	n/a	0	0	0
-0.002	n/a	REC_WORD	-1	wordpools/wasnorm_wordpool_576.txt	LTP312	ltpFR2	7	9	MOTOR	922	n/a	n/a	0	0	0
-0.002	n/a	REC_WORD	-1	wordpools/wasnorm_wordpool_576.txt	LTP312	ltpFR2	7	9	TYPIST	1532	n/a	n/a	0	0	0
-0.002	n/a	REC_WORD	-1	wordpools/wasnorm_wordpool_576.txt	LTP312	ltpFR2	7	9	XEROX	1628	n/a	n/a	0	0	0
-0.002	n/a	REC_WORD	-1	wordpools/wasnorm_wordpool_576.txt	LTP312	ltpFR2	7	9	PEBBLE	1035	n/a	n/a	0	0	0
-0.002	n/a	REC_WORD	-1	wordpools/wasnorm_wordpool_576.txt	LTP312	ltpFR2	7	9	PUPPY	1144	n/a	n/a	0	0	0
-0.002	n/a	REC_WORD	-1	wordpools/wasnorm_wordpool_576.txt	LTP312	ltpFR2	7	9	COCOON	339	n/a	n/a	0	0	0
-0.002	n/a	REC_WORD	-1	wordpools/wasnorm_wordpool_576.txt	LTP312	ltpFR2	7	9	CLIMBER	323	n/a	n/a	0	0	0
-0.002	n/a	REC_WORD	-1	wordpools/wasnorm_wordpool_576.txt	LTP312	ltpFR2	7	9	DENIM	446	n/a	n/a	0	0	0
-0.002	n/a	REC_WORD	-1	wordpools/wasnorm_wordpool_576.txt	LTP312	ltpFR2	7	9	TORTOISE	1486	n/a	n/a	0	0	0
-0.002	n/a	REC_WORD	-1	wordpools/wasnorm_wordpool_576.txt	LTP312	ltpFR2	7	9	TRACTOR	1493	n/a	n/a	0	0	0
-0.002	n/a	REC_WORD	-1	wordpools/wasnorm_wordpool_576.txt	LTP312	ltpFR2	7	9	CUSTARD	429	n/a	n/a	0	0	0
-0.002	n/a	REC_WORD	-1	wordpools/wasnorm_wordpool_576.txt	LTP312	ltpFR2	7	9	JELLO	754	n/a	n/a	0	0	0
-0.002	n/a	REC_WORD	-1	wordpools/wasnorm_wordpool_576.txt	LTP312	ltpFR2	7	9	LABOR	-1	n/a	n/a	0	0	0
-0.002	n/a	DISTRACTOR	-1	n/a	LTP312	ltpFR2	7	10	n/a	n/a	n/a	n/a	0	0	0
-0.002	n/a	START	-1	n/a	LTP312	ltpFR2	7	n/a	n/a	n/a	13	n/a	n/a	n/a	n/a
-0.002	n/a	PROB	-1	n/a	LTP312	ltpFR2	7	n/a	n/a	n/a	13	22	6	9	7
-0.002	n/a	PROB	-1	n/a	LTP312	ltpFR2	7	n/a	n/a	n/a	13	13	5	6	2
-0.002	n/a	PROB	-1	n/a	LTP312	ltpFR2	7	n/a	n/a	n/a	13	16	1	8	7
-0.002	n/a	PROB	-1	n/a	LTP312	ltpFR2	7	n/a	n/a	n/a	13	16	8	1	7
-0.002	n/a	PROB	-1	n/a	LTP312	ltpFR2	7	n/a	n/a	n/a	13	19	6	7	6
-0.002	n/a	PROB	-1	n/a	LTP312	ltpFR2	7	n/a	n/a	n/a	13	16	5	8	3
-0.002	n/a	PROB	-1	n/a	LTP312	ltpFR2	7	n/a	n/a	n/a	13	18	9	5	4
-0.002	n/a	PROB	-1	n/a	LTP312	ltpFR2	7	n/a	n/a	n/a	13	23	5	9	9
-0.002	n/a	PROB	-1	n/a	LTP312	ltpFR2	7	n/a	n/a	n/a	13	13	1	5	7
-0.002	n/a	PROB	-1	n/a	LTP312	ltpFR2	7	n/a	n/a	n/a	13	14	5	7	2
-0.002	n/a	PROB	-1	n/a	LTP312	ltpFR2	7	n/a	n/a	n/a	13	17	6	8	3
-0.002	n/a	STOP	-1	n/a	LTP312	ltpFR2	7	n/a	n/a	n/a	13	n/a	n/a	n/a	n/a
-0.002	n/a	WORD	-1	wordpools/wasnorm_wordpool_576.txt	LTP312	ltpFR2	7	10	FRAME	600	n/a	n/a	0	0	0
-0.002	n/a	WORD	-1	wordpools/wasnorm_wordpool_576.txt	LTP312	ltpFR2	7	10	COOK	372	n/a	n/a	0	0	0
-0.002	n/a	WORD	-1	wordpools/wasnorm_wordpool_576.txt	LTP312	ltpFR2	7	10	STOVE	1388	n/a	n/a	0	0	0
-0.002	n/a	WORD	-1	wordpools/wasnorm_wordpool_576.txt	LTP312	ltpFR2	7	10	STOMACH	1384	n/a	n/a	0	0	0
-0.002	n/a	WORD	-1	wordpools/wasnorm_wordpool_576.txt	LTP312	ltpFR2	7	10	ACTOR	5	n/a	n/a	0	0	0
-0.002	n/a	WORD	-1	wordpools/wasnorm_wordpool_576.txt	LTP312	ltpFR2	7	10	NOVEL	960	n/a	n/a	0	0	0
-0.002	n/a	WORD	-1	wordpools/wasnorm_wordpool_576.txt	LTP312	ltpFR2	7	10	BRICK	172	n/a	n/a	0	0	0
-0.002	n/a	WORD	-1	wordpools/wasnorm_wordpool_576.txt	LTP312	ltpFR2	7	10	ARMY	39	n/a	n/a	0	0	0
-0.002	n/a	WORD	-1	wordpools/wasnorm_wordpool_576.txt	LTP312	ltpFR2	7	10	MARINE	869	n/a	n/a	0	0	0
-0.002	n/a	WORD	-1	wordpools/wasnorm_wordpool_576.txt	LTP312	ltpFR2	7	10	BOUQUET	157	n/a	n/a	0	0	0
-0.002	n/a	WORD	-1	wordpools/wasnorm_wordpool_576.txt	LTP312	ltpFR2	7	10	CANAL	226	n/a	n/a	0	0	0
-0.002	n/a	WORD	-1	wordpools/wasnorm_wordpool_576.txt	LTP312	ltpFR2	7	10	PRIMATE	1123	n/a	n/a	0	0	0
-0.002	n/a	WORD	-1	wordpools/wasnorm_wordpool_576.txt	LTP312	ltpFR2	7	10	VELVET	1555	n/a	n/a	0	0	0
-0.002	n/a	WORD	-1	wordpools/wasnorm_wordpool_576.txt	LTP312	ltpFR2	7	10	LACE	792	n/a	n/a	0	0	0
-0.002	n/a	WORD	-1	wordpools/wasnorm_wordpool_576.txt	LTP312	ltpFR2	7	10	TRUCK	1512	n/a	n/a	0	0	0
-0.002	n/a	WORD	-1	wordpools/wasnorm_wordpool_576.txt	LTP312	ltpFR2	7	10	SEAL	1262	n/a	n/a	0	0	0
-0.002	n/a	WORD	-1	wordpools/wasnorm_wordpool_576.txt	LTP312	ltpFR2	7	10	DONKEY	484	n/a	n/a	0	0	0
-0.002	n/a	WORD	-1	wordpools/wasnorm_wordpool_576.txt	LTP312	ltpFR2	7	10	NECKLACE	940	n/a	n/a	0	0	0
-0.002	n/a	WORD	-1	wordpools/wasnorm_wordpool_576.txt	LTP312	ltpFR2	7	10	SPACE	1345	n/a	n/a	0	0	0
-0.002	n/a	WORD	-1	wordpools/wasnorm_wordpool_576.txt	LTP312	ltpFR2	7	10	SOFTBALL	1343	n/a	n/a	0	0	0
-0.002	n/a	WORD	-1	wordpools/wasnorm_wordpool_576.txt	LTP312	ltpFR2	7	10	SWORD	1423	n/a	n/a	0	0	0
-0.002	n/a	WORD	-1	wordpools/wasnorm_wordpool_576.txt	LTP312	ltpFR2	7	10	SHELF	1280	n/a	n/a	0	0	0
-0.002	n/a	WORD	-1	wordpools/wasnorm_wordpool_576.txt	LTP312	ltpFR2	7	10	STICKER	1382	n/a	n/a	0	0	0
-0.002	n/a	WORD	-1	wordpools/wasnorm_wordpool_576.txt	LTP312	ltpFR2	7	10	GREASE	660	n/a	n/a	0	0	0
-0.002	n/a	START	-1	n/a	LTP312	ltpFR2	7	n/a	n/a	n/a	14	n/a	n/a	n/a	n/a
-0.002	n/a	DISTRACTOR	-1	n/a	LTP312	ltpFR2	7	10	n/a	n/a	n/a	n/a	0	0	0
-0.002	n/a	PROB	-1	n/a	LTP312	ltpFR2	7	n/a	n/a	n/a	14	14	2	4	8
-0.002	n/a	PROB	-1	n/a	LTP312	ltpFR2	7	n/a	n/a	n/a	14	13	9	1	3
-0.002	n/a	PROB	-1	n/a	LTP312	ltpFR2	7	n/a	n/a	n/a	14	18	6	7	5
-0.002	n/a	PROB	-1	n/a	LTP312	ltpFR2	7	n/a	n/a	n/a	14	18	9	5	4
-0.002	n/a	PROB	-1	n/a	LTP312	ltpFR2	7	n/a	n/a	n/a	14	10	2	2	6
-0.002	n/a	PROB	-1	n/a	LTP312	ltpFR2	7	n/a	n/a	n/a	14	23	9	8	6
-0.002	n/a	PROB	-1	n/a	LTP312	ltpFR2	7	n/a	n/a	n/a	14	9	3	5	1
-0.002	n/a	PROB	-1	n/a	LTP312	ltpFR2	7	n/a	n/a	n/a	14	14	1	6	7
-0.002	n/a	PROB	-1	n/a	LTP312	ltpFR2	7	n/a	n/a	n/a	14	13	1	9	3
-0.002	n/a	PROB	-1	n/a	LTP312	ltpFR2	7	n/a	n/a	n/a	14	16	7	2	7
-0.002	n/a	PROB	-1	n/a	LTP312	ltpFR2	7	n/a	n/a	n/a	14	13	2	4	7
-0.002	n/a	PROB	-1	n/a	LTP312	ltpFR2	7	n/a	n/a	n/a	14	18	8	7	3
-0.002	n/a	PROB	-1	n/a	LTP312	ltpFR2	7	n/a	n/a	n/a	14	13	2	6	5
-0.002	n/a	PROB	-1	n/a	LTP312	ltpFR2	7	n/a	n/a	n/a	14	16	6	5	5
-0.002	n/a	STOP	-1	n/a	LTP312	ltpFR2	7	n/a	n/a	n/a	14	n/a	n/a	n/a	n/a
-0.002	n/a	REC_START	-1	n/a	LTP312	ltpFR2	7	10	n/a	n/a	n/a	n/a	0	0	0
-0.002	n/a	REC_WORD	-1	wordpools/wasnorm_wordpool_576.txt	LTP312	ltpFR2	7	10	COOK	372	n/a	n/a	0	0	0
-0.002	n/a	REC_WORD	-1	wordpools/wasnorm_wordpool_576.txt	LTP312	ltpFR2	7	10	STOVE	1388	n/a	n/a	0	0	0
-0.002	n/a	REC_WORD	-1	wordpools/wasnorm_wordpool_576.txt	LTP312	ltpFR2	7	10	STICKER	1382	n/a	n/a	0	0	0
-0.002	n/a	REC_WORD	-1	wordpools/wasnorm_wordpool_576.txt	LTP312	ltpFR2	7	10	GREASE	660	n/a	n/a	0	0	0
-0.002	n/a	REC_WORD	-1	wordpools/wasnorm_wordpool_576.txt	LTP312	ltpFR2	7	10	ARMY	39	n/a	n/a	0	0	0
-0.002	n/a	REC_WORD	-1	wordpools/wasnorm_wordpool_576.txt	LTP312	ltpFR2	7	10	MARINE	869	n/a	n/a	0	0	0
-0.002	n/a	REC_WORD	-1	wordpools/wasnorm_wordpool_576.txt	LTP312	ltpFR2	7	10	SEAL	1262	n/a	n/a	0	0	0
-0.002	n/a	REC_WORD	-1	wordpools/wasnorm_wordpool_576.txt	LTP312	ltpFR2	7	10	NECKLACE	940	n/a	n/a	0	0	0
-0.002	n/a	REC_WORD	-1	wordpools/wasnorm_wordpool_576.txt	LTP312	ltpFR2	7	10	BOUQUET	157	n/a	n/a	0	0	0
-0.002	n/a	REC_WORD	-1	wordpools/wasnorm_wordpool_576.txt	LTP312	ltpFR2	7	10	CANAL	226	n/a	n/a	0	0	0
-0.002	n/a	REC_WORD	-1	wordpools/wasnorm_wordpool_576.txt	LTP312	ltpFR2	7	10	VELVET	1555	n/a	n/a	0	0	0
-0.002	n/a	REC_WORD	-1	wordpools/wasnorm_wordpool_576.txt	LTP312	ltpFR2	7	10	LACE	792	n/a	n/a	0	0	0
-0.002	n/a	REC_WORD	-1	wordpools/wasnorm_wordpool_576.txt	LTP312	ltpFR2	7	10	ACTOR	5	n/a	n/a	0	0	0
-0.002	n/a	REC_WORD	-1	wordpools/wasnorm_wordpool_576.txt	LTP312	ltpFR2	7	10	NOVEL	960	n/a	n/a	0	0	0
-0.002	n/a	REC_WORD	-1	wordpools/wasnorm_wordpool_576.txt	LTP312	ltpFR2	7	10	BOOK	149	n/a	n/a	0	0	0
-0.002	n/a	WORD	-1	wordpools/wasnorm_wordpool_576.txt	LTP312	ltpFR2	7	11	LIGHTNING	820	n/a	n/a	0	0	0
-0.002	n/a	WORD	-1	wordpools/wasnorm_wordpool_576.txt	LTP312	ltpFR2	7	11	FRIEND	606	n/a	n/a	0	0	0
-0.002	n/a	WORD	-1	wordpools/wasnorm_wordpool_576.txt	LTP312	ltpFR2	7	11	PASTA	1021	n/a	n/a	0	0	0
-0.002	n/a	WORD	-1	wordpools/wasnorm_wordpool_576.txt	LTP312	ltpFR2	7	11	AIRPLANE	12	n/a	n/a	0	0	0
-0.002	n/a	WORD	-1	wordpools/wasnorm_wordpool_576.txt	LTP312	ltpFR2	7	11	WRENCH	1625	n/a	n/a	0	0	0
-0.002	n/a	WORD	-1	wordpools/wasnorm_wordpool_576.txt	LTP312	ltpFR2	7	11	GARBAGE	622	n/a	n/a	0	0	0
-0.002	n/a	WORD	-1	wordpools/wasnorm_wordpool_576.txt	LTP312	ltpFR2	7	11	COIN	343	n/a	n/a	0	0	0
-0.002	n/a	WORD	-1	wordpools/wasnorm_wordpool_576.txt	LTP312	ltpFR2	7	11	POSSUM	1112	n/a	n/a	0	0	0
-0.002	n/a	WORD	-1	wordpools/wasnorm_wordpool_576.txt	LTP312	ltpFR2	7	11	FOX	598	n/a	n/a	0	0	0
-0.002	n/a	WORD	-1	wordpools/wasnorm_wordpool_576.txt	LTP312	ltpFR2	7	11	MATTRESS	879	n/a	n/a	0	0	0
-0.002	n/a	WORD	-1	wordpools/wasnorm_wordpool_576.txt	LTP312	ltpFR2	7	11	CHAPEL	280	n/a	n/a	0	0	0
-0.002	n/a	WORD	-1	wordpools/wasnorm_wordpool_576.txt	LTP312	ltpFR2	7	11	IDOL	733	n/a	n/a	0	0	0
-0.002	n/a	WORD	-1	wordpools/wasnorm_wordpool_576.txt	LTP312	ltpFR2	7	11	MARKET	871	n/a	n/a	0	0	0
-0.002	n/a	WORD	-1	wordpools/wasnorm_wordpool_576.txt	LTP312	ltpFR2	7	11	ROBBER	1197	n/a	n/a	0	0	0
-0.002	n/a	WORD	-1	wordpools/wasnorm_wordpool_576.txt	LTP312	ltpFR2	7	11	LOVER	846	n/a	n/a	0	0	0
-0.002	n/a	WORD	-1	wordpools/wasnorm_wordpool_576.txt	LTP312	ltpFR2	7	11	STALLION	1369	n/a	n/a	0	0	0
-0.002	n/a	WORD	-1	wordpools/wasnorm_wordpool_576.txt	LTP312	ltpFR2	7	11	OUTLAW	989	n/a	n/a	0	0	0
-0.002	n/a	WORD	-1	wordpools/wasnorm_wordpool_576.txt	LTP312	ltpFR2	7	11	BOYFRIEND	162	n/a	n/a	0	0	0
-0.002	n/a	WORD	-1	wordpools/wasnorm_wordpool_576.txt	LTP312	ltpFR2	7	11	SHELTER	1282	n/a	n/a	0	0	0
-0.002	n/a	WORD	-1	wordpools/wasnorm_wordpool_576.txt	LTP312	ltpFR2	7	11	WOMAN	1620	n/a	n/a	0	0	0
-0.002	n/a	WORD	-1	wordpools/wasnorm_wordpool_576.txt	LTP312	ltpFR2	7	11	RATTLE	1170	n/a	n/a	0	0	0
-0.002	n/a	WORD	-1	wordpools/wasnorm_wordpool_576.txt	LTP312	ltpFR2	7	11	COBRA	336	n/a	n/a	0	0	0
-0.002	n/a	WORD	-1	wordpools/wasnorm_wordpool_576.txt	LTP312	ltpFR2	7	11	FIDDLE	561	n/a	n/a	0	0	0
-0.002	n/a	WORD	-1	wordpools/wasnorm_wordpool_576.txt	LTP312	ltpFR2	7	11	BUBBLE	183	n/a	n/a	0	0	0
-0.002	n/a	START	-1	n/a	LTP312	ltpFR2	7	n/a	n/a	n/a	15	n/a	n/a	n/a	n/a
-0.002	n/a	DISTRACTOR	-1	n/a	LTP312	ltpFR2	7	11	n/a	n/a	n/a	n/a	0	0	0
-0.002	n/a	PROB	-1	n/a	LTP312	ltpFR2	7	n/a	n/a	n/a	15	13	3	6	4
-0.002	n/a	PROB	-1	n/a	LTP312	ltpFR2	7	n/a	n/a	n/a	15	17	7	4	6
-0.002	n/a	PROB	-1	n/a	LTP312	ltpFR2	7	n/a	n/a	n/a	15	10	6	2	2
-0.002	n/a	PROB	-1	n/a	LTP312	ltpFR2	7	n/a	n/a	n/a	15	16	6	8	2
-0.002	n/a	PROB	-1	n/a	LTP312	ltpFR2	7	n/a	n/a	n/a	15	13	8	1	4
-0.002	n/a	PROB	-1	n/a	LTP312	ltpFR2	7	n/a	n/a	n/a	15	12	5	3	4
-0.002	n/a	PROB	-1	n/a	LTP312	ltpFR2	7	n/a	n/a	n/a	15	15	7	5	3
-0.002	n/a	PROB	-1	n/a	LTP312	ltpFR2	7	n/a	n/a	n/a	15	21	7	6	8
-0.002	n/a	PROB	-1	n/a	LTP312	ltpFR2	7	n/a	n/a	n/a	15	15	5	9	1
-0.002	n/a	PROB	-1	n/a	LTP312	ltpFR2	7	n/a	n/a	n/a	15	16	7	4	5
-0.002	n/a	PROB	-1	n/a	LTP312	ltpFR2	7	n/a	n/a	n/a	15	14	5	8	1
-0.002	n/a	PROB	-1	n/a	LTP312	ltpFR2	7	n/a	n/a	n/a	15	18	8	5	5
-0.002	n/a	PROB	-1	n/a	LTP312	ltpFR2	7	n/a	n/a	n/a	15	20	7	4	9
-0.002	n/a	STOP	-1	n/a	LTP312	ltpFR2	7	n/a	n/a	n/a	15	n/a	n/a	n/a	n/a
-0.002	n/a	REC_START	-1	n/a	LTP312	ltpFR2	7	11	n/a	n/a	n/a	n/a	0	0	0
-0.002	n/a	REC_WORD	-1	wordpools/wasnorm_wordpool_576.txt	LTP312	ltpFR2	7	11	FIDDLE	561	n/a	n/a	0	0	0
-0.002	n/a	REC_WORD	-1	wordpools/wasnorm_wordpool_576.txt	LTP312	ltpFR2	7	11	LIGHTNING	820	n/a	n/a	0	0	0
-0.002	n/a	REC_WORD	-1	wordpools/wasnorm_wordpool_576.txt	LTP312	ltpFR2	7	11	FIEND	-1	n/a	n/a	0	0	0
-0.002	n/a	REC_WORD	-1	wordpools/wasnorm_wordpool_576.txt	LTP312	ltpFR2	7	11	COBRA	336	n/a	n/a	0	0	0
-0.002	n/a	DISTRACTOR	-1	n/a	LTP312	ltpFR2	7	12	n/a	n/a	n/a	n/a	0	0	0
-0.002	n/a	START	-1	n/a	LTP312	ltpFR2	7	n/a	n/a	n/a	16	n/a	n/a	n/a	n/a
-0.002	n/a	PROB	-1	n/a	LTP312	ltpFR2	7	n/a	n/a	n/a	16	11	4	4	3
-0.002	n/a	PROB	-1	n/a	LTP312	ltpFR2	7	n/a	n/a	n/a	16	16	3	5	8
-0.002	n/a	PROB	-1	n/a	LTP312	ltpFR2	7	n/a	n/a	n/a	16	22	5	9	8
-0.002	n/a	PROB	-1	n/a	LTP312	ltpFR2	7	n/a	n/a	n/a	16	20	9	5	6
-0.002	n/a	PROB	-1	n/a	LTP312	ltpFR2	7	n/a	n/a	n/a	16	16	7	5	4
-0.002	n/a	PROB	-1	n/a	LTP312	ltpFR2	7	n/a	n/a	n/a	16	20	6	5	9
-0.002	n/a	PROB	-1	n/a	LTP312	ltpFR2	7	n/a	n/a	n/a	16	13	4	8	1
-0.002	n/a	PROB	-1	n/a	LTP312	ltpFR2	7	n/a	n/a	n/a	16	12	3	4	5
-0.002	n/a	PROB	-1	n/a	LTP312	ltpFR2	7	n/a	n/a	n/a	16	18	4	8	6
-0.002	n/a	PROB	-1	n/a	LTP312	ltpFR2	7	n/a	n/a	n/a	16	21	7	8	6
-0.002	n/a	PROB	-1	n/a	LTP312	ltpFR2	7	n/a	n/a	n/a	16	9	6	2	1
-0.002	n/a	STOP	-1	n/a	LTP312	ltpFR2	7	n/a	n/a	n/a	16	n/a	n/a	n/a	n/a
-0.002	n/a	WORD	-1	wordpools/wasnorm_wordpool_576.txt	LTP312	ltpFR2	7	12	DONOR	485	n/a	n/a	0	0	0
-0.002	n/a	WORD	-1	wordpools/wasnorm_wordpool_576.txt	LTP312	ltpFR2	7	12	PIANO	1057	n/a	n/a	0	0	0
-0.002	n/a	WORD	-1	wordpools/wasnorm_wordpool_576.txt	LTP312	ltpFR2	7	12	PIGEON	1065	n/a	n/a	0	0	0
-0.002	n/a	WORD	-1	wordpools/wasnorm_wordpool_576.txt	LTP312	ltpFR2	7	12	GAVEL	627	n/a	n/a	0	0	0
-0.002	n/a	WORD	-1	wordpools/wasnorm_wordpool_576.txt	LTP312	ltpFR2	7	12	INMATE	738	n/a	n/a	0	0	0
-0.002	n/a	WORD	-1	wordpools/wasnorm_wordpool_576.txt	LTP312	ltpFR2	7	12	CELLAR	267	n/a	n/a	0	0	0
-0.002	n/a	WORD	-1	wordpools/wasnorm_wordpool_576.txt	LTP312	ltpFR2	7	12	LEOPARD	812	n/a	n/a	0	0	0
-0.002	n/a	WORD	-1	wordpools/wasnorm_wordpool_576.txt	LTP312	ltpFR2	7	12	BEAST	108	n/a	n/a	0	0	0
-0.002	n/a	WORD	-1	wordpools/wasnorm_wordpool_576.txt	LTP312	ltpFR2	7	12	SCISSORS	1250	n/a	n/a	0	0	0
-0.002	n/a	WORD	-1	wordpools/wasnorm_wordpool_576.txt	LTP312	ltpFR2	7	12	CURTAIN	427	n/a	n/a	0	0	0
-0.002	n/a	WORD	-1	wordpools/wasnorm_wordpool_576.txt	LTP312	ltpFR2	7	12	CRITIC	410	n/a	n/a	0	0	0
-0.002	n/a	WORD	-1	wordpools/wasnorm_wordpool_576.txt	LTP312	ltpFR2	7	12	OFFICE	972	n/a	n/a	0	0	0
-0.002	n/a	WORD	-1	wordpools/wasnorm_wordpool_576.txt	LTP312	ltpFR2	7	12	THREAD	1460	n/a	n/a	0	0	0
-0.002	n/a	WORD	-1	wordpools/wasnorm_wordpool_576.txt	LTP312	ltpFR2	7	12	PLUTO	1092	n/a	n/a	0	0	0
-0.002	n/a	WORD	-1	wordpools/wasnorm_wordpool_576.txt	LTP312	ltpFR2	7	12	MASK	876	n/a	n/a	0	0	0
-0.002	n/a	WORD	-1	wordpools/wasnorm_wordpool_576.txt	LTP312	ltpFR2	7	12	BRIEFCASE	175	n/a	n/a	0	0	0
-0.002	n/a	WORD	-1	wordpools/wasnorm_wordpool_576.txt	LTP312	ltpFR2	7	12	SWIMMER	1420	n/a	n/a	0	0	0
-0.002	n/a	WORD	-1	wordpools/wasnorm_wordpool_576.txt	LTP312	ltpFR2	7	12	ITEM	746	n/a	n/a	0	0	0
-0.002	n/a	WORD	-1	wordpools/wasnorm_wordpool_576.txt	LTP312	ltpFR2	7	12	FINGER	567	n/a	n/a	0	0	0
-0.002	n/a	WORD	-1	wordpools/wasnorm_wordpool_576.txt	LTP312	ltpFR2	7	12	GLOVE	642	n/a	n/a	0	0	0
-0.002	n/a	WORD	-1	wordpools/wasnorm_wordpool_576.txt	LTP312	ltpFR2	7	12	FILM	565	n/a	n/a	0	0	0
-0.002	n/a	WORD	-1	wordpools/wasnorm_wordpool_576.txt	LTP312	ltpFR2	7	12	ROD	1203	n/a	n/a	0	0	0
-0.002	n/a	WORD	-1	wordpools/wasnorm_wordpool_576.txt	LTP312	ltpFR2	7	12	CAPTIVE	240	n/a	n/a	0	0	0
-0.002	n/a	WORD	-1	wordpools/wasnorm_wordpool_576.txt	LTP312	ltpFR2	7	12	DORM	488	n/a	n/a	0	0	0
-0.002	n/a	START	-1	n/a	LTP312	ltpFR2	7	n/a	n/a	n/a	17	n/a	n/a	n/a	n/a
-0.002	n/a	DISTRACTOR	-1	n/a	LTP312	ltpFR2	7	12	n/a	n/a	n/a	n/a	0	0	0
-0.002	n/a	PROB	-1	n/a	LTP312	ltpFR2	7	n/a	n/a	n/a	17	16	8	7	1
-0.002	n/a	PROB	-1	n/a	LTP312	ltpFR2	7	n/a	n/a	n/a	17	13	9	2	2
-0.002	n/a	PROB	-1	n/a	LTP312	ltpFR2	7	n/a	n/a	n/a	17	23	8	6	9
-0.002	n/a	PROB	-1	n/a	LTP312	ltpFR2	7	n/a	n/a	n/a	17	21	5	8	8
-0.002	n/a	PROB	-1	n/a	LTP312	ltpFR2	7	n/a	n/a	n/a	17	17	4	9	4
-0.002	n/a	PROB	-1	n/a	LTP312	ltpFR2	7	n/a	n/a	n/a	17	8	2	4	2
-0.002	n/a	PROB	-1	n/a	LTP312	ltpFR2	7	n/a	n/a	n/a	17	19	9	4	6
-0.002	n/a	PROB	-1	n/a	LTP312	ltpFR2	7	n/a	n/a	n/a	17	11	3	5	3
-0.002	n/a	PROB	-1	n/a	LTP312	ltpFR2	7	n/a	n/a	n/a	17	18	3	6	9
-0.002	n/a	PROB	-1	n/a	LTP312	ltpFR2	7	n/a	n/a	n/a	17	14	4	5	5
-0.002	n/a	PROB	-1	n/a	LTP312	ltpFR2	7	n/a	n/a	n/a	17	13	2	7	4
-0.002	n/a	PROB	-1	n/a	LTP312	ltpFR2	7	n/a	n/a	n/a	17	17	2	7	8
-0.002	n/a	STOP	-1	n/a	LTP312	ltpFR2	7	n/a	n/a	n/a	17	n/a	n/a	n/a	n/a
-0.002	n/a	REC_START	-1	n/a	LTP312	ltpFR2	7	12	n/a	n/a	n/a	n/a	0	0	0
-0.002	n/a	REC_WORD	-1	wordpools/wasnorm_wordpool_576.txt	LTP312	ltpFR2	7	12	LEOPARD	812	n/a	n/a	0	0	0
-0.002	n/a	REC_WORD	-1	wordpools/wasnorm_wordpool_576.txt	LTP312	ltpFR2	7	12	OFFICE	972	n/a	n/a	0	0	0
-0.002	n/a	REC_WORD	-1	wordpools/wasnorm_wordpool_576.txt	LTP312	ltpFR2	7	12	CURTAIN	427	n/a	n/a	0	0	0
-0.002	n/a	REC_WORD	-1	wordpools/wasnorm_wordpool_576.txt	LTP312	ltpFR2	7	12	SCISSORS	1250	n/a	n/a	0	0	0
-0.002	n/a	REC_WORD_VV	-1	wordpools/wasnorm_wordpool_576.txt	LTP312	ltpFR2	7	12	<>	-1	n/a	n/a	0	0	0
-0.002	n/a	WORD	-1	wordpools/wasnorm_wordpool_576.txt	LTP312	ltpFR2	7	13	RADISH	1158	n/a	n/a	0	0	0
-0.002	n/a	WORD	-1	wordpools/wasnorm_wordpool_576.txt	LTP312	ltpFR2	7	13	TURTLE	1522	n/a	n/a	0	0	0
-0.002	n/a	WORD	-1	wordpools/wasnorm_wordpool_576.txt	LTP312	ltpFR2	7	13	GALLON	618	n/a	n/a	0	0	0
-0.002	n/a	WORD	-1	wordpools/wasnorm_wordpool_576.txt	LTP312	ltpFR2	7	13	ROOSTER	1209	n/a	n/a	0	0	0
-0.002	n/a	WORD	-1	wordpools/wasnorm_wordpool_576.txt	LTP312	ltpFR2	7	13	TURKEY	1520	n/a	n/a	0	0	0
-0.002	n/a	WORD	-1	wordpools/wasnorm_wordpool_576.txt	LTP312	ltpFR2	7	13	KEEPER	769	n/a	n/a	0	0	0
-0.002	n/a	WORD	-1	wordpools/wasnorm_wordpool_576.txt	LTP312	ltpFR2	7	13	ORCHID	982	n/a	n/a	0	0	0
-0.002	n/a	WORD	-1	wordpools/wasnorm_wordpool_576.txt	LTP312	ltpFR2	7	13	GLASS	639	n/a	n/a	0	0	0
-0.002	n/a	WORD	-1	wordpools/wasnorm_wordpool_576.txt	LTP312	ltpFR2	7	13	BEAKER	104	n/a	n/a	0	0	0
-0.002	n/a	WORD	-1	wordpools/wasnorm_wordpool_576.txt	LTP312	ltpFR2	7	13	COUNTRY	388	n/a	n/a	0	0	0
-0.002	n/a	WORD	-1	wordpools/wasnorm_wordpool_576.txt	LTP312	ltpFR2	7	13	SERVER	1272	n/a	n/a	0	0	0
-0.002	n/a	WORD	-1	wordpools/wasnorm_wordpool_576.txt	LTP312	ltpFR2	7	13	BRAKE	166	n/a	n/a	0	0	0
-0.002	n/a	WORD	-1	wordpools/wasnorm_wordpool_576.txt	LTP312	ltpFR2	7	13	UNCLE	1536	n/a	n/a	0	0	0
-0.002	n/a	WORD	-1	wordpools/wasnorm_wordpool_576.txt	LTP312	ltpFR2	7	13	SCALPEL	1243	n/a	n/a	0	0	0
-0.002	n/a	WORD	-1	wordpools/wasnorm_wordpool_576.txt	LTP312	ltpFR2	7	13	PACKAGE	997	n/a	n/a	0	0	0
-0.002	n/a	WORD	-1	wordpools/wasnorm_wordpool_576.txt	LTP312	ltpFR2	7	13	SNAIL	1332	n/a	n/a	0	0	0
-0.002	n/a	WORD	-1	wordpools/wasnorm_wordpool_576.txt	LTP312	ltpFR2	7	13	LONDON	843	n/a	n/a	0	0	0
-0.002	n/a	WORD	-1	wordpools/wasnorm_wordpool_576.txt	LTP312	ltpFR2	7	13	PATIENT	1024	n/a	n/a	0	0	0
-0.002	n/a	WORD	-1	wordpools/wasnorm_wordpool_576.txt	LTP312	ltpFR2	7	13	PRINCE	1124	n/a	n/a	0	0	0
-0.002	n/a	WORD	-1	wordpools/wasnorm_wordpool_576.txt	LTP312	ltpFR2	7	13	DENTIST	447	n/a	n/a	0	0	0
-0.002	n/a	WORD	-1	wordpools/wasnorm_wordpool_576.txt	LTP312	ltpFR2	7	13	COUNTY	389	n/a	n/a	0	0	0
-0.002	n/a	WORD	-1	wordpools/wasnorm_wordpool_576.txt	LTP312	ltpFR2	7	13	PROTON	1132	n/a	n/a	0	0	0
-0.002	n/a	WORD	-1	wordpools/wasnorm_wordpool_576.txt	LTP312	ltpFR2	7	13	CRIB	407	n/a	n/a	0	0	0
-0.002	n/a	WORD	-1	wordpools/wasnorm_wordpool_576.txt	LTP312	ltpFR2	7	13	BABY	64	n/a	n/a	0	0	0
-0.002	n/a	START	-1	n/a	LTP312	ltpFR2	7	n/a	n/a	n/a	18	n/a	n/a	n/a	n/a
-0.002	n/a	DISTRACTOR	-1	n/a	LTP312	ltpFR2	7	13	n/a	n/a	n/a	n/a	0	0	0
-0.002	n/a	PROB	-1	n/a	LTP312	ltpFR2	7	n/a	n/a	n/a	18	11	7	2	2
-0.002	n/a	PROB	-1	n/a	LTP312	ltpFR2	7	n/a	n/a	n/a	18	16	5	7	4
-0.002	n/a	PROB	-1	n/a	LTP312	ltpFR2	7	n/a	n/a	n/a	18	17	9	7	1
-0.002	n/a	PROB	-1	n/a	LTP312	ltpFR2	7	n/a	n/a	n/a	18	12	6	1	5
-0.002	n/a	PROB	-1	n/a	LTP312	ltpFR2	7	n/a	n/a	n/a	18	16	9	2	5
-0.002	n/a	PROB	-1	n/a	LTP312	ltpFR2	7	n/a	n/a	n/a	18	14	2	8	4
-0.002	n/a	PROB	-1	n/a	LTP312	ltpFR2	7	n/a	n/a	n/a	18	15	6	8	1
-0.002	n/a	PROB	-1	n/a	LTP312	ltpFR2	7	n/a	n/a	n/a	18	19	5	8	6
-0.002	n/a	PROB	-1	n/a	LTP312	ltpFR2	7	n/a	n/a	n/a	18	16	5	8	3
-0.002	n/a	PROB	-1	n/a	LTP312	ltpFR2	7	n/a	n/a	n/a	18	15	7	2	6
-0.002	n/a	PROB	-1	n/a	LTP312	ltpFR2	7	n/a	n/a	n/a	18	14	6	1	7
-0.002	n/a	PROB	-1	n/a	LTP312	ltpFR2	7	n/a	n/a	n/a	18	20	9	4	7
-0.002	n/a	STOP	-1	n/a	LTP312	ltpFR2	7	n/a	n/a	n/a	18	n/a	n/a	n/a	n/a
-0.002	n/a	REC_START	-1	n/a	LTP312	ltpFR2	7	13	n/a	n/a	n/a	n/a	0	0	0
-0.002	n/a	REC_WORD	-1	wordpools/wasnorm_wordpool_576.txt	LTP312	ltpFR2	7	13	ROOSTER	1209	n/a	n/a	0	0	0
-0.002	n/a	REC_WORD	-1	wordpools/wasnorm_wordpool_576.txt	LTP312	ltpFR2	7	13	TURKEY	1520	n/a	n/a	0	0	0
-0.002	n/a	REC_WORD	-1	wordpools/wasnorm_wordpool_576.txt	LTP312	ltpFR2	7	13	KEEPER	769	n/a	n/a	0	0	0
-0.002	n/a	REC_WORD	-1	wordpools/wasnorm_wordpool_576.txt	LTP312	ltpFR2	7	13	PATIENT	1024	n/a	n/a	0	0	0
-0.002	n/a	REC_WORD	-1	wordpools/wasnorm_wordpool_576.txt	LTP312	ltpFR2	7	13	DENTIST	447	n/a	n/a	0	0	0
-0.002	n/a	REC_WORD	-1	wordpools/wasnorm_wordpool_576.txt	LTP312	ltpFR2	7	13	LONDON	843	n/a	n/a	0	0	0
-0.002	n/a	REC_WORD	-1	wordpools/wasnorm_wordpool_576.txt	LTP312	ltpFR2	7	13	UNCLE	1536	n/a	n/a	0	0	0
-0.002	n/a	REC_WORD	-1	wordpools/wasnorm_wordpool_576.txt	LTP312	ltpFR2	7	13	SCALPEL	1243	n/a	n/a	0	0	0
-0.002	n/a	REC_WORD_VV	-1	wordpools/wasnorm_wordpool_576.txt	LTP312	ltpFR2	7	13	<>	-1	n/a	n/a	0	0	0
-0.002	n/a	REC_WORD	-1	wordpools/wasnorm_wordpool_576.txt	LTP312	ltpFR2	7	13	SNAIL	1332	n/a	n/a	0	0	0
-0.002	n/a	REC_WORD_VV	-1	wordpools/wasnorm_wordpool_576.txt	LTP312	ltpFR2	7	13	<>	-1	n/a	n/a	0	0	0
-0.002	n/a	REC_WORD	-1	wordpools/wasnorm_wordpool_576.txt	LTP312	ltpFR2	7	13	DOCTOR	478	n/a	n/a	0	0	0
-0.002	n/a	REC_WORD	-1	wordpools/wasnorm_wordpool_576.txt	LTP312	ltpFR2	7	13	RADISH	1158	n/a	n/a	0	0	0
-0.002	n/a	REC_WORD_VV	-1	wordpools/wasnorm_wordpool_576.txt	LTP312	ltpFR2	7	13	<>	-1	n/a	n/a	0	0	0
-0.002	n/a	REC_WORD	-1	wordpools/wasnorm_wordpool_576.txt	LTP312	ltpFR2	7	13	BABY	64	n/a	n/a	0	0	0
-0.002	n/a	REC_WORD	-1	wordpools/wasnorm_wordpool_576.txt	LTP312	ltpFR2	7	13	CRIB	407	n/a	n/a	0	0	0
-0.002	n/a	REC_WORD	-1	wordpools/wasnorm_wordpool_576.txt	LTP312	ltpFR2	7	13	GALLON	618	n/a	n/a	0	0	0
-0.002	n/a	REC_WORD	-1	wordpools/wasnorm_wordpool_576.txt	LTP312	ltpFR2	7	13	PROTON	1132	n/a	n/a	0	0	0
-0.002	n/a	REC_WORD_VV	-1	wordpools/wasnorm_wordpool_576.txt	LTP312	ltpFR2	7	13	<>	-1	n/a	n/a	0	0	0
-0.002	n/a	DISTRACTOR	-1	n/a	LTP312	ltpFR2	7	14	n/a	n/a	n/a	n/a	0	0	0
-0.002	n/a	START	-1	n/a	LTP312	ltpFR2	7	n/a	n/a	n/a	19	n/a	n/a	n/a	n/a
-0.002	n/a	PROB	-1	n/a	LTP312	ltpFR2	7	n/a	n/a	n/a	19	18	1	8	9
-0.002	n/a	PROB	-1	n/a	LTP312	ltpFR2	7	n/a	n/a	n/a	19	14	7	4	3
-0.002	n/a	PROB	-1	n/a	LTP312	ltpFR2	7	n/a	n/a	n/a	19	15	2	6	7
-0.002	n/a	PROB	-1	n/a	LTP312	ltpFR2	7	n/a	n/a	n/a	19	9	1	1	7
-0.002	n/a	PROB	-1	n/a	LTP312	ltpFR2	7	n/a	n/a	n/a	19	18	8	9	1
-0.002	n/a	PROB	-1	n/a	LTP312	ltpFR2	7	n/a	n/a	n/a	19	13	7	1	5
-0.002	n/a	PROB	-1	n/a	LTP312	ltpFR2	7	n/a	n/a	n/a	19	12	3	3	6
-0.002	n/a	PROB	-1	n/a	LTP312	ltpFR2	7	n/a	n/a	n/a	19	19	9	2	8
-0.002	n/a	PROB	-1	n/a	LTP312	ltpFR2	7	n/a	n/a	n/a	19	15	7	6	2
-0.002	n/a	PROB	-1	n/a	LTP312	ltpFR2	7	n/a	n/a	n/a	19	15	3	5	7
-0.002	n/a	PROB	-1	n/a	LTP312	ltpFR2	7	n/a	n/a	n/a	19	17	4	9	4
-0.002	n/a	PROB	-1	n/a	LTP312	ltpFR2	7	n/a	n/a	n/a	19	10	6	3	1
-0.002	n/a	PROB	-1	n/a	LTP312	ltpFR2	7	n/a	n/a	n/a	19	15	7	1	7
-0.002	n/a	PROB	-1	n/a	LTP312	ltpFR2	7	n/a	n/a	n/a	19	19	9	2	8
-0.002	n/a	PROB	-1	n/a	LTP312	ltpFR2	7	n/a	n/a	n/a	19	8	1	2	5
-0.002	n/a	PROB	-1	n/a	LTP312	ltpFR2	7	n/a	n/a	n/a	19	8	2	5	1
-0.002	n/a	PROB	-1	n/a	LTP312	ltpFR2	7	n/a	n/a	n/a	19	17	5	4	8
-0.002	n/a	STOP	-1	n/a	LTP312	ltpFR2	7	n/a	n/a	n/a	19	n/a	n/a	n/a	n/a
-0.002	n/a	WORD	-1	wordpools/wasnorm_wordpool_576.txt	LTP312	ltpFR2	7	14	POLICE	1098	n/a	n/a	0	0	0
-0.002	n/a	WORD	-1	wordpools/wasnorm_wordpool_576.txt	LTP312	ltpFR2	7	14	CLOTHES	327	n/a	n/a	0	0	0
-0.002	n/a	WORD	-1	wordpools/wasnorm_wordpool_576.txt	LTP312	ltpFR2	7	14	FOREST	593	n/a	n/a	0	0	0
-0.002	n/a	WORD	-1	wordpools/wasnorm_wordpool_576.txt	LTP312	ltpFR2	7	14	RAZOR	1171	n/a	n/a	0	0	0
-0.002	n/a	WORD	-1	wordpools/wasnorm_wordpool_576.txt	LTP312	ltpFR2	7	14	THRONE	1461	n/a	n/a	0	0	0
-0.002	n/a	WORD	-1	wordpools/wasnorm_wordpool_576.txt	LTP312	ltpFR2	7	14	DOUGHNUT	490	n/a	n/a	0	0	0
-0.002	n/a	WORD	-1	wordpools/wasnorm_wordpool_576.txt	LTP312	ltpFR2	7	14	MUFFIN	929	n/a	n/a	0	0	0
-0.002	n/a	WORD	-1	wordpools/wasnorm_wordpool_576.txt	LTP312	ltpFR2	7	14	SUSPECT	1415	n/a	n/a	0	0	0
-0.002	n/a	WORD	-1	wordpools/wasnorm_wordpool_576.txt	LTP312	ltpFR2	7	14	THIEF	1456	n/a	n/a	0	0	0
-0.002	n/a	WORD	-1	wordpools/wasnorm_wordpool_576.txt	LTP312	ltpFR2	7	14	PEPPER	1047	n/a	n/a	0	0	0
-0.002	n/a	WORD	-1	wordpools/wasnorm_wordpool_576.txt	LTP312	ltpFR2	7	14	SLIME	1327	n/a	n/a	0	0	0
-0.002	n/a	WORD	-1	wordpools/wasnorm_wordpool_576.txt	LTP312	ltpFR2	7	14	JURY	766	n/a	n/a	0	0	0
-0.002	n/a	WORD	-1	wordpools/wasnorm_wordpool_576.txt	LTP312	ltpFR2	7	14	EAGLE	512	n/a	n/a	0	0	0
-0.002	n/a	WORD	-1	wordpools/wasnorm_wordpool_576.txt	LTP312	ltpFR2	7	14	CASHIER	254	n/a	n/a	0	0	0
-0.002	n/a	WORD	-1	wordpools/wasnorm_wordpool_576.txt	LTP312	ltpFR2	7	14	BRANCH	168	n/a	n/a	0	0	0
-0.002	n/a	WORD	-1	wordpools/wasnorm_wordpool_576.txt	LTP312	ltpFR2	7	14	JUNGLE	764	n/a	n/a	0	0	0
-0.002	n/a	WORD	-1	wordpools/wasnorm_wordpool_576.txt	LTP312	ltpFR2	7	14	SALT	1229	n/a	n/a	0	0	0
-0.002	n/a	WORD	-1	wordpools/wasnorm_wordpool_576.txt	LTP312	ltpFR2	7	14	BUREAU	199	n/a	n/a	0	0	0
-0.002	n/a	WORD	-1	wordpools/wasnorm_wordpool_576.txt	LTP312	ltpFR2	7	14	HOSTESS	723	n/a	n/a	0	0	0
-0.002	n/a	WORD	-1	wordpools/wasnorm_wordpool_576.txt	LTP312	ltpFR2	7	14	BANJO	82	n/a	n/a	0	0	0
-0.002	n/a	WORD	-1	wordpools/wasnorm_wordpool_576.txt	LTP312	ltpFR2	7	14	CIGAR	308	n/a	n/a	0	0	0
-0.002	n/a	WORD	-1	wordpools/wasnorm_wordpool_576.txt	LTP312	ltpFR2	7	14	JOURNAL	760	n/a	n/a	0	0	0
-0.002	n/a	WORD	-1	wordpools/wasnorm_wordpool_576.txt	LTP312	ltpFR2	7	14	NIGHTGOWN	953	n/a	n/a	0	0	0
-0.002	n/a	WORD	-1	wordpools/wasnorm_wordpool_576.txt	LTP312	ltpFR2	7	14	LOFT	840	n/a	n/a	0	0	0
-0.002	n/a	START	-1	n/a	LTP312	ltpFR2	7	n/a	n/a	n/a	20	n/a	n/a	n/a	n/a
-0.002	n/a	DISTRACTOR	-1	n/a	LTP312	ltpFR2	7	14	n/a	n/a	n/a	n/a	0	0	0
-0.002	n/a	PROB	-1	n/a	LTP312	ltpFR2	7	n/a	n/a	n/a	20	10	1	1	8
-0.002	n/a	PROB	-1	n/a	LTP312	ltpFR2	7	n/a	n/a	n/a	20	12	2	4	6
-0.002	n/a	PROB	-1	n/a	LTP312	ltpFR2	7	n/a	n/a	n/a	20	14	2	3	9
-0.002	n/a	PROB	-1	n/a	LTP312	ltpFR2	7	n/a	n/a	n/a	20	23	9	9	5
-0.002	n/a	PROB	-1	n/a	LTP312	ltpFR2	7	n/a	n/a	n/a	20	21	6	7	8
-0.002	n/a	PROB	-1	n/a	LTP312	ltpFR2	7	n/a	n/a	n/a	20	19	6	4	9
-0.002	n/a	PROB	-1	n/a	LTP312	ltpFR2	7	n/a	n/a	n/a	20	15	9	2	3
-0.002	n/a	PROB	-1	n/a	LTP312	ltpFR2	7	n/a	n/a	n/a	20	16	9	5	2
-0.002	n/a	PROB	-1	n/a	LTP312	ltpFR2	7	n/a	n/a	n/a	20	13	7	3	3
-0.002	n/a	PROB	-1	n/a	LTP312	ltpFR2	7	n/a	n/a	n/a	20	16	4	9	3
-0.002	n/a	PROB	-1	n/a	LTP312	ltpFR2	7	n/a	n/a	n/a	20	16	5	9	2
-0.002	n/a	PROB	-1	n/a	LTP312	ltpFR2	7	n/a	n/a	n/a	20	16	5	8	3
-0.002	n/a	STOP	-1	n/a	LTP312	ltpFR2	7	n/a	n/a	n/a	20	n/a	n/a	n/a	n/a
-0.002	n/a	REC_START	-1	n/a	LTP312	ltpFR2	7	14	n/a	n/a	n/a	n/a	0	0	0
-0.002	n/a	REC_WORD	-1	wordpools/wasnorm_wordpool_576.txt	LTP312	ltpFR2	7	14	POLICE	1098	n/a	n/a	0	0	0
-0.002	n/a	REC_WORD	-1	wordpools/wasnorm_wordpool_576.txt	LTP312	ltpFR2	7	14	DOUGHNUT	490	n/a	n/a	0	0	0
-0.002	n/a	REC_WORD	-1	wordpools/wasnorm_wordpool_576.txt	LTP312	ltpFR2	7	14	EAGLE	512	n/a	n/a	0	0	0
-0.002	n/a	REC_WORD	-1	wordpools/wasnorm_wordpool_576.txt	LTP312	ltpFR2	7	14	JURY	766	n/a	n/a	0	0	0
-0.002	n/a	REC_WORD	-1	wordpools/wasnorm_wordpool_576.txt	LTP312	ltpFR2	7	14	CASHEW	253	n/a	n/a	0	0	0
-0.002	n/a	REC_WORD	-1	wordpools/wasnorm_wordpool_576.txt	LTP312	ltpFR2	7	14	KEEPER	769	n/a	n/a	0	0	0
-0.002	n/a	REC_WORD	-1	wordpools/wasnorm_wordpool_576.txt	LTP312	ltpFR2	7	14	BUREAU	199	n/a	n/a	0	0	0
-0.002	n/a	REC_WORD	-1	wordpools/wasnorm_wordpool_576.txt	LTP312	ltpFR2	7	14	CLOSET	326	n/a	n/a	0	0	0
-0.002	n/a	DISTRACTOR	-1	n/a	LTP312	ltpFR2	7	15	n/a	n/a	n/a	n/a	0	0	0
-0.002	n/a	START	-1	n/a	LTP312	ltpFR2	7	n/a	n/a	n/a	21	n/a	n/a	n/a	n/a
-0.002	n/a	PROB	-1	n/a	LTP312	ltpFR2	7	n/a	n/a	n/a	21	8	5	2	1
-0.002	n/a	PROB	-1	n/a	LTP312	ltpFR2	7	n/a	n/a	n/a	21	15	6	2	7
-0.002	n/a	PROB	-1	n/a	LTP312	ltpFR2	7	n/a	n/a	n/a	21	13	5	3	5
-0.002	n/a	PROB	-1	n/a	LTP312	ltpFR2	7	n/a	n/a	n/a	21	5	3	1	1
-0.002	n/a	PROB	-1	n/a	LTP312	ltpFR2	7	n/a	n/a	n/a	21	18	1	9	8
-0.002	n/a	PROB	-1	n/a	LTP312	ltpFR2	7	n/a	n/a	n/a	21	20	5	8	7
-0.002	n/a	PROB	-1	n/a	LTP312	ltpFR2	7	n/a	n/a	n/a	21	22	6	9	7
-0.002	n/a	PROB	-1	n/a	LTP312	ltpFR2	7	n/a	n/a	n/a	21	11	1	1	9
-0.002	n/a	PROB	-1	n/a	LTP312	ltpFR2	7	n/a	n/a	n/a	21	17	6	9	2
-0.002	n/a	PROB	-1	n/a	LTP312	ltpFR2	7	n/a	n/a	n/a	21	8	4	3	1
-0.002	n/a	PROB	-1	n/a	LTP312	ltpFR2	7	n/a	n/a	n/a	21	22	9	5	8
-0.002	n/a	PROB	-1	n/a	LTP312	ltpFR2	7	n/a	n/a	n/a	21	6	3	2	1
-0.002	n/a	PROB	-1	n/a	LTP312	ltpFR2	7	n/a	n/a	n/a	21	8	1	4	3
-0.002	n/a	PROB	-1	n/a	LTP312	ltpFR2	7	n/a	n/a	n/a	21	11	7	1	3
-0.002	n/a	PROB	-1	n/a	LTP312	ltpFR2	7	n/a	n/a	n/a	21	12	4	4	4
-0.002	n/a	STOP	-1	n/a	LTP312	ltpFR2	7	n/a	n/a	n/a	21	n/a	n/a	n/a	n/a
-0.002	n/a	WORD	-1	wordpools/wasnorm_wordpool_576.txt	LTP312	ltpFR2	7	15	DOLPHIN	483	n/a	n/a	0	0	0
-0.002	n/a	WORD	-1	wordpools/wasnorm_wordpool_576.txt	LTP312	ltpFR2	7	15	SPOOL	1356	n/a	n/a	0	0	0
-0.002	n/a	WORD	-1	wordpools/wasnorm_wordpool_576.txt	LTP312	ltpFR2	7	15	PAPER	1011	n/a	n/a	0	0	0
-0.002	n/a	WORD	-1	wordpools/wasnorm_wordpool_576.txt	LTP312	ltpFR2	7	15	AIRPORT	13	n/a	n/a	0	0	0
-0.002	n/a	WORD	-1	wordpools/wasnorm_wordpool_576.txt	LTP312	ltpFR2	7	15	SUITCASE	1403	n/a	n/a	0	0	0
-0.002	n/a	WORD	-1	wordpools/wasnorm_wordpool_576.txt	LTP312	ltpFR2	7	15	SKIRT	1319	n/a	n/a	0	0	0
-0.002	n/a	WORD	-1	wordpools/wasnorm_wordpool_576.txt	LTP312	ltpFR2	7	15	STAPLE	1371	n/a	n/a	0	0	0
-0.002	n/a	WORD	-1	wordpools/wasnorm_wordpool_576.txt	LTP312	ltpFR2	7	15	MAPLE	866	n/a	n/a	0	0	0
-0.002	n/a	WORD	-1	wordpools/wasnorm_wordpool_576.txt	LTP312	ltpFR2	7	15	TROMBONE	1508	n/a	n/a	0	0	0
-0.002	n/a	WORD	-1	wordpools/wasnorm_wordpool_576.txt	LTP312	ltpFR2	7	15	CONCERT	360	n/a	n/a	0	0	0
-0.002	n/a	WORD	-1	wordpools/wasnorm_wordpool_576.txt	LTP312	ltpFR2	7	15	TROUT	1511	n/a	n/a	0	0	0
-0.002	n/a	WORD	-1	wordpools/wasnorm_wordpool_576.txt	LTP312	ltpFR2	7	15	FLESH	579	n/a	n/a	0	0	0
-0.002	n/a	WORD	-1	wordpools/wasnorm_wordpool_576.txt	LTP312	ltpFR2	7	15	CRATER	400	n/a	n/a	0	0	0
-0.002	n/a	WORD	-1	wordpools/wasnorm_wordpool_576.txt	LTP312	ltpFR2	7	15	MARSH	874	n/a	n/a	0	0	0
-0.002	n/a	WORD	-1	wordpools/wasnorm_wordpool_576.txt	LTP312	ltpFR2	7	15	STREAM	1392	n/a	n/a	0	0	0
-0.002	n/a	WORD	-1	wordpools/wasnorm_wordpool_576.txt	LTP312	ltpFR2	7	15	ATLAS	53	n/a	n/a	0	0	0
-0.002	n/a	WORD	-1	wordpools/wasnorm_wordpool_576.txt	LTP312	ltpFR2	7	15	ATOM	55	n/a	n/a	0	0	0
-0.002	n/a	WORD	-1	wordpools/wasnorm_wordpool_576.txt	LTP312	ltpFR2	7	15	COOKBOOK	373	n/a	n/a	0	0	0
-0.002	n/a	WORD	-1	wordpools/wasnorm_wordpool_576.txt	LTP312	ltpFR2	7	15	MACHINE	852	n/a	n/a	0	0	0
-0.002	n/a	WORD	-1	wordpools/wasnorm_wordpool_576.txt	LTP312	ltpFR2	7	15	PEDAL	1037	n/a	n/a	0	0	0
-0.002	n/a	WORD	-1	wordpools/wasnorm_wordpool_576.txt	LTP312	ltpFR2	7	15	HAMPER	682	n/a	n/a	0	0	0
-0.002	n/a	WORD	-1	wordpools/wasnorm_wordpool_576.txt	LTP312	ltpFR2	7	15	CASKET	255	n/a	n/a	0	0	0
-0.002	n/a	WORD	-1	wordpools/wasnorm_wordpool_576.txt	LTP312	ltpFR2	7	15	PASTRY	1022	n/a	n/a	0	0	0
-0.002	n/a	WORD	-1	wordpools/wasnorm_wordpool_576.txt	LTP312	ltpFR2	7	15	RECEIPT	1173	n/a	n/a	0	0	0
-0.002	n/a	START	-1	n/a	LTP312	ltpFR2	7	n/a	n/a	n/a	22	n/a	n/a	n/a	n/a
-0.002	n/a	DISTRACTOR	-1	n/a	LTP312	ltpFR2	7	15	n/a	n/a	n/a	n/a	0	0	0
-0.002	n/a	PROB	-1	n/a	LTP312	ltpFR2	7	n/a	n/a	n/a	22	17	2	8	7
-0.002	n/a	PROB	-1	n/a	LTP312	ltpFR2	7	n/a	n/a	n/a	22	16	9	6	1
-0.002	n/a	PROB	-1	n/a	LTP312	ltpFR2	7	n/a	n/a	n/a	22	6	4	1	1
-0.002	n/a	PROB	-1	n/a	LTP312	ltpFR2	7	n/a	n/a	n/a	22	17	2	9	6
-0.002	n/a	PROB	-1	n/a	LTP312	ltpFR2	7	n/a	n/a	n/a	22	22	6	7	9
-0.002	n/a	PROB	-1	n/a	LTP312	ltpFR2	7	n/a	n/a	n/a	22	10	2	2	6
-0.002	n/a	PROB	-1	n/a	LTP312	ltpFR2	7	n/a	n/a	n/a	22	23	9	9	5
-0.002	n/a	PROB	-1	n/a	LTP312	ltpFR2	7	n/a	n/a	n/a	22	18	3	6	9
-0.002	n/a	PROB	-1	n/a	LTP312	ltpFR2	7	n/a	n/a	n/a	22	16	5	9	2
-0.002	n/a	PROB	-1	n/a	LTP312	ltpFR2	7	n/a	n/a	n/a	22	17	7	6	4
-0.002	n/a	PROB	-1	n/a	LTP312	ltpFR2	7	n/a	n/a	n/a	22	13	5	3	5
-0.002	n/a	PROB	-1	n/a	LTP312	ltpFR2	7	n/a	n/a	n/a	22	19	8	9	2
-0.002	n/a	PROB	-1	n/a	LTP312	ltpFR2	7	n/a	n/a	n/a	22	13	9	3	1
-0.002	n/a	PROB	-1	n/a	LTP312	ltpFR2	7	n/a	n/a	n/a	22	12	5	5	2
-0.002	n/a	PROB	-1	n/a	LTP312	ltpFR2	7	n/a	n/a	n/a	22	15	2	5	8
-0.002	n/a	STOP	-1	n/a	LTP312	ltpFR2	7	n/a	n/a	n/a	22	n/a	n/a	n/a	n/a
-0.002	n/a	REC_START	-1	n/a	LTP312	ltpFR2	7	15	n/a	n/a	n/a	n/a	0	0	0
-0.002	n/a	REC_WORD	-1	wordpools/wasnorm_wordpool_576.txt	LTP312	ltpFR2	7	15	DOLPHIN	483	n/a	n/a	0	0	0
-0.002	n/a	REC_WORD	-1	wordpools/wasnorm_wordpool_576.txt	LTP312	ltpFR2	7	15	SPOOL	1356	n/a	n/a	0	0	0
-0.002	n/a	REC_WORD	-1	wordpools/wasnorm_wordpool_576.txt	LTP312	ltpFR2	7	15	PAPER	1011	n/a	n/a	0	0	0
-0.002	n/a	REC_WORD	-1	wordpools/wasnorm_wordpool_576.txt	LTP312	ltpFR2	7	15	AIRPORT	13	n/a	n/a	0	0	0
-0.002	n/a	REC_WORD	-1	wordpools/wasnorm_wordpool_576.txt	LTP312	ltpFR2	7	15	SUITCASE	1403	n/a	n/a	0	0	0
-0.002	n/a	REC_WORD	-1	wordpools/wasnorm_wordpool_576.txt	LTP312	ltpFR2	7	15	SKIRT	1319	n/a	n/a	0	0	0
-0.002	n/a	REC_WORD	-1	wordpools/wasnorm_wordpool_576.txt	LTP312	ltpFR2	7	15	STAPLE	1371	n/a	n/a	0	0	0
-0.002	n/a	REC_WORD	-1	wordpools/wasnorm_wordpool_576.txt	LTP312	ltpFR2	7	15	TROUT	1511	n/a	n/a	0	0	0
-0.002	n/a	REC_WORD	-1	wordpools/wasnorm_wordpool_576.txt	LTP312	ltpFR2	7	15	FLESH	579	n/a	n/a	0	0	0
-0.002	n/a	REC_WORD	-1	wordpools/wasnorm_wordpool_576.txt	LTP312	ltpFR2	7	15	ATOM	55	n/a	n/a	0	0	0
-0.002	n/a	REC_WORD	-1	wordpools/wasnorm_wordpool_576.txt	LTP312	ltpFR2	7	15	COOKBOOK	373	n/a	n/a	0	0	0
-0.002	n/a	REC_WORD	-1	wordpools/wasnorm_wordpool_576.txt	LTP312	ltpFR2	7	15	PASTRY	1022	n/a	n/a	0	0	0
-0.002	n/a	REC_WORD_VV	-1	wordpools/wasnorm_wordpool_576.txt	LTP312	ltpFR2	7	15	<>	-1	n/a	n/a	0	0	0
-0.002	n/a	WORD	-1	wordpools/wasnorm_wordpool_576.txt	LTP312	ltpFR2	7	16	BUNNY	198	n/a	n/a	0	0	0
-0.002	n/a	WORD	-1	wordpools/wasnorm_wordpool_576.txt	LTP312	ltpFR2	7	16	CRUTCH	417	n/a	n/a	0	0	0
-0.002	n/a	WORD	-1	wordpools/wasnorm_wordpool_576.txt	LTP312	ltpFR2	7	16	HEART	697	n/a	n/a	0	0	0
-0.002	n/a	WORD	-1	wordpools/wasnorm_wordpool_576.txt	LTP312	ltpFR2	7	16	GOBLIN	645	n/a	n/a	0	0	0
-0.002	n/a	WORD	-1	wordpools/wasnorm_wordpool_576.txt	LTP312	ltpFR2	7	16	MONSTER	912	n/a	n/a	0	0	0
-0.002	n/a	WORD	-1	wordpools/wasnorm_wordpool_576.txt	LTP312	ltpFR2	7	16	BRANDY	169	n/a	n/a	0	0	0
-0.002	n/a	WORD	-1	wordpools/wasnorm_wordpool_576.txt	LTP312	ltpFR2	7	16	CEILING	265	n/a	n/a	0	0	0
-0.002	n/a	WORD	-1	wordpools/wasnorm_wordpool_576.txt	LTP312	ltpFR2	7	16	NOMAD	955	n/a	n/a	0	0	0
-0.002	n/a	WORD	-1	wordpools/wasnorm_wordpool_576.txt	LTP312	ltpFR2	7	16	KITCHEN	778	n/a	n/a	0	0	0
-0.002	n/a	WORD	-1	wordpools/wasnorm_wordpool_576.txt	LTP312	ltpFR2	7	16	BLUEPRINT	142	n/a	n/a	0	0	0
-0.002	n/a	WORD	-1	wordpools/wasnorm_wordpool_576.txt	LTP312	ltpFR2	7	16	LION	827	n/a	n/a	0	0	0
-0.002	n/a	WORD	-1	wordpools/wasnorm_wordpool_576.txt	LTP312	ltpFR2	7	16	ORANGE	980	n/a	n/a	0	0	0
-0.002	n/a	WORD	-1	wordpools/wasnorm_wordpool_576.txt	LTP312	ltpFR2	7	16	KNAPSACK	783	n/a	n/a	0	0	0
-0.002	n/a	WORD	-1	wordpools/wasnorm_wordpool_576.txt	LTP312	ltpFR2	7	16	POCKET	1093	n/a	n/a	0	0	0
-0.002	n/a	WORD	-1	wordpools/wasnorm_wordpool_576.txt	LTP312	ltpFR2	7	16	SPOUSE	1358	n/a	n/a	0	0	0
-0.002	n/a	WORD	-1	wordpools/wasnorm_wordpool_576.txt	LTP312	ltpFR2	7	16	FLASK	576	n/a	n/a	0	0	0
-0.002	n/a	WORD	-1	wordpools/wasnorm_wordpool_576.txt	LTP312	ltpFR2	7	16	BIKE	125	n/a	n/a	0	0	0
-0.002	n/a	WORD	-1	wordpools/wasnorm_wordpool_576.txt	LTP312	ltpFR2	7	16	WORLD	1622	n/a	n/a	0	0	0
-0.002	n/a	WORD	-1	wordpools/wasnorm_wordpool_576.txt	LTP312	ltpFR2	7	16	GLOBE	641	n/a	n/a	0	0	0
-0.002	n/a	WORD	-1	wordpools/wasnorm_wordpool_576.txt	LTP312	ltpFR2	7	16	LAPEL	800	n/a	n/a	0	0	0
-0.002	n/a	WORD	-1	wordpools/wasnorm_wordpool_576.txt	LTP312	ltpFR2	7	16	TART	1436	n/a	n/a	0	0	0
-0.002	n/a	WORD	-1	wordpools/wasnorm_wordpool_576.txt	LTP312	ltpFR2	7	16	CRAYON	401	n/a	n/a	0	0	0
-0.002	n/a	WORD	-1	wordpools/wasnorm_wordpool_576.txt	LTP312	ltpFR2	7	16	WIFE	1609	n/a	n/a	0	0	0
-0.002	n/a	WORD	-1	wordpools/wasnorm_wordpool_576.txt	LTP312	ltpFR2	7	16	LUGGAGE	847	n/a	n/a	0	0	0
-0.002	n/a	START	-1	n/a	LTP312	ltpFR2	7	n/a	n/a	n/a	23	n/a	n/a	n/a	n/a
-0.002	n/a	DISTRACTOR	-1	n/a	LTP312	ltpFR2	7	16	n/a	n/a	n/a	n/a	0	0	0
-0.002	n/a	PROB	-1	n/a	LTP312	ltpFR2	7	n/a	n/a	n/a	23	20	9	2	9
-0.002	n/a	PROB	-1	n/a	LTP312	ltpFR2	7	n/a	n/a	n/a	23	7	2	3	2
-0.002	n/a	PROB	-1	n/a	LTP312	ltpFR2	7	n/a	n/a	n/a	23	23	6	8	9
-0.002	n/a	PROB	-1	n/a	LTP312	ltpFR2	7	n/a	n/a	n/a	23	21	6	9	6
-0.002	n/a	PROB	-1	n/a	LTP312	ltpFR2	7	n/a	n/a	n/a	23	13	5	2	6
-0.002	n/a	PROB	-1	n/a	LTP312	ltpFR2	7	n/a	n/a	n/a	23	18	8	4	6
-0.002	n/a	PROB	-1	n/a	LTP312	ltpFR2	7	n/a	n/a	n/a	23	14	3	5	6
-0.002	n/a	PROB	-1	n/a	LTP312	ltpFR2	7	n/a	n/a	n/a	23	6	4	1	1
-0.002	n/a	PROB	-1	n/a	LTP312	ltpFR2	7	n/a	n/a	n/a	23	13	8	1	4
-0.002	n/a	PROB	-1	n/a	LTP312	ltpFR2	7	n/a	n/a	n/a	23	7	3	1	3
-0.002	n/a	PROB	-1	n/a	LTP312	ltpFR2	7	n/a	n/a	n/a	23	18	7	8	3
-0.002	n/a	PROB	-1	n/a	LTP312	ltpFR2	7	n/a	n/a	n/a	23	8	2	4	4
-0.002	n/a	PROB	-1	n/a	LTP312	ltpFR2	7	n/a	n/a	n/a	23	13	1	8	4
-0.002	n/a	STOP	-1	n/a	LTP312	ltpFR2	7	n/a	n/a	n/a	23	n/a	n/a	n/a	n/a
-0.002	n/a	REC_START	-1	n/a	LTP312	ltpFR2	7	16	n/a	n/a	n/a	n/a	0	0	0
-0.002	n/a	REC_WORD	-1	wordpools/wasnorm_wordpool_576.txt	LTP312	ltpFR2	7	16	BUNNY	198	n/a	n/a	0	0	0
-0.002	n/a	REC_WORD	-1	wordpools/wasnorm_wordpool_576.txt	LTP312	ltpFR2	7	16	CRUTCH	417	n/a	n/a	0	0	0
-0.002	n/a	REC_WORD	-1	wordpools/wasnorm_wordpool_576.txt	LTP312	ltpFR2	7	16	HEART	697	n/a	n/a	0	0	0
-0.002	n/a	REC_WORD	-1	wordpools/wasnorm_wordpool_576.txt	LTP312	ltpFR2	7	16	LUGGAGE	847	n/a	n/a	0	0	0
-0.002	n/a	REC_WORD_VV	-1	wordpools/wasnorm_wordpool_576.txt	LTP312	ltpFR2	7	16	<>	-1	n/a	n/a	0	0	0
-0.002	n/a	REC_WORD	-1	wordpools/wasnorm_wordpool_576.txt	LTP312	ltpFR2	7	16	GOBLIN	645	n/a	n/a	0	0	0
-0.002	n/a	REC_WORD	-1	wordpools/wasnorm_wordpool_576.txt	LTP312	ltpFR2	7	16	MONSTER	912	n/a	n/a	0	0	0
-0.002	n/a	REC_WORD	-1	wordpools/wasnorm_wordpool_576.txt	LTP312	ltpFR2	7	16	BRANDY	169	n/a	n/a	0	0	0
-0.002	n/a	REC_WORD	-1	wordpools/wasnorm_wordpool_576.txt	LTP312	ltpFR2	7	16	NOMAD	955	n/a	n/a	0	0	0
-0.002	n/a	REC_WORD	-1	wordpools/wasnorm_wordpool_576.txt	LTP312	ltpFR2	7	16	KITCHEN	778	n/a	n/a	0	0	0
-0.002	n/a	REC_WORD	-1	wordpools/wasnorm_wordpool_576.txt	LTP312	ltpFR2	7	16	BLUEPRINT	142	n/a	n/a	0	0	0
-0.002	n/a	REC_WORD	-1	wordpools/wasnorm_wordpool_576.txt	LTP312	ltpFR2	7	16	CEILING	265	n/a	n/a	0	0	0
-0.002	n/a	REST_REWET	-1	n/a	LTP312	ltpFR2	7	16	n/a	n/a	n/a	n/a	0	0	0
-0.002	n/a	DISTRACTOR	-1	n/a	LTP312	ltpFR2	7	17	n/a	n/a	n/a	n/a	0	0	0
-0.002	n/a	START	-1	n/a	LTP312	ltpFR2	7	n/a	n/a	n/a	24	n/a	n/a	n/a	n/a
-0.002	n/a	PROB	-1	n/a	LTP312	ltpFR2	7	n/a	n/a	n/a	24	17	8	7	2
-0.002	n/a	PROB	-1	n/a	LTP312	ltpFR2	7	n/a	n/a	n/a	24	21	6	6	9
-0.002	n/a	PROB	-1	n/a	LTP312	ltpFR2	7	n/a	n/a	n/a	24	22	9	6	7
-0.002	n/a	PROB	-1	n/a	LTP312	ltpFR2	7	n/a	n/a	n/a	24	14	7	4	3
-0.002	n/a	PROB	-1	n/a	LTP312	ltpFR2	7	n/a	n/a	n/a	24	10	4	5	1
-0.002	n/a	PROB	-1	n/a	LTP312	ltpFR2	7	n/a	n/a	n/a	24	15	6	6	3
-0.002	n/a	PROB	-1	n/a	LTP312	ltpFR2	7	n/a	n/a	n/a	24	12	3	3	6
-0.002	n/a	PROB	-1	n/a	LTP312	ltpFR2	7	n/a	n/a	n/a	24	10	5	2	3
-0.002	n/a	PROB	-1	n/a	LTP312	ltpFR2	7	n/a	n/a	n/a	24	23	9	9	5
-0.002	n/a	PROB	-1	n/a	LTP312	ltpFR2	7	n/a	n/a	n/a	24	22	5	9	8
-0.002	n/a	PROB	-1	n/a	LTP312	ltpFR2	7	n/a	n/a	n/a	24	17	4	5	8
-0.002	n/a	PROB	-1	n/a	LTP312	ltpFR2	7	n/a	n/a	n/a	24	7	2	2	3
-0.002	n/a	PROB	-1	n/a	LTP312	ltpFR2	7	n/a	n/a	n/a	24	21	9	7	5
-0.002	n/a	PROB	-1	n/a	LTP312	ltpFR2	7	n/a	n/a	n/a	24	8	2	3	3
-0.002	n/a	STOP	-1	n/a	LTP312	ltpFR2	7	n/a	n/a	n/a	24	n/a	n/a	n/a	n/a
-0.002	n/a	WORD	-1	wordpools/wasnorm_wordpool_576.txt	LTP312	ltpFR2	7	17	ONION	977	n/a	n/a	0	0	0
-0.002	n/a	WORD	-1	wordpools/wasnorm_wordpool_576.txt	LTP312	ltpFR2	7	17	SCULPTURE	1258	n/a	n/a	0	0	0
-0.002	n/a	WORD	-1	wordpools/wasnorm_wordpool_576.txt	LTP312	ltpFR2	7	17	PORK	1108	n/a	n/a	0	0	0
-0.002	n/a	WORD	-1	wordpools/wasnorm_wordpool_576.txt	LTP312	ltpFR2	7	17	SURVEY	1414	n/a	n/a	0	0	0
-0.002	n/a	WORD	-1	wordpools/wasnorm_wordpool_576.txt	LTP312	ltpFR2	7	17	LEADER	807	n/a	n/a	0	0	0
-0.002	n/a	WORD	-1	wordpools/wasnorm_wordpool_576.txt	LTP312	ltpFR2	7	17	FRIAR	605	n/a	n/a	0	0	0
-0.002	n/a	WORD	-1	wordpools/wasnorm_wordpool_576.txt	LTP312	ltpFR2	7	17	CROSS	413	n/a	n/a	0	0	0
-0.002	n/a	WORD	-1	wordpools/wasnorm_wordpool_576.txt	LTP312	ltpFR2	7	17	FLUTE	585	n/a	n/a	0	0	0
-0.002	n/a	WORD	-1	wordpools/wasnorm_wordpool_576.txt	LTP312	ltpFR2	7	17	PARENT	1013	n/a	n/a	0	0	0
-0.002	n/a	WORD	-1	wordpools/wasnorm_wordpool_576.txt	LTP312	ltpFR2	7	17	COUSIN	392	n/a	n/a	0	0	0
-0.002	n/a	WORD	-1	wordpools/wasnorm_wordpool_576.txt	LTP312	ltpFR2	7	17	LUMBER	848	n/a	n/a	0	0	0
-0.002	n/a	WORD	-1	wordpools/wasnorm_wordpool_576.txt	LTP312	ltpFR2	7	17	PIMPLE	1071	n/a	n/a	0	0	0
-0.002	n/a	WORD	-1	wordpools/wasnorm_wordpool_576.txt	LTP312	ltpFR2	7	17	STATUE	1374	n/a	n/a	0	0	0
-0.002	n/a	WORD	-1	wordpools/wasnorm_wordpool_576.txt	LTP312	ltpFR2	7	17	TERMITE	1451	n/a	n/a	0	0	0
-0.002	n/a	WORD	-1	wordpools/wasnorm_wordpool_576.txt	LTP312	ltpFR2	7	17	GUITAR	670	n/a	n/a	0	0	0
-0.002	n/a	WORD	-1	wordpools/wasnorm_wordpool_576.txt	LTP312	ltpFR2	7	17	STAMP	1370	n/a	n/a	0	0	0
-0.002	n/a	WORD	-1	wordpools/wasnorm_wordpool_576.txt	LTP312	ltpFR2	7	17	MAILBOX	857	n/a	n/a	0	0	0
-0.002	n/a	WORD	-1	wordpools/wasnorm_wordpool_576.txt	LTP312	ltpFR2	7	17	TWEEZERS	1526	n/a	n/a	0	0	0
-0.002	n/a	WORD	-1	wordpools/wasnorm_wordpool_576.txt	LTP312	ltpFR2	7	17	MUMMY	932	n/a	n/a	0	0	0
-0.002	n/a	WORD	-1	wordpools/wasnorm_wordpool_576.txt	LTP312	ltpFR2	7	17	SUMMIT	1405	n/a	n/a	0	0	0
-0.002	n/a	WORD	-1	wordpools/wasnorm_wordpool_576.txt	LTP312	ltpFR2	7	17	SEAGULL	1261	n/a	n/a	0	0	0
-0.002	n/a	WORD	-1	wordpools/wasnorm_wordpool_576.txt	LTP312	ltpFR2	7	17	CATTLE	261	n/a	n/a	0	0	0
-0.002	n/a	WORD	-1	wordpools/wasnorm_wordpool_576.txt	LTP312	ltpFR2	7	17	PIGMENT	1066	n/a	n/a	0	0	0
-0.002	n/a	WORD	-1	wordpools/wasnorm_wordpool_576.txt	LTP312	ltpFR2	7	17	WAITRESS	1581	n/a	n/a	0	0	0
-0.002	n/a	START	-1	n/a	LTP312	ltpFR2	7	n/a	n/a	n/a	25	n/a	n/a	n/a	n/a
-0.002	n/a	DISTRACTOR	-1	n/a	LTP312	ltpFR2	7	17	n/a	n/a	n/a	n/a	0	0	0
-0.002	n/a	PROB	-1	n/a	LTP312	ltpFR2	7	n/a	n/a	n/a	25	17	1	7	9
-0.002	n/a	PROB	-1	n/a	LTP312	ltpFR2	7	n/a	n/a	n/a	25	14	1	9	4
-0.002	n/a	PROB	-1	n/a	LTP312	ltpFR2	7	n/a	n/a	n/a	25	11	5	4	2
-0.002	n/a	PROB	-1	n/a	LTP312	ltpFR2	7	n/a	n/a	n/a	25	24	8	8	8
-0.002	n/a	PROB	-1	n/a	LTP312	ltpFR2	7	n/a	n/a	n/a	25	7	1	5	1
-0.002	n/a	PROB	-1	n/a	LTP312	ltpFR2	7	n/a	n/a	n/a	25	16	5	6	5
-0.002	n/a	PROB	-1	n/a	LTP312	ltpFR2	7	n/a	n/a	n/a	25	15	7	1	7
-0.002	n/a	PROB	-1	n/a	LTP312	ltpFR2	7	n/a	n/a	n/a	25	14	7	2	5
-0.002	n/a	PROB	-1	n/a	LTP312	ltpFR2	7	n/a	n/a	n/a	25	20	7	5	8
-0.002	n/a	PROB	-1	n/a	LTP312	ltpFR2	7	n/a	n/a	n/a	25	19	4	7	8
-0.002	n/a	PROB	-1	n/a	LTP312	ltpFR2	7	n/a	n/a	n/a	25	16	3	8	5
-0.002	n/a	PROB	-1	n/a	LTP312	ltpFR2	7	n/a	n/a	n/a	25	12	8	1	3
-0.002	n/a	PROB	-1	n/a	LTP312	ltpFR2	7	n/a	n/a	n/a	25	14	3	7	4
-0.002	n/a	STOP	-1	n/a	LTP312	ltpFR2	7	n/a	n/a	n/a	25	n/a	n/a	n/a	n/a
-0.002	n/a	REC_START	-1	n/a	LTP312	ltpFR2	7	17	n/a	n/a	n/a	n/a	0	0	0
-0.002	n/a	REC_WORD	-1	wordpools/wasnorm_wordpool_576.txt	LTP312	ltpFR2	7	17	ONION	977	n/a	n/a	0	0	0
-0.002	n/a	REC_WORD	-1	wordpools/wasnorm_wordpool_576.txt	LTP312	ltpFR2	7	17	TWEEZERS	1526	n/a	n/a	0	0	0
-0.002	n/a	REC_WORD	-1	wordpools/wasnorm_wordpool_576.txt	LTP312	ltpFR2	7	17	SCULPTURE	1258	n/a	n/a	0	0	0
-0.002	n/a	REC_WORD_VV	-1	wordpools/wasnorm_wordpool_576.txt	LTP312	ltpFR2	7	17	<>	-1	n/a	n/a	0	0	0
-0.002	n/a	REC_WORD	-1	wordpools/wasnorm_wordpool_576.txt	LTP312	ltpFR2	7	17	PIMPLE	1071	n/a	n/a	0	0	0
-0.002	n/a	REC_WORD	-1	wordpools/wasnorm_wordpool_576.txt	LTP312	ltpFR2	7	17	SUMMIT	1405	n/a	n/a	0	0	0
-0.002	n/a	REC_WORD	-1	wordpools/wasnorm_wordpool_576.txt	LTP312	ltpFR2	7	17	MUMMY	932	n/a	n/a	0	0	0
-0.002	n/a	REC_WORD	-1	wordpools/wasnorm_wordpool_576.txt	LTP312	ltpFR2	7	17	SEAGULL	1261	n/a	n/a	0	0	0
-0.002	n/a	REC_WORD	-1	wordpools/wasnorm_wordpool_576.txt	LTP312	ltpFR2	7	17	CATTLE	261	n/a	n/a	0	0	0
-0.002	n/a	REC_WORD	-1	wordpools/wasnorm_wordpool_576.txt	LTP312	ltpFR2	7	17	PIGMENT	1066	n/a	n/a	0	0	0
-0.002	n/a	REC_WORD	-1	wordpools/wasnorm_wordpool_576.txt	LTP312	ltpFR2	7	17	WAITRESS	1581	n/a	n/a	0	0	0
-0.002	n/a	REC_WORD_VV	-1	wordpools/wasnorm_wordpool_576.txt	LTP312	ltpFR2	7	17	<>	-1	n/a	n/a	0	0	0
-0.002	n/a	DISTRACTOR	-1	n/a	LTP312	ltpFR2	7	18	n/a	n/a	n/a	n/a	0	0	0
-0.002	n/a	START	-1	n/a	LTP312	ltpFR2	7	n/a	n/a	n/a	26	n/a	n/a	n/a	n/a
-0.002	n/a	PROB	-1	n/a	LTP312	ltpFR2	7	n/a	n/a	n/a	26	15	6	4	5
-0.002	n/a	PROB	-1	n/a	LTP312	ltpFR2	7	n/a	n/a	n/a	26	17	8	8	1
-0.002	n/a	PROB	-1	n/a	LTP312	ltpFR2	7	n/a	n/a	n/a	26	16	5	7	4
-0.002	n/a	PROB	-1	n/a	LTP312	ltpFR2	7	n/a	n/a	n/a	26	14	3	5	6
-0.002	n/a	PROB	-1	n/a	LTP312	ltpFR2	7	n/a	n/a	n/a	26	11	4	6	1
-0.002	n/a	PROB	-1	n/a	LTP312	ltpFR2	7	n/a	n/a	n/a	26	8	1	2	5
-0.002	n/a	PROB	-1	n/a	LTP312	ltpFR2	7	n/a	n/a	n/a	26	23	8	8	7
-0.002	n/a	PROB	-1	n/a	LTP312	ltpFR2	7	n/a	n/a	n/a	26	17	7	2	8
-0.002	n/a	PROB	-1	n/a	LTP312	ltpFR2	7	n/a	n/a	n/a	26	14	1	8	5
-0.002	n/a	PROB	-1	n/a	LTP312	ltpFR2	7	n/a	n/a	n/a	26	10	2	5	3
-0.002	n/a	PROB	-1	n/a	LTP312	ltpFR2	7	n/a	n/a	n/a	26	13	2	4	7
-0.002	n/a	PROB	-1	n/a	LTP312	ltpFR2	7	n/a	n/a	n/a	26	17	5	4	8
-0.002	n/a	PROB	-1	n/a	LTP312	ltpFR2	7	n/a	n/a	n/a	26	12	1	7	4
-0.002	n/a	PROB	-1	n/a	LTP312	ltpFR2	7	n/a	n/a	n/a	26	11	6	3	2
-0.002	n/a	PROB	-1	n/a	LTP312	ltpFR2	7	n/a	n/a	n/a	26	11	5	1	5
-0.002	n/a	STOP	-1	n/a	LTP312	ltpFR2	7	n/a	n/a	n/a	26	n/a	n/a	n/a	n/a
-0.002	n/a	WORD	-1	wordpools/wasnorm_wordpool_576.txt	LTP312	ltpFR2	7	18	RIFLE	1192	n/a	n/a	0	0	0
-0.002	n/a	WORD	-1	wordpools/wasnorm_wordpool_576.txt	LTP312	ltpFR2	7	18	BURGLAR	200	n/a	n/a	0	0	0
-0.002	n/a	WORD	-1	wordpools/wasnorm_wordpool_576.txt	LTP312	ltpFR2	7	18	TUTU	1524	n/a	n/a	0	0	0
-0.002	n/a	WORD	-1	wordpools/wasnorm_wordpool_576.txt	LTP312	ltpFR2	7	18	DANCER	437	n/a	n/a	0	0	0
-0.002	n/a	WORD	-1	wordpools/wasnorm_wordpool_576.txt	LTP312	ltpFR2	7	18	PLIERS	1089	n/a	n/a	0	0	0
-0.002	n/a	WORD	-1	wordpools/wasnorm_wordpool_576.txt	LTP312	ltpFR2	7	18	KETCHUP	771	n/a	n/a	0	0	0
-0.002	n/a	WORD	-1	wordpools/wasnorm_wordpool_576.txt	LTP312	ltpFR2	7	18	PERFUME	1049	n/a	n/a	0	0	0
-0.002	n/a	WORD	-1	wordpools/wasnorm_wordpool_576.txt	LTP312	ltpFR2	7	18	SLOPE	1328	n/a	n/a	0	0	0
-0.002	n/a	WORD	-1	wordpools/wasnorm_wordpool_576.txt	LTP312	ltpFR2	7	18	HERO	706	n/a	n/a	0	0	0
-0.002	n/a	WORD	-1	wordpools/wasnorm_wordpool_576.txt	LTP312	ltpFR2	7	18	COURSE	390	n/a	n/a	0	0	0
-0.002	n/a	WORD	-1	wordpools/wasnorm_wordpool_576.txt	LTP312	ltpFR2	7	18	COLLEGE	346	n/a	n/a	0	0	0
-0.002	n/a	WORD	-1	wordpools/wasnorm_wordpool_576.txt	LTP312	ltpFR2	7	18	MOP	916	n/a	n/a	0	0	0
-0.002	n/a	WORD	-1	wordpools/wasnorm_wordpool_576.txt	LTP312	ltpFR2	7	18	FLASHLIGHT	575	n/a	n/a	0	0	0
-0.002	n/a	WORD	-1	wordpools/wasnorm_wordpool_576.txt	LTP312	ltpFR2	7	18	TABLET	1427	n/a	n/a	0	0	0
-0.002	n/a	WORD	-1	wordpools/wasnorm_wordpool_576.txt	LTP312	ltpFR2	7	18	MUSTARD	935	n/a	n/a	0	0	0
-0.002	n/a	WORD	-1	wordpools/wasnorm_wordpool_576.txt	LTP312	ltpFR2	7	18	ELBOW	520	n/a	n/a	0	0	0
-0.002	n/a	WORD	-1	wordpools/wasnorm_wordpool_576.txt	LTP312	ltpFR2	7	18	PERMIT	1051	n/a	n/a	0	0	0
-0.002	n/a	WORD	-1	wordpools/wasnorm_wordpool_576.txt	LTP312	ltpFR2	7	18	MISSILE	900	n/a	n/a	0	0	0
-0.002	n/a	WORD	-1	wordpools/wasnorm_wordpool_576.txt	LTP312	ltpFR2	7	18	ANKLE	24	n/a	n/a	0	0	0
-0.002	n/a	WORD	-1	wordpools/wasnorm_wordpool_576.txt	LTP312	ltpFR2	7	18	CANYON	235	n/a	n/a	0	0	0
-0.002	n/a	WORD	-1	wordpools/wasnorm_wordpool_576.txt	LTP312	ltpFR2	7	18	MARS	873	n/a	n/a	0	0	0
-0.002	n/a	WORD	-1	wordpools/wasnorm_wordpool_576.txt	LTP312	ltpFR2	7	18	BRACES	164	n/a	n/a	0	0	0
-0.002	n/a	WORD	-1	wordpools/wasnorm_wordpool_576.txt	LTP312	ltpFR2	7	18	BEAVER	109	n/a	n/a	0	0	0
-0.002	n/a	WORD	-1	wordpools/wasnorm_wordpool_576.txt	LTP312	ltpFR2	7	18	CREVICE	405	n/a	n/a	0	0	0
-0.002	n/a	START	-1	n/a	LTP312	ltpFR2	7	n/a	n/a	n/a	27	n/a	n/a	n/a	n/a
-0.002	n/a	DISTRACTOR	-1	n/a	LTP312	ltpFR2	7	18	n/a	n/a	n/a	n/a	0	0	0
-0.002	n/a	PROB	-1	n/a	LTP312	ltpFR2	7	n/a	n/a	n/a	27	12	6	4	2
-0.002	n/a	PROB	-1	n/a	LTP312	ltpFR2	7	n/a	n/a	n/a	27	15	8	5	2
-0.002	n/a	PROB	-1	n/a	LTP312	ltpFR2	7	n/a	n/a	n/a	27	12	2	2	8
-0.002	n/a	PROB	-1	n/a	LTP312	ltpFR2	7	n/a	n/a	n/a	27	6	1	3	2
-0.002	n/a	PROB	-1	n/a	LTP312	ltpFR2	7	n/a	n/a	n/a	27	11	7	3	1
-0.002	n/a	PROB	-1	n/a	LTP312	ltpFR2	7	n/a	n/a	n/a	27	17	6	7	4
-0.002	n/a	PROB	-1	n/a	LTP312	ltpFR2	7	n/a	n/a	n/a	27	12	6	5	1
-0.002	n/a	PROB	-1	n/a	LTP312	ltpFR2	7	n/a	n/a	n/a	27	17	9	7	1
-0.002	n/a	PROB	-1	n/a	LTP312	ltpFR2	7	n/a	n/a	n/a	27	12	8	2	2
-0.002	n/a	PROB	-1	n/a	LTP312	ltpFR2	7	n/a	n/a	n/a	27	14	2	8	4
-0.002	n/a	PROB	-1	n/a	LTP312	ltpFR2	7	n/a	n/a	n/a	27	11	3	1	7
-0.002	n/a	PROB	-1	n/a	LTP312	ltpFR2	7	n/a	n/a	n/a	27	14	1	7	6
-0.002	n/a	PROB	-1	n/a	LTP312	ltpFR2	7	n/a	n/a	n/a	27	13	5	3	3
-0.002	n/a	PROB	-1	n/a	LTP312	ltpFR2	7	n/a	n/a	n/a	27	20	8	8	4
-0.002	n/a	PROB	-1	n/a	LTP312	ltpFR2	7	n/a	n/a	n/a	27	11	1	5	5
-0.002	n/a	PROB	-1	n/a	LTP312	ltpFR2	7	n/a	n/a	n/a	27	18	7	2	8
-0.002	n/a	STOP	-1	n/a	LTP312	ltpFR2	7	n/a	n/a	n/a	27	n/a	n/a	n/a	n/a
-0.002	n/a	REC_START	-1	n/a	LTP312	ltpFR2	7	18	n/a	n/a	n/a	n/a	0	0	0
-0.002	n/a	REC_WORD	-1	wordpools/wasnorm_wordpool_576.txt	LTP312	ltpFR2	7	18	RIFLE	1192	n/a	n/a	0	0	0
-0.002	n/a	REC_WORD	-1	wordpools/wasnorm_wordpool_576.txt	LTP312	ltpFR2	7	18	BURGLAR	200	n/a	n/a	0	0	0
-0.002	n/a	REC_WORD	-1	wordpools/wasnorm_wordpool_576.txt	LTP312	ltpFR2	7	18	TUTU	1524	n/a	n/a	0	0	0
-0.002	n/a	REC_WORD_VV	-1	wordpools/wasnorm_wordpool_576.txt	LTP312	ltpFR2	7	18	<>	-1	n/a	n/a	0	0	0
-0.002	n/a	REC_WORD	-1	wordpools/wasnorm_wordpool_576.txt	LTP312	ltpFR2	7	18	DANCER	437	n/a	n/a	0	0	0
-0.002	n/a	REC_WORD	-1	wordpools/wasnorm_wordpool_576.txt	LTP312	ltpFR2	7	18	BRACES	164	n/a	n/a	0	0	0
-0.002	n/a	REC_WORD	-1	wordpools/wasnorm_wordpool_576.txt	LTP312	ltpFR2	7	18	CREVICE	405	n/a	n/a	0	0	0
-0.002	n/a	REC_WORD_VV	-1	wordpools/wasnorm_wordpool_576.txt	LTP312	ltpFR2	7	18	<>	-1	n/a	n/a	0	0	0
-0.002	n/a	REC_WORD	-1	wordpools/wasnorm_wordpool_576.txt	LTP312	ltpFR2	7	18	CANYON	235	n/a	n/a	0	0	0
-0.002	n/a	REC_WORD	-1	wordpools/wasnorm_wordpool_576.txt	LTP312	ltpFR2	7	18	MARS	873	n/a	n/a	0	0	0
-0.002	n/a	REC_WORD	-1	wordpools/wasnorm_wordpool_576.txt	LTP312	ltpFR2	7	18	PERFUME	1049	n/a	n/a	0	0	0
-0.002	n/a	REC_WORD_VV	-1	wordpools/wasnorm_wordpool_576.txt	LTP312	ltpFR2	7	18	<>	-1	n/a	n/a	0	0	0
-0.002	n/a	WORD	-1	wordpools/wasnorm_wordpool_576.txt	LTP312	ltpFR2	7	19	ICING	732	n/a	n/a	0	0	0
-0.002	n/a	WORD	-1	wordpools/wasnorm_wordpool_576.txt	LTP312	ltpFR2	7	19	SHORTCAKE	1292	n/a	n/a	0	0	0
-0.002	n/a	WORD	-1	wordpools/wasnorm_wordpool_576.txt	LTP312	ltpFR2	7	19	PADDLE	1000	n/a	n/a	0	0	0
-0.002	n/a	WORD	-1	wordpools/wasnorm_wordpool_576.txt	LTP312	ltpFR2	7	19	VENUS	1557	n/a	n/a	0	0	0
-0.002	n/a	WORD	-1	wordpools/wasnorm_wordpool_576.txt	LTP312	ltpFR2	7	19	ROBIN	1199	n/a	n/a	0	0	0
-0.002	n/a	WORD	-1	wordpools/wasnorm_wordpool_576.txt	LTP312	ltpFR2	7	19	BLADE	134	n/a	n/a	0	0	0
-0.002	n/a	WORD	-1	wordpools/wasnorm_wordpool_576.txt	LTP312	ltpFR2	7	19	OINTMENT	974	n/a	n/a	0	0	0
-0.002	n/a	WORD	-1	wordpools/wasnorm_wordpool_576.txt	LTP312	ltpFR2	7	19	DAUGHTER	442	n/a	n/a	0	0	0
-0.002	n/a	WORD	-1	wordpools/wasnorm_wordpool_576.txt	LTP312	ltpFR2	7	19	FRAGRANCE	599	n/a	n/a	0	0	0
-0.002	n/a	WORD	-1	wordpools/wasnorm_wordpool_576.txt	LTP312	ltpFR2	7	19	HELMET	702	n/a	n/a	0	0	0
-0.002	n/a	WORD	-1	wordpools/wasnorm_wordpool_576.txt	LTP312	ltpFR2	7	19	HEADBAND	696	n/a	n/a	0	0	0
-0.002	n/a	WORD	-1	wordpools/wasnorm_wordpool_576.txt	LTP312	ltpFR2	7	19	VICTIM	1562	n/a	n/a	0	0	0
-0.002	n/a	WORD	-1	wordpools/wasnorm_wordpool_576.txt	LTP312	ltpFR2	7	19	CONVICT	371	n/a	n/a	0	0	0
-0.002	n/a	WORD	-1	wordpools/wasnorm_wordpool_576.txt	LTP312	ltpFR2	7	19	SKETCH	1315	n/a	n/a	0	0	0
-0.002	n/a	WORD	-1	wordpools/wasnorm_wordpool_576.txt	LTP312	ltpFR2	7	19	CAMEL	223	n/a	n/a	0	0	0
-0.002	n/a	WORD	-1	wordpools/wasnorm_wordpool_576.txt	LTP312	ltpFR2	7	19	COWBOY	395	n/a	n/a	0	0	0
-0.002	n/a	WORD	-1	wordpools/wasnorm_wordpool_576.txt	LTP312	ltpFR2	7	19	PICTURE	1061	n/a	n/a	0	0	0
-0.002	n/a	WORD	-1	wordpools/wasnorm_wordpool_576.txt	LTP312	ltpFR2	7	19	COCKTAIL	338	n/a	n/a	0	0	0
-0.002	n/a	WORD	-1	wordpools/wasnorm_wordpool_576.txt	LTP312	ltpFR2	7	19	HORSE	719	n/a	n/a	0	0	0
-0.002	n/a	WORD	-1	wordpools/wasnorm_wordpool_576.txt	LTP312	ltpFR2	7	19	POISON	1096	n/a	n/a	0	0	0
-0.002	n/a	WORD	-1	wordpools/wasnorm_wordpool_576.txt	LTP312	ltpFR2	7	19	SNAKE	1333	n/a	n/a	0	0	0
-0.002	n/a	WORD	-1	wordpools/wasnorm_wordpool_576.txt	LTP312	ltpFR2	7	19	CORAL	378	n/a	n/a	0	0	0
-0.002	n/a	WORD	-1	wordpools/wasnorm_wordpool_576.txt	LTP312	ltpFR2	7	19	CHEST	295	n/a	n/a	0	0	0
-0.002	n/a	WORD	-1	wordpools/wasnorm_wordpool_576.txt	LTP312	ltpFR2	7	19	HOOD	714	n/a	n/a	0	0	0
-0.002	n/a	START	-1	n/a	LTP312	ltpFR2	7	n/a	n/a	n/a	28	n/a	n/a	n/a	n/a
-0.002	n/a	DISTRACTOR	-1	n/a	LTP312	ltpFR2	7	19	n/a	n/a	n/a	n/a	0	0	0
-0.002	n/a	PROB	-1	n/a	LTP312	ltpFR2	7	n/a	n/a	n/a	28	17	4	5	8
-0.002	n/a	PROB	-1	n/a	LTP312	ltpFR2	7	n/a	n/a	n/a	28	11	6	1	4
-0.002	n/a	PROB	-1	n/a	LTP312	ltpFR2	7	n/a	n/a	n/a	28	18	4	7	7
-0.002	n/a	PROB	-1	n/a	LTP312	ltpFR2	7	n/a	n/a	n/a	28	23	8	9	6
-0.002	n/a	PROB	-1	n/a	LTP312	ltpFR2	7	n/a	n/a	n/a	28	15	7	7	1
-0.002	n/a	PROB	-1	n/a	LTP312	ltpFR2	7	n/a	n/a	n/a	28	21	9	5	7
-0.002	n/a	PROB	-1	n/a	LTP312	ltpFR2	7	n/a	n/a	n/a	28	18	5	9	4
-0.002	n/a	PROB	-1	n/a	LTP312	ltpFR2	7	n/a	n/a	n/a	28	15	8	5	2
-0.002	n/a	PROB	-1	n/a	LTP312	ltpFR2	7	n/a	n/a	n/a	28	15	6	7	2
-0.002	n/a	PROB	-1	n/a	LTP312	ltpFR2	7	n/a	n/a	n/a	28	11	3	7	1
-0.002	n/a	PROB	-1	n/a	LTP312	ltpFR2	7	n/a	n/a	n/a	28	15	4	9	2
-0.002	n/a	PROB	-1	n/a	LTP312	ltpFR2	7	n/a	n/a	n/a	28	7	4	1	2
-0.002	n/a	STOP	-1	n/a	LTP312	ltpFR2	7	n/a	n/a	n/a	28	n/a	n/a	n/a	n/a
-0.002	n/a	REC_START	-1	n/a	LTP312	ltpFR2	7	19	n/a	n/a	n/a	n/a	0	0	0
-0.002	n/a	REC_WORD	-1	wordpools/wasnorm_wordpool_576.txt	LTP312	ltpFR2	7	19	HORSE	719	n/a	n/a	0	0	0
-0.002	n/a	REC_WORD	-1	wordpools/wasnorm_wordpool_576.txt	LTP312	ltpFR2	7	19	SKETCH	1315	n/a	n/a	0	0	0
-0.002	n/a	REC_WORD_VV	-1	wordpools/wasnorm_wordpool_576.txt	LTP312	ltpFR2	7	19	<>	-1	n/a	n/a	0	0	0
-0.002	n/a	REC_WORD	-1	wordpools/wasnorm_wordpool_576.txt	LTP312	ltpFR2	7	19	CORAL	378	n/a	n/a	0	0	0
-0.002	n/a	REC_WORD	-1	wordpools/wasnorm_wordpool_576.txt	LTP312	ltpFR2	7	19	CONVICT	371	n/a	n/a	0	0	0
-0.002	n/a	REC_WORD_VV	-1	wordpools/wasnorm_wordpool_576.txt	LTP312	ltpFR2	7	19	<>	-1	n/a	n/a	0	0	0
-0.002	n/a	REC_WORD	-1	wordpools/wasnorm_wordpool_576.txt	LTP312	ltpFR2	7	19	VICTIM	1562	n/a	n/a	0	0	0
-0.002	n/a	REC_WORD	-1	wordpools/wasnorm_wordpool_576.txt	LTP312	ltpFR2	7	19	ICING	732	n/a	n/a	0	0	0
-0.002	n/a	REC_WORD_VV	-1	wordpools/wasnorm_wordpool_576.txt	LTP312	ltpFR2	7	19	<>	-1	n/a	n/a	0	0	0
-0.002	n/a	REC_WORD	-1	wordpools/wasnorm_wordpool_576.txt	LTP312	ltpFR2	7	19	POISON	1096	n/a	n/a	0	0	0
-0.002	n/a	REC_WORD	-1	wordpools/wasnorm_wordpool_576.txt	LTP312	ltpFR2	7	19	FRAGRANCE	599	n/a	n/a	0	0	0
-0.002	n/a	REC_WORD_VV	-1	wordpools/wasnorm_wordpool_576.txt	LTP312	ltpFR2	7	19	<>	-1	n/a	n/a	0	0	0
-0.002	n/a	REC_WORD	-1	wordpools/wasnorm_wordpool_576.txt	LTP312	ltpFR2	7	19	HOOD	714	n/a	n/a	0	0	0
-0.002	n/a	DISTRACTOR	-1	n/a	LTP312	ltpFR2	7	20	n/a	n/a	n/a	n/a	0	0	0
-0.002	n/a	START	-1	n/a	LTP312	ltpFR2	7	n/a	n/a	n/a	29	n/a	n/a	n/a	n/a
-0.002	n/a	PROB	-1	n/a	LTP312	ltpFR2	7	n/a	n/a	n/a	29	15	3	6	6
-0.002	n/a	PROB	-1	n/a	LTP312	ltpFR2	7	n/a	n/a	n/a	29	17	7	2	8
-0.002	n/a	PROB	-1	n/a	LTP312	ltpFR2	7	n/a	n/a	n/a	29	15	3	3	9
-0.002	n/a	PROB	-1	n/a	LTP312	ltpFR2	7	n/a	n/a	n/a	29	13	7	2	4
-0.002	n/a	PROB	-1	n/a	LTP312	ltpFR2	7	n/a	n/a	n/a	29	19	6	4	9
-0.002	n/a	PROB	-1	n/a	LTP312	ltpFR2	7	n/a	n/a	n/a	29	7	2	2	3
-0.002	n/a	PROB	-1	n/a	LTP312	ltpFR2	7	n/a	n/a	n/a	29	22	9	7	8
-0.002	n/a	PROB	-1	n/a	LTP312	ltpFR2	7	n/a	n/a	n/a	29	23	9	5	9
-0.002	n/a	PROB	-1	n/a	LTP312	ltpFR2	7	n/a	n/a	n/a	29	19	4	9	6
-0.002	n/a	PROB	-1	n/a	LTP312	ltpFR2	7	n/a	n/a	n/a	29	15	9	4	2
-0.002	n/a	PROB	-1	n/a	LTP312	ltpFR2	7	n/a	n/a	n/a	29	21	6	8	7
-0.002	n/a	PROB	-1	n/a	LTP312	ltpFR2	7	n/a	n/a	n/a	29	12	6	1	5
-0.002	n/a	STOP	-1	n/a	LTP312	ltpFR2	7	n/a	n/a	n/a	29	n/a	n/a	n/a	n/a
-0.002	n/a	WORD	-1	wordpools/wasnorm_wordpool_576.txt	LTP312	ltpFR2	7	20	SKILLET	1317	n/a	n/a	0	0	0
-0.002	n/a	WORD	-1	wordpools/wasnorm_wordpool_576.txt	LTP312	ltpFR2	7	20	TWISTER	1530	n/a	n/a	0	0	0
-0.002	n/a	WORD	-1	wordpools/wasnorm_wordpool_576.txt	LTP312	ltpFR2	7	20	BUCKET	184	n/a	n/a	0	0	0
-0.002	n/a	WORD	-1	wordpools/wasnorm_wordpool_576.txt	LTP312	ltpFR2	7	20	DIVER	476	n/a	n/a	0	0	0
-0.002	n/a	WORD	-1	wordpools/wasnorm_wordpool_576.txt	LTP312	ltpFR2	7	20	BUG	187	n/a	n/a	0	0	0
-0.002	n/a	WORD	-1	wordpools/wasnorm_wordpool_576.txt	LTP312	ltpFR2	7	20	PISTOL	1075	n/a	n/a	0	0	0
-0.002	n/a	WORD	-1	wordpools/wasnorm_wordpool_576.txt	LTP312	ltpFR2	7	20	BODY	145	n/a	n/a	0	0	0
-0.002	n/a	WORD	-1	wordpools/wasnorm_wordpool_576.txt	LTP312	ltpFR2	7	20	BINDER	127	n/a	n/a	0	0	0
-0.002	n/a	WORD	-1	wordpools/wasnorm_wordpool_576.txt	LTP312	ltpFR2	7	20	REPORT	1184	n/a	n/a	0	0	0
-0.002	n/a	WORD	-1	wordpools/wasnorm_wordpool_576.txt	LTP312	ltpFR2	7	20	HUMAN	726	n/a	n/a	0	0	0
-0.002	n/a	WORD	-1	wordpools/wasnorm_wordpool_576.txt	LTP312	ltpFR2	7	20	WIDOW	1608	n/a	n/a	0	0	0
-0.002	n/a	WORD	-1	wordpools/wasnorm_wordpool_576.txt	LTP312	ltpFR2	7	20	PARTNER	1017	n/a	n/a	0	0	0
-0.002	n/a	WORD	-1	wordpools/wasnorm_wordpool_576.txt	LTP312	ltpFR2	7	20	CYCLONE	431	n/a	n/a	0	0	0
-0.002	n/a	WORD	-1	wordpools/wasnorm_wordpool_576.txt	LTP312	ltpFR2	7	20	BUTCHER	203	n/a	n/a	0	0	0
-0.002	n/a	WORD	-1	wordpools/wasnorm_wordpool_576.txt	LTP312	ltpFR2	7	20	TOASTER	1472	n/a	n/a	0	0	0
-0.002	n/a	WORD	-1	wordpools/wasnorm_wordpool_576.txt	LTP312	ltpFR2	7	20	TRIBE	1505	n/a	n/a	0	0	0
-0.002	n/a	WORD	-1	wordpools/wasnorm_wordpool_576.txt	LTP312	ltpFR2	7	20	MILK	895	n/a	n/a	0	0	0
-0.002	n/a	WORD	-1	wordpools/wasnorm_wordpool_576.txt	LTP312	ltpFR2	7	20	BARREL	91	n/a	n/a	0	0	0
-0.002	n/a	WORD	-1	wordpools/wasnorm_wordpool_576.txt	LTP312	ltpFR2	7	20	COUCH	386	n/a	n/a	0	0	0
