onset	duration	trial_type	sample	stim_file	subject	experiment	session	trial	task	item_name	item_num	recog_resp	recog_conf	resp	answer	test_x	test_y	test_z	color_r	color_g	color_b	case	font
252.746	n/a	SESS_START	126373	n/a	LTP207	ltpFR	7	n/a	n/a	n/a	n/a	0	2	n/a	n/a	0	0	0	n/a	n/a	n/a	n/a	n/a
447.894	n/a	START	223947	n/a	LTP207	ltpFR	7	n/a	n/a	n/a	n/a	n/a	n/a	n/a	n/a	n/a	n/a	n/a	n/a	n/a	n/a	n/a	n/a
447.946	n/a	PROB	223973	n/a	LTP207	ltpFR	7	n/a	n/a	n/a	n/a	n/a	n/a	n/a	13	4	4	5	n/a	n/a	n/a	n/a	n/a
453.666	n/a	PROB	226833	n/a	LTP207	ltpFR	7	n/a	n/a	n/a	n/a	n/a	n/a	n/a	23	9	9	5	n/a	n/a	n/a	n/a	n/a
458.836	n/a	PROB	229418	n/a	LTP207	ltpFR	7	n/a	n/a	n/a	n/a	n/a	n/a	n/a	12	7	4	1	n/a	n/a	n/a	n/a	n/a
462.026	n/a	PROB	231013	n/a	LTP207	ltpFR	7	n/a	n/a	n/a	n/a	n/a	n/a	n/a	13	3	6	4	n/a	n/a	n/a	n/a	n/a
467.896	n/a	STOP	233948	n/a	LTP207	ltpFR	7	n/a	n/a	n/a	n/a	n/a	n/a	n/a	n/a	n/a	n/a	n/a	n/a	n/a	n/a	n/a	n/a
566.024	n/a	START	283012	n/a	LTP207	ltpFR	7	n/a	n/a	n/a	n/a	n/a	n/a	n/a	n/a	n/a	n/a	n/a	n/a	n/a	n/a	n/a	n/a
567.534	n/a	PROB	283767	n/a	LTP207	ltpFR	7	n/a	n/a	n/a	n/a	n/a	n/a	n/a	19	7	6	6	n/a	n/a	n/a	n/a	n/a
570.39	n/a	PROB	285195	n/a	LTP207	ltpFR	7	n/a	n/a	n/a	n/a	n/a	n/a	n/a	14	3	6	5	n/a	n/a	n/a	n/a	n/a
574.024	n/a	STOP	287012	n/a	LTP207	ltpFR	7	n/a	n/a	n/a	n/a	n/a	n/a	n/a	n/a	n/a	n/a	n/a	n/a	n/a	n/a	n/a	n/a
574.89	n/a	WORD	287445	wordpools/wasnorm_wordpool_less_exclusions.txt	LTP207	ltpFR	7	1	0	COTTAGE	384	0	n/a	1	n/a	0	0	0	0.422607421875	0.5869140625	0	lower	amplitud.ttf
577.904	n/a	START	288952	n/a	LTP207	ltpFR	7	n/a	n/a	n/a	n/a	n/a	n/a	n/a	n/a	n/a	n/a	n/a	n/a	n/a	n/a	n/a	n/a
578.958	n/a	PROB	289479	n/a	LTP207	ltpFR	7	n/a	n/a	n/a	n/a	n/a	n/a	n/a	9	1	3	5	n/a	n/a	n/a	n/a	n/a
581.264	n/a	PROB	290632	n/a	LTP207	ltpFR	7	n/a	n/a	n/a	n/a	n/a	n/a	n/a	7	3	2	2	n/a	n/a	n/a	n/a	n/a
585.904	n/a	STOP	292952	n/a	LTP207	ltpFR	7	n/a	n/a	n/a	n/a	n/a	n/a	n/a	n/a	n/a	n/a	n/a	n/a	n/a	n/a	n/a	n/a
586.92	n/a	WORD	293460	wordpools/wasnorm_wordpool_less_exclusions.txt	LTP207	ltpFR	7	1	0	ROOST	1208	n/a	n/a	1	n/a	0	0	0	0.422607421875	0.5869140625	0	lower	amplitud.ttf
589.938	n/a	START	294969	n/a	LTP207	ltpFR	7	n/a	n/a	n/a	n/a	n/a	n/a	n/a	n/a	n/a	n/a	n/a	n/a	n/a	n/a	n/a	n/a
590.924	n/a	PROB	295462	n/a	LTP207	ltpFR	7	n/a	n/a	n/a	n/a	n/a	n/a	n/a	11	1	4	6	n/a	n/a	n/a	n/a	n/a
592.858	n/a	PROB	296429	n/a	LTP207	ltpFR	7	n/a	n/a	n/a	n/a	n/a	n/a	n/a	17	5	7	5	n/a	n/a	n/a	n/a	n/a
595.308	n/a	PROB	297654	n/a	LTP207	ltpFR	7	n/a	n/a	n/a	n/a	n/a	n/a	n/a	9	7	1	1	n/a	n/a	n/a	n/a	n/a
596.928	n/a	STOP	298464	n/a	LTP207	ltpFR	7	n/a	n/a	n/a	n/a	n/a	n/a	n/a	n/a	n/a	n/a	n/a	n/a	n/a	n/a	n/a	n/a
599.024	n/a	WORD	299512	wordpools/wasnorm_wordpool_less_exclusions.txt	LTP207	ltpFR	7	1	0	STAR	1373	n/a	n/a	0	n/a	0	0	0	0.422607421875	0.5869140625	0	lower	amplitud.ttf
602.034	n/a	START	301017	n/a	LTP207	ltpFR	7	n/a	n/a	n/a	n/a	n/a	n/a	n/a	n/a	n/a	n/a	n/a	n/a	n/a	n/a	n/a	n/a
603.222	n/a	PROB	301611	n/a	LTP207	ltpFR	7	n/a	n/a	n/a	n/a	n/a	n/a	n/a	24	6	9	9	n/a	n/a	n/a	n/a	n/a
605.624	n/a	PROB	302812	n/a	LTP207	ltpFR	7	n/a	n/a	n/a	n/a	n/a	n/a	n/a	19	6	5	8	n/a	n/a	n/a	n/a	n/a
607.404	n/a	PROB	303702	n/a	LTP207	ltpFR	7	n/a	n/a	n/a	n/a	n/a	n/a	n/a	9	1	3	5	n/a	n/a	n/a	n/a	n/a
609.024	n/a	STOP	304512	n/a	LTP207	ltpFR	7	n/a	n/a	n/a	n/a	n/a	n/a	n/a	n/a	n/a	n/a	n/a	n/a	n/a	n/a	n/a	n/a
610.866	n/a	WORD	305433	wordpools/wasnorm_wordpool_less_exclusions.txt	LTP207	ltpFR	7	1	0	ASTRONAUT	51	n/a	n/a	1	n/a	0	0	0	0.422607421875	0.5869140625	0	lower	amplitud.ttf
613.878	n/a	START	306939	n/a	LTP207	ltpFR	7	n/a	n/a	n/a	n/a	n/a	n/a	n/a	n/a	n/a	n/a	n/a	n/a	n/a	n/a	n/a	n/a
614.826	n/a	PROB	307413	n/a	LTP207	ltpFR	7	n/a	n/a	n/a	n/a	n/a	n/a	n/a	7	2	4	1	n/a	n/a	n/a	n/a	n/a
621.878	n/a	STOP	310939	n/a	LTP207	ltpFR	7	n/a	n/a	n/a	n/a	n/a	n/a	n/a	n/a	n/a	n/a	n/a	n/a	n/a	n/a	n/a	n/a
622.88	n/a	WORD	311440	wordpools/wasnorm_wordpool_less_exclusions.txt	LTP207	ltpFR	7	1	0	DRAGON	492	n/a	n/a	1	n/a	0	0	0	0.422607421875	0.5869140625	0	lower	amplitud.ttf
625.892	n/a	START	312946	n/a	LTP207	ltpFR	7	n/a	n/a	n/a	n/a	n/a	n/a	n/a	n/a	n/a	n/a	n/a	n/a	n/a	n/a	n/a	n/a
626.974	n/a	PROB	313487	n/a	LTP207	ltpFR	7	n/a	n/a	n/a	n/a	n/a	n/a	n/a	13	9	1	2	n/a	n/a	n/a	n/a	n/a
633.892	n/a	STOP	316946	n/a	LTP207	ltpFR	7	n/a	n/a	n/a	n/a	n/a	n/a	n/a	n/a	n/a	n/a	n/a	n/a	n/a	n/a	n/a	n/a
634.994	n/a	WORD	317497	wordpools/wasnorm_wordpool_less_exclusions.txt	LTP207	ltpFR	7	1	0	VALVE	1546	n/a	n/a	0	n/a	0	0	0	0.422607421875	0.5869140625	0	lower	amplitud.ttf
638.006	n/a	START	319003	n/a	LTP207	ltpFR	7	n/a	n/a	n/a	n/a	n/a	n/a	n/a	n/a	n/a	n/a	n/a	n/a	n/a	n/a	n/a	n/a
639.11	n/a	PROB	319555	n/a	LTP207	ltpFR	7	n/a	n/a	n/a	n/a	n/a	n/a	n/a	11	6	1	4	n/a	n/a	n/a	n/a	n/a
641.36	n/a	PROB	320680	n/a	LTP207	ltpFR	7	n/a	n/a	n/a	n/a	n/a	n/a	n/a	14	5	8	1	n/a	n/a	n/a	n/a	n/a
644.52	n/a	STOP	322260	n/a	LTP207	ltpFR	7	n/a	n/a	n/a	n/a	n/a	n/a	n/a	n/a	n/a	n/a	n/a	n/a	n/a	n/a	n/a	n/a
646.938	n/a	WORD	323469	wordpools/wasnorm_wordpool_less_exclusions.txt	LTP207	ltpFR	7	1	0	BREAST	171	n/a	n/a	1	n/a	0	0	0	0.422607421875	0.5869140625	0	lower	amplitud.ttf
649.95	n/a	START	324975	n/a	LTP207	ltpFR	7	n/a	n/a	n/a	n/a	n/a	n/a	n/a	n/a	n/a	n/a	n/a	n/a	n/a	n/a	n/a	n/a
650.836	n/a	PROB	325418	n/a	LTP207	ltpFR	7	n/a	n/a	n/a	n/a	n/a	n/a	n/a	24	9	8	7	n/a	n/a	n/a	n/a	n/a
655.65	n/a	PROB	327825	n/a	LTP207	ltpFR	7	n/a	n/a	n/a	n/a	n/a	n/a	n/a	16	8	2	6	n/a	n/a	n/a	n/a	n/a
657.85	n/a	STOP	328925	n/a	LTP207	ltpFR	7	n/a	n/a	n/a	n/a	n/a	n/a	n/a	n/a	n/a	n/a	n/a	n/a	n/a	n/a	n/a	n/a
658.936	n/a	WORD	329468	wordpools/wasnorm_wordpool_less_exclusions.txt	LTP207	ltpFR	7	1	0	OCTOPUS	971	n/a	n/a	1	n/a	0	0	0	0.422607421875	0.5869140625	0	lower	amplitud.ttf
661.948	n/a	START	330974	n/a	LTP207	ltpFR	7	n/a	n/a	n/a	n/a	n/a	n/a	n/a	n/a	n/a	n/a	n/a	n/a	n/a	n/a	n/a	n/a
663.15	n/a	PROB	331575	n/a	LTP207	ltpFR	7	n/a	n/a	n/a	n/a	n/a	n/a	n/a	10	1	2	7	n/a	n/a	n/a	n/a	n/a
665.058	n/a	PROB	332529	n/a	LTP207	ltpFR	7	n/a	n/a	n/a	n/a	n/a	n/a	n/a	7	1	4	2	n/a	n/a	n/a	n/a	n/a
669.948	n/a	STOP	334974	n/a	LTP207	ltpFR	7	n/a	n/a	n/a	n/a	n/a	n/a	n/a	n/a	n/a	n/a	n/a	n/a	n/a	n/a	n/a	n/a
670.908	n/a	WORD	335454	wordpools/wasnorm_wordpool_less_exclusions.txt	LTP207	ltpFR	7	1	0	SHRINE	1298	n/a	n/a	1	n/a	0	0	0	0.422607421875	0.5869140625	0	lower	amplitud.ttf
673.92	n/a	START	336960	n/a	LTP207	ltpFR	7	n/a	n/a	n/a	n/a	n/a	n/a	n/a	n/a	n/a	n/a	n/a	n/a	n/a	n/a	n/a	n/a
674.828	n/a	PROB	337414	n/a	LTP207	ltpFR	7	n/a	n/a	n/a	n/a	n/a	n/a	n/a	17	6	2	9	n/a	n/a	n/a	n/a	n/a
678.704	n/a	PROB	339352	n/a	LTP207	ltpFR	7	n/a	n/a	n/a	n/a	n/a	n/a	n/a	10	2	2	6	n/a	n/a	n/a	n/a	n/a
681.618	n/a	STOP	340809	n/a	LTP207	ltpFR	7	n/a	n/a	n/a	n/a	n/a	n/a	n/a	n/a	n/a	n/a	n/a	n/a	n/a	n/a	n/a	n/a
683.088	n/a	WORD	341544	wordpools/wasnorm_wordpool_less_exclusions.txt	LTP207	ltpFR	7	1	0	REPORT	1184	n/a	n/a	1	n/a	0	0	0	0.422607421875	0.5869140625	0	lower	amplitud.ttf
686.1	n/a	START	343050	n/a	LTP207	ltpFR	7	n/a	n/a	n/a	n/a	n/a	n/a	n/a	n/a	n/a	n/a	n/a	n/a	n/a	n/a	n/a	n/a
686.924	n/a	PROB	343462	n/a	LTP207	ltpFR	7	n/a	n/a	n/a	n/a	n/a	n/a	n/a	14	8	1	5	n/a	n/a	n/a	n/a	n/a
689.016	n/a	PROB	344508	n/a	LTP207	ltpFR	7	n/a	n/a	n/a	n/a	n/a	n/a	n/a	22	8	6	8	n/a	n/a	n/a	n/a	n/a
692.892	n/a	STOP	346446	n/a	LTP207	ltpFR	7	n/a	n/a	n/a	n/a	n/a	n/a	n/a	n/a	n/a	n/a	n/a	n/a	n/a	n/a	n/a	n/a
695.106	n/a	WORD	347553	wordpools/wasnorm_wordpool_less_exclusions.txt	LTP207	ltpFR	7	1	0	BEETLE	116	n/a	n/a	0	n/a	0	0	0	0.422607421875	0.5869140625	0	lower	amplitud.ttf
698.118	n/a	START	349059	n/a	LTP207	ltpFR	7	n/a	n/a	n/a	n/a	n/a	n/a	n/a	n/a	n/a	n/a	n/a	n/a	n/a	n/a	n/a	n/a
699.088	n/a	PROB	349544	n/a	LTP207	ltpFR	7	n/a	n/a	n/a	n/a	n/a	n/a	n/a	16	7	3	6	n/a	n/a	n/a	n/a	n/a
701.43	n/a	PROB	350715	n/a	LTP207	ltpFR	7	n/a	n/a	n/a	n/a	n/a	n/a	n/a	22	5	9	8	n/a	n/a	n/a	n/a	n/a
703.666	n/a	PROB	351833	n/a	LTP207	ltpFR	7	n/a	n/a	n/a	n/a	n/a	n/a	n/a	15	3	7	5	n/a	n/a	n/a	n/a	n/a
705.212	n/a	STOP	352606	n/a	LTP207	ltpFR	7	n/a	n/a	n/a	n/a	n/a	n/a	n/a	n/a	n/a	n/a	n/a	n/a	n/a	n/a	n/a	n/a
707.252	n/a	WORD	353626	wordpools/wasnorm_wordpool_less_exclusions.txt	LTP207	ltpFR	7	1	0	SPIDER	1351	n/a	n/a	0	n/a	0	0	0	0.422607421875	0.5869140625	0	lower	amplitud.ttf
710.264	n/a	START	355132	n/a	LTP207	ltpFR	7	n/a	n/a	n/a	n/a	n/a	n/a	n/a	n/a	n/a	n/a	n/a	n/a	n/a	n/a	n/a	n/a
711.118	n/a	PROB	355559	n/a	LTP207	ltpFR	7	n/a	n/a	n/a	n/a	n/a	n/a	n/a	15	7	4	4	n/a	n/a	n/a	n/a	n/a
713.492	n/a	PROB	356746	n/a	LTP207	ltpFR	7	n/a	n/a	n/a	n/a	n/a	n/a	n/a	13	6	4	3	n/a	n/a	n/a	n/a	n/a
715.244	n/a	PROB	357622	n/a	LTP207	ltpFR	7	n/a	n/a	n/a	n/a	n/a	n/a	n/a	17	4	5	8	n/a	n/a	n/a	n/a	n/a
717.094	n/a	STOP	358547	n/a	LTP207	ltpFR	7	n/a	n/a	n/a	n/a	n/a	n/a	n/a	n/a	n/a	n/a	n/a	n/a	n/a	n/a	n/a	n/a
719.432	n/a	WORD	359716	wordpools/wasnorm_wordpool_less_exclusions.txt	LTP207	ltpFR	7	1	0	TUSK	1523	n/a	n/a	0	n/a	0	0	0	0.422607421875	0.5869140625	0	lower	amplitud.ttf
722.444	n/a	START	361222	n/a	LTP207	ltpFR	7	n/a	n/a	n/a	n/a	n/a	n/a	n/a	n/a	n/a	n/a	n/a	n/a	n/a	n/a	n/a	n/a
723.474	n/a	PROB	361737	n/a	LTP207	ltpFR	7	n/a	n/a	n/a	n/a	n/a	n/a	n/a	15	5	6	4	n/a	n/a	n/a	n/a	n/a
725.27	n/a	PROB	362635	n/a	LTP207	ltpFR	7	n/a	n/a	n/a	n/a	n/a	n/a	n/a	20	7	8	5	n/a	n/a	n/a	n/a	n/a
727.546	n/a	PROB	363773	n/a	LTP207	ltpFR	7	n/a	n/a	n/a	n/a	n/a	n/a	n/a	8	2	3	3	n/a	n/a	n/a	n/a	n/a
729.95	n/a	STOP	364975	n/a	LTP207	ltpFR	7	n/a	n/a	n/a	n/a	n/a	n/a	n/a	n/a	n/a	n/a	n/a	n/a	n/a	n/a	n/a	n/a
731.388	n/a	WORD	365694	wordpools/wasnorm_wordpool_less_exclusions.txt	LTP207	ltpFR	7	1	0	BUBBLE	183	n/a	n/a	0	n/a	0	0	0	0.422607421875	0.5869140625	0	lower	amplitud.ttf
734.406	n/a	START	367203	n/a	LTP207	ltpFR	7	n/a	n/a	n/a	n/a	n/a	n/a	n/a	n/a	n/a	n/a	n/a	n/a	n/a	n/a	n/a	n/a
735.46	n/a	PROB	367730	n/a	LTP207	ltpFR	7	n/a	n/a	n/a	n/a	n/a	n/a	n/a	13	2	9	2	n/a	n/a	n/a	n/a	n/a
738.17	n/a	PROB	369085	n/a	LTP207	ltpFR	7	n/a	n/a	n/a	n/a	n/a	n/a	n/a	18	8	5	5	n/a	n/a	n/a	n/a	n/a
740.422	n/a	PROB	370211	n/a	LTP207	ltpFR	7	n/a	n/a	n/a	n/a	n/a	n/a	n/a	19	7	9	3	n/a	n/a	n/a	n/a	n/a
742.35	n/a	STOP	371175	n/a	LTP207	ltpFR	7	n/a	n/a	n/a	n/a	n/a	n/a	n/a	n/a	n/a	n/a	n/a	n/a	n/a	n/a	n/a	n/a
743.44	n/a	WORD	371720	wordpools/wasnorm_wordpool_less_exclusions.txt	LTP207	ltpFR	7	1	0	STAPLER	1372	n/a	n/a	0	n/a	0	0	0	0.422607421875	0.5869140625	0	lower	amplitud.ttf
746.452	n/a	START	373226	n/a	LTP207	ltpFR	7	n/a	n/a	n/a	n/a	n/a	n/a	n/a	n/a	n/a	n/a	n/a	n/a	n/a	n/a	n/a	n/a
747.338	n/a	PROB	373669	n/a	LTP207	ltpFR	7	n/a	n/a	n/a	n/a	n/a	n/a	n/a	10	2	6	4	n/a	n/a	n/a	n/a	n/a
749.374	n/a	PROB	374687	n/a	LTP207	ltpFR	7	n/a	n/a	n/a	n/a	n/a	n/a	n/a	19	4	7	8	n/a	n/a	n/a	n/a	n/a
753.55	n/a	STOP	376775	n/a	LTP207	ltpFR	7	n/a	n/a	n/a	n/a	n/a	n/a	n/a	n/a	n/a	n/a	n/a	n/a	n/a	n/a	n/a	n/a
755.436	n/a	WORD	377718	wordpools/wasnorm_wordpool_less_exclusions.txt	LTP207	ltpFR	7	1	0	CREEK	404	n/a	n/a	1	n/a	0	0	0	0.422607421875	0.5869140625	0	lower	amplitud.ttf
758.448	n/a	START	379224	n/a	LTP207	ltpFR	7	n/a	n/a	n/a	n/a	n/a	n/a	n/a	n/a	n/a	n/a	n/a	n/a	n/a	n/a	n/a	n/a
759.618	n/a	PROB	379809	n/a	LTP207	ltpFR	7	n/a	n/a	n/a	n/a	n/a	n/a	n/a	21	7	8	6	n/a	n/a	n/a	n/a	n/a
763.694	n/a	PROB	381847	n/a	LTP207	ltpFR	7	n/a	n/a	n/a	n/a	n/a	n/a	n/a	7	1	3	3	n/a	n/a	n/a	n/a	n/a
766.168	n/a	STOP	383084	n/a	LTP207	ltpFR	7	n/a	n/a	n/a	n/a	n/a	n/a	n/a	n/a	n/a	n/a	n/a	n/a	n/a	n/a	n/a	n/a
768.22	n/a	REC_START	384110	n/a	LTP207	ltpFR	7	1	n/a	n/a	n/a	n/a	n/a	n/a	n/a	0	0	0	n/a	n/a	n/a	n/a	n/a
769.72	n/a	REC_WORD	384860	wordpools/wasnorm_wordpool_less_exclusions.txt	LTP207	ltpFR	7	1	0	COTTAGE	384	n/a	n/a	1	n/a	0	0	0	n/a	n/a	n/a	n/a	n/a
771.368	n/a	REC_WORD	385684	wordpools/wasnorm_wordpool_less_exclusions.txt	LTP207	ltpFR	7	1	0	TUSK	1523	n/a	n/a	0	n/a	0	0	0	n/a	n/a	n/a	n/a	n/a
773.732	n/a	REC_WORD	386866	wordpools/wasnorm_wordpool_less_exclusions.txt	LTP207	ltpFR	7	1	0	BUBBLE	183	n/a	n/a	0	n/a	0	0	0	n/a	n/a	n/a	n/a	n/a
788.548	n/a	REC_WORD	394274	wordpools/wasnorm_wordpool_less_exclusions.txt	LTP207	ltpFR	7	1	0	REPORT	1184	n/a	n/a	1	n/a	0	0	0	n/a	n/a	n/a	n/a	n/a
795.504	n/a	REC_WORD	397752	wordpools/wasnorm_wordpool_less_exclusions.txt	LTP207	ltpFR	7	1	0	VALVE	1546	n/a	n/a	0	n/a	0	0	0	n/a	n/a	n/a	n/a	n/a
804.404	n/a	REC_WORD	402202	wordpools/wasnorm_wordpool_less_exclusions.txt	LTP207	ltpFR	7	1	0	BREAST	171	n/a	n/a	1	n/a	0	0	0	n/a	n/a	n/a	n/a	n/a
817.978	n/a	REC_WORD	408989	wordpools/wasnorm_wordpool_less_exclusions.txt	LTP207	ltpFR	7	1	0	STAR	1373	n/a	n/a	0	n/a	0	0	0	n/a	n/a	n/a	n/a	n/a
871.496	n/a	START	435748	n/a	LTP207	ltpFR	7	n/a	n/a	n/a	n/a	n/a	n/a	n/a	n/a	n/a	n/a	n/a	n/a	n/a	n/a	n/a	n/a
873.014	n/a	PROB	436507	n/a	LTP207	ltpFR	7	n/a	n/a	n/a	n/a	n/a	n/a	n/a	21	9	4	8	n/a	n/a	n/a	n/a	n/a
876.676	n/a	PROB	438338	n/a	LTP207	ltpFR	7	n/a	n/a	n/a	n/a	n/a	n/a	n/a	8	6	6	1	n/a	n/a	n/a	n/a	n/a
878.38	n/a	STOP	439190	n/a	LTP207	ltpFR	7	n/a	n/a	n/a	n/a	n/a	n/a	n/a	n/a	n/a	n/a	n/a	n/a	n/a	n/a	n/a	n/a
880.608	n/a	WORD	440304	wordpools/wasnorm_wordpool_less_exclusions.txt	LTP207	ltpFR	7	2	1	HIKER	708	n/a	n/a	1	n/a	0	0	0	0.57763671875	0.412841796875	1	upper	zerothre.ttf
883.62	n/a	START	441810	n/a	LTP207	ltpFR	7	n/a	n/a	n/a	n/a	n/a	n/a	n/a	n/a	n/a	n/a	n/a	n/a	n/a	n/a	n/a	n/a
884.446	n/a	PROB	442223	n/a	LTP207	ltpFR	7	n/a	n/a	n/a	n/a	n/a	n/a	n/a	12	2	7	3	n/a	n/a	n/a	n/a	n/a
886.704	n/a	PROB	443352	n/a	LTP207	ltpFR	7	n/a	n/a	n/a	n/a	n/a	n/a	n/a	21	6	7	8	n/a	n/a	n/a	n/a	n/a
891.62	n/a	STOP	445810	n/a	LTP207	ltpFR	7	n/a	n/a	n/a	n/a	n/a	n/a	n/a	n/a	n/a	n/a	n/a	n/a	n/a	n/a	n/a	n/a
892.526	n/a	WORD	446263	wordpools/wasnorm_wordpool_less_exclusions.txt	LTP207	ltpFR	7	2	1	CAVE	263	n/a	n/a	0	n/a	0	0	0	0.57763671875	0.412841796875	1	upper	zerothre.ttf
895.538	n/a	START	447769	n/a	LTP207	ltpFR	7	n/a	n/a	n/a	n/a	n/a	n/a	n/a	n/a	n/a	n/a	n/a	n/a	n/a	n/a	n/a	n/a
896.558	n/a	PROB	448279	n/a	LTP207	ltpFR	7	n/a	n/a	n/a	n/a	n/a	n/a	n/a	14	6	3	5	n/a	n/a	n/a	n/a	n/a
899.498	n/a	PROB	449749	n/a	LTP207	ltpFR	7	n/a	n/a	n/a	n/a	n/a	n/a	n/a	16	6	3	7	n/a	n/a	n/a	n/a	n/a
902.918	n/a	STOP	451459	n/a	LTP207	ltpFR	7	n/a	n/a	n/a	n/a	n/a	n/a	n/a	n/a	n/a	n/a	n/a	n/a	n/a	n/a	n/a	n/a
904.756	n/a	WORD	452378	wordpools/wasnorm_wordpool_less_exclusions.txt	LTP207	ltpFR	7	2	1	DOLLAR	482	n/a	n/a	0	n/a	0	0	0	0.57763671875	0.412841796875	1	upper	zerothre.ttf
907.768	n/a	START	453884	n/a	LTP207	ltpFR	7	n/a	n/a	n/a	n/a	n/a	n/a	n/a	n/a	n/a	n/a	n/a	n/a	n/a	n/a	n/a	n/a
908.632	n/a	PROB	454316	n/a	LTP207	ltpFR	7	n/a	n/a	n/a	n/a	n/a	n/a	n/a	18	3	9	6	n/a	n/a	n/a	n/a	n/a
911.482	n/a	PROB	455741	n/a	LTP207	ltpFR	7	n/a	n/a	n/a	n/a	n/a	n/a	n/a	15	2	9	4	n/a	n/a	n/a	n/a	n/a
915.478	n/a	STOP	457739	n/a	LTP207	ltpFR	7	n/a	n/a	n/a	n/a	n/a	n/a	n/a	n/a	n/a	n/a	n/a	n/a	n/a	n/a	n/a	n/a
916.83	n/a	WORD	458415	wordpools/wasnorm_wordpool_less_exclusions.txt	LTP207	ltpFR	7	2	1	COYOTE	396	n/a	n/a	1	n/a	0	0	0	0.57763671875	0.412841796875	1	upper	zerothre.ttf
919.842	n/a	START	459921	n/a	LTP207	ltpFR	7	n/a	n/a	n/a	n/a	n/a	n/a	n/a	n/a	n/a	n/a	n/a	n/a	n/a	n/a	n/a	n/a
921.004	n/a	PROB	460502	n/a	LTP207	ltpFR	7	n/a	n/a	n/a	n/a	n/a	n/a	n/a	19	8	6	5	n/a	n/a	n/a	n/a	n/a
923.756	n/a	PROB	461878	n/a	LTP207	ltpFR	7	n/a	n/a	n/a	n/a	n/a	n/a	n/a	22	8	9	5	n/a	n/a	n/a	n/a	n/a
927.448	n/a	STOP	463724	n/a	LTP207	ltpFR	7	n/a	n/a	n/a	n/a	n/a	n/a	n/a	n/a	n/a	n/a	n/a	n/a	n/a	n/a	n/a	n/a
928.91	n/a	WORD	464455	wordpools/wasnorm_wordpool_less_exclusions.txt	LTP207	ltpFR	7	2	1	MAILMAN	858	n/a	n/a	1	n/a	0	0	0	0.57763671875	0.412841796875	1	upper	zerothre.ttf
931.922	n/a	START	465961	n/a	LTP207	ltpFR	7	n/a	n/a	n/a	n/a	n/a	n/a	n/a	n/a	n/a	n/a	n/a	n/a	n/a	n/a	n/a	n/a
932.79	n/a	PROB	466395	n/a	LTP207	ltpFR	7	n/a	n/a	n/a	n/a	n/a	n/a	n/a	11	6	4	1	n/a	n/a	n/a	n/a	n/a
934.464	n/a	PROB	467232	n/a	LTP207	ltpFR	7	n/a	n/a	n/a	n/a	n/a	n/a	n/a	17	4	9	4	n/a	n/a	n/a	n/a	n/a
938.632	n/a	STOP	469316	n/a	LTP207	ltpFR	7	n/a	n/a	n/a	n/a	n/a	n/a	n/a	n/a	n/a	n/a	n/a	n/a	n/a	n/a	n/a	n/a
941.146	n/a	WORD	470573	wordpools/wasnorm_wordpool_less_exclusions.txt	LTP207	ltpFR	7	2	1	HOOD	714	n/a	n/a	0	n/a	0	0	0	0.57763671875	0.412841796875	1	upper	zerothre.ttf
944.158	n/a	START	472079	n/a	LTP207	ltpFR	7	n/a	n/a	n/a	n/a	n/a	n/a	n/a	n/a	n/a	n/a	n/a	n/a	n/a	n/a	n/a	n/a
945.34	n/a	PROB	472670	n/a	LTP207	ltpFR	7	n/a	n/a	n/a	n/a	n/a	n/a	n/a	17	3	8	6	n/a	n/a	n/a	n/a	n/a
950.736	n/a	STOP	475368	n/a	LTP207	ltpFR	7	n/a	n/a	n/a	n/a	n/a	n/a	n/a	n/a	n/a	n/a	n/a	n/a	n/a	n/a	n/a	n/a
953.252	n/a	WORD	476626	wordpools/wasnorm_wordpool_less_exclusions.txt	LTP207	ltpFR	7	2	1	ROOF	1205	n/a	n/a	0	n/a	0	0	0	0.57763671875	0.412841796875	1	upper	zerothre.ttf
956.272	n/a	START	478136	n/a	LTP207	ltpFR	7	n/a	n/a	n/a	n/a	n/a	n/a	n/a	n/a	n/a	n/a	n/a	n/a	n/a	n/a	n/a	n/a
957.092	n/a	PROB	478546	n/a	LTP207	ltpFR	7	n/a	n/a	n/a	n/a	n/a	n/a	n/a	14	7	1	6	n/a	n/a	n/a	n/a	n/a
959.444	n/a	PROB	479722	n/a	LTP207	ltpFR	7	n/a	n/a	n/a	n/a	n/a	n/a	n/a	14	4	2	8	n/a	n/a	n/a	n/a	n/a
962.288	n/a	PROB	481144	n/a	LTP207	ltpFR	7	n/a	n/a	n/a	n/a	n/a	n/a	n/a	15	4	8	3	n/a	n/a	n/a	n/a	n/a
964.034	n/a	STOP	482017	n/a	LTP207	ltpFR	7	n/a	n/a	n/a	n/a	n/a	n/a	n/a	n/a	n/a	n/a	n/a	n/a	n/a	n/a	n/a	n/a
965.456	n/a	WORD	482728	wordpools/wasnorm_wordpool_less_exclusions.txt	LTP207	ltpFR	7	2	1	DENIM	446	n/a	n/a	0	n/a	0	0	0	0.57763671875	0.412841796875	1	upper	zerothre.ttf
968.468	n/a	START	484234	n/a	LTP207	ltpFR	7	n/a	n/a	n/a	n/a	n/a	n/a	n/a	n/a	n/a	n/a	n/a	n/a	n/a	n/a	n/a	n/a
969.614	n/a	PROB	484807	n/a	LTP207	ltpFR	7	n/a	n/a	n/a	n/a	n/a	n/a	n/a	18	8	3	7	n/a	n/a	n/a	n/a	n/a
971.762	n/a	PROB	485881	n/a	LTP207	ltpFR	7	n/a	n/a	n/a	n/a	n/a	n/a	n/a	14	5	2	7	n/a	n/a	n/a	n/a	n/a
976.468	n/a	STOP	488234	n/a	LTP207	ltpFR	7	n/a	n/a	n/a	n/a	n/a	n/a	n/a	n/a	n/a	n/a	n/a	n/a	n/a	n/a	n/a	n/a
977.468	n/a	WORD	488734	wordpools/wasnorm_wordpool_less_exclusions.txt	LTP207	ltpFR	7	2	1	SLACKS	1323	n/a	n/a	0	n/a	0	0	0	0.57763671875	0.412841796875	1	upper	zerothre.ttf
980.48	n/a	START	490240	n/a	LTP207	ltpFR	7	n/a	n/a	n/a	n/a	n/a	n/a	n/a	n/a	n/a	n/a	n/a	n/a	n/a	n/a	n/a	n/a
981.316	n/a	PROB	490658	n/a	LTP207	ltpFR	7	n/a	n/a	n/a	n/a	n/a	n/a	n/a	7	2	1	4	n/a	n/a	n/a	n/a	n/a
984.072	n/a	PROB	492036	n/a	LTP207	ltpFR	7	n/a	n/a	n/a	n/a	n/a	n/a	n/a	18	8	1	9	n/a	n/a	n/a	n/a	n/a
986.38	n/a	PROB	493190	n/a	LTP207	ltpFR	7	n/a	n/a	n/a	n/a	n/a	n/a	n/a	10	5	4	1	n/a	n/a	n/a	n/a	n/a
987.996	n/a	STOP	493998	n/a	LTP207	ltpFR	7	n/a	n/a	n/a	n/a	n/a	n/a	n/a	n/a	n/a	n/a	n/a	n/a	n/a	n/a	n/a	n/a
989.49	n/a	WORD	494745	wordpools/wasnorm_wordpool_less_exclusions.txt	LTP207	ltpFR	7	2	1	VALLEY	1545	n/a	n/a	0	n/a	0	0	0	0.57763671875	0.412841796875	1	upper	zerothre.ttf
992.504	n/a	START	496252	n/a	LTP207	ltpFR	7	n/a	n/a	n/a	n/a	n/a	n/a	n/a	n/a	n/a	n/a	n/a	n/a	n/a	n/a	n/a	n/a
993.44	n/a	PROB	496720	n/a	LTP207	ltpFR	7	n/a	n/a	n/a	n/a	n/a	n/a	n/a	17	7	7	3	n/a	n/a	n/a	n/a	n/a
995.582	n/a	PROB	497791	n/a	LTP207	ltpFR	7	n/a	n/a	n/a	n/a	n/a	n/a	n/a	21	9	3	9	n/a	n/a	n/a	n/a	n/a
1000.504	n/a	STOP	500252	n/a	LTP207	ltpFR	7	n/a	n/a	n/a	n/a	n/a	n/a	n/a	n/a	n/a	n/a	n/a	n/a	n/a	n/a	n/a	n/a
1001.42	n/a	WORD	500710	wordpools/wasnorm_wordpool_less_exclusions.txt	LTP207	ltpFR	7	2	1	WAITER	1580	n/a	n/a	1	n/a	0	0	0	0.57763671875	0.412841796875	1	upper	zerothre.ttf
1004.438	n/a	START	502219	n/a	LTP207	ltpFR	7	n/a	n/a	n/a	n/a	n/a	n/a	n/a	n/a	n/a	n/a	n/a	n/a	n/a	n/a	n/a	n/a
1005.408	n/a	PROB	502704	n/a	LTP207	ltpFR	7	n/a	n/a	n/a	n/a	n/a	n/a	n/a	10	1	5	4	n/a	n/a	n/a	n/a	n/a
1007.276	n/a	PROB	503638	n/a	LTP207	ltpFR	7	n/a	n/a	n/a	n/a	n/a	n/a	n/a	22	8	5	8	n/a	n/a	n/a	n/a	n/a
1011.572	n/a	STOP	505786	n/a	LTP207	ltpFR	7	n/a	n/a	n/a	n/a	n/a	n/a	n/a	n/a	n/a	n/a	n/a	n/a	n/a	n/a	n/a	n/a
1013.272	n/a	WORD	506636	wordpools/wasnorm_wordpool_less_exclusions.txt	LTP207	ltpFR	7	2	1	MEAL	882	n/a	n/a	0	n/a	0	0	0	0.57763671875	0.412841796875	1	upper	zerothre.ttf
1016.284	n/a	START	508142	n/a	LTP207	ltpFR	7	n/a	n/a	n/a	n/a	n/a	n/a	n/a	n/a	n/a	n/a	n/a	n/a	n/a	n/a	n/a	n/a
1017.198	n/a	PROB	508599	n/a	LTP207	ltpFR	7	n/a	n/a	n/a	n/a	n/a	n/a	n/a	14	6	4	4	n/a	n/a	n/a	n/a	n/a
1019.004	n/a	PROB	509502	n/a	LTP207	ltpFR	7	n/a	n/a	n/a	n/a	n/a	n/a	n/a	21	8	5	8	n/a	n/a	n/a	n/a	n/a
1024.284	n/a	STOP	512142	n/a	LTP207	ltpFR	7	n/a	n/a	n/a	n/a	n/a	n/a	n/a	n/a	n/a	n/a	n/a	n/a	n/a	n/a	n/a	n/a
1025.16	n/a	WORD	512580	wordpools/wasnorm_wordpool_less_exclusions.txt	LTP207	ltpFR	7	2	1	FIN	566	n/a	n/a	0	n/a	0	0	0	0.57763671875	0.412841796875	1	upper	zerothre.ttf
1028.172	n/a	START	514086	n/a	LTP207	ltpFR	7	n/a	n/a	n/a	n/a	n/a	n/a	n/a	n/a	n/a	n/a	n/a	n/a	n/a	n/a	n/a	n/a
1029.01	n/a	PROB	514505	n/a	LTP207	ltpFR	7	n/a	n/a	n/a	n/a	n/a	n/a	n/a	10	2	5	3	n/a	n/a	n/a	n/a	n/a
1031.29	n/a	PROB	515645	n/a	LTP207	ltpFR	7	n/a	n/a	n/a	n/a	n/a	n/a	n/a	16	3	9	4	n/a	n/a	n/a	n/a	n/a
1034.134	n/a	PROB	517067	n/a	LTP207	ltpFR	7	n/a	n/a	n/a	n/a	n/a	n/a	n/a	20	8	9	3	n/a	n/a	n/a	n/a	n/a
1035.958	n/a	STOP	517979	n/a	LTP207	ltpFR	7	n/a	n/a	n/a	n/a	n/a	n/a	n/a	n/a	n/a	n/a	n/a	n/a	n/a	n/a	n/a	n/a
1037.264	n/a	WORD	518632	wordpools/wasnorm_wordpool_less_exclusions.txt	LTP207	ltpFR	7	2	1	KEEPER	769	n/a	n/a	1	n/a	0	0	0	0.57763671875	0.412841796875	1	upper	zerothre.ttf
1040.276	n/a	START	520138	n/a	LTP207	ltpFR	7	n/a	n/a	n/a	n/a	n/a	n/a	n/a	n/a	n/a	n/a	n/a	n/a	n/a	n/a	n/a	n/a
1041.278	n/a	PROB	520639	n/a	LTP207	ltpFR	7	n/a	n/a	n/a	n/a	n/a	n/a	n/a	15	1	7	7	n/a	n/a	n/a	n/a	n/a
1043.404	n/a	PROB	521702	n/a	LTP207	ltpFR	7	n/a	n/a	n/a	n/a	n/a	n/a	n/a	13	6	1	6	n/a	n/a	n/a	n/a	n/a
1045.176	n/a	PROB	522588	n/a	LTP207	ltpFR	7	n/a	n/a	n/a	n/a	n/a	n/a	n/a	21	7	5	9	n/a	n/a	n/a	n/a	n/a
1047.518	n/a	STOP	523759	n/a	LTP207	ltpFR	7	n/a	n/a	n/a	n/a	n/a	n/a	n/a	n/a	n/a	n/a	n/a	n/a	n/a	n/a	n/a	n/a
1049.444	n/a	WORD	524722	wordpools/wasnorm_wordpool_less_exclusions.txt	LTP207	ltpFR	7	2	1	AUTOMOBILE	62	n/a	n/a	0	n/a	0	0	0	0.57763671875	0.412841796875	1	upper	zerothre.ttf
1052.456	n/a	START	526228	n/a	LTP207	ltpFR	7	n/a	n/a	n/a	n/a	n/a	n/a	n/a	n/a	n/a	n/a	n/a	n/a	n/a	n/a	n/a	n/a
1053.486	n/a	PROB	526743	n/a	LTP207	ltpFR	7	n/a	n/a	n/a	n/a	n/a	n/a	n/a	7	2	4	1	n/a	n/a	n/a	n/a	n/a
1055.986	n/a	PROB	527993	n/a	LTP207	ltpFR	7	n/a	n/a	n/a	n/a	n/a	n/a	n/a	19	9	7	3	n/a	n/a	n/a	n/a	n/a
1060.456	n/a	STOP	530228	n/a	LTP207	ltpFR	7	n/a	n/a	n/a	n/a	n/a	n/a	n/a	n/a	n/a	n/a	n/a	n/a	n/a	n/a	n/a	n/a
1061.522	n/a	WORD	530761	wordpools/wasnorm_wordpool_less_exclusions.txt	LTP207	ltpFR	7	2	1	REGISTER	1180	n/a	n/a	0	n/a	0	0	0	0.57763671875	0.412841796875	1	upper	zerothre.ttf
1064.534	n/a	START	532267	n/a	LTP207	ltpFR	7	n/a	n/a	n/a	n/a	n/a	n/a	n/a	n/a	n/a	n/a	n/a	n/a	n/a	n/a	n/a	n/a
1065.532	n/a	PROB	532766	n/a	LTP207	ltpFR	7	n/a	n/a	n/a	n/a	n/a	n/a	n/a	14	1	7	6	n/a	n/a	n/a	n/a	n/a
1072.534	n/a	STOP	536267	n/a	LTP207	ltpFR	7	n/a	n/a	n/a	n/a	n/a	n/a	n/a	n/a	n/a	n/a	n/a	n/a	n/a	n/a	n/a	n/a
1074.472	n/a	REC_START	537236	n/a	LTP207	ltpFR	7	2	n/a	n/a	n/a	n/a	n/a	n/a	n/a	0	0	0	n/a	n/a	n/a	n/a	n/a
1076.06	n/a	REC_WORD	538030	wordpools/wasnorm_wordpool_less_exclusions.txt	LTP207	ltpFR	7	2	1	HIKER	708	n/a	n/a	1	n/a	0	0	0	n/a	n/a	n/a	n/a	n/a
1089.844	n/a	REC_WORD	544922	wordpools/wasnorm_wordpool_less_exclusions.txt	LTP207	ltpFR	7	2	1	ROOF	1205	n/a	n/a	0	n/a	0	0	0	n/a	n/a	n/a	n/a	n/a
1093.188	n/a	REC_WORD	546594	wordpools/wasnorm_wordpool_less_exclusions.txt	LTP207	ltpFR	7	2	1	KEEPER	769	n/a	n/a	1	n/a	0	0	0	n/a	n/a	n/a	n/a	n/a
1098.434	n/a	REC_WORD	549217	wordpools/wasnorm_wordpool_less_exclusions.txt	LTP207	ltpFR	7	2	1	HOOD	714	n/a	n/a	0	n/a	0	0	0	n/a	n/a	n/a	n/a	n/a
1102.604	n/a	REC_WORD	551302	wordpools/wasnorm_wordpool_less_exclusions.txt	LTP207	ltpFR	7	2	1	VALLEY	1545	n/a	n/a	0	n/a	0	0	0	n/a	n/a	n/a	n/a	n/a
1156.78	n/a	WORD	578390	wordpools/wasnorm_wordpool_less_exclusions.txt	LTP207	ltpFR	7	3	1	LABYRINTH	791	n/a	n/a	0	n/a	0	0	0	0.57763671875	0.412841796875	1	upper	zerothre.ttf
1160.852	n/a	WORD	580426	wordpools/wasnorm_wordpool_less_exclusions.txt	LTP207	ltpFR	7	3	1	DIVER	476	n/a	n/a	1	n/a	0	0	0	0.57763671875	0.412841796875	1	upper	zerothre.ttf
1164.852	n/a	WORD	582426	wordpools/wasnorm_wordpool_less_exclusions.txt	LTP207	ltpFR	7	3	1	BRANDY	169	n/a	n/a	0	n/a	0	0	0	0.57763671875	0.412841796875	1	upper	zerothre.ttf
1168.826	n/a	WORD	584413	wordpools/wasnorm_wordpool_less_exclusions.txt	LTP207	ltpFR	7	3	1	CONTINENT	367	n/a	n/a	0	n/a	0	0	0	0.57763671875	0.412841796875	1	upper	zerothre.ttf
1172.814	n/a	WORD	586407	wordpools/wasnorm_wordpool_less_exclusions.txt	LTP207	ltpFR	7	3	1	PLATE	1086	n/a	n/a	0	n/a	0	0	0	0.57763671875	0.412841796875	1	upper	zerothre.ttf
1176.746	n/a	WORD	588373	wordpools/wasnorm_wordpool_less_exclusions.txt	LTP207	ltpFR	7	3	1	SUPERMARKET	1409	n/a	n/a	0	n/a	0	0	0	0.57763671875	0.412841796875	1	upper	zerothre.ttf
1180.594	n/a	WORD	590297	wordpools/wasnorm_wordpool_less_exclusions.txt	LTP207	ltpFR	7	3	1	CAT	257	n/a	n/a	1	n/a	0	0	0	0.57763671875	0.412841796875	1	upper	zerothre.ttf
1184.46	n/a	WORD	592230	wordpools/wasnorm_wordpool_less_exclusions.txt	LTP207	ltpFR	7	3	1	PRAIRIE	1118	n/a	n/a	0	n/a	0	0	0	0.57763671875	0.412841796875	1	upper	zerothre.ttf
1188.39	n/a	WORD	594195	wordpools/wasnorm_wordpool_less_exclusions.txt	LTP207	ltpFR	7	3	1	WALNUT	1584	n/a	n/a	0	n/a	0	0	0	0.57763671875	0.412841796875	1	upper	zerothre.ttf
1192.216	n/a	WORD	596108	wordpools/wasnorm_wordpool_less_exclusions.txt	LTP207	ltpFR	7	3	1	MAGICIAN	854	n/a	n/a	1	n/a	0	0	0	0.57763671875	0.412841796875	1	upper	zerothre.ttf
1196.17	n/a	WORD	598085	wordpools/wasnorm_wordpool_less_exclusions.txt	LTP207	ltpFR	7	3	1	GRILL	661	n/a	n/a	0	n/a	0	0	0	0.57763671875	0.412841796875	1	upper	zerothre.ttf
1200.27	n/a	WORD	600135	wordpools/wasnorm_wordpool_less_exclusions.txt	LTP207	ltpFR	7	3	1	RECEPTIONIST	1174	n/a	n/a	1	n/a	0	0	0	0.57763671875	0.412841796875	1	upper	zerothre.ttf
1204.296	n/a	WORD	602148	wordpools/wasnorm_wordpool_less_exclusions.txt	LTP207	ltpFR	7	3	1	CRITIC	410	n/a	n/a	1	n/a	0	0	0	0.57763671875	0.412841796875	1	upper	zerothre.ttf
1208.15	n/a	WORD	604075	wordpools/wasnorm_wordpool_less_exclusions.txt	LTP207	ltpFR	7	3	1	CELLO	268	n/a	n/a	0	n/a	0	0	0	0.57763671875	0.412841796875	1	upper	zerothre.ttf
1212.192	n/a	WORD	606096	wordpools/wasnorm_wordpool_less_exclusions.txt	LTP207	ltpFR	7	3	1	FIDDLE	561	n/a	n/a	0	n/a	0	0	0	0.57763671875	0.412841796875	1	upper	zerothre.ttf
1216.414	n/a	WORD	608207	wordpools/wasnorm_wordpool_less_exclusions.txt	LTP207	ltpFR	7	3	1	POOL	1103	n/a	n/a	0	n/a	0	0	0	0.57763671875	0.412841796875	1	upper	zerothre.ttf
1219.426	n/a	START	609713	n/a	LTP207	ltpFR	7	n/a	n/a	n/a	n/a	n/a	n/a	n/a	n/a	n/a	n/a	n/a	n/a	n/a	n/a	n/a	n/a
1220.396	n/a	PROB	610198	n/a	LTP207	ltpFR	7	n/a	n/a	n/a	n/a	n/a	n/a	n/a	23	9	6	8	n/a	n/a	n/a	n/a	n/a
1227.426	n/a	STOP	613713	n/a	LTP207	ltpFR	7	n/a	n/a	n/a	n/a	n/a	n/a	n/a	n/a	n/a	n/a	n/a	n/a	n/a	n/a	n/a	n/a
1229.342	n/a	REC_START	614671	n/a	LTP207	ltpFR	7	3	n/a	n/a	n/a	n/a	n/a	n/a	n/a	0	0	0	n/a	n/a	n/a	n/a	n/a
1231.122	n/a	REC_WORD	615561	wordpools/wasnorm_wordpool_less_exclusions.txt	LTP207	ltpFR	7	3	1	PRAIRIE	1118	n/a	n/a	0	n/a	0	0	0	n/a	n/a	n/a	n/a	n/a
1233.4	n/a	REC_WORD	616700	wordpools/wasnorm_wordpool_less_exclusions.txt	LTP207	ltpFR	7	3	1	GRILL	661	n/a	n/a	0	n/a	0	0	0	n/a	n/a	n/a	n/a	n/a
1234.714	n/a	REC_WORD	617357	wordpools/wasnorm_wordpool_less_exclusions.txt	LTP207	ltpFR	7	3	1	FIDDLE	561	n/a	n/a	0	n/a	0	0	0	n/a	n/a	n/a	n/a	n/a
1236.198	n/a	REC_WORD	618099	wordpools/wasnorm_wordpool_less_exclusions.txt	LTP207	ltpFR	7	3	1	CELLO	268	n/a	n/a	0	n/a	0	0	0	n/a	n/a	n/a	n/a	n/a
1239.848	n/a	REC_WORD	619924	wordpools/wasnorm_wordpool_less_exclusions.txt	LTP207	ltpFR	7	3	1	DIVER	476	n/a	n/a	1	n/a	0	0	0	n/a	n/a	n/a	n/a	n/a
1241.52	n/a	REC_WORD	620760	wordpools/wasnorm_wordpool_less_exclusions.txt	LTP207	ltpFR	7	3	1	BRANDY	169	n/a	n/a	0	n/a	0	0	0	n/a	n/a	n/a	n/a	n/a
1242.638	n/a	REC_WORD	621319	wordpools/wasnorm_wordpool_less_exclusions.txt	LTP207	ltpFR	7	3	1	PLATE	1086	n/a	n/a	0	n/a	0	0	0	n/a	n/a	n/a	n/a	n/a
1244.732	n/a	REC_WORD	622366	wordpools/wasnorm_wordpool_less_exclusions.txt	LTP207	ltpFR	7	3	1	SUPERMARKET	1409	n/a	n/a	0	n/a	0	0	0	n/a	n/a	n/a	n/a	n/a
1247.936	n/a	REC_WORD	623968	wordpools/wasnorm_wordpool_less_exclusions.txt	LTP207	ltpFR	7	3	1	MAGICIAN	854	n/a	n/a	1	n/a	0	0	0	n/a	n/a	n/a	n/a	n/a
1257.484	n/a	REC_WORD	628742	wordpools/wasnorm_wordpool_less_exclusions.txt	LTP207	ltpFR	7	3	1	RECEPTIONIST	1174	n/a	n/a	1	n/a	0	0	0	n/a	n/a	n/a	n/a	n/a
1258.656	n/a	REC_WORD	629328	wordpools/wasnorm_wordpool_less_exclusions.txt	LTP207	ltpFR	7	3	1	CRITIC	410	n/a	n/a	1	n/a	0	0	0	n/a	n/a	n/a	n/a	n/a
1311.846	n/a	WORD	655923	wordpools/wasnorm_wordpool_less_exclusions.txt	LTP207	ltpFR	7	4	0	STREET	1393	n/a	n/a	1	n/a	0	0	0	0.422607421875	0.5869140625	0	lower	amplitud.ttf
1315.838	n/a	WORD	657919	wordpools/wasnorm_wordpool_less_exclusions.txt	LTP207	ltpFR	7	4	0	BONE	148	n/a	n/a	0	n/a	0	0	0	0.422607421875	0.5869140625	0	lower	amplitud.ttf
1320.012	n/a	WORD	660006	wordpools/wasnorm_wordpool_less_exclusions.txt	LTP207	ltpFR	7	4	0	PATROL	1027	n/a	n/a	1	n/a	0	0	0	0.422607421875	0.5869140625	0	lower	amplitud.ttf
1324.204	n/a	WORD	662102	wordpools/wasnorm_wordpool_less_exclusions.txt	LTP207	ltpFR	7	4	0	TRUCK	1512	n/a	n/a	1	n/a	0	0	0	0.422607421875	0.5869140625	0	lower	amplitud.ttf
1328.342	n/a	WORD	664171	wordpools/wasnorm_wordpool_less_exclusions.txt	LTP207	ltpFR	7	4	0	PATH	1023	n/a	n/a	1	n/a	0	0	0	0.422607421875	0.5869140625	0	lower	amplitud.ttf
1332.308	n/a	WORD	666154	wordpools/wasnorm_wordpool_less_exclusions.txt	LTP207	ltpFR	7	4	0	PAW	1029	n/a	n/a	0	n/a	0	0	0	0.422607421875	0.5869140625	0	lower	amplitud.ttf
1336.518	n/a	WORD	668259	wordpools/wasnorm_wordpool_less_exclusions.txt	LTP207	ltpFR	7	4	0	PLUTO	1092	n/a	n/a	1	n/a	0	0	0	0.422607421875	0.5869140625	0	lower	amplitud.ttf
1340.65	n/a	WORD	670325	wordpools/wasnorm_wordpool_less_exclusions.txt	LTP207	ltpFR	7	4	0	CEREAL	272	n/a	n/a	0	n/a	0	0	0	0.422607421875	0.5869140625	0	lower	amplitud.ttf
1344.498	n/a	WORD	672249	wordpools/wasnorm_wordpool_less_exclusions.txt	LTP207	ltpFR	7	4	0	COLUMN	350	n/a	n/a	1	n/a	0	0	0	0.422607421875	0.5869140625	0	lower	amplitud.ttf
1348.586	n/a	WORD	674293	wordpools/wasnorm_wordpool_less_exclusions.txt	LTP207	ltpFR	7	4	0	EDITORIAL	517	n/a	n/a	0	n/a	0	0	0	0.422607421875	0.5869140625	0	lower	amplitud.ttf
1352.502	n/a	WORD	676251	wordpools/wasnorm_wordpool_less_exclusions.txt	LTP207	ltpFR	7	4	0	STRING	1394	n/a	n/a	0	n/a	0	0	0	0.422607421875	0.5869140625	0	lower	amplitud.ttf
1356.41	n/a	WORD	678205	wordpools/wasnorm_wordpool_less_exclusions.txt	LTP207	ltpFR	7	4	0	LOOP	844	n/a	n/a	0	n/a	0	0	0	0.422607421875	0.5869140625	0	lower	amplitud.ttf
1360.548	n/a	WORD	680274	wordpools/wasnorm_wordpool_less_exclusions.txt	LTP207	ltpFR	7	4	0	EXPERT	543	n/a	n/a	1	n/a	0	0	0	0.422607421875	0.5869140625	0	lower	amplitud.ttf
1364.446	n/a	WORD	682223	wordpools/wasnorm_wordpool_less_exclusions.txt	LTP207	ltpFR	7	4	0	BARLEY	88	n/a	n/a	1	n/a	0	0	0	0.422607421875	0.5869140625	0	lower	amplitud.ttf
1368.296	n/a	WORD	684148	wordpools/wasnorm_wordpool_less_exclusions.txt	LTP207	ltpFR	7	4	0	SPACE	1345	n/a	n/a	1	n/a	0	0	0	0.422607421875	0.5869140625	0	lower	amplitud.ttf
1372.26	n/a	WORD	686130	wordpools/wasnorm_wordpool_less_exclusions.txt	LTP207	ltpFR	7	4	0	DRIVEWAY	500	n/a	n/a	1	n/a	0	0	0	0.422607421875	0.5869140625	0	lower	amplitud.ttf
1375.272	n/a	START	687636	n/a	LTP207	ltpFR	7	n/a	n/a	n/a	n/a	n/a	n/a	n/a	n/a	n/a	n/a	n/a	n/a	n/a	n/a	n/a	n/a
1376.258	n/a	PROB	688129	n/a	LTP207	ltpFR	7	n/a	n/a	n/a	n/a	n/a	n/a	n/a	19	8	2	9	n/a	n/a	n/a	n/a	n/a
1380.2	n/a	PROB	690100	n/a	LTP207	ltpFR	7	n/a	n/a	n/a	n/a	n/a	n/a	n/a	22	3	8	9	n/a	n/a	n/a	n/a	n/a
1382.32	n/a	STOP	691160	n/a	LTP207	ltpFR	7	n/a	n/a	n/a	n/a	n/a	n/a	n/a	n/a	n/a	n/a	n/a	n/a	n/a	n/a	n/a	n/a
1385.17	n/a	REC_START	692585	n/a	LTP207	ltpFR	7	4	n/a	n/a	n/a	n/a	n/a	n/a	n/a	0	0	0	n/a	n/a	n/a	n/a	n/a
1387.428	n/a	REC_WORD	693714	wordpools/wasnorm_wordpool_less_exclusions.txt	LTP207	ltpFR	7	4	0	PLUTO	1092	n/a	n/a	1	n/a	0	0	0	n/a	n/a	n/a	n/a	n/a
1388.552	n/a	REC_WORD	694276	wordpools/wasnorm_wordpool_less_exclusions.txt	LTP207	ltpFR	7	4	0	SPACE	1345	n/a	n/a	1	n/a	0	0	0	n/a	n/a	n/a	n/a	n/a
1390.444	n/a	REC_WORD	695222	wordpools/wasnorm_wordpool_less_exclusions.txt	LTP207	ltpFR	7	4	0	STREET	1393	n/a	n/a	1	n/a	0	0	0	n/a	n/a	n/a	n/a	n/a
1391.846	n/a	REC_WORD	695923	wordpools/wasnorm_wordpool_less_exclusions.txt	LTP207	ltpFR	7	4	0	DRIVEWAY	500	n/a	n/a	1	n/a	0	0	0	n/a	n/a	n/a	n/a	n/a
1392.934	n/a	REC_WORD	696467	wordpools/wasnorm_wordpool_less_exclusions.txt	LTP207	ltpFR	7	4	0	PATH	1023	n/a	n/a	1	n/a	0	0	0	n/a	n/a	n/a	n/a	n/a
1394.89	n/a	REC_WORD	697445	wordpools/wasnorm_wordpool_less_exclusions.txt	LTP207	ltpFR	7	4	0	LOOP	844	n/a	n/a	0	n/a	0	0	0	n/a	n/a	n/a	n/a	n/a
1399.1	n/a	REC_WORD	699550	wordpools/wasnorm_wordpool_less_exclusions.txt	LTP207	ltpFR	7	4	0	EDITORIAL	517	n/a	n/a	0	n/a	0	0	0	n/a	n/a	n/a	n/a	n/a
1400.248	n/a	REC_WORD	700124	wordpools/wasnorm_wordpool_less_exclusions.txt	LTP207	ltpFR	7	4	0	COLUMN	350	n/a	n/a	1	n/a	0	0	0	n/a	n/a	n/a	n/a	n/a
1403.704	n/a	REC_WORD	701852	wordpools/wasnorm_wordpool_less_exclusions.txt	LTP207	ltpFR	7	4	0	BARLEY	88	n/a	n/a	1	n/a	0	0	0	n/a	n/a	n/a	n/a	n/a
1407.508	n/a	REC_WORD	703754	wordpools/wasnorm_wordpool_less_exclusions.txt	LTP207	ltpFR	7	4	0	PATROL	1027	n/a	n/a	1	n/a	0	0	0	n/a	n/a	n/a	n/a	n/a
1415.364	n/a	REC_WORD	707682	wordpools/wasnorm_wordpool_less_exclusions.txt	LTP207	ltpFR	7	4	0	CEREAL	272	n/a	n/a	0	n/a	0	0	0	n/a	n/a	n/a	n/a	n/a
1426.814	n/a	REC_WORD	713407	wordpools/wasnorm_wordpool_less_exclusions.txt	LTP207	ltpFR	7	4	0	BONE	148	n/a	n/a	0	n/a	0	0	0	n/a	n/a	n/a	n/a	n/a
1427.902	n/a	REC_WORD	713951	wordpools/wasnorm_wordpool_less_exclusions.txt	LTP207	ltpFR	7	4	0	PAW	1029	n/a	n/a	0	n/a	0	0	0	n/a	n/a	n/a	n/a	n/a
1515.408	n/a	START	757704	n/a	LTP207	ltpFR	7	n/a	n/a	n/a	n/a	n/a	n/a	n/a	n/a	n/a	n/a	n/a	n/a	n/a	n/a	n/a	n/a
1516.924	n/a	PROB	758462	n/a	LTP207	ltpFR	7	n/a	n/a	n/a	n/a	n/a	n/a	n/a	18	6	5	7	n/a	n/a	n/a	n/a	n/a
1519.784	n/a	PROB	759892	n/a	LTP207	ltpFR	7	n/a	n/a	n/a	n/a	n/a	n/a	n/a	18	8	6	4	n/a	n/a	n/a	n/a	n/a
1521.39	n/a	PROB	760695	n/a	LTP207	ltpFR	7	n/a	n/a	n/a	n/a	n/a	n/a	n/a	21	3	9	9	n/a	n/a	n/a	n/a	n/a
1524.068	n/a	PROB	762034	n/a	LTP207	ltpFR	7	n/a	n/a	n/a	n/a	n/a	n/a	n/a	19	9	9	1	n/a	n/a	n/a	n/a	n/a
1527.63	n/a	PROB	763815	n/a	LTP207	ltpFR	7	n/a	n/a	n/a	n/a	n/a	n/a	n/a	17	9	5	3	n/a	n/a	n/a	n/a	n/a
1529.968	n/a	STOP	764984	n/a	LTP207	ltpFR	7	n/a	n/a	n/a	n/a	n/a	n/a	n/a	n/a	n/a	n/a	n/a	n/a	n/a	n/a	n/a	n/a
1532.572	n/a	WORD	766286	wordpools/wasnorm_wordpool_less_exclusions.txt	LTP207	ltpFR	7	5	0	DIAL	457	n/a	n/a	0	n/a	0	0	0	0.422607421875	0.5869140625	0	lower	amplitud.ttf
1535.584	n/a	START	767792	n/a	LTP207	ltpFR	7	n/a	n/a	n/a	n/a	n/a	n/a	n/a	n/a	n/a	n/a	n/a	n/a	n/a	n/a	n/a	n/a
1536.788	n/a	PROB	768394	n/a	LTP207	ltpFR	7	n/a	n/a	n/a	n/a	n/a	n/a	n/a	16	9	4	3	n/a	n/a	n/a	n/a	n/a
1539.15	n/a	PROB	769575	n/a	LTP207	ltpFR	7	n/a	n/a	n/a	n/a	n/a	n/a	n/a	6	1	1	4	n/a	n/a	n/a	n/a	n/a
1541.15	n/a	PROB	770575	n/a	LTP207	ltpFR	7	n/a	n/a	n/a	n/a	n/a	n/a	n/a	17	8	5	4	n/a	n/a	n/a	n/a	n/a
1543.38	n/a	PROB	771690	n/a	LTP207	ltpFR	7	n/a	n/a	n/a	n/a	n/a	n/a	n/a	23	7	9	7	n/a	n/a	n/a	n/a	n/a
1551.584	n/a	STOP	775792	n/a	LTP207	ltpFR	7	n/a	n/a	n/a	n/a	n/a	n/a	n/a	n/a	n/a	n/a	n/a	n/a	n/a	n/a	n/a	n/a
1552.65	n/a	WORD	776325	wordpools/wasnorm_wordpool_less_exclusions.txt	LTP207	ltpFR	7	5	0	REEF	1177	n/a	n/a	0	n/a	0	0	0	0.422607421875	0.5869140625	0	lower	amplitud.ttf
1555.662	n/a	START	777831	n/a	LTP207	ltpFR	7	n/a	n/a	n/a	n/a	n/a	n/a	n/a	n/a	n/a	n/a	n/a	n/a	n/a	n/a	n/a	n/a
1556.866	n/a	PROB	778433	n/a	LTP207	ltpFR	7	n/a	n/a	n/a	n/a	n/a	n/a	n/a	19	7	3	9	n/a	n/a	n/a	n/a	n/a
1559.12	n/a	PROB	779560	n/a	LTP207	ltpFR	7	n/a	n/a	n/a	n/a	n/a	n/a	n/a	18	7	8	3	n/a	n/a	n/a	n/a	n/a
1561.478	n/a	PROB	780739	n/a	LTP207	ltpFR	7	n/a	n/a	n/a	n/a	n/a	n/a	n/a	18	6	5	7	n/a	n/a	n/a	n/a	n/a
1564.656	n/a	PROB	782328	n/a	LTP207	ltpFR	7	n/a	n/a	n/a	n/a	n/a	n/a	n/a	16	7	6	2	n/a	n/a	n/a	n/a	n/a
1567.674	n/a	PROB	783837	n/a	LTP207	ltpFR	7	n/a	n/a	n/a	n/a	n/a	n/a	n/a	9	3	4	2	n/a	n/a	n/a	n/a	n/a
1571.662	n/a	STOP	785831	n/a	LTP207	ltpFR	7	n/a	n/a	n/a	n/a	n/a	n/a	n/a	n/a	n/a	n/a	n/a	n/a	n/a	n/a	n/a	n/a
1572.542	n/a	WORD	786271	wordpools/wasnorm_wordpool_less_exclusions.txt	LTP207	ltpFR	7	5	0	TANK	1432	n/a	n/a	1	n/a	0	0	0	0.422607421875	0.5869140625	0	lower	amplitud.ttf
1575.554	n/a	START	787777	n/a	LTP207	ltpFR	7	n/a	n/a	n/a	n/a	n/a	n/a	n/a	n/a	n/a	n/a	n/a	n/a	n/a	n/a	n/a	n/a
1576.458	n/a	PROB	788229	n/a	LTP207	ltpFR	7	n/a	n/a	n/a	n/a	n/a	n/a	n/a	13	1	5	7	n/a	n/a	n/a	n/a	n/a
1578.582	n/a	PROB	789291	n/a	LTP207	ltpFR	7	n/a	n/a	n/a	n/a	n/a	n/a	n/a	20	9	3	8	n/a	n/a	n/a	n/a	n/a
1580.818	n/a	PROB	790409	n/a	LTP207	ltpFR	7	n/a	n/a	n/a	n/a	n/a	n/a	n/a	26	9	8	9	n/a	n/a	n/a	n/a	n/a
1585.084	n/a	PROB	792542	n/a	LTP207	ltpFR	7	n/a	n/a	n/a	n/a	n/a	n/a	n/a	17	9	7	1	n/a	n/a	n/a	n/a	n/a
1588.218	n/a	PROB	794109	n/a	LTP207	ltpFR	7	n/a	n/a	n/a	n/a	n/a	n/a	n/a	13	1	6	6	n/a	n/a	n/a	n/a	n/a
1591.116	n/a	STOP	795558	n/a	LTP207	ltpFR	7	n/a	n/a	n/a	n/a	n/a	n/a	n/a	n/a	n/a	n/a	n/a	n/a	n/a	n/a	n/a	n/a
1592.696	n/a	WORD	796348	wordpools/wasnorm_wordpool_less_exclusions.txt	LTP207	ltpFR	7	5	0	SUBMARINE	1398	n/a	n/a	1	n/a	0	0	0	0.422607421875	0.5869140625	0	lower	amplitud.ttf
1595.708	n/a	START	797854	n/a	LTP207	ltpFR	7	n/a	n/a	n/a	n/a	n/a	n/a	n/a	n/a	n/a	n/a	n/a	n/a	n/a	n/a	n/a	n/a
1596.612	n/a	PROB	798306	n/a	LTP207	ltpFR	7	n/a	n/a	n/a	n/a	n/a	n/a	n/a	9	2	6	1	n/a	n/a	n/a	n/a	n/a
1598.692	n/a	PROB	799346	n/a	LTP207	ltpFR	7	n/a	n/a	n/a	n/a	n/a	n/a	n/a	13	7	4	2	n/a	n/a	n/a	n/a	n/a
1608.172	n/a	PROB	804086	n/a	LTP207	ltpFR	7	n/a	n/a	n/a	n/a	n/a	n/a	n/a	11	1	6	4	n/a	n/a	n/a	n/a	n/a
1610.158	n/a	STOP	805079	n/a	LTP207	ltpFR	7	n/a	n/a	n/a	n/a	n/a	n/a	n/a	n/a	n/a	n/a	n/a	n/a	n/a	n/a	n/a	n/a
1612.74	n/a	WORD	806370	wordpools/wasnorm_wordpool_less_exclusions.txt	LTP207	ltpFR	7	5	0	UNIVERSE	1540	n/a	n/a	1	n/a	0	0	0	0.422607421875	0.5869140625	0	lower	amplitud.ttf
1615.758	n/a	START	807879	n/a	LTP207	ltpFR	7	n/a	n/a	n/a	n/a	n/a	n/a	n/a	n/a	n/a	n/a	n/a	n/a	n/a	n/a	n/a	n/a
1616.946	n/a	PROB	808473	n/a	LTP207	ltpFR	7	n/a	n/a	n/a	n/a	n/a	n/a	n/a	20	3	8	9	n/a	n/a	n/a	n/a	n/a
1631.76	n/a	STOP	815880	n/a	LTP207	ltpFR	7	n/a	n/a	n/a	n/a	n/a	n/a	n/a	n/a	n/a	n/a	n/a	n/a	n/a	n/a	n/a	n/a
1632.74	n/a	WORD	816370	wordpools/wasnorm_wordpool_less_exclusions.txt	LTP207	ltpFR	7	5	0	PLANET	1082	n/a	n/a	1	n/a	0	0	0	0.422607421875	0.5869140625	0	lower	amplitud.ttf
1635.752	n/a	START	817876	n/a	LTP207	ltpFR	7	n/a	n/a	n/a	n/a	n/a	n/a	n/a	n/a	n/a	n/a	n/a	n/a	n/a	n/a	n/a	n/a
1636.95	n/a	PROB	818475	n/a	LTP207	ltpFR	7	n/a	n/a	n/a	n/a	n/a	n/a	n/a	12	6	2	4	n/a	n/a	n/a	n/a	n/a
1641.198	n/a	PROB	820599	n/a	LTP207	ltpFR	7	n/a	n/a	n/a	n/a	n/a	n/a	n/a	13	4	5	4	n/a	n/a	n/a	n/a	n/a
1651.752	n/a	STOP	825876	n/a	LTP207	ltpFR	7	n/a	n/a	n/a	n/a	n/a	n/a	n/a	n/a	n/a	n/a	n/a	n/a	n/a	n/a	n/a	n/a
1652.648	n/a	WORD	826324	wordpools/wasnorm_wordpool_less_exclusions.txt	LTP207	ltpFR	7	5	0	WHEAT	1602	n/a	n/a	1	n/a	0	0	0	0.422607421875	0.5869140625	0	lower	amplitud.ttf
1655.66	n/a	START	827830	n/a	LTP207	ltpFR	7	n/a	n/a	n/a	n/a	n/a	n/a	n/a	n/a	n/a	n/a	n/a	n/a	n/a	n/a	n/a	n/a
1656.648	n/a	PROB	828324	n/a	LTP207	ltpFR	7	n/a	n/a	n/a	n/a	n/a	n/a	n/a	14	5	4	5	n/a	n/a	n/a	n/a	n/a
1659.854	n/a	PROB	829927	n/a	LTP207	ltpFR	7	n/a	n/a	n/a	n/a	n/a	n/a	n/a	16	7	3	6	n/a	n/a	n/a	n/a	n/a
1666.862	n/a	PROB	833431	n/a	LTP207	ltpFR	7	n/a	n/a	n/a	n/a	n/a	n/a	n/a	21	9	4	8	n/a	n/a	n/a	n/a	n/a
1671.662	n/a	STOP	835831	n/a	LTP207	ltpFR	7	n/a	n/a	n/a	n/a	n/a	n/a	n/a	n/a	n/a	n/a	n/a	n/a	n/a	n/a	n/a	n/a
1672.524	n/a	WORD	836262	wordpools/wasnorm_wordpool_less_exclusions.txt	LTP207	ltpFR	7	5	0	MUFFIN	929	n/a	n/a	0	n/a	0	0	0	0.422607421875	0.5869140625	0	lower	amplitud.ttf
1675.536	n/a	START	837768	n/a	LTP207	ltpFR	7	n/a	n/a	n/a	n/a	n/a	n/a	n/a	n/a	n/a	n/a	n/a	n/a	n/a	n/a	n/a	n/a
1676.416	n/a	PROB	838208	n/a	LTP207	ltpFR	7	n/a	n/a	n/a	n/a	n/a	n/a	n/a	8	1	4	3	n/a	n/a	n/a	n/a	n/a
1679.066	n/a	PROB	839533	n/a	LTP207	ltpFR	7	n/a	n/a	n/a	n/a	n/a	n/a	n/a	20	9	5	6	n/a	n/a	n/a	n/a	n/a
1682.012	n/a	PROB	841006	n/a	LTP207	ltpFR	7	n/a	n/a	n/a	n/a	n/a	n/a	n/a	21	6	9	6	n/a	n/a	n/a	n/a	n/a
1686.138	n/a	PROB	843069	n/a	LTP207	ltpFR	7	n/a	n/a	n/a	n/a	n/a	n/a	n/a	14	2	3	9	n/a	n/a	n/a	n/a	n/a
1688.512	n/a	PROB	844256	n/a	LTP207	ltpFR	7	n/a	n/a	n/a	n/a	n/a	n/a	n/a	9	3	3	3	n/a	n/a	n/a	n/a	n/a
1691.304	n/a	STOP	845652	n/a	LTP207	ltpFR	7	n/a	n/a	n/a	n/a	n/a	n/a	n/a	n/a	n/a	n/a	n/a	n/a	n/a	n/a	n/a	n/a
1692.4	n/a	WORD	846200	wordpools/wasnorm_wordpool_less_exclusions.txt	LTP207	ltpFR	7	5	0	OATS	968	n/a	n/a	0	n/a	0	0	0	0.422607421875	0.5869140625	0	lower	amplitud.ttf
1695.412	n/a	START	847706	n/a	LTP207	ltpFR	7	n/a	n/a	n/a	n/a	n/a	n/a	n/a	n/a	n/a	n/a	n/a	n/a	n/a	n/a	n/a	n/a
1696.258	n/a	PROB	848129	n/a	LTP207	ltpFR	7	n/a	n/a	n/a	n/a	n/a	n/a	n/a	12	5	1	6	n/a	n/a	n/a	n/a	n/a
1698.44	n/a	PROB	849220	n/a	LTP207	ltpFR	7	n/a	n/a	n/a	n/a	n/a	n/a	n/a	11	1	2	8	n/a	n/a	n/a	n/a	n/a
1700.598	n/a	PROB	850299	n/a	LTP207	ltpFR	7	n/a	n/a	n/a	n/a	n/a	n/a	n/a	9	6	1	2	n/a	n/a	n/a	n/a	n/a
1703.386	n/a	PROB	851693	n/a	LTP207	ltpFR	7	n/a	n/a	n/a	n/a	n/a	n/a	n/a	15	5	1	9	n/a	n/a	n/a	n/a	n/a
1705.784	n/a	PROB	852892	n/a	LTP207	ltpFR	7	n/a	n/a	n/a	n/a	n/a	n/a	n/a	16	4	5	7	n/a	n/a	n/a	n/a	n/a
1708.388	n/a	PROB	854194	n/a	LTP207	ltpFR	7	n/a	n/a	n/a	n/a	n/a	n/a	n/a	9	1	1	7	n/a	n/a	n/a	n/a	n/a
1710.058	n/a	STOP	855029	n/a	LTP207	ltpFR	7	n/a	n/a	n/a	n/a	n/a	n/a	n/a	n/a	n/a	n/a	n/a	n/a	n/a	n/a	n/a	n/a
1712.51	n/a	WORD	856255	wordpools/wasnorm_wordpool_less_exclusions.txt	LTP207	ltpFR	7	5	0	RANCH	1166	n/a	n/a	1	n/a	0	0	0	0.422607421875	0.5869140625	0	lower	amplitud.ttf
1715.522	n/a	START	857761	n/a	LTP207	ltpFR	7	n/a	n/a	n/a	n/a	n/a	n/a	n/a	n/a	n/a	n/a	n/a	n/a	n/a	n/a	n/a	n/a
1716.526	n/a	PROB	858263	n/a	LTP207	ltpFR	7	n/a	n/a	n/a	n/a	n/a	n/a	n/a	6	2	1	3	n/a	n/a	n/a	n/a	n/a
1719.164	n/a	PROB	859582	n/a	LTP207	ltpFR	7	n/a	n/a	n/a	n/a	n/a	n/a	n/a	13	9	2	1	n/a	n/a	n/a	n/a	n/a
1721.728	n/a	PROB	860864	n/a	LTP207	ltpFR	7	n/a	n/a	n/a	n/a	n/a	n/a	n/a	11	2	7	2	n/a	n/a	n/a	n/a	n/a
1724.516	n/a	PROB	862258	n/a	LTP207	ltpFR	7	n/a	n/a	n/a	n/a	n/a	n/a	n/a	220	5	6	9	n/a	n/a	n/a	n/a	n/a
1727.112	n/a	PROB	863556	n/a	LTP207	ltpFR	7	n/a	n/a	n/a	n/a	n/a	n/a	n/a	14	4	6	4	n/a	n/a	n/a	n/a	n/a
1730.972	n/a	STOP	865486	n/a	LTP207	ltpFR	7	n/a	n/a	n/a	n/a	n/a	n/a	n/a	n/a	n/a	n/a	n/a	n/a	n/a	n/a	n/a	n/a
1732.486	n/a	WORD	866243	wordpools/wasnorm_wordpool_less_exclusions.txt	LTP207	ltpFR	7	5	0	GLOBE	641	n/a	n/a	1	n/a	0	0	0	0.422607421875	0.5869140625	0	lower	amplitud.ttf
1735.498	n/a	START	867749	n/a	LTP207	ltpFR	7	n/a	n/a	n/a	n/a	n/a	n/a	n/a	n/a	n/a	n/a	n/a	n/a	n/a	n/a	n/a	n/a
1736.586	n/a	PROB	868293	n/a	LTP207	ltpFR	7	n/a	n/a	n/a	n/a	n/a	n/a	n/a	13	4	6	3	n/a	n/a	n/a	n/a	n/a
1739.246	n/a	PROB	869623	n/a	LTP207	ltpFR	7	n/a	n/a	n/a	n/a	n/a	n/a	n/a	16	6	7	3	n/a	n/a	n/a	n/a	n/a
1741.47	n/a	PROB	870735	n/a	LTP207	ltpFR	7	n/a	n/a	n/a	n/a	n/a	n/a	n/a	10	2	3	5	n/a	n/a	n/a	n/a	n/a
1743.982	n/a	PROB	871991	n/a	LTP207	ltpFR	7	n/a	n/a	n/a	n/a	n/a	n/a	n/a	18	4	5	9	n/a	n/a	n/a	n/a	n/a
1747.238	n/a	PROB	873619	n/a	LTP207	ltpFR	7	n/a	n/a	n/a	n/a	n/a	n/a	n/a	12	6	4	2	n/a	n/a	n/a	n/a	n/a
1751.5	n/a	STOP	875750	n/a	LTP207	ltpFR	7	n/a	n/a	n/a	n/a	n/a	n/a	n/a	n/a	n/a	n/a	n/a	n/a	n/a	n/a	n/a	n/a
1752.546	n/a	WORD	876273	wordpools/wasnorm_wordpool_less_exclusions.txt	LTP207	ltpFR	7	5	0	HAT	690	n/a	n/a	1	n/a	0	0	0	0.422607421875	0.5869140625	0	lower	amplitud.ttf
1755.558	n/a	START	877779	n/a	LTP207	ltpFR	7	n/a	n/a	n/a	n/a	n/a	n/a	n/a	n/a	n/a	n/a	n/a	n/a	n/a	n/a	n/a	n/a
1756.622	n/a	PROB	878311	n/a	LTP207	ltpFR	7	n/a	n/a	n/a	n/a	n/a	n/a	n/a	21	4	9	8	n/a	n/a	n/a	n/a	n/a
1758.914	n/a	PROB	879457	n/a	LTP207	ltpFR	7	n/a	n/a	n/a	n/a	n/a	n/a	n/a	18	3	9	6	n/a	n/a	n/a	n/a	n/a
1761.826	n/a	PROB	880913	n/a	LTP207	ltpFR	7	n/a	n/a	n/a	n/a	n/a	n/a	n/a	11	9	1	1	n/a	n/a	n/a	n/a	n/a
1764.486	n/a	PROB	882243	n/a	LTP207	ltpFR	7	n/a	n/a	n/a	n/a	n/a	n/a	n/a	19	7	3	9	n/a	n/a	n/a	n/a	n/a
1766.494	n/a	PROB	883247	n/a	LTP207	ltpFR	7	n/a	n/a	n/a	n/a	n/a	n/a	n/a	16	5	8	3	n/a	n/a	n/a	n/a	n/a
1770.022	n/a	STOP	885011	n/a	LTP207	ltpFR	7	n/a	n/a	n/a	n/a	n/a	n/a	n/a	n/a	n/a	n/a	n/a	n/a	n/a	n/a	n/a	n/a
1772.422	n/a	WORD	886211	wordpools/wasnorm_wordpool_less_exclusions.txt	LTP207	ltpFR	7	5	0	GROUND	666	n/a	n/a	1	n/a	0	0	0	0.422607421875	0.5869140625	0	lower	amplitud.ttf
1775.434	n/a	START	887717	n/a	LTP207	ltpFR	7	n/a	n/a	n/a	n/a	n/a	n/a	n/a	n/a	n/a	n/a	n/a	n/a	n/a	n/a	n/a	n/a
1776.404	n/a	PROB	888202	n/a	LTP207	ltpFR	7	n/a	n/a	n/a	n/a	n/a	n/a	n/a	22	8	8	7	n/a	n/a	n/a	n/a	n/a
1780.152	n/a	PROB	890076	n/a	LTP207	ltpFR	7	n/a	n/a	n/a	n/a	n/a	n/a	n/a	13	3	9	1	n/a	n/a	n/a	n/a	n/a
1782.672	n/a	PROB	891336	n/a	LTP207	ltpFR	7	n/a	n/a	n/a	n/a	n/a	n/a	n/a	16	5	7	4	n/a	n/a	n/a	n/a	n/a
1784.804	n/a	PROB	892402	n/a	LTP207	ltpFR	7	n/a	n/a	n/a	n/a	n/a	n/a	n/a	12	2	7	3	n/a	n/a	n/a	n/a	n/a
1787.174	n/a	PROB	893587	n/a	LTP207	ltpFR	7	n/a	n/a	n/a	n/a	n/a	n/a	n/a	14	9	1	4	n/a	n/a	n/a	n/a	n/a
1791.436	n/a	STOP	895718	n/a	LTP207	ltpFR	7	n/a	n/a	n/a	n/a	n/a	n/a	n/a	n/a	n/a	n/a	n/a	n/a	n/a	n/a	n/a	n/a
1792.366	n/a	WORD	896183	wordpools/wasnorm_wordpool_less_exclusions.txt	LTP207	ltpFR	7	5	0	DOCK	477	n/a	n/a	1	n/a	0	0	0	0.422607421875	0.5869140625	0	lower	amplitud.ttf
1795.378	n/a	START	897689	n/a	LTP207	ltpFR	7	n/a	n/a	n/a	n/a	n/a	n/a	n/a	n/a	n/a	n/a	n/a	n/a	n/a	n/a	n/a	n/a
1796.514	n/a	PROB	898257	n/a	LTP207	ltpFR	7	n/a	n/a	n/a	n/a	n/a	n/a	n/a	13	3	9	1	n/a	n/a	n/a	n/a	n/a
1799.036	n/a	PROB	899518	n/a	LTP207	ltpFR	7	n/a	n/a	n/a	n/a	n/a	n/a	n/a	22	9	7	6	n/a	n/a	n/a	n/a	n/a
1801.294	n/a	PROB	900647	n/a	LTP207	ltpFR	7	n/a	n/a	n/a	n/a	n/a	n/a	n/a	17	9	6	1	n/a	n/a	n/a	n/a	n/a
1803.904	n/a	PROB	901952	n/a	LTP207	ltpFR	7	n/a	n/a	n/a	n/a	n/a	n/a	n/a	14	4	5	5	n/a	n/a	n/a	n/a	n/a
1806.922	n/a	PROB	903461	n/a	LTP207	ltpFR	7	n/a	n/a	n/a	n/a	n/a	n/a	n/a	14	6	4	4	n/a	n/a	n/a	n/a	n/a
1811.378	n/a	STOP	905689	n/a	LTP207	ltpFR	7	n/a	n/a	n/a	n/a	n/a	n/a	n/a	n/a	n/a	n/a	n/a	n/a	n/a	n/a	n/a	n/a
1812.326	n/a	WORD	906163	wordpools/wasnorm_wordpool_less_exclusions.txt	LTP207	ltpFR	7	5	0	COLOGNE	347	n/a	n/a	0	n/a	0	0	0	0.422607421875	0.5869140625	0	lower	amplitud.ttf
1815.338	n/a	START	907669	n/a	LTP207	ltpFR	7	n/a	n/a	n/a	n/a	n/a	n/a	n/a	n/a	n/a	n/a	n/a	n/a	n/a	n/a	n/a	n/a
1816.284	n/a	PROB	908142	n/a	LTP207	ltpFR	7	n/a	n/a	n/a	n/a	n/a	n/a	n/a	15	5	8	2	n/a	n/a	n/a	n/a	n/a
1819.53	n/a	PROB	909765	n/a	LTP207	ltpFR	7	n/a	n/a	n/a	n/a	n/a	n/a	n/a	12	3	7	2	n/a	n/a	n/a	n/a	n/a
1821.17	n/a	PROB	910585	n/a	LTP207	ltpFR	7	n/a	n/a	n/a	n/a	n/a	n/a	n/a	26	9	8	9	n/a	n/a	n/a	n/a	n/a
1831.336	n/a	STOP	915668	n/a	LTP207	ltpFR	7	n/a	n/a	n/a	n/a	n/a	n/a	n/a	n/a	n/a	n/a	n/a	n/a	n/a	n/a	n/a	n/a
1832.452	n/a	WORD	916226	wordpools/wasnorm_wordpool_less_exclusions.txt	LTP207	ltpFR	7	5	0	RAIL	1161	n/a	n/a	0	n/a	0	0	0	0.422607421875	0.5869140625	0	lower	amplitud.ttf
1835.464	n/a	START	917732	n/a	LTP207	ltpFR	7	n/a	n/a	n/a	n/a	n/a	n/a	n/a	n/a	n/a	n/a	n/a	n/a	n/a	n/a	n/a	n/a
1836.568	n/a	PROB	918284	n/a	LTP207	ltpFR	7	n/a	n/a	n/a	n/a	n/a	n/a	n/a	17	6	5	6	n/a	n/a	n/a	n/a	n/a
1839.892	n/a	PROB	919946	n/a	LTP207	ltpFR	7	n/a	n/a	n/a	n/a	n/a	n/a	n/a	10	4	3	3	n/a	n/a	n/a	n/a	n/a
1842.552	n/a	PROB	921276	n/a	LTP207	ltpFR	7	n/a	n/a	n/a	n/a	n/a	n/a	n/a	15	5	2	8	n/a	n/a	n/a	n/a	n/a
1846.082	n/a	PROB	923041	n/a	LTP207	ltpFR	7	n/a	n/a	n/a	n/a	n/a	n/a	n/a	22	8	5	9	n/a	n/a	n/a	n/a	n/a
1848.858	n/a	PROB	924429	n/a	LTP207	ltpFR	7	n/a	n/a	n/a	n/a	n/a	n/a	n/a	22	4	9	9	n/a	n/a	n/a	n/a	n/a
1850.84	n/a	STOP	925420	n/a	LTP207	ltpFR	7	n/a	n/a	n/a	n/a	n/a	n/a	n/a	n/a	n/a	n/a	n/a	n/a	n/a	n/a	n/a	n/a
1853.26	n/a	REC_START	926630	n/a	LTP207	ltpFR	7	5	n/a	n/a	n/a	n/a	n/a	n/a	n/a	0	0	0	n/a	n/a	n/a	n/a	n/a
1855.3	n/a	REC_WORD	927650	wordpools/wasnorm_wordpool_less_exclusions.txt	LTP207	ltpFR	7	5	0	DOCK	477	n/a	n/a	1	n/a	0	0	0	n/a	n/a	n/a	n/a	n/a
1858.82	n/a	REC_WORD	929410	wordpools/wasnorm_wordpool_less_exclusions.txt	LTP207	ltpFR	7	5	0	UNIVERSE	1540	n/a	n/a	1	n/a	0	0	0	n/a	n/a	n/a	n/a	n/a
1859.816	n/a	REC_WORD_VV	929908	wordpools/wasnorm_wordpool_less_exclusions.txt	LTP207	ltpFR	7	5	n/a	<>	-1	n/a	n/a	n/a	n/a	0	0	0	n/a	n/a	n/a	n/a	n/a
1862.1	n/a	REC_WORD	931050	wordpools/wasnorm_wordpool_less_exclusions.txt	LTP207	ltpFR	7	5	0	COLOGNE	347	n/a	n/a	0	n/a	0	0	0	n/a	n/a	n/a	n/a	n/a
1885.348	n/a	REC_WORD	942674	wordpools/wasnorm_wordpool_less_exclusions.txt	LTP207	ltpFR	7	5	0	RAIL	1161	n/a	n/a	0	n/a	0	0	0	n/a	n/a	n/a	n/a	n/a
1977.322	n/a	WORD	988661	wordpools/wasnorm_wordpool_less_exclusions.txt	LTP207	ltpFR	7	6	0	VEGETABLE	1552	n/a	n/a	0	n/a	0	0	0	0.422607421875	0.5869140625	0	lower	amplitud.ttf
1981.516	n/a	WORD	990758	wordpools/wasnorm_wordpool_less_exclusions.txt	LTP207	ltpFR	7	6	0	MOUSE	925	n/a	n/a	0	n/a	0	0	0	0.422607421875	0.5869140625	0	lower	amplitud.ttf
1985.386	n/a	WORD	992693	wordpools/wasnorm_wordpool_less_exclusions.txt	LTP207	ltpFR	7	6	0	PEARL	1034	n/a	n/a	0	n/a	0	0	0	0.422607421875	0.5869140625	0	lower	amplitud.ttf
1989.486	n/a	WORD	994743	wordpools/wasnorm_wordpool_less_exclusions.txt	LTP207	ltpFR	7	6	0	SCALLOP	1242	n/a	n/a	0	n/a	0	0	0	0.422607421875	0.5869140625	0	lower	amplitud.ttf
1993.686	n/a	WORD	996843	wordpools/wasnorm_wordpool_less_exclusions.txt	LTP207	ltpFR	7	6	0	STEREO	1378	n/a	n/a	1	n/a	0	0	0	0.422607421875	0.5869140625	0	lower	amplitud.ttf
1997.65	n/a	WORD	998825	wordpools/wasnorm_wordpool_less_exclusions.txt	LTP207	ltpFR	7	6	0	WHISKERS	1605	n/a	n/a	0	n/a	0	0	0	0.422607421875	0.5869140625	0	lower	amplitud.ttf
2001.492	n/a	WORD	1000746	wordpools/wasnorm_wordpool_less_exclusions.txt	LTP207	ltpFR	7	6	0	DOUGH	489	n/a	n/a	0	n/a	0	0	0	0.422607421875	0.5869140625	0	lower	amplitud.ttf
2005.664	n/a	WORD	1002832	wordpools/wasnorm_wordpool_less_exclusions.txt	LTP207	ltpFR	7	6	0	DETECTIVE	454	n/a	n/a	1	n/a	0	0	0	0.422607421875	0.5869140625	0	lower	amplitud.ttf
2009.824	n/a	WORD	1004912	wordpools/wasnorm_wordpool_less_exclusions.txt	LTP207	ltpFR	7	6	0	TWIG	1527	n/a	n/a	0	n/a	0	0	0	0.422607421875	0.5869140625	0	lower	amplitud.ttf
2014.048	n/a	WORD	1007024	wordpools/wasnorm_wordpool_less_exclusions.txt	LTP207	ltpFR	7	6	0	GRADUATE	653	n/a	n/a	1	n/a	0	0	0	0.422607421875	0.5869140625	0	lower	amplitud.ttf
2018.18	n/a	WORD	1009090	wordpools/wasnorm_wordpool_less_exclusions.txt	LTP207	ltpFR	7	6	0	TABLE	1426	n/a	n/a	1	n/a	0	0	0	0.422607421875	0.5869140625	0	lower	amplitud.ttf
2022.188	n/a	WORD	1011094	wordpools/wasnorm_wordpool_less_exclusions.txt	LTP207	ltpFR	7	6	0	FURNITURE	616	n/a	n/a	1	n/a	0	0	0	0.422607421875	0.5869140625	0	lower	amplitud.ttf
2026.042	n/a	WORD	1013021	wordpools/wasnorm_wordpool_less_exclusions.txt	LTP207	ltpFR	7	6	0	PUPIL	1143	n/a	n/a	0	n/a	0	0	0	0.422607421875	0.5869140625	0	lower	amplitud.ttf
2030.236	n/a	WORD	1015118	wordpools/wasnorm_wordpool_less_exclusions.txt	LTP207	ltpFR	7	6	0	PIE	1062	n/a	n/a	1	n/a	0	0	0	0.422607421875	0.5869140625	0	lower	amplitud.ttf
2034.458	n/a	WORD	1017229	wordpools/wasnorm_wordpool_less_exclusions.txt	LTP207	ltpFR	7	6	0	ICING	732	n/a	n/a	0	n/a	0	0	0	0.422607421875	0.5869140625	0	lower	amplitud.ttf
2038.572	n/a	WORD	1019286	wordpools/wasnorm_wordpool_less_exclusions.txt	LTP207	ltpFR	7	6	0	ORNAMENT	985	n/a	n/a	0	n/a	0	0	0	0.422607421875	0.5869140625	0	lower	amplitud.ttf
2044.406	n/a	REC_START	1022203	n/a	LTP207	ltpFR	7	6	n/a	n/a	n/a	n/a	n/a	n/a	n/a	0	0	0	n/a	n/a	n/a	n/a	n/a
2046.064	n/a	REC_WORD	1023032	wordpools/wasnorm_wordpool_less_exclusions.txt	LTP207	ltpFR	7	6	0	ORNAMENT	985	n/a	n/a	0	n/a	0	0	0	n/a	n/a	n/a	n/a	n/a
2047.944	n/a	REC_WORD	1023972	wordpools/wasnorm_wordpool_less_exclusions.txt	LTP207	ltpFR	7	6	0	ICING	732	n/a	n/a	0	n/a	0	0	0	n/a	n/a	n/a	n/a	n/a
2049.282	n/a	REC_WORD	1024641	wordpools/wasnorm_wordpool_less_exclusions.txt	LTP207	ltpFR	7	6	0	PIE	1062	n/a	n/a	1	n/a	0	0	0	n/a	n/a	n/a	n/a	n/a
2052.37	n/a	REC_WORD	1026185	wordpools/wasnorm_wordpool_less_exclusions.txt	LTP207	ltpFR	7	6	0	VEGETABLE	1552	n/a	n/a	0	n/a	0	0	0	n/a	n/a	n/a	n/a	n/a
2056.824	n/a	REC_WORD	1028412	wordpools/wasnorm_wordpool_less_exclusions.txt	LTP207	ltpFR	7	6	0	PEARL	1034	n/a	n/a	0	n/a	0	0	0	n/a	n/a	n/a	n/a	n/a
2057.982	n/a	REC_WORD	1028991	wordpools/wasnorm_wordpool_less_exclusions.txt	LTP207	ltpFR	7	6	0	SCALLOP	1242	n/a	n/a	0	n/a	0	0	0	n/a	n/a	n/a	n/a	n/a
2060.806	n/a	REC_WORD	1030403	wordpools/wasnorm_wordpool_less_exclusions.txt	LTP207	ltpFR	7	6	0	MOUSE	925	n/a	n/a	0	n/a	0	0	0	n/a	n/a	n/a	n/a	n/a
2061.994	n/a	REC_WORD	1030997	wordpools/wasnorm_wordpool_less_exclusions.txt	LTP207	ltpFR	7	6	0	WHISKERS	1605	n/a	n/a	0	n/a	0	0	0	n/a	n/a	n/a	n/a	n/a
2063.898	n/a	REC_WORD	1031949	wordpools/wasnorm_wordpool_less_exclusions.txt	LTP207	ltpFR	7	6	0	DETECTIVE	454	n/a	n/a	1	n/a	0	0	0	n/a	n/a	n/a	n/a	n/a
2071.33	n/a	REC_WORD_VV	1035665	wordpools/wasnorm_wordpool_less_exclusions.txt	LTP207	ltpFR	7	6	n/a	<>	-1	n/a	n/a	n/a	n/a	0	0	0	n/a	n/a	n/a	n/a	n/a
2073.806	n/a	REC_WORD	1036903	wordpools/wasnorm_wordpool_less_exclusions.txt	LTP207	ltpFR	7	6	0	STEREO	1378	n/a	n/a	1	n/a	0	0	0	n/a	n/a	n/a	n/a	n/a
2098.95	n/a	REC_WORD	1049475	wordpools/wasnorm_wordpool_less_exclusions.txt	LTP207	ltpFR	7	6	0	GRADUATE	653	n/a	n/a	1	n/a	0	0	0	n/a	n/a	n/a	n/a	n/a
2129.598	n/a	WORD	1064799	wordpools/wasnorm_wordpool_less_exclusions.txt	LTP207	ltpFR	7	7	1	MOAT	903	n/a	n/a	0	n/a	0	0	0	0.57763671875	0.412841796875	1	upper	zerothre.ttf
2133.646	n/a	WORD	1066823	wordpools/wasnorm_wordpool_less_exclusions.txt	LTP207	ltpFR	7	7	1	PIER	1063	n/a	n/a	0	n/a	0	0	0	0.57763671875	0.412841796875	1	upper	zerothre.ttf
2137.618	n/a	WORD	1068809	wordpools/wasnorm_wordpool_less_exclusions.txt	LTP207	ltpFR	7	7	1	ONION	977	n/a	n/a	0	n/a	0	0	0	0.57763671875	0.412841796875	1	upper	zerothre.ttf
2141.762	n/a	WORD	1070881	wordpools/wasnorm_wordpool_less_exclusions.txt	LTP207	ltpFR	7	7	1	ELM	527	n/a	n/a	1	n/a	0	0	0	0.57763671875	0.412841796875	1	upper	zerothre.ttf
2145.916	n/a	WORD	1072958	wordpools/wasnorm_wordpool_less_exclusions.txt	LTP207	ltpFR	7	7	1	SQUIRREL	1362	n/a	n/a	1	n/a	0	0	0	0.57763671875	0.412841796875	1	upper	zerothre.ttf
2149.764	n/a	WORD	1074882	wordpools/wasnorm_wordpool_less_exclusions.txt	LTP207	ltpFR	7	7	1	GARLIC	624	n/a	n/a	0	n/a	0	0	0	0.57763671875	0.412841796875	1	upper	zerothre.ttf
2153.78	n/a	WORD	1076890	wordpools/wasnorm_wordpool_less_exclusions.txt	LTP207	ltpFR	7	7	1	STUMP	1396	n/a	n/a	0	n/a	0	0	0	0.57763671875	0.412841796875	1	upper	zerothre.ttf
2157.922	n/a	WORD	1078961	wordpools/wasnorm_wordpool_less_exclusions.txt	LTP207	ltpFR	7	7	1	BANDIT	81	n/a	n/a	1	n/a	0	0	0	0.57763671875	0.412841796875	1	upper	zerothre.ttf
2161.922	n/a	WORD	1080961	wordpools/wasnorm_wordpool_less_exclusions.txt	LTP207	ltpFR	7	7	1	FEAST	556	n/a	n/a	0	n/a	0	0	0	0.57763671875	0.412841796875	1	upper	zerothre.ttf
2165.938	n/a	WORD	1082969	wordpools/wasnorm_wordpool_less_exclusions.txt	LTP207	ltpFR	7	7	1	RECIPE	1175	n/a	n/a	0	n/a	0	0	0	0.57763671875	0.412841796875	1	upper	zerothre.ttf
2169.958	n/a	WORD	1084979	wordpools/wasnorm_wordpool_less_exclusions.txt	LTP207	ltpFR	7	7	1	CREVICE	405	n/a	n/a	0	n/a	0	0	0	0.57763671875	0.412841796875	1	upper	zerothre.ttf
2174.102	n/a	WORD	1087051	wordpools/wasnorm_wordpool_less_exclusions.txt	LTP207	ltpFR	7	7	1	GAZELLE	628	n/a	n/a	1	n/a	0	0	0	0.57763671875	0.412841796875	1	upper	zerothre.ttf
2178.174	n/a	WORD	1089087	wordpools/wasnorm_wordpool_less_exclusions.txt	LTP207	ltpFR	7	7	1	BISON	131	n/a	n/a	1	n/a	0	0	0	0.57763671875	0.412841796875	1	upper	zerothre.ttf
2182.34	n/a	WORD	1091170	wordpools/wasnorm_wordpool_less_exclusions.txt	LTP207	ltpFR	7	7	1	CHIMPANZEE	302	n/a	n/a	1	n/a	0	0	0	0.57763671875	0.412841796875	1	upper	zerothre.ttf
2186.432	n/a	WORD	1093216	wordpools/wasnorm_wordpool_less_exclusions.txt	LTP207	ltpFR	7	7	1	TRAY	1498	n/a	n/a	0	n/a	0	0	0	0.57763671875	0.412841796875	1	upper	zerothre.ttf
2190.42	n/a	WORD	1095210	wordpools/wasnorm_wordpool_less_exclusions.txt	LTP207	ltpFR	7	7	1	MOWER	928	n/a	n/a	0	n/a	0	0	0	0.57763671875	0.412841796875	1	upper	zerothre.ttf
2193.432	n/a	START	1096716	n/a	LTP207	ltpFR	7	n/a	n/a	n/a	n/a	n/a	n/a	n/a	n/a	n/a	n/a	n/a	n/a	n/a	n/a	n/a	n/a
2194.58	n/a	PROB	1097290	n/a	LTP207	ltpFR	7	n/a	n/a	n/a	n/a	n/a	n/a	n/a	14	6	1	7	n/a	n/a	n/a	n/a	n/a
2198.796	n/a	PROB	1099398	n/a	LTP207	ltpFR	7	n/a	n/a	n/a	n/a	n/a	n/a	n/a	23	7	9	7	n/a	n/a	n/a	n/a	n/a
2202.116	n/a	PROB	1101058	n/a	LTP207	ltpFR	7	n/a	n/a	n/a	n/a	n/a	n/a	n/a	15	4	7	4	n/a	n/a	n/a	n/a	n/a
2204.19	n/a	PROB	1102095	n/a	LTP207	ltpFR	7	n/a	n/a	n/a	n/a	n/a	n/a	n/a	15	1	6	8	n/a	n/a	n/a	n/a	n/a
2205.846	n/a	PROB	1102923	n/a	LTP207	ltpFR	7	n/a	n/a	n/a	n/a	n/a	n/a	n/a	22	9	4	8	n/a	n/a	n/a	n/a	n/a
2208.196	n/a	STOP	1104098	n/a	LTP207	ltpFR	7	n/a	n/a	n/a	n/a	n/a	n/a	n/a	n/a	n/a	n/a	n/a	n/a	n/a	n/a	n/a	n/a
2211.244	n/a	REC_START	1105622	n/a	LTP207	ltpFR	7	7	n/a	n/a	n/a	n/a	n/a	n/a	n/a	0	0	0	n/a	n/a	n/a	n/a	n/a
2214.032	n/a	REC_WORD	1107016	wordpools/wasnorm_wordpool_less_exclusions.txt	LTP207	ltpFR	7	7	0	DOCK	477	n/a	n/a	1	n/a	0	0	0	n/a	n/a	n/a	n/a	n/a
2215.804	n/a	REC_WORD	1107902	wordpools/wasnorm_wordpool_less_exclusions.txt	LTP207	ltpFR	7	7	1	PIER	1063	n/a	n/a	0	n/a	0	0	0	n/a	n/a	n/a	n/a	n/a
2219.45	n/a	REC_WORD	1109725	wordpools/wasnorm_wordpool_less_exclusions.txt	LTP207	ltpFR	7	7	1	GARLIC	624	n/a	n/a	0	n/a	0	0	0	n/a	n/a	n/a	n/a	n/a
2220.852	n/a	REC_WORD	1110426	wordpools/wasnorm_wordpool_less_exclusions.txt	LTP207	ltpFR	7	7	1	ONION	977	n/a	n/a	0	n/a	0	0	0	n/a	n/a	n/a	n/a	n/a
2222.548	n/a	REC_WORD	1111274	wordpools/wasnorm_wordpool_less_exclusions.txt	LTP207	ltpFR	7	7	1	RECIPE	1175	n/a	n/a	0	n/a	0	0	0	n/a	n/a	n/a	n/a	n/a
2223.736	n/a	REC_WORD	1111868	wordpools/wasnorm_wordpool_less_exclusions.txt	LTP207	ltpFR	7	7	1	FEAST	556	n/a	n/a	0	n/a	0	0	0	n/a	n/a	n/a	n/a	n/a
2225.892	n/a	REC_WORD	1112946	wordpools/wasnorm_wordpool_less_exclusions.txt	LTP207	ltpFR	7	7	1	TRAY	1498	n/a	n/a	0	n/a	0	0	0	n/a	n/a	n/a	n/a	n/a
2229.258	n/a	REC_WORD	1114629	wordpools/wasnorm_wordpool_less_exclusions.txt	LTP207	ltpFR	7	7	1	CREVICE	405	n/a	n/a	0	n/a	0	0	0	n/a	n/a	n/a	n/a	n/a
2231.358	n/a	REC_WORD	1115679	wordpools/wasnorm_wordpool_less_exclusions.txt	LTP207	ltpFR	7	7	1	BANDIT	81	n/a	n/a	1	n/a	0	0	0	n/a	n/a	n/a	n/a	n/a
2251.92	n/a	REC_WORD	1125960	wordpools/wasnorm_wordpool_less_exclusions.txt	LTP207	ltpFR	7	7	1	STUMP	1396	n/a	n/a	0	n/a	0	0	0	n/a	n/a	n/a	n/a	n/a
2265.982	n/a	REC_WORD	1132991	wordpools/wasnorm_wordpool_less_exclusions.txt	LTP207	ltpFR	7	7	1	ELM	527	n/a	n/a	1	n/a	0	0	0	n/a	n/a	n/a	n/a	n/a
2267.268	n/a	REC_WORD	1133634	wordpools/wasnorm_wordpool_less_exclusions.txt	LTP207	ltpFR	7	7	1	SQUIRREL	1362	n/a	n/a	1	n/a	0	0	0	n/a	n/a	n/a	n/a	n/a
2323.478	n/a	START	1161739	n/a	LTP207	ltpFR	7	n/a	n/a	n/a	n/a	n/a	n/a	n/a	n/a	n/a	n/a	n/a	n/a	n/a	n/a	n/a	n/a
2324.996	n/a	PROB	1162498	n/a	LTP207	ltpFR	7	n/a	n/a	n/a	n/a	n/a	n/a	n/a	20	4	9	7	n/a	n/a	n/a	n/a	n/a
2327.376	n/a	PROB	1163688	n/a	LTP207	ltpFR	7	n/a	n/a	n/a	n/a	n/a	n/a	n/a	11	7	2	2	n/a	n/a	n/a	n/a	n/a
2331.48	n/a	STOP	1165740	n/a	LTP207	ltpFR	7	n/a	n/a	n/a	n/a	n/a	n/a	n/a	n/a	n/a	n/a	n/a	n/a	n/a	n/a	n/a	n/a
2332.508	n/a	WORD	1166254	wordpools/wasnorm_wordpool_less_exclusions.txt	LTP207	ltpFR	7	8	0	CATERPILLAR	259	n/a	n/a	0	n/a	0	0	0	0.422607421875	0.5869140625	0	lower	amplitud.ttf
2335.526	n/a	START	1167763	n/a	LTP207	ltpFR	7	n/a	n/a	n/a	n/a	n/a	n/a	n/a	n/a	n/a	n/a	n/a	n/a	n/a	n/a	n/a	n/a
2336.362	n/a	PROB	1168181	n/a	LTP207	ltpFR	7	n/a	n/a	n/a	n/a	n/a	n/a	n/a	6	4	1	1	n/a	n/a	n/a	n/a	n/a
2338.396	n/a	PROB	1169198	n/a	LTP207	ltpFR	7	n/a	n/a	n/a	n/a	n/a	n/a	n/a	12	6	1	5	n/a	n/a	n/a	n/a	n/a
2341.996	n/a	STOP	1170998	n/a	LTP207	ltpFR	7	n/a	n/a	n/a	n/a	n/a	n/a	n/a	n/a	n/a	n/a	n/a	n/a	n/a	n/a	n/a	n/a
2344.458	n/a	WORD	1172229	wordpools/wasnorm_wordpool_less_exclusions.txt	LTP207	ltpFR	7	8	0	BLOUSE	139	n/a	n/a	1	n/a	0	0	0	0.422607421875	0.5869140625	0	lower	amplitud.ttf
2347.472	n/a	START	1173736	n/a	LTP207	ltpFR	7	n/a	n/a	n/a	n/a	n/a	n/a	n/a	n/a	n/a	n/a	n/a	n/a	n/a	n/a	n/a	n/a
2348.508	n/a	PROB	1174254	n/a	LTP207	ltpFR	7	n/a	n/a	n/a	n/a	n/a	n/a	n/a	23	7	9	7	n/a	n/a	n/a	n/a	n/a
2350.794	n/a	PROB	1175397	n/a	LTP207	ltpFR	7	n/a	n/a	n/a	n/a	n/a	n/a	n/a	12	4	1	7	n/a	n/a	n/a	n/a	n/a
2355.472	n/a	STOP	1177736	n/a	LTP207	ltpFR	7	n/a	n/a	n/a	n/a	n/a	n/a	n/a	n/a	n/a	n/a	n/a	n/a	n/a	n/a	n/a	n/a
2356.414	n/a	WORD	1178207	wordpools/wasnorm_wordpool_less_exclusions.txt	LTP207	ltpFR	7	8	0	SECRETARY	1265	n/a	n/a	1	n/a	0	0	0	0.422607421875	0.5869140625	0	lower	amplitud.ttf
2359.426	n/a	START	1179713	n/a	LTP207	ltpFR	7	n/a	n/a	n/a	n/a	n/a	n/a	n/a	n/a	n/a	n/a	n/a	n/a	n/a	n/a	n/a	n/a
2360.296	n/a	PROB	1180148	n/a	LTP207	ltpFR	7	n/a	n/a	n/a	n/a	n/a	n/a	n/a	25	8	8	9	n/a	n/a	n/a	n/a	n/a
2363.698	n/a	PROB	1181849	n/a	LTP207	ltpFR	7	n/a	n/a	n/a	n/a	n/a	n/a	n/a	19	5	5	9	n/a	n/a	n/a	n/a	n/a
2365.924	n/a	STOP	1182962	n/a	LTP207	ltpFR	7	n/a	n/a	n/a	n/a	n/a	n/a	n/a	n/a	n/a	n/a	n/a	n/a	n/a	n/a	n/a	n/a
2368.462	n/a	WORD	1184231	wordpools/wasnorm_wordpool_less_exclusions.txt	LTP207	ltpFR	7	8	0	BUNNY	198	n/a	n/a	0	n/a	0	0	0	0.422607421875	0.5869140625	0	lower	amplitud.ttf
2371.48	n/a	START	1185740	n/a	LTP207	ltpFR	7	n/a	n/a	n/a	n/a	n/a	n/a	n/a	n/a	n/a	n/a	n/a	n/a	n/a	n/a	n/a	n/a
2372.666	n/a	PROB	1186333	n/a	LTP207	ltpFR	7	n/a	n/a	n/a	n/a	n/a	n/a	n/a	16	5	4	7	n/a	n/a	n/a	n/a	n/a
2375.06	n/a	PROB	1187530	n/a	LTP207	ltpFR	7	n/a	n/a	n/a	n/a	n/a	n/a	n/a	6	2	2	2	n/a	n/a	n/a	n/a	n/a
2379.48	n/a	STOP	1189740	n/a	LTP207	ltpFR	7	n/a	n/a	n/a	n/a	n/a	n/a	n/a	n/a	n/a	n/a	n/a	n/a	n/a	n/a	n/a	n/a
2380.48	n/a	WORD	1190240	wordpools/wasnorm_wordpool_less_exclusions.txt	LTP207	ltpFR	7	8	0	MILK	895	n/a	n/a	0	n/a	0	0	0	0.422607421875	0.5869140625	0	lower	amplitud.ttf
2383.492	n/a	START	1191746	n/a	LTP207	ltpFR	7	n/a	n/a	n/a	n/a	n/a	n/a	n/a	n/a	n/a	n/a	n/a	n/a	n/a	n/a	n/a	n/a
2384.31	n/a	PROB	1192155	n/a	LTP207	ltpFR	7	n/a	n/a	n/a	n/a	n/a	n/a	n/a	4	1	2	1	n/a	n/a	n/a	n/a	n/a
2387.418	n/a	PROB	1193709	n/a	LTP207	ltpFR	7	n/a	n/a	n/a	n/a	n/a	n/a	n/a	14	3	2	9	n/a	n/a	n/a	n/a	n/a
2391.492	n/a	STOP	1195746	n/a	LTP207	ltpFR	7	n/a	n/a	n/a	n/a	n/a	n/a	n/a	n/a	n/a	n/a	n/a	n/a	n/a	n/a	n/a	n/a
2392.452	n/a	WORD	1196226	wordpools/wasnorm_wordpool_less_exclusions.txt	LTP207	ltpFR	7	8	0	TERRITORY	1452	n/a	n/a	1	n/a	0	0	0	0.422607421875	0.5869140625	0	lower	amplitud.ttf
2395.464	n/a	START	1197732	n/a	LTP207	ltpFR	7	n/a	n/a	n/a	n/a	n/a	n/a	n/a	n/a	n/a	n/a	n/a	n/a	n/a	n/a	n/a	n/a
2396.658	n/a	PROB	1198329	n/a	LTP207	ltpFR	7	n/a	n/a	n/a	n/a	n/a	n/a	n/a	22	9	5	8	n/a	n/a	n/a	n/a	n/a
2398.882	n/a	PROB	1199441	n/a	LTP207	ltpFR	7	n/a	n/a	n/a	n/a	n/a	n/a	n/a	10	6	3	1	n/a	n/a	n/a	n/a	n/a
2400.8	n/a	PROB	1200400	n/a	LTP207	ltpFR	7	n/a	n/a	n/a	n/a	n/a	n/a	n/a	15	5	2	8	n/a	n/a	n/a	n/a	n/a
2403.12	n/a	STOP	1201560	n/a	LTP207	ltpFR	7	n/a	n/a	n/a	n/a	n/a	n/a	n/a	n/a	n/a	n/a	n/a	n/a	n/a	n/a	n/a	n/a
2404.65	n/a	WORD	1202325	wordpools/wasnorm_wordpool_less_exclusions.txt	LTP207	ltpFR	7	8	0	JACKET	747	n/a	n/a	1	n/a	0	0	0	0.422607421875	0.5869140625	0	lower	amplitud.ttf
2407.662	n/a	START	1203831	n/a	LTP207	ltpFR	7	n/a	n/a	n/a	n/a	n/a	n/a	n/a	n/a	n/a	n/a	n/a	n/a	n/a	n/a	n/a	n/a
2408.822	n/a	PROB	1204411	n/a	LTP207	ltpFR	7	n/a	n/a	n/a	n/a	n/a	n/a	n/a	20	9	3	8	n/a	n/a	n/a	n/a	n/a
2411.008	n/a	PROB	1205504	n/a	LTP207	ltpFR	7	n/a	n/a	n/a	n/a	n/a	n/a	n/a	9	4	3	2	n/a	n/a	n/a	n/a	n/a
2415.66	n/a	STOP	1207830	n/a	LTP207	ltpFR	7	n/a	n/a	n/a	n/a	n/a	n/a	n/a	n/a	n/a	n/a	n/a	n/a	n/a	n/a	n/a	n/a
2416.802	n/a	WORD	1208401	wordpools/wasnorm_wordpool_less_exclusions.txt	LTP207	ltpFR	7	8	0	MOTH	920	n/a	n/a	0	n/a	0	0	0	0.422607421875	0.5869140625	0	lower	amplitud.ttf
2419.814	n/a	START	1209907	n/a	LTP207	ltpFR	7	n/a	n/a	n/a	n/a	n/a	n/a	n/a	n/a	n/a	n/a	n/a	n/a	n/a	n/a	n/a	n/a
2420.666	n/a	PROB	1210333	n/a	LTP207	ltpFR	7	n/a	n/a	n/a	n/a	n/a	n/a	n/a	14	3	8	3	n/a	n/a	n/a	n/a	n/a
2423.974	n/a	PROB	1211987	n/a	LTP207	ltpFR	7	n/a	n/a	n/a	n/a	n/a	n/a	n/a	17	3	9	5	n/a	n/a	n/a	n/a	n/a
2426.512	n/a	STOP	1213256	n/a	LTP207	ltpFR	7	n/a	n/a	n/a	n/a	n/a	n/a	n/a	n/a	n/a	n/a	n/a	n/a	n/a	n/a	n/a	n/a
2428.964	n/a	WORD	1214482	wordpools/wasnorm_wordpool_less_exclusions.txt	LTP207	ltpFR	7	8	0	POWDER	1117	n/a	n/a	0	n/a	0	0	0	0.422607421875	0.5869140625	0	lower	amplitud.ttf
2431.976	n/a	START	1215988	n/a	LTP207	ltpFR	7	n/a	n/a	n/a	n/a	n/a	n/a	n/a	n/a	n/a	n/a	n/a	n/a	n/a	n/a	n/a	n/a
2432.824	n/a	PROB	1216412	n/a	LTP207	ltpFR	7	n/a	n/a	n/a	n/a	n/a	n/a	n/a	9	4	2	3	n/a	n/a	n/a	n/a	n/a
2439.976	n/a	STOP	1219988	n/a	LTP207	ltpFR	7	n/a	n/a	n/a	n/a	n/a	n/a	n/a	n/a	n/a	n/a	n/a	n/a	n/a	n/a	n/a	n/a
2440.826	n/a	WORD	1220413	wordpools/wasnorm_wordpool_less_exclusions.txt	LTP207	ltpFR	7	8	0	COMMUNITY	356	n/a	n/a	1	n/a	0	0	0	0.422607421875	0.5869140625	0	lower	amplitud.ttf
2443.84	n/a	START	1221920	n/a	LTP207	ltpFR	7	n/a	n/a	n/a	n/a	n/a	n/a	n/a	n/a	n/a	n/a	n/a	n/a	n/a	n/a	n/a	n/a
2444.802	n/a	PROB	1222401	n/a	LTP207	ltpFR	7	n/a	n/a	n/a	n/a	n/a	n/a	n/a	220	9	9	1	n/a	n/a	n/a	n/a	n/a
2447.052	n/a	PROB	1223526	n/a	LTP207	ltpFR	7	n/a	n/a	n/a	n/a	n/a	n/a	n/a	16	8	7	1	n/a	n/a	n/a	n/a	n/a
2449.476	n/a	PROB	1224738	n/a	LTP207	ltpFR	7	n/a	n/a	n/a	n/a	n/a	n/a	n/a	11	4	5	2	n/a	n/a	n/a	n/a	n/a
2451.018	n/a	STOP	1225509	n/a	LTP207	ltpFR	7	n/a	n/a	n/a	n/a	n/a	n/a	n/a	n/a	n/a	n/a	n/a	n/a	n/a	n/a	n/a	n/a
2452.738	n/a	WORD	1226369	wordpools/wasnorm_wordpool_less_exclusions.txt	LTP207	ltpFR	7	8	0	BRAN	167	n/a	n/a	2	n/a	0	0	0	0.422607421875	0.5869140625	0	lower	amplitud.ttf
2454.162	n/a	KEY_MSG	1227081	n/a	LTP207	ltpFR	7	8	n/a	n/a	n/a	n/a	n/a	n/a	n/a	0	0	0	n/a	n/a	n/a	n/a	n/a
2455.75	n/a	START	1227875	n/a	LTP207	ltpFR	7	n/a	n/a	n/a	n/a	n/a	n/a	n/a	n/a	n/a	n/a	n/a	n/a	n/a	n/a	n/a	n/a
2456.872	n/a	PROB	1228436	n/a	LTP207	ltpFR	7	n/a	n/a	n/a	n/a	n/a	n/a	n/a	21	8	8	5	n/a	n/a	n/a	n/a	n/a
2460.246	n/a	PROB	1230123	n/a	LTP207	ltpFR	7	n/a	n/a	n/a	n/a	n/a	n/a	n/a	25	8	9	8	n/a	n/a	n/a	n/a	n/a
2463.418	n/a	STOP	1231709	n/a	LTP207	ltpFR	7	n/a	n/a	n/a	n/a	n/a	n/a	n/a	n/a	n/a	n/a	n/a	n/a	n/a	n/a	n/a	n/a
2464.684	n/a	WORD	1232342	wordpools/wasnorm_wordpool_less_exclusions.txt	LTP207	ltpFR	7	8	0	SHORTCAKE	1292	n/a	n/a	0	n/a	0	0	0	0.422607421875	0.5869140625	0	lower	amplitud.ttf
2467.696	n/a	START	1233848	n/a	LTP207	ltpFR	7	n/a	n/a	n/a	n/a	n/a	n/a	n/a	n/a	n/a	n/a	n/a	n/a	n/a	n/a	n/a	n/a
2468.85	n/a	PROB	1234425	n/a	LTP207	ltpFR	7	n/a	n/a	n/a	n/a	n/a	n/a	n/a	16	3	8	5	n/a	n/a	n/a	n/a	n/a
2472.274	n/a	PROB	1236137	n/a	LTP207	ltpFR	7	n/a	n/a	n/a	n/a	n/a	n/a	n/a	10	1	2	7	n/a	n/a	n/a	n/a	n/a
2474.458	n/a	STOP	1237229	n/a	LTP207	ltpFR	7	n/a	n/a	n/a	n/a	n/a	n/a	n/a	n/a	n/a	n/a	n/a	n/a	n/a	n/a	n/a	n/a
2476.892	n/a	WORD	1238446	wordpools/wasnorm_wordpool_less_exclusions.txt	LTP207	ltpFR	7	8	0	BASKETBALL	96	n/a	n/a	1	n/a	0	0	0	0.422607421875	0.5869140625	0	lower	amplitud.ttf
2479.904	n/a	START	1239952	n/a	LTP207	ltpFR	7	n/a	n/a	n/a	n/a	n/a	n/a	n/a	n/a	n/a	n/a	n/a	n/a	n/a	n/a	n/a	n/a
2480.98	n/a	PROB	1240490	n/a	LTP207	ltpFR	7	n/a	n/a	n/a	n/a	n/a	n/a	n/a	10	4	2	4	n/a	n/a	n/a	n/a	n/a
2483.786	n/a	PROB	1241893	n/a	LTP207	ltpFR	7	n/a	n/a	n/a	n/a	n/a	n/a	n/a	5	2	1	2	n/a	n/a	n/a	n/a	n/a
2485.442	n/a	PROB	1242721	n/a	LTP207	ltpFR	7	n/a	n/a	n/a	n/a	n/a	n/a	n/a	21	7	8	6	n/a	n/a	n/a	n/a	n/a
2487.42	n/a	STOP	1243710	n/a	LTP207	ltpFR	7	n/a	n/a	n/a	n/a	n/a	n/a	n/a	n/a	n/a	n/a	n/a	n/a	n/a	n/a	n/a	n/a
2488.81	n/a	WORD	1244405	wordpools/wasnorm_wordpool_less_exclusions.txt	LTP207	ltpFR	7	8	0	VOLLEYBALL	1576	n/a	n/a	1	n/a	0	0	0	0.422607421875	0.5869140625	0	lower	amplitud.ttf
2491.822	n/a	START	1245911	n/a	LTP207	ltpFR	7	n/a	n/a	n/a	n/a	n/a	n/a	n/a	n/a	n/a	n/a	n/a	n/a	n/a	n/a	n/a	n/a
2492.836	n/a	PROB	1246418	n/a	LTP207	ltpFR	7	n/a	n/a	n/a	n/a	n/a	n/a	n/a	11	3	1	7	n/a	n/a	n/a	n/a	n/a
2495.078	n/a	PROB	1247539	n/a	LTP207	ltpFR	7	n/a	n/a	n/a	n/a	n/a	n/a	n/a	11	8	2	1	n/a	n/a	n/a	n/a	n/a
2496.55	n/a	PROB	1248275	n/a	LTP207	ltpFR	7	n/a	n/a	n/a	n/a	n/a	n/a	n/a	9	3	5	1	n/a	n/a	n/a	n/a	n/a
2499.38	n/a	STOP	1249690	n/a	LTP207	ltpFR	7	n/a	n/a	n/a	n/a	n/a	n/a	n/a	n/a	n/a	n/a	n/a	n/a	n/a	n/a	n/a	n/a
2500.99	n/a	WORD	1250495	wordpools/wasnorm_wordpool_less_exclusions.txt	LTP207	ltpFR	7	8	0	JOKER	759	n/a	n/a	1	n/a	0	0	0	0.422607421875	0.5869140625	0	lower	amplitud.ttf
2504.002	n/a	START	1252001	n/a	LTP207	ltpFR	7	n/a	n/a	n/a	n/a	n/a	n/a	n/a	n/a	n/a	n/a	n/a	n/a	n/a	n/a	n/a	n/a
2505.14	n/a	PROB	1252570	n/a	LTP207	ltpFR	7	n/a	n/a	n/a	n/a	n/a	n/a	n/a	14	7	2	5	n/a	n/a	n/a	n/a	n/a
2507.91	n/a	PROB	1253955	n/a	LTP207	ltpFR	7	n/a	n/a	n/a	n/a	n/a	n/a	n/a	14	7	3	7	n/a	n/a	n/a	n/a	n/a
2512.002	n/a	STOP	1256001	n/a	LTP207	ltpFR	7	n/a	n/a	n/a	n/a	n/a	n/a	n/a	n/a	n/a	n/a	n/a	n/a	n/a	n/a	n/a	n/a
2512.936	n/a	WORD	1256468	wordpools/wasnorm_wordpool_less_exclusions.txt	LTP207	ltpFR	7	8	0	CARD	243	n/a	n/a	0	n/a	0	0	0	0.422607421875	0.5869140625	0	lower	amplitud.ttf
2515.948	n/a	START	1257974	n/a	LTP207	ltpFR	7	n/a	n/a	n/a	n/a	n/a	n/a	n/a	n/a	n/a	n/a	n/a	n/a	n/a	n/a	n/a	n/a
2516.784	n/a	PROB	1258392	n/a	LTP207	ltpFR	7	n/a	n/a	n/a	n/a	n/a	n/a	n/a	10	7	2	1	n/a	n/a	n/a	n/a	n/a
2518.986	n/a	PROB	1259493	n/a	LTP207	ltpFR	7	n/a	n/a	n/a	n/a	n/a	n/a	n/a	10	2	1	7	n/a	n/a	n/a	n/a	n/a
2520.508	n/a	PROB	1260254	n/a	LTP207	ltpFR	7	n/a	n/a	n/a	n/a	n/a	n/a	n/a	12	2	9	1	n/a	n/a	n/a	n/a	n/a
2522.91	n/a	STOP	1261455	n/a	LTP207	ltpFR	7	n/a	n/a	n/a	n/a	n/a	n/a	n/a	n/a	n/a	n/a	n/a	n/a	n/a	n/a	n/a	n/a
2525.712	n/a	REC_START	1262856	n/a	LTP207	ltpFR	7	8	n/a	n/a	n/a	n/a	n/a	n/a	n/a	0	0	0	n/a	n/a	n/a	n/a	n/a
2527.538	n/a	REC_WORD	1263769	wordpools/wasnorm_wordpool_less_exclusions.txt	LTP207	ltpFR	7	8	0	JOKER	759	n/a	n/a	1	n/a	0	0	0	n/a	n/a	n/a	n/a	n/a
2529.694	n/a	REC_WORD	1264847	wordpools/wasnorm_wordpool_less_exclusions.txt	LTP207	ltpFR	7	8	0	CARD	243	n/a	n/a	0	n/a	0	0	0	n/a	n/a	n/a	n/a	n/a
2533.06	n/a	REC_WORD	1266530	wordpools/wasnorm_wordpool_less_exclusions.txt	LTP207	ltpFR	7	8	0	BLOUSE	139	n/a	n/a	1	n/a	0	0	0	n/a	n/a	n/a	n/a	n/a
2534.478	n/a	REC_WORD	1267239	wordpools/wasnorm_wordpool_less_exclusions.txt	LTP207	ltpFR	7	8	0	CATERPILLAR	259	n/a	n/a	0	n/a	0	0	0	n/a	n/a	n/a	n/a	n/a
2535.85	n/a	REC_WORD	1267925	wordpools/wasnorm_wordpool_less_exclusions.txt	LTP207	ltpFR	7	8	0	SECRETARY	1265	n/a	n/a	1	n/a	0	0	0	n/a	n/a	n/a	n/a	n/a
2567.454	n/a	REC_WORD	1283727	wordpools/wasnorm_wordpool_less_exclusions.txt	LTP207	ltpFR	7	8	0	MILK	895	n/a	n/a	0	n/a	0	0	0	n/a	n/a	n/a	n/a	n/a
2569.296	n/a	REC_WORD	1284648	wordpools/wasnorm_wordpool_less_exclusions.txt	LTP207	ltpFR	7	8	0	BRAN	167	n/a	n/a	2	n/a	0	0	0	n/a	n/a	n/a	n/a	n/a
2576.29	n/a	REC_WORD	1288145	wordpools/wasnorm_wordpool_less_exclusions.txt	LTP207	ltpFR	7	8	0	BUNNY	198	n/a	n/a	0	n/a	0	0	0	n/a	n/a	n/a	n/a	n/a
2622.254	n/a	WORD	1311127	wordpools/wasnorm_wordpool_less_exclusions.txt	LTP207	ltpFR	7	9	1	SHRIMP	1297	n/a	n/a	1	n/a	0	0	0	0.57763671875	0.412841796875	1	upper	zerothre.ttf
2626.42	n/a	WORD	1313210	wordpools/wasnorm_wordpool_less_exclusions.txt	LTP207	ltpFR	7	9	1	MOTOR	922	n/a	n/a	0	n/a	0	0	0	0.57763671875	0.412841796875	1	upper	zerothre.ttf
2630.636	n/a	WORD	1315318	wordpools/wasnorm_wordpool_less_exclusions.txt	LTP207	ltpFR	7	9	1	BEAST	108	n/a	n/a	1	n/a	0	0	0	0.57763671875	0.412841796875	1	upper	zerothre.ttf
2634.6	n/a	WORD	1317300	wordpools/wasnorm_wordpool_less_exclusions.txt	LTP207	ltpFR	7	9	1	FUR	615	n/a	n/a	0	n/a	0	0	0	0.57763671875	0.412841796875	1	upper	zerothre.ttf
2638.61	n/a	WORD	1319305	wordpools/wasnorm_wordpool_less_exclusions.txt	LTP207	ltpFR	7	9	1	TIGER	1467	n/a	n/a	1	n/a	0	0	0	0.57763671875	0.412841796875	1	upper	zerothre.ttf
2642.548	n/a	WORD	1321274	wordpools/wasnorm_wordpool_less_exclusions.txt	LTP207	ltpFR	7	9	1	POSSUM	1112	n/a	n/a	1	n/a	0	0	0	0.57763671875	0.412841796875	1	upper	zerothre.ttf
2646.428	n/a	WORD	1323214	wordpools/wasnorm_wordpool_less_exclusions.txt	LTP207	ltpFR	7	9	1	STAGE	1366	n/a	n/a	0	n/a	0	0	0	0.57763671875	0.412841796875	1	upper	zerothre.ttf
2650.344	n/a	WORD	1325172	wordpools/wasnorm_wordpool_less_exclusions.txt	LTP207	ltpFR	7	9	1	CUSTOMER	430	n/a	n/a	1	n/a	0	0	0	0.57763671875	0.412841796875	1	upper	zerothre.ttf
2654.476	n/a	WORD	1327238	wordpools/wasnorm_wordpool_less_exclusions.txt	LTP207	ltpFR	7	9	1	ZOO	1637	n/a	n/a	0	n/a	0	0	0	0.57763671875	0.412841796875	1	upper	zerothre.ttf
2658.442	n/a	WORD	1329221	wordpools/wasnorm_wordpool_less_exclusions.txt	LTP207	ltpFR	7	9	1	THERMOMETER	1453	n/a	n/a	0	n/a	0	0	0	0.57763671875	0.412841796875	1	upper	zerothre.ttf
2662.424	n/a	WORD	1331212	wordpools/wasnorm_wordpool_less_exclusions.txt	LTP207	ltpFR	7	9	1	STAFF	1365	n/a	n/a	1	n/a	0	0	0	0.57763671875	0.412841796875	1	upper	zerothre.ttf
2666.456	n/a	WORD	1333228	wordpools/wasnorm_wordpool_less_exclusions.txt	LTP207	ltpFR	7	9	1	SOCIETY	1338	n/a	n/a	1	n/a	0	0	0	0.57763671875	0.412841796875	1	upper	zerothre.ttf
2670.638	n/a	WORD	1335319	wordpools/wasnorm_wordpool_less_exclusions.txt	LTP207	ltpFR	7	9	1	KITTEN	780	n/a	n/a	1	n/a	0	0	0	0.57763671875	0.412841796875	1	upper	zerothre.ttf
2674.822	n/a	WORD	1337411	wordpools/wasnorm_wordpool_less_exclusions.txt	LTP207	ltpFR	7	9	1	DRIVER	499	n/a	n/a	1	n/a	0	0	0	0.57763671875	0.412841796875	1	upper	zerothre.ttf
2678.712	n/a	WORD	1339356	wordpools/wasnorm_wordpool_less_exclusions.txt	LTP207	ltpFR	7	9	1	RIVER	1194	n/a	n/a	0	n/a	0	0	0	0.57763671875	0.412841796875	1	upper	zerothre.ttf
2682.834	n/a	WORD	1341417	wordpools/wasnorm_wordpool_less_exclusions.txt	LTP207	ltpFR	7	9	1	PAIL	1002	n/a	n/a	0	n/a	0	0	0	0.57763671875	0.412841796875	1	upper	zerothre.ttf
2685.846	n/a	START	1342923	n/a	LTP207	ltpFR	7	n/a	n/a	n/a	n/a	n/a	n/a	n/a	n/a	n/a	n/a	n/a	n/a	n/a	n/a	n/a	n/a
2686.934	n/a	PROB	1343467	n/a	LTP207	ltpFR	7	n/a	n/a	n/a	n/a	n/a	n/a	n/a	11	2	5	4	n/a	n/a	n/a	n/a	n/a
2690.092	n/a	PROB	1345046	n/a	LTP207	ltpFR	7	n/a	n/a	n/a	n/a	n/a	n/a	n/a	16	7	1	8	n/a	n/a	n/a	n/a	n/a
2692.518	n/a	STOP	1346259	n/a	LTP207	ltpFR	7	n/a	n/a	n/a	n/a	n/a	n/a	n/a	n/a	n/a	n/a	n/a	n/a	n/a	n/a	n/a	n/a
2695.734	n/a	REC_START	1347867	n/a	LTP207	ltpFR	7	9	n/a	n/a	n/a	n/a	n/a	n/a	n/a	0	0	0	n/a	n/a	n/a	n/a	n/a
2697.82	n/a	REC_WORD	1348910	wordpools/wasnorm_wordpool_less_exclusions.txt	LTP207	ltpFR	7	9	1	DRIVER	499	n/a	n/a	1	n/a	0	0	0	n/a	n/a	n/a	n/a	n/a
2699.008	n/a	REC_WORD	1349504	wordpools/wasnorm_wordpool_less_exclusions.txt	LTP207	ltpFR	7	9	1	RIVER	1194	n/a	n/a	0	n/a	0	0	0	n/a	n/a	n/a	n/a	n/a
2700.14	n/a	REC_WORD	1350070	wordpools/wasnorm_wordpool_less_exclusions.txt	LTP207	ltpFR	7	9	1	PAIL	1002	n/a	n/a	0	n/a	0	0	0	n/a	n/a	n/a	n/a	n/a
2703.296	n/a	REC_WORD	1351648	wordpools/wasnorm_wordpool_less_exclusions.txt	LTP207	ltpFR	7	9	1	STAGE	1366	n/a	n/a	0	n/a	0	0	0	n/a	n/a	n/a	n/a	n/a
2708.292	n/a	REC_WORD	1354146	wordpools/wasnorm_wordpool_less_exclusions.txt	LTP207	ltpFR	7	9	1	SOCIETY	1338	n/a	n/a	1	n/a	0	0	0	n/a	n/a	n/a	n/a	n/a
2711.016	n/a	REC_WORD	1355508	wordpools/wasnorm_wordpool_less_exclusions.txt	LTP207	ltpFR	7	9	1	BEAST	108	n/a	n/a	1	n/a	0	0	0	n/a	n/a	n/a	n/a	n/a
2712.298	n/a	REC_WORD	1356149	wordpools/wasnorm_wordpool_less_exclusions.txt	LTP207	ltpFR	7	9	1	FUR	615	n/a	n/a	0	n/a	0	0	0	n/a	n/a	n/a	n/a	n/a
2714.772	n/a	REC_WORD	1357386	wordpools/wasnorm_wordpool_less_exclusions.txt	LTP207	ltpFR	7	9	1	SHRIMP	1297	n/a	n/a	1	n/a	0	0	0	n/a	n/a	n/a	n/a	n/a
2723.578	n/a	REC_WORD	1361789	wordpools/wasnorm_wordpool_less_exclusions.txt	LTP207	ltpFR	7	9	1	TIGER	1467	n/a	n/a	1	n/a	0	0	0	n/a	n/a	n/a	n/a	n/a
2725.788	n/a	REC_WORD	1362894	wordpools/wasnorm_wordpool_less_exclusions.txt	LTP207	ltpFR	7	9	1	POSSUM	1112	n/a	n/a	1	n/a	0	0	0	n/a	n/a	n/a	n/a	n/a
2776.052	n/a	WORD	1388026	wordpools/wasnorm_wordpool_less_exclusions.txt	LTP207	ltpFR	7	10	0	STEM	1376	n/a	n/a	0	n/a	0	0	0	0.422607421875	0.5869140625	0	lower	amplitud.ttf
2780.268	n/a	WORD	1390134	wordpools/wasnorm_wordpool_less_exclusions.txt	LTP207	ltpFR	7	10	0	PLANT	1083	n/a	n/a	0	n/a	0	0	0	0.422607421875	0.5869140625	0	lower	amplitud.ttf
2784.49	n/a	WORD	1392245	wordpools/wasnorm_wordpool_less_exclusions.txt	LTP207	ltpFR	7	10	0	TERMITE	1451	n/a	n/a	0	n/a	0	0	0	0.422607421875	0.5869140625	0	lower	amplitud.ttf
2788.572	n/a	WORD	1394286	wordpools/wasnorm_wordpool_less_exclusions.txt	LTP207	ltpFR	7	10	0	EARTH	515	n/a	n/a	1	n/a	0	0	0	0.422607421875	0.5869140625	0	lower	amplitud.ttf
2792.404	n/a	WORD	1396202	wordpools/wasnorm_wordpool_less_exclusions.txt	LTP207	ltpFR	7	10	0	DOUGHNUT	490	n/a	n/a	0	n/a	0	0	0	0.422607421875	0.5869140625	0	lower	amplitud.ttf
2796.296	n/a	WORD	1398148	wordpools/wasnorm_wordpool_less_exclusions.txt	LTP207	ltpFR	7	10	0	LAMP	798	n/a	n/a	1	n/a	0	0	0	0.422607421875	0.5869140625	0	lower	amplitud.ttf
2800.328	n/a	WORD	1400164	wordpools/wasnorm_wordpool_less_exclusions.txt	LTP207	ltpFR	7	10	0	CRICKET	408	n/a	n/a	0	n/a	0	0	0	0.422607421875	0.5869140625	0	lower	amplitud.ttf
2804.366	n/a	WORD	1402183	wordpools/wasnorm_wordpool_less_exclusions.txt	LTP207	ltpFR	7	10	0	CYLINDER	432	n/a	n/a	1	n/a	0	0	0	0.422607421875	0.5869140625	0	lower	amplitud.ttf
2808.492	n/a	WORD	1404246	wordpools/wasnorm_wordpool_less_exclusions.txt	LTP207	ltpFR	7	10	0	TRENCH	1503	n/a	n/a	1	n/a	0	0	0	0.422607421875	0.5869140625	0	lower	amplitud.ttf
2812.598	n/a	WORD	1406299	wordpools/wasnorm_wordpool_less_exclusions.txt	LTP207	ltpFR	7	10	0	VILLAGE	1566	n/a	n/a	1	n/a	0	0	0	0.422607421875	0.5869140625	0	lower	amplitud.ttf
2816.606	n/a	WORD	1408303	wordpools/wasnorm_wordpool_less_exclusions.txt	LTP207	ltpFR	7	10	0	BAY	102	n/a	n/a	1	n/a	0	0	0	0.422607421875	0.5869140625	0	lower	amplitud.ttf
2820.722	n/a	WORD	1410361	wordpools/wasnorm_wordpool_less_exclusions.txt	LTP207	ltpFR	7	10	0	ELEPHANT	523	n/a	n/a	1	n/a	0	0	0	0.422607421875	0.5869140625	0	lower	amplitud.ttf
2824.704	n/a	WORD	1412352	wordpools/wasnorm_wordpool_less_exclusions.txt	LTP207	ltpFR	7	10	0	JUG	762	n/a	n/a	0	n/a	0	0	0	0.422607421875	0.5869140625	0	lower	amplitud.ttf
2828.57	n/a	WORD	1414285	wordpools/wasnorm_wordpool_less_exclusions.txt	LTP207	ltpFR	7	10	0	WAREHOUSE	1588	n/a	n/a	1	n/a	0	0	0	0.422607421875	0.5869140625	0	lower	amplitud.ttf
2832.45	n/a	WORD	1416225	wordpools/wasnorm_wordpool_less_exclusions.txt	LTP207	ltpFR	7	10	0	CONTRACTOR	369	n/a	n/a	1	n/a	0	0	0	0.422607421875	0.5869140625	0	lower	amplitud.ttf
2836.448	n/a	WORD	1418224	wordpools/wasnorm_wordpool_less_exclusions.txt	LTP207	ltpFR	7	10	0	VOLUNTEER	1577	n/a	n/a	0	n/a	0	0	0	0.422607421875	0.5869140625	0	lower	amplitud.ttf
2842.58	n/a	REC_START	1421290	n/a	LTP207	ltpFR	7	10	n/a	n/a	n/a	n/a	n/a	n/a	n/a	0	0	0	n/a	n/a	n/a	n/a	n/a
2845.896	n/a	REC_WORD	1422948	wordpools/wasnorm_wordpool_less_exclusions.txt	LTP207	ltpFR	7	10	0	VOLUNTEER	1577	n/a	n/a	0	n/a	0	0	0	n/a	n/a	n/a	n/a	n/a
2858.526	n/a	REC_WORD	1429263	wordpools/wasnorm_wordpool_less_exclusions.txt	LTP207	ltpFR	7	10	0	STEM	1376	n/a	n/a	0	n/a	0	0	0	n/a	n/a	n/a	n/a	n/a
2859.99	n/a	REC_WORD	1429995	wordpools/wasnorm_wordpool_less_exclusions.txt	LTP207	ltpFR	7	10	0	PLANT	1083	n/a	n/a	0	n/a	0	0	0	n/a	n/a	n/a	n/a	n/a
2865.594	n/a	REC_WORD	1432797	wordpools/wasnorm_wordpool_less_exclusions.txt	LTP207	ltpFR	7	10	0	DOUGHNUT	490	n/a	n/a	0	n/a	0	0	0	n/a	n/a	n/a	n/a	n/a
2867.134	n/a	REC_WORD	1433567	wordpools/wasnorm_wordpool_less_exclusions.txt	LTP207	ltpFR	7	10	0	LAMP	798	n/a	n/a	1	n/a	0	0	0	n/a	n/a	n/a	n/a	n/a
2880.984	n/a	REC_WORD	1440492	wordpools/wasnorm_wordpool_less_exclusions.txt	LTP207	ltpFR	7	10	0	VILLAGE	1566	n/a	n/a	1	n/a	0	0	0	n/a	n/a	n/a	n/a	n/a
2882.276	n/a	REC_WORD	1441138	wordpools/wasnorm_wordpool_less_exclusions.txt	LTP207	ltpFR	7	10	0	BAY	102	n/a	n/a	1	n/a	0	0	0	n/a	n/a	n/a	n/a	n/a
2896.0	n/a	REC_WORD	1448000	wordpools/wasnorm_wordpool_less_exclusions.txt	LTP207	ltpFR	7	10	0	JUG	762	n/a	n/a	0	n/a	0	0	0	n/a	n/a	n/a	n/a	n/a
2898.788	n/a	REC_WORD	1449394	wordpools/wasnorm_wordpool_less_exclusions.txt	LTP207	ltpFR	7	10	0	WAREHOUSE	1588	n/a	n/a	1	n/a	0	0	0	n/a	n/a	n/a	n/a	n/a
2918.23	n/a	REST_REWET	1459115	n/a	LTP207	ltpFR	7	10	n/a	n/a	n/a	n/a	n/a	n/a	n/a	0	0	0	n/a	n/a	n/a	n/a	n/a
3238.208	n/a	WORD	1619104	wordpools/wasnorm_wordpool_less_exclusions.txt	LTP207	ltpFR	7	11	1	DANDELION	438	n/a	n/a	1	n/a	0	0	0	0.57763671875	0.412841796875	1	upper	zerothre.ttf
3242.284	n/a	WORD	1621142	wordpools/wasnorm_wordpool_less_exclusions.txt	LTP207	ltpFR	7	11	1	ORCHID	982	n/a	n/a	1	n/a	0	0	0	0.57763671875	0.412841796875	1	upper	zerothre.ttf
3246.288	n/a	WORD	1623144	wordpools/wasnorm_wordpool_less_exclusions.txt	LTP207	ltpFR	7	11	1	SUN	1406	n/a	n/a	0	n/a	0	0	0	0.57763671875	0.412841796875	1	upper	zerothre.ttf
3250.136	n/a	WORD	1625068	wordpools/wasnorm_wordpool_less_exclusions.txt	LTP207	ltpFR	7	11	1	BUCKET	184	n/a	n/a	0	n/a	0	0	0	0.57763671875	0.412841796875	1	upper	zerothre.ttf
3254.302	n/a	WORD	1627151	wordpools/wasnorm_wordpool_less_exclusions.txt	LTP207	ltpFR	7	11	1	EMERALD	528	n/a	n/a	0	n/a	0	0	0	0.57763671875	0.412841796875	1	upper	zerothre.ttf
3258.234	n/a	WORD	1629117	wordpools/wasnorm_wordpool_less_exclusions.txt	LTP207	ltpFR	7	11	1	MARKET	871	n/a	n/a	0	n/a	0	0	0	0.57763671875	0.412841796875	1	upper	zerothre.ttf
3262.066	n/a	WORD	1631033	wordpools/wasnorm_wordpool_less_exclusions.txt	LTP207	ltpFR	7	11	1	CAFETERIA	217	n/a	n/a	0	n/a	0	0	0	0.57763671875	0.412841796875	1	upper	zerothre.ttf
3266.024	n/a	WORD	1633012	wordpools/wasnorm_wordpool_less_exclusions.txt	LTP207	ltpFR	7	11	1	CHEMIST	292	n/a	n/a	1	n/a	0	0	0	0.57763671875	0.412841796875	1	upper	zerothre.ttf
3270.08	n/a	WORD	1635040	wordpools/wasnorm_wordpool_less_exclusions.txt	LTP207	ltpFR	7	11	1	OTTER	986	n/a	n/a	1	n/a	0	0	0	0.57763671875	0.412841796875	1	upper	zerothre.ttf
3274.106	n/a	WORD	1637053	wordpools/wasnorm_wordpool_less_exclusions.txt	LTP207	ltpFR	7	11	1	GLASSES	640	n/a	n/a	0	n/a	0	0	0	0.57763671875	0.412841796875	1	upper	zerothre.ttf
3278.178	n/a	WORD	1639089	wordpools/wasnorm_wordpool_less_exclusions.txt	LTP207	ltpFR	7	11	1	ELK	526	n/a	n/a	1	n/a	0	0	0	0.57763671875	0.412841796875	1	upper	zerothre.ttf
3282.136	n/a	WORD	1641068	wordpools/wasnorm_wordpool_less_exclusions.txt	LTP207	ltpFR	7	11	1	CAGE	218	n/a	n/a	0	n/a	0	0	0	0.57763671875	0.412841796875	1	upper	zerothre.ttf
3286.34	n/a	WORD	1643170	wordpools/wasnorm_wordpool_less_exclusions.txt	LTP207	ltpFR	7	11	1	BIRD	129	n/a	n/a	1	n/a	0	0	0	0.57763671875	0.412841796875	1	upper	zerothre.ttf
3290.534	n/a	WORD	1645267	wordpools/wasnorm_wordpool_less_exclusions.txt	LTP207	ltpFR	7	11	1	FAN	551	n/a	n/a	0	n/a	0	0	0	0.57763671875	0.412841796875	1	upper	zerothre.ttf
3294.44	n/a	WORD	1647220	wordpools/wasnorm_wordpool_less_exclusions.txt	LTP207	ltpFR	7	11	1	UMPIRE	1535	n/a	n/a	1	n/a	0	0	0	0.57763671875	0.412841796875	1	upper	zerothre.ttf
3298.47	n/a	WORD	1649235	wordpools/wasnorm_wordpool_less_exclusions.txt	LTP207	ltpFR	7	11	1	RUBY	1214	n/a	n/a	0	n/a	0	0	0	0.57763671875	0.412841796875	1	upper	zerothre.ttf
3301.482	n/a	START	1650741	n/a	LTP207	ltpFR	7	n/a	n/a	n/a	n/a	n/a	n/a	n/a	n/a	n/a	n/a	n/a	n/a	n/a	n/a	n/a	n/a
3302.436	n/a	PROB	1651218	n/a	LTP207	ltpFR	7	n/a	n/a	n/a	n/a	n/a	n/a	n/a	13	4	5	4	n/a	n/a	n/a	n/a	n/a
3304.694	n/a	PROB	1652347	n/a	LTP207	ltpFR	7	n/a	n/a	n/a	n/a	n/a	n/a	n/a	9	3	1	5	n/a	n/a	n/a	n/a	n/a
3309.484	n/a	STOP	1654742	n/a	LTP207	ltpFR	7	n/a	n/a	n/a	n/a	n/a	n/a	n/a	n/a	n/a	n/a	n/a	n/a	n/a	n/a	n/a	n/a
3311.338	n/a	REC_START	1655669	n/a	LTP207	ltpFR	7	11	n/a	n/a	n/a	n/a	n/a	n/a	n/a	0	0	0	n/a	n/a	n/a	n/a	n/a
3315.712	n/a	REC_WORD	1657856	wordpools/wasnorm_wordpool_less_exclusions.txt	LTP207	ltpFR	7	11	1	EMERALD	528	n/a	n/a	0	n/a	0	0	0	n/a	n/a	n/a	n/a	n/a
3316.676	n/a	REC_WORD	1658338	wordpools/wasnorm_wordpool_less_exclusions.txt	LTP207	ltpFR	7	11	1	RUBY	1214	n/a	n/a	0	n/a	0	0	0	n/a	n/a	n/a	n/a	n/a
3322.058	n/a	REC_WORD	1661029	wordpools/wasnorm_wordpool_less_exclusions.txt	LTP207	ltpFR	7	11	1	MARKET	871	n/a	n/a	0	n/a	0	0	0	n/a	n/a	n/a	n/a	n/a
3325.484	n/a	REC_WORD	1662742	wordpools/wasnorm_wordpool_less_exclusions.txt	LTP207	ltpFR	7	11	1	FAN	551	n/a	n/a	0	n/a	0	0	0	n/a	n/a	n/a	n/a	n/a
3327.296	n/a	REC_WORD	1663648	wordpools/wasnorm_wordpool_less_exclusions.txt	LTP207	ltpFR	7	11	1	CAGE	218	n/a	n/a	0	n/a	0	0	0	n/a	n/a	n/a	n/a	n/a
3333.278	n/a	REC_WORD	1666639	wordpools/wasnorm_wordpool_less_exclusions.txt	LTP207	ltpFR	7	11	1	CHEMIST	292	n/a	n/a	1	n/a	0	0	0	n/a	n/a	n/a	n/a	n/a
3336.196	n/a	REC_WORD	1668098	wordpools/wasnorm_wordpool_less_exclusions.txt	LTP207	ltpFR	7	11	1	GLASSES	640	n/a	n/a	0	n/a	0	0	0	n/a	n/a	n/a	n/a	n/a
3338.072	n/a	REC_WORD	1669036	wordpools/wasnorm_wordpool_less_exclusions.txt	LTP207	ltpFR	7	11	1	ELK	526	n/a	n/a	1	n/a	0	0	0	n/a	n/a	n/a	n/a	n/a
3408.158	n/a	START	1704079	n/a	LTP207	ltpFR	7	n/a	n/a	n/a	n/a	n/a	n/a	n/a	n/a	n/a	n/a	n/a	n/a	n/a	n/a	n/a	n/a
3409.674	n/a	PROB	1704837	n/a	LTP207	ltpFR	7	n/a	n/a	n/a	n/a	n/a	n/a	n/a	20	8	4	8	n/a	n/a	n/a	n/a	n/a
3412.234	n/a	PROB	1706117	n/a	LTP207	ltpFR	7	n/a	n/a	n/a	n/a	n/a	n/a	n/a	14	7	6	1	n/a	n/a	n/a	n/a	n/a
3414.726	n/a	PROB	1707363	n/a	LTP207	ltpFR	7	n/a	n/a	n/a	n/a	n/a	n/a	n/a	21	4	9	6	n/a	n/a	n/a	n/a	n/a
3416.784	n/a	PROB	1708392	n/a	LTP207	ltpFR	7	n/a	n/a	n/a	n/a	n/a	n/a	n/a	17	5	9	3	n/a	n/a	n/a	n/a	n/a
3419.042	n/a	PROB	1709521	n/a	LTP207	ltpFR	7	n/a	n/a	n/a	n/a	n/a	n/a	n/a	27	9	9	9	n/a	n/a	n/a	n/a	n/a
3422.088	n/a	PROB	1711044	n/a	LTP207	ltpFR	7	n/a	n/a	n/a	n/a	n/a	n/a	n/a	12	1	2	9	n/a	n/a	n/a	n/a	n/a
3423.87	n/a	STOP	1711935	n/a	LTP207	ltpFR	7	n/a	n/a	n/a	n/a	n/a	n/a	n/a	n/a	n/a	n/a	n/a	n/a	n/a	n/a	n/a	n/a
3425.106	n/a	WORD	1712553	wordpools/wasnorm_wordpool_less_exclusions.txt	LTP207	ltpFR	7	12	0	ACORN	3	n/a	n/a	0	n/a	0	0	0	0.422607421875	0.5869140625	0	lower	amplitud.ttf
3428.118	n/a	START	1714059	n/a	LTP207	ltpFR	7	n/a	n/a	n/a	n/a	n/a	n/a	n/a	n/a	n/a	n/a	n/a	n/a	n/a	n/a	n/a	n/a
3429.132	n/a	PROB	1714566	n/a	LTP207	ltpFR	7	n/a	n/a	n/a	n/a	n/a	n/a	n/a	21	9	7	5	n/a	n/a	n/a	n/a	n/a
3431.658	n/a	PROB	1715829	n/a	LTP207	ltpFR	7	n/a	n/a	n/a	n/a	n/a	n/a	n/a	15	6	8	1	n/a	n/a	n/a	n/a	n/a
3433.938	n/a	PROB	1716969	n/a	LTP207	ltpFR	7	n/a	n/a	n/a	n/a	n/a	n/a	n/a	18	2	8	8	n/a	n/a	n/a	n/a	n/a
3436.024	n/a	PROB	1718012	n/a	LTP207	ltpFR	7	n/a	n/a	n/a	n/a	n/a	n/a	n/a	16	1	8	7	n/a	n/a	n/a	n/a	n/a
3437.786	n/a	PROB	1718893	n/a	LTP207	ltpFR	7	n/a	n/a	n/a	n/a	n/a	n/a	n/a	12	2	2	8	n/a	n/a	n/a	n/a	n/a
3439.46	n/a	PROB	1719730	n/a	LTP207	ltpFR	7	n/a	n/a	n/a	n/a	n/a	n/a	n/a	12	8	8	7	n/a	n/a	n/a	n/a	n/a
3443.87	n/a	STOP	1721935	n/a	LTP207	ltpFR	7	n/a	n/a	n/a	n/a	n/a	n/a	n/a	n/a	n/a	n/a	n/a	n/a	n/a	n/a	n/a	n/a
3445.266	n/a	WORD	1722633	wordpools/wasnorm_wordpool_less_exclusions.txt	LTP207	ltpFR	7	12	0	COP	376	n/a	n/a	1	n/a	0	0	0	0.422607421875	0.5869140625	0	lower	amplitud.ttf
3448.278	n/a	START	1724139	n/a	LTP207	ltpFR	7	n/a	n/a	n/a	n/a	n/a	n/a	n/a	n/a	n/a	n/a	n/a	n/a	n/a	n/a	n/a	n/a
3449.214	n/a	PROB	1724607	n/a	LTP207	ltpFR	7	n/a	n/a	n/a	n/a	n/a	n/a	n/a	16	9	5	5	n/a	n/a	n/a	n/a	n/a
3452.77	n/a	PROB	1726385	n/a	LTP207	ltpFR	7	n/a	n/a	n/a	n/a	n/a	n/a	n/a	22	9	5	9	n/a	n/a	n/a	n/a	n/a
3455.856	n/a	PROB	1727928	n/a	LTP207	ltpFR	7	n/a	n/a	n/a	n/a	n/a	n/a	n/a	13	5	5	3	n/a	n/a	n/a	n/a	n/a
3457.862	n/a	PROB	1728931	n/a	LTP207	ltpFR	7	n/a	n/a	n/a	n/a	n/a	n/a	n/a	13	5	4	4	n/a	n/a	n/a	n/a	n/a
3460.05	n/a	PROB	1730025	n/a	LTP207	ltpFR	7	n/a	n/a	n/a	n/a	n/a	n/a	n/a	19	4	8	7	n/a	n/a	n/a	n/a	n/a
3463.176	n/a	STOP	1731588	n/a	LTP207	ltpFR	7	n/a	n/a	n/a	n/a	n/a	n/a	n/a	n/a	n/a	n/a	n/a	n/a	n/a	n/a	n/a	n/a
3465.16	n/a	WORD	1732580	wordpools/wasnorm_wordpool_less_exclusions.txt	LTP207	ltpFR	7	12	0	ASIA	46	n/a	n/a	1	n/a	0	0	0	0.422607421875	0.5869140625	0	lower	amplitud.ttf
3468.172	n/a	START	1734086	n/a	LTP207	ltpFR	7	n/a	n/a	n/a	n/a	n/a	n/a	n/a	n/a	n/a	n/a	n/a	n/a	n/a	n/a	n/a	n/a
3469.124	n/a	PROB	1734562	n/a	LTP207	ltpFR	7	n/a	n/a	n/a	n/a	n/a	n/a	n/a	14	7	4	3	n/a	n/a	n/a	n/a	n/a
3470.958	n/a	PROB	1735479	n/a	LTP207	ltpFR	7	n/a	n/a	n/a	n/a	n/a	n/a	n/a	15	7	2	6	n/a	n/a	n/a	n/a	n/a
3473.3	n/a	PROB	1736650	n/a	LTP207	ltpFR	7	n/a	n/a	n/a	n/a	n/a	n/a	n/a	4	1	1	2	n/a	n/a	n/a	n/a	n/a
3474.922	n/a	PROB	1737461	n/a	LTP207	ltpFR	7	n/a	n/a	n/a	n/a	n/a	n/a	n/a	16	3	8	5	n/a	n/a	n/a	n/a	n/a
3476.93	n/a	PROB	1738465	n/a	LTP207	ltpFR	7	n/a	n/a	n/a	n/a	n/a	n/a	n/a	13	6	6	1	n/a	n/a	n/a	n/a	n/a
3478.654	n/a	PROB	1739327	n/a	LTP207	ltpFR	7	n/a	n/a	n/a	n/a	n/a	n/a	n/a	24	6	8	9	n/a	n/a	n/a	n/a	n/a
3481.498	n/a	PROB	1740749	n/a	LTP207	ltpFR	7	n/a	n/a	n/a	n/a	n/a	n/a	n/a	12	1	1	9	n/a	n/a	n/a	n/a	n/a
3483.64	n/a	STOP	1741820	n/a	LTP207	ltpFR	7	n/a	n/a	n/a	n/a	n/a	n/a	n/a	n/a	n/a	n/a	n/a	n/a	n/a	n/a	n/a	n/a
3485.068	n/a	WORD	1742534	wordpools/wasnorm_wordpool_less_exclusions.txt	LTP207	ltpFR	7	12	0	STATUE	1374	n/a	n/a	1	n/a	0	0	0	0.422607421875	0.5869140625	0	lower	amplitud.ttf
3488.08	n/a	START	1744040	n/a	LTP207	ltpFR	7	n/a	n/a	n/a	n/a	n/a	n/a	n/a	n/a	n/a	n/a	n/a	n/a	n/a	n/a	n/a	n/a
3489.084	n/a	PROB	1744542	n/a	LTP207	ltpFR	7	n/a	n/a	n/a	n/a	n/a	n/a	n/a	15	7	6	2	n/a	n/a	n/a	n/a	n/a
3492.78	n/a	PROB	1746390	n/a	LTP207	ltpFR	7	n/a	n/a	n/a	n/a	n/a	n/a	n/a	18	1	8	9	n/a	n/a	n/a	n/a	n/a
3495.004	n/a	PROB	1747502	n/a	LTP207	ltpFR	7	n/a	n/a	n/a	n/a	n/a	n/a	n/a	12	4	7	1	n/a	n/a	n/a	n/a	n/a
3497.326	n/a	PROB	1748663	n/a	LTP207	ltpFR	7	n/a	n/a	n/a	n/a	n/a	n/a	n/a	12	5	6	1	n/a	n/a	n/a	n/a	n/a
3498.814	n/a	PROB	1749407	n/a	LTP207	ltpFR	7	n/a	n/a	n/a	n/a	n/a	n/a	n/a	24	9	8	7	n/a	n/a	n/a	n/a	n/a
3501.54	n/a	PROB	1750770	n/a	LTP207	ltpFR	7	n/a	n/a	n/a	n/a	n/a	n/a	n/a	11	3	7	1	n/a	n/a	n/a	n/a	n/a
3502.946	n/a	STOP	1751473	n/a	LTP207	ltpFR	7	n/a	n/a	n/a	n/a	n/a	n/a	n/a	n/a	n/a	n/a	n/a	n/a	n/a	n/a	n/a	n/a
3505.038	n/a	WORD	1752519	wordpools/wasnorm_wordpool_less_exclusions.txt	LTP207	ltpFR	7	12	0	MANSION	864	n/a	n/a	1	n/a	0	0	0	0.422607421875	0.5869140625	0	lower	amplitud.ttf
3508.05	n/a	START	1754025	n/a	LTP207	ltpFR	7	n/a	n/a	n/a	n/a	n/a	n/a	n/a	n/a	n/a	n/a	n/a	n/a	n/a	n/a	n/a	n/a
3508.936	n/a	PROB	1754468	n/a	LTP207	ltpFR	7	n/a	n/a	n/a	n/a	n/a	n/a	n/a	19	8	7	4	n/a	n/a	n/a	n/a	n/a
3513.788	n/a	PROB	1756894	n/a	LTP207	ltpFR	7	n/a	n/a	n/a	n/a	n/a	n/a	n/a	11	1	9	1	n/a	n/a	n/a	n/a	n/a
3516.132	n/a	PROB	1758066	n/a	LTP207	ltpFR	7	n/a	n/a	n/a	n/a	n/a	n/a	n/a	20	6	7	7	n/a	n/a	n/a	n/a	n/a
3518.556	n/a	PROB	1759278	n/a	LTP207	ltpFR	7	n/a	n/a	n/a	n/a	n/a	n/a	n/a	21	7	8	6	n/a	n/a	n/a	n/a	n/a
3524.05	n/a	STOP	1762025	n/a	LTP207	ltpFR	7	n/a	n/a	n/a	n/a	n/a	n/a	n/a	n/a	n/a	n/a	n/a	n/a	n/a	n/a	n/a	n/a
3525.072	n/a	WORD	1762536	wordpools/wasnorm_wordpool_less_exclusions.txt	LTP207	ltpFR	7	12	0	APARTMENT	30	n/a	n/a	1	n/a	0	0	0	0.422607421875	0.5869140625	0	lower	amplitud.ttf
3528.084	n/a	START	1764042	n/a	LTP207	ltpFR	7	n/a	n/a	n/a	n/a	n/a	n/a	n/a	n/a	n/a	n/a	n/a	n/a	n/a	n/a	n/a	n/a
3528.952	n/a	PROB	1764476	n/a	LTP207	ltpFR	7	n/a	n/a	n/a	n/a	n/a	n/a	n/a	20	7	4	9	n/a	n/a	n/a	n/a	n/a
3532.114	n/a	PROB	1766057	n/a	LTP207	ltpFR	7	n/a	n/a	n/a	n/a	n/a	n/a	n/a	22	8	5	9	n/a	n/a	n/a	n/a	n/a
3534.4	n/a	PROB	1767200	n/a	LTP207	ltpFR	7	n/a	n/a	n/a	n/a	n/a	n/a	n/a	22	9	9	4	n/a	n/a	n/a	n/a	n/a
3538.55	n/a	PROB	1769275	n/a	LTP207	ltpFR	7	n/a	n/a	n/a	n/a	n/a	n/a	n/a	9	1	1	7	n/a	n/a	n/a	n/a	n/a
3540.708	n/a	PROB	1770354	n/a	LTP207	ltpFR	7	n/a	n/a	n/a	n/a	n/a	n/a	n/a	16	6	7	3	n/a	n/a	n/a	n/a	n/a
3543.124	n/a	STOP	1771562	n/a	LTP207	ltpFR	7	n/a	n/a	n/a	n/a	n/a	n/a	n/a	n/a	n/a	n/a	n/a	n/a	n/a	n/a	n/a	n/a
3545.214	n/a	WORD	1772607	wordpools/wasnorm_wordpool_less_exclusions.txt	LTP207	ltpFR	7	12	0	PARSLEY	1016	n/a	n/a	0	n/a	0	0	0	0.422607421875	0.5869140625	0	lower	amplitud.ttf
3548.226	n/a	START	1774113	n/a	LTP207	ltpFR	7	n/a	n/a	n/a	n/a	n/a	n/a	n/a	n/a	n/a	n/a	n/a	n/a	n/a	n/a	n/a	n/a
3549.156	n/a	PROB	1774578	n/a	LTP207	ltpFR	7	n/a	n/a	n/a	n/a	n/a	n/a	n/a	10	1	1	8	n/a	n/a	n/a	n/a	n/a
3551.002	n/a	PROB	1775501	n/a	LTP207	ltpFR	7	n/a	n/a	n/a	n/a	n/a	n/a	n/a	23	9	8	6	n/a	n/a	n/a	n/a	n/a
3555.114	n/a	PROB	1777557	n/a	LTP207	ltpFR	7	n/a	n/a	n/a	n/a	n/a	n/a	n/a	13	1	5	7	n/a	n/a	n/a	n/a	n/a
3557.172	n/a	PROB	1778586	n/a	LTP207	ltpFR	7	n/a	n/a	n/a	n/a	n/a	n/a	n/a	15	1	9	5	n/a	n/a	n/a	n/a	n/a
3564.228	n/a	STOP	1782114	n/a	LTP207	ltpFR	7	n/a	n/a	n/a	n/a	n/a	n/a	n/a	n/a	n/a	n/a	n/a	n/a	n/a	n/a	n/a	n/a
3565.384	n/a	WORD	1782692	wordpools/wasnorm_wordpool_less_exclusions.txt	LTP207	ltpFR	7	12	0	CAULIFLOWER	262	n/a	n/a	0	n/a	0	0	0	0.422607421875	0.5869140625	0	lower	amplitud.ttf
3568.396	n/a	START	1784198	n/a	LTP207	ltpFR	7	n/a	n/a	n/a	n/a	n/a	n/a	n/a	n/a	n/a	n/a	n/a	n/a	n/a	n/a	n/a	n/a
3569.272	n/a	PROB	1784636	n/a	LTP207	ltpFR	7	n/a	n/a	n/a	n/a	n/a	n/a	n/a	13	9	1	3	n/a	n/a	n/a	n/a	n/a
3571.242	n/a	PROB	1785621	n/a	LTP207	ltpFR	7	n/a	n/a	n/a	n/a	n/a	n/a	n/a	9	4	1	4	n/a	n/a	n/a	n/a	n/a
3573.616	n/a	PROB	1786808	n/a	LTP207	ltpFR	7	n/a	n/a	n/a	n/a	n/a	n/a	n/a	15	6	2	7	n/a	n/a	n/a	n/a	n/a
3576.21	n/a	PROB	1788105	n/a	LTP207	ltpFR	7	n/a	n/a	n/a	n/a	n/a	n/a	n/a	12	1	7	4	n/a	n/a	n/a	n/a	n/a
3578.468	n/a	PROB	1789234	n/a	LTP207	ltpFR	7	n/a	n/a	n/a	n/a	n/a	n/a	n/a	18	2	9	7	n/a	n/a	n/a	n/a	n/a
3584.396	n/a	STOP	1792198	n/a	LTP207	ltpFR	7	n/a	n/a	n/a	n/a	n/a	n/a	n/a	n/a	n/a	n/a	n/a	n/a	n/a	n/a	n/a	n/a
3585.634	n/a	WORD	1792817	wordpools/wasnorm_wordpool_less_exclusions.txt	LTP207	ltpFR	7	12	0	PERISCOPE	1050	n/a	n/a	1	n/a	0	0	0	0.422607421875	0.5869140625	0	lower	amplitud.ttf
3588.646	n/a	START	1794323	n/a	LTP207	ltpFR	7	n/a	n/a	n/a	n/a	n/a	n/a	n/a	n/a	n/a	n/a	n/a	n/a	n/a	n/a	n/a	n/a
3589.834	n/a	PROB	1794917	n/a	LTP207	ltpFR	7	n/a	n/a	n/a	n/a	n/a	n/a	n/a	18	6	7	5	n/a	n/a	n/a	n/a	n/a
3593.04	n/a	PROB	1796520	n/a	LTP207	ltpFR	7	n/a	n/a	n/a	n/a	n/a	n/a	n/a	19	7	8	4	n/a	n/a	n/a	n/a	n/a
3596.136	n/a	PROB	1798068	n/a	LTP207	ltpFR	7	n/a	n/a	n/a	n/a	n/a	n/a	n/a	14	9	3	2	n/a	n/a	n/a	n/a	n/a
3598.378	n/a	PROB	1799189	n/a	LTP207	ltpFR	7	n/a	n/a	n/a	n/a	n/a	n/a	n/a	25	9	8	9	n/a	n/a	n/a	n/a	n/a
3601.222	n/a	PROB	1800611	n/a	LTP207	ltpFR	7	n/a	n/a	n/a	n/a	n/a	n/a	n/a	16	7	4	5	n/a	n/a	n/a	n/a	n/a
3603.374	n/a	STOP	1801687	n/a	LTP207	ltpFR	7	n/a	n/a	n/a	n/a	n/a	n/a	n/a	n/a	n/a	n/a	n/a	n/a	n/a	n/a	n/a	n/a
3605.862	n/a	WORD	1802931	wordpools/wasnorm_wordpool_less_exclusions.txt	LTP207	ltpFR	7	12	0	BRACELET	163	n/a	n/a	0	n/a	0	0	0	0.422607421875	0.5869140625	0	lower	amplitud.ttf
3608.874	n/a	START	1804437	n/a	LTP207	ltpFR	7	n/a	n/a	n/a	n/a	n/a	n/a	n/a	n/a	n/a	n/a	n/a	n/a	n/a	n/a	n/a	n/a
3609.972	n/a	PROB	1804986	n/a	LTP207	ltpFR	7	n/a	n/a	n/a	n/a	n/a	n/a	n/a	18	5	9	4	n/a	n/a	n/a	n/a	n/a
3613.368	n/a	PROB	1806684	n/a	LTP207	ltpFR	7	n/a	n/a	n/a	n/a	n/a	n/a	n/a	15	8	5	2	n/a	n/a	n/a	n/a	n/a
3615.332	n/a	PROB	1807666	n/a	LTP207	ltpFR	7	n/a	n/a	n/a	n/a	n/a	n/a	n/a	13	7	2	4	n/a	n/a	n/a	n/a	n/a
3617.668	n/a	PROB	1808834	n/a	LTP207	ltpFR	7	n/a	n/a	n/a	n/a	n/a	n/a	n/a	10	1	4	5	n/a	n/a	n/a	n/a	n/a
3620.212	n/a	PROB	1810106	n/a	LTP207	ltpFR	7	n/a	n/a	n/a	n/a	n/a	n/a	n/a	16	7	7	2	n/a	n/a	n/a	n/a	n/a
3622.72	n/a	PROB	1811360	n/a	LTP207	ltpFR	7	n/a	n/a	n/a	n/a	n/a	n/a	n/a	10	3	1	6	n/a	n/a	n/a	n/a	n/a
3624.56	n/a	STOP	1812280	n/a	LTP207	ltpFR	7	n/a	n/a	n/a	n/a	n/a	n/a	n/a	n/a	n/a	n/a	n/a	n/a	n/a	n/a	n/a	n/a
3625.922	n/a	WORD	1812961	wordpools/wasnorm_wordpool_less_exclusions.txt	LTP207	ltpFR	7	12	0	BISCUIT	130	n/a	n/a	0	n/a	0	0	0	0.422607421875	0.5869140625	0	lower	amplitud.ttf
3628.934	n/a	START	1814467	n/a	LTP207	ltpFR	7	n/a	n/a	n/a	n/a	n/a	n/a	n/a	n/a	n/a	n/a	n/a	n/a	n/a	n/a	n/a	n/a
3629.754	n/a	PROB	1814877	n/a	LTP207	ltpFR	7	n/a	n/a	n/a	n/a	n/a	n/a	n/a	10	1	5	4	n/a	n/a	n/a	n/a	n/a
3631.22	n/a	PROB	1815610	n/a	LTP207	ltpFR	7	n/a	n/a	n/a	n/a	n/a	n/a	n/a	14	1	4	9	n/a	n/a	n/a	n/a	n/a
3633.712	n/a	PROB	1816856	n/a	LTP207	ltpFR	7	n/a	n/a	n/a	n/a	n/a	n/a	n/a	16	5	3	8	n/a	n/a	n/a	n/a	n/a
3636.378	n/a	PROB	1818189	n/a	LTP207	ltpFR	7	n/a	n/a	n/a	n/a	n/a	n/a	n/a	17	9	5	3	n/a	n/a	n/a	n/a	n/a
3643.366	n/a	PROB	1821683	n/a	LTP207	ltpFR	7	n/a	n/a	n/a	n/a	n/a	n/a	n/a	10	1	2	7	n/a	n/a	n/a	n/a	n/a
3644.88	n/a	STOP	1822440	n/a	LTP207	ltpFR	7	n/a	n/a	n/a	n/a	n/a	n/a	n/a	n/a	n/a	n/a	n/a	n/a	n/a	n/a	n/a	n/a
3645.982	n/a	WORD	1822991	wordpools/wasnorm_wordpool_less_exclusions.txt	LTP207	ltpFR	7	12	0	TABLET	1427	n/a	n/a	1	n/a	0	0	0	0.422607421875	0.5869140625	0	lower	amplitud.ttf
3648.994	n/a	START	1824497	n/a	LTP207	ltpFR	7	n/a	n/a	n/a	n/a	n/a	n/a	n/a	n/a	n/a	n/a	n/a	n/a	n/a	n/a	n/a	n/a
3649.814	n/a	PROB	1824907	n/a	LTP207	ltpFR	7	n/a	n/a	n/a	n/a	n/a	n/a	n/a	14	5	1	8	n/a	n/a	n/a	n/a	n/a
3652.484	n/a	PROB	1826242	n/a	LTP207	ltpFR	7	n/a	n/a	n/a	n/a	n/a	n/a	n/a	23	9	7	7	n/a	n/a	n/a	n/a	n/a
3656.072	n/a	PROB	1828036	n/a	LTP207	ltpFR	7	n/a	n/a	n/a	n/a	n/a	n/a	n/a	14	2	8	4	n/a	n/a	n/a	n/a	n/a
3657.638	n/a	PROB	1828819	n/a	LTP207	ltpFR	7	n/a	n/a	n/a	n/a	n/a	n/a	n/a	17	7	4	6	n/a	n/a	n/a	n/a	n/a
3660.732	n/a	PROB	1830366	n/a	LTP207	ltpFR	7	n/a	n/a	n/a	n/a	n/a	n/a	n/a	12	2	8	2	n/a	n/a	n/a	n/a	n/a
3662.59	n/a	PROB	1831295	n/a	LTP207	ltpFR	7	n/a	n/a	n/a	n/a	n/a	n/a	n/a	15	8	1	6	n/a	n/a	n/a	n/a	n/a
3664.802	n/a	STOP	1832401	n/a	LTP207	ltpFR	7	n/a	n/a	n/a	n/a	n/a	n/a	n/a	n/a	n/a	n/a	n/a	n/a	n/a	n/a	n/a	n/a
3666.194	n/a	WORD	1833097	wordpools/wasnorm_wordpool_less_exclusions.txt	LTP207	ltpFR	7	12	0	DEPUTY	450	n/a	n/a	1	n/a	0	0	0	0.422607421875	0.5869140625	0	lower	amplitud.ttf
3669.206	n/a	START	1834603	n/a	LTP207	ltpFR	7	n/a	n/a	n/a	n/a	n/a	n/a	n/a	n/a	n/a	n/a	n/a	n/a	n/a	n/a	n/a	n/a
3670.392	n/a	PROB	1835196	n/a	LTP207	ltpFR	7	n/a	n/a	n/a	n/a	n/a	n/a	n/a	12	6	2	5	n/a	n/a	n/a	n/a	n/a
3673.932	n/a	PROB	1836966	n/a	LTP207	ltpFR	7	n/a	n/a	n/a	n/a	n/a	n/a	n/a	15	4	4	7	n/a	n/a	n/a	n/a	n/a
3677.798	n/a	PROB	1838899	n/a	LTP207	ltpFR	7	n/a	n/a	n/a	n/a	n/a	n/a	n/a	25	9	9	7	n/a	n/a	n/a	n/a	n/a
3681.128	n/a	PROB	1840564	n/a	LTP207	ltpFR	7	n/a	n/a	n/a	n/a	n/a	n/a	n/a	20	8	4	8	n/a	n/a	n/a	n/a	n/a
3685.208	n/a	STOP	1842604	n/a	LTP207	ltpFR	7	n/a	n/a	n/a	n/a	n/a	n/a	n/a	n/a	n/a	n/a	n/a	n/a	n/a	n/a	n/a	n/a
3686.286	n/a	WORD	1843143	wordpools/wasnorm_wordpool_less_exclusions.txt	LTP207	ltpFR	7	12	0	SANDWICH	1232	n/a	n/a	1	n/a	0	0	0	0.422607421875	0.5869140625	0	lower	amplitud.ttf
3689.298	n/a	START	1844649	n/a	LTP207	ltpFR	7	n/a	n/a	n/a	n/a	n/a	n/a	n/a	n/a	n/a	n/a	n/a	n/a	n/a	n/a	n/a	n/a
3690.312	n/a	PROB	1845156	n/a	LTP207	ltpFR	7	n/a	n/a	n/a	n/a	n/a	n/a	n/a	24	9	6	9	n/a	n/a	n/a	n/a	n/a
3694.262	n/a	PROB	1847131	n/a	LTP207	ltpFR	7	n/a	n/a	n/a	n/a	n/a	n/a	n/a	19	9	4	6	n/a	n/a	n/a	n/a	n/a
3696.342	n/a	PROB	1848171	n/a	LTP207	ltpFR	7	n/a	n/a	n/a	n/a	n/a	n/a	n/a	14	6	5	3	n/a	n/a	n/a	n/a	n/a
3698.566	n/a	PROB	1849283	n/a	LTP207	ltpFR	7	n/a	n/a	n/a	n/a	n/a	n/a	n/a	6	2	3	1	n/a	n/a	n/a	n/a	n/a
3700.356	n/a	PROB	1850178	n/a	LTP207	ltpFR	7	n/a	n/a	n/a	n/a	n/a	n/a	n/a	17	9	6	2	n/a	n/a	n/a	n/a	n/a
3702.526	n/a	PROB	1851263	n/a	LTP207	ltpFR	7	n/a	n/a	n/a	n/a	n/a	n/a	n/a	19	6	7	6	n/a	n/a	n/a	n/a	n/a
3704.612	n/a	STOP	1852306	n/a	LTP207	ltpFR	7	n/a	n/a	n/a	n/a	n/a	n/a	n/a	n/a	n/a	n/a	n/a	n/a	n/a	n/a	n/a	n/a
3706.364	n/a	WORD	1853182	wordpools/wasnorm_wordpool_less_exclusions.txt	LTP207	ltpFR	7	12	0	MAPLE	866	n/a	n/a	1	n/a	0	0	0	0.422607421875	0.5869140625	0	lower	amplitud.ttf
3709.376	n/a	START	1854688	n/a	LTP207	ltpFR	7	n/a	n/a	n/a	n/a	n/a	n/a	n/a	n/a	n/a	n/a	n/a	n/a	n/a	n/a	n/a	n/a
3710.412	n/a	PROB	1855206	n/a	LTP207	ltpFR	7	n/a	n/a	n/a	n/a	n/a	n/a	n/a	16	9	3	1	n/a	n/a	n/a	n/a	n/a
3713.406	n/a	PROB	1856703	n/a	LTP207	ltpFR	7	n/a	n/a	n/a	n/a	n/a	n/a	n/a	13	5	2	6	n/a	n/a	n/a	n/a	n/a
3716.146	n/a	PROB	1858073	n/a	LTP207	ltpFR	7	n/a	n/a	n/a	n/a	n/a	n/a	n/a	18	8	2	9	n/a	n/a	n/a	n/a	n/a
3725.376	n/a	STOP	1862688	n/a	LTP207	ltpFR	7	n/a	n/a	n/a	n/a	n/a	n/a	n/a	n/a	n/a	n/a	n/a	n/a	n/a	n/a	n/a	n/a
3726.29	n/a	WORD	1863145	wordpools/wasnorm_wordpool_less_exclusions.txt	LTP207	ltpFR	7	12	0	TELESCOPE	1446	n/a	n/a	1	n/a	0	0	0	0.422607421875	0.5869140625	0	lower	amplitud.ttf
3729.302	n/a	START	1864651	n/a	LTP207	ltpFR	7	n/a	n/a	n/a	n/a	n/a	n/a	n/a	n/a	n/a	n/a	n/a	n/a	n/a	n/a	n/a	n/a
3730.182	n/a	PROB	1865091	n/a	LTP207	ltpFR	7	n/a	n/a	n/a	n/a	n/a	n/a	n/a	20	5	8	7	n/a	n/a	n/a	n/a	n/a
3732.798	n/a	PROB	1866399	n/a	LTP207	ltpFR	7	n/a	n/a	n/a	n/a	n/a	n/a	n/a	13	6	6	1	n/a	n/a	n/a	n/a	n/a
3735.384	n/a	PROB	1867692	n/a	LTP207	ltpFR	7	n/a	n/a	n/a	n/a	n/a	n/a	n/a	9	3	1	5	n/a	n/a	n/a	n/a	n/a
3737.626	n/a	PROB	1868813	n/a	LTP207	ltpFR	7	n/a	n/a	n/a	n/a	n/a	n/a	n/a	12	3	3	6	n/a	n/a	n/a	n/a	n/a
3739.968	n/a	PROB	1869984	n/a	LTP207	ltpFR	7	n/a	n/a	n/a	n/a	n/a	n/a	n/a	13	4	2	7	n/a	n/a	n/a	n/a	n/a
3742.178	n/a	PROB	1871089	n/a	LTP207	ltpFR	7	n/a	n/a	n/a	n/a	n/a	n/a	n/a	22	9	9	3	n/a	n/a	n/a	n/a	n/a
3744.2	n/a	STOP	1872100	n/a	LTP207	ltpFR	7	n/a	n/a	n/a	n/a	n/a	n/a	n/a	n/a	n/a	n/a	n/a	n/a	n/a	n/a	n/a	n/a
3747.064	n/a	REC_START	1873532	n/a	LTP207	ltpFR	7	12	n/a	n/a	n/a	n/a	n/a	n/a	n/a	0	0	0	n/a	n/a	n/a	n/a	n/a
3748.59	n/a	REC_WORD	1874295	wordpools/wasnorm_wordpool_less_exclusions.txt	LTP207	ltpFR	7	12	0	PERISCOPE	1050	n/a	n/a	1	n/a	0	0	0	n/a	n/a	n/a	n/a	n/a
3750.086	n/a	REC_WORD	1875043	wordpools/wasnorm_wordpool_less_exclusions.txt	LTP207	ltpFR	7	12	0	DEPUTY	450	n/a	n/a	1	n/a	0	0	0	n/a	n/a	n/a	n/a	n/a
3754.65	n/a	REC_WORD	1877325	wordpools/wasnorm_wordpool_less_exclusions.txt	LTP207	ltpFR	7	12	0	BRACELET	163	n/a	n/a	0	n/a	0	0	0	n/a	n/a	n/a	n/a	n/a
3763.154	n/a	REC_WORD	1881577	wordpools/wasnorm_wordpool_less_exclusions.txt	LTP207	ltpFR	7	12	0	MAPLE	866	n/a	n/a	1	n/a	0	0	0	n/a	n/a	n/a	n/a	n/a
3804.536	n/a	REC_WORD	1902268	wordpools/wasnorm_wordpool_less_exclusions.txt	LTP207	ltpFR	7	12	0	ACORN	3	n/a	n/a	0	n/a	0	0	0	n/a	n/a	n/a	n/a	n/a
3808.696	n/a	REC_WORD	1904348	wordpools/wasnorm_wordpool_less_exclusions.txt	LTP207	ltpFR	7	12	0	ASIA	46	n/a	n/a	1	n/a	0	0	0	n/a	n/a	n/a	n/a	n/a
3845.506	n/a	START	1922753	n/a	LTP207	ltpFR	7	n/a	n/a	n/a	n/a	n/a	n/a	n/a	n/a	n/a	n/a	n/a	n/a	n/a	n/a	n/a	n/a
3847.018	n/a	PROB	1923509	n/a	LTP207	ltpFR	7	n/a	n/a	n/a	n/a	n/a	n/a	n/a	10	5	2	3	n/a	n/a	n/a	n/a	n/a
3850.674	n/a	PROB	1925337	n/a	LTP207	ltpFR	7	n/a	n/a	n/a	n/a	n/a	n/a	n/a	10	3	6	1	n/a	n/a	n/a	n/a	n/a
3852.5	n/a	STOP	1926250	n/a	LTP207	ltpFR	7	n/a	n/a	n/a	n/a	n/a	n/a	n/a	n/a	n/a	n/a	n/a	n/a	n/a	n/a	n/a	n/a
3854.73	n/a	WORD	1927365	wordpools/wasnorm_wordpool_less_exclusions.txt	LTP207	ltpFR	7	13	1	LASH	802	n/a	n/a	0	n/a	0	0	0	0.57763671875	0.412841796875	1	upper	zerothre.ttf
3857.742	n/a	START	1928871	n/a	LTP207	ltpFR	7	n/a	n/a	n/a	n/a	n/a	n/a	n/a	n/a	n/a	n/a	n/a	n/a	n/a	n/a	n/a	n/a
