onset	duration	trial_type	sample	stim_file	subject	experiment	session	trial	item_name	item_num	list	answer	test_x	test_y	test_z
232.48828125	n/a	SESS_START	476136	n/a	LTP385	ltpFR2	3	n/a	n/a	n/a	n/a	n/a	0	0	0
251.60302734375	n/a	START	515283	n/a	LTP385	ltpFR2	3	n/a	n/a	n/a	-1	n/a	n/a	n/a	n/a
251.61669921875	n/a	PROB	515311	n/a	LTP385	ltpFR2	3	n/a	n/a	n/a	-1	13	3	8	2
254.05859375	n/a	PROB	520312	n/a	LTP385	ltpFR2	3	n/a	n/a	n/a	-1	11	1	3	7
255.5458984375	n/a	PROB	523358	n/a	LTP385	ltpFR2	3	n/a	n/a	n/a	-1	6	2	1	4
257.78759765625	n/a	PROB	527949	n/a	LTP385	ltpFR2	3	n/a	n/a	n/a	-1	19	4	9	6
263.6025390625	n/a	STOP	539858	n/a	LTP385	ltpFR2	3	n/a	n/a	n/a	-1	n/a	n/a	n/a	n/a
298.70263671875	n/a	WORD	611743	wordpools/wasnorm_wordpool_576.txt	LTP385	ltpFR2	3	1	ASIA	46	n/a	n/a	0	0	0
301.142578125	n/a	WORD	616740	wordpools/wasnorm_wordpool_576.txt	LTP385	ltpFR2	3	1	NURSE	963	n/a	n/a	0	0	0
303.80126953125	n/a	WORD	622185	wordpools/wasnorm_wordpool_576.txt	LTP385	ltpFR2	3	1	PLATE	1086	n/a	n/a	0	0	0
306.2255859375	n/a	WORD	627150	wordpools/wasnorm_wordpool_576.txt	LTP385	ltpFR2	3	1	CHAUFFEUR	283	n/a	n/a	0	0	0
308.818359375	n/a	WORD	632460	wordpools/wasnorm_wordpool_576.txt	LTP385	ltpFR2	3	1	BRIEFCASE	175	n/a	n/a	0	0	0
311.29150390625	n/a	WORD	637525	wordpools/wasnorm_wordpool_576.txt	LTP385	ltpFR2	3	1	WHISTLE	1606	n/a	n/a	0	0	0
313.71728515625	n/a	WORD	642493	wordpools/wasnorm_wordpool_576.txt	LTP385	ltpFR2	3	1	STICKER	1382	n/a	n/a	0	0	0
316.17431640625	n/a	WORD	647525	wordpools/wasnorm_wordpool_576.txt	LTP385	ltpFR2	3	1	DAISY	435	n/a	n/a	0	0	0
318.63330078125	n/a	WORD	652561	wordpools/wasnorm_wordpool_576.txt	LTP385	ltpFR2	3	1	JELLO	754	n/a	n/a	0	0	0
321.2568359375	n/a	WORD	657934	wordpools/wasnorm_wordpool_576.txt	LTP385	ltpFR2	3	1	CATTLE	261	n/a	n/a	0	0	0
323.94970703125	n/a	WORD	663449	wordpools/wasnorm_wordpool_576.txt	LTP385	ltpFR2	3	1	BLOUSE	139	n/a	n/a	0	0	0
326.64208984375	n/a	WORD	668963	wordpools/wasnorm_wordpool_576.txt	LTP385	ltpFR2	3	1	DRESS	495	n/a	n/a	0	0	0
329.23291015625	n/a	WORD	674269	wordpools/wasnorm_wordpool_576.txt	LTP385	ltpFR2	3	1	BALLOON	75	n/a	n/a	0	0	0
331.77587890625	n/a	WORD	679477	wordpools/wasnorm_wordpool_576.txt	LTP385	ltpFR2	3	1	SKIRT	1319	n/a	n/a	0	0	0
334.3828125	n/a	WORD	684816	wordpools/wasnorm_wordpool_576.txt	LTP385	ltpFR2	3	1	CAFE	216	n/a	n/a	0	0	0
336.87451171875	n/a	WORD	689919	wordpools/wasnorm_wordpool_576.txt	LTP385	ltpFR2	3	1	HOOD	714	n/a	n/a	0	0	0
339.41552734375	n/a	WORD	695123	wordpools/wasnorm_wordpool_576.txt	LTP385	ltpFR2	3	1	FIREPLACE	570	n/a	n/a	0	0	0
341.857421875	n/a	WORD	700124	wordpools/wasnorm_wordpool_576.txt	LTP385	ltpFR2	3	1	FOREST	593	n/a	n/a	0	0	0
344.49853515625	n/a	WORD	705533	wordpools/wasnorm_wordpool_576.txt	LTP385	ltpFR2	3	1	PASTRY	1022	n/a	n/a	0	0	0
347.09033203125	n/a	WORD	710841	wordpools/wasnorm_wordpool_576.txt	LTP385	ltpFR2	3	1	SPACE	1345	n/a	n/a	0	0	0
349.69921875	n/a	WORD	716184	wordpools/wasnorm_wordpool_576.txt	LTP385	ltpFR2	3	1	ROCKET	1202	n/a	n/a	0	0	0
352.2734375	n/a	WORD	721456	wordpools/wasnorm_wordpool_576.txt	LTP385	ltpFR2	3	1	PLAYGROUND	1087	n/a	n/a	0	0	0
354.88330078125	n/a	WORD	726801	wordpools/wasnorm_wordpool_576.txt	LTP385	ltpFR2	3	1	GLOBE	641	n/a	n/a	0	0	0
357.490234375	n/a	WORD	732140	wordpools/wasnorm_wordpool_576.txt	LTP385	ltpFR2	3	1	SURVEY	1414	n/a	n/a	0	0	0
359.09619140625	n/a	START	735429	n/a	LTP385	ltpFR2	3	n/a	n/a	n/a	1	n/a	n/a	n/a	n/a
360.1591796875	n/a	DISTRACTOR	737606	n/a	LTP385	ltpFR2	3	1	n/a	n/a	n/a	n/a	0	0	0
360.1650390625	n/a	PROB	737618	n/a	LTP385	ltpFR2	3	n/a	n/a	n/a	1	13	1	7	5
363.0087890625	n/a	PROB	743442	n/a	LTP385	ltpFR2	3	n/a	n/a	n/a	1	8	2	1	5
364.86474609375	n/a	PROB	747243	n/a	LTP385	ltpFR2	3	n/a	n/a	n/a	1	14	6	1	7
367.94189453125	n/a	PROB	753545	n/a	LTP385	ltpFR2	3	n/a	n/a	n/a	1	16	6	3	7
369.66357421875	n/a	PROB	757071	n/a	LTP385	ltpFR2	3	n/a	n/a	n/a	1	16	8	4	3
372.220703125	n/a	PROB	762308	n/a	LTP385	ltpFR2	3	n/a	n/a	n/a	1	15	4	7	5
376.3505859375	n/a	PROB	770766	n/a	LTP385	ltpFR2	3	n/a	n/a	n/a	1	19	4	7	8
383.09521484375	n/a	STOP	784579	n/a	LTP385	ltpFR2	3	n/a	n/a	n/a	1	n/a	n/a	n/a	n/a
384.96337890625	n/a	REC_START	788405	n/a	LTP385	ltpFR2	3	1	n/a	n/a	n/a	n/a	0	0	0
386.82421875	n/a	REC_WORD	792216	wordpools/wasnorm_wordpool_576.txt	LTP385	ltpFR2	3	1	ASIA	46	n/a	n/a	0	0	0
387.486328125	n/a	REC_WORD	793572	wordpools/wasnorm_wordpool_576.txt	LTP385	ltpFR2	3	1	SPACE	1345	n/a	n/a	0	0	0
389.29248046875	n/a	REC_WORD	797271	wordpools/wasnorm_wordpool_576.txt	LTP385	ltpFR2	3	1	GLOBE	641	n/a	n/a	0	0	0
392.04541015625	n/a	REC_WORD	802909	wordpools/wasnorm_wordpool_576.txt	LTP385	ltpFR2	3	1	FOREST	593	n/a	n/a	0	0	0
393.91796875	n/a	REC_WORD	806744	wordpools/wasnorm_wordpool_576.txt	LTP385	ltpFR2	3	1	NURSE	963	n/a	n/a	0	0	0
395.43603515625	n/a	REC_WORD	809853	wordpools/wasnorm_wordpool_576.txt	LTP385	ltpFR2	3	1	PLATE	1086	n/a	n/a	0	0	0
396.72509765625	n/a	REC_WORD	812493	wordpools/wasnorm_wordpool_576.txt	LTP385	ltpFR2	3	1	JELLO	754	n/a	n/a	0	0	0
398.59423828125	n/a	REC_WORD	816321	wordpools/wasnorm_wordpool_576.txt	LTP385	ltpFR2	3	1	CHAUFFEUR	283	n/a	n/a	0	0	0
400.2587890625	n/a	REC_WORD	819730	wordpools/wasnorm_wordpool_576.txt	LTP385	ltpFR2	3	1	WHISTLE	1606	n/a	n/a	0	0	0
401.8759765625	n/a	REC_WORD	823042	wordpools/wasnorm_wordpool_576.txt	LTP385	ltpFR2	3	1	BRIEFCASE	175	n/a	n/a	0	0	0
411.56982421875	n/a	REC_WORD	842895	wordpools/wasnorm_wordpool_576.txt	LTP385	ltpFR2	3	1	SKIRT	1319	n/a	n/a	0	0	0
415.0107421875	n/a	REC_WORD	849942	wordpools/wasnorm_wordpool_576.txt	LTP385	ltpFR2	3	1	TUTU	1524	n/a	n/a	0	0	0
416.37060546875	n/a	REC_WORD	852727	wordpools/wasnorm_wordpool_576.txt	LTP385	ltpFR2	3	1	DRESS	495	n/a	n/a	0	0	0
427.1533203125	n/a	REC_WORD	874810	wordpools/wasnorm_wordpool_576.txt	LTP385	ltpFR2	3	1	JELLO	754	n/a	n/a	0	0	0
435.10400390625	n/a	REC_WORD	891093	wordpools/wasnorm_wordpool_576.txt	LTP385	ltpFR2	3	1	PLAYGROUND	1087	n/a	n/a	0	0	0
475.4189453125	n/a	WORD	973658	wordpools/wasnorm_wordpool_576.txt	LTP385	ltpFR2	3	2	ZIPPER	1636	n/a	n/a	0	0	0
477.8447265625	n/a	WORD	978626	wordpools/wasnorm_wordpool_576.txt	LTP385	ltpFR2	3	2	CLOTHES	327	n/a	n/a	0	0	0
480.43505859375	n/a	WORD	983931	wordpools/wasnorm_wordpool_576.txt	LTP385	ltpFR2	3	2	SUNSET	1408	n/a	n/a	0	0	0
482.99462890625	n/a	WORD	989173	wordpools/wasnorm_wordpool_576.txt	LTP385	ltpFR2	3	2	MATCH	878	n/a	n/a	0	0	0
485.53466796875	n/a	WORD	994375	wordpools/wasnorm_wordpool_576.txt	LTP385	ltpFR2	3	2	SALAD	1224	n/a	n/a	0	0	0
488.32763671875	n/a	WORD	1000095	wordpools/wasnorm_wordpool_576.txt	LTP385	ltpFR2	3	2	CRATER	400	n/a	n/a	0	0	0
490.91943359375	n/a	WORD	1005403	wordpools/wasnorm_wordpool_576.txt	LTP385	ltpFR2	3	2	OUTDOORS	987	n/a	n/a	0	0	0
493.46044921875	n/a	WORD	1010607	wordpools/wasnorm_wordpool_576.txt	LTP385	ltpFR2	3	2	CONCERT	360	n/a	n/a	0	0	0
496.0537109375	n/a	WORD	1015918	wordpools/wasnorm_wordpool_576.txt	LTP385	ltpFR2	3	2	LAMP	798	n/a	n/a	0	0	0
498.71142578125	n/a	WORD	1021361	wordpools/wasnorm_wordpool_576.txt	LTP385	ltpFR2	3	2	PARTNER	1017	n/a	n/a	0	0	0
501.25244140625	n/a	WORD	1026565	wordpools/wasnorm_wordpool_576.txt	LTP385	ltpFR2	3	2	SEAGULL	1261	n/a	n/a	0	0	0
503.9951171875	n/a	WORD	1032182	wordpools/wasnorm_wordpool_576.txt	LTP385	ltpFR2	3	2	FEMALE	559	n/a	n/a	0	0	0
506.51904296875	n/a	WORD	1037351	wordpools/wasnorm_wordpool_576.txt	LTP385	ltpFR2	3	2	ACTOR	5	n/a	n/a	0	0	0
509.328125	n/a	WORD	1043104	wordpools/wasnorm_wordpool_576.txt	LTP385	ltpFR2	3	2	SNAKE	1333	n/a	n/a	0	0	0
512.0703125	n/a	WORD	1048720	wordpools/wasnorm_wordpool_576.txt	LTP385	ltpFR2	3	2	EYELASH	546	n/a	n/a	0	0	0
514.4951171875	n/a	WORD	1053686	wordpools/wasnorm_wordpool_576.txt	LTP385	ltpFR2	3	2	HIKER	708	n/a	n/a	0	0	0
517.169921875	n/a	WORD	1059164	wordpools/wasnorm_wordpool_576.txt	LTP385	ltpFR2	3	2	TABLE	1426	n/a	n/a	0	0	0
519.845703125	n/a	WORD	1064644	wordpools/wasnorm_wordpool_576.txt	LTP385	ltpFR2	3	2	PADDING	999	n/a	n/a	0	0	0
522.5537109375	n/a	WORD	1070190	wordpools/wasnorm_wordpool_576.txt	LTP385	ltpFR2	3	2	FLUTE	585	n/a	n/a	0	0	0
525.07861328125	n/a	WORD	1075361	wordpools/wasnorm_wordpool_576.txt	LTP385	ltpFR2	3	2	COUNTRY	388	n/a	n/a	0	0	0
527.8388671875	n/a	WORD	1081014	wordpools/wasnorm_wordpool_576.txt	LTP385	ltpFR2	3	2	DIVER	476	n/a	n/a	0	0	0
530.41259765625	n/a	WORD	1086285	wordpools/wasnorm_wordpool_576.txt	LTP385	ltpFR2	3	2	RIVER	1194	n/a	n/a	0	0	0
533.00537109375	n/a	WORD	1091595	wordpools/wasnorm_wordpool_576.txt	LTP385	ltpFR2	3	2	BREAST	171	n/a	n/a	0	0	0
535.814453125	n/a	WORD	1097348	wordpools/wasnorm_wordpool_576.txt	LTP385	ltpFR2	3	2	BUG	187	n/a	n/a	0	0	0
537.41845703125	n/a	START	1100633	n/a	LTP385	ltpFR2	3	n/a	n/a	n/a	2	n/a	n/a	n/a	n/a
538.38525390625	n/a	DISTRACTOR	1102613	n/a	LTP385	ltpFR2	3	2	n/a	n/a	n/a	n/a	0	0	0
538.38818359375	n/a	PROB	1102619	n/a	LTP385	ltpFR2	3	n/a	n/a	n/a	2	12	7	3	2
540.361328125	n/a	PROB	1106660	n/a	LTP385	ltpFR2	3	n/a	n/a	n/a	2	15	3	6	6
543.38720703125	n/a	PROB	1112857	n/a	LTP385	ltpFR2	3	n/a	n/a	n/a	2	14	5	2	7
545.84619140625	n/a	PROB	1117893	n/a	LTP385	ltpFR2	3	n/a	n/a	n/a	2	21	5	8	8
548.27001953125	n/a	PROB	1122857	n/a	LTP385	ltpFR2	3	n/a	n/a	n/a	2	18	6	5	7
551.916015625	n/a	PROB	1130324	n/a	LTP385	ltpFR2	3	n/a	n/a	n/a	2	11	3	1	7
553.7890625	n/a	PROB	1134160	n/a	LTP385	ltpFR2	3	n/a	n/a	n/a	2	21	9	5	7
561.416015625	n/a	STOP	1149780	n/a	LTP385	ltpFR2	3	n/a	n/a	n/a	2	n/a	n/a	n/a	n/a
563.3359375	n/a	REC_START	1153712	n/a	LTP385	ltpFR2	3	2	n/a	n/a	n/a	n/a	0	0	0
567.15673828125	n/a	REC_WORD	1161537	wordpools/wasnorm_wordpool_576.txt	LTP385	ltpFR2	3	2	BUG	187	n/a	n/a	0	0	0
567.65087890625	n/a	REC_WORD	1162549	wordpools/wasnorm_wordpool_576.txt	LTP385	ltpFR2	3	2	SUNSET	1408	n/a	n/a	0	0	0
569.2763671875	n/a	REC_WORD	1165878	wordpools/wasnorm_wordpool_576.txt	LTP385	ltpFR2	3	2	OUTDOORS	987	n/a	n/a	0	0	0
570.2705078125	n/a	REC_WORD	1167914	wordpools/wasnorm_wordpool_576.txt	LTP385	ltpFR2	3	2	RIVER	1194	n/a	n/a	0	0	0
571.29833984375	n/a	REC_WORD	1170019	wordpools/wasnorm_wordpool_576.txt	LTP385	ltpFR2	3	2	DIVER	476	n/a	n/a	0	0	0
574.59765625	n/a	REC_WORD	1176776	wordpools/wasnorm_wordpool_576.txt	LTP385	ltpFR2	3	2	PARTNER	1017	n/a	n/a	0	0	0
576.4404296875	n/a	REC_WORD	1180550	wordpools/wasnorm_wordpool_576.txt	LTP385	ltpFR2	3	2	WOMAN	1620	n/a	n/a	0	0	0
578.01025390625	n/a	REC_WORD	1183765	wordpools/wasnorm_wordpool_576.txt	LTP385	ltpFR2	3	2	FIREPLACE	570	n/a	n/a	0	0	0
579.8564453125	n/a	REC_WORD	1187546	wordpools/wasnorm_wordpool_576.txt	LTP385	ltpFR2	3	2	MATCH	878	n/a	n/a	0	0	0
583.38623046875	n/a	REC_WORD	1194775	wordpools/wasnorm_wordpool_576.txt	LTP385	ltpFR2	3	2	ACTOR	5	n/a	n/a	0	0	0
586.5322265625	n/a	REC_WORD	1201218	wordpools/wasnorm_wordpool_576.txt	LTP385	ltpFR2	3	2	CRATER	400	n/a	n/a	0	0	0
653.7763671875	n/a	DISTRACTOR	1338934	n/a	LTP385	ltpFR2	3	3	n/a	n/a	n/a	n/a	0	0	0
653.7763671875	n/a	START	1338934	n/a	LTP385	ltpFR2	3	n/a	n/a	n/a	3	n/a	n/a	n/a	n/a
653.79345703125	n/a	PROB	1338969	n/a	LTP385	ltpFR2	3	n/a	n/a	n/a	3	23	9	7	7
661.13232421875	n/a	PROB	1353999	n/a	LTP385	ltpFR2	3	n/a	n/a	n/a	3	14	3	9	2
663.958984375	n/a	PROB	1359788	n/a	LTP385	ltpFR2	3	n/a	n/a	n/a	3	12	3	7	2
665.73193359375	n/a	PROB	1363419	n/a	LTP385	ltpFR2	3	n/a	n/a	n/a	3	12	7	1	4
668.7412109375	n/a	PROB	1369582	n/a	LTP385	ltpFR2	3	n/a	n/a	n/a	3	18	4	7	7
671.7177734375	n/a	PROB	1375678	n/a	LTP385	ltpFR2	3	n/a	n/a	n/a	3	15	7	1	7
673.94189453125	n/a	PROB	1380233	n/a	LTP385	ltpFR2	3	n/a	n/a	n/a	3	14	4	9	1
675.8310546875	n/a	PROB	1384102	n/a	LTP385	ltpFR2	3	n/a	n/a	n/a	3	10	7	2	1
677.48486328125	n/a	STOP	1387489	n/a	LTP385	ltpFR2	3	n/a	n/a	n/a	3	n/a	n/a	n/a	n/a
678.6728515625	n/a	WORD	1389922	wordpools/wasnorm_wordpool_576.txt	LTP385	ltpFR2	3	3	QUARTER	1148	n/a	n/a	0	0	0
681.44775390625	n/a	WORD	1395605	wordpools/wasnorm_wordpool_576.txt	LTP385	ltpFR2	3	3	RADISH	1158	n/a	n/a	0	0	0
684.2236328125	n/a	WORD	1401290	wordpools/wasnorm_wordpool_576.txt	LTP385	ltpFR2	3	3	DINER	467	n/a	n/a	0	0	0
686.71533203125	n/a	WORD	1406393	wordpools/wasnorm_wordpool_576.txt	LTP385	ltpFR2	3	3	SNACK	1331	n/a	n/a	0	0	0
689.390625	n/a	WORD	1411872	wordpools/wasnorm_wordpool_576.txt	LTP385	ltpFR2	3	3	UNCLE	1536	n/a	n/a	0	0	0
692.08251953125	n/a	WORD	1417385	wordpools/wasnorm_wordpool_576.txt	LTP385	ltpFR2	3	3	BATHTUB	100	n/a	n/a	0	0	0
694.5234375	n/a	WORD	1422384	wordpools/wasnorm_wordpool_576.txt	LTP385	ltpFR2	3	3	SPOOL	1356	n/a	n/a	0	0	0
697.3154296875	n/a	WORD	1428102	wordpools/wasnorm_wordpool_576.txt	LTP385	ltpFR2	3	3	OYSTER	995	n/a	n/a	0	0	0
700.09130859375	n/a	WORD	1433787	wordpools/wasnorm_wordpool_576.txt	LTP385	ltpFR2	3	3	LETTUCE	814	n/a	n/a	0	0	0
702.59912109375	n/a	WORD	1438923	wordpools/wasnorm_wordpool_576.txt	LTP385	ltpFR2	3	3	MILDEW	893	n/a	n/a	0	0	0
705.25830078125	n/a	WORD	1444369	wordpools/wasnorm_wordpool_576.txt	LTP385	ltpFR2	3	3	HATCHET	691	n/a	n/a	0	0	0
708.01806640625	n/a	WORD	1450021	wordpools/wasnorm_wordpool_576.txt	LTP385	ltpFR2	3	3	SPOON	1357	n/a	n/a	0	0	0
710.77685546875	n/a	WORD	1455671	wordpools/wasnorm_wordpool_576.txt	LTP385	ltpFR2	3	3	ANKLE	24	n/a	n/a	0	0	0
713.48388671875	n/a	WORD	1461215	wordpools/wasnorm_wordpool_576.txt	LTP385	ltpFR2	3	3	TOMBSTONE	1478	n/a	n/a	0	0	0
716.27685546875	n/a	WORD	1466935	wordpools/wasnorm_wordpool_576.txt	LTP385	ltpFR2	3	3	DENTIST	447	n/a	n/a	0	0	0
719.03662109375	n/a	WORD	1472587	wordpools/wasnorm_wordpool_576.txt	LTP385	ltpFR2	3	3	FRIEND	606	n/a	n/a	0	0	0
721.509765625	n/a	WORD	1477652	wordpools/wasnorm_wordpool_576.txt	LTP385	ltpFR2	3	3	COIN	343	n/a	n/a	0	0	0
724.2685546875	n/a	WORD	1483302	wordpools/wasnorm_wordpool_576.txt	LTP385	ltpFR2	3	3	PLAID	1080	n/a	n/a	0	0	0
726.6943359375	n/a	WORD	1488270	wordpools/wasnorm_wordpool_576.txt	LTP385	ltpFR2	3	3	LACE	792	n/a	n/a	0	0	0
729.40234375	n/a	WORD	1493816	wordpools/wasnorm_wordpool_576.txt	LTP385	ltpFR2	3	3	TURNIP	1521	n/a	n/a	0	0	0
732.01123046875	n/a	WORD	1499159	wordpools/wasnorm_wordpool_576.txt	LTP385	ltpFR2	3	3	MEAT	883	n/a	n/a	0	0	0
734.67041015625	n/a	WORD	1504605	wordpools/wasnorm_wordpool_576.txt	LTP385	ltpFR2	3	3	GIRL	637	n/a	n/a	0	0	0
737.4111328125	n/a	WORD	1510218	wordpools/wasnorm_wordpool_576.txt	LTP385	ltpFR2	3	3	RABBIT	1152	n/a	n/a	0	0	0
740.037109375	n/a	WORD	1515596	wordpools/wasnorm_wordpool_576.txt	LTP385	ltpFR2	3	3	FARMER	553	n/a	n/a	0	0	0
741.64208984375	n/a	START	1518883	n/a	LTP385	ltpFR2	3	n/a	n/a	n/a	4	n/a	n/a	n/a	n/a
742.6240234375	n/a	DISTRACTOR	1520894	n/a	LTP385	ltpFR2	3	3	n/a	n/a	n/a	n/a	0	0	0
742.62890625	n/a	PROB	1520904	n/a	LTP385	ltpFR2	3	n/a	n/a	n/a	4	14	6	2	6
745.0361328125	n/a	PROB	1525834	n/a	LTP385	ltpFR2	3	n/a	n/a	n/a	4	20	5	8	7
748.19580078125	n/a	PROB	1532305	n/a	LTP385	ltpFR2	3	n/a	n/a	n/a	4	8	6	1	1
749.76806640625	n/a	PROB	1535525	n/a	LTP385	ltpFR2	3	n/a	n/a	n/a	4	6	2	1	3
752.07470703125	n/a	PROB	1540249	n/a	LTP385	ltpFR2	3	n/a	n/a	n/a	4	14	4	4	6
755.06787109375	n/a	PROB	1546379	n/a	LTP385	ltpFR2	3	n/a	n/a	n/a	4	17	5	5	7
756.85791015625	n/a	PROB	1550045	n/a	LTP385	ltpFR2	3	n/a	n/a	n/a	4	21	5	9	7
759.49853515625	n/a	PROB	1555453	n/a	LTP385	ltpFR2	3	n/a	n/a	n/a	4	20	7	8	5
763.193359375	n/a	PROB	1563020	n/a	LTP385	ltpFR2	3	n/a	n/a	n/a	4	17	8	7	2
765.63037109375	n/a	STOP	1568011	n/a	LTP385	ltpFR2	3	n/a	n/a	n/a	4	n/a	n/a	n/a	n/a
767.54150390625	n/a	REC_START	1571925	n/a	LTP385	ltpFR2	3	3	n/a	n/a	n/a	n/a	0	0	0
770.943359375	n/a	REC_WORD	1578892	wordpools/wasnorm_wordpool_576.txt	LTP385	ltpFR2	3	3	DINER	467	n/a	n/a	0	0	0
771.60546875	n/a	REC_WORD	1580248	wordpools/wasnorm_wordpool_576.txt	LTP385	ltpFR2	3	3	SNACK	1331	n/a	n/a	0	0	0
772.91015625	n/a	REC_WORD	1582920	wordpools/wasnorm_wordpool_576.txt	LTP385	ltpFR2	3	3	UNCLE	1536	n/a	n/a	0	0	0
773.7744140625	n/a	REC_WORD	1584690	wordpools/wasnorm_wordpool_576.txt	LTP385	ltpFR2	3	3	BATHTUB	100	n/a	n/a	0	0	0
774.662109375	n/a	REC_WORD	1586508	wordpools/wasnorm_wordpool_576.txt	LTP385	ltpFR2	3	3	HATCHET	691	n/a	n/a	0	0	0
775.70849609375	n/a	REC_WORD	1588651	wordpools/wasnorm_wordpool_576.txt	LTP385	ltpFR2	3	3	ANKLE	24	n/a	n/a	0	0	0
776.89111328125	n/a	REC_WORD	1591073	wordpools/wasnorm_wordpool_576.txt	LTP385	ltpFR2	3	3	TOMBSTONE	1478	n/a	n/a	0	0	0
779.875	n/a	REC_WORD	1597184	wordpools/wasnorm_wordpool_576.txt	LTP385	ltpFR2	3	3	FRIEND	606	n/a	n/a	0	0	0
780.8251953125	n/a	REC_WORD	1599130	wordpools/wasnorm_wordpool_576.txt	LTP385	ltpFR2	3	3	DENTIST	447	n/a	n/a	0	0	0
782.12890625	n/a	REC_WORD	1601800	wordpools/wasnorm_wordpool_576.txt	LTP385	ltpFR2	3	3	GIRL	637	n/a	n/a	0	0	0
791.330078125	n/a	REC_WORD	1620644	wordpools/wasnorm_wordpool_576.txt	LTP385	ltpFR2	3	3	QUARTER	1148	n/a	n/a	0	0	0
792.43505859375	n/a	REC_WORD	1622907	wordpools/wasnorm_wordpool_576.txt	LTP385	ltpFR2	3	3	COIN	343	n/a	n/a	0	0	0
793.69482421875	n/a	REC_WORD	1625487	wordpools/wasnorm_wordpool_576.txt	LTP385	ltpFR2	3	3	RADISH	1158	n/a	n/a	0	0	0
795.73486328125	n/a	REC_WORD	1629665	wordpools/wasnorm_wordpool_576.txt	LTP385	ltpFR2	3	3	OYSTER	995	n/a	n/a	0	0	0
796.6005859375	n/a	REC_WORD	1631438	wordpools/wasnorm_wordpool_576.txt	LTP385	ltpFR2	3	3	SPOON	1357	n/a	n/a	0	0	0
797.61474609375	n/a	REC_WORD	1633515	wordpools/wasnorm_wordpool_576.txt	LTP385	ltpFR2	3	3	SALAD	1224	n/a	n/a	0	0	0
799.54345703125	n/a	REC_WORD	1637465	wordpools/wasnorm_wordpool_576.txt	LTP385	ltpFR2	3	3	TURNIP	1521	n/a	n/a	0	0	0
803.2314453125	n/a	REC_WORD	1645018	wordpools/wasnorm_wordpool_576.txt	LTP385	ltpFR2	3	3	MEAT	883	n/a	n/a	0	0	0
807.0556640625	n/a	REC_WORD	1652850	wordpools/wasnorm_wordpool_576.txt	LTP385	ltpFR2	3	3	RABBIT	1152	n/a	n/a	0	0	0
857.98291015625	n/a	DISTRACTOR	1757149	n/a	LTP385	ltpFR2	3	4	n/a	n/a	n/a	n/a	0	0	0
857.98291015625	n/a	START	1757149	n/a	LTP385	ltpFR2	3	n/a	n/a	n/a	5	n/a	n/a	n/a	n/a
857.9990234375	n/a	PROB	1757182	n/a	LTP385	ltpFR2	3	n/a	n/a	n/a	5	19	5	5	9
859.8720703125	n/a	PROB	1761018	n/a	LTP385	ltpFR2	3	n/a	n/a	n/a	5	7	2	4	1
862.02880859375	n/a	PROB	1765435	n/a	LTP385	ltpFR2	3	n/a	n/a	n/a	5	12	5	6	1
864.40283203125	n/a	PROB	1770297	n/a	LTP385	ltpFR2	3	n/a	n/a	n/a	5	21	9	7	5
867.2451171875	n/a	PROB	1776118	n/a	LTP385	ltpFR2	3	n/a	n/a	n/a	5	24	7	8	9
871.35791015625	n/a	PROB	1784541	n/a	LTP385	ltpFR2	3	n/a	n/a	n/a	5	10	3	4	3
876.15673828125	n/a	PROB	1794369	n/a	LTP385	ltpFR2	3	n/a	n/a	n/a	5	18	4	7	7
878.4306640625	n/a	PROB	1799026	n/a	LTP385	ltpFR2	3	n/a	n/a	n/a	5	10	2	3	5
881.9814453125	n/a	STOP	1806298	n/a	LTP385	ltpFR2	3	n/a	n/a	n/a	5	n/a	n/a	n/a	n/a
882.8623046875	n/a	WORD	1808102	wordpools/wasnorm_wordpool_576.txt	LTP385	ltpFR2	3	4	AWARD	63	n/a	n/a	0	0	0
885.53759765625	n/a	WORD	1813581	wordpools/wasnorm_wordpool_576.txt	LTP385	ltpFR2	3	4	SERVER	1272	n/a	n/a	0	0	0
888.12841796875	n/a	WORD	1818887	wordpools/wasnorm_wordpool_576.txt	LTP385	ltpFR2	3	4	BURGLAR	200	n/a	n/a	0	0	0
890.88818359375	n/a	WORD	1824539	wordpools/wasnorm_wordpool_576.txt	LTP385	ltpFR2	3	4	SCRIBBLE	1256	n/a	n/a	0	0	0
893.46240234375	n/a	WORD	1829811	wordpools/wasnorm_wordpool_576.txt	LTP385	ltpFR2	3	4	AUTHOR	61	n/a	n/a	0	0	0
895.92138671875	n/a	WORD	1834847	wordpools/wasnorm_wordpool_576.txt	LTP385	ltpFR2	3	4	TWEEZERS	1526	n/a	n/a	0	0	0
898.56201171875	n/a	WORD	1840255	wordpools/wasnorm_wordpool_576.txt	LTP385	ltpFR2	3	4	BANJO	82	n/a	n/a	0	0	0
901.35400390625	n/a	WORD	1845973	wordpools/wasnorm_wordpool_576.txt	LTP385	ltpFR2	3	4	DRAGON	492	n/a	n/a	0	0	0
904.080078125	n/a	WORD	1851556	wordpools/wasnorm_wordpool_576.txt	LTP385	ltpFR2	3	4	DRILL	497	n/a	n/a	0	0	0
906.5048828125	n/a	WORD	1856522	wordpools/wasnorm_wordpool_576.txt	LTP385	ltpFR2	3	4	SERVANT	1271	n/a	n/a	0	0	0
909.1796875	n/a	WORD	1862000	wordpools/wasnorm_wordpool_576.txt	LTP385	ltpFR2	3	4	CHEST	295	n/a	n/a	0	0	0
911.70556640625	n/a	WORD	1867173	wordpools/wasnorm_wordpool_576.txt	LTP385	ltpFR2	3	4	MARROW	872	n/a	n/a	0	0	0
914.16259765625	n/a	WORD	1872205	wordpools/wasnorm_wordpool_576.txt	LTP385	ltpFR2	3	4	CURTAIN	427	n/a	n/a	0	0	0
916.888671875	n/a	WORD	1877788	wordpools/wasnorm_wordpool_576.txt	LTP385	ltpFR2	3	4	CROSS	413	n/a	n/a	0	0	0
919.61474609375	n/a	WORD	1883371	wordpools/wasnorm_wordpool_576.txt	LTP385	ltpFR2	3	4	ULCER	1533	n/a	n/a	0	0	0
922.37255859375	n/a	WORD	1889019	wordpools/wasnorm_wordpool_576.txt	LTP385	ltpFR2	3	4	COUCH	386	n/a	n/a	0	0	0
924.79736328125	n/a	WORD	1893985	wordpools/wasnorm_wordpool_576.txt	LTP385	ltpFR2	3	4	MOTEL	919	n/a	n/a	0	0	0
927.28857421875	n/a	WORD	1899087	wordpools/wasnorm_wordpool_576.txt	LTP385	ltpFR2	3	4	KEEPER	769	n/a	n/a	0	0	0
929.71337890625	n/a	WORD	1904053	wordpools/wasnorm_wordpool_576.txt	LTP385	ltpFR2	3	4	TAXI	1438	n/a	n/a	0	0	0
932.30419921875	n/a	WORD	1909359	wordpools/wasnorm_wordpool_576.txt	LTP385	ltpFR2	3	4	TUBA	1515	n/a	n/a	0	0	0
934.89697265625	n/a	WORD	1914669	wordpools/wasnorm_wordpool_576.txt	LTP385	ltpFR2	3	4	GYMNAST	675	n/a	n/a	0	0	0
937.50390625	n/a	WORD	1920008	wordpools/wasnorm_wordpool_576.txt	LTP385	ltpFR2	3	4	NEUTRON	947	n/a	n/a	0	0	0
939.97998046875	n/a	WORD	1925079	wordpools/wasnorm_wordpool_576.txt	LTP385	ltpFR2	3	4	SNAIL	1332	n/a	n/a	0	0	0
942.5537109375	n/a	WORD	1930350	wordpools/wasnorm_wordpool_576.txt	LTP385	ltpFR2	3	4	TURTLE	1522	n/a	n/a	0	0	0
944.15869140625	n/a	START	1933637	n/a	LTP385	ltpFR2	3	n/a	n/a	n/a	6	n/a	n/a	n/a	n/a
945.05712890625	n/a	DISTRACTOR	1935477	n/a	LTP385	ltpFR2	3	4	n/a	n/a	n/a	n/a	0	0	0
945.06201171875	n/a	PROB	1935487	n/a	LTP385	ltpFR2	3	n/a	n/a	n/a	6	7	5	1	1
947.35205078125	n/a	PROB	1940177	n/a	LTP385	ltpFR2	3	n/a	n/a	n/a	6	11	2	1	8
949.677734375	n/a	PROB	1944940	n/a	LTP385	ltpFR2	3	n/a	n/a	n/a	6	15	2	4	9
952.267578125	n/a	PROB	1950244	n/a	LTP385	ltpFR2	3	n/a	n/a	n/a	6	11	4	3	4
955.3115234375	n/a	PROB	1956478	n/a	LTP385	ltpFR2	3	n/a	n/a	n/a	6	16	5	6	5
957.6015625	n/a	PROB	1961168	n/a	LTP385	ltpFR2	3	n/a	n/a	n/a	6	18	8	8	2
959.82666015625	n/a	PROB	1965725	n/a	LTP385	ltpFR2	3	n/a	n/a	n/a	6	10	6	2	2
962.06640625	n/a	PROB	1970312	n/a	LTP385	ltpFR2	3	n/a	n/a	n/a	6	4	1	2	1
963.95654296875	n/a	PROB	1974183	n/a	LTP385	ltpFR2	3	n/a	n/a	n/a	6	21	5	9	7
968.1572265625	n/a	STOP	1982786	n/a	LTP385	ltpFR2	3	n/a	n/a	n/a	6	n/a	n/a	n/a	n/a
970.01025390625	n/a	REC_START	1986581	n/a	LTP385	ltpFR2	3	4	n/a	n/a	n/a	n/a	0	0	0
972.9609375	n/a	REC_WORD	1992624	wordpools/wasnorm_wordpool_576.txt	LTP385	ltpFR2	3	4	MOTEL	919	n/a	n/a	0	0	0
973.7890625	n/a	REC_WORD	1994320	wordpools/wasnorm_wordpool_576.txt	LTP385	ltpFR2	3	4	COUCH	386	n/a	n/a	0	0	0
974.826171875	n/a	REC_WORD	1996444	wordpools/wasnorm_wordpool_576.txt	LTP385	ltpFR2	3	4	AWARD	63	n/a	n/a	0	0	0
976.76416015625	n/a	REC_WORD	2000413	wordpools/wasnorm_wordpool_576.txt	LTP385	ltpFR2	3	4	SERVER	1272	n/a	n/a	0	0	0
977.60986328125	n/a	REC_WORD	2002145	wordpools/wasnorm_wordpool_576.txt	LTP385	ltpFR2	3	4	SERVANT	1271	n/a	n/a	0	0	0
993.310546875	n/a	REC_WORD	2034300	wordpools/wasnorm_wordpool_576.txt	LTP385	ltpFR2	3	4	NEUTRON	947	n/a	n/a	0	0	0
994.33740234375	n/a	REC_WORD	2036403	wordpools/wasnorm_wordpool_576.txt	LTP385	ltpFR2	3	4	MAY	-1	n/a	n/a	0	0	0
995.8427734375	n/a	REC_WORD	2039486	wordpools/wasnorm_wordpool_576.txt	LTP385	ltpFR2	3	4	MARROW	872	n/a	n/a	0	0	0
1006.228515625	n/a	REC_WORD	2060756	wordpools/wasnorm_wordpool_576.txt	LTP385	ltpFR2	3	4	TAXI	1438	n/a	n/a	0	0	0
1060.44873046875	n/a	DISTRACTOR	2171799	n/a	LTP385	ltpFR2	3	5	n/a	n/a	n/a	n/a	0	0	0
1060.44873046875	n/a	START	2171799	n/a	LTP385	ltpFR2	3	n/a	n/a	n/a	7	n/a	n/a	n/a	n/a
1060.4658203125	n/a	PROB	2171834	n/a	LTP385	ltpFR2	3	n/a	n/a	n/a	7	24	9	9	6
1063.375	n/a	PROB	2177792	n/a	LTP385	ltpFR2	3	n/a	n/a	n/a	7	21	8	9	4
1069.12646484375	n/a	PROB	2189571	n/a	LTP385	ltpFR2	3	n/a	n/a	n/a	7	13	3	7	3
1071.0498046875	n/a	PROB	2193510	n/a	LTP385	ltpFR2	3	n/a	n/a	n/a	7	17	1	8	8
1073.12255859375	n/a	PROB	2197755	n/a	LTP385	ltpFR2	3	n/a	n/a	n/a	7	8	2	5	1
1075.12939453125	n/a	PROB	2201865	n/a	LTP385	ltpFR2	3	n/a	n/a	n/a	7	18	9	6	3
1077.67236328125	n/a	PROB	2207073	n/a	LTP385	ltpFR2	3	n/a	n/a	n/a	7	15	3	5	7
1081.08251953125	n/a	PROB	2214057	n/a	LTP385	ltpFR2	3	n/a	n/a	n/a	7	12	1	7	4
1083.615234375	n/a	STOP	2219244	n/a	LTP385	ltpFR2	3	n/a	n/a	n/a	7	n/a	n/a	n/a	n/a
1085.6484375	n/a	WORD	2223408	wordpools/wasnorm_wordpool_576.txt	LTP385	ltpFR2	3	5	PICNIC	1060	n/a	n/a	0	0	0
1088.322265625	n/a	WORD	2228884	wordpools/wasnorm_wordpool_576.txt	LTP385	ltpFR2	3	5	DONOR	485	n/a	n/a	0	0	0
1090.96533203125	n/a	WORD	2234297	wordpools/wasnorm_wordpool_576.txt	LTP385	ltpFR2	3	5	CANDY	230	n/a	n/a	0	0	0
1093.77392578125	n/a	WORD	2240049	wordpools/wasnorm_wordpool_576.txt	LTP385	ltpFR2	3	5	KIDNEY	776	n/a	n/a	0	0	0
1096.5478515625	n/a	WORD	2245730	wordpools/wasnorm_wordpool_576.txt	LTP385	ltpFR2	3	5	SEAFOOD	1260	n/a	n/a	0	0	0
1099.041015625	n/a	WORD	2250836	wordpools/wasnorm_wordpool_576.txt	LTP385	ltpFR2	3	5	GRAVEL	659	n/a	n/a	0	0	0
1101.61572265625	n/a	WORD	2256109	wordpools/wasnorm_wordpool_576.txt	LTP385	ltpFR2	3	5	MOP	916	n/a	n/a	0	0	0
1104.28955078125	n/a	WORD	2261585	wordpools/wasnorm_wordpool_576.txt	LTP385	ltpFR2	3	5	TILE	1468	n/a	n/a	0	0	0
1106.81591796875	n/a	WORD	2266759	wordpools/wasnorm_wordpool_576.txt	LTP385	ltpFR2	3	5	LASER	801	n/a	n/a	0	0	0
1109.23974609375	n/a	WORD	2271723	wordpools/wasnorm_wordpool_576.txt	LTP385	ltpFR2	3	5	CUPBOARD	425	n/a	n/a	0	0	0
1112.03271484375	n/a	WORD	2277443	wordpools/wasnorm_wordpool_576.txt	LTP385	ltpFR2	3	5	BEAKER	104	n/a	n/a	0	0	0
1114.53955078125	n/a	WORD	2282577	wordpools/wasnorm_wordpool_576.txt	LTP385	ltpFR2	3	5	YOLK	1633	n/a	n/a	0	0	0
1117.16455078125	n/a	WORD	2287953	wordpools/wasnorm_wordpool_576.txt	LTP385	ltpFR2	3	5	DUST	508	n/a	n/a	0	0	0
1119.79052734375	n/a	WORD	2293331	wordpools/wasnorm_wordpool_576.txt	LTP385	ltpFR2	3	5	FLESH	579	n/a	n/a	0	0	0
1122.2470703125	n/a	WORD	2298362	wordpools/wasnorm_wordpool_576.txt	LTP385	ltpFR2	3	5	PERMIT	1051	n/a	n/a	0	0	0
1124.80712890625	n/a	WORD	2303605	wordpools/wasnorm_wordpool_576.txt	LTP385	ltpFR2	3	5	BRAKE	166	n/a	n/a	0	0	0
1127.59814453125	n/a	WORD	2309321	wordpools/wasnorm_wordpool_576.txt	LTP385	ltpFR2	3	5	DIME	466	n/a	n/a	0	0	0
1130.30712890625	n/a	WORD	2314869	wordpools/wasnorm_wordpool_576.txt	LTP385	ltpFR2	3	5	MONEY	908	n/a	n/a	0	0	0
1132.9658203125	n/a	WORD	2320314	wordpools/wasnorm_wordpool_576.txt	LTP385	ltpFR2	3	5	AGENT	10	n/a	n/a	0	0	0
1135.5908203125	n/a	WORD	2325690	wordpools/wasnorm_wordpool_576.txt	LTP385	ltpFR2	3	5	VAGRANT	1544	n/a	n/a	0	0	0
1138.298828125	n/a	WORD	2331236	wordpools/wasnorm_wordpool_576.txt	LTP385	ltpFR2	3	5	BRANDY	169	n/a	n/a	0	0	0
1140.7919921875	n/a	WORD	2336342	wordpools/wasnorm_wordpool_576.txt	LTP385	ltpFR2	3	5	MARKER	870	n/a	n/a	0	0	0
1143.28173828125	n/a	WORD	2341441	wordpools/wasnorm_wordpool_576.txt	LTP385	ltpFR2	3	5	LIVER	833	n/a	n/a	0	0	0
1145.82470703125	n/a	WORD	2346649	wordpools/wasnorm_wordpool_576.txt	LTP385	ltpFR2	3	5	BUREAU	199	n/a	n/a	0	0	0
1147.4287109375	n/a	START	2349934	n/a	LTP385	ltpFR2	3	n/a	n/a	n/a	8	n/a	n/a	n/a	n/a
1148.3447265625	n/a	DISTRACTOR	2351810	n/a	LTP385	ltpFR2	3	5	n/a	n/a	n/a	n/a	0	0	0
1148.3486328125	n/a	PROB	2351818	n/a	LTP385	ltpFR2	3	n/a	n/a	n/a	8	13	3	2	8
1150.50439453125	n/a	PROB	2356233	n/a	LTP385	ltpFR2	3	n/a	n/a	n/a	8	15	3	3	9
1152.8466796875	n/a	PROB	2361030	n/a	LTP385	ltpFR2	3	n/a	n/a	n/a	8	14	9	1	4
1155.1533203125	n/a	PROB	2365754	n/a	LTP385	ltpFR2	3	n/a	n/a	n/a	8	22	4	9	9
1158.54736328125	n/a	PROB	2372705	n/a	LTP385	ltpFR2	3	n/a	n/a	n/a	8	13	5	5	3
1160.0693359375	n/a	PROB	2375822	n/a	LTP385	ltpFR2	3	n/a	n/a	n/a	8	12	7	3	2
1161.95947265625	n/a	PROB	2379693	n/a	LTP385	ltpFR2	3	n/a	n/a	n/a	8	14	4	4	6
1165.236328125	n/a	PROB	2386404	n/a	LTP385	ltpFR2	3	n/a	n/a	n/a	8	15	6	5	3
1167.97900390625	n/a	PROB	2392021	n/a	LTP385	ltpFR2	3	n/a	n/a	n/a	8	20	9	3	8
1171.39111328125	n/a	STOP	2399009	n/a	LTP385	ltpFR2	3	n/a	n/a	n/a	8	n/a	n/a	n/a	n/a
1173.2119140625	n/a	REC_START	2402738	n/a	LTP385	ltpFR2	3	5	n/a	n/a	n/a	n/a	0	0	0
1174.22119140625	n/a	REC_WORD	2404805	wordpools/wasnorm_wordpool_576.txt	LTP385	ltpFR2	3	5	PICNIC	1060	n/a	n/a	0	0	0
1175.1259765625	n/a	REC_WORD	2406658	wordpools/wasnorm_wordpool_576.txt	LTP385	ltpFR2	3	5	RANDY	-1	n/a	n/a	0	0	0
1176.10693359375	n/a	REC_WORD	2408667	wordpools/wasnorm_wordpool_576.txt	LTP385	ltpFR2	3	5	CANDY	230	n/a	n/a	0	0	0
1177.5810546875	n/a	REC_WORD	2411686	wordpools/wasnorm_wordpool_576.txt	LTP385	ltpFR2	3	5	GRAVEL	659	n/a	n/a	0	0	0
1178.5439453125	n/a	REC_WORD	2413658	wordpools/wasnorm_wordpool_576.txt	LTP385	ltpFR2	3	5	TILE	1468	n/a	n/a	0	0	0
1179.60693359375	n/a	REC_WORD	2415835	wordpools/wasnorm_wordpool_576.txt	LTP385	ltpFR2	3	5	MOP	916	n/a	n/a	0	0	0
1263.63671875	n/a	DISTRACTOR	2587928	n/a	LTP385	ltpFR2	3	6	n/a	n/a	n/a	n/a	0	0	0
1263.63671875	n/a	START	2587928	n/a	LTP385	ltpFR2	3	n/a	n/a	n/a	9	n/a	n/a	n/a	n/a
1263.65283203125	n/a	PROB	2587961	n/a	LTP385	ltpFR2	3	n/a	n/a	n/a	9	22	6	9	7
1267.79931640625	n/a	PROB	2596453	n/a	LTP385	ltpFR2	3	n/a	n/a	n/a	9	16	2	6	8
1270.9765625	n/a	PROB	2602960	n/a	LTP385	ltpFR2	3	n/a	n/a	n/a	9	17	4	7	6
1275.08837890625	n/a	PROB	2611381	n/a	LTP385	ltpFR2	3	n/a	n/a	n/a	9	19	8	6	5
1278.51611328125	n/a	PROB	2618401	n/a	LTP385	ltpFR2	3	n/a	n/a	n/a	9	17	8	3	6
1283.21533203125	n/a	PROB	2628025	n/a	LTP385	ltpFR2	3	n/a	n/a	n/a	9	18	9	8	1
1285.84130859375	n/a	PROB	2633403	n/a	LTP385	ltpFR2	3	n/a	n/a	n/a	9	19	8	1	8
1287.5439453125	n/a	STOP	2636890	n/a	LTP385	ltpFR2	3	n/a	n/a	n/a	9	n/a	n/a	n/a	n/a
1288.716796875	n/a	WORD	2639292	wordpools/wasnorm_wordpool_576.txt	LTP385	ltpFR2	3	6	MAILMAN	858	n/a	n/a	0	0	0
1291.4580078125	n/a	WORD	2644906	wordpools/wasnorm_wordpool_576.txt	LTP385	ltpFR2	3	6	MAILBOX	857	n/a	n/a	0	0	0
1293.98388671875	n/a	WORD	2650079	wordpools/wasnorm_wordpool_576.txt	LTP385	ltpFR2	3	6	SCARF	1246	n/a	n/a	0	0	0
1296.67578125	n/a	WORD	2655592	wordpools/wasnorm_wordpool_576.txt	LTP385	ltpFR2	3	6	QUAIL	1147	n/a	n/a	0	0	0
1299.39990234375	n/a	WORD	2661171	wordpools/wasnorm_wordpool_576.txt	LTP385	ltpFR2	3	6	SCARECROW	1245	n/a	n/a	0	0	0
1301.90966796875	n/a	WORD	2666311	wordpools/wasnorm_wordpool_576.txt	LTP385	ltpFR2	3	6	DRUG	501	n/a	n/a	0	0	0
1304.71875	n/a	WORD	2672064	wordpools/wasnorm_wordpool_576.txt	LTP385	ltpFR2	3	6	BELLY	119	n/a	n/a	0	0	0
1307.24267578125	n/a	WORD	2677233	wordpools/wasnorm_wordpool_576.txt	LTP385	ltpFR2	3	6	WASP	1593	n/a	n/a	0	0	0
1309.96826171875	n/a	WORD	2682815	wordpools/wasnorm_wordpool_576.txt	LTP385	ltpFR2	3	6	LODGE	839	n/a	n/a	0	0	0
1312.744140625	n/a	WORD	2688500	wordpools/wasnorm_wordpool_576.txt	LTP385	ltpFR2	3	6	ICEBERG	731	n/a	n/a	0	0	0
1315.16748046875	n/a	WORD	2693463	wordpools/wasnorm_wordpool_576.txt	LTP385	ltpFR2	3	6	STAKE	1368	n/a	n/a	0	0	0
1317.76025390625	n/a	WORD	2698773	wordpools/wasnorm_wordpool_576.txt	LTP385	ltpFR2	3	6	TORTOISE	1486	n/a	n/a	0	0	0
1320.2841796875	n/a	WORD	2703942	wordpools/wasnorm_wordpool_576.txt	LTP385	ltpFR2	3	6	CHAMPAGNE	278	n/a	n/a	0	0	0
1322.708984375	n/a	WORD	2708908	wordpools/wasnorm_wordpool_576.txt	LTP385	ltpFR2	3	6	TREAT	1501	n/a	n/a	0	0	0
1325.35009765625	n/a	WORD	2714317	wordpools/wasnorm_wordpool_576.txt	LTP385	ltpFR2	3	6	DOLPHIN	483	n/a	n/a	0	0	0
1328.0419921875	n/a	WORD	2719830	wordpools/wasnorm_wordpool_576.txt	LTP385	ltpFR2	3	6	CAPTIVE	240	n/a	n/a	0	0	0
1330.6181640625	n/a	WORD	2725106	wordpools/wasnorm_wordpool_576.txt	LTP385	ltpFR2	3	6	BARREL	91	n/a	n/a	0	0	0
1333.2587890625	n/a	WORD	2730514	wordpools/wasnorm_wordpool_576.txt	LTP385	ltpFR2	3	6	OZONE	996	n/a	n/a	0	0	0
1335.8017578125	n/a	WORD	2735722	wordpools/wasnorm_wordpool_576.txt	LTP385	ltpFR2	3	6	TROUT	1511	n/a	n/a	0	0	0
1338.52587890625	n/a	WORD	2741301	wordpools/wasnorm_wordpool_576.txt	LTP385	ltpFR2	3	6	SPIDER	1351	n/a	n/a	0	0	0
1341.16748046875	n/a	WORD	2746711	wordpools/wasnorm_wordpool_576.txt	LTP385	ltpFR2	3	6	MAMMAL	861	n/a	n/a	0	0	0
1343.91064453125	n/a	WORD	2752329	wordpools/wasnorm_wordpool_576.txt	LTP385	ltpFR2	3	6	CRIB	407	n/a	n/a	0	0	0
1346.46875	n/a	WORD	2757568	wordpools/wasnorm_wordpool_576.txt	LTP385	ltpFR2	3	6	BUGGY	188	n/a	n/a	0	0	0
1349.193359375	n/a	WORD	2763148	wordpools/wasnorm_wordpool_576.txt	LTP385	ltpFR2	3	6	SADDLE	1221	n/a	n/a	0	0	0
1350.80029296875	n/a	START	2766439	n/a	LTP385	ltpFR2	3	n/a	n/a	n/a	10	n/a	n/a	n/a	n/a
1351.728515625	n/a	DISTRACTOR	2768340	n/a	LTP385	ltpFR2	3	6	n/a	n/a	n/a	n/a	0	0	0
1351.736328125	n/a	PROB	2768356	n/a	LTP385	ltpFR2	3	n/a	n/a	n/a	10	24	8	9	7
1356.91943359375	n/a	PROB	2778971	n/a	LTP385	ltpFR2	3	n/a	n/a	n/a	10	14	6	3	5
1359.81201171875	n/a	PROB	2784895	n/a	LTP385	ltpFR2	3	n/a	n/a	n/a	10	18	9	7	2
1363.27197265625	n/a	PROB	2791981	n/a	LTP385	ltpFR2	3	n/a	n/a	n/a	10	26	8	9	9
1366.73388671875	n/a	PROB	2799071	n/a	LTP385	ltpFR2	3	n/a	n/a	n/a	10	7	2	2	3
1370.78076171875	n/a	PROB	2807359	n/a	LTP385	ltpFR2	3	n/a	n/a	n/a	10	16	8	2	6
1374.70458984375	n/a	STOP	2815395	n/a	LTP385	ltpFR2	3	n/a	n/a	n/a	10	n/a	n/a	n/a	n/a
1376.56591796875	n/a	REC_START	2819207	n/a	LTP385	ltpFR2	3	6	n/a	n/a	n/a	n/a	0	0	0
1380.5126953125	n/a	REC_WORD	2827290	wordpools/wasnorm_wordpool_576.txt	LTP385	ltpFR2	3	6	MAILMAN	858	n/a	n/a	0	0	0
1383.08642578125	n/a	REC_WORD	2832561	wordpools/wasnorm_wordpool_576.txt	LTP385	ltpFR2	3	6	MAIL	-1	n/a	n/a	0	0	0
1385.9345703125	n/a	REC_WORD	2838394	wordpools/wasnorm_wordpool_576.txt	LTP385	ltpFR2	3	6	SCARECROW	1245	n/a	n/a	0	0	0
1387.29541015625	n/a	REC_WORD	2841181	wordpools/wasnorm_wordpool_576.txt	LTP385	ltpFR2	3	6	DRUG	501	n/a	n/a	0	0	0
1388.42138671875	n/a	REC_WORD	2843487	wordpools/wasnorm_wordpool_576.txt	LTP385	ltpFR2	3	6	CHAMPAGNE	278	n/a	n/a	0	0	0
1390.12158203125	n/a	REC_WORD	2846969	wordpools/wasnorm_wordpool_576.txt	LTP385	ltpFR2	3	6	TORTOISE	1486	n/a	n/a	0	0	0
1392.439453125	n/a	REC_WORD	2851716	wordpools/wasnorm_wordpool_576.txt	LTP385	ltpFR2	3	6	MAMMAL	861	n/a	n/a	0	0	0
1395.7880859375	n/a	REC_WORD	2858574	wordpools/wasnorm_wordpool_576.txt	LTP385	ltpFR2	3	6	ICEBERG	731	n/a	n/a	0	0	0
1399.10595703125	n/a	REC_WORD	2865369	wordpools/wasnorm_wordpool_576.txt	LTP385	ltpFR2	3	6	OZONE	996	n/a	n/a	0	0	0
1415.19189453125	n/a	REC_WORD	2898313	wordpools/wasnorm_wordpool_576.txt	LTP385	ltpFR2	3	6	CAPTIVE	240	n/a	n/a	0	0	0
1424.0986328125	n/a	REC_WORD	2916554	wordpools/wasnorm_wordpool_576.txt	LTP385	ltpFR2	3	6	TOUT	-1	n/a	n/a	0	0	0
1426.97119140625	n/a	REC_WORD	2922437	wordpools/wasnorm_wordpool_576.txt	LTP385	ltpFR2	3	6	TROUT	1511	n/a	n/a	0	0	0
1439.60986328125	n/a	REC_WORD	2948321	wordpools/wasnorm_wordpool_576.txt	LTP385	ltpFR2	3	6	SCARF	1246	n/a	n/a	0	0	0
1467.0234375	n/a	WORD	3004464	wordpools/wasnorm_wordpool_576.txt	LTP385	ltpFR2	3	7	FREEZER	604	n/a	n/a	0	0	0
1469.66552734375	n/a	WORD	3009875	wordpools/wasnorm_wordpool_576.txt	LTP385	ltpFR2	3	7	GLOVE	642	n/a	n/a	0	0	0
1472.30615234375	n/a	WORD	3015283	wordpools/wasnorm_wordpool_576.txt	LTP385	ltpFR2	3	7	PUPPY	1144	n/a	n/a	0	0	0
1474.982421875	n/a	WORD	3020764	wordpools/wasnorm_wordpool_576.txt	LTP385	ltpFR2	3	7	HARP	689	n/a	n/a	0	0	0
1477.75830078125	n/a	WORD	3026449	wordpools/wasnorm_wordpool_576.txt	LTP385	ltpFR2	3	7	LIZARD	834	n/a	n/a	0	0	0
1480.31494140625	n/a	WORD	3031685	wordpools/wasnorm_wordpool_576.txt	LTP385	ltpFR2	3	7	FRECKLE	602	n/a	n/a	0	0	0
1482.923828125	n/a	WORD	3037028	wordpools/wasnorm_wordpool_576.txt	LTP385	ltpFR2	3	7	LIPSTICK	829	n/a	n/a	0	0	0
1485.64990234375	n/a	WORD	3042611	wordpools/wasnorm_wordpool_576.txt	LTP385	ltpFR2	3	7	FOX	598	n/a	n/a	0	0	0
1488.306640625	n/a	WORD	3048052	wordpools/wasnorm_wordpool_576.txt	LTP385	ltpFR2	3	7	CLOCK	325	n/a	n/a	0	0	0
1490.7998046875	n/a	WORD	3053158	wordpools/wasnorm_wordpool_576.txt	LTP385	ltpFR2	3	7	BABY	64	n/a	n/a	0	0	0
1493.23974609375	n/a	WORD	3058155	wordpools/wasnorm_wordpool_576.txt	LTP385	ltpFR2	3	7	ROBBER	1197	n/a	n/a	0	0	0
1495.7158203125	n/a	WORD	3063226	wordpools/wasnorm_wordpool_576.txt	LTP385	ltpFR2	3	7	GALLON	618	n/a	n/a	0	0	0
1498.138671875	n/a	WORD	3068188	wordpools/wasnorm_wordpool_576.txt	LTP385	ltpFR2	3	7	KETCHUP	771	n/a	n/a	0	0	0
1500.88134765625	n/a	WORD	3073805	wordpools/wasnorm_wordpool_576.txt	LTP385	ltpFR2	3	7	HEDGE	699	n/a	n/a	0	0	0
1503.3896484375	n/a	WORD	3078942	wordpools/wasnorm_wordpool_576.txt	LTP385	ltpFR2	3	7	CONTRACT	368	n/a	n/a	0	0	0
1506.1484375	n/a	WORD	3084592	wordpools/wasnorm_wordpool_576.txt	LTP385	ltpFR2	3	7	RAZOR	1171	n/a	n/a	0	0	0
1508.908203125	n/a	WORD	3090244	wordpools/wasnorm_wordpool_576.txt	LTP385	ltpFR2	3	7	BLADE	134	n/a	n/a	0	0	0
1511.4814453125	n/a	WORD	3095514	wordpools/wasnorm_wordpool_576.txt	LTP385	ltpFR2	3	7	CLAMP	316	n/a	n/a	0	0	0
1514.0244140625	n/a	WORD	3100722	wordpools/wasnorm_wordpool_576.txt	LTP385	ltpFR2	3	7	PLASTER	1085	n/a	n/a	0	0	0
1516.5810546875	n/a	WORD	3105958	wordpools/wasnorm_wordpool_576.txt	LTP385	ltpFR2	3	7	RATTLE	1170	n/a	n/a	0	0	0
1519.30712890625	n/a	WORD	3111541	wordpools/wasnorm_wordpool_576.txt	LTP385	ltpFR2	3	7	SHERIFF	1284	n/a	n/a	0	0	0
1522.09912109375	n/a	WORD	3117259	wordpools/wasnorm_wordpool_576.txt	LTP385	ltpFR2	3	7	PEPPER	1047	n/a	n/a	0	0	0
1524.92578125	n/a	WORD	3123048	wordpools/wasnorm_wordpool_576.txt	LTP385	ltpFR2	3	7	LOVER	846	n/a	n/a	0	0	0
1527.5498046875	n/a	WORD	3128422	wordpools/wasnorm_wordpool_576.txt	LTP385	ltpFR2	3	7	PAPER	1011	n/a	n/a	0	0	0
1529.15576171875	n/a	START	3131711	n/a	LTP385	ltpFR2	3	n/a	n/a	n/a	11	n/a	n/a	n/a	n/a
1530.22265625	n/a	DISTRACTOR	3133896	n/a	LTP385	ltpFR2	3	7	n/a	n/a	n/a	n/a	0	0	0
1530.2255859375	n/a	PROB	3133902	n/a	LTP385	ltpFR2	3	n/a	n/a	n/a	11	15	8	4	3
1534.021484375	n/a	PROB	3141676	n/a	LTP385	ltpFR2	3	n/a	n/a	n/a	11	17	3	6	8
1537.984375	n/a	PROB	3149792	n/a	LTP385	ltpFR2	3	n/a	n/a	n/a	11	24	9	8	6
1541.54541015625	n/a	PROB	3157085	n/a	LTP385	ltpFR2	3	n/a	n/a	n/a	11	11	1	2	8
1543.5341796875	n/a	PROB	3161158	n/a	LTP385	ltpFR2	3	n/a	n/a	n/a	11	14	5	1	8
1546.17626953125	n/a	PROB	3166569	n/a	LTP385	ltpFR2	3	n/a	n/a	n/a	11	16	9	6	1
1553.154296875	n/a	STOP	3180860	n/a	LTP385	ltpFR2	3	n/a	n/a	n/a	11	n/a	n/a	n/a	n/a
1554.990234375	n/a	REC_START	3184620	n/a	LTP385	ltpFR2	3	7	n/a	n/a	n/a	n/a	0	0	0
1558.05615234375	n/a	REC_WORD	3190899	wordpools/wasnorm_wordpool_576.txt	LTP385	ltpFR2	3	7	FREEZER	604	n/a	n/a	0	0	0
1559.02099609375	n/a	REC_WORD	3192875	wordpools/wasnorm_wordpool_576.txt	LTP385	ltpFR2	3	7	GLOVE	642	n/a	n/a	0	0	0
1559.9208984375	n/a	REC_WORD	3194718	wordpools/wasnorm_wordpool_576.txt	LTP385	ltpFR2	3	7	HEDGE	699	n/a	n/a	0	0	0
1561.07373046875	n/a	REC_WORD	3197079	wordpools/wasnorm_wordpool_576.txt	LTP385	ltpFR2	3	7	RAZOR	1171	n/a	n/a	0	0	0
1562.1328125	n/a	REC_WORD	3199248	wordpools/wasnorm_wordpool_576.txt	LTP385	ltpFR2	3	7	BLADE	134	n/a	n/a	0	0	0
1564.7470703125	n/a	REC_WORD	3204602	wordpools/wasnorm_wordpool_576.txt	LTP385	ltpFR2	3	7	SHERIFF	1284	n/a	n/a	0	0	0
1568.7587890625	n/a	REC_WORD	3212818	wordpools/wasnorm_wordpool_576.txt	LTP385	ltpFR2	3	7	GALLON	618	n/a	n/a	0	0	0
1569.73583984375	n/a	REC_WORD	3214819	wordpools/wasnorm_wordpool_576.txt	LTP385	ltpFR2	3	7	KETCHUP	771	n/a	n/a	0	0	0
1573.82373046875	n/a	REC_WORD	3223191	wordpools/wasnorm_wordpool_576.txt	LTP385	ltpFR2	3	7	LOVER	846	n/a	n/a	0	0	0
1575.66748046875	n/a	REC_WORD	3226967	wordpools/wasnorm_wordpool_576.txt	LTP385	ltpFR2	3	7	BABY	64	n/a	n/a	0	0	0
1577.15673828125	n/a	REC_WORD	3230017	wordpools/wasnorm_wordpool_576.txt	LTP385	ltpFR2	3	7	CLOCK	325	n/a	n/a	0	0	0
1578.4384765625	n/a	REC_WORD	3232642	wordpools/wasnorm_wordpool_576.txt	LTP385	ltpFR2	3	7	FOX	598	n/a	n/a	0	0	0
1584.6923828125	n/a	REC_WORD	3245450	wordpools/wasnorm_wordpool_576.txt	LTP385	ltpFR2	3	7	PUPPY	1144	n/a	n/a	0	0	0
1586.4443359375	n/a	REC_WORD	3249038	wordpools/wasnorm_wordpool_576.txt	LTP385	ltpFR2	3	7	LIZARD	834	n/a	n/a	0	0	0
1589.9091796875	n/a	REC_WORD	3256134	wordpools/wasnorm_wordpool_576.txt	LTP385	ltpFR2	3	7	RATTLE	1170	n/a	n/a	0	0	0
1645.4287109375	n/a	DISTRACTOR	3369838	n/a	LTP385	ltpFR2	3	8	n/a	n/a	n/a	n/a	0	0	0
1645.4287109375	n/a	START	3369838	n/a	LTP385	ltpFR2	3	n/a	n/a	n/a	12	n/a	n/a	n/a	n/a
1645.44580078125	n/a	PROB	3369873	n/a	LTP385	ltpFR2	3	n/a	n/a	n/a	12	10	2	5	3
1647.720703125	n/a	PROB	3374532	n/a	LTP385	ltpFR2	3	n/a	n/a	n/a	12	13	7	4	2
1650.478515625	n/a	PROB	3380180	n/a	LTP385	ltpFR2	3	n/a	n/a	n/a	12	24	9	8	7
1653.62255859375	n/a	PROB	3386619	n/a	LTP385	ltpFR2	3	n/a	n/a	n/a	12	20	7	4	9
1656.78271484375	n/a	PROB	3393091	n/a	LTP385	ltpFR2	3	n/a	n/a	n/a	12	16	2	8	6
1658.75634765625	n/a	PROB	3397133	n/a	LTP385	ltpFR2	3	n/a	n/a	n/a	12	22	9	6	7
1661.3134765625	n/a	PROB	3402370	n/a	LTP385	ltpFR2	3	n/a	n/a	n/a	12	14	6	2	6
1665.0263671875	n/a	PROB	3409974	n/a	LTP385	ltpFR2	3	n/a	n/a	n/a	12	24	8	8	8
1666.79833984375	n/a	PROB	3413603	n/a	LTP385	ltpFR2	3	n/a	n/a	n/a	12	15	2	7	6
1669.25732421875	n/a	STOP	3418639	n/a	LTP385	ltpFR2	3	n/a	n/a	n/a	12	n/a	n/a	n/a	n/a
1670.47607421875	n/a	WORD	3421135	wordpools/wasnorm_wordpool_576.txt	LTP385	ltpFR2	3	8	CANAL	226	n/a	n/a	0	0	0
1673.16796875	n/a	WORD	3426648	wordpools/wasnorm_wordpool_576.txt	LTP385	ltpFR2	3	8	MACHINE	852	n/a	n/a	0	0	0
1675.84423828125	n/a	WORD	3432129	wordpools/wasnorm_wordpool_576.txt	LTP385	ltpFR2	3	8	COUSIN	392	n/a	n/a	0	0	0
1678.30078125	n/a	WORD	3437160	wordpools/wasnorm_wordpool_576.txt	LTP385	ltpFR2	3	8	PREACHER	1119	n/a	n/a	0	0	0
1680.876953125	n/a	WORD	3442436	wordpools/wasnorm_wordpool_576.txt	LTP385	ltpFR2	3	8	POWDER	1117	n/a	n/a	0	0	0
1683.3505859375	n/a	WORD	3447502	wordpools/wasnorm_wordpool_576.txt	LTP385	ltpFR2	3	8	CELLAR	267	n/a	n/a	0	0	0
1685.876953125	n/a	WORD	3452676	wordpools/wasnorm_wordpool_576.txt	LTP385	ltpFR2	3	8	GHETTO	633	n/a	n/a	0	0	0
1688.36669921875	n/a	WORD	3457775	wordpools/wasnorm_wordpool_576.txt	LTP385	ltpFR2	3	8	SHELTER	1282	n/a	n/a	0	0	0
1690.99267578125	n/a	WORD	3463153	wordpools/wasnorm_wordpool_576.txt	LTP385	ltpFR2	3	8	PISTOL	1075	n/a	n/a	0	0	0
1693.49951171875	n/a	WORD	3468287	wordpools/wasnorm_wordpool_576.txt	LTP385	ltpFR2	3	8	PECAN	1036	n/a	n/a	0	0	0
1696.25830078125	n/a	WORD	3473937	wordpools/wasnorm_wordpool_576.txt	LTP385	ltpFR2	3	8	LAGOON	795	n/a	n/a	0	0	0
1699.0341796875	n/a	WORD	3479622	wordpools/wasnorm_wordpool_576.txt	LTP385	ltpFR2	3	8	YACHT	1629	n/a	n/a	0	0	0
1701.744140625	n/a	WORD	3485172	wordpools/wasnorm_wordpool_576.txt	LTP385	ltpFR2	3	8	PARENT	1013	n/a	n/a	0	0	0
1704.46826171875	n/a	WORD	3490751	wordpools/wasnorm_wordpool_576.txt	LTP385	ltpFR2	3	8	PIMPLE	1071	n/a	n/a	0	0	0
1707.06005859375	n/a	WORD	3496059	wordpools/wasnorm_wordpool_576.txt	LTP385	ltpFR2	3	8	WASHER	1592	n/a	n/a	0	0	0
1709.8203125	n/a	WORD	3501712	wordpools/wasnorm_wordpool_576.txt	LTP385	ltpFR2	3	8	OUTFIT	988	n/a	n/a	0	0	0
1712.39404296875	n/a	WORD	3506983	wordpools/wasnorm_wordpool_576.txt	LTP385	ltpFR2	3	8	NOMAD	955	n/a	n/a	0	0	0
1715.05322265625	n/a	WORD	3512429	wordpools/wasnorm_wordpool_576.txt	LTP385	ltpFR2	3	8	ACTRESS	6	n/a	n/a	0	0	0
1717.72900390625	n/a	WORD	3517909	wordpools/wasnorm_wordpool_576.txt	LTP385	ltpFR2	3	8	SWIMMER	1420	n/a	n/a	0	0	0
1720.2529296875	n/a	WORD	3523078	wordpools/wasnorm_wordpool_576.txt	LTP385	ltpFR2	3	8	GIFT	635	n/a	n/a	0	0	0
1722.76171875	n/a	WORD	3528216	wordpools/wasnorm_wordpool_576.txt	LTP385	ltpFR2	3	8	BOX	159	n/a	n/a	0	0	0
1725.45263671875	n/a	WORD	3533727	wordpools/wasnorm_wordpool_576.txt	LTP385	ltpFR2	3	8	VALLEY	1545	n/a	n/a	0	0	0
1728.12744140625	n/a	WORD	3539205	wordpools/wasnorm_wordpool_576.txt	LTP385	ltpFR2	3	8	SLIDE	1326	n/a	n/a	0	0	0
1730.8544921875	n/a	WORD	3544790	wordpools/wasnorm_wordpool_576.txt	LTP385	ltpFR2	3	8	PISTON	1076	n/a	n/a	0	0	0
1732.45849609375	n/a	START	3548075	n/a	LTP385	ltpFR2	3	n/a	n/a	n/a	13	n/a	n/a	n/a	n/a
1733.2646484375	n/a	DISTRACTOR	3549726	n/a	LTP385	ltpFR2	3	8	n/a	n/a	n/a	n/a	0	0	0
1733.27734375	n/a	PROB	3549752	n/a	LTP385	ltpFR2	3	n/a	n/a	n/a	13	8	5	2	1
1736.28759765625	n/a	PROB	3555917	n/a	LTP385	ltpFR2	3	n/a	n/a	n/a	13	12	4	3	5
1740.46728515625	n/a	PROB	3564477	n/a	LTP385	ltpFR2	3	n/a	n/a	n/a	13	19	7	4	8
1745.6181640625	n/a	PROB	3575026	n/a	LTP385	ltpFR2	3	n/a	n/a	n/a	13	14	9	4	1
1747.94189453125	n/a	PROB	3579785	n/a	LTP385	ltpFR2	3	n/a	n/a	n/a	13	14	3	4	7
1750.1650390625	n/a	PROB	3584338	n/a	LTP385	ltpFR2	3	n/a	n/a	n/a	13	6	2	2	4
1751.73828125	n/a	PROB	3587560	n/a	LTP385	ltpFR2	3	n/a	n/a	n/a	13	6	2	2	2
1753.76123046875	n/a	PROB	3591703	n/a	LTP385	ltpFR2	3	n/a	n/a	n/a	13	12	2	4	6
1755.9228515625	n/a	STOP	3596130	n/a	LTP385	ltpFR2	3	n/a	n/a	n/a	13	n/a	n/a	n/a	n/a
1758.24169921875	n/a	REC_START	3600879	n/a	LTP385	ltpFR2	3	8	n/a	n/a	n/a	n/a	0	0	0
1762.630859375	n/a	REC_WORD	3609868	wordpools/wasnorm_wordpool_576.txt	LTP385	ltpFR2	3	8	PISTOL	1075	n/a	n/a	0	0	0
1763.48876953125	n/a	REC_WORD	3611625	wordpools/wasnorm_wordpool_576.txt	LTP385	ltpFR2	3	8	PISTON	1076	n/a	n/a	0	0	0
1766.00244140625	n/a	REC_WORD	3616773	wordpools/wasnorm_wordpool_576.txt	LTP385	ltpFR2	3	8	CANAL	226	n/a	n/a	0	0	0
1766.9287109375	n/a	REC_WORD	3618670	wordpools/wasnorm_wordpool_576.txt	LTP385	ltpFR2	3	8	MACHINE	852	n/a	n/a	0	0	0
1769.7705078125	n/a	REC_WORD	3624490	wordpools/wasnorm_wordpool_576.txt	LTP385	ltpFR2	3	8	LAGOON	795	n/a	n/a	0	0	0
1770.92578125	n/a	REC_WORD	3626856	wordpools/wasnorm_wordpool_576.txt	LTP385	ltpFR2	3	8	VALLEY	1545	n/a	n/a	0	0	0
1774.0986328125	n/a	REC_WORD	3633354	wordpools/wasnorm_wordpool_576.txt	LTP385	ltpFR2	3	8	GHETTO	633	n/a	n/a	0	0	0
1774.80029296875	n/a	REC_WORD	3634791	wordpools/wasnorm_wordpool_576.txt	LTP385	ltpFR2	3	8	SHELTER	1282	n/a	n/a	0	0	0
1782.72705078125	n/a	REC_WORD	3651025	wordpools/wasnorm_wordpool_576.txt	LTP385	ltpFR2	3	8	PECAN	1036	n/a	n/a	0	0	0
1834.77197265625	n/a	REST_REWET	3757613	n/a	LTP385	ltpFR2	3	8	n/a	n/a	n/a	n/a	0	0	0
2134.85205078125	n/a	WORD	4372177	wordpools/wasnorm_wordpool_576.txt	LTP385	ltpFR2	3	9	FRANCE	601	n/a	n/a	0	0	0
2137.59521484375	n/a	WORD	4377795	wordpools/wasnorm_wordpool_576.txt	LTP385	ltpFR2	3	9	LAPEL	800	n/a	n/a	0	0	0
2140.2861328125	n/a	WORD	4383306	wordpools/wasnorm_wordpool_576.txt	LTP385	ltpFR2	3	9	BADGE	68	n/a	n/a	0	0	0
2142.72802734375	n/a	WORD	4388307	wordpools/wasnorm_wordpool_576.txt	LTP385	ltpFR2	3	9	VIRUS	1572	n/a	n/a	0	0	0
2145.26806640625	n/a	WORD	4393509	wordpools/wasnorm_wordpool_576.txt	LTP385	ltpFR2	3	9	LILY	821	n/a	n/a	0	0	0
2147.77783203125	n/a	WORD	4398649	wordpools/wasnorm_wordpool_576.txt	LTP385	ltpFR2	3	9	DRAWING	494	n/a	n/a	0	0	0
2150.53564453125	n/a	WORD	4404297	wordpools/wasnorm_wordpool_576.txt	LTP385	ltpFR2	3	9	KNAPSACK	783	n/a	n/a	0	0	0
2153.11083984375	n/a	WORD	4409571	wordpools/wasnorm_wordpool_576.txt	LTP385	ltpFR2	3	9	TUNNEL	1519	n/a	n/a	0	0	0
2155.5673828125	n/a	WORD	4414602	wordpools/wasnorm_wordpool_576.txt	LTP385	ltpFR2	3	9	POSSUM	1112	n/a	n/a	0	0	0
2158.310546875	n/a	WORD	4420220	wordpools/wasnorm_wordpool_576.txt	LTP385	ltpFR2	3	9	OX	994	n/a	n/a	0	0	0
2160.96923828125	n/a	WORD	4425665	wordpools/wasnorm_wordpool_576.txt	LTP385	ltpFR2	3	9	BUBBLE	183	n/a	n/a	0	0	0
2163.560546875	n/a	WORD	4430972	wordpools/wasnorm_wordpool_576.txt	LTP385	ltpFR2	3	9	DAUGHTER	442	n/a	n/a	0	0	0
2166.2861328125	n/a	WORD	4436554	wordpools/wasnorm_wordpool_576.txt	LTP385	ltpFR2	3	9	LION	827	n/a	n/a	0	0	0
2168.71142578125	n/a	WORD	4441521	wordpools/wasnorm_wordpool_576.txt	LTP385	ltpFR2	3	9	LEOPARD	812	n/a	n/a	0	0	0
2171.486328125	n/a	WORD	4447204	wordpools/wasnorm_wordpool_576.txt	LTP385	ltpFR2	3	9	CRAB	397	n/a	n/a	0	0	0
2173.9609375	n/a	WORD	4452272	wordpools/wasnorm_wordpool_576.txt	LTP385	ltpFR2	3	9	KLEENEX	782	n/a	n/a	0	0	0
2176.6201171875	n/a	WORD	4457718	wordpools/wasnorm_wordpool_576.txt	LTP385	ltpFR2	3	9	NOTEBOOK	959	n/a	n/a	0	0	0
2179.36083984375	n/a	WORD	4463331	wordpools/wasnorm_wordpool_576.txt	LTP385	ltpFR2	3	9	FUNGUS	614	n/a	n/a	0	0	0
2182.10400390625	n/a	WORD	4468949	wordpools/wasnorm_wordpool_576.txt	LTP385	ltpFR2	3	9	POLICE	1098	n/a	n/a	0	0	0
2184.56103515625	n/a	WORD	4473981	wordpools/wasnorm_wordpool_576.txt	LTP385	ltpFR2	3	9	TRACTOR	1493	n/a	n/a	0	0	0
2187.2529296875	n/a	WORD	4479494	wordpools/wasnorm_wordpool_576.txt	LTP385	ltpFR2	3	9	JUNGLE	764	n/a	n/a	0	0	0
2189.8798828125	n/a	WORD	4484874	wordpools/wasnorm_wordpool_576.txt	LTP385	ltpFR2	3	9	LABEL	790	n/a	n/a	0	0	0
2192.53662109375	n/a	WORD	4490315	wordpools/wasnorm_wordpool_576.txt	LTP385	ltpFR2	3	9	FRAME	600	n/a	n/a	0	0	0
2195.21240234375	n/a	WORD	4495795	wordpools/wasnorm_wordpool_576.txt	LTP385	ltpFR2	3	9	FOOT	590	n/a	n/a	0	0	0
2196.818359375	n/a	START	4499084	n/a	LTP385	ltpFR2	3	n/a	n/a	n/a	14	n/a	n/a	n/a	n/a
2197.8193359375	n/a	DISTRACTOR	4501134	n/a	LTP385	ltpFR2	3	9	n/a	n/a	n/a	n/a	0	0	0
2197.8212890625	n/a	PROB	4501138	n/a	LTP385	ltpFR2	3	n/a	n/a	n/a	14	18	7	7	4
2201.04736328125	n/a	PROB	4507745	n/a	LTP385	ltpFR2	3	n/a	n/a	n/a	14	23	8	9	6
2203.6572265625	n/a	PROB	4513090	n/a	LTP385	ltpFR2	3	n/a	n/a	n/a	14	17	7	8	2
2206.34814453125	n/a	PROB	4518601	n/a	LTP385	ltpFR2	3	n/a	n/a	n/a	14	17	7	7	3
2212.333984375	n/a	PROB	4530860	n/a	LTP385	ltpFR2	3	n/a	n/a	n/a	14	12	1	9	2
2214.60888671875	n/a	PROB	4535519	n/a	LTP385	ltpFR2	3	n/a	n/a	n/a	14	21	7	6	8
2219.61279296875	n/a	STOP	4545767	n/a	LTP385	ltpFR2	3	n/a	n/a	n/a	14	n/a	n/a	n/a	n/a
2222.56689453125	n/a	REC_START	4551817	n/a	LTP385	ltpFR2	3	9	n/a	n/a	n/a	n/a	0	0	0
2224.65966796875	n/a	REC_WORD	4556103	wordpools/wasnorm_wordpool_576.txt	LTP385	ltpFR2	3	9	FRANCE	601	n/a	n/a	0	0	0
2225.46484375	n/a	REC_WORD	4557752	wordpools/wasnorm_wordpool_576.txt	LTP385	ltpFR2	3	9	PAINTING	1005	n/a	n/a	0	0	0
2226.31884765625	n/a	REC_WORD	4559501	wordpools/wasnorm_wordpool_576.txt	LTP385	ltpFR2	3	9	TUNNEL	1519	n/a	n/a	0	0	0
2229.31591796875	n/a	REC_WORD	4565639	wordpools/wasnorm_wordpool_576.txt	LTP385	ltpFR2	3	9	OX	994	n/a	n/a	0	0	0
2230.1767578125	n/a	REC_WORD	4567402	wordpools/wasnorm_wordpool_576.txt	LTP385	ltpFR2	3	9	LION	827	n/a	n/a	0	0	0
2230.86572265625	n/a	REC_WORD	4568813	wordpools/wasnorm_wordpool_576.txt	LTP385	ltpFR2	3	9	LEOPARD	812	n/a	n/a	0	0	0
2232.6396484375	n/a	REC_WORD	4572446	wordpools/wasnorm_wordpool_576.txt	LTP385	ltpFR2	3	9	POSSUM	1112	n/a	n/a	0	0	0
2235.53466796875	n/a	REC_WORD	4578375	wordpools/wasnorm_wordpool_576.txt	LTP385	ltpFR2	3	9	VIRUS	1572	n/a	n/a	0	0	0
2236.32861328125	n/a	REC_WORD	4580001	wordpools/wasnorm_wordpool_576.txt	LTP385	ltpFR2	3	9	FUNGUS	614	n/a	n/a	0	0	0
2237.65234375	n/a	REC_WORD	4582712	wordpools/wasnorm_wordpool_576.txt	LTP385	ltpFR2	3	9	KLEENEX	782	n/a	n/a	0	0	0
2249.5361328125	n/a	REC_WORD	4607050	wordpools/wasnorm_wordpool_576.txt	LTP385	ltpFR2	3	9	POLICE	1098	n/a	n/a	0	0	0
2251.56103515625	n/a	REC_WORD	4611197	wordpools/wasnorm_wordpool_576.txt	LTP385	ltpFR2	3	9	BADGE	68	n/a	n/a	0	0	0
2268.94189453125	n/a	REC_WORD	4646793	wordpools/wasnorm_wordpool_576.txt	LTP385	ltpFR2	3	9	COTTAGE	384	n/a	n/a	0	0	0
2274.91357421875	n/a	REC_WORD	4659023	wordpools/wasnorm_wordpool_576.txt	LTP385	ltpFR2	3	9	OX	994	n/a	n/a	0	0	0
2313.00830078125	n/a	DISTRACTOR	4737041	n/a	LTP385	ltpFR2	3	10	n/a	n/a	n/a	n/a	0	0	0
2313.00830078125	n/a	START	4737041	n/a	LTP385	ltpFR2	3	n/a	n/a	n/a	15	n/a	n/a	n/a	n/a
2313.0244140625	n/a	PROB	4737074	n/a	LTP385	ltpFR2	3	n/a	n/a	n/a	15	14	9	1	4
2315.49853515625	n/a	PROB	4742141	n/a	LTP385	ltpFR2	3	n/a	n/a	n/a	15	19	3	8	8
2318.04052734375	n/a	PROB	4747347	n/a	LTP385	ltpFR2	3	n/a	n/a	n/a	15	23	8	7	8
2323.05615234375	n/a	PROB	4757619	n/a	LTP385	ltpFR2	3	n/a	n/a	n/a	15	15	4	9	2
2325.54736328125	n/a	PROB	4762721	n/a	LTP385	ltpFR2	3	n/a	n/a	n/a	15	14	2	5	7
2328.6591796875	n/a	PROB	4769094	n/a	LTP385	ltpFR2	3	n/a	n/a	n/a	15	22	8	6	7
2337.0078125	n/a	STOP	4786192	n/a	LTP385	ltpFR2	3	n/a	n/a	n/a	15	n/a	n/a	n/a	n/a
2338.205078125	n/a	WORD	4788644	wordpools/wasnorm_wordpool_576.txt	LTP385	ltpFR2	3	10	DRESSER	496	n/a	n/a	0	0	0
2340.998046875	n/a	WORD	4794364	wordpools/wasnorm_wordpool_576.txt	LTP385	ltpFR2	3	10	THIEF	1456	n/a	n/a	0	0	0
2343.43896484375	n/a	WORD	4799363	wordpools/wasnorm_wordpool_576.txt	LTP385	ltpFR2	3	10	COWBOY	395	n/a	n/a	0	0	0
2346.08056640625	n/a	WORD	4804773	wordpools/wasnorm_wordpool_576.txt	LTP385	ltpFR2	3	10	MISSILE	900	n/a	n/a	0	0	0
2348.70654296875	n/a	WORD	4810151	wordpools/wasnorm_wordpool_576.txt	LTP385	ltpFR2	3	10	JEANS	752	n/a	n/a	0	0	0
2351.46435546875	n/a	WORD	4815799	wordpools/wasnorm_wordpool_576.txt	LTP385	ltpFR2	3	10	MARINE	869	n/a	n/a	0	0	0
2353.8896484375	n/a	WORD	4820766	wordpools/wasnorm_wordpool_576.txt	LTP385	ltpFR2	3	10	COCOON	339	n/a	n/a	0	0	0
2356.615234375	n/a	WORD	4826348	wordpools/wasnorm_wordpool_576.txt	LTP385	ltpFR2	3	10	SCOTCH	1251	n/a	n/a	0	0	0
2359.37353515625	n/a	WORD	4831997	wordpools/wasnorm_wordpool_576.txt	LTP385	ltpFR2	3	10	SALMON	1227	n/a	n/a	0	0	0
2362.08203125	n/a	WORD	4837544	wordpools/wasnorm_wordpool_576.txt	LTP385	ltpFR2	3	10	COD	340	n/a	n/a	0	0	0
2364.6240234375	n/a	WORD	4842750	wordpools/wasnorm_wordpool_576.txt	LTP385	ltpFR2	3	10	STONE	1385	n/a	n/a	0	0	0
2367.31494140625	n/a	WORD	4848261	wordpools/wasnorm_wordpool_576.txt	LTP385	ltpFR2	3	10	OUTLAW	989	n/a	n/a	0	0	0
2370.05712890625	n/a	WORD	4853877	wordpools/wasnorm_wordpool_576.txt	LTP385	ltpFR2	3	10	SHORTCAKE	1292	n/a	n/a	0	0	0
2372.85107421875	n/a	WORD	4859599	wordpools/wasnorm_wordpool_576.txt	LTP385	ltpFR2	3	10	KITCHEN	778	n/a	n/a	0	0	0
2375.5419921875	n/a	WORD	4865110	wordpools/wasnorm_wordpool_576.txt	LTP385	ltpFR2	3	10	COMET	353	n/a	n/a	0	0	0
2378.26708984375	n/a	WORD	4870691	wordpools/wasnorm_wordpool_576.txt	LTP385	ltpFR2	3	10	IDOL	733	n/a	n/a	0	0	0
2380.79296875	n/a	WORD	4875864	wordpools/wasnorm_wordpool_576.txt	LTP385	ltpFR2	3	10	CLAM	315	n/a	n/a	0	0	0
2383.466796875	n/a	WORD	4881340	wordpools/wasnorm_wordpool_576.txt	LTP385	ltpFR2	3	10	COMPASS	358	n/a	n/a	0	0	0
2386.02587890625	n/a	WORD	4886581	wordpools/wasnorm_wordpool_576.txt	LTP385	ltpFR2	3	10	CREVICE	405	n/a	n/a	0	0	0
2388.6845703125	n/a	WORD	4892026	wordpools/wasnorm_wordpool_576.txt	LTP385	ltpFR2	3	10	FILM	565	n/a	n/a	0	0	0
2391.19140625	n/a	WORD	4897160	wordpools/wasnorm_wordpool_576.txt	LTP385	ltpFR2	3	10	JUGGLER	763	n/a	n/a	0	0	0
2393.935546875	n/a	WORD	4902780	wordpools/wasnorm_wordpool_576.txt	LTP385	ltpFR2	3	10	PILOT	1070	n/a	n/a	0	0	0
2396.744140625	n/a	WORD	4908532	wordpools/wasnorm_wordpool_576.txt	LTP385	ltpFR2	3	10	BODY	145	n/a	n/a	0	0	0
2399.16748046875	n/a	WORD	4913495	wordpools/wasnorm_wordpool_576.txt	LTP385	ltpFR2	3	10	LIGHTNING	820	n/a	n/a	0	0	0
2400.7744140625	n/a	START	4916786	n/a	LTP385	ltpFR2	3	n/a	n/a	n/a	16	n/a	n/a	n/a	n/a
2401.68115234375	n/a	DISTRACTOR	4918643	n/a	LTP385	ltpFR2	3	10	n/a	n/a	n/a	n/a	0	0	0
2401.693359375	n/a	PROB	4918668	n/a	LTP385	ltpFR2	3	n/a	n/a	n/a	16	15	1	6	8
2405.3369140625	n/a	PROB	4926130	n/a	LTP385	ltpFR2	3	n/a	n/a	n/a	16	18	9	6	3
2409.283203125	n/a	PROB	4934212	n/a	LTP385	ltpFR2	3	n/a	n/a	n/a	16	21	3	9	9
2411.4072265625	n/a	PROB	4938562	n/a	LTP385	ltpFR2	3	n/a	n/a	n/a	16	17	7	5	5
2413.212890625	n/a	PROB	4942260	n/a	LTP385	ltpFR2	3	n/a	n/a	n/a	16	20	3	9	8
2417.962890625	n/a	PROB	4951988	n/a	LTP385	ltpFR2	3	n/a	n/a	n/a	16	9	2	5	2
2419.751953125	n/a	PROB	4955652	n/a	LTP385	ltpFR2	3	n/a	n/a	n/a	16	14	7	1	6
2423.58154296875	n/a	STOP	4963495	n/a	LTP385	ltpFR2	3	n/a	n/a	n/a	16	n/a	n/a	n/a	n/a
2426.57275390625	n/a	REC_START	4969621	n/a	LTP385	ltpFR2	3	10	n/a	n/a	n/a	n/a	0	0	0
2431.17138671875	n/a	REC_WORD	4979039	wordpools/wasnorm_wordpool_576.txt	LTP385	ltpFR2	3	10	CORAL	378	n/a	n/a	0	0	0
2432.228515625	n/a	REC_WORD	4981204	wordpools/wasnorm_wordpool_576.txt	LTP385	ltpFR2	3	10	SALMON	1227	n/a	n/a	0	0	0
2517.01318359375	n/a	DISTRACTOR	5154843	n/a	LTP385	ltpFR2	3	11	n/a	n/a	n/a	n/a	0	0	0
2517.01318359375	n/a	START	5154843	n/a	LTP385	ltpFR2	3	n/a	n/a	n/a	17	n/a	n/a	n/a	n/a
2517.029296875	n/a	PROB	5154876	n/a	LTP385	ltpFR2	3	n/a	n/a	n/a	17	10	3	5	2
2519.80615234375	n/a	PROB	5160563	n/a	LTP385	ltpFR2	3	n/a	n/a	n/a	17	21	5	8	8
2522.31298828125	n/a	PROB	5165697	n/a	LTP385	ltpFR2	3	n/a	n/a	n/a	17	21	8	7	7
2525.0888671875	n/a	PROB	5171382	n/a	LTP385	ltpFR2	3	n/a	n/a	n/a	17	14	8	1	5
2527.546875	n/a	PROB	5176416	n/a	LTP385	ltpFR2	3	n/a	n/a	n/a	17	10	7	2	1
2529.18505859375	n/a	PROB	5179771	n/a	LTP385	ltpFR2	3	n/a	n/a	n/a	17	18	4	8	6
2532.462890625	n/a	PROB	5186484	n/a	LTP385	ltpFR2	3	n/a	n/a	n/a	17	15	4	6	5
2534.6708984375	n/a	PROB	5191006	n/a	LTP385	ltpFR2	3	n/a	n/a	n/a	17	18	6	5	7
2537.52880859375	n/a	PROB	5196859	n/a	LTP385	ltpFR2	3	n/a	n/a	n/a	17	22	7	8	7
2540.90283203125	n/a	STOP	5203769	n/a	LTP385	ltpFR2	3	n/a	n/a	n/a	17	n/a	n/a	n/a	n/a
2541.9775390625	n/a	WORD	5205970	wordpools/wasnorm_wordpool_576.txt	LTP385	ltpFR2	3	11	COLONEL	348	n/a	n/a	0	0	0
2544.6357421875	n/a	WORD	5211414	wordpools/wasnorm_wordpool_576.txt	LTP385	ltpFR2	3	11	PRINCESS	1125	n/a	n/a	0	0	0
2547.15966796875	n/a	WORD	5216583	wordpools/wasnorm_wordpool_576.txt	LTP385	ltpFR2	3	11	HOSTESS	723	n/a	n/a	0	0	0
2549.8193359375	n/a	WORD	5222030	wordpools/wasnorm_wordpool_576.txt	LTP385	ltpFR2	3	11	DOUGHNUT	490	n/a	n/a	0	0	0
2552.611328125	n/a	WORD	5227748	wordpools/wasnorm_wordpool_576.txt	LTP385	ltpFR2	3	11	ROOSTER	1209	n/a	n/a	0	0	0
2555.068359375	n/a	WORD	5232780	wordpools/wasnorm_wordpool_576.txt	LTP385	ltpFR2	3	11	PEANUT	1032	n/a	n/a	0	0	0
2557.51025390625	n/a	WORD	5237781	wordpools/wasnorm_wordpool_576.txt	LTP385	ltpFR2	3	11	PADDLE	1000	n/a	n/a	0	0	0
2560.05126953125	n/a	WORD	5242985	wordpools/wasnorm_wordpool_576.txt	LTP385	ltpFR2	3	11	GOBLIN	645	n/a	n/a	0	0	0
2562.81103515625	n/a	WORD	5248637	wordpools/wasnorm_wordpool_576.txt	LTP385	ltpFR2	3	11	MASK	876	n/a	n/a	0	0	0
2565.53515625	n/a	WORD	5254216	wordpools/wasnorm_wordpool_576.txt	LTP385	ltpFR2	3	11	RELISH	1183	n/a	n/a	0	0	0
2567.9951171875	n/a	WORD	5259254	wordpools/wasnorm_wordpool_576.txt	LTP385	ltpFR2	3	11	BLACKBOARD	133	n/a	n/a	0	0	0
2570.5517578125	n/a	WORD	5264490	wordpools/wasnorm_wordpool_576.txt	LTP385	ltpFR2	3	11	CEILING	265	n/a	n/a	0	0	0
2573.259765625	n/a	WORD	5270036	wordpools/wasnorm_wordpool_576.txt	LTP385	ltpFR2	3	11	GROUND	666	n/a	n/a	0	0	0
2575.71875	n/a	WORD	5275072	wordpools/wasnorm_wordpool_576.txt	LTP385	ltpFR2	3	11	FLAG	573	n/a	n/a	0	0	0
2578.44384765625	n/a	WORD	5280653	wordpools/wasnorm_wordpool_576.txt	LTP385	ltpFR2	3	11	WAITRESS	1581	n/a	n/a	0	0	0
2580.8857421875	n/a	WORD	5285654	wordpools/wasnorm_wordpool_576.txt	LTP385	ltpFR2	3	11	SILK	1307	n/a	n/a	0	0	0
2583.40966796875	n/a	WORD	5290823	wordpools/wasnorm_wordpool_576.txt	LTP385	ltpFR2	3	11	VELVET	1555	n/a	n/a	0	0	0
2585.935546875	n/a	WORD	5295996	wordpools/wasnorm_wordpool_576.txt	LTP385	ltpFR2	3	11	CARROT	249	n/a	n/a	0	0	0
2588.57763671875	n/a	WORD	5301407	wordpools/wasnorm_wordpool_576.txt	LTP385	ltpFR2	3	11	ROBIN	1199	n/a	n/a	0	0	0
2591.30126953125	n/a	WORD	5306985	wordpools/wasnorm_wordpool_576.txt	LTP385	ltpFR2	3	11	THRONE	1461	n/a	n/a	0	0	0
2593.76025390625	n/a	WORD	5312021	wordpools/wasnorm_wordpool_576.txt	LTP385	ltpFR2	3	11	EXPERT	543	n/a	n/a	0	0	0
2596.46826171875	n/a	WORD	5317567	wordpools/wasnorm_wordpool_576.txt	LTP385	ltpFR2	3	11	MAPLE	866	n/a	n/a	0	0	0
2598.9443359375	n/a	WORD	5322638	wordpools/wasnorm_wordpool_576.txt	LTP385	ltpFR2	3	11	ELBOW	520	n/a	n/a	0	0	0
2601.68603515625	n/a	WORD	5328253	wordpools/wasnorm_wordpool_576.txt	LTP385	ltpFR2	3	11	STOMACH	1384	n/a	n/a	0	0	0
2603.2900390625	n/a	START	5331538	n/a	LTP385	ltpFR2	3	n/a	n/a	n/a	18	n/a	n/a	n/a	n/a
2604.158203125	n/a	DISTRACTOR	5333316	n/a	LTP385	ltpFR2	3	11	n/a	n/a	n/a	n/a	0	0	0
2604.16015625	n/a	PROB	5333320	n/a	LTP385	ltpFR2	3	n/a	n/a	n/a	18	21	6	8	7
2607.0517578125	n/a	PROB	5339242	n/a	LTP385	ltpFR2	3	n/a	n/a	n/a	18	7	2	3	2
2609.27587890625	n/a	PROB	5343797	n/a	LTP385	ltpFR2	3	n/a	n/a	n/a	18	21	8	4	9
2613.03759765625	n/a	PROB	5351501	n/a	LTP385	ltpFR2	3	n/a	n/a	n/a	18	21	7	6	8
2615.8818359375	n/a	PROB	5357326	n/a	LTP385	ltpFR2	3	n/a	n/a	n/a	18	26	9	9	8
2619.42578125	n/a	PROB	5364584	n/a	LTP385	ltpFR2	3	n/a	n/a	n/a	18	14	1	6	7
2621.58349609375	n/a	PROB	5369003	n/a	LTP385	ltpFR2	3	n/a	n/a	n/a	18	14	2	4	8
2625.32763671875	n/a	PROB	5376671	n/a	LTP385	ltpFR2	3	n/a	n/a	n/a	18	14	6	4	4
2626.91845703125	n/a	STOP	5379929	n/a	LTP385	ltpFR2	3	n/a	n/a	n/a	18	n/a	n/a	n/a	n/a
2629.20751953125	n/a	REC_START	5384617	n/a	LTP385	ltpFR2	3	11	n/a	n/a	n/a	n/a	0	0	0
2630.08251953125	n/a	REC_WORD	5386409	wordpools/wasnorm_wordpool_576.txt	LTP385	ltpFR2	3	11	THRONE	1461	n/a	n/a	0	0	0
2640.71728515625	n/a	REC_WORD	5408189	wordpools/wasnorm_wordpool_576.txt	LTP385	ltpFR2	3	11	CROWN	415	n/a	n/a	0	0	0
2644.4658203125	n/a	REC_WORD	5415866	wordpools/wasnorm_wordpool_576.txt	LTP385	ltpFR2	3	11	ROBIN	1199	n/a	n/a	0	0	0
2646.27294921875	n/a	REC_WORD	5419567	wordpools/wasnorm_wordpool_576.txt	LTP385	ltpFR2	3	11	GOBLIN	645	n/a	n/a	0	0	0
2647.4990234375	n/a	REC_WORD	5422078	wordpools/wasnorm_wordpool_576.txt	LTP385	ltpFR2	3	11	MASK	876	n/a	n/a	0	0	0
2650.72705078125	n/a	REC_WORD	5428689	wordpools/wasnorm_wordpool_576.txt	LTP385	ltpFR2	3	11	SILK	1307	n/a	n/a	0	0	0
2653.3876953125	n/a	REC_WORD	5434138	wordpools/wasnorm_wordpool_576.txt	LTP385	ltpFR2	3	11	VELVET	1555	n/a	n/a	0	0	0
2655.29248046875	n/a	REC_WORD	5438039	wordpools/wasnorm_wordpool_576.txt	LTP385	ltpFR2	3	11	VELVET	1555	n/a	n/a	0	0	0
2663.50146484375	n/a	REC_WORD	5454851	wordpools/wasnorm_wordpool_576.txt	LTP385	ltpFR2	3	11	RELISH	1183	n/a	n/a	0	0	0
2719.6650390625	n/a	WORD	5569874	wordpools/wasnorm_wordpool_576.txt	LTP385	ltpFR2	3	12	NAPKIN	937	n/a	n/a	0	0	0
2722.2890625	n/a	WORD	5575248	wordpools/wasnorm_wordpool_576.txt	LTP385	ltpFR2	3	12	BLUEPRINT	142	n/a	n/a	0	0	0
2724.8818359375	n/a	WORD	5580558	wordpools/wasnorm_wordpool_576.txt	LTP385	ltpFR2	3	12	AIRPORT	13	n/a	n/a	0	0	0
2727.60693359375	n/a	WORD	5586139	wordpools/wasnorm_wordpool_576.txt	LTP385	ltpFR2	3	12	SCISSORS	1250	n/a	n/a	0	0	0
2730.03076171875	n/a	WORD	5591103	wordpools/wasnorm_wordpool_576.txt	LTP385	ltpFR2	3	12	SCALPEL	1243	n/a	n/a	0	0	0
2732.7236328125	n/a	WORD	5596618	wordpools/wasnorm_wordpool_576.txt	LTP385	ltpFR2	3	12	CHEMIST	292	n/a	n/a	0	0	0
2735.34765625	n/a	WORD	5601992	wordpools/wasnorm_wordpool_576.txt	LTP385	ltpFR2	3	12	PERCH	1048	n/a	n/a	0	0	0
2737.95751953125	n/a	WORD	5607337	wordpools/wasnorm_wordpool_576.txt	LTP385	ltpFR2	3	12	FLEET	578	n/a	n/a	0	0	0
2740.61572265625	n/a	WORD	5612781	wordpools/wasnorm_wordpool_576.txt	LTP385	ltpFR2	3	12	REPORT	1184	n/a	n/a	0	0	0
2743.2392578125	n/a	WORD	5618154	wordpools/wasnorm_wordpool_576.txt	LTP385	ltpFR2	3	12	PARROT	1015	n/a	n/a	0	0	0
2745.732421875	n/a	WORD	5623260	wordpools/wasnorm_wordpool_576.txt	LTP385	ltpFR2	3	12	MEDAL	885	n/a	n/a	0	0	0
2748.322265625	n/a	WORD	5628564	wordpools/wasnorm_wordpool_576.txt	LTP385	ltpFR2	3	12	RUST	1219	n/a	n/a	0	0	0
2751.04833984375	n/a	WORD	5634147	wordpools/wasnorm_wordpool_576.txt	LTP385	ltpFR2	3	12	EAGLE	512	n/a	n/a	0	0	0
2753.75830078125	n/a	WORD	5639697	wordpools/wasnorm_wordpool_576.txt	LTP385	ltpFR2	3	12	PANTHER	1009	n/a	n/a	0	0	0
2756.248046875	n/a	WORD	5644796	wordpools/wasnorm_wordpool_576.txt	LTP385	ltpFR2	3	12	FLOWER	584	n/a	n/a	0	0	0
2758.8740234375	n/a	WORD	5650174	wordpools/wasnorm_wordpool_576.txt	LTP385	ltpFR2	3	12	SPARROW	1347	n/a	n/a	0	0	0
2761.48193359375	n/a	WORD	5655515	wordpools/wasnorm_wordpool_576.txt	LTP385	ltpFR2	3	12	TRENCH	1503	n/a	n/a	0	0	0
2764.20703125	n/a	WORD	5661096	wordpools/wasnorm_wordpool_576.txt	LTP385	ltpFR2	3	12	BOUQUET	157	n/a	n/a	0	0	0
2766.966796875	n/a	WORD	5666748	wordpools/wasnorm_wordpool_576.txt	LTP385	ltpFR2	3	12	WRENCH	1625	n/a	n/a	0	0	0
2769.52392578125	n/a	WORD	5671985	wordpools/wasnorm_wordpool_576.txt	LTP385	ltpFR2	3	12	SHOULDER	1294	n/a	n/a	0	0	0
2772.08251953125	n/a	WORD	5677225	wordpools/wasnorm_wordpool_576.txt	LTP385	ltpFR2	3	12	TROMBONE	1508	n/a	n/a	0	0	0
2774.74169921875	n/a	WORD	5682671	wordpools/wasnorm_wordpool_576.txt	LTP385	ltpFR2	3	12	TABLET	1427	n/a	n/a	0	0	0
2777.232421875	n/a	WORD	5687772	wordpools/wasnorm_wordpool_576.txt	LTP385	ltpFR2	3	12	CARRIAGE	248	n/a	n/a	0	0	0
2779.82470703125	n/a	WORD	5693081	wordpools/wasnorm_wordpool_576.txt	LTP385	ltpFR2	3	12	ZEBRA	1635	n/a	n/a	0	0	0
2781.42919921875	n/a	START	5696367	n/a	LTP385	ltpFR2	3	n/a	n/a	n/a	19	n/a	n/a	n/a	n/a
2782.59423828125	n/a	DISTRACTOR	5698753	n/a	LTP385	ltpFR2	3	12	n/a	n/a	n/a	n/a	0	0	0
2782.6005859375	n/a	PROB	5698766	n/a	LTP385	ltpFR2	3	n/a	n/a	n/a	19	17	7	3	7
2785.20849609375	n/a	PROB	5704107	n/a	LTP385	ltpFR2	3	n/a	n/a	n/a	19	18	9	5	4
2788.68603515625	n/a	PROB	5711229	n/a	LTP385	ltpFR2	3	n/a	n/a	n/a	19	15	4	2	9
2792.58203125	n/a	PROB	5719208	n/a	LTP385	ltpFR2	3	n/a	n/a	n/a	19	18	9	8	1
2794.72314453125	n/a	PROB	5723593	n/a	LTP385	ltpFR2	3	n/a	n/a	n/a	19	19	6	8	5
2798.1328125	n/a	PROB	5730576	n/a	LTP385	ltpFR2	3	n/a	n/a	n/a	19	1	7	2	2
2800.33984375	n/a	PROB	5735096	n/a	LTP385	ltpFR2	3	n/a	n/a	n/a	19	14	9	3	2
2804.7919921875	n/a	STOP	5744214	n/a	LTP385	ltpFR2	3	n/a	n/a	n/a	19	n/a	n/a	n/a	n/a
2807.24560546875	n/a	REC_START	5749239	n/a	LTP385	ltpFR2	3	12	n/a	n/a	n/a	n/a	0	0	0
2809.40380859375	n/a	REC_WORD	5753659	wordpools/wasnorm_wordpool_576.txt	LTP385	ltpFR2	3	12	NAPKIN	937	n/a	n/a	0	0	0
2810.16162109375	n/a	REC_WORD	5755211	wordpools/wasnorm_wordpool_576.txt	LTP385	ltpFR2	3	12	BLUEPRINT	142	n/a	n/a	0	0	0
2811.1337890625	n/a	REC_WORD	5757202	wordpools/wasnorm_wordpool_576.txt	LTP385	ltpFR2	3	12	AIRPORT	13	n/a	n/a	0	0	0
2812.35986328125	n/a	REC_WORD	5759713	wordpools/wasnorm_wordpool_576.txt	LTP385	ltpFR2	3	12	PARROT	1015	n/a	n/a	0	0	0
2813.8125	n/a	REC_WORD	5762688	wordpools/wasnorm_wordpool_576.txt	LTP385	ltpFR2	3	12	MEDAL	885	n/a	n/a	0	0	0
2815.638671875	n/a	REC_WORD	5766428	wordpools/wasnorm_wordpool_576.txt	LTP385	ltpFR2	3	12	REPORT	1184	n/a	n/a	0	0	0
2818.16162109375	n/a	REC_WORD	5771595	wordpools/wasnorm_wordpool_576.txt	LTP385	ltpFR2	3	12	FLEET	578	n/a	n/a	0	0	0
2819.36962890625	n/a	REC_WORD	5774069	wordpools/wasnorm_wordpool_576.txt	LTP385	ltpFR2	3	12	PANTHER	1009	n/a	n/a	0	0	0
2820.2255859375	n/a	REC_WORD	5775822	wordpools/wasnorm_wordpool_576.txt	LTP385	ltpFR2	3	12	FLOWER	584	n/a	n/a	0	0	0
2823.30810546875	n/a	REC_WORD	5782135	wordpools/wasnorm_wordpool_576.txt	LTP385	ltpFR2	3	12	SCALPEL	1243	n/a	n/a	0	0	0
2825.984375	n/a	REC_WORD	5787616	wordpools/wasnorm_wordpool_576.txt	LTP385	ltpFR2	3	12	RUST	1219	n/a	n/a	0	0	0
2829.68017578125	n/a	REC_WORD	5795185	wordpools/wasnorm_wordpool_576.txt	LTP385	ltpFR2	3	12	WRENCH	1625	n/a	n/a	0	0	0
2830.7333984375	n/a	REC_WORD	5797342	wordpools/wasnorm_wordpool_576.txt	LTP385	ltpFR2	3	12	SHOULDER	1294	n/a	n/a	0	0	0
2833.154296875	n/a	REC_WORD	5802300	wordpools/wasnorm_wordpool_576.txt	LTP385	ltpFR2	3	12	TROMBONE	1508	n/a	n/a	0	0	0
2839.380859375	n/a	REC_WORD	5815052	wordpools/wasnorm_wordpool_576.txt	LTP385	ltpFR2	3	12	ZEBRA	1635	n/a	n/a	0	0	0
2847.6376953125	n/a	REC_WORD	5831962	wordpools/wasnorm_wordpool_576.txt	LTP385	ltpFR2	3	12	TRENCH	1503	n/a	n/a	0	0	0
2897.6875	n/a	DISTRACTOR	5934464	n/a	LTP385	ltpFR2	3	13	n/a	n/a	n/a	n/a	0	0	0
2897.6875	n/a	START	5934464	n/a	LTP385	ltpFR2	3	n/a	n/a	n/a	20	n/a	n/a	n/a	n/a
2897.70361328125	n/a	PROB	5934497	n/a	LTP385	ltpFR2	3	n/a	n/a	n/a	20	23	4	8	9
2901.63330078125	n/a	PROB	5942545	n/a	LTP385	ltpFR2	3	n/a	n/a	n/a	20	3	1	2	4
2904.47412109375	n/a	PROB	5948363	n/a	LTP385	ltpFR2	3	n/a	n/a	n/a	20	11	2	5	4
2909.17333984375	n/a	PROB	5957987	n/a	LTP385	ltpFR2	3	n/a	n/a	n/a	20	9	2	4	3
2911.73193359375	n/a	PROB	5963227	n/a	LTP385	ltpFR2	3	n/a	n/a	n/a	20	11	3	4	4
2914.625	n/a	PROB	5969152	n/a	LTP385	ltpFR2	3	n/a	n/a	n/a	20	14	1	7	6
2918.921875	n/a	PROB	5977952	n/a	LTP385	ltpFR2	3	n/a	n/a	n/a	20	18	8	1	9
2921.0068359375	n/a	STOP	5982222	n/a	LTP385	ltpFR2	3	n/a	n/a	n/a	20	n/a	n/a	n/a	n/a
2922.68359375	n/a	WORD	5985656	wordpools/wasnorm_wordpool_576.txt	LTP385	ltpFR2	3	13	DUSTPAN	509	n/a	n/a	0	0	0
2925.37451171875	n/a	WORD	5991167	wordpools/wasnorm_wordpool_576.txt	LTP385	ltpFR2	3	13	ATLAS	53	n/a	n/a	0	0	0
2928.1005859375	n/a	WORD	5996750	wordpools/wasnorm_wordpool_576.txt	LTP385	ltpFR2	3	13	FINGER	567	n/a	n/a	0	0	0
2930.642578125	n/a	WORD	6001956	wordpools/wasnorm_wordpool_576.txt	LTP385	ltpFR2	3	13	PALACE	1006	n/a	n/a	0	0	0
2933.36767578125	n/a	WORD	6007537	wordpools/wasnorm_wordpool_576.txt	LTP385	ltpFR2	3	13	FRUIT	610	n/a	n/a	0	0	0
2936.109375	n/a	WORD	6013152	wordpools/wasnorm_wordpool_576.txt	LTP385	ltpFR2	3	13	GRAPE	654	n/a	n/a	0	0	0
2938.8525390625	n/a	WORD	6018770	wordpools/wasnorm_wordpool_576.txt	LTP385	ltpFR2	3	13	CREATURE	403	n/a	n/a	0	0	0
2941.359375	n/a	WORD	6023904	wordpools/wasnorm_wordpool_576.txt	LTP385	ltpFR2	3	13	GREASE	660	n/a	n/a	0	0	0
2944.03515625	n/a	WORD	6029384	wordpools/wasnorm_wordpool_576.txt	LTP385	ltpFR2	3	13	MONSTER	912	n/a	n/a	0	0	0
2946.7109375	n/a	WORD	6034864	wordpools/wasnorm_wordpool_576.txt	LTP385	ltpFR2	3	13	MESSAGE	888	n/a	n/a	0	0	0
2949.51904296875	n/a	WORD	6040615	wordpools/wasnorm_wordpool_576.txt	LTP385	ltpFR2	3	13	BRICK	172	n/a	n/a	0	0	0
2952.22802734375	n/a	WORD	6046163	wordpools/wasnorm_wordpool_576.txt	LTP385	ltpFR2	3	13	COTTAGE	384	n/a	n/a	0	0	0
2954.85400390625	n/a	WORD	6051541	wordpools/wasnorm_wordpool_576.txt	LTP385	ltpFR2	3	13	VALVE	1546	n/a	n/a	0	0	0
2957.47802734375	n/a	WORD	6056915	wordpools/wasnorm_wordpool_576.txt	LTP385	ltpFR2	3	13	VIKING	1565	n/a	n/a	0	0	0
2959.98681640625	n/a	WORD	6062053	wordpools/wasnorm_wordpool_576.txt	LTP385	ltpFR2	3	13	GARLIC	624	n/a	n/a	0	0	0
2962.7626953125	n/a	WORD	6067738	wordpools/wasnorm_wordpool_576.txt	LTP385	ltpFR2	3	13	HAND	683	n/a	n/a	0	0	0
2965.2197265625	n/a	WORD	6072770	wordpools/wasnorm_wordpool_576.txt	LTP385	ltpFR2	3	13	GAVEL	627	n/a	n/a	0	0	0
2967.845703125	n/a	WORD	6078148	wordpools/wasnorm_wordpool_576.txt	LTP385	ltpFR2	3	13	SUSPECT	1415	n/a	n/a	0	0	0
2970.6044921875	n/a	WORD	6083798	wordpools/wasnorm_wordpool_576.txt	LTP385	ltpFR2	3	13	CASHIER	254	n/a	n/a	0	0	0
2973.2783203125	n/a	WORD	6089274	wordpools/wasnorm_wordpool_576.txt	LTP385	ltpFR2	3	13	TART	1436	n/a	n/a	0	0	0
2975.75439453125	n/a	WORD	6094345	wordpools/wasnorm_wordpool_576.txt	LTP385	ltpFR2	3	13	PLUTO	1092	n/a	n/a	0	0	0
2978.2783203125	n/a	WORD	6099514	wordpools/wasnorm_wordpool_576.txt	LTP385	ltpFR2	3	13	OFFICE	972	n/a	n/a	0	0	0
2980.75439453125	n/a	WORD	6104585	wordpools/wasnorm_wordpool_576.txt	LTP385	ltpFR2	3	13	RIFLE	1192	n/a	n/a	0	0	0
2983.51220703125	n/a	WORD	6110233	wordpools/wasnorm_wordpool_576.txt	LTP385	ltpFR2	3	13	TRUCK	1512	n/a	n/a	0	0	0
2985.1171875	n/a	START	6113520	n/a	LTP385	ltpFR2	3	n/a	n/a	n/a	21	n/a	n/a	n/a	n/a
2986.31591796875	n/a	DISTRACTOR	6115975	n/a	LTP385	ltpFR2	3	13	n/a	n/a	n/a	n/a	0	0	0
2986.3212890625	n/a	PROB	6115986	n/a	LTP385	ltpFR2	3	n/a	n/a	n/a	21	17	9	2	6
2989.09619140625	n/a	PROB	6121669	n/a	LTP385	ltpFR2	3	n/a	n/a	n/a	21	18	9	4	5
2991.7060546875	n/a	PROB	6127014	n/a	LTP385	ltpFR2	3	n/a	n/a	n/a	21	20	9	8	3
2994.095703125	n/a	PROB	6131908	n/a	LTP385	ltpFR2	3	n/a	n/a	n/a	21	20	4	7	9
2997.5908203125	n/a	PROB	6139066	n/a	LTP385	ltpFR2	3	n/a	n/a	n/a	21	9	3	4	2
2999.61474609375	n/a	PROB	6143211	n/a	LTP385	ltpFR2	3	n/a	n/a	n/a	21	13	4	4	5
3002.77490234375	n/a	PROB	6149683	n/a	LTP385	ltpFR2	3	n/a	n/a	n/a	21	13	1	7	4
3009.11669921875	n/a	STOP	6162671	n/a	LTP385	ltpFR2	3	n/a	n/a	n/a	21	n/a	n/a	n/a	n/a
3010.96826171875	n/a	REC_START	6166463	n/a	LTP385	ltpFR2	3	13	n/a	n/a	n/a	n/a	0	0	0
3012.37646484375	n/a	REC_WORD	6169347	wordpools/wasnorm_wordpool_576.txt	LTP385	ltpFR2	3	13	DUSTPAN	509	n/a	n/a	0	0	0
3013.365234375	n/a	REC_WORD	6171372	wordpools/wasnorm_wordpool_576.txt	LTP385	ltpFR2	3	13	ATLAS	53	n/a	n/a	0	0	0
3014.4453125	n/a	REC_WORD	6173584	wordpools/wasnorm_wordpool_576.txt	LTP385	ltpFR2	3	13	FINGER	567	n/a	n/a	0	0	0
3015.93115234375	n/a	REC_WORD	6176627	wordpools/wasnorm_wordpool_576.txt	LTP385	ltpFR2	3	13	PALACE	1006	n/a	n/a	0	0	0
3018.3212890625	n/a	REC_WORD	6181522	wordpools/wasnorm_wordpool_576.txt	LTP385	ltpFR2	3	13	FRUIT	610	n/a	n/a	0	0	0
3028.22216796875	n/a	REC_WORD	6201799	wordpools/wasnorm_wordpool_576.txt	LTP385	ltpFR2	3	13	PEAR	1033	n/a	n/a	0	0	0
3030.40283203125	n/a	REC_WORD	6206265	wordpools/wasnorm_wordpool_576.txt	LTP385	ltpFR2	3	13	MONSTER	912	n/a	n/a	0	0	0
3031.51611328125	n/a	REC_WORD	6208545	wordpools/wasnorm_wordpool_576.txt	LTP385	ltpFR2	3	13	COTTAGE	384	n/a	n/a	0	0	0
3034.0556640625	n/a	REC_WORD	6213746	wordpools/wasnorm_wordpool_576.txt	LTP385	ltpFR2	3	13	BRICK	172	n/a	n/a	0	0	0
3042.91845703125	n/a	REC_WORD	6231897	wordpools/wasnorm_wordpool_576.txt	LTP385	ltpFR2	3	13	CHANNEL	-1	n/a	n/a	0	0	0
3059.87109375	n/a	REC_WORD	6266616	wordpools/wasnorm_wordpool_576.txt	LTP385	ltpFR2	3	13	OFFICE	972	n/a	n/a	0	0	0
3069.541015625	n/a	REC_WORD	6286420	wordpools/wasnorm_wordpool_576.txt	LTP385	ltpFR2	3	13	RIFLE	1192	n/a	n/a	0	0	0
3083.90771484375	n/a	REC_WORD	6315843	wordpools/wasnorm_wordpool_576.txt	LTP385	ltpFR2	3	13	VIKING	1565	n/a	n/a	0	0	0
3101.4072265625	n/a	DISTRACTOR	6351682	n/a	LTP385	ltpFR2	3	14	n/a	n/a	n/a	n/a	0	0	0
3101.4072265625	n/a	START	6351682	n/a	LTP385	ltpFR2	3	n/a	n/a	n/a	22	n/a	n/a	n/a	n/a
3101.42431640625	n/a	PROB	6351717	n/a	LTP385	ltpFR2	3	n/a	n/a	n/a	22	14	3	9	2
3104.953125	n/a	PROB	6358944	n/a	LTP385	ltpFR2	3	n/a	n/a	n/a	22	4	1	1	2
3106.4072265625	n/a	PROB	6361922	n/a	LTP385	ltpFR2	3	n/a	n/a	n/a	22	17	5	3	9
3110.5029296875	n/a	PROB	6370310	n/a	LTP385	ltpFR2	3	n/a	n/a	n/a	22	13	1	4	8
3113.52978515625	n/a	PROB	6376509	n/a	LTP385	ltpFR2	3	n/a	n/a	n/a	22	12	3	7	2
3115.82080078125	n/a	PROB	6381201	n/a	LTP385	ltpFR2	3	n/a	n/a	n/a	22	12	5	4	3
3120.4345703125	n/a	PROB	6390650	n/a	LTP385	ltpFR2	3	n/a	n/a	n/a	22	16	4	3	9
3124.1513671875	n/a	STOP	6398262	n/a	LTP385	ltpFR2	3	n/a	n/a	n/a	22	n/a	n/a	n/a	n/a
3126.4716796875	n/a	WORD	6403014	wordpools/wasnorm_wordpool_576.txt	LTP385	ltpFR2	3	14	HORNET	718	n/a	n/a	0	0	0
3129.0625	n/a	WORD	6408320	wordpools/wasnorm_wordpool_576.txt	LTP385	ltpFR2	3	14	PIGMENT	1066	n/a	n/a	0	0	0
3131.72216796875	n/a	WORD	6413767	wordpools/wasnorm_wordpool_576.txt	LTP385	ltpFR2	3	14	PLAZA	1088	n/a	n/a	0	0	0
3134.46337890625	n/a	WORD	6419381	wordpools/wasnorm_wordpool_576.txt	LTP385	ltpFR2	3	14	EMPIRE	530	n/a	n/a	0	0	0
3137.25537109375	n/a	WORD	6425099	wordpools/wasnorm_wordpool_576.txt	LTP385	ltpFR2	3	14	DRINK	498	n/a	n/a	0	0	0
3139.8310546875	n/a	WORD	6430374	wordpools/wasnorm_wordpool_576.txt	LTP385	ltpFR2	3	14	GLASS	639	n/a	n/a	0	0	0
3142.27197265625	n/a	WORD	6435373	wordpools/wasnorm_wordpool_576.txt	LTP385	ltpFR2	3	14	LONDON	843	n/a	n/a	0	0	0
3144.78125	n/a	WORD	6440512	wordpools/wasnorm_wordpool_576.txt	LTP385	ltpFR2	3	14	CLOUD	328	n/a	n/a	0	0	0
3147.52197265625	n/a	WORD	6446125	wordpools/wasnorm_wordpool_576.txt	LTP385	ltpFR2	3	14	POISON	1096	n/a	n/a	0	0	0
3150.080078125	n/a	WORD	6451364	wordpools/wasnorm_wordpool_576.txt	LTP385	ltpFR2	3	14	WORKER	1621	n/a	n/a	0	0	0
3152.623046875	n/a	WORD	6456572	wordpools/wasnorm_wordpool_576.txt	LTP385	ltpFR2	3	14	JAPAN	749	n/a	n/a	0	0	0
3155.07958984375	n/a	WORD	6461603	wordpools/wasnorm_wordpool_576.txt	LTP385	ltpFR2	3	14	BOYFRIEND	162	n/a	n/a	0	0	0
3157.6884765625	n/a	WORD	6466946	wordpools/wasnorm_wordpool_576.txt	LTP385	ltpFR2	3	14	RECEIPT	1173	n/a	n/a	0	0	0
3160.48046875	n/a	WORD	6472664	wordpools/wasnorm_wordpool_576.txt	LTP385	ltpFR2	3	14	WAGON	1578	n/a	n/a	0	0	0
3163.12158203125	n/a	WORD	6478073	wordpools/wasnorm_wordpool_576.txt	LTP385	ltpFR2	3	14	THREAD	1460	n/a	n/a	0	0	0
3165.8486328125	n/a	WORD	6483658	wordpools/wasnorm_wordpool_576.txt	LTP385	ltpFR2	3	14	SUMMIT	1405	n/a	n/a	0	0	0
3168.35546875	n/a	WORD	6488792	wordpools/wasnorm_wordpool_576.txt	LTP385	ltpFR2	3	14	CLIMBER	323	n/a	n/a	0	0	0
3170.83154296875	n/a	WORD	6493863	wordpools/wasnorm_wordpool_576.txt	LTP385	ltpFR2	3	14	WARDROBE	1587	n/a	n/a	0	0	0
3173.6064453125	n/a	WORD	6499546	wordpools/wasnorm_wordpool_576.txt	LTP385	ltpFR2	3	14	COBRA	336	n/a	n/a	0	0	0
3176.26416015625	n/a	WORD	6504989	wordpools/wasnorm_wordpool_576.txt	LTP385	ltpFR2	3	14	FLASHLIGHT	575	n/a	n/a	0	0	0
3178.75634765625	n/a	WORD	6510093	wordpools/wasnorm_wordpool_576.txt	LTP385	ltpFR2	3	14	TYPIST	1532	n/a	n/a	0	0	0
3181.197265625	n/a	WORD	6515092	wordpools/wasnorm_wordpool_576.txt	LTP385	ltpFR2	3	14	HOUND	724	n/a	n/a	0	0	0
3183.990234375	n/a	WORD	6520812	wordpools/wasnorm_wordpool_576.txt	LTP385	ltpFR2	3	14	CYCLONE	431	n/a	n/a	0	0	0
3186.68212890625	n/a	WORD	6526325	wordpools/wasnorm_wordpool_576.txt	LTP385	ltpFR2	3	14	TWISTER	1530	n/a	n/a	0	0	0
3188.287109375	n/a	START	6529612	n/a	LTP385	ltpFR2	3	n/a	n/a	n/a	23	n/a	n/a	n/a	n/a
3189.28466796875	n/a	DISTRACTOR	6531655	n/a	LTP385	ltpFR2	3	14	n/a	n/a	n/a	n/a	0	0	0
3189.2900390625	n/a	PROB	6531666	n/a	LTP385	ltpFR2	3	n/a	n/a	n/a	23	16	9	3	4
3193.302734375	n/a	PROB	6539884	n/a	LTP385	ltpFR2	3	n/a	n/a	n/a	23	24	9	8	7
3196.44580078125	n/a	PROB	6546321	n/a	LTP385	ltpFR2	3	n/a	n/a	n/a	23	11	3	1	7
3198.45263671875	n/a	PROB	6550431	n/a	LTP385	ltpFR2	3	n/a	n/a	n/a	23	11	6	3	2
3200.8603515625	n/a	PROB	6555362	n/a	LTP385	ltpFR2	3	n/a	n/a	n/a	23	16	7	8	1
3203.904296875	n/a	PROB	6561596	n/a	LTP385	ltpFR2	3	n/a	n/a	n/a	23	13	7	4	2
3207.26318359375	n/a	PROB	6568475	n/a	LTP385	ltpFR2	3	n/a	n/a	n/a	23	13	3	8	2
3212.2861328125	n/a	STOP	6578762	n/a	LTP385	ltpFR2	3	n/a	n/a	n/a	23	n/a	n/a	n/a	n/a
3214.203125	n/a	REC_START	6582688	n/a	LTP385	ltpFR2	3	14	n/a	n/a	n/a	n/a	0	0	0
3216.9560546875	n/a	REC_WORD	6588326	wordpools/wasnorm_wordpool_576.txt	LTP385	ltpFR2	3	14	HORNET	718	n/a	n/a	0	0	0
3218.0009765625	n/a	REC_WORD	6590466	wordpools/wasnorm_wordpool_576.txt	LTP385	ltpFR2	3	14	PLAZA	1088	n/a	n/a	0	0	0
3219.6650390625	n/a	REC_WORD	6593874	wordpools/wasnorm_wordpool_576.txt	LTP385	ltpFR2	3	14	DRINK	498	n/a	n/a	0	0	0
3221.9892578125	n/a	REC_WORD	6598634	wordpools/wasnorm_wordpool_576.txt	LTP385	ltpFR2	3	14	EMPIRE	530	n/a	n/a	0	0	0
3223.462890625	n/a	REC_WORD	6601652	wordpools/wasnorm_wordpool_576.txt	LTP385	ltpFR2	3	14	WINDOW	1611	n/a	n/a	0	0	0
3224.5419921875	n/a	REC_WORD	6603862	wordpools/wasnorm_wordpool_576.txt	LTP385	ltpFR2	3	14	WORKER	1621	n/a	n/a	0	0	0
3227.3046875	n/a	REC_WORD	6609520	wordpools/wasnorm_wordpool_576.txt	LTP385	ltpFR2	3	14	PIGMENT	1066	n/a	n/a	0	0	0
3229.44580078125	n/a	REC_WORD	6613905	wordpools/wasnorm_wordpool_576.txt	LTP385	ltpFR2	3	14	JAPAN	749	n/a	n/a	0	0	0
3230.498046875	n/a	REC_WORD	6616060	wordpools/wasnorm_wordpool_576.txt	LTP385	ltpFR2	3	14	LONDON	843	n/a	n/a	0	0	0
3231.8896484375	n/a	REC_WORD	6618910	wordpools/wasnorm_wordpool_576.txt	LTP385	ltpFR2	3	14	SUMMIT	1405	n/a	n/a	0	0	0
3233.0166015625	n/a	REC_WORD	6621218	wordpools/wasnorm_wordpool_576.txt	LTP385	ltpFR2	3	14	HIKER	708	n/a	n/a	0	0	0
3234.32080078125	n/a	REC_WORD	6623889	wordpools/wasnorm_wordpool_576.txt	LTP385	ltpFR2	3	14	FLASHLIGHT	575	n/a	n/a	0	0	0
3239.15478515625	n/a	REC_WORD	6633789	wordpools/wasnorm_wordpool_576.txt	LTP385	ltpFR2	3	14	SNAKE	1333	n/a	n/a	0	0	0
3244.20556640625	n/a	REC_WORD	6644133	wordpools/wasnorm_wordpool_576.txt	LTP385	ltpFR2	3	14	CYCLONE	431	n/a	n/a	0	0	0
3245.529296875	n/a	REC_WORD	6646844	wordpools/wasnorm_wordpool_576.txt	LTP385	ltpFR2	3	14	TWISTER	1530	n/a	n/a	0	0	0
3304.6611328125	n/a	DISTRACTOR	6767946	n/a	LTP385	ltpFR2	3	15	n/a	n/a	n/a	n/a	0	0	0
3304.662109375	n/a	START	6767948	n/a	LTP385	ltpFR2	3	n/a	n/a	n/a	24	n/a	n/a	n/a	n/a
3304.677734375	n/a	PROB	6767980	n/a	LTP385	ltpFR2	3	n/a	n/a	n/a	24	18	9	3	6
3308.18798828125	n/a	PROB	6775169	n/a	LTP385	ltpFR2	3	n/a	n/a	n/a	24	14	8	3	3
3310.73095703125	n/a	PROB	6780377	n/a	LTP385	ltpFR2	3	n/a	n/a	n/a	24	14	1	7	6
3313.82373046875	n/a	PROB	6786711	n/a	LTP385	ltpFR2	3	n/a	n/a	n/a	24	9	1	4	5
3316.263671875	n/a	PROB	6791708	n/a	LTP385	ltpFR2	3	n/a	n/a	n/a	24	10	5	4	1
3318.42041015625	n/a	PROB	6796125	n/a	LTP385	ltpFR2	3	n/a	n/a	n/a	24	22	5	8	9
3323.353515625	n/a	PROB	6806228	n/a	LTP385	ltpFR2	3	n/a	n/a	n/a	24	18	4	5	9
3326.24658203125	n/a	PROB	6812153	n/a	LTP385	ltpFR2	3	n/a	n/a	n/a	24	8	6	1	1
3328.44140625	n/a	STOP	6816648	n/a	LTP385	ltpFR2	3	n/a	n/a	n/a	24	n/a	n/a	n/a	n/a
3329.5234375	n/a	WORD	6818864	wordpools/wasnorm_wordpool_576.txt	LTP385	ltpFR2	3	15	WRIST	1626	n/a	n/a	0	0	0
3332.0654296875	n/a	WORD	6824070	wordpools/wasnorm_wordpool_576.txt	LTP385	ltpFR2	3	15	LEG	809	n/a	n/a	0	0	0
3334.791015625	n/a	WORD	6829652	wordpools/wasnorm_wordpool_576.txt	LTP385	ltpFR2	3	15	DRIVER	499	n/a	n/a	0	0	0
3337.21484375	n/a	WORD	6834616	wordpools/wasnorm_wordpool_576.txt	LTP385	ltpFR2	3	15	WINDOW	1611	n/a	n/a	0	0	0
3339.70703125	n/a	WORD	6839720	wordpools/wasnorm_wordpool_576.txt	LTP385	ltpFR2	3	15	WORLD	1622	n/a	n/a	0	0	0
3342.380859375	n/a	WORD	6845196	wordpools/wasnorm_wordpool_576.txt	LTP385	ltpFR2	3	15	JELLY	755	n/a	n/a	0	0	0
3344.9736328125	n/a	WORD	6850506	wordpools/wasnorm_wordpool_576.txt	LTP385	ltpFR2	3	15	SHELF	1280	n/a	n/a	0	0	0
3347.53076171875	n/a	WORD	6855743	wordpools/wasnorm_wordpool_576.txt	LTP385	ltpFR2	3	15	PEACH	1031	n/a	n/a	0	0	0
3350.2236328125	n/a	WORD	6861258	wordpools/wasnorm_wordpool_576.txt	LTP385	ltpFR2	3	15	CHAPEL	280	n/a	n/a	0	0	0
3352.7158203125	n/a	WORD	6866362	wordpools/wasnorm_wordpool_576.txt	LTP385	ltpFR2	3	15	CAMEL	223	n/a	n/a	0	0	0
3355.17236328125	n/a	WORD	6871393	wordpools/wasnorm_wordpool_576.txt	LTP385	ltpFR2	3	15	INMATE	738	n/a	n/a	0	0	0
3357.765625	n/a	WORD	6876704	wordpools/wasnorm_wordpool_576.txt	LTP385	ltpFR2	3	15	LEADER	807	n/a	n/a	0	0	0
3360.2724609375	n/a	WORD	6881838	wordpools/wasnorm_wordpool_576.txt	LTP385	ltpFR2	3	15	VENUS	1557	n/a	n/a	0	0	0
3362.931640625	n/a	WORD	6887284	wordpools/wasnorm_wordpool_576.txt	LTP385	ltpFR2	3	15	TRANSPLANT	1496	n/a	n/a	0	0	0
3365.64013671875	n/a	WORD	6892831	wordpools/wasnorm_wordpool_576.txt	LTP385	ltpFR2	3	15	HEART	697	n/a	n/a	0	0	0
3368.4482421875	n/a	WORD	6898582	wordpools/wasnorm_wordpool_576.txt	LTP385	ltpFR2	3	15	PASSAGE	1019	n/a	n/a	0	0	0
3371.0234375	n/a	WORD	6903856	wordpools/wasnorm_wordpool_576.txt	LTP385	ltpFR2	3	15	BACKBONE	66	n/a	n/a	0	0	0
3373.80029296875	n/a	WORD	6909543	wordpools/wasnorm_wordpool_576.txt	LTP385	ltpFR2	3	15	FRIAR	605	n/a	n/a	0	0	0
3376.240234375	n/a	WORD	6914540	wordpools/wasnorm_wordpool_576.txt	LTP385	ltpFR2	3	15	MARSH	874	n/a	n/a	0	0	0
3379.033203125	n/a	WORD	6920260	wordpools/wasnorm_wordpool_576.txt	LTP385	ltpFR2	3	15	MUSTARD	935	n/a	n/a	0	0	0
3381.52392578125	n/a	WORD	6925361	wordpools/wasnorm_wordpool_576.txt	LTP385	ltpFR2	3	15	SANDWICH	1232	n/a	n/a	0	0	0
3384.03173828125	n/a	WORD	6930497	wordpools/wasnorm_wordpool_576.txt	LTP385	ltpFR2	3	15	CITRUS	313	n/a	n/a	0	0	0
3386.77490234375	n/a	WORD	6936115	wordpools/wasnorm_wordpool_576.txt	LTP385	ltpFR2	3	15	EGYPT	519	n/a	n/a	0	0	0
3389.28173828125	n/a	WORD	6941249	wordpools/wasnorm_wordpool_576.txt	LTP385	ltpFR2	3	15	GRAVE	658	n/a	n/a	0	0	0
3390.888671875	n/a	START	6944540	n/a	LTP385	ltpFR2	3	n/a	n/a	n/a	25	n/a	n/a	n/a	n/a
3391.8408203125	n/a	DISTRACTOR	6946490	n/a	LTP385	ltpFR2	3	15	n/a	n/a	n/a	n/a	0	0	0
3391.857421875	n/a	PROB	6946524	n/a	LTP385	ltpFR2	3	n/a	n/a	n/a	25	18	9	6	3
3395.36865234375	n/a	PROB	6953715	n/a	LTP385	ltpFR2	3	n/a	n/a	n/a	25	15	5	6	4
3397.57666015625	n/a	PROB	6958237	n/a	LTP385	ltpFR2	3	n/a	n/a	n/a	25	15	3	8	4
3400.736328125	n/a	PROB	6964708	n/a	LTP385	ltpFR2	3	n/a	n/a	n/a	25	15	5	7	3
3403.57958984375	n/a	PROB	6970531	n/a	LTP385	ltpFR2	3	n/a	n/a	n/a	25	18	6	8	4
3407.0224609375	n/a	PROB	6977582	n/a	LTP385	ltpFR2	3	n/a	n/a	n/a	25	19	2	9	8
3410.80224609375	n/a	PROB	6985323	n/a	LTP385	ltpFR2	3	n/a	n/a	n/a	25	16	2	8	6
3414.88818359375	n/a	STOP	6993691	n/a	LTP385	ltpFR2	3	n/a	n/a	n/a	25	n/a	n/a	n/a	n/a
3416.72216796875	n/a	REC_START	6997447	n/a	LTP385	ltpFR2	3	15	n/a	n/a	n/a	n/a	0	0	0
3421.23193359375	n/a	REC_WORD	7006683	wordpools/wasnorm_wordpool_576.txt	LTP385	ltpFR2	3	15	SHOULDER	1294	n/a	n/a	0	0	0
3422.06787109375	n/a	REC_WORD	7008395	wordpools/wasnorm_wordpool_576.txt	LTP385	ltpFR2	3	15	WRIST	1626	n/a	n/a	0	0	0
3422.89404296875	n/a	REC_WORD	7010087	wordpools/wasnorm_wordpool_576.txt	LTP385	ltpFR2	3	15	BACKBONE	66	n/a	n/a	0	0	0
3424.046875	n/a	REC_WORD	7012448	wordpools/wasnorm_wordpool_576.txt	LTP385	ltpFR2	3	15	HEART	697	n/a	n/a	0	0	0
3424.76171875	n/a	REC_WORD	7013912	wordpools/wasnorm_wordpool_576.txt	LTP385	ltpFR2	3	15	TRANSPLANT	1496	n/a	n/a	0	0	0
3433.37158203125	n/a	REC_WORD	7031545	wordpools/wasnorm_wordpool_576.txt	LTP385	ltpFR2	3	15	EMPIRE	530	n/a	n/a	0	0	0
3440.46240234375	n/a	REC_WORD	7046067	wordpools/wasnorm_wordpool_576.txt	LTP385	ltpFR2	3	15	PLUTO	1092	n/a	n/a	0	0	0
3443.04638671875	n/a	REC_WORD	7051359	wordpools/wasnorm_wordpool_576.txt	LTP385	ltpFR2	3	15	VENUS	1557	n/a	n/a	0	0	0
3455.51025390625	n/a	REC_WORD	7076885	wordpools/wasnorm_wordpool_576.txt	LTP385	ltpFR2	3	15	MUSTARD	935	n/a	n/a	0	0	0
3456.705078125	n/a	REC_WORD	7079332	wordpools/wasnorm_wordpool_576.txt	LTP385	ltpFR2	3	15	SANDWICH	1232	n/a	n/a	0	0	0
3507.177734375	n/a	DISTRACTOR	7182700	n/a	LTP385	ltpFR2	3	16	n/a	n/a	n/a	n/a	0	0	0
3507.177734375	n/a	START	7182700	n/a	LTP385	ltpFR2	3	n/a	n/a	n/a	26	n/a	n/a	n/a	n/a
3507.19482421875	n/a	PROB	7182735	n/a	LTP385	ltpFR2	3	n/a	n/a	n/a	26	16	6	1	9
3509.50146484375	n/a	PROB	7187459	n/a	LTP385	ltpFR2	3	n/a	n/a	n/a	26	6	3	1	2
3511.642578125	n/a	PROB	7191844	n/a	LTP385	ltpFR2	3	n/a	n/a	n/a	26	18	3	8	7
3514.92041015625	n/a	PROB	7198557	n/a	LTP385	ltpFR2	3	n/a	n/a	n/a	26	7	4	2	1
3518.732421875	n/a	PROB	7206364	n/a	LTP385	ltpFR2	3	n/a	n/a	n/a	26	14	4	7	3
3521.67529296875	n/a	PROB	7212391	n/a	LTP385	ltpFR2	3	n/a	n/a	n/a	26	12	3	1	8
3523.96630859375	n/a	PROB	7217083	n/a	LTP385	ltpFR2	3	n/a	n/a	n/a	26	15	4	5	6
3526.4560546875	n/a	PROB	7222182	n/a	LTP385	ltpFR2	3	n/a	n/a	n/a	26	18	4	6	8
3531.17626953125	n/a	STOP	7231849	n/a	LTP385	ltpFR2	3	n/a	n/a	n/a	26	n/a	n/a	n/a	n/a
3532.341796875	n/a	WORD	7234236	wordpools/wasnorm_wordpool_576.txt	LTP385	ltpFR2	3	16	PROTON	1132	n/a	n/a	0	0	0
3534.8837890625	n/a	WORD	7239442	wordpools/wasnorm_wordpool_576.txt	LTP385	ltpFR2	3	16	VICTIM	1562	n/a	n/a	0	0	0
3537.64306640625	n/a	WORD	7245093	wordpools/wasnorm_wordpool_576.txt	LTP385	ltpFR2	3	16	SODA	1341	n/a	n/a	0	0	0
3540.06689453125	n/a	WORD	7250057	wordpools/wasnorm_wordpool_576.txt	LTP385	ltpFR2	3	16	GRILL	661	n/a	n/a	0	0	0
3542.7255859375	n/a	WORD	7255502	wordpools/wasnorm_wordpool_576.txt	LTP385	ltpFR2	3	16	TURKEY	1520	n/a	n/a	0	0	0
3545.349609375	n/a	WORD	7260876	wordpools/wasnorm_wordpool_576.txt	LTP385	ltpFR2	3	16	SPHINX	1349	n/a	n/a	0	0	0
3547.80859375	n/a	WORD	7265912	wordpools/wasnorm_wordpool_576.txt	LTP385	ltpFR2	3	16	CONVICT	371	n/a	n/a	0	0	0
3550.265625	n/a	WORD	7270944	wordpools/wasnorm_wordpool_576.txt	LTP385	ltpFR2	3	16	SUPPER	1411	n/a	n/a	0	0	0
3552.8583984375	n/a	WORD	7276254	wordpools/wasnorm_wordpool_576.txt	LTP385	ltpFR2	3	16	PUDDLE	1140	n/a	n/a	0	0	0
3555.3994140625	n/a	WORD	7281458	wordpools/wasnorm_wordpool_576.txt	LTP385	ltpFR2	3	16	BUCKET	184	n/a	n/a	0	0	0
3558.20849609375	n/a	WORD	7287211	wordpools/wasnorm_wordpool_576.txt	LTP385	ltpFR2	3	16	FOOTBALL	591	n/a	n/a	0	0	0
3560.63330078125	n/a	WORD	7292177	wordpools/wasnorm_wordpool_576.txt	LTP385	ltpFR2	3	16	MARKET	871	n/a	n/a	0	0	0
3563.2744140625	n/a	WORD	7297586	wordpools/wasnorm_wordpool_576.txt	LTP385	ltpFR2	3	16	JURY	766	n/a	n/a	0	0	0
3565.71630859375	n/a	WORD	7302587	wordpools/wasnorm_wordpool_576.txt	LTP385	ltpFR2	3	16	POPCORN	1104	n/a	n/a	0	0	0
3568.4580078125	n/a	WORD	7308202	wordpools/wasnorm_wordpool_576.txt	LTP385	ltpFR2	3	16	TOURIST	1488	n/a	n/a	0	0	0
3571.10009765625	n/a	WORD	7313613	wordpools/wasnorm_wordpool_576.txt	LTP385	ltpFR2	3	16	STREAM	1392	n/a	n/a	0	0	0
3573.69189453125	n/a	WORD	7318921	wordpools/wasnorm_wordpool_576.txt	LTP385	ltpFR2	3	16	HELMET	702	n/a	n/a	0	0	0
3576.48388671875	n/a	WORD	7324639	wordpools/wasnorm_wordpool_576.txt	LTP385	ltpFR2	3	16	LUNCH	849	n/a	n/a	0	0	0
3579.0419921875	n/a	WORD	7329878	wordpools/wasnorm_wordpool_576.txt	LTP385	ltpFR2	3	16	WAITER	1580	n/a	n/a	0	0	0
3581.8017578125	n/a	WORD	7335530	wordpools/wasnorm_wordpool_576.txt	LTP385	ltpFR2	3	16	LAKE	796	n/a	n/a	0	0	0
3584.52587890625	n/a	WORD	7341109	wordpools/wasnorm_wordpool_576.txt	LTP385	ltpFR2	3	16	BEAVER	109	n/a	n/a	0	0	0
3587.11767578125	n/a	WORD	7346417	wordpools/wasnorm_wordpool_576.txt	LTP385	ltpFR2	3	16	DASHBOARD	441	n/a	n/a	0	0	0
3589.54248046875	n/a	WORD	7351383	wordpools/wasnorm_wordpool_576.txt	LTP385	ltpFR2	3	16	STAPLE	1371	n/a	n/a	0	0	0
3592.05029296875	n/a	WORD	7356519	wordpools/wasnorm_wordpool_576.txt	LTP385	ltpFR2	3	16	ITEM	746	n/a	n/a	0	0	0
3593.65625	n/a	START	7359808	n/a	LTP385	ltpFR2	3	n/a	n/a	n/a	27	n/a	n/a	n/a	n/a
3594.50634765625	n/a	DISTRACTOR	7361549	n/a	LTP385	ltpFR2	3	16	n/a	n/a	n/a	n/a	0	0	0
3594.50830078125	n/a	PROB	7361553	n/a	LTP385	ltpFR2	3	n/a	n/a	n/a	27	10	2	1	7
3596.5654296875	n/a	PROB	7365766	n/a	LTP385	ltpFR2	3	n/a	n/a	n/a	27	18	5	9	4
3599.9921875	n/a	PROB	7372784	n/a	LTP385	ltpFR2	3	n/a	n/a	n/a	27	14	1	7	6
3602.78515625	n/a	PROB	7378504	n/a	LTP385	ltpFR2	3	n/a	n/a	n/a	27	15	3	6	6
3606.79833984375	n/a	PROB	7386723	n/a	LTP385	ltpFR2	3	n/a	n/a	n/a	27	4	1	1	2
3608.63818359375	n/a	PROB	7390491	n/a	LTP385	ltpFR2	3	n/a	n/a	n/a	27	14	7	6	1
3611.09521484375	n/a	PROB	7395523	n/a	LTP385	ltpFR2	3	n/a	n/a	n/a	27	11	3	3	5
3614.2548828125	n/a	PROB	7401994	n/a	LTP385	ltpFR2	3	n/a	n/a	n/a	27	7	1	5	1
3615.9609375	n/a	PROB	7405488	n/a	LTP385	ltpFR2	3	n/a	n/a	n/a	27	8	1	6	1
3617.5947265625	n/a	STOP	7408834	n/a	LTP385	ltpFR2	3	n/a	n/a	n/a	27	n/a	n/a	n/a	n/a
3619.52294921875	n/a	REC_START	7412783	n/a	LTP385	ltpFR2	3	16	n/a	n/a	n/a	n/a	0	0	0
3621.45751953125	n/a	REC_WORD	7416745	wordpools/wasnorm_wordpool_576.txt	LTP385	ltpFR2	3	16	DASHBOARD	441	n/a	n/a	0	0	0
3622.306640625	n/a	REC_WORD	7418484	wordpools/wasnorm_wordpool_576.txt	LTP385	ltpFR2	3	16	CONVICT	371	n/a	n/a	0	0	0
3623.2314453125	n/a	REC_WORD	7420378	wordpools/wasnorm_wordpool_576.txt	LTP385	ltpFR2	3	16	JURY	766	n/a	n/a	0	0	0
3624.34375	n/a	REC_WORD	7422656	wordpools/wasnorm_wordpool_576.txt	LTP385	ltpFR2	3	16	LUNCH	849	n/a	n/a	0	0	0
3626.82373046875	n/a	REC_WORD	7427735	wordpools/wasnorm_wordpool_576.txt	LTP385	ltpFR2	3	16	TURKEY	1520	n/a	n/a	0	0	0
3627.58447265625	n/a	REC_WORD	7429293	wordpools/wasnorm_wordpool_576.txt	LTP385	ltpFR2	3	16	SODA	1341	n/a	n/a	0	0	0
3637.92724609375	n/a	REC_WORD	7450475	wordpools/wasnorm_wordpool_576.txt	LTP385	ltpFR2	3	16	ROAST	-1	n/a	n/a	0	0	0
3641.93798828125	n/a	REC_WORD	7458689	wordpools/wasnorm_wordpool_576.txt	LTP385	ltpFR2	3	16	PUDDLE	1140	n/a	n/a	0	0	0
3644.0419921875	n/a	REC_WORD	7462998	wordpools/wasnorm_wordpool_576.txt	LTP385	ltpFR2	3	16	BUCKET	184	n/a	n/a	0	0	0
3646.27197265625	n/a	REC_WORD	7467565	wordpools/wasnorm_wordpool_576.txt	LTP385	ltpFR2	3	16	FOOTBALL	591	n/a	n/a	0	0	0
3696.05078125	n/a	REST_REWET	7569512	n/a	LTP385	ltpFR2	3	16	n/a	n/a	n/a	n/a	0	0	0
3819.982421875	n/a	WORD	7823324	wordpools/wasnorm_wordpool_576.txt	LTP385	ltpFR2	3	17	BASEMENT	94	n/a	n/a	0	0	0
3822.49072265625	n/a	WORD	7828461	wordpools/wasnorm_wordpool_576.txt	LTP385	ltpFR2	3	17	CROWN	415	n/a	n/a	0	0	0
3824.99853515625	n/a	WORD	7833597	wordpools/wasnorm_wordpool_576.txt	LTP385	ltpFR2	3	17	BINDER	127	n/a	n/a	0	0	0
3827.80859375	n/a	WORD	7839352	wordpools/wasnorm_wordpool_576.txt	LTP385	ltpFR2	3	17	NECKLACE	940	n/a	n/a	0	0	0
3830.55126953125	n/a	WORD	7844969	wordpools/wasnorm_wordpool_576.txt	LTP385	ltpFR2	3	17	PAIL	1002	n/a	n/a	0	0	0
3833.14111328125	n/a	WORD	7850273	wordpools/wasnorm_wordpool_576.txt	LTP385	ltpFR2	3	17	ARMY	39	n/a	n/a	0	0	0
3835.91796875	n/a	WORD	7855960	wordpools/wasnorm_wordpool_576.txt	LTP385	ltpFR2	3	17	IGLOO	734	n/a	n/a	0	0	0
3838.67724609375	n/a	WORD	7861611	wordpools/wasnorm_wordpool_576.txt	LTP385	ltpFR2	3	17	BLOCKADE	137	n/a	n/a	0	0	0
3841.201171875	n/a	WORD	7866780	wordpools/wasnorm_wordpool_576.txt	LTP385	ltpFR2	3	17	PARSLEY	1016	n/a	n/a	0	0	0
3843.72705078125	n/a	WORD	7871953	wordpools/wasnorm_wordpool_576.txt	LTP385	ltpFR2	3	17	GANGSTER	620	n/a	n/a	0	0	0
3846.48388671875	n/a	WORD	7877599	wordpools/wasnorm_wordpool_576.txt	LTP385	ltpFR2	3	17	BULLET	194	n/a	n/a	0	0	0
3849.04296875	n/a	WORD	7882840	wordpools/wasnorm_wordpool_576.txt	LTP385	ltpFR2	3	17	BARLEY	88	n/a	n/a	0	0	0
3851.56884765625	n/a	WORD	7888013	wordpools/wasnorm_wordpool_576.txt	LTP385	ltpFR2	3	17	SALT	1229	n/a	n/a	0	0	0
3854.32666015625	n/a	WORD	7893661	wordpools/wasnorm_wordpool_576.txt	LTP385	ltpFR2	3	17	BIKE	125	n/a	n/a	0	0	0
3856.75146484375	n/a	WORD	7898627	wordpools/wasnorm_wordpool_576.txt	LTP385	ltpFR2	3	17	LADY	794	n/a	n/a	0	0	0
3859.29248046875	n/a	WORD	7903831	wordpools/wasnorm_wordpool_576.txt	LTP385	ltpFR2	3	17	WHISKERS	1605	n/a	n/a	0	0	0
3861.80126953125	n/a	WORD	7908969	wordpools/wasnorm_wordpool_576.txt	LTP385	ltpFR2	3	17	PLIERS	1089	n/a	n/a	0	0	0
3864.50927734375	n/a	WORD	7914515	wordpools/wasnorm_wordpool_576.txt	LTP385	ltpFR2	3	17	RUG	1215	n/a	n/a	0	0	0
3867.1171875	n/a	WORD	7919856	wordpools/wasnorm_wordpool_576.txt	LTP385	ltpFR2	3	17	BLENDER	136	n/a	n/a	0	0	0
3869.62646484375	n/a	WORD	7924995	wordpools/wasnorm_wordpool_576.txt	LTP385	ltpFR2	3	17	PEDAL	1037	n/a	n/a	0	0	0
3872.1162109375	n/a	WORD	7930094	wordpools/wasnorm_wordpool_576.txt	LTP385	ltpFR2	3	17	ORCHID	982	n/a	n/a	0	0	0
3874.8603515625	n/a	WORD	7935714	wordpools/wasnorm_wordpool_576.txt	LTP385	ltpFR2	3	17	DENIM	446	n/a	n/a	0	0	0
3877.63525390625	n/a	WORD	7941397	wordpools/wasnorm_wordpool_576.txt	LTP385	ltpFR2	3	17	SHIRT	1287	n/a	n/a	0	0	0
3880.42724609375	n/a	WORD	7947115	wordpools/wasnorm_wordpool_576.txt	LTP385	ltpFR2	3	17	STOVE	1388	n/a	n/a	0	0	0
3882.0322265625	n/a	START	7950402	n/a	LTP385	ltpFR2	3	n/a	n/a	n/a	28	n/a	n/a	n/a	n/a
3883.208984375	n/a	DISTRACTOR	7952812	n/a	LTP385	ltpFR2	3	17	n/a	n/a	n/a	n/a	0	0	0
3883.21875	n/a	PROB	7952832	n/a	LTP385	ltpFR2	3	n/a	n/a	n/a	28	13	7	2	4
3886.19482421875	n/a	PROB	7958927	n/a	LTP385	ltpFR2	3	n/a	n/a	n/a	28	15	6	3	6
3888.53662109375	n/a	PROB	7963723	n/a	LTP385	ltpFR2	3	n/a	n/a	n/a	28	13	8	4	1
3892.53271484375	n/a	PROB	7971907	n/a	LTP385	ltpFR2	3	n/a	n/a	n/a	28	20	8	4	8
3895.82763671875	n/a	PROB	7978655	n/a	LTP385	ltpFR2	3	n/a	n/a	n/a	28	18	7	9	2
3899.0537109375	n/a	PROB	7985262	n/a	LTP385	ltpFR2	3	n/a	n/a	n/a	28	12	6	4	2
3901.09326171875	n/a	PROB	7989439	n/a	LTP385	ltpFR2	3	n/a	n/a	n/a	28	12	3	6	3
3903.41748046875	n/a	PROB	7994199	n/a	LTP385	ltpFR2	3	n/a	n/a	n/a	28	12	8	2	2
3905.0595703125	n/a	STOP	7997562	n/a	LTP385	ltpFR2	3	n/a	n/a	n/a	28	n/a	n/a	n/a	n/a
3907.8662109375	n/a	REC_START	8003310	n/a	LTP385	ltpFR2	3	17	n/a	n/a	n/a	n/a	0	0	0
3908.69140625	n/a	REC_WORD	8005000	wordpools/wasnorm_wordpool_576.txt	LTP385	ltpFR2	3	17	BASEMENT	94	n/a	n/a	0	0	0
3909.46142578125	n/a	REC_WORD	8006577	wordpools/wasnorm_wordpool_576.txt	LTP385	ltpFR2	3	17	CROWN	415	n/a	n/a	0	0	0
3910.330078125	n/a	REC_WORD	8008356	wordpools/wasnorm_wordpool_576.txt	LTP385	ltpFR2	3	17	IGLOO	734	n/a	n/a	0	0	0
3913.232421875	n/a	REC_WORD	8014300	wordpools/wasnorm_wordpool_576.txt	LTP385	ltpFR2	3	17	ICICLE	-1	n/a	n/a	0	0	0
3914.09228515625	n/a	REC_WORD	8016061	wordpools/wasnorm_wordpool_576.txt	LTP385	ltpFR2	3	17	PEDAL	1037	n/a	n/a	0	0	0
3920.912109375	n/a	REC_WORD	8030028	wordpools/wasnorm_wordpool_576.txt	LTP385	ltpFR2	3	17	PLIERS	1089	n/a	n/a	0	0	0
3998.32177734375	n/a	WORD	8188563	wordpools/wasnorm_wordpool_576.txt	LTP385	ltpFR2	3	18	POSTAGE	1113	n/a	n/a	0	0	0
4000.98095703125	n/a	WORD	8194009	wordpools/wasnorm_wordpool_576.txt	LTP385	ltpFR2	3	18	DORM	488	n/a	n/a	0	0	0
4003.52197265625	n/a	WORD	8199213	wordpools/wasnorm_wordpool_576.txt	LTP385	ltpFR2	3	18	UMPIRE	1535	n/a	n/a	0	0	0
4006.14794921875	n/a	WORD	8204591	wordpools/wasnorm_wordpool_576.txt	LTP385	ltpFR2	3	18	COUNTY	389	n/a	n/a	0	0	0
4008.73974609375	n/a	WORD	8209899	wordpools/wasnorm_wordpool_576.txt	LTP385	ltpFR2	3	18	NOVEL	960	n/a	n/a	0	0	0
4011.16357421875	n/a	WORD	8214863	wordpools/wasnorm_wordpool_576.txt	LTP385	ltpFR2	3	18	POET	1095	n/a	n/a	0	0	0
4013.62255859375	n/a	WORD	8219899	wordpools/wasnorm_wordpool_576.txt	LTP385	ltpFR2	3	18	PUDDING	1139	n/a	n/a	0	0	0
4016.1123046875	n/a	WORD	8224998	wordpools/wasnorm_wordpool_576.txt	LTP385	ltpFR2	3	18	CUSTARD	429	n/a	n/a	0	0	0
4018.58837890625	n/a	WORD	8230069	wordpools/wasnorm_wordpool_576.txt	LTP385	ltpFR2	3	18	GAZELLE	628	n/a	n/a	0	0	0
4021.2294921875	n/a	WORD	8235478	wordpools/wasnorm_wordpool_576.txt	LTP385	ltpFR2	3	18	GARBAGE	622	n/a	n/a	0	0	0
4023.95556640625	n/a	WORD	8241061	wordpools/wasnorm_wordpool_576.txt	LTP385	ltpFR2	3	18	CHURCH	307	n/a	n/a	0	0	0
4026.63134765625	n/a	WORD	8246541	wordpools/wasnorm_wordpool_576.txt	LTP385	ltpFR2	3	18	TRIBE	1505	n/a	n/a	0	0	0
4029.10400390625	n/a	WORD	8251605	wordpools/wasnorm_wordpool_576.txt	LTP385	ltpFR2	3	18	SISTER	1312	n/a	n/a	0	0	0
4031.8310546875	n/a	WORD	8257190	wordpools/wasnorm_wordpool_576.txt	LTP385	ltpFR2	3	18	HEADBAND	696	n/a	n/a	0	0	0
4034.5048828125	n/a	WORD	8262666	wordpools/wasnorm_wordpool_576.txt	LTP385	ltpFR2	3	18	PEBBLE	1035	n/a	n/a	0	0	0
4037.23095703125	n/a	WORD	8268249	wordpools/wasnorm_wordpool_576.txt	LTP385	ltpFR2	3	18	SOFTBALL	1343	n/a	n/a	0	0	0
4039.93994140625	n/a	WORD	8273797	wordpools/wasnorm_wordpool_576.txt	LTP385	ltpFR2	3	18	FOREHEAD	592	n/a	n/a	0	0	0
4042.48095703125	n/a	WORD	8279001	wordpools/wasnorm_wordpool_576.txt	LTP385	ltpFR2	3	18	QUEEN	1149	n/a	n/a	0	0	0
4045.10595703125	n/a	WORD	8284377	wordpools/wasnorm_wordpool_576.txt	LTP385	ltpFR2	3	18	MUFFIN	929	n/a	n/a	0	0	0
4047.81591796875	n/a	WORD	8289927	wordpools/wasnorm_wordpool_576.txt	LTP385	ltpFR2	3	18	LAVA	804	n/a	n/a	0	0	0
4050.2724609375	n/a	WORD	8294958	wordpools/wasnorm_wordpool_576.txt	LTP385	ltpFR2	3	18	MUMMY	932	n/a	n/a	0	0	0
4052.814453125	n/a	WORD	8300164	wordpools/wasnorm_wordpool_576.txt	LTP385	ltpFR2	3	18	BUNNY	198	n/a	n/a	0	0	0
4055.37255859375	n/a	WORD	8305403	wordpools/wasnorm_wordpool_576.txt	LTP385	ltpFR2	3	18	WIDOW	1608	n/a	n/a	0	0	0
4058.09765625	n/a	WORD	8310984	wordpools/wasnorm_wordpool_576.txt	LTP385	ltpFR2	3	18	HUSBAND	728	n/a	n/a	0	0	0
4059.70458984375	n/a	START	8314275	n/a	LTP385	ltpFR2	3	n/a	n/a	n/a	29	n/a	n/a	n/a	n/a
4060.58642578125	n/a	DISTRACTOR	8316081	n/a	LTP385	ltpFR2	3	18	n/a	n/a	n/a	n/a	0	0	0
4060.59033203125	n/a	PROB	8316089	n/a	LTP385	ltpFR2	3	n/a	n/a	n/a	29	19	5	9	5
4064.150390625	n/a	PROB	8323380	n/a	LTP385	ltpFR2	3	n/a	n/a	n/a	29	20	6	5	9
4067.494140625	n/a	PROB	8330228	n/a	LTP385	ltpFR2	3	n/a	n/a	n/a	29	5	3	1	1
4069.65234375	n/a	PROB	8334648	n/a	LTP385	ltpFR2	3	n/a	n/a	n/a	29	15	1	9	5
4071.373046875	n/a	PROB	8338172	n/a	LTP385	ltpFR2	3	n/a	n/a	n/a	29	10	2	4	4
4073.76611328125	n/a	PROB	8343073	n/a	LTP385	ltpFR2	3	n/a	n/a	n/a	29	13	5	3	5
4076.0888671875	n/a	PROB	8347830	n/a	LTP385	ltpFR2	3	n/a	n/a	n/a	29	6	1	1	4
4077.61083984375	n/a	PROB	8350947	n/a	LTP385	ltpFR2	3	n/a	n/a	n/a	29	12	6	3	3
4079.65087890625	n/a	PROB	8355125	n/a	LTP385	ltpFR2	3	n/a	n/a	n/a	29	24	7	7	6
4082.5	n/a	STOP	8360960	n/a	LTP385	ltpFR2	3	n/a	n/a	n/a	29	n/a	n/a	n/a	n/a
4085.587890625	n/a	REC_START	8367284	n/a	LTP385	ltpFR2	3	18	n/a	n/a	n/a	n/a	0	0	0
4087.99169921875	n/a	REC_WORD	8372207	wordpools/wasnorm_wordpool_576.txt	LTP385	ltpFR2	3	18	DORM	488	n/a	n/a	0	0	0
4088.61279296875	n/a	REC_WORD	8373479	wordpools/wasnorm_wordpool_576.txt	LTP385	ltpFR2	3	18	POSTAGE	1113	n/a	n/a	0	0	0
4089.83251953125	n/a	REC_WORD	8375977	wordpools/wasnorm_wordpool_576.txt	LTP385	ltpFR2	3	18	UMPIRE	1535	n/a	n/a	0	0	0
4099.8935546875	n/a	REC_WORD	8396582	wordpools/wasnorm_wordpool_576.txt	LTP385	ltpFR2	3	18	LAVA	804	n/a	n/a	0	0	0
4113.5458984375	n/a	REC_WORD	8424542	wordpools/wasnorm_wordpool_576.txt	LTP385	ltpFR2	3	18	SPOUSE	1358	n/a	n/a	0	0	0
4114.65576171875	n/a	REC_WORD	8426815	wordpools/wasnorm_wordpool_576.txt	LTP385	ltpFR2	3	18	HUSBAND	728	n/a	n/a	0	0	0
4123.634765625	n/a	REC_WORD	8445204	wordpools/wasnorm_wordpool_576.txt	LTP385	ltpFR2	3	18	CUSTARD	429	n/a	n/a	0	0	0
4132.44873046875	n/a	REC_WORD	8463255	wordpools/wasnorm_wordpool_576.txt	LTP385	ltpFR2	3	18	SOFTBALL	1343	n/a	n/a	0	0	0
4176.04345703125	n/a	WORD	8552537	wordpools/wasnorm_wordpool_576.txt	LTP385	ltpFR2	3	19	HAMPER	682	n/a	n/a	0	0	0
4178.76953125	n/a	WORD	8558120	wordpools/wasnorm_wordpool_576.txt	LTP385	ltpFR2	3	19	PORTRAIT	1111	n/a	n/a	0	0	0
4181.47705078125	n/a	WORD	8563665	wordpools/wasnorm_wordpool_576.txt	LTP385	ltpFR2	3	19	COFFEE	341	n/a	n/a	0	0	0
4184.25341796875	n/a	WORD	8569351	wordpools/wasnorm_wordpool_576.txt	LTP385	ltpFR2	3	19	COCKTAIL	338	n/a	n/a	0	0	0
4186.7451171875	n/a	WORD	8574454	wordpools/wasnorm_wordpool_576.txt	LTP385	ltpFR2	3	19	LUGGAGE	847	n/a	n/a	0	0	0
4189.5380859375	n/a	WORD	8580174	wordpools/wasnorm_wordpool_576.txt	LTP385	ltpFR2	3	19	SUITCASE	1403	n/a	n/a	0	0	0
4192.06103515625	n/a	WORD	8585341	wordpools/wasnorm_wordpool_576.txt	LTP385	ltpFR2	3	19	PICTURE	1061	n/a	n/a	0	0	0
4194.720703125	n/a	WORD	8590788	wordpools/wasnorm_wordpool_576.txt	LTP385	ltpFR2	3	19	ROBOT	1200	n/a	n/a	0	0	0
4197.47900390625	n/a	WORD	8596437	wordpools/wasnorm_wordpool_576.txt	LTP385	ltpFR2	3	19	MILK	895	n/a	n/a	0	0	0
4200.03662109375	n/a	WORD	8601675	wordpools/wasnorm_wordpool_576.txt	LTP385	ltpFR2	3	19	SEAL	1262	n/a	n/a	0	0	0
4202.5966796875	n/a	WORD	8606918	wordpools/wasnorm_wordpool_576.txt	LTP385	ltpFR2	3	19	HERO	706	n/a	n/a	0	0	0
4205.052734375	n/a	WORD	8611948	wordpools/wasnorm_wordpool_576.txt	LTP385	ltpFR2	3	19	COSTUME	383	n/a	n/a	0	0	0
4207.82958984375	n/a	WORD	8617635	wordpools/wasnorm_wordpool_576.txt	LTP385	ltpFR2	3	19	COOK	372	n/a	n/a	0	0	0
4210.45361328125	n/a	WORD	8623009	wordpools/wasnorm_wordpool_576.txt	LTP385	ltpFR2	3	19	SHRUB	1299	n/a	n/a	0	0	0
4213.0625	n/a	WORD	8628352	wordpools/wasnorm_wordpool_576.txt	LTP385	ltpFR2	3	19	CRICKET	408	n/a	n/a	0	0	0
4215.486328125	n/a	WORD	8633316	wordpools/wasnorm_wordpool_576.txt	LTP385	ltpFR2	3	19	STATUE	1374	n/a	n/a	0	0	0
4217.96240234375	n/a	WORD	8638387	wordpools/wasnorm_wordpool_576.txt	LTP385	ltpFR2	3	19	OMELET	976	n/a	n/a	0	0	0
4220.40234375	n/a	WORD	8643384	wordpools/wasnorm_wordpool_576.txt	LTP385	ltpFR2	3	19	EUROPE	541	n/a	n/a	0	0	0
4223.1611328125	n/a	WORD	8649034	wordpools/wasnorm_wordpool_576.txt	LTP385	ltpFR2	3	19	BUTCHER	203	n/a	n/a	0	0	0
4225.654296875	n/a	WORD	8654140	wordpools/wasnorm_wordpool_576.txt	LTP385	ltpFR2	3	19	GARDEN	623	n/a	n/a	0	0	0
