onset	duration	trial_type	sample	stim_file	subject	experiment	session	trial	item_name	item_num	list	answer	test_x	test_y	test_z
586.548	n/a	SESS_START	293274	n/a	LTP287	ltpFR2	10	n/a	n/a	n/a	n/a	n/a	0	0	0
601.576	n/a	START	300788	n/a	LTP287	ltpFR2	10	n/a	n/a	n/a	-1	n/a	n/a	n/a	n/a
601.608	n/a	PROB	300804	n/a	LTP287	ltpFR2	10	n/a	n/a	n/a	-1	15	3	9	3
603.156	n/a	PROB	301578	n/a	LTP287	ltpFR2	10	n/a	n/a	n/a	-1	11	5	4	2
605.87	n/a	PROB	302935	n/a	LTP287	ltpFR2	10	n/a	n/a	n/a	-1	17	7	7	3
607.284	n/a	PROB	303642	n/a	LTP287	ltpFR2	10	n/a	n/a	n/a	-1	16	6	1	9
609.93	n/a	PROB	304965	n/a	LTP287	ltpFR2	10	n/a	n/a	n/a	-1	10	3	2	5
611.462	n/a	PROB	305731	n/a	LTP287	ltpFR2	10	n/a	n/a	n/a	-1	16	7	1	8
613.248	n/a	STOP	306624	n/a	LTP287	ltpFR2	10	n/a	n/a	n/a	-1	n/a	n/a	n/a	n/a
643.132	n/a	DISTRACTOR	321566	n/a	LTP287	ltpFR2	10	1	n/a	n/a	n/a	n/a	0	0	0
643.132	n/a	START	321566	n/a	LTP287	ltpFR2	10	n/a	n/a	n/a	1	n/a	n/a	n/a	n/a
643.164	n/a	PROB	321582	n/a	LTP287	ltpFR2	10	n/a	n/a	n/a	1	17	4	4	9
644.762	n/a	PROB	322381	n/a	LTP287	ltpFR2	10	n/a	n/a	n/a	1	11	5	1	5
646.892	n/a	PROB	323446	n/a	LTP287	ltpFR2	10	n/a	n/a	n/a	1	11	5	1	5
647.742	n/a	PROB	323871	n/a	LTP287	ltpFR2	10	n/a	n/a	n/a	1	16	6	4	6
649.006	n/a	PROB	324503	n/a	LTP287	ltpFR2	10	n/a	n/a	n/a	1	17	7	5	5
650.188	n/a	PROB	325094	n/a	LTP287	ltpFR2	10	n/a	n/a	n/a	1	15	1	9	5
651.27	n/a	PROB	325635	n/a	LTP287	ltpFR2	10	n/a	n/a	n/a	1	18	9	2	7
652.934	n/a	PROB	326467	n/a	LTP287	ltpFR2	10	n/a	n/a	n/a	1	20	9	7	4
654.914	n/a	PROB	327457	n/a	LTP287	ltpFR2	10	n/a	n/a	n/a	1	9	3	3	3
656.028	n/a	PROB	328014	n/a	LTP287	ltpFR2	10	n/a	n/a	n/a	1	14	7	2	5
657.476	n/a	PROB	328738	n/a	LTP287	ltpFR2	10	n/a	n/a	n/a	1	8	4	3	1
659.324	n/a	PROB	329662	n/a	LTP287	ltpFR2	10	n/a	n/a	n/a	1	17	1	8	8
661.454	n/a	PROB	330727	n/a	LTP287	ltpFR2	10	n/a	n/a	n/a	1	16	4	4	8
664.034	n/a	PROB	332017	n/a	LTP287	ltpFR2	10	n/a	n/a	n/a	1	13	2	3	8
667.132	n/a	STOP	333566	n/a	LTP287	ltpFR2	10	n/a	n/a	n/a	1	n/a	n/a	n/a	n/a
668.328	n/a	WORD	334164	wordpools/wasnorm_wordpool_576.txt	LTP287	ltpFR2	10	1	WITNESS	1618	n/a	n/a	0	0	0
670.824	n/a	WORD	335412	wordpools/wasnorm_wordpool_576.txt	LTP287	ltpFR2	10	1	HOSTESS	723	n/a	n/a	0	0	0
673.636	n/a	WORD	336818	wordpools/wasnorm_wordpool_576.txt	LTP287	ltpFR2	10	1	PLIERS	1089	n/a	n/a	0	0	0
676.2	n/a	WORD	338100	wordpools/wasnorm_wordpool_576.txt	LTP287	ltpFR2	10	1	PARSLEY	1016	n/a	n/a	0	0	0
678.728	n/a	WORD	339364	wordpools/wasnorm_wordpool_576.txt	LTP287	ltpFR2	10	1	GUITAR	670	n/a	n/a	0	0	0
681.374	n/a	WORD	340687	wordpools/wasnorm_wordpool_576.txt	LTP287	ltpFR2	10	1	FIDDLE	561	n/a	n/a	0	0	0
683.988	n/a	WORD	341994	wordpools/wasnorm_wordpool_576.txt	LTP287	ltpFR2	10	1	GIFT	635	n/a	n/a	0	0	0
686.434	n/a	WORD	343217	wordpools/wasnorm_wordpool_576.txt	LTP287	ltpFR2	10	1	LETTUCE	814	n/a	n/a	0	0	0
688.88	n/a	WORD	344440	wordpools/wasnorm_wordpool_576.txt	LTP287	ltpFR2	10	1	TRIBE	1505	n/a	n/a	0	0	0
691.51	n/a	WORD	345755	wordpools/wasnorm_wordpool_576.txt	LTP287	ltpFR2	10	1	BISON	131	n/a	n/a	0	0	0
693.99	n/a	WORD	346995	wordpools/wasnorm_wordpool_576.txt	LTP287	ltpFR2	10	1	REPORT	1184	n/a	n/a	0	0	0
696.536	n/a	WORD	348268	wordpools/wasnorm_wordpool_576.txt	LTP287	ltpFR2	10	1	MEDAL	885	n/a	n/a	0	0	0
699.182	n/a	WORD	349591	wordpools/wasnorm_wordpool_576.txt	LTP287	ltpFR2	10	1	QUARTER	1148	n/a	n/a	0	0	0
701.696	n/a	WORD	350848	wordpools/wasnorm_wordpool_576.txt	LTP287	ltpFR2	10	1	HIKER	708	n/a	n/a	0	0	0
704.24	n/a	WORD	352120	wordpools/wasnorm_wordpool_576.txt	LTP287	ltpFR2	10	1	CONVICT	371	n/a	n/a	0	0	0
707.002	n/a	WORD	353501	wordpools/wasnorm_wordpool_576.txt	LTP287	ltpFR2	10	1	BEEF	113	n/a	n/a	0	0	0
709.432	n/a	WORD	354716	wordpools/wasnorm_wordpool_576.txt	LTP287	ltpFR2	10	1	SLOPE	1328	n/a	n/a	0	0	0
712.162	n/a	WORD	356081	wordpools/wasnorm_wordpool_576.txt	LTP287	ltpFR2	10	1	WAITRESS	1581	n/a	n/a	0	0	0
714.692	n/a	WORD	357346	wordpools/wasnorm_wordpool_576.txt	LTP287	ltpFR2	10	1	BLADE	134	n/a	n/a	0	0	0
717.354	n/a	WORD	358677	wordpools/wasnorm_wordpool_576.txt	LTP287	ltpFR2	10	1	TWIG	1527	n/a	n/a	0	0	0
719.9	n/a	WORD	359950	wordpools/wasnorm_wordpool_576.txt	LTP287	ltpFR2	10	1	FRIAR	605	n/a	n/a	0	0	0
722.696	n/a	WORD	361348	wordpools/wasnorm_wordpool_576.txt	LTP287	ltpFR2	10	1	TORTOISE	1486	n/a	n/a	0	0	0
725.31	n/a	WORD	362655	wordpools/wasnorm_wordpool_576.txt	LTP287	ltpFR2	10	1	SLUG	1329	n/a	n/a	0	0	0
728.056	n/a	WORD	364028	wordpools/wasnorm_wordpool_576.txt	LTP287	ltpFR2	10	1	TUNNEL	1519	n/a	n/a	0	0	0
729.67	n/a	START	364835	n/a	LTP287	ltpFR2	10	n/a	n/a	n/a	2	n/a	n/a	n/a	n/a
730.65	n/a	DISTRACTOR	365325	n/a	LTP287	ltpFR2	10	1	n/a	n/a	n/a	n/a	0	0	0
730.652	n/a	PROB	365326	n/a	LTP287	ltpFR2	10	n/a	n/a	n/a	2	9	4	2	3
732.914	n/a	PROB	366457	n/a	LTP287	ltpFR2	10	n/a	n/a	n/a	2	13	5	7	1
735.028	n/a	PROB	367514	n/a	LTP287	ltpFR2	10	n/a	n/a	n/a	2	20	5	7	8
736.46	n/a	PROB	368230	n/a	LTP287	ltpFR2	10	n/a	n/a	n/a	2	9	4	4	1
737.658	n/a	PROB	368829	n/a	LTP287	ltpFR2	10	n/a	n/a	n/a	2	19	9	2	8
738.99	n/a	PROB	369495	n/a	LTP287	ltpFR2	10	n/a	n/a	n/a	2	9	2	6	1
740.804	n/a	PROB	370402	n/a	LTP287	ltpFR2	10	n/a	n/a	n/a	2	12	2	7	3
742.084	n/a	PROB	371042	n/a	LTP287	ltpFR2	10	n/a	n/a	n/a	2	18	9	8	1
744.414	n/a	PROB	372207	n/a	LTP287	ltpFR2	10	n/a	n/a	n/a	2	11	6	2	3
749.49	n/a	PROB	374745	n/a	LTP287	ltpFR2	10	n/a	n/a	n/a	2	10	5	2	3
751.388	n/a	PROB	375694	n/a	LTP287	ltpFR2	10	n/a	n/a	n/a	2	19	8	4	7
753.274	n/a	STOP	376637	n/a	LTP287	ltpFR2	10	n/a	n/a	n/a	2	n/a	n/a	n/a	n/a
755.45	n/a	REC_START	377725	n/a	LTP287	ltpFR2	10	1	n/a	n/a	n/a	n/a	0	0	0
756.368	n/a	REC_WORD	378184	wordpools/wasnorm_wordpool_576.txt	LTP287	ltpFR2	10	1	BEEF	113	n/a	n/a	0	0	0
757.232	n/a	REC_WORD	378616	wordpools/wasnorm_wordpool_576.txt	LTP287	ltpFR2	10	1	FRIAR	605	n/a	n/a	0	0	0
758.69	n/a	REC_WORD	379345	wordpools/wasnorm_wordpool_576.txt	LTP287	ltpFR2	10	1	WITNESS	1618	n/a	n/a	0	0	0
759.508	n/a	REC_WORD	379754	wordpools/wasnorm_wordpool_576.txt	LTP287	ltpFR2	10	1	CONVICT	371	n/a	n/a	0	0	0
760.382	n/a	REC_WORD	380191	wordpools/wasnorm_wordpool_576.txt	LTP287	ltpFR2	10	1	HOSTESS	723	n/a	n/a	0	0	0
767.806	n/a	REC_WORD	383903	wordpools/wasnorm_wordpool_576.txt	LTP287	ltpFR2	10	1	SLUG	1329	n/a	n/a	0	0	0
770.96	n/a	REC_WORD	385480	wordpools/wasnorm_wordpool_576.txt	LTP287	ltpFR2	10	1	TORTOISE	1486	n/a	n/a	0	0	0
846.114	n/a	WORD	423057	wordpools/wasnorm_wordpool_576.txt	LTP287	ltpFR2	10	2	HAMPER	682	n/a	n/a	0	0	0
848.76	n/a	WORD	424380	wordpools/wasnorm_wordpool_576.txt	LTP287	ltpFR2	10	2	WASHER	1592	n/a	n/a	0	0	0
851.538	n/a	WORD	425769	wordpools/wasnorm_wordpool_576.txt	LTP287	ltpFR2	10	2	KEEPER	769	n/a	n/a	0	0	0
854.336	n/a	WORD	427168	wordpools/wasnorm_wordpool_576.txt	LTP287	ltpFR2	10	2	HEDGE	699	n/a	n/a	0	0	0
856.782	n/a	WORD	428391	wordpools/wasnorm_wordpool_576.txt	LTP287	ltpFR2	10	2	TURNIP	1521	n/a	n/a	0	0	0
859.526	n/a	WORD	429763	wordpools/wasnorm_wordpool_576.txt	LTP287	ltpFR2	10	2	MISTER	901	n/a	n/a	0	0	0
862.224	n/a	WORD	431112	wordpools/wasnorm_wordpool_576.txt	LTP287	ltpFR2	10	2	JUDGE	761	n/a	n/a	0	0	0
864.92	n/a	WORD	432460	wordpools/wasnorm_wordpool_576.txt	LTP287	ltpFR2	10	2	EXPERT	543	n/a	n/a	0	0	0
867.548	n/a	WORD	433774	wordpools/wasnorm_wordpool_576.txt	LTP287	ltpFR2	10	2	NOMAD	955	n/a	n/a	0	0	0
870.212	n/a	WORD	435106	wordpools/wasnorm_wordpool_576.txt	LTP287	ltpFR2	10	2	LADDER	793	n/a	n/a	0	0	0
872.824	n/a	WORD	436412	wordpools/wasnorm_wordpool_576.txt	LTP287	ltpFR2	10	2	SISTER	1312	n/a	n/a	0	0	0
875.536	n/a	WORD	437768	wordpools/wasnorm_wordpool_576.txt	LTP287	ltpFR2	10	2	WIDOW	1608	n/a	n/a	0	0	0
878.3	n/a	WORD	439150	wordpools/wasnorm_wordpool_576.txt	LTP287	ltpFR2	10	2	GRAVE	658	n/a	n/a	0	0	0
880.962	n/a	WORD	440481	wordpools/wasnorm_wordpool_576.txt	LTP287	ltpFR2	10	2	NOTEBOOK	959	n/a	n/a	0	0	0
883.524	n/a	WORD	441762	wordpools/wasnorm_wordpool_576.txt	LTP287	ltpFR2	10	2	THREAD	1460	n/a	n/a	0	0	0
886.238	n/a	WORD	443119	wordpools/wasnorm_wordpool_576.txt	LTP287	ltpFR2	10	2	SHELTER	1282	n/a	n/a	0	0	0
888.934	n/a	WORD	444467	wordpools/wasnorm_wordpool_576.txt	LTP287	ltpFR2	10	2	GUARD	667	n/a	n/a	0	0	0
891.43	n/a	WORD	445715	wordpools/wasnorm_wordpool_576.txt	LTP287	ltpFR2	10	2	JOURNAL	760	n/a	n/a	0	0	0
893.994	n/a	WORD	446997	wordpools/wasnorm_wordpool_576.txt	LTP287	ltpFR2	10	2	SNAIL	1332	n/a	n/a	0	0	0
896.54	n/a	WORD	448270	wordpools/wasnorm_wordpool_576.txt	LTP287	ltpFR2	10	2	BATHTUB	100	n/a	n/a	0	0	0
898.97	n/a	WORD	449485	wordpools/wasnorm_wordpool_576.txt	LTP287	ltpFR2	10	2	PICTURE	1061	n/a	n/a	0	0	0
901.598	n/a	WORD	450799	wordpools/wasnorm_wordpool_576.txt	LTP287	ltpFR2	10	2	CABIN	211	n/a	n/a	0	0	0
904.212	n/a	WORD	452106	wordpools/wasnorm_wordpool_576.txt	LTP287	ltpFR2	10	2	TURKEY	1520	n/a	n/a	0	0	0
906.758	n/a	WORD	453379	wordpools/wasnorm_wordpool_576.txt	LTP287	ltpFR2	10	2	SCRIBBLE	1256	n/a	n/a	0	0	0
908.372	n/a	START	454186	n/a	LTP287	ltpFR2	10	n/a	n/a	n/a	3	n/a	n/a	n/a	n/a
909.508	n/a	DISTRACTOR	454754	n/a	LTP287	ltpFR2	10	2	n/a	n/a	n/a	n/a	0	0	0
909.52	n/a	PROB	454760	n/a	LTP287	ltpFR2	10	n/a	n/a	n/a	3	14	4	7	3
910.902	n/a	PROB	455451	n/a	LTP287	ltpFR2	10	n/a	n/a	n/a	3	8	2	3	3
913.78	n/a	PROB	456890	n/a	LTP287	ltpFR2	10	n/a	n/a	n/a	3	12	6	5	1
915.61	n/a	PROB	457805	n/a	LTP287	ltpFR2	10	n/a	n/a	n/a	3	7	1	3	3
916.876	n/a	PROB	458438	n/a	LTP287	ltpFR2	10	n/a	n/a	n/a	3	15	4	2	9
918.474	n/a	PROB	459237	n/a	LTP287	ltpFR2	10	n/a	n/a	n/a	3	21	7	5	9
921.518	n/a	PROB	460759	n/a	LTP287	ltpFR2	10	n/a	n/a	n/a	3	7	1	1	5
923.382	n/a	PROB	461691	n/a	LTP287	ltpFR2	10	n/a	n/a	n/a	3	7	5	1	1
924.282	n/a	PROB	462141	n/a	LTP287	ltpFR2	10	n/a	n/a	n/a	3	17	5	8	4
926.694	n/a	PROB	463347	n/a	LTP287	ltpFR2	10	n/a	n/a	n/a	3	7	2	2	3
928.558	n/a	PROB	464279	n/a	LTP287	ltpFR2	10	n/a	n/a	n/a	3	18	7	9	4
931.292	n/a	STOP	465646	n/a	LTP287	ltpFR2	10	n/a	n/a	n/a	3	n/a	n/a	n/a	n/a
934.268	n/a	REC_START	467134	n/a	LTP287	ltpFR2	10	2	n/a	n/a	n/a	n/a	0	0	0
936.466	n/a	REC_WORD	468233	wordpools/wasnorm_wordpool_576.txt	LTP287	ltpFR2	10	2	NOMAD	955	n/a	n/a	0	0	0
946.944	n/a	REC_WORD	473472	wordpools/wasnorm_wordpool_576.txt	LTP287	ltpFR2	10	2	SISTER	1312	n/a	n/a	0	0	0
947.984	n/a	REC_WORD	473992	wordpools/wasnorm_wordpool_576.txt	LTP287	ltpFR2	10	2	WIDOW	1608	n/a	n/a	0	0	0
1024.916	n/a	DISTRACTOR	512458	n/a	LTP287	ltpFR2	10	3	n/a	n/a	n/a	n/a	0	0	0
1024.916	n/a	START	512458	n/a	LTP287	ltpFR2	10	n/a	n/a	n/a	4	n/a	n/a	n/a	n/a
1024.95	n/a	PROB	512475	n/a	LTP287	ltpFR2	10	n/a	n/a	n/a	4	16	5	3	8
1026.814	n/a	PROB	513407	n/a	LTP287	ltpFR2	10	n/a	n/a	n/a	4	15	9	1	5
1027.944	n/a	PROB	513972	n/a	LTP287	ltpFR2	10	n/a	n/a	n/a	4	7	4	1	2
1029.31	n/a	PROB	514655	n/a	LTP287	ltpFR2	10	n/a	n/a	n/a	4	14	4	2	8
1031.888	n/a	PROB	515944	n/a	LTP287	ltpFR2	10	n/a	n/a	n/a	4	10	3	2	5
1033.27	n/a	PROB	516635	n/a	LTP287	ltpFR2	10	n/a	n/a	n/a	4	16	5	9	2
1035.068	n/a	PROB	517534	n/a	LTP287	ltpFR2	10	n/a	n/a	n/a	4	16	2	8	6
1036.432	n/a	PROB	518216	n/a	LTP287	ltpFR2	10	n/a	n/a	n/a	4	5	1	1	3
1037.448	n/a	PROB	518724	n/a	LTP287	ltpFR2	10	n/a	n/a	n/a	4	9	1	2	6
1038.812	n/a	PROB	519406	n/a	LTP287	ltpFR2	10	n/a	n/a	n/a	4	18	3	6	9
1040.876	n/a	PROB	520438	n/a	LTP287	ltpFR2	10	n/a	n/a	n/a	4	13	2	3	8
1043.006	n/a	PROB	521503	n/a	LTP287	ltpFR2	10	n/a	n/a	n/a	4	12	2	3	7
1044.354	n/a	PROB	522177	n/a	LTP287	ltpFR2	10	n/a	n/a	n/a	4	11	2	8	1
1046.102	n/a	PROB	523051	n/a	LTP287	ltpFR2	10	n/a	n/a	n/a	4	13	6	5	2
1047.75	n/a	STOP	523875	n/a	LTP287	ltpFR2	10	n/a	n/a	n/a	4	n/a	n/a	n/a	n/a
1049.88	n/a	WORD	524940	wordpools/wasnorm_wordpool_576.txt	LTP287	ltpFR2	10	3	CLOTHES	327	n/a	n/a	0	0	0
1052.608	n/a	WORD	526304	wordpools/wasnorm_wordpool_576.txt	LTP287	ltpFR2	10	3	LASER	801	n/a	n/a	0	0	0
1055.422	n/a	WORD	527711	wordpools/wasnorm_wordpool_576.txt	LTP287	ltpFR2	10	3	BRANDY	169	n/a	n/a	0	0	0
1058.216	n/a	WORD	529108	wordpools/wasnorm_wordpool_576.txt	LTP287	ltpFR2	10	3	DRESSER	496	n/a	n/a	0	0	0
1060.98	n/a	WORD	530490	wordpools/wasnorm_wordpool_576.txt	LTP287	ltpFR2	10	3	SERVER	1272	n/a	n/a	0	0	0
1063.592	n/a	WORD	531796	wordpools/wasnorm_wordpool_576.txt	LTP287	ltpFR2	10	3	MARKET	871	n/a	n/a	0	0	0
1066.222	n/a	WORD	533111	wordpools/wasnorm_wordpool_576.txt	LTP287	ltpFR2	10	3	LOVER	846	n/a	n/a	0	0	0
1069.0	n/a	WORD	534500	wordpools/wasnorm_wordpool_576.txt	LTP287	ltpFR2	10	3	COCKTAIL	338	n/a	n/a	0	0	0
1071.73	n/a	WORD	535865	wordpools/wasnorm_wordpool_576.txt	LTP287	ltpFR2	10	3	CANDY	230	n/a	n/a	0	0	0
1074.344	n/a	WORD	537172	wordpools/wasnorm_wordpool_576.txt	LTP287	ltpFR2	10	3	SWORD	1423	n/a	n/a	0	0	0
1076.94	n/a	WORD	538470	wordpools/wasnorm_wordpool_576.txt	LTP287	ltpFR2	10	3	SHELF	1280	n/a	n/a	0	0	0
1079.686	n/a	WORD	539843	wordpools/wasnorm_wordpool_576.txt	LTP287	ltpFR2	10	3	EAGLE	512	n/a	n/a	0	0	0
1082.264	n/a	WORD	541132	wordpools/wasnorm_wordpool_576.txt	LTP287	ltpFR2	10	3	DIME	466	n/a	n/a	0	0	0
1084.744	n/a	WORD	542372	wordpools/wasnorm_wordpool_576.txt	LTP287	ltpFR2	10	3	PREACHER	1119	n/a	n/a	0	0	0
1087.424	n/a	WORD	543712	wordpools/wasnorm_wordpool_576.txt	LTP287	ltpFR2	10	3	PAPER	1011	n/a	n/a	0	0	0
1090.186	n/a	WORD	545093	wordpools/wasnorm_wordpool_576.txt	LTP287	ltpFR2	10	3	NAPKIN	937	n/a	n/a	0	0	0
1092.9	n/a	WORD	546450	wordpools/wasnorm_wordpool_576.txt	LTP287	ltpFR2	10	3	SCARECROW	1245	n/a	n/a	0	0	0
1095.412	n/a	WORD	547706	wordpools/wasnorm_wordpool_576.txt	LTP287	ltpFR2	10	3	PASTA	1021	n/a	n/a	0	0	0
1098.074	n/a	WORD	549037	wordpools/wasnorm_wordpool_576.txt	LTP287	ltpFR2	10	3	CROSS	413	n/a	n/a	0	0	0
1100.688	n/a	WORD	550344	wordpools/wasnorm_wordpool_576.txt	LTP287	ltpFR2	10	3	WOMAN	1620	n/a	n/a	0	0	0
1103.35	n/a	WORD	551675	wordpools/wasnorm_wordpool_576.txt	LTP287	ltpFR2	10	3	COMET	353	n/a	n/a	0	0	0
1106.03	n/a	WORD	553015	wordpools/wasnorm_wordpool_576.txt	LTP287	ltpFR2	10	3	BASEMENT	94	n/a	n/a	0	0	0
1108.692	n/a	WORD	554346	wordpools/wasnorm_wordpool_576.txt	LTP287	ltpFR2	10	3	TEACHER	1440	n/a	n/a	0	0	0
1111.456	n/a	WORD	555728	wordpools/wasnorm_wordpool_576.txt	LTP287	ltpFR2	10	3	STUDENT	1395	n/a	n/a	0	0	0
1113.07	n/a	START	556535	n/a	LTP287	ltpFR2	10	n/a	n/a	n/a	5	n/a	n/a	n/a	n/a
1114.13	n/a	DISTRACTOR	557065	n/a	LTP287	ltpFR2	10	3	n/a	n/a	n/a	n/a	0	0	0
1114.134	n/a	PROB	557067	n/a	LTP287	ltpFR2	10	n/a	n/a	n/a	5	15	1	5	9
1116.398	n/a	PROB	558199	n/a	LTP287	ltpFR2	10	n/a	n/a	n/a	5	11	6	2	3
1119.744	n/a	PROB	559872	n/a	LTP287	ltpFR2	10	n/a	n/a	n/a	5	24	8	9	7
1122.456	n/a	PROB	561228	n/a	LTP287	ltpFR2	10	n/a	n/a	n/a	5	15	1	6	8
1124.17	n/a	PROB	562085	n/a	LTP287	ltpFR2	10	n/a	n/a	n/a	5	14	4	9	1
1125.384	n/a	PROB	562692	n/a	LTP287	ltpFR2	10	n/a	n/a	n/a	5	15	6	5	4
1127.398	n/a	PROB	563699	n/a	LTP287	ltpFR2	10	n/a	n/a	n/a	5	24	7	8	9
1129.428	n/a	PROB	564714	n/a	LTP287	ltpFR2	10	n/a	n/a	n/a	5	10	1	2	7
1130.776	n/a	PROB	565388	n/a	LTP287	ltpFR2	10	n/a	n/a	n/a	5	18	7	5	6
1132.556	n/a	PROB	566278	n/a	LTP287	ltpFR2	10	n/a	n/a	n/a	5	11	3	6	2
1137.068	n/a	STOP	568534	n/a	LTP287	ltpFR2	10	n/a	n/a	n/a	5	n/a	n/a	n/a	n/a
1138.932	n/a	REC_START	569466	n/a	LTP287	ltpFR2	10	3	n/a	n/a	n/a	n/a	0	0	0
1139.528	n/a	REC_WORD	569764	wordpools/wasnorm_wordpool_576.txt	LTP287	ltpFR2	10	3	SERVER	1272	n/a	n/a	0	0	0
1150.292	n/a	REC_WORD	575146	wordpools/wasnorm_wordpool_576.txt	LTP287	ltpFR2	10	3	TEACHER	1440	n/a	n/a	0	0	0
1229.63	n/a	WORD	614815	wordpools/wasnorm_wordpool_576.txt	LTP287	ltpFR2	10	4	CROWN	415	n/a	n/a	0	0	0
1232.21	n/a	WORD	616105	wordpools/wasnorm_wordpool_576.txt	LTP287	ltpFR2	10	4	PISTOL	1075	n/a	n/a	0	0	0
1234.938	n/a	WORD	617469	wordpools/wasnorm_wordpool_576.txt	LTP287	ltpFR2	10	4	POSTAGE	1113	n/a	n/a	0	0	0
1237.584	n/a	WORD	618792	wordpools/wasnorm_wordpool_576.txt	LTP287	ltpFR2	10	4	SCARF	1246	n/a	n/a	0	0	0
1240.28	n/a	WORD	620140	wordpools/wasnorm_wordpool_576.txt	LTP287	ltpFR2	10	4	STONE	1385	n/a	n/a	0	0	0
1242.86	n/a	WORD	621430	wordpools/wasnorm_wordpool_576.txt	LTP287	ltpFR2	10	4	SIBLING	1301	n/a	n/a	0	0	0
1245.422	n/a	WORD	622711	wordpools/wasnorm_wordpool_576.txt	LTP287	ltpFR2	10	4	PORK	1108	n/a	n/a	0	0	0
1247.852	n/a	WORD	623926	wordpools/wasnorm_wordpool_576.txt	LTP287	ltpFR2	10	4	EYELASH	546	n/a	n/a	0	0	0
1250.532	n/a	WORD	625266	wordpools/wasnorm_wordpool_576.txt	LTP287	ltpFR2	10	4	FLUTE	585	n/a	n/a	0	0	0
1253.328	n/a	WORD	626664	wordpools/wasnorm_wordpool_576.txt	LTP287	ltpFR2	10	4	KIDNEY	776	n/a	n/a	0	0	0
1256.09	n/a	WORD	628045	wordpools/wasnorm_wordpool_576.txt	LTP287	ltpFR2	10	4	CATTLE	261	n/a	n/a	0	0	0
1258.804	n/a	WORD	629402	wordpools/wasnorm_wordpool_576.txt	LTP287	ltpFR2	10	4	PAIL	1002	n/a	n/a	0	0	0
1261.466	n/a	WORD	630733	wordpools/wasnorm_wordpool_576.txt	LTP287	ltpFR2	10	4	ISLAND	745	n/a	n/a	0	0	0
1263.962	n/a	WORD	631981	wordpools/wasnorm_wordpool_576.txt	LTP287	ltpFR2	10	4	SHRUB	1299	n/a	n/a	0	0	0
1266.692	n/a	WORD	633346	wordpools/wasnorm_wordpool_576.txt	LTP287	ltpFR2	10	4	CHIPMUNK	304	n/a	n/a	0	0	0
1269.222	n/a	WORD	634611	wordpools/wasnorm_wordpool_576.txt	LTP287	ltpFR2	10	4	OZONE	996	n/a	n/a	0	0	0
1271.884	n/a	WORD	635942	wordpools/wasnorm_wordpool_576.txt	LTP287	ltpFR2	10	4	PIGMENT	1066	n/a	n/a	0	0	0
1274.53	n/a	WORD	637265	wordpools/wasnorm_wordpool_576.txt	LTP287	ltpFR2	10	4	LABEL	790	n/a	n/a	0	0	0
1277.21	n/a	WORD	638605	wordpools/wasnorm_wordpool_576.txt	LTP287	ltpFR2	10	4	BOARD	143	n/a	n/a	0	0	0
1279.888	n/a	WORD	639944	wordpools/wasnorm_wordpool_576.txt	LTP287	ltpFR2	10	4	CRAYON	401	n/a	n/a	0	0	0
1282.386	n/a	WORD	641193	wordpools/wasnorm_wordpool_576.txt	LTP287	ltpFR2	10	4	ROD	1203	n/a	n/a	0	0	0
1285.198	n/a	WORD	642599	wordpools/wasnorm_wordpool_576.txt	LTP287	ltpFR2	10	4	DRESS	495	n/a	n/a	0	0	0
1287.976	n/a	WORD	643988	wordpools/wasnorm_wordpool_576.txt	LTP287	ltpFR2	10	4	PADDLE	1000	n/a	n/a	0	0	0
1290.506	n/a	WORD	645253	wordpools/wasnorm_wordpool_576.txt	LTP287	ltpFR2	10	4	YACHT	1629	n/a	n/a	0	0	0
1292.122	n/a	START	646061	n/a	LTP287	ltpFR2	10	n/a	n/a	n/a	6	n/a	n/a	n/a	n/a
1293.016	n/a	DISTRACTOR	646508	n/a	LTP287	ltpFR2	10	4	n/a	n/a	n/a	n/a	0	0	0
1293.02	n/a	PROB	646510	n/a	LTP287	ltpFR2	10	n/a	n/a	n/a	6	13	7	2	4
1296.264	n/a	PROB	648132	n/a	LTP287	ltpFR2	10	n/a	n/a	n/a	6	21	8	8	5
1298.86	n/a	PROB	649430	n/a	LTP287	ltpFR2	10	n/a	n/a	n/a	6	15	2	7	6
1302.772	n/a	PROB	651386	n/a	LTP287	ltpFR2	10	n/a	n/a	n/a	6	17	2	9	6
1304.952	n/a	PROB	652476	n/a	LTP287	ltpFR2	10	n/a	n/a	n/a	6	15	6	2	7
1306.366	n/a	PROB	653183	n/a	LTP287	ltpFR2	10	n/a	n/a	n/a	6	13	5	7	1
1308.38	n/a	PROB	654190	n/a	LTP287	ltpFR2	10	n/a	n/a	n/a	6	14	6	7	1
1310.044	n/a	PROB	655022	n/a	LTP287	ltpFR2	10	n/a	n/a	n/a	6	14	5	5	4
1311.476	n/a	PROB	655738	n/a	LTP287	ltpFR2	10	n/a	n/a	n/a	6	19	3	7	9
1312.774	n/a	PROB	656387	n/a	LTP287	ltpFR2	10	n/a	n/a	n/a	6	10	5	3	2
1316.122	n/a	STOP	658061	n/a	LTP287	ltpFR2	10	n/a	n/a	n/a	6	n/a	n/a	n/a	n/a
1318.034	n/a	REC_START	659017	n/a	LTP287	ltpFR2	10	4	n/a	n/a	n/a	n/a	0	0	0
1318.918	n/a	REC_WORD	659459	wordpools/wasnorm_wordpool_576.txt	LTP287	ltpFR2	10	4	YACHT	1629	n/a	n/a	0	0	0
1320.116	n/a	REC_WORD	660058	wordpools/wasnorm_wordpool_576.txt	LTP287	ltpFR2	10	4	ROD	1203	n/a	n/a	0	0	0
1327.154	n/a	REC_WORD	663577	wordpools/wasnorm_wordpool_576.txt	LTP287	ltpFR2	10	4	PADDLE	1000	n/a	n/a	0	0	0
1408.698	n/a	DISTRACTOR	704349	n/a	LTP287	ltpFR2	10	5	n/a	n/a	n/a	n/a	0	0	0
1408.698	n/a	START	704349	n/a	LTP287	ltpFR2	10	n/a	n/a	n/a	7	n/a	n/a	n/a	n/a
1408.732	n/a	PROB	704366	n/a	LTP287	ltpFR2	10	n/a	n/a	n/a	7	20	9	7	4
1410.346	n/a	PROB	705173	n/a	LTP287	ltpFR2	10	n/a	n/a	n/a	7	19	6	9	4
1413.126	n/a	PROB	706563	n/a	LTP287	ltpFR2	10	n/a	n/a	n/a	7	20	8	4	8
1416.104	n/a	PROB	708052	n/a	LTP287	ltpFR2	10	n/a	n/a	n/a	7	12	1	6	5
1417.37	n/a	PROB	708685	n/a	LTP287	ltpFR2	10	n/a	n/a	n/a	7	26	8	9	9
1419.682	n/a	PROB	709841	n/a	LTP287	ltpFR2	10	n/a	n/a	n/a	7	20	6	5	9
1421.978	n/a	PROB	710989	n/a	LTP287	ltpFR2	10	n/a	n/a	n/a	7	12	7	3	2
1423.128	n/a	PROB	711564	n/a	LTP287	ltpFR2	10	n/a	n/a	n/a	7	14	6	3	5
1424.674	n/a	PROB	712337	n/a	LTP287	ltpFR2	10	n/a	n/a	n/a	7	23	7	9	7
1426.706	n/a	PROB	713353	n/a	LTP287	ltpFR2	10	n/a	n/a	n/a	7	5	1	3	1
1427.67	n/a	PROB	713835	n/a	LTP287	ltpFR2	10	n/a	n/a	n/a	7	14	5	1	8
1429.868	n/a	PROB	714934	n/a	LTP287	ltpFR2	10	n/a	n/a	n/a	7	17	6	8	3
1431.764	n/a	STOP	715882	n/a	LTP287	ltpFR2	10	n/a	n/a	n/a	7	n/a	n/a	n/a	n/a
1433.744	n/a	WORD	716872	wordpools/wasnorm_wordpool_576.txt	LTP287	ltpFR2	10	5	PEBBLE	1035	n/a	n/a	0	0	0
1436.474	n/a	WORD	718237	wordpools/wasnorm_wordpool_576.txt	LTP287	ltpFR2	10	5	GRAVEL	659	n/a	n/a	0	0	0
1438.954	n/a	WORD	719477	wordpools/wasnorm_wordpool_576.txt	LTP287	ltpFR2	10	5	HONEY	713	n/a	n/a	0	0	0
1441.384	n/a	WORD	720692	wordpools/wasnorm_wordpool_576.txt	LTP287	ltpFR2	10	5	HORNET	718	n/a	n/a	0	0	0
1443.846	n/a	WORD	721923	wordpools/wasnorm_wordpool_576.txt	LTP287	ltpFR2	10	5	HOUND	724	n/a	n/a	0	0	0
1446.626	n/a	WORD	723313	wordpools/wasnorm_wordpool_576.txt	LTP287	ltpFR2	10	5	LIGHTNING	820	n/a	n/a	0	0	0
1449.354	n/a	WORD	724677	wordpools/wasnorm_wordpool_576.txt	LTP287	ltpFR2	10	5	FLOWER	584	n/a	n/a	0	0	0
1452.068	n/a	WORD	726034	wordpools/wasnorm_wordpool_576.txt	LTP287	ltpFR2	10	5	PUPPY	1144	n/a	n/a	0	0	0
1454.78	n/a	WORD	727390	wordpools/wasnorm_wordpool_576.txt	LTP287	ltpFR2	10	5	ROCKET	1202	n/a	n/a	0	0	0
1457.46	n/a	WORD	728730	wordpools/wasnorm_wordpool_576.txt	LTP287	ltpFR2	10	5	STAMP	1370	n/a	n/a	0	0	0
1459.938	n/a	WORD	729969	wordpools/wasnorm_wordpool_576.txt	LTP287	ltpFR2	10	5	FIREPLACE	570	n/a	n/a	0	0	0
1462.386	n/a	WORD	731193	wordpools/wasnorm_wordpool_576.txt	LTP287	ltpFR2	10	5	DORM	488	n/a	n/a	0	0	0
1465.148	n/a	WORD	732574	wordpools/wasnorm_wordpool_576.txt	LTP287	ltpFR2	10	5	OUTFIT	988	n/a	n/a	0	0	0
1467.828	n/a	WORD	733914	wordpools/wasnorm_wordpool_576.txt	LTP287	ltpFR2	10	5	RECORD	1176	n/a	n/a	0	0	0
1470.258	n/a	WORD	735129	wordpools/wasnorm_wordpool_576.txt	LTP287	ltpFR2	10	5	PARTNER	1017	n/a	n/a	0	0	0
1472.92	n/a	WORD	736460	wordpools/wasnorm_wordpool_576.txt	LTP287	ltpFR2	10	5	BOYFRIEND	162	n/a	n/a	0	0	0
1475.482	n/a	WORD	737741	wordpools/wasnorm_wordpool_576.txt	LTP287	ltpFR2	10	5	SKIRT	1319	n/a	n/a	0	0	0
1478.212	n/a	WORD	739106	wordpools/wasnorm_wordpool_576.txt	LTP287	ltpFR2	10	5	FRAME	600	n/a	n/a	0	0	0
1480.858	n/a	WORD	740429	wordpools/wasnorm_wordpool_576.txt	LTP287	ltpFR2	10	5	SEAFOOD	1260	n/a	n/a	0	0	0
1483.322	n/a	WORD	741661	wordpools/wasnorm_wordpool_576.txt	LTP287	ltpFR2	10	5	TOURIST	1488	n/a	n/a	0	0	0
1485.868	n/a	WORD	742934	wordpools/wasnorm_wordpool_576.txt	LTP287	ltpFR2	10	5	RAZOR	1171	n/a	n/a	0	0	0
1488.612	n/a	WORD	744306	wordpools/wasnorm_wordpool_576.txt	LTP287	ltpFR2	10	5	SODA	1341	n/a	n/a	0	0	0
1491.176	n/a	WORD	745588	wordpools/wasnorm_wordpool_576.txt	LTP287	ltpFR2	10	5	BANK	83	n/a	n/a	0	0	0
1493.988	n/a	WORD	746994	wordpools/wasnorm_wordpool_576.txt	LTP287	ltpFR2	10	5	WINDOW	1611	n/a	n/a	0	0	0
1495.602	n/a	START	747801	n/a	LTP287	ltpFR2	10	n/a	n/a	n/a	8	n/a	n/a	n/a	n/a
1496.496	n/a	DISTRACTOR	748248	n/a	LTP287	ltpFR2	10	5	n/a	n/a	n/a	n/a	0	0	0
1496.502	n/a	PROB	748251	n/a	LTP287	ltpFR2	10	n/a	n/a	n/a	8	12	6	3	3
1500.662	n/a	PROB	750331	n/a	LTP287	ltpFR2	10	n/a	n/a	n/a	8	14	1	9	4
1501.76	n/a	PROB	750880	n/a	LTP287	ltpFR2	10	n/a	n/a	n/a	8	5	3	1	3
1502.86	n/a	PROB	751430	n/a	LTP287	ltpFR2	10	n/a	n/a	n/a	8	12	5	2	5
1504.058	n/a	PROB	752029	n/a	LTP287	ltpFR2	10	n/a	n/a	n/a	8	14	7	6	1
1505.654	n/a	PROB	752827	n/a	LTP287	ltpFR2	10	n/a	n/a	n/a	8	13	9	3	1
1508.284	n/a	PROB	754142	n/a	LTP287	ltpFR2	10	n/a	n/a	n/a	8	14	6	5	2
1509.848	n/a	PROB	754924	n/a	LTP287	ltpFR2	10	n/a	n/a	n/a	8	17	5	8	6
1513.11	n/a	PROB	756555	n/a	LTP287	ltpFR2	10	n/a	n/a	n/a	8	14	3	3	8
1515.24	n/a	PROB	757620	n/a	LTP287	ltpFR2	10	n/a	n/a	n/a	8	20	2	9	9
1519.602	n/a	STOP	759801	n/a	LTP287	ltpFR2	10	n/a	n/a	n/a	8	n/a	n/a	n/a	n/a
1521.448	n/a	REC_START	760724	n/a	LTP287	ltpFR2	10	5	n/a	n/a	n/a	n/a	0	0	0
1523.378	n/a	REC_WORD	761689	wordpools/wasnorm_wordpool_576.txt	LTP287	ltpFR2	10	5	RAZOR	1171	n/a	n/a	0	0	0
1524.54	n/a	REC_WORD	762270	wordpools/wasnorm_wordpool_576.txt	LTP287	ltpFR2	10	5	PEBBLE	1035	n/a	n/a	0	0	0
1525.19	n/a	REC_WORD	762595	wordpools/wasnorm_wordpool_576.txt	LTP287	ltpFR2	10	5	GRAVEL	659	n/a	n/a	0	0	0
1526.268	n/a	REC_WORD	763134	wordpools/wasnorm_wordpool_576.txt	LTP287	ltpFR2	10	5	HONEY	713	n/a	n/a	0	0	0
1526.938	n/a	REC_WORD	763469	wordpools/wasnorm_wordpool_576.txt	LTP287	ltpFR2	10	5	HORNET	718	n/a	n/a	0	0	0
1527.47	n/a	REC_WORD	763735	wordpools/wasnorm_wordpool_576.txt	LTP287	ltpFR2	10	5	HOUND	724	n/a	n/a	0	0	0
1612.098	n/a	DISTRACTOR	806049	n/a	LTP287	ltpFR2	10	6	n/a	n/a	n/a	n/a	0	0	0
1612.098	n/a	START	806049	n/a	LTP287	ltpFR2	10	n/a	n/a	n/a	9	n/a	n/a	n/a	n/a
1612.13	n/a	PROB	806065	n/a	LTP287	ltpFR2	10	n/a	n/a	n/a	9	13	2	9	2
1614.194	n/a	PROB	807097	n/a	LTP287	ltpFR2	10	n/a	n/a	n/a	9	14	9	3	2
1615.742	n/a	PROB	807871	n/a	LTP287	ltpFR2	10	n/a	n/a	n/a	9	26	9	8	9
1617.472	n/a	PROB	808736	n/a	LTP287	ltpFR2	10	n/a	n/a	n/a	9	21	7	6	8
1619.786	n/a	PROB	809893	n/a	LTP287	ltpFR2	10	n/a	n/a	n/a	9	12	9	1	2
1620.952	n/a	PROB	810476	n/a	LTP287	ltpFR2	10	n/a	n/a	n/a	9	26	9	9	8
1624.13	n/a	PROB	812065	n/a	LTP287	ltpFR2	10	n/a	n/a	n/a	9	18	4	9	5
1625.694	n/a	PROB	812847	n/a	LTP287	ltpFR2	10	n/a	n/a	n/a	9	8	1	2	5
1628.008	n/a	PROB	814004	n/a	LTP287	ltpFR2	10	n/a	n/a	n/a	9	12	1	7	4
1629.988	n/a	PROB	814994	n/a	LTP287	ltpFR2	10	n/a	n/a	n/a	9	19	6	4	9
1631.436	n/a	PROB	815718	n/a	LTP287	ltpFR2	10	n/a	n/a	n/a	9	10	7	1	2
1633.034	n/a	PROB	816517	n/a	LTP287	ltpFR2	10	n/a	n/a	n/a	9	13	6	4	3
1634.63	n/a	STOP	817315	n/a	LTP287	ltpFR2	10	n/a	n/a	n/a	9	n/a	n/a	n/a	n/a
1637.094	n/a	WORD	818547	wordpools/wasnorm_wordpool_576.txt	LTP287	ltpFR2	10	6	DUST	508	n/a	n/a	0	0	0
1639.64	n/a	WORD	819820	wordpools/wasnorm_wordpool_576.txt	LTP287	ltpFR2	10	6	SAUSAGE	1238	n/a	n/a	0	0	0
1642.236	n/a	WORD	821118	wordpools/wasnorm_wordpool_576.txt	LTP287	ltpFR2	10	6	CYCLONE	431	n/a	n/a	0	0	0
1644.832	n/a	WORD	822416	wordpools/wasnorm_wordpool_576.txt	LTP287	ltpFR2	10	6	VALVE	1546	n/a	n/a	0	0	0
1647.362	n/a	WORD	823681	wordpools/wasnorm_wordpool_576.txt	LTP287	ltpFR2	10	6	CHAUFFEUR	283	n/a	n/a	0	0	0
1649.876	n/a	WORD	824938	wordpools/wasnorm_wordpool_576.txt	LTP287	ltpFR2	10	6	MAILBOX	857	n/a	n/a	0	0	0
1652.488	n/a	WORD	826244	wordpools/wasnorm_wordpool_576.txt	LTP287	ltpFR2	10	6	SNAKE	1333	n/a	n/a	0	0	0
1655.234	n/a	WORD	827617	wordpools/wasnorm_wordpool_576.txt	LTP287	ltpFR2	10	6	CITRUS	313	n/a	n/a	0	0	0
1658.028	n/a	WORD	829014	wordpools/wasnorm_wordpool_576.txt	LTP287	ltpFR2	10	6	POCKET	1093	n/a	n/a	0	0	0
1660.792	n/a	WORD	830396	wordpools/wasnorm_wordpool_576.txt	LTP287	ltpFR2	10	6	FLASHLIGHT	575	n/a	n/a	0	0	0
1663.438	n/a	WORD	831719	wordpools/wasnorm_wordpool_576.txt	LTP287	ltpFR2	10	6	BIKE	125	n/a	n/a	0	0	0
1666.15	n/a	WORD	833075	wordpools/wasnorm_wordpool_576.txt	LTP287	ltpFR2	10	6	SCOTCH	1251	n/a	n/a	0	0	0
1668.814	n/a	WORD	834407	wordpools/wasnorm_wordpool_576.txt	LTP287	ltpFR2	10	6	KNAPSACK	783	n/a	n/a	0	0	0
1671.558	n/a	WORD	835779	wordpools/wasnorm_wordpool_576.txt	LTP287	ltpFR2	10	6	INFANT	737	n/a	n/a	0	0	0
1674.338	n/a	WORD	837169	wordpools/wasnorm_wordpool_576.txt	LTP287	ltpFR2	10	6	POWDER	1117	n/a	n/a	0	0	0
1676.918	n/a	WORD	838459	wordpools/wasnorm_wordpool_576.txt	LTP287	ltpFR2	10	6	COUCH	386	n/a	n/a	0	0	0
1679.414	n/a	WORD	839707	wordpools/wasnorm_wordpool_576.txt	LTP287	ltpFR2	10	6	BARLEY	88	n/a	n/a	0	0	0
1682.126	n/a	WORD	841063	wordpools/wasnorm_wordpool_576.txt	LTP287	ltpFR2	10	6	EMPIRE	530	n/a	n/a	0	0	0
1684.906	n/a	WORD	842453	wordpools/wasnorm_wordpool_576.txt	LTP287	ltpFR2	10	6	MOP	916	n/a	n/a	0	0	0
1687.686	n/a	WORD	843843	wordpools/wasnorm_wordpool_576.txt	LTP287	ltpFR2	10	6	DUSTPAN	509	n/a	n/a	0	0	0
1690.132	n/a	WORD	845066	wordpools/wasnorm_wordpool_576.txt	LTP287	ltpFR2	10	6	RATTLE	1170	n/a	n/a	0	0	0
1692.662	n/a	WORD	846331	wordpools/wasnorm_wordpool_576.txt	LTP287	ltpFR2	10	6	ORANGE	980	n/a	n/a	0	0	0
1695.324	n/a	WORD	847662	wordpools/wasnorm_wordpool_576.txt	LTP287	ltpFR2	10	6	RUST	1219	n/a	n/a	0	0	0
1697.788	n/a	WORD	848894	wordpools/wasnorm_wordpool_576.txt	LTP287	ltpFR2	10	6	WRENCH	1625	n/a	n/a	0	0	0
1699.402	n/a	START	849701	n/a	LTP287	ltpFR2	10	n/a	n/a	n/a	10	n/a	n/a	n/a	n/a
1700.49	n/a	DISTRACTOR	850245	n/a	LTP287	ltpFR2	10	6	n/a	n/a	n/a	n/a	0	0	0
1700.5	n/a	PROB	850250	n/a	LTP287	ltpFR2	10	n/a	n/a	n/a	10	15	6	6	3
1703.862	n/a	PROB	851931	n/a	LTP287	ltpFR2	10	n/a	n/a	n/a	10	21	8	5	8
1705.826	n/a	PROB	852913	n/a	LTP287	ltpFR2	10	n/a	n/a	n/a	10	17	8	1	8
1707.938	n/a	PROB	853969	n/a	LTP287	ltpFR2	10	n/a	n/a	n/a	10	13	6	2	5
1709.87	n/a	PROB	854935	n/a	LTP287	ltpFR2	10	n/a	n/a	n/a	10	18	9	3	6
1711.634	n/a	PROB	855817	n/a	LTP287	ltpFR2	10	n/a	n/a	n/a	10	18	8	6	4
1713.082	n/a	PROB	856541	n/a	LTP287	ltpFR2	10	n/a	n/a	n/a	10	12	3	6	3
1714.662	n/a	PROB	857331	n/a	LTP287	ltpFR2	10	n/a	n/a	n/a	10	18	4	6	8
1715.878	n/a	PROB	857939	n/a	LTP287	ltpFR2	10	n/a	n/a	n/a	10	13	5	6	2
1717.84	n/a	PROB	858920	n/a	LTP287	ltpFR2	10	n/a	n/a	n/a	10	10	3	4	3
1719.406	n/a	PROB	859703	n/a	LTP287	ltpFR2	10	n/a	n/a	n/a	10	13	3	2	8
1720.87	n/a	PROB	860435	n/a	LTP287	ltpFR2	10	n/a	n/a	n/a	10	21	6	6	9
1722.59	n/a	STOP	861295	n/a	LTP287	ltpFR2	10	n/a	n/a	n/a	10	n/a	n/a	n/a	n/a
1725.364	n/a	REC_START	862682	n/a	LTP287	ltpFR2	10	6	n/a	n/a	n/a	n/a	0	0	0
1728.78	n/a	REC_WORD	864390	wordpools/wasnorm_wordpool_576.txt	LTP287	ltpFR2	10	6	INFANT	737	n/a	n/a	0	0	0
1732.386	n/a	REC_WORD	866193	wordpools/wasnorm_wordpool_576.txt	LTP287	ltpFR2	10	6	POWDER	1117	n/a	n/a	0	0	0
1741.468	n/a	REC_WORD	870734	wordpools/wasnorm_wordpool_576.txt	LTP287	ltpFR2	10	6	DUST	508	n/a	n/a	0	0	0
1816.046	n/a	WORD	908023	wordpools/wasnorm_wordpool_576.txt	LTP287	ltpFR2	10	7	MAILMAN	858	n/a	n/a	0	0	0
1818.808	n/a	WORD	909404	wordpools/wasnorm_wordpool_576.txt	LTP287	ltpFR2	10	7	COIN	343	n/a	n/a	0	0	0
1821.304	n/a	WORD	910652	wordpools/wasnorm_wordpool_576.txt	LTP287	ltpFR2	10	7	MILK	895	n/a	n/a	0	0	0
1823.918	n/a	WORD	911959	wordpools/wasnorm_wordpool_576.txt	LTP287	ltpFR2	10	7	ROBBER	1197	n/a	n/a	0	0	0
1826.398	n/a	WORD	913199	wordpools/wasnorm_wordpool_576.txt	LTP287	ltpFR2	10	7	SUSPECT	1415	n/a	n/a	0	0	0
1828.91	n/a	WORD	914455	wordpools/wasnorm_wordpool_576.txt	LTP287	ltpFR2	10	7	PERMIT	1051	n/a	n/a	0	0	0
1831.49	n/a	WORD	915745	wordpools/wasnorm_wordpool_576.txt	LTP287	ltpFR2	10	7	TERMITE	1451	n/a	n/a	0	0	0
1834.268	n/a	WORD	917134	wordpools/wasnorm_wordpool_576.txt	LTP287	ltpFR2	10	7	VICTIM	1562	n/a	n/a	0	0	0
1836.832	n/a	WORD	918416	wordpools/wasnorm_wordpool_576.txt	LTP287	ltpFR2	10	7	CLIMBER	323	n/a	n/a	0	0	0
1839.262	n/a	WORD	919631	wordpools/wasnorm_wordpool_576.txt	LTP287	ltpFR2	10	7	LIZARD	834	n/a	n/a	0	0	0
1841.908	n/a	WORD	920954	wordpools/wasnorm_wordpool_576.txt	LTP287	ltpFR2	10	7	ZEBRA	1635	n/a	n/a	0	0	0
1844.438	n/a	WORD	922219	wordpools/wasnorm_wordpool_576.txt	LTP287	ltpFR2	10	7	NOVEL	960	n/a	n/a	0	0	0
1846.9	n/a	WORD	923450	wordpools/wasnorm_wordpool_576.txt	LTP287	ltpFR2	10	7	HARP	689	n/a	n/a	0	0	0
1849.646	n/a	WORD	924823	wordpools/wasnorm_wordpool_576.txt	LTP287	ltpFR2	10	7	PERFUME	1049	n/a	n/a	0	0	0
1852.358	n/a	WORD	926179	wordpools/wasnorm_wordpool_576.txt	LTP287	ltpFR2	10	7	POLICE	1098	n/a	n/a	0	0	0
1855.104	n/a	WORD	927552	wordpools/wasnorm_wordpool_576.txt	LTP287	ltpFR2	10	7	GALLON	618	n/a	n/a	0	0	0
1857.834	n/a	WORD	928917	wordpools/wasnorm_wordpool_576.txt	LTP287	ltpFR2	10	7	TROUT	1511	n/a	n/a	0	0	0
1860.596	n/a	WORD	930298	wordpools/wasnorm_wordpool_576.txt	LTP287	ltpFR2	10	7	DOLPHIN	483	n/a	n/a	0	0	0
1863.36	n/a	WORD	931680	wordpools/wasnorm_wordpool_576.txt	LTP287	ltpFR2	10	7	NURSE	963	n/a	n/a	0	0	0
1866.12	n/a	WORD	933060	wordpools/wasnorm_wordpool_576.txt	LTP287	ltpFR2	10	7	SCALPEL	1243	n/a	n/a	0	0	0
1868.834	n/a	WORD	934417	wordpools/wasnorm_wordpool_576.txt	LTP287	ltpFR2	10	7	DOUGHNUT	490	n/a	n/a	0	0	0
1871.528	n/a	WORD	935764	wordpools/wasnorm_wordpool_576.txt	LTP287	ltpFR2	10	7	COCOON	339	n/a	n/a	0	0	0
1874.242	n/a	WORD	937121	wordpools/wasnorm_wordpool_576.txt	LTP287	ltpFR2	10	7	FLIPPER	580	n/a	n/a	0	0	0
1876.838	n/a	WORD	938419	wordpools/wasnorm_wordpool_576.txt	LTP287	ltpFR2	10	7	OUTLAW	989	n/a	n/a	0	0	0
1878.454	n/a	START	939227	n/a	LTP287	ltpFR2	10	n/a	n/a	n/a	11	n/a	n/a	n/a	n/a
1879.324	n/a	DISTRACTOR	939662	n/a	LTP287	ltpFR2	10	7	n/a	n/a	n/a	n/a	0	0	0
1879.334	n/a	PROB	939667	n/a	LTP287	ltpFR2	10	n/a	n/a	n/a	11	19	6	4	9
1880.782	n/a	PROB	940391	n/a	LTP287	ltpFR2	10	n/a	n/a	n/a	11	17	7	6	4
1882.248	n/a	PROB	941124	n/a	LTP287	ltpFR2	10	n/a	n/a	n/a	11	22	5	8	9
1888.738	n/a	PROB	944369	n/a	LTP287	ltpFR2	10	n/a	n/a	n/a	11	10	5	1	4
1890.168	n/a	PROB	945084	n/a	LTP287	ltpFR2	10	n/a	n/a	n/a	11	15	8	4	3
1892.182	n/a	PROB	946091	n/a	LTP287	ltpFR2	10	n/a	n/a	n/a	11	8	2	2	4
1893.63	n/a	PROB	946815	n/a	LTP287	ltpFR2	10	n/a	n/a	n/a	11	17	5	5	7
1894.846	n/a	PROB	947423	n/a	LTP287	ltpFR2	10	n/a	n/a	n/a	11	17	7	7	3
1896.86	n/a	PROB	948430	n/a	LTP287	ltpFR2	10	n/a	n/a	n/a	11	18	5	6	7
1898.572	n/a	PROB	949286	n/a	LTP287	ltpFR2	10	n/a	n/a	n/a	11	14	3	4	7
1902.452	n/a	STOP	951226	n/a	LTP287	ltpFR2	10	n/a	n/a	n/a	11	n/a	n/a	n/a	n/a
1904.416	n/a	REC_START	952208	n/a	LTP287	ltpFR2	10	7	n/a	n/a	n/a	n/a	0	0	0
1905.068	n/a	REC_WORD	952534	wordpools/wasnorm_wordpool_576.txt	LTP287	ltpFR2	10	7	NURSE	963	n/a	n/a	0	0	0
1905.926	n/a	REC_WORD	952963	wordpools/wasnorm_wordpool_576.txt	LTP287	ltpFR2	10	7	SCALPEL	1243	n/a	n/a	0	0	0
1907.146	n/a	REC_WORD	953573	wordpools/wasnorm_wordpool_576.txt	LTP287	ltpFR2	10	7	DOUGHNUT	490	n/a	n/a	0	0	0
1908.194	n/a	REC_WORD	954097	wordpools/wasnorm_wordpool_576.txt	LTP287	ltpFR2	10	7	DOLPHIN	483	n/a	n/a	0	0	0
1909.124	n/a	REC_WORD	954562	wordpools/wasnorm_wordpool_576.txt	LTP287	ltpFR2	10	7	FLIPPER	580	n/a	n/a	0	0	0
1911.52	n/a	REC_WORD	955760	wordpools/wasnorm_wordpool_576.txt	LTP287	ltpFR2	10	7	PERMIT	1051	n/a	n/a	0	0	0
1912.906	n/a	REC_WORD	956453	wordpools/wasnorm_wordpool_576.txt	LTP287	ltpFR2	10	7	VICTIM	1562	n/a	n/a	0	0	0
1915.09	n/a	REC_WORD	957545	wordpools/wasnorm_wordpool_576.txt	LTP287	ltpFR2	10	7	ROBBER	1197	n/a	n/a	0	0	0
1995.114	n/a	WORD	997557	wordpools/wasnorm_wordpool_576.txt	LTP287	ltpFR2	10	8	PECAN	1036	n/a	n/a	0	0	0
1997.81	n/a	WORD	998905	wordpools/wasnorm_wordpool_576.txt	LTP287	ltpFR2	10	8	TRANSPLANT	1496	n/a	n/a	0	0	0
2000.272	n/a	WORD	1000136	wordpools/wasnorm_wordpool_576.txt	LTP287	ltpFR2	10	8	LIVER	833	n/a	n/a	0	0	0
2002.902	n/a	WORD	1001451	wordpools/wasnorm_wordpool_576.txt	LTP287	ltpFR2	10	8	SCULPTURE	1258	n/a	n/a	0	0	0
2005.632	n/a	WORD	1002816	wordpools/wasnorm_wordpool_576.txt	LTP287	ltpFR2	10	8	WAGON	1578	n/a	n/a	0	0	0
2008.228	n/a	WORD	1004114	wordpools/wasnorm_wordpool_576.txt	LTP287	ltpFR2	10	8	BLOCKADE	137	n/a	n/a	0	0	0
2010.708	n/a	WORD	1005354	wordpools/wasnorm_wordpool_576.txt	LTP287	ltpFR2	10	8	BRAKE	166	n/a	n/a	0	0	0
2013.37	n/a	WORD	1006685	wordpools/wasnorm_wordpool_576.txt	LTP287	ltpFR2	10	8	HERO	706	n/a	n/a	0	0	0
2015.85	n/a	WORD	1007925	wordpools/wasnorm_wordpool_576.txt	LTP287	ltpFR2	10	8	TWISTER	1530	n/a	n/a	0	0	0
2018.496	n/a	WORD	1009248	wordpools/wasnorm_wordpool_576.txt	LTP287	ltpFR2	10	8	BUGGY	188	n/a	n/a	0	0	0
2021.258	n/a	WORD	1010629	wordpools/wasnorm_wordpool_576.txt	LTP287	ltpFR2	10	8	FILM	565	n/a	n/a	0	0	0
2023.704	n/a	WORD	1011852	wordpools/wasnorm_wordpool_576.txt	LTP287	ltpFR2	10	8	COUNTY	389	n/a	n/a	0	0	0
2026.234	n/a	WORD	1013117	wordpools/wasnorm_wordpool_576.txt	LTP287	ltpFR2	10	8	JAPAN	749	n/a	n/a	0	0	0
2028.814	n/a	WORD	1014407	wordpools/wasnorm_wordpool_576.txt	LTP287	ltpFR2	10	8	JURY	766	n/a	n/a	0	0	0
2031.394	n/a	WORD	1015697	wordpools/wasnorm_wordpool_576.txt	LTP287	ltpFR2	10	8	COWBOY	395	n/a	n/a	0	0	0
2033.974	n/a	WORD	1016987	wordpools/wasnorm_wordpool_576.txt	LTP287	ltpFR2	10	8	RUG	1215	n/a	n/a	0	0	0
2036.486	n/a	WORD	1018243	wordpools/wasnorm_wordpool_576.txt	LTP287	ltpFR2	10	8	SHERIFF	1284	n/a	n/a	0	0	0
2038.966	n/a	WORD	1019483	wordpools/wasnorm_wordpool_576.txt	LTP287	ltpFR2	10	8	PIMPLE	1071	n/a	n/a	0	0	0
2041.396	n/a	WORD	1020698	wordpools/wasnorm_wordpool_576.txt	LTP287	ltpFR2	10	8	CELLAR	267	n/a	n/a	0	0	0
2043.926	n/a	WORD	1021963	wordpools/wasnorm_wordpool_576.txt	LTP287	ltpFR2	10	8	FOOTBALL	591	n/a	n/a	0	0	0
2046.472	n/a	WORD	1023236	wordpools/wasnorm_wordpool_576.txt	LTP287	ltpFR2	10	8	BREAST	171	n/a	n/a	0	0	0
2049.002	n/a	WORD	1024501	wordpools/wasnorm_wordpool_576.txt	LTP287	ltpFR2	10	8	HUSBAND	728	n/a	n/a	0	0	0
2051.464	n/a	WORD	1025732	wordpools/wasnorm_wordpool_576.txt	LTP287	ltpFR2	10	8	PATROL	1027	n/a	n/a	0	0	0
2053.994	n/a	WORD	1026997	wordpools/wasnorm_wordpool_576.txt	LTP287	ltpFR2	10	8	ACTOR	5	n/a	n/a	0	0	0
2055.608	n/a	START	1027804	n/a	LTP287	ltpFR2	10	n/a	n/a	n/a	12	n/a	n/a	n/a	n/a
2056.784	n/a	DISTRACTOR	1028392	n/a	LTP287	ltpFR2	10	8	n/a	n/a	n/a	n/a	0	0	0
2056.79	n/a	PROB	1028395	n/a	LTP287	ltpFR2	10	n/a	n/a	n/a	12	19	3	7	9
2058.654	n/a	PROB	1029327	n/a	LTP287	ltpFR2	10	n/a	n/a	n/a	12	18	1	9	8
2060.284	n/a	PROB	1030142	n/a	LTP287	ltpFR2	10	n/a	n/a	n/a	12	20	7	6	7
2061.65	n/a	PROB	1030825	n/a	LTP287	ltpFR2	10	n/a	n/a	n/a	12	18	4	6	6
2063.38	n/a	PROB	1031690	n/a	LTP287	ltpFR2	10	n/a	n/a	n/a	12	8	1	4	3
2066.01	n/a	PROB	1033005	n/a	LTP287	ltpFR2	10	n/a	n/a	n/a	12	14	7	3	4
2067.274	n/a	PROB	1033637	n/a	LTP287	ltpFR2	10	n/a	n/a	n/a	12	13	1	4	8
2068.888	n/a	PROB	1034444	n/a	LTP287	ltpFR2	10	n/a	n/a	n/a	12	17	7	2	8
2071.402	n/a	PROB	1035701	n/a	LTP287	ltpFR2	10	n/a	n/a	n/a	12	22	9	7	6
2074.814	n/a	PROB	1037407	n/a	LTP287	ltpFR2	10	n/a	n/a	n/a	12	13	5	3	5
2075.91	n/a	PROB	1037955	n/a	LTP287	ltpFR2	10	n/a	n/a	n/a	12	20	5	9	6
2078.81	n/a	STOP	1039405	n/a	LTP287	ltpFR2	10	n/a	n/a	n/a	12	n/a	n/a	n/a	n/a
2081.42	n/a	REC_START	1040710	n/a	LTP287	ltpFR2	10	8	n/a	n/a	n/a	n/a	0	0	0
2082.28	n/a	REC_WORD	1041140	wordpools/wasnorm_wordpool_576.txt	LTP287	ltpFR2	10	8	PATROL	1027	n/a	n/a	0	0	0
2086.334	n/a	REC_WORD	1043167	wordpools/wasnorm_wordpool_576.txt	LTP287	ltpFR2	10	8	COWBOY	395	n/a	n/a	0	0	0
2107.55	n/a	REC_WORD	1053775	wordpools/wasnorm_wordpool_576.txt	LTP287	ltpFR2	10	8	ACTOR	5	n/a	n/a	0	0	0
2158.04	n/a	REST_REWET	1079020	n/a	LTP287	ltpFR2	10	8	n/a	n/a	n/a	n/a	0	0	0
2414.21	n/a	WORD	1207105	wordpools/wasnorm_wordpool_576.txt	LTP287	ltpFR2	10	9	PASSAGE	1019	n/a	n/a	0	0	0
2416.806	n/a	WORD	1208403	wordpools/wasnorm_wordpool_576.txt	LTP287	ltpFR2	10	9	AUTHOR	61	n/a	n/a	0	0	0
2419.402	n/a	WORD	1209701	wordpools/wasnorm_wordpool_576.txt	LTP287	ltpFR2	10	9	SILK	1307	n/a	n/a	0	0	0
2422.182	n/a	WORD	1211091	wordpools/wasnorm_wordpool_576.txt	LTP287	ltpFR2	10	9	MUSTARD	935	n/a	n/a	0	0	0
2424.662	n/a	WORD	1212331	wordpools/wasnorm_wordpool_576.txt	LTP287	ltpFR2	10	9	CLOCK	325	n/a	n/a	0	0	0
2427.34	n/a	WORD	1213670	wordpools/wasnorm_wordpool_576.txt	LTP287	ltpFR2	10	9	COOK	372	n/a	n/a	0	0	0
2429.804	n/a	WORD	1214902	wordpools/wasnorm_wordpool_576.txt	LTP287	ltpFR2	10	9	SIDEWALK	1303	n/a	n/a	0	0	0
2432.484	n/a	WORD	1216242	wordpools/wasnorm_wordpool_576.txt	LTP287	ltpFR2	10	9	INMATE	738	n/a	n/a	0	0	0
2434.93	n/a	WORD	1217465	wordpools/wasnorm_wordpool_576.txt	LTP287	ltpFR2	10	9	GARBAGE	622	n/a	n/a	0	0	0
2437.426	n/a	WORD	1218713	wordpools/wasnorm_wordpool_576.txt	LTP287	ltpFR2	10	9	CAMEL	223	n/a	n/a	0	0	0
2439.938	n/a	WORD	1219969	wordpools/wasnorm_wordpool_576.txt	LTP287	ltpFR2	10	9	PEANUT	1032	n/a	n/a	0	0	0
2442.734	n/a	WORD	1221367	wordpools/wasnorm_wordpool_576.txt	LTP287	ltpFR2	10	9	CASHEW	253	n/a	n/a	0	0	0
2445.464	n/a	WORD	1222732	wordpools/wasnorm_wordpool_576.txt	LTP287	ltpFR2	10	9	PRINCE	1124	n/a	n/a	0	0	0
2448.194	n/a	WORD	1224097	wordpools/wasnorm_wordpool_576.txt	LTP287	ltpFR2	10	9	LACE	792	n/a	n/a	0	0	0
2450.74	n/a	WORD	1225370	wordpools/wasnorm_wordpool_576.txt	LTP287	ltpFR2	10	9	MARKER	870	n/a	n/a	0	0	0
2453.352	n/a	WORD	1226676	wordpools/wasnorm_wordpool_576.txt	LTP287	ltpFR2	10	9	ORCHID	982	n/a	n/a	0	0	0
2455.948	n/a	WORD	1227974	wordpools/wasnorm_wordpool_576.txt	LTP287	ltpFR2	10	9	BLENDER	136	n/a	n/a	0	0	0
2458.528	n/a	WORD	1229264	wordpools/wasnorm_wordpool_576.txt	LTP287	ltpFR2	10	9	SUBWAY	1400	n/a	n/a	0	0	0
2460.992	n/a	WORD	1230496	wordpools/wasnorm_wordpool_576.txt	LTP287	ltpFR2	10	9	SHOULDER	1294	n/a	n/a	0	0	0
2463.688	n/a	WORD	1231844	wordpools/wasnorm_wordpool_576.txt	LTP287	ltpFR2	10	9	COTTAGE	384	n/a	n/a	0	0	0
2466.4	n/a	WORD	1233200	wordpools/wasnorm_wordpool_576.txt	LTP287	ltpFR2	10	9	AWARD	63	n/a	n/a	0	0	0
2468.962	n/a	WORD	1234481	wordpools/wasnorm_wordpool_576.txt	LTP287	ltpFR2	10	9	DENTIST	447	n/a	n/a	0	0	0
2471.41	n/a	WORD	1235705	wordpools/wasnorm_wordpool_576.txt	LTP287	ltpFR2	10	9	GARDEN	623	n/a	n/a	0	0	0
2474.222	n/a	WORD	1237111	wordpools/wasnorm_wordpool_576.txt	LTP287	ltpFR2	10	9	KITCHEN	778	n/a	n/a	0	0	0
2475.836	n/a	START	1237918	n/a	LTP287	ltpFR2	10	n/a	n/a	n/a	13	n/a	n/a	n/a	n/a
2477.024	n/a	DISTRACTOR	1238512	n/a	LTP287	ltpFR2	10	9	n/a	n/a	n/a	n/a	0	0	0
2477.034	n/a	PROB	1238517	n/a	LTP287	ltpFR2	10	n/a	n/a	n/a	13	9	1	7	1
2479.064	n/a	PROB	1239532	n/a	LTP287	ltpFR2	10	n/a	n/a	n/a	13	13	7	2	4
2481.294	n/a	PROB	1240647	n/a	LTP287	ltpFR2	10	n/a	n/a	n/a	13	20	3	9	8
2484.108	n/a	PROB	1242054	n/a	LTP287	ltpFR2	10	n/a	n/a	n/a	13	22	9	5	8
2486.304	n/a	PROB	1243152	n/a	LTP287	ltpFR2	10	n/a	n/a	n/a	13	16	6	7	3
2487.918	n/a	PROB	1243959	n/a	LTP287	ltpFR2	10	n/a	n/a	n/a	13	13	3	3	7
2489.332	n/a	PROB	1244666	n/a	LTP287	ltpFR2	10	n/a	n/a	n/a	13	22	4	9	9
2491.18	n/a	PROB	1245590	n/a	LTP287	ltpFR2	10	n/a	n/a	n/a	13	6	1	2	3
2492.362	n/a	PROB	1246181	n/a	LTP287	ltpFR2	10	n/a	n/a	n/a	13	17	2	6	9
2494.026	n/a	PROB	1247013	n/a	LTP287	ltpFR2	10	n/a	n/a	n/a	13	13	5	6	2
2496.172	n/a	PROB	1248086	n/a	LTP287	ltpFR2	10	n/a	n/a	n/a	13	15	4	6	5
2497.636	n/a	PROB	1248818	n/a	LTP287	ltpFR2	10	n/a	n/a	n/a	13	7	3	1	3
2499.384	n/a	STOP	1249692	n/a	LTP287	ltpFR2	10	n/a	n/a	n/a	13	n/a	n/a	n/a	n/a
2501.73	n/a	REC_START	1250865	n/a	LTP287	ltpFR2	10	9	n/a	n/a	n/a	n/a	0	0	0
2502.24	n/a	REC_WORD	1251120	wordpools/wasnorm_wordpool_576.txt	LTP287	ltpFR2	10	9	SHOULDER	1294	n/a	n/a	0	0	0
2503.46	n/a	REC_WORD	1251730	wordpools/wasnorm_wordpool_576.txt	LTP287	ltpFR2	10	9	DENTIST	447	n/a	n/a	0	0	0
2505.666	n/a	REC_WORD	1252833	wordpools/wasnorm_wordpool_576.txt	LTP287	ltpFR2	10	9	AWARD	63	n/a	n/a	0	0	0
2592.414	n/a	WORD	1296207	wordpools/wasnorm_wordpool_576.txt	LTP287	ltpFR2	10	10	OFFICE	972	n/a	n/a	0	0	0
2594.96	n/a	WORD	1297480	wordpools/wasnorm_wordpool_576.txt	LTP287	ltpFR2	10	10	SEAGULL	1261	n/a	n/a	0	0	0
2597.44	n/a	WORD	1298720	wordpools/wasnorm_wordpool_576.txt	LTP287	ltpFR2	10	10	COUNTRY	388	n/a	n/a	0	0	0
2600.052	n/a	WORD	1300026	wordpools/wasnorm_wordpool_576.txt	LTP287	ltpFR2	10	10	SPIDER	1351	n/a	n/a	0	0	0
2602.666	n/a	WORD	1301333	wordpools/wasnorm_wordpool_576.txt	LTP287	ltpFR2	10	10	SPOUSE	1358	n/a	n/a	0	0	0
2605.228	n/a	WORD	1302614	wordpools/wasnorm_wordpool_576.txt	LTP287	ltpFR2	10	10	WIFE	1609	n/a	n/a	0	0	0
2607.906	n/a	WORD	1303953	wordpools/wasnorm_wordpool_576.txt	LTP287	ltpFR2	10	10	BUG	187	n/a	n/a	0	0	0
2610.402	n/a	WORD	1305201	wordpools/wasnorm_wordpool_576.txt	LTP287	ltpFR2	10	10	GROUND	666	n/a	n/a	0	0	0
2613.166	n/a	WORD	1306583	wordpools/wasnorm_wordpool_576.txt	LTP287	ltpFR2	10	10	EUROPE	541	n/a	n/a	0	0	0
2615.662	n/a	WORD	1307831	wordpools/wasnorm_wordpool_576.txt	LTP287	ltpFR2	10	10	STOMACH	1384	n/a	n/a	0	0	0
2618.192	n/a	WORD	1309096	wordpools/wasnorm_wordpool_576.txt	LTP287	ltpFR2	10	10	NEUTRON	947	n/a	n/a	0	0	0
2620.622	n/a	WORD	1310311	wordpools/wasnorm_wordpool_576.txt	LTP287	ltpFR2	10	10	FIREMAN	569	n/a	n/a	0	0	0
2623.418	n/a	WORD	1311709	wordpools/wasnorm_wordpool_576.txt	LTP287	ltpFR2	10	10	DRILL	497	n/a	n/a	0	0	0
2625.88	n/a	WORD	1312940	wordpools/wasnorm_wordpool_576.txt	LTP287	ltpFR2	10	10	BABY	64	n/a	n/a	0	0	0
2628.558	n/a	WORD	1314279	wordpools/wasnorm_wordpool_576.txt	LTP287	ltpFR2	10	10	PLAYGROUND	1087	n/a	n/a	0	0	0
2631.338	n/a	WORD	1315669	wordpools/wasnorm_wordpool_576.txt	LTP287	ltpFR2	10	10	TUTU	1524	n/a	n/a	0	0	0
2634.118	n/a	WORD	1317059	wordpools/wasnorm_wordpool_576.txt	LTP287	ltpFR2	10	10	DAISY	435	n/a	n/a	0	0	0
2636.68	n/a	WORD	1318340	wordpools/wasnorm_wordpool_576.txt	LTP287	ltpFR2	10	10	BOUQUET	157	n/a	n/a	0	0	0
2639.244	n/a	WORD	1319622	wordpools/wasnorm_wordpool_576.txt	LTP287	ltpFR2	10	10	BUREAU	199	n/a	n/a	0	0	0
2641.89	n/a	WORD	1320945	wordpools/wasnorm_wordpool_576.txt	LTP287	ltpFR2	10	10	FRAGRANCE	599	n/a	n/a	0	0	0
2644.552	n/a	WORD	1322276	wordpools/wasnorm_wordpool_576.txt	LTP287	ltpFR2	10	10	SNACK	1331	n/a	n/a	0	0	0
2647.332	n/a	WORD	1323666	wordpools/wasnorm_wordpool_576.txt	LTP287	ltpFR2	10	10	PANTHER	1009	n/a	n/a	0	0	0
2649.862	n/a	WORD	1324931	wordpools/wasnorm_wordpool_576.txt	LTP287	ltpFR2	10	10	BROTHER	179	n/a	n/a	0	0	0
2652.59	n/a	WORD	1326295	wordpools/wasnorm_wordpool_576.txt	LTP287	ltpFR2	10	10	IGLOO	734	n/a	n/a	0	0	0
2654.206	n/a	START	1327103	n/a	LTP287	ltpFR2	10	n/a	n/a	n/a	14	n/a	n/a	n/a	n/a
2655.124	n/a	DISTRACTOR	1327562	n/a	LTP287	ltpFR2	10	10	n/a	n/a	n/a	n/a	0	0	0
2655.138	n/a	PROB	1327569	n/a	LTP287	ltpFR2	10	n/a	n/a	n/a	14	16	7	7	8
2657.118	n/a	PROB	1328559	n/a	LTP287	ltpFR2	10	n/a	n/a	n/a	14	18	6	9	3
2660.962	n/a	PROB	1330481	n/a	LTP287	ltpFR2	10	n/a	n/a	n/a	14	9	5	2	2
2662.276	n/a	PROB	1331138	n/a	LTP287	ltpFR2	10	n/a	n/a	n/a	14	11	7	1	3
2666.338	n/a	PROB	1333169	n/a	LTP287	ltpFR2	10	n/a	n/a	n/a	14	17	6	9	2
2668.252	n/a	PROB	1334126	n/a	LTP287	ltpFR2	10	n/a	n/a	n/a	14	5	1	3	1
2669.2	n/a	PROB	1334600	n/a	LTP287	ltpFR2	10	n/a	n/a	n/a	14	18	9	5	4
2670.764	n/a	PROB	1335382	n/a	LTP287	ltpFR2	10	n/a	n/a	n/a	14	19	9	4	6
2672.162	n/a	PROB	1336081	n/a	LTP287	ltpFR2	10	n/a	n/a	n/a	14	16	9	3	4
2674.458	n/a	PROB	1337229	n/a	LTP287	ltpFR2	10	n/a	n/a	n/a	14	16	7	8	1
2675.956	n/a	PROB	1337978	n/a	LTP287	ltpFR2	10	n/a	n/a	n/a	14	13	6	1	6
2677.94	n/a	STOP	1338970	n/a	LTP287	ltpFR2	10	n/a	n/a	n/a	14	n/a	n/a	n/a	n/a
2680.15	n/a	REC_START	1340075	n/a	LTP287	ltpFR2	10	10	n/a	n/a	n/a	n/a	0	0	0
2681.024	n/a	REC_WORD	1340512	wordpools/wasnorm_wordpool_576.txt	LTP287	ltpFR2	10	10	FIREMAN	569	n/a	n/a	0	0	0
2682.246	n/a	REC_WORD	1341123	wordpools/wasnorm_wordpool_576.txt	LTP287	ltpFR2	10	10	DRILL	497	n/a	n/a	0	0	0
2684.46	n/a	REC_WORD	1342230	wordpools/wasnorm_wordpool_576.txt	LTP287	ltpFR2	10	10	BABY	64	n/a	n/a	0	0	0
2685.106	n/a	REC_WORD	1342553	wordpools/wasnorm_wordpool_576.txt	LTP287	ltpFR2	10	10	PLAYGROUND	1087	n/a	n/a	0	0	0
2691.108	n/a	REC_WORD	1345554	wordpools/wasnorm_wordpool_576.txt	LTP287	ltpFR2	10	10	STOMACH	1384	n/a	n/a	0	0	0
2691.892	n/a	REC_WORD	1345946	wordpools/wasnorm_wordpool_576.txt	LTP287	ltpFR2	10	10	NEUTRON	947	n/a	n/a	0	0	0
2770.816	n/a	WORD	1385408	wordpools/wasnorm_wordpool_576.txt	LTP287	ltpFR2	10	11	ELBOW	520	n/a	n/a	0	0	0
2773.462	n/a	WORD	1386731	wordpools/wasnorm_wordpool_576.txt	LTP287	ltpFR2	10	11	PERCH	1048	n/a	n/a	0	0	0
2776.258	n/a	WORD	1388129	wordpools/wasnorm_wordpool_576.txt	LTP287	ltpFR2	10	11	PLUTO	1092	n/a	n/a	0	0	0
2778.988	n/a	WORD	1389494	wordpools/wasnorm_wordpool_576.txt	LTP287	ltpFR2	10	11	LADY	794	n/a	n/a	0	0	0
2781.716	n/a	WORD	1390858	wordpools/wasnorm_wordpool_576.txt	LTP287	ltpFR2	10	11	COBRA	336	n/a	n/a	0	0	0
2784.446	n/a	WORD	1392223	wordpools/wasnorm_wordpool_576.txt	LTP287	ltpFR2	10	11	SWAMP	1416	n/a	n/a	0	0	0
2787.142	n/a	WORD	1393571	wordpools/wasnorm_wordpool_576.txt	LTP287	ltpFR2	10	11	CLAM	315	n/a	n/a	0	0	0
2789.704	n/a	WORD	1394852	wordpools/wasnorm_wordpool_576.txt	LTP287	ltpFR2	10	11	BADGE	68	n/a	n/a	0	0	0
2792.468	n/a	WORD	1396234	wordpools/wasnorm_wordpool_576.txt	LTP287	ltpFR2	10	11	CORAL	378	n/a	n/a	0	0	0
2795.246	n/a	WORD	1397623	wordpools/wasnorm_wordpool_576.txt	LTP287	ltpFR2	10	11	STICKER	1382	n/a	n/a	0	0	0
2798.042	n/a	WORD	1399021	wordpools/wasnorm_wordpool_576.txt	LTP287	ltpFR2	10	11	LAMP	798	n/a	n/a	0	0	0
2800.672	n/a	WORD	1400336	wordpools/wasnorm_wordpool_576.txt	LTP287	ltpFR2	10	11	SWITCH	1422	n/a	n/a	0	0	0
2803.384	n/a	WORD	1401692	wordpools/wasnorm_wordpool_576.txt	LTP287	ltpFR2	10	11	CREATURE	403	n/a	n/a	0	0	0
2805.948	n/a	WORD	1402974	wordpools/wasnorm_wordpool_576.txt	LTP287	ltpFR2	10	11	MEAT	883	n/a	n/a	0	0	0
2808.542	n/a	WORD	1404271	wordpools/wasnorm_wordpool_576.txt	LTP287	ltpFR2	10	11	POPCORN	1104	n/a	n/a	0	0	0
2811.04	n/a	WORD	1405520	wordpools/wasnorm_wordpool_576.txt	LTP287	ltpFR2	10	11	AGENT	10	n/a	n/a	0	0	0
2813.536	n/a	WORD	1406768	wordpools/wasnorm_wordpool_576.txt	LTP287	ltpFR2	10	11	STATUE	1374	n/a	n/a	0	0	0
2816.132	n/a	WORD	1408066	wordpools/wasnorm_wordpool_576.txt	LTP287	ltpFR2	10	11	CHAPEL	280	n/a	n/a	0	0	0
2818.828	n/a	WORD	1409414	wordpools/wasnorm_wordpool_576.txt	LTP287	ltpFR2	10	11	FEMALE	559	n/a	n/a	0	0	0
2821.49	n/a	WORD	1410745	wordpools/wasnorm_wordpool_576.txt	LTP287	ltpFR2	10	11	LEG	809	n/a	n/a	0	0	0
2824.302	n/a	WORD	1412151	wordpools/wasnorm_wordpool_576.txt	LTP287	ltpFR2	10	11	NECKLACE	940	n/a	n/a	0	0	0
2827.048	n/a	WORD	1413524	wordpools/wasnorm_wordpool_576.txt	LTP287	ltpFR2	10	11	LIPSTICK	829	n/a	n/a	0	0	0
2829.696	n/a	WORD	1414848	wordpools/wasnorm_wordpool_576.txt	LTP287	ltpFR2	10	11	ICEBERG	731	n/a	n/a	0	0	0
2832.124	n/a	WORD	1416062	wordpools/wasnorm_wordpool_576.txt	LTP287	ltpFR2	10	11	FREEZER	604	n/a	n/a	0	0	0
2833.74	n/a	START	1416870	n/a	LTP287	ltpFR2	10	n/a	n/a	n/a	15	n/a	n/a	n/a	n/a
2834.896	n/a	DISTRACTOR	1417448	n/a	LTP287	ltpFR2	10	11	n/a	n/a	n/a	n/a	0	0	0
2834.904	n/a	PROB	1417452	n/a	LTP287	ltpFR2	10	n/a	n/a	n/a	15	8	3	3	2
2836.318	n/a	PROB	1418159	n/a	LTP287	ltpFR2	10	n/a	n/a	n/a	15	9	1	5	3
2838.05	n/a	PROB	1419025	n/a	LTP287	ltpFR2	10	n/a	n/a	n/a	15	14	1	8	5
2840.562	n/a	PROB	1420281	n/a	LTP287	ltpFR2	10	n/a	n/a	n/a	15	11	3	2	6
2842.376	n/a	PROB	1421188	n/a	LTP287	ltpFR2	10	n/a	n/a	n/a	15	12	6	3	3
2843.692	n/a	PROB	1421846	n/a	LTP287	ltpFR2	10	n/a	n/a	n/a	15	13	2	7	4
2845.704	n/a	PROB	1422852	n/a	LTP287	ltpFR2	10	n/a	n/a	n/a	15	11	3	4	4
2847.252	n/a	PROB	1423626	n/a	LTP287	ltpFR2	10	n/a	n/a	n/a	15	19	4	9	6
2848.95	n/a	PROB	1424475	n/a	LTP287	ltpFR2	10	n/a	n/a	n/a	15	16	9	4	3
2850.78	n/a	PROB	1425390	n/a	LTP287	ltpFR2	10	n/a	n/a	n/a	15	15	9	1	5
2852.162	n/a	PROB	1426081	n/a	LTP287	ltpFR2	10	n/a	n/a	n/a	15	13	3	6	4
2853.46	n/a	PROB	1426730	n/a	LTP287	ltpFR2	10	n/a	n/a	n/a	15	16	4	7	5
2857.086	n/a	STOP	1428543	n/a	LTP287	ltpFR2	10	n/a	n/a	n/a	15	n/a	n/a	n/a	n/a
2859.634	n/a	REC_START	1429817	n/a	LTP287	ltpFR2	10	11	n/a	n/a	n/a	n/a	0	0	0
2860.464	n/a	REC_WORD	1430232	wordpools/wasnorm_wordpool_576.txt	LTP287	ltpFR2	10	11	LADY	794	n/a	n/a	0	0	0
2861.496	n/a	REC_WORD	1430748	wordpools/wasnorm_wordpool_576.txt	LTP287	ltpFR2	10	11	FEMALE	559	n/a	n/a	0	0	0
2862.994	n/a	REC_WORD	1431497	wordpools/wasnorm_wordpool_576.txt	LTP287	ltpFR2	10	11	ICEBERG	731	n/a	n/a	0	0	0
2863.858	n/a	REC_WORD	1431929	wordpools/wasnorm_wordpool_576.txt	LTP287	ltpFR2	10	11	FREEZER	604	n/a	n/a	0	0	0
2865.592	n/a	REC_WORD	1432796	wordpools/wasnorm_wordpool_576.txt	LTP287	ltpFR2	10	11	ELBOW	520	n/a	n/a	0	0	0
2883.532	n/a	REC_WORD	1441766	wordpools/wasnorm_wordpool_576.txt	LTP287	ltpFR2	10	11	PLUTO	1092	n/a	n/a	0	0	0
2950.3	n/a	DISTRACTOR	1475150	n/a	LTP287	ltpFR2	10	12	n/a	n/a	n/a	n/a	0	0	0
2950.3	n/a	START	1475150	n/a	LTP287	ltpFR2	10	n/a	n/a	n/a	16	n/a	n/a	n/a	n/a
2950.334	n/a	PROB	1475167	n/a	LTP287	ltpFR2	10	n/a	n/a	n/a	16	16	6	2	8
2951.964	n/a	PROB	1475982	n/a	LTP287	ltpFR2	10	n/a	n/a	n/a	16	18	6	9	3
2954.726	n/a	PROB	1477363	n/a	LTP287	ltpFR2	10	n/a	n/a	n/a	16	24	8	8	8
2956.292	n/a	PROB	1478146	n/a	LTP287	ltpFR2	10	n/a	n/a	n/a	16	13	5	3	5
2957.606	n/a	PROB	1478803	n/a	LTP287	ltpFR2	10	n/a	n/a	n/a	16	20	5	9	6
2961.284	n/a	PROB	1480642	n/a	LTP287	ltpFR2	10	n/a	n/a	n/a	16	18	8	7	3
2962.748	n/a	PROB	1481374	n/a	LTP287	ltpFR2	10	n/a	n/a	n/a	16	16	7	3	6
2963.946	n/a	PROB	1481973	n/a	LTP287	ltpFR2	10	n/a	n/a	n/a	16	17	3	9	5
2965.61	n/a	PROB	1482805	n/a	LTP287	ltpFR2	10	n/a	n/a	n/a	16	12	4	6	2
2968.94	n/a	PROB	1484470	n/a	LTP287	ltpFR2	10	n/a	n/a	n/a	16	13	4	7	2
2971.818	n/a	PROB	1485909	n/a	LTP287	ltpFR2	10	n/a	n/a	n/a	16	15	8	4	3
2973.798	n/a	STOP	1486899	n/a	LTP287	ltpFR2	10	n/a	n/a	n/a	16	n/a	n/a	n/a	n/a
2975.48	n/a	WORD	1487740	wordpools/wasnorm_wordpool_576.txt	LTP287	ltpFR2	10	12	ULCER	1533	n/a	n/a	0	0	0
2978.276	n/a	WORD	1489138	wordpools/wasnorm_wordpool_576.txt	LTP287	ltpFR2	10	12	WHISTLE	1606	n/a	n/a	0	0	0
2980.822	n/a	WORD	1490411	wordpools/wasnorm_wordpool_576.txt	LTP287	ltpFR2	10	12	FINGER	567	n/a	n/a	0	0	0
2983.634	n/a	WORD	1491817	wordpools/wasnorm_wordpool_576.txt	LTP287	ltpFR2	10	12	COUSIN	392	n/a	n/a	0	0	0
2986.43	n/a	WORD	1493215	wordpools/wasnorm_wordpool_576.txt	LTP287	ltpFR2	10	12	HANDBAG	684	n/a	n/a	0	0	0
2989.176	n/a	WORD	1494588	wordpools/wasnorm_wordpool_576.txt	LTP287	ltpFR2	10	12	MONSTER	912	n/a	n/a	0	0	0
2991.956	n/a	WORD	1495978	wordpools/wasnorm_wordpool_576.txt	LTP287	ltpFR2	10	12	PARENT	1013	n/a	n/a	0	0	0
2994.718	n/a	WORD	1497359	wordpools/wasnorm_wordpool_576.txt	LTP287	ltpFR2	10	12	LEOPARD	812	n/a	n/a	0	0	0
2997.298	n/a	WORD	1498649	wordpools/wasnorm_wordpool_576.txt	LTP287	ltpFR2	10	12	OX	994	n/a	n/a	0	0	0
2999.728	n/a	WORD	1499864	wordpools/wasnorm_wordpool_576.txt	LTP287	ltpFR2	10	12	TEMPLE	1448	n/a	n/a	0	0	0
3002.506	n/a	WORD	1501253	wordpools/wasnorm_wordpool_576.txt	LTP287	ltpFR2	10	12	CABBAGE	210	n/a	n/a	0	0	0
3005.286	n/a	WORD	1502643	wordpools/wasnorm_wordpool_576.txt	LTP287	ltpFR2	10	12	MILDEW	893	n/a	n/a	0	0	0
3007.816	n/a	WORD	1503908	wordpools/wasnorm_wordpool_576.txt	LTP287	ltpFR2	10	12	HOOK	715	n/a	n/a	0	0	0
3010.628	n/a	WORD	1505314	wordpools/wasnorm_wordpool_576.txt	LTP287	ltpFR2	10	12	MUFFIN	929	n/a	n/a	0	0	0
3013.44	n/a	WORD	1506720	wordpools/wasnorm_wordpool_576.txt	LTP287	ltpFR2	10	12	FUNGUS	614	n/a	n/a	0	0	0
3016.036	n/a	WORD	1508018	wordpools/wasnorm_wordpool_576.txt	LTP287	ltpFR2	10	12	SLIME	1327	n/a	n/a	0	0	0
3018.832	n/a	WORD	1509416	wordpools/wasnorm_wordpool_576.txt	LTP287	ltpFR2	10	12	XEROX	1628	n/a	n/a	0	0	0
3021.428	n/a	WORD	1510714	wordpools/wasnorm_wordpool_576.txt	LTP287	ltpFR2	10	12	PISTON	1076	n/a	n/a	0	0	0
3024.108	n/a	WORD	1512054	wordpools/wasnorm_wordpool_576.txt	LTP287	ltpFR2	10	12	LONDON	843	n/a	n/a	0	0	0
3026.77	n/a	WORD	1513385	wordpools/wasnorm_wordpool_576.txt	LTP287	ltpFR2	10	12	TOASTER	1472	n/a	n/a	0	0	0
3029.416	n/a	WORD	1514708	wordpools/wasnorm_wordpool_576.txt	LTP287	ltpFR2	10	12	SPHINX	1349	n/a	n/a	0	0	0
3032.112	n/a	WORD	1516056	wordpools/wasnorm_wordpool_576.txt	LTP287	ltpFR2	10	12	ANKLE	24	n/a	n/a	0	0	0
3034.842	n/a	WORD	1517421	wordpools/wasnorm_wordpool_576.txt	LTP287	ltpFR2	10	12	CASHIER	254	n/a	n/a	0	0	0
3037.272	n/a	WORD	1518636	wordpools/wasnorm_wordpool_576.txt	LTP287	ltpFR2	10	12	GANGSTER	620	n/a	n/a	0	0	0
3038.886	n/a	START	1519443	n/a	LTP287	ltpFR2	10	n/a	n/a	n/a	17	n/a	n/a	n/a	n/a
3039.76	n/a	DISTRACTOR	1519880	n/a	LTP287	ltpFR2	10	12	n/a	n/a	n/a	n/a	0	0	0
3039.768	n/a	PROB	1519884	n/a	LTP287	ltpFR2	10	n/a	n/a	n/a	17	10	5	3	2
3041.882	n/a	PROB	1520941	n/a	LTP287	ltpFR2	10	n/a	n/a	n/a	17	17	8	4	3
3043.762	n/a	PROB	1521881	n/a	LTP287	ltpFR2	10	n/a	n/a	n/a	17	9	4	2	3
3047.124	n/a	PROB	1523562	n/a	LTP287	ltpFR2	10	n/a	n/a	n/a	17	23	9	5	9
3050.55	n/a	PROB	1525275	n/a	LTP287	ltpFR2	10	n/a	n/a	n/a	17	8	2	5	1
3052.382	n/a	PROB	1526191	n/a	LTP287	ltpFR2	10	n/a	n/a	n/a	17	7	2	1	4
3054.38	n/a	PROB	1527190	n/a	LTP287	ltpFR2	10	n/a	n/a	n/a	17	12	2	4	6
3056.692	n/a	PROB	1528346	n/a	LTP287	ltpFR2	10	n/a	n/a	n/a	17	22	6	8	8
3058.506	n/a	PROB	1529253	n/a	LTP287	ltpFR2	10	n/a	n/a	n/a	17	15	2	6	7
3060.17	n/a	PROB	1530085	n/a	LTP287	ltpFR2	10	n/a	n/a	n/a	17	18	6	5	7
3061.944	n/a	STOP	1530972	n/a	LTP287	ltpFR2	10	n/a	n/a	n/a	17	n/a	n/a	n/a	n/a
3064.782	n/a	REC_START	1532391	n/a	LTP287	ltpFR2	10	12	n/a	n/a	n/a	n/a	0	0	0
3065.87	n/a	REC_WORD	1532935	wordpools/wasnorm_wordpool_576.txt	LTP287	ltpFR2	10	12	MILDEW	893	n/a	n/a	0	0	0
3066.612	n/a	REC_WORD	1533306	wordpools/wasnorm_wordpool_576.txt	LTP287	ltpFR2	10	12	FUNGUS	614	n/a	n/a	0	0	0
3067.366	n/a	REC_WORD	1533683	wordpools/wasnorm_wordpool_576.txt	LTP287	ltpFR2	10	12	SLIME	1327	n/a	n/a	0	0	0
3068.132	n/a	REC_WORD	1534066	wordpools/wasnorm_wordpool_576.txt	LTP287	ltpFR2	10	12	SPHINX	1349	n/a	n/a	0	0	0
3070.266	n/a	REC_WORD	1535133	wordpools/wasnorm_wordpool_576.txt	LTP287	ltpFR2	10	12	CABBAGE	210	n/a	n/a	0	0	0
3155.512	n/a	WORD	1577756	wordpools/wasnorm_wordpool_576.txt	LTP287	ltpFR2	10	13	RACKET	1155	n/a	n/a	0	0	0
3157.992	n/a	WORD	1578996	wordpools/wasnorm_wordpool_576.txt	LTP287	ltpFR2	10	13	TYPIST	1532	n/a	n/a	0	0	0
3160.49	n/a	WORD	1580245	wordpools/wasnorm_wordpool_576.txt	LTP287	ltpFR2	10	13	MARSH	874	n/a	n/a	0	0	0
3163.102	n/a	WORD	1581551	wordpools/wasnorm_wordpool_576.txt	LTP287	ltpFR2	10	13	SUNSET	1408	n/a	n/a	0	0	0
3165.682	n/a	WORD	1582841	wordpools/wasnorm_wordpool_576.txt	LTP287	ltpFR2	10	13	FOREST	593	n/a	n/a	0	0	0
3168.428	n/a	WORD	1584214	wordpools/wasnorm_wordpool_576.txt	LTP287	ltpFR2	10	13	PUDDING	1139	n/a	n/a	0	0	0
3171.24	n/a	WORD	1585620	wordpools/wasnorm_wordpool_576.txt	LTP287	ltpFR2	10	13	TART	1436	n/a	n/a	0	0	0
3173.82	n/a	WORD	1586910	wordpools/wasnorm_wordpool_576.txt	LTP287	ltpFR2	10	13	JELLO	754	n/a	n/a	0	0	0
3176.332	n/a	WORD	1588166	wordpools/wasnorm_wordpool_576.txt	LTP287	ltpFR2	10	13	RADISH	1158	n/a	n/a	0	0	0
3179.062	n/a	WORD	1589531	wordpools/wasnorm_wordpool_576.txt	LTP287	ltpFR2	10	13	CARROT	249	n/a	n/a	0	0	0
3181.674	n/a	WORD	1590837	wordpools/wasnorm_wordpool_576.txt	LTP287	ltpFR2	10	13	BODY	145	n/a	n/a	0	0	0
3184.47	n/a	WORD	1592235	wordpools/wasnorm_wordpool_576.txt	LTP287	ltpFR2	10	13	DANDRUFF	439	n/a	n/a	0	0	0
3187.184	n/a	WORD	1593592	wordpools/wasnorm_wordpool_576.txt	LTP287	ltpFR2	10	13	ASIA	46	n/a	n/a	0	0	0
3189.796	n/a	WORD	1594898	wordpools/wasnorm_wordpool_576.txt	LTP287	ltpFR2	10	13	SOFTBALL	1343	n/a	n/a	0	0	0
3192.426	n/a	WORD	1596213	wordpools/wasnorm_wordpool_576.txt	LTP287	ltpFR2	10	13	CATCHER	258	n/a	n/a	0	0	0
3195.222	n/a	WORD	1597611	wordpools/wasnorm_wordpool_576.txt	LTP287	ltpFR2	10	13	CUSTARD	429	n/a	n/a	0	0	0
3198.018	n/a	WORD	1599009	wordpools/wasnorm_wordpool_576.txt	LTP287	ltpFR2	10	13	ZIPPER	1636	n/a	n/a	0	0	0
3200.664	n/a	WORD	1600332	wordpools/wasnorm_wordpool_576.txt	LTP287	ltpFR2	10	13	TILE	1468	n/a	n/a	0	0	0
3203.26	n/a	WORD	1601630	wordpools/wasnorm_wordpool_576.txt	LTP287	ltpFR2	10	13	POISON	1096	n/a	n/a	0	0	0
3205.84	n/a	WORD	1602920	wordpools/wasnorm_wordpool_576.txt	LTP287	ltpFR2	10	13	BRICK	172	n/a	n/a	0	0	0
3208.468	n/a	WORD	1604234	wordpools/wasnorm_wordpool_576.txt	LTP287	ltpFR2	10	13	WHISKERS	1605	n/a	n/a	0	0	0
3211.032	n/a	WORD	1605516	wordpools/wasnorm_wordpool_576.txt	LTP287	ltpFR2	10	13	PIGEON	1065	n/a	n/a	0	0	0
3213.494	n/a	WORD	1606747	wordpools/wasnorm_wordpool_576.txt	LTP287	ltpFR2	10	13	GLASS	639	n/a	n/a	0	0	0
3216.24	n/a	WORD	1608120	wordpools/wasnorm_wordpool_576.txt	LTP287	ltpFR2	10	13	CANAL	226	n/a	n/a	0	0	0
3217.854	n/a	START	1608927	n/a	LTP287	ltpFR2	10	n/a	n/a	n/a	18	n/a	n/a	n/a	n/a
3218.718	n/a	DISTRACTOR	1609359	n/a	LTP287	ltpFR2	10	13	n/a	n/a	n/a	n/a	0	0	0
3218.72	n/a	PROB	1609360	n/a	LTP287	ltpFR2	10	n/a	n/a	n/a	18	13	4	6	3
3221.766	n/a	PROB	1610883	n/a	LTP287	ltpFR2	10	n/a	n/a	n/a	18	14	5	3	6
3225.178	n/a	PROB	1612589	n/a	LTP287	ltpFR2	10	n/a	n/a	n/a	18	19	7	6	6
3227.424	n/a	PROB	1613712	n/a	LTP287	ltpFR2	10	n/a	n/a	n/a	18	13	3	4	6
3228.838	n/a	PROB	1614419	n/a	LTP287	ltpFR2	10	n/a	n/a	n/a	18	17	1	9	7
3230.254	n/a	PROB	1615127	n/a	LTP287	ltpFR2	10	n/a	n/a	n/a	18	11	4	1	6
3231.484	n/a	PROB	1615742	n/a	LTP287	ltpFR2	10	n/a	n/a	n/a	18	13	1	8	4
3234.114	n/a	PROB	1617057	n/a	LTP287	ltpFR2	10	n/a	n/a	n/a	18	20	7	4	9
3237.276	n/a	PROB	1618638	n/a	LTP287	ltpFR2	10	n/a	n/a	n/a	18	10	1	6	3
3239.072	n/a	PROB	1619536	n/a	LTP287	ltpFR2	10	n/a	n/a	n/a	18	12	5	5	2
3240.304	n/a	PROB	1620152	n/a	LTP287	ltpFR2	10	n/a	n/a	n/a	18	10	4	3	3
3241.642	n/a	STOP	1620821	n/a	LTP287	ltpFR2	10	n/a	n/a	n/a	18	n/a	n/a	n/a	n/a
3243.682	n/a	REC_START	1621841	n/a	LTP287	ltpFR2	10	13	n/a	n/a	n/a	n/a	0	0	0
3265.864	n/a	REC_WORD_VV	1632932	wordpools/wasnorm_wordpool_576.txt	LTP287	ltpFR2	10	13	<>	-1	n/a	n/a	0	0	0
3267.538	n/a	REC_WORD	1633769	wordpools/wasnorm_wordpool_576.txt	LTP287	ltpFR2	10	13	TILE	1468	n/a	n/a	0	0	0
3334.35	n/a	DISTRACTOR	1667175	n/a	LTP287	ltpFR2	10	14	n/a	n/a	n/a	n/a	0	0	0
3334.35	n/a	START	1667175	n/a	LTP287	ltpFR2	10	n/a	n/a	n/a	19	n/a	n/a	n/a	n/a
3334.382	n/a	PROB	1667191	n/a	LTP287	ltpFR2	10	n/a	n/a	n/a	19	19	8	6	5
3336.712	n/a	PROB	1668356	n/a	LTP287	ltpFR2	10	n/a	n/a	n/a	19	10	4	1	5
3338.194	n/a	PROB	1669097	n/a	LTP287	ltpFR2	10	n/a	n/a	n/a	19	13	5	3	5
3339.358	n/a	PROB	1669679	n/a	LTP287	ltpFR2	10	n/a	n/a	n/a	19	14	5	8	1
3340.856	n/a	PROB	1670428	n/a	LTP287	ltpFR2	10	n/a	n/a	n/a	19	16	9	1	6
3342.036	n/a	PROB	1671018	n/a	LTP287	ltpFR2	10	n/a	n/a	n/a	19	12	3	5	4
3343.918	n/a	PROB	1671959	n/a	LTP287	ltpFR2	10	n/a	n/a	n/a	19	22	9	6	7
3346.912	n/a	PROB	1673456	n/a	LTP287	ltpFR2	10	n/a	n/a	n/a	19	17	9	6	2
3351.472	n/a	PROB	1675736	n/a	LTP287	ltpFR2	10	n/a	n/a	n/a	19	16	3	7	6
3352.754	n/a	PROB	1676377	n/a	LTP287	ltpFR2	10	n/a	n/a	n/a	19	14	7	1	6
3355.15	n/a	PROB	1677575	n/a	LTP287	ltpFR2	10	n/a	n/a	n/a	19	11	1	7	3
3357.132	n/a	STOP	1678566	n/a	LTP287	ltpFR2	10	n/a	n/a	n/a	19	n/a	n/a	n/a	n/a
3359.444	n/a	WORD	1679722	wordpools/wasnorm_wordpool_576.txt	LTP287	ltpFR2	10	14	HEADBAND	696	n/a	n/a	0	0	0
3361.874	n/a	WORD	1680937	wordpools/wasnorm_wordpool_576.txt	LTP287	ltpFR2	10	14	MARINE	869	n/a	n/a	0	0	0
3364.42	n/a	WORD	1682210	wordpools/wasnorm_wordpool_576.txt	LTP287	ltpFR2	10	14	BROOK	177	n/a	n/a	0	0	0
3366.866	n/a	WORD	1683433	wordpools/wasnorm_wordpool_576.txt	LTP287	ltpFR2	10	14	AIRPLANE	12	n/a	n/a	0	0	0
3369.364	n/a	WORD	1684682	wordpools/wasnorm_wordpool_576.txt	LTP287	ltpFR2	10	14	SHOVEL	1295	n/a	n/a	0	0	0
3372.01	n/a	WORD	1686005	wordpools/wasnorm_wordpool_576.txt	LTP287	ltpFR2	10	14	TRENCH	1503	n/a	n/a	0	0	0
3374.672	n/a	WORD	1687336	wordpools/wasnorm_wordpool_576.txt	LTP287	ltpFR2	10	14	SCALLOP	1242	n/a	n/a	0	0	0
3377.402	n/a	WORD	1688701	wordpools/wasnorm_wordpool_576.txt	LTP287	ltpFR2	10	14	FLESH	579	n/a	n/a	0	0	0
3380.014	n/a	WORD	1690007	wordpools/wasnorm_wordpool_576.txt	LTP287	ltpFR2	10	14	CHURCH	307	n/a	n/a	0	0	0
3382.776	n/a	WORD	1691388	wordpools/wasnorm_wordpool_576.txt	LTP287	ltpFR2	10	14	BLACKBOARD	133	n/a	n/a	0	0	0
3385.306	n/a	WORD	1692653	wordpools/wasnorm_wordpool_576.txt	LTP287	ltpFR2	10	14	COURSE	390	n/a	n/a	0	0	0
3387.786	n/a	WORD	1693893	wordpools/wasnorm_wordpool_576.txt	LTP287	ltpFR2	10	14	SCISSORS	1250	n/a	n/a	0	0	0
3390.266	n/a	WORD	1695133	wordpools/wasnorm_wordpool_576.txt	LTP287	ltpFR2	10	14	ANTLER	29	n/a	n/a	0	0	0
3392.996	n/a	WORD	1696498	wordpools/wasnorm_wordpool_576.txt	LTP287	ltpFR2	10	14	GAZELLE	628	n/a	n/a	0	0	0
3395.774	n/a	WORD	1697887	wordpools/wasnorm_wordpool_576.txt	LTP287	ltpFR2	10	14	QUEEN	1149	n/a	n/a	0	0	0
3398.47	n/a	WORD	1699235	wordpools/wasnorm_wordpool_576.txt	LTP287	ltpFR2	10	14	PARROT	1015	n/a	n/a	0	0	0
3400.9	n/a	WORD	1700450	wordpools/wasnorm_wordpool_576.txt	LTP287	ltpFR2	10	14	VAGRANT	1544	n/a	n/a	0	0	0
3403.446	n/a	WORD	1701723	wordpools/wasnorm_wordpool_576.txt	LTP287	ltpFR2	10	14	BELLY	119	n/a	n/a	0	0	0
3406.042	n/a	WORD	1703021	wordpools/wasnorm_wordpool_576.txt	LTP287	ltpFR2	10	14	RECEIPT	1173	n/a	n/a	0	0	0
3408.606	n/a	WORD	1704303	wordpools/wasnorm_wordpool_576.txt	LTP287	ltpFR2	10	14	RAFT	1159	n/a	n/a	0	0	0
3411.186	n/a	WORD	1705593	wordpools/wasnorm_wordpool_576.txt	LTP287	ltpFR2	10	14	COMPASS	358	n/a	n/a	0	0	0
3413.98	n/a	WORD	1706990	wordpools/wasnorm_wordpool_576.txt	LTP287	ltpFR2	10	14	LAGOON	795	n/a	n/a	0	0	0
3416.66	n/a	WORD	1708330	wordpools/wasnorm_wordpool_576.txt	LTP287	ltpFR2	10	14	COLONEL	348	n/a	n/a	0	0	0
3419.34	n/a	WORD	1709670	wordpools/wasnorm_wordpool_576.txt	LTP287	ltpFR2	10	14	CRAB	397	n/a	n/a	0	0	0
3420.954	n/a	START	1710477	n/a	LTP287	ltpFR2	10	n/a	n/a	n/a	20	n/a	n/a	n/a	n/a
3422.142	n/a	DISTRACTOR	1711071	n/a	LTP287	ltpFR2	10	14	n/a	n/a	n/a	n/a	0	0	0
3422.152	n/a	PROB	1711076	n/a	LTP287	ltpFR2	10	n/a	n/a	n/a	20	13	8	2	3
3423.816	n/a	PROB	1711908	n/a	LTP287	ltpFR2	10	n/a	n/a	n/a	20	12	1	4	7
3425.896	n/a	PROB	1712948	n/a	LTP287	ltpFR2	10	n/a	n/a	n/a	20	20	8	4	8
3427.428	n/a	PROB	1713714	n/a	LTP287	ltpFR2	10	n/a	n/a	n/a	20	18	1	8	9
3428.876	n/a	PROB	1714438	n/a	LTP287	ltpFR2	10	n/a	n/a	n/a	20	20	4	7	9
3431.14	n/a	PROB	1715570	n/a	LTP287	ltpFR2	10	n/a	n/a	n/a	20	20	7	6	7
3432.786	n/a	PROB	1716393	n/a	LTP287	ltpFR2	10	n/a	n/a	n/a	20	14	2	6	6
3434.6	n/a	PROB	1717300	n/a	LTP287	ltpFR2	10	n/a	n/a	n/a	20	10	3	3	4
3436.68	n/a	PROB	1718340	n/a	LTP287	ltpFR2	10	n/a	n/a	n/a	20	12	1	5	6
3438.196	n/a	PROB	1719098	n/a	LTP287	ltpFR2	10	n/a	n/a	n/a	20	21	7	8	6
3440.426	n/a	PROB	1720213	n/a	LTP287	ltpFR2	10	n/a	n/a	n/a	20	12	4	7	1
3444.954	n/a	STOP	1722477	n/a	LTP287	ltpFR2	10	n/a	n/a	n/a	20	n/a	n/a	n/a	n/a
3446.734	n/a	REC_START	1723367	n/a	LTP287	ltpFR2	10	14	n/a	n/a	n/a	n/a	0	0	0
3447.356	n/a	REC_WORD	1723678	wordpools/wasnorm_wordpool_576.txt	LTP287	ltpFR2	10	14	VAGRANT	1544	n/a	n/a	0	0	0
3475.866	n/a	REC_WORD	1737933	wordpools/wasnorm_wordpool_576.txt	LTP287	ltpFR2	10	14	ANTLER	29	n/a	n/a	0	0	0
3537.382	n/a	DISTRACTOR	1768691	n/a	LTP287	ltpFR2	10	15	n/a	n/a	n/a	n/a	0	0	0
3537.382	n/a	START	1768691	n/a	LTP287	ltpFR2	10	n/a	n/a	n/a	21	n/a	n/a	n/a	n/a
3537.416	n/a	PROB	1768708	n/a	LTP287	ltpFR2	10	n/a	n/a	n/a	21	10	5	2	3
3539.528	n/a	PROB	1769764	n/a	LTP287	ltpFR2	10	n/a	n/a	n/a	21	14	7	4	3
3541.094	n/a	PROB	1770547	n/a	LTP287	ltpFR2	10	n/a	n/a	n/a	21	13	3	4	6
3542.64	n/a	PROB	1771320	n/a	LTP287	ltpFR2	10	n/a	n/a	n/a	21	17	4	5	8
3544.472	n/a	PROB	1772236	n/a	LTP287	ltpFR2	10	n/a	n/a	n/a	21	8	1	1	6
3545.604	n/a	PROB	1772802	n/a	LTP287	ltpFR2	10	n/a	n/a	n/a	21	13	6	6	1
3546.768	n/a	PROB	1773384	n/a	LTP287	ltpFR2	10	n/a	n/a	n/a	21	10	5	3	2
3548.564	n/a	PROB	1774282	n/a	LTP287	ltpFR2	10	n/a	n/a	n/a	21	17	3	5	9
3550.594	n/a	PROB	1775297	n/a	LTP287	ltpFR2	10	n/a	n/a	n/a	21	12	2	6	4
3552.044	n/a	PROB	1776022	n/a	LTP287	ltpFR2	10	n/a	n/a	n/a	21	22	9	6	7
3554.19	n/a	PROB	1777095	n/a	LTP287	ltpFR2	10	n/a	n/a	n/a	21	10	8	1	1
3555.372	n/a	PROB	1777686	n/a	LTP287	ltpFR2	10	n/a	n/a	n/a	21	10	4	4	2
3557.118	n/a	PROB	1778559	n/a	LTP287	ltpFR2	10	n/a	n/a	n/a	21	17	2	9	6
3560.062	n/a	STOP	1780031	n/a	LTP287	ltpFR2	10	n/a	n/a	n/a	21	n/a	n/a	n/a	n/a
3562.51	n/a	WORD	1781255	wordpools/wasnorm_wordpool_576.txt	LTP287	ltpFR2	10	15	BUTCHER	203	n/a	n/a	0	0	0
3565.124	n/a	WORD	1782562	wordpools/wasnorm_wordpool_576.txt	LTP287	ltpFR2	10	15	HORSE	719	n/a	n/a	0	0	0
3567.886	n/a	WORD	1783943	wordpools/wasnorm_wordpool_576.txt	LTP287	ltpFR2	10	15	SANDWICH	1232	n/a	n/a	0	0	0
3570.432	n/a	WORD	1785216	wordpools/wasnorm_wordpool_576.txt	LTP287	ltpFR2	10	15	PLAID	1080	n/a	n/a	0	0	0
3573.194	n/a	WORD	1786597	wordpools/wasnorm_wordpool_576.txt	LTP287	ltpFR2	10	15	GRILL	661	n/a	n/a	0	0	0
3575.924	n/a	WORD	1787962	wordpools/wasnorm_wordpool_576.txt	LTP287	ltpFR2	10	15	SWIMMER	1420	n/a	n/a	0	0	0
3578.37	n/a	WORD	1789185	wordpools/wasnorm_wordpool_576.txt	LTP287	ltpFR2	10	15	LAKE	796	n/a	n/a	0	0	0
3580.984	n/a	WORD	1790492	wordpools/wasnorm_wordpool_576.txt	LTP287	ltpFR2	10	15	BOX	159	n/a	n/a	0	0	0
3583.546	n/a	WORD	1791773	wordpools/wasnorm_wordpool_576.txt	LTP287	ltpFR2	10	15	SADDLE	1221	n/a	n/a	0	0	0
3586.258	n/a	WORD	1793129	wordpools/wasnorm_wordpool_576.txt	LTP287	ltpFR2	10	15	BINDER	127	n/a	n/a	0	0	0
3588.872	n/a	WORD	1794436	wordpools/wasnorm_wordpool_576.txt	LTP287	ltpFR2	10	15	CHILD	299	n/a	n/a	0	0	0
3591.418	n/a	WORD	1795709	wordpools/wasnorm_wordpool_576.txt	LTP287	ltpFR2	10	15	DAUGHTER	442	n/a	n/a	0	0	0
3593.882	n/a	WORD	1796941	wordpools/wasnorm_wordpool_576.txt	LTP287	ltpFR2	10	15	UNCLE	1536	n/a	n/a	0	0	0
3596.344	n/a	WORD	1798172	wordpools/wasnorm_wordpool_576.txt	LTP287	ltpFR2	10	15	SHORTCAKE	1292	n/a	n/a	0	0	0
3598.99	n/a	WORD	1799495	wordpools/wasnorm_wordpool_576.txt	LTP287	ltpFR2	10	15	ROBOT	1200	n/a	n/a	0	0	0
3601.786	n/a	WORD	1800893	wordpools/wasnorm_wordpool_576.txt	LTP287	ltpFR2	10	15	RIVER	1194	n/a	n/a	0	0	0
3604.548	n/a	WORD	1802274	wordpools/wasnorm_wordpool_576.txt	LTP287	ltpFR2	10	15	SPONGE	1355	n/a	n/a	0	0	0
3607.028	n/a	WORD	1803514	wordpools/wasnorm_wordpool_576.txt	LTP287	ltpFR2	10	15	BEAKER	104	n/a	n/a	0	0	0
3609.458	n/a	WORD	1804729	wordpools/wasnorm_wordpool_576.txt	LTP287	ltpFR2	10	15	PORTRAIT	1111	n/a	n/a	0	0	0
3612.004	n/a	WORD	1806002	wordpools/wasnorm_wordpool_576.txt	LTP287	ltpFR2	10	15	JUNGLE	764	n/a	n/a	0	0	0
3614.818	n/a	WORD	1807409	wordpools/wasnorm_wordpool_576.txt	LTP287	ltpFR2	10	15	TROMBONE	1508	n/a	n/a	0	0	0
3617.28	n/a	WORD	1808640	wordpools/wasnorm_wordpool_576.txt	LTP287	ltpFR2	10	15	HAWK	692	n/a	n/a	0	0	0
3619.91	n/a	WORD	1809955	wordpools/wasnorm_wordpool_576.txt	LTP287	ltpFR2	10	15	GAVEL	627	n/a	n/a	0	0	0
3622.356	n/a	WORD	1811178	wordpools/wasnorm_wordpool_576.txt	LTP287	ltpFR2	10	15	PROTON	1132	n/a	n/a	0	0	0
3623.97	n/a	START	1811985	n/a	LTP287	ltpFR2	10	n/a	n/a	n/a	22	n/a	n/a	n/a	n/a
3625.108	n/a	DISTRACTOR	1812554	n/a	LTP287	ltpFR2	10	15	n/a	n/a	n/a	n/a	0	0	0
3625.118	n/a	PROB	1812559	n/a	LTP287	ltpFR2	10	n/a	n/a	n/a	22	12	9	2	1
3628.348	n/a	PROB	1814174	n/a	LTP287	ltpFR2	10	n/a	n/a	n/a	22	15	7	6	2
3630.844	n/a	PROB	1815422	n/a	LTP287	ltpFR2	10	n/a	n/a	n/a	22	8	2	5	1
3632.674	n/a	PROB	1816337	n/a	LTP287	ltpFR2	10	n/a	n/a	n/a	22	15	1	7	7
3634.172	n/a	PROB	1817086	n/a	LTP287	ltpFR2	10	n/a	n/a	n/a	22	17	9	2	6
3636.55	n/a	PROB	1818275	n/a	LTP287	ltpFR2	10	n/a	n/a	n/a	22	18	5	8	5
3637.966	n/a	PROB	1818983	n/a	LTP287	ltpFR2	10	n/a	n/a	n/a	22	19	9	8	2
3639.53	n/a	PROB	1819765	n/a	LTP287	ltpFR2	10	n/a	n/a	n/a	22	7	1	1	5
3641.028	n/a	PROB	1820514	n/a	LTP287	ltpFR2	10	n/a	n/a	n/a	22	17	7	4	6
3643.292	n/a	PROB	1821646	n/a	LTP287	ltpFR2	10	n/a	n/a	n/a	22	10	3	3	4
3644.706	n/a	PROB	1822353	n/a	LTP287	ltpFR2	10	n/a	n/a	n/a	22	18	2	8	8
3646.84	n/a	STOP	1823420	n/a	LTP287	ltpFR2	10	n/a	n/a	n/a	22	n/a	n/a	n/a	n/a
3649.9	n/a	REC_START	1824950	n/a	LTP287	ltpFR2	10	15	n/a	n/a	n/a	n/a	0	0	0
3650.576	n/a	REC_WORD	1825288	wordpools/wasnorm_wordpool_576.txt	LTP287	ltpFR2	10	15	RIVER	1194	n/a	n/a	0	0	0
3654.232	n/a	REC_WORD	1827116	wordpools/wasnorm_wordpool_576.txt	LTP287	ltpFR2	10	15	SPONGE	1355	n/a	n/a	0	0	0
3655.222	n/a	REC_WORD	1827611	wordpools/wasnorm_wordpool_576.txt	LTP287	ltpFR2	10	15	BEAKER	104	n/a	n/a	0	0	0
3740.564	n/a	WORD	1870282	wordpools/wasnorm_wordpool_576.txt	LTP287	ltpFR2	10	16	HATCHET	691	n/a	n/a	0	0	0
3743.244	n/a	WORD	1871622	wordpools/wasnorm_wordpool_576.txt	LTP287	ltpFR2	10	16	GHETTO	633	n/a	n/a	0	0	0
3745.806	n/a	WORD	1872903	wordpools/wasnorm_wordpool_576.txt	LTP287	ltpFR2	10	16	THRONE	1461	n/a	n/a	0	0	0
3748.552	n/a	WORD	1874276	wordpools/wasnorm_wordpool_576.txt	LTP287	ltpFR2	10	16	PADDING	999	n/a	n/a	0	0	0
3751.282	n/a	WORD	1875641	wordpools/wasnorm_wordpool_576.txt	LTP287	ltpFR2	10	16	CARRIAGE	248	n/a	n/a	0	0	0
3753.978	n/a	WORD	1876989	wordpools/wasnorm_wordpool_576.txt	LTP287	ltpFR2	10	16	SEAL	1262	n/a	n/a	0	0	0
3756.69	n/a	WORD	1878345	wordpools/wasnorm_wordpool_576.txt	LTP287	ltpFR2	10	16	POSSUM	1112	n/a	n/a	0	0	0
3759.42	n/a	WORD	1879710	wordpools/wasnorm_wordpool_576.txt	LTP287	ltpFR2	10	16	OINTMENT	974	n/a	n/a	0	0	0
3761.866	n/a	WORD	1880933	wordpools/wasnorm_wordpool_576.txt	LTP287	ltpFR2	10	16	LILY	821	n/a	n/a	0	0	0
3764.378	n/a	WORD	1882189	wordpools/wasnorm_wordpool_576.txt	LTP287	ltpFR2	10	16	SUITCASE	1403	n/a	n/a	0	0	0
3767.092	n/a	WORD	1883546	wordpools/wasnorm_wordpool_576.txt	LTP287	ltpFR2	10	16	STALLION	1369	n/a	n/a	0	0	0
3769.804	n/a	WORD	1884902	wordpools/wasnorm_wordpool_576.txt	LTP287	ltpFR2	10	16	ARM	38	n/a	n/a	0	0	0
3772.35	n/a	WORD	1886175	wordpools/wasnorm_wordpool_576.txt	LTP287	ltpFR2	10	16	APRON	35	n/a	n/a	0	0	0
3774.946	n/a	WORD	1887473	wordpools/wasnorm_wordpool_576.txt	LTP287	ltpFR2	10	16	DENIM	446	n/a	n/a	0	0	0
3777.726	n/a	WORD	1888863	wordpools/wasnorm_wordpool_576.txt	LTP287	ltpFR2	10	16	MOTEL	919	n/a	n/a	0	0	0
3780.188	n/a	WORD	1890094	wordpools/wasnorm_wordpool_576.txt	LTP287	ltpFR2	10	16	BULLET	194	n/a	n/a	0	0	0
3782.634	n/a	WORD	1891317	wordpools/wasnorm_wordpool_576.txt	LTP287	ltpFR2	10	16	LEADER	807	n/a	n/a	0	0	0
3785.232	n/a	WORD	1892616	wordpools/wasnorm_wordpool_576.txt	LTP287	ltpFR2	10	16	PUPIL	1143	n/a	n/a	0	0	0
3787.928	n/a	WORD	1893964	wordpools/wasnorm_wordpool_576.txt	LTP287	ltpFR2	10	16	COLLEGE	346	n/a	n/a	0	0	0
3790.374	n/a	WORD	1895187	wordpools/wasnorm_wordpool_576.txt	LTP287	ltpFR2	10	16	HELMET	702	n/a	n/a	0	0	0
3793.036	n/a	WORD	1896518	wordpools/wasnorm_wordpool_576.txt	LTP287	ltpFR2	10	16	PEDAL	1037	n/a	n/a	0	0	0
3795.466	n/a	WORD	1897733	wordpools/wasnorm_wordpool_576.txt	LTP287	ltpFR2	10	16	SERVANT	1271	n/a	n/a	0	0	0
3798.012	n/a	WORD	1899006	wordpools/wasnorm_wordpool_576.txt	LTP287	ltpFR2	10	16	CRICKET	408	n/a	n/a	0	0	0
3800.676	n/a	WORD	1900338	wordpools/wasnorm_wordpool_576.txt	LTP287	ltpFR2	10	16	CUPBOARD	425	n/a	n/a	0	0	0
3802.29	n/a	START	1901145	n/a	LTP287	ltpFR2	10	n/a	n/a	n/a	23	n/a	n/a	n/a	n/a
3803.172	n/a	DISTRACTOR	1901586	n/a	LTP287	ltpFR2	10	16	n/a	n/a	n/a	n/a	0	0	0
3803.188	n/a	PROB	1901594	n/a	LTP287	ltpFR2	10	n/a	n/a	n/a	23	6	1	4	1
3805.002	n/a	PROB	1902501	n/a	LTP287	ltpFR2	10	n/a	n/a	n/a	23	10	2	3	5
3806.35	n/a	PROB	1903175	n/a	LTP287	ltpFR2	10	n/a	n/a	n/a	23	14	4	8	3
3808.962	n/a	PROB	1904481	n/a	LTP287	ltpFR2	10	n/a	n/a	n/a	23	19	7	9	3
3812.54	n/a	PROB	1906270	n/a	LTP287	ltpFR2	10	n/a	n/a	n/a	23	17	4	4	9
3813.806	n/a	PROB	1906903	n/a	LTP287	ltpFR2	10	n/a	n/a	n/a	23	12	9	2	1
3815.852	n/a	PROB	1907926	n/a	LTP287	ltpFR2	10	n/a	n/a	n/a	23	20	7	9	4
3820.096	n/a	PROB	1910048	n/a	LTP287	ltpFR2	10	n/a	n/a	n/a	23	20	3	8	9
3822.526	n/a	PROB	1911263	n/a	LTP287	ltpFR2	10	n/a	n/a	n/a	23	13	1	6	6
3826.29	n/a	STOP	1913145	n/a	LTP287	ltpFR2	10	n/a	n/a	n/a	23	n/a	n/a	n/a	n/a
3828.152	n/a	REC_START	1914076	n/a	LTP287	ltpFR2	10	16	n/a	n/a	n/a	n/a	0	0	0
3831.49	n/a	REC_WORD	1915745	wordpools/wasnorm_wordpool_576.txt	LTP287	ltpFR2	10	16	PEDAL	1037	n/a	n/a	0	0	0
3832.286	n/a	REC_WORD	1916143	wordpools/wasnorm_wordpool_576.txt	LTP287	ltpFR2	10	16	CRICKET	408	n/a	n/a	0	0	0
3839.622	n/a	REC_WORD	1919811	wordpools/wasnorm_wordpool_576.txt	LTP287	ltpFR2	10	16	GHETTO	633	n/a	n/a	0	0	0
3840.084	n/a	REC_WORD	1920042	wordpools/wasnorm_wordpool_576.txt	LTP287	ltpFR2	10	16	HATCHET	691	n/a	n/a	0	0	0
3904.788	n/a	REST_REWET	1952394	n/a	LTP287	ltpFR2	10	16	n/a	n/a	n/a	n/a	0	0	0
4125.278	n/a	DISTRACTOR	2062639	n/a	LTP287	ltpFR2	10	17	n/a	n/a	n/a	n/a	0	0	0
4125.278	n/a	START	2062639	n/a	LTP287	ltpFR2	10	n/a	n/a	n/a	24	n/a	n/a	n/a	n/a
4125.312	n/a	PROB	2062656	n/a	LTP287	ltpFR2	10	n/a	n/a	n/a	24	19	7	5	7
4128.29	n/a	PROB	2064145	n/a	LTP287	ltpFR2	10	n/a	n/a	n/a	24	15	9	3	3
4129.872	n/a	PROB	2064936	n/a	LTP287	ltpFR2	10	n/a	n/a	n/a	24	15	8	1	6
4131.686	n/a	PROB	2065843	n/a	LTP287	ltpFR2	10	n/a	n/a	n/a	24	12	2	6	4
4134.216	n/a	PROB	2067108	n/a	LTP287	ltpFR2	10	n/a	n/a	n/a	24	10	6	3	1
4135.996	n/a	PROB	2067998	n/a	LTP287	ltpFR2	10	n/a	n/a	n/a	24	8	5	1	2
4138.574	n/a	PROB	2069287	n/a	LTP287	ltpFR2	10	n/a	n/a	n/a	24	11	4	4	3
4140.24	n/a	PROB	2070120	n/a	LTP287	ltpFR2	10	n/a	n/a	n/a	24	20	4	8	8
4141.804	n/a	PROB	2070902	n/a	LTP287	ltpFR2	10	n/a	n/a	n/a	24	19	4	8	7
4143.95	n/a	PROB	2071975	n/a	LTP287	ltpFR2	10	n/a	n/a	n/a	24	12	4	5	3
4145.664	n/a	PROB	2072832	n/a	LTP287	ltpFR2	10	n/a	n/a	n/a	24	15	5	2	8
4147.806	n/a	STOP	2073903	n/a	LTP287	ltpFR2	10	n/a	n/a	n/a	24	n/a	n/a	n/a	n/a
4150.224	n/a	WORD	2075112	wordpools/wasnorm_wordpool_576.txt	LTP287	ltpFR2	10	17	COFFEE	341	n/a	n/a	0	0	0
4152.838	n/a	WORD	2076419	wordpools/wasnorm_wordpool_576.txt	LTP287	ltpFR2	10	17	OYSTER	995	n/a	n/a	0	0	0
4155.55	n/a	WORD	2077775	wordpools/wasnorm_wordpool_576.txt	LTP287	ltpFR2	10	17	HAND	683	n/a	n/a	0	0	0
4158.014	n/a	WORD	2079007	wordpools/wasnorm_wordpool_576.txt	LTP287	ltpFR2	10	17	CASKET	255	n/a	n/a	0	0	0
4160.476	n/a	WORD	2080238	wordpools/wasnorm_wordpool_576.txt	LTP287	ltpFR2	10	17	BEAST	108	n/a	n/a	0	0	0
4163.288	n/a	WORD	2081644	wordpools/wasnorm_wordpool_576.txt	LTP287	ltpFR2	10	17	TUBA	1515	n/a	n/a	0	0	0
4165.852	n/a	WORD	2082926	wordpools/wasnorm_wordpool_576.txt	LTP287	ltpFR2	10	17	MARS	873	n/a	n/a	0	0	0
4168.496	n/a	WORD	2084248	wordpools/wasnorm_wordpool_576.txt	LTP287	ltpFR2	10	17	VALLEY	1545	n/a	n/a	0	0	0
4171.144	n/a	WORD	2085572	wordpools/wasnorm_wordpool_576.txt	LTP287	ltpFR2	10	17	COSTUME	383	n/a	n/a	0	0	0
4173.824	n/a	WORD	2086912	wordpools/wasnorm_wordpool_576.txt	LTP287	ltpFR2	10	17	GRIZZLY	662	n/a	n/a	0	0	0
4176.354	n/a	WORD	2088177	wordpools/wasnorm_wordpool_576.txt	LTP287	ltpFR2	10	17	BANJO	82	n/a	n/a	0	0	0
4179.1	n/a	WORD	2089550	wordpools/wasnorm_wordpool_576.txt	LTP287	ltpFR2	10	17	FRECKLE	602	n/a	n/a	0	0	0
4181.662	n/a	WORD	2090831	wordpools/wasnorm_wordpool_576.txt	LTP287	ltpFR2	10	17	MASK	876	n/a	n/a	0	0	0
4184.242	n/a	WORD	2092121	wordpools/wasnorm_wordpool_576.txt	LTP287	ltpFR2	10	17	TURTLE	1522	n/a	n/a	0	0	0
4186.986	n/a	WORD	2093493	wordpools/wasnorm_wordpool_576.txt	LTP287	ltpFR2	10	17	BUNNY	198	n/a	n/a	0	0	0
4189.798	n/a	WORD	2094899	wordpools/wasnorm_wordpool_576.txt	LTP287	ltpFR2	10	17	SALAD	1224	n/a	n/a	0	0	0
4192.396	n/a	WORD	2096198	wordpools/wasnorm_wordpool_576.txt	LTP287	ltpFR2	10	17	CAPTIVE	240	n/a	n/a	0	0	0
4194.942	n/a	WORD	2097471	wordpools/wasnorm_wordpool_576.txt	LTP287	ltpFR2	10	17	WARDROBE	1587	n/a	n/a	0	0	0
4197.654	n/a	WORD	2098827	wordpools/wasnorm_wordpool_576.txt	LTP287	ltpFR2	10	17	CANYON	235	n/a	n/a	0	0	0
4200.4	n/a	WORD	2100200	wordpools/wasnorm_wordpool_576.txt	LTP287	ltpFR2	10	17	CIGAR	308	n/a	n/a	0	0	0
4202.846	n/a	WORD	2101423	wordpools/wasnorm_wordpool_576.txt	LTP287	ltpFR2	10	17	LODGE	839	n/a	n/a	0	0	0
4205.524	n/a	WORD	2102762	wordpools/wasnorm_wordpool_576.txt	LTP287	ltpFR2	10	17	ARMY	39	n/a	n/a	0	0	0
4208.222	n/a	WORD	2104111	wordpools/wasnorm_wordpool_576.txt	LTP287	ltpFR2	10	17	FLEET	578	n/a	n/a	0	0	0
4210.752	n/a	WORD	2105376	wordpools/wasnorm_wordpool_576.txt	LTP287	ltpFR2	10	17	OMELET	976	n/a	n/a	0	0	0
4212.366	n/a	START	2106183	n/a	LTP287	ltpFR2	10	n/a	n/a	n/a	25	n/a	n/a	n/a	n/a
4213.442	n/a	DISTRACTOR	2106721	n/a	LTP287	ltpFR2	10	17	n/a	n/a	n/a	n/a	0	0	0
4213.448	n/a	PROB	2106724	n/a	LTP287	ltpFR2	10	n/a	n/a	n/a	25	18	4	8	6
4215.694	n/a	PROB	2107847	n/a	LTP287	ltpFR2	10	n/a	n/a	n/a	25	8	1	5	2
4219.656	n/a	PROB	2109828	n/a	LTP287	ltpFR2	10	n/a	n/a	n/a	25	16	2	5	9
4222.002	n/a	PROB	2111001	n/a	LTP287	ltpFR2	10	n/a	n/a	n/a	25	18	9	7	2
4223.798	n/a	PROB	2111899	n/a	LTP287	ltpFR2	10	n/a	n/a	n/a	25	13	5	7	1
4225.73	n/a	PROB	2112865	n/a	LTP287	ltpFR2	10	n/a	n/a	n/a	25	12	2	4	6
4227.01	n/a	PROB	2113505	n/a	LTP287	ltpFR2	10	n/a	n/a	n/a	25	18	7	2	9
4228.408	n/a	PROB	2114204	n/a	LTP287	ltpFR2	10	n/a	n/a	n/a	25	21	9	4	8
4230.888	n/a	PROB	2115444	n/a	LTP287	ltpFR2	10	n/a	n/a	n/a	25	16	6	6	4
4234.366	n/a	PROB	2117183	n/a	LTP287	ltpFR2	10	n/a	n/a	n/a	25	18	4	8	6
4236.336	n/a	STOP	2118168	n/a	LTP287	ltpFR2	10	n/a	n/a	n/a	25	n/a	n/a	n/a	n/a
4238.328	n/a	REC_START	2119164	n/a	LTP287	ltpFR2	10	17	n/a	n/a	n/a	n/a	0	0	0
4238.836	n/a	REC_WORD	2119418	wordpools/wasnorm_wordpool_576.txt	LTP287	ltpFR2	10	17	COFFEE	341	n/a	n/a	0	0	0
4239.566	n/a	REC_WORD	2119783	wordpools/wasnorm_wordpool_576.txt	LTP287	ltpFR2	10	17	CIGAR	308	n/a	n/a	0	0	0
4240.582	n/a	REC_WORD	2120291	wordpools/wasnorm_wordpool_576.txt	LTP287	ltpFR2	10	17	MASK	876	n/a	n/a	0	0	0
4328.976	n/a	DISTRACTOR	2164488	n/a	LTP287	ltpFR2	10	18	n/a	n/a	n/a	n/a	0	0	0
4328.976	n/a	START	2164488	n/a	LTP287	ltpFR2	10	n/a	n/a	n/a	26	n/a	n/a	n/a	n/a
4329.01	n/a	PROB	2164505	n/a	LTP287	ltpFR2	10	n/a	n/a	n/a	26	21	7	8	6
4330.908	n/a	PROB	2165454	n/a	LTP287	ltpFR2	10	n/a	n/a	n/a	26	11	5	4	2
4333.952	n/a	PROB	2166976	n/a	LTP287	ltpFR2	10	n/a	n/a	n/a	26	21	8	6	7
4338.13	n/a	PROB	2169065	n/a	LTP287	ltpFR2	10	n/a	n/a	n/a	26	17	8	8	1
4340.326	n/a	PROB	2170163	n/a	LTP287	ltpFR2	10	n/a	n/a	n/a	26	16	4	8	4
4342.972	n/a	PROB	2171486	n/a	LTP287	ltpFR2	10	n/a	n/a	n/a	26	15	1	5	9
4344.986	n/a	PROB	2172493	n/a	LTP287	ltpFR2	10	n/a	n/a	n/a	26	14	3	6	5
4347.116	n/a	PROB	2173558	n/a	LTP287	ltpFR2	10	n/a	n/a	n/a	26	10	6	1	3
4348.764	n/a	PROB	2174382	n/a	LTP287	ltpFR2	10	n/a	n/a	n/a	26	14	1	4	9
4350.812	n/a	PROB	2175406	n/a	LTP287	ltpFR2	10	n/a	n/a	n/a	26	18	7	3	8
4352.088	n/a	STOP	2176044	n/a	LTP287	ltpFR2	10	n/a	n/a	n/a	26	n/a	n/a	n/a	n/a
4354.04	n/a	WORD	2177020	wordpools/wasnorm_wordpool_576.txt	LTP287	ltpFR2	10	18	QUAIL	1147	n/a	n/a	0	0	0
4356.518	n/a	WORD	2178259	wordpools/wasnorm_wordpool_576.txt	LTP287	ltpFR2	10	18	DRAGON	492	n/a	n/a	0	0	0
4358.982	n/a	WORD	2179491	wordpools/wasnorm_wordpool_576.txt	LTP287	ltpFR2	10	18	MATCH	878	n/a	n/a	0	0	0
4361.746	n/a	WORD	2180873	wordpools/wasnorm_wordpool_576.txt	LTP287	ltpFR2	10	18	PIZZA	1079	n/a	n/a	0	0	0
4364.342	n/a	WORD	2182171	wordpools/wasnorm_wordpool_576.txt	LTP287	ltpFR2	10	18	MAPLE	866	n/a	n/a	0	0	0
4366.87	n/a	WORD	2183435	wordpools/wasnorm_wordpool_576.txt	LTP287	ltpFR2	10	18	MUMMY	932	n/a	n/a	0	0	0
4369.5	n/a	WORD	2184750	wordpools/wasnorm_wordpool_576.txt	LTP287	ltpFR2	10	18	HUMAN	726	n/a	n/a	0	0	0
4371.964	n/a	WORD	2185982	wordpools/wasnorm_wordpool_576.txt	LTP287	ltpFR2	10	18	EGYPT	519	n/a	n/a	0	0	0
4374.676	n/a	WORD	2187338	wordpools/wasnorm_wordpool_576.txt	LTP287	ltpFR2	10	18	PACKAGE	997	n/a	n/a	0	0	0
4377.14	n/a	WORD	2188570	wordpools/wasnorm_wordpool_576.txt	LTP287	ltpFR2	10	18	DINER	467	n/a	n/a	0	0	0
4379.686	n/a	WORD	2189843	wordpools/wasnorm_wordpool_576.txt	LTP287	ltpFR2	10	18	CAFE	216	n/a	n/a	0	0	0
4382.432	n/a	WORD	2191216	wordpools/wasnorm_wordpool_576.txt	LTP287	ltpFR2	10	18	PRINCESS	1125	n/a	n/a	0	0	0
4385.028	n/a	WORD	2192514	wordpools/wasnorm_wordpool_576.txt	LTP287	ltpFR2	10	18	CURTAIN	427	n/a	n/a	0	0	0
4387.84	n/a	WORD	2193920	wordpools/wasnorm_wordpool_576.txt	LTP287	ltpFR2	10	18	DONOR	485	n/a	n/a	0	0	0
4390.37	n/a	WORD	2195185	wordpools/wasnorm_wordpool_576.txt	LTP287	ltpFR2	10	18	BALLOON	75	n/a	n/a	0	0	0
4393.032	n/a	WORD	2196516	wordpools/wasnorm_wordpool_576.txt	LTP287	ltpFR2	10	18	BEAVER	109	n/a	n/a	0	0	0
4395.812	n/a	WORD	2197906	wordpools/wasnorm_wordpool_576.txt	LTP287	ltpFR2	10	18	WASP	1593	n/a	n/a	0	0	0
4398.29	n/a	WORD	2199145	wordpools/wasnorm_wordpool_576.txt	LTP287	ltpFR2	10	18	WORKER	1621	n/a	n/a	0	0	0
4400.97	n/a	WORD	2200485	wordpools/wasnorm_wordpool_576.txt	LTP287	ltpFR2	10	18	DRAWING	494	n/a	n/a	0	0	0
4403.498	n/a	WORD	2201749	wordpools/wasnorm_wordpool_576.txt	LTP287	ltpFR2	10	18	HEART	697	n/a	n/a	0	0	0
4406.296	n/a	WORD	2203148	wordpools/wasnorm_wordpool_576.txt	LTP287	ltpFR2	10	18	PALACE	1006	n/a	n/a	0	0	0
4408.808	n/a	WORD	2204404	wordpools/wasnorm_wordpool_576.txt	LTP287	ltpFR2	10	18	VENUS	1557	n/a	n/a	0	0	0
4411.604	n/a	WORD	2205802	wordpools/wasnorm_wordpool_576.txt	LTP287	ltpFR2	10	18	DONKEY	484	n/a	n/a	0	0	0
4414.1	n/a	WORD	2207050	wordpools/wasnorm_wordpool_576.txt	LTP287	ltpFR2	10	18	SUNRISE	1407	n/a	n/a	0	0	0
4415.716	n/a	START	2207858	n/a	LTP287	ltpFR2	10	n/a	n/a	n/a	27	n/a	n/a	n/a	n/a
4416.768	n/a	DISTRACTOR	2208384	n/a	LTP287	ltpFR2	10	18	n/a	n/a	n/a	n/a	0	0	0
4416.78	n/a	PROB	2208390	n/a	LTP287	ltpFR2	10	n/a	n/a	n/a	27	18	8	1	9
4418.312	n/a	PROB	2209156	n/a	LTP287	ltpFR2	10	n/a	n/a	n/a	27	16	7	4	5
4420.026	n/a	PROB	2210013	n/a	LTP287	ltpFR2	10	n/a	n/a	n/a	27	14	7	2	5
4423.104	n/a	PROB	2211552	n/a	LTP287	ltpFR2	10	n/a	n/a	n/a	27	23	9	8	6
4425.966	n/a	PROB	2212983	n/a	LTP287	ltpFR2	10	n/a	n/a	n/a	27	22	8	4	8
4427.946	n/a	PROB	2213973	n/a	LTP287	ltpFR2	10	n/a	n/a	n/a	27	15	3	7	5
4430.642	n/a	PROB	2215321	n/a	LTP287	ltpFR2	10	n/a	n/a	n/a	27	123	2	1	9
4434.154	n/a	PROB	2217077	n/a	LTP287	ltpFR2	10	n/a	n/a	n/a	27	7	2	2	3
4439.716	n/a	STOP	2219858	n/a	LTP287	ltpFR2	10	n/a	n/a	n/a	27	n/a	n/a	n/a	n/a
4441.594	n/a	REC_START	2220797	n/a	LTP287	ltpFR2	10	18	n/a	n/a	n/a	n/a	0	0	0
4442.488	n/a	REC_WORD	2221244	wordpools/wasnorm_wordpool_576.txt	LTP287	ltpFR2	10	18	DONKEY	484	n/a	n/a	0	0	0
4444.242	n/a	REC_WORD	2222121	wordpools/wasnorm_wordpool_576.txt	LTP287	ltpFR2	10	18	VENUS	1557	n/a	n/a	0	0	0
4446.076	n/a	REC_WORD	2223038	wordpools/wasnorm_wordpool_576.txt	LTP287	ltpFR2	10	18	DINER	467	n/a	n/a	0	0	0
4446.686	n/a	REC_WORD	2223343	wordpools/wasnorm_wordpool_576.txt	LTP287	ltpFR2	10	18	CAFE	216	n/a	n/a	0	0	0
4459.894	n/a	REC_WORD	2229947	wordpools/wasnorm_wordpool_576.txt	LTP287	ltpFR2	10	18	QUAIL	1147	n/a	n/a	0	0	0
4460.594	n/a	REC_WORD	2230297	wordpools/wasnorm_wordpool_576.txt	LTP287	ltpFR2	10	18	DRAGON	492	n/a	n/a	0	0	0
4461.264	n/a	REC_WORD	2230632	wordpools/wasnorm_wordpool_576.txt	LTP287	ltpFR2	10	18	MATCH	878	n/a	n/a	0	0	0
4532.242	n/a	DISTRACTOR	2266121	n/a	LTP287	ltpFR2	10	19	n/a	n/a	n/a	n/a	0	0	0
4532.242	n/a	START	2266121	n/a	LTP287	ltpFR2	10	n/a	n/a	n/a	28	n/a	n/a	n/a	n/a
4532.276	n/a	PROB	2266138	n/a	LTP287	ltpFR2	10	n/a	n/a	n/a	28	14	2	5	7
4533.856	n/a	PROB	2266928	n/a	LTP287	ltpFR2	10	n/a	n/a	n/a	28	16	2	6	8
4536.12	n/a	PROB	2268060	n/a	LTP287	ltpFR2	10	n/a	n/a	n/a	28	17	3	8	6
4538.15	n/a	PROB	2269075	n/a	LTP287	ltpFR2	10	n/a	n/a	n/a	28	11	4	3	4
4539.732	n/a	PROB	2269866	n/a	LTP287	ltpFR2	10	n/a	n/a	n/a	28	9	3	2	4
4541.212	n/a	PROB	2270606	n/a	LTP287	ltpFR2	10	n/a	n/a	n/a	28	16	1	9	6
4542.494	n/a	PROB	2271247	n/a	LTP287	ltpFR2	10	n/a	n/a	n/a	28	13	3	9	1
4543.908	n/a	PROB	2271954	n/a	LTP287	ltpFR2	10	n/a	n/a	n/a	28	12	5	4	3
4545.374	n/a	PROB	2272687	n/a	LTP287	ltpFR2	10	n/a	n/a	n/a	28	10	8	1	1
4546.52	n/a	PROB	2273260	n/a	LTP287	ltpFR2	10	n/a	n/a	n/a	28	17	7	8	2
4548.052	n/a	PROB	2274026	n/a	LTP287	ltpFR2	10	n/a	n/a	n/a	28	16	2	6	8
4549.766	n/a	PROB	2274883	n/a	LTP287	ltpFR2	10	n/a	n/a	n/a	28	14	3	5	6
4556.242	n/a	STOP	2278121	n/a	LTP287	ltpFR2	10	n/a	n/a	n/a	28	n/a	n/a	n/a	n/a
4557.106	n/a	WORD	2278553	wordpools/wasnorm_wordpool_576.txt	LTP287	ltpFR2	10	19	IDOL	733	n/a	n/a	0	0	0
4559.636	n/a	WORD	2279818	wordpools/wasnorm_wordpool_576.txt	LTP287	ltpFR2	10	19	DANCER	437	n/a	n/a	0	0	0
4562.148	n/a	WORD	2281074	wordpools/wasnorm_wordpool_576.txt	LTP287	ltpFR2	10	19	SPOON	1357	n/a	n/a	0	0	0
4564.578	n/a	WORD	2282289	wordpools/wasnorm_wordpool_576.txt	LTP287	ltpFR2	10	19	FOOT	590	n/a	n/a	0	0	0
4567.274	n/a	WORD	2283637	wordpools/wasnorm_wordpool_576.txt	LTP287	ltpFR2	10	19	SMOG	1330	n/a	n/a	0	0	0
4569.754	n/a	WORD	2284877	wordpools/wasnorm_wordpool_576.txt	LTP287	ltpFR2	10	19	RIFLE	1192	n/a	n/a	0	0	0
4572.3	n/a	WORD	2286150	wordpools/wasnorm_wordpool_576.txt	LTP287	ltpFR2	10	19	ITEM	746	n/a	n/a	0	0	0
4575.096	n/a	WORD	2287548	wordpools/wasnorm_wordpool_576.txt	LTP287	ltpFR2	10	19	MACHINE	852	n/a	n/a	0	0	0
4577.876	n/a	WORD	2288938	wordpools/wasnorm_wordpool_576.txt	LTP287	ltpFR2	10	19	TWEEZERS	1526	n/a	n/a	0	0	0
4580.306	n/a	WORD	2290153	wordpools/wasnorm_wordpool_576.txt	LTP287	ltpFR2	10	19	COD	340	n/a	n/a	0	0	0
4583.052	n/a	WORD	2291526	wordpools/wasnorm_wordpool_576.txt	LTP287	ltpFR2	10	19	MATTRESS	879	n/a	n/a	0	0	0
4585.846	n/a	WORD	2292923	wordpools/wasnorm_wordpool_576.txt	LTP287	ltpFR2	10	19	SPACE	1345	n/a	n/a	0	0	0
4588.542	n/a	WORD	2294271	wordpools/wasnorm_wordpool_576.txt	LTP287	ltpFR2	10	19	PEPPER	1047	n/a	n/a	0	0	0
4591.322	n/a	WORD	2295661	wordpools/wasnorm_wordpool_576.txt	LTP287	ltpFR2	10	19	SALT	1229	n/a	n/a	0	0	0
4594.018	n/a	WORD	2297009	wordpools/wasnorm_wordpool_576.txt	LTP287	ltpFR2	10	19	PUDDLE	1140	n/a	n/a	0	0	0
4596.732	n/a	WORD	2298366	wordpools/wasnorm_wordpool_576.txt	LTP287	ltpFR2	10	19	FLAG	573	n/a	n/a	0	0	0
4599.36	n/a	WORD	2299680	wordpools/wasnorm_wordpool_576.txt	LTP287	ltpFR2	10	19	CHEST	295	n/a	n/a	0	0	0
4602.024	n/a	WORD	2301012	wordpools/wasnorm_wordpool_576.txt	LTP287	ltpFR2	10	19	GIRL	637	n/a	n/a	0	0	0
4604.686	n/a	WORD	2302343	wordpools/wasnorm_wordpool_576.txt	LTP287	ltpFR2	10	19	MAMMAL	861	n/a	n/a	0	0	0
4607.282	n/a	WORD	2303641	wordpools/wasnorm_wordpool_576.txt	LTP287	ltpFR2	10	19	FARMER	553	n/a	n/a	0	0	0
4609.978	n/a	WORD	2304989	wordpools/wasnorm_wordpool_576.txt	LTP287	ltpFR2	10	19	LUGGAGE	847	n/a	n/a	0	0	0
4612.54	n/a	WORD	2306270	wordpools/wasnorm_wordpool_576.txt	LTP287	ltpFR2	10	19	BRIEFCASE	175	n/a	n/a	0	0	0
4615.286	n/a	WORD	2307643	wordpools/wasnorm_wordpool_576.txt	LTP287	ltpFR2	10	19	BUBBLE	183	n/a	n/a	0	0	0
4617.916	n/a	WORD	2308958	wordpools/wasnorm_wordpool_576.txt	LTP287	ltpFR2	10	19	KNIFE	785	n/a	n/a	0	0	0
4619.53	n/a	START	2309765	n/a	LTP287	ltpFR2	10	n/a	n/a	n/a	29	n/a	n/a	n/a	n/a
4620.36	n/a	DISTRACTOR	2310180	n/a	LTP287	ltpFR2	10	19	n/a	n/a	n/a	n/a	0	0	0
4620.362	n/a	PROB	2310181	n/a	LTP287	ltpFR2	10	n/a	n/a	n/a	29	16	8	4	4
4622.358	n/a	PROB	2311179	n/a	LTP287	ltpFR2	10	n/a	n/a	n/a	29	15	8	2	5
4625.754	n/a	PROB	2312877	n/a	LTP287	ltpFR2	10	n/a	n/a	n/a	29	13	1	9	3
4627.768	n/a	PROB	2313884	n/a	LTP287	ltpFR2	10	n/a	n/a	n/a	29	23	6	8	9
4631.196	n/a	PROB	2315598	n/a	LTP287	ltpFR2	10	n/a	n/a	n/a	29	19	8	3	8
4632.876	n/a	PROB	2316438	n/a	LTP287	ltpFR2	10	n/a	n/a	n/a	29	18	1	9	8
4634.108	n/a	PROB	2317054	n/a	LTP287	ltpFR2	10	n/a	n/a	n/a	29	18	5	9	4
4635.89	n/a	PROB	2317945	n/a	LTP287	ltpFR2	10	n/a	n/a	n/a	29	6	3	2	1
4637.27	n/a	PROB	2318635	n/a	LTP287	ltpFR2	10	n/a	n/a	n/a	29	11	4	6	1
4638.636	n/a	PROB	2319318	n/a	LTP287	ltpFR2	10	n/a	n/a	n/a	29	13	7	5	1
4640.482	n/a	PROB	2320241	n/a	LTP287	ltpFR2	10	n/a	n/a	n/a	29	13	1	8	4
4642.012	n/a	STOP	2321006	n/a	LTP287	ltpFR2	10	n/a	n/a	n/a	29	n/a	n/a	n/a	n/a
4645.36	n/a	REC_START	2322680	n/a	LTP287	ltpFR2	10	19	n/a	n/a	n/a	n/a	0	0	0
4645.7	n/a	REC_WORD	2322850	wordpools/wasnorm_wordpool_576.txt	LTP287	ltpFR2	10	19	KNIFE	785	n/a	n/a	0	0	0
4652.346	n/a	REC_WORD	2326173	wordpools/wasnorm_wordpool_576.txt	LTP287	ltpFR2	10	19	SPOON	1357	n/a	n/a	0	0	0
4673.782	n/a	REC_WORD	2336891	wordpools/wasnorm_wordpool_576.txt	LTP287	ltpFR2	10	19	COD	340	n/a	n/a	0	0	0
4736.108	n/a	DISTRACTOR	2368054	n/a	LTP287	ltpFR2	10	20	n/a	n/a	n/a	n/a	0	0	0
4736.108	n/a	START	2368054	n/a	LTP287	ltpFR2	10	n/a	n/a	n/a	30	n/a	n/a	n/a	n/a
4736.14	n/a	PROB	2368070	n/a	LTP287	ltpFR2	10	n/a	n/a	n/a	30	10	7	1	2
4737.888	n/a	PROB	2368944	n/a	LTP287	ltpFR2	10	n/a	n/a	n/a	30	14	1	4	9
4740.018	n/a	PROB	2370009	n/a	LTP287	ltpFR2	10	n/a	n/a	n/a	30	14	8	5	1
4741.882	n/a	PROB	2370941	n/a	LTP287	ltpFR2	10	n/a	n/a	n/a	30	17	5	8	4
4743.862	n/a	PROB	2371931	n/a	LTP287	ltpFR2	10	n/a	n/a	n/a	30	12	4	3	5
4746.626	n/a	PROB	2373313	n/a	LTP287	ltpFR2	10	n/a	n/a	n/a	30	10	4	3	3
4748.09	n/a	PROB	2374045	n/a	LTP287	ltpFR2	10	n/a	n/a	n/a	30	14	5	8	1
4749.82	n/a	PROB	2374910	n/a	LTP287	ltpFR2	10	n/a	n/a	n/a	30	15	8	5	2
4751.884	n/a	PROB	2375942	n/a	LTP287	ltpFR2	10	n/a	n/a	n/a	30	17	8	2	7
4753.1	n/a	PROB	2376550	n/a	LTP287	ltpFR2	10	n/a	n/a	n/a	30	20	9	7	4
4755.746	n/a	PROB	2377873	n/a	LTP287	ltpFR2	10	n/a	n/a	n/a	30	9	3	2	4
4757.426	n/a	PROB	2378713	n/a	LTP287	ltpFR2	10	n/a	n/a	n/a	30	15	6	1	8
4759.598	n/a	STOP	2379799	n/a	LTP287	ltpFR2	10	n/a	n/a	n/a	30	n/a	n/a	n/a	n/a
4761.154	n/a	WORD	2380577	wordpools/wasnorm_wordpool_576.txt	LTP287	ltpFR2	10	20	PASTRY	1022	n/a	n/a	0	0	0
4763.866	n/a	WORD	2381933	wordpools/wasnorm_wordpool_576.txt	LTP287	ltpFR2	10	20	GARLIC	624	n/a	n/a	0	0	0
4766.68	n/a	WORD	2383340	wordpools/wasnorm_wordpool_576.txt	LTP287	ltpFR2	10	20	SKETCH	1315	n/a	n/a	0	0	0
4769.476	n/a	WORD	2384738	wordpools/wasnorm_wordpool_576.txt	LTP287	ltpFR2	10	20	BLUEPRINT	142	n/a	n/a	0	0	0
4772.138	n/a	WORD	2386069	wordpools/wasnorm_wordpool_576.txt	LTP287	ltpFR2	10	20	PEACH	1031	n/a	n/a	0	0	0
4774.6	n/a	WORD	2387300	wordpools/wasnorm_wordpool_576.txt	LTP287	ltpFR2	10	20	STREAM	1392	n/a	n/a	0	0	0
4777.214	n/a	WORD	2388607	wordpools/wasnorm_wordpool_576.txt	LTP287	ltpFR2	10	20	STAPLE	1371	n/a	n/a	0	0	0
4779.942	n/a	WORD	2389971	wordpools/wasnorm_wordpool_576.txt	LTP287	ltpFR2	10	20	LION	827	n/a	n/a	0	0	0
4782.722	n/a	WORD	2391361	wordpools/wasnorm_wordpool_576.txt	LTP287	ltpFR2	10	20	CRIB	407	n/a	n/a	0	0	0
4785.384	n/a	WORD	2392692	wordpools/wasnorm_wordpool_576.txt	LTP287	ltpFR2	10	20	ICING	732	n/a	n/a	0	0	0
4787.898	n/a	WORD	2393949	wordpools/wasnorm_wordpool_576.txt	LTP287	ltpFR2	10	20	LUNCH	849	n/a	n/a	0	0	0
4790.46	n/a	WORD	2395230	wordpools/wasnorm_wordpool_576.txt	LTP287	ltpFR2	10	20	PLATE	1086	n/a	n/a	0	0	0
4793.074	n/a	WORD	2396537	wordpools/wasnorm_wordpool_576.txt	LTP287	ltpFR2	10	20	SHIRT	1287	n/a	n/a	0	0	0
4795.754	n/a	WORD	2397877	wordpools/wasnorm_wordpool_576.txt	LTP287	ltpFR2	10	20	STAR	1373	n/a	n/a	0	0	0
4798.532	n/a	WORD	2399266	wordpools/wasnorm_wordpool_576.txt	LTP287	ltpFR2	10	20	PLASTER	1085	n/a	n/a	0	0	0
4801.344	n/a	WORD	2400672	wordpools/wasnorm_wordpool_576.txt	LTP287	ltpFR2	10	20	ROOSTER	1209	n/a	n/a	0	0	0
4804.09	n/a	WORD	2402045	wordpools/wasnorm_wordpool_576.txt	LTP287	ltpFR2	10	20	JUGGLER	763	n/a	n/a	0	0	0
4806.67	n/a	WORD	2403335	wordpools/wasnorm_wordpool_576.txt	LTP287	ltpFR2	10	20	BRANCH	168	n/a	n/a	0	0	0
4809.384	n/a	WORD	2404692	wordpools/wasnorm_wordpool_576.txt	LTP287	ltpFR2	10	20	ONION	977	n/a	n/a	0	0	0
4811.93	n/a	WORD	2405965	wordpools/wasnorm_wordpool_576.txt	LTP287	ltpFR2	10	20	COOKBOOK	373	n/a	n/a	0	0	0
4814.726	n/a	WORD	2407363	wordpools/wasnorm_wordpool_576.txt	LTP287	ltpFR2	10	20	PICNIC	1060	n/a	n/a	0	0	0
4817.404	n/a	WORD	2408702	wordpools/wasnorm_wordpool_576.txt	LTP287	ltpFR2	10	20	SLIDE	1326	n/a	n/a	0	0	0
4819.934	n/a	WORD	2409967	wordpools/wasnorm_wordpool_576.txt	LTP287	ltpFR2	10	20	PIANO	1057	n/a	n/a	0	0	0
4822.646	n/a	WORD	2411323	wordpools/wasnorm_wordpool_576.txt	LTP287	ltpFR2	10	20	DRINK	498	n/a	n/a	0	0	0
4824.26	n/a	START	2412130	n/a	LTP287	ltpFR2	10	n/a	n/a	n/a	31	n/a	n/a	n/a	n/a
4825.28	n/a	DISTRACTOR	2412640	n/a	LTP287	ltpFR2	10	20	n/a	n/a	n/a	n/a	0	0	0
4825.292	n/a	PROB	2412646	n/a	LTP287	ltpFR2	10	n/a	n/a	n/a	31	17	7	3	7
4829.036	n/a	PROB	2414518	n/a	LTP287	ltpFR2	10	n/a	n/a	n/a	31	17	8	5	4
4830.784	n/a	PROB	2415392	n/a	LTP287	ltpFR2	10	n/a	n/a	n/a	31	21	3	9	9
4832.248	n/a	PROB	2416124	n/a	LTP287	ltpFR2	10	n/a	n/a	n/a	31	10	1	8	1
4833.346	n/a	PROB	2416673	n/a	LTP287	ltpFR2	10	n/a	n/a	n/a	31	14	2	8	4
4834.794	n/a	PROB	2417397	n/a	LTP287	ltpFR2	10	n/a	n/a	n/a	31	19	3	9	7
4838.272	n/a	PROB	2419136	n/a	LTP287	ltpFR2	10	n/a	n/a	n/a	31	22	9	6	7
4840.27	n/a	PROB	2420135	n/a	LTP287	ltpFR2	10	n/a	n/a	n/a	31	11	4	4	3
4841.868	n/a	PROB	2420934	n/a	LTP287	ltpFR2	10	n/a	n/a	n/a	31	15	1	5	9
4844.114	n/a	PROB	2422057	n/a	LTP287	ltpFR2	10	n/a	n/a	n/a	31	8	3	3	2
4845.712	n/a	PROB	2422856	n/a	LTP287	ltpFR2	10	n/a	n/a	n/a	31	9	1	7	1
4847.024	n/a	STOP	2423512	n/a	LTP287	ltpFR2	10	n/a	n/a	n/a	31	n/a	n/a	n/a	n/a
4850.006	n/a	REC_START	2425003	n/a	LTP287	ltpFR2	10	20	n/a	n/a	n/a	n/a	0	0	0
4850.858	n/a	REC_WORD	2425429	wordpools/wasnorm_wordpool_576.txt	LTP287	ltpFR2	10	20	STAR	1373	n/a	n/a	0	0	0
4851.84	n/a	REC_WORD	2425920	wordpools/wasnorm_wordpool_576.txt	LTP287	ltpFR2	10	20	SHIRT	1287	n/a	n/a	0	0	0
4852.678	n/a	REC_WORD	2426339	wordpools/wasnorm_wordpool_576.txt	LTP287	ltpFR2	10	20	LION	827	n/a	n/a	0	0	0
4940.688	n/a	WORD	2470344	wordpools/wasnorm_wordpool_576.txt	LTP287	ltpFR2	10	21	TAXI	1438	n/a	n/a	0	0	0
4943.35	n/a	WORD	2471675	wordpools/wasnorm_wordpool_576.txt	LTP287	ltpFR2	10	21	HOOD	714	n/a	n/a	0	0	0
4945.996	n/a	WORD	2472998	wordpools/wasnorm_wordpool_576.txt	LTP287	ltpFR2	10	21	YOLK	1633	n/a	n/a	0	0	0
4948.642	n/a	WORD	2474321	wordpools/wasnorm_wordpool_576.txt	LTP287	ltpFR2	10	21	BURGLAR	200	n/a	n/a	0	0	0
4951.122	n/a	WORD	2475561	wordpools/wasnorm_wordpool_576.txt	LTP287	ltpFR2	10	21	CLAMP	316	n/a	n/a	0	0	0
4953.902	n/a	WORD	2476951	wordpools/wasnorm_wordpool_576.txt	LTP287	ltpFR2	10	21	DASHBOARD	441	n/a	n/a	0	0	0
4956.664	n/a	WORD	2478332	wordpools/wasnorm_wordpool_576.txt	LTP287	ltpFR2	10	21	BACON	67	n/a	n/a	0	0	0
4959.478	n/a	WORD	2479739	wordpools/wasnorm_wordpool_576.txt	LTP287	ltpFR2	10	21	FRUIT	610	n/a	n/a	0	0	0
4962.074	n/a	WORD	2481037	wordpools/wasnorm_wordpool_576.txt	LTP287	ltpFR2	10	21	JELLY	755	n/a	n/a	0	0	0
4964.72	n/a	WORD	2482360	wordpools/wasnorm_wordpool_576.txt	LTP287	ltpFR2	10	21	LOFT	840	n/a	n/a	0	0	0
4967.448	n/a	WORD	2483724	wordpools/wasnorm_wordpool_576.txt	LTP287	ltpFR2	10	21	GLOBE	641	n/a	n/a	0	0	0
4969.878	n/a	WORD	2484939	wordpools/wasnorm_wordpool_576.txt	LTP287	ltpFR2	10	21	CRITIC	410	n/a	n/a	0	0	0
4972.392	n/a	WORD	2486196	wordpools/wasnorm_wordpool_576.txt	LTP287	ltpFR2	10	21	ACTRESS	6	n/a	n/a	0	0	0
4974.838	n/a	WORD	2487419	wordpools/wasnorm_wordpool_576.txt	LTP287	ltpFR2	10	21	GRAPE	654	n/a	n/a	0	0	0
4977.284	n/a	WORD	2488642	wordpools/wasnorm_wordpool_576.txt	LTP287	ltpFR2	10	21	CREVICE	405	n/a	n/a	0	0	0
4979.98	n/a	WORD	2489990	wordpools/wasnorm_wordpool_576.txt	LTP287	ltpFR2	10	21	VIKING	1565	n/a	n/a	0	0	0
4982.508	n/a	WORD	2491254	wordpools/wasnorm_wordpool_576.txt	LTP287	ltpFR2	10	21	GLOVE	642	n/a	n/a	0	0	0
4985.222	n/a	WORD	2492611	wordpools/wasnorm_wordpool_576.txt	LTP287	ltpFR2	10	21	WRIST	1626	n/a	n/a	0	0	0
4987.918	n/a	WORD	2493959	wordpools/wasnorm_wordpool_576.txt	LTP287	ltpFR2	10	21	SPOOL	1356	n/a	n/a	0	0	0
4990.53	n/a	WORD	2495265	wordpools/wasnorm_wordpool_576.txt	LTP287	ltpFR2	10	21	YARN	1631	n/a	n/a	0	0	0
4993.344	n/a	WORD	2496672	wordpools/wasnorm_wordpool_576.txt	LTP287	ltpFR2	10	21	SALMON	1227	n/a	n/a	0	0	0
4995.94	n/a	WORD	2497970	wordpools/wasnorm_wordpool_576.txt	LTP287	ltpFR2	10	21	CLOUD	328	n/a	n/a	0	0	0
4998.72	n/a	WORD	2499360	wordpools/wasnorm_wordpool_576.txt	LTP287	ltpFR2	10	21	THIEF	1456	n/a	n/a	0	0	0
5001.298	n/a	WORD	2500649	wordpools/wasnorm_wordpool_576.txt	LTP287	ltpFR2	10	21	MARROW	872	n/a	n/a	0	0	0
5002.914	n/a	START	2501457	n/a	LTP287	ltpFR2	10	n/a	n/a	n/a	32	n/a	n/a	n/a	n/a
5003.798	n/a	DISTRACTOR	2501899	n/a	LTP287	ltpFR2	10	21	n/a	n/a	n/a	n/a	0	0	0
5003.812	n/a	PROB	2501906	n/a	LTP287	ltpFR2	10	n/a	n/a	n/a	32	20	7	4	9
5006.524	n/a	PROB	2503262	n/a	LTP287	ltpFR2	10	n/a	n/a	n/a	32	16	7	8	1
5008.854	n/a	PROB	2504427	n/a	LTP287	ltpFR2	10	n/a	n/a	n/a	32	19	2	9	8
5011.184	n/a	PROB	2505592	n/a	LTP287	ltpFR2	10	n/a	n/a	n/a	32	13	8	3	2
5012.898	n/a	PROB	2506449	n/a	LTP287	ltpFR2	10	n/a	n/a	n/a	32	12	2	4	6
5014.196	n/a	PROB	2507098	n/a	LTP287	ltpFR2	10	n/a	n/a	n/a	32	18	8	2	8
5015.644	n/a	PROB	2507822	n/a	LTP287	ltpFR2	10	n/a	n/a	n/a	32	20	9	9	2
5018.624	n/a	PROB	2509312	n/a	LTP287	ltpFR2	10	n/a	n/a	n/a	32	14	9	2	3
5020.47	n/a	PROB	2510235	n/a	LTP287	ltpFR2	10	n/a	n/a	n/a	32	20	5	6	9
5023.05	n/a	PROB	2511525	n/a	LTP287	ltpFR2	10	n/a	n/a	n/a	32	17	9	1	7
5024.632	n/a	PROB	2512316	n/a	LTP287	ltpFR2	10	n/a	n/a	n/a	32	6	1	4	1
5025.802	n/a	STOP	2512901	n/a	LTP287	ltpFR2	10	n/a	n/a	n/a	32	n/a	n/a	n/a	n/a
5028.726	n/a	REC_START	2514363	n/a	LTP287	ltpFR2	10	21	n/a	n/a	n/a	n/a	0	0	0
5029.388	n/a	REC_WORD	2514694	wordpools/wasnorm_wordpool_576.txt	LTP287	ltpFR2	10	21	MARROW	872	n/a	n/a	0	0	0
5044.29	n/a	REC_WORD	2522145	wordpools/wasnorm_wordpool_576.txt	LTP287	ltpFR2	10	21	YOLK	1633	n/a	n/a	0	0	0
5045.124	n/a	REC_WORD	2522562	wordpools/wasnorm_wordpool_576.txt	LTP287	ltpFR2	10	21	BACON	67	n/a	n/a	0	0	0
5047.522	n/a	REC_WORD	2523761	wordpools/wasnorm_wordpool_576.txt	LTP287	ltpFR2	10	21	JELLY	755	n/a	n/a	0	0	0
5119.374	n/a	DISTRACTOR	2559687	n/a	LTP287	ltpFR2	10	22	n/a	n/a	n/a	n/a	0	0	0
5119.374	n/a	START	2559687	n/a	LTP287	ltpFR2	10	n/a	n/a	n/a	33	n/a	n/a	n/a	n/a
5119.408	n/a	PROB	2559704	n/a	LTP287	ltpFR2	10	n/a	n/a	n/a	33	13	3	4	6
5121.388	n/a	PROB	2560694	n/a	LTP287	ltpFR2	10	n/a	n/a	n/a	33	16	5	7	4
5123.668	n/a	PROB	2561834	n/a	LTP287	ltpFR2	10	n/a	n/a	n/a	33	18	4	6	6
5127.196	n/a	PROB	2563598	n/a	LTP287	ltpFR2	10	n/a	n/a	n/a	33	15	9	3	3
5130.042	n/a	PROB	2565021	n/a	LTP287	ltpFR2	10	n/a	n/a	n/a	33	17	6	7	4
5132.538	n/a	PROB	2566269	n/a	LTP287	ltpFR2	10	n/a	n/a	n/a	33	19	7	8	4
5134.884	n/a	PROB	2567442	n/a	LTP287	ltpFR2	10	n/a	n/a	n/a	33	17	3	5	9
5137.662	n/a	PROB	2568831	n/a	LTP287	ltpFR2	10	n/a	n/a	n/a	33	21	8	6	7
5139.694	n/a	PROB	2569847	n/a	LTP287	ltpFR2	10	n/a	n/a	n/a	33	4	2	1	1
5143.374	n/a	STOP	2571687	n/a	LTP287	ltpFR2	10	n/a	n/a	n/a	33	n/a	n/a	n/a	n/a
5144.518	n/a	WORD	2572259	wordpools/wasnorm_wordpool_576.txt	LTP287	ltpFR2	10	22	TRACTOR	1493	n/a	n/a	0	0	0
5147.066	n/a	WORD	2573533	wordpools/wasnorm_wordpool_576.txt	LTP287	ltpFR2	10	22	GREASE	660	n/a	n/a	0	0	0
5149.796	n/a	WORD	2574898	wordpools/wasnorm_wordpool_576.txt	LTP287	ltpFR2	10	22	VIRUS	1572	n/a	n/a	0	0	0
5152.506	n/a	WORD	2576253	wordpools/wasnorm_wordpool_576.txt	LTP287	ltpFR2	10	22	BANQUET	86	n/a	n/a	0	0	0
5155.17	n/a	WORD	2577585	wordpools/wasnorm_wordpool_576.txt	LTP287	ltpFR2	10	22	SUPPER	1411	n/a	n/a	0	0	0
5157.8	n/a	WORD	2578900	wordpools/wasnorm_wordpool_576.txt	LTP287	ltpFR2	10	22	LUMBER	848	n/a	n/a	0	0	0
5160.512	n/a	WORD	2580256	wordpools/wasnorm_wordpool_576.txt	LTP287	ltpFR2	10	22	STAKE	1368	n/a	n/a	0	0	0
5163.142	n/a	WORD	2581571	wordpools/wasnorm_wordpool_576.txt	LTP287	ltpFR2	10	22	CRUTCH	417	n/a	n/a	0	0	0
5165.656	n/a	WORD	2582828	wordpools/wasnorm_wordpool_576.txt	LTP287	ltpFR2	10	22	LAVA	804	n/a	n/a	0	0	0
5168.384	n/a	WORD	2584192	wordpools/wasnorm_wordpool_576.txt	LTP287	ltpFR2	10	22	CONTRACT	368	n/a	n/a	0	0	0
5171.18	n/a	WORD	2585590	wordpools/wasnorm_wordpool_576.txt	LTP287	ltpFR2	10	22	HIGHWAY	707	n/a	n/a	0	0	0
5173.926	n/a	WORD	2586963	wordpools/wasnorm_wordpool_576.txt	LTP287	ltpFR2	10	22	TABLE	1426	n/a	n/a	0	0	0
5176.688	n/a	WORD	2588344	wordpools/wasnorm_wordpool_576.txt	LTP287	ltpFR2	10	22	CONCERT	360	n/a	n/a	0	0	0
5179.386	n/a	WORD	2589693	wordpools/wasnorm_wordpool_576.txt	LTP287	ltpFR2	10	22	JEANS	752	n/a	n/a	0	0	0
5181.882	n/a	WORD	2590941	wordpools/wasnorm_wordpool_576.txt	LTP287	ltpFR2	10	22	CRATER	400	n/a	n/a	0	0	0
5184.312	n/a	WORD	2592156	wordpools/wasnorm_wordpool_576.txt	LTP287	ltpFR2	10	22	ROBIN	1199	n/a	n/a	0	0	0
5186.758	n/a	WORD	2593379	wordpools/wasnorm_wordpool_576.txt	LTP287	ltpFR2	10	22	FRIEND	606	n/a	n/a	0	0	0
5189.386	n/a	WORD	2594693	wordpools/wasnorm_wordpool_576.txt	LTP287	ltpFR2	10	22	UMPIRE	1535	n/a	n/a	0	0	0
5191.984	n/a	WORD	2595992	wordpools/wasnorm_wordpool_576.txt	LTP287	ltpFR2	10	22	SPARROW	1347	n/a	n/a	0	0	0
