onset	duration	trial_type	sample	stim_file	subject	experiment	session	trial	task	item_name	item_num	recog_conf	resp	color_b	color_g	color_r	case	font
239.452	n/a	SESS_START	119726	n/a	LTP064	ltpFR	1	n/a	n/a	n/a	n/a	5	n/a	n/a	n/a	n/a	n/a	n/a
334.808	n/a	WORD	167404	wordpools/wasnorm_wordpool.txt	LTP064	ltpFR	1	1	0	DIVER	476	1	1	0	0.5869140625	0.422607421875	upper	../fonts/zerothre.ttf
338.748	n/a	WORD	169374	wordpools/wasnorm_wordpool.txt	LTP064	ltpFR	1	1	0	SWIMMER	1420	n/a	1	0	0.5869140625	0.422607421875	upper	../fonts/zerothre.ttf
342.798	n/a	WORD	171399	wordpools/wasnorm_wordpool.txt	LTP064	ltpFR	1	1	0	SEAFOOD	1260	5	1	0	0.5869140625	0.422607421875	upper	../fonts/zerothre.ttf
346.872	n/a	WORD	173436	wordpools/wasnorm_wordpool.txt	LTP064	ltpFR	1	1	1	APPENDAGE	32	n/a	0	1	0.412841796875	0.57763671875	lower	../fonts/amplitud.ttf
350.88	n/a	WORD	175440	wordpools/wasnorm_wordpool.txt	LTP064	ltpFR	1	1	1	VINEGAR	1569	n/a	0	1	0.412841796875	0.57763671875	lower	../fonts/amplitud.ttf
355.074	n/a	WORD	177537	wordpools/wasnorm_wordpool.txt	LTP064	ltpFR	1	1	0	HOOK	715	n/a	0	0	0.5869140625	0.422607421875	upper	../fonts/zerothre.ttf
359.148	n/a	WORD	179574	wordpools/wasnorm_wordpool.txt	LTP064	ltpFR	1	1	0	LIPSTICK	829	n/a	0	0	0.5869140625	0.422607421875	upper	../fonts/zerothre.ttf
362.972	n/a	WORD	181486	wordpools/wasnorm_wordpool.txt	LTP064	ltpFR	1	1	0	CHILD	299	n/a	1	0	0.5869140625	0.422607421875	upper	../fonts/zerothre.ttf
366.898	n/a	WORD	183449	wordpools/wasnorm_wordpool.txt	LTP064	ltpFR	1	1	0	SHEPHERD	1283	n/a	1	0	0.5869140625	0.422607421875	upper	../fonts/zerothre.ttf
370.98	n/a	WORD	185490	wordpools/wasnorm_wordpool.txt	LTP064	ltpFR	1	1	0	JUG	762	n/a	0	0	0.5869140625	0.422607421875	upper	../fonts/zerothre.ttf
374.822	n/a	WORD	187411	wordpools/wasnorm_wordpool.txt	LTP064	ltpFR	1	1	1	THUMB	1462	n/a	0	1	0.412841796875	0.57763671875	lower	../fonts/amplitud.ttf
378.756	n/a	WORD	189378	wordpools/wasnorm_wordpool.txt	LTP064	ltpFR	1	1	1	SKELETON	1314	n/a	0	1	0.412841796875	0.57763671875	lower	../fonts/amplitud.ttf
382.648	n/a	WORD	191324	wordpools/wasnorm_wordpool.txt	LTP064	ltpFR	1	1	1	WRIST	1626	n/a	0	1	0.412841796875	0.57763671875	lower	../fonts/amplitud.ttf
386.706	n/a	WORD	193353	wordpools/wasnorm_wordpool.txt	LTP064	ltpFR	1	1	1	BLACKBOARD	133	n/a	0	1	0.412841796875	0.57763671875	lower	../fonts/amplitud.ttf
390.646	n/a	WORD	195323	wordpools/wasnorm_wordpool.txt	LTP064	ltpFR	1	1	1	MAJOR	859	n/a	0	1	0.412841796875	0.57763671875	lower	../fonts/amplitud.ttf
394.622	n/a	WORD	197311	wordpools/wasnorm_wordpool.txt	LTP064	ltpFR	1	1	1	SERGEANT	1269	n/a	1	1	0.412841796875	0.57763671875	lower	../fonts/amplitud.ttf
400.648	n/a	REC_START	200324	n/a	LTP064	ltpFR	1	1	n/a	n/a	n/a	n/a	n/a	n/a	n/a	n/a	n/a	n/a
401.53	n/a	REC_WORD	200765	wordpools/wasnorm_wordpool.txt	LTP064	ltpFR	1	1	1	WRIST	1626	n/a	0	n/a	n/a	n/a	n/a	n/a
401.936	n/a	REC_WORD	200968	wordpools/wasnorm_wordpool.txt	LTP064	ltpFR	1	1	1	BLACKBOARD	133	n/a	0	n/a	n/a	n/a	n/a	n/a
402.526	n/a	REC_WORD	201263	wordpools/wasnorm_wordpool.txt	LTP064	ltpFR	1	1	1	MAJOR	859	n/a	0	n/a	n/a	n/a	n/a	n/a
403.006	n/a	REC_WORD	201503	wordpools/wasnorm_wordpool.txt	LTP064	ltpFR	1	1	1	SERGEANT	1269	n/a	1	n/a	n/a	n/a	n/a	n/a
403.73	n/a	REC_WORD	201865	wordpools/wasnorm_wordpool.txt	LTP064	ltpFR	1	1	1	SKELETON	1314	n/a	0	n/a	n/a	n/a	n/a	n/a
404.62	n/a	REC_WORD	202310	wordpools/wasnorm_wordpool.txt	LTP064	ltpFR	1	1	1	THUMB	1462	n/a	0	n/a	n/a	n/a	n/a	n/a
406.558	n/a	REC_WORD	203279	wordpools/wasnorm_wordpool.txt	LTP064	ltpFR	1	1	n/a	CHALK	276	n/a	n/a	n/a	n/a	n/a	n/a	n/a
406.902	n/a	REC_WORD	203451	wordpools/wasnorm_wordpool.txt	LTP064	ltpFR	1	1	n/a	BOARD	143	n/a	n/a	n/a	n/a	n/a	n/a	n/a
408.18	n/a	REC_WORD	204090	wordpools/wasnorm_wordpool.txt	LTP064	ltpFR	1	1	0	SWIMMER	1420	n/a	1	n/a	n/a	n/a	n/a	n/a
408.93	n/a	REC_WORD	204465	wordpools/wasnorm_wordpool.txt	LTP064	ltpFR	1	1	0	DIVER	476	n/a	1	n/a	n/a	n/a	n/a	n/a
410.006	n/a	REC_WORD	205003	wordpools/wasnorm_wordpool.txt	LTP064	ltpFR	1	1	0	SEAFOOD	1260	n/a	1	n/a	n/a	n/a	n/a	n/a
411.882	n/a	REC_WORD	205941	wordpools/wasnorm_wordpool.txt	LTP064	ltpFR	1	1	0	HOOK	715	n/a	0	n/a	n/a	n/a	n/a	n/a
432.062	n/a	REC_WORD	216031	wordpools/wasnorm_wordpool.txt	LTP064	ltpFR	1	1	0	SHEPHERD	1283	n/a	1	n/a	n/a	n/a	n/a	n/a
486.56	n/a	WORD	243280	wordpools/wasnorm_wordpool.txt	LTP064	ltpFR	1	2	1	CHAPEL	280	n/a	0	1	0.412841796875	0.57763671875	lower	../fonts/amplitud.ttf
490.518	n/a	WORD	245259	wordpools/wasnorm_wordpool.txt	LTP064	ltpFR	1	2	1	CROSS	413	n/a	0	1	0.412841796875	0.57763671875	lower	../fonts/amplitud.ttf
494.66	n/a	WORD	247330	wordpools/wasnorm_wordpool.txt	LTP064	ltpFR	1	2	1	LEOPARD	812	n/a	1	1	0.412841796875	0.57763671875	lower	../fonts/amplitud.ttf
498.544	n/a	WORD	249272	wordpools/wasnorm_wordpool.txt	LTP064	ltpFR	1	2	1	TEENAGER	1444	n/a	1	1	0.412841796875	0.57763671875	lower	../fonts/amplitud.ttf
502.494	n/a	WORD	251247	wordpools/wasnorm_wordpool.txt	LTP064	ltpFR	1	2	1	LIME	823	n/a	1	1	0.412841796875	0.57763671875	lower	../fonts/amplitud.ttf
506.484	n/a	WORD	253242	wordpools/wasnorm_wordpool.txt	LTP064	ltpFR	1	2	1	GUM	672	n/a	0	1	0.412841796875	0.57763671875	lower	../fonts/amplitud.ttf
510.626	n/a	WORD	255313	wordpools/wasnorm_wordpool.txt	LTP064	ltpFR	1	2	0	ROOT	1210	n/a	0	0	0.5869140625	0.422607421875	upper	../fonts/zerothre.ttf
514.778	n/a	WORD	257389	wordpools/wasnorm_wordpool.txt	LTP064	ltpFR	1	2	0	SUGAR	1401	n/a	0	0	0.5869140625	0.422607421875	upper	../fonts/zerothre.ttf
518.678	n/a	WORD	259339	wordpools/wasnorm_wordpool.txt	LTP064	ltpFR	1	2	0	FEMALE	559	n/a	1	0	0.5869140625	0.422607421875	upper	../fonts/zerothre.ttf
522.678	n/a	WORD	261339	wordpools/wasnorm_wordpool.txt	LTP064	ltpFR	1	2	0	DELINQUENT	445	n/a	1	0	0.5869140625	0.422607421875	upper	../fonts/zerothre.ttf
526.702	n/a	WORD	263351	wordpools/wasnorm_wordpool.txt	LTP064	ltpFR	1	2	0	LOBSTER	837	n/a	1	0	0.5869140625	0.422607421875	upper	../fonts/zerothre.ttf
530.752	n/a	WORD	265376	wordpools/wasnorm_wordpool.txt	LTP064	ltpFR	1	2	0	LAMP	798	n/a	1	0	0.5869140625	0.422607421875	upper	../fonts/zerothre.ttf
534.826	n/a	WORD	267413	wordpools/wasnorm_wordpool.txt	LTP064	ltpFR	1	2	1	MATCH	878	n/a	0	1	0.412841796875	0.57763671875	lower	../fonts/amplitud.ttf
538.81	n/a	WORD	269405	wordpools/wasnorm_wordpool.txt	LTP064	ltpFR	1	2	1	BUYER	208	n/a	1	1	0.412841796875	0.57763671875	lower	../fonts/amplitud.ttf
542.818	n/a	WORD	271409	wordpools/wasnorm_wordpool.txt	LTP064	ltpFR	1	2	0	GARDEN	623	n/a	1	0	0.5869140625	0.422607421875	upper	../fonts/zerothre.ttf
546.71	n/a	WORD	273355	wordpools/wasnorm_wordpool.txt	LTP064	ltpFR	1	2	0	POSSUM	1112	n/a	1	0	0.5869140625	0.422607421875	upper	../fonts/zerothre.ttf
552.618	n/a	REC_START	276309	n/a	LTP064	ltpFR	1	2	n/a	n/a	n/a	n/a	n/a	n/a	n/a	n/a	n/a	n/a
552.936	n/a	REC_WORD	276468	wordpools/wasnorm_wordpool.txt	LTP064	ltpFR	1	2	1	MATCH	878	n/a	0	n/a	n/a	n/a	n/a	n/a
553.374	n/a	REC_WORD	276687	wordpools/wasnorm_wordpool.txt	LTP064	ltpFR	1	2	1	BUYER	208	n/a	1	n/a	n/a	n/a	n/a	n/a
553.79	n/a	REC_WORD	276895	wordpools/wasnorm_wordpool.txt	LTP064	ltpFR	1	2	0	GARDEN	623	n/a	1	n/a	n/a	n/a	n/a	n/a
554.202	n/a	REC_WORD	277101	wordpools/wasnorm_wordpool.txt	LTP064	ltpFR	1	2	0	POSSUM	1112	n/a	1	n/a	n/a	n/a	n/a	n/a
557.492	n/a	REC_WORD	278746	wordpools/wasnorm_wordpool.txt	LTP064	ltpFR	1	2	1	TEENAGER	1444	n/a	1	n/a	n/a	n/a	n/a	n/a
558.13	n/a	REC_WORD	279065	wordpools/wasnorm_wordpool.txt	LTP064	ltpFR	1	2	1	LEOPARD	812	n/a	1	n/a	n/a	n/a	n/a	n/a
558.69	n/a	REC_WORD	279345	wordpools/wasnorm_wordpool.txt	LTP064	ltpFR	1	2	1	CROSS	413	n/a	0	n/a	n/a	n/a	n/a	n/a
559.184	n/a	REC_WORD	279592	wordpools/wasnorm_wordpool.txt	LTP064	ltpFR	1	2	1	CHAPEL	280	n/a	0	n/a	n/a	n/a	n/a	n/a
563.308	n/a	REC_WORD	281654	wordpools/wasnorm_wordpool.txt	LTP064	ltpFR	1	2	0	FEMALE	559	n/a	1	n/a	n/a	n/a	n/a	n/a
564.73	n/a	REC_WORD	282365	wordpools/wasnorm_wordpool.txt	LTP064	ltpFR	1	2	0	DELINQUENT	445	n/a	1	n/a	n/a	n/a	n/a	n/a
570.328	n/a	REC_WORD	285164	wordpools/wasnorm_wordpool.txt	LTP064	ltpFR	1	2	1	LIME	823	n/a	1	n/a	n/a	n/a	n/a	n/a
570.726	n/a	REC_WORD	285363	wordpools/wasnorm_wordpool.txt	LTP064	ltpFR	1	2	1	GUM	672	n/a	0	n/a	n/a	n/a	n/a	n/a
571.006	n/a	REC_WORD	285503	wordpools/wasnorm_wordpool.txt	LTP064	ltpFR	1	2	0	SUGAR	1401	n/a	0	n/a	n/a	n/a	n/a	n/a
571.456	n/a	REC_WORD	285728	wordpools/wasnorm_wordpool.txt	LTP064	ltpFR	1	2	0	ROOT	1210	n/a	0	n/a	n/a	n/a	n/a	n/a
592.234	n/a	REC_WORD	296117	wordpools/wasnorm_wordpool.txt	LTP064	ltpFR	1	2	1	MATCH	878	n/a	0	n/a	n/a	n/a	n/a	n/a
592.686	n/a	REC_WORD	296343	wordpools/wasnorm_wordpool.txt	LTP064	ltpFR	1	2	1	BUYER	208	n/a	1	n/a	n/a	n/a	n/a	n/a
637.658	n/a	WORD	318829	wordpools/wasnorm_wordpool.txt	LTP064	ltpFR	1	3	0	CONE	363	n/a	0	0	0.5869140625	0.422607421875	upper	../fonts/zerothre.ttf
641.682	n/a	WORD	320841	wordpools/wasnorm_wordpool.txt	LTP064	ltpFR	1	3	0	RAG	1160	n/a	0	0	0.5869140625	0.422607421875	upper	../fonts/zerothre.ttf
645.606	n/a	WORD	322803	wordpools/wasnorm_wordpool.txt	LTP064	ltpFR	1	3	0	COYOTE	396	n/a	1	0	0.5869140625	0.422607421875	upper	../fonts/zerothre.ttf
649.79	n/a	WORD	324895	wordpools/wasnorm_wordpool.txt	LTP064	ltpFR	1	3	0	ZEBRA	1635	n/a	1	0	0.5869140625	0.422607421875	upper	../fonts/zerothre.ttf
653.908	n/a	WORD	326954	wordpools/wasnorm_wordpool.txt	LTP064	ltpFR	1	3	0	CREATURE	403	n/a	1	0	0.5869140625	0.422607421875	upper	../fonts/zerothre.ttf
657.798	n/a	WORD	328899	wordpools/wasnorm_wordpool.txt	LTP064	ltpFR	1	3	0	CUPBOARD	425	n/a	1	0	0.5869140625	0.422607421875	upper	../fonts/zerothre.ttf
661.714	n/a	WORD	330857	wordpools/wasnorm_wordpool.txt	LTP064	ltpFR	1	3	0	CHIPMUNK	304	n/a	0	0	0.5869140625	0.422607421875	upper	../fonts/zerothre.ttf
665.898	n/a	WORD	332949	wordpools/wasnorm_wordpool.txt	LTP064	ltpFR	1	3	0	JEANS	752	n/a	0	0	0.5869140625	0.422607421875	upper	../fonts/zerothre.ttf
669.816	n/a	WORD	334908	wordpools/wasnorm_wordpool.txt	LTP064	ltpFR	1	3	0	STEAM	1375	n/a	0	0	0.5869140625	0.422607421875	upper	../fonts/zerothre.ttf
673.824	n/a	WORD	336912	wordpools/wasnorm_wordpool.txt	LTP064	ltpFR	1	3	0	SWAMP	1416	n/a	1	0	0.5869140625	0.422607421875	upper	../fonts/zerothre.ttf
677.864	n/a	WORD	338932	wordpools/wasnorm_wordpool.txt	LTP064	ltpFR	1	3	0	SHIRT	1287	n/a	1	0	0.5869140625	0.422607421875	upper	../fonts/zerothre.ttf
682.032	n/a	WORD	341016	wordpools/wasnorm_wordpool.txt	LTP064	ltpFR	1	3	0	LIVER	833	n/a	0	0	0.5869140625	0.422607421875	upper	../fonts/zerothre.ttf
685.99	n/a	WORD	342995	wordpools/wasnorm_wordpool.txt	LTP064	ltpFR	1	3	0	PAINT	1003	n/a	1	0	0.5869140625	0.422607421875	upper	../fonts/zerothre.ttf
690.148	n/a	WORD	345074	wordpools/wasnorm_wordpool.txt	LTP064	ltpFR	1	3	0	PAINTER	1004	n/a	1	0	0.5869140625	0.422607421875	upper	../fonts/zerothre.ttf
694.056	n/a	WORD	347028	wordpools/wasnorm_wordpool.txt	LTP064	ltpFR	1	3	0	SKIRT	1319	n/a	1	0	0.5869140625	0.422607421875	upper	../fonts/zerothre.ttf
698.04	n/a	WORD	349020	wordpools/wasnorm_wordpool.txt	LTP064	ltpFR	1	3	0	MAMMAL	861	n/a	1	0	0.5869140625	0.422607421875	upper	../fonts/zerothre.ttf
703.956	n/a	REC_START	351978	n/a	LTP064	ltpFR	1	3	n/a	n/a	n/a	n/a	n/a	n/a	n/a	n/a	n/a	n/a
704.37	n/a	REC_WORD	352185	wordpools/wasnorm_wordpool.txt	LTP064	ltpFR	1	3	0	PAINTER	1004	n/a	1	n/a	n/a	n/a	n/a	n/a
704.758	n/a	REC_WORD	352379	wordpools/wasnorm_wordpool.txt	LTP064	ltpFR	1	3	0	SKIRT	1319	n/a	1	n/a	n/a	n/a	n/a	n/a
705.198	n/a	REC_WORD	352599	wordpools/wasnorm_wordpool.txt	LTP064	ltpFR	1	3	0	MAMMAL	861	n/a	1	n/a	n/a	n/a	n/a	n/a
705.614	n/a	REC_WORD	352807	wordpools/wasnorm_wordpool.txt	LTP064	ltpFR	1	3	0	PAINT	1003	n/a	1	n/a	n/a	n/a	n/a	n/a
706.598	n/a	REC_WORD_VV	353299	wordpools/wasnorm_wordpool.txt	LTP064	ltpFR	1	3	n/a	<>	-1	n/a	n/a	n/a	n/a	n/a	n/a	n/a
708.98	n/a	REC_WORD	354490	wordpools/wasnorm_wordpool.txt	LTP064	ltpFR	1	3	n/a	STING	-1	n/a	n/a	n/a	n/a	n/a	n/a	n/a
709.486	n/a	REC_WORD	354743	wordpools/wasnorm_wordpool.txt	LTP064	ltpFR	1	3	0	SWAMP	1416	n/a	1	n/a	n/a	n/a	n/a	n/a
710.08	n/a	REC_WORD	355040	wordpools/wasnorm_wordpool.txt	LTP064	ltpFR	1	3	0	LIVER	833	n/a	0	n/a	n/a	n/a	n/a	n/a
710.458	n/a	REC_WORD	355229	wordpools/wasnorm_wordpool.txt	LTP064	ltpFR	1	3	0	SHIRT	1287	n/a	1	n/a	n/a	n/a	n/a	n/a
713.396	n/a	REC_WORD	356698	wordpools/wasnorm_wordpool.txt	LTP064	ltpFR	1	3	0	COYOTE	396	n/a	1	n/a	n/a	n/a	n/a	n/a
713.904	n/a	REC_WORD	356952	wordpools/wasnorm_wordpool.txt	LTP064	ltpFR	1	3	0	ZEBRA	1635	n/a	1	n/a	n/a	n/a	n/a	n/a
714.506	n/a	REC_WORD	357253	wordpools/wasnorm_wordpool.txt	LTP064	ltpFR	1	3	0	CONE	363	n/a	0	n/a	n/a	n/a	n/a	n/a
714.938	n/a	REC_WORD	357469	wordpools/wasnorm_wordpool.txt	LTP064	ltpFR	1	3	0	RAG	1160	n/a	0	n/a	n/a	n/a	n/a	n/a
728.418	n/a	REC_WORD	364209	wordpools/wasnorm_wordpool.txt	LTP064	ltpFR	1	3	0	CREATURE	403	n/a	1	n/a	n/a	n/a	n/a	n/a
728.85	n/a	REC_WORD	364425	wordpools/wasnorm_wordpool.txt	LTP064	ltpFR	1	3	0	CUPBOARD	425	n/a	1	n/a	n/a	n/a	n/a	n/a
729.21	n/a	REC_WORD	364605	wordpools/wasnorm_wordpool.txt	LTP064	ltpFR	1	3	n/a	CHICK	296	n/a	n/a	n/a	n/a	n/a	n/a	n/a
729.45	n/a	REC_WORD	364725	wordpools/wasnorm_wordpool.txt	LTP064	ltpFR	1	3	n/a	MUG	930	n/a	n/a	n/a	n/a	n/a	n/a	n/a
729.71	n/a	REC_WORD	364855	wordpools/wasnorm_wordpool.txt	LTP064	ltpFR	1	3	n/a	PANTS	1010	n/a	n/a	n/a	n/a	n/a	n/a	n/a
785.636	n/a	WORD	392818	wordpools/wasnorm_wordpool.txt	LTP064	ltpFR	1	4	1	LOG	841	n/a	0	1	0.412841796875	0.57763671875	lower	../fonts/amplitud.ttf
789.454	n/a	WORD	394727	wordpools/wasnorm_wordpool.txt	LTP064	ltpFR	1	4	1	SPARROW	1347	n/a	1	1	0.412841796875	0.57763671875	lower	../fonts/amplitud.ttf
793.502	n/a	WORD	396751	wordpools/wasnorm_wordpool.txt	LTP064	ltpFR	1	4	1	VICTIM	1562	n/a	1	1	0.412841796875	0.57763671875	lower	../fonts/amplitud.ttf
797.57	n/a	WORD	398785	wordpools/wasnorm_wordpool.txt	LTP064	ltpFR	1	4	1	CAPTIVE	240	n/a	1	1	0.412841796875	0.57763671875	lower	../fonts/amplitud.ttf
801.452	n/a	WORD	400726	wordpools/wasnorm_wordpool.txt	LTP064	ltpFR	1	4	1	COWBOY	395	n/a	1	1	0.412841796875	0.57763671875	lower	../fonts/amplitud.ttf
805.286	n/a	WORD	402643	wordpools/wasnorm_wordpool.txt	LTP064	ltpFR	1	4	1	SADDLE	1221	n/a	0	1	0.412841796875	0.57763671875	lower	../fonts/amplitud.ttf
809.244	n/a	WORD	404622	wordpools/wasnorm_wordpool.txt	LTP064	ltpFR	1	4	1	CACTUS	215	n/a	1	1	0.412841796875	0.57763671875	lower	../fonts/amplitud.ttf
813.452	n/a	WORD	406726	wordpools/wasnorm_wordpool.txt	LTP064	ltpFR	1	4	1	DIPLOMA	470	n/a	0	1	0.412841796875	0.57763671875	lower	../fonts/amplitud.ttf
817.344	n/a	WORD	408672	wordpools/wasnorm_wordpool.txt	LTP064	ltpFR	1	4	1	BINDER	127	n/a	0	1	0.412841796875	0.57763671875	lower	../fonts/amplitud.ttf
821.162	n/a	WORD	410581	wordpools/wasnorm_wordpool.txt	LTP064	ltpFR	1	4	1	INSTRUCTOR	741	n/a	1	1	0.412841796875	0.57763671875	lower	../fonts/amplitud.ttf
825.286	n/a	WORD	412643	wordpools/wasnorm_wordpool.txt	LTP064	ltpFR	1	4	1	COLLAR	345	n/a	1	1	0.412841796875	0.57763671875	lower	../fonts/amplitud.ttf
829.136	n/a	WORD	414568	wordpools/wasnorm_wordpool.txt	LTP064	ltpFR	1	4	1	QUAIL	1147	n/a	1	1	0.412841796875	0.57763671875	lower	../fonts/amplitud.ttf
832.986	n/a	WORD	416493	wordpools/wasnorm_wordpool.txt	LTP064	ltpFR	1	4	1	GRADUATE	653	n/a	1	1	0.412841796875	0.57763671875	lower	../fonts/amplitud.ttf
837.002	n/a	WORD	418501	wordpools/wasnorm_wordpool.txt	LTP064	ltpFR	1	4	1	PLAID	1080	n/a	0	1	0.412841796875	0.57763671875	lower	../fonts/amplitud.ttf
840.944	n/a	WORD	420472	wordpools/wasnorm_wordpool.txt	LTP064	ltpFR	1	4	1	WHEEL	1603	n/a	0	1	0.412841796875	0.57763671875	lower	../fonts/amplitud.ttf
844.852	n/a	WORD	422426	wordpools/wasnorm_wordpool.txt	LTP064	ltpFR	1	4	1	DRIVER	499	n/a	1	1	0.412841796875	0.57763671875	lower	../fonts/amplitud.ttf
850.46	n/a	REC_START	425230	n/a	LTP064	ltpFR	1	4	n/a	n/a	n/a	n/a	n/a	n/a	n/a	n/a	n/a	n/a
850.694	n/a	REC_WORD	425347	wordpools/wasnorm_wordpool.txt	LTP064	ltpFR	1	4	1	PLAID	1080	n/a	0	n/a	n/a	n/a	n/a	n/a
851.114	n/a	REC_WORD	425557	wordpools/wasnorm_wordpool.txt	LTP064	ltpFR	1	4	1	GRADUATE	653	n/a	1	n/a	n/a	n/a	n/a	n/a
851.69	n/a	REC_WORD	425845	wordpools/wasnorm_wordpool.txt	LTP064	ltpFR	1	4	1	WHEEL	1603	n/a	0	n/a	n/a	n/a	n/a	n/a
852.134	n/a	REC_WORD	426067	wordpools/wasnorm_wordpool.txt	LTP064	ltpFR	1	4	1	DRIVER	499	n/a	1	n/a	n/a	n/a	n/a	n/a
852.964	n/a	REC_WORD	426482	wordpools/wasnorm_wordpool.txt	LTP064	ltpFR	1	4	1	INSTRUCTOR	741	n/a	1	n/a	n/a	n/a	n/a	n/a
854.124	n/a	REC_WORD	427062	wordpools/wasnorm_wordpool.txt	LTP064	ltpFR	1	4	1	BINDER	127	n/a	0	n/a	n/a	n/a	n/a	n/a
857.016	n/a	REC_WORD	428508	wordpools/wasnorm_wordpool.txt	LTP064	ltpFR	1	4	1	COLLAR	345	n/a	1	n/a	n/a	n/a	n/a	n/a
858.472	n/a	REC_WORD	429236	wordpools/wasnorm_wordpool.txt	LTP064	ltpFR	1	4	1	QUAIL	1147	n/a	1	n/a	n/a	n/a	n/a	n/a
860.936	n/a	REC_WORD	430468	wordpools/wasnorm_wordpool.txt	LTP064	ltpFR	1	4	1	COWBOY	395	n/a	1	n/a	n/a	n/a	n/a	n/a
861.542	n/a	REC_WORD	430771	wordpools/wasnorm_wordpool.txt	LTP064	ltpFR	1	4	1	SADDLE	1221	n/a	0	n/a	n/a	n/a	n/a	n/a
862.21	n/a	REC_WORD	431105	wordpools/wasnorm_wordpool.txt	LTP064	ltpFR	1	4	1	CACTUS	215	n/a	1	n/a	n/a	n/a	n/a	n/a
862.826	n/a	REC_WORD	431413	wordpools/wasnorm_wordpool.txt	LTP064	ltpFR	1	4	1	DIPLOMA	470	n/a	0	n/a	n/a	n/a	n/a	n/a
867.572	n/a	REC_WORD	433786	wordpools/wasnorm_wordpool.txt	LTP064	ltpFR	1	4	1	SPARROW	1347	n/a	1	n/a	n/a	n/a	n/a	n/a
868.212	n/a	REC_WORD	434106	wordpools/wasnorm_wordpool.txt	LTP064	ltpFR	1	4	1	LOG	841	n/a	0	n/a	n/a	n/a	n/a	n/a
868.994	n/a	REC_WORD	434497	wordpools/wasnorm_wordpool.txt	LTP064	ltpFR	1	4	1	CAPTIVE	240	n/a	1	n/a	n/a	n/a	n/a	n/a
869.574	n/a	REC_WORD	434787	wordpools/wasnorm_wordpool.txt	LTP064	ltpFR	1	4	1	VICTIM	1562	n/a	1	n/a	n/a	n/a	n/a	n/a
937.858	n/a	WORD	468929	wordpools/wasnorm_wordpool.txt	LTP064	ltpFR	1	5	1	BUSH	202	n/a	1	1	0.412841796875	0.57763671875	lower	../fonts/amplitud.ttf
941.784	n/a	WORD	470892	wordpools/wasnorm_wordpool.txt	LTP064	ltpFR	1	5	1	PLUTO	1092	n/a	0	1	0.412841796875	0.57763671875	lower	../fonts/amplitud.ttf
945.942	n/a	WORD	472971	wordpools/wasnorm_wordpool.txt	LTP064	ltpFR	1	5	1	PEDAL	1037	n/a	0	1	0.412841796875	0.57763671875	lower	../fonts/amplitud.ttf
950.008	n/a	WORD	475004	wordpools/wasnorm_wordpool.txt	LTP064	ltpFR	1	5	1	WHALE	1601	n/a	1	1	0.412841796875	0.57763671875	lower	../fonts/amplitud.ttf
954.15	n/a	WORD	477075	wordpools/wasnorm_wordpool.txt	LTP064	ltpFR	1	5	1	DOLPHIN	483	n/a	1	1	0.412841796875	0.57763671875	lower	../fonts/amplitud.ttf
958.058	n/a	WORD	479029	wordpools/wasnorm_wordpool.txt	LTP064	ltpFR	1	5	1	NEPTUNE	943	n/a	0	1	0.412841796875	0.57763671875	lower	../fonts/amplitud.ttf
962.242	n/a	WORD	481121	wordpools/wasnorm_wordpool.txt	LTP064	ltpFR	1	5	0	LITTER	832	n/a	0	0	0.5869140625	0.422607421875	upper	../fonts/zerothre.ttf
966.182	n/a	WORD	483091	wordpools/wasnorm_wordpool.txt	LTP064	ltpFR	1	5	0	WILDERNESS	1610	n/a	1	0	0.5869140625	0.422607421875	upper	../fonts/zerothre.ttf
970.04	n/a	WORD	485020	wordpools/wasnorm_wordpool.txt	LTP064	ltpFR	1	5	0	MECHANIC	884	n/a	1	0	0.5869140625	0.422607421875	upper	../fonts/zerothre.ttf
973.958	n/a	WORD	486979	wordpools/wasnorm_wordpool.txt	LTP064	ltpFR	1	5	0	PENDULUM	1043	n/a	0	0	0.5869140625	0.422607421875	upper	../fonts/zerothre.ttf
978.116	n/a	WORD	489058	wordpools/wasnorm_wordpool.txt	LTP064	ltpFR	1	5	1	HAWK	692	n/a	1	1	0.412841796875	0.57763671875	lower	../fonts/amplitud.ttf
982.282	n/a	WORD	491141	wordpools/wasnorm_wordpool.txt	LTP064	ltpFR	1	5	1	BIRD	129	n/a	1	1	0.412841796875	0.57763671875	lower	../fonts/amplitud.ttf
986.456	n/a	WORD	493228	wordpools/wasnorm_wordpool.txt	LTP064	ltpFR	1	5	0	SILVERWARE	1308	n/a	0	0	0.5869140625	0.422607421875	upper	../fonts/zerothre.ttf
990.316	n/a	WORD	495158	wordpools/wasnorm_wordpool.txt	LTP064	ltpFR	1	5	0	RICE	1190	n/a	0	0	0.5869140625	0.422607421875	upper	../fonts/zerothre.ttf
994.44	n/a	WORD	497220	wordpools/wasnorm_wordpool.txt	LTP064	ltpFR	1	5	0	SEED	1266	n/a	0	0	0.5869140625	0.422607421875	upper	../fonts/zerothre.ttf
998.482	n/a	WORD	499241	wordpools/wasnorm_wordpool.txt	LTP064	ltpFR	1	5	0	PELICAN	1039	n/a	0	0	0.5869140625	0.422607421875	upper	../fonts/zerothre.ttf
1004.332	n/a	REC_START	502166	n/a	LTP064	ltpFR	1	5	n/a	n/a	n/a	n/a	n/a	n/a	n/a	n/a	n/a	n/a
1004.686	n/a	REC_WORD	502343	wordpools/wasnorm_wordpool.txt	LTP064	ltpFR	1	5	0	SILVERWARE	1308	n/a	0	n/a	n/a	n/a	n/a	n/a
1005.382	n/a	REC_WORD	502691	wordpools/wasnorm_wordpool.txt	LTP064	ltpFR	1	5	0	RICE	1190	n/a	0	n/a	n/a	n/a	n/a	n/a
1005.71	n/a	REC_WORD	502855	wordpools/wasnorm_wordpool.txt	LTP064	ltpFR	1	5	0	SEED	1266	n/a	0	n/a	n/a	n/a	n/a	n/a
1006.078	n/a	REC_WORD	503039	wordpools/wasnorm_wordpool.txt	LTP064	ltpFR	1	5	0	PELICAN	1039	n/a	0	n/a	n/a	n/a	n/a	n/a
1006.758	n/a	REC_WORD	503379	wordpools/wasnorm_wordpool.txt	LTP064	ltpFR	1	5	1	DOLPHIN	483	n/a	1	n/a	n/a	n/a	n/a	n/a
1007.354	n/a	REC_WORD	503677	wordpools/wasnorm_wordpool.txt	LTP064	ltpFR	1	5	1	NEPTUNE	943	n/a	0	n/a	n/a	n/a	n/a	n/a
1008.01	n/a	REC_WORD	504005	wordpools/wasnorm_wordpool.txt	LTP064	ltpFR	1	5	0	LITTER	832	n/a	0	n/a	n/a	n/a	n/a	n/a
1008.344	n/a	REC_WORD	504172	wordpools/wasnorm_wordpool.txt	LTP064	ltpFR	1	5	0	WILDERNESS	1610	n/a	1	n/a	n/a	n/a	n/a	n/a
1009.804	n/a	REC_WORD	504902	wordpools/wasnorm_wordpool.txt	LTP064	ltpFR	1	5	1	PLUTO	1092	n/a	0	n/a	n/a	n/a	n/a	n/a
1010.614	n/a	REC_WORD	505307	wordpools/wasnorm_wordpool.txt	LTP064	ltpFR	1	5	1	WHALE	1601	n/a	1	n/a	n/a	n/a	n/a	n/a
1011.074	n/a	REC_WORD	505537	wordpools/wasnorm_wordpool.txt	LTP064	ltpFR	1	5	1	PEDAL	1037	n/a	0	n/a	n/a	n/a	n/a	n/a
1011.674	n/a	REC_WORD	505837	wordpools/wasnorm_wordpool.txt	LTP064	ltpFR	1	5	1	BUSH	202	n/a	1	n/a	n/a	n/a	n/a	n/a
1038.686	n/a	REC_WORD	519343	wordpools/wasnorm_wordpool.txt	LTP064	ltpFR	1	5	1	HAWK	692	n/a	1	n/a	n/a	n/a	n/a	n/a
1039.09	n/a	REC_WORD	519545	wordpools/wasnorm_wordpool.txt	LTP064	ltpFR	1	5	1	BIRD	129	n/a	1	n/a	n/a	n/a	n/a	n/a
1039.394	n/a	REC_WORD	519697	wordpools/wasnorm_wordpool.txt	LTP064	ltpFR	1	5	0	MECHANIC	884	n/a	1	n/a	n/a	n/a	n/a	n/a
1039.914	n/a	REC_WORD	519957	wordpools/wasnorm_wordpool.txt	LTP064	ltpFR	1	5	n/a	PANTS	1010	n/a	n/a	n/a	n/a	n/a	n/a	n/a
1040.144	n/a	REC_WORD_VV	520072	wordpools/wasnorm_wordpool.txt	LTP064	ltpFR	1	5	n/a	<>	-1	n/a	n/a	n/a	n/a	n/a	n/a	n/a
1092.596	n/a	WORD	546298	wordpools/wasnorm_wordpool.txt	LTP064	ltpFR	1	6	0	RASPBERRY	1168	n/a	0	0	0.5869140625	0.422607421875	upper	../fonts/zerothre.ttf
1096.47	n/a	WORD	548235	wordpools/wasnorm_wordpool.txt	LTP064	ltpFR	1	6	0	STALLION	1369	n/a	1	0	0.5869140625	0.422607421875	upper	../fonts/zerothre.ttf
1100.304	n/a	WORD	550152	wordpools/wasnorm_wordpool.txt	LTP064	ltpFR	1	6	1	CUFF	423	n/a	0	1	0.412841796875	0.57763671875	lower	../fonts/amplitud.ttf
1104.138	n/a	WORD	552069	wordpools/wasnorm_wordpool.txt	LTP064	ltpFR	1	6	1	CARROT	249	n/a	1	1	0.412841796875	0.57763671875	lower	../fonts/amplitud.ttf
1107.98	n/a	WORD	553990	wordpools/wasnorm_wordpool.txt	LTP064	ltpFR	1	6	1	HAY	693	n/a	1	1	0.412841796875	0.57763671875	lower	../fonts/amplitud.ttf
1111.938	n/a	WORD	555969	wordpools/wasnorm_wordpool.txt	LTP064	ltpFR	1	6	1	TROUSERS	1510	n/a	0	1	0.412841796875	0.57763671875	lower	../fonts/amplitud.ttf
1115.862	n/a	WORD	557931	wordpools/wasnorm_wordpool.txt	LTP064	ltpFR	1	6	1	ARTERY	41	n/a	1	1	0.412841796875	0.57763671875	lower	../fonts/amplitud.ttf
1119.678	n/a	WORD	559839	wordpools/wasnorm_wordpool.txt	LTP064	ltpFR	1	6	0	JOKER	759	n/a	1	0	0.5869140625	0.422607421875	upper	../fonts/zerothre.ttf
1123.78	n/a	WORD	561890	wordpools/wasnorm_wordpool.txt	LTP064	ltpFR	1	6	0	SHOVEL	1295	n/a	1	0	0.5869140625	0.422607421875	upper	../fonts/zerothre.ttf
1127.97	n/a	WORD	563985	wordpools/wasnorm_wordpool.txt	LTP064	ltpFR	1	6	1	BOY	161	n/a	1	1	0.412841796875	0.57763671875	lower	../fonts/amplitud.ttf
1131.928	n/a	WORD	565964	wordpools/wasnorm_wordpool.txt	LTP064	ltpFR	1	6	1	BRUISE	180	n/a	0	1	0.412841796875	0.57763671875	lower	../fonts/amplitud.ttf
1135.928	n/a	WORD	567964	wordpools/wasnorm_wordpool.txt	LTP064	ltpFR	1	6	1	BANDAGE	79	n/a	0	1	0.412841796875	0.57763671875	lower	../fonts/amplitud.ttf
1140.036	n/a	WORD	570018	wordpools/wasnorm_wordpool.txt	LTP064	ltpFR	1	6	0	GOVERNOR	651	n/a	1	0	0.5869140625	0.422607421875	upper	../fonts/zerothre.ttf
1144.02	n/a	WORD	572010	wordpools/wasnorm_wordpool.txt	LTP064	ltpFR	1	6	0	SENATOR	1268	n/a	1	0	0.5869140625	0.422607421875	upper	../fonts/zerothre.ttf
1147.986	n/a	WORD	573993	wordpools/wasnorm_wordpool.txt	LTP064	ltpFR	1	6	0	MICROSCOPE	891	n/a	0	0	0.5869140625	0.422607421875	upper	../fonts/zerothre.ttf
1152.186	n/a	WORD	576093	wordpools/wasnorm_wordpool.txt	LTP064	ltpFR	1	6	0	TELEPHONE	1445	n/a	1	0	0.5869140625	0.422607421875	upper	../fonts/zerothre.ttf
1157.836	n/a	REC_START	578918	n/a	LTP064	ltpFR	1	6	n/a	n/a	n/a	n/a	n/a	n/a	n/a	n/a	n/a	n/a
1158.11	n/a	REC_WORD	579055	wordpools/wasnorm_wordpool.txt	LTP064	ltpFR	1	6	0	GOVERNOR	651	n/a	1	n/a	n/a	n/a	n/a	n/a
1158.502	n/a	REC_WORD	579251	wordpools/wasnorm_wordpool.txt	LTP064	ltpFR	1	6	0	SENATOR	1268	n/a	1	n/a	n/a	n/a	n/a	n/a
1159.602	n/a	REC_WORD	579801	wordpools/wasnorm_wordpool.txt	LTP064	ltpFR	1	6	0	TELEPHONE	1445	n/a	1	n/a	n/a	n/a	n/a	n/a
1160.328	n/a	REC_WORD	580164	wordpools/wasnorm_wordpool.txt	LTP064	ltpFR	1	6	0	MICROSCOPE	891	n/a	0	n/a	n/a	n/a	n/a	n/a
1161.302	n/a	REC_WORD	580651	wordpools/wasnorm_wordpool.txt	LTP064	ltpFR	1	6	0	SHOVEL	1295	n/a	1	n/a	n/a	n/a	n/a	n/a
1162.072	n/a	REC_WORD	581036	wordpools/wasnorm_wordpool.txt	LTP064	ltpFR	1	6	1	BOY	161	n/a	1	n/a	n/a	n/a	n/a	n/a
1162.68	n/a	REC_WORD	581340	wordpools/wasnorm_wordpool.txt	LTP064	ltpFR	1	6	1	BRUISE	180	n/a	0	n/a	n/a	n/a	n/a	n/a
1163.388	n/a	REC_WORD	581694	wordpools/wasnorm_wordpool.txt	LTP064	ltpFR	1	6	1	BANDAGE	79	n/a	0	n/a	n/a	n/a	n/a	n/a
1183.628	n/a	REC_WORD	591814	wordpools/wasnorm_wordpool.txt	LTP064	ltpFR	1	6	0	RASPBERRY	1168	n/a	0	n/a	n/a	n/a	n/a	n/a
1184.348	n/a	REC_WORD	592174	wordpools/wasnorm_wordpool.txt	LTP064	ltpFR	1	6	0	STALLION	1369	n/a	1	n/a	n/a	n/a	n/a	n/a
1185.128	n/a	REC_WORD	592564	wordpools/wasnorm_wordpool.txt	LTP064	ltpFR	1	6	1	CUFF	423	n/a	0	n/a	n/a	n/a	n/a	n/a
1185.54	n/a	REC_WORD	592770	wordpools/wasnorm_wordpool.txt	LTP064	ltpFR	1	6	1	CARROT	249	n/a	1	n/a	n/a	n/a	n/a	n/a
1214.052	n/a	REC_WORD	607026	wordpools/wasnorm_wordpool.txt	LTP064	ltpFR	1	6	1	HAY	693	n/a	1	n/a	n/a	n/a	n/a	n/a
1214.416	n/a	REC_WORD	607208	wordpools/wasnorm_wordpool.txt	LTP064	ltpFR	1	6	1	TROUSERS	1510	n/a	0	n/a	n/a	n/a	n/a	n/a
1215.248	n/a	REC_WORD	607624	wordpools/wasnorm_wordpool.txt	LTP064	ltpFR	1	6	1	ARTERY	41	n/a	1	n/a	n/a	n/a	n/a	n/a
1215.868	n/a	REC_WORD	607934	wordpools/wasnorm_wordpool.txt	LTP064	ltpFR	1	6	0	JOKER	759	n/a	1	n/a	n/a	n/a	n/a	n/a
1245.542	n/a	WORD	622771	wordpools/wasnorm_wordpool.txt	LTP064	ltpFR	1	7	0	DESSERT	453	n/a	0	0	0.5869140625	0.422607421875	upper	../fonts/zerothre.ttf
1249.392	n/a	WORD	624696	wordpools/wasnorm_wordpool.txt	LTP064	ltpFR	1	7	0	ROBOT	1200	n/a	1	0	0.5869140625	0.422607421875	upper	../fonts/zerothre.ttf
1253.392	n/a	WORD	626696	wordpools/wasnorm_wordpool.txt	LTP064	ltpFR	1	7	0	CORPORATION	382	n/a	1	0	0.5869140625	0.422607421875	upper	../fonts/zerothre.ttf
1257.258	n/a	WORD	628629	wordpools/wasnorm_wordpool.txt	LTP064	ltpFR	1	7	0	AUDIENCE	59	n/a	1	0	0.5869140625	0.422607421875	upper	../fonts/zerothre.ttf
1261.342	n/a	WORD	630671	wordpools/wasnorm_wordpool.txt	LTP064	ltpFR	1	7	0	COLT	349	n/a	1	0	0.5869140625	0.422607421875	upper	../fonts/zerothre.ttf
1265.242	n/a	WORD	632621	wordpools/wasnorm_wordpool.txt	LTP064	ltpFR	1	7	0	WEED	1599	n/a	1	0	0.5869140625	0.422607421875	upper	../fonts/zerothre.ttf
1269.226	n/a	WORD	634613	wordpools/wasnorm_wordpool.txt	LTP064	ltpFR	1	7	0	POISON	1096	n/a	1	0	0.5869140625	0.422607421875	upper	../fonts/zerothre.ttf
1273.108	n/a	WORD	636554	wordpools/wasnorm_wordpool.txt	LTP064	ltpFR	1	7	0	CASH	252	n/a	1	0	0.5869140625	0.422607421875	upper	../fonts/zerothre.ttf
1277.208	n/a	WORD	638604	wordpools/wasnorm_wordpool.txt	LTP064	ltpFR	1	7	0	SHINGLE	1285	n/a	0	0	0.5869140625	0.422607421875	upper	../fonts/zerothre.ttf
1281.182	n/a	WORD	640591	wordpools/wasnorm_wordpool.txt	LTP064	ltpFR	1	7	0	SIDING	1304	n/a	0	0	0.5869140625	0.422607421875	upper	../fonts/zerothre.ttf
1285.042	n/a	WORD	642521	wordpools/wasnorm_wordpool.txt	LTP064	ltpFR	1	7	0	BARN	89	n/a	1	0	0.5869140625	0.422607421875	upper	../fonts/zerothre.ttf
1289.132	n/a	WORD	644566	wordpools/wasnorm_wordpool.txt	LTP064	ltpFR	1	7	0	TAPE	1433	n/a	0	0	0.5869140625	0.422607421875	upper	../fonts/zerothre.ttf
1293.216	n/a	WORD	646608	wordpools/wasnorm_wordpool.txt	LTP064	ltpFR	1	7	0	PENNY	1045	n/a	0	0	0.5869140625	0.422607421875	upper	../fonts/zerothre.ttf
1297.308	n/a	WORD	648654	wordpools/wasnorm_wordpool.txt	LTP064	ltpFR	1	7	0	SLEIGH	1325	n/a	1	0	0.5869140625	0.422607421875	upper	../fonts/zerothre.ttf
1301.316	n/a	WORD	650658	wordpools/wasnorm_wordpool.txt	LTP064	ltpFR	1	7	0	MILITARY	894	n/a	1	0	0.5869140625	0.422607421875	upper	../fonts/zerothre.ttf
1305.472	n/a	WORD	652736	wordpools/wasnorm_wordpool.txt	LTP064	ltpFR	1	7	0	LIEUTENANT	818	n/a	1	0	0.5869140625	0.422607421875	upper	../fonts/zerothre.ttf
1311.574	n/a	REC_START	655787	n/a	LTP064	ltpFR	1	7	n/a	n/a	n/a	n/a	n/a	n/a	n/a	n/a	n/a	n/a
1311.792	n/a	REC_WORD	655896	wordpools/wasnorm_wordpool.txt	LTP064	ltpFR	1	7	0	PENNY	1045	n/a	0	n/a	n/a	n/a	n/a	n/a
1312.058	n/a	REC_WORD	656029	wordpools/wasnorm_wordpool.txt	LTP064	ltpFR	1	7	0	SLEIGH	1325	n/a	1	n/a	n/a	n/a	n/a	n/a
1312.536	n/a	REC_WORD	656268	wordpools/wasnorm_wordpool.txt	LTP064	ltpFR	1	7	0	MILITARY	894	n/a	1	n/a	n/a	n/a	n/a	n/a
1313.078	n/a	REC_WORD	656539	wordpools/wasnorm_wordpool.txt	LTP064	ltpFR	1	7	0	LIEUTENANT	818	n/a	1	n/a	n/a	n/a	n/a	n/a
1313.738	n/a	REC_WORD	656869	wordpools/wasnorm_wordpool.txt	LTP064	ltpFR	1	7	0	CORPORATION	382	n/a	1	n/a	n/a	n/a	n/a	n/a
1314.488	n/a	REC_WORD	657244	wordpools/wasnorm_wordpool.txt	LTP064	ltpFR	1	7	0	DESSERT	453	n/a	0	n/a	n/a	n/a	n/a	n/a
1314.83	n/a	REC_WORD	657415	wordpools/wasnorm_wordpool.txt	LTP064	ltpFR	1	7	0	ROBOT	1200	n/a	1	n/a	n/a	n/a	n/a	n/a
1315.342	n/a	REC_WORD	657671	wordpools/wasnorm_wordpool.txt	LTP064	ltpFR	1	7	0	AUDIENCE	59	n/a	1	n/a	n/a	n/a	n/a	n/a
1326.176	n/a	REC_WORD	663088	wordpools/wasnorm_wordpool.txt	LTP064	ltpFR	1	7	0	SHINGLE	1285	n/a	0	n/a	n/a	n/a	n/a	n/a
1326.67	n/a	REC_WORD	663335	wordpools/wasnorm_wordpool.txt	LTP064	ltpFR	1	7	0	SIDING	1304	n/a	0	n/a	n/a	n/a	n/a	n/a
1327.786	n/a	REC_WORD	663893	wordpools/wasnorm_wordpool.txt	LTP064	ltpFR	1	7	0	BARN	89	n/a	1	n/a	n/a	n/a	n/a	n/a
1328.212	n/a	REC_WORD	664106	wordpools/wasnorm_wordpool.txt	LTP064	ltpFR	1	7	0	TAPE	1433	n/a	0	n/a	n/a	n/a	n/a	n/a
1331.24	n/a	REC_WORD	665620	wordpools/wasnorm_wordpool.txt	LTP064	ltpFR	1	7	0	COLT	349	n/a	1	n/a	n/a	n/a	n/a	n/a
1331.684	n/a	REC_WORD	665842	wordpools/wasnorm_wordpool.txt	LTP064	ltpFR	1	7	0	WEED	1599	n/a	1	n/a	n/a	n/a	n/a	n/a
1332.124	n/a	REC_WORD	666062	wordpools/wasnorm_wordpool.txt	LTP064	ltpFR	1	7	0	POISON	1096	n/a	1	n/a	n/a	n/a	n/a	n/a
1332.634	n/a	REC_WORD	666317	wordpools/wasnorm_wordpool.txt	LTP064	ltpFR	1	7	0	CASH	252	n/a	1	n/a	n/a	n/a	n/a	n/a
1401.496	n/a	WORD	700748	wordpools/wasnorm_wordpool.txt	LTP064	ltpFR	1	8	-1	MILK	895	n/a	-1	1	1.0	1.0	upper	../fonts/Verdana.ttf
1405.346	n/a	WORD	702673	wordpools/wasnorm_wordpool.txt	LTP064	ltpFR	1	8	-1	BRAN	167	n/a	-1	1	1.0	1.0	upper	../fonts/Verdana.ttf
1409.254	n/a	WORD	704627	wordpools/wasnorm_wordpool.txt	LTP064	ltpFR	1	8	-1	TREASURE	1500	n/a	-1	1	1.0	1.0	upper	../fonts/Verdana.ttf
1413.072	n/a	WORD	706536	wordpools/wasnorm_wordpool.txt	LTP064	ltpFR	1	8	-1	SPINACH	1352	n/a	-1	1	1.0	1.0	upper	../fonts/Verdana.ttf
1417.23	n/a	WORD	708615	wordpools/wasnorm_wordpool.txt	LTP064	ltpFR	1	8	-1	MINK	897	n/a	-1	1	1.0	1.0	upper	../fonts/Verdana.ttf
1421.172	n/a	WORD	710586	wordpools/wasnorm_wordpool.txt	LTP064	ltpFR	1	8	-1	JACKET	747	n/a	-1	1	1.0	1.0	upper	../fonts/Verdana.ttf
1425.354	n/a	WORD	712677	wordpools/wasnorm_wordpool.txt	LTP064	ltpFR	1	8	-1	HOSPITAL	721	n/a	-1	1	1.0	1.0	upper	../fonts/Verdana.ttf
1429.22	n/a	WORD	714610	wordpools/wasnorm_wordpool.txt	LTP064	ltpFR	1	8	-1	OLIVE	975	n/a	-1	1	1.0	1.0	upper	../fonts/Verdana.ttf
1433.128	n/a	WORD	716564	wordpools/wasnorm_wordpool.txt	LTP064	ltpFR	1	8	-1	UMPIRE	1535	n/a	-1	1	1.0	1.0	upper	../fonts/Verdana.ttf
1437.338	n/a	WORD	718669	wordpools/wasnorm_wordpool.txt	LTP064	ltpFR	1	8	-1	LIGHTER	819	n/a	-1	1	1.0	1.0	upper	../fonts/Verdana.ttf
1441.246	n/a	WORD	720623	wordpools/wasnorm_wordpool.txt	LTP064	ltpFR	1	8	-1	VIRUS	1572	n/a	-1	1	1.0	1.0	upper	../fonts/Verdana.ttf
1445.22	n/a	WORD	722610	wordpools/wasnorm_wordpool.txt	LTP064	ltpFR	1	8	-1	DICE	461	n/a	-1	1	1.0	1.0	upper	../fonts/Verdana.ttf
1449.338	n/a	WORD	724669	wordpools/wasnorm_wordpool.txt	LTP064	ltpFR	1	8	-1	HALL	677	n/a	-1	1	1.0	1.0	upper	../fonts/Verdana.ttf
1453.502	n/a	WORD	726751	wordpools/wasnorm_wordpool.txt	LTP064	ltpFR	1	8	-1	CRIMINAL	409	n/a	-1	1	1.0	1.0	upper	../fonts/Verdana.ttf
1457.33	n/a	WORD	728665	wordpools/wasnorm_wordpool.txt	LTP064	ltpFR	1	8	-1	SLIDE	1326	n/a	-1	1	1.0	1.0	upper	../fonts/Verdana.ttf
1461.42	n/a	WORD	730710	wordpools/wasnorm_wordpool.txt	LTP064	ltpFR	1	8	-1	BUCKET	184	n/a	-1	1	1.0	1.0	upper	../fonts/Verdana.ttf
1467.27	n/a	REC_START	733635	n/a	LTP064	ltpFR	1	8	n/a	n/a	n/a	n/a	n/a	n/a	n/a	n/a	n/a	n/a
1467.54	n/a	REC_WORD	733770	wordpools/wasnorm_wordpool.txt	LTP064	ltpFR	1	8	-1	CRIMINAL	409	n/a	-1	n/a	n/a	n/a	n/a	n/a
1467.996	n/a	REC_WORD	733998	wordpools/wasnorm_wordpool.txt	LTP064	ltpFR	1	8	-1	HALL	677	n/a	-1	n/a	n/a	n/a	n/a	n/a
1468.422	n/a	REC_WORD	734211	wordpools/wasnorm_wordpool.txt	LTP064	ltpFR	1	8	-1	SLIDE	1326	n/a	-1	n/a	n/a	n/a	n/a	n/a
1469.042	n/a	REC_WORD	734521	wordpools/wasnorm_wordpool.txt	LTP064	ltpFR	1	8	-1	BUCKET	184	n/a	-1	n/a	n/a	n/a	n/a	n/a
1469.538	n/a	REC_WORD	734769	wordpools/wasnorm_wordpool.txt	LTP064	ltpFR	1	8	-1	TREASURE	1500	n/a	-1	n/a	n/a	n/a	n/a	n/a
1470.0	n/a	REC_WORD	735000	wordpools/wasnorm_wordpool.txt	LTP064	ltpFR	1	8	-1	SPINACH	1352	n/a	-1	n/a	n/a	n/a	n/a	n/a
1470.676	n/a	REC_WORD	735338	wordpools/wasnorm_wordpool.txt	LTP064	ltpFR	1	8	-1	MILK	895	n/a	-1	n/a	n/a	n/a	n/a	n/a
1471.206	n/a	REC_WORD	735603	wordpools/wasnorm_wordpool.txt	LTP064	ltpFR	1	8	-1	BRAN	167	n/a	-1	n/a	n/a	n/a	n/a	n/a
1485.29	n/a	REC_WORD	742645	wordpools/wasnorm_wordpool.txt	LTP064	ltpFR	1	8	-1	MINK	897	n/a	-1	n/a	n/a	n/a	n/a	n/a
1485.602	n/a	REC_WORD	742801	wordpools/wasnorm_wordpool.txt	LTP064	ltpFR	1	8	n/a	COAT	333	n/a	n/a	n/a	n/a	n/a	n/a	n/a
1485.916	n/a	REC_WORD	742958	wordpools/wasnorm_wordpool.txt	LTP064	ltpFR	1	8	-1	OLIVE	975	n/a	-1	n/a	n/a	n/a	n/a	n/a
1486.262	n/a	REC_WORD	743131	wordpools/wasnorm_wordpool.txt	LTP064	ltpFR	1	8	-1	HOSPITAL	721	n/a	-1	n/a	n/a	n/a	n/a	n/a
1554.876	n/a	WORD	777438	wordpools/wasnorm_wordpool.txt	LTP064	ltpFR	1	9	1	LEVER	815	n/a	0	1	0.412841796875	0.57763671875	lower	../fonts/amplitud.ttf
1558.776	n/a	WORD	779388	wordpools/wasnorm_wordpool.txt	LTP064	ltpFR	1	9	1	HOSTAGE	722	n/a	1	1	0.412841796875	0.57763671875	lower	../fonts/amplitud.ttf
1562.952	n/a	WORD	781476	wordpools/wasnorm_wordpool.txt	LTP064	ltpFR	1	9	1	CHECKERS	285	n/a	0	1	0.412841796875	0.57763671875	lower	../fonts/amplitud.ttf
1566.96	n/a	WORD	783480	wordpools/wasnorm_wordpool.txt	LTP064	ltpFR	1	9	1	CHESS	294	n/a	0	1	0.412841796875	0.57763671875	lower	../fonts/amplitud.ttf
1571.026	n/a	WORD	785513	wordpools/wasnorm_wordpool.txt	LTP064	ltpFR	1	9	1	SLEEVE	1324	n/a	0	1	0.412841796875	0.57763671875	lower	../fonts/amplitud.ttf
1575.058	n/a	WORD	787529	wordpools/wasnorm_wordpool.txt	LTP064	ltpFR	1	9	1	PANTS	1010	n/a	0	1	0.412841796875	0.57763671875	lower	../fonts/amplitud.ttf
1578.926	n/a	WORD	789463	wordpools/wasnorm_wordpool.txt	LTP064	ltpFR	1	9	1	DUCK	504	n/a	1	1	0.412841796875	0.57763671875	lower	../fonts/amplitud.ttf
1583.084	n/a	WORD	791542	wordpools/wasnorm_wordpool.txt	LTP064	ltpFR	1	9	1	BEAVER	109	n/a	1	1	0.412841796875	0.57763671875	lower	../fonts/amplitud.ttf
1586.958	n/a	WORD	793479	wordpools/wasnorm_wordpool.txt	LTP064	ltpFR	1	9	1	DRUM	502	n/a	0	1	0.412841796875	0.57763671875	lower	../fonts/amplitud.ttf
1590.784	n/a	WORD	795392	wordpools/wasnorm_wordpool.txt	LTP064	ltpFR	1	9	1	MAGNET	855	n/a	0	1	0.412841796875	0.57763671875	lower	../fonts/amplitud.ttf
1594.85	n/a	WORD	797425	wordpools/wasnorm_wordpool.txt	LTP064	ltpFR	1	9	1	DEER	444	n/a	1	1	0.412841796875	0.57763671875	lower	../fonts/amplitud.ttf
1599.05	n/a	WORD	799525	wordpools/wasnorm_wordpool.txt	LTP064	ltpFR	1	9	1	RAM	1165	n/a	1	1	0.412841796875	0.57763671875	lower	../fonts/amplitud.ttf
1603.2	n/a	WORD	801600	wordpools/wasnorm_wordpool.txt	LTP064	ltpFR	1	9	1	CHICK	296	n/a	1	1	0.412841796875	0.57763671875	lower	../fonts/amplitud.ttf
1607.166	n/a	WORD	803583	wordpools/wasnorm_wordpool.txt	LTP064	ltpFR	1	9	1	PORCUPINE	1107	n/a	1	1	0.412841796875	0.57763671875	lower	../fonts/amplitud.ttf
1611.05	n/a	WORD	805525	wordpools/wasnorm_wordpool.txt	LTP064	ltpFR	1	9	1	BEAKER	104	n/a	0	1	0.412841796875	0.57763671875	lower	../fonts/amplitud.ttf
1615.082	n/a	WORD	807541	wordpools/wasnorm_wordpool.txt	LTP064	ltpFR	1	9	1	CONCERT	360	n/a	0	1	0.412841796875	0.57763671875	lower	../fonts/amplitud.ttf
1621.1	n/a	REC_START	810550	n/a	LTP064	ltpFR	1	9	n/a	n/a	n/a	n/a	n/a	n/a	n/a	n/a	n/a	n/a
1621.444	n/a	REC_WORD	810722	wordpools/wasnorm_wordpool.txt	LTP064	ltpFR	1	9	1	CONCERT	360	n/a	0	n/a	n/a	n/a	n/a	n/a
1621.978	n/a	REC_WORD	810989	wordpools/wasnorm_wordpool.txt	LTP064	ltpFR	1	9	1	BEAKER	104	n/a	0	n/a	n/a	n/a	n/a	n/a
1622.384	n/a	REC_WORD	811192	wordpools/wasnorm_wordpool.txt	LTP064	ltpFR	1	9	1	PORCUPINE	1107	n/a	1	n/a	n/a	n/a	n/a	n/a
1623.12	n/a	REC_WORD	811560	wordpools/wasnorm_wordpool.txt	LTP064	ltpFR	1	9	n/a	CHIP	303	n/a	n/a	n/a	n/a	n/a	n/a	n/a
1624.916	n/a	REC_WORD	812458	wordpools/wasnorm_wordpool.txt	LTP064	ltpFR	1	9	1	DUCK	504	n/a	1	n/a	n/a	n/a	n/a	n/a
1625.506	n/a	REC_WORD	812753	wordpools/wasnorm_wordpool.txt	LTP064	ltpFR	1	9	1	PANTS	1010	n/a	0	n/a	n/a	n/a	n/a	n/a
1626.026	n/a	REC_WORD	813013	wordpools/wasnorm_wordpool.txt	LTP064	ltpFR	1	9	1	SLEEVE	1324	n/a	0	n/a	n/a	n/a	n/a	n/a
1626.608	n/a	REC_WORD	813304	wordpools/wasnorm_wordpool.txt	LTP064	ltpFR	1	9	1	BEAVER	109	n/a	1	n/a	n/a	n/a	n/a	n/a
1629.816	n/a	REC_WORD	814908	wordpools/wasnorm_wordpool.txt	LTP064	ltpFR	1	9	1	DEER	444	n/a	1	n/a	n/a	n/a	n/a	n/a
1630.394	n/a	REC_WORD	815197	wordpools/wasnorm_wordpool.txt	LTP064	ltpFR	1	9	1	RAM	1165	n/a	1	n/a	n/a	n/a	n/a	n/a
1631.258	n/a	REC_WORD	815629	wordpools/wasnorm_wordpool.txt	LTP064	ltpFR	1	9	1	DRUM	502	n/a	0	n/a	n/a	n/a	n/a	n/a
1631.758	n/a	REC_WORD	815879	wordpools/wasnorm_wordpool.txt	LTP064	ltpFR	1	9	1	MAGNET	855	n/a	0	n/a	n/a	n/a	n/a	n/a
1659.204	n/a	REC_WORD	829602	wordpools/wasnorm_wordpool.txt	LTP064	ltpFR	1	9	1	CHECKERS	285	n/a	0	n/a	n/a	n/a	n/a	n/a
1659.752	n/a	REC_WORD	829876	wordpools/wasnorm_wordpool.txt	LTP064	ltpFR	1	9	1	CHESS	294	n/a	0	n/a	n/a	n/a	n/a	n/a
1660.166	n/a	REC_WORD	830083	wordpools/wasnorm_wordpool.txt	LTP064	ltpFR	1	9	1	LEVER	815	n/a	0	n/a	n/a	n/a	n/a	n/a
1660.562	n/a	REC_WORD	830281	wordpools/wasnorm_wordpool.txt	LTP064	ltpFR	1	9	1	CAPTIVE	240	n/a	1	n/a	n/a	n/a	n/a	n/a
1706.222	n/a	WORD	853111	wordpools/wasnorm_wordpool.txt	LTP064	ltpFR	1	10	-1	TRENCH	1503	n/a	-1	1	1.0	1.0	upper	../fonts/Verdana.ttf
1710.098	n/a	WORD	855049	wordpools/wasnorm_wordpool.txt	LTP064	ltpFR	1	10	-1	TAVERN	1437	n/a	-1	1	1.0	1.0	upper	../fonts/Verdana.ttf
1714.214	n/a	WORD	857107	wordpools/wasnorm_wordpool.txt	LTP064	ltpFR	1	10	-1	FLESH	579	n/a	-1	1	1.0	1.0	upper	../fonts/Verdana.ttf
1718.148	n/a	WORD	859074	wordpools/wasnorm_wordpool.txt	LTP064	ltpFR	1	10	-1	MOUTH	926	n/a	-1	1	1.0	1.0	upper	../fonts/Verdana.ttf
1722.164	n/a	WORD	861082	wordpools/wasnorm_wordpool.txt	LTP064	ltpFR	1	10	-1	ANIMAL	23	n/a	-1	1	1.0	1.0	upper	../fonts/Verdana.ttf
1726.254	n/a	WORD	863127	wordpools/wasnorm_wordpool.txt	LTP064	ltpFR	1	10	-1	PEANUT	1032	n/a	-1	1	1.0	1.0	upper	../fonts/Verdana.ttf
1730.122	n/a	WORD	865061	wordpools/wasnorm_wordpool.txt	LTP064	ltpFR	1	10	-1	ALMOND	18	n/a	-1	1	1.0	1.0	upper	../fonts/Verdana.ttf
1733.996	n/a	WORD	866998	wordpools/wasnorm_wordpool.txt	LTP064	ltpFR	1	10	-1	VINE	1568	n/a	-1	1	1.0	1.0	upper	../fonts/Verdana.ttf
1737.988	n/a	WORD	868994	wordpools/wasnorm_wordpool.txt	LTP064	ltpFR	1	10	-1	CHAMPAGNE	278	n/a	-1	1	1.0	1.0	upper	../fonts/Verdana.ttf
1742.112	n/a	WORD	871056	wordpools/wasnorm_wordpool.txt	LTP064	ltpFR	1	10	-1	RACKET	1155	n/a	-1	1	1.0	1.0	upper	../fonts/Verdana.ttf
1746.262	n/a	WORD	873131	wordpools/wasnorm_wordpool.txt	LTP064	ltpFR	1	10	-1	CHAIN	273	n/a	-1	1	1.0	1.0	upper	../fonts/Verdana.ttf
1750.138	n/a	WORD	875069	wordpools/wasnorm_wordpool.txt	LTP064	ltpFR	1	10	-1	COAL	332	n/a	-1	1	1.0	1.0	upper	../fonts/Verdana.ttf
1754.064	n/a	WORD	877032	wordpools/wasnorm_wordpool.txt	LTP064	ltpFR	1	10	-1	DENIM	446	n/a	-1	1	1.0	1.0	upper	../fonts/Verdana.ttf
1757.912	n/a	WORD	878956	wordpools/wasnorm_wordpool.txt	LTP064	ltpFR	1	10	-1	SKIN	1318	n/a	-1	1	1.0	1.0	upper	../fonts/Verdana.ttf
1761.78	n/a	WORD	880890	wordpools/wasnorm_wordpool.txt	LTP064	ltpFR	1	10	-1	BEAR	106	n/a	-1	1	1.0	1.0	upper	../fonts/Verdana.ttf
1765.678	n/a	WORD	882839	wordpools/wasnorm_wordpool.txt	LTP064	ltpFR	1	10	-1	JUGGLER	763	n/a	-1	1	1.0	1.0	upper	../fonts/Verdana.ttf
1771.58	n/a	REC_START	885790	n/a	LTP064	ltpFR	1	10	n/a	n/a	n/a	n/a	n/a	n/a	n/a	n/a	n/a	n/a
1771.928	n/a	REC_WORD	885964	wordpools/wasnorm_wordpool.txt	LTP064	ltpFR	1	10	-1	JUGGLER	763	n/a	-1	n/a	n/a	n/a	n/a	n/a
1772.382	n/a	REC_WORD	886191	wordpools/wasnorm_wordpool.txt	LTP064	ltpFR	1	10	-1	BEAR	106	n/a	-1	n/a	n/a	n/a	n/a	n/a
1772.716	n/a	REC_WORD	886358	wordpools/wasnorm_wordpool.txt	LTP064	ltpFR	1	10	-1	DENIM	446	n/a	-1	n/a	n/a	n/a	n/a	n/a
1773.058	n/a	REC_WORD	886529	wordpools/wasnorm_wordpool.txt	LTP064	ltpFR	1	10	-1	SKIN	1318	n/a	-1	n/a	n/a	n/a	n/a	n/a
1773.928	n/a	REC_WORD	886964	wordpools/wasnorm_wordpool.txt	LTP064	ltpFR	1	10	-1	ALMOND	18	n/a	-1	n/a	n/a	n/a	n/a	n/a
1775.036	n/a	REC_WORD	887518	wordpools/wasnorm_wordpool.txt	LTP064	ltpFR	1	10	-1	PEANUT	1032	n/a	-1	n/a	n/a	n/a	n/a	n/a
1775.58	n/a	REC_WORD	887790	wordpools/wasnorm_wordpool.txt	LTP064	ltpFR	1	10	-1	VINE	1568	n/a	-1	n/a	n/a	n/a	n/a	n/a
1776.282	n/a	REC_WORD	888141	wordpools/wasnorm_wordpool.txt	LTP064	ltpFR	1	10	-1	ANIMAL	23	n/a	-1	n/a	n/a	n/a	n/a	n/a
1778.104	n/a	REC_WORD	889052	wordpools/wasnorm_wordpool.txt	LTP064	ltpFR	1	10	-1	CHAMPAGNE	278	n/a	-1	n/a	n/a	n/a	n/a	n/a
1778.894	n/a	REC_WORD	889447	wordpools/wasnorm_wordpool.txt	LTP064	ltpFR	1	10	-1	RACKET	1155	n/a	-1	n/a	n/a	n/a	n/a	n/a
1779.474	n/a	REC_WORD	889737	wordpools/wasnorm_wordpool.txt	LTP064	ltpFR	1	10	-1	CHAIN	273	n/a	-1	n/a	n/a	n/a	n/a	n/a
1779.914	n/a	REC_WORD	889957	wordpools/wasnorm_wordpool.txt	LTP064	ltpFR	1	10	-1	COAL	332	n/a	-1	n/a	n/a	n/a	n/a	n/a
1805.508	n/a	REC_WORD	902754	wordpools/wasnorm_wordpool.txt	LTP064	ltpFR	1	10	-1	TAVERN	1437	n/a	-1	n/a	n/a	n/a	n/a	n/a
1805.92	n/a	REC_WORD	902960	wordpools/wasnorm_wordpool.txt	LTP064	ltpFR	1	10	-1	TRENCH	1503	n/a	-1	n/a	n/a	n/a	n/a	n/a
1806.454	n/a	REC_WORD	903227	wordpools/wasnorm_wordpool.txt	LTP064	ltpFR	1	10	-1	FLESH	579	n/a	-1	n/a	n/a	n/a	n/a	n/a
1806.872	n/a	REC_WORD	903436	wordpools/wasnorm_wordpool.txt	LTP064	ltpFR	1	10	-1	MOUTH	926	n/a	-1	n/a	n/a	n/a	n/a	n/a
1860.542	n/a	WORD	930271	wordpools/wasnorm_wordpool.txt	LTP064	ltpFR	1	11	0	FLEA	577	n/a	0	0	0.5869140625	0.422607421875	upper	../fonts/zerothre.ttf
1864.626	n/a	WORD	932313	wordpools/wasnorm_wordpool.txt	LTP064	ltpFR	1	11	0	TICK	1463	n/a	0	0	0.5869140625	0.422607421875	upper	../fonts/zerothre.ttf
1868.684	n/a	WORD	934342	wordpools/wasnorm_wordpool.txt	LTP064	ltpFR	1	11	0	CIGARETTE	309	n/a	0	0	0.5869140625	0.422607421875	upper	../fonts/zerothre.ttf
1872.702	n/a	WORD	936351	wordpools/wasnorm_wordpool.txt	LTP064	ltpFR	1	11	1	KNOB	787	n/a	0	1	0.412841796875	0.57763671875	lower	../fonts/amplitud.ttf
1876.81	n/a	WORD	938405	wordpools/wasnorm_wordpool.txt	LTP064	ltpFR	1	11	1	TROMBONE	1508	n/a	0	1	0.412841796875	0.57763671875	lower	../fonts/amplitud.ttf
1880.794	n/a	WORD	940397	wordpools/wasnorm_wordpool.txt	LTP064	ltpFR	1	11	1	BUGLE	189	n/a	0	1	0.412841796875	0.57763671875	lower	../fonts/amplitud.ttf
1884.71	n/a	WORD	942355	wordpools/wasnorm_wordpool.txt	LTP064	ltpFR	1	11	1	BODY	145	n/a	1	1	0.412841796875	0.57763671875	lower	../fonts/amplitud.ttf
1888.624	n/a	WORD	944312	wordpools/wasnorm_wordpool.txt	LTP064	ltpFR	1	11	0	GUITAR	670	n/a	1	0	0.5869140625	0.422607421875	upper	../fonts/zerothre.ttf
1892.524	n/a	WORD	946262	wordpools/wasnorm_wordpool.txt	LTP064	ltpFR	1	11	0	BABY	64	n/a	0	0	0.5869140625	0.422607421875	upper	../fonts/zerothre.ttf
1896.726	n/a	WORD	948363	wordpools/wasnorm_wordpool.txt	LTP064	ltpFR	1	11	0	KID	775	n/a	0	0	0.5869140625	0.422607421875	upper	../fonts/zerothre.ttf
1900.818	n/a	WORD	950409	wordpools/wasnorm_wordpool.txt	LTP064	ltpFR	1	11	0	ATMOSPHERE	54	n/a	1	0	0.5869140625	0.422607421875	upper	../fonts/zerothre.ttf
1904.86	n/a	WORD	952430	wordpools/wasnorm_wordpool.txt	LTP064	ltpFR	1	11	0	GALAXY	617	n/a	1	0	0.5869140625	0.422607421875	upper	../fonts/zerothre.ttf
1909.026	n/a	WORD	954513	wordpools/wasnorm_wordpool.txt	LTP064	ltpFR	1	11	1	GANGSTER	620	n/a	1	1	0.412841796875	0.57763671875	lower	../fonts/amplitud.ttf
1913.208	n/a	WORD	956604	wordpools/wasnorm_wordpool.txt	LTP064	ltpFR	1	11	1	FLORIDA	582	n/a	0	1	0.412841796875	0.57763671875	lower	../fonts/amplitud.ttf
1917.184	n/a	WORD	958592	wordpools/wasnorm_wordpool.txt	LTP064	ltpFR	1	11	1	CARAVAN	242	n/a	0	1	0.412841796875	0.57763671875	lower	../fonts/amplitud.ttf
1921.392	n/a	WORD	960696	wordpools/wasnorm_wordpool.txt	LTP064	ltpFR	1	11	1	BULLET	194	n/a	0	1	0.412841796875	0.57763671875	lower	../fonts/amplitud.ttf
1927.018	n/a	REC_START	963509	n/a	LTP064	ltpFR	1	11	n/a	n/a	n/a	n/a	n/a	n/a	n/a	n/a	n/a	n/a
1927.362	n/a	REC_WORD	963681	wordpools/wasnorm_wordpool.txt	LTP064	ltpFR	1	11	1	GANGSTER	620	n/a	1	n/a	n/a	n/a	n/a	n/a
1927.804	n/a	REC_WORD	963902	wordpools/wasnorm_wordpool.txt	LTP064	ltpFR	1	11	1	FLORIDA	582	n/a	0	n/a	n/a	n/a	n/a	n/a
1928.432	n/a	REC_WORD	964216	wordpools/wasnorm_wordpool.txt	LTP064	ltpFR	1	11	1	CARAVAN	242	n/a	0	n/a	n/a	n/a	n/a	n/a
1929.156	n/a	REC_WORD	964578	wordpools/wasnorm_wordpool.txt	LTP064	ltpFR	1	11	1	BULLET	194	n/a	0	n/a	n/a	n/a	n/a	n/a
1929.574	n/a	REC_WORD	964787	wordpools/wasnorm_wordpool.txt	LTP064	ltpFR	1	11	1	TROMBONE	1508	n/a	0	n/a	n/a	n/a	n/a	n/a
1932.03	n/a	REC_WORD	966015	wordpools/wasnorm_wordpool.txt	LTP064	ltpFR	1	11	0	GUITAR	670	n/a	1	n/a	n/a	n/a	n/a	n/a
1933.942	n/a	REC_WORD	966971	wordpools/wasnorm_wordpool.txt	LTP064	ltpFR	1	11	n/a	TUBA	1515	n/a	n/a	n/a	n/a	n/a	n/a	n/a
1935.15	n/a	REC_WORD	967575	wordpools/wasnorm_wordpool.txt	LTP064	ltpFR	1	11	1	BODY	145	n/a	1	n/a	n/a	n/a	n/a	n/a
1937.894	n/a	REC_WORD	968947	wordpools/wasnorm_wordpool.txt	LTP064	ltpFR	1	11	0	FLEA	577	n/a	0	n/a	n/a	n/a	n/a	n/a
1938.344	n/a	REC_WORD	969172	wordpools/wasnorm_wordpool.txt	LTP064	ltpFR	1	11	0	TICK	1463	n/a	0	n/a	n/a	n/a	n/a	n/a
1938.634	n/a	REC_WORD	969317	wordpools/wasnorm_wordpool.txt	LTP064	ltpFR	1	11	0	CIGARETTE	309	n/a	0	n/a	n/a	n/a	n/a	n/a
1939.216	n/a	REC_WORD	969608	wordpools/wasnorm_wordpool.txt	LTP064	ltpFR	1	11	1	KNOB	787	n/a	0	n/a	n/a	n/a	n/a	n/a
2010.374	n/a	WORD	1005187	wordpools/wasnorm_wordpool.txt	LTP064	ltpFR	1	12	1	ROOST	1208	n/a	0	1	0.412841796875	0.57763671875	lower	../fonts/amplitud.ttf
2014.438	n/a	WORD	1007219	wordpools/wasnorm_wordpool.txt	LTP064	ltpFR	1	12	1	ICING	732	n/a	0	1	0.412841796875	0.57763671875	lower	../fonts/amplitud.ttf
2018.58	n/a	WORD	1009290	wordpools/wasnorm_wordpool.txt	LTP064	ltpFR	1	12	1	WOMAN	1620	n/a	1	1	0.412841796875	0.57763671875	lower	../fonts/amplitud.ttf
2022.688	n/a	WORD	1011344	wordpools/wasnorm_wordpool.txt	LTP064	ltpFR	1	12	0	HEN	703	n/a	0	0	0.5869140625	0.422607421875	upper	../fonts/zerothre.ttf
2026.872	n/a	WORD	1013436	wordpools/wasnorm_wordpool.txt	LTP064	ltpFR	1	12	0	LADDER	793	n/a	1	0	0.5869140625	0.422607421875	upper	../fonts/zerothre.ttf
2030.93	n/a	WORD	1015465	wordpools/wasnorm_wordpool.txt	LTP064	ltpFR	1	12	1	THIEF	1456	n/a	1	1	0.412841796875	0.57763671875	lower	../fonts/amplitud.ttf
2034.998	n/a	WORD	1017499	wordpools/wasnorm_wordpool.txt	LTP064	ltpFR	1	12	1	OUTLAW	989	n/a	1	1	0.412841796875	0.57763671875	lower	../fonts/amplitud.ttf
2038.998	n/a	WORD	1019499	wordpools/wasnorm_wordpool.txt	LTP064	ltpFR	1	12	1	TWINE	1529	n/a	0	1	0.412841796875	0.57763671875	lower	../fonts/amplitud.ttf
2042.872	n/a	WORD	1021436	wordpools/wasnorm_wordpool.txt	LTP064	ltpFR	1	12	0	SHOELACE	1289	n/a	0	0	0.5869140625	0.422607421875	upper	../fonts/zerothre.ttf
2046.898	n/a	WORD	1023449	wordpools/wasnorm_wordpool.txt	LTP064	ltpFR	1	12	0	BREAST	171	n/a	1	0	0.5869140625	0.422607421875	upper	../fonts/zerothre.ttf
2050.972	n/a	WORD	1025486	wordpools/wasnorm_wordpool.txt	LTP064	ltpFR	1	12	0	BARLEY	88	n/a	0	0	0.5869140625	0.422607421875	upper	../fonts/zerothre.ttf
2055.146	n/a	WORD	1027573	wordpools/wasnorm_wordpool.txt	LTP064	ltpFR	1	12	0	CHOCOLATE	306	n/a	0	0	0.5869140625	0.422607421875	upper	../fonts/zerothre.ttf
2059.146	n/a	WORD	1029573	wordpools/wasnorm_wordpool.txt	LTP064	ltpFR	1	12	0	SAUCER	1237	n/a	0	0	0.5869140625	0.422607421875	upper	../fonts/zerothre.ttf
2063.348	n/a	WORD	1031674	wordpools/wasnorm_wordpool.txt	LTP064	ltpFR	1	12	0	CAN	225	n/a	0	0	0.5869140625	0.422607421875	upper	../fonts/zerothre.ttf
2067.346	n/a	WORD	1033673	wordpools/wasnorm_wordpool.txt	LTP064	ltpFR	1	12	1	BRUNETTE	181	n/a	1	1	0.412841796875	0.57763671875	lower	../fonts/amplitud.ttf
2071.404	n/a	WORD	1035702	wordpools/wasnorm_wordpool.txt	LTP064	ltpFR	1	12	1	VETERAN	1561	n/a	1	1	0.412841796875	0.57763671875	lower	../fonts/amplitud.ttf
2077.322	n/a	REC_START	1038661	n/a	LTP064	ltpFR	1	12	n/a	n/a	n/a	n/a	n/a	n/a	n/a	n/a	n/a	n/a
2077.78	n/a	REC_WORD	1038890	wordpools/wasnorm_wordpool.txt	LTP064	ltpFR	1	12	0	SAUCER	1237	n/a	0	n/a	n/a	n/a	n/a	n/a
2078.328	n/a	REC_WORD	1039164	wordpools/wasnorm_wordpool.txt	LTP064	ltpFR	1	12	0	CAN	225	n/a	0	n/a	n/a	n/a	n/a	n/a
2078.756	n/a	REC_WORD	1039378	wordpools/wasnorm_wordpool.txt	LTP064	ltpFR	1	12	1	BRUNETTE	181	n/a	1	n/a	n/a	n/a	n/a	n/a
2079.192	n/a	REC_WORD	1039596	wordpools/wasnorm_wordpool.txt	LTP064	ltpFR	1	12	n/a	FEATHER	557	n/a	n/a	n/a	n/a	n/a	n/a	n/a
2079.9	n/a	REC_WORD	1039950	wordpools/wasnorm_wordpool.txt	LTP064	ltpFR	1	12	0	SHOELACE	1289	n/a	0	n/a	n/a	n/a	n/a	n/a
2080.688	n/a	REC_WORD	1040344	wordpools/wasnorm_wordpool.txt	LTP064	ltpFR	1	12	0	BREAST	171	n/a	1	n/a	n/a	n/a	n/a	n/a
2081.318	n/a	REC_WORD	1040659	wordpools/wasnorm_wordpool.txt	LTP064	ltpFR	1	12	0	BARLEY	88	n/a	0	n/a	n/a	n/a	n/a	n/a
2081.798	n/a	REC_WORD	1040899	wordpools/wasnorm_wordpool.txt	LTP064	ltpFR	1	12	0	CHOCOLATE	306	n/a	0	n/a	n/a	n/a	n/a	n/a
2091.614	n/a	REC_WORD	1045807	wordpools/wasnorm_wordpool.txt	LTP064	ltpFR	1	12	0	HEN	703	n/a	0	n/a	n/a	n/a	n/a	n/a
2092.038	n/a	REC_WORD	1046019	wordpools/wasnorm_wordpool.txt	LTP064	ltpFR	1	12	1	WOMAN	1620	n/a	1	n/a	n/a	n/a	n/a	n/a
2092.404	n/a	REC_WORD	1046202	wordpools/wasnorm_wordpool.txt	LTP064	ltpFR	1	12	1	ROOST	1208	n/a	0	n/a	n/a	n/a	n/a	n/a
2092.846	n/a	REC_WORD	1046423	wordpools/wasnorm_wordpool.txt	LTP064	ltpFR	1	12	1	ICING	732	n/a	0	n/a	n/a	n/a	n/a	n/a
2095.71	n/a	REC_WORD	1047855	wordpools/wasnorm_wordpool.txt	LTP064	ltpFR	1	12	0	LADDER	793	n/a	1	n/a	n/a	n/a	n/a	n/a
2096.052	n/a	REC_WORD	1048026	wordpools/wasnorm_wordpool.txt	LTP064	ltpFR	1	12	1	THIEF	1456	n/a	1	n/a	n/a	n/a	n/a	n/a
2096.562	n/a	REC_WORD	1048281	wordpools/wasnorm_wordpool.txt	LTP064	ltpFR	1	12	1	OUTLAW	989	n/a	1	n/a	n/a	n/a	n/a	n/a
2104.062	n/a	REC_WORD	1052031	wordpools/wasnorm_wordpool.txt	LTP064	ltpFR	1	12	1	TWINE	1529	n/a	0	n/a	n/a	n/a	n/a	n/a
2451.028	n/a	WORD	1225514	wordpools/wasnorm_wordpool.txt	LTP064	ltpFR	1	13	1	COOK	372	n/a	1	1	0.412841796875	0.57763671875	lower	../fonts/amplitud.ttf
2455.186	n/a	WORD	1227593	wordpools/wasnorm_wordpool.txt	LTP064	ltpFR	1	13	1	FEAST	556	n/a	0	1	0.412841796875	0.57763671875	lower	../fonts/amplitud.ttf
2459.104	n/a	WORD	1229552	wordpools/wasnorm_wordpool.txt	LTP064	ltpFR	1	13	1	FRAME	600	n/a	0	1	0.412841796875	0.57763671875	lower	../fonts/amplitud.ttf
2463.212	n/a	WORD	1231606	wordpools/wasnorm_wordpool.txt	LTP064	ltpFR	1	13	1	ELM	527	n/a	1	1	0.412841796875	0.57763671875	lower	../fonts/amplitud.ttf
2467.336	n/a	WORD	1233668	wordpools/wasnorm_wordpool.txt	LTP064	ltpFR	1	13	1	CORN	381	n/a	1	1	0.412841796875	0.57763671875	lower	../fonts/amplitud.ttf
2471.32	n/a	WORD	1235660	wordpools/wasnorm_wordpool.txt	LTP064	ltpFR	1	13	1	EDITOR	516	n/a	0	1	0.412841796875	0.57763671875	lower	../fonts/amplitud.ttf
2475.26	n/a	WORD	1237630	wordpools/wasnorm_wordpool.txt	LTP064	ltpFR	1	13	1	PISTOL	1075	n/a	0	1	0.412841796875	0.57763671875	lower	../fonts/amplitud.ttf
2479.27	n/a	WORD	1239635	wordpools/wasnorm_wordpool.txt	LTP064	ltpFR	1	13	1	MAILMAN	858	n/a	1	1	0.412841796875	0.57763671875	lower	../fonts/amplitud.ttf
2483.244	n/a	WORD	1241622	wordpools/wasnorm_wordpool.txt	LTP064	ltpFR	1	13	1	SALIVA	1226	n/a	0	1	0.412841796875	0.57763671875	lower	../fonts/amplitud.ttf
2487.228	n/a	WORD	1243614	wordpools/wasnorm_wordpool.txt	LTP064	ltpFR	1	13	1	NEWSSTAND	949	n/a	0	1	0.412841796875	0.57763671875	lower	../fonts/amplitud.ttf
2491.06	n/a	WORD	1245530	wordpools/wasnorm_wordpool.txt	LTP064	ltpFR	1	13	1	HOUSE	725	n/a	0	1	0.412841796875	0.57763671875	lower	../fonts/amplitud.ttf
2495.136	n/a	WORD	1247568	wordpools/wasnorm_wordpool.txt	LTP064	ltpFR	1	13	1	VISITOR	1573	n/a	1	1	0.412841796875	0.57763671875	lower	../fonts/amplitud.ttf
2498.994	n/a	WORD	1249497	wordpools/wasnorm_wordpool.txt	LTP064	ltpFR	1	13	1	LUMBER	848	n/a	0	1	0.412841796875	0.57763671875	lower	../fonts/amplitud.ttf
2503.102	n/a	WORD	1251551	wordpools/wasnorm_wordpool.txt	LTP064	ltpFR	1	13	1	HAM	678	n/a	1	1	0.412841796875	0.57763671875	lower	../fonts/amplitud.ttf
2506.97	n/a	WORD	1253485	wordpools/wasnorm_wordpool.txt	LTP064	ltpFR	1	13	1	BACON	67	n/a	0	1	0.412841796875	0.57763671875	lower	../fonts/amplitud.ttf
2510.994	n/a	WORD	1255497	wordpools/wasnorm_wordpool.txt	LTP064	ltpFR	1	13	1	VEAL	1551	n/a	0	1	0.412841796875	0.57763671875	lower	../fonts/amplitud.ttf
2516.642	n/a	REC_START	1258321	n/a	LTP064	ltpFR	1	13	n/a	n/a	n/a	n/a	n/a	n/a	n/a	n/a	n/a	n/a
2517.006	n/a	REC_WORD	1258503	wordpools/wasnorm_wordpool.txt	LTP064	ltpFR	1	13	1	LUMBER	848	n/a	0	n/a	n/a	n/a	n/a	n/a
2517.414	n/a	REC_WORD	1258707	wordpools/wasnorm_wordpool.txt	LTP064	ltpFR	1	13	1	HAM	678	n/a	1	n/a	n/a	n/a	n/a	n/a
2517.876	n/a	REC_WORD	1258938	wordpools/wasnorm_wordpool.txt	LTP064	ltpFR	1	13	1	BACON	67	n/a	0	n/a	n/a	n/a	n/a	n/a
2518.302	n/a	REC_WORD	1259151	wordpools/wasnorm_wordpool.txt	LTP064	ltpFR	1	13	1	VEAL	1551	n/a	0	n/a	n/a	n/a	n/a	n/a
2518.66	n/a	REC_WORD	1259330	wordpools/wasnorm_wordpool.txt	LTP064	ltpFR	1	13	1	SALIVA	1226	n/a	0	n/a	n/a	n/a	n/a	n/a
2519.228	n/a	REC_WORD	1259614	wordpools/wasnorm_wordpool.txt	LTP064	ltpFR	1	13	1	NEWSSTAND	949	n/a	0	n/a	n/a	n/a	n/a	n/a
2519.904	n/a	REC_WORD	1259952	wordpools/wasnorm_wordpool.txt	LTP064	ltpFR	1	13	1	HOUSE	725	n/a	0	n/a	n/a	n/a	n/a	n/a
2520.438	n/a	REC_WORD	1260219	wordpools/wasnorm_wordpool.txt	LTP064	ltpFR	1	13	1	VISITOR	1573	n/a	1	n/a	n/a	n/a	n/a	n/a
2521.966	n/a	REC_WORD	1260983	wordpools/wasnorm_wordpool.txt	LTP064	ltpFR	1	13	1	COOK	372	n/a	1	n/a	n/a	n/a	n/a	n/a
2522.338	n/a	REC_WORD	1261169	wordpools/wasnorm_wordpool.txt	LTP064	ltpFR	1	13	1	FRAME	600	n/a	0	n/a	n/a	n/a	n/a	n/a
2523.134	n/a	REC_WORD	1261567	wordpools/wasnorm_wordpool.txt	LTP064	ltpFR	1	13	1	FEAST	556	n/a	0	n/a	n/a	n/a	n/a	n/a
2523.754	n/a	REC_WORD	1261877	wordpools/wasnorm_wordpool.txt	LTP064	ltpFR	1	13	1	ELM	527	n/a	1	n/a	n/a	n/a	n/a	n/a
2528.816	n/a	REC_WORD	1264408	wordpools/wasnorm_wordpool.txt	LTP064	ltpFR	1	13	1	CORN	381	n/a	1	n/a	n/a	n/a	n/a	n/a
2529.288	n/a	REC_WORD	1264644	wordpools/wasnorm_wordpool.txt	LTP064	ltpFR	1	13	1	EDITOR	516	n/a	0	n/a	n/a	n/a	n/a	n/a
2529.948	n/a	REC_WORD	1264974	wordpools/wasnorm_wordpool.txt	LTP064	ltpFR	1	13	1	PISTOL	1075	n/a	0	n/a	n/a	n/a	n/a	n/a
2530.662	n/a	REC_WORD	1265331	wordpools/wasnorm_wordpool.txt	LTP064	ltpFR	1	13	1	MAILMAN	858	n/a	1	n/a	n/a	n/a	n/a	n/a
2609.092	n/a	WORD	1304546	wordpools/wasnorm_wordpool.txt	LTP064	ltpFR	1	14	0	FIST	572	n/a	1	0	0.5869140625	0.422607421875	upper	../fonts/zerothre.ttf
2613.292	n/a	WORD	1306646	wordpools/wasnorm_wordpool.txt	LTP064	ltpFR	1	14	0	CANDY	230	n/a	0	0	0.5869140625	0.422607421875	upper	../fonts/zerothre.ttf
2617.35	n/a	WORD	1308675	wordpools/wasnorm_wordpool.txt	LTP064	ltpFR	1	14	0	BOOK	149	n/a	0	0	0.5869140625	0.422607421875	upper	../fonts/zerothre.ttf
2621.316	n/a	WORD	1310658	wordpools/wasnorm_wordpool.txt	LTP064	ltpFR	1	14	0	GLOVE	642	n/a	1	0	0.5869140625	0.422607421875	upper	../fonts/zerothre.ttf
2625.308	n/a	WORD	1312654	wordpools/wasnorm_wordpool.txt	LTP064	ltpFR	1	14	0	MINT	898	n/a	0	0	0.5869140625	0.422607421875	upper	../fonts/zerothre.ttf
2629.292	n/a	WORD	1314646	wordpools/wasnorm_wordpool.txt	LTP064	ltpFR	1	14	0	METEOR	889	n/a	1	0	0.5869140625	0.422607421875	upper	../fonts/zerothre.ttf
2633.408	n/a	WORD	1316704	wordpools/wasnorm_wordpool.txt	LTP064	ltpFR	1	14	0	PRIEST	1122	n/a	1	0	0.5869140625	0.422607421875	upper	../fonts/zerothre.ttf
2637.514	n/a	WORD	1318757	wordpools/wasnorm_wordpool.txt	LTP064	ltpFR	1	14	0	FRIAR	605	n/a	1	0	0.5869140625	0.422607421875	upper	../fonts/zerothre.ttf
2641.53	n/a	WORD	1320765	wordpools/wasnorm_wordpool.txt	LTP064	ltpFR	1	14	0	TURKEY	1520	n/a	1	0	0.5869140625	0.422607421875	upper	../fonts/zerothre.ttf
2645.556	n/a	WORD	1322778	wordpools/wasnorm_wordpool.txt	LTP064	ltpFR	1	14	0	GROCERY	664	n/a	1	0	0.5869140625	0.422607421875	upper	../fonts/zerothre.ttf
2649.398	n/a	WORD	1324699	wordpools/wasnorm_wordpool.txt	LTP064	ltpFR	1	14	0	LIZARD	834	n/a	1	0	0.5869140625	0.422607421875	upper	../fonts/zerothre.ttf
2653.374	n/a	WORD	1326687	wordpools/wasnorm_wordpool.txt	LTP064	ltpFR	1	14	0	GRASSHOPPER	656	n/a	1	0	0.5869140625	0.422607421875	upper	../fonts/zerothre.ttf
2657.24	n/a	WORD	1328620	wordpools/wasnorm_wordpool.txt	LTP064	ltpFR	1	14	0	RATTLE	1170	n/a	0	0	0.5869140625	0.422607421875	upper	../fonts/zerothre.ttf
2661.106	n/a	WORD	1330553	wordpools/wasnorm_wordpool.txt	LTP064	ltpFR	1	14	0	UNIVERSE	1540	n/a	1	0	0.5869140625	0.422607421875	upper	../fonts/zerothre.ttf
2665.216	n/a	WORD	1332608	wordpools/wasnorm_wordpool.txt	LTP064	ltpFR	1	14	0	PADDLE	1000	n/a	0	0	0.5869140625	0.422607421875	upper	../fonts/zerothre.ttf
2669.306	n/a	WORD	1334653	wordpools/wasnorm_wordpool.txt	LTP064	ltpFR	1	14	0	SHEET	1279	n/a	0	0	0.5869140625	0.422607421875	upper	../fonts/zerothre.ttf
2675.148	n/a	REC_START	1337574	n/a	LTP064	ltpFR	1	14	n/a	n/a	n/a	n/a	n/a	n/a	n/a	n/a	n/a	n/a
2675.72	n/a	REC_WORD	1337860	wordpools/wasnorm_wordpool.txt	LTP064	ltpFR	1	14	0	RATTLE	1170	n/a	0	n/a	n/a	n/a	n/a	n/a
2676.17	n/a	REC_WORD	1338085	wordpools/wasnorm_wordpool.txt	LTP064	ltpFR	1	14	0	UNIVERSE	1540	n/a	1	n/a	n/a	n/a	n/a	n/a
2676.706	n/a	REC_WORD	1338353	wordpools/wasnorm_wordpool.txt	LTP064	ltpFR	1	14	0	PADDLE	1000	n/a	0	n/a	n/a	n/a	n/a	n/a
2677.066	n/a	REC_WORD	1338533	wordpools/wasnorm_wordpool.txt	LTP064	ltpFR	1	14	0	SHEET	1279	n/a	0	n/a	n/a	n/a	n/a	n/a
2677.882	n/a	REC_WORD	1338941	wordpools/wasnorm_wordpool.txt	LTP064	ltpFR	1	14	0	TURKEY	1520	n/a	1	n/a	n/a	n/a	n/a	n/a
2678.466	n/a	REC_WORD	1339233	wordpools/wasnorm_wordpool.txt	LTP064	ltpFR	1	14	0	GROCERY	664	n/a	1	n/a	n/a	n/a	n/a	n/a
2680.83	n/a	REC_WORD	1340415	wordpools/wasnorm_wordpool.txt	LTP064	ltpFR	1	14	0	LIZARD	834	n/a	1	n/a	n/a	n/a	n/a	n/a
2683.49	n/a	REC_WORD	1341745	wordpools/wasnorm_wordpool.txt	LTP064	ltpFR	1	14	n/a	REPTILE	1185	n/a	n/a	n/a	n/a	n/a	n/a	n/a
2708.46	n/a	REC_WORD	1354230	wordpools/wasnorm_wordpool.txt	LTP064	ltpFR	1	14	0	MINT	898	n/a	0	n/a	n/a	n/a	n/a	n/a
2708.84	n/a	REC_WORD	1354420	wordpools/wasnorm_wordpool.txt	LTP064	ltpFR	1	14	0	METEOR	889	n/a	1	n/a	n/a	n/a	n/a	n/a
2709.434	n/a	REC_WORD	1354717	wordpools/wasnorm_wordpool.txt	LTP064	ltpFR	1	14	0	PRIEST	1122	n/a	1	n/a	n/a	n/a	n/a	n/a
2709.936	n/a	REC_WORD	1354968	wordpools/wasnorm_wordpool.txt	LTP064	ltpFR	1	14	0	FRIAR	605	n/a	1	n/a	n/a	n/a	n/a	n/a
2727.982	n/a	REC_WORD	1363991	wordpools/wasnorm_wordpool.txt	LTP064	ltpFR	1	14	0	GLOVE	642	n/a	1	n/a	n/a	n/a	n/a	n/a
2728.422	n/a	REC_WORD	1364211	wordpools/wasnorm_wordpool.txt	LTP064	ltpFR	1	14	n/a	BOX	159	n/a	n/a	n/a	n/a	n/a	n/a	n/a
2729.032	n/a	REC_WORD	1364516	wordpools/wasnorm_wordpool.txt	LTP064	ltpFR	1	14	0	FIST	572	n/a	1	n/a	n/a	n/a	n/a	n/a
2729.42	n/a	REC_WORD	1364710	wordpools/wasnorm_wordpool.txt	LTP064	ltpFR	1	14	0	CANDY	230	n/a	0	n/a	n/a	n/a	n/a	n/a
2734.148	n/a	REC_WORD	1367074	wordpools/wasnorm_wordpool.txt	LTP064	ltpFR	1	14	0	BOOK	149	n/a	0	n/a	n/a	n/a	n/a	n/a
2747.258	n/a	REC_WORD	1373629	wordpools/wasnorm_wordpool.txt	LTP064	ltpFR	1	14	0	GLOVE	642	n/a	1	n/a	n/a	n/a	n/a	n/a
2763.128	n/a	WORD	1381564	wordpools/wasnorm_wordpool.txt	LTP064	ltpFR	1	15	-1	SCALLOP	1242	n/a	-1	1	1.0	1.0	upper	../fonts/Verdana.ttf
2767.128	n/a	WORD	1383564	wordpools/wasnorm_wordpool.txt	LTP064	ltpFR	1	15	-1	CABOOSE	214	n/a	-1	1	1.0	1.0	upper	../fonts/Verdana.ttf
2771.33	n/a	WORD	1385665	wordpools/wasnorm_wordpool.txt	LTP064	ltpFR	1	15	-1	COURSE	390	n/a	-1	1	1.0	1.0	upper	../fonts/Verdana.ttf
2775.162	n/a	WORD	1387581	wordpools/wasnorm_wordpool.txt	LTP064	ltpFR	1	15	-1	SHARK	1275	n/a	-1	1	1.0	1.0	upper	../fonts/Verdana.ttf
2778.988	n/a	WORD	1389494	wordpools/wasnorm_wordpool.txt	LTP064	ltpFR	1	15	-1	INTESTINE	742	n/a	-1	1	1.0	1.0	upper	../fonts/Verdana.ttf
2782.92	n/a	WORD	1391460	wordpools/wasnorm_wordpool.txt	LTP064	ltpFR	1	15	-1	CORD	379	n/a	-1	1	1.0	1.0	upper	../fonts/Verdana.ttf
2786.962	n/a	WORD	1393481	wordpools/wasnorm_wordpool.txt	LTP064	ltpFR	1	15	-1	WASHER	1592	n/a	-1	1	1.0	1.0	upper	../fonts/Verdana.ttf
2791.028	n/a	WORD	1395514	wordpools/wasnorm_wordpool.txt	LTP064	ltpFR	1	15	-1	ATHLETE	52	n/a	-1	1	1.0	1.0	upper	../fonts/Verdana.ttf
2794.896	n/a	WORD	1397448	wordpools/wasnorm_wordpool.txt	LTP064	ltpFR	1	15	-1	GYMNAST	675	n/a	-1	1	1.0	1.0	upper	../fonts/Verdana.ttf
2799.004	n/a	WORD	1399502	wordpools/wasnorm_wordpool.txt	LTP064	ltpFR	1	15	-1	COP	376	n/a	-1	1	1.0	1.0	upper	../fonts/Verdana.ttf
2802.886	n/a	WORD	1401443	wordpools/wasnorm_wordpool.txt	LTP064	ltpFR	1	15	-1	PLASTER	1085	n/a	-1	1	1.0	1.0	upper	../fonts/Verdana.ttf
2806.71	n/a	WORD	1403355	wordpools/wasnorm_wordpool.txt	LTP064	ltpFR	1	15	-1	SCREW	1254	n/a	-1	1	1.0	1.0	upper	../fonts/Verdana.ttf
2810.628	n/a	WORD	1405314	wordpools/wasnorm_wordpool.txt	LTP064	ltpFR	1	15	-1	TAXI	1438	n/a	-1	1	1.0	1.0	upper	../fonts/Verdana.ttf
2814.494	n/a	WORD	1407247	wordpools/wasnorm_wordpool.txt	LTP064	ltpFR	1	15	-1	RAZOR	1171	n/a	-1	1	1.0	1.0	upper	../fonts/Verdana.ttf
2818.552	n/a	WORD	1409276	wordpools/wasnorm_wordpool.txt	LTP064	ltpFR	1	15	-1	WOUND	1624	n/a	-1	1	1.0	1.0	upper	../fonts/Verdana.ttf
2822.61	n/a	WORD	1411305	wordpools/wasnorm_wordpool.txt	LTP064	ltpFR	1	15	-1	RAILROAD	1162	n/a	-1	1	1.0	1.0	upper	../fonts/Verdana.ttf
2828.586	n/a	REC_START	1414293	n/a	LTP064	ltpFR	1	15	n/a	n/a	n/a	n/a	n/a	n/a	n/a	n/a	n/a	n/a
2828.76	n/a	REC_WORD	1414380	wordpools/wasnorm_wordpool.txt	LTP064	ltpFR	1	15	-1	TAXI	1438	n/a	-1	n/a	n/a	n/a	n/a	n/a
2829.202	n/a	REC_WORD	1414601	wordpools/wasnorm_wordpool.txt	LTP064	ltpFR	1	15	-1	RAZOR	1171	n/a	-1	n/a	n/a	n/a	n/a	n/a
2829.668	n/a	REC_WORD	1414834	wordpools/wasnorm_wordpool.txt	LTP064	ltpFR	1	15	-1	WOUND	1624	n/a	-1	n/a	n/a	n/a	n/a	n/a
2830.13	n/a	REC_WORD	1415065	wordpools/wasnorm_wordpool.txt	LTP064	ltpFR	1	15	-1	RAILROAD	1162	n/a	-1	n/a	n/a	n/a	n/a	n/a
2830.808	n/a	REC_WORD	1415404	wordpools/wasnorm_wordpool.txt	LTP064	ltpFR	1	15	-1	GYMNAST	675	n/a	-1	n/a	n/a	n/a	n/a	n/a
2831.614	n/a	REC_WORD	1415807	wordpools/wasnorm_wordpool.txt	LTP064	ltpFR	1	15	-1	COP	376	n/a	-1	n/a	n/a	n/a	n/a	n/a
2832.682	n/a	REC_WORD	1416341	wordpools/wasnorm_wordpool.txt	LTP064	ltpFR	1	15	-1	SCREW	1254	n/a	-1	n/a	n/a	n/a	n/a	n/a
2833.454	n/a	REC_WORD	1416727	wordpools/wasnorm_wordpool.txt	LTP064	ltpFR	1	15	-1	PLASTER	1085	n/a	-1	n/a	n/a	n/a	n/a	n/a
2855.052	n/a	REC_WORD	1427526	wordpools/wasnorm_wordpool.txt	LTP064	ltpFR	1	15	-1	ATHLETE	52	n/a	-1	n/a	n/a	n/a	n/a	n/a
2855.592	n/a	REC_WORD	1427796	wordpools/wasnorm_wordpool.txt	LTP064	ltpFR	1	15	-1	INTESTINE	742	n/a	-1	n/a	n/a	n/a	n/a	n/a
2856.248	n/a	REC_WORD	1428124	wordpools/wasnorm_wordpool.txt	LTP064	ltpFR	1	15	-1	CORD	379	n/a	-1	n/a	n/a	n/a	n/a	n/a
2856.648	n/a	REC_WORD	1428324	wordpools/wasnorm_wordpool.txt	LTP064	ltpFR	1	15	-1	WASHER	1592	n/a	-1	n/a	n/a	n/a	n/a	n/a
2919.326	n/a	WORD	1459663	wordpools/wasnorm_wordpool.txt	LTP064	ltpFR	1	16	-1	MONUMENT	913	n/a	-1	1	1.0	1.0	upper	../fonts/Verdana.ttf
2923.466	n/a	WORD	1461733	wordpools/wasnorm_wordpool.txt	LTP064	ltpFR	1	16	-1	AUTOMOBILE	62	n/a	-1	1	1.0	1.0	upper	../fonts/Verdana.ttf
2927.35	n/a	WORD	1463675	wordpools/wasnorm_wordpool.txt	LTP064	ltpFR	1	16	-1	VEST	1559	n/a	-1	1	1.0	1.0	upper	../fonts/Verdana.ttf
2931.4	n/a	WORD	1465700	wordpools/wasnorm_wordpool.txt	LTP064	ltpFR	1	16	-1	BEETLE	116	n/a	-1	1	1.0	1.0	upper	../fonts/Verdana.ttf
2935.358	n/a	WORD	1467679	wordpools/wasnorm_wordpool.txt	LTP064	ltpFR	1	16	-1	SAP	1233	n/a	-1	1	1.0	1.0	upper	../fonts/Verdana.ttf
2939.342	n/a	WORD	1469671	wordpools/wasnorm_wordpool.txt	LTP064	ltpFR	1	16	-1	MUG	930	n/a	-1	1	1.0	1.0	upper	../fonts/Verdana.ttf
2943.2	n/a	WORD	1471600	wordpools/wasnorm_wordpool.txt	LTP064	ltpFR	1	16	-1	PREDATOR	1120	n/a	-1	1	1.0	1.0	upper	../fonts/Verdana.ttf
2947.208	n/a	WORD	1473604	wordpools/wasnorm_wordpool.txt	LTP064	ltpFR	1	16	-1	MONGOOSE	909	n/a	-1	1	1.0	1.0	upper	../fonts/Verdana.ttf
2951.082	n/a	WORD	1475541	wordpools/wasnorm_wordpool.txt	LTP064	ltpFR	1	16	-1	CITRUS	313	n/a	-1	1	1.0	1.0	upper	../fonts/Verdana.ttf
2954.932	n/a	WORD	1477466	wordpools/wasnorm_wordpool.txt	LTP064	ltpFR	1	16	-1	BANANA	77	n/a	-1	1	1.0	1.0	upper	../fonts/Verdana.ttf
2959.1	n/a	WORD	1479550	wordpools/wasnorm_wordpool.txt	LTP064	ltpFR	1	16	-1	DRINK	498	n/a	-1	1	1.0	1.0	upper	../fonts/Verdana.ttf
2963.116	n/a	WORD	1481558	wordpools/wasnorm_wordpool.txt	LTP064	ltpFR	1	16	-1	WINE	1613	n/a	-1	1	1.0	1.0	upper	../fonts/Verdana.ttf
2967.182	n/a	WORD	1483591	wordpools/wasnorm_wordpool.txt	LTP064	ltpFR	1	16	-1	CHAUFFEUR	283	n/a	-1	1	1.0	1.0	upper	../fonts/Verdana.ttf
2971.366	n/a	WORD	1485683	wordpools/wasnorm_wordpool.txt	LTP064	ltpFR	1	16	-1	KNOT	788	n/a	-1	1	1.0	1.0	upper	../fonts/Verdana.ttf
2975.274	n/a	WORD	1487637	wordpools/wasnorm_wordpool.txt	LTP064	ltpFR	1	16	-1	DISH	474	n/a	-1	1	1.0	1.0	upper	../fonts/Verdana.ttf
2979.316	n/a	WORD	1489658	wordpools/wasnorm_wordpool.txt	LTP064	ltpFR	1	16	-1	PIER	1063	n/a	-1	1	1.0	1.0	upper	../fonts/Verdana.ttf
2984.858	n/a	REC_START	1492429	n/a	LTP064	ltpFR	1	16	n/a	n/a	n/a	n/a	n/a	n/a	n/a	n/a	n/a	n/a
2985.136	n/a	REC_WORD	1492568	wordpools/wasnorm_wordpool.txt	LTP064	ltpFR	1	16	-1	CHAUFFEUR	283	n/a	-1	n/a	n/a	n/a	n/a	n/a
2985.778	n/a	REC_WORD	1492889	wordpools/wasnorm_wordpool.txt	LTP064	ltpFR	1	16	-1	KNOT	788	n/a	-1	n/a	n/a	n/a	n/a	n/a
2986.124	n/a	REC_WORD	1493062	wordpools/wasnorm_wordpool.txt	LTP064	ltpFR	1	16	-1	DISH	474	n/a	-1	n/a	n/a	n/a	n/a	n/a
2986.456	n/a	REC_WORD	1493228	wordpools/wasnorm_wordpool.txt	LTP064	ltpFR	1	16	-1	PIER	1063	n/a	-1	n/a	n/a	n/a	n/a	n/a
2988.698	n/a	REC_WORD	1494349	wordpools/wasnorm_wordpool.txt	LTP064	ltpFR	1	16	-1	PREDATOR	1120	n/a	-1	n/a	n/a	n/a	n/a	n/a
2989.2	n/a	REC_WORD	1494600	wordpools/wasnorm_wordpool.txt	LTP064	ltpFR	1	16	-1	MONGOOSE	909	n/a	-1	n/a	n/a	n/a	n/a	n/a
2990.694	n/a	REC_WORD	1495347	wordpools/wasnorm_wordpool.txt	LTP064	ltpFR	1	16	-1	SAP	1233	n/a	-1	n/a	n/a	n/a	n/a	n/a
2991.186	n/a	REC_WORD	1495593	wordpools/wasnorm_wordpool.txt	LTP064	ltpFR	1	16	-1	MUG	930	n/a	-1	n/a	n/a	n/a	n/a	n/a
2991.688	n/a	REC_WORD	1495844	wordpools/wasnorm_wordpool.txt	LTP064	ltpFR	1	16	-1	CITRUS	313	n/a	-1	n/a	n/a	n/a	n/a	n/a
2992.646	n/a	REC_WORD	1496323	wordpools/wasnorm_wordpool.txt	LTP064	ltpFR	1	16	n/a	ORANGE	980	n/a	n/a	n/a	n/a	n/a	n/a	n/a
2993.256	n/a	REC_WORD	1496628	wordpools/wasnorm_wordpool.txt	LTP064	ltpFR	1	16	-1	DRINK	498	n/a	-1	n/a	n/a	n/a	n/a	n/a
2993.614	n/a	REC_WORD	1496807	wordpools/wasnorm_wordpool.txt	LTP064	ltpFR	1	16	-1	WINE	1613	n/a	-1	n/a	n/a	n/a	n/a	n/a
3014.216	n/a	REC_WORD	1507108	wordpools/wasnorm_wordpool.txt	LTP064	ltpFR	1	16	-1	AUTOMOBILE	62	n/a	-1	n/a	n/a	n/a	n/a	n/a
3014.912	n/a	REC_WORD	1507456	wordpools/wasnorm_wordpool.txt	LTP064	ltpFR	1	16	-1	MONUMENT	913	n/a	-1	n/a	n/a	n/a	n/a	n/a
3016.078	n/a	REC_WORD	1508039	wordpools/wasnorm_wordpool.txt	LTP064	ltpFR	1	16	-1	BEETLE	116	n/a	-1	n/a	n/a	n/a	n/a	n/a
3016.8	n/a	REC_WORD	1508400	wordpools/wasnorm_wordpool.txt	LTP064	ltpFR	1	16	n/a	SWEATER	1419	n/a	n/a	n/a	n/a	n/a	n/a	n/a
3033.344	n/a	REC_WORD	1516672	wordpools/wasnorm_wordpool.txt	LTP064	ltpFR	1	16	0	SHIRT	1287	n/a	1	n/a	n/a	n/a	n/a	n/a
3075.988	n/a	REC_START	1537994	n/a	LTP064	ltpFR	1	n/a	n/a	n/a	n/a	n/a	n/a	n/a	n/a	n/a	n/a	n/a
3076.752	n/a	FFR_REC_WORD	1538376	wordpools/wasnorm_wordpool.txt	LTP064	ltpFR	1	n/a	-1	AUTOMOBILE	62	n/a	-1	n/a	n/a	n/a	n/a	n/a
3077.456	n/a	FFR_REC_WORD	1538728	wordpools/wasnorm_wordpool.txt	LTP064	ltpFR	1	n/a	-1	MONUMENT	913	n/a	-1	n/a	n/a	n/a	n/a	n/a
3078.218	n/a	FFR_REC_WORD	1539109	wordpools/wasnorm_wordpool.txt	LTP064	ltpFR	1	n/a	n/a	SWEATER	1419	n/a	n/a	n/a	n/a	n/a	n/a	n/a
3078.992	n/a	FFR_REC_WORD	1539496	wordpools/wasnorm_wordpool.txt	LTP064	ltpFR	1	n/a	-1	BEETLE	116	n/a	-1	n/a	n/a	n/a	n/a	n/a
3080.728	n/a	FFR_REC_WORD	1540364	wordpools/wasnorm_wordpool.txt	LTP064	ltpFR	1	n/a	-1	MUG	930	n/a	-1	n/a	n/a	n/a	n/a	n/a
3081.224	n/a	FFR_REC_WORD	1540612	wordpools/wasnorm_wordpool.txt	LTP064	ltpFR	1	n/a	-1	PREDATOR	1120	n/a	-1	n/a	n/a	n/a	n/a	n/a
3081.736	n/a	FFR_REC_WORD	1540868	wordpools/wasnorm_wordpool.txt	LTP064	ltpFR	1	n/a	-1	SAP	1233	n/a	-1	n/a	n/a	n/a	n/a	n/a
3082.48	n/a	FFR_REC_WORD	1541240	wordpools/wasnorm_wordpool.txt	LTP064	ltpFR	1	n/a	-1	MONGOOSE	909	n/a	-1	n/a	n/a	n/a	n/a	n/a
3087.13	n/a	FFR_REC_WORD	1543565	wordpools/wasnorm_wordpool.txt	LTP064	ltpFR	1	n/a	-1	DISH	474	n/a	-1	n/a	n/a	n/a	n/a	n/a
3089.204	n/a	FFR_REC_WORD_VV	1544602	wordpools/wasnorm_wordpool.txt	LTP064	ltpFR	1	n/a	n/a	<>	-1	n/a	n/a	n/a	n/a	n/a	n/a	n/a
3092.836	n/a	FFR_REC_WORD	1546418	wordpools/wasnorm_wordpool.txt	LTP064	ltpFR	1	n/a	-1	CITRUS	313	n/a	-1	n/a	n/a	n/a	n/a	n/a
3094.332	n/a	FFR_REC_WORD	1547166	wordpools/wasnorm_wordpool.txt	LTP064	ltpFR	1	n/a	-1	BANANA	77	n/a	-1	n/a	n/a	n/a	n/a	n/a
3095.83	n/a	FFR_REC_WORD	1547915	wordpools/wasnorm_wordpool.txt	LTP064	ltpFR	1	n/a	-1	DRINK	498	n/a	-1	n/a	n/a	n/a	n/a	n/a
3096.744	n/a	FFR_REC_WORD	1548372	wordpools/wasnorm_wordpool.txt	LTP064	ltpFR	1	n/a	-1	WINE	1613	n/a	-1	n/a	n/a	n/a	n/a	n/a
3101.806	n/a	FFR_REC_WORD	1550903	wordpools/wasnorm_wordpool.txt	LTP064	ltpFR	1	n/a	1	COOK	372	n/a	1	n/a	n/a	n/a	n/a	n/a
3102.156	n/a	FFR_REC_WORD	1551078	wordpools/wasnorm_wordpool.txt	LTP064	ltpFR	1	n/a	1	FRAME	600	n/a	0	n/a	n/a	n/a	n/a	n/a
3102.63	n/a	FFR_REC_WORD	1551315	wordpools/wasnorm_wordpool.txt	LTP064	ltpFR	1	n/a	1	ELM	527	n/a	1	n/a	n/a	n/a	n/a	n/a
3103.012	n/a	FFR_REC_WORD	1551506	wordpools/wasnorm_wordpool.txt	LTP064	ltpFR	1	n/a	1	FEAST	556	n/a	0	n/a	n/a	n/a	n/a	n/a
3128.338	n/a	FFR_REC_WORD	1564169	wordpools/wasnorm_wordpool.txt	LTP064	ltpFR	1	n/a	n/a	TUBA	1515	n/a	n/a	n/a	n/a	n/a	n/a	n/a
3128.69	n/a	FFR_REC_WORD	1564345	wordpools/wasnorm_wordpool.txt	LTP064	ltpFR	1	n/a	n/a	SAXOPHONE	1240	n/a	n/a	n/a	n/a	n/a	n/a	n/a
3129.576	n/a	FFR_REC_WORD	1564788	wordpools/wasnorm_wordpool.txt	LTP064	ltpFR	1	n/a	0	GUITAR	670	n/a	1	n/a	n/a	n/a	n/a	n/a
3131.032	n/a	FFR_REC_WORD	1565516	wordpools/wasnorm_wordpool.txt	LTP064	ltpFR	1	n/a	1	BODY	145	n/a	1	n/a	n/a	n/a	n/a	n/a
3133.136	n/a	FFR_REC_WORD	1566568	wordpools/wasnorm_wordpool.txt	LTP064	ltpFR	1	n/a	1	WOMAN	1620	n/a	1	n/a	n/a	n/a	n/a	n/a
3133.582	n/a	FFR_REC_WORD	1566791	wordpools/wasnorm_wordpool.txt	LTP064	ltpFR	1	n/a	0	HEN	703	n/a	0	n/a	n/a	n/a	n/a	n/a
3134.11	n/a	FFR_REC_WORD	1567055	wordpools/wasnorm_wordpool.txt	LTP064	ltpFR	1	n/a	1	ROOST	1208	n/a	0	n/a	n/a	n/a	n/a	n/a
3135.6	n/a	FFR_REC_WORD	1567800	wordpools/wasnorm_wordpool.txt	LTP064	ltpFR	1	n/a	1	ICING	732	n/a	0	n/a	n/a	n/a	n/a	n/a
3139.632	n/a	FFR_REC_WORD	1569816	wordpools/wasnorm_wordpool.txt	LTP064	ltpFR	1	n/a	0	BREAST	171	n/a	1	n/a	n/a	n/a	n/a	n/a
3140.034	n/a	FFR_REC_WORD	1570017	wordpools/wasnorm_wordpool.txt	LTP064	ltpFR	1	n/a	0	SHOELACE	1289	n/a	0	n/a	n/a	n/a	n/a	n/a
3142.89	n/a	FFR_REC_WORD	1571445	wordpools/wasnorm_wordpool.txt	LTP064	ltpFR	1	n/a	0	BARLEY	88	n/a	0	n/a	n/a	n/a	n/a	n/a
3143.556	n/a	FFR_REC_WORD	1571778	wordpools/wasnorm_wordpool.txt	LTP064	ltpFR	1	n/a	0	CHOCOLATE	306	n/a	0	n/a	n/a	n/a	n/a	n/a
3146.906	n/a	FFR_REC_WORD	1573453	wordpools/wasnorm_wordpool.txt	LTP064	ltpFR	1	n/a	1	OUTLAW	989	n/a	1	n/a	n/a	n/a	n/a	n/a
3147.61	n/a	FFR_REC_WORD	1573805	wordpools/wasnorm_wordpool.txt	LTP064	ltpFR	1	n/a	1	TWINE	1529	n/a	0	n/a	n/a	n/a	n/a	n/a
3160.026	n/a	FFR_REC_WORD	1580013	wordpools/wasnorm_wordpool.txt	LTP064	ltpFR	1	n/a	1	CORN	381	n/a	1	n/a	n/a	n/a	n/a	n/a
3160.47	n/a	FFR_REC_WORD	1580235	wordpools/wasnorm_wordpool.txt	LTP064	ltpFR	1	n/a	1	EDITOR	516	n/a	0	n/a	n/a	n/a	n/a	n/a
3162.132	n/a	FFR_REC_WORD	1581066	wordpools/wasnorm_wordpool.txt	LTP064	ltpFR	1	n/a	1	PISTOL	1075	n/a	0	n/a	n/a	n/a	n/a	n/a
3162.736	n/a	FFR_REC_WORD	1581368	wordpools/wasnorm_wordpool.txt	LTP064	ltpFR	1	n/a	1	MAILMAN	858	n/a	1	n/a	n/a	n/a	n/a	n/a
3179.682	n/a	FFR_REC_WORD	1589841	wordpools/wasnorm_wordpool.txt	LTP064	ltpFR	1	n/a	0	GRASSHOPPER	656	n/a	1	n/a	n/a	n/a	n/a	n/a
3180.478	n/a	FFR_REC_WORD	1590239	wordpools/wasnorm_wordpool.txt	LTP064	ltpFR	1	n/a	n/a	REPTILE	1185	n/a	n/a	n/a	n/a	n/a	n/a	n/a
3181.752	n/a	FFR_REC_WORD	1590876	wordpools/wasnorm_wordpool.txt	LTP064	ltpFR	1	n/a	0	TURKEY	1520	n/a	1	n/a	n/a	n/a	n/a	n/a
3182.88	n/a	FFR_REC_WORD	1591440	wordpools/wasnorm_wordpool.txt	LTP064	ltpFR	1	n/a	0	GROCERY	664	n/a	1	n/a	n/a	n/a	n/a	n/a
3191.792	n/a	FFR_REC_WORD	1595896	wordpools/wasnorm_wordpool.txt	LTP064	ltpFR	1	n/a	-1	TAVERN	1437	n/a	-1	n/a	n/a	n/a	n/a	n/a
3192.4	n/a	FFR_REC_WORD	1596200	wordpools/wasnorm_wordpool.txt	LTP064	ltpFR	1	n/a	-1	TRENCH	1503	n/a	-1	n/a	n/a	n/a	n/a	n/a
3192.954	n/a	FFR_REC_WORD	1596477	wordpools/wasnorm_wordpool.txt	LTP064	ltpFR	1	n/a	-1	FLESH	579	n/a	-1	n/a	n/a	n/a	n/a	n/a
3193.374	n/a	FFR_REC_WORD	1596687	wordpools/wasnorm_wordpool.txt	LTP064	ltpFR	1	n/a	-1	MOUTH	926	n/a	-1	n/a	n/a	n/a	n/a	n/a
3242.174	n/a	FFR_REC_WORD	1621087	wordpools/wasnorm_wordpool.txt	LTP064	ltpFR	1	n/a	-1	MINK	897	n/a	-1	n/a	n/a	n/a	n/a	n/a
3244.278	n/a	FFR_REC_WORD	1622139	wordpools/wasnorm_wordpool.txt	LTP064	ltpFR	1	n/a	n/a	COAT	333	n/a	n/a	n/a	n/a	n/a	n/a	n/a
3245.062	n/a	FFR_REC_WORD	1622531	wordpools/wasnorm_wordpool.txt	LTP064	ltpFR	1	n/a	-1	OLIVE	975	n/a	-1	n/a	n/a	n/a	n/a	n/a
3245.568	n/a	FFR_REC_WORD	1622784	wordpools/wasnorm_wordpool.txt	LTP064	ltpFR	1	n/a	-1	HOSPITAL	721	n/a	-1	n/a	n/a	n/a	n/a	n/a
3256.512	n/a	FFR_REC_WORD	1628256	wordpools/wasnorm_wordpool.txt	LTP064	ltpFR	1	n/a	1	SKELETON	1314	n/a	0	n/a	n/a	n/a	n/a	n/a
3257.176	n/a	FFR_REC_WORD	1628588	wordpools/wasnorm_wordpool.txt	LTP064	ltpFR	1	n/a	1	WRIST	1626	n/a	0	n/a	n/a	n/a	n/a	n/a
3261.944	n/a	FFR_REC_WORD	1630972	wordpools/wasnorm_wordpool.txt	LTP064	ltpFR	1	n/a	-1	MILK	895	n/a	-1	n/a	n/a	n/a	n/a	n/a
3262.578	n/a	FFR_REC_WORD	1631289	wordpools/wasnorm_wordpool.txt	LTP064	ltpFR	1	n/a	-1	BRAN	167	n/a	-1	n/a	n/a	n/a	n/a	n/a
3263.104	n/a	FFR_REC_WORD	1631552	wordpools/wasnorm_wordpool.txt	LTP064	ltpFR	1	n/a	-1	SPINACH	1352	n/a	-1	n/a	n/a	n/a	n/a	n/a
3263.714	n/a	FFR_REC_WORD	1631857	wordpools/wasnorm_wordpool.txt	LTP064	ltpFR	1	n/a	-1	TREASURE	1500	n/a	-1	n/a	n/a	n/a	n/a	n/a
3272.042	n/a	FFR_REC_WORD	1636021	wordpools/wasnorm_wordpool.txt	LTP064	ltpFR	1	n/a	1	HAWK	692	n/a	1	n/a	n/a	n/a	n/a	n/a
3272.462	n/a	FFR_REC_WORD	1636231	wordpools/wasnorm_wordpool.txt	LTP064	ltpFR	1	n/a	1	BIRD	129	n/a	1	n/a	n/a	n/a	n/a	n/a
3282.748	n/a	FFR_REC_WORD	1641374	wordpools/wasnorm_wordpool.txt	LTP064	ltpFR	1	n/a	1	LEVER	815	n/a	0	n/a	n/a	n/a	n/a	n/a
3283.294	n/a	FFR_REC_WORD	1641647	wordpools/wasnorm_wordpool.txt	LTP064	ltpFR	1	n/a	1	CAPTIVE	240	n/a	1	n/a	n/a	n/a	n/a	n/a
3283.852	n/a	FFR_REC_WORD	1641926	wordpools/wasnorm_wordpool.txt	LTP064	ltpFR	1	n/a	1	CHESS	294	n/a	0	n/a	n/a	n/a	n/a	n/a
3284.278	n/a	FFR_REC_WORD	1642139	wordpools/wasnorm_wordpool.txt	LTP064	ltpFR	1	n/a	1	CHECKERS	285	n/a	0	n/a	n/a	n/a	n/a	n/a
3291.08	n/a	FFR_REC_WORD	1645540	wordpools/wasnorm_wordpool.txt	LTP064	ltpFR	1	n/a	n/a	TUNNEL	1519	n/a	n/a	n/a	n/a	n/a	n/a	n/a
3305.648	n/a	FFR_REC_WORD	1652824	wordpools/wasnorm_wordpool.txt	LTP064	ltpFR	1	n/a	n/a	CHEETAH	-1	n/a	n/a	n/a	n/a	n/a	n/a	n/a
3332.952	n/a	FFR_REC_WORD	1666476	wordpools/wasnorm_wordpool.txt	LTP064	ltpFR	1	n/a	-1	INTESTINE	742	n/a	-1	n/a	n/a	n/a	n/a	n/a
3333.768	n/a	FFR_REC_WORD	1666884	wordpools/wasnorm_wordpool.txt	LTP064	ltpFR	1	n/a	-1	ATHLETE	52	n/a	-1	n/a	n/a	n/a	n/a	n/a
3334.666	n/a	FFR_REC_WORD	1667333	wordpools/wasnorm_wordpool.txt	LTP064	ltpFR	1	n/a	-1	CORD	379	n/a	-1	n/a	n/a	n/a	n/a	n/a
3335.622	n/a	FFR_REC_WORD	1667811	wordpools/wasnorm_wordpool.txt	LTP064	ltpFR	1	n/a	-1	WASHER	1592	n/a	-1	n/a	n/a	n/a	n/a	n/a
3337.896	n/a	FFR_REC_WORD	1668948	wordpools/wasnorm_wordpool.txt	LTP064	ltpFR	1	n/a	-1	GYMNAST	675	n/a	-1	n/a	n/a	n/a	n/a	n/a
3338.748	n/a	FFR_REC_WORD	1669374	wordpools/wasnorm_wordpool.txt	LTP064	ltpFR	1	n/a	-1	COP	376	n/a	-1	n/a	n/a	n/a	n/a	n/a
3339.36	n/a	FFR_REC_WORD	1669680	wordpools/wasnorm_wordpool.txt	LTP064	ltpFR	1	n/a	-1	SCREW	1254	n/a	-1	n/a	n/a	n/a	n/a	n/a
3340.172	n/a	FFR_REC_WORD	1670086	wordpools/wasnorm_wordpool.txt	LTP064	ltpFR	1	n/a	-1	PLASTER	1085	n/a	-1	n/a	n/a	n/a	n/a	n/a
3371.746	n/a	FFR_REC_WORD	1685873	wordpools/wasnorm_wordpool.txt	LTP064	ltpFR	1	n/a	1	DEER	444	n/a	1	n/a	n/a	n/a	n/a	n/a
3372.346	n/a	FFR_REC_WORD	1686173	wordpools/wasnorm_wordpool.txt	LTP064	ltpFR	1	n/a	1	RAM	1165	n/a	1	n/a	n/a	n/a	n/a	n/a
3372.958	n/a	FFR_REC_WORD	1686479	wordpools/wasnorm_wordpool.txt	LTP064	ltpFR	1	n/a	1	DRUM	502	n/a	0	n/a	n/a	n/a	n/a	n/a
3373.498	n/a	FFR_REC_WORD	1686749	wordpools/wasnorm_wordpool.txt	LTP064	ltpFR	1	n/a	1	MAGNET	855	n/a	0	n/a	n/a	n/a	n/a	n/a
3404.264	n/a	REC_START	1702132	n/a	LTP064	ltpFR	1	1	n/a	n/a	n/a	n/a	n/a	n/a	n/a	n/a	n/a	n/a
3404.296	n/a	RECOG_LURE	1702148	n/a	LTP064	ltpFR	1	1	n/a	PAD	998	2	n/a	n/a	n/a	n/a	n/a	n/a
3405.73	n/a	RECOG_RESP	1702865	n/a	LTP064	ltpFR	1	1	n/a	PAD	998	n/a	n/a	n/a	n/a	n/a	n/a	n/a
3406.918	n/a	RECOG_CONF	1703459	n/a	LTP064	ltpFR	1	1	n/a	PAD	998	2	n/a	n/a	n/a	n/a	n/a	n/a
3408.312	n/a	RECOG_LURE	1704156	n/a	LTP064	ltpFR	1	1	n/a	VILLAIN	1567	1	n/a	n/a	n/a	n/a	n/a	n/a
3409.392	n/a	RECOG_RESP	1704696	n/a	LTP064	ltpFR	1	1	n/a	VILLAIN	1567	n/a	n/a	n/a	n/a	n/a	n/a	n/a
3410.49	n/a	RECOG_CONF	1705245	n/a	LTP064	ltpFR	1	1	n/a	VILLAIN	1567	1	n/a	n/a	n/a	n/a	n/a	n/a
3411.962	n/a	RECOG_TARGET	1705981	n/a	LTP064	ltpFR	1	1	-1	CRIMINAL	409	3	-1	n/a	n/a	n/a	n/a	n/a
3413.034	n/a	RECOG_RESP	1706517	n/a	LTP064	ltpFR	1	1	-1	CRIMINAL	409	n/a	-1	n/a	n/a	n/a	n/a	n/a
3414.078	n/a	RECOG_CONF	1707039	n/a	LTP064	ltpFR	1	1	-1	CRIMINAL	409	3	-1	n/a	n/a	n/a	n/a	n/a
3415.654	n/a	RECOG_TARGET	1707827	n/a	LTP064	ltpFR	1	1	-1	VINE	1568	5	-1	n/a	n/a	n/a	n/a	n/a
3416.412	n/a	RECOG_RESP	1708206	n/a	LTP064	ltpFR	1	1	-1	VINE	1568	n/a	-1	n/a	n/a	n/a	n/a	n/a
3417.32	n/a	RECOG_CONF	1708660	n/a	LTP064	ltpFR	1	1	-1	VINE	1568	5	-1	n/a	n/a	n/a	n/a	n/a
3418.754	n/a	RECOG_TARGET	1709377	n/a	LTP064	ltpFR	1	1	0	SILVERWARE	1308	5	0	n/a	n/a	n/a	n/a	n/a
3419.44	n/a	RECOG_RESP	1709720	n/a	LTP064	ltpFR	1	1	0	SILVERWARE	1308	n/a	0	n/a	n/a	n/a	n/a	n/a
3420.308	n/a	RECOG_CONF	1710154	n/a	LTP064	ltpFR	1	1	0	SILVERWARE	1308	5	0	n/a	n/a	n/a	n/a	n/a
3421.872	n/a	RECOG_TARGET	1710936	n/a	LTP064	ltpFR	1	1	1	TROMBONE	1508	5	0	n/a	n/a	n/a	n/a	n/a
3422.658	n/a	RECOG_RESP	1711329	n/a	LTP064	ltpFR	1	1	1	TROMBONE	1508	n/a	0	n/a	n/a	n/a	n/a	n/a
3423.526	n/a	RECOG_CONF	1711763	n/a	LTP064	ltpFR	1	1	1	TROMBONE	1508	5	0	n/a	n/a	n/a	n/a	n/a
3425.096	n/a	RECOG_TARGET	1712548	n/a	LTP064	ltpFR	1	1	1	LIME	823	2	1	n/a	n/a	n/a	n/a	n/a
3425.722	n/a	RECOG_RESP	1712861	n/a	LTP064	ltpFR	1	1	1	LIME	823	n/a	1	n/a	n/a	n/a	n/a	n/a
3426.914	n/a	RECOG_CONF	1713457	n/a	LTP064	ltpFR	1	1	1	LIME	823	2	1	n/a	n/a	n/a	n/a	n/a
3428.312	n/a	RECOG_TARGET	1714156	n/a	LTP064	ltpFR	1	1	0	RATTLE	1170	5	0	n/a	n/a	n/a	n/a	n/a
3428.904	n/a	RECOG_RESP	1714452	n/a	LTP064	ltpFR	1	1	0	RATTLE	1170	n/a	0	n/a	n/a	n/a	n/a	n/a
3429.778	n/a	RECOG_CONF	1714889	n/a	LTP064	ltpFR	1	1	0	RATTLE	1170	5	0	n/a	n/a	n/a	n/a	n/a
3431.428	n/a	RECOG_TARGET	1715714	n/a	LTP064	ltpFR	1	1	1	ARTERY	41	5	1	n/a	n/a	n/a	n/a	n/a
3432.012	n/a	RECOG_RESP	1716006	n/a	LTP064	ltpFR	1	1	1	ARTERY	41	n/a	1	n/a	n/a	n/a	n/a	n/a
3432.98	n/a	RECOG_CONF	1716490	n/a	LTP064	ltpFR	1	1	1	ARTERY	41	5	1	n/a	n/a	n/a	n/a	n/a
3434.486	n/a	RECOG_TARGET	1717243	n/a	LTP064	ltpFR	1	1	1	HAY	693	5	1	n/a	n/a	n/a	n/a	n/a
3435.092	n/a	RECOG_RESP	1717546	n/a	LTP064	ltpFR	1	1	1	HAY	693	n/a	1	n/a	n/a	n/a	n/a	n/a
3436.124	n/a	RECOG_CONF	1718062	n/a	LTP064	ltpFR	1	1	1	HAY	693	5	1	n/a	n/a	n/a	n/a	n/a
3437.77	n/a	RECOG_TARGET	1718885	n/a	LTP064	ltpFR	1	1	-1	DICE	461	5	-1	n/a	n/a	n/a	n/a	n/a
3438.368	n/a	RECOG_RESP	1719184	n/a	LTP064	ltpFR	1	1	-1	DICE	461	n/a	-1	n/a	n/a	n/a	n/a	n/a
3439.256	n/a	RECOG_CONF	1719628	n/a	LTP064	ltpFR	1	1	-1	DICE	461	5	-1	n/a	n/a	n/a	n/a	n/a
3440.754	n/a	RECOG_TARGET	1720377	n/a	LTP064	ltpFR	1	1	0	SHOVEL	1295	5	1	n/a	n/a	n/a	n/a	n/a
3441.342	n/a	RECOG_RESP	1720671	n/a	LTP064	ltpFR	1	1	0	SHOVEL	1295	n/a	1	n/a	n/a	n/a	n/a	n/a
3442.3	n/a	RECOG_CONF	1721150	n/a	LTP064	ltpFR	1	1	0	SHOVEL	1295	5	1	n/a	n/a	n/a	n/a	n/a
3443.788	n/a	RECOG_LURE	1721894	n/a	LTP064	ltpFR	1	1	n/a	SARDINE	1235	4	n/a	n/a	n/a	n/a	n/a	n/a
3444.534	n/a	RECOG_RESP	1722267	n/a	LTP064	ltpFR	1	1	n/a	SARDINE	1235	n/a	n/a	n/a	n/a	n/a	n/a	n/a
3445.432	n/a	RECOG_CONF	1722716	n/a	LTP064	ltpFR	1	1	n/a	SARDINE	1235	4	n/a	n/a	n/a	n/a	n/a	n/a
3446.912	n/a	RECOG_TARGET	1723456	n/a	LTP064	ltpFR	1	1	0	MAMMAL	861	4	1	n/a	n/a	n/a	n/a	n/a
3447.562	n/a	RECOG_RESP	1723781	n/a	LTP064	ltpFR	1	1	0	MAMMAL	861	n/a	1	n/a	n/a	n/a	n/a	n/a
3448.526	n/a	RECOG_CONF	1724263	n/a	LTP064	ltpFR	1	1	0	MAMMAL	861	4	1	n/a	n/a	n/a	n/a	n/a
3449.92	n/a	RECOG_TARGET	1724960	n/a	LTP064	ltpFR	1	1	-1	BANANA	77	5	-1	n/a	n/a	n/a	n/a	n/a
3450.462	n/a	RECOG_RESP	1725231	n/a	LTP064	ltpFR	1	1	-1	BANANA	77	n/a	-1	n/a	n/a	n/a	n/a	n/a
3451.34	n/a	RECOG_CONF	1725670	n/a	LTP064	ltpFR	1	1	-1	BANANA	77	5	-1	n/a	n/a	n/a	n/a	n/a
3452.854	n/a	RECOG_LURE	1726427	n/a	LTP064	ltpFR	1	1	n/a	YOLK	1633	4	n/a	n/a	n/a	n/a	n/a	n/a
3453.65	n/a	RECOG_RESP	1726825	n/a	LTP064	ltpFR	1	1	n/a	YOLK	1633	n/a	n/a	n/a	n/a	n/a	n/a	n/a
3454.508	n/a	RECOG_CONF	1727254	n/a	LTP064	ltpFR	1	1	n/a	YOLK	1633	4	n/a	n/a	n/a	n/a	n/a	n/a
3456.062	n/a	RECOG_TARGET	1728031	n/a	LTP064	ltpFR	1	1	0	SIDING	1304	5	0	n/a	n/a	n/a	n/a	n/a
3456.764	n/a	RECOG_RESP	1728382	n/a	LTP064	ltpFR	1	1	0	SIDING	1304	n/a	0	n/a	n/a	n/a	n/a	n/a
3457.7	n/a	RECOG_CONF	1728850	n/a	LTP064	ltpFR	1	1	0	SIDING	1304	5	0	n/a	n/a	n/a	n/a	n/a
3459.17	n/a	RECOG_LURE	1729585	n/a	LTP064	ltpFR	1	1	n/a	BALLERINA	74	3	n/a	n/a	n/a	n/a	n/a	n/a
3460.02	n/a	RECOG_RESP	1730010	n/a	LTP064	ltpFR	1	1	n/a	BALLERINA	74	n/a	n/a	n/a	n/a	n/a	n/a	n/a
3461.024	n/a	RECOG_CONF	1730512	n/a	LTP064	ltpFR	1	1	n/a	BALLERINA	74	3	n/a	n/a	n/a	n/a	n/a	n/a
3462.51	n/a	RECOG_TARGET	1731255	n/a	LTP064	ltpFR	1	1	0	ROOT	1210	4	0	n/a	n/a	n/a	n/a	n/a
3463.138	n/a	RECOG_RESP	1731569	n/a	LTP064	ltpFR	1	1	0	ROOT	1210	n/a	0	n/a	n/a	n/a	n/a	n/a
3464.102	n/a	RECOG_CONF	1732051	n/a	LTP064	ltpFR	1	1	0	ROOT	1210	4	0	n/a	n/a	n/a	n/a	n/a
3465.494	n/a	RECOG_TARGET	1732747	n/a	LTP064	ltpFR	1	1	1	SPARROW	1347	5	1	n/a	n/a	n/a	n/a	n/a
3466.092	n/a	RECOG_RESP	1733046	n/a	LTP064	ltpFR	1	1	1	SPARROW	1347	n/a	1	n/a	n/a	n/a	n/a	n/a
3467.04	n/a	RECOG_CONF	1733520	n/a	LTP064	ltpFR	1	1	1	SPARROW	1347	5	1	n/a	n/a	n/a	n/a	n/a
3470.964	n/a	REC_START	1735482	n/a	LTP064	ltpFR	1	2	n/a	n/a	n/a	n/a	n/a	n/a	n/a	n/a	n/a	n/a
3471.002	n/a	RECOG_LURE	1735501	n/a	LTP064	ltpFR	1	2	n/a	PUBLISHER	1137	1	n/a	n/a	n/a	n/a	n/a	n/a
3472.362	n/a	RECOG_RESP	1736181	n/a	LTP064	ltpFR	1	2	n/a	PUBLISHER	1137	n/a	n/a	n/a	n/a	n/a	n/a	n/a
3473.318	n/a	RECOG_CONF	1736659	n/a	LTP064	ltpFR	1	2	n/a	PUBLISHER	1137	1	n/a	n/a	n/a	n/a	n/a	n/a
3474.82	n/a	RECOG_TARGET	1737410	n/a	LTP064	ltpFR	1	2	0	MINT	898	5	0	n/a	n/a	n/a	n/a	n/a
3475.4	n/a	RECOG_RESP	1737700	n/a	LTP064	ltpFR	1	2	0	MINT	898	n/a	0	n/a	n/a	n/a	n/a	n/a
3476.302	n/a	RECOG_CONF	1738151	n/a	LTP064	ltpFR	1	2	0	MINT	898	5	0	n/a	n/a	n/a	n/a	n/a
3477.67	n/a	RECOG_TARGET	1738835	n/a	LTP064	ltpFR	1	2	1	TROUSERS	1510	5	0	n/a	n/a	n/a	n/a	n/a
3478.254	n/a	RECOG_RESP	1739127	n/a	LTP064	ltpFR	1	2	1	TROUSERS	1510	n/a	0	n/a	n/a	n/a	n/a	n/a
3479.216	n/a	RECOG_CONF	1739608	n/a	LTP064	ltpFR	1	2	1	TROUSERS	1510	5	0	n/a	n/a	n/a	n/a	n/a
3480.678	n/a	RECOG_TARGET	1740339	n/a	LTP064	ltpFR	1	2	0	RICE	1190	4	0	n/a	n/a	n/a	n/a	n/a
3481.162	n/a	RECOG_RESP	1740581	n/a	LTP064	ltpFR	1	2	0	RICE	1190	n/a	0	n/a	n/a	n/a	n/a	n/a
3482.064	n/a	RECOG_CONF	1741032	n/a	LTP064	ltpFR	1	2	0	RICE	1190	4	0	n/a	n/a	n/a	n/a	n/a
3483.502	n/a	RECOG_LURE	1741751	n/a	LTP064	ltpFR	1	2	n/a	JEWEL	757	n/a	n/a	n/a	n/a	n/a	n/a	n/a
3484.28	n/a	RECOG_RESP_VV	1742140	n/a	LTP064	ltpFR	1	2	n/a	JEWEL	757	n/a	n/a	n/a	n/a	n/a	n/a	n/a
3485.242	n/a	RECOG_RESP	1742621	n/a	LTP064	ltpFR	1	2	n/a	JEWEL	757	n/a	n/a	n/a	n/a	n/a	n/a	n/a
3486.644	n/a	RECOG_LURE	1743322	n/a	LTP064	ltpFR	1	2	n/a	MAILBOX	857	1	n/a	n/a	n/a	n/a	n/a	n/a
3487.258	n/a	RECOG_RESP	1743629	n/a	LTP064	ltpFR	1	2	n/a	MAILBOX	857	n/a	n/a	n/a	n/a	n/a	n/a	n/a
3488.446	n/a	RECOG_CONF	1744223	n/a	LTP064	ltpFR	1	2	n/a	MAILBOX	857	1	n/a	n/a	n/a	n/a	n/a	n/a
3489.886	n/a	RECOG_TARGET	1744943	n/a	LTP064	ltpFR	1	2	-1	BEAR	106	4	-1	n/a	n/a	n/a	n/a	n/a
3490.666	n/a	RECOG_RESP	1745333	n/a	LTP064	ltpFR	1	2	-1	BEAR	106	n/a	-1	n/a	n/a	n/a	n/a	n/a
3491.588	n/a	RECOG_CONF	1745794	n/a	LTP064	ltpFR	1	2	-1	BEAR	106	4	-1	n/a	n/a	n/a	n/a	n/a
3492.994	n/a	RECOG_TARGET	1746497	n/a	LTP064	ltpFR	1	2	0	DESSERT	453	4	0	n/a	n/a	n/a	n/a	n/a
3493.718	n/a	RECOG_RESP	1746859	n/a	LTP064	ltpFR	1	2	0	DESSERT	453	n/a	0	n/a	n/a	n/a	n/a	n/a
3494.606	n/a	RECOG_CONF	1747303	n/a	LTP064	ltpFR	1	2	0	DESSERT	453	4	0	n/a	n/a	n/a	n/a	n/a
3496.01	n/a	RECOG_TARGET	1748005	n/a	LTP064	ltpFR	1	2	1	WHALE	1601	5	1	n/a	n/a	n/a	n/a	n/a
3496.568	n/a	RECOG_RESP	1748284	n/a	LTP064	ltpFR	1	2	1	WHALE	1601	n/a	1	n/a	n/a	n/a	n/a	n/a
3497.566	n/a	RECOG_CONF	1748783	n/a	LTP064	ltpFR	1	2	1	WHALE	1601	5	1	n/a	n/a	n/a	n/a	n/a
3499.128	n/a	RECOG_TARGET	1749564	n/a	LTP064	ltpFR	1	2	-1	CHAUFFEUR	283	4	-1	n/a	n/a	n/a	n/a	n/a
3499.736	n/a	RECOG_RESP	1749868	n/a	LTP064	ltpFR	1	2	-1	CHAUFFEUR	283	n/a	-1	n/a	n/a	n/a	n/a	n/a
3500.694	n/a	RECOG_CONF	1750347	n/a	LTP064	ltpFR	1	2	-1	CHAUFFEUR	283	4	-1	n/a	n/a	n/a	n/a	n/a
3502.178	n/a	RECOG_LURE	1751089	n/a	LTP064	ltpFR	1	2	n/a	COUSIN	392	3	n/a	n/a	n/a	n/a	n/a	n/a
3502.858	n/a	RECOG_RESP	1751429	n/a	LTP064	ltpFR	1	2	n/a	COUSIN	392	n/a	n/a	n/a	n/a	n/a	n/a	n/a
3503.932	n/a	RECOG_CONF	1751966	n/a	LTP064	ltpFR	1	2	n/a	COUSIN	392	3	n/a	n/a	n/a	n/a	n/a	n/a
3505.302	n/a	RECOG_TARGET	1752651	n/a	LTP064	ltpFR	1	2	1	BODY	145	5	1	n/a	n/a	n/a	n/a	n/a
3505.962	n/a	RECOG_RESP	1752981	n/a	LTP064	ltpFR	1	2	1	BODY	145	n/a	1	n/a	n/a	n/a	n/a	n/a
3506.84	n/a	RECOG_CONF	1753420	n/a	LTP064	ltpFR	1	2	1	BODY	145	5	1	n/a	n/a	n/a	n/a	n/a
3508.286	n/a	RECOG_LURE	1754143	n/a	LTP064	ltpFR	1	2	n/a	VALLEY	1545	2	n/a	n/a	n/a	n/a	n/a	n/a
3508.954	n/a	RECOG_RESP	1754477	n/a	LTP064	ltpFR	1	2	n/a	VALLEY	1545	n/a	n/a	n/a	n/a	n/a	n/a	n/a
3509.962	n/a	RECOG_CONF	1754981	n/a	LTP064	ltpFR	1	2	n/a	VALLEY	1545	2	n/a	n/a	n/a	n/a	n/a	n/a
3511.344	n/a	RECOG_TARGET	1755672	n/a	LTP064	ltpFR	1	2	0	TURKEY	1520	5	1	n/a	n/a	n/a	n/a	n/a
3511.888	n/a	RECOG_RESP	1755944	n/a	LTP064	ltpFR	1	2	0	TURKEY	1520	n/a	1	n/a	n/a	n/a	n/a	n/a
3512.87	n/a	RECOG_CONF	1756435	n/a	LTP064	ltpFR	1	2	0	TURKEY	1520	5	1	n/a	n/a	n/a	n/a	n/a
3514.31	n/a	RECOG_LURE	1757155	n/a	LTP064	ltpFR	1	2	n/a	MEAT	883	4	n/a	n/a	n/a	n/a	n/a	n/a
3515.236	n/a	RECOG_RESP	1757618	n/a	LTP064	ltpFR	1	2	n/a	MEAT	883	n/a	n/a	n/a	n/a	n/a	n/a	n/a
3516.168	n/a	RECOG_CONF	1758084	n/a	LTP064	ltpFR	1	2	n/a	MEAT	883	4	n/a	n/a	n/a	n/a	n/a	n/a
3517.658	n/a	RECOG_TARGET	1758829	n/a	LTP064	ltpFR	1	2	1	VEAL	1551	2	0	n/a	n/a	n/a	n/a	n/a
3518.334	n/a	RECOG_RESP	1759167	n/a	LTP064	ltpFR	1	2	1	VEAL	1551	n/a	0	n/a	n/a	n/a	n/a	n/a
3519.622	n/a	RECOG_CONF	1759811	n/a	LTP064	ltpFR	1	2	1	VEAL	1551	2	0	n/a	n/a	n/a	n/a	n/a
3520.986	n/a	RECOG_LURE	1760493	n/a	LTP064	ltpFR	1	2	n/a	MONSTER	912	1	n/a	n/a	n/a	n/a	n/a	n/a
3521.936	n/a	RECOG_RESP	1760968	n/a	LTP064	ltpFR	1	2	n/a	MONSTER	912	n/a	n/a	n/a	n/a	n/a	n/a	n/a
3523.014	n/a	RECOG_CONF	1761507	n/a	LTP064	ltpFR	1	2	n/a	MONSTER	912	1	n/a	n/a	n/a	n/a	n/a	n/a
3524.36	n/a	RECOG_TARGET	1762180	n/a	LTP064	ltpFR	1	2	-1	JACKET	747	1	-1	n/a	n/a	n/a	n/a	n/a
3525.244	n/a	RECOG_RESP	1762622	n/a	LTP064	ltpFR	1	2	-1	JACKET	747	n/a	-1	n/a	n/a	n/a	n/a	n/a
3526.276	n/a	RECOG_CONF	1763138	n/a	LTP064	ltpFR	1	2	-1	JACKET	747	1	-1	n/a	n/a	n/a	n/a	n/a
3527.742	n/a	RECOG_LURE	1763871	n/a	LTP064	ltpFR	1	2	n/a	BILL	126	4	n/a	n/a	n/a	n/a	n/a	n/a
3528.432	n/a	RECOG_RESP	1764216	n/a	LTP064	ltpFR	1	2	n/a	BILL	126	n/a	n/a	n/a	n/a	n/a	n/a	n/a
3529.4	n/a	RECOG_CONF	1764700	n/a	LTP064	ltpFR	1	2	n/a	BILL	126	4	n/a	n/a	n/a	n/a	n/a	n/a
3530.926	n/a	RECOG_TARGET	1765463	n/a	LTP064	ltpFR	1	2	0	SUGAR	1401	5	0	n/a	n/a	n/a	n/a	n/a
3532.394	n/a	RECOG_RESP_VV	1766197	n/a	LTP064	ltpFR	1	2	0	SUGAR	1401	n/a	0	n/a	n/a	n/a	n/a	n/a
3532.904	n/a	RECOG_RESP_VV	1766452	n/a	LTP064	ltpFR	1	2	0	SUGAR	1401	n/a	0	n/a	n/a	n/a	n/a	n/a
3533.256	n/a	RECOG_RESP_VV	1766628	n/a	LTP064	ltpFR	1	2	0	SUGAR	1401	n/a	0	n/a	n/a	n/a	n/a	n/a
3533.53	n/a	RECOG_RESP_VV	1766765	n/a	LTP064	ltpFR	1	2	0	SUGAR	1401	n/a	0	n/a	n/a	n/a	n/a	n/a
3533.734	n/a	RECOG_RESP	1766867	n/a	LTP064	ltpFR	1	2	0	SUGAR	1401	n/a	0	n/a	n/a	n/a	n/a	n/a
3534.638	n/a	RECOG_CONF	1767319	n/a	LTP064	ltpFR	1	2	0	SUGAR	1401	5	0	n/a	n/a	n/a	n/a	n/a
3540.068	n/a	REC_START	1770034	n/a	LTP064	ltpFR	1	3	n/a	n/a	n/a	n/a	n/a	n/a	n/a	n/a	n/a	n/a
3540.102	n/a	RECOG_TARGET	1770051	n/a	LTP064	ltpFR	1	3	1	PISTOL	1075	5	0	n/a	n/a	n/a	n/a	n/a
3540.846	n/a	RECOG_RESP	1770423	n/a	LTP064	ltpFR	1	3	1	PISTOL	1075	n/a	0	n/a	n/a	n/a	n/a	n/a
3541.704	n/a	RECOG_CONF	1770852	n/a	LTP064	ltpFR	1	3	1	PISTOL	1075	5	0	n/a	n/a	n/a	n/a	n/a
3543.126	n/a	RECOG_LURE	1771563	n/a	LTP064	ltpFR	1	3	n/a	CHEESE	289	1	n/a	n/a	n/a	n/a	n/a	n/a
3543.878	n/a	RECOG_RESP	1771939	n/a	LTP064	ltpFR	1	3	n/a	CHEESE	289	n/a	n/a	n/a	n/a	n/a	n/a	n/a
3544.836	n/a	RECOG_CONF	1772418	n/a	LTP064	ltpFR	1	3	n/a	CHEESE	289	1	n/a	n/a	n/a	n/a	n/a	n/a
3546.168	n/a	RECOG_TARGET	1773084	n/a	LTP064	ltpFR	1	3	-1	BUCKET	184	5	-1	n/a	n/a	n/a	n/a	n/a
3546.822	n/a	RECOG_RESP	1773411	n/a	LTP064	ltpFR	1	3	-1	BUCKET	184	n/a	-1	n/a	n/a	n/a	n/a	n/a
3547.704	n/a	RECOG_CONF	1773852	n/a	LTP064	ltpFR	1	3	-1	BUCKET	184	5	-1	n/a	n/a	n/a	n/a	n/a
3549.134	n/a	RECOG_TARGET	1774567	n/a	LTP064	ltpFR	1	3	-1	CORD	379	5	-1	n/a	n/a	n/a	n/a	n/a
3549.81	n/a	RECOG_RESP	1774905	n/a	LTP064	ltpFR	1	3	-1	CORD	379	n/a	-1	n/a	n/a	n/a	n/a	n/a
3550.718	n/a	RECOG_CONF	1775359	n/a	LTP064	ltpFR	1	3	-1	CORD	379	5	-1	n/a	n/a	n/a	n/a	n/a
3552.176	n/a	RECOG_TARGET	1776088	n/a	LTP064	ltpFR	1	3	-1	COAL	332	5	-1	n/a	n/a	n/a	n/a	n/a
3552.734	n/a	RECOG_RESP	1776367	n/a	LTP064	ltpFR	1	3	-1	COAL	332	n/a	-1	n/a	n/a	n/a	n/a	n/a
3553.686	n/a	RECOG_CONF	1776843	n/a	LTP064	ltpFR	1	3	-1	COAL	332	5	-1	n/a	n/a	n/a	n/a	n/a
3555.176	n/a	RECOG_LURE	1777588	n/a	LTP064	ltpFR	1	3	n/a	ELK	526	2	n/a	n/a	n/a	n/a	n/a	n/a
3556.524	n/a	RECOG_RESP	1778262	n/a	LTP064	ltpFR	1	3	n/a	ELK	526	n/a	n/a	n/a	n/a	n/a	n/a	n/a
3557.568	n/a	RECOG_CONF	1778784	n/a	LTP064	ltpFR	1	3	n/a	ELK	526	2	n/a	n/a	n/a	n/a	n/a	n/a
3559.008	n/a	RECOG_LURE	1779504	n/a	LTP064	ltpFR	1	3	n/a	BARK	87	3	n/a	n/a	n/a	n/a	n/a	n/a
3559.784	n/a	RECOG_RESP	1779892	n/a	LTP064	ltpFR	1	3	n/a	BARK	87	n/a	n/a	n/a	n/a	n/a	n/a	n/a
3560.832	n/a	RECOG_CONF	1780416	n/a	LTP064	ltpFR	1	3	n/a	BARK	87	3	n/a	n/a	n/a	n/a	n/a	n/a
3562.192	n/a	RECOG_TARGET	1781096	n/a	LTP064	ltpFR	1	3	1	CHECKERS	285	5	0	n/a	n/a	n/a	n/a	n/a
3562.776	n/a	RECOG_RESP	1781388	n/a	LTP064	ltpFR	1	3	1	CHECKERS	285	n/a	0	n/a	n/a	n/a	n/a	n/a
3563.654	n/a	RECOG_CONF	1781827	n/a	LTP064	ltpFR	1	3	1	CHECKERS	285	5	0	n/a	n/a	n/a	n/a	n/a
3565.126	n/a	RECOG_TARGET	1782563	n/a	LTP064	ltpFR	1	3	0	SLEIGH	1325	5	1	n/a	n/a	n/a	n/a	n/a
3565.724	n/a	RECOG_RESP	1782862	n/a	LTP064	ltpFR	1	3	0	SLEIGH	1325	n/a	1	n/a	n/a	n/a	n/a	n/a
3566.738	n/a	RECOG_CONF	1783369	n/a	LTP064	ltpFR	1	3	0	SLEIGH	1325	5	1	n/a	n/a	n/a	n/a	n/a
3568.176	n/a	RECOG_TARGET	1784088	n/a	LTP064	ltpFR	1	3	0	DIVER	476	1	1	n/a	n/a	n/a	n/a	n/a
3571.442	n/a	RECOG_RESP	1785721	n/a	LTP064	ltpFR	1	3	0	DIVER	476	n/a	1	n/a	n/a	n/a	n/a	n/a
3572.64	n/a	RECOG_CONF	1786320	n/a	LTP064	ltpFR	1	3	0	DIVER	476	1	1	n/a	n/a	n/a	n/a	n/a
3574.126	n/a	RECOG_TARGET	1787063	n/a	LTP064	ltpFR	1	3	1	PLAID	1080	4	0	n/a	n/a	n/a	n/a	n/a
3574.944	n/a	RECOG_RESP	1787472	n/a	LTP064	ltpFR	1	3	1	PLAID	1080	n/a	0	n/a	n/a	n/a	n/a	n/a
3575.836	n/a	RECOG_CONF	1787918	n/a	LTP064	ltpFR	1	3	1	PLAID	1080	4	0	n/a	n/a	n/a	n/a	n/a
3577.192	n/a	RECOG_TARGET	1788596	n/a	LTP064	ltpFR	1	3	1	BOY	161	1	1	n/a	n/a	n/a	n/a	n/a
3578.696	n/a	RECOG_RESP	1789348	n/a	LTP064	ltpFR	1	3	1	BOY	161	n/a	1	n/a	n/a	n/a	n/a	n/a
3579.638	n/a	RECOG_CONF	1789819	n/a	LTP064	ltpFR	1	3	1	BOY	161	1	1	n/a	n/a	n/a	n/a	n/a
3581.06	n/a	RECOG_LURE	1790530	n/a	LTP064	ltpFR	1	3	n/a	BOARD	143	1	n/a	n/a	n/a	n/a	n/a	n/a
3582.298	n/a	RECOG_RESP_VV	1791149	n/a	LTP064	ltpFR	1	3	n/a	BOARD	143	n/a	n/a	n/a	n/a	n/a	n/a	n/a
3583.56	n/a	RECOG_RESP	1791780	n/a	LTP064	ltpFR	1	3	n/a	BOARD	143	n/a	n/a	n/a	n/a	n/a	n/a	n/a
3584.688	n/a	RECOG_CONF	1792344	n/a	LTP064	ltpFR	1	3	n/a	BOARD	143	1	n/a	n/a	n/a	n/a	n/a	n/a
3586.326	n/a	RECOG_TARGET	1793163	n/a	LTP064	ltpFR	1	3	-1	UMPIRE	1535	4	-1	n/a	n/a	n/a	n/a	n/a
3587.198	n/a	RECOG_RESP	1793599	n/a	LTP064	ltpFR	1	3	-1	UMPIRE	1535	n/a	-1	n/a	n/a	n/a	n/a	n/a
3588.1	n/a	RECOG_CONF	1794050	n/a	LTP064	ltpFR	1	3	-1	UMPIRE	1535	4	-1	n/a	n/a	n/a	n/a	n/a
3589.466	n/a	RECOG_TARGET	1794733	n/a	LTP064	ltpFR	1	3	0	GOVERNOR	651	5	1	n/a	n/a	n/a	n/a	n/a
3590.116	n/a	RECOG_RESP	1795058	n/a	LTP064	ltpFR	1	3	0	GOVERNOR	651	n/a	1	n/a	n/a	n/a	n/a	n/a
3591.074	n/a	RECOG_CONF	1795537	n/a	LTP064	ltpFR	1	3	0	GOVERNOR	651	5	1	n/a	n/a	n/a	n/a	n/a
3592.424	n/a	RECOG_TARGET	1796212	n/a	LTP064	ltpFR	1	3	1	GUM	672	5	0	n/a	n/a	n/a	n/a	n/a
3593.284	n/a	RECOG_RESP	1796642	n/a	LTP064	ltpFR	1	3	1	GUM	672	n/a	0	n/a	n/a	n/a	n/a	n/a
3594.172	n/a	RECOG_CONF	1797086	n/a	LTP064	ltpFR	1	3	1	GUM	672	5	0	n/a	n/a	n/a	n/a	n/a
3595.608	n/a	RECOG_TARGET	1797804	n/a	LTP064	ltpFR	1	3	1	GRADUATE	653	4	1	n/a	n/a	n/a	n/a	n/a
3596.332	n/a	RECOG_RESP	1798166	n/a	LTP064	ltpFR	1	3	1	GRADUATE	653	n/a	1	n/a	n/a	n/a	n/a	n/a
3597.27	n/a	RECOG_CONF	1798635	n/a	LTP064	ltpFR	1	3	1	GRADUATE	653	4	1	n/a	n/a	n/a	n/a	n/a
3598.706	n/a	RECOG_TARGET	1799353	n/a	LTP064	ltpFR	1	3	1	BANDAGE	79	5	0	n/a	n/a	n/a	n/a	n/a
3599.314	n/a	RECOG_RESP	1799657	n/a	LTP064	ltpFR	1	3	1	BANDAGE	79	n/a	0	n/a	n/a	n/a	n/a	n/a
3600.262	n/a	RECOG_CONF	1800131	n/a	LTP064	ltpFR	1	3	1	BANDAGE	79	5	0	n/a	n/a	n/a	n/a	n/a
3601.85	n/a	RECOG_TARGET	1800925	n/a	LTP064	ltpFR	1	3	0	CHOCOLATE	306	5	0	n/a	n/a	n/a	n/a	n/a
3602.454	n/a	RECOG_RESP	1801227	n/a	LTP064	ltpFR	1	3	0	CHOCOLATE	306	n/a	0	n/a	n/a	n/a	n/a	n/a
3603.426	n/a	RECOG_CONF	1801713	n/a	LTP064	ltpFR	1	3	0	CHOCOLATE	306	5	0	n/a	n/a	n/a	n/a	n/a
3604.916	n/a	RECOG_TARGET	1802458	n/a	LTP064	ltpFR	1	3	0	CASH	252	5	1	n/a	n/a	n/a	n/a	n/a
3605.552	n/a	RECOG_RESP	1802776	n/a	LTP064	ltpFR	1	3	0	CASH	252	n/a	1	n/a	n/a	n/a	n/a	n/a
3606.514	n/a	RECOG_CONF	1803257	n/a	LTP064	ltpFR	1	3	0	CASH	252	5	1	n/a	n/a	n/a	n/a	n/a
3610.388	n/a	REC_START	1805194	n/a	LTP064	ltpFR	1	4	n/a	n/a	n/a	n/a	n/a	n/a	n/a	n/a	n/a	n/a
3610.416	n/a	RECOG_TARGET	1805208	n/a	LTP064	ltpFR	1	4	1	PLUTO	1092	5	0	n/a	n/a	n/a	n/a	n/a
3611.14	n/a	RECOG_RESP	1805570	n/a	LTP064	ltpFR	1	4	1	PLUTO	1092	n/a	0	n/a	n/a	n/a	n/a	n/a
3612.134	n/a	RECOG_CONF	1806067	n/a	LTP064	ltpFR	1	4	1	PLUTO	1092	5	0	n/a	n/a	n/a	n/a	n/a
3613.548	n/a	RECOG_LURE	1806774	n/a	LTP064	ltpFR	1	4	n/a	BUTCHER	203	3	n/a	n/a	n/a	n/a	n/a	n/a
3614.268	n/a	RECOG_RESP	1807134	n/a	LTP064	ltpFR	1	4	n/a	BUTCHER	203	n/a	n/a	n/a	n/a	n/a	n/a	n/a
3615.212	n/a	RECOG_CONF	1807606	n/a	LTP064	ltpFR	1	4	n/a	BUTCHER	203	3	n/a	n/a	n/a	n/a	n/a	n/a
3616.548	n/a	RECOG_LURE	1808274	n/a	LTP064	ltpFR	1	4	n/a	YACHT	1629	4	n/a	n/a	n/a	n/a	n/a	n/a
3617.382	n/a	RECOG_RESP	1808691	n/a	LTP064	ltpFR	1	4	n/a	YACHT	1629	n/a	n/a	n/a	n/a	n/a	n/a	n/a
3618.304	n/a	RECOG_CONF	1809152	n/a	LTP064	ltpFR	1	4	n/a	YACHT	1629	4	n/a	n/a	n/a	n/a	n/a	n/a
3619.832	n/a	RECOG_LURE	1809916	n/a	LTP064	ltpFR	1	4	n/a	RELATIVE	1182	5	n/a	n/a	n/a	n/a	n/a	n/a
3620.6	n/a	RECOG_RESP	1810300	n/a	LTP064	ltpFR	1	4	n/a	RELATIVE	1182	n/a	n/a	n/a	n/a	n/a	n/a	n/a
3621.646	n/a	RECOG_CONF	1810823	n/a	LTP064	ltpFR	1	4	n/a	RELATIVE	1182	5	n/a	n/a	n/a	n/a	n/a	n/a
3623.124	n/a	RECOG_TARGET	1811562	n/a	LTP064	ltpFR	1	4	1	NEWSSTAND	949	5	0	n/a	n/a	n/a	n/a	n/a
3623.928	n/a	RECOG_RESP	1811964	n/a	LTP064	ltpFR	1	4	1	NEWSSTAND	949	n/a	0	n/a	n/a	n/a	n/a	n/a
3624.89	n/a	RECOG_CONF	1812445	n/a	LTP064	ltpFR	1	4	1	NEWSSTAND	949	5	0	n/a	n/a	n/a	n/a	n/a
3626.4	n/a	RECOG_LURE	1813200	n/a	LTP064	ltpFR	1	4	n/a	LAPEL	800	5	n/a	n/a	n/a	n/a	n/a	n/a
3627.076	n/a	RECOG_RESP	1813538	n/a	LTP064	ltpFR	1	4	n/a	LAPEL	800	n/a	n/a	n/a	n/a	n/a	n/a	n/a
3627.908	n/a	RECOG_CONF	1813954	n/a	LTP064	ltpFR	1	4	n/a	LAPEL	800	5	n/a	n/a	n/a	n/a	n/a	n/a
3629.498	n/a	RECOG_TARGET	1814749	n/a	LTP064	ltpFR	1	4	1	HAWK	692	5	1	n/a	n/a	n/a	n/a	n/a
3630.078	n/a	RECOG_RESP	1815039	n/a	LTP064	ltpFR	1	4	1	HAWK	692	n/a	1	n/a	n/a	n/a	n/a	n/a
3631.046	n/a	RECOG_CONF	1815523	n/a	LTP064	ltpFR	1	4	1	HAWK	692	5	1	n/a	n/a	n/a	n/a	n/a
3632.54	n/a	RECOG_LURE	1816270	n/a	LTP064	ltpFR	1	4	n/a	MATTRESS	879	1	n/a	n/a	n/a	n/a	n/a	n/a
3633.142	n/a	RECOG_RESP	1816571	n/a	LTP064	ltpFR	1	4	n/a	MATTRESS	879	n/a	n/a	n/a	n/a	n/a	n/a	n/a
3634.204	n/a	RECOG_CONF	1817102	n/a	LTP064	ltpFR	1	4	n/a	MATTRESS	879	1	n/a	n/a	n/a	n/a	n/a	n/a
3635.614	n/a	RECOG_TARGET	1817807	n/a	LTP064	ltpFR	1	4	1	BULLET	194	1	0	n/a	n/a	n/a	n/a	n/a
3636.294	n/a	RECOG_RESP	1818147	n/a	LTP064	ltpFR	1	4	1	BULLET	194	n/a	0	n/a	n/a	n/a	n/a	n/a
3637.492	n/a	RECOG_CONF	1818746	n/a	LTP064	ltpFR	1	4	1	BULLET	194	1	0	n/a	n/a	n/a	n/a	n/a
3638.906	n/a	RECOG_TARGET	1819453	n/a	LTP064	ltpFR	1	4	0	COLT	349	5	1	n/a	n/a	n/a	n/a	n/a
3639.482	n/a	RECOG_RESP	1819741	n/a	LTP064	ltpFR	1	4	0	COLT	349	n/a	1	n/a	n/a	n/a	n/a	n/a
3640.41	n/a	RECOG_CONF	1820205	n/a	LTP064	ltpFR	1	4	0	COLT	349	5	1	n/a	n/a	n/a	n/a	n/a
3641.832	n/a	RECOG_LURE	1820916	n/a	LTP064	ltpFR	1	4	n/a	ROOSTER	1209	1	n/a	n/a	n/a	n/a	n/a	n/a
3642.4	n/a	RECOG_RESP	1821200	n/a	LTP064	ltpFR	1	4	n/a	ROOSTER	1209	n/a	n/a	n/a	n/a	n/a	n/a	n/a
3644.088	n/a	RECOG_CONF	1822044	n/a	LTP064	ltpFR	1	4	n/a	ROOSTER	1209	1	n/a	n/a	n/a	n/a	n/a	n/a
3645.564	n/a	RECOG_TARGET	1822782	n/a	LTP064	ltpFR	1	4	-1	TRENCH	1503	5	-1	n/a	n/a	n/a	n/a	n/a
3646.278	n/a	RECOG_RESP	1823139	n/a	LTP064	ltpFR	1	4	-1	TRENCH	1503	n/a	-1	n/a	n/a	n/a	n/a	n/a
3647.246	n/a	RECOG_CONF	1823623	n/a	LTP064	ltpFR	1	4	-1	TRENCH	1503	5	-1	n/a	n/a	n/a	n/a	n/a
3648.732	n/a	RECOG_TARGET	1824366	n/a	LTP064	ltpFR	1	4	-1	SHARK	1275	5	-1	n/a	n/a	n/a	n/a	n/a
3649.28	n/a	RECOG_RESP	1824640	n/a	LTP064	ltpFR	1	4	-1	SHARK	1275	n/a	-1	n/a	n/a	n/a	n/a	n/a
3650.294	n/a	RECOG_CONF	1825147	n/a	LTP064	ltpFR	1	4	-1	SHARK	1275	5	-1	n/a	n/a	n/a	n/a	n/a
3651.824	n/a	RECOG_LURE	1825912	n/a	LTP064	ltpFR	1	4	n/a	HUT	729	4	n/a	n/a	n/a	n/a	n/a	n/a
3652.578	n/a	RECOG_RESP	1826289	n/a	LTP064	ltpFR	1	4	n/a	HUT	729	n/a	n/a	n/a	n/a	n/a	n/a	n/a
3653.522	n/a	RECOG_CONF	1826761	n/a	LTP064	ltpFR	1	4	n/a	HUT	729	4	n/a	n/a	n/a	n/a	n/a	n/a
3654.956	n/a	RECOG_TARGET	1827478	n/a	LTP064	ltpFR	1	4	-1	RAILROAD	1162	5	-1	n/a	n/a	n/a	n/a	n/a
3655.506	n/a	RECOG_RESP	1827753	n/a	LTP064	ltpFR	1	4	-1	RAILROAD	1162	n/a	-1	n/a	n/a	n/a	n/a	n/a
3656.404	n/a	RECOG_CONF	1828202	n/a	LTP064	ltpFR	1	4	-1	RAILROAD	1162	5	-1	n/a	n/a	n/a	n/a	n/a
3657.948	n/a	RECOG_LURE	1828974	n/a	LTP064	ltpFR	1	4	n/a	FIN	566	1	n/a	n/a	n/a	n/a	n/a	n/a
3661.908	n/a	RECOG_RESP	1830954	n/a	LTP064	ltpFR	1	4	n/a	FIN	566	n/a	n/a	n/a	n/a	n/a	n/a	n/a
3663.174	n/a	RECOG_CONF	1831587	n/a	LTP064	ltpFR	1	4	n/a	FIN	566	1	n/a	n/a	n/a	n/a	n/a	n/a
3664.664	n/a	RECOG_LURE	1832332	n/a	LTP064	ltpFR	1	4	n/a	CATTLE	261	4	n/a	n/a	n/a	n/a	n/a	n/a
3665.62	n/a	RECOG_RESP	1832810	n/a	LTP064	ltpFR	1	4	n/a	CATTLE	261	n/a	n/a	n/a	n/a	n/a	n/a	n/a
3666.572	n/a	RECOG_CONF	1833286	n/a	LTP064	ltpFR	1	4	n/a	CATTLE	261	4	n/a	n/a	n/a	n/a	n/a	n/a
3668.056	n/a	RECOG_TARGET	1834028	n/a	LTP064	ltpFR	1	4	1	WHEEL	1603	1	0	n/a	n/a	n/a	n/a	n/a
3669.226	n/a	RECOG_RESP	1834613	n/a	LTP064	ltpFR	1	4	1	WHEEL	1603	n/a	0	n/a	n/a	n/a	n/a	n/a
3670.344	n/a	RECOG_CONF	1835172	n/a	LTP064	ltpFR	1	4	1	WHEEL	1603	1	0	n/a	n/a	n/a	n/a	n/a
3671.806	n/a	RECOG_TARGET	1835903	n/a	LTP064	ltpFR	1	4	0	TICK	1463	n/a	0	n/a	n/a	n/a	n/a	n/a
