onset	duration	trial_type	sample	stim_file	subject	experiment	session	trial	task	item_name	item_num	recog_resp	recog_conf	resp	color_r	color_g	color_b	case	font
430.104	n/a	SESS_START	215052	n/a	LTP279	ltpFR	6	n/a	n/a	n/a	n/a	1	n/a	n/a	n/a	n/a	n/a	n/a	n/a
492.474	n/a	WORD	246237	wordpools/wasnorm_wordpool_less_exclusions.txt	LTP279	ltpFR	6	1	0	GLOBE	641	n/a	n/a	0	0.57763671875	0.412841796875	1	upper	zerothre.ttf
496.536	n/a	WORD	248268	wordpools/wasnorm_wordpool_less_exclusions.txt	LTP279	ltpFR	6	1	0	ATLAS	53	n/a	n/a	0	0.57763671875	0.412841796875	1	upper	zerothre.ttf
500.58	n/a	WORD	250290	wordpools/wasnorm_wordpool_less_exclusions.txt	LTP279	ltpFR	6	1	1	DONKEY	484	n/a	n/a	1	0.422607421875	0.5869140625	0	lower	amplitud.ttf
504.456	n/a	WORD	252228	wordpools/wasnorm_wordpool_less_exclusions.txt	LTP279	ltpFR	6	1	1	LASER	801	n/a	n/a	0	0.422607421875	0.5869140625	0	lower	amplitud.ttf
508.534	n/a	WORD	254267	wordpools/wasnorm_wordpool_less_exclusions.txt	LTP279	ltpFR	6	1	1	LEAF	808	n/a	n/a	0	0.422607421875	0.5869140625	0	lower	amplitud.ttf
512.428	n/a	WORD	256214	wordpools/wasnorm_wordpool_less_exclusions.txt	LTP279	ltpFR	6	1	1	KITCHEN	778	n/a	n/a	0	0.422607421875	0.5869140625	0	lower	amplitud.ttf
516.372	n/a	WORD	258186	wordpools/wasnorm_wordpool_less_exclusions.txt	LTP279	ltpFR	6	1	1	STEAM	1375	n/a	n/a	0	0.422607421875	0.5869140625	0	lower	amplitud.ttf
520.266	n/a	WORD	260133	wordpools/wasnorm_wordpool_less_exclusions.txt	LTP279	ltpFR	6	1	1	MOSS	918	n/a	n/a	1	0.422607421875	0.5869140625	0	lower	amplitud.ttf
524.094	n/a	WORD	262047	wordpools/wasnorm_wordpool_less_exclusions.txt	LTP279	ltpFR	6	1	0	PONY	1102	n/a	n/a	1	0.57763671875	0.412841796875	1	upper	zerothre.ttf
528.272	n/a	WORD	264136	wordpools/wasnorm_wordpool_less_exclusions.txt	LTP279	ltpFR	6	1	0	COW	393	n/a	n/a	1	0.57763671875	0.412841796875	1	upper	zerothre.ttf
532.432	n/a	WORD	266216	wordpools/wasnorm_wordpool_less_exclusions.txt	LTP279	ltpFR	6	1	0	ISLAND	745	n/a	n/a	1	0.57763671875	0.412841796875	1	upper	zerothre.ttf
536.31	n/a	WORD	268155	wordpools/wasnorm_wordpool_less_exclusions.txt	LTP279	ltpFR	6	1	1	NEWSSTAND	949	n/a	n/a	0	0.422607421875	0.5869140625	0	lower	amplitud.ttf
540.454	n/a	WORD	270227	wordpools/wasnorm_wordpool_less_exclusions.txt	LTP279	ltpFR	6	1	1	BATHROOM	99	n/a	n/a	0	0.422607421875	0.5869140625	0	lower	amplitud.ttf
544.33	n/a	WORD	272165	wordpools/wasnorm_wordpool_less_exclusions.txt	LTP279	ltpFR	6	1	0	SANDWICH	1232	n/a	n/a	0	0.57763671875	0.412841796875	1	upper	zerothre.ttf
548.458	n/a	WORD	274229	wordpools/wasnorm_wordpool_less_exclusions.txt	LTP279	ltpFR	6	1	0	JAR	750	n/a	n/a	0	0.57763671875	0.412841796875	1	upper	zerothre.ttf
552.336	n/a	WORD	276168	wordpools/wasnorm_wordpool_less_exclusions.txt	LTP279	ltpFR	6	1	0	BRACES	164	n/a	n/a	0	0.57763671875	0.412841796875	1	upper	zerothre.ttf
557.946	n/a	REC_START	278973	n/a	LTP279	ltpFR	6	1	n/a	n/a	n/a	n/a	n/a	n/a	n/a	n/a	n/a	n/a	n/a
558.38	n/a	REC_WORD	279190	wordpools/wasnorm_wordpool_less_exclusions.txt	LTP279	ltpFR	6	1	0	SANDWICH	1232	n/a	n/a	0	n/a	n/a	n/a	n/a	n/a
559.514	n/a	REC_WORD	279757	wordpools/wasnorm_wordpool_less_exclusions.txt	LTP279	ltpFR	6	1	0	JAR	750	n/a	n/a	0	n/a	n/a	n/a	n/a	n/a
560.908	n/a	REC_WORD	280454	wordpools/wasnorm_wordpool_less_exclusions.txt	LTP279	ltpFR	6	1	0	BRACES	164	n/a	n/a	0	n/a	n/a	n/a	n/a	n/a
562.386	n/a	REC_WORD	281193	wordpools/wasnorm_wordpool_less_exclusions.txt	LTP279	ltpFR	6	1	1	NEWSSTAND	949	n/a	n/a	0	n/a	n/a	n/a	n/a	n/a
563.386	n/a	REC_WORD_VV	281693	wordpools/wasnorm_wordpool_less_exclusions.txt	LTP279	ltpFR	6	1	n/a	<>	-1	n/a	n/a	n/a	n/a	n/a	n/a	n/a	n/a
563.754	n/a	REC_WORD	281877	wordpools/wasnorm_wordpool_less_exclusions.txt	LTP279	ltpFR	6	1	1	BATHROOM	99	n/a	n/a	0	n/a	n/a	n/a	n/a	n/a
565.422	n/a	REC_WORD	282711	wordpools/wasnorm_wordpool_less_exclusions.txt	LTP279	ltpFR	6	1	1	DONKEY	484	n/a	n/a	1	n/a	n/a	n/a	n/a	n/a
566.784	n/a	REC_WORD	283392	wordpools/wasnorm_wordpool_less_exclusions.txt	LTP279	ltpFR	6	1	1	LASER	801	n/a	n/a	0	n/a	n/a	n/a	n/a	n/a
568.658	n/a	REC_WORD	284329	wordpools/wasnorm_wordpool_less_exclusions.txt	LTP279	ltpFR	6	1	0	GLOBE	641	n/a	n/a	0	n/a	n/a	n/a	n/a	n/a
570.23	n/a	REC_WORD	285115	wordpools/wasnorm_wordpool_less_exclusions.txt	LTP279	ltpFR	6	1	0	ATLAS	53	n/a	n/a	0	n/a	n/a	n/a	n/a	n/a
588.832	n/a	REC_WORD	294416	wordpools/wasnorm_wordpool_less_exclusions.txt	LTP279	ltpFR	6	1	1	MOSS	918	n/a	n/a	1	n/a	n/a	n/a	n/a	n/a
590.82	n/a	REC_WORD	295410	wordpools/wasnorm_wordpool_less_exclusions.txt	LTP279	ltpFR	6	1	1	LEAF	808	n/a	n/a	0	n/a	n/a	n/a	n/a	n/a
605.978	n/a	REC_WORD	302989	wordpools/wasnorm_wordpool_less_exclusions.txt	LTP279	ltpFR	6	1	0	PONY	1102	n/a	n/a	1	n/a	n/a	n/a	n/a	n/a
607.062	n/a	REC_WORD	303531	wordpools/wasnorm_wordpool_less_exclusions.txt	LTP279	ltpFR	6	1	0	COW	393	n/a	n/a	1	n/a	n/a	n/a	n/a	n/a
649.992	n/a	WORD	324996	wordpools/wasnorm_wordpool_less_exclusions.txt	LTP279	ltpFR	6	2	1	BUNNY	198	n/a	n/a	1	0.422607421875	0.5869140625	0	lower	amplitud.ttf
653.968	n/a	WORD	326984	wordpools/wasnorm_wordpool_less_exclusions.txt	LTP279	ltpFR	6	2	1	TORTOISE	1486	n/a	n/a	1	0.422607421875	0.5869140625	0	lower	amplitud.ttf
658.146	n/a	WORD	329073	wordpools/wasnorm_wordpool_less_exclusions.txt	LTP279	ltpFR	6	2	0	CRUMB	416	n/a	n/a	0	0.57763671875	0.412841796875	1	upper	zerothre.ttf
662.056	n/a	WORD	331028	wordpools/wasnorm_wordpool_less_exclusions.txt	LTP279	ltpFR	6	2	0	PUMPKIN	1142	n/a	n/a	0	0.57763671875	0.412841796875	1	upper	zerothre.ttf
665.918	n/a	WORD	332959	wordpools/wasnorm_wordpool_less_exclusions.txt	LTP279	ltpFR	6	2	0	LAKE	796	n/a	n/a	1	0.57763671875	0.412841796875	1	upper	zerothre.ttf
669.978	n/a	WORD	334989	wordpools/wasnorm_wordpool_less_exclusions.txt	LTP279	ltpFR	6	2	0	DRINK	498	n/a	n/a	0	0.57763671875	0.412841796875	1	upper	zerothre.ttf
673.84	n/a	WORD	336920	wordpools/wasnorm_wordpool_less_exclusions.txt	LTP279	ltpFR	6	2	1	TREAT	1501	n/a	n/a	0	0.422607421875	0.5869140625	0	lower	amplitud.ttf
677.666	n/a	WORD	338833	wordpools/wasnorm_wordpool_less_exclusions.txt	LTP279	ltpFR	6	2	1	DESIGNER	451	n/a	n/a	1	0.422607421875	0.5869140625	0	lower	amplitud.ttf
681.81	n/a	WORD	340905	wordpools/wasnorm_wordpool_less_exclusions.txt	LTP279	ltpFR	6	2	1	MOVIE	927	n/a	n/a	0	0.422607421875	0.5869140625	0	lower	amplitud.ttf
685.988	n/a	WORD	342994	wordpools/wasnorm_wordpool_less_exclusions.txt	LTP279	ltpFR	6	2	0	PRODUCER	1129	n/a	n/a	0	0.57763671875	0.412841796875	1	upper	zerothre.ttf
689.966	n/a	WORD	344983	wordpools/wasnorm_wordpool_less_exclusions.txt	LTP279	ltpFR	6	2	0	TIDE	1465	n/a	n/a	0	0.57763671875	0.412841796875	1	upper	zerothre.ttf
694.076	n/a	WORD	347038	wordpools/wasnorm_wordpool_less_exclusions.txt	LTP279	ltpFR	6	2	0	PUB	1135	n/a	n/a	1	0.57763671875	0.412841796875	1	upper	zerothre.ttf
697.938	n/a	WORD	348969	wordpools/wasnorm_wordpool_less_exclusions.txt	LTP279	ltpFR	6	2	0	TAPIOCA	1434	n/a	n/a	0	0.57763671875	0.412841796875	1	upper	zerothre.ttf
702.082	n/a	WORD	351041	wordpools/wasnorm_wordpool_less_exclusions.txt	LTP279	ltpFR	6	2	1	CONDUCTOR	362	n/a	n/a	1	0.422607421875	0.5869140625	0	lower	amplitud.ttf
706.308	n/a	WORD	353154	wordpools/wasnorm_wordpool_less_exclusions.txt	LTP279	ltpFR	6	2	1	WAND	1586	n/a	n/a	0	0.422607421875	0.5869140625	0	lower	amplitud.ttf
710.152	n/a	WORD	355076	wordpools/wasnorm_wordpool_less_exclusions.txt	LTP279	ltpFR	6	2	1	SUSPECT	1415	n/a	n/a	1	0.422607421875	0.5869140625	0	lower	amplitud.ttf
716.128	n/a	REC_START	358064	n/a	LTP279	ltpFR	6	2	n/a	n/a	n/a	n/a	n/a	n/a	n/a	n/a	n/a	n/a	n/a
717.05	n/a	REC_WORD	358525	wordpools/wasnorm_wordpool_less_exclusions.txt	LTP279	ltpFR	6	2	0	PUB	1135	n/a	n/a	1	n/a	n/a	n/a	n/a	n/a
717.846	n/a	REC_WORD	358923	wordpools/wasnorm_wordpool_less_exclusions.txt	LTP279	ltpFR	6	2	0	TAPIOCA	1434	n/a	n/a	0	n/a	n/a	n/a	n/a	n/a
719.072	n/a	REC_WORD	359536	wordpools/wasnorm_wordpool_less_exclusions.txt	LTP279	ltpFR	6	2	1	CONDUCTOR	362	n/a	n/a	1	n/a	n/a	n/a	n/a	n/a
720.408	n/a	REC_WORD	360204	wordpools/wasnorm_wordpool_less_exclusions.txt	LTP279	ltpFR	6	2	1	WAND	1586	n/a	n/a	0	n/a	n/a	n/a	n/a	n/a
721.656	n/a	REC_WORD	360828	wordpools/wasnorm_wordpool_less_exclusions.txt	LTP279	ltpFR	6	2	n/a	SUBJECT	-1	n/a	n/a	n/a	n/a	n/a	n/a	n/a	n/a
723.382	n/a	REC_WORD	361691	wordpools/wasnorm_wordpool_less_exclusions.txt	LTP279	ltpFR	6	2	1	BUNNY	198	n/a	n/a	1	n/a	n/a	n/a	n/a	n/a
724.976	n/a	REC_WORD	362488	wordpools/wasnorm_wordpool_less_exclusions.txt	LTP279	ltpFR	6	2	1	TORTOISE	1486	n/a	n/a	1	n/a	n/a	n/a	n/a	n/a
726.902	n/a	REC_WORD	363451	wordpools/wasnorm_wordpool_less_exclusions.txt	LTP279	ltpFR	6	2	0	CRUMB	416	n/a	n/a	0	n/a	n/a	n/a	n/a	n/a
734.452	n/a	REC_WORD	367226	wordpools/wasnorm_wordpool_less_exclusions.txt	LTP279	ltpFR	6	2	1	CONDUCTOR	362	n/a	n/a	1	n/a	n/a	n/a	n/a	n/a
737.136	n/a	REC_WORD_VV	368568	wordpools/wasnorm_wordpool_less_exclusions.txt	LTP279	ltpFR	6	2	n/a	<>	-1	n/a	n/a	n/a	n/a	n/a	n/a	n/a	n/a
737.898	n/a	REC_WORD	368949	wordpools/wasnorm_wordpool_less_exclusions.txt	LTP279	ltpFR	6	2	0	PRODUCER	1129	n/a	n/a	0	n/a	n/a	n/a	n/a	n/a
755.302	n/a	REC_WORD	377651	wordpools/wasnorm_wordpool_less_exclusions.txt	LTP279	ltpFR	6	2	0	PUMPKIN	1142	n/a	n/a	0	n/a	n/a	n/a	n/a	n/a
758.744	n/a	REC_WORD	379372	wordpools/wasnorm_wordpool_less_exclusions.txt	LTP279	ltpFR	6	2	0	LAKE	796	n/a	n/a	1	n/a	n/a	n/a	n/a	n/a
763.638	n/a	REC_WORD_VV	381819	wordpools/wasnorm_wordpool_less_exclusions.txt	LTP279	ltpFR	6	2	n/a	<>	-1	n/a	n/a	n/a	n/a	n/a	n/a	n/a	n/a
764.638	n/a	REC_WORD_VV	382319	wordpools/wasnorm_wordpool_less_exclusions.txt	LTP279	ltpFR	6	2	n/a	<>	-1	n/a	n/a	n/a	n/a	n/a	n/a	n/a	n/a
799.054	n/a	WORD	399527	wordpools/wasnorm_wordpool_less_exclusions.txt	LTP279	ltpFR	6	3	1	BROOK	177	n/a	n/a	0	0.422607421875	0.5869140625	0	lower	amplitud.ttf
803.064	n/a	WORD	401532	wordpools/wasnorm_wordpool_less_exclusions.txt	LTP279	ltpFR	6	3	1	POSSUM	1112	n/a	n/a	1	0.422607421875	0.5869140625	0	lower	amplitud.ttf
807.126	n/a	WORD	403563	wordpools/wasnorm_wordpool_less_exclusions.txt	LTP279	ltpFR	6	3	1	MINK	897	n/a	n/a	1	0.422607421875	0.5869140625	0	lower	amplitud.ttf
811.286	n/a	WORD	405643	wordpools/wasnorm_wordpool_less_exclusions.txt	LTP279	ltpFR	6	3	1	CAPE	237	n/a	n/a	0	0.422607421875	0.5869140625	0	lower	amplitud.ttf
815.214	n/a	WORD	407607	wordpools/wasnorm_wordpool_less_exclusions.txt	LTP279	ltpFR	6	3	1	SPACE	1345	n/a	n/a	0	0.422607421875	0.5869140625	0	lower	amplitud.ttf
819.042	n/a	WORD	409521	wordpools/wasnorm_wordpool_less_exclusions.txt	LTP279	ltpFR	6	3	1	SCAPEGOAT	1244	n/a	n/a	1	0.422607421875	0.5869140625	0	lower	amplitud.ttf
823.086	n/a	WORD	411543	wordpools/wasnorm_wordpool_less_exclusions.txt	LTP279	ltpFR	6	3	1	TREAD	1499	n/a	n/a	0	0.422607421875	0.5869140625	0	lower	amplitud.ttf
827.246	n/a	WORD	413623	wordpools/wasnorm_wordpool_less_exclusions.txt	LTP279	ltpFR	6	3	1	MILK	895	n/a	n/a	0	0.422607421875	0.5869140625	0	lower	amplitud.ttf
831.158	n/a	WORD	415579	wordpools/wasnorm_wordpool_less_exclusions.txt	LTP279	ltpFR	6	3	1	PRIMATE	1123	n/a	n/a	0	0.422607421875	0.5869140625	0	lower	amplitud.ttf
835.302	n/a	WORD	417651	wordpools/wasnorm_wordpool_less_exclusions.txt	LTP279	ltpFR	6	3	1	CIGAR	308	n/a	n/a	0	0.422607421875	0.5869140625	0	lower	amplitud.ttf
839.246	n/a	WORD	419623	wordpools/wasnorm_wordpool_less_exclusions.txt	LTP279	ltpFR	6	3	1	LUNG	850	n/a	n/a	0	0.422607421875	0.5869140625	0	lower	amplitud.ttf
843.14	n/a	WORD	421570	wordpools/wasnorm_wordpool_less_exclusions.txt	LTP279	ltpFR	6	3	1	OX	994	n/a	n/a	1	0.422607421875	0.5869140625	0	lower	amplitud.ttf
847.334	n/a	WORD	423667	wordpools/wasnorm_wordpool_less_exclusions.txt	LTP279	ltpFR	6	3	1	GARBAGE	622	n/a	n/a	0	0.422607421875	0.5869140625	0	lower	amplitud.ttf
851.328	n/a	WORD	425664	wordpools/wasnorm_wordpool_less_exclusions.txt	LTP279	ltpFR	6	3	1	FROST	609	n/a	n/a	0	0.422607421875	0.5869140625	0	lower	amplitud.ttf
855.154	n/a	WORD	427577	wordpools/wasnorm_wordpool_less_exclusions.txt	LTP279	ltpFR	6	3	1	ICE	730	n/a	n/a	0	0.422607421875	0.5869140625	0	lower	amplitud.ttf
859.282	n/a	WORD	429641	wordpools/wasnorm_wordpool_less_exclusions.txt	LTP279	ltpFR	6	3	1	RASH	1167	n/a	n/a	0	0.422607421875	0.5869140625	0	lower	amplitud.ttf
865.306	n/a	REC_START	432653	n/a	LTP279	ltpFR	6	3	n/a	n/a	n/a	n/a	n/a	n/a	n/a	n/a	n/a	n/a	n/a
866.154	n/a	REC_WORD	433077	wordpools/wasnorm_wordpool_less_exclusions.txt	LTP279	ltpFR	6	3	1	FROST	609	n/a	n/a	0	n/a	n/a	n/a	n/a	n/a
867.796	n/a	REC_WORD	433898	wordpools/wasnorm_wordpool_less_exclusions.txt	LTP279	ltpFR	6	3	1	ICE	730	n/a	n/a	0	n/a	n/a	n/a	n/a	n/a
869.436	n/a	REC_WORD	434718	wordpools/wasnorm_wordpool_less_exclusions.txt	LTP279	ltpFR	6	3	1	RASH	1167	n/a	n/a	0	n/a	n/a	n/a	n/a	n/a
874.416	n/a	REC_WORD	437208	wordpools/wasnorm_wordpool_less_exclusions.txt	LTP279	ltpFR	6	3	1	OX	994	n/a	n/a	1	n/a	n/a	n/a	n/a	n/a
875.522	n/a	REC_WORD	437761	wordpools/wasnorm_wordpool_less_exclusions.txt	LTP279	ltpFR	6	3	1	LUNG	850	n/a	n/a	0	n/a	n/a	n/a	n/a	n/a
877.38	n/a	REC_WORD_VV	438690	wordpools/wasnorm_wordpool_less_exclusions.txt	LTP279	ltpFR	6	3	n/a	<>	-1	n/a	n/a	n/a	n/a	n/a	n/a	n/a	n/a
878.38	n/a	REC_WORD_VV	439190	wordpools/wasnorm_wordpool_less_exclusions.txt	LTP279	ltpFR	6	3	n/a	<>	-1	n/a	n/a	n/a	n/a	n/a	n/a	n/a	n/a
881.362	n/a	REC_WORD	440681	wordpools/wasnorm_wordpool_less_exclusions.txt	LTP279	ltpFR	6	3	1	SCAPEGOAT	1244	n/a	n/a	1	n/a	n/a	n/a	n/a	n/a
968.038	n/a	WORD	484019	wordpools/wasnorm_wordpool_less_exclusions.txt	LTP279	ltpFR	6	4	-1	TELEPHONE	1445	n/a	n/a	-1	1.0	1.0	1	upper	Verdana.ttf
972.116	n/a	WORD	486058	wordpools/wasnorm_wordpool_less_exclusions.txt	LTP279	ltpFR	6	4	-1	HOOP	716	n/a	n/a	-1	1.0	1.0	1	upper	Verdana.ttf
976.042	n/a	WORD	488021	wordpools/wasnorm_wordpool_less_exclusions.txt	LTP279	ltpFR	6	4	-1	DANCER	437	n/a	n/a	-1	1.0	1.0	1	upper	Verdana.ttf
979.988	n/a	WORD	489994	wordpools/wasnorm_wordpool_less_exclusions.txt	LTP279	ltpFR	6	4	-1	ELECTRICIAN	521	n/a	n/a	-1	1.0	1.0	1	upper	Verdana.ttf
983.898	n/a	WORD	491949	wordpools/wasnorm_wordpool_less_exclusions.txt	LTP279	ltpFR	6	4	-1	UNIVERSE	1540	n/a	n/a	-1	1.0	1.0	1	upper	Verdana.ttf
987.876	n/a	WORD	493938	wordpools/wasnorm_wordpool_less_exclusions.txt	LTP279	ltpFR	6	4	-1	WICK	1607	n/a	n/a	-1	1.0	1.0	1	upper	Verdana.ttf
991.92	n/a	WORD	495960	wordpools/wasnorm_wordpool_less_exclusions.txt	LTP279	ltpFR	6	4	-1	GRATE	657	n/a	n/a	-1	1.0	1.0	1	upper	Verdana.ttf
996.096	n/a	WORD	498048	wordpools/wasnorm_wordpool_less_exclusions.txt	LTP279	ltpFR	6	4	-1	FLANNEL	574	n/a	n/a	-1	1.0	1.0	1	upper	Verdana.ttf
1000.206	n/a	WORD	500103	wordpools/wasnorm_wordpool_less_exclusions.txt	LTP279	ltpFR	6	4	-1	CAT	257	n/a	n/a	-1	1.0	1.0	1	upper	Verdana.ttf
1004.2	n/a	WORD	502100	wordpools/wasnorm_wordpool_less_exclusions.txt	LTP279	ltpFR	6	4	-1	MUSHROOM	934	n/a	n/a	-1	1.0	1.0	1	upper	Verdana.ttf
1008.028	n/a	WORD	504014	wordpools/wasnorm_wordpool_less_exclusions.txt	LTP279	ltpFR	6	4	-1	REFRIGERATOR	1179	n/a	n/a	-1	1.0	1.0	1	upper	Verdana.ttf
1011.922	n/a	WORD	505961	wordpools/wasnorm_wordpool_less_exclusions.txt	LTP279	ltpFR	6	4	-1	FENCE	560	n/a	n/a	-1	1.0	1.0	1	upper	Verdana.ttf
1015.75	n/a	WORD	507875	wordpools/wasnorm_wordpool_less_exclusions.txt	LTP279	ltpFR	6	4	-1	GATE	625	n/a	n/a	-1	1.0	1.0	1	upper	Verdana.ttf
1019.928	n/a	WORD	509964	wordpools/wasnorm_wordpool_less_exclusions.txt	LTP279	ltpFR	6	4	-1	GOWN	652	n/a	n/a	-1	1.0	1.0	1	upper	Verdana.ttf
1023.922	n/a	WORD	511961	wordpools/wasnorm_wordpool_less_exclusions.txt	LTP279	ltpFR	6	4	-1	PAW	1029	n/a	n/a	-1	1.0	1.0	1	upper	Verdana.ttf
1028.032	n/a	WORD	514016	wordpools/wasnorm_wordpool_less_exclusions.txt	LTP279	ltpFR	6	4	-1	REBEL	1172	n/a	n/a	-1	1.0	1.0	1	upper	Verdana.ttf
1033.758	n/a	REC_START	516879	n/a	LTP279	ltpFR	6	4	n/a	n/a	n/a	n/a	n/a	n/a	n/a	n/a	n/a	n/a	n/a
1034.522	n/a	REC_WORD	517261	wordpools/wasnorm_wordpool_less_exclusions.txt	LTP279	ltpFR	6	4	-1	GOWN	652	n/a	n/a	-1	n/a	n/a	n/a	n/a	n/a
1036.018	n/a	REC_WORD	518009	wordpools/wasnorm_wordpool_less_exclusions.txt	LTP279	ltpFR	6	4	-1	PAW	1029	n/a	n/a	-1	n/a	n/a	n/a	n/a	n/a
1037.374	n/a	REC_WORD	518687	wordpools/wasnorm_wordpool_less_exclusions.txt	LTP279	ltpFR	6	4	-1	REBEL	1172	n/a	n/a	-1	n/a	n/a	n/a	n/a	n/a
1038.396	n/a	REC_WORD_VV	519198	wordpools/wasnorm_wordpool_less_exclusions.txt	LTP279	ltpFR	6	4	n/a	<>	-1	n/a	n/a	n/a	n/a	n/a	n/a	n/a	n/a
1042.392	n/a	REC_WORD	521196	wordpools/wasnorm_wordpool_less_exclusions.txt	LTP279	ltpFR	6	4	n/a	TELEVISION	1447	n/a	n/a	n/a	n/a	n/a	n/a	n/a	n/a
1044.328	n/a	REC_WORD	522164	wordpools/wasnorm_wordpool_less_exclusions.txt	LTP279	ltpFR	6	4	-1	TELEPHONE	1445	n/a	n/a	-1	n/a	n/a	n/a	n/a	n/a
1047.878	n/a	REC_WORD	523939	wordpools/wasnorm_wordpool_less_exclusions.txt	LTP279	ltpFR	6	4	-1	TELEPHONE	1445	n/a	n/a	-1	n/a	n/a	n/a	n/a	n/a
1049.826	n/a	REC_WORD	524913	wordpools/wasnorm_wordpool_less_exclusions.txt	LTP279	ltpFR	6	4	-1	HOOP	716	n/a	n/a	-1	n/a	n/a	n/a	n/a	n/a
1051.056	n/a	REC_WORD	525528	wordpools/wasnorm_wordpool_less_exclusions.txt	LTP279	ltpFR	6	4	-1	DANCER	437	n/a	n/a	-1	n/a	n/a	n/a	n/a	n/a
1058.59	n/a	REC_WORD	529295	wordpools/wasnorm_wordpool_less_exclusions.txt	LTP279	ltpFR	6	4	-1	GRATE	657	n/a	n/a	-1	n/a	n/a	n/a	n/a	n/a
1059.79	n/a	REC_WORD	529895	wordpools/wasnorm_wordpool_less_exclusions.txt	LTP279	ltpFR	6	4	n/a	WHISK	-1	n/a	n/a	n/a	n/a	n/a	n/a	n/a	n/a
1070.16	n/a	REC_WORD	535080	wordpools/wasnorm_wordpool_less_exclusions.txt	LTP279	ltpFR	6	4	-1	GATE	625	n/a	n/a	-1	n/a	n/a	n/a	n/a	n/a
1070.784	n/a	REC_WORD	535392	wordpools/wasnorm_wordpool_less_exclusions.txt	LTP279	ltpFR	6	4	-1	FENCE	560	n/a	n/a	-1	n/a	n/a	n/a	n/a	n/a
1072.716	n/a	REC_WORD	536358	wordpools/wasnorm_wordpool_less_exclusions.txt	LTP279	ltpFR	6	4	-1	CAT	257	n/a	n/a	-1	n/a	n/a	n/a	n/a	n/a
1074.156	n/a	REC_WORD	537078	wordpools/wasnorm_wordpool_less_exclusions.txt	LTP279	ltpFR	6	4	-1	FLANNEL	574	n/a	n/a	-1	n/a	n/a	n/a	n/a	n/a
1077.516	n/a	REC_WORD	538758	wordpools/wasnorm_wordpool_less_exclusions.txt	LTP279	ltpFR	6	4	-1	MUSHROOM	934	n/a	n/a	-1	n/a	n/a	n/a	n/a	n/a
1078.426	n/a	REC_WORD	539213	wordpools/wasnorm_wordpool_less_exclusions.txt	LTP279	ltpFR	6	4	-1	REFRIGERATOR	1179	n/a	n/a	-1	n/a	n/a	n/a	n/a	n/a
1090.126	n/a	REC_WORD	545063	wordpools/wasnorm_wordpool_less_exclusions.txt	LTP279	ltpFR	6	4	-1	ELECTRICIAN	521	n/a	n/a	-1	n/a	n/a	n/a	n/a	n/a
1122.21	n/a	WORD	561105	wordpools/wasnorm_wordpool_less_exclusions.txt	LTP279	ltpFR	6	5	0	SECRETARY	1265	n/a	n/a	0	0.57763671875	0.412841796875	1	upper	zerothre.ttf
1126.054	n/a	WORD	563027	wordpools/wasnorm_wordpool_less_exclusions.txt	LTP279	ltpFR	6	5	0	ASSISTANT	48	n/a	n/a	0	0.57763671875	0.412841796875	1	upper	zerothre.ttf
1130.148	n/a	WORD	565074	wordpools/wasnorm_wordpool_less_exclusions.txt	LTP279	ltpFR	6	5	0	THICKET	1455	n/a	n/a	0	0.57763671875	0.412841796875	1	upper	zerothre.ttf
1134.242	n/a	WORD	567121	wordpools/wasnorm_wordpool_less_exclusions.txt	LTP279	ltpFR	6	5	0	CHAIRPERSON	275	n/a	n/a	0	0.57763671875	0.412841796875	1	upper	zerothre.ttf
1138.136	n/a	WORD	569068	wordpools/wasnorm_wordpool_less_exclusions.txt	LTP279	ltpFR	6	5	1	RESTAURANT	1187	n/a	n/a	0	0.422607421875	0.5869140625	0	lower	amplitud.ttf
1142.096	n/a	WORD	571048	wordpools/wasnorm_wordpool_less_exclusions.txt	LTP279	ltpFR	6	5	1	BANQUET	86	n/a	n/a	0	0.422607421875	0.5869140625	0	lower	amplitud.ttf
1146.058	n/a	WORD	573029	wordpools/wasnorm_wordpool_less_exclusions.txt	LTP279	ltpFR	6	5	0	PUDDLE	1140	n/a	n/a	0	0.57763671875	0.412841796875	1	upper	zerothre.ttf
1149.902	n/a	WORD	574951	wordpools/wasnorm_wordpool_less_exclusions.txt	LTP279	ltpFR	6	5	0	SHORE	1291	n/a	n/a	1	0.57763671875	0.412841796875	1	upper	zerothre.ttf
1153.896	n/a	WORD	576948	wordpools/wasnorm_wordpool_less_exclusions.txt	LTP279	ltpFR	6	5	0	SADDLE	1221	n/a	n/a	0	0.57763671875	0.412841796875	1	upper	zerothre.ttf
1158.056	n/a	WORD	579028	wordpools/wasnorm_wordpool_less_exclusions.txt	LTP279	ltpFR	6	5	0	LOG	841	n/a	n/a	0	0.57763671875	0.412841796875	1	upper	zerothre.ttf
1162.25	n/a	WORD	581125	wordpools/wasnorm_wordpool_less_exclusions.txt	LTP279	ltpFR	6	5	1	HEADBAND	696	n/a	n/a	0	0.422607421875	0.5869140625	0	lower	amplitud.ttf
1166.078	n/a	WORD	583039	wordpools/wasnorm_wordpool_less_exclusions.txt	LTP279	ltpFR	6	5	1	COLT	349	n/a	n/a	0	0.422607421875	0.5869140625	0	lower	amplitud.ttf
1169.956	n/a	WORD	584978	wordpools/wasnorm_wordpool_less_exclusions.txt	LTP279	ltpFR	6	5	1	PAINT	1003	n/a	n/a	0	0.422607421875	0.5869140625	0	lower	amplitud.ttf
1174.116	n/a	WORD	587058	wordpools/wasnorm_wordpool_less_exclusions.txt	LTP279	ltpFR	6	5	1	BUYER	208	n/a	n/a	1	0.422607421875	0.5869140625	0	lower	amplitud.ttf
1177.96	n/a	WORD	588980	wordpools/wasnorm_wordpool_less_exclusions.txt	LTP279	ltpFR	6	5	1	SLEEVE	1324	n/a	n/a	0	0.422607421875	0.5869140625	0	lower	amplitud.ttf
1181.856	n/a	WORD	590928	wordpools/wasnorm_wordpool_less_exclusions.txt	LTP279	ltpFR	6	5	1	BANDANNA	80	n/a	n/a	0	0.422607421875	0.5869140625	0	lower	amplitud.ttf
1187.598	n/a	REC_START	593799	n/a	LTP279	ltpFR	6	5	n/a	n/a	n/a	n/a	n/a	n/a	n/a	n/a	n/a	n/a	n/a
1188.352	n/a	REC_WORD	594176	wordpools/wasnorm_wordpool_less_exclusions.txt	LTP279	ltpFR	6	5	1	BUYER	208	n/a	n/a	1	n/a	n/a	n/a	n/a	n/a
1189.29	n/a	REC_WORD	594645	wordpools/wasnorm_wordpool_less_exclusions.txt	LTP279	ltpFR	6	5	1	SLEEVE	1324	n/a	n/a	0	n/a	n/a	n/a	n/a	n/a
1190.64	n/a	REC_WORD	595320	wordpools/wasnorm_wordpool_less_exclusions.txt	LTP279	ltpFR	6	5	1	BANDANNA	80	n/a	n/a	0	n/a	n/a	n/a	n/a	n/a
1191.64	n/a	REC_WORD_VV	595820	wordpools/wasnorm_wordpool_less_exclusions.txt	LTP279	ltpFR	6	5	n/a	<>	-1	n/a	n/a	n/a	n/a	n/a	n/a	n/a	n/a
1193.188	n/a	REC_WORD	596594	wordpools/wasnorm_wordpool_less_exclusions.txt	LTP279	ltpFR	6	5	1	COLT	349	n/a	n/a	0	n/a	n/a	n/a	n/a	n/a
1198.476	n/a	REC_WORD	599238	wordpools/wasnorm_wordpool_less_exclusions.txt	LTP279	ltpFR	6	5	0	SECRETARY	1265	n/a	n/a	0	n/a	n/a	n/a	n/a	n/a
1199.476	n/a	REC_WORD_VV	599738	wordpools/wasnorm_wordpool_less_exclusions.txt	LTP279	ltpFR	6	5	n/a	<>	-1	n/a	n/a	n/a	n/a	n/a	n/a	n/a	n/a
1199.84	n/a	REC_WORD	599920	wordpools/wasnorm_wordpool_less_exclusions.txt	LTP279	ltpFR	6	5	0	ASSISTANT	48	n/a	n/a	0	n/a	n/a	n/a	n/a	n/a
1309.666	n/a	WORD	654833	wordpools/wasnorm_wordpool_less_exclusions.txt	LTP279	ltpFR	6	6	0	PLANT	1083	n/a	n/a	0	0.57763671875	0.412841796875	1	upper	zerothre.ttf
1313.726	n/a	WORD	656863	wordpools/wasnorm_wordpool_less_exclusions.txt	LTP279	ltpFR	6	6	0	NIGHTGOWN	953	n/a	n/a	0	0.57763671875	0.412841796875	1	upper	zerothre.ttf
1317.938	n/a	WORD	658969	wordpools/wasnorm_wordpool_less_exclusions.txt	LTP279	ltpFR	6	6	0	PATIO	1025	n/a	n/a	0	0.57763671875	0.412841796875	1	upper	zerothre.ttf
1322.014	n/a	WORD	661007	wordpools/wasnorm_wordpool_less_exclusions.txt	LTP279	ltpFR	6	6	0	DIAL	457	n/a	n/a	0	0.57763671875	0.412841796875	1	upper	zerothre.ttf
1326.026	n/a	WORD	663013	wordpools/wasnorm_wordpool_less_exclusions.txt	LTP279	ltpFR	6	6	0	CAGE	218	n/a	n/a	0	0.57763671875	0.412841796875	1	upper	zerothre.ttf
1329.886	n/a	WORD	664943	wordpools/wasnorm_wordpool_less_exclusions.txt	LTP279	ltpFR	6	6	0	ARTICLE	42	n/a	n/a	0	0.57763671875	0.412841796875	1	upper	zerothre.ttf
1333.964	n/a	WORD	666982	wordpools/wasnorm_wordpool_less_exclusions.txt	LTP279	ltpFR	6	6	0	EDITOR	516	n/a	n/a	0	0.57763671875	0.412841796875	1	upper	zerothre.ttf
1338.008	n/a	WORD	669004	wordpools/wasnorm_wordpool_less_exclusions.txt	LTP279	ltpFR	6	6	0	CACTUS	215	n/a	n/a	0	0.57763671875	0.412841796875	1	upper	zerothre.ttf
1342.202	n/a	WORD	671101	wordpools/wasnorm_wordpool_less_exclusions.txt	LTP279	ltpFR	6	6	0	TUBE	1516	n/a	n/a	0	0.57763671875	0.412841796875	1	upper	zerothre.ttf
1346.128	n/a	WORD	673064	wordpools/wasnorm_wordpool_less_exclusions.txt	LTP279	ltpFR	6	6	0	PURSE	1145	n/a	n/a	0	0.57763671875	0.412841796875	1	upper	zerothre.ttf
1349.956	n/a	WORD	674978	wordpools/wasnorm_wordpool_less_exclusions.txt	LTP279	ltpFR	6	6	0	BELT	120	n/a	n/a	0	0.57763671875	0.412841796875	1	upper	zerothre.ttf
1354.084	n/a	WORD	677042	wordpools/wasnorm_wordpool_less_exclusions.txt	LTP279	ltpFR	6	6	0	WALL	1582	n/a	n/a	0	0.57763671875	0.412841796875	1	upper	zerothre.ttf
1357.96	n/a	WORD	678980	wordpools/wasnorm_wordpool_less_exclusions.txt	LTP279	ltpFR	6	6	0	OTTER	986	n/a	n/a	0	0.57763671875	0.412841796875	1	upper	zerothre.ttf
1362.104	n/a	WORD	681052	wordpools/wasnorm_wordpool_less_exclusions.txt	LTP279	ltpFR	6	6	0	RACK	1154	n/a	n/a	0	0.57763671875	0.412841796875	1	upper	zerothre.ttf
1365.966	n/a	WORD	682983	wordpools/wasnorm_wordpool_less_exclusions.txt	LTP279	ltpFR	6	6	0	PORPOISE	1109	n/a	n/a	0	0.57763671875	0.412841796875	1	upper	zerothre.ttf
1369.876	n/a	WORD	684938	wordpools/wasnorm_wordpool_less_exclusions.txt	LTP279	ltpFR	6	6	0	WHALE	1601	n/a	n/a	1	0.57763671875	0.412841796875	1	upper	zerothre.ttf
1375.62	n/a	REC_START	687810	n/a	LTP279	ltpFR	6	6	n/a	n/a	n/a	n/a	n/a	n/a	n/a	n/a	n/a	n/a	n/a
1378.13	n/a	REC_WORD	689065	wordpools/wasnorm_wordpool_less_exclusions.txt	LTP279	ltpFR	6	6	0	WHALE	1601	n/a	n/a	1	n/a	n/a	n/a	n/a	n/a
1379.626	n/a	REC_WORD	689813	wordpools/wasnorm_wordpool_less_exclusions.txt	LTP279	ltpFR	6	6	0	PORPOISE	1109	n/a	n/a	0	n/a	n/a	n/a	n/a	n/a
1384.676	n/a	REC_WORD_VV	692338	wordpools/wasnorm_wordpool_less_exclusions.txt	LTP279	ltpFR	6	6	n/a	<>	-1	n/a	n/a	n/a	n/a	n/a	n/a	n/a	n/a
1388.476	n/a	REC_WORD_VV	694238	wordpools/wasnorm_wordpool_less_exclusions.txt	LTP279	ltpFR	6	6	n/a	<>	-1	n/a	n/a	n/a	n/a	n/a	n/a	n/a	n/a
1388.87	n/a	REC_WORD	694435	wordpools/wasnorm_wordpool_less_exclusions.txt	LTP279	ltpFR	6	6	n/a	WALLET	1583	n/a	n/a	n/a	n/a	n/a	n/a	n/a	n/a
1396.348	n/a	REC_WORD	698174	wordpools/wasnorm_wordpool_less_exclusions.txt	LTP279	ltpFR	6	6	0	OTTER	986	n/a	n/a	0	n/a	n/a	n/a	n/a	n/a
1401.876	n/a	REC_WORD	700938	wordpools/wasnorm_wordpool_less_exclusions.txt	LTP279	ltpFR	6	6	0	PURSE	1145	n/a	n/a	0	n/a	n/a	n/a	n/a	n/a
1415.6	n/a	REC_WORD	707800	wordpools/wasnorm_wordpool_less_exclusions.txt	LTP279	ltpFR	6	6	0	PATIO	1025	n/a	n/a	0	n/a	n/a	n/a	n/a	n/a
1438.958	n/a	REC_WORD	719479	wordpools/wasnorm_wordpool_less_exclusions.txt	LTP279	ltpFR	6	6	0	ARTICLE	42	n/a	n/a	0	n/a	n/a	n/a	n/a	n/a
1463.738	n/a	WORD	731869	wordpools/wasnorm_wordpool_less_exclusions.txt	LTP279	ltpFR	6	7	0	BRANCH	168	n/a	n/a	0	0.57763671875	0.412841796875	1	upper	zerothre.ttf
1467.748	n/a	WORD	733874	wordpools/wasnorm_wordpool_less_exclusions.txt	LTP279	ltpFR	6	7	0	MONUMENT	913	n/a	n/a	1	0.57763671875	0.412841796875	1	upper	zerothre.ttf
1471.594	n/a	WORD	735797	wordpools/wasnorm_wordpool_less_exclusions.txt	LTP279	ltpFR	6	7	0	MUFFIN	929	n/a	n/a	0	0.57763671875	0.412841796875	1	upper	zerothre.ttf
1475.57	n/a	WORD	737785	wordpools/wasnorm_wordpool_less_exclusions.txt	LTP279	ltpFR	6	7	0	SWATTER	1418	n/a	n/a	0	0.57763671875	0.412841796875	1	upper	zerothre.ttf
1479.398	n/a	WORD	739699	wordpools/wasnorm_wordpool_less_exclusions.txt	LTP279	ltpFR	6	7	0	TWEEZERS	1526	n/a	n/a	0	0.57763671875	0.412841796875	1	upper	zerothre.ttf
1483.226	n/a	WORD	741613	wordpools/wasnorm_wordpool_less_exclusions.txt	LTP279	ltpFR	6	7	0	CART	250	n/a	n/a	0	0.57763671875	0.412841796875	1	upper	zerothre.ttf
1487.154	n/a	WORD	743577	wordpools/wasnorm_wordpool_less_exclusions.txt	LTP279	ltpFR	6	7	0	POPE	1105	n/a	n/a	0	0.57763671875	0.412841796875	1	upper	zerothre.ttf
1491.28	n/a	WORD	745640	wordpools/wasnorm_wordpool_less_exclusions.txt	LTP279	ltpFR	6	7	0	MONK	910	n/a	n/a	0	0.57763671875	0.412841796875	1	upper	zerothre.ttf
1495.474	n/a	WORD	747737	wordpools/wasnorm_wordpool_less_exclusions.txt	LTP279	ltpFR	6	7	0	BINDER	127	n/a	n/a	0	0.57763671875	0.412841796875	1	upper	zerothre.ttf
1499.568	n/a	WORD	749784	wordpools/wasnorm_wordpool_less_exclusions.txt	LTP279	ltpFR	6	7	0	CUB	419	n/a	n/a	0	0.57763671875	0.412841796875	1	upper	zerothre.ttf
1503.746	n/a	WORD	751873	wordpools/wasnorm_wordpool_less_exclusions.txt	LTP279	ltpFR	6	7	0	GRIZZLY	662	n/a	n/a	0	0.57763671875	0.412841796875	1	upper	zerothre.ttf
1507.69	n/a	WORD	753845	wordpools/wasnorm_wordpool_less_exclusions.txt	LTP279	ltpFR	6	7	0	HANDKERCHIEF	686	n/a	n/a	0	0.57763671875	0.412841796875	1	upper	zerothre.ttf
1511.884	n/a	WORD	755942	wordpools/wasnorm_wordpool_less_exclusions.txt	LTP279	ltpFR	6	7	0	DRAWING	494	n/a	n/a	0	0.57763671875	0.412841796875	1	upper	zerothre.ttf
1515.926	n/a	WORD	757963	wordpools/wasnorm_wordpool_less_exclusions.txt	LTP279	ltpFR	6	7	0	PIGEON	1065	n/a	n/a	0	0.57763671875	0.412841796875	1	upper	zerothre.ttf
1520.054	n/a	WORD	760027	wordpools/wasnorm_wordpool_less_exclusions.txt	LTP279	ltpFR	6	7	0	BUSH	202	n/a	n/a	0	0.57763671875	0.412841796875	1	upper	zerothre.ttf
1524.064	n/a	WORD	762032	wordpools/wasnorm_wordpool_less_exclusions.txt	LTP279	ltpFR	6	7	0	FREEZER	604	n/a	n/a	0	0.57763671875	0.412841796875	1	upper	zerothre.ttf
1529.774	n/a	REC_START	764887	n/a	LTP279	ltpFR	6	7	n/a	n/a	n/a	n/a	n/a	n/a	n/a	n/a	n/a	n/a	n/a
1530.738	n/a	REC_WORD	765369	wordpools/wasnorm_wordpool_less_exclusions.txt	LTP279	ltpFR	6	7	0	HANDKERCHIEF	686	n/a	n/a	0	n/a	n/a	n/a	n/a	n/a
1531.694	n/a	REC_WORD	765847	wordpools/wasnorm_wordpool_less_exclusions.txt	LTP279	ltpFR	6	7	0	DRAWING	494	n/a	n/a	0	n/a	n/a	n/a	n/a	n/a
1532.59	n/a	REC_WORD	766295	wordpools/wasnorm_wordpool_less_exclusions.txt	LTP279	ltpFR	6	7	0	GRIZZLY	662	n/a	n/a	0	n/a	n/a	n/a	n/a	n/a
1533.396	n/a	REC_WORD	766698	wordpools/wasnorm_wordpool_less_exclusions.txt	LTP279	ltpFR	6	7	0	PIGEON	1065	n/a	n/a	0	n/a	n/a	n/a	n/a	n/a
1534.212	n/a	REC_WORD	767106	wordpools/wasnorm_wordpool_less_exclusions.txt	LTP279	ltpFR	6	7	0	BUSH	202	n/a	n/a	0	n/a	n/a	n/a	n/a	n/a
1535.322	n/a	REC_WORD	767661	wordpools/wasnorm_wordpool_less_exclusions.txt	LTP279	ltpFR	6	7	0	FREEZER	604	n/a	n/a	0	n/a	n/a	n/a	n/a	n/a
1546.734	n/a	REC_WORD	773367	wordpools/wasnorm_wordpool_less_exclusions.txt	LTP279	ltpFR	6	7	0	MONUMENT	913	n/a	n/a	1	n/a	n/a	n/a	n/a	n/a
1553.444	n/a	REC_WORD	776722	wordpools/wasnorm_wordpool_less_exclusions.txt	LTP279	ltpFR	6	7	0	POPE	1105	n/a	n/a	0	n/a	n/a	n/a	n/a	n/a
1554.926	n/a	REC_WORD	777463	wordpools/wasnorm_wordpool_less_exclusions.txt	LTP279	ltpFR	6	7	0	MONK	910	n/a	n/a	0	n/a	n/a	n/a	n/a	n/a
1613.466	n/a	WORD	806733	wordpools/wasnorm_wordpool_less_exclusions.txt	LTP279	ltpFR	6	8	1	BEAKER	104	n/a	n/a	0	0.422607421875	0.5869140625	0	lower	amplitud.ttf
1617.694	n/a	WORD	808847	wordpools/wasnorm_wordpool_less_exclusions.txt	LTP279	ltpFR	6	8	1	FOLLOWER	589	n/a	n/a	1	0.422607421875	0.5869140625	0	lower	amplitud.ttf
1621.754	n/a	WORD	810877	wordpools/wasnorm_wordpool_less_exclusions.txt	LTP279	ltpFR	6	8	0	MANAGER	863	n/a	n/a	0	0.57763671875	0.412841796875	1	upper	zerothre.ttf
1625.898	n/a	WORD	812949	wordpools/wasnorm_wordpool_less_exclusions.txt	LTP279	ltpFR	6	8	0	WORKER	1621	n/a	n/a	0	0.57763671875	0.412841796875	1	upper	zerothre.ttf
1629.758	n/a	WORD	814879	wordpools/wasnorm_wordpool_less_exclusions.txt	LTP279	ltpFR	6	8	0	BIRD	129	n/a	n/a	0	0.57763671875	0.412841796875	1	upper	zerothre.ttf
1633.936	n/a	WORD	816968	wordpools/wasnorm_wordpool_less_exclusions.txt	LTP279	ltpFR	6	8	0	DILL	465	n/a	n/a	0	0.57763671875	0.412841796875	1	upper	zerothre.ttf
1637.98	n/a	WORD	818990	wordpools/wasnorm_wordpool_less_exclusions.txt	LTP279	ltpFR	6	8	1	RUG	1215	n/a	n/a	0	0.422607421875	0.5869140625	0	lower	amplitud.ttf
1642.158	n/a	WORD	821079	wordpools/wasnorm_wordpool_less_exclusions.txt	LTP279	ltpFR	6	8	1	SHARK	1275	n/a	n/a	1	0.422607421875	0.5869140625	0	lower	amplitud.ttf
1646.284	n/a	WORD	823142	wordpools/wasnorm_wordpool_less_exclusions.txt	LTP279	ltpFR	6	8	1	NOTEBOOK	959	n/a	n/a	0	0.422607421875	0.5869140625	0	lower	amplitud.ttf
1650.244	n/a	WORD	825122	wordpools/wasnorm_wordpool_less_exclusions.txt	LTP279	ltpFR	6	8	1	DOVE	491	n/a	n/a	1	0.422607421875	0.5869140625	0	lower	amplitud.ttf
1654.19	n/a	WORD	827095	wordpools/wasnorm_wordpool_less_exclusions.txt	LTP279	ltpFR	6	8	1	DEER	444	n/a	n/a	1	0.422607421875	0.5869140625	0	lower	amplitud.ttf
1658.134	n/a	WORD	829067	wordpools/wasnorm_wordpool_less_exclusions.txt	LTP279	ltpFR	6	8	1	GAZELLE	628	n/a	n/a	1	0.422607421875	0.5869140625	0	lower	amplitud.ttf
1662.06	n/a	WORD	831030	wordpools/wasnorm_wordpool_less_exclusions.txt	LTP279	ltpFR	6	8	0	RECEPTIONIST	1174	n/a	n/a	0	0.57763671875	0.412841796875	1	upper	zerothre.ttf
1666.254	n/a	WORD	833127	wordpools/wasnorm_wordpool_less_exclusions.txt	LTP279	ltpFR	6	8	0	SUPERMARKET	1409	n/a	n/a	1	0.57763671875	0.412841796875	1	upper	zerothre.ttf
1670.132	n/a	WORD	835066	wordpools/wasnorm_wordpool_less_exclusions.txt	LTP279	ltpFR	6	8	0	HEDGE	699	n/a	n/a	0	0.57763671875	0.412841796875	1	upper	zerothre.ttf
1673.978	n/a	WORD	836989	wordpools/wasnorm_wordpool_less_exclusions.txt	LTP279	ltpFR	6	8	0	VASE	1549	n/a	n/a	0	0.57763671875	0.412841796875	1	upper	zerothre.ttf
1680.052	n/a	REC_START	840026	n/a	LTP279	ltpFR	6	8	n/a	n/a	n/a	n/a	n/a	n/a	n/a	n/a	n/a	n/a	n/a
1680.876	n/a	REC_WORD	840438	wordpools/wasnorm_wordpool_less_exclusions.txt	LTP279	ltpFR	6	8	0	RECEPTIONIST	1174	n/a	n/a	0	n/a	n/a	n/a	n/a	n/a
1681.93	n/a	REC_WORD	840965	wordpools/wasnorm_wordpool_less_exclusions.txt	LTP279	ltpFR	6	8	0	SUPERMARKET	1409	n/a	n/a	1	n/a	n/a	n/a	n/a	n/a
1683.518	n/a	REC_WORD	841759	wordpools/wasnorm_wordpool_less_exclusions.txt	LTP279	ltpFR	6	8	0	VASE	1549	n/a	n/a	0	n/a	n/a	n/a	n/a	n/a
1684.762	n/a	REC_WORD	842381	wordpools/wasnorm_wordpool_less_exclusions.txt	LTP279	ltpFR	6	8	0	HEDGE	699	n/a	n/a	0	n/a	n/a	n/a	n/a	n/a
1687.242	n/a	REC_WORD_VV	843621	wordpools/wasnorm_wordpool_less_exclusions.txt	LTP279	ltpFR	6	8	n/a	<>	-1	n/a	n/a	n/a	n/a	n/a	n/a	n/a	n/a
1688.242	n/a	REC_WORD_VV	844121	wordpools/wasnorm_wordpool_less_exclusions.txt	LTP279	ltpFR	6	8	n/a	<>	-1	n/a	n/a	n/a	n/a	n/a	n/a	n/a	n/a
1693.114	n/a	REC_WORD	846557	wordpools/wasnorm_wordpool_less_exclusions.txt	LTP279	ltpFR	6	8	0	WORKER	1621	n/a	n/a	0	n/a	n/a	n/a	n/a	n/a
1694.316	n/a	REC_WORD	847158	wordpools/wasnorm_wordpool_less_exclusions.txt	LTP279	ltpFR	6	8	0	MANAGER	863	n/a	n/a	0	n/a	n/a	n/a	n/a	n/a
1699.154	n/a	REC_WORD	849577	wordpools/wasnorm_wordpool_less_exclusions.txt	LTP279	ltpFR	6	8	1	FOLLOWER	589	n/a	n/a	1	n/a	n/a	n/a	n/a	n/a
1706.702	n/a	REC_WORD	853351	wordpools/wasnorm_wordpool_less_exclusions.txt	LTP279	ltpFR	6	8	0	RECEPTIONIST	1174	n/a	n/a	0	n/a	n/a	n/a	n/a	n/a
1720.488	n/a	REC_WORD_VV	860244	wordpools/wasnorm_wordpool_less_exclusions.txt	LTP279	ltpFR	6	8	n/a	<>	-1	n/a	n/a	n/a	n/a	n/a	n/a	n/a	n/a
1721.488	n/a	REC_WORD_VV	860744	wordpools/wasnorm_wordpool_less_exclusions.txt	LTP279	ltpFR	6	8	n/a	<>	-1	n/a	n/a	n/a	n/a	n/a	n/a	n/a	n/a
1722.488	n/a	REC_WORD_VV	861244	wordpools/wasnorm_wordpool_less_exclusions.txt	LTP279	ltpFR	6	8	n/a	<>	-1	n/a	n/a	n/a	n/a	n/a	n/a	n/a	n/a
1727.648	n/a	REC_WORD	863824	wordpools/wasnorm_wordpool_less_exclusions.txt	LTP279	ltpFR	6	8	1	DEER	444	n/a	n/a	1	n/a	n/a	n/a	n/a	n/a
1729.19	n/a	REC_WORD	864595	wordpools/wasnorm_wordpool_less_exclusions.txt	LTP279	ltpFR	6	8	1	GAZELLE	628	n/a	n/a	1	n/a	n/a	n/a	n/a	n/a
1755.656	n/a	REST_REWET	877828	n/a	LTP279	ltpFR	6	8	n/a	n/a	n/a	n/a	n/a	n/a	n/a	n/a	n/a	n/a	n/a
1988.262	n/a	WORD	994131	wordpools/wasnorm_wordpool_less_exclusions.txt	LTP279	ltpFR	6	9	1	SERVANT	1271	n/a	n/a	1	0.422607421875	0.5869140625	0	lower	amplitud.ttf
1992.406	n/a	WORD	996203	wordpools/wasnorm_wordpool_less_exclusions.txt	LTP279	ltpFR	6	9	1	BLOCKADE	137	n/a	n/a	0	0.422607421875	0.5869140625	0	lower	amplitud.ttf
1996.266	n/a	WORD	998133	wordpools/wasnorm_wordpool_less_exclusions.txt	LTP279	ltpFR	6	9	1	VINE	1568	n/a	n/a	0	0.422607421875	0.5869140625	0	lower	amplitud.ttf
2000.11	n/a	WORD	1000055	wordpools/wasnorm_wordpool_less_exclusions.txt	LTP279	ltpFR	6	9	1	TWINE	1529	n/a	n/a	0	0.422607421875	0.5869140625	0	lower	amplitud.ttf
2004.122	n/a	WORD	1002061	wordpools/wasnorm_wordpool_less_exclusions.txt	LTP279	ltpFR	6	9	1	PLAZA	1088	n/a	n/a	0	0.422607421875	0.5869140625	0	lower	amplitud.ttf
2008.232	n/a	WORD	1004116	wordpools/wasnorm_wordpool_less_exclusions.txt	LTP279	ltpFR	6	9	1	PAD	998	n/a	n/a	0	0.422607421875	0.5869140625	0	lower	amplitud.ttf
2012.16	n/a	WORD	1006080	wordpools/wasnorm_wordpool_less_exclusions.txt	LTP279	ltpFR	6	9	1	ANTEATER	26	n/a	n/a	1	0.422607421875	0.5869140625	0	lower	amplitud.ttf
2016.238	n/a	WORD	1008119	wordpools/wasnorm_wordpool_less_exclusions.txt	LTP279	ltpFR	6	9	1	ZUCCHINI	1638	n/a	n/a	0	0.422607421875	0.5869140625	0	lower	amplitud.ttf
2020.198	n/a	WORD	1010099	wordpools/wasnorm_wordpool_less_exclusions.txt	LTP279	ltpFR	6	9	1	SINK	1309	n/a	n/a	0	0.422607421875	0.5869140625	0	lower	amplitud.ttf
2024.126	n/a	WORD	1012063	wordpools/wasnorm_wordpool_less_exclusions.txt	LTP279	ltpFR	6	9	1	MARINE	869	n/a	n/a	1	0.422607421875	0.5869140625	0	lower	amplitud.ttf
2028.254	n/a	WORD	1014127	wordpools/wasnorm_wordpool_less_exclusions.txt	LTP279	ltpFR	6	9	1	RADIO	1157	n/a	n/a	0	0.422607421875	0.5869140625	0	lower	amplitud.ttf
2032.396	n/a	WORD	1016198	wordpools/wasnorm_wordpool_less_exclusions.txt	LTP279	ltpFR	6	9	1	SCREEN	1253	n/a	n/a	0	0.422607421875	0.5869140625	0	lower	amplitud.ttf
2036.424	n/a	WORD	1018212	wordpools/wasnorm_wordpool_less_exclusions.txt	LTP279	ltpFR	6	9	1	DEPARTMENT	449	n/a	n/a	0	0.422607421875	0.5869140625	0	lower	amplitud.ttf
2040.384	n/a	WORD	1020192	wordpools/wasnorm_wordpool_less_exclusions.txt	LTP279	ltpFR	6	9	1	MARKET	871	n/a	n/a	0	0.422607421875	0.5869140625	0	lower	amplitud.ttf
2044.578	n/a	WORD	1022289	wordpools/wasnorm_wordpool_less_exclusions.txt	LTP279	ltpFR	6	9	1	RACCOON	1153	n/a	n/a	1	0.422607421875	0.5869140625	0	lower	amplitud.ttf
2048.456	n/a	WORD	1024228	wordpools/wasnorm_wordpool_less_exclusions.txt	LTP279	ltpFR	6	9	1	WAITER	1580	n/a	n/a	0	0.422607421875	0.5869140625	0	lower	amplitud.ttf
2054.298	n/a	REC_START	1027149	n/a	LTP279	ltpFR	6	9	n/a	n/a	n/a	n/a	n/a	n/a	n/a	n/a	n/a	n/a	n/a
2056.18	n/a	REC_WORD	1028090	wordpools/wasnorm_wordpool_less_exclusions.txt	LTP279	ltpFR	6	9	1	MARKET	871	n/a	n/a	0	n/a	n/a	n/a	n/a	n/a
2057.222	n/a	REC_WORD	1028611	wordpools/wasnorm_wordpool_less_exclusions.txt	LTP279	ltpFR	6	9	1	RACCOON	1153	n/a	n/a	1	n/a	n/a	n/a	n/a	n/a
2059.092	n/a	REC_WORD	1029546	wordpools/wasnorm_wordpool_less_exclusions.txt	LTP279	ltpFR	6	9	1	WAITER	1580	n/a	n/a	0	n/a	n/a	n/a	n/a	n/a
2063.282	n/a	REC_WORD	1031641	wordpools/wasnorm_wordpool_less_exclusions.txt	LTP279	ltpFR	6	9	1	ZUCCHINI	1638	n/a	n/a	0	n/a	n/a	n/a	n/a	n/a
2066.556	n/a	REC_WORD_VV	1033278	wordpools/wasnorm_wordpool_less_exclusions.txt	LTP279	ltpFR	6	9	n/a	<>	-1	n/a	n/a	n/a	n/a	n/a	n/a	n/a	n/a
2077.11	n/a	REC_WORD	1038555	wordpools/wasnorm_wordpool_less_exclusions.txt	LTP279	ltpFR	6	9	1	TWINE	1529	n/a	n/a	0	n/a	n/a	n/a	n/a	n/a
2123.094	n/a	REC_WORD	1061547	wordpools/wasnorm_wordpool_less_exclusions.txt	LTP279	ltpFR	6	9	1	WAITER	1580	n/a	n/a	0	n/a	n/a	n/a	n/a	n/a
2144.73	n/a	WORD	1072365	wordpools/wasnorm_wordpool_less_exclusions.txt	LTP279	ltpFR	6	10	0	DRESSER	496	n/a	n/a	0	0.57763671875	0.412841796875	1	upper	zerothre.ttf
2148.808	n/a	WORD	1074404	wordpools/wasnorm_wordpool_less_exclusions.txt	LTP279	ltpFR	6	10	0	DESK	452	n/a	n/a	0	0.57763671875	0.412841796875	1	upper	zerothre.ttf
2152.868	n/a	WORD	1076434	wordpools/wasnorm_wordpool_less_exclusions.txt	LTP279	ltpFR	6	10	0	BEET	115	n/a	n/a	0	0.57763671875	0.412841796875	1	upper	zerothre.ttf
2156.846	n/a	WORD	1078423	wordpools/wasnorm_wordpool_less_exclusions.txt	LTP279	ltpFR	6	10	0	RADISH	1158	n/a	n/a	0	0.57763671875	0.412841796875	1	upper	zerothre.ttf
2160.69	n/a	WORD	1080345	wordpools/wasnorm_wordpool_less_exclusions.txt	LTP279	ltpFR	6	10	0	BALL	73	n/a	n/a	0	0.57763671875	0.412841796875	1	upper	zerothre.ttf
2164.834	n/a	WORD	1082417	wordpools/wasnorm_wordpool_less_exclusions.txt	LTP279	ltpFR	6	10	0	STADIUM	1364	n/a	n/a	1	0.57763671875	0.412841796875	1	upper	zerothre.ttf
2168.962	n/a	WORD	1084481	wordpools/wasnorm_wordpool_less_exclusions.txt	LTP279	ltpFR	6	10	0	CHICK	296	n/a	n/a	0	0.57763671875	0.412841796875	1	upper	zerothre.ttf
2172.822	n/a	WORD	1086411	wordpools/wasnorm_wordpool_less_exclusions.txt	LTP279	ltpFR	6	10	0	QUILT	1151	n/a	n/a	0	0.57763671875	0.412841796875	1	upper	zerothre.ttf
2176.784	n/a	WORD	1088392	wordpools/wasnorm_wordpool_less_exclusions.txt	LTP279	ltpFR	6	10	0	ATTIRE	57	n/a	n/a	0	0.57763671875	0.412841796875	1	upper	zerothre.ttf
2180.844	n/a	WORD	1090422	wordpools/wasnorm_wordpool_less_exclusions.txt	LTP279	ltpFR	6	10	0	JAW	751	n/a	n/a	0	0.57763671875	0.412841796875	1	upper	zerothre.ttf
2184.972	n/a	WORD	1092486	wordpools/wasnorm_wordpool_less_exclusions.txt	LTP279	ltpFR	6	10	0	RASPBERRY	1168	n/a	n/a	0	0.57763671875	0.412841796875	1	upper	zerothre.ttf
2188.866	n/a	WORD	1094433	wordpools/wasnorm_wordpool_less_exclusions.txt	LTP279	ltpFR	6	10	0	MATTRESS	879	n/a	n/a	0	0.57763671875	0.412841796875	1	upper	zerothre.ttf
2192.91	n/a	WORD	1096455	wordpools/wasnorm_wordpool_less_exclusions.txt	LTP279	ltpFR	6	10	0	COMPUTER	359	n/a	n/a	0	0.57763671875	0.412841796875	1	upper	zerothre.ttf
2197.12	n/a	WORD	1098560	wordpools/wasnorm_wordpool_less_exclusions.txt	LTP279	ltpFR	6	10	0	BACKBONE	66	n/a	n/a	0	0.57763671875	0.412841796875	1	upper	zerothre.ttf
2201.246	n/a	WORD	1100623	wordpools/wasnorm_wordpool_less_exclusions.txt	LTP279	ltpFR	6	10	0	DENIM	446	n/a	n/a	0	0.57763671875	0.412841796875	1	upper	zerothre.ttf
2205.358	n/a	WORD	1102679	wordpools/wasnorm_wordpool_less_exclusions.txt	LTP279	ltpFR	6	10	0	PEAR	1033	n/a	n/a	0	0.57763671875	0.412841796875	1	upper	zerothre.ttf
2211.35	n/a	REC_START	1105675	n/a	LTP279	ltpFR	6	10	n/a	n/a	n/a	n/a	n/a	n/a	n/a	n/a	n/a	n/a	n/a
2211.87	n/a	REC_WORD	1105935	wordpools/wasnorm_wordpool_less_exclusions.txt	LTP279	ltpFR	6	10	0	MATTRESS	879	n/a	n/a	0	n/a	n/a	n/a	n/a	n/a
2212.802	n/a	REC_WORD	1106401	wordpools/wasnorm_wordpool_less_exclusions.txt	LTP279	ltpFR	6	10	0	COMPUTER	359	n/a	n/a	0	n/a	n/a	n/a	n/a	n/a
2213.936	n/a	REC_WORD	1106968	wordpools/wasnorm_wordpool_less_exclusions.txt	LTP279	ltpFR	6	10	0	BACKBONE	66	n/a	n/a	0	n/a	n/a	n/a	n/a	n/a
2215.308	n/a	REC_WORD	1107654	wordpools/wasnorm_wordpool_less_exclusions.txt	LTP279	ltpFR	6	10	0	DENIM	446	n/a	n/a	0	n/a	n/a	n/a	n/a	n/a
2216.452	n/a	REC_WORD	1108226	wordpools/wasnorm_wordpool_less_exclusions.txt	LTP279	ltpFR	6	10	0	PEAR	1033	n/a	n/a	0	n/a	n/a	n/a	n/a	n/a
2217.942	n/a	REC_WORD	1108971	wordpools/wasnorm_wordpool_less_exclusions.txt	LTP279	ltpFR	6	10	0	CHICK	296	n/a	n/a	0	n/a	n/a	n/a	n/a	n/a
2219.136	n/a	REC_WORD	1109568	wordpools/wasnorm_wordpool_less_exclusions.txt	LTP279	ltpFR	6	10	0	STADIUM	1364	n/a	n/a	1	n/a	n/a	n/a	n/a	n/a
2220.928	n/a	REC_WORD	1110464	wordpools/wasnorm_wordpool_less_exclusions.txt	LTP279	ltpFR	6	10	0	QUILT	1151	n/a	n/a	0	n/a	n/a	n/a	n/a	n/a
2222.624	n/a	REC_WORD	1111312	wordpools/wasnorm_wordpool_less_exclusions.txt	LTP279	ltpFR	6	10	0	JAW	751	n/a	n/a	0	n/a	n/a	n/a	n/a	n/a
2224.26	n/a	REC_WORD	1112130	wordpools/wasnorm_wordpool_less_exclusions.txt	LTP279	ltpFR	6	10	0	RASPBERRY	1168	n/a	n/a	0	n/a	n/a	n/a	n/a	n/a
2225.262	n/a	REC_WORD_VV	1112631	wordpools/wasnorm_wordpool_less_exclusions.txt	LTP279	ltpFR	6	10	n/a	<>	-1	n/a	n/a	n/a	n/a	n/a	n/a	n/a	n/a
2227.24	n/a	REC_WORD	1113620	wordpools/wasnorm_wordpool_less_exclusions.txt	LTP279	ltpFR	6	10	0	DESK	452	n/a	n/a	0	n/a	n/a	n/a	n/a	n/a
2228.236	n/a	REC_WORD	1114118	wordpools/wasnorm_wordpool_less_exclusions.txt	LTP279	ltpFR	6	10	0	DRESSER	496	n/a	n/a	0	n/a	n/a	n/a	n/a	n/a
2230.646	n/a	REC_WORD	1115323	wordpools/wasnorm_wordpool_less_exclusions.txt	LTP279	ltpFR	6	10	0	BEET	115	n/a	n/a	0	n/a	n/a	n/a	n/a	n/a
2231.498	n/a	REC_WORD	1115749	wordpools/wasnorm_wordpool_less_exclusions.txt	LTP279	ltpFR	6	10	0	RADISH	1158	n/a	n/a	0	n/a	n/a	n/a	n/a	n/a
2232.782	n/a	REC_WORD	1116391	wordpools/wasnorm_wordpool_less_exclusions.txt	LTP279	ltpFR	6	10	0	BALL	73	n/a	n/a	0	n/a	n/a	n/a	n/a	n/a
2243.758	n/a	REC_WORD	1121879	wordpools/wasnorm_wordpool_less_exclusions.txt	LTP279	ltpFR	6	10	0	MATTRESS	879	n/a	n/a	0	n/a	n/a	n/a	n/a	n/a
2306.026	n/a	WORD	1153013	wordpools/wasnorm_wordpool_less_exclusions.txt	LTP279	ltpFR	6	11	1	PAINTING	1005	n/a	n/a	0	0.422607421875	0.5869140625	0	lower	amplitud.ttf
2309.92	n/a	WORD	1154960	wordpools/wasnorm_wordpool_less_exclusions.txt	LTP279	ltpFR	6	11	1	BUBBLE	183	n/a	n/a	0	0.422607421875	0.5869140625	0	lower	amplitud.ttf
2314.014	n/a	WORD	1157007	wordpools/wasnorm_wordpool_less_exclusions.txt	LTP279	ltpFR	6	11	1	CONE	363	n/a	n/a	0	0.422607421875	0.5869140625	0	lower	amplitud.ttf
2318.058	n/a	WORD	1159029	wordpools/wasnorm_wordpool_less_exclusions.txt	LTP279	ltpFR	6	11	1	PAINTER	1004	n/a	n/a	1	0.422607421875	0.5869140625	0	lower	amplitud.ttf
2321.952	n/a	WORD	1160976	wordpools/wasnorm_wordpool_less_exclusions.txt	LTP279	ltpFR	6	11	1	STREET	1393	n/a	n/a	0	0.422607421875	0.5869140625	0	lower	amplitud.ttf
2326.128	n/a	WORD	1163064	wordpools/wasnorm_wordpool_less_exclusions.txt	LTP279	ltpFR	6	11	1	RAIL	1161	n/a	n/a	0	0.422607421875	0.5869140625	0	lower	amplitud.ttf
2330.356	n/a	WORD	1165178	wordpools/wasnorm_wordpool_less_exclusions.txt	LTP279	ltpFR	6	11	1	ARTERY	41	n/a	n/a	0	0.422607421875	0.5869140625	0	lower	amplitud.ttf
2334.316	n/a	WORD	1167158	wordpools/wasnorm_wordpool_less_exclusions.txt	LTP279	ltpFR	6	11	1	DESSERT	453	n/a	n/a	0	0.422607421875	0.5869140625	0	lower	amplitud.ttf
2338.294	n/a	WORD	1169147	wordpools/wasnorm_wordpool_less_exclusions.txt	LTP279	ltpFR	6	11	1	SALMON	1227	n/a	n/a	1	0.422607421875	0.5869140625	0	lower	amplitud.ttf
2342.472	n/a	WORD	1171236	wordpools/wasnorm_wordpool_less_exclusions.txt	LTP279	ltpFR	6	11	1	MERMAID	887	n/a	n/a	1	0.422607421875	0.5869140625	0	lower	amplitud.ttf
2346.482	n/a	WORD	1173241	wordpools/wasnorm_wordpool_less_exclusions.txt	LTP279	ltpFR	6	11	1	CORN	381	n/a	n/a	0	0.422607421875	0.5869140625	0	lower	amplitud.ttf
2350.644	n/a	WORD	1175322	wordpools/wasnorm_wordpool_less_exclusions.txt	LTP279	ltpFR	6	11	1	BUN	197	n/a	n/a	0	0.422607421875	0.5869140625	0	lower	amplitud.ttf
2354.604	n/a	WORD	1177302	wordpools/wasnorm_wordpool_less_exclusions.txt	LTP279	ltpFR	6	11	1	SAW	1239	n/a	n/a	0	0.422607421875	0.5869140625	0	lower	amplitud.ttf
2358.83	n/a	WORD	1179415	wordpools/wasnorm_wordpool_less_exclusions.txt	LTP279	ltpFR	6	11	1	PIKE	1067	n/a	n/a	0	0.422607421875	0.5869140625	0	lower	amplitud.ttf
2362.724	n/a	WORD	1181362	wordpools/wasnorm_wordpool_less_exclusions.txt	LTP279	ltpFR	6	11	1	MOUTH	926	n/a	n/a	0	0.422607421875	0.5869140625	0	lower	amplitud.ttf
2366.638	n/a	WORD	1183319	wordpools/wasnorm_wordpool_less_exclusions.txt	LTP279	ltpFR	6	11	1	HUMAN	726	n/a	n/a	1	0.422607421875	0.5869140625	0	lower	amplitud.ttf
2372.362	n/a	REC_START	1186181	n/a	LTP279	ltpFR	6	11	n/a	n/a	n/a	n/a	n/a	n/a	n/a	n/a	n/a	n/a	n/a
2372.816	n/a	REC_WORD	1186408	wordpools/wasnorm_wordpool_less_exclusions.txt	LTP279	ltpFR	6	11	1	SAW	1239	n/a	n/a	0	n/a	n/a	n/a	n/a	n/a
2373.904	n/a	REC_WORD	1186952	wordpools/wasnorm_wordpool_less_exclusions.txt	LTP279	ltpFR	6	11	1	PIKE	1067	n/a	n/a	0	n/a	n/a	n/a	n/a	n/a
2374.86	n/a	REC_WORD	1187430	wordpools/wasnorm_wordpool_less_exclusions.txt	LTP279	ltpFR	6	11	1	MOUTH	926	n/a	n/a	0	n/a	n/a	n/a	n/a	n/a
2375.996	n/a	REC_WORD	1187998	wordpools/wasnorm_wordpool_less_exclusions.txt	LTP279	ltpFR	6	11	1	HUMAN	726	n/a	n/a	1	n/a	n/a	n/a	n/a	n/a
2377.362	n/a	REC_WORD	1188681	wordpools/wasnorm_wordpool_less_exclusions.txt	LTP279	ltpFR	6	11	1	PAINTING	1005	n/a	n/a	0	n/a	n/a	n/a	n/a	n/a
2379.782	n/a	REC_WORD	1189891	wordpools/wasnorm_wordpool_less_exclusions.txt	LTP279	ltpFR	6	11	1	BUBBLE	183	n/a	n/a	0	n/a	n/a	n/a	n/a	n/a
2381.006	n/a	REC_WORD	1190503	wordpools/wasnorm_wordpool_less_exclusions.txt	LTP279	ltpFR	6	11	1	CONE	363	n/a	n/a	0	n/a	n/a	n/a	n/a	n/a
2384.188	n/a	REC_WORD	1192094	wordpools/wasnorm_wordpool_less_exclusions.txt	LTP279	ltpFR	6	11	1	PAINTER	1004	n/a	n/a	1	n/a	n/a	n/a	n/a	n/a
2387.194	n/a	REC_WORD	1193597	wordpools/wasnorm_wordpool_less_exclusions.txt	LTP279	ltpFR	6	11	1	STREET	1393	n/a	n/a	0	n/a	n/a	n/a	n/a	n/a
2390.314	n/a	REC_WORD	1195157	wordpools/wasnorm_wordpool_less_exclusions.txt	LTP279	ltpFR	6	11	1	RAIL	1161	n/a	n/a	0	n/a	n/a	n/a	n/a	n/a
2391.43	n/a	REC_WORD	1195715	wordpools/wasnorm_wordpool_less_exclusions.txt	LTP279	ltpFR	6	11	1	ARTERY	41	n/a	n/a	0	n/a	n/a	n/a	n/a	n/a
2393.372	n/a	REC_WORD	1196686	wordpools/wasnorm_wordpool_less_exclusions.txt	LTP279	ltpFR	6	11	1	DESSERT	453	n/a	n/a	0	n/a	n/a	n/a	n/a	n/a
2395.2	n/a	REC_WORD	1197600	wordpools/wasnorm_wordpool_less_exclusions.txt	LTP279	ltpFR	6	11	1	SALMON	1227	n/a	n/a	1	n/a	n/a	n/a	n/a	n/a
2396.072	n/a	REC_WORD	1198036	wordpools/wasnorm_wordpool_less_exclusions.txt	LTP279	ltpFR	6	11	1	CORN	381	n/a	n/a	0	n/a	n/a	n/a	n/a	n/a
2397.002	n/a	REC_WORD	1198501	wordpools/wasnorm_wordpool_less_exclusions.txt	LTP279	ltpFR	6	11	1	BUN	197	n/a	n/a	0	n/a	n/a	n/a	n/a	n/a
2398.172	n/a	REC_WORD	1199086	wordpools/wasnorm_wordpool_less_exclusions.txt	LTP279	ltpFR	6	11	1	MERMAID	887	n/a	n/a	1	n/a	n/a	n/a	n/a	n/a
2412.256	n/a	REC_WORD_VV	1206128	wordpools/wasnorm_wordpool_less_exclusions.txt	LTP279	ltpFR	6	11	n/a	<>	-1	n/a	n/a	n/a	n/a	n/a	n/a	n/a	n/a
2466.354	n/a	WORD	1233177	wordpools/wasnorm_wordpool_less_exclusions.txt	LTP279	ltpFR	6	12	0	CLERK	321	n/a	n/a	0	0.57763671875	0.412841796875	1	upper	zerothre.ttf
2470.548	n/a	WORD	1235274	wordpools/wasnorm_wordpool_less_exclusions.txt	LTP279	ltpFR	6	12	0	DONOR	485	n/a	n/a	0	0.57763671875	0.412841796875	1	upper	zerothre.ttf
2474.56	n/a	WORD	1237280	wordpools/wasnorm_wordpool_less_exclusions.txt	LTP279	ltpFR	6	12	0	SKUNK	1321	n/a	n/a	0	0.57763671875	0.412841796875	1	upper	zerothre.ttf
2478.436	n/a	WORD	1239218	wordpools/wasnorm_wordpool_less_exclusions.txt	LTP279	ltpFR	6	12	0	FRAGRANCE	599	n/a	n/a	0	0.57763671875	0.412841796875	1	upper	zerothre.ttf
2482.648	n/a	WORD	1241324	wordpools/wasnorm_wordpool_less_exclusions.txt	LTP279	ltpFR	6	12	1	CHEEK	287	n/a	n/a	0	0.422607421875	0.5869140625	0	lower	amplitud.ttf
2486.774	n/a	WORD	1243387	wordpools/wasnorm_wordpool_less_exclusions.txt	LTP279	ltpFR	6	12	1	TONGUE	1479	n/a	n/a	0	0.422607421875	0.5869140625	0	lower	amplitud.ttf
2490.918	n/a	WORD	1245459	wordpools/wasnorm_wordpool_less_exclusions.txt	LTP279	ltpFR	6	12	1	DRYER	503	n/a	n/a	0	0.422607421875	0.5869140625	0	lower	amplitud.ttf
2494.928	n/a	WORD	1247464	wordpools/wasnorm_wordpool_less_exclusions.txt	LTP279	ltpFR	6	12	1	BULLETIN	195	n/a	n/a	0	0.422607421875	0.5869140625	0	lower	amplitud.ttf
2499.056	n/a	WORD	1249528	wordpools/wasnorm_wordpool_less_exclusions.txt	LTP279	ltpFR	6	12	0	FACTORY	548	n/a	n/a	1	0.57763671875	0.412841796875	1	upper	zerothre.ttf
2502.966	n/a	WORD	1251483	wordpools/wasnorm_wordpool_less_exclusions.txt	LTP279	ltpFR	6	12	0	PIPE	1073	n/a	n/a	0	0.57763671875	0.412841796875	1	upper	zerothre.ttf
2506.812	n/a	WORD	1253406	wordpools/wasnorm_wordpool_less_exclusions.txt	LTP279	ltpFR	6	12	1	HANGER	687	n/a	n/a	0	0.422607421875	0.5869140625	0	lower	amplitud.ttf
2511.006	n/a	WORD	1255503	wordpools/wasnorm_wordpool_less_exclusions.txt	LTP279	ltpFR	6	12	1	GIRAFFE	636	n/a	n/a	1	0.422607421875	0.5869140625	0	lower	amplitud.ttf
2514.884	n/a	WORD	1257442	wordpools/wasnorm_wordpool_less_exclusions.txt	LTP279	ltpFR	6	12	1	BUS	201	n/a	n/a	0	0.422607421875	0.5869140625	0	lower	amplitud.ttf
2518.794	n/a	WORD	1259397	wordpools/wasnorm_wordpool_less_exclusions.txt	LTP279	ltpFR	6	12	1	STABLE	1363	n/a	n/a	0	0.422607421875	0.5869140625	0	lower	amplitud.ttf
2522.688	n/a	WORD	1261344	wordpools/wasnorm_wordpool_less_exclusions.txt	LTP279	ltpFR	6	12	0	DWARF	510	n/a	n/a	2	0.57763671875	0.412841796875	1	upper	zerothre.ttf
2524.136	n/a	KEY_MSG	1262068	n/a	LTP279	ltpFR	6	12	n/a	n/a	n/a	n/a	n/a	n/a	n/a	n/a	n/a	n/a	n/a
2526.55	n/a	WORD	1263275	wordpools/wasnorm_wordpool_less_exclusions.txt	LTP279	ltpFR	6	12	0	VEHICLE	1553	n/a	n/a	0	0.57763671875	0.412841796875	1	upper	zerothre.ttf
2532.442	n/a	REC_START	1266221	n/a	LTP279	ltpFR	6	12	n/a	n/a	n/a	n/a	n/a	n/a	n/a	n/a	n/a	n/a	n/a
2533.35	n/a	REC_WORD	1266675	wordpools/wasnorm_wordpool_less_exclusions.txt	LTP279	ltpFR	6	12	1	HANGER	687	n/a	n/a	0	n/a	n/a	n/a	n/a	n/a
2534.048	n/a	REC_WORD	1267024	wordpools/wasnorm_wordpool_less_exclusions.txt	LTP279	ltpFR	6	12	1	GIRAFFE	636	n/a	n/a	1	n/a	n/a	n/a	n/a	n/a
2535.268	n/a	REC_WORD	1267634	wordpools/wasnorm_wordpool_less_exclusions.txt	LTP279	ltpFR	6	12	1	BUS	201	n/a	n/a	0	n/a	n/a	n/a	n/a	n/a
2536.318	n/a	REC_WORD	1268159	wordpools/wasnorm_wordpool_less_exclusions.txt	LTP279	ltpFR	6	12	0	VEHICLE	1553	n/a	n/a	0	n/a	n/a	n/a	n/a	n/a
2538.688	n/a	REC_WORD_VV	1269344	wordpools/wasnorm_wordpool_less_exclusions.txt	LTP279	ltpFR	6	12	n/a	<>	-1	n/a	n/a	n/a	n/a	n/a	n/a	n/a	n/a
2549.904	n/a	REC_WORD	1274952	wordpools/wasnorm_wordpool_less_exclusions.txt	LTP279	ltpFR	6	12	1	CHEEK	287	n/a	n/a	0	n/a	n/a	n/a	n/a	n/a
2550.572	n/a	REC_WORD	1275286	wordpools/wasnorm_wordpool_less_exclusions.txt	LTP279	ltpFR	6	12	1	TONGUE	1479	n/a	n/a	0	n/a	n/a	n/a	n/a	n/a
2551.374	n/a	REC_WORD	1275687	wordpools/wasnorm_wordpool_less_exclusions.txt	LTP279	ltpFR	6	12	1	DRYER	503	n/a	n/a	0	n/a	n/a	n/a	n/a	n/a
2552.648	n/a	REC_WORD	1276324	wordpools/wasnorm_wordpool_less_exclusions.txt	LTP279	ltpFR	6	12	1	BULLETIN	195	n/a	n/a	0	n/a	n/a	n/a	n/a	n/a
2554.028	n/a	REC_WORD	1277014	wordpools/wasnorm_wordpool_less_exclusions.txt	LTP279	ltpFR	6	12	0	FACTORY	548	n/a	n/a	1	n/a	n/a	n/a	n/a	n/a
2555.084	n/a	REC_WORD	1277542	wordpools/wasnorm_wordpool_less_exclusions.txt	LTP279	ltpFR	6	12	0	PIPE	1073	n/a	n/a	0	n/a	n/a	n/a	n/a	n/a
2563.89	n/a	REC_WORD	1281945	wordpools/wasnorm_wordpool_less_exclusions.txt	LTP279	ltpFR	6	12	0	FRAGRANCE	599	n/a	n/a	0	n/a	n/a	n/a	n/a	n/a
2565.07	n/a	REC_WORD	1282535	wordpools/wasnorm_wordpool_less_exclusions.txt	LTP279	ltpFR	6	12	0	CLERK	321	n/a	n/a	0	n/a	n/a	n/a	n/a	n/a
2565.83	n/a	REC_WORD	1282915	wordpools/wasnorm_wordpool_less_exclusions.txt	LTP279	ltpFR	6	12	0	SKUNK	1321	n/a	n/a	0	n/a	n/a	n/a	n/a	n/a
2567.148	n/a	REC_WORD	1283574	wordpools/wasnorm_wordpool_less_exclusions.txt	LTP279	ltpFR	6	12	0	DONOR	485	n/a	n/a	0	n/a	n/a	n/a	n/a	n/a
2624.654	n/a	WORD	1312327	wordpools/wasnorm_wordpool_less_exclusions.txt	LTP279	ltpFR	6	13	-1	SHINGLE	1285	n/a	n/a	-1	1.0	1.0	1	upper	Verdana.ttf
2628.848	n/a	WORD	1314424	wordpools/wasnorm_wordpool_less_exclusions.txt	LTP279	ltpFR	6	13	-1	TACK	1428	n/a	n/a	-1	1.0	1.0	1	upper	Verdana.ttf
2632.842	n/a	WORD	1316421	wordpools/wasnorm_wordpool_less_exclusions.txt	LTP279	ltpFR	6	13	-1	SUGAR	1401	n/a	n/a	-1	1.0	1.0	1	upper	Verdana.ttf
2636.868	n/a	WORD	1318434	wordpools/wasnorm_wordpool_less_exclusions.txt	LTP279	ltpFR	6	13	-1	WILDERNESS	1610	n/a	n/a	-1	1.0	1.0	1	upper	Verdana.ttf
2641.012	n/a	WORD	1320506	wordpools/wasnorm_wordpool_less_exclusions.txt	LTP279	ltpFR	6	13	-1	TOOL	1480	n/a	n/a	-1	1.0	1.0	1	upper	Verdana.ttf
2644.924	n/a	WORD	1322462	wordpools/wasnorm_wordpool_less_exclusions.txt	LTP279	ltpFR	6	13	-1	TAR	1435	n/a	n/a	-1	1.0	1.0	1	upper	Verdana.ttf
2648.902	n/a	WORD	1324451	wordpools/wasnorm_wordpool_less_exclusions.txt	LTP279	ltpFR	6	13	-1	SPICE	1350	n/a	n/a	-1	1.0	1.0	1	upper	Verdana.ttf
2652.93	n/a	WORD	1326465	wordpools/wasnorm_wordpool_less_exclusions.txt	LTP279	ltpFR	6	13	-1	GREASE	660	n/a	n/a	-1	1.0	1.0	1	upper	Verdana.ttf
2657.122	n/a	WORD	1328561	wordpools/wasnorm_wordpool_less_exclusions.txt	LTP279	ltpFR	6	13	-1	JUNGLE	764	n/a	n/a	-1	1.0	1.0	1	upper	Verdana.ttf
2661.134	n/a	WORD	1330567	wordpools/wasnorm_wordpool_less_exclusions.txt	LTP279	ltpFR	6	13	-1	ASHTRAY	45	n/a	n/a	-1	1.0	1.0	1	upper	Verdana.ttf
2664.962	n/a	WORD	1332481	wordpools/wasnorm_wordpool_less_exclusions.txt	LTP279	ltpFR	6	13	-1	LONDON	843	n/a	n/a	-1	1.0	1.0	1	upper	Verdana.ttf
2668.938	n/a	WORD	1334469	wordpools/wasnorm_wordpool_less_exclusions.txt	LTP279	ltpFR	6	13	-1	ROD	1203	n/a	n/a	-1	1.0	1.0	1	upper	Verdana.ttf
2672.95	n/a	WORD	1336475	wordpools/wasnorm_wordpool_less_exclusions.txt	LTP279	ltpFR	6	13	-1	MOTOR	922	n/a	n/a	-1	1.0	1.0	1	upper	Verdana.ttf
2676.794	n/a	WORD	1338397	wordpools/wasnorm_wordpool_less_exclusions.txt	LTP279	ltpFR	6	13	-1	BRAKE	166	n/a	n/a	-1	1.0	1.0	1	upper	Verdana.ttf
2680.838	n/a	WORD	1340419	wordpools/wasnorm_wordpool_less_exclusions.txt	LTP279	ltpFR	6	13	-1	SKYSCRAPER	1322	n/a	n/a	-1	1.0	1.0	1	upper	Verdana.ttf
2684.898	n/a	WORD	1342449	wordpools/wasnorm_wordpool_less_exclusions.txt	LTP279	ltpFR	6	13	-1	BUILDER	190	n/a	n/a	-1	1.0	1.0	1	upper	Verdana.ttf
2690.856	n/a	REC_START	1345428	n/a	LTP279	ltpFR	6	13	n/a	n/a	n/a	n/a	n/a	n/a	n/a	n/a	n/a	n/a	n/a
2691.27	n/a	REC_WORD	1345635	wordpools/wasnorm_wordpool_less_exclusions.txt	LTP279	ltpFR	6	13	-1	MOTOR	922	n/a	n/a	-1	n/a	n/a	n/a	n/a	n/a
2692.164	n/a	REC_WORD	1346082	wordpools/wasnorm_wordpool_less_exclusions.txt	LTP279	ltpFR	6	13	-1	BRAKE	166	n/a	n/a	-1	n/a	n/a	n/a	n/a	n/a
2693.244	n/a	REC_WORD	1346622	wordpools/wasnorm_wordpool_less_exclusions.txt	LTP279	ltpFR	6	13	-1	SKYSCRAPER	1322	n/a	n/a	-1	n/a	n/a	n/a	n/a	n/a
2694.852	n/a	REC_WORD	1347426	wordpools/wasnorm_wordpool_less_exclusions.txt	LTP279	ltpFR	6	13	-1	BUILDER	190	n/a	n/a	-1	n/a	n/a	n/a	n/a	n/a
2696.176	n/a	REC_WORD	1348088	wordpools/wasnorm_wordpool_less_exclusions.txt	LTP279	ltpFR	6	13	-1	SHINGLE	1285	n/a	n/a	-1	n/a	n/a	n/a	n/a	n/a
2697.188	n/a	REC_WORD	1348594	wordpools/wasnorm_wordpool_less_exclusions.txt	LTP279	ltpFR	6	13	-1	TACK	1428	n/a	n/a	-1	n/a	n/a	n/a	n/a	n/a
2698.618	n/a	REC_WORD	1349309	wordpools/wasnorm_wordpool_less_exclusions.txt	LTP279	ltpFR	6	13	-1	SUGAR	1401	n/a	n/a	-1	n/a	n/a	n/a	n/a	n/a
2701.682	n/a	REC_WORD	1350841	wordpools/wasnorm_wordpool_less_exclusions.txt	LTP279	ltpFR	6	13	-1	WILDERNESS	1610	n/a	n/a	-1	n/a	n/a	n/a	n/a	n/a
2702.986	n/a	REC_WORD	1351493	wordpools/wasnorm_wordpool_less_exclusions.txt	LTP279	ltpFR	6	13	-1	TAR	1435	n/a	n/a	-1	n/a	n/a	n/a	n/a	n/a
2704.084	n/a	REC_WORD	1352042	wordpools/wasnorm_wordpool_less_exclusions.txt	LTP279	ltpFR	6	13	-1	TOOL	1480	n/a	n/a	-1	n/a	n/a	n/a	n/a	n/a
2707.83	n/a	REC_WORD	1353915	wordpools/wasnorm_wordpool_less_exclusions.txt	LTP279	ltpFR	6	13	-1	ROD	1203	n/a	n/a	-1	n/a	n/a	n/a	n/a	n/a
2711.27	n/a	REC_WORD	1355635	wordpools/wasnorm_wordpool_less_exclusions.txt	LTP279	ltpFR	6	13	-1	GREASE	660	n/a	n/a	-1	n/a	n/a	n/a	n/a	n/a
2712.206	n/a	REC_WORD	1356103	wordpools/wasnorm_wordpool_less_exclusions.txt	LTP279	ltpFR	6	13	-1	JUNGLE	764	n/a	n/a	-1	n/a	n/a	n/a	n/a	n/a
2713.2	n/a	REC_WORD	1356600	wordpools/wasnorm_wordpool_less_exclusions.txt	LTP279	ltpFR	6	13	-1	LONDON	843	n/a	n/a	-1	n/a	n/a	n/a	n/a	n/a
2715.578	n/a	REC_WORD	1357789	wordpools/wasnorm_wordpool_less_exclusions.txt	LTP279	ltpFR	6	13	-1	ASHTRAY	45	n/a	n/a	-1	n/a	n/a	n/a	n/a	n/a
2731.766	n/a	REC_WORD_VV	1365883	wordpools/wasnorm_wordpool_less_exclusions.txt	LTP279	ltpFR	6	13	n/a	<>	-1	n/a	n/a	n/a	n/a	n/a	n/a	n/a	n/a
2778.958	n/a	WORD	1389479	wordpools/wasnorm_wordpool_less_exclusions.txt	LTP279	ltpFR	6	14	-1	CREAM	402	n/a	n/a	-1	1.0	1.0	1	upper	Verdana.ttf
2782.854	n/a	WORD	1391427	wordpools/wasnorm_wordpool_less_exclusions.txt	LTP279	ltpFR	6	14	-1	CERAMICS	271	n/a	n/a	-1	1.0	1.0	1	upper	Verdana.ttf
2786.832	n/a	WORD	1393416	wordpools/wasnorm_wordpool_less_exclusions.txt	LTP279	ltpFR	6	14	-1	LODGE	839	n/a	n/a	-1	1.0	1.0	1	upper	Verdana.ttf
2790.892	n/a	WORD	1395446	wordpools/wasnorm_wordpool_less_exclusions.txt	LTP279	ltpFR	6	14	-1	INN	739	n/a	n/a	-1	1.0	1.0	1	upper	Verdana.ttf
2794.836	n/a	WORD	1397418	wordpools/wasnorm_wordpool_less_exclusions.txt	LTP279	ltpFR	6	14	-1	TOOTHPASTE	1483	n/a	n/a	-1	1.0	1.0	1	upper	Verdana.ttf
2798.846	n/a	WORD	1399423	wordpools/wasnorm_wordpool_less_exclusions.txt	LTP279	ltpFR	6	14	-1	CHEF	290	n/a	n/a	-1	1.0	1.0	1	upper	Verdana.ttf
2802.908	n/a	WORD	1401454	wordpools/wasnorm_wordpool_less_exclusions.txt	LTP279	ltpFR	6	14	-1	TRAY	1498	n/a	n/a	-1	1.0	1.0	1	upper	Verdana.ttf
2807.002	n/a	WORD	1403501	wordpools/wasnorm_wordpool_less_exclusions.txt	LTP279	ltpFR	6	14	-1	SARDINE	1235	n/a	n/a	-1	1.0	1.0	1	upper	Verdana.ttf
2810.996	n/a	WORD	1405498	wordpools/wasnorm_wordpool_less_exclusions.txt	LTP279	ltpFR	6	14	-1	MASK	876	n/a	n/a	-1	1.0	1.0	1	upper	Verdana.ttf
2814.99	n/a	WORD	1407495	wordpools/wasnorm_wordpool_less_exclusions.txt	LTP279	ltpFR	6	14	-1	BANDIT	81	n/a	n/a	-1	1.0	1.0	1	upper	Verdana.ttf
2819.0	n/a	WORD	1409500	wordpools/wasnorm_wordpool_less_exclusions.txt	LTP279	ltpFR	6	14	-1	HAWK	692	n/a	n/a	-1	1.0	1.0	1	upper	Verdana.ttf
2823.044	n/a	WORD	1411522	wordpools/wasnorm_wordpool_less_exclusions.txt	LTP279	ltpFR	6	14	-1	GUEST	669	n/a	n/a	-1	1.0	1.0	1	upper	Verdana.ttf
2827.022	n/a	WORD	1413511	wordpools/wasnorm_wordpool_less_exclusions.txt	LTP279	ltpFR	6	14	-1	TUNA	1518	n/a	n/a	-1	1.0	1.0	1	upper	Verdana.ttf
2831.164	n/a	WORD	1415582	wordpools/wasnorm_wordpool_less_exclusions.txt	LTP279	ltpFR	6	14	-1	MUSEUM	933	n/a	n/a	-1	1.0	1.0	1	upper	Verdana.ttf
2835.192	n/a	WORD	1417596	wordpools/wasnorm_wordpool_less_exclusions.txt	LTP279	ltpFR	6	14	-1	PEPPER	1047	n/a	n/a	-1	1.0	1.0	1	upper	Verdana.ttf
2839.154	n/a	WORD	1419577	wordpools/wasnorm_wordpool_less_exclusions.txt	LTP279	ltpFR	6	14	-1	BOWL	158	n/a	n/a	-1	1.0	1.0	1	upper	Verdana.ttf
2845.278	n/a	REC_START	1422639	n/a	LTP279	ltpFR	6	14	n/a	n/a	n/a	n/a	n/a	n/a	n/a	n/a	n/a	n/a	n/a
2846.686	n/a	REC_WORD	1423343	wordpools/wasnorm_wordpool_less_exclusions.txt	LTP279	ltpFR	6	14	-1	PEPPER	1047	n/a	n/a	-1	n/a	n/a	n/a	n/a	n/a
2847.598	n/a	REC_WORD	1423799	wordpools/wasnorm_wordpool_less_exclusions.txt	LTP279	ltpFR	6	14	-1	BOWL	158	n/a	n/a	-1	n/a	n/a	n/a	n/a	n/a
2849.392	n/a	REC_WORD	1424696	wordpools/wasnorm_wordpool_less_exclusions.txt	LTP279	ltpFR	6	14	-1	TUNA	1518	n/a	n/a	-1	n/a	n/a	n/a	n/a	n/a
2849.982	n/a	REC_WORD	1424991	wordpools/wasnorm_wordpool_less_exclusions.txt	LTP279	ltpFR	6	14	-1	MUSEUM	933	n/a	n/a	-1	n/a	n/a	n/a	n/a	n/a
2874.884	n/a	REC_WORD_VV	1437442	wordpools/wasnorm_wordpool_less_exclusions.txt	LTP279	ltpFR	6	14	n/a	<>	-1	n/a	n/a	n/a	n/a	n/a	n/a	n/a	n/a
2875.758	n/a	REC_WORD	1437879	wordpools/wasnorm_wordpool_less_exclusions.txt	LTP279	ltpFR	6	14	-1	CREAM	402	n/a	n/a	-1	n/a	n/a	n/a	n/a	n/a
2876.37	n/a	REC_WORD	1438185	wordpools/wasnorm_wordpool_less_exclusions.txt	LTP279	ltpFR	6	14	-1	CERAMICS	271	n/a	n/a	-1	n/a	n/a	n/a	n/a	n/a
2877.616	n/a	REC_WORD	1438808	wordpools/wasnorm_wordpool_less_exclusions.txt	LTP279	ltpFR	6	14	-1	LODGE	839	n/a	n/a	-1	n/a	n/a	n/a	n/a	n/a
2878.864	n/a	REC_WORD	1439432	wordpools/wasnorm_wordpool_less_exclusions.txt	LTP279	ltpFR	6	14	-1	INN	739	n/a	n/a	-1	n/a	n/a	n/a	n/a	n/a
2881.902	n/a	REC_WORD	1440951	wordpools/wasnorm_wordpool_less_exclusions.txt	LTP279	ltpFR	6	14	-1	TOOTHPASTE	1483	n/a	n/a	-1	n/a	n/a	n/a	n/a	n/a
2885.4	n/a	REC_WORD	1442700	wordpools/wasnorm_wordpool_less_exclusions.txt	LTP279	ltpFR	6	14	1	WAITER	1580	n/a	n/a	0	n/a	n/a	n/a	n/a	n/a
2887.126	n/a	REC_WORD	1443563	wordpools/wasnorm_wordpool_less_exclusions.txt	LTP279	ltpFR	6	14	-1	MASK	876	n/a	n/a	-1	n/a	n/a	n/a	n/a	n/a
2888.954	n/a	REC_WORD_VV	1444477	wordpools/wasnorm_wordpool_less_exclusions.txt	LTP279	ltpFR	6	14	n/a	<>	-1	n/a	n/a	n/a	n/a	n/a	n/a	n/a	n/a
2889.874	n/a	REC_WORD	1444937	wordpools/wasnorm_wordpool_less_exclusions.txt	LTP279	ltpFR	6	14	-1	CHEF	290	n/a	n/a	-1	n/a	n/a	n/a	n/a	n/a
2891.236	n/a	REC_WORD	1445618	wordpools/wasnorm_wordpool_less_exclusions.txt	LTP279	ltpFR	6	14	-1	MASK	876	n/a	n/a	-1	n/a	n/a	n/a	n/a	n/a
2893.972	n/a	REC_WORD	1446986	wordpools/wasnorm_wordpool_less_exclusions.txt	LTP279	ltpFR	6	14	-1	TRAY	1498	n/a	n/a	-1	n/a	n/a	n/a	n/a	n/a
2896.122	n/a	REC_WORD	1448061	wordpools/wasnorm_wordpool_less_exclusions.txt	LTP279	ltpFR	6	14	-1	SARDINE	1235	n/a	n/a	-1	n/a	n/a	n/a	n/a	n/a
2899.556	n/a	REC_WORD	1449778	wordpools/wasnorm_wordpool_less_exclusions.txt	LTP279	ltpFR	6	14	-1	BANDIT	81	n/a	n/a	-1	n/a	n/a	n/a	n/a	n/a
2901.048	n/a	REC_WORD	1450524	wordpools/wasnorm_wordpool_less_exclusions.txt	LTP279	ltpFR	6	14	-1	HAWK	692	n/a	n/a	-1	n/a	n/a	n/a	n/a	n/a
2904.594	n/a	REC_WORD	1452297	wordpools/wasnorm_wordpool_less_exclusions.txt	LTP279	ltpFR	6	14	-1	GUEST	669	n/a	n/a	-1	n/a	n/a	n/a	n/a	n/a
2974.038	n/a	WORD	1487019	wordpools/wasnorm_wordpool_less_exclusions.txt	LTP279	ltpFR	6	15	1	SPOOL	1356	n/a	n/a	0	0.422607421875	0.5869140625	0	lower	amplitud.ttf
2978.03	n/a	WORD	1489015	wordpools/wasnorm_wordpool_less_exclusions.txt	LTP279	ltpFR	6	15	1	PLANET	1082	n/a	n/a	0	0.422607421875	0.5869140625	0	lower	amplitud.ttf
2982.124	n/a	WORD	1491062	wordpools/wasnorm_wordpool_less_exclusions.txt	LTP279	ltpFR	6	15	1	ALLIGATOR	16	n/a	n/a	1	0.422607421875	0.5869140625	0	lower	amplitud.ttf
2986.186	n/a	WORD	1493093	wordpools/wasnorm_wordpool_less_exclusions.txt	LTP279	ltpFR	6	15	0	SNAKE	1333	n/a	n/a	0	0.57763671875	0.412841796875	1	upper	zerothre.ttf
2990.262	n/a	WORD	1495131	wordpools/wasnorm_wordpool_less_exclusions.txt	LTP279	ltpFR	6	15	0	HAY	693	n/a	n/a	0	0.57763671875	0.412841796875	1	upper	zerothre.ttf
2994.39	n/a	WORD	1497195	wordpools/wasnorm_wordpool_less_exclusions.txt	LTP279	ltpFR	6	15	0	SNOB	1335	n/a	n/a	0	0.57763671875	0.412841796875	1	upper	zerothre.ttf
2998.352	n/a	WORD	1499176	wordpools/wasnorm_wordpool_less_exclusions.txt	LTP279	ltpFR	6	15	0	SATURN	1236	n/a	n/a	0	0.57763671875	0.412841796875	1	upper	zerothre.ttf
3002.378	n/a	WORD	1501189	wordpools/wasnorm_wordpool_less_exclusions.txt	LTP279	ltpFR	6	15	1	BAND	78	n/a	n/a	0	0.422607421875	0.5869140625	0	lower	amplitud.ttf
3006.506	n/a	WORD	1503253	wordpools/wasnorm_wordpool_less_exclusions.txt	LTP279	ltpFR	6	15	1	STONE	1385	n/a	n/a	0	0.422607421875	0.5869140625	0	lower	amplitud.ttf
3010.566	n/a	WORD	1505283	wordpools/wasnorm_wordpool_less_exclusions.txt	LTP279	ltpFR	6	15	0	SAPPHIRE	1234	n/a	n/a	2	0.57763671875	0.412841796875	1	upper	zerothre.ttf
3011.532	n/a	KEY_MSG	1505766	n/a	LTP279	ltpFR	6	15	n/a	n/a	n/a	n/a	n/a	n/a	n/a	n/a	n/a	n/a	n/a
3014.628	n/a	WORD	1507314	wordpools/wasnorm_wordpool_less_exclusions.txt	LTP279	ltpFR	6	15	0	DIME	466	n/a	n/a	0	0.57763671875	0.412841796875	1	upper	zerothre.ttf
3018.722	n/a	WORD	1509361	wordpools/wasnorm_wordpool_less_exclusions.txt	LTP279	ltpFR	6	15	0	BANKER	84	n/a	n/a	0	0.57763671875	0.412841796875	1	upper	zerothre.ttf
3022.832	n/a	WORD	1511416	wordpools/wasnorm_wordpool_less_exclusions.txt	LTP279	ltpFR	6	15	0	OPERA	978	n/a	n/a	0	0.57763671875	0.412841796875	1	upper	zerothre.ttf
3026.842	n/a	WORD	1513421	wordpools/wasnorm_wordpool_less_exclusions.txt	LTP279	ltpFR	6	15	1	SUPERVISOR	1410	n/a	n/a	0	0.422607421875	0.5869140625	0	lower	amplitud.ttf
3030.92	n/a	WORD	1515460	wordpools/wasnorm_wordpool_less_exclusions.txt	LTP279	ltpFR	6	15	1	FOX	598	n/a	n/a	1	0.422607421875	0.5869140625	0	lower	amplitud.ttf
3035.114	n/a	WORD	1517557	wordpools/wasnorm_wordpool_less_exclusions.txt	LTP279	ltpFR	6	15	1	COCOON	339	n/a	n/a	0	0.422607421875	0.5869140625	0	lower	amplitud.ttf
3040.788	n/a	REC_START	1520394	n/a	LTP279	ltpFR	6	15	n/a	n/a	n/a	n/a	n/a	n/a	n/a	n/a	n/a	n/a	n/a
3042.46	n/a	REC_WORD	1521230	wordpools/wasnorm_wordpool_less_exclusions.txt	LTP279	ltpFR	6	15	1	SUPERVISOR	1410	n/a	n/a	0	n/a	n/a	n/a	n/a	n/a
3043.376	n/a	REC_WORD	1521688	wordpools/wasnorm_wordpool_less_exclusions.txt	LTP279	ltpFR	6	15	1	FOX	598	n/a	n/a	1	n/a	n/a	n/a	n/a	n/a
3044.438	n/a	REC_WORD	1522219	wordpools/wasnorm_wordpool_less_exclusions.txt	LTP279	ltpFR	6	15	1	COCOON	339	n/a	n/a	0	n/a	n/a	n/a	n/a	n/a
3045.654	n/a	REC_WORD	1522827	wordpools/wasnorm_wordpool_less_exclusions.txt	LTP279	ltpFR	6	15	0	DIME	466	n/a	n/a	0	n/a	n/a	n/a	n/a	n/a
3046.71	n/a	REC_WORD	1523355	wordpools/wasnorm_wordpool_less_exclusions.txt	LTP279	ltpFR	6	15	0	BANKER	84	n/a	n/a	0	n/a	n/a	n/a	n/a	n/a
3048.304	n/a	REC_WORD	1524152	wordpools/wasnorm_wordpool_less_exclusions.txt	LTP279	ltpFR	6	15	0	OPERA	978	n/a	n/a	0	n/a	n/a	n/a	n/a	n/a
3049.094	n/a	REC_WORD	1524547	wordpools/wasnorm_wordpool_less_exclusions.txt	LTP279	ltpFR	6	15	1	SPOOL	1356	n/a	n/a	0	n/a	n/a	n/a	n/a	n/a
3050.094	n/a	REC_WORD_VV	1525047	wordpools/wasnorm_wordpool_less_exclusions.txt	LTP279	ltpFR	6	15	n/a	<>	-1	n/a	n/a	n/a	n/a	n/a	n/a	n/a	n/a
3060.546	n/a	REC_WORD	1530273	wordpools/wasnorm_wordpool_less_exclusions.txt	LTP279	ltpFR	6	15	n/a	WORLD	1622	n/a	n/a	n/a	n/a	n/a	n/a	n/a	n/a
3062.142	n/a	REC_WORD	1531071	wordpools/wasnorm_wordpool_less_exclusions.txt	LTP279	ltpFR	6	15	1	ALLIGATOR	16	n/a	n/a	1	n/a	n/a	n/a	n/a	n/a
3063.178	n/a	REC_WORD	1531589	wordpools/wasnorm_wordpool_less_exclusions.txt	LTP279	ltpFR	6	15	0	SNAKE	1333	n/a	n/a	0	n/a	n/a	n/a	n/a	n/a
3064.648	n/a	REC_WORD	1532324	wordpools/wasnorm_wordpool_less_exclusions.txt	LTP279	ltpFR	6	15	0	HAY	693	n/a	n/a	0	n/a	n/a	n/a	n/a	n/a
3066.074	n/a	REC_WORD	1533037	wordpools/wasnorm_wordpool_less_exclusions.txt	LTP279	ltpFR	6	15	0	SNOB	1335	n/a	n/a	0	n/a	n/a	n/a	n/a	n/a
3074.95	n/a	REC_WORD	1537475	wordpools/wasnorm_wordpool_less_exclusions.txt	LTP279	ltpFR	6	15	0	SATURN	1236	n/a	n/a	0	n/a	n/a	n/a	n/a	n/a
3081.624	n/a	REC_WORD	1540812	wordpools/wasnorm_wordpool_less_exclusions.txt	LTP279	ltpFR	6	15	1	BAND	78	n/a	n/a	0	n/a	n/a	n/a	n/a	n/a
3083.558	n/a	REC_WORD	1541779	wordpools/wasnorm_wordpool_less_exclusions.txt	LTP279	ltpFR	6	15	0	SAPPHIRE	1234	n/a	n/a	2	n/a	n/a	n/a	n/a	n/a
3084.586	n/a	REC_WORD	1542293	wordpools/wasnorm_wordpool_less_exclusions.txt	LTP279	ltpFR	6	15	1	STONE	1385	n/a	n/a	0	n/a	n/a	n/a	n/a	n/a
3156.95	n/a	WORD	1578475	wordpools/wasnorm_wordpool_less_exclusions.txt	LTP279	ltpFR	6	16	-1	FRUIT	610	n/a	n/a	-1	1.0	1.0	1	upper	Verdana.ttf
3161.144	n/a	WORD	1580572	wordpools/wasnorm_wordpool_less_exclusions.txt	LTP279	ltpFR	6	16	-1	TAXI	1438	n/a	n/a	-1	1.0	1.0	1	upper	Verdana.ttf
3165.004	n/a	WORD	1582502	wordpools/wasnorm_wordpool_less_exclusions.txt	LTP279	ltpFR	6	16	-1	MOON	914	n/a	n/a	-1	1.0	1.0	1	upper	Verdana.ttf
3168.866	n/a	WORD	1584433	wordpools/wasnorm_wordpool_less_exclusions.txt	LTP279	ltpFR	6	16	-1	TELESCOPE	1446	n/a	n/a	-1	1.0	1.0	1	upper	Verdana.ttf
3172.86	n/a	WORD	1586430	wordpools/wasnorm_wordpool_less_exclusions.txt	LTP279	ltpFR	6	16	-1	ANTELOPE	27	n/a	n/a	-1	1.0	1.0	1	upper	Verdana.ttf
3176.97	n/a	WORD	1588485	wordpools/wasnorm_wordpool_less_exclusions.txt	LTP279	ltpFR	6	16	-1	RUM	1217	n/a	n/a	-1	1.0	1.0	1	upper	Verdana.ttf
3180.98	n/a	WORD	1590490	wordpools/wasnorm_wordpool_less_exclusions.txt	LTP279	ltpFR	6	16	-1	CLASS	318	n/a	n/a	-1	1.0	1.0	1	upper	Verdana.ttf
3185.174	n/a	WORD	1592587	wordpools/wasnorm_wordpool_less_exclusions.txt	LTP279	ltpFR	6	16	-1	MOUNTAIN	924	n/a	n/a	-1	1.0	1.0	1	upper	Verdana.ttf
3189.268	n/a	WORD	1594634	wordpools/wasnorm_wordpool_less_exclusions.txt	LTP279	ltpFR	6	16	-1	DIAPER	459	n/a	n/a	-1	1.0	1.0	1	upper	Verdana.ttf
3193.478	n/a	WORD	1596739	wordpools/wasnorm_wordpool_less_exclusions.txt	LTP279	ltpFR	6	16	-1	INFANT	737	n/a	n/a	-1	1.0	1.0	1	upper	Verdana.ttf
3197.422	n/a	WORD	1598711	wordpools/wasnorm_wordpool_less_exclusions.txt	LTP279	ltpFR	6	16	-1	FREEWAY	603	n/a	n/a	-1	1.0	1.0	1	upper	Verdana.ttf
3201.452	n/a	WORD	1600726	wordpools/wasnorm_wordpool_less_exclusions.txt	LTP279	ltpFR	6	16	-1	DUNE	506	n/a	n/a	-1	1.0	1.0	1	upper	Verdana.ttf
3205.646	n/a	WORD	1602823	wordpools/wasnorm_wordpool_less_exclusions.txt	LTP279	ltpFR	6	16	-1	FIG	563	n/a	n/a	-1	1.0	1.0	1	upper	Verdana.ttf
3209.54	n/a	WORD	1604770	wordpools/wasnorm_wordpool_less_exclusions.txt	LTP279	ltpFR	6	16	-1	NICOTINE	951	n/a	n/a	-1	1.0	1.0	1	upper	Verdana.ttf
3213.634	n/a	WORD	1606817	wordpools/wasnorm_wordpool_less_exclusions.txt	LTP279	ltpFR	6	16	-1	IGLOO	734	n/a	n/a	-1	1.0	1.0	1	upper	Verdana.ttf
3217.46	n/a	WORD	1608730	wordpools/wasnorm_wordpool_less_exclusions.txt	LTP279	ltpFR	6	16	-1	ATTIC	56	n/a	n/a	-1	1.0	1.0	1	upper	Verdana.ttf
3223.27	n/a	REC_START	1611635	n/a	LTP279	ltpFR	6	16	n/a	n/a	n/a	n/a	n/a	n/a	n/a	n/a	n/a	n/a	n/a
3223.982	n/a	REC_WORD	1611991	wordpools/wasnorm_wordpool_less_exclusions.txt	LTP279	ltpFR	6	16	-1	IGLOO	734	n/a	n/a	-1	n/a	n/a	n/a	n/a	n/a
3224.464	n/a	REC_WORD	1612232	wordpools/wasnorm_wordpool_less_exclusions.txt	LTP279	ltpFR	6	16	-1	ATTIC	56	n/a	n/a	-1	n/a	n/a	n/a	n/a	n/a
3225.294	n/a	REC_WORD	1612647	wordpools/wasnorm_wordpool_less_exclusions.txt	LTP279	ltpFR	6	16	-1	NICOTINE	951	n/a	n/a	-1	n/a	n/a	n/a	n/a	n/a
3225.926	n/a	REC_WORD	1612963	wordpools/wasnorm_wordpool_less_exclusions.txt	LTP279	ltpFR	6	16	-1	FIG	563	n/a	n/a	-1	n/a	n/a	n/a	n/a	n/a
3227.208	n/a	REC_WORD	1613604	wordpools/wasnorm_wordpool_less_exclusions.txt	LTP279	ltpFR	6	16	-1	FRUIT	610	n/a	n/a	-1	n/a	n/a	n/a	n/a	n/a
3228.218	n/a	REC_WORD	1614109	wordpools/wasnorm_wordpool_less_exclusions.txt	LTP279	ltpFR	6	16	-1	TAXI	1438	n/a	n/a	-1	n/a	n/a	n/a	n/a	n/a
3231.68	n/a	REC_WORD_VV	1615840	wordpools/wasnorm_wordpool_less_exclusions.txt	LTP279	ltpFR	6	16	n/a	<>	-1	n/a	n/a	n/a	n/a	n/a	n/a	n/a	n/a
3232.16	n/a	REC_WORD	1616080	wordpools/wasnorm_wordpool_less_exclusions.txt	LTP279	ltpFR	6	16	-1	TELESCOPE	1446	n/a	n/a	-1	n/a	n/a	n/a	n/a	n/a
3233.27	n/a	REC_WORD	1616635	wordpools/wasnorm_wordpool_less_exclusions.txt	LTP279	ltpFR	6	16	-1	MOON	914	n/a	n/a	-1	n/a	n/a	n/a	n/a	n/a
3235.578	n/a	REC_WORD	1617789	wordpools/wasnorm_wordpool_less_exclusions.txt	LTP279	ltpFR	6	16	-1	ANTELOPE	27	n/a	n/a	-1	n/a	n/a	n/a	n/a	n/a
3239.01	n/a	REC_WORD	1619505	wordpools/wasnorm_wordpool_less_exclusions.txt	LTP279	ltpFR	6	16	-1	RUM	1217	n/a	n/a	-1	n/a	n/a	n/a	n/a	n/a
3241.012	n/a	REC_WORD	1620506	wordpools/wasnorm_wordpool_less_exclusions.txt	LTP279	ltpFR	6	16	-1	CLASS	318	n/a	n/a	-1	n/a	n/a	n/a	n/a	n/a
3246.456	n/a	REC_WORD	1623228	wordpools/wasnorm_wordpool_less_exclusions.txt	LTP279	ltpFR	6	16	-1	MOUNTAIN	924	n/a	n/a	-1	n/a	n/a	n/a	n/a	n/a
3248.002	n/a	REC_WORD	1624001	wordpools/wasnorm_wordpool_less_exclusions.txt	LTP279	ltpFR	6	16	-1	INFANT	737	n/a	n/a	-1	n/a	n/a	n/a	n/a	n/a
3248.686	n/a	REC_WORD	1624343	wordpools/wasnorm_wordpool_less_exclusions.txt	LTP279	ltpFR	6	16	-1	DIAPER	459	n/a	n/a	-1	n/a	n/a	n/a	n/a	n/a
3249.58	n/a	REC_WORD	1624790	wordpools/wasnorm_wordpool_less_exclusions.txt	LTP279	ltpFR	6	16	-1	FREEWAY	603	n/a	n/a	-1	n/a	n/a	n/a	n/a	n/a
3250.936	n/a	REC_WORD	1625468	wordpools/wasnorm_wordpool_less_exclusions.txt	LTP279	ltpFR	6	16	-1	DUNE	506	n/a	n/a	-1	n/a	n/a	n/a	n/a	n/a
3565.38	n/a	REC_START	1782690	n/a	LTP279	ltpFR	6	1	n/a	n/a	n/a	n/a	n/a	n/a	n/a	n/a	n/a	n/a	n/a
3565.412	n/a	RECOG_TARGET	1782706	n/a	LTP279	ltpFR	6	1	1	DONKEY	484	0	1	1	n/a	n/a	n/a	n/a	n/a
3566.906	n/a	RECOG_RESP	1783453	n/a	LTP279	ltpFR	6	1	1	DONKEY	484	0	n/a	1	n/a	n/a	n/a	n/a	n/a
3567.82	n/a	RECOG_CONF	1783910	n/a	LTP279	ltpFR	6	1	1	DONKEY	484	n/a	1	1	n/a	n/a	n/a	n/a	n/a
3569.59	n/a	RECOG_TARGET	1784795	n/a	LTP279	ltpFR	6	1	0	DRAWING	494	1	3	0	n/a	n/a	n/a	n/a	n/a
3570.41	n/a	RECOG_RESP	1785205	n/a	LTP279	ltpFR	6	1	0	DRAWING	494	1	n/a	0	n/a	n/a	n/a	n/a	n/a
3571.66	n/a	RECOG_CONF	1785830	n/a	LTP279	ltpFR	6	1	0	DRAWING	494	n/a	3	0	n/a	n/a	n/a	n/a	n/a
3573.234	n/a	RECOG_TARGET	1786617	n/a	LTP279	ltpFR	6	1	-1	FREEWAY	603	1	4	-1	n/a	n/a	n/a	n/a	n/a
3573.946	n/a	RECOG_RESP	1786973	n/a	LTP279	ltpFR	6	1	-1	FREEWAY	603	1	n/a	-1	n/a	n/a	n/a	n/a	n/a
3574.53	n/a	RECOG_CONF	1787265	n/a	LTP279	ltpFR	6	1	-1	FREEWAY	603	n/a	4	-1	n/a	n/a	n/a	n/a	n/a
3576.164	n/a	RECOG_TARGET	1788082	n/a	LTP279	ltpFR	6	1	0	SAPPHIRE	1234	1	5	2	n/a	n/a	n/a	n/a	n/a
3576.846	n/a	RECOG_RESP	1788423	n/a	LTP279	ltpFR	6	1	0	SAPPHIRE	1234	1	n/a	2	n/a	n/a	n/a	n/a	n/a
3577.46	n/a	RECOG_CONF	1788730	n/a	LTP279	ltpFR	6	1	0	SAPPHIRE	1234	n/a	5	2	n/a	n/a	n/a	n/a	n/a
3579.126	n/a	RECOG_TARGET	1789563	n/a	LTP279	ltpFR	6	1	0	PORPOISE	1109	1	4	0	n/a	n/a	n/a	n/a	n/a
3579.866	n/a	RECOG_RESP	1789933	n/a	LTP279	ltpFR	6	1	0	PORPOISE	1109	1	n/a	0	n/a	n/a	n/a	n/a	n/a
3580.42	n/a	RECOG_CONF	1790210	n/a	LTP279	ltpFR	6	1	0	PORPOISE	1109	n/a	4	0	n/a	n/a	n/a	n/a	n/a
3581.988	n/a	RECOG_TARGET	1790994	n/a	LTP279	ltpFR	6	1	1	STABLE	1363	1	3	0	n/a	n/a	n/a	n/a	n/a
3583.306	n/a	RECOG_RESP	1791653	n/a	LTP279	ltpFR	6	1	1	STABLE	1363	1	n/a	0	n/a	n/a	n/a	n/a	n/a
3583.91	n/a	RECOG_CONF	1791955	n/a	LTP279	ltpFR	6	1	1	STABLE	1363	n/a	3	0	n/a	n/a	n/a	n/a	n/a
3585.516	n/a	RECOG_TARGET	1792758	n/a	LTP279	ltpFR	6	1	-1	HOOP	716	1	4	-1	n/a	n/a	n/a	n/a	n/a
3586.24	n/a	RECOG_RESP	1793120	n/a	LTP279	ltpFR	6	1	-1	HOOP	716	1	n/a	-1	n/a	n/a	n/a	n/a	n/a
3586.65	n/a	RECOG_CONF	1793325	n/a	LTP279	ltpFR	6	1	-1	HOOP	716	n/a	4	-1	n/a	n/a	n/a	n/a	n/a
3588.428	n/a	RECOG_TARGET	1794214	n/a	LTP279	ltpFR	6	1	0	RASPBERRY	1168	1	3	0	n/a	n/a	n/a	n/a	n/a
3589.12	n/a	RECOG_RESP	1794560	n/a	LTP279	ltpFR	6	1	0	RASPBERRY	1168	1	n/a	0	n/a	n/a	n/a	n/a	n/a
3589.56	n/a	RECOG_CONF	1794780	n/a	LTP279	ltpFR	6	1	0	RASPBERRY	1168	n/a	3	0	n/a	n/a	n/a	n/a	n/a
3591.308	n/a	RECOG_TARGET	1795654	n/a	LTP279	ltpFR	6	1	1	SINK	1309	0	2	0	n/a	n/a	n/a	n/a	n/a
3592.296	n/a	RECOG_RESP	1796148	n/a	LTP279	ltpFR	6	1	1	SINK	1309	0	n/a	0	n/a	n/a	n/a	n/a	n/a
3592.99	n/a	RECOG_CONF	1796495	n/a	LTP279	ltpFR	6	1	1	SINK	1309	n/a	2	0	n/a	n/a	n/a	n/a	n/a
3594.586	n/a	RECOG_TARGET	1797293	n/a	LTP279	ltpFR	6	1	1	BEAKER	104	1	2	0	n/a	n/a	n/a	n/a	n/a
3595.696	n/a	RECOG_RESP	1797848	n/a	LTP279	ltpFR	6	1	1	BEAKER	104	1	n/a	0	n/a	n/a	n/a	n/a	n/a
3596.16	n/a	RECOG_CONF	1798080	n/a	LTP279	ltpFR	6	1	1	BEAKER	104	n/a	2	0	n/a	n/a	n/a	n/a	n/a
3597.848	n/a	RECOG_TARGET	1798924	n/a	LTP279	ltpFR	6	1	-1	TUNA	1518	1	5	-1	n/a	n/a	n/a	n/a	n/a
3598.576	n/a	RECOG_RESP	1799288	n/a	LTP279	ltpFR	6	1	-1	TUNA	1518	1	n/a	-1	n/a	n/a	n/a	n/a	n/a
3599.12	n/a	RECOG_CONF	1799560	n/a	LTP279	ltpFR	6	1	-1	TUNA	1518	n/a	5	-1	n/a	n/a	n/a	n/a	n/a
3600.794	n/a	RECOG_TARGET	1800397	n/a	LTP279	ltpFR	6	1	1	MARINE	869	1	5	1	n/a	n/a	n/a	n/a	n/a
3601.516	n/a	RECOG_RESP	1800758	n/a	LTP279	ltpFR	6	1	1	MARINE	869	1	n/a	1	n/a	n/a	n/a	n/a	n/a
3601.91	n/a	RECOG_CONF	1800955	n/a	LTP279	ltpFR	6	1	1	MARINE	869	n/a	5	1	n/a	n/a	n/a	n/a	n/a
3603.688	n/a	RECOG_TARGET	1801844	n/a	LTP279	ltpFR	6	1	1	VINE	1568	1	4	0	n/a	n/a	n/a	n/a	n/a
3605.316	n/a	RECOG_RESP	1802658	n/a	LTP279	ltpFR	6	1	1	VINE	1568	1	n/a	0	n/a	n/a	n/a	n/a	n/a
3605.76	n/a	RECOG_CONF	1802880	n/a	LTP279	ltpFR	6	1	1	VINE	1568	n/a	4	0	n/a	n/a	n/a	n/a	n/a
3607.6	n/a	RECOG_TARGET	1803800	n/a	LTP279	ltpFR	6	1	0	WORKER	1621	0	2	0	n/a	n/a	n/a	n/a	n/a
3609.32	n/a	RECOG_RESP	1804660	n/a	LTP279	ltpFR	6	1	0	WORKER	1621	0	n/a	0	n/a	n/a	n/a	n/a	n/a
3609.9	n/a	RECOG_CONF	1804950	n/a	LTP279	ltpFR	6	1	0	WORKER	1621	n/a	2	0	n/a	n/a	n/a	n/a	n/a
3611.644	n/a	RECOG_LURE	1805822	n/a	LTP279	ltpFR	6	1	n/a	PANTHER	1009	0	3	n/a	n/a	n/a	n/a	n/a	n/a
3612.506	n/a	RECOG_RESP	1806253	n/a	LTP279	ltpFR	6	1	n/a	PANTHER	1009	0	n/a	n/a	n/a	n/a	n/a	n/a	n/a
3613.04	n/a	RECOG_CONF	1806520	n/a	LTP279	ltpFR	6	1	n/a	PANTHER	1009	n/a	3	n/a	n/a	n/a	n/a	n/a	n/a
3614.64	n/a	RECOG_TARGET	1807320	n/a	LTP279	ltpFR	6	1	0	OTTER	986	1	5	0	n/a	n/a	n/a	n/a	n/a
3615.306	n/a	RECOG_RESP	1807653	n/a	LTP279	ltpFR	6	1	0	OTTER	986	1	n/a	0	n/a	n/a	n/a	n/a	n/a
3616.0	n/a	RECOG_CONF	1808000	n/a	LTP279	ltpFR	6	1	0	OTTER	986	n/a	5	0	n/a	n/a	n/a	n/a	n/a
3617.568	n/a	RECOG_TARGET	1808784	n/a	LTP279	ltpFR	6	1	0	CUB	419	0	1	0	n/a	n/a	n/a	n/a	n/a
3618.47	n/a	RECOG_RESP	1809235	n/a	LTP279	ltpFR	6	1	0	CUB	419	0	n/a	0	n/a	n/a	n/a	n/a	n/a
3619.13	n/a	RECOG_CONF	1809565	n/a	LTP279	ltpFR	6	1	0	CUB	419	n/a	1	0	n/a	n/a	n/a	n/a	n/a
3620.748	n/a	RECOG_TARGET	1810374	n/a	LTP279	ltpFR	6	1	0	DIME	466	1	4	0	n/a	n/a	n/a	n/a	n/a
3621.746	n/a	RECOG_RESP	1810873	n/a	LTP279	ltpFR	6	1	0	DIME	466	1	n/a	0	n/a	n/a	n/a	n/a	n/a
3622.302	n/a	RECOG_CONF	1811151	n/a	LTP279	ltpFR	6	1	0	DIME	466	n/a	4	0	n/a	n/a	n/a	n/a	n/a
3624.026	n/a	RECOG_TARGET	1812013	n/a	LTP279	ltpFR	6	1	1	DESIGNER	451	0	1	1	n/a	n/a	n/a	n/a	n/a
3625.896	n/a	RECOG_RESP	1812948	n/a	LTP279	ltpFR	6	1	1	DESIGNER	451	0	n/a	1	n/a	n/a	n/a	n/a	n/a
3626.372	n/a	RECOG_CONF	1813186	n/a	LTP279	ltpFR	6	1	1	DESIGNER	451	n/a	1	1	n/a	n/a	n/a	n/a	n/a
3628.054	n/a	RECOG_TARGET	1814027	n/a	LTP279	ltpFR	6	1	0	MONUMENT	913	1	4	1	n/a	n/a	n/a	n/a	n/a
3628.786	n/a	RECOG_RESP	1814393	n/a	LTP279	ltpFR	6	1	0	MONUMENT	913	1	n/a	1	n/a	n/a	n/a	n/a	n/a
3629.372	n/a	RECOG_CONF	1814686	n/a	LTP279	ltpFR	6	1	0	MONUMENT	913	n/a	4	1	n/a	n/a	n/a	n/a	n/a
3634.41	n/a	REC_START	1817205	n/a	LTP279	ltpFR	6	2	n/a	n/a	n/a	n/a	n/a	n/a	n/a	n/a	n/a	n/a	n/a
3634.444	n/a	RECOG_LURE	1817222	n/a	LTP279	ltpFR	6	2	n/a	SWITCH	1422	0	2	n/a	n/a	n/a	n/a	n/a	n/a
3635.236	n/a	RECOG_RESP	1817618	n/a	LTP279	ltpFR	6	2	n/a	SWITCH	1422	0	n/a	n/a	n/a	n/a	n/a	n/a	n/a
3635.8	n/a	RECOG_CONF	1817900	n/a	LTP279	ltpFR	6	2	n/a	SWITCH	1422	n/a	2	n/a	n/a	n/a	n/a	n/a	n/a
3637.422	n/a	RECOG_TARGET	1818711	n/a	LTP279	ltpFR	6	2	1	SHARK	1275	1	3	1	n/a	n/a	n/a	n/a	n/a
3638.39	n/a	RECOG_RESP	1819195	n/a	LTP279	ltpFR	6	2	1	SHARK	1275	1	n/a	1	n/a	n/a	n/a	n/a	n/a
3638.93	n/a	RECOG_CONF	1819465	n/a	LTP279	ltpFR	6	2	1	SHARK	1275	n/a	3	1	n/a	n/a	n/a	n/a	n/a
3640.518	n/a	RECOG_LURE	1820259	n/a	LTP279	ltpFR	6	2	n/a	SPIDER	1351	0	2	n/a	n/a	n/a	n/a	n/a	n/a
3642.256	n/a	RECOG_RESP	1821128	n/a	LTP279	ltpFR	6	2	n/a	SPIDER	1351	0	n/a	n/a	n/a	n/a	n/a	n/a	n/a
3642.72	n/a	RECOG_CONF	1821360	n/a	LTP279	ltpFR	6	2	n/a	SPIDER	1351	n/a	2	n/a	n/a	n/a	n/a	n/a	n/a
3644.28	n/a	RECOG_TARGET	1822140	n/a	LTP279	ltpFR	6	2	-1	FLANNEL	574	1	2	-1	n/a	n/a	n/a	n/a	n/a
3644.976	n/a	RECOG_RESP	1822488	n/a	LTP279	ltpFR	6	2	-1	FLANNEL	574	1	n/a	-1	n/a	n/a	n/a	n/a	n/a
3646.13	n/a	RECOG_CONF	1823065	n/a	LTP279	ltpFR	6	2	-1	FLANNEL	574	n/a	2	-1	n/a	n/a	n/a	n/a	n/a
3647.69	n/a	RECOG_TARGET	1823845	n/a	LTP279	ltpFR	6	2	0	BUSH	202	1	4	0	n/a	n/a	n/a	n/a	n/a
3648.296	n/a	RECOG_RESP	1824148	n/a	LTP279	ltpFR	6	2	0	BUSH	202	1	n/a	0	n/a	n/a	n/a	n/a	n/a
3648.78	n/a	RECOG_CONF	1824390	n/a	LTP279	ltpFR	6	2	0	BUSH	202	n/a	4	0	n/a	n/a	n/a	n/a	n/a
3650.586	n/a	RECOG_TARGET	1825293	n/a	LTP279	ltpFR	6	2	0	GRIZZLY	662	1	3	0	n/a	n/a	n/a	n/a	n/a
3651.246	n/a	RECOG_RESP	1825623	n/a	LTP279	ltpFR	6	2	0	GRIZZLY	662	1	n/a	0	n/a	n/a	n/a	n/a	n/a
3651.75	n/a	RECOG_CONF	1825875	n/a	LTP279	ltpFR	6	2	0	GRIZZLY	662	n/a	3	0	n/a	n/a	n/a	n/a	n/a
3653.448	n/a	RECOG_TARGET	1826724	n/a	LTP279	ltpFR	6	2	0	VASE	1549	1	4	0	n/a	n/a	n/a	n/a	n/a
3654.01	n/a	RECOG_RESP	1827005	n/a	LTP279	ltpFR	6	2	0	VASE	1549	1	n/a	0	n/a	n/a	n/a	n/a	n/a
3654.42	n/a	RECOG_CONF	1827210	n/a	LTP279	ltpFR	6	2	0	VASE	1549	n/a	4	0	n/a	n/a	n/a	n/a	n/a
3656.012	n/a	RECOG_TARGET	1828006	n/a	LTP279	ltpFR	6	2	-1	GATE	625	1	3	-1	n/a	n/a	n/a	n/a	n/a
3656.83	n/a	RECOG_RESP	1828415	n/a	LTP279	ltpFR	6	2	-1	GATE	625	1	n/a	-1	n/a	n/a	n/a	n/a	n/a
3657.37	n/a	RECOG_CONF	1828685	n/a	LTP279	ltpFR	6	2	-1	GATE	625	n/a	3	-1	n/a	n/a	n/a	n/a	n/a
3658.908	n/a	RECOG_TARGET	1829454	n/a	LTP279	ltpFR	6	2	0	ATLAS	53	1	3	0	n/a	n/a	n/a	n/a	n/a
3659.776	n/a	RECOG_RESP	1829888	n/a	LTP279	ltpFR	6	2	0	ATLAS	53	1	n/a	0	n/a	n/a	n/a	n/a	n/a
3660.2	n/a	RECOG_CONF	1830100	n/a	LTP279	ltpFR	6	2	0	ATLAS	53	n/a	3	0	n/a	n/a	n/a	n/a	n/a
3661.92	n/a	RECOG_LURE	1830960	n/a	LTP279	ltpFR	6	2	n/a	LIMOUSINE	824	0	3	n/a	n/a	n/a	n/a	n/a	n/a
3662.766	n/a	RECOG_RESP	1831383	n/a	LTP279	ltpFR	6	2	n/a	LIMOUSINE	824	0	n/a	n/a	n/a	n/a	n/a	n/a	n/a
3663.31	n/a	RECOG_CONF	1831655	n/a	LTP279	ltpFR	6	2	n/a	LIMOUSINE	824	n/a	3	n/a	n/a	n/a	n/a	n/a	n/a
3664.948	n/a	RECOG_TARGET	1832474	n/a	LTP279	ltpFR	6	2	1	NEWSSTAND	949	1	4	0	n/a	n/a	n/a	n/a	n/a
3665.87	n/a	RECOG_RESP	1832935	n/a	LTP279	ltpFR	6	2	1	NEWSSTAND	949	1	n/a	0	n/a	n/a	n/a	n/a	n/a
3666.31	n/a	RECOG_CONF	1833155	n/a	LTP279	ltpFR	6	2	1	NEWSSTAND	949	n/a	4	0	n/a	n/a	n/a	n/a	n/a
3668.11	n/a	RECOG_TARGET	1834055	n/a	LTP279	ltpFR	6	2	1	SUPERVISOR	1410	1	2	0	n/a	n/a	n/a	n/a	n/a
3669.196	n/a	RECOG_RESP	1834598	n/a	LTP279	ltpFR	6	2	1	SUPERVISOR	1410	1	n/a	0	n/a	n/a	n/a	n/a	n/a
3669.7	n/a	RECOG_CONF	1834850	n/a	LTP279	ltpFR	6	2	1	SUPERVISOR	1410	n/a	2	0	n/a	n/a	n/a	n/a	n/a
3671.472	n/a	RECOG_TARGET	1835736	n/a	LTP279	ltpFR	6	2	0	WHALE	1601	1	4	1	n/a	n/a	n/a	n/a	n/a
3672.2	n/a	RECOG_RESP	1836100	n/a	LTP279	ltpFR	6	2	0	WHALE	1601	1	n/a	1	n/a	n/a	n/a	n/a	n/a
3672.71	n/a	RECOG_CONF	1836355	n/a	LTP279	ltpFR	6	2	0	WHALE	1601	n/a	4	1	n/a	n/a	n/a	n/a	n/a
3674.102	n/a	RECOG_TARGET	1837051	n/a	LTP279	ltpFR	6	2	0	SUPERMARKET	1409	1	3	1	n/a	n/a	n/a	n/a	n/a
3675.69	n/a	RECOG_RESP	1837845	n/a	LTP279	ltpFR	6	2	0	SUPERMARKET	1409	1	n/a	1	n/a	n/a	n/a	n/a	n/a
3677.17	n/a	RECOG_CONF	1838585	n/a	LTP279	ltpFR	6	2	0	SUPERMARKET	1409	n/a	3	1	n/a	n/a	n/a	n/a	n/a
3679.128	n/a	RECOG_TARGET	1839564	n/a	LTP279	ltpFR	6	2	1	SERVANT	1271	0	2	1	n/a	n/a	n/a	n/a	n/a
3680.14	n/a	RECOG_RESP	1840070	n/a	LTP279	ltpFR	6	2	1	SERVANT	1271	0	n/a	1	n/a	n/a	n/a	n/a	n/a
3680.75	n/a	RECOG_CONF	1840375	n/a	LTP279	ltpFR	6	2	1	SERVANT	1271	n/a	2	1	n/a	n/a	n/a	n/a	n/a
3682.39	n/a	RECOG_TARGET	1841195	n/a	LTP279	ltpFR	6	2	1	FOX	598	1	4	1	n/a	n/a	n/a	n/a	n/a
3683.09	n/a	RECOG_RESP	1841545	n/a	LTP279	ltpFR	6	2	1	FOX	598	1	n/a	1	n/a	n/a	n/a	n/a	n/a
3683.55	n/a	RECOG_CONF	1841775	n/a	LTP279	ltpFR	6	2	1	FOX	598	n/a	4	1	n/a	n/a	n/a	n/a	n/a
3685.402	n/a	RECOG_TARGET	1842701	n/a	LTP279	ltpFR	6	2	0	DRESSER	496	1	3	0	n/a	n/a	n/a	n/a	n/a
3686.36	n/a	RECOG_RESP	1843180	n/a	LTP279	ltpFR	6	2	0	DRESSER	496	1	n/a	0	n/a	n/a	n/a	n/a	n/a
3687.23	n/a	RECOG_CONF	1843615	n/a	LTP279	ltpFR	6	2	0	DRESSER	496	n/a	3	0	n/a	n/a	n/a	n/a	n/a
3688.746	n/a	RECOG_LURE	1844373	n/a	LTP279	ltpFR	6	2	n/a	PIN	1072	0	2	n/a	n/a	n/a	n/a	n/a	n/a
3689.516	n/a	RECOG_RESP	1844758	n/a	LTP279	ltpFR	6	2	n/a	PIN	1072	0	n/a	n/a	n/a	n/a	n/a	n/a	n/a
3690.092	n/a	RECOG_CONF	1845046	n/a	LTP279	ltpFR	6	2	n/a	PIN	1072	n/a	2	n/a	n/a	n/a	n/a	n/a	n/a
3691.71	n/a	RECOG_TARGET	1845855	n/a	LTP279	ltpFR	6	2	0	NIGHTGOWN	953	1	1	0	n/a	n/a	n/a	n/a	n/a
3692.876	n/a	RECOG_RESP	1846438	n/a	LTP279	ltpFR	6	2	0	NIGHTGOWN	953	1	n/a	0	n/a	n/a	n/a	n/a	n/a
3693.832	n/a	RECOG_CONF	1846916	n/a	LTP279	ltpFR	6	2	0	NIGHTGOWN	953	n/a	1	0	n/a	n/a	n/a	n/a	n/a
3695.588	n/a	RECOG_LURE	1847794	n/a	LTP279	ltpFR	6	2	n/a	HOSPITAL	721	0	2	n/a	n/a	n/a	n/a	n/a	n/a
3696.326	n/a	RECOG_RESP	1848163	n/a	LTP279	ltpFR	6	2	n/a	HOSPITAL	721	0	n/a	n/a	n/a	n/a	n/a	n/a	n/a
3696.882	n/a	RECOG_CONF	1848441	n/a	LTP279	ltpFR	6	2	n/a	HOSPITAL	721	n/a	2	n/a	n/a	n/a	n/a	n/a	n/a
3700.904	n/a	REC_START	1850452	n/a	LTP279	ltpFR	6	3	n/a	n/a	n/a	n/a	n/a	n/a	n/a	n/a	n/a	n/a	n/a
3700.93	n/a	RECOG_TARGET	1850465	n/a	LTP279	ltpFR	6	3	1	CORN	381	1	3	0	n/a	n/a	n/a	n/a	n/a
3701.65	n/a	RECOG_RESP	1850825	n/a	LTP279	ltpFR	6	3	1	CORN	381	1	n/a	0	n/a	n/a	n/a	n/a	n/a
3702.114	n/a	RECOG_CONF	1851057	n/a	LTP279	ltpFR	6	3	1	CORN	381	n/a	3	0	n/a	n/a	n/a	n/a	n/a
3703.808	n/a	RECOG_TARGET	1851904	n/a	LTP279	ltpFR	6	3	1	TREAD	1499	0	2	0	n/a	n/a	n/a	n/a	n/a
3704.874	n/a	RECOG_RESP	1852437	n/a	LTP279	ltpFR	6	3	1	TREAD	1499	0	n/a	0	n/a	n/a	n/a	n/a	n/a
3705.274	n/a	RECOG_CONF	1852637	n/a	LTP279	ltpFR	6	3	1	TREAD	1499	n/a	2	0	n/a	n/a	n/a	n/a	n/a
3706.92	n/a	RECOG_TARGET	1853460	n/a	LTP279	ltpFR	6	3	1	CAPE	237	1	3	0	n/a	n/a	n/a	n/a	n/a
3707.734	n/a	RECOG_RESP	1853867	n/a	LTP279	ltpFR	6	3	1	CAPE	237	1	n/a	0	n/a	n/a	n/a	n/a	n/a
3708.394	n/a	RECOG_CONF	1854197	n/a	LTP279	ltpFR	6	3	1	CAPE	237	n/a	3	0	n/a	n/a	n/a	n/a	n/a
3710.032	n/a	RECOG_TARGET	1855016	n/a	LTP279	ltpFR	6	3	0	PEAR	1033	1	4	0	n/a	n/a	n/a	n/a	n/a
3710.884	n/a	RECOG_RESP	1855442	n/a	LTP279	ltpFR	6	3	0	PEAR	1033	1	n/a	0	n/a	n/a	n/a	n/a	n/a
3711.584	n/a	RECOG_CONF	1855792	n/a	LTP279	ltpFR	6	3	0	PEAR	1033	n/a	4	0	n/a	n/a	n/a	n/a	n/a
3713.21	n/a	RECOG_LURE	1856605	n/a	LTP279	ltpFR	6	3	n/a	SEAT	1264	0	2	n/a	n/a	n/a	n/a	n/a	n/a
3714.09	n/a	RECOG_RESP	1857045	n/a	LTP279	ltpFR	6	3	n/a	SEAT	1264	0	n/a	n/a	n/a	n/a	n/a	n/a	n/a
3714.564	n/a	RECOG_CONF	1857282	n/a	LTP279	ltpFR	6	3	n/a	SEAT	1264	n/a	2	n/a	n/a	n/a	n/a	n/a	n/a
3716.222	n/a	RECOG_TARGET	1858111	n/a	LTP279	ltpFR	6	3	0	DILL	465	1	3	0	n/a	n/a	n/a	n/a	n/a
3716.9	n/a	RECOG_RESP	1858450	n/a	LTP279	ltpFR	6	3	0	DILL	465	1	n/a	0	n/a	n/a	n/a	n/a	n/a
3717.484	n/a	RECOG_CONF	1858742	n/a	LTP279	ltpFR	6	3	0	DILL	465	n/a	3	0	n/a	n/a	n/a	n/a	n/a
3719.018	n/a	RECOG_LURE	1859509	n/a	LTP279	ltpFR	6	3	n/a	EMPIRE	530	0	2	n/a	n/a	n/a	n/a	n/a	n/a
3720.3	n/a	RECOG_RESP	1860150	n/a	LTP279	ltpFR	6	3	n/a	EMPIRE	530	0	n/a	n/a	n/a	n/a	n/a	n/a	n/a
3720.654	n/a	RECOG_CONF	1860327	n/a	LTP279	ltpFR	6	3	n/a	EMPIRE	530	n/a	2	n/a	n/a	n/a	n/a	n/a	n/a
3722.398	n/a	RECOG_TARGET	1861199	n/a	LTP279	ltpFR	6	3	1	TREAT	1501	1	1	0	n/a	n/a	n/a	n/a	n/a
3723.75	n/a	RECOG_RESP	1861875	n/a	LTP279	ltpFR	6	3	1	TREAT	1501	1	n/a	0	n/a	n/a	n/a	n/a	n/a
3724.174	n/a	RECOG_CONF	1862087	n/a	LTP279	ltpFR	6	3	1	TREAT	1501	n/a	1	0	n/a	n/a	n/a	n/a	n/a
3726.042	n/a	RECOG_TARGET	1863021	n/a	LTP279	ltpFR	6	3	1	CONE	363	1	4	0	n/a	n/a	n/a	n/a	n/a
3726.78	n/a	RECOG_RESP	1863390	n/a	LTP279	ltpFR	6	3	1	CONE	363	1	n/a	0	n/a	n/a	n/a	n/a	n/a
3727.214	n/a	RECOG_CONF	1863607	n/a	LTP279	ltpFR	6	3	1	CONE	363	n/a	4	0	n/a	n/a	n/a	n/a	n/a
3728.87	n/a	RECOG_TARGET	1864435	n/a	LTP279	ltpFR	6	3	1	TORTOISE	1486	1	3	1	n/a	n/a	n/a	n/a	n/a
3729.39	n/a	RECOG_RESP	1864695	n/a	LTP279	ltpFR	6	3	1	TORTOISE	1486	1	n/a	1	n/a	n/a	n/a	n/a	n/a
3729.854	n/a	RECOG_CONF	1864927	n/a	LTP279	ltpFR	6	3	1	TORTOISE	1486	n/a	3	1	n/a	n/a	n/a	n/a	n/a
3731.55	n/a	RECOG_LURE	1865775	n/a	LTP279	ltpFR	6	3	n/a	ADOLESCENT	7	0	4	n/a	n/a	n/a	n/a	n/a	n/a
3732.26	n/a	RECOG_RESP	1866130	n/a	LTP279	ltpFR	6	3	n/a	ADOLESCENT	7	0	n/a	n/a	n/a	n/a	n/a	n/a	n/a
3732.674	n/a	RECOG_CONF	1866337	n/a	LTP279	ltpFR	6	3	n/a	ADOLESCENT	7	n/a	4	n/a	n/a	n/a	n/a	n/a	n/a
3734.33	n/a	RECOG_TARGET	1867165	n/a	LTP279	ltpFR	6	3	-1	UNIVERSE	1540	1	2	-1	n/a	n/a	n/a	n/a	n/a
3735.774	n/a	RECOG_RESP	1867887	n/a	LTP279	ltpFR	6	3	-1	UNIVERSE	1540	1	n/a	-1	n/a	n/a	n/a	n/a	n/a
3736.454	n/a	RECOG_CONF	1868227	n/a	LTP279	ltpFR	6	3	-1	UNIVERSE	1540	n/a	2	-1	n/a	n/a	n/a	n/a	n/a
3738.056	n/a	RECOG_TARGET	1869028	n/a	LTP279	ltpFR	6	3	-1	ATTIC	56	0	3	-1	n/a	n/a	n/a	n/a	n/a
3738.81	n/a	RECOG_RESP	1869405	n/a	LTP279	ltpFR	6	3	-1	ATTIC	56	0	n/a	-1	n/a	n/a	n/a	n/a	n/a
3739.354	n/a	RECOG_CONF	1869677	n/a	LTP279	ltpFR	6	3	-1	ATTIC	56	n/a	3	-1	n/a	n/a	n/a	n/a	n/a
3740.902	n/a	RECOG_TARGET	1870451	n/a	LTP279	ltpFR	6	3	1	ICE	730	0	2	0	n/a	n/a	n/a	n/a	n/a
3742.23	n/a	RECOG_RESP	1871115	n/a	LTP279	ltpFR	6	3	1	ICE	730	0	n/a	0	n/a	n/a	n/a	n/a	n/a
3742.674	n/a	RECOG_CONF	1871337	n/a	LTP279	ltpFR	6	3	1	ICE	730	n/a	2	0	n/a	n/a	n/a	n/a	n/a
3744.464	n/a	RECOG_TARGET	1872232	n/a	LTP279	ltpFR	6	3	-1	SKYSCRAPER	1322	1	4	-1	n/a	n/a	n/a	n/a	n/a
3745.4	n/a	RECOG_RESP	1872700	n/a	LTP279	ltpFR	6	3	-1	SKYSCRAPER	1322	1	n/a	-1	n/a	n/a	n/a	n/a	n/a
3745.934	n/a	RECOG_CONF	1872967	n/a	LTP279	ltpFR	6	3	-1	SKYSCRAPER	1322	n/a	4	-1	n/a	n/a	n/a	n/a	n/a
3747.726	n/a	RECOG_LURE	1873863	n/a	LTP279	ltpFR	6	3	n/a	SIDEWALK	1303	0	2	n/a	n/a	n/a	n/a	n/a	n/a
3748.734	n/a	RECOG_RESP	1874367	n/a	LTP279	ltpFR	6	3	n/a	SIDEWALK	1303	0	n/a	n/a	n/a	n/a	n/a	n/a	n/a
3749.184	n/a	RECOG_CONF	1874592	n/a	LTP279	ltpFR	6	3	n/a	SIDEWALK	1303	n/a	2	n/a	n/a	n/a	n/a	n/a	n/a
3750.938	n/a	RECOG_LURE	1875469	n/a	LTP279	ltpFR	6	3	n/a	SUBWAY	1400	0	3	n/a	n/a	n/a	n/a	n/a	n/a
3751.8	n/a	RECOG_RESP	1875900	n/a	LTP279	ltpFR	6	3	n/a	SUBWAY	1400	0	n/a	n/a	n/a	n/a	n/a	n/a	n/a
3752.254	n/a	RECOG_CONF	1876127	n/a	LTP279	ltpFR	6	3	n/a	SUBWAY	1400	n/a	3	n/a	n/a	n/a	n/a	n/a	n/a
3753.9	n/a	RECOG_TARGET	1876950	n/a	LTP279	ltpFR	6	3	0	ISLAND	745	1	4	1	n/a	n/a	n/a	n/a	n/a
3754.604	n/a	RECOG_RESP	1877302	n/a	LTP279	ltpFR	6	3	0	ISLAND	745	1	n/a	1	n/a	n/a	n/a	n/a	n/a
3755.004	n/a	RECOG_CONF	1877502	n/a	LTP279	ltpFR	6	3	0	ISLAND	745	n/a	4	1	n/a	n/a	n/a	n/a	n/a
3756.78	n/a	RECOG_TARGET	1878390	n/a	LTP279	ltpFR	6	3	1	GAZELLE	628	1	3	1	n/a	n/a	n/a	n/a	n/a
3757.424	n/a	RECOG_RESP	1878712	n/a	LTP279	ltpFR	6	3	1	GAZELLE	628	1	n/a	1	n/a	n/a	n/a	n/a	n/a
3757.894	n/a	RECOG_CONF	1878947	n/a	LTP279	ltpFR	6	3	1	GAZELLE	628	n/a	3	1	n/a	n/a	n/a	n/a	n/a
3759.41	n/a	RECOG_TARGET	1879705	n/a	LTP279	ltpFR	6	3	1	MINK	897	1	2	1	n/a	n/a	n/a	n/a	n/a
3760.406	n/a	RECOG_RESP	1880203	n/a	LTP279	ltpFR	6	3	1	MINK	897	1	n/a	1	n/a	n/a	n/a	n/a	n/a
3760.796	n/a	RECOG_CONF	1880398	n/a	LTP279	ltpFR	6	3	1	MINK	897	n/a	2	1	n/a	n/a	n/a	n/a	n/a
3766.72	n/a	REC_START	1883360	n/a	LTP279	ltpFR	6	4	n/a	n/a	n/a	n/a	n/a	n/a	n/a	n/a	n/a	n/a	n/a
3766.748	n/a	RECOG_TARGET	1883374	n/a	LTP279	ltpFR	6	4	0	BIRD	129	1	2	0	n/a	n/a	n/a	n/a	n/a
3767.49	n/a	RECOG_RESP	1883745	n/a	LTP279	ltpFR	6	4	0	BIRD	129	1	n/a	0	n/a	n/a	n/a	n/a	n/a
3767.89	n/a	RECOG_CONF	1883945	n/a	LTP279	ltpFR	6	4	0	BIRD	129	n/a	2	0	n/a	n/a	n/a	n/a	n/a
3769.51	n/a	RECOG_TARGET	1884755	n/a	LTP279	ltpFR	6	4	0	SANDWICH	1232	0	2	0	n/a	n/a	n/a	n/a	n/a
3770.356	n/a	RECOG_RESP	1885178	n/a	LTP279	ltpFR	6	4	0	SANDWICH	1232	0	n/a	0	n/a	n/a	n/a	n/a	n/a
3770.74	n/a	RECOG_CONF	1885370	n/a	LTP279	ltpFR	6	4	0	SANDWICH	1232	n/a	2	0	n/a	n/a	n/a	n/a	n/a
3772.374	n/a	RECOG_TARGET	1886187	n/a	LTP279	ltpFR	6	4	1	BUYER	208	0	1	1	n/a	n/a	n/a	n/a	n/a
3773.48	n/a	RECOG_RESP	1886740	n/a	LTP279	ltpFR	6	4	1	BUYER	208	0	n/a	1	n/a	n/a	n/a	n/a	n/a
3773.89	n/a	RECOG_CONF	1886945	n/a	LTP279	ltpFR	6	4	1	BUYER	208	n/a	1	1	n/a	n/a	n/a	n/a	n/a
3775.452	n/a	RECOG_TARGET	1887726	n/a	LTP279	ltpFR	6	4	1	SCAPEGOAT	1244	1	4	1	n/a	n/a	n/a	n/a	n/a
3776.19	n/a	RECOG_RESP	1888095	n/a	LTP279	ltpFR	6	4	1	SCAPEGOAT	1244	1	n/a	1	n/a	n/a	n/a	n/a	n/a
3776.59	n/a	RECOG_CONF	1888295	n/a	LTP279	ltpFR	6	4	1	SCAPEGOAT	1244	n/a	4	1	n/a	n/a	n/a	n/a	n/a
3778.298	n/a	RECOG_TARGET	1889149	n/a	LTP279	ltpFR	6	4	1	SUSPECT	1415	0	1	1	n/a	n/a	n/a	n/a	n/a
3779.806	n/a	RECOG_RESP	1889903	n/a	LTP279	ltpFR	6	4	1	SUSPECT	1415	0	n/a	1	n/a	n/a	n/a	n/a	n/a
3780.19	n/a	RECOG_CONF	1890095	n/a	LTP279	ltpFR	6	4	1	SUSPECT	1415	n/a	1	1	n/a	n/a	n/a	n/a	n/a
3781.96	n/a	RECOG_TARGET	1890980	n/a	LTP279	ltpFR	6	4	-1	BANDIT	81	1	4	-1	n/a	n/a	n/a	n/a	n/a
3782.776	n/a	RECOG_RESP	1891388	n/a	LTP279	ltpFR	6	4	-1	BANDIT	81	1	n/a	-1	n/a	n/a	n/a	n/a	n/a
3783.22	n/a	RECOG_CONF	1891610	n/a	LTP279	ltpFR	6	4	-1	BANDIT	81	n/a	4	-1	n/a	n/a	n/a	n/a	n/a
3784.872	n/a	RECOG_TARGET	1892436	n/a	LTP279	ltpFR	6	4	-1	ANTELOPE	27	1	3	-1	n/a	n/a	n/a	n/a	n/a
3785.636	n/a	RECOG_RESP	1892818	n/a	LTP279	ltpFR	6	4	-1	ANTELOPE	27	1	n/a	-1	n/a	n/a	n/a	n/a	n/a
3786.06	n/a	RECOG_CONF	1893030	n/a	LTP279	ltpFR	6	4	-1	ANTELOPE	27	n/a	3	-1	n/a	n/a	n/a	n/a	n/a
3787.8	n/a	RECOG_TARGET	1893900	n/a	LTP279	ltpFR	6	4	1	PRIMATE	1123	1	5	0	n/a	n/a	n/a	n/a	n/a
3788.476	n/a	RECOG_RESP	1894238	n/a	LTP279	ltpFR	6	4	1	PRIMATE	1123	1	n/a	0	n/a	n/a	n/a	n/a	n/a
3788.99	n/a	RECOG_CONF	1894495	n/a	LTP279	ltpFR	6	4	1	PRIMATE	1123	n/a	5	0	n/a	n/a	n/a	n/a	n/a
3790.648	n/a	RECOG_LURE	1895324	n/a	LTP279	ltpFR	6	4	n/a	MONKEY	911	0	2	n/a	n/a	n/a	n/a	n/a	n/a
3791.486	n/a	RECOG_RESP	1895743	n/a	LTP279	ltpFR	6	4	n/a	MONKEY	911	0	n/a	n/a	n/a	n/a	n/a	n/a	n/a
3791.93	n/a	RECOG_CONF	1895965	n/a	LTP279	ltpFR	6	4	n/a	MONKEY	911	n/a	2	n/a	n/a	n/a	n/a	n/a	n/a
3793.542	n/a	RECOG_TARGET	1896771	n/a	LTP279	ltpFR	6	4	1	PLANET	1082	1	3	0	n/a	n/a	n/a	n/a	n/a
3794.27	n/a	RECOG_RESP	1897135	n/a	LTP279	ltpFR	6	4	1	PLANET	1082	1	n/a	0	n/a	n/a	n/a	n/a	n/a
3795.12	n/a	RECOG_CONF	1897560	n/a	LTP279	ltpFR	6	4	1	PLANET	1082	n/a	3	0	n/a	n/a	n/a	n/a	n/a
3796.754	n/a	RECOG_TARGET	1898377	n/a	LTP279	ltpFR	6	4	0	PLANT	1083	0	1	0	n/a	n/a	n/a	n/a	n/a
3797.516	n/a	RECOG_RESP	1898758	n/a	LTP279	ltpFR	6	4	0	PLANT	1083	0	n/a	0	n/a	n/a	n/a	n/a	n/a
3798.17	n/a	RECOG_CONF	1899085	n/a	LTP279	ltpFR	6	4	0	PLANT	1083	n/a	1	0	n/a	n/a	n/a	n/a	n/a
3799.9	n/a	RECOG_TARGET	1899950	n/a	LTP279	ltpFR	6	4	-1	MOUNTAIN	924	1	4	-1	n/a	n/a	n/a	n/a	n/a
3800.64	n/a	RECOG_RESP	1900320	n/a	LTP279	ltpFR	6	4	-1	MOUNTAIN	924	1	n/a	-1	n/a	n/a	n/a	n/a	n/a
3801.03	n/a	RECOG_CONF	1900515	n/a	LTP279	ltpFR	6	4	-1	MOUNTAIN	924	n/a	4	-1	n/a	n/a	n/a	n/a	n/a
3802.812	n/a	RECOG_LURE	1901406	n/a	LTP279	ltpFR	6	4	n/a	SCOUT	1252	0	1	n/a	n/a	n/a	n/a	n/a	n/a
3803.98	n/a	RECOG_RESP	1901990	n/a	LTP279	ltpFR	6	4	n/a	SCOUT	1252	0	n/a	n/a	n/a	n/a	n/a	n/a	n/a
3804.41	n/a	RECOG_CONF	1902205	n/a	LTP279	ltpFR	6	4	n/a	SCOUT	1252	n/a	1	n/a	n/a	n/a	n/a	n/a	n/a
3806.006	n/a	RECOG_TARGET	1903003	n/a	LTP279	ltpFR	6	4	1	ALLIGATOR	16	1	4	1	n/a	n/a	n/a	n/a	n/a
3806.71	n/a	RECOG_RESP	1903355	n/a	LTP279	ltpFR	6	4	1	ALLIGATOR	16	1	n/a	1	n/a	n/a	n/a	n/a	n/a
3807.23	n/a	RECOG_CONF	1903615	n/a	LTP279	ltpFR	6	4	1	ALLIGATOR	16	n/a	4	1	n/a	n/a	n/a	n/a	n/a
3808.786	n/a	RECOG_TARGET	1904393	n/a	LTP279	ltpFR	6	4	-1	FENCE	560	1	4	-1	n/a	n/a	n/a	n/a	n/a
3809.58	n/a	RECOG_RESP	1904790	n/a	LTP279	ltpFR	6	4	-1	FENCE	560	1	n/a	-1	n/a	n/a	n/a	n/a	n/a
3810.17	n/a	RECOG_CONF	1905085	n/a	LTP279	ltpFR	6	4	-1	FENCE	560	n/a	4	-1	n/a	n/a	n/a	n/a	n/a
3811.666	n/a	RECOG_TARGET	1905833	n/a	LTP279	ltpFR	6	4	-1	TOOTHPASTE	1483	1	5	-1	n/a	n/a	n/a	n/a	n/a
3812.45	n/a	RECOG_RESP	1906225	n/a	LTP279	ltpFR	6	4	-1	TOOTHPASTE	1483	1	n/a	-1	n/a	n/a	n/a	n/a	n/a
3812.85	n/a	RECOG_CONF	1906425	n/a	LTP279	ltpFR	6	4	-1	TOOTHPASTE	1483	n/a	5	-1	n/a	n/a	n/a	n/a	n/a
3814.662	n/a	RECOG_TARGET	1907331	n/a	LTP279	ltpFR	6	4	-1	ROD	1203	1	5	-1	n/a	n/a	n/a	n/a	n/a
3815.22	n/a	RECOG_RESP	1907610	n/a	LTP279	ltpFR	6	4	-1	ROD	1203	1	n/a	-1	n/a	n/a	n/a	n/a	n/a
3815.56	n/a	RECOG_CONF	1907780	n/a	LTP279	ltpFR	6	4	-1	ROD	1203	n/a	5	-1	n/a	n/a	n/a	n/a	n/a
3817.274	n/a	RECOG_TARGET	1908637	n/a	LTP279	ltpFR	6	4	0	COMPUTER	359	1	3	0	n/a	n/a	n/a	n/a	n/a
3818.68	n/a	RECOG_RESP	1909340	n/a	LTP279	ltpFR	6	4	0	COMPUTER	359	1	n/a	0	n/a	n/a	n/a	n/a	n/a
3819.76	n/a	RECOG_CONF	1909880	n/a	LTP279	ltpFR	6	4	0	COMPUTER	359	n/a	3	0	n/a	n/a	n/a	n/a	n/a
3821.516	n/a	RECOG_TARGET	1910758	n/a	LTP279	ltpFR	6	4	0	QUILT	1151	1	4	0	n/a	n/a	n/a	n/a	n/a
3822.4	n/a	RECOG_RESP	1911200	n/a	LTP279	ltpFR	6	4	0	QUILT	1151	1	n/a	0	n/a	n/a	n/a	n/a	n/a
3823.04	n/a	RECOG_CONF	1911520	n/a	LTP279	ltpFR	6	4	0	QUILT	1151	n/a	4	0	n/a	n/a	n/a	n/a	n/a
3824.762	n/a	RECOG_TARGET	1912381	n/a	LTP279	ltpFR	6	4	-1	TACK	1428	1	4	-1	n/a	n/a	n/a	n/a	n/a
3825.41	n/a	RECOG_RESP	1912705	n/a	LTP279	ltpFR	6	4	-1	TACK	1428	1	n/a	-1	n/a	n/a	n/a	n/a	n/a
3826.14	n/a	RECOG_CONF	1913070	n/a	LTP279	ltpFR	6	4	-1	TACK	1428	n/a	4	-1	n/a	n/a	n/a	n/a	n/a
3830.496	n/a	REC_START	1915248	n/a	LTP279	ltpFR	6	5	n/a	n/a	n/a	n/a	n/a	n/a	n/a	n/a	n/a	n/a	n/a
3830.538	n/a	RECOG_TARGET	1915269	n/a	LTP279	ltpFR	6	5	1	BLOCKADE	137	1	3	0	n/a	n/a	n/a	n/a	n/a
3831.456	n/a	RECOG_RESP	1915728	n/a	LTP279	ltpFR	6	5	1	BLOCKADE	137	1	n/a	0	n/a	n/a	n/a	n/a	n/a
3831.996	n/a	RECOG_CONF	1915998	n/a	LTP279	ltpFR	6	5	1	BLOCKADE	137	n/a	3	0	n/a	n/a	n/a	n/a	n/a
3833.616	n/a	RECOG_TARGET	1916808	n/a	LTP279	ltpFR	6	5	0	DONOR	485	1	4	0	n/a	n/a	n/a	n/a	n/a
3834.176	n/a	RECOG_RESP	1917088	n/a	LTP279	ltpFR	6	5	0	DONOR	485	1	n/a	0	n/a	n/a	n/a	n/a	n/a
3834.586	n/a	RECOG_CONF	1917293	n/a	LTP279	ltpFR	6	5	0	DONOR	485	n/a	4	0	n/a	n/a	n/a	n/a	n/a
3836.278	n/a	RECOG_LURE	1918139	n/a	LTP279	ltpFR	6	5	n/a	CARPENTER	246	0	2	n/a	n/a	n/a	n/a	n/a	n/a
3837.176	n/a	RECOG_RESP	1918588	n/a	LTP279	ltpFR	6	5	n/a	CARPENTER	246	0	n/a	n/a	n/a	n/a	n/a	n/a	n/a
3837.556	n/a	RECOG_CONF	1918778	n/a	LTP279	ltpFR	6	5	n/a	CARPENTER	246	n/a	2	n/a	n/a	n/a	n/a	n/a	n/a
3839.242	n/a	RECOG_LURE	1919621	n/a	LTP279	ltpFR	6	5	n/a	SIGN	1305	0	2	n/a	n/a	n/a	n/a	n/a	n/a
3840.432	n/a	RECOG_RESP	1920216	n/a	LTP279	ltpFR	6	5	n/a	SIGN	1305	0	n/a	n/a	n/a	n/a	n/a	n/a	n/a
3841.016	n/a	RECOG_CONF	1920508	n/a	LTP279	ltpFR	6	5	n/a	SIGN	1305	n/a	2	n/a	n/a	n/a	n/a	n/a	n/a
3842.67	n/a	RECOG_LURE	1921335	n/a	LTP279	ltpFR	6	5	n/a	PASTA	1021	0	3	n/a	n/a	n/a	n/a	n/a	n/a
3843.416	n/a	RECOG_RESP	1921708	n/a	LTP279	ltpFR	6	5	n/a	PASTA	1021	0	n/a	n/a	n/a	n/a	n/a	n/a	n/a
3843.846	n/a	RECOG_CONF	1921923	n/a	LTP279	ltpFR	6	5	n/a	PASTA	1021	n/a	3	n/a	n/a	n/a	n/a	n/a	n/a
3845.532	n/a	RECOG_TARGET	1922766	n/a	LTP279	ltpFR	6	5	1	BUNNY	198	0	n/a	1	n/a	n/a	n/a	n/a	n/a
3846.186	n/a	RECOG_RESP_VV	1923093	n/a	LTP279	ltpFR	6	5	1	BUNNY	198	1	n/a	1	n/a	n/a	n/a	n/a	n/a
3846.696	n/a	RECOG_RESP	1923348	n/a	LTP279	ltpFR	6	5	1	BUNNY	198	0	n/a	1	n/a	n/a	n/a	n/a	n/a
3848.244	n/a	RECOG_TARGET	1924122	n/a	LTP279	ltpFR	6	5	0	BALL	73	1	2	0	n/a	n/a	n/a	n/a	n/a
3849.772	n/a	RECOG_RESP	1924886	n/a	LTP279	ltpFR	6	5	0	BALL	73	1	n/a	0	n/a	n/a	n/a	n/a	n/a
3850.146	n/a	RECOG_CONF	1925073	n/a	LTP279	ltpFR	6	5	0	BALL	73	n/a	2	0	n/a	n/a	n/a	n/a	n/a
3851.956	n/a	RECOG_TARGET	1925978	n/a	LTP279	ltpFR	6	5	1	WAITER	1580	1	3	0	n/a	n/a	n/a	n/a	n/a
3852.716	n/a	RECOG_RESP	1926358	n/a	LTP279	ltpFR	6	5	1	WAITER	1580	1	n/a	0	n/a	n/a	n/a	n/a	n/a
3853.066	n/a	RECOG_CONF	1926533	n/a	LTP279	ltpFR	6	5	1	WAITER	1580	n/a	3	0	n/a	n/a	n/a	n/a	n/a
3854.652	n/a	RECOG_TARGET	1927326	n/a	LTP279	ltpFR	6	5	0	PUMPKIN	1142	1	4	0	n/a	n/a	n/a	n/a	n/a
3855.296	n/a	RECOG_RESP	1927648	n/a	LTP279	ltpFR	6	5	0	PUMPKIN	1142	1	n/a	0	n/a	n/a	n/a	n/a	n/a
3855.756	n/a	RECOG_CONF	1927878	n/a	LTP279	ltpFR	6	5	0	PUMPKIN	1142	n/a	4	0	n/a	n/a	n/a	n/a	n/a
3857.264	n/a	RECOG_TARGET	1928632	n/a	LTP279	ltpFR	6	5	1	MILK	895	0	3	0	n/a	n/a	n/a	n/a	n/a
3857.972	n/a	RECOG_RESP	1928986	n/a	LTP279	ltpFR	6	5	1	MILK	895	0	n/a	0	n/a	n/a	n/a	n/a	n/a
3858.466	n/a	RECOG_CONF	1929233	n/a	LTP279	ltpFR	6	5	1	MILK	895	n/a	3	0	n/a	n/a	n/a	n/a	n/a
3860.144	n/a	RECOG_TARGET	1930072	n/a	LTP279	ltpFR	6	5	0	DIAL	457	1	4	0	n/a	n/a	n/a	n/a	n/a
3861.042	n/a	RECOG_RESP	1930521	n/a	LTP279	ltpFR	6	5	0	DIAL	457	1	n/a	0	n/a	n/a	n/a	n/a	n/a
3861.426	n/a	RECOG_CONF	1930713	n/a	LTP279	ltpFR	6	5	0	DIAL	457	n/a	4	0	n/a	n/a	n/a	n/a	n/a
3863.188	n/a	RECOG_LURE	1931594	n/a	LTP279	ltpFR	6	5	n/a	SANDPAPER	1231	0	2	n/a	n/a	n/a	n/a	n/a	n/a
3863.962	n/a	RECOG_RESP	1931981	n/a	LTP279	ltpFR	6	5	n/a	SANDPAPER	1231	0	n/a	n/a	n/a	n/a	n/a	n/a	n/a
3864.466	n/a	RECOG_CONF	1932233	n/a	LTP279	ltpFR	6	5	n/a	SANDPAPER	1231	n/a	2	n/a	n/a	n/a	n/a	n/a	n/a
3866.152	n/a	RECOG_TARGET	1933076	n/a	LTP279	ltpFR	6	5	1	BUS	201	1	3	0	n/a	n/a	n/a	n/a	n/a
3866.872	n/a	RECOG_RESP	1933436	n/a	LTP279	ltpFR	6	5	1	BUS	201	1	n/a	0	n/a	n/a	n/a	n/a	n/a
3867.366	n/a	RECOG_CONF	1933683	n/a	LTP279	ltpFR	6	5	1	BUS	201	n/a	3	0	n/a	n/a	n/a	n/a	n/a
3868.93	n/a	RECOG_TARGET	1934465	n/a	LTP279	ltpFR	6	5	1	STEAM	1375	1	1	0	n/a	n/a	n/a	n/a	n/a
