mstime	trial_type	stim_file	subject	experiment	session	trial	item_name	item_num	list	answer	test_x	test_y	test_z
0	SESS_START	n/a	LTP347	ltpFR2	10	n/a	n/a	n/a	n/a	n/a	0	0	0
20927	START	n/a	LTP347	ltpFR2	10	n/a	n/a	n/a	-1	n/a	n/a	n/a	n/a
20941	PROB	n/a	LTP347	ltpFR2	10	n/a	n/a	n/a	-1	16	7	4	5
22723	PROB	n/a	LTP347	ltpFR2	10	n/a	n/a	n/a	-1	16	4	8	4
24156	PROB	n/a	LTP347	ltpFR2	10	n/a	n/a	n/a	-1	10	2	3	5
25405	PROB	n/a	LTP347	ltpFR2	10	n/a	n/a	n/a	-1	11	2	2	7
26821	PROB	n/a	LTP347	ltpFR2	10	n/a	n/a	n/a	-1	1	9	8	2
27922	PROB	n/a	LTP347	ltpFR2	10	n/a	n/a	n/a	-1	20	6	8	6
29753	PROB	n/a	LTP347	ltpFR2	10	n/a	n/a	n/a	-1	11	9	5	7
31949	STOP	n/a	LTP347	ltpFR2	10	n/a	n/a	n/a	-1	n/a	n/a	n/a	n/a
65354	WORD	wordpools/wasnorm_wordpool_576.txt	LTP347	ltpFR2	10	1	CATCHER	258	n/a	n/a	0	0	0
68019	WORD	wordpools/wasnorm_wordpool_576.txt	LTP347	ltpFR2	10	1	PILOT	1070	n/a	n/a	0	0	0
70518	WORD	wordpools/wasnorm_wordpool_576.txt	LTP347	ltpFR2	10	1	RAZOR	1171	n/a	n/a	0	0	0
72951	WORD	wordpools/wasnorm_wordpool_576.txt	LTP347	ltpFR2	10	1	KNIFE	785	n/a	n/a	0	0	0
75432	WORD	wordpools/wasnorm_wordpool_576.txt	LTP347	ltpFR2	10	1	HUMAN	726	n/a	n/a	0	0	0
78215	WORD	wordpools/wasnorm_wordpool_576.txt	LTP347	ltpFR2	10	1	BULLET	194	n/a	n/a	0	0	0
80964	WORD	wordpools/wasnorm_wordpool_576.txt	LTP347	ltpFR2	10	1	MILK	895	n/a	n/a	0	0	0
83729	WORD	wordpools/wasnorm_wordpool_576.txt	LTP347	ltpFR2	10	1	MAMMAL	861	n/a	n/a	0	0	0
86244	WORD	wordpools/wasnorm_wordpool_576.txt	LTP347	ltpFR2	10	1	DAUGHTER	442	n/a	n/a	0	0	0
88911	WORD	wordpools/wasnorm_wordpool_576.txt	LTP347	ltpFR2	10	1	EUROPE	541	n/a	n/a	0	0	0
91392	WORD	wordpools/wasnorm_wordpool_576.txt	LTP347	ltpFR2	10	1	CLAM	315	n/a	n/a	0	0	0
93858	WORD	wordpools/wasnorm_wordpool_576.txt	LTP347	ltpFR2	10	1	GRAVEL	659	n/a	n/a	0	0	0
96456	WORD	wordpools/wasnorm_wordpool_576.txt	LTP347	ltpFR2	10	1	CAPTIVE	240	n/a	n/a	0	0	0
99138	WORD	wordpools/wasnorm_wordpool_576.txt	LTP347	ltpFR2	10	1	ROBBER	1197	n/a	n/a	0	0	0
101587	WORD	wordpools/wasnorm_wordpool_576.txt	LTP347	ltpFR2	10	1	DAISY	435	n/a	n/a	0	0	0
104086	WORD	wordpools/wasnorm_wordpool_576.txt	LTP347	ltpFR2	10	1	BISON	131	n/a	n/a	0	0	0
106568	WORD	wordpools/wasnorm_wordpool_576.txt	LTP347	ltpFR2	10	1	MUMMY	932	n/a	n/a	0	0	0
109284	WORD	wordpools/wasnorm_wordpool_576.txt	LTP347	ltpFR2	10	1	AIRPORT	13	n/a	n/a	0	0	0
111799	WORD	wordpools/wasnorm_wordpool_576.txt	LTP347	ltpFR2	10	1	GANGSTER	620	n/a	n/a	0	0	0
114548	WORD	wordpools/wasnorm_wordpool_576.txt	LTP347	ltpFR2	10	1	MASK	876	n/a	n/a	0	0	0
117213	WORD	wordpools/wasnorm_wordpool_576.txt	LTP347	ltpFR2	10	1	FRECKLE	602	n/a	n/a	0	0	0
119812	WORD	wordpools/wasnorm_wordpool_576.txt	LTP347	ltpFR2	10	1	ATLAS	53	n/a	n/a	0	0	0
122378	WORD	wordpools/wasnorm_wordpool_576.txt	LTP347	ltpFR2	10	1	LIGHTNING	820	n/a	n/a	0	0	0
125093	WORD	wordpools/wasnorm_wordpool_576.txt	LTP347	ltpFR2	10	1	PUDDLE	1140	n/a	n/a	0	0	0
126709	START	n/a	LTP347	ltpFR2	10	n/a	n/a	n/a	1	n/a	n/a	n/a	n/a
127597	DISTRACTOR	n/a	LTP347	ltpFR2	10	1	n/a	n/a	n/a	n/a	0	0	0
127609	PROB	n/a	LTP347	ltpFR2	10	n/a	n/a	n/a	1	12	2	5	6
128926	PROB	n/a	LTP347	ltpFR2	10	n/a	n/a	n/a	1	12	4	2	6
130191	PROB	n/a	LTP347	ltpFR2	10	n/a	n/a	n/a	1	15	4	3	8
132573	PROB	n/a	LTP347	ltpFR2	10	n/a	n/a	n/a	1	14	2	4	8
133856	PROB	n/a	LTP347	ltpFR2	10	n/a	n/a	n/a	1	10	5	2	3
135022	PROB	n/a	LTP347	ltpFR2	10	n/a	n/a	n/a	1	20	3	9	8
136521	PROB	n/a	LTP347	ltpFR2	10	n/a	n/a	n/a	1	9	3	3	3
137538	PROB	n/a	LTP347	ltpFR2	10	n/a	n/a	n/a	1	10	4	2	4
138670	PROB	n/a	LTP347	ltpFR2	10	n/a	n/a	n/a	1	15	8	6	1
139853	PROB	n/a	LTP347	ltpFR2	10	n/a	n/a	n/a	1	14	2	8	4
141236	PROB	n/a	LTP347	ltpFR2	10	n/a	n/a	n/a	1	17	6	4	7
142619	PROB	n/a	LTP347	ltpFR2	10	n/a	n/a	n/a	1	15	8	6	1
143886	PROB	n/a	LTP347	ltpFR2	10	n/a	n/a	n/a	1	13	6	4	3
145051	PROB	n/a	LTP347	ltpFR2	10	n/a	n/a	n/a	1	17	6	5	6
146500	PROB	n/a	LTP347	ltpFR2	10	n/a	n/a	n/a	1	13	5	3	5
147566	PROB	n/a	LTP347	ltpFR2	10	n/a	n/a	n/a	1	5	3	1	1
148433	PROB	n/a	LTP347	ltpFR2	10	n/a	n/a	n/a	1	17	5	6	6
149744	STOP	n/a	LTP347	ltpFR2	10	n/a	n/a	n/a	1	n/a	n/a	n/a	n/a
152648	REC_START	n/a	LTP347	ltpFR2	10	1	n/a	n/a	n/a	n/a	0	0	0
153208	REC_WORD	wordpools/wasnorm_wordpool_576.txt	LTP347	ltpFR2	10	1	MASK	876	n/a	n/a	0	0	0
154109	REC_WORD	wordpools/wasnorm_wordpool_576.txt	LTP347	ltpFR2	10	1	FRECKLE	602	n/a	n/a	0	0	0
155270	REC_WORD	wordpools/wasnorm_wordpool_576.txt	LTP347	ltpFR2	10	1	LIGHTNING	820	n/a	n/a	0	0	0
156567	REC_WORD	wordpools/wasnorm_wordpool_576.txt	LTP347	ltpFR2	10	1	ATLAS	53	n/a	n/a	0	0	0
157812	REC_WORD	wordpools/wasnorm_wordpool_576.txt	LTP347	ltpFR2	10	1	PUDDLE	1140	n/a	n/a	0	0	0
162269	REC_WORD	wordpools/wasnorm_wordpool_576.txt	LTP347	ltpFR2	10	1	CATCHER	258	n/a	n/a	0	0	0
163154	REC_WORD	wordpools/wasnorm_wordpool_576.txt	LTP347	ltpFR2	10	1	PILOT	1070	n/a	n/a	0	0	0
164089	REC_WORD	wordpools/wasnorm_wordpool_576.txt	LTP347	ltpFR2	10	1	RAZOR	1171	n/a	n/a	0	0	0
165193	REC_WORD	wordpools/wasnorm_wordpool_576.txt	LTP347	ltpFR2	10	1	HUMAN	726	n/a	n/a	0	0	0
166697	REC_WORD	wordpools/wasnorm_wordpool_576.txt	LTP347	ltpFR2	10	1	BULLET	194	n/a	n/a	0	0	0
167667	REC_WORD	wordpools/wasnorm_wordpool_576.txt	LTP347	ltpFR2	10	1	MILK	895	n/a	n/a	0	0	0
168777	REC_WORD	wordpools/wasnorm_wordpool_576.txt	LTP347	ltpFR2	10	1	MAMMAL	861	n/a	n/a	0	0	0
170765	REC_WORD	wordpools/wasnorm_wordpool_576.txt	LTP347	ltpFR2	10	1	DAUGHTER	442	n/a	n/a	0	0	0
171669	REC_WORD	wordpools/wasnorm_wordpool_576.txt	LTP347	ltpFR2	10	1	EUROPE	541	n/a	n/a	0	0	0
172732	REC_WORD	wordpools/wasnorm_wordpool_576.txt	LTP347	ltpFR2	10	1	CLAM	315	n/a	n/a	0	0	0
175815	REC_WORD	wordpools/wasnorm_wordpool_576.txt	LTP347	ltpFR2	10	1	DAISY	435	n/a	n/a	0	0	0
178256	REC_WORD	wordpools/wasnorm_wordpool_576.txt	LTP347	ltpFR2	10	1	ROBBER	1197	n/a	n/a	0	0	0
181102	REC_WORD	wordpools/wasnorm_wordpool_576.txt	LTP347	ltpFR2	10	1	CAPTIVE	240	n/a	n/a	0	0	0
184329	REC_WORD	wordpools/wasnorm_wordpool_576.txt	LTP347	ltpFR2	10	1	BISON	131	n/a	n/a	0	0	0
185229	REC_WORD	wordpools/wasnorm_wordpool_576.txt	LTP347	ltpFR2	10	1	MUMMY	932	n/a	n/a	0	0	0
186357	REC_WORD	wordpools/wasnorm_wordpool_576.txt	LTP347	ltpFR2	10	1	AIRPORT	13	n/a	n/a	0	0	0
189073	REC_WORD	wordpools/wasnorm_wordpool_576.txt	LTP347	ltpFR2	10	1	GANGSTER	620	n/a	n/a	0	0	0
243073	DISTRACTOR	n/a	LTP347	ltpFR2	10	2	n/a	n/a	n/a	n/a	0	0	0
243073	START	n/a	LTP347	ltpFR2	10	n/a	n/a	n/a	2	n/a	n/a	n/a	n/a
243090	PROB	n/a	LTP347	ltpFR2	10	n/a	n/a	n/a	2	24	9	9	6
245322	PROB	n/a	LTP347	ltpFR2	10	n/a	n/a	n/a	2	15	3	5	7
246805	PROB	n/a	LTP347	ltpFR2	10	n/a	n/a	n/a	2	22	8	8	6
249054	PROB	n/a	LTP347	ltpFR2	10	n/a	n/a	n/a	2	18	8	4	6
250370	PROB	n/a	LTP347	ltpFR2	10	n/a	n/a	n/a	2	13	3	2	8
251453	PROB	n/a	LTP347	ltpFR2	10	n/a	n/a	n/a	2	12	6	2	4
252486	PROB	n/a	LTP347	ltpFR2	10	n/a	n/a	n/a	2	21	6	7	8
254085	PROB	n/a	LTP347	ltpFR2	10	n/a	n/a	n/a	2	10	3	1	6
255468	PROB	n/a	LTP347	ltpFR2	10	n/a	n/a	n/a	2	16	7	2	7
257367	PROB	n/a	LTP347	ltpFR2	10	n/a	n/a	n/a	2	11	1	1	9
258533	PROB	n/a	LTP347	ltpFR2	10	n/a	n/a	n/a	2	13	3	8	2
259516	PROB	n/a	LTP347	ltpFR2	10	n/a	n/a	n/a	2	15	5	5	5
260899	PROB	n/a	LTP347	ltpFR2	10	n/a	n/a	n/a	2	12	2	6	4
262115	PROB	n/a	LTP347	ltpFR2	10	n/a	n/a	n/a	2	11	1	8	2
263181	PROB	n/a	LTP347	ltpFR2	10	n/a	n/a	n/a	2	17	4	6	7
264463	PROB	n/a	LTP347	ltpFR2	10	n/a	n/a	n/a	2	15	9	1	5
265513	PROB	n/a	LTP347	ltpFR2	10	n/a	n/a	n/a	2	17	6	6	5
266755	STOP	n/a	LTP347	ltpFR2	10	n/a	n/a	n/a	2	n/a	n/a	n/a	n/a
268128	WORD	wordpools/wasnorm_wordpool_576.txt	LTP347	ltpFR2	10	2	JURY	766	n/a	n/a	0	0	0
270627	WORD	wordpools/wasnorm_wordpool_576.txt	LTP347	ltpFR2	10	2	GYMNAST	675	n/a	n/a	0	0	0
273276	WORD	wordpools/wasnorm_wordpool_576.txt	LTP347	ltpFR2	10	2	FOOTBALL	591	n/a	n/a	0	0	0
276008	WORD	wordpools/wasnorm_wordpool_576.txt	LTP347	ltpFR2	10	2	CHILD	299	n/a	n/a	0	0	0
278507	WORD	wordpools/wasnorm_wordpool_576.txt	LTP347	ltpFR2	10	2	CRAYON	401	n/a	n/a	0	0	0
281039	WORD	wordpools/wasnorm_wordpool_576.txt	LTP347	ltpFR2	10	2	KNAPSACK	783	n/a	n/a	0	0	0
283821	WORD	wordpools/wasnorm_wordpool_576.txt	LTP347	ltpFR2	10	2	RADISH	1158	n/a	n/a	0	0	0
286420	WORD	wordpools/wasnorm_wordpool_576.txt	LTP347	ltpFR2	10	2	INMATE	738	n/a	n/a	0	0	0
289069	WORD	wordpools/wasnorm_wordpool_576.txt	LTP347	ltpFR2	10	2	POISON	1096	n/a	n/a	0	0	0
291768	WORD	wordpools/wasnorm_wordpool_576.txt	LTP347	ltpFR2	10	2	COBRA	336	n/a	n/a	0	0	0
294467	WORD	wordpools/wasnorm_wordpool_576.txt	LTP347	ltpFR2	10	2	SALT	1229	n/a	n/a	0	0	0
297249	WORD	wordpools/wasnorm_wordpool_576.txt	LTP347	ltpFR2	10	2	LETTUCE	814	n/a	n/a	0	0	0
299697	WORD	wordpools/wasnorm_wordpool_576.txt	LTP347	ltpFR2	10	2	HOUND	724	n/a	n/a	0	0	0
302496	WORD	wordpools/wasnorm_wordpool_576.txt	LTP347	ltpFR2	10	2	BINDER	127	n/a	n/a	0	0	0
305295	WORD	wordpools/wasnorm_wordpool_576.txt	LTP347	ltpFR2	10	2	GOBLIN	645	n/a	n/a	0	0	0
307811	WORD	wordpools/wasnorm_wordpool_576.txt	LTP347	ltpFR2	10	2	LASER	801	n/a	n/a	0	0	0
310243	WORD	wordpools/wasnorm_wordpool_576.txt	LTP347	ltpFR2	10	2	CRICKET	408	n/a	n/a	0	0	0
312842	WORD	wordpools/wasnorm_wordpool_576.txt	LTP347	ltpFR2	10	2	LEG	809	n/a	n/a	0	0	0
315474	WORD	wordpools/wasnorm_wordpool_576.txt	LTP347	ltpFR2	10	2	COWBOY	395	n/a	n/a	0	0	0
318239	WORD	wordpools/wasnorm_wordpool_576.txt	LTP347	ltpFR2	10	2	GIRL	637	n/a	n/a	0	0	0
320788	WORD	wordpools/wasnorm_wordpool_576.txt	LTP347	ltpFR2	10	2	WIDOW	1608	n/a	n/a	0	0	0
323453	WORD	wordpools/wasnorm_wordpool_576.txt	LTP347	ltpFR2	10	2	MEAT	883	n/a	n/a	0	0	0
326052	WORD	wordpools/wasnorm_wordpool_576.txt	LTP347	ltpFR2	10	2	GRILL	661	n/a	n/a	0	0	0
328534	WORD	wordpools/wasnorm_wordpool_576.txt	LTP347	ltpFR2	10	2	TRIBE	1505	n/a	n/a	0	0	0
330151	START	n/a	LTP347	ltpFR2	10	n/a	n/a	n/a	3	n/a	n/a	n/a	n/a
331350	DISTRACTOR	n/a	LTP347	ltpFR2	10	2	n/a	n/a	n/a	n/a	0	0	0
331367	PROB	n/a	LTP347	ltpFR2	10	n/a	n/a	n/a	3	10	3	6	1
332549	PROB	n/a	LTP347	ltpFR2	10	n/a	n/a	n/a	3	14	5	1	8
333883	PROB	n/a	LTP347	ltpFR2	10	n/a	n/a	n/a	3	15	3	8	4
335098	PROB	n/a	LTP347	ltpFR2	10	n/a	n/a	n/a	3	15	1	9	5
336098	PROB	n/a	LTP347	ltpFR2	10	n/a	n/a	n/a	3	1	5	8	1
337514	PROB	n/a	LTP347	ltpFR2	10	n/a	n/a	n/a	3	18	9	8	1
339380	PROB	n/a	LTP347	ltpFR2	10	n/a	n/a	n/a	3	20	8	8	4
340479	PROB	n/a	LTP347	ltpFR2	10	n/a	n/a	n/a	3	8	5	1	2
341645	PROB	n/a	LTP347	ltpFR2	10	n/a	n/a	n/a	3	19	7	9	3
342728	PROB	n/a	LTP347	ltpFR2	10	n/a	n/a	n/a	3	8	5	2	1
343761	PROB	n/a	LTP347	ltpFR2	10	n/a	n/a	n/a	3	12	6	2	3
345294	PROB	n/a	LTP347	ltpFR2	10	n/a	n/a	n/a	3	11	5	5	1
346410	PROB	n/a	LTP347	ltpFR2	10	n/a	n/a	n/a	3	22	8	5	9
350141	PROB	n/a	LTP347	ltpFR2	10	n/a	n/a	n/a	3	13	3	4	8
351674	PROB	n/a	LTP347	ltpFR2	10	n/a	n/a	n/a	3	19	5	6	8
353358	STOP	n/a	LTP347	ltpFR2	10	n/a	n/a	n/a	3	n/a	n/a	n/a	n/a
355957	REC_START	n/a	LTP347	ltpFR2	10	2	n/a	n/a	n/a	n/a	0	0	0
356452	REC_WORD	wordpools/wasnorm_wordpool_576.txt	LTP347	ltpFR2	10	2	GIRL	637	n/a	n/a	0	0	0
357073	REC_WORD	wordpools/wasnorm_wordpool_576.txt	LTP347	ltpFR2	10	2	WIDOW	1608	n/a	n/a	0	0	0
357651	REC_WORD	wordpools/wasnorm_wordpool_576.txt	LTP347	ltpFR2	10	2	MEAT	883	n/a	n/a	0	0	0
358431	REC_WORD	wordpools/wasnorm_wordpool_576.txt	LTP347	ltpFR2	10	2	GRILL	661	n/a	n/a	0	0	0
359266	REC_WORD	wordpools/wasnorm_wordpool_576.txt	LTP347	ltpFR2	10	2	TRIBE	1505	n/a	n/a	0	0	0
360524	REC_WORD	wordpools/wasnorm_wordpool_576.txt	LTP347	ltpFR2	10	2	JURY	766	n/a	n/a	0	0	0
361502	REC_WORD	wordpools/wasnorm_wordpool_576.txt	LTP347	ltpFR2	10	2	GYMNAST	675	n/a	n/a	0	0	0
362347	REC_WORD	wordpools/wasnorm_wordpool_576.txt	LTP347	ltpFR2	10	2	FOOTBALL	591	n/a	n/a	0	0	0
367877	REC_WORD	wordpools/wasnorm_wordpool_576.txt	LTP347	ltpFR2	10	2	CRAYON	401	n/a	n/a	0	0	0
368800	REC_WORD	wordpools/wasnorm_wordpool_576.txt	LTP347	ltpFR2	10	2	KNAPSACK	783	n/a	n/a	0	0	0
369697	REC_WORD	wordpools/wasnorm_wordpool_576.txt	LTP347	ltpFR2	10	2	RADISH	1158	n/a	n/a	0	0	0
370547	REC_WORD	wordpools/wasnorm_wordpool_576.txt	LTP347	ltpFR2	10	2	POISON	1096	n/a	n/a	0	0	0
371235	REC_WORD	wordpools/wasnorm_wordpool_576.txt	LTP347	ltpFR2	10	2	COBRA	336	n/a	n/a	0	0	0
372465	REC_WORD	wordpools/wasnorm_wordpool_576.txt	LTP347	ltpFR2	10	2	SALT	1229	n/a	n/a	0	0	0
373158	REC_WORD	wordpools/wasnorm_wordpool_576.txt	LTP347	ltpFR2	10	2	LETTUCE	814	n/a	n/a	0	0	0
375083	REC_WORD	wordpools/wasnorm_wordpool_576.txt	LTP347	ltpFR2	10	2	HOUND	724	n/a	n/a	0	0	0
376083	REC_WORD_VV	wordpools/wasnorm_wordpool_576.txt	LTP347	ltpFR2	10	2	<>	-1	n/a	n/a	0	0	0
376583	REC_WORD	wordpools/wasnorm_wordpool_576.txt	LTP347	ltpFR2	10	2	BINDER	127	n/a	n/a	0	0	0
377448	REC_WORD	wordpools/wasnorm_wordpool_576.txt	LTP347	ltpFR2	10	2	GOBLIN	645	n/a	n/a	0	0	0
378214	REC_WORD	wordpools/wasnorm_wordpool_576.txt	LTP347	ltpFR2	10	2	LASER	801	n/a	n/a	0	0	0
381664	REC_WORD	wordpools/wasnorm_wordpool_576.txt	LTP347	ltpFR2	10	2	INMATE	738	n/a	n/a	0	0	0
383028	REC_WORD	wordpools/wasnorm_wordpool_576.txt	LTP347	ltpFR2	10	2	COWBOY	395	n/a	n/a	0	0	0
384028	REC_WORD_VV	wordpools/wasnorm_wordpool_576.txt	LTP347	ltpFR2	10	2	<>	-1	n/a	n/a	0	0	0
446381	DISTRACTOR	n/a	LTP347	ltpFR2	10	3	n/a	n/a	n/a	n/a	0	0	0
446381	START	n/a	LTP347	ltpFR2	10	n/a	n/a	n/a	4	n/a	n/a	n/a	n/a
446398	PROB	n/a	LTP347	ltpFR2	10	n/a	n/a	n/a	4	20	3	8	9
447714	PROB	n/a	LTP347	ltpFR2	10	n/a	n/a	n/a	4	13	1	8	4
448964	PROB	n/a	LTP347	ltpFR2	10	n/a	n/a	n/a	4	16	7	7	2
451096	PROB	n/a	LTP347	ltpFR2	10	n/a	n/a	n/a	4	14	4	1	9
452278	PROB	n/a	LTP347	ltpFR2	10	n/a	n/a	n/a	4	17	6	4	7
453528	PROB	n/a	LTP347	ltpFR2	10	n/a	n/a	n/a	4	24	9	6	9
455010	PROB	n/a	LTP347	ltpFR2	10	n/a	n/a	n/a	4	7	2	2	3
456576	PROB	n/a	LTP347	ltpFR2	10	n/a	n/a	n/a	4	16	2	5	9
457843	PROB	n/a	LTP347	ltpFR2	10	n/a	n/a	n/a	4	11	6	2	3
459075	PROB	n/a	LTP347	ltpFR2	10	n/a	n/a	n/a	4	15	7	3	5
460075	PROB	n/a	LTP347	ltpFR2	10	n/a	n/a	n/a	4	13	3	8	2
461208	PROB	n/a	LTP347	ltpFR2	10	n/a	n/a	n/a	4	21	8	6	7
463573	PROB	n/a	LTP347	ltpFR2	10	n/a	n/a	n/a	4	19	7	8	4
465206	PROB	n/a	LTP347	ltpFR2	10	n/a	n/a	n/a	4	17	4	7	6
466572	PROB	n/a	LTP347	ltpFR2	10	n/a	n/a	n/a	4	13	2	8	3
467521	PROB	n/a	LTP347	ltpFR2	10	n/a	n/a	n/a	4	12	9	1	2
468554	PROB	n/a	LTP347	ltpFR2	10	n/a	n/a	n/a	4	10	5	4	1
469730	STOP	n/a	LTP347	ltpFR2	10	n/a	n/a	n/a	4	n/a	n/a	n/a	n/a
471503	WORD	wordpools/wasnorm_wordpool_576.txt	LTP347	ltpFR2	10	3	RACKET	1155	n/a	n/a	0	0	0
474152	WORD	wordpools/wasnorm_wordpool_576.txt	LTP347	ltpFR2	10	3	COUNTY	389	n/a	n/a	0	0	0
476952	WORD	wordpools/wasnorm_wordpool_576.txt	LTP347	ltpFR2	10	3	TOURIST	1488	n/a	n/a	0	0	0
479483	WORD	wordpools/wasnorm_wordpool_576.txt	LTP347	ltpFR2	10	3	MARINE	869	n/a	n/a	0	0	0
481998	WORD	wordpools/wasnorm_wordpool_576.txt	LTP347	ltpFR2	10	3	MUSTARD	935	n/a	n/a	0	0	0
484514	WORD	wordpools/wasnorm_wordpool_576.txt	LTP347	ltpFR2	10	3	KETCHUP	771	n/a	n/a	0	0	0
487229	WORD	wordpools/wasnorm_wordpool_576.txt	LTP347	ltpFR2	10	3	HAMPER	682	n/a	n/a	0	0	0
490045	WORD	wordpools/wasnorm_wordpool_576.txt	LTP347	ltpFR2	10	3	BEAVER	109	n/a	n/a	0	0	0
492760	WORD	wordpools/wasnorm_wordpool_576.txt	LTP347	ltpFR2	10	3	SOFTBALL	1343	n/a	n/a	0	0	0
495476	WORD	wordpools/wasnorm_wordpool_576.txt	LTP347	ltpFR2	10	3	CRAB	397	n/a	n/a	0	0	0
498258	WORD	wordpools/wasnorm_wordpool_576.txt	LTP347	ltpFR2	10	3	OUTFIT	988	n/a	n/a	0	0	0
500723	WORD	wordpools/wasnorm_wordpool_576.txt	LTP347	ltpFR2	10	3	HERO	706	n/a	n/a	0	0	0
503222	WORD	wordpools/wasnorm_wordpool_576.txt	LTP347	ltpFR2	10	3	LOVER	846	n/a	n/a	0	0	0
505721	WORD	wordpools/wasnorm_wordpool_576.txt	LTP347	ltpFR2	10	3	WOMAN	1620	n/a	n/a	0	0	0
508203	WORD	wordpools/wasnorm_wordpool_576.txt	LTP347	ltpFR2	10	3	KLEENEX	782	n/a	n/a	0	0	0
510652	WORD	wordpools/wasnorm_wordpool_576.txt	LTP347	ltpFR2	10	3	WAGON	1578	n/a	n/a	0	0	0
513434	WORD	wordpools/wasnorm_wordpool_576.txt	LTP347	ltpFR2	10	3	TERMITE	1451	n/a	n/a	0	0	0
516249	WORD	wordpools/wasnorm_wordpool_576.txt	LTP347	ltpFR2	10	3	COCOON	339	n/a	n/a	0	0	0
518765	WORD	wordpools/wasnorm_wordpool_576.txt	LTP347	ltpFR2	10	3	IDOL	733	n/a	n/a	0	0	0
521414	WORD	wordpools/wasnorm_wordpool_576.txt	LTP347	ltpFR2	10	3	TABLE	1426	n/a	n/a	0	0	0
524096	WORD	wordpools/wasnorm_wordpool_576.txt	LTP347	ltpFR2	10	3	VELVET	1555	n/a	n/a	0	0	0
526528	WORD	wordpools/wasnorm_wordpool_576.txt	LTP347	ltpFR2	10	3	BEEF	113	n/a	n/a	0	0	0
529127	WORD	wordpools/wasnorm_wordpool_576.txt	LTP347	ltpFR2	10	3	LABEL	790	n/a	n/a	0	0	0
531709	WORD	wordpools/wasnorm_wordpool_576.txt	LTP347	ltpFR2	10	3	PAIL	1002	n/a	n/a	0	0	0
533325	START	n/a	LTP347	ltpFR2	10	n/a	n/a	n/a	5	n/a	n/a	n/a	n/a
534387	DISTRACTOR	n/a	LTP347	ltpFR2	10	3	n/a	n/a	n/a	n/a	0	0	0
534391	PROB	n/a	LTP347	ltpFR2	10	n/a	n/a	n/a	5	12	2	5	5
535507	PROB	n/a	LTP347	ltpFR2	10	n/a	n/a	n/a	5	1	2	6	2
536891	PROB	n/a	LTP347	ltpFR2	10	n/a	n/a	n/a	5	18	6	9	3
539073	PROB	n/a	LTP347	ltpFR2	10	n/a	n/a	n/a	5	10	1	1	8
540139	PROB	n/a	LTP347	ltpFR2	10	n/a	n/a	n/a	5	21	5	7	9
542604	PROB	n/a	LTP347	ltpFR2	10	n/a	n/a	n/a	5	11	7	3	1
543720	PROB	n/a	LTP347	ltpFR2	10	n/a	n/a	n/a	5	6	2	2	2
544837	PROB	n/a	LTP347	ltpFR2	10	n/a	n/a	n/a	5	11	1	4	7
546219	PROB	n/a	LTP347	ltpFR2	10	n/a	n/a	n/a	5	15	4	5	6
547535	PROB	n/a	LTP347	ltpFR2	10	n/a	n/a	n/a	5	13	7	4	2
548801	PROB	n/a	LTP347	ltpFR2	10	n/a	n/a	n/a	5	14	6	7	1
550617	PROB	n/a	LTP347	ltpFR2	10	n/a	n/a	n/a	5	18	5	5	8
551783	PROB	n/a	LTP347	ltpFR2	10	n/a	n/a	n/a	5	21	8	5	8
554049	PROB	n/a	LTP347	ltpFR2	10	n/a	n/a	n/a	5	3	1	1	1
554982	PROB	n/a	LTP347	ltpFR2	10	n/a	n/a	n/a	5	23	9	9	5
556413	STOP	n/a	LTP347	ltpFR2	10	n/a	n/a	n/a	5	n/a	n/a	n/a	n/a
559247	REC_START	n/a	LTP347	ltpFR2	10	3	n/a	n/a	n/a	n/a	0	0	0
559433	REC_WORD	wordpools/wasnorm_wordpool_576.txt	LTP347	ltpFR2	10	3	VELVET	1555	n/a	n/a	0	0	0
560112	REC_WORD	wordpools/wasnorm_wordpool_576.txt	LTP347	ltpFR2	10	3	BEEF	113	n/a	n/a	0	0	0
561133	REC_WORD	wordpools/wasnorm_wordpool_576.txt	LTP347	ltpFR2	10	3	LABYRINTH	791	n/a	n/a	0	0	0
562057	REC_WORD	wordpools/wasnorm_wordpool_576.txt	LTP347	ltpFR2	10	3	PAIL	1002	n/a	n/a	0	0	0
568164	REC_WORD	wordpools/wasnorm_wordpool_576.txt	LTP347	ltpFR2	10	3	RACKET	1155	n/a	n/a	0	0	0
568708	REC_WORD	wordpools/wasnorm_wordpool_576.txt	LTP347	ltpFR2	10	3	COUNTY	389	n/a	n/a	0	0	0
572038	REC_WORD	wordpools/wasnorm_wordpool_576.txt	LTP347	ltpFR2	10	3	TOURIST	1488	n/a	n/a	0	0	0
573218	REC_WORD	wordpools/wasnorm_wordpool_576.txt	LTP347	ltpFR2	10	3	MARINE	869	n/a	n/a	0	0	0
574580	REC_WORD	wordpools/wasnorm_wordpool_576.txt	LTP347	ltpFR2	10	3	MUSTARD	935	n/a	n/a	0	0	0
575191	REC_WORD	wordpools/wasnorm_wordpool_576.txt	LTP347	ltpFR2	10	3	KETCHUP	771	n/a	n/a	0	0	0
575643	REC_WORD	wordpools/wasnorm_wordpool_576.txt	LTP347	ltpFR2	10	3	HAMPER	682	n/a	n/a	0	0	0
576787	REC_WORD	wordpools/wasnorm_wordpool_576.txt	LTP347	ltpFR2	10	3	BEAVER	109	n/a	n/a	0	0	0
577179	REC_WORD	wordpools/wasnorm_wordpool_576.txt	LTP347	ltpFR2	10	3	SOFTBALL	1343	n/a	n/a	0	0	0
578029	REC_WORD	wordpools/wasnorm_wordpool_576.txt	LTP347	ltpFR2	10	3	CRAB	397	n/a	n/a	0	0	0
579165	REC_WORD	wordpools/wasnorm_wordpool_576.txt	LTP347	ltpFR2	10	3	OUTFIT	988	n/a	n/a	0	0	0
581422	REC_WORD	wordpools/wasnorm_wordpool_576.txt	LTP347	ltpFR2	10	3	LOVER	846	n/a	n/a	0	0	0
584656	REC_WORD	wordpools/wasnorm_wordpool_576.txt	LTP347	ltpFR2	10	3	WOMAN	1620	n/a	n/a	0	0	0
587513	REC_WORD	wordpools/wasnorm_wordpool_576.txt	LTP347	ltpFR2	10	3	KLEENEX	782	n/a	n/a	0	0	0
589949	REC_WORD	wordpools/wasnorm_wordpool_576.txt	LTP347	ltpFR2	10	3	WAGON	1578	n/a	n/a	0	0	0
591820	REC_WORD	wordpools/wasnorm_wordpool_576.txt	LTP347	ltpFR2	10	3	TERMITE	1451	n/a	n/a	0	0	0
592749	REC_WORD	wordpools/wasnorm_wordpool_576.txt	LTP347	ltpFR2	10	3	MOUND	-1	n/a	n/a	0	0	0
594215	REC_WORD	wordpools/wasnorm_wordpool_576.txt	LTP347	ltpFR2	10	3	IDOL	733	n/a	n/a	0	0	0
595388	REC_WORD	wordpools/wasnorm_wordpool_576.txt	LTP347	ltpFR2	10	3	TABLE	1426	n/a	n/a	0	0	0
649689	DISTRACTOR	n/a	LTP347	ltpFR2	10	4	n/a	n/a	n/a	n/a	0	0	0
649689	START	n/a	LTP347	ltpFR2	10	n/a	n/a	n/a	6	n/a	n/a	n/a	n/a
649706	PROB	n/a	LTP347	ltpFR2	10	n/a	n/a	n/a	6	14	5	6	3
651088	PROB	n/a	LTP347	ltpFR2	10	n/a	n/a	n/a	6	21	6	6	9
652972	PROB	n/a	LTP347	ltpFR2	10	n/a	n/a	n/a	6	15	9	4	2
654320	PROB	n/a	LTP347	ltpFR2	10	n/a	n/a	n/a	6	16	6	1	9
655386	PROB	n/a	LTP347	ltpFR2	10	n/a	n/a	n/a	6	13	9	3	1
656836	PROB	n/a	LTP347	ltpFR2	10	n/a	n/a	n/a	6	11	4	1	6
658135	PROB	n/a	LTP347	ltpFR2	10	n/a	n/a	n/a	6	17	8	6	3
660034	PROB	n/a	LTP347	ltpFR2	10	n/a	n/a	n/a	6	14	1	6	7
661600	PROB	n/a	LTP347	ltpFR2	10	n/a	n/a	n/a	6	9	1	2	6
662884	PROB	n/a	LTP347	ltpFR2	10	n/a	n/a	n/a	6	22	5	9	8
664499	PROB	n/a	LTP347	ltpFR2	10	n/a	n/a	n/a	6	20	6	8	6
665848	PROB	n/a	LTP347	ltpFR2	10	n/a	n/a	n/a	6	16	9	1	6
667264	PROB	n/a	LTP347	ltpFR2	10	n/a	n/a	n/a	6	18	6	7	5
669297	PROB	n/a	LTP347	ltpFR2	10	n/a	n/a	n/a	6	18	8	6	4
670480	PROB	n/a	LTP347	ltpFR2	10	n/a	n/a	n/a	6	11	4	3	4
672012	PROB	n/a	LTP347	ltpFR2	10	n/a	n/a	n/a	6	16	8	5	4
673504	STOP	n/a	LTP347	ltpFR2	10	n/a	n/a	n/a	6	n/a	n/a	n/a	n/a
674628	WORD	wordpools/wasnorm_wordpool_576.txt	LTP347	ltpFR2	10	4	CLOCK	325	n/a	n/a	0	0	0
677160	WORD	wordpools/wasnorm_wordpool_576.txt	LTP347	ltpFR2	10	4	TABLET	1427	n/a	n/a	0	0	0
679893	WORD	wordpools/wasnorm_wordpool_576.txt	LTP347	ltpFR2	10	4	CARRIAGE	248	n/a	n/a	0	0	0
682607	WORD	wordpools/wasnorm_wordpool_576.txt	LTP347	ltpFR2	10	4	CROSS	413	n/a	n/a	0	0	0
685256	WORD	wordpools/wasnorm_wordpool_576.txt	LTP347	ltpFR2	10	4	CATTLE	261	n/a	n/a	0	0	0
687822	WORD	wordpools/wasnorm_wordpool_576.txt	LTP347	ltpFR2	10	4	LUNCH	849	n/a	n/a	0	0	0
690487	WORD	wordpools/wasnorm_wordpool_576.txt	LTP347	ltpFR2	10	4	CRITIC	410	n/a	n/a	0	0	0
693269	WORD	wordpools/wasnorm_wordpool_576.txt	LTP347	ltpFR2	10	4	PREACHER	1119	n/a	n/a	0	0	0
695751	WORD	wordpools/wasnorm_wordpool_576.txt	LTP347	ltpFR2	10	4	CURTAIN	427	n/a	n/a	0	0	0
698200	WORD	wordpools/wasnorm_wordpool_576.txt	LTP347	ltpFR2	10	4	DIME	466	n/a	n/a	0	0	0
700950	WORD	wordpools/wasnorm_wordpool_576.txt	LTP347	ltpFR2	10	4	MEDAL	885	n/a	n/a	0	0	0
703531	WORD	wordpools/wasnorm_wordpool_576.txt	LTP347	ltpFR2	10	4	POET	1095	n/a	n/a	0	0	0
706180	WORD	wordpools/wasnorm_wordpool_576.txt	LTP347	ltpFR2	10	4	RELISH	1183	n/a	n/a	0	0	0
708996	WORD	wordpools/wasnorm_wordpool_576.txt	LTP347	ltpFR2	10	4	YOLK	1633	n/a	n/a	0	0	0
711761	WORD	wordpools/wasnorm_wordpool_576.txt	LTP347	ltpFR2	10	4	PIANO	1057	n/a	n/a	0	0	0
714560	WORD	wordpools/wasnorm_wordpool_576.txt	LTP347	ltpFR2	10	4	MOTOR	922	n/a	n/a	0	0	0
717358	WORD	wordpools/wasnorm_wordpool_576.txt	LTP347	ltpFR2	10	4	MONEY	908	n/a	n/a	0	0	0
720057	WORD	wordpools/wasnorm_wordpool_576.txt	LTP347	ltpFR2	10	4	SADDLE	1221	n/a	n/a	0	0	0
722773	WORD	wordpools/wasnorm_wordpool_576.txt	LTP347	ltpFR2	10	4	TROUT	1511	n/a	n/a	0	0	0
725505	WORD	wordpools/wasnorm_wordpool_576.txt	LTP347	ltpFR2	10	4	FLIPPER	580	n/a	n/a	0	0	0
728154	WORD	wordpools/wasnorm_wordpool_576.txt	LTP347	ltpFR2	10	4	WORKER	1621	n/a	n/a	0	0	0
730752	WORD	wordpools/wasnorm_wordpool_576.txt	LTP347	ltpFR2	10	4	THRONE	1461	n/a	n/a	0	0	0
733368	WORD	wordpools/wasnorm_wordpool_576.txt	LTP347	ltpFR2	10	4	BANJO	82	n/a	n/a	0	0	0
735918	WORD	wordpools/wasnorm_wordpool_576.txt	LTP347	ltpFR2	10	4	CONCERT	360	n/a	n/a	0	0	0
737533	START	n/a	LTP347	ltpFR2	10	n/a	n/a	n/a	7	n/a	n/a	n/a	n/a
738702	DISTRACTOR	n/a	LTP347	ltpFR2	10	4	n/a	n/a	n/a	n/a	0	0	0
738715	PROB	n/a	LTP347	ltpFR2	10	n/a	n/a	n/a	7	8	1	2	5
739832	PROB	n/a	LTP347	ltpFR2	10	n/a	n/a	n/a	7	15	7	5	3
740899	PROB	n/a	LTP347	ltpFR2	10	n/a	n/a	n/a	7	11	3	2	6
742280	PROB	n/a	LTP347	ltpFR2	10	n/a	n/a	n/a	7	13	7	5	2
743947	PROB	n/a	LTP347	ltpFR2	10	n/a	n/a	n/a	7	18	9	7	2
745845	PROB	n/a	LTP347	ltpFR2	10	n/a	n/a	n/a	7	10	3	2	5
746963	PROB	n/a	LTP347	ltpFR2	10	n/a	n/a	n/a	7	14	1	4	9
748261	PROB	n/a	LTP347	ltpFR2	10	n/a	n/a	n/a	7	15	1	5	9
749244	PROB	n/a	LTP347	ltpFR2	10	n/a	n/a	n/a	7	6	1	4	1
750410	PROB	n/a	LTP347	ltpFR2	10	n/a	n/a	n/a	7	15	2	9	4
751726	PROB	n/a	LTP347	ltpFR2	10	n/a	n/a	n/a	7	7	2	4	1
753142	PROB	n/a	LTP347	ltpFR2	10	n/a	n/a	n/a	7	14	8	5	1
754741	PROB	n/a	LTP347	ltpFR2	10	n/a	n/a	n/a	7	8	2	1	4
755858	PROB	n/a	LTP347	ltpFR2	10	n/a	n/a	n/a	7	13	6	1	6
757440	PROB	n/a	LTP347	ltpFR2	10	n/a	n/a	n/a	7	17	8	2	7
759406	PROB	n/a	LTP347	ltpFR2	10	n/a	n/a	n/a	7	11	3	7	1
760587	STOP	n/a	LTP347	ltpFR2	10	n/a	n/a	n/a	7	n/a	n/a	n/a	n/a
763288	REC_START	n/a	LTP347	ltpFR2	10	4	n/a	n/a	n/a	n/a	0	0	0
763427	REC_WORD	wordpools/wasnorm_wordpool_576.txt	LTP347	ltpFR2	10	4	WORKER	1621	n/a	n/a	0	0	0
763901	REC_WORD	wordpools/wasnorm_wordpool_576.txt	LTP347	ltpFR2	10	4	THRONE	1461	n/a	n/a	0	0	0
764955	REC_WORD	wordpools/wasnorm_wordpool_576.txt	LTP347	ltpFR2	10	4	BANJO	82	n/a	n/a	0	0	0
765779	REC_WORD	wordpools/wasnorm_wordpool_576.txt	LTP347	ltpFR2	10	4	CONCERT	360	n/a	n/a	0	0	0
769382	REC_WORD	wordpools/wasnorm_wordpool_576.txt	LTP347	ltpFR2	10	4	CLOCK	325	n/a	n/a	0	0	0
770145	REC_WORD	wordpools/wasnorm_wordpool_576.txt	LTP347	ltpFR2	10	4	TABLET	1427	n/a	n/a	0	0	0
771515	REC_WORD	wordpools/wasnorm_wordpool_576.txt	LTP347	ltpFR2	10	4	CARRIAGE	248	n/a	n/a	0	0	0
773677	REC_WORD	wordpools/wasnorm_wordpool_576.txt	LTP347	ltpFR2	10	4	CROSS	413	n/a	n/a	0	0	0
775388	REC_WORD	wordpools/wasnorm_wordpool_576.txt	LTP347	ltpFR2	10	4	CATTLE	261	n/a	n/a	0	0	0
776587	REC_WORD	wordpools/wasnorm_wordpool_576.txt	LTP347	ltpFR2	10	4	LUNCH	849	n/a	n/a	0	0	0
778017	REC_WORD	wordpools/wasnorm_wordpool_576.txt	LTP347	ltpFR2	10	4	CRITIC	410	n/a	n/a	0	0	0
780575	REC_WORD	wordpools/wasnorm_wordpool_576.txt	LTP347	ltpFR2	10	4	PRIEST	1122	n/a	n/a	0	0	0
782030	REC_WORD	wordpools/wasnorm_wordpool_576.txt	LTP347	ltpFR2	10	4	DIME	466	n/a	n/a	0	0	0
783243	REC_WORD	wordpools/wasnorm_wordpool_576.txt	LTP347	ltpFR2	10	4	MEDAL	885	n/a	n/a	0	0	0
784835	REC_WORD	wordpools/wasnorm_wordpool_576.txt	LTP347	ltpFR2	10	4	CURTAIN	427	n/a	n/a	0	0	0
788452	REC_WORD	wordpools/wasnorm_wordpool_576.txt	LTP347	ltpFR2	10	4	POET	1095	n/a	n/a	0	0	0
791813	REC_WORD	wordpools/wasnorm_wordpool_576.txt	LTP347	ltpFR2	10	4	YOLK	1633	n/a	n/a	0	0	0
793814	REC_WORD	wordpools/wasnorm_wordpool_576.txt	LTP347	ltpFR2	10	4	PIANO	1057	n/a	n/a	0	0	0
797772	REC_WORD	wordpools/wasnorm_wordpool_576.txt	LTP347	ltpFR2	10	4	MOTOR	922	n/a	n/a	0	0	0
798942	REC_WORD	wordpools/wasnorm_wordpool_576.txt	LTP347	ltpFR2	10	4	SADDLE	1221	n/a	n/a	0	0	0
800031	REC_WORD	wordpools/wasnorm_wordpool_576.txt	LTP347	ltpFR2	10	4	TROUT	1511	n/a	n/a	0	0	0
801061	REC_WORD	wordpools/wasnorm_wordpool_576.txt	LTP347	ltpFR2	10	4	FLIPPER	580	n/a	n/a	0	0	0
820471	REC_WORD	wordpools/wasnorm_wordpool_576.txt	LTP347	ltpFR2	10	4	MONEY	908	n/a	n/a	0	0	0
853747	WORD	wordpools/wasnorm_wordpool_576.txt	LTP347	ltpFR2	10	5	SALAD	1224	n/a	n/a	0	0	0
856579	WORD	wordpools/wasnorm_wordpool_576.txt	LTP347	ltpFR2	10	5	GARDEN	623	n/a	n/a	0	0	0
859111	WORD	wordpools/wasnorm_wordpool_576.txt	LTP347	ltpFR2	10	5	HORNET	718	n/a	n/a	0	0	0
861927	WORD	wordpools/wasnorm_wordpool_576.txt	LTP347	ltpFR2	10	5	PERCH	1048	n/a	n/a	0	0	0
864475	WORD	wordpools/wasnorm_wordpool_576.txt	LTP347	ltpFR2	10	5	DUST	508	n/a	n/a	0	0	0
867107	WORD	wordpools/wasnorm_wordpool_576.txt	LTP347	ltpFR2	10	5	CAMEL	223	n/a	n/a	0	0	0
869773	WORD	wordpools/wasnorm_wordpool_576.txt	LTP347	ltpFR2	10	5	BELLY	119	n/a	n/a	0	0	0
872388	WORD	wordpools/wasnorm_wordpool_576.txt	LTP347	ltpFR2	10	5	ARM	38	n/a	n/a	0	0	0
875020	WORD	wordpools/wasnorm_wordpool_576.txt	LTP347	ltpFR2	10	5	GLOVE	642	n/a	n/a	0	0	0
877636	WORD	wordpools/wasnorm_wordpool_576.txt	LTP347	ltpFR2	10	5	BALLOON	75	n/a	n/a	0	0	0
880418	WORD	wordpools/wasnorm_wordpool_576.txt	LTP347	ltpFR2	10	5	ROBIN	1199	n/a	n/a	0	0	0
882868	WORD	wordpools/wasnorm_wordpool_576.txt	LTP347	ltpFR2	10	5	COMET	353	n/a	n/a	0	0	0
885699	WORD	wordpools/wasnorm_wordpool_576.txt	LTP347	ltpFR2	10	5	SPONGE	1355	n/a	n/a	0	0	0
888181	WORD	wordpools/wasnorm_wordpool_576.txt	LTP347	ltpFR2	10	5	CONTRACT	368	n/a	n/a	0	0	0
890697	WORD	wordpools/wasnorm_wordpool_576.txt	LTP347	ltpFR2	10	5	ULCER	1533	n/a	n/a	0	0	0
893229	WORD	wordpools/wasnorm_wordpool_576.txt	LTP347	ltpFR2	10	5	PASSAGE	1019	n/a	n/a	0	0	0
895678	WORD	wordpools/wasnorm_wordpool_576.txt	LTP347	ltpFR2	10	5	GRIZZLY	662	n/a	n/a	0	0	0
898310	WORD	wordpools/wasnorm_wordpool_576.txt	LTP347	ltpFR2	10	5	OZONE	996	n/a	n/a	0	0	0
901059	WORD	wordpools/wasnorm_wordpool_576.txt	LTP347	ltpFR2	10	5	CIGAR	308	n/a	n/a	0	0	0
903641	WORD	wordpools/wasnorm_wordpool_576.txt	LTP347	ltpFR2	10	5	CORAL	378	n/a	n/a	0	0	0
906273	WORD	wordpools/wasnorm_wordpool_576.txt	LTP347	ltpFR2	10	5	EAGLE	512	n/a	n/a	0	0	0
909038	WORD	wordpools/wasnorm_wordpool_576.txt	LTP347	ltpFR2	10	5	SPARROW	1347	n/a	n/a	0	0	0
911587	WORD	wordpools/wasnorm_wordpool_576.txt	LTP347	ltpFR2	10	5	TOMBSTONE	1478	n/a	n/a	0	0	0
914103	WORD	wordpools/wasnorm_wordpool_576.txt	LTP347	ltpFR2	10	5	PIZZA	1079	n/a	n/a	0	0	0
915719	START	n/a	LTP347	ltpFR2	10	n/a	n/a	n/a	8	n/a	n/a	n/a	n/a
916638	DISTRACTOR	n/a	LTP347	ltpFR2	10	5	n/a	n/a	n/a	n/a	0	0	0
916651	PROB	n/a	LTP347	ltpFR2	10	n/a	n/a	n/a	8	15	4	5	6
917834	PROB	n/a	LTP347	ltpFR2	10	n/a	n/a	n/a	8	10	5	3	2
919117	PROB	n/a	LTP347	ltpFR2	10	n/a	n/a	n/a	8	9	6	1	2
920050	PROB	n/a	LTP347	ltpFR2	10	n/a	n/a	n/a	8	11	4	3	4
921699	PROB	n/a	LTP347	ltpFR2	10	n/a	n/a	n/a	8	18	9	8	1
922849	PROB	n/a	LTP347	ltpFR2	10	n/a	n/a	n/a	8	17	6	4	7
924265	PROB	n/a	LTP347	ltpFR2	10	n/a	n/a	n/a	8	11	4	5	2
925664	PROB	n/a	LTP347	ltpFR2	10	n/a	n/a	n/a	8	13	3	6	4
927047	PROB	n/a	LTP347	ltpFR2	10	n/a	n/a	n/a	8	19	2	8	9
928379	PROB	n/a	LTP347	ltpFR2	10	n/a	n/a	n/a	8	16	9	2	5
929979	PROB	n/a	LTP347	ltpFR2	10	n/a	n/a	n/a	8	12	7	3	2
931328	PROB	n/a	LTP347	ltpFR2	10	n/a	n/a	n/a	8	14	1	6	7
932844	PROB	n/a	LTP347	ltpFR2	10	n/a	n/a	n/a	8	17	5	9	3
934993	PROB	n/a	LTP347	ltpFR2	10	n/a	n/a	n/a	8	17	6	5	6
936309	PROB	n/a	LTP347	ltpFR2	10	n/a	n/a	n/a	8	11	5	5	1
937392	PROB	n/a	LTP347	ltpFR2	10	n/a	n/a	n/a	8	13	9	1	3
938890	STOP	n/a	LTP347	ltpFR2	10	n/a	n/a	n/a	8	n/a	n/a	n/a	n/a
941624	REC_START	n/a	LTP347	ltpFR2	10	5	n/a	n/a	n/a	n/a	0	0	0
942205	REC_WORD	wordpools/wasnorm_wordpool_576.txt	LTP347	ltpFR2	10	5	PIZZA	1079	n/a	n/a	0	0	0
946192	REC_WORD	wordpools/wasnorm_wordpool_576.txt	LTP347	ltpFR2	10	5	SALAD	1224	n/a	n/a	0	0	0
947131	REC_WORD	wordpools/wasnorm_wordpool_576.txt	LTP347	ltpFR2	10	5	GARDEN	623	n/a	n/a	0	0	0
947979	REC_WORD	wordpools/wasnorm_wordpool_576.txt	LTP347	ltpFR2	10	5	HORNET	718	n/a	n/a	0	0	0
948925	REC_WORD	wordpools/wasnorm_wordpool_576.txt	LTP347	ltpFR2	10	5	PERCH	1048	n/a	n/a	0	0	0
952142	REC_WORD	wordpools/wasnorm_wordpool_576.txt	LTP347	ltpFR2	10	5	DUST	508	n/a	n/a	0	0	0
953131	REC_WORD	wordpools/wasnorm_wordpool_576.txt	LTP347	ltpFR2	10	5	CAMEL	223	n/a	n/a	0	0	0
954426	REC_WORD	wordpools/wasnorm_wordpool_576.txt	LTP347	ltpFR2	10	5	BELLY	119	n/a	n/a	0	0	0
955843	REC_WORD	wordpools/wasnorm_wordpool_576.txt	LTP347	ltpFR2	10	5	ARM	38	n/a	n/a	0	0	0
957072	REC_WORD	wordpools/wasnorm_wordpool_576.txt	LTP347	ltpFR2	10	5	GLOVE	642	n/a	n/a	0	0	0
957667	REC_WORD	wordpools/wasnorm_wordpool_576.txt	LTP347	ltpFR2	10	5	BALLOON	75	n/a	n/a	0	0	0
958378	REC_WORD	wordpools/wasnorm_wordpool_576.txt	LTP347	ltpFR2	10	5	SPARROW	1347	n/a	n/a	0	0	0
960174	REC_WORD	wordpools/wasnorm_wordpool_576.txt	LTP347	ltpFR2	10	5	SPONGE	1355	n/a	n/a	0	0	0
961704	REC_WORD	wordpools/wasnorm_wordpool_576.txt	LTP347	ltpFR2	10	5	CONTRACT	368	n/a	n/a	0	0	0
962537	REC_WORD	wordpools/wasnorm_wordpool_576.txt	LTP347	ltpFR2	10	5	ULCER	1533	n/a	n/a	0	0	0
963554	REC_WORD	wordpools/wasnorm_wordpool_576.txt	LTP347	ltpFR2	10	5	PASSAGE	1019	n/a	n/a	0	0	0
964492	REC_WORD	wordpools/wasnorm_wordpool_576.txt	LTP347	ltpFR2	10	5	GRIZZLY	662	n/a	n/a	0	0	0
965900	REC_WORD	wordpools/wasnorm_wordpool_576.txt	LTP347	ltpFR2	10	5	OZONE	996	n/a	n/a	0	0	0
968296	REC_WORD	wordpools/wasnorm_wordpool_576.txt	LTP347	ltpFR2	10	5	CIGAR	308	n/a	n/a	0	0	0
969296	REC_WORD_VV	wordpools/wasnorm_wordpool_576.txt	LTP347	ltpFR2	10	5	<>	-1	n/a	n/a	0	0	0
974904	REC_WORD	wordpools/wasnorm_wordpool_576.txt	LTP347	ltpFR2	10	5	ROBIN	1199	n/a	n/a	0	0	0
976163	REC_WORD	wordpools/wasnorm_wordpool_576.txt	LTP347	ltpFR2	10	5	EAGLE	512	n/a	n/a	0	0	0
980518	REC_WORD	wordpools/wasnorm_wordpool_576.txt	LTP347	ltpFR2	10	5	TOMBSTONE	1478	n/a	n/a	0	0	0
1032049	DISTRACTOR	n/a	LTP347	ltpFR2	10	6	n/a	n/a	n/a	n/a	0	0	0
1032049	START	n/a	LTP347	ltpFR2	10	n/a	n/a	n/a	9	n/a	n/a	n/a	n/a
1032066	PROB	n/a	LTP347	ltpFR2	10	n/a	n/a	n/a	9	15	6	5	4
1032999	PROB	n/a	LTP347	ltpFR2	10	n/a	n/a	n/a	9	10	3	5	2
1034082	PROB	n/a	LTP347	ltpFR2	10	n/a	n/a	n/a	9	20	4	7	9
1035314	PROB	n/a	LTP347	ltpFR2	10	n/a	n/a	n/a	9	11	7	3	1
1036347	PROB	n/a	LTP347	ltpFR2	10	n/a	n/a	n/a	9	15	5	1	9
1037380	PROB	n/a	LTP347	ltpFR2	10	n/a	n/a	n/a	9	13	6	1	6
1038513	PROB	n/a	LTP347	ltpFR2	10	n/a	n/a	n/a	9	7	1	3	3
1039930	PROB	n/a	LTP347	ltpFR2	10	n/a	n/a	n/a	9	11	4	3	4
1041078	PROB	n/a	LTP347	ltpFR2	10	n/a	n/a	n/a	9	19	9	6	4
1042411	PROB	n/a	LTP347	ltpFR2	10	n/a	n/a	n/a	9	13	5	8	1
1043794	PROB	n/a	LTP347	ltpFR2	10	n/a	n/a	n/a	9	9	1	4	4
1044944	PROB	n/a	LTP347	ltpFR2	10	n/a	n/a	n/a	9	13	1	6	6
1046043	PROB	n/a	LTP347	ltpFR2	10	n/a	n/a	n/a	9	12	8	1	3
1047159	PROB	n/a	LTP347	ltpFR2	10	n/a	n/a	n/a	9	14	5	3	6
1049208	PROB	n/a	LTP347	ltpFR2	10	n/a	n/a	n/a	9	22	7	7	8
1051041	PROB	n/a	LTP347	ltpFR2	10	n/a	n/a	n/a	9	18	9	1	8
1052773	PROB	n/a	LTP347	ltpFR2	10	n/a	n/a	n/a	9	27	9	9	9
1054256	PROB	n/a	LTP347	ltpFR2	10	n/a	n/a	n/a	9	12	7	4	1
1055492	STOP	n/a	LTP347	ltpFR2	10	n/a	n/a	n/a	9	n/a	n/a	n/a	n/a
1056872	WORD	wordpools/wasnorm_wordpool_576.txt	LTP347	ltpFR2	10	6	DANDRUFF	439	n/a	n/a	0	0	0
1059687	WORD	wordpools/wasnorm_wordpool_576.txt	LTP347	ltpFR2	10	6	AWARD	63	n/a	n/a	0	0	0
1062419	WORD	wordpools/wasnorm_wordpool_576.txt	LTP347	ltpFR2	10	6	NAPKIN	937	n/a	n/a	0	0	0
1064902	WORD	wordpools/wasnorm_wordpool_576.txt	LTP347	ltpFR2	10	6	SUPPER	1411	n/a	n/a	0	0	0
1067500	WORD	wordpools/wasnorm_wordpool_576.txt	LTP347	ltpFR2	10	6	LADDER	793	n/a	n/a	0	0	0
1070249	WORD	wordpools/wasnorm_wordpool_576.txt	LTP347	ltpFR2	10	6	MACHINE	852	n/a	n/a	0	0	0
1072948	WORD	wordpools/wasnorm_wordpool_576.txt	LTP347	ltpFR2	10	6	BREAST	171	n/a	n/a	0	0	0
1075430	WORD	wordpools/wasnorm_wordpool_576.txt	LTP347	ltpFR2	10	6	ATOM	55	n/a	n/a	0	0	0
1078128	WORD	wordpools/wasnorm_wordpool_576.txt	LTP347	ltpFR2	10	6	TROMBONE	1508	n/a	n/a	0	0	0
1080627	WORD	wordpools/wasnorm_wordpool_576.txt	LTP347	ltpFR2	10	6	RECORD	1176	n/a	n/a	0	0	0
1083443	WORD	wordpools/wasnorm_wordpool_576.txt	LTP347	ltpFR2	10	6	CEILING	265	n/a	n/a	0	0	0
1085909	WORD	wordpools/wasnorm_wordpool_576.txt	LTP347	ltpFR2	10	6	KEEPER	769	n/a	n/a	0	0	0
1088524	WORD	wordpools/wasnorm_wordpool_576.txt	LTP347	ltpFR2	10	6	MISSILE	900	n/a	n/a	0	0	0
1091239	WORD	wordpools/wasnorm_wordpool_576.txt	LTP347	ltpFR2	10	6	MARKER	870	n/a	n/a	0	0	0
1093705	WORD	wordpools/wasnorm_wordpool_576.txt	LTP347	ltpFR2	10	6	ISLAND	745	n/a	n/a	0	0	0
1096303	WORD	wordpools/wasnorm_wordpool_576.txt	LTP347	ltpFR2	10	6	PORK	1108	n/a	n/a	0	0	0
1098802	WORD	wordpools/wasnorm_wordpool_576.txt	LTP347	ltpFR2	10	6	ROCKET	1202	n/a	n/a	0	0	0
1101334	WORD	wordpools/wasnorm_wordpool_576.txt	LTP347	ltpFR2	10	6	TYPIST	1532	n/a	n/a	0	0	0
1103951	WORD	wordpools/wasnorm_wordpool_576.txt	LTP347	ltpFR2	10	6	OFFICE	972	n/a	n/a	0	0	0
1106665	WORD	wordpools/wasnorm_wordpool_576.txt	LTP347	ltpFR2	10	6	BEAST	108	n/a	n/a	0	0	0
1109397	WORD	wordpools/wasnorm_wordpool_576.txt	LTP347	ltpFR2	10	6	SNAKE	1333	n/a	n/a	0	0	0
1112046	WORD	wordpools/wasnorm_wordpool_576.txt	LTP347	ltpFR2	10	6	GAVEL	627	n/a	n/a	0	0	0
1114545	WORD	wordpools/wasnorm_wordpool_576.txt	LTP347	ltpFR2	10	6	ROBOT	1200	n/a	n/a	0	0	0
1117294	WORD	wordpools/wasnorm_wordpool_576.txt	LTP347	ltpFR2	10	6	PATIENT	1024	n/a	n/a	0	0	0
1118911	START	n/a	LTP347	ltpFR2	10	n/a	n/a	n/a	10	n/a	n/a	n/a	n/a
1119973	DISTRACTOR	n/a	LTP347	ltpFR2	10	6	n/a	n/a	n/a	n/a	0	0	0
1119976	PROB	n/a	LTP347	ltpFR2	10	n/a	n/a	n/a	10	10	4	4	2
1121125	PROB	n/a	LTP347	ltpFR2	10	n/a	n/a	n/a	10	13	6	4	3
1122142	PROB	n/a	LTP347	ltpFR2	10	n/a	n/a	n/a	10	22	9	8	5
1123791	PROB	n/a	LTP347	ltpFR2	10	n/a	n/a	n/a	10	22	9	7	6
1127173	PROB	n/a	LTP347	ltpFR2	10	n/a	n/a	n/a	10	14	8	4	2
1128705	PROB	n/a	LTP347	ltpFR2	10	n/a	n/a	n/a	10	9	2	2	5
1129873	PROB	n/a	LTP347	ltpFR2	10	n/a	n/a	n/a	10	14	6	2	6
1131404	PROB	n/a	LTP347	ltpFR2	10	n/a	n/a	n/a	10	16	6	3	7
1132537	PROB	n/a	LTP347	ltpFR2	10	n/a	n/a	n/a	10	12	5	1	6
1133836	PROB	n/a	LTP347	ltpFR2	10	n/a	n/a	n/a	10	15	7	6	2
1135786	PROB	n/a	LTP347	ltpFR2	10	n/a	n/a	n/a	10	15	7	6	2
1136936	PROB	n/a	LTP347	ltpFR2	10	n/a	n/a	n/a	10	14	6	1	7
1138384	PROB	n/a	LTP347	ltpFR2	10	n/a	n/a	n/a	10	16	6	8	2
1139451	PROB	n/a	LTP347	ltpFR2	10	n/a	n/a	n/a	10	15	2	4	9
1140750	PROB	n/a	LTP347	ltpFR2	10	n/a	n/a	n/a	10	9	2	2	7
1142799	STOP	n/a	LTP347	ltpFR2	10	n/a	n/a	n/a	10	n/a	n/a	n/a	n/a
1144765	REC_START	n/a	LTP347	ltpFR2	10	6	n/a	n/a	n/a	n/a	0	0	0
1144820	REC_WORD	wordpools/wasnorm_wordpool_576.txt	LTP347	ltpFR2	10	6	ROCKET	1202	n/a	n/a	0	0	0
1145735	REC_WORD	wordpools/wasnorm_wordpool_576.txt	LTP347	ltpFR2	10	6	TYPIST	1532	n/a	n/a	0	0	0
1147152	REC_WORD	wordpools/wasnorm_wordpool_576.txt	LTP347	ltpFR2	10	6	OFFICE	972	n/a	n/a	0	0	0
1147983	REC_WORD	wordpools/wasnorm_wordpool_576.txt	LTP347	ltpFR2	10	6	BEAST	108	n/a	n/a	0	0	0
1148795	REC_WORD	wordpools/wasnorm_wordpool_576.txt	LTP347	ltpFR2	10	6	GAVEL	627	n/a	n/a	0	0	0
1149432	REC_WORD	wordpools/wasnorm_wordpool_576.txt	LTP347	ltpFR2	10	6	SNAKE	1333	n/a	n/a	0	0	0
1150546	REC_WORD	wordpools/wasnorm_wordpool_576.txt	LTP347	ltpFR2	10	6	ROBOT	1200	n/a	n/a	0	0	0
1153284	REC_WORD	wordpools/wasnorm_wordpool_576.txt	LTP347	ltpFR2	10	6	DANDRUFF	439	n/a	n/a	0	0	0
1153834	REC_WORD	wordpools/wasnorm_wordpool_576.txt	LTP347	ltpFR2	10	6	AWARD	63	n/a	n/a	0	0	0
1155128	REC_WORD	wordpools/wasnorm_wordpool_576.txt	LTP347	ltpFR2	10	6	NAPKIN	937	n/a	n/a	0	0	0
1158510	REC_WORD	wordpools/wasnorm_wordpool_576.txt	LTP347	ltpFR2	10	6	DINNER	468	n/a	n/a	0	0	0
1159396	REC_WORD	wordpools/wasnorm_wordpool_576.txt	LTP347	ltpFR2	10	6	LADDER	793	n/a	n/a	0	0	0
1162020	REC_WORD	wordpools/wasnorm_wordpool_576.txt	LTP347	ltpFR2	10	6	MACHINE	852	n/a	n/a	0	0	0
1163310	REC_WORD	wordpools/wasnorm_wordpool_576.txt	LTP347	ltpFR2	10	6	BREAST	171	n/a	n/a	0	0	0
1165240	REC_WORD	wordpools/wasnorm_wordpool_576.txt	LTP347	ltpFR2	10	6	TROMBONE	1508	n/a	n/a	0	0	0
1166724	REC_WORD	wordpools/wasnorm_wordpool_576.txt	LTP347	ltpFR2	10	6	RECORD	1176	n/a	n/a	0	0	0
1174058	REC_WORD	wordpools/wasnorm_wordpool_576.txt	LTP347	ltpFR2	10	6	CEILING	265	n/a	n/a	0	0	0
1175194	REC_WORD	wordpools/wasnorm_wordpool_576.txt	LTP347	ltpFR2	10	6	KEEPER	769	n/a	n/a	0	0	0
1182095	REC_WORD	wordpools/wasnorm_wordpool_576.txt	LTP347	ltpFR2	10	6	ROCKET	1202	n/a	n/a	0	0	0
1182709	REC_WORD	wordpools/wasnorm_wordpool_576.txt	LTP347	ltpFR2	10	6	MISSILE	900	n/a	n/a	0	0	0
1183366	REC_WORD	wordpools/wasnorm_wordpool_576.txt	LTP347	ltpFR2	10	6	MARKER	870	n/a	n/a	0	0	0
1184590	REC_WORD	wordpools/wasnorm_wordpool_576.txt	LTP347	ltpFR2	10	6	PORK	1108	n/a	n/a	0	0	0
1193540	REC_WORD	wordpools/wasnorm_wordpool_576.txt	LTP347	ltpFR2	10	6	BASEMENT	94	n/a	n/a	0	0	0
1211221	REC_WORD	wordpools/wasnorm_wordpool_576.txt	LTP347	ltpFR2	10	6	TYPIST	1532	n/a	n/a	0	0	0
1235224	WORD	wordpools/wasnorm_wordpool_576.txt	LTP347	ltpFR2	10	7	SIDEWALK	1303	n/a	n/a	0	0	0
1238039	WORD	wordpools/wasnorm_wordpool_576.txt	LTP347	ltpFR2	10	7	ICING	732	n/a	n/a	0	0	0
1240505	WORD	wordpools/wasnorm_wordpool_576.txt	LTP347	ltpFR2	10	7	DIVER	476	n/a	n/a	0	0	0
1243203	WORD	wordpools/wasnorm_wordpool_576.txt	LTP347	ltpFR2	10	7	BATHTUB	100	n/a	n/a	0	0	0
1245752	WORD	wordpools/wasnorm_wordpool_576.txt	LTP347	ltpFR2	10	7	TURKEY	1520	n/a	n/a	0	0	0
1248201	WORD	wordpools/wasnorm_wordpool_576.txt	LTP347	ltpFR2	10	7	TUTU	1524	n/a	n/a	0	0	0
1250968	WORD	wordpools/wasnorm_wordpool_576.txt	LTP347	ltpFR2	10	7	LODGE	839	n/a	n/a	0	0	0
1253549	WORD	wordpools/wasnorm_wordpool_576.txt	LTP347	ltpFR2	10	7	HIGHWAY	707	n/a	n/a	0	0	0
1256364	WORD	wordpools/wasnorm_wordpool_576.txt	LTP347	ltpFR2	10	7	BANQUET	86	n/a	n/a	0	0	0
1259196	WORD	wordpools/wasnorm_wordpool_576.txt	LTP347	ltpFR2	10	7	FLASHLIGHT	575	n/a	n/a	0	0	0
1261929	WORD	wordpools/wasnorm_wordpool_576.txt	LTP347	ltpFR2	10	7	TUNNEL	1519	n/a	n/a	0	0	0
1264461	WORD	wordpools/wasnorm_wordpool_576.txt	LTP347	ltpFR2	10	7	APPLE	33	n/a	n/a	0	0	0
1266877	WORD	wordpools/wasnorm_wordpool_576.txt	LTP347	ltpFR2	10	7	SCOTCH	1251	n/a	n/a	0	0	0
1269608	WORD	wordpools/wasnorm_wordpool_576.txt	LTP347	ltpFR2	10	7	FLASK	576	n/a	n/a	0	0	0
1272140	WORD	wordpools/wasnorm_wordpool_576.txt	LTP347	ltpFR2	10	7	BACKBONE	66	n/a	n/a	0	0	0
1274639	WORD	wordpools/wasnorm_wordpool_576.txt	LTP347	ltpFR2	10	7	ONION	977	n/a	n/a	0	0	0
1277305	WORD	wordpools/wasnorm_wordpool_576.txt	LTP347	ltpFR2	10	7	PEPPER	1047	n/a	n/a	0	0	0
1279737	WORD	wordpools/wasnorm_wordpool_576.txt	LTP347	ltpFR2	10	7	BLOCKADE	137	n/a	n/a	0	0	0
1282536	WORD	wordpools/wasnorm_wordpool_576.txt	LTP347	ltpFR2	10	7	BRAKE	166	n/a	n/a	0	0	0
1285168	WORD	wordpools/wasnorm_wordpool_576.txt	LTP347	ltpFR2	10	7	FRANCE	601	n/a	n/a	0	0	0
1287750	WORD	wordpools/wasnorm_wordpool_576.txt	LTP347	ltpFR2	10	7	EXPERT	543	n/a	n/a	0	0	0
1290449	WORD	wordpools/wasnorm_wordpool_576.txt	LTP347	ltpFR2	10	7	RIFLE	1192	n/a	n/a	0	0	0
1293198	WORD	wordpools/wasnorm_wordpool_576.txt	LTP347	ltpFR2	10	7	SHORTCAKE	1292	n/a	n/a	0	0	0
1295780	WORD	wordpools/wasnorm_wordpool_576.txt	LTP347	ltpFR2	10	7	BUTCHER	203	n/a	n/a	0	0	0
1297396	START	n/a	LTP347	ltpFR2	10	n/a	n/a	n/a	11	n/a	n/a	n/a	n/a
1298254	DISTRACTOR	n/a	LTP347	ltpFR2	10	7	n/a	n/a	n/a	n/a	0	0	0
1298262	PROB	n/a	LTP347	ltpFR2	10	n/a	n/a	n/a	11	8	2	1	5
1299428	PROB	n/a	LTP347	ltpFR2	10	n/a	n/a	n/a	11	15	4	7	2
1300895	PROB	n/a	LTP347	ltpFR2	10	n/a	n/a	n/a	11	11	1	5	5
1302027	PROB	n/a	LTP347	ltpFR2	10	n/a	n/a	n/a	11	9	6	1	2
1303210	PROB	n/a	LTP347	ltpFR2	10	n/a	n/a	n/a	11	19	4	9	6
1304459	PROB	n/a	LTP347	ltpFR2	10	n/a	n/a	n/a	11	13	1	3	9
1305675	PROB	n/a	LTP347	ltpFR2	10	n/a	n/a	n/a	11	17	9	3	5
1307658	PROB	n/a	LTP347	ltpFR2	10	n/a	n/a	n/a	11	15	5	3	7
1309157	PROB	n/a	LTP347	ltpFR2	10	n/a	n/a	n/a	11	19	8	7	4
1310440	PROB	n/a	LTP347	ltpFR2	10	n/a	n/a	n/a	11	19	6	8	5
1312256	PROB	n/a	LTP347	ltpFR2	10	n/a	n/a	n/a	11	23	8	7	8
1315171	PROB	n/a	LTP347	ltpFR2	10	n/a	n/a	n/a	11	9	2	2	5
1316187	PROB	n/a	LTP347	ltpFR2	10	n/a	n/a	n/a	11	14	4	7	3
1317453	PROB	n/a	LTP347	ltpFR2	10	n/a	n/a	n/a	11	15	6	8	1
1320589	STOP	n/a	LTP347	ltpFR2	10	n/a	n/a	n/a	11	n/a	n/a	n/a	n/a
1323201	REC_START	n/a	LTP347	ltpFR2	10	7	n/a	n/a	n/a	n/a	0	0	0
1323361	REC_WORD	wordpools/wasnorm_wordpool_576.txt	LTP347	ltpFR2	10	7	SHORTCAKE	1292	n/a	n/a	0	0	0
1324250	REC_WORD	wordpools/wasnorm_wordpool_576.txt	LTP347	ltpFR2	10	7	BUTCHER	203	n/a	n/a	0	0	0
1324617	REC_WORD	wordpools/wasnorm_wordpool_576.txt	LTP347	ltpFR2	10	7	FRANCE	601	n/a	n/a	0	0	0
1325293	REC_WORD	wordpools/wasnorm_wordpool_576.txt	LTP347	ltpFR2	10	7	EXPERT	543	n/a	n/a	0	0	0
1325744	REC_WORD	wordpools/wasnorm_wordpool_576.txt	LTP347	ltpFR2	10	7	RIFLE	1192	n/a	n/a	0	0	0
1326419	REC_WORD	wordpools/wasnorm_wordpool_576.txt	LTP347	ltpFR2	10	7	BRAKE	166	n/a	n/a	0	0	0
1326830	REC_WORD	wordpools/wasnorm_wordpool_576.txt	LTP347	ltpFR2	10	7	BLOCKADE	137	n/a	n/a	0	0	0
1331388	REC_WORD	wordpools/wasnorm_wordpool_576.txt	LTP347	ltpFR2	10	7	SIDEWALK	1303	n/a	n/a	0	0	0
1332141	REC_WORD	wordpools/wasnorm_wordpool_576.txt	LTP347	ltpFR2	10	7	ICING	732	n/a	n/a	0	0	0
1333343	REC_WORD	wordpools/wasnorm_wordpool_576.txt	LTP347	ltpFR2	10	7	TURKEY	1520	n/a	n/a	0	0	0
1333882	REC_WORD	wordpools/wasnorm_wordpool_576.txt	LTP347	ltpFR2	10	7	TUTU	1524	n/a	n/a	0	0	0
1334574	REC_WORD	wordpools/wasnorm_wordpool_576.txt	LTP347	ltpFR2	10	7	DIVER	476	n/a	n/a	0	0	0
1336173	REC_WORD	wordpools/wasnorm_wordpool_576.txt	LTP347	ltpFR2	10	7	HIGHWAY	707	n/a	n/a	0	0	0
1337491	REC_WORD	wordpools/wasnorm_wordpool_576.txt	LTP347	ltpFR2	10	7	LODGE	839	n/a	n/a	0	0	0
1338443	REC_WORD	wordpools/wasnorm_wordpool_576.txt	LTP347	ltpFR2	10	7	BANQUET	86	n/a	n/a	0	0	0
1339947	REC_WORD	wordpools/wasnorm_wordpool_576.txt	LTP347	ltpFR2	10	7	FLASHLIGHT	575	n/a	n/a	0	0	0
1341083	REC_WORD	wordpools/wasnorm_wordpool_576.txt	LTP347	ltpFR2	10	7	TUNNEL	1519	n/a	n/a	0	0	0
1342282	REC_WORD	wordpools/wasnorm_wordpool_576.txt	LTP347	ltpFR2	10	7	APPLE	33	n/a	n/a	0	0	0
1342732	REC_WORD	wordpools/wasnorm_wordpool_576.txt	LTP347	ltpFR2	10	7	SCOTCH	1251	n/a	n/a	0	0	0
1343708	REC_WORD	wordpools/wasnorm_wordpool_576.txt	LTP347	ltpFR2	10	7	FLASK	576	n/a	n/a	0	0	0
1347744	REC_WORD	wordpools/wasnorm_wordpool_576.txt	LTP347	ltpFR2	10	7	BACKBONE	66	n/a	n/a	0	0	0
1348675	REC_WORD	wordpools/wasnorm_wordpool_576.txt	LTP347	ltpFR2	10	7	PEPPER	1047	n/a	n/a	0	0	0
1413660	WORD	wordpools/wasnorm_wordpool_576.txt	LTP347	ltpFR2	10	8	WHISKERS	1605	n/a	n/a	0	0	0
1416358	WORD	wordpools/wasnorm_wordpool_576.txt	LTP347	ltpFR2	10	8	SLIDE	1326	n/a	n/a	0	0	0
1419041	WORD	wordpools/wasnorm_wordpool_576.txt	LTP347	ltpFR2	10	8	STREAM	1392	n/a	n/a	0	0	0
1421823	WORD	wordpools/wasnorm_wordpool_576.txt	LTP347	ltpFR2	10	8	LACE	792	n/a	n/a	0	0	0
1424488	WORD	wordpools/wasnorm_wordpool_576.txt	LTP347	ltpFR2	10	8	SILK	1307	n/a	n/a	0	0	0
1427120	WORD	wordpools/wasnorm_wordpool_576.txt	LTP347	ltpFR2	10	8	SHERIFF	1284	n/a	n/a	0	0	0
1429920	WORD	wordpools/wasnorm_wordpool_576.txt	LTP347	ltpFR2	10	8	MARSH	874	n/a	n/a	0	0	0
1432484	WORD	wordpools/wasnorm_wordpool_576.txt	LTP347	ltpFR2	10	8	CLOUD	328	n/a	n/a	0	0	0
1435167	WORD	wordpools/wasnorm_wordpool_576.txt	LTP347	ltpFR2	10	8	LIZARD	834	n/a	n/a	0	0	0
1437933	WORD	wordpools/wasnorm_wordpool_576.txt	LTP347	ltpFR2	10	8	OINTMENT	974	n/a	n/a	0	0	0
1440364	WORD	wordpools/wasnorm_wordpool_576.txt	LTP347	ltpFR2	10	8	TEACHER	1440	n/a	n/a	0	0	0
1443163	WORD	wordpools/wasnorm_wordpool_576.txt	LTP347	ltpFR2	10	8	LIVER	833	n/a	n/a	0	0	0
1445978	WORD	wordpools/wasnorm_wordpool_576.txt	LTP347	ltpFR2	10	8	PAPER	1011	n/a	n/a	0	0	0
1448727	WORD	wordpools/wasnorm_wordpool_576.txt	LTP347	ltpFR2	10	8	PATROL	1027	n/a	n/a	0	0	0
1451293	WORD	wordpools/wasnorm_wordpool_576.txt	LTP347	ltpFR2	10	8	COUCH	386	n/a	n/a	0	0	0
1453942	WORD	wordpools/wasnorm_wordpool_576.txt	LTP347	ltpFR2	10	8	WRIST	1626	n/a	n/a	0	0	0
1456490	WORD	wordpools/wasnorm_wordpool_576.txt	LTP347	ltpFR2	10	8	SHOVEL	1295	n/a	n/a	0	0	0
1459072	WORD	wordpools/wasnorm_wordpool_576.txt	LTP347	ltpFR2	10	8	DRUG	501	n/a	n/a	0	0	0
1461721	WORD	wordpools/wasnorm_wordpool_576.txt	LTP347	ltpFR2	10	8	JEANS	752	n/a	n/a	0	0	0
1464337	WORD	wordpools/wasnorm_wordpool_576.txt	LTP347	ltpFR2	10	8	PARENT	1013	n/a	n/a	0	0	0
1467052	WORD	wordpools/wasnorm_wordpool_576.txt	LTP347	ltpFR2	10	8	PANTHER	1009	n/a	n/a	0	0	0
1469701	WORD	wordpools/wasnorm_wordpool_576.txt	LTP347	ltpFR2	10	8	GARLIC	624	n/a	n/a	0	0	0
1472250	WORD	wordpools/wasnorm_wordpool_576.txt	LTP347	ltpFR2	10	8	BLADE	134	n/a	n/a	0	0	0
1474982	WORD	wordpools/wasnorm_wordpool_576.txt	LTP347	ltpFR2	10	8	SPOON	1357	n/a	n/a	0	0	0
1476598	START	n/a	LTP347	ltpFR2	10	n/a	n/a	n/a	12	n/a	n/a	n/a	n/a
1477546	DISTRACTOR	n/a	LTP347	ltpFR2	10	8	n/a	n/a	n/a	n/a	0	0	0
1477547	PROB	n/a	LTP347	ltpFR2	10	n/a	n/a	n/a	12	11	2	4	3
1479497	PROB	n/a	LTP347	ltpFR2	10	n/a	n/a	n/a	12	18	3	8	7
1481930	PROB	n/a	LTP347	ltpFR2	10	n/a	n/a	n/a	12	8	6	1	1
1483012	PROB	n/a	LTP347	ltpFR2	10	n/a	n/a	n/a	12	13	1	8	4
1485494	PROB	n/a	LTP347	ltpFR2	10	n/a	n/a	n/a	12	14	4	4	6
1486860	PROB	n/a	LTP347	ltpFR2	10	n/a	n/a	n/a	12	20	9	3	8
1488877	PROB	n/a	LTP347	ltpFR2	10	n/a	n/a	n/a	12	18	7	8	3
1490242	PROB	n/a	LTP347	ltpFR2	10	n/a	n/a	n/a	12	13	5	3	5
1491458	PROB	n/a	LTP347	ltpFR2	10	n/a	n/a	n/a	12	12	3	8	1
1492840	PROB	n/a	LTP347	ltpFR2	10	n/a	n/a	n/a	12	9	5	3	1
1494123	PROB	n/a	LTP347	ltpFR2	10	n/a	n/a	n/a	12	24	8	7	9
1496306	PROB	n/a	LTP347	ltpFR2	10	n/a	n/a	n/a	12	143	9	4	1
1498238	PROB	n/a	LTP347	ltpFR2	10	n/a	n/a	n/a	12	18	1	9	8
1499546	STOP	n/a	LTP347	ltpFR2	10	n/a	n/a	n/a	12	n/a	n/a	n/a	n/a
1502353	REC_START	n/a	LTP347	ltpFR2	10	8	n/a	n/a	n/a	n/a	0	0	0
1503194	REC_WORD	wordpools/wasnorm_wordpool_576.txt	LTP347	ltpFR2	10	8	PARENT	1013	n/a	n/a	0	0	0
1503849	REC_WORD	wordpools/wasnorm_wordpool_576.txt	LTP347	ltpFR2	10	8	PANTHER	1009	n/a	n/a	0	0	0
1504683	REC_WORD	wordpools/wasnorm_wordpool_576.txt	LTP347	ltpFR2	10	8	GARLIC	624	n/a	n/a	0	0	0
1505450	REC_WORD	wordpools/wasnorm_wordpool_576.txt	LTP347	ltpFR2	10	8	BLADE	134	n/a	n/a	0	0	0
1507897	REC_WORD	wordpools/wasnorm_wordpool_576.txt	LTP347	ltpFR2	10	8	SPOON	1357	n/a	n/a	0	0	0
1512346	REC_WORD	wordpools/wasnorm_wordpool_576.txt	LTP347	ltpFR2	10	8	WHISKERS	1605	n/a	n/a	0	0	0
1513929	REC_WORD	wordpools/wasnorm_wordpool_576.txt	LTP347	ltpFR2	10	8	SLIDE	1326	n/a	n/a	0	0	0
1514859	REC_WORD	wordpools/wasnorm_wordpool_576.txt	LTP347	ltpFR2	10	8	STREAM	1392	n/a	n/a	0	0	0
1516373	REC_WORD	wordpools/wasnorm_wordpool_576.txt	LTP347	ltpFR2	10	8	SILK	1307	n/a	n/a	0	0	0
1516907	REC_WORD	wordpools/wasnorm_wordpool_576.txt	LTP347	ltpFR2	10	8	LACE	792	n/a	n/a	0	0	0
1517835	REC_WORD	wordpools/wasnorm_wordpool_576.txt	LTP347	ltpFR2	10	8	SHERIFF	1284	n/a	n/a	0	0	0
1519602	REC_WORD	wordpools/wasnorm_wordpool_576.txt	LTP347	ltpFR2	10	8	MARSH	874	n/a	n/a	0	0	0
1520350	REC_WORD	wordpools/wasnorm_wordpool_576.txt	LTP347	ltpFR2	10	8	CLOUD	328	n/a	n/a	0	0	0
1522930	REC_WORD	wordpools/wasnorm_wordpool_576.txt	LTP347	ltpFR2	10	8	LIZARD	834	n/a	n/a	0	0	0
1525112	REC_WORD	wordpools/wasnorm_wordpool_576.txt	LTP347	ltpFR2	10	8	OINTMENT	974	n/a	n/a	0	0	0
1529104	REC_WORD	wordpools/wasnorm_wordpool_576.txt	LTP347	ltpFR2	10	8	LIVER	833	n/a	n/a	0	0	0
1529689	REC_WORD	wordpools/wasnorm_wordpool_576.txt	LTP347	ltpFR2	10	8	TEACHER	1440	n/a	n/a	0	0	0
1533561	REC_WORD	wordpools/wasnorm_wordpool_576.txt	LTP347	ltpFR2	10	8	PATROL	1027	n/a	n/a	0	0	0
1535077	REC_WORD	wordpools/wasnorm_wordpool_576.txt	LTP347	ltpFR2	10	8	COUCH	386	n/a	n/a	0	0	0
1536315	REC_WORD	wordpools/wasnorm_wordpool_576.txt	LTP347	ltpFR2	10	8	PAPER	1011	n/a	n/a	0	0	0
1538399	REC_WORD	wordpools/wasnorm_wordpool_576.txt	LTP347	ltpFR2	10	8	WRIST	1626	n/a	n/a	0	0	0
1539878	REC_WORD	wordpools/wasnorm_wordpool_576.txt	LTP347	ltpFR2	10	8	SHOVEL	1295	n/a	n/a	0	0	0
1578886	REST_REWET	n/a	LTP347	ltpFR2	10	8	n/a	n/a	n/a	n/a	0	0	0
1643506	DISTRACTOR	n/a	LTP347	ltpFR2	10	9	n/a	n/a	n/a	n/a	0	0	0
1643506	START	n/a	LTP347	ltpFR2	10	n/a	n/a	n/a	13	n/a	n/a	n/a	n/a
1643522	PROB	n/a	LTP347	ltpFR2	10	n/a	n/a	n/a	13	13	5	7	1
1645105	PROB	n/a	LTP347	ltpFR2	10	n/a	n/a	n/a	13	14	9	2	3
1646754	PROB	n/a	LTP347	ltpFR2	10	n/a	n/a	n/a	13	10	3	6	1
1648070	PROB	n/a	LTP347	ltpFR2	10	n/a	n/a	n/a	13	12	1	9	2
1649086	PROB	n/a	LTP347	ltpFR2	10	n/a	n/a	n/a	13	19	4	6	9
1650153	PROB	n/a	LTP347	ltpFR2	10	n/a	n/a	n/a	13	9	2	6	1
1651319	PROB	n/a	LTP347	ltpFR2	10	n/a	n/a	n/a	13	10	7	1	2
1652651	PROB	n/a	LTP347	ltpFR2	10	n/a	n/a	n/a	13	6	1	1	4
1654734	PROB	n/a	LTP347	ltpFR2	10	n/a	n/a	n/a	13	13	2	3	8
1655868	PROB	n/a	LTP347	ltpFR2	10	n/a	n/a	n/a	13	15	4	4	7
1657532	PROB	n/a	LTP347	ltpFR2	10	n/a	n/a	n/a	13	12	6	2	4
1659448	PROB	n/a	LTP347	ltpFR2	10	n/a	n/a	n/a	13	18	4	7	7
1660798	PROB	n/a	LTP347	ltpFR2	10	n/a	n/a	n/a	13	22	9	4	9
1662430	PROB	n/a	LTP347	ltpFR2	10	n/a	n/a	n/a	13	18	1	9	8
1663397	PROB	n/a	LTP347	ltpFR2	10	n/a	n/a	n/a	13	6	4	1	1
1664413	PROB	n/a	LTP347	ltpFR2	10	n/a	n/a	n/a	13	17	2	7	8
1666735	STOP	n/a	LTP347	ltpFR2	10	n/a	n/a	n/a	13	n/a	n/a	n/a	n/a
1668328	WORD	wordpools/wasnorm_wordpool_576.txt	LTP347	ltpFR2	10	9	PEACH	1031	n/a	n/a	0	0	0
1671043	WORD	wordpools/wasnorm_wordpool_576.txt	LTP347	ltpFR2	10	9	BURGLAR	200	n/a	n/a	0	0	0
1673775	WORD	wordpools/wasnorm_wordpool_576.txt	LTP347	ltpFR2	10	9	SUSPECT	1415	n/a	n/a	0	0	0
1676391	WORD	wordpools/wasnorm_wordpool_576.txt	LTP347	ltpFR2	10	9	HAWK	692	n/a	n/a	0	0	0
1678823	WORD	wordpools/wasnorm_wordpool_576.txt	LTP347	ltpFR2	10	9	BROTHER	179	n/a	n/a	0	0	0
1681338	WORD	wordpools/wasnorm_wordpool_576.txt	LTP347	ltpFR2	10	9	PISTON	1076	n/a	n/a	0	0	0
1683955	WORD	wordpools/wasnorm_wordpool_576.txt	LTP347	ltpFR2	10	9	DENIM	446	n/a	n/a	0	0	0
1686736	WORD	wordpools/wasnorm_wordpool_576.txt	LTP347	ltpFR2	10	9	ROD	1203	n/a	n/a	0	0	0
1689551	WORD	wordpools/wasnorm_wordpool_576.txt	LTP347	ltpFR2	10	9	PARROT	1015	n/a	n/a	0	0	0
1692217	WORD	wordpools/wasnorm_wordpool_576.txt	LTP347	ltpFR2	10	9	RUST	1219	n/a	n/a	0	0	0
1694967	WORD	wordpools/wasnorm_wordpool_576.txt	LTP347	ltpFR2	10	9	TRENCH	1503	n/a	n/a	0	0	0
1697564	WORD	wordpools/wasnorm_wordpool_576.txt	LTP347	ltpFR2	10	9	TAXI	1438	n/a	n/a	0	0	0
1700263	WORD	wordpools/wasnorm_wordpool_576.txt	LTP347	ltpFR2	10	9	TRUCK	1512	n/a	n/a	0	0	0
1702779	WORD	wordpools/wasnorm_wordpool_576.txt	LTP347	ltpFR2	10	9	MARROW	872	n/a	n/a	0	0	0
1705311	WORD	wordpools/wasnorm_wordpool_576.txt	LTP347	ltpFR2	10	9	STUDENT	1395	n/a	n/a	0	0	0
1708093	WORD	wordpools/wasnorm_wordpool_576.txt	LTP347	ltpFR2	10	9	BLACKBOARD	133	n/a	n/a	0	0	0
1710609	WORD	wordpools/wasnorm_wordpool_576.txt	LTP347	ltpFR2	10	9	BOARD	143	n/a	n/a	0	0	0
1713274	WORD	wordpools/wasnorm_wordpool_576.txt	LTP347	ltpFR2	10	9	QUARTER	1148	n/a	n/a	0	0	0
1715773	WORD	wordpools/wasnorm_wordpool_576.txt	LTP347	ltpFR2	10	9	COTTAGE	384	n/a	n/a	0	0	0
1718272	WORD	wordpools/wasnorm_wordpool_576.txt	LTP347	ltpFR2	10	9	BIKE	125	n/a	n/a	0	0	0
1720905	WORD	wordpools/wasnorm_wordpool_576.txt	LTP347	ltpFR2	10	9	ROOSTER	1209	n/a	n/a	0	0	0
1723419	WORD	wordpools/wasnorm_wordpool_576.txt	LTP347	ltpFR2	10	9	SEAFOOD	1260	n/a	n/a	0	0	0
1725953	WORD	wordpools/wasnorm_wordpool_576.txt	LTP347	ltpFR2	10	9	RIVER	1194	n/a	n/a	0	0	0
1728550	WORD	wordpools/wasnorm_wordpool_576.txt	LTP347	ltpFR2	10	9	SWORD	1423	n/a	n/a	0	0	0
1730167	START	n/a	LTP347	ltpFR2	10	n/a	n/a	n/a	14	n/a	n/a	n/a	n/a
1731090	DISTRACTOR	n/a	LTP347	ltpFR2	10	9	n/a	n/a	n/a	n/a	0	0	0
1731099	PROB	n/a	LTP347	ltpFR2	10	n/a	n/a	n/a	14	16	3	9	4
1732848	PROB	n/a	LTP347	ltpFR2	10	n/a	n/a	n/a	14	10	1	4	5
1734081	PROB	n/a	LTP347	ltpFR2	10	n/a	n/a	n/a	14	20	9	7	4
1735915	PROB	n/a	LTP347	ltpFR2	10	n/a	n/a	n/a	14	18	8	5	5
1737113	PROB	n/a	LTP347	ltpFR2	10	n/a	n/a	n/a	14	13	4	1	8
1738329	PROB	n/a	LTP347	ltpFR2	10	n/a	n/a	n/a	14	143	4	8	2
1739712	PROB	n/a	LTP347	ltpFR2	10	n/a	n/a	n/a	14	14	4	7	3
1740962	PROB	n/a	LTP347	ltpFR2	10	n/a	n/a	n/a	14	6	3	1	2
1742094	PROB	n/a	LTP347	ltpFR2	10	n/a	n/a	n/a	14	16	9	5	2
1743510	PROB	n/a	LTP347	ltpFR2	10	n/a	n/a	n/a	14	1	9	2	8
1744510	PROB	n/a	LTP347	ltpFR2	10	n/a	n/a	n/a	14	17	1	7	9
1746492	PROB	n/a	LTP347	ltpFR2	10	n/a	n/a	n/a	14	16	9	4	3
1748042	PROB	n/a	LTP347	ltpFR2	10	n/a	n/a	n/a	14	18	6	9	3
1749841	PROB	n/a	LTP347	ltpFR2	10	n/a	n/a	n/a	14	19	8	9	2
1751290	PROB	n/a	LTP347	ltpFR2	10	n/a	n/a	n/a	14	19	5	7	7
1754166	STOP	n/a	LTP347	ltpFR2	10	n/a	n/a	n/a	14	n/a	n/a	n/a	n/a
1756088	REC_START	n/a	LTP347	ltpFR2	10	9	n/a	n/a	n/a	n/a	0	0	0
1756870	REC_WORD	wordpools/wasnorm_wordpool_576.txt	LTP347	ltpFR2	10	9	BIKE	125	n/a	n/a	0	0	0
1757249	REC_WORD	wordpools/wasnorm_wordpool_576.txt	LTP347	ltpFR2	10	9	ROOSTER	1209	n/a	n/a	0	0	0
1757810	REC_WORD	wordpools/wasnorm_wordpool_576.txt	LTP347	ltpFR2	10	9	SEAFOOD	1260	n/a	n/a	0	0	0
1758668	REC_WORD	wordpools/wasnorm_wordpool_576.txt	LTP347	ltpFR2	10	9	RIVER	1194	n/a	n/a	0	0	0
1759241	REC_WORD	wordpools/wasnorm_wordpool_576.txt	LTP347	ltpFR2	10	9	SWORD	1423	n/a	n/a	0	0	0
1763792	REC_WORD	wordpools/wasnorm_wordpool_576.txt	LTP347	ltpFR2	10	9	PEACH	1031	n/a	n/a	0	0	0
1764466	REC_WORD	wordpools/wasnorm_wordpool_576.txt	LTP347	ltpFR2	10	9	BURGLAR	200	n/a	n/a	0	0	0
1765338	REC_WORD	wordpools/wasnorm_wordpool_576.txt	LTP347	ltpFR2	10	9	SUSPECT	1415	n/a	n/a	0	0	0
1766954	REC_WORD	wordpools/wasnorm_wordpool_576.txt	LTP347	ltpFR2	10	9	HAWK	692	n/a	n/a	0	0	0
1769348	REC_WORD	wordpools/wasnorm_wordpool_576.txt	LTP347	ltpFR2	10	9	BROTHER	179	n/a	n/a	0	0	0
1770375	REC_WORD	wordpools/wasnorm_wordpool_576.txt	LTP347	ltpFR2	10	9	PISTON	1076	n/a	n/a	0	0	0
1771575	REC_WORD	wordpools/wasnorm_wordpool_576.txt	LTP347	ltpFR2	10	9	JEANS	752	n/a	n/a	0	0	0
1772369	REC_WORD	wordpools/wasnorm_wordpool_576.txt	LTP347	ltpFR2	10	9	ROD	1203	n/a	n/a	0	0	0
1775600	REC_WORD	wordpools/wasnorm_wordpool_576.txt	LTP347	ltpFR2	10	9	PARROT	1015	n/a	n/a	0	0	0
1776619	REC_WORD	wordpools/wasnorm_wordpool_576.txt	LTP347	ltpFR2	10	9	TRENCH	1503	n/a	n/a	0	0	0
1777654	REC_WORD	wordpools/wasnorm_wordpool_576.txt	LTP347	ltpFR2	10	9	RUST	1219	n/a	n/a	0	0	0
1779379	REC_WORD	wordpools/wasnorm_wordpool_576.txt	LTP347	ltpFR2	10	9	TAXI	1438	n/a	n/a	0	0	0
1781268	REC_WORD	wordpools/wasnorm_wordpool_576.txt	LTP347	ltpFR2	10	9	TRUCK	1512	n/a	n/a	0	0	0
1798123	REC_WORD	wordpools/wasnorm_wordpool_576.txt	LTP347	ltpFR2	10	9	STUDENT	1395	n/a	n/a	0	0	0
1799312	REC_WORD	wordpools/wasnorm_wordpool_576.txt	LTP347	ltpFR2	10	9	MARROW	872	n/a	n/a	0	0	0
1801071	REC_WORD	wordpools/wasnorm_wordpool_576.txt	LTP347	ltpFR2	10	9	BOARD	143	n/a	n/a	0	0	0
1802127	REC_WORD	wordpools/wasnorm_wordpool_576.txt	LTP347	ltpFR2	10	9	BLACKBOARD	133	n/a	n/a	0	0	0
1803471	REC_WORD	wordpools/wasnorm_wordpool_576.txt	LTP347	ltpFR2	10	9	QUARTER	1148	n/a	n/a	0	0	0
1806002	REC_WORD	wordpools/wasnorm_wordpool_576.txt	LTP347	ltpFR2	10	9	COTTAGE	384	n/a	n/a	0	0	0
1846547	WORD	wordpools/wasnorm_wordpool_576.txt	LTP347	ltpFR2	10	10	CYCLONE	431	n/a	n/a	0	0	0
1849046	WORD	wordpools/wasnorm_wordpool_576.txt	LTP347	ltpFR2	10	10	GLASS	639	n/a	n/a	0	0	0
1851711	WORD	wordpools/wasnorm_wordpool_576.txt	LTP347	ltpFR2	10	10	SEAGULL	1261	n/a	n/a	0	0	0
1854393	WORD	wordpools/wasnorm_wordpool_576.txt	LTP347	ltpFR2	10	10	DOLPHIN	483	n/a	n/a	0	0	0
1857009	WORD	wordpools/wasnorm_wordpool_576.txt	LTP347	ltpFR2	10	10	SIBLING	1301	n/a	n/a	0	0	0
1859558	WORD	wordpools/wasnorm_wordpool_576.txt	LTP347	ltpFR2	10	10	COMPASS	358	n/a	n/a	0	0	0
1862090	WORD	wordpools/wasnorm_wordpool_576.txt	LTP347	ltpFR2	10	10	FIDDLE	561	n/a	n/a	0	0	0
1864539	WORD	wordpools/wasnorm_wordpool_576.txt	LTP347	ltpFR2	10	10	COUNTRY	388	n/a	n/a	0	0	0
1866972	WORD	wordpools/wasnorm_wordpool_576.txt	LTP347	ltpFR2	10	10	PLUTO	1092	n/a	n/a	0	0	0
1869670	WORD	wordpools/wasnorm_wordpool_576.txt	LTP347	ltpFR2	10	10	PLIERS	1089	n/a	n/a	0	0	0
1872385	WORD	wordpools/wasnorm_wordpool_576.txt	LTP347	ltpFR2	10	10	FOREST	593	n/a	n/a	0	0	0
1875017	WORD	wordpools/wasnorm_wordpool_576.txt	LTP347	ltpFR2	10	10	PERFUME	1049	n/a	n/a	0	0	0
1877799	WORD	wordpools/wasnorm_wordpool_576.txt	LTP347	ltpFR2	10	10	FRAGRANCE	599	n/a	n/a	0	0	0
1880448	WORD	wordpools/wasnorm_wordpool_576.txt	LTP347	ltpFR2	10	10	PASTA	1021	n/a	n/a	0	0	0
1882915	WORD	wordpools/wasnorm_wordpool_576.txt	LTP347	ltpFR2	10	10	DOUGHNUT	490	n/a	n/a	0	0	0
1885529	WORD	wordpools/wasnorm_wordpool_576.txt	LTP347	ltpFR2	10	10	FOOT	590	n/a	n/a	0	0	0
1888295	WORD	wordpools/wasnorm_wordpool_576.txt	LTP347	ltpFR2	10	10	FIREPLACE	570	n/a	n/a	0	0	0
1890911	WORD	wordpools/wasnorm_wordpool_576.txt	LTP347	ltpFR2	10	10	STAKE	1368	n/a	n/a	0	0	0
1893409	WORD	wordpools/wasnorm_wordpool_576.txt	LTP347	ltpFR2	10	10	JUDGE	761	n/a	n/a	0	0	0
1896191	WORD	wordpools/wasnorm_wordpool_576.txt	LTP347	ltpFR2	10	10	WINDOW	1611	n/a	n/a	0	0	0
1898673	WORD	wordpools/wasnorm_wordpool_576.txt	LTP347	ltpFR2	10	10	POSTAGE	1113	n/a	n/a	0	0	0
1901122	WORD	wordpools/wasnorm_wordpool_576.txt	LTP347	ltpFR2	10	10	SISTER	1312	n/a	n/a	0	0	0
1903604	WORD	wordpools/wasnorm_wordpool_576.txt	LTP347	ltpFR2	10	10	GLOBE	641	n/a	n/a	0	0	0
1906237	WORD	wordpools/wasnorm_wordpool_576.txt	LTP347	ltpFR2	10	10	PEANUT	1032	n/a	n/a	0	0	0
1907853	START	n/a	LTP347	ltpFR2	10	n/a	n/a	n/a	15	n/a	n/a	n/a	n/a
1908671	DISTRACTOR	n/a	LTP347	ltpFR2	10	10	n/a	n/a	n/a	n/a	0	0	0
1908685	PROB	n/a	LTP347	ltpFR2	10	n/a	n/a	n/a	15	18	5	8	5
1909802	PROB	n/a	LTP347	ltpFR2	10	n/a	n/a	n/a	15	16	8	4	4
1911418	PROB	n/a	LTP347	ltpFR2	10	n/a	n/a	n/a	15	17	5	5	7
1912650	PROB	n/a	LTP347	ltpFR2	10	n/a	n/a	n/a	15	12	1	6	5
1914183	PROB	n/a	LTP347	ltpFR2	10	n/a	n/a	n/a	15	9	2	2	5
1915083	PROB	n/a	LTP347	ltpFR2	10	n/a	n/a	n/a	15	13	7	3	3
1916115	PROB	n/a	LTP347	ltpFR2	10	n/a	n/a	n/a	15	16	2	9	5
1917248	PROB	n/a	LTP347	ltpFR2	10	n/a	n/a	n/a	15	12	5	3	4
1918564	PROB	n/a	LTP347	ltpFR2	10	n/a	n/a	n/a	15	17	7	6	4
1920647	PROB	n/a	LTP347	ltpFR2	10	n/a	n/a	n/a	15	18	5	6	7
1922496	PROB	n/a	LTP347	ltpFR2	10	n/a	n/a	n/a	15	21	9	5	7
1924612	PROB	n/a	LTP347	ltpFR2	10	n/a	n/a	n/a	15	18	7	3	8
1925945	PROB	n/a	LTP347	ltpFR2	10	n/a	n/a	n/a	15	8	2	2	4
1927144	PROB	n/a	LTP347	ltpFR2	10	n/a	n/a	n/a	15	11	7	3	1
1928343	PROB	n/a	LTP347	ltpFR2	10	n/a	n/a	n/a	15	19	9	3	7
1929376	PROB	n/a	LTP347	ltpFR2	10	n/a	n/a	n/a	15	10	4	3	3
1930696	STOP	n/a	LTP347	ltpFR2	10	n/a	n/a	n/a	15	n/a	n/a	n/a	n/a
1933658	REC_START	n/a	LTP347	ltpFR2	10	10	n/a	n/a	n/a	n/a	0	0	0
1933697	REC_WORD	wordpools/wasnorm_wordpool_576.txt	LTP347	ltpFR2	10	10	JUDGE	761	n/a	n/a	0	0	0
1934207	REC_WORD	wordpools/wasnorm_wordpool_576.txt	LTP347	ltpFR2	10	10	WINDOW	1611	n/a	n/a	0	0	0
1935376	REC_WORD	wordpools/wasnorm_wordpool_576.txt	LTP347	ltpFR2	10	10	POSTAGE	1113	n/a	n/a	0	0	0
1944758	REC_WORD	wordpools/wasnorm_wordpool_576.txt	LTP347	ltpFR2	10	10	CYCLONE	431	n/a	n/a	0	0	0
1945836	REC_WORD	wordpools/wasnorm_wordpool_576.txt	LTP347	ltpFR2	10	10	GLASS	639	n/a	n/a	0	0	0
1946518	REC_WORD	wordpools/wasnorm_wordpool_576.txt	LTP347	ltpFR2	10	10	SEAGULL	1261	n/a	n/a	0	0	0
1947188	REC_WORD	wordpools/wasnorm_wordpool_576.txt	LTP347	ltpFR2	10	10	DOLPHIN	483	n/a	n/a	0	0	0
1947763	REC_WORD	wordpools/wasnorm_wordpool_576.txt	LTP347	ltpFR2	10	10	SIBLING	1301	n/a	n/a	0	0	0
1952484	REC_WORD	wordpools/wasnorm_wordpool_576.txt	LTP347	ltpFR2	10	10	FIDDLE	561	n/a	n/a	0	0	0
1953201	REC_WORD	wordpools/wasnorm_wordpool_576.txt	LTP347	ltpFR2	10	10	COUNTRY	388	n/a	n/a	0	0	0
1953914	REC_WORD	wordpools/wasnorm_wordpool_576.txt	LTP347	ltpFR2	10	10	PLUTO	1092	n/a	n/a	0	0	0
1955624	REC_WORD	wordpools/wasnorm_wordpool_576.txt	LTP347	ltpFR2	10	10	COMPASS	358	n/a	n/a	0	0	0
1956454	REC_WORD	wordpools/wasnorm_wordpool_576.txt	LTP347	ltpFR2	10	10	PLIERS	1089	n/a	n/a	0	0	0
1957206	REC_WORD	wordpools/wasnorm_wordpool_576.txt	LTP347	ltpFR2	10	10	FOREST	593	n/a	n/a	0	0	0
1960146	REC_WORD	wordpools/wasnorm_wordpool_576.txt	LTP347	ltpFR2	10	10	PERFUME	1049	n/a	n/a	0	0	0
1960717	REC_WORD	wordpools/wasnorm_wordpool_576.txt	LTP347	ltpFR2	10	10	FRAGRANCE	599	n/a	n/a	0	0	0
1965228	REC_WORD	wordpools/wasnorm_wordpool_576.txt	LTP347	ltpFR2	10	10	FIREPLACE	570	n/a	n/a	0	0	0
1966228	REC_WORD_VV	wordpools/wasnorm_wordpool_576.txt	LTP347	ltpFR2	10	10	<>	-1	n/a	n/a	0	0	0
1967326	REC_WORD	wordpools/wasnorm_wordpool_576.txt	LTP347	ltpFR2	10	10	STAKE	1368	n/a	n/a	0	0	0
1970201	REC_WORD	wordpools/wasnorm_wordpool_576.txt	LTP347	ltpFR2	10	10	FOOT	590	n/a	n/a	0	0	0
2024083	DISTRACTOR	n/a	LTP347	ltpFR2	10	11	n/a	n/a	n/a	n/a	0	0	0
2024083	START	n/a	LTP347	ltpFR2	10	n/a	n/a	n/a	16	n/a	n/a	n/a	n/a
2024100	PROB	n/a	LTP347	ltpFR2	10	n/a	n/a	n/a	16	21	8	7	6
2025582	PROB	n/a	LTP347	ltpFR2	10	n/a	n/a	n/a	16	15	3	7	5
2026682	PROB	n/a	LTP347	ltpFR2	10	n/a	n/a	n/a	16	16	7	4	5
2028098	PROB	n/a	LTP347	ltpFR2	10	n/a	n/a	n/a	16	16	4	5	7
2029431	PROB	n/a	LTP347	ltpFR2	10	n/a	n/a	n/a	16	16	6	2	8
2030547	PROB	n/a	LTP347	ltpFR2	10	n/a	n/a	n/a	16	22	9	9	4
2031914	PROB	n/a	LTP347	ltpFR2	10	n/a	n/a	n/a	16	12	1	9	2
2032930	PROB	n/a	LTP347	ltpFR2	10	n/a	n/a	n/a	16	17	8	8	1
2034329	PROB	n/a	LTP347	ltpFR2	10	n/a	n/a	n/a	16	20	2	9	9
2035495	PROB	n/a	LTP347	ltpFR2	10	n/a	n/a	n/a	16	19	6	5	8
2036611	PROB	n/a	LTP347	ltpFR2	10	n/a	n/a	n/a	16	11	5	1	5
2037677	PROB	n/a	LTP347	ltpFR2	10	n/a	n/a	n/a	16	16	3	4	9
2039443	PROB	n/a	LTP347	ltpFR2	10	n/a	n/a	n/a	16	13	5	2	6
2041725	PROB	n/a	LTP347	ltpFR2	10	n/a	n/a	n/a	16	12	3	4	5
2044690	PROB	n/a	LTP347	ltpFR2	10	n/a	n/a	n/a	16	17	7	2	8
2045973	PROB	n/a	LTP347	ltpFR2	10	n/a	n/a	n/a	16	10	1	1	8
2047131	STOP	n/a	LTP347	ltpFR2	10	n/a	n/a	n/a	16	n/a	n/a	n/a	n/a
2049022	WORD	wordpools/wasnorm_wordpool_576.txt	LTP347	ltpFR2	10	11	DORM	488	n/a	n/a	0	0	0
2051454	WORD	wordpools/wasnorm_wordpool_576.txt	LTP347	ltpFR2	10	11	COOKBOOK	373	n/a	n/a	0	0	0
2053971	WORD	wordpools/wasnorm_wordpool_576.txt	LTP347	ltpFR2	10	11	KITCHEN	778	n/a	n/a	0	0	0
2056535	WORD	wordpools/wasnorm_wordpool_576.txt	LTP347	ltpFR2	10	11	SCRIBBLE	1256	n/a	n/a	0	0	0
2059234	WORD	wordpools/wasnorm_wordpool_576.txt	LTP347	ltpFR2	10	11	PORTRAIT	1111	n/a	n/a	0	0	0
2061884	WORD	wordpools/wasnorm_wordpool_576.txt	LTP347	ltpFR2	10	11	DONKEY	484	n/a	n/a	0	0	0
2064432	WORD	wordpools/wasnorm_wordpool_576.txt	LTP347	ltpFR2	10	11	CHIPMUNK	304	n/a	n/a	0	0	0
2067097	WORD	wordpools/wasnorm_wordpool_576.txt	LTP347	ltpFR2	10	11	CREVICE	405	n/a	n/a	0	0	0
2069662	WORD	wordpools/wasnorm_wordpool_576.txt	LTP347	ltpFR2	10	11	NOMAD	955	n/a	n/a	0	0	0
2072245	WORD	wordpools/wasnorm_wordpool_576.txt	LTP347	ltpFR2	10	11	FRAME	600	n/a	n/a	0	0	0
2075010	WORD	wordpools/wasnorm_wordpool_576.txt	LTP347	ltpFR2	10	11	HANDBAG	684	n/a	n/a	0	0	0
2077659	WORD	wordpools/wasnorm_wordpool_576.txt	LTP347	ltpFR2	10	11	POCKET	1093	n/a	n/a	0	0	0
2080291	WORD	wordpools/wasnorm_wordpool_576.txt	LTP347	ltpFR2	10	11	OUTDOORS	987	n/a	n/a	0	0	0
2082807	WORD	wordpools/wasnorm_wordpool_576.txt	LTP347	ltpFR2	10	11	MAPLE	866	n/a	n/a	0	0	0
2085255	WORD	wordpools/wasnorm_wordpool_576.txt	LTP347	ltpFR2	10	11	SHIRT	1287	n/a	n/a	0	0	0
2087955	WORD	wordpools/wasnorm_wordpool_576.txt	LTP347	ltpFR2	10	11	SCARF	1246	n/a	n/a	0	0	0
2090503	WORD	wordpools/wasnorm_wordpool_576.txt	LTP347	ltpFR2	10	11	SPIDER	1351	n/a	n/a	0	0	0
2093285	WORD	wordpools/wasnorm_wordpool_576.txt	LTP347	ltpFR2	10	11	CABIN	211	n/a	n/a	0	0	0
2095952	WORD	wordpools/wasnorm_wordpool_576.txt	LTP347	ltpFR2	10	11	WASP	1593	n/a	n/a	0	0	0
2098433	WORD	wordpools/wasnorm_wordpool_576.txt	LTP347	ltpFR2	10	11	CRUTCH	417	n/a	n/a	0	0	0
2101115	WORD	wordpools/wasnorm_wordpool_576.txt	LTP347	ltpFR2	10	11	COIN	343	n/a	n/a	0	0	0
2103697	WORD	wordpools/wasnorm_wordpool_576.txt	LTP347	ltpFR2	10	11	SHELF	1280	n/a	n/a	0	0	0
2106163	WORD	wordpools/wasnorm_wordpool_576.txt	LTP347	ltpFR2	10	11	VAGRANT	1544	n/a	n/a	0	0	0
2108761	WORD	wordpools/wasnorm_wordpool_576.txt	LTP347	ltpFR2	10	11	PADDLE	1000	n/a	n/a	0	0	0
2110378	START	n/a	LTP347	ltpFR2	10	n/a	n/a	n/a	17	n/a	n/a	n/a	n/a
2111321	DISTRACTOR	n/a	LTP347	ltpFR2	10	11	n/a	n/a	n/a	n/a	0	0	0
2111327	PROB	n/a	LTP347	ltpFR2	10	n/a	n/a	n/a	17	20	4	8	8
2112476	PROB	n/a	LTP347	ltpFR2	10	n/a	n/a	n/a	17	7	2	1	5
2113626	PROB	n/a	LTP347	ltpFR2	10	n/a	n/a	n/a	17	20	4	9	7
2114893	PROB	n/a	LTP347	ltpFR2	10	n/a	n/a	n/a	17	13	3	9	1
2116091	PROB	n/a	LTP347	ltpFR2	10	n/a	n/a	n/a	17	20	7	8	5
2117508	PROB	n/a	LTP347	ltpFR2	10	n/a	n/a	n/a	17	9	3	1	5
2119157	PROB	n/a	LTP347	ltpFR2	10	n/a	n/a	n/a	17	14	2	3	9
2121039	PROB	n/a	LTP347	ltpFR2	10	n/a	n/a	n/a	17	20	9	3	8
2122155	PROB	n/a	LTP347	ltpFR2	10	n/a	n/a	n/a	17	13	3	4	6
2123521	PROB	n/a	LTP347	ltpFR2	10	n/a	n/a	n/a	17	16	7	5	4
2125021	PROB	n/a	LTP347	ltpFR2	10	n/a	n/a	n/a	17	12	1	7	4
2126420	PROB	n/a	LTP347	ltpFR2	10	n/a	n/a	n/a	17	18	3	9	6
2128086	PROB	n/a	LTP347	ltpFR2	10	n/a	n/a	n/a	17	143	9	3	2
2129735	PROB	n/a	LTP347	ltpFR2	10	n/a	n/a	n/a	17	10	2	2	6
2131118	PROB	n/a	LTP347	ltpFR2	10	n/a	n/a	n/a	17	11	1	7	3
2132218	PROB	n/a	LTP347	ltpFR2	10	n/a	n/a	n/a	17	10	5	1	4
2133270	STOP	n/a	LTP347	ltpFR2	10	n/a	n/a	n/a	17	n/a	n/a	n/a	n/a
2136133	REC_START	n/a	LTP347	ltpFR2	10	11	n/a	n/a	n/a	n/a	0	0	0
2136253	REC_WORD	wordpools/wasnorm_wordpool_576.txt	LTP347	ltpFR2	10	11	CRUTCH	417	n/a	n/a	0	0	0
2136886	REC_WORD	wordpools/wasnorm_wordpool_576.txt	LTP347	ltpFR2	10	11	COIN	343	n/a	n/a	0	0	0
2137490	REC_WORD	wordpools/wasnorm_wordpool_576.txt	LTP347	ltpFR2	10	11	SHELF	1280	n/a	n/a	0	0	0
2138244	REC_WORD	wordpools/wasnorm_wordpool_576.txt	LTP347	ltpFR2	10	11	VAGRANT	1544	n/a	n/a	0	0	0
2139246	REC_WORD	wordpools/wasnorm_wordpool_576.txt	LTP347	ltpFR2	10	11	PADDLE	1000	n/a	n/a	0	0	0
2140700	REC_WORD	wordpools/wasnorm_wordpool_576.txt	LTP347	ltpFR2	10	11	DORM	488	n/a	n/a	0	0	0
2141399	REC_WORD	wordpools/wasnorm_wordpool_576.txt	LTP347	ltpFR2	10	11	COOKBOOK	373	n/a	n/a	0	0	0
2142318	REC_WORD	wordpools/wasnorm_wordpool_576.txt	LTP347	ltpFR2	10	11	KITCHEN	778	n/a	n/a	0	0	0
2143064	REC_WORD	wordpools/wasnorm_wordpool_576.txt	LTP347	ltpFR2	10	11	SCRIBBLE	1256	n/a	n/a	0	0	0
2147918	REC_WORD	wordpools/wasnorm_wordpool_576.txt	LTP347	ltpFR2	10	11	FRAME	600	n/a	n/a	0	0	0
2150198	REC_WORD	wordpools/wasnorm_wordpool_576.txt	LTP347	ltpFR2	10	11	PORTRAIT	1111	n/a	n/a	0	0	0
2151199	REC_WORD	wordpools/wasnorm_wordpool_576.txt	LTP347	ltpFR2	10	11	DONKEY	484	n/a	n/a	0	0	0
2152917	REC_WORD	wordpools/wasnorm_wordpool_576.txt	LTP347	ltpFR2	10	11	CHIPMUNK	304	n/a	n/a	0	0	0
2153693	REC_WORD	wordpools/wasnorm_wordpool_576.txt	LTP347	ltpFR2	10	11	CREVICE	405	n/a	n/a	0	0	0
2154552	REC_WORD	wordpools/wasnorm_wordpool_576.txt	LTP347	ltpFR2	10	11	NOMAD	955	n/a	n/a	0	0	0
2155523	REC_WORD	wordpools/wasnorm_wordpool_576.txt	LTP347	ltpFR2	10	11	POCKET	1093	n/a	n/a	0	0	0
2156356	REC_WORD	wordpools/wasnorm_wordpool_576.txt	LTP347	ltpFR2	10	11	HANDBAG	684	n/a	n/a	0	0	0
2158592	REC_WORD	wordpools/wasnorm_wordpool_576.txt	LTP347	ltpFR2	10	11	OUTDOORS	987	n/a	n/a	0	0	0
2159777	REC_WORD	wordpools/wasnorm_wordpool_576.txt	LTP347	ltpFR2	10	11	MAPLE	866	n/a	n/a	0	0	0
2160522	REC_WORD	wordpools/wasnorm_wordpool_576.txt	LTP347	ltpFR2	10	11	SHIRT	1287	n/a	n/a	0	0	0
2161430	REC_WORD	wordpools/wasnorm_wordpool_576.txt	LTP347	ltpFR2	10	11	SPIDER	1351	n/a	n/a	0	0	0
2164853	REC_WORD	wordpools/wasnorm_wordpool_576.txt	LTP347	ltpFR2	10	11	CABIN	211	n/a	n/a	0	0	0
2165847	REC_WORD	wordpools/wasnorm_wordpool_576.txt	LTP347	ltpFR2	10	11	WASP	1593	n/a	n/a	0	0	0
2226558	DISTRACTOR	n/a	LTP347	ltpFR2	10	12	n/a	n/a	n/a	n/a	0	0	0
2226558	START	n/a	LTP347	ltpFR2	10	n/a	n/a	n/a	18	n/a	n/a	n/a	n/a
2226575	PROB	n/a	LTP347	ltpFR2	10	n/a	n/a	n/a	18	12	3	4	5
2227774	PROB	n/a	LTP347	ltpFR2	10	n/a	n/a	n/a	18	21	7	8	6
2229257	PROB	n/a	LTP347	ltpFR2	10	n/a	n/a	n/a	18	17	7	8	2
2230756	PROB	n/a	LTP347	ltpFR2	10	n/a	n/a	n/a	18	16	5	4	7
2232172	PROB	n/a	LTP347	ltpFR2	10	n/a	n/a	n/a	18	17	9	1	7
2233405	PROB	n/a	LTP347	ltpFR2	10	n/a	n/a	n/a	18	17	9	1	7
2234505	PROB	n/a	LTP347	ltpFR2	10	n/a	n/a	n/a	18	5	1	3	1
2235454	PROB	n/a	LTP347	ltpFR2	10	n/a	n/a	n/a	18	22	6	7	9
2237020	PROB	n/a	LTP347	ltpFR2	10	n/a	n/a	n/a	18	20	8	4	8
2238153	PROB	n/a	LTP347	ltpFR2	10	n/a	n/a	n/a	18	8	3	1	4
2239486	PROB	n/a	LTP347	ltpFR2	10	n/a	n/a	n/a	18	11	6	1	4
2241102	PROB	n/a	LTP347	ltpFR2	10	n/a	n/a	n/a	18	18	8	8	2
2242401	PROB	n/a	LTP347	ltpFR2	10	n/a	n/a	n/a	18	8	2	2	5
2243667	PROB	n/a	LTP347	ltpFR2	10	n/a	n/a	n/a	18	17	9	4	4
2245600	PROB	n/a	LTP347	ltpFR2	10	n/a	n/a	n/a	18	1	8	4	6
2247065	PROB	n/a	LTP347	ltpFR2	10	n/a	n/a	n/a	18	11	2	7	1
2250557	STOP	n/a	LTP347	ltpFR2	10	n/a	n/a	n/a	18	n/a	n/a	n/a	n/a
2251647	WORD	wordpools/wasnorm_wordpool_576.txt	LTP347	ltpFR2	10	12	ACTOR	5	n/a	n/a	0	0	0
2254162	WORD	wordpools/wasnorm_wordpool_576.txt	LTP347	ltpFR2	10	12	PARSLEY	1016	n/a	n/a	0	0	0
2256879	WORD	wordpools/wasnorm_wordpool_576.txt	LTP347	ltpFR2	10	12	TART	1436	n/a	n/a	0	0	0
2259660	WORD	wordpools/wasnorm_wordpool_576.txt	LTP347	ltpFR2	10	12	CANDY	230	n/a	n/a	0	0	0
2262375	WORD	wordpools/wasnorm_wordpool_576.txt	LTP347	ltpFR2	10	12	SUMMIT	1405	n/a	n/a	0	0	0
2264908	WORD	wordpools/wasnorm_wordpool_576.txt	LTP347	ltpFR2	10	12	CHEST	295	n/a	n/a	0	0	0
2267373	WORD	wordpools/wasnorm_wordpool_576.txt	LTP347	ltpFR2	10	12	LOFT	840	n/a	n/a	0	0	0
2269822	WORD	wordpools/wasnorm_wordpool_576.txt	LTP347	ltpFR2	10	12	WAITER	1580	n/a	n/a	0	0	0
2272304	WORD	wordpools/wasnorm_wordpool_576.txt	LTP347	ltpFR2	10	12	SEAL	1262	n/a	n/a	0	0	0
2274736	WORD	wordpools/wasnorm_wordpool_576.txt	LTP347	ltpFR2	10	12	CANYON	235	n/a	n/a	0	0	0
2277485	WORD	wordpools/wasnorm_wordpool_576.txt	LTP347	ltpFR2	10	12	BODY	145	n/a	n/a	0	0	0
2279984	WORD	wordpools/wasnorm_wordpool_576.txt	LTP347	ltpFR2	10	12	TUBA	1515	n/a	n/a	0	0	0
2282733	WORD	wordpools/wasnorm_wordpool_576.txt	LTP347	ltpFR2	10	12	SHRUB	1299	n/a	n/a	0	0	0
2285365	WORD	wordpools/wasnorm_wordpool_576.txt	LTP347	ltpFR2	10	12	GUARD	667	n/a	n/a	0	0	0
2288114	WORD	wordpools/wasnorm_wordpool_576.txt	LTP347	ltpFR2	10	12	AUTHOR	61	n/a	n/a	0	0	0
2290812	WORD	wordpools/wasnorm_wordpool_576.txt	LTP347	ltpFR2	10	12	REPORT	1184	n/a	n/a	0	0	0
2293395	WORD	wordpools/wasnorm_wordpool_576.txt	LTP347	ltpFR2	10	12	FRIEND	606	n/a	n/a	0	0	0
2295977	WORD	wordpools/wasnorm_wordpool_576.txt	LTP347	ltpFR2	10	12	MAILMAN	858	n/a	n/a	0	0	0
2298526	WORD	wordpools/wasnorm_wordpool_576.txt	LTP347	ltpFR2	10	12	CHAUFFEUR	283	n/a	n/a	0	0	0
2301008	WORD	wordpools/wasnorm_wordpool_576.txt	LTP347	ltpFR2	10	12	FLOWER	584	n/a	n/a	0	0	0
2303657	WORD	wordpools/wasnorm_wordpool_576.txt	LTP347	ltpFR2	10	12	CLAMP	316	n/a	n/a	0	0	0
2306272	WORD	wordpools/wasnorm_wordpool_576.txt	LTP347	ltpFR2	10	12	LAVA	804	n/a	n/a	0	0	0
2309071	WORD	wordpools/wasnorm_wordpool_576.txt	LTP347	ltpFR2	10	12	CRATER	400	n/a	n/a	0	0	0
2311770	WORD	wordpools/wasnorm_wordpool_576.txt	LTP347	ltpFR2	10	12	SERVER	1272	n/a	n/a	0	0	0
2313386	START	n/a	LTP347	ltpFR2	10	n/a	n/a	n/a	19	n/a	n/a	n/a	n/a
2314539	DISTRACTOR	n/a	LTP347	ltpFR2	10	12	n/a	n/a	n/a	n/a	0	0	0
2314552	PROB	n/a	LTP347	ltpFR2	10	n/a	n/a	n/a	19	16	5	2	9
2316284	PROB	n/a	LTP347	ltpFR2	10	n/a	n/a	n/a	19	14	1	7	5
2318283	PROB	n/a	LTP347	ltpFR2	10	n/a	n/a	n/a	19	13	4	6	3
2319366	PROB	n/a	LTP347	ltpFR2	10	n/a	n/a	n/a	19	22	7	8	7
2322165	PROB	n/a	LTP347	ltpFR2	10	n/a	n/a	n/a	19	12	2	5	5
2323348	PROB	n/a	LTP347	ltpFR2	10	n/a	n/a	n/a	19	11	2	3	4
2324597	PROB	n/a	LTP347	ltpFR2	10	n/a	n/a	n/a	19	14	1	7	6
2326313	PROB	n/a	LTP347	ltpFR2	10	n/a	n/a	n/a	19	20	5	8	7
2328095	PROB	n/a	LTP347	ltpFR2	10	n/a	n/a	n/a	19	15	7	3	5
2329262	PROB	n/a	LTP347	ltpFR2	10	n/a	n/a	n/a	19	17	8	5	4
2332527	PROB	n/a	LTP347	ltpFR2	10	n/a	n/a	n/a	19	17	5	5	7
2333776	PROB	n/a	LTP347	ltpFR2	10	n/a	n/a	n/a	19	20	6	5	9
2336164	STOP	n/a	LTP347	ltpFR2	10	n/a	n/a	n/a	19	n/a	n/a	n/a	n/a
2339275	REC_START	n/a	LTP347	ltpFR2	10	12	n/a	n/a	n/a	n/a	0	0	0
2339359	REC_WORD	wordpools/wasnorm_wordpool_576.txt	LTP347	ltpFR2	10	12	CRAMP	-1	n/a	n/a	0	0	0
2341673	REC_WORD	wordpools/wasnorm_wordpool_576.txt	LTP347	ltpFR2	10	12	LAVA	804	n/a	n/a	0	0	0
2342308	REC_WORD	wordpools/wasnorm_wordpool_576.txt	LTP347	ltpFR2	10	12	CRATER	400	n/a	n/a	0	0	0
2342843	REC_WORD	wordpools/wasnorm_wordpool_576.txt	LTP347	ltpFR2	10	12	SERVER	1272	n/a	n/a	0	0	0
2345607	REC_WORD	wordpools/wasnorm_wordpool_576.txt	LTP347	ltpFR2	10	12	FLOWER	584	n/a	n/a	0	0	0
2349861	REC_WORD	wordpools/wasnorm_wordpool_576.txt	LTP347	ltpFR2	10	12	PARSLEY	1016	n/a	n/a	0	0	0
2350591	REC_WORD	wordpools/wasnorm_wordpool_576.txt	LTP347	ltpFR2	10	12	ACTOR	5	n/a	n/a	0	0	0
2351514	REC_WORD	wordpools/wasnorm_wordpool_576.txt	LTP347	ltpFR2	10	12	CHEST	295	n/a	n/a	0	0	0
2354256	REC_WORD	wordpools/wasnorm_wordpool_576.txt	LTP347	ltpFR2	10	12	TART	1436	n/a	n/a	0	0	0
2354682	REC_WORD	wordpools/wasnorm_wordpool_576.txt	LTP347	ltpFR2	10	12	CANDY	230	n/a	n/a	0	0	0
2367754	REC_WORD	wordpools/wasnorm_wordpool_576.txt	LTP347	ltpFR2	10	12	SEAL	1262	n/a	n/a	0	0	0
2368849	REC_WORD	wordpools/wasnorm_wordpool_576.txt	LTP347	ltpFR2	10	12	BODY	145	n/a	n/a	0	0	0
2369355	REC_WORD	wordpools/wasnorm_wordpool_576.txt	LTP347	ltpFR2	10	12	TUBA	1515	n/a	n/a	0	0	0
2371113	REC_WORD	wordpools/wasnorm_wordpool_576.txt	LTP347	ltpFR2	10	12	SHRUB	1299	n/a	n/a	0	0	0
2373402	REC_WORD	wordpools/wasnorm_wordpool_576.txt	LTP347	ltpFR2	10	12	GUARD	667	n/a	n/a	0	0	0
2376810	REC_WORD	wordpools/wasnorm_wordpool_576.txt	LTP347	ltpFR2	10	12	AUTHOR	61	n/a	n/a	0	0	0
2377486	REC_WORD	wordpools/wasnorm_wordpool_576.txt	LTP347	ltpFR2	10	12	REPORT	1184	n/a	n/a	0	0	0
2378336	REC_WORD	wordpools/wasnorm_wordpool_576.txt	LTP347	ltpFR2	10	12	FRIEND	606	n/a	n/a	0	0	0
2379397	REC_WORD	wordpools/wasnorm_wordpool_576.txt	LTP347	ltpFR2	10	12	MAILMAN	858	n/a	n/a	0	0	0
2380258	REC_WORD	wordpools/wasnorm_wordpool_576.txt	LTP347	ltpFR2	10	12	CHAUFFEUR	283	n/a	n/a	0	0	0
2391890	REC_WORD	wordpools/wasnorm_wordpool_576.txt	LTP347	ltpFR2	10	12	SUMMIT	1405	n/a	n/a	0	0	0
2396445	REC_WORD	wordpools/wasnorm_wordpool_576.txt	LTP347	ltpFR2	10	12	LOFT	840	n/a	n/a	0	0	0
2401607	REC_WORD	wordpools/wasnorm_wordpool_576.txt	LTP347	ltpFR2	10	12	CANYON	235	n/a	n/a	0	0	0
2429733	WORD	wordpools/wasnorm_wordpool_576.txt	LTP347	ltpFR2	10	13	FEMALE	559	n/a	n/a	0	0	0
2432215	WORD	wordpools/wasnorm_wordpool_576.txt	LTP347	ltpFR2	10	13	CAFE	216	n/a	n/a	0	0	0
2434881	WORD	wordpools/wasnorm_wordpool_576.txt	LTP347	ltpFR2	10	13	DRESSER	496	n/a	n/a	0	0	0
2437329	WORD	wordpools/wasnorm_wordpool_576.txt	LTP347	ltpFR2	10	13	CLIMBER	323	n/a	n/a	0	0	0
2440128	WORD	wordpools/wasnorm_wordpool_576.txt	LTP347	ltpFR2	10	13	BUCKET	184	n/a	n/a	0	0	0
2442810	WORD	wordpools/wasnorm_wordpool_576.txt	LTP347	ltpFR2	10	13	TWIG	1527	n/a	n/a	0	0	0
2445242	WORD	wordpools/wasnorm_wordpool_576.txt	LTP347	ltpFR2	10	13	MISTER	901	n/a	n/a	0	0	0
2447975	WORD	wordpools/wasnorm_wordpool_576.txt	LTP347	ltpFR2	10	13	PARTNER	1017	n/a	n/a	0	0	0
2450457	WORD	wordpools/wasnorm_wordpool_576.txt	LTP347	ltpFR2	10	13	PALACE	1006	n/a	n/a	0	0	0
2453056	WORD	wordpools/wasnorm_wordpool_576.txt	LTP347	ltpFR2	10	13	QUEEN	1149	n/a	n/a	0	0	0
2455704	WORD	wordpools/wasnorm_wordpool_576.txt	LTP347	ltpFR2	10	13	SODA	1341	n/a	n/a	0	0	0
2458353	WORD	wordpools/wasnorm_wordpool_576.txt	LTP347	ltpFR2	10	13	TRANSPLANT	1496	n/a	n/a	0	0	0
2461052	WORD	wordpools/wasnorm_wordpool_576.txt	LTP347	ltpFR2	10	13	VIRUS	1572	n/a	n/a	0	0	0
2463534	WORD	wordpools/wasnorm_wordpool_576.txt	LTP347	ltpFR2	10	13	REBEL	1172	n/a	n/a	0	0	0
2465983	WORD	wordpools/wasnorm_wordpool_576.txt	LTP347	ltpFR2	10	13	CITRUS	313	n/a	n/a	0	0	0
2468432	WORD	wordpools/wasnorm_wordpool_576.txt	LTP347	ltpFR2	10	13	CARROT	249	n/a	n/a	0	0	0
2470932	WORD	wordpools/wasnorm_wordpool_576.txt	LTP347	ltpFR2	10	13	JUGGLER	763	n/a	n/a	0	0	0
2473646	WORD	wordpools/wasnorm_wordpool_576.txt	LTP347	ltpFR2	10	13	MESSAGE	888	n/a	n/a	0	0	0
2476278	WORD	wordpools/wasnorm_wordpool_576.txt	LTP347	ltpFR2	10	13	WASHER	1592	n/a	n/a	0	0	0
2478945	WORD	wordpools/wasnorm_wordpool_576.txt	LTP347	ltpFR2	10	13	HEART	697	n/a	n/a	0	0	0
2481676	WORD	wordpools/wasnorm_wordpool_576.txt	LTP347	ltpFR2	10	13	THIEF	1456	n/a	n/a	0	0	0
2484258	WORD	wordpools/wasnorm_wordpool_576.txt	LTP347	ltpFR2	10	13	DUSTPAN	509	n/a	n/a	0	0	0
2486757	WORD	wordpools/wasnorm_wordpool_576.txt	LTP347	ltpFR2	10	13	SLOPE	1328	n/a	n/a	0	0	0
2489322	WORD	wordpools/wasnorm_wordpool_576.txt	LTP347	ltpFR2	10	13	LUMBER	848	n/a	n/a	0	0	0
2490940	START	n/a	LTP347	ltpFR2	10	n/a	n/a	n/a	20	n/a	n/a	n/a	n/a
2492045	DISTRACTOR	n/a	LTP347	ltpFR2	10	13	n/a	n/a	n/a	n/a	0	0	0
2492055	PROB	n/a	LTP347	ltpFR2	10	n/a	n/a	n/a	20	13	3	2	8
2493454	PROB	n/a	LTP347	ltpFR2	10	n/a	n/a	n/a	20	20	6	9	5
2494653	PROB	n/a	LTP347	ltpFR2	10	n/a	n/a	n/a	20	10	3	5	2
2496169	PROB	n/a	LTP347	ltpFR2	10	n/a	n/a	n/a	20	19	8	2	9
2498285	PROB	n/a	LTP347	ltpFR2	10	n/a	n/a	n/a	20	20	8	7	5
2499651	PROB	n/a	LTP347	ltpFR2	10	n/a	n/a	n/a	20	18	4	6	8
2500834	PROB	n/a	LTP347	ltpFR2	10	n/a	n/a	n/a	20	15	8	3	4
2502783	PROB	n/a	LTP347	ltpFR2	10	n/a	n/a	n/a	20	20	9	8	3
2503999	PROB	n/a	LTP347	ltpFR2	10	n/a	n/a	n/a	20	20	3	8	9
2505249	PROB	n/a	LTP347	ltpFR2	10	n/a	n/a	n/a	20	22	8	7	8
2507498	PROB	n/a	LTP347	ltpFR2	10	n/a	n/a	n/a	20	17	8	6	3
2509713	PROB	n/a	LTP347	ltpFR2	10	n/a	n/a	n/a	20	8	4	2	3
2511096	PROB	n/a	LTP347	ltpFR2	10	n/a	n/a	n/a	20	12	6	4	2
2512445	PROB	n/a	LTP347	ltpFR2	10	n/a	n/a	n/a	20	12	3	6	3
2514218	STOP	n/a	LTP347	ltpFR2	10	n/a	n/a	n/a	20	n/a	n/a	n/a	n/a
2516811	REC_START	n/a	LTP347	ltpFR2	10	13	n/a	n/a	n/a	n/a	0	0	0
2516966	REC_WORD	wordpools/wasnorm_wordpool_576.txt	LTP347	ltpFR2	10	13	DUSTPAN	509	n/a	n/a	0	0	0
2517841	REC_WORD	wordpools/wasnorm_wordpool_576.txt	LTP347	ltpFR2	10	13	SLOPE	1328	n/a	n/a	0	0	0
2519480	REC_WORD	wordpools/wasnorm_wordpool_576.txt	LTP347	ltpFR2	10	13	LUMBER	848	n/a	n/a	0	0	0
2524050	REC_WORD	wordpools/wasnorm_wordpool_576.txt	LTP347	ltpFR2	10	13	FEMALE	559	n/a	n/a	0	0	0
2524765	REC_WORD	wordpools/wasnorm_wordpool_576.txt	LTP347	ltpFR2	10	13	CAFE	216	n/a	n/a	0	0	0
2526070	REC_WORD	wordpools/wasnorm_wordpool_576.txt	LTP347	ltpFR2	10	13	DRESSER	496	n/a	n/a	0	0	0
2527131	REC_WORD	wordpools/wasnorm_wordpool_576.txt	LTP347	ltpFR2	10	13	CLIMBER	323	n/a	n/a	0	0	0
2528941	REC_WORD	wordpools/wasnorm_wordpool_576.txt	LTP347	ltpFR2	10	13	BUCKET	184	n/a	n/a	0	0	0
2530043	REC_WORD	wordpools/wasnorm_wordpool_576.txt	LTP347	ltpFR2	10	13	TWIG	1527	n/a	n/a	0	0	0
2532433	REC_WORD	wordpools/wasnorm_wordpool_576.txt	LTP347	ltpFR2	10	13	MISTER	901	n/a	n/a	0	0	0
2534153	REC_WORD	wordpools/wasnorm_wordpool_576.txt	LTP347	ltpFR2	10	13	PALACE	1006	n/a	n/a	0	0	0
2536681	REC_WORD	wordpools/wasnorm_wordpool_576.txt	LTP347	ltpFR2	10	13	QUEEN	1149	n/a	n/a	0	0	0
2538110	REC_WORD	wordpools/wasnorm_wordpool_576.txt	LTP347	ltpFR2	10	13	SODA	1341	n/a	n/a	0	0	0
2539482	REC_WORD	wordpools/wasnorm_wordpool_576.txt	LTP347	ltpFR2	10	13	TRANSPLANT	1496	n/a	n/a	0	0	0
2541285	REC_WORD	wordpools/wasnorm_wordpool_576.txt	LTP347	ltpFR2	10	13	VIRUS	1572	n/a	n/a	0	0	0
2542577	REC_WORD	wordpools/wasnorm_wordpool_576.txt	LTP347	ltpFR2	10	13	REBEL	1172	n/a	n/a	0	0	0
2543940	REC_WORD	wordpools/wasnorm_wordpool_576.txt	LTP347	ltpFR2	10	13	CITRUS	313	n/a	n/a	0	0	0
2545165	REC_WORD	wordpools/wasnorm_wordpool_576.txt	LTP347	ltpFR2	10	13	CARROT	249	n/a	n/a	0	0	0
2546903	REC_WORD	wordpools/wasnorm_wordpool_576.txt	LTP347	ltpFR2	10	13	JUGGLER	763	n/a	n/a	0	0	0
2548077	REC_WORD	wordpools/wasnorm_wordpool_576.txt	LTP347	ltpFR2	10	13	MESSAGE	888	n/a	n/a	0	0	0
2549544	REC_WORD	wordpools/wasnorm_wordpool_576.txt	LTP347	ltpFR2	10	13	WASHER	1592	n/a	n/a	0	0	0
2551199	REC_WORD	wordpools/wasnorm_wordpool_576.txt	LTP347	ltpFR2	10	13	HEART	697	n/a	n/a	0	0	0
2553884	REC_WORD	wordpools/wasnorm_wordpool_576.txt	LTP347	ltpFR2	10	13	THIEF	1456	n/a	n/a	0	0	0
2607252	DISTRACTOR	n/a	LTP347	ltpFR2	10	14	n/a	n/a	n/a	n/a	0	0	0
2607253	START	n/a	LTP347	ltpFR2	10	n/a	n/a	n/a	21	n/a	n/a	n/a	n/a
2607269	PROB	n/a	LTP347	ltpFR2	10	n/a	n/a	n/a	21	2	8	5	8
2609185	PROB	n/a	LTP347	ltpFR2	10	n/a	n/a	n/a	21	21	8	7	8
2610634	PROB	n/a	LTP347	ltpFR2	10	n/a	n/a	n/a	21	13	6	4	3
2611800	PROB	n/a	LTP347	ltpFR2	10	n/a	n/a	n/a	21	19	9	1	9
2612967	PROB	n/a	LTP347	ltpFR2	10	n/a	n/a	n/a	21	8	1	5	2
2614682	PROB	n/a	LTP347	ltpFR2	10	n/a	n/a	n/a	21	13	9	1	3
2615715	PROB	n/a	LTP347	ltpFR2	10	n/a	n/a	n/a	21	15	4	9	2
2617065	PROB	n/a	LTP347	ltpFR2	10	n/a	n/a	n/a	21	12	5	2	5
2618131	PROB	n/a	LTP347	ltpFR2	10	n/a	n/a	n/a	21	6	4	1	1
2619314	PROB	n/a	LTP347	ltpFR2	10	n/a	n/a	n/a	21	17	4	7	6
2620964	PROB	n/a	LTP347	ltpFR2	10	n/a	n/a	n/a	21	18	9	7	2
2622595	PROB	n/a	LTP347	ltpFR2	10	n/a	n/a	n/a	21	21	9	3	9
2623845	PROB	n/a	LTP347	ltpFR2	10	n/a	n/a	n/a	21	17	7	5	5
2625128	PROB	n/a	LTP347	ltpFR2	10	n/a	n/a	n/a	21	17	9	1	7
2626394	PROB	n/a	LTP347	ltpFR2	10	n/a	n/a	n/a	21	13	3	7	3
2627460	PROB	n/a	LTP347	ltpFR2	10	n/a	n/a	n/a	21	17	6	7	4
2628826	PROB	n/a	LTP347	ltpFR2	10	n/a	n/a	n/a	21	11	4	1	6
2630086	STOP	n/a	LTP347	ltpFR2	10	n/a	n/a	n/a	21	n/a	n/a	n/a	n/a
2632224	WORD	wordpools/wasnorm_wordpool_576.txt	LTP347	ltpFR2	10	14	PLATE	1086	n/a	n/a	0	0	0
2634891	WORD	wordpools/wasnorm_wordpool_576.txt	LTP347	ltpFR2	10	14	JOURNAL	760	n/a	n/a	0	0	0
2637472	WORD	wordpools/wasnorm_wordpool_576.txt	LTP347	ltpFR2	10	14	KIDNEY	776	n/a	n/a	0	0	0
2640204	WORD	wordpools/wasnorm_wordpool_576.txt	LTP347	ltpFR2	10	14	FLEET	578	n/a	n/a	0	0	0
2642954	WORD	wordpools/wasnorm_wordpool_576.txt	LTP347	ltpFR2	10	14	PICNIC	1060	n/a	n/a	0	0	0
2645618	WORD	wordpools/wasnorm_wordpool_576.txt	LTP347	ltpFR2	10	14	MARKET	871	n/a	n/a	0	0	0
2648384	WORD	wordpools/wasnorm_wordpool_576.txt	LTP347	ltpFR2	10	14	WAITRESS	1581	n/a	n/a	0	0	0
2651032	WORD	wordpools/wasnorm_wordpool_576.txt	LTP347	ltpFR2	10	14	SCALPEL	1243	n/a	n/a	0	0	0
2653848	WORD	wordpools/wasnorm_wordpool_576.txt	LTP347	ltpFR2	10	14	THREAD	1460	n/a	n/a	0	0	0
2656380	WORD	wordpools/wasnorm_wordpool_576.txt	LTP347	ltpFR2	10	14	BASEMENT	94	n/a	n/a	0	0	0
2658829	WORD	wordpools/wasnorm_wordpool_576.txt	LTP347	ltpFR2	10	14	STATUE	1374	n/a	n/a	0	0	0
2661361	WORD	wordpools/wasnorm_wordpool_576.txt	LTP347	ltpFR2	10	14	CABBAGE	210	n/a	n/a	0	0	0
2664093	WORD	wordpools/wasnorm_wordpool_576.txt	LTP347	ltpFR2	10	14	DINER	467	n/a	n/a	0	0	0
2666575	WORD	wordpools/wasnorm_wordpool_576.txt	LTP347	ltpFR2	10	14	STONE	1385	n/a	n/a	0	0	0
2669374	WORD	wordpools/wasnorm_wordpool_576.txt	LTP347	ltpFR2	10	14	PUPIL	1143	n/a	n/a	0	0	0
2671806	WORD	wordpools/wasnorm_wordpool_576.txt	LTP347	ltpFR2	10	14	MOP	916	n/a	n/a	0	0	0
2674472	WORD	wordpools/wasnorm_wordpool_576.txt	LTP347	ltpFR2	10	14	BLENDER	136	n/a	n/a	0	0	0
2677287	WORD	wordpools/wasnorm_wordpool_576.txt	LTP347	ltpFR2	10	14	JELLO	754	n/a	n/a	0	0	0
2679736	WORD	wordpools/wasnorm_wordpool_576.txt	LTP347	ltpFR2	10	14	NOVEL	960	n/a	n/a	0	0	0
2682318	WORD	wordpools/wasnorm_wordpool_576.txt	LTP347	ltpFR2	10	14	BOUQUET	157	n/a	n/a	0	0	0
2684902	WORD	wordpools/wasnorm_wordpool_576.txt	LTP347	ltpFR2	10	14	RAFT	1159	n/a	n/a	0	0	0
2687399	WORD	wordpools/wasnorm_wordpool_576.txt	LTP347	ltpFR2	10	14	WIFE	1609	n/a	n/a	0	0	0
2690198	WORD	wordpools/wasnorm_wordpool_576.txt	LTP347	ltpFR2	10	14	SPOUSE	1358	n/a	n/a	0	0	0
2692881	WORD	wordpools/wasnorm_wordpool_576.txt	LTP347	ltpFR2	10	14	PECAN	1036	n/a	n/a	0	0	0
2694496	START	n/a	LTP347	ltpFR2	10	n/a	n/a	n/a	22	n/a	n/a	n/a	n/a
2695505	DISTRACTOR	n/a	LTP347	ltpFR2	10	14	n/a	n/a	n/a	n/a	0	0	0
2695512	PROB	n/a	LTP347	ltpFR2	10	n/a	n/a	n/a	22	16	5	6	5
2696579	PROB	n/a	LTP347	ltpFR2	10	n/a	n/a	n/a	22	17	5	6	6
2697879	PROB	n/a	LTP347	ltpFR2	10	n/a	n/a	n/a	22	7	2	3	2
2699461	PROB	n/a	LTP347	ltpFR2	10	n/a	n/a	n/a	22	17	5	7	5
2700727	PROB	n/a	LTP347	ltpFR2	10	n/a	n/a	n/a	22	13	7	5	1
2703126	PROB	n/a	LTP347	ltpFR2	10	n/a	n/a	n/a	22	8	2	5	1
2704642	PROB	n/a	LTP347	ltpFR2	10	n/a	n/a	n/a	22	5	2	2	1
2705591	PROB	n/a	LTP347	ltpFR2	10	n/a	n/a	n/a	22	18	8	9	1
2706841	PROB	n/a	LTP347	ltpFR2	10	n/a	n/a	n/a	22	1	5	6	8
2709639	PROB	n/a	LTP347	ltpFR2	10	n/a	n/a	n/a	22	18	9	4	5
2711155	PROB	n/a	LTP347	ltpFR2	10	n/a	n/a	n/a	22	20	8	7	5
2712388	PROB	n/a	LTP347	ltpFR2	10	n/a	n/a	n/a	22	12	2	6	4
2713721	PROB	n/a	LTP347	ltpFR2	10	n/a	n/a	n/a	22	14	5	1	8
2716103	PROB	n/a	LTP347	ltpFR2	10	n/a	n/a	n/a	22	17	5	8	4
2717616	STOP	n/a	LTP347	ltpFR2	10	n/a	n/a	n/a	22	n/a	n/a	n/a	n/a
2720285	REC_START	n/a	LTP347	ltpFR2	10	14	n/a	n/a	n/a	n/a	0	0	0
2720837	REC_WORD	wordpools/wasnorm_wordpool_576.txt	LTP347	ltpFR2	10	14	BOUQUET	157	n/a	n/a	0	0	0
2721457	REC_WORD	wordpools/wasnorm_wordpool_576.txt	LTP347	ltpFR2	10	14	RAFT	1159	n/a	n/a	0	0	0
2722210	REC_WORD	wordpools/wasnorm_wordpool_576.txt	LTP347	ltpFR2	10	14	WIFE	1609	n/a	n/a	0	0	0
2722761	REC_WORD	wordpools/wasnorm_wordpool_576.txt	LTP347	ltpFR2	10	14	SPOUSE	1358	n/a	n/a	0	0	0
2735534	REC_WORD	wordpools/wasnorm_wordpool_576.txt	LTP347	ltpFR2	10	14	PLATE	1086	n/a	n/a	0	0	0
2736919	REC_WORD	wordpools/wasnorm_wordpool_576.txt	LTP347	ltpFR2	10	14	JOURNAL	760	n/a	n/a	0	0	0
2739095	REC_WORD	wordpools/wasnorm_wordpool_576.txt	LTP347	ltpFR2	10	14	KIDNEY	776	n/a	n/a	0	0	0
2739542	REC_WORD	wordpools/wasnorm_wordpool_576.txt	LTP347	ltpFR2	10	14	FLEET	578	n/a	n/a	0	0	0
2742389	REC_WORD	wordpools/wasnorm_wordpool_576.txt	LTP347	ltpFR2	10	14	THREAD	1460	n/a	n/a	0	0	0
2743566	REC_WORD	wordpools/wasnorm_wordpool_576.txt	LTP347	ltpFR2	10	14	SCALPEL	1243	n/a	n/a	0	0	0
2744863	REC_WORD	wordpools/wasnorm_wordpool_576.txt	LTP347	ltpFR2	10	14	PICNIC	1060	n/a	n/a	0	0	0
2746233	REC_WORD	wordpools/wasnorm_wordpool_576.txt	LTP347	ltpFR2	10	14	WAITRESS	1581	n/a	n/a	0	0	0
2747504	REC_WORD	wordpools/wasnorm_wordpool_576.txt	LTP347	ltpFR2	10	14	MARKET	871	n/a	n/a	0	0	0
2750271	REC_WORD	wordpools/wasnorm_wordpool_576.txt	LTP347	ltpFR2	10	14	BASEMENT	94	n/a	n/a	0	0	0
2756692	REC_WORD	wordpools/wasnorm_wordpool_576.txt	LTP347	ltpFR2	10	14	CABBAGE	210	n/a	n/a	0	0	0
2757358	REC_WORD	wordpools/wasnorm_wordpool_576.txt	LTP347	ltpFR2	10	14	STATUE	1374	n/a	n/a	0	0	0
2759536	REC_WORD	wordpools/wasnorm_wordpool_576.txt	LTP347	ltpFR2	10	14	DINER	467	n/a	n/a	0	0	0
2760220	REC_WORD	wordpools/wasnorm_wordpool_576.txt	LTP347	ltpFR2	10	14	STONE	1385	n/a	n/a	0	0	0
2763522	REC_WORD	wordpools/wasnorm_wordpool_576.txt	LTP347	ltpFR2	10	14	EYE	545	n/a	n/a	0	0	0
2765193	REC_WORD	wordpools/wasnorm_wordpool_576.txt	LTP347	ltpFR2	10	14	PUPIL	1143	n/a	n/a	0	0	0
2766995	REC_WORD	wordpools/wasnorm_wordpool_576.txt	LTP347	ltpFR2	10	14	MOP	916	n/a	n/a	0	0	0
2768742	REC_WORD	wordpools/wasnorm_wordpool_576.txt	LTP347	ltpFR2	10	14	BLENDER	136	n/a	n/a	0	0	0
2769986	REC_WORD	wordpools/wasnorm_wordpool_576.txt	LTP347	ltpFR2	10	14	JELLO	754	n/a	n/a	0	0	0
2810727	DISTRACTOR	n/a	LTP347	ltpFR2	10	15	n/a	n/a	n/a	n/a	0	0	0
2810727	START	n/a	LTP347	ltpFR2	10	n/a	n/a	n/a	23	n/a	n/a	n/a	n/a
2810743	PROB	n/a	LTP347	ltpFR2	10	n/a	n/a	n/a	23	4	1	1	2
2811693	PROB	n/a	LTP347	ltpFR2	10	n/a	n/a	n/a	23	12	7	3	2
2812976	PROB	n/a	LTP347	ltpFR2	10	n/a	n/a	n/a	23	16	5	2	9
2814459	PROB	n/a	LTP347	ltpFR2	10	n/a	n/a	n/a	23	10	2	7	1
2815675	PROB	n/a	LTP347	ltpFR2	10	n/a	n/a	n/a	23	8	3	4	1
2816942	PROB	n/a	LTP347	ltpFR2	10	n/a	n/a	n/a	23	13	3	4	6
2818007	PROB	n/a	LTP347	ltpFR2	10	n/a	n/a	n/a	23	11	2	6	3
2819273	PROB	n/a	LTP347	ltpFR2	10	n/a	n/a	n/a	23	14	9	2	3
2820589	PROB	n/a	LTP347	ltpFR2	10	n/a	n/a	n/a	23	17	4	4	9
2821939	PROB	n/a	LTP347	ltpFR2	10	n/a	n/a	n/a	23	9	2	1	6
2823454	PROB	n/a	LTP347	ltpFR2	10	n/a	n/a	n/a	23	22	8	5	9
2824987	PROB	n/a	LTP347	ltpFR2	10	n/a	n/a	n/a	23	15	3	7	5
2826053	PROB	n/a	LTP347	ltpFR2	10	n/a	n/a	n/a	23	15	6	7	2
2827953	PROB	n/a	LTP347	ltpFR2	10	n/a	n/a	n/a	23	12	5	1	7
2830068	PROB	n/a	LTP347	ltpFR2	10	n/a	n/a	n/a	23	13	3	5	5
2831101	PROB	n/a	LTP347	ltpFR2	10	n/a	n/a	n/a	23	11	7	9	5
2833252	STOP	n/a	LTP347	ltpFR2	10	n/a	n/a	n/a	23	n/a	n/a	n/a	n/a
2835566	WORD	wordpools/wasnorm_wordpool_576.txt	LTP347	ltpFR2	10	15	FLAG	573	n/a	n/a	0	0	0
2838031	WORD	wordpools/wasnorm_wordpool_576.txt	LTP347	ltpFR2	10	15	UMPIRE	1535	n/a	n/a	0	0	0
2840863	WORD	wordpools/wasnorm_wordpool_576.txt	LTP347	ltpFR2	10	15	SLIME	1327	n/a	n/a	0	0	0
2843612	WORD	wordpools/wasnorm_wordpool_576.txt	LTP347	ltpFR2	10	15	DRIVER	499	n/a	n/a	0	0	0
2846144	WORD	wordpools/wasnorm_wordpool_576.txt	LTP347	ltpFR2	10	15	PACKAGE	997	n/a	n/a	0	0	0
2848693	WORD	wordpools/wasnorm_wordpool_576.txt	LTP347	ltpFR2	10	15	ARMY	39	n/a	n/a	0	0	0
2851292	WORD	wordpools/wasnorm_wordpool_576.txt	LTP347	ltpFR2	10	15	STAMP	1370	n/a	n/a	0	0	0
2853908	WORD	wordpools/wasnorm_wordpool_576.txt	LTP347	ltpFR2	10	15	ANTLER	29	n/a	n/a	0	0	0
2856623	WORD	wordpools/wasnorm_wordpool_576.txt	LTP347	ltpFR2	10	15	BLUEPRINT	142	n/a	n/a	0	0	0
2859155	WORD	wordpools/wasnorm_wordpool_576.txt	LTP347	ltpFR2	10	15	FUNGUS	614	n/a	n/a	0	0	0
2861637	WORD	wordpools/wasnorm_wordpool_576.txt	LTP347	ltpFR2	10	15	TURNIP	1521	n/a	n/a	0	0	0
2864419	WORD	wordpools/wasnorm_wordpool_576.txt	LTP347	ltpFR2	10	15	COD	340	n/a	n/a	0	0	0
2867035	WORD	wordpools/wasnorm_wordpool_576.txt	LTP347	ltpFR2	10	15	STOMACH	1384	n/a	n/a	0	0	0
2869550	WORD	wordpools/wasnorm_wordpool_576.txt	LTP347	ltpFR2	10	15	PIGEON	1065	n/a	n/a	0	0	0
2872182	WORD	wordpools/wasnorm_wordpool_576.txt	LTP347	ltpFR2	10	15	MILDEW	893	n/a	n/a	0	0	0
2874965	WORD	wordpools/wasnorm_wordpool_576.txt	LTP347	ltpFR2	10	15	MAILBOX	857	n/a	n/a	0	0	0
2877547	WORD	wordpools/wasnorm_wordpool_576.txt	LTP347	ltpFR2	10	15	STAPLE	1371	n/a	n/a	0	0	0
2879995	WORD	wordpools/wasnorm_wordpool_576.txt	LTP347	ltpFR2	10	15	CASKET	255	n/a	n/a	0	0	0
2882677	WORD	wordpools/wasnorm_wordpool_576.txt	LTP347	ltpFR2	10	15	BADGE	68	n/a	n/a	0	0	0
2885310	WORD	wordpools/wasnorm_wordpool_576.txt	LTP347	ltpFR2	10	15	POLICE	1098	n/a	n/a	0	0	0
2887910	WORD	wordpools/wasnorm_wordpool_576.txt	LTP347	ltpFR2	10	15	PUPPY	1144	n/a	n/a	0	0	0
2890474	WORD	wordpools/wasnorm_wordpool_576.txt	LTP347	ltpFR2	10	15	CREATURE	403	n/a	n/a	0	0	0
2893090	WORD	wordpools/wasnorm_wordpool_576.txt	LTP347	ltpFR2	10	15	PEDAL	1037	n/a	n/a	0	0	0
2895772	WORD	wordpools/wasnorm_wordpool_576.txt	LTP347	ltpFR2	10	15	SANDWICH	1232	n/a	n/a	0	0	0
2897388	START	n/a	LTP347	ltpFR2	10	n/a	n/a	n/a	24	n/a	n/a	n/a	n/a
2898380	DISTRACTOR	n/a	LTP347	ltpFR2	10	15	n/a	n/a	n/a	n/a	0	0	0
2898387	PROB	n/a	LTP347	ltpFR2	10	n/a	n/a	n/a	24	25	9	9	7
2900203	PROB	n/a	LTP347	ltpFR2	10	n/a	n/a	n/a	24	8	3	3	1
2901436	PROB	n/a	LTP347	ltpFR2	10	n/a	n/a	n/a	24	10	4	4	2
2902702	PROB	n/a	LTP347	ltpFR2	10	n/a	n/a	n/a	24	5	3	1	1
2903751	PROB	n/a	LTP347	ltpFR2	10	n/a	n/a	n/a	24	13	1	3	9
2904851	PROB	n/a	LTP347	ltpFR2	10	n/a	n/a	n/a	24	10	4	5	1
2906000	PROB	n/a	LTP347	ltpFR2	10	n/a	n/a	n/a	24	9	7	2	1
2907250	PROB	n/a	LTP347	ltpFR2	10	n/a	n/a	n/a	24	10	2	5	3
2908682	PROB	n/a	LTP347	ltpFR2	10	n/a	n/a	n/a	24	18	2	8	8
2910282	PROB	n/a	LTP347	ltpFR2	10	n/a	n/a	n/a	24	19	7	3	9
2911498	PROB	n/a	LTP347	ltpFR2	10	n/a	n/a	n/a	24	13	1	3	9
2912847	PROB	n/a	LTP347	ltpFR2	10	n/a	n/a	n/a	24	22	9	6	7
2915596	PROB	n/a	LTP347	ltpFR2	10	n/a	n/a	n/a	24	11	8	1	2
2916762	PROB	n/a	LTP347	ltpFR2	10	n/a	n/a	n/a	24	4	1	1	2
2917695	PROB	n/a	LTP347	ltpFR2	10	n/a	n/a	n/a	24	20	9	5	6
2919511	PROB	n/a	LTP347	ltpFR2	10	n/a	n/a	n/a	24	11	4	5	2
2920904	STOP	n/a	LTP347	ltpFR2	10	n/a	n/a	n/a	24	n/a	n/a	n/a	n/a
2923144	REC_START	n/a	LTP347	ltpFR2	10	15	n/a	n/a	n/a	n/a	0	0	0
2923394	REC_WORD	wordpools/wasnorm_wordpool_576.txt	LTP347	ltpFR2	10	15	CREATURE	403	n/a	n/a	0	0	0
2924150	REC_WORD	wordpools/wasnorm_wordpool_576.txt	LTP347	ltpFR2	10	15	PEDAL	1037	n/a	n/a	0	0	0
2924762	REC_WORD	wordpools/wasnorm_wordpool_576.txt	LTP347	ltpFR2	10	15	SANDWICH	1232	n/a	n/a	0	0	0
2926713	REC_WORD	wordpools/wasnorm_wordpool_576.txt	LTP347	ltpFR2	10	15	UMPIRE	1535	n/a	n/a	0	0	0
2927338	REC_WORD	wordpools/wasnorm_wordpool_576.txt	LTP347	ltpFR2	10	15	FLAG	573	n/a	n/a	0	0	0
2928409	REC_WORD	wordpools/wasnorm_wordpool_576.txt	LTP347	ltpFR2	10	15	SLIME	1327	n/a	n/a	0	0	0
2939551	REC_WORD	wordpools/wasnorm_wordpool_576.txt	LTP347	ltpFR2	10	15	CAR	241	n/a	n/a	0	0	0
2940551	REC_WORD_VV	wordpools/wasnorm_wordpool_576.txt	LTP347	ltpFR2	10	15	<>	-1	n/a	n/a	0	0	0
2942189	REC_WORD	wordpools/wasnorm_wordpool_576.txt	LTP347	ltpFR2	10	15	PACKAGE	997	n/a	n/a	0	0	0
2943294	REC_WORD	wordpools/wasnorm_wordpool_576.txt	LTP347	ltpFR2	10	15	ARMY	39	n/a	n/a	0	0	0
2949273	REC_WORD	wordpools/wasnorm_wordpool_576.txt	LTP347	ltpFR2	10	15	ANTLER	29	n/a	n/a	0	0	0
2950273	REC_WORD_VV	wordpools/wasnorm_wordpool_576.txt	LTP347	ltpFR2	10	15	<>	-1	n/a	n/a	0	0	0
2951202	REC_WORD	wordpools/wasnorm_wordpool_576.txt	LTP347	ltpFR2	10	15	BLUEPRINT	142	n/a	n/a	0	0	0
2953252	REC_WORD	wordpools/wasnorm_wordpool_576.txt	LTP347	ltpFR2	10	15	TURNIP	1521	n/a	n/a	0	0	0
2954662	REC_WORD	wordpools/wasnorm_wordpool_576.txt	LTP347	ltpFR2	10	15	COD	340	n/a	n/a	0	0	0
2955817	REC_WORD	wordpools/wasnorm_wordpool_576.txt	LTP347	ltpFR2	10	15	PIGEON	1065	n/a	n/a	0	0	0
2956523	REC_WORD	wordpools/wasnorm_wordpool_576.txt	LTP347	ltpFR2	10	15	STOMACH	1384	n/a	n/a	0	0	0
2957533	REC_WORD	wordpools/wasnorm_wordpool_576.txt	LTP347	ltpFR2	10	15	MILDEW	893	n/a	n/a	0	0	0
2963740	REC_WORD	wordpools/wasnorm_wordpool_576.txt	LTP347	ltpFR2	10	15	STAMP	1370	n/a	n/a	0	0	0
2966342	REC_WORD	wordpools/wasnorm_wordpool_576.txt	LTP347	ltpFR2	10	15	POLICE	1098	n/a	n/a	0	0	0
2969338	REC_WORD	wordpools/wasnorm_wordpool_576.txt	LTP347	ltpFR2	10	15	MAILBOX	857	n/a	n/a	0	0	0
2970338	REC_WORD_VV	wordpools/wasnorm_wordpool_576.txt	LTP347	ltpFR2	10	15	<>	-1	n/a	n/a	0	0	0
2971027	REC_WORD	wordpools/wasnorm_wordpool_576.txt	LTP347	ltpFR2	10	15	STAPLE	1371	n/a	n/a	0	0	0
2972526	REC_WORD	wordpools/wasnorm_wordpool_576.txt	LTP347	ltpFR2	10	15	CASKET	255	n/a	n/a	0	0	0
2973992	REC_WORD	wordpools/wasnorm_wordpool_576.txt	LTP347	ltpFR2	10	15	PUPPY	1144	n/a	n/a	0	0	0
3013601	DISTRACTOR	n/a	LTP347	ltpFR2	10	16	n/a	n/a	n/a	n/a	0	0	0
3013602	START	n/a	LTP347	ltpFR2	10	n/a	n/a	n/a	25	n/a	n/a	n/a	n/a
3013618	PROB	n/a	LTP347	ltpFR2	10	n/a	n/a	n/a	25	18	3	6	9
3016600	PROB	n/a	LTP347	ltpFR2	10	n/a	n/a	n/a	25	13	3	1	9
3017650	PROB	n/a	LTP347	ltpFR2	10	n/a	n/a	n/a	25	13	6	1	6
3018883	PROB	n/a	LTP347	ltpFR2	10	n/a	n/a	n/a	25	13	1	7	5
3020348	PROB	n/a	LTP347	ltpFR2	10	n/a	n/a	n/a	25	15	5	6	4
3021631	PROB	n/a	LTP347	ltpFR2	10	n/a	n/a	n/a	25	18	8	3	7
3022797	PROB	n/a	LTP347	ltpFR2	10	n/a	n/a	n/a	25	19	9	4	6
3023931	PROB	n/a	LTP347	ltpFR2	10	n/a	n/a	n/a	25	8	1	4	3
3025413	PROB	n/a	LTP347	ltpFR2	10	n/a	n/a	n/a	25	15	2	7	6
3026612	PROB	n/a	LTP347	ltpFR2	10	n/a	n/a	n/a	25	13	6	2	5
3028761	PROB	n/a	LTP347	ltpFR2	10	n/a	n/a	n/a	25	12	6	5	2
3030127	PROB	n/a	LTP347	ltpFR2	10	n/a	n/a	n/a	25	18	4	9	5
3031993	PROB	n/a	LTP347	ltpFR2	10	n/a	n/a	n/a	25	24	9	8	7
3033576	PROB	n/a	LTP347	ltpFR2	10	n/a	n/a	n/a	25	8	3	3	2
3035009	PROB	n/a	LTP347	ltpFR2	10	n/a	n/a	n/a	25	15	6	8	1
3036674	STOP	n/a	LTP347	ltpFR2	10	n/a	n/a	n/a	25	n/a	n/a	n/a	n/a
3038773	WORD	wordpools/wasnorm_wordpool_576.txt	LTP347	ltpFR2	10	16	SERVANT	1271	n/a	n/a	0	0	0
3041272	WORD	wordpools/wasnorm_wordpool_576.txt	LTP347	ltpFR2	10	16	PEBBLE	1035	n/a	n/a	0	0	0
3043738	WORD	wordpools/wasnorm_wordpool_576.txt	LTP347	ltpFR2	10	16	SUBWAY	1400	n/a	n/a	0	0	0
3046487	WORD	wordpools/wasnorm_wordpool_576.txt	LTP347	ltpFR2	10	16	LION	827	n/a	n/a	0	0	0
3049302	WORD	wordpools/wasnorm_wordpool_576.txt	LTP347	ltpFR2	10	16	FARMER	553	n/a	n/a	0	0	0
3051918	WORD	wordpools/wasnorm_wordpool_576.txt	LTP347	ltpFR2	10	16	XEROX	1628	n/a	n/a	0	0	0
3054550	WORD	wordpools/wasnorm_wordpool_576.txt	LTP347	ltpFR2	10	16	LONDON	843	n/a	n/a	0	0	0
3057098	WORD	wordpools/wasnorm_wordpool_576.txt	LTP347	ltpFR2	10	16	PIMPLE	1071	n/a	n/a	0	0	0
3059531	WORD	wordpools/wasnorm_wordpool_576.txt	LTP347	ltpFR2	10	16	PERMIT	1051	n/a	n/a	0	0	0
3061980	WORD	wordpools/wasnorm_wordpool_576.txt	LTP347	ltpFR2	10	16	BRACES	164	n/a	n/a	0	0	0
3064645	WORD	wordpools/wasnorm_wordpool_576.txt	LTP347	ltpFR2	10	16	SMOG	1330	n/a	n/a	0	0	0
3067244	WORD	wordpools/wasnorm_wordpool_576.txt	LTP347	ltpFR2	10	16	SCARECROW	1245	n/a	n/a	0	0	0
3069726	WORD	wordpools/wasnorm_wordpool_576.txt	LTP347	ltpFR2	10	16	BARLEY	88	n/a	n/a	0	0	0
3072508	WORD	wordpools/wasnorm_wordpool_576.txt	LTP347	ltpFR2	10	16	INFANT	737	n/a	n/a	0	0	0
3074974	WORD	wordpools/wasnorm_wordpool_576.txt	LTP347	ltpFR2	10	16	PLAYGROUND	1087	n/a	n/a	0	0	0
3077473	WORD	wordpools/wasnorm_wordpool_576.txt	LTP347	ltpFR2	10	16	OMELET	976	n/a	n/a	0	0	0
3080188	WORD	wordpools/wasnorm_wordpool_576.txt	LTP347	ltpFR2	10	16	BACON	67	n/a	n/a	0	0	0
3082753	WORD	wordpools/wasnorm_wordpool_576.txt	LTP347	ltpFR2	10	16	OUTLAW	989	n/a	n/a	0	0	0
3085402	WORD	wordpools/wasnorm_wordpool_576.txt	LTP347	ltpFR2	10	16	DENTIST	447	n/a	n/a	0	0	0
3088068	WORD	wordpools/wasnorm_wordpool_576.txt	LTP347	ltpFR2	10	16	SPACE	1345	n/a	n/a	0	0	0
3090733	WORD	wordpools/wasnorm_wordpool_576.txt	LTP347	ltpFR2	10	16	FILM	565	n/a	n/a	0	0	0
3093299	WORD	wordpools/wasnorm_wordpool_576.txt	LTP347	ltpFR2	10	16	TRACTOR	1493	n/a	n/a	0	0	0
3095915	WORD	wordpools/wasnorm_wordpool_576.txt	LTP347	ltpFR2	10	16	YACHT	1629	n/a	n/a	0	0	0
3098613	WORD	wordpools/wasnorm_wordpool_576.txt	LTP347	ltpFR2	10	16	ZIPPER	1636	n/a	n/a	0	0	0
3100229	START	n/a	LTP347	ltpFR2	10	n/a	n/a	n/a	26	n/a	n/a	n/a	n/a
3101367	DISTRACTOR	n/a	LTP347	ltpFR2	10	16	n/a	n/a	n/a	n/a	0	0	0
3101378	PROB	n/a	LTP347	ltpFR2	10	n/a	n/a	n/a	26	17	1	7	9
3103294	PROB	n/a	LTP347	ltpFR2	10	n/a	n/a	n/a	26	12	4	3	5
3105110	PROB	n/a	LTP347	ltpFR2	10	n/a	n/a	n/a	26	9	2	1	6
3106359	PROB	n/a	LTP347	ltpFR2	10	n/a	n/a	n/a	26	22	9	8	6
3108943	PROB	n/a	LTP347	ltpFR2	10	n/a	n/a	n/a	26	19	5	6	8
3110474	PROB	n/a	LTP347	ltpFR2	10	n/a	n/a	n/a	26	23	8	8	7
3113290	PROB	n/a	LTP347	ltpFR2	10	n/a	n/a	n/a	26	15	1	6	8
3114756	PROB	n/a	LTP347	ltpFR2	10	n/a	n/a	n/a	26	12	5	5	2
3115873	PROB	n/a	LTP347	ltpFR2	10	n/a	n/a	n/a	26	15	8	3	4
3117538	PROB	n/a	LTP347	ltpFR2	10	n/a	n/a	n/a	26	11	9	1	1
3118637	PROB	n/a	LTP347	ltpFR2	10	n/a	n/a	n/a	26	24	9	9	6
3120803	PROB	n/a	LTP347	ltpFR2	10	n/a	n/a	n/a	26	10	5	3	2
3124228	STOP	n/a	LTP347	ltpFR2	10	n/a	n/a	n/a	26	n/a	n/a	n/a	n/a
3126151	REC_START	n/a	LTP347	ltpFR2	10	16	n/a	n/a	n/a	n/a	0	0	0
3132327	REC_WORD	wordpools/wasnorm_wordpool_576.txt	LTP347	ltpFR2	10	16	ZIPPER	1636	n/a	n/a	0	0	0
3133074	REC_WORD	wordpools/wasnorm_wordpool_576.txt	LTP347	ltpFR2	10	16	FILM	565	n/a	n/a	0	0	0
3134120	REC_WORD	wordpools/wasnorm_wordpool_576.txt	LTP347	ltpFR2	10	16	TRACTOR	1493	n/a	n/a	0	0	0
3145012	REC_WORD	wordpools/wasnorm_wordpool_576.txt	LTP347	ltpFR2	10	16	PEBBLE	1035	n/a	n/a	0	0	0
3145380	REC_WORD	wordpools/wasnorm_wordpool_576.txt	LTP347	ltpFR2	10	16	SERVANT	1271	n/a	n/a	0	0	0
3146084	REC_WORD	wordpools/wasnorm_wordpool_576.txt	LTP347	ltpFR2	10	16	SUBWAY	1400	n/a	n/a	0	0	0
3148269	REC_WORD	wordpools/wasnorm_wordpool_576.txt	LTP347	ltpFR2	10	16	LION	827	n/a	n/a	0	0	0
3151549	REC_WORD	wordpools/wasnorm_wordpool_576.txt	LTP347	ltpFR2	10	16	FARMER	553	n/a	n/a	0	0	0
3157291	REC_WORD	wordpools/wasnorm_wordpool_576.txt	LTP347	ltpFR2	10	16	PIMPLE	1071	n/a	n/a	0	0	0
3158398	REC_WORD	wordpools/wasnorm_wordpool_576.txt	LTP347	ltpFR2	10	16	XEROX	1628	n/a	n/a	0	0	0
3159398	REC_WORD_VV	wordpools/wasnorm_wordpool_576.txt	LTP347	ltpFR2	10	16	<>	-1	n/a	n/a	0	0	0
3163674	REC_WORD	wordpools/wasnorm_wordpool_576.txt	LTP347	ltpFR2	10	16	LONDON	843	n/a	n/a	0	0	0
3168152	REC_WORD	wordpools/wasnorm_wordpool_576.txt	LTP347	ltpFR2	10	16	BRACES	164	n/a	n/a	0	0	0
3169010	REC_WORD	wordpools/wasnorm_wordpool_576.txt	LTP347	ltpFR2	10	16	PERMIT	1051	n/a	n/a	0	0	0
3170413	REC_WORD	wordpools/wasnorm_wordpool_576.txt	LTP347	ltpFR2	10	16	SMOG	1330	n/a	n/a	0	0	0
3171474	REC_WORD	wordpools/wasnorm_wordpool_576.txt	LTP347	ltpFR2	10	16	SCARECROW	1245	n/a	n/a	0	0	0
3172474	REC_WORD_VV	wordpools/wasnorm_wordpool_576.txt	LTP347	ltpFR2	10	16	<>	-1	n/a	n/a	0	0	0
3178052	REC_WORD	wordpools/wasnorm_wordpool_576.txt	LTP347	ltpFR2	10	16	BARLEY	88	n/a	n/a	0	0	0
3179024	REC_WORD	wordpools/wasnorm_wordpool_576.txt	LTP347	ltpFR2	10	16	INFANT	737	n/a	n/a	0	0	0
