mstime	trial_type	stim_file	subject	experiment	session	trial	item_name	item_num	list	answer	test_x	test_y	test_z
0	SESS_START	n/a	LTP378	ltpFR2	1	n/a	n/a	n/a	n/a	n/a	0	0	0
36219	START	n/a	LTP378	ltpFR2	1	n/a	n/a	n/a	-1	n/a	n/a	n/a	n/a
36233	PROB	n/a	LTP378	ltpFR2	1	n/a	n/a	n/a	-1	11	6	4	1
37916	PROB	n/a	LTP378	ltpFR2	1	n/a	n/a	n/a	-1	22	5	8	9
41796	PROB	n/a	LTP378	ltpFR2	1	n/a	n/a	n/a	-1	13	5	5	3
43629	PROB	n/a	LTP378	ltpFR2	1	n/a	n/a	n/a	-1	7	3	3	1
45412	PROB	n/a	LTP378	ltpFR2	1	n/a	n/a	n/a	-1	18	9	4	5
47971	STOP	n/a	LTP378	ltpFR2	1	n/a	n/a	n/a	-1	n/a	n/a	n/a	n/a
112116	DISTRACTOR	n/a	LTP378	ltpFR2	1	1	n/a	n/a	n/a	n/a	0	0	0
112116	START	n/a	LTP378	ltpFR2	1	n/a	n/a	n/a	1	n/a	n/a	n/a	n/a
112132	PROB	n/a	LTP378	ltpFR2	1	n/a	n/a	n/a	1	17	5	3	9
114914	PROB	n/a	LTP378	ltpFR2	1	n/a	n/a	n/a	1	11	3	4	5
116814	PROB	n/a	LTP378	ltpFR2	1	n/a	n/a	n/a	1	10	1	4	5
119628	PROB	n/a	LTP378	ltpFR2	1	n/a	n/a	n/a	1	16	2	6	8
123127	PROB	n/a	LTP378	ltpFR2	1	n/a	n/a	n/a	1	18	6	8	4
125027	PROB	n/a	LTP378	ltpFR2	1	n/a	n/a	n/a	1	13	2	8	3
127942	PROB	n/a	LTP378	ltpFR2	1	n/a	n/a	n/a	1	15	5	9	1
129924	PROB	n/a	LTP378	ltpFR2	1	n/a	n/a	n/a	1	24	7	9	8
135406	STOP	n/a	LTP378	ltpFR2	1	n/a	n/a	n/a	1	n/a	n/a	n/a	n/a
136988	WORD	wordpools/wasnorm_wordpool_576.txt	LTP378	ltpFR2	1	1	TOMBSTONE	1478	n/a	n/a	0	0	0
139769	WORD	wordpools/wasnorm_wordpool_576.txt	LTP378	ltpFR2	1	1	DAISY	435	n/a	n/a	0	0	0
142202	WORD	wordpools/wasnorm_wordpool_576.txt	LTP378	ltpFR2	1	1	RECORD	1176	n/a	n/a	0	0	0
144667	WORD	wordpools/wasnorm_wordpool_576.txt	LTP378	ltpFR2	1	1	HONEY	713	n/a	n/a	0	0	0
147433	WORD	wordpools/wasnorm_wordpool_576.txt	LTP378	ltpFR2	1	1	BEAST	108	n/a	n/a	0	0	0
150082	WORD	wordpools/wasnorm_wordpool_576.txt	LTP378	ltpFR2	1	1	LION	827	n/a	n/a	0	0	0
152564	WORD	wordpools/wasnorm_wordpool_576.txt	LTP378	ltpFR2	1	1	PIZZA	1079	n/a	n/a	0	0	0
155246	WORD	wordpools/wasnorm_wordpool_576.txt	LTP378	ltpFR2	1	1	XEROX	1628	n/a	n/a	0	0	0
157727	WORD	wordpools/wasnorm_wordpool_576.txt	LTP378	ltpFR2	1	1	FOOT	590	n/a	n/a	0	0	0
160194	WORD	wordpools/wasnorm_wordpool_576.txt	LTP378	ltpFR2	1	1	PASTRY	1022	n/a	n/a	0	0	0
162659	WORD	wordpools/wasnorm_wordpool_576.txt	LTP378	ltpFR2	1	1	CANDY	230	n/a	n/a	0	0	0
165292	WORD	wordpools/wasnorm_wordpool_576.txt	LTP378	ltpFR2	1	1	FRAME	600	n/a	n/a	0	0	0
167789	WORD	wordpools/wasnorm_wordpool_576.txt	LTP378	ltpFR2	1	1	CASHIER	254	n/a	n/a	0	0	0
170456	WORD	wordpools/wasnorm_wordpool_576.txt	LTP378	ltpFR2	1	1	LEOPARD	812	n/a	n/a	0	0	0
172922	WORD	wordpools/wasnorm_wordpool_576.txt	LTP378	ltpFR2	1	1	ACTOR	5	n/a	n/a	0	0	0
175470	WORD	wordpools/wasnorm_wordpool_576.txt	LTP378	ltpFR2	1	1	UMPIRE	1535	n/a	n/a	0	0	0
178036	WORD	wordpools/wasnorm_wordpool_576.txt	LTP378	ltpFR2	1	1	STAKE	1368	n/a	n/a	0	0	0
180700	WORD	wordpools/wasnorm_wordpool_576.txt	LTP378	ltpFR2	1	1	AWARD	63	n/a	n/a	0	0	0
183417	WORD	wordpools/wasnorm_wordpool_576.txt	LTP378	ltpFR2	1	1	MEDAL	885	n/a	n/a	0	0	0
186082	WORD	wordpools/wasnorm_wordpool_576.txt	LTP378	ltpFR2	1	1	TRUCK	1512	n/a	n/a	0	0	0
188848	WORD	wordpools/wasnorm_wordpool_576.txt	LTP378	ltpFR2	1	1	VIKING	1565	n/a	n/a	0	0	0
191363	WORD	wordpools/wasnorm_wordpool_576.txt	LTP378	ltpFR2	1	1	TWIG	1527	n/a	n/a	0	0	0
193862	WORD	wordpools/wasnorm_wordpool_576.txt	LTP378	ltpFR2	1	1	ANTLER	29	n/a	n/a	0	0	0
196494	WORD	wordpools/wasnorm_wordpool_576.txt	LTP378	ltpFR2	1	1	DUSTPAN	509	n/a	n/a	0	0	0
198110	START	n/a	LTP378	ltpFR2	1	n/a	n/a	n/a	2	n/a	n/a	n/a	n/a
198967	DISTRACTOR	n/a	LTP378	ltpFR2	1	1	n/a	n/a	n/a	n/a	0	0	0
198976	PROB	n/a	LTP378	ltpFR2	1	n/a	n/a	n/a	2	12	2	5	5
201042	PROB	n/a	LTP378	ltpFR2	1	n/a	n/a	n/a	2	20	8	9	3
205622	PROB	n/a	LTP378	ltpFR2	1	n/a	n/a	n/a	2	15	6	1	8
207423	PROB	n/a	LTP378	ltpFR2	1	n/a	n/a	n/a	2	13	1	6	6
209022	PROB	n/a	LTP378	ltpFR2	1	n/a	n/a	n/a	2	24	8	8	8
211038	PROB	n/a	LTP378	ltpFR2	1	n/a	n/a	n/a	2	20	6	6	8
214286	PROB	n/a	LTP378	ltpFR2	1	n/a	n/a	n/a	2	20	8	6	6
218035	PROB	n/a	LTP378	ltpFR2	1	n/a	n/a	n/a	2	13	3	7	3
222110	STOP	n/a	LTP378	ltpFR2	1	n/a	n/a	n/a	2	n/a	n/a	n/a	n/a
223866	REC_START	n/a	LTP378	ltpFR2	1	1	n/a	n/a	n/a	n/a	0	0	0
225193	REC_WORD	wordpools/wasnorm_wordpool_576.txt	LTP378	ltpFR2	1	1	TOMBSTONE	1478	n/a	n/a	0	0	0
226742	REC_WORD	wordpools/wasnorm_wordpool_576.txt	LTP378	ltpFR2	1	1	DAISY	435	n/a	n/a	0	0	0
230225	REC_WORD	wordpools/wasnorm_wordpool_576.txt	LTP378	ltpFR2	1	1	HONEY	713	n/a	n/a	0	0	0
231516	REC_WORD	wordpools/wasnorm_wordpool_576.txt	LTP378	ltpFR2	1	1	BEAST	108	n/a	n/a	0	0	0
232904	REC_WORD	wordpools/wasnorm_wordpool_576.txt	LTP378	ltpFR2	1	1	LION	827	n/a	n/a	0	0	0
238452	REC_WORD	wordpools/wasnorm_wordpool_576.txt	LTP378	ltpFR2	1	1	AWARD	63	n/a	n/a	0	0	0
239573	REC_WORD	wordpools/wasnorm_wordpool_576.txt	LTP378	ltpFR2	1	1	MEDAL	885	n/a	n/a	0	0	0
242212	REC_WORD	wordpools/wasnorm_wordpool_576.txt	LTP378	ltpFR2	1	1	XEROX	1628	n/a	n/a	0	0	0
244274	REC_WORD	wordpools/wasnorm_wordpool_576.txt	LTP378	ltpFR2	1	1	PASTRY	1022	n/a	n/a	0	0	0
245496	REC_WORD	wordpools/wasnorm_wordpool_576.txt	LTP378	ltpFR2	1	1	PIZZA	1079	n/a	n/a	0	0	0
246549	REC_WORD	wordpools/wasnorm_wordpool_576.txt	LTP378	ltpFR2	1	1	FOOT	590	n/a	n/a	0	0	0
250858	REC_WORD	wordpools/wasnorm_wordpool_576.txt	LTP378	ltpFR2	1	1	TRUCK	1512	n/a	n/a	0	0	0
251999	REC_WORD	wordpools/wasnorm_wordpool_576.txt	LTP378	ltpFR2	1	1	VIKING	1565	n/a	n/a	0	0	0
253443	REC_WORD	wordpools/wasnorm_wordpool_576.txt	LTP378	ltpFR2	1	1	TWIG	1527	n/a	n/a	0	0	0
314291	DISTRACTOR	n/a	LTP378	ltpFR2	1	2	n/a	n/a	n/a	n/a	0	0	0
314291	START	n/a	LTP378	ltpFR2	1	n/a	n/a	n/a	3	n/a	n/a	n/a	n/a
314308	PROB	n/a	LTP378	ltpFR2	1	n/a	n/a	n/a	3	17	4	8	5
317156	PROB	n/a	LTP378	ltpFR2	1	n/a	n/a	n/a	3	13	9	2	2
319289	PROB	n/a	LTP378	ltpFR2	1	n/a	n/a	n/a	3	13	4	2	7
322021	PROB	n/a	LTP378	ltpFR2	1	n/a	n/a	n/a	3	13	3	7	3
324403	PROB	n/a	LTP378	ltpFR2	1	n/a	n/a	n/a	3	15	1	7	7
326386	PROB	n/a	LTP378	ltpFR2	1	n/a	n/a	n/a	3	11	3	2	6
330534	PROB	n/a	LTP378	ltpFR2	1	n/a	n/a	n/a	3	15	2	8	5
334432	PROB	n/a	LTP378	ltpFR2	1	n/a	n/a	n/a	3	14	3	4	7
336796	STOP	n/a	LTP378	ltpFR2	1	n/a	n/a	n/a	3	n/a	n/a	n/a	n/a
339463	WORD	wordpools/wasnorm_wordpool_576.txt	LTP378	ltpFR2	1	2	CREATURE	403	n/a	n/a	0	0	0
341929	WORD	wordpools/wasnorm_wordpool_576.txt	LTP378	ltpFR2	1	2	BUGGY	188	n/a	n/a	0	0	0
344427	WORD	wordpools/wasnorm_wordpool_576.txt	LTP378	ltpFR2	1	2	SLIDE	1326	n/a	n/a	0	0	0
347026	WORD	wordpools/wasnorm_wordpool_576.txt	LTP378	ltpFR2	1	2	DANDRUFF	439	n/a	n/a	0	0	0
349542	WORD	wordpools/wasnorm_wordpool_576.txt	LTP378	ltpFR2	1	2	ZEBRA	1635	n/a	n/a	0	0	0
352124	WORD	wordpools/wasnorm_wordpool_576.txt	LTP378	ltpFR2	1	2	ULCER	1533	n/a	n/a	0	0	0
354556	WORD	wordpools/wasnorm_wordpool_576.txt	LTP378	ltpFR2	1	2	FOX	598	n/a	n/a	0	0	0
357155	WORD	wordpools/wasnorm_wordpool_576.txt	LTP378	ltpFR2	1	2	TRENCH	1503	n/a	n/a	0	0	0
359753	WORD	wordpools/wasnorm_wordpool_576.txt	LTP378	ltpFR2	1	2	CAMEL	223	n/a	n/a	0	0	0
362403	WORD	wordpools/wasnorm_wordpool_576.txt	LTP378	ltpFR2	1	2	PEACH	1031	n/a	n/a	0	0	0
364852	WORD	wordpools/wasnorm_wordpool_576.txt	LTP378	ltpFR2	1	2	TROUT	1511	n/a	n/a	0	0	0
367450	WORD	wordpools/wasnorm_wordpool_576.txt	LTP378	ltpFR2	1	2	WINDOW	1611	n/a	n/a	0	0	0
369933	WORD	wordpools/wasnorm_wordpool_576.txt	LTP378	ltpFR2	1	2	SPIDER	1351	n/a	n/a	0	0	0
372614	WORD	wordpools/wasnorm_wordpool_576.txt	LTP378	ltpFR2	1	2	PEBBLE	1035	n/a	n/a	0	0	0
375114	WORD	wordpools/wasnorm_wordpool_576.txt	LTP378	ltpFR2	1	2	STONE	1385	n/a	n/a	0	0	0
377778	WORD	wordpools/wasnorm_wordpool_576.txt	LTP378	ltpFR2	1	2	DRAWING	494	n/a	n/a	0	0	0
380428	WORD	wordpools/wasnorm_wordpool_576.txt	LTP378	ltpFR2	1	2	PORTRAIT	1111	n/a	n/a	0	0	0
383143	WORD	wordpools/wasnorm_wordpool_576.txt	LTP378	ltpFR2	1	2	SCRIBBLE	1256	n/a	n/a	0	0	0
385909	WORD	wordpools/wasnorm_wordpool_576.txt	LTP378	ltpFR2	1	2	AIRPLANE	12	n/a	n/a	0	0	0
388374	WORD	wordpools/wasnorm_wordpool_576.txt	LTP378	ltpFR2	1	2	POLICE	1098	n/a	n/a	0	0	0
391090	WORD	wordpools/wasnorm_wordpool_576.txt	LTP378	ltpFR2	1	2	GUARD	667	n/a	n/a	0	0	0
393872	WORD	wordpools/wasnorm_wordpool_576.txt	LTP378	ltpFR2	1	2	CARRIAGE	248	n/a	n/a	0	0	0
396421	WORD	wordpools/wasnorm_wordpool_576.txt	LTP378	ltpFR2	1	2	LAPEL	800	n/a	n/a	0	0	0
399186	WORD	wordpools/wasnorm_wordpool_576.txt	LTP378	ltpFR2	1	2	SEAFOOD	1260	n/a	n/a	0	0	0
400801	START	n/a	LTP378	ltpFR2	1	n/a	n/a	n/a	4	n/a	n/a	n/a	n/a
401645	DISTRACTOR	n/a	LTP378	ltpFR2	1	2	n/a	n/a	n/a	n/a	0	0	0
401651	PROB	n/a	LTP378	ltpFR2	1	n/a	n/a	n/a	4	17	6	6	5
404150	PROB	n/a	LTP378	ltpFR2	1	n/a	n/a	n/a	4	22	4	9	9
409580	PROB	n/a	LTP378	ltpFR2	1	n/a	n/a	n/a	4	17	7	4	6
412447	PROB	n/a	LTP378	ltpFR2	1	n/a	n/a	n/a	4	14	9	2	3
415162	PROB	n/a	LTP378	ltpFR2	1	n/a	n/a	n/a	4	8	2	2	4
417961	PROB	n/a	LTP378	ltpFR2	1	n/a	n/a	n/a	4	25	9	9	7
423911	STOP	n/a	LTP378	ltpFR2	1	n/a	n/a	n/a	4	n/a	n/a	n/a	n/a
426740	REC_START	n/a	LTP378	ltpFR2	1	2	n/a	n/a	n/a	n/a	0	0	0
430435	REC_WORD	wordpools/wasnorm_wordpool_576.txt	LTP378	ltpFR2	1	2	BUGGY	188	n/a	n/a	0	0	0
431421	REC_WORD	wordpools/wasnorm_wordpool_576.txt	LTP378	ltpFR2	1	2	CREATURE	403	n/a	n/a	0	0	0
432798	REC_WORD	wordpools/wasnorm_wordpool_576.txt	LTP378	ltpFR2	1	2	ULCER	1533	n/a	n/a	0	0	0
433879	REC_WORD	wordpools/wasnorm_wordpool_576.txt	LTP378	ltpFR2	1	2	FOX	598	n/a	n/a	0	0	0
436539	REC_WORD	wordpools/wasnorm_wordpool_576.txt	LTP378	ltpFR2	1	2	DANDRUFF	439	n/a	n/a	0	0	0
437437	REC_WORD	wordpools/wasnorm_wordpool_576.txt	LTP378	ltpFR2	1	2	ZEBRA	1635	n/a	n/a	0	0	0
440596	REC_WORD	wordpools/wasnorm_wordpool_576.txt	LTP378	ltpFR2	1	2	TROUT	1511	n/a	n/a	0	0	0
444512	REC_WORD	wordpools/wasnorm_wordpool_576.txt	LTP378	ltpFR2	1	2	LAPEL	800	n/a	n/a	0	0	0
459717	REC_WORD	wordpools/wasnorm_wordpool_576.txt	LTP378	ltpFR2	1	2	XEROX	1628	n/a	n/a	0	0	0
466883	REC_WORD	wordpools/wasnorm_wordpool_576.txt	LTP378	ltpFR2	1	2	SUNRISE	1407	n/a	n/a	0	0	0
467883	REC_WORD_VV	wordpools/wasnorm_wordpool_576.txt	LTP378	ltpFR2	1	2	<>	-1	n/a	n/a	0	0	0
468883	REC_WORD_VV	wordpools/wasnorm_wordpool_576.txt	LTP378	ltpFR2	1	2	<>	-1	n/a	n/a	0	0	0
517166	DISTRACTOR	n/a	LTP378	ltpFR2	1	3	n/a	n/a	n/a	n/a	0	0	0
517166	START	n/a	LTP378	ltpFR2	1	n/a	n/a	n/a	5	n/a	n/a	n/a	n/a
517183	PROB	n/a	LTP378	ltpFR2	1	n/a	n/a	n/a	5	11	3	4	4
520680	PROB	n/a	LTP378	ltpFR2	1	n/a	n/a	n/a	5	15	4	4	9
522897	PROB	n/a	LTP378	ltpFR2	1	n/a	n/a	n/a	5	21	6	7	8
529311	PROB	n/a	LTP378	ltpFR2	1	n/a	n/a	n/a	5	12	2	7	3
531592	PROB	n/a	LTP378	ltpFR2	1	n/a	n/a	n/a	5	15	3	7	5
535141	PROB	n/a	LTP378	ltpFR2	1	n/a	n/a	n/a	5	21	6	7	8
541165	STOP	n/a	LTP378	ltpFR2	1	n/a	n/a	n/a	5	n/a	n/a	n/a	n/a
542321	WORD	wordpools/wasnorm_wordpool_576.txt	LTP378	ltpFR2	1	3	PERCH	1048	n/a	n/a	0	0	0
544904	WORD	wordpools/wasnorm_wordpool_576.txt	LTP378	ltpFR2	1	3	NEUTRON	947	n/a	n/a	0	0	0
547519	WORD	wordpools/wasnorm_wordpool_576.txt	LTP378	ltpFR2	1	3	TURNIP	1521	n/a	n/a	0	0	0
550235	WORD	wordpools/wasnorm_wordpool_576.txt	LTP378	ltpFR2	1	3	GARBAGE	622	n/a	n/a	0	0	0
552950	WORD	wordpools/wasnorm_wordpool_576.txt	LTP378	ltpFR2	1	3	PUDDING	1139	n/a	n/a	0	0	0
555532	WORD	wordpools/wasnorm_wordpool_576.txt	LTP378	ltpFR2	1	3	LUGGAGE	847	n/a	n/a	0	0	0
557998	WORD	wordpools/wasnorm_wordpool_576.txt	LTP378	ltpFR2	1	3	PAIL	1002	n/a	n/a	0	0	0
560762	WORD	wordpools/wasnorm_wordpool_576.txt	LTP378	ltpFR2	1	3	WASP	1593	n/a	n/a	0	0	0
563195	WORD	wordpools/wasnorm_wordpool_576.txt	LTP378	ltpFR2	1	3	DRILL	497	n/a	n/a	0	0	0
565693	WORD	wordpools/wasnorm_wordpool_576.txt	LTP378	ltpFR2	1	3	POSTAGE	1113	n/a	n/a	0	0	0
568426	WORD	wordpools/wasnorm_wordpool_576.txt	LTP378	ltpFR2	1	3	MARKER	870	n/a	n/a	0	0	0
571242	WORD	wordpools/wasnorm_wordpool_576.txt	LTP378	ltpFR2	1	3	CRAYON	401	n/a	n/a	0	0	0
574024	WORD	wordpools/wasnorm_wordpool_576.txt	LTP378	ltpFR2	1	3	COTTAGE	384	n/a	n/a	0	0	0
576638	WORD	wordpools/wasnorm_wordpool_576.txt	LTP378	ltpFR2	1	3	TOURIST	1488	n/a	n/a	0	0	0
579355	WORD	wordpools/wasnorm_wordpool_576.txt	LTP378	ltpFR2	1	3	SPONGE	1355	n/a	n/a	0	0	0
581970	WORD	wordpools/wasnorm_wordpool_576.txt	LTP378	ltpFR2	1	3	CLOUD	328	n/a	n/a	0	0	0
584601	WORD	wordpools/wasnorm_wordpool_576.txt	LTP378	ltpFR2	1	3	MUMMY	932	n/a	n/a	0	0	0
587201	WORD	wordpools/wasnorm_wordpool_576.txt	LTP378	ltpFR2	1	3	DENIM	446	n/a	n/a	0	0	0
589883	WORD	wordpools/wasnorm_wordpool_576.txt	LTP378	ltpFR2	1	3	BLOUSE	139	n/a	n/a	0	0	0
592698	WORD	wordpools/wasnorm_wordpool_576.txt	LTP378	ltpFR2	1	3	TURKEY	1520	n/a	n/a	0	0	0
595231	WORD	wordpools/wasnorm_wordpool_576.txt	LTP378	ltpFR2	1	3	STOMACH	1384	n/a	n/a	0	0	0
597779	WORD	wordpools/wasnorm_wordpool_576.txt	LTP378	ltpFR2	1	3	NAPKIN	937	n/a	n/a	0	0	0
600279	WORD	wordpools/wasnorm_wordpool_576.txt	LTP378	ltpFR2	1	3	PISTON	1076	n/a	n/a	0	0	0
603027	WORD	wordpools/wasnorm_wordpool_576.txt	LTP378	ltpFR2	1	3	POWDER	1117	n/a	n/a	0	0	0
604643	START	n/a	LTP378	ltpFR2	1	n/a	n/a	n/a	6	n/a	n/a	n/a	n/a
605771	DISTRACTOR	n/a	LTP378	ltpFR2	1	3	n/a	n/a	n/a	n/a	0	0	0
605775	PROB	n/a	LTP378	ltpFR2	1	n/a	n/a	n/a	6	16	8	7	1
608508	PROB	n/a	LTP378	ltpFR2	1	n/a	n/a	n/a	6	13	6	3	4
610524	PROB	n/a	LTP378	ltpFR2	1	n/a	n/a	n/a	6	19	4	7	8
613273	PROB	n/a	LTP378	ltpFR2	1	n/a	n/a	n/a	6	17	3	9	5
616105	PROB	n/a	LTP378	ltpFR2	1	n/a	n/a	n/a	6	22	8	7	7
619287	PROB	n/a	LTP378	ltpFR2	1	n/a	n/a	n/a	6	11	8	1	2
621236	PROB	n/a	LTP378	ltpFR2	1	n/a	n/a	n/a	6	12	3	7	2
623068	PROB	n/a	LTP378	ltpFR2	1	n/a	n/a	n/a	6	18	7	4	7
628643	STOP	n/a	LTP378	ltpFR2	1	n/a	n/a	n/a	6	n/a	n/a	n/a	n/a
630515	REC_START	n/a	LTP378	ltpFR2	1	3	n/a	n/a	n/a	n/a	0	0	0
636148	REC_WORD	wordpools/wasnorm_wordpool_576.txt	LTP378	ltpFR2	1	3	PISTON	1076	n/a	n/a	0	0	0
639675	REC_WORD	wordpools/wasnorm_wordpool_576.txt	LTP378	ltpFR2	1	3	PUDDING	1139	n/a	n/a	0	0	0
640499	REC_WORD	wordpools/wasnorm_wordpool_576.txt	LTP378	ltpFR2	1	3	LUGGAGE	847	n/a	n/a	0	0	0
642571	REC_WORD	wordpools/wasnorm_wordpool_576.txt	LTP378	ltpFR2	1	3	CARRIAGE	248	n/a	n/a	0	0	0
645927	REC_WORD	wordpools/wasnorm_wordpool_576.txt	LTP378	ltpFR2	1	3	TOURIST	1488	n/a	n/a	0	0	0
646743	REC_WORD	wordpools/wasnorm_wordpool_576.txt	LTP378	ltpFR2	1	3	COTTAGE	384	n/a	n/a	0	0	0
650551	REC_WORD	wordpools/wasnorm_wordpool_576.txt	LTP378	ltpFR2	1	3	TURKEY	1520	n/a	n/a	0	0	0
651102	REC_WORD	wordpools/wasnorm_wordpool_576.txt	LTP378	ltpFR2	1	3	STOMACH	1384	n/a	n/a	0	0	0
652013	REC_WORD	wordpools/wasnorm_wordpool_576.txt	LTP378	ltpFR2	1	3	NAPKIN	937	n/a	n/a	0	0	0
662475	REC_WORD	wordpools/wasnorm_wordpool_576.txt	LTP378	ltpFR2	1	3	NEUTRON	947	n/a	n/a	0	0	0
668257	REC_WORD	wordpools/wasnorm_wordpool_576.txt	LTP378	ltpFR2	1	3	TROUT	1511	n/a	n/a	0	0	0
684209	REC_WORD	wordpools/wasnorm_wordpool_576.txt	LTP378	ltpFR2	1	3	PUDDING	1139	n/a	n/a	0	0	0
720974	WORD	wordpools/wasnorm_wordpool_576.txt	LTP378	ltpFR2	1	4	WARDROBE	1587	n/a	n/a	0	0	0
723655	WORD	wordpools/wasnorm_wordpool_576.txt	LTP378	ltpFR2	1	4	GOBLIN	645	n/a	n/a	0	0	0
726238	WORD	wordpools/wasnorm_wordpool_576.txt	LTP378	ltpFR2	1	4	IGLOO	734	n/a	n/a	0	0	0
728920	WORD	wordpools/wasnorm_wordpool_576.txt	LTP378	ltpFR2	1	4	CABBAGE	210	n/a	n/a	0	0	0
731569	WORD	wordpools/wasnorm_wordpool_576.txt	LTP378	ltpFR2	1	4	LAMP	798	n/a	n/a	0	0	0
734235	WORD	wordpools/wasnorm_wordpool_576.txt	LTP378	ltpFR2	1	4	LASER	801	n/a	n/a	0	0	0
736850	WORD	wordpools/wasnorm_wordpool_576.txt	LTP378	ltpFR2	1	4	SPHINX	1349	n/a	n/a	0	0	0
739332	WORD	wordpools/wasnorm_wordpool_576.txt	LTP378	ltpFR2	1	4	BUREAU	199	n/a	n/a	0	0	0
742115	WORD	wordpools/wasnorm_wordpool_576.txt	LTP378	ltpFR2	1	4	SCARECROW	1245	n/a	n/a	0	0	0
744746	WORD	wordpools/wasnorm_wordpool_576.txt	LTP378	ltpFR2	1	4	DRINK	498	n/a	n/a	0	0	0
747545	WORD	wordpools/wasnorm_wordpool_576.txt	LTP378	ltpFR2	1	4	OUTDOORS	987	n/a	n/a	0	0	0
750061	WORD	wordpools/wasnorm_wordpool_576.txt	LTP378	ltpFR2	1	4	SPOOL	1356	n/a	n/a	0	0	0
752826	WORD	wordpools/wasnorm_wordpool_576.txt	LTP378	ltpFR2	1	4	PASTA	1021	n/a	n/a	0	0	0
755591	WORD	wordpools/wasnorm_wordpool_576.txt	LTP378	ltpFR2	1	4	SEAGULL	1261	n/a	n/a	0	0	0
758207	WORD	wordpools/wasnorm_wordpool_576.txt	LTP378	ltpFR2	1	4	CLAMP	316	n/a	n/a	0	0	0
760856	WORD	wordpools/wasnorm_wordpool_576.txt	LTP378	ltpFR2	1	4	TUTU	1524	n/a	n/a	0	0	0
763438	WORD	wordpools/wasnorm_wordpool_576.txt	LTP378	ltpFR2	1	4	DRESS	495	n/a	n/a	0	0	0
766070	WORD	wordpools/wasnorm_wordpool_576.txt	LTP378	ltpFR2	1	4	SCALLOP	1242	n/a	n/a	0	0	0
768618	WORD	wordpools/wasnorm_wordpool_576.txt	LTP378	ltpFR2	1	4	HOOK	715	n/a	n/a	0	0	0
771368	WORD	wordpools/wasnorm_wordpool_576.txt	LTP378	ltpFR2	1	4	CHAMPAGNE	278	n/a	n/a	0	0	0
773799	WORD	wordpools/wasnorm_wordpool_576.txt	LTP378	ltpFR2	1	4	FLASK	576	n/a	n/a	0	0	0
776466	WORD	wordpools/wasnorm_wordpool_576.txt	LTP378	ltpFR2	1	4	EXPERT	543	n/a	n/a	0	0	0
778998	WORD	wordpools/wasnorm_wordpool_576.txt	LTP378	ltpFR2	1	4	MARKET	871	n/a	n/a	0	0	0
781447	WORD	wordpools/wasnorm_wordpool_576.txt	LTP378	ltpFR2	1	4	SERVANT	1271	n/a	n/a	0	0	0
783063	START	n/a	LTP378	ltpFR2	1	n/a	n/a	n/a	7	n/a	n/a	n/a	n/a
783911	DISTRACTOR	n/a	LTP378	ltpFR2	1	4	n/a	n/a	n/a	n/a	0	0	0
783912	PROB	n/a	LTP378	ltpFR2	1	n/a	n/a	n/a	7	14	4	2	8
787178	PROB	n/a	LTP378	ltpFR2	1	n/a	n/a	n/a	7	17	7	9	1
789725	PROB	n/a	LTP378	ltpFR2	1	n/a	n/a	n/a	7	16	4	5	7
791674	PROB	n/a	LTP378	ltpFR2	1	n/a	n/a	n/a	7	14	5	2	7
793975	PROB	n/a	LTP378	ltpFR2	1	n/a	n/a	n/a	7	19	5	9	5
807063	STOP	n/a	LTP378	ltpFR2	1	n/a	n/a	n/a	7	n/a	n/a	n/a	n/a
808985	REC_START	n/a	LTP378	ltpFR2	1	4	n/a	n/a	n/a	n/a	0	0	0
814241	REC_WORD	wordpools/wasnorm_wordpool_576.txt	LTP378	ltpFR2	1	4	IGLOO	734	n/a	n/a	0	0	0
822475	REC_WORD	wordpools/wasnorm_wordpool_576.txt	LTP378	ltpFR2	1	4	GOBLIN	645	n/a	n/a	0	0	0
825091	REC_WORD	wordpools/wasnorm_wordpool_576.txt	LTP378	ltpFR2	1	4	WARDROBE	1587	n/a	n/a	0	0	0
827777	REC_WORD	wordpools/wasnorm_wordpool_576.txt	LTP378	ltpFR2	1	4	TUXEDO	1525	n/a	n/a	0	0	0
829889	REC_WORD	wordpools/wasnorm_wordpool_576.txt	LTP378	ltpFR2	1	4	DRESS	495	n/a	n/a	0	0	0
831112	REC_WORD	wordpools/wasnorm_wordpool_576.txt	LTP378	ltpFR2	1	4	TUTU	1524	n/a	n/a	0	0	0
832369	REC_WORD	wordpools/wasnorm_wordpool_576.txt	LTP378	ltpFR2	1	4	CHAMPAGNE	278	n/a	n/a	0	0	0
834042	REC_WORD	wordpools/wasnorm_wordpool_576.txt	LTP378	ltpFR2	1	4	EXPERT	543	n/a	n/a	0	0	0
843975	REC_WORD	wordpools/wasnorm_wordpool_576.txt	LTP378	ltpFR2	1	4	HOOK	715	n/a	n/a	0	0	0
844665	REC_WORD	wordpools/wasnorm_wordpool_576.txt	LTP378	ltpFR2	1	4	FLASK	576	n/a	n/a	0	0	0
899443	WORD	wordpools/wasnorm_wordpool_576.txt	LTP378	ltpFR2	1	5	COUCH	386	n/a	n/a	0	0	0
901959	WORD	wordpools/wasnorm_wordpool_576.txt	LTP378	ltpFR2	1	5	MATCH	878	n/a	n/a	0	0	0
904740	WORD	wordpools/wasnorm_wordpool_576.txt	LTP378	ltpFR2	1	5	TOASTER	1472	n/a	n/a	0	0	0
907207	WORD	wordpools/wasnorm_wordpool_576.txt	LTP378	ltpFR2	1	5	GYMNAST	675	n/a	n/a	0	0	0
909972	WORD	wordpools/wasnorm_wordpool_576.txt	LTP378	ltpFR2	1	5	FOOTBALL	591	n/a	n/a	0	0	0
912554	WORD	wordpools/wasnorm_wordpool_576.txt	LTP378	ltpFR2	1	5	BRANDY	169	n/a	n/a	0	0	0
915320	WORD	wordpools/wasnorm_wordpool_576.txt	LTP378	ltpFR2	1	5	YACHT	1629	n/a	n/a	0	0	0
917768	WORD	wordpools/wasnorm_wordpool_576.txt	LTP378	ltpFR2	1	5	MARINE	869	n/a	n/a	0	0	0
920434	WORD	wordpools/wasnorm_wordpool_576.txt	LTP378	ltpFR2	1	5	BRIEFCASE	175	n/a	n/a	0	0	0
923233	WORD	wordpools/wasnorm_wordpool_576.txt	LTP378	ltpFR2	1	5	MAPLE	866	n/a	n/a	0	0	0
925681	WORD	wordpools/wasnorm_wordpool_576.txt	LTP378	ltpFR2	1	5	WORKER	1621	n/a	n/a	0	0	0
928364	WORD	wordpools/wasnorm_wordpool_576.txt	LTP378	ltpFR2	1	5	CORAL	378	n/a	n/a	0	0	0
931046	WORD	wordpools/wasnorm_wordpool_576.txt	LTP378	ltpFR2	1	5	FIREMAN	569	n/a	n/a	0	0	0
933528	WORD	wordpools/wasnorm_wordpool_576.txt	LTP378	ltpFR2	1	5	MILDEW	893	n/a	n/a	0	0	0
936110	WORD	wordpools/wasnorm_wordpool_576.txt	LTP378	ltpFR2	1	5	CROWN	415	n/a	n/a	0	0	0
938909	WORD	wordpools/wasnorm_wordpool_576.txt	LTP378	ltpFR2	1	5	QUEEN	1149	n/a	n/a	0	0	0
941458	WORD	wordpools/wasnorm_wordpool_576.txt	LTP378	ltpFR2	1	5	PIGMENT	1066	n/a	n/a	0	0	0
943973	WORD	wordpools/wasnorm_wordpool_576.txt	LTP378	ltpFR2	1	5	CHEMIST	292	n/a	n/a	0	0	0
946489	WORD	wordpools/wasnorm_wordpool_576.txt	LTP378	ltpFR2	1	5	OFFICE	972	n/a	n/a	0	0	0
948938	WORD	wordpools/wasnorm_wordpool_576.txt	LTP378	ltpFR2	1	5	FRANCE	601	n/a	n/a	0	0	0
951370	WORD	wordpools/wasnorm_wordpool_576.txt	LTP378	ltpFR2	1	5	DRESSER	496	n/a	n/a	0	0	0
953969	WORD	wordpools/wasnorm_wordpool_576.txt	LTP378	ltpFR2	1	5	COMET	353	n/a	n/a	0	0	0
956633	WORD	wordpools/wasnorm_wordpool_576.txt	LTP378	ltpFR2	1	5	POET	1095	n/a	n/a	0	0	0
959450	WORD	wordpools/wasnorm_wordpool_576.txt	LTP378	ltpFR2	1	5	SHOVEL	1295	n/a	n/a	0	0	0
961066	START	n/a	LTP378	ltpFR2	1	n/a	n/a	n/a	8	n/a	n/a	n/a	n/a
962040	DISTRACTOR	n/a	LTP378	ltpFR2	1	5	n/a	n/a	n/a	n/a	0	0	0
962049	PROB	n/a	LTP378	ltpFR2	1	n/a	n/a	n/a	8	11	3	2	6
964730	PROB	n/a	LTP378	ltpFR2	1	n/a	n/a	n/a	8	26	9	9	8
972776	PROB	n/a	LTP378	ltpFR2	1	n/a	n/a	n/a	8	13	7	2	4
977092	PROB	n/a	LTP378	ltpFR2	1	n/a	n/a	n/a	8	17	6	5	2
985057	STOP	n/a	LTP378	ltpFR2	1	n/a	n/a	n/a	8	n/a	n/a	n/a	n/a
987021	REC_START	n/a	LTP378	ltpFR2	1	5	n/a	n/a	n/a	n/a	0	0	0
992902	REC_WORD	wordpools/wasnorm_wordpool_576.txt	LTP378	ltpFR2	1	5	COUCH	386	n/a	n/a	0	0	0
993721	REC_WORD	wordpools/wasnorm_wordpool_576.txt	LTP378	ltpFR2	1	5	MATCH	878	n/a	n/a	0	0	0
994792	REC_WORD	wordpools/wasnorm_wordpool_576.txt	LTP378	ltpFR2	1	5	TOASTER	1472	n/a	n/a	0	0	0
1012365	REC_WORD	wordpools/wasnorm_wordpool_576.txt	LTP378	ltpFR2	1	5	HONEY	713	n/a	n/a	0	0	0
1077480	WORD	wordpools/wasnorm_wordpool_576.txt	LTP378	ltpFR2	1	6	FRIAR	605	n/a	n/a	0	0	0
1080062	WORD	wordpools/wasnorm_wordpool_576.txt	LTP378	ltpFR2	1	6	COWBOY	395	n/a	n/a	0	0	0
1082760	WORD	wordpools/wasnorm_wordpool_576.txt	LTP378	ltpFR2	1	6	TRIBE	1505	n/a	n/a	0	0	0
1085260	WORD	wordpools/wasnorm_wordpool_576.txt	LTP378	ltpFR2	1	6	CANYON	235	n/a	n/a	0	0	0
1087892	WORD	wordpools/wasnorm_wordpool_576.txt	LTP378	ltpFR2	1	6	TEMPLE	1448	n/a	n/a	0	0	0
1090374	WORD	wordpools/wasnorm_wordpool_576.txt	LTP378	ltpFR2	1	6	SWITCH	1422	n/a	n/a	0	0	0
1092939	WORD	wordpools/wasnorm_wordpool_576.txt	LTP378	ltpFR2	1	6	SHORTCAKE	1292	n/a	n/a	0	0	0
1095637	WORD	wordpools/wasnorm_wordpool_576.txt	LTP378	ltpFR2	1	6	LAVA	804	n/a	n/a	0	0	0
1098154	WORD	wordpools/wasnorm_wordpool_576.txt	LTP378	ltpFR2	1	6	WHISTLE	1606	n/a	n/a	0	0	0
1100953	WORD	wordpools/wasnorm_wordpool_576.txt	LTP378	ltpFR2	1	6	THRONE	1461	n/a	n/a	0	0	0
1103717	WORD	wordpools/wasnorm_wordpool_576.txt	LTP378	ltpFR2	1	6	LONDON	843	n/a	n/a	0	0	0
1106267	WORD	wordpools/wasnorm_wordpool_576.txt	LTP378	ltpFR2	1	6	MUSTARD	935	n/a	n/a	0	0	0
1108866	WORD	wordpools/wasnorm_wordpool_576.txt	LTP378	ltpFR2	1	6	JELLO	754	n/a	n/a	0	0	0
1111365	WORD	wordpools/wasnorm_wordpool_576.txt	LTP378	ltpFR2	1	6	POCKET	1093	n/a	n/a	0	0	0
1113830	WORD	wordpools/wasnorm_wordpool_576.txt	LTP378	ltpFR2	1	6	RELISH	1183	n/a	n/a	0	0	0
1116429	WORD	wordpools/wasnorm_wordpool_576.txt	LTP378	ltpFR2	1	6	BRANCH	168	n/a	n/a	0	0	0
1119044	WORD	wordpools/wasnorm_wordpool_576.txt	LTP378	ltpFR2	1	6	SHRUB	1299	n/a	n/a	0	0	0
1121726	WORD	wordpools/wasnorm_wordpool_576.txt	LTP378	ltpFR2	1	6	TART	1436	n/a	n/a	0	0	0
1124209	WORD	wordpools/wasnorm_wordpool_576.txt	LTP378	ltpFR2	1	6	MILK	895	n/a	n/a	0	0	0
1126657	WORD	wordpools/wasnorm_wordpool_576.txt	LTP378	ltpFR2	1	6	BANK	83	n/a	n/a	0	0	0
1129140	WORD	wordpools/wasnorm_wordpool_576.txt	LTP378	ltpFR2	1	6	NOVEL	960	n/a	n/a	0	0	0
1131872	WORD	wordpools/wasnorm_wordpool_576.txt	LTP378	ltpFR2	1	6	MOP	916	n/a	n/a	0	0	0
1134437	WORD	wordpools/wasnorm_wordpool_576.txt	LTP378	ltpFR2	1	6	CRAB	397	n/a	n/a	0	0	0
1137103	WORD	wordpools/wasnorm_wordpool_576.txt	LTP378	ltpFR2	1	6	SUNRISE	1407	n/a	n/a	0	0	0
1138718	START	n/a	LTP378	ltpFR2	1	n/a	n/a	n/a	9	n/a	n/a	n/a	n/a
1139530	DISTRACTOR	n/a	LTP378	ltpFR2	1	6	n/a	n/a	n/a	n/a	0	0	0
1139535	PROB	n/a	LTP378	ltpFR2	1	n/a	n/a	n/a	9	15	3	9	3
1145349	PROB	n/a	LTP378	ltpFR2	1	n/a	n/a	n/a	9	14	3	8	3
1147565	PROB	n/a	LTP378	ltpFR2	1	n/a	n/a	n/a	9	14	3	7	4
1149947	PROB	n/a	LTP378	ltpFR2	1	n/a	n/a	n/a	9	20	5	6	9
1154794	PROB	n/a	LTP378	ltpFR2	1	n/a	n/a	n/a	9	15	2	7	6
1157877	PROB	n/a	LTP378	ltpFR2	1	n/a	n/a	n/a	9	13	3	7	3
1160176	PROB	n/a	LTP378	ltpFR2	1	n/a	n/a	n/a	9	7	2	4	1
1162327	STOP	n/a	LTP378	ltpFR2	1	n/a	n/a	n/a	9	n/a	n/a	n/a	n/a
1164640	REC_START	n/a	LTP378	ltpFR2	1	6	n/a	n/a	n/a	n/a	0	0	0
1166745	REC_WORD	wordpools/wasnorm_wordpool_576.txt	LTP378	ltpFR2	1	6	COWBOY	395	n/a	n/a	0	0	0
1167399	REC_WORD	wordpools/wasnorm_wordpool_576.txt	LTP378	ltpFR2	1	6	FRIAR	605	n/a	n/a	0	0	0
1169811	REC_WORD	wordpools/wasnorm_wordpool_576.txt	LTP378	ltpFR2	1	6	TRIBE	1505	n/a	n/a	0	0	0
1171385	REC_WORD	wordpools/wasnorm_wordpool_576.txt	LTP378	ltpFR2	1	6	CANYON	235	n/a	n/a	0	0	0
1174468	REC_WORD	wordpools/wasnorm_wordpool_576.txt	LTP378	ltpFR2	1	6	HORSE	719	n/a	n/a	0	0	0
1192771	REC_WORD	wordpools/wasnorm_wordpool_576.txt	LTP378	ltpFR2	1	6	SUNRISE	1407	n/a	n/a	0	0	0
1197291	REC_WORD	wordpools/wasnorm_wordpool_576.txt	LTP378	ltpFR2	1	6	LAGOON	795	n/a	n/a	0	0	0
1209073	REC_WORD	wordpools/wasnorm_wordpool_576.txt	LTP378	ltpFR2	1	6	SWITCH	1422	n/a	n/a	0	0	0
1218050	REC_WORD	wordpools/wasnorm_wordpool_576.txt	LTP378	ltpFR2	1	6	BRANCH	168	n/a	n/a	0	0	0
1219467	REC_WORD	wordpools/wasnorm_wordpool_576.txt	LTP378	ltpFR2	1	6	SHRUB	1299	n/a	n/a	0	0	0
1220833	REC_WORD	wordpools/wasnorm_wordpool_576.txt	LTP378	ltpFR2	1	6	TART	1436	n/a	n/a	0	0	0
1222304	REC_WORD	wordpools/wasnorm_wordpool_576.txt	LTP378	ltpFR2	1	6	LONDON	843	n/a	n/a	0	0	0
1255083	WORD	wordpools/wasnorm_wordpool_576.txt	LTP378	ltpFR2	1	7	WOMAN	1620	n/a	n/a	0	0	0
1257515	WORD	wordpools/wasnorm_wordpool_576.txt	LTP378	ltpFR2	1	7	GROUND	666	n/a	n/a	0	0	0
1260281	WORD	wordpools/wasnorm_wordpool_576.txt	LTP378	ltpFR2	1	7	JUDGE	761	n/a	n/a	0	0	0
1262728	WORD	wordpools/wasnorm_wordpool_576.txt	LTP378	ltpFR2	1	7	VICTIM	1562	n/a	n/a	0	0	0
1265478	WORD	wordpools/wasnorm_wordpool_576.txt	LTP378	ltpFR2	1	7	COIN	343	n/a	n/a	0	0	0
1268194	WORD	wordpools/wasnorm_wordpool_576.txt	LTP378	ltpFR2	1	7	INFANT	737	n/a	n/a	0	0	0
1270692	WORD	wordpools/wasnorm_wordpool_576.txt	LTP378	ltpFR2	1	7	TUNNEL	1519	n/a	n/a	0	0	0
1273408	WORD	wordpools/wasnorm_wordpool_576.txt	LTP378	ltpFR2	1	7	RUST	1219	n/a	n/a	0	0	0
1276173	WORD	wordpools/wasnorm_wordpool_576.txt	LTP378	ltpFR2	1	7	CASKET	255	n/a	n/a	0	0	0
1278621	WORD	wordpools/wasnorm_wordpool_576.txt	LTP378	ltpFR2	1	7	CHEST	295	n/a	n/a	0	0	0
1281188	WORD	wordpools/wasnorm_wordpool_576.txt	LTP378	ltpFR2	1	7	CUSTARD	429	n/a	n/a	0	0	0
1283736	WORD	wordpools/wasnorm_wordpool_576.txt	LTP378	ltpFR2	1	7	TILE	1468	n/a	n/a	0	0	0
1286502	WORD	wordpools/wasnorm_wordpool_576.txt	LTP378	ltpFR2	1	7	CRITIC	410	n/a	n/a	0	0	0
1289018	WORD	wordpools/wasnorm_wordpool_576.txt	LTP378	ltpFR2	1	7	POPCORN	1104	n/a	n/a	0	0	0
1291682	WORD	wordpools/wasnorm_wordpool_576.txt	LTP378	ltpFR2	1	7	GRAVE	658	n/a	n/a	0	0	0
1294482	WORD	wordpools/wasnorm_wordpool_576.txt	LTP378	ltpFR2	1	7	PATIENT	1024	n/a	n/a	0	0	0
1296947	WORD	wordpools/wasnorm_wordpool_576.txt	LTP378	ltpFR2	1	7	BACKBONE	66	n/a	n/a	0	0	0
1299396	WORD	wordpools/wasnorm_wordpool_576.txt	LTP378	ltpFR2	1	7	CAPTIVE	240	n/a	n/a	0	0	0
1302112	WORD	wordpools/wasnorm_wordpool_576.txt	LTP378	ltpFR2	1	7	PRIMATE	1123	n/a	n/a	0	0	0
1304894	WORD	wordpools/wasnorm_wordpool_576.txt	LTP378	ltpFR2	1	7	GHETTO	633	n/a	n/a	0	0	0
1307509	WORD	wordpools/wasnorm_wordpool_576.txt	LTP378	ltpFR2	1	7	SUMMIT	1405	n/a	n/a	0	0	0
1310141	WORD	wordpools/wasnorm_wordpool_576.txt	LTP378	ltpFR2	1	7	VALLEY	1545	n/a	n/a	0	0	0
1312756	WORD	wordpools/wasnorm_wordpool_576.txt	LTP378	ltpFR2	1	7	DRAGON	492	n/a	n/a	0	0	0
1315306	WORD	wordpools/wasnorm_wordpool_576.txt	LTP378	ltpFR2	1	7	PATROL	1027	n/a	n/a	0	0	0
1316922	START	n/a	LTP378	ltpFR2	1	n/a	n/a	n/a	10	n/a	n/a	n/a	n/a
1317975	DISTRACTOR	n/a	LTP378	ltpFR2	1	7	n/a	n/a	n/a	n/a	0	0	0
1317988	PROB	n/a	LTP378	ltpFR2	1	n/a	n/a	n/a	10	26	9	8	9
1329133	PROB	n/a	LTP378	ltpFR2	1	n/a	n/a	n/a	10	13	4	7	1
1331099	PROB	n/a	LTP378	ltpFR2	1	n/a	n/a	n/a	10	14	3	7	4
1340922	STOP	n/a	LTP378	ltpFR2	1	n/a	n/a	n/a	10	n/a	n/a	n/a	n/a
1342727	REC_START	n/a	LTP378	ltpFR2	1	7	n/a	n/a	n/a	n/a	0	0	0
1346066	REC_WORD	wordpools/wasnorm_wordpool_576.txt	LTP378	ltpFR2	1	7	DRAGON	492	n/a	n/a	0	0	0
1346889	REC_WORD	wordpools/wasnorm_wordpool_576.txt	LTP378	ltpFR2	1	7	PATROL	1027	n/a	n/a	0	0	0
1374249	REC_WORD	wordpools/wasnorm_wordpool_576.txt	LTP378	ltpFR2	1	7	WOMAN	1620	n/a	n/a	0	0	0
1380075	REC_WORD	wordpools/wasnorm_wordpool_576.txt	LTP378	ltpFR2	1	7	MUSTARD	935	n/a	n/a	0	0	0
1384731	REC_WORD	wordpools/wasnorm_wordpool_576.txt	LTP378	ltpFR2	1	7	JELLO	754	n/a	n/a	0	0	0
1401459	REC_WORD	wordpools/wasnorm_wordpool_576.txt	LTP378	ltpFR2	1	7	GRAVE	658	n/a	n/a	0	0	0
1402344	REC_WORD	wordpools/wasnorm_wordpool_576.txt	LTP378	ltpFR2	1	7	PATIENT	1024	n/a	n/a	0	0	0
1433152	DISTRACTOR	n/a	LTP378	ltpFR2	1	8	n/a	n/a	n/a	n/a	0	0	0
1433153	START	n/a	LTP378	ltpFR2	1	n/a	n/a	n/a	11	n/a	n/a	n/a	n/a
1433169	PROB	n/a	LTP378	ltpFR2	1	n/a	n/a	n/a	11	13	7	3	3
1437867	PROB	n/a	LTP378	ltpFR2	1	n/a	n/a	n/a	11	17	8	1	8
1442597	PROB	n/a	LTP378	ltpFR2	1	n/a	n/a	n/a	11	8	1	1	6
1444864	PROB	n/a	LTP378	ltpFR2	1	n/a	n/a	n/a	11	16	8	2	6
1448546	PROB	n/a	LTP378	ltpFR2	1	n/a	n/a	n/a	11	13	4	4	5
1452061	PROB	n/a	LTP378	ltpFR2	1	n/a	n/a	n/a	11	9	1	6	2
1454143	PROB	n/a	LTP378	ltpFR2	1	n/a	n/a	n/a	11	9	3	3	3
1456536	STOP	n/a	LTP378	ltpFR2	1	n/a	n/a	n/a	11	n/a	n/a	n/a	n/a
1458308	WORD	wordpools/wasnorm_wordpool_576.txt	LTP378	ltpFR2	1	8	HIKER	708	n/a	n/a	0	0	0
1460890	WORD	wordpools/wasnorm_wordpool_576.txt	LTP378	ltpFR2	1	8	PUDDLE	1140	n/a	n/a	0	0	0
1463704	WORD	wordpools/wasnorm_wordpool_576.txt	LTP378	ltpFR2	1	8	SALT	1229	n/a	n/a	0	0	0
1466221	WORD	wordpools/wasnorm_wordpool_576.txt	LTP378	ltpFR2	1	8	GARLIC	624	n/a	n/a	0	0	0
1468719	WORD	wordpools/wasnorm_wordpool_576.txt	LTP378	ltpFR2	1	8	BRAKE	166	n/a	n/a	0	0	0
1471252	WORD	wordpools/wasnorm_wordpool_576.txt	LTP378	ltpFR2	1	8	MAILBOX	857	n/a	n/a	0	0	0
1473951	WORD	wordpools/wasnorm_wordpool_576.txt	LTP378	ltpFR2	1	8	RIVER	1194	n/a	n/a	0	0	0
1476483	WORD	wordpools/wasnorm_wordpool_576.txt	LTP378	ltpFR2	1	8	ITEM	746	n/a	n/a	0	0	0
1479049	WORD	wordpools/wasnorm_wordpool_576.txt	LTP378	ltpFR2	1	8	MOTOR	922	n/a	n/a	0	0	0
1481464	WORD	wordpools/wasnorm_wordpool_576.txt	LTP378	ltpFR2	1	8	HERO	706	n/a	n/a	0	0	0
1484146	WORD	wordpools/wasnorm_wordpool_576.txt	LTP378	ltpFR2	1	8	HEADBAND	696	n/a	n/a	0	0	0
1486611	WORD	wordpools/wasnorm_wordpool_576.txt	LTP378	ltpFR2	1	8	LADY	794	n/a	n/a	0	0	0
1489127	WORD	wordpools/wasnorm_wordpool_576.txt	LTP378	ltpFR2	1	8	GRILL	661	n/a	n/a	0	0	0
1491625	WORD	wordpools/wasnorm_wordpool_576.txt	LTP378	ltpFR2	1	8	WAITRESS	1581	n/a	n/a	0	0	0
1494208	WORD	wordpools/wasnorm_wordpool_576.txt	LTP378	ltpFR2	1	8	SLIME	1327	n/a	n/a	0	0	0
1496974	WORD	wordpools/wasnorm_wordpool_576.txt	LTP378	ltpFR2	1	8	FUNGUS	614	n/a	n/a	0	0	0
1499655	WORD	wordpools/wasnorm_wordpool_576.txt	LTP378	ltpFR2	1	8	HORSE	719	n/a	n/a	0	0	0
1502088	WORD	wordpools/wasnorm_wordpool_576.txt	LTP378	ltpFR2	1	8	MARS	873	n/a	n/a	0	0	0
1504537	WORD	wordpools/wasnorm_wordpool_576.txt	LTP378	ltpFR2	1	8	SKETCH	1315	n/a	n/a	0	0	0
1506969	WORD	wordpools/wasnorm_wordpool_576.txt	LTP378	ltpFR2	1	8	PARTNER	1017	n/a	n/a	0	0	0
1509435	WORD	wordpools/wasnorm_wordpool_576.txt	LTP378	ltpFR2	1	8	KETCHUP	771	n/a	n/a	0	0	0
1512050	WORD	wordpools/wasnorm_wordpool_576.txt	LTP378	ltpFR2	1	8	FREEZER	604	n/a	n/a	0	0	0
1514849	WORD	wordpools/wasnorm_wordpool_576.txt	LTP378	ltpFR2	1	8	SUBWAY	1400	n/a	n/a	0	0	0
1517298	WORD	wordpools/wasnorm_wordpool_576.txt	LTP378	ltpFR2	1	8	SADDLE	1221	n/a	n/a	0	0	0
1518914	START	n/a	LTP378	ltpFR2	1	n/a	n/a	n/a	12	n/a	n/a	n/a	n/a
1519907	DISTRACTOR	n/a	LTP378	ltpFR2	1	8	n/a	n/a	n/a	n/a	0	0	0
1519913	PROB	n/a	LTP378	ltpFR2	1	n/a	n/a	n/a	12	18	8	5	5
1523727	PROB	n/a	LTP378	ltpFR2	1	n/a	n/a	n/a	12	16	7	6	3
1525911	PROB	n/a	LTP378	ltpFR2	1	n/a	n/a	n/a	12	13	3	2	8
1528459	PROB	n/a	LTP378	ltpFR2	1	n/a	n/a	n/a	12	19	7	4	8
1532558	PROB	n/a	LTP378	ltpFR2	1	n/a	n/a	n/a	12	18	3	7	8
1535040	PROB	n/a	LTP378	ltpFR2	1	n/a	n/a	n/a	12	8	6	1	1
1536705	PROB	n/a	LTP378	ltpFR2	1	n/a	n/a	n/a	12	16	4	5	7
1539288	PROB	n/a	LTP378	ltpFR2	1	n/a	n/a	n/a	12	17	9	1	7
1542131	STOP	n/a	LTP378	ltpFR2	1	n/a	n/a	n/a	12	n/a	n/a	n/a	n/a
1544768	REC_START	n/a	LTP378	ltpFR2	1	8	n/a	n/a	n/a	n/a	0	0	0
1568091	REC_WORD	wordpools/wasnorm_wordpool_576.txt	LTP378	ltpFR2	1	8	HONEY	713	n/a	n/a	0	0	0
1571586	REC_WORD	wordpools/wasnorm_wordpool_576.txt	LTP378	ltpFR2	1	8	PARTNER	1017	n/a	n/a	0	0	0
1572389	REC_WORD	wordpools/wasnorm_wordpool_576.txt	LTP378	ltpFR2	1	8	SKETCH	1315	n/a	n/a	0	0	0
1621318	REST_REWET	n/a	LTP378	ltpFR2	1	8	n/a	n/a	n/a	n/a	0	0	0
1723620	WORD	wordpools/wasnorm_wordpool_576.txt	LTP378	ltpFR2	1	9	SCULPTURE	1258	n/a	n/a	0	0	0
1726220	WORD	wordpools/wasnorm_wordpool_576.txt	LTP378	ltpFR2	1	9	WRENCH	1625	n/a	n/a	0	0	0
1728969	WORD	wordpools/wasnorm_wordpool_576.txt	LTP378	ltpFR2	1	9	REBEL	1172	n/a	n/a	0	0	0
1731401	WORD	wordpools/wasnorm_wordpool_576.txt	LTP378	ltpFR2	1	9	VELVET	1555	n/a	n/a	0	0	0
1734200	WORD	wordpools/wasnorm_wordpool_576.txt	LTP378	ltpFR2	1	9	PIANO	1057	n/a	n/a	0	0	0
1736781	WORD	wordpools/wasnorm_wordpool_576.txt	LTP378	ltpFR2	1	9	ELBOW	520	n/a	n/a	0	0	0
1739531	WORD	wordpools/wasnorm_wordpool_576.txt	LTP378	ltpFR2	1	9	BODY	145	n/a	n/a	0	0	0
1742313	WORD	wordpools/wasnorm_wordpool_576.txt	LTP378	ltpFR2	1	9	PORK	1108	n/a	n/a	0	0	0
1744962	WORD	wordpools/wasnorm_wordpool_576.txt	LTP378	ltpFR2	1	9	FEMALE	559	n/a	n/a	0	0	0
1747511	WORD	wordpools/wasnorm_wordpool_576.txt	LTP378	ltpFR2	1	9	SOFTBALL	1343	n/a	n/a	0	0	0
1750309	WORD	wordpools/wasnorm_wordpool_576.txt	LTP378	ltpFR2	1	9	CATCHER	258	n/a	n/a	0	0	0
1752941	WORD	wordpools/wasnorm_wordpool_576.txt	LTP378	ltpFR2	1	9	RADISH	1158	n/a	n/a	0	0	0
1755557	WORD	wordpools/wasnorm_wordpool_576.txt	LTP378	ltpFR2	1	9	SIBLING	1301	n/a	n/a	0	0	0
1758172	WORD	wordpools/wasnorm_wordpool_576.txt	LTP378	ltpFR2	1	9	BOX	159	n/a	n/a	0	0	0
1760804	WORD	wordpools/wasnorm_wordpool_576.txt	LTP378	ltpFR2	1	9	HOSTESS	723	n/a	n/a	0	0	0
1763403	WORD	wordpools/wasnorm_wordpool_576.txt	LTP378	ltpFR2	1	9	PAPER	1011	n/a	n/a	0	0	0
1766186	WORD	wordpools/wasnorm_wordpool_576.txt	LTP378	ltpFR2	1	9	LETTUCE	814	n/a	n/a	0	0	0
1768901	WORD	wordpools/wasnorm_wordpool_576.txt	LTP378	ltpFR2	1	9	BLADE	134	n/a	n/a	0	0	0
1771550	WORD	wordpools/wasnorm_wordpool_576.txt	LTP378	ltpFR2	1	9	SCALPEL	1243	n/a	n/a	0	0	0
1774165	WORD	wordpools/wasnorm_wordpool_576.txt	LTP378	ltpFR2	1	9	OINTMENT	974	n/a	n/a	0	0	0
1776696	WORD	wordpools/wasnorm_wordpool_576.txt	LTP378	ltpFR2	1	9	PALACE	1006	n/a	n/a	0	0	0
1779146	WORD	wordpools/wasnorm_wordpool_576.txt	LTP378	ltpFR2	1	9	UNCLE	1536	n/a	n/a	0	0	0
1781928	WORD	wordpools/wasnorm_wordpool_576.txt	LTP378	ltpFR2	1	9	LOVER	846	n/a	n/a	0	0	0
1784494	WORD	wordpools/wasnorm_wordpool_576.txt	LTP378	ltpFR2	1	9	FLIPPER	580	n/a	n/a	0	0	0
1786110	START	n/a	LTP378	ltpFR2	1	n/a	n/a	n/a	13	n/a	n/a	n/a	n/a
1787066	DISTRACTOR	n/a	LTP378	ltpFR2	1	9	n/a	n/a	n/a	n/a	0	0	0
1787093	PROB	n/a	LTP378	ltpFR2	1	n/a	n/a	n/a	13	18	7	2	9
1793573	PROB	n/a	LTP378	ltpFR2	1	n/a	n/a	n/a	13	7	2	2	3
1796687	PROB	n/a	LTP378	ltpFR2	1	n/a	n/a	n/a	13	19	5	7	7
1800470	PROB	n/a	LTP378	ltpFR2	1	n/a	n/a	n/a	13	12	3	3	6
1804518	PROB	n/a	LTP378	ltpFR2	1	n/a	n/a	n/a	13	14	2	4	8
1810109	STOP	n/a	LTP378	ltpFR2	1	n/a	n/a	n/a	13	n/a	n/a	n/a	n/a
1811899	REC_START	n/a	LTP378	ltpFR2	1	9	n/a	n/a	n/a	n/a	0	0	0
1813688	REC_WORD	wordpools/wasnorm_wordpool_576.txt	LTP378	ltpFR2	1	9	SCULPTURE	1258	n/a	n/a	0	0	0
1835922	REC_WORD	wordpools/wasnorm_wordpool_576.txt	LTP378	ltpFR2	1	9	PORK	1108	n/a	n/a	0	0	0
1836779	REC_WORD	wordpools/wasnorm_wordpool_576.txt	LTP378	ltpFR2	1	9	WOMAN	1620	n/a	n/a	0	0	0
1838072	REC_WORD	wordpools/wasnorm_wordpool_576.txt	LTP378	ltpFR2	1	9	SOFTBALL	1343	n/a	n/a	0	0	0
1839471	REC_WORD	wordpools/wasnorm_wordpool_576.txt	LTP378	ltpFR2	1	9	CATCHER	258	n/a	n/a	0	0	0
1872976	REC_WORD	wordpools/wasnorm_wordpool_576.txt	LTP378	ltpFR2	1	9	PAPER	1011	n/a	n/a	0	0	0
1902324	DISTRACTOR	n/a	LTP378	ltpFR2	1	10	n/a	n/a	n/a	n/a	0	0	0
1902324	START	n/a	LTP378	ltpFR2	1	n/a	n/a	n/a	14	n/a	n/a	n/a	n/a
1902341	PROB	n/a	LTP378	ltpFR2	1	n/a	n/a	n/a	14	10	4	4	2
1905139	PROB	n/a	LTP378	ltpFR2	1	n/a	n/a	n/a	14	14	6	1	7
1908753	PROB	n/a	LTP378	ltpFR2	1	n/a	n/a	n/a	14	22	7	8	7
1914435	PROB	n/a	LTP378	ltpFR2	1	n/a	n/a	n/a	14	22	5	8	9
1926324	STOP	n/a	LTP378	ltpFR2	1	n/a	n/a	n/a	14	n/a	n/a	n/a	n/a
1927363	WORD	wordpools/wasnorm_wordpool_576.txt	LTP378	ltpFR2	1	10	BROOK	177	n/a	n/a	0	0	0
1930011	WORD	wordpools/wasnorm_wordpool_576.txt	LTP378	ltpFR2	1	10	GIRL	637	n/a	n/a	0	0	0
1932527	WORD	wordpools/wasnorm_wordpool_576.txt	LTP378	ltpFR2	1	10	SIDEWALK	1303	n/a	n/a	0	0	0
1935143	WORD	wordpools/wasnorm_wordpool_576.txt	LTP378	ltpFR2	1	10	KITCHEN	778	n/a	n/a	0	0	0
1937757	WORD	wordpools/wasnorm_wordpool_576.txt	LTP378	ltpFR2	1	10	CUPBOARD	425	n/a	n/a	0	0	0
1940507	WORD	wordpools/wasnorm_wordpool_576.txt	LTP378	ltpFR2	1	10	BOUQUET	157	n/a	n/a	0	0	0
1943139	WORD	wordpools/wasnorm_wordpool_576.txt	LTP378	ltpFR2	1	10	CITRUS	313	n/a	n/a	0	0	0
1945888	WORD	wordpools/wasnorm_wordpool_576.txt	LTP378	ltpFR2	1	10	HORNET	718	n/a	n/a	0	0	0
1948503	WORD	wordpools/wasnorm_wordpool_576.txt	LTP378	ltpFR2	1	10	FOREHEAD	592	n/a	n/a	0	0	0
1951102	WORD	wordpools/wasnorm_wordpool_576.txt	LTP378	ltpFR2	1	10	SODA	1341	n/a	n/a	0	0	0
1953633	WORD	wordpools/wasnorm_wordpool_576.txt	LTP378	ltpFR2	1	10	BREAST	171	n/a	n/a	0	0	0
1956366	WORD	wordpools/wasnorm_wordpool_576.txt	LTP378	ltpFR2	1	10	PERFUME	1049	n/a	n/a	0	0	0
1959098	WORD	wordpools/wasnorm_wordpool_576.txt	LTP378	ltpFR2	1	10	COOKBOOK	373	n/a	n/a	0	0	0
1961596	WORD	wordpools/wasnorm_wordpool_576.txt	LTP378	ltpFR2	1	10	SUPPER	1411	n/a	n/a	0	0	0
1964146	WORD	wordpools/wasnorm_wordpool_576.txt	LTP378	ltpFR2	1	10	SPOON	1357	n/a	n/a	0	0	0
1966727	WORD	wordpools/wasnorm_wordpool_576.txt	LTP378	ltpFR2	1	10	WIDOW	1608	n/a	n/a	0	0	0
1969477	WORD	wordpools/wasnorm_wordpool_576.txt	LTP378	ltpFR2	1	10	PEPPER	1047	n/a	n/a	0	0	0
1972109	WORD	wordpools/wasnorm_wordpool_576.txt	LTP378	ltpFR2	1	10	SHARK	1275	n/a	n/a	0	0	0
1974558	WORD	wordpools/wasnorm_wordpool_576.txt	LTP378	ltpFR2	1	10	LAKE	796	n/a	n/a	0	0	0
1977107	WORD	wordpools/wasnorm_wordpool_576.txt	LTP378	ltpFR2	1	10	GRAVEL	659	n/a	n/a	0	0	0
1979839	WORD	wordpools/wasnorm_wordpool_576.txt	LTP378	ltpFR2	1	10	KNAPSACK	783	n/a	n/a	0	0	0
1982438	WORD	wordpools/wasnorm_wordpool_576.txt	LTP378	ltpFR2	1	10	MATTRESS	879	n/a	n/a	0	0	0
1985153	WORD	wordpools/wasnorm_wordpool_576.txt	LTP378	ltpFR2	1	10	ORANGE	980	n/a	n/a	0	0	0
1987852	WORD	wordpools/wasnorm_wordpool_576.txt	LTP378	ltpFR2	1	10	QUARTER	1148	n/a	n/a	0	0	0
1989468	START	n/a	LTP378	ltpFR2	1	n/a	n/a	n/a	15	n/a	n/a	n/a	n/a
1990460	DISTRACTOR	n/a	LTP378	ltpFR2	1	10	n/a	n/a	n/a	n/a	0	0	0
1990468	PROB	n/a	LTP378	ltpFR2	1	n/a	n/a	n/a	15	22	7	8	7
1993366	PROB	n/a	LTP378	ltpFR2	1	n/a	n/a	n/a	15	13	7	5	1
1996565	PROB	n/a	LTP378	ltpFR2	1	n/a	n/a	n/a	15	13	1	5	7
1998147	PROB	n/a	LTP378	ltpFR2	1	n/a	n/a	n/a	15	8	1	2	5
2001163	PROB	n/a	LTP378	ltpFR2	1	n/a	n/a	n/a	15	14	5	7	2
2003611	PROB	n/a	LTP378	ltpFR2	1	n/a	n/a	n/a	15	12	1	5	6
2005211	PROB	n/a	LTP378	ltpFR2	1	n/a	n/a	n/a	15	6	1	1	4
2008459	PROB	n/a	LTP378	ltpFR2	1	n/a	n/a	n/a	15	20	7	7	6
2013467	STOP	n/a	LTP378	ltpFR2	1	n/a	n/a	n/a	15	n/a	n/a	n/a	n/a
2015390	REC_START	n/a	LTP378	ltpFR2	1	10	n/a	n/a	n/a	n/a	0	0	0
2024307	REC_WORD	wordpools/wasnorm_wordpool_576.txt	LTP378	ltpFR2	1	10	BROOK	177	n/a	n/a	0	0	0
2027684	REC_WORD	wordpools/wasnorm_wordpool_576.txt	LTP378	ltpFR2	1	10	SIDEWALK	1303	n/a	n/a	0	0	0
2031114	REC_WORD	wordpools/wasnorm_wordpool_576.txt	LTP378	ltpFR2	1	10	WOMAN	1620	n/a	n/a	0	0	0
2047529	REC_WORD	wordpools/wasnorm_wordpool_576.txt	LTP378	ltpFR2	1	10	BOUQUET	157	n/a	n/a	0	0	0
2049548	REC_WORD	wordpools/wasnorm_wordpool_576.txt	LTP378	ltpFR2	1	10	HORNET	718	n/a	n/a	0	0	0
2052108	REC_WORD	wordpools/wasnorm_wordpool_576.txt	LTP378	ltpFR2	1	10	CUPBOARD	425	n/a	n/a	0	0	0
2059536	REC_WORD	wordpools/wasnorm_wordpool_576.txt	LTP378	ltpFR2	1	10	ORANGE	980	n/a	n/a	0	0	0
2062835	REC_WORD	wordpools/wasnorm_wordpool_576.txt	LTP378	ltpFR2	1	10	MATTRESS	879	n/a	n/a	0	0	0
2066071	REC_WORD	wordpools/wasnorm_wordpool_576.txt	LTP378	ltpFR2	1	10	STING	-1	n/a	n/a	0	0	0
2105849	DISTRACTOR	n/a	LTP378	ltpFR2	1	11	n/a	n/a	n/a	n/a	0	0	0
2105849	START	n/a	LTP378	ltpFR2	1	n/a	n/a	n/a	16	n/a	n/a	n/a	n/a
2105865	PROB	n/a	LTP378	ltpFR2	1	n/a	n/a	n/a	16	22	5	8	9
2109814	PROB	n/a	LTP378	ltpFR2	1	n/a	n/a	n/a	16	15	3	7	5
2112778	PROB	n/a	LTP378	ltpFR2	1	n/a	n/a	n/a	16	10	3	2	5
2115760	PROB	n/a	LTP378	ltpFR2	1	n/a	n/a	n/a	16	18	4	5	9
2118243	PROB	n/a	LTP378	ltpFR2	1	n/a	n/a	n/a	16	13	7	2	4
2121641	PROB	n/a	LTP378	ltpFR2	1	n/a	n/a	n/a	16	17	9	5	3
2124190	PROB	n/a	LTP378	ltpFR2	1	n/a	n/a	n/a	16	13	7	5	1
2129849	STOP	n/a	LTP378	ltpFR2	1	n/a	n/a	n/a	16	n/a	n/a	n/a	n/a
2130904	WORD	wordpools/wasnorm_wordpool_576.txt	LTP378	ltpFR2	1	11	PROTON	1132	n/a	n/a	0	0	0
2133570	WORD	wordpools/wasnorm_wordpool_576.txt	LTP378	ltpFR2	1	11	CAFE	216	n/a	n/a	0	0	0
2136318	WORD	wordpools/wasnorm_wordpool_576.txt	LTP378	ltpFR2	1	11	SHELTER	1282	n/a	n/a	0	0	0
2139100	WORD	wordpools/wasnorm_wordpool_576.txt	LTP378	ltpFR2	1	11	MONEY	908	n/a	n/a	0	0	0
2141916	WORD	wordpools/wasnorm_wordpool_576.txt	LTP378	ltpFR2	1	11	SKILLET	1317	n/a	n/a	0	0	0
2144465	WORD	wordpools/wasnorm_wordpool_576.txt	LTP378	ltpFR2	1	11	BRICK	172	n/a	n/a	0	0	0
2146930	WORD	wordpools/wasnorm_wordpool_576.txt	LTP378	ltpFR2	1	11	PUPIL	1143	n/a	n/a	0	0	0
2149396	WORD	wordpools/wasnorm_wordpool_576.txt	LTP378	ltpFR2	1	11	SUNSET	1408	n/a	n/a	0	0	0
2151945	WORD	wordpools/wasnorm_wordpool_576.txt	LTP378	ltpFR2	1	11	BROTHER	179	n/a	n/a	0	0	0
2154709	WORD	wordpools/wasnorm_wordpool_576.txt	LTP378	ltpFR2	1	11	EUROPE	541	n/a	n/a	0	0	0
2157409	WORD	wordpools/wasnorm_wordpool_576.txt	LTP378	ltpFR2	1	11	JAPAN	749	n/a	n/a	0	0	0
2160208	WORD	wordpools/wasnorm_wordpool_576.txt	LTP378	ltpFR2	1	11	RIFLE	1192	n/a	n/a	0	0	0
2162755	WORD	wordpools/wasnorm_wordpool_576.txt	LTP378	ltpFR2	1	11	EMPIRE	530	n/a	n/a	0	0	0
2165272	WORD	wordpools/wasnorm_wordpool_576.txt	LTP378	ltpFR2	1	11	MASK	876	n/a	n/a	0	0	0
2167720	WORD	wordpools/wasnorm_wordpool_576.txt	LTP378	ltpFR2	1	11	HOOD	714	n/a	n/a	0	0	0
2170253	WORD	wordpools/wasnorm_wordpool_576.txt	LTP378	ltpFR2	1	11	MESSAGE	888	n/a	n/a	0	0	0
2172968	WORD	wordpools/wasnorm_wordpool_576.txt	LTP378	ltpFR2	1	11	POISON	1096	n/a	n/a	0	0	0
2175749	WORD	wordpools/wasnorm_wordpool_576.txt	LTP378	ltpFR2	1	11	SNAKE	1333	n/a	n/a	0	0	0
2178266	WORD	wordpools/wasnorm_wordpool_576.txt	LTP378	ltpFR2	1	11	FARMER	553	n/a	n/a	0	0	0
2180881	WORD	wordpools/wasnorm_wordpool_576.txt	LTP378	ltpFR2	1	11	COBRA	336	n/a	n/a	0	0	0
2183646	WORD	wordpools/wasnorm_wordpool_576.txt	LTP378	ltpFR2	1	11	CARROT	249	n/a	n/a	0	0	0
2186279	WORD	wordpools/wasnorm_wordpool_576.txt	LTP378	ltpFR2	1	11	STOVE	1388	n/a	n/a	0	0	0
2188828	WORD	wordpools/wasnorm_wordpool_576.txt	LTP378	ltpFR2	1	11	LEG	809	n/a	n/a	0	0	0
2191543	WORD	wordpools/wasnorm_wordpool_576.txt	LTP378	ltpFR2	1	11	MEAT	883	n/a	n/a	0	0	0
2193160	START	n/a	LTP378	ltpFR2	1	n/a	n/a	n/a	17	n/a	n/a	n/a	n/a
2194148	DISTRACTOR	n/a	LTP378	ltpFR2	1	11	n/a	n/a	n/a	n/a	0	0	0
2194159	PROB	n/a	LTP378	ltpFR2	1	n/a	n/a	n/a	17	12	6	2	4
2196391	PROB	n/a	LTP378	ltpFR2	1	n/a	n/a	n/a	17	15	5	6	4
2200523	PROB	n/a	LTP378	ltpFR2	1	n/a	n/a	n/a	17	16	4	9	3
2204238	PROB	n/a	LTP378	ltpFR2	1	n/a	n/a	n/a	17	15	6	4	5
2206669	PROB	n/a	LTP378	ltpFR2	1	n/a	n/a	n/a	17	19	7	3	9
2217160	STOP	n/a	LTP378	ltpFR2	1	n/a	n/a	n/a	17	n/a	n/a	n/a	n/a
2218948	REC_START	n/a	LTP378	ltpFR2	1	11	n/a	n/a	n/a	n/a	0	0	0
2226622	REC_WORD	wordpools/wasnorm_wordpool_576.txt	LTP378	ltpFR2	1	11	EUROPE	541	n/a	n/a	0	0	0
2227459	REC_WORD	wordpools/wasnorm_wordpool_576.txt	LTP378	ltpFR2	1	11	JAPAN	749	n/a	n/a	0	0	0
2228662	REC_WORD	wordpools/wasnorm_wordpool_576.txt	LTP378	ltpFR2	1	11	RIFLE	1192	n/a	n/a	0	0	0
2233511	REC_WORD	wordpools/wasnorm_wordpool_576.txt	LTP378	ltpFR2	1	11	SNAKE	1333	n/a	n/a	0	0	0
2234360	REC_WORD	wordpools/wasnorm_wordpool_576.txt	LTP378	ltpFR2	1	11	POISON	1096	n/a	n/a	0	0	0
2235159	REC_WORD	wordpools/wasnorm_wordpool_576.txt	LTP378	ltpFR2	1	11	MESSAGE	888	n/a	n/a	0	0	0
2235945	REC_WORD	wordpools/wasnorm_wordpool_576.txt	LTP378	ltpFR2	1	11	COBRA	336	n/a	n/a	0	0	0
2261992	REC_WORD	wordpools/wasnorm_wordpool_576.txt	LTP378	ltpFR2	1	11	PROTON	1132	n/a	n/a	0	0	0
2262931	REC_WORD	wordpools/wasnorm_wordpool_576.txt	LTP378	ltpFR2	1	11	CAFE	216	n/a	n/a	0	0	0
2269657	REC_WORD	wordpools/wasnorm_wordpool_576.txt	LTP378	ltpFR2	1	11	SKILLET	1317	n/a	n/a	0	0	0
2309407	WORD	wordpools/wasnorm_wordpool_576.txt	LTP378	ltpFR2	1	12	BANQUET	86	n/a	n/a	0	0	0
2312089	WORD	wordpools/wasnorm_wordpool_576.txt	LTP378	ltpFR2	1	12	PLATE	1086	n/a	n/a	0	0	0
2314770	WORD	wordpools/wasnorm_wordpool_576.txt	LTP378	ltpFR2	1	12	BUTCHER	203	n/a	n/a	0	0	0
2317486	WORD	wordpools/wasnorm_wordpool_576.txt	LTP378	ltpFR2	1	12	GALLON	618	n/a	n/a	0	0	0
2320069	WORD	wordpools/wasnorm_wordpool_576.txt	LTP378	ltpFR2	1	12	CYCLONE	431	n/a	n/a	0	0	0
2322700	WORD	wordpools/wasnorm_wordpool_576.txt	LTP378	ltpFR2	1	12	SWIMMER	1420	n/a	n/a	0	0	0
2325250	WORD	wordpools/wasnorm_wordpool_576.txt	LTP378	ltpFR2	1	12	LIVER	833	n/a	n/a	0	0	0
2327998	WORD	wordpools/wasnorm_wordpool_576.txt	LTP378	ltpFR2	1	12	CHILD	299	n/a	n/a	0	0	0
2330547	WORD	wordpools/wasnorm_wordpool_576.txt	LTP378	ltpFR2	1	12	TRACTOR	1493	n/a	n/a	0	0	0
2333213	WORD	wordpools/wasnorm_wordpool_576.txt	LTP378	ltpFR2	1	12	ORCHID	982	n/a	n/a	0	0	0
2335644	WORD	wordpools/wasnorm_wordpool_576.txt	LTP378	ltpFR2	1	12	SPOUSE	1358	n/a	n/a	0	0	0
2338077	WORD	wordpools/wasnorm_wordpool_576.txt	LTP378	ltpFR2	1	12	PLUTO	1092	n/a	n/a	0	0	0
2340575	WORD	wordpools/wasnorm_wordpool_576.txt	LTP378	ltpFR2	1	12	SHERIFF	1284	n/a	n/a	0	0	0
2343358	WORD	wordpools/wasnorm_wordpool_576.txt	LTP378	ltpFR2	1	12	BLOCKADE	137	n/a	n/a	0	0	0
2346140	WORD	wordpools/wasnorm_wordpool_576.txt	LTP378	ltpFR2	1	12	CONTRACT	368	n/a	n/a	0	0	0
2348906	WORD	wordpools/wasnorm_wordpool_576.txt	LTP378	ltpFR2	1	12	PEDAL	1037	n/a	n/a	0	0	0
2351720	WORD	wordpools/wasnorm_wordpool_576.txt	LTP378	ltpFR2	1	12	HUSBAND	728	n/a	n/a	0	0	0
2354403	WORD	wordpools/wasnorm_wordpool_576.txt	LTP378	ltpFR2	1	12	BURGLAR	200	n/a	n/a	0	0	0
2356952	WORD	wordpools/wasnorm_wordpool_576.txt	LTP378	ltpFR2	1	12	FILM	565	n/a	n/a	0	0	0
2359683	WORD	wordpools/wasnorm_wordpool_576.txt	LTP378	ltpFR2	1	12	HEDGE	699	n/a	n/a	0	0	0
2362316	WORD	wordpools/wasnorm_wordpool_576.txt	LTP378	ltpFR2	1	12	BADGE	68	n/a	n/a	0	0	0
2365082	WORD	wordpools/wasnorm_wordpool_576.txt	LTP378	ltpFR2	1	12	FLAG	573	n/a	n/a	0	0	0
2367629	WORD	wordpools/wasnorm_wordpool_576.txt	LTP378	ltpFR2	1	12	STATUE	1374	n/a	n/a	0	0	0
2370346	WORD	wordpools/wasnorm_wordpool_576.txt	LTP378	ltpFR2	1	12	IDOL	733	n/a	n/a	0	0	0
2371962	START	n/a	LTP378	ltpFR2	1	n/a	n/a	n/a	18	n/a	n/a	n/a	n/a
2372897	DISTRACTOR	n/a	LTP378	ltpFR2	1	12	n/a	n/a	n/a	n/a	0	0	0
2372911	PROB	n/a	LTP378	ltpFR2	1	n/a	n/a	n/a	18	16	8	4	4
2376659	PROB	n/a	LTP378	ltpFR2	1	n/a	n/a	n/a	18	15	4	9	2
2380125	PROB	n/a	LTP378	ltpFR2	1	n/a	n/a	n/a	18	16	7	8	1
2382274	PROB	n/a	LTP378	ltpFR2	1	n/a	n/a	n/a	18	25	9	8	8
2386838	PROB	n/a	LTP378	ltpFR2	1	n/a	n/a	n/a	18	24	9	7	8
2395962	STOP	n/a	LTP378	ltpFR2	1	n/a	n/a	n/a	18	n/a	n/a	n/a	n/a
2397766	REC_START	n/a	LTP378	ltpFR2	1	12	n/a	n/a	n/a	n/a	0	0	0
2399446	REC_WORD	wordpools/wasnorm_wordpool_576.txt	LTP378	ltpFR2	1	12	BANQUET	86	n/a	n/a	0	0	0
2400535	REC_WORD	wordpools/wasnorm_wordpool_576.txt	LTP378	ltpFR2	1	12	PLATE	1086	n/a	n/a	0	0	0
2421875	REC_WORD	wordpools/wasnorm_wordpool_576.txt	LTP378	ltpFR2	1	12	FARMER	553	n/a	n/a	0	0	0
2432432	REC_WORD	wordpools/wasnorm_wordpool_576.txt	LTP378	ltpFR2	1	12	HEDGE	699	n/a	n/a	0	0	0
2434905	REC_WORD	wordpools/wasnorm_wordpool_576.txt	LTP378	ltpFR2	1	12	FLAG	573	n/a	n/a	0	0	0
2439147	REC_WORD	wordpools/wasnorm_wordpool_576.txt	LTP378	ltpFR2	1	12	BADGE	68	n/a	n/a	0	0	0
2440706	REC_WORD	wordpools/wasnorm_wordpool_576.txt	LTP378	ltpFR2	1	12	FILM	565	n/a	n/a	0	0	0
2488209	WORD	wordpools/wasnorm_wordpool_576.txt	LTP378	ltpFR2	1	13	FLASHLIGHT	575	n/a	n/a	0	0	0
2491025	WORD	wordpools/wasnorm_wordpool_576.txt	LTP378	ltpFR2	1	13	BARLEY	88	n/a	n/a	0	0	0
2493457	WORD	wordpools/wasnorm_wordpool_576.txt	LTP378	ltpFR2	1	13	PARSLEY	1016	n/a	n/a	0	0	0
2496189	WORD	wordpools/wasnorm_wordpool_576.txt	LTP378	ltpFR2	1	13	COUNTRY	388	n/a	n/a	0	0	0
2498620	WORD	wordpools/wasnorm_wordpool_576.txt	LTP378	ltpFR2	1	13	GAVEL	627	n/a	n/a	0	0	0
2501353	WORD	wordpools/wasnorm_wordpool_576.txt	LTP378	ltpFR2	1	13	MOTEL	919	n/a	n/a	0	0	0
2503869	WORD	wordpools/wasnorm_wordpool_576.txt	LTP378	ltpFR2	1	13	LODGE	839	n/a	n/a	0	0	0
2506501	WORD	wordpools/wasnorm_wordpool_576.txt	LTP378	ltpFR2	1	13	ANKLE	24	n/a	n/a	0	0	0
2509333	WORD	wordpools/wasnorm_wordpool_576.txt	LTP378	ltpFR2	1	13	FRIEND	606	n/a	n/a	0	0	0
2511865	WORD	wordpools/wasnorm_wordpool_576.txt	LTP378	ltpFR2	1	13	SISTER	1312	n/a	n/a	0	0	0
2514663	WORD	wordpools/wasnorm_wordpool_576.txt	LTP378	ltpFR2	1	13	THIEF	1456	n/a	n/a	0	0	0
2517263	WORD	wordpools/wasnorm_wordpool_576.txt	LTP378	ltpFR2	1	13	APPLE	33	n/a	n/a	0	0	0
2519962	WORD	wordpools/wasnorm_wordpool_576.txt	LTP378	ltpFR2	1	13	CIGAR	308	n/a	n/a	0	0	0
2522626	WORD	wordpools/wasnorm_wordpool_576.txt	LTP378	ltpFR2	1	13	SALAD	1224	n/a	n/a	0	0	0
2525109	WORD	wordpools/wasnorm_wordpool_576.txt	LTP378	ltpFR2	1	13	EGYPT	519	n/a	n/a	0	0	0
2527790	WORD	wordpools/wasnorm_wordpool_576.txt	LTP378	ltpFR2	1	13	SUSPECT	1415	n/a	n/a	0	0	0
2530490	WORD	wordpools/wasnorm_wordpool_576.txt	LTP378	ltpFR2	1	13	DRUG	501	n/a	n/a	0	0	0
2532922	WORD	wordpools/wasnorm_wordpool_576.txt	LTP378	ltpFR2	1	13	BRACES	164	n/a	n/a	0	0	0
2535421	WORD	wordpools/wasnorm_wordpool_576.txt	LTP378	ltpFR2	1	13	BLACKBOARD	133	n/a	n/a	0	0	0
2538053	WORD	wordpools/wasnorm_wordpool_576.txt	LTP378	ltpFR2	1	13	SALMON	1227	n/a	n/a	0	0	0
2540801	WORD	wordpools/wasnorm_wordpool_576.txt	LTP378	ltpFR2	1	13	DENTIST	447	n/a	n/a	0	0	0
2543401	WORD	wordpools/wasnorm_wordpool_576.txt	LTP378	ltpFR2	1	13	PUPPY	1144	n/a	n/a	0	0	0
2546150	WORD	wordpools/wasnorm_wordpool_576.txt	LTP378	ltpFR2	1	13	MAILMAN	858	n/a	n/a	0	0	0
2548832	WORD	wordpools/wasnorm_wordpool_576.txt	LTP378	ltpFR2	1	13	HARP	689	n/a	n/a	0	0	0
2550448	START	n/a	LTP378	ltpFR2	1	n/a	n/a	n/a	19	n/a	n/a	n/a	n/a
2551568	DISTRACTOR	n/a	LTP378	ltpFR2	1	13	n/a	n/a	n/a	n/a	0	0	0
2551580	PROB	n/a	LTP378	ltpFR2	1	n/a	n/a	n/a	19	15	5	2	8
2554795	PROB	n/a	LTP378	ltpFR2	1	n/a	n/a	n/a	19	23	9	8	6
2559210	PROB	n/a	LTP378	ltpFR2	1	n/a	n/a	n/a	19	7	5	1	1
2562293	PROB	n/a	LTP378	ltpFR2	1	n/a	n/a	n/a	19	18	5	7	6
2567756	PROB	n/a	LTP378	ltpFR2	1	n/a	n/a	n/a	19	17	7	6	4
2570754	PROB	n/a	LTP378	ltpFR2	1	n/a	n/a	n/a	19	9	2	3	4
2574447	STOP	n/a	LTP378	ltpFR2	1	n/a	n/a	n/a	19	n/a	n/a	n/a	n/a
2576403	REC_START	n/a	LTP378	ltpFR2	1	13	n/a	n/a	n/a	n/a	0	0	0
2583638	REC_WORD	wordpools/wasnorm_wordpool_576.txt	LTP378	ltpFR2	1	13	EGYPT	519	n/a	n/a	0	0	0
2584701	REC_WORD	wordpools/wasnorm_wordpool_576.txt	LTP378	ltpFR2	1	13	SUSPECT	1415	n/a	n/a	0	0	0
2586530	REC_WORD	wordpools/wasnorm_wordpool_576.txt	LTP378	ltpFR2	1	13	MAILMAN	858	n/a	n/a	0	0	0
2587319	REC_WORD	wordpools/wasnorm_wordpool_576.txt	LTP378	ltpFR2	1	13	PUPPY	1144	n/a	n/a	0	0	0
2588240	REC_WORD	wordpools/wasnorm_wordpool_576.txt	LTP378	ltpFR2	1	13	DENTIST	447	n/a	n/a	0	0	0
2666845	DISTRACTOR	n/a	LTP378	ltpFR2	1	14	n/a	n/a	n/a	n/a	0	0	0
2666845	START	n/a	LTP378	ltpFR2	1	n/a	n/a	n/a	20	n/a	n/a	n/a	n/a
2666862	PROB	n/a	LTP378	ltpFR2	1	n/a	n/a	n/a	20	8	2	3	3
2670692	PROB	n/a	LTP378	ltpFR2	1	n/a	n/a	n/a	20	22	6	8	8
2673309	PROB	n/a	LTP378	ltpFR2	1	n/a	n/a	n/a	20	18	6	9	3
2676374	PROB	n/a	LTP378	ltpFR2	1	n/a	n/a	n/a	20	12	3	3	6
2678840	PROB	n/a	LTP378	ltpFR2	1	n/a	n/a	n/a	20	21	6	6	9
2681872	PROB	n/a	LTP378	ltpFR2	1	n/a	n/a	n/a	20	15	7	7	1
2683620	PROB	n/a	LTP378	ltpFR2	1	n/a	n/a	n/a	20	18	7	3	8
2685586	PROB	n/a	LTP378	ltpFR2	1	n/a	n/a	n/a	20	22	6	8	8
2690844	STOP	n/a	LTP378	ltpFR2	1	n/a	n/a	n/a	20	n/a	n/a	n/a	n/a
2691950	WORD	wordpools/wasnorm_wordpool_576.txt	LTP378	ltpFR2	1	14	LIPSTICK	829	n/a	n/a	0	0	0
2694665	WORD	wordpools/wasnorm_wordpool_576.txt	LTP378	ltpFR2	1	14	EYELASH	546	n/a	n/a	0	0	0
2697198	WORD	wordpools/wasnorm_wordpool_576.txt	LTP378	ltpFR2	1	14	INMATE	738	n/a	n/a	0	0	0
2699814	WORD	wordpools/wasnorm_wordpool_576.txt	LTP378	ltpFR2	1	14	ISLAND	745	n/a	n/a	0	0	0
2702329	WORD	wordpools/wasnorm_wordpool_576.txt	LTP378	ltpFR2	1	14	BEAVER	109	n/a	n/a	0	0	0
2705095	WORD	wordpools/wasnorm_wordpool_576.txt	LTP378	ltpFR2	1	14	OUTFIT	988	n/a	n/a	0	0	0
2707592	WORD	wordpools/wasnorm_wordpool_576.txt	LTP378	ltpFR2	1	14	HAWK	692	n/a	n/a	0	0	0
2710159	WORD	wordpools/wasnorm_wordpool_576.txt	LTP378	ltpFR2	1	14	FRECKLE	602	n/a	n/a	0	0	0
2712740	WORD	wordpools/wasnorm_wordpool_576.txt	LTP378	ltpFR2	1	14	ROBBER	1197	n/a	n/a	0	0	0
2715390	WORD	wordpools/wasnorm_wordpool_576.txt	LTP378	ltpFR2	1	14	CONCERT	360	n/a	n/a	0	0	0
2717972	WORD	wordpools/wasnorm_wordpool_576.txt	LTP378	ltpFR2	1	14	COUNTY	389	n/a	n/a	0	0	0
2720421	WORD	wordpools/wasnorm_wordpool_576.txt	LTP378	ltpFR2	1	14	GLOBE	641	n/a	n/a	0	0	0
2723220	WORD	wordpools/wasnorm_wordpool_576.txt	LTP378	ltpFR2	1	14	HIGHWAY	707	n/a	n/a	0	0	0
2725952	WORD	wordpools/wasnorm_wordpool_576.txt	LTP378	ltpFR2	1	14	ICEBERG	731	n/a	n/a	0	0	0
2728583	WORD	wordpools/wasnorm_wordpool_576.txt	LTP378	ltpFR2	1	14	PIMPLE	1071	n/a	n/a	0	0	0
2731149	WORD	wordpools/wasnorm_wordpool_576.txt	LTP378	ltpFR2	1	14	SHORTS	1293	n/a	n/a	0	0	0
2733948	WORD	wordpools/wasnorm_wordpool_576.txt	LTP378	ltpFR2	1	14	PLIERS	1089	n/a	n/a	0	0	0
2736480	WORD	wordpools/wasnorm_wordpool_576.txt	LTP378	ltpFR2	1	14	FOREST	593	n/a	n/a	0	0	0
2739246	WORD	wordpools/wasnorm_wordpool_576.txt	LTP378	ltpFR2	1	14	SKIRT	1319	n/a	n/a	0	0	0
2742061	WORD	wordpools/wasnorm_wordpool_576.txt	LTP378	ltpFR2	1	14	MACHINE	852	n/a	n/a	0	0	0
2744659	WORD	wordpools/wasnorm_wordpool_576.txt	LTP378	ltpFR2	1	14	PENGUIN	1044	n/a	n/a	0	0	0
2747459	WORD	wordpools/wasnorm_wordpool_576.txt	LTP378	ltpFR2	1	14	EAGLE	512	n/a	n/a	0	0	0
2750257	WORD	wordpools/wasnorm_wordpool_576.txt	LTP378	ltpFR2	1	14	LEADER	807	n/a	n/a	0	0	0
2752890	WORD	wordpools/wasnorm_wordpool_576.txt	LTP378	ltpFR2	1	14	NOTEBOOK	959	n/a	n/a	0	0	0
2754506	START	n/a	LTP378	ltpFR2	1	n/a	n/a	n/a	21	n/a	n/a	n/a	n/a
2755441	DISTRACTOR	n/a	LTP378	ltpFR2	1	14	n/a	n/a	n/a	n/a	0	0	0
2755455	PROB	n/a	LTP378	ltpFR2	1	n/a	n/a	n/a	21	13	8	2	3
2758619	PROB	n/a	LTP378	ltpFR2	1	n/a	n/a	n/a	21	11	3	3	7
2761886	PROB	n/a	LTP378	ltpFR2	1	n/a	n/a	n/a	21	18	6	5	7
2765334	PROB	n/a	LTP378	ltpFR2	1	n/a	n/a	n/a	21	20	8	5	7
2767900	PROB	n/a	LTP378	ltpFR2	1	n/a	n/a	n/a	21	13	1	9	3
2770065	PROB	n/a	LTP378	ltpFR2	1	n/a	n/a	n/a	21	22	7	7	8
2772181	PROB	n/a	LTP378	ltpFR2	1	n/a	n/a	n/a	21	14	1	5	8
2778506	STOP	n/a	LTP378	ltpFR2	1	n/a	n/a	n/a	21	n/a	n/a	n/a	n/a
2780394	REC_START	n/a	LTP378	ltpFR2	1	14	n/a	n/a	n/a	n/a	0	0	0
2788116	REC_WORD	wordpools/wasnorm_wordpool_576.txt	LTP378	ltpFR2	1	14	EYELASH	546	n/a	n/a	0	0	0
2789351	REC_WORD	wordpools/wasnorm_wordpool_576.txt	LTP378	ltpFR2	1	14	LIPSTICK	829	n/a	n/a	0	0	0
2792562	REC_WORD	wordpools/wasnorm_wordpool_576.txt	LTP378	ltpFR2	1	14	INMATE	738	n/a	n/a	0	0	0
2793790	REC_WORD	wordpools/wasnorm_wordpool_576.txt	LTP378	ltpFR2	1	14	BEAVER	109	n/a	n/a	0	0	0
2794651	REC_WORD	wordpools/wasnorm_wordpool_576.txt	LTP378	ltpFR2	1	14	ISLAND	745	n/a	n/a	0	0	0
2800982	REC_WORD	wordpools/wasnorm_wordpool_576.txt	LTP378	ltpFR2	1	14	WARDROBE	1587	n/a	n/a	0	0	0
2804213	REC_WORD	wordpools/wasnorm_wordpool_576.txt	LTP378	ltpFR2	1	14	IGLOO	734	n/a	n/a	0	0	0
2816752	REC_WORD	wordpools/wasnorm_wordpool_576.txt	LTP378	ltpFR2	1	14	PENGUIN	1044	n/a	n/a	0	0	0
2819857	REC_WORD	wordpools/wasnorm_wordpool_576.txt	LTP378	ltpFR2	1	14	HAWK	692	n/a	n/a	0	0	0
2843706	REC_WORD	wordpools/wasnorm_wordpool_576.txt	LTP378	ltpFR2	1	14	MAILMAN	858	n/a	n/a	0	0	0
2870853	WORD	wordpools/wasnorm_wordpool_576.txt	LTP378	ltpFR2	1	15	HUMAN	726	n/a	n/a	0	0	0
2873552	WORD	wordpools/wasnorm_wordpool_576.txt	LTP378	ltpFR2	1	15	KNIFE	785	n/a	n/a	0	0	0
2876017	WORD	wordpools/wasnorm_wordpool_576.txt	LTP378	ltpFR2	1	15	HATCHET	691	n/a	n/a	0	0	0
2878732	WORD	wordpools/wasnorm_wordpool_576.txt	LTP378	ltpFR2	1	15	ONION	977	n/a	n/a	0	0	0
2881198	WORD	wordpools/wasnorm_wordpool_576.txt	LTP378	ltpFR2	1	15	COLLEGE	346	n/a	n/a	0	0	0
2883930	WORD	wordpools/wasnorm_wordpool_576.txt	LTP378	ltpFR2	1	15	DORM	488	n/a	n/a	0	0	0
2886546	WORD	wordpools/wasnorm_wordpool_576.txt	LTP378	ltpFR2	1	15	ATOM	55	n/a	n/a	0	0	0
2888978	WORD	wordpools/wasnorm_wordpool_576.txt	LTP378	ltpFR2	1	15	ASIA	46	n/a	n/a	0	0	0
2891776	WORD	wordpools/wasnorm_wordpool_576.txt	LTP378	ltpFR2	1	15	OYSTER	995	n/a	n/a	0	0	0
2894476	WORD	wordpools/wasnorm_wordpool_576.txt	LTP378	ltpFR2	1	15	ZIPPER	1636	n/a	n/a	0	0	0
2897291	WORD	wordpools/wasnorm_wordpool_576.txt	LTP378	ltpFR2	1	15	JUNGLE	764	n/a	n/a	0	0	0
2900006	WORD	wordpools/wasnorm_wordpool_576.txt	LTP378	ltpFR2	1	15	PLAZA	1088	n/a	n/a	0	0	0
2902572	WORD	wordpools/wasnorm_wordpool_576.txt	LTP378	ltpFR2	1	15	PLAID	1080	n/a	n/a	0	0	0
2905154	WORD	wordpools/wasnorm_wordpool_576.txt	LTP378	ltpFR2	1	15	DOLPHIN	483	n/a	n/a	0	0	0
2907585	WORD	wordpools/wasnorm_wordpool_576.txt	LTP378	ltpFR2	1	15	MAMMAL	861	n/a	n/a	0	0	0
2910269	WORD	wordpools/wasnorm_wordpool_576.txt	LTP378	ltpFR2	1	15	ARM	38	n/a	n/a	0	0	0
2912733	WORD	wordpools/wasnorm_wordpool_576.txt	LTP378	ltpFR2	1	15	CLAM	315	n/a	n/a	0	0	0
2915233	WORD	wordpools/wasnorm_wordpool_576.txt	LTP378	ltpFR2	1	15	BLENDER	136	n/a	n/a	0	0	0
2918065	WORD	wordpools/wasnorm_wordpool_576.txt	LTP378	ltpFR2	1	15	ACTRESS	6	n/a	n/a	0	0	0
2920880	WORD	wordpools/wasnorm_wordpool_576.txt	LTP378	ltpFR2	1	15	ICING	732	n/a	n/a	0	0	0
2923695	WORD	wordpools/wasnorm_wordpool_576.txt	LTP378	ltpFR2	1	15	PLASTER	1085	n/a	n/a	0	0	0
2926378	WORD	wordpools/wasnorm_wordpool_576.txt	LTP378	ltpFR2	1	15	MARROW	872	n/a	n/a	0	0	0
2929027	WORD	wordpools/wasnorm_wordpool_576.txt	LTP378	ltpFR2	1	15	LABEL	790	n/a	n/a	0	0	0
2931542	WORD	wordpools/wasnorm_wordpool_576.txt	LTP378	ltpFR2	1	15	JOURNAL	760	n/a	n/a	0	0	0
2933158	START	n/a	LTP378	ltpFR2	1	n/a	n/a	n/a	22	n/a	n/a	n/a	n/a
2934349	DISTRACTOR	n/a	LTP378	ltpFR2	1	15	n/a	n/a	n/a	n/a	0	0	0
2934358	PROB	n/a	LTP378	ltpFR2	1	n/a	n/a	n/a	22	14	6	2	6
2937956	PROB	n/a	LTP378	ltpFR2	1	n/a	n/a	n/a	22	15	8	4	3
2940905	PROB	n/a	LTP378	ltpFR2	1	n/a	n/a	n/a	22	12	3	8	1
2945236	PROB	n/a	LTP378	ltpFR2	1	n/a	n/a	n/a	22	10	1	8	1
2947202	PROB	n/a	LTP378	ltpFR2	1	n/a	n/a	n/a	22	17	8	7	2
2950733	PROB	n/a	LTP378	ltpFR2	1	n/a	n/a	n/a	22	12	2	4	6
2953432	PROB	n/a	LTP378	ltpFR2	1	n/a	n/a	n/a	22	12	6	2	4
2956670	STOP	n/a	LTP378	ltpFR2	1	n/a	n/a	n/a	22	n/a	n/a	n/a	n/a
2958930	REC_START	n/a	LTP378	ltpFR2	1	15	n/a	n/a	n/a	n/a	0	0	0
2964428	REC_WORD	wordpools/wasnorm_wordpool_576.txt	LTP378	ltpFR2	1	15	LABEL	790	n/a	n/a	0	0	0
2976882	REC_WORD	wordpools/wasnorm_wordpool_576.txt	LTP378	ltpFR2	1	15	KNIFE	785	n/a	n/a	0	0	0
2977662	REC_WORD	wordpools/wasnorm_wordpool_576.txt	LTP378	ltpFR2	1	15	HATCHET	691	n/a	n/a	0	0	0
2981603	REC_WORD	wordpools/wasnorm_wordpool_576.txt	LTP378	ltpFR2	1	15	FOREST	593	n/a	n/a	0	0	0
2996782	REC_WORD	wordpools/wasnorm_wordpool_576.txt	LTP378	ltpFR2	1	15	ICEBERG	731	n/a	n/a	0	0	0
3023185	REC_WORD	wordpools/wasnorm_wordpool_576.txt	LTP378	ltpFR2	1	15	CLAM	315	n/a	n/a	0	0	0
3023944	REC_WORD	wordpools/wasnorm_wordpool_576.txt	LTP378	ltpFR2	1	15	ARM	38	n/a	n/a	0	0	0
3049372	WORD	wordpools/wasnorm_wordpool_576.txt	LTP378	ltpFR2	1	16	NURSE	963	n/a	n/a	0	0	0
3051888	WORD	wordpools/wasnorm_wordpool_576.txt	LTP378	ltpFR2	1	16	BUNNY	198	n/a	n/a	0	0	0
3054470	WORD	wordpools/wasnorm_wordpool_576.txt	LTP378	ltpFR2	1	16	CABIN	211	n/a	n/a	0	0	0
3057085	WORD	wordpools/wasnorm_wordpool_576.txt	LTP378	ltpFR2	1	16	SCOTCH	1251	n/a	n/a	0	0	0
3059534	WORD	wordpools/wasnorm_wordpool_576.txt	LTP378	ltpFR2	1	16	PRINCESS	1125	n/a	n/a	0	0	0
3062116	WORD	wordpools/wasnorm_wordpool_576.txt	LTP378	ltpFR2	1	16	CLIMBER	323	n/a	n/a	0	0	0
3064899	WORD	wordpools/wasnorm_wordpool_576.txt	LTP378	ltpFR2	1	16	BUBBLE	183	n/a	n/a	0	0	0
3067564	WORD	wordpools/wasnorm_wordpool_576.txt	LTP378	ltpFR2	1	16	BINDER	127	n/a	n/a	0	0	0
3070180	WORD	wordpools/wasnorm_wordpool_576.txt	LTP378	ltpFR2	1	16	CEILING	265	n/a	n/a	0	0	0
3072845	WORD	wordpools/wasnorm_wordpool_576.txt	LTP378	ltpFR2	1	16	RUG	1215	n/a	n/a	0	0	0
3075527	WORD	wordpools/wasnorm_wordpool_576.txt	LTP378	ltpFR2	1	16	LIZARD	834	n/a	n/a	0	0	0
3078193	WORD	wordpools/wasnorm_wordpool_576.txt	LTP378	ltpFR2	1	16	POSSUM	1112	n/a	n/a	0	0	0
3080690	WORD	wordpools/wasnorm_wordpool_576.txt	LTP378	ltpFR2	1	16	NOMAD	955	n/a	n/a	0	0	0
3083507	WORD	wordpools/wasnorm_wordpool_576.txt	LTP378	ltpFR2	1	16	MISTER	901	n/a	n/a	0	0	0
3086206	WORD	wordpools/wasnorm_wordpool_576.txt	LTP378	ltpFR2	1	16	PRINCE	1124	n/a	n/a	0	0	0
3088737	WORD	wordpools/wasnorm_wordpool_576.txt	LTP378	ltpFR2	1	16	CATTLE	261	n/a	n/a	0	0	0
3091220	WORD	wordpools/wasnorm_wordpool_576.txt	LTP378	ltpFR2	1	16	COSTUME	383	n/a	n/a	0	0	0
3093852	WORD	wordpools/wasnorm_wordpool_576.txt	LTP378	ltpFR2	1	16	LUMBER	848	n/a	n/a	0	0	0
3096534	WORD	wordpools/wasnorm_wordpool_576.txt	LTP378	ltpFR2	1	16	VALVE	1546	n/a	n/a	0	0	0
3099067	WORD	wordpools/wasnorm_wordpool_576.txt	LTP378	ltpFR2	1	16	HANDBAG	684	n/a	n/a	0	0	0
3101565	WORD	wordpools/wasnorm_wordpool_576.txt	LTP378	ltpFR2	1	16	COCKTAIL	338	n/a	n/a	0	0	0
3104048	WORD	wordpools/wasnorm_wordpool_576.txt	LTP378	ltpFR2	1	16	ROD	1203	n/a	n/a	0	0	0
3106530	WORD	wordpools/wasnorm_wordpool_576.txt	LTP378	ltpFR2	1	16	LIGHTNING	820	n/a	n/a	0	0	0
3109112	WORD	wordpools/wasnorm_wordpool_576.txt	LTP378	ltpFR2	1	16	WIFE	1609	n/a	n/a	0	0	0
3110727	START	n/a	LTP378	ltpFR2	1	n/a	n/a	n/a	23	n/a	n/a	n/a	n/a
3111664	DISTRACTOR	n/a	LTP378	ltpFR2	1	16	n/a	n/a	n/a	n/a	0	0	0
3111676	PROB	n/a	LTP378	ltpFR2	1	n/a	n/a	n/a	23	10	2	6	2
3114559	PROB	n/a	LTP378	ltpFR2	1	n/a	n/a	n/a	23	9	4	3	2
3118058	PROB	n/a	LTP378	ltpFR2	1	n/a	n/a	n/a	23	15	8	1	6
3120656	PROB	n/a	LTP378	ltpFR2	1	n/a	n/a	n/a	23	10	4	5	1
3123206	PROB	n/a	LTP378	ltpFR2	1	n/a	n/a	n/a	23	14	3	7	4
3126620	PROB	n/a	LTP378	ltpFR2	1	n/a	n/a	n/a	23	15	6	3	6
3129070	PROB	n/a	LTP378	ltpFR2	1	n/a	n/a	n/a	23	16	3	8	5
3131452	PROB	n/a	LTP378	ltpFR2	1	n/a	n/a	n/a	23	16	8	6	2
3134044	STOP	n/a	LTP378	ltpFR2	1	n/a	n/a	n/a	23	n/a	n/a	n/a	n/a
3136599	REC_START	n/a	LTP378	ltpFR2	1	16	n/a	n/a	n/a	n/a	0	0	0
3140276	REC_WORD	wordpools/wasnorm_wordpool_576.txt	LTP378	ltpFR2	1	16	LIZARD	834	n/a	n/a	0	0	0
3141266	REC_WORD	wordpools/wasnorm_wordpool_576.txt	LTP378	ltpFR2	1	16	RUG	1215	n/a	n/a	0	0	0
3142158	REC_WORD	wordpools/wasnorm_wordpool_576.txt	LTP378	ltpFR2	1	16	CEILING	265	n/a	n/a	0	0	0
3143351	REC_WORD	wordpools/wasnorm_wordpool_576.txt	LTP378	ltpFR2	1	16	SCOTCH	1251	n/a	n/a	0	0	0
3144362	REC_WORD	wordpools/wasnorm_wordpool_576.txt	LTP378	ltpFR2	1	16	CABIN	211	n/a	n/a	0	0	0
3145477	REC_WORD	wordpools/wasnorm_wordpool_576.txt	LTP378	ltpFR2	1	16	PRINCESS	1125	n/a	n/a	0	0	0
3146602	REC_WORD	wordpools/wasnorm_wordpool_576.txt	LTP378	ltpFR2	1	16	PRINCE	1124	n/a	n/a	0	0	0
3147586	REC_WORD	wordpools/wasnorm_wordpool_576.txt	LTP378	ltpFR2	1	16	COSTUME	383	n/a	n/a	0	0	0
3169824	REC_WORD	wordpools/wasnorm_wordpool_576.txt	LTP378	ltpFR2	1	16	LUMBER	848	n/a	n/a	0	0	0
3171835	REC_WORD	wordpools/wasnorm_wordpool_576.txt	LTP378	ltpFR2	1	16	NOMAD	955	n/a	n/a	0	0	0
3173008	REC_WORD	wordpools/wasnorm_wordpool_576.txt	LTP378	ltpFR2	1	16	PLUMBER	1091	n/a	n/a	0	0	0
3174050	REC_WORD	wordpools/wasnorm_wordpool_576.txt	LTP378	ltpFR2	1	16	VALVE	1546	n/a	n/a	0	0	0
3190146	REC_WORD	wordpools/wasnorm_wordpool_576.txt	LTP378	ltpFR2	1	16	POSSUM	1112	n/a	n/a	0	0	0
3196713	REC_WORD	wordpools/wasnorm_wordpool_576.txt	LTP378	ltpFR2	1	16	LIZARD	834	n/a	n/a	0	0	0
3213132	REST_REWET	n/a	LTP378	ltpFR2	1	16	n/a	n/a	n/a	n/a	0	0	0
3360965	DISTRACTOR	n/a	LTP378	ltpFR2	1	17	n/a	n/a	n/a	n/a	0	0	0
3360965	START	n/a	LTP378	ltpFR2	1	n/a	n/a	n/a	24	n/a	n/a	n/a	n/a
3360981	PROB	n/a	LTP378	ltpFR2	1	n/a	n/a	n/a	24	16	6	7	6
3364130	PROB	n/a	LTP378	ltpFR2	1	n/a	n/a	n/a	24	16	2	8	6
3368078	PROB	n/a	LTP378	ltpFR2	1	n/a	n/a	n/a	24	9	4	3	2
3370011	PROB	n/a	LTP378	ltpFR2	1	n/a	n/a	n/a	24	14	1	9	4
3372243	PROB	n/a	LTP378	ltpFR2	1	n/a	n/a	n/a	24	21	7	9	5
3377324	PROB	n/a	LTP378	ltpFR2	1	n/a	n/a	n/a	24	10	3	4	3
3379973	PROB	n/a	LTP378	ltpFR2	1	n/a	n/a	n/a	24	20	7	4	9
3383038	PROB	n/a	LTP378	ltpFR2	1	n/a	n/a	n/a	24	13	5	5	3
3384876	STOP	n/a	LTP378	ltpFR2	1	n/a	n/a	n/a	24	n/a	n/a	n/a	n/a
3385870	WORD	wordpools/wasnorm_wordpool_576.txt	LTP378	ltpFR2	1	17	SWAMP	1416	n/a	n/a	0	0	0
3388352	WORD	wordpools/wasnorm_wordpool_576.txt	LTP378	ltpFR2	1	17	TWISTER	1530	n/a	n/a	0	0	0
3391168	WORD	wordpools/wasnorm_wordpool_576.txt	LTP378	ltpFR2	1	17	STAPLE	1371	n/a	n/a	0	0	0
3393950	WORD	wordpools/wasnorm_wordpool_576.txt	LTP378	ltpFR2	1	17	PISTOL	1075	n/a	n/a	0	0	0
3396698	WORD	wordpools/wasnorm_wordpool_576.txt	LTP378	ltpFR2	1	17	STREAM	1392	n/a	n/a	0	0	0
3399231	WORD	wordpools/wasnorm_wordpool_576.txt	LTP378	ltpFR2	1	17	NECKLACE	940	n/a	n/a	0	0	0
3401779	WORD	wordpools/wasnorm_wordpool_576.txt	LTP378	ltpFR2	1	17	OMELET	976	n/a	n/a	0	0	0
3404428	WORD	wordpools/wasnorm_wordpool_576.txt	LTP378	ltpFR2	1	17	CHAUFFEUR	283	n/a	n/a	0	0	0
3407077	WORD	wordpools/wasnorm_wordpool_576.txt	LTP378	ltpFR2	1	17	MONSTER	912	n/a	n/a	0	0	0
3409809	WORD	wordpools/wasnorm_wordpool_576.txt	LTP378	ltpFR2	1	17	PARENT	1013	n/a	n/a	0	0	0
3412258	WORD	wordpools/wasnorm_wordpool_576.txt	LTP378	ltpFR2	1	17	ROBOT	1200	n/a	n/a	0	0	0
3414974	WORD	wordpools/wasnorm_wordpool_576.txt	LTP378	ltpFR2	1	17	BACON	67	n/a	n/a	0	0	0
3417423	WORD	wordpools/wasnorm_wordpool_576.txt	LTP378	ltpFR2	1	17	PLAYGROUND	1087	n/a	n/a	0	0	0
3420105	WORD	wordpools/wasnorm_wordpool_576.txt	LTP378	ltpFR2	1	17	TRANSPLANT	1496	n/a	n/a	0	0	0
3422753	WORD	wordpools/wasnorm_wordpool_576.txt	LTP378	ltpFR2	1	17	HEART	697	n/a	n/a	0	0	0
3425219	WORD	wordpools/wasnorm_wordpool_576.txt	LTP378	ltpFR2	1	17	GREASE	660	n/a	n/a	0	0	0
3427800	WORD	wordpools/wasnorm_wordpool_576.txt	LTP378	ltpFR2	1	17	APRON	35	n/a	n/a	0	0	0
3430550	WORD	wordpools/wasnorm_wordpool_576.txt	LTP378	ltpFR2	1	17	SNACK	1331	n/a	n/a	0	0	0
3433099	WORD	wordpools/wasnorm_wordpool_576.txt	LTP378	ltpFR2	1	17	COUSIN	392	n/a	n/a	0	0	0
3435597	WORD	wordpools/wasnorm_wordpool_576.txt	LTP378	ltpFR2	1	17	SWORD	1423	n/a	n/a	0	0	0
3438080	WORD	wordpools/wasnorm_wordpool_576.txt	LTP378	ltpFR2	1	17	COD	340	n/a	n/a	0	0	0
3440879	WORD	wordpools/wasnorm_wordpool_576.txt	LTP378	ltpFR2	1	17	PILOT	1070	n/a	n/a	0	0	0
3443626	WORD	wordpools/wasnorm_wordpool_576.txt	LTP378	ltpFR2	1	17	WAGON	1578	n/a	n/a	0	0	0
3446110	WORD	wordpools/wasnorm_wordpool_576.txt	LTP378	ltpFR2	1	17	AGENT	10	n/a	n/a	0	0	0
3447725	START	n/a	LTP378	ltpFR2	1	n/a	n/a	n/a	25	n/a	n/a	n/a	n/a
3448821	DISTRACTOR	n/a	LTP378	ltpFR2	1	17	n/a	n/a	n/a	n/a	0	0	0
3448825	PROB	n/a	LTP378	ltpFR2	1	n/a	n/a	n/a	25	18	1	9	8
3451623	PROB	n/a	LTP378	ltpFR2	1	n/a	n/a	n/a	25	21	8	6	7
3455988	PROB	n/a	LTP378	ltpFR2	1	n/a	n/a	n/a	25	17	7	3	7
3459204	PROB	n/a	LTP378	ltpFR2	1	n/a	n/a	n/a	25	18	5	7	6
3461802	PROB	n/a	LTP378	ltpFR2	1	n/a	n/a	n/a	25	21	8	7	7
3464733	PROB	n/a	LTP378	ltpFR2	1	n/a	n/a	n/a	25	18	5	9	4
3471725	STOP	n/a	LTP378	ltpFR2	1	n/a	n/a	n/a	25	n/a	n/a	n/a	n/a
3473498	REC_START	n/a	LTP378	ltpFR2	1	17	n/a	n/a	n/a	n/a	0	0	0
3475982	REC_WORD	wordpools/wasnorm_wordpool_576.txt	LTP378	ltpFR2	1	17	HEART	697	n/a	n/a	0	0	0
3476640	REC_WORD	wordpools/wasnorm_wordpool_576.txt	LTP378	ltpFR2	1	17	TRANSPLANT	1496	n/a	n/a	0	0	0
3481744	REC_WORD	wordpools/wasnorm_wordpool_576.txt	LTP378	ltpFR2	1	17	APRON	35	n/a	n/a	0	0	0
3488076	REC_WORD	wordpools/wasnorm_wordpool_576.txt	LTP378	ltpFR2	1	17	HONEY	713	n/a	n/a	0	0	0
3492975	REC_WORD	wordpools/wasnorm_wordpool_576.txt	LTP378	ltpFR2	1	17	PISTOL	1075	n/a	n/a	0	0	0
3511402	REC_WORD	wordpools/wasnorm_wordpool_576.txt	LTP378	ltpFR2	1	17	COUSIN	392	n/a	n/a	0	0	0
3521964	REC_WORD	wordpools/wasnorm_wordpool_576.txt	LTP378	ltpFR2	1	17	STREAM	1392	n/a	n/a	0	0	0
3583931	DISTRACTOR	n/a	LTP378	ltpFR2	1	18	n/a	n/a	n/a	n/a	0	0	0
3583931	START	n/a	LTP378	ltpFR2	1	n/a	n/a	n/a	26	n/a	n/a	n/a	n/a
3583947	PROB	n/a	LTP378	ltpFR2	1	n/a	n/a	n/a	26	10	6	1	3
3586330	PROB	n/a	LTP378	ltpFR2	1	n/a	n/a	n/a	26	12	1	8	3
3587912	PROB	n/a	LTP378	ltpFR2	1	n/a	n/a	n/a	26	16	6	3	7
3592460	PROB	n/a	LTP378	ltpFR2	1	n/a	n/a	n/a	26	16	5	9	2
3596525	PROB	n/a	LTP378	ltpFR2	1	n/a	n/a	n/a	26	19	6	8	5
3599973	PROB	n/a	LTP378	ltpFR2	1	n/a	n/a	n/a	26	10	1	7	2
3602356	PROB	n/a	LTP378	ltpFR2	1	n/a	n/a	n/a	26	13	4	8	1
3604055	PROB	n/a	LTP378	ltpFR2	1	n/a	n/a	n/a	26	21	8	6	5
3606642	STOP	n/a	LTP378	ltpFR2	1	n/a	n/a	n/a	26	n/a	n/a	n/a	n/a
3608969	WORD	wordpools/wasnorm_wordpool_576.txt	LTP378	ltpFR2	1	18	GAZELLE	628	n/a	n/a	0	0	0
3611518	WORD	wordpools/wasnorm_wordpool_576.txt	LTP378	ltpFR2	1	18	WITNESS	1618	n/a	n/a	0	0	0
3614250	WORD	wordpools/wasnorm_wordpool_576.txt	LTP378	ltpFR2	1	18	NIGHTGOWN	953	n/a	n/a	0	0	0
3616982	WORD	wordpools/wasnorm_wordpool_576.txt	LTP378	ltpFR2	1	18	LOFT	840	n/a	n/a	0	0	0
3619647	WORD	wordpools/wasnorm_wordpool_576.txt	LTP378	ltpFR2	1	18	CRICKET	408	n/a	n/a	0	0	0
3622097	WORD	wordpools/wasnorm_wordpool_576.txt	LTP378	ltpFR2	1	18	PICNIC	1060	n/a	n/a	0	0	0
3624711	WORD	wordpools/wasnorm_wordpool_576.txt	LTP378	ltpFR2	1	18	TYPIST	1532	n/a	n/a	0	0	0
3627161	WORD	wordpools/wasnorm_wordpool_576.txt	LTP378	ltpFR2	1	18	WRIST	1626	n/a	n/a	0	0	0
3629960	WORD	wordpools/wasnorm_wordpool_576.txt	LTP378	ltpFR2	1	18	GANGSTER	620	n/a	n/a	0	0	0
3632409	WORD	wordpools/wasnorm_wordpool_576.txt	LTP378	ltpFR2	1	18	PANTHER	1009	n/a	n/a	0	0	0
3635058	WORD	wordpools/wasnorm_wordpool_576.txt	LTP378	ltpFR2	1	18	RATTLE	1170	n/a	n/a	0	0	0
3637856	WORD	wordpools/wasnorm_wordpool_576.txt	LTP378	ltpFR2	1	18	JEANS	752	n/a	n/a	0	0	0
3640438	WORD	wordpools/wasnorm_wordpool_576.txt	LTP378	ltpFR2	1	18	SLUG	1329	n/a	n/a	0	0	0
3643237	WORD	wordpools/wasnorm_wordpool_576.txt	LTP378	ltpFR2	1	18	BARREL	91	n/a	n/a	0	0	0
3645752	WORD	wordpools/wasnorm_wordpool_576.txt	LTP378	ltpFR2	1	18	PREACHER	1119	n/a	n/a	0	0	0
3648218	WORD	wordpools/wasnorm_wordpool_576.txt	LTP378	ltpFR2	1	18	DASHBOARD	441	n/a	n/a	0	0	0
3650666	WORD	wordpools/wasnorm_wordpool_576.txt	LTP378	ltpFR2	1	18	YOLK	1633	n/a	n/a	0	0	0
3653366	WORD	wordpools/wasnorm_wordpool_576.txt	LTP378	ltpFR2	1	18	FINGER	567	n/a	n/a	0	0	0
3656081	WORD	wordpools/wasnorm_wordpool_576.txt	LTP378	ltpFR2	1	18	CLOCK	325	n/a	n/a	0	0	0
3658663	WORD	wordpools/wasnorm_wordpool_576.txt	LTP378	ltpFR2	1	18	GLOVE	642	n/a	n/a	0	0	0
3661346	WORD	wordpools/wasnorm_wordpool_576.txt	LTP378	ltpFR2	1	18	TURTLE	1522	n/a	n/a	0	0	0
3663845	WORD	wordpools/wasnorm_wordpool_576.txt	LTP378	ltpFR2	1	18	CREVICE	405	n/a	n/a	0	0	0
3666327	WORD	wordpools/wasnorm_wordpool_576.txt	LTP378	ltpFR2	1	18	CRATER	400	n/a	n/a	0	0	0
3669059	WORD	wordpools/wasnorm_wordpool_576.txt	LTP378	ltpFR2	1	18	BEEF	113	n/a	n/a	0	0	0
3670674	START	n/a	LTP378	ltpFR2	1	n/a	n/a	n/a	27	n/a	n/a	n/a	n/a
3671827	DISTRACTOR	n/a	LTP378	ltpFR2	1	18	n/a	n/a	n/a	n/a	0	0	0
3671841	PROB	n/a	LTP378	ltpFR2	1	n/a	n/a	n/a	27	20	4	9	7
3675373	PROB	n/a	LTP378	ltpFR2	1	n/a	n/a	n/a	27	12	7	1	4
3676989	PROB	n/a	LTP378	ltpFR2	1	n/a	n/a	n/a	27	18	8	9	1
3679686	PROB	n/a	LTP378	ltpFR2	1	n/a	n/a	n/a	27	17	6	6	5
3681936	PROB	n/a	LTP378	ltpFR2	1	n/a	n/a	n/a	27	13	1	5	7
3683668	PROB	n/a	LTP378	ltpFR2	1	n/a	n/a	n/a	27	12	2	5	5
3685684	PROB	n/a	LTP378	ltpFR2	1	n/a	n/a	n/a	27	11	5	5	1
3690849	PROB	n/a	LTP378	ltpFR2	1	n/a	n/a	n/a	27	16	9	2	5
3694326	STOP	n/a	LTP378	ltpFR2	1	n/a	n/a	n/a	27	n/a	n/a	n/a	n/a
3696480	REC_START	n/a	LTP378	ltpFR2	1	18	n/a	n/a	n/a	n/a	0	0	0
3699465	REC_WORD_VV	wordpools/wasnorm_wordpool_576.txt	LTP378	ltpFR2	1	18	<>	-1	n/a	n/a	0	0	0
3700041	REC_WORD	wordpools/wasnorm_wordpool_576.txt	LTP378	ltpFR2	1	18	GAZELLE	628	n/a	n/a	0	0	0
3701277	REC_WORD	wordpools/wasnorm_wordpool_576.txt	LTP378	ltpFR2	1	18	NIGHTGOWN	953	n/a	n/a	0	0	0
3704135	REC_WORD	wordpools/wasnorm_wordpool_576.txt	LTP378	ltpFR2	1	18	WITNESS	1618	n/a	n/a	0	0	0
3707831	REC_WORD	wordpools/wasnorm_wordpool_576.txt	LTP378	ltpFR2	1	18	SLUG	1329	n/a	n/a	0	0	0
3708877	REC_WORD	wordpools/wasnorm_wordpool_576.txt	LTP378	ltpFR2	1	18	BARREL	91	n/a	n/a	0	0	0
3710474	REC_WORD	wordpools/wasnorm_wordpool_576.txt	LTP378	ltpFR2	1	18	JEANS	752	n/a	n/a	0	0	0
3741715	REC_WORD	wordpools/wasnorm_wordpool_576.txt	LTP378	ltpFR2	1	18	TYPIST	1532	n/a	n/a	0	0	0
3743415	REC_WORD	wordpools/wasnorm_wordpool_576.txt	LTP378	ltpFR2	1	18	PANTHER	1009	n/a	n/a	0	0	0
3744400	REC_WORD	wordpools/wasnorm_wordpool_576.txt	LTP378	ltpFR2	1	18	WRIST	1626	n/a	n/a	0	0	0
3786922	DISTRACTOR	n/a	LTP378	ltpFR2	1	19	n/a	n/a	n/a	n/a	0	0	0
3786922	START	n/a	LTP378	ltpFR2	1	n/a	n/a	n/a	28	n/a	n/a	n/a	n/a
3786939	PROB	n/a	LTP378	ltpFR2	1	n/a	n/a	n/a	28	8	1	5	2
3789154	PROB	n/a	LTP378	ltpFR2	1	n/a	n/a	n/a	28	8	1	6	1
3791837	PROB	n/a	LTP378	ltpFR2	1	n/a	n/a	n/a	28	17	4	7	6
3793936	PROB	n/a	LTP378	ltpFR2	1	n/a	n/a	n/a	28	21	6	7	9
3798051	PROB	n/a	LTP378	ltpFR2	1	n/a	n/a	n/a	28	9	1	1	7
3800916	PROB	n/a	LTP378	ltpFR2	1	n/a	n/a	n/a	28	19	4	8	7
3803265	PROB	n/a	LTP378	ltpFR2	1	n/a	n/a	n/a	28	15	5	8	4
3805729	PROB	n/a	LTP378	ltpFR2	1	n/a	n/a	n/a	28	18	4	6	8
3810225	STOP	n/a	LTP378	ltpFR2	1	n/a	n/a	n/a	28	n/a	n/a	n/a	n/a
3811777	WORD	wordpools/wasnorm_wordpool_576.txt	LTP378	ltpFR2	1	19	REPORT	1184	n/a	n/a	0	0	0
3814260	WORD	wordpools/wasnorm_wordpool_576.txt	LTP378	ltpFR2	1	19	KLEENEX	782	n/a	n/a	0	0	0
3816842	WORD	wordpools/wasnorm_wordpool_576.txt	LTP378	ltpFR2	1	19	ROOSTER	1209	n/a	n/a	0	0	0
3819558	WORD	wordpools/wasnorm_wordpool_576.txt	LTP378	ltpFR2	1	19	TWEEZERS	1526	n/a	n/a	0	0	0
3822356	WORD	wordpools/wasnorm_wordpool_576.txt	LTP378	ltpFR2	1	19	WASHER	1592	n/a	n/a	0	0	0
3825005	WORD	wordpools/wasnorm_wordpool_576.txt	LTP378	ltpFR2	1	19	WHISKERS	1605	n/a	n/a	0	0	0
3827487	WORD	wordpools/wasnorm_wordpool_576.txt	LTP378	ltpFR2	1	19	SPARROW	1347	n/a	n/a	0	0	0
3830003	WORD	wordpools/wasnorm_wordpool_576.txt	LTP378	ltpFR2	1	19	PIGEON	1065	n/a	n/a	0	0	0
3832801	WORD	wordpools/wasnorm_wordpool_576.txt	LTP378	ltpFR2	1	19	KEEPER	769	n/a	n/a	0	0	0
3835384	WORD	wordpools/wasnorm_wordpool_576.txt	LTP378	ltpFR2	1	19	DAUGHTER	442	n/a	n/a	0	0	0
3837916	WORD	wordpools/wasnorm_wordpool_576.txt	LTP378	ltpFR2	1	19	CANAL	226	n/a	n/a	0	0	0
3840415	WORD	wordpools/wasnorm_wordpool_576.txt	LTP378	ltpFR2	1	19	HAMPER	682	n/a	n/a	0	0	0
3843030	WORD	wordpools/wasnorm_wordpool_576.txt	LTP378	ltpFR2	1	19	CASHEW	253	n/a	n/a	0	0	0
3845846	WORD	wordpools/wasnorm_wordpool_576.txt	LTP378	ltpFR2	1	19	VENUS	1557	n/a	n/a	0	0	0
3848478	WORD	wordpools/wasnorm_wordpool_576.txt	LTP378	ltpFR2	1	19	COFFEE	341	n/a	n/a	0	0	0
3851060	WORD	wordpools/wasnorm_wordpool_576.txt	LTP378	ltpFR2	1	19	TABLET	1427	n/a	n/a	0	0	0
3853658	WORD	wordpools/wasnorm_wordpool_576.txt	LTP378	ltpFR2	1	19	PARROT	1015	n/a	n/a	0	0	0
3856091	WORD	wordpools/wasnorm_wordpool_576.txt	LTP378	ltpFR2	1	19	DIME	466	n/a	n/a	0	0	0
3858622	WORD	wordpools/wasnorm_wordpool_576.txt	LTP378	ltpFR2	1	19	FRAGRANCE	599	n/a	n/a	0	0	0
3861155	WORD	wordpools/wasnorm_wordpool_576.txt	LTP378	ltpFR2	1	19	TEACHER	1440	n/a	n/a	0	0	0
3863887	WORD	wordpools/wasnorm_wordpool_576.txt	LTP378	ltpFR2	1	19	BATHTUB	100	n/a	n/a	0	0	0
3866536	WORD	wordpools/wasnorm_wordpool_576.txt	LTP378	ltpFR2	1	19	SHIRT	1287	n/a	n/a	0	0	0
3869152	WORD	wordpools/wasnorm_wordpool_576.txt	LTP378	ltpFR2	1	19	SMOG	1330	n/a	n/a	0	0	0
3871616	WORD	wordpools/wasnorm_wordpool_576.txt	LTP378	ltpFR2	1	19	TROMBONE	1508	n/a	n/a	0	0	0
3873233	START	n/a	LTP378	ltpFR2	1	n/a	n/a	n/a	29	n/a	n/a	n/a	n/a
3874072	DISTRACTOR	n/a	LTP378	ltpFR2	1	19	n/a	n/a	n/a	n/a	0	0	0
3874083	PROB	n/a	LTP378	ltpFR2	1	n/a	n/a	n/a	29	12	4	6	2
3876614	PROB	n/a	LTP378	ltpFR2	1	n/a	n/a	n/a	29	19	8	9	2
3879646	PROB	n/a	LTP378	ltpFR2	1	n/a	n/a	n/a	29	25	8	9	8
3884212	PROB	n/a	LTP378	ltpFR2	1	n/a	n/a	n/a	29	14	5	7	2
3886394	PROB	n/a	LTP378	ltpFR2	1	n/a	n/a	n/a	29	17	5	3	9
3889959	PROB	n/a	LTP378	ltpFR2	1	n/a	n/a	n/a	29	9	3	1	5
3891574	PROB	n/a	LTP378	ltpFR2	1	n/a	n/a	n/a	29	18	4	9	5
3897233	STOP	n/a	LTP378	ltpFR2	1	n/a	n/a	n/a	29	n/a	n/a	n/a	n/a
3899072	REC_START	n/a	LTP378	ltpFR2	1	19	n/a	n/a	n/a	n/a	0	0	0
3900077	REC_WORD	wordpools/wasnorm_wordpool_576.txt	LTP378	ltpFR2	1	19	REPORT	1184	n/a	n/a	0	0	0
3901423	REC_WORD	wordpools/wasnorm_wordpool_576.txt	LTP378	ltpFR2	1	19	KLEENEX	782	n/a	n/a	0	0	0
3907487	REC_WORD	wordpools/wasnorm_wordpool_576.txt	LTP378	ltpFR2	1	19	TROMBONE	1508	n/a	n/a	0	0	0
3913601	REC_WORD	wordpools/wasnorm_wordpool_576.txt	LTP378	ltpFR2	1	19	SMOG	1330	n/a	n/a	0	0	0
3918672	REC_WORD	wordpools/wasnorm_wordpool_576.txt	LTP378	ltpFR2	1	19	PIGEON	1065	n/a	n/a	0	0	0
3919382	REC_WORD	wordpools/wasnorm_wordpool_576.txt	LTP378	ltpFR2	1	19	HAWK	692	n/a	n/a	0	0	0
3920259	REC_WORD	wordpools/wasnorm_wordpool_576.txt	LTP378	ltpFR2	1	19	ROOSTER	1209	n/a	n/a	0	0	0
3923869	REC_WORD	wordpools/wasnorm_wordpool_576.txt	LTP378	ltpFR2	1	19	CATTLE	261	n/a	n/a	0	0	0
3939704	REC_WORD_VV	wordpools/wasnorm_wordpool_576.txt	LTP378	ltpFR2	1	19	<>	-1	n/a	n/a	0	0	0
3942074	REC_WORD_VV	wordpools/wasnorm_wordpool_576.txt	LTP378	ltpFR2	1	19	<>	-1	n/a	n/a	0	0	0
3942513	REC_WORD	wordpools/wasnorm_wordpool_576.txt	LTP378	ltpFR2	1	19	SCARECROW	1245	n/a	n/a	0	0	0
3948775	REC_WORD_VV	wordpools/wasnorm_wordpool_576.txt	LTP378	ltpFR2	1	19	<>	-1	n/a	n/a	0	0	0
3949245	REC_WORD_VV	wordpools/wasnorm_wordpool_576.txt	LTP378	ltpFR2	1	19	<>	-1	n/a	n/a	0	0	0
3989514	DISTRACTOR	n/a	LTP378	ltpFR2	1	20	n/a	n/a	n/a	n/a	0	0	0
3989514	START	n/a	LTP378	ltpFR2	1	n/a	n/a	n/a	30	n/a	n/a	n/a	n/a
3989531	PROB	n/a	LTP378	ltpFR2	1	n/a	n/a	n/a	30	8	3	4	1
3993479	PROB	n/a	LTP378	ltpFR2	1	n/a	n/a	n/a	30	13	5	3	5
3995528	PROB	n/a	LTP378	ltpFR2	1	n/a	n/a	n/a	30	14	2	6	6
3997394	PROB	n/a	LTP378	ltpFR2	1	n/a	n/a	n/a	30	19	8	3	8
4005007	PROB	n/a	LTP378	ltpFR2	1	n/a	n/a	n/a	30	18	9	3	6
4007573	PROB	n/a	LTP378	ltpFR2	1	n/a	n/a	n/a	30	9	3	4	2
4009538	PROB	n/a	LTP378	ltpFR2	1	n/a	n/a	n/a	30	16	7	4	5
4012143	STOP	n/a	LTP378	ltpFR2	1	n/a	n/a	n/a	30	n/a	n/a	n/a	n/a
4014668	WORD	wordpools/wasnorm_wordpool_576.txt	LTP378	ltpFR2	1	20	COOK	372	n/a	n/a	0	0	0
4017118	WORD	wordpools/wasnorm_wordpool_576.txt	LTP378	ltpFR2	1	20	TERMITE	1451	n/a	n/a	0	0	0
4019666	WORD	wordpools/wasnorm_wordpool_576.txt	LTP378	ltpFR2	1	20	SCISSORS	1250	n/a	n/a	0	0	0
4022199	WORD	wordpools/wasnorm_wordpool_576.txt	LTP378	ltpFR2	1	20	ROCKET	1202	n/a	n/a	0	0	0
4024730	WORD	wordpools/wasnorm_wordpool_576.txt	LTP378	ltpFR2	1	20	AIRPORT	13	n/a	n/a	0	0	0
4027513	WORD	wordpools/wasnorm_wordpool_576.txt	LTP378	ltpFR2	1	20	SHOULDER	1294	n/a	n/a	0	0	0
4030029	WORD	wordpools/wasnorm_wordpool_576.txt	LTP378	ltpFR2	1	20	BABY	64	n/a	n/a	0	0	0
4032660	WORD	wordpools/wasnorm_wordpool_576.txt	LTP378	ltpFR2	1	20	RABBIT	1152	n/a	n/a	0	0	0
4035110	WORD	wordpools/wasnorm_wordpool_576.txt	LTP378	ltpFR2	1	20	TORTOISE	1486	n/a	n/a	0	0	0
4037691	WORD	wordpools/wasnorm_wordpool_576.txt	LTP378	ltpFR2	1	20	DONKEY	484	n/a	n/a	0	0	0
4040374	WORD	wordpools/wasnorm_wordpool_576.txt	LTP378	ltpFR2	1	20	CONVICT	371	n/a	n/a	0	0	0
4043056	WORD	wordpools/wasnorm_wordpool_576.txt	LTP378	ltpFR2	1	20	PECAN	1036	n/a	n/a	0	0	0
4045539	WORD	wordpools/wasnorm_wordpool_576.txt	LTP378	ltpFR2	1	20	GUITAR	670	n/a	n/a	0	0	0
4048154	WORD	wordpools/wasnorm_wordpool_576.txt	LTP378	ltpFR2	1	20	PACKAGE	997	n/a	n/a	0	0	0
4050936	WORD	wordpools/wasnorm_wordpool_576.txt	LTP378	ltpFR2	1	20	GIFT	635	n/a	n/a	0	0	0
4053684	WORD	wordpools/wasnorm_wordpool_576.txt	LTP378	ltpFR2	1	20	BANJO	82	n/a	n/a	0	0	0
4056500	WORD	wordpools/wasnorm_wordpool_576.txt	LTP378	ltpFR2	1	20	SURVEY	1414	n/a	n/a	0	0	0
4059299	WORD	wordpools/wasnorm_wordpool_576.txt	LTP378	ltpFR2	1	20	TABLE	1426	n/a	n/a	0	0	0
4061998	WORD	wordpools/wasnorm_wordpool_576.txt	LTP378	ltpFR2	1	20	GLASS	639	n/a	n/a	0	0	0
4064513	WORD	wordpools/wasnorm_wordpool_576.txt	LTP378	ltpFR2	1	20	CLOTHES	327	n/a	n/a	0	0	0
4067062	WORD	wordpools/wasnorm_wordpool_576.txt	LTP378	ltpFR2	1	20	CHIPMUNK	304	n/a	n/a	0	0	0
4069878	WORD	wordpools/wasnorm_wordpool_576.txt	LTP378	ltpFR2	1	20	GRIZZLY	662	n/a	n/a	0	0	0
4072410	WORD	wordpools/wasnorm_wordpool_576.txt	LTP378	ltpFR2	1	20	JURY	766	n/a	n/a	0	0	0
4075009	WORD	wordpools/wasnorm_wordpool_576.txt	LTP378	ltpFR2	1	20	CURTAIN	427	n/a	n/a	0	0	0
4076624	START	n/a	LTP378	ltpFR2	1	n/a	n/a	n/a	31	n/a	n/a	n/a	n/a
4077440	DISTRACTOR	n/a	LTP378	ltpFR2	1	20	n/a	n/a	n/a	n/a	0	0	0
4077458	PROB	n/a	LTP378	ltpFR2	1	n/a	n/a	n/a	31	16	1	6	9
4081289	PROB	n/a	LTP378	ltpFR2	1	n/a	n/a	n/a	31	12	1	6	5
4083505	PROB	n/a	LTP378	ltpFR2	1	n/a	n/a	n/a	31	20	7	4	9
4086254	PROB	n/a	LTP378	ltpFR2	1	n/a	n/a	n/a	31	15	7	1	7
4088886	PROB	n/a	LTP378	ltpFR2	1	n/a	n/a	n/a	31	12	1	4	7
4092218	PROB	n/a	LTP378	ltpFR2	1	n/a	n/a	n/a	31	14	5	8	1
4093766	PROB	n/a	LTP378	ltpFR2	1	n/a	n/a	n/a	31	21	8	6	7
4099705	STOP	n/a	LTP378	ltpFR2	1	n/a	n/a	n/a	31	n/a	n/a	n/a	n/a
4102397	REC_START	n/a	LTP378	ltpFR2	1	20	n/a	n/a	n/a	n/a	0	0	0
4107077	REC_WORD	wordpools/wasnorm_wordpool_576.txt	LTP378	ltpFR2	1	20	BUNNY	198	n/a	n/a	0	0	0
4107583	REC_WORD	wordpools/wasnorm_wordpool_576.txt	LTP378	ltpFR2	1	20	RABBIT	1152	n/a	n/a	0	0	0
4118091	REC_WORD	wordpools/wasnorm_wordpool_576.txt	LTP378	ltpFR2	1	20	PIGEON	1065	n/a	n/a	0	0	0
4133596	REC_WORD	wordpools/wasnorm_wordpool_576.txt	LTP378	ltpFR2	1	20	BIRD	129	n/a	n/a	0	0	0
4140723	REC_WORD	wordpools/wasnorm_wordpool_576.txt	LTP378	ltpFR2	1	20	CHIPMUNK	304	n/a	n/a	0	0	0
4141470	REC_WORD	wordpools/wasnorm_wordpool_576.txt	LTP378	ltpFR2	1	20	COSTUME	383	n/a	n/a	0	0	0
4146176	REC_WORD	wordpools/wasnorm_wordpool_576.txt	LTP378	ltpFR2	1	20	GUITAR	670	n/a	n/a	0	0	0
4192855	WORD	wordpools/wasnorm_wordpool_576.txt	LTP378	ltpFR2	1	21	PADDING	999	n/a	n/a	0	0	0
4195620	WORD	wordpools/wasnorm_wordpool_576.txt	LTP378	ltpFR2	1	21	RAZOR	1171	n/a	n/a	0	0	0
4198203	WORD	wordpools/wasnorm_wordpool_576.txt	LTP378	ltpFR2	1	21	WORLD	1622	n/a	n/a	0	0	0
4200902	WORD	wordpools/wasnorm_wordpool_576.txt	LTP378	ltpFR2	1	21	ATLAS	53	n/a	n/a	0	0	0
4203616	WORD	wordpools/wasnorm_wordpool_576.txt	LTP378	ltpFR2	1	21	PICTURE	1061	n/a	n/a	0	0	0
4206266	WORD	wordpools/wasnorm_wordpool_576.txt	LTP378	ltpFR2	1	21	SERVER	1272	n/a	n/a	0	0	0
4208714	WORD	wordpools/wasnorm_wordpool_576.txt	LTP378	ltpFR2	1	21	SEAL	1262	n/a	n/a	0	0	0
4211464	WORD	wordpools/wasnorm_wordpool_576.txt	LTP378	ltpFR2	1	21	OZONE	996	n/a	n/a	0	0	0
4213946	WORD	wordpools/wasnorm_wordpool_576.txt	LTP378	ltpFR2	1	21	BALLOON	75	n/a	n/a	0	0	0
4216627	WORD	wordpools/wasnorm_wordpool_576.txt	LTP378	ltpFR2	1	21	WAITER	1580	n/a	n/a	0	0	0
4219194	WORD	wordpools/wasnorm_wordpool_576.txt	LTP378	ltpFR2	1	21	COMPASS	358	n/a	n/a	0	0	0
4221826	WORD	wordpools/wasnorm_wordpool_576.txt	LTP378	ltpFR2	1	21	COURSE	390	n/a	n/a	0	0	0
4224408	WORD	wordpools/wasnorm_wordpool_576.txt	LTP378	ltpFR2	1	21	BUCKET	184	n/a	n/a	0	0	0
4227157	WORD	wordpools/wasnorm_wordpool_576.txt	LTP378	ltpFR2	1	21	CROSS	413	n/a	n/a	0	0	0
4229588	WORD	wordpools/wasnorm_wordpool_576.txt	LTP378	ltpFR2	1	21	FIDDLE	561	n/a	n/a	0	0	0
4232088	WORD	wordpools/wasnorm_wordpool_576.txt	LTP378	ltpFR2	1	21	MARSH	874	n/a	n/a	0	0	0
4234686	WORD	wordpools/wasnorm_wordpool_576.txt	LTP378	ltpFR2	1	21	SNAIL	1332	n/a	n/a	0	0	0
4237485	WORD	wordpools/wasnorm_wordpool_576.txt	LTP378	ltpFR2	1	21	PASSAGE	1019	n/a	n/a	0	0	0
4240251	WORD	wordpools/wasnorm_wordpool_576.txt	LTP378	ltpFR2	1	21	VIRUS	1572	n/a	n/a	0	0	0
4242798	WORD	wordpools/wasnorm_wordpool_576.txt	LTP378	ltpFR2	1	21	SCARF	1246	n/a	n/a	0	0	0
4245597	WORD	wordpools/wasnorm_wordpool_576.txt	LTP378	ltpFR2	1	21	HOUND	724	n/a	n/a	0	0	0
4248264	WORD	wordpools/wasnorm_wordpool_576.txt	LTP378	ltpFR2	1	21	QUAIL	1147	n/a	n/a	0	0	0
4250728	WORD	wordpools/wasnorm_wordpool_576.txt	LTP378	ltpFR2	1	21	RECEIPT	1173	n/a	n/a	0	0	0
4253178	WORD	wordpools/wasnorm_wordpool_576.txt	LTP378	ltpFR2	1	21	BULLET	194	n/a	n/a	0	0	0
4254793	START	n/a	LTP378	ltpFR2	1	n/a	n/a	n/a	32	n/a	n/a	n/a	n/a
4255603	DISTRACTOR	n/a	LTP378	ltpFR2	1	21	n/a	n/a	n/a	n/a	0	0	0
4255609	PROB	n/a	LTP378	ltpFR2	1	n/a	n/a	n/a	32	22	6	9	7
4262274	PROB	n/a	LTP378	ltpFR2	1	n/a	n/a	n/a	32	19	5	7	7
4266189	PROB	n/a	LTP378	ltpFR2	1	n/a	n/a	n/a	32	20	4	9	7
4269321	PROB	n/a	LTP378	ltpFR2	1	n/a	n/a	n/a	32	15	7	6	1
4271087	PROB	n/a	LTP378	ltpFR2	1	n/a	n/a	n/a	32	20	6	5	9
4275118	PROB	n/a	LTP378	ltpFR2	1	n/a	n/a	n/a	32	23	8	9	6
4278583	STOP	n/a	LTP378	ltpFR2	1	n/a	n/a	n/a	32	n/a	n/a	n/a	n/a
4280566	REC_START	n/a	LTP378	ltpFR2	1	21	n/a	n/a	n/a	n/a	0	0	0
4288833	REC_WORD	wordpools/wasnorm_wordpool_576.txt	LTP378	ltpFR2	1	21	HOUND	724	n/a	n/a	0	0	0
4297495	REC_WORD	wordpools/wasnorm_wordpool_576.txt	LTP378	ltpFR2	1	21	SERVER	1272	n/a	n/a	0	0	0
4299535	REC_WORD	wordpools/wasnorm_wordpool_576.txt	LTP378	ltpFR2	1	21	WAITRESS	1581	n/a	n/a	0	0	0
4302204	REC_WORD	wordpools/wasnorm_wordpool_576.txt	LTP378	ltpFR2	1	21	WAITER	1580	n/a	n/a	0	0	0
4306641	REC_WORD	wordpools/wasnorm_wordpool_576.txt	LTP378	ltpFR2	1	21	QUAIL	1147	n/a	n/a	0	0	0
4314935	REC_WORD	wordpools/wasnorm_wordpool_576.txt	LTP378	ltpFR2	1	21	SEAL	1262	n/a	n/a	0	0	0
4316819	REC_WORD	wordpools/wasnorm_wordpool_576.txt	LTP378	ltpFR2	1	21	WORLD	1622	n/a	n/a	0	0	0
4317676	REC_WORD	wordpools/wasnorm_wordpool_576.txt	LTP378	ltpFR2	1	21	ATLAS	53	n/a	n/a	0	0	0
4325016	REC_WORD	wordpools/wasnorm_wordpool_576.txt	LTP378	ltpFR2	1	21	COURSE	390	n/a	n/a	0	0	0
4371008	WORD	wordpools/wasnorm_wordpool_576.txt	LTP378	ltpFR2	1	22	FIREPLACE	570	n/a	n/a	0	0	0
4373540	WORD	wordpools/wasnorm_wordpool_576.txt	LTP378	ltpFR2	1	22	TUBA	1515	n/a	n/a	0	0	0
4376289	WORD	wordpools/wasnorm_wordpool_576.txt	LTP378	ltpFR2	1	22	PADDLE	1000	n/a	n/a	0	0	0
4378988	WORD	wordpools/wasnorm_wordpool_576.txt	LTP378	ltpFR2	1	22	BANKER	84	n/a	n/a	0	0	0
4381802	WORD	wordpools/wasnorm_wordpool_576.txt	LTP378	ltpFR2	1	22	ARMY	39	n/a	n/a	0	0	0
4384236	WORD	wordpools/wasnorm_wordpool_576.txt	LTP378	ltpFR2	1	22	CHURCH	307	n/a	n/a	0	0	0
4386717	WORD	wordpools/wasnorm_wordpool_576.txt	LTP378	ltpFR2	1	22	STALLION	1369	n/a	n/a	0	0	0
4389233	WORD	wordpools/wasnorm_wordpool_576.txt	LTP378	ltpFR2	1	22	BIKE	125	n/a	n/a	0	0	0
4391866	WORD	wordpools/wasnorm_wordpool_576.txt	LTP378	ltpFR2	1	22	HELMET	702	n/a	n/a	0	0	0
4394680	WORD	wordpools/wasnorm_wordpool_576.txt	LTP378	ltpFR2	1	22	LUNCH	849	n/a	n/a	0	0	0
4397213	WORD	wordpools/wasnorm_wordpool_576.txt	LTP378	ltpFR2	1	22	BUG	187	n/a	n/a	0	0	0
4399929	WORD	wordpools/wasnorm_wordpool_576.txt	LTP378	ltpFR2	1	22	COCOON	339	n/a	n/a	0	0	0
4402593	WORD	wordpools/wasnorm_wordpool_576.txt	LTP378	ltpFR2	1	22	SAUSAGE	1238	n/a	n/a	0	0	0
4405176	WORD	wordpools/wasnorm_wordpool_576.txt	LTP378	ltpFR2	1	22	STAR	1373	n/a	n/a	0	0	0
4407674	WORD	wordpools/wasnorm_wordpool_576.txt	LTP378	ltpFR2	1	22	DINER	467	n/a	n/a	0	0	0
4410390	WORD	wordpools/wasnorm_wordpool_576.txt	LTP378	ltpFR2	1	22	DOUGHNUT	490	n/a	n/a	0	0	0
4412906	WORD	wordpools/wasnorm_wordpool_576.txt	LTP378	ltpFR2	1	22	SUITCASE	1403	n/a	n/a	0	0	0
4415538	WORD	wordpools/wasnorm_wordpool_576.txt	LTP378	ltpFR2	1	22	FLUTE	585	n/a	n/a	0	0	0
4417987	WORD	wordpools/wasnorm_wordpool_576.txt	LTP378	ltpFR2	1	22	SPACE	1345	n/a	n/a	0	0	0
4420801	WORD	wordpools/wasnorm_wordpool_576.txt	LTP378	ltpFR2	1	22	ROBIN	1199	n/a	n/a	0	0	0
4423368	WORD	wordpools/wasnorm_wordpool_576.txt	LTP378	ltpFR2	1	22	SANDWICH	1232	n/a	n/a	0	0	0
4425834	WORD	wordpools/wasnorm_wordpool_576.txt	LTP378	ltpFR2	1	22	BOARD	143	n/a	n/a	0	0	0
4428432	WORD	wordpools/wasnorm_wordpool_576.txt	LTP378	ltpFR2	1	22	DUST	508	n/a	n/a	0	0	0
4430998	WORD	wordpools/wasnorm_wordpool_576.txt	LTP378	ltpFR2	1	22	JELLY	755	n/a	n/a	0	0	0
4432613	START	n/a	LTP378	ltpFR2	1	n/a	n/a	n/a	33	n/a	n/a	n/a	n/a
4433499	DISTRACTOR	n/a	LTP378	ltpFR2	1	22	n/a	n/a	n/a	n/a	0	0	0
4433513	PROB	n/a	LTP378	ltpFR2	1	n/a	n/a	n/a	33	17	3	6	8
4436462	PROB	n/a	LTP378	ltpFR2	1	n/a	n/a	n/a	33	11	3	4	4
4438777	PROB	n/a	LTP378	ltpFR2	1	n/a	n/a	n/a	33	20	6	7	7
4441343	PROB	n/a	LTP378	ltpFR2	1	n/a	n/a	n/a	33	19	6	8	5
4443542	PROB	n/a	LTP378	ltpFR2	1	n/a	n/a	n/a	33	13	3	4	6
4445723	PROB	n/a	LTP378	ltpFR2	1	n/a	n/a	n/a	33	16	9	2	5
4449373	PROB	n/a	LTP378	ltpFR2	1	n/a	n/a	n/a	33	13	8	3	2
4453188	PROB	n/a	LTP378	ltpFR2	1	n/a	n/a	n/a	33	7	3	2	2
4455943	STOP	n/a	LTP378	ltpFR2	1	n/a	n/a	n/a	33	n/a	n/a	n/a	n/a
4458370	REC_START	n/a	LTP378	ltpFR2	1	22	n/a	n/a	n/a	n/a	0	0	0
4460485	REC_WORD	wordpools/wasnorm_wordpool_576.txt	LTP378	ltpFR2	1	22	LUNCH	849	n/a	n/a	0	0	0
4461291	REC_WORD	wordpools/wasnorm_wordpool_576.txt	LTP378	ltpFR2	1	22	SANDWICH	1232	n/a	n/a	0	0	0
4472764	REC_WORD	wordpools/wasnorm_wordpool_576.txt	LTP378	ltpFR2	1	22	BUG	187	n/a	n/a	0	0	0
4473308	REC_WORD	wordpools/wasnorm_wordpool_576.txt	LTP378	ltpFR2	1	22	COCOON	339	n/a	n/a	0	0	0
4474890	REC_WORD	wordpools/wasnorm_wordpool_576.txt	LTP378	ltpFR2	1	22	STAR	1373	n/a	n/a	0	0	0
4475831	REC_WORD	wordpools/wasnorm_wordpool_576.txt	LTP378	ltpFR2	1	22	DINER	467	n/a	n/a	0	0	0
4491494	REC_WORD	wordpools/wasnorm_wordpool_576.txt	LTP378	ltpFR2	1	22	STALLION	1369	n/a	n/a	0	0	0
4499707	REC_WORD	wordpools/wasnorm_wordpool_576.txt	LTP378	ltpFR2	1	22	VIRUS	1572	n/a	n/a	0	0	0
4509228	REC_WORD	wordpools/wasnorm_wordpool_576.txt	LTP378	ltpFR2	1	22	PEACH	1031	n/a	n/a	0	0	0
4559373	DISTRACTOR	n/a	LTP378	ltpFR2	1	23	n/a	n/a	n/a	n/a	0	0	0
4559373	START	n/a	LTP378	ltpFR2	1	n/a	n/a	n/a	34	n/a	n/a	n/a	n/a
4559390	PROB	n/a	LTP378	ltpFR2	1	n/a	n/a	n/a	34	12	2	1	9
4562055	PROB	n/a	LTP378	ltpFR2	1	n/a	n/a	n/a	34	9	2	6	1
4563653	PROB	n/a	LTP378	ltpFR2	1	n/a	n/a	n/a	34	10	1	8	1
4565121	PROB	n/a	LTP378	ltpFR2	1	n/a	n/a	n/a	34	13	4	7	2
4567136	PROB	n/a	LTP378	ltpFR2	1	n/a	n/a	n/a	34	15	2	7	6
4569634	PROB	n/a	LTP378	ltpFR2	1	n/a	n/a	n/a	34	4	1	1	2
4571484	PROB	n/a	LTP378	ltpFR2	1	n/a	n/a	n/a	34	18	2	8	8
4573799	PROB	n/a	LTP378	ltpFR2	1	n/a	n/a	n/a	34	19	4	9	6
4575798	PROB	n/a	LTP378	ltpFR2	1	n/a	n/a	n/a	34	11	6	3	2
4577865	PROB	n/a	LTP378	ltpFR2	1	n/a	n/a	n/a	34	16	5	3	8
4583373	STOP	n/a	LTP378	ltpFR2	1	n/a	n/a	n/a	34	n/a	n/a	n/a	n/a
4584445	WORD	wordpools/wasnorm_wordpool_576.txt	LTP378	ltpFR2	1	23	TAXI	1438	n/a	n/a	0	0	0
4587211	WORD	wordpools/wasnorm_wordpool_576.txt	LTP378	ltpFR2	1	23	DRIVER	499	n/a	n/a	0	0	0
4589976	WORD	wordpools/wasnorm_wordpool_576.txt	LTP378	ltpFR2	1	23	FRUIT	610	n/a	n/a	0	0	0
4592724	WORD	wordpools/wasnorm_wordpool_576.txt	LTP378	ltpFR2	1	23	CRIB	407	n/a	n/a	0	0	0
4595274	WORD	wordpools/wasnorm_wordpool_576.txt	LTP378	ltpFR2	1	23	THREAD	1460	n/a	n/a	0	0	0
4597771	WORD	wordpools/wasnorm_wordpool_576.txt	LTP378	ltpFR2	1	23	GARDEN	623	n/a	n/a	0	0	0
4600338	WORD	wordpools/wasnorm_wordpool_576.txt	LTP378	ltpFR2	1	23	PEANUT	1032	n/a	n/a	0	0	0
4603037	WORD	wordpools/wasnorm_wordpool_576.txt	LTP378	ltpFR2	1	23	MUFFIN	929	n/a	n/a	0	0	0
4605801	WORD	wordpools/wasnorm_wordpool_576.txt	LTP378	ltpFR2	1	23	LAGOON	795	n/a	n/a	0	0	0
4608251	WORD	wordpools/wasnorm_wordpool_576.txt	LTP378	ltpFR2	1	23	DANCER	437	n/a	n/a	0	0	0
4610850	WORD	wordpools/wasnorm_wordpool_576.txt	LTP378	ltpFR2	1	23	YARN	1631	n/a	n/a	0	0	0
4613332	WORD	wordpools/wasnorm_wordpool_576.txt	LTP378	ltpFR2	1	23	LILY	821	n/a	n/a	0	0	0
4616081	WORD	wordpools/wasnorm_wordpool_576.txt	LTP378	ltpFR2	1	23	HAND	683	n/a	n/a	0	0	0
4618813	WORD	wordpools/wasnorm_wordpool_576.txt	LTP378	ltpFR2	1	23	CRUTCH	417	n/a	n/a	0	0	0
4621495	WORD	wordpools/wasnorm_wordpool_576.txt	LTP378	ltpFR2	1	23	DONOR	485	n/a	n/a	0	0	0
4624161	WORD	wordpools/wasnorm_wordpool_576.txt	LTP378	ltpFR2	1	23	CELLAR	267	n/a	n/a	0	0	0
4626675	WORD	wordpools/wasnorm_wordpool_576.txt	LTP378	ltpFR2	1	23	FLEET	578	n/a	n/a	0	0	0
4629491	WORD	wordpools/wasnorm_wordpool_576.txt	LTP378	ltpFR2	1	23	KIDNEY	776	n/a	n/a	0	0	0
4631940	WORD	wordpools/wasnorm_wordpool_576.txt	LTP378	ltpFR2	1	23	BOYFRIEND	162	n/a	n/a	0	0	0
4634588	WORD	wordpools/wasnorm_wordpool_576.txt	LTP378	ltpFR2	1	23	STAMP	1370	n/a	n/a	0	0	0
4637138	WORD	wordpools/wasnorm_wordpool_576.txt	LTP378	ltpFR2	1	23	STICKER	1382	n/a	n/a	0	0	0
4639920	WORD	wordpools/wasnorm_wordpool_576.txt	LTP378	ltpFR2	1	23	FLESH	579	n/a	n/a	0	0	0
4642369	WORD	wordpools/wasnorm_wordpool_576.txt	LTP378	ltpFR2	1	23	GRAPE	654	n/a	n/a	0	0	0
4644818	WORD	wordpools/wasnorm_wordpool_576.txt	LTP378	ltpFR2	1	23	CHAPEL	280	n/a	n/a	0	0	0
4646434	START	n/a	LTP378	ltpFR2	1	n/a	n/a	n/a	35	n/a	n/a	n/a	n/a
4647528	DISTRACTOR	n/a	LTP378	ltpFR2	1	23	n/a	n/a	n/a	n/a	0	0	0
4647533	PROB	n/a	LTP378	ltpFR2	1	n/a	n/a	n/a	35	14	8	5	1
4649899	PROB	n/a	LTP378	ltpFR2	1	n/a	n/a	n/a	35	19	7	8	4
4653497	PROB	n/a	LTP378	ltpFR2	1	n/a	n/a	n/a	35	12	5	4	2
4655430	PROB	n/a	LTP378	ltpFR2	1	n/a	n/a	n/a	35	5	3	1	1
4658928	PROB	n/a	LTP378	ltpFR2	1	n/a	n/a	n/a	35	16	1	8	7
4662860	PROB	n/a	LTP378	ltpFR2	1	n/a	n/a	n/a	35	13	1	9	3
4666757	PROB	n/a	LTP378	ltpFR2	1	n/a	n/a	n/a	35	12	1	4	7
4669659	STOP	n/a	LTP378	ltpFR2	1	n/a	n/a	n/a	35	n/a	n/a	n/a	n/a
4672206	REC_START	n/a	LTP378	ltpFR2	1	23	n/a	n/a	n/a	n/a	0	0	0
4673847	REC_WORD	wordpools/wasnorm_wordpool_576.txt	LTP378	ltpFR2	1	23	TAXI	1438	n/a	n/a	0	0	0
4674471	REC_WORD	wordpools/wasnorm_wordpool_576.txt	LTP378	ltpFR2	1	23	DRIVER	499	n/a	n/a	0	0	0
4675423	REC_WORD	wordpools/wasnorm_wordpool_576.txt	LTP378	ltpFR2	1	23	FRUIT	610	n/a	n/a	0	0	0
4676411	REC_WORD	wordpools/wasnorm_wordpool_576.txt	LTP378	ltpFR2	1	23	CRIB	407	n/a	n/a	0	0	0
4677883	REC_WORD	wordpools/wasnorm_wordpool_576.txt	LTP378	ltpFR2	1	23	LAGOON	795	n/a	n/a	0	0	0
4685372	REC_WORD	wordpools/wasnorm_wordpool_576.txt	LTP378	ltpFR2	1	23	CRUTCH	417	n/a	n/a	0	0	0
4686321	REC_WORD	wordpools/wasnorm_wordpool_576.txt	LTP378	ltpFR2	1	23	DONOR	485	n/a	n/a	0	0	0
4687062	REC_WORD	wordpools/wasnorm_wordpool_576.txt	LTP378	ltpFR2	1	23	KIDNEY	776	n/a	n/a	0	0	0
4692570	REC_WORD	wordpools/wasnorm_wordpool_576.txt	LTP378	ltpFR2	1	23	HAND	683	n/a	n/a	0	0	0
4702013	REC_WORD	wordpools/wasnorm_wordpool_576.txt	LTP378	ltpFR2	1	23	SUITCASE	1403	n/a	n/a	0	0	0
4708406	REC_WORD	wordpools/wasnorm_wordpool_576.txt	LTP378	ltpFR2	1	23	TRAVEL	-1	n/a	n/a	0	0	0
4728119	REC_WORD	wordpools/wasnorm_wordpool_576.txt	LTP378	ltpFR2	1	23	ONION	977	n/a	n/a	0	0	0
4739448	REC_WORD	wordpools/wasnorm_wordpool_576.txt	LTP378	ltpFR2	1	23	FIREPLACE	570	n/a	n/a	0	0	0
4762647	WORD	wordpools/wasnorm_wordpool_576.txt	LTP378	ltpFR2	1	24	COLONEL	348	n/a	n/a	0	0	0
4765097	WORD	wordpools/wasnorm_wordpool_576.txt	LTP378	ltpFR2	1	24	OX	994	n/a	n/a	0	0	0
4767678	WORD	wordpools/wasnorm_wordpool_576.txt	LTP378	ltpFR2	1	24	TREAT	1501	n/a	n/a	0	0	0
4770461	WORD	wordpools/wasnorm_wordpool_576.txt	LTP378	ltpFR2	1	24	VAGRANT	1544	n/a	n/a	0	0	0
4773277	WORD	wordpools/wasnorm_wordpool_576.txt	LTP378	ltpFR2	1	24	BELLY	119	n/a	n/a	0	0	0
4775942	WORD	wordpools/wasnorm_wordpool_576.txt	LTP378	ltpFR2	1	24	BISON	131	n/a	n/a	0	0	0
4778424	WORD	wordpools/wasnorm_wordpool_576.txt	LTP378	ltpFR2	1	24	RACKET	1155	n/a	n/a	0	0	0
4780940	WORD	wordpools/wasnorm_wordpool_576.txt	LTP378	ltpFR2	1	24	FLOWER	584	n/a	n/a	0	0	0
4783488	WORD	wordpools/wasnorm_wordpool_576.txt	LTP378	ltpFR2	1	24	PERMIT	1051	n/a	n/a	0	0	0
4786122	WORD	wordpools/wasnorm_wordpool_576.txt	LTP378	ltpFR2	1	24	RAFT	1159	n/a	n/a	0	0	0
4788702	WORD	wordpools/wasnorm_wordpool_576.txt	LTP378	ltpFR2	1	24	DIVER	476	n/a	n/a	0	0	0
4791235	WORD	wordpools/wasnorm_wordpool_576.txt	LTP378	ltpFR2	1	24	LACE	792	n/a	n/a	0	0	0
4793834	WORD	wordpools/wasnorm_wordpool_576.txt	LTP378	ltpFR2	1	24	SILK	1307	n/a	n/a	0	0	0
4796299	WORD	wordpools/wasnorm_wordpool_576.txt	LTP378	ltpFR2	1	24	AUTHOR	61	n/a	n/a	0	0	0
4798981	WORD	wordpools/wasnorm_wordpool_576.txt	LTP378	ltpFR2	1	24	LADDER	793	n/a	n/a	0	0	0
4801514	WORD	wordpools/wasnorm_wordpool_576.txt	LTP378	ltpFR2	1	24	OUTLAW	989	n/a	n/a	0	0	0
4803979	WORD	wordpools/wasnorm_wordpool_576.txt	LTP378	ltpFR2	1	24	MISSILE	900	n/a	n/a	0	0	0
4806777	WORD	wordpools/wasnorm_wordpool_576.txt	LTP378	ltpFR2	1	24	BEAKER	104	n/a	n/a	0	0	0
4809210	WORD	wordpools/wasnorm_wordpool_576.txt	LTP378	ltpFR2	1	24	SLOPE	1328	n/a	n/a	0	0	0
4811691	WORD	wordpools/wasnorm_wordpool_576.txt	LTP378	ltpFR2	1	24	JUGGLER	763	n/a	n/a	0	0	0
4814508	WORD	wordpools/wasnorm_wordpool_576.txt	LTP378	ltpFR2	1	24	SHELF	1280	n/a	n/a	0	0	0
4817040	WORD	wordpools/wasnorm_wordpool_576.txt	LTP378	ltpFR2	1	24	STUDENT	1395	n/a	n/a	0	0	0
4819621	WORD	wordpools/wasnorm_wordpool_576.txt	LTP378	ltpFR2	1	24	BLUEPRINT	142	n/a	n/a	0	0	0
4822271	WORD	wordpools/wasnorm_wordpool_576.txt	LTP378	ltpFR2	1	24	BASEMENT	94	n/a	n/a	0	0	0
4823887	START	n/a	LTP378	ltpFR2	1	n/a	n/a	n/a	36	n/a	n/a	n/a	n/a
4824725	DISTRACTOR	n/a	LTP378	ltpFR2	1	24	n/a	n/a	n/a	n/a	0	0	0
4824735	PROB	n/a	LTP378	ltpFR2	1	n/a	n/a	n/a	36	15	9	1	5
4828102	PROB	n/a	LTP378	ltpFR2	1	n/a	n/a	n/a	36	11	4	1	6
4829733	PROB	n/a	LTP378	ltpFR2	1	n/a	n/a	n/a	36	15	6	8	1
4831950	PROB	n/a	LTP378	ltpFR2	1	n/a	n/a	n/a	36	18	3	7	8
4833916	PROB	n/a	LTP378	ltpFR2	1	n/a	n/a	n/a	36	20	3	9	8
4836630	PROB	n/a	LTP378	ltpFR2	1	n/a	n/a	n/a	36	15	1	6	8
4838947	PROB	n/a	LTP378	ltpFR2	1	n/a	n/a	n/a	36	19	5	6	8
4840863	PROB	n/a	LTP378	ltpFR2	1	n/a	n/a	n/a	36	15	8	5	2
4842761	PROB	n/a	LTP378	ltpFR2	1	n/a	n/a	n/a	36	13	6	1	2
4847887	STOP	n/a	LTP378	ltpFR2	1	n/a	n/a	n/a	36	n/a	n/a	n/a	n/a
4849725	REC_START	n/a	LTP378	ltpFR2	1	24	n/a	n/a	n/a	n/a	0	0	0
4853872	REC_WORD	wordpools/wasnorm_wordpool_576.txt	LTP378	ltpFR2	1	24	OX	994	n/a	n/a	0	0	0
4856014	REC_WORD	wordpools/wasnorm_wordpool_576.txt	LTP378	ltpFR2	1	24	COLONEL	348	n/a	n/a	0	0	0
4861086	REC_WORD	wordpools/wasnorm_wordpool_576.txt	LTP378	ltpFR2	1	24	VAGRANT	1544	n/a	n/a	0	0	0
4861998	REC_WORD	wordpools/wasnorm_wordpool_576.txt	LTP378	ltpFR2	1	24	BISON	131	n/a	n/a	0	0	0
4866286	REC_WORD	wordpools/wasnorm_wordpool_576.txt	LTP378	ltpFR2	1	24	BELLY	119	n/a	n/a	0	0	0
4904316	REC_WORD	wordpools/wasnorm_wordpool_576.txt	LTP378	ltpFR2	1	24	VESSEL	1558	n/a	n/a	0	0	0
4930239	SESS_END	n/a	LTP378	ltpFR2	1	24	n/a	n/a	n/a	n/a	0	0	0
