mstime	trial_type	stim_file	subject	experiment	session	trial	item_name	item_num	list	answer	test_x	test_y	test_z
0	SESS_START	n/a	LTP374	ltpFR2	21	n/a	n/a	n/a	n/a	n/a	0	0	0
12649	START	n/a	LTP374	ltpFR2	21	n/a	n/a	n/a	-1	n/a	n/a	n/a	n/a
12679	PROB	n/a	LTP374	ltpFR2	21	n/a	n/a	n/a	-1	13	6	1	6
13462	PROB	n/a	LTP374	ltpFR2	21	n/a	n/a	n/a	-1	18	7	2	9
14294	PROB	n/a	LTP374	ltpFR2	21	n/a	n/a	n/a	-1	14	9	3	2
15261	PROB	n/a	LTP374	ltpFR2	21	n/a	n/a	n/a	-1	14	6	7	1
16009	PROB	n/a	LTP374	ltpFR2	21	n/a	n/a	n/a	-1	18	6	6	6
16677	PROB	n/a	LTP374	ltpFR2	21	n/a	n/a	n/a	-1	16	8	4	4
17560	PROB	n/a	LTP374	ltpFR2	21	n/a	n/a	n/a	-1	15	3	8	5
18442	PROB	n/a	LTP374	ltpFR2	21	n/a	n/a	n/a	-1	15	2	4	9
19259	PROB	n/a	LTP374	ltpFR2	21	n/a	n/a	n/a	-1	17	9	6	2
20242	PROB	n/a	LTP374	ltpFR2	21	n/a	n/a	n/a	-1	15	3	7	5
20957	PROB	n/a	LTP374	ltpFR2	21	n/a	n/a	n/a	-1	23	9	9	5
21940	PROB	n/a	LTP374	ltpFR2	21	n/a	n/a	n/a	-1	1	1	6	6
22823	PROB	n/a	LTP374	ltpFR2	21	n/a	n/a	n/a	-1	12	3	5	4
23761	STOP	n/a	LTP374	ltpFR2	21	n/a	n/a	n/a	-1	n/a	n/a	n/a	n/a
53908	DISTRACTOR	n/a	LTP374	ltpFR2	21	1	n/a	n/a	n/a	n/a	0	0	0
53909	START	n/a	LTP374	ltpFR2	21	n/a	n/a	n/a	1	n/a	n/a	n/a	n/a
53925	PROB	n/a	LTP374	ltpFR2	21	n/a	n/a	n/a	1	22	7	9	5
55192	PROB	n/a	LTP374	ltpFR2	21	n/a	n/a	n/a	1	7	2	2	3
55957	PROB	n/a	LTP374	ltpFR2	21	n/a	n/a	n/a	1	11	3	7	1
56907	PROB	n/a	LTP374	ltpFR2	21	n/a	n/a	n/a	1	11	2	8	1
57691	PROB	n/a	LTP374	ltpFR2	21	n/a	n/a	n/a	1	19	8	2	9
58374	PROB	n/a	LTP374	ltpFR2	21	n/a	n/a	n/a	1	13	5	4	6
59274	PROB	n/a	LTP374	ltpFR2	21	n/a	n/a	n/a	1	22	6	8	8
60223	PROB	n/a	LTP374	ltpFR2	21	n/a	n/a	n/a	1	15	3	8	2
61005	PROB	n/a	LTP374	ltpFR2	21	n/a	n/a	n/a	1	9	3	2	4
61871	PROB	n/a	LTP374	ltpFR2	21	n/a	n/a	n/a	1	18	7	4	7
62705	PROB	n/a	LTP374	ltpFR2	21	n/a	n/a	n/a	1	16	3	8	5
63655	PROB	n/a	LTP374	ltpFR2	21	n/a	n/a	n/a	1	15	7	5	3
64987	PROB	n/a	LTP374	ltpFR2	21	n/a	n/a	n/a	1	14	6	2	6
65853	PROB	n/a	LTP374	ltpFR2	21	n/a	n/a	n/a	1	15	3	4	8
66554	PROB	n/a	LTP374	ltpFR2	21	n/a	n/a	n/a	1	6	1	2	3
67203	PROB	n/a	LTP374	ltpFR2	21	n/a	n/a	n/a	1	12	1	5	6
67852	PROB	n/a	LTP374	ltpFR2	21	n/a	n/a	n/a	1	22	6	9	7
68819	PROB	n/a	LTP374	ltpFR2	21	n/a	n/a	n/a	1	10	1	8	1
69602	PROB	n/a	LTP374	ltpFR2	21	n/a	n/a	n/a	1	18	7	3	8
70285	PROB	n/a	LTP374	ltpFR2	21	n/a	n/a	n/a	1	11	3	2	6
71185	PROB	n/a	LTP374	ltpFR2	21	n/a	n/a	n/a	1	21	9	5	7
72000	PROB	n/a	LTP374	ltpFR2	21	n/a	n/a	n/a	1	17	7	1	9
73184	PROB	n/a	LTP374	ltpFR2	21	n/a	n/a	n/a	1	12	9	2	1
73883	PROB	n/a	LTP374	ltpFR2	21	n/a	n/a	n/a	1	15	4	7	3
74633	PROB	n/a	LTP374	ltpFR2	21	n/a	n/a	n/a	1	16	8	4	4
75433	PROB	n/a	LTP374	ltpFR2	21	n/a	n/a	n/a	1	17	9	6	2
76232	PROB	n/a	LTP374	ltpFR2	21	n/a	n/a	n/a	1	17	6	5	6
77075	STOP	n/a	LTP374	ltpFR2	21	n/a	n/a	n/a	1	n/a	n/a	n/a	n/a
78997	WORD	wordpools/wasnorm_wordpool_576.txt	LTP374	ltpFR2	21	1	CHEST	295	n/a	n/a	0	0	0
81697	WORD	wordpools/wasnorm_wordpool_576.txt	LTP374	ltpFR2	21	1	BARREL	91	n/a	n/a	0	0	0
84412	WORD	wordpools/wasnorm_wordpool_576.txt	LTP374	ltpFR2	21	1	ATOM	55	n/a	n/a	0	0	0
87127	WORD	wordpools/wasnorm_wordpool_576.txt	LTP374	ltpFR2	21	1	CLAMP	316	n/a	n/a	0	0	0
89593	WORD	wordpools/wasnorm_wordpool_576.txt	LTP374	ltpFR2	21	1	STICKER	1382	n/a	n/a	0	0	0
92325	WORD	wordpools/wasnorm_wordpool_576.txt	LTP374	ltpFR2	21	1	LIGHTNING	820	n/a	n/a	0	0	0
94889	WORD	wordpools/wasnorm_wordpool_576.txt	LTP374	ltpFR2	21	1	CARROT	249	n/a	n/a	0	0	0
97473	WORD	wordpools/wasnorm_wordpool_576.txt	LTP374	ltpFR2	21	1	PIANO	1057	n/a	n/a	0	0	0
99904	WORD	wordpools/wasnorm_wordpool_576.txt	LTP374	ltpFR2	21	1	HEART	697	n/a	n/a	0	0	0
102454	WORD	wordpools/wasnorm_wordpool_576.txt	LTP374	ltpFR2	21	1	TRANSPLANT	1496	n/a	n/a	0	0	0
105252	WORD	wordpools/wasnorm_wordpool_576.txt	LTP374	ltpFR2	21	1	SPHINX	1349	n/a	n/a	0	0	0
107883	WORD	wordpools/wasnorm_wordpool_576.txt	LTP374	ltpFR2	21	1	TEMPLE	1448	n/a	n/a	0	0	0
110483	WORD	wordpools/wasnorm_wordpool_576.txt	LTP374	ltpFR2	21	1	MISSILE	900	n/a	n/a	0	0	0
113282	WORD	wordpools/wasnorm_wordpool_576.txt	LTP374	ltpFR2	21	1	UNCLE	1536	n/a	n/a	0	0	0
116013	WORD	wordpools/wasnorm_wordpool_576.txt	LTP374	ltpFR2	21	1	SHOVEL	1295	n/a	n/a	0	0	0
118596	WORD	wordpools/wasnorm_wordpool_576.txt	LTP374	ltpFR2	21	1	RADISH	1158	n/a	n/a	0	0	0
121178	WORD	wordpools/wasnorm_wordpool_576.txt	LTP374	ltpFR2	21	1	GLASS	639	n/a	n/a	0	0	0
124110	WORD	wordpools/wasnorm_wordpool_576.txt	LTP374	ltpFR2	21	1	HORNET	718	n/a	n/a	0	0	0
126925	WORD	wordpools/wasnorm_wordpool_576.txt	LTP374	ltpFR2	21	1	DUST	508	n/a	n/a	0	0	0
129374	WORD	wordpools/wasnorm_wordpool_576.txt	LTP374	ltpFR2	21	1	FIREMAN	569	n/a	n/a	0	0	0
131956	WORD	wordpools/wasnorm_wordpool_576.txt	LTP374	ltpFR2	21	1	WASHER	1592	n/a	n/a	0	0	0
134505	WORD	wordpools/wasnorm_wordpool_576.txt	LTP374	ltpFR2	21	1	BRANDY	169	n/a	n/a	0	0	0
137304	WORD	wordpools/wasnorm_wordpool_576.txt	LTP374	ltpFR2	21	1	CITRUS	313	n/a	n/a	0	0	0
139736	WORD	wordpools/wasnorm_wordpool_576.txt	LTP374	ltpFR2	21	1	LETTUCE	814	n/a	n/a	0	0	0
141352	START	n/a	LTP374	ltpFR2	21	n/a	n/a	n/a	2	n/a	n/a	n/a	n/a
142350	DISTRACTOR	n/a	LTP374	ltpFR2	21	1	n/a	n/a	n/a	n/a	0	0	0
142352	PROB	n/a	LTP374	ltpFR2	21	n/a	n/a	n/a	2	18	9	1	8
143235	PROB	n/a	LTP374	ltpFR2	21	n/a	n/a	n/a	2	16	5	3	8
143917	PROB	n/a	LTP374	ltpFR2	21	n/a	n/a	n/a	2	12	6	1	5
144551	PROB	n/a	LTP374	ltpFR2	21	n/a	n/a	n/a	2	16	6	1	9
145300	PROB	n/a	LTP374	ltpFR2	21	n/a	n/a	n/a	2	16	4	3	9
146066	PROB	n/a	LTP374	ltpFR2	21	n/a	n/a	n/a	2	10	3	4	3
146899	PROB	n/a	LTP374	ltpFR2	21	n/a	n/a	n/a	2	15	5	6	5
147666	PROB	n/a	LTP374	ltpFR2	21	n/a	n/a	n/a	2	10	1	5	4
148749	PROB	n/a	LTP374	ltpFR2	21	n/a	n/a	n/a	2	12	8	2	2
149382	PROB	n/a	LTP374	ltpFR2	21	n/a	n/a	n/a	2	21	4	7	9
150182	PROB	n/a	LTP374	ltpFR2	21	n/a	n/a	n/a	2	16	9	1	6
151564	PROB	n/a	LTP374	ltpFR2	21	n/a	n/a	n/a	2	10	7	2	1
152430	PROB	n/a	LTP374	ltpFR2	21	n/a	n/a	n/a	2	21	9	6	6
153197	PROB	n/a	LTP374	ltpFR2	21	n/a	n/a	n/a	2	16	3	5	8
153879	PROB	n/a	LTP374	ltpFR2	21	n/a	n/a	n/a	2	11	1	9	1
154579	PROB	n/a	LTP374	ltpFR2	21	n/a	n/a	n/a	2	7	4	2	1
155396	PROB	n/a	LTP374	ltpFR2	21	n/a	n/a	n/a	2	19	7	8	4
156245	PROB	n/a	LTP374	ltpFR2	21	n/a	n/a	n/a	2	11	2	1	8
157445	PROB	n/a	LTP374	ltpFR2	21	n/a	n/a	n/a	2	18	7	2	9
158178	PROB	n/a	LTP374	ltpFR2	21	n/a	n/a	n/a	2	12	4	7	1
158943	PROB	n/a	LTP374	ltpFR2	21	n/a	n/a	n/a	2	10	3	6	1
159760	PROB	n/a	LTP374	ltpFR2	21	n/a	n/a	n/a	2	22	9	8	5
161143	PROB	n/a	LTP374	ltpFR2	21	n/a	n/a	n/a	2	19	8	5	8
162159	PROB	n/a	LTP374	ltpFR2	21	n/a	n/a	n/a	2	7	2	1	4
162908	PROB	n/a	LTP374	ltpFR2	21	n/a	n/a	n/a	2	9	4	4	1
163559	PROB	n/a	LTP374	ltpFR2	21	n/a	n/a	n/a	2	21	5	8	8
164542	STOP	n/a	LTP374	ltpFR2	21	n/a	n/a	n/a	2	n/a	n/a	n/a	n/a
167124	REC_START	n/a	LTP374	ltpFR2	21	1	n/a	n/a	n/a	n/a	0	0	0
168764	REC_WORD	wordpools/wasnorm_wordpool_576.txt	LTP374	ltpFR2	21	1	WASHER	1592	n/a	n/a	0	0	0
169620	REC_WORD	wordpools/wasnorm_wordpool_576.txt	LTP374	ltpFR2	21	1	BRANDY	169	n/a	n/a	0	0	0
170512	REC_WORD	wordpools/wasnorm_wordpool_576.txt	LTP374	ltpFR2	21	1	LETTUCE	814	n/a	n/a	0	0	0
171457	REC_WORD	wordpools/wasnorm_wordpool_576.txt	LTP374	ltpFR2	21	1	DUST	508	n/a	n/a	0	0	0
172188	REC_WORD	wordpools/wasnorm_wordpool_576.txt	LTP374	ltpFR2	21	1	RUST	1219	n/a	n/a	0	0	0
173829	REC_WORD	wordpools/wasnorm_wordpool_576.txt	LTP374	ltpFR2	21	1	MISSILE	900	n/a	n/a	0	0	0
174569	REC_WORD	wordpools/wasnorm_wordpool_576.txt	LTP374	ltpFR2	21	1	HORNET	718	n/a	n/a	0	0	0
175304	REC_WORD	wordpools/wasnorm_wordpool_576.txt	LTP374	ltpFR2	21	1	LIGHTNING	820	n/a	n/a	0	0	0
176704	REC_WORD	wordpools/wasnorm_wordpool_576.txt	LTP374	ltpFR2	21	1	SHOVEL	1295	n/a	n/a	0	0	0
179866	REC_WORD	wordpools/wasnorm_wordpool_576.txt	LTP374	ltpFR2	21	1	FIREMAN	569	n/a	n/a	0	0	0
180800	REC_WORD	wordpools/wasnorm_wordpool_576.txt	LTP374	ltpFR2	21	1	UNCLE	1536	n/a	n/a	0	0	0
181396	REC_WORD	wordpools/wasnorm_wordpool_576.txt	LTP374	ltpFR2	21	1	HEART	697	n/a	n/a	0	0	0
182099	REC_WORD	wordpools/wasnorm_wordpool_576.txt	LTP374	ltpFR2	21	1	TRANSPLANT	1496	n/a	n/a	0	0	0
184711	REC_WORD	wordpools/wasnorm_wordpool_576.txt	LTP374	ltpFR2	21	1	GLASS	639	n/a	n/a	0	0	0
185267	REC_WORD	wordpools/wasnorm_wordpool_576.txt	LTP374	ltpFR2	21	1	TEMPLE	1448	n/a	n/a	0	0	0
185824	REC_WORD	wordpools/wasnorm_wordpool_576.txt	LTP374	ltpFR2	21	1	SPHINX	1349	n/a	n/a	0	0	0
188849	REC_WORD	wordpools/wasnorm_wordpool_576.txt	LTP374	ltpFR2	21	1	BARREL	91	n/a	n/a	0	0	0
190119	REC_WORD	wordpools/wasnorm_wordpool_576.txt	LTP374	ltpFR2	21	1	CARROT	249	n/a	n/a	0	0	0
191742	REC_WORD	wordpools/wasnorm_wordpool_576.txt	LTP374	ltpFR2	21	1	RADISH	1158	n/a	n/a	0	0	0
193757	REC_WORD	wordpools/wasnorm_wordpool_576.txt	LTP374	ltpFR2	21	1	CHEST	295	n/a	n/a	0	0	0
195137	REC_WORD	wordpools/wasnorm_wordpool_576.txt	LTP374	ltpFR2	21	1	ATOM	55	n/a	n/a	0	0	0
195936	REC_WORD	wordpools/wasnorm_wordpool_576.txt	LTP374	ltpFR2	21	1	CLAMP	316	n/a	n/a	0	0	0
196507	REC_WORD	wordpools/wasnorm_wordpool_576.txt	LTP374	ltpFR2	21	1	STICKER	1382	n/a	n/a	0	0	0
257582	DISTRACTOR	n/a	LTP374	ltpFR2	21	2	n/a	n/a	n/a	n/a	0	0	0
257582	START	n/a	LTP374	ltpFR2	21	n/a	n/a	n/a	3	n/a	n/a	n/a	n/a
257598	PROB	n/a	LTP374	ltpFR2	21	n/a	n/a	n/a	3	9	2	2	5
258231	PROB	n/a	LTP374	ltpFR2	21	n/a	n/a	n/a	3	22	7	9	7
259331	PROB	n/a	LTP374	ltpFR2	21	n/a	n/a	n/a	3	2	4	1	7
260197	PROB	n/a	LTP374	ltpFR2	21	n/a	n/a	n/a	3	9	6	2	1
260996	PROB	n/a	LTP374	ltpFR2	21	n/a	n/a	n/a	3	18	8	7	5
261979	PROB	n/a	LTP374	ltpFR2	21	n/a	n/a	n/a	3	18	9	3	6
262895	PROB	n/a	LTP374	ltpFR2	21	n/a	n/a	n/a	3	6	2	3	1
263512	PROB	n/a	LTP374	ltpFR2	21	n/a	n/a	n/a	3	12	3	1	9
264179	PROB	n/a	LTP374	ltpFR2	21	n/a	n/a	n/a	3	22	8	6	8
265128	PROB	n/a	LTP374	ltpFR2	21	n/a	n/a	n/a	3	16	6	6	4
265860	PROB	n/a	LTP374	ltpFR2	21	n/a	n/a	n/a	3	18	6	6	8
266711	PROB	n/a	LTP374	ltpFR2	21	n/a	n/a	n/a	3	4	1	2	1
267477	PROB	n/a	LTP374	ltpFR2	21	n/a	n/a	n/a	3	18	2	8	8
268393	PROB	n/a	LTP374	ltpFR2	21	n/a	n/a	n/a	3	16	2	7	7
269443	PROB	n/a	LTP374	ltpFR2	21	n/a	n/a	n/a	3	7	4	1	3
270143	PROB	n/a	LTP374	ltpFR2	21	n/a	n/a	n/a	3	9	3	1	5
270991	PROB	n/a	LTP374	ltpFR2	21	n/a	n/a	n/a	3	17	7	9	1
271692	PROB	n/a	LTP374	ltpFR2	21	n/a	n/a	n/a	3	15	6	2	7
272541	PROB	n/a	LTP374	ltpFR2	21	n/a	n/a	n/a	3	12	4	6	2
273274	PROB	n/a	LTP374	ltpFR2	21	n/a	n/a	n/a	3	15	5	4	6
274241	PROB	n/a	LTP374	ltpFR2	21	n/a	n/a	n/a	3	1	3	1	8
275290	PROB	n/a	LTP374	ltpFR2	21	n/a	n/a	n/a	3	15	9	4	2
276039	PROB	n/a	LTP374	ltpFR2	21	n/a	n/a	n/a	3	22	7	7	8
276872	PROB	n/a	LTP374	ltpFR2	21	n/a	n/a	n/a	3	1	3	4	5
277589	PROB	n/a	LTP374	ltpFR2	21	n/a	n/a	n/a	3	18	8	3	7
278439	PROB	n/a	LTP374	ltpFR2	21	n/a	n/a	n/a	3	11	1	1	9
279188	PROB	n/a	LTP374	ltpFR2	21	n/a	n/a	n/a	3	14	2	3	9
280054	PROB	n/a	LTP374	ltpFR2	21	n/a	n/a	n/a	3	16	5	6	5
280698	STOP	n/a	LTP374	ltpFR2	21	n/a	n/a	n/a	3	n/a	n/a	n/a	n/a
282720	WORD	wordpools/wasnorm_wordpool_576.txt	LTP374	ltpFR2	21	2	SHIRT	1287	n/a	n/a	0	0	0
285535	WORD	wordpools/wasnorm_wordpool_576.txt	LTP374	ltpFR2	21	2	YACHT	1629	n/a	n/a	0	0	0
288234	WORD	wordpools/wasnorm_wordpool_576.txt	LTP374	ltpFR2	21	2	OMELET	976	n/a	n/a	0	0	0
290865	WORD	wordpools/wasnorm_wordpool_576.txt	LTP374	ltpFR2	21	2	FLUTE	585	n/a	n/a	0	0	0
293399	WORD	wordpools/wasnorm_wordpool_576.txt	LTP374	ltpFR2	21	2	SIBLING	1301	n/a	n/a	0	0	0
295830	WORD	wordpools/wasnorm_wordpool_576.txt	LTP374	ltpFR2	21	2	JUNGLE	764	n/a	n/a	0	0	0
298346	WORD	wordpools/wasnorm_wordpool_576.txt	LTP374	ltpFR2	21	2	ULCER	1533	n/a	n/a	0	0	0
300812	WORD	wordpools/wasnorm_wordpool_576.txt	LTP374	ltpFR2	21	2	MILK	895	n/a	n/a	0	0	0
303360	WORD	wordpools/wasnorm_wordpool_576.txt	LTP374	ltpFR2	21	2	BASEMENT	94	n/a	n/a	0	0	0
305875	WORD	wordpools/wasnorm_wordpool_576.txt	LTP374	ltpFR2	21	2	HARP	689	n/a	n/a	0	0	0
308608	WORD	wordpools/wasnorm_wordpool_576.txt	LTP374	ltpFR2	21	2	HONEY	713	n/a	n/a	0	0	0
311307	WORD	wordpools/wasnorm_wordpool_576.txt	LTP374	ltpFR2	21	2	CUPBOARD	425	n/a	n/a	0	0	0
314005	WORD	wordpools/wasnorm_wordpool_576.txt	LTP374	ltpFR2	21	2	LODGE	839	n/a	n/a	0	0	0
316721	WORD	wordpools/wasnorm_wordpool_576.txt	LTP374	ltpFR2	21	2	BLUEPRINT	142	n/a	n/a	0	0	0
319336	WORD	wordpools/wasnorm_wordpool_576.txt	LTP374	ltpFR2	21	2	SUMMIT	1405	n/a	n/a	0	0	0
321918	WORD	wordpools/wasnorm_wordpool_576.txt	LTP374	ltpFR2	21	2	OINTMENT	974	n/a	n/a	0	0	0
324351	WORD	wordpools/wasnorm_wordpool_576.txt	LTP374	ltpFR2	21	2	DRUG	501	n/a	n/a	0	0	0
326816	WORD	wordpools/wasnorm_wordpool_576.txt	LTP374	ltpFR2	21	2	SALAD	1224	n/a	n/a	0	0	0
329632	WORD	wordpools/wasnorm_wordpool_576.txt	LTP374	ltpFR2	21	2	GRILL	661	n/a	n/a	0	0	0
332430	WORD	wordpools/wasnorm_wordpool_576.txt	LTP374	ltpFR2	21	2	CUSTARD	429	n/a	n/a	0	0	0
335062	WORD	wordpools/wasnorm_wordpool_576.txt	LTP374	ltpFR2	21	2	PUDDING	1139	n/a	n/a	0	0	0
337595	WORD	wordpools/wasnorm_wordpool_576.txt	LTP374	ltpFR2	21	2	BANKER	84	n/a	n/a	0	0	0
340260	WORD	wordpools/wasnorm_wordpool_576.txt	LTP374	ltpFR2	21	2	DANCER	437	n/a	n/a	0	0	0
342858	WORD	wordpools/wasnorm_wordpool_576.txt	LTP374	ltpFR2	21	2	DRESS	495	n/a	n/a	0	0	0
344475	START	n/a	LTP374	ltpFR2	21	n/a	n/a	n/a	4	n/a	n/a	n/a	n/a
345645	DISTRACTOR	n/a	LTP374	ltpFR2	21	2	n/a	n/a	n/a	n/a	0	0	0
345658	PROB	n/a	LTP374	ltpFR2	21	n/a	n/a	n/a	4	22	3	8	9
346707	PROB	n/a	LTP374	ltpFR2	21	n/a	n/a	n/a	4	12	5	2	5
347690	PROB	n/a	LTP374	ltpFR2	21	n/a	n/a	n/a	4	12	4	1	7
348356	PROB	n/a	LTP374	ltpFR2	21	n/a	n/a	n/a	4	17	9	2	6
349439	PROB	n/a	LTP374	ltpFR2	21	n/a	n/a	n/a	4	13	6	4	3
350156	PROB	n/a	LTP374	ltpFR2	21	n/a	n/a	n/a	4	10	3	4	3
350954	PROB	n/a	LTP374	ltpFR2	21	n/a	n/a	n/a	4	9	3	4	2
351755	PROB	n/a	LTP374	ltpFR2	21	n/a	n/a	n/a	4	14	8	4	4
352920	PROB	n/a	LTP374	ltpFR2	21	n/a	n/a	n/a	4	9	5	2	2
353637	PROB	n/a	LTP374	ltpFR2	21	n/a	n/a	n/a	4	10	3	4	3
354504	PROB	n/a	LTP374	ltpFR2	21	n/a	n/a	n/a	4	11	1	6	4
355370	PROB	n/a	LTP374	ltpFR2	21	n/a	n/a	n/a	4	11	2	3	6
356119	PROB	n/a	LTP374	ltpFR2	21	n/a	n/a	n/a	4	17	8	1	8
357018	PROB	n/a	LTP374	ltpFR2	21	n/a	n/a	n/a	4	19	7	8	4
358268	PROB	n/a	LTP374	ltpFR2	21	n/a	n/a	n/a	4	21	5	9	7
359218	PROB	n/a	LTP374	ltpFR2	21	n/a	n/a	n/a	4	17	5	4	8
360017	PROB	n/a	LTP374	ltpFR2	21	n/a	n/a	n/a	4	21	9	4	8
360916	PROB	n/a	LTP374	ltpFR2	21	n/a	n/a	n/a	4	17	8	6	3
361783	PROB	n/a	LTP374	ltpFR2	21	n/a	n/a	n/a	4	18	6	5	7
362633	PROB	n/a	LTP374	ltpFR2	21	n/a	n/a	n/a	4	23	8	6	9
363881	PROB	n/a	LTP374	ltpFR2	21	n/a	n/a	n/a	4	19	8	3	8
365048	PROB	n/a	LTP374	ltpFR2	21	n/a	n/a	n/a	4	13	1	6	6
365815	PROB	n/a	LTP374	ltpFR2	21	n/a	n/a	n/a	4	14	4	8	2
366648	PROB	n/a	LTP374	ltpFR2	21	n/a	n/a	n/a	4	22	6	8	8
367461	STOP	n/a	LTP374	ltpFR2	21	n/a	n/a	n/a	4	n/a	n/a	n/a	n/a
370363	REC_START	n/a	LTP374	ltpFR2	21	2	n/a	n/a	n/a	n/a	0	0	0
372622	REC_WORD	wordpools/wasnorm_wordpool_576.txt	LTP374	ltpFR2	21	2	BANKER	84	n/a	n/a	0	0	0
373284	REC_WORD	wordpools/wasnorm_wordpool_576.txt	LTP374	ltpFR2	21	2	DANCER	437	n/a	n/a	0	0	0
373962	REC_WORD	wordpools/wasnorm_wordpool_576.txt	LTP374	ltpFR2	21	2	DRESS	495	n/a	n/a	0	0	0
375234	REC_WORD	wordpools/wasnorm_wordpool_576.txt	LTP374	ltpFR2	21	2	CUPBOARD	425	n/a	n/a	0	0	0
376318	REC_WORD	wordpools/wasnorm_wordpool_576.txt	LTP374	ltpFR2	21	2	OMELET	976	n/a	n/a	0	0	0
376961	REC_WORD	wordpools/wasnorm_wordpool_576.txt	LTP374	ltpFR2	21	2	DRUG	501	n/a	n/a	0	0	0
377623	REC_WORD	wordpools/wasnorm_wordpool_576.txt	LTP374	ltpFR2	21	2	OINTMENT	974	n/a	n/a	0	0	0
379081	REC_WORD	wordpools/wasnorm_wordpool_576.txt	LTP374	ltpFR2	21	2	BASEMENT	94	n/a	n/a	0	0	0
379566	REC_WORD	wordpools/wasnorm_wordpool_576.txt	LTP374	ltpFR2	21	2	LODGE	839	n/a	n/a	0	0	0
380297	REC_WORD	wordpools/wasnorm_wordpool_576.txt	LTP374	ltpFR2	21	2	YACHT	1629	n/a	n/a	0	0	0
381017	REC_WORD	wordpools/wasnorm_wordpool_576.txt	LTP374	ltpFR2	21	2	BLUEPRINT	142	n/a	n/a	0	0	0
382821	REC_WORD	wordpools/wasnorm_wordpool_576.txt	LTP374	ltpFR2	21	2	SIBLING	1301	n/a	n/a	0	0	0
383505	REC_WORD	wordpools/wasnorm_wordpool_576.txt	LTP374	ltpFR2	21	2	SHIRT	1287	n/a	n/a	0	0	0
384121	REC_WORD	wordpools/wasnorm_wordpool_576.txt	LTP374	ltpFR2	21	2	MILK	895	n/a	n/a	0	0	0
384812	REC_WORD	wordpools/wasnorm_wordpool_576.txt	LTP374	ltpFR2	21	2	ULCER	1533	n/a	n/a	0	0	0
386672	REC_WORD	wordpools/wasnorm_wordpool_576.txt	LTP374	ltpFR2	21	2	JUNGLE	764	n/a	n/a	0	0	0
388369	REC_WORD	wordpools/wasnorm_wordpool_576.txt	LTP374	ltpFR2	21	2	SUMMIT	1405	n/a	n/a	0	0	0
391156	REC_WORD	wordpools/wasnorm_wordpool_576.txt	LTP374	ltpFR2	21	2	HARP	689	n/a	n/a	0	0	0
391980	REC_WORD	wordpools/wasnorm_wordpool_576.txt	LTP374	ltpFR2	21	2	FLUTE	585	n/a	n/a	0	0	0
460804	DISTRACTOR	n/a	LTP374	ltpFR2	21	3	n/a	n/a	n/a	n/a	0	0	0
460804	START	n/a	LTP374	ltpFR2	21	n/a	n/a	n/a	5	n/a	n/a	n/a	n/a
460821	PROB	n/a	LTP374	ltpFR2	21	n/a	n/a	n/a	5	14	3	8	3
461637	PROB	n/a	LTP374	ltpFR2	21	n/a	n/a	n/a	5	14	2	6	6
462670	PROB	n/a	LTP374	ltpFR2	21	n/a	n/a	n/a	5	19	7	7	5
463586	PROB	n/a	LTP374	ltpFR2	21	n/a	n/a	n/a	5	19	7	4	8
464419	PROB	n/a	LTP374	ltpFR2	21	n/a	n/a	n/a	5	24	8	9	7
465236	PROB	n/a	LTP374	ltpFR2	21	n/a	n/a	n/a	5	14	9	2	3
466034	PROB	n/a	LTP374	ltpFR2	21	n/a	n/a	n/a	5	17	8	4	5
466850	PROB	n/a	LTP374	ltpFR2	21	n/a	n/a	n/a	5	20	9	6	5
467701	PROB	n/a	LTP374	ltpFR2	21	n/a	n/a	n/a	5	78	5	2	1
468551	PROB	n/a	LTP374	ltpFR2	21	n/a	n/a	n/a	5	14	2	4	8
469250	PROB	n/a	LTP374	ltpFR2	21	n/a	n/a	n/a	5	17	5	9	3
470317	PROB	n/a	LTP374	ltpFR2	21	n/a	n/a	n/a	5	14	9	2	3
471433	PROB	n/a	LTP374	ltpFR2	21	n/a	n/a	n/a	5	19	9	4	5
472332	PROB	n/a	LTP374	ltpFR2	21	n/a	n/a	n/a	5	13	7	3	3
472998	PROB	n/a	LTP374	ltpFR2	21	n/a	n/a	n/a	5	19	8	9	2
473831	PROB	n/a	LTP374	ltpFR2	21	n/a	n/a	n/a	5	13	1	6	6
474565	PROB	n/a	LTP374	ltpFR2	21	n/a	n/a	n/a	5	16	5	3	8
475331	PROB	n/a	LTP374	ltpFR2	21	n/a	n/a	n/a	5	17	3	7	7
476081	PROB	n/a	LTP374	ltpFR2	21	n/a	n/a	n/a	5	14	2	9	3
476879	PROB	n/a	LTP374	ltpFR2	21	n/a	n/a	n/a	5	16	7	2	4
477696	PROB	n/a	LTP374	ltpFR2	21	n/a	n/a	n/a	5	7	3	2	2
478379	PROB	n/a	LTP374	ltpFR2	21	n/a	n/a	n/a	5	17	8	6	3
479112	PROB	n/a	LTP374	ltpFR2	21	n/a	n/a	n/a	5	14	1	7	6
480379	PROB	n/a	LTP374	ltpFR2	21	n/a	n/a	n/a	5	13	5	2	4
481245	PROB	n/a	LTP374	ltpFR2	21	n/a	n/a	n/a	5	19	3	8	8
482228	PROB	n/a	LTP374	ltpFR2	21	n/a	n/a	n/a	5	10	3	1	6
483026	PROB	n/a	LTP374	ltpFR2	21	n/a	n/a	n/a	5	16	5	6	5
483736	STOP	n/a	LTP374	ltpFR2	21	n/a	n/a	n/a	5	n/a	n/a	n/a	n/a
485776	WORD	wordpools/wasnorm_wordpool_576.txt	LTP374	ltpFR2	21	3	GUITAR	670	n/a	n/a	0	0	0
488575	WORD	wordpools/wasnorm_wordpool_576.txt	LTP374	ltpFR2	21	3	DONOR	485	n/a	n/a	0	0	0
491090	WORD	wordpools/wasnorm_wordpool_576.txt	LTP374	ltpFR2	21	3	PERFUME	1049	n/a	n/a	0	0	0
493855	WORD	wordpools/wasnorm_wordpool_576.txt	LTP374	ltpFR2	21	3	PADDING	999	n/a	n/a	0	0	0
496438	WORD	wordpools/wasnorm_wordpool_576.txt	LTP374	ltpFR2	21	3	GUARD	667	n/a	n/a	0	0	0
499103	WORD	wordpools/wasnorm_wordpool_576.txt	LTP374	ltpFR2	21	3	POLICE	1098	n/a	n/a	0	0	0
501719	WORD	wordpools/wasnorm_wordpool_576.txt	LTP374	ltpFR2	21	3	THIEF	1456	n/a	n/a	0	0	0
504351	WORD	wordpools/wasnorm_wordpool_576.txt	LTP374	ltpFR2	21	3	MARSH	874	n/a	n/a	0	0	0
507015	WORD	wordpools/wasnorm_wordpool_576.txt	LTP374	ltpFR2	21	3	PATIENT	1024	n/a	n/a	0	0	0
509765	WORD	wordpools/wasnorm_wordpool_576.txt	LTP374	ltpFR2	21	3	BIKE	125	n/a	n/a	0	0	0
512464	WORD	wordpools/wasnorm_wordpool_576.txt	LTP374	ltpFR2	21	3	LIZARD	834	n/a	n/a	0	0	0
515112	WORD	wordpools/wasnorm_wordpool_576.txt	LTP374	ltpFR2	21	3	GIRL	637	n/a	n/a	0	0	0
517628	WORD	wordpools/wasnorm_wordpool_576.txt	LTP374	ltpFR2	21	3	RAFT	1159	n/a	n/a	0	0	0
520260	WORD	wordpools/wasnorm_wordpool_576.txt	LTP374	ltpFR2	21	3	CIGAR	308	n/a	n/a	0	0	0
523058	WORD	wordpools/wasnorm_wordpool_576.txt	LTP374	ltpFR2	21	3	DENTIST	447	n/a	n/a	0	0	0
525574	WORD	wordpools/wasnorm_wordpool_576.txt	LTP374	ltpFR2	21	3	DINER	467	n/a	n/a	0	0	0
528323	WORD	wordpools/wasnorm_wordpool_576.txt	LTP374	ltpFR2	21	3	STOVE	1388	n/a	n/a	0	0	0
530871	WORD	wordpools/wasnorm_wordpool_576.txt	LTP374	ltpFR2	21	3	HOOK	715	n/a	n/a	0	0	0
533587	WORD	wordpools/wasnorm_wordpool_576.txt	LTP374	ltpFR2	21	3	SNAKE	1333	n/a	n/a	0	0	0
536303	WORD	wordpools/wasnorm_wordpool_576.txt	LTP374	ltpFR2	21	3	TILE	1468	n/a	n/a	0	0	0
538834	WORD	wordpools/wasnorm_wordpool_576.txt	LTP374	ltpFR2	21	3	CEILING	265	n/a	n/a	0	0	0
541484	WORD	wordpools/wasnorm_wordpool_576.txt	LTP374	ltpFR2	21	3	RUST	1219	n/a	n/a	0	0	0
543931	WORD	wordpools/wasnorm_wordpool_576.txt	LTP374	ltpFR2	21	3	BATHTUB	100	n/a	n/a	0	0	0
546431	WORD	wordpools/wasnorm_wordpool_576.txt	LTP374	ltpFR2	21	3	PARROT	1015	n/a	n/a	0	0	0
548046	START	n/a	LTP374	ltpFR2	21	n/a	n/a	n/a	6	n/a	n/a	n/a	n/a
549065	DISTRACTOR	n/a	LTP374	ltpFR2	21	3	n/a	n/a	n/a	n/a	0	0	0
549080	PROB	n/a	LTP374	ltpFR2	21	n/a	n/a	n/a	6	24	9	7	8
549979	PROB	n/a	LTP374	ltpFR2	21	n/a	n/a	n/a	6	1	4	5	3
550763	PROB	n/a	LTP374	ltpFR2	21	n/a	n/a	n/a	6	9	1	4	4
551396	PROB	n/a	LTP374	ltpFR2	21	n/a	n/a	n/a	6	16	8	8	1
552028	PROB	n/a	LTP374	ltpFR2	21	n/a	n/a	n/a	6	19	7	8	4
553145	PROB	n/a	LTP374	ltpFR2	21	n/a	n/a	n/a	6	15	9	5	1
553893	PROB	n/a	LTP374	ltpFR2	21	n/a	n/a	n/a	6	16	6	8	1
554644	PROB	n/a	LTP374	ltpFR2	21	n/a	n/a	n/a	6	11	1	2	8
555810	PROB	n/a	LTP374	ltpFR2	21	n/a	n/a	n/a	6	14	1	7	4
556693	PROB	n/a	LTP374	ltpFR2	21	n/a	n/a	n/a	6	10	7	2	1
557426	PROB	n/a	LTP374	ltpFR2	21	n/a	n/a	n/a	6	22	9	6	7
558359	PROB	n/a	LTP374	ltpFR2	21	n/a	n/a	n/a	6	20	6	5	9
559275	PROB	n/a	LTP374	ltpFR2	21	n/a	n/a	n/a	6	15	2	6	7
560024	PROB	n/a	LTP374	ltpFR2	21	n/a	n/a	n/a	6	18	4	9	5
560923	PROB	n/a	LTP374	ltpFR2	21	n/a	n/a	n/a	6	8	3	3	2
561591	PROB	n/a	LTP374	ltpFR2	21	n/a	n/a	n/a	6	17	6	5	6
562474	PROB	n/a	LTP374	ltpFR2	21	n/a	n/a	n/a	6	13	7	3	3
563124	PROB	n/a	LTP374	ltpFR2	21	n/a	n/a	n/a	6	15	5	1	9
563740	PROB	n/a	LTP374	ltpFR2	21	n/a	n/a	n/a	6	24	8	6	7
564473	PROB	n/a	LTP374	ltpFR2	21	n/a	n/a	n/a	6	5	3	1	1
565239	PROB	n/a	LTP374	ltpFR2	21	n/a	n/a	n/a	6	13	3	5	5
565988	PROB	n/a	LTP374	ltpFR2	21	n/a	n/a	n/a	6	12	2	6	4
567904	PROB	n/a	LTP374	ltpFR2	21	n/a	n/a	n/a	6	1	2	8	2
568704	PROB	n/a	LTP374	ltpFR2	21	n/a	n/a	n/a	6	22	7	9	7
569704	PROB	n/a	LTP374	ltpFR2	21	n/a	n/a	n/a	6	19	7	5	7
570515	STOP	n/a	LTP374	ltpFR2	21	n/a	n/a	n/a	6	n/a	n/a	n/a	n/a
573851	REC_START	n/a	LTP374	ltpFR2	21	3	n/a	n/a	n/a	n/a	0	0	0
578407	REC_WORD	wordpools/wasnorm_wordpool_576.txt	LTP374	ltpFR2	21	3	TILE	1468	n/a	n/a	0	0	0
580776	REC_WORD	wordpools/wasnorm_wordpool_576.txt	LTP374	ltpFR2	21	3	RUST	1219	n/a	n/a	0	0	0
581520	REC_WORD	wordpools/wasnorm_wordpool_576.txt	LTP374	ltpFR2	21	3	CEILING	265	n/a	n/a	0	0	0
582537	REC_WORD	wordpools/wasnorm_wordpool_576.txt	LTP374	ltpFR2	21	3	DINER	467	n/a	n/a	0	0	0
583333	REC_WORD	wordpools/wasnorm_wordpool_576.txt	LTP374	ltpFR2	21	3	MARSH	874	n/a	n/a	0	0	0
584173	REC_WORD	wordpools/wasnorm_wordpool_576.txt	LTP374	ltpFR2	21	3	RAFT	1159	n/a	n/a	0	0	0
587702	REC_WORD	wordpools/wasnorm_wordpool_576.txt	LTP374	ltpFR2	21	3	THIEF	1456	n/a	n/a	0	0	0
588687	REC_WORD	wordpools/wasnorm_wordpool_576.txt	LTP374	ltpFR2	21	3	BIKE	125	n/a	n/a	0	0	0
589243	REC_WORD	wordpools/wasnorm_wordpool_576.txt	LTP374	ltpFR2	21	3	SNAKE	1333	n/a	n/a	0	0	0
590175	REC_WORD	wordpools/wasnorm_wordpool_576.txt	LTP374	ltpFR2	21	3	LIZARD	834	n/a	n/a	0	0	0
592642	REC_WORD	wordpools/wasnorm_wordpool_576.txt	LTP374	ltpFR2	21	3	GIRL	637	n/a	n/a	0	0	0
593195	REC_WORD	wordpools/wasnorm_wordpool_576.txt	LTP374	ltpFR2	21	3	PATIENT	1024	n/a	n/a	0	0	0
593887	REC_WORD	wordpools/wasnorm_wordpool_576.txt	LTP374	ltpFR2	21	3	DONOR	485	n/a	n/a	0	0	0
595336	REC_WORD	wordpools/wasnorm_wordpool_576.txt	LTP374	ltpFR2	21	3	GUITAR	670	n/a	n/a	0	0	0
596200	REC_WORD	wordpools/wasnorm_wordpool_576.txt	LTP374	ltpFR2	21	3	PADDING	999	n/a	n/a	0	0	0
598926	REC_WORD	wordpools/wasnorm_wordpool_576.txt	LTP374	ltpFR2	21	3	HOOK	715	n/a	n/a	0	0	0
601950	REC_WORD	wordpools/wasnorm_wordpool_576.txt	LTP374	ltpFR2	21	3	POLICE	1098	n/a	n/a	0	0	0
602696	REC_WORD	wordpools/wasnorm_wordpool_576.txt	LTP374	ltpFR2	21	3	GUARD	667	n/a	n/a	0	0	0
605280	REC_WORD	wordpools/wasnorm_wordpool_576.txt	LTP374	ltpFR2	21	3	CIGAR	308	n/a	n/a	0	0	0
664310	WORD	wordpools/wasnorm_wordpool_576.txt	LTP374	ltpFR2	21	4	ORANGE	980	n/a	n/a	0	0	0
666824	WORD	wordpools/wasnorm_wordpool_576.txt	LTP374	ltpFR2	21	4	MOTOR	922	n/a	n/a	0	0	0
669507	WORD	wordpools/wasnorm_wordpool_576.txt	LTP374	ltpFR2	21	4	PECAN	1036	n/a	n/a	0	0	0
671955	WORD	wordpools/wasnorm_wordpool_576.txt	LTP374	ltpFR2	21	4	CARRIAGE	248	n/a	n/a	0	0	0
674655	WORD	wordpools/wasnorm_wordpool_576.txt	LTP374	ltpFR2	21	4	PUPIL	1143	n/a	n/a	0	0	0
677154	WORD	wordpools/wasnorm_wordpool_576.txt	LTP374	ltpFR2	21	4	COOKBOOK	373	n/a	n/a	0	0	0
679736	WORD	wordpools/wasnorm_wordpool_576.txt	LTP374	ltpFR2	21	4	EGYPT	519	n/a	n/a	0	0	0
682418	WORD	wordpools/wasnorm_wordpool_576.txt	LTP374	ltpFR2	21	4	WRENCH	1625	n/a	n/a	0	0	0
684849	WORD	wordpools/wasnorm_wordpool_576.txt	LTP374	ltpFR2	21	4	PLIERS	1089	n/a	n/a	0	0	0
687499	WORD	wordpools/wasnorm_wordpool_576.txt	LTP374	ltpFR2	21	4	CELLAR	267	n/a	n/a	0	0	0
690331	WORD	wordpools/wasnorm_wordpool_576.txt	LTP374	ltpFR2	21	4	GREASE	660	n/a	n/a	0	0	0
692962	WORD	wordpools/wasnorm_wordpool_576.txt	LTP374	ltpFR2	21	4	COMET	353	n/a	n/a	0	0	0
695645	WORD	wordpools/wasnorm_wordpool_576.txt	LTP374	ltpFR2	21	4	ROCKET	1202	n/a	n/a	0	0	0
698244	WORD	wordpools/wasnorm_wordpool_576.txt	LTP374	ltpFR2	21	4	SUNRISE	1407	n/a	n/a	0	0	0
700875	WORD	wordpools/wasnorm_wordpool_576.txt	LTP374	ltpFR2	21	4	CRATER	400	n/a	n/a	0	0	0
703575	WORD	wordpools/wasnorm_wordpool_576.txt	LTP374	ltpFR2	21	4	SUNSET	1408	n/a	n/a	0	0	0
706324	WORD	wordpools/wasnorm_wordpool_576.txt	LTP374	ltpFR2	21	4	HORSE	719	n/a	n/a	0	0	0
708972	WORD	wordpools/wasnorm_wordpool_576.txt	LTP374	ltpFR2	21	4	BUGGY	188	n/a	n/a	0	0	0
711738	WORD	wordpools/wasnorm_wordpool_576.txt	LTP374	ltpFR2	21	4	BLOCKADE	137	n/a	n/a	0	0	0
714453	WORD	wordpools/wasnorm_wordpool_576.txt	LTP374	ltpFR2	21	4	ITEM	746	n/a	n/a	0	0	0
717219	WORD	wordpools/wasnorm_wordpool_576.txt	LTP374	ltpFR2	21	4	BUG	187	n/a	n/a	0	0	0
720016	WORD	wordpools/wasnorm_wordpool_576.txt	LTP374	ltpFR2	21	4	MEDAL	885	n/a	n/a	0	0	0
722799	WORD	wordpools/wasnorm_wordpool_576.txt	LTP374	ltpFR2	21	4	GYMNAST	675	n/a	n/a	0	0	0
725248	WORD	wordpools/wasnorm_wordpool_576.txt	LTP374	ltpFR2	21	4	ARMY	39	n/a	n/a	0	0	0
726863	START	n/a	LTP374	ltpFR2	21	n/a	n/a	n/a	7	n/a	n/a	n/a	n/a
727722	DISTRACTOR	n/a	LTP374	ltpFR2	21	4	n/a	n/a	n/a	n/a	0	0	0
727731	PROB	n/a	LTP374	ltpFR2	21	n/a	n/a	n/a	7	11	5	2	4
728580	PROB	n/a	LTP374	ltpFR2	21	n/a	n/a	n/a	7	7	1	2	4
729296	PROB	n/a	LTP374	ltpFR2	21	n/a	n/a	n/a	7	18	2	7	9
730045	PROB	n/a	LTP374	ltpFR2	21	n/a	n/a	n/a	7	11	9	1	1
730729	PROB	n/a	LTP374	ltpFR2	21	n/a	n/a	n/a	7	7	1	3	3
731479	PROB	n/a	LTP374	ltpFR2	21	n/a	n/a	n/a	7	13	3	6	6
732212	PROB	n/a	LTP374	ltpFR2	21	n/a	n/a	n/a	7	18	2	7	8
732944	PROB	n/a	LTP374	ltpFR2	21	n/a	n/a	n/a	7	19	8	4	6
733778	PROB	n/a	LTP374	ltpFR2	21	n/a	n/a	n/a	7	10	7	2	1
734527	PROB	n/a	LTP374	ltpFR2	21	n/a	n/a	n/a	7	26	9	9	8
735510	PROB	n/a	LTP374	ltpFR2	21	n/a	n/a	n/a	7	15	3	4	8
736193	PROB	n/a	LTP374	ltpFR2	21	n/a	n/a	n/a	7	1	2	8	9
736875	PROB	n/a	LTP374	ltpFR2	21	n/a	n/a	n/a	7	8	3	1	4
737609	PROB	n/a	LTP374	ltpFR2	21	n/a	n/a	n/a	7	21	6	6	9
738725	PROB	n/a	LTP374	ltpFR2	21	n/a	n/a	n/a	7	7	2	3	2
739542	PROB	n/a	LTP374	ltpFR2	21	n/a	n/a	n/a	7	8	1	6	1
740275	PROB	n/a	LTP374	ltpFR2	21	n/a	n/a	n/a	7	19	4	8	7
741391	PROB	n/a	LTP374	ltpFR2	21	n/a	n/a	n/a	7	20	7	4	9
742324	PROB	n/a	LTP374	ltpFR2	21	n/a	n/a	n/a	7	5	3	1	1
742906	PROB	n/a	LTP374	ltpFR2	21	n/a	n/a	n/a	7	15	8	6	2
743673	PROB	n/a	LTP374	ltpFR2	21	n/a	n/a	n/a	7	11	1	3	7
744573	PROB	n/a	LTP374	ltpFR2	21	n/a	n/a	n/a	7	11	1	5	5
745289	PROB	n/a	LTP374	ltpFR2	21	n/a	n/a	n/a	7	14	8	2	4
746004	PROB	n/a	LTP374	ltpFR2	21	n/a	n/a	n/a	7	15	4	7	3
746788	PROB	n/a	LTP374	ltpFR2	21	n/a	n/a	n/a	7	16	9	3	4
747571	PROB	n/a	LTP374	ltpFR2	21	n/a	n/a	n/a	7	24	7	8	6
748388	PROB	n/a	LTP374	ltpFR2	21	n/a	n/a	n/a	7	26	9	7	9
749271	PROB	n/a	LTP374	ltpFR2	21	n/a	n/a	n/a	7	10	3	6	1
750169	STOP	n/a	LTP374	ltpFR2	21	n/a	n/a	n/a	7	n/a	n/a	n/a	n/a
752720	REC_START	n/a	LTP374	ltpFR2	21	4	n/a	n/a	n/a	n/a	0	0	0
754704	REC_WORD	wordpools/wasnorm_wordpool_576.txt	LTP374	ltpFR2	21	4	GYMNAST	675	n/a	n/a	0	0	0
755337	REC_WORD	wordpools/wasnorm_wordpool_576.txt	LTP374	ltpFR2	21	4	MEDAL	885	n/a	n/a	0	0	0
756175	REC_WORD	wordpools/wasnorm_wordpool_576.txt	LTP374	ltpFR2	21	4	ITEM	746	n/a	n/a	0	0	0
757554	REC_WORD	wordpools/wasnorm_wordpool_576.txt	LTP374	ltpFR2	21	4	SUNRISE	1407	n/a	n/a	0	0	0
758167	REC_WORD	wordpools/wasnorm_wordpool_576.txt	LTP374	ltpFR2	21	4	SUNSET	1408	n/a	n/a	0	0	0
759001	REC_WORD	wordpools/wasnorm_wordpool_576.txt	LTP374	ltpFR2	21	4	COMET	353	n/a	n/a	0	0	0
759631	REC_WORD	wordpools/wasnorm_wordpool_576.txt	LTP374	ltpFR2	21	4	CRATER	400	n/a	n/a	0	0	0
760294	REC_WORD	wordpools/wasnorm_wordpool_576.txt	LTP374	ltpFR2	21	4	ROCKET	1202	n/a	n/a	0	0	0
762584	REC_WORD	wordpools/wasnorm_wordpool_576.txt	LTP374	ltpFR2	21	4	BUG	187	n/a	n/a	0	0	0
763360	REC_WORD	wordpools/wasnorm_wordpool_576.txt	LTP374	ltpFR2	21	4	BUGGY	188	n/a	n/a	0	0	0
764676	REC_WORD	wordpools/wasnorm_wordpool_576.txt	LTP374	ltpFR2	21	4	HORSE	719	n/a	n/a	0	0	0
765329	REC_WORD	wordpools/wasnorm_wordpool_576.txt	LTP374	ltpFR2	21	4	CARRIAGE	248	n/a	n/a	0	0	0
765969	REC_WORD	wordpools/wasnorm_wordpool_576.txt	LTP374	ltpFR2	21	4	MOTOR	922	n/a	n/a	0	0	0
767646	REC_WORD	wordpools/wasnorm_wordpool_576.txt	LTP374	ltpFR2	21	4	WRENCH	1625	n/a	n/a	0	0	0
768176	REC_WORD	wordpools/wasnorm_wordpool_576.txt	LTP374	ltpFR2	21	4	PLIERS	1089	n/a	n/a	0	0	0
768746	REC_WORD	wordpools/wasnorm_wordpool_576.txt	LTP374	ltpFR2	21	4	GREASE	660	n/a	n/a	0	0	0
769858	REC_WORD	wordpools/wasnorm_wordpool_576.txt	LTP374	ltpFR2	21	4	PUPIL	1143	n/a	n/a	0	0	0
770479	REC_WORD	wordpools/wasnorm_wordpool_576.txt	LTP374	ltpFR2	21	4	COOKBOOK	373	n/a	n/a	0	0	0
771090	REC_WORD	wordpools/wasnorm_wordpool_576.txt	LTP374	ltpFR2	21	4	ORANGE	980	n/a	n/a	0	0	0
771646	REC_WORD	wordpools/wasnorm_wordpool_576.txt	LTP374	ltpFR2	21	4	PECAN	1036	n/a	n/a	0	0	0
774632	REC_WORD	wordpools/wasnorm_wordpool_576.txt	LTP374	ltpFR2	21	4	EGYPT	519	n/a	n/a	0	0	0
776119	REC_WORD	wordpools/wasnorm_wordpool_576.txt	LTP374	ltpFR2	21	4	ARMY	39	n/a	n/a	0	0	0
843160	WORD	wordpools/wasnorm_wordpool_576.txt	LTP374	ltpFR2	21	5	BROOK	177	n/a	n/a	0	0	0
845809	WORD	wordpools/wasnorm_wordpool_576.txt	LTP374	ltpFR2	21	5	FOOT	590	n/a	n/a	0	0	0
848375	WORD	wordpools/wasnorm_wordpool_576.txt	LTP374	ltpFR2	21	5	ANKLE	24	n/a	n/a	0	0	0
851056	WORD	wordpools/wasnorm_wordpool_576.txt	LTP374	ltpFR2	21	5	GAVEL	627	n/a	n/a	0	0	0
853755	WORD	wordpools/wasnorm_wordpool_576.txt	LTP374	ltpFR2	21	5	SMOG	1330	n/a	n/a	0	0	0
856371	WORD	wordpools/wasnorm_wordpool_576.txt	LTP374	ltpFR2	21	5	COUNTY	389	n/a	n/a	0	0	0
859186	WORD	wordpools/wasnorm_wordpool_576.txt	LTP374	ltpFR2	21	5	RECEIPT	1173	n/a	n/a	0	0	0
861735	WORD	wordpools/wasnorm_wordpool_576.txt	LTP374	ltpFR2	21	5	LEADER	807	n/a	n/a	0	0	0
864467	WORD	wordpools/wasnorm_wordpool_576.txt	LTP374	ltpFR2	21	5	CRIB	407	n/a	n/a	0	0	0
867083	WORD	wordpools/wasnorm_wordpool_576.txt	LTP374	ltpFR2	21	5	SEAL	1262	n/a	n/a	0	0	0
869698	WORD	wordpools/wasnorm_wordpool_576.txt	LTP374	ltpFR2	21	5	PLAZA	1088	n/a	n/a	0	0	0
872314	WORD	wordpools/wasnorm_wordpool_576.txt	LTP374	ltpFR2	21	5	FLIPPER	580	n/a	n/a	0	0	0
875028	WORD	wordpools/wasnorm_wordpool_576.txt	LTP374	ltpFR2	21	5	SNACK	1331	n/a	n/a	0	0	0
877611	WORD	wordpools/wasnorm_wordpool_576.txt	LTP374	ltpFR2	21	5	PLATE	1086	n/a	n/a	0	0	0
880377	WORD	wordpools/wasnorm_wordpool_576.txt	LTP374	ltpFR2	21	5	HUSBAND	728	n/a	n/a	0	0	0
883058	WORD	wordpools/wasnorm_wordpool_576.txt	LTP374	ltpFR2	21	5	BURGLAR	200	n/a	n/a	0	0	0
885507	WORD	wordpools/wasnorm_wordpool_576.txt	LTP374	ltpFR2	21	5	LADDER	793	n/a	n/a	0	0	0
888073	WORD	wordpools/wasnorm_wordpool_576.txt	LTP374	ltpFR2	21	5	APPLE	33	n/a	n/a	0	0	0
890805	WORD	wordpools/wasnorm_wordpool_576.txt	LTP374	ltpFR2	21	5	PUPPY	1144	n/a	n/a	0	0	0
893370	WORD	wordpools/wasnorm_wordpool_576.txt	LTP374	ltpFR2	21	5	CHAMPAGNE	278	n/a	n/a	0	0	0
896086	WORD	wordpools/wasnorm_wordpool_576.txt	LTP374	ltpFR2	21	5	DRESSER	496	n/a	n/a	0	0	0
898518	WORD	wordpools/wasnorm_wordpool_576.txt	LTP374	ltpFR2	21	5	TURTLE	1522	n/a	n/a	0	0	0
901300	WORD	wordpools/wasnorm_wordpool_576.txt	LTP374	ltpFR2	21	5	RATTLE	1170	n/a	n/a	0	0	0
903766	WORD	wordpools/wasnorm_wordpool_576.txt	LTP374	ltpFR2	21	5	MAMMAL	861	n/a	n/a	0	0	0
905382	START	n/a	LTP374	ltpFR2	21	n/a	n/a	n/a	8	n/a	n/a	n/a	n/a
906457	DISTRACTOR	n/a	LTP374	ltpFR2	21	5	n/a	n/a	n/a	n/a	0	0	0
906464	PROB	n/a	LTP374	ltpFR2	21	n/a	n/a	n/a	8	14	3	9	2
907481	PROB	n/a	LTP374	ltpFR2	21	n/a	n/a	n/a	8	1	7	6	1
908214	PROB	n/a	LTP374	ltpFR2	21	n/a	n/a	n/a	8	18	1	7	9
908979	PROB	n/a	LTP374	ltpFR2	21	n/a	n/a	n/a	8	20	7	7	6
909962	PROB	n/a	LTP374	ltpFR2	21	n/a	n/a	n/a	8	9	6	1	2
910945	PROB	n/a	LTP374	ltpFR2	21	n/a	n/a	n/a	8	14	4	9	3
911779	PROB	n/a	LTP374	ltpFR2	21	n/a	n/a	n/a	8	8	2	2	3
912512	PROB	n/a	LTP374	ltpFR2	21	n/a	n/a	n/a	8	13	7	3	3
913361	PROB	n/a	LTP374	ltpFR2	21	n/a	n/a	n/a	8	21	5	8	8
914261	PROB	n/a	LTP374	ltpFR2	21	n/a	n/a	n/a	8	10	4	3	3
915310	PROB	n/a	LTP374	ltpFR2	21	n/a	n/a	n/a	8	14	6	3	4
916077	PROB	n/a	LTP374	ltpFR2	21	n/a	n/a	n/a	8	19	9	1	9
916892	PROB	n/a	LTP374	ltpFR2	21	n/a	n/a	n/a	8	8	5	3	1
917576	PROB	n/a	LTP374	ltpFR2	21	n/a	n/a	n/a	8	10	1	1	8
918809	PROB	n/a	LTP374	ltpFR2	21	n/a	n/a	n/a	8	11	6	1	4
919575	PROB	n/a	LTP374	ltpFR2	21	n/a	n/a	n/a	8	15	7	4	4
920391	PROB	n/a	LTP374	ltpFR2	21	n/a	n/a	n/a	8	12	9	2	1
921074	PROB	n/a	LTP374	ltpFR2	21	n/a	n/a	n/a	8	13	2	5	6
921890	PROB	n/a	LTP374	ltpFR2	21	n/a	n/a	n/a	8	12	1	3	8
923373	PROB	n/a	LTP374	ltpFR2	21	n/a	n/a	n/a	8	15	2	5	8
924073	PROB	n/a	LTP374	ltpFR2	21	n/a	n/a	n/a	8	1	5	5	6
924739	PROB	n/a	LTP374	ltpFR2	21	n/a	n/a	n/a	8	21	5	6	7
925556	PROB	n/a	LTP374	ltpFR2	21	n/a	n/a	n/a	8	26	9	8	9
926422	PROB	n/a	LTP374	ltpFR2	21	n/a	n/a	n/a	8	18	7	6	5
927438	PROB	n/a	LTP374	ltpFR2	21	n/a	n/a	n/a	8	6	1	3	2
928006	STOP	n/a	LTP374	ltpFR2	21	n/a	n/a	n/a	8	n/a	n/a	n/a	n/a
931287	REC_START	n/a	LTP374	ltpFR2	21	5	n/a	n/a	n/a	n/a	0	0	0
933940	REC_WORD	wordpools/wasnorm_wordpool_576.txt	LTP374	ltpFR2	21	5	BURGLAR	200	n/a	n/a	0	0	0
934750	REC_WORD	wordpools/wasnorm_wordpool_576.txt	LTP374	ltpFR2	21	5	RATTLE	1170	n/a	n/a	0	0	0
935828	REC_WORD	wordpools/wasnorm_wordpool_576.txt	LTP374	ltpFR2	21	5	MAMMAL	861	n/a	n/a	0	0	0
940111	REC_WORD	wordpools/wasnorm_wordpool_576.txt	LTP374	ltpFR2	21	5	TURTLE	1522	n/a	n/a	0	0	0
941116	REC_WORD	wordpools/wasnorm_wordpool_576.txt	LTP374	ltpFR2	21	5	BROOK	177	n/a	n/a	0	0	0
942295	REC_WORD	wordpools/wasnorm_wordpool_576.txt	LTP374	ltpFR2	21	5	LEADER	807	n/a	n/a	0	0	0
944033	REC_WORD	wordpools/wasnorm_wordpool_576.txt	LTP374	ltpFR2	21	5	FOOT	590	n/a	n/a	0	0	0
944935	REC_WORD	wordpools/wasnorm_wordpool_576.txt	LTP374	ltpFR2	21	5	ANKLE	24	n/a	n/a	0	0	0
945618	REC_WORD	wordpools/wasnorm_wordpool_576.txt	LTP374	ltpFR2	21	5	GAVEL	627	n/a	n/a	0	0	0
946226	REC_WORD	wordpools/wasnorm_wordpool_576.txt	LTP374	ltpFR2	21	5	SMOG	1330	n/a	n/a	0	0	0
948963	REC_WORD	wordpools/wasnorm_wordpool_576.txt	LTP374	ltpFR2	21	5	LADDER	793	n/a	n/a	0	0	0
950044	REC_WORD	wordpools/wasnorm_wordpool_576.txt	LTP374	ltpFR2	21	5	CRIB	407	n/a	n/a	0	0	0
952004	REC_WORD	wordpools/wasnorm_wordpool_576.txt	LTP374	ltpFR2	21	5	LEADER	807	n/a	n/a	0	0	0
953281	REC_WORD	wordpools/wasnorm_wordpool_576.txt	LTP374	ltpFR2	21	5	HUSBAND	728	n/a	n/a	0	0	0
953892	REC_WORD	wordpools/wasnorm_wordpool_576.txt	LTP374	ltpFR2	21	5	CHAMPAGNE	278	n/a	n/a	0	0	0
955843	REC_WORD	wordpools/wasnorm_wordpool_576.txt	LTP374	ltpFR2	21	5	APPLE	33	n/a	n/a	0	0	0
956413	REC_WORD	wordpools/wasnorm_wordpool_576.txt	LTP374	ltpFR2	21	5	SNACK	1331	n/a	n/a	0	0	0
957079	REC_WORD	wordpools/wasnorm_wordpool_576.txt	LTP374	ltpFR2	21	5	PLATE	1086	n/a	n/a	0	0	0
957745	REC_WORD	wordpools/wasnorm_wordpool_576.txt	LTP374	ltpFR2	21	5	FLIPPER	580	n/a	n/a	0	0	0
958572	REC_WORD	wordpools/wasnorm_wordpool_576.txt	LTP374	ltpFR2	21	5	SEAL	1262	n/a	n/a	0	0	0
1021744	WORD	wordpools/wasnorm_wordpool_576.txt	LTP374	ltpFR2	21	6	GARLIC	624	n/a	n/a	0	0	0
1024326	WORD	wordpools/wasnorm_wordpool_576.txt	LTP374	ltpFR2	21	6	TAXI	1438	n/a	n/a	0	0	0
1026874	WORD	wordpools/wasnorm_wordpool_576.txt	LTP374	ltpFR2	21	6	BRAKE	166	n/a	n/a	0	0	0
1029591	WORD	wordpools/wasnorm_wordpool_576.txt	LTP374	ltpFR2	21	6	FLEET	578	n/a	n/a	0	0	0
1032106	WORD	wordpools/wasnorm_wordpool_576.txt	LTP374	ltpFR2	21	6	WAITER	1580	n/a	n/a	0	0	0
1034837	WORD	wordpools/wasnorm_wordpool_576.txt	LTP374	ltpFR2	21	6	FINGER	567	n/a	n/a	0	0	0
1037604	WORD	wordpools/wasnorm_wordpool_576.txt	LTP374	ltpFR2	21	6	PLAYGROUND	1087	n/a	n/a	0	0	0
1040202	WORD	wordpools/wasnorm_wordpool_576.txt	LTP374	ltpFR2	21	6	CANAL	226	n/a	n/a	0	0	0
1042967	WORD	wordpools/wasnorm_wordpool_576.txt	LTP374	ltpFR2	21	6	FRIAR	605	n/a	n/a	0	0	0
1045550	WORD	wordpools/wasnorm_wordpool_576.txt	LTP374	ltpFR2	21	6	EMPIRE	530	n/a	n/a	0	0	0
1048315	WORD	wordpools/wasnorm_wordpool_576.txt	LTP374	ltpFR2	21	6	SCALPEL	1243	n/a	n/a	0	0	0
1051046	WORD	wordpools/wasnorm_wordpool_576.txt	LTP374	ltpFR2	21	6	NURSE	963	n/a	n/a	0	0	0
1053780	WORD	wordpools/wasnorm_wordpool_576.txt	LTP374	ltpFR2	21	6	BACKBONE	66	n/a	n/a	0	0	0
1056362	WORD	wordpools/wasnorm_wordpool_576.txt	LTP374	ltpFR2	21	6	BODY	145	n/a	n/a	0	0	0
1058810	WORD	wordpools/wasnorm_wordpool_576.txt	LTP374	ltpFR2	21	6	WORLD	1622	n/a	n/a	0	0	0
1061526	WORD	wordpools/wasnorm_wordpool_576.txt	LTP374	ltpFR2	21	6	DRILL	497	n/a	n/a	0	0	0
1064007	WORD	wordpools/wasnorm_wordpool_576.txt	LTP374	ltpFR2	21	6	VENUS	1557	n/a	n/a	0	0	0
1066790	WORD	wordpools/wasnorm_wordpool_576.txt	LTP374	ltpFR2	21	6	LACE	792	n/a	n/a	0	0	0
1069372	WORD	wordpools/wasnorm_wordpool_576.txt	LTP374	ltpFR2	21	6	FOREHEAD	592	n/a	n/a	0	0	0
1072037	WORD	wordpools/wasnorm_wordpool_576.txt	LTP374	ltpFR2	21	6	MARS	873	n/a	n/a	0	0	0
1074587	WORD	wordpools/wasnorm_wordpool_576.txt	LTP374	ltpFR2	21	6	SALMON	1227	n/a	n/a	0	0	0
1077402	WORD	wordpools/wasnorm_wordpool_576.txt	LTP374	ltpFR2	21	6	MATCH	878	n/a	n/a	0	0	0
1080117	WORD	wordpools/wasnorm_wordpool_576.txt	LTP374	ltpFR2	21	6	LIVER	833	n/a	n/a	0	0	0
1082549	WORD	wordpools/wasnorm_wordpool_576.txt	LTP374	ltpFR2	21	6	CAPTIVE	240	n/a	n/a	0	0	0
1084166	START	n/a	LTP374	ltpFR2	21	n/a	n/a	n/a	9	n/a	n/a	n/a	n/a
1085275	DISTRACTOR	n/a	LTP374	ltpFR2	21	6	n/a	n/a	n/a	n/a	0	0	0
1085282	PROB	n/a	LTP374	ltpFR2	21	n/a	n/a	n/a	9	13	3	6	4
1086081	PROB	n/a	LTP374	ltpFR2	21	n/a	n/a	n/a	9	11	5	3	3
1087131	PROB	n/a	LTP374	ltpFR2	21	n/a	n/a	n/a	9	16	9	6	1
1087946	PROB	n/a	LTP374	ltpFR2	21	n/a	n/a	n/a	9	18	5	6	7
1088996	PROB	n/a	LTP374	ltpFR2	21	n/a	n/a	n/a	9	18	6	7	6
1089912	PROB	n/a	LTP374	ltpFR2	21	n/a	n/a	n/a	9	1	4	5	8
1090861	PROB	n/a	LTP374	ltpFR2	21	n/a	n/a	n/a	9	17	5	6	6
1092078	PROB	n/a	LTP374	ltpFR2	21	n/a	n/a	n/a	9	1	1	6	5
1092811	PROB	n/a	LTP374	ltpFR2	21	n/a	n/a	n/a	9	13	3	6	2
1093528	PROB	n/a	LTP374	ltpFR2	21	n/a	n/a	n/a	9	16	9	4	3
1094427	PROB	n/a	LTP374	ltpFR2	21	n/a	n/a	n/a	9	18	5	9	4
1095627	PROB	n/a	LTP374	ltpFR2	21	n/a	n/a	n/a	9	18	3	6	8
1096460	PROB	n/a	LTP374	ltpFR2	21	n/a	n/a	n/a	9	21	9	6	7
1097493	PROB	n/a	LTP374	ltpFR2	21	n/a	n/a	n/a	9	14	1	8	6
1098759	PROB	n/a	LTP374	ltpFR2	21	n/a	n/a	n/a	9	11	9	1	1
1099575	PROB	n/a	LTP374	ltpFR2	21	n/a	n/a	n/a	9	7	3	3	1
1100341	PROB	n/a	LTP374	ltpFR2	21	n/a	n/a	n/a	9	13	2	6	5
1101307	PROB	n/a	LTP374	ltpFR2	21	n/a	n/a	n/a	9	14	5	4	5
1102190	PROB	n/a	LTP374	ltpFR2	21	n/a	n/a	n/a	9	26	8	9	9
1102989	PROB	n/a	LTP374	ltpFR2	21	n/a	n/a	n/a	9	12	6	5	1
1103723	PROB	n/a	LTP374	ltpFR2	21	n/a	n/a	n/a	9	19	9	7	3
1104772	PROB	n/a	LTP374	ltpFR2	21	n/a	n/a	n/a	9	15	1	5	8
1105555	PROB	n/a	LTP374	ltpFR2	21	n/a	n/a	n/a	9	7	2	1	4
1106322	PROB	n/a	LTP374	ltpFR2	21	n/a	n/a	n/a	9	18	7	2	9
1107101	STOP	n/a	LTP374	ltpFR2	21	n/a	n/a	n/a	9	n/a	n/a	n/a	n/a
1109938	REC_START	n/a	LTP374	ltpFR2	21	6	n/a	n/a	n/a	n/a	0	0	0
1114010	REC_WORD	wordpools/wasnorm_wordpool_576.txt	LTP374	ltpFR2	21	6	VENUS	1557	n/a	n/a	0	0	0
1114764	REC_WORD	wordpools/wasnorm_wordpool_576.txt	LTP374	ltpFR2	21	6	MARS	873	n/a	n/a	0	0	0
1115605	REC_WORD	wordpools/wasnorm_wordpool_576.txt	LTP374	ltpFR2	21	6	EMPIRE	530	n/a	n/a	0	0	0
1116842	REC_WORD	wordpools/wasnorm_wordpool_576.txt	LTP374	ltpFR2	21	6	CANAL	226	n/a	n/a	0	0	0
1118596	REC_WORD	wordpools/wasnorm_wordpool_576.txt	LTP374	ltpFR2	21	6	PLAYGROUND	1087	n/a	n/a	0	0	0
1120930	REC_WORD	wordpools/wasnorm_wordpool_576.txt	LTP374	ltpFR2	21	6	FLEET	578	n/a	n/a	0	0	0
1121686	REC_WORD	wordpools/wasnorm_wordpool_576.txt	LTP374	ltpFR2	21	6	TAXI	1438	n/a	n/a	0	0	0
1122551	REC_WORD	wordpools/wasnorm_wordpool_576.txt	LTP374	ltpFR2	21	6	BRAKE	166	n/a	n/a	0	0	0
1124496	REC_WORD	wordpools/wasnorm_wordpool_576.txt	LTP374	ltpFR2	21	6	GARLIC	624	n/a	n/a	0	0	0
1125132	REC_WORD	wordpools/wasnorm_wordpool_576.txt	LTP374	ltpFR2	21	6	SALMON	1227	n/a	n/a	0	0	0
1125916	REC_WORD	wordpools/wasnorm_wordpool_576.txt	LTP374	ltpFR2	21	6	FRIAR	605	n/a	n/a	0	0	0
1129026	REC_WORD	wordpools/wasnorm_wordpool_576.txt	LTP374	ltpFR2	21	6	NURSE	963	n/a	n/a	0	0	0
1130276	REC_WORD	wordpools/wasnorm_wordpool_576.txt	LTP374	ltpFR2	21	6	CAPTIVE	240	n/a	n/a	0	0	0
1131440	REC_WORD	wordpools/wasnorm_wordpool_576.txt	LTP374	ltpFR2	21	6	SCALPEL	1243	n/a	n/a	0	0	0
1132417	REC_WORD	wordpools/wasnorm_wordpool_576.txt	LTP374	ltpFR2	21	6	DRILL	497	n/a	n/a	0	0	0
1133350	REC_WORD	wordpools/wasnorm_wordpool_576.txt	LTP374	ltpFR2	21	6	MATCH	878	n/a	n/a	0	0	0
1135981	REC_WORD	wordpools/wasnorm_wordpool_576.txt	LTP374	ltpFR2	21	6	WAITRESS	1581	n/a	n/a	0	0	0
1137462	REC_WORD	wordpools/wasnorm_wordpool_576.txt	LTP374	ltpFR2	21	6	FINGER	567	n/a	n/a	0	0	0
1139877	REC_WORD	wordpools/wasnorm_wordpool_576.txt	LTP374	ltpFR2	21	6	BODY	145	n/a	n/a	0	0	0
1140568	REC_WORD	wordpools/wasnorm_wordpool_576.txt	LTP374	ltpFR2	21	6	FOREHEAD	592	n/a	n/a	0	0	0
1141964	REC_WORD	wordpools/wasnorm_wordpool_576.txt	LTP374	ltpFR2	21	6	BACKBONE	66	n/a	n/a	0	0	0
1200378	DISTRACTOR	n/a	LTP374	ltpFR2	21	7	n/a	n/a	n/a	n/a	0	0	0
1200378	START	n/a	LTP374	ltpFR2	21	n/a	n/a	n/a	10	n/a	n/a	n/a	n/a
1200395	PROB	n/a	LTP374	ltpFR2	21	n/a	n/a	n/a	10	20	6	9	5
1201594	PROB	n/a	LTP374	ltpFR2	21	n/a	n/a	n/a	10	6	3	2	1
1202211	PROB	n/a	LTP374	ltpFR2	21	n/a	n/a	n/a	10	14	2	8	4
1202943	PROB	n/a	LTP374	ltpFR2	21	n/a	n/a	n/a	10	18	8	1	9
1203643	PROB	n/a	LTP374	ltpFR2	21	n/a	n/a	n/a	10	18	4	9	5
1204443	PROB	n/a	LTP374	ltpFR2	21	n/a	n/a	n/a	10	17	5	7	5
1205309	PROB	n/a	LTP374	ltpFR2	21	n/a	n/a	n/a	10	10	4	5	1
1206109	PROB	n/a	LTP374	ltpFR2	21	n/a	n/a	n/a	10	14	1	6	7
1207008	PROB	n/a	LTP374	ltpFR2	21	n/a	n/a	n/a	10	10	4	1	5
1207758	PROB	n/a	LTP374	ltpFR2	21	n/a	n/a	n/a	10	11	3	5	3
1208591	PROB	n/a	LTP374	ltpFR2	21	n/a	n/a	n/a	10	9	3	3	2
1209357	PROB	n/a	LTP374	ltpFR2	21	n/a	n/a	n/a	10	232	8	8	7
1210723	PROB	n/a	LTP374	ltpFR2	21	n/a	n/a	n/a	10	2	4	9	8
1211690	PROB	n/a	LTP374	ltpFR2	21	n/a	n/a	n/a	10	13	3	5	5
1212489	PROB	n/a	LTP374	ltpFR2	21	n/a	n/a	n/a	10	15	7	1	7
1213256	PROB	n/a	LTP374	ltpFR2	21	n/a	n/a	n/a	10	21	5	8	8
1214222	PROB	n/a	LTP374	ltpFR2	21	n/a	n/a	n/a	10	18	7	9	2
1215020	PROB	n/a	LTP374	ltpFR2	21	n/a	n/a	n/a	10	8	2	4	3
1215804	PROB	n/a	LTP374	ltpFR2	21	n/a	n/a	n/a	10	20	7	6	7
1216771	PROB	n/a	LTP374	ltpFR2	21	n/a	n/a	n/a	10	16	6	1	9
1217470	PROB	n/a	LTP374	ltpFR2	21	n/a	n/a	n/a	10	10	3	1	6
1218237	PROB	n/a	LTP374	ltpFR2	21	n/a	n/a	n/a	10	10	7	2	1
1219086	PROB	n/a	LTP374	ltpFR2	21	n/a	n/a	n/a	10	10	4	5	1
1219769	PROB	n/a	LTP374	ltpFR2	21	n/a	n/a	n/a	10	11	3	2	6
1220536	PROB	n/a	LTP374	ltpFR2	21	n/a	n/a	n/a	10	12	8	2	2
1221152	PROB	n/a	LTP374	ltpFR2	21	n/a	n/a	n/a	10	18	8	6	8
1222151	PROB	n/a	LTP374	ltpFR2	21	n/a	n/a	n/a	10	12	9	2	1
1222984	STOP	n/a	LTP374	ltpFR2	21	n/a	n/a	n/a	10	n/a	n/a	n/a	n/a
1225417	WORD	wordpools/wasnorm_wordpool_576.txt	LTP374	ltpFR2	21	7	EXPERT	543	n/a	n/a	0	0	0
1227881	WORD	wordpools/wasnorm_wordpool_576.txt	LTP374	ltpFR2	21	7	CATTLE	261	n/a	n/a	0	0	0
1230581	WORD	wordpools/wasnorm_wordpool_576.txt	LTP374	ltpFR2	21	7	BELLY	119	n/a	n/a	0	0	0
1233330	WORD	wordpools/wasnorm_wordpool_576.txt	LTP374	ltpFR2	21	7	STOMACH	1384	n/a	n/a	0	0	0
1235894	WORD	wordpools/wasnorm_wordpool_576.txt	LTP374	ltpFR2	21	7	SKETCH	1315	n/a	n/a	0	0	0
1238394	WORD	wordpools/wasnorm_wordpool_576.txt	LTP374	ltpFR2	21	7	PADDLE	1000	n/a	n/a	0	0	0
1241193	WORD	wordpools/wasnorm_wordpool_576.txt	LTP374	ltpFR2	21	7	STAPLE	1371	n/a	n/a	0	0	0
1243957	WORD	wordpools/wasnorm_wordpool_576.txt	LTP374	ltpFR2	21	7	CONCERT	360	n/a	n/a	0	0	0
1246407	WORD	wordpools/wasnorm_wordpool_576.txt	LTP374	ltpFR2	21	7	OUTDOORS	987	n/a	n/a	0	0	0
1249122	WORD	wordpools/wasnorm_wordpool_576.txt	LTP374	ltpFR2	21	7	WAITRESS	1581	n/a	n/a	0	0	0
1251721	WORD	wordpools/wasnorm_wordpool_576.txt	LTP374	ltpFR2	21	7	SUPPER	1411	n/a	n/a	0	0	0
1254220	WORD	wordpools/wasnorm_wordpool_576.txt	LTP374	ltpFR2	21	7	GAZELLE	628	n/a	n/a	0	0	0
1256669	WORD	wordpools/wasnorm_wordpool_576.txt	LTP374	ltpFR2	21	7	TEACHER	1440	n/a	n/a	0	0	0
1259318	WORD	wordpools/wasnorm_wordpool_576.txt	LTP374	ltpFR2	21	7	BULLET	194	n/a	n/a	0	0	0
1261783	WORD	wordpools/wasnorm_wordpool_576.txt	LTP374	ltpFR2	21	7	GARDEN	623	n/a	n/a	0	0	0
1264598	WORD	wordpools/wasnorm_wordpool_576.txt	LTP374	ltpFR2	21	7	PISTON	1076	n/a	n/a	0	0	0
1267414	WORD	wordpools/wasnorm_wordpool_576.txt	LTP374	ltpFR2	21	7	HOUND	724	n/a	n/a	0	0	0
1269845	WORD	wordpools/wasnorm_wordpool_576.txt	LTP374	ltpFR2	21	7	CANYON	235	n/a	n/a	0	0	0
1272445	WORD	wordpools/wasnorm_wordpool_576.txt	LTP374	ltpFR2	21	7	MASK	876	n/a	n/a	0	0	0
1274943	WORD	wordpools/wasnorm_wordpool_576.txt	LTP374	ltpFR2	21	7	LEOPARD	812	n/a	n/a	0	0	0
1277742	WORD	wordpools/wasnorm_wordpool_576.txt	LTP374	ltpFR2	21	7	CREATURE	403	n/a	n/a	0	0	0
1280391	WORD	wordpools/wasnorm_wordpool_576.txt	LTP374	ltpFR2	21	7	OX	994	n/a	n/a	0	0	0
1283022	WORD	wordpools/wasnorm_wordpool_576.txt	LTP374	ltpFR2	21	7	MAILBOX	857	n/a	n/a	0	0	0
1285472	WORD	wordpools/wasnorm_wordpool_576.txt	LTP374	ltpFR2	21	7	SWIMMER	1420	n/a	n/a	0	0	0
1287088	START	n/a	LTP374	ltpFR2	21	n/a	n/a	n/a	11	n/a	n/a	n/a	n/a
1288166	DISTRACTOR	n/a	LTP374	ltpFR2	21	7	n/a	n/a	n/a	n/a	0	0	0
1288171	PROB	n/a	LTP374	ltpFR2	21	n/a	n/a	n/a	11	13	2	7	4
1289104	PROB	n/a	LTP374	ltpFR2	21	n/a	n/a	n/a	11	16	5	9	2
1289919	PROB	n/a	LTP374	ltpFR2	21	n/a	n/a	n/a	11	2	7	5	9
1290753	PROB	n/a	LTP374	ltpFR2	21	n/a	n/a	n/a	11	22	7	8	7
1291835	PROB	n/a	LTP374	ltpFR2	21	n/a	n/a	n/a	11	11	1	3	7
1292702	PROB	n/a	LTP374	ltpFR2	21	n/a	n/a	n/a	11	13	7	3	3
1293302	PROB	n/a	LTP374	ltpFR2	21	n/a	n/a	n/a	11	16	1	7	8
1294385	PROB	n/a	LTP374	ltpFR2	21	n/a	n/a	n/a	11	12	5	6	1
1294967	PROB	n/a	LTP374	ltpFR2	21	n/a	n/a	n/a	11	15	3	4	8
1295667	PROB	n/a	LTP374	ltpFR2	21	n/a	n/a	n/a	11	13	9	3	1
1296350	PROB	n/a	LTP374	ltpFR2	21	n/a	n/a	n/a	11	22	8	9	5
1297583	PROB	n/a	LTP374	ltpFR2	21	n/a	n/a	n/a	11	21	9	6	6
1298366	PROB	n/a	LTP374	ltpFR2	21	n/a	n/a	n/a	11	20	9	5	6
1299266	PROB	n/a	LTP374	ltpFR2	21	n/a	n/a	n/a	11	12	9	1	2
1299881	PROB	n/a	LTP374	ltpFR2	21	n/a	n/a	n/a	11	13	9	2	2
1300897	PROB	n/a	LTP374	ltpFR2	21	n/a	n/a	n/a	11	22	8	7	8
1301864	PROB	n/a	LTP374	ltpFR2	21	n/a	n/a	n/a	11	15	3	9	3
1302714	PROB	n/a	LTP374	ltpFR2	21	n/a	n/a	n/a	11	15	5	1	8
1303364	PROB	n/a	LTP374	ltpFR2	21	n/a	n/a	n/a	11	11	7	1	3
1304180	PROB	n/a	LTP374	ltpFR2	21	n/a	n/a	n/a	11	19	8	5	6
1305330	PROB	n/a	LTP374	ltpFR2	21	n/a	n/a	n/a	11	19	6	8	5
1306163	PROB	n/a	LTP374	ltpFR2	21	n/a	n/a	n/a	11	14	2	3	9
1307028	PROB	n/a	LTP374	ltpFR2	21	n/a	n/a	n/a	11	18	2	8	7
1307877	PROB	n/a	LTP374	ltpFR2	21	n/a	n/a	n/a	11	22	9	8	5
1308860	PROB	n/a	LTP374	ltpFR2	21	n/a	n/a	n/a	11	21	7	7	7
1309578	PROB	n/a	LTP374	ltpFR2	21	n/a	n/a	n/a	11	12	4	2	6
1310356	STOP	n/a	LTP374	ltpFR2	21	n/a	n/a	n/a	11	n/a	n/a	n/a	n/a
1312926	REC_START	n/a	LTP374	ltpFR2	21	7	n/a	n/a	n/a	n/a	0	0	0
1314018	REC_WORD	wordpools/wasnorm_wordpool_576.txt	LTP374	ltpFR2	21	7	MAILBOX	857	n/a	n/a	0	0	0
1315352	REC_WORD	wordpools/wasnorm_wordpool_576.txt	LTP374	ltpFR2	21	7	LEOPARD	812	n/a	n/a	0	0	0
1316728	REC_WORD	wordpools/wasnorm_wordpool_576.txt	LTP374	ltpFR2	21	7	HOUND	724	n/a	n/a	0	0	0
1317578	REC_WORD	wordpools/wasnorm_wordpool_576.txt	LTP374	ltpFR2	21	7	SWIMMER	1420	n/a	n/a	0	0	0
1319428	REC_WORD	wordpools/wasnorm_wordpool_576.txt	LTP374	ltpFR2	21	7	OX	994	n/a	n/a	0	0	0
1320273	REC_WORD	wordpools/wasnorm_wordpool_576.txt	LTP374	ltpFR2	21	7	GAZELLE	628	n/a	n/a	0	0	0
1321695	REC_WORD	wordpools/wasnorm_wordpool_576.txt	LTP374	ltpFR2	21	7	CATTLE	261	n/a	n/a	0	0	0
1323413	REC_WORD	wordpools/wasnorm_wordpool_576.txt	LTP374	ltpFR2	21	7	PADDLE	1000	n/a	n/a	0	0	0
1324726	REC_WORD	wordpools/wasnorm_wordpool_576.txt	LTP374	ltpFR2	21	7	PISTON	1076	n/a	n/a	0	0	0
1326377	REC_WORD	wordpools/wasnorm_wordpool_576.txt	LTP374	ltpFR2	21	7	BULLET	194	n/a	n/a	0	0	0
1330445	REC_WORD	wordpools/wasnorm_wordpool_576.txt	LTP374	ltpFR2	21	7	EXPERT	543	n/a	n/a	0	0	0
1331199	REC_WORD	wordpools/wasnorm_wordpool_576.txt	LTP374	ltpFR2	21	7	SKETCH	1315	n/a	n/a	0	0	0
1332412	REC_WORD	wordpools/wasnorm_wordpool_576.txt	LTP374	ltpFR2	21	7	TEACHER	1440	n/a	n/a	0	0	0
1333471	REC_WORD	wordpools/wasnorm_wordpool_576.txt	LTP374	ltpFR2	21	7	MASK	876	n/a	n/a	0	0	0
1338389	REC_WORD	wordpools/wasnorm_wordpool_576.txt	LTP374	ltpFR2	21	7	OUTDOORS	987	n/a	n/a	0	0	0
1339960	REC_WORD	wordpools/wasnorm_wordpool_576.txt	LTP374	ltpFR2	21	7	CANYON	235	n/a	n/a	0	0	0
1341480	REC_WORD	wordpools/wasnorm_wordpool_576.txt	LTP374	ltpFR2	21	7	CONCERT	360	n/a	n/a	0	0	0
1355070	REC_WORD	wordpools/wasnorm_wordpool_576.txt	LTP374	ltpFR2	21	7	STOMACH	1384	n/a	n/a	0	0	0
1356221	REC_WORD	wordpools/wasnorm_wordpool_576.txt	LTP374	ltpFR2	21	7	BELLY	119	n/a	n/a	0	0	0
1360799	REC_WORD	wordpools/wasnorm_wordpool_576.txt	LTP374	ltpFR2	21	7	MASK	876	n/a	n/a	0	0	0
1403368	DISTRACTOR	n/a	LTP374	ltpFR2	21	8	n/a	n/a	n/a	n/a	0	0	0
1403368	START	n/a	LTP374	ltpFR2	21	n/a	n/a	n/a	12	n/a	n/a	n/a	n/a
1403384	PROB	n/a	LTP374	ltpFR2	21	n/a	n/a	n/a	12	14	2	5	7
1404300	PROB	n/a	LTP374	ltpFR2	21	n/a	n/a	n/a	12	20	8	6	6
1405133	PROB	n/a	LTP374	ltpFR2	21	n/a	n/a	n/a	12	5	3	2	1
1405766	PROB	n/a	LTP374	ltpFR2	21	n/a	n/a	n/a	12	14	4	3	7
1407048	PROB	n/a	LTP374	ltpFR2	21	n/a	n/a	n/a	12	12	2	6	4
1407816	PROB	n/a	LTP374	ltpFR2	21	n/a	n/a	n/a	12	15	2	5	7
1408632	PROB	n/a	LTP374	ltpFR2	21	n/a	n/a	n/a	12	4	2	1	1
1409348	PROB	n/a	LTP374	ltpFR2	21	n/a	n/a	n/a	12	1	5	5	5
1410030	PROB	n/a	LTP374	ltpFR2	21	n/a	n/a	n/a	12	15	4	6	5
1410681	PROB	n/a	LTP374	ltpFR2	21	n/a	n/a	n/a	12	15	5	9	1
1411347	PROB	n/a	LTP374	ltpFR2	21	n/a	n/a	n/a	12	16	2	7	7
1412097	PROB	n/a	LTP374	ltpFR2	21	n/a	n/a	n/a	12	18	9	5	4
1412912	PROB	n/a	LTP374	ltpFR2	21	n/a	n/a	n/a	12	16	9	2	5
1413978	PROB	n/a	LTP374	ltpFR2	21	n/a	n/a	n/a	12	19	3	9	7
1414746	PROB	n/a	LTP374	ltpFR2	21	n/a	n/a	n/a	12	8	3	4	1
1415512	PROB	n/a	LTP374	ltpFR2	21	n/a	n/a	n/a	12	12	1	6	5
1416128	PROB	n/a	LTP374	ltpFR2	21	n/a	n/a	n/a	12	17	7	6	4
1416994	PROB	n/a	LTP374	ltpFR2	21	n/a	n/a	n/a	12	22	6	9	9
1418043	PROB	n/a	LTP374	ltpFR2	21	n/a	n/a	n/a	12	9	5	3	1
1418843	PROB	n/a	LTP374	ltpFR2	21	n/a	n/a	n/a	12	12	5	2	5
1419593	PROB	n/a	LTP374	ltpFR2	21	n/a	n/a	n/a	12	20	9	9	2
1420426	PROB	n/a	LTP374	ltpFR2	21	n/a	n/a	n/a	12	13	5	6	3
1421326	PROB	n/a	LTP374	ltpFR2	21	n/a	n/a	n/a	12	11	4	6	1
1422142	PROB	n/a	LTP374	ltpFR2	21	n/a	n/a	n/a	12	2	7	9	5
1423057	PROB	n/a	LTP374	ltpFR2	21	n/a	n/a	n/a	12	24	7	9	8
1424291	PROB	n/a	LTP374	ltpFR2	21	n/a	n/a	n/a	12	18	1	9	8
1425056	PROB	n/a	LTP374	ltpFR2	21	n/a	n/a	n/a	12	14	1	6	7
1425790	PROB	n/a	LTP374	ltpFR2	21	n/a	n/a	n/a	12	16	5	9	3
1426607	STOP	n/a	LTP374	ltpFR2	21	n/a	n/a	n/a	12	n/a	n/a	n/a	n/a
1428339	WORD	wordpools/wasnorm_wordpool_576.txt	LTP374	ltpFR2	21	8	GRAVEL	659	n/a	n/a	0	0	0
1430887	WORD	wordpools/wasnorm_wordpool_576.txt	LTP374	ltpFR2	21	8	CREVICE	405	n/a	n/a	0	0	0
1433670	WORD	wordpools/wasnorm_wordpool_576.txt	LTP374	ltpFR2	21	8	ARM	38	n/a	n/a	0	0	0
1436169	WORD	wordpools/wasnorm_wordpool_576.txt	LTP374	ltpFR2	21	8	MUFFIN	929	n/a	n/a	0	0	0
1438950	WORD	wordpools/wasnorm_wordpool_576.txt	LTP374	ltpFR2	21	8	NAPKIN	937	n/a	n/a	0	0	0
1441666	WORD	wordpools/wasnorm_wordpool_576.txt	LTP374	ltpFR2	21	8	COCOON	339	n/a	n/a	0	0	0
1444115	WORD	wordpools/wasnorm_wordpool_576.txt	LTP374	ltpFR2	21	8	COTTAGE	384	n/a	n/a	0	0	0
1446547	WORD	wordpools/wasnorm_wordpool_576.txt	LTP374	ltpFR2	21	8	FUNGUS	614	n/a	n/a	0	0	0
1449230	WORD	wordpools/wasnorm_wordpool_576.txt	LTP374	ltpFR2	21	8	ROBOT	1200	n/a	n/a	0	0	0
1452027	WORD	wordpools/wasnorm_wordpool_576.txt	LTP374	ltpFR2	21	8	BREAST	171	n/a	n/a	0	0	0
1454610	WORD	wordpools/wasnorm_wordpool_576.txt	LTP374	ltpFR2	21	8	TURKEY	1520	n/a	n/a	0	0	0
1457109	WORD	wordpools/wasnorm_wordpool_576.txt	LTP374	ltpFR2	21	8	PRINCESS	1125	n/a	n/a	0	0	0
1459575	WORD	wordpools/wasnorm_wordpool_576.txt	LTP374	ltpFR2	21	8	BRACES	164	n/a	n/a	0	0	0
1462340	WORD	wordpools/wasnorm_wordpool_576.txt	LTP374	ltpFR2	21	8	MACHINE	852	n/a	n/a	0	0	0
1465106	WORD	wordpools/wasnorm_wordpool_576.txt	LTP374	ltpFR2	21	8	BLENDER	136	n/a	n/a	0	0	0
1467671	WORD	wordpools/wasnorm_wordpool_576.txt	LTP374	ltpFR2	21	8	BABY	64	n/a	n/a	0	0	0
1470286	WORD	wordpools/wasnorm_wordpool_576.txt	LTP374	ltpFR2	21	8	FIDDLE	561	n/a	n/a	0	0	0
1473102	WORD	wordpools/wasnorm_wordpool_576.txt	LTP374	ltpFR2	21	8	THRONE	1461	n/a	n/a	0	0	0
1475801	WORD	wordpools/wasnorm_wordpool_576.txt	LTP374	ltpFR2	21	8	FILM	565	n/a	n/a	0	0	0
1478366	WORD	wordpools/wasnorm_wordpool_576.txt	LTP374	ltpFR2	21	8	SADDLE	1221	n/a	n/a	0	0	0
1481047	WORD	wordpools/wasnorm_wordpool_576.txt	LTP374	ltpFR2	21	8	STALLION	1369	n/a	n/a	0	0	0
1483680	WORD	wordpools/wasnorm_wordpool_576.txt	LTP374	ltpFR2	21	8	FOREST	593	n/a	n/a	0	0	0
1486162	WORD	wordpools/wasnorm_wordpool_576.txt	LTP374	ltpFR2	21	8	PRIMATE	1123	n/a	n/a	0	0	0
1488595	WORD	wordpools/wasnorm_wordpool_576.txt	LTP374	ltpFR2	21	8	SWAMP	1416	n/a	n/a	0	0	0
1490211	START	n/a	LTP374	ltpFR2	21	n/a	n/a	n/a	13	n/a	n/a	n/a	n/a
1491087	DISTRACTOR	n/a	LTP374	ltpFR2	21	8	n/a	n/a	n/a	n/a	0	0	0
1491094	PROB	n/a	LTP374	ltpFR2	21	n/a	n/a	n/a	13	13	5	4	4
1492042	PROB	n/a	LTP374	ltpFR2	21	n/a	n/a	n/a	13	11	2	2	7
1492825	PROB	n/a	LTP374	ltpFR2	21	n/a	n/a	n/a	13	14	3	4	7
1493792	PROB	n/a	LTP374	ltpFR2	21	n/a	n/a	n/a	13	11	7	1	4
1494609	PROB	n/a	LTP374	ltpFR2	21	n/a	n/a	n/a	13	19	6	5	8
1495508	PROB	n/a	LTP374	ltpFR2	21	n/a	n/a	n/a	13	17	5	9	3
1496541	PROB	n/a	LTP374	ltpFR2	21	n/a	n/a	n/a	13	12	1	9	2
1497191	PROB	n/a	LTP374	ltpFR2	21	n/a	n/a	n/a	13	19	9	7	3
1497923	PROB	n/a	LTP374	ltpFR2	21	n/a	n/a	n/a	13	11	1	3	7
1498707	PROB	n/a	LTP374	ltpFR2	21	n/a	n/a	n/a	13	13	1	7	3
1499706	PROB	n/a	LTP374	ltpFR2	21	n/a	n/a	n/a	13	20	6	8	6
1500756	PROB	n/a	LTP374	ltpFR2	21	n/a	n/a	n/a	13	15	4	7	4
1501689	PROB	n/a	LTP374	ltpFR2	21	n/a	n/a	n/a	13	22	8	9	6
1502772	PROB	n/a	LTP374	ltpFR2	21	n/a	n/a	n/a	13	14	3	6	4
1503738	PROB	n/a	LTP374	ltpFR2	21	n/a	n/a	n/a	13	8	3	4	2
1504554	PROB	n/a	LTP374	ltpFR2	21	n/a	n/a	n/a	13	8	1	2	5
1505270	PROB	n/a	LTP374	ltpFR2	21	n/a	n/a	n/a	13	11	7	3	1
1505986	PROB	n/a	LTP374	ltpFR2	21	n/a	n/a	n/a	13	15	4	5	6
1506753	PROB	n/a	LTP374	ltpFR2	21	n/a	n/a	n/a	13	23	8	6	9
1507803	PROB	n/a	LTP374	ltpFR2	21	n/a	n/a	n/a	13	1	6	5	2
1508519	PROB	n/a	LTP374	ltpFR2	21	n/a	n/a	n/a	13	19	6	6	7
1509468	PROB	n/a	LTP374	ltpFR2	21	n/a	n/a	n/a	13	9	2	5	2
1510235	PROB	n/a	LTP374	ltpFR2	21	n/a	n/a	n/a	13	14	2	3	8
1511084	PROB	n/a	LTP374	ltpFR2	21	n/a	n/a	n/a	13	25	8	9	8
1512016	PROB	n/a	LTP374	ltpFR2	21	n/a	n/a	n/a	13	13	7	3	3
1512650	PROB	n/a	LTP374	ltpFR2	21	n/a	n/a	n/a	13	15	5	2	8
1513322	STOP	n/a	LTP374	ltpFR2	21	n/a	n/a	n/a	13	n/a	n/a	n/a	n/a
1515982	REC_START	n/a	LTP374	ltpFR2	21	8	n/a	n/a	n/a	n/a	0	0	0
1517273	REC_WORD	wordpools/wasnorm_wordpool_576.txt	LTP374	ltpFR2	21	8	PRIMATE	1123	n/a	n/a	0	0	0
1518456	REC_WORD	wordpools/wasnorm_wordpool_576.txt	LTP374	ltpFR2	21	8	BABY	64	n/a	n/a	0	0	0
1519714	REC_WORD	wordpools/wasnorm_wordpool_576.txt	LTP374	ltpFR2	21	8	FIDDLE	561	n/a	n/a	0	0	0
1521974	REC_WORD	wordpools/wasnorm_wordpool_576.txt	LTP374	ltpFR2	21	8	SADDLE	1221	n/a	n/a	0	0	0
1524800	REC_WORD	wordpools/wasnorm_wordpool_576.txt	LTP374	ltpFR2	21	8	FILM	565	n/a	n/a	0	0	0
1526842	REC_WORD	wordpools/wasnorm_wordpool_576.txt	LTP374	ltpFR2	21	8	STALLION	1369	n/a	n/a	0	0	0
1528292	REC_WORD	wordpools/wasnorm_wordpool_576.txt	LTP374	ltpFR2	21	8	PRINCESS	1125	n/a	n/a	0	0	0
1529113	REC_WORD	wordpools/wasnorm_wordpool_576.txt	LTP374	ltpFR2	21	8	BRACES	164	n/a	n/a	0	0	0
1529861	REC_WORD	wordpools/wasnorm_wordpool_576.txt	LTP374	ltpFR2	21	8	THRONE	1461	n/a	n/a	0	0	0
1531421	REC_WORD	wordpools/wasnorm_wordpool_576.txt	LTP374	ltpFR2	21	8	BREAST	171	n/a	n/a	0	0	0
1532312	REC_WORD	wordpools/wasnorm_wordpool_576.txt	LTP374	ltpFR2	21	8	ARM	38	n/a	n/a	0	0	0
1533119	REC_WORD	wordpools/wasnorm_wordpool_576.txt	LTP374	ltpFR2	21	8	ROBOT	1200	n/a	n/a	0	0	0
1533842	REC_WORD	wordpools/wasnorm_wordpool_576.txt	LTP374	ltpFR2	21	8	MACHINE	852	n/a	n/a	0	0	0
1534926	REC_WORD	wordpools/wasnorm_wordpool_576.txt	LTP374	ltpFR2	21	8	TURKEY	1520	n/a	n/a	0	0	0
1537311	REC_WORD	wordpools/wasnorm_wordpool_576.txt	LTP374	ltpFR2	21	8	FUNGUS	614	n/a	n/a	0	0	0
1538221	REC_WORD	wordpools/wasnorm_wordpool_576.txt	LTP374	ltpFR2	21	8	MUFFIN	929	n/a	n/a	0	0	0
1539176	REC_WORD	wordpools/wasnorm_wordpool_576.txt	LTP374	ltpFR2	21	8	NAPKIN	937	n/a	n/a	0	0	0
1540163	REC_WORD	wordpools/wasnorm_wordpool_576.txt	LTP374	ltpFR2	21	8	CREVICE	405	n/a	n/a	0	0	0
1543764	REC_WORD	wordpools/wasnorm_wordpool_576.txt	LTP374	ltpFR2	21	8	COTTAGE	384	n/a	n/a	0	0	0
1544615	REC_WORD	wordpools/wasnorm_wordpool_576.txt	LTP374	ltpFR2	21	8	SWAMP	1416	n/a	n/a	0	0	0
1545557	REC_WORD	wordpools/wasnorm_wordpool_576.txt	LTP374	ltpFR2	21	8	FOREST	593	n/a	n/a	0	0	0
1551184	REC_WORD	wordpools/wasnorm_wordpool_576.txt	LTP374	ltpFR2	21	8	ARM	38	n/a	n/a	0	0	0
1592513	REST_REWET	n/a	LTP374	ltpFR2	21	8	n/a	n/a	n/a	n/a	0	0	0
1710125	WORD	wordpools/wasnorm_wordpool_576.txt	LTP374	ltpFR2	21	9	ISLAND	745	n/a	n/a	0	0	0
1712774	WORD	wordpools/wasnorm_wordpool_576.txt	LTP374	ltpFR2	21	9	CROWN	415	n/a	n/a	0	0	0
1715356	WORD	wordpools/wasnorm_wordpool_576.txt	LTP374	ltpFR2	21	9	WOMAN	1620	n/a	n/a	0	0	0
1718172	WORD	wordpools/wasnorm_wordpool_576.txt	LTP374	ltpFR2	21	9	SWITCH	1422	n/a	n/a	0	0	0
1720919	WORD	wordpools/wasnorm_wordpool_576.txt	LTP374	ltpFR2	21	9	FRECKLE	602	n/a	n/a	0	0	0
1723486	WORD	wordpools/wasnorm_wordpool_576.txt	LTP374	ltpFR2	21	9	NIGHTGOWN	953	n/a	n/a	0	0	0
1726185	WORD	wordpools/wasnorm_wordpool_576.txt	LTP374	ltpFR2	21	9	MATTRESS	879	n/a	n/a	0	0	0
1728949	WORD	wordpools/wasnorm_wordpool_576.txt	LTP374	ltpFR2	21	9	BRIEFCASE	175	n/a	n/a	0	0	0
1731482	WORD	wordpools/wasnorm_wordpool_576.txt	LTP374	ltpFR2	21	9	INMATE	738	n/a	n/a	0	0	0
1733930	WORD	wordpools/wasnorm_wordpool_576.txt	LTP374	ltpFR2	21	9	MISTER	901	n/a	n/a	0	0	0
1736480	WORD	wordpools/wasnorm_wordpool_576.txt	LTP374	ltpFR2	21	9	BOYFRIEND	162	n/a	n/a	0	0	0
1739179	WORD	wordpools/wasnorm_wordpool_576.txt	LTP374	ltpFR2	21	9	BOUQUET	157	n/a	n/a	0	0	0
1741744	WORD	wordpools/wasnorm_wordpool_576.txt	LTP374	ltpFR2	21	9	POPCORN	1104	n/a	n/a	0	0	0
1744559	WORD	wordpools/wasnorm_wordpool_576.txt	LTP374	ltpFR2	21	9	SNAIL	1332	n/a	n/a	0	0	0
1747007	WORD	wordpools/wasnorm_wordpool_576.txt	LTP374	ltpFR2	21	9	SHELTER	1282	n/a	n/a	0	0	0
1749524	WORD	wordpools/wasnorm_wordpool_576.txt	LTP374	ltpFR2	21	9	CAFE	216	n/a	n/a	0	0	0
1752055	WORD	wordpools/wasnorm_wordpool_576.txt	LTP374	ltpFR2	21	9	CHILD	299	n/a	n/a	0	0	0
1754521	WORD	wordpools/wasnorm_wordpool_576.txt	LTP374	ltpFR2	21	9	INFANT	737	n/a	n/a	0	0	0
1757337	WORD	wordpools/wasnorm_wordpool_576.txt	LTP374	ltpFR2	21	9	PALACE	1006	n/a	n/a	0	0	0
1759819	WORD	wordpools/wasnorm_wordpool_576.txt	LTP374	ltpFR2	21	9	SILK	1307	n/a	n/a	0	0	0
1762551	WORD	wordpools/wasnorm_wordpool_576.txt	LTP374	ltpFR2	21	9	TOURIST	1488	n/a	n/a	0	0	0
1765117	WORD	wordpools/wasnorm_wordpool_576.txt	LTP374	ltpFR2	21	9	RIVER	1194	n/a	n/a	0	0	0
1767815	WORD	wordpools/wasnorm_wordpool_576.txt	LTP374	ltpFR2	21	9	MOP	916	n/a	n/a	0	0	0
1770481	WORD	wordpools/wasnorm_wordpool_576.txt	LTP374	ltpFR2	21	9	VELVET	1555	n/a	n/a	0	0	0
1772097	START	n/a	LTP374	ltpFR2	21	n/a	n/a	n/a	14	n/a	n/a	n/a	n/a
1773159	DISTRACTOR	n/a	LTP374	ltpFR2	21	9	n/a	n/a	n/a	n/a	0	0	0
1773163	PROB	n/a	LTP374	ltpFR2	21	n/a	n/a	n/a	14	21	3	9	9
1774196	PROB	n/a	LTP374	ltpFR2	21	n/a	n/a	n/a	14	13	5	2	6
1774944	PROB	n/a	LTP374	ltpFR2	21	n/a	n/a	n/a	14	9	3	1	5
1775645	PROB	n/a	LTP374	ltpFR2	21	n/a	n/a	n/a	14	15	9	2	4
1776328	PROB	n/a	LTP374	ltpFR2	21	n/a	n/a	n/a	14	8	2	3	2
1777078	PROB	n/a	LTP374	ltpFR2	21	n/a	n/a	n/a	14	18	7	6	5
1778077	PROB	n/a	LTP374	ltpFR2	21	n/a	n/a	n/a	14	22	9	7	6
1779343	PROB	n/a	LTP374	ltpFR2	21	n/a	n/a	n/a	14	27	9	9	9
1780326	PROB	n/a	LTP374	ltpFR2	21	n/a	n/a	n/a	14	18	6	3	9
1781058	PROB	n/a	LTP374	ltpFR2	21	n/a	n/a	n/a	14	19	9	2	7
1781874	PROB	n/a	LTP374	ltpFR2	21	n/a	n/a	n/a	14	23	9	8	6
1782874	PROB	n/a	LTP374	ltpFR2	21	n/a	n/a	n/a	14	18	2	6	9
1783641	PROB	n/a	LTP374	ltpFR2	21	n/a	n/a	n/a	14	20	4	9	7
1784591	PROB	n/a	LTP374	ltpFR2	21	n/a	n/a	n/a	14	18	6	3	8
1785357	PROB	n/a	LTP374	ltpFR2	21	n/a	n/a	n/a	14	17	6	8	3
1786507	PROB	n/a	LTP374	ltpFR2	21	n/a	n/a	n/a	14	1	8	2	6
1787256	PROB	n/a	LTP374	ltpFR2	21	n/a	n/a	n/a	14	8	3	2	3
1787955	PROB	n/a	LTP374	ltpFR2	21	n/a	n/a	n/a	14	8	1	2	5
1788622	PROB	n/a	LTP374	ltpFR2	21	n/a	n/a	n/a	14	14	6	5	3
1789405	PROB	n/a	LTP374	ltpFR2	21	n/a	n/a	n/a	14	15	3	3	9
1790688	PROB	n/a	LTP374	ltpFR2	21	n/a	n/a	n/a	14	13	2	6	5
1791421	PROB	n/a	LTP374	ltpFR2	21	n/a	n/a	n/a	14	14	7	5	3
1792221	PROB	n/a	LTP374	ltpFR2	21	n/a	n/a	n/a	14	17	1	7	9
1793053	PROB	n/a	LTP374	ltpFR2	21	n/a	n/a	n/a	14	14	4	4	6
1793820	PROB	n/a	LTP374	ltpFR2	21	n/a	n/a	n/a	14	15	8	1	5
1794586	PROB	n/a	LTP374	ltpFR2	21	n/a	n/a	n/a	14	13	4	2	7
1795300	STOP	n/a	LTP374	ltpFR2	21	n/a	n/a	n/a	14	n/a	n/a	n/a	n/a
1797868	REC_START	n/a	LTP374	ltpFR2	21	9	n/a	n/a	n/a	n/a	0	0	0
1800012	REC_WORD	wordpools/wasnorm_wordpool_576.txt	LTP374	ltpFR2	21	9	MISTER	901	n/a	n/a	0	0	0
1800802	REC_WORD	wordpools/wasnorm_wordpool_576.txt	LTP374	ltpFR2	21	9	INMATE	738	n/a	n/a	0	0	0
1801521	REC_WORD	wordpools/wasnorm_wordpool_576.txt	LTP374	ltpFR2	21	9	BOYFRIEND	162	n/a	n/a	0	0	0
1802709	REC_WORD	wordpools/wasnorm_wordpool_576.txt	LTP374	ltpFR2	21	9	TOURIST	1488	n/a	n/a	0	0	0
1803463	REC_WORD	wordpools/wasnorm_wordpool_576.txt	LTP374	ltpFR2	21	9	PALACE	1006	n/a	n/a	0	0	0
1806763	REC_WORD	wordpools/wasnorm_wordpool_576.txt	LTP374	ltpFR2	21	9	INFANT	737	n/a	n/a	0	0	0
1807422	REC_WORD	wordpools/wasnorm_wordpool_576.txt	LTP374	ltpFR2	21	9	CHILD	299	n/a	n/a	0	0	0
1810219	REC_WORD	wordpools/wasnorm_wordpool_576.txt	LTP374	ltpFR2	21	9	CROWN	415	n/a	n/a	0	0	0
1811404	REC_WORD	wordpools/wasnorm_wordpool_576.txt	LTP374	ltpFR2	21	9	FRECKLE	602	n/a	n/a	0	0	0
1813864	REC_WORD	wordpools/wasnorm_wordpool_576.txt	LTP374	ltpFR2	21	9	MATTRESS	879	n/a	n/a	0	0	0
1814941	REC_WORD	wordpools/wasnorm_wordpool_576.txt	LTP374	ltpFR2	21	9	MOP	916	n/a	n/a	0	0	0
1817862	REC_WORD	wordpools/wasnorm_wordpool_576.txt	LTP374	ltpFR2	21	9	ISLAND	745	n/a	n/a	0	0	0
1819076	REC_WORD	wordpools/wasnorm_wordpool_576.txt	LTP374	ltpFR2	21	9	RIVER	1194	n/a	n/a	0	0	0
1821885	REC_WORD	wordpools/wasnorm_wordpool_576.txt	LTP374	ltpFR2	21	9	SUITCASE	1403	n/a	n/a	0	0	0
1824272	REC_WORD	wordpools/wasnorm_wordpool_576.txt	LTP374	ltpFR2	21	9	SILK	1307	n/a	n/a	0	0	0
1825100	REC_WORD	wordpools/wasnorm_wordpool_576.txt	LTP374	ltpFR2	21	9	VELVET	1555	n/a	n/a	0	0	0
1826021	REC_WORD	wordpools/wasnorm_wordpool_576.txt	LTP374	ltpFR2	21	9	SNAIL	1332	n/a	n/a	0	0	0
1829081	REC_WORD	wordpools/wasnorm_wordpool_576.txt	LTP374	ltpFR2	21	9	SHELTER	1282	n/a	n/a	0	0	0
1832433	REC_WORD	wordpools/wasnorm_wordpool_576.txt	LTP374	ltpFR2	21	9	SWITCH	1422	n/a	n/a	0	0	0
1847374	REC_WORD	wordpools/wasnorm_wordpool_576.txt	LTP374	ltpFR2	21	9	CAFE	216	n/a	n/a	0	0	0
1888293	DISTRACTOR	n/a	LTP374	ltpFR2	21	10	n/a	n/a	n/a	n/a	0	0	0
1888293	START	n/a	LTP374	ltpFR2	21	n/a	n/a	n/a	15	n/a	n/a	n/a	n/a
1888310	PROB	n/a	LTP374	ltpFR2	21	n/a	n/a	n/a	15	17	1	7	9
1889176	PROB	n/a	LTP374	ltpFR2	21	n/a	n/a	n/a	15	12	3	7	2
1890225	PROB	n/a	LTP374	ltpFR2	21	n/a	n/a	n/a	15	6	2	3	1
1891308	PROB	n/a	LTP374	ltpFR2	21	n/a	n/a	n/a	15	16	6	6	4
1892591	PROB	n/a	LTP374	ltpFR2	21	n/a	n/a	n/a	15	21	9	6	9
1893823	PROB	n/a	LTP374	ltpFR2	21	n/a	n/a	n/a	15	22	9	5	8
1894972	PROB	n/a	LTP374	ltpFR2	21	n/a	n/a	n/a	15	3	1	1	1
1895573	PROB	n/a	LTP374	ltpFR2	21	n/a	n/a	n/a	15	18	3	8	7
1896389	PROB	n/a	LTP374	ltpFR2	21	n/a	n/a	n/a	15	12	6	3	4
1897455	PROB	n/a	LTP374	ltpFR2	21	n/a	n/a	n/a	15	22	8	6	8
1898421	PROB	n/a	LTP374	ltpFR2	21	n/a	n/a	n/a	15	18	8	6	4
1899571	PROB	n/a	LTP374	ltpFR2	21	n/a	n/a	n/a	15	25	9	9	7
1900537	PROB	n/a	LTP374	ltpFR2	21	n/a	n/a	n/a	15	19	7	5	7
1901320	PROB	n/a	LTP374	ltpFR2	21	n/a	n/a	n/a	15	12	6	1	5
1902002	PROB	n/a	LTP374	ltpFR2	21	n/a	n/a	n/a	15	14	1	6	7
1903219	PROB	n/a	LTP374	ltpFR2	21	n/a	n/a	n/a	15	9	3	2	4
1903935	PROB	n/a	LTP374	ltpFR2	21	n/a	n/a	n/a	15	19	8	3	8
1904785	PROB	n/a	LTP374	ltpFR2	21	n/a	n/a	n/a	15	16	9	5	2
1905552	PROB	n/a	LTP374	ltpFR2	21	n/a	n/a	n/a	15	14	6	1	8
1906734	PROB	n/a	LTP374	ltpFR2	21	n/a	n/a	n/a	15	1	8	2	6
1907634	PROB	n/a	LTP374	ltpFR2	21	n/a	n/a	n/a	15	18	4	8	6
1908517	PROB	n/a	LTP374	ltpFR2	21	n/a	n/a	n/a	15	14	5	2	7
1909333	PROB	n/a	LTP374	ltpFR2	21	n/a	n/a	n/a	15	15	1	6	8
1910266	PROB	n/a	LTP374	ltpFR2	21	n/a	n/a	n/a	15	1	8	8	4
1911119	STOP	n/a	LTP374	ltpFR2	21	n/a	n/a	n/a	15	n/a	n/a	n/a	n/a
1913365	WORD	wordpools/wasnorm_wordpool_576.txt	LTP374	ltpFR2	21	10	PORK	1108	n/a	n/a	0	0	0
1916147	WORD	wordpools/wasnorm_wordpool_576.txt	LTP374	ltpFR2	21	10	POISON	1096	n/a	n/a	0	0	0
1918828	WORD	wordpools/wasnorm_wordpool_576.txt	LTP374	ltpFR2	21	10	AIRPLANE	12	n/a	n/a	0	0	0
1921311	WORD	wordpools/wasnorm_wordpool_576.txt	LTP374	ltpFR2	21	10	LION	827	n/a	n/a	0	0	0
1923942	WORD	wordpools/wasnorm_wordpool_576.txt	LTP374	ltpFR2	21	10	TRIBE	1505	n/a	n/a	0	0	0
1926458	WORD	wordpools/wasnorm_wordpool_576.txt	LTP374	ltpFR2	21	10	GIFT	635	n/a	n/a	0	0	0
1929207	WORD	wordpools/wasnorm_wordpool_576.txt	LTP374	ltpFR2	21	10	PEBBLE	1035	n/a	n/a	0	0	0
1931922	WORD	wordpools/wasnorm_wordpool_576.txt	LTP374	ltpFR2	21	10	PANTHER	1009	n/a	n/a	0	0	0
1934405	WORD	wordpools/wasnorm_wordpool_576.txt	LTP374	ltpFR2	21	10	BADGE	68	n/a	n/a	0	0	0
1936886	WORD	wordpools/wasnorm_wordpool_576.txt	LTP374	ltpFR2	21	10	CROSS	413	n/a	n/a	0	0	0
1939519	WORD	wordpools/wasnorm_wordpool_576.txt	LTP374	ltpFR2	21	10	FREEZER	604	n/a	n/a	0	0	0
1942285	WORD	wordpools/wasnorm_wordpool_576.txt	LTP374	ltpFR2	21	10	SPIDER	1351	n/a	n/a	0	0	0
1944982	WORD	wordpools/wasnorm_wordpool_576.txt	LTP374	ltpFR2	21	10	WASP	1593	n/a	n/a	0	0	0
1947732	WORD	wordpools/wasnorm_wordpool_576.txt	LTP374	ltpFR2	21	10	DANDRUFF	439	n/a	n/a	0	0	0
1950198	WORD	wordpools/wasnorm_wordpool_576.txt	LTP374	ltpFR2	21	10	DUSTPAN	509	n/a	n/a	0	0	0
1952962	WORD	wordpools/wasnorm_wordpool_576.txt	LTP374	ltpFR2	21	10	HERO	706	n/a	n/a	0	0	0
1955712	WORD	wordpools/wasnorm_wordpool_576.txt	LTP374	ltpFR2	21	10	SHORTCAKE	1292	n/a	n/a	0	0	0
1958444	WORD	wordpools/wasnorm_wordpool_576.txt	LTP374	ltpFR2	21	10	FRUIT	610	n/a	n/a	0	0	0
1961226	WORD	wordpools/wasnorm_wordpool_576.txt	LTP374	ltpFR2	21	10	CHURCH	307	n/a	n/a	0	0	0
1963808	WORD	wordpools/wasnorm_wordpool_576.txt	LTP374	ltpFR2	21	10	PORTRAIT	1111	n/a	n/a	0	0	0
1966507	WORD	wordpools/wasnorm_wordpool_576.txt	LTP374	ltpFR2	21	10	THREAD	1460	n/a	n/a	0	0	0
1969122	WORD	wordpools/wasnorm_wordpool_576.txt	LTP374	ltpFR2	21	10	SCOTCH	1251	n/a	n/a	0	0	0
1971903	WORD	wordpools/wasnorm_wordpool_576.txt	LTP374	ltpFR2	21	10	FLASK	576	n/a	n/a	0	0	0
1974336	WORD	wordpools/wasnorm_wordpool_576.txt	LTP374	ltpFR2	21	10	STONE	1385	n/a	n/a	0	0	0
1975952	START	n/a	LTP374	ltpFR2	21	n/a	n/a	n/a	16	n/a	n/a	n/a	n/a
1977059	DISTRACTOR	n/a	LTP374	ltpFR2	21	10	n/a	n/a	n/a	n/a	0	0	0
1977085	PROB	n/a	LTP374	ltpFR2	21	n/a	n/a	n/a	16	22	9	6	7
1978017	PROB	n/a	LTP374	ltpFR2	21	n/a	n/a	n/a	16	15	9	1	5
1978684	PROB	n/a	LTP374	ltpFR2	21	n/a	n/a	n/a	16	17	5	6	6
1979434	PROB	n/a	LTP374	ltpFR2	21	n/a	n/a	n/a	16	13	9	2	2
1980117	PROB	n/a	LTP374	ltpFR2	21	n/a	n/a	n/a	16	18	2	7	8
1980866	PROB	n/a	LTP374	ltpFR2	21	n/a	n/a	n/a	16	14	8	3	3
1981766	PROB	n/a	LTP374	ltpFR2	21	n/a	n/a	n/a	16	18	2	9	7
1982666	PROB	n/a	LTP374	ltpFR2	21	n/a	n/a	n/a	16	18	7	7	6
1983532	PROB	n/a	LTP374	ltpFR2	21	n/a	n/a	n/a	16	11	6	2	3
1984465	PROB	n/a	LTP374	ltpFR2	21	n/a	n/a	n/a	16	14	1	5	8
1985398	PROB	n/a	LTP374	ltpFR2	21	n/a	n/a	n/a	16	16	9	5	2
1986148	PROB	n/a	LTP374	ltpFR2	21	n/a	n/a	n/a	16	12	5	7	1
1987480	PROB	n/a	LTP374	ltpFR2	21	n/a	n/a	n/a	16	9	1	1	7
1988147	PROB	n/a	LTP374	ltpFR2	21	n/a	n/a	n/a	16	18	4	8	8
1989196	PROB	n/a	LTP374	ltpFR2	21	n/a	n/a	n/a	16	13	2	9	2
1990011	PROB	n/a	LTP374	ltpFR2	21	n/a	n/a	n/a	16	13	2	9	2
1990595	PROB	n/a	LTP374	ltpFR2	21	n/a	n/a	n/a	16	18	7	2	9
1991328	PROB	n/a	LTP374	ltpFR2	21	n/a	n/a	n/a	16	1	9	7	3
1992178	PROB	n/a	LTP374	ltpFR2	21	n/a	n/a	n/a	16	19	5	5	9
1992843	PROB	n/a	LTP374	ltpFR2	21	n/a	n/a	n/a	16	15	9	4	2
1993561	PROB	n/a	LTP374	ltpFR2	21	n/a	n/a	n/a	16	19	5	8	6
1994377	PROB	n/a	LTP374	ltpFR2	21	n/a	n/a	n/a	16	15	7	6	2
1995426	PROB	n/a	LTP374	ltpFR2	21	n/a	n/a	n/a	16	17	7	1	9
1996193	PROB	n/a	LTP374	ltpFR2	21	n/a	n/a	n/a	16	16	4	8	4
1996991	PROB	n/a	LTP374	ltpFR2	21	n/a	n/a	n/a	16	13	4	3	6
1997974	PROB	n/a	LTP374	ltpFR2	21	n/a	n/a	n/a	16	22	7	8	8
1999001	STOP	n/a	LTP374	ltpFR2	21	n/a	n/a	n/a	16	n/a	n/a	n/a	n/a
2001791	REC_START	n/a	LTP374	ltpFR2	21	10	n/a	n/a	n/a	n/a	0	0	0
2006747	REC_WORD	wordpools/wasnorm_wordpool_576.txt	LTP374	ltpFR2	21	10	PORTRAIT	1111	n/a	n/a	0	0	0
2007355	REC_WORD	wordpools/wasnorm_wordpool_576.txt	LTP374	ltpFR2	21	10	THREAD	1460	n/a	n/a	0	0	0
2008127	REC_WORD	wordpools/wasnorm_wordpool_576.txt	LTP374	ltpFR2	21	10	STONE	1385	n/a	n/a	0	0	0
2012021	REC_WORD	wordpools/wasnorm_wordpool_576.txt	LTP374	ltpFR2	21	10	SCOTCH	1251	n/a	n/a	0	0	0
2012763	REC_WORD	wordpools/wasnorm_wordpool_576.txt	LTP374	ltpFR2	21	10	FLASK	576	n/a	n/a	0	0	0
2013713	REC_WORD	wordpools/wasnorm_wordpool_576.txt	LTP374	ltpFR2	21	10	FRUIT	610	n/a	n/a	0	0	0
2014271	REC_WORD	wordpools/wasnorm_wordpool_576.txt	LTP374	ltpFR2	21	10	SHORTCAKE	1292	n/a	n/a	0	0	0
2016047	REC_WORD	wordpools/wasnorm_wordpool_576.txt	LTP374	ltpFR2	21	10	LION	827	n/a	n/a	0	0	0
2017553	REC_WORD	wordpools/wasnorm_wordpool_576.txt	LTP374	ltpFR2	21	10	PORK	1108	n/a	n/a	0	0	0
2018571	REC_WORD	wordpools/wasnorm_wordpool_576.txt	LTP374	ltpFR2	21	10	TRIBE	1505	n/a	n/a	0	0	0
2019944	REC_WORD	wordpools/wasnorm_wordpool_576.txt	LTP374	ltpFR2	21	10	SPIDER	1351	n/a	n/a	0	0	0
2021092	REC_WORD	wordpools/wasnorm_wordpool_576.txt	LTP374	ltpFR2	21	10	FREEZER	604	n/a	n/a	0	0	0
2040664	REC_WORD	wordpools/wasnorm_wordpool_576.txt	LTP374	ltpFR2	21	10	POISON	1096	n/a	n/a	0	0	0
2092265	WORD	wordpools/wasnorm_wordpool_576.txt	LTP374	ltpFR2	21	11	TROUT	1511	n/a	n/a	0	0	0
2095063	WORD	wordpools/wasnorm_wordpool_576.txt	LTP374	ltpFR2	21	11	CRUTCH	417	n/a	n/a	0	0	0
2097679	WORD	wordpools/wasnorm_wordpool_576.txt	LTP374	ltpFR2	21	11	ELBOW	520	n/a	n/a	0	0	0
2100411	WORD	wordpools/wasnorm_wordpool_576.txt	LTP374	ltpFR2	21	11	PIMPLE	1071	n/a	n/a	0	0	0
2102992	WORD	wordpools/wasnorm_wordpool_576.txt	LTP374	ltpFR2	21	11	OYSTER	995	n/a	n/a	0	0	0
2105526	WORD	wordpools/wasnorm_wordpool_576.txt	LTP374	ltpFR2	21	11	COLLEGE	346	n/a	n/a	0	0	0
2108124	WORD	wordpools/wasnorm_wordpool_576.txt	LTP374	ltpFR2	21	11	SLIDE	1326	n/a	n/a	0	0	0
2110723	WORD	wordpools/wasnorm_wordpool_576.txt	LTP374	ltpFR2	21	11	PASSAGE	1019	n/a	n/a	0	0	0
2113472	WORD	wordpools/wasnorm_wordpool_576.txt	LTP374	ltpFR2	21	11	SALT	1229	n/a	n/a	0	0	0
2116121	WORD	wordpools/wasnorm_wordpool_576.txt	LTP374	ltpFR2	21	11	TWISTER	1530	n/a	n/a	0	0	0
2118902	WORD	wordpools/wasnorm_wordpool_576.txt	LTP374	ltpFR2	21	11	COURSE	390	n/a	n/a	0	0	0
2121501	WORD	wordpools/wasnorm_wordpool_576.txt	LTP374	ltpFR2	21	11	AWARD	63	n/a	n/a	0	0	0
2124267	WORD	wordpools/wasnorm_wordpool_576.txt	LTP374	ltpFR2	21	11	CORAL	378	n/a	n/a	0	0	0
2127014	WORD	wordpools/wasnorm_wordpool_576.txt	LTP374	ltpFR2	21	11	CYCLONE	431	n/a	n/a	0	0	0
2129548	WORD	wordpools/wasnorm_wordpool_576.txt	LTP374	ltpFR2	21	11	ROD	1203	n/a	n/a	0	0	0
2132213	WORD	wordpools/wasnorm_wordpool_576.txt	LTP374	ltpFR2	21	11	ORCHID	982	n/a	n/a	0	0	0
2134861	WORD	wordpools/wasnorm_wordpool_576.txt	LTP374	ltpFR2	21	11	FLOWER	584	n/a	n/a	0	0	0
2137411	WORD	wordpools/wasnorm_wordpool_576.txt	LTP374	ltpFR2	21	11	IGLOO	734	n/a	n/a	0	0	0
2139859	WORD	wordpools/wasnorm_wordpool_576.txt	LTP374	ltpFR2	21	11	CLIMBER	323	n/a	n/a	0	0	0
2142375	WORD	wordpools/wasnorm_wordpool_576.txt	LTP374	ltpFR2	21	11	LEG	809	n/a	n/a	0	0	0
2144990	WORD	wordpools/wasnorm_wordpool_576.txt	LTP374	ltpFR2	21	11	PERMIT	1051	n/a	n/a	0	0	0
2147673	WORD	wordpools/wasnorm_wordpool_576.txt	LTP374	ltpFR2	21	11	SPACE	1345	n/a	n/a	0	0	0
2150438	WORD	wordpools/wasnorm_wordpool_576.txt	LTP374	ltpFR2	21	11	SCULPTURE	1258	n/a	n/a	0	0	0
2152919	WORD	wordpools/wasnorm_wordpool_576.txt	LTP374	ltpFR2	21	11	PROTON	1132	n/a	n/a	0	0	0
2154536	START	n/a	LTP374	ltpFR2	21	n/a	n/a	n/a	17	n/a	n/a	n/a	n/a
2155562	DISTRACTOR	n/a	LTP374	ltpFR2	21	11	n/a	n/a	n/a	n/a	0	0	0
2155569	PROB	n/a	LTP374	ltpFR2	21	n/a	n/a	n/a	17	18	5	8	5
2156702	PROB	n/a	LTP374	ltpFR2	21	n/a	n/a	n/a	17	19	2	8	9
2157451	PROB	n/a	LTP374	ltpFR2	21	n/a	n/a	n/a	17	12	3	3	6
2158950	PROB	n/a	LTP374	ltpFR2	21	n/a	n/a	n/a	17	12	2	4	6
2160066	PROB	n/a	LTP374	ltpFR2	21	n/a	n/a	n/a	17	16	8	3	5
2160849	PROB	n/a	LTP374	ltpFR2	21	n/a	n/a	n/a	17	1	2	4	7
2161633	PROB	n/a	LTP374	ltpFR2	21	n/a	n/a	n/a	17	19	8	5	6
2162466	PROB	n/a	LTP374	ltpFR2	21	n/a	n/a	n/a	17	18	7	5	6
2163515	PROB	n/a	LTP374	ltpFR2	21	n/a	n/a	n/a	17	1	5	4	5
2164648	PROB	n/a	LTP374	ltpFR2	21	n/a	n/a	n/a	17	6	7	7	2
2165431	PROB	n/a	LTP374	ltpFR2	21	n/a	n/a	n/a	17	9	1	1	7
2166347	PROB	n/a	LTP374	ltpFR2	21	n/a	n/a	n/a	17	8	1	3	3
2167180	PROB	n/a	LTP374	ltpFR2	21	n/a	n/a	n/a	17	20	9	9	2
2168280	PROB	n/a	LTP374	ltpFR2	21	n/a	n/a	n/a	17	17	7	5	5
2169012	PROB	n/a	LTP374	ltpFR2	21	n/a	n/a	n/a	17	9	1	3	5
2169746	PROB	n/a	LTP374	ltpFR2	21	n/a	n/a	n/a	17	1	4	7	8
2170645	PROB	n/a	LTP374	ltpFR2	21	n/a	n/a	n/a	17	6	4	1	1
2171328	PROB	n/a	LTP374	ltpFR2	21	n/a	n/a	n/a	17	13	1	6	6
2172060	PROB	n/a	LTP374	ltpFR2	21	n/a	n/a	n/a	17	21	9	3	9
2173010	PROB	n/a	LTP374	ltpFR2	21	n/a	n/a	n/a	17	19	6	8	5
2174127	PROB	n/a	LTP374	ltpFR2	21	n/a	n/a	n/a	17	14	7	2	5
2175376	PROB	n/a	LTP374	ltpFR2	21	n/a	n/a	n/a	17	17	2	6	9
2176293	PROB	n/a	LTP374	ltpFR2	21	n/a	n/a	n/a	17	13	7	5	3
2177168	STOP	n/a	LTP374	ltpFR2	21	n/a	n/a	n/a	17	n/a	n/a	n/a	n/a
2180408	REC_START	n/a	LTP374	ltpFR2	21	11	n/a	n/a	n/a	n/a	0	0	0
2184774	REC_WORD	wordpools/wasnorm_wordpool_576.txt	LTP374	ltpFR2	21	11	CLIMBER	323	n/a	n/a	0	0	0
2185531	REC_WORD	wordpools/wasnorm_wordpool_576.txt	LTP374	ltpFR2	21	11	LEG	809	n/a	n/a	0	0	0
2186331	REC_WORD	wordpools/wasnorm_wordpool_576.txt	LTP374	ltpFR2	21	11	PROTON	1132	n/a	n/a	0	0	0
2188178	REC_WORD	wordpools/wasnorm_wordpool_576.txt	LTP374	ltpFR2	21	11	IGLOO	734	n/a	n/a	0	0	0
2188803	REC_WORD	wordpools/wasnorm_wordpool_576.txt	LTP374	ltpFR2	21	11	SPACE	1345	n/a	n/a	0	0	0
2189975	REC_WORD	wordpools/wasnorm_wordpool_576.txt	LTP374	ltpFR2	21	11	PERMIT	1051	n/a	n/a	0	0	0
2190697	REC_WORD	wordpools/wasnorm_wordpool_576.txt	LTP374	ltpFR2	21	11	ROD	1203	n/a	n/a	0	0	0
2196087	REC_WORD	wordpools/wasnorm_wordpool_576.txt	LTP374	ltpFR2	21	11	SLIDE	1326	n/a	n/a	0	0	0
2197171	REC_WORD	wordpools/wasnorm_wordpool_576.txt	LTP374	ltpFR2	21	11	ORCHID	982	n/a	n/a	0	0	0
2197742	REC_WORD	wordpools/wasnorm_wordpool_576.txt	LTP374	ltpFR2	21	11	FLOWER	584	n/a	n/a	0	0	0
2198638	REC_WORD	wordpools/wasnorm_wordpool_576.txt	LTP374	ltpFR2	21	11	CORAL	378	n/a	n/a	0	0	0
2199718	REC_WORD	wordpools/wasnorm_wordpool_576.txt	LTP374	ltpFR2	21	11	OYSTER	995	n/a	n/a	0	0	0
2201141	REC_WORD	wordpools/wasnorm_wordpool_576.txt	LTP374	ltpFR2	21	11	ELBOW	520	n/a	n/a	0	0	0
2201900	REC_WORD	wordpools/wasnorm_wordpool_576.txt	LTP374	ltpFR2	21	11	PIMPLE	1071	n/a	n/a	0	0	0
2205302	REC_WORD	wordpools/wasnorm_wordpool_576.txt	LTP374	ltpFR2	21	11	COLLEGE	346	n/a	n/a	0	0	0
2206150	REC_WORD	wordpools/wasnorm_wordpool_576.txt	LTP374	ltpFR2	21	11	COURSE	390	n/a	n/a	0	0	0
2210457	REC_WORD	wordpools/wasnorm_wordpool_576.txt	LTP374	ltpFR2	21	11	PROTON	1132	n/a	n/a	0	0	0
2270865	DISTRACTOR	n/a	LTP374	ltpFR2	21	12	n/a	n/a	n/a	n/a	0	0	0
2270865	START	n/a	LTP374	ltpFR2	21	n/a	n/a	n/a	18	n/a	n/a	n/a	n/a
2270881	PROB	n/a	LTP374	ltpFR2	21	n/a	n/a	n/a	18	21	4	8	9
2271765	PROB	n/a	LTP374	ltpFR2	21	n/a	n/a	n/a	18	10	2	1	7
2272648	PROB	n/a	LTP374	ltpFR2	21	n/a	n/a	n/a	18	17	9	7	1
2273481	PROB	n/a	LTP374	ltpFR2	21	n/a	n/a	n/a	18	19	2	9	7
2274297	PROB	n/a	LTP374	ltpFR2	21	n/a	n/a	n/a	18	13	6	5	2
2275080	PROB	n/a	LTP374	ltpFR2	21	n/a	n/a	n/a	18	14	2	7	5
2276296	PROB	n/a	LTP374	ltpFR2	21	n/a	n/a	n/a	18	22	7	8	8
2277329	PROB	n/a	LTP374	ltpFR2	21	n/a	n/a	n/a	18	16	7	5	4
2279128	PROB	n/a	LTP374	ltpFR2	21	n/a	n/a	n/a	18	15	5	3	4
2280245	PROB	n/a	LTP374	ltpFR2	21	n/a	n/a	n/a	18	10	2	3	5
2281461	PROB	n/a	LTP374	ltpFR2	21	n/a	n/a	n/a	18	16	7	5	4
2282294	PROB	n/a	LTP374	ltpFR2	21	n/a	n/a	n/a	18	22	8	9	4
2283410	PROB	n/a	LTP374	ltpFR2	21	n/a	n/a	n/a	18	8	4	3	1
2284543	PROB	n/a	LTP374	ltpFR2	21	n/a	n/a	n/a	18	24	7	8	9
2285525	PROB	n/a	LTP374	ltpFR2	21	n/a	n/a	n/a	18	18	7	5	6
2286475	PROB	n/a	LTP374	ltpFR2	21	n/a	n/a	n/a	18	19	6	4	9
2287225	PROB	n/a	LTP374	ltpFR2	21	n/a	n/a	n/a	18	20	9	4	7
2288906	PROB	n/a	LTP374	ltpFR2	21	n/a	n/a	n/a	18	22	7	7	9
2289989	PROB	n/a	LTP374	ltpFR2	21	n/a	n/a	n/a	18	15	3	6	6
2290989	PROB	n/a	LTP374	ltpFR2	21	n/a	n/a	n/a	18	19	8	5	6
2291855	PROB	n/a	LTP374	ltpFR2	21	n/a	n/a	n/a	18	12	2	9	1
2292555	PROB	n/a	LTP374	ltpFR2	21	n/a	n/a	n/a	18	14	1	4	9
2293272	PROB	n/a	LTP374	ltpFR2	21	n/a	n/a	n/a	18	23	8	8	7
2294348	STOP	n/a	LTP374	ltpFR2	21	n/a	n/a	n/a	18	n/a	n/a	n/a	n/a
2295721	WORD	wordpools/wasnorm_wordpool_576.txt	LTP374	ltpFR2	21	12	BUCKET	184	n/a	n/a	0	0	0
2298536	WORD	wordpools/wasnorm_wordpool_576.txt	LTP374	ltpFR2	21	12	SUBWAY	1400	n/a	n/a	0	0	0
2301168	WORD	wordpools/wasnorm_wordpool_576.txt	LTP374	ltpFR2	21	12	BLACKBOARD	133	n/a	n/a	0	0	0
2303849	WORD	wordpools/wasnorm_wordpool_576.txt	LTP374	ltpFR2	21	12	VIRUS	1572	n/a	n/a	0	0	0
2306449	WORD	wordpools/wasnorm_wordpool_576.txt	LTP374	ltpFR2	21	12	LAPEL	800	n/a	n/a	0	0	0
2309214	WORD	wordpools/wasnorm_wordpool_576.txt	LTP374	ltpFR2	21	12	PASTA	1021	n/a	n/a	0	0	0
2311780	WORD	wordpools/wasnorm_wordpool_576.txt	LTP374	ltpFR2	21	12	JUDGE	761	n/a	n/a	0	0	0
2314562	WORD	wordpools/wasnorm_wordpool_576.txt	LTP374	ltpFR2	21	12	SHERIFF	1284	n/a	n/a	0	0	0
2317227	WORD	wordpools/wasnorm_wordpool_576.txt	LTP374	ltpFR2	21	12	AGENT	10	n/a	n/a	0	0	0
2319975	WORD	wordpools/wasnorm_wordpool_576.txt	LTP374	ltpFR2	21	12	SPONGE	1355	n/a	n/a	0	0	0
2322425	WORD	wordpools/wasnorm_wordpool_576.txt	LTP374	ltpFR2	21	12	PIGMENT	1066	n/a	n/a	0	0	0
2324890	WORD	wordpools/wasnorm_wordpool_576.txt	LTP374	ltpFR2	21	12	TROMBONE	1508	n/a	n/a	0	0	0
2327623	WORD	wordpools/wasnorm_wordpool_576.txt	LTP374	ltpFR2	21	12	WIFE	1609	n/a	n/a	0	0	0
2330071	WORD	wordpools/wasnorm_wordpool_576.txt	LTP374	ltpFR2	21	12	SPOUSE	1358	n/a	n/a	0	0	0
2332737	WORD	wordpools/wasnorm_wordpool_576.txt	LTP374	ltpFR2	21	12	FARMER	553	n/a	n/a	0	0	0
2335286	WORD	wordpools/wasnorm_wordpool_576.txt	LTP374	ltpFR2	21	12	SPOOL	1356	n/a	n/a	0	0	0
2337785	WORD	wordpools/wasnorm_wordpool_576.txt	LTP374	ltpFR2	21	12	STAMP	1370	n/a	n/a	0	0	0
2340250	WORD	wordpools/wasnorm_wordpool_576.txt	LTP374	ltpFR2	21	12	FLAG	573	n/a	n/a	0	0	0
2343014	WORD	wordpools/wasnorm_wordpool_576.txt	LTP374	ltpFR2	21	12	FOX	598	n/a	n/a	0	0	0
2345581	WORD	wordpools/wasnorm_wordpool_576.txt	LTP374	ltpFR2	21	12	QUAIL	1147	n/a	n/a	0	0	0
2348296	WORD	wordpools/wasnorm_wordpool_576.txt	LTP374	ltpFR2	21	12	SCARECROW	1245	n/a	n/a	0	0	0
2351061	WORD	wordpools/wasnorm_wordpool_576.txt	LTP374	ltpFR2	21	12	GRAPE	654	n/a	n/a	0	0	0
2353876	WORD	wordpools/wasnorm_wordpool_576.txt	LTP374	ltpFR2	21	12	LUNCH	849	n/a	n/a	0	0	0
2356559	WORD	wordpools/wasnorm_wordpool_576.txt	LTP374	ltpFR2	21	12	COBRA	336	n/a	n/a	0	0	0
2358175	START	n/a	LTP374	ltpFR2	21	n/a	n/a	n/a	19	n/a	n/a	n/a	n/a
2359208	DISTRACTOR	n/a	LTP374	ltpFR2	21	12	n/a	n/a	n/a	n/a	0	0	0
2359225	PROB	n/a	LTP374	ltpFR2	21	n/a	n/a	n/a	19	14	4	9	1
2360274	PROB	n/a	LTP374	ltpFR2	21	n/a	n/a	n/a	19	11	2	3	6
2361074	PROB	n/a	LTP374	ltpFR2	21	n/a	n/a	n/a	19	25	9	7	9
2362039	PROB	n/a	LTP374	ltpFR2	21	n/a	n/a	n/a	19	9	1	6	2
2362706	PROB	n/a	LTP374	ltpFR2	21	n/a	n/a	n/a	19	1	8	3	3
2363589	PROB	n/a	LTP374	ltpFR2	21	n/a	n/a	n/a	19	16	7	8	2
2364372	PROB	n/a	LTP374	ltpFR2	21	n/a	n/a	n/a	19	20	7	6	7
2365505	PROB	n/a	LTP374	ltpFR2	21	n/a	n/a	n/a	19	13	6	3	4
2366405	PROB	n/a	LTP374	ltpFR2	21	n/a	n/a	n/a	19	16	8	4	4
2367454	PROB	n/a	LTP374	ltpFR2	21	n/a	n/a	n/a	19	15	1	6	8
2368787	PROB	n/a	LTP374	ltpFR2	21	n/a	n/a	n/a	19	15	9	3	3
2369636	PROB	n/a	LTP374	ltpFR2	21	n/a	n/a	n/a	19	10	3	1	6
2370403	PROB	n/a	LTP374	ltpFR2	21	n/a	n/a	n/a	19	16	4	3	9
2372085	PROB	n/a	LTP374	ltpFR2	21	n/a	n/a	n/a	19	18	6	5	7
2373151	PROB	n/a	LTP374	ltpFR2	21	n/a	n/a	n/a	19	16	7	8	1
2373818	PROB	n/a	LTP374	ltpFR2	21	n/a	n/a	n/a	19	11	5	2	4
2374751	PROB	n/a	LTP374	ltpFR2	21	n/a	n/a	n/a	19	16	9	3	4
2375550	PROB	n/a	LTP374	ltpFR2	21	n/a	n/a	n/a	19	1	3	8	4
2376467	PROB	n/a	LTP374	ltpFR2	21	n/a	n/a	n/a	19	19	4	8	7
2377865	PROB	n/a	LTP374	ltpFR2	21	n/a	n/a	n/a	19	20	7	9	4
2378931	PROB	n/a	LTP374	ltpFR2	21	n/a	n/a	n/a	19	19	6	5	8
2379715	PROB	n/a	LTP374	ltpFR2	21	n/a	n/a	n/a	19	19	7	3	9
2380448	PROB	n/a	LTP374	ltpFR2	21	n/a	n/a	n/a	19	16	6	7	1
2381183	STOP	n/a	LTP374	ltpFR2	21	n/a	n/a	n/a	19	n/a	n/a	n/a	n/a
2384081	REC_START	n/a	LTP374	ltpFR2	21	12	n/a	n/a	n/a	n/a	0	0	0
2387474	REC_WORD	wordpools/wasnorm_wordpool_576.txt	LTP374	ltpFR2	21	12	COBRA	336	n/a	n/a	0	0	0
2388587	REC_WORD	wordpools/wasnorm_wordpool_576.txt	LTP374	ltpFR2	21	12	GRAPE	654	n/a	n/a	0	0	0
2391350	REC_WORD	wordpools/wasnorm_wordpool_576.txt	LTP374	ltpFR2	21	12	LUNCH	849	n/a	n/a	0	0	0
2392199	REC_WORD	wordpools/wasnorm_wordpool_576.txt	LTP374	ltpFR2	21	12	FARMER	553	n/a	n/a	0	0	0
2393054	REC_WORD	wordpools/wasnorm_wordpool_576.txt	LTP374	ltpFR2	21	12	SCARECROW	1245	n/a	n/a	0	0	0
2394448	REC_WORD	wordpools/wasnorm_wordpool_576.txt	LTP374	ltpFR2	21	12	WIFE	1609	n/a	n/a	0	0	0
2395200	REC_WORD	wordpools/wasnorm_wordpool_576.txt	LTP374	ltpFR2	21	12	SPOUSE	1358	n/a	n/a	0	0	0
2396103	REC_WORD	wordpools/wasnorm_wordpool_576.txt	LTP374	ltpFR2	21	12	TROMBONE	1508	n/a	n/a	0	0	0
2397152	REC_WORD	wordpools/wasnorm_wordpool_576.txt	LTP374	ltpFR2	21	12	FOX	598	n/a	n/a	0	0	0
2398608	REC_WORD	wordpools/wasnorm_wordpool_576.txt	LTP374	ltpFR2	21	12	JUDGE	761	n/a	n/a	0	0	0
2399224	REC_WORD	wordpools/wasnorm_wordpool_576.txt	LTP374	ltpFR2	21	12	SHERIFF	1284	n/a	n/a	0	0	0
2400023	REC_WORD	wordpools/wasnorm_wordpool_576.txt	LTP374	ltpFR2	21	12	AGENT	10	n/a	n/a	0	0	0
2401342	REC_WORD	wordpools/wasnorm_wordpool_576.txt	LTP374	ltpFR2	21	12	BUCKET	184	n/a	n/a	0	0	0
2402200	REC_WORD	wordpools/wasnorm_wordpool_576.txt	LTP374	ltpFR2	21	12	PASTA	1021	n/a	n/a	0	0	0
2403835	REC_WORD	wordpools/wasnorm_wordpool_576.txt	LTP374	ltpFR2	21	12	FLAG	573	n/a	n/a	0	0	0
2404924	REC_WORD	wordpools/wasnorm_wordpool_576.txt	LTP374	ltpFR2	21	12	VIRUS	1572	n/a	n/a	0	0	0
2406044	REC_WORD	wordpools/wasnorm_wordpool_576.txt	LTP374	ltpFR2	21	12	BLACKBOARD	133	n/a	n/a	0	0	0
2409183	REC_WORD	wordpools/wasnorm_wordpool_576.txt	LTP374	ltpFR2	21	12	SPOOL	1356	n/a	n/a	0	0	0
2410172	REC_WORD	wordpools/wasnorm_wordpool_576.txt	LTP374	ltpFR2	21	12	SPONGE	1355	n/a	n/a	0	0	0
2423788	REC_WORD	wordpools/wasnorm_wordpool_576.txt	LTP374	ltpFR2	21	12	PIGMENT	1066	n/a	n/a	0	0	0
2474521	DISTRACTOR	n/a	LTP374	ltpFR2	21	13	n/a	n/a	n/a	n/a	0	0	0
2474521	START	n/a	LTP374	ltpFR2	21	n/a	n/a	n/a	20	n/a	n/a	n/a	n/a
2474538	PROB	n/a	LTP374	ltpFR2	21	n/a	n/a	n/a	20	21	9	7	5
2475387	PROB	n/a	LTP374	ltpFR2	21	n/a	n/a	n/a	20	14	6	3	5
2476387	PROB	n/a	LTP374	ltpFR2	21	n/a	n/a	n/a	20	8	1	1	6
2477070	PROB	n/a	LTP374	ltpFR2	21	n/a	n/a	n/a	20	8	2	2	4
2477820	PROB	n/a	LTP374	ltpFR2	21	n/a	n/a	n/a	20	12	7	1	5
2478469	PROB	n/a	LTP374	ltpFR2	21	n/a	n/a	n/a	20	22	8	6	8
2479386	PROB	n/a	LTP374	ltpFR2	21	n/a	n/a	n/a	20	9	3	4	2
2480202	PROB	n/a	LTP374	ltpFR2	21	n/a	n/a	n/a	20	13	1	3	9
2480834	PROB	n/a	LTP374	ltpFR2	21	n/a	n/a	n/a	20	8	1	6	1
2481618	PROB	n/a	LTP374	ltpFR2	21	n/a	n/a	n/a	20	7	1	5	1
2482284	PROB	n/a	LTP374	ltpFR2	21	n/a	n/a	n/a	20	14	9	2	3
2483066	PROB	n/a	LTP374	ltpFR2	21	n/a	n/a	n/a	20	9	3	1	5
2483784	PROB	n/a	LTP374	ltpFR2	21	n/a	n/a	n/a	20	1	3	5	7
2484766	PROB	n/a	LTP374	ltpFR2	21	n/a	n/a	n/a	20	17	9	5	4
2485915	PROB	n/a	LTP374	ltpFR2	21	n/a	n/a	n/a	20	10	2	1	7
2486799	PROB	n/a	LTP374	ltpFR2	21	n/a	n/a	n/a	20	10	1	7	2
2487964	PROB	n/a	LTP374	ltpFR2	21	n/a	n/a	n/a	20	20	8	7	5
2488963	PROB	n/a	LTP374	ltpFR2	21	n/a	n/a	n/a	20	15	5	9	1
2489664	PROB	n/a	LTP374	ltpFR2	21	n/a	n/a	n/a	20	13	6	4	3
2490331	PROB	n/a	LTP374	ltpFR2	21	n/a	n/a	n/a	20	8	2	2	1
2491013	PROB	n/a	LTP374	ltpFR2	21	n/a	n/a	n/a	20	22	8	4	9
2492012	PROB	n/a	LTP374	ltpFR2	21	n/a	n/a	n/a	20	17	1	7	9
2493146	PROB	n/a	LTP374	ltpFR2	21	n/a	n/a	n/a	20	16	5	2	9
2494195	PROB	n/a	LTP374	ltpFR2	21	n/a	n/a	n/a	20	13	3	1	9
2494844	PROB	n/a	LTP374	ltpFR2	21	n/a	n/a	n/a	20	18	8	3	7
2495628	PROB	n/a	LTP374	ltpFR2	21	n/a	n/a	n/a	20	21	3	9	9
2496461	PROB	n/a	LTP374	ltpFR2	21	n/a	n/a	n/a	20	17	4	8	5
2497739	STOP	n/a	LTP374	ltpFR2	21	n/a	n/a	n/a	20	n/a	n/a	n/a	n/a
2499543	WORD	wordpools/wasnorm_wordpool_576.txt	LTP374	ltpFR2	21	13	PILOT	1070	n/a	n/a	0	0	0
2502275	WORD	wordpools/wasnorm_wordpool_576.txt	LTP374	ltpFR2	21	13	AIRPORT	13	n/a	n/a	0	0	0
2504956	WORD	wordpools/wasnorm_wordpool_576.txt	LTP374	ltpFR2	21	13	PICNIC	1060	n/a	n/a	0	0	0
2507656	WORD	wordpools/wasnorm_wordpool_576.txt	LTP374	ltpFR2	21	13	SIDEWALK	1303	n/a	n/a	0	0	0
2510088	WORD	wordpools/wasnorm_wordpool_576.txt	LTP374	ltpFR2	21	13	UMPIRE	1535	n/a	n/a	0	0	0
2512720	WORD	wordpools/wasnorm_wordpool_576.txt	LTP374	ltpFR2	21	13	BACON	67	n/a	n/a	0	0	0
2515352	WORD	wordpools/wasnorm_wordpool_576.txt	LTP374	ltpFR2	21	13	SAUSAGE	1238	n/a	n/a	0	0	0
2517983	WORD	wordpools/wasnorm_wordpool_576.txt	LTP374	ltpFR2	21	13	STAR	1373	n/a	n/a	0	0	0
2520766	WORD	wordpools/wasnorm_wordpool_576.txt	LTP374	ltpFR2	21	13	CABBAGE	210	n/a	n/a	0	0	0
2523399	WORD	wordpools/wasnorm_wordpool_576.txt	LTP374	ltpFR2	21	13	HEADBAND	696	n/a	n/a	0	0	0
2526114	WORD	wordpools/wasnorm_wordpool_576.txt	LTP374	ltpFR2	21	13	COLONEL	348	n/a	n/a	0	0	0
2528779	WORD	wordpools/wasnorm_wordpool_576.txt	LTP374	ltpFR2	21	13	GLOVE	642	n/a	n/a	0	0	0
2531528	WORD	wordpools/wasnorm_wordpool_576.txt	LTP374	ltpFR2	21	13	BANJO	82	n/a	n/a	0	0	0
2534127	WORD	wordpools/wasnorm_wordpool_576.txt	LTP374	ltpFR2	21	13	FIREPLACE	570	n/a	n/a	0	0	0
2536941	WORD	wordpools/wasnorm_wordpool_576.txt	LTP374	ltpFR2	21	13	KEEPER	769	n/a	n/a	0	0	0
2539674	WORD	wordpools/wasnorm_wordpool_576.txt	LTP374	ltpFR2	21	13	POSTAGE	1113	n/a	n/a	0	0	0
2542156	WORD	wordpools/wasnorm_wordpool_576.txt	LTP374	ltpFR2	21	13	MARKER	870	n/a	n/a	0	0	0
2544639	WORD	wordpools/wasnorm_wordpool_576.txt	LTP374	ltpFR2	21	13	TORTOISE	1486	n/a	n/a	0	0	0
2547387	WORD	wordpools/wasnorm_wordpool_576.txt	LTP374	ltpFR2	21	13	DRAGON	492	n/a	n/a	0	0	0
2549952	WORD	wordpools/wasnorm_wordpool_576.txt	LTP374	ltpFR2	21	13	RIFLE	1192	n/a	n/a	0	0	0
2552602	WORD	wordpools/wasnorm_wordpool_576.txt	LTP374	ltpFR2	21	13	PACKAGE	997	n/a	n/a	0	0	0
2555033	WORD	wordpools/wasnorm_wordpool_576.txt	LTP374	ltpFR2	21	13	YARN	1631	n/a	n/a	0	0	0
2557533	WORD	wordpools/wasnorm_wordpool_576.txt	LTP374	ltpFR2	21	13	RACKET	1155	n/a	n/a	0	0	0
2560181	WORD	wordpools/wasnorm_wordpool_576.txt	LTP374	ltpFR2	21	13	STUDENT	1395	n/a	n/a	0	0	0
2561798	START	n/a	LTP374	ltpFR2	21	n/a	n/a	n/a	21	n/a	n/a	n/a	n/a
2562648	DISTRACTOR	n/a	LTP374	ltpFR2	21	13	n/a	n/a	n/a	n/a	0	0	0
2562664	PROB	n/a	LTP374	ltpFR2	21	n/a	n/a	n/a	21	14	4	9	1
2563663	PROB	n/a	LTP374	ltpFR2	21	n/a	n/a	n/a	21	15	5	2	8
2564380	PROB	n/a	LTP374	ltpFR2	21	n/a	n/a	n/a	21	11	6	1	4
2565146	PROB	n/a	LTP374	ltpFR2	21	n/a	n/a	n/a	21	14	4	6	4
2565861	PROB	n/a	LTP374	ltpFR2	21	n/a	n/a	n/a	21	8	3	1	4
2566578	PROB	n/a	LTP374	ltpFR2	21	n/a	n/a	n/a	21	16	6	2	8
2567428	PROB	n/a	LTP374	ltpFR2	21	n/a	n/a	n/a	21	11	2	7	2
2568294	PROB	n/a	LTP374	ltpFR2	21	n/a	n/a	n/a	21	16	4	8	6
2569094	PROB	n/a	LTP374	ltpFR2	21	n/a	n/a	n/a	21	9	3	1	5
2569893	PROB	n/a	LTP374	ltpFR2	21	n/a	n/a	n/a	21	17	9	3	6
2570743	PROB	n/a	LTP374	ltpFR2	21	n/a	n/a	n/a	21	15	3	3	9
2571493	PROB	n/a	LTP374	ltpFR2	21	n/a	n/a	n/a	21	12	2	8	3
2573109	PROB	n/a	LTP374	ltpFR2	21	n/a	n/a	n/a	21	13	4	3	6
2574442	PROB	n/a	LTP374	ltpFR2	21	n/a	n/a	n/a	21	13	1	6	6
2575291	PROB	n/a	LTP374	ltpFR2	21	n/a	n/a	n/a	21	11	6	2	3
2576557	PROB	n/a	LTP374	ltpFR2	21	n/a	n/a	n/a	21	14	8	1	5
2577290	PROB	n/a	LTP374	ltpFR2	21	n/a	n/a	n/a	21	8	1	5	2
2578005	PROB	n/a	LTP374	ltpFR2	21	n/a	n/a	n/a	21	5	3	1	1
2578690	PROB	n/a	LTP374	ltpFR2	21	n/a	n/a	n/a	21	1	2	5	5
2579389	PROB	n/a	LTP374	ltpFR2	21	n/a	n/a	n/a	21	14	1	9	4
2580105	PROB	n/a	LTP374	ltpFR2	21	n/a	n/a	n/a	21	5	1	9	5
2580772	PROB	n/a	LTP374	ltpFR2	21	n/a	n/a	n/a	21	19	8	4	7
2581638	PROB	n/a	LTP374	ltpFR2	21	n/a	n/a	n/a	21	13	4	6	3
2582304	PROB	n/a	LTP374	ltpFR2	21	n/a	n/a	n/a	21	15	6	3	6
2583587	PROB	n/a	LTP374	ltpFR2	21	n/a	n/a	n/a	21	1	6	1	9
2584287	PROB	n/a	LTP374	ltpFR2	21	n/a	n/a	n/a	21	20	7	7	6
2585542	STOP	n/a	LTP374	ltpFR2	21	n/a	n/a	n/a	21	n/a	n/a	n/a	n/a
2587686	REC_START	n/a	LTP374	ltpFR2	21	13	n/a	n/a	n/a	n/a	0	0	0
2589202	REC_WORD	wordpools/wasnorm_wordpool_576.txt	LTP374	ltpFR2	21	13	PACKAGE	997	n/a	n/a	0	0	0
2590622	REC_WORD	wordpools/wasnorm_wordpool_576.txt	LTP374	ltpFR2	21	13	POSTAGE	1113	n/a	n/a	0	0	0
2592141	REC_WORD	wordpools/wasnorm_wordpool_576.txt	LTP374	ltpFR2	21	13	MARKER	870	n/a	n/a	0	0	0
2595363	REC_WORD	wordpools/wasnorm_wordpool_576.txt	LTP374	ltpFR2	21	13	KEEPER	769	n/a	n/a	0	0	0
2597519	REC_WORD	wordpools/wasnorm_wordpool_576.txt	LTP374	ltpFR2	21	13	GLOVE	642	n/a	n/a	0	0	0
2599047	REC_WORD	wordpools/wasnorm_wordpool_576.txt	LTP374	ltpFR2	21	13	HEADBAND	696	n/a	n/a	0	0	0
2600212	REC_WORD	wordpools/wasnorm_wordpool_576.txt	LTP374	ltpFR2	21	13	STUDENT	1395	n/a	n/a	0	0	0
2601236	REC_WORD	wordpools/wasnorm_wordpool_576.txt	LTP374	ltpFR2	21	13	PILOT	1070	n/a	n/a	0	0	0
2602299	REC_WORD	wordpools/wasnorm_wordpool_576.txt	LTP374	ltpFR2	21	13	AIRPORT	13	n/a	n/a	0	0	0
2604088	REC_WORD	wordpools/wasnorm_wordpool_576.txt	LTP374	ltpFR2	21	13	EMPIRE	530	n/a	n/a	0	0	0
2605294	REC_WORD	wordpools/wasnorm_wordpool_576.txt	LTP374	ltpFR2	21	13	STAR	1373	n/a	n/a	0	0	0
2607573	REC_WORD	wordpools/wasnorm_wordpool_576.txt	LTP374	ltpFR2	21	13	DRAGON	492	n/a	n/a	0	0	0
2610164	REC_WORD	wordpools/wasnorm_wordpool_576.txt	LTP374	ltpFR2	21	13	BACON	67	n/a	n/a	0	0	0
2611318	REC_WORD	wordpools/wasnorm_wordpool_576.txt	LTP374	ltpFR2	21	13	SAUSAGE	1238	n/a	n/a	0	0	0
2613595	REC_WORD	wordpools/wasnorm_wordpool_576.txt	LTP374	ltpFR2	21	13	BANJO	82	n/a	n/a	0	0	0
2617068	REC_WORD	wordpools/wasnorm_wordpool_576.txt	LTP374	ltpFR2	21	13	FIREPLACE	570	n/a	n/a	0	0	0
2619501	REC_WORD	wordpools/wasnorm_wordpool_576.txt	LTP374	ltpFR2	21	13	SIDEWALK	1303	n/a	n/a	0	0	0
2678127	DISTRACTOR	n/a	LTP374	ltpFR2	21	14	n/a	n/a	n/a	n/a	0	0	0
2678127	START	n/a	LTP374	ltpFR2	21	n/a	n/a	n/a	22	n/a	n/a	n/a	n/a
2678143	PROB	n/a	LTP374	ltpFR2	21	n/a	n/a	n/a	22	10	4	2	4
2678959	PROB	n/a	LTP374	ltpFR2	21	n/a	n/a	n/a	22	15	5	2	8
2679659	PROB	n/a	LTP374	ltpFR2	21	n/a	n/a	n/a	22	11	4	1	6
2680459	PROB	n/a	LTP374	ltpFR2	21	n/a	n/a	n/a	22	12	1	9	2
2681125	PROB	n/a	LTP374	ltpFR2	21	n/a	n/a	n/a	22	15	7	4	4
2681924	PROB	n/a	LTP374	ltpFR2	21	n/a	n/a	n/a	22	12	7	4	1
2682924	PROB	n/a	LTP374	ltpFR2	21	n/a	n/a	n/a	22	20	6	9	5
2683873	PROB	n/a	LTP374	ltpFR2	21	n/a	n/a	n/a	22	18	9	8	1
2684590	PROB	n/a	LTP374	ltpFR2	21	n/a	n/a	n/a	22	15	4	9	2
2685323	PROB	n/a	LTP374	ltpFR2	21	n/a	n/a	n/a	22	14	6	6	2
2686106	PROB	n/a	LTP374	ltpFR2	21	n/a	n/a	n/a	22	18	1	9	8
2686789	PROB	n/a	LTP374	ltpFR2	21	n/a	n/a	n/a	22	19	7	4	8
2687756	PROB	n/a	LTP374	ltpFR2	21	n/a	n/a	n/a	22	198	9	8	1
2688522	PROB	n/a	LTP374	ltpFR2	21	n/a	n/a	n/a	22	21	7	8	6
2690354	PROB	n/a	LTP374	ltpFR2	21	n/a	n/a	n/a	22	14	4	1	9
2691036	PROB	n/a	LTP374	ltpFR2	21	n/a	n/a	n/a	22	22	6	9	7
2691986	PROB	n/a	LTP374	ltpFR2	21	n/a	n/a	n/a	22	21	8	8	5
2693686	PROB	n/a	LTP374	ltpFR2	21	n/a	n/a	n/a	22	12	3	8	1
2694419	PROB	n/a	LTP374	ltpFR2	21	n/a	n/a	n/a	22	14	7	6	1
2695186	PROB	n/a	LTP374	ltpFR2	21	n/a	n/a	n/a	22	25	9	9	6
2696268	PROB	n/a	LTP374	ltpFR2	21	n/a	n/a	n/a	22	15	8	7	2
2697101	PROB	n/a	LTP374	ltpFR2	21	n/a	n/a	n/a	22	13	6	6	1
2697850	PROB	n/a	LTP374	ltpFR2	21	n/a	n/a	n/a	22	17	8	4	5
2698701	PROB	n/a	LTP374	ltpFR2	21	n/a	n/a	n/a	22	17	2	6	9
2699467	PROB	n/a	LTP374	ltpFR2	21	n/a	n/a	n/a	22	13	6	1	6
2700167	PROB	n/a	LTP374	ltpFR2	21	n/a	n/a	n/a	22	16	6	8	2
2701016	STOP	n/a	LTP374	ltpFR2	21	n/a	n/a	n/a	22	n/a	n/a	n/a	n/a
2703048	WORD	wordpools/wasnorm_wordpool_576.txt	LTP374	ltpFR2	21	14	PLUTO	1092	n/a	n/a	0	0	0
2705697	WORD	wordpools/wasnorm_wordpool_576.txt	LTP374	ltpFR2	21	14	TWEEZERS	1526	n/a	n/a	0	0	0
2708263	WORD	wordpools/wasnorm_wordpool_576.txt	LTP374	ltpFR2	21	14	TRACTOR	1493	n/a	n/a	0	0	0
2710695	WORD	wordpools/wasnorm_wordpool_576.txt	LTP374	ltpFR2	21	14	FLASHLIGHT	575	n/a	n/a	0	0	0
2713327	WORD	wordpools/wasnorm_wordpool_576.txt	LTP374	ltpFR2	21	14	ICEBERG	731	n/a	n/a	0	0	0
2715875	WORD	wordpools/wasnorm_wordpool_576.txt	LTP374	ltpFR2	21	14	HIKER	708	n/a	n/a	0	0	0
2718358	WORD	wordpools/wasnorm_wordpool_576.txt	LTP374	ltpFR2	21	14	MUMMY	932	n/a	n/a	0	0	0
2720956	WORD	wordpools/wasnorm_wordpool_576.txt	LTP374	ltpFR2	21	14	SCRIBBLE	1256	n/a	n/a	0	0	0
2723489	WORD	wordpools/wasnorm_wordpool_576.txt	LTP374	ltpFR2	21	14	HELMET	702	n/a	n/a	0	0	0
2726054	WORD	wordpools/wasnorm_wordpool_576.txt	LTP374	ltpFR2	21	14	HATCHET	691	n/a	n/a	0	0	0
2728537	WORD	wordpools/wasnorm_wordpool_576.txt	LTP374	ltpFR2	21	14	BLADE	134	n/a	n/a	0	0	0
2731219	WORD	wordpools/wasnorm_wordpool_576.txt	LTP374	ltpFR2	21	14	CANDY	230	n/a	n/a	0	0	0
2733768	WORD	wordpools/wasnorm_wordpool_576.txt	LTP374	ltpFR2	21	14	PAIL	1002	n/a	n/a	0	0	0
2736416	WORD	wordpools/wasnorm_wordpool_576.txt	LTP374	ltpFR2	21	14	GALLON	618	n/a	n/a	0	0	0
2738931	WORD	wordpools/wasnorm_wordpool_576.txt	LTP374	ltpFR2	21	14	KITCHEN	778	n/a	n/a	0	0	0
2741397	WORD	wordpools/wasnorm_wordpool_576.txt	LTP374	ltpFR2	21	14	PARTNER	1017	n/a	n/a	0	0	0
2743995	WORD	wordpools/wasnorm_wordpool_576.txt	LTP374	ltpFR2	21	14	JEANS	752	n/a	n/a	0	0	0
2746495	WORD	wordpools/wasnorm_wordpool_576.txt	LTP374	ltpFR2	21	14	GLOBE	641	n/a	n/a	0	0	0
2748976	WORD	wordpools/wasnorm_wordpool_576.txt	LTP374	ltpFR2	21	14	TERMITE	1451	n/a	n/a	0	0	0
2751693	WORD	wordpools/wasnorm_wordpool_576.txt	LTP374	ltpFR2	21	14	CRICKET	408	n/a	n/a	0	0	0
2754258	WORD	wordpools/wasnorm_wordpool_576.txt	LTP374	ltpFR2	21	14	BUNNY	198	n/a	n/a	0	0	0
2756939	WORD	wordpools/wasnorm_wordpool_576.txt	LTP374	ltpFR2	21	14	SHORTS	1293	n/a	n/a	0	0	0
2759372	WORD	wordpools/wasnorm_wordpool_576.txt	LTP374	ltpFR2	21	14	SERVER	1272	n/a	n/a	0	0	0
2761904	WORD	wordpools/wasnorm_wordpool_576.txt	LTP374	ltpFR2	21	14	FRIEND	606	n/a	n/a	0	0	0
2763521	START	n/a	LTP374	ltpFR2	21	n/a	n/a	n/a	23	n/a	n/a	n/a	n/a
2764330	DISTRACTOR	n/a	LTP374	ltpFR2	21	14	n/a	n/a	n/a	n/a	0	0	0
2764337	PROB	n/a	LTP374	ltpFR2	21	n/a	n/a	n/a	23	11	1	9	1
2765203	PROB	n/a	LTP374	ltpFR2	21	n/a	n/a	n/a	23	10	3	2	5
2766069	PROB	n/a	LTP374	ltpFR2	21	n/a	n/a	n/a	23	9	1	3	5
2766736	PROB	n/a	LTP374	ltpFR2	21	n/a	n/a	n/a	23	14	3	4	7
2767635	PROB	n/a	LTP374	ltpFR2	21	n/a	n/a	n/a	23	12	3	3	6
2768601	PROB	n/a	LTP374	ltpFR2	21	n/a	n/a	n/a	23	21	7	6	8
2769451	PROB	n/a	LTP374	ltpFR2	21	n/a	n/a	n/a	23	9	5	3	1
2770151	PROB	n/a	LTP374	ltpFR2	21	n/a	n/a	n/a	23	13	6	3	2
2771049	PROB	n/a	LTP374	ltpFR2	21	n/a	n/a	n/a	23	12	3	8	1
2771767	PROB	n/a	LTP374	ltpFR2	21	n/a	n/a	n/a	23	21	9	4	7
2772600	PROB	n/a	LTP374	ltpFR2	21	n/a	n/a	n/a	23	1	5	8	3
2773366	PROB	n/a	LTP374	ltpFR2	21	n/a	n/a	n/a	23	11	2	4	5
2774132	PROB	n/a	LTP374	ltpFR2	21	n/a	n/a	n/a	23	4	1	1	2
2774799	PROB	n/a	LTP374	ltpFR2	21	n/a	n/a	n/a	23	11	5	2	4
2775615	PROB	n/a	LTP374	ltpFR2	21	n/a	n/a	n/a	23	8	3	1	4
2776348	PROB	n/a	LTP374	ltpFR2	21	n/a	n/a	n/a	23	15	6	6	3
2777131	PROB	n/a	LTP374	ltpFR2	21	n/a	n/a	n/a	23	14	1	6	7
2777913	PROB	n/a	LTP374	ltpFR2	21	n/a	n/a	n/a	23	10	6	1	3
2778813	PROB	n/a	LTP374	ltpFR2	21	n/a	n/a	n/a	23	1	7	4	7
2779596	PROB	n/a	LTP374	ltpFR2	21	n/a	n/a	n/a	23	15	7	1	7
2780479	PROB	n/a	LTP374	ltpFR2	21	n/a	n/a	n/a	23	9	2	4	3
2781212	PROB	n/a	LTP374	ltpFR2	21	n/a	n/a	n/a	23	19	7	6	6
2782061	PROB	n/a	LTP374	ltpFR2	21	n/a	n/a	n/a	23	18	9	4	5
2783060	PROB	n/a	LTP374	ltpFR2	21	n/a	n/a	n/a	23	1	4	5	7
2784144	PROB	n/a	LTP374	ltpFR2	21	n/a	n/a	n/a	23	12	4	5	3
2784860	PROB	n/a	LTP374	ltpFR2	21	n/a	n/a	n/a	23	19	9	4	6
2785594	PROB	n/a	LTP374	ltpFR2	21	n/a	n/a	n/a	23	17	5	6	6
2786796	STOP	n/a	LTP374	ltpFR2	21	n/a	n/a	n/a	23	n/a	n/a	n/a	n/a
2789459	REC_START	n/a	LTP374	ltpFR2	21	14	n/a	n/a	n/a	n/a	0	0	0
2790685	REC_WORD	wordpools/wasnorm_wordpool_576.txt	LTP374	ltpFR2	21	14	BUNNY	198	n/a	n/a	0	0	0
2791305	REC_WORD	wordpools/wasnorm_wordpool_576.txt	LTP374	ltpFR2	21	14	MUMMY	932	n/a	n/a	0	0	0
2792539	REC_WORD	wordpools/wasnorm_wordpool_576.txt	LTP374	ltpFR2	21	14	CANDY	230	n/a	n/a	0	0	0
2794236	REC_WORD	wordpools/wasnorm_wordpool_576.txt	LTP374	ltpFR2	21	14	BUCKET	184	n/a	n/a	0	0	0
2794968	REC_WORD	wordpools/wasnorm_wordpool_576.txt	LTP374	ltpFR2	21	14	GALLON	618	n/a	n/a	0	0	0
2796542	REC_WORD	wordpools/wasnorm_wordpool_576.txt	LTP374	ltpFR2	21	14	PARTNER	1017	n/a	n/a	0	0	0
2797089	REC_WORD	wordpools/wasnorm_wordpool_576.txt	LTP374	ltpFR2	21	14	FRIEND	606	n/a	n/a	0	0	0
2797858	REC_WORD	wordpools/wasnorm_wordpool_576.txt	LTP374	ltpFR2	21	14	SERVER	1272	n/a	n/a	0	0	0
2798735	REC_WORD	wordpools/wasnorm_wordpool_576.txt	LTP374	ltpFR2	21	14	KITCHEN	778	n/a	n/a	0	0	0
2800415	REC_WORD	wordpools/wasnorm_wordpool_576.txt	LTP374	ltpFR2	21	14	HIKER	708	n/a	n/a	0	0	0
2801581	REC_WORD	wordpools/wasnorm_wordpool_576.txt	LTP374	ltpFR2	21	14	ICEBERG	731	n/a	n/a	0	0	0
2803445	REC_WORD	wordpools/wasnorm_wordpool_576.txt	LTP374	ltpFR2	21	14	GLOBE	641	n/a	n/a	0	0	0
2804213	REC_WORD	wordpools/wasnorm_wordpool_576.txt	LTP374	ltpFR2	21	14	HELMET	702	n/a	n/a	0	0	0
2804814	REC_WORD	wordpools/wasnorm_wordpool_576.txt	LTP374	ltpFR2	21	14	HATCHET	691	n/a	n/a	0	0	0
2805659	REC_WORD	wordpools/wasnorm_wordpool_576.txt	LTP374	ltpFR2	21	14	BLADE	134	n/a	n/a	0	0	0
2806396	REC_WORD	wordpools/wasnorm_wordpool_576.txt	LTP374	ltpFR2	21	14	FLASHLIGHT	575	n/a	n/a	0	0	0
2818996	REC_WORD	wordpools/wasnorm_wordpool_576.txt	LTP374	ltpFR2	21	14	TERMITE	1451	n/a	n/a	0	0	0
2819768	REC_WORD	wordpools/wasnorm_wordpool_576.txt	LTP374	ltpFR2	21	14	CRICKET	408	n/a	n/a	0	0	0
2879932	WORD	wordpools/wasnorm_wordpool_576.txt	LTP374	ltpFR2	21	15	PUDDLE	1140	n/a	n/a	0	0	0
2882432	WORD	wordpools/wasnorm_wordpool_576.txt	LTP374	ltpFR2	21	15	IDOL	733	n/a	n/a	0	0	0
2884913	WORD	wordpools/wasnorm_wordpool_576.txt	LTP374	ltpFR2	21	15	LAGOON	795	n/a	n/a	0	0	0
2887580	WORD	wordpools/wasnorm_wordpool_576.txt	LTP374	ltpFR2	21	15	MARKET	871	n/a	n/a	0	0	0
2890162	WORD	wordpools/wasnorm_wordpool_576.txt	LTP374	ltpFR2	21	15	BEEF	113	n/a	n/a	0	0	0
2892960	WORD	wordpools/wasnorm_wordpool_576.txt	LTP374	ltpFR2	21	15	TYPIST	1532	n/a	n/a	0	0	0
2895476	WORD	wordpools/wasnorm_wordpool_576.txt	LTP374	ltpFR2	21	15	SCISSORS	1250	n/a	n/a	0	0	0
2897974	WORD	wordpools/wasnorm_wordpool_576.txt	LTP374	ltpFR2	21	15	SPARROW	1347	n/a	n/a	0	0	0
2900457	WORD	wordpools/wasnorm_wordpool_576.txt	LTP374	ltpFR2	21	15	CLOTHES	327	n/a	n/a	0	0	0
2903172	WORD	wordpools/wasnorm_wordpool_576.txt	LTP374	ltpFR2	21	15	NOVEL	960	n/a	n/a	0	0	0
2905954	WORD	wordpools/wasnorm_wordpool_576.txt	LTP374	ltpFR2	21	15	BINDER	127	n/a	n/a	0	0	0
2908453	WORD	wordpools/wasnorm_wordpool_576.txt	LTP374	ltpFR2	21	15	TUTU	1524	n/a	n/a	0	0	0
2911018	WORD	wordpools/wasnorm_wordpool_576.txt	LTP374	ltpFR2	21	15	SLUG	1329	n/a	n/a	0	0	0
2913734	WORD	wordpools/wasnorm_wordpool_576.txt	LTP374	ltpFR2	21	15	PARSLEY	1016	n/a	n/a	0	0	0
2916533	WORD	wordpools/wasnorm_wordpool_576.txt	LTP374	ltpFR2	21	15	BUTCHER	203	n/a	n/a	0	0	0
2919232	WORD	wordpools/wasnorm_wordpool_576.txt	LTP374	ltpFR2	21	15	CLOCK	325	n/a	n/a	0	0	0
2922029	WORD	wordpools/wasnorm_wordpool_576.txt	LTP374	ltpFR2	21	15	SKIRT	1319	n/a	n/a	0	0	0
2924845	WORD	wordpools/wasnorm_wordpool_576.txt	LTP374	ltpFR2	21	15	SHARK	1275	n/a	n/a	0	0	0
2927628	WORD	wordpools/wasnorm_wordpool_576.txt	LTP374	ltpFR2	21	15	CRAB	397	n/a	n/a	0	0	0
2930193	WORD	wordpools/wasnorm_wordpool_576.txt	LTP374	ltpFR2	21	15	COUCH	386	n/a	n/a	0	0	0
2932759	WORD	wordpools/wasnorm_wordpool_576.txt	LTP374	ltpFR2	21	15	JURY	766	n/a	n/a	0	0	0
2935574	WORD	wordpools/wasnorm_wordpool_576.txt	LTP374	ltpFR2	21	15	SHOULDER	1294	n/a	n/a	0	0	0
2938156	WORD	wordpools/wasnorm_wordpool_576.txt	LTP374	ltpFR2	21	15	WORKER	1621	n/a	n/a	0	0	0
2940971	WORD	wordpools/wasnorm_wordpool_576.txt	LTP374	ltpFR2	21	15	GHETTO	633	n/a	n/a	0	0	0
2942588	START	n/a	LTP374	ltpFR2	21	n/a	n/a	n/a	24	n/a	n/a	n/a	n/a
2943748	DISTRACTOR	n/a	LTP374	ltpFR2	21	15	n/a	n/a	n/a	n/a	0	0	0
2943754	PROB	n/a	LTP374	ltpFR2	21	n/a	n/a	n/a	24	6	3	2	1
2944453	PROB	n/a	LTP374	ltpFR2	21	n/a	n/a	n/a	24	18	6	3	9
2945386	PROB	n/a	LTP374	ltpFR2	21	n/a	n/a	n/a	24	21	8	7	6
2946602	PROB	n/a	LTP374	ltpFR2	21	n/a	n/a	n/a	24	15	3	2	9
2947319	PROB	n/a	LTP374	ltpFR2	21	n/a	n/a	n/a	24	12	5	1	6
2948034	PROB	n/a	LTP374	ltpFR2	21	n/a	n/a	n/a	24	14	5	4	5
2949351	PROB	n/a	LTP374	ltpFR2	21	n/a	n/a	n/a	24	20	5	9	6
