mstime	trial_type	stim_file	subject	experiment	session	trial	item_name	item_num	list	answer	test_x	test_y	test_z
0	SESS_START	n/a	LTP295	ltpFR2	8	n/a	n/a	n/a	n/a	n/a	0	0	0
19173	START	n/a	LTP295	ltpFR2	8	n/a	n/a	n/a	-1	n/a	n/a	n/a	n/a
19200	PROB	n/a	LTP295	ltpFR2	8	n/a	n/a	n/a	-1	24	8	9	7
22036	PROB	n/a	LTP295	ltpFR2	8	n/a	n/a	n/a	-1	10	2	1	7
23321	PROB	n/a	LTP295	ltpFR2	8	n/a	n/a	n/a	-1	12	1	4	7
24556	PROB	n/a	LTP295	ltpFR2	8	n/a	n/a	n/a	-1	14	7	3	4
25856	PROB	n/a	LTP295	ltpFR2	8	n/a	n/a	n/a	-1	15	4	8	4
27709	PROB	n/a	LTP295	ltpFR2	8	n/a	n/a	n/a	-1	17	7	3	7
28992	PROB	n/a	LTP295	ltpFR2	8	n/a	n/a	n/a	-1	16	4	3	9
30842	STOP	n/a	LTP295	ltpFR2	8	n/a	n/a	n/a	-1	n/a	n/a	n/a	n/a
65474	WORD	wordpools/wasnorm_wordpool_576.txt	LTP295	ltpFR2	8	1	FLASK	576	n/a	n/a	0	0	0
68110	WORD	wordpools/wasnorm_wordpool_576.txt	LTP295	ltpFR2	8	1	JOURNAL	760	n/a	n/a	0	0	0
70613	WORD	wordpools/wasnorm_wordpool_576.txt	LTP295	ltpFR2	8	1	TUNNEL	1519	n/a	n/a	0	0	0
73414	WORD	wordpools/wasnorm_wordpool_576.txt	LTP295	ltpFR2	8	1	BEAKER	104	n/a	n/a	0	0	0
75933	WORD	wordpools/wasnorm_wordpool_576.txt	LTP295	ltpFR2	8	1	SKETCH	1315	n/a	n/a	0	0	0
78670	WORD	wordpools/wasnorm_wordpool_576.txt	LTP295	ltpFR2	8	1	OYSTER	995	n/a	n/a	0	0	0
81305	WORD	wordpools/wasnorm_wordpool_576.txt	LTP295	ltpFR2	8	1	FIREPLACE	570	n/a	n/a	0	0	0
84107	WORD	wordpools/wasnorm_wordpool_576.txt	LTP295	ltpFR2	8	1	BROOK	177	n/a	n/a	0	0	0
86859	WORD	wordpools/wasnorm_wordpool_576.txt	LTP295	ltpFR2	8	1	WHISKERS	1605	n/a	n/a	0	0	0
89462	WORD	wordpools/wasnorm_wordpool_576.txt	LTP295	ltpFR2	8	1	MAILMAN	858	n/a	n/a	0	0	0
91897	WORD	wordpools/wasnorm_wordpool_576.txt	LTP295	ltpFR2	8	1	TRIBE	1505	n/a	n/a	0	0	0
94617	WORD	wordpools/wasnorm_wordpool_576.txt	LTP295	ltpFR2	8	1	COWBOY	395	n/a	n/a	0	0	0
97369	WORD	wordpools/wasnorm_wordpool_576.txt	LTP295	ltpFR2	8	1	HATCHET	691	n/a	n/a	0	0	0
99904	WORD	wordpools/wasnorm_wordpool_576.txt	LTP295	ltpFR2	8	1	PORTRAIT	1111	n/a	n/a	0	0	0
102624	WORD	wordpools/wasnorm_wordpool_576.txt	LTP295	ltpFR2	8	1	FILM	565	n/a	n/a	0	0	0
105092	WORD	wordpools/wasnorm_wordpool_576.txt	LTP295	ltpFR2	8	1	CRITIC	410	n/a	n/a	0	0	0
107679	WORD	wordpools/wasnorm_wordpool_576.txt	LTP295	ltpFR2	8	1	POSTAGE	1113	n/a	n/a	0	0	0
110130	WORD	wordpools/wasnorm_wordpool_576.txt	LTP295	ltpFR2	8	1	GIFT	635	n/a	n/a	0	0	0
112766	WORD	wordpools/wasnorm_wordpool_576.txt	LTP295	ltpFR2	8	1	CARROT	249	n/a	n/a	0	0	0
115535	WORD	wordpools/wasnorm_wordpool_576.txt	LTP295	ltpFR2	8	1	TURKEY	1520	n/a	n/a	0	0	0
118120	WORD	wordpools/wasnorm_wordpool_576.txt	LTP295	ltpFR2	8	1	SIDEWALK	1303	n/a	n/a	0	0	0
120839	WORD	wordpools/wasnorm_wordpool_576.txt	LTP295	ltpFR2	8	1	HAND	683	n/a	n/a	0	0	0
123308	WORD	wordpools/wasnorm_wordpool_576.txt	LTP295	ltpFR2	8	1	KLEENEX	782	n/a	n/a	0	0	0
125960	WORD	wordpools/wasnorm_wordpool_576.txt	LTP295	ltpFR2	8	1	QUEEN	1149	n/a	n/a	0	0	0
127580	START	n/a	LTP295	ltpFR2	8	n/a	n/a	n/a	1	n/a	n/a	n/a	n/a
128650	DISTRACTOR	n/a	LTP295	ltpFR2	8	1	n/a	n/a	n/a	n/a	0	0	0
128664	PROB	n/a	LTP295	ltpFR2	8	n/a	n/a	n/a	1	15	8	5	2
130147	PROB	n/a	LTP295	ltpFR2	8	n/a	n/a	n/a	1	13	9	1	3
131498	PROB	n/a	LTP295	ltpFR2	8	n/a	n/a	n/a	1	12	6	2	5
136486	PROB	n/a	LTP295	ltpFR2	8	n/a	n/a	n/a	1	7	2	4	1
137954	PROB	n/a	LTP295	ltpFR2	8	n/a	n/a	n/a	1	14	1	5	8
139807	PROB	n/a	LTP295	ltpFR2	8	n/a	n/a	n/a	1	15	7	2	6
141440	PROB	n/a	LTP295	ltpFR2	8	n/a	n/a	n/a	1	17	9	7	1
143242	PROB	n/a	LTP295	ltpFR2	8	n/a	n/a	n/a	1	18	9	5	4
144927	PROB	n/a	LTP295	ltpFR2	8	n/a	n/a	n/a	1	11	1	7	3
146044	PROB	n/a	LTP295	ltpFR2	8	n/a	n/a	n/a	1	16	2	5	8
147797	PROB	n/a	LTP295	ltpFR2	8	n/a	n/a	n/a	1	12	2	8	2
149230	PROB	n/a	LTP295	ltpFR2	8	n/a	n/a	n/a	1	17	9	7	3
150407	STOP	n/a	LTP295	ltpFR2	8	n/a	n/a	n/a	1	n/a	n/a	n/a	n/a
153536	REC_START	n/a	LTP295	ltpFR2	8	1	n/a	n/a	n/a	n/a	0	0	0
155979	REC_WORD	wordpools/wasnorm_wordpool_576.txt	LTP295	ltpFR2	8	1	SIDEWALK	1303	n/a	n/a	0	0	0
156944	REC_WORD	wordpools/wasnorm_wordpool_576.txt	LTP295	ltpFR2	8	1	QUEEN	1149	n/a	n/a	0	0	0
157766	REC_WORD	wordpools/wasnorm_wordpool_576.txt	LTP295	ltpFR2	8	1	MAILMAN	858	n/a	n/a	0	0	0
158677	REC_WORD	wordpools/wasnorm_wordpool_576.txt	LTP295	ltpFR2	8	1	KLEENEX	782	n/a	n/a	0	0	0
159601	REC_WORD	wordpools/wasnorm_wordpool_576.txt	LTP295	ltpFR2	8	1	GIFT	635	n/a	n/a	0	0	0
160248	REC_WORD	wordpools/wasnorm_wordpool_576.txt	LTP295	ltpFR2	8	1	CARROT	249	n/a	n/a	0	0	0
160999	REC_WORD	wordpools/wasnorm_wordpool_576.txt	LTP295	ltpFR2	8	1	POSTAGE	1113	n/a	n/a	0	0	0
161855	REC_WORD	wordpools/wasnorm_wordpool_576.txt	LTP295	ltpFR2	8	1	HATCHET	691	n/a	n/a	0	0	0
162621	REC_WORD	wordpools/wasnorm_wordpool_576.txt	LTP295	ltpFR2	8	1	COWBOY	395	n/a	n/a	0	0	0
164307	REC_WORD	wordpools/wasnorm_wordpool_576.txt	LTP295	ltpFR2	8	1	FIREPLACE	570	n/a	n/a	0	0	0
165385	REC_WORD	wordpools/wasnorm_wordpool_576.txt	LTP295	ltpFR2	8	1	OYSTER	995	n/a	n/a	0	0	0
167584	REC_WORD	wordpools/wasnorm_wordpool_576.txt	LTP295	ltpFR2	8	1	PORTRAIT	1111	n/a	n/a	0	0	0
168602	REC_WORD	wordpools/wasnorm_wordpool_576.txt	LTP295	ltpFR2	8	1	FILM	565	n/a	n/a	0	0	0
171912	REC_WORD	wordpools/wasnorm_wordpool_576.txt	LTP295	ltpFR2	8	1	BROOK	177	n/a	n/a	0	0	0
173892	REC_WORD	wordpools/wasnorm_wordpool_576.txt	LTP295	ltpFR2	8	1	FLASK	576	n/a	n/a	0	0	0
174962	REC_WORD	wordpools/wasnorm_wordpool_576.txt	LTP295	ltpFR2	8	1	BEAKER	104	n/a	n/a	0	0	0
175595	REC_WORD	wordpools/wasnorm_wordpool_576.txt	LTP295	ltpFR2	8	1	SKETCH	1315	n/a	n/a	0	0	0
176629	REC_WORD	wordpools/wasnorm_wordpool_576.txt	LTP295	ltpFR2	8	1	NOTEBOOK	959	n/a	n/a	0	0	0
177767	REC_WORD	wordpools/wasnorm_wordpool_576.txt	LTP295	ltpFR2	8	1	WHISKERS	1605	n/a	n/a	0	0	0
178767	REC_WORD_VV	wordpools/wasnorm_wordpool_576.txt	LTP295	ltpFR2	8	1	<>	-1	n/a	n/a	0	0	0
188877	REC_WORD	wordpools/wasnorm_wordpool_576.txt	LTP295	ltpFR2	8	1	CRITIC	410	n/a	n/a	0	0	0
207948	REC_WORD	wordpools/wasnorm_wordpool_576.txt	LTP295	ltpFR2	8	1	TUNNEL	1519	n/a	n/a	0	0	0
243980	DISTRACTOR	n/a	LTP295	ltpFR2	8	2	n/a	n/a	n/a	n/a	0	0	0
243980	START	n/a	LTP295	ltpFR2	8	n/a	n/a	n/a	2	n/a	n/a	n/a	n/a
243996	PROB	n/a	LTP295	ltpFR2	8	n/a	n/a	n/a	2	7	1	4	2
245732	PROB	n/a	LTP295	ltpFR2	8	n/a	n/a	n/a	2	11	3	5	3
247283	PROB	n/a	LTP295	ltpFR2	8	n/a	n/a	n/a	2	9	4	2	1
248585	PROB	n/a	LTP295	ltpFR2	8	n/a	n/a	n/a	2	13	6	5	2
250720	PROB	n/a	LTP295	ltpFR2	8	n/a	n/a	n/a	2	18	8	4	6
252722	PROB	n/a	LTP295	ltpFR2	8	n/a	n/a	n/a	2	14	4	9	1
254339	PROB	n/a	LTP295	ltpFR2	8	n/a	n/a	n/a	2	16	6	5	5
255456	PROB	n/a	LTP295	ltpFR2	8	n/a	n/a	n/a	2	20	8	9	3
257225	PROB	n/a	LTP295	ltpFR2	8	n/a	n/a	n/a	2	16	7	4	4
259043	PROB	n/a	LTP295	ltpFR2	8	n/a	n/a	n/a	2	13	9	3	1
262179	PROB	n/a	LTP295	ltpFR2	8	n/a	n/a	n/a	2	8	3	3	2
263880	PROB	n/a	LTP295	ltpFR2	8	n/a	n/a	n/a	2	20	4	7	9
265348	PROB	n/a	LTP295	ltpFR2	8	n/a	n/a	n/a	2	7	1	5	1
266416	PROB	n/a	LTP295	ltpFR2	8	n/a	n/a	n/a	2	15	5	4	6
267892	STOP	n/a	LTP295	ltpFR2	8	n/a	n/a	n/a	2	n/a	n/a	n/a	n/a
269085	WORD	wordpools/wasnorm_wordpool_576.txt	LTP295	ltpFR2	8	2	ZEBRA	1635	n/a	n/a	0	0	0
271688	WORD	wordpools/wasnorm_wordpool_576.txt	LTP295	ltpFR2	8	2	ACTOR	5	n/a	n/a	0	0	0
274456	WORD	wordpools/wasnorm_wordpool_576.txt	LTP295	ltpFR2	8	2	STICKER	1382	n/a	n/a	0	0	0
277275	WORD	wordpools/wasnorm_wordpool_576.txt	LTP295	ltpFR2	8	2	CREVICE	405	n/a	n/a	0	0	0
279729	WORD	wordpools/wasnorm_wordpool_576.txt	LTP295	ltpFR2	8	2	JUNGLE	764	n/a	n/a	0	0	0
282230	WORD	wordpools/wasnorm_wordpool_576.txt	LTP295	ltpFR2	8	2	SALAD	1224	n/a	n/a	0	0	0
285015	WORD	wordpools/wasnorm_wordpool_576.txt	LTP295	ltpFR2	8	2	TORTOISE	1486	n/a	n/a	0	0	0
287769	WORD	wordpools/wasnorm_wordpool_576.txt	LTP295	ltpFR2	8	2	DRAWING	494	n/a	n/a	0	0	0
290504	WORD	wordpools/wasnorm_wordpool_576.txt	LTP295	ltpFR2	8	2	ONION	977	n/a	n/a	0	0	0
293039	WORD	wordpools/wasnorm_wordpool_576.txt	LTP295	ltpFR2	8	2	CIGAR	308	n/a	n/a	0	0	0
295693	WORD	wordpools/wasnorm_wordpool_576.txt	LTP295	ltpFR2	8	2	SCULPTURE	1258	n/a	n/a	0	0	0
298160	WORD	wordpools/wasnorm_wordpool_576.txt	LTP295	ltpFR2	8	2	AWARD	63	n/a	n/a	0	0	0
300814	WORD	wordpools/wasnorm_wordpool_576.txt	LTP295	ltpFR2	8	2	MEDAL	885	n/a	n/a	0	0	0
303365	WORD	wordpools/wasnorm_wordpool_576.txt	LTP295	ltpFR2	8	2	ROBBER	1197	n/a	n/a	0	0	0
306151	WORD	wordpools/wasnorm_wordpool_576.txt	LTP295	ltpFR2	8	2	SUNSET	1408	n/a	n/a	0	0	0
308737	WORD	wordpools/wasnorm_wordpool_576.txt	LTP295	ltpFR2	8	2	PERMIT	1051	n/a	n/a	0	0	0
311523	WORD	wordpools/wasnorm_wordpool_576.txt	LTP295	ltpFR2	8	2	SUBWAY	1400	n/a	n/a	0	0	0
314241	WORD	wordpools/wasnorm_wordpool_576.txt	LTP295	ltpFR2	8	2	DOLPHIN	483	n/a	n/a	0	0	0
317010	WORD	wordpools/wasnorm_wordpool_576.txt	LTP295	ltpFR2	8	2	CRATER	400	n/a	n/a	0	0	0
319846	WORD	wordpools/wasnorm_wordpool_576.txt	LTP295	ltpFR2	8	2	WINDOW	1611	n/a	n/a	0	0	0
322516	WORD	wordpools/wasnorm_wordpool_576.txt	LTP295	ltpFR2	8	2	GLASS	639	n/a	n/a	0	0	0
325000	WORD	wordpools/wasnorm_wordpool_576.txt	LTP295	ltpFR2	8	2	SPOOL	1356	n/a	n/a	0	0	0
327737	WORD	wordpools/wasnorm_wordpool_576.txt	LTP295	ltpFR2	8	2	PIGEON	1065	n/a	n/a	0	0	0
330438	WORD	wordpools/wasnorm_wordpool_576.txt	LTP295	ltpFR2	8	2	TRANSPLANT	1496	n/a	n/a	0	0	0
332057	START	n/a	LTP295	ltpFR2	8	n/a	n/a	n/a	3	n/a	n/a	n/a	n/a
333246	DISTRACTOR	n/a	LTP295	ltpFR2	8	2	n/a	n/a	n/a	n/a	0	0	0
333258	PROB	n/a	LTP295	ltpFR2	8	n/a	n/a	n/a	3	26	7	9	8
335426	PROB	n/a	LTP295	ltpFR2	8	n/a	n/a	n/a	3	18	6	4	8
336894	PROB	n/a	LTP295	ltpFR2	8	n/a	n/a	n/a	3	14	1	6	7
338513	PROB	n/a	LTP295	ltpFR2	8	n/a	n/a	n/a	3	14	7	3	4
340848	PROB	n/a	LTP295	ltpFR2	8	n/a	n/a	n/a	3	11	6	3	2
342567	PROB	n/a	LTP295	ltpFR2	8	n/a	n/a	n/a	3	15	8	5	2
345185	PROB	n/a	LTP295	ltpFR2	8	n/a	n/a	n/a	3	10	6	3	1
346386	PROB	n/a	LTP295	ltpFR2	8	n/a	n/a	n/a	3	13	4	5	4
348722	PROB	n/a	LTP295	ltpFR2	8	n/a	n/a	n/a	3	15	6	1	8
351440	PROB	n/a	LTP295	ltpFR2	8	n/a	n/a	n/a	3	19	6	6	7
353125	PROB	n/a	LTP295	ltpFR2	8	n/a	n/a	n/a	3	19	8	6	5
354704	STOP	n/a	LTP295	ltpFR2	8	n/a	n/a	n/a	3	n/a	n/a	n/a	n/a
358030	REC_START	n/a	LTP295	ltpFR2	8	2	n/a	n/a	n/a	n/a	0	0	0
359660	REC_WORD	wordpools/wasnorm_wordpool_576.txt	LTP295	ltpFR2	8	2	PIGEON	1065	n/a	n/a	0	0	0
360283	REC_WORD	wordpools/wasnorm_wordpool_576.txt	LTP295	ltpFR2	8	2	SPOOL	1356	n/a	n/a	0	0	0
361272	REC_WORD	wordpools/wasnorm_wordpool_576.txt	LTP295	ltpFR2	8	2	TRANSPLANT	1496	n/a	n/a	0	0	0
362272	REC_WORD_VV	wordpools/wasnorm_wordpool_576.txt	LTP295	ltpFR2	8	2	<>	-1	n/a	n/a	0	0	0
363609	REC_WORD	wordpools/wasnorm_wordpool_576.txt	LTP295	ltpFR2	8	2	WINDOW	1611	n/a	n/a	0	0	0
364390	REC_WORD	wordpools/wasnorm_wordpool_576.txt	LTP295	ltpFR2	8	2	GLASS	639	n/a	n/a	0	0	0
365206	REC_WORD	wordpools/wasnorm_wordpool_576.txt	LTP295	ltpFR2	8	2	CRATER	400	n/a	n/a	0	0	0
366623	REC_WORD	wordpools/wasnorm_wordpool_576.txt	LTP295	ltpFR2	8	2	ROBBER	1197	n/a	n/a	0	0	0
367309	REC_WORD	wordpools/wasnorm_wordpool_576.txt	LTP295	ltpFR2	8	2	SUBWAY	1400	n/a	n/a	0	0	0
368208	REC_WORD	wordpools/wasnorm_wordpool_576.txt	LTP295	ltpFR2	8	2	PERMIT	1051	n/a	n/a	0	0	0
369269	REC_WORD	wordpools/wasnorm_wordpool_576.txt	LTP295	ltpFR2	8	2	SUNSET	1408	n/a	n/a	0	0	0
370269	REC_WORD_VV	wordpools/wasnorm_wordpool_576.txt	LTP295	ltpFR2	8	2	<>	-1	n/a	n/a	0	0	0
372424	REC_WORD	wordpools/wasnorm_wordpool_576.txt	LTP295	ltpFR2	8	2	ZEBRA	1635	n/a	n/a	0	0	0
374895	REC_WORD	wordpools/wasnorm_wordpool_576.txt	LTP295	ltpFR2	8	2	AWARD	63	n/a	n/a	0	0	0
375833	REC_WORD	wordpools/wasnorm_wordpool_576.txt	LTP295	ltpFR2	8	2	MEDAL	885	n/a	n/a	0	0	0
378045	REC_WORD	wordpools/wasnorm_wordpool_576.txt	LTP295	ltpFR2	8	2	ACTOR	5	n/a	n/a	0	0	0
378616	REC_WORD	wordpools/wasnorm_wordpool_576.txt	LTP295	ltpFR2	8	2	CIGAR	308	n/a	n/a	0	0	0
379608	REC_WORD	wordpools/wasnorm_wordpool_576.txt	LTP295	ltpFR2	8	2	SALAD	1224	n/a	n/a	0	0	0
380495	REC_WORD	wordpools/wasnorm_wordpool_576.txt	LTP295	ltpFR2	8	2	TORTOISE	1486	n/a	n/a	0	0	0
383135	REC_WORD	wordpools/wasnorm_wordpool_576.txt	LTP295	ltpFR2	8	2	STICKER	1382	n/a	n/a	0	0	0
383997	REC_WORD	wordpools/wasnorm_wordpool_576.txt	LTP295	ltpFR2	8	2	CREVICE	405	n/a	n/a	0	0	0
385051	REC_WORD	wordpools/wasnorm_wordpool_576.txt	LTP295	ltpFR2	8	2	JUNGLE	764	n/a	n/a	0	0	0
448526	DISTRACTOR	n/a	LTP295	ltpFR2	8	3	n/a	n/a	n/a	n/a	0	0	0
448526	START	n/a	LTP295	ltpFR2	8	n/a	n/a	n/a	4	n/a	n/a	n/a	n/a
448542	PROB	n/a	LTP295	ltpFR2	8	n/a	n/a	n/a	4	5	3	1	1
449777	PROB	n/a	LTP295	ltpFR2	8	n/a	n/a	n/a	4	17	8	3	6
451745	PROB	n/a	LTP295	ltpFR2	8	n/a	n/a	n/a	4	14	8	2	4
452895	PROB	n/a	LTP295	ltpFR2	8	n/a	n/a	n/a	4	23	5	9	9
454531	PROB	n/a	LTP295	ltpFR2	8	n/a	n/a	n/a	4	16	2	5	9
456015	PROB	n/a	LTP295	ltpFR2	8	n/a	n/a	n/a	4	12	1	6	5
457149	PROB	n/a	LTP295	ltpFR2	8	n/a	n/a	n/a	4	9	3	4	2
458518	PROB	n/a	LTP295	ltpFR2	8	n/a	n/a	n/a	4	9	1	1	7
459585	PROB	n/a	LTP295	ltpFR2	8	n/a	n/a	n/a	4	9	1	2	6
460820	PROB	n/a	LTP295	ltpFR2	8	n/a	n/a	n/a	4	20	9	2	9
462203	PROB	n/a	LTP295	ltpFR2	8	n/a	n/a	n/a	4	18	7	7	4
463589	PROB	n/a	LTP295	ltpFR2	8	n/a	n/a	n/a	4	14	6	2	6
464807	PROB	n/a	LTP295	ltpFR2	8	n/a	n/a	n/a	4	15	3	6	6
466625	PROB	n/a	LTP295	ltpFR2	8	n/a	n/a	n/a	4	13	4	6	3
469076	PROB	n/a	LTP295	ltpFR2	8	n/a	n/a	n/a	4	17	5	4	9
472526	STOP	n/a	LTP295	ltpFR2	8	n/a	n/a	n/a	4	n/a	n/a	n/a	n/a
473446	WORD	wordpools/wasnorm_wordpool_576.txt	LTP295	ltpFR2	8	3	CHILD	299	n/a	n/a	0	0	0
476199	WORD	wordpools/wasnorm_wordpool_576.txt	LTP295	ltpFR2	8	3	TERMITE	1451	n/a	n/a	0	0	0
478752	WORD	wordpools/wasnorm_wordpool_576.txt	LTP295	ltpFR2	8	3	ROOSTER	1209	n/a	n/a	0	0	0
481320	WORD	wordpools/wasnorm_wordpool_576.txt	LTP295	ltpFR2	8	3	BREAST	171	n/a	n/a	0	0	0
484106	WORD	wordpools/wasnorm_wordpool_576.txt	LTP295	ltpFR2	8	3	MAMMAL	861	n/a	n/a	0	0	0
486659	WORD	wordpools/wasnorm_wordpool_576.txt	LTP295	ltpFR2	8	3	SUPPER	1411	n/a	n/a	0	0	0
489444	WORD	wordpools/wasnorm_wordpool_576.txt	LTP295	ltpFR2	8	3	DONOR	485	n/a	n/a	0	0	0
492230	WORD	wordpools/wasnorm_wordpool_576.txt	LTP295	ltpFR2	8	3	PENGUIN	1044	n/a	n/a	0	0	0
494766	WORD	wordpools/wasnorm_wordpool_576.txt	LTP295	ltpFR2	8	3	FREEZER	604	n/a	n/a	0	0	0
497301	WORD	wordpools/wasnorm_wordpool_576.txt	LTP295	ltpFR2	8	3	COBRA	336	n/a	n/a	0	0	0
499936	WORD	wordpools/wasnorm_wordpool_576.txt	LTP295	ltpFR2	8	3	BUBBLE	183	n/a	n/a	0	0	0
502756	WORD	wordpools/wasnorm_wordpool_576.txt	LTP295	ltpFR2	8	3	HEART	697	n/a	n/a	0	0	0
505509	WORD	wordpools/wasnorm_wordpool_576.txt	LTP295	ltpFR2	8	3	PRINCESS	1125	n/a	n/a	0	0	0
508327	WORD	wordpools/wasnorm_wordpool_576.txt	LTP295	ltpFR2	8	3	COLLEGE	346	n/a	n/a	0	0	0
510929	WORD	wordpools/wasnorm_wordpool_576.txt	LTP295	ltpFR2	8	3	CLOUD	328	n/a	n/a	0	0	0
513532	WORD	wordpools/wasnorm_wordpool_576.txt	LTP295	ltpFR2	8	3	CHIPMUNK	304	n/a	n/a	0	0	0
516100	WORD	wordpools/wasnorm_wordpool_576.txt	LTP295	ltpFR2	8	3	TEMPLE	1448	n/a	n/a	0	0	0
518754	WORD	wordpools/wasnorm_wordpool_576.txt	LTP295	ltpFR2	8	3	STUDENT	1395	n/a	n/a	0	0	0
521405	WORD	wordpools/wasnorm_wordpool_576.txt	LTP295	ltpFR2	8	3	ACTRESS	6	n/a	n/a	0	0	0
524091	WORD	wordpools/wasnorm_wordpool_576.txt	LTP295	ltpFR2	8	3	POPCORN	1104	n/a	n/a	0	0	0
526744	WORD	wordpools/wasnorm_wordpool_576.txt	LTP295	ltpFR2	8	3	PLAID	1080	n/a	n/a	0	0	0
529245	WORD	wordpools/wasnorm_wordpool_576.txt	LTP295	ltpFR2	8	3	DRESS	495	n/a	n/a	0	0	0
531881	WORD	wordpools/wasnorm_wordpool_576.txt	LTP295	ltpFR2	8	3	HIKER	708	n/a	n/a	0	0	0
534483	WORD	wordpools/wasnorm_wordpool_576.txt	LTP295	ltpFR2	8	3	SPACE	1345	n/a	n/a	0	0	0
536101	START	n/a	LTP295	ltpFR2	8	n/a	n/a	n/a	5	n/a	n/a	n/a	n/a
537211	DISTRACTOR	n/a	LTP295	ltpFR2	8	3	n/a	n/a	n/a	n/a	0	0	0
537236	PROB	n/a	LTP295	ltpFR2	8	n/a	n/a	n/a	5	16	4	7	4
540021	PROB	n/a	LTP295	ltpFR2	8	n/a	n/a	n/a	5	14	2	9	3
542940	PROB	n/a	LTP295	ltpFR2	8	n/a	n/a	n/a	5	4	1	1	2
544058	PROB	n/a	LTP295	ltpFR2	8	n/a	n/a	n/a	5	26	8	9	9
545594	PROB	n/a	LTP295	ltpFR2	8	n/a	n/a	n/a	5	17	4	7	6
548345	PROB	n/a	LTP295	ltpFR2	8	n/a	n/a	n/a	5	7	3	3	1
550197	PROB	n/a	LTP295	ltpFR2	8	n/a	n/a	n/a	5	9	2	2	5
551599	PROB	n/a	LTP295	ltpFR2	8	n/a	n/a	n/a	5	17	4	8	5
553500	PROB	n/a	LTP295	ltpFR2	8	n/a	n/a	n/a	5	23	8	9	6
555168	PROB	n/a	LTP295	ltpFR2	8	n/a	n/a	n/a	5	18	8	7	3
560101	STOP	n/a	LTP295	ltpFR2	8	n/a	n/a	n/a	5	n/a	n/a	n/a	n/a
561991	REC_START	n/a	LTP295	ltpFR2	8	3	n/a	n/a	n/a	n/a	0	0	0
563914	REC_WORD	wordpools/wasnorm_wordpool_576.txt	LTP295	ltpFR2	8	3	CHILD	299	n/a	n/a	0	0	0
564618	REC_WORD	wordpools/wasnorm_wordpool_576.txt	LTP295	ltpFR2	8	3	HEART	697	n/a	n/a	0	0	0
565507	REC_WORD	wordpools/wasnorm_wordpool_576.txt	LTP295	ltpFR2	8	3	DONOR	485	n/a	n/a	0	0	0
566356	REC_WORD	wordpools/wasnorm_wordpool_576.txt	LTP295	ltpFR2	8	3	BREAST	171	n/a	n/a	0	0	0
568925	REC_WORD_VV	wordpools/wasnorm_wordpool_576.txt	LTP295	ltpFR2	8	3	<>	-1	n/a	n/a	0	0	0
569868	REC_WORD	wordpools/wasnorm_wordpool_576.txt	LTP295	ltpFR2	8	3	TEMPLE	1448	n/a	n/a	0	0	0
570733	REC_WORD	wordpools/wasnorm_wordpool_576.txt	LTP295	ltpFR2	8	3	POPCORN	1104	n/a	n/a	0	0	0
571733	REC_WORD_VV	wordpools/wasnorm_wordpool_576.txt	LTP295	ltpFR2	8	3	<>	-1	n/a	n/a	0	0	0
572681	REC_WORD	wordpools/wasnorm_wordpool_576.txt	LTP295	ltpFR2	8	3	PRINCESS	1125	n/a	n/a	0	0	0
574968	REC_WORD	wordpools/wasnorm_wordpool_576.txt	LTP295	ltpFR2	8	3	ACTRESS	6	n/a	n/a	0	0	0
575968	REC_WORD_VV	wordpools/wasnorm_wordpool_576.txt	LTP295	ltpFR2	8	3	<>	-1	n/a	n/a	0	0	0
577936	REC_WORD	wordpools/wasnorm_wordpool_576.txt	LTP295	ltpFR2	8	3	HIKER	708	n/a	n/a	0	0	0
579942	REC_WORD	wordpools/wasnorm_wordpool_576.txt	LTP295	ltpFR2	8	3	PLAID	1080	n/a	n/a	0	0	0
580831	REC_WORD	wordpools/wasnorm_wordpool_576.txt	LTP295	ltpFR2	8	3	DRESS	495	n/a	n/a	0	0	0
584522	REC_WORD	wordpools/wasnorm_wordpool_576.txt	LTP295	ltpFR2	8	3	PENGUIN	1044	n/a	n/a	0	0	0
585154	REC_WORD	wordpools/wasnorm_wordpool_576.txt	LTP295	ltpFR2	8	3	COBRA	336	n/a	n/a	0	0	0
585701	REC_WORD	wordpools/wasnorm_wordpool_576.txt	LTP295	ltpFR2	8	3	FREEZER	604	n/a	n/a	0	0	0
586517	REC_WORD	wordpools/wasnorm_wordpool_576.txt	LTP295	ltpFR2	8	3	BUBBLE	183	n/a	n/a	0	0	0
601531	REC_WORD	wordpools/wasnorm_wordpool_576.txt	LTP295	ltpFR2	8	3	TERMITE	1451	n/a	n/a	0	0	0
602486	REC_WORD	wordpools/wasnorm_wordpool_576.txt	LTP295	ltpFR2	8	3	ROOSTER	1209	n/a	n/a	0	0	0
603850	REC_WORD	wordpools/wasnorm_wordpool_576.txt	LTP295	ltpFR2	8	3	SUPPER	1411	n/a	n/a	0	0	0
652654	WORD	wordpools/wasnorm_wordpool_576.txt	LTP295	ltpFR2	8	4	BUCKET	184	n/a	n/a	0	0	0
655305	WORD	wordpools/wasnorm_wordpool_576.txt	LTP295	ltpFR2	8	4	BEAVER	109	n/a	n/a	0	0	0
657791	WORD	wordpools/wasnorm_wordpool_576.txt	LTP295	ltpFR2	8	4	DIME	466	n/a	n/a	0	0	0
660426	WORD	wordpools/wasnorm_wordpool_576.txt	LTP295	ltpFR2	8	4	THRONE	1461	n/a	n/a	0	0	0
663145	WORD	wordpools/wasnorm_wordpool_576.txt	LTP295	ltpFR2	8	4	VIKING	1565	n/a	n/a	0	0	0
665981	WORD	wordpools/wasnorm_wordpool_576.txt	LTP295	ltpFR2	8	4	PATIENT	1024	n/a	n/a	0	0	0
668433	WORD	wordpools/wasnorm_wordpool_576.txt	LTP295	ltpFR2	8	4	XEROX	1628	n/a	n/a	0	0	0
671169	WORD	wordpools/wasnorm_wordpool_576.txt	LTP295	ltpFR2	8	4	PATROL	1027	n/a	n/a	0	0	0
674005	WORD	wordpools/wasnorm_wordpool_576.txt	LTP295	ltpFR2	8	4	HARP	689	n/a	n/a	0	0	0
676541	WORD	wordpools/wasnorm_wordpool_576.txt	LTP295	ltpFR2	8	4	JELLO	754	n/a	n/a	0	0	0
679192	WORD	wordpools/wasnorm_wordpool_576.txt	LTP295	ltpFR2	8	4	PEACH	1031	n/a	n/a	0	0	0
681829	WORD	wordpools/wasnorm_wordpool_576.txt	LTP295	ltpFR2	8	4	CLOCK	325	n/a	n/a	0	0	0
684565	WORD	wordpools/wasnorm_wordpool_576.txt	LTP295	ltpFR2	8	4	SLIDE	1326	n/a	n/a	0	0	0
687183	WORD	wordpools/wasnorm_wordpool_576.txt	LTP295	ltpFR2	8	4	KNAPSACK	783	n/a	n/a	0	0	0
689885	WORD	wordpools/wasnorm_wordpool_576.txt	LTP295	ltpFR2	8	4	SADDLE	1221	n/a	n/a	0	0	0
692454	WORD	wordpools/wasnorm_wordpool_576.txt	LTP295	ltpFR2	8	4	STALLION	1369	n/a	n/a	0	0	0
695106	WORD	wordpools/wasnorm_wordpool_576.txt	LTP295	ltpFR2	8	4	MONEY	908	n/a	n/a	0	0	0
697793	WORD	wordpools/wasnorm_wordpool_576.txt	LTP295	ltpFR2	8	4	POLICE	1098	n/a	n/a	0	0	0
700328	WORD	wordpools/wasnorm_wordpool_576.txt	LTP295	ltpFR2	8	4	PADDLE	1000	n/a	n/a	0	0	0
703063	WORD	wordpools/wasnorm_wordpool_576.txt	LTP295	ltpFR2	8	4	TREAT	1501	n/a	n/a	0	0	0
705633	WORD	wordpools/wasnorm_wordpool_576.txt	LTP295	ltpFR2	8	4	STOVE	1388	n/a	n/a	0	0	0
708201	WORD	wordpools/wasnorm_wordpool_576.txt	LTP295	ltpFR2	8	4	PLASTER	1085	n/a	n/a	0	0	0
710837	WORD	wordpools/wasnorm_wordpool_576.txt	LTP295	ltpFR2	8	4	BRICK	172	n/a	n/a	0	0	0
713322	WORD	wordpools/wasnorm_wordpool_576.txt	LTP295	ltpFR2	8	4	MASK	876	n/a	n/a	0	0	0
714941	START	n/a	LTP295	ltpFR2	8	n/a	n/a	n/a	6	n/a	n/a	n/a	n/a
716117	DISTRACTOR	n/a	LTP295	ltpFR2	8	4	n/a	n/a	n/a	n/a	0	0	0
716125	PROB	n/a	LTP295	ltpFR2	8	n/a	n/a	n/a	6	9	5	2	2
717943	PROB	n/a	LTP295	ltpFR2	8	n/a	n/a	n/a	6	18	8	9	1
719144	PROB	n/a	LTP295	ltpFR2	8	n/a	n/a	n/a	6	10	4	4	2
720696	PROB	n/a	LTP295	ltpFR2	8	n/a	n/a	n/a	6	20	5	7	8
722732	PROB	n/a	LTP295	ltpFR2	8	n/a	n/a	n/a	6	20	5	9	6
725066	PROB	n/a	LTP295	ltpFR2	8	n/a	n/a	n/a	6	11	5	1	5
726635	PROB	n/a	LTP295	ltpFR2	8	n/a	n/a	n/a	6	9	2	4	3
728335	PROB	n/a	LTP295	ltpFR2	8	n/a	n/a	n/a	6	17	7	9	1
729920	PROB	n/a	LTP295	ltpFR2	8	n/a	n/a	n/a	6	15	2	4	9
732807	PROB	n/a	LTP295	ltpFR2	8	n/a	n/a	n/a	6	9	1	5	3
734157	PROB	n/a	LTP295	ltpFR2	8	n/a	n/a	n/a	6	12	6	1	5
735275	PROB	n/a	LTP295	ltpFR2	8	n/a	n/a	n/a	6	16	3	6	7
736860	PROB	n/a	LTP295	ltpFR2	8	n/a	n/a	n/a	6	20	5	9	6
738263	STOP	n/a	LTP295	ltpFR2	8	n/a	n/a	n/a	6	n/a	n/a	n/a	n/a
740897	REC_START	n/a	LTP295	ltpFR2	8	4	n/a	n/a	n/a	n/a	0	0	0
742185	REC_WORD	wordpools/wasnorm_wordpool_576.txt	LTP295	ltpFR2	8	4	PLASTER	1085	n/a	n/a	0	0	0
742995	REC_WORD	wordpools/wasnorm_wordpool_576.txt	LTP295	ltpFR2	8	4	BRICK	172	n/a	n/a	0	0	0
743490	REC_WORD	wordpools/wasnorm_wordpool_576.txt	LTP295	ltpFR2	8	4	STOVE	1388	n/a	n/a	0	0	0
746753	REC_WORD	wordpools/wasnorm_wordpool_576.txt	LTP295	ltpFR2	8	4	KNAPSACK	783	n/a	n/a	0	0	0
747562	REC_WORD	wordpools/wasnorm_wordpool_576.txt	LTP295	ltpFR2	8	4	SADDLE	1221	n/a	n/a	0	0	0
748215	REC_WORD	wordpools/wasnorm_wordpool_576.txt	LTP295	ltpFR2	8	4	STALLION	1369	n/a	n/a	0	0	0
749000	REC_WORD	wordpools/wasnorm_wordpool_576.txt	LTP295	ltpFR2	8	4	PADDLE	1000	n/a	n/a	0	0	0
751833	REC_WORD	wordpools/wasnorm_wordpool_576.txt	LTP295	ltpFR2	8	4	JELLO	754	n/a	n/a	0	0	0
752619	REC_WORD	wordpools/wasnorm_wordpool_576.txt	LTP295	ltpFR2	8	4	CLOCK	325	n/a	n/a	0	0	0
753421	REC_WORD	wordpools/wasnorm_wordpool_576.txt	LTP295	ltpFR2	8	4	PEACH	1031	n/a	n/a	0	0	0
755844	REC_WORD	wordpools/wasnorm_wordpool_576.txt	LTP295	ltpFR2	8	4	POLICE	1098	n/a	n/a	0	0	0
756603	REC_WORD	wordpools/wasnorm_wordpool_576.txt	LTP295	ltpFR2	8	4	PATROL	1027	n/a	n/a	0	0	0
757497	REC_WORD	wordpools/wasnorm_wordpool_576.txt	LTP295	ltpFR2	8	4	VIKING	1565	n/a	n/a	0	0	0
758390	REC_WORD	wordpools/wasnorm_wordpool_576.txt	LTP295	ltpFR2	8	4	HARP	689	n/a	n/a	0	0	0
760390	REC_WORD	wordpools/wasnorm_wordpool_576.txt	LTP295	ltpFR2	8	4	XEROX	1628	n/a	n/a	0	0	0
761400	REC_WORD	wordpools/wasnorm_wordpool_576.txt	LTP295	ltpFR2	8	4	PATIENT	1024	n/a	n/a	0	0	0
762069	REC_WORD	wordpools/wasnorm_wordpool_576.txt	LTP295	ltpFR2	8	4	MASK	876	n/a	n/a	0	0	0
764208	REC_WORD	wordpools/wasnorm_wordpool_576.txt	LTP295	ltpFR2	8	4	SLIDE	1326	n/a	n/a	0	0	0
765134	REC_WORD	wordpools/wasnorm_wordpool_576.txt	LTP295	ltpFR2	8	4	THRONE	1461	n/a	n/a	0	0	0
766134	REC_WORD_VV	wordpools/wasnorm_wordpool_576.txt	LTP295	ltpFR2	8	4	<>	-1	n/a	n/a	0	0	0
767231	REC_WORD	wordpools/wasnorm_wordpool_576.txt	LTP295	ltpFR2	8	4	BEAVER	109	n/a	n/a	0	0	0
768313	REC_WORD	wordpools/wasnorm_wordpool_576.txt	LTP295	ltpFR2	8	4	BUCKET	184	n/a	n/a	0	0	0
770018	REC_WORD	wordpools/wasnorm_wordpool_576.txt	LTP295	ltpFR2	8	4	DIME	466	n/a	n/a	0	0	0
770860	REC_WORD	wordpools/wasnorm_wordpool_576.txt	LTP295	ltpFR2	8	4	MONEY	908	n/a	n/a	0	0	0
814001	REC_WORD	wordpools/wasnorm_wordpool_576.txt	LTP295	ltpFR2	8	4	TREAT	1501	n/a	n/a	0	0	0
831527	DISTRACTOR	n/a	LTP295	ltpFR2	8	5	n/a	n/a	n/a	n/a	0	0	0
831527	START	n/a	LTP295	ltpFR2	8	n/a	n/a	n/a	7	n/a	n/a	n/a	n/a
831560	PROB	n/a	LTP295	ltpFR2	8	n/a	n/a	n/a	7	8	1	6	1
832711	PROB	n/a	LTP295	ltpFR2	8	n/a	n/a	n/a	7	20	8	4	8
834128	PROB	n/a	LTP295	ltpFR2	8	n/a	n/a	n/a	7	13	3	3	7
835412	PROB	n/a	LTP295	ltpFR2	8	n/a	n/a	n/a	7	12	5	2	5
836831	PROB	n/a	LTP295	ltpFR2	8	n/a	n/a	n/a	7	13	2	3	8
839332	PROB	n/a	LTP295	ltpFR2	8	n/a	n/a	n/a	7	20	9	5	6
841752	PROB	n/a	LTP295	ltpFR2	8	n/a	n/a	n/a	7	15	8	1	6
843269	PROB	n/a	LTP295	ltpFR2	8	n/a	n/a	n/a	7	12	1	3	8
844837	PROB	n/a	LTP295	ltpFR2	8	n/a	n/a	n/a	7	12	1	6	5
845988	PROB	n/a	LTP295	ltpFR2	8	n/a	n/a	n/a	7	18	5	7	6
848123	PROB	n/a	LTP295	ltpFR2	8	n/a	n/a	n/a	7	14	9	4	1
849776	PROB	n/a	LTP295	ltpFR2	8	n/a	n/a	n/a	7	11	2	3	6
851711	PROB	n/a	LTP295	ltpFR2	8	n/a	n/a	n/a	7	12	1	8	3
853194	PROB	n/a	LTP295	ltpFR2	8	n/a	n/a	n/a	7	14	7	1	4
855187	STOP	n/a	LTP295	ltpFR2	8	n/a	n/a	n/a	7	n/a	n/a	n/a	n/a
856548	WORD	wordpools/wasnorm_wordpool_576.txt	LTP295	ltpFR2	8	5	HOSTESS	723	n/a	n/a	0	0	0
859283	WORD	wordpools/wasnorm_wordpool_576.txt	LTP295	ltpFR2	8	5	PILOT	1070	n/a	n/a	0	0	0
861753	WORD	wordpools/wasnorm_wordpool_576.txt	LTP295	ltpFR2	8	5	SHELTER	1282	n/a	n/a	0	0	0
864454	WORD	wordpools/wasnorm_wordpool_576.txt	LTP295	ltpFR2	8	5	FRUIT	610	n/a	n/a	0	0	0
867023	WORD	wordpools/wasnorm_wordpool_576.txt	LTP295	ltpFR2	8	5	ARMY	39	n/a	n/a	0	0	0
869643	WORD	wordpools/wasnorm_wordpool_576.txt	LTP295	ltpFR2	8	5	FRECKLE	602	n/a	n/a	0	0	0
872445	WORD	wordpools/wasnorm_wordpool_576.txt	LTP295	ltpFR2	8	5	COUNTY	389	n/a	n/a	0	0	0
875280	WORD	wordpools/wasnorm_wordpool_576.txt	LTP295	ltpFR2	8	5	BEAST	108	n/a	n/a	0	0	0
877767	WORD	wordpools/wasnorm_wordpool_576.txt	LTP295	ltpFR2	8	5	SIBLING	1301	n/a	n/a	0	0	0
880368	WORD	wordpools/wasnorm_wordpool_576.txt	LTP295	ltpFR2	8	5	HEADBAND	696	n/a	n/a	0	0	0
882821	WORD	wordpools/wasnorm_wordpool_576.txt	LTP295	ltpFR2	8	5	OX	994	n/a	n/a	0	0	0
885322	WORD	wordpools/wasnorm_wordpool_576.txt	LTP295	ltpFR2	8	5	LETTUCE	814	n/a	n/a	0	0	0
887875	WORD	wordpools/wasnorm_wordpool_576.txt	LTP295	ltpFR2	8	5	SLIME	1327	n/a	n/a	0	0	0
890645	WORD	wordpools/wasnorm_wordpool_576.txt	LTP295	ltpFR2	8	5	CABIN	211	n/a	n/a	0	0	0
893179	WORD	wordpools/wasnorm_wordpool_576.txt	LTP295	ltpFR2	8	5	BOX	159	n/a	n/a	0	0	0
895932	WORD	wordpools/wasnorm_wordpool_576.txt	LTP295	ltpFR2	8	5	FRAME	600	n/a	n/a	0	0	0
898434	WORD	wordpools/wasnorm_wordpool_576.txt	LTP295	ltpFR2	8	5	AIRPORT	13	n/a	n/a	0	0	0
901053	WORD	wordpools/wasnorm_wordpool_576.txt	LTP295	ltpFR2	8	5	DONKEY	484	n/a	n/a	0	0	0
903656	WORD	wordpools/wasnorm_wordpool_576.txt	LTP295	ltpFR2	8	5	SILK	1307	n/a	n/a	0	0	0
906341	WORD	wordpools/wasnorm_wordpool_576.txt	LTP295	ltpFR2	8	5	VELVET	1555	n/a	n/a	0	0	0
908993	WORD	wordpools/wasnorm_wordpool_576.txt	LTP295	ltpFR2	8	5	LOVER	846	n/a	n/a	0	0	0
911613	WORD	wordpools/wasnorm_wordpool_576.txt	LTP295	ltpFR2	8	5	GAVEL	627	n/a	n/a	0	0	0
914431	WORD	wordpools/wasnorm_wordpool_576.txt	LTP295	ltpFR2	8	5	VICTIM	1562	n/a	n/a	0	0	0
917000	WORD	wordpools/wasnorm_wordpool_576.txt	LTP295	ltpFR2	8	5	KIDNEY	776	n/a	n/a	0	0	0
918619	START	n/a	LTP295	ltpFR2	8	n/a	n/a	n/a	8	n/a	n/a	n/a	n/a
919606	DISTRACTOR	n/a	LTP295	ltpFR2	8	5	n/a	n/a	n/a	n/a	0	0	0
919620	PROB	n/a	LTP295	ltpFR2	8	n/a	n/a	n/a	8	16	8	5	3
921789	PROB	n/a	LTP295	ltpFR2	8	n/a	n/a	n/a	8	12	3	6	3
923439	PROB	n/a	LTP295	ltpFR2	8	n/a	n/a	n/a	8	22	5	8	9
926125	PROB	n/a	LTP295	ltpFR2	8	n/a	n/a	n/a	8	17	7	6	4
928528	PROB	n/a	LTP295	ltpFR2	8	n/a	n/a	n/a	8	12	3	7	2
929961	PROB	n/a	LTP295	ltpFR2	8	n/a	n/a	n/a	8	12	5	6	1
931112	PROB	n/a	LTP295	ltpFR2	8	n/a	n/a	n/a	8	22	9	5	8
933264	PROB	n/a	LTP295	ltpFR2	8	n/a	n/a	n/a	8	17	5	8	4
937586	PROB	n/a	LTP295	ltpFR2	8	n/a	n/a	n/a	8	13	9	3	1
939870	PROB	n/a	LTP295	ltpFR2	8	n/a	n/a	n/a	8	11	1	1	9
942619	STOP	n/a	LTP295	ltpFR2	8	n/a	n/a	n/a	8	n/a	n/a	n/a	n/a
944408	REC_START	n/a	LTP295	ltpFR2	8	5	n/a	n/a	n/a	n/a	0	0	0
947319	REC_WORD	wordpools/wasnorm_wordpool_576.txt	LTP295	ltpFR2	8	5	HOSTESS	723	n/a	n/a	0	0	0
948183	REC_WORD	wordpools/wasnorm_wordpool_576.txt	LTP295	ltpFR2	8	5	FRECKLE	602	n/a	n/a	0	0	0
948850	REC_WORD	wordpools/wasnorm_wordpool_576.txt	LTP295	ltpFR2	8	5	HEADBAND	696	n/a	n/a	0	0	0
949658	REC_WORD	wordpools/wasnorm_wordpool_576.txt	LTP295	ltpFR2	8	5	SILK	1307	n/a	n/a	0	0	0
950225	REC_WORD	wordpools/wasnorm_wordpool_576.txt	LTP295	ltpFR2	8	5	VELVET	1555	n/a	n/a	0	0	0
951644	REC_WORD	wordpools/wasnorm_wordpool_576.txt	LTP295	ltpFR2	8	5	SHELTER	1282	n/a	n/a	0	0	0
952317	REC_WORD	wordpools/wasnorm_wordpool_576.txt	LTP295	ltpFR2	8	5	CABIN	211	n/a	n/a	0	0	0
953435	REC_WORD	wordpools/wasnorm_wordpool_576.txt	LTP295	ltpFR2	8	5	FRUIT	610	n/a	n/a	0	0	0
954281	REC_WORD	wordpools/wasnorm_wordpool_576.txt	LTP295	ltpFR2	8	5	COUNTY	389	n/a	n/a	0	0	0
956454	REC_WORD	wordpools/wasnorm_wordpool_576.txt	LTP295	ltpFR2	8	5	ARMY	39	n/a	n/a	0	0	0
957983	REC_WORD	wordpools/wasnorm_wordpool_576.txt	LTP295	ltpFR2	8	5	BEAST	108	n/a	n/a	0	0	0
958613	REC_WORD	wordpools/wasnorm_wordpool_576.txt	LTP295	ltpFR2	8	5	LOVER	846	n/a	n/a	0	0	0
959274	REC_WORD	wordpools/wasnorm_wordpool_576.txt	LTP295	ltpFR2	8	5	SIBLING	1301	n/a	n/a	0	0	0
960274	REC_WORD_VV	wordpools/wasnorm_wordpool_576.txt	LTP295	ltpFR2	8	5	<>	-1	n/a	n/a	0	0	0
969728	REC_WORD	wordpools/wasnorm_wordpool_576.txt	LTP295	ltpFR2	8	5	OX	994	n/a	n/a	0	0	0
970512	REC_WORD	wordpools/wasnorm_wordpool_576.txt	LTP295	ltpFR2	8	5	LETTUCE	814	n/a	n/a	0	0	0
971233	REC_WORD	wordpools/wasnorm_wordpool_576.txt	LTP295	ltpFR2	8	5	SLIME	1327	n/a	n/a	0	0	0
972233	REC_WORD_VV	wordpools/wasnorm_wordpool_576.txt	LTP295	ltpFR2	8	5	<>	-1	n/a	n/a	0	0	0
1034953	WORD	wordpools/wasnorm_wordpool_576.txt	LTP295	ltpFR2	8	6	OUTDOORS	987	n/a	n/a	0	0	0
1037606	WORD	wordpools/wasnorm_wordpool_576.txt	LTP295	ltpFR2	8	6	WOMAN	1620	n/a	n/a	0	0	0
1040424	WORD	wordpools/wasnorm_wordpool_576.txt	LTP295	ltpFR2	8	6	LONDON	843	n/a	n/a	0	0	0
1043227	WORD	wordpools/wasnorm_wordpool_576.txt	LTP295	ltpFR2	8	6	LEG	809	n/a	n/a	0	0	0
1045929	WORD	wordpools/wasnorm_wordpool_576.txt	LTP295	ltpFR2	8	6	TOURIST	1488	n/a	n/a	0	0	0
1048431	WORD	wordpools/wasnorm_wordpool_576.txt	LTP295	ltpFR2	8	6	SUITCASE	1403	n/a	n/a	0	0	0
1051033	WORD	wordpools/wasnorm_wordpool_576.txt	LTP295	ltpFR2	8	6	PUDDING	1139	n/a	n/a	0	0	0
1053587	WORD	wordpools/wasnorm_wordpool_576.txt	LTP295	ltpFR2	8	6	ELBOW	520	n/a	n/a	0	0	0
1056105	WORD	wordpools/wasnorm_wordpool_576.txt	LTP295	ltpFR2	8	6	COLONEL	348	n/a	n/a	0	0	0
1058940	WORD	wordpools/wasnorm_wordpool_576.txt	LTP295	ltpFR2	8	6	WITNESS	1618	n/a	n/a	0	0	0
1061677	WORD	wordpools/wasnorm_wordpool_576.txt	LTP295	ltpFR2	8	6	FOREST	593	n/a	n/a	0	0	0
1064178	WORD	wordpools/wasnorm_wordpool_576.txt	LTP295	ltpFR2	8	6	PIANO	1057	n/a	n/a	0	0	0
1066964	WORD	wordpools/wasnorm_wordpool_576.txt	LTP295	ltpFR2	8	6	TILE	1468	n/a	n/a	0	0	0
1069634	WORD	wordpools/wasnorm_wordpool_576.txt	LTP295	ltpFR2	8	6	BATHTUB	100	n/a	n/a	0	0	0
1072419	WORD	wordpools/wasnorm_wordpool_576.txt	LTP295	ltpFR2	8	6	AIRPLANE	12	n/a	n/a	0	0	0
1074904	WORD	wordpools/wasnorm_wordpool_576.txt	LTP295	ltpFR2	8	6	GUITAR	670	n/a	n/a	0	0	0
1077390	WORD	wordpools/wasnorm_wordpool_576.txt	LTP295	ltpFR2	8	6	WHISTLE	1606	n/a	n/a	0	0	0
1080159	WORD	wordpools/wasnorm_wordpool_576.txt	LTP295	ltpFR2	8	6	DRESSER	496	n/a	n/a	0	0	0
1082845	WORD	wordpools/wasnorm_wordpool_576.txt	LTP295	ltpFR2	8	6	MARS	873	n/a	n/a	0	0	0
1085681	WORD	wordpools/wasnorm_wordpool_576.txt	LTP295	ltpFR2	8	6	SHERIFF	1284	n/a	n/a	0	0	0
1088216	WORD	wordpools/wasnorm_wordpool_576.txt	LTP295	ltpFR2	8	6	BADGE	68	n/a	n/a	0	0	0
1090835	WORD	wordpools/wasnorm_wordpool_576.txt	LTP295	ltpFR2	8	6	RATTLE	1170	n/a	n/a	0	0	0
1093454	WORD	wordpools/wasnorm_wordpool_576.txt	LTP295	ltpFR2	8	6	LUMBER	848	n/a	n/a	0	0	0
1096273	WORD	wordpools/wasnorm_wordpool_576.txt	LTP295	ltpFR2	8	6	MARINE	869	n/a	n/a	0	0	0
1097891	START	n/a	LTP295	ltpFR2	8	n/a	n/a	n/a	9	n/a	n/a	n/a	n/a
1098949	DISTRACTOR	n/a	LTP295	ltpFR2	8	6	n/a	n/a	n/a	n/a	0	0	0
1098975	PROB	n/a	LTP295	ltpFR2	8	n/a	n/a	n/a	9	19	6	4	9
1100844	PROB	n/a	LTP295	ltpFR2	8	n/a	n/a	n/a	9	18	5	4	9
1102345	PROB	n/a	LTP295	ltpFR2	8	n/a	n/a	n/a	9	19	5	9	5
1103996	PROB	n/a	LTP295	ltpFR2	8	n/a	n/a	n/a	9	11	3	1	7
1105231	PROB	n/a	LTP295	ltpFR2	8	n/a	n/a	n/a	9	19	9	6	4
1106966	PROB	n/a	LTP295	ltpFR2	8	n/a	n/a	n/a	9	18	7	9	2
1108818	PROB	n/a	LTP295	ltpFR2	8	n/a	n/a	n/a	9	20	8	4	8
1110653	PROB	n/a	LTP295	ltpFR2	8	n/a	n/a	n/a	9	13	6	1	6
1112003	PROB	n/a	LTP295	ltpFR2	8	n/a	n/a	n/a	9	14	9	2	3
1113539	PROB	n/a	LTP295	ltpFR2	8	n/a	n/a	n/a	9	22	9	7	6
1116491	PROB	n/a	LTP295	ltpFR2	8	n/a	n/a	n/a	9	9	7	1	1
1117576	PROB	n/a	LTP295	ltpFR2	8	n/a	n/a	n/a	9	19	5	9	5
1119026	PROB	n/a	LTP295	ltpFR2	8	n/a	n/a	n/a	9	18	5	5	8
1120647	STOP	n/a	LTP295	ltpFR2	8	n/a	n/a	n/a	9	n/a	n/a	n/a	n/a
1123864	REC_START	n/a	LTP295	ltpFR2	8	6	n/a	n/a	n/a	n/a	0	0	0
1125065	REC_WORD	wordpools/wasnorm_wordpool_576.txt	LTP295	ltpFR2	8	6	COLONEL	348	n/a	n/a	0	0	0
1125725	REC_WORD	wordpools/wasnorm_wordpool_576.txt	LTP295	ltpFR2	8	6	SHERIFF	1284	n/a	n/a	0	0	0
1126529	REC_WORD	wordpools/wasnorm_wordpool_576.txt	LTP295	ltpFR2	8	6	BADGE	68	n/a	n/a	0	0	0
1127199	REC_WORD	wordpools/wasnorm_wordpool_576.txt	LTP295	ltpFR2	8	6	PIANO	1057	n/a	n/a	0	0	0
1127993	REC_WORD	wordpools/wasnorm_wordpool_576.txt	LTP295	ltpFR2	8	6	TILE	1468	n/a	n/a	0	0	0
1128647	REC_WORD	wordpools/wasnorm_wordpool_576.txt	LTP295	ltpFR2	8	6	BATHTUB	100	n/a	n/a	0	0	0
1130457	REC_WORD	wordpools/wasnorm_wordpool_576.txt	LTP295	ltpFR2	8	6	DRESSER	496	n/a	n/a	0	0	0
1131077	REC_WORD	wordpools/wasnorm_wordpool_576.txt	LTP295	ltpFR2	8	6	LUMBER	848	n/a	n/a	0	0	0
1133222	REC_WORD	wordpools/wasnorm_wordpool_576.txt	LTP295	ltpFR2	8	6	GUITAR	670	n/a	n/a	0	0	0
1134009	REC_WORD	wordpools/wasnorm_wordpool_576.txt	LTP295	ltpFR2	8	6	WHISTLE	1606	n/a	n/a	0	0	0
1134650	REC_WORD	wordpools/wasnorm_wordpool_576.txt	LTP295	ltpFR2	8	6	RATTLE	1170	n/a	n/a	0	0	0
1138668	REC_WORD	wordpools/wasnorm_wordpool_576.txt	LTP295	ltpFR2	8	6	TOURIST	1488	n/a	n/a	0	0	0
1139668	REC_WORD_VV	wordpools/wasnorm_wordpool_576.txt	LTP295	ltpFR2	8	6	<>	-1	n/a	n/a	0	0	0
1140132	REC_WORD	wordpools/wasnorm_wordpool_576.txt	LTP295	ltpFR2	8	6	WOMAN	1620	n/a	n/a	0	0	0
1141689	REC_WORD	wordpools/wasnorm_wordpool_576.txt	LTP295	ltpFR2	8	6	LEG	809	n/a	n/a	0	0	0
1142364	REC_WORD	wordpools/wasnorm_wordpool_576.txt	LTP295	ltpFR2	8	6	ELBOW	520	n/a	n/a	0	0	0
1143210	REC_WORD	wordpools/wasnorm_wordpool_576.txt	LTP295	ltpFR2	8	6	SUITCASE	1403	n/a	n/a	0	0	0
1144210	REC_WORD_VV	wordpools/wasnorm_wordpool_576.txt	LTP295	ltpFR2	8	6	<>	-1	n/a	n/a	0	0	0
1145146	REC_WORD	wordpools/wasnorm_wordpool_576.txt	LTP295	ltpFR2	8	6	FOREST	593	n/a	n/a	0	0	0
1146146	REC_WORD_VV	wordpools/wasnorm_wordpool_576.txt	LTP295	ltpFR2	8	6	<>	-1	n/a	n/a	0	0	0
1146376	REC_WORD	wordpools/wasnorm_wordpool_576.txt	LTP295	ltpFR2	8	6	OUTDOORS	987	n/a	n/a	0	0	0
1147376	REC_WORD_VV	wordpools/wasnorm_wordpool_576.txt	LTP295	ltpFR2	8	6	<>	-1	n/a	n/a	0	0	0
1150607	REC_WORD	wordpools/wasnorm_wordpool_576.txt	LTP295	ltpFR2	8	6	LONDON	843	n/a	n/a	0	0	0
1151607	REC_WORD_VV	wordpools/wasnorm_wordpool_576.txt	LTP295	ltpFR2	8	6	<>	-1	n/a	n/a	0	0	0
1153550	REC_WORD	wordpools/wasnorm_wordpool_576.txt	LTP295	ltpFR2	8	6	PUDDING	1139	n/a	n/a	0	0	0
1154513	REC_WORD	wordpools/wasnorm_wordpool_576.txt	LTP295	ltpFR2	8	6	MARS	873	n/a	n/a	0	0	0
1155513	REC_WORD_VV	wordpools/wasnorm_wordpool_576.txt	LTP295	ltpFR2	8	6	<>	-1	n/a	n/a	0	0	0
1214326	WORD	wordpools/wasnorm_wordpool_576.txt	LTP295	ltpFR2	8	7	BRACES	164	n/a	n/a	0	0	0
1217095	WORD	wordpools/wasnorm_wordpool_576.txt	LTP295	ltpFR2	8	7	SNAIL	1332	n/a	n/a	0	0	0
1219565	WORD	wordpools/wasnorm_wordpool_576.txt	LTP295	ltpFR2	8	7	BLENDER	136	n/a	n/a	0	0	0
1222016	WORD	wordpools/wasnorm_wordpool_576.txt	LTP295	ltpFR2	8	7	FOX	598	n/a	n/a	0	0	0
1224536	WORD	wordpools/wasnorm_wordpool_576.txt	LTP295	ltpFR2	8	7	LACE	792	n/a	n/a	0	0	0
1227204	WORD	wordpools/wasnorm_wordpool_576.txt	LTP295	ltpFR2	8	7	BOUQUET	157	n/a	n/a	0	0	0
1229740	WORD	wordpools/wasnorm_wordpool_576.txt	LTP295	ltpFR2	8	7	HERO	706	n/a	n/a	0	0	0
1232475	WORD	wordpools/wasnorm_wordpool_576.txt	LTP295	ltpFR2	8	7	NIGHTGOWN	953	n/a	n/a	0	0	0
1235194	WORD	wordpools/wasnorm_wordpool_576.txt	LTP295	ltpFR2	8	7	PLAYGROUND	1087	n/a	n/a	0	0	0
1237913	WORD	wordpools/wasnorm_wordpool_576.txt	LTP295	ltpFR2	8	7	SLUG	1329	n/a	n/a	0	0	0
1240516	WORD	wordpools/wasnorm_wordpool_576.txt	LTP295	ltpFR2	8	7	BLUEPRINT	142	n/a	n/a	0	0	0
1243268	WORD	wordpools/wasnorm_wordpool_576.txt	LTP295	ltpFR2	8	7	SCISSORS	1250	n/a	n/a	0	0	0
1245721	WORD	wordpools/wasnorm_wordpool_576.txt	LTP295	ltpFR2	8	7	SODA	1341	n/a	n/a	0	0	0
1248389	WORD	wordpools/wasnorm_wordpool_576.txt	LTP295	ltpFR2	8	7	HONEY	713	n/a	n/a	0	0	0
1250958	WORD	wordpools/wasnorm_wordpool_576.txt	LTP295	ltpFR2	8	7	TURTLE	1522	n/a	n/a	0	0	0
1253407	WORD	wordpools/wasnorm_wordpool_576.txt	LTP295	ltpFR2	8	7	MATTRESS	879	n/a	n/a	0	0	0
1256132	WORD	wordpools/wasnorm_wordpool_576.txt	LTP295	ltpFR2	8	7	LOFT	840	n/a	n/a	0	0	0
1258711	WORD	wordpools/wasnorm_wordpool_576.txt	LTP295	ltpFR2	8	7	EAGLE	512	n/a	n/a	0	0	0
1261437	WORD	wordpools/wasnorm_wordpool_576.txt	LTP295	ltpFR2	8	7	POET	1095	n/a	n/a	0	0	0
1264189	WORD	wordpools/wasnorm_wordpool_576.txt	LTP295	ltpFR2	8	7	FLEET	578	n/a	n/a	0	0	0
1266785	WORD	wordpools/wasnorm_wordpool_576.txt	LTP295	ltpFR2	8	7	SKILLET	1317	n/a	n/a	0	0	0
1269244	WORD	wordpools/wasnorm_wordpool_576.txt	LTP295	ltpFR2	8	7	GROUND	666	n/a	n/a	0	0	0
1271955	WORD	wordpools/wasnorm_wordpool_576.txt	LTP295	ltpFR2	8	7	MARSH	874	n/a	n/a	0	0	0
1274716	WORD	wordpools/wasnorm_wordpool_576.txt	LTP295	ltpFR2	8	7	BALLOON	75	n/a	n/a	0	0	0
1276325	START	n/a	LTP295	ltpFR2	8	n/a	n/a	n/a	10	n/a	n/a	n/a	n/a
1277348	DISTRACTOR	n/a	LTP295	ltpFR2	8	7	n/a	n/a	n/a	n/a	0	0	0
1277359	PROB	n/a	LTP295	ltpFR2	8	n/a	n/a	n/a	10	15	5	9	1
1280243	PROB	n/a	LTP295	ltpFR2	8	n/a	n/a	n/a	10	12	3	7	2
1281462	PROB	n/a	LTP295	ltpFR2	8	n/a	n/a	n/a	10	19	3	9	7
1284030	PROB	n/a	LTP295	ltpFR2	8	n/a	n/a	n/a	10	11	3	7	1
1285532	PROB	n/a	LTP295	ltpFR2	8	n/a	n/a	n/a	10	19	5	6	8
1287482	PROB	n/a	LTP295	ltpFR2	8	n/a	n/a	n/a	10	13	7	4	2
1289167	PROB	n/a	LTP295	ltpFR2	8	n/a	n/a	n/a	10	10	2	1	7
1290586	PROB	n/a	LTP295	ltpFR2	8	n/a	n/a	n/a	10	14	8	5	1
1293172	PROB	n/a	LTP295	ltpFR2	8	n/a	n/a	n/a	10	16	8	7	1
1295306	PROB	n/a	LTP295	ltpFR2	8	n/a	n/a	n/a	10	16	6	6	4
1297759	PROB	n/a	LTP295	ltpFR2	8	n/a	n/a	n/a	10	15	9	5	1
1299429	STOP	n/a	LTP295	ltpFR2	8	n/a	n/a	n/a	10	n/a	n/a	n/a	n/a
1302178	REC_START	n/a	LTP295	ltpFR2	8	7	n/a	n/a	n/a	n/a	0	0	0
1305303	REC_WORD	wordpools/wasnorm_wordpool_576.txt	LTP295	ltpFR2	8	7	FOX	598	n/a	n/a	0	0	0
1306084	REC_WORD	wordpools/wasnorm_wordpool_576.txt	LTP295	ltpFR2	8	7	HERO	706	n/a	n/a	0	0	0
1309361	REC_WORD	wordpools/wasnorm_wordpool_576.txt	LTP295	ltpFR2	8	7	LACE	792	n/a	n/a	0	0	0
1309950	REC_WORD	wordpools/wasnorm_wordpool_576.txt	LTP295	ltpFR2	8	7	NIGHTGOWN	953	n/a	n/a	0	0	0
1310950	REC_WORD_VV	wordpools/wasnorm_wordpool_576.txt	LTP295	ltpFR2	8	7	<>	-1	n/a	n/a	0	0	0
1311754	REC_WORD	wordpools/wasnorm_wordpool_576.txt	LTP295	ltpFR2	8	7	BOUQUET	157	n/a	n/a	0	0	0
1313367	REC_WORD	wordpools/wasnorm_wordpool_576.txt	LTP295	ltpFR2	8	7	MATTRESS	879	n/a	n/a	0	0	0
1314005	REC_WORD	wordpools/wasnorm_wordpool_576.txt	LTP295	ltpFR2	8	7	LOFT	840	n/a	n/a	0	0	0
1314614	REC_WORD	wordpools/wasnorm_wordpool_576.txt	LTP295	ltpFR2	8	7	MARSH	874	n/a	n/a	0	0	0
1315336	REC_WORD	wordpools/wasnorm_wordpool_576.txt	LTP295	ltpFR2	8	7	GROUND	666	n/a	n/a	0	0	0
1315973	REC_WORD	wordpools/wasnorm_wordpool_576.txt	LTP295	ltpFR2	8	7	PLAYGROUND	1087	n/a	n/a	0	0	0
1316973	REC_WORD_VV	wordpools/wasnorm_wordpool_576.txt	LTP295	ltpFR2	8	7	<>	-1	n/a	n/a	0	0	0
1318088	REC_WORD	wordpools/wasnorm_wordpool_576.txt	LTP295	ltpFR2	8	7	EAGLE	512	n/a	n/a	0	0	0
1318677	REC_WORD	wordpools/wasnorm_wordpool_576.txt	LTP295	ltpFR2	8	7	FLEET	578	n/a	n/a	0	0	0
1319541	REC_WORD	wordpools/wasnorm_wordpool_576.txt	LTP295	ltpFR2	8	7	POET	1095	n/a	n/a	0	0	0
1322146	REC_WORD	wordpools/wasnorm_wordpool_576.txt	LTP295	ltpFR2	8	7	SCISSORS	1250	n/a	n/a	0	0	0
1323235	REC_WORD	wordpools/wasnorm_wordpool_576.txt	LTP295	ltpFR2	8	7	HONEY	713	n/a	n/a	0	0	0
1323839	REC_WORD	wordpools/wasnorm_wordpool_576.txt	LTP295	ltpFR2	8	7	SODA	1341	n/a	n/a	0	0	0
1324630	REC_WORD	wordpools/wasnorm_wordpool_576.txt	LTP295	ltpFR2	8	7	BLUEPRINT	142	n/a	n/a	0	0	0
1326931	REC_WORD	wordpools/wasnorm_wordpool_576.txt	LTP295	ltpFR2	8	7	BRACES	164	n/a	n/a	0	0	0
1327931	REC_WORD_VV	wordpools/wasnorm_wordpool_576.txt	LTP295	ltpFR2	8	7	<>	-1	n/a	n/a	0	0	0
1328674	REC_WORD	wordpools/wasnorm_wordpool_576.txt	LTP295	ltpFR2	8	7	SLUG	1329	n/a	n/a	0	0	0
1329378	REC_WORD	wordpools/wasnorm_wordpool_576.txt	LTP295	ltpFR2	8	7	SNAIL	1332	n/a	n/a	0	0	0
1330238	REC_WORD	wordpools/wasnorm_wordpool_576.txt	LTP295	ltpFR2	8	7	TURTLE	1522	n/a	n/a	0	0	0
1331019	REC_WORD	wordpools/wasnorm_wordpool_576.txt	LTP295	ltpFR2	8	7	BLENDER	136	n/a	n/a	0	0	0
1392636	DISTRACTOR	n/a	LTP295	ltpFR2	8	8	n/a	n/a	n/a	n/a	0	0	0
1392636	START	n/a	LTP295	ltpFR2	8	n/a	n/a	n/a	11	n/a	n/a	n/a	n/a
1392652	PROB	n/a	LTP295	ltpFR2	8	n/a	n/a	n/a	11	19	9	6	4
1394170	PROB	n/a	LTP295	ltpFR2	8	n/a	n/a	n/a	11	10	1	3	6
1395587	PROB	n/a	LTP295	ltpFR2	8	n/a	n/a	n/a	11	11	1	2	8
1396837	PROB	n/a	LTP295	ltpFR2	8	n/a	n/a	n/a	11	17	6	3	8
1398523	PROB	n/a	LTP295	ltpFR2	8	n/a	n/a	n/a	11	25	9	8	8
1400223	PROB	n/a	LTP295	ltpFR2	8	n/a	n/a	n/a	11	20	5	8	7
1402759	PROB	n/a	LTP295	ltpFR2	8	n/a	n/a	n/a	11	16	7	4	5
1404578	PROB	n/a	LTP295	ltpFR2	8	n/a	n/a	n/a	11	13	5	4	4
1406228	PROB	n/a	LTP295	ltpFR2	8	n/a	n/a	n/a	11	9	1	3	5
1408765	PROB	n/a	LTP295	ltpFR2	8	n/a	n/a	n/a	11	22	8	8	6
1410599	PROB	n/a	LTP295	ltpFR2	8	n/a	n/a	n/a	11	22	8	7	7
1413067	PROB	n/a	LTP295	ltpFR2	8	n/a	n/a	n/a	11	4	2	1	1
1414084	PROB	n/a	LTP295	ltpFR2	8	n/a	n/a	n/a	11	14	9	1	4
1415795	STOP	n/a	LTP295	ltpFR2	8	n/a	n/a	n/a	11	n/a	n/a	n/a	n/a
1417708	WORD	wordpools/wasnorm_wordpool_576.txt	LTP295	ltpFR2	8	8	HEDGE	699	n/a	n/a	0	0	0
1420173	WORD	wordpools/wasnorm_wordpool_576.txt	LTP295	ltpFR2	8	8	ASIA	46	n/a	n/a	0	0	0
1422677	WORD	wordpools/wasnorm_wordpool_576.txt	LTP295	ltpFR2	8	8	FLESH	579	n/a	n/a	0	0	0
1425195	WORD	wordpools/wasnorm_wordpool_576.txt	LTP295	ltpFR2	8	8	RADISH	1158	n/a	n/a	0	0	0
1427913	WORD	wordpools/wasnorm_wordpool_576.txt	LTP295	ltpFR2	8	8	TART	1436	n/a	n/a	0	0	0
1430332	WORD	wordpools/wasnorm_wordpool_576.txt	LTP295	ltpFR2	8	8	PECAN	1036	n/a	n/a	0	0	0
1433084	WORD	wordpools/wasnorm_wordpool_576.txt	LTP295	ltpFR2	8	8	GREASE	660	n/a	n/a	0	0	0
1435537	WORD	wordpools/wasnorm_wordpool_576.txt	LTP295	ltpFR2	8	8	RECEIPT	1173	n/a	n/a	0	0	0
1438338	WORD	wordpools/wasnorm_wordpool_576.txt	LTP295	ltpFR2	8	8	CONTRACT	368	n/a	n/a	0	0	0
1440775	WORD	wordpools/wasnorm_wordpool_576.txt	LTP295	ltpFR2	8	8	PANTHER	1009	n/a	n/a	0	0	0
1443560	WORD	wordpools/wasnorm_wordpool_576.txt	LTP295	ltpFR2	8	8	GUARD	667	n/a	n/a	0	0	0
1446161	WORD	wordpools/wasnorm_wordpool_576.txt	LTP295	ltpFR2	8	8	CANYON	235	n/a	n/a	0	0	0
1448798	WORD	wordpools/wasnorm_wordpool_576.txt	LTP295	ltpFR2	8	8	BLOUSE	139	n/a	n/a	0	0	0
1451449	WORD	wordpools/wasnorm_wordpool_576.txt	LTP295	ltpFR2	8	8	COMPASS	358	n/a	n/a	0	0	0
1454155	WORD	wordpools/wasnorm_wordpool_576.txt	LTP295	ltpFR2	8	8	AUTHOR	61	n/a	n/a	0	0	0
1456887	WORD	wordpools/wasnorm_wordpool_576.txt	LTP295	ltpFR2	8	8	NOVEL	960	n/a	n/a	0	0	0
1459627	WORD	wordpools/wasnorm_wordpool_576.txt	LTP295	ltpFR2	8	8	SUMMIT	1405	n/a	n/a	0	0	0
1462441	WORD	wordpools/wasnorm_wordpool_576.txt	LTP295	ltpFR2	8	8	BRANCH	168	n/a	n/a	0	0	0
1464942	WORD	wordpools/wasnorm_wordpool_576.txt	LTP295	ltpFR2	8	8	CUSTARD	429	n/a	n/a	0	0	0
1467701	WORD	wordpools/wasnorm_wordpool_576.txt	LTP295	ltpFR2	8	8	BELLY	119	n/a	n/a	0	0	0
1470498	WORD	wordpools/wasnorm_wordpool_576.txt	LTP295	ltpFR2	8	8	WIDOW	1608	n/a	n/a	0	0	0
1473072	WORD	wordpools/wasnorm_wordpool_576.txt	LTP295	ltpFR2	8	8	TOMBSTONE	1478	n/a	n/a	0	0	0
1475691	WORD	wordpools/wasnorm_wordpool_576.txt	LTP295	ltpFR2	8	8	FLAG	573	n/a	n/a	0	0	0
1478371	WORD	wordpools/wasnorm_wordpool_576.txt	LTP295	ltpFR2	8	8	MESSAGE	888	n/a	n/a	0	0	0
1479978	START	n/a	LTP295	ltpFR2	8	n/a	n/a	n/a	12	n/a	n/a	n/a	n/a
1481123	DISTRACTOR	n/a	LTP295	ltpFR2	8	8	n/a	n/a	n/a	n/a	0	0	0
1481128	PROB	n/a	LTP295	ltpFR2	8	n/a	n/a	n/a	12	26	9	8	9
1483039	PROB	n/a	LTP295	ltpFR2	8	n/a	n/a	n/a	12	10	7	2	1
1484924	PROB	n/a	LTP295	ltpFR2	8	n/a	n/a	n/a	12	8	1	1	6
1486041	PROB	n/a	LTP295	ltpFR2	8	n/a	n/a	n/a	12	8	3	2	3
1487761	PROB	n/a	LTP295	ltpFR2	8	n/a	n/a	n/a	12	19	8	3	8
1489645	PROB	n/a	LTP295	ltpFR2	8	n/a	n/a	n/a	12	8	2	2	4
1491313	PROB	n/a	LTP295	ltpFR2	8	n/a	n/a	n/a	12	20	8	4	8
1493098	PROB	n/a	LTP295	ltpFR2	8	n/a	n/a	n/a	12	12	9	2	1
1494949	PROB	n/a	LTP295	ltpFR2	8	n/a	n/a	n/a	12	10	2	3	5
1496318	PROB	n/a	LTP295	ltpFR2	8	n/a	n/a	n/a	12	24	8	6	9
1498719	PROB	n/a	LTP295	ltpFR2	8	n/a	n/a	n/a	12	14	7	5	2
1501823	PROB	n/a	LTP295	ltpFR2	8	n/a	n/a	n/a	12	8	6	1	1
1502791	STOP	n/a	LTP295	ltpFR2	8	n/a	n/a	n/a	12	n/a	n/a	n/a	n/a
1505926	REC_START	n/a	LTP295	ltpFR2	8	8	n/a	n/a	n/a	n/a	0	0	0
1508168	REC_WORD	wordpools/wasnorm_wordpool_576.txt	LTP295	ltpFR2	8	8	PANTHER	1009	n/a	n/a	0	0	0
1509148	REC_WORD	wordpools/wasnorm_wordpool_576.txt	LTP295	ltpFR2	8	8	GUARD	667	n/a	n/a	0	0	0
1510001	REC_WORD	wordpools/wasnorm_wordpool_576.txt	LTP295	ltpFR2	8	8	AUTHOR	61	n/a	n/a	0	0	0
1511001	REC_WORD_VV	wordpools/wasnorm_wordpool_576.txt	LTP295	ltpFR2	8	8	<>	-1	n/a	n/a	0	0	0
1511470	REC_WORD	wordpools/wasnorm_wordpool_576.txt	LTP295	ltpFR2	8	8	NOVEL	960	n/a	n/a	0	0	0
1512470	REC_WORD_VV	wordpools/wasnorm_wordpool_576.txt	LTP295	ltpFR2	8	8	<>	-1	n/a	n/a	0	0	0
1513415	REC_WORD	wordpools/wasnorm_wordpool_576.txt	LTP295	ltpFR2	8	8	BELLY	119	n/a	n/a	0	0	0
1516745	REC_WORD	wordpools/wasnorm_wordpool_576.txt	LTP295	ltpFR2	8	8	BLOUSE	139	n/a	n/a	0	0	0
1517745	REC_WORD_VV	wordpools/wasnorm_wordpool_576.txt	LTP295	ltpFR2	8	8	<>	-1	n/a	n/a	0	0	0
1518344	REC_WORD	wordpools/wasnorm_wordpool_576.txt	LTP295	ltpFR2	8	8	CANYON	235	n/a	n/a	0	0	0
1519660	REC_WORD	wordpools/wasnorm_wordpool_576.txt	LTP295	ltpFR2	8	8	SUMMIT	1405	n/a	n/a	0	0	0
1526470	REC_WORD	wordpools/wasnorm_wordpool_576.txt	LTP295	ltpFR2	8	8	FLESH	579	n/a	n/a	0	0	0
1527229	REC_WORD	wordpools/wasnorm_wordpool_576.txt	LTP295	ltpFR2	8	8	HEDGE	699	n/a	n/a	0	0	0
1531191	REC_WORD	wordpools/wasnorm_wordpool_576.txt	LTP295	ltpFR2	8	8	ASIA	46	n/a	n/a	0	0	0
1532110	REC_WORD	wordpools/wasnorm_wordpool_576.txt	LTP295	ltpFR2	8	8	BRANCH	168	n/a	n/a	0	0	0
1534572	REC_WORD	wordpools/wasnorm_wordpool_576.txt	LTP295	ltpFR2	8	8	CUSTARD	429	n/a	n/a	0	0	0
1535572	REC_WORD_VV	wordpools/wasnorm_wordpool_576.txt	LTP295	ltpFR2	8	8	<>	-1	n/a	n/a	0	0	0
1537251	REC_WORD	wordpools/wasnorm_wordpool_576.txt	LTP295	ltpFR2	8	8	PECAN	1036	n/a	n/a	0	0	0
1538148	REC_WORD	wordpools/wasnorm_wordpool_576.txt	LTP295	ltpFR2	8	8	RADISH	1158	n/a	n/a	0	0	0
1539094	REC_WORD	wordpools/wasnorm_wordpool_576.txt	LTP295	ltpFR2	8	8	GREASE	660	n/a	n/a	0	0	0
1540999	REC_WORD	wordpools/wasnorm_wordpool_576.txt	LTP295	ltpFR2	8	8	TART	1436	n/a	n/a	0	0	0
1542573	REC_WORD	wordpools/wasnorm_wordpool_576.txt	LTP295	ltpFR2	8	8	RECEIPT	1173	n/a	n/a	0	0	0
1543418	REC_WORD	wordpools/wasnorm_wordpool_576.txt	LTP295	ltpFR2	8	8	CONTRACT	368	n/a	n/a	0	0	0
1547092	REC_WORD	wordpools/wasnorm_wordpool_576.txt	LTP295	ltpFR2	8	8	TOMBSTONE	1478	n/a	n/a	0	0	0
1548094	REC_WORD	wordpools/wasnorm_wordpool_576.txt	LTP295	ltpFR2	8	8	FLAG	573	n/a	n/a	0	0	0
1548932	REC_WORD	wordpools/wasnorm_wordpool_576.txt	LTP295	ltpFR2	8	8	MESSAGE	888	n/a	n/a	0	0	0
1549932	REC_WORD_VV	wordpools/wasnorm_wordpool_576.txt	LTP295	ltpFR2	8	8	<>	-1	n/a	n/a	0	0	0
1551819	REC_WORD	wordpools/wasnorm_wordpool_576.txt	LTP295	ltpFR2	8	8	WIDOW	1608	n/a	n/a	0	0	0
1582454	REST_REWET	n/a	LTP295	ltpFR2	8	8	n/a	n/a	n/a	n/a	0	0	0
1844880	DISTRACTOR	n/a	LTP295	ltpFR2	8	9	n/a	n/a	n/a	n/a	0	0	0
1844880	START	n/a	LTP295	ltpFR2	8	n/a	n/a	n/a	13	n/a	n/a	n/a	n/a
1844897	PROB	n/a	LTP295	ltpFR2	8	n/a	n/a	n/a	13	17	5	5	7
1846530	PROB	n/a	LTP295	ltpFR2	8	n/a	n/a	n/a	13	17	7	6	4
1848197	PROB	n/a	LTP295	ltpFR2	8	n/a	n/a	n/a	13	20	7	5	8
1850383	PROB	n/a	LTP295	ltpFR2	8	n/a	n/a	n/a	13	16	5	9	2
1852618	PROB	n/a	LTP295	ltpFR2	8	n/a	n/a	n/a	13	16	9	1	6
1853885	PROB	n/a	LTP295	ltpFR2	8	n/a	n/a	n/a	13	16	9	1	6
1854936	PROB	n/a	LTP295	ltpFR2	8	n/a	n/a	n/a	13	4	4	2	2
1857321	PROB	n/a	LTP295	ltpFR2	8	n/a	n/a	n/a	13	9	1	4	4
1859759	PROB	n/a	LTP295	ltpFR2	8	n/a	n/a	n/a	13	17	4	7	6
1861513	PROB	n/a	LTP295	ltpFR2	8	n/a	n/a	n/a	13	18	8	2	8
1863026	PROB	n/a	LTP295	ltpFR2	8	n/a	n/a	n/a	13	16	4	4	8
1864632	PROB	n/a	LTP295	ltpFR2	8	n/a	n/a	n/a	13	15	5	5	5
1865848	PROB	n/a	LTP295	ltpFR2	8	n/a	n/a	n/a	13	8	5	1	2
1868880	STOP	n/a	LTP295	ltpFR2	8	n/a	n/a	n/a	13	n/a	n/a	n/a	n/a
1869951	WORD	wordpools/wasnorm_wordpool_576.txt	LTP295	ltpFR2	8	9	TOASTER	1472	n/a	n/a	0	0	0
1872503	WORD	wordpools/wasnorm_wordpool_576.txt	LTP295	ltpFR2	8	9	YOLK	1633	n/a	n/a	0	0	0
1874989	WORD	wordpools/wasnorm_wordpool_576.txt	LTP295	ltpFR2	8	9	SALT	1229	n/a	n/a	0	0	0
1877758	WORD	wordpools/wasnorm_wordpool_576.txt	LTP295	ltpFR2	8	9	PRIMATE	1123	n/a	n/a	0	0	0
1880577	WORD	wordpools/wasnorm_wordpool_576.txt	LTP295	ltpFR2	8	9	SHOVEL	1295	n/a	n/a	0	0	0
1883045	WORD	wordpools/wasnorm_wordpool_576.txt	LTP295	ltpFR2	8	9	SNACK	1331	n/a	n/a	0	0	0
1885715	WORD	wordpools/wasnorm_wordpool_576.txt	LTP295	ltpFR2	8	9	KITCHEN	778	n/a	n/a	0	0	0
1888250	WORD	wordpools/wasnorm_wordpool_576.txt	LTP295	ltpFR2	8	9	BINDER	127	n/a	n/a	0	0	0
1890753	WORD	wordpools/wasnorm_wordpool_576.txt	LTP295	ltpFR2	8	9	BODY	145	n/a	n/a	0	0	0
1893220	WORD	wordpools/wasnorm_wordpool_576.txt	LTP295	ltpFR2	8	9	SLOPE	1328	n/a	n/a	0	0	0
1895939	WORD	wordpools/wasnorm_wordpool_576.txt	LTP295	ltpFR2	8	9	PACKAGE	997	n/a	n/a	0	0	0
1898457	WORD	wordpools/wasnorm_wordpool_576.txt	LTP295	ltpFR2	8	9	TABLE	1426	n/a	n/a	0	0	0
1901143	WORD	wordpools/wasnorm_wordpool_576.txt	LTP295	ltpFR2	8	9	RACKET	1155	n/a	n/a	0	0	0
1903730	WORD	wordpools/wasnorm_wordpool_576.txt	LTP295	ltpFR2	8	9	STAPLE	1371	n/a	n/a	0	0	0
1906414	WORD	wordpools/wasnorm_wordpool_576.txt	LTP295	ltpFR2	8	9	PASTRY	1022	n/a	n/a	0	0	0
1908850	WORD	wordpools/wasnorm_wordpool_576.txt	LTP295	ltpFR2	8	9	ICING	732	n/a	n/a	0	0	0
1911401	WORD	wordpools/wasnorm_wordpool_576.txt	LTP295	ltpFR2	8	9	FOOTBALL	591	n/a	n/a	0	0	0
1914137	WORD	wordpools/wasnorm_wordpool_576.txt	LTP295	ltpFR2	8	9	PROTON	1132	n/a	n/a	0	0	0
1916657	WORD	wordpools/wasnorm_wordpool_576.txt	LTP295	ltpFR2	8	9	APRON	35	n/a	n/a	0	0	0
1919461	WORD	wordpools/wasnorm_wordpool_576.txt	LTP295	ltpFR2	8	9	TAXI	1438	n/a	n/a	0	0	0
1922126	WORD	wordpools/wasnorm_wordpool_576.txt	LTP295	ltpFR2	8	9	TRACTOR	1493	n/a	n/a	0	0	0
1924629	WORD	wordpools/wasnorm_wordpool_576.txt	LTP295	ltpFR2	8	9	SPONGE	1355	n/a	n/a	0	0	0
1927248	WORD	wordpools/wasnorm_wordpool_576.txt	LTP295	ltpFR2	8	9	RIVER	1194	n/a	n/a	0	0	0
1930066	WORD	wordpools/wasnorm_wordpool_576.txt	LTP295	ltpFR2	8	9	BACKBONE	66	n/a	n/a	0	0	0
1931673	START	n/a	LTP295	ltpFR2	8	n/a	n/a	n/a	14	n/a	n/a	n/a	n/a
1932575	DISTRACTOR	n/a	LTP295	ltpFR2	8	9	n/a	n/a	n/a	n/a	0	0	0
1932585	PROB	n/a	LTP295	ltpFR2	8	n/a	n/a	n/a	14	16	7	4	5
1934469	PROB	n/a	LTP295	ltpFR2	8	n/a	n/a	n/a	14	16	9	1	6
1935804	PROB	n/a	LTP295	ltpFR2	8	n/a	n/a	n/a	14	18	2	8	8
1938171	PROB	n/a	LTP295	ltpFR2	8	n/a	n/a	n/a	14	16	1	6	9
1940090	PROB	n/a	LTP295	ltpFR2	8	n/a	n/a	n/a	14	13	6	2	5
1943093	PROB	n/a	LTP295	ltpFR2	8	n/a	n/a	n/a	14	17	5	7	5
1944494	PROB	n/a	LTP295	ltpFR2	8	n/a	n/a	n/a	14	9	7	1	1
1945679	PROB	n/a	LTP295	ltpFR2	8	n/a	n/a	n/a	14	5	1	1	3
1946930	PROB	n/a	LTP295	ltpFR2	8	n/a	n/a	n/a	14	18	8	6	4
1948347	PROB	n/a	LTP295	ltpFR2	8	n/a	n/a	n/a	14	14	7	1	6
1950266	PROB	n/a	LTP295	ltpFR2	8	n/a	n/a	n/a	14	16	7	6	4
1951683	PROB	n/a	LTP295	ltpFR2	8	n/a	n/a	n/a	14	12	5	6	1
1953167	PROB	n/a	LTP295	ltpFR2	8	n/a	n/a	n/a	14	18	7	7	4
1954504	STOP	n/a	LTP295	ltpFR2	8	n/a	n/a	n/a	14	n/a	n/a	n/a	n/a
1957488	REC_START	n/a	LTP295	ltpFR2	8	9	n/a	n/a	n/a	n/a	0	0	0
1959294	REC_WORD	wordpools/wasnorm_wordpool_576.txt	LTP295	ltpFR2	8	9	PRIMATE	1123	n/a	n/a	0	0	0
1960023	REC_WORD	wordpools/wasnorm_wordpool_576.txt	LTP295	ltpFR2	8	9	BACKBONE	66	n/a	n/a	0	0	0
1960833	REC_WORD	wordpools/wasnorm_wordpool_576.txt	LTP295	ltpFR2	8	9	BODY	145	n/a	n/a	0	0	0
1962752	REC_WORD	wordpools/wasnorm_wordpool_576.txt	LTP295	ltpFR2	8	9	KITCHEN	778	n/a	n/a	0	0	0
1963399	REC_WORD	wordpools/wasnorm_wordpool_576.txt	LTP295	ltpFR2	8	9	SHOVEL	1295	n/a	n/a	0	0	0
1964352	REC_WORD	wordpools/wasnorm_wordpool_576.txt	LTP295	ltpFR2	8	9	TOASTER	1472	n/a	n/a	0	0	0
1965102	REC_WORD	wordpools/wasnorm_wordpool_576.txt	LTP295	ltpFR2	8	9	YOLK	1633	n/a	n/a	0	0	0
1965929	REC_WORD	wordpools/wasnorm_wordpool_576.txt	LTP295	ltpFR2	8	9	SALT	1229	n/a	n/a	0	0	0
1967457	REC_WORD	wordpools/wasnorm_wordpool_576.txt	LTP295	ltpFR2	8	9	SNACK	1331	n/a	n/a	0	0	0
1969322	REC_WORD	wordpools/wasnorm_wordpool_576.txt	LTP295	ltpFR2	8	9	TABLE	1426	n/a	n/a	0	0	0
1970617	REC_WORD	wordpools/wasnorm_wordpool_576.txt	LTP295	ltpFR2	8	9	SPONGE	1355	n/a	n/a	0	0	0
1971545	REC_WORD	wordpools/wasnorm_wordpool_576.txt	LTP295	ltpFR2	8	9	RIVER	1194	n/a	n/a	0	0	0
1972267	REC_WORD	wordpools/wasnorm_wordpool_576.txt	LTP295	ltpFR2	8	9	PROTON	1132	n/a	n/a	0	0	0
1973264	REC_WORD	wordpools/wasnorm_wordpool_576.txt	LTP295	ltpFR2	8	9	FOOTBALL	591	n/a	n/a	0	0	0
1974076	REC_WORD	wordpools/wasnorm_wordpool_576.txt	LTP295	ltpFR2	8	9	RACKET	1155	n/a	n/a	0	0	0
1974831	REC_WORD	wordpools/wasnorm_wordpool_576.txt	LTP295	ltpFR2	8	9	PACKAGE	997	n/a	n/a	0	0	0
1988177	REC_WORD_VV	wordpools/wasnorm_wordpool_576.txt	LTP295	ltpFR2	8	9	<>	-1	n/a	n/a	0	0	0
2013520	REC_WORD	wordpools/wasnorm_wordpool_576.txt	LTP295	ltpFR2	8	9	STAPLE	1371	n/a	n/a	0	0	0
2014520	REC_WORD_VV	wordpools/wasnorm_wordpool_576.txt	LTP295	ltpFR2	8	9	<>	-1	n/a	n/a	0	0	0
2047912	DISTRACTOR	n/a	LTP295	ltpFR2	8	10	n/a	n/a	n/a	n/a	0	0	0
2047912	START	n/a	LTP295	ltpFR2	8	n/a	n/a	n/a	15	n/a	n/a	n/a	n/a
2047926	PROB	n/a	LTP295	ltpFR2	8	n/a	n/a	n/a	15	19	3	9	7
2049579	PROB	n/a	LTP295	ltpFR2	8	n/a	n/a	n/a	15	17	3	7	7
2050847	PROB	n/a	LTP295	ltpFR2	8	n/a	n/a	n/a	15	11	1	3	7
2052799	PROB	n/a	LTP295	ltpFR2	8	n/a	n/a	n/a	15	25	7	8	8
2054466	PROB	n/a	LTP295	ltpFR2	8	n/a	n/a	n/a	15	23	7	9	7
2056385	PROB	n/a	LTP295	ltpFR2	8	n/a	n/a	n/a	15	10	3	3	4
2057770	PROB	n/a	LTP295	ltpFR2	8	n/a	n/a	n/a	15	16	9	6	1
2059454	PROB	n/a	LTP295	ltpFR2	8	n/a	n/a	n/a	15	11	3	6	2
2061005	PROB	n/a	LTP295	ltpFR2	8	n/a	n/a	n/a	15	12	1	6	2
2062422	PROB	n/a	LTP295	ltpFR2	8	n/a	n/a	n/a	15	12	2	3	7
2063874	PROB	n/a	LTP295	ltpFR2	8	n/a	n/a	n/a	15	14	3	7	4
2065209	PROB	n/a	LTP295	ltpFR2	8	n/a	n/a	n/a	15	24	9	8	7
2067404	PROB	n/a	LTP295	ltpFR2	8	n/a	n/a	n/a	15	12	7	2	3
2071912	STOP	n/a	LTP295	ltpFR2	8	n/a	n/a	n/a	15	n/a	n/a	n/a	n/a
2072911	WORD	wordpools/wasnorm_wordpool_576.txt	LTP295	ltpFR2	8	10	CHEST	295	n/a	n/a	0	0	0
2075479	WORD	wordpools/wasnorm_wordpool_576.txt	LTP295	ltpFR2	8	10	COSTUME	383	n/a	n/a	0	0	0
2078015	WORD	wordpools/wasnorm_wordpool_576.txt	LTP295	ltpFR2	8	10	UNCLE	1536	n/a	n/a	0	0	0
2080602	WORD	wordpools/wasnorm_wordpool_576.txt	LTP295	ltpFR2	8	10	SHORTS	1293	n/a	n/a	0	0	0
2083039	WORD	wordpools/wasnorm_wordpool_576.txt	LTP295	ltpFR2	8	10	EGYPT	519	n/a	n/a	0	0	0
2085757	WORD	wordpools/wasnorm_wordpool_576.txt	LTP295	ltpFR2	8	10	HUSBAND	728	n/a	n/a	0	0	0
2088359	WORD	wordpools/wasnorm_wordpool_576.txt	LTP295	ltpFR2	8	10	SPOUSE	1358	n/a	n/a	0	0	0
2090959	WORD	wordpools/wasnorm_wordpool_576.txt	LTP295	ltpFR2	8	10	JEANS	752	n/a	n/a	0	0	0
2093563	WORD	wordpools/wasnorm_wordpool_576.txt	LTP295	ltpFR2	8	10	MONSTER	912	n/a	n/a	0	0	0
2096081	WORD	wordpools/wasnorm_wordpool_576.txt	LTP295	ltpFR2	8	10	HOUND	724	n/a	n/a	0	0	0
2098734	WORD	wordpools/wasnorm_wordpool_576.txt	LTP295	ltpFR2	8	10	PLIERS	1089	n/a	n/a	0	0	0
2101252	WORD	wordpools/wasnorm_wordpool_576.txt	LTP295	ltpFR2	8	10	DUSTPAN	509	n/a	n/a	0	0	0
2103971	WORD	wordpools/wasnorm_wordpool_576.txt	LTP295	ltpFR2	8	10	PUPPY	1144	n/a	n/a	0	0	0
2106406	WORD	wordpools/wasnorm_wordpool_576.txt	LTP295	ltpFR2	8	10	LAVA	804	n/a	n/a	0	0	0
2108892	WORD	wordpools/wasnorm_wordpool_576.txt	LTP295	ltpFR2	8	10	SAUSAGE	1238	n/a	n/a	0	0	0
2111729	WORD	wordpools/wasnorm_wordpool_576.txt	LTP295	ltpFR2	8	10	DINER	467	n/a	n/a	0	0	0
2114447	WORD	wordpools/wasnorm_wordpool_576.txt	LTP295	ltpFR2	8	10	CHEMIST	292	n/a	n/a	0	0	0
2116932	WORD	wordpools/wasnorm_wordpool_576.txt	LTP295	ltpFR2	8	10	PEBBLE	1035	n/a	n/a	0	0	0
2119619	WORD	wordpools/wasnorm_wordpool_576.txt	LTP295	ltpFR2	8	10	BISON	131	n/a	n/a	0	0	0
2122287	WORD	wordpools/wasnorm_wordpool_576.txt	LTP295	ltpFR2	8	10	GRAVEL	659	n/a	n/a	0	0	0
2125106	WORD	wordpools/wasnorm_wordpool_576.txt	LTP295	ltpFR2	8	10	BUNNY	198	n/a	n/a	0	0	0
2127892	WORD	wordpools/wasnorm_wordpool_576.txt	LTP295	ltpFR2	8	10	MACHINE	852	n/a	n/a	0	0	0
2130612	WORD	wordpools/wasnorm_wordpool_576.txt	LTP295	ltpFR2	8	10	HELMET	702	n/a	n/a	0	0	0
2133263	WORD	wordpools/wasnorm_wordpool_576.txt	LTP295	ltpFR2	8	10	CABBAGE	210	n/a	n/a	0	0	0
2134882	START	n/a	LTP295	ltpFR2	8	n/a	n/a	n/a	16	n/a	n/a	n/a	n/a
2135815	DISTRACTOR	n/a	LTP295	ltpFR2	8	10	n/a	n/a	n/a	n/a	0	0	0
2135833	PROB	n/a	LTP295	ltpFR2	8	n/a	n/a	n/a	16	10	3	3	4
2137381	PROB	n/a	LTP295	ltpFR2	8	n/a	n/a	n/a	16	9	2	4	3
2140002	PROB	n/a	LTP295	ltpFR2	8	n/a	n/a	n/a	16	10	3	2	5
2141435	PROB	n/a	LTP295	ltpFR2	8	n/a	n/a	n/a	16	18	4	7	7
2142720	PROB	n/a	LTP295	ltpFR2	8	n/a	n/a	n/a	16	24	9	9	6
2144372	PROB	n/a	LTP295	ltpFR2	8	n/a	n/a	n/a	16	7	3	2	2
2146189	PROB	n/a	LTP295	ltpFR2	8	n/a	n/a	n/a	16	16	5	2	9
2147874	PROB	n/a	LTP295	ltpFR2	8	n/a	n/a	n/a	16	13	3	3	7
2149242	PROB	n/a	LTP295	ltpFR2	8	n/a	n/a	n/a	16	17	8	3	6
2150942	PROB	n/a	LTP295	ltpFR2	8	n/a	n/a	n/a	16	22	7	9	6
2155397	PROB	n/a	LTP295	ltpFR2	8	n/a	n/a	n/a	16	13	8	3	2
2158080	STOP	n/a	LTP295	ltpFR2	8	n/a	n/a	n/a	16	n/a	n/a	n/a	n/a
2160702	REC_START	n/a	LTP295	ltpFR2	8	10	n/a	n/a	n/a	n/a	0	0	0
2161860	REC_WORD	wordpools/wasnorm_wordpool_576.txt	LTP295	ltpFR2	8	10	BISON	131	n/a	n/a	0	0	0
2162511	REC_WORD	wordpools/wasnorm_wordpool_576.txt	LTP295	ltpFR2	8	10	BUNNY	198	n/a	n/a	0	0	0
2163069	REC_WORD	wordpools/wasnorm_wordpool_576.txt	LTP295	ltpFR2	8	10	CABBAGE	210	n/a	n/a	0	0	0
2163739	REC_WORD	wordpools/wasnorm_wordpool_576.txt	LTP295	ltpFR2	8	10	HELMET	702	n/a	n/a	0	0	0
2164593	REC_WORD	wordpools/wasnorm_wordpool_576.txt	LTP295	ltpFR2	8	10	PEBBLE	1035	n/a	n/a	0	0	0
2165232	REC_WORD	wordpools/wasnorm_wordpool_576.txt	LTP295	ltpFR2	8	10	GRAVEL	659	n/a	n/a	0	0	0
2165887	REC_WORD	wordpools/wasnorm_wordpool_576.txt	LTP295	ltpFR2	8	10	LAVA	804	n/a	n/a	0	0	0
2166428	REC_WORD	wordpools/wasnorm_wordpool_576.txt	LTP295	ltpFR2	8	10	SAUSAGE	1238	n/a	n/a	0	0	0
2167285	REC_WORD	wordpools/wasnorm_wordpool_576.txt	LTP295	ltpFR2	8	10	DINER	467	n/a	n/a	0	0	0
2167853	REC_WORD	wordpools/wasnorm_wordpool_576.txt	LTP295	ltpFR2	8	10	CHEMIST	292	n/a	n/a	0	0	0
2172540	REC_WORD	wordpools/wasnorm_wordpool_576.txt	LTP295	ltpFR2	8	10	CHEST	295	n/a	n/a	0	0	0
2173180	REC_WORD	wordpools/wasnorm_wordpool_576.txt	LTP295	ltpFR2	8	10	COSTUME	383	n/a	n/a	0	0	0
2174152	REC_WORD	wordpools/wasnorm_wordpool_576.txt	LTP295	ltpFR2	8	10	JEANS	752	n/a	n/a	0	0	0
2174906	REC_WORD	wordpools/wasnorm_wordpool_576.txt	LTP295	ltpFR2	8	10	SHORTS	1293	n/a	n/a	0	0	0
2175688	REC_WORD	wordpools/wasnorm_wordpool_576.txt	LTP295	ltpFR2	8	10	UNCLE	1536	n/a	n/a	0	0	0
2176326	REC_WORD	wordpools/wasnorm_wordpool_576.txt	LTP295	ltpFR2	8	10	HUSBAND	728	n/a	n/a	0	0	0
2177343	REC_WORD	wordpools/wasnorm_wordpool_576.txt	LTP295	ltpFR2	8	10	SPOUSE	1358	n/a	n/a	0	0	0
2178343	REC_WORD_VV	wordpools/wasnorm_wordpool_576.txt	LTP295	ltpFR2	8	10	<>	-1	n/a	n/a	0	0	0
2183387	REC_WORD	wordpools/wasnorm_wordpool_576.txt	LTP295	ltpFR2	8	10	DUSTPAN	509	n/a	n/a	0	0	0
2184150	REC_WORD	wordpools/wasnorm_wordpool_576.txt	LTP295	ltpFR2	8	10	PLIERS	1089	n/a	n/a	0	0	0
2185150	REC_WORD_VV	wordpools/wasnorm_wordpool_576.txt	LTP295	ltpFR2	8	10	<>	-1	n/a	n/a	0	0	0
2185236	REC_WORD	wordpools/wasnorm_wordpool_576.txt	LTP295	ltpFR2	8	10	MONSTER	912	n/a	n/a	0	0	0
2186236	REC_WORD_VV	wordpools/wasnorm_wordpool_576.txt	LTP295	ltpFR2	8	10	<>	-1	n/a	n/a	0	0	0
2186503	REC_WORD	wordpools/wasnorm_wordpool_576.txt	LTP295	ltpFR2	8	10	HOUND	724	n/a	n/a	0	0	0
2187331	REC_WORD	wordpools/wasnorm_wordpool_576.txt	LTP295	ltpFR2	8	10	PUPPY	1144	n/a	n/a	0	0	0
2191012	REC_WORD	wordpools/wasnorm_wordpool_576.txt	LTP295	ltpFR2	8	10	EGYPT	519	n/a	n/a	0	0	0
2251125	DISTRACTOR	n/a	LTP295	ltpFR2	8	11	n/a	n/a	n/a	n/a	0	0	0
2251125	START	n/a	LTP295	ltpFR2	8	n/a	n/a	n/a	17	n/a	n/a	n/a	n/a
2251141	PROB	n/a	LTP295	ltpFR2	8	n/a	n/a	n/a	17	27	9	9	9
2253776	PROB	n/a	LTP295	ltpFR2	8	n/a	n/a	n/a	17	19	8	9	2
2257094	PROB	n/a	LTP295	ltpFR2	8	n/a	n/a	n/a	17	15	5	1	9
2259014	PROB	n/a	LTP295	ltpFR2	8	n/a	n/a	n/a	17	11	4	1	6
2260230	PROB	n/a	LTP295	ltpFR2	8	n/a	n/a	n/a	17	8	4	1	2
2261915	PROB	n/a	LTP295	ltpFR2	8	n/a	n/a	n/a	17	13	2	8	3
2264117	PROB	n/a	LTP295	ltpFR2	8	n/a	n/a	n/a	17	14	9	4	1
2265585	PROB	n/a	LTP295	ltpFR2	8	n/a	n/a	n/a	17	14	7	5	2
2267753	PROB	n/a	LTP295	ltpFR2	8	n/a	n/a	n/a	17	12	7	1	4
2269606	PROB	n/a	LTP295	ltpFR2	8	n/a	n/a	n/a	17	8	3	1	4
2271106	PROB	n/a	LTP295	ltpFR2	8	n/a	n/a	n/a	17	13	4	6	3
2272324	PROB	n/a	LTP295	ltpFR2	8	n/a	n/a	n/a	17	23	9	7	7
2274141	STOP	n/a	LTP295	ltpFR2	8	n/a	n/a	n/a	17	n/a	n/a	n/a	n/a
2276105	WORD	wordpools/wasnorm_wordpool_576.txt	LTP295	ltpFR2	8	11	CRIB	407	n/a	n/a	0	0	0
2278908	WORD	wordpools/wasnorm_wordpool_576.txt	LTP295	ltpFR2	8	11	ZIPPER	1636	n/a	n/a	0	0	0
2281460	WORD	wordpools/wasnorm_wordpool_576.txt	LTP295	ltpFR2	8	11	SHIRT	1287	n/a	n/a	0	0	0
2283945	WORD	wordpools/wasnorm_wordpool_576.txt	LTP295	ltpFR2	8	11	CLAM	315	n/a	n/a	0	0	0
2286447	WORD	wordpools/wasnorm_wordpool_576.txt	LTP295	ltpFR2	8	11	HAMPER	682	n/a	n/a	0	0	0
2289050	WORD	wordpools/wasnorm_wordpool_576.txt	LTP295	ltpFR2	8	11	LUGGAGE	847	n/a	n/a	0	0	0
2291725	WORD	wordpools/wasnorm_wordpool_576.txt	LTP295	ltpFR2	8	11	DENIM	446	n/a	n/a	0	0	0
2294153	WORD	wordpools/wasnorm_wordpool_576.txt	LTP295	ltpFR2	8	11	CONCERT	360	n/a	n/a	0	0	0
2296628	WORD	wordpools/wasnorm_wordpool_576.txt	LTP295	ltpFR2	8	11	COURSE	390	n/a	n/a	0	0	0
2299258	WORD	wordpools/wasnorm_wordpool_576.txt	LTP295	ltpFR2	8	11	SCARECROW	1245	n/a	n/a	0	0	0
2301832	WORD	wordpools/wasnorm_wordpool_576.txt	LTP295	ltpFR2	8	11	CAPTIVE	240	n/a	n/a	0	0	0
2304400	WORD	wordpools/wasnorm_wordpool_576.txt	LTP295	ltpFR2	8	11	MISSILE	900	n/a	n/a	0	0	0
2307169	WORD	wordpools/wasnorm_wordpool_576.txt	LTP295	ltpFR2	8	11	PIZZA	1079	n/a	n/a	0	0	0
2309619	WORD	wordpools/wasnorm_wordpool_576.txt	LTP295	ltpFR2	8	11	FIREMAN	569	n/a	n/a	0	0	0
2312086	WORD	wordpools/wasnorm_wordpool_576.txt	LTP295	ltpFR2	8	11	DRILL	497	n/a	n/a	0	0	0
2314772	WORD	wordpools/wasnorm_wordpool_576.txt	LTP295	ltpFR2	8	11	INFANT	737	n/a	n/a	0	0	0
2317340	WORD	wordpools/wasnorm_wordpool_576.txt	LTP295	ltpFR2	8	11	MAPLE	866	n/a	n/a	0	0	0
2319814	WORD	wordpools/wasnorm_wordpool_576.txt	LTP295	ltpFR2	8	11	FOOT	590	n/a	n/a	0	0	0
2322629	WORD	wordpools/wasnorm_wordpool_576.txt	LTP295	ltpFR2	8	11	BUREAU	199	n/a	n/a	0	0	0
2325097	WORD	wordpools/wasnorm_wordpool_576.txt	LTP295	ltpFR2	8	11	PLATE	1086	n/a	n/a	0	0	0
2327767	WORD	wordpools/wasnorm_wordpool_576.txt	LTP295	ltpFR2	8	11	STAMP	1370	n/a	n/a	0	0	0
2330352	WORD	wordpools/wasnorm_wordpool_576.txt	LTP295	ltpFR2	8	11	CASHEW	253	n/a	n/a	0	0	0
2332854	WORD	wordpools/wasnorm_wordpool_576.txt	LTP295	ltpFR2	8	11	PUPIL	1143	n/a	n/a	0	0	0
2335641	WORD	wordpools/wasnorm_wordpool_576.txt	LTP295	ltpFR2	8	11	ANTLER	29	n/a	n/a	0	0	0
2337259	START	n/a	LTP295	ltpFR2	8	n/a	n/a	n/a	18	n/a	n/a	n/a	n/a
2338414	DISTRACTOR	n/a	LTP295	ltpFR2	8	11	n/a	n/a	n/a	n/a	0	0	0
2338425	PROB	n/a	LTP295	ltpFR2	8	n/a	n/a	n/a	18	15	3	6	6
2340445	PROB	n/a	LTP295	ltpFR2	8	n/a	n/a	n/a	18	11	3	4	4
2343047	PROB	n/a	LTP295	ltpFR2	8	n/a	n/a	n/a	18	10	3	6	1
2344617	PROB	n/a	LTP295	ltpFR2	8	n/a	n/a	n/a	18	14	5	1	8
2347352	PROB	n/a	LTP295	ltpFR2	8	n/a	n/a	n/a	18	14	1	6	7
2348986	PROB	n/a	LTP295	ltpFR2	8	n/a	n/a	n/a	18	15	4	3	8
2350871	PROB	n/a	LTP295	ltpFR2	8	n/a	n/a	n/a	18	12	2	6	4
2352105	PROB	n/a	LTP295	ltpFR2	8	n/a	n/a	n/a	18	16	8	6	2
2354489	PROB	n/a	LTP295	ltpFR2	8	n/a	n/a	n/a	18	11	2	3	6
2357526	PROB	n/a	LTP295	ltpFR2	8	n/a	n/a	n/a	18	19	9	4	6
2361259	STOP	n/a	LTP295	ltpFR2	8	n/a	n/a	n/a	18	n/a	n/a	n/a	n/a
2363115	REC_START	n/a	LTP295	ltpFR2	8	11	n/a	n/a	n/a	n/a	0	0	0
2365989	REC_WORD	wordpools/wasnorm_wordpool_576.txt	LTP295	ltpFR2	8	11	MAPLE	866	n/a	n/a	0	0	0
2366652	REC_WORD	wordpools/wasnorm_wordpool_576.txt	LTP295	ltpFR2	8	11	CRIB	407	n/a	n/a	0	0	0
2367327	REC_WORD	wordpools/wasnorm_wordpool_576.txt	LTP295	ltpFR2	8	11	CLAM	315	n/a	n/a	0	0	0
2368491	REC_WORD	wordpools/wasnorm_wordpool_576.txt	LTP295	ltpFR2	8	11	SHIRT	1287	n/a	n/a	0	0	0
2369342	REC_WORD	wordpools/wasnorm_wordpool_576.txt	LTP295	ltpFR2	8	11	DENIM	446	n/a	n/a	0	0	0
2369782	REC_WORD	wordpools/wasnorm_wordpool_576.txt	LTP295	ltpFR2	8	11	ZIPPER	1636	n/a	n/a	0	0	0
2373154	REC_WORD	wordpools/wasnorm_wordpool_576.txt	LTP295	ltpFR2	8	11	CAPTIVE	240	n/a	n/a	0	0	0
2373860	REC_WORD	wordpools/wasnorm_wordpool_576.txt	LTP295	ltpFR2	8	11	INFANT	737	n/a	n/a	0	0	0
2378025	REC_WORD	wordpools/wasnorm_wordpool_576.txt	LTP295	ltpFR2	8	11	SCARECROW	1245	n/a	n/a	0	0	0
2378925	REC_WORD	wordpools/wasnorm_wordpool_576.txt	LTP295	ltpFR2	8	11	FIREMAN	569	n/a	n/a	0	0	0
2380135	REC_WORD	wordpools/wasnorm_wordpool_576.txt	LTP295	ltpFR2	8	11	ANTLER	29	n/a	n/a	0	0	0
2380760	REC_WORD	wordpools/wasnorm_wordpool_576.txt	LTP295	ltpFR2	8	11	PUPIL	1143	n/a	n/a	0	0	0
2381707	REC_WORD	wordpools/wasnorm_wordpool_576.txt	LTP295	ltpFR2	8	11	PIZZA	1079	n/a	n/a	0	0	0
2382440	REC_WORD	wordpools/wasnorm_wordpool_576.txt	LTP295	ltpFR2	8	11	PLATE	1086	n/a	n/a	0	0	0
2383678	REC_WORD	wordpools/wasnorm_wordpool_576.txt	LTP295	ltpFR2	8	11	STAMP	1370	n/a	n/a	0	0	0
2394006	REC_WORD	wordpools/wasnorm_wordpool_576.txt	LTP295	ltpFR2	8	11	FOOT	590	n/a	n/a	0	0	0
2395597	REC_WORD	wordpools/wasnorm_wordpool_576.txt	LTP295	ltpFR2	8	11	MISSILE	900	n/a	n/a	0	0	0
2398513	REC_WORD	wordpools/wasnorm_wordpool_576.txt	LTP295	ltpFR2	8	11	DRESSER	496	n/a	n/a	0	0	0
2399921	REC_WORD	wordpools/wasnorm_wordpool_576.txt	LTP295	ltpFR2	8	11	HAMPER	682	n/a	n/a	0	0	0
2400745	REC_WORD	wordpools/wasnorm_wordpool_576.txt	LTP295	ltpFR2	8	11	LUGGAGE	847	n/a	n/a	0	0	0
2401745	REC_WORD_VV	wordpools/wasnorm_wordpool_576.txt	LTP295	ltpFR2	8	11	<>	-1	n/a	n/a	0	0	0
2402366	REC_WORD	wordpools/wasnorm_wordpool_576.txt	LTP295	ltpFR2	8	11	CONCERT	360	n/a	n/a	0	0	0
2403317	REC_WORD	wordpools/wasnorm_wordpool_576.txt	LTP295	ltpFR2	8	11	COURSE	390	n/a	n/a	0	0	0
2453544	DISTRACTOR	n/a	LTP295	ltpFR2	8	12	n/a	n/a	n/a	n/a	0	0	0
2453544	START	n/a	LTP295	ltpFR2	8	n/a	n/a	n/a	19	n/a	n/a	n/a	n/a
2453561	PROB	n/a	LTP295	ltpFR2	8	n/a	n/a	n/a	19	18	5	7	6
2455237	PROB	n/a	LTP295	ltpFR2	8	n/a	n/a	n/a	19	22	6	9	7
2457472	PROB	n/a	LTP295	ltpFR2	8	n/a	n/a	n/a	19	10	5	3	2
2458724	PROB	n/a	LTP295	ltpFR2	8	n/a	n/a	n/a	19	10	6	1	3
2459991	PROB	n/a	LTP295	ltpFR2	8	n/a	n/a	n/a	19	17	4	5	8
2461459	PROB	n/a	LTP295	ltpFR2	8	n/a	n/a	n/a	19	8	6	1	1
2462510	PROB	n/a	LTP295	ltpFR2	8	n/a	n/a	n/a	19	17	9	2	6
2464394	PROB	n/a	LTP295	ltpFR2	8	n/a	n/a	n/a	19	9	5	1	3
2465862	PROB	n/a	LTP295	ltpFR2	8	n/a	n/a	n/a	19	18	7	8	3
2467765	PROB	n/a	LTP295	ltpFR2	8	n/a	n/a	n/a	19	8	5	1	2
2469549	PROB	n/a	LTP295	ltpFR2	8	n/a	n/a	n/a	19	16	6	1	9
2471017	PROB	n/a	LTP295	ltpFR2	8	n/a	n/a	n/a	19	15	7	7	1
2472185	PROB	n/a	LTP295	ltpFR2	8	n/a	n/a	n/a	19	12	4	3	5
2475137	PROB	n/a	LTP295	ltpFR2	8	n/a	n/a	n/a	19	18	8	7	3
2476413	STOP	n/a	LTP295	ltpFR2	8	n/a	n/a	n/a	19	n/a	n/a	n/a	n/a
2478625	WORD	wordpools/wasnorm_wordpool_576.txt	LTP295	ltpFR2	8	12	COFFEE	341	n/a	n/a	0	0	0
2481359	WORD	wordpools/wasnorm_wordpool_576.txt	LTP295	ltpFR2	8	12	WAGON	1578	n/a	n/a	0	0	0
2483861	WORD	wordpools/wasnorm_wordpool_576.txt	LTP295	ltpFR2	8	12	CHAUFFEUR	283	n/a	n/a	0	0	0
2486623	WORD	wordpools/wasnorm_wordpool_576.txt	LTP295	ltpFR2	8	12	BARREL	91	n/a	n/a	0	0	0
2489224	WORD	wordpools/wasnorm_wordpool_576.txt	LTP295	ltpFR2	8	12	CARRIAGE	248	n/a	n/a	0	0	0
2491918	WORD	wordpools/wasnorm_wordpool_576.txt	LTP295	ltpFR2	8	12	SANDWICH	1232	n/a	n/a	0	0	0
2494436	WORD	wordpools/wasnorm_wordpool_576.txt	LTP295	ltpFR2	8	12	DAISY	435	n/a	n/a	0	0	0
2497197	WORD	wordpools/wasnorm_wordpool_576.txt	LTP295	ltpFR2	8	12	STAR	1373	n/a	n/a	0	0	0
2499890	WORD	wordpools/wasnorm_wordpool_576.txt	LTP295	ltpFR2	8	12	HAWK	692	n/a	n/a	0	0	0
2502326	WORD	wordpools/wasnorm_wordpool_576.txt	LTP295	ltpFR2	8	12	CRAB	397	n/a	n/a	0	0	0
2504945	WORD	wordpools/wasnorm_wordpool_576.txt	LTP295	ltpFR2	8	12	SEAFOOD	1260	n/a	n/a	0	0	0
2507641	WORD	wordpools/wasnorm_wordpool_576.txt	LTP295	ltpFR2	8	12	DOUGHNUT	490	n/a	n/a	0	0	0
2510342	WORD	wordpools/wasnorm_wordpool_576.txt	LTP295	ltpFR2	8	12	GLOVE	642	n/a	n/a	0	0	0
2512978	WORD	wordpools/wasnorm_wordpool_576.txt	LTP295	ltpFR2	8	12	LAGOON	795	n/a	n/a	0	0	0
2515664	WORD	wordpools/wasnorm_wordpool_576.txt	LTP295	ltpFR2	8	12	ITEM	746	n/a	n/a	0	0	0
2518216	WORD	wordpools/wasnorm_wordpool_576.txt	LTP295	ltpFR2	8	12	DIVER	476	n/a	n/a	0	0	0
2520719	WORD	wordpools/wasnorm_wordpool_576.txt	LTP295	ltpFR2	8	12	BABY	64	n/a	n/a	0	0	0
2523237	WORD	wordpools/wasnorm_wordpool_576.txt	LTP295	ltpFR2	8	12	FLASHLIGHT	575	n/a	n/a	0	0	0
2525673	WORD	wordpools/wasnorm_wordpool_576.txt	LTP295	ltpFR2	8	12	WORLD	1622	n/a	n/a	0	0	0
2528458	WORD	wordpools/wasnorm_wordpool_576.txt	LTP295	ltpFR2	8	12	SHOULDER	1294	n/a	n/a	0	0	0
2530877	WORD	wordpools/wasnorm_wordpool_576.txt	LTP295	ltpFR2	8	12	WRENCH	1625	n/a	n/a	0	0	0
2533330	WORD	wordpools/wasnorm_wordpool_576.txt	LTP295	ltpFR2	8	12	SPOON	1357	n/a	n/a	0	0	0
2536032	WORD	wordpools/wasnorm_wordpool_576.txt	LTP295	ltpFR2	8	12	WRIST	1626	n/a	n/a	0	0	0
2538706	WORD	wordpools/wasnorm_wordpool_576.txt	LTP295	ltpFR2	8	12	LADY	794	n/a	n/a	0	0	0
2540319	START	n/a	LTP295	ltpFR2	8	n/a	n/a	n/a	20	n/a	n/a	n/a	n/a
2541190	DISTRACTOR	n/a	LTP295	ltpFR2	8	12	n/a	n/a	n/a	n/a	0	0	0
2541202	PROB	n/a	LTP295	ltpFR2	8	n/a	n/a	n/a	20	13	2	5	6
2543527	PROB	n/a	LTP295	ltpFR2	8	n/a	n/a	n/a	20	12	4	7	1
2544992	PROB	n/a	LTP295	ltpFR2	8	n/a	n/a	n/a	20	10	2	1	7
2546444	PROB	n/a	LTP295	ltpFR2	8	n/a	n/a	n/a	20	11	1	7	3
2547614	PROB	n/a	LTP295	ltpFR2	8	n/a	n/a	n/a	20	18	4	7	7
2548947	PROB	n/a	LTP295	ltpFR2	8	n/a	n/a	n/a	20	8	3	1	4
2550146	PROB	n/a	LTP295	ltpFR2	8	n/a	n/a	n/a	20	10	3	1	6
2552061	PROB	n/a	LTP295	ltpFR2	8	n/a	n/a	n/a	20	10	1	6	3
2553183	PROB	n/a	LTP295	ltpFR2	8	n/a	n/a	n/a	20	17	9	5	3
2555069	PROB	n/a	LTP295	ltpFR2	8	n/a	n/a	n/a	20	16	8	6	2
2558701	PROB	n/a	LTP295	ltpFR2	8	n/a	n/a	n/a	20	6	2	2	2
2559884	PROB	n/a	LTP295	ltpFR2	8	n/a	n/a	n/a	20	13	4	3	6
2561523	PROB	n/a	LTP295	ltpFR2	8	n/a	n/a	n/a	20	18	8	8	2
2562825	STOP	n/a	LTP295	ltpFR2	8	n/a	n/a	n/a	20	n/a	n/a	n/a	n/a
2566190	REC_START	n/a	LTP295	ltpFR2	8	12	n/a	n/a	n/a	n/a	0	0	0
2567300	REC_WORD	wordpools/wasnorm_wordpool_576.txt	LTP295	ltpFR2	8	12	CHAUFFEUR	283	n/a	n/a	0	0	0
2568327	REC_WORD	wordpools/wasnorm_wordpool_576.txt	LTP295	ltpFR2	8	12	LADY	794	n/a	n/a	0	0	0
2569189	REC_WORD	wordpools/wasnorm_wordpool_576.txt	LTP295	ltpFR2	8	12	WRENCH	1625	n/a	n/a	0	0	0
2569941	REC_WORD	wordpools/wasnorm_wordpool_576.txt	LTP295	ltpFR2	8	12	SPOON	1357	n/a	n/a	0	0	0
2570941	REC_WORD_VV	wordpools/wasnorm_wordpool_576.txt	LTP295	ltpFR2	8	12	<>	-1	n/a	n/a	0	0	0
2572600	REC_WORD	wordpools/wasnorm_wordpool_576.txt	LTP295	ltpFR2	8	12	WRIST	1626	n/a	n/a	0	0	0
2573235	REC_WORD	wordpools/wasnorm_wordpool_576.txt	LTP295	ltpFR2	8	12	GLOVE	642	n/a	n/a	0	0	0
2573849	REC_WORD	wordpools/wasnorm_wordpool_576.txt	LTP295	ltpFR2	8	12	HAWK	692	n/a	n/a	0	0	0
2574633	REC_WORD	wordpools/wasnorm_wordpool_576.txt	LTP295	ltpFR2	8	12	SEAFOOD	1260	n/a	n/a	0	0	0
2575595	REC_WORD	wordpools/wasnorm_wordpool_576.txt	LTP295	ltpFR2	8	12	CRAB	397	n/a	n/a	0	0	0
2576447	REC_WORD	wordpools/wasnorm_wordpool_576.txt	LTP295	ltpFR2	8	12	ITEM	746	n/a	n/a	0	0	0
2577157	REC_WORD	wordpools/wasnorm_wordpool_576.txt	LTP295	ltpFR2	8	12	DOUGHNUT	490	n/a	n/a	0	0	0
2579464	REC_WORD	wordpools/wasnorm_wordpool_576.txt	LTP295	ltpFR2	8	12	WAGON	1578	n/a	n/a	0	0	0
2580141	REC_WORD	wordpools/wasnorm_wordpool_576.txt	LTP295	ltpFR2	8	12	CARRIAGE	248	n/a	n/a	0	0	0
2581204	REC_WORD	wordpools/wasnorm_wordpool_576.txt	LTP295	ltpFR2	8	12	COFFEE	341	n/a	n/a	0	0	0
2582240	REC_WORD	wordpools/wasnorm_wordpool_576.txt	LTP295	ltpFR2	8	12	BARREL	91	n/a	n/a	0	0	0
2582712	REC_WORD	wordpools/wasnorm_wordpool_576.txt	LTP295	ltpFR2	8	12	SANDWICH	1232	n/a	n/a	0	0	0
2583732	REC_WORD	wordpools/wasnorm_wordpool_576.txt	LTP295	ltpFR2	8	12	DAISY	435	n/a	n/a	0	0	0
2585425	REC_WORD	wordpools/wasnorm_wordpool_576.txt	LTP295	ltpFR2	8	12	STAR	1373	n/a	n/a	0	0	0
2587086	REC_WORD	wordpools/wasnorm_wordpool_576.txt	LTP295	ltpFR2	8	12	LAGOON	795	n/a	n/a	0	0	0
2587817	REC_WORD	wordpools/wasnorm_wordpool_576.txt	LTP295	ltpFR2	8	12	WORLD	1622	n/a	n/a	0	0	0
2588251	REC_WORD	wordpools/wasnorm_wordpool_576.txt	LTP295	ltpFR2	8	12	SHOULDER	1294	n/a	n/a	0	0	0
2589070	REC_WORD	wordpools/wasnorm_wordpool_576.txt	LTP295	ltpFR2	8	12	DIVER	476	n/a	n/a	0	0	0
2590036	REC_WORD	wordpools/wasnorm_wordpool_576.txt	LTP295	ltpFR2	8	12	BABY	64	n/a	n/a	0	0	0
2590568	REC_WORD	wordpools/wasnorm_wordpool_576.txt	LTP295	ltpFR2	8	12	FLASHLIGHT	575	n/a	n/a	0	0	0
2676199	DISTRACTOR	n/a	LTP295	ltpFR2	8	13	n/a	n/a	n/a	n/a	0	0	0
2676200	START	n/a	LTP295	ltpFR2	8	n/a	n/a	n/a	21	n/a	n/a	n/a	n/a
2676214	PROB	n/a	LTP295	ltpFR2	8	n/a	n/a	n/a	21	19	4	7	8
2677882	PROB	n/a	LTP295	ltpFR2	8	n/a	n/a	n/a	21	12	2	6	4
2680101	PROB	n/a	LTP295	ltpFR2	8	n/a	n/a	n/a	21	5	3	1	1
2681202	PROB	n/a	LTP295	ltpFR2	8	n/a	n/a	n/a	21	25	8	8	9
2682969	PROB	n/a	LTP295	ltpFR2	8	n/a	n/a	n/a	21	16	7	4	5
2684788	PROB	n/a	LTP295	ltpFR2	8	n/a	n/a	n/a	21	16	9	4	3
2686373	PROB	n/a	LTP295	ltpFR2	8	n/a	n/a	n/a	21	18	5	7	6
2688642	PROB	n/a	LTP295	ltpFR2	8	n/a	n/a	n/a	21	19	6	4	9
2690009	PROB	n/a	LTP295	ltpFR2	8	n/a	n/a	n/a	21	16	7	6	3
2692011	PROB	n/a	LTP295	ltpFR2	8	n/a	n/a	n/a	21	13	7	2	4
2693929	PROB	n/a	LTP295	ltpFR2	8	n/a	n/a	n/a	21	13	6	2	5
2697300	PROB	n/a	LTP295	ltpFR2	8	n/a	n/a	n/a	21	22	5	8	9
2699878	STOP	n/a	LTP295	ltpFR2	8	n/a	n/a	n/a	21	n/a	n/a	n/a	n/a
2701219	WORD	wordpools/wasnorm_wordpool_576.txt	LTP295	ltpFR2	8	13	BEEF	113	n/a	n/a	0	0	0
2703739	WORD	wordpools/wasnorm_wordpool_576.txt	LTP295	ltpFR2	8	13	COIN	343	n/a	n/a	0	0	0
2706390	WORD	wordpools/wasnorm_wordpool_576.txt	LTP295	ltpFR2	8	13	LIGHTNING	820	n/a	n/a	0	0	0
2709142	WORD	wordpools/wasnorm_wordpool_576.txt	LTP295	ltpFR2	8	13	GAZELLE	628	n/a	n/a	0	0	0
2711868	WORD	wordpools/wasnorm_wordpool_576.txt	LTP295	ltpFR2	8	13	BUTCHER	203	n/a	n/a	0	0	0
2714496	WORD	wordpools/wasnorm_wordpool_576.txt	LTP295	ltpFR2	8	13	SEAL	1262	n/a	n/a	0	0	0
2717072	WORD	wordpools/wasnorm_wordpool_576.txt	LTP295	ltpFR2	8	13	HANDBAG	684	n/a	n/a	0	0	0
2719609	WORD	wordpools/wasnorm_wordpool_576.txt	LTP295	ltpFR2	8	13	NOMAD	955	n/a	n/a	0	0	0
2722277	WORD	wordpools/wasnorm_wordpool_576.txt	LTP295	ltpFR2	8	13	STONE	1385	n/a	n/a	0	0	0
2724888	WORD	wordpools/wasnorm_wordpool_576.txt	LTP295	ltpFR2	8	13	DRIVER	499	n/a	n/a	0	0	0
2727690	WORD	wordpools/wasnorm_wordpool_576.txt	LTP295	ltpFR2	8	13	OMELET	976	n/a	n/a	0	0	0
2730267	WORD	wordpools/wasnorm_wordpool_576.txt	LTP295	ltpFR2	8	13	BACON	67	n/a	n/a	0	0	0
2732812	WORD	wordpools/wasnorm_wordpool_576.txt	LTP295	ltpFR2	8	13	CASHIER	254	n/a	n/a	0	0	0
2735631	WORD	wordpools/wasnorm_wordpool_576.txt	LTP295	ltpFR2	8	13	WAITER	1580	n/a	n/a	0	0	0
2738275	WORD	wordpools/wasnorm_wordpool_576.txt	LTP295	ltpFR2	8	13	SERVANT	1271	n/a	n/a	0	0	0
2740761	WORD	wordpools/wasnorm_wordpool_576.txt	LTP295	ltpFR2	8	13	LADDER	793	n/a	n/a	0	0	0
2743329	WORD	wordpools/wasnorm_wordpool_576.txt	LTP295	ltpFR2	8	13	CEILING	265	n/a	n/a	0	0	0
2746021	WORD	wordpools/wasnorm_wordpool_576.txt	LTP295	ltpFR2	8	13	WARDROBE	1587	n/a	n/a	0	0	0
2748758	WORD	wordpools/wasnorm_wordpool_576.txt	LTP295	ltpFR2	8	13	COUNTRY	388	n/a	n/a	0	0	0
2751185	WORD	wordpools/wasnorm_wordpool_576.txt	LTP295	ltpFR2	8	13	YACHT	1629	n/a	n/a	0	0	0
2753739	WORD	wordpools/wasnorm_wordpool_576.txt	LTP295	ltpFR2	8	13	CATCHER	258	n/a	n/a	0	0	0
2756230	WORD	wordpools/wasnorm_wordpool_576.txt	LTP295	ltpFR2	8	13	MISTER	901	n/a	n/a	0	0	0
2758849	WORD	wordpools/wasnorm_wordpool_576.txt	LTP295	ltpFR2	8	13	STREAM	1392	n/a	n/a	0	0	0
2761619	WORD	wordpools/wasnorm_wordpool_576.txt	LTP295	ltpFR2	8	13	VIRUS	1572	n/a	n/a	0	0	0
2763230	START	n/a	LTP295	ltpFR2	8	n/a	n/a	n/a	22	n/a	n/a	n/a	n/a
2764383	DISTRACTOR	n/a	LTP295	ltpFR2	8	13	n/a	n/a	n/a	n/a	0	0	0
2764397	PROB	n/a	LTP295	ltpFR2	8	n/a	n/a	n/a	22	9	5	1	3
2766136	PROB	n/a	LTP295	ltpFR2	8	n/a	n/a	n/a	22	13	6	2	5
2769139	PROB	n/a	LTP295	ltpFR2	8	n/a	n/a	n/a	22	18	9	1	8
2770390	PROB	n/a	LTP295	ltpFR2	8	n/a	n/a	n/a	22	15	4	5	6
2772192	PROB	n/a	LTP295	ltpFR2	8	n/a	n/a	n/a	22	1	6	4	9
2774111	PROB	n/a	LTP295	ltpFR2	8	n/a	n/a	n/a	22	12	5	2	5
2775878	PROB	n/a	LTP295	ltpFR2	8	n/a	n/a	n/a	22	16	4	4	8
2777414	PROB	n/a	LTP295	ltpFR2	8	n/a	n/a	n/a	22	14	6	5	3
2779265	PROB	n/a	LTP295	ltpFR2	8	n/a	n/a	n/a	22	17	7	2	8
2780816	PROB	n/a	LTP295	ltpFR2	8	n/a	n/a	n/a	22	6	1	1	4
2781984	PROB	n/a	LTP295	ltpFR2	8	n/a	n/a	n/a	22	13	4	8	3
2783668	PROB	n/a	LTP295	ltpFR2	8	n/a	n/a	n/a	22	15	3	9	3
2785354	PROB	n/a	LTP295	ltpFR2	8	n/a	n/a	n/a	22	13	6	1	6
2786538	STOP	n/a	LTP295	ltpFR2	8	n/a	n/a	n/a	22	n/a	n/a	n/a	n/a
2789107	REC_START	n/a	LTP295	ltpFR2	8	13	n/a	n/a	n/a	n/a	0	0	0
2790539	REC_WORD	wordpools/wasnorm_wordpool_576.txt	LTP295	ltpFR2	8	13	GAZELLE	628	n/a	n/a	0	0	0
2791444	REC_WORD	wordpools/wasnorm_wordpool_576.txt	LTP295	ltpFR2	8	13	BEEF	113	n/a	n/a	0	0	0
2792082	REC_WORD	wordpools/wasnorm_wordpool_576.txt	LTP295	ltpFR2	8	13	COIN	343	n/a	n/a	0	0	0
2793123	REC_WORD	wordpools/wasnorm_wordpool_576.txt	LTP295	ltpFR2	8	13	SEAL	1262	n/a	n/a	0	0	0
2793775	REC_WORD	wordpools/wasnorm_wordpool_576.txt	LTP295	ltpFR2	8	13	STONE	1385	n/a	n/a	0	0	0
2794361	REC_WORD	wordpools/wasnorm_wordpool_576.txt	LTP295	ltpFR2	8	13	HANDBAG	684	n/a	n/a	0	0	0
2795142	REC_WORD	wordpools/wasnorm_wordpool_576.txt	LTP295	ltpFR2	8	13	NOMAD	955	n/a	n/a	0	0	0
2795920	REC_WORD	wordpools/wasnorm_wordpool_576.txt	LTP295	ltpFR2	8	13	BUTCHER	203	n/a	n/a	0	0	0
2798396	REC_WORD	wordpools/wasnorm_wordpool_576.txt	LTP295	ltpFR2	8	13	LIGHTNING	820	n/a	n/a	0	0	0
2799833	REC_WORD	wordpools/wasnorm_wordpool_576.txt	LTP295	ltpFR2	8	13	DRIVER	499	n/a	n/a	0	0	0
2800936	REC_WORD	wordpools/wasnorm_wordpool_576.txt	LTP295	ltpFR2	8	13	CASHIER	254	n/a	n/a	0	0	0
2801884	REC_WORD	wordpools/wasnorm_wordpool_576.txt	LTP295	ltpFR2	8	13	WAITER	1580	n/a	n/a	0	0	0
2802572	REC_WORD	wordpools/wasnorm_wordpool_576.txt	LTP295	ltpFR2	8	13	SERVANT	1271	n/a	n/a	0	0	0
2803572	REC_WORD_VV	wordpools/wasnorm_wordpool_576.txt	LTP295	ltpFR2	8	13	<>	-1	n/a	n/a	0	0	0
2803943	REC_WORD	wordpools/wasnorm_wordpool_576.txt	LTP295	ltpFR2	8	13	OMELET	976	n/a	n/a	0	0	0
2804583	REC_WORD	wordpools/wasnorm_wordpool_576.txt	LTP295	ltpFR2	8	13	BACON	67	n/a	n/a	0	0	0
2806099	REC_WORD	wordpools/wasnorm_wordpool_576.txt	LTP295	ltpFR2	8	13	LADDER	793	n/a	n/a	0	0	0
2806617	REC_WORD	wordpools/wasnorm_wordpool_576.txt	LTP295	ltpFR2	8	13	CEILING	265	n/a	n/a	0	0	0
2807617	REC_WORD_VV	wordpools/wasnorm_wordpool_576.txt	LTP295	ltpFR2	8	13	<>	-1	n/a	n/a	0	0	0
2822582	REC_WORD	wordpools/wasnorm_wordpool_576.txt	LTP295	ltpFR2	8	13	BUREAU	199	n/a	n/a	0	0	0
2824037	REC_WORD	wordpools/wasnorm_wordpool_576.txt	LTP295	ltpFR2	8	13	COUNTRY	388	n/a	n/a	0	0	0
2824788	REC_WORD	wordpools/wasnorm_wordpool_576.txt	LTP295	ltpFR2	8	13	YACHT	1629	n/a	n/a	0	0	0
2825446	REC_WORD	wordpools/wasnorm_wordpool_576.txt	LTP295	ltpFR2	8	13	STREAM	1392	n/a	n/a	0	0	0
2826446	REC_WORD_VV	wordpools/wasnorm_wordpool_576.txt	LTP295	ltpFR2	8	13	<>	-1	n/a	n/a	0	0	0
2826662	REC_WORD	wordpools/wasnorm_wordpool_576.txt	LTP295	ltpFR2	8	13	VIRUS	1572	n/a	n/a	0	0	0
2827662	REC_WORD_VV	wordpools/wasnorm_wordpool_576.txt	LTP295	ltpFR2	8	13	<>	-1	n/a	n/a	0	0	0
2859856	REC_WORD	wordpools/wasnorm_wordpool_576.txt	LTP295	ltpFR2	8	13	COUNTRY	388	n/a	n/a	0	0	0
2861853	REC_WORD_VV	wordpools/wasnorm_wordpool_576.txt	LTP295	ltpFR2	8	13	<>	-1	n/a	n/a	0	0	0
2879563	WORD	wordpools/wasnorm_wordpool_576.txt	LTP295	ltpFR2	8	14	SEAGULL	1261	n/a	n/a	0	0	0
2882214	WORD	wordpools/wasnorm_wordpool_576.txt	LTP295	ltpFR2	8	14	PARSLEY	1016	n/a	n/a	0	0	0
2884867	WORD	wordpools/wasnorm_wordpool_576.txt	LTP295	ltpFR2	8	14	CUPBOARD	425	n/a	n/a	0	0	0
2887537	WORD	wordpools/wasnorm_wordpool_576.txt	LTP295	ltpFR2	8	14	DRAGON	492	n/a	n/a	0	0	0
2889987	WORD	wordpools/wasnorm_wordpool_576.txt	LTP295	ltpFR2	8	14	LAMP	798	n/a	n/a	0	0	0
2892492	WORD	wordpools/wasnorm_wordpool_576.txt	LTP295	ltpFR2	8	14	PRINCE	1124	n/a	n/a	0	0	0
2894991	WORD	wordpools/wasnorm_wordpool_576.txt	LTP295	ltpFR2	8	14	SPIDER	1351	n/a	n/a	0	0	0
2897777	WORD	wordpools/wasnorm_wordpool_576.txt	LTP295	ltpFR2	8	14	BUG	187	n/a	n/a	0	0	0
2900411	WORD	wordpools/wasnorm_wordpool_576.txt	LTP295	ltpFR2	8	14	SERVER	1272	n/a	n/a	0	0	0
2903064	WORD	wordpools/wasnorm_wordpool_576.txt	LTP295	ltpFR2	8	14	LEADER	807	n/a	n/a	0	0	0
2905734	WORD	wordpools/wasnorm_wordpool_576.txt	LTP295	ltpFR2	8	14	PALACE	1006	n/a	n/a	0	0	0
2908508	WORD	wordpools/wasnorm_wordpool_576.txt	LTP295	ltpFR2	8	14	SURVEY	1414	n/a	n/a	0	0	0
2911170	WORD	wordpools/wasnorm_wordpool_576.txt	LTP295	ltpFR2	8	14	QUARTER	1148	n/a	n/a	0	0	0
2913824	WORD	wordpools/wasnorm_wordpool_576.txt	LTP295	ltpFR2	8	14	GRILL	661	n/a	n/a	0	0	0
2916492	WORD	wordpools/wasnorm_wordpool_576.txt	LTP295	ltpFR2	8	14	PICNIC	1060	n/a	n/a	0	0	0
2918960	WORD	wordpools/wasnorm_wordpool_576.txt	LTP295	ltpFR2	8	14	QUAIL	1147	n/a	n/a	0	0	0
2921769	WORD	wordpools/wasnorm_wordpool_576.txt	LTP295	ltpFR2	8	14	WASHER	1592	n/a	n/a	0	0	0
2924481	WORD	wordpools/wasnorm_wordpool_576.txt	LTP295	ltpFR2	8	14	LABEL	790	n/a	n/a	0	0	0
2926984	WORD	wordpools/wasnorm_wordpool_576.txt	LTP295	ltpFR2	8	14	LASER	801	n/a	n/a	0	0	0
2929603	WORD	wordpools/wasnorm_wordpool_576.txt	LTP295	ltpFR2	8	14	VENUS	1557	n/a	n/a	0	0	0
2932077	WORD	wordpools/wasnorm_wordpool_576.txt	LTP295	ltpFR2	8	14	LEOPARD	812	n/a	n/a	0	0	0
2934524	WORD	wordpools/wasnorm_wordpool_576.txt	LTP295	ltpFR2	8	14	FRAGRANCE	599	n/a	n/a	0	0	0
2937158	WORD	wordpools/wasnorm_wordpool_576.txt	LTP295	ltpFR2	8	14	BLOCKADE	137	n/a	n/a	0	0	0
2939728	WORD	wordpools/wasnorm_wordpool_576.txt	LTP295	ltpFR2	8	14	PREACHER	1119	n/a	n/a	0	0	0
2941336	START	n/a	LTP295	ltpFR2	8	n/a	n/a	n/a	23	n/a	n/a	n/a	n/a
2942460	DISTRACTOR	n/a	LTP295	ltpFR2	8	14	n/a	n/a	n/a	n/a	0	0	0
2942469	PROB	n/a	LTP295	ltpFR2	8	n/a	n/a	n/a	23	14	6	7	1
2944162	PROB	n/a	LTP295	ltpFR2	8	n/a	n/a	n/a	23	16	5	6	5
2945414	PROB	n/a	LTP295	ltpFR2	8	n/a	n/a	n/a	23	23	6	9	6
2949584	PROB	n/a	LTP295	ltpFR2	8	n/a	n/a	n/a	23	13	3	3	7
2951819	PROB	n/a	LTP295	ltpFR2	8	n/a	n/a	n/a	23	15	7	6	2
2953788	PROB	n/a	LTP295	ltpFR2	8	n/a	n/a	n/a	23	7	1	5	1
2954971	PROB	n/a	LTP295	ltpFR2	8	n/a	n/a	n/a	23	13	6	1	6
2956707	PROB	n/a	LTP295	ltpFR2	8	n/a	n/a	n/a	23	14	5	4	5
2957873	PROB	n/a	LTP295	ltpFR2	8	n/a	n/a	n/a	23	15	6	5	4
2959376	PROB	n/a	LTP295	ltpFR2	8	n/a	n/a	n/a	23	22	9	4	8
2961511	PROB	n/a	LTP295	ltpFR2	8	n/a	n/a	n/a	23	15	9	5	1
2963212	PROB	n/a	LTP295	ltpFR2	8	n/a	n/a	n/a	23	8	6	1	1
2964169	STOP	n/a	LTP295	ltpFR2	8	n/a	n/a	n/a	23	n/a	n/a	n/a	n/a
2967182	REC_START	n/a	LTP295	ltpFR2	8	14	n/a	n/a	n/a	n/a	0	0	0
2969300	REC_WORD	wordpools/wasnorm_wordpool_576.txt	LTP295	ltpFR2	8	14	SERVER	1272	n/a	n/a	0	0	0
2970037	REC_WORD	wordpools/wasnorm_wordpool_576.txt	LTP295	ltpFR2	8	14	PRIEST	1122	n/a	n/a	0	0	0
2971251	REC_WORD	wordpools/wasnorm_wordpool_576.txt	LTP295	ltpFR2	8	14	LEADER	807	n/a	n/a	0	0	0
2972828	REC_WORD	wordpools/wasnorm_wordpool_576.txt	LTP295	ltpFR2	8	14	CUPBOARD	425	n/a	n/a	0	0	0
2973414	REC_WORD	wordpools/wasnorm_wordpool_576.txt	LTP295	ltpFR2	8	14	PARSLEY	1016	n/a	n/a	0	0	0
2974118	REC_WORD	wordpools/wasnorm_wordpool_576.txt	LTP295	ltpFR2	8	14	PRINCE	1124	n/a	n/a	0	0	0
2974654	REC_WORD	wordpools/wasnorm_wordpool_576.txt	LTP295	ltpFR2	8	14	DRAGON	492	n/a	n/a	0	0	0
2975206	REC_WORD	wordpools/wasnorm_wordpool_576.txt	LTP295	ltpFR2	8	14	SEAGULL	1261	n/a	n/a	0	0	0
2977658	REC_WORD	wordpools/wasnorm_wordpool_576.txt	LTP295	ltpFR2	8	14	LAMP	798	n/a	n/a	0	0	0
2978567	REC_WORD	wordpools/wasnorm_wordpool_576.txt	LTP295	ltpFR2	8	14	SPIDER	1351	n/a	n/a	0	0	0
2979591	REC_WORD	wordpools/wasnorm_wordpool_576.txt	LTP295	ltpFR2	8	14	BUG	187	n/a	n/a	0	0	0
2983730	REC_WORD	wordpools/wasnorm_wordpool_576.txt	LTP295	ltpFR2	8	14	VENUS	1557	n/a	n/a	0	0	0
2984400	REC_WORD	wordpools/wasnorm_wordpool_576.txt	LTP295	ltpFR2	8	14	QUAIL	1147	n/a	n/a	0	0	0
2985077	REC_WORD	wordpools/wasnorm_wordpool_576.txt	LTP295	ltpFR2	8	14	GRILL	661	n/a	n/a	0	0	0
2985675	REC_WORD	wordpools/wasnorm_wordpool_576.txt	LTP295	ltpFR2	8	14	PICNIC	1060	n/a	n/a	0	0	0
2986173	REC_WORD	wordpools/wasnorm_wordpool_576.txt	LTP295	ltpFR2	8	14	FRAGRANCE	599	n/a	n/a	0	0	0
2987095	REC_WORD	wordpools/wasnorm_wordpool_576.txt	LTP295	ltpFR2	8	14	BLOCKADE	137	n/a	n/a	0	0	0
2987890	REC_WORD	wordpools/wasnorm_wordpool_576.txt	LTP295	ltpFR2	8	14	WASHER	1592	n/a	n/a	0	0	0
2988498	REC_WORD	wordpools/wasnorm_wordpool_576.txt	LTP295	ltpFR2	8	14	LASER	801	n/a	n/a	0	0	0
3057638	WORD	wordpools/wasnorm_wordpool_576.txt	LTP295	ltpFR2	8	15	THREAD	1460	n/a	n/a	0	0	0
3060355	WORD	wordpools/wasnorm_wordpool_576.txt	LTP295	ltpFR2	8	15	NECKLACE	940	n/a	n/a	0	0	0
3063058	WORD	wordpools/wasnorm_wordpool_576.txt	LTP295	ltpFR2	8	15	MARKER	870	n/a	n/a	0	0	0
3065796	WORD	wordpools/wasnorm_wordpool_576.txt	LTP295	ltpFR2	8	15	HORNET	718	n/a	n/a	0	0	0
3068329	WORD	wordpools/wasnorm_wordpool_576.txt	LTP295	ltpFR2	8	15	WORKER	1621	n/a	n/a	0	0	0
3071149	WORD	wordpools/wasnorm_wordpool_576.txt	LTP295	ltpFR2	8	15	OUTLAW	989	n/a	n/a	0	0	0
3073818	WORD	wordpools/wasnorm_wordpool_576.txt	LTP295	ltpFR2	8	15	RAZOR	1171	n/a	n/a	0	0	0
3076604	WORD	wordpools/wasnorm_wordpool_576.txt	LTP295	ltpFR2	8	15	GYMNAST	675	n/a	n/a	0	0	0
3079422	WORD	wordpools/wasnorm_wordpool_576.txt	LTP295	ltpFR2	8	15	GARLIC	624	n/a	n/a	0	0	0
3082224	WORD	wordpools/wasnorm_wordpool_576.txt	LTP295	ltpFR2	8	15	PERFUME	1049	n/a	n/a	0	0	0
3084844	WORD	wordpools/wasnorm_wordpool_576.txt	LTP295	ltpFR2	8	15	MOTEL	919	n/a	n/a	0	0	0
3087546	WORD	wordpools/wasnorm_wordpool_576.txt	LTP295	ltpFR2	8	15	POWDER	1117	n/a	n/a	0	0	0
3090081	WORD	wordpools/wasnorm_wordpool_576.txt	LTP295	ltpFR2	8	15	BASEMENT	94	n/a	n/a	0	0	0
3092784	WORD	wordpools/wasnorm_wordpool_576.txt	LTP295	ltpFR2	8	15	ARM	38	n/a	n/a	0	0	0
3095553	WORD	wordpools/wasnorm_wordpool_576.txt	LTP295	ltpFR2	8	15	KEEPER	769	n/a	n/a	0	0	0
3097988	WORD	wordpools/wasnorm_wordpool_576.txt	LTP295	ltpFR2	8	15	ULCER	1533	n/a	n/a	0	0	0
3100607	WORD	wordpools/wasnorm_wordpool_576.txt	LTP295	ltpFR2	8	15	CONVICT	371	n/a	n/a	0	0	0
3103342	WORD	wordpools/wasnorm_wordpool_576.txt	LTP295	ltpFR2	8	15	PAIL	1002	n/a	n/a	0	0	0
3106061	WORD	wordpools/wasnorm_wordpool_576.txt	LTP295	ltpFR2	8	15	COUSIN	392	n/a	n/a	0	0	0
3108647	WORD	wordpools/wasnorm_wordpool_576.txt	LTP295	ltpFR2	8	15	UMPIRE	1535	n/a	n/a	0	0	0
3111164	WORD	wordpools/wasnorm_wordpool_576.txt	LTP295	ltpFR2	8	15	OUTFIT	988	n/a	n/a	0	0	0
3113634	WORD	wordpools/wasnorm_wordpool_576.txt	LTP295	ltpFR2	8	15	CLOTHES	327	n/a	n/a	0	0	0
3116202	WORD	wordpools/wasnorm_wordpool_576.txt	LTP295	ltpFR2	8	15	JUGGLER	763	n/a	n/a	0	0	0
3118940	WORD	wordpools/wasnorm_wordpool_576.txt	LTP295	ltpFR2	8	15	EYELASH	546	n/a	n/a	0	0	0
3120557	START	n/a	LTP295	ltpFR2	8	n/a	n/a	n/a	24	n/a	n/a	n/a	n/a
3121647	DISTRACTOR	n/a	LTP295	ltpFR2	8	15	n/a	n/a	n/a	n/a	0	0	0
3121657	PROB	n/a	LTP295	ltpFR2	8	n/a	n/a	n/a	24	10	8	1	1
3123124	PROB	n/a	LTP295	ltpFR2	8	n/a	n/a	n/a	24	14	6	1	7
3124758	PROB	n/a	LTP295	ltpFR2	8	n/a	n/a	n/a	24	8	2	5	1
3126060	PROB	n/a	LTP295	ltpFR2	8	n/a	n/a	n/a	24	24	9	8	7
3129412	PROB	n/a	LTP295	ltpFR2	8	n/a	n/a	n/a	24	13	6	3	4
3130995	PROB	n/a	LTP295	ltpFR2	8	n/a	n/a	n/a	24	25	9	9	7
3132431	PROB	n/a	LTP295	ltpFR2	8	n/a	n/a	n/a	24	10	6	3	1
3134884	PROB	n/a	LTP295	ltpFR2	8	n/a	n/a	n/a	24	18	9	1	8
3136300	PROB	n/a	LTP295	ltpFR2	8	n/a	n/a	n/a	24	18	4	8	6
3138119	PROB	n/a	LTP295	ltpFR2	8	n/a	n/a	n/a	24	12	5	2	5
3139370	PROB	n/a	LTP295	ltpFR2	8	n/a	n/a	n/a	24	14	3	8	1
3141204	PROB	n/a	LTP295	ltpFR2	8	n/a	n/a	n/a	24	12	7	1	4
3143537	STOP	n/a	LTP295	ltpFR2	8	n/a	n/a	n/a	24	n/a	n/a	n/a	n/a
3146343	REC_START	n/a	LTP295	ltpFR2	8	15	n/a	n/a	n/a	n/a	0	0	0
3147444	REC_WORD	wordpools/wasnorm_wordpool_576.txt	LTP295	ltpFR2	8	15	CATCHER	258	n/a	n/a	0	0	0
3148039	REC_WORD	wordpools/wasnorm_wordpool_576.txt	LTP295	ltpFR2	8	15	UMPIRE	1535	n/a	n/a	0	0	0
3148774	REC_WORD	wordpools/wasnorm_wordpool_576.txt	LTP295	ltpFR2	8	15	EYELASH	546	n/a	n/a	0	0	0
3149420	REC_WORD	wordpools/wasnorm_wordpool_576.txt	LTP295	ltpFR2	8	15	CLOTHES	327	n/a	n/a	0	0	0
3149917	REC_WORD	wordpools/wasnorm_wordpool_576.txt	LTP295	ltpFR2	8	15	OUTFIT	988	n/a	n/a	0	0	0
3153663	REC_WORD_VV	wordpools/wasnorm_wordpool_576.txt	LTP295	ltpFR2	8	15	<>	-1	n/a	n/a	0	0	0
3156838	REC_WORD	wordpools/wasnorm_wordpool_576.txt	LTP295	ltpFR2	8	15	GYMNAST	675	n/a	n/a	0	0	0
3158795	REC_WORD	wordpools/wasnorm_wordpool_576.txt	LTP295	ltpFR2	8	15	GARLIC	624	n/a	n/a	0	0	0
3159559	REC_WORD	wordpools/wasnorm_wordpool_576.txt	LTP295	ltpFR2	8	15	PERFUME	1049	n/a	n/a	0	0	0
3162221	REC_WORD	wordpools/wasnorm_wordpool_576.txt	LTP295	ltpFR2	8	15	PAIL	1002	n/a	n/a	0	0	0
3162954	REC_WORD	wordpools/wasnorm_wordpool_576.txt	LTP295	ltpFR2	8	15	POWDER	1117	n/a	n/a	0	0	0
3167114	REC_WORD	wordpools/wasnorm_wordpool_576.txt	LTP295	ltpFR2	8	15	THREAD	1460	n/a	n/a	0	0	0
3168000	REC_WORD	wordpools/wasnorm_wordpool_576.txt	LTP295	ltpFR2	8	15	NECKLACE	940	n/a	n/a	0	0	0
3169016	REC_WORD	wordpools/wasnorm_wordpool_576.txt	LTP295	ltpFR2	8	15	MARKER	870	n/a	n/a	0	0	0
3169822	REC_WORD	wordpools/wasnorm_wordpool_576.txt	LTP295	ltpFR2	8	15	HORNET	718	n/a	n/a	0	0	0
3170822	REC_WORD_VV	wordpools/wasnorm_wordpool_576.txt	LTP295	ltpFR2	8	15	<>	-1	n/a	n/a	0	0	0
3174228	REC_WORD	wordpools/wasnorm_wordpool_576.txt	LTP295	ltpFR2	8	15	OUTLAW	989	n/a	n/a	0	0	0
3175075	REC_WORD	wordpools/wasnorm_wordpool_576.txt	LTP295	ltpFR2	8	15	WORKER	1621	n/a	n/a	0	0	0
3175803	REC_WORD	wordpools/wasnorm_wordpool_576.txt	LTP295	ltpFR2	8	15	CONVICT	371	n/a	n/a	0	0	0
3176803	REC_WORD_VV	wordpools/wasnorm_wordpool_576.txt	LTP295	ltpFR2	8	15	<>	-1	n/a	n/a	0	0	0
3177092	REC_WORD	wordpools/wasnorm_wordpool_576.txt	LTP295	ltpFR2	8	15	RAZOR	1171	n/a	n/a	0	0	0
3216099	REC_WORD	wordpools/wasnorm_wordpool_576.txt	LTP295	ltpFR2	8	15	KEEPER	769	n/a	n/a	0	0	0
3217916	REC_WORD	wordpools/wasnorm_wordpool_576.txt	LTP295	ltpFR2	8	15	COUSIN	392	n/a	n/a	0	0	0
3219119	REC_WORD	wordpools/wasnorm_wordpool_576.txt	LTP295	ltpFR2	8	15	MOTEL	919	n/a	n/a	0	0	0
3219650	REC_WORD	wordpools/wasnorm_wordpool_576.txt	LTP295	ltpFR2	8	15	BASEMENT	94	n/a	n/a	0	0	0
3236781	WORD	wordpools/wasnorm_wordpool_576.txt	LTP295	ltpFR2	8	16	WIFE	1609	n/a	n/a	0	0	0
3239562	WORD	wordpools/wasnorm_wordpool_576.txt	LTP295	ltpFR2	8	16	HOOD	714	n/a	n/a	0	0	0
3242197	WORD	wordpools/wasnorm_wordpool_576.txt	LTP295	ltpFR2	8	16	KNIFE	785	n/a	n/a	0	0	0
3244916	WORD	wordpools/wasnorm_wordpool_576.txt	LTP295	ltpFR2	8	16	FRIAR	605	n/a	n/a	0	0	0
3247351	WORD	wordpools/wasnorm_wordpool_576.txt	LTP295	ltpFR2	8	16	DRUG	501	n/a	n/a	0	0	0
3250037	WORD	wordpools/wasnorm_wordpool_576.txt	LTP295	ltpFR2	8	16	FUNGUS	614	n/a	n/a	0	0	0
3252613	WORD	wordpools/wasnorm_wordpool_576.txt	LTP295	ltpFR2	8	16	LODGE	839	n/a	n/a	0	0	0
3255258	WORD	wordpools/wasnorm_wordpool_576.txt	LTP295	ltpFR2	8	16	SMOG	1330	n/a	n/a	0	0	0
3257894	WORD	wordpools/wasnorm_wordpool_576.txt	LTP295	ltpFR2	8	16	POISON	1096	n/a	n/a	0	0	0
3260484	WORD	wordpools/wasnorm_wordpool_576.txt	LTP295	ltpFR2	8	16	COTTAGE	384	n/a	n/a	0	0	0
3262982	WORD	wordpools/wasnorm_wordpool_576.txt	LTP295	ltpFR2	8	16	SCARF	1246	n/a	n/a	0	0	0
3265484	WORD	wordpools/wasnorm_wordpool_576.txt	LTP295	ltpFR2	8	16	MILDEW	893	n/a	n/a	0	0	0
3268237	WORD	wordpools/wasnorm_wordpool_576.txt	LTP295	ltpFR2	8	16	FOREHEAD	592	n/a	n/a	0	0	0
3271005	WORD	wordpools/wasnorm_wordpool_576.txt	LTP295	ltpFR2	8	16	DORM	488	n/a	n/a	0	0	0
3273559	WORD	wordpools/wasnorm_wordpool_576.txt	LTP295	ltpFR2	8	16	CURTAIN	427	n/a	n/a	0	0	0
3276281	WORD	wordpools/wasnorm_wordpool_576.txt	LTP295	ltpFR2	8	16	SKIRT	1319	n/a	n/a	0	0	0
3278800	WORD	wordpools/wasnorm_wordpool_576.txt	LTP295	ltpFR2	8	16	LAPEL	800	n/a	n/a	0	0	0
3281498	WORD	wordpools/wasnorm_wordpool_576.txt	LTP295	ltpFR2	8	16	CYCLONE	431	n/a	n/a	0	0	0
3284200	WORD	wordpools/wasnorm_wordpool_576.txt	LTP295	ltpFR2	8	16	SALMON	1227	n/a	n/a	0	0	0
3286804	WORD	wordpools/wasnorm_wordpool_576.txt	LTP295	ltpFR2	8	16	CRUTCH	417	n/a	n/a	0	0	0
3289388	WORD	wordpools/wasnorm_wordpool_576.txt	LTP295	ltpFR2	8	16	SHARK	1275	n/a	n/a	0	0	0
3291907	WORD	wordpools/wasnorm_wordpool_576.txt	LTP295	ltpFR2	8	16	COD	340	n/a	n/a	0	0	0
3294392	WORD	wordpools/wasnorm_wordpool_576.txt	LTP295	ltpFR2	8	16	MILK	895	n/a	n/a	0	0	0
3297079	WORD	wordpools/wasnorm_wordpool_576.txt	LTP295	ltpFR2	8	16	REBEL	1172	n/a	n/a	0	0	0
3298698	START	n/a	LTP295	ltpFR2	8	n/a	n/a	n/a	25	n/a	n/a	n/a	n/a
3299872	DISTRACTOR	n/a	LTP295	ltpFR2	8	16	n/a	n/a	n/a	n/a	0	0	0
3299881	PROB	n/a	LTP295	ltpFR2	8	n/a	n/a	n/a	25	15	1	7	7
3304668	PROB	n/a	LTP295	ltpFR2	8	n/a	n/a	n/a	25	15	3	3	9
3308721	PROB	n/a	LTP295	ltpFR2	8	n/a	n/a	n/a	25	12	1	4	7
3312493	PROB	n/a	LTP295	ltpFR2	8	n/a	n/a	n/a	25	12	5	4	3
3314911	PROB	n/a	LTP295	ltpFR2	8	n/a	n/a	n/a	25	10	7	2	1
3316548	PROB	n/a	LTP295	ltpFR2	8	n/a	n/a	n/a	25	10	5	1	4
3318046	PROB	n/a	LTP295	ltpFR2	8	n/a	n/a	n/a	25	19	2	9	8
3319864	PROB	n/a	LTP295	ltpFR2	8	n/a	n/a	n/a	25	12	2	6	4
3321927	STOP	n/a	LTP295	ltpFR2	8	n/a	n/a	n/a	25	n/a	n/a	n/a	n/a
3324521	REC_START	n/a	LTP295	ltpFR2	8	16	n/a	n/a	n/a	n/a	0	0	0
3326391	REC_WORD	wordpools/wasnorm_wordpool_576.txt	LTP295	ltpFR2	8	16	SALMON	1227	n/a	n/a	0	0	0
3327023	REC_WORD	wordpools/wasnorm_wordpool_576.txt	LTP295	ltpFR2	8	16	SHARK	1275	n/a	n/a	0	0	0
3327686	REC_WORD	wordpools/wasnorm_wordpool_576.txt	LTP295	ltpFR2	8	16	COD	340	n/a	n/a	0	0	0
3328227	REC_WORD	wordpools/wasnorm_wordpool_576.txt	LTP295	ltpFR2	8	16	MILK	895	n/a	n/a	0	0	0
3332637	REC_WORD	wordpools/wasnorm_wordpool_576.txt	LTP295	ltpFR2	8	16	WIFE	1609	n/a	n/a	0	0	0
3333293	REC_WORD	wordpools/wasnorm_wordpool_576.txt	LTP295	ltpFR2	8	16	FRIAR	605	n/a	n/a	0	0	0
3333972	REC_WORD	wordpools/wasnorm_wordpool_576.txt	LTP295	ltpFR2	8	16	HOOD	714	n/a	n/a	0	0	0
3334404	REC_WORD	wordpools/wasnorm_wordpool_576.txt	LTP295	ltpFR2	8	16	SCARF	1246	n/a	n/a	0	0	0
3335404	REC_WORD_VV	wordpools/wasnorm_wordpool_576.txt	LTP295	ltpFR2	8	16	<>	-1	n/a	n/a	0	0	0
3336275	REC_WORD	wordpools/wasnorm_wordpool_576.txt	LTP295	ltpFR2	8	16	KNIFE	785	n/a	n/a	0	0	0
3337201	REC_WORD	wordpools/wasnorm_wordpool_576.txt	LTP295	ltpFR2	8	16	DRUG	501	n/a	n/a	0	0	0
3337896	REC_WORD	wordpools/wasnorm_wordpool_576.txt	LTP295	ltpFR2	8	16	MILDEW	893	n/a	n/a	0	0	0
3338896	REC_WORD_VV	wordpools/wasnorm_wordpool_576.txt	LTP295	ltpFR2	8	16	<>	-1	n/a	n/a	0	0	0
3340110	REC_WORD	wordpools/wasnorm_wordpool_576.txt	LTP295	ltpFR2	8	16	FUNGUS	614	n/a	n/a	0	0	0
3341110	REC_WORD_VV	wordpools/wasnorm_wordpool_576.txt	LTP295	ltpFR2	8	16	<>	-1	n/a	n/a	0	0	0
3345403	REC_WORD	wordpools/wasnorm_wordpool_576.txt	LTP295	ltpFR2	8	16	CURTAIN	427	n/a	n/a	0	0	0
3346417	REC_WORD	wordpools/wasnorm_wordpool_576.txt	LTP295	ltpFR2	8	16	SKIRT	1319	n/a	n/a	0	0	0
3347529	REC_WORD	wordpools/wasnorm_wordpool_576.txt	LTP295	ltpFR2	8	16	LAPEL	800	n/a	n/a	0	0	0
3401052	REST_REWET	n/a	LTP295	ltpFR2	8	16	n/a	n/a	n/a	n/a	0	0	0
3588031	DISTRACTOR	n/a	LTP295	ltpFR2	8	17	n/a	n/a	n/a	n/a	0	0	0
3588031	START	n/a	LTP295	ltpFR2	8	n/a	n/a	n/a	26	n/a	n/a	n/a	n/a
3588047	PROB	n/a	LTP295	ltpFR2	8	n/a	n/a	n/a	26	24	8	7	9
3591248	PROB	n/a	LTP295	ltpFR2	8	n/a	n/a	n/a	26	17	6	4	7
3592535	PROB	n/a	LTP295	ltpFR2	8	n/a	n/a	n/a	26	15	3	9	3
3594118	PROB	n/a	LTP295	ltpFR2	8	n/a	n/a	n/a	26	12	2	6	5
3596869	PROB	n/a	LTP295	ltpFR2	8	n/a	n/a	n/a	26	15	3	5	7
3599306	PROB	n/a	LTP295	ltpFR2	8	n/a	n/a	n/a	26	10	3	1	6
3600674	PROB	n/a	LTP295	ltpFR2	8	n/a	n/a	n/a	26	16	4	8	4
3602759	PROB	n/a	LTP295	ltpFR2	8	n/a	n/a	n/a	26	13	8	1	4
3605561	PROB	n/a	LTP295	ltpFR2	8	n/a	n/a	n/a	26	11	2	5	4
3607346	PROB	n/a	LTP295	ltpFR2	8	n/a	n/a	n/a	26	20	8	9	3
3609882	PROB	n/a	LTP295	ltpFR2	8	n/a	n/a	n/a	26	8	4	1	3
3611564	STOP	n/a	LTP295	ltpFR2	8	n/a	n/a	n/a	26	n/a	n/a	n/a	n/a
3612968	WORD	wordpools/wasnorm_wordpool_576.txt	LTP295	ltpFR2	8	17	OZONE	996	n/a	n/a	0	0	0
3615620	WORD	wordpools/wasnorm_wordpool_576.txt	LTP295	ltpFR2	8	17	SNAKE	1333	n/a	n/a	0	0	0
3618104	WORD	wordpools/wasnorm_wordpool_576.txt	LTP295	ltpFR2	8	17	PIMPLE	1071	n/a	n/a	0	0	0
3620524	WORD	wordpools/wasnorm_wordpool_576.txt	LTP295	ltpFR2	8	17	SOFTBALL	1343	n/a	n/a	0	0	0
3623126	WORD	wordpools/wasnorm_wordpool_576.txt	LTP295	ltpFR2	8	17	CRICKET	408	n/a	n/a	0	0	0
3625646	WORD	wordpools/wasnorm_wordpool_576.txt	LTP295	ltpFR2	8	17	TROMBONE	1508	n/a	n/a	0	0	0
3628197	WORD	wordpools/wasnorm_wordpool_576.txt	LTP295	ltpFR2	8	17	NURSE	963	n/a	n/a	0	0	0
3630649	WORD	wordpools/wasnorm_wordpool_576.txt	LTP295	ltpFR2	8	17	CROWN	415	n/a	n/a	0	0	0
3633367	WORD	wordpools/wasnorm_wordpool_576.txt	LTP295	ltpFR2	8	17	TEACHER	1440	n/a	n/a	0	0	0
3636053	WORD	wordpools/wasnorm_wordpool_576.txt	LTP295	ltpFR2	8	17	MARKET	871	n/a	n/a	0	0	0
3638739	WORD	wordpools/wasnorm_wordpool_576.txt	LTP295	ltpFR2	8	17	COCKTAIL	338	n/a	n/a	0	0	0
3641374	WORD	wordpools/wasnorm_wordpool_576.txt	LTP295	ltpFR2	8	17	SCALPEL	1243	n/a	n/a	0	0	0
3643892	WORD	wordpools/wasnorm_wordpool_576.txt	LTP295	ltpFR2	8	17	RELISH	1183	n/a	n/a	0	0	0
3646696	WORD	wordpools/wasnorm_wordpool_576.txt	LTP295	ltpFR2	8	17	SHRUB	1299	n/a	n/a	0	0	0
3649331	WORD	wordpools/wasnorm_wordpool_576.txt	LTP295	ltpFR2	8	17	TWIG	1527	n/a	n/a	0	0	0
3652132	WORD	wordpools/wasnorm_wordpool_576.txt	LTP295	ltpFR2	8	17	HIGHWAY	707	n/a	n/a	0	0	0
3654725	WORD	wordpools/wasnorm_wordpool_576.txt	LTP295	ltpFR2	8	17	BOARD	143	n/a	n/a	0	0	0
3657521	WORD	wordpools/wasnorm_wordpool_576.txt	LTP295	ltpFR2	8	17	BANQUET	86	n/a	n/a	0	0	0
3660005	WORD	wordpools/wasnorm_wordpool_576.txt	LTP295	ltpFR2	8	17	ICEBERG	731	n/a	n/a	0	0	0
3662648	WORD	wordpools/wasnorm_wordpool_576.txt	LTP295	ltpFR2	8	17	YARN	1631	n/a	n/a	0	0	0
3665126	WORD	wordpools/wasnorm_wordpool_576.txt	LTP295	ltpFR2	8	17	HUMAN	726	n/a	n/a	0	0	0
3667879	WORD	wordpools/wasnorm_wordpool_576.txt	LTP295	ltpFR2	8	17	GANGSTER	620	n/a	n/a	0	0	0
3670481	WORD	wordpools/wasnorm_wordpool_576.txt	LTP295	ltpFR2	8	17	BULLET	194	n/a	n/a	0	0	0
3673066	WORD	wordpools/wasnorm_wordpool_576.txt	LTP295	ltpFR2	8	17	TRUCK	1512	n/a	n/a	0	0	0
3674676	START	n/a	LTP295	ltpFR2	8	n/a	n/a	n/a	27	n/a	n/a	n/a	n/a
3675679	DISTRACTOR	n/a	LTP295	ltpFR2	8	17	n/a	n/a	n/a	n/a	0	0	0
3675686	PROB	n/a	LTP295	ltpFR2	8	n/a	n/a	n/a	27	10	4	5	1
3677167	PROB	n/a	LTP295	ltpFR2	8	n/a	n/a	n/a	27	22	7	9	6
3679788	PROB	n/a	LTP295	ltpFR2	8	n/a	n/a	n/a	27	13	2	8	3
3681137	PROB	n/a	LTP295	ltpFR2	8	n/a	n/a	n/a	27	14	1	7	6
3683223	PROB	n/a	LTP295	ltpFR2	8	n/a	n/a	n/a	27	10	8	1	1
3684408	PROB	n/a	LTP295	ltpFR2	8	n/a	n/a	n/a	27	18	2	8	8
3685659	PROB	n/a	LTP295	ltpFR2	8	n/a	n/a	n/a	27	19	2	9	8
3687425	PROB	n/a	LTP295	ltpFR2	8	n/a	n/a	n/a	27	12	1	2	9
3689394	PROB	n/a	LTP295	ltpFR2	8	n/a	n/a	n/a	27	3	1	1	1
3690461	PROB	n/a	LTP295	ltpFR2	8	n/a	n/a	n/a	27	21	9	7	5
3692297	PROB	n/a	LTP295	ltpFR2	8	n/a	n/a	n/a	27	15	9	3	3
3693634	PROB	n/a	LTP295	ltpFR2	8	n/a	n/a	n/a	27	7	1	3	3
3695149	PROB	n/a	LTP295	ltpFR2	8	n/a	n/a	n/a	27	11	2	5	4
3697134	PROB	n/a	LTP295	ltpFR2	8	n/a	n/a	n/a	27	8	4	2	2
3698502	STOP	n/a	LTP295	ltpFR2	8	n/a	n/a	n/a	27	n/a	n/a	n/a	n/a
3700571	REC_START	n/a	LTP295	ltpFR2	8	17	n/a	n/a	n/a	n/a	0	0	0
3702118	REC_WORD	wordpools/wasnorm_wordpool_576.txt	LTP295	ltpFR2	8	17	GANGSTER	620	n/a	n/a	0	0	0
3702808	REC_WORD	wordpools/wasnorm_wordpool_576.txt	LTP295	ltpFR2	8	17	HUMAN	726	n/a	n/a	0	0	0
3703484	REC_WORD	wordpools/wasnorm_wordpool_576.txt	LTP295	ltpFR2	8	17	TRUCK	1512	n/a	n/a	0	0	0
3704325	REC_WORD	wordpools/wasnorm_wordpool_576.txt	LTP295	ltpFR2	8	17	BOARD	143	n/a	n/a	0	0	0
3704925	REC_WORD	wordpools/wasnorm_wordpool_576.txt	LTP295	ltpFR2	8	17	BANQUET	86	n/a	n/a	0	0	0
3706127	REC_WORD	wordpools/wasnorm_wordpool_576.txt	LTP295	ltpFR2	8	17	YARN	1631	n/a	n/a	0	0	0
3706789	REC_WORD	wordpools/wasnorm_wordpool_576.txt	LTP295	ltpFR2	8	17	ICEBERG	731	n/a	n/a	0	0	0
3707466	REC_WORD	wordpools/wasnorm_wordpool_576.txt	LTP295	ltpFR2	8	17	HIGHWAY	707	n/a	n/a	0	0	0
3711074	REC_WORD	wordpools/wasnorm_wordpool_576.txt	LTP295	ltpFR2	8	17	MARKET	871	n/a	n/a	0	0	0
3712182	REC_WORD	wordpools/wasnorm_wordpool_576.txt	LTP295	ltpFR2	8	17	COCKTAIL	338	n/a	n/a	0	0	0
3712973	REC_WORD	wordpools/wasnorm_wordpool_576.txt	LTP295	ltpFR2	8	17	RELISH	1183	n/a	n/a	0	0	0
3713973	REC_WORD_VV	wordpools/wasnorm_wordpool_576.txt	LTP295	ltpFR2	8	17	<>	-1	n/a	n/a	0	0	0
3715167	REC_WORD	wordpools/wasnorm_wordpool_576.txt	LTP295	ltpFR2	8	17	SCALPEL	1243	n/a	n/a	0	0	0
3718015	REC_WORD	wordpools/wasnorm_wordpool_576.txt	LTP295	ltpFR2	8	17	TROMBONE	1508	n/a	n/a	0	0	0
3719015	REC_WORD_VV	wordpools/wasnorm_wordpool_576.txt	LTP295	ltpFR2	8	17	<>	-1	n/a	n/a	0	0	0
3719195	REC_WORD	wordpools/wasnorm_wordpool_576.txt	LTP295	ltpFR2	8	17	SOFTBALL	1343	n/a	n/a	0	0	0
3720105	REC_WORD	wordpools/wasnorm_wordpool_576.txt	LTP295	ltpFR2	8	17	CRICKET	408	n/a	n/a	0	0	0
3721744	REC_WORD	wordpools/wasnorm_wordpool_576.txt	LTP295	ltpFR2	8	17	PIMPLE	1071	n/a	n/a	0	0	0
3722558	REC_WORD	wordpools/wasnorm_wordpool_576.txt	LTP295	ltpFR2	8	17	SNAKE	1333	n/a	n/a	0	0	0
