onset	duration	trial_type	sample	stim_file	subject	experiment	session	trial	task	item_name	item_num	recog_resp	recog_conf	resp	color_r	color_g	color_b	case	font
237.682	n/a	SESS_START	118841	n/a	LTP202	ltpFR	1	n/a	n/a	n/a	n/a	1	n/a	n/a	n/a	n/a	n/a	n/a	n/a
313.794	n/a	WORD	156897	wordpools/wasnorm_wordpool_less_exclusions.txt	LTP202	ltpFR	1	1	0	TERMITE	1451	n/a	n/a	1	0.422607421875	0.5869140625	0	lower	zerothre.ttf
317.77	n/a	WORD	158885	wordpools/wasnorm_wordpool_less_exclusions.txt	LTP202	ltpFR	1	1	0	COD	340	n/a	n/a	0	0.422607421875	0.5869140625	0	lower	zerothre.ttf
321.882	n/a	WORD	160941	wordpools/wasnorm_wordpool_less_exclusions.txt	LTP202	ltpFR	1	1	0	BUCKLE	185	n/a	n/a	0	0.422607421875	0.5869140625	0	lower	zerothre.ttf
325.758	n/a	WORD	162879	wordpools/wasnorm_wordpool_less_exclusions.txt	LTP202	ltpFR	1	1	0	RASPBERRY	1168	n/a	n/a	0	0.422607421875	0.5869140625	0	lower	zerothre.ttf
329.752	n/a	WORD	164876	wordpools/wasnorm_wordpool_less_exclusions.txt	LTP202	ltpFR	1	1	1	SEAFOOD	1260	n/a	n/a	1	0.57763671875	0.412841796875	1	upper	amplitud.ttf
333.664	n/a	WORD	166832	wordpools/wasnorm_wordpool_less_exclusions.txt	LTP202	ltpFR	1	1	1	SWATTER	1418	n/a	n/a	0	0.57763671875	0.412841796875	1	upper	amplitud.ttf
337.758	n/a	WORD	168879	wordpools/wasnorm_wordpool_less_exclusions.txt	LTP202	ltpFR	1	1	1	TELEPHONE	1445	n/a	n/a	0	0.57763671875	0.412841796875	1	upper	amplitud.ttf
341.87	n/a	WORD	170935	wordpools/wasnorm_wordpool_less_exclusions.txt	LTP202	ltpFR	1	1	0	PENGUIN	1044	n/a	n/a	0	0.422607421875	0.5869140625	0	lower	zerothre.ttf
345.996	n/a	WORD	172998	wordpools/wasnorm_wordpool_less_exclusions.txt	LTP202	ltpFR	1	1	0	ARROW	40	n/a	n/a	0	0.422607421875	0.5869140625	0	lower	zerothre.ttf
350.158	n/a	WORD	175079	wordpools/wasnorm_wordpool_less_exclusions.txt	LTP202	ltpFR	1	1	0	BUFFALO	186	n/a	n/a	1	0.422607421875	0.5869140625	0	lower	zerothre.ttf
354.268	n/a	WORD	177134	wordpools/wasnorm_wordpool_less_exclusions.txt	LTP202	ltpFR	1	1	0	MONSTER	912	n/a	n/a	1	0.422607421875	0.5869140625	0	lower	zerothre.ttf
358.428	n/a	WORD	179214	wordpools/wasnorm_wordpool_less_exclusions.txt	LTP202	ltpFR	1	1	1	PIANO	1057	n/a	n/a	0	0.57763671875	0.412841796875	1	upper	amplitud.ttf
362.604	n/a	WORD	181302	wordpools/wasnorm_wordpool_less_exclusions.txt	LTP202	ltpFR	1	1	1	HARP	689	n/a	n/a	0	0.57763671875	0.412841796875	1	upper	amplitud.ttf
366.666	n/a	WORD	183333	wordpools/wasnorm_wordpool_less_exclusions.txt	LTP202	ltpFR	1	1	1	DRAGON	492	n/a	n/a	1	0.57763671875	0.412841796875	1	upper	amplitud.ttf
370.526	n/a	WORD	185263	wordpools/wasnorm_wordpool_less_exclusions.txt	LTP202	ltpFR	1	1	1	COBBLER	335	n/a	n/a	0	0.57763671875	0.412841796875	1	upper	amplitud.ttf
374.372	n/a	WORD	187186	wordpools/wasnorm_wordpool_less_exclusions.txt	LTP202	ltpFR	1	1	1	SHORTCAKE	1292	n/a	n/a	0	0.57763671875	0.412841796875	1	upper	amplitud.ttf
380.18	n/a	REC_START	190090	n/a	LTP202	ltpFR	1	1	n/a	n/a	n/a	n/a	n/a	n/a	n/a	n/a	n/a	n/a	n/a
380.774	n/a	REC_WORD	190387	wordpools/wasnorm_wordpool_less_exclusions.txt	LTP202	ltpFR	1	1	1	PIANO	1057	n/a	n/a	0	n/a	n/a	n/a	n/a	n/a
381.586	n/a	REC_WORD	190793	wordpools/wasnorm_wordpool_less_exclusions.txt	LTP202	ltpFR	1	1	1	HARP	689	n/a	n/a	0	n/a	n/a	n/a	n/a	n/a
382.406	n/a	REC_WORD	191203	wordpools/wasnorm_wordpool_less_exclusions.txt	LTP202	ltpFR	1	1	1	DRAGON	492	n/a	n/a	1	n/a	n/a	n/a	n/a	n/a
383.542	n/a	REC_WORD	191771	wordpools/wasnorm_wordpool_less_exclusions.txt	LTP202	ltpFR	1	1	1	COBBLER	335	n/a	n/a	0	n/a	n/a	n/a	n/a	n/a
386.022	n/a	REC_WORD	193011	wordpools/wasnorm_wordpool_less_exclusions.txt	LTP202	ltpFR	1	1	0	PENGUIN	1044	n/a	n/a	0	n/a	n/a	n/a	n/a	n/a
386.964	n/a	REC_WORD	193482	wordpools/wasnorm_wordpool_less_exclusions.txt	LTP202	ltpFR	1	1	0	TERMITE	1451	n/a	n/a	1	n/a	n/a	n/a	n/a	n/a
391.15	n/a	REC_WORD	195575	wordpools/wasnorm_wordpool_less_exclusions.txt	LTP202	ltpFR	1	1	0	MONSTER	912	n/a	n/a	1	n/a	n/a	n/a	n/a	n/a
406.352	n/a	REC_WORD	203176	wordpools/wasnorm_wordpool_less_exclusions.txt	LTP202	ltpFR	1	1	1	SEAFOOD	1260	n/a	n/a	1	n/a	n/a	n/a	n/a	n/a
469.53	n/a	WORD	234765	wordpools/wasnorm_wordpool_less_exclusions.txt	LTP202	ltpFR	1	2	1	BARK	87	n/a	n/a	0	0.57763671875	0.412841796875	1	upper	amplitud.ttf
473.59	n/a	WORD	236795	wordpools/wasnorm_wordpool_less_exclusions.txt	LTP202	ltpFR	1	2	1	CATCHER	258	n/a	n/a	1	0.57763671875	0.412841796875	1	upper	amplitud.ttf
477.734	n/a	WORD	238867	wordpools/wasnorm_wordpool_less_exclusions.txt	LTP202	ltpFR	1	2	0	RODENT	1204	n/a	n/a	0	0.422607421875	0.5869140625	0	lower	zerothre.ttf
481.612	n/a	WORD	240806	wordpools/wasnorm_wordpool_less_exclusions.txt	LTP202	ltpFR	1	2	0	GOOSE	649	n/a	n/a	1	0.422607421875	0.5869140625	0	lower	zerothre.ttf
485.524	n/a	WORD	242762	wordpools/wasnorm_wordpool_less_exclusions.txt	LTP202	ltpFR	1	2	0	DRAWER	493	n/a	n/a	1	0.422607421875	0.5869140625	0	lower	zerothre.ttf
489.468	n/a	WORD	244734	wordpools/wasnorm_wordpool_less_exclusions.txt	LTP202	ltpFR	1	2	0	PATROL	1027	n/a	n/a	1	0.422607421875	0.5869140625	0	lower	zerothre.ttf
493.346	n/a	WORD	246673	wordpools/wasnorm_wordpool_less_exclusions.txt	LTP202	ltpFR	1	2	0	COURSE	390	n/a	n/a	0	0.422607421875	0.5869140625	0	lower	zerothre.ttf
497.406	n/a	WORD	248703	wordpools/wasnorm_wordpool_less_exclusions.txt	LTP202	ltpFR	1	2	1	BLUEPRINT	142	n/a	n/a	0	0.57763671875	0.412841796875	1	upper	amplitud.ttf
501.334	n/a	WORD	250667	wordpools/wasnorm_wordpool_less_exclusions.txt	LTP202	ltpFR	1	2	1	MEDAL	885	n/a	n/a	0	0.57763671875	0.412841796875	1	upper	amplitud.ttf
505.344	n/a	WORD	252672	wordpools/wasnorm_wordpool_less_exclusions.txt	LTP202	ltpFR	1	2	1	CREEK	404	n/a	n/a	0	0.57763671875	0.412841796875	1	upper	amplitud.ttf
509.522	n/a	WORD	254761	wordpools/wasnorm_wordpool_less_exclusions.txt	LTP202	ltpFR	1	2	1	STAKE	1368	n/a	n/a	0	0.57763671875	0.412841796875	1	upper	amplitud.ttf
513.714	n/a	WORD	256857	wordpools/wasnorm_wordpool_less_exclusions.txt	LTP202	ltpFR	1	2	1	SPY	1360	n/a	n/a	1	0.57763671875	0.412841796875	1	upper	amplitud.ttf
517.676	n/a	WORD	258838	wordpools/wasnorm_wordpool_less_exclusions.txt	LTP202	ltpFR	1	2	1	GLASSES	640	n/a	n/a	0	0.57763671875	0.412841796875	1	upper	amplitud.ttf
521.77	n/a	WORD	260885	wordpools/wasnorm_wordpool_less_exclusions.txt	LTP202	ltpFR	1	2	0	LENS	811	n/a	n/a	0	0.422607421875	0.5869140625	0	lower	zerothre.ttf
525.746	n/a	WORD	262873	wordpools/wasnorm_wordpool_less_exclusions.txt	LTP202	ltpFR	1	2	0	CHEF	290	n/a	n/a	1	0.422607421875	0.5869140625	0	lower	zerothre.ttf
529.724	n/a	WORD	264862	wordpools/wasnorm_wordpool_less_exclusions.txt	LTP202	ltpFR	1	2	0	CANAL	226	n/a	n/a	1	0.422607421875	0.5869140625	0	lower	zerothre.ttf
535.566	n/a	REC_START	267783	n/a	LTP202	ltpFR	1	2	n/a	n/a	n/a	n/a	n/a	n/a	n/a	n/a	n/a	n/a	n/a
536.124	n/a	REC_WORD	268062	wordpools/wasnorm_wordpool_less_exclusions.txt	LTP202	ltpFR	1	2	1	GLASSES	640	n/a	n/a	0	n/a	n/a	n/a	n/a	n/a
536.752	n/a	REC_WORD	268376	wordpools/wasnorm_wordpool_less_exclusions.txt	LTP202	ltpFR	1	2	0	LENS	811	n/a	n/a	0	n/a	n/a	n/a	n/a	n/a
537.6	n/a	REC_WORD	268800	wordpools/wasnorm_wordpool_less_exclusions.txt	LTP202	ltpFR	1	2	0	CHEF	290	n/a	n/a	1	n/a	n/a	n/a	n/a	n/a
538.224	n/a	REC_WORD	269112	wordpools/wasnorm_wordpool_less_exclusions.txt	LTP202	ltpFR	1	2	0	CANAL	226	n/a	n/a	1	n/a	n/a	n/a	n/a	n/a
539.482	n/a	REC_WORD	269741	wordpools/wasnorm_wordpool_less_exclusions.txt	LTP202	ltpFR	1	2	1	BLUEPRINT	142	n/a	n/a	0	n/a	n/a	n/a	n/a	n/a
540.774	n/a	REC_WORD	270387	wordpools/wasnorm_wordpool_less_exclusions.txt	LTP202	ltpFR	1	2	0	DRAWER	493	n/a	n/a	1	n/a	n/a	n/a	n/a	n/a
554.388	n/a	REC_WORD	277194	wordpools/wasnorm_wordpool_less_exclusions.txt	LTP202	ltpFR	1	2	1	CREEK	404	n/a	n/a	0	n/a	n/a	n/a	n/a	n/a
561.766	n/a	REC_WORD	280883	wordpools/wasnorm_wordpool_less_exclusions.txt	LTP202	ltpFR	1	2	0	RODENT	1204	n/a	n/a	0	n/a	n/a	n/a	n/a	n/a
564.416	n/a	REC_WORD	282208	wordpools/wasnorm_wordpool_less_exclusions.txt	LTP202	ltpFR	1	2	0	GOOSE	649	n/a	n/a	1	n/a	n/a	n/a	n/a	n/a
570.262	n/a	REC_WORD	285131	wordpools/wasnorm_wordpool_less_exclusions.txt	LTP202	ltpFR	1	2	0	CHEF	290	n/a	n/a	1	n/a	n/a	n/a	n/a	n/a
606.35	n/a	REC_WORD	303175	wordpools/wasnorm_wordpool_less_exclusions.txt	LTP202	ltpFR	1	2	1	BLUEPRINT	142	n/a	n/a	0	n/a	n/a	n/a	n/a	n/a
628.528	n/a	WORD	314264	wordpools/wasnorm_wordpool_less_exclusions.txt	LTP202	ltpFR	1	3	0	LETTUCE	814	n/a	n/a	0	0.422607421875	0.5869140625	0	lower	zerothre.ttf
632.356	n/a	WORD	316178	wordpools/wasnorm_wordpool_less_exclusions.txt	LTP202	ltpFR	1	3	0	GOAT	644	n/a	n/a	1	0.422607421875	0.5869140625	0	lower	zerothre.ttf
636.218	n/a	WORD	318109	wordpools/wasnorm_wordpool_less_exclusions.txt	LTP202	ltpFR	1	3	0	POLICE	1098	n/a	n/a	1	0.422607421875	0.5869140625	0	lower	zerothre.ttf
640.312	n/a	WORD	320156	wordpools/wasnorm_wordpool_less_exclusions.txt	LTP202	ltpFR	1	3	0	RELATIVE	1182	n/a	n/a	1	0.422607421875	0.5869140625	0	lower	zerothre.ttf
644.506	n/a	WORD	322253	wordpools/wasnorm_wordpool_less_exclusions.txt	LTP202	ltpFR	1	3	1	BEET	115	n/a	n/a	0	0.57763671875	0.412841796875	1	upper	amplitud.ttf
648.35	n/a	WORD	324175	wordpools/wasnorm_wordpool_less_exclusions.txt	LTP202	ltpFR	1	3	1	MALL	860	n/a	n/a	0	0.57763671875	0.412841796875	1	upper	amplitud.ttf
652.178	n/a	WORD	326089	wordpools/wasnorm_wordpool_less_exclusions.txt	LTP202	ltpFR	1	3	0	DEPARTMENT	449	n/a	n/a	1	0.422607421875	0.5869140625	0	lower	zerothre.ttf
656.172	n/a	WORD	328086	wordpools/wasnorm_wordpool_less_exclusions.txt	LTP202	ltpFR	1	3	0	BLUEBERRY	140	n/a	n/a	0	0.422607421875	0.5869140625	0	lower	zerothre.ttf
660.148	n/a	WORD	330074	wordpools/wasnorm_wordpool_less_exclusions.txt	LTP202	ltpFR	1	3	1	COMMANDER	354	n/a	n/a	1	0.57763671875	0.412841796875	1	upper	amplitud.ttf
664.076	n/a	WORD	332038	wordpools/wasnorm_wordpool_less_exclusions.txt	LTP202	ltpFR	1	3	1	GOVERNOR	651	n/a	n/a	1	0.57763671875	0.412841796875	1	upper	amplitud.ttf
667.936	n/a	WORD	333968	wordpools/wasnorm_wordpool_less_exclusions.txt	LTP202	ltpFR	1	3	1	HUT	729	n/a	n/a	0	0.57763671875	0.412841796875	1	upper	amplitud.ttf
672.13	n/a	WORD	336065	wordpools/wasnorm_wordpool_less_exclusions.txt	LTP202	ltpFR	1	3	1	FLASK	576	n/a	n/a	0	0.57763671875	0.412841796875	1	upper	amplitud.ttf
676.292	n/a	WORD	338146	wordpools/wasnorm_wordpool_less_exclusions.txt	LTP202	ltpFR	1	3	1	RUM	1217	n/a	n/a	0	0.57763671875	0.412841796875	1	upper	amplitud.ttf
680.186	n/a	WORD	340093	wordpools/wasnorm_wordpool_less_exclusions.txt	LTP202	ltpFR	1	3	1	GUARD	667	n/a	n/a	1	0.57763671875	0.412841796875	1	upper	amplitud.ttf
684.014	n/a	WORD	342007	wordpools/wasnorm_wordpool_less_exclusions.txt	LTP202	ltpFR	1	3	0	FAMILY	550	n/a	n/a	1	0.422607421875	0.5869140625	0	lower	zerothre.ttf
688.174	n/a	WORD	344087	wordpools/wasnorm_wordpool_less_exclusions.txt	LTP202	ltpFR	1	3	0	BEER	114	n/a	n/a	0	0.422607421875	0.5869140625	0	lower	zerothre.ttf
693.882	n/a	REC_START	346941	n/a	LTP202	ltpFR	1	3	n/a	n/a	n/a	n/a	n/a	n/a	n/a	n/a	n/a	n/a	n/a
694.37	n/a	REC_WORD	347185	wordpools/wasnorm_wordpool_less_exclusions.txt	LTP202	ltpFR	1	3	1	FLASK	576	n/a	n/a	0	n/a	n/a	n/a	n/a	n/a
695.32	n/a	REC_WORD	347660	wordpools/wasnorm_wordpool_less_exclusions.txt	LTP202	ltpFR	1	3	1	RUM	1217	n/a	n/a	0	n/a	n/a	n/a	n/a	n/a
696.172	n/a	REC_WORD	348086	wordpools/wasnorm_wordpool_less_exclusions.txt	LTP202	ltpFR	1	3	0	BEER	114	n/a	n/a	0	n/a	n/a	n/a	n/a	n/a
697.22	n/a	REC_WORD	348610	wordpools/wasnorm_wordpool_less_exclusions.txt	LTP202	ltpFR	1	3	1	GUARD	667	n/a	n/a	1	n/a	n/a	n/a	n/a	n/a
698.002	n/a	REC_WORD	349001	wordpools/wasnorm_wordpool_less_exclusions.txt	LTP202	ltpFR	1	3	0	FAMILY	550	n/a	n/a	1	n/a	n/a	n/a	n/a	n/a
702.352	n/a	REC_WORD	351176	wordpools/wasnorm_wordpool_less_exclusions.txt	LTP202	ltpFR	1	3	0	BLUEBERRY	140	n/a	n/a	0	n/a	n/a	n/a	n/a	n/a
707.402	n/a	REC_WORD	353701	wordpools/wasnorm_wordpool_less_exclusions.txt	LTP202	ltpFR	1	3	1	COMMANDER	354	n/a	n/a	1	n/a	n/a	n/a	n/a	n/a
708.524	n/a	REC_WORD	354262	wordpools/wasnorm_wordpool_less_exclusions.txt	LTP202	ltpFR	1	3	1	GOVERNOR	651	n/a	n/a	1	n/a	n/a	n/a	n/a	n/a
738.152	n/a	REC_WORD	369076	wordpools/wasnorm_wordpool_less_exclusions.txt	LTP202	ltpFR	1	3	1	MALL	860	n/a	n/a	0	n/a	n/a	n/a	n/a	n/a
788.608	n/a	WORD	394304	wordpools/wasnorm_wordpool_less_exclusions.txt	LTP202	ltpFR	1	4	1	PICKLE	1059	n/a	n/a	0	0.57763671875	0.412841796875	1	upper	amplitud.ttf
792.636	n/a	WORD	396318	wordpools/wasnorm_wordpool_less_exclusions.txt	LTP202	ltpFR	1	4	1	FORT	595	n/a	n/a	0	0.57763671875	0.412841796875	1	upper	amplitud.ttf
796.828	n/a	WORD	398414	wordpools/wasnorm_wordpool_less_exclusions.txt	LTP202	ltpFR	1	4	1	PRINTER	1126	n/a	n/a	0	0.57763671875	0.412841796875	1	upper	amplitud.ttf
800.84	n/a	WORD	400420	wordpools/wasnorm_wordpool_less_exclusions.txt	LTP202	ltpFR	1	4	1	WAREHOUSE	1588	n/a	n/a	0	0.57763671875	0.412841796875	1	upper	amplitud.ttf
804.85	n/a	WORD	402425	wordpools/wasnorm_wordpool_less_exclusions.txt	LTP202	ltpFR	1	4	1	ASTRONAUT	51	n/a	n/a	1	0.57763671875	0.412841796875	1	upper	amplitud.ttf
808.794	n/a	WORD	404397	wordpools/wasnorm_wordpool_less_exclusions.txt	LTP202	ltpFR	1	4	1	MACHINE	852	n/a	n/a	0	0.57763671875	0.412841796875	1	upper	amplitud.ttf
812.888	n/a	WORD	406444	wordpools/wasnorm_wordpool_less_exclusions.txt	LTP202	ltpFR	1	4	1	HEAD	695	n/a	n/a	0	0.57763671875	0.412841796875	1	upper	amplitud.ttf
817.084	n/a	WORD	408542	wordpools/wasnorm_wordpool_less_exclusions.txt	LTP202	ltpFR	1	4	1	ELECTRON	522	n/a	n/a	0	0.57763671875	0.412841796875	1	upper	amplitud.ttf
821.044	n/a	WORD	410522	wordpools/wasnorm_wordpool_less_exclusions.txt	LTP202	ltpFR	1	4	1	BEAVER	109	n/a	n/a	1	0.57763671875	0.412841796875	1	upper	amplitud.ttf
824.872	n/a	WORD	412436	wordpools/wasnorm_wordpool_less_exclusions.txt	LTP202	ltpFR	1	4	1	PLANT	1083	n/a	n/a	1	0.57763671875	0.412841796875	1	upper	amplitud.ttf
829.032	n/a	WORD	414516	wordpools/wasnorm_wordpool_less_exclusions.txt	LTP202	ltpFR	1	4	1	PEACH	1031	n/a	n/a	0	0.57763671875	0.412841796875	1	upper	amplitud.ttf
832.91	n/a	WORD	416455	wordpools/wasnorm_wordpool_less_exclusions.txt	LTP202	ltpFR	1	4	1	TREE	1502	n/a	n/a	1	0.57763671875	0.412841796875	1	upper	amplitud.ttf
836.854	n/a	WORD	418427	wordpools/wasnorm_wordpool_less_exclusions.txt	LTP202	ltpFR	1	4	1	TWIG	1527	n/a	n/a	0	0.57763671875	0.412841796875	1	upper	amplitud.ttf
841.048	n/a	WORD	420524	wordpools/wasnorm_wordpool_less_exclusions.txt	LTP202	ltpFR	1	4	1	BAND	78	n/a	n/a	1	0.57763671875	0.412841796875	1	upper	amplitud.ttf
844.908	n/a	WORD	422454	wordpools/wasnorm_wordpool_less_exclusions.txt	LTP202	ltpFR	1	4	1	FLUTE	585	n/a	n/a	0	0.57763671875	0.412841796875	1	upper	amplitud.ttf
849.07	n/a	WORD	424535	wordpools/wasnorm_wordpool_less_exclusions.txt	LTP202	ltpFR	1	4	1	MUSTARD	935	n/a	n/a	0	0.57763671875	0.412841796875	1	upper	amplitud.ttf
854.976	n/a	REC_START	427488	n/a	LTP202	ltpFR	1	4	n/a	n/a	n/a	n/a	n/a	n/a	n/a	n/a	n/a	n/a	n/a
855.78	n/a	REC_WORD	427890	wordpools/wasnorm_wordpool_less_exclusions.txt	LTP202	ltpFR	1	4	1	PICKLE	1059	n/a	n/a	0	n/a	n/a	n/a	n/a	n/a
856.512	n/a	REC_WORD	428256	wordpools/wasnorm_wordpool_less_exclusions.txt	LTP202	ltpFR	1	4	1	MUSTARD	935	n/a	n/a	0	n/a	n/a	n/a	n/a	n/a
857.71	n/a	REC_WORD	428855	wordpools/wasnorm_wordpool_less_exclusions.txt	LTP202	ltpFR	1	4	1	PLANT	1083	n/a	n/a	1	n/a	n/a	n/a	n/a	n/a
858.464	n/a	REC_WORD	429232	wordpools/wasnorm_wordpool_less_exclusions.txt	LTP202	ltpFR	1	4	1	TREE	1502	n/a	n/a	1	n/a	n/a	n/a	n/a	n/a
859.222	n/a	REC_WORD_VV	429611	wordpools/wasnorm_wordpool_less_exclusions.txt	LTP202	ltpFR	1	4	n/a	<>	-1	n/a	n/a	n/a	n/a	n/a	n/a	n/a	n/a
860.284	n/a	REC_WORD_VV	430142	wordpools/wasnorm_wordpool_less_exclusions.txt	LTP202	ltpFR	1	4	n/a	<>	-1	n/a	n/a	n/a	n/a	n/a	n/a	n/a	n/a
860.908	n/a	REC_WORD	430454	wordpools/wasnorm_wordpool_less_exclusions.txt	LTP202	ltpFR	1	4	1	TWIG	1527	n/a	n/a	0	n/a	n/a	n/a	n/a	n/a
861.93	n/a	REC_WORD	430965	wordpools/wasnorm_wordpool_less_exclusions.txt	LTP202	ltpFR	1	4	1	ELECTRON	522	n/a	n/a	0	n/a	n/a	n/a	n/a	n/a
863.282	n/a	REC_WORD	431641	wordpools/wasnorm_wordpool_less_exclusions.txt	LTP202	ltpFR	1	4	1	BEAVER	109	n/a	n/a	1	n/a	n/a	n/a	n/a	n/a
887.058	n/a	REC_WORD	443529	wordpools/wasnorm_wordpool_less_exclusions.txt	LTP202	ltpFR	1	4	1	ASTRONAUT	51	n/a	n/a	1	n/a	n/a	n/a	n/a	n/a
889.754	n/a	REC_WORD	444877	wordpools/wasnorm_wordpool_less_exclusions.txt	LTP202	ltpFR	1	4	1	BAND	78	n/a	n/a	1	n/a	n/a	n/a	n/a	n/a
957.11	n/a	WORD	478555	wordpools/wasnorm_wordpool_less_exclusions.txt	LTP202	ltpFR	1	5	-1	PARTY	1018	n/a	n/a	-1	1.0	1.0	1	upper	Verdana.ttf
960.97	n/a	WORD	480485	wordpools/wasnorm_wordpool_less_exclusions.txt	LTP202	ltpFR	1	5	-1	BOTTLE	153	n/a	n/a	-1	1.0	1.0	1	upper	Verdana.ttf
965.148	n/a	WORD	482574	wordpools/wasnorm_wordpool_less_exclusions.txt	LTP202	ltpFR	1	5	-1	SEED	1266	n/a	n/a	-1	1.0	1.0	1	upper	Verdana.ttf
969.024	n/a	WORD	484512	wordpools/wasnorm_wordpool_less_exclusions.txt	LTP202	ltpFR	1	5	-1	DINNER	468	n/a	n/a	-1	1.0	1.0	1	upper	Verdana.ttf
972.852	n/a	WORD	486426	wordpools/wasnorm_wordpool_less_exclusions.txt	LTP202	ltpFR	1	5	-1	STEREO	1378	n/a	n/a	-1	1.0	1.0	1	upper	Verdana.ttf
976.962	n/a	WORD	488481	wordpools/wasnorm_wordpool_less_exclusions.txt	LTP202	ltpFR	1	5	-1	EARTH	515	n/a	n/a	-1	1.0	1.0	1	upper	Verdana.ttf
980.956	n/a	WORD	490478	wordpools/wasnorm_wordpool_less_exclusions.txt	LTP202	ltpFR	1	5	-1	VEIN	1554	n/a	n/a	-1	1.0	1.0	1	upper	Verdana.ttf
984.852	n/a	WORD	492426	wordpools/wasnorm_wordpool_less_exclusions.txt	LTP202	ltpFR	1	5	-1	PHILOSOPHER	1054	n/a	n/a	-1	1.0	1.0	1	upper	Verdana.ttf
988.846	n/a	WORD	494423	wordpools/wasnorm_wordpool_less_exclusions.txt	LTP202	ltpFR	1	5	-1	PIG	1064	n/a	n/a	-1	1.0	1.0	1	upper	Verdana.ttf
992.822	n/a	WORD	496411	wordpools/wasnorm_wordpool_less_exclusions.txt	LTP202	ltpFR	1	5	-1	MICROWAVE	892	n/a	n/a	-1	1.0	1.0	1	upper	Verdana.ttf
997.032	n/a	WORD	498516	wordpools/wasnorm_wordpool_less_exclusions.txt	LTP202	ltpFR	1	5	-1	SECRETARY	1265	n/a	n/a	-1	1.0	1.0	1	upper	Verdana.ttf
1001.228	n/a	WORD	500614	wordpools/wasnorm_wordpool_less_exclusions.txt	LTP202	ltpFR	1	5	-1	PLANET	1082	n/a	n/a	-1	1.0	1.0	1	upper	Verdana.ttf
1005.256	n/a	WORD	502628	wordpools/wasnorm_wordpool_less_exclusions.txt	LTP202	ltpFR	1	5	-1	SAW	1239	n/a	n/a	-1	1.0	1.0	1	upper	Verdana.ttf
1009.366	n/a	WORD	504683	wordpools/wasnorm_wordpool_less_exclusions.txt	LTP202	ltpFR	1	5	-1	SCISSORS	1250	n/a	n/a	-1	1.0	1.0	1	upper	Verdana.ttf
1013.326	n/a	WORD	506663	wordpools/wasnorm_wordpool_less_exclusions.txt	LTP202	ltpFR	1	5	-1	SALMON	1227	n/a	n/a	-1	1.0	1.0	1	upper	Verdana.ttf
1017.22	n/a	WORD	508610	wordpools/wasnorm_wordpool_less_exclusions.txt	LTP202	ltpFR	1	5	-1	NET	946	n/a	n/a	-1	1.0	1.0	1	upper	Verdana.ttf
1022.994	n/a	REC_START	511497	n/a	LTP202	ltpFR	1	5	n/a	n/a	n/a	n/a	n/a	n/a	n/a	n/a	n/a	n/a	n/a
1023.424	n/a	REC_WORD	511712	wordpools/wasnorm_wordpool_less_exclusions.txt	LTP202	ltpFR	1	5	-1	SAW	1239	n/a	n/a	-1	n/a	n/a	n/a	n/a	n/a
1024.196	n/a	REC_WORD	512098	wordpools/wasnorm_wordpool_less_exclusions.txt	LTP202	ltpFR	1	5	-1	SCISSORS	1250	n/a	n/a	-1	n/a	n/a	n/a	n/a	n/a
1025.184	n/a	REC_WORD	512592	wordpools/wasnorm_wordpool_less_exclusions.txt	LTP202	ltpFR	1	5	-1	PIG	1064	n/a	n/a	-1	n/a	n/a	n/a	n/a	n/a
1026.256	n/a	REC_WORD	513128	wordpools/wasnorm_wordpool_less_exclusions.txt	LTP202	ltpFR	1	5	-1	MICROWAVE	892	n/a	n/a	-1	n/a	n/a	n/a	n/a	n/a
1027.456	n/a	REC_WORD	513728	wordpools/wasnorm_wordpool_less_exclusions.txt	LTP202	ltpFR	1	5	-1	NET	946	n/a	n/a	-1	n/a	n/a	n/a	n/a	n/a
1028.582	n/a	REC_WORD	514291	wordpools/wasnorm_wordpool_less_exclusions.txt	LTP202	ltpFR	1	5	-1	SALMON	1227	n/a	n/a	-1	n/a	n/a	n/a	n/a	n/a
1031.052	n/a	REC_WORD	515526	wordpools/wasnorm_wordpool_less_exclusions.txt	LTP202	ltpFR	1	5	-1	PARTY	1018	n/a	n/a	-1	n/a	n/a	n/a	n/a	n/a
1031.89	n/a	REC_WORD	515945	wordpools/wasnorm_wordpool_less_exclusions.txt	LTP202	ltpFR	1	5	-1	BOTTLE	153	n/a	n/a	-1	n/a	n/a	n/a	n/a	n/a
1032.968	n/a	REC_WORD	516484	wordpools/wasnorm_wordpool_less_exclusions.txt	LTP202	ltpFR	1	5	-1	STEREO	1378	n/a	n/a	-1	n/a	n/a	n/a	n/a	n/a
1035.208	n/a	REC_WORD	517604	wordpools/wasnorm_wordpool_less_exclusions.txt	LTP202	ltpFR	1	5	-1	SEED	1266	n/a	n/a	-1	n/a	n/a	n/a	n/a	n/a
1036.18	n/a	REC_WORD	518090	wordpools/wasnorm_wordpool_less_exclusions.txt	LTP202	ltpFR	1	5	-1	DINNER	468	n/a	n/a	-1	n/a	n/a	n/a	n/a	n/a
1037.368	n/a	REC_WORD	518684	wordpools/wasnorm_wordpool_less_exclusions.txt	LTP202	ltpFR	1	5	-1	PHILOSOPHER	1054	n/a	n/a	-1	n/a	n/a	n/a	n/a	n/a
1046.268	n/a	REC_WORD	523134	wordpools/wasnorm_wordpool_less_exclusions.txt	LTP202	ltpFR	1	5	-1	VEIN	1554	n/a	n/a	-1	n/a	n/a	n/a	n/a	n/a
1047.828	n/a	REC_WORD	523914	wordpools/wasnorm_wordpool_less_exclusions.txt	LTP202	ltpFR	1	5	-1	EARTH	515	n/a	n/a	-1	n/a	n/a	n/a	n/a	n/a
1049.346	n/a	REC_WORD	524673	wordpools/wasnorm_wordpool_less_exclusions.txt	LTP202	ltpFR	1	5	-1	PLANET	1082	n/a	n/a	-1	n/a	n/a	n/a	n/a	n/a
1117.224	n/a	WORD	558612	wordpools/wasnorm_wordpool_less_exclusions.txt	LTP202	ltpFR	1	6	-1	KETTLE	772	n/a	n/a	-1	1.0	1.0	1	upper	Verdana.ttf
1121.3	n/a	WORD	560650	wordpools/wasnorm_wordpool_less_exclusions.txt	LTP202	ltpFR	1	6	-1	SNACK	1331	n/a	n/a	-1	1.0	1.0	1	upper	Verdana.ttf
1125.162	n/a	WORD	562581	wordpools/wasnorm_wordpool_less_exclusions.txt	LTP202	ltpFR	1	6	-1	THUMB	1462	n/a	n/a	-1	1.0	1.0	1	upper	Verdana.ttf
1129.072	n/a	WORD	564536	wordpools/wasnorm_wordpool_less_exclusions.txt	LTP202	ltpFR	1	6	-1	FINGERNAIL	568	n/a	n/a	-1	1.0	1.0	1	upper	Verdana.ttf
1133.116	n/a	WORD	566558	wordpools/wasnorm_wordpool_less_exclusions.txt	LTP202	ltpFR	1	6	-1	ARMY	39	n/a	n/a	-1	1.0	1.0	1	upper	Verdana.ttf
1137.176	n/a	WORD	568588	wordpools/wasnorm_wordpool_less_exclusions.txt	LTP202	ltpFR	1	6	-1	SHIRT	1287	n/a	n/a	-1	1.0	1.0	1	upper	Verdana.ttf
1141.17	n/a	WORD	570585	wordpools/wasnorm_wordpool_less_exclusions.txt	LTP202	ltpFR	1	6	-1	COAT	333	n/a	n/a	-1	1.0	1.0	1	upper	Verdana.ttf
1145.114	n/a	WORD	572557	wordpools/wasnorm_wordpool_less_exclusions.txt	LTP202	ltpFR	1	6	-1	BONE	148	n/a	n/a	-1	1.0	1.0	1	upper	Verdana.ttf
1149.142	n/a	WORD	574571	wordpools/wasnorm_wordpool_less_exclusions.txt	LTP202	ltpFR	1	6	-1	PUPPY	1144	n/a	n/a	-1	1.0	1.0	1	upper	Verdana.ttf
1153.136	n/a	WORD	576568	wordpools/wasnorm_wordpool_less_exclusions.txt	LTP202	ltpFR	1	6	-1	RUST	1219	n/a	n/a	-1	1.0	1.0	1	upper	Verdana.ttf
1157.096	n/a	WORD	578548	wordpools/wasnorm_wordpool_less_exclusions.txt	LTP202	ltpFR	1	6	-1	COUSIN	392	n/a	n/a	-1	1.0	1.0	1	upper	Verdana.ttf
1160.924	n/a	WORD	580462	wordpools/wasnorm_wordpool_less_exclusions.txt	LTP202	ltpFR	1	6	-1	MAP	865	n/a	n/a	-1	1.0	1.0	1	upper	Verdana.ttf
1164.784	n/a	WORD	582392	wordpools/wasnorm_wordpool_less_exclusions.txt	LTP202	ltpFR	1	6	-1	INTESTINE	742	n/a	n/a	-1	1.0	1.0	1	upper	Verdana.ttf
1168.896	n/a	WORD	584448	wordpools/wasnorm_wordpool_less_exclusions.txt	LTP202	ltpFR	1	6	-1	TANGERINE	1431	n/a	n/a	-1	1.0	1.0	1	upper	Verdana.ttf
1173.108	n/a	WORD	586554	wordpools/wasnorm_wordpool_less_exclusions.txt	LTP202	ltpFR	1	6	-1	SNOB	1335	n/a	n/a	-1	1.0	1.0	1	upper	Verdana.ttf
1177.168	n/a	WORD	588584	wordpools/wasnorm_wordpool_less_exclusions.txt	LTP202	ltpFR	1	6	-1	GENERAL	630	n/a	n/a	-1	1.0	1.0	1	upper	Verdana.ttf
1183.042	n/a	REC_START	591521	n/a	LTP202	ltpFR	1	6	n/a	n/a	n/a	n/a	n/a	n/a	n/a	n/a	n/a	n/a	n/a
1183.88	n/a	REC_WORD	591940	wordpools/wasnorm_wordpool_less_exclusions.txt	LTP202	ltpFR	1	6	-1	BONE	148	n/a	n/a	-1	n/a	n/a	n/a	n/a	n/a
1184.758	n/a	REC_WORD	592379	wordpools/wasnorm_wordpool_less_exclusions.txt	LTP202	ltpFR	1	6	-1	PUPPY	1144	n/a	n/a	-1	n/a	n/a	n/a	n/a	n/a
1185.582	n/a	REC_WORD	592791	wordpools/wasnorm_wordpool_less_exclusions.txt	LTP202	ltpFR	1	6	-1	SNOB	1335	n/a	n/a	-1	n/a	n/a	n/a	n/a	n/a
1188.754	n/a	REC_WORD	594377	wordpools/wasnorm_wordpool_less_exclusions.txt	LTP202	ltpFR	1	6	-1	INTESTINE	742	n/a	n/a	-1	n/a	n/a	n/a	n/a	n/a
1190.236	n/a	REC_WORD	595118	wordpools/wasnorm_wordpool_less_exclusions.txt	LTP202	ltpFR	1	6	-1	TANGERINE	1431	n/a	n/a	-1	n/a	n/a	n/a	n/a	n/a
1191.902	n/a	REC_WORD	595951	wordpools/wasnorm_wordpool_less_exclusions.txt	LTP202	ltpFR	1	6	-1	ARMY	39	n/a	n/a	-1	n/a	n/a	n/a	n/a	n/a
1197.15	n/a	REC_WORD	598575	wordpools/wasnorm_wordpool_less_exclusions.txt	LTP202	ltpFR	1	6	-1	ARMY	39	n/a	n/a	-1	n/a	n/a	n/a	n/a	n/a
1198.118	n/a	REC_WORD	599059	wordpools/wasnorm_wordpool_less_exclusions.txt	LTP202	ltpFR	1	6	-1	SHIRT	1287	n/a	n/a	-1	n/a	n/a	n/a	n/a	n/a
1215.772	n/a	REC_WORD	607886	wordpools/wasnorm_wordpool_less_exclusions.txt	LTP202	ltpFR	1	6	-1	KETTLE	772	n/a	n/a	-1	n/a	n/a	n/a	n/a	n/a
1216.472	n/a	REC_WORD	608236	wordpools/wasnorm_wordpool_less_exclusions.txt	LTP202	ltpFR	1	6	-1	SNACK	1331	n/a	n/a	-1	n/a	n/a	n/a	n/a	n/a
1240.248	n/a	REC_WORD	620124	wordpools/wasnorm_wordpool_less_exclusions.txt	LTP202	ltpFR	1	6	-1	COAT	333	n/a	n/a	-1	n/a	n/a	n/a	n/a	n/a
1284.492	n/a	WORD	642246	wordpools/wasnorm_wordpool_less_exclusions.txt	LTP202	ltpFR	1	7	0	MUG	930	n/a	n/a	0	0.422607421875	0.5869140625	0	lower	zerothre.ttf
1288.47	n/a	WORD	644235	wordpools/wasnorm_wordpool_less_exclusions.txt	LTP202	ltpFR	1	7	0	CONTAINER	366	n/a	n/a	0	0.422607421875	0.5869140625	0	lower	zerothre.ttf
1292.33	n/a	WORD	646165	wordpools/wasnorm_wordpool_less_exclusions.txt	LTP202	ltpFR	1	7	0	PRUNE	1134	n/a	n/a	0	0.422607421875	0.5869140625	0	lower	zerothre.ttf
1296.474	n/a	WORD	648237	wordpools/wasnorm_wordpool_less_exclusions.txt	LTP202	ltpFR	1	7	0	TOENAIL	1474	n/a	n/a	0	0.422607421875	0.5869140625	0	lower	zerothre.ttf
1300.484	n/a	WORD	650242	wordpools/wasnorm_wordpool_less_exclusions.txt	LTP202	ltpFR	1	7	0	OCEAN	970	n/a	n/a	1	0.422607421875	0.5869140625	0	lower	zerothre.ttf
1304.662	n/a	WORD	652331	wordpools/wasnorm_wordpool_less_exclusions.txt	LTP202	ltpFR	1	7	0	NUCLEUS	961	n/a	n/a	0	0.422607421875	0.5869140625	0	lower	zerothre.ttf
1308.64	n/a	WORD	654320	wordpools/wasnorm_wordpool_less_exclusions.txt	LTP202	ltpFR	1	7	0	CATTLE	261	n/a	n/a	1	0.422607421875	0.5869140625	0	lower	zerothre.ttf
1312.766	n/a	WORD	656383	wordpools/wasnorm_wordpool_less_exclusions.txt	LTP202	ltpFR	1	7	0	CHICK	296	n/a	n/a	0	0.422607421875	0.5869140625	0	lower	zerothre.ttf
1316.66	n/a	WORD	658330	wordpools/wasnorm_wordpool_less_exclusions.txt	LTP202	ltpFR	1	7	0	EGG	518	n/a	n/a	0	0.422607421875	0.5869140625	0	lower	zerothre.ttf
1320.838	n/a	WORD	660419	wordpools/wasnorm_wordpool_less_exclusions.txt	LTP202	ltpFR	1	7	0	STEW	1380	n/a	n/a	0	0.422607421875	0.5869140625	0	lower	zerothre.ttf
1324.914	n/a	WORD	662457	wordpools/wasnorm_wordpool_less_exclusions.txt	LTP202	ltpFR	1	7	0	VEGETABLE	1552	n/a	n/a	0	0.422607421875	0.5869140625	0	lower	zerothre.ttf
1329.094	n/a	WORD	664547	wordpools/wasnorm_wordpool_less_exclusions.txt	LTP202	ltpFR	1	7	0	EDITORIAL	517	n/a	n/a	0	0.422607421875	0.5869140625	0	lower	zerothre.ttf
1332.97	n/a	WORD	666485	wordpools/wasnorm_wordpool_less_exclusions.txt	LTP202	ltpFR	1	7	0	BROOK	177	n/a	n/a	1	0.422607421875	0.5869140625	0	lower	zerothre.ttf
1337.064	n/a	WORD	668532	wordpools/wasnorm_wordpool_less_exclusions.txt	LTP202	ltpFR	1	7	0	ATOM	55	n/a	n/a	0	0.422607421875	0.5869140625	0	lower	zerothre.ttf
1340.924	n/a	WORD	670462	wordpools/wasnorm_wordpool_less_exclusions.txt	LTP202	ltpFR	1	7	0	CANNON	232	n/a	n/a	1	0.422607421875	0.5869140625	0	lower	zerothre.ttf
1344.934	n/a	WORD	672467	wordpools/wasnorm_wordpool_less_exclusions.txt	LTP202	ltpFR	1	7	0	MEADOW	881	n/a	n/a	1	0.422607421875	0.5869140625	0	lower	zerothre.ttf
1350.76	n/a	REC_START	675380	n/a	LTP202	ltpFR	1	7	n/a	n/a	n/a	n/a	n/a	n/a	n/a	n/a	n/a	n/a	n/a
1351.448	n/a	REC_WORD	675724	wordpools/wasnorm_wordpool_less_exclusions.txt	LTP202	ltpFR	1	7	0	CANNON	232	n/a	n/a	1	n/a	n/a	n/a	n/a	n/a
1352.352	n/a	REC_WORD	676176	wordpools/wasnorm_wordpool_less_exclusions.txt	LTP202	ltpFR	1	7	0	MEADOW	881	n/a	n/a	1	n/a	n/a	n/a	n/a	n/a
1353.234	n/a	REC_WORD	676617	wordpools/wasnorm_wordpool_less_exclusions.txt	LTP202	ltpFR	1	7	0	OCEAN	970	n/a	n/a	1	n/a	n/a	n/a	n/a	n/a
1354.342	n/a	REC_WORD	677171	wordpools/wasnorm_wordpool_less_exclusions.txt	LTP202	ltpFR	1	7	0	BROOK	177	n/a	n/a	1	n/a	n/a	n/a	n/a	n/a
1359.98	n/a	REC_WORD	679990	wordpools/wasnorm_wordpool_less_exclusions.txt	LTP202	ltpFR	1	7	0	EDITORIAL	517	n/a	n/a	0	n/a	n/a	n/a	n/a	n/a
1368.77	n/a	REC_WORD	684385	wordpools/wasnorm_wordpool_less_exclusions.txt	LTP202	ltpFR	1	7	0	CATTLE	261	n/a	n/a	1	n/a	n/a	n/a	n/a	n/a
1376.916	n/a	REC_WORD	688458	wordpools/wasnorm_wordpool_less_exclusions.txt	LTP202	ltpFR	1	7	0	CHICK	296	n/a	n/a	0	n/a	n/a	n/a	n/a	n/a
1377.824	n/a	REC_WORD	688912	wordpools/wasnorm_wordpool_less_exclusions.txt	LTP202	ltpFR	1	7	0	EGG	518	n/a	n/a	0	n/a	n/a	n/a	n/a	n/a
1401.59	n/a	REC_WORD_VV	700795	wordpools/wasnorm_wordpool_less_exclusions.txt	LTP202	ltpFR	1	7	n/a	<>	-1	n/a	n/a	n/a	n/a	n/a	n/a	n/a	n/a
1439.496	n/a	WORD	719748	wordpools/wasnorm_wordpool_less_exclusions.txt	LTP202	ltpFR	1	8	0	MINER	896	n/a	n/a	1	0.422607421875	0.5869140625	0	lower	zerothre.ttf
1443.59	n/a	WORD	721795	wordpools/wasnorm_wordpool_less_exclusions.txt	LTP202	ltpFR	1	8	0	HOSTESS	723	n/a	n/a	1	0.422607421875	0.5869140625	0	lower	zerothre.ttf
1447.534	n/a	WORD	723767	wordpools/wasnorm_wordpool_less_exclusions.txt	LTP202	ltpFR	1	8	0	MOUNTAIN	924	n/a	n/a	1	0.422607421875	0.5869140625	0	lower	zerothre.ttf
1451.544	n/a	WORD	725772	wordpools/wasnorm_wordpool_less_exclusions.txt	LTP202	ltpFR	1	8	0	CAN	225	n/a	n/a	0	0.422607421875	0.5869140625	0	lower	zerothre.ttf
1455.738	n/a	WORD	727869	wordpools/wasnorm_wordpool_less_exclusions.txt	LTP202	ltpFR	1	8	0	SALOON	1228	n/a	n/a	1	0.422607421875	0.5869140625	0	lower	zerothre.ttf
1459.932	n/a	WORD	729966	wordpools/wasnorm_wordpool_less_exclusions.txt	LTP202	ltpFR	1	8	0	NOMAD	955	n/a	n/a	1	0.422607421875	0.5869140625	0	lower	zerothre.ttf
1464.06	n/a	WORD	732030	wordpools/wasnorm_wordpool_less_exclusions.txt	LTP202	ltpFR	1	8	0	PEN	1041	n/a	n/a	0	0.422607421875	0.5869140625	0	lower	zerothre.ttf
1468.054	n/a	WORD	734027	wordpools/wasnorm_wordpool_less_exclusions.txt	LTP202	ltpFR	1	8	0	SHEET	1279	n/a	n/a	0	0.422607421875	0.5869140625	0	lower	zerothre.ttf
1472.014	n/a	WORD	736007	wordpools/wasnorm_wordpool_less_exclusions.txt	LTP202	ltpFR	1	8	0	VOLLEYBALL	1576	n/a	n/a	1	0.422607421875	0.5869140625	0	lower	zerothre.ttf
1476.008	n/a	WORD	738004	wordpools/wasnorm_wordpool_less_exclusions.txt	LTP202	ltpFR	1	8	0	DICE	461	n/a	n/a	0	0.422607421875	0.5869140625	0	lower	zerothre.ttf
1479.936	n/a	WORD	739968	wordpools/wasnorm_wordpool_less_exclusions.txt	LTP202	ltpFR	1	8	0	CAMEL	223	n/a	n/a	1	0.422607421875	0.5869140625	0	lower	zerothre.ttf
1483.796	n/a	WORD	741898	wordpools/wasnorm_wordpool_less_exclusions.txt	LTP202	ltpFR	1	8	0	ROSE	1212	n/a	n/a	0	0.422607421875	0.5869140625	0	lower	zerothre.ttf
1487.974	n/a	WORD	743987	wordpools/wasnorm_wordpool_less_exclusions.txt	LTP202	ltpFR	1	8	0	WAITER	1580	n/a	n/a	1	0.422607421875	0.5869140625	0	lower	zerothre.ttf
1492.134	n/a	WORD	746067	wordpools/wasnorm_wordpool_less_exclusions.txt	LTP202	ltpFR	1	8	0	BRANDY	169	n/a	n/a	0	0.422607421875	0.5869140625	0	lower	zerothre.ttf
1496.012	n/a	WORD	748006	wordpools/wasnorm_wordpool_less_exclusions.txt	LTP202	ltpFR	1	8	0	PIGEON	1065	n/a	n/a	0	0.422607421875	0.5869140625	0	lower	zerothre.ttf
1499.922	n/a	WORD	749961	wordpools/wasnorm_wordpool_less_exclusions.txt	LTP202	ltpFR	1	8	0	PARROT	1015	n/a	n/a	0	0.422607421875	0.5869140625	0	lower	zerothre.ttf
1505.698	n/a	REC_START	752849	n/a	LTP202	ltpFR	1	8	n/a	n/a	n/a	n/a	n/a	n/a	n/a	n/a	n/a	n/a	n/a
1506.222	n/a	REC_WORD	753111	wordpools/wasnorm_wordpool_less_exclusions.txt	LTP202	ltpFR	1	8	0	BRANDY	169	n/a	n/a	0	n/a	n/a	n/a	n/a	n/a
1507.01	n/a	REC_WORD	753505	wordpools/wasnorm_wordpool_less_exclusions.txt	LTP202	ltpFR	1	8	0	PIGEON	1065	n/a	n/a	0	n/a	n/a	n/a	n/a	n/a
1507.768	n/a	REC_WORD	753884	wordpools/wasnorm_wordpool_less_exclusions.txt	LTP202	ltpFR	1	8	0	PARROT	1015	n/a	n/a	0	n/a	n/a	n/a	n/a	n/a
1509.02	n/a	REC_WORD	754510	wordpools/wasnorm_wordpool_less_exclusions.txt	LTP202	ltpFR	1	8	0	VOLLEYBALL	1576	n/a	n/a	1	n/a	n/a	n/a	n/a	n/a
1510.428	n/a	REC_WORD	755214	wordpools/wasnorm_wordpool_less_exclusions.txt	LTP202	ltpFR	1	8	0	WAITER	1580	n/a	n/a	1	n/a	n/a	n/a	n/a	n/a
1511.75	n/a	REC_WORD	755875	wordpools/wasnorm_wordpool_less_exclusions.txt	LTP202	ltpFR	1	8	0	MINER	896	n/a	n/a	1	n/a	n/a	n/a	n/a	n/a
1513.576	n/a	REC_WORD	756788	wordpools/wasnorm_wordpool_less_exclusions.txt	LTP202	ltpFR	1	8	0	SALOON	1228	n/a	n/a	1	n/a	n/a	n/a	n/a	n/a
1517.542	n/a	REC_WORD	758771	wordpools/wasnorm_wordpool_less_exclusions.txt	LTP202	ltpFR	1	8	0	SHEET	1279	n/a	n/a	0	n/a	n/a	n/a	n/a	n/a
1530.546	n/a	REC_WORD	765273	wordpools/wasnorm_wordpool_less_exclusions.txt	LTP202	ltpFR	1	8	0	MOUNTAIN	924	n/a	n/a	1	n/a	n/a	n/a	n/a	n/a
1542.28	n/a	REC_WORD	771140	wordpools/wasnorm_wordpool_less_exclusions.txt	LTP202	ltpFR	1	8	0	PEN	1041	n/a	n/a	0	n/a	n/a	n/a	n/a	n/a
1544.026	n/a	REC_WORD	772013	wordpools/wasnorm_wordpool_less_exclusions.txt	LTP202	ltpFR	1	8	0	DICE	461	n/a	n/a	0	n/a	n/a	n/a	n/a	n/a
1552.192	n/a	REC_WORD	776096	wordpools/wasnorm_wordpool_less_exclusions.txt	LTP202	ltpFR	1	8	0	CAMEL	223	n/a	n/a	1	n/a	n/a	n/a	n/a	n/a
1590.49	n/a	WORD	795245	wordpools/wasnorm_wordpool_less_exclusions.txt	LTP202	ltpFR	1	9	-1	BANANA	77	n/a	n/a	-1	1.0	1.0	1	upper	Verdana.ttf
1594.534	n/a	WORD	797267	wordpools/wasnorm_wordpool_less_exclusions.txt	LTP202	ltpFR	1	9	-1	OREGANO	983	n/a	n/a	-1	1.0	1.0	1	upper	Verdana.ttf
1598.676	n/a	WORD	799338	wordpools/wasnorm_wordpool_less_exclusions.txt	LTP202	ltpFR	1	9	-1	ABDOMEN	1	n/a	n/a	-1	1.0	1.0	1	upper	Verdana.ttf
1602.82	n/a	WORD	801410	wordpools/wasnorm_wordpool_less_exclusions.txt	LTP202	ltpFR	1	9	-1	LOCK	838	n/a	n/a	-1	1.0	1.0	1	upper	Verdana.ttf
1606.848	n/a	WORD	803424	wordpools/wasnorm_wordpool_less_exclusions.txt	LTP202	ltpFR	1	9	-1	GARAGE	621	n/a	n/a	-1	1.0	1.0	1	upper	Verdana.ttf
1610.892	n/a	WORD	805446	wordpools/wasnorm_wordpool_less_exclusions.txt	LTP202	ltpFR	1	9	-1	BADGE	68	n/a	n/a	-1	1.0	1.0	1	upper	Verdana.ttf
1615.018	n/a	WORD	807509	wordpools/wasnorm_wordpool_less_exclusions.txt	LTP202	ltpFR	1	9	-1	SHORE	1291	n/a	n/a	-1	1.0	1.0	1	upper	Verdana.ttf
1619.23	n/a	WORD	809615	wordpools/wasnorm_wordpool_less_exclusions.txt	LTP202	ltpFR	1	9	-1	VINE	1568	n/a	n/a	-1	1.0	1.0	1	upper	Verdana.ttf
1623.092	n/a	WORD	811546	wordpools/wasnorm_wordpool_less_exclusions.txt	LTP202	ltpFR	1	9	-1	BELLY	119	n/a	n/a	-1	1.0	1.0	1	upper	Verdana.ttf
1626.918	n/a	WORD	813459	wordpools/wasnorm_wordpool_less_exclusions.txt	LTP202	ltpFR	1	9	-1	BARN	89	n/a	n/a	-1	1.0	1.0	1	upper	Verdana.ttf
1630.928	n/a	WORD	815464	wordpools/wasnorm_wordpool_less_exclusions.txt	LTP202	ltpFR	1	9	-1	OATS	968	n/a	n/a	-1	1.0	1.0	1	upper	Verdana.ttf
1634.84	n/a	WORD	817420	wordpools/wasnorm_wordpool_less_exclusions.txt	LTP202	ltpFR	1	9	-1	REGISTER	1180	n/a	n/a	-1	1.0	1.0	1	upper	Verdana.ttf
1638.85	n/a	WORD	819425	wordpools/wasnorm_wordpool_less_exclusions.txt	LTP202	ltpFR	1	9	-1	OX	994	n/a	n/a	-1	1.0	1.0	1	upper	Verdana.ttf
1642.828	n/a	WORD	821414	wordpools/wasnorm_wordpool_less_exclusions.txt	LTP202	ltpFR	1	9	-1	POSSUM	1112	n/a	n/a	-1	1.0	1.0	1	upper	Verdana.ttf
1646.738	n/a	WORD	823369	wordpools/wasnorm_wordpool_less_exclusions.txt	LTP202	ltpFR	1	9	-1	BEAST	108	n/a	n/a	-1	1.0	1.0	1	upper	Verdana.ttf
1650.684	n/a	WORD	825342	wordpools/wasnorm_wordpool_less_exclusions.txt	LTP202	ltpFR	1	9	-1	CRAB	397	n/a	n/a	-1	1.0	1.0	1	upper	Verdana.ttf
1656.46	n/a	REC_START	828230	n/a	LTP202	ltpFR	1	9	n/a	n/a	n/a	n/a	n/a	n/a	n/a	n/a	n/a	n/a	n/a
1657.072	n/a	REC_WORD	828536	wordpools/wasnorm_wordpool_less_exclusions.txt	LTP202	ltpFR	1	9	-1	OX	994	n/a	n/a	-1	n/a	n/a	n/a	n/a	n/a
1657.876	n/a	REC_WORD	828938	wordpools/wasnorm_wordpool_less_exclusions.txt	LTP202	ltpFR	1	9	-1	POSSUM	1112	n/a	n/a	-1	n/a	n/a	n/a	n/a	n/a
1658.828	n/a	REC_WORD	829414	wordpools/wasnorm_wordpool_less_exclusions.txt	LTP202	ltpFR	1	9	-1	BEAST	108	n/a	n/a	-1	n/a	n/a	n/a	n/a	n/a
1659.532	n/a	REC_WORD	829766	wordpools/wasnorm_wordpool_less_exclusions.txt	LTP202	ltpFR	1	9	-1	CRAB	397	n/a	n/a	-1	n/a	n/a	n/a	n/a	n/a
1660.724	n/a	REC_WORD	830362	wordpools/wasnorm_wordpool_less_exclusions.txt	LTP202	ltpFR	1	9	-1	REGISTER	1180	n/a	n/a	-1	n/a	n/a	n/a	n/a	n/a
1662.56	n/a	REC_WORD	831280	wordpools/wasnorm_wordpool_less_exclusions.txt	LTP202	ltpFR	1	9	-1	GARAGE	621	n/a	n/a	-1	n/a	n/a	n/a	n/a	n/a
1664.032	n/a	REC_WORD	832016	wordpools/wasnorm_wordpool_less_exclusions.txt	LTP202	ltpFR	1	9	-1	BADGE	68	n/a	n/a	-1	n/a	n/a	n/a	n/a	n/a
1667.874	n/a	REC_WORD	833937	wordpools/wasnorm_wordpool_less_exclusions.txt	LTP202	ltpFR	1	9	-1	BANANA	77	n/a	n/a	-1	n/a	n/a	n/a	n/a	n/a
1668.812	n/a	REC_WORD	834406	wordpools/wasnorm_wordpool_less_exclusions.txt	LTP202	ltpFR	1	9	-1	OREGANO	983	n/a	n/a	-1	n/a	n/a	n/a	n/a	n/a
1674.248	n/a	REC_WORD	837124	wordpools/wasnorm_wordpool_less_exclusions.txt	LTP202	ltpFR	1	9	-1	OATS	968	n/a	n/a	-1	n/a	n/a	n/a	n/a	n/a
1677.302	n/a	REC_WORD	838651	wordpools/wasnorm_wordpool_less_exclusions.txt	LTP202	ltpFR	1	9	-1	VINE	1568	n/a	n/a	-1	n/a	n/a	n/a	n/a	n/a
1803.192	n/a	WORD	901596	wordpools/wasnorm_wordpool_less_exclusions.txt	LTP202	ltpFR	1	10	1	AWARD	63	n/a	n/a	0	0.57763671875	0.412841796875	1	upper	amplitud.ttf
1807.386	n/a	WORD	903693	wordpools/wasnorm_wordpool_less_exclusions.txt	LTP202	ltpFR	1	10	1	VET	1560	n/a	n/a	1	0.57763671875	0.412841796875	1	upper	amplitud.ttf
1811.596	n/a	WORD	905798	wordpools/wasnorm_wordpool_less_exclusions.txt	LTP202	ltpFR	1	10	1	PAN	1008	n/a	n/a	0	0.57763671875	0.412841796875	1	upper	amplitud.ttf
1815.556	n/a	WORD	907778	wordpools/wasnorm_wordpool_less_exclusions.txt	LTP202	ltpFR	1	10	1	APRON	35	n/a	n/a	0	0.57763671875	0.412841796875	1	upper	amplitud.ttf
1819.484	n/a	WORD	909742	wordpools/wasnorm_wordpool_less_exclusions.txt	LTP202	ltpFR	1	10	1	RACKET	1155	n/a	n/a	0	0.57763671875	0.412841796875	1	upper	amplitud.ttf
1823.446	n/a	WORD	911723	wordpools/wasnorm_wordpool_less_exclusions.txt	LTP202	ltpFR	1	10	1	MOTH	920	n/a	n/a	1	0.57763671875	0.412841796875	1	upper	amplitud.ttf
1827.472	n/a	WORD	913736	wordpools/wasnorm_wordpool_less_exclusions.txt	LTP202	ltpFR	1	10	1	WRENCH	1625	n/a	n/a	0	0.57763671875	0.412841796875	1	upper	amplitud.ttf
1831.516	n/a	WORD	915758	wordpools/wasnorm_wordpool_less_exclusions.txt	LTP202	ltpFR	1	10	1	RACCOON	1153	n/a	n/a	1	0.57763671875	0.412841796875	1	upper	amplitud.ttf
1835.494	n/a	WORD	917747	wordpools/wasnorm_wordpool_less_exclusions.txt	LTP202	ltpFR	1	10	1	WHEEL	1603	n/a	n/a	0	0.57763671875	0.412841796875	1	upper	amplitud.ttf
1839.67	n/a	WORD	919835	wordpools/wasnorm_wordpool_less_exclusions.txt	LTP202	ltpFR	1	10	1	ASSOCIATE	49	n/a	n/a	1	0.57763671875	0.412841796875	1	upper	amplitud.ttf
1843.814	n/a	WORD	921907	wordpools/wasnorm_wordpool_less_exclusions.txt	LTP202	ltpFR	1	10	1	RESORT	1186	n/a	n/a	0	0.57763671875	0.412841796875	1	upper	amplitud.ttf
1847.908	n/a	WORD	923954	wordpools/wasnorm_wordpool_less_exclusions.txt	LTP202	ltpFR	1	10	1	LOBBY	836	n/a	n/a	0	0.57763671875	0.412841796875	1	upper	amplitud.ttf
1851.802	n/a	WORD	925901	wordpools/wasnorm_wordpool_less_exclusions.txt	LTP202	ltpFR	1	10	1	PLIERS	1089	n/a	n/a	0	0.57763671875	0.412841796875	1	upper	amplitud.ttf
1855.63	n/a	WORD	927815	wordpools/wasnorm_wordpool_less_exclusions.txt	LTP202	ltpFR	1	10	1	JOKER	759	n/a	n/a	1	0.57763671875	0.412841796875	1	upper	amplitud.ttf
1859.808	n/a	WORD	929904	wordpools/wasnorm_wordpool_less_exclusions.txt	LTP202	ltpFR	1	10	1	CHEEK	287	n/a	n/a	0	0.57763671875	0.412841796875	1	upper	amplitud.ttf
1863.968	n/a	WORD	931984	wordpools/wasnorm_wordpool_less_exclusions.txt	LTP202	ltpFR	1	10	1	CLAMP	316	n/a	n/a	0	0.57763671875	0.412841796875	1	upper	amplitud.ttf
1869.894	n/a	REC_START	934947	n/a	LTP202	ltpFR	1	10	n/a	n/a	n/a	n/a	n/a	n/a	n/a	n/a	n/a	n/a	n/a
1870.656	n/a	REC_WORD	935328	wordpools/wasnorm_wordpool_less_exclusions.txt	LTP202	ltpFR	1	10	1	CLAMP	316	n/a	n/a	0	n/a	n/a	n/a	n/a	n/a
1871.62	n/a	REC_WORD	935810	wordpools/wasnorm_wordpool_less_exclusions.txt	LTP202	ltpFR	1	10	1	PLIERS	1089	n/a	n/a	0	n/a	n/a	n/a	n/a	n/a
1872.608	n/a	REC_WORD	936304	wordpools/wasnorm_wordpool_less_exclusions.txt	LTP202	ltpFR	1	10	1	WRENCH	1625	n/a	n/a	0	n/a	n/a	n/a	n/a	n/a
1873.654	n/a	REC_WORD	936827	wordpools/wasnorm_wordpool_less_exclusions.txt	LTP202	ltpFR	1	10	1	JOKER	759	n/a	n/a	1	n/a	n/a	n/a	n/a	n/a
1874.792	n/a	REC_WORD	937396	wordpools/wasnorm_wordpool_less_exclusions.txt	LTP202	ltpFR	1	10	1	ASSOCIATE	49	n/a	n/a	1	n/a	n/a	n/a	n/a	n/a
1875.814	n/a	REC_WORD	937907	wordpools/wasnorm_wordpool_less_exclusions.txt	LTP202	ltpFR	1	10	1	AWARD	63	n/a	n/a	0	n/a	n/a	n/a	n/a	n/a
1880.324	n/a	REC_WORD	940162	wordpools/wasnorm_wordpool_less_exclusions.txt	LTP202	ltpFR	1	10	1	VET	1560	n/a	n/a	1	n/a	n/a	n/a	n/a	n/a
1889.794	n/a	REC_WORD_VV	944897	wordpools/wasnorm_wordpool_less_exclusions.txt	LTP202	ltpFR	1	10	n/a	<>	-1	n/a	n/a	n/a	n/a	n/a	n/a	n/a	n/a
1911.694	n/a	REC_WORD	955847	wordpools/wasnorm_wordpool_less_exclusions.txt	LTP202	ltpFR	1	10	1	WHEEL	1603	n/a	n/a	0	n/a	n/a	n/a	n/a	n/a
1955.118	n/a	WORD	977559	wordpools/wasnorm_wordpool_less_exclusions.txt	LTP202	ltpFR	1	11	0	COTTAGE	384	n/a	n/a	0	0.422607421875	0.5869140625	0	lower	zerothre.ttf
1959.026	n/a	WORD	979513	wordpools/wasnorm_wordpool_less_exclusions.txt	LTP202	ltpFR	1	11	0	MUSHROOM	934	n/a	n/a	0	0.422607421875	0.5869140625	0	lower	zerothre.ttf
1963.054	n/a	WORD	981527	wordpools/wasnorm_wordpool_less_exclusions.txt	LTP202	ltpFR	1	11	0	KITE	779	n/a	n/a	0	0.422607421875	0.5869140625	0	lower	zerothre.ttf
1967.166	n/a	WORD	983583	wordpools/wasnorm_wordpool_less_exclusions.txt	LTP202	ltpFR	1	11	0	GRATE	657	n/a	n/a	0	0.422607421875	0.5869140625	0	lower	zerothre.ttf
1971.31	n/a	WORD	985655	wordpools/wasnorm_wordpool_less_exclusions.txt	LTP202	ltpFR	1	11	0	COIN	343	n/a	n/a	0	0.422607421875	0.5869140625	0	lower	zerothre.ttf
1975.254	n/a	WORD	987627	wordpools/wasnorm_wordpool_less_exclusions.txt	LTP202	ltpFR	1	11	0	RECEIPT	1173	n/a	n/a	0	0.422607421875	0.5869140625	0	lower	zerothre.ttf
1979.248	n/a	WORD	989624	wordpools/wasnorm_wordpool_less_exclusions.txt	LTP202	ltpFR	1	11	0	RIBBON	1189	n/a	n/a	0	0.422607421875	0.5869140625	0	lower	zerothre.ttf
1983.226	n/a	WORD	991613	wordpools/wasnorm_wordpool_less_exclusions.txt	LTP202	ltpFR	1	11	0	GRILL	661	n/a	n/a	0	0.422607421875	0.5869140625	0	lower	zerothre.ttf
1987.436	n/a	WORD	993718	wordpools/wasnorm_wordpool_less_exclusions.txt	LTP202	ltpFR	1	11	0	BARLEY	88	n/a	n/a	0	0.422607421875	0.5869140625	0	lower	zerothre.ttf
1991.446	n/a	WORD	995723	wordpools/wasnorm_wordpool_less_exclusions.txt	LTP202	ltpFR	1	11	0	PALACE	1006	n/a	n/a	1	0.422607421875	0.5869140625	0	lower	zerothre.ttf
1995.656	n/a	WORD	997828	wordpools/wasnorm_wordpool_less_exclusions.txt	LTP202	ltpFR	1	11	0	SOAP	1337	n/a	n/a	0	0.422607421875	0.5869140625	0	lower	zerothre.ttf
1999.634	n/a	WORD	999817	wordpools/wasnorm_wordpool_less_exclusions.txt	LTP202	ltpFR	1	11	0	PUBLICATION	1136	n/a	n/a	0	0.422607421875	0.5869140625	0	lower	zerothre.ttf
2003.53	n/a	WORD	1001765	wordpools/wasnorm_wordpool_less_exclusions.txt	LTP202	ltpFR	1	11	0	ANTELOPE	27	n/a	n/a	1	0.422607421875	0.5869140625	0	lower	zerothre.ttf
2007.606	n/a	WORD	1003803	wordpools/wasnorm_wordpool_less_exclusions.txt	LTP202	ltpFR	1	11	0	ANIMAL	23	n/a	n/a	1	0.422607421875	0.5869140625	0	lower	zerothre.ttf
2011.468	n/a	WORD	1005734	wordpools/wasnorm_wordpool_less_exclusions.txt	LTP202	ltpFR	1	11	0	CRICKET	408	n/a	n/a	0	0.422607421875	0.5869140625	0	lower	zerothre.ttf
2015.528	n/a	WORD	1007764	wordpools/wasnorm_wordpool_less_exclusions.txt	LTP202	ltpFR	1	11	0	COLUMN	350	n/a	n/a	0	0.422607421875	0.5869140625	0	lower	zerothre.ttf
2021.22	n/a	REC_START	1010610	n/a	LTP202	ltpFR	1	11	n/a	n/a	n/a	n/a	n/a	n/a	n/a	n/a	n/a	n/a	n/a
2021.928	n/a	REC_WORD	1010964	wordpools/wasnorm_wordpool_less_exclusions.txt	LTP202	ltpFR	1	11	0	ANTELOPE	27	n/a	n/a	1	n/a	n/a	n/a	n/a	n/a
2022.692	n/a	REC_WORD	1011346	wordpools/wasnorm_wordpool_less_exclusions.txt	LTP202	ltpFR	1	11	0	ANIMAL	23	n/a	n/a	1	n/a	n/a	n/a	n/a	n/a
2023.35	n/a	REC_WORD	1011675	wordpools/wasnorm_wordpool_less_exclusions.txt	LTP202	ltpFR	1	11	0	CRICKET	408	n/a	n/a	0	n/a	n/a	n/a	n/a	n/a
2024.438	n/a	REC_WORD	1012219	wordpools/wasnorm_wordpool_less_exclusions.txt	LTP202	ltpFR	1	11	0	COLUMN	350	n/a	n/a	0	n/a	n/a	n/a	n/a	n/a
2027.78	n/a	REC_WORD	1013890	wordpools/wasnorm_wordpool_less_exclusions.txt	LTP202	ltpFR	1	11	0	KITE	779	n/a	n/a	0	n/a	n/a	n/a	n/a	n/a
2029.87	n/a	REC_WORD	1014935	wordpools/wasnorm_wordpool_less_exclusions.txt	LTP202	ltpFR	1	11	0	GRILL	661	n/a	n/a	0	n/a	n/a	n/a	n/a	n/a
2030.734	n/a	REC_WORD	1015367	wordpools/wasnorm_wordpool_less_exclusions.txt	LTP202	ltpFR	1	11	0	GRILL	661	n/a	n/a	0	n/a	n/a	n/a	n/a	n/a
2063.754	n/a	REC_WORD	1031877	wordpools/wasnorm_wordpool_less_exclusions.txt	LTP202	ltpFR	1	11	0	PUBLICATION	1136	n/a	n/a	0	n/a	n/a	n/a	n/a	n/a
2102.714	n/a	WORD	1051357	wordpools/wasnorm_wordpool_less_exclusions.txt	LTP202	ltpFR	1	12	1	PERSON	1052	n/a	n/a	1	0.57763671875	0.412841796875	1	upper	amplitud.ttf
2106.774	n/a	WORD	1053387	wordpools/wasnorm_wordpool_less_exclusions.txt	LTP202	ltpFR	1	12	1	SCAPEGOAT	1244	n/a	n/a	1	0.57763671875	0.412841796875	1	upper	amplitud.ttf
2110.602	n/a	WORD	1055301	wordpools/wasnorm_wordpool_less_exclusions.txt	LTP202	ltpFR	1	12	1	FOREST	593	n/a	n/a	0	0.57763671875	0.412841796875	1	upper	amplitud.ttf
2114.73	n/a	WORD	1057365	wordpools/wasnorm_wordpool_less_exclusions.txt	LTP202	ltpFR	1	12	1	MESSAGE	888	n/a	n/a	0	0.57763671875	0.412841796875	1	upper	amplitud.ttf
2118.94	n/a	WORD	1059470	wordpools/wasnorm_wordpool_less_exclusions.txt	LTP202	ltpFR	1	12	1	STEWARDESS	1381	n/a	n/a	1	0.57763671875	0.412841796875	1	upper	amplitud.ttf
2122.784	n/a	WORD	1061392	wordpools/wasnorm_wordpool_less_exclusions.txt	LTP202	ltpFR	1	12	1	CLOUD	328	n/a	n/a	0	0.57763671875	0.412841796875	1	upper	amplitud.ttf
2126.928	n/a	WORD	1063464	wordpools/wasnorm_wordpool_less_exclusions.txt	LTP202	ltpFR	1	12	1	ATTORNEY	58	n/a	n/a	1	0.57763671875	0.412841796875	1	upper	amplitud.ttf
2131.024	n/a	WORD	1065512	wordpools/wasnorm_wordpool_less_exclusions.txt	LTP202	ltpFR	1	12	1	LAWYER	806	n/a	n/a	1	0.57763671875	0.412841796875	1	upper	amplitud.ttf
2135.034	n/a	WORD	1067517	wordpools/wasnorm_wordpool_less_exclusions.txt	LTP202	ltpFR	1	12	1	HEATER	698	n/a	n/a	0	0.57763671875	0.412841796875	1	upper	amplitud.ttf
2138.862	n/a	WORD	1069431	wordpools/wasnorm_wordpool_less_exclusions.txt	LTP202	ltpFR	1	12	1	COLLAR	345	n/a	n/a	0	0.57763671875	0.412841796875	1	upper	amplitud.ttf
2142.888	n/a	WORD	1071444	wordpools/wasnorm_wordpool_less_exclusions.txt	LTP202	ltpFR	1	12	1	BINDER	127	n/a	n/a	0	0.57763671875	0.412841796875	1	upper	amplitud.ttf
2147.0	n/a	WORD	1073500	wordpools/wasnorm_wordpool_less_exclusions.txt	LTP202	ltpFR	1	12	1	ROOT	1210	n/a	n/a	0	0.57763671875	0.412841796875	1	upper	amplitud.ttf
2151.076	n/a	WORD	1075538	wordpools/wasnorm_wordpool_less_exclusions.txt	LTP202	ltpFR	1	12	1	IGLOO	734	n/a	n/a	0	0.57763671875	0.412841796875	1	upper	amplitud.ttf
2154.904	n/a	WORD	1077452	wordpools/wasnorm_wordpool_less_exclusions.txt	LTP202	ltpFR	1	12	1	ROOMMATE	1207	n/a	n/a	1	0.57763671875	0.412841796875	1	upper	amplitud.ttf
2158.932	n/a	WORD	1079466	wordpools/wasnorm_wordpool_less_exclusions.txt	LTP202	ltpFR	1	12	1	CABIN	211	n/a	n/a	0	0.57763671875	0.412841796875	1	upper	amplitud.ttf
2163.026	n/a	WORD	1081513	wordpools/wasnorm_wordpool_less_exclusions.txt	LTP202	ltpFR	1	12	1	DOLL	481	n/a	n/a	0	0.57763671875	0.412841796875	1	upper	amplitud.ttf
2168.984	n/a	REC_START	1084492	n/a	LTP202	ltpFR	1	12	n/a	n/a	n/a	n/a	n/a	n/a	n/a	n/a	n/a	n/a	n/a
2169.586	n/a	REC_WORD	1084793	wordpools/wasnorm_wordpool_less_exclusions.txt	LTP202	ltpFR	1	12	1	BINDER	127	n/a	n/a	0	n/a	n/a	n/a	n/a	n/a
2170.504	n/a	REC_WORD	1085252	wordpools/wasnorm_wordpool_less_exclusions.txt	LTP202	ltpFR	1	12	1	ROOMMATE	1207	n/a	n/a	1	n/a	n/a	n/a	n/a	n/a
2171.318	n/a	REC_WORD	1085659	wordpools/wasnorm_wordpool_less_exclusions.txt	LTP202	ltpFR	1	12	1	ROOT	1210	n/a	n/a	0	n/a	n/a	n/a	n/a	n/a
2172.122	n/a	REC_WORD	1086061	wordpools/wasnorm_wordpool_less_exclusions.txt	LTP202	ltpFR	1	12	1	CABIN	211	n/a	n/a	0	n/a	n/a	n/a	n/a	n/a
2173.07	n/a	REC_WORD	1086535	wordpools/wasnorm_wordpool_less_exclusions.txt	LTP202	ltpFR	1	12	1	DOLL	481	n/a	n/a	0	n/a	n/a	n/a	n/a	n/a
2173.992	n/a	REC_WORD	1086996	wordpools/wasnorm_wordpool_less_exclusions.txt	LTP202	ltpFR	1	12	1	FOREST	593	n/a	n/a	0	n/a	n/a	n/a	n/a	n/a
2174.974	n/a	REC_WORD	1087487	wordpools/wasnorm_wordpool_less_exclusions.txt	LTP202	ltpFR	1	12	1	CLOUD	328	n/a	n/a	0	n/a	n/a	n/a	n/a	n/a
2178.266	n/a	REC_WORD	1089133	wordpools/wasnorm_wordpool_less_exclusions.txt	LTP202	ltpFR	1	12	1	ATTORNEY	58	n/a	n/a	1	n/a	n/a	n/a	n/a	n/a
2180.872	n/a	REC_WORD	1090436	wordpools/wasnorm_wordpool_less_exclusions.txt	LTP202	ltpFR	1	12	1	LAWYER	806	n/a	n/a	1	n/a	n/a	n/a	n/a	n/a
2189.76	n/a	REC_WORD	1094880	wordpools/wasnorm_wordpool_less_exclusions.txt	LTP202	ltpFR	1	12	1	STEWARDESS	1381	n/a	n/a	1	n/a	n/a	n/a	n/a	n/a
2197.742	n/a	REC_WORD	1098871	wordpools/wasnorm_wordpool_less_exclusions.txt	LTP202	ltpFR	1	12	1	SCAPEGOAT	1244	n/a	n/a	1	n/a	n/a	n/a	n/a	n/a
2205.456	n/a	REC_WORD	1102728	wordpools/wasnorm_wordpool_less_exclusions.txt	LTP202	ltpFR	1	12	1	DOLL	481	n/a	n/a	0	n/a	n/a	n/a	n/a	n/a
2244.572	n/a	REST_REWET	1122286	n/a	LTP202	ltpFR	1	12	n/a	n/a	n/a	n/a	n/a	n/a	n/a	n/a	n/a	n/a	n/a
2443.61	n/a	WORD	1221805	wordpools/wasnorm_wordpool_less_exclusions.txt	LTP202	ltpFR	1	13	0	ELEPHANT	523	n/a	n/a	1	0.422607421875	0.5869140625	0	lower	zerothre.ttf
2447.688	n/a	WORD	1223844	wordpools/wasnorm_wordpool_less_exclusions.txt	LTP202	ltpFR	1	13	0	CARPENTER	246	n/a	n/a	1	0.422607421875	0.5869140625	0	lower	zerothre.ttf
2451.914	n/a	WORD	1225957	wordpools/wasnorm_wordpool_less_exclusions.txt	LTP202	ltpFR	1	13	0	SEAGULL	1261	n/a	n/a	0	0.422607421875	0.5869140625	0	lower	zerothre.ttf
2455.958	n/a	WORD	1227979	wordpools/wasnorm_wordpool_less_exclusions.txt	LTP202	ltpFR	1	13	0	WINGS	1614	n/a	n/a	0	0.422607421875	0.5869140625	0	lower	zerothre.ttf
2460.036	n/a	WORD	1230018	wordpools/wasnorm_wordpool_less_exclusions.txt	LTP202	ltpFR	1	13	0	TOURIST	1488	n/a	n/a	1	0.422607421875	0.5869140625	0	lower	zerothre.ttf
2463.98	n/a	WORD	1231990	wordpools/wasnorm_wordpool_less_exclusions.txt	LTP202	ltpFR	1	13	1	FRIEND	606	n/a	n/a	1	0.57763671875	0.412841796875	1	upper	amplitud.ttf
2467.84	n/a	WORD	1233920	wordpools/wasnorm_wordpool_less_exclusions.txt	LTP202	ltpFR	1	13	1	SHINGLE	1285	n/a	n/a	0	0.57763671875	0.412841796875	1	upper	amplitud.ttf
2471.752	n/a	WORD	1235876	wordpools/wasnorm_wordpool_less_exclusions.txt	LTP202	ltpFR	1	13	0	VESSEL	1558	n/a	n/a	0	0.422607421875	0.5869140625	0	lower	zerothre.ttf
2475.596	n/a	WORD	1237798	wordpools/wasnorm_wordpool_less_exclusions.txt	LTP202	ltpFR	1	13	0	DINER	467	n/a	n/a	1	0.422607421875	0.5869140625	0	lower	zerothre.ttf
2479.59	n/a	WORD	1239795	wordpools/wasnorm_wordpool_less_exclusions.txt	LTP202	ltpFR	1	13	0	CUPBOARD	425	n/a	n/a	1	0.422607421875	0.5869140625	0	lower	zerothre.ttf
2483.684	n/a	WORD	1241842	wordpools/wasnorm_wordpool_less_exclusions.txt	LTP202	ltpFR	1	13	1	SICKLE	1302	n/a	n/a	0	0.57763671875	0.412841796875	1	upper	amplitud.ttf
2487.53	n/a	WORD	1243765	wordpools/wasnorm_wordpool_less_exclusions.txt	LTP202	ltpFR	1	13	1	BLOCKADE	137	n/a	n/a	0	0.57763671875	0.412841796875	1	upper	amplitud.ttf
2491.458	n/a	WORD	1245729	wordpools/wasnorm_wordpool_less_exclusions.txt	LTP202	ltpFR	1	13	1	HEN	703	n/a	n/a	1	0.57763671875	0.412841796875	1	upper	amplitud.ttf
2495.452	n/a	WORD	1247726	wordpools/wasnorm_wordpool_less_exclusions.txt	LTP202	ltpFR	1	13	1	PADDLE	1000	n/a	n/a	0	0.57763671875	0.412841796875	1	upper	amplitud.ttf
2499.446	n/a	WORD	1249723	wordpools/wasnorm_wordpool_less_exclusions.txt	LTP202	ltpFR	1	13	1	HEADBAND	696	n/a	n/a	0	0.57763671875	0.412841796875	1	upper	amplitud.ttf
2503.29	n/a	WORD	1251645	wordpools/wasnorm_wordpool_less_exclusions.txt	LTP202	ltpFR	1	13	1	WARRIOR	1589	n/a	n/a	1	0.57763671875	0.412841796875	1	upper	amplitud.ttf
2509.064	n/a	REC_START	1254532	n/a	LTP202	ltpFR	1	13	n/a	n/a	n/a	n/a	n/a	n/a	n/a	n/a	n/a	n/a	n/a
2509.568	n/a	REC_WORD	1254784	wordpools/wasnorm_wordpool_less_exclusions.txt	LTP202	ltpFR	1	13	1	PADDLE	1000	n/a	n/a	0	n/a	n/a	n/a	n/a	n/a
2510.14	n/a	REC_WORD	1255070	wordpools/wasnorm_wordpool_less_exclusions.txt	LTP202	ltpFR	1	13	1	HEADBAND	696	n/a	n/a	0	n/a	n/a	n/a	n/a	n/a
2511.018	n/a	REC_WORD	1255509	wordpools/wasnorm_wordpool_less_exclusions.txt	LTP202	ltpFR	1	13	1	WARRIOR	1589	n/a	n/a	1	n/a	n/a	n/a	n/a	n/a
2512.272	n/a	REC_WORD	1256136	wordpools/wasnorm_wordpool_less_exclusions.txt	LTP202	ltpFR	1	13	0	ELEPHANT	523	n/a	n/a	1	n/a	n/a	n/a	n/a	n/a
2513.0	n/a	REC_WORD	1256500	wordpools/wasnorm_wordpool_less_exclusions.txt	LTP202	ltpFR	1	13	0	CARPENTER	246	n/a	n/a	1	n/a	n/a	n/a	n/a	n/a
2514.092	n/a	REC_WORD	1257046	wordpools/wasnorm_wordpool_less_exclusions.txt	LTP202	ltpFR	1	13	1	SICKLE	1302	n/a	n/a	0	n/a	n/a	n/a	n/a	n/a
2515.114	n/a	REC_WORD	1257557	wordpools/wasnorm_wordpool_less_exclusions.txt	LTP202	ltpFR	1	13	1	FRIEND	606	n/a	n/a	1	n/a	n/a	n/a	n/a	n/a
2521.75	n/a	REC_WORD	1260875	wordpools/wasnorm_wordpool_less_exclusions.txt	LTP202	ltpFR	1	13	0	SEAGULL	1261	n/a	n/a	0	n/a	n/a	n/a	n/a	n/a
2523.446	n/a	REC_WORD	1261723	wordpools/wasnorm_wordpool_less_exclusions.txt	LTP202	ltpFR	1	13	0	WINGS	1614	n/a	n/a	0	n/a	n/a	n/a	n/a	n/a
2549.378	n/a	REC_WORD	1274689	wordpools/wasnorm_wordpool_less_exclusions.txt	LTP202	ltpFR	1	13	0	CARPENTER	246	n/a	n/a	1	n/a	n/a	n/a	n/a	n/a
2617.586	n/a	WORD	1308793	wordpools/wasnorm_wordpool_less_exclusions.txt	LTP202	ltpFR	1	14	1	COCKTAIL	338	n/a	n/a	0	0.57763671875	0.412841796875	1	upper	amplitud.ttf
2621.416	n/a	WORD	1310708	wordpools/wasnorm_wordpool_less_exclusions.txt	LTP202	ltpFR	1	14	1	BIOLOGIST	128	n/a	n/a	1	0.57763671875	0.412841796875	1	upper	amplitud.ttf
2625.624	n/a	WORD	1312812	wordpools/wasnorm_wordpool_less_exclusions.txt	LTP202	ltpFR	1	14	1	NOSE	957	n/a	n/a	0	0.57763671875	0.412841796875	1	upper	amplitud.ttf
2629.718	n/a	WORD	1314859	wordpools/wasnorm_wordpool_less_exclusions.txt	LTP202	ltpFR	1	14	0	CANOE	233	n/a	n/a	1	0.422607421875	0.5869140625	0	lower	zerothre.ttf
2633.63	n/a	WORD	1316815	wordpools/wasnorm_wordpool_less_exclusions.txt	LTP202	ltpFR	1	14	0	INSECT	740	n/a	n/a	1	0.422607421875	0.5869140625	0	lower	zerothre.ttf
2637.656	n/a	WORD	1318828	wordpools/wasnorm_wordpool_less_exclusions.txt	LTP202	ltpFR	1	14	1	PILOT	1070	n/a	n/a	1	0.57763671875	0.412841796875	1	upper	amplitud.ttf
2641.618	n/a	WORD	1320809	wordpools/wasnorm_wordpool_less_exclusions.txt	LTP202	ltpFR	1	14	1	JET	756	n/a	n/a	1	0.57763671875	0.412841796875	1	upper	amplitud.ttf
2645.512	n/a	WORD	1322756	wordpools/wasnorm_wordpool_less_exclusions.txt	LTP202	ltpFR	1	14	0	MULE	931	n/a	n/a	1	0.422607421875	0.5869140625	0	lower	zerothre.ttf
2649.406	n/a	WORD	1324703	wordpools/wasnorm_wordpool_less_exclusions.txt	LTP202	ltpFR	1	14	0	STABLE	1363	n/a	n/a	1	0.422607421875	0.5869140625	0	lower	zerothre.ttf
2653.334	n/a	WORD	1326667	wordpools/wasnorm_wordpool_less_exclusions.txt	LTP202	ltpFR	1	14	0	WASP	1593	n/a	n/a	0	0.422607421875	0.5869140625	0	lower	zerothre.ttf
2657.494	n/a	WORD	1328747	wordpools/wasnorm_wordpool_less_exclusions.txt	LTP202	ltpFR	1	14	0	CHEMIST	292	n/a	n/a	1	0.422607421875	0.5869140625	0	lower	zerothre.ttf
2661.406	n/a	WORD	1330703	wordpools/wasnorm_wordpool_less_exclusions.txt	LTP202	ltpFR	1	14	0	NEPTUNE	943	n/a	n/a	1	0.422607421875	0.5869140625	0	lower	zerothre.ttf
2665.366	n/a	WORD	1332683	wordpools/wasnorm_wordpool_less_exclusions.txt	LTP202	ltpFR	1	14	0	ORCHESTRA	981	n/a	n/a	1	0.422607421875	0.5869140625	0	lower	zerothre.ttf
2669.278	n/a	WORD	1334639	wordpools/wasnorm_wordpool_less_exclusions.txt	LTP202	ltpFR	1	14	1	INCENSE	735	n/a	n/a	0	0.57763671875	0.412841796875	1	upper	amplitud.ttf
2673.122	n/a	WORD	1336561	wordpools/wasnorm_wordpool_less_exclusions.txt	LTP202	ltpFR	1	14	1	BATH	98	n/a	n/a	0	0.57763671875	0.412841796875	1	upper	amplitud.ttf
2677.232	n/a	WORD	1338616	wordpools/wasnorm_wordpool_less_exclusions.txt	LTP202	ltpFR	1	14	1	MARINE	869	n/a	n/a	1	0.57763671875	0.412841796875	1	upper	amplitud.ttf
2683.04	n/a	REC_START	1341520	n/a	LTP202	ltpFR	1	14	n/a	n/a	n/a	n/a	n/a	n/a	n/a	n/a	n/a	n/a	n/a
2683.848	n/a	REC_WORD	1341924	wordpools/wasnorm_wordpool_less_exclusions.txt	LTP202	ltpFR	1	14	1	BATH	98	n/a	n/a	0	n/a	n/a	n/a	n/a	n/a
2684.358	n/a	REC_WORD	1342179	wordpools/wasnorm_wordpool_less_exclusions.txt	LTP202	ltpFR	1	14	1	MARINE	869	n/a	n/a	1	n/a	n/a	n/a	n/a	n/a
2685.25	n/a	REC_WORD	1342625	wordpools/wasnorm_wordpool_less_exclusions.txt	LTP202	ltpFR	1	14	1	INCENSE	735	n/a	n/a	0	n/a	n/a	n/a	n/a	n/a
2686.198	n/a	REC_WORD	1343099	wordpools/wasnorm_wordpool_less_exclusions.txt	LTP202	ltpFR	1	14	0	INSECT	740	n/a	n/a	1	n/a	n/a	n/a	n/a	n/a
2687.536	n/a	REC_WORD	1343768	wordpools/wasnorm_wordpool_less_exclusions.txt	LTP202	ltpFR	1	14	0	MULE	931	n/a	n/a	1	n/a	n/a	n/a	n/a	n/a
2689.506	n/a	REC_WORD	1344753	wordpools/wasnorm_wordpool_less_exclusions.txt	LTP202	ltpFR	1	14	0	CHEMIST	292	n/a	n/a	1	n/a	n/a	n/a	n/a	n/a
2697.088	n/a	REC_WORD	1348544	wordpools/wasnorm_wordpool_less_exclusions.txt	LTP202	ltpFR	1	14	1	PILOT	1070	n/a	n/a	1	n/a	n/a	n/a	n/a	n/a
2700.636	n/a	REC_WORD	1350318	wordpools/wasnorm_wordpool_less_exclusions.txt	LTP202	ltpFR	1	14	1	JET	756	n/a	n/a	1	n/a	n/a	n/a	n/a	n/a
2787.402	n/a	WORD	1393701	wordpools/wasnorm_wordpool_less_exclusions.txt	LTP202	ltpFR	1	15	1	GLOVE	642	n/a	n/a	0	0.57763671875	0.412841796875	1	upper	amplitud.ttf
2791.346	n/a	WORD	1395673	wordpools/wasnorm_wordpool_less_exclusions.txt	LTP202	ltpFR	1	15	1	VIOLIN	1571	n/a	n/a	0	0.57763671875	0.412841796875	1	upper	amplitud.ttf
2795.192	n/a	WORD	1397596	wordpools/wasnorm_wordpool_less_exclusions.txt	LTP202	ltpFR	1	15	0	ROPE	1211	n/a	n/a	0	0.422607421875	0.5869140625	0	lower	zerothre.ttf
2799.052	n/a	WORD	1399526	wordpools/wasnorm_wordpool_less_exclusions.txt	LTP202	ltpFR	1	15	0	BRIEFCASE	175	n/a	n/a	1	0.422607421875	0.5869140625	0	lower	zerothre.ttf
2803.23	n/a	WORD	1401615	wordpools/wasnorm_wordpool_less_exclusions.txt	LTP202	ltpFR	1	15	0	ENGINEER	536	n/a	n/a	1	0.422607421875	0.5869140625	0	lower	zerothre.ttf
2807.44	n/a	WORD	1403720	wordpools/wasnorm_wordpool_less_exclusions.txt	LTP202	ltpFR	1	15	0	BRUSH	182	n/a	n/a	0	0.422607421875	0.5869140625	0	lower	zerothre.ttf
2811.45	n/a	WORD	1405725	wordpools/wasnorm_wordpool_less_exclusions.txt	LTP202	ltpFR	1	15	1	STAIRS	1367	n/a	n/a	0	0.57763671875	0.412841796875	1	upper	amplitud.ttf
2815.294	n/a	WORD	1407647	wordpools/wasnorm_wordpool_less_exclusions.txt	LTP202	ltpFR	1	15	1	DIRECTOR	471	n/a	n/a	1	0.57763671875	0.412841796875	1	upper	amplitud.ttf
2819.372	n/a	WORD	1409686	wordpools/wasnorm_wordpool_less_exclusions.txt	LTP202	ltpFR	1	15	1	CHOCOLATE	306	n/a	n/a	0	0.57763671875	0.412841796875	1	upper	amplitud.ttf
2823.534	n/a	WORD	1411767	wordpools/wasnorm_wordpool_less_exclusions.txt	LTP202	ltpFR	1	15	1	CANDY	230	n/a	n/a	0	0.57763671875	0.412841796875	1	upper	amplitud.ttf
2827.528	n/a	WORD	1413764	wordpools/wasnorm_wordpool_less_exclusions.txt	LTP202	ltpFR	1	15	1	JUGGLER	763	n/a	n/a	1	0.57763671875	0.412841796875	1	upper	amplitud.ttf
2831.704	n/a	WORD	1415852	wordpools/wasnorm_wordpool_less_exclusions.txt	LTP202	ltpFR	1	15	1	SUBWAY	1400	n/a	n/a	0	0.57763671875	0.412841796875	1	upper	amplitud.ttf
2835.798	n/a	WORD	1417899	wordpools/wasnorm_wordpool_less_exclusions.txt	LTP202	ltpFR	1	15	0	ROBOT	1200	n/a	n/a	1	0.422607421875	0.5869140625	0	lower	zerothre.ttf
2839.658	n/a	WORD	1419829	wordpools/wasnorm_wordpool_less_exclusions.txt	LTP202	ltpFR	1	15	0	GYMNAST	675	n/a	n/a	1	0.422607421875	0.5869140625	0	lower	zerothre.ttf
2843.636	n/a	WORD	1421818	wordpools/wasnorm_wordpool_less_exclusions.txt	LTP202	ltpFR	1	15	0	NEST	945	n/a	n/a	1	0.422607421875	0.5869140625	0	lower	zerothre.ttf
2847.83	n/a	WORD	1423915	wordpools/wasnorm_wordpool_less_exclusions.txt	LTP202	ltpFR	1	15	0	QUAIL	1147	n/a	n/a	1	0.422607421875	0.5869140625	0	lower	zerothre.ttf
2853.438	n/a	REC_START	1426719	n/a	LTP202	ltpFR	1	15	n/a	n/a	n/a	n/a	n/a	n/a	n/a	n/a	n/a	n/a	n/a
2854.042	n/a	REC_WORD	1427021	wordpools/wasnorm_wordpool_less_exclusions.txt	LTP202	ltpFR	1	15	1	DIRECTOR	471	n/a	n/a	1	n/a	n/a	n/a	n/a	n/a
2854.79	n/a	REC_WORD	1427395	wordpools/wasnorm_wordpool_less_exclusions.txt	LTP202	ltpFR	1	15	1	CHOCOLATE	306	n/a	n/a	0	n/a	n/a	n/a	n/a	n/a
2855.594	n/a	REC_WORD	1427797	wordpools/wasnorm_wordpool_less_exclusions.txt	LTP202	ltpFR	1	15	1	CANDY	230	n/a	n/a	0	n/a	n/a	n/a	n/a	n/a
2856.68	n/a	REC_WORD	1428340	wordpools/wasnorm_wordpool_less_exclusions.txt	LTP202	ltpFR	1	15	0	GYMNAST	675	n/a	n/a	1	n/a	n/a	n/a	n/a	n/a
2858.682	n/a	REC_WORD	1429341	wordpools/wasnorm_wordpool_less_exclusions.txt	LTP202	ltpFR	1	15	0	QUAIL	1147	n/a	n/a	1	n/a	n/a	n/a	n/a	n/a
2861.41	n/a	REC_WORD	1430705	wordpools/wasnorm_wordpool_less_exclusions.txt	LTP202	ltpFR	1	15	1	GLOVE	642	n/a	n/a	0	n/a	n/a	n/a	n/a	n/a
2873.378	n/a	REC_WORD	1436689	wordpools/wasnorm_wordpool_less_exclusions.txt	LTP202	ltpFR	1	15	0	ROBOT	1200	n/a	n/a	1	n/a	n/a	n/a	n/a	n/a
2888.604	n/a	REC_WORD	1444302	wordpools/wasnorm_wordpool_less_exclusions.txt	LTP202	ltpFR	1	15	0	NEST	945	n/a	n/a	1	n/a	n/a	n/a	n/a	n/a
2941.208	n/a	WORD	1470604	wordpools/wasnorm_wordpool_less_exclusions.txt	LTP202	ltpFR	1	16	-1	BEETLE	116	n/a	n/a	-1	1.0	1.0	1	upper	Verdana.ttf
2945.302	n/a	WORD	1472651	wordpools/wasnorm_wordpool_less_exclusions.txt	LTP202	ltpFR	1	16	-1	GRASSHOPPER	656	n/a	n/a	-1	1.0	1.0	1	upper	Verdana.ttf
2949.43	n/a	WORD	1474715	wordpools/wasnorm_wordpool_less_exclusions.txt	LTP202	ltpFR	1	16	-1	HAWK	692	n/a	n/a	-1	1.0	1.0	1	upper	Verdana.ttf
2953.49	n/a	WORD	1476745	wordpools/wasnorm_wordpool_less_exclusions.txt	LTP202	ltpFR	1	16	-1	HOUND	724	n/a	n/a	-1	1.0	1.0	1	upper	Verdana.ttf
2957.368	n/a	WORD	1478684	wordpools/wasnorm_wordpool_less_exclusions.txt	LTP202	ltpFR	1	16	-1	JEWEL	757	n/a	n/a	-1	1.0	1.0	1	upper	Verdana.ttf
2961.262	n/a	WORD	1480631	wordpools/wasnorm_wordpool_less_exclusions.txt	LTP202	ltpFR	1	16	-1	FURNITURE	616	n/a	n/a	-1	1.0	1.0	1	upper	Verdana.ttf
2965.108	n/a	WORD	1482554	wordpools/wasnorm_wordpool_less_exclusions.txt	LTP202	ltpFR	1	16	-1	LOUNGE	845	n/a	n/a	-1	1.0	1.0	1	upper	Verdana.ttf
2968.934	n/a	WORD	1484467	wordpools/wasnorm_wordpool_less_exclusions.txt	LTP202	ltpFR	1	16	-1	VEST	1559	n/a	n/a	-1	1.0	1.0	1	upper	Verdana.ttf
2973.094	n/a	WORD	1486547	wordpools/wasnorm_wordpool_less_exclusions.txt	LTP202	ltpFR	1	16	-1	FIREMAN	569	n/a	n/a	-1	1.0	1.0	1	upper	Verdana.ttf
2977.156	n/a	WORD	1488578	wordpools/wasnorm_wordpool_less_exclusions.txt	LTP202	ltpFR	1	16	-1	BUTTERFLY	206	n/a	n/a	-1	1.0	1.0	1	upper	Verdana.ttf
2981.166	n/a	WORD	1490583	wordpools/wasnorm_wordpool_less_exclusions.txt	LTP202	ltpFR	1	16	-1	LANDSCAPE	799	n/a	n/a	-1	1.0	1.0	1	upper	Verdana.ttf
2985.026	n/a	WORD	1492513	wordpools/wasnorm_wordpool_less_exclusions.txt	LTP202	ltpFR	1	16	-1	MAMMAL	861	n/a	n/a	-1	1.0	1.0	1	upper	Verdana.ttf
2988.87	n/a	WORD	1494435	wordpools/wasnorm_wordpool_less_exclusions.txt	LTP202	ltpFR	1	16	-1	MINK	897	n/a	n/a	-1	1.0	1.0	1	upper	Verdana.ttf
2993.048	n/a	WORD	1496524	wordpools/wasnorm_wordpool_less_exclusions.txt	LTP202	ltpFR	1	16	-1	BOUQUET	157	n/a	n/a	-1	1.0	1.0	1	upper	Verdana.ttf
2997.074	n/a	WORD	1498537	wordpools/wasnorm_wordpool_less_exclusions.txt	LTP202	ltpFR	1	16	-1	TORCH	1484	n/a	n/a	-1	1.0	1.0	1	upper	Verdana.ttf
3000.952	n/a	WORD	1500476	wordpools/wasnorm_wordpool_less_exclusions.txt	LTP202	ltpFR	1	16	-1	RIVER	1194	n/a	n/a	-1	1.0	1.0	1	upper	Verdana.ttf
3006.844	n/a	REC_START	1503422	n/a	LTP202	ltpFR	1	16	n/a	n/a	n/a	n/a	n/a	n/a	n/a	n/a	n/a	n/a	n/a
3007.462	n/a	REC_WORD	1503731	wordpools/wasnorm_wordpool_less_exclusions.txt	LTP202	ltpFR	1	16	-1	TORCH	1484	n/a	n/a	-1	n/a	n/a	n/a	n/a	n/a
3008.146	n/a	REC_WORD	1504073	wordpools/wasnorm_wordpool_less_exclusions.txt	LTP202	ltpFR	1	16	-1	RIVER	1194	n/a	n/a	-1	n/a	n/a	n/a	n/a	n/a
3009.164	n/a	REC_WORD	1504582	wordpools/wasnorm_wordpool_less_exclusions.txt	LTP202	ltpFR	1	16	-1	BUTTERFLY	206	n/a	n/a	-1	n/a	n/a	n/a	n/a	n/a
3010.246	n/a	REC_WORD	1505123	wordpools/wasnorm_wordpool_less_exclusions.txt	LTP202	ltpFR	1	16	-1	LANDSCAPE	799	n/a	n/a	-1	n/a	n/a	n/a	n/a	n/a
3011.794	n/a	REC_WORD	1505897	wordpools/wasnorm_wordpool_less_exclusions.txt	LTP202	ltpFR	1	16	-1	MAMMAL	861	n/a	n/a	-1	n/a	n/a	n/a	n/a	n/a
3014.058	n/a	REC_WORD	1507029	wordpools/wasnorm_wordpool_less_exclusions.txt	LTP202	ltpFR	1	16	-1	GRASSHOPPER	656	n/a	n/a	-1	n/a	n/a	n/a	n/a	n/a
3016.348	n/a	REC_WORD	1508174	wordpools/wasnorm_wordpool_less_exclusions.txt	LTP202	ltpFR	1	16	-1	BEETLE	116	n/a	n/a	-1	n/a	n/a	n/a	n/a	n/a
3017.924	n/a	REC_WORD	1508962	wordpools/wasnorm_wordpool_less_exclusions.txt	LTP202	ltpFR	1	16	-1	HOUND	724	n/a	n/a	-1	n/a	n/a	n/a	n/a	n/a
3022.788	n/a	REC_WORD	1511394	wordpools/wasnorm_wordpool_less_exclusions.txt	LTP202	ltpFR	1	16	-1	BOUQUET	157	n/a	n/a	-1	n/a	n/a	n/a	n/a	n/a
3043.87	n/a	REC_WORD	1521935	wordpools/wasnorm_wordpool_less_exclusions.txt	LTP202	ltpFR	1	16	-1	FURNITURE	616	n/a	n/a	-1	n/a	n/a	n/a	n/a	n/a
3045.288	n/a	REC_WORD	1522644	wordpools/wasnorm_wordpool_less_exclusions.txt	LTP202	ltpFR	1	16	-1	LOUNGE	845	n/a	n/a	-1	n/a	n/a	n/a	n/a	n/a
3046.386	n/a	REC_WORD	1523193	wordpools/wasnorm_wordpool_less_exclusions.txt	LTP202	ltpFR	1	16	-1	JEWEL	757	n/a	n/a	-1	n/a	n/a	n/a	n/a	n/a
3137.036	n/a	REC_START	1568518	n/a	LTP202	ltpFR	1	1	n/a	n/a	n/a	n/a	n/a	n/a	n/a	n/a	n/a	n/a	n/a
3137.068	n/a	RECOG_LURE	1568534	n/a	LTP202	ltpFR	1	1	n/a	CHART	282	0	3	n/a	n/a	n/a	n/a	n/a	n/a
3138.782	n/a	RECOG_RESP	1569391	n/a	LTP202	ltpFR	1	1	n/a	CHART	282	0	n/a	n/a	n/a	n/a	n/a	n/a	n/a
3140.838	n/a	RECOG_CONF	1570419	n/a	LTP202	ltpFR	1	1	n/a	CHART	282	n/a	3	n/a	n/a	n/a	n/a	n/a	n/a
3142.528	n/a	RECOG_TARGET	1571264	n/a	LTP202	ltpFR	1	1	0	BEER	114	0	2	0	n/a	n/a	n/a	n/a	n/a
3143.822	n/a	RECOG_RESP	1571911	n/a	LTP202	ltpFR	1	1	0	BEER	114	0	n/a	0	n/a	n/a	n/a	n/a	n/a
3145.452	n/a	RECOG_CONF	1572726	n/a	LTP202	ltpFR	1	1	0	BEER	114	n/a	2	0	n/a	n/a	n/a	n/a	n/a
3147.12	n/a	RECOG_TARGET	1573560	n/a	LTP202	ltpFR	1	1	1	STAIRS	1367	0	2	0	n/a	n/a	n/a	n/a	n/a
3148.286	n/a	RECOG_RESP	1574143	n/a	LTP202	ltpFR	1	1	1	STAIRS	1367	0	n/a	0	n/a	n/a	n/a	n/a	n/a
3149.724	n/a	RECOG_CONF	1574862	n/a	LTP202	ltpFR	1	1	1	STAIRS	1367	n/a	2	0	n/a	n/a	n/a	n/a	n/a
3151.48	n/a	RECOG_LURE	1575740	n/a	LTP202	ltpFR	1	1	n/a	GIFT	635	0	3	n/a	n/a	n/a	n/a	n/a	n/a
3152.424	n/a	RECOG_RESP	1576212	n/a	LTP202	ltpFR	1	1	n/a	GIFT	635	0	n/a	n/a	n/a	n/a	n/a	n/a	n/a
3154.144	n/a	RECOG_CONF	1577072	n/a	LTP202	ltpFR	1	1	n/a	GIFT	635	n/a	3	n/a	n/a	n/a	n/a	n/a	n/a
3155.79	n/a	RECOG_TARGET	1577895	n/a	LTP202	ltpFR	1	1	1	HARP	689	1	3	0	n/a	n/a	n/a	n/a	n/a
3156.73	n/a	RECOG_RESP	1578365	n/a	LTP202	ltpFR	1	1	1	HARP	689	1	n/a	0	n/a	n/a	n/a	n/a	n/a
3157.93	n/a	RECOG_CONF	1578965	n/a	LTP202	ltpFR	1	1	1	HARP	689	n/a	3	0	n/a	n/a	n/a	n/a	n/a
3159.518	n/a	RECOG_TARGET	1579759	n/a	LTP202	ltpFR	1	1	0	DRAWER	493	1	5	1	n/a	n/a	n/a	n/a	n/a
3160.29	n/a	RECOG_RESP	1580145	n/a	LTP202	ltpFR	1	1	0	DRAWER	493	1	n/a	1	n/a	n/a	n/a	n/a	n/a
3161.422	n/a	RECOG_CONF	1580711	n/a	LTP202	ltpFR	1	1	0	DRAWER	493	n/a	5	1	n/a	n/a	n/a	n/a	n/a
3163.114	n/a	RECOG_TARGET	1581557	n/a	LTP202	ltpFR	1	1	0	INSECT	740	1	5	1	n/a	n/a	n/a	n/a	n/a
3163.742	n/a	RECOG_RESP	1581871	n/a	LTP202	ltpFR	1	1	0	INSECT	740	1	n/a	1	n/a	n/a	n/a	n/a	n/a
3164.972	n/a	RECOG_CONF	1582486	n/a	LTP202	ltpFR	1	1	0	INSECT	740	n/a	5	1	n/a	n/a	n/a	n/a	n/a
3166.608	n/a	RECOG_TARGET	1583304	n/a	LTP202	ltpFR	1	1	-1	VEST	1559	1	5	-1	n/a	n/a	n/a	n/a	n/a
3167.28	n/a	RECOG_RESP	1583640	n/a	LTP202	ltpFR	1	1	-1	VEST	1559	1	n/a	-1	n/a	n/a	n/a	n/a	n/a
3168.59	n/a	RECOG_CONF	1584295	n/a	LTP202	ltpFR	1	1	-1	VEST	1559	n/a	5	-1	n/a	n/a	n/a	n/a	n/a
3170.486	n/a	RECOG_TARGET	1585243	n/a	LTP202	ltpFR	1	1	0	TERMITE	1451	0	2	1	n/a	n/a	n/a	n/a	n/a
3172.182	n/a	RECOG_RESP	1586091	n/a	LTP202	ltpFR	1	1	0	TERMITE	1451	0	n/a	1	n/a	n/a	n/a	n/a	n/a
3174.236	n/a	RECOG_CONF	1587118	n/a	LTP202	ltpFR	1	1	0	TERMITE	1451	n/a	2	1	n/a	n/a	n/a	n/a	n/a
3175.844	n/a	RECOG_TARGET	1587922	n/a	LTP202	ltpFR	1	1	0	ARROW	40	1	3	0	n/a	n/a	n/a	n/a	n/a
3176.804	n/a	RECOG_RESP	1588402	n/a	LTP202	ltpFR	1	1	0	ARROW	40	1	n/a	0	n/a	n/a	n/a	n/a	n/a
3178.142	n/a	RECOG_CONF	1589071	n/a	LTP202	ltpFR	1	1	0	ARROW	40	n/a	3	0	n/a	n/a	n/a	n/a	n/a
3179.788	n/a	RECOG_LURE	1589894	n/a	LTP202	ltpFR	1	1	n/a	VASE	1549	0	4	n/a	n/a	n/a	n/a	n/a	n/a
3180.676	n/a	RECOG_RESP	1590338	n/a	LTP202	ltpFR	1	1	n/a	VASE	1549	0	n/a	n/a	n/a	n/a	n/a	n/a	n/a
3181.94	n/a	RECOG_CONF	1590970	n/a	LTP202	ltpFR	1	1	n/a	VASE	1549	n/a	4	n/a	n/a	n/a	n/a	n/a	n/a
3183.716	n/a	RECOG_TARGET	1591858	n/a	LTP202	ltpFR	1	1	-1	ABDOMEN	1	1	3	-1	n/a	n/a	n/a	n/a	n/a
3184.614	n/a	RECOG_RESP	1592307	n/a	LTP202	ltpFR	1	1	-1	ABDOMEN	1	1	n/a	-1	n/a	n/a	n/a	n/a	n/a
3186.15	n/a	RECOG_CONF	1593075	n/a	LTP202	ltpFR	1	1	-1	ABDOMEN	1	n/a	3	-1	n/a	n/a	n/a	n/a	n/a
3187.96	n/a	RECOG_TARGET	1593980	n/a	LTP202	ltpFR	1	1	1	LAWYER	806	1	5	1	n/a	n/a	n/a	n/a	n/a
3188.798	n/a	RECOG_RESP	1594399	n/a	LTP202	ltpFR	1	1	1	LAWYER	806	1	n/a	1	n/a	n/a	n/a	n/a	n/a
3190.3	n/a	RECOG_CONF	1595150	n/a	LTP202	ltpFR	1	1	1	LAWYER	806	n/a	5	1	n/a	n/a	n/a	n/a	n/a
3192.104	n/a	RECOG_TARGET	1596052	n/a	LTP202	ltpFR	1	1	-1	BEAST	108	1	5	-1	n/a	n/a	n/a	n/a	n/a
3192.784	n/a	RECOG_RESP	1596392	n/a	LTP202	ltpFR	1	1	-1	BEAST	108	1	n/a	-1	n/a	n/a	n/a	n/a	n/a
3194.028	n/a	RECOG_CONF	1597014	n/a	LTP202	ltpFR	1	1	-1	BEAST	108	n/a	5	-1	n/a	n/a	n/a	n/a	n/a
3195.614	n/a	RECOG_TARGET	1597807	n/a	LTP202	ltpFR	1	1	0	LENS	811	1	5	0	n/a	n/a	n/a	n/a	n/a
3196.346	n/a	RECOG_RESP	1598173	n/a	LTP202	ltpFR	1	1	0	LENS	811	1	n/a	0	n/a	n/a	n/a	n/a	n/a
3197.484	n/a	RECOG_CONF	1598742	n/a	LTP202	ltpFR	1	1	0	LENS	811	n/a	5	0	n/a	n/a	n/a	n/a	n/a
3199.144	n/a	RECOG_TARGET	1599572	n/a	LTP202	ltpFR	1	1	-1	GENERAL	630	1	2	-1	n/a	n/a	n/a	n/a	n/a
3200.472	n/a	RECOG_RESP	1600236	n/a	LTP202	ltpFR	1	1	-1	GENERAL	630	1	n/a	-1	n/a	n/a	n/a	n/a	n/a
3201.836	n/a	RECOG_CONF	1600918	n/a	LTP202	ltpFR	1	1	-1	GENERAL	630	n/a	2	-1	n/a	n/a	n/a	n/a	n/a
3203.636	n/a	RECOG_TARGET	1601818	n/a	LTP202	ltpFR	1	1	-1	NET	946	1	4	-1	n/a	n/a	n/a	n/a	n/a
3204.524	n/a	RECOG_RESP	1602262	n/a	LTP202	ltpFR	1	1	-1	NET	946	1	n/a	-1	n/a	n/a	n/a	n/a	n/a
3205.922	n/a	RECOG_CONF	1602961	n/a	LTP202	ltpFR	1	1	-1	NET	946	n/a	4	-1	n/a	n/a	n/a	n/a	n/a
3207.464	n/a	RECOG_TARGET	1603732	n/a	LTP202	ltpFR	1	1	-1	BONE	148	1	3	-1	n/a	n/a	n/a	n/a	n/a
3208.24	n/a	RECOG_RESP	1604120	n/a	LTP202	ltpFR	1	1	-1	BONE	148	1	n/a	-1	n/a	n/a	n/a	n/a	n/a
3209.468	n/a	RECOG_CONF	1604734	n/a	LTP202	ltpFR	1	1	-1	BONE	148	n/a	3	-1	n/a	n/a	n/a	n/a	n/a
3211.092	n/a	RECOG_TARGET	1605546	n/a	LTP202	ltpFR	1	1	0	CRICKET	408	1	3	0	n/a	n/a	n/a	n/a	n/a
3211.748	n/a	RECOG_RESP	1605874	n/a	LTP202	ltpFR	1	1	0	CRICKET	408	1	n/a	0	n/a	n/a	n/a	n/a	n/a
3213.18	n/a	RECOG_CONF	1606590	n/a	LTP202	ltpFR	1	1	0	CRICKET	408	n/a	3	0	n/a	n/a	n/a	n/a	n/a
3214.82	n/a	RECOG_TARGET	1607410	n/a	LTP202	ltpFR	1	1	-1	COUSIN	392	0	4	-1	n/a	n/a	n/a	n/a	n/a
3215.568	n/a	RECOG_RESP	1607784	n/a	LTP202	ltpFR	1	1	-1	COUSIN	392	0	n/a	-1	n/a	n/a	n/a	n/a	n/a
3216.988	n/a	RECOG_CONF	1608494	n/a	LTP202	ltpFR	1	1	-1	COUSIN	392	n/a	4	-1	n/a	n/a	n/a	n/a	n/a
3227.204	n/a	REC_START	1613602	n/a	LTP202	ltpFR	1	2	n/a	n/a	n/a	n/a	n/a	n/a	n/a	n/a	n/a	n/a	n/a
3227.236	n/a	RECOG_TARGET	1613618	n/a	LTP202	ltpFR	1	2	1	IGLOO	734	1	5	0	n/a	n/a	n/a	n/a	n/a
3227.968	n/a	RECOG_RESP	1613984	n/a	LTP202	ltpFR	1	2	1	IGLOO	734	1	n/a	0	n/a	n/a	n/a	n/a	n/a
3229.124	n/a	RECOG_CONF	1614562	n/a	LTP202	ltpFR	1	2	1	IGLOO	734	n/a	5	0	n/a	n/a	n/a	n/a	n/a
3230.746	n/a	RECOG_TARGET	1615373	n/a	LTP202	ltpFR	1	2	0	PEN	1041	1	5	0	n/a	n/a	n/a	n/a	n/a
3231.54	n/a	RECOG_RESP	1615770	n/a	LTP202	ltpFR	1	2	0	PEN	1041	1	n/a	0	n/a	n/a	n/a	n/a	n/a
3232.746	n/a	RECOG_CONF	1616373	n/a	LTP202	ltpFR	1	2	0	PEN	1041	n/a	5	0	n/a	n/a	n/a	n/a	n/a
3234.392	n/a	RECOG_LURE	1617196	n/a	LTP202	ltpFR	1	2	n/a	ANTENNA	28	0	4	n/a	n/a	n/a	n/a	n/a	n/a
3235.366	n/a	RECOG_RESP	1617683	n/a	LTP202	ltpFR	1	2	n/a	ANTENNA	28	0	n/a	n/a	n/a	n/a	n/a	n/a	n/a
3236.622	n/a	RECOG_CONF	1618311	n/a	LTP202	ltpFR	1	2	n/a	ANTENNA	28	n/a	4	n/a	n/a	n/a	n/a	n/a	n/a
3238.47	n/a	RECOG_TARGET	1619235	n/a	LTP202	ltpFR	1	2	-1	GRASSHOPPER	656	1	5	-1	n/a	n/a	n/a	n/a	n/a
3239.17	n/a	RECOG_RESP	1619585	n/a	LTP202	ltpFR	1	2	-1	GRASSHOPPER	656	1	n/a	-1	n/a	n/a	n/a	n/a	n/a
3240.34	n/a	RECOG_CONF	1620170	n/a	LTP202	ltpFR	1	2	-1	GRASSHOPPER	656	n/a	5	-1	n/a	n/a	n/a	n/a	n/a
3242.114	n/a	RECOG_TARGET	1621057	n/a	LTP202	ltpFR	1	2	0	VOLLEYBALL	1576	1	5	1	n/a	n/a	n/a	n/a	n/a
3242.802	n/a	RECOG_RESP	1621401	n/a	LTP202	ltpFR	1	2	0	VOLLEYBALL	1576	1	n/a	1	n/a	n/a	n/a	n/a	n/a
3243.892	n/a	RECOG_CONF	1621946	n/a	LTP202	ltpFR	1	2	0	VOLLEYBALL	1576	n/a	5	1	n/a	n/a	n/a	n/a	n/a
3245.708	n/a	RECOG_TARGET	1622854	n/a	LTP202	ltpFR	1	2	1	FLUTE	585	0	3	0	n/a	n/a	n/a	n/a	n/a
3246.584	n/a	RECOG_RESP	1623292	n/a	LTP202	ltpFR	1	2	1	FLUTE	585	0	n/a	0	n/a	n/a	n/a	n/a	n/a
3248.028	n/a	RECOG_CONF	1624014	n/a	LTP202	ltpFR	1	2	1	FLUTE	585	n/a	3	0	n/a	n/a	n/a	n/a	n/a
3249.834	n/a	RECOG_LURE	1624917	n/a	LTP202	ltpFR	1	2	n/a	MOUTH	926	0	4	n/a	n/a	n/a	n/a	n/a	n/a
3250.976	n/a	RECOG_RESP	1625488	n/a	LTP202	ltpFR	1	2	n/a	MOUTH	926	0	n/a	n/a	n/a	n/a	n/a	n/a	n/a
3252.482	n/a	RECOG_CONF	1626241	n/a	LTP202	ltpFR	1	2	n/a	MOUTH	926	n/a	4	n/a	n/a	n/a	n/a	n/a	n/a
3254.66	n/a	RECOG_TARGET	1627330	n/a	LTP202	ltpFR	1	2	-1	POSSUM	1112	1	5	-1	n/a	n/a	n/a	n/a	n/a
3255.374	n/a	RECOG_RESP	1627687	n/a	LTP202	ltpFR	1	2	-1	POSSUM	1112	1	n/a	-1	n/a	n/a	n/a	n/a	n/a
3256.654	n/a	RECOG_CONF	1628327	n/a	LTP202	ltpFR	1	2	-1	POSSUM	1112	n/a	5	-1	n/a	n/a	n/a	n/a	n/a
3258.406	n/a	RECOG_TARGET	1629203	n/a	LTP202	ltpFR	1	2	0	PATROL	1027	0	2	1	n/a	n/a	n/a	n/a	n/a
3259.398	n/a	RECOG_RESP	1629699	n/a	LTP202	ltpFR	1	2	0	PATROL	1027	0	n/a	1	n/a	n/a	n/a	n/a	n/a
3260.974	n/a	RECOG_CONF	1630487	n/a	LTP202	ltpFR	1	2	0	PATROL	1027	n/a	2	1	n/a	n/a	n/a	n/a	n/a
3262.632	n/a	RECOG_TARGET	1631316	n/a	LTP202	ltpFR	1	2	0	SHEET	1279	1	5	0	n/a	n/a	n/a	n/a	n/a
3263.788	n/a	RECOG_RESP	1631894	n/a	LTP202	ltpFR	1	2	0	SHEET	1279	1	n/a	0	n/a	n/a	n/a	n/a	n/a
3265.016	n/a	RECOG_CONF	1632508	n/a	LTP202	ltpFR	1	2	0	SHEET	1279	n/a	5	0	n/a	n/a	n/a	n/a	n/a
3266.66	n/a	RECOG_TARGET	1633330	n/a	LTP202	ltpFR	1	2	1	JET	756	1	5	1	n/a	n/a	n/a	n/a	n/a
3267.4	n/a	RECOG_RESP	1633700	n/a	LTP202	ltpFR	1	2	1	JET	756	1	n/a	1	n/a	n/a	n/a	n/a	n/a
3268.606	n/a	RECOG_CONF	1634303	n/a	LTP202	ltpFR	1	2	1	JET	756	n/a	5	1	n/a	n/a	n/a	n/a	n/a
3270.372	n/a	RECOG_TARGET	1635186	n/a	LTP202	ltpFR	1	2	1	STEWARDESS	1381	1	5	1	n/a	n/a	n/a	n/a	n/a
3271.2	n/a	RECOG_RESP	1635600	n/a	LTP202	ltpFR	1	2	1	STEWARDESS	1381	1	n/a	1	n/a	n/a	n/a	n/a	n/a
3272.862	n/a	RECOG_CONF	1636431	n/a	LTP202	ltpFR	1	2	1	STEWARDESS	1381	n/a	5	1	n/a	n/a	n/a	n/a	n/a
3274.564	n/a	RECOG_TARGET	1637282	n/a	LTP202	ltpFR	1	2	1	TELEPHONE	1445	0	3	0	n/a	n/a	n/a	n/a	n/a
3275.44	n/a	RECOG_RESP	1637720	n/a	LTP202	ltpFR	1	2	1	TELEPHONE	1445	0	n/a	0	n/a	n/a	n/a	n/a	n/a
3276.708	n/a	RECOG_CONF	1638354	n/a	LTP202	ltpFR	1	2	1	TELEPHONE	1445	n/a	3	0	n/a	n/a	n/a	n/a	n/a
3278.476	n/a	RECOG_TARGET	1639238	n/a	LTP202	ltpFR	1	2	1	BINDER	127	1	5	0	n/a	n/a	n/a	n/a	n/a
3279.25	n/a	RECOG_RESP	1639625	n/a	LTP202	ltpFR	1	2	1	BINDER	127	1	n/a	0	n/a	n/a	n/a	n/a	n/a
3280.42	n/a	RECOG_CONF	1640210	n/a	LTP202	ltpFR	1	2	1	BINDER	127	n/a	5	0	n/a	n/a	n/a	n/a	n/a
3282.154	n/a	RECOG_LURE	1641077	n/a	LTP202	ltpFR	1	2	n/a	TUTU	1524	0	5	n/a	n/a	n/a	n/a	n/a	n/a
3282.852	n/a	RECOG_RESP	1641426	n/a	LTP202	ltpFR	1	2	n/a	TUTU	1524	0	n/a	n/a	n/a	n/a	n/a	n/a	n/a
3283.904	n/a	RECOG_CONF	1641952	n/a	LTP202	ltpFR	1	2	n/a	TUTU	1524	n/a	5	n/a	n/a	n/a	n/a	n/a	n/a
3285.582	n/a	RECOG_TARGET	1642791	n/a	LTP202	ltpFR	1	2	1	VIOLIN	1571	1	4	0	n/a	n/a	n/a	n/a	n/a
3286.302	n/a	RECOG_RESP	1643151	n/a	LTP202	ltpFR	1	2	1	VIOLIN	1571	1	n/a	0	n/a	n/a	n/a	n/a	n/a
3287.334	n/a	RECOG_CONF	1643667	n/a	LTP202	ltpFR	1	2	1	VIOLIN	1571	n/a	4	0	n/a	n/a	n/a	n/a	n/a
3289.076	n/a	RECOG_TARGET	1644538	n/a	LTP202	ltpFR	1	2	1	GOVERNOR	651	1	1	1	n/a	n/a	n/a	n/a	n/a
3289.93	n/a	RECOG_RESP	1644965	n/a	LTP202	ltpFR	1	2	1	GOVERNOR	651	1	n/a	1	n/a	n/a	n/a	n/a	n/a
3291.136	n/a	RECOG_CONF	1645568	n/a	LTP202	ltpFR	1	2	1	GOVERNOR	651	n/a	1	1	n/a	n/a	n/a	n/a	n/a
3292.954	n/a	RECOG_TARGET	1646477	n/a	LTP202	ltpFR	1	2	-1	MINK	897	1	5	-1	n/a	n/a	n/a	n/a	n/a
3293.602	n/a	RECOG_RESP	1646801	n/a	LTP202	ltpFR	1	2	-1	MINK	897	1	n/a	-1	n/a	n/a	n/a	n/a	n/a
3294.948	n/a	RECOG_CONF	1647474	n/a	LTP202	ltpFR	1	2	-1	MINK	897	n/a	5	-1	n/a	n/a	n/a	n/a	n/a
3296.714	n/a	RECOG_TARGET	1648357	n/a	LTP202	ltpFR	1	2	1	NOSE	957	1	2	0	n/a	n/a	n/a	n/a	n/a
3297.642	n/a	RECOG_RESP	1648821	n/a	LTP202	ltpFR	1	2	1	NOSE	957	1	n/a	0	n/a	n/a	n/a	n/a	n/a
3299.14	n/a	RECOG_CONF	1649570	n/a	LTP202	ltpFR	1	2	1	NOSE	957	n/a	2	0	n/a	n/a	n/a	n/a	n/a
3300.692	n/a	RECOG_TARGET	1650346	n/a	LTP202	ltpFR	1	2	1	DOLL	481	1	5	0	n/a	n/a	n/a	n/a	n/a
3301.418	n/a	RECOG_RESP	1650709	n/a	LTP202	ltpFR	1	2	1	DOLL	481	1	n/a	0	n/a	n/a	n/a	n/a	n/a
3302.544	n/a	RECOG_CONF	1651272	n/a	LTP202	ltpFR	1	2	1	DOLL	481	n/a	5	0	n/a	n/a	n/a	n/a	n/a
3306.1	n/a	REC_START	1653050	n/a	LTP202	ltpFR	1	3	n/a	n/a	n/a	n/a	n/a	n/a	n/a	n/a	n/a	n/a	n/a
3306.136	n/a	RECOG_TARGET	1653068	n/a	LTP202	ltpFR	1	3	0	GRILL	661	1	5	0	n/a	n/a	n/a	n/a	n/a
3306.838	n/a	RECOG_RESP	1653419	n/a	LTP202	ltpFR	1	3	0	GRILL	661	1	n/a	0	n/a	n/a	n/a	n/a	n/a
3307.912	n/a	RECOG_CONF	1653956	n/a	LTP202	ltpFR	1	3	0	GRILL	661	n/a	5	0	n/a	n/a	n/a	n/a	n/a
3309.498	n/a	RECOG_TARGET	1654749	n/a	LTP202	ltpFR	1	3	0	ROSE	1212	1	2	0	n/a	n/a	n/a	n/a	n/a
3310.352	n/a	RECOG_RESP	1655176	n/a	LTP202	ltpFR	1	3	0	ROSE	1212	1	n/a	0	n/a	n/a	n/a	n/a	n/a
3311.858	n/a	RECOG_CONF	1655929	n/a	LTP202	ltpFR	1	3	0	ROSE	1212	n/a	2	0	n/a	n/a	n/a	n/a	n/a
3313.526	n/a	RECOG_LURE	1656763	n/a	LTP202	ltpFR	1	3	n/a	PATRIOT	1026	0	5	n/a	n/a	n/a	n/a	n/a	n/a
3314.428	n/a	RECOG_RESP	1657214	n/a	LTP202	ltpFR	1	3	n/a	PATRIOT	1026	0	n/a	n/a	n/a	n/a	n/a	n/a	n/a
3315.578	n/a	RECOG_CONF	1657789	n/a	LTP202	ltpFR	1	3	n/a	PATRIOT	1026	n/a	5	n/a	n/a	n/a	n/a	n/a	n/a
3317.252	n/a	RECOG_TARGET	1658626	n/a	LTP202	ltpFR	1	3	1	MUSTARD	935	1	5	0	n/a	n/a	n/a	n/a	n/a
3317.95	n/a	RECOG_RESP	1658975	n/a	LTP202	ltpFR	1	3	1	MUSTARD	935	1	n/a	0	n/a	n/a	n/a	n/a	n/a
3318.984	n/a	RECOG_CONF	1659492	n/a	LTP202	ltpFR	1	3	1	MUSTARD	935	n/a	5	0	n/a	n/a	n/a	n/a	n/a
3320.664	n/a	RECOG_TARGET	1660332	n/a	LTP202	ltpFR	1	3	-1	OX	994	1	5	-1	n/a	n/a	n/a	n/a	n/a
3321.286	n/a	RECOG_RESP	1660643	n/a	LTP202	ltpFR	1	3	-1	OX	994	1	n/a	-1	n/a	n/a	n/a	n/a	n/a
3322.398	n/a	RECOG_CONF	1661199	n/a	LTP202	ltpFR	1	3	-1	OX	994	n/a	5	-1	n/a	n/a	n/a	n/a	n/a
3324.126	n/a	RECOG_TARGET	1662063	n/a	LTP202	ltpFR	1	3	1	SHINGLE	1285	1	5	0	n/a	n/a	n/a	n/a	n/a
3324.868	n/a	RECOG_RESP	1662434	n/a	LTP202	ltpFR	1	3	1	SHINGLE	1285	1	n/a	0	n/a	n/a	n/a	n/a	n/a
3326.08	n/a	RECOG_CONF	1663040	n/a	LTP202	ltpFR	1	3	1	SHINGLE	1285	n/a	5	0	n/a	n/a	n/a	n/a	n/a
3327.686	n/a	RECOG_LURE	1663843	n/a	LTP202	ltpFR	1	3	n/a	SCALLOP	1242	0	3	n/a	n/a	n/a	n/a	n/a	n/a
3328.494	n/a	RECOG_RESP	1664247	n/a	LTP202	ltpFR	1	3	n/a	SCALLOP	1242	0	n/a	n/a	n/a	n/a	n/a	n/a	n/a
3329.78	n/a	RECOG_CONF	1664890	n/a	LTP202	ltpFR	1	3	n/a	SCALLOP	1242	n/a	3	n/a	n/a	n/a	n/a	n/a	n/a
3331.348	n/a	RECOG_TARGET	1665674	n/a	LTP202	ltpFR	1	3	0	BRIEFCASE	175	1	2	1	n/a	n/a	n/a	n/a	n/a
3332.24	n/a	RECOG_RESP	1666120	n/a	LTP202	ltpFR	1	3	0	BRIEFCASE	175	1	n/a	1	n/a	n/a	n/a	n/a	n/a
3333.57	n/a	RECOG_CONF	1666785	n/a	LTP202	ltpFR	1	3	0	BRIEFCASE	175	n/a	2	1	n/a	n/a	n/a	n/a	n/a
3335.226	n/a	RECOG_TARGET	1667613	n/a	LTP202	ltpFR	1	3	0	POLICE	1098	1	1	1	n/a	n/a	n/a	n/a	n/a
3335.964	n/a	RECOG_RESP	1667982	n/a	LTP202	ltpFR	1	3	0	POLICE	1098	1	n/a	1	n/a	n/a	n/a	n/a	n/a
3337.192	n/a	RECOG_CONF	1668596	n/a	LTP202	ltpFR	1	3	0	POLICE	1098	n/a	1	1	n/a	n/a	n/a	n/a	n/a
3338.952	n/a	RECOG_LURE	1669476	n/a	LTP202	ltpFR	1	3	n/a	CHURCH	307	0	4	n/a	n/a	n/a	n/a	n/a	n/a
3339.744	n/a	RECOG_RESP	1669872	n/a	LTP202	ltpFR	1	3	n/a	CHURCH	307	0	n/a	n/a	n/a	n/a	n/a	n/a	n/a
3340.778	n/a	RECOG_CONF	1670389	n/a	LTP202	ltpFR	1	3	n/a	CHURCH	307	n/a	4	n/a	n/a	n/a	n/a	n/a	n/a
3342.564	n/a	RECOG_TARGET	1671282	n/a	LTP202	ltpFR	1	3	-1	PHILOSOPHER	1054	1	5	-1	n/a	n/a	n/a	n/a	n/a
3343.506	n/a	RECOG_RESP	1671753	n/a	LTP202	ltpFR	1	3	-1	PHILOSOPHER	1054	1	n/a	-1	n/a	n/a	n/a	n/a	n/a
3344.554	n/a	RECOG_CONF	1672277	n/a	LTP202	ltpFR	1	3	-1	PHILOSOPHER	1054	n/a	5	-1	n/a	n/a	n/a	n/a	n/a
3346.226	n/a	RECOG_TARGET	1673113	n/a	LTP202	ltpFR	1	3	0	HOSTESS	723	1	2	1	n/a	n/a	n/a	n/a	n/a
3346.952	n/a	RECOG_RESP	1673476	n/a	LTP202	ltpFR	1	3	0	HOSTESS	723	1	n/a	1	n/a	n/a	n/a	n/a	n/a
3348.608	n/a	RECOG_CONF	1674304	n/a	LTP202	ltpFR	1	3	0	HOSTESS	723	n/a	2	1	n/a	n/a	n/a	n/a	n/a
3350.186	n/a	RECOG_TARGET	1675093	n/a	LTP202	ltpFR	1	3	0	CHICK	296	1	5	0	n/a	n/a	n/a	n/a	n/a
3350.87	n/a	RECOG_RESP	1675435	n/a	LTP202	ltpFR	1	3	0	CHICK	296	1	n/a	0	n/a	n/a	n/a	n/a	n/a
3351.958	n/a	RECOG_CONF	1675979	n/a	LTP202	ltpFR	1	3	0	CHICK	296	n/a	5	0	n/a	n/a	n/a	n/a	n/a
3353.664	n/a	RECOG_TARGET	1676832	n/a	LTP202	ltpFR	1	3	0	WASP	1593	0	3	0	n/a	n/a	n/a	n/a	n/a
3355.238	n/a	RECOG_RESP	1677619	n/a	LTP202	ltpFR	1	3	0	WASP	1593	0	n/a	0	n/a	n/a	n/a	n/a	n/a
3356.63	n/a	RECOG_CONF	1678315	n/a	LTP202	ltpFR	1	3	0	WASP	1593	n/a	3	0	n/a	n/a	n/a	n/a	n/a
3358.258	n/a	RECOG_TARGET	1679129	n/a	LTP202	ltpFR	1	3	1	PLIERS	1089	1	4	0	n/a	n/a	n/a	n/a	n/a
3359.234	n/a	RECOG_RESP	1679617	n/a	LTP202	ltpFR	1	3	1	PLIERS	1089	1	n/a	0	n/a	n/a	n/a	n/a	n/a
3360.602	n/a	RECOG_CONF	1680301	n/a	LTP202	ltpFR	1	3	1	PLIERS	1089	n/a	4	0	n/a	n/a	n/a	n/a	n/a
3362.286	n/a	RECOG_TARGET	1681143	n/a	LTP202	ltpFR	1	3	1	MOTH	920	1	5	1	n/a	n/a	n/a	n/a	n/a
3363.056	n/a	RECOG_RESP	1681528	n/a	LTP202	ltpFR	1	3	1	MOTH	920	1	n/a	1	n/a	n/a	n/a	n/a	n/a
3364.206	n/a	RECOG_CONF	1682103	n/a	LTP202	ltpFR	1	3	1	MOTH	920	n/a	5	1	n/a	n/a	n/a	n/a	n/a
3366.046	n/a	RECOG_TARGET	1683023	n/a	LTP202	ltpFR	1	3	1	ROOMMATE	1207	0	1	1	n/a	n/a	n/a	n/a	n/a
3367.706	n/a	RECOG_RESP	1683853	n/a	LTP202	ltpFR	1	3	1	ROOMMATE	1207	0	n/a	1	n/a	n/a	n/a	n/a	n/a
3368.748	n/a	RECOG_CONF	1684374	n/a	LTP202	ltpFR	1	3	1	ROOMMATE	1207	n/a	1	1	n/a	n/a	n/a	n/a	n/a
3370.456	n/a	RECOG_LURE	1685228	n/a	LTP202	ltpFR	1	3	n/a	LUNCH	849	0	2	n/a	n/a	n/a	n/a	n/a	n/a
3371.596	n/a	RECOG_RESP	1685798	n/a	LTP202	ltpFR	1	3	n/a	LUNCH	849	0	n/a	n/a	n/a	n/a	n/a	n/a	n/a
3373.194	n/a	RECOG_CONF	1686597	n/a	LTP202	ltpFR	1	3	n/a	LUNCH	849	n/a	2	n/a	n/a	n/a	n/a	n/a	n/a
3374.95	n/a	RECOG_TARGET	1687475	n/a	LTP202	ltpFR	1	3	-1	SHORE	1291	1	2	-1	n/a	n/a	n/a	n/a	n/a
3376.164	n/a	RECOG_RESP	1688082	n/a	LTP202	ltpFR	1	3	-1	SHORE	1291	1	n/a	-1	n/a	n/a	n/a	n/a	n/a
3377.388	n/a	RECOG_CONF	1688694	n/a	LTP202	ltpFR	1	3	-1	SHORE	1291	n/a	2	-1	n/a	n/a	n/a	n/a	n/a
3379.044	n/a	RECOG_TARGET	1689522	n/a	LTP202	ltpFR	1	3	0	LETTUCE	814	0	1	0	n/a	n/a	n/a	n/a	n/a
3380.232	n/a	RECOG_RESP	1690116	n/a	LTP202	ltpFR	1	3	0	LETTUCE	814	0	n/a	0	n/a	n/a	n/a	n/a	n/a
3381.352	n/a	RECOG_CONF	1690676	n/a	LTP202	ltpFR	1	3	0	LETTUCE	814	n/a	1	0	n/a	n/a	n/a	n/a	n/a
3387.992	n/a	REC_START	1693996	n/a	LTP202	ltpFR	1	4	n/a	n/a	n/a	n/a	n/a	n/a	n/a	n/a	n/a	n/a	n/a
3388.03	n/a	RECOG_TARGET	1694015	n/a	LTP202	ltpFR	1	4	0	ATOM	55	1	5	0	n/a	n/a	n/a	n/a	n/a
3388.836	n/a	RECOG_RESP	1694418	n/a	LTP202	ltpFR	1	4	0	ATOM	55	1	n/a	0	n/a	n/a	n/a	n/a	n/a
3389.92	n/a	RECOG_CONF	1694960	n/a	LTP202	ltpFR	1	4	0	ATOM	55	n/a	5	0	n/a	n/a	n/a	n/a	n/a
3391.708	n/a	RECOG_TARGET	1695854	n/a	LTP202	ltpFR	1	4	0	ROBOT	1200	1	5	1	n/a	n/a	n/a	n/a	n/a
3392.41	n/a	RECOG_RESP	1696205	n/a	LTP202	ltpFR	1	4	0	ROBOT	1200	1	n/a	1	n/a	n/a	n/a	n/a	n/a
3393.5	n/a	RECOG_CONF	1696750	n/a	LTP202	ltpFR	1	4	0	ROBOT	1200	n/a	5	1	n/a	n/a	n/a	n/a	n/a
3395.154	n/a	RECOG_TARGET	1697577	n/a	LTP202	ltpFR	1	4	0	BARLEY	88	0	2	0	n/a	n/a	n/a	n/a	n/a
3396.384	n/a	RECOG_RESP	1698192	n/a	LTP202	ltpFR	1	4	0	BARLEY	88	0	n/a	0	n/a	n/a	n/a	n/a	n/a
3398.044	n/a	RECOG_CONF	1699022	n/a	LTP202	ltpFR	1	4	0	BARLEY	88	n/a	2	0	n/a	n/a	n/a	n/a	n/a
3399.714	n/a	RECOG_TARGET	1699857	n/a	LTP202	ltpFR	1	4	1	GLOVE	642	1	5	0	n/a	n/a	n/a	n/a	n/a
3400.516	n/a	RECOG_RESP	1700258	n/a	LTP202	ltpFR	1	4	1	GLOVE	642	1	n/a	0	n/a	n/a	n/a	n/a	n/a
3401.558	n/a	RECOG_CONF	1700779	n/a	LTP202	ltpFR	1	4	1	GLOVE	642	n/a	5	0	n/a	n/a	n/a	n/a	n/a
3403.342	n/a	RECOG_TARGET	1701671	n/a	LTP202	ltpFR	1	4	1	MESSAGE	888	0	4	0	n/a	n/a	n/a	n/a	n/a
3404.238	n/a	RECOG_RESP	1702119	n/a	LTP202	ltpFR	1	4	1	MESSAGE	888	0	n/a	0	n/a	n/a	n/a	n/a	n/a
3405.244	n/a	RECOG_CONF	1702622	n/a	LTP202	ltpFR	1	4	1	MESSAGE	888	n/a	4	0	n/a	n/a	n/a	n/a	n/a
3407.018	n/a	RECOG_TARGET	1703509	n/a	LTP202	ltpFR	1	4	1	BATH	98	0	2	0	n/a	n/a	n/a	n/a	n/a
3408.69	n/a	RECOG_RESP	1704345	n/a	LTP202	ltpFR	1	4	1	BATH	98	0	n/a	0	n/a	n/a	n/a	n/a	n/a
3410.73	n/a	RECOG_CONF	1705365	n/a	LTP202	ltpFR	1	4	1	BATH	98	n/a	2	0	n/a	n/a	n/a	n/a	n/a
3412.428	n/a	RECOG_TARGET	1706214	n/a	LTP202	ltpFR	1	4	-1	LOUNGE	845	1	5	-1	n/a	n/a	n/a	n/a	n/a
3413.13	n/a	RECOG_RESP	1706565	n/a	LTP202	ltpFR	1	4	-1	LOUNGE	845	1	n/a	-1	n/a	n/a	n/a	n/a	n/a
3414.338	n/a	RECOG_CONF	1707169	n/a	LTP202	ltpFR	1	4	-1	LOUNGE	845	n/a	5	-1	n/a	n/a	n/a	n/a	n/a
3416.14	n/a	RECOG_TARGET	1708070	n/a	LTP202	ltpFR	1	4	1	BIOLOGIST	128	1	5	1	n/a	n/a	n/a	n/a	n/a
3416.972	n/a	RECOG_RESP	1708486	n/a	LTP202	ltpFR	1	4	1	BIOLOGIST	128	1	n/a	1	n/a	n/a	n/a	n/a	n/a
3418.164	n/a	RECOG_CONF	1709082	n/a	LTP202	ltpFR	1	4	1	BIOLOGIST	128	n/a	5	1	n/a	n/a	n/a	n/a	n/a
3419.95	n/a	RECOG_TARGET	1709975	n/a	LTP202	ltpFR	1	4	0	MINER	896	1	4	1	n/a	n/a	n/a	n/a	n/a
3420.732	n/a	RECOG_RESP	1710366	n/a	LTP202	ltpFR	1	4	0	MINER	896	1	n/a	1	n/a	n/a	n/a	n/a	n/a
3422.346	n/a	RECOG_CONF	1711173	n/a	LTP202	ltpFR	1	4	0	MINER	896	n/a	4	1	n/a	n/a	n/a	n/a	n/a
3424.112	n/a	RECOG_TARGET	1712056	n/a	LTP202	ltpFR	1	4	0	CARPENTER	246	1	4	1	n/a	n/a	n/a	n/a	n/a
3424.988	n/a	RECOG_RESP	1712494	n/a	LTP202	ltpFR	1	4	0	CARPENTER	246	1	n/a	1	n/a	n/a	n/a	n/a	n/a
3426.504	n/a	RECOG_CONF	1713252	n/a	LTP202	ltpFR	1	4	0	CARPENTER	246	n/a	4	1	n/a	n/a	n/a	n/a	n/a
3428.172	n/a	RECOG_TARGET	1714086	n/a	LTP202	ltpFR	1	4	1	MARINE	869	0	3	1	n/a	n/a	n/a	n/a	n/a
3429.288	n/a	RECOG_RESP	1714644	n/a	LTP202	ltpFR	1	4	1	MARINE	869	0	n/a	1	n/a	n/a	n/a	n/a	n/a
3431.01	n/a	RECOG_CONF	1715505	n/a	LTP202	ltpFR	1	4	1	MARINE	869	n/a	3	1	n/a	n/a	n/a	n/a	n/a
3432.63	n/a	RECOG_LURE	1716315	n/a	LTP202	ltpFR	1	4	n/a	SKIN	1318	0	3	n/a	n/a	n/a	n/a	n/a	n/a
3433.548	n/a	RECOG_RESP	1716774	n/a	LTP202	ltpFR	1	4	n/a	SKIN	1318	0	n/a	n/a	n/a	n/a	n/a	n/a	n/a
3435.02	n/a	RECOG_CONF	1717510	n/a	LTP202	ltpFR	1	4	n/a	SKIN	1318	n/a	3	n/a	n/a	n/a	n/a	n/a	n/a
3436.56	n/a	RECOG_TARGET	1718280	n/a	LTP202	ltpFR	1	4	-1	SCISSORS	1250	1	5	-1	n/a	n/a	n/a	n/a	n/a
3437.314	n/a	RECOG_RESP	1718657	n/a	LTP202	ltpFR	1	4	-1	SCISSORS	1250	1	n/a	-1	n/a	n/a	n/a	n/a	n/a
3438.41	n/a	RECOG_CONF	1719205	n/a	LTP202	ltpFR	1	4	-1	SCISSORS	1250	n/a	5	-1	n/a	n/a	n/a	n/a	n/a
3440.204	n/a	RECOG_TARGET	1720102	n/a	LTP202	ltpFR	1	4	0	BLUEBERRY	140	1	5	0	n/a	n/a	n/a	n/a	n/a
3440.878	n/a	RECOG_RESP	1720439	n/a	LTP202	ltpFR	1	4	0	BLUEBERRY	140	1	n/a	0	n/a	n/a	n/a	n/a	n/a
3442.038	n/a	RECOG_CONF	1721019	n/a	LTP202	ltpFR	1	4	0	BLUEBERRY	140	n/a	5	0	n/a	n/a	n/a	n/a	n/a
3443.616	n/a	RECOG_TARGET	1721808	n/a	LTP202	ltpFR	1	4	1	MEDAL	885	0	3	0	n/a	n/a	n/a	n/a	n/a
3444.86	n/a	RECOG_RESP	1722430	n/a	LTP202	ltpFR	1	4	1	MEDAL	885	0	n/a	0	n/a	n/a	n/a	n/a	n/a
3446.8	n/a	RECOG_CONF	1723400	n/a	LTP202	ltpFR	1	4	1	MEDAL	885	n/a	3	0	n/a	n/a	n/a	n/a	n/a
3448.408	n/a	RECOG_LURE	1724204	n/a	LTP202	ltpFR	1	4	n/a	COOKBOOK	373	0	4	n/a	n/a	n/a	n/a	n/a	n/a
3449.284	n/a	RECOG_RESP	1724642	n/a	LTP202	ltpFR	1	4	n/a	COOKBOOK	373	0	n/a	n/a	n/a	n/a	n/a	n/a	n/a
3450.398	n/a	RECOG_CONF	1725199	n/a	LTP202	ltpFR	1	4	n/a	COOKBOOK	373	n/a	4	n/a	n/a	n/a	n/a	n/a	n/a
3452.204	n/a	RECOG_TARGET	1726102	n/a	LTP202	ltpFR	1	4	-1	PLANET	1082	1	5	-1	n/a	n/a	n/a	n/a	n/a
3452.966	n/a	RECOG_RESP	1726483	n/a	LTP202	ltpFR	1	4	-1	PLANET	1082	1	n/a	-1	n/a	n/a	n/a	n/a	n/a
3453.97	n/a	RECOG_CONF	1726985	n/a	LTP202	ltpFR	1	4	-1	PLANET	1082	n/a	5	-1	n/a	n/a	n/a	n/a	n/a
3455.63	n/a	RECOG_TARGET	1727815	n/a	LTP202	ltpFR	1	4	0	PALACE	1006	1	5	1	n/a	n/a	n/a	n/a	n/a
3456.46	n/a	RECOG_RESP	1728230	n/a	LTP202	ltpFR	1	4	0	PALACE	1006	1	n/a	1	n/a	n/a	n/a	n/a	n/a
3457.496	n/a	RECOG_CONF	1728748	n/a	LTP202	ltpFR	1	4	0	PALACE	1006	n/a	5	1	n/a	n/a	n/a	n/a	n/a
3459.176	n/a	RECOG_TARGET	1729588	n/a	LTP202	ltpFR	1	4	0	QUAIL	1147	1	5	1	n/a	n/a	n/a	n/a	n/a
3459.876	n/a	RECOG_RESP	1729938	n/a	LTP202	ltpFR	1	4	0	QUAIL	1147	1	n/a	1	n/a	n/a	n/a	n/a	n/a
3460.944	n/a	RECOG_CONF	1730472	n/a	LTP202	ltpFR	1	4	0	QUAIL	1147	n/a	5	1	n/a	n/a	n/a	n/a	n/a
3462.686	n/a	RECOG_TARGET	1731343	n/a	LTP202	ltpFR	1	4	0	DICE	461	1	5	0	n/a	n/a	n/a	n/a	n/a
3463.354	n/a	RECOG_RESP	1731677	n/a	LTP202	ltpFR	1	4	0	DICE	461	1	n/a	0	n/a	n/a	n/a	n/a	n/a
3464.464	n/a	RECOG_CONF	1732232	n/a	LTP202	ltpFR	1	4	0	DICE	461	n/a	5	0	n/a	n/a	n/a	n/a	n/a
3467.582	n/a	REC_START	1733791	n/a	LTP202	ltpFR	1	5	n/a	n/a	n/a	n/a	n/a	n/a	n/a	n/a	n/a	n/a	n/a
3467.612	n/a	RECOG_TARGET	1733806	n/a	LTP202	ltpFR	1	5	1	CHOCOLATE	306	1	5	0	n/a	n/a	n/a	n/a	n/a
3468.246	n/a	RECOG_RESP	1734123	n/a	LTP202	ltpFR	1	5	1	CHOCOLATE	306	1	n/a	0	n/a	n/a	n/a	n/a	n/a
3469.244	n/a	RECOG_CONF	1734622	n/a	LTP202	ltpFR	1	5	1	CHOCOLATE	306	n/a	5	0	n/a	n/a	n/a	n/a	n/a
3470.924	n/a	RECOG_TARGET	1735462	n/a	LTP202	ltpFR	1	5	1	WRENCH	1625	1	4	0	n/a	n/a	n/a	n/a	n/a
3471.822	n/a	RECOG_RESP	1735911	n/a	LTP202	ltpFR	1	5	1	WRENCH	1625	1	n/a	0	n/a	n/a	n/a	n/a	n/a
3472.8	n/a	RECOG_CONF	1736400	n/a	LTP202	ltpFR	1	5	1	WRENCH	1625	n/a	4	0	n/a	n/a	n/a	n/a	n/a
3474.554	n/a	RECOG_TARGET	1737277	n/a	LTP202	ltpFR	1	5	-1	PARTY	1018	1	5	-1	n/a	n/a	n/a	n/a	n/a
3475.264	n/a	RECOG_RESP	1737632	n/a	LTP202	ltpFR	1	5	-1	PARTY	1018	1	n/a	-1	n/a	n/a	n/a	n/a	n/a
3476.164	n/a	RECOG_CONF	1738082	n/a	LTP202	ltpFR	1	5	-1	PARTY	1018	n/a	5	-1	n/a	n/a	n/a	n/a	n/a
3477.998	n/a	RECOG_TARGET	1738999	n/a	LTP202	ltpFR	1	5	0	GYMNAST	675	1	2	1	n/a	n/a	n/a	n/a	n/a
3478.74	n/a	RECOG_RESP	1739370	n/a	LTP202	ltpFR	1	5	0	GYMNAST	675	1	n/a	1	n/a	n/a	n/a	n/a	n/a
3480.052	n/a	RECOG_CONF	1740026	n/a	LTP202	ltpFR	1	5	0	GYMNAST	675	n/a	2	1	n/a	n/a	n/a	n/a	n/a
3481.758	n/a	RECOG_TARGET	1740879	n/a	LTP202	ltpFR	1	5	-1	BADGE	68	1	5	-1	n/a	n/a	n/a	n/a	n/a
3482.444	n/a	RECOG_RESP	1741222	n/a	LTP202	ltpFR	1	5	-1	BADGE	68	1	n/a	-1	n/a	n/a	n/a	n/a	n/a
3483.482	n/a	RECOG_CONF	1741741	n/a	LTP202	ltpFR	1	5	-1	BADGE	68	n/a	5	-1	n/a	n/a	n/a	n/a	n/a
3485.004	n/a	RECOG_TARGET	1742502	n/a	LTP202	ltpFR	1	5	0	CHEF	290	1	4	1	n/a	n/a	n/a	n/a	n/a
3485.672	n/a	RECOG_RESP	1742836	n/a	LTP202	ltpFR	1	5	0	CHEF	290	1	n/a	1	n/a	n/a	n/a	n/a	n/a
3486.678	n/a	RECOG_CONF	1743339	n/a	LTP202	ltpFR	1	5	0	CHEF	290	n/a	4	1	n/a	n/a	n/a	n/a	n/a
3488.366	n/a	RECOG_TARGET	1744183	n/a	LTP202	ltpFR	1	5	0	RELATIVE	1182	1	5	1	n/a	n/a	n/a	n/a	n/a
3489.144	n/a	RECOG_RESP	1744572	n/a	LTP202	ltpFR	1	5	0	RELATIVE	1182	1	n/a	1	n/a	n/a	n/a	n/a	n/a
3490.342	n/a	RECOG_CONF	1745171	n/a	LTP202	ltpFR	1	5	0	RELATIVE	1182	n/a	5	1	n/a	n/a	n/a	n/a	n/a
3491.844	n/a	RECOG_TARGET	1745922	n/a	LTP202	ltpFR	1	5	0	KITE	779	1	5	0	n/a	n/a	n/a	n/a	n/a
3492.528	n/a	RECOG_RESP	1746264	n/a	LTP202	ltpFR	1	5	0	KITE	779	1	n/a	0	n/a	n/a	n/a	n/a	n/a
3493.524	n/a	RECOG_CONF	1746762	n/a	LTP202	ltpFR	1	5	0	KITE	779	n/a	5	0	n/a	n/a	n/a	n/a	n/a
3495.156	n/a	RECOG_TARGET	1747578	n/a	LTP202	ltpFR	1	5	1	GLASSES	640	1	4	0	n/a	n/a	n/a	n/a	n/a
3496.282	n/a	RECOG_RESP	1748141	n/a	LTP202	ltpFR	1	5	1	GLASSES	640	1	n/a	0	n/a	n/a	n/a	n/a	n/a
3498.128	n/a	RECOG_CONF	1749064	n/a	LTP202	ltpFR	1	5	1	GLASSES	640	n/a	4	0	n/a	n/a	n/a	n/a	n/a
3499.948	n/a	RECOG_LURE	1749974	n/a	LTP202	ltpFR	1	5	n/a	SLUG	1329	0	3	n/a	n/a	n/a	n/a	n/a	n/a
3500.982	n/a	RECOG_RESP	1750491	n/a	LTP202	ltpFR	1	5	n/a	SLUG	1329	0	n/a	n/a	n/a	n/a	n/a	n/a	n/a
3502.464	n/a	RECOG_CONF	1751232	n/a	LTP202	ltpFR	1	5	n/a	SLUG	1329	n/a	3	n/a	n/a	n/a	n/a	n/a	n/a
3504.192	n/a	RECOG_TARGET	1752096	n/a	LTP202	ltpFR	1	5	1	PEACH	1031	1	5	0	n/a	n/a	n/a	n/a	n/a
3504.852	n/a	RECOG_RESP	1752426	n/a	LTP202	ltpFR	1	5	1	PEACH	1031	1	n/a	0	n/a	n/a	n/a	n/a	n/a
3505.806	n/a	RECOG_CONF	1752903	n/a	LTP202	ltpFR	1	5	1	PEACH	1031	n/a	5	0	n/a	n/a	n/a	n/a	n/a
3507.586	n/a	RECOG_LURE	1753793	n/a	LTP202	ltpFR	1	5	n/a	COBWEB	337	0	5	n/a	n/a	n/a	n/a	n/a	n/a
3508.376	n/a	RECOG_RESP	1754188	n/a	LTP202	ltpFR	1	5	n/a	COBWEB	337	0	n/a	n/a	n/a	n/a	n/a	n/a	n/a
3509.31	n/a	RECOG_CONF	1754655	n/a	LTP202	ltpFR	1	5	n/a	COBWEB	337	n/a	5	n/a	n/a	n/a	n/a	n/a	n/a
3511.182	n/a	RECOG_TARGET	1755591	n/a	LTP202	ltpFR	1	5	-1	SHIRT	1287	1	5	-1	n/a	n/a	n/a	n/a	n/a
3511.732	n/a	RECOG_RESP	1755866	n/a	LTP202	ltpFR	1	5	-1	SHIRT	1287	1	n/a	-1	n/a	n/a	n/a	n/a	n/a
3512.74	n/a	RECOG_CONF	1756370	n/a	LTP202	ltpFR	1	5	-1	SHIRT	1287	n/a	5	-1	n/a	n/a	n/a	n/a	n/a
3514.462	n/a	RECOG_TARGET	1757231	n/a	LTP202	ltpFR	1	5	-1	HOUND	724	1	5	-1	n/a	n/a	n/a	n/a	n/a
3515.18	n/a	RECOG_RESP	1757590	n/a	LTP202	ltpFR	1	5	-1	HOUND	724	1	n/a	-1	n/a	n/a	n/a	n/a	n/a
3516.202	n/a	RECOG_CONF	1758101	n/a	LTP202	ltpFR	1	5	-1	HOUND	724	n/a	5	-1	n/a	n/a	n/a	n/a	n/a
3517.922	n/a	RECOG_TARGET	1758961	n/a	LTP202	ltpFR	1	5	1	JOKER	759	1	5	1	n/a	n/a	n/a	n/a	n/a
3518.646	n/a	RECOG_RESP	1759323	n/a	LTP202	ltpFR	1	5	1	JOKER	759	1	n/a	1	n/a	n/a	n/a	n/a	n/a
3519.75	n/a	RECOG_CONF	1759875	n/a	LTP202	ltpFR	1	5	1	JOKER	759	n/a	5	1	n/a	n/a	n/a	n/a	n/a
3521.368	n/a	RECOG_TARGET	1760684	n/a	LTP202	ltpFR	1	5	-1	BUTTERFLY	206	1	5	-1	n/a	n/a	n/a	n/a	n/a
3522.134	n/a	RECOG_RESP	1761067	n/a	LTP202	ltpFR	1	5	-1	BUTTERFLY	206	1	n/a	-1	n/a	n/a	n/a	n/a	n/a
3523.174	n/a	RECOG_CONF	1761587	n/a	LTP202	ltpFR	1	5	-1	BUTTERFLY	206	n/a	5	-1	n/a	n/a	n/a	n/a	n/a
3524.894	n/a	RECOG_TARGET	1762447	n/a	LTP202	ltpFR	1	5	1	SPY	1360	0	2	1	n/a	n/a	n/a	n/a	n/a
3526.752	n/a	RECOG_RESP	1763376	n/a	LTP202	ltpFR	1	5	1	SPY	1360	0	n/a	1	n/a	n/a	n/a	n/a	n/a
3528.34	n/a	RECOG_CONF	1764170	n/a	LTP202	ltpFR	1	5	1	SPY	1360	n/a	2	1	n/a	n/a	n/a	n/a	n/a
3530.07	n/a	RECOG_TARGET	1765035	n/a	LTP202	ltpFR	1	5	1	PICKLE	1059	1	5	0	n/a	n/a	n/a	n/a	n/a
3530.82	n/a	RECOG_RESP	1765410	n/a	LTP202	ltpFR	1	5	1	PICKLE	1059	1	n/a	0	n/a	n/a	n/a	n/a	n/a
3531.808	n/a	RECOG_CONF	1765904	n/a	LTP202	ltpFR	1	5	1	PICKLE	1059	n/a	5	0	n/a	n/a	n/a	n/a	n/a
3533.5	n/a	RECOG_LURE	1766750	n/a	LTP202	ltpFR	1	5	n/a	BASEBALL	93	0	4	n/a	n/a	n/a	n/a	n/a	n/a
3534.392	n/a	RECOG_RESP	1767196	n/a	LTP202	ltpFR	1	5	n/a	BASEBALL	93	0	n/a	n/a	n/a	n/a	n/a	n/a	n/a
3535.994	n/a	RECOG_CONF	1767997	n/a	LTP202	ltpFR	1	5	n/a	BASEBALL	93	n/a	4	n/a	n/a	n/a	n/a	n/a	n/a
3537.294	n/a	RECOG_TARGET	1768647	n/a	LTP202	ltpFR	1	5	1	BLUEPRINT	142	0	2	0	n/a	n/a	n/a	n/a	n/a
3538.562	n/a	RECOG_RESP	1769281	n/a	LTP202	ltpFR	1	5	1	BLUEPRINT	142	0	n/a	0	n/a	n/a	n/a	n/a	n/a
3539.998	n/a	RECOG_CONF	1769999	n/a	LTP202	ltpFR	1	5	1	BLUEPRINT	142	n/a	2	0	n/a	n/a	n/a	n/a	n/a
3543.54	n/a	REC_START	1771770	n/a	LTP202	ltpFR	1	6	n/a	n/a	n/a	n/a	n/a	n/a	n/a	n/a	n/a	n/a	n/a
3543.566	n/a	RECOG_TARGET	1771783	n/a	LTP202	ltpFR	1	6	0	MULE	931	1	5	1	n/a	n/a	n/a	n/a	n/a
3544.238	n/a	RECOG_RESP	1772119	n/a	LTP202	ltpFR	1	6	0	MULE	931	1	n/a	1	n/a	n/a	n/a	n/a	n/a
3545.152	n/a	RECOG_CONF	1772576	n/a	LTP202	ltpFR	1	6	0	MULE	931	n/a	5	1	n/a	n/a	n/a	n/a	n/a
3546.746	n/a	RECOG_TARGET	1773373	n/a	LTP202	ltpFR	1	6	1	LOBBY	836	1	4	0	n/a	n/a	n/a	n/a	n/a
3547.6	n/a	RECOG_RESP	1773800	n/a	LTP202	ltpFR	1	6	1	LOBBY	836	1	n/a	0	n/a	n/a	n/a	n/a	n/a
3549.246	n/a	RECOG_CONF	1774623	n/a	LTP202	ltpFR	1	6	1	LOBBY	836	n/a	4	0	n/a	n/a	n/a	n/a	n/a
3551.006	n/a	RECOG_TARGET	1775503	n/a	LTP202	ltpFR	1	6	1	INCENSE	735	1	5	0	n/a	n/a	n/a	n/a	n/a
3551.738	n/a	RECOG_RESP	1775869	n/a	LTP202	ltpFR	1	6	1	INCENSE	735	1	n/a	0	n/a	n/a	n/a	n/a	n/a
3552.694	n/a	RECOG_CONF	1776347	n/a	LTP202	ltpFR	1	6	1	INCENSE	735	n/a	5	0	n/a	n/a	n/a	n/a	n/a
3554.118	n/a	RECOG_LURE	1777059	n/a	LTP202	ltpFR	1	6	n/a	PUBLISHER	1137	0	1	n/a	n/a	n/a	n/a	n/a	n/a
3555.438	n/a	RECOG_RESP	1777719	n/a	LTP202	ltpFR	1	6	n/a	PUBLISHER	1137	0	n/a	n/a	n/a	n/a	n/a	n/a	n/a
3556.764	n/a	RECOG_CONF	1778382	n/a	LTP202	ltpFR	1	6	n/a	PUBLISHER	1137	n/a	1	n/a	n/a	n/a	n/a	n/a	n/a
3558.496	n/a	RECOG_TARGET	1779248	n/a	LTP202	ltpFR	1	6	0	FAMILY	550	1	4	1	n/a	n/a	n/a	n/a	n/a
3559.242	n/a	RECOG_RESP	1779621	n/a	LTP202	ltpFR	1	6	0	FAMILY	550	1	n/a	1	n/a	n/a	n/a	n/a	n/a
3560.314	n/a	RECOG_CONF	1780157	n/a	LTP202	ltpFR	1	6	0	FAMILY	550	n/a	4	1	n/a	n/a	n/a	n/a	n/a
3562.106	n/a	RECOG_TARGET	1781053	n/a	LTP202	ltpFR	1	6	-1	REGISTER	1180	1	4	-1	n/a	n/a	n/a	n/a	n/a
3562.75	n/a	RECOG_RESP	1781375	n/a	LTP202	ltpFR	1	6	-1	REGISTER	1180	1	n/a	-1	n/a	n/a	n/a	n/a	n/a
3564.118	n/a	RECOG_CONF	1782059	n/a	LTP202	ltpFR	1	6	-1	REGISTER	1180	n/a	4	-1	n/a	n/a	n/a	n/a	n/a
3565.668	n/a	RECOG_TARGET	1782834	n/a	LTP202	ltpFR	1	6	-1	MAMMAL	861	1	5	-1	n/a	n/a	n/a	n/a	n/a
3566.342	n/a	RECOG_RESP	1783171	n/a	LTP202	ltpFR	1	6	-1	MAMMAL	861	1	n/a	-1	n/a	n/a	n/a	n/a	n/a
3567.356	n/a	RECOG_CONF	1783678	n/a	LTP202	ltpFR	1	6	-1	MAMMAL	861	n/a	5	-1	n/a	n/a	n/a	n/a	n/a
3568.862	n/a	RECOG_TARGET	1784431	n/a	LTP202	ltpFR	1	6	-1	FIREMAN	569	1	5	-1	n/a	n/a	n/a	n/a	n/a
3569.662	n/a	RECOG_RESP	1784831	n/a	LTP202	ltpFR	1	6	-1	FIREMAN	569	1	n/a	-1	n/a	n/a	n/a	n/a	n/a
3571.0	n/a	RECOG_CONF	1785500	n/a	LTP202	ltpFR	1	6	-1	FIREMAN	569	n/a	5	-1	n/a	n/a	n/a	n/a	n/a
3572.392	n/a	RECOG_TARGET	1786196	n/a	LTP202	ltpFR	1	6	0	MOUNTAIN	924	1	5	1	n/a	n/a	n/a	n/a	n/a
3573.024	n/a	RECOG_RESP	1786512	n/a	LTP202	ltpFR	1	6	0	MOUNTAIN	924	1	n/a	1	n/a	n/a	n/a	n/a	n/a
3574.174	n/a	RECOG_CONF	1787087	n/a	LTP202	ltpFR	1	6	0	MOUNTAIN	924	n/a	5	1	n/a	n/a	n/a	n/a	n/a
3575.768	n/a	RECOG_TARGET	1787884	n/a	LTP202	ltpFR	1	6	1	GUARD	667	1	4	1	n/a	n/a	n/a	n/a	n/a
3576.64	n/a	RECOG_RESP	1788320	n/a	LTP202	ltpFR	1	6	1	GUARD	667	1	n/a	1	n/a	n/a	n/a	n/a	n/a
3577.836	n/a	RECOG_CONF	1788918	n/a	LTP202	ltpFR	1	6	1	GUARD	667	n/a	4	1	n/a	n/a	n/a	n/a	n/a
3579.498	n/a	RECOG_TARGET	1789749	n/a	LTP202	ltpFR	1	6	1	ASSOCIATE	49	1	4	1	n/a	n/a	n/a	n/a	n/a
3580.272	n/a	RECOG_RESP	1790136	n/a	LTP202	ltpFR	1	6	1	ASSOCIATE	49	1	n/a	1	n/a	n/a	n/a	n/a	n/a
3581.738	n/a	RECOG_CONF	1790869	n/a	LTP202	ltpFR	1	6	1	ASSOCIATE	49	n/a	4	1	n/a	n/a	n/a	n/a	n/a
3583.41	n/a	RECOG_TARGET	1791705	n/a	LTP202	ltpFR	1	6	0	ROPE	1211	1	4	0	n/a	n/a	n/a	n/a	n/a
3584.282	n/a	RECOG_RESP	1792141	n/a	LTP202	ltpFR	1	6	0	ROPE	1211	1	n/a	0	n/a	n/a	n/a	n/a	n/a
3585.428	n/a	RECOG_CONF	1792714	n/a	LTP202	ltpFR	1	6	0	ROPE	1211	n/a	4	0	n/a	n/a	n/a	n/a	n/a
3587.154	n/a	RECOG_TARGET	1793577	n/a	LTP202	ltpFR	1	6	0	EDITORIAL	517	1	5	0	n/a	n/a	n/a	n/a	n/a
3587.856	n/a	RECOG_RESP	1793928	n/a	LTP202	ltpFR	1	6	0	EDITORIAL	517	1	n/a	0	n/a	n/a	n/a	n/a	n/a
3588.996	n/a	RECOG_CONF	1794498	n/a	LTP202	ltpFR	1	6	0	EDITORIAL	517	n/a	5	0	n/a	n/a	n/a	n/a	n/a
3590.698	n/a	RECOG_LURE	1795349	n/a	LTP202	ltpFR	1	6	n/a	LIPSTICK	829	0	5	n/a	n/a	n/a	n/a	n/a	n/a
3591.546	n/a	RECOG_RESP	1795773	n/a	LTP202	ltpFR	1	6	n/a	LIPSTICK	829	0	n/a	n/a	n/a	n/a	n/a	n/a	n/a
3592.664	n/a	RECOG_CONF	1796332	n/a	LTP202	ltpFR	1	6	n/a	LIPSTICK	829	n/a	5	n/a	n/a	n/a	n/a	n/a	n/a
3594.526	n/a	RECOG_TARGET	1797263	n/a	LTP202	ltpFR	1	6	-1	VEIN	1554	1	5	-1	n/a	n/a	n/a	n/a	n/a
3595.426	n/a	RECOG_RESP	1797713	n/a	LTP202	ltpFR	1	6	-1	VEIN	1554	1	n/a	-1	n/a	n/a	n/a	n/a	n/a
3596.674	n/a	RECOG_CONF	1798337	n/a	LTP202	ltpFR	1	6	-1	VEIN	1554	n/a	5	-1	n/a	n/a	n/a	n/a	n/a
3598.304	n/a	RECOG_TARGET	1799152	n/a	LTP202	ltpFR	1	6	-1	DINNER	468	1	5	-1	n/a	n/a	n/a	n/a	n/a
3599.044	n/a	RECOG_RESP	1799522	n/a	LTP202	ltpFR	1	6	-1	DINNER	468	1	n/a	-1	n/a	n/a	n/a	n/a	n/a
3600.138	n/a	RECOG_CONF	1800069	n/a	LTP202	ltpFR	1	6	-1	DINNER	468	n/a	5	-1	n/a	n/a	n/a	n/a	n/a
3601.864	n/a	RECOG_LURE	1800932	n/a	LTP202	ltpFR	1	6	n/a	FLIPPER	580	0	5	n/a	n/a	n/a	n/a	n/a	n/a
3602.586	n/a	RECOG_RESP	1801293	n/a	LTP202	ltpFR	1	6	n/a	FLIPPER	580	0	n/a	n/a	n/a	n/a	n/a	n/a	n/a
3603.766	n/a	RECOG_CONF	1801883	n/a	LTP202	ltpFR	1	6	n/a	FLIPPER	580	n/a	5	n/a	n/a	n/a	n/a	n/a	n/a
3605.41	n/a	RECOG_LURE	1802705	n/a	LTP202	ltpFR	1	6	n/a	WIDOW	1608	0	5	n/a	n/a	n/a	n/a	n/a	n/a
3606.362	n/a	RECOG_RESP	1803181	n/a	LTP202	ltpFR	1	6	n/a	WIDOW	1608	0	n/a	n/a	n/a	n/a	n/a	n/a	n/a
3607.518	n/a	RECOG_CONF	1803759	n/a	LTP202	ltpFR	1	6	n/a	WIDOW	1608	n/a	5	n/a	n/a	n/a	n/a	n/a	n/a
3609.388	n/a	RECOG_TARGET	1804694	n/a	LTP202	ltpFR	1	6	1	COCKTAIL	338	0	2	0	n/a	n/a	n/a	n/a	n/a
3610.488	n/a	RECOG_RESP	1805244	n/a	LTP202	ltpFR	1	6	1	COCKTAIL	338	0	n/a	0	n/a	n/a	n/a	n/a	n/a
3612.914	n/a	RECOG_CONF	1806457	n/a	LTP202	ltpFR	1	6	1	COCKTAIL	338	n/a	2	0	n/a	n/a	n/a	n/a	n/a
3614.578	n/a	RECOG_LURE	1807289	n/a	LTP202	ltpFR	1	6	n/a	SPINE	1353	0	3	n/a	n/a	n/a	n/a	n/a	n/a
3615.752	n/a	RECOG_RESP	1807876	n/a	LTP202	ltpFR	1	6	n/a	SPINE	1353	0	n/a	n/a	n/a	n/a	n/a	n/a	n/a
3617.138	n/a	RECOG_CONF	1808569	n/a	LTP202	ltpFR	1	6	n/a	SPINE	1353	n/a	3	n/a	n/a	n/a	n/a	n/a	n/a
3621.824	n/a	REC_START	1810912	n/a	LTP202	ltpFR	1	7	n/a	n/a	n/a	n/a	n/a	n/a	n/a	n/a	n/a	n/a	n/a
3621.852	n/a	RECOG_LURE	1810926	n/a	LTP202	ltpFR	1	7	n/a	FLEET	578	0	4	n/a	n/a	n/a	n/a	n/a	n/a
3622.636	n/a	RECOG_RESP	1811318	n/a	LTP202	ltpFR	1	7	n/a	FLEET	578	0	n/a	n/a	n/a	n/a	n/a	n/a	n/a
3623.874	n/a	RECOG_CONF	1811937	n/a	LTP202	ltpFR	1	7	n/a	FLEET	578	n/a	4	n/a	n/a	n/a	n/a	n/a	n/a
3625.396	n/a	RECOG_LURE	1812698	n/a	LTP202	ltpFR	1	7	n/a	OATMEAL	967	0	4	n/a	n/a	n/a	n/a	n/a	n/a
3626.518	n/a	RECOG_RESP	1813259	n/a	LTP202	ltpFR	1	7	n/a	OATMEAL	967	0	n/a	n/a	n/a	n/a	n/a	n/a	n/a
