mstime	trial_type	stim_file	subject	experiment	session	trial	item_name	item_num	list	answer	test_x	test_y	test_z
0	SESS_START	n/a	LTP353	ltpFR2	1	n/a	n/a	n/a	n/a	n/a	0	0	0
25308	START	n/a	LTP353	ltpFR2	1	n/a	n/a	n/a	-1	n/a	n/a	n/a	n/a
25339	PROB	n/a	LTP353	ltpFR2	1	n/a	n/a	n/a	-1	17	9	7	1
30170	PROB	n/a	LTP353	ltpFR2	1	n/a	n/a	n/a	-1	16	7	7	2
32603	PROB	n/a	LTP353	ltpFR2	1	n/a	n/a	n/a	-1	22	7	7	8
37308	STOP	n/a	LTP353	ltpFR2	1	n/a	n/a	n/a	-1	n/a	n/a	n/a	n/a
93008	WORD	wordpools/wasnorm_wordpool_576.txt	LTP353	ltpFR2	1	1	GALLON	618	n/a	n/a	0	0	0
95457	WORD	wordpools/wasnorm_wordpool_576.txt	LTP353	ltpFR2	1	1	DRUG	501	n/a	n/a	0	0	0
98239	WORD	wordpools/wasnorm_wordpool_576.txt	LTP353	ltpFR2	1	1	FOREHEAD	592	n/a	n/a	0	0	0
100905	WORD	wordpools/wasnorm_wordpool_576.txt	LTP353	ltpFR2	1	1	SHOVEL	1295	n/a	n/a	0	0	0
103403	WORD	wordpools/wasnorm_wordpool_576.txt	LTP353	ltpFR2	1	1	BOARD	143	n/a	n/a	0	0	0
105853	WORD	wordpools/wasnorm_wordpool_576.txt	LTP353	ltpFR2	1	1	STAKE	1368	n/a	n/a	0	0	0
108568	WORD	wordpools/wasnorm_wordpool_576.txt	LTP353	ltpFR2	1	1	TURNIP	1521	n/a	n/a	0	0	0
111350	WORD	wordpools/wasnorm_wordpool_576.txt	LTP353	ltpFR2	1	1	HORSE	719	n/a	n/a	0	0	0
114082	WORD	wordpools/wasnorm_wordpool_576.txt	LTP353	ltpFR2	1	1	TABLET	1427	n/a	n/a	0	0	0
116831	WORD	wordpools/wasnorm_wordpool_576.txt	LTP353	ltpFR2	1	1	ITEM	746	n/a	n/a	0	0	0
119496	WORD	wordpools/wasnorm_wordpool_576.txt	LTP353	ltpFR2	1	1	PUDDING	1139	n/a	n/a	0	0	0
122028	WORD	wordpools/wasnorm_wordpool_576.txt	LTP353	ltpFR2	1	1	DAUGHTER	442	n/a	n/a	0	0	0
124461	WORD	wordpools/wasnorm_wordpool_576.txt	LTP353	ltpFR2	1	1	POPCORN	1104	n/a	n/a	0	0	0
126943	WORD	wordpools/wasnorm_wordpool_576.txt	LTP353	ltpFR2	1	1	FILM	565	n/a	n/a	0	0	0
129492	WORD	wordpools/wasnorm_wordpool_576.txt	LTP353	ltpFR2	1	1	STOVE	1388	n/a	n/a	0	0	0
131991	WORD	wordpools/wasnorm_wordpool_576.txt	LTP353	ltpFR2	1	1	NIGHTGOWN	953	n/a	n/a	0	0	0
134657	WORD	wordpools/wasnorm_wordpool_576.txt	LTP353	ltpFR2	1	1	WITNESS	1618	n/a	n/a	0	0	0
137338	WORD	wordpools/wasnorm_wordpool_576.txt	LTP353	ltpFR2	1	1	SPOUSE	1358	n/a	n/a	0	0	0
139887	WORD	wordpools/wasnorm_wordpool_576.txt	LTP353	ltpFR2	1	1	LIVER	833	n/a	n/a	0	0	0
142703	WORD	wordpools/wasnorm_wordpool_576.txt	LTP353	ltpFR2	1	1	IDOL	733	n/a	n/a	0	0	0
145468	WORD	wordpools/wasnorm_wordpool_576.txt	LTP353	ltpFR2	1	1	PARTNER	1017	n/a	n/a	0	0	0
147967	WORD	wordpools/wasnorm_wordpool_576.txt	LTP353	ltpFR2	1	1	BOYFRIEND	162	n/a	n/a	0	0	0
150416	WORD	wordpools/wasnorm_wordpool_576.txt	LTP353	ltpFR2	1	1	JURY	766	n/a	n/a	0	0	0
153081	WORD	wordpools/wasnorm_wordpool_576.txt	LTP353	ltpFR2	1	1	WHISKERS	1605	n/a	n/a	0	0	0
154698	START	n/a	LTP353	ltpFR2	1	n/a	n/a	n/a	1	n/a	n/a	n/a	n/a
155880	DISTRACTOR	n/a	LTP353	ltpFR2	1	1	n/a	n/a	n/a	n/a	0	0	0
155897	PROB	n/a	LTP353	ltpFR2	1	n/a	n/a	n/a	1	10	5	2	3
159095	PROB	n/a	LTP353	ltpFR2	1	n/a	n/a	n/a	1	25	8	8	9
162527	PROB	n/a	LTP353	ltpFR2	1	n/a	n/a	n/a	1	22	6	8	8
165192	PROB	n/a	LTP353	ltpFR2	1	n/a	n/a	n/a	1	15	4	6	5
166709	PROB	n/a	LTP353	ltpFR2	1	n/a	n/a	n/a	1	19	8	9	2
168224	PROB	n/a	LTP353	ltpFR2	1	n/a	n/a	n/a	1	10	5	3	2
169890	PROB	n/a	LTP353	ltpFR2	1	n/a	n/a	n/a	1	13	5	7	1
171939	PROB	n/a	LTP353	ltpFR2	1	n/a	n/a	n/a	1	11	1	9	1
173355	PROB	n/a	LTP353	ltpFR2	1	n/a	n/a	n/a	1	15	4	6	5
174689	PROB	n/a	LTP353	ltpFR2	1	n/a	n/a	n/a	1	19	9	3	7
176887	PROB	n/a	LTP353	ltpFR2	1	n/a	n/a	n/a	1	11	4	6	1
178423	STOP	n/a	LTP353	ltpFR2	1	n/a	n/a	n/a	1	n/a	n/a	n/a	n/a
180604	REC_START	n/a	LTP353	ltpFR2	1	1	n/a	n/a	n/a	n/a	0	0	0
181232	REC_WORD	wordpools/wasnorm_wordpool_576.txt	LTP353	ltpFR2	1	1	BOARD	143	n/a	n/a	0	0	0
182221	REC_WORD	wordpools/wasnorm_wordpool_576.txt	LTP353	ltpFR2	1	1	WHISKERS	1605	n/a	n/a	0	0	0
183381	REC_WORD	wordpools/wasnorm_wordpool_576.txt	LTP353	ltpFR2	1	1	TABLET	1427	n/a	n/a	0	0	0
184552	REC_WORD	wordpools/wasnorm_wordpool_576.txt	LTP353	ltpFR2	1	1	TURNIP	1521	n/a	n/a	0	0	0
185834	REC_WORD	wordpools/wasnorm_wordpool_576.txt	LTP353	ltpFR2	1	1	ITEM	746	n/a	n/a	0	0	0
186856	REC_WORD	wordpools/wasnorm_wordpool_576.txt	LTP353	ltpFR2	1	1	FOREHEAD	592	n/a	n/a	0	0	0
188168	REC_WORD	wordpools/wasnorm_wordpool_576.txt	LTP353	ltpFR2	1	1	SHOVEL	1295	n/a	n/a	0	0	0
189847	REC_WORD	wordpools/wasnorm_wordpool_576.txt	LTP353	ltpFR2	1	1	BOYFRIEND	162	n/a	n/a	0	0	0
191467	REC_WORD	wordpools/wasnorm_wordpool_576.txt	LTP353	ltpFR2	1	1	ITEM	746	n/a	n/a	0	0	0
193067	REC_WORD	wordpools/wasnorm_wordpool_576.txt	LTP353	ltpFR2	1	1	STOVE	1388	n/a	n/a	0	0	0
194589	REC_WORD	wordpools/wasnorm_wordpool_576.txt	LTP353	ltpFR2	1	1	WITNESS	1618	n/a	n/a	0	0	0
197697	REC_WORD	wordpools/wasnorm_wordpool_576.txt	LTP353	ltpFR2	1	1	NIGHTGOWN	953	n/a	n/a	0	0	0
202277	REC_WORD	wordpools/wasnorm_wordpool_576.txt	LTP353	ltpFR2	1	1	JURY	766	n/a	n/a	0	0	0
271044	DISTRACTOR	n/a	LTP353	ltpFR2	1	2	n/a	n/a	n/a	n/a	0	0	0
271045	START	n/a	LTP353	ltpFR2	1	n/a	n/a	n/a	2	n/a	n/a	n/a	n/a
271061	PROB	n/a	LTP353	ltpFR2	1	n/a	n/a	n/a	2	16	5	6	5
274793	PROB	n/a	LTP353	ltpFR2	1	n/a	n/a	n/a	2	21	9	7	5
276808	PROB	n/a	LTP353	ltpFR2	1	n/a	n/a	n/a	2	21	8	6	7
278891	PROB	n/a	LTP353	ltpFR2	1	n/a	n/a	n/a	2	15	5	7	3
280641	PROB	n/a	LTP353	ltpFR2	1	n/a	n/a	n/a	2	20	8	6	6
282590	PROB	n/a	LTP353	ltpFR2	1	n/a	n/a	n/a	2	14	8	4	2
284572	PROB	n/a	LTP353	ltpFR2	1	n/a	n/a	n/a	2	10	4	4	2
286071	PROB	n/a	LTP353	ltpFR2	1	n/a	n/a	n/a	2	19	5	7	7
288220	PROB	n/a	LTP353	ltpFR2	1	n/a	n/a	n/a	2	14	2	4	8
291802	PROB	n/a	LTP353	ltpFR2	1	n/a	n/a	n/a	2	15	7	5	3
293018	PROB	n/a	LTP353	ltpFR2	1	n/a	n/a	n/a	2	22	5	9	8
294851	STOP	n/a	LTP353	ltpFR2	1	n/a	n/a	n/a	2	n/a	n/a	n/a	n/a
296200	WORD	wordpools/wasnorm_wordpool_576.txt	LTP353	ltpFR2	1	2	SWAMP	1416	n/a	n/a	0	0	0
298666	WORD	wordpools/wasnorm_wordpool_576.txt	LTP353	ltpFR2	1	2	SALAD	1224	n/a	n/a	0	0	0
301431	WORD	wordpools/wasnorm_wordpool_576.txt	LTP353	ltpFR2	1	2	SLIME	1327	n/a	n/a	0	0	0
304163	WORD	wordpools/wasnorm_wordpool_576.txt	LTP353	ltpFR2	1	2	THREAD	1460	n/a	n/a	0	0	0
306812	WORD	wordpools/wasnorm_wordpool_576.txt	LTP353	ltpFR2	1	2	MONSTER	912	n/a	n/a	0	0	0
309560	WORD	wordpools/wasnorm_wordpool_576.txt	LTP353	ltpFR2	1	2	RUST	1219	n/a	n/a	0	0	0
312243	WORD	wordpools/wasnorm_wordpool_576.txt	LTP353	ltpFR2	1	2	RATTLE	1170	n/a	n/a	0	0	0
314941	WORD	wordpools/wasnorm_wordpool_576.txt	LTP353	ltpFR2	1	2	GLASS	639	n/a	n/a	0	0	0
317608	WORD	wordpools/wasnorm_wordpool_576.txt	LTP353	ltpFR2	1	2	BROOK	177	n/a	n/a	0	0	0
320239	WORD	wordpools/wasnorm_wordpool_576.txt	LTP353	ltpFR2	1	2	COURSE	390	n/a	n/a	0	0	0
322871	WORD	wordpools/wasnorm_wordpool_576.txt	LTP353	ltpFR2	1	2	DANCER	437	n/a	n/a	0	0	0
325387	WORD	wordpools/wasnorm_wordpool_576.txt	LTP353	ltpFR2	1	2	HEADBAND	696	n/a	n/a	0	0	0
327969	WORD	wordpools/wasnorm_wordpool_576.txt	LTP353	ltpFR2	1	2	TRANSPLANT	1496	n/a	n/a	0	0	0
330734	WORD	wordpools/wasnorm_wordpool_576.txt	LTP353	ltpFR2	1	2	CHIPMUNK	304	n/a	n/a	0	0	0
333366	WORD	wordpools/wasnorm_wordpool_576.txt	LTP353	ltpFR2	1	2	TRIBE	1505	n/a	n/a	0	0	0
336015	WORD	wordpools/wasnorm_wordpool_576.txt	LTP353	ltpFR2	1	2	LAKE	796	n/a	n/a	0	0	0
338497	WORD	wordpools/wasnorm_wordpool_576.txt	LTP353	ltpFR2	1	2	WINDOW	1611	n/a	n/a	0	0	0
341013	WORD	wordpools/wasnorm_wordpool_576.txt	LTP353	ltpFR2	1	2	CURTAIN	427	n/a	n/a	0	0	0
343445	WORD	wordpools/wasnorm_wordpool_576.txt	LTP353	ltpFR2	1	2	CHEMIST	292	n/a	n/a	0	0	0
345927	WORD	wordpools/wasnorm_wordpool_576.txt	LTP353	ltpFR2	1	2	HERO	706	n/a	n/a	0	0	0
348710	WORD	wordpools/wasnorm_wordpool_576.txt	LTP353	ltpFR2	1	2	STREAM	1392	n/a	n/a	0	0	0
351225	WORD	wordpools/wasnorm_wordpool_576.txt	LTP353	ltpFR2	1	2	FOX	598	n/a	n/a	0	0	0
353907	WORD	wordpools/wasnorm_wordpool_576.txt	LTP353	ltpFR2	1	2	PIGMENT	1066	n/a	n/a	0	0	0
356673	WORD	wordpools/wasnorm_wordpool_576.txt	LTP353	ltpFR2	1	2	FIDDLE	561	n/a	n/a	0	0	0
358289	START	n/a	LTP353	ltpFR2	1	n/a	n/a	n/a	3	n/a	n/a	n/a	n/a
359277	DISTRACTOR	n/a	LTP353	ltpFR2	1	2	n/a	n/a	n/a	n/a	0	0	0
359288	PROB	n/a	LTP353	ltpFR2	1	n/a	n/a	n/a	3	19	9	4	6
361903	PROB	n/a	LTP353	ltpFR2	1	n/a	n/a	n/a	3	19	1	9	9
364319	PROB	n/a	LTP353	ltpFR2	1	n/a	n/a	n/a	3	10	1	6	3
366185	PROB	n/a	LTP353	ltpFR2	1	n/a	n/a	n/a	3	6	1	1	4
368017	PROB	n/a	LTP353	ltpFR2	1	n/a	n/a	n/a	3	17	4	5	8
371650	PROB	n/a	LTP353	ltpFR2	1	n/a	n/a	n/a	3	23	9	7	7
373666	PROB	n/a	LTP353	ltpFR2	1	n/a	n/a	n/a	3	14	7	6	1
375181	PROB	n/a	LTP353	ltpFR2	1	n/a	n/a	n/a	3	17	9	3	5
376714	PROB	n/a	LTP353	ltpFR2	1	n/a	n/a	n/a	3	13	5	4	4
379646	PROB	n/a	LTP353	ltpFR2	1	n/a	n/a	n/a	3	19	5	6	8
381757	STOP	n/a	LTP353	ltpFR2	1	n/a	n/a	n/a	3	n/a	n/a	n/a	n/a
384227	REC_START	n/a	LTP353	ltpFR2	1	2	n/a	n/a	n/a	n/a	0	0	0
384676	REC_WORD	wordpools/wasnorm_wordpool_576.txt	LTP353	ltpFR2	1	2	FOX	598	n/a	n/a	0	0	0
385683	REC_WORD	wordpools/wasnorm_wordpool_576.txt	LTP353	ltpFR2	1	2	FIDDLE	561	n/a	n/a	0	0	0
387180	REC_WORD	wordpools/wasnorm_wordpool_576.txt	LTP353	ltpFR2	1	2	RUST	1219	n/a	n/a	0	0	0
389486	REC_WORD	wordpools/wasnorm_wordpool_576.txt	LTP353	ltpFR2	1	2	RATTLE	1170	n/a	n/a	0	0	0
391156	REC_WORD	wordpools/wasnorm_wordpool_576.txt	LTP353	ltpFR2	1	2	WINDOW	1611	n/a	n/a	0	0	0
395202	REC_WORD	wordpools/wasnorm_wordpool_576.txt	LTP353	ltpFR2	1	2	THREAD	1460	n/a	n/a	0	0	0
399773	REC_WORD	wordpools/wasnorm_wordpool_576.txt	LTP353	ltpFR2	1	2	TRANSPLANT	1496	n/a	n/a	0	0	0
400773	REC_WORD_VV	wordpools/wasnorm_wordpool_576.txt	LTP353	ltpFR2	1	2	<>	-1	n/a	n/a	0	0	0
474670	WORD	wordpools/wasnorm_wordpool_576.txt	LTP353	ltpFR2	1	3	COUCH	386	n/a	n/a	0	0	0
477401	WORD	wordpools/wasnorm_wordpool_576.txt	LTP353	ltpFR2	1	3	WIFE	1609	n/a	n/a	0	0	0
480200	WORD	wordpools/wasnorm_wordpool_576.txt	LTP353	ltpFR2	1	3	BADGE	68	n/a	n/a	0	0	0
482849	WORD	wordpools/wasnorm_wordpool_576.txt	LTP353	ltpFR2	1	3	PEACH	1031	n/a	n/a	0	0	0
485514	WORD	wordpools/wasnorm_wordpool_576.txt	LTP353	ltpFR2	1	3	PADDING	999	n/a	n/a	0	0	0
488213	WORD	wordpools/wasnorm_wordpool_576.txt	LTP353	ltpFR2	1	3	GAZELLE	628	n/a	n/a	0	0	0
490928	WORD	wordpools/wasnorm_wordpool_576.txt	LTP353	ltpFR2	1	3	CAMEL	223	n/a	n/a	0	0	0
493427	WORD	wordpools/wasnorm_wordpool_576.txt	LTP353	ltpFR2	1	3	MUMMY	932	n/a	n/a	0	0	0
496126	WORD	wordpools/wasnorm_wordpool_576.txt	LTP353	ltpFR2	1	3	EGYPT	519	n/a	n/a	0	0	0
498609	WORD	wordpools/wasnorm_wordpool_576.txt	LTP353	ltpFR2	1	3	CLOUD	328	n/a	n/a	0	0	0
501390	WORD	wordpools/wasnorm_wordpool_576.txt	LTP353	ltpFR2	1	3	SMOG	1330	n/a	n/a	0	0	0
504089	WORD	wordpools/wasnorm_wordpool_576.txt	LTP353	ltpFR2	1	3	HOSTESS	723	n/a	n/a	0	0	0
506656	WORD	wordpools/wasnorm_wordpool_576.txt	LTP353	ltpFR2	1	3	SPACE	1345	n/a	n/a	0	0	0
509120	WORD	wordpools/wasnorm_wordpool_576.txt	LTP353	ltpFR2	1	3	BREAST	171	n/a	n/a	0	0	0
511769	WORD	wordpools/wasnorm_wordpool_576.txt	LTP353	ltpFR2	1	3	SUSPECT	1415	n/a	n/a	0	0	0
514384	WORD	wordpools/wasnorm_wordpool_576.txt	LTP353	ltpFR2	1	3	BANKER	84	n/a	n/a	0	0	0
516950	WORD	wordpools/wasnorm_wordpool_576.txt	LTP353	ltpFR2	1	3	BUCKET	184	n/a	n/a	0	0	0
519716	WORD	wordpools/wasnorm_wordpool_576.txt	LTP353	ltpFR2	1	3	TURKEY	1520	n/a	n/a	0	0	0
522397	WORD	wordpools/wasnorm_wordpool_576.txt	LTP353	ltpFR2	1	3	LEOPARD	812	n/a	n/a	0	0	0
524963	WORD	wordpools/wasnorm_wordpool_576.txt	LTP353	ltpFR2	1	3	DIVER	476	n/a	n/a	0	0	0
527529	WORD	wordpools/wasnorm_wordpool_576.txt	LTP353	ltpFR2	1	3	AGENT	10	n/a	n/a	0	0	0
530177	WORD	wordpools/wasnorm_wordpool_576.txt	LTP353	ltpFR2	1	3	DENIM	446	n/a	n/a	0	0	0
532677	WORD	wordpools/wasnorm_wordpool_576.txt	LTP353	ltpFR2	1	3	BUG	187	n/a	n/a	0	0	0
535258	WORD	wordpools/wasnorm_wordpool_576.txt	LTP353	ltpFR2	1	3	STOMACH	1384	n/a	n/a	0	0	0
536875	START	n/a	LTP353	ltpFR2	1	n/a	n/a	n/a	4	n/a	n/a	n/a	n/a
537825	DISTRACTOR	n/a	LTP353	ltpFR2	1	3	n/a	n/a	n/a	n/a	0	0	0
537841	PROB	n/a	LTP353	ltpFR2	1	n/a	n/a	n/a	4	10	1	6	3
540939	PROB	n/a	LTP353	ltpFR2	1	n/a	n/a	n/a	4	6	1	3	2
543072	PROB	n/a	LTP353	ltpFR2	1	n/a	n/a	n/a	4	10	1	3	6
544737	PROB	n/a	LTP353	ltpFR2	1	n/a	n/a	n/a	4	16	7	7	2
546137	PROB	n/a	LTP353	ltpFR2	1	n/a	n/a	n/a	4	9	1	7	1
547553	PROB	n/a	LTP353	ltpFR2	1	n/a	n/a	n/a	4	22	8	9	5
549385	PROB	n/a	LTP353	ltpFR2	1	n/a	n/a	n/a	4	10	6	3	1
551768	PROB	n/a	LTP353	ltpFR2	1	n/a	n/a	n/a	4	2	6	9	7
556683	PROB	n/a	LTP353	ltpFR2	1	n/a	n/a	n/a	4	22	9	4	9
560035	STOP	n/a	LTP353	ltpFR2	1	n/a	n/a	n/a	4	n/a	n/a	n/a	n/a
562664	REC_START	n/a	LTP353	ltpFR2	1	3	n/a	n/a	n/a	n/a	0	0	0
563037	REC_WORD	wordpools/wasnorm_wordpool_576.txt	LTP353	ltpFR2	1	3	STOMACH	1384	n/a	n/a	0	0	0
665584	DISTRACTOR	n/a	LTP353	ltpFR2	1	4	n/a	n/a	n/a	n/a	0	0	0
665584	START	n/a	LTP353	ltpFR2	1	n/a	n/a	n/a	5	n/a	n/a	n/a	n/a
665601	PROB	n/a	LTP353	ltpFR2	1	n/a	n/a	n/a	5	16	5	9	2
667583	PROB	n/a	LTP353	ltpFR2	1	n/a	n/a	n/a	5	8	4	2	2
669682	PROB	n/a	LTP353	ltpFR2	1	n/a	n/a	n/a	5	18	9	1	8
671380	PROB	n/a	LTP353	ltpFR2	1	n/a	n/a	n/a	5	23	9	5	9
673796	PROB	n/a	LTP353	ltpFR2	1	n/a	n/a	n/a	5	6	3	2	1
675229	PROB	n/a	LTP353	ltpFR2	1	n/a	n/a	n/a	5	19	3	8	8
676978	PROB	n/a	LTP353	ltpFR2	1	n/a	n/a	n/a	5	21	9	3	9
678760	PROB	n/a	LTP353	ltpFR2	1	n/a	n/a	n/a	5	7	5	1	1
679943	PROB	n/a	LTP353	ltpFR2	1	n/a	n/a	n/a	5	19	7	6	4
682925	PROB	n/a	LTP353	ltpFR2	1	n/a	n/a	n/a	5	7	4	1	2
684774	PROB	n/a	LTP353	ltpFR2	1	n/a	n/a	n/a	5	20	6	7	7
686740	PROB	n/a	LTP353	ltpFR2	1	n/a	n/a	n/a	5	19	8	2	9
688487	STOP	n/a	LTP353	ltpFR2	1	n/a	n/a	n/a	5	n/a	n/a	n/a	n/a
690522	WORD	wordpools/wasnorm_wordpool_576.txt	LTP353	ltpFR2	1	4	TWEEZERS	1526	n/a	n/a	0	0	0
693137	WORD	wordpools/wasnorm_wordpool_576.txt	LTP353	ltpFR2	1	4	LIGHTNING	820	n/a	n/a	0	0	0
695919	WORD	wordpools/wasnorm_wordpool_576.txt	LTP353	ltpFR2	1	4	EMPIRE	530	n/a	n/a	0	0	0
698385	WORD	wordpools/wasnorm_wordpool_576.txt	LTP353	ltpFR2	1	4	BISON	131	n/a	n/a	0	0	0
701183	WORD	wordpools/wasnorm_wordpool_576.txt	LTP353	ltpFR2	1	4	POLICE	1098	n/a	n/a	0	0	0
703949	WORD	wordpools/wasnorm_wordpool_576.txt	LTP353	ltpFR2	1	4	BELLY	119	n/a	n/a	0	0	0
706682	WORD	wordpools/wasnorm_wordpool_576.txt	LTP353	ltpFR2	1	4	SCOTCH	1251	n/a	n/a	0	0	0
709363	WORD	wordpools/wasnorm_wordpool_576.txt	LTP353	ltpFR2	1	4	COD	340	n/a	n/a	0	0	0
712079	WORD	wordpools/wasnorm_wordpool_576.txt	LTP353	ltpFR2	1	4	YOLK	1633	n/a	n/a	0	0	0
714544	WORD	wordpools/wasnorm_wordpool_576.txt	LTP353	ltpFR2	1	4	BEAST	108	n/a	n/a	0	0	0
717243	WORD	wordpools/wasnorm_wordpool_576.txt	LTP353	ltpFR2	1	4	BODY	145	n/a	n/a	0	0	0
719825	WORD	wordpools/wasnorm_wordpool_576.txt	LTP353	ltpFR2	1	4	DOLPHIN	483	n/a	n/a	0	0	0
722407	WORD	wordpools/wasnorm_wordpool_576.txt	LTP353	ltpFR2	1	4	SUPPER	1411	n/a	n/a	0	0	0
724923	WORD	wordpools/wasnorm_wordpool_576.txt	LTP353	ltpFR2	1	4	PICNIC	1060	n/a	n/a	0	0	0
727505	WORD	wordpools/wasnorm_wordpool_576.txt	LTP353	ltpFR2	1	4	WASHER	1592	n/a	n/a	0	0	0
730254	WORD	wordpools/wasnorm_wordpool_576.txt	LTP353	ltpFR2	1	4	LOVER	846	n/a	n/a	0	0	0
733036	WORD	wordpools/wasnorm_wordpool_576.txt	LTP353	ltpFR2	1	4	WOMAN	1620	n/a	n/a	0	0	0
735485	WORD	wordpools/wasnorm_wordpool_576.txt	LTP353	ltpFR2	1	4	APRON	35	n/a	n/a	0	0	0
738133	WORD	wordpools/wasnorm_wordpool_576.txt	LTP353	ltpFR2	1	4	COOKBOOK	373	n/a	n/a	0	0	0
740832	WORD	wordpools/wasnorm_wordpool_576.txt	LTP353	ltpFR2	1	4	CABIN	211	n/a	n/a	0	0	0
743632	WORD	wordpools/wasnorm_wordpool_576.txt	LTP353	ltpFR2	1	4	MACHINE	852	n/a	n/a	0	0	0
746146	WORD	wordpools/wasnorm_wordpool_576.txt	LTP353	ltpFR2	1	4	BLOCKADE	137	n/a	n/a	0	0	0
748696	WORD	wordpools/wasnorm_wordpool_576.txt	LTP353	ltpFR2	1	4	RIVER	1194	n/a	n/a	0	0	0
751461	WORD	wordpools/wasnorm_wordpool_576.txt	LTP353	ltpFR2	1	4	FOOTBALL	591	n/a	n/a	0	0	0
753077	START	n/a	LTP353	ltpFR2	1	n/a	n/a	n/a	6	n/a	n/a	n/a	n/a
754039	DISTRACTOR	n/a	LTP353	ltpFR2	1	4	n/a	n/a	n/a	n/a	0	0	0
754043	PROB	n/a	LTP353	ltpFR2	1	n/a	n/a	n/a	6	13	8	2	3
755643	PROB	n/a	LTP353	ltpFR2	1	n/a	n/a	n/a	6	25	7	9	9
760724	PROB	n/a	LTP353	ltpFR2	1	n/a	n/a	n/a	6	14	3	9	1
762472	PROB	n/a	LTP353	ltpFR2	1	n/a	n/a	n/a	6	18	7	3	8
764656	PROB	n/a	LTP353	ltpFR2	1	n/a	n/a	n/a	6	15	6	4	5
766137	PROB	n/a	LTP353	ltpFR2	1	n/a	n/a	n/a	6	16	3	9	4
767787	PROB	n/a	LTP353	ltpFR2	1	n/a	n/a	n/a	6	15	3	4	8
770219	PROB	n/a	LTP353	ltpFR2	1	n/a	n/a	n/a	6	9	1	3	5
771818	PROB	n/a	LTP353	ltpFR2	1	n/a	n/a	n/a	6	19	8	6	5
773434	PROB	n/a	LTP353	ltpFR2	1	n/a	n/a	n/a	6	16	9	1	6
774833	PROB	n/a	LTP353	ltpFR2	1	n/a	n/a	n/a	6	10	6	3	1
776619	STOP	n/a	LTP353	ltpFR2	1	n/a	n/a	n/a	6	n/a	n/a	n/a	n/a
778865	REC_START	n/a	LTP353	ltpFR2	1	4	n/a	n/a	n/a	n/a	0	0	0
780432	REC_WORD	wordpools/wasnorm_wordpool_576.txt	LTP353	ltpFR2	1	4	LOVER	846	n/a	n/a	0	0	0
781780	REC_WORD	wordpools/wasnorm_wordpool_576.txt	LTP353	ltpFR2	1	4	WOMAN	1620	n/a	n/a	0	0	0
783029	REC_WORD	wordpools/wasnorm_wordpool_576.txt	LTP353	ltpFR2	1	4	APRON	35	n/a	n/a	0	0	0
784203	REC_WORD	wordpools/wasnorm_wordpool_576.txt	LTP353	ltpFR2	1	4	CABIN	211	n/a	n/a	0	0	0
785476	REC_WORD	wordpools/wasnorm_wordpool_576.txt	LTP353	ltpFR2	1	4	RIVER	1194	n/a	n/a	0	0	0
786574	REC_WORD	wordpools/wasnorm_wordpool_576.txt	LTP353	ltpFR2	1	4	BLOCKADE	137	n/a	n/a	0	0	0
788119	REC_WORD	wordpools/wasnorm_wordpool_576.txt	LTP353	ltpFR2	1	4	EMPIRE	530	n/a	n/a	0	0	0
791499	REC_WORD	wordpools/wasnorm_wordpool_576.txt	LTP353	ltpFR2	1	4	COOKBOOK	373	n/a	n/a	0	0	0
792818	REC_WORD	wordpools/wasnorm_wordpool_576.txt	LTP353	ltpFR2	1	4	FOOTBALL	591	n/a	n/a	0	0	0
1003547	WORD	wordpools/wasnorm_wordpool_576.txt	LTP353	ltpFR2	1	5	COOK	372	n/a	n/a	0	0	0
1006312	WORD	wordpools/wasnorm_wordpool_576.txt	LTP353	ltpFR2	1	5	QUAIL	1147	n/a	n/a	0	0	0
1008811	WORD	wordpools/wasnorm_wordpool_576.txt	LTP353	ltpFR2	1	5	HAND	683	n/a	n/a	0	0	0
1011327	WORD	wordpools/wasnorm_wordpool_576.txt	LTP353	ltpFR2	1	5	WRIST	1626	n/a	n/a	0	0	0
1014009	WORD	wordpools/wasnorm_wordpool_576.txt	LTP353	ltpFR2	1	5	CHAUFFEUR	283	n/a	n/a	0	0	0
1016574	WORD	wordpools/wasnorm_wordpool_576.txt	LTP353	ltpFR2	1	5	TREAT	1501	n/a	n/a	0	0	0
1019206	WORD	wordpools/wasnorm_wordpool_576.txt	LTP353	ltpFR2	1	5	VENUS	1557	n/a	n/a	0	0	0
1021872	WORD	wordpools/wasnorm_wordpool_576.txt	LTP353	ltpFR2	1	5	PIGEON	1065	n/a	n/a	0	0	0
1024655	WORD	wordpools/wasnorm_wordpool_576.txt	LTP353	ltpFR2	1	5	CLOTHES	327	n/a	n/a	0	0	0
1027353	WORD	wordpools/wasnorm_wordpool_576.txt	LTP353	ltpFR2	1	5	BLOUSE	139	n/a	n/a	0	0	0
1029818	WORD	wordpools/wasnorm_wordpool_576.txt	LTP353	ltpFR2	1	5	HEART	697	n/a	n/a	0	0	0
1032618	WORD	wordpools/wasnorm_wordpool_576.txt	LTP353	ltpFR2	1	5	SPARROW	1347	n/a	n/a	0	0	0
1035332	WORD	wordpools/wasnorm_wordpool_576.txt	LTP353	ltpFR2	1	5	SCISSORS	1250	n/a	n/a	0	0	0
1037915	WORD	wordpools/wasnorm_wordpool_576.txt	LTP353	ltpFR2	1	5	SUBWAY	1400	n/a	n/a	0	0	0
1040664	WORD	wordpools/wasnorm_wordpool_576.txt	LTP353	ltpFR2	1	5	SODA	1341	n/a	n/a	0	0	0
1043262	WORD	wordpools/wasnorm_wordpool_576.txt	LTP353	ltpFR2	1	5	CARRIAGE	248	n/a	n/a	0	0	0
1046078	WORD	wordpools/wasnorm_wordpool_576.txt	LTP353	ltpFR2	1	5	FLESH	579	n/a	n/a	0	0	0
1048694	WORD	wordpools/wasnorm_wordpool_576.txt	LTP353	ltpFR2	1	5	VALVE	1546	n/a	n/a	0	0	0
1051375	WORD	wordpools/wasnorm_wordpool_576.txt	LTP353	ltpFR2	1	5	MOP	916	n/a	n/a	0	0	0
1054157	WORD	wordpools/wasnorm_wordpool_576.txt	LTP353	ltpFR2	1	5	DUSTPAN	509	n/a	n/a	0	0	0
1056889	WORD	wordpools/wasnorm_wordpool_576.txt	LTP353	ltpFR2	1	5	DONOR	485	n/a	n/a	0	0	0
1059689	WORD	wordpools/wasnorm_wordpool_576.txt	LTP353	ltpFR2	1	5	GRIZZLY	662	n/a	n/a	0	0	0
1062437	WORD	wordpools/wasnorm_wordpool_576.txt	LTP353	ltpFR2	1	5	BANQUET	86	n/a	n/a	0	0	0
1065136	WORD	wordpools/wasnorm_wordpool_576.txt	LTP353	ltpFR2	1	5	BACKBONE	66	n/a	n/a	0	0	0
1066752	START	n/a	LTP353	ltpFR2	1	n/a	n/a	n/a	7	n/a	n/a	n/a	n/a
1067799	DISTRACTOR	n/a	LTP353	ltpFR2	1	5	n/a	n/a	n/a	n/a	0	0	0
1067801	PROB	n/a	LTP353	ltpFR2	1	n/a	n/a	n/a	7	11	3	6	2
1069734	PROB	n/a	LTP353	ltpFR2	1	n/a	n/a	n/a	7	11	3	6	2
1070866	PROB	n/a	LTP353	ltpFR2	1	n/a	n/a	n/a	7	19	5	6	8
1072999	PROB	n/a	LTP353	ltpFR2	1	n/a	n/a	n/a	7	11	2	5	4
1074548	PROB	n/a	LTP353	ltpFR2	1	n/a	n/a	n/a	7	21	7	6	8
1076331	PROB	n/a	LTP353	ltpFR2	1	n/a	n/a	n/a	7	14	4	6	4
1077946	PROB	n/a	LTP353	ltpFR2	1	n/a	n/a	n/a	7	20	7	5	8
1080029	PROB	n/a	LTP353	ltpFR2	1	n/a	n/a	n/a	7	16	3	8	5
1081445	PROB	n/a	LTP353	ltpFR2	1	n/a	n/a	n/a	7	6	1	2	3
1082861	PROB	n/a	LTP353	ltpFR2	1	n/a	n/a	n/a	7	24	8	7	9
1084760	PROB	n/a	LTP353	ltpFR2	1	n/a	n/a	n/a	7	12	1	6	5
1087042	PROB	n/a	LTP353	ltpFR2	1	n/a	n/a	n/a	7	19	9	7	3
1090752	STOP	n/a	LTP353	ltpFR2	1	n/a	n/a	n/a	7	n/a	n/a	n/a	n/a
1092608	REC_START	n/a	LTP353	ltpFR2	1	5	n/a	n/a	n/a	n/a	0	0	0
1093340	REC_WORD	wordpools/wasnorm_wordpool_576.txt	LTP353	ltpFR2	1	5	COOK	372	n/a	n/a	0	0	0
1094513	REC_WORD	wordpools/wasnorm_wordpool_576.txt	LTP353	ltpFR2	1	5	GRIZZLY	662	n/a	n/a	0	0	0
1095592	REC_WORD	wordpools/wasnorm_wordpool_576.txt	LTP353	ltpFR2	1	5	HEART	697	n/a	n/a	0	0	0
1096603	REC_WORD	wordpools/wasnorm_wordpool_576.txt	LTP353	ltpFR2	1	5	BACKBONE	66	n/a	n/a	0	0	0
1097844	REC_WORD	wordpools/wasnorm_wordpool_576.txt	LTP353	ltpFR2	1	5	HAND	683	n/a	n/a	0	0	0
1099146	REC_WORD	wordpools/wasnorm_wordpool_576.txt	LTP353	ltpFR2	1	5	WRIST	1626	n/a	n/a	0	0	0
1100179	REC_WORD	wordpools/wasnorm_wordpool_576.txt	LTP353	ltpFR2	1	5	CLOTHES	327	n/a	n/a	0	0	0
1101411	REC_WORD	wordpools/wasnorm_wordpool_576.txt	LTP353	ltpFR2	1	5	BLOUSE	139	n/a	n/a	0	0	0
1117602	REC_WORD	wordpools/wasnorm_wordpool_576.txt	LTP353	ltpFR2	1	5	DONOR	485	n/a	n/a	0	0	0
1126897	REC_WORD	wordpools/wasnorm_wordpool_576.txt	LTP353	ltpFR2	1	5	QUAIL	1147	n/a	n/a	0	0	0
1128533	REC_WORD	wordpools/wasnorm_wordpool_576.txt	LTP353	ltpFR2	1	5	PIGEON	1065	n/a	n/a	0	0	0
1132129	REC_WORD	wordpools/wasnorm_wordpool_576.txt	LTP353	ltpFR2	1	5	SPARROW	1347	n/a	n/a	0	0	0
1183049	DISTRACTOR	n/a	LTP353	ltpFR2	1	6	n/a	n/a	n/a	n/a	0	0	0
1183049	START	n/a	LTP353	ltpFR2	1	n/a	n/a	n/a	8	n/a	n/a	n/a	n/a
1183066	PROB	n/a	LTP353	ltpFR2	1	n/a	n/a	n/a	8	12	8	3	1
1184699	PROB	n/a	LTP353	ltpFR2	1	n/a	n/a	n/a	8	21	7	7	7
1187530	PROB	n/a	LTP353	ltpFR2	1	n/a	n/a	n/a	8	9	4	4	1
1188813	PROB	n/a	LTP353	ltpFR2	1	n/a	n/a	n/a	8	17	8	6	3
1191778	PROB	n/a	LTP353	ltpFR2	1	n/a	n/a	n/a	8	10	5	2	3
1193411	PROB	n/a	LTP353	ltpFR2	1	n/a	n/a	n/a	8	18	6	9	3
1196460	PROB	n/a	LTP353	ltpFR2	1	n/a	n/a	n/a	8	18	8	5	5
1197809	PROB	n/a	LTP353	ltpFR2	1	n/a	n/a	n/a	8	19	3	9	7
1199858	PROB	n/a	LTP353	ltpFR2	1	n/a	n/a	n/a	8	14	3	6	5
1201507	PROB	n/a	LTP353	ltpFR2	1	n/a	n/a	n/a	8	15	4	4	7
1202907	PROB	n/a	LTP353	ltpFR2	1	n/a	n/a	n/a	8	8	4	3	1
1205784	STOP	n/a	LTP353	ltpFR2	1	n/a	n/a	n/a	8	n/a	n/a	n/a	n/a
1208171	WORD	wordpools/wasnorm_wordpool_576.txt	LTP353	ltpFR2	1	6	CANYON	235	n/a	n/a	0	0	0
1210970	WORD	wordpools/wasnorm_wordpool_576.txt	LTP353	ltpFR2	1	6	TURTLE	1522	n/a	n/a	0	0	0
1213785	WORD	wordpools/wasnorm_wordpool_576.txt	LTP353	ltpFR2	1	6	PEDAL	1037	n/a	n/a	0	0	0
1216501	WORD	wordpools/wasnorm_wordpool_576.txt	LTP353	ltpFR2	1	6	RAFT	1159	n/a	n/a	0	0	0
1219016	WORD	wordpools/wasnorm_wordpool_576.txt	LTP353	ltpFR2	1	6	ISLAND	745	n/a	n/a	0	0	0
1221616	WORD	wordpools/wasnorm_wordpool_576.txt	LTP353	ltpFR2	1	6	TABLE	1426	n/a	n/a	0	0	0
1224330	WORD	wordpools/wasnorm_wordpool_576.txt	LTP353	ltpFR2	1	6	WASP	1593	n/a	n/a	0	0	0
1226946	WORD	wordpools/wasnorm_wordpool_576.txt	LTP353	ltpFR2	1	6	GRAPE	654	n/a	n/a	0	0	0
1229679	WORD	wordpools/wasnorm_wordpool_576.txt	LTP353	ltpFR2	1	6	CLIMBER	323	n/a	n/a	0	0	0
1232493	WORD	wordpools/wasnorm_wordpool_576.txt	LTP353	ltpFR2	1	6	PADDLE	1000	n/a	n/a	0	0	0
1234942	WORD	wordpools/wasnorm_wordpool_576.txt	LTP353	ltpFR2	1	6	FREEZER	604	n/a	n/a	0	0	0
1237408	WORD	wordpools/wasnorm_wordpool_576.txt	LTP353	ltpFR2	1	6	TWISTER	1530	n/a	n/a	0	0	0
1239957	WORD	wordpools/wasnorm_wordpool_576.txt	LTP353	ltpFR2	1	6	BACON	67	n/a	n/a	0	0	0
1242606	WORD	wordpools/wasnorm_wordpool_576.txt	LTP353	ltpFR2	1	6	CLAM	315	n/a	n/a	0	0	0
1245154	WORD	wordpools/wasnorm_wordpool_576.txt	LTP353	ltpFR2	1	6	ULCER	1533	n/a	n/a	0	0	0
1247886	WORD	wordpools/wasnorm_wordpool_576.txt	LTP353	ltpFR2	1	6	HEDGE	699	n/a	n/a	0	0	0
1250319	WORD	wordpools/wasnorm_wordpool_576.txt	LTP353	ltpFR2	1	6	BALLOON	75	n/a	n/a	0	0	0
1253134	WORD	wordpools/wasnorm_wordpool_576.txt	LTP353	ltpFR2	1	6	BARREL	91	n/a	n/a	0	0	0
1255899	WORD	wordpools/wasnorm_wordpool_576.txt	LTP353	ltpFR2	1	6	PUDDLE	1140	n/a	n/a	0	0	0
1258682	WORD	wordpools/wasnorm_wordpool_576.txt	LTP353	ltpFR2	1	6	MILDEW	893	n/a	n/a	0	0	0
1261397	WORD	wordpools/wasnorm_wordpool_576.txt	LTP353	ltpFR2	1	6	PERFUME	1049	n/a	n/a	0	0	0
1263979	WORD	wordpools/wasnorm_wordpool_576.txt	LTP353	ltpFR2	1	6	SUNSET	1408	n/a	n/a	0	0	0
1266411	WORD	wordpools/wasnorm_wordpool_576.txt	LTP353	ltpFR2	1	6	SUNRISE	1407	n/a	n/a	0	0	0
1268877	WORD	wordpools/wasnorm_wordpool_576.txt	LTP353	ltpFR2	1	6	VELVET	1555	n/a	n/a	0	0	0
1270493	START	n/a	LTP353	ltpFR2	1	n/a	n/a	n/a	9	n/a	n/a	n/a	n/a
1271578	DISTRACTOR	n/a	LTP353	ltpFR2	1	6	n/a	n/a	n/a	n/a	0	0	0
1271610	PROB	n/a	LTP353	ltpFR2	1	n/a	n/a	n/a	9	16	5	4	7
1274324	PROB	n/a	LTP353	ltpFR2	1	n/a	n/a	n/a	9	13	3	6	4
1276157	PROB	n/a	LTP353	ltpFR2	1	n/a	n/a	n/a	9	15	4	6	5
1278872	PROB	n/a	LTP353	ltpFR2	1	n/a	n/a	n/a	9	22	5	9	8
1280538	PROB	n/a	LTP353	ltpFR2	1	n/a	n/a	n/a	9	13	1	4	8
1282605	PROB	n/a	LTP353	ltpFR2	1	n/a	n/a	n/a	9	5	2	2	1
1284486	PROB	n/a	LTP353	ltpFR2	1	n/a	n/a	n/a	9	20	4	9	7
1286653	PROB	n/a	LTP353	ltpFR2	1	n/a	n/a	n/a	9	11	1	7	3
1288435	PROB	n/a	LTP353	ltpFR2	1	n/a	n/a	n/a	9	15	8	1	6
1290534	PROB	n/a	LTP353	ltpFR2	1	n/a	n/a	n/a	9	8	4	3	2
1294493	STOP	n/a	LTP353	ltpFR2	1	n/a	n/a	n/a	9	n/a	n/a	n/a	n/a
1296265	REC_START	n/a	LTP353	ltpFR2	1	6	n/a	n/a	n/a	n/a	0	0	0
1297308	REC_WORD	wordpools/wasnorm_wordpool_576.txt	LTP353	ltpFR2	1	6	FREEZER	604	n/a	n/a	0	0	0
1298278	REC_WORD	wordpools/wasnorm_wordpool_576.txt	LTP353	ltpFR2	1	6	TWISTER	1530	n/a	n/a	0	0	0
1299292	REC_WORD	wordpools/wasnorm_wordpool_576.txt	LTP353	ltpFR2	1	6	BACON	67	n/a	n/a	0	0	0
1300178	REC_WORD	wordpools/wasnorm_wordpool_576.txt	LTP353	ltpFR2	1	6	WASP	1593	n/a	n/a	0	0	0
1301661	REC_WORD	wordpools/wasnorm_wordpool_576.txt	LTP353	ltpFR2	1	6	TABLE	1426	n/a	n/a	0	0	0
1313585	REC_WORD	wordpools/wasnorm_wordpool_576.txt	LTP353	ltpFR2	1	6	PADDLE	1000	n/a	n/a	0	0	0
1314587	REC_WORD	wordpools/wasnorm_wordpool_576.txt	LTP353	ltpFR2	1	6	CANYON	235	n/a	n/a	0	0	0
1315730	REC_WORD	wordpools/wasnorm_wordpool_576.txt	LTP353	ltpFR2	1	6	ISLAND	745	n/a	n/a	0	0	0
1317304	REC_WORD	wordpools/wasnorm_wordpool_576.txt	LTP353	ltpFR2	1	6	RIVER	1194	n/a	n/a	0	0	0
1319517	REC_WORD	wordpools/wasnorm_wordpool_576.txt	LTP353	ltpFR2	1	6	RAFT	1159	n/a	n/a	0	0	0
1386725	WORD	wordpools/wasnorm_wordpool_576.txt	LTP353	ltpFR2	1	7	JELLY	755	n/a	n/a	0	0	0
1389306	WORD	wordpools/wasnorm_wordpool_576.txt	LTP353	ltpFR2	1	7	REPORT	1184	n/a	n/a	0	0	0
1391755	WORD	wordpools/wasnorm_wordpool_576.txt	LTP353	ltpFR2	1	7	WAITRESS	1581	n/a	n/a	0	0	0
1394503	WORD	wordpools/wasnorm_wordpool_576.txt	LTP353	ltpFR2	1	7	GRAVEL	659	n/a	n/a	0	0	0
1397119	WORD	wordpools/wasnorm_wordpool_576.txt	LTP353	ltpFR2	1	7	SHELTER	1282	n/a	n/a	0	0	0
1399652	WORD	wordpools/wasnorm_wordpool_576.txt	LTP353	ltpFR2	1	7	PILOT	1070	n/a	n/a	0	0	0
1402083	WORD	wordpools/wasnorm_wordpool_576.txt	LTP353	ltpFR2	1	7	NAPKIN	937	n/a	n/a	0	0	0
1404799	WORD	wordpools/wasnorm_wordpool_576.txt	LTP353	ltpFR2	1	7	CASHIER	254	n/a	n/a	0	0	0
1407314	WORD	wordpools/wasnorm_wordpool_576.txt	LTP353	ltpFR2	1	7	ORANGE	980	n/a	n/a	0	0	0
1409996	WORD	wordpools/wasnorm_wordpool_576.txt	LTP353	ltpFR2	1	7	SHORTCAKE	1292	n/a	n/a	0	0	0
1412795	WORD	wordpools/wasnorm_wordpool_576.txt	LTP353	ltpFR2	1	7	FLOWER	584	n/a	n/a	0	0	0
1415327	WORD	wordpools/wasnorm_wordpool_576.txt	LTP353	ltpFR2	1	7	SHRUB	1299	n/a	n/a	0	0	0
1418093	WORD	wordpools/wasnorm_wordpool_576.txt	LTP353	ltpFR2	1	7	BRANDY	169	n/a	n/a	0	0	0
1420676	WORD	wordpools/wasnorm_wordpool_576.txt	LTP353	ltpFR2	1	7	CHURCH	307	n/a	n/a	0	0	0
1423174	WORD	wordpools/wasnorm_wordpool_576.txt	LTP353	ltpFR2	1	7	AIRPORT	13	n/a	n/a	0	0	0
1425624	WORD	wordpools/wasnorm_wordpool_576.txt	LTP353	ltpFR2	1	7	MONEY	908	n/a	n/a	0	0	0
1428271	WORD	wordpools/wasnorm_wordpool_576.txt	LTP353	ltpFR2	1	7	PARENT	1013	n/a	n/a	0	0	0
1430887	WORD	wordpools/wasnorm_wordpool_576.txt	LTP353	ltpFR2	1	7	BANK	83	n/a	n/a	0	0	0
1433703	WORD	wordpools/wasnorm_wordpool_576.txt	LTP353	ltpFR2	1	7	THIEF	1456	n/a	n/a	0	0	0
1436218	WORD	wordpools/wasnorm_wordpool_576.txt	LTP353	ltpFR2	1	7	BIKE	125	n/a	n/a	0	0	0
1438850	WORD	wordpools/wasnorm_wordpool_576.txt	LTP353	ltpFR2	1	7	CHAPEL	280	n/a	n/a	0	0	0
1441416	WORD	wordpools/wasnorm_wordpool_576.txt	LTP353	ltpFR2	1	7	SHELF	1280	n/a	n/a	0	0	0
1443914	WORD	wordpools/wasnorm_wordpool_576.txt	LTP353	ltpFR2	1	7	BINDER	127	n/a	n/a	0	0	0
1446648	WORD	wordpools/wasnorm_wordpool_576.txt	LTP353	ltpFR2	1	7	BROTHER	179	n/a	n/a	0	0	0
1448263	START	n/a	LTP353	ltpFR2	1	n/a	n/a	n/a	10	n/a	n/a	n/a	n/a
1449427	DISTRACTOR	n/a	LTP353	ltpFR2	1	7	n/a	n/a	n/a	n/a	0	0	0
1449429	PROB	n/a	LTP353	ltpFR2	1	n/a	n/a	n/a	10	13	5	1	7
1451544	PROB	n/a	LTP353	ltpFR2	1	n/a	n/a	n/a	10	16	6	5	5
1453194	PROB	n/a	LTP353	ltpFR2	1	n/a	n/a	n/a	10	14	1	8	5
1454893	PROB	n/a	LTP353	ltpFR2	1	n/a	n/a	n/a	10	20	4	7	9
1456742	PROB	n/a	LTP353	ltpFR2	1	n/a	n/a	n/a	10	13	4	7	2
1459557	PROB	n/a	LTP353	ltpFR2	1	n/a	n/a	n/a	10	21	8	5	8
1461223	PROB	n/a	LTP353	ltpFR2	1	n/a	n/a	n/a	10	13	5	3	5
1462674	PROB	n/a	LTP353	ltpFR2	1	n/a	n/a	n/a	10	8	1	1	6
1463972	PROB	n/a	LTP353	ltpFR2	1	n/a	n/a	n/a	10	13	7	5	1
1466088	PROB	n/a	LTP353	ltpFR2	1	n/a	n/a	n/a	10	17	6	3	8
1468103	PROB	n/a	LTP353	ltpFR2	1	n/a	n/a	n/a	10	7	2	2	5
1469469	PROB	n/a	LTP353	ltpFR2	1	n/a	n/a	n/a	10	233	8	9	6
1471752	STOP	n/a	LTP353	ltpFR2	1	n/a	n/a	n/a	10	n/a	n/a	n/a	n/a
1474118	REC_START	n/a	LTP353	ltpFR2	1	7	n/a	n/a	n/a	n/a	0	0	0
1475115	REC_WORD	wordpools/wasnorm_wordpool_576.txt	LTP353	ltpFR2	1	7	JELLY	755	n/a	n/a	0	0	0
1564543	DISTRACTOR	n/a	LTP353	ltpFR2	1	8	n/a	n/a	n/a	n/a	0	0	0
1564543	START	n/a	LTP353	ltpFR2	1	n/a	n/a	n/a	11	n/a	n/a	n/a	n/a
1564560	PROB	n/a	LTP353	ltpFR2	1	n/a	n/a	n/a	11	22	9	5	8
1566776	PROB	n/a	LTP353	ltpFR2	1	n/a	n/a	n/a	11	10	5	2	3
1568626	PROB	n/a	LTP353	ltpFR2	1	n/a	n/a	n/a	11	24	8	9	7
1570224	PROB	n/a	LTP353	ltpFR2	1	n/a	n/a	n/a	11	10	3	6	1
1572073	PROB	n/a	LTP353	ltpFR2	1	n/a	n/a	n/a	11	15	8	6	1
1574072	PROB	n/a	LTP353	ltpFR2	1	n/a	n/a	n/a	11	8	1	5	2
1576454	PROB	n/a	LTP353	ltpFR2	1	n/a	n/a	n/a	11	16	2	6	8
1578354	PROB	n/a	LTP353	ltpFR2	1	n/a	n/a	n/a	11	20	9	8	3
1580436	PROB	n/a	LTP353	ltpFR2	1	n/a	n/a	n/a	11	25	8	9	8
1583984	PROB	n/a	LTP353	ltpFR2	1	n/a	n/a	n/a	11	18	9	8	1
1585685	PROB	n/a	LTP353	ltpFR2	1	n/a	n/a	n/a	11	20	8	6	6
1587428	STOP	n/a	LTP353	ltpFR2	1	n/a	n/a	n/a	11	n/a	n/a	n/a	n/a
1589515	WORD	wordpools/wasnorm_wordpool_576.txt	LTP353	ltpFR2	1	8	PARSLEY	1016	n/a	n/a	0	0	0
1591964	WORD	wordpools/wasnorm_wordpool_576.txt	LTP353	ltpFR2	1	8	INFANT	737	n/a	n/a	0	0	0
1594530	WORD	wordpools/wasnorm_wordpool_576.txt	LTP353	ltpFR2	1	8	CRIB	407	n/a	n/a	0	0	0
1597029	WORD	wordpools/wasnorm_wordpool_576.txt	LTP353	ltpFR2	1	8	CANDY	230	n/a	n/a	0	0	0
1599712	WORD	wordpools/wasnorm_wordpool_576.txt	LTP353	ltpFR2	1	8	PECAN	1036	n/a	n/a	0	0	0
1602493	WORD	wordpools/wasnorm_wordpool_576.txt	LTP353	ltpFR2	1	8	LACE	792	n/a	n/a	0	0	0
1605075	WORD	wordpools/wasnorm_wordpool_576.txt	LTP353	ltpFR2	1	8	BRAKE	166	n/a	n/a	0	0	0
1607641	WORD	wordpools/wasnorm_wordpool_576.txt	LTP353	ltpFR2	1	8	PATROL	1027	n/a	n/a	0	0	0
1610089	WORD	wordpools/wasnorm_wordpool_576.txt	LTP353	ltpFR2	1	8	DENTIST	447	n/a	n/a	0	0	0
1612639	WORD	wordpools/wasnorm_wordpool_576.txt	LTP353	ltpFR2	1	8	LION	827	n/a	n/a	0	0	0
1615254	WORD	wordpools/wasnorm_wordpool_576.txt	LTP353	ltpFR2	1	8	PANTHER	1009	n/a	n/a	0	0	0
1617819	WORD	wordpools/wasnorm_wordpool_576.txt	LTP353	ltpFR2	1	8	RABBIT	1152	n/a	n/a	0	0	0
1620368	WORD	wordpools/wasnorm_wordpool_576.txt	LTP353	ltpFR2	1	8	TART	1436	n/a	n/a	0	0	0
1622850	WORD	wordpools/wasnorm_wordpool_576.txt	LTP353	ltpFR2	1	8	STATUE	1374	n/a	n/a	0	0	0
1625449	WORD	wordpools/wasnorm_wordpool_576.txt	LTP353	ltpFR2	1	8	SOFTBALL	1343	n/a	n/a	0	0	0
1628148	WORD	wordpools/wasnorm_wordpool_576.txt	LTP353	ltpFR2	1	8	HUSBAND	728	n/a	n/a	0	0	0
1630880	WORD	wordpools/wasnorm_wordpool_576.txt	LTP353	ltpFR2	1	8	FINGER	567	n/a	n/a	0	0	0
1633680	WORD	wordpools/wasnorm_wordpool_576.txt	LTP353	ltpFR2	1	8	TORTOISE	1486	n/a	n/a	0	0	0
1636361	WORD	wordpools/wasnorm_wordpool_576.txt	LTP353	ltpFR2	1	8	TEACHER	1440	n/a	n/a	0	0	0
1638960	WORD	wordpools/wasnorm_wordpool_576.txt	LTP353	ltpFR2	1	8	BLUEPRINT	142	n/a	n/a	0	0	0
1641508	WORD	wordpools/wasnorm_wordpool_576.txt	LTP353	ltpFR2	1	8	ROBBER	1197	n/a	n/a	0	0	0
1644174	WORD	wordpools/wasnorm_wordpool_576.txt	LTP353	ltpFR2	1	8	COUNTY	389	n/a	n/a	0	0	0
1646607	WORD	wordpools/wasnorm_wordpool_576.txt	LTP353	ltpFR2	1	8	XEROX	1628	n/a	n/a	0	0	0
1649255	WORD	wordpools/wasnorm_wordpool_576.txt	LTP353	ltpFR2	1	8	SKIRT	1319	n/a	n/a	0	0	0
1650871	START	n/a	LTP353	ltpFR2	1	n/a	n/a	n/a	12	n/a	n/a	n/a	n/a
1651866	DISTRACTOR	n/a	LTP353	ltpFR2	1	8	n/a	n/a	n/a	n/a	0	0	0
1651871	PROB	n/a	LTP353	ltpFR2	1	n/a	n/a	n/a	12	20	7	9	4
1657135	PROB	n/a	LTP353	ltpFR2	1	n/a	n/a	n/a	12	8	1	6	1
1658284	PROB	n/a	LTP353	ltpFR2	1	n/a	n/a	n/a	12	15	5	1	9
1661416	PROB	n/a	LTP353	ltpFR2	1	n/a	n/a	n/a	12	10	1	6	3
1662999	PROB	n/a	LTP353	ltpFR2	1	n/a	n/a	n/a	12	17	5	4	8
1665364	PROB	n/a	LTP353	ltpFR2	1	n/a	n/a	n/a	12	13	3	5	5
1666715	PROB	n/a	LTP353	ltpFR2	1	n/a	n/a	n/a	12	177	3	8	6
1668647	PROB	n/a	LTP353	ltpFR2	1	n/a	n/a	n/a	12	16	7	6	3
1671328	PROB	n/a	LTP353	ltpFR2	1	n/a	n/a	n/a	12	5	1	1	3
1674871	STOP	n/a	LTP353	ltpFR2	1	n/a	n/a	n/a	12	n/a	n/a	n/a	n/a
1676627	REC_START	n/a	LTP353	ltpFR2	1	8	n/a	n/a	n/a	n/a	0	0	0
1681390	REC_WORD	wordpools/wasnorm_wordpool_576.txt	LTP353	ltpFR2	1	8	PARSLEY	1016	n/a	n/a	0	0	0
1682687	REC_WORD	wordpools/wasnorm_wordpool_576.txt	LTP353	ltpFR2	1	8	LION	827	n/a	n/a	0	0	0
1684258	REC_WORD	wordpools/wasnorm_wordpool_576.txt	LTP353	ltpFR2	1	8	PANTHER	1009	n/a	n/a	0	0	0
1685553	REC_WORD	wordpools/wasnorm_wordpool_576.txt	LTP353	ltpFR2	1	8	TORTOISE	1486	n/a	n/a	0	0	0
1753175	REST_REWET	n/a	LTP353	ltpFR2	1	8	n/a	n/a	n/a	n/a	0	0	0
1900791	WORD	wordpools/wasnorm_wordpool_576.txt	LTP353	ltpFR2	1	9	MARKET	871	n/a	n/a	0	0	0
1903340	WORD	wordpools/wasnorm_wordpool_576.txt	LTP353	ltpFR2	1	9	CAFE	216	n/a	n/a	0	0	0
1905789	WORD	wordpools/wasnorm_wordpool_576.txt	LTP353	ltpFR2	1	9	BULLET	194	n/a	n/a	0	0	0
1908255	WORD	wordpools/wasnorm_wordpool_576.txt	LTP353	ltpFR2	1	9	THRONE	1461	n/a	n/a	0	0	0
1910870	WORD	wordpools/wasnorm_wordpool_576.txt	LTP353	ltpFR2	1	9	MATCH	878	n/a	n/a	0	0	0
1913653	WORD	wordpools/wasnorm_wordpool_576.txt	LTP353	ltpFR2	1	9	FEMALE	559	n/a	n/a	0	0	0
1916434	WORD	wordpools/wasnorm_wordpool_576.txt	LTP353	ltpFR2	1	9	PERCH	1048	n/a	n/a	0	0	0
1919266	WORD	wordpools/wasnorm_wordpool_576.txt	LTP353	ltpFR2	1	9	QUARTER	1148	n/a	n/a	0	0	0
1921882	WORD	wordpools/wasnorm_wordpool_576.txt	LTP353	ltpFR2	1	9	GANGSTER	620	n/a	n/a	0	0	0
1924347	WORD	wordpools/wasnorm_wordpool_576.txt	LTP353	ltpFR2	1	9	SWIMMER	1420	n/a	n/a	0	0	0
1927096	WORD	wordpools/wasnorm_wordpool_576.txt	LTP353	ltpFR2	1	9	UNCLE	1536	n/a	n/a	0	0	0
1929895	WORD	wordpools/wasnorm_wordpool_576.txt	LTP353	ltpFR2	1	9	KLEENEX	782	n/a	n/a	0	0	0
1932595	WORD	wordpools/wasnorm_wordpool_576.txt	LTP353	ltpFR2	1	9	SCARECROW	1245	n/a	n/a	0	0	0
1935159	WORD	wordpools/wasnorm_wordpool_576.txt	LTP353	ltpFR2	1	9	WARDROBE	1587	n/a	n/a	0	0	0
1937875	WORD	wordpools/wasnorm_wordpool_576.txt	LTP353	ltpFR2	1	9	PAPER	1011	n/a	n/a	0	0	0
1940440	WORD	wordpools/wasnorm_wordpool_576.txt	LTP353	ltpFR2	1	9	SCULPTURE	1258	n/a	n/a	0	0	0
1943122	WORD	wordpools/wasnorm_wordpool_576.txt	LTP353	ltpFR2	1	9	FIREMAN	569	n/a	n/a	0	0	0
1945788	WORD	wordpools/wasnorm_wordpool_576.txt	LTP353	ltpFR2	1	9	RUG	1215	n/a	n/a	0	0	0
1948270	WORD	wordpools/wasnorm_wordpool_576.txt	LTP353	ltpFR2	1	9	ZIPPER	1636	n/a	n/a	0	0	0
1951019	WORD	wordpools/wasnorm_wordpool_576.txt	LTP353	ltpFR2	1	9	SHORTS	1293	n/a	n/a	0	0	0
1953834	WORD	wordpools/wasnorm_wordpool_576.txt	LTP353	ltpFR2	1	9	MATTRESS	879	n/a	n/a	0	0	0
1956584	WORD	wordpools/wasnorm_wordpool_576.txt	LTP353	ltpFR2	1	9	KNAPSACK	783	n/a	n/a	0	0	0
1959132	WORD	wordpools/wasnorm_wordpool_576.txt	LTP353	ltpFR2	1	9	OUTDOORS	987	n/a	n/a	0	0	0
1961648	WORD	wordpools/wasnorm_wordpool_576.txt	LTP353	ltpFR2	1	9	ACTOR	5	n/a	n/a	0	0	0
1963263	START	n/a	LTP353	ltpFR2	1	n/a	n/a	n/a	13	n/a	n/a	n/a	n/a
1964072	DISTRACTOR	n/a	LTP353	ltpFR2	1	9	n/a	n/a	n/a	n/a	0	0	0
1964079	PROB	n/a	LTP353	ltpFR2	1	n/a	n/a	n/a	13	19	9	8	2
1965680	PROB	n/a	LTP353	ltpFR2	1	n/a	n/a	n/a	13	15	2	8	5
1967045	PROB	n/a	LTP353	ltpFR2	1	n/a	n/a	n/a	13	8	2	5	1
1968595	PROB	n/a	LTP353	ltpFR2	1	n/a	n/a	n/a	13	14	2	3	9
1970427	PROB	n/a	LTP353	ltpFR2	1	n/a	n/a	n/a	13	19	9	1	9
1972626	PROB	n/a	LTP353	ltpFR2	1	n/a	n/a	n/a	13	21	6	7	8
1975291	PROB	n/a	LTP353	ltpFR2	1	n/a	n/a	n/a	13	5	3	1	1
1976557	PROB	n/a	LTP353	ltpFR2	1	n/a	n/a	n/a	13	12	4	4	4
1979106	PROB	n/a	LTP353	ltpFR2	1	n/a	n/a	n/a	13	14	4	6	4
1981238	PROB	n/a	LTP353	ltpFR2	1	n/a	n/a	n/a	13	9	1	5	3
1983672	PROB	n/a	LTP353	ltpFR2	1	n/a	n/a	n/a	13	12	5	2	5
1986626	STOP	n/a	LTP353	ltpFR2	1	n/a	n/a	n/a	13	n/a	n/a	n/a	n/a
1989085	REC_START	n/a	LTP353	ltpFR2	1	9	n/a	n/a	n/a	n/a	0	0	0
1993176	REC_WORD	wordpools/wasnorm_wordpool_576.txt	LTP353	ltpFR2	1	9	SCARECROW	1245	n/a	n/a	0	0	0
1995422	REC_WORD	wordpools/wasnorm_wordpool_576.txt	LTP353	ltpFR2	1	9	ACTOR	5	n/a	n/a	0	0	0
2079511	DISTRACTOR	n/a	LTP353	ltpFR2	1	10	n/a	n/a	n/a	n/a	0	0	0
2079511	START	n/a	LTP353	ltpFR2	1	n/a	n/a	n/a	14	n/a	n/a	n/a	n/a
2079527	PROB	n/a	LTP353	ltpFR2	1	n/a	n/a	n/a	14	8	1	1	6
2080711	PROB	n/a	LTP353	ltpFR2	1	n/a	n/a	n/a	14	22	8	7	7
2082876	PROB	n/a	LTP353	ltpFR2	1	n/a	n/a	n/a	14	6	2	2	4
2084075	PROB	n/a	LTP353	ltpFR2	1	n/a	n/a	n/a	14	9	5	2	2
2086124	PROB	n/a	LTP353	ltpFR2	1	n/a	n/a	n/a	14	8	1	2	5
2088890	PROB	n/a	LTP353	ltpFR2	1	n/a	n/a	n/a	14	17	8	1	8
2090272	PROB	n/a	LTP353	ltpFR2	1	n/a	n/a	n/a	14	16	4	7	5
2092656	PROB	n/a	LTP353	ltpFR2	1	n/a	n/a	n/a	14	15	1	8	5
2094887	PROB	n/a	LTP353	ltpFR2	1	n/a	n/a	n/a	14	11	6	4	1
2096936	PROB	n/a	LTP353	ltpFR2	1	n/a	n/a	n/a	14	18	5	6	7
2098818	PROB	n/a	LTP353	ltpFR2	1	n/a	n/a	n/a	14	24	8	7	9
2100734	PROB	n/a	LTP353	ltpFR2	1	n/a	n/a	n/a	14	17	2	7	8
2102988	STOP	n/a	LTP353	ltpFR2	1	n/a	n/a	n/a	14	n/a	n/a	n/a	n/a
2104549	WORD	wordpools/wasnorm_wordpool_576.txt	LTP353	ltpFR2	1	10	HUMAN	726	n/a	n/a	0	0	0
2107048	WORD	wordpools/wasnorm_wordpool_576.txt	LTP353	ltpFR2	1	10	CREATURE	403	n/a	n/a	0	0	0
2109715	WORD	wordpools/wasnorm_wordpool_576.txt	LTP353	ltpFR2	1	10	TOURIST	1488	n/a	n/a	0	0	0
2112279	WORD	wordpools/wasnorm_wordpool_576.txt	LTP353	ltpFR2	1	10	TUBA	1515	n/a	n/a	0	0	0
2114978	WORD	wordpools/wasnorm_wordpool_576.txt	LTP353	ltpFR2	1	10	PLAID	1080	n/a	n/a	0	0	0
2117611	WORD	wordpools/wasnorm_wordpool_576.txt	LTP353	ltpFR2	1	10	PLASTER	1085	n/a	n/a	0	0	0
2120159	WORD	wordpools/wasnorm_wordpool_576.txt	LTP353	ltpFR2	1	10	KEEPER	769	n/a	n/a	0	0	0
2122659	WORD	wordpools/wasnorm_wordpool_576.txt	LTP353	ltpFR2	1	10	COMPASS	358	n/a	n/a	0	0	0
2125123	WORD	wordpools/wasnorm_wordpool_576.txt	LTP353	ltpFR2	1	10	IGLOO	734	n/a	n/a	0	0	0
2127706	WORD	wordpools/wasnorm_wordpool_576.txt	LTP353	ltpFR2	1	10	PORK	1108	n/a	n/a	0	0	0
2130288	WORD	wordpools/wasnorm_wordpool_576.txt	LTP353	ltpFR2	1	10	SAUSAGE	1238	n/a	n/a	0	0	0
2132736	WORD	wordpools/wasnorm_wordpool_576.txt	LTP353	ltpFR2	1	10	BLACKBOARD	133	n/a	n/a	0	0	0
2135285	WORD	wordpools/wasnorm_wordpool_576.txt	LTP353	ltpFR2	1	10	PUPPY	1144	n/a	n/a	0	0	0
2138001	WORD	wordpools/wasnorm_wordpool_576.txt	LTP353	ltpFR2	1	10	ARM	38	n/a	n/a	0	0	0
2140733	WORD	wordpools/wasnorm_wordpool_576.txt	LTP353	ltpFR2	1	10	SPOON	1357	n/a	n/a	0	0	0
2143432	WORD	wordpools/wasnorm_wordpool_576.txt	LTP353	ltpFR2	1	10	CELLAR	267	n/a	n/a	0	0	0
2146230	WORD	wordpools/wasnorm_wordpool_576.txt	LTP353	ltpFR2	1	10	OZONE	996	n/a	n/a	0	0	0
2148746	WORD	wordpools/wasnorm_wordpool_576.txt	LTP353	ltpFR2	1	10	WAITER	1580	n/a	n/a	0	0	0
2151195	WORD	wordpools/wasnorm_wordpool_576.txt	LTP353	ltpFR2	1	10	SCALPEL	1243	n/a	n/a	0	0	0
2153744	WORD	wordpools/wasnorm_wordpool_576.txt	LTP353	ltpFR2	1	10	POET	1095	n/a	n/a	0	0	0
2156492	WORD	wordpools/wasnorm_wordpool_576.txt	LTP353	ltpFR2	1	10	HARP	689	n/a	n/a	0	0	0
2158975	WORD	wordpools/wasnorm_wordpool_576.txt	LTP353	ltpFR2	1	10	GYMNAST	675	n/a	n/a	0	0	0
2161790	WORD	wordpools/wasnorm_wordpool_576.txt	LTP353	ltpFR2	1	10	JUGGLER	763	n/a	n/a	0	0	0
2164339	WORD	wordpools/wasnorm_wordpool_576.txt	LTP353	ltpFR2	1	10	MESSAGE	888	n/a	n/a	0	0	0
2165955	START	n/a	LTP353	ltpFR2	1	n/a	n/a	n/a	15	n/a	n/a	n/a	n/a
2166967	DISTRACTOR	n/a	LTP353	ltpFR2	1	10	n/a	n/a	n/a	n/a	0	0	0
2166971	PROB	n/a	LTP353	ltpFR2	1	n/a	n/a	n/a	15	13	2	7	4
2168721	PROB	n/a	LTP353	ltpFR2	1	n/a	n/a	n/a	15	12	1	2	9
2170419	PROB	n/a	LTP353	ltpFR2	1	n/a	n/a	n/a	15	13	6	1	6
2173018	PROB	n/a	LTP353	ltpFR2	1	n/a	n/a	n/a	15	15	7	4	4
2175500	PROB	n/a	LTP353	ltpFR2	1	n/a	n/a	n/a	15	5	3	1	1
2176718	PROB	n/a	LTP353	ltpFR2	1	n/a	n/a	n/a	15	16	7	8	1
2178216	PROB	n/a	LTP353	ltpFR2	1	n/a	n/a	n/a	15	10	3	4	3
2180382	PROB	n/a	LTP353	ltpFR2	1	n/a	n/a	n/a	15	5	1	3	1
2181531	PROB	n/a	LTP353	ltpFR2	1	n/a	n/a	n/a	15	21	8	5	8
2183347	PROB	n/a	LTP353	ltpFR2	1	n/a	n/a	n/a	15	19	2	8	9
2185246	PROB	n/a	LTP353	ltpFR2	1	n/a	n/a	n/a	15	18	8	7	3
2189955	STOP	n/a	LTP353	ltpFR2	1	n/a	n/a	n/a	15	n/a	n/a	n/a	n/a
2191827	REC_START	n/a	LTP353	ltpFR2	1	10	n/a	n/a	n/a	n/a	0	0	0
2192616	REC_WORD	wordpools/wasnorm_wordpool_576.txt	LTP353	ltpFR2	1	10	HUMAN	726	n/a	n/a	0	0	0
2193443	REC_WORD	wordpools/wasnorm_wordpool_576.txt	LTP353	ltpFR2	1	10	TOURIST	1488	n/a	n/a	0	0	0
2194327	REC_WORD	wordpools/wasnorm_wordpool_576.txt	LTP353	ltpFR2	1	10	JUGGLER	763	n/a	n/a	0	0	0
2195152	REC_WORD	wordpools/wasnorm_wordpool_576.txt	LTP353	ltpFR2	1	10	GYMNAST	675	n/a	n/a	0	0	0
2196871	REC_WORD	wordpools/wasnorm_wordpool_576.txt	LTP353	ltpFR2	1	10	PORK	1108	n/a	n/a	0	0	0
2197743	REC_WORD	wordpools/wasnorm_wordpool_576.txt	LTP353	ltpFR2	1	10	SAUSAGE	1238	n/a	n/a	0	0	0
2198884	REC_WORD	wordpools/wasnorm_wordpool_576.txt	LTP353	ltpFR2	1	10	IGLOO	734	n/a	n/a	0	0	0
2282269	WORD	wordpools/wasnorm_wordpool_576.txt	LTP353	ltpFR2	1	11	DAISY	435	n/a	n/a	0	0	0
2285068	WORD	wordpools/wasnorm_wordpool_576.txt	LTP353	ltpFR2	1	11	SURVEY	1414	n/a	n/a	0	0	0
2287750	WORD	wordpools/wasnorm_wordpool_576.txt	LTP353	ltpFR2	1	11	COMET	353	n/a	n/a	0	0	0
2290499	WORD	wordpools/wasnorm_wordpool_576.txt	LTP353	ltpFR2	1	11	VIRUS	1572	n/a	n/a	0	0	0
2293031	WORD	wordpools/wasnorm_wordpool_576.txt	LTP353	ltpFR2	1	11	COCOON	339	n/a	n/a	0	0	0
2295746	WORD	wordpools/wasnorm_wordpool_576.txt	LTP353	ltpFR2	1	11	ACTRESS	6	n/a	n/a	0	0	0
2298511	WORD	wordpools/wasnorm_wordpool_576.txt	LTP353	ltpFR2	1	11	CRAYON	401	n/a	n/a	0	0	0
2301294	WORD	wordpools/wasnorm_wordpool_576.txt	LTP353	ltpFR2	1	11	FLEET	578	n/a	n/a	0	0	0
2304009	WORD	wordpools/wasnorm_wordpool_576.txt	LTP353	ltpFR2	1	11	YACHT	1629	n/a	n/a	0	0	0
2306541	WORD	wordpools/wasnorm_wordpool_576.txt	LTP353	ltpFR2	1	11	HAWK	692	n/a	n/a	0	0	0
2309023	WORD	wordpools/wasnorm_wordpool_576.txt	LTP353	ltpFR2	1	11	CORAL	378	n/a	n/a	0	0	0
2311590	WORD	wordpools/wasnorm_wordpool_576.txt	LTP353	ltpFR2	1	11	CRAB	397	n/a	n/a	0	0	0
2314221	WORD	wordpools/wasnorm_wordpool_576.txt	LTP353	ltpFR2	1	11	SNAIL	1332	n/a	n/a	0	0	0
2316820	WORD	wordpools/wasnorm_wordpool_576.txt	LTP353	ltpFR2	1	11	PLAYGROUND	1087	n/a	n/a	0	0	0
2319252	WORD	wordpools/wasnorm_wordpool_576.txt	LTP353	ltpFR2	1	11	ROCKET	1202	n/a	n/a	0	0	0
2321719	WORD	wordpools/wasnorm_wordpool_576.txt	LTP353	ltpFR2	1	11	LAVA	804	n/a	n/a	0	0	0
2324533	WORD	wordpools/wasnorm_wordpool_576.txt	LTP353	ltpFR2	1	11	VIKING	1565	n/a	n/a	0	0	0
2326999	WORD	wordpools/wasnorm_wordpool_576.txt	LTP353	ltpFR2	1	11	SILK	1307	n/a	n/a	0	0	0
2329448	WORD	wordpools/wasnorm_wordpool_576.txt	LTP353	ltpFR2	1	11	COCKTAIL	338	n/a	n/a	0	0	0
2331913	WORD	wordpools/wasnorm_wordpool_576.txt	LTP353	ltpFR2	1	11	LAPEL	800	n/a	n/a	0	0	0
2334729	WORD	wordpools/wasnorm_wordpool_576.txt	LTP353	ltpFR2	1	11	COTTAGE	384	n/a	n/a	0	0	0
2337227	WORD	wordpools/wasnorm_wordpool_576.txt	LTP353	ltpFR2	1	11	RIFLE	1192	n/a	n/a	0	0	0
2339776	WORD	wordpools/wasnorm_wordpool_576.txt	LTP353	ltpFR2	1	11	PIANO	1057	n/a	n/a	0	0	0
2342442	WORD	wordpools/wasnorm_wordpool_576.txt	LTP353	ltpFR2	1	11	GUITAR	670	n/a	n/a	0	0	0
2344058	START	n/a	LTP353	ltpFR2	1	n/a	n/a	n/a	16	n/a	n/a	n/a	n/a
2345009	DISTRACTOR	n/a	LTP353	ltpFR2	1	11	n/a	n/a	n/a	n/a	0	0	0
2345024	PROB	n/a	LTP353	ltpFR2	1	n/a	n/a	n/a	16	17	8	5	4
2347223	PROB	n/a	LTP353	ltpFR2	1	n/a	n/a	n/a	16	1	1	3	7
2349022	PROB	n/a	LTP353	ltpFR2	1	n/a	n/a	n/a	16	15	7	7	1
2350355	PROB	n/a	LTP353	ltpFR2	1	n/a	n/a	n/a	16	14	4	7	3
2351821	PROB	n/a	LTP353	ltpFR2	1	n/a	n/a	n/a	16	17	6	7	4
2353837	PROB	n/a	LTP353	ltpFR2	1	n/a	n/a	n/a	16	12	3	7	2
2355786	PROB	n/a	LTP353	ltpFR2	1	n/a	n/a	n/a	16	19	4	7	8
2358518	PROB	n/a	LTP353	ltpFR2	1	n/a	n/a	n/a	16	19	5	8	6
2360317	PROB	n/a	LTP353	ltpFR2	1	n/a	n/a	n/a	16	15	1	8	6
2361983	PROB	n/a	LTP353	ltpFR2	1	n/a	n/a	n/a	16	15	4	6	5
2363282	PROB	n/a	LTP353	ltpFR2	1	n/a	n/a	n/a	16	13	4	1	8
2366573	STOP	n/a	LTP353	ltpFR2	1	n/a	n/a	n/a	16	n/a	n/a	n/a	n/a
2369813	REC_START	n/a	LTP353	ltpFR2	1	11	n/a	n/a	n/a	n/a	0	0	0
2370654	REC_WORD	wordpools/wasnorm_wordpool_576.txt	LTP353	ltpFR2	1	11	GUITAR	670	n/a	n/a	0	0	0
2372014	REC_WORD	wordpools/wasnorm_wordpool_576.txt	LTP353	ltpFR2	1	11	PIANO	1057	n/a	n/a	0	0	0
2373514	REC_WORD	wordpools/wasnorm_wordpool_576.txt	LTP353	ltpFR2	1	11	ROCKET	1202	n/a	n/a	0	0	0
2374865	REC_WORD	wordpools/wasnorm_wordpool_576.txt	LTP353	ltpFR2	1	11	LAVA	804	n/a	n/a	0	0	0
2376843	REC_WORD	wordpools/wasnorm_wordpool_576.txt	LTP353	ltpFR2	1	11	PLAYGROUND	1087	n/a	n/a	0	0	0
2381591	REC_WORD	wordpools/wasnorm_wordpool_576.txt	LTP353	ltpFR2	1	11	LAPEL	800	n/a	n/a	0	0	0
2460238	DISTRACTOR	n/a	LTP353	ltpFR2	1	12	n/a	n/a	n/a	n/a	0	0	0
2460239	START	n/a	LTP353	ltpFR2	1	n/a	n/a	n/a	17	n/a	n/a	n/a	n/a
2460255	PROB	n/a	LTP353	ltpFR2	1	n/a	n/a	n/a	17	15	7	1	7
2461589	PROB	n/a	LTP353	ltpFR2	1	n/a	n/a	n/a	17	10	3	4	3
2463937	PROB	n/a	LTP353	ltpFR2	1	n/a	n/a	n/a	17	19	6	9	4
2467019	PROB	n/a	LTP353	ltpFR2	1	n/a	n/a	n/a	17	12	5	2	5
2468451	PROB	n/a	LTP353	ltpFR2	1	n/a	n/a	n/a	17	13	1	5	6
2470668	PROB	n/a	LTP353	ltpFR2	1	n/a	n/a	n/a	17	20	5	8	7
2473199	PROB	n/a	LTP353	ltpFR2	1	n/a	n/a	n/a	17	21	4	9	8
2476314	PROB	n/a	LTP353	ltpFR2	1	n/a	n/a	n/a	17	12	4	6	2
2484238	STOP	n/a	LTP353	ltpFR2	1	n/a	n/a	n/a	17	n/a	n/a	n/a	n/a
2485310	WORD	wordpools/wasnorm_wordpool_576.txt	LTP353	ltpFR2	1	12	STUDENT	1395	n/a	n/a	0	0	0
2487893	WORD	wordpools/wasnorm_wordpool_576.txt	LTP353	ltpFR2	1	12	NOTEBOOK	959	n/a	n/a	0	0	0
2490626	WORD	wordpools/wasnorm_wordpool_576.txt	LTP353	ltpFR2	1	12	INMATE	738	n/a	n/a	0	0	0
2493107	WORD	wordpools/wasnorm_wordpool_576.txt	LTP353	ltpFR2	1	12	PASTRY	1022	n/a	n/a	0	0	0
2495939	WORD	wordpools/wasnorm_wordpool_576.txt	LTP353	ltpFR2	1	12	MAILMAN	858	n/a	n/a	0	0	0
2498738	WORD	wordpools/wasnorm_wordpool_576.txt	LTP353	ltpFR2	1	12	PACKAGE	997	n/a	n/a	0	0	0
2501303	WORD	wordpools/wasnorm_wordpool_576.txt	LTP353	ltpFR2	1	12	VICTIM	1562	n/a	n/a	0	0	0
2503919	WORD	wordpools/wasnorm_wordpool_576.txt	LTP353	ltpFR2	1	12	TAXI	1438	n/a	n/a	0	0	0
2506401	WORD	wordpools/wasnorm_wordpool_576.txt	LTP353	ltpFR2	1	12	CRICKET	408	n/a	n/a	0	0	0
2509133	WORD	wordpools/wasnorm_wordpool_576.txt	LTP353	ltpFR2	1	12	OMELET	976	n/a	n/a	0	0	0
2511716	WORD	wordpools/wasnorm_wordpool_576.txt	LTP353	ltpFR2	1	12	COUSIN	392	n/a	n/a	0	0	0
2514147	WORD	wordpools/wasnorm_wordpool_576.txt	LTP353	ltpFR2	1	12	PISTON	1076	n/a	n/a	0	0	0
2516631	WORD	wordpools/wasnorm_wordpool_576.txt	LTP353	ltpFR2	1	12	SKETCH	1315	n/a	n/a	0	0	0
2519395	WORD	wordpools/wasnorm_wordpool_576.txt	LTP353	ltpFR2	1	12	MAMMAL	861	n/a	n/a	0	0	0
2522094	WORD	wordpools/wasnorm_wordpool_576.txt	LTP353	ltpFR2	1	12	FRIAR	605	n/a	n/a	0	0	0
2524594	WORD	wordpools/wasnorm_wordpool_576.txt	LTP353	ltpFR2	1	12	DIME	466	n/a	n/a	0	0	0
2527241	WORD	wordpools/wasnorm_wordpool_576.txt	LTP353	ltpFR2	1	12	YARN	1631	n/a	n/a	0	0	0
2530007	WORD	wordpools/wasnorm_wordpool_576.txt	LTP353	ltpFR2	1	12	PRINCE	1124	n/a	n/a	0	0	0
2532489	WORD	wordpools/wasnorm_wordpool_576.txt	LTP353	ltpFR2	1	12	SANDWICH	1232	n/a	n/a	0	0	0
2535238	WORD	wordpools/wasnorm_wordpool_576.txt	LTP353	ltpFR2	1	12	CONVICT	371	n/a	n/a	0	0	0
2537787	WORD	wordpools/wasnorm_wordpool_576.txt	LTP353	ltpFR2	1	12	MARKER	870	n/a	n/a	0	0	0
2540302	WORD	wordpools/wasnorm_wordpool_576.txt	LTP353	ltpFR2	1	12	MARSH	874	n/a	n/a	0	0	0
2542784	WORD	wordpools/wasnorm_wordpool_576.txt	LTP353	ltpFR2	1	12	LUGGAGE	847	n/a	n/a	0	0	0
2545350	WORD	wordpools/wasnorm_wordpool_576.txt	LTP353	ltpFR2	1	12	SUITCASE	1403	n/a	n/a	0	0	0
2546966	START	n/a	LTP353	ltpFR2	1	n/a	n/a	n/a	18	n/a	n/a	n/a	n/a
2548014	DISTRACTOR	n/a	LTP353	ltpFR2	1	12	n/a	n/a	n/a	n/a	0	0	0
2548015	PROB	n/a	LTP353	ltpFR2	1	n/a	n/a	n/a	18	13	7	2	4
2550781	PROB	n/a	LTP353	ltpFR2	1	n/a	n/a	n/a	18	16	4	8	4
2552813	PROB	n/a	LTP353	ltpFR2	1	n/a	n/a	n/a	18	19	8	9	2
2554379	PROB	n/a	LTP353	ltpFR2	1	n/a	n/a	n/a	18	8	1	2	4
2556028	PROB	n/a	LTP353	ltpFR2	1	n/a	n/a	n/a	18	23	7	8	8
2558527	PROB	n/a	LTP353	ltpFR2	1	n/a	n/a	n/a	18	7	2	3	2
2561743	PROB	n/a	LTP353	ltpFR2	1	n/a	n/a	n/a	18	13	1	3	9
2564391	PROB	n/a	LTP353	ltpFR2	1	n/a	n/a	n/a	18	20	9	9	2
2566490	PROB	n/a	LTP353	ltpFR2	1	n/a	n/a	n/a	18	11	1	1	9
2570966	STOP	n/a	LTP353	ltpFR2	1	n/a	n/a	n/a	18	n/a	n/a	n/a	n/a
2572738	REC_START	n/a	LTP353	ltpFR2	1	12	n/a	n/a	n/a	n/a	0	0	0
2573361	REC_WORD	wordpools/wasnorm_wordpool_576.txt	LTP353	ltpFR2	1	12	LUGGAGE	847	n/a	n/a	0	0	0
2574403	REC_WORD	wordpools/wasnorm_wordpool_576.txt	LTP353	ltpFR2	1	12	VICTIM	1562	n/a	n/a	0	0	0
2575809	REC_WORD	wordpools/wasnorm_wordpool_576.txt	LTP353	ltpFR2	1	12	MARSH	874	n/a	n/a	0	0	0
2577349	REC_WORD	wordpools/wasnorm_wordpool_576.txt	LTP353	ltpFR2	1	12	WITNESS	1618	n/a	n/a	0	0	0
2578432	REC_WORD	wordpools/wasnorm_wordpool_576.txt	LTP353	ltpFR2	1	12	SUITCASE	1403	n/a	n/a	0	0	0
2579432	REC_WORD_VV	wordpools/wasnorm_wordpool_576.txt	LTP353	ltpFR2	1	12	<>	-1	n/a	n/a	0	0	0
2724735	WORD	wordpools/wasnorm_wordpool_576.txt	LTP353	ltpFR2	1	13	DOUGHNUT	490	n/a	n/a	0	0	0
2727418	WORD	wordpools/wasnorm_wordpool_576.txt	LTP353	ltpFR2	1	13	RACKET	1155	n/a	n/a	0	0	0
2730133	WORD	wordpools/wasnorm_wordpool_576.txt	LTP353	ltpFR2	1	13	GARBAGE	622	n/a	n/a	0	0	0
2732799	WORD	wordpools/wasnorm_wordpool_576.txt	LTP353	ltpFR2	1	13	ROBIN	1199	n/a	n/a	0	0	0
2735331	WORD	wordpools/wasnorm_wordpool_576.txt	LTP353	ltpFR2	1	13	POSTAGE	1113	n/a	n/a	0	0	0
2737880	WORD	wordpools/wasnorm_wordpool_576.txt	LTP353	ltpFR2	1	13	PLATE	1086	n/a	n/a	0	0	0
2740596	WORD	wordpools/wasnorm_wordpool_576.txt	LTP353	ltpFR2	1	13	BRACES	164	n/a	n/a	0	0	0
2743394	WORD	wordpools/wasnorm_wordpool_576.txt	LTP353	ltpFR2	1	13	LASER	801	n/a	n/a	0	0	0
2746109	WORD	wordpools/wasnorm_wordpool_576.txt	LTP353	ltpFR2	1	13	PISTOL	1075	n/a	n/a	0	0	0
2748541	WORD	wordpools/wasnorm_wordpool_576.txt	LTP353	ltpFR2	1	13	AUTHOR	61	n/a	n/a	0	0	0
2751124	WORD	wordpools/wasnorm_wordpool_576.txt	LTP353	ltpFR2	1	13	DRAGON	492	n/a	n/a	0	0	0
2753772	WORD	wordpools/wasnorm_wordpool_576.txt	LTP353	ltpFR2	1	13	DONKEY	484	n/a	n/a	0	0	0
2756589	WORD	wordpools/wasnorm_wordpool_576.txt	LTP353	ltpFR2	1	13	SALT	1229	n/a	n/a	0	0	0
2759370	WORD	wordpools/wasnorm_wordpool_576.txt	LTP353	ltpFR2	1	13	BARLEY	88	n/a	n/a	0	0	0
2761969	WORD	wordpools/wasnorm_wordpool_576.txt	LTP353	ltpFR2	1	13	FRUIT	610	n/a	n/a	0	0	0
2764618	WORD	wordpools/wasnorm_wordpool_576.txt	LTP353	ltpFR2	1	13	AWARD	63	n/a	n/a	0	0	0
2767283	WORD	wordpools/wasnorm_wordpool_576.txt	LTP353	ltpFR2	1	13	CUPBOARD	425	n/a	n/a	0	0	0
2769932	WORD	wordpools/wasnorm_wordpool_576.txt	LTP353	ltpFR2	1	13	BEEF	113	n/a	n/a	0	0	0
2772547	WORD	wordpools/wasnorm_wordpool_576.txt	LTP353	ltpFR2	1	13	COIN	343	n/a	n/a	0	0	0
2775063	WORD	wordpools/wasnorm_wordpool_576.txt	LTP353	ltpFR2	1	13	HIGHWAY	707	n/a	n/a	0	0	0
2777545	WORD	wordpools/wasnorm_wordpool_576.txt	LTP353	ltpFR2	1	13	SIDEWALK	1303	n/a	n/a	0	0	0
2780177	WORD	wordpools/wasnorm_wordpool_576.txt	LTP353	ltpFR2	1	13	CIGAR	308	n/a	n/a	0	0	0
2782859	WORD	wordpools/wasnorm_wordpool_576.txt	LTP353	ltpFR2	1	13	PARROT	1015	n/a	n/a	0	0	0
2785491	WORD	wordpools/wasnorm_wordpool_576.txt	LTP353	ltpFR2	1	13	CRUTCH	417	n/a	n/a	0	0	0
2787107	START	n/a	LTP353	ltpFR2	1	n/a	n/a	n/a	19	n/a	n/a	n/a	n/a
2788193	DISTRACTOR	n/a	LTP353	ltpFR2	1	13	n/a	n/a	n/a	n/a	0	0	0
2788207	PROB	n/a	LTP353	ltpFR2	1	n/a	n/a	n/a	19	5	2	1	2
2789540	PROB	n/a	LTP353	ltpFR2	1	n/a	n/a	n/a	19	20	5	7	8
2792571	PROB	n/a	LTP353	ltpFR2	1	n/a	n/a	n/a	19	20	8	4	8
2794721	PROB	n/a	LTP353	ltpFR2	1	n/a	n/a	n/a	19	13	2	7	4
2796486	PROB	n/a	LTP353	ltpFR2	1	n/a	n/a	n/a	19	13	6	1	6
2798086	PROB	n/a	LTP353	ltpFR2	1	n/a	n/a	n/a	19	18	8	4	6
2801602	PROB	n/a	LTP353	ltpFR2	1	n/a	n/a	n/a	19	15	4	4	7
2803183	PROB	n/a	LTP353	ltpFR2	1	n/a	n/a	n/a	19	11	2	7	2
2805116	PROB	n/a	LTP353	ltpFR2	1	n/a	n/a	n/a	19	4	1	1	2
2806583	PROB	n/a	LTP353	ltpFR2	1	n/a	n/a	n/a	19	26	6	8	8
2810071	STOP	n/a	LTP353	ltpFR2	1	n/a	n/a	n/a	19	n/a	n/a	n/a	n/a
2813013	REC_START	n/a	LTP353	ltpFR2	1	13	n/a	n/a	n/a	n/a	0	0	0
2814121	REC_WORD	wordpools/wasnorm_wordpool_576.txt	LTP353	ltpFR2	1	13	SIDEWALK	1303	n/a	n/a	0	0	0
2815121	REC_WORD_VV	wordpools/wasnorm_wordpool_576.txt	LTP353	ltpFR2	1	13	<>	-1	n/a	n/a	0	0	0
2903488	WORD	wordpools/wasnorm_wordpool_576.txt	LTP353	ltpFR2	1	14	SKILLET	1317	n/a	n/a	0	0	0
2906170	WORD	wordpools/wasnorm_wordpool_576.txt	LTP353	ltpFR2	1	14	JEANS	752	n/a	n/a	0	0	0
2909002	WORD	wordpools/wasnorm_wordpool_576.txt	LTP353	ltpFR2	1	14	BEAKER	104	n/a	n/a	0	0	0
2911619	WORD	wordpools/wasnorm_wordpool_576.txt	LTP353	ltpFR2	1	14	SIBLING	1301	n/a	n/a	0	0	0
2914166	WORD	wordpools/wasnorm_wordpool_576.txt	LTP353	ltpFR2	1	14	MEDAL	885	n/a	n/a	0	0	0
2916700	WORD	wordpools/wasnorm_wordpool_576.txt	LTP353	ltpFR2	1	14	PEPPER	1047	n/a	n/a	0	0	0
2919464	WORD	wordpools/wasnorm_wordpool_576.txt	LTP353	ltpFR2	1	14	SNAKE	1333	n/a	n/a	0	0	0
2922063	WORD	wordpools/wasnorm_wordpool_576.txt	LTP353	ltpFR2	1	14	TEMPLE	1448	n/a	n/a	0	0	0
2924729	WORD	wordpools/wasnorm_wordpool_576.txt	LTP353	ltpFR2	1	14	PREACHER	1119	n/a	n/a	0	0	0
2927461	WORD	wordpools/wasnorm_wordpool_576.txt	LTP353	ltpFR2	1	14	HOUND	724	n/a	n/a	0	0	0
2929909	WORD	wordpools/wasnorm_wordpool_576.txt	LTP353	ltpFR2	1	14	LETTUCE	814	n/a	n/a	0	0	0
2932558	WORD	wordpools/wasnorm_wordpool_576.txt	LTP353	ltpFR2	1	14	STAPLE	1371	n/a	n/a	0	0	0
2935307	WORD	wordpools/wasnorm_wordpool_576.txt	LTP353	ltpFR2	1	14	MISSILE	900	n/a	n/a	0	0	0
2937906	WORD	wordpools/wasnorm_wordpool_576.txt	LTP353	ltpFR2	1	14	CHAMPAGNE	278	n/a	n/a	0	0	0
2940571	WORD	wordpools/wasnorm_wordpool_576.txt	LTP353	ltpFR2	1	14	BUNNY	198	n/a	n/a	0	0	0
2943270	WORD	wordpools/wasnorm_wordpool_576.txt	LTP353	ltpFR2	1	14	NOMAD	955	n/a	n/a	0	0	0
2945885	WORD	wordpools/wasnorm_wordpool_576.txt	LTP353	ltpFR2	1	14	LABEL	790	n/a	n/a	0	0	0
2948685	WORD	wordpools/wasnorm_wordpool_576.txt	LTP353	ltpFR2	1	14	BUREAU	199	n/a	n/a	0	0	0
2951316	WORD	wordpools/wasnorm_wordpool_576.txt	LTP353	ltpFR2	1	14	ZEBRA	1635	n/a	n/a	0	0	0
2953832	WORD	wordpools/wasnorm_wordpool_576.txt	LTP353	ltpFR2	1	14	FRECKLE	602	n/a	n/a	0	0	0
2956447	WORD	wordpools/wasnorm_wordpool_576.txt	LTP353	ltpFR2	1	14	PIMPLE	1071	n/a	n/a	0	0	0
2958980	WORD	wordpools/wasnorm_wordpool_576.txt	LTP353	ltpFR2	1	14	WAGON	1578	n/a	n/a	0	0	0
2961445	WORD	wordpools/wasnorm_wordpool_576.txt	LTP353	ltpFR2	1	14	TROUT	1511	n/a	n/a	0	0	0
2963994	WORD	wordpools/wasnorm_wordpool_576.txt	LTP353	ltpFR2	1	14	LIZARD	834	n/a	n/a	0	0	0
2965611	START	n/a	LTP353	ltpFR2	1	n/a	n/a	n/a	20	n/a	n/a	n/a	n/a
2966575	DISTRACTOR	n/a	LTP353	ltpFR2	1	14	n/a	n/a	n/a	n/a	0	0	0
2966594	PROB	n/a	LTP353	ltpFR2	1	n/a	n/a	n/a	20	10	4	5	1
2968242	PROB	n/a	LTP353	ltpFR2	1	n/a	n/a	n/a	20	13	5	2	6
2970141	PROB	n/a	LTP353	ltpFR2	1	n/a	n/a	n/a	20	9	3	1	5
2971940	PROB	n/a	LTP353	ltpFR2	1	n/a	n/a	n/a	20	16	8	6	2
2973556	PROB	n/a	LTP353	ltpFR2	1	n/a	n/a	n/a	20	21	4	8	9
2977188	PROB	n/a	LTP353	ltpFR2	1	n/a	n/a	n/a	20	9	4	2	3
2980353	PROB	n/a	LTP353	ltpFR2	1	n/a	n/a	n/a	20	15	3	6	7
2981869	PROB	n/a	LTP353	ltpFR2	1	n/a	n/a	n/a	20	19	8	6	5
2983319	PROB	n/a	LTP353	ltpFR2	1	n/a	n/a	n/a	20	7	2	3	2
2985484	PROB	n/a	LTP353	ltpFR2	1	n/a	n/a	n/a	20	16	8	4	2
2986750	PROB	n/a	LTP353	ltpFR2	1	n/a	n/a	n/a	20	16	2	9	5
2988880	STOP	n/a	LTP353	ltpFR2	1	n/a	n/a	n/a	20	n/a	n/a	n/a	n/a
2991382	REC_START	n/a	LTP353	ltpFR2	1	14	n/a	n/a	n/a	n/a	0	0	0
2992676	REC_WORD	wordpools/wasnorm_wordpool_576.txt	LTP353	ltpFR2	1	14	TROUT	1511	n/a	n/a	0	0	0
2993972	REC_WORD	wordpools/wasnorm_wordpool_576.txt	LTP353	ltpFR2	1	14	ZEBRA	1635	n/a	n/a	0	0	0
2995432	REC_WORD	wordpools/wasnorm_wordpool_576.txt	LTP353	ltpFR2	1	14	MISSILE	900	n/a	n/a	0	0	0
3095652	DISTRACTOR	n/a	LTP353	ltpFR2	1	15	n/a	n/a	n/a	n/a	0	0	0
3095652	START	n/a	LTP353	ltpFR2	1	n/a	n/a	n/a	21	n/a	n/a	n/a	n/a
3095669	PROB	n/a	LTP353	ltpFR2	1	n/a	n/a	n/a	21	14	7	3	4
3097817	PROB	n/a	LTP353	ltpFR2	1	n/a	n/a	n/a	21	21	9	8	4
3099684	PROB	n/a	LTP353	ltpFR2	1	n/a	n/a	n/a	21	11	2	4	5
3101432	PROB	n/a	LTP353	ltpFR2	1	n/a	n/a	n/a	21	17	5	3	9
3103298	PROB	n/a	LTP353	ltpFR2	1	n/a	n/a	n/a	21	12	2	1	9
3105681	PROB	n/a	LTP353	ltpFR2	1	n/a	n/a	n/a	21	8	2	4	2
3107496	PROB	n/a	LTP353	ltpFR2	1	n/a	n/a	n/a	21	12	3	7	2
3108713	PROB	n/a	LTP353	ltpFR2	1	n/a	n/a	n/a	21	17	2	7	8
3110794	PROB	n/a	LTP353	ltpFR2	1	n/a	n/a	n/a	21	13	1	4	3
3112760	PROB	n/a	LTP353	ltpFR2	1	n/a	n/a	n/a	21	20	8	9	3
3114326	PROB	n/a	LTP353	ltpFR2	1	n/a	n/a	n/a	21	8	5	1	2
3116392	PROB	n/a	LTP353	ltpFR2	1	n/a	n/a	n/a	21	19	2	9	8
3118572	STOP	n/a	LTP353	ltpFR2	1	n/a	n/a	n/a	21	n/a	n/a	n/a	n/a
3120473	WORD	wordpools/wasnorm_wordpool_576.txt	LTP353	ltpFR2	1	15	SNACK	1331	n/a	n/a	0	0	0
3123305	WORD	wordpools/wasnorm_wordpool_576.txt	LTP353	ltpFR2	1	15	ICING	732	n/a	n/a	0	0	0
3126037	WORD	wordpools/wasnorm_wordpool_576.txt	LTP353	ltpFR2	1	15	ICEBERG	731	n/a	n/a	0	0	0
3128704	WORD	wordpools/wasnorm_wordpool_576.txt	LTP353	ltpFR2	1	15	GLOVE	642	n/a	n/a	0	0	0
3131518	WORD	wordpools/wasnorm_wordpool_576.txt	LTP353	ltpFR2	1	15	CATCHER	258	n/a	n/a	0	0	0
3134284	WORD	wordpools/wasnorm_wordpool_576.txt	LTP353	ltpFR2	1	15	SCRIBBLE	1256	n/a	n/a	0	0	0
3136783	WORD	wordpools/wasnorm_wordpool_576.txt	LTP353	ltpFR2	1	15	HOOK	715	n/a	n/a	0	0	0
3139515	WORD	wordpools/wasnorm_wordpool_576.txt	LTP353	ltpFR2	1	15	JELLO	754	n/a	n/a	0	0	0
3142014	WORD	wordpools/wasnorm_wordpool_576.txt	LTP353	ltpFR2	1	15	CLOCK	325	n/a	n/a	0	0	0
3144630	WORD	wordpools/wasnorm_wordpool_576.txt	LTP353	ltpFR2	1	15	LAGOON	795	n/a	n/a	0	0	0
3147245	WORD	wordpools/wasnorm_wordpool_576.txt	LTP353	ltpFR2	1	15	COWBOY	395	n/a	n/a	0	0	0
3150060	WORD	wordpools/wasnorm_wordpool_576.txt	LTP353	ltpFR2	1	15	SADDLE	1221	n/a	n/a	0	0	0
3152492	WORD	wordpools/wasnorm_wordpool_576.txt	LTP353	ltpFR2	1	15	UMPIRE	1535	n/a	n/a	0	0	0
3155041	WORD	wordpools/wasnorm_wordpool_576.txt	LTP353	ltpFR2	1	15	HONEY	713	n/a	n/a	0	0	0
3157856	WORD	wordpools/wasnorm_wordpool_576.txt	LTP353	ltpFR2	1	15	JUDGE	761	n/a	n/a	0	0	0
3160539	WORD	wordpools/wasnorm_wordpool_576.txt	LTP353	ltpFR2	1	15	BATHTUB	100	n/a	n/a	0	0	0
3162971	WORD	wordpools/wasnorm_wordpool_576.txt	LTP353	ltpFR2	1	15	HIKER	708	n/a	n/a	0	0	0
3165670	WORD	wordpools/wasnorm_wordpool_576.txt	LTP353	ltpFR2	1	15	TROMBONE	1508	n/a	n/a	0	0	0
3168285	WORD	wordpools/wasnorm_wordpool_576.txt	LTP353	ltpFR2	1	15	WRENCH	1625	n/a	n/a	0	0	0
3171034	WORD	wordpools/wasnorm_wordpool_576.txt	LTP353	ltpFR2	1	15	PLIERS	1089	n/a	n/a	0	0	0
3173600	WORD	wordpools/wasnorm_wordpool_576.txt	LTP353	ltpFR2	1	15	SPOOL	1356	n/a	n/a	0	0	0
3176098	WORD	wordpools/wasnorm_wordpool_576.txt	LTP353	ltpFR2	1	15	BRICK	172	n/a	n/a	0	0	0
3178913	WORD	wordpools/wasnorm_wordpool_576.txt	LTP353	ltpFR2	1	15	PLUTO	1092	n/a	n/a	0	0	0
3181613	WORD	wordpools/wasnorm_wordpool_576.txt	LTP353	ltpFR2	1	15	ONION	977	n/a	n/a	0	0	0
3183228	START	n/a	LTP353	ltpFR2	1	n/a	n/a	n/a	22	n/a	n/a	n/a	n/a
3184119	DISTRACTOR	n/a	LTP353	ltpFR2	1	15	n/a	n/a	n/a	n/a	0	0	0
3184130	PROB	n/a	LTP353	ltpFR2	1	n/a	n/a	n/a	22	12	3	8	1
3185760	PROB	n/a	LTP353	ltpFR2	1	n/a	n/a	n/a	22	13	9	7	3
3187476	PROB	n/a	LTP353	ltpFR2	1	n/a	n/a	n/a	22	15	3	3	9
3189242	PROB	n/a	LTP353	ltpFR2	1	n/a	n/a	n/a	22	16	7	8	1
3191158	PROB	n/a	LTP353	ltpFR2	1	n/a	n/a	n/a	22	20	9	9	2
3192790	PROB	n/a	LTP353	ltpFR2	1	n/a	n/a	n/a	22	15	8	2	5
3194691	PROB	n/a	LTP353	ltpFR2	1	n/a	n/a	n/a	22	18	9	7	2
3197222	PROB	n/a	LTP353	ltpFR2	1	n/a	n/a	n/a	22	15	6	8	1
3198622	PROB	n/a	LTP353	ltpFR2	1	n/a	n/a	n/a	22	16	6	9	5
3200737	PROB	n/a	LTP353	ltpFR2	1	n/a	n/a	n/a	22	14	9	1	4
3202403	PROB	n/a	LTP353	ltpFR2	1	n/a	n/a	n/a	22	15	8	4	3
3207227	STOP	n/a	LTP353	ltpFR2	1	n/a	n/a	n/a	22	n/a	n/a	n/a	n/a
3209000	REC_START	n/a	LTP353	ltpFR2	1	15	n/a	n/a	n/a	n/a	0	0	0
3209385	REC_WORD	wordpools/wasnorm_wordpool_576.txt	LTP353	ltpFR2	1	15	ICING	732	n/a	n/a	0	0	0
3210625	REC_WORD	wordpools/wasnorm_wordpool_576.txt	LTP353	ltpFR2	1	15	ICEBERG	731	n/a	n/a	0	0	0
3212374	REC_WORD	wordpools/wasnorm_wordpool_576.txt	LTP353	ltpFR2	1	15	SCRIBBLE	1256	n/a	n/a	0	0	0
3299459	WORD	wordpools/wasnorm_wordpool_576.txt	LTP353	ltpFR2	1	16	BEAVER	109	n/a	n/a	0	0	0
3301975	WORD	wordpools/wasnorm_wordpool_576.txt	LTP353	ltpFR2	1	16	BUTCHER	203	n/a	n/a	0	0	0
3304724	WORD	wordpools/wasnorm_wordpool_576.txt	LTP353	ltpFR2	1	16	MEAT	883	n/a	n/a	0	0	0
3307172	WORD	wordpools/wasnorm_wordpool_576.txt	LTP353	ltpFR2	1	16	SPHINX	1349	n/a	n/a	0	0	0
3309821	WORD	wordpools/wasnorm_wordpool_576.txt	LTP353	ltpFR2	1	16	SERVANT	1271	n/a	n/a	0	0	0
3312453	WORD	wordpools/wasnorm_wordpool_576.txt	LTP353	ltpFR2	1	16	CITRUS	313	n/a	n/a	0	0	0
3315185	WORD	wordpools/wasnorm_wordpool_576.txt	LTP353	ltpFR2	1	16	FARMER	553	n/a	n/a	0	0	0
3317834	WORD	wordpools/wasnorm_wordpool_576.txt	LTP353	ltpFR2	1	16	OX	994	n/a	n/a	0	0	0
3320601	WORD	wordpools/wasnorm_wordpool_576.txt	LTP353	ltpFR2	1	16	TWIG	1527	n/a	n/a	0	0	0
3323332	WORD	wordpools/wasnorm_wordpool_576.txt	LTP353	ltpFR2	1	16	STONE	1385	n/a	n/a	0	0	0
3325947	WORD	wordpools/wasnorm_wordpool_576.txt	LTP353	ltpFR2	1	16	PEBBLE	1035	n/a	n/a	0	0	0
3328680	WORD	wordpools/wasnorm_wordpool_576.txt	LTP353	ltpFR2	1	16	LODGE	839	n/a	n/a	0	0	0
3331245	WORD	wordpools/wasnorm_wordpool_576.txt	LTP353	ltpFR2	1	16	GIRL	637	n/a	n/a	0	0	0
3333695	WORD	wordpools/wasnorm_wordpool_576.txt	LTP353	ltpFR2	1	16	MISTER	901	n/a	n/a	0	0	0
3336176	WORD	wordpools/wasnorm_wordpool_576.txt	LTP353	ltpFR2	1	16	SWITCH	1422	n/a	n/a	0	0	0
3338642	WORD	wordpools/wasnorm_wordpool_576.txt	LTP353	ltpFR2	1	16	EXPERT	543	n/a	n/a	0	0	0
3341390	WORD	wordpools/wasnorm_wordpool_576.txt	LTP353	ltpFR2	1	16	DINER	467	n/a	n/a	0	0	0
3344073	WORD	wordpools/wasnorm_wordpool_576.txt	LTP353	ltpFR2	1	16	COUNTRY	388	n/a	n/a	0	0	0
3346538	WORD	wordpools/wasnorm_wordpool_576.txt	LTP353	ltpFR2	1	16	GRILL	661	n/a	n/a	0	0	0
3349203	WORD	wordpools/wasnorm_wordpool_576.txt	LTP353	ltpFR2	1	16	TUNNEL	1519	n/a	n/a	0	0	0
3351935	WORD	wordpools/wasnorm_wordpool_576.txt	LTP353	ltpFR2	1	16	WORKER	1621	n/a	n/a	0	0	0
3354618	WORD	wordpools/wasnorm_wordpool_576.txt	LTP353	ltpFR2	1	16	APPLE	33	n/a	n/a	0	0	0
3357333	WORD	wordpools/wasnorm_wordpool_576.txt	LTP353	ltpFR2	1	16	CYCLONE	431	n/a	n/a	0	0	0
3359965	WORD	wordpools/wasnorm_wordpool_576.txt	LTP353	ltpFR2	1	16	GIFT	635	n/a	n/a	0	0	0
3361582	START	n/a	LTP353	ltpFR2	1	n/a	n/a	n/a	23	n/a	n/a	n/a	n/a
3362641	DISTRACTOR	n/a	LTP353	ltpFR2	1	16	n/a	n/a	n/a	n/a	0	0	0
3362648	PROB	n/a	LTP353	ltpFR2	1	n/a	n/a	n/a	23	19	2	8	9
3364430	PROB	n/a	LTP353	ltpFR2	1	n/a	n/a	n/a	23	7	3	1	3
3366112	PROB	n/a	LTP353	ltpFR2	1	n/a	n/a	n/a	23	14	1	8	5
3367861	PROB	n/a	LTP353	ltpFR2	1	n/a	n/a	n/a	23	19	2	9	8
3369761	PROB	n/a	LTP353	ltpFR2	1	n/a	n/a	n/a	23	17	3	8	6
3371493	PROB	n/a	LTP353	ltpFR2	1	n/a	n/a	n/a	23	15	8	5	2
3377274	PROB	n/a	LTP353	ltpFR2	1	n/a	n/a	n/a	23	16	4	4	8
3379607	PROB	n/a	LTP353	ltpFR2	1	n/a	n/a	n/a	23	7	4	1	2
3380972	PROB	n/a	LTP353	ltpFR2	1	n/a	n/a	n/a	23	14	4	4	6
3383005	PROB	n/a	LTP353	ltpFR2	1	n/a	n/a	n/a	23	21	6	8	7
3384997	STOP	n/a	LTP353	ltpFR2	1	n/a	n/a	n/a	23	n/a	n/a	n/a	n/a
3387420	REC_START	n/a	LTP353	ltpFR2	1	16	n/a	n/a	n/a	n/a	0	0	0
3388038	REC_WORD	wordpools/wasnorm_wordpool_576.txt	LTP353	ltpFR2	1	16	CYCLONE	431	n/a	n/a	0	0	0
3389286	REC_WORD	wordpools/wasnorm_wordpool_576.txt	LTP353	ltpFR2	1	16	BEAVER	109	n/a	n/a	0	0	0
3397851	REC_WORD	wordpools/wasnorm_wordpool_576.txt	LTP353	ltpFR2	1	16	STONE	1385	n/a	n/a	0	0	0
3398925	REC_WORD	wordpools/wasnorm_wordpool_576.txt	LTP353	ltpFR2	1	16	PEBBLE	1035	n/a	n/a	0	0	0
3400139	REC_WORD	wordpools/wasnorm_wordpool_576.txt	LTP353	ltpFR2	1	16	LODGE	839	n/a	n/a	0	0	0
3463951	REST_REWET	n/a	LTP353	ltpFR2	1	16	n/a	n/a	n/a	n/a	0	0	0
3656731	DISTRACTOR	n/a	LTP353	ltpFR2	1	17	n/a	n/a	n/a	n/a	0	0	0
3656731	START	n/a	LTP353	ltpFR2	1	n/a	n/a	n/a	24	n/a	n/a	n/a	n/a
3656747	PROB	n/a	LTP353	ltpFR2	1	n/a	n/a	n/a	24	7	3	2	2
3658946	PROB	n/a	LTP353	ltpFR2	1	n/a	n/a	n/a	24	10	1	5	4
3661229	PROB	n/a	LTP353	ltpFR2	1	n/a	n/a	n/a	24	21	7	7	7
3662596	PROB	n/a	LTP353	ltpFR2	1	n/a	n/a	n/a	24	14	2	7	5
3664327	PROB	n/a	LTP353	ltpFR2	1	n/a	n/a	n/a	24	16	6	6	4
3666177	PROB	n/a	LTP353	ltpFR2	1	n/a	n/a	n/a	24	9	1	7	1
3667727	PROB	n/a	LTP353	ltpFR2	1	n/a	n/a	n/a	24	10	1	4	3
3669693	PROB	n/a	LTP353	ltpFR2	1	n/a	n/a	n/a	24	23	8	8	7
3672490	PROB	n/a	LTP353	ltpFR2	1	n/a	n/a	n/a	24	19	3	8	8
3674456	PROB	n/a	LTP353	ltpFR2	1	n/a	n/a	n/a	24	21	5	9	7
3676139	PROB	n/a	LTP353	ltpFR2	1	n/a	n/a	n/a	24	21	8	5	9
3680607	STOP	n/a	LTP353	ltpFR2	1	n/a	n/a	n/a	24	n/a	n/a	n/a	n/a
3681819	WORD	wordpools/wasnorm_wordpool_576.txt	LTP353	ltpFR2	1	17	FLASK	576	n/a	n/a	0	0	0
3684518	WORD	wordpools/wasnorm_wordpool_576.txt	LTP353	ltpFR2	1	17	MARINE	869	n/a	n/a	0	0	0
3687284	WORD	wordpools/wasnorm_wordpool_576.txt	LTP353	ltpFR2	1	17	POISON	1096	n/a	n/a	0	0	0
3690066	WORD	wordpools/wasnorm_wordpool_576.txt	LTP353	ltpFR2	1	17	CHILD	299	n/a	n/a	0	0	0
3692682	WORD	wordpools/wasnorm_wordpool_576.txt	LTP353	ltpFR2	1	17	WORLD	1622	n/a	n/a	0	0	0
3695330	WORD	wordpools/wasnorm_wordpool_576.txt	LTP353	ltpFR2	1	17	LEG	809	n/a	n/a	0	0	0
3697945	WORD	wordpools/wasnorm_wordpool_576.txt	LTP353	ltpFR2	1	17	COBRA	336	n/a	n/a	0	0	0
3700478	WORD	wordpools/wasnorm_wordpool_576.txt	LTP353	ltpFR2	1	17	TOMBSTONE	1478	n/a	n/a	0	0	0
3702943	WORD	wordpools/wasnorm_wordpool_576.txt	LTP353	ltpFR2	1	17	MARS	873	n/a	n/a	0	0	0
3705710	WORD	wordpools/wasnorm_wordpool_576.txt	LTP353	ltpFR2	1	17	GHETTO	633	n/a	n/a	0	0	0
3708491	WORD	wordpools/wasnorm_wordpool_576.txt	LTP353	ltpFR2	1	17	CARROT	249	n/a	n/a	0	0	0
3711006	WORD	wordpools/wasnorm_wordpool_576.txt	LTP353	ltpFR2	1	17	KITCHEN	778	n/a	n/a	0	0	0
3713538	WORD	wordpools/wasnorm_wordpool_576.txt	LTP353	ltpFR2	1	17	TOASTER	1472	n/a	n/a	0	0	0
3716321	WORD	wordpools/wasnorm_wordpool_576.txt	LTP353	ltpFR2	1	17	LAMP	798	n/a	n/a	0	0	0
3719069	WORD	wordpools/wasnorm_wordpool_576.txt	LTP353	ltpFR2	1	17	FLASHLIGHT	575	n/a	n/a	0	0	0
3721751	WORD	wordpools/wasnorm_wordpool_576.txt	LTP353	ltpFR2	1	17	ANKLE	24	n/a	n/a	0	0	0
3724350	WORD	wordpools/wasnorm_wordpool_576.txt	LTP353	ltpFR2	1	17	BASEMENT	94	n/a	n/a	0	0	0
3726832	WORD	wordpools/wasnorm_wordpool_576.txt	LTP353	ltpFR2	1	17	PIZZA	1079	n/a	n/a	0	0	0
3729281	WORD	wordpools/wasnorm_wordpool_576.txt	LTP353	ltpFR2	1	17	MASK	876	n/a	n/a	0	0	0
3732047	WORD	wordpools/wasnorm_wordpool_576.txt	LTP353	ltpFR2	1	17	FRAGRANCE	599	n/a	n/a	0	0	0
3734713	WORD	wordpools/wasnorm_wordpool_576.txt	LTP353	ltpFR2	1	17	HOOD	714	n/a	n/a	0	0	0
3737344	WORD	wordpools/wasnorm_wordpool_576.txt	LTP353	ltpFR2	1	17	DRINK	498	n/a	n/a	0	0	0
3739993	WORD	wordpools/wasnorm_wordpool_576.txt	LTP353	ltpFR2	1	17	TRENCH	1503	n/a	n/a	0	0	0
3742759	WORD	wordpools/wasnorm_wordpool_576.txt	LTP353	ltpFR2	1	17	COLONEL	348	n/a	n/a	0	0	0
3744375	START	n/a	LTP353	ltpFR2	1	n/a	n/a	n/a	25	n/a	n/a	n/a	n/a
3745365	DISTRACTOR	n/a	LTP353	ltpFR2	1	17	n/a	n/a	n/a	n/a	0	0	0
3745374	PROB	n/a	LTP353	ltpFR2	1	n/a	n/a	n/a	25	13	3	3	7
3748040	PROB	n/a	LTP353	ltpFR2	1	n/a	n/a	n/a	25	15	4	6	5
3749289	PROB	n/a	LTP353	ltpFR2	1	n/a	n/a	n/a	25	18	6	8	4
3751255	PROB	n/a	LTP353	ltpFR2	1	n/a	n/a	n/a	25	23	9	8	8
3754470	PROB	n/a	LTP353	ltpFR2	1	n/a	n/a	n/a	25	14	5	7	2
3756153	PROB	n/a	LTP353	ltpFR2	1	n/a	n/a	n/a	25	18	7	6	5
3758035	PROB	n/a	LTP353	ltpFR2	1	n/a	n/a	n/a	25	26	8	8	6
3761150	PROB	n/a	LTP353	ltpFR2	1	n/a	n/a	n/a	25	16	6	1	9
3763466	PROB	n/a	LTP353	ltpFR2	1	n/a	n/a	n/a	25	11	8	2	1
3764949	PROB	n/a	LTP353	ltpFR2	1	n/a	n/a	n/a	25	11	3	5	3
3766921	STOP	n/a	LTP353	ltpFR2	1	n/a	n/a	n/a	25	n/a	n/a	n/a	n/a
3770247	REC_START	n/a	LTP353	ltpFR2	1	17	n/a	n/a	n/a	n/a	0	0	0
3771177	REC_WORD	wordpools/wasnorm_wordpool_576.txt	LTP353	ltpFR2	1	17	COLONEL	348	n/a	n/a	0	0	0
3772056	REC_WORD	wordpools/wasnorm_wordpool_576.txt	LTP353	ltpFR2	1	17	TRENCH	1503	n/a	n/a	0	0	0
3772874	REC_WORD	wordpools/wasnorm_wordpool_576.txt	LTP353	ltpFR2	1	17	FLASHLIGHT	575	n/a	n/a	0	0	0
3773765	REC_WORD	wordpools/wasnorm_wordpool_576.txt	LTP353	ltpFR2	1	17	FLASHLIGHT	575	n/a	n/a	0	0	0
3775338	REC_WORD	wordpools/wasnorm_wordpool_576.txt	LTP353	ltpFR2	1	17	HOOD	714	n/a	n/a	0	0	0
3776320	REC_WORD	wordpools/wasnorm_wordpool_576.txt	LTP353	ltpFR2	1	17	GHETTO	633	n/a	n/a	0	0	0
3778057	REC_WORD	wordpools/wasnorm_wordpool_576.txt	LTP353	ltpFR2	1	17	DRINK	498	n/a	n/a	0	0	0
3788665	REC_WORD	wordpools/wasnorm_wordpool_576.txt	LTP353	ltpFR2	1	17	TRENCH	1503	n/a	n/a	0	0	0
3793528	REC_WORD	wordpools/wasnorm_wordpool_576.txt	LTP353	ltpFR2	1	17	BASEMENT	94	n/a	n/a	0	0	0
3860673	DISTRACTOR	n/a	LTP353	ltpFR2	1	18	n/a	n/a	n/a	n/a	0	0	0
3860673	START	n/a	LTP353	ltpFR2	1	n/a	n/a	n/a	26	n/a	n/a	n/a	n/a
3860690	PROB	n/a	LTP353	ltpFR2	1	n/a	n/a	n/a	26	12	5	2	5
3862171	PROB	n/a	LTP353	ltpFR2	1	n/a	n/a	n/a	26	25	9	9	7
3866519	PROB	n/a	LTP353	ltpFR2	1	n/a	n/a	n/a	26	8	4	3	1
3868568	PROB	n/a	LTP353	ltpFR2	1	n/a	n/a	n/a	26	19	6	4	9
3871534	PROB	n/a	LTP353	ltpFR2	1	n/a	n/a	n/a	26	14	2	3	9
3873399	PROB	n/a	LTP353	ltpFR2	1	n/a	n/a	n/a	26	4	2	1	1
3874882	PROB	n/a	LTP353	ltpFR2	1	n/a	n/a	n/a	26	16	6	5	5
3876232	PROB	n/a	LTP353	ltpFR2	1	n/a	n/a	n/a	26	21	3	9	9
3878081	PROB	n/a	LTP353	ltpFR2	1	n/a	n/a	n/a	26	10	4	5	1
3879813	PROB	n/a	LTP353	ltpFR2	1	n/a	n/a	n/a	26	13	8	1	4
3881562	PROB	n/a	LTP353	ltpFR2	1	n/a	n/a	n/a	26	13	1	9	3
3884673	STOP	n/a	LTP353	ltpFR2	1	n/a	n/a	n/a	26	n/a	n/a	n/a	n/a
3885612	WORD	wordpools/wasnorm_wordpool_576.txt	LTP353	ltpFR2	1	18	RAZOR	1171	n/a	n/a	0	0	0
3888209	WORD	wordpools/wasnorm_wordpool_576.txt	LTP353	ltpFR2	1	18	ELBOW	520	n/a	n/a	0	0	0
3890693	WORD	wordpools/wasnorm_wordpool_576.txt	LTP353	ltpFR2	1	18	EAGLE	512	n/a	n/a	0	0	0
3893391	WORD	wordpools/wasnorm_wordpool_576.txt	LTP353	ltpFR2	1	18	COFFEE	341	n/a	n/a	0	0	0
3895989	WORD	wordpools/wasnorm_wordpool_576.txt	LTP353	ltpFR2	1	18	SHERIFF	1284	n/a	n/a	0	0	0
3898488	WORD	wordpools/wasnorm_wordpool_576.txt	LTP353	ltpFR2	1	18	BRANCH	168	n/a	n/a	0	0	0
3901070	WORD	wordpools/wasnorm_wordpool_576.txt	LTP353	ltpFR2	1	18	FLUTE	585	n/a	n/a	0	0	0
3903604	WORD	wordpools/wasnorm_wordpool_576.txt	LTP353	ltpFR2	1	18	CONCERT	360	n/a	n/a	0	0	0
3906285	WORD	wordpools/wasnorm_wordpool_576.txt	LTP353	ltpFR2	1	18	ARMY	39	n/a	n/a	0	0	0
3908983	WORD	wordpools/wasnorm_wordpool_576.txt	LTP353	ltpFR2	1	18	RECEIPT	1173	n/a	n/a	0	0	0
3911566	WORD	wordpools/wasnorm_wordpool_576.txt	LTP353	ltpFR2	1	18	PASSAGE	1019	n/a	n/a	0	0	0
3914148	WORD	wordpools/wasnorm_wordpool_576.txt	LTP353	ltpFR2	1	18	NOVEL	960	n/a	n/a	0	0	0
3916946	WORD	wordpools/wasnorm_wordpool_576.txt	LTP353	ltpFR2	1	18	STAMP	1370	n/a	n/a	0	0	0
3919529	WORD	wordpools/wasnorm_wordpool_576.txt	LTP353	ltpFR2	1	18	CROSS	413	n/a	n/a	0	0	0
3922227	WORD	wordpools/wasnorm_wordpool_576.txt	LTP353	ltpFR2	1	18	LEADER	807	n/a	n/a	0	0	0
3924727	WORD	wordpools/wasnorm_wordpool_576.txt	LTP353	ltpFR2	1	18	BLADE	134	n/a	n/a	0	0	0
3927325	WORD	wordpools/wasnorm_wordpool_576.txt	LTP353	ltpFR2	1	18	DRESSER	496	n/a	n/a	0	0	0
3930041	WORD	wordpools/wasnorm_wordpool_576.txt	LTP353	ltpFR2	1	18	BRIEFCASE	175	n/a	n/a	0	0	0
3932724	WORD	wordpools/wasnorm_wordpool_576.txt	LTP353	ltpFR2	1	18	LUMBER	848	n/a	n/a	0	0	0
3935288	WORD	wordpools/wasnorm_wordpool_576.txt	LTP353	ltpFR2	1	18	HATCHET	691	n/a	n/a	0	0	0
3938004	WORD	wordpools/wasnorm_wordpool_576.txt	LTP353	ltpFR2	1	18	SHIRT	1287	n/a	n/a	0	0	0
3940653	WORD	wordpools/wasnorm_wordpool_576.txt	LTP353	ltpFR2	1	18	SEAL	1262	n/a	n/a	0	0	0
3943451	WORD	wordpools/wasnorm_wordpool_576.txt	LTP353	ltpFR2	1	18	MAILBOX	857	n/a	n/a	0	0	0
3945983	WORD	wordpools/wasnorm_wordpool_576.txt	LTP353	ltpFR2	1	18	LADDER	793	n/a	n/a	0	0	0
3947600	START	n/a	LTP353	ltpFR2	1	n/a	n/a	n/a	27	n/a	n/a	n/a	n/a
3948673	DISTRACTOR	n/a	LTP353	ltpFR2	1	18	n/a	n/a	n/a	n/a	0	0	0
3948683	PROB	n/a	LTP353	ltpFR2	1	n/a	n/a	n/a	27	11	1	8	2
3950231	PROB	n/a	LTP353	ltpFR2	1	n/a	n/a	n/a	27	20	9	3	8
3952780	PROB	n/a	LTP353	ltpFR2	1	n/a	n/a	n/a	27	14	5	2	7
3955429	PROB	n/a	LTP353	ltpFR2	1	n/a	n/a	n/a	27	12	1	4	7
3958294	PROB	n/a	LTP353	ltpFR2	1	n/a	n/a	n/a	27	18	8	2	8
3960477	PROB	n/a	LTP353	ltpFR2	1	n/a	n/a	n/a	27	15	9	2	4
3964791	PROB	n/a	LTP353	ltpFR2	1	n/a	n/a	n/a	27	11	6	2	3
3966741	PROB	n/a	LTP353	ltpFR2	1	n/a	n/a	n/a	27	11	3	1	8
3968691	PROB	n/a	LTP353	ltpFR2	1	n/a	n/a	n/a	27	9	6	1	2
3970975	STOP	n/a	LTP353	ltpFR2	1	n/a	n/a	n/a	27	n/a	n/a	n/a	n/a
3973421	REC_START	n/a	LTP353	ltpFR2	1	18	n/a	n/a	n/a	n/a	0	0	0
3982819	REC_WORD	wordpools/wasnorm_wordpool_576.txt	LTP353	ltpFR2	1	18	COFFEE	341	n/a	n/a	0	0	0
3989418	REC_WORD	wordpools/wasnorm_wordpool_576.txt	LTP353	ltpFR2	1	18	ELBOW	520	n/a	n/a	0	0	0
4063880	WORD	wordpools/wasnorm_wordpool_576.txt	LTP353	ltpFR2	1	19	JOURNAL	760	n/a	n/a	0	0	0
4066462	WORD	wordpools/wasnorm_wordpool_576.txt	LTP353	ltpFR2	1	19	JUNGLE	764	n/a	n/a	0	0	0
4069278	WORD	wordpools/wasnorm_wordpool_576.txt	LTP353	ltpFR2	1	19	GOBLIN	645	n/a	n/a	0	0	0
4072093	WORD	wordpools/wasnorm_wordpool_576.txt	LTP353	ltpFR2	1	19	GROUND	666	n/a	n/a	0	0	0
4074693	WORD	wordpools/wasnorm_wordpool_576.txt	LTP353	ltpFR2	1	19	WIDOW	1608	n/a	n/a	0	0	0
4077474	WORD	wordpools/wasnorm_wordpool_576.txt	LTP353	ltpFR2	1	19	PEANUT	1032	n/a	n/a	0	0	0
4079956	WORD	wordpools/wasnorm_wordpool_576.txt	LTP353	ltpFR2	1	19	COLLEGE	346	n/a	n/a	0	0	0
4082738	WORD	wordpools/wasnorm_wordpool_576.txt	LTP353	ltpFR2	1	19	PENGUIN	1044	n/a	n/a	0	0	0
4085404	WORD	wordpools/wasnorm_wordpool_576.txt	LTP353	ltpFR2	1	19	PUPIL	1143	n/a	n/a	0	0	0
4087986	WORD	wordpools/wasnorm_wordpool_576.txt	LTP353	ltpFR2	1	19	LONDON	843	n/a	n/a	0	0	0
4090702	WORD	wordpools/wasnorm_wordpool_576.txt	LTP353	ltpFR2	1	19	FRANCE	601	n/a	n/a	0	0	0
4093333	WORD	wordpools/wasnorm_wordpool_576.txt	LTP353	ltpFR2	1	19	CRATER	400	n/a	n/a	0	0	0
4096115	WORD	wordpools/wasnorm_wordpool_576.txt	LTP353	ltpFR2	1	19	DANDRUFF	439	n/a	n/a	0	0	0
4098682	WORD	wordpools/wasnorm_wordpool_576.txt	LTP353	ltpFR2	1	19	HAMPER	682	n/a	n/a	0	0	0
4101196	WORD	wordpools/wasnorm_wordpool_576.txt	LTP353	ltpFR2	1	19	FLAG	573	n/a	n/a	0	0	0
4104012	WORD	wordpools/wasnorm_wordpool_576.txt	LTP353	ltpFR2	1	19	PAIL	1002	n/a	n/a	0	0	0
4106811	WORD	wordpools/wasnorm_wordpool_576.txt	LTP353	ltpFR2	1	19	DUST	508	n/a	n/a	0	0	0
4109259	WORD	wordpools/wasnorm_wordpool_576.txt	LTP353	ltpFR2	1	19	SCARF	1246	n/a	n/a	0	0	0
4111742	WORD	wordpools/wasnorm_wordpool_576.txt	LTP353	ltpFR2	1	19	SHOULDER	1294	n/a	n/a	0	0	0
4114507	WORD	wordpools/wasnorm_wordpool_576.txt	LTP353	ltpFR2	1	19	CHEST	295	n/a	n/a	0	0	0
4117106	WORD	wordpools/wasnorm_wordpool_576.txt	LTP353	ltpFR2	1	19	CATTLE	261	n/a	n/a	0	0	0
4119755	WORD	wordpools/wasnorm_wordpool_576.txt	LTP353	ltpFR2	1	19	MILK	895	n/a	n/a	0	0	0
4122554	WORD	wordpools/wasnorm_wordpool_576.txt	LTP353	ltpFR2	1	19	REBEL	1172	n/a	n/a	0	0	0
4125102	WORD	wordpools/wasnorm_wordpool_576.txt	LTP353	ltpFR2	1	19	PRIMATE	1123	n/a	n/a	0	0	0
4126720	START	n/a	LTP353	ltpFR2	1	n/a	n/a	n/a	28	n/a	n/a	n/a	n/a
4127565	DISTRACTOR	n/a	LTP353	ltpFR2	1	19	n/a	n/a	n/a	n/a	0	0	0
4127568	PROB	n/a	LTP353	ltpFR2	1	n/a	n/a	n/a	28	9	2	2	5
4129117	PROB	n/a	LTP353	ltpFR2	1	n/a	n/a	n/a	28	17	5	9	3
4130966	PROB	n/a	LTP353	ltpFR2	1	n/a	n/a	n/a	28	15	1	7	7
4132332	PROB	n/a	LTP353	ltpFR2	1	n/a	n/a	n/a	28	22	4	9	9
4134098	PROB	n/a	LTP353	ltpFR2	1	n/a	n/a	n/a	28	25	9	8	8
4140062	PROB	n/a	LTP353	ltpFR2	1	n/a	n/a	n/a	28	15	8	2	5
4142161	PROB	n/a	LTP353	ltpFR2	1	n/a	n/a	n/a	28	10	2	3	5
4144077	PROB	n/a	LTP353	ltpFR2	1	n/a	n/a	n/a	28	11	3	6	2
4146226	PROB	n/a	LTP353	ltpFR2	1	n/a	n/a	n/a	28	15	8	2	5
4150720	STOP	n/a	LTP353	ltpFR2	1	n/a	n/a	n/a	28	n/a	n/a	n/a	n/a
4152557	REC_START	n/a	LTP353	ltpFR2	1	19	n/a	n/a	n/a	n/a	0	0	0
4153031	REC_WORD	wordpools/wasnorm_wordpool_576.txt	LTP353	ltpFR2	1	19	REBEL	1172	n/a	n/a	0	0	0
4153875	REC_WORD	wordpools/wasnorm_wordpool_576.txt	LTP353	ltpFR2	1	19	PRIMATE	1123	n/a	n/a	0	0	0
4154866	REC_WORD	wordpools/wasnorm_wordpool_576.txt	LTP353	ltpFR2	1	19	LONDON	843	n/a	n/a	0	0	0
4155664	REC_WORD	wordpools/wasnorm_wordpool_576.txt	LTP353	ltpFR2	1	19	FRANCE	601	n/a	n/a	0	0	0
4156678	REC_WORD	wordpools/wasnorm_wordpool_576.txt	LTP353	ltpFR2	1	19	CRATER	400	n/a	n/a	0	0	0
4157664	REC_WORD	wordpools/wasnorm_wordpool_576.txt	LTP353	ltpFR2	1	19	DANDRUFF	439	n/a	n/a	0	0	0
4242999	DISTRACTOR	n/a	LTP353	ltpFR2	1	20	n/a	n/a	n/a	n/a	0	0	0
4242999	START	n/a	LTP353	ltpFR2	1	n/a	n/a	n/a	29	n/a	n/a	n/a	n/a
4243016	PROB	n/a	LTP353	ltpFR2	1	n/a	n/a	n/a	29	21	8	8	5
4244716	PROB	n/a	LTP353	ltpFR2	1	n/a	n/a	n/a	29	23	8	6	9
4246914	PROB	n/a	LTP353	ltpFR2	1	n/a	n/a	n/a	29	18	8	4	6
4248880	PROB	n/a	LTP353	ltpFR2	1	n/a	n/a	n/a	29	20	3	9	8
4250630	PROB	n/a	LTP353	ltpFR2	1	n/a	n/a	n/a	29	11	7	2	2
4252178	PROB	n/a	LTP353	ltpFR2	1	n/a	n/a	n/a	29	12	3	2	7
4253894	PROB	n/a	LTP353	ltpFR2	1	n/a	n/a	n/a	29	18	4	8	6
4257109	PROB	n/a	LTP353	ltpFR2	1	n/a	n/a	n/a	29	13	2	9	2
4259008	PROB	n/a	LTP353	ltpFR2	1	n/a	n/a	n/a	29	1	4	2	7
4260458	PROB	n/a	LTP353	ltpFR2	1	n/a	n/a	n/a	29	12	2	4	6
4262474	PROB	n/a	LTP353	ltpFR2	1	n/a	n/a	n/a	29	4	1	2	1
4263556	PROB	n/a	LTP353	ltpFR2	1	n/a	n/a	n/a	29	15	2	8	5
4265239	PROB	n/a	LTP353	ltpFR2	1	n/a	n/a	n/a	29	11	8	1	2
4266801	STOP	n/a	LTP353	ltpFR2	1	n/a	n/a	n/a	29	n/a	n/a	n/a	n/a
4268154	WORD	wordpools/wasnorm_wordpool_576.txt	LTP353	ltpFR2	1	20	FIREPLACE	570	n/a	n/a	0	0	0
4270737	WORD	wordpools/wasnorm_wordpool_576.txt	LTP353	ltpFR2	1	20	TERMITE	1451	n/a	n/a	0	0	0
4273352	WORD	wordpools/wasnorm_wordpool_576.txt	LTP353	ltpFR2	1	20	ATOM	55	n/a	n/a	0	0	0
4275918	WORD	wordpools/wasnorm_wordpool_576.txt	LTP353	ltpFR2	1	20	SISTER	1312	n/a	n/a	0	0	0
4278400	WORD	wordpools/wasnorm_wordpool_576.txt	LTP353	ltpFR2	1	20	BOUQUET	157	n/a	n/a	0	0	0
4280882	WORD	wordpools/wasnorm_wordpool_576.txt	LTP353	ltpFR2	1	20	STAR	1373	n/a	n/a	0	0	0
4283497	WORD	wordpools/wasnorm_wordpool_576.txt	LTP353	ltpFR2	1	20	CASHEW	253	n/a	n/a	0	0	0
4286180	WORD	wordpools/wasnorm_wordpool_576.txt	LTP353	ltpFR2	1	20	DRAWING	494	n/a	n/a	0	0	0
4288795	WORD	wordpools/wasnorm_wordpool_576.txt	LTP353	ltpFR2	1	20	OUTFIT	988	n/a	n/a	0	0	0
4291560	WORD	wordpools/wasnorm_wordpool_576.txt	LTP353	ltpFR2	1	20	CREVICE	405	n/a	n/a	0	0	0
4294176	WORD	wordpools/wasnorm_wordpool_576.txt	LTP353	ltpFR2	1	20	RELISH	1183	n/a	n/a	0	0	0
4296626	WORD	wordpools/wasnorm_wordpool_576.txt	LTP353	ltpFR2	1	20	KETCHUP	771	n/a	n/a	0	0	0
4299257	WORD	wordpools/wasnorm_wordpool_576.txt	LTP353	ltpFR2	1	20	DRESS	495	n/a	n/a	0	0	0
4301889	WORD	wordpools/wasnorm_wordpool_576.txt	LTP353	ltpFR2	1	20	RADISH	1158	n/a	n/a	0	0	0
4304505	WORD	wordpools/wasnorm_wordpool_576.txt	LTP353	ltpFR2	1	20	NECKLACE	940	n/a	n/a	0	0	0
4307053	WORD	wordpools/wasnorm_wordpool_576.txt	LTP353	ltpFR2	1	20	PLAZA	1088	n/a	n/a	0	0	0
4309670	WORD	wordpools/wasnorm_wordpool_576.txt	LTP353	ltpFR2	1	20	OINTMENT	974	n/a	n/a	0	0	0
4312384	WORD	wordpools/wasnorm_wordpool_576.txt	LTP353	ltpFR2	1	20	CROWN	415	n/a	n/a	0	0	0
4315000	WORD	wordpools/wasnorm_wordpool_576.txt	LTP353	ltpFR2	1	20	PRINCESS	1125	n/a	n/a	0	0	0
4317432	WORD	wordpools/wasnorm_wordpool_576.txt	LTP353	ltpFR2	1	20	NEUTRON	947	n/a	n/a	0	0	0
4320098	WORD	wordpools/wasnorm_wordpool_576.txt	LTP353	ltpFR2	1	20	PATIENT	1024	n/a	n/a	0	0	0
4322647	WORD	wordpools/wasnorm_wordpool_576.txt	LTP353	ltpFR2	1	20	SERVER	1272	n/a	n/a	0	0	0
4325328	WORD	wordpools/wasnorm_wordpool_576.txt	LTP353	ltpFR2	1	20	LUNCH	849	n/a	n/a	0	0	0
4328111	WORD	wordpools/wasnorm_wordpool_576.txt	LTP353	ltpFR2	1	20	PORTRAIT	1111	n/a	n/a	0	0	0
4329728	START	n/a	LTP353	ltpFR2	1	n/a	n/a	n/a	30	n/a	n/a	n/a	n/a
4330535	DISTRACTOR	n/a	LTP353	ltpFR2	1	20	n/a	n/a	n/a	n/a	0	0	0
4330543	PROB	n/a	LTP353	ltpFR2	1	n/a	n/a	n/a	30	18	4	5	9
4332559	PROB	n/a	LTP353	ltpFR2	1	n/a	n/a	n/a	30	14	3	7	4
4333908	PROB	n/a	LTP353	ltpFR2	1	n/a	n/a	n/a	30	16	7	3	6
4335324	PROB	n/a	LTP353	ltpFR2	1	n/a	n/a	n/a	30	16	7	8	1
4338739	PROB	n/a	LTP353	ltpFR2	1	n/a	n/a	n/a	30	17	2	8	7
4340805	PROB	n/a	LTP353	ltpFR2	1	n/a	n/a	n/a	30	22	8	6	8
4343120	PROB	n/a	LTP353	ltpFR2	1	n/a	n/a	n/a	30	16	6	7	3
4344671	PROB	n/a	LTP353	ltpFR2	1	n/a	n/a	n/a	30	18	4	6	8
4346269	PROB	n/a	LTP353	ltpFR2	1	n/a	n/a	n/a	30	16	8	5	3
4348052	PROB	n/a	LTP353	ltpFR2	1	n/a	n/a	n/a	30	11	1	7	3
4350051	PROB	n/a	LTP353	ltpFR2	1	n/a	n/a	n/a	30	15	6	2	7
4352747	STOP	n/a	LTP353	ltpFR2	1	n/a	n/a	n/a	30	n/a	n/a	n/a	n/a
4355633	REC_START	n/a	LTP353	ltpFR2	1	20	n/a	n/a	n/a	n/a	0	0	0
4356479	REC_WORD	wordpools/wasnorm_wordpool_576.txt	LTP353	ltpFR2	1	20	FIREPLACE	570	n/a	n/a	0	0	0
4357375	REC_WORD	wordpools/wasnorm_wordpool_576.txt	LTP353	ltpFR2	1	20	SERVER	1272	n/a	n/a	0	0	0
4358798	REC_WORD	wordpools/wasnorm_wordpool_576.txt	LTP353	ltpFR2	1	20	TERMITE	1451	n/a	n/a	0	0	0
4359999	REC_WORD	wordpools/wasnorm_wordpool_576.txt	LTP353	ltpFR2	1	20	ATOM	55	n/a	n/a	0	0	0
4365785	REC_WORD	wordpools/wasnorm_wordpool_576.txt	LTP353	ltpFR2	1	20	RELISH	1183	n/a	n/a	0	0	0
4366703	REC_WORD	wordpools/wasnorm_wordpool_576.txt	LTP353	ltpFR2	1	20	KETCHUP	771	n/a	n/a	0	0	0
4446074	WORD	wordpools/wasnorm_wordpool_576.txt	LTP353	ltpFR2	1	21	SEAGULL	1261	n/a	n/a	0	0	0
4448607	WORD	wordpools/wasnorm_wordpool_576.txt	LTP353	ltpFR2	1	21	CAPTIVE	240	n/a	n/a	0	0	0
4451172	WORD	wordpools/wasnorm_wordpool_576.txt	LTP353	ltpFR2	1	21	CLAMP	316	n/a	n/a	0	0	0
4453970	WORD	wordpools/wasnorm_wordpool_576.txt	LTP353	ltpFR2	1	21	DRIVER	499	n/a	n/a	0	0	0
4456419	WORD	wordpools/wasnorm_wordpool_576.txt	LTP353	ltpFR2	1	21	TRUCK	1512	n/a	n/a	0	0	0
4459185	WORD	wordpools/wasnorm_wordpool_576.txt	LTP353	ltpFR2	1	21	SLIDE	1326	n/a	n/a	0	0	0
4461900	WORD	wordpools/wasnorm_wordpool_576.txt	LTP353	ltpFR2	1	21	CABBAGE	210	n/a	n/a	0	0	0
4464416	WORD	wordpools/wasnorm_wordpool_576.txt	LTP353	ltpFR2	1	21	OYSTER	995	n/a	n/a	0	0	0
4467098	WORD	wordpools/wasnorm_wordpool_576.txt	LTP353	ltpFR2	1	21	CONTRACT	368	n/a	n/a	0	0	0
4469681	WORD	wordpools/wasnorm_wordpool_576.txt	LTP353	ltpFR2	1	21	STALLION	1369	n/a	n/a	0	0	0
4472245	WORD	wordpools/wasnorm_wordpool_576.txt	LTP353	ltpFR2	1	21	MAPLE	866	n/a	n/a	0	0	0
4474761	WORD	wordpools/wasnorm_wordpool_576.txt	LTP353	ltpFR2	1	21	SWORD	1423	n/a	n/a	0	0	0
4477560	WORD	wordpools/wasnorm_wordpool_576.txt	LTP353	ltpFR2	1	21	TILE	1468	n/a	n/a	0	0	0
4480142	WORD	wordpools/wasnorm_wordpool_576.txt	LTP353	ltpFR2	1	21	VALLEY	1545	n/a	n/a	0	0	0
4482791	WORD	wordpools/wasnorm_wordpool_576.txt	LTP353	ltpFR2	1	21	NURSE	963	n/a	n/a	0	0	0
4485373	WORD	wordpools/wasnorm_wordpool_576.txt	LTP353	ltpFR2	1	21	FOREST	593	n/a	n/a	0	0	0
4488172	WORD	wordpools/wasnorm_wordpool_576.txt	LTP353	ltpFR2	1	21	TRACTOR	1493	n/a	n/a	0	0	0
4490655	WORD	wordpools/wasnorm_wordpool_576.txt	LTP353	ltpFR2	1	21	KNIFE	785	n/a	n/a	0	0	0
4493386	WORD	wordpools/wasnorm_wordpool_576.txt	LTP353	ltpFR2	1	21	COSTUME	383	n/a	n/a	0	0	0
4495818	WORD	wordpools/wasnorm_wordpool_576.txt	LTP353	ltpFR2	1	21	MUFFIN	929	n/a	n/a	0	0	0
4498384	WORD	wordpools/wasnorm_wordpool_576.txt	LTP353	ltpFR2	1	21	GARLIC	624	n/a	n/a	0	0	0
4500866	WORD	wordpools/wasnorm_wordpool_576.txt	LTP353	ltpFR2	1	21	CANAL	226	n/a	n/a	0	0	0
4503481	WORD	wordpools/wasnorm_wordpool_576.txt	LTP353	ltpFR2	1	21	FLIPPER	580	n/a	n/a	0	0	0
4505997	WORD	wordpools/wasnorm_wordpool_576.txt	LTP353	ltpFR2	1	21	ROBOT	1200	n/a	n/a	0	0	0
4507614	START	n/a	LTP353	ltpFR2	1	n/a	n/a	n/a	31	n/a	n/a	n/a	n/a
4508416	DISTRACTOR	n/a	LTP353	ltpFR2	1	21	n/a	n/a	n/a	n/a	0	0	0
4508429	PROB	n/a	LTP353	ltpFR2	1	n/a	n/a	n/a	31	23	6	8	9
4510861	PROB	n/a	LTP353	ltpFR2	1	n/a	n/a	n/a	31	21	4	8	9
4512561	PROB	n/a	LTP353	ltpFR2	1	n/a	n/a	n/a	31	7	2	2	3
4514376	PROB	n/a	LTP353	ltpFR2	1	n/a	n/a	n/a	31	11	1	8	2
4516076	PROB	n/a	LTP353	ltpFR2	1	n/a	n/a	n/a	31	15	1	8	6
4517758	PROB	n/a	LTP353	ltpFR2	1	n/a	n/a	n/a	31	16	1	9	6
4519274	PROB	n/a	LTP353	ltpFR2	1	n/a	n/a	n/a	31	13	4	7	2
4522939	PROB	n/a	LTP353	ltpFR2	1	n/a	n/a	n/a	31	12	1	9	2
4524589	PROB	n/a	LTP353	ltpFR2	1	n/a	n/a	n/a	31	20	9	7	4
4526605	PROB	n/a	LTP353	ltpFR2	1	n/a	n/a	n/a	31	16	4	8	2
4528353	PROB	n/a	LTP353	ltpFR2	1	n/a	n/a	n/a	31	15	3	6	8
4531613	STOP	n/a	LTP353	ltpFR2	1	n/a	n/a	n/a	31	n/a	n/a	n/a	n/a
4533535	REC_START	n/a	LTP353	ltpFR2	1	21	n/a	n/a	n/a	n/a	0	0	0
4550253	REC_WORD	wordpools/wasnorm_wordpool_576.txt	LTP353	ltpFR2	1	21	SWORD	1423	n/a	n/a	0	0	0
4623960	DISTRACTOR	n/a	LTP353	ltpFR2	1	22	n/a	n/a	n/a	n/a	0	0	0
4623960	START	n/a	LTP353	ltpFR2	1	n/a	n/a	n/a	32	n/a	n/a	n/a	n/a
4623977	PROB	n/a	LTP353	ltpFR2	1	n/a	n/a	n/a	32	19	6	8	5
4626825	PROB	n/a	LTP353	ltpFR2	1	n/a	n/a	n/a	32	16	7	8	1
4628709	PROB	n/a	LTP353	ltpFR2	1	n/a	n/a	n/a	32	12	6	1	5
4630441	PROB	n/a	LTP353	ltpFR2	1	n/a	n/a	n/a	32	17	6	6	5
4632456	PROB	n/a	LTP353	ltpFR2	1	n/a	n/a	n/a	32	11	6	2	3
4634489	PROB	n/a	LTP353	ltpFR2	1	n/a	n/a	n/a	32	17	2	8	7
4635905	PROB	n/a	LTP353	ltpFR2	1	n/a	n/a	n/a	32	16	8	7	1
4637605	PROB	n/a	LTP353	ltpFR2	1	n/a	n/a	n/a	32	23	8	6	9
4640353	PROB	n/a	LTP353	ltpFR2	1	n/a	n/a	n/a	32	18	8	2	8
4641686	PROB	n/a	LTP353	ltpFR2	1	n/a	n/a	n/a	32	18	7	5	6
4647960	STOP	n/a	LTP353	ltpFR2	1	n/a	n/a	n/a	32	n/a	n/a	n/a	n/a
4648882	WORD	wordpools/wasnorm_wordpool_576.txt	LTP353	ltpFR2	1	22	AIRPLANE	12	n/a	n/a	0	0	0
4651514	WORD	wordpools/wasnorm_wordpool_576.txt	LTP353	ltpFR2	1	22	FUNGUS	614	n/a	n/a	0	0	0
4654263	WORD	wordpools/wasnorm_wordpool_576.txt	LTP353	ltpFR2	1	22	MOTEL	919	n/a	n/a	0	0	0
4657029	WORD	wordpools/wasnorm_wordpool_576.txt	LTP353	ltpFR2	1	22	CEILING	265	n/a	n/a	0	0	0
4659461	WORD	wordpools/wasnorm_wordpool_576.txt	LTP353	ltpFR2	1	22	SPONGE	1355	n/a	n/a	0	0	0
4662160	WORD	wordpools/wasnorm_wordpool_576.txt	LTP353	ltpFR2	1	22	SLOPE	1328	n/a	n/a	0	0	0
4664875	WORD	wordpools/wasnorm_wordpool_576.txt	LTP353	ltpFR2	1	22	SUMMIT	1405	n/a	n/a	0	0	0
4667424	WORD	wordpools/wasnorm_wordpool_576.txt	LTP353	ltpFR2	1	22	FRAME	600	n/a	n/a	0	0	0
4670089	WORD	wordpools/wasnorm_wordpool_576.txt	LTP353	ltpFR2	1	22	QUEEN	1149	n/a	n/a	0	0	0
4672522	WORD	wordpools/wasnorm_wordpool_576.txt	LTP353	ltpFR2	1	22	EYELASH	546	n/a	n/a	0	0	0
4675337	WORD	wordpools/wasnorm_wordpool_576.txt	LTP353	ltpFR2	1	22	GREASE	660	n/a	n/a	0	0	0
4678002	WORD	wordpools/wasnorm_wordpool_576.txt	LTP353	ltpFR2	1	22	CRITIC	410	n/a	n/a	0	0	0
4680669	WORD	wordpools/wasnorm_wordpool_576.txt	LTP353	ltpFR2	1	22	POCKET	1093	n/a	n/a	0	0	0
4683217	WORD	wordpools/wasnorm_wordpool_576.txt	LTP353	ltpFR2	1	22	GRAVE	658	n/a	n/a	0	0	0
4685732	WORD	wordpools/wasnorm_wordpool_576.txt	LTP353	ltpFR2	1	22	CASKET	255	n/a	n/a	0	0	0
4688464	WORD	wordpools/wasnorm_wordpool_576.txt	LTP353	ltpFR2	1	22	BLENDER	136	n/a	n/a	0	0	0
4690947	WORD	wordpools/wasnorm_wordpool_576.txt	LTP353	ltpFR2	1	22	ORCHID	982	n/a	n/a	0	0	0
4693429	WORD	wordpools/wasnorm_wordpool_576.txt	LTP353	ltpFR2	1	22	MOTOR	922	n/a	n/a	0	0	0
4695944	WORD	wordpools/wasnorm_wordpool_576.txt	LTP353	ltpFR2	1	22	TUTU	1524	n/a	n/a	0	0	0
4698426	WORD	wordpools/wasnorm_wordpool_576.txt	LTP353	ltpFR2	1	22	HANDBAG	684	n/a	n/a	0	0	0
4701175	WORD	wordpools/wasnorm_wordpool_576.txt	LTP353	ltpFR2	1	22	FOOT	590	n/a	n/a	0	0	0
4703658	WORD	wordpools/wasnorm_wordpool_576.txt	LTP353	ltpFR2	1	22	PALACE	1006	n/a	n/a	0	0	0
4706306	WORD	wordpools/wasnorm_wordpool_576.txt	LTP353	ltpFR2	1	22	GUARD	667	n/a	n/a	0	0	0
4708955	WORD	wordpools/wasnorm_wordpool_576.txt	LTP353	ltpFR2	1	22	CUSTARD	429	n/a	n/a	0	0	0
4710571	START	n/a	LTP353	ltpFR2	1	n/a	n/a	n/a	33	n/a	n/a	n/a	n/a
4711652	DISTRACTOR	n/a	LTP353	ltpFR2	1	22	n/a	n/a	n/a	n/a	0	0	0
4711655	PROB	n/a	LTP353	ltpFR2	1	n/a	n/a	n/a	33	10	5	3	2
4713403	PROB	n/a	LTP353	ltpFR2	1	n/a	n/a	n/a	33	9	1	6	2
4716002	PROB	n/a	LTP353	ltpFR2	1	n/a	n/a	n/a	33	13	8	3	2
4717551	PROB	n/a	LTP353	ltpFR2	1	n/a	n/a	n/a	33	18	1	9	8
4718884	PROB	n/a	LTP353	ltpFR2	1	n/a	n/a	n/a	33	15	5	8	2
4720500	PROB	n/a	LTP353	ltpFR2	1	n/a	n/a	n/a	33	19	2	9	8
4722116	PROB	n/a	LTP353	ltpFR2	1	n/a	n/a	n/a	33	20	9	4	7
4723848	PROB	n/a	LTP353	ltpFR2	1	n/a	n/a	n/a	33	9	4	1	4
4725131	PROB	n/a	LTP353	ltpFR2	1	n/a	n/a	n/a	33	1	1	8	8
4726897	PROB	n/a	LTP353	ltpFR2	1	n/a	n/a	n/a	33	19	9	4	6
4729063	PROB	n/a	LTP353	ltpFR2	1	n/a	n/a	n/a	33	22	6	8	8
4730995	PROB	n/a	LTP353	ltpFR2	1	n/a	n/a	n/a	33	13	1	9	3
4734571	STOP	n/a	LTP353	ltpFR2	1	n/a	n/a	n/a	33	n/a	n/a	n/a	n/a
4736410	REC_START	n/a	LTP353	ltpFR2	1	22	n/a	n/a	n/a	n/a	0	0	0
4737445	REC_WORD	wordpools/wasnorm_wordpool_576.txt	LTP353	ltpFR2	1	22	CUSTARD	429	n/a	n/a	0	0	0
4738961	REC_WORD	wordpools/wasnorm_wordpool_576.txt	LTP353	ltpFR2	1	22	PALACE	1006	n/a	n/a	0	0	0
4740009	REC_WORD	wordpools/wasnorm_wordpool_576.txt	LTP353	ltpFR2	1	22	GUARD	667	n/a	n/a	0	0	0
4742276	REC_WORD	wordpools/wasnorm_wordpool_576.txt	LTP353	ltpFR2	1	22	AIRPLANE	12	n/a	n/a	0	0	0
4743207	REC_WORD	wordpools/wasnorm_wordpool_576.txt	LTP353	ltpFR2	1	22	SLOPE	1328	n/a	n/a	0	0	0
4744227	REC_WORD	wordpools/wasnorm_wordpool_576.txt	LTP353	ltpFR2	1	22	SUMMIT	1405	n/a	n/a	0	0	0
4745335	REC_WORD	wordpools/wasnorm_wordpool_576.txt	LTP353	ltpFR2	1	22	MOTEL	919	n/a	n/a	0	0	0
4746387	REC_WORD	wordpools/wasnorm_wordpool_576.txt	LTP353	ltpFR2	1	22	CEILING	265	n/a	n/a	0	0	0
4747710	REC_WORD	wordpools/wasnorm_wordpool_576.txt	LTP353	ltpFR2	1	22	FUNGUS	614	n/a	n/a	0	0	0
4826852	WORD	wordpools/wasnorm_wordpool_576.txt	LTP353	ltpFR2	1	23	ROOSTER	1209	n/a	n/a	0	0	0
4829501	WORD	wordpools/wasnorm_wordpool_576.txt	LTP353	ltpFR2	1	23	WHISTLE	1606	n/a	n/a	0	0	0
4831933	WORD	wordpools/wasnorm_wordpool_576.txt	LTP353	ltpFR2	1	23	SHARK	1275	n/a	n/a	0	0	0
4834415	WORD	wordpools/wasnorm_wordpool_576.txt	LTP353	ltpFR2	1	23	LOFT	840	n/a	n/a	0	0	0
4836897	WORD	wordpools/wasnorm_wordpool_576.txt	LTP353	ltpFR2	1	23	DORM	488	n/a	n/a	0	0	0
4839413	WORD	wordpools/wasnorm_wordpool_576.txt	LTP353	ltpFR2	1	23	ASIA	46	n/a	n/a	0	0	0
4842245	WORD	wordpools/wasnorm_wordpool_576.txt	LTP353	ltpFR2	1	23	BOX	159	n/a	n/a	0	0	0
4845043	WORD	wordpools/wasnorm_wordpool_576.txt	LTP353	ltpFR2	1	23	HORNET	718	n/a	n/a	0	0	0
4847559	WORD	wordpools/wasnorm_wordpool_576.txt	LTP353	ltpFR2	1	23	SALMON	1227	n/a	n/a	0	0	0
4850241	WORD	wordpools/wasnorm_wordpool_576.txt	LTP353	ltpFR2	1	23	FRIEND	606	n/a	n/a	0	0	0
4853023	WORD	wordpools/wasnorm_wordpool_576.txt	LTP353	ltpFR2	1	23	BUBBLE	183	n/a	n/a	0	0	0
4855539	WORD	wordpools/wasnorm_wordpool_576.txt	LTP353	ltpFR2	1	23	LADY	794	n/a	n/a	0	0	0
4858288	WORD	wordpools/wasnorm_wordpool_576.txt	LTP353	ltpFR2	1	23	SPIDER	1351	n/a	n/a	0	0	0
4860970	WORD	wordpools/wasnorm_wordpool_576.txt	LTP353	ltpFR2	1	23	POSSUM	1112	n/a	n/a	0	0	0
4863619	WORD	wordpools/wasnorm_wordpool_576.txt	LTP353	ltpFR2	1	23	EUROPE	541	n/a	n/a	0	0	0
4866184	WORD	wordpools/wasnorm_wordpool_576.txt	LTP353	ltpFR2	1	23	GLOBE	641	n/a	n/a	0	0	0
4868634	WORD	wordpools/wasnorm_wordpool_576.txt	LTP353	ltpFR2	1	23	ATLAS	53	n/a	n/a	0	0	0
4871065	WORD	wordpools/wasnorm_wordpool_576.txt	LTP353	ltpFR2	1	23	ROD	1203	n/a	n/a	0	0	0
4873665	WORD	wordpools/wasnorm_wordpool_576.txt	LTP353	ltpFR2	1	23	JAPAN	749	n/a	n/a	0	0	0
4876163	WORD	wordpools/wasnorm_wordpool_576.txt	LTP353	ltpFR2	1	23	PICTURE	1061	n/a	n/a	0	0	0
4878745	WORD	wordpools/wasnorm_wordpool_576.txt	LTP353	ltpFR2	1	23	HELMET	702	n/a	n/a	0	0	0
4881510	WORD	wordpools/wasnorm_wordpool_576.txt	LTP353	ltpFR2	1	23	GARDEN	623	n/a	n/a	0	0	0
4884276	WORD	wordpools/wasnorm_wordpool_576.txt	LTP353	ltpFR2	1	23	LILY	821	n/a	n/a	0	0	0
4886975	WORD	wordpools/wasnorm_wordpool_576.txt	LTP353	ltpFR2	1	23	SEAFOOD	1260	n/a	n/a	0	0	0
4888592	START	n/a	LTP353	ltpFR2	1	n/a	n/a	n/a	34	n/a	n/a	n/a	n/a
4889436	DISTRACTOR	n/a	LTP353	ltpFR2	1	23	n/a	n/a	n/a	n/a	0	0	0
4889440	PROB	n/a	LTP353	ltpFR2	1	n/a	n/a	n/a	34	8	1	3	4
4891339	PROB	n/a	LTP353	ltpFR2	1	n/a	n/a	n/a	34	10	1	5	4
4894288	PROB	n/a	LTP353	ltpFR2	1	n/a	n/a	n/a	34	20	7	7	6
4896705	PROB	n/a	LTP353	ltpFR2	1	n/a	n/a	n/a	34	10	2	5	3
4898403	PROB	n/a	LTP353	ltpFR2	1	n/a	n/a	n/a	34	12	1	2	9
4902602	PROB	n/a	LTP353	ltpFR2	1	n/a	n/a	n/a	34	17	6	3	8
4904417	PROB	n/a	LTP353	ltpFR2	1	n/a	n/a	n/a	34	18	8	7	3
4905883	PROB	n/a	LTP353	ltpFR2	1	n/a	n/a	n/a	34	11	6	3	2
4907482	PROB	n/a	LTP353	ltpFR2	1	n/a	n/a	n/a	34	19	7	4	8
4909715	PROB	n/a	LTP353	ltpFR2	1	n/a	n/a	n/a	34	7	1	3	3
4911469	STOP	n/a	LTP353	ltpFR2	1	n/a	n/a	n/a	34	n/a	n/a	n/a	n/a
4914529	REC_START	n/a	LTP353	ltpFR2	1	23	n/a	n/a	n/a	n/a	0	0	0
4915570	REC_WORD	wordpools/wasnorm_wordpool_576.txt	LTP353	ltpFR2	1	23	JAPAN	749	n/a	n/a	0	0	0
4916569	REC_WORD	wordpools/wasnorm_wordpool_576.txt	LTP353	ltpFR2	1	23	EUROPE	541	n/a	n/a	0	0	0
4917815	REC_WORD	wordpools/wasnorm_wordpool_576.txt	LTP353	ltpFR2	1	23	ASIA	46	n/a	n/a	0	0	0
4919186	REC_WORD	wordpools/wasnorm_wordpool_576.txt	LTP353	ltpFR2	1	23	ATLAS	53	n/a	n/a	0	0	0
4920381	REC_WORD	wordpools/wasnorm_wordpool_576.txt	LTP353	ltpFR2	1	23	GLOBE	641	n/a	n/a	0	0	0
4923304	REC_WORD	wordpools/wasnorm_wordpool_576.txt	LTP353	ltpFR2	1	23	SEAFOOD	1260	n/a	n/a	0	0	0
5004971	DISTRACTOR	n/a	LTP353	ltpFR2	1	24	n/a	n/a	n/a	n/a	0	0	0
5004971	START	n/a	LTP353	ltpFR2	1	n/a	n/a	n/a	35	n/a	n/a	n/a	n/a
5004988	PROB	n/a	LTP353	ltpFR2	1	n/a	n/a	n/a	35	15	2	8	5
5006321	PROB	n/a	LTP353	ltpFR2	1	n/a	n/a	n/a	35	16	9	4	3
5008220	PROB	n/a	LTP353	ltpFR2	1	n/a	n/a	n/a	35	13	1	4	9
5010703	PROB	n/a	LTP353	ltpFR2	1	n/a	n/a	n/a	35	17	9	3	5
5012368	PROB	n/a	LTP353	ltpFR2	1	n/a	n/a	n/a	35	9	6	2	1
5019015	PROB	n/a	LTP353	ltpFR2	1	n/a	n/a	n/a	35	11	3	3	5
5021980	PROB	n/a	LTP353	ltpFR2	1	n/a	n/a	n/a	35	17	6	3	8
5024296	PROB	n/a	LTP353	ltpFR2	1	n/a	n/a	n/a	35	20	5	8	7
5026012	PROB	n/a	LTP353	ltpFR2	1	n/a	n/a	n/a	35	14	8	2	2
5028971	STOP	n/a	LTP353	ltpFR2	1	n/a	n/a	n/a	35	n/a	n/a	n/a	n/a
5029810	WORD	wordpools/wasnorm_wordpool_576.txt	LTP353	ltpFR2	1	24	VAGRANT	1544	n/a	n/a	0	0	0
5032442	WORD	wordpools/wasnorm_wordpool_576.txt	LTP353	ltpFR2	1	24	TYPIST	1532	n/a	n/a	0	0	0
5035058	WORD	wordpools/wasnorm_wordpool_576.txt	LTP353	ltpFR2	1	24	SLUG	1329	n/a	n/a	0	0	0
5037557	WORD	wordpools/wasnorm_wordpool_576.txt	LTP353	ltpFR2	1	24	BABY	64	n/a	n/a	0	0	0
5040105	WORD	wordpools/wasnorm_wordpool_576.txt	LTP353	ltpFR2	1	24	OUTLAW	989	n/a	n/a	0	0	0
5042804	WORD	wordpools/wasnorm_wordpool_576.txt	LTP353	ltpFR2	1	24	BURGLAR	200	n/a	n/a	0	0	0
5045587	WORD	wordpools/wasnorm_wordpool_576.txt	LTP353	ltpFR2	1	24	BUGGY	188	n/a	n/a	0	0	0
5048052	WORD	wordpools/wasnorm_wordpool_576.txt	LTP353	ltpFR2	1	24	STICKER	1382	n/a	n/a	0	0	0
5050751	WORD	wordpools/wasnorm_wordpool_576.txt	LTP353	ltpFR2	1	24	PROTON	1132	n/a	n/a	0	0	0
5053366	WORD	wordpools/wasnorm_wordpool_576.txt	LTP353	ltpFR2	1	24	GAVEL	627	n/a	n/a	0	0	0
5055798	WORD	wordpools/wasnorm_wordpool_576.txt	LTP353	ltpFR2	1	24	LIPSTICK	829	n/a	n/a	0	0	0
5058514	WORD	wordpools/wasnorm_wordpool_576.txt	LTP353	ltpFR2	1	24	POWDER	1117	n/a	n/a	0	0	0
5061063	WORD	wordpools/wasnorm_wordpool_576.txt	LTP353	ltpFR2	1	24	DRILL	497	n/a	n/a	0	0	0
5063528	WORD	wordpools/wasnorm_wordpool_576.txt	LTP353	ltpFR2	1	24	MARROW	872	n/a	n/a	0	0	0
5066160	WORD	wordpools/wasnorm_wordpool_576.txt	LTP353	ltpFR2	1	24	OFFICE	972	n/a	n/a	0	0	0
5068610	WORD	wordpools/wasnorm_wordpool_576.txt	LTP353	ltpFR2	1	24	MUSTARD	935	n/a	n/a	0	0	0
5071391	WORD	wordpools/wasnorm_wordpool_576.txt	LTP353	ltpFR2	1	24	SCALLOP	1242	n/a	n/a	0	0	0
5073940	WORD	wordpools/wasnorm_wordpool_576.txt	LTP353	ltpFR2	1	24	KIDNEY	776	n/a	n/a	0	0	0
5076623	WORD	wordpools/wasnorm_wordpool_576.txt	LTP353	ltpFR2	1	24	RECORD	1176	n/a	n/a	0	0	0
5079321	WORD	wordpools/wasnorm_wordpool_576.txt	LTP353	ltpFR2	1	24	PERMIT	1051	n/a	n/a	0	0	0
5082136	WORD	wordpools/wasnorm_wordpool_576.txt	LTP353	ltpFR2	1	24	DASHBOARD	441	n/a	n/a	0	0	0
5084818	WORD	wordpools/wasnorm_wordpool_576.txt	LTP353	ltpFR2	1	24	PASTA	1021	n/a	n/a	0	0	0
5087567	WORD	wordpools/wasnorm_wordpool_576.txt	LTP353	ltpFR2	1	24	ANTLER	29	n/a	n/a	0	0	0
5090349	WORD	wordpools/wasnorm_wordpool_576.txt	LTP353	ltpFR2	1	24	BANJO	82	n/a	n/a	0	0	0
5091965	START	n/a	LTP353	ltpFR2	1	n/a	n/a	n/a	36	n/a	n/a	n/a	n/a
5093116	DISTRACTOR	n/a	LTP353	ltpFR2	1	24	n/a	n/a	n/a	n/a	0	0	0
5093131	PROB	n/a	LTP353	ltpFR2	1	n/a	n/a	n/a	36	16	7	4	5
5095530	PROB	n/a	LTP353	ltpFR2	1	n/a	n/a	n/a	36	17	7	8	2
5097196	PROB	n/a	LTP353	ltpFR2	1	n/a	n/a	n/a	36	16	4	6	6
5099029	PROB	n/a	LTP353	ltpFR2	1	n/a	n/a	n/a	36	12	3	1	8
5102194	PROB	n/a	LTP353	ltpFR2	1	n/a	n/a	n/a	36	16	1	7	8
5104326	PROB	n/a	LTP353	ltpFR2	1	n/a	n/a	n/a	36	22	6	7	9
5109074	PROB	n/a	LTP353	ltpFR2	1	n/a	n/a	n/a	36	16	5	3	8
5111641	PROB	n/a	LTP353	ltpFR2	1	n/a	n/a	n/a	36	9	3	3	3
5112822	PROB	n/a	LTP353	ltpFR2	1	n/a	n/a	n/a	36	17	4	8	5
5115491	STOP	n/a	LTP353	ltpFR2	1	n/a	n/a	n/a	36	n/a	n/a	n/a	n/a
5117787	REC_START	n/a	LTP353	ltpFR2	1	24	n/a	n/a	n/a	n/a	0	0	0
5118475	REC_WORD	wordpools/wasnorm_wordpool_576.txt	LTP353	ltpFR2	1	24	SLUG	1329	n/a	n/a	0	0	0
5119497	REC_WORD	wordpools/wasnorm_wordpool_576.txt	LTP353	ltpFR2	1	24	PROTON	1132	n/a	n/a	0	0	0
5120507	REC_WORD	wordpools/wasnorm_wordpool_576.txt	LTP353	ltpFR2	1	24	BANJO	82	n/a	n/a	0	0	0
5128850	REC_WORD	wordpools/wasnorm_wordpool_576.txt	LTP353	ltpFR2	1	24	KIDNEY	776	n/a	n/a	0	0	0
5200900	SESS_END	n/a	LTP353	ltpFR2	1	24	n/a	n/a	n/a	n/a	0	0	0
