onset	duration	trial_type	sample	stim_file	subject	experiment	session	trial	task	item_name	item_num	recog_conf	resp	color_b	color_g	color_r	case	font
242.724	n/a	SESS_START	121362	n/a	LTP280	ltpFR	4	n/a	n/a	n/a	n/a	n/a	n/a	n/a	n/a	n/a	n/a	n/a
313.958	n/a	WORD	156979	wordpools/wasnorm_wordpool_less_exclusions.txt	LTP280	ltpFR	4	1	0	EAGLE	512	n/a	1	1	0.412841796875	0.57763671875	lower	../fonts/amplitud.ttf
317.89	n/a	WORD	158945	wordpools/wasnorm_wordpool_less_exclusions.txt	LTP280	ltpFR	4	1	0	PENGUIN	1044	n/a	1	1	0.412841796875	0.57763671875	lower	../fonts/amplitud.ttf
322.056	n/a	WORD	161028	wordpools/wasnorm_wordpool_less_exclusions.txt	LTP280	ltpFR	4	1	0	DRESSER	496	n/a	1	1	0.412841796875	0.57763671875	lower	../fonts/amplitud.ttf
326.236	n/a	WORD	163118	wordpools/wasnorm_wordpool_less_exclusions.txt	LTP280	ltpFR	4	1	1	SECRETARY	1265	n/a	0	0	0.5869140625	0.422607421875	upper	../fonts/zerothre.ttf
330.42	n/a	WORD	165210	wordpools/wasnorm_wordpool_less_exclusions.txt	LTP280	ltpFR	4	1	1	ELECTRON	522	n/a	0	0	0.5869140625	0.422607421875	upper	../fonts/zerothre.ttf
334.402	n/a	WORD	167201	wordpools/wasnorm_wordpool_less_exclusions.txt	LTP280	ltpFR	4	1	1	SIGN	1305	n/a	0	0	0.5869140625	0.422607421875	upper	../fonts/zerothre.ttf
338.284	n/a	WORD	169142	wordpools/wasnorm_wordpool_less_exclusions.txt	LTP280	ltpFR	4	1	1	GOO	648	n/a	0	0	0.5869140625	0.422607421875	upper	../fonts/zerothre.ttf
342.4	n/a	WORD	171200	wordpools/wasnorm_wordpool_less_exclusions.txt	LTP280	ltpFR	4	1	0	FEAST	556	n/a	1	1	0.412841796875	0.57763671875	lower	../fonts/amplitud.ttf
346.482	n/a	WORD	173241	wordpools/wasnorm_wordpool_less_exclusions.txt	LTP280	ltpFR	4	1	0	SERVER	1272	n/a	1	1	0.412841796875	0.57763671875	lower	../fonts/amplitud.ttf
350.398	n/a	WORD	175199	wordpools/wasnorm_wordpool_less_exclusions.txt	LTP280	ltpFR	4	1	1	BISCUIT	130	n/a	2	0	0.5869140625	0.422607421875	upper	../fonts/zerothre.ttf
351.468	n/a	KEY_MSG	175734	n/a	LTP280	ltpFR	4	1	n/a	n/a	n/a	n/a	n/a	n/a	n/a	n/a	n/a	n/a
354.228	n/a	WORD	177114	wordpools/wasnorm_wordpool_less_exclusions.txt	LTP280	ltpFR	4	1	1	MUFFIN	929	n/a	0	0	0.5869140625	0.422607421875	upper	../fonts/zerothre.ttf
358.242	n/a	WORD	179121	wordpools/wasnorm_wordpool_less_exclusions.txt	LTP280	ltpFR	4	1	1	COLESLAW	344	n/a	0	0	0.5869140625	0.422607421875	upper	../fonts/zerothre.ttf
362.41	n/a	WORD	181205	wordpools/wasnorm_wordpool_less_exclusions.txt	LTP280	ltpFR	4	1	1	SWAN	1417	n/a	1	0	0.5869140625	0.422607421875	upper	../fonts/zerothre.ttf
366.626	n/a	WORD	183313	wordpools/wasnorm_wordpool_less_exclusions.txt	LTP280	ltpFR	4	1	0	CUCUMBER	421	n/a	0	1	0.412841796875	0.57763671875	lower	../fonts/amplitud.ttf
370.624	n/a	WORD	185312	wordpools/wasnorm_wordpool_less_exclusions.txt	LTP280	ltpFR	4	1	0	PARROT	1015	n/a	0	1	0.412841796875	0.57763671875	lower	../fonts/amplitud.ttf
374.758	n/a	WORD	187379	wordpools/wasnorm_wordpool_less_exclusions.txt	LTP280	ltpFR	4	1	0	ONION	977	n/a	0	1	0.412841796875	0.57763671875	lower	../fonts/amplitud.ttf
380.748	n/a	REC_START	190374	n/a	LTP280	ltpFR	4	1	n/a	n/a	n/a	n/a	n/a	n/a	n/a	n/a	n/a	n/a
381.038	n/a	REC_WORD	190519	wordpools/wasnorm_wordpool_less_exclusions.txt	LTP280	ltpFR	4	1	0	ONION	977	n/a	0	n/a	n/a	n/a	n/a	n/a
381.714	n/a	REC_WORD	190857	wordpools/wasnorm_wordpool_less_exclusions.txt	LTP280	ltpFR	4	1	n/a	CARROT	249	n/a	n/a	n/a	n/a	n/a	n/a	n/a
382.532	n/a	REC_WORD	191266	wordpools/wasnorm_wordpool_less_exclusions.txt	LTP280	ltpFR	4	1	0	PARROT	1015	n/a	0	n/a	n/a	n/a	n/a	n/a
384.144	n/a	REC_WORD	192072	wordpools/wasnorm_wordpool_less_exclusions.txt	LTP280	ltpFR	4	1	0	EAGLE	512	n/a	1	n/a	n/a	n/a	n/a	n/a
385.776	n/a	REC_WORD	192888	wordpools/wasnorm_wordpool_less_exclusions.txt	LTP280	ltpFR	4	1	0	DRESSER	496	n/a	1	n/a	n/a	n/a	n/a	n/a
389.152	n/a	REC_WORD	194576	wordpools/wasnorm_wordpool_less_exclusions.txt	LTP280	ltpFR	4	1	0	PENGUIN	1044	n/a	1	n/a	n/a	n/a	n/a	n/a
391.974	n/a	REC_WORD	195987	wordpools/wasnorm_wordpool_less_exclusions.txt	LTP280	ltpFR	4	1	0	FEAST	556	n/a	1	n/a	n/a	n/a	n/a	n/a
393.456	n/a	REC_WORD	196728	wordpools/wasnorm_wordpool_less_exclusions.txt	LTP280	ltpFR	4	1	1	GOO	648	n/a	0	n/a	n/a	n/a	n/a	n/a
397.512	n/a	REC_WORD	198756	wordpools/wasnorm_wordpool_less_exclusions.txt	LTP280	ltpFR	4	1	1	MUFFIN	929	n/a	0	n/a	n/a	n/a	n/a	n/a
408.112	n/a	REC_WORD	204056	wordpools/wasnorm_wordpool_less_exclusions.txt	LTP280	ltpFR	4	1	0	SERVER	1272	n/a	1	n/a	n/a	n/a	n/a	n/a
492.138	n/a	WORD	246069	wordpools/wasnorm_wordpool_less_exclusions.txt	LTP280	ltpFR	4	2	1	MONGOOSE	909	n/a	1	0	0.5869140625	0.422607421875	upper	../fonts/zerothre.ttf
496.354	n/a	WORD	248177	wordpools/wasnorm_wordpool_less_exclusions.txt	LTP280	ltpFR	4	2	1	MERMAID	887	n/a	1	0	0.5869140625	0.422607421875	upper	../fonts/zerothre.ttf
500.504	n/a	WORD	250252	wordpools/wasnorm_wordpool_less_exclusions.txt	LTP280	ltpFR	4	2	0	TEMPLE	1448	n/a	1	1	0.412841796875	0.57763671875	lower	../fonts/amplitud.ttf
504.336	n/a	WORD	252168	wordpools/wasnorm_wordpool_less_exclusions.txt	LTP280	ltpFR	4	2	0	CELERY	266	n/a	0	1	0.412841796875	0.57763671875	lower	../fonts/amplitud.ttf
508.418	n/a	WORD	254209	wordpools/wasnorm_wordpool_less_exclusions.txt	LTP280	ltpFR	4	2	0	CAT	257	n/a	0	1	0.412841796875	0.57763671875	lower	../fonts/amplitud.ttf
512.248	n/a	WORD	256124	wordpools/wasnorm_wordpool_less_exclusions.txt	LTP280	ltpFR	4	2	0	SEA	1259	n/a	1	1	0.412841796875	0.57763671875	lower	../fonts/amplitud.ttf
516.464	n/a	WORD	258232	wordpools/wasnorm_wordpool_less_exclusions.txt	LTP280	ltpFR	4	2	1	SCARECROW	1245	n/a	0	0	0.5869140625	0.422607421875	upper	../fonts/zerothre.ttf
520.464	n/a	WORD	260232	wordpools/wasnorm_wordpool_less_exclusions.txt	LTP280	ltpFR	4	2	1	LOBSTER	837	n/a	1	0	0.5869140625	0.422607421875	upper	../fonts/zerothre.ttf
524.68	n/a	WORD	262340	wordpools/wasnorm_wordpool_less_exclusions.txt	LTP280	ltpFR	4	2	1	TAIL	1430	n/a	0	0	0.5869140625	0.422607421875	upper	../fonts/zerothre.ttf
528.512	n/a	WORD	264256	wordpools/wasnorm_wordpool_less_exclusions.txt	LTP280	ltpFR	4	2	1	ALBUM	14	n/a	0	0	0.5869140625	0.422607421875	upper	../fonts/zerothre.ttf
532.526	n/a	WORD	266263	wordpools/wasnorm_wordpool_less_exclusions.txt	LTP280	ltpFR	4	2	0	CONCERT	360	n/a	1	1	0.412841796875	0.57763671875	lower	../fonts/amplitud.ttf
536.608	n/a	WORD	268304	wordpools/wasnorm_wordpool_less_exclusions.txt	LTP280	ltpFR	4	2	0	SAUSAGE	1238	n/a	0	1	0.412841796875	0.57763671875	lower	../fonts/amplitud.ttf
540.758	n/a	WORD	270379	wordpools/wasnorm_wordpool_less_exclusions.txt	LTP280	ltpFR	4	2	0	PASTRY	1022	n/a	0	1	0.412841796875	0.57763671875	lower	../fonts/amplitud.ttf
544.674	n/a	WORD	272337	wordpools/wasnorm_wordpool_less_exclusions.txt	LTP280	ltpFR	4	2	0	COURT	391	n/a	1	1	0.412841796875	0.57763671875	lower	../fonts/amplitud.ttf
548.704	n/a	WORD	274352	wordpools/wasnorm_wordpool_less_exclusions.txt	LTP280	ltpFR	4	2	1	JUDGE	761	n/a	1	0	0.5869140625	0.422607421875	upper	../fonts/zerothre.ttf
552.72	n/a	WORD	276360	wordpools/wasnorm_wordpool_less_exclusions.txt	LTP280	ltpFR	4	2	1	RICE	1190	n/a	0	0	0.5869140625	0.422607421875	upper	../fonts/zerothre.ttf
558.426	n/a	REC_START	279213	n/a	LTP280	ltpFR	4	2	n/a	n/a	n/a	n/a	n/a	n/a	n/a	n/a	n/a	n/a
558.718	n/a	REC_WORD	279359	wordpools/wasnorm_wordpool_less_exclusions.txt	LTP280	ltpFR	4	2	1	JUDGE	761	n/a	1	n/a	n/a	n/a	n/a	n/a
559.442	n/a	REC_WORD	279721	wordpools/wasnorm_wordpool_less_exclusions.txt	LTP280	ltpFR	4	2	1	RICE	1190	n/a	0	n/a	n/a	n/a	n/a	n/a
560.686	n/a	REC_WORD	280343	wordpools/wasnorm_wordpool_less_exclusions.txt	LTP280	ltpFR	4	2	1	MONGOOSE	909	n/a	1	n/a	n/a	n/a	n/a	n/a
561.298	n/a	REC_WORD	280649	wordpools/wasnorm_wordpool_less_exclusions.txt	LTP280	ltpFR	4	2	1	MERMAID	887	n/a	1	n/a	n/a	n/a	n/a	n/a
562.512	n/a	REC_WORD	281256	wordpools/wasnorm_wordpool_less_exclusions.txt	LTP280	ltpFR	4	2	1	TAIL	1430	n/a	0	n/a	n/a	n/a	n/a	n/a
564.62	n/a	REC_WORD	282310	wordpools/wasnorm_wordpool_less_exclusions.txt	LTP280	ltpFR	4	2	0	CELERY	266	n/a	0	n/a	n/a	n/a	n/a	n/a
571.572	n/a	REC_WORD	285786	wordpools/wasnorm_wordpool_less_exclusions.txt	LTP280	ltpFR	4	2	0	CAT	257	n/a	0	n/a	n/a	n/a	n/a	n/a
579.874	n/a	REC_WORD	289937	wordpools/wasnorm_wordpool_less_exclusions.txt	LTP280	ltpFR	4	2	1	SCARECROW	1245	n/a	0	n/a	n/a	n/a	n/a	n/a
584.512	n/a	REC_WORD	292256	wordpools/wasnorm_wordpool_less_exclusions.txt	LTP280	ltpFR	4	2	0	COURT	391	n/a	1	n/a	n/a	n/a	n/a	n/a
590.104	n/a	REC_WORD	295052	wordpools/wasnorm_wordpool_less_exclusions.txt	LTP280	ltpFR	4	2	0	CONCERT	360	n/a	1	n/a	n/a	n/a	n/a	n/a
644.99	n/a	WORD	322495	wordpools/wasnorm_wordpool_less_exclusions.txt	LTP280	ltpFR	4	3	1	CYLINDER	432	n/a	0	0	0.5869140625	0.422607421875	upper	../fonts/zerothre.ttf
648.954	n/a	WORD	324477	wordpools/wasnorm_wordpool_less_exclusions.txt	LTP280	ltpFR	4	3	1	SPATULA	1348	n/a	0	0	0.5869140625	0.422607421875	upper	../fonts/zerothre.ttf
652.938	n/a	WORD	326469	wordpools/wasnorm_wordpool_less_exclusions.txt	LTP280	ltpFR	4	3	0	IRON	744	n/a	0	1	0.412841796875	0.57763671875	lower	../fonts/amplitud.ttf
656.968	n/a	WORD	328484	wordpools/wasnorm_wordpool_less_exclusions.txt	LTP280	ltpFR	4	3	0	CANOE	233	n/a	1	1	0.412841796875	0.57763671875	lower	../fonts/amplitud.ttf
660.8	n/a	WORD	330400	wordpools/wasnorm_wordpool_less_exclusions.txt	LTP280	ltpFR	4	3	1	COLOGNE	347	n/a	0	0	0.5869140625	0.422607421875	upper	../fonts/zerothre.ttf
664.964	n/a	WORD	332482	wordpools/wasnorm_wordpool_less_exclusions.txt	LTP280	ltpFR	4	3	1	LOOP	844	n/a	0	0	0.5869140625	0.422607421875	upper	../fonts/zerothre.ttf
668.98	n/a	WORD	334490	wordpools/wasnorm_wordpool_less_exclusions.txt	LTP280	ltpFR	4	3	0	FIREMAN	569	n/a	1	1	0.412841796875	0.57763671875	lower	../fonts/amplitud.ttf
673.162	n/a	WORD	336581	wordpools/wasnorm_wordpool_less_exclusions.txt	LTP280	ltpFR	4	3	0	CHICKEN	297	n/a	1	1	0.412841796875	0.57763671875	lower	../fonts/amplitud.ttf
677.246	n/a	WORD	338623	wordpools/wasnorm_wordpool_less_exclusions.txt	LTP280	ltpFR	4	3	0	CHICK	296	n/a	0	1	0.412841796875	0.57763671875	lower	../fonts/amplitud.ttf
681.362	n/a	WORD	340681	wordpools/wasnorm_wordpool_less_exclusions.txt	LTP280	ltpFR	4	3	0	SAILOR	1223	n/a	1	1	0.412841796875	0.57763671875	lower	../fonts/amplitud.ttf
685.326	n/a	WORD	342663	wordpools/wasnorm_wordpool_less_exclusions.txt	LTP280	ltpFR	4	3	0	MOTOR	922	n/a	1	1	0.412841796875	0.57763671875	lower	../fonts/amplitud.ttf
689.272	n/a	WORD	344636	wordpools/wasnorm_wordpool_less_exclusions.txt	LTP280	ltpFR	4	3	0	LOG	841	n/a	0	1	0.412841796875	0.57763671875	lower	../fonts/amplitud.ttf
693.306	n/a	WORD	346653	wordpools/wasnorm_wordpool_less_exclusions.txt	LTP280	ltpFR	4	3	1	NOTE	958	n/a	0	0	0.5869140625	0.422607421875	upper	../fonts/zerothre.ttf
697.288	n/a	WORD	348644	wordpools/wasnorm_wordpool_less_exclusions.txt	LTP280	ltpFR	4	3	1	TROMBONE	1508	n/a	0	0	0.5869140625	0.422607421875	upper	../fonts/zerothre.ttf
701.254	n/a	WORD	350627	wordpools/wasnorm_wordpool_less_exclusions.txt	LTP280	ltpFR	4	3	1	POTATO	1115	n/a	1	0	0.5869140625	0.422607421875	upper	../fonts/zerothre.ttf
705.386	n/a	WORD	352693	wordpools/wasnorm_wordpool_less_exclusions.txt	LTP280	ltpFR	4	3	1	COWBOY	395	n/a	1	0	0.5869140625	0.422607421875	upper	../fonts/zerothre.ttf
711.378	n/a	REC_START	355689	n/a	LTP280	ltpFR	4	3	n/a	n/a	n/a	n/a	n/a	n/a	n/a	n/a	n/a	n/a
711.954	n/a	REC_WORD	355977	wordpools/wasnorm_wordpool_less_exclusions.txt	LTP280	ltpFR	4	3	1	TROMBONE	1508	n/a	0	n/a	n/a	n/a	n/a	n/a
714.558	n/a	REC_WORD_VV	357279	wordpools/wasnorm_wordpool_less_exclusions.txt	LTP280	ltpFR	4	3	n/a	<>	-1	n/a	n/a	n/a	n/a	n/a	n/a	n/a
717.148	n/a	REC_WORD	358574	wordpools/wasnorm_wordpool_less_exclusions.txt	LTP280	ltpFR	4	3	1	CYLINDER	432	n/a	0	n/a	n/a	n/a	n/a	n/a
717.64	n/a	REC_WORD	358820	wordpools/wasnorm_wordpool_less_exclusions.txt	LTP280	ltpFR	4	3	1	SPATULA	1348	n/a	0	n/a	n/a	n/a	n/a	n/a
724.21	n/a	REC_WORD	362105	wordpools/wasnorm_wordpool_less_exclusions.txt	LTP280	ltpFR	4	3	0	IRON	744	n/a	0	n/a	n/a	n/a	n/a	n/a
724.772	n/a	REC_WORD	362386	wordpools/wasnorm_wordpool_less_exclusions.txt	LTP280	ltpFR	4	3	0	CANOE	233	n/a	1	n/a	n/a	n/a	n/a	n/a
726.06	n/a	REC_WORD	363030	wordpools/wasnorm_wordpool_less_exclusions.txt	LTP280	ltpFR	4	3	0	CHICK	296	n/a	0	n/a	n/a	n/a	n/a	n/a
726.696	n/a	REC_WORD	363348	wordpools/wasnorm_wordpool_less_exclusions.txt	LTP280	ltpFR	4	3	0	CHICKEN	297	n/a	1	n/a	n/a	n/a	n/a	n/a
728.114	n/a	REC_WORD	364057	wordpools/wasnorm_wordpool_less_exclusions.txt	LTP280	ltpFR	4	3	0	SAILOR	1223	n/a	1	n/a	n/a	n/a	n/a	n/a
740.04	n/a	REC_WORD	370020	wordpools/wasnorm_wordpool_less_exclusions.txt	LTP280	ltpFR	4	3	0	LOG	841	n/a	0	n/a	n/a	n/a	n/a	n/a
803.176	n/a	WORD	401588	wordpools/wasnorm_wordpool_less_exclusions.txt	LTP280	ltpFR	4	4	1	COUGAR	387	n/a	1	0	0.5869140625	0.422607421875	upper	../fonts/zerothre.ttf
807.208	n/a	WORD	403604	wordpools/wasnorm_wordpool_less_exclusions.txt	LTP280	ltpFR	4	4	1	LION	827	n/a	1	0	0.5869140625	0.422607421875	upper	../fonts/zerothre.ttf
811.376	n/a	WORD	405688	wordpools/wasnorm_wordpool_less_exclusions.txt	LTP280	ltpFR	4	4	1	GENTLEMAN	631	n/a	1	0	0.5869140625	0.422607421875	upper	../fonts/zerothre.ttf
815.424	n/a	WORD	407712	wordpools/wasnorm_wordpool_less_exclusions.txt	LTP280	ltpFR	4	4	1	SHINGLE	1285	n/a	0	0	0.5869140625	0.422607421875	upper	../fonts/zerothre.ttf
819.49	n/a	WORD	409745	wordpools/wasnorm_wordpool_less_exclusions.txt	LTP280	ltpFR	4	4	1	SPIT	1354	n/a	0	0	0.5869140625	0.422607421875	upper	../fonts/zerothre.ttf
823.522	n/a	WORD	411761	wordpools/wasnorm_wordpool_less_exclusions.txt	LTP280	ltpFR	4	4	1	SEAFOOD	1260	n/a	0	0	0.5869140625	0.422607421875	upper	../fonts/zerothre.ttf
827.368	n/a	WORD	413684	wordpools/wasnorm_wordpool_less_exclusions.txt	LTP280	ltpFR	4	4	1	WATER	1594	n/a	0	0	0.5869140625	0.422607421875	upper	../fonts/zerothre.ttf
831.5	n/a	WORD	415750	wordpools/wasnorm_wordpool_less_exclusions.txt	LTP280	ltpFR	4	4	1	OAR	966	n/a	0	0	0.5869140625	0.422607421875	upper	../fonts/zerothre.ttf
835.332	n/a	WORD	417666	wordpools/wasnorm_wordpool_less_exclusions.txt	LTP280	ltpFR	4	4	1	ROOMMATE	1207	n/a	1	0	0.5869140625	0.422607421875	upper	../fonts/zerothre.ttf
839.5	n/a	WORD	419750	wordpools/wasnorm_wordpool_less_exclusions.txt	LTP280	ltpFR	4	4	1	ASSISTANT	48	n/a	1	0	0.5869140625	0.422607421875	upper	../fonts/zerothre.ttf
843.548	n/a	WORD	421774	wordpools/wasnorm_wordpool_less_exclusions.txt	LTP280	ltpFR	4	4	1	INSTRUCTOR	741	n/a	1	0	0.5869140625	0.422607421875	upper	../fonts/zerothre.ttf
847.514	n/a	WORD	423757	wordpools/wasnorm_wordpool_less_exclusions.txt	LTP280	ltpFR	4	4	1	TEACHER	1440	n/a	1	0	0.5869140625	0.422607421875	upper	../fonts/zerothre.ttf
851.58	n/a	WORD	425790	wordpools/wasnorm_wordpool_less_exclusions.txt	LTP280	ltpFR	4	4	1	SALMON	1227	n/a	1	0	0.5869140625	0.422607421875	upper	../fonts/zerothre.ttf
855.694	n/a	WORD	427847	wordpools/wasnorm_wordpool_less_exclusions.txt	LTP280	ltpFR	4	4	1	CANDIDATE	228	n/a	1	0	0.5869140625	0.422607421875	upper	../fonts/zerothre.ttf
859.678	n/a	WORD	429839	wordpools/wasnorm_wordpool_less_exclusions.txt	LTP280	ltpFR	4	4	1	DESK	452	n/a	0	0	0.5869140625	0.422607421875	upper	../fonts/zerothre.ttf
863.876	n/a	WORD	431938	wordpools/wasnorm_wordpool_less_exclusions.txt	LTP280	ltpFR	4	4	1	BOYFRIEND	162	n/a	1	0	0.5869140625	0.422607421875	upper	../fonts/zerothre.ttf
869.616	n/a	REC_START	434808	n/a	LTP280	ltpFR	4	4	n/a	n/a	n/a	n/a	n/a	n/a	n/a	n/a	n/a	n/a
869.838	n/a	REC_WORD	434919	wordpools/wasnorm_wordpool_less_exclusions.txt	LTP280	ltpFR	4	4	1	BOYFRIEND	162	n/a	1	n/a	n/a	n/a	n/a	n/a
871.422	n/a	REC_WORD	435711	wordpools/wasnorm_wordpool_less_exclusions.txt	LTP280	ltpFR	4	4	1	SALMON	1227	n/a	1	n/a	n/a	n/a	n/a	n/a
872.002	n/a	REC_WORD	436001	wordpools/wasnorm_wordpool_less_exclusions.txt	LTP280	ltpFR	4	4	1	CANDIDATE	228	n/a	1	n/a	n/a	n/a	n/a	n/a
892.462	n/a	REC_WORD	446231	wordpools/wasnorm_wordpool_less_exclusions.txt	LTP280	ltpFR	4	4	1	COUGAR	387	n/a	1	n/a	n/a	n/a	n/a	n/a
893.032	n/a	REC_WORD	446516	wordpools/wasnorm_wordpool_less_exclusions.txt	LTP280	ltpFR	4	4	1	LION	827	n/a	1	n/a	n/a	n/a	n/a	n/a
895.722	n/a	REC_WORD	447861	wordpools/wasnorm_wordpool_less_exclusions.txt	LTP280	ltpFR	4	4	1	OAR	966	n/a	0	n/a	n/a	n/a	n/a	n/a
897.994	n/a	REC_WORD	448997	wordpools/wasnorm_wordpool_less_exclusions.txt	LTP280	ltpFR	4	4	1	WATER	1594	n/a	0	n/a	n/a	n/a	n/a	n/a
906.47	n/a	REC_WORD	453235	wordpools/wasnorm_wordpool_less_exclusions.txt	LTP280	ltpFR	4	4	1	ASSISTANT	48	n/a	1	n/a	n/a	n/a	n/a	n/a
907.738	n/a	REC_WORD	453869	wordpools/wasnorm_wordpool_less_exclusions.txt	LTP280	ltpFR	4	4	1	ROOMMATE	1207	n/a	1	n/a	n/a	n/a	n/a	n/a
919.726	n/a	REC_WORD	459863	wordpools/wasnorm_wordpool_less_exclusions.txt	LTP280	ltpFR	4	4	1	SEAFOOD	1260	n/a	0	n/a	n/a	n/a	n/a	n/a
969.53	n/a	WORD	484765	wordpools/wasnorm_wordpool_less_exclusions.txt	LTP280	ltpFR	4	5	1	WICK	1607	n/a	0	0	0.5869140625	0.422607421875	upper	../fonts/zerothre.ttf
973.63	n/a	WORD	486815	wordpools/wasnorm_wordpool_less_exclusions.txt	LTP280	ltpFR	4	5	1	MATCH	878	n/a	0	0	0.5869140625	0.422607421875	upper	../fonts/zerothre.ttf
977.678	n/a	WORD	488839	wordpools/wasnorm_wordpool_less_exclusions.txt	LTP280	ltpFR	4	5	1	PAN	1008	n/a	0	0	0.5869140625	0.422607421875	upper	../fonts/zerothre.ttf
981.878	n/a	WORD	490939	wordpools/wasnorm_wordpool_less_exclusions.txt	LTP280	ltpFR	4	5	1	ARTIST	43	n/a	1	0	0.5869140625	0.422607421875	upper	../fonts/zerothre.ttf
985.876	n/a	WORD	492938	wordpools/wasnorm_wordpool_less_exclusions.txt	LTP280	ltpFR	4	5	1	SARDINE	1235	n/a	1	0	0.5869140625	0.422607421875	upper	../fonts/zerothre.ttf
989.858	n/a	WORD	494929	wordpools/wasnorm_wordpool_less_exclusions.txt	LTP280	ltpFR	4	5	1	SHRIMP	1297	n/a	1	0	0.5869140625	0.422607421875	upper	../fonts/zerothre.ttf
993.924	n/a	WORD	496962	wordpools/wasnorm_wordpool_less_exclusions.txt	LTP280	ltpFR	4	5	1	PONY	1102	n/a	1	0	0.5869140625	0.422607421875	upper	../fonts/zerothre.ttf
997.888	n/a	WORD	498944	wordpools/wasnorm_wordpool_less_exclusions.txt	LTP280	ltpFR	4	5	1	TABLET	1427	n/a	0	0	0.5869140625	0.422607421875	upper	../fonts/zerothre.ttf
1001.97	n/a	WORD	500985	wordpools/wasnorm_wordpool_less_exclusions.txt	LTP280	ltpFR	4	5	1	SUSPECT	1415	n/a	1	0	0.5869140625	0.422607421875	upper	../fonts/zerothre.ttf
1005.986	n/a	WORD	502993	wordpools/wasnorm_wordpool_less_exclusions.txt	LTP280	ltpFR	4	5	1	SICKLE	1302	n/a	0	0	0.5869140625	0.422607421875	upper	../fonts/zerothre.ttf
1009.968	n/a	WORD	504984	wordpools/wasnorm_wordpool_less_exclusions.txt	LTP280	ltpFR	4	5	1	LAWYER	806	n/a	1	0	0.5869140625	0.422607421875	upper	../fonts/zerothre.ttf
1014.068	n/a	WORD	507034	wordpools/wasnorm_wordpool_less_exclusions.txt	LTP280	ltpFR	4	5	1	CATHEDRAL	260	n/a	0	0	0.5869140625	0.422607421875	upper	../fonts/zerothre.ttf
1017.966	n/a	WORD	508983	wordpools/wasnorm_wordpool_less_exclusions.txt	LTP280	ltpFR	4	5	1	STALLION	1369	n/a	3	0	0.5869140625	0.422607421875	upper	../fonts/zerothre.ttf
1018.936	n/a	KEY_MSG	509468	n/a	LTP280	ltpFR	4	5	n/a	n/a	n/a	n/a	n/a	n/a	n/a	n/a	n/a	n/a
1021.98	n/a	WORD	510990	wordpools/wasnorm_wordpool_less_exclusions.txt	LTP280	ltpFR	4	5	1	STOVE	1388	n/a	0	0	0.5869140625	0.422607421875	upper	../fonts/zerothre.ttf
1025.962	n/a	WORD	512981	wordpools/wasnorm_wordpool_less_exclusions.txt	LTP280	ltpFR	4	5	1	THICKET	1455	n/a	0	0	0.5869140625	0.422607421875	upper	../fonts/zerothre.ttf
1029.994	n/a	WORD	514997	wordpools/wasnorm_wordpool_less_exclusions.txt	LTP280	ltpFR	4	5	1	POOL	1103	n/a	0	0	0.5869140625	0.422607421875	upper	../fonts/zerothre.ttf
1035.918	n/a	REC_START	517959	n/a	LTP280	ltpFR	4	5	n/a	n/a	n/a	n/a	n/a	n/a	n/a	n/a	n/a	n/a
1036.44	n/a	REC_WORD	518220	wordpools/wasnorm_wordpool_less_exclusions.txt	LTP280	ltpFR	4	5	1	POOL	1103	n/a	0	n/a	n/a	n/a	n/a	n/a
1037.03	n/a	REC_WORD	518515	wordpools/wasnorm_wordpool_less_exclusions.txt	LTP280	ltpFR	4	5	1	ARTIST	43	n/a	1	n/a	n/a	n/a	n/a	n/a
1038.348	n/a	REC_WORD	519174	wordpools/wasnorm_wordpool_less_exclusions.txt	LTP280	ltpFR	4	5	1	THICKET	1455	n/a	0	n/a	n/a	n/a	n/a	n/a
1040.24	n/a	REC_WORD	520120	wordpools/wasnorm_wordpool_less_exclusions.txt	LTP280	ltpFR	4	5	1	PAN	1008	n/a	0	n/a	n/a	n/a	n/a	n/a
1041.422	n/a	REC_WORD	520711	wordpools/wasnorm_wordpool_less_exclusions.txt	LTP280	ltpFR	4	5	1	STOVE	1388	n/a	0	n/a	n/a	n/a	n/a	n/a
1058.58	n/a	REC_WORD	529290	wordpools/wasnorm_wordpool_less_exclusions.txt	LTP280	ltpFR	4	5	n/a	CANDLE	229	n/a	n/a	n/a	n/a	n/a	n/a	n/a
1061.572	n/a	REC_WORD_VV	530786	wordpools/wasnorm_wordpool_less_exclusions.txt	LTP280	ltpFR	4	5	n/a	<>	-1	n/a	n/a	n/a	n/a	n/a	n/a	n/a
1062.464	n/a	REC_WORD	531232	wordpools/wasnorm_wordpool_less_exclusions.txt	LTP280	ltpFR	4	5	1	WICK	1607	n/a	0	n/a	n/a	n/a	n/a	n/a
1065.178	n/a	REC_WORD	532589	wordpools/wasnorm_wordpool_less_exclusions.txt	LTP280	ltpFR	4	5	1	MATCH	878	n/a	0	n/a	n/a	n/a	n/a	n/a
1069.144	n/a	REC_WORD	534572	wordpools/wasnorm_wordpool_less_exclusions.txt	LTP280	ltpFR	4	5	1	POOL	1103	n/a	0	n/a	n/a	n/a	n/a	n/a
1073.114	n/a	REC_WORD	536557	wordpools/wasnorm_wordpool_less_exclusions.txt	LTP280	ltpFR	4	5	1	SARDINE	1235	n/a	1	n/a	n/a	n/a	n/a	n/a
1125.174	n/a	WORD	562587	wordpools/wasnorm_wordpool_less_exclusions.txt	LTP280	ltpFR	4	6	-1	SPICE	1350	n/a	-1	1	1.0	1.0	upper	../fonts/Verdana.ttf
1129.29	n/a	WORD	564645	wordpools/wasnorm_wordpool_less_exclusions.txt	LTP280	ltpFR	4	6	-1	CHECK	284	n/a	-1	1	1.0	1.0	upper	../fonts/Verdana.ttf
1133.406	n/a	WORD	566703	wordpools/wasnorm_wordpool_less_exclusions.txt	LTP280	ltpFR	4	6	-1	HERD	705	n/a	-1	1	1.0	1.0	upper	../fonts/Verdana.ttf
1137.268	n/a	WORD	568634	wordpools/wasnorm_wordpool_less_exclusions.txt	LTP280	ltpFR	4	6	-1	PORCH	1106	n/a	-1	1	1.0	1.0	upper	../fonts/Verdana.ttf
1141.086	n/a	WORD	570543	wordpools/wasnorm_wordpool_less_exclusions.txt	LTP280	ltpFR	4	6	-1	BARLEY	88	n/a	-1	1	1.0	1.0	upper	../fonts/Verdana.ttf
1144.916	n/a	WORD	572458	wordpools/wasnorm_wordpool_less_exclusions.txt	LTP280	ltpFR	4	6	-1	GRATE	657	n/a	-1	1	1.0	1.0	upper	../fonts/Verdana.ttf
1148.832	n/a	WORD	574416	wordpools/wasnorm_wordpool_less_exclusions.txt	LTP280	ltpFR	4	6	-1	BOSS	152	n/a	-1	1	1.0	1.0	upper	../fonts/Verdana.ttf
1152.73	n/a	WORD	576365	wordpools/wasnorm_wordpool_less_exclusions.txt	LTP280	ltpFR	4	6	-1	DASHBOARD	441	n/a	-1	1	1.0	1.0	upper	../fonts/Verdana.ttf
1156.676	n/a	WORD	578338	wordpools/wasnorm_wordpool_less_exclusions.txt	LTP280	ltpFR	4	6	-1	CART	250	n/a	-1	1	1.0	1.0	upper	../fonts/Verdana.ttf
1160.56	n/a	WORD	580280	wordpools/wasnorm_wordpool_less_exclusions.txt	LTP280	ltpFR	4	6	-1	PIKE	1067	n/a	-1	1	1.0	1.0	upper	../fonts/Verdana.ttf
1164.476	n/a	WORD	582238	wordpools/wasnorm_wordpool_less_exclusions.txt	LTP280	ltpFR	4	6	-1	BULL	193	n/a	-1	1	1.0	1.0	upper	../fonts/Verdana.ttf
1168.64	n/a	WORD	584320	wordpools/wasnorm_wordpool_less_exclusions.txt	LTP280	ltpFR	4	6	-1	PADDLE	1000	n/a	-1	1	1.0	1.0	upper	../fonts/Verdana.ttf
1172.638	n/a	WORD	586319	wordpools/wasnorm_wordpool_less_exclusions.txt	LTP280	ltpFR	4	6	-1	CAPTAIN	239	n/a	-1	1	1.0	1.0	upper	../fonts/Verdana.ttf
1176.504	n/a	WORD	588252	wordpools/wasnorm_wordpool_less_exclusions.txt	LTP280	ltpFR	4	6	-1	DONKEY	484	n/a	-1	1	1.0	1.0	upper	../fonts/Verdana.ttf
1180.454	n/a	WORD	590227	wordpools/wasnorm_wordpool_less_exclusions.txt	LTP280	ltpFR	4	6	-1	PIT	1077	n/a	-1	1	1.0	1.0	upper	../fonts/Verdana.ttf
1184.618	n/a	WORD	592309	wordpools/wasnorm_wordpool_less_exclusions.txt	LTP280	ltpFR	4	6	-1	HORIZON	717	n/a	-1	1	1.0	1.0	upper	../fonts/Verdana.ttf
1190.676	n/a	REC_START	595338	n/a	LTP280	ltpFR	4	6	n/a	n/a	n/a	n/a	n/a	n/a	n/a	n/a	n/a	n/a
1191.084	n/a	REC_WORD	595542	wordpools/wasnorm_wordpool_less_exclusions.txt	LTP280	ltpFR	4	6	-1	PADDLE	1000	n/a	-1	n/a	n/a	n/a	n/a	n/a
1191.504	n/a	REC_WORD	595752	wordpools/wasnorm_wordpool_less_exclusions.txt	LTP280	ltpFR	4	6	-1	CAPTAIN	239	n/a	-1	n/a	n/a	n/a	n/a	n/a
1192.504	n/a	REC_WORD	596252	wordpools/wasnorm_wordpool_less_exclusions.txt	LTP280	ltpFR	4	6	-1	DONKEY	484	n/a	-1	n/a	n/a	n/a	n/a	n/a
1193.194	n/a	REC_WORD	596597	wordpools/wasnorm_wordpool_less_exclusions.txt	LTP280	ltpFR	4	6	-1	PIT	1077	n/a	-1	n/a	n/a	n/a	n/a	n/a
1193.532	n/a	REC_WORD	596766	wordpools/wasnorm_wordpool_less_exclusions.txt	LTP280	ltpFR	4	6	-1	HORIZON	717	n/a	-1	n/a	n/a	n/a	n/a	n/a
1213.348	n/a	REC_WORD	606674	wordpools/wasnorm_wordpool_less_exclusions.txt	LTP280	ltpFR	4	6	-1	SPICE	1350	n/a	-1	n/a	n/a	n/a	n/a	n/a
1214.19	n/a	REC_WORD	607095	wordpools/wasnorm_wordpool_less_exclusions.txt	LTP280	ltpFR	4	6	-1	CHECK	284	n/a	-1	n/a	n/a	n/a	n/a	n/a
1215.292	n/a	REC_WORD	607646	wordpools/wasnorm_wordpool_less_exclusions.txt	LTP280	ltpFR	4	6	-1	PORCH	1106	n/a	-1	n/a	n/a	n/a	n/a	n/a
1219.334	n/a	REC_WORD	609667	wordpools/wasnorm_wordpool_less_exclusions.txt	LTP280	ltpFR	4	6	-1	HERD	705	n/a	-1	n/a	n/a	n/a	n/a	n/a
1276.638	n/a	WORD	638319	wordpools/wasnorm_wordpool_less_exclusions.txt	LTP280	ltpFR	4	7	0	LIZARD	834	n/a	0	1	0.412841796875	0.57763671875	lower	../fonts/amplitud.ttf
1280.82	n/a	WORD	640410	wordpools/wasnorm_wordpool_less_exclusions.txt	LTP280	ltpFR	4	7	0	SNAKE	1333	n/a	0	1	0.412841796875	0.57763671875	lower	../fonts/amplitud.ttf
1284.902	n/a	WORD	642451	wordpools/wasnorm_wordpool_less_exclusions.txt	LTP280	ltpFR	4	7	0	SHOP	1290	n/a	1	1	0.412841796875	0.57763671875	lower	../fonts/amplitud.ttf
1288.75	n/a	WORD	644375	wordpools/wasnorm_wordpool_less_exclusions.txt	LTP280	ltpFR	4	7	0	SPRINKLE	1359	n/a	0	1	0.412841796875	0.57763671875	lower	../fonts/amplitud.ttf
1292.746	n/a	WORD	646373	wordpools/wasnorm_wordpool_less_exclusions.txt	LTP280	ltpFR	4	7	0	WHEEL	1603	n/a	0	1	0.412841796875	0.57763671875	lower	../fonts/amplitud.ttf
1296.798	n/a	WORD	648399	wordpools/wasnorm_wordpool_less_exclusions.txt	LTP280	ltpFR	4	7	0	TERMITE	1451	n/a	0	1	0.412841796875	0.57763671875	lower	../fonts/amplitud.ttf
1300.78	n/a	WORD	650390	wordpools/wasnorm_wordpool_less_exclusions.txt	LTP280	ltpFR	4	7	0	KETTLE	772	n/a	0	1	0.412841796875	0.57763671875	lower	../fonts/amplitud.ttf
1304.962	n/a	WORD	652481	wordpools/wasnorm_wordpool_less_exclusions.txt	LTP280	ltpFR	4	7	0	PENDULUM	1043	n/a	0	1	0.412841796875	0.57763671875	lower	../fonts/amplitud.ttf
1308.86	n/a	WORD	654430	wordpools/wasnorm_wordpool_less_exclusions.txt	LTP280	ltpFR	4	7	0	TICK	1463	n/a	0	1	0.412841796875	0.57763671875	lower	../fonts/amplitud.ttf
1312.91	n/a	WORD	656455	wordpools/wasnorm_wordpool_less_exclusions.txt	LTP280	ltpFR	4	7	0	DEPARTMENT	449	n/a	1	1	0.412841796875	0.57763671875	lower	../fonts/amplitud.ttf
1316.808	n/a	WORD	658404	wordpools/wasnorm_wordpool_less_exclusions.txt	LTP280	ltpFR	4	7	0	WAGON	1578	n/a	1	1	0.412841796875	0.57763671875	lower	../fonts/amplitud.ttf
1320.974	n/a	WORD	660487	wordpools/wasnorm_wordpool_less_exclusions.txt	LTP280	ltpFR	4	7	0	MISSILE	900	n/a	1	1	0.412841796875	0.57763671875	lower	../fonts/amplitud.ttf
1325.172	n/a	WORD	662586	wordpools/wasnorm_wordpool_less_exclusions.txt	LTP280	ltpFR	4	7	0	PLASTER	1085	n/a	0	1	0.412841796875	0.57763671875	lower	../fonts/amplitud.ttf
1329.17	n/a	WORD	664585	wordpools/wasnorm_wordpool_less_exclusions.txt	LTP280	ltpFR	4	7	0	ENGINE	535	n/a	1	1	0.412841796875	0.57763671875	lower	../fonts/amplitud.ttf
1333.12	n/a	WORD	666560	wordpools/wasnorm_wordpool_less_exclusions.txt	LTP280	ltpFR	4	7	0	CABOOSE	214	n/a	1	1	0.412841796875	0.57763671875	lower	../fonts/amplitud.ttf
1337.334	n/a	WORD	668667	wordpools/wasnorm_wordpool_less_exclusions.txt	LTP280	ltpFR	4	7	0	PAW	1029	n/a	0	1	0.412841796875	0.57763671875	lower	../fonts/amplitud.ttf
1342.974	n/a	REC_START	671487	n/a	LTP280	ltpFR	4	7	n/a	n/a	n/a	n/a	n/a	n/a	n/a	n/a	n/a	n/a
1343.17	n/a	REC_WORD_VV	671585	wordpools/wasnorm_wordpool_less_exclusions.txt	LTP280	ltpFR	4	7	n/a	<>	-1	n/a	n/a	n/a	n/a	n/a	n/a	n/a
1343.612	n/a	REC_WORD	671806	wordpools/wasnorm_wordpool_less_exclusions.txt	LTP280	ltpFR	4	7	0	CABOOSE	214	n/a	1	n/a	n/a	n/a	n/a	n/a
1344.81	n/a	REC_WORD	672405	wordpools/wasnorm_wordpool_less_exclusions.txt	LTP280	ltpFR	4	7	0	LIZARD	834	n/a	0	n/a	n/a	n/a	n/a	n/a
1345.246	n/a	REC_WORD	672623	wordpools/wasnorm_wordpool_less_exclusions.txt	LTP280	ltpFR	4	7	0	SNAKE	1333	n/a	0	n/a	n/a	n/a	n/a	n/a
1347.024	n/a	REC_WORD	673512	wordpools/wasnorm_wordpool_less_exclusions.txt	LTP280	ltpFR	4	7	0	SHOP	1290	n/a	1	n/a	n/a	n/a	n/a	n/a
1347.756	n/a	REC_WORD	673878	wordpools/wasnorm_wordpool_less_exclusions.txt	LTP280	ltpFR	4	7	0	WHEEL	1603	n/a	0	n/a	n/a	n/a	n/a	n/a
1348.588	n/a	REC_WORD	674294	wordpools/wasnorm_wordpool_less_exclusions.txt	LTP280	ltpFR	4	7	0	WAGON	1578	n/a	1	n/a	n/a	n/a	n/a	n/a
1354.078	n/a	REC_WORD	677039	wordpools/wasnorm_wordpool_less_exclusions.txt	LTP280	ltpFR	4	7	0	ENGINE	535	n/a	1	n/a	n/a	n/a	n/a	n/a
1358.734	n/a	REC_WORD	679367	wordpools/wasnorm_wordpool_less_exclusions.txt	LTP280	ltpFR	4	7	0	TERMITE	1451	n/a	0	n/a	n/a	n/a	n/a	n/a
1360.332	n/a	REC_WORD	680166	wordpools/wasnorm_wordpool_less_exclusions.txt	LTP280	ltpFR	4	7	0	TICK	1463	n/a	0	n/a	n/a	n/a	n/a	n/a
1432.984	n/a	WORD	716492	wordpools/wasnorm_wordpool_less_exclusions.txt	LTP280	ltpFR	4	8	-1	PORPOISE	1109	n/a	-1	1	1.0	1.0	upper	../fonts/Verdana.ttf
1436.916	n/a	WORD	718458	wordpools/wasnorm_wordpool_less_exclusions.txt	LTP280	ltpFR	4	8	-1	WALRUS	1585	n/a	-1	1	1.0	1.0	upper	../fonts/Verdana.ttf
1440.898	n/a	WORD	720449	wordpools/wasnorm_wordpool_less_exclusions.txt	LTP280	ltpFR	4	8	-1	TWIN	1528	n/a	-1	1	1.0	1.0	upper	../fonts/Verdana.ttf
1445.064	n/a	WORD	722532	wordpools/wasnorm_wordpool_less_exclusions.txt	LTP280	ltpFR	4	8	-1	TRIGGER	1507	n/a	-1	1	1.0	1.0	upper	../fonts/Verdana.ttf
1449.062	n/a	WORD	724531	wordpools/wasnorm_wordpool_less_exclusions.txt	LTP280	ltpFR	4	8	-1	TECHNICIAN	1443	n/a	-1	1	1.0	1.0	upper	../fonts/Verdana.ttf
1452.928	n/a	WORD	726464	wordpools/wasnorm_wordpool_less_exclusions.txt	LTP280	ltpFR	4	8	-1	UNDERWEAR	1537	n/a	-1	1	1.0	1.0	upper	../fonts/Verdana.ttf
1456.858	n/a	WORD	728429	wordpools/wasnorm_wordpool_less_exclusions.txt	LTP280	ltpFR	4	8	-1	SUIT	1402	n/a	-1	1	1.0	1.0	upper	../fonts/Verdana.ttf
1460.74	n/a	WORD	730370	wordpools/wasnorm_wordpool_less_exclusions.txt	LTP280	ltpFR	4	8	-1	GIRL	637	n/a	-1	1	1.0	1.0	upper	../fonts/Verdana.ttf
1464.69	n/a	WORD	732345	wordpools/wasnorm_wordpool_less_exclusions.txt	LTP280	ltpFR	4	8	-1	BARN	89	n/a	-1	1	1.0	1.0	upper	../fonts/Verdana.ttf
1468.704	n/a	WORD	734352	wordpools/wasnorm_wordpool_less_exclusions.txt	LTP280	ltpFR	4	8	-1	GAZELLE	628	n/a	-1	1	1.0	1.0	upper	../fonts/Verdana.ttf
1472.586	n/a	WORD	736293	wordpools/wasnorm_wordpool_less_exclusions.txt	LTP280	ltpFR	4	8	-1	BOY	161	n/a	-1	1	1.0	1.0	upper	../fonts/Verdana.ttf
1476.6	n/a	WORD	738300	wordpools/wasnorm_wordpool_less_exclusions.txt	LTP280	ltpFR	4	8	-1	ANIMAL	23	n/a	-1	1	1.0	1.0	upper	../fonts/Verdana.ttf
1480.65	n/a	WORD	740325	wordpools/wasnorm_wordpool_less_exclusions.txt	LTP280	ltpFR	4	8	-1	LIVER	833	n/a	-1	1	1.0	1.0	upper	../fonts/Verdana.ttf
1484.666	n/a	WORD	742333	wordpools/wasnorm_wordpool_less_exclusions.txt	LTP280	ltpFR	4	8	-1	HANDKERCHIEF	686	n/a	-1	1	1.0	1.0	upper	../fonts/Verdana.ttf
1488.546	n/a	WORD	744273	wordpools/wasnorm_wordpool_less_exclusions.txt	LTP280	ltpFR	4	8	-1	OVEN	991	n/a	-1	1	1.0	1.0	upper	../fonts/Verdana.ttf
1492.596	n/a	WORD	746298	wordpools/wasnorm_wordpool_less_exclusions.txt	LTP280	ltpFR	4	8	-1	COOK	372	n/a	-1	1	1.0	1.0	upper	../fonts/Verdana.ttf
1498.552	n/a	REC_START	749276	n/a	LTP280	ltpFR	4	8	n/a	n/a	n/a	n/a	n/a	n/a	n/a	n/a	n/a	n/a
1498.722	n/a	REC_WORD	749361	wordpools/wasnorm_wordpool_less_exclusions.txt	LTP280	ltpFR	4	8	-1	HANDKERCHIEF	686	n/a	-1	n/a	n/a	n/a	n/a	n/a
1500.554	n/a	REC_WORD	750277	wordpools/wasnorm_wordpool_less_exclusions.txt	LTP280	ltpFR	4	8	-1	COOK	372	n/a	-1	n/a	n/a	n/a	n/a	n/a
1501.598	n/a	REC_WORD	750799	wordpools/wasnorm_wordpool_less_exclusions.txt	LTP280	ltpFR	4	8	-1	PORPOISE	1109	n/a	-1	n/a	n/a	n/a	n/a	n/a
1502.286	n/a	REC_WORD	751143	wordpools/wasnorm_wordpool_less_exclusions.txt	LTP280	ltpFR	4	8	-1	WALRUS	1585	n/a	-1	n/a	n/a	n/a	n/a	n/a
1503.902	n/a	REC_WORD	751951	wordpools/wasnorm_wordpool_less_exclusions.txt	LTP280	ltpFR	4	8	-1	TWIN	1528	n/a	-1	n/a	n/a	n/a	n/a	n/a
1504.85	n/a	REC_WORD	752425	wordpools/wasnorm_wordpool_less_exclusions.txt	LTP280	ltpFR	4	8	-1	TRIGGER	1507	n/a	-1	n/a	n/a	n/a	n/a	n/a
1508.254	n/a	REC_WORD	754127	wordpools/wasnorm_wordpool_less_exclusions.txt	LTP280	ltpFR	4	8	-1	LIVER	833	n/a	-1	n/a	n/a	n/a	n/a	n/a
1574.206	n/a	REST_REWET	787103	n/a	LTP280	ltpFR	4	8	n/a	n/a	n/a	n/a	n/a	n/a	n/a	n/a	n/a	n/a
1887.22	n/a	WORD	943610	wordpools/wasnorm_wordpool_less_exclusions.txt	LTP280	ltpFR	4	9	-1	CASHIER	254	n/a	-1	1	1.0	1.0	upper	../fonts/Verdana.ttf
1891.068	n/a	WORD	945534	wordpools/wasnorm_wordpool_less_exclusions.txt	LTP280	ltpFR	4	9	-1	CONTRACTOR	369	n/a	-1	1	1.0	1.0	upper	../fonts/Verdana.ttf
1895.0	n/a	WORD	947500	wordpools/wasnorm_wordpool_less_exclusions.txt	LTP280	ltpFR	4	9	-1	TOAD	1470	n/a	-1	1	1.0	1.0	upper	../fonts/Verdana.ttf
1899.1	n/a	WORD	949550	wordpools/wasnorm_wordpool_less_exclusions.txt	LTP280	ltpFR	4	9	-1	TACK	1428	n/a	-1	1	1.0	1.0	upper	../fonts/Verdana.ttf
1902.998	n/a	WORD	951499	wordpools/wasnorm_wordpool_less_exclusions.txt	LTP280	ltpFR	4	9	-1	WINDSHIELD	1612	n/a	-1	1	1.0	1.0	upper	../fonts/Verdana.ttf
1907.196	n/a	WORD	953598	wordpools/wasnorm_wordpool_less_exclusions.txt	LTP280	ltpFR	4	9	-1	SCREW	1254	n/a	-1	1	1.0	1.0	upper	../fonts/Verdana.ttf
1911.412	n/a	WORD	955706	wordpools/wasnorm_wordpool_less_exclusions.txt	LTP280	ltpFR	4	9	-1	THORN	1459	n/a	-1	1	1.0	1.0	upper	../fonts/Verdana.ttf
1915.496	n/a	WORD	957748	wordpools/wasnorm_wordpool_less_exclusions.txt	LTP280	ltpFR	4	9	-1	GARDEN	623	n/a	-1	1	1.0	1.0	upper	../fonts/Verdana.ttf
1919.678	n/a	WORD	959839	wordpools/wasnorm_wordpool_less_exclusions.txt	LTP280	ltpFR	4	9	-1	PRIEST	1122	n/a	-1	1	1.0	1.0	upper	../fonts/Verdana.ttf
1923.776	n/a	WORD	961888	wordpools/wasnorm_wordpool_less_exclusions.txt	LTP280	ltpFR	4	9	-1	FOUNTAIN	597	n/a	-1	1	1.0	1.0	upper	../fonts/Verdana.ttf
1927.926	n/a	WORD	963963	wordpools/wasnorm_wordpool_less_exclusions.txt	LTP280	ltpFR	4	9	-1	FINGERNAIL	568	n/a	-1	1	1.0	1.0	upper	../fonts/Verdana.ttf
1931.79	n/a	WORD	965895	wordpools/wasnorm_wordpool_less_exclusions.txt	LTP280	ltpFR	4	9	-1	COIN	343	n/a	-1	1	1.0	1.0	upper	../fonts/Verdana.ttf
1935.722	n/a	WORD	967861	wordpools/wasnorm_wordpool_less_exclusions.txt	LTP280	ltpFR	4	9	-1	RELISH	1183	n/a	-1	1	1.0	1.0	upper	../fonts/Verdana.ttf
1939.872	n/a	WORD	969936	wordpools/wasnorm_wordpool_less_exclusions.txt	LTP280	ltpFR	4	9	-1	FROG	608	n/a	-1	1	1.0	1.0	upper	../fonts/Verdana.ttf
1944.072	n/a	WORD	972036	wordpools/wasnorm_wordpool_less_exclusions.txt	LTP280	ltpFR	4	9	-1	PLANET	1082	n/a	-1	1	1.0	1.0	upper	../fonts/Verdana.ttf
1948.186	n/a	WORD	974093	wordpools/wasnorm_wordpool_less_exclusions.txt	LTP280	ltpFR	4	9	-1	EARTH	515	n/a	-1	1	1.0	1.0	upper	../fonts/Verdana.ttf
1953.876	n/a	REC_START	976938	n/a	LTP280	ltpFR	4	9	n/a	n/a	n/a	n/a	n/a	n/a	n/a	n/a	n/a	n/a
1954.752	n/a	REC_WORD	977376	wordpools/wasnorm_wordpool_less_exclusions.txt	LTP280	ltpFR	4	9	-1	PRIEST	1122	n/a	-1	n/a	n/a	n/a	n/a	n/a
1955.268	n/a	REC_WORD	977634	wordpools/wasnorm_wordpool_less_exclusions.txt	LTP280	ltpFR	4	9	-1	FOUNTAIN	597	n/a	-1	n/a	n/a	n/a	n/a	n/a
1956.064	n/a	REC_WORD	978032	wordpools/wasnorm_wordpool_less_exclusions.txt	LTP280	ltpFR	4	9	-1	FROG	608	n/a	-1	n/a	n/a	n/a	n/a	n/a
1957.528	n/a	REC_WORD	978764	wordpools/wasnorm_wordpool_less_exclusions.txt	LTP280	ltpFR	4	9	-1	PLANET	1082	n/a	-1	n/a	n/a	n/a	n/a	n/a
1958.51	n/a	REC_WORD	979255	wordpools/wasnorm_wordpool_less_exclusions.txt	LTP280	ltpFR	4	9	-1	EARTH	515	n/a	-1	n/a	n/a	n/a	n/a	n/a
1964.368	n/a	REC_WORD_VV	982184	wordpools/wasnorm_wordpool_less_exclusions.txt	LTP280	ltpFR	4	9	n/a	<>	-1	n/a	n/a	n/a	n/a	n/a	n/a	n/a
1965.038	n/a	REC_WORD	982519	wordpools/wasnorm_wordpool_less_exclusions.txt	LTP280	ltpFR	4	9	-1	CONTRACTOR	369	n/a	-1	n/a	n/a	n/a	n/a	n/a
1970.176	n/a	REC_WORD	985088	wordpools/wasnorm_wordpool_less_exclusions.txt	LTP280	ltpFR	4	9	-1	THORN	1459	n/a	-1	n/a	n/a	n/a	n/a	n/a
1972.606	n/a	REC_WORD	986303	wordpools/wasnorm_wordpool_less_exclusions.txt	LTP280	ltpFR	4	9	-1	TACK	1428	n/a	-1	n/a	n/a	n/a	n/a	n/a
1978.082	n/a	REC_WORD	989041	wordpools/wasnorm_wordpool_less_exclusions.txt	LTP280	ltpFR	4	9	-1	FINGERNAIL	568	n/a	-1	n/a	n/a	n/a	n/a	n/a
1979.036	n/a	REC_WORD	989518	wordpools/wasnorm_wordpool_less_exclusions.txt	LTP280	ltpFR	4	9	-1	COIN	343	n/a	-1	n/a	n/a	n/a	n/a	n/a
1980.274	n/a	REC_WORD	990137	wordpools/wasnorm_wordpool_less_exclusions.txt	LTP280	ltpFR	4	9	-1	WINDSHIELD	1612	n/a	-1	n/a	n/a	n/a	n/a	n/a
1981.062	n/a	REC_WORD	990531	wordpools/wasnorm_wordpool_less_exclusions.txt	LTP280	ltpFR	4	9	-1	SCREW	1254	n/a	-1	n/a	n/a	n/a	n/a	n/a
2060.28	n/a	WORD	1030140	wordpools/wasnorm_wordpool_less_exclusions.txt	LTP280	ltpFR	4	10	-1	VEGETABLE	1552	n/a	-1	1	1.0	1.0	upper	../fonts/Verdana.ttf
2064.278	n/a	WORD	1032139	wordpools/wasnorm_wordpool_less_exclusions.txt	LTP280	ltpFR	4	10	-1	BLACKBERRY	132	n/a	-1	1	1.0	1.0	upper	../fonts/Verdana.ttf
2068.48	n/a	WORD	1034240	wordpools/wasnorm_wordpool_less_exclusions.txt	LTP280	ltpFR	4	10	-1	GRILL	661	n/a	-1	1	1.0	1.0	upper	../fonts/Verdana.ttf
2072.36	n/a	WORD	1036180	wordpools/wasnorm_wordpool_less_exclusions.txt	LTP280	ltpFR	4	10	-1	SAW	1239	n/a	-1	1	1.0	1.0	upper	../fonts/Verdana.ttf
2076.41	n/a	WORD	1038205	wordpools/wasnorm_wordpool_less_exclusions.txt	LTP280	ltpFR	4	10	-1	CHISEL	305	n/a	-1	1	1.0	1.0	upper	../fonts/Verdana.ttf
2080.408	n/a	WORD	1040204	wordpools/wasnorm_wordpool_less_exclusions.txt	LTP280	ltpFR	4	10	-1	SERVANT	1271	n/a	-1	1	1.0	1.0	upper	../fonts/Verdana.ttf
2084.256	n/a	WORD	1042128	wordpools/wasnorm_wordpool_less_exclusions.txt	LTP280	ltpFR	4	10	-1	BULB	192	n/a	-1	1	1.0	1.0	upper	../fonts/Verdana.ttf
2088.456	n/a	WORD	1044228	wordpools/wasnorm_wordpool_less_exclusions.txt	LTP280	ltpFR	4	10	-1	CHIEF	298	n/a	-1	1	1.0	1.0	upper	../fonts/Verdana.ttf
2092.538	n/a	WORD	1046269	wordpools/wasnorm_wordpool_less_exclusions.txt	LTP280	ltpFR	4	10	-1	SIREN	1310	n/a	-1	1	1.0	1.0	upper	../fonts/Verdana.ttf
2096.604	n/a	WORD	1048302	wordpools/wasnorm_wordpool_less_exclusions.txt	LTP280	ltpFR	4	10	-1	PLANT	1083	n/a	-1	1	1.0	1.0	upper	../fonts/Verdana.ttf
2100.72	n/a	WORD	1050360	wordpools/wasnorm_wordpool_less_exclusions.txt	LTP280	ltpFR	4	10	-1	BATH	98	n/a	-1	1	1.0	1.0	upper	../fonts/Verdana.ttf
2104.584	n/a	WORD	1052292	wordpools/wasnorm_wordpool_less_exclusions.txt	LTP280	ltpFR	4	10	-1	COOKBOOK	373	n/a	-1	1	1.0	1.0	upper	../fonts/Verdana.ttf
2108.734	n/a	WORD	1054367	wordpools/wasnorm_wordpool_less_exclusions.txt	LTP280	ltpFR	4	10	-1	SPOON	1357	n/a	-1	1	1.0	1.0	upper	../fonts/Verdana.ttf
2112.948	n/a	WORD	1056474	wordpools/wasnorm_wordpool_less_exclusions.txt	LTP280	ltpFR	4	10	-1	TURNIP	1521	n/a	-1	1	1.0	1.0	upper	../fonts/Verdana.ttf
2116.882	n/a	WORD	1058441	wordpools/wasnorm_wordpool_less_exclusions.txt	LTP280	ltpFR	4	10	-1	PECAN	1036	n/a	-1	1	1.0	1.0	upper	../fonts/Verdana.ttf
2120.846	n/a	WORD	1060423	wordpools/wasnorm_wordpool_less_exclusions.txt	LTP280	ltpFR	4	10	-1	MICROWAVE	892	n/a	-1	1	1.0	1.0	upper	../fonts/Verdana.ttf
2126.502	n/a	REC_START	1063251	n/a	LTP280	ltpFR	4	10	n/a	n/a	n/a	n/a	n/a	n/a	n/a	n/a	n/a	n/a
2126.938	n/a	REC_WORD	1063469	wordpools/wasnorm_wordpool_less_exclusions.txt	LTP280	ltpFR	4	10	-1	MICROWAVE	892	n/a	-1	n/a	n/a	n/a	n/a	n/a
2127.816	n/a	REC_WORD	1063908	wordpools/wasnorm_wordpool_less_exclusions.txt	LTP280	ltpFR	4	10	-1	TURNIP	1521	n/a	-1	n/a	n/a	n/a	n/a	n/a
2133.016	n/a	REC_WORD	1066508	wordpools/wasnorm_wordpool_less_exclusions.txt	LTP280	ltpFR	4	10	-1	PLANT	1083	n/a	-1	n/a	n/a	n/a	n/a	n/a
2136.87	n/a	REC_WORD_VV	1068435	wordpools/wasnorm_wordpool_less_exclusions.txt	LTP280	ltpFR	4	10	n/a	<>	-1	n/a	n/a	n/a	n/a	n/a	n/a	n/a
2141.1	n/a	REC_WORD	1070550	wordpools/wasnorm_wordpool_less_exclusions.txt	LTP280	ltpFR	4	10	-1	BULB	192	n/a	-1	n/a	n/a	n/a	n/a	n/a
2141.596	n/a	REC_WORD	1070798	wordpools/wasnorm_wordpool_less_exclusions.txt	LTP280	ltpFR	4	10	-1	CHIEF	298	n/a	-1	n/a	n/a	n/a	n/a	n/a
2144.59	n/a	REC_WORD	1072295	wordpools/wasnorm_wordpool_less_exclusions.txt	LTP280	ltpFR	4	10	-1	COOKBOOK	373	n/a	-1	n/a	n/a	n/a	n/a	n/a
2145.384	n/a	REC_WORD	1072692	wordpools/wasnorm_wordpool_less_exclusions.txt	LTP280	ltpFR	4	10	-1	SPOON	1357	n/a	-1	n/a	n/a	n/a	n/a	n/a
2149.392	n/a	REC_WORD	1074696	wordpools/wasnorm_wordpool_less_exclusions.txt	LTP280	ltpFR	4	10	-1	SAW	1239	n/a	-1	n/a	n/a	n/a	n/a	n/a
2150.38	n/a	REC_WORD	1075190	wordpools/wasnorm_wordpool_less_exclusions.txt	LTP280	ltpFR	4	10	-1	GRILL	661	n/a	-1	n/a	n/a	n/a	n/a	n/a
2155.578	n/a	REC_WORD	1077789	wordpools/wasnorm_wordpool_less_exclusions.txt	LTP280	ltpFR	4	10	-1	CHISEL	305	n/a	-1	n/a	n/a	n/a	n/a	n/a
2156.252	n/a	REC_WORD	1078126	wordpools/wasnorm_wordpool_less_exclusions.txt	LTP280	ltpFR	4	10	-1	SERVANT	1271	n/a	-1	n/a	n/a	n/a	n/a	n/a
2224.928	n/a	WORD	1112464	wordpools/wasnorm_wordpool_less_exclusions.txt	LTP280	ltpFR	4	11	0	CAPITAL	238	n/a	1	1	0.412841796875	0.57763671875	lower	../fonts/amplitud.ttf
2228.826	n/a	WORD	1114413	wordpools/wasnorm_wordpool_less_exclusions.txt	LTP280	ltpFR	4	11	0	THIMBLE	1458	n/a	0	1	0.412841796875	0.57763671875	lower	../fonts/amplitud.ttf
2232.874	n/a	WORD	1116437	wordpools/wasnorm_wordpool_less_exclusions.txt	LTP280	ltpFR	4	11	0	YARN	1631	n/a	0	1	0.412841796875	0.57763671875	lower	../fonts/amplitud.ttf
2236.69	n/a	WORD	1118345	wordpools/wasnorm_wordpool_less_exclusions.txt	LTP280	ltpFR	4	11	0	WILDERNESS	1610	n/a	1	1	0.412841796875	0.57763671875	lower	../fonts/amplitud.ttf
2240.654	n/a	WORD	1120327	wordpools/wasnorm_wordpool_less_exclusions.txt	LTP280	ltpFR	4	11	0	ABDOMEN	1	n/a	1	1	0.412841796875	0.57763671875	lower	../fonts/amplitud.ttf
2244.82	n/a	WORD	1122410	wordpools/wasnorm_wordpool_less_exclusions.txt	LTP280	ltpFR	4	11	0	HEART	697	n/a	0	1	0.412841796875	0.57763671875	lower	../fonts/amplitud.ttf
2248.752	n/a	WORD	1124376	wordpools/wasnorm_wordpool_less_exclusions.txt	LTP280	ltpFR	4	11	0	SKIN	1318	n/a	1	1	0.412841796875	0.57763671875	lower	../fonts/amplitud.ttf
2252.8	n/a	WORD	1126400	wordpools/wasnorm_wordpool_less_exclusions.txt	LTP280	ltpFR	4	11	0	SANDPAPER	1231	n/a	0	1	0.412841796875	0.57763671875	lower	../fonts/amplitud.ttf
2257.0	n/a	WORD	1128500	wordpools/wasnorm_wordpool_less_exclusions.txt	LTP280	ltpFR	4	11	0	EWE	542	n/a	1	1	0.412841796875	0.57763671875	lower	../fonts/amplitud.ttf
2261.216	n/a	WORD	1130608	wordpools/wasnorm_wordpool_less_exclusions.txt	LTP280	ltpFR	4	11	0	BUILDING	191	n/a	1	1	0.412841796875	0.57763671875	lower	../fonts/amplitud.ttf
2265.164	n/a	WORD	1132582	wordpools/wasnorm_wordpool_less_exclusions.txt	LTP280	ltpFR	4	11	0	LANDSCAPE	799	n/a	1	1	0.412841796875	0.57763671875	lower	../fonts/amplitud.ttf
2269.312	n/a	WORD	1134656	wordpools/wasnorm_wordpool_less_exclusions.txt	LTP280	ltpFR	4	11	0	FLEET	578	n/a	1	1	0.412841796875	0.57763671875	lower	../fonts/amplitud.ttf
2273.48	n/a	WORD	1136740	wordpools/wasnorm_wordpool_less_exclusions.txt	LTP280	ltpFR	4	11	0	SIBLING	1301	n/a	1	1	0.412841796875	0.57763671875	lower	../fonts/amplitud.ttf
2277.344	n/a	WORD	1138672	wordpools/wasnorm_wordpool_less_exclusions.txt	LTP280	ltpFR	4	11	0	TIMBER	1469	n/a	1	1	0.412841796875	0.57763671875	lower	../fonts/amplitud.ttf
2281.21	n/a	WORD	1140605	wordpools/wasnorm_wordpool_less_exclusions.txt	LTP280	ltpFR	4	11	0	MOWER	928	n/a	1	1	0.412841796875	0.57763671875	lower	../fonts/amplitud.ttf
2285.308	n/a	WORD	1142654	wordpools/wasnorm_wordpool_less_exclusions.txt	LTP280	ltpFR	4	11	0	BUSH	202	n/a	1	1	0.412841796875	0.57763671875	lower	../fonts/amplitud.ttf
2291.064	n/a	REC_START	1145532	n/a	LTP280	ltpFR	4	11	n/a	n/a	n/a	n/a	n/a	n/a	n/a	n/a	n/a	n/a
2291.806	n/a	REC_WORD	1145903	wordpools/wasnorm_wordpool_less_exclusions.txt	LTP280	ltpFR	4	11	0	BUSH	202	n/a	1	n/a	n/a	n/a	n/a	n/a
2293.096	n/a	REC_WORD	1146548	wordpools/wasnorm_wordpool_less_exclusions.txt	LTP280	ltpFR	4	11	0	THIMBLE	1458	n/a	0	n/a	n/a	n/a	n/a	n/a
2293.688	n/a	REC_WORD	1146844	wordpools/wasnorm_wordpool_less_exclusions.txt	LTP280	ltpFR	4	11	0	LANDSCAPE	799	n/a	1	n/a	n/a	n/a	n/a	n/a
2296.204	n/a	REC_WORD	1148102	wordpools/wasnorm_wordpool_less_exclusions.txt	LTP280	ltpFR	4	11	0	WILDERNESS	1610	n/a	1	n/a	n/a	n/a	n/a	n/a
2298.176	n/a	REC_WORD	1149088	wordpools/wasnorm_wordpool_less_exclusions.txt	LTP280	ltpFR	4	11	0	YARN	1631	n/a	0	n/a	n/a	n/a	n/a	n/a
2311.44	n/a	REC_WORD	1155720	wordpools/wasnorm_wordpool_less_exclusions.txt	LTP280	ltpFR	4	11	0	HEART	697	n/a	0	n/a	n/a	n/a	n/a	n/a
2383.182	n/a	WORD	1191591	wordpools/wasnorm_wordpool_less_exclusions.txt	LTP280	ltpFR	4	12	0	MANSION	864	n/a	1	1	0.412841796875	0.57763671875	lower	../fonts/amplitud.ttf
2387.082	n/a	WORD	1193541	wordpools/wasnorm_wordpool_less_exclusions.txt	LTP280	ltpFR	4	12	0	YACHT	1629	n/a	1	1	0.412841796875	0.57763671875	lower	../fonts/amplitud.ttf
2391.112	n/a	WORD	1195556	wordpools/wasnorm_wordpool_less_exclusions.txt	LTP280	ltpFR	4	12	0	BAY	102	n/a	1	1	0.412841796875	0.57763671875	lower	../fonts/amplitud.ttf
2395.062	n/a	WORD	1197531	wordpools/wasnorm_wordpool_less_exclusions.txt	LTP280	ltpFR	4	12	0	PARCEL	1012	n/a	0	1	0.412841796875	0.57763671875	lower	../fonts/amplitud.ttf
2399.126	n/a	WORD	1199563	wordpools/wasnorm_wordpool_less_exclusions.txt	LTP280	ltpFR	4	12	0	CIRCUS	311	n/a	1	1	0.412841796875	0.57763671875	lower	../fonts/amplitud.ttf
2402.992	n/a	WORD	1201496	wordpools/wasnorm_wordpool_less_exclusions.txt	LTP280	ltpFR	4	12	0	CAMEL	223	n/a	1	1	0.412841796875	0.57763671875	lower	../fonts/amplitud.ttf
2407.208	n/a	WORD	1203604	wordpools/wasnorm_wordpool_less_exclusions.txt	LTP280	ltpFR	4	12	1	RAM	1165	n/a	1	0	0.5869140625	0.422607421875	upper	../fonts/zerothre.ttf
2411.29	n/a	WORD	1205645	wordpools/wasnorm_wordpool_less_exclusions.txt	LTP280	ltpFR	4	12	1	LAMB	797	n/a	1	0	0.5869140625	0.422607421875	upper	../fonts/zerothre.ttf
2415.17	n/a	WORD	1207585	wordpools/wasnorm_wordpool_less_exclusions.txt	LTP280	ltpFR	4	12	1	ASH	44	n/a	0	0	0.5869140625	0.422607421875	upper	../fonts/zerothre.ttf
2419.352	n/a	WORD	1209676	wordpools/wasnorm_wordpool_less_exclusions.txt	LTP280	ltpFR	4	12	1	ZOO	1637	n/a	0	0	0.5869140625	0.422607421875	upper	../fonts/zerothre.ttf
2423.47	n/a	WORD	1211735	wordpools/wasnorm_wordpool_less_exclusions.txt	LTP280	ltpFR	4	12	1	MOUSE	925	n/a	1	0	0.5869140625	0.422607421875	upper	../fonts/zerothre.ttf
2427.586	n/a	WORD	1213793	wordpools/wasnorm_wordpool_less_exclusions.txt	LTP280	ltpFR	4	12	1	TRIANGLE	1504	n/a	0	0	0.5869140625	0.422607421875	upper	../fonts/zerothre.ttf
2431.802	n/a	WORD	1215901	wordpools/wasnorm_wordpool_less_exclusions.txt	LTP280	ltpFR	4	12	0	CUBE	420	n/a	0	1	0.412841796875	0.57763671875	lower	../fonts/amplitud.ttf
2436.018	n/a	WORD	1218009	wordpools/wasnorm_wordpool_less_exclusions.txt	LTP280	ltpFR	4	12	0	DEPUTY	450	n/a	1	1	0.412841796875	0.57763671875	lower	../fonts/amplitud.ttf
2440.134	n/a	WORD	1220067	wordpools/wasnorm_wordpool_less_exclusions.txt	LTP280	ltpFR	4	12	1	VENUS	1557	n/a	0	0	0.5869140625	0.422607421875	upper	../fonts/zerothre.ttf
2444.232	n/a	WORD	1222116	wordpools/wasnorm_wordpool_less_exclusions.txt	LTP280	ltpFR	4	12	1	ROOF	1205	n/a	0	0	0.5869140625	0.422607421875	upper	../fonts/zerothre.ttf
2450.09	n/a	REC_START	1225045	n/a	LTP280	ltpFR	4	12	n/a	n/a	n/a	n/a	n/a	n/a	n/a	n/a	n/a	n/a
2450.614	n/a	REC_WORD	1225307	wordpools/wasnorm_wordpool_less_exclusions.txt	LTP280	ltpFR	4	12	1	VENUS	1557	n/a	0	n/a	n/a	n/a	n/a	n/a
2451.602	n/a	REC_WORD	1225801	wordpools/wasnorm_wordpool_less_exclusions.txt	LTP280	ltpFR	4	12	0	EWE	542	n/a	1	n/a	n/a	n/a	n/a	n/a
2452.592	n/a	REC_WORD_VV	1226296	wordpools/wasnorm_wordpool_less_exclusions.txt	LTP280	ltpFR	4	12	n/a	<>	-1	n/a	n/a	n/a	n/a	n/a	n/a	n/a
2454.168	n/a	REC_WORD	1227084	wordpools/wasnorm_wordpool_less_exclusions.txt	LTP280	ltpFR	4	12	1	ROOF	1205	n/a	0	n/a	n/a	n/a	n/a	n/a
2454.754	n/a	REC_WORD_VV	1227377	wordpools/wasnorm_wordpool_less_exclusions.txt	LTP280	ltpFR	4	12	n/a	<>	-1	n/a	n/a	n/a	n/a	n/a	n/a	n/a
2455.968	n/a	REC_WORD	1227984	wordpools/wasnorm_wordpool_less_exclusions.txt	LTP280	ltpFR	4	12	1	TRIANGLE	1504	n/a	0	n/a	n/a	n/a	n/a	n/a
2457.096	n/a	REC_WORD	1228548	wordpools/wasnorm_wordpool_less_exclusions.txt	LTP280	ltpFR	4	12	0	MANSION	864	n/a	1	n/a	n/a	n/a	n/a	n/a
2457.96	n/a	REC_WORD	1228980	wordpools/wasnorm_wordpool_less_exclusions.txt	LTP280	ltpFR	4	12	0	YACHT	1629	n/a	1	n/a	n/a	n/a	n/a	n/a
2458.682	n/a	REC_WORD	1229341	wordpools/wasnorm_wordpool_less_exclusions.txt	LTP280	ltpFR	4	12	0	BAY	102	n/a	1	n/a	n/a	n/a	n/a	n/a
2462.576	n/a	REC_WORD	1231288	wordpools/wasnorm_wordpool_less_exclusions.txt	LTP280	ltpFR	4	12	0	PARCEL	1012	n/a	0	n/a	n/a	n/a	n/a	n/a
2478.718	n/a	REC_WORD	1239359	wordpools/wasnorm_wordpool_less_exclusions.txt	LTP280	ltpFR	4	12	0	CAMEL	223	n/a	1	n/a	n/a	n/a	n/a	n/a
2479.44	n/a	REC_WORD	1239720	wordpools/wasnorm_wordpool_less_exclusions.txt	LTP280	ltpFR	4	12	0	EWE	542	n/a	1	n/a	n/a	n/a	n/a	n/a
2491.412	n/a	REC_WORD	1245706	wordpools/wasnorm_wordpool_less_exclusions.txt	LTP280	ltpFR	4	12	1	ZOO	1637	n/a	0	n/a	n/a	n/a	n/a	n/a
2550.606	n/a	WORD	1275303	wordpools/wasnorm_wordpool_less_exclusions.txt	LTP280	ltpFR	4	13	0	SHIP	1286	n/a	1	1	0.412841796875	0.57763671875	lower	../fonts/amplitud.ttf
2554.654	n/a	WORD	1277327	wordpools/wasnorm_wordpool_less_exclusions.txt	LTP280	ltpFR	4	13	0	RUNNER	1218	n/a	1	1	0.412841796875	0.57763671875	lower	../fonts/amplitud.ttf
2558.62	n/a	WORD	1279310	wordpools/wasnorm_wordpool_less_exclusions.txt	LTP280	ltpFR	4	13	0	CLASS	318	n/a	1	1	0.412841796875	0.57763671875	lower	../fonts/amplitud.ttf
2562.77	n/a	WORD	1281385	wordpools/wasnorm_wordpool_less_exclusions.txt	LTP280	ltpFR	4	13	0	HORNET	718	n/a	0	1	0.412841796875	0.57763671875	lower	../fonts/amplitud.ttf
2566.65	n/a	WORD	1283325	wordpools/wasnorm_wordpool_less_exclusions.txt	LTP280	ltpFR	4	13	0	AFRICA	9	n/a	1	1	0.412841796875	0.57763671875	lower	../fonts/amplitud.ttf
2570.816	n/a	WORD	1285408	wordpools/wasnorm_wordpool_less_exclusions.txt	LTP280	ltpFR	4	13	0	PUPIL	1143	n/a	0	1	0.412841796875	0.57763671875	lower	../fonts/amplitud.ttf
2574.78	n/a	WORD	1287390	wordpools/wasnorm_wordpool_less_exclusions.txt	LTP280	ltpFR	4	13	0	FREEWAY	603	n/a	1	1	0.412841796875	0.57763671875	lower	../fonts/amplitud.ttf
2578.798	n/a	WORD	1289399	wordpools/wasnorm_wordpool_less_exclusions.txt	LTP280	ltpFR	4	13	0	ALLEY	15	n/a	0	1	0.412841796875	0.57763671875	lower	../fonts/amplitud.ttf
2582.894	n/a	WORD	1291447	wordpools/wasnorm_wordpool_less_exclusions.txt	LTP280	ltpFR	4	13	0	WASP	1593	n/a	0	1	0.412841796875	0.57763671875	lower	../fonts/amplitud.ttf
2586.744	n/a	WORD	1293372	wordpools/wasnorm_wordpool_less_exclusions.txt	LTP280	ltpFR	4	13	0	REGISTER	1180	n/a	1	1	0.412841796875	0.57763671875	lower	../fonts/amplitud.ttf
2590.926	n/a	WORD	1295463	wordpools/wasnorm_wordpool_less_exclusions.txt	LTP280	ltpFR	4	13	0	PICNIC	1060	n/a	1	1	0.412841796875	0.57763671875	lower	../fonts/amplitud.ttf
2594.876	n/a	WORD	1297438	wordpools/wasnorm_wordpool_less_exclusions.txt	LTP280	ltpFR	4	13	0	SUPERMARKET	1409	n/a	1	1	0.412841796875	0.57763671875	lower	../fonts/amplitud.ttf
2598.74	n/a	WORD	1299370	wordpools/wasnorm_wordpool_less_exclusions.txt	LTP280	ltpFR	4	13	0	SUPPER	1411	n/a	1	1	0.412841796875	0.57763671875	lower	../fonts/amplitud.ttf
2602.788	n/a	WORD	1301394	wordpools/wasnorm_wordpool_less_exclusions.txt	LTP280	ltpFR	4	13	0	BOWL	158	n/a	0	1	0.412841796875	0.57763671875	lower	../fonts/amplitud.ttf
2606.87	n/a	WORD	1303435	wordpools/wasnorm_wordpool_less_exclusions.txt	LTP280	ltpFR	4	13	0	HERB	704	n/a	0	1	0.412841796875	0.57763671875	lower	../fonts/amplitud.ttf
2610.852	n/a	WORD	1305426	wordpools/wasnorm_wordpool_less_exclusions.txt	LTP280	ltpFR	4	13	0	SCENERY	1247	n/a	1	1	0.412841796875	0.57763671875	lower	../fonts/amplitud.ttf
2616.742	n/a	REC_START	1308371	n/a	LTP280	ltpFR	4	13	n/a	n/a	n/a	n/a	n/a	n/a	n/a	n/a	n/a	n/a
2617.078	n/a	REC_WORD	1308539	wordpools/wasnorm_wordpool_less_exclusions.txt	LTP280	ltpFR	4	13	0	HORNET	718	n/a	0	n/a	n/a	n/a	n/a	n/a
2618.028	n/a	REC_WORD	1309014	wordpools/wasnorm_wordpool_less_exclusions.txt	LTP280	ltpFR	4	13	0	WASP	1593	n/a	0	n/a	n/a	n/a	n/a	n/a
2618.978	n/a	REC_WORD	1309489	wordpools/wasnorm_wordpool_less_exclusions.txt	LTP280	ltpFR	4	13	0	WASP	1593	n/a	0	n/a	n/a	n/a	n/a	n/a
2621.324	n/a	REC_WORD	1310662	wordpools/wasnorm_wordpool_less_exclusions.txt	LTP280	ltpFR	4	13	0	BOWL	158	n/a	0	n/a	n/a	n/a	n/a	n/a
2623.302	n/a	REC_WORD	1311651	wordpools/wasnorm_wordpool_less_exclusions.txt	LTP280	ltpFR	4	13	0	SCENERY	1247	n/a	1	n/a	n/a	n/a	n/a	n/a
2715.972	n/a	WORD	1357986	wordpools/wasnorm_wordpool_less_exclusions.txt	LTP280	ltpFR	4	14	1	CREATURE	403	n/a	1	0	0.5869140625	0.422607421875	upper	../fonts/zerothre.ttf
2719.818	n/a	WORD	1359909	wordpools/wasnorm_wordpool_less_exclusions.txt	LTP280	ltpFR	4	14	1	BANKER	84	n/a	1	0	0.5869140625	0.422607421875	upper	../fonts/zerothre.ttf
2723.716	n/a	WORD	1361858	wordpools/wasnorm_wordpool_less_exclusions.txt	LTP280	ltpFR	4	14	1	CONTAINER	366	n/a	0	0	0.5869140625	0.422607421875	upper	../fonts/zerothre.ttf
2727.816	n/a	WORD	1363908	wordpools/wasnorm_wordpool_less_exclusions.txt	LTP280	ltpFR	4	14	1	FOX	598	n/a	1	0	0.5869140625	0.422607421875	upper	../fonts/zerothre.ttf
2731.746	n/a	WORD	1365873	wordpools/wasnorm_wordpool_less_exclusions.txt	LTP280	ltpFR	4	14	1	PIGEON	1065	n/a	1	0	0.5869140625	0.422607421875	upper	../fonts/zerothre.ttf
2735.848	n/a	WORD	1367924	wordpools/wasnorm_wordpool_less_exclusions.txt	LTP280	ltpFR	4	14	1	OLIVE	975	n/a	1	0	0.5869140625	0.422607421875	upper	../fonts/zerothre.ttf
2740.062	n/a	WORD	1370031	wordpools/wasnorm_wordpool_less_exclusions.txt	LTP280	ltpFR	4	14	1	RECEIPT	1173	n/a	0	0	0.5869140625	0.422607421875	upper	../fonts/zerothre.ttf
2743.928	n/a	WORD	1371964	wordpools/wasnorm_wordpool_less_exclusions.txt	LTP280	ltpFR	4	14	1	REPORT	1184	n/a	0	0	0.5869140625	0.422607421875	upper	../fonts/zerothre.ttf
2748.06	n/a	WORD	1374030	wordpools/wasnorm_wordpool_less_exclusions.txt	LTP280	ltpFR	4	14	1	TILE	1468	n/a	0	0	0.5869140625	0.422607421875	upper	../fonts/zerothre.ttf
2752.11	n/a	WORD	1376055	wordpools/wasnorm_wordpool_less_exclusions.txt	LTP280	ltpFR	4	14	1	MUSHROOM	934	n/a	1	0	0.5869140625	0.422607421875	upper	../fonts/zerothre.ttf
2756.29	n/a	WORD	1378145	wordpools/wasnorm_wordpool_less_exclusions.txt	LTP280	ltpFR	4	14	1	WARRIOR	1589	n/a	1	0	0.5869140625	0.422607421875	upper	../fonts/zerothre.ttf
2760.24	n/a	WORD	1380120	wordpools/wasnorm_wordpool_less_exclusions.txt	LTP280	ltpFR	4	14	1	FIST	572	n/a	0	0	0.5869140625	0.422607421875	upper	../fonts/zerothre.ttf
2764.322	n/a	WORD	1382161	wordpools/wasnorm_wordpool_less_exclusions.txt	LTP280	ltpFR	4	14	1	FEATHER	557	n/a	0	0	0.5869140625	0.422607421875	upper	../fonts/zerothre.ttf
2768.188	n/a	WORD	1384094	wordpools/wasnorm_wordpool_less_exclusions.txt	LTP280	ltpFR	4	14	1	BLUEBERRY	140	n/a	1	0	0.5869140625	0.422607421875	upper	../fonts/zerothre.ttf
2772.402	n/a	WORD	1386201	wordpools/wasnorm_wordpool_less_exclusions.txt	LTP280	ltpFR	4	14	1	CAR	241	n/a	0	0	0.5869140625	0.422607421875	upper	../fonts/zerothre.ttf
2776.266	n/a	WORD	1388133	wordpools/wasnorm_wordpool_less_exclusions.txt	LTP280	ltpFR	4	14	1	MECHANIC	884	n/a	1	0	0.5869140625	0.422607421875	upper	../fonts/zerothre.ttf
2782.258	n/a	REC_START	1391129	n/a	LTP280	ltpFR	4	14	n/a	n/a	n/a	n/a	n/a	n/a	n/a	n/a	n/a	n/a
2782.414	n/a	REC_WORD	1391207	wordpools/wasnorm_wordpool_less_exclusions.txt	LTP280	ltpFR	4	14	1	MECHANIC	884	n/a	1	n/a	n/a	n/a	n/a	n/a
2783.336	n/a	REC_WORD	1391668	wordpools/wasnorm_wordpool_less_exclusions.txt	LTP280	ltpFR	4	14	1	CREATURE	403	n/a	1	n/a	n/a	n/a	n/a	n/a
2784.144	n/a	REC_WORD	1392072	wordpools/wasnorm_wordpool_less_exclusions.txt	LTP280	ltpFR	4	14	1	BANKER	84	n/a	1	n/a	n/a	n/a	n/a	n/a
2785.268	n/a	REC_WORD	1392634	wordpools/wasnorm_wordpool_less_exclusions.txt	LTP280	ltpFR	4	14	1	CONTAINER	366	n/a	0	n/a	n/a	n/a	n/a	n/a
2786.732	n/a	REC_WORD	1393366	wordpools/wasnorm_wordpool_less_exclusions.txt	LTP280	ltpFR	4	14	1	FOX	598	n/a	1	n/a	n/a	n/a	n/a	n/a
2789.38	n/a	REC_WORD	1394690	wordpools/wasnorm_wordpool_less_exclusions.txt	LTP280	ltpFR	4	14	1	BLUEBERRY	140	n/a	1	n/a	n/a	n/a	n/a	n/a
2790.308	n/a	REC_WORD	1395154	wordpools/wasnorm_wordpool_less_exclusions.txt	LTP280	ltpFR	4	14	1	MUSHROOM	934	n/a	1	n/a	n/a	n/a	n/a	n/a
2792.004	n/a	REC_WORD	1396002	wordpools/wasnorm_wordpool_less_exclusions.txt	LTP280	ltpFR	4	14	1	OLIVE	975	n/a	1	n/a	n/a	n/a	n/a	n/a
2855.196	n/a	REC_WORD	1427598	wordpools/wasnorm_wordpool_less_exclusions.txt	LTP280	ltpFR	4	14	1	WARRIOR	1589	n/a	1	n/a	n/a	n/a	n/a	n/a
2883.292	n/a	WORD	1441646	wordpools/wasnorm_wordpool_less_exclusions.txt	LTP280	ltpFR	4	15	0	DRIVEWAY	500	n/a	1	1	0.412841796875	0.57763671875	lower	../fonts/amplitud.ttf
2887.158	n/a	WORD	1443579	wordpools/wasnorm_wordpool_less_exclusions.txt	LTP280	ltpFR	4	15	0	CAGE	218	n/a	1	1	0.412841796875	0.57763671875	lower	../fonts/amplitud.ttf
2891.04	n/a	WORD	1445520	wordpools/wasnorm_wordpool_less_exclusions.txt	LTP280	ltpFR	4	15	0	HUT	729	n/a	1	1	0.412841796875	0.57763671875	lower	../fonts/amplitud.ttf
2895.154	n/a	WORD	1447577	wordpools/wasnorm_wordpool_less_exclusions.txt	LTP280	ltpFR	4	15	1	GREASE	660	n/a	0	0	0.5869140625	0.422607421875	upper	../fonts/zerothre.ttf
2899.038	n/a	WORD	1449519	wordpools/wasnorm_wordpool_less_exclusions.txt	LTP280	ltpFR	4	15	1	TENT	1449	n/a	1	0	0.5869140625	0.422607421875	upper	../fonts/zerothre.ttf
2903.002	n/a	WORD	1451501	wordpools/wasnorm_wordpool_less_exclusions.txt	LTP280	ltpFR	4	15	1	STAKE	1368	n/a	0	0	0.5869140625	0.422607421875	upper	../fonts/zerothre.ttf
2906.95	n/a	WORD	1453475	wordpools/wasnorm_wordpool_less_exclusions.txt	LTP280	ltpFR	4	15	1	HOUSE	725	n/a	0	0	0.5869140625	0.422607421875	upper	../fonts/zerothre.ttf
2911.0	n/a	WORD	1455500	wordpools/wasnorm_wordpool_less_exclusions.txt	LTP280	ltpFR	4	15	0	BARK	87	n/a	0	1	0.412841796875	0.57763671875	lower	../fonts/amplitud.ttf
2915.066	n/a	WORD	1457533	wordpools/wasnorm_wordpool_less_exclusions.txt	LTP280	ltpFR	4	15	0	LEOPARD	812	n/a	1	1	0.412841796875	0.57763671875	lower	../fonts/amplitud.ttf
2919.08	n/a	WORD	1459540	wordpools/wasnorm_wordpool_less_exclusions.txt	LTP280	ltpFR	4	15	1	MONKEY	911	n/a	1	0	0.5869140625	0.422607421875	upper	../fonts/zerothre.ttf
2922.996	n/a	WORD	1461498	wordpools/wasnorm_wordpool_less_exclusions.txt	LTP280	ltpFR	4	15	1	CHEDDAR	286	n/a	0	0	0.5869140625	0.422607421875	upper	../fonts/zerothre.ttf
2926.928	n/a	WORD	1463464	wordpools/wasnorm_wordpool_less_exclusions.txt	LTP280	ltpFR	4	15	1	VOLUNTEER	1577	n/a	1	0	0.5869140625	0.422607421875	upper	../fonts/zerothre.ttf
2930.858	n/a	WORD	1465429	wordpools/wasnorm_wordpool_less_exclusions.txt	LTP280	ltpFR	4	15	1	ATTORNEY	58	n/a	1	0	0.5869140625	0.422607421875	upper	../fonts/zerothre.ttf
2934.724	n/a	WORD	1467362	wordpools/wasnorm_wordpool_less_exclusions.txt	LTP280	ltpFR	4	15	0	RATTLE	1170	n/a	0	1	0.412841796875	0.57763671875	lower	../fonts/amplitud.ttf
2938.84	n/a	WORD	1469420	wordpools/wasnorm_wordpool_less_exclusions.txt	LTP280	ltpFR	4	15	0	COBRA	336	n/a	1	1	0.412841796875	0.57763671875	lower	../fonts/amplitud.ttf
2942.822	n/a	WORD	1471411	wordpools/wasnorm_wordpool_less_exclusions.txt	LTP280	ltpFR	4	15	0	SHELL	1281	n/a	0	1	0.412841796875	0.57763671875	lower	../fonts/amplitud.ttf
2948.678	n/a	REC_START	1474339	n/a	LTP280	ltpFR	4	15	n/a	n/a	n/a	n/a	n/a	n/a	n/a	n/a	n/a	n/a
2951.29	n/a	REC_WORD	1475645	wordpools/wasnorm_wordpool_less_exclusions.txt	LTP280	ltpFR	4	15	0	COBRA	336	n/a	1	n/a	n/a	n/a	n/a	n/a
2952.054	n/a	REC_WORD	1476027	wordpools/wasnorm_wordpool_less_exclusions.txt	LTP280	ltpFR	4	15	0	RATTLE	1170	n/a	0	n/a	n/a	n/a	n/a	n/a
2954.382	n/a	REC_WORD	1477191	wordpools/wasnorm_wordpool_less_exclusions.txt	LTP280	ltpFR	4	15	0	FREEWAY	603	n/a	1	n/a	n/a	n/a	n/a	n/a
2955.382	n/a	REC_WORD_VV	1477691	wordpools/wasnorm_wordpool_less_exclusions.txt	LTP280	ltpFR	4	15	n/a	<>	-1	n/a	n/a	n/a	n/a	n/a	n/a	n/a
2956.482	n/a	REC_WORD	1478241	wordpools/wasnorm_wordpool_less_exclusions.txt	LTP280	ltpFR	4	15	n/a	CHEESE	289	n/a	n/a	n/a	n/a	n/a	n/a	n/a
2957.482	n/a	REC_WORD_VV	1478741	wordpools/wasnorm_wordpool_less_exclusions.txt	LTP280	ltpFR	4	15	n/a	<>	-1	n/a	n/a	n/a	n/a	n/a	n/a	n/a
2958.116	n/a	REC_WORD	1479058	wordpools/wasnorm_wordpool_less_exclusions.txt	LTP280	ltpFR	4	15	0	HUT	729	n/a	1	n/a	n/a	n/a	n/a	n/a
2958.656	n/a	REC_WORD	1479328	wordpools/wasnorm_wordpool_less_exclusions.txt	LTP280	ltpFR	4	15	1	STAKE	1368	n/a	0	n/a	n/a	n/a	n/a	n/a
3056.958	n/a	WORD	1528479	wordpools/wasnorm_wordpool_less_exclusions.txt	LTP280	ltpFR	4	16	1	STAPLE	1371	n/a	0	0	0.5869140625	0.422607421875	upper	../fonts/zerothre.ttf
3061.022	n/a	WORD	1530511	wordpools/wasnorm_wordpool_less_exclusions.txt	LTP280	ltpFR	4	16	1	HANGER	687	n/a	0	0	0.5869140625	0.422607421875	upper	../fonts/zerothre.ttf
3064.936	n/a	WORD	1532468	wordpools/wasnorm_wordpool_less_exclusions.txt	LTP280	ltpFR	4	16	0	LIST	830	n/a	0	1	0.412841796875	0.57763671875	lower	../fonts/amplitud.ttf
3068.77	n/a	WORD	1534385	wordpools/wasnorm_wordpool_less_exclusions.txt	LTP280	ltpFR	4	16	0	STEW	1380	n/a	0	1	0.412841796875	0.57763671875	lower	../fonts/amplitud.ttf
3072.752	n/a	WORD	1536376	wordpools/wasnorm_wordpool_less_exclusions.txt	LTP280	ltpFR	4	16	0	BLUEJAY	141	n/a	1	1	0.412841796875	0.57763671875	lower	../fonts/amplitud.ttf
3076.834	n/a	WORD	1538417	wordpools/wasnorm_wordpool_less_exclusions.txt	LTP280	ltpFR	4	16	0	ROBIN	1199	n/a	0	1	0.412841796875	0.57763671875	lower	../fonts/amplitud.ttf
3080.764	n/a	WORD	1540382	wordpools/wasnorm_wordpool_less_exclusions.txt	LTP280	ltpFR	4	16	1	CLAW	319	n/a	0	0	0.5869140625	0.422607421875	upper	../fonts/zerothre.ttf
3084.596	n/a	WORD	1542298	wordpools/wasnorm_wordpool_less_exclusions.txt	LTP280	ltpFR	4	16	1	GLOVE	642	n/a	0	0	0.5869140625	0.422607421875	upper	../fonts/zerothre.ttf
3088.512	n/a	WORD	1544256	wordpools/wasnorm_wordpool_less_exclusions.txt	LTP280	ltpFR	4	16	1	CONSOLE	364	n/a	0	0	0.5869140625	0.422607421875	upper	../fonts/zerothre.ttf
3092.578	n/a	WORD	1546289	wordpools/wasnorm_wordpool_less_exclusions.txt	LTP280	ltpFR	4	16	1	NERVE	944	n/a	1	0	0.5869140625	0.422607421875	upper	../fonts/zerothre.ttf
3096.542	n/a	WORD	1548271	wordpools/wasnorm_wordpool_less_exclusions.txt	LTP280	ltpFR	4	16	1	INVENTOR	743	n/a	0	0	0.5869140625	0.422607421875	upper	../fonts/zerothre.ttf
3100.472	n/a	WORD	1550236	wordpools/wasnorm_wordpool_less_exclusions.txt	LTP280	ltpFR	4	16	1	PHILOSOPHER	1054	n/a	1	0	0.5869140625	0.422607421875	upper	../fonts/zerothre.ttf
3104.456	n/a	WORD	1552228	wordpools/wasnorm_wordpool_less_exclusions.txt	LTP280	ltpFR	4	16	0	POET	1095	n/a	0	1	0.412841796875	0.57763671875	lower	../fonts/amplitud.ttf
3108.404	n/a	WORD	1554202	wordpools/wasnorm_wordpool_less_exclusions.txt	LTP280	ltpFR	4	16	0	SANDWICH	1232	n/a	2	1	0.412841796875	0.57763671875	lower	../fonts/amplitud.ttf
3110.278	n/a	KEY_MSG	1555139	n/a	LTP280	ltpFR	4	16	n/a	n/a	n/a	n/a	n/a	n/a	n/a	n/a	n/a	n/a
3112.738	n/a	WORD	1556369	wordpools/wasnorm_wordpool_less_exclusions.txt	LTP280	ltpFR	4	16	0	DESIGNER	451	n/a	1	1	0.412841796875	0.57763671875	lower	../fonts/amplitud.ttf
3116.87	n/a	WORD	1558435	wordpools/wasnorm_wordpool_less_exclusions.txt	LTP280	ltpFR	4	16	0	TOWEL	1489	n/a	0	1	0.412841796875	0.57763671875	lower	../fonts/amplitud.ttf
3122.776	n/a	REC_START	1561388	n/a	LTP280	ltpFR	4	16	n/a	n/a	n/a	n/a	n/a	n/a	n/a	n/a	n/a	n/a
3123.3	n/a	REC_WORD	1561650	wordpools/wasnorm_wordpool_less_exclusions.txt	LTP280	ltpFR	4	16	0	DESIGNER	451	n/a	1	n/a	n/a	n/a	n/a	n/a
3124.3	n/a	REC_WORD	1562150	wordpools/wasnorm_wordpool_less_exclusions.txt	LTP280	ltpFR	4	16	0	TOWEL	1489	n/a	0	n/a	n/a	n/a	n/a	n/a
3127.204	n/a	REC_WORD	1563602	wordpools/wasnorm_wordpool_less_exclusions.txt	LTP280	ltpFR	4	16	1	STAPLE	1371	n/a	0	n/a	n/a	n/a	n/a	n/a
3129.634	n/a	REC_WORD	1564817	wordpools/wasnorm_wordpool_less_exclusions.txt	LTP280	ltpFR	4	16	0	LIST	830	n/a	0	n/a	n/a	n/a	n/a	n/a
3162.94	n/a	REC_WORD	1581470	wordpools/wasnorm_wordpool_less_exclusions.txt	LTP280	ltpFR	4	16	1	ARTIST	43	n/a	1	n/a	n/a	n/a	n/a	n/a
3166.958	n/a	REC_WORD	1583479	wordpools/wasnorm_wordpool_less_exclusions.txt	LTP280	ltpFR	4	16	0	ROBIN	1199	n/a	0	n/a	n/a	n/a	n/a	n/a
3167.43	n/a	REC_WORD	1583715	wordpools/wasnorm_wordpool_less_exclusions.txt	LTP280	ltpFR	4	16	0	BLUEJAY	141	n/a	1	n/a	n/a	n/a	n/a	n/a
3235.574	n/a	REC_START	1617787	n/a	LTP280	ltpFR	4	n/a	n/a	n/a	n/a	n/a	n/a	n/a	n/a	n/a	n/a	n/a
3236.078	n/a	FFR_REC_WORD	1618039	wordpools/wasnorm_wordpool_less_exclusions.txt	LTP280	ltpFR	4	n/a	0	ROBIN	1199	n/a	0	n/a	n/a	n/a	n/a	n/a
3236.886	n/a	FFR_REC_WORD	1618443	wordpools/wasnorm_wordpool_less_exclusions.txt	LTP280	ltpFR	4	n/a	0	BLUEJAY	141	n/a	1	n/a	n/a	n/a	n/a	n/a
3238.806	n/a	FFR_REC_WORD	1619403	wordpools/wasnorm_wordpool_less_exclusions.txt	LTP280	ltpFR	4	n/a	0	CELERY	266	n/a	0	n/a	n/a	n/a	n/a	n/a
3240.178	n/a	FFR_REC_WORD	1620089	wordpools/wasnorm_wordpool_less_exclusions.txt	LTP280	ltpFR	4	n/a	1	BLUEBERRY	140	n/a	1	n/a	n/a	n/a	n/a	n/a
3240.752	n/a	FFR_REC_WORD	1620376	wordpools/wasnorm_wordpool_less_exclusions.txt	LTP280	ltpFR	4	n/a	-1	BLACKBERRY	132	n/a	-1	n/a	n/a	n/a	n/a	n/a
3244.124	n/a	FFR_REC_WORD	1622062	wordpools/wasnorm_wordpool_less_exclusions.txt	LTP280	ltpFR	4	n/a	0	STEW	1380	n/a	0	n/a	n/a	n/a	n/a	n/a
3247.078	n/a	FFR_REC_WORD	1623539	wordpools/wasnorm_wordpool_less_exclusions.txt	LTP280	ltpFR	4	n/a	1	ARTIST	43	n/a	1	n/a	n/a	n/a	n/a	n/a
3248.942	n/a	FFR_REC_WORD	1624471	wordpools/wasnorm_wordpool_less_exclusions.txt	LTP280	ltpFR	4	n/a	n/a	ELECTRICIAN	521	n/a	n/a	n/a	n/a	n/a	n/a	n/a
3249.942	n/a	FFR_REC_WORD_VV	1624971	wordpools/wasnorm_wordpool_less_exclusions.txt	LTP280	ltpFR	4	n/a	n/a	<>	-1	n/a	n/a	n/a	n/a	n/a	n/a	n/a
3250.55	n/a	FFR_REC_WORD	1625275	wordpools/wasnorm_wordpool_less_exclusions.txt	LTP280	ltpFR	4	n/a	1	MECHANIC	884	n/a	1	n/a	n/a	n/a	n/a	n/a
3254.142	n/a	FFR_REC_WORD	1627071	wordpools/wasnorm_wordpool_less_exclusions.txt	LTP280	ltpFR	4	n/a	0	ENGINE	535	n/a	1	n/a	n/a	n/a	n/a	n/a
3254.892	n/a	FFR_REC_WORD	1627446	wordpools/wasnorm_wordpool_less_exclusions.txt	LTP280	ltpFR	4	n/a	0	MOTOR	922	n/a	1	n/a	n/a	n/a	n/a	n/a
3264.03	n/a	FFR_REC_WORD	1632015	wordpools/wasnorm_wordpool_less_exclusions.txt	LTP280	ltpFR	4	n/a	0	YACHT	1629	n/a	1	n/a	n/a	n/a	n/a	n/a
3265.912	n/a	FFR_REC_WORD	1632956	wordpools/wasnorm_wordpool_less_exclusions.txt	LTP280	ltpFR	4	n/a	0	MANSION	864	n/a	1	n/a	n/a	n/a	n/a	n/a
3268.764	n/a	FFR_REC_WORD	1634382	wordpools/wasnorm_wordpool_less_exclusions.txt	LTP280	ltpFR	4	n/a	0	BAY	102	n/a	1	n/a	n/a	n/a	n/a	n/a
3269.318	n/a	FFR_REC_WORD	1634659	wordpools/wasnorm_wordpool_less_exclusions.txt	LTP280	ltpFR	4	n/a	0	SEA	1259	n/a	1	n/a	n/a	n/a	n/a	n/a
3269.944	n/a	FFR_REC_WORD	1634972	wordpools/wasnorm_wordpool_less_exclusions.txt	LTP280	ltpFR	4	n/a	1	SEAFOOD	1260	n/a	0	n/a	n/a	n/a	n/a	n/a
3271.23	n/a	FFR_REC_WORD	1635615	wordpools/wasnorm_wordpool_less_exclusions.txt	LTP280	ltpFR	4	n/a	1	SALMON	1227	n/a	1	n/a	n/a	n/a	n/a	n/a
3272.636	n/a	FFR_REC_WORD	1636318	wordpools/wasnorm_wordpool_less_exclusions.txt	LTP280	ltpFR	4	n/a	-1	FOUNTAIN	597	n/a	-1	n/a	n/a	n/a	n/a	n/a
3275.328	n/a	FFR_REC_WORD	1637664	wordpools/wasnorm_wordpool_less_exclusions.txt	LTP280	ltpFR	4	n/a	1	SARDINE	1235	n/a	1	n/a	n/a	n/a	n/a	n/a
3281.896	n/a	FFR_REC_WORD	1640948	wordpools/wasnorm_wordpool_less_exclusions.txt	LTP280	ltpFR	4	n/a	-1	GRILL	661	n/a	-1	n/a	n/a	n/a	n/a	n/a
3283.128	n/a	FFR_REC_WORD	1641564	wordpools/wasnorm_wordpool_less_exclusions.txt	LTP280	ltpFR	4	n/a	-1	SAW	1239	n/a	-1	n/a	n/a	n/a	n/a	n/a
3287.264	n/a	FFR_REC_WORD	1643632	wordpools/wasnorm_wordpool_less_exclusions.txt	LTP280	ltpFR	4	n/a	-1	BULB	192	n/a	-1	n/a	n/a	n/a	n/a	n/a
3287.982	n/a	FFR_REC_WORD	1643991	wordpools/wasnorm_wordpool_less_exclusions.txt	LTP280	ltpFR	4	n/a	-1	CHIEF	298	n/a	-1	n/a	n/a	n/a	n/a	n/a
3304.252	n/a	FFR_REC_WORD	1652126	wordpools/wasnorm_wordpool_less_exclusions.txt	LTP280	ltpFR	4	n/a	1	SCARECROW	1245	n/a	0	n/a	n/a	n/a	n/a	n/a
3308.966	n/a	FFR_REC_WORD	1654483	wordpools/wasnorm_wordpool_less_exclusions.txt	LTP280	ltpFR	4	n/a	0	LANDSCAPE	799	n/a	1	n/a	n/a	n/a	n/a	n/a
3310.158	n/a	FFR_REC_WORD	1655079	wordpools/wasnorm_wordpool_less_exclusions.txt	LTP280	ltpFR	4	n/a	0	CONCERT	360	n/a	1	n/a	n/a	n/a	n/a	n/a
3313.58	n/a	FFR_REC_WORD	1656790	wordpools/wasnorm_wordpool_less_exclusions.txt	LTP280	ltpFR	4	n/a	0	FEAST	556	n/a	1	n/a	n/a	n/a	n/a	n/a
3317.008	n/a	FFR_REC_WORD	1658504	wordpools/wasnorm_wordpool_less_exclusions.txt	LTP280	ltpFR	4	n/a	0	COBRA	336	n/a	1	n/a	n/a	n/a	n/a	n/a
3318.714	n/a	FFR_REC_WORD	1659357	wordpools/wasnorm_wordpool_less_exclusions.txt	LTP280	ltpFR	4	n/a	0	SNAKE	1333	n/a	0	n/a	n/a	n/a	n/a	n/a
3322.89	n/a	FFR_REC_WORD	1661445	wordpools/wasnorm_wordpool_less_exclusions.txt	LTP280	ltpFR	4	n/a	0	TICK	1463	n/a	0	n/a	n/a	n/a	n/a	n/a
3324.412	n/a	FFR_REC_WORD	1662206	wordpools/wasnorm_wordpool_less_exclusions.txt	LTP280	ltpFR	4	n/a	-1	TACK	1428	n/a	-1	n/a	n/a	n/a	n/a	n/a
3324.96	n/a	FFR_REC_WORD	1662480	wordpools/wasnorm_wordpool_less_exclusions.txt	LTP280	ltpFR	4	n/a	0	THIMBLE	1458	n/a	0	n/a	n/a	n/a	n/a	n/a
3326.576	n/a	FFR_REC_WORD	1663288	wordpools/wasnorm_wordpool_less_exclusions.txt	LTP280	ltpFR	4	n/a	0	YARN	1631	n/a	0	n/a	n/a	n/a	n/a	n/a
3333.78	n/a	FFR_REC_WORD	1666890	wordpools/wasnorm_wordpool_less_exclusions.txt	LTP280	ltpFR	4	n/a	1	POTATO	1115	n/a	1	n/a	n/a	n/a	n/a	n/a
3337.322	n/a	FFR_REC_WORD	1668661	wordpools/wasnorm_wordpool_less_exclusions.txt	LTP280	ltpFR	4	n/a	-1	SERVANT	1271	n/a	-1	n/a	n/a	n/a	n/a	n/a
3339.154	n/a	FFR_REC_WORD	1669577	wordpools/wasnorm_wordpool_less_exclusions.txt	LTP280	ltpFR	4	n/a	0	LIST	830	n/a	0	n/a	n/a	n/a	n/a	n/a
3339.708	n/a	FFR_REC_WORD	1669854	wordpools/wasnorm_wordpool_less_exclusions.txt	LTP280	ltpFR	4	n/a	1	STAPLE	1371	n/a	0	n/a	n/a	n/a	n/a	n/a
3349.276	n/a	FFR_REC_WORD	1674638	wordpools/wasnorm_wordpool_less_exclusions.txt	LTP280	ltpFR	4	n/a	0	WHEEL	1603	n/a	0	n/a	n/a	n/a	n/a	n/a
3349.856	n/a	FFR_REC_WORD	1674928	wordpools/wasnorm_wordpool_less_exclusions.txt	LTP280	ltpFR	4	n/a	0	WAGON	1578	n/a	1	n/a	n/a	n/a	n/a	n/a
3365.256	n/a	FFR_REC_WORD	1682628	wordpools/wasnorm_wordpool_less_exclusions.txt	LTP280	ltpFR	4	n/a	-1	PORCH	1106	n/a	-1	n/a	n/a	n/a	n/a	n/a
3369.432	n/a	FFR_REC_WORD	1684716	wordpools/wasnorm_wordpool_less_exclusions.txt	LTP280	ltpFR	4	n/a	-1	HERD	705	n/a	-1	n/a	n/a	n/a	n/a	n/a
3376.322	n/a	FFR_REC_WORD	1688161	wordpools/wasnorm_wordpool_less_exclusions.txt	LTP280	ltpFR	4	n/a	1	MONGOOSE	909	n/a	1	n/a	n/a	n/a	n/a	n/a
3378.65	n/a	FFR_REC_WORD	1689325	wordpools/wasnorm_wordpool_less_exclusions.txt	LTP280	ltpFR	4	n/a	n/a	JAGUAR	-1	n/a	n/a	n/a	n/a	n/a	n/a	n/a
3380.058	n/a	FFR_REC_WORD	1690029	wordpools/wasnorm_wordpool_less_exclusions.txt	LTP280	ltpFR	4	n/a	0	LEOPARD	812	n/a	1	n/a	n/a	n/a	n/a	n/a
3398.338	n/a	FFR_REC_WORD	1699169	wordpools/wasnorm_wordpool_less_exclusions.txt	LTP280	ltpFR	4	n/a	n/a	JUPITER	765	n/a	n/a	n/a	n/a	n/a	n/a	n/a
3410.7	n/a	FFR_REC_WORD	1705350	wordpools/wasnorm_wordpool_less_exclusions.txt	LTP280	ltpFR	4	n/a	0	SIBLING	1301	n/a	1	n/a	n/a	n/a	n/a	n/a
3412.94	n/a	FFR_REC_WORD	1706470	wordpools/wasnorm_wordpool_less_exclusions.txt	LTP280	ltpFR	4	n/a	1	BOYFRIEND	162	n/a	1	n/a	n/a	n/a	n/a	n/a
3428.796	n/a	FFR_REC_WORD	1714398	wordpools/wasnorm_wordpool_less_exclusions.txt	LTP280	ltpFR	4	n/a	1	ZOO	1637	n/a	0	n/a	n/a	n/a	n/a	n/a
3444.4	n/a	FFR_REC_WORD	1722200	wordpools/wasnorm_wordpool_less_exclusions.txt	LTP280	ltpFR	4	n/a	1	ASSISTANT	48	n/a	1	n/a	n/a	n/a	n/a	n/a
3467.104	n/a	FFR_REC_WORD	1733552	wordpools/wasnorm_wordpool_less_exclusions.txt	LTP280	ltpFR	4	n/a	-1	WINDSHIELD	1612	n/a	-1	n/a	n/a	n/a	n/a	n/a
3467.724	n/a	FFR_REC_WORD	1733862	wordpools/wasnorm_wordpool_less_exclusions.txt	LTP280	ltpFR	4	n/a	-1	SCREW	1254	n/a	-1	n/a	n/a	n/a	n/a	n/a
3499.278	n/a	FFR_REC_WORD_VV	1749639	wordpools/wasnorm_wordpool_less_exclusions.txt	LTP280	ltpFR	4	n/a	n/a	<>	-1	n/a	n/a	n/a	n/a	n/a	n/a	n/a
3528.794	n/a	FFR_REC_WORD	1764397	wordpools/wasnorm_wordpool_less_exclusions.txt	LTP280	ltpFR	4	n/a	n/a	HOME	712	n/a	n/a	n/a	n/a	n/a	n/a	n/a
4080.034	n/a	REC_START	2040017	n/a	LTP280	ltpFR	4	1	n/a	n/a	n/a	n/a	n/a	n/a	n/a	n/a	n/a	n/a
4080.084	n/a	RECOG_TARGET	2040042	n/a	LTP280	ltpFR	4	1	-1	TRIGGER	1507	5	-1	n/a	n/a	n/a	n/a	n/a
4081.874	n/a	RECOG_RESP	2040937	n/a	LTP280	ltpFR	4	1	-1	TRIGGER	1507	n/a	-1	n/a	n/a	n/a	n/a	n/a
4083.454	n/a	RECOG_CONF	2041727	n/a	LTP280	ltpFR	4	1	-1	TRIGGER	1507	5	-1	n/a	n/a	n/a	n/a	n/a
4085.354	n/a	RECOG_LURE	2042677	n/a	LTP280	ltpFR	4	1	n/a	BUN	197	2	n/a	n/a	n/a	n/a	n/a	n/a
4086.32	n/a	RECOG_RESP	2043160	n/a	LTP280	ltpFR	4	1	n/a	BUN	197	n/a	n/a	n/a	n/a	n/a	n/a	n/a
4087.166	n/a	RECOG_CONF	2043583	n/a	LTP280	ltpFR	4	1	n/a	BUN	197	2	n/a	n/a	n/a	n/a	n/a	n/a
4088.75	n/a	RECOG_TARGET	2044375	n/a	LTP280	ltpFR	4	1	0	FIREMAN	569	3	1	n/a	n/a	n/a	n/a	n/a
4090.02	n/a	RECOG_RESP	2045010	n/a	LTP280	ltpFR	4	1	0	FIREMAN	569	n/a	1	n/a	n/a	n/a	n/a	n/a
4090.896	n/a	RECOG_CONF	2045448	n/a	LTP280	ltpFR	4	1	0	FIREMAN	569	3	1	n/a	n/a	n/a	n/a	n/a
4092.716	n/a	RECOG_TARGET	2046358	n/a	LTP280	ltpFR	4	1	0	SHOP	1290	1	1	n/a	n/a	n/a	n/a	n/a
4094.556	n/a	RECOG_RESP	2047278	n/a	LTP280	ltpFR	4	1	0	SHOP	1290	n/a	1	n/a	n/a	n/a	n/a	n/a
4095.556	n/a	RECOG_CONF	2047778	n/a	LTP280	ltpFR	4	1	0	SHOP	1290	1	1	n/a	n/a	n/a	n/a	n/a
4097.232	n/a	RECOG_TARGET	2048616	n/a	LTP280	ltpFR	4	1	1	COLOGNE	347	5	0	n/a	n/a	n/a	n/a	n/a
4097.976	n/a	RECOG_RESP	2048988	n/a	LTP280	ltpFR	4	1	1	COLOGNE	347	n/a	0	n/a	n/a	n/a	n/a	n/a
4098.446	n/a	RECOG_CONF	2049223	n/a	LTP280	ltpFR	4	1	1	COLOGNE	347	5	0	n/a	n/a	n/a	n/a	n/a
4100.312	n/a	RECOG_TARGET	2050156	n/a	LTP280	ltpFR	4	1	1	TROMBONE	1508	5	0	n/a	n/a	n/a	n/a	n/a
4100.96	n/a	RECOG_RESP	2050480	n/a	LTP280	ltpFR	4	1	1	TROMBONE	1508	n/a	0	n/a	n/a	n/a	n/a	n/a
4101.396	n/a	RECOG_CONF	2050698	n/a	LTP280	ltpFR	4	1	1	TROMBONE	1508	5	0	n/a	n/a	n/a	n/a	n/a
4103.39	n/a	RECOG_LURE	2051695	n/a	LTP280	ltpFR	4	1	n/a	SIGNATURE	1306	3	n/a	n/a	n/a	n/a	n/a	n/a
4104.492	n/a	RECOG_RESP	2052246	n/a	LTP280	ltpFR	4	1	n/a	SIGNATURE	1306	n/a	n/a	n/a	n/a	n/a	n/a	n/a
4105.076	n/a	RECOG_CONF	2052538	n/a	LTP280	ltpFR	4	1	n/a	SIGNATURE	1306	3	n/a	n/a	n/a	n/a	n/a	n/a
4106.702	n/a	RECOG_TARGET	2053351	n/a	LTP280	ltpFR	4	1	0	LIZARD	834	5	0	n/a	n/a	n/a	n/a	n/a
4107.482	n/a	RECOG_RESP	2053741	n/a	LTP280	ltpFR	4	1	0	LIZARD	834	n/a	0	n/a	n/a	n/a	n/a	n/a
4108.006	n/a	RECOG_CONF	2054003	n/a	LTP280	ltpFR	4	1	0	LIZARD	834	5	0	n/a	n/a	n/a	n/a	n/a
4109.664	n/a	RECOG_TARGET	2054832	n/a	LTP280	ltpFR	4	1	-1	PLANET	1082	2	-1	n/a	n/a	n/a	n/a	n/a
4111.552	n/a	RECOG_RESP	2055776	n/a	LTP280	ltpFR	4	1	-1	PLANET	1082	n/a	-1	n/a	n/a	n/a	n/a	n/a
4112.116	n/a	RECOG_CONF	2056058	n/a	LTP280	ltpFR	4	1	-1	PLANET	1082	2	-1	n/a	n/a	n/a	n/a	n/a
4113.864	n/a	RECOG_TARGET	2056932	n/a	LTP280	ltpFR	4	1	-1	RELISH	1183	2	-1	n/a	n/a	n/a	n/a	n/a
4115.432	n/a	RECOG_RESP	2057716	n/a	LTP280	ltpFR	4	1	-1	RELISH	1183	n/a	-1	n/a	n/a	n/a	n/a	n/a
4115.996	n/a	RECOG_CONF	2057998	n/a	LTP280	ltpFR	4	1	-1	RELISH	1183	2	-1	n/a	n/a	n/a	n/a	n/a
4117.812	n/a	RECOG_LURE	2058906	n/a	LTP280	ltpFR	4	1	n/a	KING	777	3	n/a	n/a	n/a	n/a	n/a	n/a
4119.116	n/a	RECOG_RESP	2059558	n/a	LTP280	ltpFR	4	1	n/a	KING	777	n/a	n/a	n/a	n/a	n/a	n/a	n/a
4119.946	n/a	RECOG_CONF	2059973	n/a	LTP280	ltpFR	4	1	n/a	KING	777	3	n/a	n/a	n/a	n/a	n/a	n/a
4121.694	n/a	RECOG_LURE	2060847	n/a	LTP280	ltpFR	4	1	n/a	NIECE	952	4	n/a	n/a	n/a	n/a	n/a	n/a
4123.242	n/a	RECOG_RESP	2061621	n/a	LTP280	ltpFR	4	1	n/a	NIECE	952	n/a	n/a	n/a	n/a	n/a	n/a	n/a
4123.818	n/a	RECOG_CONF	2061909	n/a	LTP280	ltpFR	4	1	n/a	NIECE	952	4	n/a	n/a	n/a	n/a	n/a	n/a
4125.474	n/a	RECOG_TARGET	2062737	n/a	LTP280	ltpFR	4	1	0	PARCEL	1012	5	0	n/a	n/a	n/a	n/a	n/a
4126.242	n/a	RECOG_RESP	2063121	n/a	LTP280	ltpFR	4	1	0	PARCEL	1012	n/a	0	n/a	n/a	n/a	n/a	n/a
4126.698	n/a	RECOG_CONF	2063349	n/a	LTP280	ltpFR	4	1	0	PARCEL	1012	5	0	n/a	n/a	n/a	n/a	n/a
4128.518	n/a	RECOG_TARGET	2064259	n/a	LTP280	ltpFR	4	1	0	CUCUMBER	421	5	0	n/a	n/a	n/a	n/a	n/a
4129.532	n/a	RECOG_RESP	2064766	n/a	LTP280	ltpFR	4	1	0	CUCUMBER	421	n/a	0	n/a	n/a	n/a	n/a	n/a
4130.168	n/a	RECOG_CONF	2065084	n/a	LTP280	ltpFR	4	1	0	CUCUMBER	421	5	0	n/a	n/a	n/a	n/a	n/a
4131.932	n/a	RECOG_TARGET	2065966	n/a	LTP280	ltpFR	4	1	0	CLASS	318	3	1	n/a	n/a	n/a	n/a	n/a
4133.602	n/a	RECOG_RESP	2066801	n/a	LTP280	ltpFR	4	1	0	CLASS	318	n/a	1	n/a	n/a	n/a	n/a	n/a
4134.408	n/a	RECOG_CONF	2067204	n/a	LTP280	ltpFR	4	1	0	CLASS	318	3	1	n/a	n/a	n/a	n/a	n/a
4136.098	n/a	RECOG_TARGET	2068049	n/a	LTP280	ltpFR	4	1	0	SKIN	1318	5	1	n/a	n/a	n/a	n/a	n/a
4136.842	n/a	RECOG_RESP	2068421	n/a	LTP280	ltpFR	4	1	0	SKIN	1318	n/a	1	n/a	n/a	n/a	n/a	n/a
4137.268	n/a	RECOG_CONF	2068634	n/a	LTP280	ltpFR	4	1	0	SKIN	1318	5	1	n/a	n/a	n/a	n/a	n/a
4139.06	n/a	RECOG_TARGET	2069530	n/a	LTP280	ltpFR	4	1	1	STOVE	1388	5	0	n/a	n/a	n/a	n/a	n/a
4139.762	n/a	RECOG_RESP	2069881	n/a	LTP280	ltpFR	4	1	1	STOVE	1388	n/a	0	n/a	n/a	n/a	n/a	n/a
4140.368	n/a	RECOG_CONF	2070184	n/a	LTP280	ltpFR	4	1	1	STOVE	1388	5	0	n/a	n/a	n/a	n/a	n/a
4142.072	n/a	RECOG_TARGET	2071036	n/a	LTP280	ltpFR	4	1	1	MONGOOSE	909	5	1	n/a	n/a	n/a	n/a	n/a
4142.924	n/a	RECOG_RESP	2071462	n/a	LTP280	ltpFR	4	1	1	MONGOOSE	909	n/a	1	n/a	n/a	n/a	n/a	n/a
4143.548	n/a	RECOG_CONF	2071774	n/a	LTP280	ltpFR	4	1	1	MONGOOSE	909	5	1	n/a	n/a	n/a	n/a	n/a
4145.15	n/a	RECOG_LURE	2072575	n/a	LTP280	ltpFR	4	1	n/a	MONASTERY	907	4	n/a	n/a	n/a	n/a	n/a	n/a
4146.278	n/a	RECOG_RESP	2073139	n/a	LTP280	ltpFR	4	1	n/a	MONASTERY	907	n/a	n/a	n/a	n/a	n/a	n/a	n/a
4146.798	n/a	RECOG_CONF	2073399	n/a	LTP280	ltpFR	4	1	n/a	MONASTERY	907	4	n/a	n/a	n/a	n/a	n/a	n/a
4148.494	n/a	RECOG_TARGET	2074247	n/a	LTP280	ltpFR	4	1	1	CLAW	319	2	0	n/a	n/a	n/a	n/a	n/a
4149.714	n/a	RECOG_RESP	2074857	n/a	LTP280	ltpFR	4	1	1	CLAW	319	n/a	0	n/a	n/a	n/a	n/a	n/a
4150.988	n/a	RECOG_CONF	2075494	n/a	LTP280	ltpFR	4	1	1	CLAW	319	2	0	n/a	n/a	n/a	n/a	n/a
4155.84	n/a	REC_START	2077920	n/a	LTP280	ltpFR	4	2	n/a	n/a	n/a	n/a	n/a	n/a	n/a	n/a	n/a	n/a
4155.89	n/a	RECOG_TARGET	2077945	n/a	LTP280	ltpFR	4	2	1	ALBUM	14	4	0	n/a	n/a	n/a	n/a	n/a
4157.19	n/a	RECOG_RESP	2078595	n/a	LTP280	ltpFR	4	2	1	ALBUM	14	n/a	0	n/a	n/a	n/a	n/a	n/a
4157.79	n/a	RECOG_CONF	2078895	n/a	LTP280	ltpFR	4	2	1	ALBUM	14	4	0	n/a	n/a	n/a	n/a	n/a
4159.32	n/a	RECOG_TARGET	2079660	n/a	LTP280	ltpFR	4	2	1	COWBOY	395	2	1	n/a	n/a	n/a	n/a	n/a
4160.706	n/a	RECOG_RESP	2080353	n/a	LTP280	ltpFR	4	2	1	COWBOY	395	n/a	1	n/a	n/a	n/a	n/a	n/a
4161.372	n/a	RECOG_CONF	2080686	n/a	LTP280	ltpFR	4	2	1	COWBOY	395	2	1	n/a	n/a	n/a	n/a	n/a
4163.068	n/a	RECOG_LURE	2081534	n/a	LTP280	ltpFR	4	2	n/a	TOTE	1487	4	n/a	n/a	n/a	n/a	n/a	n/a
4164.272	n/a	RECOG_RESP	2082136	n/a	LTP280	ltpFR	4	2	n/a	TOTE	1487	n/a	n/a	n/a	n/a	n/a	n/a	n/a
4164.822	n/a	RECOG_CONF	2082411	n/a	LTP280	ltpFR	4	2	n/a	TOTE	1487	4	n/a	n/a	n/a	n/a	n/a	n/a
4166.532	n/a	RECOG_TARGET	2083266	n/a	LTP280	ltpFR	4	2	1	ATTORNEY	58	3	1	n/a	n/a	n/a	n/a	n/a
4168.742	n/a	RECOG_RESP	2084371	n/a	LTP280	ltpFR	4	2	1	ATTORNEY	58	n/a	1	n/a	n/a	n/a	n/a	n/a
4169.472	n/a	RECOG_CONF	2084736	n/a	LTP280	ltpFR	4	2	1	ATTORNEY	58	3	1	n/a	n/a	n/a	n/a	n/a
4171.266	n/a	RECOG_TARGET	2085633	n/a	LTP280	ltpFR	4	2	1	NOTE	958	4	0	n/a	n/a	n/a	n/a	n/a
4172.162	n/a	RECOG_RESP	2086081	n/a	LTP280	ltpFR	4	2	1	NOTE	958	n/a	0	n/a	n/a	n/a	n/a	n/a
4172.642	n/a	RECOG_CONF	2086321	n/a	LTP280	ltpFR	4	2	1	NOTE	958	4	0	n/a	n/a	n/a	n/a	n/a
4174.26	n/a	RECOG_TARGET	2087130	n/a	LTP280	ltpFR	4	2	1	SUSPECT	1415	4	1	n/a	n/a	n/a	n/a	n/a
4175.222	n/a	RECOG_RESP	2087611	n/a	LTP280	ltpFR	4	2	1	SUSPECT	1415	n/a	1	n/a	n/a	n/a	n/a	n/a
4175.872	n/a	RECOG_CONF	2087936	n/a	LTP280	ltpFR	4	2	1	SUSPECT	1415	4	1	n/a	n/a	n/a	n/a	n/a
4177.522	n/a	RECOG_TARGET	2088761	n/a	LTP280	ltpFR	4	2	1	PHILOSOPHER	1054	4	1	n/a	n/a	n/a	n/a	n/a
4179.088	n/a	RECOG_RESP	2089544	n/a	LTP280	ltpFR	4	2	1	PHILOSOPHER	1054	n/a	1	n/a	n/a	n/a	n/a	n/a
4179.652	n/a	RECOG_CONF	2089826	n/a	LTP280	ltpFR	4	2	1	PHILOSOPHER	1054	4	1	n/a	n/a	n/a	n/a	n/a
4181.322	n/a	RECOG_TARGET	2090661	n/a	LTP280	ltpFR	4	2	0	TIMBER	1469	5	1	n/a	n/a	n/a	n/a	n/a
4183.078	n/a	RECOG_RESP	2091539	n/a	LTP280	ltpFR	4	2	0	TIMBER	1469	n/a	1	n/a	n/a	n/a	n/a	n/a
4183.612	n/a	RECOG_CONF	2091806	n/a	LTP280	ltpFR	4	2	0	TIMBER	1469	5	1	n/a	n/a	n/a	n/a	n/a
4185.32	n/a	RECOG_TARGET	2092660	n/a	LTP280	ltpFR	4	2	-1	LIVER	833	4	-1	n/a	n/a	n/a	n/a	n/a
4186.412	n/a	RECOG_RESP	2093206	n/a	LTP280	ltpFR	4	2	-1	LIVER	833	n/a	-1	n/a	n/a	n/a	n/a	n/a
4186.862	n/a	RECOG_CONF	2093431	n/a	LTP280	ltpFR	4	2	-1	LIVER	833	4	-1	n/a	n/a	n/a	n/a	n/a
4188.448	n/a	RECOG_TARGET	2094224	n/a	LTP280	ltpFR	4	2	0	PASTRY	1022	5	0	n/a	n/a	n/a	n/a	n/a
4189.168	n/a	RECOG_RESP	2094584	n/a	LTP280	ltpFR	4	2	0	PASTRY	1022	n/a	0	n/a	n/a	n/a	n/a	n/a
4189.732	n/a	RECOG_CONF	2094866	n/a	LTP280	ltpFR	4	2	0	PASTRY	1022	5	0	n/a	n/a	n/a	n/a	n/a
4191.626	n/a	RECOG_TARGET	2095813	n/a	LTP280	ltpFR	4	2	0	EAGLE	512	2	1	n/a	n/a	n/a	n/a	n/a
4192.778	n/a	RECOG_RESP	2096389	n/a	LTP280	ltpFR	4	2	0	EAGLE	512	n/a	1	n/a	n/a	n/a	n/a	n/a
4193.522	n/a	RECOG_CONF	2096761	n/a	LTP280	ltpFR	4	2	0	EAGLE	512	2	1	n/a	n/a	n/a	n/a	n/a
4195.24	n/a	RECOG_TARGET	2097620	n/a	LTP280	ltpFR	4	2	0	AFRICA	9	4	1	n/a	n/a	n/a	n/a	n/a
4196.378	n/a	RECOG_RESP	2098189	n/a	LTP280	ltpFR	4	2	0	AFRICA	9	n/a	1	n/a	n/a	n/a	n/a	n/a
4196.914	n/a	RECOG_CONF	2098457	n/a	LTP280	ltpFR	4	2	0	AFRICA	9	4	1	n/a	n/a	n/a	n/a	n/a
4198.638	n/a	RECOG_TARGET	2099319	n/a	LTP280	ltpFR	4	2	0	PLASTER	1085	5	0	n/a	n/a	n/a	n/a	n/a
4199.588	n/a	RECOG_RESP	2099794	n/a	LTP280	ltpFR	4	2	0	PLASTER	1085	n/a	0	n/a	n/a	n/a	n/a	n/a
4200.154	n/a	RECOG_CONF	2100077	n/a	LTP280	ltpFR	4	2	0	PLASTER	1085	5	0	n/a	n/a	n/a	n/a	n/a
4201.966	n/a	RECOG_TARGET	2100983	n/a	LTP280	ltpFR	4	2	1	RAM	1165	5	1	n/a	n/a	n/a	n/a	n/a
4202.674	n/a	RECOG_RESP	2101337	n/a	LTP280	ltpFR	4	2	1	RAM	1165	n/a	1	n/a	n/a	n/a	n/a	n/a
4203.404	n/a	RECOG_CONF	2101702	n/a	LTP280	ltpFR	4	2	1	RAM	1165	5	1	n/a	n/a	n/a	n/a	n/a
4204.996	n/a	RECOG_TARGET	2102498	n/a	LTP280	ltpFR	4	2	0	CHICKEN	297	5	1	n/a	n/a	n/a	n/a	n/a
4206.034	n/a	RECOG_RESP	2103017	n/a	LTP280	ltpFR	4	2	0	CHICKEN	297	n/a	1	n/a	n/a	n/a	n/a	n/a
4206.714	n/a	RECOG_CONF	2103357	n/a	LTP280	ltpFR	4	2	0	CHICKEN	297	5	1	n/a	n/a	n/a	n/a	n/a
4208.258	n/a	RECOG_TARGET	2104129	n/a	LTP280	ltpFR	4	2	1	SCARECROW	1245	5	0	n/a	n/a	n/a	n/a	n/a
4208.874	n/a	RECOG_RESP	2104437	n/a	LTP280	ltpFR	4	2	1	SCARECROW	1245	n/a	0	n/a	n/a	n/a	n/a	n/a
4209.574	n/a	RECOG_CONF	2104787	n/a	LTP280	ltpFR	4	2	1	SCARECROW	1245	5	0	n/a	n/a	n/a	n/a	n/a
4211.286	n/a	RECOG_TARGET	2105643	n/a	LTP280	ltpFR	4	2	0	BARK	87	5	0	n/a	n/a	n/a	n/a	n/a
4212.054	n/a	RECOG_RESP	2106027	n/a	LTP280	ltpFR	4	2	0	BARK	87	n/a	0	n/a	n/a	n/a	n/a	n/a
4212.814	n/a	RECOG_CONF	2106407	n/a	LTP280	ltpFR	4	2	0	BARK	87	5	0	n/a	n/a	n/a	n/a	n/a
4214.346	n/a	RECOG_TARGET	2107173	n/a	LTP280	ltpFR	4	2	1	GOO	648	5	0	n/a	n/a	n/a	n/a	n/a
4215.424	n/a	RECOG_RESP	2107712	n/a	LTP280	ltpFR	4	2	1	GOO	648	n/a	0	n/a	n/a	n/a	n/a	n/a
4216.074	n/a	RECOG_CONF	2108037	n/a	LTP280	ltpFR	4	2	1	GOO	648	5	0	n/a	n/a	n/a	n/a	n/a
4217.894	n/a	RECOG_TARGET	2108947	n/a	LTP280	ltpFR	4	2	-1	CHISEL	305	5	-1	n/a	n/a	n/a	n/a	n/a
4218.644	n/a	RECOG_RESP	2109322	n/a	LTP280	ltpFR	4	2	-1	CHISEL	305	n/a	-1	n/a	n/a	n/a	n/a	n/a
4219.364	n/a	RECOG_CONF	2109682	n/a	LTP280	ltpFR	4	2	-1	CHISEL	305	5	-1	n/a	n/a	n/a	n/a	n/a
4221.024	n/a	RECOG_TARGET	2110512	n/a	LTP280	ltpFR	4	2	1	SIGN	1305	3	0	n/a	n/a	n/a	n/a	n/a
4222.534	n/a	RECOG_RESP	2111267	n/a	LTP280	ltpFR	4	2	1	SIGN	1305	n/a	0	n/a	n/a	n/a	n/a	n/a
4223.204	n/a	RECOG_CONF	2111602	n/a	LTP280	ltpFR	4	2	1	SIGN	1305	3	0	n/a	n/a	n/a	n/a	n/a
4227.354	n/a	REC_START	2113677	n/a	LTP280	ltpFR	4	3	n/a	n/a	n/a	n/a	n/a	n/a	n/a	n/a	n/a	n/a
4227.396	n/a	RECOG_TARGET	2113698	n/a	LTP280	ltpFR	4	3	-1	SIREN	1310	5	-1	n/a	n/a	n/a	n/a	n/a
4228.12	n/a	RECOG_RESP	2114060	n/a	LTP280	ltpFR	4	3	-1	SIREN	1310	n/a	-1	n/a	n/a	n/a	n/a	n/a
4228.654	n/a	RECOG_CONF	2114327	n/a	LTP280	ltpFR	4	3	-1	SIREN	1310	5	-1	n/a	n/a	n/a	n/a	n/a
4230.424	n/a	RECOG_TARGET	2115212	n/a	LTP280	ltpFR	4	3	1	STAKE	1368	5	0	n/a	n/a	n/a	n/a	n/a
4231.244	n/a	RECOG_RESP	2115622	n/a	LTP280	ltpFR	4	3	1	STAKE	1368	n/a	0	n/a	n/a	n/a	n/a	n/a
4231.704	n/a	RECOG_CONF	2115852	n/a	LTP280	ltpFR	4	3	1	STAKE	1368	5	0	n/a	n/a	n/a	n/a	n/a
4233.486	n/a	RECOG_TARGET	2116743	n/a	LTP280	ltpFR	4	3	1	INVENTOR	743	5	0	n/a	n/a	n/a	n/a	n/a
4234.164	n/a	RECOG_RESP	2117082	n/a	LTP280	ltpFR	4	3	1	INVENTOR	743	n/a	0	n/a	n/a	n/a	n/a	n/a
4234.696	n/a	RECOG_CONF	2117348	n/a	LTP280	ltpFR	4	3	1	INVENTOR	743	5	0	n/a	n/a	n/a	n/a	n/a
4236.398	n/a	RECOG_TARGET	2118199	n/a	LTP280	ltpFR	4	3	0	THIMBLE	1458	5	0	n/a	n/a	n/a	n/a	n/a
4236.976	n/a	RECOG_RESP	2118488	n/a	LTP280	ltpFR	4	3	0	THIMBLE	1458	n/a	0	n/a	n/a	n/a	n/a	n/a
4237.566	n/a	RECOG_CONF	2118783	n/a	LTP280	ltpFR	4	3	0	THIMBLE	1458	5	0	n/a	n/a	n/a	n/a	n/a
4239.21	n/a	RECOG_TARGET	2119605	n/a	LTP280	ltpFR	4	3	1	GLOVE	642	2	0	n/a	n/a	n/a	n/a	n/a
4240.736	n/a	RECOG_RESP	2120368	n/a	LTP280	ltpFR	4	3	1	GLOVE	642	n/a	0	n/a	n/a	n/a	n/a	n/a
4241.536	n/a	RECOG_CONF	2120768	n/a	LTP280	ltpFR	4	3	1	GLOVE	642	2	0	n/a	n/a	n/a	n/a	n/a
4243.224	n/a	RECOG_TARGET	2121612	n/a	LTP280	ltpFR	4	3	0	HUT	729	5	1	n/a	n/a	n/a	n/a	n/a
4243.836	n/a	RECOG_RESP	2121918	n/a	LTP280	ltpFR	4	3	0	HUT	729	n/a	1	n/a	n/a	n/a	n/a	n/a
4244.496	n/a	RECOG_CONF	2122248	n/a	LTP280	ltpFR	4	3	0	HUT	729	5	1	n/a	n/a	n/a	n/a	n/a
4246.236	n/a	RECOG_TARGET	2123118	n/a	LTP280	ltpFR	4	3	-1	BULL	193	3	-1	n/a	n/a	n/a	n/a	n/a
4247.866	n/a	RECOG_RESP	2123933	n/a	LTP280	ltpFR	4	3	-1	BULL	193	n/a	-1	n/a	n/a	n/a	n/a	n/a
4248.446	n/a	RECOG_CONF	2124223	n/a	LTP280	ltpFR	4	3	-1	BULL	193	3	-1	n/a	n/a	n/a	n/a	n/a
4250.034	n/a	RECOG_LURE	2125017	n/a	LTP280	ltpFR	4	3	n/a	DIRECTOR	471	1	n/a	n/a	n/a	n/a	n/a	n/a
4251.676	n/a	RECOG_RESP	2125838	n/a	LTP280	ltpFR	4	3	n/a	DIRECTOR	471	n/a	n/a	n/a	n/a	n/a	n/a	n/a
4252.306	n/a	RECOG_CONF	2126153	n/a	LTP280	ltpFR	4	3	n/a	DIRECTOR	471	1	n/a	n/a	n/a	n/a	n/a	n/a
4253.966	n/a	RECOG_TARGET	2126983	n/a	LTP280	ltpFR	4	3	1	ASH	44	5	0	n/a	n/a	n/a	n/a	n/a
4254.846	n/a	RECOG_RESP	2127423	n/a	LTP280	ltpFR	4	3	1	ASH	44	n/a	0	n/a	n/a	n/a	n/a	n/a
4255.276	n/a	RECOG_CONF	2127638	n/a	LTP280	ltpFR	4	3	1	ASH	44	5	0	n/a	n/a	n/a	n/a	n/a
4257.06	n/a	RECOG_TARGET	2128530	n/a	LTP280	ltpFR	4	3	1	BISCUIT	130	3	2	n/a	n/a	n/a	n/a	n/a
4257.756	n/a	RECOG_RESP	2128878	n/a	LTP280	ltpFR	4	3	1	BISCUIT	130	n/a	2	n/a	n/a	n/a	n/a	n/a
4258.426	n/a	RECOG_CONF	2129213	n/a	LTP280	ltpFR	4	3	1	BISCUIT	130	3	2	n/a	n/a	n/a	n/a	n/a
4259.92	n/a	RECOG_TARGET	2129960	n/a	LTP280	ltpFR	4	3	-1	BOY	161	2	-1	n/a	n/a	n/a	n/a	n/a
4260.696	n/a	RECOG_RESP	2130348	n/a	LTP280	ltpFR	4	3	-1	BOY	161	n/a	-1	n/a	n/a	n/a	n/a	n/a
4261.446	n/a	RECOG_CONF	2130723	n/a	LTP280	ltpFR	4	3	-1	BOY	161	2	-1	n/a	n/a	n/a	n/a	n/a
4263.15	n/a	RECOG_TARGET	2131575	n/a	LTP280	ltpFR	4	3	0	BAY	102	5	1	n/a	n/a	n/a	n/a	n/a
4263.842	n/a	RECOG_RESP	2131921	n/a	LTP280	ltpFR	4	3	0	BAY	102	n/a	1	n/a	n/a	n/a	n/a	n/a
4264.516	n/a	RECOG_CONF	2132258	n/a	LTP280	ltpFR	4	3	0	BAY	102	5	1	n/a	n/a	n/a	n/a	n/a
4266.196	n/a	RECOG_TARGET	2133098	n/a	LTP280	ltpFR	4	3	1	TILE	1468	2	0	n/a	n/a	n/a	n/a	n/a
4268.136	n/a	RECOG_RESP	2134068	n/a	LTP280	ltpFR	4	3	1	TILE	1468	n/a	0	n/a	n/a	n/a	n/a	n/a
4268.796	n/a	RECOG_CONF	2134398	n/a	LTP280	ltpFR	4	3	1	TILE	1468	2	0	n/a	n/a	n/a	n/a	n/a
4270.46	n/a	RECOG_LURE	2135230	n/a	LTP280	ltpFR	4	3	n/a	BLUEPRINT	142	3	n/a	n/a	n/a	n/a	n/a	n/a
4271.636	n/a	RECOG_RESP	2135818	n/a	LTP280	ltpFR	4	3	n/a	BLUEPRINT	142	n/a	n/a	n/a	n/a	n/a	n/a	n/a
4272.226	n/a	RECOG_CONF	2136113	n/a	LTP280	ltpFR	4	3	n/a	BLUEPRINT	142	3	n/a	n/a	n/a	n/a	n/a	n/a
4273.958	n/a	RECOG_TARGET	2136979	n/a	LTP280	ltpFR	4	3	0	BUILDING	191	5	1	n/a	n/a	n/a	n/a	n/a
4274.638	n/a	RECOG_RESP	2137319	n/a	LTP280	ltpFR	4	3	0	BUILDING	191	n/a	1	n/a	n/a	n/a	n/a	n/a
4275.228	n/a	RECOG_CONF	2137614	n/a	LTP280	ltpFR	4	3	0	BUILDING	191	5	1	n/a	n/a	n/a	n/a	n/a
4276.936	n/a	RECOG_TARGET	2138468	n/a	LTP280	ltpFR	4	3	1	CHEDDAR	286	5	0	n/a	n/a	n/a	n/a	n/a
4277.578	n/a	RECOG_RESP	2138789	n/a	LTP280	ltpFR	4	3	1	CHEDDAR	286	n/a	0	n/a	n/a	n/a	n/a	n/a
4278.198	n/a	RECOG_CONF	2139099	n/a	LTP280	ltpFR	4	3	1	CHEDDAR	286	5	0	n/a	n/a	n/a	n/a	n/a
4279.832	n/a	RECOG_LURE	2139916	n/a	LTP280	ltpFR	4	3	n/a	FINGER	567	2	n/a	n/a	n/a	n/a	n/a	n/a
4281.428	n/a	RECOG_RESP	2140714	n/a	LTP280	ltpFR	4	3	n/a	FINGER	567	n/a	n/a	n/a	n/a	n/a	n/a	n/a
4282.088	n/a	RECOG_CONF	2141044	n/a	LTP280	ltpFR	4	3	n/a	FINGER	567	2	n/a	n/a	n/a	n/a	n/a	n/a
4283.628	n/a	RECOG_TARGET	2141814	n/a	LTP280	ltpFR	4	3	1	ZOO	1637	5	0	n/a	n/a	n/a	n/a	n/a
4284.358	n/a	RECOG_RESP	2142179	n/a	LTP280	ltpFR	4	3	1	ZOO	1637	n/a	0	n/a	n/a	n/a	n/a	n/a
4285.028	n/a	RECOG_CONF	2142514	n/a	LTP280	ltpFR	4	3	1	ZOO	1637	5	0	n/a	n/a	n/a	n/a	n/a
4286.624	n/a	RECOG_TARGET	2143312	n/a	LTP280	ltpFR	4	3	0	MOTOR	922	5	1	n/a	n/a	n/a	n/a	n/a
4287.208	n/a	RECOG_RESP	2143604	n/a	LTP280	ltpFR	4	3	0	MOTOR	922	n/a	1	n/a	n/a	n/a	n/a	n/a
4287.618	n/a	RECOG_CONF	2143809	n/a	LTP280	ltpFR	4	3	0	MOTOR	922	5	1	n/a	n/a	n/a	n/a	n/a
4289.4	n/a	RECOG_TARGET	2144700	n/a	LTP280	ltpFR	4	3	0	YARN	1631	5	0	n/a	n/a	n/a	n/a	n/a
4289.988	n/a	RECOG_RESP	2144994	n/a	LTP280	ltpFR	4	3	0	YARN	1631	n/a	0	n/a	n/a	n/a	n/a	n/a
4290.518	n/a	RECOG_CONF	2145259	n/a	LTP280	ltpFR	4	3	0	YARN	1631	5	0	n/a	n/a	n/a	n/a	n/a
4294.484	n/a	REC_START	2147242	n/a	LTP280	ltpFR	4	4	n/a	n/a	n/a	n/a	n/a	n/a	n/a	n/a	n/a	n/a
4294.538	n/a	RECOG_LURE	2147269	n/a	LTP280	ltpFR	4	4	n/a	KANGAROO	768	3	n/a	n/a	n/a	n/a	n/a	n/a
4295.62	n/a	RECOG_RESP	2147810	n/a	LTP280	ltpFR	4	4	n/a	KANGAROO	768	n/a	n/a	n/a	n/a	n/a	n/a	n/a
4296.164	n/a	RECOG_CONF	2148082	n/a	LTP280	ltpFR	4	4	n/a	KANGAROO	768	3	n/a	n/a	n/a	n/a	n/a	n/a
4297.716	n/a	RECOG_TARGET	2148858	n/a	LTP280	ltpFR	4	4	0	SAUSAGE	1238	5	0	n/a	n/a	n/a	n/a	n/a
4298.504	n/a	RECOG_RESP	2149252	n/a	LTP280	ltpFR	4	4	0	SAUSAGE	1238	n/a	0	n/a	n/a	n/a	n/a	n/a
4299.244	n/a	RECOG_CONF	2149622	n/a	LTP280	ltpFR	4	4	0	SAUSAGE	1238	5	0	n/a	n/a	n/a	n/a	n/a
4301.028	n/a	RECOG_TARGET	2150514	n/a	LTP280	ltpFR	4	4	-1	GIRL	637	3	-1	n/a	n/a	n/a	n/a	n/a
4302.124	n/a	RECOG_RESP	2151062	n/a	LTP280	ltpFR	4	4	-1	GIRL	637	n/a	-1	n/a	n/a	n/a	n/a	n/a
4302.774	n/a	RECOG_CONF	2151387	n/a	LTP280	ltpFR	4	4	-1	GIRL	637	3	-1	n/a	n/a	n/a	n/a	n/a
4304.422	n/a	RECOG_TARGET	2152211	n/a	LTP280	ltpFR	4	4	0	SUPERMARKET	1409	5	1	n/a	n/a	n/a	n/a	n/a
4305.19	n/a	RECOG_RESP	2152595	n/a	LTP280	ltpFR	4	4	0	SUPERMARKET	1409	n/a	1	n/a	n/a	n/a	n/a	n/a
4305.844	n/a	RECOG_CONF	2152922	n/a	LTP280	ltpFR	4	4	0	SUPERMARKET	1409	5	1	n/a	n/a	n/a	n/a	n/a
4307.402	n/a	RECOG_TARGET	2153701	n/a	LTP280	ltpFR	4	4	0	CELERY	266	5	0	n/a	n/a	n/a	n/a	n/a
4308.18	n/a	RECOG_RESP	2154090	n/a	LTP280	ltpFR	4	4	0	CELERY	266	n/a	0	n/a	n/a	n/a	n/a	n/a
4308.804	n/a	RECOG_CONF	2154402	n/a	LTP280	ltpFR	4	4	0	CELERY	266	5	0	n/a	n/a	n/a	n/a	n/a
4310.298	n/a	RECOG_TARGET	2155149	n/a	LTP280	ltpFR	4	4	0	MANSION	864	5	1	n/a	n/a	n/a	n/a	n/a
4311.04	n/a	RECOG_RESP	2155520	n/a	LTP280	ltpFR	4	4	0	MANSION	864	n/a	1	n/a	n/a	n/a	n/a	n/a
4311.666	n/a	RECOG_CONF	2155833	n/a	LTP280	ltpFR	4	4	0	MANSION	864	5	1	n/a	n/a	n/a	n/a	n/a
4313.208	n/a	RECOG_TARGET	2156604	n/a	LTP280	ltpFR	4	4	-1	DONKEY	484	3	-1	n/a	n/a	n/a	n/a	n/a
4314.736	n/a	RECOG_RESP	2157368	n/a	LTP280	ltpFR	4	4	-1	DONKEY	484	n/a	-1	n/a	n/a	n/a	n/a	n/a
4315.406	n/a	RECOG_CONF	2157703	n/a	LTP280	ltpFR	4	4	-1	DONKEY	484	3	-1	n/a	n/a	n/a	n/a	n/a
4317.006	n/a	RECOG_TARGET	2158503	n/a	LTP280	ltpFR	4	4	1	SHINGLE	1285	5	0	n/a	n/a	n/a	n/a	n/a
4317.776	n/a	RECOG_RESP	2158888	n/a	LTP280	ltpFR	4	4	1	SHINGLE	1285	n/a	0	n/a	n/a	n/a	n/a	n/a
4318.356	n/a	RECOG_CONF	2159178	n/a	LTP280	ltpFR	4	4	1	SHINGLE	1285	5	0	n/a	n/a	n/a	n/a	n/a
4320.068	n/a	RECOG_TARGET	2160034	n/a	LTP280	ltpFR	4	4	-1	CONTRACTOR	369	2	-1	n/a	n/a	n/a	n/a	n/a
4321.486	n/a	RECOG_RESP	2160743	n/a	LTP280	ltpFR	4	4	-1	CONTRACTOR	369	n/a	-1	n/a	n/a	n/a	n/a	n/a
4322.136	n/a	RECOG_CONF	2161068	n/a	LTP280	ltpFR	4	4	-1	CONTRACTOR	369	2	-1	n/a	n/a	n/a	n/a	n/a
4323.798	n/a	RECOG_LURE	2161899	n/a	LTP280	ltpFR	4	4	n/a	JELLO	754	4	n/a	n/a	n/a	n/a	n/a	n/a
4324.836	n/a	RECOG_RESP	2162418	n/a	LTP280	ltpFR	4	4	n/a	JELLO	754	n/a	n/a	n/a	n/a	n/a	n/a	n/a
4325.276	n/a	RECOG_CONF	2162638	n/a	LTP280	ltpFR	4	4	n/a	JELLO	754	4	n/a	n/a	n/a	n/a	n/a	n/a
4327.01	n/a	RECOG_TARGET	2163505	n/a	LTP280	ltpFR	4	4	-1	MICROWAVE	892	5	-1	n/a	n/a	n/a	n/a	n/a
4327.706	n/a	RECOG_RESP	2163853	n/a	LTP280	ltpFR	4	4	-1	MICROWAVE	892	n/a	-1	n/a	n/a	n/a	n/a	n/a
4328.156	n/a	RECOG_CONF	2164078	n/a	LTP280	ltpFR	4	4	-1	MICROWAVE	892	5	-1	n/a	n/a	n/a	n/a	n/a
4329.94	n/a	RECOG_TARGET	2164970	n/a	LTP280	ltpFR	4	4	-1	TWIN	1528	3	-1	n/a	n/a	n/a	n/a	n/a
4331.096	n/a	RECOG_RESP	2165548	n/a	LTP280	ltpFR	4	4	-1	TWIN	1528	n/a	-1	n/a	n/a	n/a	n/a	n/a
4331.706	n/a	RECOG_CONF	2165853	n/a	LTP280	ltpFR	4	4	-1	TWIN	1528	3	-1	n/a	n/a	n/a	n/a	n/a
4333.604	n/a	RECOG_TARGET	2166802	n/a	LTP280	ltpFR	4	4	1	TAIL	1430	5	0	n/a	n/a	n/a	n/a	n/a
4334.336	n/a	RECOG_RESP	2167168	n/a	LTP280	ltpFR	4	4	1	TAIL	1430	n/a	0	n/a	n/a	n/a	n/a	n/a
4334.946	n/a	RECOG_CONF	2167473	n/a	LTP280	ltpFR	4	4	1	TAIL	1430	5	0	n/a	n/a	n/a	n/a	n/a
4336.632	n/a	RECOG_TARGET	2168316	n/a	LTP280	ltpFR	4	4	-1	CART	250	2	-1	n/a	n/a	n/a	n/a	n/a
4337.786	n/a	RECOG_RESP	2168893	n/a	LTP280	ltpFR	4	4	-1	CART	250	n/a	-1	n/a	n/a	n/a	n/a	n/a
4338.386	n/a	RECOG_CONF	2169193	n/a	LTP280	ltpFR	4	4	-1	CART	250	2	-1	n/a	n/a	n/a	n/a	n/a
4340.028	n/a	RECOG_TARGET	2170014	n/a	LTP280	ltpFR	4	4	1	PONY	1102	3	1	n/a	n/a	n/a	n/a	n/a
4341.332	n/a	RECOG_RESP	2170666	n/a	LTP280	ltpFR	4	4	1	PONY	1102	n/a	1	n/a	n/a	n/a	n/a	n/a
4341.816	n/a	RECOG_CONF	2170908	n/a	LTP280	ltpFR	4	4	1	PONY	1102	3	1	n/a	n/a	n/a	n/a	n/a
4343.574	n/a	RECOG_TARGET	2171787	n/a	LTP280	ltpFR	4	4	-1	CHIEF	298	5	-1	n/a	n/a	n/a	n/a	n/a
4344.706	n/a	RECOG_RESP	2172353	n/a	LTP280	ltpFR	4	4	-1	CHIEF	298	n/a	-1	n/a	n/a	n/a	n/a	n/a
4345.736	n/a	RECOG_CONF	2172868	n/a	LTP280	ltpFR	4	4	-1	CHIEF	298	5	-1	n/a	n/a	n/a	n/a	n/a
4347.422	n/a	RECOG_TARGET	2173711	n/a	LTP280	ltpFR	4	4	1	TENT	1449	5	1	n/a	n/a	n/a	n/a	n/a
4348.378	n/a	RECOG_RESP	2174189	n/a	LTP280	ltpFR	4	4	1	TENT	1449	n/a	1	n/a	n/a	n/a	n/a	n/a
4349.028	n/a	RECOG_CONF	2174514	n/a	LTP280	ltpFR	4	4	1	TENT	1449	5	1	n/a	n/a	n/a	n/a	n/a
4350.618	n/a	RECOG_TARGET	2175309	n/a	LTP280	ltpFR	4	4	1	CANDIDATE	228	5	1	n/a	n/a	n/a	n/a	n/a
4351.418	n/a	RECOG_RESP	2175709	n/a	LTP280	ltpFR	4	4	1	CANDIDATE	228	n/a	1	n/a	n/a	n/a	n/a	n/a
4352.008	n/a	RECOG_CONF	2176004	n/a	LTP280	ltpFR	4	4	1	CANDIDATE	228	5	1	n/a	n/a	n/a	n/a	n/a
4353.478	n/a	RECOG_TARGET	2176739	n/a	LTP280	ltpFR	4	4	-1	PADDLE	1000	5	-1	n/a	n/a	n/a	n/a	n/a
4355.088	n/a	RECOG_RESP	2177544	n/a	LTP280	ltpFR	4	4	-1	PADDLE	1000	n/a	-1	n/a	n/a	n/a	n/a	n/a
4355.568	n/a	RECOG_CONF	2177784	n/a	LTP280	ltpFR	4	4	-1	PADDLE	1000	5	-1	n/a	n/a	n/a	n/a	n/a
4357.31	n/a	RECOG_LURE	2178655	n/a	LTP280	ltpFR	4	4	n/a	SLOPE	1328	3	n/a	n/a	n/a	n/a	n/a	n/a
4358.312	n/a	RECOG_RESP	2179156	n/a	LTP280	ltpFR	4	4	n/a	SLOPE	1328	n/a	n/a	n/a	n/a	n/a	n/a	n/a
4358.918	n/a	RECOG_CONF	2179459	n/a	LTP280	ltpFR	4	4	n/a	SLOPE	1328	3	n/a	n/a	n/a	n/a	n/a	n/a
4362.726	n/a	REC_START	2181363	n/a	LTP280	ltpFR	4	5	n/a	n/a	n/a	n/a	n/a	n/a	n/a	n/a	n/a	n/a
4362.78	n/a	RECOG_TARGET	2181390	n/a	LTP280	ltpFR	4	5	1	WARRIOR	1589	4	1	n/a	n/a	n/a	n/a	n/a
4363.936	n/a	RECOG_RESP	2181968	n/a	LTP280	ltpFR	4	5	1	WARRIOR	1589	n/a	1	n/a	n/a	n/a	n/a	n/a
4364.426	n/a	RECOG_CONF	2182213	n/a	LTP280	ltpFR	4	5	1	WARRIOR	1589	4	1	n/a	n/a	n/a	n/a	n/a
4366.178	n/a	RECOG_TARGET	2183089	n/a	LTP280	ltpFR	4	5	0	WASP	1593	5	0	n/a	n/a	n/a	n/a	n/a
4367.062	n/a	RECOG_RESP	2183531	n/a	LTP280	ltpFR	4	5	0	WASP	1593	n/a	0	n/a	n/a	n/a	n/a	n/a
4367.596	n/a	RECOG_CONF	2183798	n/a	LTP280	ltpFR	4	5	0	WASP	1593	5	0	n/a	n/a	n/a	n/a	n/a
4369.156	n/a	RECOG_TARGET	2184578	n/a	LTP280	ltpFR	4	5	1	COUGAR	387	5	1	n/a	n/a	n/a	n/a	n/a
4369.812	n/a	RECOG_RESP	2184906	n/a	LTP280	ltpFR	4	5	1	COUGAR	387	n/a	1	n/a	n/a	n/a	n/a	n/a
4370.346	n/a	RECOG_CONF	2185173	n/a	LTP280	ltpFR	4	5	1	COUGAR	387	5	1	n/a	n/a	n/a	n/a	n/a
4371.984	n/a	RECOG_TARGET	2185992	n/a	LTP280	ltpFR	4	5	1	FEATHER	557	5	0	n/a	n/a	n/a	n/a	n/a
4372.772	n/a	RECOG_RESP	2186386	n/a	LTP280	ltpFR	4	5	1	FEATHER	557	n/a	0	n/a	n/a	n/a	n/a	n/a
4373.206	n/a	RECOG_CONF	2186603	n/a	LTP280	ltpFR	4	5	1	FEATHER	557	5	0	n/a	n/a	n/a	n/a	n/a
4374.928	n/a	RECOG_TARGET	2187464	n/a	LTP280	ltpFR	4	5	1	ASSISTANT	48	5	1	n/a	n/a	n/a	n/a	n/a
4375.586	n/a	RECOG_RESP	2187793	n/a	LTP280	ltpFR	4	5	1	ASSISTANT	48	n/a	1	n/a	n/a	n/a	n/a	n/a
4376.196	n/a	RECOG_CONF	2188098	n/a	LTP280	ltpFR	4	5	1	ASSISTANT	48	5	1	n/a	n/a	n/a	n/a	n/a
4377.906	n/a	RECOG_LURE	2188953	n/a	LTP280	ltpFR	4	5	n/a	JAPAN	749	3	n/a	n/a	n/a	n/a	n/a	n/a
4378.932	n/a	RECOG_RESP	2189466	n/a	LTP280	ltpFR	4	5	n/a	JAPAN	749	n/a	n/a	n/a	n/a	n/a	n/a	n/a
4379.446	n/a	RECOG_CONF	2189723	n/a	LTP280	ltpFR	4	5	n/a	JAPAN	749	3	n/a	n/a	n/a	n/a	n/a	n/a
4381.0	n/a	RECOG_TARGET	2190500	n/a	LTP280	ltpFR	4	5	1	HANGER	687	4	0	n/a	n/a	n/a	n/a	n/a
4381.866	n/a	RECOG_RESP	2190933	n/a	LTP280	ltpFR	4	5	1	HANGER	687	n/a	0	n/a	n/a	n/a	n/a	n/a
4382.576	n/a	RECOG_CONF	2191288	n/a	LTP280	ltpFR	4	5	1	HANGER	687	4	0	n/a	n/a	n/a	n/a	n/a
4384.196	n/a	RECOG_TARGET	2192098	n/a	LTP280	ltpFR	4	5	0	SIBLING	1301	4	1	n/a	n/a	n/a	n/a	n/a
4385.738	n/a	RECOG_RESP	2192869	n/a	LTP280	ltpFR	4	5	0	SIBLING	1301	n/a	1	n/a	n/a	n/a	n/a	n/a
4386.428	n/a	RECOG_CONF	2193214	n/a	LTP280	ltpFR	4	5	0	SIBLING	1301	4	1	n/a	n/a	n/a	n/a	n/a
4387.962	n/a	RECOG_TARGET	2193981	n/a	LTP280	ltpFR	4	5	1	LION	827	4	1	n/a	n/a	n/a	n/a	n/a
4388.622	n/a	RECOG_RESP	2194311	n/a	LTP280	ltpFR	4	5	1	LION	827	n/a	1	n/a	n/a	n/a	n/a	n/a
4389.368	n/a	RECOG_CONF	2194684	n/a	LTP280	ltpFR	4	5	1	LION	827	4	1	n/a	n/a	n/a	n/a	n/a
4391.006	n/a	RECOG_TARGET	2195503	n/a	LTP280	ltpFR	4	5	1	MONKEY	911	5	1	n/a	n/a	n/a	n/a	n/a
4392.108	n/a	RECOG_RESP	2196054	n/a	LTP280	ltpFR	4	5	1	MONKEY	911	n/a	1	n/a	n/a	n/a	n/a	n/a
4392.528	n/a	RECOG_CONF	2196264	n/a	LTP280	ltpFR	4	5	1	MONKEY	911	5	1	n/a	n/a	n/a	n/a	n/a
4394.45	n/a	RECOG_TARGET	2197225	n/a	LTP280	ltpFR	4	5	0	FREEWAY	603	5	1	n/a	n/a	n/a	n/a	n/a
4395.152	n/a	RECOG_RESP	2197576	n/a	LTP280	ltpFR	4	5	0	FREEWAY	603	n/a	1	n/a	n/a	n/a	n/a	n/a
4395.758	n/a	RECOG_CONF	2197879	n/a	LTP280	ltpFR	4	5	0	FREEWAY	603	5	1	n/a	n/a	n/a	n/a	n/a
4397.43	n/a	RECOG_TARGET	2198715	n/a	LTP280	ltpFR	4	5	1	RECEIPT	1173	2	0	n/a	n/a	n/a	n/a	n/a
4399.368	n/a	RECOG_RESP	2199684	n/a	LTP280	ltpFR	4	5	1	RECEIPT	1173	n/a	0	n/a	n/a	n/a	n/a	n/a
4400.288	n/a	RECOG_CONF	2200144	n/a	LTP280	ltpFR	4	5	1	RECEIPT	1173	2	0	n/a	n/a	n/a	n/a	n/a
4401.594	n/a	RECOG_LURE	2200797	n/a	LTP280	ltpFR	4	5	n/a	STAGE	1366	1	n/a	n/a	n/a	n/a	n/a	n/a
4403.358	n/a	RECOG_RESP	2201679	n/a	LTP280	ltpFR	4	5	n/a	STAGE	1366	n/a	n/a	n/a	n/a	n/a	n/a	n/a
4404.128	n/a	RECOG_CONF	2202064	n/a	LTP280	ltpFR	4	5	n/a	STAGE	1366	1	n/a	n/a	n/a	n/a	n/a	n/a
4405.88	n/a	RECOG_TARGET	2202940	n/a	LTP280	ltpFR	4	5	-1	EARTH	515	4	-1	n/a	n/a	n/a	n/a	n/a
4406.928	n/a	RECOG_RESP	2203464	n/a	LTP280	ltpFR	4	5	-1	EARTH	515	n/a	-1	n/a	n/a	n/a	n/a	n/a
4407.828	n/a	RECOG_CONF	2203914	n/a	LTP280	ltpFR	4	5	-1	EARTH	515	4	-1	n/a	n/a	n/a	n/a	n/a
4409.592	n/a	RECOG_TARGET	2204796	n/a	LTP280	ltpFR	4	5	0	DRIVEWAY	500	4	1	n/a	n/a	n/a	n/a	n/a
4410.638	n/a	RECOG_RESP	2205319	n/a	LTP280	ltpFR	4	5	0	DRIVEWAY	500	n/a	1	n/a	n/a	n/a	n/a	n/a
4411.338	n/a	RECOG_CONF	2205669	n/a	LTP280	ltpFR	4	5	0	DRIVEWAY	500	4	1	n/a	n/a	n/a	n/a	n/a
4413.024	n/a	RECOG_TARGET	2206512	n/a	LTP280	ltpFR	4	5	0	HERB	704	5	0	n/a	n/a	n/a	n/a	n/a
4414.168	n/a	RECOG_RESP	2207084	n/a	LTP280	ltpFR	4	5	0	HERB	704	n/a	0	n/a	n/a	n/a	n/a	n/a
4414.798	n/a	RECOG_CONF	2207399	n/a	LTP280	ltpFR	4	5	0	HERB	704	5	0	n/a	n/a	n/a	n/a	n/a
4416.554	n/a	RECOG_TARGET	2208277	n/a	LTP280	ltpFR	4	5	0	PICNIC	1060	4	1	n/a	n/a	n/a	n/a	n/a
4417.538	n/a	RECOG_RESP	2208769	n/a	LTP280	ltpFR	4	5	0	PICNIC	1060	n/a	1	n/a	n/a	n/a	n/a	n/a
4418.188	n/a	RECOG_CONF	2209094	n/a	LTP280	ltpFR	4	5	0	PICNIC	1060	4	1	n/a	n/a	n/a	n/a	n/a
4419.9	n/a	RECOG_TARGET	2209950	n/a	LTP280	ltpFR	4	5	-1	THORN	1459	1	-1	n/a	n/a	n/a	n/a	n/a
4421.208	n/a	RECOG_RESP	2210604	n/a	LTP280	ltpFR	4	5	-1	THORN	1459	n/a	-1	n/a	n/a	n/a	n/a	n/a
4421.856	n/a	RECOG_CONF	2210928	n/a	LTP280	ltpFR	4	5	-1	THORN	1459	1	-1	n/a	n/a	n/a	n/a	n/a
4423.58	n/a	RECOG_TARGET	2211790	n/a	LTP280	ltpFR	4	5	-1	SPOON	1357	5	-1	n/a	n/a	n/a	n/a	n/a
4424.364	n/a	RECOG_RESP	2212182	n/a	LTP280	ltpFR	4	5	-1	SPOON	1357	n/a	-1	n/a	n/a	n/a	n/a	n/a
4424.94	n/a	RECOG_CONF	2212470	n/a	LTP280	ltpFR	4	5	-1	SPOON	1357	5	-1	n/a	n/a	n/a	n/a	n/a
4426.558	n/a	RECOG_TARGET	2213279	n/a	LTP280	ltpFR	4	5	0	COBRA	336	5	1	n/a	n/a	n/a	n/a	n/a
4427.26	n/a	RECOG_RESP	2213630	n/a	LTP280	ltpFR	4	5	0	COBRA	336	n/a	1	n/a	n/a	n/a	n/a	n/a
4427.84	n/a	RECOG_CONF	2213920	n/a	LTP280	ltpFR	4	5	0	COBRA	336	5	1	n/a	n/a	n/a	n/a	n/a
4431.88	n/a	REC_START	2215940	n/a	LTP280	ltpFR	4	6	n/a	n/a	n/a	n/a	n/a	n/a	n/a	n/a	n/a	n/a
4431.944	n/a	RECOG_TARGET	2215972	n/a	LTP280	ltpFR	4	6	1	BLUEBERRY	140	5	1	n/a	n/a	n/a	n/a	n/a
4432.62	n/a	RECOG_RESP	2216310	n/a	LTP280	ltpFR	4	6	1	BLUEBERRY	140	n/a	1	n/a	n/a	n/a	n/a	n/a
4433.34	n/a	RECOG_CONF	2216670	n/a	LTP280	ltpFR	4	6	1	BLUEBERRY	140	5	1	n/a	n/a	n/a	n/a	n/a
4434.922	n/a	RECOG_TARGET	2217461	n/a	LTP280	ltpFR	4	6	-1	SCREW	1254	5	-1	n/a	n/a	n/a	n/a	n/a
4435.64	n/a	RECOG_RESP	2217820	n/a	LTP280	ltpFR	4	6	-1	SCREW	1254	n/a	-1	n/a	n/a	n/a	n/a	n/a
