mstime	trial_type	stim_file	subject	experiment	session	trial	task	item_name	item_num	recog_conf	resp	answer	test_x	test_y	test_z	color_b	color_g	color_r	case	font
0	SESS_START	n/a	LTP276	ltpFR	13	n/a	n/a	n/a	n/a	2	n/a	n/a	0	0	0	n/a	n/a	n/a	n/a	n/a
59778	START	n/a	LTP276	ltpFR	13	n/a	n/a	n/a	n/a	n/a	n/a	n/a	n/a	n/a	n/a	n/a	n/a	n/a	n/a	n/a
59828	PROB	n/a	LTP276	ltpFR	13	n/a	n/a	n/a	n/a	n/a	n/a	12	1	3	8	n/a	n/a	n/a	n/a	n/a
62186	PROB	n/a	LTP276	ltpFR	13	n/a	n/a	n/a	n/a	n/a	n/a	9	1	5	3	n/a	n/a	n/a	n/a	n/a
63659	PROB	n/a	LTP276	ltpFR	13	n/a	n/a	n/a	n/a	n/a	n/a	19	5	8	6	n/a	n/a	n/a	n/a	n/a
65097	PROB	n/a	LTP276	ltpFR	13	n/a	n/a	n/a	n/a	n/a	n/a	21	6	7	8	n/a	n/a	n/a	n/a	n/a
66518	PROB	n/a	LTP276	ltpFR	13	n/a	n/a	n/a	n/a	n/a	n/a	19	9	1	9	n/a	n/a	n/a	n/a	n/a
69530	PROB	n/a	LTP276	ltpFR	13	n/a	n/a	n/a	n/a	n/a	n/a	20	8	6	6	n/a	n/a	n/a	n/a	n/a
71170	PROB	n/a	LTP276	ltpFR	13	n/a	n/a	n/a	n/a	n/a	n/a	23	7	9	7	n/a	n/a	n/a	n/a	n/a
73511	PROB	n/a	LTP276	ltpFR	13	n/a	n/a	n/a	n/a	n/a	n/a	10	3	6	1	n/a	n/a	n/a	n/a	n/a
74650	PROB	n/a	LTP276	ltpFR	13	n/a	n/a	n/a	n/a	n/a	n/a	16	6	1	9	n/a	n/a	n/a	n/a	n/a
75988	PROB	n/a	LTP276	ltpFR	13	n/a	n/a	n/a	n/a	n/a	n/a	24	8	9	7	n/a	n/a	n/a	n/a	n/a
79778	STOP	n/a	LTP276	ltpFR	13	n/a	n/a	n/a	n/a	n/a	n/a	n/a	n/a	n/a	n/a	n/a	n/a	n/a	n/a	n/a
151472	WORD	wordpools/wasnorm_wordpool_less_exclusions.txt	LTP276	ltpFR	13	1	1	SPY	1360	n/a	1	n/a	0	0	0	1	0.412841796875	0.57763671875	upper	../fonts/amplitud.ttf
155287	WORD	wordpools/wasnorm_wordpool_less_exclusions.txt	LTP276	ltpFR	13	1	1	EARTH	515	n/a	0	n/a	0	0	0	1	0.412841796875	0.57763671875	upper	../fonts/amplitud.ttf
159169	WORD	wordpools/wasnorm_wordpool_less_exclusions.txt	LTP276	ltpFR	13	1	1	GRATE	657	n/a	0	n/a	0	0	0	1	0.412841796875	0.57763671875	upper	../fonts/amplitud.ttf
163083	WORD	wordpools/wasnorm_wordpool_less_exclusions.txt	LTP276	ltpFR	13	1	1	TABLET	1427	n/a	0	n/a	0	0	0	1	0.412841796875	0.57763671875	upper	../fonts/amplitud.ttf
166965	WORD	wordpools/wasnorm_wordpool_less_exclusions.txt	LTP276	ltpFR	13	1	1	MACHINE	852	n/a	0	n/a	0	0	0	1	0.412841796875	0.57763671875	upper	../fonts/amplitud.ttf
170980	WORD	wordpools/wasnorm_wordpool_less_exclusions.txt	LTP276	ltpFR	13	1	1	PIT	1077	n/a	0	n/a	0	0	0	1	0.412841796875	0.57763671875	upper	../fonts/amplitud.ttf
174809	WORD	wordpools/wasnorm_wordpool_less_exclusions.txt	LTP276	ltpFR	13	1	1	BIRD	129	n/a	1	n/a	0	0	0	1	0.412841796875	0.57763671875	upper	../fonts/amplitud.ttf
178993	WORD	wordpools/wasnorm_wordpool_less_exclusions.txt	LTP276	ltpFR	13	1	1	PLIERS	1089	n/a	0	n/a	0	0	0	1	0.412841796875	0.57763671875	upper	../fonts/amplitud.ttf
182856	WORD	wordpools/wasnorm_wordpool_less_exclusions.txt	LTP276	ltpFR	13	1	1	GIRAFFE	636	n/a	1	n/a	0	0	0	1	0.412841796875	0.57763671875	upper	../fonts/amplitud.ttf
186723	WORD	wordpools/wasnorm_wordpool_less_exclusions.txt	LTP276	ltpFR	13	1	1	POSSUM	1112	n/a	1	n/a	0	0	0	1	0.412841796875	0.57763671875	upper	../fonts/amplitud.ttf
190702	WORD	wordpools/wasnorm_wordpool_less_exclusions.txt	LTP276	ltpFR	13	1	1	PILL	1068	n/a	0	n/a	0	0	0	1	0.412841796875	0.57763671875	upper	../fonts/amplitud.ttf
194887	WORD	wordpools/wasnorm_wordpool_less_exclusions.txt	LTP276	ltpFR	13	1	1	GUM	672	n/a	0	n/a	0	0	0	1	0.412841796875	0.57763671875	upper	../fonts/amplitud.ttf
198868	WORD	wordpools/wasnorm_wordpool_less_exclusions.txt	LTP276	ltpFR	13	1	1	DISHWASHER	475	n/a	0	n/a	0	0	0	1	0.412841796875	0.57763671875	upper	../fonts/amplitud.ttf
202781	WORD	wordpools/wasnorm_wordpool_less_exclusions.txt	LTP276	ltpFR	13	1	1	PERSON	1052	n/a	1	n/a	0	0	0	1	0.412841796875	0.57763671875	upper	../fonts/amplitud.ttf
206748	WORD	wordpools/wasnorm_wordpool_less_exclusions.txt	LTP276	ltpFR	13	1	1	CITIZEN	312	n/a	1	n/a	0	0	0	1	0.412841796875	0.57763671875	upper	../fonts/amplitud.ttf
210629	WORD	wordpools/wasnorm_wordpool_less_exclusions.txt	LTP276	ltpFR	13	1	1	CRATER	400	n/a	0	n/a	0	0	0	1	0.412841796875	0.57763671875	upper	../fonts/amplitud.ttf
213641	START	n/a	LTP276	ltpFR	13	n/a	n/a	n/a	n/a	n/a	n/a	n/a	n/a	n/a	n/a	n/a	n/a	n/a	n/a	n/a
214745	PROB	n/a	LTP276	ltpFR	13	n/a	n/a	n/a	n/a	n/a	n/a	20	9	6	5	n/a	n/a	n/a	n/a	n/a
216100	PROB	n/a	LTP276	ltpFR	13	n/a	n/a	n/a	n/a	n/a	n/a	11	1	3	7	n/a	n/a	n/a	n/a	n/a
217487	PROB	n/a	LTP276	ltpFR	13	n/a	n/a	n/a	n/a	n/a	n/a	9	4	3	2	n/a	n/a	n/a	n/a	n/a
218911	PROB	n/a	LTP276	ltpFR	13	n/a	n/a	n/a	n/a	n/a	n/a	20	5	9	6	n/a	n/a	n/a	n/a	n/a
220823	STOP	n/a	LTP276	ltpFR	13	n/a	n/a	n/a	n/a	n/a	n/a	n/a	n/a	n/a	n/a	n/a	n/a	n/a	n/a	n/a
223461	REC_START	n/a	LTP276	ltpFR	13	1	n/a	n/a	n/a	n/a	n/a	n/a	0	0	0	n/a	n/a	n/a	n/a	n/a
224858	REC_WORD	wordpools/wasnorm_wordpool_less_exclusions.txt	LTP276	ltpFR	13	1	1	EARTH	515	n/a	0	n/a	0	0	0	n/a	n/a	n/a	n/a	n/a
225321	REC_WORD	wordpools/wasnorm_wordpool_less_exclusions.txt	LTP276	ltpFR	13	1	1	CRATER	400	n/a	0	n/a	0	0	0	n/a	n/a	n/a	n/a	n/a
225906	REC_WORD	wordpools/wasnorm_wordpool_less_exclusions.txt	LTP276	ltpFR	13	1	1	PIT	1077	n/a	0	n/a	0	0	0	n/a	n/a	n/a	n/a	n/a
226372	REC_WORD	wordpools/wasnorm_wordpool_less_exclusions.txt	LTP276	ltpFR	13	1	1	GUM	672	n/a	0	n/a	0	0	0	n/a	n/a	n/a	n/a	n/a
226836	REC_WORD	wordpools/wasnorm_wordpool_less_exclusions.txt	LTP276	ltpFR	13	1	1	MACHINE	852	n/a	0	n/a	0	0	0	n/a	n/a	n/a	n/a	n/a
227550	REC_WORD	wordpools/wasnorm_wordpool_less_exclusions.txt	LTP276	ltpFR	13	1	1	DISHWASHER	475	n/a	0	n/a	0	0	0	n/a	n/a	n/a	n/a	n/a
228795	REC_WORD_VV	wordpools/wasnorm_wordpool_less_exclusions.txt	LTP276	ltpFR	13	1	n/a	<>	-1	n/a	n/a	n/a	0	0	0	n/a	n/a	n/a	n/a	n/a
229531	REC_WORD	wordpools/wasnorm_wordpool_less_exclusions.txt	LTP276	ltpFR	13	1	1	BIRD	129	n/a	1	n/a	0	0	0	n/a	n/a	n/a	n/a	n/a
236406	REC_WORD	wordpools/wasnorm_wordpool_less_exclusions.txt	LTP276	ltpFR	13	1	1	PERSON	1052	n/a	1	n/a	0	0	0	n/a	n/a	n/a	n/a	n/a
242426	REC_WORD	wordpools/wasnorm_wordpool_less_exclusions.txt	LTP276	ltpFR	13	1	1	PILL	1068	n/a	0	n/a	0	0	0	n/a	n/a	n/a	n/a	n/a
268857	REC_WORD	wordpools/wasnorm_wordpool_less_exclusions.txt	LTP276	ltpFR	13	1	1	TABLET	1427	n/a	0	n/a	0	0	0	n/a	n/a	n/a	n/a	n/a
306207	START	n/a	LTP276	ltpFR	13	n/a	n/a	n/a	n/a	n/a	n/a	n/a	n/a	n/a	n/a	n/a	n/a	n/a	n/a	n/a
307712	PROB	n/a	LTP276	ltpFR	13	n/a	n/a	n/a	n/a	n/a	n/a	17	1	9	7	n/a	n/a	n/a	n/a	n/a
309184	PROB	n/a	LTP276	ltpFR	13	n/a	n/a	n/a	n/a	n/a	n/a	21	9	8	4	n/a	n/a	n/a	n/a	n/a
310757	PROB	n/a	LTP276	ltpFR	13	n/a	n/a	n/a	n/a	n/a	n/a	9	3	3	3	n/a	n/a	n/a	n/a	n/a
311677	PROB	n/a	LTP276	ltpFR	13	n/a	n/a	n/a	n/a	n/a	n/a	17	3	7	7	n/a	n/a	n/a	n/a	n/a
313143	STOP	n/a	LTP276	ltpFR	13	n/a	n/a	n/a	n/a	n/a	n/a	n/a	n/a	n/a	n/a	n/a	n/a	n/a	n/a	n/a
315106	WORD	wordpools/wasnorm_wordpool_less_exclusions.txt	LTP276	ltpFR	13	2	0	NUN	962	n/a	0	n/a	0	0	0	0	0.5869140625	0.422607421875	lower	../fonts/zerothre.ttf
318118	START	n/a	LTP276	ltpFR	13	n/a	n/a	n/a	n/a	n/a	n/a	n/a	n/a	n/a	n/a	n/a	n/a	n/a	n/a	n/a
319205	PROB	n/a	LTP276	ltpFR	13	n/a	n/a	n/a	n/a	n/a	n/a	10	1	4	5	n/a	n/a	n/a	n/a	n/a
320309	PROB	n/a	LTP276	ltpFR	13	n/a	n/a	n/a	n/a	n/a	n/a	19	9	1	9	n/a	n/a	n/a	n/a	n/a
321981	PROB	n/a	LTP276	ltpFR	13	n/a	n/a	n/a	n/a	n/a	n/a	18	8	4	6	n/a	n/a	n/a	n/a	n/a
323287	PROB	n/a	LTP276	ltpFR	13	n/a	n/a	n/a	n/a	n/a	n/a	10	1	8	1	n/a	n/a	n/a	n/a	n/a
324224	PROB	n/a	LTP276	ltpFR	13	n/a	n/a	n/a	n/a	n/a	n/a	12	5	1	6	n/a	n/a	n/a	n/a	n/a
325255	STOP	n/a	LTP276	ltpFR	13	n/a	n/a	n/a	n/a	n/a	n/a	n/a	n/a	n/a	n/a	n/a	n/a	n/a	n/a	n/a
327018	WORD	wordpools/wasnorm_wordpool_less_exclusions.txt	LTP276	ltpFR	13	2	0	NAPKIN	937	n/a	0	n/a	0	0	0	0	0.5869140625	0.422607421875	lower	../fonts/zerothre.ttf
330030	START	n/a	LTP276	ltpFR	13	n/a	n/a	n/a	n/a	n/a	n/a	n/a	n/a	n/a	n/a	n/a	n/a	n/a	n/a	n/a
331167	PROB	n/a	LTP276	ltpFR	13	n/a	n/a	n/a	n/a	n/a	n/a	17	4	8	5	n/a	n/a	n/a	n/a	n/a
332706	PROB	n/a	LTP276	ltpFR	13	n/a	n/a	n/a	n/a	n/a	n/a	14	6	7	1	n/a	n/a	n/a	n/a	n/a
333777	PROB	n/a	LTP276	ltpFR	13	n/a	n/a	n/a	n/a	n/a	n/a	15	8	2	5	n/a	n/a	n/a	n/a	n/a
334946	PROB	n/a	LTP276	ltpFR	13	n/a	n/a	n/a	n/a	n/a	n/a	16	6	5	5	n/a	n/a	n/a	n/a	n/a
335935	PROB	n/a	LTP276	ltpFR	13	n/a	n/a	n/a	n/a	n/a	n/a	16	8	7	1	n/a	n/a	n/a	n/a	n/a
337071	STOP	n/a	LTP276	ltpFR	13	n/a	n/a	n/a	n/a	n/a	n/a	n/a	n/a	n/a	n/a	n/a	n/a	n/a	n/a	n/a
338879	WORD	wordpools/wasnorm_wordpool_less_exclusions.txt	LTP276	ltpFR	13	2	0	ABDOMEN	1	n/a	0	n/a	0	0	0	0	0.5869140625	0.422607421875	lower	../fonts/zerothre.ttf
341891	START	n/a	LTP276	ltpFR	13	n/a	n/a	n/a	n/a	n/a	n/a	n/a	n/a	n/a	n/a	n/a	n/a	n/a	n/a	n/a
342993	PROB	n/a	LTP276	ltpFR	13	n/a	n/a	n/a	n/a	n/a	n/a	19	7	9	3	n/a	n/a	n/a	n/a	n/a
344952	PROB	n/a	LTP276	ltpFR	13	n/a	n/a	n/a	n/a	n/a	n/a	11	4	1	6	n/a	n/a	n/a	n/a	n/a
346240	PROB	n/a	LTP276	ltpFR	13	n/a	n/a	n/a	n/a	n/a	n/a	16	8	2	6	n/a	n/a	n/a	n/a	n/a
348366	STOP	n/a	LTP276	ltpFR	13	n/a	n/a	n/a	n/a	n/a	n/a	n/a	n/a	n/a	n/a	n/a	n/a	n/a	n/a	n/a
350908	WORD	wordpools/wasnorm_wordpool_less_exclusions.txt	LTP276	ltpFR	13	2	1	OCTOPUS	971	n/a	0	n/a	0	0	0	1	0.412841796875	0.57763671875	upper	../fonts/amplitud.ttf
353935	START	n/a	LTP276	ltpFR	13	n/a	n/a	n/a	n/a	n/a	n/a	n/a	n/a	n/a	n/a	n/a	n/a	n/a	n/a	n/a
354756	PROB	n/a	LTP276	ltpFR	13	n/a	n/a	n/a	n/a	n/a	n/a	16	9	3	4	n/a	n/a	n/a	n/a	n/a
356228	PROB	n/a	LTP276	ltpFR	13	n/a	n/a	n/a	n/a	n/a	n/a	10	9	2	1	n/a	n/a	n/a	n/a	n/a
357650	PROB	n/a	LTP276	ltpFR	13	n/a	n/a	n/a	n/a	n/a	n/a	16	6	5	5	n/a	n/a	n/a	n/a	n/a
359306	PROB	n/a	LTP276	ltpFR	13	n/a	n/a	n/a	n/a	n/a	n/a	16	3	8	5	n/a	n/a	n/a	n/a	n/a
360839	STOP	n/a	LTP276	ltpFR	13	n/a	n/a	n/a	n/a	n/a	n/a	n/a	n/a	n/a	n/a	n/a	n/a	n/a	n/a	n/a
363054	WORD	wordpools/wasnorm_wordpool_less_exclusions.txt	LTP276	ltpFR	13	2	1	CHEEK	287	n/a	0	n/a	0	0	0	1	0.412841796875	0.57763671875	upper	../fonts/amplitud.ttf
366066	START	n/a	LTP276	ltpFR	13	n/a	n/a	n/a	n/a	n/a	n/a	n/a	n/a	n/a	n/a	n/a	n/a	n/a	n/a	n/a
367153	PROB	n/a	LTP276	ltpFR	13	n/a	n/a	n/a	n/a	n/a	n/a	19	6	8	5	n/a	n/a	n/a	n/a	n/a
368759	PROB	n/a	LTP276	ltpFR	13	n/a	n/a	n/a	n/a	n/a	n/a	17	3	8	6	n/a	n/a	n/a	n/a	n/a
370030	PROB	n/a	LTP276	ltpFR	13	n/a	n/a	n/a	n/a	n/a	n/a	14	7	3	4	n/a	n/a	n/a	n/a	n/a
371251	PROB	n/a	LTP276	ltpFR	13	n/a	n/a	n/a	n/a	n/a	n/a	19	9	2	8	n/a	n/a	n/a	n/a	n/a
372472	PROB	n/a	LTP276	ltpFR	13	n/a	n/a	n/a	n/a	n/a	n/a	13	1	5	7	n/a	n/a	n/a	n/a	n/a
373767	STOP	n/a	LTP276	ltpFR	13	n/a	n/a	n/a	n/a	n/a	n/a	n/a	n/a	n/a	n/a	n/a	n/a	n/a	n/a	n/a
375266	WORD	wordpools/wasnorm_wordpool_less_exclusions.txt	LTP276	ltpFR	13	2	1	COW	393	n/a	1	n/a	0	0	0	1	0.412841796875	0.57763671875	upper	../fonts/amplitud.ttf
378278	START	n/a	LTP276	ltpFR	13	n/a	n/a	n/a	n/a	n/a	n/a	n/a	n/a	n/a	n/a	n/a	n/a	n/a	n/a	n/a
379465	PROB	n/a	LTP276	ltpFR	13	n/a	n/a	n/a	n/a	n/a	n/a	16	1	7	8	n/a	n/a	n/a	n/a	n/a
380400	PROB	n/a	LTP276	ltpFR	13	n/a	n/a	n/a	n/a	n/a	n/a	21	8	6	7	n/a	n/a	n/a	n/a	n/a
381724	PROB	n/a	LTP276	ltpFR	13	n/a	n/a	n/a	n/a	n/a	n/a	16	8	2	6	n/a	n/a	n/a	n/a	n/a
382894	PROB	n/a	LTP276	ltpFR	13	n/a	n/a	n/a	n/a	n/a	n/a	6	1	2	3	n/a	n/a	n/a	n/a	n/a
383765	PROB	n/a	LTP276	ltpFR	13	n/a	n/a	n/a	n/a	n/a	n/a	11	3	6	2	n/a	n/a	n/a	n/a	n/a
385095	STOP	n/a	LTP276	ltpFR	13	n/a	n/a	n/a	n/a	n/a	n/a	n/a	n/a	n/a	n/a	n/a	n/a	n/a	n/a	n/a
387428	WORD	wordpools/wasnorm_wordpool_less_exclusions.txt	LTP276	ltpFR	13	2	1	SHEEP	1278	n/a	1	n/a	0	0	0	1	0.412841796875	0.57763671875	upper	../fonts/amplitud.ttf
390440	START	n/a	LTP276	ltpFR	13	n/a	n/a	n/a	n/a	n/a	n/a	n/a	n/a	n/a	n/a	n/a	n/a	n/a	n/a	n/a
391360	PROB	n/a	LTP276	ltpFR	13	n/a	n/a	n/a	n/a	n/a	n/a	14	7	2	5	n/a	n/a	n/a	n/a	n/a
392849	PROB	n/a	LTP276	ltpFR	13	n/a	n/a	n/a	n/a	n/a	n/a	15	5	3	7	n/a	n/a	n/a	n/a	n/a
394271	PROB	n/a	LTP276	ltpFR	13	n/a	n/a	n/a	n/a	n/a	n/a	14	7	5	2	n/a	n/a	n/a	n/a	n/a
395557	PROB	n/a	LTP276	ltpFR	13	n/a	n/a	n/a	n/a	n/a	n/a	8	2	4	2	n/a	n/a	n/a	n/a	n/a
397287	STOP	n/a	LTP276	ltpFR	13	n/a	n/a	n/a	n/a	n/a	n/a	n/a	n/a	n/a	n/a	n/a	n/a	n/a	n/a	n/a
399440	WORD	wordpools/wasnorm_wordpool_less_exclusions.txt	LTP276	ltpFR	13	2	0	SPHINX	1349	n/a	1	n/a	0	0	0	0	0.5869140625	0.422607421875	lower	../fonts/zerothre.ttf
402452	START	n/a	LTP276	ltpFR	13	n/a	n/a	n/a	n/a	n/a	n/a	n/a	n/a	n/a	n/a	n/a	n/a	n/a	n/a	n/a
403322	PROB	n/a	LTP276	ltpFR	13	n/a	n/a	n/a	n/a	n/a	n/a	12	1	2	9	n/a	n/a	n/a	n/a	n/a
405062	PROB	n/a	LTP276	ltpFR	13	n/a	n/a	n/a	n/a	n/a	n/a	18	5	9	4	n/a	n/a	n/a	n/a	n/a
406717	PROB	n/a	LTP276	ltpFR	13	n/a	n/a	n/a	n/a	n/a	n/a	11	7	3	1	n/a	n/a	n/a	n/a	n/a
407737	PROB	n/a	LTP276	ltpFR	13	n/a	n/a	n/a	n/a	n/a	n/a	13	3	3	7	n/a	n/a	n/a	n/a	n/a
408893	PROB	n/a	LTP276	ltpFR	13	n/a	n/a	n/a	n/a	n/a	n/a	15	4	9	2	n/a	n/a	n/a	n/a	n/a
410095	STOP	n/a	LTP276	ltpFR	13	n/a	n/a	n/a	n/a	n/a	n/a	n/a	n/a	n/a	n/a	n/a	n/a	n/a	n/a	n/a
411286	WORD	wordpools/wasnorm_wordpool_less_exclusions.txt	LTP276	ltpFR	13	2	0	FUDGE	611	n/a	0	n/a	0	0	0	0	0.5869140625	0.422607421875	lower	../fonts/zerothre.ttf
414297	START	n/a	LTP276	ltpFR	13	n/a	n/a	n/a	n/a	n/a	n/a	n/a	n/a	n/a	n/a	n/a	n/a	n/a	n/a	n/a
415501	PROB	n/a	LTP276	ltpFR	13	n/a	n/a	n/a	n/a	n/a	n/a	14	4	7	3	n/a	n/a	n/a	n/a	n/a
416890	PROB	n/a	LTP276	ltpFR	13	n/a	n/a	n/a	n/a	n/a	n/a	18	3	6	9	n/a	n/a	n/a	n/a	n/a
418279	PROB	n/a	LTP276	ltpFR	13	n/a	n/a	n/a	n/a	n/a	n/a	10	4	1	5	n/a	n/a	n/a	n/a	n/a
419333	PROB	n/a	LTP276	ltpFR	13	n/a	n/a	n/a	n/a	n/a	n/a	14	5	2	7	n/a	n/a	n/a	n/a	n/a
422297	STOP	n/a	LTP276	ltpFR	13	n/a	n/a	n/a	n/a	n/a	n/a	n/a	n/a	n/a	n/a	n/a	n/a	n/a	n/a	n/a
423180	WORD	wordpools/wasnorm_wordpool_less_exclusions.txt	LTP276	ltpFR	13	2	0	BELLY	119	n/a	0	n/a	0	0	0	0	0.5869140625	0.422607421875	lower	../fonts/zerothre.ttf
426192	START	n/a	LTP276	ltpFR	13	n/a	n/a	n/a	n/a	n/a	n/a	n/a	n/a	n/a	n/a	n/a	n/a	n/a	n/a	n/a
427328	PROB	n/a	LTP276	ltpFR	13	n/a	n/a	n/a	n/a	n/a	n/a	13	2	9	2	n/a	n/a	n/a	n/a	n/a
428969	PROB	n/a	LTP276	ltpFR	13	n/a	n/a	n/a	n/a	n/a	n/a	15	7	5	3	n/a	n/a	n/a	n/a	n/a
430373	PROB	n/a	LTP276	ltpFR	13	n/a	n/a	n/a	n/a	n/a	n/a	13	6	3	4	n/a	n/a	n/a	n/a	n/a
431828	PROB	n/a	LTP276	ltpFR	13	n/a	n/a	n/a	n/a	n/a	n/a	10	1	6	3	n/a	n/a	n/a	n/a	n/a
433207	STOP	n/a	LTP276	ltpFR	13	n/a	n/a	n/a	n/a	n/a	n/a	n/a	n/a	n/a	n/a	n/a	n/a	n/a	n/a	n/a
435092	WORD	wordpools/wasnorm_wordpool_less_exclusions.txt	LTP276	ltpFR	13	2	1	YOLK	1633	n/a	0	n/a	0	0	0	1	0.412841796875	0.57763671875	upper	../fonts/amplitud.ttf
438104	START	n/a	LTP276	ltpFR	13	n/a	n/a	n/a	n/a	n/a	n/a	n/a	n/a	n/a	n/a	n/a	n/a	n/a	n/a	n/a
439207	PROB	n/a	LTP276	ltpFR	13	n/a	n/a	n/a	n/a	n/a	n/a	15	5	7	3	n/a	n/a	n/a	n/a	n/a
440528	PROB	n/a	LTP276	ltpFR	13	n/a	n/a	n/a	n/a	n/a	n/a	6	2	1	3	n/a	n/a	n/a	n/a	n/a
441532	PROB	n/a	LTP276	ltpFR	13	n/a	n/a	n/a	n/a	n/a	n/a	6	3	1	2	n/a	n/a	n/a	n/a	n/a
443022	PROB	n/a	LTP276	ltpFR	13	n/a	n/a	n/a	n/a	n/a	n/a	13	4	3	6	n/a	n/a	n/a	n/a	n/a
444460	PROB	n/a	LTP276	ltpFR	13	n/a	n/a	n/a	n/a	n/a	n/a	5	2	2	1	n/a	n/a	n/a	n/a	n/a
445199	STOP	n/a	LTP276	ltpFR	13	n/a	n/a	n/a	n/a	n/a	n/a	n/a	n/a	n/a	n/a	n/a	n/a	n/a	n/a	n/a
447271	WORD	wordpools/wasnorm_wordpool_less_exclusions.txt	LTP276	ltpFR	13	2	1	MATTRESS	879	n/a	0	n/a	0	0	0	1	0.412841796875	0.57763671875	upper	../fonts/amplitud.ttf
450283	START	n/a	LTP276	ltpFR	13	n/a	n/a	n/a	n/a	n/a	n/a	n/a	n/a	n/a	n/a	n/a	n/a	n/a	n/a	n/a
451184	PROB	n/a	LTP276	ltpFR	13	n/a	n/a	n/a	n/a	n/a	n/a	13	1	9	3	n/a	n/a	n/a	n/a	n/a
452590	PROB	n/a	LTP276	ltpFR	13	n/a	n/a	n/a	n/a	n/a	n/a	19	9	9	1	n/a	n/a	n/a	n/a	n/a
454162	PROB	n/a	LTP276	ltpFR	13	n/a	n/a	n/a	n/a	n/a	n/a	22	8	9	5	n/a	n/a	n/a	n/a	n/a
455619	PROB	n/a	LTP276	ltpFR	13	n/a	n/a	n/a	n/a	n/a	n/a	18	2	7	9	n/a	n/a	n/a	n/a	n/a
456871	STOP	n/a	LTP276	ltpFR	13	n/a	n/a	n/a	n/a	n/a	n/a	n/a	n/a	n/a	n/a	n/a	n/a	n/a	n/a	n/a
459183	WORD	wordpools/wasnorm_wordpool_less_exclusions.txt	LTP276	ltpFR	13	2	1	NIGHTGOWN	953	n/a	0	n/a	0	0	0	1	0.412841796875	0.57763671875	upper	../fonts/amplitud.ttf
462195	START	n/a	LTP276	ltpFR	13	n/a	n/a	n/a	n/a	n/a	n/a	n/a	n/a	n/a	n/a	n/a	n/a	n/a	n/a	n/a
463064	PROB	n/a	LTP276	ltpFR	13	n/a	n/a	n/a	n/a	n/a	n/a	15	3	6	6	n/a	n/a	n/a	n/a	n/a
464152	PROB	n/a	LTP276	ltpFR	13	n/a	n/a	n/a	n/a	n/a	n/a	22	9	8	5	n/a	n/a	n/a	n/a	n/a
465338	PROB	n/a	LTP276	ltpFR	13	n/a	n/a	n/a	n/a	n/a	n/a	19	8	9	2	n/a	n/a	n/a	n/a	n/a
466810	PROB	n/a	LTP276	ltpFR	13	n/a	n/a	n/a	n/a	n/a	n/a	9	4	1	4	n/a	n/a	n/a	n/a	n/a
467814	PROB	n/a	LTP276	ltpFR	13	n/a	n/a	n/a	n/a	n/a	n/a	15	7	2	6	n/a	n/a	n/a	n/a	n/a
470015	STOP	n/a	LTP276	ltpFR	13	n/a	n/a	n/a	n/a	n/a	n/a	n/a	n/a	n/a	n/a	n/a	n/a	n/a	n/a	n/a
471161	WORD	wordpools/wasnorm_wordpool_less_exclusions.txt	LTP276	ltpFR	13	2	1	OVAL	990	n/a	0	n/a	0	0	0	1	0.412841796875	0.57763671875	upper	../fonts/amplitud.ttf
474174	START	n/a	LTP276	ltpFR	13	n/a	n/a	n/a	n/a	n/a	n/a	n/a	n/a	n/a	n/a	n/a	n/a	n/a	n/a	n/a
474992	PROB	n/a	LTP276	ltpFR	13	n/a	n/a	n/a	n/a	n/a	n/a	16	5	9	2	n/a	n/a	n/a	n/a	n/a
476412	PROB	n/a	LTP276	ltpFR	13	n/a	n/a	n/a	n/a	n/a	n/a	15	4	9	3	n/a	n/a	n/a	n/a	n/a
477652	PROB	n/a	LTP276	ltpFR	13	n/a	n/a	n/a	n/a	n/a	n/a	22	8	7	7	n/a	n/a	n/a	n/a	n/a
479475	PROB	n/a	LTP276	ltpFR	13	n/a	n/a	n/a	n/a	n/a	n/a	14	3	3	8	n/a	n/a	n/a	n/a	n/a
480927	STOP	n/a	LTP276	ltpFR	13	n/a	n/a	n/a	n/a	n/a	n/a	n/a	n/a	n/a	n/a	n/a	n/a	n/a	n/a	n/a
483039	WORD	wordpools/wasnorm_wordpool_less_exclusions.txt	LTP276	ltpFR	13	2	0	VEIN	1554	n/a	0	n/a	0	0	0	0	0.5869140625	0.422607421875	lower	../fonts/zerothre.ttf
486051	START	n/a	LTP276	ltpFR	13	n/a	n/a	n/a	n/a	n/a	n/a	n/a	n/a	n/a	n/a	n/a	n/a	n/a	n/a	n/a
487121	PROB	n/a	LTP276	ltpFR	13	n/a	n/a	n/a	n/a	n/a	n/a	19	7	3	8	n/a	n/a	n/a	n/a	n/a
488928	PROB	n/a	LTP276	ltpFR	13	n/a	n/a	n/a	n/a	n/a	n/a	11	8	2	1	n/a	n/a	n/a	n/a	n/a
490181	PROB	n/a	LTP276	ltpFR	13	n/a	n/a	n/a	n/a	n/a	n/a	17	7	9	1	n/a	n/a	n/a	n/a	n/a
491437	PROB	n/a	LTP276	ltpFR	13	n/a	n/a	n/a	n/a	n/a	n/a	8	1	6	1	n/a	n/a	n/a	n/a	n/a
493015	STOP	n/a	LTP276	ltpFR	13	n/a	n/a	n/a	n/a	n/a	n/a	n/a	n/a	n/a	n/a	n/a	n/a	n/a	n/a	n/a
495118	WORD	wordpools/wasnorm_wordpool_less_exclusions.txt	LTP276	ltpFR	13	2	0	FLESH	579	n/a	0	n/a	0	0	0	0	0.5869140625	0.422607421875	lower	../fonts/zerothre.ttf
498130	START	n/a	LTP276	ltpFR	13	n/a	n/a	n/a	n/a	n/a	n/a	n/a	n/a	n/a	n/a	n/a	n/a	n/a	n/a	n/a
499301	PROB	n/a	LTP276	ltpFR	13	n/a	n/a	n/a	n/a	n/a	n/a	24	7	8	9	n/a	n/a	n/a	n/a	n/a
500603	PROB	n/a	LTP276	ltpFR	13	n/a	n/a	n/a	n/a	n/a	n/a	10	5	4	1	n/a	n/a	n/a	n/a	n/a
501660	PROB	n/a	LTP276	ltpFR	13	n/a	n/a	n/a	n/a	n/a	n/a	12	5	2	5	n/a	n/a	n/a	n/a	n/a
503282	PROB	n/a	LTP276	ltpFR	13	n/a	n/a	n/a	n/a	n/a	n/a	16	7	3	6	n/a	n/a	n/a	n/a	n/a
504385	PROB	n/a	LTP276	ltpFR	13	n/a	n/a	n/a	n/a	n/a	n/a	12	6	3	3	n/a	n/a	n/a	n/a	n/a
505751	STOP	n/a	LTP276	ltpFR	13	n/a	n/a	n/a	n/a	n/a	n/a	n/a	n/a	n/a	n/a	n/a	n/a	n/a	n/a	n/a
508051	REC_START	n/a	LTP276	ltpFR	13	2	n/a	n/a	n/a	n/a	n/a	n/a	0	0	0	n/a	n/a	n/a	n/a	n/a
508920	REC_WORD	wordpools/wasnorm_wordpool_less_exclusions.txt	LTP276	ltpFR	13	2	1	CHEEK	287	n/a	0	n/a	0	0	0	n/a	n/a	n/a	n/a	n/a
510762	REC_WORD	wordpools/wasnorm_wordpool_less_exclusions.txt	LTP276	ltpFR	13	2	1	MATTRESS	879	n/a	0	n/a	0	0	0	n/a	n/a	n/a	n/a	n/a
512657	REC_WORD	wordpools/wasnorm_wordpool_less_exclusions.txt	LTP276	ltpFR	13	2	1	NIGHTGOWN	953	n/a	0	n/a	0	0	0	n/a	n/a	n/a	n/a	n/a
513657	REC_WORD_VV	wordpools/wasnorm_wordpool_less_exclusions.txt	LTP276	ltpFR	13	2	n/a	<>	-1	n/a	n/a	n/a	0	0	0	n/a	n/a	n/a	n/a	n/a
514465	REC_WORD	wordpools/wasnorm_wordpool_less_exclusions.txt	LTP276	ltpFR	13	2	1	OVAL	990	n/a	0	n/a	0	0	0	n/a	n/a	n/a	n/a	n/a
515748	REC_WORD	wordpools/wasnorm_wordpool_less_exclusions.txt	LTP276	ltpFR	13	2	1	OCTOPUS	971	n/a	0	n/a	0	0	0	n/a	n/a	n/a	n/a	n/a
516857	REC_WORD	wordpools/wasnorm_wordpool_less_exclusions.txt	LTP276	ltpFR	13	2	1	COW	393	n/a	1	n/a	0	0	0	n/a	n/a	n/a	n/a	n/a
517603	REC_WORD	wordpools/wasnorm_wordpool_less_exclusions.txt	LTP276	ltpFR	13	2	1	SHEEP	1278	n/a	1	n/a	0	0	0	n/a	n/a	n/a	n/a	n/a
519588	REC_WORD	wordpools/wasnorm_wordpool_less_exclusions.txt	LTP276	ltpFR	13	2	0	NUN	962	n/a	0	n/a	0	0	0	n/a	n/a	n/a	n/a	n/a
520709	REC_WORD_VV	wordpools/wasnorm_wordpool_less_exclusions.txt	LTP276	ltpFR	13	2	n/a	<>	-1	n/a	n/a	n/a	0	0	0	n/a	n/a	n/a	n/a	n/a
522430	REC_WORD	wordpools/wasnorm_wordpool_less_exclusions.txt	LTP276	ltpFR	13	2	0	BELLY	119	n/a	0	n/a	0	0	0	n/a	n/a	n/a	n/a	n/a
524677	REC_WORD_VV	wordpools/wasnorm_wordpool_less_exclusions.txt	LTP276	ltpFR	13	2	n/a	<>	-1	n/a	n/a	n/a	0	0	0	n/a	n/a	n/a	n/a	n/a
551120	REC_WORD	wordpools/wasnorm_wordpool_less_exclusions.txt	LTP276	ltpFR	13	2	0	ABDOMEN	1	n/a	0	n/a	0	0	0	n/a	n/a	n/a	n/a	n/a
593657	START	n/a	LTP276	ltpFR	13	n/a	n/a	n/a	n/a	n/a	n/a	n/a	n/a	n/a	n/a	n/a	n/a	n/a	n/a	n/a
595162	PROB	n/a	LTP276	ltpFR	13	n/a	n/a	n/a	n/a	n/a	n/a	10	2	3	5	n/a	n/a	n/a	n/a	n/a
596331	PROB	n/a	LTP276	ltpFR	13	n/a	n/a	n/a	n/a	n/a	n/a	18	8	2	8	n/a	n/a	n/a	n/a	n/a
597621	PROB	n/a	LTP276	ltpFR	13	n/a	n/a	n/a	n/a	n/a	n/a	11	4	5	2	n/a	n/a	n/a	n/a	n/a
598908	PROB	n/a	LTP276	ltpFR	13	n/a	n/a	n/a	n/a	n/a	n/a	19	8	6	5	n/a	n/a	n/a	n/a	n/a
600534	STOP	n/a	LTP276	ltpFR	13	n/a	n/a	n/a	n/a	n/a	n/a	n/a	n/a	n/a	n/a	n/a	n/a	n/a	n/a	n/a
602555	WORD	wordpools/wasnorm_wordpool_less_exclusions.txt	LTP276	ltpFR	13	3	1	PENGUIN	1044	n/a	1	n/a	0	0	0	1	0.412841796875	0.57763671875	upper	../fonts/amplitud.ttf
605567	START	n/a	LTP276	ltpFR	13	n/a	n/a	n/a	n/a	n/a	n/a	n/a	n/a	n/a	n/a	n/a	n/a	n/a	n/a	n/a
606403	PROB	n/a	LTP276	ltpFR	13	n/a	n/a	n/a	n/a	n/a	n/a	18	9	3	6	n/a	n/a	n/a	n/a	n/a
607741	PROB	n/a	LTP276	ltpFR	13	n/a	n/a	n/a	n/a	n/a	n/a	14	8	2	4	n/a	n/a	n/a	n/a	n/a
608763	PROB	n/a	LTP276	ltpFR	13	n/a	n/a	n/a	n/a	n/a	n/a	15	4	6	5	n/a	n/a	n/a	n/a	n/a
610102	PROB	n/a	LTP276	ltpFR	13	n/a	n/a	n/a	n/a	n/a	n/a	9	6	1	2	n/a	n/a	n/a	n/a	n/a
612009	PROB	n/a	LTP276	ltpFR	13	n/a	n/a	n/a	n/a	n/a	n/a	14	1	6	7	n/a	n/a	n/a	n/a	n/a
612999	STOP	n/a	LTP276	ltpFR	13	n/a	n/a	n/a	n/a	n/a	n/a	n/a	n/a	n/a	n/a	n/a	n/a	n/a	n/a	n/a
614450	WORD	wordpools/wasnorm_wordpool_less_exclusions.txt	LTP276	ltpFR	13	3	1	MOUSE	925	n/a	1	n/a	0	0	0	1	0.412841796875	0.57763671875	upper	../fonts/amplitud.ttf
617462	START	n/a	LTP276	ltpFR	13	n/a	n/a	n/a	n/a	n/a	n/a	n/a	n/a	n/a	n/a	n/a	n/a	n/a	n/a	n/a
618414	PROB	n/a	LTP276	ltpFR	13	n/a	n/a	n/a	n/a	n/a	n/a	11	2	6	3	n/a	n/a	n/a	n/a	n/a
620406	PROB	n/a	LTP276	ltpFR	13	n/a	n/a	n/a	n/a	n/a	n/a	17	5	7	5	n/a	n/a	n/a	n/a	n/a
621978	PROB	n/a	LTP276	ltpFR	13	n/a	n/a	n/a	n/a	n/a	n/a	15	3	3	9	n/a	n/a	n/a	n/a	n/a
623350	PROB	n/a	LTP276	ltpFR	13	n/a	n/a	n/a	n/a	n/a	n/a	8	1	2	5	n/a	n/a	n/a	n/a	n/a
625223	STOP	n/a	LTP276	ltpFR	13	n/a	n/a	n/a	n/a	n/a	n/a	n/a	n/a	n/a	n/a	n/a	n/a	n/a	n/a	n/a
626462	WORD	wordpools/wasnorm_wordpool_less_exclusions.txt	LTP276	ltpFR	13	3	1	FISH	571	n/a	1	n/a	0	0	0	1	0.412841796875	0.57763671875	upper	../fonts/amplitud.ttf
629474	START	n/a	LTP276	ltpFR	13	n/a	n/a	n/a	n/a	n/a	n/a	n/a	n/a	n/a	n/a	n/a	n/a	n/a	n/a	n/a
630360	PROB	n/a	LTP276	ltpFR	13	n/a	n/a	n/a	n/a	n/a	n/a	12	5	5	2	n/a	n/a	n/a	n/a	n/a
631315	PROB	n/a	LTP276	ltpFR	13	n/a	n/a	n/a	n/a	n/a	n/a	17	3	9	5	n/a	n/a	n/a	n/a	n/a
632854	PROB	n/a	LTP276	ltpFR	13	n/a	n/a	n/a	n/a	n/a	n/a	13	7	2	4	n/a	n/a	n/a	n/a	n/a
634895	PROB	n/a	LTP276	ltpFR	13	n/a	n/a	n/a	n/a	n/a	n/a	14	5	5	4	n/a	n/a	n/a	n/a	n/a
637474	STOP	n/a	LTP276	ltpFR	13	n/a	n/a	n/a	n/a	n/a	n/a	n/a	n/a	n/a	n/a	n/a	n/a	n/a	n/a	n/a
638642	WORD	wordpools/wasnorm_wordpool_less_exclusions.txt	LTP276	ltpFR	13	3	1	WAVE	1596	n/a	0	n/a	0	0	0	1	0.412841796875	0.57763671875	upper	../fonts/amplitud.ttf
641655	START	n/a	LTP276	ltpFR	13	n/a	n/a	n/a	n/a	n/a	n/a	n/a	n/a	n/a	n/a	n/a	n/a	n/a	n/a	n/a
642523	PROB	n/a	LTP276	ltpFR	13	n/a	n/a	n/a	n/a	n/a	n/a	21	9	9	3	n/a	n/a	n/a	n/a	n/a
644596	PROB	n/a	LTP276	ltpFR	13	n/a	n/a	n/a	n/a	n/a	n/a	18	4	5	9	n/a	n/a	n/a	n/a	n/a
646121	PROB	n/a	LTP276	ltpFR	13	n/a	n/a	n/a	n/a	n/a	n/a	15	6	8	1	n/a	n/a	n/a	n/a	n/a
647108	PROB	n/a	LTP276	ltpFR	13	n/a	n/a	n/a	n/a	n/a	n/a	17	9	6	2	n/a	n/a	n/a	n/a	n/a
648526	STOP	n/a	LTP276	ltpFR	13	n/a	n/a	n/a	n/a	n/a	n/a	n/a	n/a	n/a	n/a	n/a	n/a	n/a	n/a	n/a
650536	WORD	wordpools/wasnorm_wordpool_less_exclusions.txt	LTP276	ltpFR	13	3	1	FARMER	553	n/a	1	n/a	0	0	0	1	0.412841796875	0.57763671875	upper	../fonts/amplitud.ttf
653548	START	n/a	LTP276	ltpFR	13	n/a	n/a	n/a	n/a	n/a	n/a	n/a	n/a	n/a	n/a	n/a	n/a	n/a	n/a	n/a
654686	PROB	n/a	LTP276	ltpFR	13	n/a	n/a	n/a	n/a	n/a	n/a	17	2	8	7	n/a	n/a	n/a	n/a	n/a
655958	PROB	n/a	LTP276	ltpFR	13	n/a	n/a	n/a	n/a	n/a	n/a	20	5	6	9	n/a	n/a	n/a	n/a	n/a
658148	PROB	n/a	LTP276	ltpFR	13	n/a	n/a	n/a	n/a	n/a	n/a	13	6	4	3	n/a	n/a	n/a	n/a	n/a
659304	PROB	n/a	LTP276	ltpFR	13	n/a	n/a	n/a	n/a	n/a	n/a	11	2	2	7	n/a	n/a	n/a	n/a	n/a
660295	STOP	n/a	LTP276	ltpFR	13	n/a	n/a	n/a	n/a	n/a	n/a	n/a	n/a	n/a	n/a	n/a	n/a	n/a	n/a	n/a
662448	WORD	wordpools/wasnorm_wordpool_less_exclusions.txt	LTP276	ltpFR	13	3	1	BULL	193	n/a	1	n/a	0	0	0	1	0.412841796875	0.57763671875	upper	../fonts/amplitud.ttf
665460	START	n/a	LTP276	ltpFR	13	n/a	n/a	n/a	n/a	n/a	n/a	n/a	n/a	n/a	n/a	n/a	n/a	n/a	n/a	n/a
666363	PROB	n/a	LTP276	ltpFR	13	n/a	n/a	n/a	n/a	n/a	n/a	15	3	7	5	n/a	n/a	n/a	n/a	n/a
667549	PROB	n/a	LTP276	ltpFR	13	n/a	n/a	n/a	n/a	n/a	n/a	14	5	5	4	n/a	n/a	n/a	n/a	n/a
668639	PROB	n/a	LTP276	ltpFR	13	n/a	n/a	n/a	n/a	n/a	n/a	15	6	2	7	n/a	n/a	n/a	n/a	n/a
670277	PROB	n/a	LTP276	ltpFR	13	n/a	n/a	n/a	n/a	n/a	n/a	17	5	3	9	n/a	n/a	n/a	n/a	n/a
673446	STOP	n/a	LTP276	ltpFR	13	n/a	n/a	n/a	n/a	n/a	n/a	n/a	n/a	n/a	n/a	n/a	n/a	n/a	n/a	n/a
674594	WORD	wordpools/wasnorm_wordpool_less_exclusions.txt	LTP276	ltpFR	13	3	1	MICROWAVE	892	n/a	0	n/a	0	0	0	1	0.412841796875	0.57763671875	upper	../fonts/amplitud.ttf
677607	START	n/a	LTP276	ltpFR	13	n/a	n/a	n/a	n/a	n/a	n/a	n/a	n/a	n/a	n/a	n/a	n/a	n/a	n/a	n/a
678475	PROB	n/a	LTP276	ltpFR	13	n/a	n/a	n/a	n/a	n/a	n/a	6	1	2	3	n/a	n/a	n/a	n/a	n/a
679362	PROB	n/a	LTP276	ltpFR	13	n/a	n/a	n/a	n/a	n/a	n/a	14	3	4	7	n/a	n/a	n/a	n/a	n/a
680581	PROB	n/a	LTP276	ltpFR	13	n/a	n/a	n/a	n/a	n/a	n/a	19	5	6	8	n/a	n/a	n/a	n/a	n/a
682157	PROB	n/a	LTP276	ltpFR	13	n/a	n/a	n/a	n/a	n/a	n/a	11	5	2	4	n/a	n/a	n/a	n/a	n/a
683811	PROB	n/a	LTP276	ltpFR	13	n/a	n/a	n/a	n/a	n/a	n/a	13	4	6	3	n/a	n/a	n/a	n/a	n/a
684903	STOP	n/a	LTP276	ltpFR	13	n/a	n/a	n/a	n/a	n/a	n/a	n/a	n/a	n/a	n/a	n/a	n/a	n/a	n/a	n/a
686791	WORD	wordpools/wasnorm_wordpool_less_exclusions.txt	LTP276	ltpFR	13	3	1	MUSTARD	935	n/a	0	n/a	0	0	0	1	0.412841796875	0.57763671875	upper	../fonts/amplitud.ttf
689803	START	n/a	LTP276	ltpFR	13	n/a	n/a	n/a	n/a	n/a	n/a	n/a	n/a	n/a	n/a	n/a	n/a	n/a	n/a	n/a
690689	PROB	n/a	LTP276	ltpFR	13	n/a	n/a	n/a	n/a	n/a	n/a	16	5	3	8	n/a	n/a	n/a	n/a	n/a
692576	PROB	n/a	LTP276	ltpFR	13	n/a	n/a	n/a	n/a	n/a	n/a	9	2	3	4	n/a	n/a	n/a	n/a	n/a
694685	PROB	n/a	LTP276	ltpFR	13	n/a	n/a	n/a	n/a	n/a	n/a	10	8	1	1	n/a	n/a	n/a	n/a	n/a
695691	PROB	n/a	LTP276	ltpFR	13	n/a	n/a	n/a	n/a	n/a	n/a	20	6	9	5	n/a	n/a	n/a	n/a	n/a
697271	STOP	n/a	LTP276	ltpFR	13	n/a	n/a	n/a	n/a	n/a	n/a	n/a	n/a	n/a	n/a	n/a	n/a	n/a	n/a	n/a
699003	WORD	wordpools/wasnorm_wordpool_less_exclusions.txt	LTP276	ltpFR	13	3	1	NOTEBOOK	959	n/a	0	n/a	0	0	0	1	0.412841796875	0.57763671875	upper	../fonts/amplitud.ttf
702015	START	n/a	LTP276	ltpFR	13	n/a	n/a	n/a	n/a	n/a	n/a	n/a	n/a	n/a	n/a	n/a	n/a	n/a	n/a	n/a
703169	PROB	n/a	LTP276	ltpFR	13	n/a	n/a	n/a	n/a	n/a	n/a	11	5	3	3	n/a	n/a	n/a	n/a	n/a
705143	PROB	n/a	LTP276	ltpFR	13	n/a	n/a	n/a	n/a	n/a	n/a	18	7	4	7	n/a	n/a	n/a	n/a	n/a
710014	STOP	n/a	LTP276	ltpFR	13	n/a	n/a	n/a	n/a	n/a	n/a	n/a	n/a	n/a	n/a	n/a	n/a	n/a	n/a	n/a
711032	WORD	wordpools/wasnorm_wordpool_less_exclusions.txt	LTP276	ltpFR	13	3	1	STUMP	1396	n/a	0	n/a	0	0	0	1	0.412841796875	0.57763671875	upper	../fonts/amplitud.ttf
714044	START	n/a	LTP276	ltpFR	13	n/a	n/a	n/a	n/a	n/a	n/a	n/a	n/a	n/a	n/a	n/a	n/a	n/a	n/a	n/a
715064	PROB	n/a	LTP276	ltpFR	13	n/a	n/a	n/a	n/a	n/a	n/a	21	8	6	7	n/a	n/a	n/a	n/a	n/a
717388	PROB	n/a	LTP276	ltpFR	13	n/a	n/a	n/a	n/a	n/a	n/a	24	7	9	8	n/a	n/a	n/a	n/a	n/a
718709	PROB	n/a	LTP276	ltpFR	13	n/a	n/a	n/a	n/a	n/a	n/a	19	6	8	5	n/a	n/a	n/a	n/a	n/a
720416	PROB	n/a	LTP276	ltpFR	13	n/a	n/a	n/a	n/a	n/a	n/a	6	2	1	3	n/a	n/a	n/a	n/a	n/a
721151	STOP	n/a	LTP276	ltpFR	13	n/a	n/a	n/a	n/a	n/a	n/a	n/a	n/a	n/a	n/a	n/a	n/a	n/a	n/a	n/a
723161	WORD	wordpools/wasnorm_wordpool_less_exclusions.txt	LTP276	ltpFR	13	3	1	LEAF	808	n/a	0	n/a	0	0	0	1	0.412841796875	0.57763671875	upper	../fonts/amplitud.ttf
726173	START	n/a	LTP276	ltpFR	13	n/a	n/a	n/a	n/a	n/a	n/a	n/a	n/a	n/a	n/a	n/a	n/a	n/a	n/a	n/a
727376	PROB	n/a	LTP276	ltpFR	13	n/a	n/a	n/a	n/a	n/a	n/a	17	6	9	2	n/a	n/a	n/a	n/a	n/a
728732	PROB	n/a	LTP276	ltpFR	13	n/a	n/a	n/a	n/a	n/a	n/a	11	5	5	1	n/a	n/a	n/a	n/a	n/a
729667	PROB	n/a	LTP276	ltpFR	13	n/a	n/a	n/a	n/a	n/a	n/a	12	9	1	2	n/a	n/a	n/a	n/a	n/a
730639	PROB	n/a	LTP276	ltpFR	13	n/a	n/a	n/a	n/a	n/a	n/a	12	8	1	3	n/a	n/a	n/a	n/a	n/a
734173	STOP	n/a	LTP276	ltpFR	13	n/a	n/a	n/a	n/a	n/a	n/a	n/a	n/a	n/a	n/a	n/a	n/a	n/a	n/a	n/a
735389	WORD	wordpools/wasnorm_wordpool_less_exclusions.txt	LTP276	ltpFR	13	3	1	COLONEL	348	n/a	0	n/a	0	0	0	1	0.412841796875	0.57763671875	upper	../fonts/amplitud.ttf
738401	START	n/a	LTP276	ltpFR	13	n/a	n/a	n/a	n/a	n/a	n/a	n/a	n/a	n/a	n/a	n/a	n/a	n/a	n/a	n/a
739421	PROB	n/a	LTP276	ltpFR	13	n/a	n/a	n/a	n/a	n/a	n/a	16	6	5	5	n/a	n/a	n/a	n/a	n/a
740542	PROB	n/a	LTP276	ltpFR	13	n/a	n/a	n/a	n/a	n/a	n/a	9	2	2	5	n/a	n/a	n/a	n/a	n/a
741848	PROB	n/a	LTP276	ltpFR	13	n/a	n/a	n/a	n/a	n/a	n/a	21	5	7	9	n/a	n/a	n/a	n/a	n/a
743772	PROB	n/a	LTP276	ltpFR	13	n/a	n/a	n/a	n/a	n/a	n/a	16	5	4	7	n/a	n/a	n/a	n/a	n/a
744893	PROB	n/a	LTP276	ltpFR	13	n/a	n/a	n/a	n/a	n/a	n/a	5	1	2	2	n/a	n/a	n/a	n/a	n/a
745542	STOP	n/a	LTP276	ltpFR	13	n/a	n/a	n/a	n/a	n/a	n/a	n/a	n/a	n/a	n/a	n/a	n/a	n/a	n/a	n/a
747302	WORD	wordpools/wasnorm_wordpool_less_exclusions.txt	LTP276	ltpFR	13	3	1	RUBY	1214	n/a	0	n/a	0	0	0	1	0.412841796875	0.57763671875	upper	../fonts/amplitud.ttf
750314	START	n/a	LTP276	ltpFR	13	n/a	n/a	n/a	n/a	n/a	n/a	n/a	n/a	n/a	n/a	n/a	n/a	n/a	n/a	n/a
751500	PROB	n/a	LTP276	ltpFR	13	n/a	n/a	n/a	n/a	n/a	n/a	18	9	7	2	n/a	n/a	n/a	n/a	n/a
752773	PROB	n/a	LTP276	ltpFR	13	n/a	n/a	n/a	n/a	n/a	n/a	10	6	1	3	n/a	n/a	n/a	n/a	n/a
754277	PROB	n/a	LTP276	ltpFR	13	n/a	n/a	n/a	n/a	n/a	n/a	5	2	2	1	n/a	n/a	n/a	n/a	n/a
755065	PROB	n/a	LTP276	ltpFR	13	n/a	n/a	n/a	n/a	n/a	n/a	13	7	1	5	n/a	n/a	n/a	n/a	n/a
757103	STOP	n/a	LTP276	ltpFR	13	n/a	n/a	n/a	n/a	n/a	n/a	n/a	n/a	n/a	n/a	n/a	n/a	n/a	n/a	n/a
759163	WORD	wordpools/wasnorm_wordpool_less_exclusions.txt	LTP276	ltpFR	13	3	1	NEWSSTAND	949	n/a	0	n/a	0	0	0	1	0.412841796875	0.57763671875	upper	../fonts/amplitud.ttf
762176	START	n/a	LTP276	ltpFR	13	n/a	n/a	n/a	n/a	n/a	n/a	n/a	n/a	n/a	n/a	n/a	n/a	n/a	n/a	n/a
763296	PROB	n/a	LTP276	ltpFR	13	n/a	n/a	n/a	n/a	n/a	n/a	17	8	8	1	n/a	n/a	n/a	n/a	n/a
764447	PROB	n/a	LTP276	ltpFR	13	n/a	n/a	n/a	n/a	n/a	n/a	19	9	5	6	n/a	n/a	n/a	n/a	n/a
766207	PROB	n/a	LTP276	ltpFR	13	n/a	n/a	n/a	n/a	n/a	n/a	11	2	6	3	n/a	n/a	n/a	n/a	n/a
767863	PROB	n/a	LTP276	ltpFR	13	n/a	n/a	n/a	n/a	n/a	n/a	20	9	8	3	n/a	n/a	n/a	n/a	n/a
769127	STOP	n/a	LTP276	ltpFR	13	n/a	n/a	n/a	n/a	n/a	n/a	n/a	n/a	n/a	n/a	n/a	n/a	n/a	n/a	n/a
771292	WORD	wordpools/wasnorm_wordpool_less_exclusions.txt	LTP276	ltpFR	13	3	1	CHIEF	298	n/a	1	n/a	0	0	0	1	0.412841796875	0.57763671875	upper	../fonts/amplitud.ttf
774304	START	n/a	LTP276	ltpFR	13	n/a	n/a	n/a	n/a	n/a	n/a	n/a	n/a	n/a	n/a	n/a	n/a	n/a	n/a	n/a
775140	PROB	n/a	LTP276	ltpFR	13	n/a	n/a	n/a	n/a	n/a	n/a	20	5	8	7	n/a	n/a	n/a	n/a	n/a
776392	PROB	n/a	LTP276	ltpFR	13	n/a	n/a	n/a	n/a	n/a	n/a	17	2	9	6	n/a	n/a	n/a	n/a	n/a
777733	PROB	n/a	LTP276	ltpFR	13	n/a	n/a	n/a	n/a	n/a	n/a	12	1	3	8	n/a	n/a	n/a	n/a	n/a
779306	PROB	n/a	LTP276	ltpFR	13	n/a	n/a	n/a	n/a	n/a	n/a	21	9	8	4	n/a	n/a	n/a	n/a	n/a
780575	PROB	n/a	LTP276	ltpFR	13	n/a	n/a	n/a	n/a	n/a	n/a	15	7	1	7	n/a	n/a	n/a	n/a	n/a
781623	STOP	n/a	LTP276	ltpFR	13	n/a	n/a	n/a	n/a	n/a	n/a	n/a	n/a	n/a	n/a	n/a	n/a	n/a	n/a	n/a
783452	WORD	wordpools/wasnorm_wordpool_less_exclusions.txt	LTP276	ltpFR	13	3	1	FEAST	556	n/a	0	n/a	0	0	0	1	0.412841796875	0.57763671875	upper	../fonts/amplitud.ttf
786466	START	n/a	LTP276	ltpFR	13	n/a	n/a	n/a	n/a	n/a	n/a	n/a	n/a	n/a	n/a	n/a	n/a	n/a	n/a	n/a
787586	PROB	n/a	LTP276	ltpFR	13	n/a	n/a	n/a	n/a	n/a	n/a	22	6	7	9	n/a	n/a	n/a	n/a	n/a
789762	PROB	n/a	LTP276	ltpFR	13	n/a	n/a	n/a	n/a	n/a	n/a	16	8	2	6	n/a	n/a	n/a	n/a	n/a
790948	PROB	n/a	LTP276	ltpFR	13	n/a	n/a	n/a	n/a	n/a	n/a	14	3	5	6	n/a	n/a	n/a	n/a	n/a
792205	PROB	n/a	LTP276	ltpFR	13	n/a	n/a	n/a	n/a	n/a	n/a	17	6	6	5	n/a	n/a	n/a	n/a	n/a
793879	STOP	n/a	LTP276	ltpFR	13	n/a	n/a	n/a	n/a	n/a	n/a	n/a	n/a	n/a	n/a	n/a	n/a	n/a	n/a	n/a
796237	REC_START	n/a	LTP276	ltpFR	13	3	n/a	n/a	n/a	n/a	n/a	n/a	0	0	0	n/a	n/a	n/a	n/a	n/a
797306	REC_WORD	wordpools/wasnorm_wordpool_less_exclusions.txt	LTP276	ltpFR	13	3	1	FEAST	556	n/a	0	n/a	0	0	0	n/a	n/a	n/a	n/a	n/a
797887	REC_WORD	wordpools/wasnorm_wordpool_less_exclusions.txt	LTP276	ltpFR	13	3	1	COLONEL	348	n/a	0	n/a	0	0	0	n/a	n/a	n/a	n/a	n/a
802084	REC_WORD_VV	wordpools/wasnorm_wordpool_less_exclusions.txt	LTP276	ltpFR	13	3	n/a	<>	-1	n/a	n/a	n/a	0	0	0	n/a	n/a	n/a	n/a	n/a
804069	REC_WORD	wordpools/wasnorm_wordpool_less_exclusions.txt	LTP276	ltpFR	13	3	1	LEAF	808	n/a	0	n/a	0	0	0	n/a	n/a	n/a	n/a	n/a
805748	REC_WORD	wordpools/wasnorm_wordpool_less_exclusions.txt	LTP276	ltpFR	13	3	1	MOUSE	925	n/a	1	n/a	0	0	0	n/a	n/a	n/a	n/a	n/a
806323	REC_WORD	wordpools/wasnorm_wordpool_less_exclusions.txt	LTP276	ltpFR	13	3	1	BULL	193	n/a	1	n/a	0	0	0	n/a	n/a	n/a	n/a	n/a
806791	REC_WORD	wordpools/wasnorm_wordpool_less_exclusions.txt	LTP276	ltpFR	13	3	1	FISH	571	n/a	1	n/a	0	0	0	n/a	n/a	n/a	n/a	n/a
815874	REC_WORD	wordpools/wasnorm_wordpool_less_exclusions.txt	LTP276	ltpFR	13	3	1	NEWSSTAND	949	n/a	0	n/a	0	0	0	n/a	n/a	n/a	n/a	n/a
876455	WORD	wordpools/wasnorm_wordpool_less_exclusions.txt	LTP276	ltpFR	13	4	1	LABEL	790	n/a	0	n/a	0	0	0	1	0.412841796875	0.57763671875	upper	../fonts/amplitud.ttf
880386	WORD	wordpools/wasnorm_wordpool_less_exclusions.txt	LTP276	ltpFR	13	4	1	MARSH	874	n/a	0	n/a	0	0	0	1	0.412841796875	0.57763671875	upper	../fonts/amplitud.ttf
884335	WORD	wordpools/wasnorm_wordpool_less_exclusions.txt	LTP276	ltpFR	13	4	1	WAREHOUSE	1588	n/a	0	n/a	0	0	0	1	0.412841796875	0.57763671875	upper	../fonts/amplitud.ttf
888267	WORD	wordpools/wasnorm_wordpool_less_exclusions.txt	LTP276	ltpFR	13	4	0	SCRIBBLE	1256	n/a	0	n/a	0	0	0	0	0.5869140625	0.422607421875	lower	../fonts/zerothre.ttf
892398	WORD	wordpools/wasnorm_wordpool_less_exclusions.txt	LTP276	ltpFR	13	4	0	TUBA	1515	n/a	1	n/a	0	0	0	0	0.5869140625	0.422607421875	lower	../fonts/zerothre.ttf
896580	WORD	wordpools/wasnorm_wordpool_less_exclusions.txt	LTP276	ltpFR	13	4	0	PAINTER	1004	n/a	1	n/a	0	0	0	0	0.5869140625	0.422607421875	lower	../fonts/zerothre.ttf
900797	WORD	wordpools/wasnorm_wordpool_less_exclusions.txt	LTP276	ltpFR	13	4	0	MEAT	883	n/a	0	n/a	0	0	0	0	0.5869140625	0.422607421875	lower	../fonts/zerothre.ttf
904645	WORD	wordpools/wasnorm_wordpool_less_exclusions.txt	LTP276	ltpFR	13	4	1	SHOELACE	1289	n/a	0	n/a	0	0	0	1	0.412841796875	0.57763671875	upper	../fonts/amplitud.ttf
908828	WORD	wordpools/wasnorm_wordpool_less_exclusions.txt	LTP276	ltpFR	13	4	1	WATERFALL	1595	n/a	0	n/a	0	0	0	1	0.412841796875	0.57763671875	upper	../fonts/amplitud.ttf
912910	WORD	wordpools/wasnorm_wordpool_less_exclusions.txt	LTP276	ltpFR	13	4	1	OWNER	993	n/a	1	n/a	0	0	0	1	0.412841796875	0.57763671875	upper	../fonts/amplitud.ttf
917008	WORD	wordpools/wasnorm_wordpool_less_exclusions.txt	LTP276	ltpFR	13	4	0	BANK	83	n/a	1	n/a	0	0	0	0	0.5869140625	0.422607421875	lower	../fonts/zerothre.ttf
920990	WORD	wordpools/wasnorm_wordpool_less_exclusions.txt	LTP276	ltpFR	13	4	0	BEAST	108	n/a	1	n/a	0	0	0	0	0.5869140625	0.422607421875	lower	../fonts/zerothre.ttf
925172	WORD	wordpools/wasnorm_wordpool_less_exclusions.txt	LTP276	ltpFR	13	4	0	BEAVER	109	n/a	1	n/a	0	0	0	0	0.5869140625	0.422607421875	lower	../fonts/zerothre.ttf
929054	WORD	wordpools/wasnorm_wordpool_less_exclusions.txt	LTP276	ltpFR	13	4	0	DRUM	502	n/a	1	n/a	0	0	0	0	0.5869140625	0.422607421875	lower	../fonts/zerothre.ttf
932935	WORD	wordpools/wasnorm_wordpool_less_exclusions.txt	LTP276	ltpFR	13	4	1	SERPENT	1270	n/a	0	n/a	0	0	0	1	0.412841796875	0.57763671875	upper	../fonts/amplitud.ttf
936967	WORD	wordpools/wasnorm_wordpool_less_exclusions.txt	LTP276	ltpFR	13	4	1	WORM	1623	n/a	1	n/a	0	0	0	1	0.412841796875	0.57763671875	upper	../fonts/amplitud.ttf
942773	REC_START	n/a	LTP276	ltpFR	13	4	n/a	n/a	n/a	n/a	n/a	n/a	0	0	0	n/a	n/a	n/a	n/a	n/a
943397	REC_WORD	wordpools/wasnorm_wordpool_less_exclusions.txt	LTP276	ltpFR	13	4	1	WORM	1623	n/a	1	n/a	0	0	0	n/a	n/a	n/a	n/a	n/a
943816	REC_WORD	wordpools/wasnorm_wordpool_less_exclusions.txt	LTP276	ltpFR	13	4	1	SERPENT	1270	n/a	0	n/a	0	0	0	n/a	n/a	n/a	n/a	n/a
945988	REC_WORD	wordpools/wasnorm_wordpool_less_exclusions.txt	LTP276	ltpFR	13	4	1	WAREHOUSE	1588	n/a	0	n/a	0	0	0	n/a	n/a	n/a	n/a	n/a
946888	REC_WORD	wordpools/wasnorm_wordpool_less_exclusions.txt	LTP276	ltpFR	13	4	1	SHOELACE	1289	n/a	0	n/a	0	0	0	n/a	n/a	n/a	n/a	n/a
947493	REC_WORD	wordpools/wasnorm_wordpool_less_exclusions.txt	LTP276	ltpFR	13	4	1	WATERFALL	1595	n/a	0	n/a	0	0	0	n/a	n/a	n/a	n/a	n/a
950291	REC_WORD_VV	wordpools/wasnorm_wordpool_less_exclusions.txt	LTP276	ltpFR	13	4	n/a	<>	-1	n/a	n/a	n/a	0	0	0	n/a	n/a	n/a	n/a	n/a
974433	REC_WORD	wordpools/wasnorm_wordpool_less_exclusions.txt	LTP276	ltpFR	13	4	0	SCRIBBLE	1256	n/a	0	n/a	0	0	0	n/a	n/a	n/a	n/a	n/a
976674	REC_WORD	wordpools/wasnorm_wordpool_less_exclusions.txt	LTP276	ltpFR	13	4	1	MARSH	874	n/a	0	n/a	0	0	0	n/a	n/a	n/a	n/a	n/a
984063	REC_WORD	wordpools/wasnorm_wordpool_less_exclusions.txt	LTP276	ltpFR	13	4	1	OWNER	993	n/a	1	n/a	0	0	0	n/a	n/a	n/a	n/a	n/a
1022589	WORD	wordpools/wasnorm_wordpool_less_exclusions.txt	LTP276	ltpFR	13	5	0	CAFE	216	n/a	1	n/a	0	0	0	0	0.5869140625	0.422607421875	lower	../fonts/zerothre.ttf
1026604	WORD	wordpools/wasnorm_wordpool_less_exclusions.txt	LTP276	ltpFR	13	5	0	BANJO	82	n/a	1	n/a	0	0	0	0	0.5869140625	0.422607421875	lower	../fonts/zerothre.ttf
1030637	WORD	wordpools/wasnorm_wordpool_less_exclusions.txt	LTP276	ltpFR	13	5	0	FIDDLE	561	n/a	0	n/a	0	0	0	0	0.5869140625	0.422607421875	lower	../fonts/zerothre.ttf
1034534	WORD	wordpools/wasnorm_wordpool_less_exclusions.txt	LTP276	ltpFR	13	5	0	MARINE	869	n/a	1	n/a	0	0	0	0	0.5869140625	0.422607421875	lower	../fonts/zerothre.ttf
1038381	WORD	wordpools/wasnorm_wordpool_less_exclusions.txt	LTP276	ltpFR	13	5	0	TANK	1432	n/a	1	n/a	0	0	0	0	0.5869140625	0.422607421875	lower	../fonts/zerothre.ttf
1042346	WORD	wordpools/wasnorm_wordpool_less_exclusions.txt	LTP276	ltpFR	13	5	0	SUBWAY	1400	n/a	1	n/a	0	0	0	0	0.5869140625	0.422607421875	lower	../fonts/zerothre.ttf
1046195	WORD	wordpools/wasnorm_wordpool_less_exclusions.txt	LTP276	ltpFR	13	5	0	TREAD	1499	n/a	0	n/a	0	0	0	0	0.5869140625	0.422607421875	lower	../fonts/zerothre.ttf
1050244	WORD	wordpools/wasnorm_wordpool_less_exclusions.txt	LTP276	ltpFR	13	5	0	COCOON	339	n/a	0	n/a	0	0	0	0	0.5869140625	0.422607421875	lower	../fonts/zerothre.ttf
1054375	WORD	wordpools/wasnorm_wordpool_less_exclusions.txt	LTP276	ltpFR	13	5	0	LIST	830	n/a	0	n/a	0	0	0	0	0.5869140625	0.422607421875	lower	../fonts/zerothre.ttf
1058340	WORD	wordpools/wasnorm_wordpool_less_exclusions.txt	LTP276	ltpFR	13	5	0	SIGNATURE	1306	n/a	0	n/a	0	0	0	0	0.5869140625	0.422607421875	lower	../fonts/zerothre.ttf
1062239	WORD	wordpools/wasnorm_wordpool_less_exclusions.txt	LTP276	ltpFR	13	5	0	CANAL	226	n/a	1	n/a	0	0	0	0	0.5869140625	0.422607421875	lower	../fonts/zerothre.ttf
1066321	WORD	wordpools/wasnorm_wordpool_less_exclusions.txt	LTP276	ltpFR	13	5	0	SLEIGH	1325	n/a	1	n/a	0	0	0	0	0.5869140625	0.422607421875	lower	../fonts/zerothre.ttf
1070452	WORD	wordpools/wasnorm_wordpool_less_exclusions.txt	LTP276	ltpFR	13	5	0	SPIDER	1351	n/a	0	n/a	0	0	0	0	0.5869140625	0.422607421875	lower	../fonts/zerothre.ttf
1074501	WORD	wordpools/wasnorm_wordpool_less_exclusions.txt	LTP276	ltpFR	13	5	0	DIAL	457	n/a	0	n/a	0	0	0	0	0.5869140625	0.422607421875	lower	../fonts/zerothre.ttf
1078316	WORD	wordpools/wasnorm_wordpool_less_exclusions.txt	LTP276	ltpFR	13	5	0	COCKTAIL	338	n/a	0	n/a	0	0	0	0	0.5869140625	0.422607421875	lower	../fonts/zerothre.ttf
1082414	WORD	wordpools/wasnorm_wordpool_less_exclusions.txt	LTP276	ltpFR	13	5	0	SPARROW	1347	n/a	0	n/a	0	0	0	0	0.5869140625	0.422607421875	lower	../fonts/zerothre.ttf
1085426	START	n/a	LTP276	ltpFR	13	n/a	n/a	n/a	n/a	n/a	n/a	n/a	n/a	n/a	n/a	n/a	n/a	n/a	n/a	n/a
1086446	PROB	n/a	LTP276	ltpFR	13	n/a	n/a	n/a	n/a	n/a	n/a	23	7	8	8	n/a	n/a	n/a	n/a	n/a
1088554	PROB	n/a	LTP276	ltpFR	13	n/a	n/a	n/a	n/a	n/a	n/a	16	8	4	4	n/a	n/a	n/a	n/a	n/a
1089860	PROB	n/a	LTP276	ltpFR	13	n/a	n/a	n/a	n/a	n/a	n/a	23	9	6	8	n/a	n/a	n/a	n/a	n/a
1092055	STOP	n/a	LTP276	ltpFR	13	n/a	n/a	n/a	n/a	n/a	n/a	n/a	n/a	n/a	n/a	n/a	n/a	n/a	n/a	n/a
1095214	REC_START	n/a	LTP276	ltpFR	13	5	n/a	n/a	n/a	n/a	n/a	n/a	0	0	0	n/a	n/a	n/a	n/a	n/a
1096258	REC_WORD	wordpools/wasnorm_wordpool_less_exclusions.txt	LTP276	ltpFR	13	5	0	SIGNATURE	1306	n/a	0	n/a	0	0	0	n/a	n/a	n/a	n/a	n/a
1097767	REC_WORD	wordpools/wasnorm_wordpool_less_exclusions.txt	LTP276	ltpFR	13	5	0	SPARROW	1347	n/a	0	n/a	0	0	0	n/a	n/a	n/a	n/a	n/a
1100087	REC_WORD	wordpools/wasnorm_wordpool_less_exclusions.txt	LTP276	ltpFR	13	5	0	SPIDER	1351	n/a	0	n/a	0	0	0	n/a	n/a	n/a	n/a	n/a
1100922	REC_WORD	wordpools/wasnorm_wordpool_less_exclusions.txt	LTP276	ltpFR	13	5	0	COCOON	339	n/a	0	n/a	0	0	0	n/a	n/a	n/a	n/a	n/a
1102574	REC_WORD	wordpools/wasnorm_wordpool_less_exclusions.txt	LTP276	ltpFR	13	5	0	DIAL	457	n/a	0	n/a	0	0	0	n/a	n/a	n/a	n/a	n/a
1105747	REC_WORD	wordpools/wasnorm_wordpool_less_exclusions.txt	LTP276	ltpFR	13	5	0	BANJO	82	n/a	1	n/a	0	0	0	n/a	n/a	n/a	n/a	n/a
1106544	REC_WORD	wordpools/wasnorm_wordpool_less_exclusions.txt	LTP276	ltpFR	13	5	0	FIDDLE	561	n/a	0	n/a	0	0	0	n/a	n/a	n/a	n/a	n/a
1110239	REC_WORD	wordpools/wasnorm_wordpool_less_exclusions.txt	LTP276	ltpFR	13	5	0	TREAD	1499	n/a	0	n/a	0	0	0	n/a	n/a	n/a	n/a	n/a
1179597	WORD	wordpools/wasnorm_wordpool_less_exclusions.txt	LTP276	ltpFR	13	6	0	NEWSPAPER	948	n/a	0	n/a	0	0	0	0	0.5869140625	0.422607421875	lower	../fonts/zerothre.ttf
1183512	WORD	wordpools/wasnorm_wordpool_less_exclusions.txt	LTP276	ltpFR	13	6	0	BUSH	202	n/a	0	n/a	0	0	0	0	0.5869140625	0.422607421875	lower	../fonts/zerothre.ttf
1187594	WORD	wordpools/wasnorm_wordpool_less_exclusions.txt	LTP276	ltpFR	13	6	0	BEAD	103	n/a	0	n/a	0	0	0	0	0.5869140625	0.422607421875	lower	../fonts/zerothre.ttf
1191677	WORD	wordpools/wasnorm_wordpool_less_exclusions.txt	LTP276	ltpFR	13	6	0	LIBRARY	816	n/a	1	n/a	0	0	0	0	0.5869140625	0.422607421875	lower	../fonts/zerothre.ttf
1195675	WORD	wordpools/wasnorm_wordpool_less_exclusions.txt	LTP276	ltpFR	13	6	0	ORNAMENT	985	n/a	0	n/a	0	0	0	0	0.5869140625	0.422607421875	lower	../fonts/zerothre.ttf
1199674	WORD	wordpools/wasnorm_wordpool_less_exclusions.txt	LTP276	ltpFR	13	6	0	BANDIT	81	n/a	1	n/a	0	0	0	0	0.5869140625	0.422607421875	lower	../fonts/zerothre.ttf
1203856	WORD	wordpools/wasnorm_wordpool_less_exclusions.txt	LTP276	ltpFR	13	6	0	PRAIRIE	1118	n/a	0	n/a	0	0	0	0	0.5869140625	0.422607421875	lower	../fonts/zerothre.ttf
1207871	WORD	wordpools/wasnorm_wordpool_less_exclusions.txt	LTP276	ltpFR	13	6	0	COLLAR	345	n/a	0	n/a	0	0	0	0	0.5869140625	0.422607421875	lower	../fonts/zerothre.ttf
1211736	WORD	wordpools/wasnorm_wordpool_less_exclusions.txt	LTP276	ltpFR	13	6	0	NUCLEUS	961	n/a	0	n/a	0	0	0	0	0.5869140625	0.422607421875	lower	../fonts/zerothre.ttf
1215868	WORD	wordpools/wasnorm_wordpool_less_exclusions.txt	LTP276	ltpFR	13	6	0	MONEY	908	n/a	0	n/a	0	0	0	0	0.5869140625	0.422607421875	lower	../fonts/zerothre.ttf
1219733	WORD	wordpools/wasnorm_wordpool_less_exclusions.txt	LTP276	ltpFR	13	6	0	QUARTER	1148	n/a	0	n/a	0	0	0	0	0.5869140625	0.422607421875	lower	../fonts/zerothre.ttf
1223580	WORD	wordpools/wasnorm_wordpool_less_exclusions.txt	LTP276	ltpFR	13	6	0	FREEZER	604	n/a	1	n/a	0	0	0	0	0.5869140625	0.422607421875	lower	../fonts/zerothre.ttf
1227780	WORD	wordpools/wasnorm_wordpool_less_exclusions.txt	LTP276	ltpFR	13	6	0	AWARD	63	n/a	1	n/a	0	0	0	0	0.5869140625	0.422607421875	lower	../fonts/zerothre.ttf
1231661	WORD	wordpools/wasnorm_wordpool_less_exclusions.txt	LTP276	ltpFR	13	6	0	SALESMAN	1225	n/a	1	n/a	0	0	0	0	0.5869140625	0.422607421875	lower	../fonts/zerothre.ttf
1235843	WORD	wordpools/wasnorm_wordpool_less_exclusions.txt	LTP276	ltpFR	13	6	0	VAN	1548	n/a	1	n/a	0	0	0	0	0.5869140625	0.422607421875	lower	../fonts/zerothre.ttf
1239974	WORD	wordpools/wasnorm_wordpool_less_exclusions.txt	LTP276	ltpFR	13	6	0	PEARL	1034	n/a	0	n/a	0	0	0	0	0.5869140625	0.422607421875	lower	../fonts/zerothre.ttf
1242987	START	n/a	LTP276	ltpFR	13	n/a	n/a	n/a	n/a	n/a	n/a	n/a	n/a	n/a	n/a	n/a	n/a	n/a	n/a	n/a
1244158	PROB	n/a	LTP276	ltpFR	13	n/a	n/a	n/a	n/a	n/a	n/a	12	1	9	2	n/a	n/a	n/a	n/a	n/a
1245596	PROB	n/a	LTP276	ltpFR	13	n/a	n/a	n/a	n/a	n/a	n/a	4	1	1	2	n/a	n/a	n/a	n/a	n/a
1246649	PROB	n/a	LTP276	ltpFR	13	n/a	n/a	n/a	n/a	n/a	n/a	16	3	8	5	n/a	n/a	n/a	n/a	n/a
1247921	PROB	n/a	LTP276	ltpFR	13	n/a	n/a	n/a	n/a	n/a	n/a	23	8	7	8	n/a	n/a	n/a	n/a	n/a
1249980	PROB	n/a	LTP276	ltpFR	13	n/a	n/a	n/a	n/a	n/a	n/a	15	9	5	1	n/a	n/a	n/a	n/a	n/a
1251201	PROB	n/a	LTP276	ltpFR	13	n/a	n/a	n/a	n/a	n/a	n/a	16	5	7	4	n/a	n/a	n/a	n/a	n/a
1252555	PROB	n/a	LTP276	ltpFR	13	n/a	n/a	n/a	n/a	n/a	n/a	15	3	4	8	n/a	n/a	n/a	n/a	n/a
1254715	PROB	n/a	LTP276	ltpFR	13	n/a	n/a	n/a	n/a	n/a	n/a	12	7	2	3	n/a	n/a	n/a	n/a	n/a
1256520	PROB	n/a	LTP276	ltpFR	13	n/a	n/a	n/a	n/a	n/a	n/a	12	6	4	2	n/a	n/a	n/a	n/a	n/a
1257582	STOP	n/a	LTP276	ltpFR	13	n/a	n/a	n/a	n/a	n/a	n/a	n/a	n/a	n/a	n/a	n/a	n/a	n/a	n/a	n/a
1260888	REC_START	n/a	LTP276	ltpFR	13	6	n/a	n/a	n/a	n/a	n/a	n/a	0	0	0	n/a	n/a	n/a	n/a	n/a
1262134	REC_WORD	wordpools/wasnorm_wordpool_less_exclusions.txt	LTP276	ltpFR	13	6	0	PEARL	1034	n/a	0	n/a	0	0	0	n/a	n/a	n/a	n/a	n/a
1262562	REC_WORD	wordpools/wasnorm_wordpool_less_exclusions.txt	LTP276	ltpFR	13	6	0	AWARD	63	n/a	1	n/a	0	0	0	n/a	n/a	n/a	n/a	n/a
1263327	REC_WORD	wordpools/wasnorm_wordpool_less_exclusions.txt	LTP276	ltpFR	13	6	0	BEAD	103	n/a	0	n/a	0	0	0	n/a	n/a	n/a	n/a	n/a
1264691	REC_WORD	wordpools/wasnorm_wordpool_less_exclusions.txt	LTP276	ltpFR	13	6	0	NEWSPAPER	948	n/a	0	n/a	0	0	0	n/a	n/a	n/a	n/a	n/a
1309655	REC_WORD	wordpools/wasnorm_wordpool_less_exclusions.txt	LTP276	ltpFR	13	6	0	PRAIRIE	1118	n/a	0	n/a	0	0	0	n/a	n/a	n/a	n/a	n/a
1336539	REST_REWET	n/a	LTP276	ltpFR	13	6	n/a	n/a	n/a	n/a	n/a	n/a	0	0	0	n/a	n/a	n/a	n/a	n/a
1818657	START	n/a	LTP276	ltpFR	13	n/a	n/a	n/a	n/a	n/a	n/a	n/a	n/a	n/a	n/a	n/a	n/a	n/a	n/a	n/a
1820162	PROB	n/a	LTP276	ltpFR	13	n/a	n/a	n/a	n/a	n/a	n/a	12	4	2	6	n/a	n/a	n/a	n/a	n/a
1822304	PROB	n/a	LTP276	ltpFR	13	n/a	n/a	n/a	n/a	n/a	n/a	19	8	7	4	n/a	n/a	n/a	n/a	n/a
1823826	PROB	n/a	LTP276	ltpFR	13	n/a	n/a	n/a	n/a	n/a	n/a	15	5	7	3	n/a	n/a	n/a	n/a	n/a
1824897	PROB	n/a	LTP276	ltpFR	13	n/a	n/a	n/a	n/a	n/a	n/a	15	4	9	2	n/a	n/a	n/a	n/a	n/a
1825916	PROB	n/a	LTP276	ltpFR	13	n/a	n/a	n/a	n/a	n/a	n/a	16	8	5	3	n/a	n/a	n/a	n/a	n/a
1828310	PROB	n/a	LTP276	ltpFR	13	n/a	n/a	n/a	n/a	n/a	n/a	17	9	6	2	n/a	n/a	n/a	n/a	n/a
1829396	PROB	n/a	LTP276	ltpFR	13	n/a	n/a	n/a	n/a	n/a	n/a	16	6	4	6	n/a	n/a	n/a	n/a	n/a
1831170	PROB	n/a	LTP276	ltpFR	13	n/a	n/a	n/a	n/a	n/a	n/a	20	9	7	5	n/a	n/a	n/a	n/a	n/a
1832894	PROB	n/a	LTP276	ltpFR	13	n/a	n/a	n/a	n/a	n/a	n/a	17	7	4	6	n/a	n/a	n/a	n/a	n/a
1834502	STOP	n/a	LTP276	ltpFR	13	n/a	n/a	n/a	n/a	n/a	n/a	n/a	n/a	n/a	n/a	n/a	n/a	n/a	n/a	n/a
1835821	WORD	wordpools/wasnorm_wordpool_less_exclusions.txt	LTP276	ltpFR	13	7	1	STRING	1394	n/a	0	n/a	0	0	0	1	0.412841796875	0.57763671875	upper	../fonts/amplitud.ttf
1838833	START	n/a	LTP276	ltpFR	13	n/a	n/a	n/a	n/a	n/a	n/a	n/a	n/a	n/a	n/a	n/a	n/a	n/a	n/a	n/a
1840020	PROB	n/a	LTP276	ltpFR	13	n/a	n/a	n/a	n/a	n/a	n/a	24	8	7	9	n/a	n/a	n/a	n/a	n/a
1841610	PROB	n/a	LTP276	ltpFR	13	n/a	n/a	n/a	n/a	n/a	n/a	12	4	6	2	n/a	n/a	n/a	n/a	n/a
1842645	PROB	n/a	LTP276	ltpFR	13	n/a	n/a	n/a	n/a	n/a	n/a	18	6	3	9	n/a	n/a	n/a	n/a	n/a
1843833	PROB	n/a	LTP276	ltpFR	13	n/a	n/a	n/a	n/a	n/a	n/a	11	3	4	4	n/a	n/a	n/a	n/a	n/a
1845490	PROB	n/a	LTP276	ltpFR	13	n/a	n/a	n/a	n/a	n/a	n/a	14	2	6	6	n/a	n/a	n/a	n/a	n/a
1846727	PROB	n/a	LTP276	ltpFR	13	n/a	n/a	n/a	n/a	n/a	n/a	18	3	8	7	n/a	n/a	n/a	n/a	n/a
1849589	PROB	n/a	LTP276	ltpFR	13	n/a	n/a	n/a	n/a	n/a	n/a	24	6	9	9	n/a	n/a	n/a	n/a	n/a
1851146	PROB	n/a	LTP276	ltpFR	13	n/a	n/a	n/a	n/a	n/a	n/a	5	3	1	1	n/a	n/a	n/a	n/a	n/a
1851949	PROB	n/a	LTP276	ltpFR	13	n/a	n/a	n/a	n/a	n/a	n/a	11	1	9	1	n/a	n/a	n/a	n/a	n/a
1853304	PROB	n/a	LTP276	ltpFR	13	n/a	n/a	n/a	n/a	n/a	n/a	13	1	5	7	n/a	n/a	n/a	n/a	n/a
1854566	STOP	n/a	LTP276	ltpFR	13	n/a	n/a	n/a	n/a	n/a	n/a	n/a	n/a	n/a	n/a	n/a	n/a	n/a	n/a	n/a
1855897	WORD	wordpools/wasnorm_wordpool_less_exclusions.txt	LTP276	ltpFR	13	7	1	TIE	1466	n/a	0	n/a	0	0	0	1	0.412841796875	0.57763671875	upper	../fonts/amplitud.ttf
1858909	START	n/a	LTP276	ltpFR	13	n/a	n/a	n/a	n/a	n/a	n/a	n/a	n/a	n/a	n/a	n/a	n/a	n/a	n/a	n/a
1860012	PROB	n/a	LTP276	ltpFR	13	n/a	n/a	n/a	n/a	n/a	n/a	19	3	7	9	n/a	n/a	n/a	n/a	n/a
1862152	PROB	n/a	LTP276	ltpFR	13	n/a	n/a	n/a	n/a	n/a	n/a	12	5	6	1	n/a	n/a	n/a	n/a	n/a
1863091	PROB	n/a	LTP276	ltpFR	13	n/a	n/a	n/a	n/a	n/a	n/a	23	8	8	7	n/a	n/a	n/a	n/a	n/a
1864864	PROB	n/a	LTP276	ltpFR	13	n/a	n/a	n/a	n/a	n/a	n/a	13	8	1	4	n/a	n/a	n/a	n/a	n/a
1866219	PROB	n/a	LTP276	ltpFR	13	n/a	n/a	n/a	n/a	n/a	n/a	12	4	2	6	n/a	n/a	n/a	n/a	n/a
1868492	PROB	n/a	LTP276	ltpFR	13	n/a	n/a	n/a	n/a	n/a	n/a	15	5	9	1	n/a	n/a	n/a	n/a	n/a
1870201	PROB	n/a	LTP276	ltpFR	13	n/a	n/a	n/a	n/a	n/a	n/a	10	4	2	4	n/a	n/a	n/a	n/a	n/a
1872041	PROB	n/a	LTP276	ltpFR	13	n/a	n/a	n/a	n/a	n/a	n/a	11	2	8	1	n/a	n/a	n/a	n/a	n/a
1873011	PROB	n/a	LTP276	ltpFR	13	n/a	n/a	n/a	n/a	n/a	n/a	23	9	9	5	n/a	n/a	n/a	n/a	n/a
1874799	STOP	n/a	LTP276	ltpFR	13	n/a	n/a	n/a	n/a	n/a	n/a	n/a	n/a	n/a	n/a	n/a	n/a	n/a	n/a	n/a
1876039	WORD	wordpools/wasnorm_wordpool_less_exclusions.txt	LTP276	ltpFR	13	7	1	POWDER	1117	n/a	0	n/a	0	0	0	1	0.412841796875	0.57763671875	upper	../fonts/amplitud.ttf
1879051	START	n/a	LTP276	ltpFR	13	n/a	n/a	n/a	n/a	n/a	n/a	n/a	n/a	n/a	n/a	n/a	n/a	n/a	n/a	n/a
1880088	PROB	n/a	LTP276	ltpFR	13	n/a	n/a	n/a	n/a	n/a	n/a	8	4	2	2	n/a	n/a	n/a	n/a	n/a
1881661	PROB	n/a	LTP276	ltpFR	13	n/a	n/a	n/a	n/a	n/a	n/a	6	1	4	1	n/a	n/a	n/a	n/a	n/a
1882580	PROB	n/a	LTP276	ltpFR	13	n/a	n/a	n/a	n/a	n/a	n/a	16	9	2	5	n/a	n/a	n/a	n/a	n/a
1883986	PROB	n/a	LTP276	ltpFR	13	n/a	n/a	n/a	n/a	n/a	n/a	17	8	1	8	n/a	n/a	n/a	n/a	n/a
1885642	PROB	n/a	LTP276	ltpFR	13	n/a	n/a	n/a	n/a	n/a	n/a	7	4	1	2	n/a	n/a	n/a	n/a	n/a
1887096	PROB	n/a	LTP276	ltpFR	13	n/a	n/a	n/a	n/a	n/a	n/a	16	5	6	5	n/a	n/a	n/a	n/a	n/a
1888152	PROB	n/a	LTP276	ltpFR	13	n/a	n/a	n/a	n/a	n/a	n/a	25	9	7	9	n/a	n/a	n/a	n/a	n/a
1890611	PROB	n/a	LTP276	ltpFR	13	n/a	n/a	n/a	n/a	n/a	n/a	14	6	2	6	n/a	n/a	n/a	n/a	n/a
1892065	PROB	n/a	LTP276	ltpFR	13	n/a	n/a	n/a	n/a	n/a	n/a	19	9	2	8	n/a	n/a	n/a	n/a	n/a
1893928	STOP	n/a	LTP276	ltpFR	13	n/a	n/a	n/a	n/a	n/a	n/a	n/a	n/a	n/a	n/a	n/a	n/a	n/a	n/a	n/a
1895896	WORD	wordpools/wasnorm_wordpool_less_exclusions.txt	LTP276	ltpFR	13	7	0	CAMEL	223	n/a	1	n/a	0	0	0	0	0.5869140625	0.422607421875	lower	../fonts/zerothre.ttf
1898910	START	n/a	LTP276	ltpFR	13	n/a	n/a	n/a	n/a	n/a	n/a	n/a	n/a	n/a	n/a	n/a	n/a	n/a	n/a	n/a
1899996	PROB	n/a	LTP276	ltpFR	13	n/a	n/a	n/a	n/a	n/a	n/a	4	1	2	1	n/a	n/a	n/a	n/a	n/a
1900866	PROB	n/a	LTP276	ltpFR	13	n/a	n/a	n/a	n/a	n/a	n/a	14	4	4	6	n/a	n/a	n/a	n/a	n/a
1902305	PROB	n/a	LTP276	ltpFR	13	n/a	n/a	n/a	n/a	n/a	n/a	10	2	2	6	n/a	n/a	n/a	n/a	n/a
1903928	PROB	n/a	LTP276	ltpFR	13	n/a	n/a	n/a	n/a	n/a	n/a	12	2	5	5	n/a	n/a	n/a	n/a	n/a
1905015	PROB	n/a	LTP276	ltpFR	13	n/a	n/a	n/a	n/a	n/a	n/a	3	1	1	1	n/a	n/a	n/a	n/a	n/a
1906585	PROB	n/a	LTP276	ltpFR	13	n/a	n/a	n/a	n/a	n/a	n/a	14	8	5	1	n/a	n/a	n/a	n/a	n/a
1908077	PROB	n/a	LTP276	ltpFR	13	n/a	n/a	n/a	n/a	n/a	n/a	12	2	8	2	n/a	n/a	n/a	n/a	n/a
1909347	PROB	n/a	LTP276	ltpFR	13	n/a	n/a	n/a	n/a	n/a	n/a	21	8	7	6	n/a	n/a	n/a	n/a	n/a
1911439	PROB	n/a	LTP276	ltpFR	13	n/a	n/a	n/a	n/a	n/a	n/a	9	1	1	7	n/a	n/a	n/a	n/a	n/a
1912442	PROB	n/a	LTP276	ltpFR	13	n/a	n/a	n/a	n/a	n/a	n/a	17	8	2	7	n/a	n/a	n/a	n/a	n/a
1914192	STOP	n/a	LTP276	ltpFR	13	n/a	n/a	n/a	n/a	n/a	n/a	n/a	n/a	n/a	n/a	n/a	n/a	n/a	n/a	n/a
1915789	WORD	wordpools/wasnorm_wordpool_less_exclusions.txt	LTP276	ltpFR	13	7	0	TAR	1435	n/a	0	n/a	0	0	0	0	0.5869140625	0.422607421875	lower	../fonts/zerothre.ttf
1918801	START	n/a	LTP276	ltpFR	13	n/a	n/a	n/a	n/a	n/a	n/a	n/a	n/a	n/a	n/a	n/a	n/a	n/a	n/a	n/a
1919669	PROB	n/a	LTP276	ltpFR	13	n/a	n/a	n/a	n/a	n/a	n/a	24	8	9	7	n/a	n/a	n/a	n/a	n/a
1920992	PROB	n/a	LTP276	ltpFR	13	n/a	n/a	n/a	n/a	n/a	n/a	24	6	9	9	n/a	n/a	n/a	n/a	n/a
1923083	PROB	n/a	LTP276	ltpFR	13	n/a	n/a	n/a	n/a	n/a	n/a	22	7	6	9	n/a	n/a	n/a	n/a	n/a
1925158	PROB	n/a	LTP276	ltpFR	13	n/a	n/a	n/a	n/a	n/a	n/a	17	1	9	7	n/a	n/a	n/a	n/a	n/a
1926462	PROB	n/a	LTP276	ltpFR	13	n/a	n/a	n/a	n/a	n/a	n/a	12	6	4	2	n/a	n/a	n/a	n/a	n/a
1927514	PROB	n/a	LTP276	ltpFR	13	n/a	n/a	n/a	n/a	n/a	n/a	23	7	7	9	n/a	n/a	n/a	n/a	n/a
1929106	PROB	n/a	LTP276	ltpFR	13	n/a	n/a	n/a	n/a	n/a	n/a	8	5	1	2	n/a	n/a	n/a	n/a	n/a
1932084	PROB	n/a	LTP276	ltpFR	13	n/a	n/a	n/a	n/a	n/a	n/a	12	3	4	5	n/a	n/a	n/a	n/a	n/a
1933295	STOP	n/a	LTP276	ltpFR	13	n/a	n/a	n/a	n/a	n/a	n/a	n/a	n/a	n/a	n/a	n/a	n/a	n/a	n/a	n/a
1935815	WORD	wordpools/wasnorm_wordpool_less_exclusions.txt	LTP276	ltpFR	13	7	1	FROG	608	n/a	1	n/a	0	0	0	1	0.412841796875	0.57763671875	upper	../fonts/amplitud.ttf
1938827	START	n/a	LTP276	ltpFR	13	n/a	n/a	n/a	n/a	n/a	n/a	n/a	n/a	n/a	n/a	n/a	n/a	n/a	n/a	n/a
1939778	PROB	n/a	LTP276	ltpFR	13	n/a	n/a	n/a	n/a	n/a	n/a	16	2	5	9	n/a	n/a	n/a	n/a	n/a
1941168	PROB	n/a	LTP276	ltpFR	13	n/a	n/a	n/a	n/a	n/a	n/a	12	4	1	7	n/a	n/a	n/a	n/a	n/a
1943340	PROB	n/a	LTP276	ltpFR	13	n/a	n/a	n/a	n/a	n/a	n/a	11	2	5	4	n/a	n/a	n/a	n/a	n/a
1945033	PROB	n/a	LTP276	ltpFR	13	n/a	n/a	n/a	n/a	n/a	n/a	12	3	2	7	n/a	n/a	n/a	n/a	n/a
1946252	PROB	n/a	LTP276	ltpFR	13	n/a	n/a	n/a	n/a	n/a	n/a	9	2	3	4	n/a	n/a	n/a	n/a	n/a
1947961	PROB	n/a	LTP276	ltpFR	13	n/a	n/a	n/a	n/a	n/a	n/a	13	3	4	6	n/a	n/a	n/a	n/a	n/a
1949281	PROB	n/a	LTP276	ltpFR	13	n/a	n/a	n/a	n/a	n/a	n/a	13	6	2	5	n/a	n/a	n/a	n/a	n/a
1952846	PROB	n/a	LTP276	ltpFR	13	n/a	n/a	n/a	n/a	n/a	n/a	10	3	4	3	n/a	n/a	n/a	n/a	n/a
1954639	STOP	n/a	LTP276	ltpFR	13	n/a	n/a	n/a	n/a	n/a	n/a	n/a	n/a	n/a	n/a	n/a	n/a	n/a	n/a	n/a
1955690	WORD	wordpools/wasnorm_wordpool_less_exclusions.txt	LTP276	ltpFR	13	7	1	SNORKEL	1336	n/a	0	n/a	0	0	0	1	0.412841796875	0.57763671875	upper	../fonts/amplitud.ttf
1958702	START	n/a	LTP276	ltpFR	13	n/a	n/a	n/a	n/a	n/a	n/a	n/a	n/a	n/a	n/a	n/a	n/a	n/a	n/a	n/a
1959621	PROB	n/a	LTP276	ltpFR	13	n/a	n/a	n/a	n/a	n/a	n/a	8	1	1	6	n/a	n/a	n/a	n/a	n/a
1960557	PROB	n/a	LTP276	ltpFR	13	n/a	n/a	n/a	n/a	n/a	n/a	14	8	1	5	n/a	n/a	n/a	n/a	n/a
1961947	PROB	n/a	LTP276	ltpFR	13	n/a	n/a	n/a	n/a	n/a	n/a	23	8	9	6	n/a	n/a	n/a	n/a	n/a
1963500	PROB	n/a	LTP276	ltpFR	13	n/a	n/a	n/a	n/a	n/a	n/a	16	4	7	5	n/a	n/a	n/a	n/a	n/a
1964655	PROB	n/a	LTP276	ltpFR	13	n/a	n/a	n/a	n/a	n/a	n/a	7	1	2	4	n/a	n/a	n/a	n/a	n/a
1965644	PROB	n/a	LTP276	ltpFR	13	n/a	n/a	n/a	n/a	n/a	n/a	1	5	1	7	n/a	n/a	n/a	n/a	n/a
1966832	PROB	n/a	LTP276	ltpFR	13	n/a	n/a	n/a	n/a	n/a	n/a	19	9	8	2	n/a	n/a	n/a	n/a	n/a
1968722	PROB	n/a	LTP276	ltpFR	13	n/a	n/a	n/a	n/a	n/a	n/a	16	3	4	9	n/a	n/a	n/a	n/a	n/a
1970044	PROB	n/a	LTP276	ltpFR	13	n/a	n/a	n/a	n/a	n/a	n/a	20	5	9	6	n/a	n/a	n/a	n/a	n/a
1971715	PROB	n/a	LTP276	ltpFR	13	n/a	n/a	n/a	n/a	n/a	n/a	11	6	4	1	n/a	n/a	n/a	n/a	n/a
1972754	PROB	n/a	LTP276	ltpFR	13	n/a	n/a	n/a	n/a	n/a	n/a	12	5	1	6	n/a	n/a	n/a	n/a	n/a
1973717	STOP	n/a	LTP276	ltpFR	13	n/a	n/a	n/a	n/a	n/a	n/a	n/a	n/a	n/a	n/a	n/a	n/a	n/a	n/a	n/a
1975547	WORD	wordpools/wasnorm_wordpool_less_exclusions.txt	LTP276	ltpFR	13	7	1	CROCODILE	411	n/a	0	n/a	0	0	0	1	0.412841796875	0.57763671875	upper	../fonts/amplitud.ttf
1978559	START	n/a	LTP276	ltpFR	13	n/a	n/a	n/a	n/a	n/a	n/a	n/a	n/a	n/a	n/a	n/a	n/a	n/a	n/a	n/a
1979445	PROB	n/a	LTP276	ltpFR	13	n/a	n/a	n/a	n/a	n/a	n/a	15	1	9	5	n/a	n/a	n/a	n/a	n/a
1980784	PROB	n/a	LTP276	ltpFR	13	n/a	n/a	n/a	n/a	n/a	n/a	11	3	6	2	n/a	n/a	n/a	n/a	n/a
1982223	PROB	n/a	LTP276	ltpFR	13	n/a	n/a	n/a	n/a	n/a	n/a	18	1	9	8	n/a	n/a	n/a	n/a	n/a
1983542	PROB	n/a	LTP276	ltpFR	13	n/a	n/a	n/a	n/a	n/a	n/a	13	8	4	1	n/a	n/a	n/a	n/a	n/a
1984731	PROB	n/a	LTP276	ltpFR	13	n/a	n/a	n/a	n/a	n/a	n/a	22	4	9	9	n/a	n/a	n/a	n/a	n/a
1986572	PROB	n/a	LTP276	ltpFR	13	n/a	n/a	n/a	n/a	n/a	n/a	14	3	7	4	n/a	n/a	n/a	n/a	n/a
1987742	PROB	n/a	LTP276	ltpFR	13	n/a	n/a	n/a	n/a	n/a	n/a	17	1	7	9	n/a	n/a	n/a	n/a	n/a
1989785	PROB	n/a	LTP276	ltpFR	13	n/a	n/a	n/a	n/a	n/a	n/a	9	5	3	1	n/a	n/a	n/a	n/a	n/a
1990856	PROB	n/a	LTP276	ltpFR	13	n/a	n/a	n/a	n/a	n/a	n/a	11	2	7	4	n/a	n/a	n/a	n/a	n/a
1992696	PROB	n/a	LTP276	ltpFR	13	n/a	n/a	n/a	n/a	n/a	n/a	11	1	1	9	n/a	n/a	n/a	n/a	n/a
1993855	STOP	n/a	LTP276	ltpFR	13	n/a	n/a	n/a	n/a	n/a	n/a	n/a	n/a	n/a	n/a	n/a	n/a	n/a	n/a	n/a
1995774	WORD	wordpools/wasnorm_wordpool_less_exclusions.txt	LTP276	ltpFR	13	7	0	STALLION	1369	n/a	0	n/a	0	0	0	0	0.5869140625	0.422607421875	lower	../fonts/zerothre.ttf
1998786	START	n/a	LTP276	ltpFR	13	n/a	n/a	n/a	n/a	n/a	n/a	n/a	n/a	n/a	n/a	n/a	n/a	n/a	n/a	n/a
1999689	PROB	n/a	LTP276	ltpFR	13	n/a	n/a	n/a	n/a	n/a	n/a	13	6	1	6	n/a	n/a	n/a	n/a	n/a
2000893	PROB	n/a	LTP276	ltpFR	13	n/a	n/a	n/a	n/a	n/a	n/a	16	6	7	3	n/a	n/a	n/a	n/a	n/a
2002682	PROB	n/a	LTP276	ltpFR	13	n/a	n/a	n/a	n/a	n/a	n/a	13	7	1	5	n/a	n/a	n/a	n/a	n/a
2004339	PROB	n/a	LTP276	ltpFR	13	n/a	n/a	n/a	n/a	n/a	n/a	12	1	5	6	n/a	n/a	n/a	n/a	n/a
2005745	PROB	n/a	LTP276	ltpFR	13	n/a	n/a	n/a	n/a	n/a	n/a	14	7	1	6	n/a	n/a	n/a	n/a	n/a
2007702	PROB	n/a	LTP276	ltpFR	13	n/a	n/a	n/a	n/a	n/a	n/a	13	4	3	6	n/a	n/a	n/a	n/a	n/a
2009456	PROB	n/a	LTP276	ltpFR	13	n/a	n/a	n/a	n/a	n/a	n/a	18	7	3	8	n/a	n/a	n/a	n/a	n/a
2010747	PROB	n/a	LTP276	ltpFR	13	n/a	n/a	n/a	n/a	n/a	n/a	15	9	5	1	n/a	n/a	n/a	n/a	n/a
2012468	PROB	n/a	LTP276	ltpFR	13	n/a	n/a	n/a	n/a	n/a	n/a	12	5	6	1	n/a	n/a	n/a	n/a	n/a
2013631	STOP	n/a	LTP276	ltpFR	13	n/a	n/a	n/a	n/a	n/a	n/a	n/a	n/a	n/a	n/a	n/a	n/a	n/a	n/a	n/a
2016000	WORD	wordpools/wasnorm_wordpool_less_exclusions.txt	LTP276	ltpFR	13	7	0	MOLECULE	905	n/a	0	n/a	0	0	0	0	0.5869140625	0.422607421875	lower	../fonts/zerothre.ttf
2019012	START	n/a	LTP276	ltpFR	13	n/a	n/a	n/a	n/a	n/a	n/a	n/a	n/a	n/a	n/a	n/a	n/a	n/a	n/a	n/a
2019848	PROB	n/a	LTP276	ltpFR	13	n/a	n/a	n/a	n/a	n/a	n/a	11	2	7	2	n/a	n/a	n/a	n/a	n/a
2021254	PROB	n/a	LTP276	ltpFR	13	n/a	n/a	n/a	n/a	n/a	n/a	21	8	7	4	n/a	n/a	n/a	n/a	n/a
2024064	PROB	n/a	LTP276	ltpFR	13	n/a	n/a	n/a	n/a	n/a	n/a	16	5	7	4	n/a	n/a	n/a	n/a	n/a
2025770	PROB	n/a	LTP276	ltpFR	13	n/a	n/a	n/a	n/a	n/a	n/a	21	7	8	6	n/a	n/a	n/a	n/a	n/a
2027243	PROB	n/a	LTP276	ltpFR	13	n/a	n/a	n/a	n/a	n/a	n/a	17	9	4	5	n/a	n/a	n/a	n/a	n/a
2029132	PROB	n/a	LTP276	ltpFR	13	n/a	n/a	n/a	n/a	n/a	n/a	14	3	6	5	n/a	n/a	n/a	n/a	n/a
2031524	PROB	n/a	LTP276	ltpFR	13	n/a	n/a	n/a	n/a	n/a	n/a	22	6	7	9	n/a	n/a	n/a	n/a	n/a
2034000	STOP	n/a	LTP276	ltpFR	13	n/a	n/a	n/a	n/a	n/a	n/a	n/a	n/a	n/a	n/a	n/a	n/a	n/a	n/a	n/a
2035875	WORD	wordpools/wasnorm_wordpool_less_exclusions.txt	LTP276	ltpFR	13	7	0	BEAKER	104	n/a	0	n/a	0	0	0	0	0.5869140625	0.422607421875	lower	../fonts/zerothre.ttf
2038887	START	n/a	LTP276	ltpFR	13	n/a	n/a	n/a	n/a	n/a	n/a	n/a	n/a	n/a	n/a	n/a	n/a	n/a	n/a	n/a
2039957	PROB	n/a	LTP276	ltpFR	13	n/a	n/a	n/a	n/a	n/a	n/a	11	4	6	1	n/a	n/a	n/a	n/a	n/a
2041179	PROB	n/a	LTP276	ltpFR	13	n/a	n/a	n/a	n/a	n/a	n/a	17	4	7	6	n/a	n/a	n/a	n/a	n/a
2042481	PROB	n/a	LTP276	ltpFR	13	n/a	n/a	n/a	n/a	n/a	n/a	13	1	5	7	n/a	n/a	n/a	n/a	n/a
2044274	PROB	n/a	LTP276	ltpFR	13	n/a	n/a	n/a	n/a	n/a	n/a	14	4	8	2	n/a	n/a	n/a	n/a	n/a
2046548	PROB	n/a	LTP276	ltpFR	13	n/a	n/a	n/a	n/a	n/a	n/a	16	6	1	9	n/a	n/a	n/a	n/a	n/a
2047987	PROB	n/a	LTP276	ltpFR	13	n/a	n/a	n/a	n/a	n/a	n/a	16	7	1	8	n/a	n/a	n/a	n/a	n/a
2049442	PROB	n/a	LTP276	ltpFR	13	n/a	n/a	n/a	n/a	n/a	n/a	10	5	1	4	n/a	n/a	n/a	n/a	n/a
2050631	PROB	n/a	LTP276	ltpFR	13	n/a	n/a	n/a	n/a	n/a	n/a	19	6	8	5	n/a	n/a	n/a	n/a	n/a
2052003	PROB	n/a	LTP276	ltpFR	13	n/a	n/a	n/a	n/a	n/a	n/a	14	3	9	2	n/a	n/a	n/a	n/a	n/a
2054887	STOP	n/a	LTP276	ltpFR	13	n/a	n/a	n/a	n/a	n/a	n/a	n/a	n/a	n/a	n/a	n/a	n/a	n/a	n/a	n/a
2055834	WORD	wordpools/wasnorm_wordpool_less_exclusions.txt	LTP276	ltpFR	13	7	0	BEGGAR	117	n/a	1	n/a	0	0	0	0	0.5869140625	0.422607421875	lower	../fonts/zerothre.ttf
2058846	START	n/a	LTP276	ltpFR	13	n/a	n/a	n/a	n/a	n/a	n/a	n/a	n/a	n/a	n/a	n/a	n/a	n/a	n/a	n/a
2059866	PROB	n/a	LTP276	ltpFR	13	n/a	n/a	n/a	n/a	n/a	n/a	13	4	6	3	n/a	n/a	n/a	n/a	n/a
2060985	PROB	n/a	LTP276	ltpFR	13	n/a	n/a	n/a	n/a	n/a	n/a	12	3	8	1	n/a	n/a	n/a	n/a	n/a
2062844	PROB	n/a	LTP276	ltpFR	13	n/a	n/a	n/a	n/a	n/a	n/a	9	3	4	2	n/a	n/a	n/a	n/a	n/a
2064918	PROB	n/a	LTP276	ltpFR	13	n/a	n/a	n/a	n/a	n/a	n/a	9	2	5	2	n/a	n/a	n/a	n/a	n/a
2068412	PROB	n/a	LTP276	ltpFR	13	n/a	n/a	n/a	n/a	n/a	n/a	10	2	1	7	n/a	n/a	n/a	n/a	n/a
2069585	PROB	n/a	LTP276	ltpFR	13	n/a	n/a	n/a	n/a	n/a	n/a	20	9	4	7	n/a	n/a	n/a	n/a	n/a
2072479	PROB	n/a	LTP276	ltpFR	13	n/a	n/a	n/a	n/a	n/a	n/a	19	6	9	4	n/a	n/a	n/a	n/a	n/a
2074247	STOP	n/a	LTP276	ltpFR	13	n/a	n/a	n/a	n/a	n/a	n/a	n/a	n/a	n/a	n/a	n/a	n/a	n/a	n/a	n/a
2076043	WORD	wordpools/wasnorm_wordpool_less_exclusions.txt	LTP276	ltpFR	13	7	0	LAKE	796	n/a	1	n/a	0	0	0	0	0.5869140625	0.422607421875	lower	../fonts/zerothre.ttf
2079055	START	n/a	LTP276	ltpFR	13	n/a	n/a	n/a	n/a	n/a	n/a	n/a	n/a	n/a	n/a	n/a	n/a	n/a	n/a	n/a
2079991	PROB	n/a	LTP276	ltpFR	13	n/a	n/a	n/a	n/a	n/a	n/a	11	8	1	2	n/a	n/a	n/a	n/a	n/a
2081631	PROB	n/a	LTP276	ltpFR	13	n/a	n/a	n/a	n/a	n/a	n/a	16	6	1	9	n/a	n/a	n/a	n/a	n/a
2082817	PROB	n/a	LTP276	ltpFR	13	n/a	n/a	n/a	n/a	n/a	n/a	17	7	5	5	n/a	n/a	n/a	n/a	n/a
2084107	PROB	n/a	LTP276	ltpFR	13	n/a	n/a	n/a	n/a	n/a	n/a	13	5	1	7	n/a	n/a	n/a	n/a	n/a
2085629	PROB	n/a	LTP276	ltpFR	13	n/a	n/a	n/a	n/a	n/a	n/a	20	2	9	9	n/a	n/a	n/a	n/a	n/a
2087619	PROB	n/a	LTP276	ltpFR	13	n/a	n/a	n/a	n/a	n/a	n/a	14	3	2	9	n/a	n/a	n/a	n/a	n/a
2089009	PROB	n/a	LTP276	ltpFR	13	n/a	n/a	n/a	n/a	n/a	n/a	15	5	4	6	n/a	n/a	n/a	n/a	n/a
2090262	PROB	n/a	LTP276	ltpFR	13	n/a	n/a	n/a	n/a	n/a	n/a	17	3	8	6	n/a	n/a	n/a	n/a	n/a
2091584	PROB	n/a	LTP276	ltpFR	13	n/a	n/a	n/a	n/a	n/a	n/a	8	2	2	4	n/a	n/a	n/a	n/a	n/a
2092723	PROB	n/a	LTP276	ltpFR	13	n/a	n/a	n/a	n/a	n/a	n/a	14	1	9	4	n/a	n/a	n/a	n/a	n/a
2093815	STOP	n/a	LTP276	ltpFR	13	n/a	n/a	n/a	n/a	n/a	n/a	n/a	n/a	n/a	n/a	n/a	n/a	n/a	n/a	n/a
2095952	WORD	wordpools/wasnorm_wordpool_less_exclusions.txt	LTP276	ltpFR	13	7	0	ZEBRA	1635	n/a	1	n/a	0	0	0	0	0.5869140625	0.422607421875	lower	../fonts/zerothre.ttf
2098964	START	n/a	LTP276	ltpFR	13	n/a	n/a	n/a	n/a	n/a	n/a	n/a	n/a	n/a	n/a	n/a	n/a	n/a	n/a	n/a
2099866	PROB	n/a	LTP276	ltpFR	13	n/a	n/a	n/a	n/a	n/a	n/a	8	2	2	4	n/a	n/a	n/a	n/a	n/a
2101069	PROB	n/a	LTP276	ltpFR	13	n/a	n/a	n/a	n/a	n/a	n/a	18	4	7	7	n/a	n/a	n/a	n/a	n/a
2104533	PROB	n/a	LTP276	ltpFR	13	n/a	n/a	n/a	n/a	n/a	n/a	19	8	2	9	n/a	n/a	n/a	n/a	n/a
2106274	PROB	n/a	LTP276	ltpFR	13	n/a	n/a	n/a	n/a	n/a	n/a	14	1	6	7	n/a	n/a	n/a	n/a	n/a
2107595	PROB	n/a	LTP276	ltpFR	13	n/a	n/a	n/a	n/a	n/a	n/a	15	2	8	3	n/a	n/a	n/a	n/a	n/a
2108765	PROB	n/a	LTP276	ltpFR	13	n/a	n/a	n/a	n/a	n/a	n/a	20	6	6	8	n/a	n/a	n/a	n/a	n/a
2111693	PROB	n/a	LTP276	ltpFR	13	n/a	n/a	n/a	n/a	n/a	n/a	12	5	2	5	n/a	n/a	n/a	n/a	n/a
2113081	PROB	n/a	LTP276	ltpFR	13	n/a	n/a	n/a	n/a	n/a	n/a	8	1	3	4	n/a	n/a	n/a	n/a	n/a
2114031	STOP	n/a	LTP276	ltpFR	13	n/a	n/a	n/a	n/a	n/a	n/a	n/a	n/a	n/a	n/a	n/a	n/a	n/a	n/a	n/a
2115910	WORD	wordpools/wasnorm_wordpool_less_exclusions.txt	LTP276	ltpFR	13	7	1	GOO	648	n/a	0	n/a	0	0	0	1	0.412841796875	0.57763671875	upper	../fonts/amplitud.ttf
2118922	START	n/a	LTP276	ltpFR	13	n/a	n/a	n/a	n/a	n/a	n/a	n/a	n/a	n/a	n/a	n/a	n/a	n/a	n/a	n/a
2119773	PROB	n/a	LTP276	ltpFR	13	n/a	n/a	n/a	n/a	n/a	n/a	17	3	6	8	n/a	n/a	n/a	n/a	n/a
2121463	PROB	n/a	LTP276	ltpFR	13	n/a	n/a	n/a	n/a	n/a	n/a	10	6	2	2	n/a	n/a	n/a	n/a	n/a
2122634	PROB	n/a	LTP276	ltpFR	13	n/a	n/a	n/a	n/a	n/a	n/a	17	3	9	5	n/a	n/a	n/a	n/a	n/a
2123822	PROB	n/a	LTP276	ltpFR	13	n/a	n/a	n/a	n/a	n/a	n/a	21	9	7	5	n/a	n/a	n/a	n/a	n/a
2126566	PROB	n/a	LTP276	ltpFR	13	n/a	n/a	n/a	n/a	n/a	n/a	17	2	8	7	n/a	n/a	n/a	n/a	n/a
2128155	PROB	n/a	LTP276	ltpFR	13	n/a	n/a	n/a	n/a	n/a	n/a	15	8	2	5	n/a	n/a	n/a	n/a	n/a
2129377	PROB	n/a	LTP276	ltpFR	13	n/a	n/a	n/a	n/a	n/a	n/a	15	2	6	7	n/a	n/a	n/a	n/a	n/a
2130464	PROB	n/a	LTP276	ltpFR	13	n/a	n/a	n/a	n/a	n/a	n/a	12	1	6	5	n/a	n/a	n/a	n/a	n/a
2134921	STOP	n/a	LTP276	ltpFR	13	n/a	n/a	n/a	n/a	n/a	n/a	n/a	n/a	n/a	n/a	n/a	n/a	n/a	n/a	n/a
2136019	WORD	wordpools/wasnorm_wordpool_less_exclusions.txt	LTP276	ltpFR	13	7	1	BAY	102	n/a	1	n/a	0	0	0	1	0.412841796875	0.57763671875	upper	../fonts/amplitud.ttf
2139031	START	n/a	LTP276	ltpFR	13	n/a	n/a	n/a	n/a	n/a	n/a	n/a	n/a	n/a	n/a	n/a	n/a	n/a	n/a	n/a
2140085	PROB	n/a	LTP276	ltpFR	13	n/a	n/a	n/a	n/a	n/a	n/a	17	6	3	8	n/a	n/a	n/a	n/a	n/a
2141607	PROB	n/a	LTP276	ltpFR	13	n/a	n/a	n/a	n/a	n/a	n/a	14	8	1	5	n/a	n/a	n/a	n/a	n/a
2142996	PROB	n/a	LTP276	ltpFR	13	n/a	n/a	n/a	n/a	n/a	n/a	14	2	5	7	n/a	n/a	n/a	n/a	n/a
2145018	PROB	n/a	LTP276	ltpFR	13	n/a	n/a	n/a	n/a	n/a	n/a	18	5	7	6	n/a	n/a	n/a	n/a	n/a
2146558	PROB	n/a	LTP276	ltpFR	13	n/a	n/a	n/a	n/a	n/a	n/a	13	9	1	3	n/a	n/a	n/a	n/a	n/a
2147695	PROB	n/a	LTP276	ltpFR	13	n/a	n/a	n/a	n/a	n/a	n/a	16	4	5	7	n/a	n/a	n/a	n/a	n/a
2149887	PROB	n/a	LTP276	ltpFR	13	n/a	n/a	n/a	n/a	n/a	n/a	14	9	1	4	n/a	n/a	n/a	n/a	n/a
2150941	PROB	n/a	LTP276	ltpFR	13	n/a	n/a	n/a	n/a	n/a	n/a	10	4	1	5	n/a	n/a	n/a	n/a	n/a
2152147	PROB	n/a	LTP276	ltpFR	13	n/a	n/a	n/a	n/a	n/a	n/a	17	8	3	6	n/a	n/a	n/a	n/a	n/a
2153417	PROB	n/a	LTP276	ltpFR	13	n/a	n/a	n/a	n/a	n/a	n/a	19	3	9	7	n/a	n/a	n/a	n/a	n/a
2154783	STOP	n/a	LTP276	ltpFR	13	n/a	n/a	n/a	n/a	n/a	n/a	n/a	n/a	n/a	n/a	n/a	n/a	n/a	n/a	n/a
2156832	REC_START	n/a	LTP276	ltpFR	13	7	n/a	n/a	n/a	n/a	n/a	n/a	0	0	0	n/a	n/a	n/a	n/a	n/a
2159348	REC_WORD_VV	wordpools/wasnorm_wordpool_less_exclusions.txt	LTP276	ltpFR	13	7	n/a	<>	-1	n/a	n/a	n/a	0	0	0	n/a	n/a	n/a	n/a	n/a
2160537	REC_WORD	wordpools/wasnorm_wordpool_less_exclusions.txt	LTP276	ltpFR	13	7	1	GOO	648	n/a	0	n/a	0	0	0	n/a	n/a	n/a	n/a	n/a
2161401	REC_WORD	wordpools/wasnorm_wordpool_less_exclusions.txt	LTP276	ltpFR	13	7	0	ZEBRA	1635	n/a	1	n/a	0	0	0	n/a	n/a	n/a	n/a	n/a
2162326	REC_WORD	wordpools/wasnorm_wordpool_less_exclusions.txt	LTP276	ltpFR	13	7	0	LAKE	796	n/a	1	n/a	0	0	0	n/a	n/a	n/a	n/a	n/a
2169538	REC_WORD	wordpools/wasnorm_wordpool_less_exclusions.txt	LTP276	ltpFR	13	7	0	STALLION	1369	n/a	0	n/a	0	0	0	n/a	n/a	n/a	n/a	n/a
2171415	REC_WORD	wordpools/wasnorm_wordpool_less_exclusions.txt	LTP276	ltpFR	13	7	0	MOLECULE	905	n/a	0	n/a	0	0	0	n/a	n/a	n/a	n/a	n/a
2172540	REC_WORD	wordpools/wasnorm_wordpool_less_exclusions.txt	LTP276	ltpFR	13	7	0	BEAKER	104	n/a	0	n/a	0	0	0	n/a	n/a	n/a	n/a	n/a
2183818	REC_WORD	wordpools/wasnorm_wordpool_less_exclusions.txt	LTP276	ltpFR	13	7	0	ZEBRA	1635	n/a	1	n/a	0	0	0	n/a	n/a	n/a	n/a	n/a
2240815	START	n/a	LTP276	ltpFR	13	n/a	n/a	n/a	n/a	n/a	n/a	n/a	n/a	n/a	n/a	n/a	n/a	n/a	n/a	n/a
2242320	PROB	n/a	LTP276	ltpFR	13	n/a	n/a	n/a	n/a	n/a	n/a	18	3	7	8	n/a	n/a	n/a	n/a	n/a
2244077	PROB	n/a	LTP276	ltpFR	13	n/a	n/a	n/a	n/a	n/a	n/a	17	4	4	9	n/a	n/a	n/a	n/a	n/a
2246318	PROB	n/a	LTP276	ltpFR	13	n/a	n/a	n/a	n/a	n/a	n/a	13	2	4	7	n/a	n/a	n/a	n/a	n/a
2247398	STOP	n/a	LTP276	ltpFR	13	n/a	n/a	n/a	n/a	n/a	n/a	n/a	n/a	n/a	n/a	n/a	n/a	n/a	n/a	n/a
2249815	WORD	wordpools/wasnorm_wordpool_less_exclusions.txt	LTP276	ltpFR	13	8	1	TROUSERS	1510	n/a	0	n/a	0	0	0	1	0.412841796875	0.57763671875	upper	../fonts/amplitud.ttf
2252827	START	n/a	LTP276	ltpFR	13	n/a	n/a	n/a	n/a	n/a	n/a	n/a	n/a	n/a	n/a	n/a	n/a	n/a	n/a	n/a
2253863	PROB	n/a	LTP276	ltpFR	13	n/a	n/a	n/a	n/a	n/a	n/a	13	7	3	3	n/a	n/a	n/a	n/a	n/a
2254849	PROB	n/a	LTP276	ltpFR	13	n/a	n/a	n/a	n/a	n/a	n/a	26	9	9	8	n/a	n/a	n/a	n/a	n/a
2258580	PROB	n/a	LTP276	ltpFR	13	n/a	n/a	n/a	n/a	n/a	n/a	17	9	2	6	n/a	n/a	n/a	n/a	n/a
2259808	STOP	n/a	LTP276	ltpFR	13	n/a	n/a	n/a	n/a	n/a	n/a	n/a	n/a	n/a	n/a	n/a	n/a	n/a	n/a	n/a
2261877	WORD	wordpools/wasnorm_wordpool_less_exclusions.txt	LTP276	ltpFR	13	8	1	BUCKLE	185	n/a	0	n/a	0	0	0	1	0.412841796875	0.57763671875	upper	../fonts/amplitud.ttf
2264889	START	n/a	LTP276	ltpFR	13	n/a	n/a	n/a	n/a	n/a	n/a	n/a	n/a	n/a	n/a	n/a	n/a	n/a	n/a	n/a
2265840	PROB	n/a	LTP276	ltpFR	13	n/a	n/a	n/a	n/a	n/a	n/a	16	4	6	6	n/a	n/a	n/a	n/a	n/a
2268034	PROB	n/a	LTP276	ltpFR	13	n/a	n/a	n/a	n/a	n/a	n/a	20	9	2	9	n/a	n/a	n/a	n/a	n/a
2269320	PROB	n/a	LTP276	ltpFR	13	n/a	n/a	n/a	n/a	n/a	n/a	17	7	2	8	n/a	n/a	n/a	n/a	n/a
2270893	PROB	n/a	LTP276	ltpFR	13	n/a	n/a	n/a	n/a	n/a	n/a	10	2	3	5	n/a	n/a	n/a	n/a	n/a
2271951	STOP	n/a	LTP276	ltpFR	13	n/a	n/a	n/a	n/a	n/a	n/a	n/a	n/a	n/a	n/a	n/a	n/a	n/a	n/a	n/a
2273755	WORD	wordpools/wasnorm_wordpool_less_exclusions.txt	LTP276	ltpFR	13	8	1	JOKER	759	n/a	0	n/a	0	0	0	1	0.412841796875	0.57763671875	upper	../fonts/amplitud.ttf
2276767	START	n/a	LTP276	ltpFR	13	n/a	n/a	n/a	n/a	n/a	n/a	n/a	n/a	n/a	n/a	n/a	n/a	n/a	n/a	n/a
2277585	PROB	n/a	LTP276	ltpFR	13	n/a	n/a	n/a	n/a	n/a	n/a	14	3	5	6	n/a	n/a	n/a	n/a	n/a
2278975	PROB	n/a	LTP276	ltpFR	13	n/a	n/a	n/a	n/a	n/a	n/a	7	3	3	1	n/a	n/a	n/a	n/a	n/a
2281148	PROB	n/a	LTP276	ltpFR	13	n/a	n/a	n/a	n/a	n/a	n/a	20	5	7	8	n/a	n/a	n/a	n/a	n/a
2282972	PROB	n/a	LTP276	ltpFR	13	n/a	n/a	n/a	n/a	n/a	n/a	20	5	7	8	n/a	n/a	n/a	n/a	n/a
2283792	STOP	n/a	LTP276	ltpFR	13	n/a	n/a	n/a	n/a	n/a	n/a	n/a	n/a	n/a	n/a	n/a	n/a	n/a	n/a	n/a
2285667	WORD	wordpools/wasnorm_wordpool_less_exclusions.txt	LTP276	ltpFR	13	8	1	SWORD	1423	n/a	0	n/a	0	0	0	1	0.412841796875	0.57763671875	upper	../fonts/amplitud.ttf
2288679	START	n/a	LTP276	ltpFR	13	n/a	n/a	n/a	n/a	n/a	n/a	n/a	n/a	n/a	n/a	n/a	n/a	n/a	n/a	n/a
2289732	PROB	n/a	LTP276	ltpFR	13	n/a	n/a	n/a	n/a	n/a	n/a	10	5	2	3	n/a	n/a	n/a	n/a	n/a
2291154	PROB	n/a	LTP276	ltpFR	13	n/a	n/a	n/a	n/a	n/a	n/a	18	8	2	8	n/a	n/a	n/a	n/a	n/a
2292439	PROB	n/a	LTP276	ltpFR	13	n/a	n/a	n/a	n/a	n/a	n/a	10	5	1	4	n/a	n/a	n/a	n/a	n/a
2293443	PROB	n/a	LTP276	ltpFR	13	n/a	n/a	n/a	n/a	n/a	n/a	12	5	5	2	n/a	n/a	n/a	n/a	n/a
2294348	PROB	n/a	LTP276	ltpFR	13	n/a	n/a	n/a	n/a	n/a	n/a	18	4	6	8	n/a	n/a	n/a	n/a	n/a
2295983	STOP	n/a	LTP276	ltpFR	13	n/a	n/a	n/a	n/a	n/a	n/a	n/a	n/a	n/a	n/a	n/a	n/a	n/a	n/a	n/a
2297879	WORD	wordpools/wasnorm_wordpool_less_exclusions.txt	LTP276	ltpFR	13	8	1	ALLIGATOR	16	n/a	1	n/a	0	0	0	1	0.412841796875	0.57763671875	upper	../fonts/amplitud.ttf
2300891	START	n/a	LTP276	ltpFR	13	n/a	n/a	n/a	n/a	n/a	n/a	n/a	n/a	n/a	n/a	n/a	n/a	n/a	n/a	n/a
2301811	PROB	n/a	LTP276	ltpFR	13	n/a	n/a	n/a	n/a	n/a	n/a	16	3	7	6	n/a	n/a	n/a	n/a	n/a
2303600	PROB	n/a	LTP276	ltpFR	13	n/a	n/a	n/a	n/a	n/a	n/a	11	2	4	5	n/a	n/a	n/a	n/a	n/a
2304939	PROB	n/a	LTP276	ltpFR	13	n/a	n/a	n/a	n/a	n/a	n/a	7	1	2	4	n/a	n/a	n/a	n/a	n/a
2306027	PROB	n/a	LTP276	ltpFR	13	n/a	n/a	n/a	n/a	n/a	n/a	14	6	5	3	n/a	n/a	n/a	n/a	n/a
2307640	STOP	n/a	LTP276	ltpFR	13	n/a	n/a	n/a	n/a	n/a	n/a	n/a	n/a	n/a	n/a	n/a	n/a	n/a	n/a	n/a
2309941	WORD	wordpools/wasnorm_wordpool_less_exclusions.txt	LTP276	ltpFR	13	8	1	POCKETBOOK	1094	n/a	0	n/a	0	0	0	1	0.412841796875	0.57763671875	upper	../fonts/amplitud.ttf
2312954	START	n/a	LTP276	ltpFR	13	n/a	n/a	n/a	n/a	n/a	n/a	n/a	n/a	n/a	n/a	n/a	n/a	n/a	n/a	n/a
2314090	PROB	n/a	LTP276	ltpFR	13	n/a	n/a	n/a	n/a	n/a	n/a	19	8	8	3	n/a	n/a	n/a	n/a	n/a
2315560	PROB	n/a	LTP276	ltpFR	13	n/a	n/a	n/a	n/a	n/a	n/a	14	8	3	3	n/a	n/a	n/a	n/a	n/a
2317838	PROB	n/a	LTP276	ltpFR	13	n/a	n/a	n/a	n/a	n/a	n/a	5	2	2	1	n/a	n/a	n/a	n/a	n/a
2318775	PROB	n/a	LTP276	ltpFR	13	n/a	n/a	n/a	n/a	n/a	n/a	12	9	2	1	n/a	n/a	n/a	n/a	n/a
2320135	STOP	n/a	LTP276	ltpFR	13	n/a	n/a	n/a	n/a	n/a	n/a	n/a	n/a	n/a	n/a	n/a	n/a	n/a	n/a	n/a
2321820	WORD	wordpools/wasnorm_wordpool_less_exclusions.txt	LTP276	ltpFR	13	8	1	HANDBAG	684	n/a	0	n/a	0	0	0	1	0.412841796875	0.57763671875	upper	../fonts/amplitud.ttf
2324831	START	n/a	LTP276	ltpFR	13	n/a	n/a	n/a	n/a	n/a	n/a	n/a	n/a	n/a	n/a	n/a	n/a	n/a	n/a	n/a
2325835	PROB	n/a	LTP276	ltpFR	13	n/a	n/a	n/a	n/a	n/a	n/a	15	4	3	8	n/a	n/a	n/a	n/a	n/a
2327488	PROB	n/a	LTP276	ltpFR	13	n/a	n/a	n/a	n/a	n/a	n/a	10	2	1	7	n/a	n/a	n/a	n/a	n/a
2329079	PROB	n/a	LTP276	ltpFR	13	n/a	n/a	n/a	n/a	n/a	n/a	13	4	1	8	n/a	n/a	n/a	n/a	n/a
2330735	PROB	n/a	LTP276	ltpFR	13	n/a	n/a	n/a	n/a	n/a	n/a	17	5	7	5	n/a	n/a	n/a	n/a	n/a
2332167	STOP	n/a	LTP276	ltpFR	13	n/a	n/a	n/a	n/a	n/a	n/a	n/a	n/a	n/a	n/a	n/a	n/a	n/a	n/a	n/a
2333748	WORD	wordpools/wasnorm_wordpool_less_exclusions.txt	LTP276	ltpFR	13	8	1	ASSOCIATE	49	n/a	0	n/a	0	0	0	1	0.412841796875	0.57763671875	upper	../fonts/amplitud.ttf
2336760	START	n/a	LTP276	ltpFR	13	n/a	n/a	n/a	n/a	n/a	n/a	n/a	n/a	n/a	n/a	n/a	n/a	n/a	n/a	n/a
2337730	PROB	n/a	LTP276	ltpFR	13	n/a	n/a	n/a	n/a	n/a	n/a	10	4	3	3	n/a	n/a	n/a	n/a	n/a
2339183	PROB	n/a	LTP276	ltpFR	13	n/a	n/a	n/a	n/a	n/a	n/a	10	1	5	4	n/a	n/a	n/a	n/a	n/a
2340271	PROB	n/a	LTP276	ltpFR	13	n/a	n/a	n/a	n/a	n/a	n/a	16	1	6	9	n/a	n/a	n/a	n/a	n/a
2341459	PROB	n/a	LTP276	ltpFR	13	n/a	n/a	n/a	n/a	n/a	n/a	12	6	3	3	n/a	n/a	n/a	n/a	n/a
2342931	PROB	n/a	LTP276	ltpFR	13	n/a	n/a	n/a	n/a	n/a	n/a	7	3	3	1	n/a	n/a	n/a	n/a	n/a
2343919	STOP	n/a	LTP276	ltpFR	13	n/a	n/a	n/a	n/a	n/a	n/a	n/a	n/a	n/a	n/a	n/a	n/a	n/a	n/a	n/a
2345927	WORD	wordpools/wasnorm_wordpool_less_exclusions.txt	LTP276	ltpFR	13	8	1	CELERY	266	n/a	0	n/a	0	0	0	1	0.412841796875	0.57763671875	upper	../fonts/amplitud.ttf
2348939	START	n/a	LTP276	ltpFR	13	n/a	n/a	n/a	n/a	n/a	n/a	n/a	n/a	n/a	n/a	n/a	n/a	n/a	n/a	n/a
2350009	PROB	n/a	LTP276	ltpFR	13	n/a	n/a	n/a	n/a	n/a	n/a	19	4	7	8	n/a	n/a	n/a	n/a	n/a
2351512	PROB	n/a	LTP276	ltpFR	13	n/a	n/a	n/a	n/a	n/a	n/a	20	9	9	2	n/a	n/a	n/a	n/a	n/a
2352734	PROB	n/a	LTP276	ltpFR	13	n/a	n/a	n/a	n/a	n/a	n/a	18	9	6	3	n/a	n/a	n/a	n/a	n/a
2354158	PROB	n/a	LTP276	ltpFR	13	n/a	n/a	n/a	n/a	n/a	n/a	21	8	7	6	n/a	n/a	n/a	n/a	n/a
2356031	STOP	n/a	LTP276	ltpFR	13	n/a	n/a	n/a	n/a	n/a	n/a	n/a	n/a	n/a	n/a	n/a	n/a	n/a	n/a	n/a
2357839	WORD	wordpools/wasnorm_wordpool_less_exclusions.txt	LTP276	ltpFR	13	8	1	SKUNK	1321	n/a	1	n/a	0	0	0	1	0.412841796875	0.57763671875	upper	../fonts/amplitud.ttf
2360851	START	n/a	LTP276	ltpFR	13	n/a	n/a	n/a	n/a	n/a	n/a	n/a	n/a	n/a	n/a	n/a	n/a	n/a	n/a	n/a
2362004	PROB	n/a	LTP276	ltpFR	13	n/a	n/a	n/a	n/a	n/a	n/a	9	7	1	1	n/a	n/a	n/a	n/a	n/a
2363108	PROB	n/a	LTP276	ltpFR	13	n/a	n/a	n/a	n/a	n/a	n/a	19	5	6	8	n/a	n/a	n/a	n/a	n/a
2364731	PROB	n/a	LTP276	ltpFR	13	n/a	n/a	n/a	n/a	n/a	n/a	4	1	1	2	n/a	n/a	n/a	n/a	n/a
2365650	PROB	n/a	LTP276	ltpFR	13	n/a	n/a	n/a	n/a	n/a	n/a	15	6	5	4	n/a	n/a	n/a	n/a	n/a
2366940	PROB	n/a	LTP276	ltpFR	13	n/a	n/a	n/a	n/a	n/a	n/a	17	8	8	1	n/a	n/a	n/a	n/a	n/a
2367951	STOP	n/a	LTP276	ltpFR	13	n/a	n/a	n/a	n/a	n/a	n/a	n/a	n/a	n/a	n/a	n/a	n/a	n/a	n/a	n/a
2369733	WORD	wordpools/wasnorm_wordpool_less_exclusions.txt	LTP276	ltpFR	13	8	1	CIGAR	308	n/a	0	n/a	0	0	0	1	0.412841796875	0.57763671875	upper	../fonts/amplitud.ttf
2372745	START	n/a	LTP276	ltpFR	13	n/a	n/a	n/a	n/a	n/a	n/a	n/a	n/a	n/a	n/a	n/a	n/a	n/a	n/a	n/a
2373816	PROB	n/a	LTP276	ltpFR	13	n/a	n/a	n/a	n/a	n/a	n/a	14	6	7	1	n/a	n/a	n/a	n/a	n/a
2375504	PROB	n/a	LTP276	ltpFR	13	n/a	n/a	n/a	n/a	n/a	n/a	9	1	7	1	n/a	n/a	n/a	n/a	n/a
2376894	PROB	n/a	LTP276	ltpFR	13	n/a	n/a	n/a	n/a	n/a	n/a	19	9	9	1	n/a	n/a	n/a	n/a	n/a
2378599	PROB	n/a	LTP276	ltpFR	13	n/a	n/a	n/a	n/a	n/a	n/a	19	4	9	6	n/a	n/a	n/a	n/a	n/a
2379943	STOP	n/a	LTP276	ltpFR	13	n/a	n/a	n/a	n/a	n/a	n/a	n/a	n/a	n/a	n/a	n/a	n/a	n/a	n/a	n/a
2381660	WORD	wordpools/wasnorm_wordpool_less_exclusions.txt	LTP276	ltpFR	13	8	1	DEER	444	n/a	1	n/a	0	0	0	1	0.412841796875	0.57763671875	upper	../fonts/amplitud.ttf
2384674	START	n/a	LTP276	ltpFR	13	n/a	n/a	n/a	n/a	n/a	n/a	n/a	n/a	n/a	n/a	n/a	n/a	n/a	n/a	n/a
2385660	PROB	n/a	LTP276	ltpFR	13	n/a	n/a	n/a	n/a	n/a	n/a	24	8	8	8	n/a	n/a	n/a	n/a	n/a
2386712	PROB	n/a	LTP276	ltpFR	13	n/a	n/a	n/a	n/a	n/a	n/a	14	4	7	3	n/a	n/a	n/a	n/a	n/a
2387852	PROB	n/a	LTP276	ltpFR	13	n/a	n/a	n/a	n/a	n/a	n/a	7	4	1	2	n/a	n/a	n/a	n/a	n/a
2388939	PROB	n/a	LTP276	ltpFR	13	n/a	n/a	n/a	n/a	n/a	n/a	21	9	8	4	n/a	n/a	n/a	n/a	n/a
2391792	STOP	n/a	LTP276	ltpFR	13	n/a	n/a	n/a	n/a	n/a	n/a	n/a	n/a	n/a	n/a	n/a	n/a	n/a	n/a	n/a
2393875	WORD	wordpools/wasnorm_wordpool_less_exclusions.txt	LTP276	ltpFR	13	8	1	COMPANION	357	n/a	1	n/a	0	0	0	1	0.412841796875	0.57763671875	upper	../fonts/amplitud.ttf
2396886	START	n/a	LTP276	ltpFR	13	n/a	n/a	n/a	n/a	n/a	n/a	n/a	n/a	n/a	n/a	n/a	n/a	n/a	n/a	n/a
2398040	PROB	n/a	LTP276	ltpFR	13	n/a	n/a	n/a	n/a	n/a	n/a	19	2	9	8	n/a	n/a	n/a	n/a	n/a
2399510	PROB	n/a	LTP276	ltpFR	13	n/a	n/a	n/a	n/a	n/a	n/a	15	2	4	9	n/a	n/a	n/a	n/a	n/a
2400884	PROB	n/a	LTP276	ltpFR	13	n/a	n/a	n/a	n/a	n/a	n/a	12	8	2	2	n/a	n/a	n/a	n/a	n/a
2402070	PROB	n/a	LTP276	ltpFR	13	n/a	n/a	n/a	n/a	n/a	n/a	18	4	9	5	n/a	n/a	n/a	n/a	n/a
2403943	STOP	n/a	LTP276	ltpFR	13	n/a	n/a	n/a	n/a	n/a	n/a	n/a	n/a	n/a	n/a	n/a	n/a	n/a	n/a	n/a
2405920	WORD	wordpools/wasnorm_wordpool_less_exclusions.txt	LTP276	ltpFR	13	8	1	CLOWN	330	n/a	0	n/a	0	0	0	1	0.412841796875	0.57763671875	upper	../fonts/amplitud.ttf
2408932	START	n/a	LTP276	ltpFR	13	n/a	n/a	n/a	n/a	n/a	n/a	n/a	n/a	n/a	n/a	n/a	n/a	n/a	n/a	n/a
2409985	PROB	n/a	LTP276	ltpFR	13	n/a	n/a	n/a	n/a	n/a	n/a	8	1	4	3	n/a	n/a	n/a	n/a	n/a
2411022	PROB	n/a	LTP276	ltpFR	13	n/a	n/a	n/a	n/a	n/a	n/a	13	4	6	3	n/a	n/a	n/a	n/a	n/a
2412660	PROB	n/a	LTP276	ltpFR	13	n/a	n/a	n/a	n/a	n/a	n/a	10	6	3	1	n/a	n/a	n/a	n/a	n/a
2414116	PROB	n/a	LTP276	ltpFR	13	n/a	n/a	n/a	n/a	n/a	n/a	18	8	5	5	n/a	n/a	n/a	n/a	n/a
2415155	PROB	n/a	LTP276	ltpFR	13	n/a	n/a	n/a	n/a	n/a	n/a	24	7	8	9	n/a	n/a	n/a	n/a	n/a
2416263	STOP	n/a	LTP276	ltpFR	13	n/a	n/a	n/a	n/a	n/a	n/a	n/a	n/a	n/a	n/a	n/a	n/a	n/a	n/a	n/a
2418032	WORD	wordpools/wasnorm_wordpool_less_exclusions.txt	LTP276	ltpFR	13	8	1	CORN	381	n/a	0	n/a	0	0	0	1	0.412841796875	0.57763671875	upper	../fonts/amplitud.ttf
2421044	START	n/a	LTP276	ltpFR	13	n/a	n/a	n/a	n/a	n/a	n/a	n/a	n/a	n/a	n/a	n/a	n/a	n/a	n/a	n/a
2421914	PROB	n/a	LTP276	ltpFR	13	n/a	n/a	n/a	n/a	n/a	n/a	25	9	7	9	n/a	n/a	n/a	n/a	n/a
2423785	PROB	n/a	LTP276	ltpFR	13	n/a	n/a	n/a	n/a	n/a	n/a	23	6	9	8	n/a	n/a	n/a	n/a	n/a
2427470	STOP	n/a	LTP276	ltpFR	13	n/a	n/a	n/a	n/a	n/a	n/a	n/a	n/a	n/a	n/a	n/a	n/a	n/a	n/a	n/a
2429877	WORD	wordpools/wasnorm_wordpool_less_exclusions.txt	LTP276	ltpFR	13	8	1	SENATE	1267	n/a	0	n/a	0	0	0	1	0.412841796875	0.57763671875	upper	../fonts/amplitud.ttf
2432888	START	n/a	LTP276	ltpFR	13	n/a	n/a	n/a	n/a	n/a	n/a	n/a	n/a	n/a	n/a	n/a	n/a	n/a	n/a	n/a
2433823	PROB	n/a	LTP276	ltpFR	13	n/a	n/a	n/a	n/a	n/a	n/a	9	4	2	3	n/a	n/a	n/a	n/a	n/a
2435314	PROB	n/a	LTP276	ltpFR	13	n/a	n/a	n/a	n/a	n/a	n/a	10	2	6	2	n/a	n/a	n/a	n/a	n/a
2436987	PROB	n/a	LTP276	ltpFR	13	n/a	n/a	n/a	n/a	n/a	n/a	22	6	7	9	n/a	n/a	n/a	n/a	n/a
2438909	PROB	n/a	LTP276	ltpFR	13	n/a	n/a	n/a	n/a	n/a	n/a	18	8	6	4	n/a	n/a	n/a	n/a	n/a
2440727	STOP	n/a	LTP276	ltpFR	13	n/a	n/a	n/a	n/a	n/a	n/a	n/a	n/a	n/a	n/a	n/a	n/a	n/a	n/a	n/a
2442760	REC_START	n/a	LTP276	ltpFR	13	8	n/a	n/a	n/a	n/a	n/a	n/a	0	0	0	n/a	n/a	n/a	n/a	n/a
2446181	REC_WORD	wordpools/wasnorm_wordpool_less_exclusions.txt	LTP276	ltpFR	13	8	1	SKUNK	1321	n/a	1	n/a	0	0	0	n/a	n/a	n/a	n/a	n/a
2447061	REC_WORD	wordpools/wasnorm_wordpool_less_exclusions.txt	LTP276	ltpFR	13	8	1	SENATE	1267	n/a	0	n/a	0	0	0	n/a	n/a	n/a	n/a	n/a
2447766	REC_WORD	wordpools/wasnorm_wordpool_less_exclusions.txt	LTP276	ltpFR	13	8	1	ALLIGATOR	16	n/a	1	n/a	0	0	0	n/a	n/a	n/a	n/a	n/a
2452995	REC_WORD	wordpools/wasnorm_wordpool_less_exclusions.txt	LTP276	ltpFR	13	8	1	CLOWN	330	n/a	0	n/a	0	0	0	n/a	n/a	n/a	n/a	n/a
2474933	REC_WORD	wordpools/wasnorm_wordpool_less_exclusions.txt	LTP276	ltpFR	13	8	1	JOKER	759	n/a	0	n/a	0	0	0	n/a	n/a	n/a	n/a	n/a
2528783	START	n/a	LTP276	ltpFR	13	n/a	n/a	n/a	n/a	n/a	n/a	n/a	n/a	n/a	n/a	n/a	n/a	n/a	n/a	n/a
2530289	PROB	n/a	LTP276	ltpFR	13	n/a	n/a	n/a	n/a	n/a	n/a	9	3	3	3	n/a	n/a	n/a	n/a	n/a
2531373	PROB	n/a	LTP276	ltpFR	13	n/a	n/a	n/a	n/a	n/a	n/a	15	6	8	1	n/a	n/a	n/a	n/a	n/a
2532394	PROB	n/a	LTP276	ltpFR	13	n/a	n/a	n/a	n/a	n/a	n/a	15	4	5	6	n/a	n/a	n/a	n/a	n/a
2533582	PROB	n/a	LTP276	ltpFR	13	n/a	n/a	n/a	n/a	n/a	n/a	9	1	1	7	n/a	n/a	n/a	n/a	n/a
2534587	PROB	n/a	LTP276	ltpFR	13	n/a	n/a	n/a	n/a	n/a	n/a	20	5	6	9	n/a	n/a	n/a	n/a	n/a
2536813	PROB	n/a	LTP276	ltpFR	13	n/a	n/a	n/a	n/a	n/a	n/a	23	7	9	7	n/a	n/a	n/a	n/a	n/a
2538653	PROB	n/a	LTP276	ltpFR	13	n/a	n/a	n/a	n/a	n/a	n/a	9	1	1	7	n/a	n/a	n/a	n/a	n/a
2539789	PROB	n/a	LTP276	ltpFR	13	n/a	n/a	n/a	n/a	n/a	n/a	22	9	7	6	n/a	n/a	n/a	n/a	n/a
2541782	PROB	n/a	LTP276	ltpFR	13	n/a	n/a	n/a	n/a	n/a	n/a	9	4	2	3	n/a	n/a	n/a	n/a	n/a
2543422	STOP	n/a	LTP276	ltpFR	13	n/a	n/a	n/a	n/a	n/a	n/a	n/a	n/a	n/a	n/a	n/a	n/a	n/a	n/a	n/a
2545680	WORD	wordpools/wasnorm_wordpool_less_exclusions.txt	LTP276	ltpFR	13	9	0	OFFICE	972	n/a	1	n/a	0	0	0	0	0.5869140625	0.422607421875	lower	../fonts/zerothre.ttf
2548692	START	n/a	LTP276	ltpFR	13	n/a	n/a	n/a	n/a	n/a	n/a	n/a	n/a	n/a	n/a	n/a	n/a	n/a	n/a	n/a
2549677	PROB	n/a	LTP276	ltpFR	13	n/a	n/a	n/a	n/a	n/a	n/a	20	4	7	9	n/a	n/a	n/a	n/a	n/a
2551100	PROB	n/a	LTP276	ltpFR	13	n/a	n/a	n/a	n/a	n/a	n/a	22	8	9	5	n/a	n/a	n/a	n/a	n/a
2552790	PROB	n/a	LTP276	ltpFR	13	n/a	n/a	n/a	n/a	n/a	n/a	7	4	1	2	n/a	n/a	n/a	n/a	n/a
2553826	PROB	n/a	LTP276	ltpFR	13	n/a	n/a	n/a	n/a	n/a	n/a	14	6	2	6	n/a	n/a	n/a	n/a	n/a
2555449	PROB	n/a	LTP276	ltpFR	13	n/a	n/a	n/a	n/a	n/a	n/a	15	8	6	1	n/a	n/a	n/a	n/a	n/a
2556755	PROB	n/a	LTP276	ltpFR	13	n/a	n/a	n/a	n/a	n/a	n/a	24	8	7	9	n/a	n/a	n/a	n/a	n/a
2558746	PROB	n/a	LTP276	ltpFR	13	n/a	n/a	n/a	n/a	n/a	n/a	17	7	7	3	n/a	n/a	n/a	n/a	n/a
2560501	PROB	n/a	LTP276	ltpFR	13	n/a	n/a	n/a	n/a	n/a	n/a	5	1	2	2	n/a	n/a	n/a	n/a	n/a
2561520	PROB	n/a	LTP276	ltpFR	13	n/a	n/a	n/a	n/a	n/a	n/a	19	7	5	7	n/a	n/a	n/a	n/a	n/a
2563207	STOP	n/a	LTP276	ltpFR	13	n/a	n/a	n/a	n/a	n/a	n/a	n/a	n/a	n/a	n/a	n/a	n/a	n/a	n/a	n/a
2565839	WORD	wordpools/wasnorm_wordpool_less_exclusions.txt	LTP276	ltpFR	13	9	0	GOLD	647	n/a	0	n/a	0	0	0	0	0.5869140625	0.422607421875	lower	../fonts/zerothre.ttf
2568851	START	n/a	LTP276	ltpFR	13	n/a	n/a	n/a	n/a	n/a	n/a	n/a	n/a	n/a	n/a	n/a	n/a	n/a	n/a	n/a
2569888	PROB	n/a	LTP276	ltpFR	13	n/a	n/a	n/a	n/a	n/a	n/a	12	4	7	1	n/a	n/a	n/a	n/a	n/a
2570873	PROB	n/a	LTP276	ltpFR	13	n/a	n/a	n/a	n/a	n/a	n/a	17	8	6	3	n/a	n/a	n/a	n/a	n/a
2572882	PROB	n/a	LTP276	ltpFR	13	n/a	n/a	n/a	n/a	n/a	n/a	7	4	2	1	n/a	n/a	n/a	n/a	n/a
2574154	PROB	n/a	LTP276	ltpFR	13	n/a	n/a	n/a	n/a	n/a	n/a	8	3	2	2	n/a	n/a	n/a	n/a	n/a
2575490	PROB	n/a	LTP276	ltpFR	13	n/a	n/a	n/a	n/a	n/a	n/a	17	7	1	9	n/a	n/a	n/a	n/a	n/a
2577180	PROB	n/a	LTP276	ltpFR	13	n/a	n/a	n/a	n/a	n/a	n/a	12	2	8	2	n/a	n/a	n/a	n/a	n/a
2578286	PROB	n/a	LTP276	ltpFR	13	n/a	n/a	n/a	n/a	n/a	n/a	11	3	4	4	n/a	n/a	n/a	n/a	n/a
2580244	PROB	n/a	LTP276	ltpFR	13	n/a	n/a	n/a	n/a	n/a	n/a	25	9	9	7	n/a	n/a	n/a	n/a	n/a
2582401	PROB	n/a	LTP276	ltpFR	13	n/a	n/a	n/a	n/a	n/a	n/a	19	8	4	7	n/a	n/a	n/a	n/a	n/a
2583704	STOP	n/a	LTP276	ltpFR	13	n/a	n/a	n/a	n/a	n/a	n/a	n/a	n/a	n/a	n/a	n/a	n/a	n/a	n/a	n/a
2585731	WORD	wordpools/wasnorm_wordpool_less_exclusions.txt	LTP276	ltpFR	13	9	0	PIANO	1057	n/a	1	n/a	0	0	0	0	0.5869140625	0.422607421875	lower	../fonts/zerothre.ttf
2588743	START	n/a	LTP276	ltpFR	13	n/a	n/a	n/a	n/a	n/a	n/a	n/a	n/a	n/a	n/a	n/a	n/a	n/a	n/a	n/a
2589644	PROB	n/a	LTP276	ltpFR	13	n/a	n/a	n/a	n/a	n/a	n/a	10	1	2	7	n/a	n/a	n/a	n/a	n/a
2590731	PROB	n/a	LTP276	ltpFR	13	n/a	n/a	n/a	n/a	n/a	n/a	12	4	2	6	n/a	n/a	n/a	n/a	n/a
2592422	PROB	n/a	LTP276	ltpFR	13	n/a	n/a	n/a	n/a	n/a	n/a	15	3	9	3	n/a	n/a	n/a	n/a	n/a
2593778	PROB	n/a	LTP276	ltpFR	13	n/a	n/a	n/a	n/a	n/a	n/a	17	5	4	8	n/a	n/a	n/a	n/a	n/a
2595100	PROB	n/a	LTP276	ltpFR	13	n/a	n/a	n/a	n/a	n/a	n/a	13	7	1	5	n/a	n/a	n/a	n/a	n/a
2596689	PROB	n/a	LTP276	ltpFR	13	n/a	n/a	n/a	n/a	n/a	n/a	18	4	5	9	n/a	n/a	n/a	n/a	n/a
2597843	PROB	n/a	LTP276	ltpFR	13	n/a	n/a	n/a	n/a	n/a	n/a	17	3	7	7	n/a	n/a	n/a	n/a	n/a
2599365	PROB	n/a	LTP276	ltpFR	13	n/a	n/a	n/a	n/a	n/a	n/a	18	5	7	6	n/a	n/a	n/a	n/a	n/a
2601323	PROB	n/a	LTP276	ltpFR	13	n/a	n/a	n/a	n/a	n/a	n/a	22	7	7	8	n/a	n/a	n/a	n/a	n/a
2603903	STOP	n/a	LTP276	ltpFR	13	n/a	n/a	n/a	n/a	n/a	n/a	n/a	n/a	n/a	n/a	n/a	n/a	n/a	n/a	n/a
2605940	WORD	wordpools/wasnorm_wordpool_less_exclusions.txt	LTP276	ltpFR	13	9	1	ANT	25	n/a	0	n/a	0	0	0	1	0.412841796875	0.57763671875	upper	../fonts/amplitud.ttf
2608952	START	n/a	LTP276	ltpFR	13	n/a	n/a	n/a	n/a	n/a	n/a	n/a	n/a	n/a	n/a	n/a	n/a	n/a	n/a	n/a
2609788	PROB	n/a	LTP276	ltpFR	13	n/a	n/a	n/a	n/a	n/a	n/a	13	7	1	5	n/a	n/a	n/a	n/a	n/a
2611194	PROB	n/a	LTP276	ltpFR	13	n/a	n/a	n/a	n/a	n/a	n/a	8	3	3	2	n/a	n/a	n/a	n/a	n/a
2612697	PROB	n/a	LTP276	ltpFR	13	n/a	n/a	n/a	n/a	n/a	n/a	16	9	2	5	n/a	n/a	n/a	n/a	n/a
2615276	PROB	n/a	LTP276	ltpFR	13	n/a	n/a	n/a	n/a	n/a	n/a	16	4	6	6	n/a	n/a	n/a	n/a	n/a
2617449	PROB	n/a	LTP276	ltpFR	13	n/a	n/a	n/a	n/a	n/a	n/a	19	7	4	8	n/a	n/a	n/a	n/a	n/a
2618821	PROB	n/a	LTP276	ltpFR	13	n/a	n/a	n/a	n/a	n/a	n/a	11	5	3	3	n/a	n/a	n/a	n/a	n/a
2620094	PROB	n/a	LTP276	ltpFR	13	n/a	n/a	n/a	n/a	n/a	n/a	19	7	8	4	n/a	n/a	n/a	n/a	n/a
2621782	PROB	n/a	LTP276	ltpFR	13	n/a	n/a	n/a	n/a	n/a	n/a	15	2	7	6	n/a	n/a	n/a	n/a	n/a
2623338	PROB	n/a	LTP276	ltpFR	13	n/a	n/a	n/a	n/a	n/a	n/a	8	4	1	3	n/a	n/a	n/a	n/a	n/a
2624254	STOP	n/a	LTP276	ltpFR	13	n/a	n/a	n/a	n/a	n/a	n/a	n/a	n/a	n/a	n/a	n/a	n/a	n/a	n/a	n/a
2625897	WORD	wordpools/wasnorm_wordpool_less_exclusions.txt	LTP276	ltpFR	13	9	1	ANTEATER	26	n/a	1	n/a	0	0	0	1	0.412841796875	0.57763671875	upper	../fonts/amplitud.ttf
2628911	START	n/a	LTP276	ltpFR	13	n/a	n/a	n/a	n/a	n/a	n/a	n/a	n/a	n/a	n/a	n/a	n/a	n/a	n/a	n/a
2629998	PROB	n/a	LTP276	ltpFR	13	n/a	n/a	n/a	n/a	n/a	n/a	13	4	5	4	n/a	n/a	n/a	n/a	n/a
2631788	PROB	n/a	LTP276	ltpFR	13	n/a	n/a	n/a	n/a	n/a	n/a	15	1	6	8	n/a	n/a	n/a	n/a	n/a
2633124	PROB	n/a	LTP276	ltpFR	13	n/a	n/a	n/a	n/a	n/a	n/a	17	3	8	6	n/a	n/a	n/a	n/a	n/a
2634413	PROB	n/a	LTP276	ltpFR	13	n/a	n/a	n/a	n/a	n/a	n/a	15	5	8	2	n/a	n/a	n/a	n/a	n/a
2635937	PROB	n/a	LTP276	ltpFR	13	n/a	n/a	n/a	n/a	n/a	n/a	11	1	4	6	n/a	n/a	n/a	n/a	n/a
2637574	PROB	n/a	LTP276	ltpFR	13	n/a	n/a	n/a	n/a	n/a	n/a	16	4	8	4	n/a	n/a	n/a	n/a	n/a
2639283	PROB	n/a	LTP276	ltpFR	13	n/a	n/a	n/a	n/a	n/a	n/a	15	5	5	5	n/a	n/a	n/a	n/a	n/a
2640102	PROB	n/a	LTP276	ltpFR	13	n/a	n/a	n/a	n/a	n/a	n/a	11	6	2	3	n/a	n/a	n/a	n/a	n/a
2641405	PROB	n/a	LTP276	ltpFR	13	n/a	n/a	n/a	n/a	n/a	n/a	21	6	8	7	n/a	n/a	n/a	n/a	n/a
2644071	STOP	n/a	LTP276	ltpFR	13	n/a	n/a	n/a	n/a	n/a	n/a	n/a	n/a	n/a	n/a	n/a	n/a	n/a	n/a	n/a
2645757	WORD	wordpools/wasnorm_wordpool_less_exclusions.txt	LTP276	ltpFR	13	9	0	CAGE	218	n/a	1	n/a	0	0	0	0	0.5869140625	0.422607421875	lower	../fonts/zerothre.ttf
2648769	START	n/a	LTP276	ltpFR	13	n/a	n/a	n/a	n/a	n/a	n/a	n/a	n/a	n/a	n/a	n/a	n/a	n/a	n/a	n/a
2649822	PROB	n/a	LTP276	ltpFR	13	n/a	n/a	n/a	n/a	n/a	n/a	9	2	3	4	n/a	n/a	n/a	n/a	n/a
2650891	PROB	n/a	LTP276	ltpFR	13	n/a	n/a	n/a	n/a	n/a	n/a	14	3	9	2	n/a	n/a	n/a	n/a	n/a
2652398	PROB	n/a	LTP276	ltpFR	13	n/a	n/a	n/a	n/a	n/a	n/a	19	6	6	7	n/a	n/a	n/a	n/a	n/a
2653953	PROB	n/a	LTP276	ltpFR	13	n/a	n/a	n/a	n/a	n/a	n/a	12	9	2	1	n/a	n/a	n/a	n/a	n/a
2655643	PROB	n/a	LTP276	ltpFR	13	n/a	n/a	n/a	n/a	n/a	n/a	14	6	3	5	n/a	n/a	n/a	n/a	n/a
2657066	PROB	n/a	LTP276	ltpFR	13	n/a	n/a	n/a	n/a	n/a	n/a	14	7	4	3	n/a	n/a	n/a	n/a	n/a
2658204	PROB	n/a	LTP276	ltpFR	13	n/a	n/a	n/a	n/a	n/a	n/a	17	6	5	6	n/a	n/a	n/a	n/a	n/a
2660078	PROB	n/a	LTP276	ltpFR	13	n/a	n/a	n/a	n/a	n/a	n/a	16	4	3	9	n/a	n/a	n/a	n/a	n/a
2662570	PROB	n/a	LTP276	ltpFR	13	n/a	n/a	n/a	n/a	n/a	n/a	13	4	5	4	n/a	n/a	n/a	n/a	n/a
2663943	STOP	n/a	LTP276	ltpFR	13	n/a	n/a	n/a	n/a	n/a	n/a	n/a	n/a	n/a	n/a	n/a	n/a	n/a	n/a	n/a
2665916	WORD	wordpools/wasnorm_wordpool_less_exclusions.txt	LTP276	ltpFR	13	9	0	PORCUPINE	1107	n/a	1	n/a	0	0	0	0	0.5869140625	0.422607421875	lower	../fonts/zerothre.ttf
2668928	START	n/a	LTP276	ltpFR	13	n/a	n/a	n/a	n/a	n/a	n/a	n/a	n/a	n/a	n/a	n/a	n/a	n/a	n/a	n/a
2670049	PROB	n/a	LTP276	ltpFR	13	n/a	n/a	n/a	n/a	n/a	n/a	15	6	7	2	n/a	n/a	n/a	n/a	n/a
2671287	PROB	n/a	LTP276	ltpFR	13	n/a	n/a	n/a	n/a	n/a	n/a	11	2	5	4	n/a	n/a	n/a	n/a	n/a
2673494	PROB	n/a	LTP276	ltpFR	13	n/a	n/a	n/a	n/a	n/a	n/a	7	3	3	1	n/a	n/a	n/a	n/a	n/a
2674479	PROB	n/a	LTP276	ltpFR	13	n/a	n/a	n/a	n/a	n/a	n/a	15	5	6	4	n/a	n/a	n/a	n/a	n/a
2675569	PROB	n/a	LTP276	ltpFR	13	n/a	n/a	n/a	n/a	n/a	n/a	10	2	2	6	n/a	n/a	n/a	n/a	n/a
2676572	PROB	n/a	LTP276	ltpFR	13	n/a	n/a	n/a	n/a	n/a	n/a	8	3	1	4	n/a	n/a	n/a	n/a	n/a
2677593	PROB	n/a	LTP276	ltpFR	13	n/a	n/a	n/a	n/a	n/a	n/a	17	8	5	4	n/a	n/a	n/a	n/a	n/a
2679986	PROB	n/a	LTP276	ltpFR	13	n/a	n/a	n/a	n/a	n/a	n/a	13	1	5	7	n/a	n/a	n/a	n/a	n/a
2681291	PROB	n/a	LTP276	ltpFR	13	n/a	n/a	n/a	n/a	n/a	n/a	15	6	6	3	n/a	n/a	n/a	n/a	n/a
2682312	PROB	n/a	LTP276	ltpFR	13	n/a	n/a	n/a	n/a	n/a	n/a	8	2	3	3	n/a	n/a	n/a	n/a	n/a
2683332	PROB	n/a	LTP276	ltpFR	13	n/a	n/a	n/a	n/a	n/a	n/a	15	9	3	3	n/a	n/a	n/a	n/a	n/a
2684695	STOP	n/a	LTP276	ltpFR	13	n/a	n/a	n/a	n/a	n/a	n/a	n/a	n/a	n/a	n/a	n/a	n/a	n/a	n/a	n/a
2685975	WORD	wordpools/wasnorm_wordpool_less_exclusions.txt	LTP276	ltpFR	13	9	0	FRUIT	610	n/a	0	n/a	0	0	0	0	0.5869140625	0.422607421875	lower	../fonts/zerothre.ttf
2688987	START	n/a	LTP276	ltpFR	13	n/a	n/a	n/a	n/a	n/a	n/a	n/a	n/a	n/a	n/a	n/a	n/a	n/a	n/a	n/a
2690108	PROB	n/a	LTP276	ltpFR	13	n/a	n/a	n/a	n/a	n/a	n/a	8	1	2	5	n/a	n/a	n/a	n/a	n/a
2691829	PROB	n/a	LTP276	ltpFR	13	n/a	n/a	n/a	n/a	n/a	n/a	18	9	1	8	n/a	n/a	n/a	n/a	n/a
2693486	PROB	n/a	LTP276	ltpFR	13	n/a	n/a	n/a	n/a	n/a	n/a	10	2	4	4	n/a	n/a	n/a	n/a	n/a
2694440	PROB	n/a	LTP276	ltpFR	13	n/a	n/a	n/a	n/a	n/a	n/a	21	4	9	8	n/a	n/a	n/a	n/a	n/a
2697919	PROB	n/a	LTP276	ltpFR	13	n/a	n/a	n/a	n/a	n/a	n/a	16	3	5	8	n/a	n/a	n/a	n/a	n/a
2699390	PROB	n/a	LTP276	ltpFR	13	n/a	n/a	n/a	n/a	n/a	n/a	14	2	4	8	n/a	n/a	n/a	n/a	n/a
2701015	PROB	n/a	LTP276	ltpFR	13	n/a	n/a	n/a	n/a	n/a	n/a	23	6	8	9	n/a	n/a	n/a	n/a	n/a
2703640	STOP	n/a	LTP276	ltpFR	13	n/a	n/a	n/a	n/a	n/a	n/a	n/a	n/a	n/a	n/a	n/a	n/a	n/a	n/a	n/a
2705884	WORD	wordpools/wasnorm_wordpool_less_exclusions.txt	LTP276	ltpFR	13	9	0	TOMATO	1476	n/a	0	n/a	0	0	0	0	0.5869140625	0.422607421875	lower	../fonts/zerothre.ttf
2708896	START	n/a	LTP276	ltpFR	13	n/a	n/a	n/a	n/a	n/a	n/a	n/a	n/a	n/a	n/a	n/a	n/a	n/a	n/a	n/a
2709899	PROB	n/a	LTP276	ltpFR	13	n/a	n/a	n/a	n/a	n/a	n/a	12	4	7	1	n/a	n/a	n/a	n/a	n/a
2711220	PROB	n/a	LTP276	ltpFR	13	n/a	n/a	n/a	n/a	n/a	n/a	16	7	4	5	n/a	n/a	n/a	n/a	n/a
2713312	PROB	n/a	LTP276	ltpFR	13	n/a	n/a	n/a	n/a	n/a	n/a	16	2	9	5	n/a	n/a	n/a	n/a	n/a
2715336	PROB	n/a	LTP276	ltpFR	13	n/a	n/a	n/a	n/a	n/a	n/a	21	9	7	5	n/a	n/a	n/a	n/a	n/a
2716842	PROB	n/a	LTP276	ltpFR	13	n/a	n/a	n/a	n/a	n/a	n/a	18	1	9	8	n/a	n/a	n/a	n/a	n/a
2718113	PROB	n/a	LTP276	ltpFR	13	n/a	n/a	n/a	n/a	n/a	n/a	14	6	4	4	n/a	n/a	n/a	n/a	n/a
2719835	PROB	n/a	LTP276	ltpFR	13	n/a	n/a	n/a	n/a	n/a	n/a	5	2	1	2	n/a	n/a	n/a	n/a	n/a
2720656	PROB	n/a	LTP276	ltpFR	13	n/a	n/a	n/a	n/a	n/a	n/a	6	1	2	3	n/a	n/a	n/a	n/a	n/a
2721677	PROB	n/a	LTP276	ltpFR	13	n/a	n/a	n/a	n/a	n/a	n/a	14	8	3	3	n/a	n/a	n/a	n/a	n/a
2722863	PROB	n/a	LTP276	ltpFR	13	n/a	n/a	n/a	n/a	n/a	n/a	9	4	3	2	n/a	n/a	n/a	n/a	n/a
2723919	STOP	n/a	LTP276	ltpFR	13	n/a	n/a	n/a	n/a	n/a	n/a	n/a	n/a	n/a	n/a	n/a	n/a	n/a	n/a	n/a
2726093	WORD	wordpools/wasnorm_wordpool_less_exclusions.txt	LTP276	ltpFR	13	9	0	TUB	1514	n/a	0	n/a	0	0	0	0	0.5869140625	0.422607421875	lower	../fonts/zerothre.ttf
2729105	START	n/a	LTP276	ltpFR	13	n/a	n/a	n/a	n/a	n/a	n/a	n/a	n/a	n/a	n/a	n/a	n/a	n/a	n/a	n/a
2730242	PROB	n/a	LTP276	ltpFR	13	n/a	n/a	n/a	n/a	n/a	n/a	16	8	3	5	n/a	n/a	n/a	n/a	n/a
2731612	PROB	n/a	LTP276	ltpFR	13	n/a	n/a	n/a	n/a	n/a	n/a	16	2	8	6	n/a	n/a	n/a	n/a	n/a
2732984	PROB	n/a	LTP276	ltpFR	13	n/a	n/a	n/a	n/a	n/a	n/a	19	4	7	8	n/a	n/a	n/a	n/a	n/a
2734373	PROB	n/a	LTP276	ltpFR	13	n/a	n/a	n/a	n/a	n/a	n/a	14	5	6	3	n/a	n/a	n/a	n/a	n/a
2735678	PROB	n/a	LTP276	ltpFR	13	n/a	n/a	n/a	n/a	n/a	n/a	20	8	6	6	n/a	n/a	n/a	n/a	n/a
2737217	PROB	n/a	LTP276	ltpFR	13	n/a	n/a	n/a	n/a	n/a	n/a	12	7	4	1	n/a	n/a	n/a	n/a	n/a
2738338	PROB	n/a	LTP276	ltpFR	13	n/a	n/a	n/a	n/a	n/a	n/a	16	5	7	4	n/a	n/a	n/a	n/a	n/a
2739979	PROB	n/a	LTP276	ltpFR	13	n/a	n/a	n/a	n/a	n/a	n/a	20	6	7	7	n/a	n/a	n/a	n/a	n/a
2741652	PROB	n/a	LTP276	ltpFR	13	n/a	n/a	n/a	n/a	n/a	n/a	16	5	4	7	n/a	n/a	n/a	n/a	n/a
2743357	PROB	n/a	LTP276	ltpFR	13	n/a	n/a	n/a	n/a	n/a	n/a	12	7	4	1	n/a	n/a	n/a	n/a	n/a
2744510	STOP	n/a	LTP276	ltpFR	13	n/a	n/a	n/a	n/a	n/a	n/a	n/a	n/a	n/a	n/a	n/a	n/a	n/a	n/a	n/a
2746119	WORD	wordpools/wasnorm_wordpool_less_exclusions.txt	LTP276	ltpFR	13	9	1	PIER	1063	n/a	0	n/a	0	0	0	1	0.412841796875	0.57763671875	upper	../fonts/amplitud.ttf
2749131	START	n/a	LTP276	ltpFR	13	n/a	n/a	n/a	n/a	n/a	n/a	n/a	n/a	n/a	n/a	n/a	n/a	n/a	n/a	n/a
2750217	PROB	n/a	LTP276	ltpFR	13	n/a	n/a	n/a	n/a	n/a	n/a	9	3	4	2	n/a	n/a	n/a	n/a	n/a
2751536	PROB	n/a	LTP276	ltpFR	13	n/a	n/a	n/a	n/a	n/a	n/a	14	7	5	2	n/a	n/a	n/a	n/a	n/a
2752540	PROB	n/a	LTP276	ltpFR	13	n/a	n/a	n/a	n/a	n/a	n/a	15	7	6	2	n/a	n/a	n/a	n/a	n/a
2754516	PROB	n/a	LTP276	ltpFR	13	n/a	n/a	n/a	n/a	n/a	n/a	15	6	1	8	n/a	n/a	n/a	n/a	n/a
2755753	PROB	n/a	LTP276	ltpFR	13	n/a	n/a	n/a	n/a	n/a	n/a	23	9	5	9	n/a	n/a	n/a	n/a	n/a
2757544	PROB	n/a	LTP276	ltpFR	13	n/a	n/a	n/a	n/a	n/a	n/a	14	5	1	8	n/a	n/a	n/a	n/a	n/a
2759151	PROB	n/a	LTP276	ltpFR	13	n/a	n/a	n/a	n/a	n/a	n/a	11	1	9	1	n/a	n/a	n/a	n/a	n/a
2760172	PROB	n/a	LTP276	ltpFR	13	n/a	n/a	n/a	n/a	n/a	n/a	17	3	8	6	n/a	n/a	n/a	n/a	n/a
2761457	PROB	n/a	LTP276	ltpFR	13	n/a	n/a	n/a	n/a	n/a	n/a	18	2	8	8	n/a	n/a	n/a	n/a	n/a
2762897	PROB	n/a	LTP276	ltpFR	13	n/a	n/a	n/a	n/a	n/a	n/a	15	7	2	6	n/a	n/a	n/a	n/a	n/a
2764415	STOP	n/a	LTP276	ltpFR	13	n/a	n/a	n/a	n/a	n/a	n/a	n/a	n/a	n/a	n/a	n/a	n/a	n/a	n/a	n/a
2765977	WORD	wordpools/wasnorm_wordpool_less_exclusions.txt	LTP276	ltpFR	13	9	1	BRUSH	182	n/a	2	n/a	0	0	0	1	0.412841796875	0.57763671875	upper	../fonts/amplitud.ttf
2767165	KEY_MSG	n/a	LTP276	ltpFR	13	9	n/a	n/a	n/a	n/a	n/a	n/a	0	0	0	n/a	n/a	n/a	n/a	n/a
2768989	START	n/a	LTP276	ltpFR	13	n/a	n/a	n/a	n/a	n/a	n/a	n/a	n/a	n/a	n/a	n/a	n/a	n/a	n/a	n/a
2769975	PROB	n/a	LTP276	ltpFR	13	n/a	n/a	n/a	n/a	n/a	n/a	9	2	4	3	n/a	n/a	n/a	n/a	n/a
2770996	PROB	n/a	LTP276	ltpFR	13	n/a	n/a	n/a	n/a	n/a	n/a	14	3	7	4	n/a	n/a	n/a	n/a	n/a
2772234	PROB	n/a	LTP276	ltpFR	13	n/a	n/a	n/a	n/a	n/a	n/a	15	4	6	5	n/a	n/a	n/a	n/a	n/a
2773586	PROB	n/a	LTP276	ltpFR	13	n/a	n/a	n/a	n/a	n/a	n/a	18	8	7	3	n/a	n/a	n/a	n/a	n/a
2775560	PROB	n/a	LTP276	ltpFR	13	n/a	n/a	n/a	n/a	n/a	n/a	21	3	9	9	n/a	n/a	n/a	n/a	n/a
2776834	PROB	n/a	LTP276	ltpFR	13	n/a	n/a	n/a	n/a	n/a	n/a	15	8	5	2	n/a	n/a	n/a	n/a	n/a
2778288	PROB	n/a	LTP276	ltpFR	13	n/a	n/a	n/a	n/a	n/a	n/a	13	8	2	3	n/a	n/a	n/a	n/a	n/a
2779777	PROB	n/a	LTP276	ltpFR	13	n/a	n/a	n/a	n/a	n/a	n/a	12	4	7	1	n/a	n/a	n/a	n/a	n/a
2780967	PROB	n/a	LTP276	ltpFR	13	n/a	n/a	n/a	n/a	n/a	n/a	18	9	2	7	n/a	n/a	n/a	n/a	n/a
2782755	PROB	n/a	LTP276	ltpFR	13	n/a	n/a	n/a	n/a	n/a	n/a	7	2	2	3	n/a	n/a	n/a	n/a	n/a
2784279	STOP	n/a	LTP276	ltpFR	13	n/a	n/a	n/a	n/a	n/a	n/a	n/a	n/a	n/a	n/a	n/a	n/a	n/a	n/a	n/a
2786036	WORD	wordpools/wasnorm_wordpool_less_exclusions.txt	LTP276	ltpFR	13	9	1	KNIGHT	786	n/a	0	n/a	0	0	0	1	0.412841796875	0.57763671875	upper	../fonts/amplitud.ttf
2789048	START	n/a	LTP276	ltpFR	13	n/a	n/a	n/a	n/a	n/a	n/a	n/a	n/a	n/a	n/a	n/a	n/a	n/a	n/a	n/a
2790218	PROB	n/a	LTP276	ltpFR	13	n/a	n/a	n/a	n/a	n/a	n/a	8	1	2	5	n/a	n/a	n/a	n/a	n/a
2791672	PROB	n/a	LTP276	ltpFR	13	n/a	n/a	n/a	n/a	n/a	n/a	10	5	4	1	n/a	n/a	n/a	n/a	n/a
2794233	PROB	n/a	LTP276	ltpFR	13	n/a	n/a	n/a	n/a	n/a	n/a	10	7	1	2	n/a	n/a	n/a	n/a	n/a
2795352	PROB	n/a	LTP276	ltpFR	13	n/a	n/a	n/a	n/a	n/a	n/a	19	6	9	4	n/a	n/a	n/a	n/a	n/a
2796960	PROB	n/a	LTP276	ltpFR	13	n/a	n/a	n/a	n/a	n/a	n/a	17	9	6	2	n/a	n/a	n/a	n/a	n/a
2798549	PROB	n/a	LTP276	ltpFR	13	n/a	n/a	n/a	n/a	n/a	n/a	18	4	8	6	n/a	n/a	n/a	n/a	n/a
2800206	PROB	n/a	LTP276	ltpFR	13	n/a	n/a	n/a	n/a	n/a	n/a	19	8	6	4	n/a	n/a	n/a	n/a	n/a
2801491	PROB	n/a	LTP276	ltpFR	13	n/a	n/a	n/a	n/a	n/a	n/a	16	8	2	6	n/a	n/a	n/a	n/a	n/a
2803727	STOP	n/a	LTP276	ltpFR	13	n/a	n/a	n/a	n/a	n/a	n/a	n/a	n/a	n/a	n/a	n/a	n/a	n/a	n/a	n/a
2805894	WORD	wordpools/wasnorm_wordpool_less_exclusions.txt	LTP276	ltpFR	13	9	1	ZOO	1637	n/a	0	n/a	0	0	0	1	0.412841796875	0.57763671875	upper	../fonts/amplitud.ttf
2808906	START	n/a	LTP276	ltpFR	13	n/a	n/a	n/a	n/a	n/a	n/a	n/a	n/a	n/a	n/a	n/a	n/a	n/a	n/a	n/a
2809842	PROB	n/a	LTP276	ltpFR	13	n/a	n/a	n/a	n/a	n/a	n/a	19	5	9	5	n/a	n/a	n/a	n/a	n/a
2811347	PROB	n/a	LTP276	ltpFR	13	n/a	n/a	n/a	n/a	n/a	n/a	16	9	5	2	n/a	n/a	n/a	n/a	n/a
2813004	PROB	n/a	LTP276	ltpFR	13	n/a	n/a	n/a	n/a	n/a	n/a	14	9	1	4	n/a	n/a	n/a	n/a	n/a
2814159	PROB	n/a	LTP276	ltpFR	13	n/a	n/a	n/a	n/a	n/a	n/a	19	8	9	4	n/a	n/a	n/a	n/a	n/a
2815580	PROB	n/a	LTP276	ltpFR	13	n/a	n/a	n/a	n/a	n/a	n/a	19	8	7	4	n/a	n/a	n/a	n/a	n/a
2818023	PROB	n/a	LTP276	ltpFR	13	n/a	n/a	n/a	n/a	n/a	n/a	20	5	8	7	n/a	n/a	n/a	n/a	n/a
2820515	PROB	n/a	LTP276	ltpFR	13	n/a	n/a	n/a	n/a	n/a	n/a	4	2	1	1	n/a	n/a	n/a	n/a	n/a
2821368	PROB	n/a	LTP276	ltpFR	13	n/a	n/a	n/a	n/a	n/a	n/a	11	3	3	5	n/a	n/a	n/a	n/a	n/a
2822589	PROB	n/a	LTP276	ltpFR	13	n/a	n/a	n/a	n/a	n/a	n/a	19	7	5	7	n/a	n/a	n/a	n/a	n/a
2824463	STOP	n/a	LTP276	ltpFR	13	n/a	n/a	n/a	n/a	n/a	n/a	n/a	n/a	n/a	n/a	n/a	n/a	n/a	n/a	n/a
2825903	WORD	wordpools/wasnorm_wordpool_less_exclusions.txt	LTP276	ltpFR	13	9	1	MANAGER	863	n/a	0	n/a	0	0	0	1	0.412841796875	0.57763671875	upper	../fonts/amplitud.ttf
2828915	START	n/a	LTP276	ltpFR	13	n/a	n/a	n/a	n/a	n/a	n/a	n/a	n/a	n/a	n/a	n/a	n/a	n/a	n/a	n/a
2829951	PROB	n/a	LTP276	ltpFR	13	n/a	n/a	n/a	n/a	n/a	n/a	22	7	8	7	n/a	n/a	n/a	n/a	n/a
2831573	PROB	n/a	LTP276	ltpFR	13	n/a	n/a	n/a	n/a	n/a	n/a	12	4	6	2	n/a	n/a	n/a	n/a	n/a
2832693	PROB	n/a	LTP276	ltpFR	13	n/a	n/a	n/a	n/a	n/a	n/a	7	3	3	1	n/a	n/a	n/a	n/a	n/a
2833665	PROB	n/a	LTP276	ltpFR	13	n/a	n/a	n/a	n/a	n/a	n/a	11	1	2	8	n/a	n/a	n/a	n/a	n/a
2834753	PROB	n/a	LTP276	ltpFR	13	n/a	n/a	n/a	n/a	n/a	n/a	26	9	9	8	n/a	n/a	n/a	n/a	n/a
2836961	PROB	n/a	LTP276	ltpFR	13	n/a	n/a	n/a	n/a	n/a	n/a	17	3	5	9	n/a	n/a	n/a	n/a	n/a
2838666	PROB	n/a	LTP276	ltpFR	13	n/a	n/a	n/a	n/a	n/a	n/a	9	3	3	3	n/a	n/a	n/a	n/a	n/a
2839638	PROB	n/a	LTP276	ltpFR	13	n/a	n/a	n/a	n/a	n/a	n/a	13	1	6	6	n/a	n/a	n/a	n/a	n/a
2840725	PROB	n/a	LTP276	ltpFR	13	n/a	n/a	n/a	n/a	n/a	n/a	14	6	2	6	n/a	n/a	n/a	n/a	n/a
2842214	PROB	n/a	LTP276	ltpFR	13	n/a	n/a	n/a	n/a	n/a	n/a	24	9	6	9	n/a	n/a	n/a	n/a	n/a
2843511	STOP	n/a	LTP276	ltpFR	13	n/a	n/a	n/a	n/a	n/a	n/a	n/a	n/a	n/a	n/a	n/a	n/a	n/a	n/a	n/a
2845878	WORD	wordpools/wasnorm_wordpool_less_exclusions.txt	LTP276	ltpFR	13	9	1	NICKEL	950	n/a	0	n/a	0	0	0	1	0.412841796875	0.57763671875	upper	../fonts/amplitud.ttf
2848890	START	n/a	LTP276	ltpFR	13	n/a	n/a	n/a	n/a	n/a	n/a	n/a	n/a	n/a	n/a	n/a	n/a	n/a	n/a	n/a
2849893	PROB	n/a	LTP276	ltpFR	13	n/a	n/a	n/a	n/a	n/a	n/a	22	7	7	8	n/a	n/a	n/a	n/a	n/a
2851415	PROB	n/a	LTP276	ltpFR	13	n/a	n/a	n/a	n/a	n/a	n/a	22	4	9	9	n/a	n/a	n/a	n/a	n/a
2852720	PROB	n/a	LTP276	ltpFR	13	n/a	n/a	n/a	n/a	n/a	n/a	21	7	6	9	n/a	n/a	n/a	n/a	n/a
2854142	PROB	n/a	LTP276	ltpFR	13	n/a	n/a	n/a	n/a	n/a	n/a	15	2	5	8	n/a	n/a	n/a	n/a	n/a
2856987	PROB	n/a	LTP276	ltpFR	13	n/a	n/a	n/a	n/a	n/a	n/a	11	4	6	3	n/a	n/a	n/a	n/a	n/a
2858372	PROB	n/a	LTP276	ltpFR	13	n/a	n/a	n/a	n/a	n/a	n/a	14	2	8	4	n/a	n/a	n/a	n/a	n/a
2860634	PROB	n/a	LTP276	ltpFR	13	n/a	n/a	n/a	n/a	n/a	n/a	11	4	1	6	n/a	n/a	n/a	n/a	n/a
2862089	PROB	n/a	LTP276	ltpFR	13	n/a	n/a	n/a	n/a	n/a	n/a	18	2	7	9	n/a	n/a	n/a	n/a	n/a
2863422	STOP	n/a	LTP276	ltpFR	13	n/a	n/a	n/a	n/a	n/a	n/a	n/a	n/a	n/a	n/a	n/a	n/a	n/a	n/a	n/a
2866808	REC_START	n/a	LTP276	ltpFR	13	9	n/a	n/a	n/a	n/a	n/a	n/a	0	0	0	n/a	n/a	n/a	n/a	n/a
2867469	REC_WORD	wordpools/wasnorm_wordpool_less_exclusions.txt	LTP276	ltpFR	13	9	1	KNIGHT	786	n/a	0	n/a	0	0	0	n/a	n/a	n/a	n/a	n/a
2867843	REC_WORD	wordpools/wasnorm_wordpool_less_exclusions.txt	LTP276	ltpFR	13	9	1	NICKEL	950	n/a	0	n/a	0	0	0	n/a	n/a	n/a	n/a	n/a
2872420	REC_WORD_VV	wordpools/wasnorm_wordpool_less_exclusions.txt	LTP276	ltpFR	13	9	n/a	<>	-1	n/a	n/a	n/a	0	0	0	n/a	n/a	n/a	n/a	n/a
2873153	REC_WORD	wordpools/wasnorm_wordpool_less_exclusions.txt	LTP276	ltpFR	13	9	1	MANAGER	863	n/a	0	n/a	0	0	0	n/a	n/a	n/a	n/a	n/a
2876243	REC_WORD	wordpools/wasnorm_wordpool_less_exclusions.txt	LTP276	ltpFR	13	9	1	ZOO	1637	n/a	0	n/a	0	0	0	n/a	n/a	n/a	n/a	n/a
2884183	REC_WORD	wordpools/wasnorm_wordpool_less_exclusions.txt	LTP276	ltpFR	13	9	0	TUB	1514	n/a	0	n/a	0	0	0	n/a	n/a	n/a	n/a	n/a
2885563	REC_WORD	wordpools/wasnorm_wordpool_less_exclusions.txt	LTP276	ltpFR	13	9	1	ANT	25	n/a	0	n/a	0	0	0	n/a	n/a	n/a	n/a	n/a
2887493	REC_WORD	wordpools/wasnorm_wordpool_less_exclusions.txt	LTP276	ltpFR	13	9	1	ANTEATER	26	n/a	1	n/a	0	0	0	n/a	n/a	n/a	n/a	n/a
2897615	REC_WORD	wordpools/wasnorm_wordpool_less_exclusions.txt	LTP276	ltpFR	13	9	1	ASSOCIATE	49	n/a	0	n/a	0	0	0	n/a	n/a	n/a	n/a	n/a
2950690	WORD	wordpools/wasnorm_wordpool_less_exclusions.txt	LTP276	ltpFR	13	10	0	PATIO	1025	n/a	0	n/a	0	0	0	0	0.5869140625	0.422607421875	lower	../fonts/zerothre.ttf
2954688	WORD	wordpools/wasnorm_wordpool_less_exclusions.txt	LTP276	ltpFR	13	10	0	CATCHER	258	n/a	0	n/a	0	0	0	0	0.5869140625	0.422607421875	lower	../fonts/zerothre.ttf
2958651	WORD	wordpools/wasnorm_wordpool_less_exclusions.txt	LTP276	ltpFR	13	10	0	DAM	436	n/a	1	n/a	0	0	0	0	0.5869140625	0.422607421875	lower	../fonts/zerothre.ttf
2962802	WORD	wordpools/wasnorm_wordpool_less_exclusions.txt	LTP276	ltpFR	13	10	0	JUG	762	n/a	0	n/a	0	0	0	0	0.5869140625	0.422607421875	lower	../fonts/zerothre.ttf
2966968	WORD	wordpools/wasnorm_wordpool_less_exclusions.txt	LTP276	ltpFR	13	10	0	PAINT	1003	n/a	0	n/a	0	0	0	0	0.5869140625	0.422607421875	lower	../fonts/zerothre.ttf
2970964	WORD	wordpools/wasnorm_wordpool_less_exclusions.txt	LTP276	ltpFR	13	10	0	CELLO	268	n/a	1	n/a	0	0	0	0	0.5869140625	0.422607421875	lower	../fonts/zerothre.ttf
2975082	WORD	wordpools/wasnorm_wordpool_less_exclusions.txt	LTP276	ltpFR	13	10	0	HARP	689	n/a	1	n/a	0	0	0	0	0.5869140625	0.422607421875	lower	../fonts/zerothre.ttf
2979197	WORD	wordpools/wasnorm_wordpool_less_exclusions.txt	LTP276	ltpFR	13	10	0	CRACKER	398	n/a	0	n/a	0	0	0	0	0.5869140625	0.422607421875	lower	../fonts/zerothre.ttf
2983162	WORD	wordpools/wasnorm_wordpool_less_exclusions.txt	LTP276	ltpFR	13	10	0	FOOTBALL	591	n/a	1	n/a	0	0	0	0	0.5869140625	0.422607421875	lower	../fonts/zerothre.ttf
2987227	WORD	wordpools/wasnorm_wordpool_less_exclusions.txt	LTP276	ltpFR	13	10	0	CUSHION	428	n/a	0	n/a	0	0	0	0	0.5869140625	0.422607421875	lower	../fonts/zerothre.ttf
