mstime	trial_type	stim_file	subject	experiment	session	trial	task	item_name	item_num	recog_resp	recog_conf	resp	color_r	color_g	color_b	case	font
0	SESS_START	n/a	LTP244	ltpFR	2	n/a	n/a	n/a	n/a	0	3	n/a	n/a	n/a	n/a	n/a	n/a
77881	WORD	wordpools/wasnorm_wordpool_less_exclusions.txt	LTP244	ltpFR	2	1	1	SCREEN	1253	0	n/a	0	0.57763671875	0.412841796875	1	lower	amplitud.ttf
81946	WORD	wordpools/wasnorm_wordpool_less_exclusions.txt	LTP244	ltpFR	2	1	1	COCOON	339	n/a	n/a	0	0.57763671875	0.412841796875	1	lower	amplitud.ttf
86158	WORD	wordpools/wasnorm_wordpool_less_exclusions.txt	LTP244	ltpFR	2	1	0	JUG	762	n/a	n/a	3	0.422607421875	0.5869140625	0	upper	zerothre.ttf
87066	KEY_MSG	n/a	LTP244	ltpFR	2	1	n/a	n/a	n/a	n/a	n/a	n/a	n/a	n/a	n/a	n/a	n/a
90361	WORD	wordpools/wasnorm_wordpool_less_exclusions.txt	LTP244	ltpFR	2	1	0	JUNGLE	764	n/a	n/a	1	0.422607421875	0.5869140625	0	upper	zerothre.ttf
94505	WORD	wordpools/wasnorm_wordpool_less_exclusions.txt	LTP244	ltpFR	2	1	1	NEST	945	n/a	n/a	0	0.57763671875	0.412841796875	1	lower	amplitud.ttf
98726	WORD	wordpools/wasnorm_wordpool_less_exclusions.txt	LTP244	ltpFR	2	1	1	BAIT	70	n/a	n/a	0	0.57763671875	0.412841796875	1	lower	amplitud.ttf
102808	WORD	wordpools/wasnorm_wordpool_less_exclusions.txt	LTP244	ltpFR	2	1	1	GARAGE	621	n/a	n/a	0	0.57763671875	0.412841796875	1	lower	amplitud.ttf
106907	WORD	wordpools/wasnorm_wordpool_less_exclusions.txt	LTP244	ltpFR	2	1	1	HUMAN	726	n/a	n/a	1	0.57763671875	0.412841796875	1	lower	amplitud.ttf
110939	WORD	wordpools/wasnorm_wordpool_less_exclusions.txt	LTP244	ltpFR	2	1	0	UNCLE	1536	n/a	n/a	1	0.422607421875	0.5869140625	0	upper	zerothre.ttf
114870	WORD	wordpools/wasnorm_wordpool_less_exclusions.txt	LTP244	ltpFR	2	1	0	CANARY	227	n/a	n/a	0	0.422607421875	0.5869140625	0	upper	zerothre.ttf
118969	WORD	wordpools/wasnorm_wordpool_less_exclusions.txt	LTP244	ltpFR	2	1	0	STEAM	1375	n/a	n/a	1	0.422607421875	0.5869140625	0	upper	zerothre.ttf
123047	WORD	wordpools/wasnorm_wordpool_less_exclusions.txt	LTP244	ltpFR	2	1	0	WEED	1599	n/a	n/a	0	0.422607421875	0.5869140625	0	upper	zerothre.ttf
126979	WORD	wordpools/wasnorm_wordpool_less_exclusions.txt	LTP244	ltpFR	2	1	0	TULIP	1517	n/a	n/a	0	0.422607421875	0.5869140625	0	upper	zerothre.ttf
130948	WORD	wordpools/wasnorm_wordpool_less_exclusions.txt	LTP244	ltpFR	2	1	0	RAIL	1161	n/a	n/a	1	0.422607421875	0.5869140625	0	upper	zerothre.ttf
134812	WORD	wordpools/wasnorm_wordpool_less_exclusions.txt	LTP244	ltpFR	2	1	1	SEAFOOD	1260	n/a	n/a	0	0.57763671875	0.412841796875	1	lower	amplitud.ttf
139011	WORD	wordpools/wasnorm_wordpool_less_exclusions.txt	LTP244	ltpFR	2	1	1	SQUID	1361	n/a	n/a	0	0.57763671875	0.412841796875	1	lower	amplitud.ttf
144901	REC_START	n/a	LTP244	ltpFR	2	1	n/a	n/a	n/a	n/a	n/a	n/a	n/a	n/a	n/a	n/a	n/a
146248	REC_WORD	wordpools/wasnorm_wordpool_less_exclusions.txt	LTP244	ltpFR	2	1	1	SQUID	1361	n/a	n/a	0	n/a	n/a	n/a	n/a	n/a
147216	REC_WORD	wordpools/wasnorm_wordpool_less_exclusions.txt	LTP244	ltpFR	2	1	1	SEAFOOD	1260	n/a	n/a	0	n/a	n/a	n/a	n/a	n/a
149715	REC_WORD	wordpools/wasnorm_wordpool_less_exclusions.txt	LTP244	ltpFR	2	1	1	BAIT	70	n/a	n/a	0	n/a	n/a	n/a	n/a	n/a
151037	REC_WORD	wordpools/wasnorm_wordpool_less_exclusions.txt	LTP244	ltpFR	2	1	1	COCOON	339	n/a	n/a	0	n/a	n/a	n/a	n/a	n/a
152129	REC_WORD	wordpools/wasnorm_wordpool_less_exclusions.txt	LTP244	ltpFR	2	1	1	SCREEN	1253	n/a	n/a	0	n/a	n/a	n/a	n/a	n/a
153202	REC_WORD	wordpools/wasnorm_wordpool_less_exclusions.txt	LTP244	ltpFR	2	1	0	STEAM	1375	n/a	n/a	1	n/a	n/a	n/a	n/a	n/a
154479	REC_WORD	wordpools/wasnorm_wordpool_less_exclusions.txt	LTP244	ltpFR	2	1	0	UNCLE	1536	n/a	n/a	1	n/a	n/a	n/a	n/a	n/a
155202	REC_WORD	wordpools/wasnorm_wordpool_less_exclusions.txt	LTP244	ltpFR	2	1	0	CANARY	227	n/a	n/a	0	n/a	n/a	n/a	n/a	n/a
156260	REC_WORD	wordpools/wasnorm_wordpool_less_exclusions.txt	LTP244	ltpFR	2	1	0	TULIP	1517	n/a	n/a	0	n/a	n/a	n/a	n/a	n/a
166068	REC_WORD	wordpools/wasnorm_wordpool_less_exclusions.txt	LTP244	ltpFR	2	1	1	HUMAN	726	n/a	n/a	1	n/a	n/a	n/a	n/a	n/a
229987	WORD	wordpools/wasnorm_wordpool_less_exclusions.txt	LTP244	ltpFR	2	2	0	PROTON	1132	n/a	n/a	0	0.422607421875	0.5869140625	0	upper	zerothre.ttf
234153	WORD	wordpools/wasnorm_wordpool_less_exclusions.txt	LTP244	ltpFR	2	2	0	GLACIER	638	n/a	n/a	1	0.422607421875	0.5869140625	0	upper	zerothre.ttf
238181	WORD	wordpools/wasnorm_wordpool_less_exclusions.txt	LTP244	ltpFR	2	2	1	COOK	372	n/a	n/a	1	0.57763671875	0.412841796875	1	lower	amplitud.ttf
242129	WORD	wordpools/wasnorm_wordpool_less_exclusions.txt	LTP244	ltpFR	2	2	1	CHARCOAL	281	n/a	n/a	0	0.57763671875	0.412841796875	1	lower	amplitud.ttf
246145	WORD	wordpools/wasnorm_wordpool_less_exclusions.txt	LTP244	ltpFR	2	2	1	CHIMNEY	301	n/a	n/a	0	0.57763671875	0.412841796875	1	lower	amplitud.ttf
249980	WORD	wordpools/wasnorm_wordpool_less_exclusions.txt	LTP244	ltpFR	2	2	0	ATOM	55	n/a	n/a	0	0.422607421875	0.5869140625	0	upper	zerothre.ttf
253911	WORD	wordpools/wasnorm_wordpool_less_exclusions.txt	LTP244	ltpFR	2	2	0	DICTATOR	462	n/a	n/a	1	0.422607421875	0.5869140625	0	upper	zerothre.ttf
257926	WORD	wordpools/wasnorm_wordpool_less_exclusions.txt	LTP244	ltpFR	2	2	0	CAFE	216	n/a	n/a	1	0.422607421875	0.5869140625	0	upper	zerothre.ttf
262142	WORD	wordpools/wasnorm_wordpool_less_exclusions.txt	LTP244	ltpFR	2	2	0	VICTOR	1563	n/a	n/a	1	0.422607421875	0.5869140625	0	upper	zerothre.ttf
266023	WORD	wordpools/wasnorm_wordpool_less_exclusions.txt	LTP244	ltpFR	2	2	1	ASSISTANT	48	n/a	n/a	1	0.57763671875	0.412841796875	1	lower	amplitud.ttf
270072	WORD	wordpools/wasnorm_wordpool_less_exclusions.txt	LTP244	ltpFR	2	2	1	VASE	1549	n/a	n/a	0	0.57763671875	0.412841796875	1	lower	amplitud.ttf
273920	WORD	wordpools/wasnorm_wordpool_less_exclusions.txt	LTP244	ltpFR	2	2	1	STEM	1376	n/a	n/a	0	0.57763671875	0.412841796875	1	lower	amplitud.ttf
277764	WORD	wordpools/wasnorm_wordpool_less_exclusions.txt	LTP244	ltpFR	2	2	1	CASHEW	253	n/a	n/a	0	0.57763671875	0.412841796875	1	lower	amplitud.ttf
281733	WORD	wordpools/wasnorm_wordpool_less_exclusions.txt	LTP244	ltpFR	2	2	1	STEP	1377	n/a	n/a	0	0.57763671875	0.412841796875	1	lower	amplitud.ttf
285831	WORD	wordpools/wasnorm_wordpool_less_exclusions.txt	LTP244	ltpFR	2	2	0	SWAMP	1416	n/a	n/a	1	0.422607421875	0.5869140625	0	upper	zerothre.ttf
289679	WORD	wordpools/wasnorm_wordpool_less_exclusions.txt	LTP244	ltpFR	2	2	0	DIVER	476	n/a	n/a	1	0.422607421875	0.5869140625	0	upper	zerothre.ttf
295669	REC_START	n/a	LTP244	ltpFR	2	2	n/a	n/a	n/a	n/a	n/a	n/a	n/a	n/a	n/a	n/a	n/a
296517	REC_WORD	wordpools/wasnorm_wordpool_less_exclusions.txt	LTP244	ltpFR	2	2	0	DIVER	476	n/a	n/a	1	n/a	n/a	n/a	n/a	n/a
297310	REC_WORD	wordpools/wasnorm_wordpool_less_exclusions.txt	LTP244	ltpFR	2	2	0	SWAMP	1416	n/a	n/a	1	n/a	n/a	n/a	n/a	n/a
298457	REC_WORD	wordpools/wasnorm_wordpool_less_exclusions.txt	LTP244	ltpFR	2	2	0	VICTOR	1563	n/a	n/a	1	n/a	n/a	n/a	n/a	n/a
304628	REC_WORD	wordpools/wasnorm_wordpool_less_exclusions.txt	LTP244	ltpFR	2	2	0	PROTON	1132	n/a	n/a	0	n/a	n/a	n/a	n/a	n/a
305756	REC_WORD	wordpools/wasnorm_wordpool_less_exclusions.txt	LTP244	ltpFR	2	2	0	ATOM	55	n/a	n/a	0	n/a	n/a	n/a	n/a	n/a
306724	REC_WORD	wordpools/wasnorm_wordpool_less_exclusions.txt	LTP244	ltpFR	2	2	0	GLACIER	638	n/a	n/a	1	n/a	n/a	n/a	n/a	n/a
310944	REC_WORD	wordpools/wasnorm_wordpool_less_exclusions.txt	LTP244	ltpFR	2	2	1	COOK	372	n/a	n/a	1	n/a	n/a	n/a	n/a	n/a
336052	REC_WORD	wordpools/wasnorm_wordpool_less_exclusions.txt	LTP244	ltpFR	2	2	1	STEM	1376	n/a	n/a	0	n/a	n/a	n/a	n/a	n/a
345037	REC_WORD	wordpools/wasnorm_wordpool_less_exclusions.txt	LTP244	ltpFR	2	2	0	CAFE	216	n/a	n/a	1	n/a	n/a	n/a	n/a	n/a
353721	REC_WORD	wordpools/wasnorm_wordpool_less_exclusions.txt	LTP244	ltpFR	2	2	0	DICTATOR	462	n/a	n/a	1	n/a	n/a	n/a	n/a	n/a
381810	WORD	wordpools/wasnorm_wordpool_less_exclusions.txt	LTP244	ltpFR	2	3	1	PARROT	1015	n/a	n/a	0	0.57763671875	0.412841796875	1	lower	amplitud.ttf
385674	WORD	wordpools/wasnorm_wordpool_less_exclusions.txt	LTP244	ltpFR	2	3	1	CACTUS	215	n/a	n/a	1	0.57763671875	0.412841796875	1	lower	amplitud.ttf
389840	WORD	wordpools/wasnorm_wordpool_less_exclusions.txt	LTP244	ltpFR	2	3	1	COLLAR	345	n/a	n/a	0	0.57763671875	0.412841796875	1	lower	amplitud.ttf
393671	WORD	wordpools/wasnorm_wordpool_less_exclusions.txt	LTP244	ltpFR	2	3	1	BASEMENT	94	n/a	n/a	0	0.57763671875	0.412841796875	1	lower	amplitud.ttf
397703	WORD	wordpools/wasnorm_wordpool_less_exclusions.txt	LTP244	ltpFR	2	3	1	COLT	349	n/a	n/a	1	0.57763671875	0.412841796875	1	lower	amplitud.ttf
401919	WORD	wordpools/wasnorm_wordpool_less_exclusions.txt	LTP244	ltpFR	2	3	1	FRIES	607	n/a	n/a	0	0.57763671875	0.412841796875	1	lower	amplitud.ttf
406101	WORD	wordpools/wasnorm_wordpool_less_exclusions.txt	LTP244	ltpFR	2	3	1	APARTMENT	30	n/a	n/a	0	0.57763671875	0.412841796875	1	lower	amplitud.ttf
410183	WORD	wordpools/wasnorm_wordpool_less_exclusions.txt	LTP244	ltpFR	2	3	1	ORCHID	982	n/a	n/a	1	0.57763671875	0.412841796875	1	lower	amplitud.ttf
414031	WORD	wordpools/wasnorm_wordpool_less_exclusions.txt	LTP244	ltpFR	2	3	1	ZEBRA	1635	n/a	n/a	1	0.57763671875	0.412841796875	1	lower	amplitud.ttf
418109	WORD	wordpools/wasnorm_wordpool_less_exclusions.txt	LTP244	ltpFR	2	3	1	HUT	729	n/a	n/a	0	0.57763671875	0.412841796875	1	lower	amplitud.ttf
422095	WORD	wordpools/wasnorm_wordpool_less_exclusions.txt	LTP244	ltpFR	2	3	1	GUEST	669	n/a	n/a	1	0.57763671875	0.412841796875	1	lower	amplitud.ttf
425976	WORD	wordpools/wasnorm_wordpool_less_exclusions.txt	LTP244	ltpFR	2	3	1	STADIUM	1364	n/a	n/a	0	0.57763671875	0.412841796875	1	lower	amplitud.ttf
429807	WORD	wordpools/wasnorm_wordpool_less_exclusions.txt	LTP244	ltpFR	2	3	1	TEAM	1441	n/a	n/a	1	0.57763671875	0.412841796875	1	lower	amplitud.ttf
433654	WORD	wordpools/wasnorm_wordpool_less_exclusions.txt	LTP244	ltpFR	2	3	1	MAT	877	n/a	n/a	0	0.57763671875	0.412841796875	1	lower	amplitud.ttf
437619	WORD	wordpools/wasnorm_wordpool_less_exclusions.txt	LTP244	ltpFR	2	3	1	OX	994	n/a	n/a	1	0.57763671875	0.412841796875	1	lower	amplitud.ttf
441698	WORD	wordpools/wasnorm_wordpool_less_exclusions.txt	LTP244	ltpFR	2	3	1	SEAL	1262	n/a	n/a	1	0.57763671875	0.412841796875	1	lower	amplitud.ttf
447540	REC_START	n/a	LTP244	ltpFR	2	3	n/a	n/a	n/a	n/a	n/a	n/a	n/a	n/a	n/a	n/a	n/a
448243	REC_WORD	wordpools/wasnorm_wordpool_less_exclusions.txt	LTP244	ltpFR	2	3	1	SEAL	1262	n/a	n/a	1	n/a	n/a	n/a	n/a	n/a
449371	REC_WORD	wordpools/wasnorm_wordpool_less_exclusions.txt	LTP244	ltpFR	2	3	1	PARROT	1015	n/a	n/a	0	n/a	n/a	n/a	n/a	n/a
450418	REC_WORD	wordpools/wasnorm_wordpool_less_exclusions.txt	LTP244	ltpFR	2	3	1	OX	994	n/a	n/a	1	n/a	n/a	n/a	n/a	n/a
455377	REC_WORD	wordpools/wasnorm_wordpool_less_exclusions.txt	LTP244	ltpFR	2	3	1	MAT	877	n/a	n/a	0	n/a	n/a	n/a	n/a	n/a
469420	REC_WORD	wordpools/wasnorm_wordpool_less_exclusions.txt	LTP244	ltpFR	2	3	1	BASEMENT	94	n/a	n/a	0	n/a	n/a	n/a	n/a	n/a
480091	REC_WORD	wordpools/wasnorm_wordpool_less_exclusions.txt	LTP244	ltpFR	2	3	1	ORCHID	982	n/a	n/a	1	n/a	n/a	n/a	n/a	n/a
481508	REC_WORD	wordpools/wasnorm_wordpool_less_exclusions.txt	LTP244	ltpFR	2	3	1	CACTUS	215	n/a	n/a	1	n/a	n/a	n/a	n/a	n/a
529332	WORD	wordpools/wasnorm_wordpool_less_exclusions.txt	LTP244	ltpFR	2	4	1	SALESMAN	1225	n/a	n/a	1	0.57763671875	0.412841796875	1	lower	amplitud.ttf
533214	WORD	wordpools/wasnorm_wordpool_less_exclusions.txt	LTP244	ltpFR	2	4	1	LEOPARD	812	n/a	n/a	1	0.57763671875	0.412841796875	1	lower	amplitud.ttf
537145	WORD	wordpools/wasnorm_wordpool_less_exclusions.txt	LTP244	ltpFR	2	4	1	HORIZON	717	n/a	n/a	0	0.57763671875	0.412841796875	1	lower	amplitud.ttf
541156	WORD	wordpools/wasnorm_wordpool_less_exclusions.txt	LTP244	ltpFR	2	4	1	ZUCCHINI	1638	n/a	n/a	1	0.57763671875	0.412841796875	1	lower	amplitud.ttf
545359	WORD	wordpools/wasnorm_wordpool_less_exclusions.txt	LTP244	ltpFR	2	4	1	KITTEN	780	n/a	n/a	1	0.57763671875	0.412841796875	1	lower	amplitud.ttf
549241	WORD	wordpools/wasnorm_wordpool_less_exclusions.txt	LTP244	ltpFR	2	4	1	CALF	222	n/a	n/a	1	0.57763671875	0.412841796875	1	lower	amplitud.ttf
553273	WORD	wordpools/wasnorm_wordpool_less_exclusions.txt	LTP244	ltpFR	2	4	1	DUMP	505	n/a	n/a	0	0.57763671875	0.412841796875	1	lower	amplitud.ttf
557487	WORD	wordpools/wasnorm_wordpool_less_exclusions.txt	LTP244	ltpFR	2	4	1	ELEPHANT	523	n/a	n/a	1	0.57763671875	0.412841796875	1	lower	amplitud.ttf
561671	WORD	wordpools/wasnorm_wordpool_less_exclusions.txt	LTP244	ltpFR	2	4	1	GRASSHOPPER	656	n/a	n/a	1	0.57763671875	0.412841796875	1	lower	amplitud.ttf
565870	WORD	wordpools/wasnorm_wordpool_less_exclusions.txt	LTP244	ltpFR	2	4	1	TERMITE	1451	n/a	n/a	1	0.57763671875	0.412841796875	1	lower	amplitud.ttf
570002	WORD	wordpools/wasnorm_wordpool_less_exclusions.txt	LTP244	ltpFR	2	4	1	BINDER	127	n/a	n/a	0	0.57763671875	0.412841796875	1	lower	amplitud.ttf
574118	WORD	wordpools/wasnorm_wordpool_less_exclusions.txt	LTP244	ltpFR	2	4	1	PAD	998	n/a	n/a	0	0.57763671875	0.412841796875	1	lower	amplitud.ttf
578012	WORD	wordpools/wasnorm_wordpool_less_exclusions.txt	LTP244	ltpFR	2	4	1	POCKET	1093	n/a	n/a	0	0.57763671875	0.412841796875	1	lower	amplitud.ttf
581960	WORD	wordpools/wasnorm_wordpool_less_exclusions.txt	LTP244	ltpFR	2	4	1	CENT	270	n/a	n/a	0	0.57763671875	0.412841796875	1	lower	amplitud.ttf
585946	WORD	wordpools/wasnorm_wordpool_less_exclusions.txt	LTP244	ltpFR	2	4	1	JEEP	753	n/a	n/a	0	0.57763671875	0.412841796875	1	lower	amplitud.ttf
590095	WORD	wordpools/wasnorm_wordpool_less_exclusions.txt	LTP244	ltpFR	2	4	1	RIB	1188	n/a	n/a	0	0.57763671875	0.412841796875	1	lower	amplitud.ttf
596018	REC_START	n/a	LTP244	ltpFR	2	4	n/a	n/a	n/a	n/a	n/a	n/a	n/a	n/a	n/a	n/a	n/a
596836	REC_WORD	wordpools/wasnorm_wordpool_less_exclusions.txt	LTP244	ltpFR	2	4	1	ELEPHANT	523	n/a	n/a	1	n/a	n/a	n/a	n/a	n/a
597714	REC_WORD	wordpools/wasnorm_wordpool_less_exclusions.txt	LTP244	ltpFR	2	4	1	RIB	1188	n/a	n/a	0	n/a	n/a	n/a	n/a	n/a
598572	REC_WORD	wordpools/wasnorm_wordpool_less_exclusions.txt	LTP244	ltpFR	2	4	1	CALF	222	n/a	n/a	1	n/a	n/a	n/a	n/a	n/a
599380	REC_WORD	wordpools/wasnorm_wordpool_less_exclusions.txt	LTP244	ltpFR	2	4	1	HORIZON	717	n/a	n/a	0	n/a	n/a	n/a	n/a	n/a
601460	REC_WORD	wordpools/wasnorm_wordpool_less_exclusions.txt	LTP244	ltpFR	2	4	1	SALESMAN	1225	n/a	n/a	1	n/a	n/a	n/a	n/a	n/a
617469	REC_WORD	wordpools/wasnorm_wordpool_less_exclusions.txt	LTP244	ltpFR	2	4	1	KITTEN	780	n/a	n/a	1	n/a	n/a	n/a	n/a	n/a
632320	REC_WORD	wordpools/wasnorm_wordpool_less_exclusions.txt	LTP244	ltpFR	2	4	1	PAD	998	n/a	n/a	0	n/a	n/a	n/a	n/a	n/a
686056	WORD	wordpools/wasnorm_wordpool_less_exclusions.txt	LTP244	ltpFR	2	5	1	CAMEL	223	n/a	n/a	1	0.57763671875	0.412841796875	1	lower	amplitud.ttf
690256	WORD	wordpools/wasnorm_wordpool_less_exclusions.txt	LTP244	ltpFR	2	5	1	WALRUS	1585	n/a	n/a	1	0.57763671875	0.412841796875	1	lower	amplitud.ttf
694137	WORD	wordpools/wasnorm_wordpool_less_exclusions.txt	LTP244	ltpFR	2	5	1	SUPPER	1411	n/a	n/a	0	0.57763671875	0.412841796875	1	lower	amplitud.ttf
697985	WORD	wordpools/wasnorm_wordpool_less_exclusions.txt	LTP244	ltpFR	2	5	1	ASH	44	n/a	n/a	0	0.57763671875	0.412841796875	1	lower	amplitud.ttf
702033	WORD	wordpools/wasnorm_wordpool_less_exclusions.txt	LTP244	ltpFR	2	5	0	DRAWER	493	n/a	n/a	0	0.422607421875	0.5869140625	0	upper	zerothre.ttf
706115	WORD	wordpools/wasnorm_wordpool_less_exclusions.txt	LTP244	ltpFR	2	5	0	CHIEF	298	n/a	n/a	1	0.422607421875	0.5869140625	0	upper	zerothre.ttf
710114	WORD	wordpools/wasnorm_wordpool_less_exclusions.txt	LTP244	ltpFR	2	5	0	ASHTRAY	45	n/a	n/a	0	0.422607421875	0.5869140625	0	upper	zerothre.ttf
714012	WORD	wordpools/wasnorm_wordpool_less_exclusions.txt	LTP244	ltpFR	2	5	0	WHEEL	1603	n/a	n/a	1	0.422607421875	0.5869140625	0	upper	zerothre.ttf
717956	WORD	wordpools/wasnorm_wordpool_less_exclusions.txt	LTP244	ltpFR	2	5	1	BOOK	149	n/a	n/a	0	0.57763671875	0.412841796875	1	lower	amplitud.ttf
721841	WORD	wordpools/wasnorm_wordpool_less_exclusions.txt	LTP244	ltpFR	2	5	1	SAND	1230	n/a	n/a	0	0.57763671875	0.412841796875	1	lower	amplitud.ttf
725873	WORD	wordpools/wasnorm_wordpool_less_exclusions.txt	LTP244	ltpFR	2	5	0	OCEAN	970	n/a	n/a	1	0.422607421875	0.5869140625	0	upper	zerothre.ttf
729871	WORD	wordpools/wasnorm_wordpool_less_exclusions.txt	LTP244	ltpFR	2	5	0	TURKEY	1520	n/a	n/a	1	0.422607421875	0.5869140625	0	upper	zerothre.ttf
734004	WORD	wordpools/wasnorm_wordpool_less_exclusions.txt	LTP244	ltpFR	2	5	0	SHOULDER	1294	n/a	n/a	1	0.422607421875	0.5869140625	0	upper	zerothre.ttf
737985	WORD	wordpools/wasnorm_wordpool_less_exclusions.txt	LTP244	ltpFR	2	5	0	LIMB	822	n/a	n/a	1	0.422607421875	0.5869140625	0	upper	zerothre.ttf
742047	WORD	wordpools/wasnorm_wordpool_less_exclusions.txt	LTP244	ltpFR	2	5	1	AGENT	10	n/a	n/a	1	0.57763671875	0.412841796875	1	lower	amplitud.ttf
746133	WORD	wordpools/wasnorm_wordpool_less_exclusions.txt	LTP244	ltpFR	2	5	1	CUCUMBER	421	n/a	n/a	1	0.57763671875	0.412841796875	1	lower	amplitud.ttf
752072	REC_START	n/a	LTP244	ltpFR	2	5	n/a	n/a	n/a	n/a	n/a	n/a	n/a	n/a	n/a	n/a	n/a
753114	REC_WORD	wordpools/wasnorm_wordpool_less_exclusions.txt	LTP244	ltpFR	2	5	1	CUCUMBER	421	n/a	n/a	1	n/a	n/a	n/a	n/a	n/a
754042	REC_WORD	wordpools/wasnorm_wordpool_less_exclusions.txt	LTP244	ltpFR	2	5	0	SHOULDER	1294	n/a	n/a	1	n/a	n/a	n/a	n/a	n/a
756517	REC_WORD	wordpools/wasnorm_wordpool_less_exclusions.txt	LTP244	ltpFR	2	5	1	WALRUS	1585	n/a	n/a	1	n/a	n/a	n/a	n/a	n/a
757629	REC_WORD	wordpools/wasnorm_wordpool_less_exclusions.txt	LTP244	ltpFR	2	5	1	ASH	44	n/a	n/a	0	n/a	n/a	n/a	n/a	n/a
762802	REC_WORD	wordpools/wasnorm_wordpool_less_exclusions.txt	LTP244	ltpFR	2	5	0	CHIEF	298	n/a	n/a	1	n/a	n/a	n/a	n/a	n/a
765207	REC_WORD	wordpools/wasnorm_wordpool_less_exclusions.txt	LTP244	ltpFR	2	5	0	OCEAN	970	n/a	n/a	1	n/a	n/a	n/a	n/a	n/a
771862	REC_WORD	wordpools/wasnorm_wordpool_less_exclusions.txt	LTP244	ltpFR	2	5	0	ASHTRAY	45	n/a	n/a	0	n/a	n/a	n/a	n/a	n/a
776606	REC_WORD	wordpools/wasnorm_wordpool_less_exclusions.txt	LTP244	ltpFR	2	5	1	CUCUMBER	421	n/a	n/a	1	n/a	n/a	n/a	n/a	n/a
791557	REC_WORD	wordpools/wasnorm_wordpool_less_exclusions.txt	LTP244	ltpFR	2	5	0	WHEEL	1603	n/a	n/a	1	n/a	n/a	n/a	n/a	n/a
797304	REC_WORD	wordpools/wasnorm_wordpool_less_exclusions.txt	LTP244	ltpFR	2	5	0	DRAWER	493	n/a	n/a	0	n/a	n/a	n/a	n/a	n/a
839685	WORD	wordpools/wasnorm_wordpool_less_exclusions.txt	LTP244	ltpFR	2	6	-1	CABIN	211	n/a	n/a	-1	1.0	1.0	1	upper	Verdana.ttf
843616	WORD	wordpools/wasnorm_wordpool_less_exclusions.txt	LTP244	ltpFR	2	6	-1	GIRAFFE	636	n/a	n/a	-1	1.0	1.0	1	upper	Verdana.ttf
847464	WORD	wordpools/wasnorm_wordpool_less_exclusions.txt	LTP244	ltpFR	2	6	-1	OTTER	986	n/a	n/a	-1	1.0	1.0	1	upper	Verdana.ttf
851392	WORD	wordpools/wasnorm_wordpool_less_exclusions.txt	LTP244	ltpFR	2	6	-1	SNACK	1331	n/a	n/a	-1	1.0	1.0	1	upper	Verdana.ttf
855311	WORD	wordpools/wasnorm_wordpool_less_exclusions.txt	LTP244	ltpFR	2	6	-1	CERAMICS	271	n/a	n/a	-1	1.0	1.0	1	upper	Verdana.ttf
859376	WORD	wordpools/wasnorm_wordpool_less_exclusions.txt	LTP244	ltpFR	2	6	-1	WASP	1593	n/a	n/a	-1	1.0	1.0	1	upper	Verdana.ttf
863220	WORD	wordpools/wasnorm_wordpool_less_exclusions.txt	LTP244	ltpFR	2	6	-1	HOUSE	725	n/a	n/a	-1	1.0	1.0	1	upper	Verdana.ttf
867206	WORD	wordpools/wasnorm_wordpool_less_exclusions.txt	LTP244	ltpFR	2	6	-1	VEHICLE	1553	n/a	n/a	-1	1.0	1.0	1	upper	Verdana.ttf
871053	WORD	wordpools/wasnorm_wordpool_less_exclusions.txt	LTP244	ltpFR	2	6	-1	BATTERY	101	n/a	n/a	-1	1.0	1.0	1	upper	Verdana.ttf
875102	WORD	wordpools/wasnorm_wordpool_less_exclusions.txt	LTP244	ltpFR	2	6	-1	GLOBE	641	n/a	n/a	-1	1.0	1.0	1	upper	Verdana.ttf
879000	WORD	wordpools/wasnorm_wordpool_less_exclusions.txt	LTP244	ltpFR	2	6	-1	CYLINDER	432	n/a	n/a	-1	1.0	1.0	1	upper	Verdana.ttf
883216	WORD	wordpools/wasnorm_wordpool_less_exclusions.txt	LTP244	ltpFR	2	6	-1	BAND	78	n/a	n/a	-1	1.0	1.0	1	upper	Verdana.ttf
887231	WORD	wordpools/wasnorm_wordpool_less_exclusions.txt	LTP244	ltpFR	2	6	-1	RELISH	1183	n/a	n/a	-1	1.0	1.0	1	upper	Verdana.ttf
891230	WORD	wordpools/wasnorm_wordpool_less_exclusions.txt	LTP244	ltpFR	2	6	-1	CHESS	294	n/a	n/a	-1	1.0	1.0	1	upper	Verdana.ttf
895392	WORD	wordpools/wasnorm_wordpool_less_exclusions.txt	LTP244	ltpFR	2	6	-1	CATCHER	258	n/a	n/a	-1	1.0	1.0	1	upper	Verdana.ttf
899426	WORD	wordpools/wasnorm_wordpool_less_exclusions.txt	LTP244	ltpFR	2	6	-1	MAMMAL	861	n/a	n/a	-1	1.0	1.0	1	upper	Verdana.ttf
905216	REC_START	n/a	LTP244	ltpFR	2	6	n/a	n/a	n/a	n/a	n/a	n/a	n/a	n/a	n/a	n/a	n/a
906149	REC_WORD	wordpools/wasnorm_wordpool_less_exclusions.txt	LTP244	ltpFR	2	6	-1	MAMMAL	861	n/a	n/a	-1	n/a	n/a	n/a	n/a	n/a
908873	REC_WORD	wordpools/wasnorm_wordpool_less_exclusions.txt	LTP244	ltpFR	2	6	-1	CATCHER	258	n/a	n/a	-1	n/a	n/a	n/a	n/a	n/a
909860	REC_WORD	wordpools/wasnorm_wordpool_less_exclusions.txt	LTP244	ltpFR	2	6	-1	BAND	78	n/a	n/a	-1	n/a	n/a	n/a	n/a	n/a
910958	REC_WORD	wordpools/wasnorm_wordpool_less_exclusions.txt	LTP244	ltpFR	2	6	-1	HOUSE	725	n/a	n/a	-1	n/a	n/a	n/a	n/a	n/a
911851	REC_WORD	wordpools/wasnorm_wordpool_less_exclusions.txt	LTP244	ltpFR	2	6	-1	CYLINDER	432	n/a	n/a	-1	n/a	n/a	n/a	n/a	n/a
918441	REC_WORD	wordpools/wasnorm_wordpool_less_exclusions.txt	LTP244	ltpFR	2	6	-1	WASP	1593	n/a	n/a	-1	n/a	n/a	n/a	n/a	n/a
921833	REC_WORD	wordpools/wasnorm_wordpool_less_exclusions.txt	LTP244	ltpFR	2	6	-1	CHESS	294	n/a	n/a	-1	n/a	n/a	n/a	n/a	n/a
924582	REC_WORD	wordpools/wasnorm_wordpool_less_exclusions.txt	LTP244	ltpFR	2	6	-1	CERAMICS	271	n/a	n/a	-1	n/a	n/a	n/a	n/a	n/a
937956	REC_WORD	wordpools/wasnorm_wordpool_less_exclusions.txt	LTP244	ltpFR	2	6	-1	GLOBE	641	n/a	n/a	-1	n/a	n/a	n/a	n/a	n/a
945025	REC_WORD	wordpools/wasnorm_wordpool_less_exclusions.txt	LTP244	ltpFR	2	6	-1	GIRAFFE	636	n/a	n/a	-1	n/a	n/a	n/a	n/a	n/a
947365	REC_WORD	wordpools/wasnorm_wordpool_less_exclusions.txt	LTP244	ltpFR	2	6	-1	CABIN	211	n/a	n/a	-1	n/a	n/a	n/a	n/a	n/a
949266	REC_WORD	wordpools/wasnorm_wordpool_less_exclusions.txt	LTP244	ltpFR	2	6	-1	OTTER	986	n/a	n/a	-1	n/a	n/a	n/a	n/a	n/a
991123	WORD	wordpools/wasnorm_wordpool_less_exclusions.txt	LTP244	ltpFR	2	7	0	CHURCH	307	n/a	n/a	1	0.422607421875	0.5869140625	0	upper	zerothre.ttf
995021	WORD	wordpools/wasnorm_wordpool_less_exclusions.txt	LTP244	ltpFR	2	7	0	STOMACH	1384	n/a	n/a	0	0.422607421875	0.5869140625	0	upper	zerothre.ttf
998919	WORD	wordpools/wasnorm_wordpool_less_exclusions.txt	LTP244	ltpFR	2	7	0	TWIG	1527	n/a	n/a	0	0.422607421875	0.5869140625	0	upper	zerothre.ttf
1002750	WORD	wordpools/wasnorm_wordpool_less_exclusions.txt	LTP244	ltpFR	2	7	0	NEUTRON	947	n/a	n/a	0	0.422607421875	0.5869140625	0	upper	zerothre.ttf
1006643	WORD	wordpools/wasnorm_wordpool_less_exclusions.txt	LTP244	ltpFR	2	7	0	PORCUPINE	1107	n/a	n/a	0	0.422607421875	0.5869140625	0	upper	zerothre.ttf
1010545	WORD	wordpools/wasnorm_wordpool_less_exclusions.txt	LTP244	ltpFR	2	7	0	ELM	527	n/a	n/a	1	0.422607421875	0.5869140625	0	upper	zerothre.ttf
1014708	WORD	wordpools/wasnorm_wordpool_less_exclusions.txt	LTP244	ltpFR	2	7	0	CARPET	247	n/a	n/a	1	0.422607421875	0.5869140625	0	upper	zerothre.ttf
1018794	WORD	wordpools/wasnorm_wordpool_less_exclusions.txt	LTP244	ltpFR	2	7	0	WALL	1582	n/a	n/a	1	0.422607421875	0.5869140625	0	upper	zerothre.ttf
1022671	WORD	wordpools/wasnorm_wordpool_less_exclusions.txt	LTP244	ltpFR	2	7	0	BLOCKADE	137	n/a	n/a	1	0.422607421875	0.5869140625	0	upper	zerothre.ttf
1026618	WORD	wordpools/wasnorm_wordpool_less_exclusions.txt	LTP244	ltpFR	2	7	0	SHEET	1279	n/a	n/a	0	0.422607421875	0.5869140625	0	upper	zerothre.ttf
1030537	WORD	wordpools/wasnorm_wordpool_less_exclusions.txt	LTP244	ltpFR	2	7	0	PAPER	1011	n/a	n/a	0	0.422607421875	0.5869140625	0	upper	zerothre.ttf
1034670	WORD	wordpools/wasnorm_wordpool_less_exclusions.txt	LTP244	ltpFR	2	7	0	DRUM	502	n/a	n/a	1	0.422607421875	0.5869140625	0	upper	zerothre.ttf
1038597	WORD	wordpools/wasnorm_wordpool_less_exclusions.txt	LTP244	ltpFR	2	7	0	MARBLE	867	n/a	n/a	0	0.422607421875	0.5869140625	0	upper	zerothre.ttf
1042532	WORD	wordpools/wasnorm_wordpool_less_exclusions.txt	LTP244	ltpFR	2	7	0	ACROBAT	4	n/a	n/a	0	0.422607421875	0.5869140625	0	upper	zerothre.ttf
1046648	WORD	wordpools/wasnorm_wordpool_less_exclusions.txt	LTP244	ltpFR	2	7	0	MINK	897	n/a	n/a	1	0.422607421875	0.5869140625	0	upper	zerothre.ttf
1050529	WORD	wordpools/wasnorm_wordpool_less_exclusions.txt	LTP244	ltpFR	2	7	0	ZOO	1637	n/a	n/a	1	0.422607421875	0.5869140625	0	upper	zerothre.ttf
1056252	REC_START	n/a	LTP244	ltpFR	2	7	n/a	n/a	n/a	n/a	n/a	n/a	n/a	n/a	n/a	n/a	n/a
1057135	REC_WORD	wordpools/wasnorm_wordpool_less_exclusions.txt	LTP244	ltpFR	2	7	0	ZOO	1637	n/a	n/a	1	n/a	n/a	n/a	n/a	n/a
1057933	REC_WORD	wordpools/wasnorm_wordpool_less_exclusions.txt	LTP244	ltpFR	2	7	0	BLOCKADE	137	n/a	n/a	1	n/a	n/a	n/a	n/a	n/a
1059844	REC_WORD	wordpools/wasnorm_wordpool_less_exclusions.txt	LTP244	ltpFR	2	7	0	MINK	897	n/a	n/a	1	n/a	n/a	n/a	n/a	n/a
1067411	REC_WORD	wordpools/wasnorm_wordpool_less_exclusions.txt	LTP244	ltpFR	2	7	0	PORCUPINE	1107	n/a	n/a	0	n/a	n/a	n/a	n/a	n/a
1073662	REC_WORD	wordpools/wasnorm_wordpool_less_exclusions.txt	LTP244	ltpFR	2	7	n/a	PAGE	1001	n/a	n/a	n/a	n/a	n/a	n/a	n/a	n/a
1075822	REC_WORD	wordpools/wasnorm_wordpool_less_exclusions.txt	LTP244	ltpFR	2	7	0	DRUM	502	n/a	n/a	1	n/a	n/a	n/a	n/a	n/a
1102217	REC_WORD	wordpools/wasnorm_wordpool_less_exclusions.txt	LTP244	ltpFR	2	7	0	MARBLE	867	n/a	n/a	0	n/a	n/a	n/a	n/a	n/a
1109067	REC_WORD	wordpools/wasnorm_wordpool_less_exclusions.txt	LTP244	ltpFR	2	7	0	NEUTRON	947	n/a	n/a	0	n/a	n/a	n/a	n/a	n/a
1139598	WORD	wordpools/wasnorm_wordpool_less_exclusions.txt	LTP244	ltpFR	2	8	0	SUBWAY	1400	n/a	n/a	1	0.422607421875	0.5869140625	0	upper	zerothre.ttf
1143748	WORD	wordpools/wasnorm_wordpool_less_exclusions.txt	LTP244	ltpFR	2	8	0	GUARD	667	n/a	n/a	1	0.422607421875	0.5869140625	0	upper	zerothre.ttf
1147876	WORD	wordpools/wasnorm_wordpool_less_exclusions.txt	LTP244	ltpFR	2	8	0	COYOTE	396	n/a	n/a	1	0.422607421875	0.5869140625	0	upper	zerothre.ttf
1151895	WORD	wordpools/wasnorm_wordpool_less_exclusions.txt	LTP244	ltpFR	2	8	1	TAPE	1433	n/a	n/a	1	0.57763671875	0.412841796875	1	lower	amplitud.ttf
1156091	WORD	wordpools/wasnorm_wordpool_less_exclusions.txt	LTP244	ltpFR	2	8	1	NUN	962	n/a	n/a	1	0.57763671875	0.412841796875	1	lower	amplitud.ttf
1159972	WORD	wordpools/wasnorm_wordpool_less_exclusions.txt	LTP244	ltpFR	2	8	0	SNAKE	1333	n/a	n/a	0	0.422607421875	0.5869140625	0	upper	zerothre.ttf
1163907	WORD	wordpools/wasnorm_wordpool_less_exclusions.txt	LTP244	ltpFR	2	8	0	ROCK	1201	n/a	n/a	0	0.422607421875	0.5869140625	0	upper	zerothre.ttf
1167872	WORD	wordpools/wasnorm_wordpool_less_exclusions.txt	LTP244	ltpFR	2	8	0	SANDWICH	1232	n/a	n/a	0	0.422607421875	0.5869140625	0	upper	zerothre.ttf
1171971	WORD	wordpools/wasnorm_wordpool_less_exclusions.txt	LTP244	ltpFR	2	8	0	FRAME	600	n/a	n/a	0	0.422607421875	0.5869140625	0	upper	zerothre.ttf
1176070	WORD	wordpools/wasnorm_wordpool_less_exclusions.txt	LTP244	ltpFR	2	8	0	SKETCH	1315	n/a	n/a	0	0.422607421875	0.5869140625	0	upper	zerothre.ttf
1180051	WORD	wordpools/wasnorm_wordpool_less_exclusions.txt	LTP244	ltpFR	2	8	1	STOVE	1388	n/a	n/a	0	0.57763671875	0.412841796875	1	lower	amplitud.ttf
1184000	WORD	wordpools/wasnorm_wordpool_less_exclusions.txt	LTP244	ltpFR	2	8	1	PRIEST	1122	n/a	n/a	1	0.57763671875	0.412841796875	1	lower	amplitud.ttf
1188065	WORD	wordpools/wasnorm_wordpool_less_exclusions.txt	LTP244	ltpFR	2	8	1	CANNON	232	n/a	n/a	0	0.57763671875	0.412841796875	1	lower	amplitud.ttf
1192030	WORD	wordpools/wasnorm_wordpool_less_exclusions.txt	LTP244	ltpFR	2	8	1	LAPEL	800	n/a	n/a	0	0.57763671875	0.412841796875	1	lower	amplitud.ttf
1196078	WORD	wordpools/wasnorm_wordpool_less_exclusions.txt	LTP244	ltpFR	2	8	1	HAY	693	n/a	n/a	0	0.57763671875	0.412841796875	1	lower	amplitud.ttf
1200261	WORD	wordpools/wasnorm_wordpool_less_exclusions.txt	LTP244	ltpFR	2	8	1	BARN	89	n/a	n/a	0	0.57763671875	0.412841796875	1	lower	amplitud.ttf
1206385	REC_START	n/a	LTP244	ltpFR	2	8	n/a	n/a	n/a	n/a	n/a	n/a	n/a	n/a	n/a	n/a	n/a
1207562	REC_WORD	wordpools/wasnorm_wordpool_less_exclusions.txt	LTP244	ltpFR	2	8	1	TAPE	1433	n/a	n/a	1	n/a	n/a	n/a	n/a	n/a
1209124	REC_WORD	wordpools/wasnorm_wordpool_less_exclusions.txt	LTP244	ltpFR	2	8	1	NUN	962	n/a	n/a	1	n/a	n/a	n/a	n/a	n/a
1210116	REC_WORD	wordpools/wasnorm_wordpool_less_exclusions.txt	LTP244	ltpFR	2	8	1	PRIEST	1122	n/a	n/a	1	n/a	n/a	n/a	n/a	n/a
1211074	REC_WORD	wordpools/wasnorm_wordpool_less_exclusions.txt	LTP244	ltpFR	2	8	1	LAPEL	800	n/a	n/a	0	n/a	n/a	n/a	n/a	n/a
1222768	REC_WORD	wordpools/wasnorm_wordpool_less_exclusions.txt	LTP244	ltpFR	2	8	0	SUBWAY	1400	n/a	n/a	1	n/a	n/a	n/a	n/a	n/a
1223990	REC_WORD	wordpools/wasnorm_wordpool_less_exclusions.txt	LTP244	ltpFR	2	8	0	SANDWICH	1232	n/a	n/a	0	n/a	n/a	n/a	n/a	n/a
1273517	REC_WORD	wordpools/wasnorm_wordpool_less_exclusions.txt	LTP244	ltpFR	2	8	1	BARN	89	n/a	n/a	0	n/a	n/a	n/a	n/a	n/a
1294784	WORD	wordpools/wasnorm_wordpool_less_exclusions.txt	LTP244	ltpFR	2	9	1	POOL	1103	n/a	n/a	0	0.57763671875	0.412841796875	1	lower	amplitud.ttf
1298698	WORD	wordpools/wasnorm_wordpool_less_exclusions.txt	LTP244	ltpFR	2	9	1	ROUGE	1213	n/a	n/a	0	0.57763671875	0.412841796875	1	lower	amplitud.ttf
1302814	WORD	wordpools/wasnorm_wordpool_less_exclusions.txt	LTP244	ltpFR	2	9	1	BALLOON	75	n/a	n/a	0	0.57763671875	0.412841796875	1	lower	amplitud.ttf
1306980	WORD	wordpools/wasnorm_wordpool_less_exclusions.txt	LTP244	ltpFR	2	9	1	LAGOON	795	n/a	n/a	0	0.57763671875	0.412841796875	1	lower	amplitud.ttf
1310894	WORD	wordpools/wasnorm_wordpool_less_exclusions.txt	LTP244	ltpFR	2	9	1	DRYER	503	n/a	n/a	0	0.57763671875	0.412841796875	1	lower	amplitud.ttf
1314993	WORD	wordpools/wasnorm_wordpool_less_exclusions.txt	LTP244	ltpFR	2	9	1	BOWL	158	n/a	n/a	0	0.57763671875	0.412841796875	1	lower	amplitud.ttf
1318841	WORD	wordpools/wasnorm_wordpool_less_exclusions.txt	LTP244	ltpFR	2	9	0	MOOSE	915	n/a	n/a	1	0.422607421875	0.5869140625	0	upper	zerothre.ttf
1322722	WORD	wordpools/wasnorm_wordpool_less_exclusions.txt	LTP244	ltpFR	2	9	0	CHAUFFEUR	283	n/a	n/a	1	0.422607421875	0.5869140625	0	upper	zerothre.ttf
1326603	WORD	wordpools/wasnorm_wordpool_less_exclusions.txt	LTP244	ltpFR	2	9	0	MAID	856	n/a	n/a	1	0.422607421875	0.5869140625	0	upper	zerothre.ttf
1330597	WORD	wordpools/wasnorm_wordpool_less_exclusions.txt	LTP244	ltpFR	2	9	0	RACCOON	1153	n/a	n/a	0	0.422607421875	0.5869140625	0	upper	zerothre.ttf
1334549	WORD	wordpools/wasnorm_wordpool_less_exclusions.txt	LTP244	ltpFR	2	9	0	BISCUIT	130	n/a	n/a	0	0.422607421875	0.5869140625	0	upper	zerothre.ttf
1338631	WORD	wordpools/wasnorm_wordpool_less_exclusions.txt	LTP244	ltpFR	2	9	0	BREAD	170	n/a	n/a	0	0.422607421875	0.5869140625	0	upper	zerothre.ttf
1342479	WORD	wordpools/wasnorm_wordpool_less_exclusions.txt	LTP244	ltpFR	2	9	1	BUS	201	n/a	n/a	0	0.57763671875	0.412841796875	1	lower	amplitud.ttf
1346645	WORD	wordpools/wasnorm_wordpool_less_exclusions.txt	LTP244	ltpFR	2	9	1	CONSOLE	364	n/a	n/a	0	0.57763671875	0.412841796875	1	lower	amplitud.ttf
1350812	WORD	wordpools/wasnorm_wordpool_less_exclusions.txt	LTP244	ltpFR	2	9	0	ANGEL	22	n/a	n/a	1	0.422607421875	0.5869140625	0	upper	zerothre.ttf
1354676	WORD	wordpools/wasnorm_wordpool_less_exclusions.txt	LTP244	ltpFR	2	9	0	VINEGAR	1569	n/a	n/a	0	0.422607421875	0.5869140625	0	upper	zerothre.ttf
1360648	REC_START	n/a	LTP244	ltpFR	2	9	n/a	n/a	n/a	n/a	n/a	n/a	n/a	n/a	n/a	n/a	n/a
1361496	REC_WORD	wordpools/wasnorm_wordpool_less_exclusions.txt	LTP244	ltpFR	2	9	0	VINEGAR	1569	n/a	n/a	0	n/a	n/a	n/a	n/a	n/a
1362389	REC_WORD	wordpools/wasnorm_wordpool_less_exclusions.txt	LTP244	ltpFR	2	9	0	ANGEL	22	n/a	n/a	1	n/a	n/a	n/a	n/a	n/a
1363172	REC_WORD	wordpools/wasnorm_wordpool_less_exclusions.txt	LTP244	ltpFR	2	9	1	BUS	201	n/a	n/a	0	n/a	n/a	n/a	n/a	n/a
1366430	REC_WORD	wordpools/wasnorm_wordpool_less_exclusions.txt	LTP244	ltpFR	2	9	1	POOL	1103	n/a	n/a	0	n/a	n/a	n/a	n/a	n/a
1367198	REC_WORD	wordpools/wasnorm_wordpool_less_exclusions.txt	LTP244	ltpFR	2	9	1	LAGOON	795	n/a	n/a	0	n/a	n/a	n/a	n/a	n/a
1368485	REC_WORD	wordpools/wasnorm_wordpool_less_exclusions.txt	LTP244	ltpFR	2	9	1	BALLOON	75	n/a	n/a	0	n/a	n/a	n/a	n/a	n/a
1371972	REC_WORD	wordpools/wasnorm_wordpool_less_exclusions.txt	LTP244	ltpFR	2	9	1	DRYER	503	n/a	n/a	0	n/a	n/a	n/a	n/a	n/a
1373035	REC_WORD	wordpools/wasnorm_wordpool_less_exclusions.txt	LTP244	ltpFR	2	9	1	CONSOLE	364	n/a	n/a	0	n/a	n/a	n/a	n/a	n/a
1379634	REC_WORD	wordpools/wasnorm_wordpool_less_exclusions.txt	LTP244	ltpFR	2	9	0	VINEGAR	1569	n/a	n/a	0	n/a	n/a	n/a	n/a	n/a
1390370	REC_WORD	wordpools/wasnorm_wordpool_less_exclusions.txt	LTP244	ltpFR	2	9	0	ANGEL	22	n/a	n/a	1	n/a	n/a	n/a	n/a	n/a
1401245	REC_WORD	wordpools/wasnorm_wordpool_less_exclusions.txt	LTP244	ltpFR	2	9	1	ROUGE	1213	n/a	n/a	0	n/a	n/a	n/a	n/a	n/a
1449199	WORD	wordpools/wasnorm_wordpool_less_exclusions.txt	LTP244	ltpFR	2	10	-1	CROSS	413	n/a	n/a	-1	1.0	1.0	1	upper	Verdana.ttf
1453080	WORD	wordpools/wasnorm_wordpool_less_exclusions.txt	LTP244	ltpFR	2	10	-1	WAGON	1578	n/a	n/a	-1	1.0	1.0	1	upper	Verdana.ttf
1457213	WORD	wordpools/wasnorm_wordpool_less_exclusions.txt	LTP244	ltpFR	2	10	-1	DRESS	495	n/a	n/a	-1	1.0	1.0	1	upper	Verdana.ttf
1461427	WORD	wordpools/wasnorm_wordpool_less_exclusions.txt	LTP244	ltpFR	2	10	-1	ASIA	46	n/a	n/a	-1	1.0	1.0	1	upper	Verdana.ttf
1465543	WORD	wordpools/wasnorm_wordpool_less_exclusions.txt	LTP244	ltpFR	2	10	-1	STREAM	1392	n/a	n/a	-1	1.0	1.0	1	upper	Verdana.ttf
1469608	WORD	wordpools/wasnorm_wordpool_less_exclusions.txt	LTP244	ltpFR	2	10	-1	BRIDGE	174	n/a	n/a	-1	1.0	1.0	1	upper	Verdana.ttf
1473603	WORD	wordpools/wasnorm_wordpool_less_exclusions.txt	LTP244	ltpFR	2	10	-1	CURTAIN	427	n/a	n/a	-1	1.0	1.0	1	upper	Verdana.ttf
1477572	WORD	wordpools/wasnorm_wordpool_less_exclusions.txt	LTP244	ltpFR	2	10	-1	PUMP	1141	n/a	n/a	-1	1.0	1.0	1	upper	Verdana.ttf
1481420	WORD	wordpools/wasnorm_wordpool_less_exclusions.txt	LTP244	ltpFR	2	10	-1	RAFT	1159	n/a	n/a	-1	1.0	1.0	1	upper	Verdana.ttf
1485448	WORD	wordpools/wasnorm_wordpool_less_exclusions.txt	LTP244	ltpFR	2	10	-1	BRUSH	182	n/a	n/a	-1	1.0	1.0	1	upper	Verdana.ttf
1489296	WORD	wordpools/wasnorm_wordpool_less_exclusions.txt	LTP244	ltpFR	2	10	-1	THORN	1459	n/a	n/a	-1	1.0	1.0	1	upper	Verdana.ttf
1493261	WORD	wordpools/wasnorm_wordpool_less_exclusions.txt	LTP244	ltpFR	2	10	-1	GROCERIES	663	n/a	n/a	-1	1.0	1.0	1	upper	Verdana.ttf
1497364	WORD	wordpools/wasnorm_wordpool_less_exclusions.txt	LTP244	ltpFR	2	10	-1	RASPBERRY	1168	n/a	n/a	-1	1.0	1.0	1	upper	Verdana.ttf
1501262	WORD	wordpools/wasnorm_wordpool_less_exclusions.txt	LTP244	ltpFR	2	10	-1	FRUIT	610	n/a	n/a	-1	1.0	1.0	1	upper	Verdana.ttf
1505477	WORD	wordpools/wasnorm_wordpool_less_exclusions.txt	LTP244	ltpFR	2	10	-1	PISTON	1076	n/a	n/a	-1	1.0	1.0	1	upper	Verdana.ttf
1509677	WORD	wordpools/wasnorm_wordpool_less_exclusions.txt	LTP244	ltpFR	2	10	-1	TUXEDO	1525	n/a	n/a	-1	1.0	1.0	1	upper	Verdana.ttf
1515516	REC_START	n/a	LTP244	ltpFR	2	10	n/a	n/a	n/a	n/a	n/a	n/a	n/a	n/a	n/a	n/a	n/a
1516109	REC_WORD	wordpools/wasnorm_wordpool_less_exclusions.txt	LTP244	ltpFR	2	10	-1	TUXEDO	1525	n/a	n/a	-1	n/a	n/a	n/a	n/a	n/a
1517042	REC_WORD	wordpools/wasnorm_wordpool_less_exclusions.txt	LTP244	ltpFR	2	10	-1	PISTON	1076	n/a	n/a	-1	n/a	n/a	n/a	n/a	n/a
1517811	REC_WORD	wordpools/wasnorm_wordpool_less_exclusions.txt	LTP244	ltpFR	2	10	-1	PUMP	1141	n/a	n/a	-1	n/a	n/a	n/a	n/a	n/a
1518499	REC_WORD	wordpools/wasnorm_wordpool_less_exclusions.txt	LTP244	ltpFR	2	10	-1	WAGON	1578	n/a	n/a	-1	n/a	n/a	n/a	n/a	n/a
1519297	REC_WORD	wordpools/wasnorm_wordpool_less_exclusions.txt	LTP244	ltpFR	2	10	-1	GROCERIES	663	n/a	n/a	-1	n/a	n/a	n/a	n/a	n/a
1520484	REC_WORD	wordpools/wasnorm_wordpool_less_exclusions.txt	LTP244	ltpFR	2	10	-1	FRUIT	610	n/a	n/a	-1	n/a	n/a	n/a	n/a	n/a
1521492	REC_WORD	wordpools/wasnorm_wordpool_less_exclusions.txt	LTP244	ltpFR	2	10	-1	CROSS	413	n/a	n/a	-1	n/a	n/a	n/a	n/a	n/a
1522440	REC_WORD	wordpools/wasnorm_wordpool_less_exclusions.txt	LTP244	ltpFR	2	10	-1	RASPBERRY	1168	n/a	n/a	-1	n/a	n/a	n/a	n/a	n/a
1535201	REC_WORD	wordpools/wasnorm_wordpool_less_exclusions.txt	LTP244	ltpFR	2	10	-1	BRIDGE	174	n/a	n/a	-1	n/a	n/a	n/a	n/a	n/a
1609185	WORD	wordpools/wasnorm_wordpool_less_exclusions.txt	LTP244	ltpFR	2	11	0	BEET	115	n/a	n/a	0	0.422607421875	0.5869140625	0	upper	zerothre.ttf
1613297	WORD	wordpools/wasnorm_wordpool_less_exclusions.txt	LTP244	ltpFR	2	11	0	MOTH	920	n/a	n/a	0	0.422607421875	0.5869140625	0	upper	zerothre.ttf
1617333	WORD	wordpools/wasnorm_wordpool_less_exclusions.txt	LTP244	ltpFR	2	11	0	THICKET	1455	n/a	n/a	0	0.422607421875	0.5869140625	0	upper	zerothre.ttf
1621247	WORD	wordpools/wasnorm_wordpool_less_exclusions.txt	LTP244	ltpFR	2	11	0	BRANCH	168	n/a	n/a	1	0.422607421875	0.5869140625	0	upper	zerothre.ttf
1625396	WORD	wordpools/wasnorm_wordpool_less_exclusions.txt	LTP244	ltpFR	2	11	0	OMELET	976	n/a	n/a	0	0.422607421875	0.5869140625	0	upper	zerothre.ttf
1629594	WORD	wordpools/wasnorm_wordpool_less_exclusions.txt	LTP244	ltpFR	2	11	0	HAM	678	n/a	n/a	0	0.422607421875	0.5869140625	0	upper	zerothre.ttf
1633493	WORD	wordpools/wasnorm_wordpool_less_exclusions.txt	LTP244	ltpFR	2	11	0	CHERRY	293	n/a	n/a	0	0.422607421875	0.5869140625	0	upper	zerothre.ttf
1637321	WORD	wordpools/wasnorm_wordpool_less_exclusions.txt	LTP244	ltpFR	2	11	0	FRIAR	605	n/a	n/a	1	0.422607421875	0.5869140625	0	upper	zerothre.ttf
1641486	WORD	wordpools/wasnorm_wordpool_less_exclusions.txt	LTP244	ltpFR	2	11	0	PATRIOT	1026	n/a	n/a	1	0.422607421875	0.5869140625	0	upper	zerothre.ttf
1645673	WORD	wordpools/wasnorm_wordpool_less_exclusions.txt	LTP244	ltpFR	2	11	0	RODENT	1204	n/a	n/a	0	0.422607421875	0.5869140625	0	upper	zerothre.ttf
1649536	WORD	wordpools/wasnorm_wordpool_less_exclusions.txt	LTP244	ltpFR	2	11	0	CRACKER	398	n/a	n/a	0	0.422607421875	0.5869140625	0	upper	zerothre.ttf
1653535	WORD	wordpools/wasnorm_wordpool_less_exclusions.txt	LTP244	ltpFR	2	11	0	BLENDER	136	n/a	n/a	1	0.422607421875	0.5869140625	0	upper	zerothre.ttf
1657668	WORD	wordpools/wasnorm_wordpool_less_exclusions.txt	LTP244	ltpFR	2	11	0	ISLAND	745	n/a	n/a	1	0.422607421875	0.5869140625	0	upper	zerothre.ttf
1661548	WORD	wordpools/wasnorm_wordpool_less_exclusions.txt	LTP244	ltpFR	2	11	0	SEAGULL	1261	n/a	n/a	0	0.422607421875	0.5869140625	0	upper	zerothre.ttf
1665647	WORD	wordpools/wasnorm_wordpool_less_exclusions.txt	LTP244	ltpFR	2	11	0	BANNER	85	n/a	n/a	0	0.422607421875	0.5869140625	0	upper	zerothre.ttf
1669478	WORD	wordpools/wasnorm_wordpool_less_exclusions.txt	LTP244	ltpFR	2	11	0	CELERY	266	n/a	n/a	0	0.422607421875	0.5869140625	0	upper	zerothre.ttf
1675084	REC_START	n/a	LTP244	ltpFR	2	11	n/a	n/a	n/a	n/a	n/a	n/a	n/a	n/a	n/a	n/a	n/a
1676221	REC_WORD	wordpools/wasnorm_wordpool_less_exclusions.txt	LTP244	ltpFR	2	11	0	CELERY	266	n/a	n/a	0	n/a	n/a	n/a	n/a	n/a
1676934	REC_WORD	wordpools/wasnorm_wordpool_less_exclusions.txt	LTP244	ltpFR	2	11	0	BANNER	85	n/a	n/a	0	n/a	n/a	n/a	n/a	n/a
1677548	REC_WORD	wordpools/wasnorm_wordpool_less_exclusions.txt	LTP244	ltpFR	2	11	0	SEAGULL	1261	n/a	n/a	0	n/a	n/a	n/a	n/a	n/a
1680317	REC_WORD	wordpools/wasnorm_wordpool_less_exclusions.txt	LTP244	ltpFR	2	11	0	CHERRY	293	n/a	n/a	0	n/a	n/a	n/a	n/a	n/a
1682716	REC_WORD	wordpools/wasnorm_wordpool_less_exclusions.txt	LTP244	ltpFR	2	11	0	FRIAR	605	n/a	n/a	1	n/a	n/a	n/a	n/a	n/a
1683580	REC_WORD	wordpools/wasnorm_wordpool_less_exclusions.txt	LTP244	ltpFR	2	11	0	PATRIOT	1026	n/a	n/a	1	n/a	n/a	n/a	n/a	n/a
1684472	REC_WORD	wordpools/wasnorm_wordpool_less_exclusions.txt	LTP244	ltpFR	2	11	0	BEET	115	n/a	n/a	0	n/a	n/a	n/a	n/a	n/a
1703320	REC_WORD	wordpools/wasnorm_wordpool_less_exclusions.txt	LTP244	ltpFR	2	11	0	BLENDER	136	n/a	n/a	1	n/a	n/a	n/a	n/a	n/a
1758063	WORD	wordpools/wasnorm_wordpool_less_exclusions.txt	LTP244	ltpFR	2	12	0	PRINTER	1126	n/a	n/a	0	0.422607421875	0.5869140625	0	upper	zerothre.ttf
1761911	WORD	wordpools/wasnorm_wordpool_less_exclusions.txt	LTP244	ltpFR	2	12	0	COMET	353	n/a	n/a	1	0.422607421875	0.5869140625	0	upper	zerothre.ttf
1766089	WORD	wordpools/wasnorm_wordpool_less_exclusions.txt	LTP244	ltpFR	2	12	0	OUTFIT	988	n/a	n/a	0	0.422607421875	0.5869140625	0	upper	zerothre.ttf
1769958	WORD	wordpools/wasnorm_wordpool_less_exclusions.txt	LTP244	ltpFR	2	12	0	FRIEND	606	n/a	n/a	1	0.422607421875	0.5869140625	0	upper	zerothre.ttf
1773906	WORD	wordpools/wasnorm_wordpool_less_exclusions.txt	LTP244	ltpFR	2	12	0	BOMB	147	n/a	n/a	1	0.422607421875	0.5869140625	0	upper	zerothre.ttf
1777838	WORD	wordpools/wasnorm_wordpool_less_exclusions.txt	LTP244	ltpFR	2	12	0	UNIFORM	1539	n/a	n/a	0	0.422607421875	0.5869140625	0	upper	zerothre.ttf
1782020	WORD	wordpools/wasnorm_wordpool_less_exclusions.txt	LTP244	ltpFR	2	12	0	MILITARY	894	n/a	n/a	1	0.422607421875	0.5869140625	0	upper	zerothre.ttf
1786115	WORD	wordpools/wasnorm_wordpool_less_exclusions.txt	LTP244	ltpFR	2	12	0	SUIT	1402	n/a	n/a	1	0.422607421875	0.5869140625	0	upper	zerothre.ttf
1790050	WORD	wordpools/wasnorm_wordpool_less_exclusions.txt	LTP244	ltpFR	2	12	0	WINGS	1614	n/a	n/a	1	0.422607421875	0.5869140625	0	upper	zerothre.ttf
1794199	WORD	wordpools/wasnorm_wordpool_less_exclusions.txt	LTP244	ltpFR	2	12	0	JET	756	n/a	n/a	1	0.422607421875	0.5869140625	0	upper	zerothre.ttf
1798114	WORD	wordpools/wasnorm_wordpool_less_exclusions.txt	LTP244	ltpFR	2	12	0	SWAN	1417	n/a	n/a	1	0.422607421875	0.5869140625	0	upper	zerothre.ttf
1802179	WORD	wordpools/wasnorm_wordpool_less_exclusions.txt	LTP244	ltpFR	2	12	0	FELLOW	558	n/a	n/a	1	0.422607421875	0.5869140625	0	upper	zerothre.ttf
1806074	WORD	wordpools/wasnorm_wordpool_less_exclusions.txt	LTP244	ltpFR	2	12	0	SHARK	1275	n/a	n/a	1	0.422607421875	0.5869140625	0	upper	zerothre.ttf
1810076	WORD	wordpools/wasnorm_wordpool_less_exclusions.txt	LTP244	ltpFR	2	12	0	NET	946	n/a	n/a	1	0.422607421875	0.5869140625	0	upper	zerothre.ttf
1814141	WORD	wordpools/wasnorm_wordpool_less_exclusions.txt	LTP244	ltpFR	2	12	0	LAKE	796	n/a	n/a	1	0.422607421875	0.5869140625	0	upper	zerothre.ttf
1818253	WORD	wordpools/wasnorm_wordpool_less_exclusions.txt	LTP244	ltpFR	2	12	0	LABEL	790	n/a	n/a	0	0.422607421875	0.5869140625	0	upper	zerothre.ttf
1823825	REC_START	n/a	LTP244	ltpFR	2	12	n/a	n/a	n/a	n/a	n/a	n/a	n/a	n/a	n/a	n/a	n/a
1824408	REC_WORD	wordpools/wasnorm_wordpool_less_exclusions.txt	LTP244	ltpFR	2	12	0	SHARK	1275	n/a	n/a	1	n/a	n/a	n/a	n/a	n/a
1825232	REC_WORD	wordpools/wasnorm_wordpool_less_exclusions.txt	LTP244	ltpFR	2	12	0	LABEL	790	n/a	n/a	0	n/a	n/a	n/a	n/a	n/a
1826095	REC_WORD	wordpools/wasnorm_wordpool_less_exclusions.txt	LTP244	ltpFR	2	12	0	LAKE	796	n/a	n/a	1	n/a	n/a	n/a	n/a	n/a
1828674	REC_WORD	wordpools/wasnorm_wordpool_less_exclusions.txt	LTP244	ltpFR	2	12	0	COMET	353	n/a	n/a	1	n/a	n/a	n/a	n/a	n/a
1831353	REC_WORD	wordpools/wasnorm_wordpool_less_exclusions.txt	LTP244	ltpFR	2	12	0	SWAN	1417	n/a	n/a	1	n/a	n/a	n/a	n/a	n/a
1839240	REC_WORD	wordpools/wasnorm_wordpool_less_exclusions.txt	LTP244	ltpFR	2	12	0	UNIFORM	1539	n/a	n/a	0	n/a	n/a	n/a	n/a	n/a
1840282	REC_WORD	wordpools/wasnorm_wordpool_less_exclusions.txt	LTP244	ltpFR	2	12	0	OUTFIT	988	n/a	n/a	0	n/a	n/a	n/a	n/a	n/a
1842817	REC_WORD	wordpools/wasnorm_wordpool_less_exclusions.txt	LTP244	ltpFR	2	12	0	MILITARY	894	n/a	n/a	1	n/a	n/a	n/a	n/a	n/a
1843974	REC_WORD	wordpools/wasnorm_wordpool_less_exclusions.txt	LTP244	ltpFR	2	12	0	SUIT	1402	n/a	n/a	1	n/a	n/a	n/a	n/a	n/a
1845396	REC_WORD	wordpools/wasnorm_wordpool_less_exclusions.txt	LTP244	ltpFR	2	12	0	FRIEND	606	n/a	n/a	1	n/a	n/a	n/a	n/a	n/a
1846329	REC_WORD	wordpools/wasnorm_wordpool_less_exclusions.txt	LTP244	ltpFR	2	12	0	FELLOW	558	n/a	n/a	1	n/a	n/a	n/a	n/a	n/a
1847271	REC_WORD	wordpools/wasnorm_wordpool_less_exclusions.txt	LTP244	ltpFR	2	12	0	JET	756	n/a	n/a	1	n/a	n/a	n/a	n/a	n/a
1848354	REC_WORD	wordpools/wasnorm_wordpool_less_exclusions.txt	LTP244	ltpFR	2	12	0	WINGS	1614	n/a	n/a	1	n/a	n/a	n/a	n/a	n/a
1849367	REC_WORD	wordpools/wasnorm_wordpool_less_exclusions.txt	LTP244	ltpFR	2	12	0	BOMB	147	n/a	n/a	1	n/a	n/a	n/a	n/a	n/a
1899475	REST_REWET	n/a	LTP244	ltpFR	2	12	n/a	n/a	n/a	n/a	n/a	n/a	n/a	n/a	n/a	n/a	n/a
2340023	WORD	wordpools/wasnorm_wordpool_less_exclusions.txt	LTP244	ltpFR	2	13	1	TOASTER	1472	n/a	n/a	0	0.57763671875	0.412841796875	1	lower	amplitud.ttf
2344122	WORD	wordpools/wasnorm_wordpool_less_exclusions.txt	LTP244	ltpFR	2	13	1	PEOPLE	1046	n/a	n/a	1	0.57763671875	0.412841796875	1	lower	amplitud.ttf
2348087	WORD	wordpools/wasnorm_wordpool_less_exclusions.txt	LTP244	ltpFR	2	13	1	CITIZEN	312	n/a	n/a	1	0.57763671875	0.412841796875	1	lower	amplitud.ttf
2351918	WORD	wordpools/wasnorm_wordpool_less_exclusions.txt	LTP244	ltpFR	2	13	1	COUSIN	392	n/a	n/a	1	0.57763671875	0.412841796875	1	lower	amplitud.ttf
2356000	WORD	wordpools/wasnorm_wordpool_less_exclusions.txt	LTP244	ltpFR	2	13	1	VILLAGE	1566	n/a	n/a	0	0.57763671875	0.412841796875	1	lower	amplitud.ttf
2360082	WORD	wordpools/wasnorm_wordpool_less_exclusions.txt	LTP244	ltpFR	2	13	1	CITY	314	n/a	n/a	0	0.57763671875	0.412841796875	1	lower	amplitud.ttf
2364247	WORD	wordpools/wasnorm_wordpool_less_exclusions.txt	LTP244	ltpFR	2	13	1	FOLDER	588	n/a	n/a	0	0.57763671875	0.412841796875	1	lower	amplitud.ttf
2368462	WORD	wordpools/wasnorm_wordpool_less_exclusions.txt	LTP244	ltpFR	2	13	1	MARKER	870	n/a	n/a	0	0.57763671875	0.412841796875	1	lower	amplitud.ttf
2372395	WORD	wordpools/wasnorm_wordpool_less_exclusions.txt	LTP244	ltpFR	2	13	1	RESORT	1186	n/a	n/a	0	0.57763671875	0.412841796875	1	lower	amplitud.ttf
2376276	WORD	wordpools/wasnorm_wordpool_less_exclusions.txt	LTP244	ltpFR	2	13	1	SADDLE	1221	n/a	n/a	0	0.57763671875	0.412841796875	1	lower	amplitud.ttf
2380408	WORD	wordpools/wasnorm_wordpool_less_exclusions.txt	LTP244	ltpFR	2	13	1	MICROWAVE	892	n/a	n/a	0	0.57763671875	0.412841796875	1	lower	amplitud.ttf
2384323	WORD	wordpools/wasnorm_wordpool_less_exclusions.txt	LTP244	ltpFR	2	13	1	SISTER	1312	n/a	n/a	1	0.57763671875	0.412841796875	1	lower	amplitud.ttf
2388322	WORD	wordpools/wasnorm_wordpool_less_exclusions.txt	LTP244	ltpFR	2	13	1	PERSON	1052	n/a	n/a	1	0.57763671875	0.412841796875	1	lower	amplitud.ttf
2392400	WORD	wordpools/wasnorm_wordpool_less_exclusions.txt	LTP244	ltpFR	2	13	1	SALIVA	1226	n/a	n/a	0	0.57763671875	0.412841796875	1	lower	amplitud.ttf
2396285	WORD	wordpools/wasnorm_wordpool_less_exclusions.txt	LTP244	ltpFR	2	13	1	JAW	751	n/a	n/a	0	0.57763671875	0.412841796875	1	lower	amplitud.ttf
2400200	WORD	wordpools/wasnorm_wordpool_less_exclusions.txt	LTP244	ltpFR	2	13	1	PORTRAIT	1111	n/a	n/a	0	0.57763671875	0.412841796875	1	lower	amplitud.ttf
2406139	REC_START	n/a	LTP244	ltpFR	2	13	n/a	n/a	n/a	n/a	n/a	n/a	n/a	n/a	n/a	n/a	n/a
2406458	REC_WORD	wordpools/wasnorm_wordpool_less_exclusions.txt	LTP244	ltpFR	2	13	1	SISTER	1312	n/a	n/a	1	n/a	n/a	n/a	n/a	n/a
2407336	REC_WORD	wordpools/wasnorm_wordpool_less_exclusions.txt	LTP244	ltpFR	2	13	1	COUSIN	392	n/a	n/a	1	n/a	n/a	n/a	n/a	n/a
2408020	REC_WORD	wordpools/wasnorm_wordpool_less_exclusions.txt	LTP244	ltpFR	2	13	1	PEOPLE	1046	n/a	n/a	1	n/a	n/a	n/a	n/a	n/a
2408718	REC_WORD	wordpools/wasnorm_wordpool_less_exclusions.txt	LTP244	ltpFR	2	13	1	PERSON	1052	n/a	n/a	1	n/a	n/a	n/a	n/a	n/a
2409317	REC_WORD	wordpools/wasnorm_wordpool_less_exclusions.txt	LTP244	ltpFR	2	13	1	CITIZEN	312	n/a	n/a	1	n/a	n/a	n/a	n/a	n/a
2412085	REC_WORD	wordpools/wasnorm_wordpool_less_exclusions.txt	LTP244	ltpFR	2	13	1	VILLAGE	1566	n/a	n/a	0	n/a	n/a	n/a	n/a	n/a
2412889	REC_WORD	wordpools/wasnorm_wordpool_less_exclusions.txt	LTP244	ltpFR	2	13	1	CITY	314	n/a	n/a	0	n/a	n/a	n/a	n/a	n/a
2413626	REC_WORD	wordpools/wasnorm_wordpool_less_exclusions.txt	LTP244	ltpFR	2	13	1	FOLDER	588	n/a	n/a	0	n/a	n/a	n/a	n/a	n/a
2425460	REC_WORD	wordpools/wasnorm_wordpool_less_exclusions.txt	LTP244	ltpFR	2	13	1	MICROWAVE	892	n/a	n/a	0	n/a	n/a	n/a	n/a	n/a
2429356	REC_WORD	wordpools/wasnorm_wordpool_less_exclusions.txt	LTP244	ltpFR	2	13	1	TOASTER	1472	n/a	n/a	0	n/a	n/a	n/a	n/a	n/a
2458345	REC_WORD	wordpools/wasnorm_wordpool_less_exclusions.txt	LTP244	ltpFR	2	13	1	RESORT	1186	n/a	n/a	0	n/a	n/a	n/a	n/a	n/a
2471465	REC_WORD	wordpools/wasnorm_wordpool_less_exclusions.txt	LTP244	ltpFR	2	13	1	SALIVA	1226	n/a	n/a	0	n/a	n/a	n/a	n/a	n/a
2472453	REC_WORD	wordpools/wasnorm_wordpool_less_exclusions.txt	LTP244	ltpFR	2	13	1	JAW	751	n/a	n/a	0	n/a	n/a	n/a	n/a	n/a
2491059	WORD	wordpools/wasnorm_wordpool_less_exclusions.txt	LTP244	ltpFR	2	14	-1	TIMBER	1469	n/a	n/a	-1	1.0	1.0	1	upper	Verdana.ttf
2495191	WORD	wordpools/wasnorm_wordpool_less_exclusions.txt	LTP244	ltpFR	2	14	-1	CANDLE	229	n/a	n/a	-1	1.0	1.0	1	upper	Verdana.ttf
2499373	WORD	wordpools/wasnorm_wordpool_less_exclusions.txt	LTP244	ltpFR	2	14	-1	COSTUME	383	n/a	n/a	-1	1.0	1.0	1	upper	Verdana.ttf
2503488	WORD	wordpools/wasnorm_wordpool_less_exclusions.txt	LTP244	ltpFR	2	14	-1	HANGER	687	n/a	n/a	-1	1.0	1.0	1	upper	Verdana.ttf
2507486	WORD	wordpools/wasnorm_wordpool_less_exclusions.txt	LTP244	ltpFR	2	14	-1	REGISTER	1180	n/a	n/a	-1	1.0	1.0	1	upper	Verdana.ttf
2511565	WORD	wordpools/wasnorm_wordpool_less_exclusions.txt	LTP244	ltpFR	2	14	-1	HAND	683	n/a	n/a	-1	1.0	1.0	1	upper	Verdana.ttf
2515650	WORD	wordpools/wasnorm_wordpool_less_exclusions.txt	LTP244	ltpFR	2	14	-1	FOREHEAD	592	n/a	n/a	-1	1.0	1.0	1	upper	Verdana.ttf
2519784	WORD	wordpools/wasnorm_wordpool_less_exclusions.txt	LTP244	ltpFR	2	14	-1	POLITICIAN	1099	n/a	n/a	-1	1.0	1.0	1	upper	Verdana.ttf
2523614	WORD	wordpools/wasnorm_wordpool_less_exclusions.txt	LTP244	ltpFR	2	14	-1	ORNAMENT	985	n/a	n/a	-1	1.0	1.0	1	upper	Verdana.ttf
2527714	WORD	wordpools/wasnorm_wordpool_less_exclusions.txt	LTP244	ltpFR	2	14	-1	COIN	343	n/a	n/a	-1	1.0	1.0	1	upper	Verdana.ttf
2531644	WORD	wordpools/wasnorm_wordpool_less_exclusions.txt	LTP244	ltpFR	2	14	-1	RECEIPT	1173	n/a	n/a	-1	1.0	1.0	1	upper	Verdana.ttf
2535857	WORD	wordpools/wasnorm_wordpool_less_exclusions.txt	LTP244	ltpFR	2	14	-1	LIPSTICK	829	n/a	n/a	-1	1.0	1.0	1	upper	Verdana.ttf
2539943	WORD	wordpools/wasnorm_wordpool_less_exclusions.txt	LTP244	ltpFR	2	14	-1	SENATOR	1268	n/a	n/a	-1	1.0	1.0	1	upper	Verdana.ttf
2544109	WORD	wordpools/wasnorm_wordpool_less_exclusions.txt	LTP244	ltpFR	2	14	-1	AIRPLANE	12	n/a	n/a	-1	1.0	1.0	1	upper	Verdana.ttf
2548308	WORD	wordpools/wasnorm_wordpool_less_exclusions.txt	LTP244	ltpFR	2	14	-1	CHIME	300	n/a	n/a	-1	1.0	1.0	1	upper	Verdana.ttf
2552206	WORD	wordpools/wasnorm_wordpool_less_exclusions.txt	LTP244	ltpFR	2	14	-1	TRUMPET	1513	n/a	n/a	-1	1.0	1.0	1	upper	Verdana.ttf
2557861	REC_START	n/a	LTP244	ltpFR	2	14	n/a	n/a	n/a	n/a	n/a	n/a	n/a	n/a	n/a	n/a	n/a
2558754	REC_WORD	wordpools/wasnorm_wordpool_less_exclusions.txt	LTP244	ltpFR	2	14	-1	POLITICIAN	1099	n/a	n/a	-1	n/a	n/a	n/a	n/a	n/a
2559586	REC_WORD	wordpools/wasnorm_wordpool_less_exclusions.txt	LTP244	ltpFR	2	14	-1	SENATOR	1268	n/a	n/a	-1	n/a	n/a	n/a	n/a	n/a
2561034	REC_WORD	wordpools/wasnorm_wordpool_less_exclusions.txt	LTP244	ltpFR	2	14	-1	AIRPLANE	12	n/a	n/a	-1	n/a	n/a	n/a	n/a	n/a
2561907	REC_WORD	wordpools/wasnorm_wordpool_less_exclusions.txt	LTP244	ltpFR	2	14	-1	TRUMPET	1513	n/a	n/a	-1	n/a	n/a	n/a	n/a	n/a
2569100	REC_WORD	wordpools/wasnorm_wordpool_less_exclusions.txt	LTP244	ltpFR	2	14	-1	TIMBER	1469	n/a	n/a	-1	n/a	n/a	n/a	n/a	n/a
2569809	REC_WORD	wordpools/wasnorm_wordpool_less_exclusions.txt	LTP244	ltpFR	2	14	-1	CANDLE	229	n/a	n/a	-1	n/a	n/a	n/a	n/a	n/a
2589499	REC_WORD	wordpools/wasnorm_wordpool_less_exclusions.txt	LTP244	ltpFR	2	14	-1	LIPSTICK	829	n/a	n/a	-1	n/a	n/a	n/a	n/a	n/a
2590412	REC_WORD	wordpools/wasnorm_wordpool_less_exclusions.txt	LTP244	ltpFR	2	14	-1	ORNAMENT	985	n/a	n/a	-1	n/a	n/a	n/a	n/a	n/a
2648067	WORD	wordpools/wasnorm_wordpool_less_exclusions.txt	LTP244	ltpFR	2	15	-1	GLASSES	640	n/a	n/a	-1	1.0	1.0	1	upper	Verdana.ttf
2652179	WORD	wordpools/wasnorm_wordpool_less_exclusions.txt	LTP244	ltpFR	2	15	-1	COMMUNITY	356	n/a	n/a	-1	1.0	1.0	1	upper	Verdana.ttf
2656198	WORD	wordpools/wasnorm_wordpool_less_exclusions.txt	LTP244	ltpFR	2	15	-1	CREEK	404	n/a	n/a	-1	1.0	1.0	1	upper	Verdana.ttf
2660113	WORD	wordpools/wasnorm_wordpool_less_exclusions.txt	LTP244	ltpFR	2	15	-1	QUILT	1151	n/a	n/a	-1	1.0	1.0	1	upper	Verdana.ttf
2664157	WORD	wordpools/wasnorm_wordpool_less_exclusions.txt	LTP244	ltpFR	2	15	-1	MESSAGE	888	n/a	n/a	-1	1.0	1.0	1	upper	Verdana.ttf
2668293	WORD	wordpools/wasnorm_wordpool_less_exclusions.txt	LTP244	ltpFR	2	15	-1	ENVELOPE	537	n/a	n/a	-1	1.0	1.0	1	upper	Verdana.ttf
2672375	WORD	wordpools/wasnorm_wordpool_less_exclusions.txt	LTP244	ltpFR	2	15	-1	LILY	821	n/a	n/a	-1	1.0	1.0	1	upper	Verdana.ttf
2676240	WORD	wordpools/wasnorm_wordpool_less_exclusions.txt	LTP244	ltpFR	2	15	-1	DAISY	435	n/a	n/a	-1	1.0	1.0	1	upper	Verdana.ttf
2680372	WORD	wordpools/wasnorm_wordpool_less_exclusions.txt	LTP244	ltpFR	2	15	-1	SMOG	1330	n/a	n/a	-1	1.0	1.0	1	upper	Verdana.ttf
2684320	WORD	wordpools/wasnorm_wordpool_less_exclusions.txt	LTP244	ltpFR	2	15	-1	MONK	910	n/a	n/a	-1	1.0	1.0	1	upper	Verdana.ttf
2688402	WORD	wordpools/wasnorm_wordpool_less_exclusions.txt	LTP244	ltpFR	2	15	-1	CANAL	226	n/a	n/a	-1	1.0	1.0	1	upper	Verdana.ttf
2692401	WORD	wordpools/wasnorm_wordpool_less_exclusions.txt	LTP244	ltpFR	2	15	-1	WASHCLOTH	1591	n/a	n/a	-1	1.0	1.0	1	upper	Verdana.ttf
2696612	WORD	wordpools/wasnorm_wordpool_less_exclusions.txt	LTP244	ltpFR	2	15	-1	ICEBERG	731	n/a	n/a	-1	1.0	1.0	1	upper	Verdana.ttf
2700799	WORD	wordpools/wasnorm_wordpool_less_exclusions.txt	LTP244	ltpFR	2	15	-1	PUDDLE	1140	n/a	n/a	-1	1.0	1.0	1	upper	Verdana.ttf
2704798	WORD	wordpools/wasnorm_wordpool_less_exclusions.txt	LTP244	ltpFR	2	15	-1	COUNTY	389	n/a	n/a	-1	1.0	1.0	1	upper	Verdana.ttf
2708963	WORD	wordpools/wasnorm_wordpool_less_exclusions.txt	LTP244	ltpFR	2	15	-1	CANDIDATE	228	n/a	n/a	-1	1.0	1.0	1	upper	Verdana.ttf
2714983	REC_START	n/a	LTP244	ltpFR	2	15	n/a	n/a	n/a	n/a	n/a	n/a	n/a	n/a	n/a	n/a	n/a
2715561	REC_WORD	wordpools/wasnorm_wordpool_less_exclusions.txt	LTP244	ltpFR	2	15	-1	CANDIDATE	228	n/a	n/a	-1	n/a	n/a	n/a	n/a	n/a
2716245	REC_WORD	wordpools/wasnorm_wordpool_less_exclusions.txt	LTP244	ltpFR	2	15	-1	COUNTY	389	n/a	n/a	-1	n/a	n/a	n/a	n/a	n/a
2717013	REC_WORD	wordpools/wasnorm_wordpool_less_exclusions.txt	LTP244	ltpFR	2	15	-1	PUDDLE	1140	n/a	n/a	-1	n/a	n/a	n/a	n/a	n/a
2717742	REC_WORD	wordpools/wasnorm_wordpool_less_exclusions.txt	LTP244	ltpFR	2	15	-1	ICEBERG	731	n/a	n/a	-1	n/a	n/a	n/a	n/a	n/a
2719856	REC_WORD	wordpools/wasnorm_wordpool_less_exclusions.txt	LTP244	ltpFR	2	15	-1	QUILT	1151	n/a	n/a	-1	n/a	n/a	n/a	n/a	n/a
2720640	REC_WORD	wordpools/wasnorm_wordpool_less_exclusions.txt	LTP244	ltpFR	2	15	-1	WASHCLOTH	1591	n/a	n/a	-1	n/a	n/a	n/a	n/a	n/a
2721832	REC_WORD	wordpools/wasnorm_wordpool_less_exclusions.txt	LTP244	ltpFR	2	15	-1	CREEK	404	n/a	n/a	-1	n/a	n/a	n/a	n/a	n/a
2724302	REC_WORD	wordpools/wasnorm_wordpool_less_exclusions.txt	LTP244	ltpFR	2	15	-1	CANDIDATE	228	n/a	n/a	-1	n/a	n/a	n/a	n/a	n/a
2729176	REC_WORD	wordpools/wasnorm_wordpool_less_exclusions.txt	LTP244	ltpFR	2	15	-1	COUNTY	389	n/a	n/a	-1	n/a	n/a	n/a	n/a	n/a
2729699	REC_WORD	wordpools/wasnorm_wordpool_less_exclusions.txt	LTP244	ltpFR	2	15	-1	COMMUNITY	356	n/a	n/a	-1	n/a	n/a	n/a	n/a	n/a
2799650	WORD	wordpools/wasnorm_wordpool_less_exclusions.txt	LTP244	ltpFR	2	16	0	PLASTER	1085	n/a	n/a	0	0.422607421875	0.5869140625	0	upper	zerothre.ttf
2803552	WORD	wordpools/wasnorm_wordpool_less_exclusions.txt	LTP244	ltpFR	2	16	0	LONDON	843	n/a	n/a	1	0.422607421875	0.5869140625	0	upper	zerothre.ttf
2807647	WORD	wordpools/wasnorm_wordpool_less_exclusions.txt	LTP244	ltpFR	2	16	1	PUBLISHER	1137	n/a	n/a	1	0.57763671875	0.412841796875	1	lower	amplitud.ttf
2811797	WORD	wordpools/wasnorm_wordpool_less_exclusions.txt	LTP244	ltpFR	2	16	1	TOTE	1487	n/a	n/a	0	0.57763671875	0.412841796875	1	lower	amplitud.ttf
2815846	WORD	wordpools/wasnorm_wordpool_less_exclusions.txt	LTP244	ltpFR	2	16	1	TELEPHONE	1445	n/a	n/a	0	0.57763671875	0.412841796875	1	lower	amplitud.ttf
2819747	WORD	wordpools/wasnorm_wordpool_less_exclusions.txt	LTP244	ltpFR	2	16	1	PAINTER	1004	n/a	n/a	1	0.57763671875	0.412841796875	1	lower	amplitud.ttf
2823594	WORD	wordpools/wasnorm_wordpool_less_exclusions.txt	LTP244	ltpFR	2	16	0	DEER	444	n/a	n/a	1	0.422607421875	0.5869140625	0	upper	zerothre.ttf
2827576	WORD	wordpools/wasnorm_wordpool_less_exclusions.txt	LTP244	ltpFR	2	16	0	BADGE	68	n/a	n/a	0	0.422607421875	0.5869140625	0	upper	zerothre.ttf
2831659	WORD	wordpools/wasnorm_wordpool_less_exclusions.txt	LTP244	ltpFR	2	16	1	POLICE	1098	n/a	n/a	1	0.57763671875	0.412841796875	1	lower	amplitud.ttf
2835653	WORD	wordpools/wasnorm_wordpool_less_exclusions.txt	LTP244	ltpFR	2	16	1	PURSE	1145	n/a	n/a	0	0.57763671875	0.412841796875	1	lower	amplitud.ttf
2839655	WORD	wordpools/wasnorm_wordpool_less_exclusions.txt	LTP244	ltpFR	2	16	1	PEDAL	1037	n/a	n/a	0	0.57763671875	0.412841796875	1	lower	amplitud.ttf
2843822	WORD	wordpools/wasnorm_wordpool_less_exclusions.txt	LTP244	ltpFR	2	16	1	SAPPHIRE	1234	n/a	n/a	0	0.57763671875	0.412841796875	1	lower	amplitud.ttf
2847837	WORD	wordpools/wasnorm_wordpool_less_exclusions.txt	LTP244	ltpFR	2	16	0	PRAIRIE	1118	n/a	n/a	1	0.422607421875	0.5869140625	0	upper	zerothre.ttf
2852053	WORD	wordpools/wasnorm_wordpool_less_exclusions.txt	LTP244	ltpFR	2	16	0	ANTELOPE	27	n/a	n/a	1	0.422607421875	0.5869140625	0	upper	zerothre.ttf
2856101	WORD	wordpools/wasnorm_wordpool_less_exclusions.txt	LTP244	ltpFR	2	16	0	TWEEZERS	1526	n/a	n/a	0	0.422607421875	0.5869140625	0	upper	zerothre.ttf
2859932	WORD	wordpools/wasnorm_wordpool_less_exclusions.txt	LTP244	ltpFR	2	16	0	WOLF	1619	n/a	n/a	1	0.422607421875	0.5869140625	0	upper	zerothre.ttf
2865923	REC_START	n/a	LTP244	ltpFR	2	16	n/a	n/a	n/a	n/a	n/a	n/a	n/a	n/a	n/a	n/a	n/a
2866691	REC_WORD	wordpools/wasnorm_wordpool_less_exclusions.txt	LTP244	ltpFR	2	16	0	ANTELOPE	27	n/a	n/a	1	n/a	n/a	n/a	n/a	n/a
2867454	REC_WORD	wordpools/wasnorm_wordpool_less_exclusions.txt	LTP244	ltpFR	2	16	0	WOLF	1619	n/a	n/a	1	n/a	n/a	n/a	n/a	n/a
2868253	REC_WORD	wordpools/wasnorm_wordpool_less_exclusions.txt	LTP244	ltpFR	2	16	0	DEER	444	n/a	n/a	1	n/a	n/a	n/a	n/a	n/a
2868866	REC_WORD	wordpools/wasnorm_wordpool_less_exclusions.txt	LTP244	ltpFR	2	16	1	PUBLISHER	1137	n/a	n/a	1	n/a	n/a	n/a	n/a	n/a
2869764	REC_WORD	wordpools/wasnorm_wordpool_less_exclusions.txt	LTP244	ltpFR	2	16	1	PAINTER	1004	n/a	n/a	1	n/a	n/a	n/a	n/a	n/a
2881188	REC_WORD	wordpools/wasnorm_wordpool_less_exclusions.txt	LTP244	ltpFR	2	16	1	PEDAL	1037	n/a	n/a	0	n/a	n/a	n/a	n/a	n/a
2887414	REC_WORD	wordpools/wasnorm_wordpool_less_exclusions.txt	LTP244	ltpFR	2	16	0	PRAIRIE	1118	n/a	n/a	1	n/a	n/a	n/a	n/a	n/a
2981240	REC_START	n/a	LTP244	ltpFR	2	1	n/a	n/a	n/a	n/a	n/a	n/a	n/a	n/a	n/a	n/a	n/a
2981290	RECOG_LURE	n/a	LTP244	ltpFR	2	1	n/a	RIFLE	1192	0	3	n/a	n/a	n/a	n/a	n/a	n/a
2982734	RECOG_RESP	n/a	LTP244	ltpFR	2	1	n/a	RIFLE	1192	0	n/a	n/a	n/a	n/a	n/a	n/a	n/a
2987431	RECOG_CONF	n/a	LTP244	ltpFR	2	1	n/a	RIFLE	1192	n/a	3	n/a	n/a	n/a	n/a	n/a	n/a
2989303	RECOG_LURE	n/a	LTP244	ltpFR	2	1	n/a	BULB	192	0	4	n/a	n/a	n/a	n/a	n/a	n/a
2990564	RECOG_RESP	n/a	LTP244	ltpFR	2	1	n/a	BULB	192	0	n/a	n/a	n/a	n/a	n/a	n/a	n/a
2991541	RECOG_CONF	n/a	LTP244	ltpFR	2	1	n/a	BULB	192	n/a	4	n/a	n/a	n/a	n/a	n/a	n/a
2993051	RECOG_TARGET	n/a	LTP244	ltpFR	2	1	1	BINDER	127	0	4	0	n/a	n/a	n/a	n/a	n/a
2994386	RECOG_RESP	n/a	LTP244	ltpFR	2	1	1	BINDER	127	0	n/a	0	n/a	n/a	n/a	n/a	n/a
2995173	RECOG_CONF	n/a	LTP244	ltpFR	2	1	1	BINDER	127	n/a	4	0	n/a	n/a	n/a	n/a	n/a
2996932	RECOG_LURE	n/a	LTP244	ltpFR	2	1	n/a	BULLETIN	195	0	4	n/a	n/a	n/a	n/a	n/a	n/a
2998117	RECOG_RESP	n/a	LTP244	ltpFR	2	1	n/a	BULLETIN	195	0	n/a	n/a	n/a	n/a	n/a	n/a	n/a
2998823	RECOG_CONF	n/a	LTP244	ltpFR	2	1	n/a	BULLETIN	195	n/a	4	n/a	n/a	n/a	n/a	n/a	n/a
3000645	RECOG_LURE	n/a	LTP244	ltpFR	2	1	n/a	VENT	1556	1	5	n/a	n/a	n/a	n/a	n/a	n/a
3001559	RECOG_RESP	n/a	LTP244	ltpFR	2	1	n/a	VENT	1556	1	n/a	n/a	n/a	n/a	n/a	n/a	n/a
3002217	RECOG_CONF	n/a	LTP244	ltpFR	2	1	n/a	VENT	1556	n/a	5	n/a	n/a	n/a	n/a	n/a	n/a
3003942	RECOG_TARGET	n/a	LTP244	ltpFR	2	1	0	DIVER	476	1	4	1	n/a	n/a	n/a	n/a	n/a
3004900	RECOG_RESP	n/a	LTP244	ltpFR	2	1	0	DIVER	476	1	n/a	1	n/a	n/a	n/a	n/a	n/a
3005801	RECOG_CONF	n/a	LTP244	ltpFR	2	1	0	DIVER	476	n/a	4	1	n/a	n/a	n/a	n/a	n/a
3007471	RECOG_TARGET	n/a	LTP244	ltpFR	2	1	1	LAPEL	800	1	5	0	n/a	n/a	n/a	n/a	n/a
3008318	RECOG_RESP	n/a	LTP244	ltpFR	2	1	1	LAPEL	800	1	n/a	0	n/a	n/a	n/a	n/a	n/a
3009131	RECOG_CONF	n/a	LTP244	ltpFR	2	1	1	LAPEL	800	n/a	5	0	n/a	n/a	n/a	n/a	n/a
3010985	RECOG_LURE	n/a	LTP244	ltpFR	2	1	n/a	KNOT	788	0	4	n/a	n/a	n/a	n/a	n/a	n/a
3011964	RECOG_RESP	n/a	LTP244	ltpFR	2	1	n/a	KNOT	788	0	n/a	n/a	n/a	n/a	n/a	n/a	n/a
3012833	RECOG_CONF	n/a	LTP244	ltpFR	2	1	n/a	KNOT	788	n/a	4	n/a	n/a	n/a	n/a	n/a	n/a
3014394	RECOG_TARGET	n/a	LTP244	ltpFR	2	1	0	JUNGLE	764	1	5	1	n/a	n/a	n/a	n/a	n/a
3015814	RECOG_RESP	n/a	LTP244	ltpFR	2	1	0	JUNGLE	764	1	n/a	1	n/a	n/a	n/a	n/a	n/a
3016499	RECOG_CONF	n/a	LTP244	ltpFR	2	1	0	JUNGLE	764	n/a	5	1	n/a	n/a	n/a	n/a	n/a
3018212	RECOG_LURE	n/a	LTP244	ltpFR	2	1	n/a	COBWEB	337	0	5	n/a	n/a	n/a	n/a	n/a	n/a
3019363	RECOG_RESP	n/a	LTP244	ltpFR	2	1	n/a	COBWEB	337	0	n/a	n/a	n/a	n/a	n/a	n/a	n/a
3020059	RECOG_CONF	n/a	LTP244	ltpFR	2	1	n/a	COBWEB	337	n/a	5	n/a	n/a	n/a	n/a	n/a	n/a
3021772	RECOG_LURE	n/a	LTP244	ltpFR	2	1	n/a	SAP	1233	0	2	n/a	n/a	n/a	n/a	n/a	n/a
3023040	RECOG_RESP	n/a	LTP244	ltpFR	2	1	n/a	SAP	1233	0	n/a	n/a	n/a	n/a	n/a	n/a	n/a
3025462	RECOG_CONF	n/a	LTP244	ltpFR	2	1	n/a	SAP	1233	n/a	2	n/a	n/a	n/a	n/a	n/a	n/a
3027313	RECOG_TARGET	n/a	LTP244	ltpFR	2	1	0	SWAN	1417	1	5	1	n/a	n/a	n/a	n/a	n/a
3028201	RECOG_RESP	n/a	LTP244	ltpFR	2	1	0	SWAN	1417	1	n/a	1	n/a	n/a	n/a	n/a	n/a
3029026	RECOG_CONF	n/a	LTP244	ltpFR	2	1	0	SWAN	1417	n/a	5	1	n/a	n/a	n/a	n/a	n/a
3030454	RECOG_LURE	n/a	LTP244	ltpFR	2	1	n/a	RIVER	1194	1	4	n/a	n/a	n/a	n/a	n/a	n/a
3031412	RECOG_RESP	n/a	LTP244	ltpFR	2	1	n/a	RIVER	1194	1	n/a	n/a	n/a	n/a	n/a	n/a	n/a
3032279	RECOG_CONF	n/a	LTP244	ltpFR	2	1	n/a	RIVER	1194	n/a	4	n/a	n/a	n/a	n/a	n/a	n/a
3033771	RECOG_TARGET	n/a	LTP244	ltpFR	2	1	1	SAND	1230	1	5	0	n/a	n/a	n/a	n/a	n/a
3034480	RECOG_RESP	n/a	LTP244	ltpFR	2	1	1	SAND	1230	1	n/a	0	n/a	n/a	n/a	n/a	n/a
3035213	RECOG_CONF	n/a	LTP244	ltpFR	2	1	1	SAND	1230	n/a	5	0	n/a	n/a	n/a	n/a	n/a
3036829	RECOG_TARGET	n/a	LTP244	ltpFR	2	1	1	COCOON	339	1	5	0	n/a	n/a	n/a	n/a	n/a
3038743	RECOG_RESP	n/a	LTP244	ltpFR	2	1	1	COCOON	339	1	n/a	0	n/a	n/a	n/a	n/a	n/a
3039388	RECOG_CONF	n/a	LTP244	ltpFR	2	1	1	COCOON	339	n/a	5	0	n/a	n/a	n/a	n/a	n/a
3040914	RECOG_TARGET	n/a	LTP244	ltpFR	2	1	1	PAD	998	1	5	0	n/a	n/a	n/a	n/a	n/a
3041614	RECOG_RESP	n/a	LTP244	ltpFR	2	1	1	PAD	998	1	n/a	0	n/a	n/a	n/a	n/a	n/a
3042096	RECOG_CONF	n/a	LTP244	ltpFR	2	1	1	PAD	998	n/a	5	0	n/a	n/a	n/a	n/a	n/a
3043725	RECOG_TARGET	n/a	LTP244	ltpFR	2	1	-1	LILY	821	1	5	-1	n/a	n/a	n/a	n/a	n/a
3046925	RECOG_RESP	n/a	LTP244	ltpFR	2	1	-1	LILY	821	1	n/a	-1	n/a	n/a	n/a	n/a	n/a
3047829	RECOG_CONF	n/a	LTP244	ltpFR	2	1	-1	LILY	821	n/a	5	-1	n/a	n/a	n/a	n/a	n/a
3049681	RECOG_LURE	n/a	LTP244	ltpFR	2	1	n/a	PERMIT	1051	0	1	n/a	n/a	n/a	n/a	n/a	n/a
3055451	RECOG_RESP	n/a	LTP244	ltpFR	2	1	n/a	PERMIT	1051	0	n/a	n/a	n/a	n/a	n/a	n/a	n/a
3056314	RECOG_CONF	n/a	LTP244	ltpFR	2	1	n/a	PERMIT	1051	n/a	1	n/a	n/a	n/a	n/a	n/a	n/a
3057962	RECOG_LURE	n/a	LTP244	ltpFR	2	1	n/a	CREW	406	0	2	n/a	n/a	n/a	n/a	n/a	n/a
3060329	RECOG_RESP	n/a	LTP244	ltpFR	2	1	n/a	CREW	406	0	n/a	n/a	n/a	n/a	n/a	n/a	n/a
3061271	RECOG_CONF	n/a	LTP244	ltpFR	2	1	n/a	CREW	406	n/a	2	n/a	n/a	n/a	n/a	n/a	n/a
3062880	RECOG_TARGET	n/a	LTP244	ltpFR	2	1	-1	BAND	78	1	5	-1	n/a	n/a	n/a	n/a	n/a
3063742	RECOG_RESP	n/a	LTP244	ltpFR	2	1	-1	BAND	78	1	n/a	-1	n/a	n/a	n/a	n/a	n/a
3064536	RECOG_CONF	n/a	LTP244	ltpFR	2	1	-1	BAND	78	n/a	5	-1	n/a	n/a	n/a	n/a	n/a
3068488	REC_START	n/a	LTP244	ltpFR	2	2	n/a	n/a	n/a	n/a	n/a	n/a	n/a	n/a	n/a	n/a	n/a
3068534	RECOG_LURE	n/a	LTP244	ltpFR	2	2	n/a	ASPIRIN	47	0	4	n/a	n/a	n/a	n/a	n/a	n/a
3069968	RECOG_RESP	n/a	LTP244	ltpFR	2	2	n/a	ASPIRIN	47	0	n/a	n/a	n/a	n/a	n/a	n/a	n/a
3070740	RECOG_CONF	n/a	LTP244	ltpFR	2	2	n/a	ASPIRIN	47	n/a	4	n/a	n/a	n/a	n/a	n/a	n/a
3072499	RECOG_TARGET	n/a	LTP244	ltpFR	2	2	-1	CATCHER	258	1	5	-1	n/a	n/a	n/a	n/a	n/a
3073278	RECOG_RESP	n/a	LTP244	ltpFR	2	2	-1	CATCHER	258	1	n/a	-1	n/a	n/a	n/a	n/a	n/a
3073881	RECOG_CONF	n/a	LTP244	ltpFR	2	2	-1	CATCHER	258	n/a	5	-1	n/a	n/a	n/a	n/a	n/a
3075427	RECOG_LURE	n/a	LTP244	ltpFR	2	2	n/a	SHOE	1288	0	5	n/a	n/a	n/a	n/a	n/a	n/a
3076602	RECOG_RESP	n/a	LTP244	ltpFR	2	2	n/a	SHOE	1288	0	n/a	n/a	n/a	n/a	n/a	n/a	n/a
3077544	RECOG_CONF	n/a	LTP244	ltpFR	2	2	n/a	SHOE	1288	n/a	5	n/a	n/a	n/a	n/a	n/a	n/a
3079393	RECOG_LURE	n/a	LTP244	ltpFR	2	2	n/a	CORN	381	1	1	n/a	n/a	n/a	n/a	n/a	n/a
3080344	RECOG_RESP	n/a	LTP244	ltpFR	2	2	n/a	CORN	381	1	n/a	n/a	n/a	n/a	n/a	n/a	n/a
3081599	RECOG_CONF	n/a	LTP244	ltpFR	2	2	n/a	CORN	381	n/a	1	n/a	n/a	n/a	n/a	n/a	n/a
3083240	RECOG_TARGET	n/a	LTP244	ltpFR	2	2	1	ZUCCHINI	1638	1	2	1	n/a	n/a	n/a	n/a	n/a
3086596	RECOG_RESP	n/a	LTP244	ltpFR	2	2	1	ZUCCHINI	1638	1	n/a	1	n/a	n/a	n/a	n/a	n/a
3087487	RECOG_CONF	n/a	LTP244	ltpFR	2	2	1	ZUCCHINI	1638	n/a	2	1	n/a	n/a	n/a	n/a	n/a
3088995	RECOG_LURE	n/a	LTP244	ltpFR	2	2	n/a	FACTORY	548	0	4	n/a	n/a	n/a	n/a	n/a	n/a
3090814	RECOG_RESP	n/a	LTP244	ltpFR	2	2	n/a	FACTORY	548	0	n/a	n/a	n/a	n/a	n/a	n/a	n/a
3091490	RECOG_CONF	n/a	LTP244	ltpFR	2	2	n/a	FACTORY	548	n/a	4	n/a	n/a	n/a	n/a	n/a	n/a
3093107	RECOG_TARGET	n/a	LTP244	ltpFR	2	2	0	MILITARY	894	1	5	1	n/a	n/a	n/a	n/a	n/a
3094035	RECOG_RESP	n/a	LTP244	ltpFR	2	2	0	MILITARY	894	1	n/a	1	n/a	n/a	n/a	n/a	n/a
3094704	RECOG_CONF	n/a	LTP244	ltpFR	2	2	0	MILITARY	894	n/a	5	1	n/a	n/a	n/a	n/a	n/a
3096540	RECOG_LURE	n/a	LTP244	ltpFR	2	2	n/a	BLANKET	135	0	4	n/a	n/a	n/a	n/a	n/a	n/a
3098417	RECOG_RESP	n/a	LTP244	ltpFR	2	2	n/a	BLANKET	135	0	n/a	n/a	n/a	n/a	n/a	n/a	n/a
3099275	RECOG_CONF	n/a	LTP244	ltpFR	2	2	n/a	BLANKET	135	n/a	4	n/a	n/a	n/a	n/a	n/a	n/a
3100874	RECOG_TARGET	n/a	LTP244	ltpFR	2	2	0	DEER	444	1	5	1	n/a	n/a	n/a	n/a	n/a
3101639	RECOG_RESP	n/a	LTP244	ltpFR	2	2	0	DEER	444	1	n/a	1	n/a	n/a	n/a	n/a	n/a
3102700	RECOG_CONF	n/a	LTP244	ltpFR	2	2	0	DEER	444	n/a	5	1	n/a	n/a	n/a	n/a	n/a
3104353	RECOG_TARGET	n/a	LTP244	ltpFR	2	2	1	HAY	693	1	5	0	n/a	n/a	n/a	n/a	n/a
3105119	RECOG_RESP	n/a	LTP244	ltpFR	2	2	1	HAY	693	1	n/a	0	n/a	n/a	n/a	n/a	n/a
3105838	RECOG_CONF	n/a	LTP244	ltpFR	2	2	1	HAY	693	n/a	5	0	n/a	n/a	n/a	n/a	n/a
3107210	RECOG_LURE	n/a	LTP244	ltpFR	2	2	n/a	SPINE	1353	0	2	n/a	n/a	n/a	n/a	n/a	n/a
3108720	RECOG_RESP	n/a	LTP244	ltpFR	2	2	n/a	SPINE	1353	0	n/a	n/a	n/a	n/a	n/a	n/a	n/a
3109634	RECOG_CONF	n/a	LTP244	ltpFR	2	2	n/a	SPINE	1353	n/a	2	n/a	n/a	n/a	n/a	n/a	n/a
3111112	RECOG_TARGET	n/a	LTP244	ltpFR	2	2	0	UNCLE	1536	1	2	1	n/a	n/a	n/a	n/a	n/a
3112009	RECOG_RESP	n/a	LTP244	ltpFR	2	2	0	UNCLE	1536	1	n/a	1	n/a	n/a	n/a	n/a	n/a
3113303	RECOG_CONF	n/a	LTP244	ltpFR	2	2	0	UNCLE	1536	n/a	2	1	n/a	n/a	n/a	n/a	n/a
3115010	RECOG_LURE	n/a	LTP244	ltpFR	2	2	n/a	BAG	69	0	4	n/a	n/a	n/a	n/a	n/a	n/a
3116580	RECOG_RESP	n/a	LTP244	ltpFR	2	2	n/a	BAG	69	0	n/a	n/a	n/a	n/a	n/a	n/a	n/a
3117333	RECOG_CONF	n/a	LTP244	ltpFR	2	2	n/a	BAG	69	n/a	4	n/a	n/a	n/a	n/a	n/a	n/a
3119038	RECOG_LURE	n/a	LTP244	ltpFR	2	2	n/a	ROOSTER	1209	0	5	n/a	n/a	n/a	n/a	n/a	n/a
3120122	RECOG_RESP	n/a	LTP244	ltpFR	2	2	n/a	ROOSTER	1209	0	n/a	n/a	n/a	n/a	n/a	n/a	n/a
3120934	RECOG_CONF	n/a	LTP244	ltpFR	2	2	n/a	ROOSTER	1209	n/a	5	n/a	n/a	n/a	n/a	n/a	n/a
3122418	RECOG_LURE	n/a	LTP244	ltpFR	2	2	n/a	FEAST	556	0	4	n/a	n/a	n/a	n/a	n/a	n/a
3123527	RECOG_RESP	n/a	LTP244	ltpFR	2	2	n/a	FEAST	556	0	n/a	n/a	n/a	n/a	n/a	n/a	n/a
3124525	RECOG_CONF	n/a	LTP244	ltpFR	2	2	n/a	FEAST	556	n/a	4	n/a	n/a	n/a	n/a	n/a	n/a
3126169	RECOG_TARGET	n/a	LTP244	ltpFR	2	2	0	VINEGAR	1569	1	5	0	n/a	n/a	n/a	n/a	n/a
3127099	RECOG_RESP	n/a	LTP244	ltpFR	2	2	0	VINEGAR	1569	1	n/a	0	n/a	n/a	n/a	n/a	n/a
3127755	RECOG_CONF	n/a	LTP244	ltpFR	2	2	0	VINEGAR	1569	n/a	5	0	n/a	n/a	n/a	n/a	n/a
3129331	RECOG_TARGET	n/a	LTP244	ltpFR	2	2	0	CHIEF	298	1	5	1	n/a	n/a	n/a	n/a	n/a
3130008	RECOG_RESP	n/a	LTP244	ltpFR	2	2	0	CHIEF	298	1	n/a	1	n/a	n/a	n/a	n/a	n/a
3130771	RECOG_CONF	n/a	LTP244	ltpFR	2	2	0	CHIEF	298	n/a	5	1	n/a	n/a	n/a	n/a	n/a
3132192	RECOG_TARGET	n/a	LTP244	ltpFR	2	2	0	NEUTRON	947	1	5	0	n/a	n/a	n/a	n/a	n/a
3133149	RECOG_RESP	n/a	LTP244	ltpFR	2	2	0	NEUTRON	947	1	n/a	0	n/a	n/a	n/a	n/a	n/a
3133843	RECOG_CONF	n/a	LTP244	ltpFR	2	2	0	NEUTRON	947	n/a	5	0	n/a	n/a	n/a	n/a	n/a
3135466	RECOG_LURE	n/a	LTP244	ltpFR	2	2	n/a	SLEIGH	1325	0	5	n/a	n/a	n/a	n/a	n/a	n/a
3136489	RECOG_RESP	n/a	LTP244	ltpFR	2	2	n/a	SLEIGH	1325	0	n/a	n/a	n/a	n/a	n/a	n/a	n/a
3137614	RECOG_CONF	n/a	LTP244	ltpFR	2	2	n/a	SLEIGH	1325	n/a	5	n/a	n/a	n/a	n/a	n/a	n/a
3139402	RECOG_TARGET	n/a	LTP244	ltpFR	2	2	0	FELLOW	558	1	5	1	n/a	n/a	n/a	n/a	n/a
3140433	RECOG_RESP	n/a	LTP244	ltpFR	2	2	0	FELLOW	558	1	n/a	1	n/a	n/a	n/a	n/a	n/a
3141031	RECOG_CONF	n/a	LTP244	ltpFR	2	2	0	FELLOW	558	n/a	5	1	n/a	n/a	n/a	n/a	n/a
3144539	REC_START	n/a	LTP244	ltpFR	2	3	n/a	n/a	n/a	n/a	n/a	n/a	n/a	n/a	n/a	n/a	n/a
3144587	RECOG_LURE	n/a	LTP244	ltpFR	2	3	n/a	JAPAN	749	1	3	n/a	n/a	n/a	n/a	n/a	n/a
3146941	RECOG_RESP	n/a	LTP244	ltpFR	2	3	n/a	JAPAN	749	1	n/a	n/a	n/a	n/a	n/a	n/a	n/a
3147689	RECOG_CONF	n/a	LTP244	ltpFR	2	3	n/a	JAPAN	749	n/a	3	n/a	n/a	n/a	n/a	n/a	n/a
3149306	RECOG_TARGET	n/a	LTP244	ltpFR	2	3	0	SHOULDER	1294	1	5	1	n/a	n/a	n/a	n/a	n/a
3150132	RECOG_RESP	n/a	LTP244	ltpFR	2	3	0	SHOULDER	1294	1	n/a	1	n/a	n/a	n/a	n/a	n/a
3150872	RECOG_CONF	n/a	LTP244	ltpFR	2	3	0	SHOULDER	1294	n/a	5	1	n/a	n/a	n/a	n/a	n/a
3152450	RECOG_TARGET	n/a	LTP244	ltpFR	2	3	1	BOOK	149	0	4	0	n/a	n/a	n/a	n/a	n/a
3153627	RECOG_RESP	n/a	LTP244	ltpFR	2	3	1	BOOK	149	0	n/a	0	n/a	n/a	n/a	n/a	n/a
3154578	RECOG_CONF	n/a	LTP244	ltpFR	2	3	1	BOOK	149	n/a	4	0	n/a	n/a	n/a	n/a	n/a
3156228	RECOG_TARGET	n/a	LTP244	ltpFR	2	3	1	SCREEN	1253	1	5	0	n/a	n/a	n/a	n/a	n/a
3158435	RECOG_RESP	n/a	LTP244	ltpFR	2	3	1	SCREEN	1253	1	n/a	0	n/a	n/a	n/a	n/a	n/a
3158997	RECOG_CONF	n/a	LTP244	ltpFR	2	3	1	SCREEN	1253	n/a	5	0	n/a	n/a	n/a	n/a	n/a
3160682	RECOG_TARGET	n/a	LTP244	ltpFR	2	3	1	FRIES	607	1	5	0	n/a	n/a	n/a	n/a	n/a
3161830	RECOG_RESP	n/a	LTP244	ltpFR	2	3	1	FRIES	607	1	n/a	0	n/a	n/a	n/a	n/a	n/a
3162565	RECOG_CONF	n/a	LTP244	ltpFR	2	3	1	FRIES	607	n/a	5	0	n/a	n/a	n/a	n/a	n/a
3164279	RECOG_LURE	n/a	LTP244	ltpFR	2	3	n/a	SKI	1316	1	5	n/a	n/a	n/a	n/a	n/a	n/a
3164992	RECOG_RESP	n/a	LTP244	ltpFR	2	3	n/a	SKI	1316	1	n/a	n/a	n/a	n/a	n/a	n/a	n/a
3165736	RECOG_CONF	n/a	LTP244	ltpFR	2	3	n/a	SKI	1316	n/a	5	n/a	n/a	n/a	n/a	n/a	n/a
3167274	RECOG_TARGET	n/a	LTP244	ltpFR	2	3	0	WALL	1582	1	5	1	n/a	n/a	n/a	n/a	n/a
3168602	RECOG_RESP	n/a	LTP244	ltpFR	2	3	0	WALL	1582	1	n/a	1	n/a	n/a	n/a	n/a	n/a
3169274	RECOG_CONF	n/a	LTP244	ltpFR	2	3	0	WALL	1582	n/a	5	1	n/a	n/a	n/a	n/a	n/a
3170988	RECOG_TARGET	n/a	LTP244	ltpFR	2	3	0	OMELET	976	1	5	0	n/a	n/a	n/a	n/a	n/a
3172059	RECOG_RESP	n/a	LTP244	ltpFR	2	3	0	OMELET	976	1	n/a	0	n/a	n/a	n/a	n/a	n/a
3172741	RECOG_CONF	n/a	LTP244	ltpFR	2	3	0	OMELET	976	n/a	5	0	n/a	n/a	n/a	n/a	n/a
3174483	RECOG_LURE	n/a	LTP244	ltpFR	2	3	n/a	RELATIVE	1182	0	2	n/a	n/a	n/a	n/a	n/a	n/a
3175977	RECOG_RESP	n/a	LTP244	ltpFR	2	3	n/a	RELATIVE	1182	0	n/a	n/a	n/a	n/a	n/a	n/a	n/a
3176747	RECOG_CONF	n/a	LTP244	ltpFR	2	3	n/a	RELATIVE	1182	n/a	2	n/a	n/a	n/a	n/a	n/a	n/a
3178395	RECOG_LURE	n/a	LTP244	ltpFR	2	3	n/a	OWNER	993	0	3	n/a	n/a	n/a	n/a	n/a	n/a
3179912	RECOG_RESP	n/a	LTP244	ltpFR	2	3	n/a	OWNER	993	0	n/a	n/a	n/a	n/a	n/a	n/a	n/a
3180752	RECOG_CONF	n/a	LTP244	ltpFR	2	3	n/a	OWNER	993	n/a	3	n/a	n/a	n/a	n/a	n/a	n/a
3182264	RECOG_TARGET	n/a	LTP244	ltpFR	2	3	1	SAPPHIRE	1234	1	5	0	n/a	n/a	n/a	n/a	n/a
3183037	RECOG_RESP	n/a	LTP244	ltpFR	2	3	1	SAPPHIRE	1234	1	n/a	0	n/a	n/a	n/a	n/a	n/a
3183815	RECOG_CONF	n/a	LTP244	ltpFR	2	3	1	SAPPHIRE	1234	n/a	5	0	n/a	n/a	n/a	n/a	n/a
3185325	RECOG_TARGET	n/a	LTP244	ltpFR	2	3	0	TURKEY	1520	1	5	1	n/a	n/a	n/a	n/a	n/a
3186301	RECOG_RESP	n/a	LTP244	ltpFR	2	3	0	TURKEY	1520	1	n/a	1	n/a	n/a	n/a	n/a	n/a
3187015	RECOG_CONF	n/a	LTP244	ltpFR	2	3	0	TURKEY	1520	n/a	5	1	n/a	n/a	n/a	n/a	n/a
3188616	RECOG_TARGET	n/a	LTP244	ltpFR	2	3	0	ATOM	55	1	2	0	n/a	n/a	n/a	n/a	n/a
3189357	RECOG_RESP	n/a	LTP244	ltpFR	2	3	0	ATOM	55	1	n/a	0	n/a	n/a	n/a	n/a	n/a
3190551	RECOG_CONF	n/a	LTP244	ltpFR	2	3	0	ATOM	55	n/a	2	0	n/a	n/a	n/a	n/a	n/a
3192181	RECOG_TARGET	n/a	LTP244	ltpFR	2	3	-1	SENATOR	1268	1	5	-1	n/a	n/a	n/a	n/a	n/a
3192964	RECOG_RESP	n/a	LTP244	ltpFR	2	3	-1	SENATOR	1268	1	n/a	-1	n/a	n/a	n/a	n/a	n/a
3193600	RECOG_CONF	n/a	LTP244	ltpFR	2	3	-1	SENATOR	1268	n/a	5	-1	n/a	n/a	n/a	n/a	n/a
3195162	RECOG_LURE	n/a	LTP244	ltpFR	2	3	n/a	EARRING	514	0	2	n/a	n/a	n/a	n/a	n/a	n/a
3196919	RECOG_RESP	n/a	LTP244	ltpFR	2	3	n/a	EARRING	514	0	n/a	n/a	n/a	n/a	n/a	n/a	n/a
3197732	RECOG_CONF	n/a	LTP244	ltpFR	2	3	n/a	EARRING	514	n/a	2	n/a	n/a	n/a	n/a	n/a	n/a
3199408	RECOG_TARGET	n/a	LTP244	ltpFR	2	3	-1	CREEK	404	1	5	-1	n/a	n/a	n/a	n/a	n/a
3200601	RECOG_RESP	n/a	LTP244	ltpFR	2	3	-1	CREEK	404	1	n/a	-1	n/a	n/a	n/a	n/a	n/a
3201199	RECOG_CONF	n/a	LTP244	ltpFR	2	3	-1	CREEK	404	n/a	5	-1	n/a	n/a	n/a	n/a	n/a
3202691	RECOG_TARGET	n/a	LTP244	ltpFR	2	3	1	VILLAGE	1566	1	5	0	n/a	n/a	n/a	n/a	n/a
3203345	RECOG_RESP	n/a	LTP244	ltpFR	2	3	1	VILLAGE	1566	1	n/a	0	n/a	n/a	n/a	n/a	n/a
3203936	RECOG_CONF	n/a	LTP244	ltpFR	2	3	1	VILLAGE	1566	n/a	5	0	n/a	n/a	n/a	n/a	n/a
3205530	RECOG_LURE	n/a	LTP244	ltpFR	2	3	n/a	HERO	706	0	4	n/a	n/a	n/a	n/a	n/a	n/a
3206542	RECOG_RESP	n/a	LTP244	ltpFR	2	3	n/a	HERO	706	0	n/a	n/a	n/a	n/a	n/a	n/a	n/a
3207850	RECOG_CONF	n/a	LTP244	ltpFR	2	3	n/a	HERO	706	n/a	4	n/a	n/a	n/a	n/a	n/a	n/a
3209465	RECOG_TARGET	n/a	LTP244	ltpFR	2	3	-1	WASP	1593	1	5	-1	n/a	n/a	n/a	n/a	n/a
3210234	RECOG_RESP	n/a	LTP244	ltpFR	2	3	-1	WASP	1593	1	n/a	-1	n/a	n/a	n/a	n/a	n/a
3210795	RECOG_CONF	n/a	LTP244	ltpFR	2	3	-1	WASP	1593	n/a	5	-1	n/a	n/a	n/a	n/a	n/a
3212160	RECOG_LURE	n/a	LTP244	ltpFR	2	3	n/a	DIAGRAM	456	1	2	n/a	n/a	n/a	n/a	n/a	n/a
3215166	RECOG_RESP	n/a	LTP244	ltpFR	2	3	n/a	DIAGRAM	456	1	n/a	n/a	n/a	n/a	n/a	n/a	n/a
3218997	RECOG_CONF	n/a	LTP244	ltpFR	2	3	n/a	DIAGRAM	456	n/a	2	n/a	n/a	n/a	n/a	n/a	n/a
3225164	REC_START	n/a	LTP244	ltpFR	2	4	n/a	n/a	n/a	n/a	n/a	n/a	n/a	n/a	n/a	n/a	n/a
3225209	RECOG_LURE	n/a	LTP244	ltpFR	2	4	n/a	RASH	1167	0	4	n/a	n/a	n/a	n/a	n/a	n/a
3226465	RECOG_RESP	n/a	LTP244	ltpFR	2	4	n/a	RASH	1167	0	n/a	n/a	n/a	n/a	n/a	n/a	n/a
3227121	RECOG_CONF	n/a	LTP244	ltpFR	2	4	n/a	RASH	1167	n/a	4	n/a	n/a	n/a	n/a	n/a	n/a
3228587	RECOG_TARGET	n/a	LTP244	ltpFR	2	4	0	SKETCH	1315	1	5	0	n/a	n/a	n/a	n/a	n/a
3229715	RECOG_RESP	n/a	LTP244	ltpFR	2	4	0	SKETCH	1315	1	n/a	0	n/a	n/a	n/a	n/a	n/a
3230232	RECOG_CONF	n/a	LTP244	ltpFR	2	4	0	SKETCH	1315	n/a	5	0	n/a	n/a	n/a	n/a	n/a
3231666	RECOG_TARGET	n/a	LTP244	ltpFR	2	4	0	ANGEL	22	1	5	1	n/a	n/a	n/a	n/a	n/a
3232368	RECOG_RESP	n/a	LTP244	ltpFR	2	4	0	ANGEL	22	1	n/a	1	n/a	n/a	n/a	n/a	n/a
3232966	RECOG_CONF	n/a	LTP244	ltpFR	2	4	0	ANGEL	22	n/a	5	1	n/a	n/a	n/a	n/a	n/a
3234526	RECOG_LURE	n/a	LTP244	ltpFR	2	4	n/a	PIZZA	1079	0	3	n/a	n/a	n/a	n/a	n/a	n/a
3235807	RECOG_RESP	n/a	LTP244	ltpFR	2	4	n/a	PIZZA	1079	0	n/a	n/a	n/a	n/a	n/a	n/a	n/a
3236523	RECOG_CONF	n/a	LTP244	ltpFR	2	4	n/a	PIZZA	1079	n/a	3	n/a	n/a	n/a	n/a	n/a	n/a
3238020	RECOG_TARGET	n/a	LTP244	ltpFR	2	4	-1	WASHCLOTH	1591	1	5	-1	n/a	n/a	n/a	n/a	n/a
3238781	RECOG_RESP	n/a	LTP244	ltpFR	2	4	-1	WASHCLOTH	1591	1	n/a	-1	n/a	n/a	n/a	n/a	n/a
3239306	RECOG_CONF	n/a	LTP244	ltpFR	2	4	-1	WASHCLOTH	1591	n/a	5	-1	n/a	n/a	n/a	n/a	n/a
3240931	RECOG_LURE	n/a	LTP244	ltpFR	2	4	n/a	INMATE	738	0	4	n/a	n/a	n/a	n/a	n/a	n/a
3241916	RECOG_RESP	n/a	LTP244	ltpFR	2	4	n/a	INMATE	738	0	n/a	n/a	n/a	n/a	n/a	n/a	n/a
3242759	RECOG_CONF	n/a	LTP244	ltpFR	2	4	n/a	INMATE	738	n/a	4	n/a	n/a	n/a	n/a	n/a	n/a
3244009	RECOG_LURE	n/a	LTP244	ltpFR	2	4	n/a	RUST	1219	0	2	n/a	n/a	n/a	n/a	n/a	n/a
3246201	RECOG_RESP	n/a	LTP244	ltpFR	2	4	n/a	RUST	1219	0	n/a	n/a	n/a	n/a	n/a	n/a	n/a
3248233	RECOG_CONF	n/a	LTP244	ltpFR	2	4	n/a	RUST	1219	n/a	2	n/a	n/a	n/a	n/a	n/a	n/a
3249852	RECOG_LURE	n/a	LTP244	ltpFR	2	4	n/a	DIAPER	459	0	2	n/a	n/a	n/a	n/a	n/a	n/a
3250967	RECOG_RESP	n/a	LTP244	ltpFR	2	4	n/a	DIAPER	459	0	n/a	n/a	n/a	n/a	n/a	n/a	n/a
3252059	RECOG_CONF	n/a	LTP244	ltpFR	2	4	n/a	DIAPER	459	n/a	2	n/a	n/a	n/a	n/a	n/a	n/a
3253750	RECOG_TARGET	n/a	LTP244	ltpFR	2	4	0	WEED	1599	1	3	0	n/a	n/a	n/a	n/a	n/a
3254768	RECOG_RESP	n/a	LTP244	ltpFR	2	4	0	WEED	1599	1	n/a	0	n/a	n/a	n/a	n/a	n/a
3255785	RECOG_CONF	n/a	LTP244	ltpFR	2	4	0	WEED	1599	n/a	3	0	n/a	n/a	n/a	n/a	n/a
3257429	RECOG_LURE	n/a	LTP244	ltpFR	2	4	n/a	GRAVEL	659	0	4	n/a	n/a	n/a	n/a	n/a	n/a
3258302	RECOG_RESP	n/a	LTP244	ltpFR	2	4	n/a	GRAVEL	659	0	n/a	n/a	n/a	n/a	n/a	n/a	n/a
3259172	RECOG_CONF	n/a	LTP244	ltpFR	2	4	n/a	GRAVEL	659	n/a	4	n/a	n/a	n/a	n/a	n/a	n/a
3260574	RECOG_TARGET	n/a	LTP244	ltpFR	2	4	-1	COUNTY	389	1	5	-1	n/a	n/a	n/a	n/a	n/a
3261509	RECOG_RESP	n/a	LTP244	ltpFR	2	4	-1	COUNTY	389	1	n/a	-1	n/a	n/a	n/a	n/a	n/a
3262120	RECOG_CONF	n/a	LTP244	ltpFR	2	4	-1	COUNTY	389	n/a	5	-1	n/a	n/a	n/a	n/a	n/a
3263788	RECOG_TARGET	n/a	LTP244	ltpFR	2	4	-1	GROCERIES	663	1	5	-1	n/a	n/a	n/a	n/a	n/a
3264598	RECOG_RESP	n/a	LTP244	ltpFR	2	4	-1	GROCERIES	663	1	n/a	-1	n/a	n/a	n/a	n/a	n/a
3265329	RECOG_CONF	n/a	LTP244	ltpFR	2	4	-1	GROCERIES	663	n/a	5	-1	n/a	n/a	n/a	n/a	n/a
3266816	RECOG_TARGET	n/a	LTP244	ltpFR	2	4	0	ACROBAT	4	1	5	0	n/a	n/a	n/a	n/a	n/a
3268477	RECOG_RESP	n/a	LTP244	ltpFR	2	4	0	ACROBAT	4	1	n/a	0	n/a	n/a	n/a	n/a	n/a
3269053	RECOG_CONF	n/a	LTP244	ltpFR	2	4	0	ACROBAT	4	n/a	5	0	n/a	n/a	n/a	n/a	n/a
3270680	RECOG_TARGET	n/a	LTP244	ltpFR	2	4	0	MAID	856	0	2	1	n/a	n/a	n/a	n/a	n/a
3272114	RECOG_RESP	n/a	LTP244	ltpFR	2	4	0	MAID	856	0	n/a	1	n/a	n/a	n/a	n/a	n/a
3272825	RECOG_CONF	n/a	LTP244	ltpFR	2	4	0	MAID	856	n/a	2	1	n/a	n/a	n/a	n/a	n/a
3274377	RECOG_LURE	n/a	LTP244	ltpFR	2	4	n/a	TRAY	1498	0	4	n/a	n/a	n/a	n/a	n/a	n/a
3275717	RECOG_RESP	n/a	LTP244	ltpFR	2	4	n/a	TRAY	1498	0	n/a	n/a	n/a	n/a	n/a	n/a	n/a
3276438	RECOG_CONF	n/a	LTP244	ltpFR	2	4	n/a	TRAY	1498	n/a	4	n/a	n/a	n/a	n/a	n/a	n/a
3278041	RECOG_TARGET	n/a	LTP244	ltpFR	2	4	-1	ENVELOPE	537	1	5	-1	n/a	n/a	n/a	n/a	n/a
3278982	RECOG_RESP	n/a	LTP244	ltpFR	2	4	-1	ENVELOPE	537	1	n/a	-1	n/a	n/a	n/a	n/a	n/a
3279592	RECOG_CONF	n/a	LTP244	ltpFR	2	4	-1	ENVELOPE	537	n/a	5	-1	n/a	n/a	n/a	n/a	n/a
3281253	RECOG_TARGET	n/a	LTP244	ltpFR	2	4	1	BASEMENT	94	1	5	0	n/a	n/a	n/a	n/a	n/a
3281911	RECOG_RESP	n/a	LTP244	ltpFR	2	4	1	BASEMENT	94	1	n/a	0	n/a	n/a	n/a	n/a	n/a
3282693	RECOG_CONF	n/a	LTP244	ltpFR	2	4	1	BASEMENT	94	n/a	5	0	n/a	n/a	n/a	n/a	n/a
3284884	RECOG_LURE	n/a	LTP244	ltpFR	2	4	n/a	TOAST	1471	0	2	n/a	n/a	n/a	n/a	n/a	n/a
3286175	RECOG_RESP	n/a	LTP244	ltpFR	2	4	n/a	TOAST	1471	0	n/a	n/a	n/a	n/a	n/a	n/a	n/a
3287019	RECOG_CONF	n/a	LTP244	ltpFR	2	4	n/a	TOAST	1471	n/a	2	n/a	n/a	n/a	n/a	n/a	n/a
3288530	RECOG_LURE	n/a	LTP244	ltpFR	2	4	n/a	SLEEVE	1324	0	3	n/a	n/a	n/a	n/a	n/a	n/a
3289531	RECOG_RESP	n/a	LTP244	ltpFR	2	4	n/a	SLEEVE	1324	0	n/a	n/a	n/a	n/a	n/a	n/a	n/a
3290441	RECOG_CONF	n/a	LTP244	ltpFR	2	4	n/a	SLEEVE	1324	n/a	3	n/a	n/a	n/a	n/a	n/a	n/a
3292044	RECOG_TARGET	n/a	LTP244	ltpFR	2	4	1	CANNON	232	0	2	0	n/a	n/a	n/a	n/a	n/a
3293851	RECOG_RESP	n/a	LTP244	ltpFR	2	4	1	CANNON	232	0	n/a	0	n/a	n/a	n/a	n/a	n/a
3294672	RECOG_CONF	n/a	LTP244	ltpFR	2	4	1	CANNON	232	n/a	2	0	n/a	n/a	n/a	n/a	n/a
3309396	REC_START	n/a	LTP244	ltpFR	2	5	n/a	n/a	n/a	n/a	n/a	n/a	n/a	n/a	n/a	n/a	n/a
3309442	RECOG_LURE	n/a	LTP244	ltpFR	2	5	n/a	PICKLE	1059	1	1	n/a	n/a	n/a	n/a	n/a	n/a
3310300	RECOG_RESP	n/a	LTP244	ltpFR	2	5	n/a	PICKLE	1059	1	n/a	n/a	n/a	n/a	n/a	n/a	n/a
3311745	RECOG_CONF	n/a	LTP244	ltpFR	2	5	n/a	PICKLE	1059	n/a	1	n/a	n/a	n/a	n/a	n/a	n/a
3313187	RECOG_TARGET	n/a	LTP244	ltpFR	2	5	-1	AIRPLANE	12	1	5	-1	n/a	n/a	n/a	n/a	n/a
3314021	RECOG_RESP	n/a	LTP244	ltpFR	2	5	-1	AIRPLANE	12	1	n/a	-1	n/a	n/a	n/a	n/a	n/a
3314755	RECOG_CONF	n/a	LTP244	ltpFR	2	5	-1	AIRPLANE	12	n/a	5	-1	n/a	n/a	n/a	n/a	n/a
3316001	RECOG_TARGET	n/a	LTP244	ltpFR	2	5	1	PRIEST	1122	1	5	1	n/a	n/a	n/a	n/a	n/a
3316865	RECOG_RESP	n/a	LTP244	ltpFR	2	5	1	PRIEST	1122	1	n/a	1	n/a	n/a	n/a	n/a	n/a
3317483	RECOG_CONF	n/a	LTP244	ltpFR	2	5	1	PRIEST	1122	n/a	5	1	n/a	n/a	n/a	n/a	n/a
3319012	RECOG_TARGET	n/a	LTP244	ltpFR	2	5	1	KITTEN	780	1	5	1	n/a	n/a	n/a	n/a	n/a
3319619	RECOG_RESP	n/a	LTP244	ltpFR	2	5	1	KITTEN	780	1	n/a	1	n/a	n/a	n/a	n/a	n/a
3320190	RECOG_CONF	n/a	LTP244	ltpFR	2	5	1	KITTEN	780	n/a	5	1	n/a	n/a	n/a	n/a	n/a
3321689	RECOG_LURE	n/a	LTP244	ltpFR	2	5	n/a	ELF	525	0	4	n/a	n/a	n/a	n/a	n/a	n/a
3322484	RECOG_RESP	n/a	LTP244	ltpFR	2	5	n/a	ELF	525	0	n/a	n/a	n/a	n/a	n/a	n/a	n/a
3323150	RECOG_CONF	n/a	LTP244	ltpFR	2	5	n/a	ELF	525	n/a	4	n/a	n/a	n/a	n/a	n/a	n/a
3324649	RECOG_LURE	n/a	LTP244	ltpFR	2	5	n/a	SHUTTER	1300	1	1	n/a	n/a	n/a	n/a	n/a	n/a
3325279	RECOG_RESP	n/a	LTP244	ltpFR	2	5	n/a	SHUTTER	1300	1	n/a	n/a	n/a	n/a	n/a	n/a	n/a
3326691	RECOG_CONF	n/a	LTP244	ltpFR	2	5	n/a	SHUTTER	1300	n/a	1	n/a	n/a	n/a	n/a	n/a	n/a
3328310	RECOG_LURE	n/a	LTP244	ltpFR	2	5	n/a	BROTHER	179	0	4	n/a	n/a	n/a	n/a	n/a	n/a
3329316	RECOG_RESP	n/a	LTP244	ltpFR	2	5	n/a	BROTHER	179	0	n/a	n/a	n/a	n/a	n/a	n/a	n/a
3330032	RECOG_CONF	n/a	LTP244	ltpFR	2	5	n/a	BROTHER	179	n/a	4	n/a	n/a	n/a	n/a	n/a	n/a
3331642	RECOG_LURE	n/a	LTP244	ltpFR	2	5	n/a	DIAL	457	0	5	n/a	n/a	n/a	n/a	n/a	n/a
3332503	RECOG_RESP	n/a	LTP244	ltpFR	2	5	n/a	DIAL	457	0	n/a	n/a	n/a	n/a	n/a	n/a	n/a
3333094	RECOG_CONF	n/a	LTP244	ltpFR	2	5	n/a	DIAL	457	n/a	5	n/a	n/a	n/a	n/a	n/a	n/a
3334705	RECOG_LURE	n/a	LTP244	ltpFR	2	5	n/a	SKIRT	1319	0	4	n/a	n/a	n/a	n/a	n/a	n/a
3335492	RECOG_RESP	n/a	LTP244	ltpFR	2	5	n/a	SKIRT	1319	0	n/a	n/a	n/a	n/a	n/a	n/a	n/a
3336250	RECOG_CONF	n/a	LTP244	ltpFR	2	5	n/a	SKIRT	1319	n/a	4	n/a	n/a	n/a	n/a	n/a	n/a
3337581	RECOG_TARGET	n/a	LTP244	ltpFR	2	5	1	CUCUMBER	421	1	4	1	n/a	n/a	n/a	n/a	n/a
3338168	RECOG_RESP_VV	n/a	LTP244	ltpFR	2	5	1	CUCUMBER	421	0	n/a	1	n/a	n/a	n/a	n/a	n/a
3339046	RECOG_RESP	n/a	LTP244	ltpFR	2	5	1	CUCUMBER	421	1	n/a	1	n/a	n/a	n/a	n/a	n/a
3339609	RECOG_CONF	n/a	LTP244	ltpFR	2	5	1	CUCUMBER	421	n/a	4	1	n/a	n/a	n/a	n/a	n/a
3341280	RECOG_LURE	n/a	LTP244	ltpFR	2	5	n/a	STAPLER	1372	0	4	n/a	n/a	n/a	n/a	n/a	n/a
3342446	RECOG_RESP	n/a	LTP244	ltpFR	2	5	n/a	STAPLER	1372	0	n/a	n/a	n/a	n/a	n/a	n/a	n/a
3344900	RECOG_CONF	n/a	LTP244	ltpFR	2	5	n/a	STAPLER	1372	n/a	4	n/a	n/a	n/a	n/a	n/a	n/a
3346315	RECOG_TARGET	n/a	LTP244	ltpFR	2	5	-1	CANDLE	229	1	5	-1	n/a	n/a	n/a	n/a	n/a
3347152	RECOG_RESP	n/a	LTP244	ltpFR	2	5	-1	CANDLE	229	1	n/a	-1	n/a	n/a	n/a	n/a	n/a
3347713	RECOG_CONF	n/a	LTP244	ltpFR	2	5	-1	CANDLE	229	n/a	5	-1	n/a	n/a	n/a	n/a	n/a
3349143	RECOG_TARGET	n/a	LTP244	ltpFR	2	5	-1	MONK	910	1	5	-1	n/a	n/a	n/a	n/a	n/a
3349768	RECOG_RESP	n/a	LTP244	ltpFR	2	5	-1	MONK	910	1	n/a	-1	n/a	n/a	n/a	n/a	n/a
3350405	RECOG_CONF	n/a	LTP244	ltpFR	2	5	-1	MONK	910	n/a	5	-1	n/a	n/a	n/a	n/a	n/a
3351970	RECOG_LURE	n/a	LTP244	ltpFR	2	5	n/a	FOOTBALL	591	0	5	n/a	n/a	n/a	n/a	n/a	n/a
3352862	RECOG_RESP	n/a	LTP244	ltpFR	2	5	n/a	FOOTBALL	591	0	n/a	n/a	n/a	n/a	n/a	n/a	n/a
3353560	RECOG_CONF	n/a	LTP244	ltpFR	2	5	n/a	FOOTBALL	591	n/a	5	n/a	n/a	n/a	n/a	n/a	n/a
3355031	RECOG_LURE	n/a	LTP244	ltpFR	2	5	n/a	WIFE	1609	0	3	n/a	n/a	n/a	n/a	n/a	n/a
3356369	RECOG_RESP	n/a	LTP244	ltpFR	2	5	n/a	WIFE	1609	0	n/a	n/a	n/a	n/a	n/a	n/a	n/a
3357048	RECOG_CONF	n/a	LTP244	ltpFR	2	5	n/a	WIFE	1609	n/a	3	n/a	n/a	n/a	n/a	n/a	n/a
3358796	RECOG_LURE	n/a	LTP244	ltpFR	2	5	n/a	NUT	965	0	4	n/a	n/a	n/a	n/a	n/a	n/a
3359617	RECOG_RESP	n/a	LTP244	ltpFR	2	5	n/a	NUT	965	0	n/a	n/a	n/a	n/a	n/a	n/a	n/a
3360297	RECOG_CONF	n/a	LTP244	ltpFR	2	5	n/a	NUT	965	n/a	4	n/a	n/a	n/a	n/a	n/a	n/a
3361958	RECOG_LURE	n/a	LTP244	ltpFR	2	5	n/a	PUMPKIN	1142	0	2	n/a	n/a	n/a	n/a	n/a	n/a
3363110	RECOG_RESP	n/a	LTP244	ltpFR	2	5	n/a	PUMPKIN	1142	0	n/a	n/a	n/a	n/a	n/a	n/a	n/a
3363874	RECOG_CONF	n/a	LTP244	ltpFR	2	5	n/a	PUMPKIN	1142	n/a	2	n/a	n/a	n/a	n/a	n/a	n/a
3365604	RECOG_LURE	n/a	LTP244	ltpFR	2	5	n/a	MICROPHONE	890	0	4	n/a	n/a	n/a	n/a	n/a	n/a
3367300	RECOG_RESP	n/a	LTP244	ltpFR	2	5	n/a	MICROPHONE	890	0	n/a	n/a	n/a	n/a	n/a	n/a	n/a
3368084	RECOG_CONF	n/a	LTP244	ltpFR	2	5	n/a	MICROPHONE	890	n/a	4	n/a	n/a	n/a	n/a	n/a	n/a
3369602	RECOG_TARGET	n/a	LTP244	ltpFR	2	5	1	PARROT	1015	1	5	0	n/a	n/a	n/a	n/a	n/a
3370380	RECOG_RESP	n/a	LTP244	ltpFR	2	5	1	PARROT	1015	1	n/a	0	n/a	n/a	n/a	n/a	n/a
3371037	RECOG_CONF	n/a	LTP244	ltpFR	2	5	1	PARROT	1015	n/a	5	0	n/a	n/a	n/a	n/a	n/a
3372849	RECOG_TARGET	n/a	LTP244	ltpFR	2	5	-1	WAGON	1578	1	5	-1	n/a	n/a	n/a	n/a	n/a
3373457	RECOG_RESP	n/a	LTP244	ltpFR	2	5	-1	WAGON	1578	1	n/a	-1	n/a	n/a	n/a	n/a	n/a
3374118	RECOG_CONF	n/a	LTP244	ltpFR	2	5	-1	WAGON	1578	n/a	5	-1	n/a	n/a	n/a	n/a	n/a
3377598	REC_START	n/a	LTP244	ltpFR	2	6	n/a	n/a	n/a	n/a	n/a	n/a	n/a	n/a	n/a	n/a	n/a
3377649	RECOG_LURE	n/a	LTP244	ltpFR	2	6	n/a	SUMMIT	1405	0	4	n/a	n/a	n/a	n/a	n/a	n/a
3378871	RECOG_RESP_VV	n/a	LTP244	ltpFR	2	6	n/a	SUMMIT	1405	0	n/a	n/a	n/a	n/a	n/a	n/a	n/a
3379550	RECOG_RESP	n/a	LTP244	ltpFR	2	6	n/a	SUMMIT	1405	0	n/a	n/a	n/a	n/a	n/a	n/a	n/a
3380217	RECOG_CONF	n/a	LTP244	ltpFR	2	6	n/a	SUMMIT	1405	n/a	4	n/a	n/a	n/a	n/a	n/a	n/a
3381883	RECOG_TARGET	n/a	LTP244	ltpFR	2	6	-1	TUXEDO	1525	1	5	-1	n/a	n/a	n/a	n/a	n/a
3382589	RECOG_RESP	n/a	LTP244	ltpFR	2	6	-1	TUXEDO	1525	1	n/a	-1	n/a	n/a	n/a	n/a	n/a
3383220	RECOG_CONF	n/a	LTP244	ltpFR	2	6	-1	TUXEDO	1525	n/a	5	-1	n/a	n/a	n/a	n/a	n/a
3384542	RECOG_LURE	n/a	LTP244	ltpFR	2	6	n/a	COBBLER	335	0	4	n/a	n/a	n/a	n/a	n/a	n/a
3385690	RECOG_RESP	n/a	LTP244	ltpFR	2	6	n/a	COBBLER	335	0	n/a	n/a	n/a	n/a	n/a	n/a	n/a
3386393	RECOG_CONF	n/a	LTP244	ltpFR	2	6	n/a	COBBLER	335	n/a	4	n/a	n/a	n/a	n/a	n/a	n/a
3387805	RECOG_LURE	n/a	LTP244	ltpFR	2	6	n/a	ORCHESTRA	981	0	4	n/a	n/a	n/a	n/a	n/a	n/a
3388706	RECOG_RESP	n/a	LTP244	ltpFR	2	6	n/a	ORCHESTRA	981	0	n/a	n/a	n/a	n/a	n/a	n/a	n/a
3389392	RECOG_CONF	n/a	LTP244	ltpFR	2	6	n/a	ORCHESTRA	981	n/a	4	n/a	n/a	n/a	n/a	n/a	n/a
3390967	RECOG_LURE	n/a	LTP244	ltpFR	2	6	n/a	BASKET	95	0	4	n/a	n/a	n/a	n/a	n/a	n/a
3391921	RECOG_RESP	n/a	LTP244	ltpFR	2	6	n/a	BASKET	95	0	n/a	n/a	n/a	n/a	n/a	n/a	n/a
3392728	RECOG_CONF	n/a	LTP244	ltpFR	2	6	n/a	BASKET	95	n/a	4	n/a	n/a	n/a	n/a	n/a	n/a
3394225	RECOG_TARGET	n/a	LTP244	ltpFR	2	6	1	SALESMAN	1225	1	5	1	n/a	n/a	n/a	n/a	n/a
3395016	RECOG_RESP	n/a	LTP244	ltpFR	2	6	1	SALESMAN	1225	1	n/a	1	n/a	n/a	n/a	n/a	n/a
3395565	RECOG_CONF	n/a	LTP244	ltpFR	2	6	1	SALESMAN	1225	n/a	5	1	n/a	n/a	n/a	n/a	n/a
3397036	RECOG_TARGET	n/a	LTP244	ltpFR	2	6	0	CELERY	266	1	5	0	n/a	n/a	n/a	n/a	n/a
3397697	RECOG_RESP	n/a	LTP244	ltpFR	2	6	0	CELERY	266	1	n/a	0	n/a	n/a	n/a	n/a	n/a
3398277	RECOG_CONF	n/a	LTP244	ltpFR	2	6	0	CELERY	266	n/a	5	0	n/a	n/a	n/a	n/a	n/a
3399750	RECOG_LURE	n/a	LTP244	ltpFR	2	6	n/a	TEMPLE	1448	0	5	n/a	n/a	n/a	n/a	n/a	n/a
3400608	RECOG_RESP	n/a	LTP244	ltpFR	2	6	n/a	TEMPLE	1448	0	n/a	n/a	n/a	n/a	n/a	n/a	n/a
3401186	RECOG_CONF	n/a	LTP244	ltpFR	2	6	n/a	TEMPLE	1448	n/a	5	n/a	n/a	n/a	n/a	n/a	n/a
3402576	RECOG_TARGET	n/a	LTP244	ltpFR	2	6	-1	DRESS	495	1	4	-1	n/a	n/a	n/a	n/a	n/a
3403508	RECOG_RESP_VV	n/a	LTP244	ltpFR	2	6	-1	DRESS	495	0	n/a	-1	n/a	n/a	n/a	n/a	n/a
3404746	RECOG_RESP	n/a	LTP244	ltpFR	2	6	-1	DRESS	495	1	n/a	-1	n/a	n/a	n/a	n/a	n/a
3405328	RECOG_CONF	n/a	LTP244	ltpFR	2	6	-1	DRESS	495	n/a	4	-1	n/a	n/a	n/a	n/a	n/a
3406960	RECOG_TARGET	n/a	LTP244	ltpFR	2	6	-1	SMOG	1330	1	5	-1	n/a	n/a	n/a	n/a	n/a
3407736	RECOG_RESP	n/a	LTP244	ltpFR	2	6	-1	SMOG	1330	1	n/a	-1	n/a	n/a	n/a	n/a	n/a
3408213	RECOG_CONF	n/a	LTP244	ltpFR	2	6	-1	SMOG	1330	n/a	5	-1	n/a	n/a	n/a	n/a	n/a
3409519	RECOG_TARGET	n/a	LTP244	ltpFR	2	6	1	CITIZEN	312	1	5	1	n/a	n/a	n/a	n/a	n/a
3410181	RECOG_RESP	n/a	LTP244	ltpFR	2	6	1	CITIZEN	312	1	n/a	1	n/a	n/a	n/a	n/a	n/a
3410694	RECOG_CONF	n/a	LTP244	ltpFR	2	6	1	CITIZEN	312	n/a	5	1	n/a	n/a	n/a	n/a	n/a
3411946	RECOG_TARGET	n/a	LTP244	ltpFR	2	6	0	RACCOON	1153	1	5	0	n/a	n/a	n/a	n/a	n/a
3412737	RECOG_RESP	n/a	LTP244	ltpFR	2	6	0	RACCOON	1153	1	n/a	0	n/a	n/a	n/a	n/a	n/a
3413342	RECOG_CONF	n/a	LTP244	ltpFR	2	6	0	RACCOON	1153	n/a	5	0	n/a	n/a	n/a	n/a	n/a
3414890	RECOG_LURE	n/a	LTP244	ltpFR	2	6	n/a	GOAT	644	0	4	n/a	n/a	n/a	n/a	n/a	n/a
3415758	RECOG_RESP	n/a	LTP244	ltpFR	2	6	n/a	GOAT	644	0	n/a	n/a	n/a	n/a	n/a	n/a	n/a
3416391	RECOG_CONF	n/a	LTP244	ltpFR	2	6	n/a	GOAT	644	n/a	4	n/a	n/a	n/a	n/a	n/a	n/a
3417902	RECOG_TARGET	n/a	LTP244	ltpFR	2	6	1	LEOPARD	812	1	5	1	n/a	n/a	n/a	n/a	n/a
3418610	RECOG_RESP	n/a	LTP244	ltpFR	2	6	1	LEOPARD	812	1	n/a	1	n/a	n/a	n/a	n/a	n/a
3419210	RECOG_CONF	n/a	LTP244	ltpFR	2	6	1	LEOPARD	812	n/a	5	1	n/a	n/a	n/a	n/a	n/a
3420477	RECOG_LURE	n/a	LTP244	ltpFR	2	6	n/a	MANSION	864	0	5	n/a	n/a	n/a	n/a	n/a	n/a
3421587	RECOG_RESP	n/a	LTP244	ltpFR	2	6	n/a	MANSION	864	0	n/a	n/a	n/a	n/a	n/a	n/a	n/a
3422153	RECOG_CONF	n/a	LTP244	ltpFR	2	6	n/a	MANSION	864	n/a	5	n/a	n/a	n/a	n/a	n/a	n/a
3423606	RECOG_TARGET	n/a	LTP244	ltpFR	2	6	0	DRUM	502	1	5	1	n/a	n/a	n/a	n/a	n/a
3424874	RECOG_RESP	n/a	LTP244	ltpFR	2	6	0	DRUM	502	1	n/a	1	n/a	n/a	n/a	n/a	n/a
3425438	RECOG_CONF	n/a	LTP244	ltpFR	2	6	0	DRUM	502	n/a	5	1	n/a	n/a	n/a	n/a	n/a
3427270	RECOG_LURE	n/a	LTP244	ltpFR	2	6	n/a	BEDROOM	111	0	3	n/a	n/a	n/a	n/a	n/a	n/a
3429262	RECOG_RESP	n/a	LTP244	ltpFR	2	6	n/a	BEDROOM	111	0	n/a	n/a	n/a	n/a	n/a	n/a	n/a
3430036	RECOG_CONF	n/a	LTP244	ltpFR	2	6	n/a	BEDROOM	111	n/a	3	n/a	n/a	n/a	n/a	n/a	n/a
3431653	RECOG_LURE	n/a	LTP244	ltpFR	2	6	n/a	WHISTLE	1606	0	4	n/a	n/a	n/a	n/a	n/a	n/a
3432820	RECOG_RESP	n/a	LTP244	ltpFR	2	6	n/a	WHISTLE	1606	0	n/a	n/a	n/a	n/a	n/a	n/a	n/a
3433467	RECOG_CONF	n/a	LTP244	ltpFR	2	6	n/a	WHISTLE	1606	n/a	4	n/a	n/a	n/a	n/a	n/a	n/a
3434983	RECOG_TARGET	n/a	LTP244	ltpFR	2	6	0	NET	946	1	5	1	n/a	n/a	n/a	n/a	n/a
3435860	RECOG_RESP	n/a	LTP244	ltpFR	2	6	0	NET	946	1	n/a	1	n/a	n/a	n/a	n/a	n/a
3436579	RECOG_CONF	n/a	LTP244	ltpFR	2	6	0	NET	946	n/a	5	1	n/a	n/a	n/a	n/a	n/a
3437877	RECOG_LURE	n/a	LTP244	ltpFR	2	6	n/a	ROCKET	1202	0	4	n/a	n/a	n/a	n/a	n/a	n/a
3439136	RECOG_RESP	n/a	LTP244	ltpFR	2	6	n/a	ROCKET	1202	0	n/a	n/a	n/a	n/a	n/a	n/a	n/a
3439774	RECOG_CONF	n/a	LTP244	ltpFR	2	6	n/a	ROCKET	1202	n/a	4	n/a	n/a	n/a	n/a	n/a	n/a
3443167	REC_START	n/a	LTP244	ltpFR	2	7	n/a	n/a	n/a	n/a	n/a	n/a	n/a	n/a	n/a	n/a	n/a
3443214	RECOG_TARGET	n/a	LTP244	ltpFR	2	7	0	BLENDER	136	1	5	1	n/a	n/a	n/a	n/a	n/a
3444253	RECOG_RESP	n/a	LTP244	ltpFR	2	7	0	BLENDER	136	1	n/a	1	n/a	n/a	n/a	n/a	n/a
3444797	RECOG_CONF	n/a	LTP244	ltpFR	2	7	0	BLENDER	136	n/a	5	1	n/a	n/a	n/a	n/a	n/a
3446175	RECOG_TARGET	n/a	LTP244	ltpFR	2	7	-1	RECEIPT	1173	1	3	-1	n/a	n/a	n/a	n/a	n/a
3447314	RECOG_RESP	n/a	LTP244	ltpFR	2	7	-1	RECEIPT	1173	1	n/a	-1	n/a	n/a	n/a	n/a	n/a
3448011	RECOG_CONF	n/a	LTP244	ltpFR	2	7	-1	RECEIPT	1173	n/a	3	-1	n/a	n/a	n/a	n/a	n/a
3449486	RECOG_TARGET	n/a	LTP244	ltpFR	2	7	1	CHARCOAL	281	1	5	0	n/a	n/a	n/a	n/a	n/a
3450250	RECOG_RESP	n/a	LTP244	ltpFR	2	7	1	CHARCOAL	281	1	n/a	0	n/a	n/a	n/a	n/a	n/a
3450860	RECOG_CONF	n/a	LTP244	ltpFR	2	7	1	CHARCOAL	281	n/a	5	0	n/a	n/a	n/a	n/a	n/a
3452382	RECOG_LURE	n/a	LTP244	ltpFR	2	7	n/a	SUPERMARKET	1409	0	4	n/a	n/a	n/a	n/a	n/a	n/a
3453470	RECOG_RESP	n/a	LTP244	ltpFR	2	7	n/a	SUPERMARKET	1409	0	n/a	n/a	n/a	n/a	n/a	n/a	n/a
3454166	RECOG_CONF	n/a	LTP244	ltpFR	2	7	n/a	SUPERMARKET	1409	n/a	4	n/a	n/a	n/a	n/a	n/a	n/a
3455694	RECOG_LURE	n/a	LTP244	ltpFR	2	7	n/a	DECK	443	0	5	n/a	n/a	n/a	n/a	n/a	n/a
3456776	RECOG_RESP	n/a	LTP244	ltpFR	2	7	n/a	DECK	443	0	n/a	n/a	n/a	n/a	n/a	n/a	n/a
3457459	RECOG_CONF	n/a	LTP244	ltpFR	2	7	n/a	DECK	443	n/a	5	n/a	n/a	n/a	n/a	n/a	n/a
3458923	RECOG_LURE	n/a	LTP244	ltpFR	2	7	n/a	CHAMPION	279	0	2	n/a	n/a	n/a	n/a	n/a	n/a
3460144	RECOG_RESP	n/a	LTP244	ltpFR	2	7	n/a	CHAMPION	279	0	n/a	n/a	n/a	n/a	n/a	n/a	n/a
3460905	RECOG_CONF	n/a	LTP244	ltpFR	2	7	n/a	CHAMPION	279	n/a	2	n/a	n/a	n/a	n/a	n/a	n/a
3462353	RECOG_TARGET	n/a	LTP244	ltpFR	2	7	0	SANDWICH	1232	1	5	0	n/a	n/a	n/a	n/a	n/a
3463095	RECOG_RESP	n/a	LTP244	ltpFR	2	7	0	SANDWICH	1232	1	n/a	0	n/a	n/a	n/a	n/a	n/a
3463620	RECOG_CONF	n/a	LTP244	ltpFR	2	7	0	SANDWICH	1232	n/a	5	0	n/a	n/a	n/a	n/a	n/a
3465113	RECOG_LURE	n/a	LTP244	ltpFR	2	7	n/a	MARROW	872	0	4	n/a	n/a	n/a	n/a	n/a	n/a
3466273	RECOG_RESP	n/a	LTP244	ltpFR	2	7	n/a	MARROW	872	0	n/a	n/a	n/a	n/a	n/a	n/a	n/a
3466933	RECOG_CONF	n/a	LTP244	ltpFR	2	7	n/a	MARROW	872	n/a	4	n/a	n/a	n/a	n/a	n/a	n/a
3468275	RECOG_TARGET	n/a	LTP244	ltpFR	2	7	1	PERSON	1052	1	5	1	n/a	n/a	n/a	n/a	n/a
3469023	RECOG_RESP	n/a	LTP244	ltpFR	2	7	1	PERSON	1052	1	n/a	1	n/a	n/a	n/a	n/a	n/a
3469692	RECOG_CONF	n/a	LTP244	ltpFR	2	7	1	PERSON	1052	n/a	5	1	n/a	n/a	n/a	n/a	n/a
3471152	RECOG_TARGET	n/a	LTP244	ltpFR	2	7	1	PUBLISHER	1137	1	5	1	n/a	n/a	n/a	n/a	n/a
3471807	RECOG_RESP	n/a	LTP244	ltpFR	2	7	1	PUBLISHER	1137	1	n/a	1	n/a	n/a	n/a	n/a	n/a
3473233	RECOG_CONF	n/a	LTP244	ltpFR	2	7	1	PUBLISHER	1137	n/a	5	1	n/a	n/a	n/a	n/a	n/a
3474833	RECOG_TARGET	n/a	LTP244	ltpFR	2	7	1	TELEPHONE	1445	1	5	0	n/a	n/a	n/a	n/a	n/a
3475522	RECOG_RESP	n/a	LTP244	ltpFR	2	7	1	TELEPHONE	1445	1	n/a	0	n/a	n/a	n/a	n/a	n/a
3476366	RECOG_CONF	n/a	LTP244	ltpFR	2	7	1	TELEPHONE	1445	n/a	5	0	n/a	n/a	n/a	n/a	n/a
3477761	RECOG_LURE	n/a	LTP244	ltpFR	2	7	n/a	RAISIN	1163	0	5	n/a	n/a	n/a	n/a	n/a	n/a
3478609	RECOG_RESP	n/a	LTP244	ltpFR	2	7	n/a	RAISIN	1163	0	n/a	n/a	n/a	n/a	n/a	n/a	n/a
3479187	RECOG_CONF	n/a	LTP244	ltpFR	2	7	n/a	RAISIN	1163	n/a	5	n/a	n/a	n/a	n/a	n/a	n/a
3480503	RECOG_TARGET	n/a	LTP244	ltpFR	2	7	0	CAFE	216	1	3	1	n/a	n/a	n/a	n/a	n/a
3482253	RECOG_RESP	n/a	LTP244	ltpFR	2	7	0	CAFE	216	1	n/a	1	n/a	n/a	n/a	n/a	n/a
3483606	RECOG_CONF	n/a	LTP244	ltpFR	2	7	0	CAFE	216	n/a	3	1	n/a	n/a	n/a	n/a	n/a
3485155	RECOG_LURE	n/a	LTP244	ltpFR	2	7	n/a	MEDAL	885	0	2	n/a	n/a	n/a	n/a	n/a	n/a
3487776	RECOG_RESP	n/a	LTP244	ltpFR	2	7	n/a	MEDAL	885	0	n/a	n/a	n/a	n/a	n/a	n/a	n/a
3488706	RECOG_CONF	n/a	LTP244	ltpFR	2	7	n/a	MEDAL	885	n/a	2	n/a	n/a	n/a	n/a	n/a	n/a
3490124	RECOG_TARGET	n/a	LTP244	ltpFR	2	7	0	JET	756	1	5	1	n/a	n/a	n/a	n/a	n/a
3490783	RECOG_RESP	n/a	LTP244	ltpFR	2	7	0	JET	756	1	n/a	1	n/a	n/a	n/a	n/a	n/a
3491432	RECOG_CONF	n/a	LTP244	ltpFR	2	7	0	JET	756	n/a	5	1	n/a	n/a	n/a	n/a	n/a
3492767	RECOG_LURE	n/a	LTP244	ltpFR	2	7	n/a	SWEATER	1419	1	4	n/a	n/a	n/a	n/a	n/a	n/a
3493345	RECOG_RESP	n/a	LTP244	ltpFR	2	7	n/a	SWEATER	1419	1	n/a	n/a	n/a	n/a	n/a	n/a	n/a
3494062	RECOG_CONF	n/a	LTP244	ltpFR	2	7	n/a	SWEATER	1419	n/a	4	n/a	n/a	n/a	n/a	n/a	n/a
3495476	RECOG_LURE	n/a	LTP244	ltpFR	2	7	n/a	BUTTON	207	0	4	n/a	n/a	n/a	n/a	n/a	n/a
3497106	RECOG_RESP	n/a	LTP244	ltpFR	2	7	n/a	BUTTON	207	0	n/a	n/a	n/a	n/a	n/a	n/a	n/a
3497874	RECOG_CONF	n/a	LTP244	ltpFR	2	7	n/a	BUTTON	207	n/a	4	n/a	n/a	n/a	n/a	n/a	n/a
3499372	RECOG_LURE	n/a	LTP244	ltpFR	2	7	n/a	DWARF	510	0	5	n/a	n/a	n/a	n/a	n/a	n/a
3500281	RECOG_RESP	n/a	LTP244	ltpFR	2	7	n/a	DWARF	510	0	n/a	n/a	n/a	n/a	n/a	n/a	n/a
3500872	RECOG_CONF	n/a	LTP244	ltpFR	2	7	n/a	DWARF	510	n/a	5	n/a	n/a	n/a	n/a	n/a	n/a
3502320	RECOG_LURE	n/a	LTP244	ltpFR	2	7	n/a	CAVITY	264	0	5	n/a	n/a	n/a	n/a	n/a	n/a
3503176	RECOG_RESP	n/a	LTP244	ltpFR	2	7	n/a	CAVITY	264	0	n/a	n/a	n/a	n/a	n/a	n/a	n/a
3503675	RECOG_CONF	n/a	LTP244	ltpFR	2	7	n/a	CAVITY	264	n/a	5	n/a	n/a	n/a	n/a	n/a	n/a
3505130	RECOG_TARGET	n/a	LTP244	ltpFR	2	7	0	PLASTER	1085	1	5	0	n/a	n/a	n/a	n/a	n/a
3506009	RECOG_RESP	n/a	LTP244	ltpFR	2	7	0	PLASTER	1085	1	n/a	0	n/a	n/a	n/a	n/a	n/a
3506563	RECOG_CONF	n/a	LTP244	ltpFR	2	7	0	PLASTER	1085	n/a	5	0	n/a	n/a	n/a	n/a	n/a
3517931	REC_START	n/a	LTP244	ltpFR	2	8	n/a	n/a	n/a	n/a	n/a	n/a	n/a	n/a	n/a	n/a	n/a
3517979	RECOG_LURE	n/a	LTP244	ltpFR	2	8	n/a	CAMERA	224	1	2	n/a	n/a	n/a	n/a	n/a	n/a
3518765	RECOG_RESP	n/a	LTP244	ltpFR	2	8	n/a	CAMERA	224	1	n/a	n/a	n/a	n/a	n/a	n/a	n/a
3519689	RECOG_CONF	n/a	LTP244	ltpFR	2	8	n/a	CAMERA	224	n/a	2	n/a	n/a	n/a	n/a	n/a	n/a
3521375	RECOG_LURE	n/a	LTP244	ltpFR	2	8	n/a	SUNSET	1408	0	4	n/a	n/a	n/a	n/a	n/a	n/a
3522090	RECOG_RESP_VV	n/a	LTP244	ltpFR	2	8	n/a	SUNSET	1408	1	n/a	n/a	n/a	n/a	n/a	n/a	n/a
3523296	RECOG_RESP	n/a	LTP244	ltpFR	2	8	n/a	SUNSET	1408	0	n/a	n/a	n/a	n/a	n/a	n/a	n/a
3524184	RECOG_CONF	n/a	LTP244	ltpFR	2	8	n/a	SUNSET	1408	n/a	4	n/a	n/a	n/a	n/a	n/a	n/a
3525838	RECOG_LURE	n/a	LTP244	ltpFR	2	8	n/a	LIVER	833	0	2	n/a	n/a	n/a	n/a	n/a	n/a
3528329	RECOG_RESP	n/a	LTP244	ltpFR	2	8	n/a	LIVER	833	0	n/a	n/a	n/a	n/a	n/a	n/a	n/a
3529193	RECOG_CONF	n/a	LTP244	ltpFR	2	8	n/a	LIVER	833	n/a	2	n/a	n/a	n/a	n/a	n/a	n/a
3530660	RECOG_LURE	n/a	LTP244	ltpFR	2	8	n/a	FIGHTER	564	0	4	n/a	n/a	n/a	n/a	n/a	n/a
3531783	RECOG_RESP	n/a	LTP244	ltpFR	2	8	n/a	FIGHTER	564	0	n/a	n/a	n/a	n/a	n/a	n/a	n/a
3532473	RECOG_CONF	n/a	LTP244	ltpFR	2	8	n/a	FIGHTER	564	n/a	4	n/a	n/a	n/a	n/a	n/a	n/a
3533722	RECOG_TARGET	n/a	LTP244	ltpFR	2	8	1	CASHEW	253	1	5	0	n/a	n/a	n/a	n/a	n/a
3534375	RECOG_RESP	n/a	LTP244	ltpFR	2	8	1	CASHEW	253	1	n/a	0	n/a	n/a	n/a	n/a	n/a
3534853	RECOG_CONF	n/a	LTP244	ltpFR	2	8	1	CASHEW	253	n/a	5	0	n/a	n/a	n/a	n/a	n/a
3536348	RECOG_LURE	n/a	LTP244	ltpFR	2	8	n/a	CELLAR	267	0	5	n/a	n/a	n/a	n/a	n/a	n/a
3537655	RECOG_RESP	n/a	LTP244	ltpFR	2	8	n/a	CELLAR	267	0	n/a	n/a	n/a	n/a	n/a	n/a	n/a
3538230	RECOG_CONF	n/a	LTP244	ltpFR	2	8	n/a	CELLAR	267	n/a	5	n/a	n/a	n/a	n/a	n/a	n/a
3539891	RECOG_LURE	n/a	LTP244	ltpFR	2	8	n/a	CIGAR	308	0	3	n/a	n/a	n/a	n/a	n/a	n/a
3541013	RECOG_RESP	n/a	LTP244	ltpFR	2	8	n/a	CIGAR	308	0	n/a	n/a	n/a	n/a	n/a	n/a	n/a
3541834	RECOG_CONF	n/a	LTP244	ltpFR	2	8	n/a	CIGAR	308	n/a	3	n/a	n/a	n/a	n/a	n/a	n/a
3543454	RECOG_TARGET	n/a	LTP244	ltpFR	2	8	-1	PUDDLE	1140	1	5	-1	n/a	n/a	n/a	n/a	n/a
3544093	RECOG_RESP	n/a	LTP244	ltpFR	2	8	-1	PUDDLE	1140	1	n/a	-1	n/a	n/a	n/a	n/a	n/a
3544640	RECOG_CONF	n/a	LTP244	ltpFR	2	8	-1	PUDDLE	1140	n/a	5	-1	n/a	n/a	n/a	n/a	n/a
3545968	RECOG_LURE	n/a	LTP244	ltpFR	2	8	n/a	BOULDER	155	0	4	n/a	n/a	n/a	n/a	n/a	n/a
3547502	RECOG_RESP	n/a	LTP244	ltpFR	2	8	n/a	BOULDER	155	0	n/a	n/a	n/a	n/a	n/a	n/a	n/a
3548217	RECOG_CONF	n/a	LTP244	ltpFR	2	8	n/a	BOULDER	155	n/a	4	n/a	n/a	n/a	n/a	n/a	n/a
3549643	RECOG_TARGET	n/a	LTP244	ltpFR	2	8	1	HUMAN	726	1	5	1	n/a	n/a	n/a	n/a	n/a
3550482	RECOG_RESP	n/a	LTP244	ltpFR	2	8	1	HUMAN	726	1	n/a	1	n/a	n/a	n/a	n/a	n/a
3551027	RECOG_CONF	n/a	LTP244	ltpFR	2	8	1	HUMAN	726	n/a	5	1	n/a	n/a	n/a	n/a	n/a
3552642	RECOG_TARGET	n/a	LTP244	ltpFR	2	8	0	HAM	678	1	5	0	n/a	n/a	n/a	n/a	n/a
3553510	RECOG_RESP	n/a	LTP244	ltpFR	2	8	0	HAM	678	1	n/a	0	n/a	n/a	n/a	n/a	n/a
3554343	RECOG_CONF	n/a	LTP244	ltpFR	2	8	0	HAM	678	n/a	5	0	n/a	n/a	n/a	n/a	n/a
3556006	RECOG_LURE	n/a	LTP244	ltpFR	2	8	n/a	TRANSPLANT	1496	0	5	n/a	n/a	n/a	n/a	n/a	n/a
3556807	RECOG_RESP	n/a	LTP244	ltpFR	2	8	n/a	TRANSPLANT	1496	0	n/a	n/a	n/a	n/a	n/a	n/a	n/a
3557312	RECOG_CONF	n/a	LTP244	ltpFR	2	8	n/a	TRANSPLANT	1496	n/a	5	n/a	n/a	n/a	n/a	n/a	n/a
3558746	RECOG_LURE	n/a	LTP244	ltpFR	2	8	n/a	DOCUMENT	479	1	3	n/a	n/a	n/a	n/a	n/a	n/a
3560361	RECOG_RESP	n/a	LTP244	ltpFR	2	8	n/a	DOCUMENT	479	1	n/a	n/a	n/a	n/a	n/a	n/a	n/a
3561117	RECOG_CONF	n/a	LTP244	ltpFR	2	8	n/a	DOCUMENT	479	n/a	3	n/a	n/a	n/a	n/a	n/a	n/a
3562596	RECOG_LURE	n/a	LTP244	ltpFR	2	8	n/a	ELBOW	520	0	4	n/a	n/a	n/a	n/a	n/a	n/a
3563638	RECOG_RESP	n/a	LTP244	ltpFR	2	8	n/a	ELBOW	520	0	n/a	n/a	n/a	n/a	n/a	n/a	n/a
3564380	RECOG_CONF	n/a	LTP244	ltpFR	2	8	n/a	ELBOW	520	n/a	4	n/a	n/a	n/a	n/a	n/a	n/a
3565776	RECOG_LURE	n/a	LTP244	ltpFR	2	8	n/a	OATMEAL	967	0	5	n/a	n/a	n/a	n/a	n/a	n/a
3566635	RECOG_RESP	n/a	LTP244	ltpFR	2	8	n/a	OATMEAL	967	0	n/a	n/a	n/a	n/a	n/a	n/a	n/a
3567202	RECOG_CONF	n/a	LTP244	ltpFR	2	8	n/a	OATMEAL	967	n/a	5	n/a	n/a	n/a	n/a	n/a	n/a
3568652	RECOG_LURE	n/a	LTP244	ltpFR	2	8	n/a	BACON	67	0	5	n/a	n/a	n/a	n/a	n/a	n/a
3569964	RECOG_RESP	n/a	LTP244	ltpFR	2	8	n/a	BACON	67	0	n/a	n/a	n/a	n/a	n/a	n/a	n/a
3570560	RECOG_CONF	n/a	LTP244	ltpFR	2	8	n/a	BACON	67	n/a	5	n/a	n/a	n/a	n/a	n/a	n/a
3572066	RECOG_LURE	n/a	LTP244	ltpFR	2	8	n/a	CANYON	235	0	3	n/a	n/a	n/a	n/a	n/a	n/a
3573220	RECOG_RESP	n/a	LTP244	ltpFR	2	8	n/a	CANYON	235	0	n/a	n/a	n/a	n/a	n/a	n/a	n/a
3574367	RECOG_CONF	n/a	LTP244	ltpFR	2	8	n/a	CANYON	235	n/a	3	n/a	n/a	n/a	n/a	n/a	n/a
3575998	RECOG_TARGET	n/a	LTP244	ltpFR	2	8	0	ISLAND	745	1	5	1	n/a	n/a	n/a	n/a	n/a
3576820	RECOG_RESP	n/a	LTP244	ltpFR	2	8	0	ISLAND	745	1	n/a	1	n/a	n/a	n/a	n/a	n/a
3577464	RECOG_CONF	n/a	LTP244	ltpFR	2	8	0	ISLAND	745	n/a	5	1	n/a	n/a	n/a	n/a	n/a
3579026	RECOG_TARGET	n/a	LTP244	ltpFR	2	8	-1	CANAL	226	1	5	-1	n/a	n/a	n/a	n/a	n/a
3579719	RECOG_RESP	n/a	LTP244	ltpFR	2	8	-1	CANAL	226	1	n/a	-1	n/a	n/a	n/a	n/a	n/a
3580444	RECOG_CONF	n/a	LTP244	ltpFR	2	8	-1	CANAL	226	n/a	5	-1	n/a	n/a	n/a	n/a	n/a
3582121	RECOG_TARGET	n/a	LTP244	ltpFR	2	8	1	ZEBRA	1635	1	5	1	n/a	n/a	n/a	n/a	n/a
3582910	RECOG_RESP	n/a	LTP244	ltpFR	2	8	1	ZEBRA	1635	1	n/a	1	n/a	n/a	n/a	n/a	n/a
3583832	RECOG_CONF	n/a	LTP244	ltpFR	2	8	1	ZEBRA	1635	n/a	5	1	n/a	n/a	n/a	n/a	n/a
3601684	REC_START	n/a	LTP244	ltpFR	2	9	n/a	n/a	n/a	n/a	n/a	n/a	n/a	n/a	n/a	n/a	n/a
3601728	RECOG_LURE	n/a	LTP244	ltpFR	2	9	n/a	YOKE	1632	0	2	n/a	n/a	n/a	n/a	n/a	n/a
3603422	RECOG_RESP	n/a	LTP244	ltpFR	2	9	n/a	YOKE	1632	0	n/a	n/a	n/a	n/a	n/a	n/a	n/a
3604217	RECOG_CONF	n/a	LTP244	ltpFR	2	9	n/a	YOKE	1632	n/a	2	n/a	n/a	n/a	n/a	n/a	n/a
3605894	RECOG_TARGET	n/a	LTP244	ltpFR	2	9	-1	CURTAIN	427	1	5	-1	n/a	n/a	n/a	n/a	n/a
3606551	RECOG_RESP	n/a	LTP244	ltpFR	2	9	-1	CURTAIN	427	1	n/a	-1	n/a	n/a	n/a	n/a	n/a
3607094	RECOG_CONF	n/a	LTP244	ltpFR	2	9	-1	CURTAIN	427	n/a	5	-1	n/a	n/a	n/a	n/a	n/a
3608519	RECOG_LURE	n/a	LTP244	ltpFR	2	9	n/a	AIRCRAFT	11	0	3	n/a	n/a	n/a	n/a	n/a	n/a
3609610	RECOG_RESP	n/a	LTP244	ltpFR	2	9	n/a	AIRCRAFT	11	0	n/a	n/a	n/a	n/a	n/a	n/a	n/a
3610258	RECOG_CONF	n/a	LTP244	ltpFR	2	9	n/a	AIRCRAFT	11	n/a	3	n/a	n/a	n/a	n/a	n/a	n/a
3611816	RECOG_LURE	n/a	LTP244	ltpFR	2	9	n/a	MUSEUM	933	1	2	n/a	n/a	n/a	n/a	n/a	n/a
3613349	RECOG_RESP	n/a	LTP244	ltpFR	2	9	n/a	MUSEUM	933	1	n/a	n/a	n/a	n/a	n/a	n/a	n/a
3614094	RECOG_CONF	n/a	LTP244	ltpFR	2	9	n/a	MUSEUM	933	n/a	2	n/a	n/a	n/a	n/a	n/a	n/a
3615596	RECOG_LURE	n/a	LTP244	ltpFR	2	9	n/a	PEN	1041	0	3	n/a	n/a	n/a	n/a	n/a	n/a
3617155	RECOG_RESP	n/a	LTP244	ltpFR	2	9	n/a	PEN	1041	0	n/a	n/a	n/a	n/a	n/a	n/a	n/a
3618139	RECOG_CONF	n/a	LTP244	ltpFR	2	9	n/a	PEN	1041	n/a	3	n/a	n/a	n/a	n/a	n/a	n/a
3620464	RECOG_TARGET	n/a	LTP244	ltpFR	2	9	1	BOWL	158	1	3	0	n/a	n/a	n/a	n/a	n/a
