onset	duration	trial_type	sample	stim_file	subject	experiment	session	trial	task	item_name	item_num	recog_conf	resp	color_b	color_g	color_r	case	font
237.048	n/a	SESS_START	118524	n/a	LTP155	ltpFR	6	n/a	n/a	n/a	n/a	5	n/a	n/a	n/a	n/a	n/a	n/a
513.436	n/a	WORD	256718	wordpools/wasnorm_wordpool.txt	LTP155	ltpFR	6	1	1	BRUISE	180	5	0	0	0.5869140625	0.422607421875	upper	../fonts/amplitud.ttf
517.588	n/a	WORD	258794	wordpools/wasnorm_wordpool.txt	LTP155	ltpFR	6	1	1	ICEBERG	731	n/a	0	0	0.5869140625	0.422607421875	upper	../fonts/amplitud.ttf
521.6	n/a	WORD	260800	wordpools/wasnorm_wordpool.txt	LTP155	ltpFR	6	1	1	SUPERVISOR	1410	n/a	0	0	0.5869140625	0.422607421875	upper	../fonts/amplitud.ttf
525.662	n/a	WORD	262831	wordpools/wasnorm_wordpool.txt	LTP155	ltpFR	6	1	1	JUVENILE	767	n/a	1	0	0.5869140625	0.422607421875	upper	../fonts/amplitud.ttf
529.684	n/a	WORD	264842	wordpools/wasnorm_wordpool.txt	LTP155	ltpFR	6	1	1	ROD	1203	n/a	0	0	0.5869140625	0.422607421875	upper	../fonts/amplitud.ttf
533.828	n/a	WORD	266914	wordpools/wasnorm_wordpool.txt	LTP155	ltpFR	6	1	0	FISH	571	n/a	0	1	0.412841796875	0.57763671875	lower	../fonts/zerothre.ttf
537.832	n/a	WORD	268916	wordpools/wasnorm_wordpool.txt	LTP155	ltpFR	6	1	0	DICE	461	n/a	0	1	0.412841796875	0.57763671875	lower	../fonts/zerothre.ttf
541.802	n/a	WORD	270901	wordpools/wasnorm_wordpool.txt	LTP155	ltpFR	6	1	1	VILLAIN	1567	n/a	1	0	0.5869140625	0.422607421875	upper	../fonts/amplitud.ttf
545.956	n/a	WORD	272978	wordpools/wasnorm_wordpool.txt	LTP155	ltpFR	6	1	1	WHIP	1604	n/a	0	0	0.5869140625	0.422607421875	upper	../fonts/amplitud.ttf
549.96	n/a	WORD	274980	wordpools/wasnorm_wordpool.txt	LTP155	ltpFR	6	1	1	SPOUSE	1358	n/a	1	0	0.5869140625	0.422607421875	upper	../fonts/amplitud.ttf
553.788	n/a	WORD	276894	wordpools/wasnorm_wordpool.txt	LTP155	ltpFR	6	1	0	WIFE	1609	n/a	1	1	0.412841796875	0.57763671875	lower	../fonts/zerothre.ttf
557.834	n/a	WORD	278917	wordpools/wasnorm_wordpool.txt	LTP155	ltpFR	6	1	0	FROST	609	n/a	0	1	0.412841796875	0.57763671875	lower	../fonts/zerothre.ttf
561.68	n/a	WORD	280840	wordpools/wasnorm_wordpool.txt	LTP155	ltpFR	6	1	0	SHORE	1291	n/a	1	1	0.412841796875	0.57763671875	lower	../fonts/zerothre.ttf
565.634	n/a	WORD	282817	wordpools/wasnorm_wordpool.txt	LTP155	ltpFR	6	1	0	MOAT	903	n/a	1	1	0.412841796875	0.57763671875	lower	../fonts/zerothre.ttf
569.696	n/a	WORD	284848	wordpools/wasnorm_wordpool.txt	LTP155	ltpFR	6	1	0	PERMIT	1051	n/a	0	1	0.412841796875	0.57763671875	lower	../fonts/zerothre.ttf
573.59	n/a	WORD	286795	wordpools/wasnorm_wordpool.txt	LTP155	ltpFR	6	1	0	RAG	1160	n/a	0	1	0.412841796875	0.57763671875	lower	../fonts/zerothre.ttf
579.47	n/a	REC_START	289735	n/a	LTP155	ltpFR	6	1	n/a	n/a	n/a	n/a	n/a	n/a	n/a	n/a	n/a	n/a
580.462	n/a	REC_WORD	290231	wordpools/wasnorm_wordpool.txt	LTP155	ltpFR	6	1	0	PERMIT	1051	n/a	0	n/a	n/a	n/a	n/a	n/a
581.354	n/a	REC_WORD	290677	wordpools/wasnorm_wordpool.txt	LTP155	ltpFR	6	1	0	RAG	1160	n/a	0	n/a	n/a	n/a	n/a	n/a
582.128	n/a	REC_WORD	291064	wordpools/wasnorm_wordpool.txt	LTP155	ltpFR	6	1	0	SHORE	1291	n/a	1	n/a	n/a	n/a	n/a	n/a
583.644	n/a	REC_WORD	291822	wordpools/wasnorm_wordpool.txt	LTP155	ltpFR	6	1	1	BRUISE	180	n/a	0	n/a	n/a	n/a	n/a	n/a
584.632	n/a	REC_WORD	292316	wordpools/wasnorm_wordpool.txt	LTP155	ltpFR	6	1	1	ICEBERG	731	n/a	0	n/a	n/a	n/a	n/a	n/a
586.198	n/a	REC_WORD	293099	wordpools/wasnorm_wordpool.txt	LTP155	ltpFR	6	1	1	VILLAIN	1567	n/a	1	n/a	n/a	n/a	n/a	n/a
588.27	n/a	REC_WORD	294135	wordpools/wasnorm_wordpool.txt	LTP155	ltpFR	6	1	1	JUVENILE	767	n/a	1	n/a	n/a	n/a	n/a	n/a
589.238	n/a	REC_WORD	294619	wordpools/wasnorm_wordpool.txt	LTP155	ltpFR	6	1	1	SUPERVISOR	1410	n/a	0	n/a	n/a	n/a	n/a	n/a
590.872	n/a	REC_WORD	295436	wordpools/wasnorm_wordpool.txt	LTP155	ltpFR	6	1	0	FISH	571	n/a	0	n/a	n/a	n/a	n/a	n/a
592.23	n/a	REC_WORD	296115	wordpools/wasnorm_wordpool.txt	LTP155	ltpFR	6	1	0	DICE	461	n/a	0	n/a	n/a	n/a	n/a	n/a
605.78	n/a	REC_WORD	302890	wordpools/wasnorm_wordpool.txt	LTP155	ltpFR	6	1	0	WIFE	1609	n/a	1	n/a	n/a	n/a	n/a	n/a
606.568	n/a	REC_WORD	303284	wordpools/wasnorm_wordpool.txt	LTP155	ltpFR	6	1	1	SPOUSE	1358	n/a	1	n/a	n/a	n/a	n/a	n/a
608.728	n/a	REC_WORD	304364	wordpools/wasnorm_wordpool.txt	LTP155	ltpFR	6	1	0	SHORE	1291	n/a	1	n/a	n/a	n/a	n/a	n/a
609.5	n/a	REC_WORD	304750	wordpools/wasnorm_wordpool.txt	LTP155	ltpFR	6	1	0	MOAT	903	n/a	1	n/a	n/a	n/a	n/a	n/a
734.808	n/a	WORD	367404	wordpools/wasnorm_wordpool.txt	LTP155	ltpFR	6	2	0	VILLAGE	1566	n/a	1	1	0.412841796875	0.57763671875	lower	../fonts/zerothre.ttf
738.894	n/a	WORD	369447	wordpools/wasnorm_wordpool.txt	LTP155	ltpFR	6	2	0	CHIPMUNK	304	n/a	0	1	0.412841796875	0.57763671875	lower	../fonts/zerothre.ttf
743.09	n/a	WORD	371545	wordpools/wasnorm_wordpool.txt	LTP155	ltpFR	6	2	0	WOUND	1624	n/a	0	1	0.412841796875	0.57763671875	lower	../fonts/zerothre.ttf
747.018	n/a	WORD	373509	wordpools/wasnorm_wordpool.txt	LTP155	ltpFR	6	2	1	MANAGER	863	n/a	1	0	0.5869140625	0.422607421875	upper	../fonts/amplitud.ttf
750.938	n/a	WORD	375469	wordpools/wasnorm_wordpool.txt	LTP155	ltpFR	6	2	1	LAKE	796	n/a	1	0	0.5869140625	0.422607421875	upper	../fonts/amplitud.ttf
754.818	n/a	WORD	377409	wordpools/wasnorm_wordpool.txt	LTP155	ltpFR	6	2	0	BAY	102	n/a	1	1	0.412841796875	0.57763671875	lower	../fonts/zerothre.ttf
758.688	n/a	WORD	379344	wordpools/wasnorm_wordpool.txt	LTP155	ltpFR	6	2	0	EAGLE	512	n/a	1	1	0.412841796875	0.57763671875	lower	../fonts/zerothre.ttf
762.892	n/a	WORD	381446	wordpools/wasnorm_wordpool.txt	LTP155	ltpFR	6	2	0	SALT	1229	n/a	0	1	0.412841796875	0.57763671875	lower	../fonts/zerothre.ttf
766.804	n/a	WORD	383402	wordpools/wasnorm_wordpool.txt	LTP155	ltpFR	6	2	1	BARLEY	88	n/a	1	0	0.5869140625	0.422607421875	upper	../fonts/amplitud.ttf
770.99	n/a	WORD	385495	wordpools/wasnorm_wordpool.txt	LTP155	ltpFR	6	2	1	CHEST	295	n/a	0	0	0.5869140625	0.422607421875	upper	../fonts/amplitud.ttf
774.878	n/a	WORD	387439	wordpools/wasnorm_wordpool.txt	LTP155	ltpFR	6	2	1	HAMPER	682	n/a	0	0	0.5869140625	0.422607421875	upper	../fonts/amplitud.ttf
778.856	n/a	WORD	389428	wordpools/wasnorm_wordpool.txt	LTP155	ltpFR	6	2	1	BLOUSE	139	n/a	0	0	0.5869140625	0.422607421875	upper	../fonts/amplitud.ttf
782.884	n/a	WORD	391442	wordpools/wasnorm_wordpool.txt	LTP155	ltpFR	6	2	1	BUILDING	191	n/a	0	0	0.5869140625	0.422607421875	upper	../fonts/amplitud.ttf
787.006	n/a	WORD	393503	wordpools/wasnorm_wordpool.txt	LTP155	ltpFR	6	2	1	SQUIRREL	1362	n/a	1	0	0.5869140625	0.422607421875	upper	../fonts/amplitud.ttf
790.844	n/a	WORD	395422	wordpools/wasnorm_wordpool.txt	LTP155	ltpFR	6	2	0	SKYSCRAPER	1322	n/a	1	1	0.412841796875	0.57763671875	lower	../fonts/zerothre.ttf
794.656	n/a	WORD	397328	wordpools/wasnorm_wordpool.txt	LTP155	ltpFR	6	2	0	CLERK	321	n/a	1	1	0.412841796875	0.57763671875	lower	../fonts/zerothre.ttf
800.55	n/a	REC_START	400275	n/a	LTP155	ltpFR	6	2	n/a	n/a	n/a	n/a	n/a	n/a	n/a	n/a	n/a	n/a
801.004	n/a	REC_WORD	400502	wordpools/wasnorm_wordpool.txt	LTP155	ltpFR	6	2	0	SKYSCRAPER	1322	n/a	1	n/a	n/a	n/a	n/a	n/a
802.406	n/a	REC_WORD	401203	wordpools/wasnorm_wordpool.txt	LTP155	ltpFR	6	2	0	CLERK	321	n/a	1	n/a	n/a	n/a	n/a	n/a
803.644	n/a	REC_WORD	401822	wordpools/wasnorm_wordpool.txt	LTP155	ltpFR	6	2	1	MANAGER	863	n/a	1	n/a	n/a	n/a	n/a	n/a
809.964	n/a	REC_WORD	404982	wordpools/wasnorm_wordpool.txt	LTP155	ltpFR	6	2	0	CHIPMUNK	304	n/a	0	n/a	n/a	n/a	n/a	n/a
816.214	n/a	REC_WORD	408107	wordpools/wasnorm_wordpool.txt	LTP155	ltpFR	6	2	1	SQUIRREL	1362	n/a	1	n/a	n/a	n/a	n/a	n/a
818.57	n/a	REC_WORD	409285	wordpools/wasnorm_wordpool.txt	LTP155	ltpFR	6	2	1	LAKE	796	n/a	1	n/a	n/a	n/a	n/a	n/a
819.872	n/a	REC_WORD	409936	wordpools/wasnorm_wordpool.txt	LTP155	ltpFR	6	2	0	BAY	102	n/a	1	n/a	n/a	n/a	n/a	n/a
832.926	n/a	REC_WORD	416463	wordpools/wasnorm_wordpool.txt	LTP155	ltpFR	6	2	1	CHEST	295	n/a	0	n/a	n/a	n/a	n/a	n/a
948.538	n/a	WORD	474269	wordpools/wasnorm_wordpool.txt	LTP155	ltpFR	6	3	-1	OLIVE	975	n/a	-1	1	1.0	1.0	upper	../fonts/Verdana.ttf
952.408	n/a	WORD	476204	wordpools/wasnorm_wordpool.txt	LTP155	ltpFR	6	3	-1	AUTOMOBILE	62	n/a	-1	1	1.0	1.0	upper	../fonts/Verdana.ttf
956.546	n/a	WORD	478273	wordpools/wasnorm_wordpool.txt	LTP155	ltpFR	6	3	-1	CUCUMBER	421	n/a	-1	1	1.0	1.0	upper	../fonts/Verdana.ttf
960.624	n/a	WORD	480312	wordpools/wasnorm_wordpool.txt	LTP155	ltpFR	6	3	-1	BEAST	108	n/a	-1	1	1.0	1.0	upper	../fonts/Verdana.ttf
964.554	n/a	WORD	482277	wordpools/wasnorm_wordpool.txt	LTP155	ltpFR	6	3	-1	BRUSH	182	n/a	-1	1	1.0	1.0	upper	../fonts/Verdana.ttf
968.63	n/a	WORD	484315	wordpools/wasnorm_wordpool.txt	LTP155	ltpFR	6	3	-1	HEADBAND	696	n/a	-1	1	1.0	1.0	upper	../fonts/Verdana.ttf
972.61	n/a	WORD	486305	wordpools/wasnorm_wordpool.txt	LTP155	ltpFR	6	3	-1	THIEF	1456	n/a	-1	1	1.0	1.0	upper	../fonts/Verdana.ttf
976.49	n/a	WORD	488245	wordpools/wasnorm_wordpool.txt	LTP155	ltpFR	6	3	-1	SLIME	1327	n/a	-1	1	1.0	1.0	upper	../fonts/Verdana.ttf
980.46	n/a	WORD	490230	wordpools/wasnorm_wordpool.txt	LTP155	ltpFR	6	3	-1	BASKET	95	n/a	-1	1	1.0	1.0	upper	../fonts/Verdana.ttf
984.314	n/a	WORD	492157	wordpools/wasnorm_wordpool.txt	LTP155	ltpFR	6	3	-1	ENVELOPE	537	n/a	-1	1	1.0	1.0	upper	../fonts/Verdana.ttf
988.492	n/a	WORD	494246	wordpools/wasnorm_wordpool.txt	LTP155	ltpFR	6	3	-1	MAILBOX	857	n/a	-1	1	1.0	1.0	upper	../fonts/Verdana.ttf
992.628	n/a	WORD	496314	wordpools/wasnorm_wordpool.txt	LTP155	ltpFR	6	3	-1	COB	334	n/a	-1	1	1.0	1.0	upper	../fonts/Verdana.ttf
996.748	n/a	WORD	498374	wordpools/wasnorm_wordpool.txt	LTP155	ltpFR	6	3	-1	BEAVER	109	n/a	-1	1	1.0	1.0	upper	../fonts/Verdana.ttf
1000.678	n/a	WORD	500339	wordpools/wasnorm_wordpool.txt	LTP155	ltpFR	6	3	-1	ROACH	1195	n/a	-1	1	1.0	1.0	upper	../fonts/Verdana.ttf
1004.848	n/a	WORD	502424	wordpools/wasnorm_wordpool.txt	LTP155	ltpFR	6	3	-1	CEREAL	272	n/a	-1	1	1.0	1.0	upper	../fonts/Verdana.ttf
1008.768	n/a	WORD	504384	wordpools/wasnorm_wordpool.txt	LTP155	ltpFR	6	3	-1	FUNGUS	614	n/a	-1	1	1.0	1.0	upper	../fonts/Verdana.ttf
1014.862	n/a	REC_START	507431	n/a	LTP155	ltpFR	6	3	n/a	n/a	n/a	n/a	n/a	n/a	n/a	n/a	n/a	n/a
1015.914	n/a	REC_WORD	507957	wordpools/wasnorm_wordpool.txt	LTP155	ltpFR	6	3	-1	FUNGUS	614	n/a	-1	n/a	n/a	n/a	n/a	n/a
1016.868	n/a	REC_WORD	508434	wordpools/wasnorm_wordpool.txt	LTP155	ltpFR	6	3	-1	COB	334	n/a	-1	n/a	n/a	n/a	n/a	n/a
1018.09	n/a	REC_WORD	509045	wordpools/wasnorm_wordpool.txt	LTP155	ltpFR	6	3	-1	BEAVER	109	n/a	-1	n/a	n/a	n/a	n/a	n/a
1024.19	n/a	REC_WORD	512095	wordpools/wasnorm_wordpool.txt	LTP155	ltpFR	6	3	-1	CEREAL	272	n/a	-1	n/a	n/a	n/a	n/a	n/a
1032.228	n/a	REC_WORD	516114	wordpools/wasnorm_wordpool.txt	LTP155	ltpFR	6	3	-1	OLIVE	975	n/a	-1	n/a	n/a	n/a	n/a	n/a
1036.502	n/a	REC_WORD	518251	wordpools/wasnorm_wordpool.txt	LTP155	ltpFR	6	3	-1	AUTOMOBILE	62	n/a	-1	n/a	n/a	n/a	n/a	n/a
1038.14	n/a	REC_WORD	519070	wordpools/wasnorm_wordpool.txt	LTP155	ltpFR	6	3	-1	CUCUMBER	421	n/a	-1	n/a	n/a	n/a	n/a	n/a
1040.36	n/a	REC_WORD	520180	wordpools/wasnorm_wordpool.txt	LTP155	ltpFR	6	3	-1	SLIME	1327	n/a	-1	n/a	n/a	n/a	n/a	n/a
1041.82	n/a	REC_WORD	520910	wordpools/wasnorm_wordpool.txt	LTP155	ltpFR	6	3	-1	THIEF	1456	n/a	-1	n/a	n/a	n/a	n/a	n/a
1043.342	n/a	REC_WORD	521671	wordpools/wasnorm_wordpool.txt	LTP155	ltpFR	6	3	-1	BASKET	95	n/a	-1	n/a	n/a	n/a	n/a	n/a
1045.298	n/a	REC_WORD	522649	wordpools/wasnorm_wordpool.txt	LTP155	ltpFR	6	3	-1	ENVELOPE	537	n/a	-1	n/a	n/a	n/a	n/a	n/a
1047.228	n/a	REC_WORD	523614	wordpools/wasnorm_wordpool.txt	LTP155	ltpFR	6	3	n/a	MAIL	-1	n/a	n/a	n/a	n/a	n/a	n/a	n/a
1290.214	n/a	WORD	645107	wordpools/wasnorm_wordpool.txt	LTP155	ltpFR	6	4	-1	NITROGEN	954	n/a	-1	1	1.0	1.0	upper	../fonts/Verdana.ttf
1294.118	n/a	WORD	647059	wordpools/wasnorm_wordpool.txt	LTP155	ltpFR	6	4	-1	PUMP	1141	n/a	-1	1	1.0	1.0	upper	../fonts/Verdana.ttf
1298.322	n/a	WORD	649161	wordpools/wasnorm_wordpool.txt	LTP155	ltpFR	6	4	-1	TUNA	1518	n/a	-1	1	1.0	1.0	upper	../fonts/Verdana.ttf
1302.3	n/a	WORD	651150	wordpools/wasnorm_wordpool.txt	LTP155	ltpFR	6	4	-1	WHALE	1601	n/a	-1	1	1.0	1.0	upper	../fonts/Verdana.ttf
1306.18	n/a	WORD	653090	wordpools/wasnorm_wordpool.txt	LTP155	ltpFR	6	4	-1	PALM	1007	n/a	-1	1	1.0	1.0	upper	../fonts/Verdana.ttf
1310.142	n/a	WORD	655071	wordpools/wasnorm_wordpool.txt	LTP155	ltpFR	6	4	-1	CABBAGE	210	n/a	-1	1	1.0	1.0	upper	../fonts/Verdana.ttf
1314.336	n/a	WORD	657168	wordpools/wasnorm_wordpool.txt	LTP155	ltpFR	6	4	-1	SUBWAY	1400	n/a	-1	1	1.0	1.0	upper	../fonts/Verdana.ttf
1318.374	n/a	WORD	659187	wordpools/wasnorm_wordpool.txt	LTP155	ltpFR	6	4	-1	RAFT	1159	n/a	-1	1	1.0	1.0	upper	../fonts/Verdana.ttf
1322.252	n/a	WORD	661126	wordpools/wasnorm_wordpool.txt	LTP155	ltpFR	6	4	-1	SKULL	1320	n/a	-1	1	1.0	1.0	upper	../fonts/Verdana.ttf
1326.398	n/a	WORD	663199	wordpools/wasnorm_wordpool.txt	LTP155	ltpFR	6	4	-1	PLANET	1082	n/a	-1	1	1.0	1.0	upper	../fonts/Verdana.ttf
1330.552	n/a	WORD	665276	wordpools/wasnorm_wordpool.txt	LTP155	ltpFR	6	4	-1	PHOTO	1055	n/a	-1	1	1.0	1.0	upper	../fonts/Verdana.ttf
1334.704	n/a	WORD	667352	wordpools/wasnorm_wordpool.txt	LTP155	ltpFR	6	4	-1	TUBE	1516	n/a	-1	1	1.0	1.0	upper	../fonts/Verdana.ttf
1338.542	n/a	WORD	669271	wordpools/wasnorm_wordpool.txt	LTP155	ltpFR	6	4	-1	JURY	766	n/a	-1	1	1.0	1.0	upper	../fonts/Verdana.ttf
1342.562	n/a	WORD	671281	wordpools/wasnorm_wordpool.txt	LTP155	ltpFR	6	4	-1	COLESLAW	344	n/a	-1	1	1.0	1.0	upper	../fonts/Verdana.ttf
1346.598	n/a	WORD	673299	wordpools/wasnorm_wordpool.txt	LTP155	ltpFR	6	4	-1	BEAN	105	n/a	-1	1	1.0	1.0	upper	../fonts/Verdana.ttf
1350.786	n/a	WORD	675393	wordpools/wasnorm_wordpool.txt	LTP155	ltpFR	6	4	-1	BRIDGE	174	n/a	-1	1	1.0	1.0	upper	../fonts/Verdana.ttf
1356.68	n/a	REC_START	678340	n/a	LTP155	ltpFR	6	4	n/a	n/a	n/a	n/a	n/a	n/a	n/a	n/a	n/a	n/a
1358.306	n/a	REC_WORD	679153	wordpools/wasnorm_wordpool.txt	LTP155	ltpFR	6	4	-1	TUBE	1516	n/a	-1	n/a	n/a	n/a	n/a	n/a
1359.314	n/a	REC_WORD	679657	wordpools/wasnorm_wordpool.txt	LTP155	ltpFR	6	4	-1	JURY	766	n/a	-1	n/a	n/a	n/a	n/a	n/a
1360.456	n/a	REC_WORD	680228	wordpools/wasnorm_wordpool.txt	LTP155	ltpFR	6	4	-1	COLESLAW	344	n/a	-1	n/a	n/a	n/a	n/a	n/a
1361.768	n/a	REC_WORD	680884	wordpools/wasnorm_wordpool.txt	LTP155	ltpFR	6	4	-1	BEAN	105	n/a	-1	n/a	n/a	n/a	n/a	n/a
1362.796	n/a	REC_WORD	681398	wordpools/wasnorm_wordpool.txt	LTP155	ltpFR	6	4	-1	BRIDGE	174	n/a	-1	n/a	n/a	n/a	n/a	n/a
1363.972	n/a	REC_WORD_VV	681986	wordpools/wasnorm_wordpool.txt	LTP155	ltpFR	6	4	n/a	<>	-1	n/a	n/a	n/a	n/a	n/a	n/a	n/a
1367.186	n/a	REC_WORD	683593	wordpools/wasnorm_wordpool.txt	LTP155	ltpFR	6	4	-1	TUNA	1518	n/a	-1	n/a	n/a	n/a	n/a	n/a
1368.178	n/a	REC_WORD	684089	wordpools/wasnorm_wordpool.txt	LTP155	ltpFR	6	4	-1	NITROGEN	954	n/a	-1	n/a	n/a	n/a	n/a	n/a
1369.296	n/a	REC_WORD	684648	wordpools/wasnorm_wordpool.txt	LTP155	ltpFR	6	4	-1	PUMP	1141	n/a	-1	n/a	n/a	n/a	n/a	n/a
1370.722	n/a	REC_WORD	685361	wordpools/wasnorm_wordpool.txt	LTP155	ltpFR	6	4	-1	WHALE	1601	n/a	-1	n/a	n/a	n/a	n/a	n/a
1372.214	n/a	REC_WORD	686107	wordpools/wasnorm_wordpool.txt	LTP155	ltpFR	6	4	-1	PALM	1007	n/a	-1	n/a	n/a	n/a	n/a	n/a
1374.014	n/a	REC_WORD	687007	wordpools/wasnorm_wordpool.txt	LTP155	ltpFR	6	4	-1	CABBAGE	210	n/a	-1	n/a	n/a	n/a	n/a	n/a
1376.164	n/a	REC_WORD	688082	wordpools/wasnorm_wordpool.txt	LTP155	ltpFR	6	4	-1	SUBWAY	1400	n/a	-1	n/a	n/a	n/a	n/a	n/a
1377.802	n/a	REC_WORD	688901	wordpools/wasnorm_wordpool.txt	LTP155	ltpFR	6	4	-1	RAFT	1159	n/a	-1	n/a	n/a	n/a	n/a	n/a
1379.532	n/a	REC_WORD	689766	wordpools/wasnorm_wordpool.txt	LTP155	ltpFR	6	4	-1	SKULL	1320	n/a	-1	n/a	n/a	n/a	n/a	n/a
1439.692	n/a	WORD	719846	wordpools/wasnorm_wordpool.txt	LTP155	ltpFR	6	5	1	PENGUIN	1044	n/a	1	0	0.5869140625	0.422607421875	upper	../fonts/amplitud.ttf
1443.722	n/a	WORD	721861	wordpools/wasnorm_wordpool.txt	LTP155	ltpFR	6	5	1	DOCUMENT	479	n/a	0	0	0.5869140625	0.422607421875	upper	../fonts/amplitud.ttf
1447.65	n/a	WORD	723825	wordpools/wasnorm_wordpool.txt	LTP155	ltpFR	6	5	0	SWATTER	1418	n/a	0	1	0.412841796875	0.57763671875	lower	../fonts/zerothre.ttf
1451.472	n/a	WORD	725736	wordpools/wasnorm_wordpool.txt	LTP155	ltpFR	6	5	0	DOVE	491	n/a	0	1	0.412841796875	0.57763671875	lower	../fonts/zerothre.ttf
1455.476	n/a	WORD	727738	wordpools/wasnorm_wordpool.txt	LTP155	ltpFR	6	5	1	MILK	895	n/a	0	0	0.5869140625	0.422607421875	upper	../fonts/amplitud.ttf
1459.554	n/a	WORD	729777	wordpools/wasnorm_wordpool.txt	LTP155	ltpFR	6	5	1	CHIME	300	n/a	0	0	0.5869140625	0.422607421875	upper	../fonts/amplitud.ttf
1463.524	n/a	WORD	731762	wordpools/wasnorm_wordpool.txt	LTP155	ltpFR	6	5	1	SAPPHIRE	1234	n/a	0	0	0.5869140625	0.422607421875	upper	../fonts/amplitud.ttf
1467.404	n/a	WORD	733702	wordpools/wasnorm_wordpool.txt	LTP155	ltpFR	6	5	1	TERMITE	1451	n/a	1	0	0.5869140625	0.422607421875	upper	../fonts/amplitud.ttf
1471.29	n/a	WORD	735645	wordpools/wasnorm_wordpool.txt	LTP155	ltpFR	6	5	1	CAPITAL	238	n/a	0	0	0.5869140625	0.422607421875	upper	../fonts/amplitud.ttf
1475.41	n/a	WORD	737705	wordpools/wasnorm_wordpool.txt	LTP155	ltpFR	6	5	1	SCULPTURE	1258	n/a	0	0	0.5869140625	0.422607421875	upper	../fonts/amplitud.ttf
1479.556	n/a	WORD	739778	wordpools/wasnorm_wordpool.txt	LTP155	ltpFR	6	5	0	PELT	1040	n/a	1	1	0.412841796875	0.57763671875	lower	../fonts/zerothre.ttf
1483.502	n/a	WORD	741751	wordpools/wasnorm_wordpool.txt	LTP155	ltpFR	6	5	0	TRENCH	1503	n/a	1	1	0.412841796875	0.57763671875	lower	../fonts/zerothre.ttf
1487.364	n/a	WORD	743682	wordpools/wasnorm_wordpool.txt	LTP155	ltpFR	6	5	0	CUSTOMER	430	n/a	1	1	0.412841796875	0.57763671875	lower	../fonts/zerothre.ttf
1491.46	n/a	WORD	745730	wordpools/wasnorm_wordpool.txt	LTP155	ltpFR	6	5	0	BUYER	208	n/a	1	1	0.412841796875	0.57763671875	lower	../fonts/zerothre.ttf
1495.404	n/a	WORD	747702	wordpools/wasnorm_wordpool.txt	LTP155	ltpFR	6	5	0	SPIDER	1351	n/a	0	1	0.412841796875	0.57763671875	lower	../fonts/zerothre.ttf
1499.258	n/a	WORD	749629	wordpools/wasnorm_wordpool.txt	LTP155	ltpFR	6	5	0	TRACTOR	1493	n/a	1	1	0.412841796875	0.57763671875	lower	../fonts/zerothre.ttf
1504.976	n/a	REC_START	752488	n/a	LTP155	ltpFR	6	5	n/a	n/a	n/a	n/a	n/a	n/a	n/a	n/a	n/a	n/a
1506.274	n/a	REC_WORD	753137	wordpools/wasnorm_wordpool.txt	LTP155	ltpFR	6	5	0	TRACTOR	1493	n/a	1	n/a	n/a	n/a	n/a	n/a
1507.55	n/a	REC_WORD	753775	wordpools/wasnorm_wordpool.txt	LTP155	ltpFR	6	5	0	TRENCH	1503	n/a	1	n/a	n/a	n/a	n/a	n/a
1509.246	n/a	REC_WORD	754623	wordpools/wasnorm_wordpool.txt	LTP155	ltpFR	6	5	0	BUYER	208	n/a	1	n/a	n/a	n/a	n/a	n/a
1510.754	n/a	REC_WORD	755377	wordpools/wasnorm_wordpool.txt	LTP155	ltpFR	6	5	0	CUSTOMER	430	n/a	1	n/a	n/a	n/a	n/a	n/a
1516.092	n/a	REC_WORD	758046	wordpools/wasnorm_wordpool.txt	LTP155	ltpFR	6	5	0	PELT	1040	n/a	1	n/a	n/a	n/a	n/a	n/a
1518.39	n/a	REC_WORD	759195	wordpools/wasnorm_wordpool.txt	LTP155	ltpFR	6	5	1	PENGUIN	1044	n/a	1	n/a	n/a	n/a	n/a	n/a
1519.708	n/a	REC_WORD	759854	wordpools/wasnorm_wordpool.txt	LTP155	ltpFR	6	5	1	DOCUMENT	479	n/a	0	n/a	n/a	n/a	n/a	n/a
1522.612	n/a	REC_WORD	761306	wordpools/wasnorm_wordpool.txt	LTP155	ltpFR	6	5	1	MILK	895	n/a	0	n/a	n/a	n/a	n/a	n/a
1524.802	n/a	REC_WORD	762401	wordpools/wasnorm_wordpool.txt	LTP155	ltpFR	6	5	1	TERMITE	1451	n/a	1	n/a	n/a	n/a	n/a	n/a
1527.5	n/a	REC_WORD	763750	wordpools/wasnorm_wordpool.txt	LTP155	ltpFR	6	5	0	SWATTER	1418	n/a	0	n/a	n/a	n/a	n/a	n/a
1529.242	n/a	REC_WORD	764621	wordpools/wasnorm_wordpool.txt	LTP155	ltpFR	6	5	n/a	PIGEON	1065	n/a	n/a	n/a	n/a	n/a	n/a	n/a
1591.626	n/a	WORD	795813	wordpools/wasnorm_wordpool.txt	LTP155	ltpFR	6	6	0	LINT	826	n/a	0	1	0.412841796875	0.57763671875	lower	../fonts/zerothre.ttf
1595.54	n/a	WORD	797770	wordpools/wasnorm_wordpool.txt	LTP155	ltpFR	6	6	0	FIELD	562	n/a	1	1	0.412841796875	0.57763671875	lower	../fonts/zerothre.ttf
1599.502	n/a	WORD	799751	wordpools/wasnorm_wordpool.txt	LTP155	ltpFR	6	6	0	SIREN	1310	n/a	1	1	0.412841796875	0.57763671875	lower	../fonts/zerothre.ttf
1603.572	n/a	WORD	801786	wordpools/wasnorm_wordpool.txt	LTP155	ltpFR	6	6	0	SALOON	1228	n/a	1	1	0.412841796875	0.57763671875	lower	../fonts/zerothre.ttf
1607.742	n/a	WORD	803871	wordpools/wasnorm_wordpool.txt	LTP155	ltpFR	6	6	0	CHEERLEADER	288	n/a	1	1	0.412841796875	0.57763671875	lower	../fonts/zerothre.ttf
1611.786	n/a	WORD	805893	wordpools/wasnorm_wordpool.txt	LTP155	ltpFR	6	6	0	THORN	1459	n/a	0	1	0.412841796875	0.57763671875	lower	../fonts/zerothre.ttf
1615.84	n/a	WORD	807920	wordpools/wasnorm_wordpool.txt	LTP155	ltpFR	6	6	0	PATROL	1027	n/a	1	1	0.412841796875	0.57763671875	lower	../fonts/zerothre.ttf
1619.894	n/a	WORD	809947	wordpools/wasnorm_wordpool.txt	LTP155	ltpFR	6	6	0	AGENT	10	n/a	1	1	0.412841796875	0.57763671875	lower	../fonts/zerothre.ttf
1623.84	n/a	WORD	811920	wordpools/wasnorm_wordpool.txt	LTP155	ltpFR	6	6	0	CLIPPERS	324	n/a	0	1	0.412841796875	0.57763671875	lower	../fonts/zerothre.ttf
1627.66	n/a	WORD	813830	wordpools/wasnorm_wordpool.txt	LTP155	ltpFR	6	6	0	MASK	876	n/a	0	1	0.412841796875	0.57763671875	lower	../fonts/zerothre.ttf
1631.722	n/a	WORD	815861	wordpools/wasnorm_wordpool.txt	LTP155	ltpFR	6	6	0	CAP	236	n/a	0	1	0.412841796875	0.57763671875	lower	../fonts/zerothre.ttf
1635.594	n/a	WORD	817797	wordpools/wasnorm_wordpool.txt	LTP155	ltpFR	6	6	0	NOTEBOOK	959	n/a	1	1	0.412841796875	0.57763671875	lower	../fonts/zerothre.ttf
1639.648	n/a	WORD	819824	wordpools/wasnorm_wordpool.txt	LTP155	ltpFR	6	6	0	FOLDER	588	n/a	1	1	0.412841796875	0.57763671875	lower	../fonts/zerothre.ttf
1643.8	n/a	WORD	821900	wordpools/wasnorm_wordpool.txt	LTP155	ltpFR	6	6	0	PRUNE	1134	n/a	0	1	0.412841796875	0.57763671875	lower	../fonts/zerothre.ttf
1647.622	n/a	WORD	823811	wordpools/wasnorm_wordpool.txt	LTP155	ltpFR	6	6	0	CHERRY	293	n/a	0	1	0.412841796875	0.57763671875	lower	../fonts/zerothre.ttf
1651.442	n/a	WORD	825721	wordpools/wasnorm_wordpool.txt	LTP155	ltpFR	6	6	0	COCKTAIL	338	n/a	0	1	0.412841796875	0.57763671875	lower	../fonts/zerothre.ttf
1657.062	n/a	REC_START	828531	n/a	LTP155	ltpFR	6	6	n/a	n/a	n/a	n/a	n/a	n/a	n/a	n/a	n/a	n/a
1658.05	n/a	REC_WORD	829025	wordpools/wasnorm_wordpool.txt	LTP155	ltpFR	6	6	0	PRUNE	1134	n/a	0	n/a	n/a	n/a	n/a	n/a
1659.202	n/a	REC_WORD	829601	wordpools/wasnorm_wordpool.txt	LTP155	ltpFR	6	6	0	CHERRY	293	n/a	0	n/a	n/a	n/a	n/a	n/a
1660.364	n/a	REC_WORD	830182	wordpools/wasnorm_wordpool.txt	LTP155	ltpFR	6	6	0	COCKTAIL	338	n/a	0	n/a	n/a	n/a	n/a	n/a
1689.98	n/a	REC_WORD	844990	wordpools/wasnorm_wordpool.txt	LTP155	ltpFR	6	6	0	CLIPPERS	324	n/a	0	n/a	n/a	n/a	n/a	n/a
1702.158	n/a	REC_WORD	851079	wordpools/wasnorm_wordpool.txt	LTP155	ltpFR	6	6	0	SALOON	1228	n/a	1	n/a	n/a	n/a	n/a	n/a
1703.712	n/a	REC_WORD	851856	wordpools/wasnorm_wordpool.txt	LTP155	ltpFR	6	6	0	CHEERLEADER	288	n/a	1	n/a	n/a	n/a	n/a	n/a
1765.61	n/a	WORD	882805	wordpools/wasnorm_wordpool.txt	LTP155	ltpFR	6	7	1	TOWN	1491	n/a	3	0	0.5869140625	0.422607421875	upper	../fonts/amplitud.ttf
1767.658	n/a	KEY_MSG	883829	n/a	LTP155	ltpFR	6	7	n/a	n/a	n/a	n/a	n/a	n/a	n/a	n/a	n/a	n/a
1770.372	n/a	WORD	885186	wordpools/wasnorm_wordpool.txt	LTP155	ltpFR	6	7	1	BOMB	147	n/a	0	0	0.5869140625	0.422607421875	upper	../fonts/amplitud.ttf
1774.22	n/a	WORD	887110	wordpools/wasnorm_wordpool.txt	LTP155	ltpFR	6	7	1	FILM	565	n/a	0	0	0.5869140625	0.422607421875	upper	../fonts/amplitud.ttf
1778.232	n/a	WORD	889116	wordpools/wasnorm_wordpool.txt	LTP155	ltpFR	6	7	1	WARDROBE	1587	n/a	0	0	0.5869140625	0.422607421875	upper	../fonts/amplitud.ttf
1782.284	n/a	WORD	891142	wordpools/wasnorm_wordpool.txt	LTP155	ltpFR	6	7	1	BLUEJAY	141	n/a	1	0	0.5869140625	0.422607421875	upper	../fonts/amplitud.ttf
1786.18	n/a	WORD	893090	wordpools/wasnorm_wordpool.txt	LTP155	ltpFR	6	7	1	PAD	998	n/a	0	0	0.5869140625	0.422607421875	upper	../fonts/amplitud.ttf
1790.368	n/a	WORD	895184	wordpools/wasnorm_wordpool.txt	LTP155	ltpFR	6	7	1	STAPLER	1372	n/a	0	0	0.5869140625	0.422607421875	upper	../fonts/amplitud.ttf
1794.288	n/a	WORD	897144	wordpools/wasnorm_wordpool.txt	LTP155	ltpFR	6	7	1	TICKET	1464	n/a	0	0	0.5869140625	0.422607421875	upper	../fonts/amplitud.ttf
1798.384	n/a	WORD	899192	wordpools/wasnorm_wordpool.txt	LTP155	ltpFR	6	7	1	DETECTIVE	454	n/a	1	0	0.5869140625	0.422607421875	upper	../fonts/amplitud.ttf
1802.27	n/a	WORD	901135	wordpools/wasnorm_wordpool.txt	LTP155	ltpFR	6	7	1	LETTUCE	814	n/a	1	0	0.5869140625	0.422607421875	upper	../fonts/amplitud.ttf
1806.258	n/a	WORD	903129	wordpools/wasnorm_wordpool.txt	LTP155	ltpFR	6	7	1	CRITIC	410	n/a	1	0	0.5869140625	0.422607421875	upper	../fonts/amplitud.ttf
1810.452	n/a	WORD	905226	wordpools/wasnorm_wordpool.txt	LTP155	ltpFR	6	7	1	COMMANDER	354	n/a	1	0	0.5869140625	0.422607421875	upper	../fonts/amplitud.ttf
1814.49	n/a	WORD	907245	wordpools/wasnorm_wordpool.txt	LTP155	ltpFR	6	7	1	ARMY	39	n/a	1	0	0.5869140625	0.422607421875	upper	../fonts/amplitud.ttf
1818.544	n/a	WORD	909272	wordpools/wasnorm_wordpool.txt	LTP155	ltpFR	6	7	1	HARE	688	n/a	1	0	0.5869140625	0.422607421875	upper	../fonts/amplitud.ttf
1822.67	n/a	WORD	911335	wordpools/wasnorm_wordpool.txt	LTP155	ltpFR	6	7	1	CHAIR	274	n/a	1	0	0.5869140625	0.422607421875	upper	../fonts/amplitud.ttf
1826.674	n/a	WORD	913337	wordpools/wasnorm_wordpool.txt	LTP155	ltpFR	6	7	1	MOLECULE	905	n/a	0	0	0.5869140625	0.422607421875	upper	../fonts/amplitud.ttf
1832.552	n/a	REC_START	916276	n/a	LTP155	ltpFR	6	7	n/a	n/a	n/a	n/a	n/a	n/a	n/a	n/a	n/a	n/a
1833.24	n/a	REC_WORD	916620	wordpools/wasnorm_wordpool.txt	LTP155	ltpFR	6	7	1	MOLECULE	905	n/a	0	n/a	n/a	n/a	n/a	n/a
1834.862	n/a	REC_WORD	917431	wordpools/wasnorm_wordpool.txt	LTP155	ltpFR	6	7	1	HARE	688	n/a	1	n/a	n/a	n/a	n/a	n/a
1835.566	n/a	REC_WORD	917783	wordpools/wasnorm_wordpool.txt	LTP155	ltpFR	6	7	1	CHAIR	274	n/a	1	n/a	n/a	n/a	n/a	n/a
1836.792	n/a	REC_WORD	918396	wordpools/wasnorm_wordpool.txt	LTP155	ltpFR	6	7	1	WARDROBE	1587	n/a	0	n/a	n/a	n/a	n/a	n/a
1838.394	n/a	REC_WORD	919197	wordpools/wasnorm_wordpool.txt	LTP155	ltpFR	6	7	1	BOMB	147	n/a	0	n/a	n/a	n/a	n/a	n/a
1839.376	n/a	REC_WORD	919688	wordpools/wasnorm_wordpool.txt	LTP155	ltpFR	6	7	1	TOWN	1491	n/a	3	n/a	n/a	n/a	n/a	n/a
1843.204	n/a	REC_WORD	921602	wordpools/wasnorm_wordpool.txt	LTP155	ltpFR	6	7	1	BLUEJAY	141	n/a	1	n/a	n/a	n/a	n/a	n/a
1846.292	n/a	REC_WORD	923146	wordpools/wasnorm_wordpool.txt	LTP155	ltpFR	6	7	1	STAPLER	1372	n/a	0	n/a	n/a	n/a	n/a	n/a
1849.106	n/a	REC_WORD	924553	wordpools/wasnorm_wordpool.txt	LTP155	ltpFR	6	7	1	PAD	998	n/a	0	n/a	n/a	n/a	n/a	n/a
1850.296	n/a	REC_WORD	925148	wordpools/wasnorm_wordpool.txt	LTP155	ltpFR	6	7	1	DETECTIVE	454	n/a	1	n/a	n/a	n/a	n/a	n/a
1851.894	n/a	REC_WORD	925947	wordpools/wasnorm_wordpool.txt	LTP155	ltpFR	6	7	1	LETTUCE	814	n/a	1	n/a	n/a	n/a	n/a	n/a
2230.97	n/a	WORD	1115485	wordpools/wasnorm_wordpool.txt	LTP155	ltpFR	6	8	-1	RESTAURANT	1187	n/a	-1	1	1.0	1.0	upper	../fonts/Verdana.ttf
2234.982	n/a	WORD	1117491	wordpools/wasnorm_wordpool.txt	LTP155	ltpFR	6	8	-1	VINEGAR	1569	n/a	-1	1	1.0	1.0	upper	../fonts/Verdana.ttf
2239.028	n/a	WORD	1119514	wordpools/wasnorm_wordpool.txt	LTP155	ltpFR	6	8	-1	OPERA	978	n/a	-1	1	1.0	1.0	upper	../fonts/Verdana.ttf
2243.006	n/a	WORD	1121503	wordpools/wasnorm_wordpool.txt	LTP155	ltpFR	6	8	-1	RACK	1154	n/a	-1	1	1.0	1.0	upper	../fonts/Verdana.ttf
2246.936	n/a	WORD	1123468	wordpools/wasnorm_wordpool.txt	LTP155	ltpFR	6	8	-1	PISTOL	1075	n/a	-1	1	1.0	1.0	upper	../fonts/Verdana.ttf
2250.922	n/a	WORD	1125461	wordpools/wasnorm_wordpool.txt	LTP155	ltpFR	6	8	-1	JAM	748	n/a	-1	1	1.0	1.0	upper	../fonts/Verdana.ttf
2254.842	n/a	WORD	1127421	wordpools/wasnorm_wordpool.txt	LTP155	ltpFR	6	8	-1	BELT	120	n/a	-1	1	1.0	1.0	upper	../fonts/Verdana.ttf
2258.772	n/a	WORD	1129386	wordpools/wasnorm_wordpool.txt	LTP155	ltpFR	6	8	-1	PICTURE	1061	n/a	-1	1	1.0	1.0	upper	../fonts/Verdana.ttf
2262.666	n/a	WORD	1131333	wordpools/wasnorm_wordpool.txt	LTP155	ltpFR	6	8	-1	PAINT	1003	n/a	-1	1	1.0	1.0	upper	../fonts/Verdana.ttf
2266.696	n/a	WORD	1133348	wordpools/wasnorm_wordpool.txt	LTP155	ltpFR	6	8	-1	TAXI	1438	n/a	-1	1	1.0	1.0	upper	../fonts/Verdana.ttf
2270.884	n/a	WORD	1135442	wordpools/wasnorm_wordpool.txt	LTP155	ltpFR	6	8	-1	CLOCK	325	n/a	-1	1	1.0	1.0	upper	../fonts/Verdana.ttf
2274.796	n/a	WORD	1137398	wordpools/wasnorm_wordpool.txt	LTP155	ltpFR	6	8	-1	SNEAKER	1334	n/a	-1	1	1.0	1.0	upper	../fonts/Verdana.ttf
2278.832	n/a	WORD	1139416	wordpools/wasnorm_wordpool.txt	LTP155	ltpFR	6	8	-1	ZIPPER	1636	n/a	-1	1	1.0	1.0	upper	../fonts/Verdana.ttf
2282.92	n/a	WORD	1141460	wordpools/wasnorm_wordpool.txt	LTP155	ltpFR	6	8	-1	WAITRESS	1581	n/a	-1	1	1.0	1.0	upper	../fonts/Verdana.ttf
2286.84	n/a	WORD	1143420	wordpools/wasnorm_wordpool.txt	LTP155	ltpFR	6	8	-1	ZOO	1637	n/a	-1	1	1.0	1.0	upper	../fonts/Verdana.ttf
2290.778	n/a	WORD	1145389	wordpools/wasnorm_wordpool.txt	LTP155	ltpFR	6	8	-1	RACCOON	1153	n/a	-1	1	1.0	1.0	upper	../fonts/Verdana.ttf
2296.596	n/a	REC_START	1148298	n/a	LTP155	ltpFR	6	8	n/a	n/a	n/a	n/a	n/a	n/a	n/a	n/a	n/a	n/a
2297.34	n/a	REC_WORD	1148670	wordpools/wasnorm_wordpool.txt	LTP155	ltpFR	6	8	-1	ZIPPER	1636	n/a	-1	n/a	n/a	n/a	n/a	n/a
2298.018	n/a	REC_WORD	1149009	wordpools/wasnorm_wordpool.txt	LTP155	ltpFR	6	8	-1	WAITRESS	1581	n/a	-1	n/a	n/a	n/a	n/a	n/a
2298.762	n/a	REC_WORD	1149381	wordpools/wasnorm_wordpool.txt	LTP155	ltpFR	6	8	-1	ZOO	1637	n/a	-1	n/a	n/a	n/a	n/a	n/a
2299.414	n/a	REC_WORD	1149707	wordpools/wasnorm_wordpool.txt	LTP155	ltpFR	6	8	-1	RACCOON	1153	n/a	-1	n/a	n/a	n/a	n/a	n/a
2300.846	n/a	REC_WORD	1150423	wordpools/wasnorm_wordpool.txt	LTP155	ltpFR	6	8	-1	OPERA	978	n/a	-1	n/a	n/a	n/a	n/a	n/a
2301.894	n/a	REC_WORD	1150947	wordpools/wasnorm_wordpool.txt	LTP155	ltpFR	6	8	-1	BELT	120	n/a	-1	n/a	n/a	n/a	n/a	n/a
2302.916	n/a	REC_WORD	1151458	wordpools/wasnorm_wordpool.txt	LTP155	ltpFR	6	8	-1	PAINT	1003	n/a	-1	n/a	n/a	n/a	n/a	n/a
2303.49	n/a	REC_WORD	1151745	wordpools/wasnorm_wordpool.txt	LTP155	ltpFR	6	8	-1	PICTURE	1061	n/a	-1	n/a	n/a	n/a	n/a	n/a
2304.228	n/a	REC_WORD	1152114	wordpools/wasnorm_wordpool.txt	LTP155	ltpFR	6	8	-1	TAXI	1438	n/a	-1	n/a	n/a	n/a	n/a	n/a
2308.784	n/a	REC_WORD	1154392	wordpools/wasnorm_wordpool.txt	LTP155	ltpFR	6	8	-1	RESTAURANT	1187	n/a	-1	n/a	n/a	n/a	n/a	n/a
2309.946	n/a	REC_WORD	1154973	wordpools/wasnorm_wordpool.txt	LTP155	ltpFR	6	8	-1	VINEGAR	1569	n/a	-1	n/a	n/a	n/a	n/a	n/a
2517.11	n/a	WORD	1258555	wordpools/wasnorm_wordpool.txt	LTP155	ltpFR	6	9	0	NUT	965	n/a	0	1	0.412841796875	0.57763671875	lower	../fonts/zerothre.ttf
2521.206	n/a	WORD	1260603	wordpools/wasnorm_wordpool.txt	LTP155	ltpFR	6	9	0	WALNUT	1584	n/a	0	1	0.412841796875	0.57763671875	lower	../fonts/zerothre.ttf
2525.044	n/a	WORD	1262522	wordpools/wasnorm_wordpool.txt	LTP155	ltpFR	6	9	0	FRAGRANCE	599	n/a	0	1	0.412841796875	0.57763671875	lower	../fonts/zerothre.ttf
2529.18	n/a	WORD	1264590	wordpools/wasnorm_wordpool.txt	LTP155	ltpFR	6	9	0	WAREHOUSE	1588	n/a	1	1	0.412841796875	0.57763671875	lower	../fonts/zerothre.ttf
2533.05	n/a	WORD	1266525	wordpools/wasnorm_wordpool.txt	LTP155	ltpFR	6	9	0	OTTER	986	n/a	1	1	0.412841796875	0.57763671875	lower	../fonts/zerothre.ttf
2537.196	n/a	WORD	1268598	wordpools/wasnorm_wordpool.txt	LTP155	ltpFR	6	9	0	MONKEY	911	n/a	1	1	0.412841796875	0.57763671875	lower	../fonts/zerothre.ttf
2541.05	n/a	WORD	1270525	wordpools/wasnorm_wordpool.txt	LTP155	ltpFR	6	9	0	SACK	1220	n/a	0	1	0.412841796875	0.57763671875	lower	../fonts/zerothre.ttf
2545.12	n/a	WORD	1272560	wordpools/wasnorm_wordpool.txt	LTP155	ltpFR	6	9	0	ANTENNA	28	n/a	0	1	0.412841796875	0.57763671875	lower	../fonts/zerothre.ttf
2549.132	n/a	WORD	1274566	wordpools/wasnorm_wordpool.txt	LTP155	ltpFR	6	9	0	MECHANIC	884	n/a	1	1	0.412841796875	0.57763671875	lower	../fonts/zerothre.ttf
2553.304	n/a	WORD	1276652	wordpools/wasnorm_wordpool.txt	LTP155	ltpFR	6	9	0	DUMP	505	n/a	1	1	0.412841796875	0.57763671875	lower	../fonts/zerothre.ttf
2557.116	n/a	WORD	1278558	wordpools/wasnorm_wordpool.txt	LTP155	ltpFR	6	9	0	METEOR	889	n/a	1	1	0.412841796875	0.57763671875	lower	../fonts/zerothre.ttf
2561.302	n/a	WORD	1280651	wordpools/wasnorm_wordpool.txt	LTP155	ltpFR	6	9	0	BOX	159	n/a	1	1	0.412841796875	0.57763671875	lower	../fonts/zerothre.ttf
2565.122	n/a	WORD	1282561	wordpools/wasnorm_wordpool.txt	LTP155	ltpFR	6	9	0	CUBE	420	n/a	0	1	0.412841796875	0.57763671875	lower	../fonts/zerothre.ttf
2568.976	n/a	WORD	1284488	wordpools/wasnorm_wordpool.txt	LTP155	ltpFR	6	9	0	BUS	201	n/a	1	1	0.412841796875	0.57763671875	lower	../fonts/zerothre.ttf
2573.114	n/a	WORD	1286557	wordpools/wasnorm_wordpool.txt	LTP155	ltpFR	6	9	0	TELESCOPE	1446	n/a	1	1	0.412841796875	0.57763671875	lower	../fonts/zerothre.ttf
2577.0	n/a	WORD	1288500	wordpools/wasnorm_wordpool.txt	LTP155	ltpFR	6	9	0	GORILLA	650	n/a	1	1	0.412841796875	0.57763671875	lower	../fonts/zerothre.ttf
2582.768	n/a	REC_START	1291384	n/a	LTP155	ltpFR	6	9	n/a	n/a	n/a	n/a	n/a	n/a	n/a	n/a	n/a	n/a
2583.466	n/a	REC_WORD	1291733	wordpools/wasnorm_wordpool.txt	LTP155	ltpFR	6	9	0	WAREHOUSE	1588	n/a	1	n/a	n/a	n/a	n/a	n/a
2584.504	n/a	REC_WORD	1292252	wordpools/wasnorm_wordpool.txt	LTP155	ltpFR	6	9	0	OTTER	986	n/a	1	n/a	n/a	n/a	n/a	n/a
2585.014	n/a	REC_WORD	1292507	wordpools/wasnorm_wordpool.txt	LTP155	ltpFR	6	9	0	MONKEY	911	n/a	1	n/a	n/a	n/a	n/a	n/a
2586.266	n/a	REC_WORD	1293133	wordpools/wasnorm_wordpool.txt	LTP155	ltpFR	6	9	0	TELESCOPE	1446	n/a	1	n/a	n/a	n/a	n/a	n/a
2587.174	n/a	REC_WORD	1293587	wordpools/wasnorm_wordpool.txt	LTP155	ltpFR	6	9	0	METEOR	889	n/a	1	n/a	n/a	n/a	n/a	n/a
2588.012	n/a	REC_WORD	1294006	wordpools/wasnorm_wordpool.txt	LTP155	ltpFR	6	9	0	ANTENNA	28	n/a	0	n/a	n/a	n/a	n/a	n/a
2588.868	n/a	REC_WORD	1294434	wordpools/wasnorm_wordpool.txt	LTP155	ltpFR	6	9	0	SACK	1220	n/a	0	n/a	n/a	n/a	n/a	n/a
2590.166	n/a	REC_WORD	1295083	wordpools/wasnorm_wordpool.txt	LTP155	ltpFR	6	9	0	NUT	965	n/a	0	n/a	n/a	n/a	n/a	n/a
2590.696	n/a	REC_WORD	1295348	wordpools/wasnorm_wordpool.txt	LTP155	ltpFR	6	9	0	WALNUT	1584	n/a	0	n/a	n/a	n/a	n/a	n/a
2642.628	n/a	REC_WORD	1321314	wordpools/wasnorm_wordpool.txt	LTP155	ltpFR	6	9	0	WAREHOUSE	1588	n/a	1	n/a	n/a	n/a	n/a	n/a
2647.402	n/a	REC_WORD	1323701	wordpools/wasnorm_wordpool.txt	LTP155	ltpFR	6	9	n/a	CENT	270	n/a	n/a	n/a	n/a	n/a	n/a	n/a
2666.098	n/a	WORD	1333049	wordpools/wasnorm_wordpool.txt	LTP155	ltpFR	6	10	0	SARDINE	1235	n/a	0	1	0.412841796875	0.57763671875	lower	../fonts/zerothre.ttf
2670.178	n/a	WORD	1335089	wordpools/wasnorm_wordpool.txt	LTP155	ltpFR	6	10	0	IGLOO	734	n/a	1	1	0.412841796875	0.57763671875	lower	../fonts/zerothre.ttf
2673.988	n/a	WORD	1336994	wordpools/wasnorm_wordpool.txt	LTP155	ltpFR	6	10	0	COWBOY	395	n/a	1	1	0.412841796875	0.57763671875	lower	../fonts/zerothre.ttf
2678.134	n/a	WORD	1339067	wordpools/wasnorm_wordpool.txt	LTP155	ltpFR	6	10	0	CARAVAN	242	n/a	1	1	0.412841796875	0.57763671875	lower	../fonts/zerothre.ttf
2682.23	n/a	WORD	1341115	wordpools/wasnorm_wordpool.txt	LTP155	ltpFR	6	10	0	SHIRT	1287	n/a	1	1	0.412841796875	0.57763671875	lower	../fonts/zerothre.ttf
2686.258	n/a	WORD	1343129	wordpools/wasnorm_wordpool.txt	LTP155	ltpFR	6	10	0	CREEK	404	n/a	1	1	0.412841796875	0.57763671875	lower	../fonts/zerothre.ttf
2690.372	n/a	WORD	1345186	wordpools/wasnorm_wordpool.txt	LTP155	ltpFR	6	10	0	LAGOON	795	n/a	1	1	0.412841796875	0.57763671875	lower	../fonts/zerothre.ttf
2694.192	n/a	WORD	1347096	wordpools/wasnorm_wordpool.txt	LTP155	ltpFR	6	10	0	ANT	25	n/a	0	1	0.412841796875	0.57763671875	lower	../fonts/zerothre.ttf
2698.046	n/a	WORD	1349023	wordpools/wasnorm_wordpool.txt	LTP155	ltpFR	6	10	0	BOOTH	151	n/a	1	1	0.412841796875	0.57763671875	lower	../fonts/zerothre.ttf
2701.958	n/a	WORD	1350979	wordpools/wasnorm_wordpool.txt	LTP155	ltpFR	6	10	0	ROAD	1196	n/a	1	1	0.412841796875	0.57763671875	lower	../fonts/zerothre.ttf
2706.054	n/a	WORD	1353027	wordpools/wasnorm_wordpool.txt	LTP155	ltpFR	6	10	0	BLOCKADE	137	n/a	1	1	0.412841796875	0.57763671875	lower	../fonts/zerothre.ttf
2710.206	n/a	WORD	1355103	wordpools/wasnorm_wordpool.txt	LTP155	ltpFR	6	10	0	BEETLE	116	n/a	0	1	0.412841796875	0.57763671875	lower	../fonts/zerothre.ttf
2714.36	n/a	WORD	1357180	wordpools/wasnorm_wordpool.txt	LTP155	ltpFR	6	10	0	CREAM	402	n/a	0	1	0.412841796875	0.57763671875	lower	../fonts/zerothre.ttf
2718.38	n/a	WORD	1359190	wordpools/wasnorm_wordpool.txt	LTP155	ltpFR	6	10	0	CORAL	378	n/a	1	1	0.412841796875	0.57763671875	lower	../fonts/zerothre.ttf
2722.5	n/a	WORD	1361250	wordpools/wasnorm_wordpool.txt	LTP155	ltpFR	6	10	0	COBBLER	335	n/a	1	1	0.412841796875	0.57763671875	lower	../fonts/zerothre.ttf
2726.364	n/a	WORD	1363182	wordpools/wasnorm_wordpool.txt	LTP155	ltpFR	6	10	0	HEEL	700	n/a	0	1	0.412841796875	0.57763671875	lower	../fonts/zerothre.ttf
2731.956	n/a	REC_START	1365978	n/a	LTP155	ltpFR	6	10	n/a	n/a	n/a	n/a	n/a	n/a	n/a	n/a	n/a	n/a
2732.52	n/a	REC_WORD	1366260	wordpools/wasnorm_wordpool.txt	LTP155	ltpFR	6	10	0	HEEL	700	n/a	0	n/a	n/a	n/a	n/a	n/a
2733.512	n/a	REC_WORD	1366756	wordpools/wasnorm_wordpool.txt	LTP155	ltpFR	6	10	0	COBBLER	335	n/a	1	n/a	n/a	n/a	n/a	n/a
2739.224	n/a	REC_WORD	1369612	wordpools/wasnorm_wordpool.txt	LTP155	ltpFR	6	10	0	IGLOO	734	n/a	1	n/a	n/a	n/a	n/a	n/a
2740.446	n/a	REC_WORD	1370223	wordpools/wasnorm_wordpool.txt	LTP155	ltpFR	6	10	0	SARDINE	1235	n/a	0	n/a	n/a	n/a	n/a	n/a
2741.684	n/a	REC_WORD	1370842	wordpools/wasnorm_wordpool.txt	LTP155	ltpFR	6	10	0	COWBOY	395	n/a	1	n/a	n/a	n/a	n/a	n/a
2745.212	n/a	REC_WORD	1372606	wordpools/wasnorm_wordpool.txt	LTP155	ltpFR	6	10	0	BOX	159	n/a	1	n/a	n/a	n/a	n/a	n/a
2748.438	n/a	REC_WORD	1374219	wordpools/wasnorm_wordpool.txt	LTP155	ltpFR	6	10	0	SHIRT	1287	n/a	1	n/a	n/a	n/a	n/a	n/a
2853.518	n/a	WORD	1426759	wordpools/wasnorm_wordpool.txt	LTP155	ltpFR	6	11	0	CONTRACTOR	369	n/a	1	1	0.412841796875	0.57763671875	lower	../fonts/zerothre.ttf
2857.364	n/a	WORD	1428682	wordpools/wasnorm_wordpool.txt	LTP155	ltpFR	6	11	0	ENEMY	534	n/a	1	1	0.412841796875	0.57763671875	lower	../fonts/zerothre.ttf
2861.526	n/a	WORD	1430763	wordpools/wasnorm_wordpool.txt	LTP155	ltpFR	6	11	0	CARRIAGE	248	n/a	1	1	0.412841796875	0.57763671875	lower	../fonts/zerothre.ttf
2865.38	n/a	WORD	1432690	wordpools/wasnorm_wordpool.txt	LTP155	ltpFR	6	11	1	TOWER	1490	n/a	3	0	0.5869140625	0.422607421875	upper	../fonts/amplitud.ttf
2865.836	n/a	KEY_MSG	1432918	n/a	LTP155	ltpFR	6	11	n/a	n/a	n/a	n/a	n/a	n/a	n/a	n/a	n/a	n/a
2869.49	n/a	WORD	1434745	wordpools/wasnorm_wordpool.txt	LTP155	ltpFR	6	11	1	LIP	828	n/a	0	0	0.5869140625	0.422607421875	upper	../fonts/amplitud.ttf
2873.536	n/a	WORD	1436768	wordpools/wasnorm_wordpool.txt	LTP155	ltpFR	6	11	1	CITIZEN	312	n/a	1	0	0.5869140625	0.422607421875	upper	../fonts/amplitud.ttf
2877.63	n/a	WORD	1438815	wordpools/wasnorm_wordpool.txt	LTP155	ltpFR	6	11	1	POLE	1097	n/a	0	0	0.5869140625	0.422607421875	upper	../fonts/amplitud.ttf
2881.768	n/a	WORD	1440884	wordpools/wasnorm_wordpool.txt	LTP155	ltpFR	6	11	0	AUTHOR	61	n/a	1	1	0.412841796875	0.57763671875	lower	../fonts/zerothre.ttf
2885.68	n/a	WORD	1442840	wordpools/wasnorm_wordpool.txt	LTP155	ltpFR	6	11	0	NOVEL	960	n/a	0	1	0.412841796875	0.57763671875	lower	../fonts/zerothre.ttf
2889.692	n/a	WORD	1444846	wordpools/wasnorm_wordpool.txt	LTP155	ltpFR	6	11	0	LIPSTICK	829	n/a	0	1	0.412841796875	0.57763671875	lower	../fonts/zerothre.ttf
2893.728	n/a	WORD	1446864	wordpools/wasnorm_wordpool.txt	LTP155	ltpFR	6	11	0	ASSOCIATE	49	n/a	1	1	0.412841796875	0.57763671875	lower	../fonts/zerothre.ttf
2897.758	n/a	WORD	1448879	wordpools/wasnorm_wordpool.txt	LTP155	ltpFR	6	11	0	INTESTINE	742	n/a	0	1	0.412841796875	0.57763671875	lower	../fonts/zerothre.ttf
2901.72	n/a	WORD	1450860	wordpools/wasnorm_wordpool.txt	LTP155	ltpFR	6	11	1	CANNON	232	n/a	0	0	0.5869140625	0.422607421875	upper	../fonts/amplitud.ttf
2905.874	n/a	WORD	1452937	wordpools/wasnorm_wordpool.txt	LTP155	ltpFR	6	11	1	TIMBER	1469	n/a	0	0	0.5869140625	0.422607421875	upper	../fonts/amplitud.ttf
2909.828	n/a	WORD	1454914	wordpools/wasnorm_wordpool.txt	LTP155	ltpFR	6	11	1	LUNCH	849	n/a	0	0	0.5869140625	0.422607421875	upper	../fonts/amplitud.ttf
2913.998	n/a	WORD	1456999	wordpools/wasnorm_wordpool.txt	LTP155	ltpFR	6	11	1	PLATE	1086	n/a	0	0	0.5869140625	0.422607421875	upper	../fonts/amplitud.ttf
2919.684	n/a	REC_START	1459842	n/a	LTP155	ltpFR	6	11	n/a	n/a	n/a	n/a	n/a	n/a	n/a	n/a	n/a	n/a
2920.252	n/a	REC_WORD	1460126	wordpools/wasnorm_wordpool.txt	LTP155	ltpFR	6	11	1	LUNCH	849	n/a	0	n/a	n/a	n/a	n/a	n/a
2921.02	n/a	REC_WORD	1460510	wordpools/wasnorm_wordpool.txt	LTP155	ltpFR	6	11	1	PLATE	1086	n/a	0	n/a	n/a	n/a	n/a	n/a
2921.898	n/a	REC_WORD	1460949	wordpools/wasnorm_wordpool.txt	LTP155	ltpFR	6	11	1	TIMBER	1469	n/a	0	n/a	n/a	n/a	n/a	n/a
2924.034	n/a	REC_WORD	1462017	wordpools/wasnorm_wordpool.txt	LTP155	ltpFR	6	11	0	CORAL	378	n/a	1	n/a	n/a	n/a	n/a	n/a
2925.31	n/a	REC_WORD	1462655	wordpools/wasnorm_wordpool.txt	LTP155	ltpFR	6	11	1	LIP	828	n/a	0	n/a	n/a	n/a	n/a	n/a
2934.096	n/a	REC_WORD	1467048	wordpools/wasnorm_wordpool.txt	LTP155	ltpFR	6	11	0	CONTRACTOR	369	n/a	1	n/a	n/a	n/a	n/a	n/a
2936.036	n/a	REC_WORD	1468018	wordpools/wasnorm_wordpool.txt	LTP155	ltpFR	6	11	0	ENEMY	534	n/a	1	n/a	n/a	n/a	n/a	n/a
2944.012	n/a	REC_WORD	1472006	wordpools/wasnorm_wordpool.txt	LTP155	ltpFR	6	11	0	INTESTINE	742	n/a	0	n/a	n/a	n/a	n/a	n/a
2954.958	n/a	REC_WORD	1477479	wordpools/wasnorm_wordpool.txt	LTP155	ltpFR	6	11	0	TELESCOPE	1446	n/a	1	n/a	n/a	n/a	n/a	n/a
3201.618	n/a	WORD	1600809	wordpools/wasnorm_wordpool.txt	LTP155	ltpFR	6	12	0	APE	31	n/a	0	1	0.412841796875	0.57763671875	lower	../fonts/zerothre.ttf
3205.614	n/a	WORD	1602807	wordpools/wasnorm_wordpool.txt	LTP155	ltpFR	6	12	0	PRIMATE	1123	n/a	1	1	0.412841796875	0.57763671875	lower	../fonts/zerothre.ttf
3209.65	n/a	WORD	1604825	wordpools/wasnorm_wordpool.txt	LTP155	ltpFR	6	12	0	GARAGE	621	n/a	1	1	0.412841796875	0.57763671875	lower	../fonts/zerothre.ttf
3213.796	n/a	WORD	1606898	wordpools/wasnorm_wordpool.txt	LTP155	ltpFR	6	12	0	TART	1436	n/a	0	1	0.412841796875	0.57763671875	lower	../fonts/zerothre.ttf
3217.842	n/a	WORD	1608921	wordpools/wasnorm_wordpool.txt	LTP155	ltpFR	6	12	1	POLITICIAN	1099	n/a	1	0	0.5869140625	0.422607421875	upper	../fonts/amplitud.ttf
3221.728	n/a	WORD	1610864	wordpools/wasnorm_wordpool.txt	LTP155	ltpFR	6	12	1	BLUEBERRY	140	n/a	1	0	0.5869140625	0.422607421875	upper	../fonts/amplitud.ttf
3225.65	n/a	WORD	1612825	wordpools/wasnorm_wordpool.txt	LTP155	ltpFR	6	12	1	SALESMAN	1225	n/a	1	0	0.5869140625	0.422607421875	upper	../fonts/amplitud.ttf
3229.554	n/a	WORD	1614777	wordpools/wasnorm_wordpool.txt	LTP155	ltpFR	6	12	1	SENATE	1267	n/a	1	0	0.5869140625	0.422607421875	upper	../fonts/amplitud.ttf
3233.492	n/a	WORD	1616746	wordpools/wasnorm_wordpool.txt	LTP155	ltpFR	6	12	1	TRIANGLE	1504	n/a	0	0	0.5869140625	0.422607421875	upper	../fonts/amplitud.ttf
3237.602	n/a	WORD	1618801	wordpools/wasnorm_wordpool.txt	LTP155	ltpFR	6	12	0	CANE	231	n/a	1	1	0.412841796875	0.57763671875	lower	../fonts/zerothre.ttf
3241.714	n/a	WORD	1620857	wordpools/wasnorm_wordpool.txt	LTP155	ltpFR	6	12	0	FUDGE	611	n/a	0	1	0.412841796875	0.57763671875	lower	../fonts/zerothre.ttf
3245.734	n/a	WORD	1622867	wordpools/wasnorm_wordpool.txt	LTP155	ltpFR	6	12	1	JACKET	747	n/a	0	0	0.5869140625	0.422607421875	upper	../fonts/amplitud.ttf
3249.622	n/a	WORD	1624811	wordpools/wasnorm_wordpool.txt	LTP155	ltpFR	6	12	1	SWEATER	1419	n/a	0	0	0.5869140625	0.422607421875	upper	../fonts/amplitud.ttf
3253.442	n/a	WORD	1626721	wordpools/wasnorm_wordpool.txt	LTP155	ltpFR	6	12	1	CLARINET	317	n/a	1	0	0.5869140625	0.422607421875	upper	../fonts/amplitud.ttf
3257.314	n/a	WORD	1628657	wordpools/wasnorm_wordpool.txt	LTP155	ltpFR	6	12	0	HERO	706	n/a	1	1	0.412841796875	0.57763671875	lower	../fonts/zerothre.ttf
3261.268	n/a	WORD	1630634	wordpools/wasnorm_wordpool.txt	LTP155	ltpFR	6	12	0	SODA	1341	n/a	0	1	0.412841796875	0.57763671875	lower	../fonts/zerothre.ttf
3267.346	n/a	REC_START	1633673	n/a	LTP155	ltpFR	6	12	n/a	n/a	n/a	n/a	n/a	n/a	n/a	n/a	n/a	n/a
3268.064	n/a	REC_WORD	1634032	wordpools/wasnorm_wordpool.txt	LTP155	ltpFR	6	12	1	CLARINET	317	n/a	1	n/a	n/a	n/a	n/a	n/a
3269.286	n/a	REC_WORD	1634643	wordpools/wasnorm_wordpool.txt	LTP155	ltpFR	6	12	0	HERO	706	n/a	1	n/a	n/a	n/a	n/a	n/a
3274.104	n/a	REC_WORD	1637052	wordpools/wasnorm_wordpool.txt	LTP155	ltpFR	6	12	1	BLUEBERRY	140	n/a	1	n/a	n/a	n/a	n/a	n/a
3275.358	n/a	REC_WORD	1637679	wordpools/wasnorm_wordpool.txt	LTP155	ltpFR	6	12	1	POLITICIAN	1099	n/a	1	n/a	n/a	n/a	n/a	n/a
3276.63	n/a	REC_WORD	1638315	wordpools/wasnorm_wordpool.txt	LTP155	ltpFR	6	12	1	SALESMAN	1225	n/a	1	n/a	n/a	n/a	n/a	n/a
3277.806	n/a	REC_WORD	1638903	wordpools/wasnorm_wordpool.txt	LTP155	ltpFR	6	12	1	SENATE	1267	n/a	1	n/a	n/a	n/a	n/a	n/a
3342.916	n/a	REST_REWET	1671458	n/a	LTP155	ltpFR	6	12	n/a	n/a	n/a	n/a	n/a	n/a	n/a	n/a	n/a	n/a
3722.19	n/a	WORD	1861095	wordpools/wasnorm_wordpool.txt	LTP155	ltpFR	6	13	1	HAYSTACK	694	n/a	0	0	0.5869140625	0.422607421875	upper	../fonts/amplitud.ttf
3726.27	n/a	WORD	1863135	wordpools/wasnorm_wordpool.txt	LTP155	ltpFR	6	13	1	YARN	1631	n/a	0	0	0.5869140625	0.422607421875	upper	../fonts/amplitud.ttf
3730.456	n/a	WORD	1865228	wordpools/wasnorm_wordpool.txt	LTP155	ltpFR	6	13	0	SHARK	1275	n/a	1	1	0.412841796875	0.57763671875	lower	../fonts/zerothre.ttf
3734.526	n/a	WORD	1867263	wordpools/wasnorm_wordpool.txt	LTP155	ltpFR	6	13	0	MOUSE	925	n/a	0	1	0.412841796875	0.57763671875	lower	../fonts/zerothre.ttf
3738.678	n/a	WORD	1869339	wordpools/wasnorm_wordpool.txt	LTP155	ltpFR	6	13	1	BOOK	149	n/a	0	0	0.5869140625	0.422607421875	upper	../fonts/amplitud.ttf
3742.542	n/a	WORD	1871271	wordpools/wasnorm_wordpool.txt	LTP155	ltpFR	6	13	1	WORM	1623	n/a	1	0	0.5869140625	0.422607421875	upper	../fonts/amplitud.ttf
3746.388	n/a	WORD	1873194	wordpools/wasnorm_wordpool.txt	LTP155	ltpFR	6	13	0	TROUT	1511	n/a	0	1	0.412841796875	0.57763671875	lower	../fonts/zerothre.ttf
3750.268	n/a	WORD	1875134	wordpools/wasnorm_wordpool.txt	LTP155	ltpFR	6	13	0	SLACKS	1323	n/a	0	1	0.412841796875	0.57763671875	lower	../fonts/zerothre.ttf
3754.42	n/a	WORD	1877210	wordpools/wasnorm_wordpool.txt	LTP155	ltpFR	6	13	0	GREASE	660	n/a	0	1	0.412841796875	0.57763671875	lower	../fonts/zerothre.ttf
3758.614	n/a	WORD	1879307	wordpools/wasnorm_wordpool.txt	LTP155	ltpFR	6	13	0	DRIVER	499	n/a	0	1	0.412841796875	0.57763671875	lower	../fonts/zerothre.ttf
3762.462	n/a	WORD	1881231	wordpools/wasnorm_wordpool.txt	LTP155	ltpFR	6	13	0	COLLAR	345	n/a	0	1	0.412841796875	0.57763671875	lower	../fonts/zerothre.ttf
3766.366	n/a	WORD	1883183	wordpools/wasnorm_wordpool.txt	LTP155	ltpFR	6	13	0	TEENAGER	1444	n/a	1	1	0.412841796875	0.57763671875	lower	../fonts/zerothre.ttf
3770.568	n/a	WORD	1885284	wordpools/wasnorm_wordpool.txt	LTP155	ltpFR	6	13	1	RUNNER	1218	n/a	1	0	0.5869140625	0.422607421875	upper	../fonts/amplitud.ttf
3774.382	n/a	WORD	1887191	wordpools/wasnorm_wordpool.txt	LTP155	ltpFR	6	13	1	SCHOOL	1248	n/a	1	0	0.5869140625	0.422607421875	upper	../fonts/amplitud.ttf
3778.202	n/a	WORD	1889101	wordpools/wasnorm_wordpool.txt	LTP155	ltpFR	6	13	1	COFFIN	342	n/a	0	0	0.5869140625	0.422607421875	upper	../fonts/amplitud.ttf
3782.022	n/a	WORD	1891011	wordpools/wasnorm_wordpool.txt	LTP155	ltpFR	6	13	1	FOOTBALL	591	n/a	0	0	0.5869140625	0.422607421875	upper	../fonts/amplitud.ttf
3787.69	n/a	REC_START	1893845	n/a	LTP155	ltpFR	6	13	n/a	n/a	n/a	n/a	n/a	n/a	n/a	n/a	n/a	n/a
3788.164	n/a	REC_WORD	1894082	wordpools/wasnorm_wordpool.txt	LTP155	ltpFR	6	13	1	FOOTBALL	591	n/a	0	n/a	n/a	n/a	n/a	n/a
3789.078	n/a	REC_WORD	1894539	wordpools/wasnorm_wordpool.txt	LTP155	ltpFR	6	13	1	RUNNER	1218	n/a	1	n/a	n/a	n/a	n/a	n/a
3789.766	n/a	REC_WORD	1894883	wordpools/wasnorm_wordpool.txt	LTP155	ltpFR	6	13	0	TEENAGER	1444	n/a	1	n/a	n/a	n/a	n/a	n/a
3792.484	n/a	REC_WORD	1896242	wordpools/wasnorm_wordpool.txt	LTP155	ltpFR	6	13	1	HAYSTACK	694	n/a	0	n/a	n/a	n/a	n/a	n/a
3793.796	n/a	REC_WORD	1896898	wordpools/wasnorm_wordpool.txt	LTP155	ltpFR	6	13	1	YARN	1631	n/a	0	n/a	n/a	n/a	n/a	n/a
3795.712	n/a	REC_WORD	1897856	wordpools/wasnorm_wordpool.txt	LTP155	ltpFR	6	13	0	SHARK	1275	n/a	1	n/a	n/a	n/a	n/a	n/a
3797.138	n/a	REC_WORD	1898569	wordpools/wasnorm_wordpool.txt	LTP155	ltpFR	6	13	0	MOUSE	925	n/a	0	n/a	n/a	n/a	n/a	n/a
4018.576	n/a	WORD	2009288	wordpools/wasnorm_wordpool.txt	LTP155	ltpFR	6	14	1	LIZARD	834	n/a	1	0	0.5869140625	0.422607421875	upper	../fonts/amplitud.ttf
4022.588	n/a	WORD	2011294	wordpools/wasnorm_wordpool.txt	LTP155	ltpFR	6	14	1	MONGOOSE	909	n/a	1	0	0.5869140625	0.422607421875	upper	../fonts/amplitud.ttf
4026.426	n/a	WORD	2013213	wordpools/wasnorm_wordpool.txt	LTP155	ltpFR	6	14	1	HAT	690	n/a	0	0	0.5869140625	0.422607421875	upper	../fonts/amplitud.ttf
4030.512	n/a	WORD	2015256	wordpools/wasnorm_wordpool.txt	LTP155	ltpFR	6	14	1	POWDER	1117	n/a	0	0	0.5869140625	0.422607421875	upper	../fonts/amplitud.ttf
4034.526	n/a	WORD	2017263	wordpools/wasnorm_wordpool.txt	LTP155	ltpFR	6	14	1	AFRICA	9	n/a	0	0	0.5869140625	0.422607421875	upper	../fonts/amplitud.ttf
4038.67	n/a	WORD	2019335	wordpools/wasnorm_wordpool.txt	LTP155	ltpFR	6	14	1	COIN	343	n/a	0	0	0.5869140625	0.422607421875	upper	../fonts/amplitud.ttf
4042.592	n/a	WORD	2021296	wordpools/wasnorm_wordpool.txt	LTP155	ltpFR	6	14	1	COLONEL	348	n/a	0	0	0.5869140625	0.422607421875	upper	../fonts/amplitud.ttf
4046.57	n/a	WORD	2023285	wordpools/wasnorm_wordpool.txt	LTP155	ltpFR	6	14	1	RIB	1188	n/a	0	0	0.5869140625	0.422607421875	upper	../fonts/amplitud.ttf
4050.648	n/a	WORD	2025324	wordpools/wasnorm_wordpool.txt	LTP155	ltpFR	6	14	1	YOLK	1633	n/a	0	0	0.5869140625	0.422607421875	upper	../fonts/amplitud.ttf
4054.536	n/a	WORD	2027268	wordpools/wasnorm_wordpool.txt	LTP155	ltpFR	6	14	1	NEST	945	n/a	0	0	0.5869140625	0.422607421875	upper	../fonts/amplitud.ttf
4058.688	n/a	WORD	2029344	wordpools/wasnorm_wordpool.txt	LTP155	ltpFR	6	14	1	CONCRETE	361	n/a	0	0	0.5869140625	0.422607421875	upper	../fonts/amplitud.ttf
4062.684	n/a	WORD	2031342	wordpools/wasnorm_wordpool.txt	LTP155	ltpFR	6	14	1	CORPORATION	382	n/a	0	0	0.5869140625	0.422607421875	upper	../fonts/amplitud.ttf
4066.53	n/a	WORD	2033265	wordpools/wasnorm_wordpool.txt	LTP155	ltpFR	6	14	1	ARTIST	43	n/a	1	0	0.5869140625	0.422607421875	upper	../fonts/amplitud.ttf
4070.434	n/a	WORD	2035217	wordpools/wasnorm_wordpool.txt	LTP155	ltpFR	6	14	1	CANVAS	234	n/a	0	0	0.5869140625	0.422607421875	upper	../fonts/amplitud.ttf
4074.396	n/a	WORD	2037198	wordpools/wasnorm_wordpool.txt	LTP155	ltpFR	6	14	1	COUNTRY	388	n/a	0	0	0.5869140625	0.422607421875	upper	../fonts/amplitud.ttf
4078.234	n/a	WORD	2039117	wordpools/wasnorm_wordpool.txt	LTP155	ltpFR	6	14	1	COW	393	n/a	1	0	0.5869140625	0.422607421875	upper	../fonts/amplitud.ttf
4084.226	n/a	REC_START	2042113	n/a	LTP155	ltpFR	6	14	n/a	n/a	n/a	n/a	n/a	n/a	n/a	n/a	n/a	n/a
4084.884	n/a	REC_WORD	2042442	wordpools/wasnorm_wordpool.txt	LTP155	ltpFR	6	14	1	COW	393	n/a	1	n/a	n/a	n/a	n/a	n/a
4085.688	n/a	REC_WORD	2042844	wordpools/wasnorm_wordpool.txt	LTP155	ltpFR	6	14	1	CONCRETE	361	n/a	0	n/a	n/a	n/a	n/a	n/a
4086.88	n/a	REC_WORD	2043440	wordpools/wasnorm_wordpool.txt	LTP155	ltpFR	6	14	1	COUNTRY	388	n/a	0	n/a	n/a	n/a	n/a	n/a
4088.208	n/a	REC_WORD	2044104	wordpools/wasnorm_wordpool.txt	LTP155	ltpFR	6	14	1	MONGOOSE	909	n/a	1	n/a	n/a	n/a	n/a	n/a
4089.294	n/a	REC_WORD	2044647	wordpools/wasnorm_wordpool.txt	LTP155	ltpFR	6	14	1	LIZARD	834	n/a	1	n/a	n/a	n/a	n/a	n/a
4090.636	n/a	REC_WORD	2045318	wordpools/wasnorm_wordpool.txt	LTP155	ltpFR	6	14	1	AFRICA	9	n/a	0	n/a	n/a	n/a	n/a	n/a
4092.432	n/a	REC_WORD	2046216	wordpools/wasnorm_wordpool.txt	LTP155	ltpFR	6	14	1	HAT	690	n/a	0	n/a	n/a	n/a	n/a	n/a
4104.606	n/a	REC_WORD	2052303	wordpools/wasnorm_wordpool.txt	LTP155	ltpFR	6	14	1	COLONEL	348	n/a	0	n/a	n/a	n/a	n/a	n/a
4113.476	n/a	REC_WORD	2056738	wordpools/wasnorm_wordpool.txt	LTP155	ltpFR	6	14	1	POWDER	1117	n/a	0	n/a	n/a	n/a	n/a	n/a
4389.818	n/a	WORD	2194909	wordpools/wasnorm_wordpool.txt	LTP155	ltpFR	6	15	-1	GUN	673	n/a	-1	1	1.0	1.0	upper	../fonts/Verdana.ttf
4393.722	n/a	WORD	2196861	wordpools/wasnorm_wordpool.txt	LTP155	ltpFR	6	15	-1	REINDEER	1181	n/a	-1	1	1.0	1.0	upper	../fonts/Verdana.ttf
4397.868	n/a	WORD	2198934	wordpools/wasnorm_wordpool.txt	LTP155	ltpFR	6	15	-1	CARDINAL	244	n/a	-1	1	1.0	1.0	upper	../fonts/Verdana.ttf
4401.938	n/a	WORD	2200969	wordpools/wasnorm_wordpool.txt	LTP155	ltpFR	6	15	-1	HOUSE	725	n/a	-1	1	1.0	1.0	upper	../fonts/Verdana.ttf
4405.766	n/a	WORD	2202883	wordpools/wasnorm_wordpool.txt	LTP155	ltpFR	6	15	-1	THREAD	1460	n/a	-1	1	1.0	1.0	upper	../fonts/Verdana.ttf
4409.754	n/a	WORD	2204877	wordpools/wasnorm_wordpool.txt	LTP155	ltpFR	6	15	-1	BRUNETTE	181	n/a	-1	1	1.0	1.0	upper	../fonts/Verdana.ttf
4413.898	n/a	WORD	2206949	wordpools/wasnorm_wordpool.txt	LTP155	ltpFR	6	15	-1	ROBIN	1199	n/a	-1	1	1.0	1.0	upper	../fonts/Verdana.ttf
4417.844	n/a	WORD	2208922	wordpools/wasnorm_wordpool.txt	LTP155	ltpFR	6	15	-1	DUSTPAN	509	n/a	-1	1	1.0	1.0	upper	../fonts/Verdana.ttf
4421.822	n/a	WORD	2210911	wordpools/wasnorm_wordpool.txt	LTP155	ltpFR	6	15	-1	FRECKLE	602	n/a	-1	1	1.0	1.0	upper	../fonts/Verdana.ttf
4425.726	n/a	WORD	2212863	wordpools/wasnorm_wordpool.txt	LTP155	ltpFR	6	15	-1	LIGHTER	819	n/a	-1	1	1.0	1.0	upper	../fonts/Verdana.ttf
4429.796	n/a	WORD	2214898	wordpools/wasnorm_wordpool.txt	LTP155	ltpFR	6	15	-1	PIPE	1073	n/a	-1	1	1.0	1.0	upper	../fonts/Verdana.ttf
4433.634	n/a	WORD	2216817	wordpools/wasnorm_wordpool.txt	LTP155	ltpFR	6	15	-1	OCEAN	970	n/a	-1	1	1.0	1.0	upper	../fonts/Verdana.ttf
4437.498	n/a	WORD	2218749	wordpools/wasnorm_wordpool.txt	LTP155	ltpFR	6	15	-1	CANAL	226	n/a	-1	1	1.0	1.0	upper	../fonts/Verdana.ttf
4441.692	n/a	WORD	2220846	wordpools/wasnorm_wordpool.txt	LTP155	ltpFR	6	15	-1	CAMEL	223	n/a	-1	1	1.0	1.0	upper	../fonts/Verdana.ttf
4445.778	n/a	WORD	2222889	wordpools/wasnorm_wordpool.txt	LTP155	ltpFR	6	15	-1	SPHINX	1349	n/a	-1	1	1.0	1.0	upper	../fonts/Verdana.ttf
4449.84	n/a	WORD	2224920	wordpools/wasnorm_wordpool.txt	LTP155	ltpFR	6	15	-1	SHINGLE	1285	n/a	-1	1	1.0	1.0	upper	../fonts/Verdana.ttf
4455.802	n/a	REC_START	2227901	n/a	LTP155	ltpFR	6	15	n/a	n/a	n/a	n/a	n/a	n/a	n/a	n/a	n/a	n/a
4456.2	n/a	REC_WORD	2228100	wordpools/wasnorm_wordpool.txt	LTP155	ltpFR	6	15	-1	SPHINX	1349	n/a	-1	n/a	n/a	n/a	n/a	n/a
4456.914	n/a	REC_WORD	2228457	wordpools/wasnorm_wordpool.txt	LTP155	ltpFR	6	15	-1	SHINGLE	1285	n/a	-1	n/a	n/a	n/a	n/a	n/a
4457.746	n/a	REC_WORD	2228873	wordpools/wasnorm_wordpool.txt	LTP155	ltpFR	6	15	-1	CANAL	226	n/a	-1	n/a	n/a	n/a	n/a	n/a
4461.768	n/a	REC_WORD	2230884	wordpools/wasnorm_wordpool.txt	LTP155	ltpFR	6	15	-1	CAMEL	223	n/a	-1	n/a	n/a	n/a	n/a	n/a
4464.706	n/a	REC_WORD_VV	2232353	wordpools/wasnorm_wordpool.txt	LTP155	ltpFR	6	15	n/a	<>	-1	n/a	n/a	n/a	n/a	n/a	n/a	n/a
4466.038	n/a	REC_WORD	2233019	wordpools/wasnorm_wordpool.txt	LTP155	ltpFR	6	15	-1	CARDINAL	244	n/a	-1	n/a	n/a	n/a	n/a	n/a
4469.216	n/a	REC_WORD	2234608	wordpools/wasnorm_wordpool.txt	LTP155	ltpFR	6	15	-1	GUN	673	n/a	-1	n/a	n/a	n/a	n/a	n/a
4470.226	n/a	REC_WORD	2235113	wordpools/wasnorm_wordpool.txt	LTP155	ltpFR	6	15	-1	REINDEER	1181	n/a	-1	n/a	n/a	n/a	n/a	n/a
4472.652	n/a	REC_WORD	2236326	wordpools/wasnorm_wordpool.txt	LTP155	ltpFR	6	15	-1	ROBIN	1199	n/a	-1	n/a	n/a	n/a	n/a	n/a
4475.252	n/a	REC_WORD	2237626	wordpools/wasnorm_wordpool.txt	LTP155	ltpFR	6	15	-1	HOUSE	725	n/a	-1	n/a	n/a	n/a	n/a	n/a
4478.12	n/a	REC_WORD	2239060	wordpools/wasnorm_wordpool.txt	LTP155	ltpFR	6	15	-1	THREAD	1460	n/a	-1	n/a	n/a	n/a	n/a	n/a
4592.178	n/a	WORD	2296089	wordpools/wasnorm_wordpool.txt	LTP155	ltpFR	6	16	1	GODDESS	646	n/a	1	0	0.5869140625	0.422607421875	upper	../fonts/amplitud.ttf
4596.1	n/a	WORD	2298050	wordpools/wasnorm_wordpool.txt	LTP155	ltpFR	6	16	1	WHISTLE	1606	n/a	0	0	0.5869140625	0.422607421875	upper	../fonts/amplitud.ttf
4600.194	n/a	WORD	2300097	wordpools/wasnorm_wordpool.txt	LTP155	ltpFR	6	16	1	RULER	1216	n/a	0	0	0.5869140625	0.422607421875	upper	../fonts/amplitud.ttf
4604.066	n/a	WORD	2302033	wordpools/wasnorm_wordpool.txt	LTP155	ltpFR	6	16	1	BURGLAR	200	n/a	1	0	0.5869140625	0.422607421875	upper	../fonts/amplitud.ttf
4607.926	n/a	WORD	2303963	wordpools/wasnorm_wordpool.txt	LTP155	ltpFR	6	16	1	AIRCRAFT	11	n/a	0	0	0.5869140625	0.422607421875	upper	../fonts/amplitud.ttf
4611.756	n/a	WORD	2305878	wordpools/wasnorm_wordpool.txt	LTP155	ltpFR	6	16	1	STALLION	1369	n/a	1	0	0.5869140625	0.422607421875	upper	../fonts/amplitud.ttf
4615.792	n/a	WORD	2307896	wordpools/wasnorm_wordpool.txt	LTP155	ltpFR	6	16	1	DONKEY	484	n/a	1	0	0.5869140625	0.422607421875	upper	../fonts/amplitud.ttf
4619.746	n/a	WORD	2309873	wordpools/wasnorm_wordpool.txt	LTP155	ltpFR	6	16	1	SPARROW	1347	n/a	1	0	0.5869140625	0.422607421875	upper	../fonts/amplitud.ttf
4623.742	n/a	WORD	2311871	wordpools/wasnorm_wordpool.txt	LTP155	ltpFR	6	16	1	OAR	966	n/a	0	0	0.5869140625	0.422607421875	upper	../fonts/amplitud.ttf
4627.646	n/a	WORD	2313823	wordpools/wasnorm_wordpool.txt	LTP155	ltpFR	6	16	1	VESSEL	1558	n/a	0	0	0.5869140625	0.422607421875	upper	../fonts/amplitud.ttf
4631.526	n/a	WORD	2315763	wordpools/wasnorm_wordpool.txt	LTP155	ltpFR	6	16	1	QUEEN	1149	n/a	1	0	0.5869140625	0.422607421875	upper	../fonts/amplitud.ttf
4635.612	n/a	WORD	2317806	wordpools/wasnorm_wordpool.txt	LTP155	ltpFR	6	16	1	GANGSTER	620	n/a	1	0	0.5869140625	0.422607421875	upper	../fonts/amplitud.ttf
4639.69	n/a	WORD	2319845	wordpools/wasnorm_wordpool.txt	LTP155	ltpFR	6	16	1	ELECTRICIAN	521	n/a	1	0	0.5869140625	0.422607421875	upper	../fonts/amplitud.ttf
4643.628	n/a	WORD	2321814	wordpools/wasnorm_wordpool.txt	LTP155	ltpFR	6	16	1	CASH	252	n/a	0	0	0.5869140625	0.422607421875	upper	../fonts/amplitud.ttf
4647.706	n/a	WORD	2323853	wordpools/wasnorm_wordpool.txt	LTP155	ltpFR	6	16	1	PIGEON	1065	n/a	n/a	0	0.5869140625	0.422607421875	upper	../fonts/amplitud.ttf
4650.728	n/a	SLOW_MSG	2325364	n/a	LTP155	ltpFR	6	16	n/a	n/a	n/a	n/a	n/a	n/a	n/a	n/a	n/a	n/a
4653.342	n/a	WORD	2326671	wordpools/wasnorm_wordpool.txt	LTP155	ltpFR	6	16	1	DRILL	497	n/a	0	0	0.5869140625	0.422607421875	upper	../fonts/amplitud.ttf
4659.21	n/a	REC_START	2329605	n/a	LTP155	ltpFR	6	16	n/a	n/a	n/a	n/a	n/a	n/a	n/a	n/a	n/a	n/a
4660.268	n/a	REC_WORD	2330134	wordpools/wasnorm_wordpool.txt	LTP155	ltpFR	6	16	1	GODDESS	646	n/a	1	n/a	n/a	n/a	n/a	n/a
4662.768	n/a	REC_WORD	2331384	wordpools/wasnorm_wordpool.txt	LTP155	ltpFR	6	16	1	DRILL	497	n/a	0	n/a	n/a	n/a	n/a	n/a
4668.95	n/a	REC_WORD	2334475	wordpools/wasnorm_wordpool.txt	LTP155	ltpFR	6	16	1	WHISTLE	1606	n/a	0	n/a	n/a	n/a	n/a	n/a
4671.204	n/a	REC_WORD	2335602	wordpools/wasnorm_wordpool.txt	LTP155	ltpFR	6	16	1	STALLION	1369	n/a	1	n/a	n/a	n/a	n/a	n/a
4673.922	n/a	REC_WORD_VV	2336961	wordpools/wasnorm_wordpool.txt	LTP155	ltpFR	6	16	n/a	<>	-1	n/a	n/a	n/a	n/a	n/a	n/a	n/a
4674.97	n/a	REC_WORD	2337485	wordpools/wasnorm_wordpool.txt	LTP155	ltpFR	6	16	1	ELECTRICIAN	521	n/a	1	n/a	n/a	n/a	n/a	n/a
4676.562	n/a	REC_WORD	2338281	wordpools/wasnorm_wordpool.txt	LTP155	ltpFR	6	16	1	QUEEN	1149	n/a	1	n/a	n/a	n/a	n/a	n/a
4683.356	n/a	REC_WORD	2341678	wordpools/wasnorm_wordpool.txt	LTP155	ltpFR	6	16	1	SPARROW	1347	n/a	1	n/a	n/a	n/a	n/a	n/a
4705.446	n/a	REC_WORD	2352723	wordpools/wasnorm_wordpool.txt	LTP155	ltpFR	6	16	1	DONKEY	484	n/a	1	n/a	n/a	n/a	n/a	n/a
4718.96	n/a	REC_WORD_VV	2359480	wordpools/wasnorm_wordpool.txt	LTP155	ltpFR	6	16	n/a	<>	-1	n/a	n/a	n/a	n/a	n/a	n/a	n/a
4829.508	n/a	REC_START	2414754	n/a	LTP155	ltpFR	6	n/a	n/a	n/a	n/a	n/a	n/a	n/a	n/a	n/a	n/a	n/a
4830.492	n/a	FFR_REC_WORD	2415246	wordpools/wasnorm_wordpool.txt	LTP155	ltpFR	6	n/a	1	DONKEY	484	n/a	1	n/a	n/a	n/a	n/a	n/a
4831.752	n/a	FFR_REC_WORD	2415876	wordpools/wasnorm_wordpool.txt	LTP155	ltpFR	6	n/a	1	QUEEN	1149	n/a	1	n/a	n/a	n/a	n/a	n/a
4834.232	n/a	FFR_REC_WORD	2417116	wordpools/wasnorm_wordpool.txt	LTP155	ltpFR	6	n/a	1	GODDESS	646	n/a	1	n/a	n/a	n/a	n/a	n/a
4835.336	n/a	FFR_REC_WORD	2417668	wordpools/wasnorm_wordpool.txt	LTP155	ltpFR	6	n/a	1	WHISTLE	1606	n/a	0	n/a	n/a	n/a	n/a	n/a
4837.27	n/a	FFR_REC_WORD	2418635	wordpools/wasnorm_wordpool.txt	LTP155	ltpFR	6	n/a	1	ARMY	39	n/a	1	n/a	n/a	n/a	n/a	n/a
4838.154	n/a	FFR_REC_WORD	2419077	wordpools/wasnorm_wordpool.txt	LTP155	ltpFR	6	n/a	1	COMMANDER	354	n/a	1	n/a	n/a	n/a	n/a	n/a
4842.318	n/a	FFR_REC_WORD	2421159	wordpools/wasnorm_wordpool.txt	LTP155	ltpFR	6	n/a	1	STALLION	1369	n/a	1	n/a	n/a	n/a	n/a	n/a
4844.076	n/a	FFR_REC_WORD	2422038	wordpools/wasnorm_wordpool.txt	LTP155	ltpFR	6	n/a	0	OTTER	986	n/a	1	n/a	n/a	n/a	n/a	n/a
4845.382	n/a	FFR_REC_WORD	2422691	wordpools/wasnorm_wordpool.txt	LTP155	ltpFR	6	n/a	0	MONKEY	911	n/a	1	n/a	n/a	n/a	n/a	n/a
4846.63	n/a	FFR_REC_WORD	2423315	wordpools/wasnorm_wordpool.txt	LTP155	ltpFR	6	n/a	0	PRIMATE	1123	n/a	1	n/a	n/a	n/a	n/a	n/a
4848.738	n/a	FFR_REC_WORD	2424369	wordpools/wasnorm_wordpool.txt	LTP155	ltpFR	6	n/a	1	SPARROW	1347	n/a	1	n/a	n/a	n/a	n/a	n/a
4853.13	n/a	FFR_REC_WORD	2426565	wordpools/wasnorm_wordpool.txt	LTP155	ltpFR	6	n/a	-1	ROBIN	1199	n/a	-1	n/a	n/a	n/a	n/a	n/a
4854.402	n/a	FFR_REC_WORD	2427201	wordpools/wasnorm_wordpool.txt	LTP155	ltpFR	6	n/a	1	PIGEON	1065	n/a	n/a	n/a	n/a	n/a	n/a	n/a
4860.552	n/a	FFR_REC_WORD	2430276	wordpools/wasnorm_wordpool.txt	LTP155	ltpFR	6	n/a	1	RUNNER	1218	n/a	1	n/a	n/a	n/a	n/a	n/a
4863.156	n/a	FFR_REC_WORD	2431578	wordpools/wasnorm_wordpool.txt	LTP155	ltpFR	6	n/a	0	TEENAGER	1444	n/a	1	n/a	n/a	n/a	n/a	n/a
4864.698	n/a	FFR_REC_WORD	2432349	wordpools/wasnorm_wordpool.txt	LTP155	ltpFR	6	n/a	1	JUVENILE	767	n/a	1	n/a	n/a	n/a	n/a	n/a
4866.878	n/a	FFR_REC_WORD	2433439	wordpools/wasnorm_wordpool.txt	LTP155	ltpFR	6	n/a	1	SUPERVISOR	1410	n/a	0	n/a	n/a	n/a	n/a	n/a
4867.878	n/a	FFR_REC_WORD_VV	2433939	wordpools/wasnorm_wordpool.txt	LTP155	ltpFR	6	n/a	n/a	<>	-1	n/a	n/a	n/a	n/a	n/a	n/a	n/a
4875.408	n/a	FFR_REC_WORD	2437704	wordpools/wasnorm_wordpool.txt	LTP155	ltpFR	6	n/a	1	PAD	998	n/a	0	n/a	n/a	n/a	n/a	n/a
4877.684	n/a	FFR_REC_WORD	2438842	wordpools/wasnorm_wordpool.txt	LTP155	ltpFR	6	n/a	n/a	STAPLE	1371	n/a	n/a	n/a	n/a	n/a	n/a	n/a
4880.444	n/a	FFR_REC_WORD	2440222	wordpools/wasnorm_wordpool.txt	LTP155	ltpFR	6	n/a	-1	RAFT	1159	n/a	-1	n/a	n/a	n/a	n/a	n/a
4882.05	n/a	FFR_REC_WORD	2441025	wordpools/wasnorm_wordpool.txt	LTP155	ltpFR	6	n/a	-1	PALM	1007	n/a	-1	n/a	n/a	n/a	n/a	n/a
4883.322	n/a	FFR_REC_WORD	2441661	wordpools/wasnorm_wordpool.txt	LTP155	ltpFR	6	n/a	-1	WHALE	1601	n/a	-1	n/a	n/a	n/a	n/a	n/a
4884.634	n/a	FFR_REC_WORD	2442317	wordpools/wasnorm_wordpool.txt	LTP155	ltpFR	6	n/a	-1	CABBAGE	210	n/a	-1	n/a	n/a	n/a	n/a	n/a
4890.586	n/a	FFR_REC_WORD	2445293	wordpools/wasnorm_wordpool.txt	LTP155	ltpFR	6	n/a	-1	SKULL	1320	n/a	-1	n/a	n/a	n/a	n/a	n/a
4894.238	n/a	FFR_REC_WORD	2447119	wordpools/wasnorm_wordpool.txt	LTP155	ltpFR	6	n/a	-1	CEREAL	272	n/a	-1	n/a	n/a	n/a	n/a	n/a
4900.782	n/a	FFR_REC_WORD	2450391	wordpools/wasnorm_wordpool.txt	LTP155	ltpFR	6	n/a	-1	RACCOON	1153	n/a	-1	n/a	n/a	n/a	n/a	n/a
4903.75	n/a	FFR_REC_WORD	2451875	wordpools/wasnorm_wordpool.txt	LTP155	ltpFR	6	n/a	-1	TUNA	1518	n/a	-1	n/a	n/a	n/a	n/a	n/a
4905.386	n/a	FFR_REC_WORD	2452693	wordpools/wasnorm_wordpool.txt	LTP155	ltpFR	6	n/a	-1	PUMP	1141	n/a	-1	n/a	n/a	n/a	n/a	n/a
4905.996	n/a	FFR_REC_WORD	2452998	wordpools/wasnorm_wordpool.txt	LTP155	ltpFR	6	n/a	-1	NITROGEN	954	n/a	-1	n/a	n/a	n/a	n/a	n/a
4920.028	n/a	FFR_REC_WORD	2460014	wordpools/wasnorm_wordpool.txt	LTP155	ltpFR	6	n/a	-1	PLANET	1082	n/a	-1	n/a	n/a	n/a	n/a	n/a
4925.84	n/a	FFR_REC_WORD	2462920	wordpools/wasnorm_wordpool.txt	LTP155	ltpFR	6	n/a	1	BRUISE	180	n/a	0	n/a	n/a	n/a	n/a	n/a
4928.234	n/a	FFR_REC_WORD	2464117	wordpools/wasnorm_wordpool.txt	LTP155	ltpFR	6	n/a	1	PENGUIN	1044	n/a	1	n/a	n/a	n/a	n/a	n/a
4929.646	n/a	FFR_REC_WORD	2464823	wordpools/wasnorm_wordpool.txt	LTP155	ltpFR	6	n/a	1	DOCUMENT	479	n/a	0	n/a	n/a	n/a	n/a	n/a
4932.43	n/a	FFR_REC_WORD	2466215	wordpools/wasnorm_wordpool.txt	LTP155	ltpFR	6	n/a	1	POLITICIAN	1099	n/a	1	n/a	n/a	n/a	n/a	n/a
4933.842	n/a	FFR_REC_WORD	2466921	wordpools/wasnorm_wordpool.txt	LTP155	ltpFR	6	n/a	1	SENATE	1267	n/a	1	n/a	n/a	n/a	n/a	n/a
4935.05	n/a	FFR_REC_WORD	2467525	wordpools/wasnorm_wordpool.txt	LTP155	ltpFR	6	n/a	1	SALESMAN	1225	n/a	1	n/a	n/a	n/a	n/a	n/a
4936.522	n/a	FFR_REC_WORD	2468261	wordpools/wasnorm_wordpool.txt	LTP155	ltpFR	6	n/a	1	BLUEBERRY	140	n/a	1	n/a	n/a	n/a	n/a	n/a
4942.184	n/a	FFR_REC_WORD	2471092	wordpools/wasnorm_wordpool.txt	LTP155	ltpFR	6	n/a	1	PAD	998	n/a	0	n/a	n/a	n/a	n/a	n/a
4945.222	n/a	FFR_REC_WORD	2472611	wordpools/wasnorm_wordpool.txt	LTP155	ltpFR	6	n/a	n/a	PADDING	999	n/a	n/a	n/a	n/a	n/a	n/a	n/a
4952.222	n/a	FFR_REC_WORD	2476111	wordpools/wasnorm_wordpool.txt	LTP155	ltpFR	6	n/a	1	OAR	966	n/a	0	n/a	n/a	n/a	n/a	n/a
4964.808	n/a	FFR_REC_WORD	2482404	wordpools/wasnorm_wordpool.txt	LTP155	ltpFR	6	n/a	-1	OPERA	978	n/a	-1	n/a	n/a	n/a	n/a	n/a
4966.08	n/a	FFR_REC_WORD	2483040	wordpools/wasnorm_wordpool.txt	LTP155	ltpFR	6	n/a	-1	BELT	120	n/a	-1	n/a	n/a	n/a	n/a	n/a
4990.674	n/a	FFR_REC_WORD	2495337	wordpools/wasnorm_wordpool.txt	LTP155	ltpFR	6	n/a	-1	RESTAURANT	1187	n/a	-1	n/a	n/a	n/a	n/a	n/a
4992.106	n/a	FFR_REC_WORD	2496053	wordpools/wasnorm_wordpool.txt	LTP155	ltpFR	6	n/a	-1	VINEGAR	1569	n/a	-1	n/a	n/a	n/a	n/a	n/a
5003.056	n/a	FFR_REC_WORD	2501528	wordpools/wasnorm_wordpool.txt	LTP155	ltpFR	6	n/a	1	LIP	828	n/a	0	n/a	n/a	n/a	n/a	n/a
5004.088	n/a	FFR_REC_WORD	2502044	wordpools/wasnorm_wordpool.txt	LTP155	ltpFR	6	n/a	0	CORAL	378	n/a	1	n/a	n/a	n/a	n/a	n/a
5006.628	n/a	FFR_REC_WORD	2503314	wordpools/wasnorm_wordpool.txt	LTP155	ltpFR	6	n/a	0	LIPSTICK	829	n/a	0	n/a	n/a	n/a	n/a	n/a
5008.798	n/a	FFR_REC_WORD	2504399	wordpools/wasnorm_wordpool.txt	LTP155	ltpFR	6	n/a	0	SHIRT	1287	n/a	1	n/a	n/a	n/a	n/a	n/a
5011.916	n/a	FFR_REC_WORD	2505958	wordpools/wasnorm_wordpool.txt	LTP155	ltpFR	6	n/a	0	DRIVER	499	n/a	0	n/a	n/a	n/a	n/a	n/a
5023.944	n/a	FFR_REC_WORD	2511972	wordpools/wasnorm_wordpool.txt	LTP155	ltpFR	6	n/a	-1	JAM	748	n/a	-1	n/a	n/a	n/a	n/a	n/a
5032.436	n/a	FFR_REC_WORD	2516218	wordpools/wasnorm_wordpool.txt	LTP155	ltpFR	6	n/a	0	BOX	159	n/a	1	n/a	n/a	n/a	n/a	n/a
5035.514	n/a	FFR_REC_WORD	2517757	wordpools/wasnorm_wordpool.txt	LTP155	ltpFR	6	n/a	1	LIZARD	834	n/a	1	n/a	n/a	n/a	n/a	n/a
5039.32	n/a	FFR_REC_WORD	2519660	wordpools/wasnorm_wordpool.txt	LTP155	ltpFR	6	n/a	1	MONGOOSE	909	n/a	1	n/a	n/a	n/a	n/a	n/a
5041.07	n/a	FFR_REC_WORD	2520535	wordpools/wasnorm_wordpool.txt	LTP155	ltpFR	6	n/a	1	AFRICA	9	n/a	0	n/a	n/a	n/a	n/a	n/a
5043.978	n/a	FFR_REC_WORD	2521989	wordpools/wasnorm_wordpool.txt	LTP155	ltpFR	6	n/a	1	POWDER	1117	n/a	0	n/a	n/a	n/a	n/a	n/a
5045.77	n/a	FFR_REC_WORD	2522885	wordpools/wasnorm_wordpool.txt	LTP155	ltpFR	6	n/a	1	CONCRETE	361	n/a	0	n/a	n/a	n/a	n/a	n/a
5104.168	n/a	FFR_REC_WORD	2552084	wordpools/wasnorm_wordpool.txt	LTP155	ltpFR	6	n/a	-1	AUTOMOBILE	62	n/a	-1	n/a	n/a	n/a	n/a	n/a
5105.544	n/a	FFR_REC_WORD	2552772	wordpools/wasnorm_wordpool.txt	LTP155	ltpFR	6	n/a	-1	CUCUMBER	421	n/a	-1	n/a	n/a	n/a	n/a	n/a
5106.488	n/a	FFR_REC_WORD	2553244	wordpools/wasnorm_wordpool.txt	LTP155	ltpFR	6	n/a	-1	OLIVE	975	n/a	-1	n/a	n/a	n/a	n/a	n/a
5126.906	n/a	FFR_REC_WORD	2563453	wordpools/wasnorm_wordpool.txt	LTP155	ltpFR	6	n/a	1	COMMANDER	354	n/a	1	n/a	n/a	n/a	n/a	n/a
5127.79	n/a	FFR_REC_WORD	2563895	wordpools/wasnorm_wordpool.txt	LTP155	ltpFR	6	n/a	1	ARMY	39	n/a	1	n/a	n/a	n/a	n/a	n/a
5360.016	n/a	REC_START	2680008	n/a	LTP155	ltpFR	6	1	n/a	n/a	n/a	n/a	n/a	n/a	n/a	n/a	n/a	n/a
5360.05	n/a	RECOG_TARGET	2680025	n/a	LTP155	ltpFR	6	1	0	NOVEL	960	3	0	n/a	n/a	n/a	n/a	n/a
5361.824	n/a	RECOG_RESP	2680912	n/a	LTP155	ltpFR	6	1	0	NOVEL	960	n/a	0	n/a	n/a	n/a	n/a	n/a
5363.014	n/a	RECOG_CONF	2681507	n/a	LTP155	ltpFR	6	1	0	NOVEL	960	3	0	n/a	n/a	n/a	n/a	n/a
5365.034	n/a	RECOG_TARGET	2682517	n/a	LTP155	ltpFR	6	1	-1	CEREAL	272	4	-1	n/a	n/a	n/a	n/a	n/a
5365.732	n/a	RECOG_RESP	2682866	n/a	LTP155	ltpFR	6	1	-1	CEREAL	272	n/a	-1	n/a	n/a	n/a	n/a	n/a
5366.578	n/a	RECOG_CONF	2683289	n/a	LTP155	ltpFR	6	1	-1	CEREAL	272	4	-1	n/a	n/a	n/a	n/a	n/a
5368.19	n/a	RECOG_TARGET	2684095	n/a	LTP155	ltpFR	6	1	-1	BRIDGE	174	1	-1	n/a	n/a	n/a	n/a	n/a
5370.098	n/a	RECOG_RESP	2685049	n/a	LTP155	ltpFR	6	1	-1	BRIDGE	174	n/a	-1	n/a	n/a	n/a	n/a	n/a
5370.9	n/a	RECOG_CONF	2685450	n/a	LTP155	ltpFR	6	1	-1	BRIDGE	174	1	-1	n/a	n/a	n/a	n/a	n/a
5372.536	n/a	RECOG_LURE	2686268	n/a	LTP155	ltpFR	6	1	n/a	BUTTON	207	2	n/a	n/a	n/a	n/a	n/a	n/a
5373.388	n/a	RECOG_RESP	2686694	n/a	LTP155	ltpFR	6	1	n/a	BUTTON	207	n/a	n/a	n/a	n/a	n/a	n/a	n/a
5374.39	n/a	RECOG_CONF	2687195	n/a	LTP155	ltpFR	6	1	n/a	BUTTON	207	2	n/a	n/a	n/a	n/a	n/a	n/a
5375.998	n/a	RECOG_TARGET	2687999	n/a	LTP155	ltpFR	6	1	-1	BRUSH	182	4	-1	n/a	n/a	n/a	n/a	n/a
5376.868	n/a	RECOG_RESP_VV	2688434	n/a	LTP155	ltpFR	6	1	-1	BRUSH	182	n/a	-1	n/a	n/a	n/a	n/a	n/a
5377.944	n/a	RECOG_RESP	2688972	n/a	LTP155	ltpFR	6	1	-1	BRUSH	182	n/a	-1	n/a	n/a	n/a	n/a	n/a
5378.71	n/a	RECOG_CONF	2689355	n/a	LTP155	ltpFR	6	1	-1	BRUSH	182	4	-1	n/a	n/a	n/a	n/a	n/a
5380.102	n/a	RECOG_TARGET	2690051	n/a	LTP155	ltpFR	6	1	1	CASH	252	3	0	n/a	n/a	n/a	n/a	n/a
5381.022	n/a	RECOG_RESP	2690511	n/a	LTP155	ltpFR	6	1	1	CASH	252	n/a	0	n/a	n/a	n/a	n/a	n/a
5381.702	n/a	RECOG_CONF	2690851	n/a	LTP155	ltpFR	6	1	1	CASH	252	3	0	n/a	n/a	n/a	n/a	n/a
5383.316	n/a	RECOG_TARGET	2691658	n/a	LTP155	ltpFR	6	1	1	TERMITE	1451	4	1	n/a	n/a	n/a	n/a	n/a
5384.142	n/a	RECOG_RESP	2692071	n/a	LTP155	ltpFR	6	1	1	TERMITE	1451	n/a	1	n/a	n/a	n/a	n/a	n/a
5384.874	n/a	RECOG_CONF	2692437	n/a	LTP155	ltpFR	6	1	1	TERMITE	1451	4	1	n/a	n/a	n/a	n/a	n/a
5386.512	n/a	RECOG_TARGET	2693256	n/a	LTP155	ltpFR	6	1	1	HAYSTACK	694	5	0	n/a	n/a	n/a	n/a	n/a
5387.154	n/a	RECOG_RESP	2693577	n/a	LTP155	ltpFR	6	1	1	HAYSTACK	694	n/a	0	n/a	n/a	n/a	n/a	n/a
5387.888	n/a	RECOG_CONF	2693944	n/a	LTP155	ltpFR	6	1	1	HAYSTACK	694	5	0	n/a	n/a	n/a	n/a	n/a
5389.566	n/a	RECOG_TARGET	2694783	n/a	LTP155	ltpFR	6	1	1	LIZARD	834	5	1	n/a	n/a	n/a	n/a	n/a
5390.294	n/a	RECOG_RESP	2695147	n/a	LTP155	ltpFR	6	1	1	LIZARD	834	n/a	1	n/a	n/a	n/a	n/a	n/a
5390.882	n/a	RECOG_CONF	2695441	n/a	LTP155	ltpFR	6	1	1	LIZARD	834	5	1	n/a	n/a	n/a	n/a	n/a
5392.662	n/a	RECOG_LURE	2696331	n/a	LTP155	ltpFR	6	1	n/a	ORANGE	980	3	n/a	n/a	n/a	n/a	n/a	n/a
5393.442	n/a	RECOG_RESP	2696721	n/a	LTP155	ltpFR	6	1	n/a	ORANGE	980	n/a	n/a	n/a	n/a	n/a	n/a	n/a
5394.138	n/a	RECOG_CONF	2697069	n/a	LTP155	ltpFR	6	1	n/a	ORANGE	980	3	n/a	n/a	n/a	n/a	n/a	n/a
5395.726	n/a	RECOG_TARGET	2697863	n/a	LTP155	ltpFR	6	1	1	COFFIN	342	3	0	n/a	n/a	n/a	n/a	n/a
5396.338	n/a	RECOG_RESP	2698169	n/a	LTP155	ltpFR	6	1	1	COFFIN	342	n/a	0	n/a	n/a	n/a	n/a	n/a
5397.052	n/a	RECOG_CONF	2698526	n/a	LTP155	ltpFR	6	1	1	COFFIN	342	3	0	n/a	n/a	n/a	n/a	n/a
5398.564	n/a	RECOG_TARGET	2699282	n/a	LTP155	ltpFR	6	1	0	TROUT	1511	4	0	n/a	n/a	n/a	n/a	n/a
5399.14	n/a	RECOG_RESP	2699570	n/a	LTP155	ltpFR	6	1	0	TROUT	1511	n/a	0	n/a	n/a	n/a	n/a	n/a
5399.68	n/a	RECOG_CONF	2699840	n/a	LTP155	ltpFR	6	1	0	TROUT	1511	4	0	n/a	n/a	n/a	n/a	n/a
5401.236	n/a	RECOG_TARGET	2700618	n/a	LTP155	ltpFR	6	1	1	PAD	998	5	0	n/a	n/a	n/a	n/a	n/a
5401.782	n/a	RECOG_RESP	2700891	n/a	LTP155	ltpFR	6	1	1	PAD	998	n/a	0	n/a	n/a	n/a	n/a	n/a
5402.456	n/a	RECOG_CONF	2701228	n/a	LTP155	ltpFR	6	1	1	PAD	998	5	0	n/a	n/a	n/a	n/a	n/a
5404.066	n/a	RECOG_TARGET	2702033	n/a	LTP155	ltpFR	6	1	-1	NITROGEN	954	5	-1	n/a	n/a	n/a	n/a	n/a
5404.58	n/a	RECOG_RESP	2702290	n/a	LTP155	ltpFR	6	1	-1	NITROGEN	954	n/a	-1	n/a	n/a	n/a	n/a	n/a
5405.31	n/a	RECOG_CONF	2702655	n/a	LTP155	ltpFR	6	1	-1	NITROGEN	954	5	-1	n/a	n/a	n/a	n/a	n/a
5406.78	n/a	RECOG_TARGET	2703390	n/a	LTP155	ltpFR	6	1	1	FILM	565	5	0	n/a	n/a	n/a	n/a	n/a
5407.14	n/a	RECOG_RESP	2703570	n/a	LTP155	ltpFR	6	1	1	FILM	565	n/a	0	n/a	n/a	n/a	n/a	n/a
5407.846	n/a	RECOG_CONF	2703923	n/a	LTP155	ltpFR	6	1	1	FILM	565	5	0	n/a	n/a	n/a	n/a	n/a
5409.494	n/a	RECOG_TARGET	2704747	n/a	LTP155	ltpFR	6	1	0	SHARK	1275	5	1	n/a	n/a	n/a	n/a	n/a
5410.138	n/a	RECOG_RESP	2705069	n/a	LTP155	ltpFR	6	1	0	SHARK	1275	n/a	1	n/a	n/a	n/a	n/a	n/a
5410.7	n/a	RECOG_CONF	2705350	n/a	LTP155	ltpFR	6	1	0	SHARK	1275	5	1	n/a	n/a	n/a	n/a	n/a
5412.316	n/a	RECOG_LURE	2706158	n/a	LTP155	ltpFR	6	1	n/a	SOCIETY	1338	2	n/a	n/a	n/a	n/a	n/a	n/a
5413.164	n/a	RECOG_RESP	2706582	n/a	LTP155	ltpFR	6	1	n/a	SOCIETY	1338	n/a	n/a	n/a	n/a	n/a	n/a	n/a
5413.944	n/a	RECOG_CONF	2706972	n/a	LTP155	ltpFR	6	1	n/a	SOCIETY	1338	2	n/a	n/a	n/a	n/a	n/a	n/a
5415.546	n/a	RECOG_TARGET	2707773	n/a	LTP155	ltpFR	6	1	0	SALOON	1228	5	1	n/a	n/a	n/a	n/a	n/a
5416.288	n/a	RECOG_RESP	2708144	n/a	LTP155	ltpFR	6	1	0	SALOON	1228	n/a	1	n/a	n/a	n/a	n/a	n/a
5417.022	n/a	RECOG_CONF	2708511	n/a	LTP155	ltpFR	6	1	0	SALOON	1228	5	1	n/a	n/a	n/a	n/a	n/a
5418.55	n/a	RECOG_TARGET	2709275	n/a	LTP155	ltpFR	6	1	1	SAPPHIRE	1234	2	0	n/a	n/a	n/a	n/a	n/a
5419.462	n/a	RECOG_RESP	2709731	n/a	LTP155	ltpFR	6	1	1	SAPPHIRE	1234	n/a	0	n/a	n/a	n/a	n/a	n/a
5420.13	n/a	RECOG_CONF	2710065	n/a	LTP155	ltpFR	6	1	1	SAPPHIRE	1234	2	0	n/a	n/a	n/a	n/a	n/a
5421.638	n/a	RECOG_TARGET	2710819	n/a	LTP155	ltpFR	6	1	1	WHIP	1604	1	0	n/a	n/a	n/a	n/a	n/a
5422.484	n/a	RECOG_RESP	2711242	n/a	LTP155	ltpFR	6	1	1	WHIP	1604	n/a	0	n/a	n/a	n/a	n/a	n/a
5423.208	n/a	RECOG_CONF	2711604	n/a	LTP155	ltpFR	6	1	1	WHIP	1604	1	0	n/a	n/a	n/a	n/a	n/a
5426.842	n/a	REC_START	2713421	n/a	LTP155	ltpFR	6	2	n/a	n/a	n/a	n/a	n/a	n/a	n/a	n/a	n/a	n/a
5426.872	n/a	RECOG_TARGET	2713436	n/a	LTP155	ltpFR	6	2	1	CHEST	295	2	0	n/a	n/a	n/a	n/a	n/a
5427.69	n/a	RECOG_RESP	2713845	n/a	LTP155	ltpFR	6	2	1	CHEST	295	n/a	0	n/a	n/a	n/a	n/a	n/a
5428.506	n/a	RECOG_CONF	2714253	n/a	LTP155	ltpFR	6	2	1	CHEST	295	2	0	n/a	n/a	n/a	n/a	n/a
5429.944	n/a	RECOG_TARGET	2714972	n/a	LTP155	ltpFR	6	2	-1	VINEGAR	1569	4	-1	n/a	n/a	n/a	n/a	n/a
5430.524	n/a	RECOG_RESP	2715262	n/a	LTP155	ltpFR	6	2	-1	VINEGAR	1569	n/a	-1	n/a	n/a	n/a	n/a	n/a
5431.208	n/a	RECOG_CONF	2715604	n/a	LTP155	ltpFR	6	2	-1	VINEGAR	1569	4	-1	n/a	n/a	n/a	n/a	n/a
5432.924	n/a	RECOG_TARGET	2716462	n/a	LTP155	ltpFR	6	2	0	COLLAR	345	4	0	n/a	n/a	n/a	n/a	n/a
5433.596	n/a	RECOG_RESP	2716798	n/a	LTP155	ltpFR	6	2	0	COLLAR	345	n/a	0	n/a	n/a	n/a	n/a	n/a
5434.212	n/a	RECOG_CONF	2717106	n/a	LTP155	ltpFR	6	2	0	COLLAR	345	4	0	n/a	n/a	n/a	n/a	n/a
5436.004	n/a	RECOG_TARGET	2718002	n/a	LTP155	ltpFR	6	2	1	COW	393	5	1	n/a	n/a	n/a	n/a	n/a
5436.486	n/a	RECOG_RESP	2718243	n/a	LTP155	ltpFR	6	2	1	COW	393	n/a	1	n/a	n/a	n/a	n/a	n/a
5437.07	n/a	RECOG_CONF	2718535	n/a	LTP155	ltpFR	6	2	1	COW	393	5	1	n/a	n/a	n/a	n/a	n/a
5438.826	n/a	RECOG_TARGET	2719413	n/a	LTP155	ltpFR	6	2	1	TOWER	1490	2	3	n/a	n/a	n/a	n/a	n/a
5439.718	n/a	RECOG_RESP	2719859	n/a	LTP155	ltpFR	6	2	1	TOWER	1490	n/a	3	n/a	n/a	n/a	n/a	n/a
5440.288	n/a	RECOG_CONF	2720144	n/a	LTP155	ltpFR	6	2	1	TOWER	1490	2	3	n/a	n/a	n/a	n/a	n/a
5441.89	n/a	RECOG_TARGET	2720945	n/a	LTP155	ltpFR	6	2	-1	COB	334	3	-1	n/a	n/a	n/a	n/a	n/a
5442.63	n/a	RECOG_RESP	2721315	n/a	LTP155	ltpFR	6	2	-1	COB	334	n/a	-1	n/a	n/a	n/a	n/a	n/a
5443.6	n/a	RECOG_CONF	2721800	n/a	LTP155	ltpFR	6	2	-1	COB	334	3	-1	n/a	n/a	n/a	n/a	n/a
5445.154	n/a	RECOG_LURE	2722577	n/a	LTP155	ltpFR	6	2	n/a	PIZZA	1079	2	n/a	n/a	n/a	n/a	n/a	n/a
5446.508	n/a	RECOG_RESP	2723254	n/a	LTP155	ltpFR	6	2	n/a	PIZZA	1079	n/a	n/a	n/a	n/a	n/a	n/a	n/a
5447.118	n/a	RECOG_CONF	2723559	n/a	LTP155	ltpFR	6	2	n/a	PIZZA	1079	2	n/a	n/a	n/a	n/a	n/a	n/a
5448.814	n/a	RECOG_TARGET	2724407	n/a	LTP155	ltpFR	6	2	-1	LIGHTER	819	5	-1	n/a	n/a	n/a	n/a	n/a
5449.396	n/a	RECOG_RESP	2724698	n/a	LTP155	ltpFR	6	2	-1	LIGHTER	819	n/a	-1	n/a	n/a	n/a	n/a	n/a
5450.126	n/a	RECOG_CONF	2725063	n/a	LTP155	ltpFR	6	2	-1	LIGHTER	819	5	-1	n/a	n/a	n/a	n/a	n/a
5451.636	n/a	RECOG_TARGET	2725818	n/a	LTP155	ltpFR	6	2	1	SENATE	1267	5	1	n/a	n/a	n/a	n/a	n/a
5452.128	n/a	RECOG_RESP	2726064	n/a	LTP155	ltpFR	6	2	1	SENATE	1267	n/a	1	n/a	n/a	n/a	n/a	n/a
5452.84	n/a	RECOG_CONF	2726420	n/a	LTP155	ltpFR	6	2	1	SENATE	1267	5	1	n/a	n/a	n/a	n/a	n/a
5454.268	n/a	RECOG_LURE	2727134	n/a	LTP155	ltpFR	6	2	n/a	OVAL	990	2	n/a	n/a	n/a	n/a	n/a	n/a
5457.17	n/a	RECOG_CONF	2728585	n/a	LTP155	ltpFR	6	2	n/a	OVAL	990	2	n/a	n/a	n/a	n/a	n/a	n/a
5458.828	n/a	RECOG_TARGET	2729414	n/a	LTP155	ltpFR	6	2	1	JUVENILE	767	2	1	n/a	n/a	n/a	n/a	n/a
5459.582	n/a	RECOG_RESP	2729791	n/a	LTP155	ltpFR	6	2	1	JUVENILE	767	n/a	1	n/a	n/a	n/a	n/a	n/a
5460.26	n/a	RECOG_CONF	2730130	n/a	LTP155	ltpFR	6	2	1	JUVENILE	767	2	1	n/a	n/a	n/a	n/a	n/a
5461.774	n/a	RECOG_TARGET	2730887	n/a	LTP155	ltpFR	6	2	1	WORM	1623	4	1	n/a	n/a	n/a	n/a	n/a
5462.408	n/a	RECOG_RESP	2731204	n/a	LTP155	ltpFR	6	2	1	WORM	1623	n/a	1	n/a	n/a	n/a	n/a	n/a
5463.066	n/a	RECOG_CONF	2731533	n/a	LTP155	ltpFR	6	2	1	WORM	1623	4	1	n/a	n/a	n/a	n/a	n/a
5464.646	n/a	RECOG_LURE	2732323	n/a	LTP155	ltpFR	6	2	n/a	ROUGE	1213	3	n/a	n/a	n/a	n/a	n/a	n/a
5465.746	n/a	RECOG_RESP	2732873	n/a	LTP155	ltpFR	6	2	n/a	ROUGE	1213	n/a	n/a	n/a	n/a	n/a	n/a	n/a
5466.558	n/a	RECOG_CONF	2733279	n/a	LTP155	ltpFR	6	2	n/a	ROUGE	1213	3	n/a	n/a	n/a	n/a	n/a	n/a
5468.152	n/a	RECOG_TARGET	2734076	n/a	LTP155	ltpFR	6	2	-1	COLESLAW	344	5	-1	n/a	n/a	n/a	n/a	n/a
5468.7	n/a	RECOG_RESP	2734350	n/a	LTP155	ltpFR	6	2	-1	COLESLAW	344	n/a	-1	n/a	n/a	n/a	n/a	n/a
5469.242	n/a	RECOG_CONF	2734621	n/a	LTP155	ltpFR	6	2	-1	COLESLAW	344	5	-1	n/a	n/a	n/a	n/a	n/a
5471.148	n/a	RECOG_LURE	2735574	n/a	LTP155	ltpFR	6	2	n/a	FUGITIVE	612	3	n/a	n/a	n/a	n/a	n/a	n/a
5472.028	n/a	RECOG_RESP	2736014	n/a	LTP155	ltpFR	6	2	n/a	FUGITIVE	612	n/a	n/a	n/a	n/a	n/a	n/a	n/a
5472.684	n/a	RECOG_CONF	2736342	n/a	LTP155	ltpFR	6	2	n/a	FUGITIVE	612	3	n/a	n/a	n/a	n/a	n/a	n/a
5474.32	n/a	RECOG_TARGET	2737160	n/a	LTP155	ltpFR	6	2	0	AUTHOR	61	2	1	n/a	n/a	n/a	n/a	n/a
5475.226	n/a	RECOG_RESP_VV	2737613	n/a	LTP155	ltpFR	6	2	0	AUTHOR	61	n/a	1	n/a	n/a	n/a	n/a	n/a
5476.026	n/a	RECOG_RESP	2738013	n/a	LTP155	ltpFR	6	2	0	AUTHOR	61	n/a	1	n/a	n/a	n/a	n/a	n/a
5476.828	n/a	RECOG_CONF	2738414	n/a	LTP155	ltpFR	6	2	0	AUTHOR	61	2	1	n/a	n/a	n/a	n/a	n/a
5478.448	n/a	RECOG_TARGET	2739224	n/a	LTP155	ltpFR	6	2	-1	SLIME	1327	5	-1	n/a	n/a	n/a	n/a	n/a
5479.128	n/a	RECOG_RESP	2739564	n/a	LTP155	ltpFR	6	2	-1	SLIME	1327	n/a	-1	n/a	n/a	n/a	n/a	n/a
5479.698	n/a	RECOG_CONF	2739849	n/a	LTP155	ltpFR	6	2	-1	SLIME	1327	5	-1	n/a	n/a	n/a	n/a	n/a
5481.286	n/a	RECOG_TARGET	2740643	n/a	LTP155	ltpFR	6	2	0	TRENCH	1503	5	1	n/a	n/a	n/a	n/a	n/a
5481.94	n/a	RECOG_RESP	2740970	n/a	LTP155	ltpFR	6	2	0	TRENCH	1503	n/a	1	n/a	n/a	n/a	n/a	n/a
5482.522	n/a	RECOG_CONF	2741261	n/a	LTP155	ltpFR	6	2	0	TRENCH	1503	5	1	n/a	n/a	n/a	n/a	n/a
5484.176	n/a	RECOG_TARGET	2742088	n/a	LTP155	ltpFR	6	2	-1	DUSTPAN	509	3	-1	n/a	n/a	n/a	n/a	n/a
5485.1	n/a	RECOG_RESP	2742550	n/a	LTP155	ltpFR	6	2	-1	DUSTPAN	509	n/a	-1	n/a	n/a	n/a	n/a	n/a
5486.056	n/a	RECOG_CONF	2743028	n/a	LTP155	ltpFR	6	2	-1	DUSTPAN	509	3	-1	n/a	n/a	n/a	n/a	n/a
5487.636	n/a	RECOG_LURE	2743818	n/a	LTP155	ltpFR	6	2	n/a	BUTLER	204	2	n/a	n/a	n/a	n/a	n/a	n/a
5488.514	n/a	RECOG_RESP	2744257	n/a	LTP155	ltpFR	6	2	n/a	BUTLER	204	n/a	n/a	n/a	n/a	n/a	n/a	n/a
5489.106	n/a	RECOG_CONF	2744553	n/a	LTP155	ltpFR	6	2	n/a	BUTLER	204	2	n/a	n/a	n/a	n/a	n/a	n/a
5492.622	n/a	REC_START	2746311	n/a	LTP155	ltpFR	6	3	n/a	n/a	n/a	n/a	n/a	n/a	n/a	n/a	n/a	n/a
5492.648	n/a	RECOG_LURE	2746324	n/a	LTP155	ltpFR	6	3	n/a	BANK	83	1	n/a	n/a	n/a	n/a	n/a	n/a
5493.678	n/a	RECOG_RESP	2746839	n/a	LTP155	ltpFR	6	3	n/a	BANK	83	n/a	n/a	n/a	n/a	n/a	n/a	n/a
5494.64	n/a	RECOG_CONF	2747320	n/a	LTP155	ltpFR	6	3	n/a	BANK	83	1	n/a	n/a	n/a	n/a	n/a	n/a
5496.202	n/a	RECOG_TARGET	2748101	n/a	LTP155	ltpFR	6	3	0	PERMIT	1051	2	0	n/a	n/a	n/a	n/a	n/a
5497.362	n/a	RECOG_RESP	2748681	n/a	LTP155	ltpFR	6	3	0	PERMIT	1051	n/a	0	n/a	n/a	n/a	n/a	n/a
5498.118	n/a	RECOG_CONF	2749059	n/a	LTP155	ltpFR	6	3	0	PERMIT	1051	2	0	n/a	n/a	n/a	n/a	n/a
5499.698	n/a	RECOG_LURE	2749849	n/a	LTP155	ltpFR	6	3	n/a	CIRCUS	311	2	n/a	n/a	n/a	n/a	n/a	n/a
5500.506	n/a	RECOG_RESP	2750253	n/a	LTP155	ltpFR	6	3	n/a	CIRCUS	311	n/a	n/a	n/a	n/a	n/a	n/a	n/a
5501.26	n/a	RECOG_CONF	2750630	n/a	LTP155	ltpFR	6	3	n/a	CIRCUS	311	2	n/a	n/a	n/a	n/a	n/a	n/a
5502.878	n/a	RECOG_TARGET	2751439	n/a	LTP155	ltpFR	6	3	0	CHERRY	293	2	0	n/a	n/a	n/a	n/a	n/a
5503.498	n/a	RECOG_RESP	2751749	n/a	LTP155	ltpFR	6	3	0	CHERRY	293	n/a	0	n/a	n/a	n/a	n/a	n/a
5504.19	n/a	RECOG_CONF	2752095	n/a	LTP155	ltpFR	6	3	0	CHERRY	293	2	0	n/a	n/a	n/a	n/a	n/a
5505.724	n/a	RECOG_TARGET	2752862	n/a	LTP155	ltpFR	6	3	-1	ROACH	1195	4	-1	n/a	n/a	n/a	n/a	n/a
5506.422	n/a	RECOG_RESP	2753211	n/a	LTP155	ltpFR	6	3	-1	ROACH	1195	n/a	-1	n/a	n/a	n/a	n/a	n/a
5507.604	n/a	RECOG_CONF	2753802	n/a	LTP155	ltpFR	6	3	-1	ROACH	1195	4	-1	n/a	n/a	n/a	n/a	n/a
5509.212	n/a	RECOG_TARGET	2754606	n/a	LTP155	ltpFR	6	3	-1	PAINT	1003	3	-1	n/a	n/a	n/a	n/a	n/a
5509.84	n/a	RECOG_RESP	2754920	n/a	LTP155	ltpFR	6	3	-1	PAINT	1003	n/a	-1	n/a	n/a	n/a	n/a	n/a
5511.046	n/a	RECOG_CONF	2755523	n/a	LTP155	ltpFR	6	3	-1	PAINT	1003	3	-1	n/a	n/a	n/a	n/a	n/a
5512.602	n/a	RECOG_TARGET	2756301	n/a	LTP155	ltpFR	6	3	-1	PIPE	1073	5	-1	n/a	n/a	n/a	n/a	n/a
5513.402	n/a	RECOG_RESP	2756701	n/a	LTP155	ltpFR	6	3	-1	PIPE	1073	n/a	-1	n/a	n/a	n/a	n/a	n/a
5513.99	n/a	RECOG_CONF	2756995	n/a	LTP155	ltpFR	6	3	-1	PIPE	1073	5	-1	n/a	n/a	n/a	n/a	n/a
5515.448	n/a	RECOG_TARGET	2757724	n/a	LTP155	ltpFR	6	3	0	TRACTOR	1493	5	1	n/a	n/a	n/a	n/a	n/a
5516.114	n/a	RECOG_RESP	2758057	n/a	LTP155	ltpFR	6	3	0	TRACTOR	1493	n/a	1	n/a	n/a	n/a	n/a	n/a
5516.774	n/a	RECOG_CONF	2758387	n/a	LTP155	ltpFR	6	3	0	TRACTOR	1493	5	1	n/a	n/a	n/a	n/a	n/a
5518.212	n/a	RECOG_TARGET	2759106	n/a	LTP155	ltpFR	6	3	-1	RAFT	1159	2	-1	n/a	n/a	n/a	n/a	n/a
5518.976	n/a	RECOG_RESP	2759488	n/a	LTP155	ltpFR	6	3	-1	RAFT	1159	n/a	-1	n/a	n/a	n/a	n/a	n/a
5519.884	n/a	RECOG_CONF	2759942	n/a	LTP155	ltpFR	6	3	-1	RAFT	1159	2	-1	n/a	n/a	n/a	n/a	n/a
5521.458	n/a	RECOG_TARGET	2760729	n/a	LTP155	ltpFR	6	3	0	ANTENNA	28	3	0	n/a	n/a	n/a	n/a	n/a
5522.056	n/a	RECOG_RESP	2761028	n/a	LTP155	ltpFR	6	3	0	ANTENNA	28	n/a	0	n/a	n/a	n/a	n/a	n/a
5522.742	n/a	RECOG_CONF	2761371	n/a	LTP155	ltpFR	6	3	0	ANTENNA	28	3	0	n/a	n/a	n/a	n/a	n/a
5524.288	n/a	RECOG_LURE	2762144	n/a	LTP155	ltpFR	6	3	n/a	LAWN	805	4	n/a	n/a	n/a	n/a	n/a	n/a
5525.178	n/a	RECOG_RESP	2762589	n/a	LTP155	ltpFR	6	3	n/a	LAWN	805	n/a	n/a	n/a	n/a	n/a	n/a	n/a
5526.072	n/a	RECOG_CONF	2763036	n/a	LTP155	ltpFR	6	3	n/a	LAWN	805	4	n/a	n/a	n/a	n/a	n/a	n/a
5527.534	n/a	RECOG_TARGET	2763767	n/a	LTP155	ltpFR	6	3	0	GORILLA	650	2	1	n/a	n/a	n/a	n/a	n/a
5528.222	n/a	RECOG_RESP	2764111	n/a	LTP155	ltpFR	6	3	0	GORILLA	650	n/a	1	n/a	n/a	n/a	n/a	n/a
5529.432	n/a	RECOG_CONF	2764716	n/a	LTP155	ltpFR	6	3	0	GORILLA	650	2	1	n/a	n/a	n/a	n/a	n/a
5531.03	n/a	RECOG_TARGET	2765515	n/a	LTP155	ltpFR	6	3	1	JACKET	747	3	0	n/a	n/a	n/a	n/a	n/a
5531.998	n/a	RECOG_RESP	2765999	n/a	LTP155	ltpFR	6	3	1	JACKET	747	n/a	0	n/a	n/a	n/a	n/a	n/a
5532.602	n/a	RECOG_CONF	2766301	n/a	LTP155	ltpFR	6	3	1	JACKET	747	3	0	n/a	n/a	n/a	n/a	n/a
5534.16	n/a	RECOG_TARGET	2767080	n/a	LTP155	ltpFR	6	3	1	CHAIR	274	1	1	n/a	n/a	n/a	n/a	n/a
5535.016	n/a	RECOG_RESP	2767508	n/a	LTP155	ltpFR	6	3	1	CHAIR	274	n/a	1	n/a	n/a	n/a	n/a	n/a
5535.64	n/a	RECOG_CONF	2767820	n/a	LTP155	ltpFR	6	3	1	CHAIR	274	1	1	n/a	n/a	n/a	n/a	n/a
5537.29	n/a	RECOG_TARGET	2768645	n/a	LTP155	ltpFR	6	3	1	HAT	690	4	0	n/a	n/a	n/a	n/a	n/a
5537.85	n/a	RECOG_RESP	2768925	n/a	LTP155	ltpFR	6	3	1	HAT	690	n/a	0	n/a	n/a	n/a	n/a	n/a
5538.644	n/a	RECOG_CONF	2769322	n/a	LTP155	ltpFR	6	3	1	HAT	690	4	0	n/a	n/a	n/a	n/a	n/a
5540.444	n/a	RECOG_TARGET	2770222	n/a	LTP155	ltpFR	6	3	0	RAG	1160	4	0	n/a	n/a	n/a	n/a	n/a
5541.116	n/a	RECOG_RESP	2770558	n/a	LTP155	ltpFR	6	3	0	RAG	1160	n/a	0	n/a	n/a	n/a	n/a	n/a
5542.098	n/a	RECOG_CONF	2771049	n/a	LTP155	ltpFR	6	3	0	RAG	1160	4	0	n/a	n/a	n/a	n/a	n/a
5543.682	n/a	RECOG_TARGET	2771841	n/a	LTP155	ltpFR	6	3	0	CANE	231	1	1	n/a	n/a	n/a	n/a	n/a
5544.518	n/a	RECOG_RESP	2772259	n/a	LTP155	ltpFR	6	3	0	CANE	231	n/a	1	n/a	n/a	n/a	n/a	n/a
5545.992	n/a	RECOG_CONF	2772996	n/a	LTP155	ltpFR	6	3	0	CANE	231	1	1	n/a	n/a	n/a	n/a	n/a
5547.47	n/a	RECOG_LURE	2773735	n/a	LTP155	ltpFR	6	3	n/a	CALCULATOR	220	5	n/a	n/a	n/a	n/a	n/a	n/a
5548.248	n/a	RECOG_RESP	2774124	n/a	LTP155	ltpFR	6	3	n/a	CALCULATOR	220	n/a	n/a	n/a	n/a	n/a	n/a	n/a
5548.774	n/a	RECOG_CONF	2774387	n/a	LTP155	ltpFR	6	3	n/a	CALCULATOR	220	5	n/a	n/a	n/a	n/a	n/a	n/a
5550.54	n/a	RECOG_LURE	2775270	n/a	LTP155	ltpFR	6	3	n/a	CARD	243	2	n/a	n/a	n/a	n/a	n/a	n/a
5551.726	n/a	RECOG_RESP	2775863	n/a	LTP155	ltpFR	6	3	n/a	CARD	243	n/a	n/a	n/a	n/a	n/a	n/a	n/a
5552.432	n/a	RECOG_CONF	2776216	n/a	LTP155	ltpFR	6	3	n/a	CARD	243	2	n/a	n/a	n/a	n/a	n/a	n/a
5553.86	n/a	RECOG_TARGET	2776930	n/a	LTP155	ltpFR	6	3	-1	THREAD	1460	5	-1	n/a	n/a	n/a	n/a	n/a
5554.536	n/a	RECOG_RESP	2777268	n/a	LTP155	ltpFR	6	3	-1	THREAD	1460	n/a	-1	n/a	n/a	n/a	n/a	n/a
5555.214	n/a	RECOG_CONF	2777607	n/a	LTP155	ltpFR	6	3	-1	THREAD	1460	5	-1	n/a	n/a	n/a	n/a	n/a
5580.66	n/a	REC_START	2790330	n/a	LTP155	ltpFR	6	4	n/a	n/a	n/a	n/a	n/a	n/a	n/a	n/a	n/a	n/a
5580.688	n/a	RECOG_LURE	2790344	n/a	LTP155	ltpFR	6	4	n/a	FLASK	576	5	n/a	n/a	n/a	n/a	n/a	n/a
5581.632	n/a	RECOG_RESP	2790816	n/a	LTP155	ltpFR	6	4	n/a	FLASK	576	n/a	n/a	n/a	n/a	n/a	n/a	n/a
5582.32	n/a	RECOG_CONF	2791160	n/a	LTP155	ltpFR	6	4	n/a	FLASK	576	5	n/a	n/a	n/a	n/a	n/a	n/a
5583.844	n/a	RECOG_TARGET	2791922	n/a	LTP155	ltpFR	6	4	1	GODDESS	646	5	1	n/a	n/a	n/a	n/a	n/a
5584.454	n/a	RECOG_RESP	2792227	n/a	LTP155	ltpFR	6	4	1	GODDESS	646	n/a	1	n/a	n/a	n/a	n/a	n/a
5584.98	n/a	RECOG_CONF	2792490	n/a	LTP155	ltpFR	6	4	1	GODDESS	646	5	1	n/a	n/a	n/a	n/a	n/a
5586.74	n/a	RECOG_TARGET	2793370	n/a	LTP155	ltpFR	6	4	-1	PICTURE	1061	3	-1	n/a	n/a	n/a	n/a	n/a
5587.488	n/a	RECOG_RESP_VV	2793744	n/a	LTP155	ltpFR	6	4	-1	PICTURE	1061	n/a	-1	n/a	n/a	n/a	n/a	n/a
5587.98	n/a	RECOG_RESP	2793990	n/a	LTP155	ltpFR	6	4	-1	PICTURE	1061	n/a	-1	n/a	n/a	n/a	n/a	n/a
5588.758	n/a	RECOG_CONF	2794379	n/a	LTP155	ltpFR	6	4	-1	PICTURE	1061	3	-1	n/a	n/a	n/a	n/a	n/a
5590.446	n/a	RECOG_TARGET	2795223	n/a	LTP155	ltpFR	6	4	0	IGLOO	734	5	1	n/a	n/a	n/a	n/a	n/a
5591.104	n/a	RECOG_RESP	2795552	n/a	LTP155	ltpFR	6	4	0	IGLOO	734	n/a	1	n/a	n/a	n/a	n/a	n/a
5591.71	n/a	RECOG_CONF	2795855	n/a	LTP155	ltpFR	6	4	0	IGLOO	734	5	1	n/a	n/a	n/a	n/a	n/a
5593.384	n/a	RECOG_TARGET	2796692	n/a	LTP155	ltpFR	6	4	-1	SUBWAY	1400	5	-1	n/a	n/a	n/a	n/a	n/a
5594.044	n/a	RECOG_RESP	2797022	n/a	LTP155	ltpFR	6	4	-1	SUBWAY	1400	n/a	-1	n/a	n/a	n/a	n/a	n/a
5594.694	n/a	RECOG_CONF	2797347	n/a	LTP155	ltpFR	6	4	-1	SUBWAY	1400	5	-1	n/a	n/a	n/a	n/a	n/a
5596.33	n/a	RECOG_TARGET	2798165	n/a	LTP155	ltpFR	6	4	1	CITIZEN	312	5	1	n/a	n/a	n/a	n/a	n/a
5597.052	n/a	RECOG_RESP	2798526	n/a	LTP155	ltpFR	6	4	1	CITIZEN	312	n/a	1	n/a	n/a	n/a	n/a	n/a
5597.562	n/a	RECOG_CONF	2798781	n/a	LTP155	ltpFR	6	4	1	CITIZEN	312	5	1	n/a	n/a	n/a	n/a	n/a
5599.336	n/a	RECOG_TARGET	2799668	n/a	LTP155	ltpFR	6	4	0	BOX	159	5	1	n/a	n/a	n/a	n/a	n/a
5599.922	n/a	RECOG_RESP	2799961	n/a	LTP155	ltpFR	6	4	0	BOX	159	n/a	1	n/a	n/a	n/a	n/a	n/a
5600.53	n/a	RECOG_CONF	2800265	n/a	LTP155	ltpFR	6	4	0	BOX	159	5	1	n/a	n/a	n/a	n/a	n/a
5602.072	n/a	RECOG_TARGET	2801036	n/a	LTP155	ltpFR	6	4	0	INTESTINE	742	5	0	n/a	n/a	n/a	n/a	n/a
5603.576	n/a	RECOG_RESP	2801788	n/a	LTP155	ltpFR	6	4	0	INTESTINE	742	n/a	0	n/a	n/a	n/a	n/a	n/a
5604.392	n/a	RECOG_CONF	2802196	n/a	LTP155	ltpFR	6	4	0	INTESTINE	742	5	0	n/a	n/a	n/a	n/a	n/a
5606.044	n/a	RECOG_TARGET	2803022	n/a	LTP155	ltpFR	6	4	0	CAP	236	2	0	n/a	n/a	n/a	n/a	n/a
5606.578	n/a	RECOG_RESP	2803289	n/a	LTP155	ltpFR	6	4	0	CAP	236	n/a	0	n/a	n/a	n/a	n/a	n/a
5607.31	n/a	RECOG_CONF	2803655	n/a	LTP155	ltpFR	6	4	0	CAP	236	2	0	n/a	n/a	n/a	n/a	n/a
5608.882	n/a	RECOG_TARGET	2804441	n/a	LTP155	ltpFR	6	4	0	SLACKS	1323	1	0	n/a	n/a	n/a	n/a	n/a
5609.9	n/a	RECOG_RESP	2804950	n/a	LTP155	ltpFR	6	4	0	SLACKS	1323	n/a	0	n/a	n/a	n/a	n/a	n/a
5610.434	n/a	RECOG_CONF	2805217	n/a	LTP155	ltpFR	6	4	0	SLACKS	1323	1	0	n/a	n/a	n/a	n/a	n/a
5612.036	n/a	RECOG_LURE	2806018	n/a	LTP155	ltpFR	6	4	n/a	CONDUCTOR	362	2	n/a	n/a	n/a	n/a	n/a	n/a
5613.106	n/a	RECOG_RESP	2806553	n/a	LTP155	ltpFR	6	4	n/a	CONDUCTOR	362	n/a	n/a	n/a	n/a	n/a	n/a	n/a
5613.714	n/a	RECOG_CONF	2806857	n/a	LTP155	ltpFR	6	4	n/a	CONDUCTOR	362	2	n/a	n/a	n/a	n/a	n/a	n/a
5615.234	n/a	RECOG_TARGET	2807617	n/a	LTP155	ltpFR	6	4	1	PENGUIN	1044	5	1	n/a	n/a	n/a	n/a	n/a
5615.84	n/a	RECOG_RESP	2807920	n/a	LTP155	ltpFR	6	4	1	PENGUIN	1044	n/a	1	n/a	n/a	n/a	n/a	n/a
5616.544	n/a	RECOG_CONF	2808272	n/a	LTP155	ltpFR	6	4	1	PENGUIN	1044	5	1	n/a	n/a	n/a	n/a	n/a
5618.188	n/a	RECOG_TARGET	2809094	n/a	LTP155	ltpFR	6	4	1	BLUEJAY	141	4	1	n/a	n/a	n/a	n/a	n/a
5618.762	n/a	RECOG_RESP	2809381	n/a	LTP155	ltpFR	6	4	1	BLUEJAY	141	n/a	1	n/a	n/a	n/a	n/a	n/a
5619.732	n/a	RECOG_CONF	2809866	n/a	LTP155	ltpFR	6	4	1	BLUEJAY	141	4	1	n/a	n/a	n/a	n/a	n/a
5621.394	n/a	RECOG_LURE	2810697	n/a	LTP155	ltpFR	6	4	n/a	DAM	436	3	n/a	n/a	n/a	n/a	n/a	n/a
5622.112	n/a	RECOG_RESP	2811056	n/a	LTP155	ltpFR	6	4	n/a	DAM	436	n/a	n/a	n/a	n/a	n/a	n/a	n/a
5623.056	n/a	RECOG_CONF	2811528	n/a	LTP155	ltpFR	6	4	n/a	DAM	436	3	n/a	n/a	n/a	n/a	n/a	n/a
5624.714	n/a	RECOG_TARGET	2812357	n/a	LTP155	ltpFR	6	4	1	PLATE	1086	2	0	n/a	n/a	n/a	n/a	n/a
5625.408	n/a	RECOG_RESP	2812704	n/a	LTP155	ltpFR	6	4	1	PLATE	1086	n/a	0	n/a	n/a	n/a	n/a	n/a
5626.074	n/a	RECOG_CONF	2813037	n/a	LTP155	ltpFR	6	4	1	PLATE	1086	2	0	n/a	n/a	n/a	n/a	n/a
5627.61	n/a	RECOG_TARGET	2813805	n/a	LTP155	ltpFR	6	4	0	SALT	1229	2	0	n/a	n/a	n/a	n/a	n/a
5628.426	n/a	RECOG_RESP	2814213	n/a	LTP155	ltpFR	6	4	0	SALT	1229	n/a	0	n/a	n/a	n/a	n/a	n/a
5629.116	n/a	RECOG_CONF	2814558	n/a	LTP155	ltpFR	6	4	0	SALT	1229	2	0	n/a	n/a	n/a	n/a	n/a
5630.748	n/a	RECOG_TARGET	2815374	n/a	LTP155	ltpFR	6	4	1	CAPITAL	238	5	0	n/a	n/a	n/a	n/a	n/a
5631.552	n/a	RECOG_RESP	2815776	n/a	LTP155	ltpFR	6	4	1	CAPITAL	238	n/a	0	n/a	n/a	n/a	n/a	n/a
5632.21	n/a	RECOG_CONF	2816105	n/a	LTP155	ltpFR	6	4	1	CAPITAL	238	5	0	n/a	n/a	n/a	n/a	n/a
5634.028	n/a	RECOG_TARGET	2817014	n/a	LTP155	ltpFR	6	4	1	LUNCH	849	4	0	n/a	n/a	n/a	n/a	n/a
5634.668	n/a	RECOG_RESP	2817334	n/a	LTP155	ltpFR	6	4	1	LUNCH	849	n/a	0	n/a	n/a	n/a	n/a	n/a
5635.46	n/a	RECOG_CONF	2817730	n/a	LTP155	ltpFR	6	4	1	LUNCH	849	4	0	n/a	n/a	n/a	n/a	n/a
5637.008	n/a	RECOG_TARGET	2818504	n/a	LTP155	ltpFR	6	4	-1	BEAN	105	3	-1	n/a	n/a	n/a	n/a	n/a
5637.638	n/a	RECOG_RESP	2818819	n/a	LTP155	ltpFR	6	4	-1	BEAN	105	n/a	-1	n/a	n/a	n/a	n/a	n/a
5638.504	n/a	RECOG_CONF	2819252	n/a	LTP155	ltpFR	6	4	-1	BEAN	105	3	-1	n/a	n/a	n/a	n/a	n/a
5640.188	n/a	RECOG_TARGET	2820094	n/a	LTP155	ltpFR	6	4	0	BLOCKADE	137	5	1	n/a	n/a	n/a	n/a	n/a
5640.744	n/a	RECOG_RESP	2820372	n/a	LTP155	ltpFR	6	4	0	BLOCKADE	137	n/a	1	n/a	n/a	n/a	n/a	n/a
5641.352	n/a	RECOG_CONF	2820676	n/a	LTP155	ltpFR	6	4	0	BLOCKADE	137	5	1	n/a	n/a	n/a	n/a	n/a
5644.548	n/a	REC_START	2822274	n/a	LTP155	ltpFR	6	5	n/a	n/a	n/a	n/a	n/a	n/a	n/a	n/a	n/a	n/a
5644.574	n/a	RECOG_TARGET	2822287	n/a	LTP155	ltpFR	6	5	-1	FRECKLE	602	3	-1	n/a	n/a	n/a	n/a	n/a
5645.684	n/a	RECOG_RESP	2822842	n/a	LTP155	ltpFR	6	5	-1	FRECKLE	602	n/a	-1	n/a	n/a	n/a	n/a	n/a
5646.66	n/a	RECOG_CONF	2823330	n/a	LTP155	ltpFR	6	5	-1	FRECKLE	602	3	-1	n/a	n/a	n/a	n/a	n/a
5648.27	n/a	RECOG_LURE	2824135	n/a	LTP155	ltpFR	6	5	n/a	WHEAT	1602	1	n/a	n/a	n/a	n/a	n/a	n/a
5649.36	n/a	RECOG_RESP	2824680	n/a	LTP155	ltpFR	6	5	n/a	WHEAT	1602	n/a	n/a	n/a	n/a	n/a	n/a	n/a
5650.0	n/a	RECOG_CONF	2825000	n/a	LTP155	ltpFR	6	5	n/a	WHEAT	1602	1	n/a	n/a	n/a	n/a	n/a	n/a
5651.698	n/a	RECOG_LURE	2825849	n/a	LTP155	ltpFR	6	5	n/a	TUNNEL	1519	1	n/a	n/a	n/a	n/a	n/a	n/a
5652.34	n/a	RECOG_RESP	2826170	n/a	LTP155	ltpFR	6	5	n/a	TUNNEL	1519	n/a	n/a	n/a	n/a	n/a	n/a	n/a
5652.974	n/a	RECOG_CONF	2826487	n/a	LTP155	ltpFR	6	5	n/a	TUNNEL	1519	1	n/a	n/a	n/a	n/a	n/a	n/a
5654.73	n/a	RECOG_TARGET	2827365	n/a	LTP155	ltpFR	6	5	1	DRILL	497	5	0	n/a	n/a	n/a	n/a	n/a
5655.478	n/a	RECOG_RESP	2827739	n/a	LTP155	ltpFR	6	5	1	DRILL	497	n/a	0	n/a	n/a	n/a	n/a	n/a
5656.176	n/a	RECOG_CONF	2828088	n/a	LTP155	ltpFR	6	5	1	DRILL	497	5	0	n/a	n/a	n/a	n/a	n/a
5657.726	n/a	RECOG_TARGET	2828863	n/a	LTP155	ltpFR	6	5	-1	ZOO	1637	5	-1	n/a	n/a	n/a	n/a	n/a
5658.268	n/a	RECOG_RESP	2829134	n/a	LTP155	ltpFR	6	5	-1	ZOO	1637	n/a	-1	n/a	n/a	n/a	n/a	n/a
5659.0	n/a	RECOG_CONF	2829500	n/a	LTP155	ltpFR	6	5	-1	ZOO	1637	5	-1	n/a	n/a	n/a	n/a	n/a
5660.574	n/a	RECOG_TARGET	2830287	n/a	LTP155	ltpFR	6	5	1	STALLION	1369	5	1	n/a	n/a	n/a	n/a	n/a
5661.076	n/a	RECOG_RESP	2830538	n/a	LTP155	ltpFR	6	5	1	STALLION	1369	n/a	1	n/a	n/a	n/a	n/a	n/a
5661.804	n/a	RECOG_CONF	2830902	n/a	LTP155	ltpFR	6	5	1	STALLION	1369	5	1	n/a	n/a	n/a	n/a	n/a
5663.438	n/a	RECOG_LURE	2831719	n/a	LTP155	ltpFR	6	5	n/a	FLEA	577	2	n/a	n/a	n/a	n/a	n/a	n/a
5664.1	n/a	RECOG_RESP	2832050	n/a	LTP155	ltpFR	6	5	n/a	FLEA	577	n/a	n/a	n/a	n/a	n/a	n/a	n/a
5664.806	n/a	RECOG_CONF	2832403	n/a	LTP155	ltpFR	6	5	n/a	FLEA	577	2	n/a	n/a	n/a	n/a	n/a	n/a
5666.55	n/a	RECOG_TARGET	2833275	n/a	LTP155	ltpFR	6	5	0	WIFE	1609	4	1	n/a	n/a	n/a	n/a	n/a
5667.174	n/a	RECOG_RESP	2833587	n/a	LTP155	ltpFR	6	5	0	WIFE	1609	n/a	1	n/a	n/a	n/a	n/a	n/a
5667.97	n/a	RECOG_CONF	2833985	n/a	LTP155	ltpFR	6	5	0	WIFE	1609	4	1	n/a	n/a	n/a	n/a	n/a
5669.522	n/a	RECOG_TARGET	2834761	n/a	LTP155	ltpFR	6	5	0	CLERK	321	3	1	n/a	n/a	n/a	n/a	n/a
5672.26	n/a	RECOG_RESP	2836130	n/a	LTP155	ltpFR	6	5	0	CLERK	321	n/a	1	n/a	n/a	n/a	n/a	n/a
5672.836	n/a	RECOG_CONF	2836418	n/a	LTP155	ltpFR	6	5	0	CLERK	321	3	1	n/a	n/a	n/a	n/a	n/a
5674.59	n/a	RECOG_LURE	2837295	n/a	LTP155	ltpFR	6	5	n/a	ROSE	1212	2	n/a	n/a	n/a	n/a	n/a	n/a
5676.172	n/a	RECOG_RESP	2838086	n/a	LTP155	ltpFR	6	5	n/a	ROSE	1212	n/a	n/a	n/a	n/a	n/a	n/a	n/a
5676.69	n/a	RECOG_CONF	2838345	n/a	LTP155	ltpFR	6	5	n/a	ROSE	1212	2	n/a	n/a	n/a	n/a	n/a	n/a
5678.112	n/a	RECOG_LURE	2839056	n/a	LTP155	ltpFR	6	5	n/a	HIKER	708	2	n/a	n/a	n/a	n/a	n/a	n/a
5678.986	n/a	RECOG_RESP	2839493	n/a	LTP155	ltpFR	6	5	n/a	HIKER	708	n/a	n/a	n/a	n/a	n/a	n/a	n/a
5679.57	n/a	RECOG_CONF	2839785	n/a	LTP155	ltpFR	6	5	n/a	HIKER	708	2	n/a	n/a	n/a	n/a	n/a	n/a
5681.058	n/a	RECOG_TARGET	2840529	n/a	LTP155	ltpFR	6	5	0	WOUND	1624	5	0	n/a	n/a	n/a	n/a	n/a
5682.926	n/a	RECOG_RESP	2841463	n/a	LTP155	ltpFR	6	5	0	WOUND	1624	n/a	0	n/a	n/a	n/a	n/a	n/a
5683.472	n/a	RECOG_CONF	2841736	n/a	LTP155	ltpFR	6	5	0	WOUND	1624	5	0	n/a	n/a	n/a	n/a	n/a
5685.17	n/a	RECOG_TARGET	2842585	n/a	LTP155	ltpFR	6	5	1	HAMPER	682	3	0	n/a	n/a	n/a	n/a	n/a
5685.796	n/a	RECOG_RESP	2842898	n/a	LTP155	ltpFR	6	5	1	HAMPER	682	n/a	0	n/a	n/a	n/a	n/a	n/a
5686.522	n/a	RECOG_CONF	2843261	n/a	LTP155	ltpFR	6	5	1	HAMPER	682	3	0	n/a	n/a	n/a	n/a	n/a
5688.184	n/a	RECOG_LURE	2844092	n/a	LTP155	ltpFR	6	5	n/a	MARROW	872	5	n/a	n/a	n/a	n/a	n/a	n/a
5689.866	n/a	RECOG_RESP	2844933	n/a	LTP155	ltpFR	6	5	n/a	MARROW	872	n/a	n/a	n/a	n/a	n/a	n/a	n/a
5690.32	n/a	RECOG_CONF	2845160	n/a	LTP155	ltpFR	6	5	n/a	MARROW	872	5	n/a	n/a	n/a	n/a	n/a	n/a
5691.986	n/a	RECOG_TARGET	2845993	n/a	LTP155	ltpFR	6	5	0	GARAGE	621	2	1	n/a	n/a	n/a	n/a	n/a
5692.688	n/a	RECOG_RESP	2846344	n/a	LTP155	ltpFR	6	5	0	GARAGE	621	n/a	1	n/a	n/a	n/a	n/a	n/a
5693.264	n/a	RECOG_CONF	2846632	n/a	LTP155	ltpFR	6	5	0	GARAGE	621	2	1	n/a	n/a	n/a	n/a	n/a
5694.708	n/a	RECOG_LURE	2847354	n/a	LTP155	ltpFR	6	5	n/a	FARM	552	2	n/a	n/a	n/a	n/a	n/a	n/a
5695.426	n/a	RECOG_RESP	2847713	n/a	LTP155	ltpFR	6	5	n/a	FARM	552	n/a	n/a	n/a	n/a	n/a	n/a	n/a
5696.232	n/a	RECOG_CONF	2848116	n/a	LTP155	ltpFR	6	5	n/a	FARM	552	2	n/a	n/a	n/a	n/a	n/a	n/a
5697.696	n/a	RECOG_TARGET	2848848	n/a	LTP155	ltpFR	6	5	0	FROST	609	3	0	n/a	n/a	n/a	n/a	n/a
5698.292	n/a	RECOG_RESP	2849146	n/a	LTP155	ltpFR	6	5	0	FROST	609	n/a	0	n/a	n/a	n/a	n/a	n/a
5698.994	n/a	RECOG_CONF	2849497	n/a	LTP155	ltpFR	6	5	0	FROST	609	3	0	n/a	n/a	n/a	n/a	n/a
5700.544	n/a	RECOG_TARGET	2850272	n/a	LTP155	ltpFR	6	5	0	BUYER	208	4	1	n/a	n/a	n/a	n/a	n/a
5701.202	n/a	RECOG_RESP	2850601	n/a	LTP155	ltpFR	6	5	0	BUYER	208	n/a	1	n/a	n/a	n/a	n/a	n/a
5701.766	n/a	RECOG_CONF	2850883	n/a	LTP155	ltpFR	6	5	0	BUYER	208	4	1	n/a	n/a	n/a	n/a	n/a
5703.374	n/a	RECOG_TARGET	2851687	n/a	LTP155	ltpFR	6	5	-1	TAXI	1438	5	-1	n/a	n/a	n/a	n/a	n/a
5703.876	n/a	RECOG_RESP	2851938	n/a	LTP155	ltpFR	6	5	-1	TAXI	1438	n/a	-1	n/a	n/a	n/a	n/a	n/a
5704.546	n/a	RECOG_CONF	2852273	n/a	LTP155	ltpFR	6	5	-1	TAXI	1438	5	-1	n/a	n/a	n/a	n/a	n/a
5706.088	n/a	RECOG_TARGET	2853044	n/a	LTP155	ltpFR	6	5	1	COLONEL	348	5	0	n/a	n/a	n/a	n/a	n/a
5706.58	n/a	RECOG_RESP	2853290	n/a	LTP155	ltpFR	6	5	1	COLONEL	348	n/a	0	n/a	n/a	n/a	n/a	n/a
5707.2	n/a	RECOG_CONF	2853600	n/a	LTP155	ltpFR	6	5	1	COLONEL	348	5	0	n/a	n/a	n/a	n/a	n/a
5710.452	n/a	REC_START	2855226	n/a	LTP155	ltpFR	6	6	n/a	n/a	n/a	n/a	n/a	n/a	n/a	n/a	n/a	n/a
5710.482	n/a	RECOG_TARGET	2855241	n/a	LTP155	ltpFR	6	6	1	CHIME	300	3	0	n/a	n/a	n/a	n/a	n/a
5711.828	n/a	RECOG_RESP_VV	2855914	n/a	LTP155	ltpFR	6	6	1	CHIME	300	n/a	0	n/a	n/a	n/a	n/a	n/a
5713.034	n/a	RECOG_RESP	2856517	n/a	LTP155	ltpFR	6	6	1	CHIME	300	n/a	0	n/a	n/a	n/a	n/a	n/a
5713.974	n/a	RECOG_CONF	2856987	n/a	LTP155	ltpFR	6	6	1	CHIME	300	3	0	n/a	n/a	n/a	n/a	n/a
5715.7	n/a	RECOG_TARGET	2857850	n/a	LTP155	ltpFR	6	6	0	TEENAGER	1444	5	1	n/a	n/a	n/a	n/a	n/a
5716.284	n/a	RECOG_RESP	2858142	n/a	LTP155	ltpFR	6	6	0	TEENAGER	1444	n/a	1	n/a	n/a	n/a	n/a	n/a
5716.912	n/a	RECOG_CONF	2858456	n/a	LTP155	ltpFR	6	6	0	TEENAGER	1444	5	1	n/a	n/a	n/a	n/a	n/a
5718.332	n/a	RECOG_TARGET	2859166	n/a	LTP155	ltpFR	6	6	1	CLARINET	317	5	1	n/a	n/a	n/a	n/a	n/a
5718.872	n/a	RECOG_RESP	2859436	n/a	LTP155	ltpFR	6	6	1	CLARINET	317	n/a	1	n/a	n/a	n/a	n/a	n/a
5719.396	n/a	RECOG_CONF	2859698	n/a	LTP155	ltpFR	6	6	1	CLARINET	317	5	1	n/a	n/a	n/a	n/a	n/a
5721.146	n/a	RECOG_LURE	2860573	n/a	LTP155	ltpFR	6	6	n/a	BRANDY	169	3	n/a	n/a	n/a	n/a	n/a	n/a
5721.796	n/a	RECOG_RESP	2860898	n/a	LTP155	ltpFR	6	6	n/a	BRANDY	169	n/a	n/a	n/a	n/a	n/a	n/a	n/a
5722.38	n/a	RECOG_CONF	2861190	n/a	LTP155	ltpFR	6	6	n/a	BRANDY	169	3	n/a	n/a	n/a	n/a	n/a	n/a
5723.966	n/a	RECOG_TARGET	2861983	n/a	LTP155	ltpFR	6	6	1	LAKE	796	4	1	n/a	n/a	n/a	n/a	n/a
5724.652	n/a	RECOG_RESP	2862326	n/a	LTP155	ltpFR	6	6	1	LAKE	796	n/a	1	n/a	n/a	n/a	n/a	n/a
5725.11	n/a	RECOG_CONF	2862555	n/a	LTP155	ltpFR	6	6	1	LAKE	796	4	1	n/a	n/a	n/a	n/a	n/a
5726.78	n/a	RECOG_LURE	2863390	n/a	LTP155	ltpFR	6	6	n/a	MOTEL	919	3	n/a	n/a	n/a	n/a	n/a	n/a
5727.528	n/a	RECOG_RESP	2863764	n/a	LTP155	ltpFR	6	6	n/a	MOTEL	919	n/a	n/a	n/a	n/a	n/a	n/a	n/a
5728.188	n/a	RECOG_CONF	2864094	n/a	LTP155	ltpFR	6	6	n/a	MOTEL	919	3	n/a	n/a	n/a	n/a	n/a	n/a
5729.826	n/a	RECOG_TARGET	2864913	n/a	LTP155	ltpFR	6	6	1	SPOUSE	1358	2	1	n/a	n/a	n/a	n/a	n/a
5730.586	n/a	RECOG_RESP	2865293	n/a	LTP155	ltpFR	6	6	1	SPOUSE	1358	n/a	1	n/a	n/a	n/a	n/a	n/a
5731.182	n/a	RECOG_CONF	2865591	n/a	LTP155	ltpFR	6	6	1	SPOUSE	1358	2	1	n/a	n/a	n/a	n/a	n/a
5732.856	n/a	RECOG_TARGET	2866428	n/a	LTP155	ltpFR	6	6	0	ASSOCIATE	49	1	1	n/a	n/a	n/a	n/a	n/a
5733.66	n/a	RECOG_RESP	2866830	n/a	LTP155	ltpFR	6	6	0	ASSOCIATE	49	n/a	1	n/a	n/a	n/a	n/a	n/a
5734.722	n/a	RECOG_CONF	2867361	n/a	LTP155	ltpFR	6	6	0	ASSOCIATE	49	1	1	n/a	n/a	n/a	n/a	n/a
5736.386	n/a	RECOG_TARGET	2868193	n/a	LTP155	ltpFR	6	6	0	WALNUT	1584	5	0	n/a	n/a	n/a	n/a	n/a
5736.988	n/a	RECOG_RESP	2868494	n/a	LTP155	ltpFR	6	6	0	WALNUT	1584	n/a	0	n/a	n/a	n/a	n/a	n/a
5737.636	n/a	RECOG_CONF	2868818	n/a	LTP155	ltpFR	6	6	0	WALNUT	1584	5	0	n/a	n/a	n/a	n/a	n/a
5739.126	n/a	RECOG_TARGET	2869563	n/a	LTP155	ltpFR	6	6	0	DRIVER	499	4	0	n/a	n/a	n/a	n/a	n/a
5739.644	n/a	RECOG_RESP	2869822	n/a	LTP155	ltpFR	6	6	0	DRIVER	499	n/a	0	n/a	n/a	n/a	n/a	n/a
5740.35	n/a	RECOG_CONF	2870175	n/a	LTP155	ltpFR	6	6	0	DRIVER	499	4	0	n/a	n/a	n/a	n/a	n/a
5741.896	n/a	RECOG_TARGET	2870948	n/a	LTP155	ltpFR	6	6	1	DONKEY	484	5	1	n/a	n/a	n/a	n/a	n/a
5742.388	n/a	RECOG_RESP	2871194	n/a	LTP155	ltpFR	6	6	1	DONKEY	484	n/a	1	n/a	n/a	n/a	n/a	n/a
5743.636	n/a	RECOG_CONF	2871818	n/a	LTP155	ltpFR	6	6	1	DONKEY	484	5	1	n/a	n/a	n/a	n/a	n/a
5745.326	n/a	RECOG_LURE	2872663	n/a	LTP155	ltpFR	6	6	n/a	PLUMBER	1091	1	n/a	n/a	n/a	n/a	n/a	n/a
5746.036	n/a	RECOG_RESP	2873018	n/a	LTP155	ltpFR	6	6	n/a	PLUMBER	1091	n/a	n/a	n/a	n/a	n/a	n/a	n/a
5747.214	n/a	RECOG_CONF	2873607	n/a	LTP155	ltpFR	6	6	n/a	PLUMBER	1091	1	n/a	n/a	n/a	n/a	n/a	n/a
5748.764	n/a	RECOG_TARGET	2874382	n/a	LTP155	ltpFR	6	6	1	CONCRETE	361	5	0	n/a	n/a	n/a	n/a	n/a
5749.35	n/a	RECOG_RESP	2874675	n/a	LTP155	ltpFR	6	6	1	CONCRETE	361	n/a	0	n/a	n/a	n/a	n/a	n/a
5750.008	n/a	RECOG_CONF	2875004	n/a	LTP155	ltpFR	6	6	1	CONCRETE	361	5	0	n/a	n/a	n/a	n/a	n/a
5751.478	n/a	RECOG_TARGET	2875739	n/a	LTP155	ltpFR	6	6	1	BURGLAR	200	4	1	n/a	n/a	n/a	n/a	n/a
5752.566	n/a	RECOG_RESP	2876283	n/a	LTP155	ltpFR	6	6	1	BURGLAR	200	n/a	1	n/a	n/a	n/a	n/a	n/a
5753.25	n/a	RECOG_CONF	2876625	n/a	LTP155	ltpFR	6	6	1	BURGLAR	200	4	1	n/a	n/a	n/a	n/a	n/a
5754.656	n/a	RECOG_TARGET	2877328	n/a	LTP155	ltpFR	6	6	0	BEETLE	116	3	0	n/a	n/a	n/a	n/a	n/a
5755.946	n/a	RECOG_RESP_VV	2877973	n/a	LTP155	ltpFR	6	6	0	BEETLE	116	n/a	0	n/a	n/a	n/a	n/a	n/a
5756.548	n/a	RECOG_RESP	2878274	n/a	LTP155	ltpFR	6	6	0	BEETLE	116	n/a	0	n/a	n/a	n/a	n/a	n/a
5757.37	n/a	RECOG_CONF	2878685	n/a	LTP155	ltpFR	6	6	0	BEETLE	116	3	0	n/a	n/a	n/a	n/a	n/a
5759.026	n/a	RECOG_TARGET	2879513	n/a	LTP155	ltpFR	6	6	1	VILLAIN	1567	2	1	n/a	n/a	n/a	n/a	n/a
5759.886	n/a	RECOG_RESP	2879943	n/a	LTP155	ltpFR	6	6	1	VILLAIN	1567	n/a	1	n/a	n/a	n/a	n/a	n/a
5760.518	n/a	RECOG_CONF	2880259	n/a	LTP155	ltpFR	6	6	1	VILLAIN	1567	2	1	n/a	n/a	n/a	n/a	n/a
5762.132	n/a	RECOG_TARGET	2881066	n/a	LTP155	ltpFR	6	6	1	POLITICIAN	1099	5	1	n/a	n/a	n/a	n/a	n/a
5762.726	n/a	RECOG_RESP	2881363	n/a	LTP155	ltpFR	6	6	1	POLITICIAN	1099	n/a	1	n/a	n/a	n/a	n/a	n/a
5763.378	n/a	RECOG_CONF	2881689	n/a	LTP155	ltpFR	6	6	1	POLITICIAN	1099	5	1	n/a	n/a	n/a	n/a	n/a
5764.978	n/a	RECOG_TARGET	2882489	n/a	LTP155	ltpFR	6	6	0	DOVE	491	2	0	n/a	n/a	n/a	n/a	n/a
5765.774	n/a	RECOG_RESP	2882887	n/a	LTP155	ltpFR	6	6	0	DOVE	491	n/a	0	n/a	n/a	n/a	n/a	n/a
5766.356	n/a	RECOG_CONF	2883178	n/a	LTP155	ltpFR	6	6	0	DOVE	491	2	0	n/a	n/a	n/a	n/a	n/a
5767.95	n/a	RECOG_TARGET	2883975	n/a	LTP155	ltpFR	6	6	1	BOOK	149	3	0	n/a	n/a	n/a	n/a	n/a
5768.698	n/a	RECOG_RESP_VV	2884349	n/a	LTP155	ltpFR	6	6	1	BOOK	149	n/a	0	n/a	n/a	n/a	n/a	n/a
5769.156	n/a	RECOG_RESP	2884578	n/a	LTP155	ltpFR	6	6	1	BOOK	149	n/a	0	n/a	n/a	n/a	n/a	n/a
5769.778	n/a	RECOG_CONF	2884889	n/a	LTP155	ltpFR	6	6	1	BOOK	149	3	0	n/a	n/a	n/a	n/a	n/a
5771.28	n/a	RECOG_LURE	2885640	n/a	LTP155	ltpFR	6	6	n/a	HORSE	719	2	n/a	n/a	n/a	n/a	n/a	n/a
