mstime	trial_type	stim_file	subject	experiment	session	trial	task	item_name	item_num	recog_conf	resp	answer	test_x	test_y	test_z	color_b	color_g	color_r	case	font
0	SESS_START	n/a	LTP263	ltpFR	9	n/a	n/a	n/a	n/a	n/a	n/a	n/a	0	0	0	n/a	n/a	n/a	n/a	n/a
15971	START	n/a	LTP263	ltpFR	9	n/a	n/a	n/a	n/a	n/a	n/a	n/a	n/a	n/a	n/a	n/a	n/a	n/a	n/a	n/a
16004	PROB	n/a	LTP263	ltpFR	9	n/a	n/a	n/a	n/a	n/a	n/a	14	6	2	6	n/a	n/a	n/a	n/a	n/a
18350	PROB	n/a	LTP263	ltpFR	9	n/a	n/a	n/a	n/a	n/a	n/a	13	3	4	6	n/a	n/a	n/a	n/a	n/a
20930	PROB	n/a	LTP263	ltpFR	9	n/a	n/a	n/a	n/a	n/a	n/a	10	1	5	4	n/a	n/a	n/a	n/a	n/a
22344	PROB	n/a	LTP263	ltpFR	9	n/a	n/a	n/a	n/a	n/a	n/a	9	4	4	1	n/a	n/a	n/a	n/a	n/a
23775	PROB	n/a	LTP263	ltpFR	9	n/a	n/a	n/a	n/a	n/a	n/a	13	1	8	4	n/a	n/a	n/a	n/a	n/a
26139	PROB	n/a	LTP263	ltpFR	9	n/a	n/a	n/a	n/a	n/a	n/a	13	5	7	1	n/a	n/a	n/a	n/a	n/a
27570	PROB	n/a	LTP263	ltpFR	9	n/a	n/a	n/a	n/a	n/a	n/a	14	4	5	6	n/a	n/a	n/a	n/a	n/a
28685	PROB	n/a	LTP263	ltpFR	9	n/a	n/a	n/a	n/a	n/a	n/a	22	8	9	5	n/a	n/a	n/a	n/a	n/a
32878	PROB	n/a	LTP263	ltpFR	9	n/a	n/a	n/a	n/a	n/a	n/a	19	7	6	6	n/a	n/a	n/a	n/a	n/a
35647	STOP	n/a	LTP263	ltpFR	9	n/a	n/a	n/a	n/a	n/a	n/a	n/a	n/a	n/a	n/a	n/a	n/a	n/a	n/a	n/a
48156	START	n/a	LTP263	ltpFR	9	n/a	n/a	n/a	n/a	n/a	n/a	n/a	n/a	n/a	n/a	n/a	n/a	n/a	n/a	n/a
49670	PROB	n/a	LTP263	ltpFR	9	n/a	n/a	n/a	n/a	n/a	n/a	16	5	4	7	n/a	n/a	n/a	n/a	n/a
53930	PROB	n/a	LTP263	ltpFR	9	n/a	n/a	n/a	n/a	n/a	n/a	17	2	7	8	n/a	n/a	n/a	n/a	n/a
55663	STOP	n/a	LTP263	ltpFR	9	n/a	n/a	n/a	n/a	n/a	n/a	n/a	n/a	n/a	n/a	n/a	n/a	n/a	n/a	n/a
57192	WORD	wordpools/wasnorm_wordpool_less_exclusions.txt	LTP263	ltpFR	9	1	1	ROOST	1208	n/a	0	n/a	0	0	0	1	0.412841796875	0.57763671875	upper	../fonts/zerothre.ttf
60205	START	n/a	LTP263	ltpFR	9	n/a	n/a	n/a	n/a	n/a	n/a	n/a	n/a	n/a	n/a	n/a	n/a	n/a	n/a	n/a
61286	PROB	n/a	LTP263	ltpFR	9	n/a	n/a	n/a	n/a	n/a	n/a	4	1	2	1	n/a	n/a	n/a	n/a	n/a
62884	PROB	n/a	LTP263	ltpFR	9	n/a	n/a	n/a	n/a	n/a	n/a	10	6	1	3	n/a	n/a	n/a	n/a	n/a
64648	PROB	n/a	LTP263	ltpFR	9	n/a	n/a	n/a	n/a	n/a	n/a	12	2	1	9	n/a	n/a	n/a	n/a	n/a
68205	STOP	n/a	LTP263	ltpFR	9	n/a	n/a	n/a	n/a	n/a	n/a	n/a	n/a	n/a	n/a	n/a	n/a	n/a	n/a	n/a
69391	WORD	wordpools/wasnorm_wordpool_less_exclusions.txt	LTP263	ltpFR	9	1	1	DRUM	502	n/a	0	n/a	0	0	0	1	0.412841796875	0.57763671875	upper	../fonts/zerothre.ttf
72403	START	n/a	LTP263	ltpFR	9	n/a	n/a	n/a	n/a	n/a	n/a	n/a	n/a	n/a	n/a	n/a	n/a	n/a	n/a	n/a
73451	PROB	n/a	LTP263	ltpFR	9	n/a	n/a	n/a	n/a	n/a	n/a	16	9	2	5	n/a	n/a	n/a	n/a	n/a
75914	PROB	n/a	LTP263	ltpFR	9	n/a	n/a	n/a	n/a	n/a	n/a	14	8	5	1	n/a	n/a	n/a	n/a	n/a
77329	PROB	n/a	LTP263	ltpFR	9	n/a	n/a	n/a	n/a	n/a	n/a	10	6	2	2	n/a	n/a	n/a	n/a	n/a
78879	STOP	n/a	LTP263	ltpFR	9	n/a	n/a	n/a	n/a	n/a	n/a	n/a	n/a	n/a	n/a	n/a	n/a	n/a	n/a	n/a
81538	WORD	wordpools/wasnorm_wordpool_less_exclusions.txt	LTP263	ltpFR	9	1	1	OVEN	991	n/a	0	n/a	0	0	0	1	0.412841796875	0.57763671875	upper	../fonts/zerothre.ttf
84551	START	n/a	LTP263	ltpFR	9	n/a	n/a	n/a	n/a	n/a	n/a	n/a	n/a	n/a	n/a	n/a	n/a	n/a	n/a	n/a
85532	PROB	n/a	LTP263	ltpFR	9	n/a	n/a	n/a	n/a	n/a	n/a	18	1	9	8	n/a	n/a	n/a	n/a	n/a
86848	PROB	n/a	LTP263	ltpFR	9	n/a	n/a	n/a	n/a	n/a	n/a	9	2	5	2	n/a	n/a	n/a	n/a	n/a
88629	PROB	n/a	LTP263	ltpFR	9	n/a	n/a	n/a	n/a	n/a	n/a	14	1	6	8	n/a	n/a	n/a	n/a	n/a
90010	PROB	n/a	LTP263	ltpFR	9	n/a	n/a	n/a	n/a	n/a	n/a	22	7	6	8	n/a	n/a	n/a	n/a	n/a
91567	STOP	n/a	LTP263	ltpFR	9	n/a	n/a	n/a	n/a	n/a	n/a	n/a	n/a	n/a	n/a	n/a	n/a	n/a	n/a	n/a
93505	WORD	wordpools/wasnorm_wordpool_less_exclusions.txt	LTP263	ltpFR	9	1	0	FEMALE	559	n/a	1	n/a	0	0	0	0	0.5869140625	0.422607421875	lower	../fonts/amplitud.ttf
96516	START	n/a	LTP263	ltpFR	9	n/a	n/a	n/a	n/a	n/a	n/a	n/a	n/a	n/a	n/a	n/a	n/a	n/a	n/a	n/a
97449	PROB	n/a	LTP263	ltpFR	9	n/a	n/a	n/a	n/a	n/a	n/a	12	2	3	7	n/a	n/a	n/a	n/a	n/a
98713	PROB	n/a	LTP263	ltpFR	9	n/a	n/a	n/a	n/a	n/a	n/a	23	8	8	7	n/a	n/a	n/a	n/a	n/a
101226	PROB	n/a	LTP263	ltpFR	9	n/a	n/a	n/a	n/a	n/a	n/a	16	7	2	7	n/a	n/a	n/a	n/a	n/a
103495	STOP	n/a	LTP263	ltpFR	9	n/a	n/a	n/a	n/a	n/a	n/a	n/a	n/a	n/a	n/a	n/a	n/a	n/a	n/a	n/a
105653	WORD	wordpools/wasnorm_wordpool_less_exclusions.txt	LTP263	ltpFR	9	1	0	BOMB	147	n/a	1	n/a	0	0	0	0	0.5869140625	0.422607421875	lower	../fonts/amplitud.ttf
108666	START	n/a	LTP263	ltpFR	9	n/a	n/a	n/a	n/a	n/a	n/a	n/a	n/a	n/a	n/a	n/a	n/a	n/a	n/a	n/a
109546	PROB	n/a	LTP263	ltpFR	9	n/a	n/a	n/a	n/a	n/a	n/a	14	8	4	2	n/a	n/a	n/a	n/a	n/a
110995	PROB	n/a	LTP263	ltpFR	9	n/a	n/a	n/a	n/a	n/a	n/a	25	7	9	9	n/a	n/a	n/a	n/a	n/a
113192	PROB	n/a	LTP263	ltpFR	9	n/a	n/a	n/a	n/a	n/a	n/a	1	4	2	6	n/a	n/a	n/a	n/a	n/a
116655	STOP	n/a	LTP263	ltpFR	9	n/a	n/a	n/a	n/a	n/a	n/a	n/a	n/a	n/a	n/a	n/a	n/a	n/a	n/a	n/a
117602	WORD	wordpools/wasnorm_wordpool_less_exclusions.txt	LTP263	ltpFR	9	1	0	RECIPE	1175	n/a	0	n/a	0	0	0	0	0.5869140625	0.422607421875	lower	../fonts/amplitud.ttf
120615	START	n/a	LTP263	ltpFR	9	n/a	n/a	n/a	n/a	n/a	n/a	n/a	n/a	n/a	n/a	n/a	n/a	n/a	n/a	n/a
121646	PROB	n/a	LTP263	ltpFR	9	n/a	n/a	n/a	n/a	n/a	n/a	13	8	2	3	n/a	n/a	n/a	n/a	n/a
122994	PROB	n/a	LTP263	ltpFR	9	n/a	n/a	n/a	n/a	n/a	n/a	16	5	4	6	n/a	n/a	n/a	n/a	n/a
124126	PROB	n/a	LTP263	ltpFR	9	n/a	n/a	n/a	n/a	n/a	n/a	14	1	8	6	n/a	n/a	n/a	n/a	n/a
125873	PROB	n/a	LTP263	ltpFR	9	n/a	n/a	n/a	n/a	n/a	n/a	15	7	1	4	n/a	n/a	n/a	n/a	n/a
127751	STOP	n/a	LTP263	ltpFR	9	n/a	n/a	n/a	n/a	n/a	n/a	n/a	n/a	n/a	n/a	n/a	n/a	n/a	n/a	n/a
129717	WORD	wordpools/wasnorm_wordpool_less_exclusions.txt	LTP263	ltpFR	9	1	0	COBBLER	335	n/a	0	n/a	0	0	0	0	0.5869140625	0.422607421875	lower	../fonts/amplitud.ttf
132730	START	n/a	LTP263	ltpFR	9	n/a	n/a	n/a	n/a	n/a	n/a	n/a	n/a	n/a	n/a	n/a	n/a	n/a	n/a	n/a
133678	PROB	n/a	LTP263	ltpFR	9	n/a	n/a	n/a	n/a	n/a	n/a	12	1	2	9	n/a	n/a	n/a	n/a	n/a
134810	PROB	n/a	LTP263	ltpFR	9	n/a	n/a	n/a	n/a	n/a	n/a	5	3	1	1	n/a	n/a	n/a	n/a	n/a
135941	PROB	n/a	LTP263	ltpFR	9	n/a	n/a	n/a	n/a	n/a	n/a	3	1	1	1	n/a	n/a	n/a	n/a	n/a
136973	PROB	n/a	LTP263	ltpFR	9	n/a	n/a	n/a	n/a	n/a	n/a	14	7	3	4	n/a	n/a	n/a	n/a	n/a
138121	PROB	n/a	LTP263	ltpFR	9	n/a	n/a	n/a	n/a	n/a	n/a	6	2	2	3	n/a	n/a	n/a	n/a	n/a
139735	STOP	n/a	LTP263	ltpFR	9	n/a	n/a	n/a	n/a	n/a	n/a	n/a	n/a	n/a	n/a	n/a	n/a	n/a	n/a	n/a
141799	WORD	wordpools/wasnorm_wordpool_less_exclusions.txt	LTP263	ltpFR	9	1	0	CHECKERS	285	n/a	0	n/a	0	0	0	0	0.5869140625	0.422607421875	lower	../fonts/amplitud.ttf
144812	START	n/a	LTP263	ltpFR	9	n/a	n/a	n/a	n/a	n/a	n/a	n/a	n/a	n/a	n/a	n/a	n/a	n/a	n/a	n/a
145960	PROB	n/a	LTP263	ltpFR	9	n/a	n/a	n/a	n/a	n/a	n/a	15	3	9	2	n/a	n/a	n/a	n/a	n/a
147873	PROB	n/a	LTP263	ltpFR	9	n/a	n/a	n/a	n/a	n/a	n/a	13	9	2	2	n/a	n/a	n/a	n/a	n/a
150103	PROB	n/a	LTP263	ltpFR	9	n/a	n/a	n/a	n/a	n/a	n/a	22	8	5	9	n/a	n/a	n/a	n/a	n/a
152279	STOP	n/a	LTP263	ltpFR	9	n/a	n/a	n/a	n/a	n/a	n/a	n/a	n/a	n/a	n/a	n/a	n/a	n/a	n/a	n/a
153898	WORD	wordpools/wasnorm_wordpool_less_exclusions.txt	LTP263	ltpFR	9	1	0	CARD	243	n/a	0	n/a	0	0	0	0	0.5869140625	0.422607421875	lower	../fonts/amplitud.ttf
156910	START	n/a	LTP263	ltpFR	9	n/a	n/a	n/a	n/a	n/a	n/a	n/a	n/a	n/a	n/a	n/a	n/a	n/a	n/a	n/a
157975	PROB	n/a	LTP263	ltpFR	9	n/a	n/a	n/a	n/a	n/a	n/a	14	6	4	7	n/a	n/a	n/a	n/a	n/a
160520	PROB	n/a	LTP263	ltpFR	9	n/a	n/a	n/a	n/a	n/a	n/a	17	4	9	4	n/a	n/a	n/a	n/a	n/a
163599	STOP	n/a	LTP263	ltpFR	9	n/a	n/a	n/a	n/a	n/a	n/a	n/a	n/a	n/a	n/a	n/a	n/a	n/a	n/a	n/a
165996	WORD	wordpools/wasnorm_wordpool_less_exclusions.txt	LTP263	ltpFR	9	1	1	OBOE	969	n/a	0	n/a	0	0	0	1	0.412841796875	0.57763671875	upper	../fonts/zerothre.ttf
169009	START	n/a	LTP263	ltpFR	9	n/a	n/a	n/a	n/a	n/a	n/a	n/a	n/a	n/a	n/a	n/a	n/a	n/a	n/a	n/a
169974	PROB	n/a	LTP263	ltpFR	9	n/a	n/a	n/a	n/a	n/a	n/a	12	4	4	4	n/a	n/a	n/a	n/a	n/a
171472	PROB	n/a	LTP263	ltpFR	9	n/a	n/a	n/a	n/a	n/a	n/a	17	7	3	7	n/a	n/a	n/a	n/a	n/a
175066	PROB	n/a	LTP263	ltpFR	9	n/a	n/a	n/a	n/a	n/a	n/a	19	5	6	8	n/a	n/a	n/a	n/a	n/a
176550	STOP	n/a	LTP263	ltpFR	9	n/a	n/a	n/a	n/a	n/a	n/a	n/a	n/a	n/a	n/a	n/a	n/a	n/a	n/a	n/a
177945	WORD	wordpools/wasnorm_wordpool_less_exclusions.txt	LTP263	ltpFR	9	1	1	GRAPE	654	n/a	1	n/a	0	0	0	1	0.412841796875	0.57763671875	upper	../fonts/zerothre.ttf
180958	START	n/a	LTP263	ltpFR	9	n/a	n/a	n/a	n/a	n/a	n/a	n/a	n/a	n/a	n/a	n/a	n/a	n/a	n/a	n/a
181923	PROB	n/a	LTP263	ltpFR	9	n/a	n/a	n/a	n/a	n/a	n/a	13	1	6	6	n/a	n/a	n/a	n/a	n/a
183254	PROB	n/a	LTP263	ltpFR	9	n/a	n/a	n/a	n/a	n/a	n/a	17	9	5	3	n/a	n/a	n/a	n/a	n/a
184885	PROB	n/a	LTP263	ltpFR	9	n/a	n/a	n/a	n/a	n/a	n/a	18	8	8	2	n/a	n/a	n/a	n/a	n/a
186599	PROB	n/a	LTP263	ltpFR	9	n/a	n/a	n/a	n/a	n/a	n/a	13	8	1	4	n/a	n/a	n/a	n/a	n/a
188159	STOP	n/a	LTP263	ltpFR	9	n/a	n/a	n/a	n/a	n/a	n/a	n/a	n/a	n/a	n/a	n/a	n/a	n/a	n/a	n/a
190044	WORD	wordpools/wasnorm_wordpool_less_exclusions.txt	LTP263	ltpFR	9	1	1	MONSTER	912	n/a	1	n/a	0	0	0	1	0.412841796875	0.57763671875	upper	../fonts/zerothre.ttf
193056	START	n/a	LTP263	ltpFR	9	n/a	n/a	n/a	n/a	n/a	n/a	n/a	n/a	n/a	n/a	n/a	n/a	n/a	n/a	n/a
193988	PROB	n/a	LTP263	ltpFR	9	n/a	n/a	n/a	n/a	n/a	n/a	16	8	4	3	n/a	n/a	n/a	n/a	n/a
196800	PROB	n/a	LTP263	ltpFR	9	n/a	n/a	n/a	n/a	n/a	n/a	14	4	6	4	n/a	n/a	n/a	n/a	n/a
198331	PROB	n/a	LTP263	ltpFR	9	n/a	n/a	n/a	n/a	n/a	n/a	18	8	1	9	n/a	n/a	n/a	n/a	n/a
200047	STOP	n/a	LTP263	ltpFR	9	n/a	n/a	n/a	n/a	n/a	n/a	n/a	n/a	n/a	n/a	n/a	n/a	n/a	n/a	n/a
202209	WORD	wordpools/wasnorm_wordpool_less_exclusions.txt	LTP263	ltpFR	9	1	1	CAMEL	223	n/a	1	n/a	0	0	0	1	0.412841796875	0.57763671875	upper	../fonts/zerothre.ttf
205222	START	n/a	LTP263	ltpFR	9	n/a	n/a	n/a	n/a	n/a	n/a	n/a	n/a	n/a	n/a	n/a	n/a	n/a	n/a	n/a
206103	PROB	n/a	LTP263	ltpFR	9	n/a	n/a	n/a	n/a	n/a	n/a	16	1	7	8	n/a	n/a	n/a	n/a	n/a
207934	PROB	n/a	LTP263	ltpFR	9	n/a	n/a	n/a	n/a	n/a	n/a	15	3	9	3	n/a	n/a	n/a	n/a	n/a
211179	PROB	n/a	LTP263	ltpFR	9	n/a	n/a	n/a	n/a	n/a	n/a	14	4	5	5	n/a	n/a	n/a	n/a	n/a
212631	STOP	n/a	LTP263	ltpFR	9	n/a	n/a	n/a	n/a	n/a	n/a	n/a	n/a	n/a	n/a	n/a	n/a	n/a	n/a	n/a
214141	WORD	wordpools/wasnorm_wordpool_less_exclusions.txt	LTP263	ltpFR	9	1	1	CRICKET	408	n/a	1	n/a	0	0	0	1	0.412841796875	0.57763671875	upper	../fonts/zerothre.ttf
217154	START	n/a	LTP263	ltpFR	9	n/a	n/a	n/a	n/a	n/a	n/a	n/a	n/a	n/a	n/a	n/a	n/a	n/a	n/a	n/a
218352	PROB	n/a	LTP263	ltpFR	9	n/a	n/a	n/a	n/a	n/a	n/a	12	1	3	9	n/a	n/a	n/a	n/a	n/a
220165	PROB	n/a	LTP263	ltpFR	9	n/a	n/a	n/a	n/a	n/a	n/a	7	1	3	3	n/a	n/a	n/a	n/a	n/a
221663	PROB	n/a	LTP263	ltpFR	9	n/a	n/a	n/a	n/a	n/a	n/a	13	4	2	7	n/a	n/a	n/a	n/a	n/a
223444	PROB	n/a	LTP263	ltpFR	9	n/a	n/a	n/a	n/a	n/a	n/a	13	3	3	7	n/a	n/a	n/a	n/a	n/a
224943	STOP	n/a	LTP263	ltpFR	9	n/a	n/a	n/a	n/a	n/a	n/a	n/a	n/a	n/a	n/a	n/a	n/a	n/a	n/a	n/a
226373	WORD	wordpools/wasnorm_wordpool_less_exclusions.txt	LTP263	ltpFR	9	1	0	ANTEATER	26	n/a	1	n/a	0	0	0	0	0.5869140625	0.422607421875	lower	../fonts/amplitud.ttf
229385	START	n/a	LTP263	ltpFR	9	n/a	n/a	n/a	n/a	n/a	n/a	n/a	n/a	n/a	n/a	n/a	n/a	n/a	n/a	n/a
230516	PROB	n/a	LTP263	ltpFR	9	n/a	n/a	n/a	n/a	n/a	n/a	15	8	2	5	n/a	n/a	n/a	n/a	n/a
232697	PROB	n/a	LTP263	ltpFR	9	n/a	n/a	n/a	n/a	n/a	n/a	18	6	6	6	n/a	n/a	n/a	n/a	n/a
234461	PROB	n/a	LTP263	ltpFR	9	n/a	n/a	n/a	n/a	n/a	n/a	19	5	6	8	n/a	n/a	n/a	n/a	n/a
235943	STOP	n/a	LTP263	ltpFR	9	n/a	n/a	n/a	n/a	n/a	n/a	n/a	n/a	n/a	n/a	n/a	n/a	n/a	n/a	n/a
238288	WORD	wordpools/wasnorm_wordpool_less_exclusions.txt	LTP263	ltpFR	9	1	0	MAT	877	n/a	1	n/a	0	0	0	0	0.5869140625	0.422607421875	lower	../fonts/amplitud.ttf
241301	START	n/a	LTP263	ltpFR	9	n/a	n/a	n/a	n/a	n/a	n/a	n/a	n/a	n/a	n/a	n/a	n/a	n/a	n/a	n/a
242432	PROB	n/a	LTP263	ltpFR	9	n/a	n/a	n/a	n/a	n/a	n/a	9	1	7	1	n/a	n/a	n/a	n/a	n/a
243764	PROB	n/a	LTP263	ltpFR	9	n/a	n/a	n/a	n/a	n/a	n/a	5	1	1	3	n/a	n/a	n/a	n/a	n/a
245128	PROB	n/a	LTP263	ltpFR	9	n/a	n/a	n/a	n/a	n/a	n/a	9	4	2	3	n/a	n/a	n/a	n/a	n/a
247325	PROB	n/a	LTP263	ltpFR	9	n/a	n/a	n/a	n/a	n/a	n/a	8	2	3	3	n/a	n/a	n/a	n/a	n/a
248807	STOP	n/a	LTP263	ltpFR	9	n/a	n/a	n/a	n/a	n/a	n/a	n/a	n/a	n/a	n/a	n/a	n/a	n/a	n/a	n/a
251203	REC_START	n/a	LTP263	ltpFR	9	1	n/a	n/a	n/a	n/a	n/a	n/a	0	0	0	n/a	n/a	n/a	n/a	n/a
253280	REC_WORD	wordpools/wasnorm_wordpool_less_exclusions.txt	LTP263	ltpFR	9	1	0	MAT	877	n/a	1	n/a	0	0	0	n/a	n/a	n/a	n/a	n/a
254700	REC_WORD	wordpools/wasnorm_wordpool_less_exclusions.txt	LTP263	ltpFR	9	1	0	FEMALE	559	n/a	1	n/a	0	0	0	n/a	n/a	n/a	n/a	n/a
256030	REC_WORD	wordpools/wasnorm_wordpool_less_exclusions.txt	LTP263	ltpFR	9	1	0	ANTEATER	26	n/a	1	n/a	0	0	0	n/a	n/a	n/a	n/a	n/a
258805	REC_WORD	wordpools/wasnorm_wordpool_less_exclusions.txt	LTP263	ltpFR	9	1	1	CAMEL	223	n/a	1	n/a	0	0	0	n/a	n/a	n/a	n/a	n/a
290090	REC_WORD	wordpools/wasnorm_wordpool_less_exclusions.txt	LTP263	ltpFR	9	1	n/a	VESSEL	1558	n/a	n/a	n/a	0	0	0	n/a	n/a	n/a	n/a	n/a
329502	WORD	wordpools/wasnorm_wordpool_less_exclusions.txt	LTP263	ltpFR	9	2	1	CHART	282	n/a	0	n/a	0	0	0	1	0.412841796875	0.57763671875	upper	../fonts/zerothre.ttf
333446	WORD	wordpools/wasnorm_wordpool_less_exclusions.txt	LTP263	ltpFR	9	2	1	BULL	193	n/a	1	n/a	0	0	0	1	0.412841796875	0.57763671875	upper	../fonts/zerothre.ttf
337507	WORD	wordpools/wasnorm_wordpool_less_exclusions.txt	LTP263	ltpFR	9	2	1	ENGINEER	536	n/a	1	n/a	0	0	0	1	0.412841796875	0.57763671875	upper	../fonts/zerothre.ttf
341451	WORD	wordpools/wasnorm_wordpool_less_exclusions.txt	LTP263	ltpFR	9	2	1	CABOOSE	214	n/a	0	n/a	0	0	0	1	0.412841796875	0.57763671875	upper	../fonts/zerothre.ttf
345561	WORD	wordpools/wasnorm_wordpool_less_exclusions.txt	LTP263	ltpFR	9	2	1	MARS	873	n/a	1	n/a	0	0	0	1	0.412841796875	0.57763671875	upper	../fonts/zerothre.ttf
349739	WORD	wordpools/wasnorm_wordpool_less_exclusions.txt	LTP263	ltpFR	9	2	1	PIZZA	1079	n/a	0	n/a	0	0	0	1	0.412841796875	0.57763671875	upper	../fonts/zerothre.ttf
353849	WORD	wordpools/wasnorm_wordpool_less_exclusions.txt	LTP263	ltpFR	9	2	1	FOX	598	n/a	1	n/a	0	0	0	1	0.412841796875	0.57763671875	upper	../fonts/zerothre.ttf
357976	WORD	wordpools/wasnorm_wordpool_less_exclusions.txt	LTP263	ltpFR	9	2	1	DASHBOARD	441	n/a	0	n/a	0	0	0	1	0.412841796875	0.57763671875	upper	../fonts/zerothre.ttf
361937	WORD	wordpools/wasnorm_wordpool_less_exclusions.txt	LTP263	ltpFR	9	2	1	CAMERA	224	n/a	0	n/a	0	0	0	1	0.412841796875	0.57763671875	upper	../fonts/zerothre.ttf
365765	WORD	wordpools/wasnorm_wordpool_less_exclusions.txt	LTP263	ltpFR	9	2	1	PHILOSOPHER	1054	n/a	1	n/a	0	0	0	1	0.412841796875	0.57763671875	upper	../fonts/zerothre.ttf
369592	WORD	wordpools/wasnorm_wordpool_less_exclusions.txt	LTP263	ltpFR	9	2	1	BATH	98	n/a	0	n/a	0	0	0	1	0.412841796875	0.57763671875	upper	../fonts/zerothre.ttf
373586	WORD	wordpools/wasnorm_wordpool_less_exclusions.txt	LTP263	ltpFR	9	2	1	CREEK	404	n/a	1	n/a	0	0	0	1	0.412841796875	0.57763671875	upper	../fonts/zerothre.ttf
377529	WORD	wordpools/wasnorm_wordpool_less_exclusions.txt	LTP263	ltpFR	9	2	1	BOULEVARD	156	n/a	0	n/a	0	0	0	1	0.412841796875	0.57763671875	upper	../fonts/zerothre.ttf
381641	WORD	wordpools/wasnorm_wordpool_less_exclusions.txt	LTP263	ltpFR	9	2	1	ALLEY	15	n/a	0	n/a	0	0	0	1	0.412841796875	0.57763671875	upper	../fonts/zerothre.ttf
385551	WORD	wordpools/wasnorm_wordpool_less_exclusions.txt	LTP263	ltpFR	9	2	1	BATTERY	101	n/a	0	n/a	0	0	0	1	0.412841796875	0.57763671875	upper	../fonts/zerothre.ttf
389762	WORD	wordpools/wasnorm_wordpool_less_exclusions.txt	LTP263	ltpFR	9	2	1	GOOSE	649	n/a	1	n/a	0	0	0	1	0.412841796875	0.57763671875	upper	../fonts/zerothre.ttf
392775	START	n/a	LTP263	ltpFR	9	n/a	n/a	n/a	n/a	n/a	n/a	n/a	n/a	n/a	n/a	n/a	n/a	n/a	n/a	n/a
393607	PROB	n/a	LTP263	ltpFR	9	n/a	n/a	n/a	n/a	n/a	n/a	22	5	9	8	n/a	n/a	n/a	n/a	n/a
397018	PROB	n/a	LTP263	ltpFR	9	n/a	n/a	n/a	n/a	n/a	n/a	11	5	1	5	n/a	n/a	n/a	n/a	n/a
398216	PROB	n/a	LTP263	ltpFR	9	n/a	n/a	n/a	n/a	n/a	n/a	18	4	5	9	n/a	n/a	n/a	n/a	n/a
399959	STOP	n/a	LTP263	ltpFR	9	n/a	n/a	n/a	n/a	n/a	n/a	n/a	n/a	n/a	n/a	n/a	n/a	n/a	n/a	n/a
402660	REC_START	n/a	LTP263	ltpFR	9	2	n/a	n/a	n/a	n/a	n/a	n/a	0	0	0	n/a	n/a	n/a	n/a	n/a
404685	REC_WORD	wordpools/wasnorm_wordpool_less_exclusions.txt	LTP263	ltpFR	9	2	1	FOX	598	n/a	1	n/a	0	0	0	n/a	n/a	n/a	n/a	n/a
405855	REC_WORD	wordpools/wasnorm_wordpool_less_exclusions.txt	LTP263	ltpFR	9	2	1	DASHBOARD	441	n/a	0	n/a	0	0	0	n/a	n/a	n/a	n/a	n/a
406890	REC_WORD	wordpools/wasnorm_wordpool_less_exclusions.txt	LTP263	ltpFR	9	2	1	CAMERA	224	n/a	0	n/a	0	0	0	n/a	n/a	n/a	n/a	n/a
407725	REC_WORD	wordpools/wasnorm_wordpool_less_exclusions.txt	LTP263	ltpFR	9	2	1	PHILOSOPHER	1054	n/a	1	n/a	0	0	0	n/a	n/a	n/a	n/a	n/a
410335	REC_WORD	wordpools/wasnorm_wordpool_less_exclusions.txt	LTP263	ltpFR	9	2	1	CREEK	404	n/a	1	n/a	0	0	0	n/a	n/a	n/a	n/a	n/a
411225	REC_WORD	wordpools/wasnorm_wordpool_less_exclusions.txt	LTP263	ltpFR	9	2	1	BOULEVARD	156	n/a	0	n/a	0	0	0	n/a	n/a	n/a	n/a	n/a
412155	REC_WORD	wordpools/wasnorm_wordpool_less_exclusions.txt	LTP263	ltpFR	9	2	1	ALLEY	15	n/a	0	n/a	0	0	0	n/a	n/a	n/a	n/a	n/a
413270	REC_WORD	wordpools/wasnorm_wordpool_less_exclusions.txt	LTP263	ltpFR	9	2	1	GOOSE	649	n/a	1	n/a	0	0	0	n/a	n/a	n/a	n/a	n/a
415635	REC_WORD	wordpools/wasnorm_wordpool_less_exclusions.txt	LTP263	ltpFR	9	2	1	BATTERY	101	n/a	0	n/a	0	0	0	n/a	n/a	n/a	n/a	n/a
418055	REC_WORD	wordpools/wasnorm_wordpool_less_exclusions.txt	LTP263	ltpFR	9	2	1	BATH	98	n/a	0	n/a	0	0	0	n/a	n/a	n/a	n/a	n/a
421087	REC_WORD	wordpools/wasnorm_wordpool_less_exclusions.txt	LTP263	ltpFR	9	2	1	ENGINEER	536	n/a	1	n/a	0	0	0	n/a	n/a	n/a	n/a	n/a
422258	REC_WORD	wordpools/wasnorm_wordpool_less_exclusions.txt	LTP263	ltpFR	9	2	1	BULL	193	n/a	1	n/a	0	0	0	n/a	n/a	n/a	n/a	n/a
423770	REC_WORD	wordpools/wasnorm_wordpool_less_exclusions.txt	LTP263	ltpFR	9	2	1	CABOOSE	214	n/a	0	n/a	0	0	0	n/a	n/a	n/a	n/a	n/a
425301	REC_WORD	wordpools/wasnorm_wordpool_less_exclusions.txt	LTP263	ltpFR	9	2	n/a	NOTE	958	n/a	n/a	n/a	0	0	0	n/a	n/a	n/a	n/a	n/a
480526	WORD	wordpools/wasnorm_wordpool_less_exclusions.txt	LTP263	ltpFR	9	3	0	CLOSET	326	n/a	1	n/a	0	0	0	0	0.5869140625	0.422607421875	lower	../fonts/amplitud.ttf
484704	WORD	wordpools/wasnorm_wordpool_less_exclusions.txt	LTP263	ltpFR	9	3	0	IGLOO	734	n/a	1	n/a	0	0	0	0	0.5869140625	0.422607421875	lower	../fonts/amplitud.ttf
488731	WORD	wordpools/wasnorm_wordpool_less_exclusions.txt	LTP263	ltpFR	9	3	0	VINE	1568	n/a	1	n/a	0	0	0	0	0.5869140625	0.422607421875	lower	../fonts/amplitud.ttf
492758	WORD	wordpools/wasnorm_wordpool_less_exclusions.txt	LTP263	ltpFR	9	3	0	IRON	744	n/a	0	n/a	0	0	0	0	0.5869140625	0.422607421875	lower	../fonts/amplitud.ttf
496902	WORD	wordpools/wasnorm_wordpool_less_exclusions.txt	LTP263	ltpFR	9	3	0	CLOTHES	327	n/a	1	n/a	0	0	0	0	0.5869140625	0.422607421875	lower	../fonts/amplitud.ttf
500730	WORD	wordpools/wasnorm_wordpool_less_exclusions.txt	LTP263	ltpFR	9	3	0	RAFT	1159	n/a	1	n/a	0	0	0	0	0.5869140625	0.422607421875	lower	../fonts/amplitud.ttf
504607	WORD	wordpools/wasnorm_wordpool_less_exclusions.txt	LTP263	ltpFR	9	3	0	REEF	1177	n/a	1	n/a	0	0	0	0	0.5869140625	0.422607421875	lower	../fonts/amplitud.ttf
508502	WORD	wordpools/wasnorm_wordpool_less_exclusions.txt	LTP263	ltpFR	9	3	0	COLLAR	345	n/a	0	n/a	0	0	0	0	0.5869140625	0.422607421875	lower	../fonts/amplitud.ttf
512346	WORD	wordpools/wasnorm_wordpool_less_exclusions.txt	LTP263	ltpFR	9	3	0	TOAST	1471	n/a	0	n/a	0	0	0	0	0.5869140625	0.422607421875	lower	../fonts/amplitud.ttf
516390	WORD	wordpools/wasnorm_wordpool_less_exclusions.txt	LTP263	ltpFR	9	3	0	PEAR	1033	n/a	0	n/a	0	0	0	0	0.5869140625	0.422607421875	lower	../fonts/amplitud.ttf
520401	WORD	wordpools/wasnorm_wordpool_less_exclusions.txt	LTP263	ltpFR	9	3	0	BLUEBERRY	140	n/a	0	n/a	0	0	0	0	0.5869140625	0.422607421875	lower	../fonts/amplitud.ttf
524527	WORD	wordpools/wasnorm_wordpool_less_exclusions.txt	LTP263	ltpFR	9	3	0	BOULDER	155	n/a	1	n/a	0	0	0	0	0.5869140625	0.422607421875	lower	../fonts/amplitud.ttf
528488	WORD	wordpools/wasnorm_wordpool_less_exclusions.txt	LTP263	ltpFR	9	3	0	CHAMBER	277	n/a	1	n/a	0	0	0	0	0.5869140625	0.422607421875	lower	../fonts/amplitud.ttf
532666	WORD	wordpools/wasnorm_wordpool_less_exclusions.txt	LTP263	ltpFR	9	3	0	VIOLIN	1571	n/a	1	n/a	0	0	0	0	0.5869140625	0.422607421875	lower	../fonts/amplitud.ttf
536525	WORD	wordpools/wasnorm_wordpool_less_exclusions.txt	LTP263	ltpFR	9	3	0	ANIMAL	23	n/a	1	n/a	0	0	0	0	0.5869140625	0.422607421875	lower	../fonts/amplitud.ttf
540437	WORD	wordpools/wasnorm_wordpool_less_exclusions.txt	LTP263	ltpFR	9	3	0	BEAST	108	n/a	1	n/a	0	0	0	0	0.5869140625	0.422607421875	lower	../fonts/amplitud.ttf
543450	START	n/a	LTP263	ltpFR	9	n/a	n/a	n/a	n/a	n/a	n/a	n/a	n/a	n/a	n/a	n/a	n/a	n/a	n/a	n/a
544315	PROB	n/a	LTP263	ltpFR	9	n/a	n/a	n/a	n/a	n/a	n/a	16	5	5	6	n/a	n/a	n/a	n/a	n/a
546478	PROB	n/a	LTP263	ltpFR	9	n/a	n/a	n/a	n/a	n/a	n/a	12	6	4	2	n/a	n/a	n/a	n/a	n/a
547693	PROB	n/a	LTP263	ltpFR	9	n/a	n/a	n/a	n/a	n/a	n/a	16	9	6	1	n/a	n/a	n/a	n/a	n/a
549074	PROB	n/a	LTP263	ltpFR	9	n/a	n/a	n/a	n/a	n/a	n/a	17	9	1	7	n/a	n/a	n/a	n/a	n/a
551204	PROB	n/a	LTP263	ltpFR	9	n/a	n/a	n/a	n/a	n/a	n/a	10	4	5	2	n/a	n/a	n/a	n/a	n/a
552586	PROB	n/a	LTP263	ltpFR	9	n/a	n/a	n/a	n/a	n/a	n/a	20	6	9	5	n/a	n/a	n/a	n/a	n/a
554699	PROB	n/a	LTP263	ltpFR	9	n/a	n/a	n/a	n/a	n/a	n/a	8	1	4	3	n/a	n/a	n/a	n/a	n/a
556247	PROB	n/a	LTP263	ltpFR	9	n/a	n/a	n/a	n/a	n/a	n/a	14	8	2	4	n/a	n/a	n/a	n/a	n/a
557795	PROB	n/a	LTP263	ltpFR	9	n/a	n/a	n/a	n/a	n/a	n/a	15	5	8	2	n/a	n/a	n/a	n/a	n/a
559071	STOP	n/a	LTP263	ltpFR	9	n/a	n/a	n/a	n/a	n/a	n/a	n/a	n/a	n/a	n/a	n/a	n/a	n/a	n/a	n/a
561373	REC_START	n/a	LTP263	ltpFR	9	3	n/a	n/a	n/a	n/a	n/a	n/a	0	0	0	n/a	n/a	n/a	n/a	n/a
563201	REC_WORD	wordpools/wasnorm_wordpool_less_exclusions.txt	LTP263	ltpFR	9	3	0	IGLOO	734	n/a	1	n/a	0	0	0	n/a	n/a	n/a	n/a	n/a
564786	REC_WORD	wordpools/wasnorm_wordpool_less_exclusions.txt	LTP263	ltpFR	9	3	0	CLOSET	326	n/a	1	n/a	0	0	0	n/a	n/a	n/a	n/a	n/a
565991	REC_WORD	wordpools/wasnorm_wordpool_less_exclusions.txt	LTP263	ltpFR	9	3	0	CLOTHES	327	n/a	1	n/a	0	0	0	n/a	n/a	n/a	n/a	n/a
567307	REC_WORD	wordpools/wasnorm_wordpool_less_exclusions.txt	LTP263	ltpFR	9	3	0	IRON	744	n/a	0	n/a	0	0	0	n/a	n/a	n/a	n/a	n/a
568875	REC_WORD	wordpools/wasnorm_wordpool_less_exclusions.txt	LTP263	ltpFR	9	3	0	VINE	1568	n/a	1	n/a	0	0	0	n/a	n/a	n/a	n/a	n/a
570885	REC_WORD	wordpools/wasnorm_wordpool_less_exclusions.txt	LTP263	ltpFR	9	3	0	TOAST	1471	n/a	0	n/a	0	0	0	n/a	n/a	n/a	n/a	n/a
572377	REC_WORD	wordpools/wasnorm_wordpool_less_exclusions.txt	LTP263	ltpFR	9	3	0	PEAR	1033	n/a	0	n/a	0	0	0	n/a	n/a	n/a	n/a	n/a
573702	REC_WORD	wordpools/wasnorm_wordpool_less_exclusions.txt	LTP263	ltpFR	9	3	0	BLUEBERRY	140	n/a	0	n/a	0	0	0	n/a	n/a	n/a	n/a	n/a
576417	REC_WORD	wordpools/wasnorm_wordpool_less_exclusions.txt	LTP263	ltpFR	9	3	0	RAFT	1159	n/a	1	n/a	0	0	0	n/a	n/a	n/a	n/a	n/a
579748	REC_WORD	wordpools/wasnorm_wordpool_less_exclusions.txt	LTP263	ltpFR	9	3	0	REEF	1177	n/a	1	n/a	0	0	0	n/a	n/a	n/a	n/a	n/a
582698	REC_WORD	wordpools/wasnorm_wordpool_less_exclusions.txt	LTP263	ltpFR	9	3	0	BOULDER	155	n/a	1	n/a	0	0	0	n/a	n/a	n/a	n/a	n/a
638907	WORD	wordpools/wasnorm_wordpool_less_exclusions.txt	LTP263	ltpFR	9	4	0	CRACKER	398	n/a	0	n/a	0	0	0	0	0.5869140625	0.422607421875	lower	../fonts/amplitud.ttf
642751	WORD	wordpools/wasnorm_wordpool_less_exclusions.txt	LTP263	ltpFR	9	4	0	CHEESE	289	n/a	0	n/a	0	0	0	0	0.5869140625	0.422607421875	lower	../fonts/amplitud.ttf
646662	WORD	wordpools/wasnorm_wordpool_less_exclusions.txt	LTP263	ltpFR	9	4	0	FOE	587	n/a	1	n/a	0	0	0	0	0.5869140625	0.422607421875	lower	../fonts/amplitud.ttf
650555	WORD	wordpools/wasnorm_wordpool_less_exclusions.txt	LTP263	ltpFR	9	4	0	TREAD	1499	n/a	0	n/a	0	0	0	0	0.5869140625	0.422607421875	lower	../fonts/amplitud.ttf
654717	WORD	wordpools/wasnorm_wordpool_less_exclusions.txt	LTP263	ltpFR	9	4	0	BOXER	160	n/a	1	n/a	0	0	0	0	0.5869140625	0.422607421875	lower	../fonts/amplitud.ttf
658860	WORD	wordpools/wasnorm_wordpool_less_exclusions.txt	LTP263	ltpFR	9	4	0	TANK	1432	n/a	1	n/a	0	0	0	0	0.5869140625	0.422607421875	lower	../fonts/amplitud.ttf
662805	WORD	wordpools/wasnorm_wordpool_less_exclusions.txt	LTP263	ltpFR	9	4	0	DOG	480	n/a	1	n/a	0	0	0	0	0.5869140625	0.422607421875	lower	../fonts/amplitud.ttf
666982	WORD	wordpools/wasnorm_wordpool_less_exclusions.txt	LTP263	ltpFR	9	4	0	COMPANION	357	n/a	1	n/a	0	0	0	0	0.5869140625	0.422607421875	lower	../fonts/amplitud.ttf
670909	WORD	wordpools/wasnorm_wordpool_less_exclusions.txt	LTP263	ltpFR	9	4	0	PROFESSIONAL	1130	n/a	1	n/a	0	0	0	0	0.5869140625	0.422607421875	lower	../fonts/amplitud.ttf
674986	WORD	wordpools/wasnorm_wordpool_less_exclusions.txt	LTP263	ltpFR	9	4	0	FLEET	578	n/a	1	n/a	0	0	0	0	0.5869140625	0.422607421875	lower	../fonts/amplitud.ttf
678864	WORD	wordpools/wasnorm_wordpool_less_exclusions.txt	LTP263	ltpFR	9	4	0	COMB	351	n/a	0	n/a	0	0	0	0	0.5869140625	0.422607421875	lower	../fonts/amplitud.ttf
683041	WORD	wordpools/wasnorm_wordpool_less_exclusions.txt	LTP263	ltpFR	9	4	0	YARN	1631	n/a	0	n/a	0	0	0	0	0.5869140625	0.422607421875	lower	../fonts/amplitud.ttf
687185	WORD	wordpools/wasnorm_wordpool_less_exclusions.txt	LTP263	ltpFR	9	4	0	MANSION	864	n/a	1	n/a	0	0	0	0	0.5869140625	0.422607421875	lower	../fonts/amplitud.ttf
691162	WORD	wordpools/wasnorm_wordpool_less_exclusions.txt	LTP263	ltpFR	9	4	0	APARTMENT	30	n/a	1	n/a	0	0	0	0	0.5869140625	0.422607421875	lower	../fonts/amplitud.ttf
695056	WORD	wordpools/wasnorm_wordpool_less_exclusions.txt	LTP263	ltpFR	9	4	0	CACTUS	215	n/a	1	n/a	0	0	0	0	0.5869140625	0.422607421875	lower	../fonts/amplitud.ttf
698917	WORD	wordpools/wasnorm_wordpool_less_exclusions.txt	LTP263	ltpFR	9	4	0	SKIN	1318	n/a	0	n/a	0	0	0	0	0.5869140625	0.422607421875	lower	../fonts/amplitud.ttf
701930	START	n/a	LTP263	ltpFR	9	n/a	n/a	n/a	n/a	n/a	n/a	n/a	n/a	n/a	n/a	n/a	n/a	n/a	n/a	n/a
703144	PROB	n/a	LTP263	ltpFR	9	n/a	n/a	n/a	n/a	n/a	n/a	12	4	3	5	n/a	n/a	n/a	n/a	n/a
704975	PROB	n/a	LTP263	ltpFR	9	n/a	n/a	n/a	n/a	n/a	n/a	8	3	1	4	n/a	n/a	n/a	n/a	n/a
706522	PROB	n/a	LTP263	ltpFR	9	n/a	n/a	n/a	n/a	n/a	n/a	14	7	1	6	n/a	n/a	n/a	n/a	n/a
708353	PROB	n/a	LTP263	ltpFR	9	n/a	n/a	n/a	n/a	n/a	n/a	13	5	1	7	n/a	n/a	n/a	n/a	n/a
709799	STOP	n/a	LTP263	ltpFR	9	n/a	n/a	n/a	n/a	n/a	n/a	n/a	n/a	n/a	n/a	n/a	n/a	n/a	n/a	n/a
711799	REC_START	n/a	LTP263	ltpFR	9	4	n/a	n/a	n/a	n/a	n/a	n/a	0	0	0	n/a	n/a	n/a	n/a	n/a
714597	REC_WORD	wordpools/wasnorm_wordpool_less_exclusions.txt	LTP263	ltpFR	9	4	0	FOE	587	n/a	1	n/a	0	0	0	n/a	n/a	n/a	n/a	n/a
715646	REC_WORD	wordpools/wasnorm_wordpool_less_exclusions.txt	LTP263	ltpFR	9	4	0	CRACKER	398	n/a	0	n/a	0	0	0	n/a	n/a	n/a	n/a	n/a
716616	REC_WORD	wordpools/wasnorm_wordpool_less_exclusions.txt	LTP263	ltpFR	9	4	0	CHEESE	289	n/a	0	n/a	0	0	0	n/a	n/a	n/a	n/a	n/a
717606	REC_WORD	wordpools/wasnorm_wordpool_less_exclusions.txt	LTP263	ltpFR	9	4	0	TREAD	1499	n/a	0	n/a	0	0	0	n/a	n/a	n/a	n/a	n/a
719580	REC_WORD	wordpools/wasnorm_wordpool_less_exclusions.txt	LTP263	ltpFR	9	4	0	BOXER	160	n/a	1	n/a	0	0	0	n/a	n/a	n/a	n/a	n/a
720624	REC_WORD	wordpools/wasnorm_wordpool_less_exclusions.txt	LTP263	ltpFR	9	4	0	PROFESSIONAL	1130	n/a	1	n/a	0	0	0	n/a	n/a	n/a	n/a	n/a
721905	REC_WORD	wordpools/wasnorm_wordpool_less_exclusions.txt	LTP263	ltpFR	9	4	0	DOG	480	n/a	1	n/a	0	0	0	n/a	n/a	n/a	n/a	n/a
722711	REC_WORD	wordpools/wasnorm_wordpool_less_exclusions.txt	LTP263	ltpFR	9	4	0	COMPANION	357	n/a	1	n/a	0	0	0	n/a	n/a	n/a	n/a	n/a
724224	REC_WORD	wordpools/wasnorm_wordpool_less_exclusions.txt	LTP263	ltpFR	9	4	0	TANK	1432	n/a	1	n/a	0	0	0	n/a	n/a	n/a	n/a	n/a
725492	REC_WORD	wordpools/wasnorm_wordpool_less_exclusions.txt	LTP263	ltpFR	9	4	0	MANSION	864	n/a	1	n/a	0	0	0	n/a	n/a	n/a	n/a	n/a
726596	REC_WORD	wordpools/wasnorm_wordpool_less_exclusions.txt	LTP263	ltpFR	9	4	0	APARTMENT	30	n/a	1	n/a	0	0	0	n/a	n/a	n/a	n/a	n/a
733397	REC_WORD	wordpools/wasnorm_wordpool_less_exclusions.txt	LTP263	ltpFR	9	4	0	FLEET	578	n/a	1	n/a	0	0	0	n/a	n/a	n/a	n/a	n/a
740590	REC_WORD	wordpools/wasnorm_wordpool_less_exclusions.txt	LTP263	ltpFR	9	4	0	COMB	351	n/a	0	n/a	0	0	0	n/a	n/a	n/a	n/a	n/a
741780	REC_WORD	wordpools/wasnorm_wordpool_less_exclusions.txt	LTP263	ltpFR	9	4	0	YARN	1631	n/a	0	n/a	0	0	0	n/a	n/a	n/a	n/a	n/a
787918	START	n/a	LTP263	ltpFR	9	n/a	n/a	n/a	n/a	n/a	n/a	n/a	n/a	n/a	n/a	n/a	n/a	n/a	n/a	n/a
789432	PROB	n/a	LTP263	ltpFR	9	n/a	n/a	n/a	n/a	n/a	n/a	14	3	7	4	n/a	n/a	n/a	n/a	n/a
792394	PROB	n/a	LTP263	ltpFR	9	n/a	n/a	n/a	n/a	n/a	n/a	14	4	4	6	n/a	n/a	n/a	n/a	n/a
793875	PROB	n/a	LTP263	ltpFR	9	n/a	n/a	n/a	n/a	n/a	n/a	15	1	9	5	n/a	n/a	n/a	n/a	n/a
795024	PROB	n/a	LTP263	ltpFR	9	n/a	n/a	n/a	n/a	n/a	n/a	14	8	3	4	n/a	n/a	n/a	n/a	n/a
796754	PROB	n/a	LTP263	ltpFR	9	n/a	n/a	n/a	n/a	n/a	n/a	5	3	1	1	n/a	n/a	n/a	n/a	n/a
797770	PROB	n/a	LTP263	ltpFR	9	n/a	n/a	n/a	n/a	n/a	n/a	15	7	7	1	n/a	n/a	n/a	n/a	n/a
799018	PROB	n/a	LTP263	ltpFR	9	n/a	n/a	n/a	n/a	n/a	n/a	19	6	7	4	n/a	n/a	n/a	n/a	n/a
801880	PROB	n/a	LTP263	ltpFR	9	n/a	n/a	n/a	n/a	n/a	n/a	22	9	9	4	n/a	n/a	n/a	n/a	n/a
803271	STOP	n/a	LTP263	ltpFR	9	n/a	n/a	n/a	n/a	n/a	n/a	n/a	n/a	n/a	n/a	n/a	n/a	n/a	n/a	n/a
804842	WORD	wordpools/wasnorm_wordpool_less_exclusions.txt	LTP263	ltpFR	9	5	1	RACCOON	1153	n/a	1	n/a	0	0	0	1	0.412841796875	0.57763671875	upper	../fonts/zerothre.ttf
807855	START	n/a	LTP263	ltpFR	9	n/a	n/a	n/a	n/a	n/a	n/a	n/a	n/a	n/a	n/a	n/a	n/a	n/a	n/a	n/a
808737	PROB	n/a	LTP263	ltpFR	9	n/a	n/a	n/a	n/a	n/a	n/a	6	2	2	2	n/a	n/a	n/a	n/a	n/a
809968	PROB	n/a	LTP263	ltpFR	9	n/a	n/a	n/a	n/a	n/a	n/a	16	6	2	9	n/a	n/a	n/a	n/a	n/a
813080	PROB	n/a	LTP263	ltpFR	9	n/a	n/a	n/a	n/a	n/a	n/a	16	7	1	8	n/a	n/a	n/a	n/a	n/a
814445	PROB	n/a	LTP263	ltpFR	9	n/a	n/a	n/a	n/a	n/a	n/a	19	7	8	4	n/a	n/a	n/a	n/a	n/a
816541	PROB	n/a	LTP263	ltpFR	9	n/a	n/a	n/a	n/a	n/a	n/a	21	8	8	3	n/a	n/a	n/a	n/a	n/a
819188	PROB	n/a	LTP263	ltpFR	9	n/a	n/a	n/a	n/a	n/a	n/a	20	9	8	3	n/a	n/a	n/a	n/a	n/a
823855	STOP	n/a	LTP263	ltpFR	9	n/a	n/a	n/a	n/a	n/a	n/a	n/a	n/a	n/a	n/a	n/a	n/a	n/a	n/a	n/a
824896	WORD	wordpools/wasnorm_wordpool_less_exclusions.txt	LTP263	ltpFR	9	5	1	SWIMMER	1420	n/a	1	n/a	0	0	0	1	0.412841796875	0.57763671875	upper	../fonts/zerothre.ttf
827908	START	n/a	LTP263	ltpFR	9	n/a	n/a	n/a	n/a	n/a	n/a	n/a	n/a	n/a	n/a	n/a	n/a	n/a	n/a	n/a
829073	PROB	n/a	LTP263	ltpFR	9	n/a	n/a	n/a	n/a	n/a	n/a	9	6	2	1	n/a	n/a	n/a	n/a	n/a
830937	PROB	n/a	LTP263	ltpFR	9	n/a	n/a	n/a	n/a	n/a	n/a	20	4	8	8	n/a	n/a	n/a	n/a	n/a
833050	PROB	n/a	LTP263	ltpFR	9	n/a	n/a	n/a	n/a	n/a	n/a	16	8	4	2	n/a	n/a	n/a	n/a	n/a
835413	PROB	n/a	LTP263	ltpFR	9	n/a	n/a	n/a	n/a	n/a	n/a	16	7	4	5	n/a	n/a	n/a	n/a	n/a
837144	PROB	n/a	LTP263	ltpFR	9	n/a	n/a	n/a	n/a	n/a	n/a	15	5	6	4	n/a	n/a	n/a	n/a	n/a
838609	PROB	n/a	LTP263	ltpFR	9	n/a	n/a	n/a	n/a	n/a	n/a	16	5	2	9	n/a	n/a	n/a	n/a	n/a
839990	PROB	n/a	LTP263	ltpFR	9	n/a	n/a	n/a	n/a	n/a	n/a	22	6	7	8	n/a	n/a	n/a	n/a	n/a
843908	STOP	n/a	LTP263	ltpFR	9	n/a	n/a	n/a	n/a	n/a	n/a	n/a	n/a	n/a	n/a	n/a	n/a	n/a	n/a	n/a
844816	WORD	wordpools/wasnorm_wordpool_less_exclusions.txt	LTP263	ltpFR	9	5	1	GOWN	652	n/a	0	n/a	0	0	0	1	0.412841796875	0.57763671875	upper	../fonts/zerothre.ttf
847829	START	n/a	LTP263	ltpFR	9	n/a	n/a	n/a	n/a	n/a	n/a	n/a	n/a	n/a	n/a	n/a	n/a	n/a	n/a	n/a
848710	PROB	n/a	LTP263	ltpFR	9	n/a	n/a	n/a	n/a	n/a	n/a	16	5	3	8	n/a	n/a	n/a	n/a	n/a
852222	PROB	n/a	LTP263	ltpFR	9	n/a	n/a	n/a	n/a	n/a	n/a	11	3	1	7	n/a	n/a	n/a	n/a	n/a
854735	PROB	n/a	LTP263	ltpFR	9	n/a	n/a	n/a	n/a	n/a	n/a	16	5	3	8	n/a	n/a	n/a	n/a	n/a
856382	PROB	n/a	LTP263	ltpFR	9	n/a	n/a	n/a	n/a	n/a	n/a	21	8	8	5	n/a	n/a	n/a	n/a	n/a
858978	PROB	n/a	LTP263	ltpFR	9	n/a	n/a	n/a	n/a	n/a	n/a	10	1	6	3	n/a	n/a	n/a	n/a	n/a
860508	PROB	n/a	LTP263	ltpFR	9	n/a	n/a	n/a	n/a	n/a	n/a	14	2	9	3	n/a	n/a	n/a	n/a	n/a
862074	PROB	n/a	LTP263	ltpFR	9	n/a	n/a	n/a	n/a	n/a	n/a	14	5	4	6	n/a	n/a	n/a	n/a	n/a
863439	STOP	n/a	LTP263	ltpFR	9	n/a	n/a	n/a	n/a	n/a	n/a	n/a	n/a	n/a	n/a	n/a	n/a	n/a	n/a	n/a
864953	WORD	wordpools/wasnorm_wordpool_less_exclusions.txt	LTP263	ltpFR	9	5	1	GORILLA	650	n/a	1	n/a	0	0	0	1	0.412841796875	0.57763671875	upper	../fonts/zerothre.ttf
867965	START	n/a	LTP263	ltpFR	9	n/a	n/a	n/a	n/a	n/a	n/a	n/a	n/a	n/a	n/a	n/a	n/a	n/a	n/a	n/a
868930	PROB	n/a	LTP263	ltpFR	9	n/a	n/a	n/a	n/a	n/a	n/a	13	2	8	3	n/a	n/a	n/a	n/a	n/a
870211	PROB	n/a	LTP263	ltpFR	9	n/a	n/a	n/a	n/a	n/a	n/a	11	2	4	5	n/a	n/a	n/a	n/a	n/a
871959	PROB	n/a	LTP263	ltpFR	9	n/a	n/a	n/a	n/a	n/a	n/a	15	4	9	2	n/a	n/a	n/a	n/a	n/a
873656	PROB	n/a	LTP263	ltpFR	9	n/a	n/a	n/a	n/a	n/a	n/a	23	9	5	9	n/a	n/a	n/a	n/a	n/a
876785	PROB	n/a	LTP263	ltpFR	9	n/a	n/a	n/a	n/a	n/a	n/a	20	4	8	7	n/a	n/a	n/a	n/a	n/a
879681	PROB	n/a	LTP263	ltpFR	9	n/a	n/a	n/a	n/a	n/a	n/a	17	4	9	4	n/a	n/a	n/a	n/a	n/a
883965	STOP	n/a	LTP263	ltpFR	9	n/a	n/a	n/a	n/a	n/a	n/a	n/a	n/a	n/a	n/a	n/a	n/a	n/a	n/a	n/a
884873	WORD	wordpools/wasnorm_wordpool_less_exclusions.txt	LTP263	ltpFR	9	5	0	ZUCCHINI	1638	n/a	0	n/a	0	0	0	0	0.5869140625	0.422607421875	lower	../fonts/amplitud.ttf
887885	START	n/a	LTP263	ltpFR	9	n/a	n/a	n/a	n/a	n/a	n/a	n/a	n/a	n/a	n/a	n/a	n/a	n/a	n/a	n/a
888950	PROB	n/a	LTP263	ltpFR	9	n/a	n/a	n/a	n/a	n/a	n/a	9	5	3	1	n/a	n/a	n/a	n/a	n/a
890182	PROB	n/a	LTP263	ltpFR	9	n/a	n/a	n/a	n/a	n/a	n/a	7	3	2	2	n/a	n/a	n/a	n/a	n/a
892510	PROB	n/a	LTP263	ltpFR	9	n/a	n/a	n/a	n/a	n/a	n/a	8	1	2	5	n/a	n/a	n/a	n/a	n/a
894442	PROB	n/a	LTP263	ltpFR	9	n/a	n/a	n/a	n/a	n/a	n/a	14	9	3	2	n/a	n/a	n/a	n/a	n/a
896322	PROB	n/a	LTP263	ltpFR	9	n/a	n/a	n/a	n/a	n/a	n/a	16	3	8	5	n/a	n/a	n/a	n/a	n/a
898153	PROB	n/a	LTP263	ltpFR	9	n/a	n/a	n/a	n/a	n/a	n/a	16	2	8	6	n/a	n/a	n/a	n/a	n/a
900633	PROB	n/a	LTP263	ltpFR	9	n/a	n/a	n/a	n/a	n/a	n/a	8	2	4	2	n/a	n/a	n/a	n/a	n/a
902439	STOP	n/a	LTP263	ltpFR	9	n/a	n/a	n/a	n/a	n/a	n/a	n/a	n/a	n/a	n/a	n/a	n/a	n/a	n/a	n/a
904727	WORD	wordpools/wasnorm_wordpool_less_exclusions.txt	LTP263	ltpFR	9	5	0	LETTUCE	814	n/a	0	n/a	0	0	0	0	0.5869140625	0.422607421875	lower	../fonts/amplitud.ttf
907739	START	n/a	LTP263	ltpFR	9	n/a	n/a	n/a	n/a	n/a	n/a	n/a	n/a	n/a	n/a	n/a	n/a	n/a	n/a	n/a
908737	PROB	n/a	LTP263	ltpFR	9	n/a	n/a	n/a	n/a	n/a	n/a	22	8	5	9	n/a	n/a	n/a	n/a	n/a
910701	PROB	n/a	LTP263	ltpFR	9	n/a	n/a	n/a	n/a	n/a	n/a	14	8	2	5	n/a	n/a	n/a	n/a	n/a
913697	PROB	n/a	LTP263	ltpFR	9	n/a	n/a	n/a	n/a	n/a	n/a	13	8	1	4	n/a	n/a	n/a	n/a	n/a
915993	PROB	n/a	LTP263	ltpFR	9	n/a	n/a	n/a	n/a	n/a	n/a	9	7	1	1	n/a	n/a	n/a	n/a	n/a
918140	PROB	n/a	LTP263	ltpFR	9	n/a	n/a	n/a	n/a	n/a	n/a	15	8	6	1	n/a	n/a	n/a	n/a	n/a
919821	PROB	n/a	LTP263	ltpFR	9	n/a	n/a	n/a	n/a	n/a	n/a	11	1	6	4	n/a	n/a	n/a	n/a	n/a
921335	PROB	n/a	LTP263	ltpFR	9	n/a	n/a	n/a	n/a	n/a	n/a	21	6	7	7	n/a	n/a	n/a	n/a	n/a
922783	STOP	n/a	LTP263	ltpFR	9	n/a	n/a	n/a	n/a	n/a	n/a	n/a	n/a	n/a	n/a	n/a	n/a	n/a	n/a	n/a
924580	WORD	wordpools/wasnorm_wordpool_less_exclusions.txt	LTP263	ltpFR	9	5	0	RELISH	1183	n/a	0	n/a	0	0	0	0	0.5869140625	0.422607421875	lower	../fonts/amplitud.ttf
927593	START	n/a	LTP263	ltpFR	9	n/a	n/a	n/a	n/a	n/a	n/a	n/a	n/a	n/a	n/a	n/a	n/a	n/a	n/a	n/a
928707	PROB	n/a	LTP263	ltpFR	9	n/a	n/a	n/a	n/a	n/a	n/a	13	3	8	2	n/a	n/a	n/a	n/a	n/a
930089	PROB	n/a	LTP263	ltpFR	9	n/a	n/a	n/a	n/a	n/a	n/a	16	7	8	1	n/a	n/a	n/a	n/a	n/a
931720	PROB	n/a	LTP263	ltpFR	9	n/a	n/a	n/a	n/a	n/a	n/a	17	7	1	9	n/a	n/a	n/a	n/a	n/a
933500	PROB	n/a	LTP263	ltpFR	9	n/a	n/a	n/a	n/a	n/a	n/a	17	8	4	5	n/a	n/a	n/a	n/a	n/a
935530	PROB	n/a	LTP263	ltpFR	9	n/a	n/a	n/a	n/a	n/a	n/a	14	6	1	7	n/a	n/a	n/a	n/a	n/a
937128	PROB	n/a	LTP263	ltpFR	9	n/a	n/a	n/a	n/a	n/a	n/a	17	6	9	2	n/a	n/a	n/a	n/a	n/a
938909	PROB	n/a	LTP263	ltpFR	9	n/a	n/a	n/a	n/a	n/a	n/a	18	9	5	4	n/a	n/a	n/a	n/a	n/a
940606	PROB	n/a	LTP263	ltpFR	9	n/a	n/a	n/a	n/a	n/a	n/a	15	5	9	1	n/a	n/a	n/a	n/a	n/a
941938	PROB	n/a	LTP263	ltpFR	9	n/a	n/a	n/a	n/a	n/a	n/a	12	4	4	3	n/a	n/a	n/a	n/a	n/a
943439	STOP	n/a	LTP263	ltpFR	9	n/a	n/a	n/a	n/a	n/a	n/a	n/a	n/a	n/a	n/a	n/a	n/a	n/a	n/a	n/a
944634	WORD	wordpools/wasnorm_wordpool_less_exclusions.txt	LTP263	ltpFR	9	5	0	DILL	465	n/a	n/a	n/a	0	0	0	0	0.5869140625	0.422607421875	lower	../fonts/amplitud.ttf
947662	SLOW_MSG	n/a	LTP263	ltpFR	9	5	n/a	n/a	n/a	n/a	n/a	n/a	0	0	0	n/a	n/a	n/a	n/a	n/a
949194	START	n/a	LTP263	ltpFR	9	n/a	n/a	n/a	n/a	n/a	n/a	n/a	n/a	n/a	n/a	n/a	n/a	n/a	n/a	n/a
950159	PROB	n/a	LTP263	ltpFR	9	n/a	n/a	n/a	n/a	n/a	n/a	21	8	3	9	n/a	n/a	n/a	n/a	n/a
951989	PROB	n/a	LTP263	ltpFR	9	n/a	n/a	n/a	n/a	n/a	n/a	19	4	8	7	n/a	n/a	n/a	n/a	n/a
956200	PROB	n/a	LTP263	ltpFR	9	n/a	n/a	n/a	n/a	n/a	n/a	12	5	1	6	n/a	n/a	n/a	n/a	n/a
957831	PROB	n/a	LTP263	ltpFR	9	n/a	n/a	n/a	n/a	n/a	n/a	14	4	7	3	n/a	n/a	n/a	n/a	n/a
958979	PROB	n/a	LTP263	ltpFR	9	n/a	n/a	n/a	n/a	n/a	n/a	16	4	8	3	n/a	n/a	n/a	n/a	n/a
961841	PROB	n/a	LTP263	ltpFR	9	n/a	n/a	n/a	n/a	n/a	n/a	22	7	9	4	n/a	n/a	n/a	n/a	n/a
964431	STOP	n/a	LTP263	ltpFR	9	n/a	n/a	n/a	n/a	n/a	n/a	n/a	n/a	n/a	n/a	n/a	n/a	n/a	n/a	n/a
966218	WORD	wordpools/wasnorm_wordpool_less_exclusions.txt	LTP263	ltpFR	9	5	1	EXPLOSION	544	n/a	1	n/a	0	0	0	1	0.412841796875	0.57763671875	upper	../fonts/zerothre.ttf
969231	START	n/a	LTP263	ltpFR	9	n/a	n/a	n/a	n/a	n/a	n/a	n/a	n/a	n/a	n/a	n/a	n/a	n/a	n/a	n/a
970129	PROB	n/a	LTP263	ltpFR	9	n/a	n/a	n/a	n/a	n/a	n/a	16	9	3	4	n/a	n/a	n/a	n/a	n/a
972192	PROB	n/a	LTP263	ltpFR	9	n/a	n/a	n/a	n/a	n/a	n/a	9	3	5	1	n/a	n/a	n/a	n/a	n/a
974389	PROB	n/a	LTP263	ltpFR	9	n/a	n/a	n/a	n/a	n/a	n/a	14	3	9	2	n/a	n/a	n/a	n/a	n/a
976286	PROB	n/a	LTP263	ltpFR	9	n/a	n/a	n/a	n/a	n/a	n/a	12	7	2	3	n/a	n/a	n/a	n/a	n/a
979282	PROB	n/a	LTP263	ltpFR	9	n/a	n/a	n/a	n/a	n/a	n/a	26	7	9	9	n/a	n/a	n/a	n/a	n/a
985231	STOP	n/a	LTP263	ltpFR	9	n/a	n/a	n/a	n/a	n/a	n/a	n/a	n/a	n/a	n/a	n/a	n/a	n/a	n/a	n/a
986205	WORD	wordpools/wasnorm_wordpool_less_exclusions.txt	LTP263	ltpFR	9	5	1	VETERAN	1561	n/a	1	n/a	0	0	0	1	0.412841796875	0.57763671875	upper	../fonts/zerothre.ttf
989218	START	n/a	LTP263	ltpFR	9	n/a	n/a	n/a	n/a	n/a	n/a	n/a	n/a	n/a	n/a	n/a	n/a	n/a	n/a	n/a
990166	PROB	n/a	LTP263	ltpFR	9	n/a	n/a	n/a	n/a	n/a	n/a	9	3	3	3	n/a	n/a	n/a	n/a	n/a
991597	PROB	n/a	LTP263	ltpFR	9	n/a	n/a	n/a	n/a	n/a	n/a	9	2	4	3	n/a	n/a	n/a	n/a	n/a
994193	PROB	n/a	LTP263	ltpFR	9	n/a	n/a	n/a	n/a	n/a	n/a	11	3	7	1	n/a	n/a	n/a	n/a	n/a
995557	PROB	n/a	LTP263	ltpFR	9	n/a	n/a	n/a	n/a	n/a	n/a	18	7	7	4	n/a	n/a	n/a	n/a	n/a
997537	PROB	n/a	LTP263	ltpFR	9	n/a	n/a	n/a	n/a	n/a	n/a	14	6	4	4	n/a	n/a	n/a	n/a	n/a
999036	PROB	n/a	LTP263	ltpFR	9	n/a	n/a	n/a	n/a	n/a	n/a	11	4	3	4	n/a	n/a	n/a	n/a	n/a
1001049	PROB	n/a	LTP263	ltpFR	9	n/a	n/a	n/a	n/a	n/a	n/a	11	3	7	1	n/a	n/a	n/a	n/a	n/a
1002314	PROB	n/a	LTP263	ltpFR	9	n/a	n/a	n/a	n/a	n/a	n/a	15	8	1	6	n/a	n/a	n/a	n/a	n/a
1004255	STOP	n/a	LTP263	ltpFR	9	n/a	n/a	n/a	n/a	n/a	n/a	n/a	n/a	n/a	n/a	n/a	n/a	n/a	n/a	n/a
1006391	WORD	wordpools/wasnorm_wordpool_less_exclusions.txt	LTP263	ltpFR	9	5	0	MONKEY	911	n/a	1	n/a	0	0	0	0	0.5869140625	0.422607421875	lower	../fonts/amplitud.ttf
1009404	START	n/a	LTP263	ltpFR	9	n/a	n/a	n/a	n/a	n/a	n/a	n/a	n/a	n/a	n/a	n/a	n/a	n/a	n/a	n/a
1010585	PROB	n/a	LTP263	ltpFR	9	n/a	n/a	n/a	n/a	n/a	n/a	16	1	6	9	n/a	n/a	n/a	n/a	n/a
1012982	PROB	n/a	LTP263	ltpFR	9	n/a	n/a	n/a	n/a	n/a	n/a	12	5	5	2	n/a	n/a	n/a	n/a	n/a
1014196	PROB	n/a	LTP263	ltpFR	9	n/a	n/a	n/a	n/a	n/a	n/a	10	1	4	5	n/a	n/a	n/a	n/a	n/a
1015510	PROB	n/a	LTP263	ltpFR	9	n/a	n/a	n/a	n/a	n/a	n/a	7	3	3	1	n/a	n/a	n/a	n/a	n/a
1018723	PROB	n/a	LTP263	ltpFR	9	n/a	n/a	n/a	n/a	n/a	n/a	8	2	5	1	n/a	n/a	n/a	n/a	n/a
1020670	PROB	n/a	LTP263	ltpFR	9	n/a	n/a	n/a	n/a	n/a	n/a	19	4	5	7	n/a	n/a	n/a	n/a	n/a
1022401	PROB	n/a	LTP263	ltpFR	9	n/a	n/a	n/a	n/a	n/a	n/a	15	5	1	9	n/a	n/a	n/a	n/a	n/a
1024383	STOP	n/a	LTP263	ltpFR	9	n/a	n/a	n/a	n/a	n/a	n/a	n/a	n/a	n/a	n/a	n/a	n/a	n/a	n/a	n/a
1026611	WORD	wordpools/wasnorm_wordpool_less_exclusions.txt	LTP263	ltpFR	9	5	0	STREET	1393	n/a	1	n/a	0	0	0	0	0.5869140625	0.422607421875	lower	../fonts/amplitud.ttf
1029624	START	n/a	LTP263	ltpFR	9	n/a	n/a	n/a	n/a	n/a	n/a	n/a	n/a	n/a	n/a	n/a	n/a	n/a	n/a	n/a
1030822	PROB	n/a	LTP263	ltpFR	9	n/a	n/a	n/a	n/a	n/a	n/a	24	8	8	8	n/a	n/a	n/a	n/a	n/a
1033751	PROB	n/a	LTP263	ltpFR	9	n/a	n/a	n/a	n/a	n/a	n/a	13	8	1	4	n/a	n/a	n/a	n/a	n/a
1035514	PROB	n/a	LTP263	ltpFR	9	n/a	n/a	n/a	n/a	n/a	n/a	17	3	9	5	n/a	n/a	n/a	n/a	n/a
1039658	PROB	n/a	LTP263	ltpFR	9	n/a	n/a	n/a	n/a	n/a	n/a	15	9	5	1	n/a	n/a	n/a	n/a	n/a
1041672	PROB	n/a	LTP263	ltpFR	9	n/a	n/a	n/a	n/a	n/a	n/a	9	6	2	1	n/a	n/a	n/a	n/a	n/a
1045624	STOP	n/a	LTP263	ltpFR	9	n/a	n/a	n/a	n/a	n/a	n/a	n/a	n/a	n/a	n/a	n/a	n/a	n/a	n/a	n/a
1046681	WORD	wordpools/wasnorm_wordpool_less_exclusions.txt	LTP263	ltpFR	9	5	0	FLASK	576	n/a	0	n/a	0	0	0	0	0.5869140625	0.422607421875	lower	../fonts/amplitud.ttf
1049694	START	n/a	LTP263	ltpFR	9	n/a	n/a	n/a	n/a	n/a	n/a	n/a	n/a	n/a	n/a	n/a	n/a	n/a	n/a	n/a
1050642	PROB	n/a	LTP263	ltpFR	9	n/a	n/a	n/a	n/a	n/a	n/a	17	6	8	3	n/a	n/a	n/a	n/a	n/a
1054353	PROB	n/a	LTP263	ltpFR	9	n/a	n/a	n/a	n/a	n/a	n/a	16	3	6	7	n/a	n/a	n/a	n/a	n/a
1055868	PROB	n/a	LTP263	ltpFR	9	n/a	n/a	n/a	n/a	n/a	n/a	11	5	3	3	n/a	n/a	n/a	n/a	n/a
1057948	PROB	n/a	LTP263	ltpFR	9	n/a	n/a	n/a	n/a	n/a	n/a	12	9	2	1	n/a	n/a	n/a	n/a	n/a
1059878	PROB	n/a	LTP263	ltpFR	9	n/a	n/a	n/a	n/a	n/a	n/a	18	4	7	7	n/a	n/a	n/a	n/a	n/a
1061609	PROB	n/a	LTP263	ltpFR	9	n/a	n/a	n/a	n/a	n/a	n/a	9	3	2	4	n/a	n/a	n/a	n/a	n/a
1063323	PROB	n/a	LTP263	ltpFR	9	n/a	n/a	n/a	n/a	n/a	n/a	15	9	4	2	n/a	n/a	n/a	n/a	n/a
1064855	STOP	n/a	LTP263	ltpFR	9	n/a	n/a	n/a	n/a	n/a	n/a	n/a	n/a	n/a	n/a	n/a	n/a	n/a	n/a	n/a
1066668	WORD	wordpools/wasnorm_wordpool_less_exclusions.txt	LTP263	ltpFR	9	5	0	ROUGE	1213	n/a	0	n/a	0	0	0	0	0.5869140625	0.422607421875	lower	../fonts/amplitud.ttf
1069681	START	n/a	LTP263	ltpFR	9	n/a	n/a	n/a	n/a	n/a	n/a	n/a	n/a	n/a	n/a	n/a	n/a	n/a	n/a	n/a
1070545	PROB	n/a	LTP263	ltpFR	9	n/a	n/a	n/a	n/a	n/a	n/a	17	5	7	5	n/a	n/a	n/a	n/a	n/a
1072593	PROB	n/a	LTP263	ltpFR	9	n/a	n/a	n/a	n/a	n/a	n/a	13	5	4	4	n/a	n/a	n/a	n/a	n/a
1077152	PROB	n/a	LTP263	ltpFR	9	n/a	n/a	n/a	n/a	n/a	n/a	13	4	1	7	n/a	n/a	n/a	n/a	n/a
1080098	PROB	n/a	LTP263	ltpFR	9	n/a	n/a	n/a	n/a	n/a	n/a	12	8	2	2	n/a	n/a	n/a	n/a	n/a
1081795	PROB	n/a	LTP263	ltpFR	9	n/a	n/a	n/a	n/a	n/a	n/a	19	4	8	7	n/a	n/a	n/a	n/a	n/a
1084743	STOP	n/a	LTP263	ltpFR	9	n/a	n/a	n/a	n/a	n/a	n/a	n/a	n/a	n/a	n/a	n/a	n/a	n/a	n/a	n/a
1086855	WORD	wordpools/wasnorm_wordpool_less_exclusions.txt	LTP263	ltpFR	9	5	1	SNORKEL	1336	n/a	0	n/a	0	0	0	1	0.412841796875	0.57763671875	upper	../fonts/zerothre.ttf
1089867	START	n/a	LTP263	ltpFR	9	n/a	n/a	n/a	n/a	n/a	n/a	n/a	n/a	n/a	n/a	n/a	n/a	n/a	n/a	n/a
1090998	PROB	n/a	LTP263	ltpFR	9	n/a	n/a	n/a	n/a	n/a	n/a	16	5	7	4	n/a	n/a	n/a	n/a	n/a
1094443	PROB	n/a	LTP263	ltpFR	9	n/a	n/a	n/a	n/a	n/a	n/a	11	4	3	4	n/a	n/a	n/a	n/a	n/a
1096291	PROB	n/a	LTP263	ltpFR	9	n/a	n/a	n/a	n/a	n/a	n/a	19	9	8	2	n/a	n/a	n/a	n/a	n/a
1098604	PROB	n/a	LTP263	ltpFR	9	n/a	n/a	n/a	n/a	n/a	n/a	15	5	3	7	n/a	n/a	n/a	n/a	n/a
1100118	PROB	n/a	LTP263	ltpFR	9	n/a	n/a	n/a	n/a	n/a	n/a	13	8	1	4	n/a	n/a	n/a	n/a	n/a
1102365	PROB	n/a	LTP263	ltpFR	9	n/a	n/a	n/a	n/a	n/a	n/a	22	8	6	8	n/a	n/a	n/a	n/a	n/a
1105867	STOP	n/a	LTP263	ltpFR	9	n/a	n/a	n/a	n/a	n/a	n/a	n/a	n/a	n/a	n/a	n/a	n/a	n/a	n/a	n/a
1106775	WORD	wordpools/wasnorm_wordpool_less_exclusions.txt	LTP263	ltpFR	9	5	1	BIOLOGIST	128	n/a	n/a	n/a	0	0	0	1	0.412841796875	0.57763671875	upper	../fonts/zerothre.ttf
1109804	SLOW_MSG	n/a	LTP263	ltpFR	9	5	n/a	n/a	n/a	n/a	n/a	n/a	0	0	0	n/a	n/a	n/a	n/a	n/a
1111335	START	n/a	LTP263	ltpFR	9	n/a	n/a	n/a	n/a	n/a	n/a	n/a	n/a	n/a	n/a	n/a	n/a	n/a	n/a	n/a
1112500	PROB	n/a	LTP263	ltpFR	9	n/a	n/a	n/a	n/a	n/a	n/a	11	6	4	1	n/a	n/a	n/a	n/a	n/a
1113530	PROB	n/a	LTP263	ltpFR	9	n/a	n/a	n/a	n/a	n/a	n/a	9	6	1	2	n/a	n/a	n/a	n/a	n/a
1115345	PROB	n/a	LTP263	ltpFR	9	n/a	n/a	n/a	n/a	n/a	n/a	20	9	9	2	n/a	n/a	n/a	n/a	n/a
1117276	PROB	n/a	LTP263	ltpFR	9	n/a	n/a	n/a	n/a	n/a	n/a	14	1	9	4	n/a	n/a	n/a	n/a	n/a
1118556	PROB	n/a	LTP263	ltpFR	9	n/a	n/a	n/a	n/a	n/a	n/a	5	1	2	2	n/a	n/a	n/a	n/a	n/a
1119772	PROB	n/a	LTP263	ltpFR	9	n/a	n/a	n/a	n/a	n/a	n/a	20	9	6	5	n/a	n/a	n/a	n/a	n/a
1121669	PROB	n/a	LTP263	ltpFR	9	n/a	n/a	n/a	n/a	n/a	n/a	19	1	9	9	n/a	n/a	n/a	n/a	n/a
1123067	PROB	n/a	LTP263	ltpFR	9	n/a	n/a	n/a	n/a	n/a	n/a	16	8	6	2	n/a	n/a	n/a	n/a	n/a
1127335	STOP	n/a	LTP263	ltpFR	9	n/a	n/a	n/a	n/a	n/a	n/a	n/a	n/a	n/a	n/a	n/a	n/a	n/a	n/a	n/a
1129242	REC_START	n/a	LTP263	ltpFR	9	5	n/a	n/a	n/a	n/a	n/a	n/a	0	0	0	n/a	n/a	n/a	n/a	n/a
1135638	REC_WORD	wordpools/wasnorm_wordpool_less_exclusions.txt	LTP263	ltpFR	9	5	1	BIOLOGIST	128	n/a	n/a	n/a	0	0	0	n/a	n/a	n/a	n/a	n/a
1148440	REC_WORD	wordpools/wasnorm_wordpool_less_exclusions.txt	LTP263	ltpFR	9	5	0	MONKEY	911	n/a	1	n/a	0	0	0	n/a	n/a	n/a	n/a	n/a
1161500	REC_WORD	wordpools/wasnorm_wordpool_less_exclusions.txt	LTP263	ltpFR	9	5	0	ZUCCHINI	1638	n/a	0	n/a	0	0	0	n/a	n/a	n/a	n/a	n/a
1164429	REC_WORD	wordpools/wasnorm_wordpool_less_exclusions.txt	LTP263	ltpFR	9	5	0	LETTUCE	814	n/a	0	n/a	0	0	0	n/a	n/a	n/a	n/a	n/a
1205761	START	n/a	LTP263	ltpFR	9	n/a	n/a	n/a	n/a	n/a	n/a	n/a	n/a	n/a	n/a	n/a	n/a	n/a	n/a	n/a
1207275	PROB	n/a	LTP263	ltpFR	9	n/a	n/a	n/a	n/a	n/a	n/a	17	5	8	4	n/a	n/a	n/a	n/a	n/a
1210087	PROB	n/a	LTP263	ltpFR	9	n/a	n/a	n/a	n/a	n/a	n/a	16	3	6	7	n/a	n/a	n/a	n/a	n/a
1212201	PROB	n/a	LTP263	ltpFR	9	n/a	n/a	n/a	n/a	n/a	n/a	16	4	3	9	n/a	n/a	n/a	n/a	n/a
1213711	STOP	n/a	LTP263	ltpFR	9	n/a	n/a	n/a	n/a	n/a	n/a	n/a	n/a	n/a	n/a	n/a	n/a	n/a	n/a	n/a
1214930	WORD	wordpools/wasnorm_wordpool_less_exclusions.txt	LTP263	ltpFR	9	6	0	CAKE	219	n/a	0	n/a	0	0	0	0	0.5869140625	0.422607421875	lower	../fonts/amplitud.ttf
1217943	START	n/a	LTP263	ltpFR	9	n/a	n/a	n/a	n/a	n/a	n/a	n/a	n/a	n/a	n/a	n/a	n/a	n/a	n/a	n/a
1218991	PROB	n/a	LTP263	ltpFR	9	n/a	n/a	n/a	n/a	n/a	n/a	19	9	1	9	n/a	n/a	n/a	n/a	n/a
1221254	PROB	n/a	LTP263	ltpFR	9	n/a	n/a	n/a	n/a	n/a	n/a	15	2	9	4	n/a	n/a	n/a	n/a	n/a
1225942	STOP	n/a	LTP263	ltpFR	9	n/a	n/a	n/a	n/a	n/a	n/a	n/a	n/a	n/a	n/a	n/a	n/a	n/a	n/a	n/a
1226929	WORD	wordpools/wasnorm_wordpool_less_exclusions.txt	LTP263	ltpFR	9	6	0	FUDGE	611	n/a	0	n/a	0	0	0	0	0.5869140625	0.422607421875	lower	../fonts/amplitud.ttf
1229941	START	n/a	LTP263	ltpFR	9	n/a	n/a	n/a	n/a	n/a	n/a	n/a	n/a	n/a	n/a	n/a	n/a	n/a	n/a	n/a
1230939	PROB	n/a	LTP263	ltpFR	9	n/a	n/a	n/a	n/a	n/a	n/a	22	6	8	9	n/a	n/a	n/a	n/a	n/a
1232387	PROB	n/a	LTP263	ltpFR	9	n/a	n/a	n/a	n/a	n/a	n/a	17	5	5	7	n/a	n/a	n/a	n/a	n/a
1233535	PROB	n/a	LTP263	ltpFR	9	n/a	n/a	n/a	n/a	n/a	n/a	8	1	3	4	n/a	n/a	n/a	n/a	n/a
1237941	STOP	n/a	LTP263	ltpFR	9	n/a	n/a	n/a	n/a	n/a	n/a	n/a	n/a	n/a	n/a	n/a	n/a	n/a	n/a	n/a
1239144	WORD	wordpools/wasnorm_wordpool_less_exclusions.txt	LTP263	ltpFR	9	6	1	WALL	1582	n/a	1	n/a	0	0	0	1	0.412841796875	0.57763671875	upper	../fonts/zerothre.ttf
1242156	START	n/a	LTP263	ltpFR	9	n/a	n/a	n/a	n/a	n/a	n/a	n/a	n/a	n/a	n/a	n/a	n/a	n/a	n/a	n/a
1243221	PROB	n/a	LTP263	ltpFR	9	n/a	n/a	n/a	n/a	n/a	n/a	8	1	6	1	n/a	n/a	n/a	n/a	n/a
1244486	PROB	n/a	LTP263	ltpFR	9	n/a	n/a	n/a	n/a	n/a	n/a	21	8	6	6	n/a	n/a	n/a	n/a	n/a
1248911	STOP	n/a	LTP263	ltpFR	9	n/a	n/a	n/a	n/a	n/a	n/a	n/a	n/a	n/a	n/a	n/a	n/a	n/a	n/a	n/a
1251009	WORD	wordpools/wasnorm_wordpool_less_exclusions.txt	LTP263	ltpFR	9	6	1	ARTIST	43	n/a	1	n/a	0	0	0	1	0.412841796875	0.57763671875	upper	../fonts/zerothre.ttf
1254022	START	n/a	LTP263	ltpFR	9	n/a	n/a	n/a	n/a	n/a	n/a	n/a	n/a	n/a	n/a	n/a	n/a	n/a	n/a	n/a
1255087	PROB	n/a	LTP263	ltpFR	9	n/a	n/a	n/a	n/a	n/a	n/a	14	5	8	1	n/a	n/a	n/a	n/a	n/a
1257600	PROB	n/a	LTP263	ltpFR	9	n/a	n/a	n/a	n/a	n/a	n/a	8	1	1	6	n/a	n/a	n/a	n/a	n/a
1258731	PROB	n/a	LTP263	ltpFR	9	n/a	n/a	n/a	n/a	n/a	n/a	12	4	4	3	n/a	n/a	n/a	n/a	n/a
1262022	STOP	n/a	LTP263	ltpFR	9	n/a	n/a	n/a	n/a	n/a	n/a	n/a	n/a	n/a	n/a	n/a	n/a	n/a	n/a	n/a
1263041	WORD	wordpools/wasnorm_wordpool_less_exclusions.txt	LTP263	ltpFR	9	6	1	CHEF	290	n/a	1	n/a	0	0	0	1	0.412841796875	0.57763671875	upper	../fonts/zerothre.ttf
1266054	START	n/a	LTP263	ltpFR	9	n/a	n/a	n/a	n/a	n/a	n/a	n/a	n/a	n/a	n/a	n/a	n/a	n/a	n/a	n/a
1266986	PROB	n/a	LTP263	ltpFR	9	n/a	n/a	n/a	n/a	n/a	n/a	22	8	8	9	n/a	n/a	n/a	n/a	n/a
1268417	PROB	n/a	LTP263	ltpFR	9	n/a	n/a	n/a	n/a	n/a	n/a	10	4	5	1	n/a	n/a	n/a	n/a	n/a
1269698	PROB	n/a	LTP263	ltpFR	9	n/a	n/a	n/a	n/a	n/a	n/a	20	4	9	7	n/a	n/a	n/a	n/a	n/a
1272703	STOP	n/a	LTP263	ltpFR	9	n/a	n/a	n/a	n/a	n/a	n/a	n/a	n/a	n/a	n/a	n/a	n/a	n/a	n/a	n/a
1275240	WORD	wordpools/wasnorm_wordpool_less_exclusions.txt	LTP263	ltpFR	9	6	1	WILDERNESS	1610	n/a	1	n/a	0	0	0	1	0.412841796875	0.57763671875	upper	../fonts/zerothre.ttf
1278253	START	n/a	LTP263	ltpFR	9	n/a	n/a	n/a	n/a	n/a	n/a	n/a	n/a	n/a	n/a	n/a	n/a	n/a	n/a	n/a
1279084	PROB	n/a	LTP263	ltpFR	9	n/a	n/a	n/a	n/a	n/a	n/a	16	2	6	8	n/a	n/a	n/a	n/a	n/a
1280649	PROB	n/a	LTP263	ltpFR	9	n/a	n/a	n/a	n/a	n/a	n/a	17	9	1	7	n/a	n/a	n/a	n/a	n/a
1281897	PROB	n/a	LTP263	ltpFR	9	n/a	n/a	n/a	n/a	n/a	n/a	18	8	9	1	n/a	n/a	n/a	n/a	n/a
1283411	PROB	n/a	LTP263	ltpFR	9	n/a	n/a	n/a	n/a	n/a	n/a	16	9	4	3	n/a	n/a	n/a	n/a	n/a
1284927	STOP	n/a	LTP263	ltpFR	9	n/a	n/a	n/a	n/a	n/a	n/a	n/a	n/a	n/a	n/a	n/a	n/a	n/a	n/a	n/a
1287322	WORD	wordpools/wasnorm_wordpool_less_exclusions.txt	LTP263	ltpFR	9	6	0	SISTER	1312	n/a	1	n/a	0	0	0	0	0.5869140625	0.422607421875	lower	../fonts/amplitud.ttf
1290335	START	n/a	LTP263	ltpFR	9	n/a	n/a	n/a	n/a	n/a	n/a	n/a	n/a	n/a	n/a	n/a	n/a	n/a	n/a	n/a
1291316	PROB	n/a	LTP263	ltpFR	9	n/a	n/a	n/a	n/a	n/a	n/a	14	1	4	9	n/a	n/a	n/a	n/a	n/a
1292830	PROB	n/a	LTP263	ltpFR	9	n/a	n/a	n/a	n/a	n/a	n/a	16	7	3	6	n/a	n/a	n/a	n/a	n/a
1294078	PROB	n/a	LTP263	ltpFR	9	n/a	n/a	n/a	n/a	n/a	n/a	12	2	1	8	n/a	n/a	n/a	n/a	n/a
1298335	STOP	n/a	LTP263	ltpFR	9	n/a	n/a	n/a	n/a	n/a	n/a	n/a	n/a	n/a	n/a	n/a	n/a	n/a	n/a	n/a
1299553	WORD	wordpools/wasnorm_wordpool_less_exclusions.txt	LTP263	ltpFR	9	6	0	CORN	381	n/a	0	n/a	0	0	0	0	0.5869140625	0.422607421875	lower	../fonts/amplitud.ttf
1302565	START	n/a	LTP263	ltpFR	9	n/a	n/a	n/a	n/a	n/a	n/a	n/a	n/a	n/a	n/a	n/a	n/a	n/a	n/a	n/a
1303648	PROB	n/a	LTP263	ltpFR	9	n/a	n/a	n/a	n/a	n/a	n/a	7	1	5	1	n/a	n/a	n/a	n/a	n/a
1305179	PROB	n/a	LTP263	ltpFR	9	n/a	n/a	n/a	n/a	n/a	n/a	22	6	9	8	n/a	n/a	n/a	n/a	n/a
1306693	PROB	n/a	LTP263	ltpFR	9	n/a	n/a	n/a	n/a	n/a	n/a	13	3	5	5	n/a	n/a	n/a	n/a	n/a
1307908	PROB	n/a	LTP263	ltpFR	9	n/a	n/a	n/a	n/a	n/a	n/a	20	8	8	4	n/a	n/a	n/a	n/a	n/a
1309526	STOP	n/a	LTP263	ltpFR	9	n/a	n/a	n/a	n/a	n/a	n/a	n/a	n/a	n/a	n/a	n/a	n/a	n/a	n/a	n/a
1311719	WORD	wordpools/wasnorm_wordpool_less_exclusions.txt	LTP263	ltpFR	9	6	1	MOUSE	925	n/a	1	n/a	0	0	0	1	0.412841796875	0.57763671875	upper	../fonts/zerothre.ttf
1314732	START	n/a	LTP263	ltpFR	9	n/a	n/a	n/a	n/a	n/a	n/a	n/a	n/a	n/a	n/a	n/a	n/a	n/a	n/a	n/a
1315929	PROB	n/a	LTP263	ltpFR	9	n/a	n/a	n/a	n/a	n/a	n/a	12	8	3	1	n/a	n/a	n/a	n/a	n/a
1317810	PROB	n/a	LTP263	ltpFR	9	n/a	n/a	n/a	n/a	n/a	n/a	11	1	6	4	n/a	n/a	n/a	n/a	n/a
1319108	PROB	n/a	LTP263	ltpFR	9	n/a	n/a	n/a	n/a	n/a	n/a	17	5	7	5	n/a	n/a	n/a	n/a	n/a
1320789	PROB	n/a	LTP263	ltpFR	9	n/a	n/a	n/a	n/a	n/a	n/a	18	8	7	3	n/a	n/a	n/a	n/a	n/a
1322247	STOP	n/a	LTP263	ltpFR	9	n/a	n/a	n/a	n/a	n/a	n/a	n/a	n/a	n/a	n/a	n/a	n/a	n/a	n/a	n/a
1323684	WORD	wordpools/wasnorm_wordpool_less_exclusions.txt	LTP263	ltpFR	9	6	1	TOTE	1487	n/a	0	n/a	0	0	0	1	0.412841796875	0.57763671875	upper	../fonts/zerothre.ttf
1326697	START	n/a	LTP263	ltpFR	9	n/a	n/a	n/a	n/a	n/a	n/a	n/a	n/a	n/a	n/a	n/a	n/a	n/a	n/a	n/a
1327662	PROB	n/a	LTP263	ltpFR	9	n/a	n/a	n/a	n/a	n/a	n/a	13	1	6	6	n/a	n/a	n/a	n/a	n/a
1328877	PROB	n/a	LTP263	ltpFR	9	n/a	n/a	n/a	n/a	n/a	n/a	19	8	7	4	n/a	n/a	n/a	n/a	n/a
1330990	PROB	n/a	LTP263	ltpFR	9	n/a	n/a	n/a	n/a	n/a	n/a	19	6	7	6	n/a	n/a	n/a	n/a	n/a
1333327	STOP	n/a	LTP263	ltpFR	9	n/a	n/a	n/a	n/a	n/a	n/a	n/a	n/a	n/a	n/a	n/a	n/a	n/a	n/a	n/a
1335833	WORD	wordpools/wasnorm_wordpool_less_exclusions.txt	LTP263	ltpFR	9	6	1	PARENT	1013	n/a	1	n/a	0	0	0	1	0.412841796875	0.57763671875	upper	../fonts/zerothre.ttf
1338845	START	n/a	LTP263	ltpFR	9	n/a	n/a	n/a	n/a	n/a	n/a	n/a	n/a	n/a	n/a	n/a	n/a	n/a	n/a	n/a
1339877	PROB	n/a	LTP263	ltpFR	9	n/a	n/a	n/a	n/a	n/a	n/a	17	3	6	8	n/a	n/a	n/a	n/a	n/a
1342822	PROB	n/a	LTP263	ltpFR	9	n/a	n/a	n/a	n/a	n/a	n/a	13	4	6	3	n/a	n/a	n/a	n/a	n/a
1343954	PROB	n/a	LTP263	ltpFR	9	n/a	n/a	n/a	n/a	n/a	n/a	19	5	4	7	n/a	n/a	n/a	n/a	n/a
1345495	STOP	n/a	LTP263	ltpFR	9	n/a	n/a	n/a	n/a	n/a	n/a	n/a	n/a	n/a	n/a	n/a	n/a	n/a	n/a	n/a
1347748	WORD	wordpools/wasnorm_wordpool_less_exclusions.txt	LTP263	ltpFR	9	6	1	PANTHER	1009	n/a	1	n/a	0	0	0	1	0.412841796875	0.57763671875	upper	../fonts/zerothre.ttf
1350761	START	n/a	LTP263	ltpFR	9	n/a	n/a	n/a	n/a	n/a	n/a	n/a	n/a	n/a	n/a	n/a	n/a	n/a	n/a	n/a
1351709	PROB	n/a	LTP263	ltpFR	9	n/a	n/a	n/a	n/a	n/a	n/a	15	9	2	4	n/a	n/a	n/a	n/a	n/a
1354537	PROB	n/a	LTP263	ltpFR	9	n/a	n/a	n/a	n/a	n/a	n/a	14	7	1	6	n/a	n/a	n/a	n/a	n/a
1356186	PROB	n/a	LTP263	ltpFR	9	n/a	n/a	n/a	n/a	n/a	n/a	13	3	1	9	n/a	n/a	n/a	n/a	n/a
1357319	STOP	n/a	LTP263	ltpFR	9	n/a	n/a	n/a	n/a	n/a	n/a	n/a	n/a	n/a	n/a	n/a	n/a	n/a	n/a	n/a
1359830	WORD	wordpools/wasnorm_wordpool_less_exclusions.txt	LTP263	ltpFR	9	6	0	SACK	1220	n/a	1	n/a	0	0	0	0	0.5869140625	0.422607421875	lower	../fonts/amplitud.ttf
1362843	START	n/a	LTP263	ltpFR	9	n/a	n/a	n/a	n/a	n/a	n/a	n/a	n/a	n/a	n/a	n/a	n/a	n/a	n/a	n/a
1363941	PROB	n/a	LTP263	ltpFR	9	n/a	n/a	n/a	n/a	n/a	n/a	16	5	4	7	n/a	n/a	n/a	n/a	n/a
1366986	PROB	n/a	LTP263	ltpFR	9	n/a	n/a	n/a	n/a	n/a	n/a	17	7	1	9	n/a	n/a	n/a	n/a	n/a
1368817	PROB	n/a	LTP263	ltpFR	9	n/a	n/a	n/a	n/a	n/a	n/a	13	7	2	3	n/a	n/a	n/a	n/a	n/a
1370423	STOP	n/a	LTP263	ltpFR	9	n/a	n/a	n/a	n/a	n/a	n/a	n/a	n/a	n/a	n/a	n/a	n/a	n/a	n/a	n/a
1371762	WORD	wordpools/wasnorm_wordpool_less_exclusions.txt	LTP263	ltpFR	9	6	0	BLOUSE	139	n/a	1	n/a	0	0	0	0	0.5869140625	0.422607421875	lower	../fonts/amplitud.ttf
1374775	START	n/a	LTP263	ltpFR	9	n/a	n/a	n/a	n/a	n/a	n/a	n/a	n/a	n/a	n/a	n/a	n/a	n/a	n/a	n/a
1375740	PROB	n/a	LTP263	ltpFR	9	n/a	n/a	n/a	n/a	n/a	n/a	9	2	1	6	n/a	n/a	n/a	n/a	n/a
1378236	PROB	n/a	LTP263	ltpFR	9	n/a	n/a	n/a	n/a	n/a	n/a	19	5	9	5	n/a	n/a	n/a	n/a	n/a
1380300	PROB	n/a	LTP263	ltpFR	9	n/a	n/a	n/a	n/a	n/a	n/a	18	5	6	7	n/a	n/a	n/a	n/a	n/a
1381687	STOP	n/a	LTP263	ltpFR	9	n/a	n/a	n/a	n/a	n/a	n/a	n/a	n/a	n/a	n/a	n/a	n/a	n/a	n/a	n/a
1383961	WORD	wordpools/wasnorm_wordpool_less_exclusions.txt	LTP263	ltpFR	9	6	0	TUNA	1518	n/a	0	n/a	0	0	0	0	0.5869140625	0.422607421875	lower	../fonts/amplitud.ttf
1386974	START	n/a	LTP263	ltpFR	9	n/a	n/a	n/a	n/a	n/a	n/a	n/a	n/a	n/a	n/a	n/a	n/a	n/a	n/a	n/a
1387988	PROB	n/a	LTP263	ltpFR	9	n/a	n/a	n/a	n/a	n/a	n/a	15	4	6	5	n/a	n/a	n/a	n/a	n/a
1390618	PROB	n/a	LTP263	ltpFR	9	n/a	n/a	n/a	n/a	n/a	n/a	9	2	6	1	n/a	n/a	n/a	n/a	n/a
1392032	PROB	n/a	LTP263	ltpFR	9	n/a	n/a	n/a	n/a	n/a	n/a	193	9	2	4	n/a	n/a	n/a	n/a	n/a
1394799	STOP	n/a	LTP263	ltpFR	9	n/a	n/a	n/a	n/a	n/a	n/a	n/a	n/a	n/a	n/a	n/a	n/a	n/a	n/a	n/a
1396143	WORD	wordpools/wasnorm_wordpool_less_exclusions.txt	LTP263	ltpFR	9	6	0	FISH	571	n/a	0	n/a	0	0	0	0	0.5869140625	0.422607421875	lower	../fonts/amplitud.ttf
1399155	START	n/a	LTP263	ltpFR	9	n/a	n/a	n/a	n/a	n/a	n/a	n/a	n/a	n/a	n/a	n/a	n/a	n/a	n/a	n/a
1400070	PROB	n/a	LTP263	ltpFR	9	n/a	n/a	n/a	n/a	n/a	n/a	22	8	8	7	n/a	n/a	n/a	n/a	n/a
1402150	PROB	n/a	LTP263	ltpFR	9	n/a	n/a	n/a	n/a	n/a	n/a	16	6	3	7	n/a	n/a	n/a	n/a	n/a
1404314	PROB	n/a	LTP263	ltpFR	9	n/a	n/a	n/a	n/a	n/a	n/a	14	1	4	9	n/a	n/a	n/a	n/a	n/a
1405927	STOP	n/a	LTP263	ltpFR	9	n/a	n/a	n/a	n/a	n/a	n/a	n/a	n/a	n/a	n/a	n/a	n/a	n/a	n/a	n/a
1408941	REC_START	n/a	LTP263	ltpFR	9	6	n/a	n/a	n/a	n/a	n/a	n/a	0	0	0	n/a	n/a	n/a	n/a	n/a
1410855	REC_WORD_VV	wordpools/wasnorm_wordpool_less_exclusions.txt	LTP263	ltpFR	9	6	n/a	<>	-1	n/a	n/a	n/a	0	0	0	n/a	n/a	n/a	n/a	n/a
1411596	REC_WORD_VV	wordpools/wasnorm_wordpool_less_exclusions.txt	LTP263	ltpFR	9	6	n/a	<>	-1	n/a	n/a	n/a	0	0	0	n/a	n/a	n/a	n/a	n/a
1412445	REC_WORD	wordpools/wasnorm_wordpool_less_exclusions.txt	LTP263	ltpFR	9	6	1	PANTHER	1009	n/a	1	n/a	0	0	0	n/a	n/a	n/a	n/a	n/a
1414462	REC_WORD	wordpools/wasnorm_wordpool_less_exclusions.txt	LTP263	ltpFR	9	6	0	FUDGE	611	n/a	0	n/a	0	0	0	n/a	n/a	n/a	n/a	n/a
1415709	REC_WORD	wordpools/wasnorm_wordpool_less_exclusions.txt	LTP263	ltpFR	9	6	0	CAKE	219	n/a	0	n/a	0	0	0	n/a	n/a	n/a	n/a	n/a
1427245	REC_WORD	wordpools/wasnorm_wordpool_less_exclusions.txt	LTP263	ltpFR	9	6	n/a	BAG	69	n/a	n/a	n/a	0	0	0	n/a	n/a	n/a	n/a	n/a
1486940	WORD	wordpools/wasnorm_wordpool_less_exclusions.txt	LTP263	ltpFR	9	7	1	BURGLAR	200	n/a	1	n/a	0	0	0	1	0.412841796875	0.57763671875	upper	../fonts/zerothre.ttf
1490768	WORD	wordpools/wasnorm_wordpool_less_exclusions.txt	LTP263	ltpFR	9	7	1	INN	739	n/a	1	n/a	0	0	0	1	0.412841796875	0.57763671875	upper	../fonts/zerothre.ttf
1494779	WORD	wordpools/wasnorm_wordpool_less_exclusions.txt	LTP263	ltpFR	9	7	1	ARTICLE	42	n/a	0	n/a	0	0	0	1	0.412841796875	0.57763671875	upper	../fonts/zerothre.ttf
1498756	WORD	wordpools/wasnorm_wordpool_less_exclusions.txt	LTP263	ltpFR	9	7	1	BUGGY	188	n/a	0	n/a	0	0	0	1	0.412841796875	0.57763671875	upper	../fonts/zerothre.ttf
1502650	WORD	wordpools/wasnorm_wordpool_less_exclusions.txt	LTP263	ltpFR	9	7	1	CHAUFFEUR	283	n/a	1	n/a	0	0	0	1	0.412841796875	0.57763671875	upper	../fonts/zerothre.ttf
1506594	WORD	wordpools/wasnorm_wordpool_less_exclusions.txt	LTP263	ltpFR	9	7	1	WORM	1623	n/a	0	n/a	0	0	0	1	0.412841796875	0.57763671875	upper	../fonts/zerothre.ttf
1510738	WORD	wordpools/wasnorm_wordpool_less_exclusions.txt	LTP263	ltpFR	9	7	0	CAR	241	n/a	1	n/a	0	0	0	0	0.5869140625	0.422607421875	lower	../fonts/amplitud.ttf
1514599	WORD	wordpools/wasnorm_wordpool_less_exclusions.txt	LTP263	ltpFR	9	7	0	PAWN	1030	n/a	0	n/a	0	0	0	0	0.5869140625	0.422607421875	lower	../fonts/amplitud.ttf
1518710	WORD	wordpools/wasnorm_wordpool_less_exclusions.txt	LTP263	ltpFR	9	7	1	LOBSTER	837	n/a	1	n/a	0	0	0	1	0.412841796875	0.57763671875	upper	../fonts/zerothre.ttf
1522887	WORD	wordpools/wasnorm_wordpool_less_exclusions.txt	LTP263	ltpFR	9	7	1	BAKER	71	n/a	1	n/a	0	0	0	1	0.412841796875	0.57763671875	upper	../fonts/zerothre.ttf
1526881	WORD	wordpools/wasnorm_wordpool_less_exclusions.txt	LTP263	ltpFR	9	7	0	TOASTER	1472	n/a	0	n/a	0	0	0	0	0.5869140625	0.422607421875	lower	../fonts/amplitud.ttf
1530758	WORD	wordpools/wasnorm_wordpool_less_exclusions.txt	LTP263	ltpFR	9	7	0	POWDER	1117	n/a	0	n/a	0	0	0	0	0.5869140625	0.422607421875	lower	../fonts/amplitud.ttf
1534636	WORD	wordpools/wasnorm_wordpool_less_exclusions.txt	LTP263	ltpFR	9	7	0	EYELASH	546	n/a	0	n/a	0	0	0	0	0.5869140625	0.422607421875	lower	../fonts/amplitud.ttf
1538713	WORD	wordpools/wasnorm_wordpool_less_exclusions.txt	LTP263	ltpFR	9	7	0	MONEY	908	n/a	0	n/a	0	0	0	0	0.5869140625	0.422607421875	lower	../fonts/amplitud.ttf
1542907	WORD	wordpools/wasnorm_wordpool_less_exclusions.txt	LTP263	ltpFR	9	7	0	HAMMER	680	n/a	0	n/a	0	0	0	0	0.5869140625	0.422607421875	lower	../fonts/amplitud.ttf
1546785	WORD	wordpools/wasnorm_wordpool_less_exclusions.txt	LTP263	ltpFR	9	7	0	LIMOUSINE	824	n/a	1	n/a	0	0	0	0	0.5869140625	0.422607421875	lower	../fonts/amplitud.ttf
1552643	REC_START	n/a	LTP263	ltpFR	9	7	n/a	n/a	n/a	n/a	n/a	n/a	0	0	0	n/a	n/a	n/a	n/a	n/a
1554201	REC_WORD	wordpools/wasnorm_wordpool_less_exclusions.txt	LTP263	ltpFR	9	7	1	BURGLAR	200	n/a	1	n/a	0	0	0	n/a	n/a	n/a	n/a	n/a
1555296	REC_WORD	wordpools/wasnorm_wordpool_less_exclusions.txt	LTP263	ltpFR	9	7	1	INN	739	n/a	1	n/a	0	0	0	n/a	n/a	n/a	n/a	n/a
1557198	REC_WORD	wordpools/wasnorm_wordpool_less_exclusions.txt	LTP263	ltpFR	9	7	1	ARTICLE	42	n/a	0	n/a	0	0	0	n/a	n/a	n/a	n/a	n/a
1559040	REC_WORD	wordpools/wasnorm_wordpool_less_exclusions.txt	LTP263	ltpFR	9	7	0	TOASTER	1472	n/a	0	n/a	0	0	0	n/a	n/a	n/a	n/a	n/a
1559896	REC_WORD	wordpools/wasnorm_wordpool_less_exclusions.txt	LTP263	ltpFR	9	7	0	POWDER	1117	n/a	0	n/a	0	0	0	n/a	n/a	n/a	n/a	n/a
1560717	REC_WORD	wordpools/wasnorm_wordpool_less_exclusions.txt	LTP263	ltpFR	9	7	0	EYELASH	546	n/a	0	n/a	0	0	0	n/a	n/a	n/a	n/a	n/a
1561717	REC_WORD_VV	wordpools/wasnorm_wordpool_less_exclusions.txt	LTP263	ltpFR	9	7	n/a	<>	-1	n/a	n/a	n/a	0	0	0	n/a	n/a	n/a	n/a	n/a
1563193	REC_WORD	wordpools/wasnorm_wordpool_less_exclusions.txt	LTP263	ltpFR	9	7	0	MONEY	908	n/a	0	n/a	0	0	0	n/a	n/a	n/a	n/a	n/a
1564005	REC_WORD	wordpools/wasnorm_wordpool_less_exclusions.txt	LTP263	ltpFR	9	7	0	HAMMER	680	n/a	0	n/a	0	0	0	n/a	n/a	n/a	n/a	n/a
1565071	REC_WORD	wordpools/wasnorm_wordpool_less_exclusions.txt	LTP263	ltpFR	9	7	1	CHAUFFEUR	283	n/a	1	n/a	0	0	0	n/a	n/a	n/a	n/a	n/a
1566422	REC_WORD	wordpools/wasnorm_wordpool_less_exclusions.txt	LTP263	ltpFR	9	7	1	BUGGY	188	n/a	0	n/a	0	0	0	n/a	n/a	n/a	n/a	n/a
1567681	REC_WORD	wordpools/wasnorm_wordpool_less_exclusions.txt	LTP263	ltpFR	9	7	0	LIMOUSINE	824	n/a	1	n/a	0	0	0	n/a	n/a	n/a	n/a	n/a
1569684	REC_WORD	wordpools/wasnorm_wordpool_less_exclusions.txt	LTP263	ltpFR	9	7	1	WORM	1623	n/a	0	n/a	0	0	0	n/a	n/a	n/a	n/a	n/a
1573557	REC_WORD	wordpools/wasnorm_wordpool_less_exclusions.txt	LTP263	ltpFR	9	7	1	BAKER	71	n/a	1	n/a	0	0	0	n/a	n/a	n/a	n/a	n/a
1574777	REC_WORD	wordpools/wasnorm_wordpool_less_exclusions.txt	LTP263	ltpFR	9	7	1	LOBSTER	837	n/a	1	n/a	0	0	0	n/a	n/a	n/a	n/a	n/a
1579670	REC_WORD	wordpools/wasnorm_wordpool_less_exclusions.txt	LTP263	ltpFR	9	7	0	CAR	241	n/a	1	n/a	0	0	0	n/a	n/a	n/a	n/a	n/a
1615731	REC_WORD	wordpools/wasnorm_wordpool_less_exclusions.txt	LTP263	ltpFR	9	7	0	PAWN	1030	n/a	0	n/a	0	0	0	n/a	n/a	n/a	n/a	n/a
1631242	WORD	wordpools/wasnorm_wordpool_less_exclusions.txt	LTP263	ltpFR	9	8	0	ORCHESTRA	981	n/a	1	n/a	0	0	0	0	0.5869140625	0.422607421875	lower	../fonts/amplitud.ttf
1635153	WORD	wordpools/wasnorm_wordpool_less_exclusions.txt	LTP263	ltpFR	9	8	0	VEAL	1551	n/a	0	n/a	0	0	0	0	0.5869140625	0.422607421875	lower	../fonts/amplitud.ttf
1639063	WORD	wordpools/wasnorm_wordpool_less_exclusions.txt	LTP263	ltpFR	9	8	0	DUCK	504	n/a	0	n/a	0	0	0	0	0.5869140625	0.422607421875	lower	../fonts/amplitud.ttf
1642941	WORD	wordpools/wasnorm_wordpool_less_exclusions.txt	LTP263	ltpFR	9	8	0	ARCHITECT	36	n/a	1	n/a	0	0	0	0	0.5869140625	0.422607421875	lower	../fonts/amplitud.ttf
1646918	WORD	wordpools/wasnorm_wordpool_less_exclusions.txt	LTP263	ltpFR	9	8	0	ENGINE	535	n/a	1	n/a	0	0	0	0	0.5869140625	0.422607421875	lower	../fonts/amplitud.ttf
1650846	WORD	wordpools/wasnorm_wordpool_less_exclusions.txt	LTP263	ltpFR	9	8	0	DIAMOND	458	n/a	0	n/a	0	0	0	0	0.5869140625	0.422607421875	lower	../fonts/amplitud.ttf
1654873	WORD	wordpools/wasnorm_wordpool_less_exclusions.txt	LTP263	ltpFR	9	8	0	RANCH	1166	n/a	1	n/a	0	0	0	0	0.5869140625	0.422607421875	lower	../fonts/amplitud.ttf
1659017	WORD	wordpools/wasnorm_wordpool_less_exclusions.txt	LTP263	ltpFR	9	8	0	CONDUCTOR	362	n/a	1	n/a	0	0	0	0	0.5869140625	0.422607421875	lower	../fonts/amplitud.ttf
1663028	WORD	wordpools/wasnorm_wordpool_less_exclusions.txt	LTP263	ltpFR	9	8	0	MOON	914	n/a	1	n/a	0	0	0	0	0.5869140625	0.422607421875	lower	../fonts/amplitud.ttf
1667138	WORD	wordpools/wasnorm_wordpool_less_exclusions.txt	LTP263	ltpFR	9	8	0	COMET	353	n/a	1	n/a	0	0	0	0	0.5869140625	0.422607421875	lower	../fonts/amplitud.ttf
1670982	WORD	wordpools/wasnorm_wordpool_less_exclusions.txt	LTP263	ltpFR	9	8	0	CHIME	300	n/a	0	n/a	0	0	0	0	0.5869140625	0.422607421875	lower	../fonts/amplitud.ttf
1675010	WORD	wordpools/wasnorm_wordpool_less_exclusions.txt	LTP263	ltpFR	9	8	0	GREASE	660	n/a	0	n/a	0	0	0	0	0.5869140625	0.422607421875	lower	../fonts/amplitud.ttf
1679120	WORD	wordpools/wasnorm_wordpool_less_exclusions.txt	LTP263	ltpFR	9	8	0	SWAMP	1416	n/a	1	n/a	0	0	0	0	0.5869140625	0.422607421875	lower	../fonts/amplitud.ttf
1683214	WORD	wordpools/wasnorm_wordpool_less_exclusions.txt	LTP263	ltpFR	9	8	0	COFFEE	341	n/a	0	n/a	0	0	0	0	0.5869140625	0.422607421875	lower	../fonts/amplitud.ttf
1687191	WORD	wordpools/wasnorm_wordpool_less_exclusions.txt	LTP263	ltpFR	9	8	0	CHERRY	293	n/a	0	n/a	0	0	0	0	0.5869140625	0.422607421875	lower	../fonts/amplitud.ttf
1691036	WORD	wordpools/wasnorm_wordpool_less_exclusions.txt	LTP263	ltpFR	9	8	0	BEET	115	n/a	0	n/a	0	0	0	0	0.5869140625	0.422607421875	lower	../fonts/amplitud.ttf
1694048	START	n/a	LTP263	ltpFR	9	n/a	n/a	n/a	n/a	n/a	n/a	n/a	n/a	n/a	n/a	n/a	n/a	n/a	n/a	n/a
1695063	PROB	n/a	LTP263	ltpFR	9	n/a	n/a	n/a	n/a	n/a	n/a	18	8	7	3	n/a	n/a	n/a	n/a	n/a
1696727	PROB	n/a	LTP263	ltpFR	9	n/a	n/a	n/a	n/a	n/a	n/a	8	1	3	4	n/a	n/a	n/a	n/a	n/a
1698391	PROB	n/a	LTP263	ltpFR	9	n/a	n/a	n/a	n/a	n/a	n/a	26	7	9	9	n/a	n/a	n/a	n/a	n/a
1701135	STOP	n/a	LTP263	ltpFR	9	n/a	n/a	n/a	n/a	n/a	n/a	n/a	n/a	n/a	n/a	n/a	n/a	n/a	n/a	n/a
1703884	REC_START	n/a	LTP263	ltpFR	9	8	n/a	n/a	n/a	n/a	n/a	n/a	0	0	0	n/a	n/a	n/a	n/a	n/a
1705361	REC_WORD	wordpools/wasnorm_wordpool_less_exclusions.txt	LTP263	ltpFR	9	8	0	COFFEE	341	n/a	0	n/a	0	0	0	n/a	n/a	n/a	n/a	n/a
1706050	REC_WORD	wordpools/wasnorm_wordpool_less_exclusions.txt	LTP263	ltpFR	9	8	0	SWAMP	1416	n/a	1	n/a	0	0	0	n/a	n/a	n/a	n/a	n/a
1707080	REC_WORD	wordpools/wasnorm_wordpool_less_exclusions.txt	LTP263	ltpFR	9	8	0	CHIME	300	n/a	0	n/a	0	0	0	n/a	n/a	n/a	n/a	n/a
1707885	REC_WORD	wordpools/wasnorm_wordpool_less_exclusions.txt	LTP263	ltpFR	9	8	0	CHERRY	293	n/a	0	n/a	0	0	0	n/a	n/a	n/a	n/a	n/a
1709877	REC_WORD	wordpools/wasnorm_wordpool_less_exclusions.txt	LTP263	ltpFR	9	8	0	BEET	115	n/a	0	n/a	0	0	0	n/a	n/a	n/a	n/a	n/a
1712031	REC_WORD	wordpools/wasnorm_wordpool_less_exclusions.txt	LTP263	ltpFR	9	8	0	ORCHESTRA	981	n/a	1	n/a	0	0	0	n/a	n/a	n/a	n/a	n/a
1713041	REC_WORD	wordpools/wasnorm_wordpool_less_exclusions.txt	LTP263	ltpFR	9	8	0	VEAL	1551	n/a	0	n/a	0	0	0	n/a	n/a	n/a	n/a	n/a
1713924	REC_WORD	wordpools/wasnorm_wordpool_less_exclusions.txt	LTP263	ltpFR	9	8	0	DUCK	504	n/a	0	n/a	0	0	0	n/a	n/a	n/a	n/a	n/a
1714604	REC_WORD	wordpools/wasnorm_wordpool_less_exclusions.txt	LTP263	ltpFR	9	8	0	CONDUCTOR	362	n/a	1	n/a	0	0	0	n/a	n/a	n/a	n/a	n/a
1717055	REC_WORD	wordpools/wasnorm_wordpool_less_exclusions.txt	LTP263	ltpFR	9	8	0	ENGINE	535	n/a	1	n/a	0	0	0	n/a	n/a	n/a	n/a	n/a
1719400	REC_WORD	wordpools/wasnorm_wordpool_less_exclusions.txt	LTP263	ltpFR	9	8	0	ARCHITECT	36	n/a	1	n/a	0	0	0	n/a	n/a	n/a	n/a	n/a
1745806	REC_WORD	wordpools/wasnorm_wordpool_less_exclusions.txt	LTP263	ltpFR	9	8	0	COFFEE	341	n/a	0	n/a	0	0	0	n/a	n/a	n/a	n/a	n/a
1780702	START	n/a	LTP263	ltpFR	9	n/a	n/a	n/a	n/a	n/a	n/a	n/a	n/a	n/a	n/a	n/a	n/a	n/a	n/a	n/a
1782216	PROB	n/a	LTP263	ltpFR	9	n/a	n/a	n/a	n/a	n/a	n/a	16	6	5	5	n/a	n/a	n/a	n/a	n/a
1783797	PROB	n/a	LTP263	ltpFR	9	n/a	n/a	n/a	n/a	n/a	n/a	20	5	9	6	n/a	n/a	n/a	n/a	n/a
1787059	PROB	n/a	LTP263	ltpFR	9	n/a	n/a	n/a	n/a	n/a	n/a	16	5	6	4	n/a	n/a	n/a	n/a	n/a
1788239	STOP	n/a	LTP263	ltpFR	9	n/a	n/a	n/a	n/a	n/a	n/a	n/a	n/a	n/a	n/a	n/a	n/a	n/a	n/a	n/a
1789805	WORD	wordpools/wasnorm_wordpool_less_exclusions.txt	LTP263	ltpFR	9	9	0	CARNIVAL	245	n/a	1	n/a	0	0	0	0	0.5869140625	0.422607421875	lower	../fonts/amplitud.ttf
1792817	START	n/a	LTP263	ltpFR	9	n/a	n/a	n/a	n/a	n/a	n/a	n/a	n/a	n/a	n/a	n/a	n/a	n/a	n/a	n/a
1793732	PROB	n/a	LTP263	ltpFR	9	n/a	n/a	n/a	n/a	n/a	n/a	16	3	3	9	n/a	n/a	n/a	n/a	n/a
1795164	PROB	n/a	LTP263	ltpFR	9	n/a	n/a	n/a	n/a	n/a	n/a	12	4	6	2	n/a	n/a	n/a	n/a	n/a
1796561	PROB	n/a	LTP263	ltpFR	9	n/a	n/a	n/a	n/a	n/a	n/a	21	9	9	3	n/a	n/a	n/a	n/a	n/a
1797993	PROB	n/a	LTP263	ltpFR	9	n/a	n/a	n/a	n/a	n/a	n/a	13	9	2	2	n/a	n/a	n/a	n/a	n/a
1800439	STOP	n/a	LTP263	ltpFR	9	n/a	n/a	n/a	n/a	n/a	n/a	n/a	n/a	n/a	n/a	n/a	n/a	n/a	n/a	n/a
1801837	WORD	wordpools/wasnorm_wordpool_less_exclusions.txt	LTP263	ltpFR	9	9	0	GYMNAST	675	n/a	1	n/a	0	0	0	0	0.5869140625	0.422607421875	lower	../fonts/amplitud.ttf
1804850	START	n/a	LTP263	ltpFR	9	n/a	n/a	n/a	n/a	n/a	n/a	n/a	n/a	n/a	n/a	n/a	n/a	n/a	n/a	n/a
1806047	PROB	n/a	LTP263	ltpFR	9	n/a	n/a	n/a	n/a	n/a	n/a	17	7	8	2	n/a	n/a	n/a	n/a	n/a
1809259	PROB	n/a	LTP263	ltpFR	9	n/a	n/a	n/a	n/a	n/a	n/a	21	8	8	5	n/a	n/a	n/a	n/a	n/a
1810607	PROB	n/a	LTP263	ltpFR	9	n/a	n/a	n/a	n/a	n/a	n/a	9	5	3	1	n/a	n/a	n/a	n/a	n/a
1811863	STOP	n/a	LTP263	ltpFR	9	n/a	n/a	n/a	n/a	n/a	n/a	n/a	n/a	n/a	n/a	n/a	n/a	n/a	n/a	n/a
1813703	WORD	wordpools/wasnorm_wordpool_less_exclusions.txt	LTP263	ltpFR	9	9	1	GRADUATE	653	n/a	1	n/a	0	0	0	1	0.412841796875	0.57763671875	upper	../fonts/zerothre.ttf
1816715	START	n/a	LTP263	ltpFR	9	n/a	n/a	n/a	n/a	n/a	n/a	n/a	n/a	n/a	n/a	n/a	n/a	n/a	n/a	n/a
1817780	PROB	n/a	LTP263	ltpFR	9	n/a	n/a	n/a	n/a	n/a	n/a	17	6	9	2	n/a	n/a	n/a	n/a	n/a
1820309	PROB	n/a	LTP263	ltpFR	9	n/a	n/a	n/a	n/a	n/a	n/a	13	6	6	3	n/a	n/a	n/a	n/a	n/a
1822939	PROB	n/a	LTP263	ltpFR	9	n/a	n/a	n/a	n/a	n/a	n/a	12	4	8	1	n/a	n/a	n/a	n/a	n/a
1824351	STOP	n/a	LTP263	ltpFR	9	n/a	n/a	n/a	n/a	n/a	n/a	n/a	n/a	n/a	n/a	n/a	n/a	n/a	n/a	n/a
1825868	WORD	wordpools/wasnorm_wordpool_less_exclusions.txt	LTP263	ltpFR	9	9	1	LABYRINTH	791	n/a	0	n/a	0	0	0	1	0.412841796875	0.57763671875	upper	../fonts/zerothre.ttf
1828880	START	n/a	LTP263	ltpFR	9	n/a	n/a	n/a	n/a	n/a	n/a	n/a	n/a	n/a	n/a	n/a	n/a	n/a	n/a	n/a
1829978	PROB	n/a	LTP263	ltpFR	9	n/a	n/a	n/a	n/a	n/a	n/a	20	7	6	7	n/a	n/a	n/a	n/a	n/a
1832874	PROB	n/a	LTP263	ltpFR	9	n/a	n/a	n/a	n/a	n/a	n/a	18	4	5	9	n/a	n/a	n/a	n/a	n/a
1834322	PROB	n/a	LTP263	ltpFR	9	n/a	n/a	n/a	n/a	n/a	n/a	13	3	3	7	n/a	n/a	n/a	n/a	n/a
1836263	STOP	n/a	LTP263	ltpFR	9	n/a	n/a	n/a	n/a	n/a	n/a	n/a	n/a	n/a	n/a	n/a	n/a	n/a	n/a	n/a
1837800	WORD	wordpools/wasnorm_wordpool_less_exclusions.txt	LTP263	ltpFR	9	9	1	HERD	705	n/a	0	n/a	0	0	0	1	0.412841796875	0.57763671875	upper	../fonts/zerothre.ttf
1840813	START	n/a	LTP263	ltpFR	9	n/a	n/a	n/a	n/a	n/a	n/a	n/a	n/a	n/a	n/a	n/a	n/a	n/a	n/a	n/a
1842010	PROB	n/a	LTP263	ltpFR	9	n/a	n/a	n/a	n/a	n/a	n/a	19	6	5	8	n/a	n/a	n/a	n/a	n/a
1843808	PROB	n/a	LTP263	ltpFR	9	n/a	n/a	n/a	n/a	n/a	n/a	15	7	7	1	n/a	n/a	n/a	n/a	n/a
1844939	PROB	n/a	LTP263	ltpFR	9	n/a	n/a	n/a	n/a	n/a	n/a	13	4	8	1	n/a	n/a	n/a	n/a	n/a
1848271	STOP	n/a	LTP263	ltpFR	9	n/a	n/a	n/a	n/a	n/a	n/a	n/a	n/a	n/a	n/a	n/a	n/a	n/a	n/a	n/a
1850032	WORD	wordpools/wasnorm_wordpool_less_exclusions.txt	LTP263	ltpFR	9	9	1	THREAD	1460	n/a	0	n/a	0	0	0	1	0.412841796875	0.57763671875	upper	../fonts/zerothre.ttf
1853044	START	n/a	LTP263	ltpFR	9	n/a	n/a	n/a	n/a	n/a	n/a	n/a	n/a	n/a	n/a	n/a	n/a	n/a	n/a	n/a
1853876	PROB	n/a	LTP263	ltpFR	9	n/a	n/a	n/a	n/a	n/a	n/a	12	3	5	4	n/a	n/a	n/a	n/a	n/a
1857936	PROB	n/a	LTP263	ltpFR	9	n/a	n/a	n/a	n/a	n/a	n/a	17	8	1	8	n/a	n/a	n/a	n/a	n/a
1859235	PROB	n/a	LTP263	ltpFR	9	n/a	n/a	n/a	n/a	n/a	n/a	16	6	4	6	n/a	n/a	n/a	n/a	n/a
1860367	STOP	n/a	LTP263	ltpFR	9	n/a	n/a	n/a	n/a	n/a	n/a	n/a	n/a	n/a	n/a	n/a	n/a	n/a	n/a	n/a
1862047	WORD	wordpools/wasnorm_wordpool_less_exclusions.txt	LTP263	ltpFR	9	9	0	PELT	1040	n/a	0	n/a	0	0	0	0	0.5869140625	0.422607421875	lower	../fonts/amplitud.ttf
1865060	START	n/a	LTP263	ltpFR	9	n/a	n/a	n/a	n/a	n/a	n/a	n/a	n/a	n/a	n/a	n/a	n/a	n/a	n/a	n/a
1866074	PROB	n/a	LTP263	ltpFR	9	n/a	n/a	n/a	n/a	n/a	n/a	22	8	9	5	n/a	n/a	n/a	n/a	n/a
1868637	PROB	n/a	LTP263	ltpFR	9	n/a	n/a	n/a	n/a	n/a	n/a	9	2	4	3	n/a	n/a	n/a	n/a	n/a
1873060	STOP	n/a	LTP263	ltpFR	9	n/a	n/a	n/a	n/a	n/a	n/a	n/a	n/a	n/a	n/a	n/a	n/a	n/a	n/a	n/a
1874212	WORD	wordpools/wasnorm_wordpool_less_exclusions.txt	LTP263	ltpFR	9	9	0	FARM	552	n/a	1	n/a	0	0	0	0	0.5869140625	0.422607421875	lower	../fonts/amplitud.ttf
1877225	START	n/a	LTP263	ltpFR	9	n/a	n/a	n/a	n/a	n/a	n/a	n/a	n/a	n/a	n/a	n/a	n/a	n/a	n/a	n/a
1878256	PROB	n/a	LTP263	ltpFR	9	n/a	n/a	n/a	n/a	n/a	n/a	16	6	5	5	n/a	n/a	n/a	n/a	n/a
1879754	PROB	n/a	LTP263	ltpFR	9	n/a	n/a	n/a	n/a	n/a	n/a	10	1	5	4	n/a	n/a	n/a	n/a	n/a
1881168	PROB	n/a	LTP263	ltpFR	9	n/a	n/a	n/a	n/a	n/a	n/a	20	9	3	8	n/a	n/a	n/a	n/a	n/a
1882833	PROB	n/a	LTP263	ltpFR	9	n/a	n/a	n/a	n/a	n/a	n/a	13	3	5	5	n/a	n/a	n/a	n/a	n/a
1883935	STOP	n/a	LTP263	ltpFR	9	n/a	n/a	n/a	n/a	n/a	n/a	n/a	n/a	n/a	n/a	n/a	n/a	n/a	n/a	n/a
1886228	WORD	wordpools/wasnorm_wordpool_less_exclusions.txt	LTP263	ltpFR	9	9	0	SICKLE	1302	n/a	0	n/a	0	0	0	0	0.5869140625	0.422607421875	lower	../fonts/amplitud.ttf
1889240	START	n/a	LTP263	ltpFR	9	n/a	n/a	n/a	n/a	n/a	n/a	n/a	n/a	n/a	n/a	n/a	n/a	n/a	n/a	n/a
1890072	PROB	n/a	LTP263	ltpFR	9	n/a	n/a	n/a	n/a	n/a	n/a	17	9	1	7	n/a	n/a	n/a	n/a	n/a
1891353	PROB	n/a	LTP263	ltpFR	9	n/a	n/a	n/a	n/a	n/a	n/a	20	6	5	9	n/a	n/a	n/a	n/a	n/a
1893700	PROB	n/a	LTP263	ltpFR	9	n/a	n/a	n/a	n/a	n/a	n/a	17	9	7	1	n/a	n/a	n/a	n/a	n/a
1895247	PROB	n/a	LTP263	ltpFR	9	n/a	n/a	n/a	n/a	n/a	n/a	6	1	3	2	n/a	n/a	n/a	n/a	n/a
1896711	STOP	n/a	LTP263	ltpFR	9	n/a	n/a	n/a	n/a	n/a	n/a	n/a	n/a	n/a	n/a	n/a	n/a	n/a	n/a	n/a
1898210	WORD	wordpools/wasnorm_wordpool_less_exclusions.txt	LTP263	ltpFR	9	9	1	PERCH	1048	n/a	1	n/a	0	0	0	1	0.412841796875	0.57763671875	upper	../fonts/zerothre.ttf
1901222	START	n/a	LTP263	ltpFR	9	n/a	n/a	n/a	n/a	n/a	n/a	n/a	n/a	n/a	n/a	n/a	n/a	n/a	n/a	n/a
1902437	PROB	n/a	LTP263	ltpFR	9	n/a	n/a	n/a	n/a	n/a	n/a	10	1	3	6	n/a	n/a	n/a	n/a	n/a
1904301	PROB	n/a	LTP263	ltpFR	9	n/a	n/a	n/a	n/a	n/a	n/a	12	2	4	6	n/a	n/a	n/a	n/a	n/a
1905748	PROB	n/a	LTP263	ltpFR	9	n/a	n/a	n/a	n/a	n/a	n/a	13	4	3	6	n/a	n/a	n/a	n/a	n/a
1907080	PROB	n/a	LTP263	ltpFR	9	n/a	n/a	n/a	n/a	n/a	n/a	14	1	7	6	n/a	n/a	n/a	n/a	n/a
1908607	STOP	n/a	LTP263	ltpFR	9	n/a	n/a	n/a	n/a	n/a	n/a	n/a	n/a	n/a	n/a	n/a	n/a	n/a	n/a	n/a
1910308	WORD	wordpools/wasnorm_wordpool_less_exclusions.txt	LTP263	ltpFR	9	9	1	CALF	222	n/a	1	n/a	0	0	0	1	0.412841796875	0.57763671875	upper	../fonts/zerothre.ttf
1913321	START	n/a	LTP263	ltpFR	9	n/a	n/a	n/a	n/a	n/a	n/a	n/a	n/a	n/a	n/a	n/a	n/a	n/a	n/a	n/a
1914252	PROB	n/a	LTP263	ltpFR	9	n/a	n/a	n/a	n/a	n/a	n/a	19	8	8	3	n/a	n/a	n/a	n/a	n/a
1916682	PROB	n/a	LTP263	ltpFR	9	n/a	n/a	n/a	n/a	n/a	n/a	14	2	3	8	n/a	n/a	n/a	n/a	n/a
1918545	PROB	n/a	LTP263	ltpFR	9	n/a	n/a	n/a	n/a	n/a	n/a	6	2	2	2	n/a	n/a	n/a	n/a	n/a
1919644	PROB	n/a	LTP263	ltpFR	9	n/a	n/a	n/a	n/a	n/a	n/a	11	7	3	1	n/a	n/a	n/a	n/a	n/a
1920647	STOP	n/a	LTP263	ltpFR	9	n/a	n/a	n/a	n/a	n/a	n/a	n/a	n/a	n/a	n/a	n/a	n/a	n/a	n/a	n/a
1922490	WORD	wordpools/wasnorm_wordpool_less_exclusions.txt	LTP263	ltpFR	9	9	1	KIDNEY	776	n/a	1	n/a	0	0	0	1	0.412841796875	0.57763671875	upper	../fonts/zerothre.ttf
1925503	START	n/a	LTP263	ltpFR	9	n/a	n/a	n/a	n/a	n/a	n/a	n/a	n/a	n/a	n/a	n/a	n/a	n/a	n/a	n/a
1926401	PROB	n/a	LTP263	ltpFR	9	n/a	n/a	n/a	n/a	n/a	n/a	10	2	5	3	n/a	n/a	n/a	n/a	n/a
1928598	PROB	n/a	LTP263	ltpFR	9	n/a	n/a	n/a	n/a	n/a	n/a	17	1	9	7	n/a	n/a	n/a	n/a	n/a
1930395	PROB	n/a	LTP263	ltpFR	9	n/a	n/a	n/a	n/a	n/a	n/a	17	6	9	2	n/a	n/a	n/a	n/a	n/a
1932887	STOP	n/a	LTP263	ltpFR	9	n/a	n/a	n/a	n/a	n/a	n/a	n/a	n/a	n/a	n/a	n/a	n/a	n/a	n/a	n/a
1934456	WORD	wordpools/wasnorm_wordpool_less_exclusions.txt	LTP263	ltpFR	9	9	1	MASCARA	875	n/a	0	n/a	0	0	0	1	0.412841796875	0.57763671875	upper	../fonts/zerothre.ttf
1937468	START	n/a	LTP263	ltpFR	9	n/a	n/a	n/a	n/a	n/a	n/a	n/a	n/a	n/a	n/a	n/a	n/a	n/a	n/a	n/a
1938466	PROB	n/a	LTP263	ltpFR	9	n/a	n/a	n/a	n/a	n/a	n/a	6	1	1	4	n/a	n/a	n/a	n/a	n/a
1939914	PROB	n/a	LTP263	ltpFR	9	n/a	n/a	n/a	n/a	n/a	n/a	19	5	6	8	n/a	n/a	n/a	n/a	n/a
1941412	PROB	n/a	LTP263	ltpFR	9	n/a	n/a	n/a	n/a	n/a	n/a	22	7	8	6	n/a	n/a	n/a	n/a	n/a
1943143	PROB	n/a	LTP263	ltpFR	9	n/a	n/a	n/a	n/a	n/a	n/a	16	2	8	6	n/a	n/a	n/a	n/a	n/a
1944823	STOP	n/a	LTP263	ltpFR	9	n/a	n/a	n/a	n/a	n/a	n/a	n/a	n/a	n/a	n/a	n/a	n/a	n/a	n/a	n/a
1946621	WORD	wordpools/wasnorm_wordpool_less_exclusions.txt	LTP263	ltpFR	9	9	0	BARTENDER	92	n/a	1	n/a	0	0	0	0	0.5869140625	0.422607421875	lower	../fonts/amplitud.ttf
1949633	START	n/a	LTP263	ltpFR	9	n/a	n/a	n/a	n/a	n/a	n/a	n/a	n/a	n/a	n/a	n/a	n/a	n/a	n/a	n/a
1950531	PROB	n/a	LTP263	ltpFR	9	n/a	n/a	n/a	n/a	n/a	n/a	9	4	2	3	n/a	n/a	n/a	n/a	n/a
1952745	PROB	n/a	LTP263	ltpFR	9	n/a	n/a	n/a	n/a	n/a	n/a	15	6	1	8	n/a	n/a	n/a	n/a	n/a
1954143	PROB	n/a	LTP263	ltpFR	9	n/a	n/a	n/a	n/a	n/a	n/a	12	9	1	2	n/a	n/a	n/a	n/a	n/a
1955374	PROB	n/a	LTP263	ltpFR	9	n/a	n/a	n/a	n/a	n/a	n/a	89	3	1	4	n/a	n/a	n/a	n/a	n/a
1956631	STOP	n/a	LTP263	ltpFR	9	n/a	n/a	n/a	n/a	n/a	n/a	n/a	n/a	n/a	n/a	n/a	n/a	n/a	n/a	n/a
1958503	WORD	wordpools/wasnorm_wordpool_less_exclusions.txt	LTP263	ltpFR	9	9	0	CHAMPAGNE	278	n/a	1	n/a	0	0	0	0	0.5869140625	0.422607421875	lower	../fonts/amplitud.ttf
1961515	START	n/a	LTP263	ltpFR	9	n/a	n/a	n/a	n/a	n/a	n/a	n/a	n/a	n/a	n/a	n/a	n/a	n/a	n/a	n/a
1962630	PROB	n/a	LTP263	ltpFR	9	n/a	n/a	n/a	n/a	n/a	n/a	16	2	7	7	n/a	n/a	n/a	n/a	n/a
1964078	PROB	n/a	LTP263	ltpFR	9	n/a	n/a	n/a	n/a	n/a	n/a	16	5	6	5	n/a	n/a	n/a	n/a	n/a
1965676	PROB	n/a	LTP263	ltpFR	9	n/a	n/a	n/a	n/a	n/a	n/a	9	2	4	3	n/a	n/a	n/a	n/a	n/a
1967972	PROB	n/a	LTP263	ltpFR	9	n/a	n/a	n/a	n/a	n/a	n/a	12	9	1	2	n/a	n/a	n/a	n/a	n/a
1968983	STOP	n/a	LTP263	ltpFR	9	n/a	n/a	n/a	n/a	n/a	n/a	n/a	n/a	n/a	n/a	n/a	n/a	n/a	n/a	n/a
1970568	WORD	wordpools/wasnorm_wordpool_less_exclusions.txt	LTP263	ltpFR	9	9	0	FACE	547	n/a	0	n/a	0	0	0	0	0.5869140625	0.422607421875	lower	../fonts/amplitud.ttf
1973581	START	n/a	LTP263	ltpFR	9	n/a	n/a	n/a	n/a	n/a	n/a	n/a	n/a	n/a	n/a	n/a	n/a	n/a	n/a	n/a
1974629	PROB	n/a	LTP263	ltpFR	9	n/a	n/a	n/a	n/a	n/a	n/a	8	2	4	2	n/a	n/a	n/a	n/a	n/a
1976110	PROB	n/a	LTP263	ltpFR	9	n/a	n/a	n/a	n/a	n/a	n/a	17	1	8	8	n/a	n/a	n/a	n/a	n/a
1977441	PROB	n/a	LTP263	ltpFR	9	n/a	n/a	n/a	n/a	n/a	n/a	7	4	2	1	n/a	n/a	n/a	n/a	n/a
1981581	STOP	n/a	LTP263	ltpFR	9	n/a	n/a	n/a	n/a	n/a	n/a	n/a	n/a	n/a	n/a	n/a	n/a	n/a	n/a	n/a
1983400	REC_START	n/a	LTP263	ltpFR	9	9	n/a	n/a	n/a	n/a	n/a	n/a	0	0	0	n/a	n/a	n/a	n/a	n/a
1984710	REC_WORD	wordpools/wasnorm_wordpool_less_exclusions.txt	LTP263	ltpFR	9	9	0	FACE	547	n/a	0	n/a	0	0	0	n/a	n/a	n/a	n/a	n/a
1987441	REC_WORD	wordpools/wasnorm_wordpool_less_exclusions.txt	LTP263	ltpFR	9	9	0	BARTENDER	92	n/a	1	n/a	0	0	0	n/a	n/a	n/a	n/a	n/a
1990494	REC_WORD	wordpools/wasnorm_wordpool_less_exclusions.txt	LTP263	ltpFR	9	9	1	GRADUATE	653	n/a	1	n/a	0	0	0	n/a	n/a	n/a	n/a	n/a
1991465	REC_WORD	wordpools/wasnorm_wordpool_less_exclusions.txt	LTP263	ltpFR	9	9	0	GYMNAST	675	n/a	1	n/a	0	0	0	n/a	n/a	n/a	n/a	n/a
1992498	REC_WORD	wordpools/wasnorm_wordpool_less_exclusions.txt	LTP263	ltpFR	9	9	0	CARNIVAL	245	n/a	1	n/a	0	0	0	n/a	n/a	n/a	n/a	n/a
2061266	WORD	wordpools/wasnorm_wordpool_less_exclusions.txt	LTP263	ltpFR	9	10	1	WOLF	1619	n/a	1	n/a	0	0	0	1	0.412841796875	0.57763671875	upper	../fonts/zerothre.ttf
2065393	WORD	wordpools/wasnorm_wordpool_less_exclusions.txt	LTP263	ltpFR	9	10	1	SEAFOOD	1260	n/a	1	n/a	0	0	0	1	0.412841796875	0.57763671875	upper	../fonts/zerothre.ttf
2069553	WORD	wordpools/wasnorm_wordpool_less_exclusions.txt	LTP263	ltpFR	9	10	1	TIGER	1467	n/a	1	n/a	0	0	0	1	0.412841796875	0.57763671875	upper	../fonts/zerothre.ttf
2073614	WORD	wordpools/wasnorm_wordpool_less_exclusions.txt	LTP263	ltpFR	9	10	1	KITTEN	780	n/a	1	n/a	0	0	0	1	0.412841796875	0.57763671875	upper	../fonts/zerothre.ttf
2077742	WORD	wordpools/wasnorm_wordpool_less_exclusions.txt	LTP263	ltpFR	9	10	1	ISLAND	745	n/a	1	n/a	0	0	0	1	0.412841796875	0.57763671875	upper	../fonts/zerothre.ttf
2081852	WORD	wordpools/wasnorm_wordpool_less_exclusions.txt	LTP263	ltpFR	9	10	1	PARSLEY	1016	n/a	1	n/a	0	0	0	1	0.412841796875	0.57763671875	upper	../fonts/zerothre.ttf
2085830	WORD	wordpools/wasnorm_wordpool_less_exclusions.txt	LTP263	ltpFR	9	10	1	UNIFORM	1539	n/a	0	n/a	0	0	0	1	0.412841796875	0.57763671875	upper	../fonts/zerothre.ttf
2089690	WORD	wordpools/wasnorm_wordpool_less_exclusions.txt	LTP263	ltpFR	9	10	1	ATTORNEY	58	n/a	1	n/a	0	0	0	1	0.412841796875	0.57763671875	upper	../fonts/zerothre.ttf
2093751	WORD	wordpools/wasnorm_wordpool_less_exclusions.txt	LTP263	ltpFR	9	10	1	SALMON	1227	n/a	1	n/a	0	0	0	1	0.412841796875	0.57763671875	upper	../fonts/zerothre.ttf
2097595	WORD	wordpools/wasnorm_wordpool_less_exclusions.txt	LTP263	ltpFR	9	10	1	CATCHER	258	n/a	1	n/a	0	0	0	1	0.412841796875	0.57763671875	upper	../fonts/zerothre.ttf
2101489	WORD	wordpools/wasnorm_wordpool_less_exclusions.txt	LTP263	ltpFR	9	10	1	MOTORCYCLE	923	n/a	0	n/a	0	0	0	1	0.412841796875	0.57763671875	upper	../fonts/zerothre.ttf
2105400	WORD	wordpools/wasnorm_wordpool_less_exclusions.txt	LTP263	ltpFR	9	10	1	NEPTUNE	943	n/a	1	n/a	0	0	0	1	0.412841796875	0.57763671875	upper	../fonts/zerothre.ttf
2109344	WORD	wordpools/wasnorm_wordpool_less_exclusions.txt	LTP263	ltpFR	9	10	1	BEDROOM	111	n/a	0	n/a	0	0	0	1	0.412841796875	0.57763671875	upper	../fonts/zerothre.ttf
2113322	WORD	wordpools/wasnorm_wordpool_less_exclusions.txt	LTP263	ltpFR	9	10	1	LOFT	840	n/a	0	n/a	0	0	0	1	0.412841796875	0.57763671875	upper	../fonts/zerothre.ttf
2117249	WORD	wordpools/wasnorm_wordpool_less_exclusions.txt	LTP263	ltpFR	9	10	1	CONTRACTOR	369	n/a	1	n/a	0	0	0	1	0.412841796875	0.57763671875	upper	../fonts/zerothre.ttf
2121310	WORD	wordpools/wasnorm_wordpool_less_exclusions.txt	LTP263	ltpFR	9	10	1	ASTEROID	50	n/a	1	n/a	0	0	0	1	0.412841796875	0.57763671875	upper	../fonts/zerothre.ttf
2124322	START	n/a	LTP263	ltpFR	9	n/a	n/a	n/a	n/a	n/a	n/a	n/a	n/a	n/a	n/a	n/a	n/a	n/a	n/a	n/a
2125420	PROB	n/a	LTP263	ltpFR	9	n/a	n/a	n/a	n/a	n/a	n/a	11	2	3	6	n/a	n/a	n/a	n/a	n/a
2127467	PROB	n/a	LTP263	ltpFR	9	n/a	n/a	n/a	n/a	n/a	n/a	11	1	9	1	n/a	n/a	n/a	n/a	n/a
2128466	PROB	n/a	LTP263	ltpFR	9	n/a	n/a	n/a	n/a	n/a	n/a	16	7	3	6	n/a	n/a	n/a	n/a	n/a
2129563	PROB	n/a	LTP263	ltpFR	9	n/a	n/a	n/a	n/a	n/a	n/a	18	3	9	6	n/a	n/a	n/a	n/a	n/a
2131212	PROB	n/a	LTP263	ltpFR	9	n/a	n/a	n/a	n/a	n/a	n/a	7	3	3	1	n/a	n/a	n/a	n/a	n/a
2132393	PROB	n/a	LTP263	ltpFR	9	n/a	n/a	n/a	n/a	n/a	n/a	17	8	8	1	n/a	n/a	n/a	n/a	n/a
2133557	PROB	n/a	LTP263	ltpFR	9	n/a	n/a	n/a	n/a	n/a	n/a	13	1	5	7	n/a	n/a	n/a	n/a	n/a
2134823	PROB	n/a	LTP263	ltpFR	9	n/a	n/a	n/a	n/a	n/a	n/a	21	5	7	9	n/a	n/a	n/a	n/a	n/a
2136570	PROB	n/a	LTP263	ltpFR	9	n/a	n/a	n/a	n/a	n/a	n/a	13	9	2	2	n/a	n/a	n/a	n/a	n/a
2140322	STOP	n/a	LTP263	ltpFR	9	n/a	n/a	n/a	n/a	n/a	n/a	n/a	n/a	n/a	n/a	n/a	n/a	n/a	n/a	n/a
2142096	REC_START	n/a	LTP263	ltpFR	9	10	n/a	n/a	n/a	n/a	n/a	n/a	0	0	0	n/a	n/a	n/a	n/a	n/a
2144263	REC_WORD	wordpools/wasnorm_wordpool_less_exclusions.txt	LTP263	ltpFR	9	10	1	WOLF	1619	n/a	1	n/a	0	0	0	n/a	n/a	n/a	n/a	n/a
2145167	REC_WORD	wordpools/wasnorm_wordpool_less_exclusions.txt	LTP263	ltpFR	9	10	1	TIGER	1467	n/a	1	n/a	0	0	0	n/a	n/a	n/a	n/a	n/a
2146422	REC_WORD	wordpools/wasnorm_wordpool_less_exclusions.txt	LTP263	ltpFR	9	10	1	KITTEN	780	n/a	1	n/a	0	0	0	n/a	n/a	n/a	n/a	n/a
2147195	REC_WORD	wordpools/wasnorm_wordpool_less_exclusions.txt	LTP263	ltpFR	9	10	1	SEAFOOD	1260	n/a	1	n/a	0	0	0	n/a	n/a	n/a	n/a	n/a
2148286	REC_WORD	wordpools/wasnorm_wordpool_less_exclusions.txt	LTP263	ltpFR	9	10	1	SALMON	1227	n/a	1	n/a	0	0	0	n/a	n/a	n/a	n/a	n/a
2149805	REC_WORD	wordpools/wasnorm_wordpool_less_exclusions.txt	LTP263	ltpFR	9	10	1	PARSLEY	1016	n/a	1	n/a	0	0	0	n/a	n/a	n/a	n/a	n/a
2150812	REC_WORD	wordpools/wasnorm_wordpool_less_exclusions.txt	LTP263	ltpFR	9	10	1	ATTORNEY	58	n/a	1	n/a	0	0	0	n/a	n/a	n/a	n/a	n/a
2151960	REC_WORD	wordpools/wasnorm_wordpool_less_exclusions.txt	LTP263	ltpFR	9	10	1	UNIFORM	1539	n/a	0	n/a	0	0	0	n/a	n/a	n/a	n/a	n/a
2153350	REC_WORD	wordpools/wasnorm_wordpool_less_exclusions.txt	LTP263	ltpFR	9	10	1	CONTRACTOR	369	n/a	1	n/a	0	0	0	n/a	n/a	n/a	n/a	n/a
2154800	REC_WORD	wordpools/wasnorm_wordpool_less_exclusions.txt	LTP263	ltpFR	9	10	1	BEDROOM	111	n/a	0	n/a	0	0	0	n/a	n/a	n/a	n/a	n/a
2155745	REC_WORD	wordpools/wasnorm_wordpool_less_exclusions.txt	LTP263	ltpFR	9	10	1	LOFT	840	n/a	0	n/a	0	0	0	n/a	n/a	n/a	n/a	n/a
2158659	REC_WORD	wordpools/wasnorm_wordpool_less_exclusions.txt	LTP263	ltpFR	9	10	1	MOTORCYCLE	923	n/a	0	n/a	0	0	0	n/a	n/a	n/a	n/a	n/a
2166763	REC_WORD	wordpools/wasnorm_wordpool_less_exclusions.txt	LTP263	ltpFR	9	10	1	NEPTUNE	943	n/a	1	n/a	0	0	0	n/a	n/a	n/a	n/a	n/a
2167990	REC_WORD	wordpools/wasnorm_wordpool_less_exclusions.txt	LTP263	ltpFR	9	10	1	ASTEROID	50	n/a	1	n/a	0	0	0	n/a	n/a	n/a	n/a	n/a
2182952	REC_WORD	wordpools/wasnorm_wordpool_less_exclusions.txt	LTP263	ltpFR	9	10	1	CATCHER	258	n/a	1	n/a	0	0	0	n/a	n/a	n/a	n/a	n/a
2217716	REST_REWET	n/a	LTP263	ltpFR	9	10	n/a	n/a	n/a	n/a	n/a	n/a	0	0	0	n/a	n/a	n/a	n/a	n/a
2803059	START	n/a	LTP263	ltpFR	9	n/a	n/a	n/a	n/a	n/a	n/a	n/a	n/a	n/a	n/a	n/a	n/a	n/a	n/a	n/a
2804573	PROB	n/a	LTP263	ltpFR	9	n/a	n/a	n/a	n/a	n/a	n/a	14	6	7	1	n/a	n/a	n/a	n/a	n/a
2807053	PROB	n/a	LTP263	ltpFR	9	n/a	n/a	n/a	n/a	n/a	n/a	22	6	9	5	n/a	n/a	n/a	n/a	n/a
2808733	PROB	n/a	LTP263	ltpFR	9	n/a	n/a	n/a	n/a	n/a	n/a	26	9	6	9	n/a	n/a	n/a	n/a	n/a
2811296	PROB	n/a	LTP263	ltpFR	9	n/a	n/a	n/a	n/a	n/a	n/a	17	8	4	5	n/a	n/a	n/a	n/a	n/a
2812827	PROB	n/a	LTP263	ltpFR	9	n/a	n/a	n/a	n/a	n/a	n/a	15	7	7	1	n/a	n/a	n/a	n/a	n/a
2815041	PROB	n/a	LTP263	ltpFR	9	n/a	n/a	n/a	n/a	n/a	n/a	13	1	6	6	n/a	n/a	n/a	n/a	n/a
2816139	PROB	n/a	LTP263	ltpFR	9	n/a	n/a	n/a	n/a	n/a	n/a	12	1	3	8	n/a	n/a	n/a	n/a	n/a
2818751	STOP	n/a	LTP263	ltpFR	9	n/a	n/a	n/a	n/a	n/a	n/a	n/a	n/a	n/a	n/a	n/a	n/a	n/a	n/a	n/a
2819950	WORD	wordpools/wasnorm_wordpool_less_exclusions.txt	LTP263	ltpFR	9	11	0	PICKLE	1059	n/a	1	n/a	0	0	0	0	0.5869140625	0.422607421875	lower	../fonts/amplitud.ttf
2822963	START	n/a	LTP263	ltpFR	9	n/a	n/a	n/a	n/a	n/a	n/a	n/a	n/a	n/a	n/a	n/a	n/a	n/a	n/a	n/a
2823927	PROB	n/a	LTP263	ltpFR	9	n/a	n/a	n/a	n/a	n/a	n/a	15	2	4	9	n/a	n/a	n/a	n/a	n/a
2825425	PROB	n/a	LTP263	ltpFR	9	n/a	n/a	n/a	n/a	n/a	n/a	14	6	2	6	n/a	n/a	n/a	n/a	n/a
2826773	PROB	n/a	LTP263	ltpFR	9	n/a	n/a	n/a	n/a	n/a	n/a	19	9	8	2	n/a	n/a	n/a	n/a	n/a
2829103	PROB	n/a	LTP263	ltpFR	9	n/a	n/a	n/a	n/a	n/a	n/a	16	5	1	9	n/a	n/a	n/a	n/a	n/a
2831333	PROB	n/a	LTP263	ltpFR	9	n/a	n/a	n/a	n/a	n/a	n/a	17	7	1	9	n/a	n/a	n/a	n/a	n/a
2833480	PROB	n/a	LTP263	ltpFR	9	n/a	n/a	n/a	n/a	n/a	n/a	15	2	9	4	n/a	n/a	n/a	n/a	n/a
2835011	PROB	n/a	LTP263	ltpFR	9	n/a	n/a	n/a	n/a	n/a	n/a	19	7	3	9	n/a	n/a	n/a	n/a	n/a
2836425	PROB	n/a	LTP263	ltpFR	9	n/a	n/a	n/a	n/a	n/a	n/a	15	9	1	5	n/a	n/a	n/a	n/a	n/a
2838335	STOP	n/a	LTP263	ltpFR	9	n/a	n/a	n/a	n/a	n/a	n/a	n/a	n/a	n/a	n/a	n/a	n/a	n/a	n/a	n/a
2839987	WORD	wordpools/wasnorm_wordpool_less_exclusions.txt	LTP263	ltpFR	9	11	0	TURTLE	1522	n/a	0	n/a	0	0	0	0	0.5869140625	0.422607421875	lower	../fonts/amplitud.ttf
2842999	START	n/a	LTP263	ltpFR	9	n/a	n/a	n/a	n/a	n/a	n/a	n/a	n/a	n/a	n/a	n/a	n/a	n/a	n/a	n/a
2844081	PROB	n/a	LTP263	ltpFR	9	n/a	n/a	n/a	n/a	n/a	n/a	2	6	8	9	n/a	n/a	n/a	n/a	n/a
2845544	PROB	n/a	LTP263	ltpFR	9	n/a	n/a	n/a	n/a	n/a	n/a	13	6	5	2	n/a	n/a	n/a	n/a	n/a
2847725	PROB	n/a	LTP263	ltpFR	9	n/a	n/a	n/a	n/a	n/a	n/a	15	6	2	7	n/a	n/a	n/a	n/a	n/a
2850804	PROB	n/a	LTP263	ltpFR	9	n/a	n/a	n/a	n/a	n/a	n/a	14	2	8	3	n/a	n/a	n/a	n/a	n/a
2853117	PROB	n/a	LTP263	ltpFR	9	n/a	n/a	n/a	n/a	n/a	n/a	12	3	6	2	n/a	n/a	n/a	n/a	n/a
2854665	PROB	n/a	LTP263	ltpFR	9	n/a	n/a	n/a	n/a	n/a	n/a	16	5	7	4	n/a	n/a	n/a	n/a	n/a
2857444	PROB	n/a	LTP263	ltpFR	9	n/a	n/a	n/a	n/a	n/a	n/a	15	7	3	5	n/a	n/a	n/a	n/a	n/a
2858343	STOP	n/a	LTP263	ltpFR	9	n/a	n/a	n/a	n/a	n/a	n/a	n/a	n/a	n/a	n/a	n/a	n/a	n/a	n/a	n/a
2859840	WORD	wordpools/wasnorm_wordpool_less_exclusions.txt	LTP263	ltpFR	9	11	0	SAILOR	1223	n/a	1	n/a	0	0	0	0	0.5869140625	0.422607421875	lower	../fonts/amplitud.ttf
2862853	START	n/a	LTP263	ltpFR	9	n/a	n/a	n/a	n/a	n/a	n/a	n/a	n/a	n/a	n/a	n/a	n/a	n/a	n/a	n/a
2863768	PROB	n/a	LTP263	ltpFR	9	n/a	n/a	n/a	n/a	n/a	n/a	19	6	4	9	n/a	n/a	n/a	n/a	n/a
2866148	PROB	n/a	LTP263	ltpFR	9	n/a	n/a	n/a	n/a	n/a	n/a	14	5	6	3	n/a	n/a	n/a	n/a	n/a
2867429	PROB	n/a	LTP263	ltpFR	9	n/a	n/a	n/a	n/a	n/a	n/a	15	7	7	1	n/a	n/a	n/a	n/a	n/a
2868411	PROB	n/a	LTP263	ltpFR	9	n/a	n/a	n/a	n/a	n/a	n/a	16	7	6	3	n/a	n/a	n/a	n/a	n/a
2871074	PROB	n/a	LTP263	ltpFR	9	n/a	n/a	n/a	n/a	n/a	n/a	8	6	1	1	n/a	n/a	n/a	n/a	n/a
2874086	PROB	n/a	LTP263	ltpFR	9	n/a	n/a	n/a	n/a	n/a	n/a	9	2	3	4	n/a	n/a	n/a	n/a	n/a
2876366	PROB	n/a	LTP263	ltpFR	9	n/a	n/a	n/a	n/a	n/a	n/a	18	8	5	5	n/a	n/a	n/a	n/a	n/a
2877943	STOP	n/a	LTP263	ltpFR	9	n/a	n/a	n/a	n/a	n/a	n/a	n/a	n/a	n/a	n/a	n/a	n/a	n/a	n/a	n/a
2879761	WORD	wordpools/wasnorm_wordpool_less_exclusions.txt	LTP263	ltpFR	9	11	1	BRANDY	169	n/a	0	n/a	0	0	0	1	0.412841796875	0.57763671875	upper	../fonts/zerothre.ttf
2882773	START	n/a	LTP263	ltpFR	9	n/a	n/a	n/a	n/a	n/a	n/a	n/a	n/a	n/a	n/a	n/a	n/a	n/a	n/a	n/a
2883588	PROB	n/a	LTP263	ltpFR	9	n/a	n/a	n/a	n/a	n/a	n/a	16	9	3	4	n/a	n/a	n/a	n/a	n/a
2885302	PROB	n/a	LTP263	ltpFR	9	n/a	n/a	n/a	n/a	n/a	n/a	12	6	5	1	n/a	n/a	n/a	n/a	n/a
2887515	PROB	n/a	LTP263	ltpFR	9	n/a	n/a	n/a	n/a	n/a	n/a	15	7	1	4	n/a	n/a	n/a	n/a	n/a
2889363	PROB	n/a	LTP263	ltpFR	9	n/a	n/a	n/a	n/a	n/a	n/a	15	5	8	2	n/a	n/a	n/a	n/a	n/a
2890977	PROB	n/a	LTP263	ltpFR	9	n/a	n/a	n/a	n/a	n/a	n/a	10	1	1	8	n/a	n/a	n/a	n/a	n/a
2892342	PROB	n/a	LTP263	ltpFR	9	n/a	n/a	n/a	n/a	n/a	n/a	13	5	3	5	n/a	n/a	n/a	n/a	n/a
2893590	PROB	n/a	LTP263	ltpFR	9	n/a	n/a	n/a	n/a	n/a	n/a	20	9	5	6	n/a	n/a	n/a	n/a	n/a
2895204	PROB	n/a	LTP263	ltpFR	9	n/a	n/a	n/a	n/a	n/a	n/a	10	1	2	7	n/a	n/a	n/a	n/a	n/a
2898773	STOP	n/a	LTP263	ltpFR	9	n/a	n/a	n/a	n/a	n/a	n/a	n/a	n/a	n/a	n/a	n/a	n/a	n/a	n/a	n/a
2899664	WORD	wordpools/wasnorm_wordpool_less_exclusions.txt	LTP263	ltpFR	9	11	1	BIBLE	124	n/a	0	n/a	0	0	0	1	0.412841796875	0.57763671875	upper	../fonts/zerothre.ttf
2902677	START	n/a	LTP263	ltpFR	9	n/a	n/a	n/a	n/a	n/a	n/a	n/a	n/a	n/a	n/a	n/a	n/a	n/a	n/a	n/a
2903875	PROB	n/a	LTP263	ltpFR	9	n/a	n/a	n/a	n/a	n/a	n/a	12	6	1	5	n/a	n/a	n/a	n/a	n/a
2905040	PROB	n/a	LTP263	ltpFR	9	n/a	n/a	n/a	n/a	n/a	n/a	12	6	5	2	n/a	n/a	n/a	n/a	n/a
2906105	PROB	n/a	LTP263	ltpFR	9	n/a	n/a	n/a	n/a	n/a	n/a	19	5	7	4	n/a	n/a	n/a	n/a	n/a
2908884	PROB	n/a	LTP263	ltpFR	9	n/a	n/a	n/a	n/a	n/a	n/a	14	1	7	6	n/a	n/a	n/a	n/a	n/a
2910748	PROB	n/a	LTP263	ltpFR	9	n/a	n/a	n/a	n/a	n/a	n/a	17	6	7	4	n/a	n/a	n/a	n/a	n/a
2913277	PROB	n/a	LTP263	ltpFR	9	n/a	n/a	n/a	n/a	n/a	n/a	12	1	3	8	n/a	n/a	n/a	n/a	n/a
2915025	PROB	n/a	LTP263	ltpFR	9	n/a	n/a	n/a	n/a	n/a	n/a	25	8	7	9	n/a	n/a	n/a	n/a	n/a
2918677	STOP	n/a	LTP263	ltpFR	9	n/a	n/a	n/a	n/a	n/a	n/a	n/a	n/a	n/a	n/a	n/a	n/a	n/a	n/a	n/a
2919784	WORD	wordpools/wasnorm_wordpool_less_exclusions.txt	LTP263	ltpFR	9	11	1	POPE	1105	n/a	1	n/a	0	0	0	1	0.412841796875	0.57763671875	upper	../fonts/zerothre.ttf
2922797	START	n/a	LTP263	ltpFR	9	n/a	n/a	n/a	n/a	n/a	n/a	n/a	n/a	n/a	n/a	n/a	n/a	n/a	n/a	n/a
2923895	PROB	n/a	LTP263	ltpFR	9	n/a	n/a	n/a	n/a	n/a	n/a	8	3	2	3	n/a	n/a	n/a	n/a	n/a
2925558	PROB	n/a	LTP263	ltpFR	9	n/a	n/a	n/a	n/a	n/a	n/a	17	2	6	9	n/a	n/a	n/a	n/a	n/a
2928122	PROB	n/a	LTP263	ltpFR	9	n/a	n/a	n/a	n/a	n/a	n/a	19	8	6	5	n/a	n/a	n/a	n/a	n/a
2931217	PROB	n/a	LTP263	ltpFR	9	n/a	n/a	n/a	n/a	n/a	n/a	7	5	1	1	n/a	n/a	n/a	n/a	n/a
2932732	PROB	n/a	LTP263	ltpFR	9	n/a	n/a	n/a	n/a	n/a	n/a	12	2	3	8	n/a	n/a	n/a	n/a	n/a
2935278	PROB	n/a	LTP263	ltpFR	9	n/a	n/a	n/a	n/a	n/a	n/a	22	6	8	8	n/a	n/a	n/a	n/a	n/a
2936859	PROB	n/a	LTP263	ltpFR	9	n/a	n/a	n/a	n/a	n/a	n/a	19	9	7	3	n/a	n/a	n/a	n/a	n/a
2938471	STOP	n/a	LTP263	ltpFR	9	n/a	n/a	n/a	n/a	n/a	n/a	n/a	n/a	n/a	n/a	n/a	n/a	n/a	n/a	n/a
2939704	WORD	wordpools/wasnorm_wordpool_less_exclusions.txt	LTP263	ltpFR	9	11	1	MAYONNAISE	880	n/a	0	n/a	0	0	0	1	0.412841796875	0.57763671875	upper	../fonts/zerothre.ttf
2942717	START	n/a	LTP263	ltpFR	9	n/a	n/a	n/a	n/a	n/a	n/a	n/a	n/a	n/a	n/a	n/a	n/a	n/a	n/a	n/a
2943765	PROB	n/a	LTP263	ltpFR	9	n/a	n/a	n/a	n/a	n/a	n/a	10	5	3	2	n/a	n/a	n/a	n/a	n/a
2945845	PROB	n/a	LTP263	ltpFR	9	n/a	n/a	n/a	n/a	n/a	n/a	6	3	2	1	n/a	n/a	n/a	n/a	n/a
2947110	PROB	n/a	LTP263	ltpFR	9	n/a	n/a	n/a	n/a	n/a	n/a	24	7	8	9	n/a	n/a	n/a	n/a	n/a
2948758	PROB	n/a	LTP263	ltpFR	9	n/a	n/a	n/a	n/a	n/a	n/a	12	6	3	3	n/a	n/a	n/a	n/a	n/a
2950355	PROB	n/a	LTP263	ltpFR	9	n/a	n/a	n/a	n/a	n/a	n/a	23	8	6	9	n/a	n/a	n/a	n/a	n/a
2952302	PROB	n/a	LTP263	ltpFR	9	n/a	n/a	n/a	n/a	n/a	n/a	13	8	1	4	n/a	n/a	n/a	n/a	n/a
2954565	PROB	n/a	LTP263	ltpFR	9	n/a	n/a	n/a	n/a	n/a	n/a	14	4	6	4	n/a	n/a	n/a	n/a	n/a
2956063	PROB	n/a	LTP263	ltpFR	9	n/a	n/a	n/a	n/a	n/a	n/a	17	1	6	8	n/a	n/a	n/a	n/a	n/a
2958055	STOP	n/a	LTP263	ltpFR	9	n/a	n/a	n/a	n/a	n/a	n/a	n/a	n/a	n/a	n/a	n/a	n/a	n/a	n/a	n/a
2959791	WORD	wordpools/wasnorm_wordpool_less_exclusions.txt	LTP263	ltpFR	9	11	1	UNICORN	1538	n/a	1	n/a	0	0	0	1	0.412841796875	0.57763671875	upper	../fonts/zerothre.ttf
2962804	START	n/a	LTP263	ltpFR	9	n/a	n/a	n/a	n/a	n/a	n/a	n/a	n/a	n/a	n/a	n/a	n/a	n/a	n/a	n/a
2963852	PROB	n/a	LTP263	ltpFR	9	n/a	n/a	n/a	n/a	n/a	n/a	19	7	7	5	n/a	n/a	n/a	n/a	n/a
2965766	PROB	n/a	LTP263	ltpFR	9	n/a	n/a	n/a	n/a	n/a	n/a	20	7	8	5	n/a	n/a	n/a	n/a	n/a
2970941	PROB	n/a	LTP263	ltpFR	9	n/a	n/a	n/a	n/a	n/a	n/a	9	4	4	1	n/a	n/a	n/a	n/a	n/a
2971990	PROB	n/a	LTP263	ltpFR	9	n/a	n/a	n/a	n/a	n/a	n/a	12	5	1	6	n/a	n/a	n/a	n/a	n/a
2973271	PROB	n/a	LTP263	ltpFR	9	n/a	n/a	n/a	n/a	n/a	n/a	19	9	4	6	n/a	n/a	n/a	n/a	n/a
2975185	PROB	n/a	LTP263	ltpFR	9	n/a	n/a	n/a	n/a	n/a	n/a	16	6	4	6	n/a	n/a	n/a	n/a	n/a
2977391	STOP	n/a	LTP263	ltpFR	9	n/a	n/a	n/a	n/a	n/a	n/a	n/a	n/a	n/a	n/a	n/a	n/a	n/a	n/a	n/a
2980028	WORD	wordpools/wasnorm_wordpool_less_exclusions.txt	LTP263	ltpFR	9	11	0	SPATULA	1348	n/a	0	n/a	0	0	0	0	0.5869140625	0.422607421875	lower	../fonts/amplitud.ttf
2983040	START	n/a	LTP263	ltpFR	9	n/a	n/a	n/a	n/a	n/a	n/a	n/a	n/a	n/a	n/a	n/a	n/a	n/a	n/a	n/a
2983938	PROB	n/a	LTP263	ltpFR	9	n/a	n/a	n/a	n/a	n/a	n/a	15	3	9	3	n/a	n/a	n/a	n/a	n/a
2985619	PROB	n/a	LTP263	ltpFR	9	n/a	n/a	n/a	n/a	n/a	n/a	18	5	7	6	n/a	n/a	n/a	n/a	n/a
2988132	PROB	n/a	LTP263	ltpFR	9	n/a	n/a	n/a	n/a	n/a	n/a	14	3	2	9	n/a	n/a	n/a	n/a	n/a
2990346	PROB	n/a	LTP263	ltpFR	9	n/a	n/a	n/a	n/a	n/a	n/a	15	7	7	1	n/a	n/a	n/a	n/a	n/a
2991377	PROB	n/a	LTP263	ltpFR	9	n/a	n/a	n/a	n/a	n/a	n/a	17	3	9	3	n/a	n/a	n/a	n/a	n/a
2995804	PROB	n/a	LTP263	ltpFR	9	n/a	n/a	n/a	n/a	n/a	n/a	6	2	2	2	n/a	n/a	n/a	n/a	n/a
2999040	STOP	n/a	LTP263	ltpFR	9	n/a	n/a	n/a	n/a	n/a	n/a	n/a	n/a	n/a	n/a	n/a	n/a	n/a	n/a	n/a
3000148	WORD	wordpools/wasnorm_wordpool_less_exclusions.txt	LTP263	ltpFR	9	11	0	CUPBOARD	425	n/a	1	n/a	0	0	0	0	0.5869140625	0.422607421875	lower	../fonts/amplitud.ttf
3003160	START	n/a	LTP263	ltpFR	9	n/a	n/a	n/a	n/a	n/a	n/a	n/a	n/a	n/a	n/a	n/a	n/a	n/a	n/a	n/a
3004025	PROB	n/a	LTP263	ltpFR	9	n/a	n/a	n/a	n/a	n/a	n/a	13	6	4	3	n/a	n/a	n/a	n/a	n/a
3005307	PROB	n/a	LTP263	ltpFR	9	n/a	n/a	n/a	n/a	n/a	n/a	7	3	2	2	n/a	n/a	n/a	n/a	n/a
3007254	PROB	n/a	LTP263	ltpFR	9	n/a	n/a	n/a	n/a	n/a	n/a	14	2	3	9	n/a	n/a	n/a	n/a	n/a
3009184	PROB	n/a	LTP263	ltpFR	9	n/a	n/a	n/a	n/a	n/a	n/a	19	8	2	9	n/a	n/a	n/a	n/a	n/a
3011098	PROB	n/a	LTP263	ltpFR	9	n/a	n/a	n/a	n/a	n/a	n/a	14	2	9	3	n/a	n/a	n/a	n/a	n/a
3012629	PROB	n/a	LTP263	ltpFR	9	n/a	n/a	n/a	n/a	n/a	n/a	8	5	2	1	n/a	n/a	n/a	n/a	n/a
3014160	PROB	n/a	LTP263	ltpFR	9	n/a	n/a	n/a	n/a	n/a	n/a	9	2	3	5	n/a	n/a	n/a	n/a	n/a
3015807	PROB	n/a	LTP263	ltpFR	9	n/a	n/a	n/a	n/a	n/a	n/a	15	1	5	9	n/a	n/a	n/a	n/a	n/a
3019160	STOP	n/a	LTP263	ltpFR	9	n/a	n/a	n/a	n/a	n/a	n/a	n/a	n/a	n/a	n/a	n/a	n/a	n/a	n/a	n/a
3020101	WORD	wordpools/wasnorm_wordpool_less_exclusions.txt	LTP263	ltpFR	9	11	0	FRAME	600	n/a	0	n/a	0	0	0	0	0.5869140625	0.422607421875	lower	../fonts/amplitud.ttf
3023114	START	n/a	LTP263	ltpFR	9	n/a	n/a	n/a	n/a	n/a	n/a	n/a	n/a	n/a	n/a	n/a	n/a	n/a	n/a	n/a
3024228	PROB	n/a	LTP263	ltpFR	9	n/a	n/a	n/a	n/a	n/a	n/a	13	3	2	8	n/a	n/a	n/a	n/a	n/a
3025826	PROB	n/a	LTP263	ltpFR	9	n/a	n/a	n/a	n/a	n/a	n/a	10	3	1	6	n/a	n/a	n/a	n/a	n/a
3027274	PROB	n/a	LTP263	ltpFR	9	n/a	n/a	n/a	n/a	n/a	n/a	21	8	9	4	n/a	n/a	n/a	n/a	n/a
3028855	PROB	n/a	LTP263	ltpFR	9	n/a	n/a	n/a	n/a	n/a	n/a	15	9	3	3	n/a	n/a	n/a	n/a	n/a
3030402	PROB	n/a	LTP263	ltpFR	9	n/a	n/a	n/a	n/a	n/a	n/a	21	5	8	8	n/a	n/a	n/a	n/a	n/a
3031867	PROB	n/a	LTP263	ltpFR	9	n/a	n/a	n/a	n/a	n/a	n/a	21	4	9	8	n/a	n/a	n/a	n/a	n/a
3035645	PROB	n/a	LTP263	ltpFR	9	n/a	n/a	n/a	n/a	n/a	n/a	17	5	8	4	n/a	n/a	n/a	n/a	n/a
3038375	STOP	n/a	LTP263	ltpFR	9	n/a	n/a	n/a	n/a	n/a	n/a	n/a	n/a	n/a	n/a	n/a	n/a	n/a	n/a	n/a
3040038	WORD	wordpools/wasnorm_wordpool_less_exclusions.txt	LTP263	ltpFR	9	11	0	LEMON	810	n/a	0	n/a	0	0	0	0	0.5869140625	0.422607421875	lower	../fonts/amplitud.ttf
3043051	START	n/a	LTP263	ltpFR	9	n/a	n/a	n/a	n/a	n/a	n/a	n/a	n/a	n/a	n/a	n/a	n/a	n/a	n/a	n/a
3044115	PROB	n/a	LTP263	ltpFR	9	n/a	n/a	n/a	n/a	n/a	n/a	15	2	6	7	n/a	n/a	n/a	n/a	n/a
3046195	PROB	n/a	LTP263	ltpFR	9	n/a	n/a	n/a	n/a	n/a	n/a	12	6	4	2	n/a	n/a	n/a	n/a	n/a
3047360	PROB	n/a	LTP263	ltpFR	9	n/a	n/a	n/a	n/a	n/a	n/a	11	1	4	6	n/a	n/a	n/a	n/a	n/a
3048492	PROB	n/a	LTP263	ltpFR	9	n/a	n/a	n/a	n/a	n/a	n/a	10	7	1	2	n/a	n/a	n/a	n/a	n/a
3050622	PROB	n/a	LTP263	ltpFR	9	n/a	n/a	n/a	n/a	n/a	n/a	19	7	3	9	n/a	n/a	n/a	n/a	n/a
3052153	PROB	n/a	LTP263	ltpFR	9	n/a	n/a	n/a	n/a	n/a	n/a	15	7	6	2	n/a	n/a	n/a	n/a	n/a
3054283	PROB	n/a	LTP263	ltpFR	9	n/a	n/a	n/a	n/a	n/a	n/a	15	4	3	8	n/a	n/a	n/a	n/a	n/a
3059051	STOP	n/a	LTP263	ltpFR	9	n/a	n/a	n/a	n/a	n/a	n/a	n/a	n/a	n/a	n/a	n/a	n/a	n/a	n/a	n/a
3060191	WORD	wordpools/wasnorm_wordpool_less_exclusions.txt	LTP263	ltpFR	9	11	0	SHIP	1286	n/a	1	n/a	0	0	0	0	0.5869140625	0.422607421875	lower	../fonts/amplitud.ttf
3063204	START	n/a	LTP263	ltpFR	9	n/a	n/a	n/a	n/a	n/a	n/a	n/a	n/a	n/a	n/a	n/a	n/a	n/a	n/a	n/a
3064085	PROB	n/a	LTP263	ltpFR	9	n/a	n/a	n/a	n/a	n/a	n/a	16	4	7	4	n/a	n/a	n/a	n/a	n/a
3066531	PROB	n/a	LTP263	ltpFR	9	n/a	n/a	n/a	n/a	n/a	n/a	17	9	2	6	n/a	n/a	n/a	n/a	n/a
3069526	PROB	n/a	LTP263	ltpFR	9	n/a	n/a	n/a	n/a	n/a	n/a	14	4	9	1	n/a	n/a	n/a	n/a	n/a
3070842	PROB	n/a	LTP263	ltpFR	9	n/a	n/a	n/a	n/a	n/a	n/a	15	9	3	3	n/a	n/a	n/a	n/a	n/a
3072739	PROB	n/a	LTP263	ltpFR	9	n/a	n/a	n/a	n/a	n/a	n/a	18	7	3	8	n/a	n/a	n/a	n/a	n/a
3074087	PROB	n/a	LTP263	ltpFR	9	n/a	n/a	n/a	n/a	n/a	n/a	12	3	1	8	n/a	n/a	n/a	n/a	n/a
3075984	PROB	n/a	LTP263	ltpFR	9	n/a	n/a	n/a	n/a	n/a	n/a	14	3	2	9	n/a	n/a	n/a	n/a	n/a
3079204	STOP	n/a	LTP263	ltpFR	9	n/a	n/a	n/a	n/a	n/a	n/a	n/a	n/a	n/a	n/a	n/a	n/a	n/a	n/a	n/a
3080095	WORD	wordpools/wasnorm_wordpool_less_exclusions.txt	LTP263	ltpFR	9	11	1	LIVER	833	n/a	1	n/a	0	0	0	1	0.412841796875	0.57763671875	upper	../fonts/zerothre.ttf
3083107	START	n/a	LTP263	ltpFR	9	n/a	n/a	n/a	n/a	n/a	n/a	n/a	n/a	n/a	n/a	n/a	n/a	n/a	n/a	n/a
3084289	PROB	n/a	LTP263	ltpFR	9	n/a	n/a	n/a	n/a	n/a	n/a	24	8	7	9	n/a	n/a	n/a	n/a	n/a
3086652	PROB	n/a	LTP263	ltpFR	9	n/a	n/a	n/a	n/a	n/a	n/a	9	1	5	3	n/a	n/a	n/a	n/a	n/a
3088749	PROB	n/a	LTP263	ltpFR	9	n/a	n/a	n/a	n/a	n/a	n/a	18	8	5	5	n/a	n/a	n/a	n/a	n/a
3090679	PROB	n/a	LTP263	ltpFR	9	n/a	n/a	n/a	n/a	n/a	n/a	12	2	5	7	n/a	n/a	n/a	n/a	n/a
3092876	PROB	n/a	LTP263	ltpFR	9	n/a	n/a	n/a	n/a	n/a	n/a	14	8	5	2	n/a	n/a	n/a	n/a	n/a
3094823	PROB	n/a	LTP263	ltpFR	9	n/a	n/a	n/a	n/a	n/a	n/a	19	5	6	8	n/a	n/a	n/a	n/a	n/a
3099107	STOP	n/a	LTP263	ltpFR	9	n/a	n/a	n/a	n/a	n/a	n/a	n/a	n/a	n/a	n/a	n/a	n/a	n/a	n/a	n/a
3099932	WORD	wordpools/wasnorm_wordpool_less_exclusions.txt	LTP263	ltpFR	9	11	1	CANOE	233	n/a	2	n/a	0	0	0	1	0.412841796875	0.57763671875	upper	../fonts/zerothre.ttf
3101330	KEY_MSG	n/a	LTP263	ltpFR	9	11	n/a	n/a	n/a	n/a	n/a	n/a	0	0	0	n/a	n/a	n/a	n/a	n/a
3102945	START	n/a	LTP263	ltpFR	9	n/a	n/a	n/a	n/a	n/a	n/a	n/a	n/a	n/a	n/a	n/a	n/a	n/a	n/a	n/a
3103826	PROB	n/a	LTP263	ltpFR	9	n/a	n/a	n/a	n/a	n/a	n/a	23	7	9	6	n/a	n/a	n/a	n/a	n/a
3106289	PROB	n/a	LTP263	ltpFR	9	n/a	n/a	n/a	n/a	n/a	n/a	26	9	6	9	n/a	n/a	n/a	n/a	n/a
3108586	PROB	n/a	LTP263	ltpFR	9	n/a	n/a	n/a	n/a	n/a	n/a	14	8	5	2	n/a	n/a	n/a	n/a	n/a
3110982	PROB	n/a	LTP263	ltpFR	9	n/a	n/a	n/a	n/a	n/a	n/a	2	7	9	9	n/a	n/a	n/a	n/a	n/a
3113578	PROB	n/a	LTP263	ltpFR	9	n/a	n/a	n/a	n/a	n/a	n/a	17	1	8	8	n/a	n/a	n/a	n/a	n/a
3114860	PROB	n/a	LTP263	ltpFR	9	n/a	n/a	n/a	n/a	n/a	n/a	8	2	3	3	n/a	n/a	n/a	n/a	n/a
3116556	PROB	n/a	LTP263	ltpFR	9	n/a	n/a	n/a	n/a	n/a	n/a	17	7	2	8	n/a	n/a	n/a	n/a	n/a
3118239	STOP	n/a	LTP263	ltpFR	9	n/a	n/a	n/a	n/a	n/a	n/a	n/a	n/a	n/a	n/a	n/a	n/a	n/a	n/a	n/a
3120085	WORD	wordpools/wasnorm_wordpool_less_exclusions.txt	LTP263	ltpFR	9	11	1	CREW	406	n/a	0	n/a	0	0	0	1	0.412841796875	0.57763671875	upper	../fonts/zerothre.ttf
3123098	START	n/a	LTP263	ltpFR	9	n/a	n/a	n/a	n/a	n/a	n/a	n/a	n/a	n/a	n/a	n/a	n/a	n/a	n/a	n/a
3124096	PROB	n/a	LTP263	ltpFR	9	n/a	n/a	n/a	n/a	n/a	n/a	11	7	3	1	n/a	n/a	n/a	n/a	n/a
3125211	PROB	n/a	LTP263	ltpFR	9	n/a	n/a	n/a	n/a	n/a	n/a	17	6	7	4	n/a	n/a	n/a	n/a	n/a
3127457	PROB	n/a	LTP263	ltpFR	9	n/a	n/a	n/a	n/a	n/a	n/a	16	6	7	3	n/a	n/a	n/a	n/a	n/a
3129821	PROB	n/a	LTP263	ltpFR	9	n/a	n/a	n/a	n/a	n/a	n/a	26	6	9	9	n/a	n/a	n/a	n/a	n/a
3131468	PROB	n/a	LTP263	ltpFR	9	n/a	n/a	n/a	n/a	n/a	n/a	12	1	8	3	n/a	n/a	n/a	n/a	n/a
3133948	PROB	n/a	LTP263	ltpFR	9	n/a	n/a	n/a	n/a	n/a	n/a	9	1	3	5	n/a	n/a	n/a	n/a	n/a
3135163	PROB	n/a	LTP263	ltpFR	9	n/a	n/a	n/a	n/a	n/a	n/a	22	7	7	8	n/a	n/a	n/a	n/a	n/a
3136760	PROB	n/a	LTP263	ltpFR	9	n/a	n/a	n/a	n/a	n/a	n/a	15	1	5	9	n/a	n/a	n/a	n/a	n/a
3138095	STOP	n/a	LTP263	ltpFR	9	n/a	n/a	n/a	n/a	n/a	n/a	n/a	n/a	n/a	n/a	n/a	n/a	n/a	n/a	n/a
3140888	REC_START	n/a	LTP263	ltpFR	9	11	n/a	n/a	n/a	n/a	n/a	n/a	0	0	0	n/a	n/a	n/a	n/a	n/a
3143112	REC_WORD	wordpools/wasnorm_wordpool_less_exclusions.txt	LTP263	ltpFR	9	11	0	TURTLE	1522	n/a	0	n/a	0	0	0	n/a	n/a	n/a	n/a	n/a
3143953	REC_WORD	wordpools/wasnorm_wordpool_less_exclusions.txt	LTP263	ltpFR	9	11	0	PICKLE	1059	n/a	1	n/a	0	0	0	n/a	n/a	n/a	n/a	n/a
3144834	REC_WORD	wordpools/wasnorm_wordpool_less_exclusions.txt	LTP263	ltpFR	9	11	0	LEMON	810	n/a	0	n/a	0	0	0	n/a	n/a	n/a	n/a	n/a
3218505	WORD	wordpools/wasnorm_wordpool_less_exclusions.txt	LTP263	ltpFR	9	12	1	COUNTY	389	n/a	0	n/a	0	0	0	1	0.412841796875	0.57763671875	upper	../fonts/zerothre.ttf
3222416	WORD	wordpools/wasnorm_wordpool_less_exclusions.txt	LTP263	ltpFR	9	12	1	CAPITAL	238	n/a	0	n/a	0	0	0	1	0.412841796875	0.57763671875	upper	../fonts/zerothre.ttf
3226343	WORD	wordpools/wasnorm_wordpool_less_exclusions.txt	LTP263	ltpFR	9	12	1	SALOON	1228	n/a	0	n/a	0	0	0	1	0.412841796875	0.57763671875	upper	../fonts/zerothre.ttf
3230470	WORD	wordpools/wasnorm_wordpool_less_exclusions.txt	LTP263	ltpFR	9	12	1	SIBLING	1301	n/a	1	n/a	0	0	0	1	0.412841796875	0.57763671875	upper	../fonts/zerothre.ttf
3234365	WORD	wordpools/wasnorm_wordpool_less_exclusions.txt	LTP263	ltpFR	9	12	1	SWITCH	1422	n/a	0	n/a	0	0	0	1	0.412841796875	0.57763671875	upper	../fonts/zerothre.ttf
3238375	WORD	wordpools/wasnorm_wordpool_less_exclusions.txt	LTP263	ltpFR	9	12	1	MISTER	901	n/a	1	n/a	0	0	0	1	0.412841796875	0.57763671875	upper	../fonts/zerothre.ttf
3242369	WORD	wordpools/wasnorm_wordpool_less_exclusions.txt	LTP263	ltpFR	9	12	1	MINER	896	n/a	1	n/a	0	0	0	1	0.412841796875	0.57763671875	upper	../fonts/zerothre.ttf
3246263	WORD	wordpools/wasnorm_wordpool_less_exclusions.txt	LTP263	ltpFR	9	12	1	KEG	770	n/a	0	n/a	0	0	0	1	0.412841796875	0.57763671875	upper	../fonts/zerothre.ttf
3250291	WORD	wordpools/wasnorm_wordpool_less_exclusions.txt	LTP263	ltpFR	9	12	1	FOUNTAIN	597	n/a	0	n/a	0	0	0	1	0.412841796875	0.57763671875	upper	../fonts/zerothre.ttf
3254268	WORD	wordpools/wasnorm_wordpool_less_exclusions.txt	LTP263	ltpFR	9	12	1	SCENERY	1247	n/a	0	n/a	0	0	0	1	0.412841796875	0.57763671875	upper	../fonts/zerothre.ttf
3258445	WORD	wordpools/wasnorm_wordpool_less_exclusions.txt	LTP263	ltpFR	9	12	1	RADISH	1158	n/a	1	n/a	0	0	0	1	0.412841796875	0.57763671875	upper	../fonts/zerothre.ttf
