mstime	trial_type	stim_file	subject	experiment	session	trial	item_name	item_num	list	answer	test_x	test_y	test_z
0	SESS_START	n/a	LTP373	ltpFR2	11	n/a	n/a	n/a	n/a	n/a	0	0	0
13380	START	n/a	LTP373	ltpFR2	11	n/a	n/a	n/a	-1	n/a	n/a	n/a	n/a
13410	PROB	n/a	LTP373	ltpFR2	11	n/a	n/a	n/a	-1	17	5	7	5
15493	PROB	n/a	LTP373	ltpFR2	11	n/a	n/a	n/a	-1	10	3	1	6
16959	PROB	n/a	LTP373	ltpFR2	11	n/a	n/a	n/a	-1	24	8	9	7
18974	PROB	n/a	LTP373	ltpFR2	11	n/a	n/a	n/a	-1	15	3	7	5
20190	PROB	n/a	LTP373	ltpFR2	11	n/a	n/a	n/a	-1	17	4	7	6
22773	PROB	n/a	LTP373	ltpFR2	11	n/a	n/a	n/a	-1	19	9	8	2
24129	STOP	n/a	LTP373	ltpFR2	11	n/a	n/a	n/a	-1	n/a	n/a	n/a	n/a
57607	WORD	wordpools/wasnorm_wordpool_576.txt	LTP373	ltpFR2	11	1	BANK	83	n/a	n/a	0	0	0
60406	WORD	wordpools/wasnorm_wordpool_576.txt	LTP373	ltpFR2	11	1	NAPKIN	937	n/a	n/a	0	0	0
62955	WORD	wordpools/wasnorm_wordpool_576.txt	LTP373	ltpFR2	11	1	CABIN	211	n/a	n/a	0	0	0
65670	WORD	wordpools/wasnorm_wordpool_576.txt	LTP373	ltpFR2	11	1	TART	1436	n/a	n/a	0	0	0
68469	WORD	wordpools/wasnorm_wordpool_576.txt	LTP373	ltpFR2	11	1	BEAVER	109	n/a	n/a	0	0	0
71268	WORD	wordpools/wasnorm_wordpool_576.txt	LTP373	ltpFR2	11	1	CHIPMUNK	304	n/a	n/a	0	0	0
74016	WORD	wordpools/wasnorm_wordpool_576.txt	LTP373	ltpFR2	11	1	WINDOW	1611	n/a	n/a	0	0	0
76565	WORD	wordpools/wasnorm_wordpool_576.txt	LTP373	ltpFR2	11	1	CEILING	265	n/a	n/a	0	0	0
79097	WORD	wordpools/wasnorm_wordpool_576.txt	LTP373	ltpFR2	11	1	SPHINX	1349	n/a	n/a	0	0	0
81596	WORD	wordpools/wasnorm_wordpool_576.txt	LTP373	ltpFR2	11	1	CORAL	378	n/a	n/a	0	0	0
84296	WORD	wordpools/wasnorm_wordpool_576.txt	LTP373	ltpFR2	11	1	TURKEY	1520	n/a	n/a	0	0	0
86827	WORD	wordpools/wasnorm_wordpool_576.txt	LTP373	ltpFR2	11	1	WRIST	1626	n/a	n/a	0	0	0
89294	WORD	wordpools/wasnorm_wordpool_576.txt	LTP373	ltpFR2	11	1	OINTMENT	974	n/a	n/a	0	0	0
91891	WORD	wordpools/wasnorm_wordpool_576.txt	LTP373	ltpFR2	11	1	DRUG	501	n/a	n/a	0	0	0
94507	WORD	wordpools/wasnorm_wordpool_576.txt	LTP373	ltpFR2	11	1	CRAYON	401	n/a	n/a	0	0	0
97122	WORD	wordpools/wasnorm_wordpool_576.txt	LTP373	ltpFR2	11	1	MOTEL	919	n/a	n/a	0	0	0
99638	WORD	wordpools/wasnorm_wordpool_576.txt	LTP373	ltpFR2	11	1	MATTRESS	879	n/a	n/a	0	0	0
102288	WORD	wordpools/wasnorm_wordpool_576.txt	LTP373	ltpFR2	11	1	HORSE	719	n/a	n/a	0	0	0
104819	WORD	wordpools/wasnorm_wordpool_576.txt	LTP373	ltpFR2	11	1	TUBA	1515	n/a	n/a	0	0	0
107434	WORD	wordpools/wasnorm_wordpool_576.txt	LTP373	ltpFR2	11	1	SKILLET	1317	n/a	n/a	0	0	0
109917	WORD	wordpools/wasnorm_wordpool_576.txt	LTP373	ltpFR2	11	1	WIFE	1609	n/a	n/a	0	0	0
112382	WORD	wordpools/wasnorm_wordpool_576.txt	LTP373	ltpFR2	11	1	SUPPER	1411	n/a	n/a	0	0	0
115164	WORD	wordpools/wasnorm_wordpool_576.txt	LTP373	ltpFR2	11	1	BANKER	84	n/a	n/a	0	0	0
117713	WORD	wordpools/wasnorm_wordpool_576.txt	LTP373	ltpFR2	11	1	SANDWICH	1232	n/a	n/a	0	0	0
119330	START	n/a	LTP373	ltpFR2	11	n/a	n/a	n/a	1	n/a	n/a	n/a	n/a
120305	DISTRACTOR	n/a	LTP373	ltpFR2	11	1	n/a	n/a	n/a	n/a	0	0	0
120313	PROB	n/a	LTP373	ltpFR2	11	n/a	n/a	n/a	1	13	1	5	7
122061	PROB	n/a	LTP373	ltpFR2	11	n/a	n/a	n/a	1	8	2	1	5
123262	PROB	n/a	LTP373	ltpFR2	11	n/a	n/a	n/a	1	10	3	6	1
124660	PROB	n/a	LTP373	ltpFR2	11	n/a	n/a	n/a	1	13	3	3	7
126592	PROB	n/a	LTP373	ltpFR2	11	n/a	n/a	n/a	1	11	3	5	3
128326	PROB	n/a	LTP373	ltpFR2	11	n/a	n/a	n/a	1	22	6	9	7
130657	PROB	n/a	LTP373	ltpFR2	11	n/a	n/a	n/a	1	14	4	3	7
131973	PROB	n/a	LTP373	ltpFR2	11	n/a	n/a	n/a	1	17	7	2	8
133589	PROB	n/a	LTP373	ltpFR2	11	n/a	n/a	n/a	1	19	9	7	3
135105	PROB	n/a	LTP373	ltpFR2	11	n/a	n/a	n/a	1	20	9	8	3
136971	PROB	n/a	LTP373	ltpFR2	11	n/a	n/a	n/a	1	13	7	2	4
138770	PROB	n/a	LTP373	ltpFR2	11	n/a	n/a	n/a	1	16	7	7	2
139903	PROB	n/a	LTP373	ltpFR2	11	n/a	n/a	n/a	1	15	4	6	1
141270	PROB	n/a	LTP373	ltpFR2	11	n/a	n/a	n/a	1	17	9	5	3
142708	STOP	n/a	LTP373	ltpFR2	11	n/a	n/a	n/a	1	n/a	n/a	n/a	n/a
145185	REC_START	n/a	LTP373	ltpFR2	11	1	n/a	n/a	n/a	n/a	0	0	0
145756	REC_WORD	wordpools/wasnorm_wordpool_576.txt	LTP373	ltpFR2	11	1	BANK	83	n/a	n/a	0	0	0
147020	REC_WORD	wordpools/wasnorm_wordpool_576.txt	LTP373	ltpFR2	11	1	BANKER	84	n/a	n/a	0	0	0
148299	REC_WORD	wordpools/wasnorm_wordpool_576.txt	LTP373	ltpFR2	11	1	CABIN	211	n/a	n/a	0	0	0
149703	REC_WORD	wordpools/wasnorm_wordpool_576.txt	LTP373	ltpFR2	11	1	CHIPMUNK	304	n/a	n/a	0	0	0
150884	REC_WORD	wordpools/wasnorm_wordpool_576.txt	LTP373	ltpFR2	11	1	NAPKIN	937	n/a	n/a	0	0	0
152033	REC_WORD	wordpools/wasnorm_wordpool_576.txt	LTP373	ltpFR2	11	1	WRIST	1626	n/a	n/a	0	0	0
153383	REC_WORD	wordpools/wasnorm_wordpool_576.txt	LTP373	ltpFR2	11	1	OINTMENT	974	n/a	n/a	0	0	0
154542	REC_WORD	wordpools/wasnorm_wordpool_576.txt	LTP373	ltpFR2	11	1	DRUG	501	n/a	n/a	0	0	0
156082	REC_WORD	wordpools/wasnorm_wordpool_576.txt	LTP373	ltpFR2	11	1	CEILING	265	n/a	n/a	0	0	0
157480	REC_WORD	wordpools/wasnorm_wordpool_576.txt	LTP373	ltpFR2	11	1	MATTRESS	879	n/a	n/a	0	0	0
158755	REC_WORD	wordpools/wasnorm_wordpool_576.txt	LTP373	ltpFR2	11	1	WIFE	1609	n/a	n/a	0	0	0
159966	REC_WORD	wordpools/wasnorm_wordpool_576.txt	LTP373	ltpFR2	11	1	SKILLET	1317	n/a	n/a	0	0	0
161233	REC_WORD	wordpools/wasnorm_wordpool_576.txt	LTP373	ltpFR2	11	1	SUPPER	1411	n/a	n/a	0	0	0
162469	REC_WORD	wordpools/wasnorm_wordpool_576.txt	LTP373	ltpFR2	11	1	SANDWICH	1232	n/a	n/a	0	0	0
163841	REC_WORD	wordpools/wasnorm_wordpool_576.txt	LTP373	ltpFR2	11	1	HORSE	719	n/a	n/a	0	0	0
173517	REC_WORD	wordpools/wasnorm_wordpool_576.txt	LTP373	ltpFR2	11	1	WINDOW	1611	n/a	n/a	0	0	0
235643	WORD	wordpools/wasnorm_wordpool_576.txt	LTP373	ltpFR2	11	2	PLIERS	1089	n/a	n/a	0	0	0
238260	WORD	wordpools/wasnorm_wordpool_576.txt	LTP373	ltpFR2	11	2	HATCHET	691	n/a	n/a	0	0	0
241041	WORD	wordpools/wasnorm_wordpool_576.txt	LTP373	ltpFR2	11	2	TROUT	1511	n/a	n/a	0	0	0
243723	WORD	wordpools/wasnorm_wordpool_576.txt	LTP373	ltpFR2	11	2	JOURNAL	760	n/a	n/a	0	0	0
246155	WORD	wordpools/wasnorm_wordpool_576.txt	LTP373	ltpFR2	11	2	NURSE	963	n/a	n/a	0	0	0
248887	WORD	wordpools/wasnorm_wordpool_576.txt	LTP373	ltpFR2	11	2	SCALPEL	1243	n/a	n/a	0	0	0
251636	WORD	wordpools/wasnorm_wordpool_576.txt	LTP373	ltpFR2	11	2	PATROL	1027	n/a	n/a	0	0	0
254102	WORD	wordpools/wasnorm_wordpool_576.txt	LTP373	ltpFR2	11	2	BLACKBOARD	133	n/a	n/a	0	0	0
256850	WORD	wordpools/wasnorm_wordpool_576.txt	LTP373	ltpFR2	11	2	SCULPTURE	1258	n/a	n/a	0	0	0
259283	WORD	wordpools/wasnorm_wordpool_576.txt	LTP373	ltpFR2	11	2	FLIPPER	580	n/a	n/a	0	0	0
261881	WORD	wordpools/wasnorm_wordpool_576.txt	LTP373	ltpFR2	11	2	COFFEE	341	n/a	n/a	0	0	0
264497	WORD	wordpools/wasnorm_wordpool_576.txt	LTP373	ltpFR2	11	2	HAMPER	682	n/a	n/a	0	0	0
267297	WORD	wordpools/wasnorm_wordpool_576.txt	LTP373	ltpFR2	11	2	CIGAR	308	n/a	n/a	0	0	0
269878	WORD	wordpools/wasnorm_wordpool_576.txt	LTP373	ltpFR2	11	2	TURNIP	1521	n/a	n/a	0	0	0
272560	WORD	wordpools/wasnorm_wordpool_576.txt	LTP373	ltpFR2	11	2	ITEM	746	n/a	n/a	0	0	0
275075	WORD	wordpools/wasnorm_wordpool_576.txt	LTP373	ltpFR2	11	2	SHERIFF	1284	n/a	n/a	0	0	0
277574	WORD	wordpools/wasnorm_wordpool_576.txt	LTP373	ltpFR2	11	2	COCOON	339	n/a	n/a	0	0	0
280056	WORD	wordpools/wasnorm_wordpool_576.txt	LTP373	ltpFR2	11	2	ROBBER	1197	n/a	n/a	0	0	0
282572	WORD	wordpools/wasnorm_wordpool_576.txt	LTP373	ltpFR2	11	2	VICTIM	1562	n/a	n/a	0	0	0
285272	WORD	wordpools/wasnorm_wordpool_576.txt	LTP373	ltpFR2	11	2	DUSTPAN	509	n/a	n/a	0	0	0
287820	WORD	wordpools/wasnorm_wordpool_576.txt	LTP373	ltpFR2	11	2	CLOCK	325	n/a	n/a	0	0	0
290385	WORD	wordpools/wasnorm_wordpool_576.txt	LTP373	ltpFR2	11	2	TRACTOR	1493	n/a	n/a	0	0	0
292934	WORD	wordpools/wasnorm_wordpool_576.txt	LTP373	ltpFR2	11	2	IGLOO	734	n/a	n/a	0	0	0
295433	WORD	wordpools/wasnorm_wordpool_576.txt	LTP373	ltpFR2	11	2	SPIDER	1351	n/a	n/a	0	0	0
297049	START	n/a	LTP373	ltpFR2	11	n/a	n/a	n/a	2	n/a	n/a	n/a	n/a
298222	DISTRACTOR	n/a	LTP373	ltpFR2	11	2	n/a	n/a	n/a	n/a	0	0	0
298232	PROB	n/a	LTP373	ltpFR2	11	n/a	n/a	n/a	2	15	7	3	5
299714	PROB	n/a	LTP373	ltpFR2	11	n/a	n/a	n/a	2	21	9	4	8
301380	PROB	n/a	LTP373	ltpFR2	11	n/a	n/a	n/a	2	18	4	5	9
302863	PROB	n/a	LTP373	ltpFR2	11	n/a	n/a	n/a	2	12	2	7	3
304313	PROB	n/a	LTP373	ltpFR2	11	n/a	n/a	n/a	2	15	9	4	2
306061	PROB	n/a	LTP373	ltpFR2	11	n/a	n/a	n/a	2	10	7	1	2
307262	PROB	n/a	LTP373	ltpFR2	11	n/a	n/a	n/a	2	9	1	4	4
308460	PROB	n/a	LTP373	ltpFR2	11	n/a	n/a	n/a	2	15	1	8	6
309943	PROB	n/a	LTP373	ltpFR2	11	n/a	n/a	n/a	2	23	5	9	9
311426	PROB	n/a	LTP373	ltpFR2	11	n/a	n/a	n/a	2	14	1	5	8
312675	PROB	n/a	LTP373	ltpFR2	11	n/a	n/a	n/a	2	22	9	5	8
314391	PROB	n/a	LTP373	ltpFR2	11	n/a	n/a	n/a	2	10	6	2	2
315807	PROB	n/a	LTP373	ltpFR2	11	n/a	n/a	n/a	2	18	5	7	6
317873	PROB	n/a	LTP373	ltpFR2	11	n/a	n/a	n/a	2	14	7	4	3
319994	STOP	n/a	LTP373	ltpFR2	11	n/a	n/a	n/a	2	n/a	n/a	n/a	n/a
322971	REC_START	n/a	LTP373	ltpFR2	11	2	n/a	n/a	n/a	n/a	0	0	0
324201	REC_WORD	wordpools/wasnorm_wordpool_576.txt	LTP373	ltpFR2	11	2	IGLOO	734	n/a	n/a	0	0	0
334361	REC_WORD	wordpools/wasnorm_wordpool_576.txt	LTP373	ltpFR2	11	2	COFFEE	341	n/a	n/a	0	0	0
335664	REC_WORD	wordpools/wasnorm_wordpool_576.txt	LTP373	ltpFR2	11	2	BLACKBOARD	133	n/a	n/a	0	0	0
336811	REC_WORD	wordpools/wasnorm_wordpool_576.txt	LTP373	ltpFR2	11	2	ROBBER	1197	n/a	n/a	0	0	0
338103	REC_WORD	wordpools/wasnorm_wordpool_576.txt	LTP373	ltpFR2	11	2	VICTIM	1562	n/a	n/a	0	0	0
357583	REC_WORD	wordpools/wasnorm_wordpool_576.txt	LTP373	ltpFR2	11	2	PLIERS	1089	n/a	n/a	0	0	0
358680	REC_WORD	wordpools/wasnorm_wordpool_576.txt	LTP373	ltpFR2	11	2	HATCHET	691	n/a	n/a	0	0	0
359898	REC_WORD	wordpools/wasnorm_wordpool_576.txt	LTP373	ltpFR2	11	2	SCALPEL	1243	n/a	n/a	0	0	0
360932	REC_WORD	wordpools/wasnorm_wordpool_576.txt	LTP373	ltpFR2	11	2	NURSE	963	n/a	n/a	0	0	0
362125	REC_WORD	wordpools/wasnorm_wordpool_576.txt	LTP373	ltpFR2	11	2	ITEM	746	n/a	n/a	0	0	0
371523	REC_WORD	wordpools/wasnorm_wordpool_576.txt	LTP373	ltpFR2	11	2	BLACKBOARD	133	n/a	n/a	0	0	0
372424	REC_WORD	wordpools/wasnorm_wordpool_576.txt	LTP373	ltpFR2	11	2	COFFEE	341	n/a	n/a	0	0	0
413430	WORD	wordpools/wasnorm_wordpool_576.txt	LTP373	ltpFR2	11	3	CLIMBER	323	n/a	n/a	0	0	0
416012	WORD	wordpools/wasnorm_wordpool_576.txt	LTP373	ltpFR2	11	3	HIKER	708	n/a	n/a	0	0	0
418727	WORD	wordpools/wasnorm_wordpool_576.txt	LTP373	ltpFR2	11	3	SIDEWALK	1303	n/a	n/a	0	0	0
421243	WORD	wordpools/wasnorm_wordpool_576.txt	LTP373	ltpFR2	11	3	CHEST	295	n/a	n/a	0	0	0
423775	WORD	wordpools/wasnorm_wordpool_576.txt	LTP373	ltpFR2	11	3	SLUG	1329	n/a	n/a	0	0	0
426474	WORD	wordpools/wasnorm_wordpool_576.txt	LTP373	ltpFR2	11	3	HEART	697	n/a	n/a	0	0	0
429222	WORD	wordpools/wasnorm_wordpool_576.txt	LTP373	ltpFR2	11	3	LILY	821	n/a	n/a	0	0	0
431671	WORD	wordpools/wasnorm_wordpool_576.txt	LTP373	ltpFR2	11	3	BOUQUET	157	n/a	n/a	0	0	0
434370	WORD	wordpools/wasnorm_wordpool_576.txt	LTP373	ltpFR2	11	3	TORTOISE	1486	n/a	n/a	0	0	0
436986	WORD	wordpools/wasnorm_wordpool_576.txt	LTP373	ltpFR2	11	3	MARROW	872	n/a	n/a	0	0	0
439718	WORD	wordpools/wasnorm_wordpool_576.txt	LTP373	ltpFR2	11	3	SLIME	1327	n/a	n/a	0	0	0
442250	WORD	wordpools/wasnorm_wordpool_576.txt	LTP373	ltpFR2	11	3	GYMNAST	675	n/a	n/a	0	0	0
444682	WORD	wordpools/wasnorm_wordpool_576.txt	LTP373	ltpFR2	11	3	TWEEZERS	1526	n/a	n/a	0	0	0
447498	WORD	wordpools/wasnorm_wordpool_576.txt	LTP373	ltpFR2	11	3	VALLEY	1545	n/a	n/a	0	0	0
450281	WORD	wordpools/wasnorm_wordpool_576.txt	LTP373	ltpFR2	11	3	LAKE	796	n/a	n/a	0	0	0
453095	WORD	wordpools/wasnorm_wordpool_576.txt	LTP373	ltpFR2	11	3	FUNGUS	614	n/a	n/a	0	0	0
455727	WORD	wordpools/wasnorm_wordpool_576.txt	LTP373	ltpFR2	11	3	PILOT	1070	n/a	n/a	0	0	0
458393	WORD	wordpools/wasnorm_wordpool_576.txt	LTP373	ltpFR2	11	3	BLOUSE	139	n/a	n/a	0	0	0
460875	WORD	wordpools/wasnorm_wordpool_576.txt	LTP373	ltpFR2	11	3	PAIL	1002	n/a	n/a	0	0	0
463540	WORD	wordpools/wasnorm_wordpool_576.txt	LTP373	ltpFR2	11	3	TOMBSTONE	1478	n/a	n/a	0	0	0
466056	WORD	wordpools/wasnorm_wordpool_576.txt	LTP373	ltpFR2	11	3	WIDOW	1608	n/a	n/a	0	0	0
468788	WORD	wordpools/wasnorm_wordpool_576.txt	LTP373	ltpFR2	11	3	LAVA	804	n/a	n/a	0	0	0
471603	WORD	wordpools/wasnorm_wordpool_576.txt	LTP373	ltpFR2	11	3	PERMIT	1051	n/a	n/a	0	0	0
474136	WORD	wordpools/wasnorm_wordpool_576.txt	LTP373	ltpFR2	11	3	AIRPLANE	12	n/a	n/a	0	0	0
475752	START	n/a	LTP373	ltpFR2	11	n/a	n/a	n/a	3	n/a	n/a	n/a	n/a
476612	DISTRACTOR	n/a	LTP373	ltpFR2	11	3	n/a	n/a	n/a	n/a	0	0	0
476618	PROB	n/a	LTP373	ltpFR2	11	n/a	n/a	n/a	3	18	8	5	5
478050	PROB	n/a	LTP373	ltpFR2	11	n/a	n/a	n/a	3	13	6	3	4
479850	PROB	n/a	LTP373	ltpFR2	11	n/a	n/a	n/a	3	19	9	7	3
481166	PROB	n/a	LTP373	ltpFR2	11	n/a	n/a	n/a	3	17	8	6	3
483198	PROB	n/a	LTP373	ltpFR2	11	n/a	n/a	n/a	3	22	8	8	7
485230	PROB	n/a	LTP373	ltpFR2	11	n/a	n/a	n/a	3	9	6	1	2
486646	PROB	n/a	LTP373	ltpFR2	11	n/a	n/a	n/a	3	19	7	6	6
488179	PROB	n/a	LTP373	ltpFR2	11	n/a	n/a	n/a	3	17	9	5	3
489578	PROB	n/a	LTP373	ltpFR2	11	n/a	n/a	n/a	3	10	4	5	1
491161	PROB	n/a	LTP373	ltpFR2	11	n/a	n/a	n/a	3	16	5	3	8
492744	PROB	n/a	LTP373	ltpFR2	11	n/a	n/a	n/a	3	18	3	9	6
494226	PROB	n/a	LTP373	ltpFR2	11	n/a	n/a	n/a	3	11	4	2	5
495659	PROB	n/a	LTP373	ltpFR2	11	n/a	n/a	n/a	3	14	3	8	3
497642	PROB	n/a	LTP373	ltpFR2	11	n/a	n/a	n/a	3	16	6	1	9
499216	STOP	n/a	LTP373	ltpFR2	11	n/a	n/a	n/a	3	n/a	n/a	n/a	n/a
501557	REC_START	n/a	LTP373	ltpFR2	11	3	n/a	n/a	n/a	n/a	0	0	0
502300	REC_WORD	wordpools/wasnorm_wordpool_576.txt	LTP373	ltpFR2	11	3	WIDOW	1608	n/a	n/a	0	0	0
503517	REC_WORD	wordpools/wasnorm_wordpool_576.txt	LTP373	ltpFR2	11	3	BLOUSE	139	n/a	n/a	0	0	0
504770	REC_WORD	wordpools/wasnorm_wordpool_576.txt	LTP373	ltpFR2	11	3	TOMBSTONE	1478	n/a	n/a	0	0	0
506795	REC_WORD	wordpools/wasnorm_wordpool_576.txt	LTP373	ltpFR2	11	3	LILY	821	n/a	n/a	0	0	0
507923	REC_WORD	wordpools/wasnorm_wordpool_576.txt	LTP373	ltpFR2	11	3	BOUQUET	157	n/a	n/a	0	0	0
509093	REC_WORD	wordpools/wasnorm_wordpool_576.txt	LTP373	ltpFR2	11	3	SIDEWALK	1303	n/a	n/a	0	0	0
510139	REC_WORD	wordpools/wasnorm_wordpool_576.txt	LTP373	ltpFR2	11	3	SLUG	1329	n/a	n/a	0	0	0
511408	REC_WORD	wordpools/wasnorm_wordpool_576.txt	LTP373	ltpFR2	11	3	SLIME	1327	n/a	n/a	0	0	0
512495	REC_WORD	wordpools/wasnorm_wordpool_576.txt	LTP373	ltpFR2	11	3	FUNGUS	614	n/a	n/a	0	0	0
513693	REC_WORD	wordpools/wasnorm_wordpool_576.txt	LTP373	ltpFR2	11	3	CHEST	295	n/a	n/a	0	0	0
514827	REC_WORD	wordpools/wasnorm_wordpool_576.txt	LTP373	ltpFR2	11	3	HEART	697	n/a	n/a	0	0	0
516039	REC_WORD	wordpools/wasnorm_wordpool_576.txt	LTP373	ltpFR2	11	3	CLIMBER	323	n/a	n/a	0	0	0
518759	REC_WORD	wordpools/wasnorm_wordpool_576.txt	LTP373	ltpFR2	11	3	HIKER	708	n/a	n/a	0	0	0
548311	REC_WORD	wordpools/wasnorm_wordpool_576.txt	LTP373	ltpFR2	11	3	LILY	821	n/a	n/a	0	0	0
561520	REC_WORD	wordpools/wasnorm_wordpool_576.txt	LTP373	ltpFR2	11	3	GYMNAST	675	n/a	n/a	0	0	0
562225	REC_WORD	wordpools/wasnorm_wordpool_576.txt	LTP373	ltpFR2	11	3	PILOT	1070	n/a	n/a	0	0	0
562908	REC_WORD	wordpools/wasnorm_wordpool_576.txt	LTP373	ltpFR2	11	3	AIRPLANE	12	n/a	n/a	0	0	0
591982	DISTRACTOR	n/a	LTP373	ltpFR2	11	4	n/a	n/a	n/a	n/a	0	0	0
591982	START	n/a	LTP373	ltpFR2	11	n/a	n/a	n/a	4	n/a	n/a	n/a	n/a
591999	PROB	n/a	LTP373	ltpFR2	11	n/a	n/a	n/a	4	14	4	6	4
593881	PROB	n/a	LTP373	ltpFR2	11	n/a	n/a	n/a	4	13	2	7	4
595681	PROB	n/a	LTP373	ltpFR2	11	n/a	n/a	n/a	4	17	4	4	9
597297	PROB	n/a	LTP373	ltpFR2	11	n/a	n/a	n/a	4	7	1	5	1
598696	PROB	n/a	LTP373	ltpFR2	11	n/a	n/a	n/a	4	7	1	5	1
599829	PROB	n/a	LTP373	ltpFR2	11	n/a	n/a	n/a	4	16	2	7	7
601761	PROB	n/a	LTP373	ltpFR2	11	n/a	n/a	n/a	4	12	2	8	2
603061	PROB	n/a	LTP373	ltpFR2	11	n/a	n/a	n/a	4	19	9	3	7
604510	PROB	n/a	LTP373	ltpFR2	11	n/a	n/a	n/a	4	13	1	4	8
606242	PROB	n/a	LTP373	ltpFR2	11	n/a	n/a	n/a	4	18	8	6	4
607509	PROB	n/a	LTP373	ltpFR2	11	n/a	n/a	n/a	4	16	4	5	7
608875	PROB	n/a	LTP373	ltpFR2	11	n/a	n/a	n/a	4	13	4	3	6
610940	PROB	n/a	LTP373	ltpFR2	11	n/a	n/a	n/a	4	11	3	2	6
612274	PROB	n/a	LTP373	ltpFR2	11	n/a	n/a	n/a	4	12	2	6	4
615982	STOP	n/a	LTP373	ltpFR2	11	n/a	n/a	n/a	4	n/a	n/a	n/a	n/a
616804	WORD	wordpools/wasnorm_wordpool_576.txt	LTP373	ltpFR2	11	4	BEAKER	104	n/a	n/a	0	0	0
619470	WORD	wordpools/wasnorm_wordpool_576.txt	LTP373	ltpFR2	11	4	GROUND	666	n/a	n/a	0	0	0
622102	WORD	wordpools/wasnorm_wordpool_576.txt	LTP373	ltpFR2	11	4	PIGEON	1065	n/a	n/a	0	0	0
624734	WORD	wordpools/wasnorm_wordpool_576.txt	LTP373	ltpFR2	11	4	FOOTBALL	591	n/a	n/a	0	0	0
627350	WORD	wordpools/wasnorm_wordpool_576.txt	LTP373	ltpFR2	11	4	COSTUME	383	n/a	n/a	0	0	0
630115	WORD	wordpools/wasnorm_wordpool_576.txt	LTP373	ltpFR2	11	4	SHARK	1275	n/a	n/a	0	0	0
632631	WORD	wordpools/wasnorm_wordpool_576.txt	LTP373	ltpFR2	11	4	PIGMENT	1066	n/a	n/a	0	0	0
635129	WORD	wordpools/wasnorm_wordpool_576.txt	LTP373	ltpFR2	11	4	SWITCH	1422	n/a	n/a	0	0	0
637778	WORD	wordpools/wasnorm_wordpool_576.txt	LTP373	ltpFR2	11	4	LAMP	798	n/a	n/a	0	0	0
640311	WORD	wordpools/wasnorm_wordpool_576.txt	LTP373	ltpFR2	11	4	SHOULDER	1294	n/a	n/a	0	0	0
642926	WORD	wordpools/wasnorm_wordpool_576.txt	LTP373	ltpFR2	11	4	CRIB	407	n/a	n/a	0	0	0
645358	WORD	wordpools/wasnorm_wordpool_576.txt	LTP373	ltpFR2	11	4	BABY	64	n/a	n/a	0	0	0
648057	WORD	wordpools/wasnorm_wordpool_576.txt	LTP373	ltpFR2	11	4	LADY	794	n/a	n/a	0	0	0
650789	WORD	wordpools/wasnorm_wordpool_576.txt	LTP373	ltpFR2	11	4	WAGON	1578	n/a	n/a	0	0	0
653256	WORD	wordpools/wasnorm_wordpool_576.txt	LTP373	ltpFR2	11	4	ARM	38	n/a	n/a	0	0	0
655770	WORD	wordpools/wasnorm_wordpool_576.txt	LTP373	ltpFR2	11	4	PICNIC	1060	n/a	n/a	0	0	0
658519	WORD	wordpools/wasnorm_wordpool_576.txt	LTP373	ltpFR2	11	4	PIZZA	1079	n/a	n/a	0	0	0
660984	WORD	wordpools/wasnorm_wordpool_576.txt	LTP373	ltpFR2	11	4	MASK	876	n/a	n/a	0	0	0
663583	WORD	wordpools/wasnorm_wordpool_576.txt	LTP373	ltpFR2	11	4	SKIRT	1319	n/a	n/a	0	0	0
666316	WORD	wordpools/wasnorm_wordpool_576.txt	LTP373	ltpFR2	11	4	CARROT	249	n/a	n/a	0	0	0
669047	WORD	wordpools/wasnorm_wordpool_576.txt	LTP373	ltpFR2	11	4	STONE	1385	n/a	n/a	0	0	0
671746	WORD	wordpools/wasnorm_wordpool_576.txt	LTP373	ltpFR2	11	4	JEANS	752	n/a	n/a	0	0	0
674378	WORD	wordpools/wasnorm_wordpool_576.txt	LTP373	ltpFR2	11	4	SKETCH	1315	n/a	n/a	0	0	0
676927	WORD	wordpools/wasnorm_wordpool_576.txt	LTP373	ltpFR2	11	4	BOX	159	n/a	n/a	0	0	0
678543	START	n/a	LTP373	ltpFR2	11	n/a	n/a	n/a	5	n/a	n/a	n/a	n/a
679396	DISTRACTOR	n/a	LTP373	ltpFR2	11	4	n/a	n/a	n/a	n/a	0	0	0
679409	PROB	n/a	LTP373	ltpFR2	11	n/a	n/a	n/a	5	15	5	7	3
680875	PROB	n/a	LTP373	ltpFR2	11	n/a	n/a	n/a	5	7	3	2	2
683141	PROB	n/a	LTP373	ltpFR2	11	n/a	n/a	n/a	5	26	9	8	9
686307	PROB	n/a	LTP373	ltpFR2	11	n/a	n/a	n/a	5	13	3	9	1
689838	PROB	n/a	LTP373	ltpFR2	11	n/a	n/a	n/a	5	16	2	5	9
691571	PROB	n/a	LTP373	ltpFR2	11	n/a	n/a	n/a	5	5	3	1	1
692720	PROB	n/a	LTP373	ltpFR2	11	n/a	n/a	n/a	5	14	7	2	5
694053	PROB	n/a	LTP373	ltpFR2	11	n/a	n/a	n/a	5	17	5	8	4
695719	PROB	n/a	LTP373	ltpFR2	11	n/a	n/a	n/a	5	16	5	7	4
697319	PROB	n/a	LTP373	ltpFR2	11	n/a	n/a	n/a	5	18	5	7	6
698917	PROB	n/a	LTP373	ltpFR2	11	n/a	n/a	n/a	5	10	2	4	2
700467	PROB	n/a	LTP373	ltpFR2	11	n/a	n/a	n/a	5	22	6	7	9
702335	STOP	n/a	LTP373	ltpFR2	11	n/a	n/a	n/a	5	n/a	n/a	n/a	n/a
704399	REC_START	n/a	LTP373	ltpFR2	11	4	n/a	n/a	n/a	n/a	0	0	0
705141	REC_WORD	wordpools/wasnorm_wordpool_576.txt	LTP373	ltpFR2	11	4	LADY	794	n/a	n/a	0	0	0
706090	REC_WORD	wordpools/wasnorm_wordpool_576.txt	LTP373	ltpFR2	11	4	SKIRT	1319	n/a	n/a	0	0	0
707413	REC_WORD	wordpools/wasnorm_wordpool_576.txt	LTP373	ltpFR2	11	4	JEANS	752	n/a	n/a	0	0	0
708624	REC_WORD	wordpools/wasnorm_wordpool_576.txt	LTP373	ltpFR2	11	4	BABY	64	n/a	n/a	0	0	0
709667	REC_WORD	wordpools/wasnorm_wordpool_576.txt	LTP373	ltpFR2	11	4	CRIB	407	n/a	n/a	0	0	0
710702	REC_WORD	wordpools/wasnorm_wordpool_576.txt	LTP373	ltpFR2	11	4	FOOTBALL	591	n/a	n/a	0	0	0
711949	REC_WORD	wordpools/wasnorm_wordpool_576.txt	LTP373	ltpFR2	11	4	ARM	38	n/a	n/a	0	0	0
712914	REC_WORD	wordpools/wasnorm_wordpool_576.txt	LTP373	ltpFR2	11	4	SHOULDER	1294	n/a	n/a	0	0	0
714113	REC_WORD	wordpools/wasnorm_wordpool_576.txt	LTP373	ltpFR2	11	4	STONE	1385	n/a	n/a	0	0	0
715402	REC_WORD	wordpools/wasnorm_wordpool_576.txt	LTP373	ltpFR2	11	4	GROUND	666	n/a	n/a	0	0	0
717105	REC_WORD	wordpools/wasnorm_wordpool_576.txt	LTP373	ltpFR2	11	4	PIGEON	1065	n/a	n/a	0	0	0
738290	REC_WORD	wordpools/wasnorm_wordpool_576.txt	LTP373	ltpFR2	11	4	BEAKER	104	n/a	n/a	0	0	0
761592	REC_WORD	wordpools/wasnorm_wordpool_576.txt	LTP373	ltpFR2	11	4	WAGON	1578	n/a	n/a	0	0	0
794841	WORD	wordpools/wasnorm_wordpool_576.txt	LTP373	ltpFR2	11	5	SILK	1307	n/a	n/a	0	0	0
797573	WORD	wordpools/wasnorm_wordpool_576.txt	LTP373	ltpFR2	11	5	BOARD	143	n/a	n/a	0	0	0
800289	WORD	wordpools/wasnorm_wordpool_576.txt	LTP373	ltpFR2	11	5	SEAFOOD	1260	n/a	n/a	0	0	0
802887	WORD	wordpools/wasnorm_wordpool_576.txt	LTP373	ltpFR2	11	5	SCALLOP	1242	n/a	n/a	0	0	0
805452	WORD	wordpools/wasnorm_wordpool_576.txt	LTP373	ltpFR2	11	5	FEMALE	559	n/a	n/a	0	0	0
807901	WORD	wordpools/wasnorm_wordpool_576.txt	LTP373	ltpFR2	11	5	BREAST	171	n/a	n/a	0	0	0
810335	WORD	wordpools/wasnorm_wordpool_576.txt	LTP373	ltpFR2	11	5	FOREHEAD	592	n/a	n/a	0	0	0
812816	WORD	wordpools/wasnorm_wordpool_576.txt	LTP373	ltpFR2	11	5	BLOCKADE	137	n/a	n/a	0	0	0
815581	WORD	wordpools/wasnorm_wordpool_576.txt	LTP373	ltpFR2	11	5	PARTNER	1017	n/a	n/a	0	0	0
818331	WORD	wordpools/wasnorm_wordpool_576.txt	LTP373	ltpFR2	11	5	CAFE	216	n/a	n/a	0	0	0
820962	WORD	wordpools/wasnorm_wordpool_576.txt	LTP373	ltpFR2	11	5	COOK	372	n/a	n/a	0	0	0
823728	WORD	wordpools/wasnorm_wordpool_576.txt	LTP373	ltpFR2	11	5	HEADBAND	696	n/a	n/a	0	0	0
826426	WORD	wordpools/wasnorm_wordpool_576.txt	LTP373	ltpFR2	11	5	HIGHWAY	707	n/a	n/a	0	0	0
829075	WORD	wordpools/wasnorm_wordpool_576.txt	LTP373	ltpFR2	11	5	SCOTCH	1251	n/a	n/a	0	0	0
831857	WORD	wordpools/wasnorm_wordpool_576.txt	LTP373	ltpFR2	11	5	APRON	35	n/a	n/a	0	0	0
834423	WORD	wordpools/wasnorm_wordpool_576.txt	LTP373	ltpFR2	11	5	QUAIL	1147	n/a	n/a	0	0	0
836922	WORD	wordpools/wasnorm_wordpool_576.txt	LTP373	ltpFR2	11	5	FARMER	553	n/a	n/a	0	0	0
839737	WORD	wordpools/wasnorm_wordpool_576.txt	LTP373	ltpFR2	11	5	RIVER	1194	n/a	n/a	0	0	0
842502	WORD	wordpools/wasnorm_wordpool_576.txt	LTP373	ltpFR2	11	5	CAPTIVE	240	n/a	n/a	0	0	0
845101	WORD	wordpools/wasnorm_wordpool_576.txt	LTP373	ltpFR2	11	5	CATTLE	261	n/a	n/a	0	0	0
847600	WORD	wordpools/wasnorm_wordpool_576.txt	LTP373	ltpFR2	11	5	MATCH	878	n/a	n/a	0	0	0
850149	WORD	wordpools/wasnorm_wordpool_576.txt	LTP373	ltpFR2	11	5	PARROT	1015	n/a	n/a	0	0	0
852914	WORD	wordpools/wasnorm_wordpool_576.txt	LTP373	ltpFR2	11	5	NIGHTGOWN	953	n/a	n/a	0	0	0
855447	WORD	wordpools/wasnorm_wordpool_576.txt	LTP373	ltpFR2	11	5	CRUTCH	417	n/a	n/a	0	0	0
857063	START	n/a	LTP373	ltpFR2	11	n/a	n/a	n/a	6	n/a	n/a	n/a	n/a
857863	DISTRACTOR	n/a	LTP373	ltpFR2	11	5	n/a	n/a	n/a	n/a	0	0	0
857879	PROB	n/a	LTP373	ltpFR2	11	n/a	n/a	n/a	6	11	9	1	1
861061	PROB	n/a	LTP373	ltpFR2	11	n/a	n/a	n/a	6	8	5	1	2
863261	PROB	n/a	LTP373	ltpFR2	11	n/a	n/a	n/a	6	9	5	2	2
864726	PROB	n/a	LTP373	ltpFR2	11	n/a	n/a	n/a	6	14	3	4	7
866175	PROB	n/a	LTP373	ltpFR2	11	n/a	n/a	n/a	6	13	2	3	8
867858	PROB	n/a	LTP373	ltpFR2	11	n/a	n/a	n/a	6	17	5	6	6
869190	PROB	n/a	LTP373	ltpFR2	11	n/a	n/a	n/a	6	15	4	8	3
870990	PROB	n/a	LTP373	ltpFR2	11	n/a	n/a	n/a	6	19	6	5	8
872589	PROB	n/a	LTP373	ltpFR2	11	n/a	n/a	n/a	6	13	8	3	2
874005	PROB	n/a	LTP373	ltpFR2	11	n/a	n/a	n/a	6	14	9	1	4
875221	PROB	n/a	LTP373	ltpFR2	11	n/a	n/a	n/a	6	16	4	8	4
876754	PROB	n/a	LTP373	ltpFR2	11	n/a	n/a	n/a	6	25	8	8	9
878253	PROB	n/a	LTP373	ltpFR2	11	n/a	n/a	n/a	6	18	3	6	9
881063	STOP	n/a	LTP373	ltpFR2	11	n/a	n/a	n/a	6	n/a	n/a	n/a	n/a
882818	REC_START	n/a	LTP373	ltpFR2	11	5	n/a	n/a	n/a	n/a	0	0	0
884023	REC_WORD	wordpools/wasnorm_wordpool_576.txt	LTP373	ltpFR2	11	5	FEMALE	559	n/a	n/a	0	0	0
885155	REC_WORD	wordpools/wasnorm_wordpool_576.txt	LTP373	ltpFR2	11	5	NIGHTGOWN	953	n/a	n/a	0	0	0
886164	REC_WORD	wordpools/wasnorm_wordpool_576.txt	LTP373	ltpFR2	11	5	SILK	1307	n/a	n/a	0	0	0
887515	REC_WORD	wordpools/wasnorm_wordpool_576.txt	LTP373	ltpFR2	11	5	BREAST	171	n/a	n/a	0	0	0
888865	REC_WORD	wordpools/wasnorm_wordpool_576.txt	LTP373	ltpFR2	11	5	BOARD	143	n/a	n/a	0	0	0
890056	REC_WORD	wordpools/wasnorm_wordpool_576.txt	LTP373	ltpFR2	11	5	APRON	35	n/a	n/a	0	0	0
890972	REC_WORD	wordpools/wasnorm_wordpool_576.txt	LTP373	ltpFR2	11	5	SEAFOOD	1260	n/a	n/a	0	0	0
892105	REC_WORD	wordpools/wasnorm_wordpool_576.txt	LTP373	ltpFR2	11	5	SCALLOP	1242	n/a	n/a	0	0	0
893402	REC_WORD	wordpools/wasnorm_wordpool_576.txt	LTP373	ltpFR2	11	5	RIVER	1194	n/a	n/a	0	0	0
894611	REC_WORD	wordpools/wasnorm_wordpool_576.txt	LTP373	ltpFR2	11	5	QUAIL	1147	n/a	n/a	0	0	0
898748	REC_WORD	wordpools/wasnorm_wordpool_576.txt	LTP373	ltpFR2	11	5	FARMER	553	n/a	n/a	0	0	0
950561	REC_WORD	wordpools/wasnorm_wordpool_576.txt	LTP373	ltpFR2	11	5	HEADBAND	696	n/a	n/a	0	0	0
951202	REC_WORD	wordpools/wasnorm_wordpool_576.txt	LTP373	ltpFR2	11	5	FOREHEAD	592	n/a	n/a	0	0	0
973278	WORD	wordpools/wasnorm_wordpool_576.txt	LTP373	ltpFR2	11	6	SPONGE	1355	n/a	n/a	0	0	0
976092	WORD	wordpools/wasnorm_wordpool_576.txt	LTP373	ltpFR2	11	6	POWDER	1117	n/a	n/a	0	0	0
978791	WORD	wordpools/wasnorm_wordpool_576.txt	LTP373	ltpFR2	11	6	COMPASS	358	n/a	n/a	0	0	0
981423	WORD	wordpools/wasnorm_wordpool_576.txt	LTP373	ltpFR2	11	6	BOYFRIEND	162	n/a	n/a	0	0	0
984155	WORD	wordpools/wasnorm_wordpool_576.txt	LTP373	ltpFR2	11	6	LOVER	846	n/a	n/a	0	0	0
986704	WORD	wordpools/wasnorm_wordpool_576.txt	LTP373	ltpFR2	11	6	DENTIST	447	n/a	n/a	0	0	0
989436	WORD	wordpools/wasnorm_wordpool_576.txt	LTP373	ltpFR2	11	6	BUREAU	199	n/a	n/a	0	0	0
992168	WORD	wordpools/wasnorm_wordpool_576.txt	LTP373	ltpFR2	11	6	POSTAGE	1113	n/a	n/a	0	0	0
994917	WORD	wordpools/wasnorm_wordpool_576.txt	LTP373	ltpFR2	11	6	BRACES	164	n/a	n/a	0	0	0
997566	WORD	wordpools/wasnorm_wordpool_576.txt	LTP373	ltpFR2	11	6	RIFLE	1192	n/a	n/a	0	0	0
1000364	WORD	wordpools/wasnorm_wordpool_576.txt	LTP373	ltpFR2	11	6	SHIRT	1287	n/a	n/a	0	0	0
1002813	WORD	wordpools/wasnorm_wordpool_576.txt	LTP373	ltpFR2	11	6	SUNSET	1408	n/a	n/a	0	0	0
1005612	WORD	wordpools/wasnorm_wordpool_576.txt	LTP373	ltpFR2	11	6	COCKTAIL	338	n/a	n/a	0	0	0
1008329	WORD	wordpools/wasnorm_wordpool_576.txt	LTP373	ltpFR2	11	6	BISON	131	n/a	n/a	0	0	0
1010860	WORD	wordpools/wasnorm_wordpool_576.txt	LTP373	ltpFR2	11	6	PIMPLE	1071	n/a	n/a	0	0	0
1013658	WORD	wordpools/wasnorm_wordpool_576.txt	LTP373	ltpFR2	11	6	CUPBOARD	425	n/a	n/a	0	0	0
1016407	WORD	wordpools/wasnorm_wordpool_576.txt	LTP373	ltpFR2	11	6	COOKBOOK	373	n/a	n/a	0	0	0
1019073	WORD	wordpools/wasnorm_wordpool_576.txt	LTP373	ltpFR2	11	6	DONOR	485	n/a	n/a	0	0	0
1021622	WORD	wordpools/wasnorm_wordpool_576.txt	LTP373	ltpFR2	11	6	PIANO	1057	n/a	n/a	0	0	0
1024370	WORD	wordpools/wasnorm_wordpool_576.txt	LTP373	ltpFR2	11	6	COLONEL	348	n/a	n/a	0	0	0
1027186	WORD	wordpools/wasnorm_wordpool_576.txt	LTP373	ltpFR2	11	6	GIFT	635	n/a	n/a	0	0	0
1029801	WORD	wordpools/wasnorm_wordpool_576.txt	LTP373	ltpFR2	11	6	WARDROBE	1587	n/a	n/a	0	0	0
1032617	WORD	wordpools/wasnorm_wordpool_576.txt	LTP373	ltpFR2	11	6	CRATER	400	n/a	n/a	0	0	0
1035165	WORD	wordpools/wasnorm_wordpool_576.txt	LTP373	ltpFR2	11	6	VALVE	1546	n/a	n/a	0	0	0
1036781	START	n/a	LTP373	ltpFR2	11	n/a	n/a	n/a	7	n/a	n/a	n/a	n/a
1037833	DISTRACTOR	n/a	LTP373	ltpFR2	11	6	n/a	n/a	n/a	n/a	0	0	0
1037848	PROB	n/a	LTP373	ltpFR2	11	n/a	n/a	n/a	7	18	9	5	4
1040013	PROB	n/a	LTP373	ltpFR2	11	n/a	n/a	n/a	7	24	8	9	7
1044611	PROB	n/a	LTP373	ltpFR2	11	n/a	n/a	n/a	7	16	3	6	7
1046627	PROB	n/a	LTP373	ltpFR2	11	n/a	n/a	n/a	7	18	9	3	6
1048893	PROB	n/a	LTP373	ltpFR2	11	n/a	n/a	n/a	7	14	6	4	5
1051441	PROB	n/a	LTP373	ltpFR2	11	n/a	n/a	n/a	7	20	5	8	7
1054540	PROB	n/a	LTP373	ltpFR2	11	n/a	n/a	n/a	7	15	5	5	5
1055656	PROB	n/a	LTP373	ltpFR2	11	n/a	n/a	n/a	7	22	8	7	9
1057405	PROB	n/a	LTP373	ltpFR2	11	n/a	n/a	n/a	7	11	7	1	3
1058755	PROB	n/a	LTP373	ltpFR2	11	n/a	n/a	n/a	7	14	4	2	8
1059977	STOP	n/a	LTP373	ltpFR2	11	n/a	n/a	n/a	7	n/a	n/a	n/a	n/a
1062620	REC_START	n/a	LTP373	ltpFR2	11	6	n/a	n/a	n/a	n/a	0	0	0
1064762	REC_WORD	wordpools/wasnorm_wordpool_576.txt	LTP373	ltpFR2	11	6	CRATER	400	n/a	n/a	0	0	0
1066436	REC_WORD	wordpools/wasnorm_wordpool_576.txt	LTP373	ltpFR2	11	6	BOYFRIEND	162	n/a	n/a	0	0	0
1067600	REC_WORD	wordpools/wasnorm_wordpool_576.txt	LTP373	ltpFR2	11	6	LOVER	846	n/a	n/a	0	0	0
1069149	REC_WORD	wordpools/wasnorm_wordpool_576.txt	LTP373	ltpFR2	11	6	DENTIST	447	n/a	n/a	0	0	0
1070290	REC_WORD	wordpools/wasnorm_wordpool_576.txt	LTP373	ltpFR2	11	6	BRACES	164	n/a	n/a	0	0	0
1074050	REC_WORD	wordpools/wasnorm_wordpool_576.txt	LTP373	ltpFR2	11	6	RIFLE	1192	n/a	n/a	0	0	0
1077304	REC_WORD	wordpools/wasnorm_wordpool_576.txt	LTP373	ltpFR2	11	6	WARDROBE	1587	n/a	n/a	0	0	0
1078276	REC_WORD	wordpools/wasnorm_wordpool_576.txt	LTP373	ltpFR2	11	6	SHIRT	1287	n/a	n/a	0	0	0
1079517	REC_WORD	wordpools/wasnorm_wordpool_576.txt	LTP373	ltpFR2	11	6	PIMPLE	1071	n/a	n/a	0	0	0
1080552	REC_WORD	wordpools/wasnorm_wordpool_576.txt	LTP373	ltpFR2	11	6	POWDER	1117	n/a	n/a	0	0	0
1081587	REC_WORD	wordpools/wasnorm_wordpool_576.txt	LTP373	ltpFR2	11	6	SPONGE	1355	n/a	n/a	0	0	0
1100748	REC_WORD	wordpools/wasnorm_wordpool_576.txt	LTP373	ltpFR2	11	6	COOKBOOK	373	n/a	n/a	0	0	0
1103536	REC_WORD	wordpools/wasnorm_wordpool_576.txt	LTP373	ltpFR2	11	6	COCKTAIL	338	n/a	n/a	0	0	0
1104685	REC_WORD	wordpools/wasnorm_wordpool_576.txt	LTP373	ltpFR2	11	6	BISON	131	n/a	n/a	0	0	0
1117752	REC_WORD	wordpools/wasnorm_wordpool_576.txt	LTP373	ltpFR2	11	6	CUPBOARD	425	n/a	n/a	0	0	0
1153062	DISTRACTOR	n/a	LTP373	ltpFR2	11	7	n/a	n/a	n/a	n/a	0	0	0
1153062	START	n/a	LTP373	ltpFR2	11	n/a	n/a	n/a	8	n/a	n/a	n/a	n/a
1153079	PROB	n/a	LTP373	ltpFR2	11	n/a	n/a	n/a	8	9	2	5	2
1154545	PROB	n/a	LTP373	ltpFR2	11	n/a	n/a	n/a	8	14	6	3	5
1157593	PROB	n/a	LTP373	ltpFR2	11	n/a	n/a	n/a	8	15	4	5	6
1159043	PROB	n/a	LTP373	ltpFR2	11	n/a	n/a	n/a	8	15	7	6	2
1162225	PROB	n/a	LTP373	ltpFR2	11	n/a	n/a	n/a	8	9	3	3	3
1163309	PROB	n/a	LTP373	ltpFR2	11	n/a	n/a	n/a	8	10	8	1	1
1164374	PROB	n/a	LTP373	ltpFR2	11	n/a	n/a	n/a	8	8	4	3	1
1165540	PROB	n/a	LTP373	ltpFR2	11	n/a	n/a	n/a	8	19	5	5	9
1166623	PROB	n/a	LTP373	ltpFR2	11	n/a	n/a	n/a	8	10	1	3	6
1167756	PROB	n/a	LTP373	ltpFR2	11	n/a	n/a	n/a	8	24	9	6	9
1169355	PROB	n/a	LTP373	ltpFR2	11	n/a	n/a	n/a	8	25	9	8	8
1172137	PROB	n/a	LTP373	ltpFR2	11	n/a	n/a	n/a	8	13	3	3	7
1173520	PROB	n/a	LTP373	ltpFR2	11	n/a	n/a	n/a	8	14	2	6	6
1177061	STOP	n/a	LTP373	ltpFR2	11	n/a	n/a	n/a	8	n/a	n/a	n/a	n/a
1178084	WORD	wordpools/wasnorm_wordpool_576.txt	LTP373	ltpFR2	11	7	SEAGULL	1261	n/a	n/a	0	0	0
1180900	WORD	wordpools/wasnorm_wordpool_576.txt	LTP373	ltpFR2	11	7	PENGUIN	1044	n/a	n/a	0	0	0
1183348	WORD	wordpools/wasnorm_wordpool_576.txt	LTP373	ltpFR2	11	7	MESSAGE	888	n/a	n/a	0	0	0
1185964	WORD	wordpools/wasnorm_wordpool_576.txt	LTP373	ltpFR2	11	7	RUST	1219	n/a	n/a	0	0	0
1188430	WORD	wordpools/wasnorm_wordpool_576.txt	LTP373	ltpFR2	11	7	SURVEY	1414	n/a	n/a	0	0	0
1191128	WORD	wordpools/wasnorm_wordpool_576.txt	LTP373	ltpFR2	11	7	STICKER	1382	n/a	n/a	0	0	0
1193627	WORD	wordpools/wasnorm_wordpool_576.txt	LTP373	ltpFR2	11	7	OZONE	996	n/a	n/a	0	0	0
1196260	WORD	wordpools/wasnorm_wordpool_576.txt	LTP373	ltpFR2	11	7	BALLOON	75	n/a	n/a	0	0	0
1198892	WORD	wordpools/wasnorm_wordpool_576.txt	LTP373	ltpFR2	11	7	GRAVEL	659	n/a	n/a	0	0	0
1201524	WORD	wordpools/wasnorm_wordpool_576.txt	LTP373	ltpFR2	11	7	PEDAL	1037	n/a	n/a	0	0	0
1204257	WORD	wordpools/wasnorm_wordpool_576.txt	LTP373	ltpFR2	11	7	FRIEND	606	n/a	n/a	0	0	0
1206954	WORD	wordpools/wasnorm_wordpool_576.txt	LTP373	ltpFR2	11	7	GIRL	637	n/a	n/a	0	0	0
1209453	WORD	wordpools/wasnorm_wordpool_576.txt	LTP373	ltpFR2	11	7	GHETTO	633	n/a	n/a	0	0	0
1212052	WORD	wordpools/wasnorm_wordpool_576.txt	LTP373	ltpFR2	11	7	COD	340	n/a	n/a	0	0	0
1214534	WORD	wordpools/wasnorm_wordpool_576.txt	LTP373	ltpFR2	11	7	GREASE	660	n/a	n/a	0	0	0
1216983	WORD	wordpools/wasnorm_wordpool_576.txt	LTP373	ltpFR2	11	7	EYELASH	546	n/a	n/a	0	0	0
1219815	WORD	wordpools/wasnorm_wordpool_576.txt	LTP373	ltpFR2	11	7	PLATE	1086	n/a	n/a	0	0	0
1222531	WORD	wordpools/wasnorm_wordpool_576.txt	LTP373	ltpFR2	11	7	MONEY	908	n/a	n/a	0	0	0
1225096	WORD	wordpools/wasnorm_wordpool_576.txt	LTP373	ltpFR2	11	7	GAZELLE	628	n/a	n/a	0	0	0
1227812	WORD	wordpools/wasnorm_wordpool_576.txt	LTP373	ltpFR2	11	7	SALMON	1227	n/a	n/a	0	0	0
1230510	WORD	wordpools/wasnorm_wordpool_576.txt	LTP373	ltpFR2	11	7	PRIMATE	1123	n/a	n/a	0	0	0
1233226	WORD	wordpools/wasnorm_wordpool_576.txt	LTP373	ltpFR2	11	7	CHAUFFEUR	283	n/a	n/a	0	0	0
1235708	WORD	wordpools/wasnorm_wordpool_576.txt	LTP373	ltpFR2	11	7	JELLY	755	n/a	n/a	0	0	0
1238357	WORD	wordpools/wasnorm_wordpool_576.txt	LTP373	ltpFR2	11	7	FOX	598	n/a	n/a	0	0	0
1239973	START	n/a	LTP373	ltpFR2	11	n/a	n/a	n/a	9	n/a	n/a	n/a	n/a
1241093	DISTRACTOR	n/a	LTP373	ltpFR2	11	7	n/a	n/a	n/a	n/a	0	0	0
1241106	PROB	n/a	LTP373	ltpFR2	11	n/a	n/a	n/a	9	16	6	3	7
1243022	PROB	n/a	LTP373	ltpFR2	11	n/a	n/a	n/a	9	10	5	2	3
1246353	PROB	n/a	LTP373	ltpFR2	11	n/a	n/a	n/a	9	10	5	2	3
1247936	PROB	n/a	LTP373	ltpFR2	11	n/a	n/a	n/a	9	17	1	9	7
1249185	PROB	n/a	LTP373	ltpFR2	11	n/a	n/a	n/a	9	9	1	1	7
1251168	PROB	n/a	LTP373	ltpFR2	11	n/a	n/a	n/a	9	14	4	2	8
1252650	PROB	n/a	LTP373	ltpFR2	11	n/a	n/a	n/a	9	4	1	1	2
1253733	PROB	n/a	LTP373	ltpFR2	11	n/a	n/a	n/a	9	19	9	5	5
1254850	PROB	n/a	LTP373	ltpFR2	11	n/a	n/a	n/a	9	17	7	1	9
1256232	PROB	n/a	LTP373	ltpFR2	11	n/a	n/a	n/a	9	15	4	2	9
1257548	PROB	n/a	LTP373	ltpFR2	11	n/a	n/a	n/a	9	13	5	7	1
1258714	PROB	n/a	LTP373	ltpFR2	11	n/a	n/a	n/a	9	12	7	3	2
1260097	PROB	n/a	LTP373	ltpFR2	11	n/a	n/a	n/a	9	18	7	6	5
1262624	STOP	n/a	LTP373	ltpFR2	11	n/a	n/a	n/a	9	n/a	n/a	n/a	n/a
1265828	REC_START	n/a	LTP373	ltpFR2	11	7	n/a	n/a	n/a	n/a	0	0	0
1266710	REC_WORD	wordpools/wasnorm_wordpool_576.txt	LTP373	ltpFR2	11	7	GIRL	637	n/a	n/a	0	0	0
1267803	REC_WORD	wordpools/wasnorm_wordpool_576.txt	LTP373	ltpFR2	11	7	FRIEND	606	n/a	n/a	0	0	0
1269165	REC_WORD	wordpools/wasnorm_wordpool_576.txt	LTP373	ltpFR2	11	7	EYELASH	546	n/a	n/a	0	0	0
1271303	REC_WORD	wordpools/wasnorm_wordpool_576.txt	LTP373	ltpFR2	11	7	POSTAGE	1113	n/a	n/a	0	0	0
1273693	REC_WORD	wordpools/wasnorm_wordpool_576.txt	LTP373	ltpFR2	11	7	MESSAGE	888	n/a	n/a	0	0	0
1275537	REC_WORD	wordpools/wasnorm_wordpool_576.txt	LTP373	ltpFR2	11	7	SURVEY	1414	n/a	n/a	0	0	0
1280013	REC_WORD	wordpools/wasnorm_wordpool_576.txt	LTP373	ltpFR2	11	7	OZONE	996	n/a	n/a	0	0	0
1280985	REC_WORD	wordpools/wasnorm_wordpool_576.txt	LTP373	ltpFR2	11	7	SEAGULL	1261	n/a	n/a	0	0	0
1283179	REC_WORD	wordpools/wasnorm_wordpool_576.txt	LTP373	ltpFR2	11	7	PENGUIN	1044	n/a	n/a	0	0	0
1284299	REC_WORD	wordpools/wasnorm_wordpool_576.txt	LTP373	ltpFR2	11	7	SALMON	1227	n/a	n/a	0	0	0
1286412	REC_WORD	wordpools/wasnorm_wordpool_576.txt	LTP373	ltpFR2	11	7	FOX	598	n/a	n/a	0	0	0
1287792	REC_WORD	wordpools/wasnorm_wordpool_576.txt	LTP373	ltpFR2	11	7	GAZELLE	628	n/a	n/a	0	0	0
1314429	REC_WORD	wordpools/wasnorm_wordpool_576.txt	LTP373	ltpFR2	11	7	GHETTO	633	n/a	n/a	0	0	0
1356271	DISTRACTOR	n/a	LTP373	ltpFR2	11	8	n/a	n/a	n/a	n/a	0	0	0
1356272	START	n/a	LTP373	ltpFR2	11	n/a	n/a	n/a	10	n/a	n/a	n/a	n/a
1356288	PROB	n/a	LTP373	ltpFR2	11	n/a	n/a	n/a	10	13	3	7	3
1357703	PROB	n/a	LTP373	ltpFR2	11	n/a	n/a	n/a	10	18	9	6	3
1359236	PROB	n/a	LTP373	ltpFR2	11	n/a	n/a	n/a	10	13	5	7	1
1360369	PROB	n/a	LTP373	ltpFR2	11	n/a	n/a	n/a	10	16	9	5	2
1362734	PROB	n/a	LTP373	ltpFR2	11	n/a	n/a	n/a	10	18	1	8	9
1363934	PROB	n/a	LTP373	ltpFR2	11	n/a	n/a	n/a	10	22	9	6	7
1365783	PROB	n/a	LTP373	ltpFR2	11	n/a	n/a	n/a	10	14	8	2	4
1366916	PROB	n/a	LTP373	ltpFR2	11	n/a	n/a	n/a	10	14	3	8	3
1368548	PROB	n/a	LTP373	ltpFR2	11	n/a	n/a	n/a	10	13	9	3	1
1370347	PROB	n/a	LTP373	ltpFR2	11	n/a	n/a	n/a	10	11	1	1	9
1371580	PROB	n/a	LTP373	ltpFR2	11	n/a	n/a	n/a	10	18	7	8	3
1372830	PROB	n/a	LTP373	ltpFR2	11	n/a	n/a	n/a	10	22	7	8	7
1375612	PROB	n/a	LTP373	ltpFR2	11	n/a	n/a	n/a	10	17	8	6	3
1377244	PROB	n/a	LTP373	ltpFR2	11	n/a	n/a	n/a	10	20	3	8	9
1378819	STOP	n/a	LTP373	ltpFR2	11	n/a	n/a	n/a	10	n/a	n/a	n/a	n/a
1381159	WORD	wordpools/wasnorm_wordpool_576.txt	LTP373	ltpFR2	11	8	STAR	1373	n/a	n/a	0	0	0
1383858	WORD	wordpools/wasnorm_wordpool_576.txt	LTP373	ltpFR2	11	8	IDOL	733	n/a	n/a	0	0	0
1386440	WORD	wordpools/wasnorm_wordpool_576.txt	LTP373	ltpFR2	11	8	SERVER	1272	n/a	n/a	0	0	0
1389122	WORD	wordpools/wasnorm_wordpool_576.txt	LTP373	ltpFR2	11	8	PADDING	999	n/a	n/a	0	0	0
1391604	WORD	wordpools/wasnorm_wordpool_576.txt	LTP373	ltpFR2	11	8	MAILBOX	857	n/a	n/a	0	0	0
1394170	WORD	wordpools/wasnorm_wordpool_576.txt	LTP373	ltpFR2	11	8	FLESH	579	n/a	n/a	0	0	0
1396835	WORD	wordpools/wasnorm_wordpool_576.txt	LTP373	ltpFR2	11	8	TWIG	1527	n/a	n/a	0	0	0
1399568	WORD	wordpools/wasnorm_wordpool_576.txt	LTP373	ltpFR2	11	8	SLOPE	1328	n/a	n/a	0	0	0
1402166	WORD	wordpools/wasnorm_wordpool_576.txt	LTP373	ltpFR2	11	8	BLUEPRINT	142	n/a	n/a	0	0	0
1404665	WORD	wordpools/wasnorm_wordpool_576.txt	LTP373	ltpFR2	11	8	COMET	353	n/a	n/a	0	0	0
1407097	WORD	wordpools/wasnorm_wordpool_576.txt	LTP373	ltpFR2	11	8	EMPIRE	530	n/a	n/a	0	0	0
1409913	WORD	wordpools/wasnorm_wordpool_576.txt	LTP373	ltpFR2	11	8	PUDDING	1139	n/a	n/a	0	0	0
1412428	WORD	wordpools/wasnorm_wordpool_576.txt	LTP373	ltpFR2	11	8	CUSTARD	429	n/a	n/a	0	0	0
1414927	WORD	wordpools/wasnorm_wordpool_576.txt	LTP373	ltpFR2	11	8	PICTURE	1061	n/a	n/a	0	0	0
1417459	WORD	wordpools/wasnorm_wordpool_576.txt	LTP373	ltpFR2	11	8	FILM	565	n/a	n/a	0	0	0
1419908	WORD	wordpools/wasnorm_wordpool_576.txt	LTP373	ltpFR2	11	8	GANGSTER	620	n/a	n/a	0	0	0
1422707	WORD	wordpools/wasnorm_wordpool_576.txt	LTP373	ltpFR2	11	8	LIVER	833	n/a	n/a	0	0	0
1425206	WORD	wordpools/wasnorm_wordpool_576.txt	LTP373	ltpFR2	11	8	THREAD	1460	n/a	n/a	0	0	0
1427721	WORD	wordpools/wasnorm_wordpool_576.txt	LTP373	ltpFR2	11	8	TABLE	1426	n/a	n/a	0	0	0
1430337	WORD	wordpools/wasnorm_wordpool_576.txt	LTP373	ltpFR2	11	8	SPARROW	1347	n/a	n/a	0	0	0
1433169	WORD	wordpools/wasnorm_wordpool_576.txt	LTP373	ltpFR2	11	8	MAMMAL	861	n/a	n/a	0	0	0
1435918	WORD	wordpools/wasnorm_wordpool_576.txt	LTP373	ltpFR2	11	8	HOSTESS	723	n/a	n/a	0	0	0
1438500	WORD	wordpools/wasnorm_wordpool_576.txt	LTP373	ltpFR2	11	8	BUBBLE	183	n/a	n/a	0	0	0
1440999	WORD	wordpools/wasnorm_wordpool_576.txt	LTP373	ltpFR2	11	8	POLICE	1098	n/a	n/a	0	0	0
1442615	START	n/a	LTP373	ltpFR2	11	n/a	n/a	n/a	11	n/a	n/a	n/a	n/a
1443731	DISTRACTOR	n/a	LTP373	ltpFR2	11	8	n/a	n/a	n/a	n/a	0	0	0
1443748	PROB	n/a	LTP373	ltpFR2	11	n/a	n/a	n/a	11	20	3	9	8
1446563	PROB	n/a	LTP373	ltpFR2	11	n/a	n/a	n/a	11	16	2	7	7
1447796	PROB	n/a	LTP373	ltpFR2	11	n/a	n/a	n/a	11	21	7	5	9
1449445	PROB	n/a	LTP373	ltpFR2	11	n/a	n/a	n/a	11	19	8	7	4
1451577	PROB	n/a	LTP373	ltpFR2	11	n/a	n/a	n/a	11	19	9	1	9
1452727	PROB	n/a	LTP373	ltpFR2	11	n/a	n/a	n/a	11	15	2	6	7
1454343	PROB	n/a	LTP373	ltpFR2	11	n/a	n/a	n/a	11	13	7	5	1
1455925	PROB	n/a	LTP373	ltpFR2	11	n/a	n/a	n/a	11	15	1	5	9
1457242	PROB	n/a	LTP373	ltpFR2	11	n/a	n/a	n/a	11	10	1	3	6
1458841	PROB	n/a	LTP373	ltpFR2	11	n/a	n/a	n/a	11	18	5	7	6
1460073	PROB	n/a	LTP373	ltpFR2	11	n/a	n/a	n/a	11	11	2	5	4
1461706	PROB	n/a	LTP373	ltpFR2	11	n/a	n/a	n/a	11	8	2	2	4
1465086	STOP	n/a	LTP373	ltpFR2	11	n/a	n/a	n/a	11	n/a	n/a	n/a	n/a
1468470	REC_START	n/a	LTP373	ltpFR2	11	8	n/a	n/a	n/a	n/a	0	0	0
1469106	REC_WORD	wordpools/wasnorm_wordpool_576.txt	LTP373	ltpFR2	11	8	SERVER	1272	n/a	n/a	0	0	0
1470509	REC_WORD	wordpools/wasnorm_wordpool_576.txt	LTP373	ltpFR2	11	8	HOSTESS	723	n/a	n/a	0	0	0
1473088	REC_WORD	wordpools/wasnorm_wordpool_576.txt	LTP373	ltpFR2	11	8	TABLE	1426	n/a	n/a	0	0	0
1474107	REC_WORD	wordpools/wasnorm_wordpool_576.txt	LTP373	ltpFR2	11	8	TWIG	1527	n/a	n/a	0	0	0
1474964	REC_WORD	wordpools/wasnorm_wordpool_576.txt	LTP373	ltpFR2	11	8	SLOPE	1328	n/a	n/a	0	0	0
1476230	REC_WORD	wordpools/wasnorm_wordpool_576.txt	LTP373	ltpFR2	11	8	BLUEPRINT	142	n/a	n/a	0	0	0
1477419	REC_WORD	wordpools/wasnorm_wordpool_576.txt	LTP373	ltpFR2	11	8	PICTURE	1061	n/a	n/a	0	0	0
1478370	REC_WORD	wordpools/wasnorm_wordpool_576.txt	LTP373	ltpFR2	11	8	FILM	565	n/a	n/a	0	0	0
1479613	REC_WORD	wordpools/wasnorm_wordpool_576.txt	LTP373	ltpFR2	11	8	IDOL	733	n/a	n/a	0	0	0
1480545	REC_WORD	wordpools/wasnorm_wordpool_576.txt	LTP373	ltpFR2	11	8	STAR	1373	n/a	n/a	0	0	0
1481800	REC_WORD	wordpools/wasnorm_wordpool_576.txt	LTP373	ltpFR2	11	8	COMET	353	n/a	n/a	0	0	0
1483925	REC_WORD	wordpools/wasnorm_wordpool_576.txt	LTP373	ltpFR2	11	8	EMPIRE	530	n/a	n/a	0	0	0
1488928	REC_WORD	wordpools/wasnorm_wordpool_576.txt	LTP373	ltpFR2	11	8	PADDING	999	n/a	n/a	0	0	0
1490206	REC_WORD	wordpools/wasnorm_wordpool_576.txt	LTP373	ltpFR2	11	8	PUDDING	1139	n/a	n/a	0	0	0
1491271	REC_WORD	wordpools/wasnorm_wordpool_576.txt	LTP373	ltpFR2	11	8	CUSTARD	429	n/a	n/a	0	0	0
1495292	REC_WORD	wordpools/wasnorm_wordpool_576.txt	LTP373	ltpFR2	11	8	MAMMAL	861	n/a	n/a	0	0	0
1497070	REC_WORD	wordpools/wasnorm_wordpool_576.txt	LTP373	ltpFR2	11	8	SPARROW	1347	n/a	n/a	0	0	0
1518884	REC_WORD	wordpools/wasnorm_wordpool_576.txt	LTP373	ltpFR2	11	8	SLOPE	1328	n/a	n/a	0	0	0
1521162	REC_WORD	wordpools/wasnorm_wordpool_576.txt	LTP373	ltpFR2	11	8	BUBBLE	183	n/a	n/a	0	0	0
1545019	REST_REWET	n/a	LTP373	ltpFR2	11	8	n/a	n/a	n/a	n/a	0	0	0
1970410	DISTRACTOR	n/a	LTP373	ltpFR2	11	9	n/a	n/a	n/a	n/a	0	0	0
1970410	START	n/a	LTP373	ltpFR2	11	n/a	n/a	n/a	12	n/a	n/a	n/a	n/a
1970426	PROB	n/a	LTP373	ltpFR2	11	n/a	n/a	n/a	12	18	6	3	9
1972442	PROB	n/a	LTP373	ltpFR2	11	n/a	n/a	n/a	12	19	2	9	8
1973858	PROB	n/a	LTP373	ltpFR2	11	n/a	n/a	n/a	12	19	9	7	3
1975158	PROB	n/a	LTP373	ltpFR2	11	n/a	n/a	n/a	12	9	2	2	5
1976325	PROB	n/a	LTP373	ltpFR2	11	n/a	n/a	n/a	12	20	7	9	4
1979072	PROB	n/a	LTP373	ltpFR2	11	n/a	n/a	n/a	12	19	9	4	6
1980339	PROB	n/a	LTP373	ltpFR2	11	n/a	n/a	n/a	12	15	4	3	8
1981755	PROB	n/a	LTP373	ltpFR2	11	n/a	n/a	n/a	12	19	6	5	8
1983937	PROB	n/a	LTP373	ltpFR2	11	n/a	n/a	n/a	12	13	6	5	4
1985620	PROB	n/a	LTP373	ltpFR2	11	n/a	n/a	n/a	12	21	5	9	7
1987652	PROB	n/a	LTP373	ltpFR2	11	n/a	n/a	n/a	12	11	2	8	1
1988835	PROB	n/a	LTP373	ltpFR2	11	n/a	n/a	n/a	12	14	5	4	5
1990867	PROB	n/a	LTP373	ltpFR2	11	n/a	n/a	n/a	12	13	6	3	4
1994410	STOP	n/a	LTP373	ltpFR2	11	n/a	n/a	n/a	12	n/a	n/a	n/a	n/a
1995598	WORD	wordpools/wasnorm_wordpool_576.txt	LTP373	ltpFR2	11	9	ACTOR	5	n/a	n/a	0	0	0
1998430	WORD	wordpools/wasnorm_wordpool_576.txt	LTP373	ltpFR2	11	9	DAISY	435	n/a	n/a	0	0	0
2000979	WORD	wordpools/wasnorm_wordpool_576.txt	LTP373	ltpFR2	11	9	ROD	1203	n/a	n/a	0	0	0
2003645	WORD	wordpools/wasnorm_wordpool_576.txt	LTP373	ltpFR2	11	9	DRILL	497	n/a	n/a	0	0	0
2006278	WORD	wordpools/wasnorm_wordpool_576.txt	LTP373	ltpFR2	11	9	CRAB	397	n/a	n/a	0	0	0
2009092	WORD	wordpools/wasnorm_wordpool_576.txt	LTP373	ltpFR2	11	9	VAGRANT	1544	n/a	n/a	0	0	0
2011624	WORD	wordpools/wasnorm_wordpool_576.txt	LTP373	ltpFR2	11	9	STOMACH	1384	n/a	n/a	0	0	0
2014090	WORD	wordpools/wasnorm_wordpool_576.txt	LTP373	ltpFR2	11	9	BELLY	119	n/a	n/a	0	0	0
2016839	WORD	wordpools/wasnorm_wordpool_576.txt	LTP373	ltpFR2	11	9	OX	994	n/a	n/a	0	0	0
2019338	WORD	wordpools/wasnorm_wordpool_576.txt	LTP373	ltpFR2	11	9	PECAN	1036	n/a	n/a	0	0	0
2022020	WORD	wordpools/wasnorm_wordpool_576.txt	LTP373	ltpFR2	11	9	TERMITE	1451	n/a	n/a	0	0	0
2024769	WORD	wordpools/wasnorm_wordpool_576.txt	LTP373	ltpFR2	11	9	SALT	1229	n/a	n/a	0	0	0
2027384	WORD	wordpools/wasnorm_wordpool_576.txt	LTP373	ltpFR2	11	9	DOUGHNUT	490	n/a	n/a	0	0	0
2029899	WORD	wordpools/wasnorm_wordpool_576.txt	LTP373	ltpFR2	11	9	TRENCH	1503	n/a	n/a	0	0	0
2032415	WORD	wordpools/wasnorm_wordpool_576.txt	LTP373	ltpFR2	11	9	LEADER	807	n/a	n/a	0	0	0
2034997	WORD	wordpools/wasnorm_wordpool_576.txt	LTP373	ltpFR2	11	9	DIVER	476	n/a	n/a	0	0	0
2037513	WORD	wordpools/wasnorm_wordpool_576.txt	LTP373	ltpFR2	11	9	FLOWER	584	n/a	n/a	0	0	0
2040329	WORD	wordpools/wasnorm_wordpool_576.txt	LTP373	ltpFR2	11	9	PASSAGE	1019	n/a	n/a	0	0	0
2042944	WORD	wordpools/wasnorm_wordpool_576.txt	LTP373	ltpFR2	11	9	HOOK	715	n/a	n/a	0	0	0
2045642	WORD	wordpools/wasnorm_wordpool_576.txt	LTP373	ltpFR2	11	9	FOOT	590	n/a	n/a	0	0	0
2048326	WORD	wordpools/wasnorm_wordpool_576.txt	LTP373	ltpFR2	11	9	FRECKLE	602	n/a	n/a	0	0	0
2050857	WORD	wordpools/wasnorm_wordpool_576.txt	LTP373	ltpFR2	11	9	RAZOR	1171	n/a	n/a	0	0	0
2053405	WORD	wordpools/wasnorm_wordpool_576.txt	LTP373	ltpFR2	11	9	CURTAIN	427	n/a	n/a	0	0	0
2056121	WORD	wordpools/wasnorm_wordpool_576.txt	LTP373	ltpFR2	11	9	PREACHER	1119	n/a	n/a	0	0	0
2057737	START	n/a	LTP373	ltpFR2	11	n/a	n/a	n/a	13	n/a	n/a	n/a	n/a
2058733	DISTRACTOR	n/a	LTP373	ltpFR2	11	9	n/a	n/a	n/a	n/a	0	0	0
2058737	PROB	n/a	LTP373	ltpFR2	11	n/a	n/a	n/a	13	12	3	8	1
2061286	PROB	n/a	LTP373	ltpFR2	11	n/a	n/a	n/a	13	13	5	2	6
2063468	PROB	n/a	LTP373	ltpFR2	11	n/a	n/a	n/a	13	20	9	5	6
2065467	PROB	n/a	LTP373	ltpFR2	11	n/a	n/a	n/a	13	14	9	1	4
2066750	PROB	n/a	LTP373	ltpFR2	11	n/a	n/a	n/a	13	13	1	7	5
2068665	PROB	n/a	LTP373	ltpFR2	11	n/a	n/a	n/a	13	11	1	8	2
2070531	PROB	n/a	LTP373	ltpFR2	11	n/a	n/a	n/a	13	13	5	5	3
2071547	PROB	n/a	LTP373	ltpFR2	11	n/a	n/a	n/a	13	17	4	8	5
2072963	PROB	n/a	LTP373	ltpFR2	11	n/a	n/a	n/a	13	20	9	3	8
2074829	PROB	n/a	LTP373	ltpFR2	11	n/a	n/a	n/a	13	17	5	3	9
2076912	PROB	n/a	LTP373	ltpFR2	11	n/a	n/a	n/a	13	16	6	3	7
2078244	PROB	n/a	LTP373	ltpFR2	11	n/a	n/a	n/a	13	17	6	3	8
2081186	STOP	n/a	LTP373	ltpFR2	11	n/a	n/a	n/a	13	n/a	n/a	n/a	n/a
2083642	REC_START	n/a	LTP373	ltpFR2	11	9	n/a	n/a	n/a	n/a	0	0	0
2084932	REC_WORD	wordpools/wasnorm_wordpool_576.txt	LTP373	ltpFR2	11	9	ACTOR	5	n/a	n/a	0	0	0
2086134	REC_WORD	wordpools/wasnorm_wordpool_576.txt	LTP373	ltpFR2	11	9	DAISY	435	n/a	n/a	0	0	0
2087108	REC_WORD	wordpools/wasnorm_wordpool_576.txt	LTP373	ltpFR2	11	9	FLOWER	584	n/a	n/a	0	0	0
2088506	REC_WORD	wordpools/wasnorm_wordpool_576.txt	LTP373	ltpFR2	11	9	DRILL	497	n/a	n/a	0	0	0
2089681	REC_WORD	wordpools/wasnorm_wordpool_576.txt	LTP373	ltpFR2	11	9	ROD	1203	n/a	n/a	0	0	0
2094801	REC_WORD	wordpools/wasnorm_wordpool_576.txt	LTP373	ltpFR2	11	9	HOOK	715	n/a	n/a	0	0	0
2096644	REC_WORD	wordpools/wasnorm_wordpool_576.txt	LTP373	ltpFR2	11	9	CRAB	397	n/a	n/a	0	0	0
2097728	REC_WORD	wordpools/wasnorm_wordpool_576.txt	LTP373	ltpFR2	11	9	SALT	1229	n/a	n/a	0	0	0
2099255	REC_WORD	wordpools/wasnorm_wordpool_576.txt	LTP373	ltpFR2	11	9	DOUGHNUT	490	n/a	n/a	0	0	0
2100476	REC_WORD	wordpools/wasnorm_wordpool_576.txt	LTP373	ltpFR2	11	9	OX	994	n/a	n/a	0	0	0
2109722	REC_WORD	wordpools/wasnorm_wordpool_576.txt	LTP373	ltpFR2	11	9	BELLY	119	n/a	n/a	0	0	0
2110586	REC_WORD	wordpools/wasnorm_wordpool_576.txt	LTP373	ltpFR2	11	9	STOMACH	1384	n/a	n/a	0	0	0
2112391	REC_WORD	wordpools/wasnorm_wordpool_576.txt	LTP373	ltpFR2	11	9	TRENCH	1503	n/a	n/a	0	0	0
2113531	REC_WORD	wordpools/wasnorm_wordpool_576.txt	LTP373	ltpFR2	11	9	PASSAGE	1019	n/a	n/a	0	0	0
2115828	REC_WORD	wordpools/wasnorm_wordpool_576.txt	LTP373	ltpFR2	11	9	FOOT	590	n/a	n/a	0	0	0
2116848	REC_WORD	wordpools/wasnorm_wordpool_576.txt	LTP373	ltpFR2	11	9	FRECKLE	602	n/a	n/a	0	0	0
2118021	REC_WORD	wordpools/wasnorm_wordpool_576.txt	LTP373	ltpFR2	11	9	RAZOR	1171	n/a	n/a	0	0	0
2121328	REC_WORD	wordpools/wasnorm_wordpool_576.txt	LTP373	ltpFR2	11	9	DIVER	476	n/a	n/a	0	0	0
2174068	DISTRACTOR	n/a	LTP373	ltpFR2	11	10	n/a	n/a	n/a	n/a	0	0	0
2174068	START	n/a	LTP373	ltpFR2	11	n/a	n/a	n/a	14	n/a	n/a	n/a	n/a
2174084	PROB	n/a	LTP373	ltpFR2	11	n/a	n/a	n/a	14	18	9	1	8
2175717	PROB	n/a	LTP373	ltpFR2	11	n/a	n/a	n/a	14	18	4	8	6
2177683	PROB	n/a	LTP373	ltpFR2	11	n/a	n/a	n/a	14	20	9	5	6
2179449	PROB	n/a	LTP373	ltpFR2	11	n/a	n/a	n/a	14	24	9	9	6
2180898	PROB	n/a	LTP373	ltpFR2	11	n/a	n/a	n/a	14	10	2	2	6
2182164	PROB	n/a	LTP373	ltpFR2	11	n/a	n/a	n/a	14	19	3	8	8
2183630	PROB	n/a	LTP373	ltpFR2	11	n/a	n/a	n/a	14	17	3	5	9
2185213	PROB	n/a	LTP373	ltpFR2	11	n/a	n/a	n/a	14	13	6	3	4
2187578	PROB	n/a	LTP373	ltpFR2	11	n/a	n/a	n/a	14	9	3	1	5
2189177	PROB	n/a	LTP373	ltpFR2	11	n/a	n/a	n/a	14	10	2	6	2
2190527	PROB	n/a	LTP373	ltpFR2	11	n/a	n/a	n/a	14	10	2	5	3
2192143	PROB	n/a	LTP373	ltpFR2	11	n/a	n/a	n/a	14	19	6	9	4
2193626	PROB	n/a	LTP373	ltpFR2	11	n/a	n/a	n/a	14	10	2	4	4
2195225	PROB	n/a	LTP373	ltpFR2	11	n/a	n/a	n/a	14	10	1	3	6
2196374	PROB	n/a	LTP373	ltpFR2	11	n/a	n/a	n/a	14	12	1	4	7
2197693	STOP	n/a	LTP373	ltpFR2	11	n/a	n/a	n/a	14	n/a	n/a	n/a	n/a
2199056	WORD	wordpools/wasnorm_wordpool_576.txt	LTP373	ltpFR2	11	10	PEPPER	1047	n/a	n/a	0	0	0
2201555	WORD	wordpools/wasnorm_wordpool_576.txt	LTP373	ltpFR2	11	10	GRAPE	654	n/a	n/a	0	0	0
2204371	WORD	wordpools/wasnorm_wordpool_576.txt	LTP373	ltpFR2	11	10	COTTAGE	384	n/a	n/a	0	0	0
2206820	WORD	wordpools/wasnorm_wordpool_576.txt	LTP373	ltpFR2	11	10	KITCHEN	778	n/a	n/a	0	0	0
2209286	WORD	wordpools/wasnorm_wordpool_576.txt	LTP373	ltpFR2	11	10	BRAKE	166	n/a	n/a	0	0	0
2211934	WORD	wordpools/wasnorm_wordpool_576.txt	LTP373	ltpFR2	11	10	PLAID	1080	n/a	n/a	0	0	0
2214633	WORD	wordpools/wasnorm_wordpool_576.txt	LTP373	ltpFR2	11	10	VENUS	1557	n/a	n/a	0	0	0
2217266	WORD	wordpools/wasnorm_wordpool_576.txt	LTP373	ltpFR2	11	10	RECORD	1176	n/a	n/a	0	0	0
2219930	WORD	wordpools/wasnorm_wordpool_576.txt	LTP373	ltpFR2	11	10	ISLAND	745	n/a	n/a	0	0	0
2222646	WORD	wordpools/wasnorm_wordpool_576.txt	LTP373	ltpFR2	11	10	APPLE	33	n/a	n/a	0	0	0
2225178	WORD	wordpools/wasnorm_wordpool_576.txt	LTP373	ltpFR2	11	10	HONEY	713	n/a	n/a	0	0	0
2227777	WORD	wordpools/wasnorm_wordpool_576.txt	LTP373	ltpFR2	11	10	LUGGAGE	847	n/a	n/a	0	0	0
2230575	WORD	wordpools/wasnorm_wordpool_576.txt	LTP373	ltpFR2	11	10	GUITAR	670	n/a	n/a	0	0	0
2233058	WORD	wordpools/wasnorm_wordpool_576.txt	LTP373	ltpFR2	11	10	LUNCH	849	n/a	n/a	0	0	0
2235523	WORD	wordpools/wasnorm_wordpool_576.txt	LTP373	ltpFR2	11	10	HELMET	702	n/a	n/a	0	0	0
2238205	WORD	wordpools/wasnorm_wordpool_576.txt	LTP373	ltpFR2	11	10	MOTOR	922	n/a	n/a	0	0	0
2240904	WORD	wordpools/wasnorm_wordpool_576.txt	LTP373	ltpFR2	11	10	SUITCASE	1403	n/a	n/a	0	0	0
2243403	WORD	wordpools/wasnorm_wordpool_576.txt	LTP373	ltpFR2	11	10	PASTA	1021	n/a	n/a	0	0	0
2245869	WORD	wordpools/wasnorm_wordpool_576.txt	LTP373	ltpFR2	11	10	CASHIER	254	n/a	n/a	0	0	0
2248667	WORD	wordpools/wasnorm_wordpool_576.txt	LTP373	ltpFR2	11	10	CHAMPAGNE	278	n/a	n/a	0	0	0
2251366	WORD	wordpools/wasnorm_wordpool_576.txt	LTP373	ltpFR2	11	10	BRANDY	169	n/a	n/a	0	0	0
2253865	WORD	wordpools/wasnorm_wordpool_576.txt	LTP373	ltpFR2	11	10	ZEBRA	1635	n/a	n/a	0	0	0
2256597	WORD	wordpools/wasnorm_wordpool_576.txt	LTP373	ltpFR2	11	10	BUGGY	188	n/a	n/a	0	0	0
2259212	WORD	wordpools/wasnorm_wordpool_576.txt	LTP373	ltpFR2	11	10	PARSLEY	1016	n/a	n/a	0	0	0
2260829	START	n/a	LTP373	ltpFR2	11	n/a	n/a	n/a	15	n/a	n/a	n/a	n/a
2261910	DISTRACTOR	n/a	LTP373	ltpFR2	11	10	n/a	n/a	n/a	n/a	0	0	0
2261928	PROB	n/a	LTP373	ltpFR2	11	n/a	n/a	n/a	15	3	1	1	1
2263262	PROB	n/a	LTP373	ltpFR2	11	n/a	n/a	n/a	15	16	1	7	8
2265660	PROB	n/a	LTP373	ltpFR2	11	n/a	n/a	n/a	15	23	8	8	7
2269824	PROB	n/a	LTP373	ltpFR2	11	n/a	n/a	n/a	15	11	3	2	6
2271807	PROB	n/a	LTP373	ltpFR2	11	n/a	n/a	n/a	15	18	7	3	8
2272873	PROB	n/a	LTP373	ltpFR2	11	n/a	n/a	n/a	15	9	1	3	5
2274156	PROB	n/a	LTP373	ltpFR2	11	n/a	n/a	n/a	15	17	3	5	9
2275788	PROB	n/a	LTP373	ltpFR2	11	n/a	n/a	n/a	15	14	4	6	4
2277054	PROB	n/a	LTP373	ltpFR2	11	n/a	n/a	n/a	15	13	3	2	8
2278237	PROB	n/a	LTP373	ltpFR2	11	n/a	n/a	n/a	15	12	4	2	6
2279437	PROB	n/a	LTP373	ltpFR2	11	n/a	n/a	n/a	15	13	3	9	1
2280869	PROB	n/a	LTP373	ltpFR2	11	n/a	n/a	n/a	15	10	5	4	1
2282735	PROB	n/a	LTP373	ltpFR2	11	n/a	n/a	n/a	15	9	5	3	1
2283824	STOP	n/a	LTP373	ltpFR2	11	n/a	n/a	n/a	15	n/a	n/a	n/a	n/a
2286767	REC_START	n/a	LTP373	ltpFR2	11	10	n/a	n/a	n/a	n/a	0	0	0
2288300	REC_WORD	wordpools/wasnorm_wordpool_576.txt	LTP373	ltpFR2	11	10	PARSLEY	1016	n/a	n/a	0	0	0
2289500	REC_WORD	wordpools/wasnorm_wordpool_576.txt	LTP373	ltpFR2	11	10	PEPPER	1047	n/a	n/a	0	0	0
2290824	REC_WORD	wordpools/wasnorm_wordpool_576.txt	LTP373	ltpFR2	11	10	GRAPE	654	n/a	n/a	0	0	0
2291842	REC_WORD	wordpools/wasnorm_wordpool_576.txt	LTP373	ltpFR2	11	10	CHAMPAGNE	278	n/a	n/a	0	0	0
2294227	REC_WORD	wordpools/wasnorm_wordpool_576.txt	LTP373	ltpFR2	11	10	BRANDY	169	n/a	n/a	0	0	0
2296614	REC_WORD	wordpools/wasnorm_wordpool_576.txt	LTP373	ltpFR2	11	10	PASTA	1021	n/a	n/a	0	0	0
2297857	REC_WORD	wordpools/wasnorm_wordpool_576.txt	LTP373	ltpFR2	11	10	LUNCH	849	n/a	n/a	0	0	0
2299228	REC_WORD	wordpools/wasnorm_wordpool_576.txt	LTP373	ltpFR2	11	10	COTTAGE	384	n/a	n/a	0	0	0
2319120	REC_WORD	wordpools/wasnorm_wordpool_576.txt	LTP373	ltpFR2	11	10	APPLE	33	n/a	n/a	0	0	0
2320065	REC_WORD	wordpools/wasnorm_wordpool_576.txt	LTP373	ltpFR2	11	10	HONEY	713	n/a	n/a	0	0	0
2331108	REC_WORD	wordpools/wasnorm_wordpool_576.txt	LTP373	ltpFR2	11	10	BRAKE	166	n/a	n/a	0	0	0
2334018	REC_WORD	wordpools/wasnorm_wordpool_576.txt	LTP373	ltpFR2	11	10	MOTOR	922	n/a	n/a	0	0	0
2334959	REC_WORD	wordpools/wasnorm_wordpool_576.txt	LTP373	ltpFR2	11	10	SUITCASE	1403	n/a	n/a	0	0	0
2336002	REC_WORD	wordpools/wasnorm_wordpool_576.txt	LTP373	ltpFR2	11	10	LUNCH	849	n/a	n/a	0	0	0
2337665	REC_WORD	wordpools/wasnorm_wordpool_576.txt	LTP373	ltpFR2	11	10	BUGGY	188	n/a	n/a	0	0	0
2339965	REC_WORD	wordpools/wasnorm_wordpool_576.txt	LTP373	ltpFR2	11	10	TERMITE	1451	n/a	n/a	0	0	0
2344543	REC_WORD	wordpools/wasnorm_wordpool_576.txt	LTP373	ltpFR2	11	10	HELMET	702	n/a	n/a	0	0	0
2345993	REC_WORD	wordpools/wasnorm_wordpool_576.txt	LTP373	ltpFR2	11	10	VENUS	1557	n/a	n/a	0	0	0
2352772	REC_WORD	wordpools/wasnorm_wordpool_576.txt	LTP373	ltpFR2	11	10	COMPASS	358	n/a	n/a	0	0	0
2377209	DISTRACTOR	n/a	LTP373	ltpFR2	11	11	n/a	n/a	n/a	n/a	0	0	0
2377209	START	n/a	LTP373	ltpFR2	11	n/a	n/a	n/a	16	n/a	n/a	n/a	n/a
2377226	PROB	n/a	LTP373	ltpFR2	11	n/a	n/a	n/a	16	19	6	4	9
2378775	PROB	n/a	LTP373	ltpFR2	11	n/a	n/a	n/a	16	17	9	5	3
2380508	PROB	n/a	LTP373	ltpFR2	11	n/a	n/a	n/a	16	13	1	8	4
2381890	PROB	n/a	LTP373	ltpFR2	11	n/a	n/a	n/a	16	8	1	1	6
2383090	PROB	n/a	LTP373	ltpFR2	11	n/a	n/a	n/a	16	15	3	3	9
2384274	PROB	n/a	LTP373	ltpFR2	11	n/a	n/a	n/a	16	7	1	1	5
2385372	PROB	n/a	LTP373	ltpFR2	11	n/a	n/a	n/a	16	10	5	3	2
2386838	PROB	n/a	LTP373	ltpFR2	11	n/a	n/a	n/a	16	10	2	4	4
2389087	PROB	n/a	LTP373	ltpFR2	11	n/a	n/a	n/a	16	10	1	5	4
2390337	PROB	n/a	LTP373	ltpFR2	11	n/a	n/a	n/a	16	14	7	2	5
2391919	PROB	n/a	LTP373	ltpFR2	11	n/a	n/a	n/a	16	10	4	2	4
2393785	PROB	n/a	LTP373	ltpFR2	11	n/a	n/a	n/a	16	23	7	7	9
2395251	PROB	n/a	LTP373	ltpFR2	11	n/a	n/a	n/a	16	10	1	7	2
2396517	PROB	n/a	LTP373	ltpFR2	11	n/a	n/a	n/a	16	20	7	5	8
2398733	PROB	n/a	LTP373	ltpFR2	11	n/a	n/a	n/a	16	8	5	1	2
2400293	STOP	n/a	LTP373	ltpFR2	11	n/a	n/a	n/a	16	n/a	n/a	n/a	n/a
2402282	WORD	wordpools/wasnorm_wordpool_576.txt	LTP373	ltpFR2	11	11	SISTER	1312	n/a	n/a	0	0	0
2404863	WORD	wordpools/wasnorm_wordpool_576.txt	LTP373	ltpFR2	11	11	PLAYGROUND	1087	n/a	n/a	0	0	0
2407662	WORD	wordpools/wasnorm_wordpool_576.txt	LTP373	ltpFR2	11	11	MISTER	901	n/a	n/a	0	0	0
2410461	WORD	wordpools/wasnorm_wordpool_576.txt	LTP373	ltpFR2	11	11	MOP	916	n/a	n/a	0	0	0
2413076	WORD	wordpools/wasnorm_wordpool_576.txt	LTP373	ltpFR2	11	11	FLASHLIGHT	575	n/a	n/a	0	0	0
2415758	WORD	wordpools/wasnorm_wordpool_576.txt	LTP373	ltpFR2	11	11	TUNNEL	1519	n/a	n/a	0	0	0
2418507	WORD	wordpools/wasnorm_wordpool_576.txt	LTP373	ltpFR2	11	11	FRAGRANCE	599	n/a	n/a	0	0	0
2421206	WORD	wordpools/wasnorm_wordpool_576.txt	LTP373	ltpFR2	11	11	PERFUME	1049	n/a	n/a	0	0	0
2423805	WORD	wordpools/wasnorm_wordpool_576.txt	LTP373	ltpFR2	11	11	CREATURE	403	n/a	n/a	0	0	0
2426255	WORD	wordpools/wasnorm_wordpool_576.txt	LTP373	ltpFR2	11	11	JUDGE	761	n/a	n/a	0	0	0
2428753	WORD	wordpools/wasnorm_wordpool_576.txt	LTP373	ltpFR2	11	11	BADGE	68	n/a	n/a	0	0	0
2431201	WORD	wordpools/wasnorm_wordpool_576.txt	LTP373	ltpFR2	11	11	JAPAN	749	n/a	n/a	0	0	0
2433900	WORD	wordpools/wasnorm_wordpool_576.txt	LTP373	ltpFR2	11	11	BRANCH	168	n/a	n/a	0	0	0
2436682	WORD	wordpools/wasnorm_wordpool_576.txt	LTP373	ltpFR2	11	11	MAPLE	866	n/a	n/a	0	0	0
2439481	WORD	wordpools/wasnorm_wordpool_576.txt	LTP373	ltpFR2	11	11	YACHT	1629	n/a	n/a	0	0	0
2441913	WORD	wordpools/wasnorm_wordpool_576.txt	LTP373	ltpFR2	11	11	DRINK	498	n/a	n/a	0	0	0
2444695	WORD	wordpools/wasnorm_wordpool_576.txt	LTP373	ltpFR2	11	11	MONSTER	912	n/a	n/a	0	0	0
2447444	WORD	wordpools/wasnorm_wordpool_576.txt	LTP373	ltpFR2	11	11	HUMAN	726	n/a	n/a	0	0	0
2449976	WORD	wordpools/wasnorm_wordpool_576.txt	LTP373	ltpFR2	11	11	BUCKET	184	n/a	n/a	0	0	0
2452692	WORD	wordpools/wasnorm_wordpool_576.txt	LTP373	ltpFR2	11	11	CLOUD	328	n/a	n/a	0	0	0
2455440	WORD	wordpools/wasnorm_wordpool_576.txt	LTP373	ltpFR2	11	11	PORTRAIT	1111	n/a	n/a	0	0	0
2458123	WORD	wordpools/wasnorm_wordpool_576.txt	LTP373	ltpFR2	11	11	MEDAL	885	n/a	n/a	0	0	0
2460788	WORD	wordpools/wasnorm_wordpool_576.txt	LTP373	ltpFR2	11	11	SWIMMER	1420	n/a	n/a	0	0	0
2463404	WORD	wordpools/wasnorm_wordpool_576.txt	LTP373	ltpFR2	11	11	GRIZZLY	662	n/a	n/a	0	0	0
2465020	START	n/a	LTP373	ltpFR2	11	n/a	n/a	n/a	17	n/a	n/a	n/a	n/a
2466130	DISTRACTOR	n/a	LTP373	ltpFR2	11	11	n/a	n/a	n/a	n/a	0	0	0
2466136	PROB	n/a	LTP373	ltpFR2	11	n/a	n/a	n/a	17	15	5	5	5
2467485	PROB	n/a	LTP373	ltpFR2	11	n/a	n/a	n/a	17	12	5	3	4
2468834	PROB	n/a	LTP373	ltpFR2	11	n/a	n/a	n/a	17	16	8	1	7
2470184	PROB	n/a	LTP373	ltpFR2	11	n/a	n/a	n/a	17	13	7	4	1
2472216	PROB	n/a	LTP373	ltpFR2	11	n/a	n/a	n/a	17	15	9	3	3
2473416	PROB	n/a	LTP373	ltpFR2	11	n/a	n/a	n/a	17	9	3	3	3
2474465	PROB	n/a	LTP373	ltpFR2	11	n/a	n/a	n/a	17	21	8	7	6
2478847	PROB	n/a	LTP373	ltpFR2	11	n/a	n/a	n/a	17	18	8	5	5
2480629	PROB	n/a	LTP373	ltpFR2	11	n/a	n/a	n/a	17	11	4	6	1
2481629	PROB	n/a	LTP373	ltpFR2	11	n/a	n/a	n/a	17	19	5	6	8
2483178	PROB	n/a	LTP373	ltpFR2	11	n/a	n/a	n/a	17	24	9	8	7
2488158	STOP	n/a	LTP373	ltpFR2	11	n/a	n/a	n/a	17	n/a	n/a	n/a	n/a
2490975	REC_START	n/a	LTP373	ltpFR2	11	11	n/a	n/a	n/a	n/a	0	0	0
2493795	REC_WORD	wordpools/wasnorm_wordpool_576.txt	LTP373	ltpFR2	11	11	MOP	916	n/a	n/a	0	0	0
2495185	REC_WORD	wordpools/wasnorm_wordpool_576.txt	LTP373	ltpFR2	11	11	BUCKET	184	n/a	n/a	0	0	0
2497050	REC_WORD	wordpools/wasnorm_wordpool_576.txt	LTP373	ltpFR2	11	11	MONSTER	912	n/a	n/a	0	0	0
2498190	REC_WORD	wordpools/wasnorm_wordpool_576.txt	LTP373	ltpFR2	11	11	CREATURE	403	n/a	n/a	0	0	0
2499311	REC_WORD	wordpools/wasnorm_wordpool_576.txt	LTP373	ltpFR2	11	11	BADGE	68	n/a	n/a	0	0	0
2500257	REC_WORD	wordpools/wasnorm_wordpool_576.txt	LTP373	ltpFR2	11	11	MEDAL	885	n/a	n/a	0	0	0
2501693	REC_WORD	wordpools/wasnorm_wordpool_576.txt	LTP373	ltpFR2	11	11	PLAYGROUND	1087	n/a	n/a	0	0	0
2503773	REC_WORD	wordpools/wasnorm_wordpool_576.txt	LTP373	ltpFR2	11	11	SISTER	1312	n/a	n/a	0	0	0
2504887	REC_WORD	wordpools/wasnorm_wordpool_576.txt	LTP373	ltpFR2	11	11	MISTER	901	n/a	n/a	0	0	0
2505915	REC_WORD	wordpools/wasnorm_wordpool_576.txt	LTP373	ltpFR2	11	11	PERFUME	1049	n/a	n/a	0	0	0
2507178	REC_WORD	wordpools/wasnorm_wordpool_576.txt	LTP373	ltpFR2	11	11	FRAGRANCE	599	n/a	n/a	0	0	0
2510647	REC_WORD	wordpools/wasnorm_wordpool_576.txt	LTP373	ltpFR2	11	11	GRIZZLY	662	n/a	n/a	0	0	0
2534666	REC_WORD	wordpools/wasnorm_wordpool_576.txt	LTP373	ltpFR2	11	11	TUNNEL	1519	n/a	n/a	0	0	0
2547934	REC_WORD	wordpools/wasnorm_wordpool_576.txt	LTP373	ltpFR2	11	11	CLOUD	328	n/a	n/a	0	0	0
2581417	DISTRACTOR	n/a	LTP373	ltpFR2	11	12	n/a	n/a	n/a	n/a	0	0	0
2581417	START	n/a	LTP373	ltpFR2	11	n/a	n/a	n/a	18	n/a	n/a	n/a	n/a
2581434	PROB	n/a	LTP373	ltpFR2	11	n/a	n/a	n/a	18	13	1	6	6
2583066	PROB	n/a	LTP373	ltpFR2	11	n/a	n/a	n/a	18	11	5	1	5
2584166	PROB	n/a	LTP373	ltpFR2	11	n/a	n/a	n/a	18	15	8	7	1
2585682	PROB	n/a	LTP373	ltpFR2	11	n/a	n/a	n/a	18	6	1	4	1
2586748	PROB	n/a	LTP373	ltpFR2	11	n/a	n/a	n/a	18	12	6	1	5
2588347	PROB	n/a	LTP373	ltpFR2	11	n/a	n/a	n/a	18	12	4	4	4
2589563	PROB	n/a	LTP373	ltpFR2	11	n/a	n/a	n/a	18	8	2	1	5
2590746	PROB	n/a	LTP373	ltpFR2	11	n/a	n/a	n/a	18	18	9	3	6
2592945	PROB	n/a	LTP373	ltpFR2	11	n/a	n/a	n/a	18	24	8	9	9
2594628	PROB	n/a	LTP373	ltpFR2	11	n/a	n/a	n/a	18	18	6	7	5
2598277	PROB	n/a	LTP373	ltpFR2	11	n/a	n/a	n/a	18	10	2	1	7
2599525	PROB	n/a	LTP373	ltpFR2	11	n/a	n/a	n/a	18	6	2	2	2
2600492	PROB	n/a	LTP373	ltpFR2	11	n/a	n/a	n/a	18	23	9	7	7
2602024	PROB	n/a	LTP373	ltpFR2	11	n/a	n/a	n/a	18	7	1	4	4
2605416	STOP	n/a	LTP373	ltpFR2	11	n/a	n/a	n/a	18	n/a	n/a	n/a	n/a
2606506	WORD	wordpools/wasnorm_wordpool_576.txt	LTP373	ltpFR2	11	12	AIRPORT	13	n/a	n/a	0	0	0
2609038	WORD	wordpools/wasnorm_wordpool_576.txt	LTP373	ltpFR2	11	12	BEEF	113	n/a	n/a	0	0	0
2611736	WORD	wordpools/wasnorm_wordpool_576.txt	LTP373	ltpFR2	11	12	GRILL	661	n/a	n/a	0	0	0
2614352	WORD	wordpools/wasnorm_wordpool_576.txt	LTP373	ltpFR2	11	12	KIDNEY	776	n/a	n/a	0	0	0
2616934	WORD	wordpools/wasnorm_wordpool_576.txt	LTP373	ltpFR2	11	12	ULCER	1533	n/a	n/a	0	0	0
2619450	WORD	wordpools/wasnorm_wordpool_576.txt	LTP373	ltpFR2	11	12	RATTLE	1170	n/a	n/a	0	0	0
2622082	WORD	wordpools/wasnorm_wordpool_576.txt	LTP373	ltpFR2	11	12	COBRA	336	n/a	n/a	0	0	0
2624697	WORD	wordpools/wasnorm_wordpool_576.txt	LTP373	ltpFR2	11	12	ACTRESS	6	n/a	n/a	0	0	0
2627280	WORD	wordpools/wasnorm_wordpool_576.txt	LTP373	ltpFR2	11	12	DIME	466	n/a	n/a	0	0	0
2630045	WORD	wordpools/wasnorm_wordpool_576.txt	LTP373	ltpFR2	11	12	FRANCE	601	n/a	n/a	0	0	0
2632594	WORD	wordpools/wasnorm_wordpool_576.txt	LTP373	ltpFR2	11	12	ELBOW	520	n/a	n/a	0	0	0
2635277	WORD	wordpools/wasnorm_wordpool_576.txt	LTP373	ltpFR2	11	12	SPACE	1345	n/a	n/a	0	0	0
2637741	WORD	wordpools/wasnorm_wordpool_576.txt	LTP373	ltpFR2	11	12	HORNET	718	n/a	n/a	0	0	0
2640258	WORD	wordpools/wasnorm_wordpool_576.txt	LTP373	ltpFR2	11	12	AWARD	63	n/a	n/a	0	0	0
2643006	WORD	wordpools/wasnorm_wordpool_576.txt	LTP373	ltpFR2	11	12	LEG	809	n/a	n/a	0	0	0
2645738	WORD	wordpools/wasnorm_wordpool_576.txt	LTP373	ltpFR2	11	12	THRONE	1461	n/a	n/a	0	0	0
2648237	WORD	wordpools/wasnorm_wordpool_576.txt	LTP373	ltpFR2	11	12	EAGLE	512	n/a	n/a	0	0	0
2650935	WORD	wordpools/wasnorm_wordpool_576.txt	LTP373	ltpFR2	11	12	BUG	187	n/a	n/a	0	0	0
2653617	WORD	wordpools/wasnorm_wordpool_576.txt	LTP373	ltpFR2	11	12	PLASTER	1085	n/a	n/a	0	0	0
2656350	WORD	wordpools/wasnorm_wordpool_576.txt	LTP373	ltpFR2	11	12	BROTHER	179	n/a	n/a	0	0	0
2658932	WORD	wordpools/wasnorm_wordpool_576.txt	LTP373	ltpFR2	11	12	LIPSTICK	829	n/a	n/a	0	0	0
2661730	WORD	wordpools/wasnorm_wordpool_576.txt	LTP373	ltpFR2	11	12	TWISTER	1530	n/a	n/a	0	0	0
2664413	WORD	wordpools/wasnorm_wordpool_576.txt	LTP373	ltpFR2	11	12	HANDBAG	684	n/a	n/a	0	0	0
2666895	WORD	wordpools/wasnorm_wordpool_576.txt	LTP373	ltpFR2	11	12	OMELET	976	n/a	n/a	0	0	0
2668511	START	n/a	LTP373	ltpFR2	11	n/a	n/a	n/a	19	n/a	n/a	n/a	n/a
2669566	DISTRACTOR	n/a	LTP373	ltpFR2	11	12	n/a	n/a	n/a	n/a	0	0	0
2669577	PROB	n/a	LTP373	ltpFR2	11	n/a	n/a	n/a	19	19	9	2	8
2671093	PROB	n/a	LTP373	ltpFR2	11	n/a	n/a	n/a	19	18	1	8	9
2672726	PROB	n/a	LTP373	ltpFR2	11	n/a	n/a	n/a	19	26	9	8	9
2675758	PROB	n/a	LTP373	ltpFR2	11	n/a	n/a	n/a	19	15	9	3	3
2677207	PROB	n/a	LTP373	ltpFR2	11	n/a	n/a	n/a	19	11	6	3	2
2678506	PROB	n/a	LTP373	ltpFR2	11	n/a	n/a	n/a	19	7	5	1	1
2679656	PROB	n/a	LTP373	ltpFR2	11	n/a	n/a	n/a	19	18	2	9	7
2680988	PROB	n/a	LTP373	ltpFR2	11	n/a	n/a	n/a	19	12	6	2	4
2682355	PROB	n/a	LTP373	ltpFR2	11	n/a	n/a	n/a	19	12	7	3	2
2683804	PROB	n/a	LTP373	ltpFR2	11	n/a	n/a	n/a	19	12	3	6	3
2685770	PROB	n/a	LTP373	ltpFR2	11	n/a	n/a	n/a	19	11	1	8	2
2688303	PROB	n/a	LTP373	ltpFR2	11	n/a	n/a	n/a	19	13	4	5	4
2689585	PROB	n/a	LTP373	ltpFR2	11	n/a	n/a	n/a	19	17	6	2	9
2691149	STOP	n/a	LTP373	ltpFR2	11	n/a	n/a	n/a	19	n/a	n/a	n/a	n/a
2694317	REC_START	n/a	LTP373	ltpFR2	11	12	n/a	n/a	n/a	n/a	0	0	0
2696949	REC_WORD	wordpools/wasnorm_wordpool_576.txt	LTP373	ltpFR2	11	12	BROTHER	179	n/a	n/a	0	0	0
2698078	REC_WORD	wordpools/wasnorm_wordpool_576.txt	LTP373	ltpFR2	11	12	ACTRESS	6	n/a	n/a	0	0	0
2699085	REC_WORD	wordpools/wasnorm_wordpool_576.txt	LTP373	ltpFR2	11	12	AWARD	63	n/a	n/a	0	0	0
2700930	REC_WORD	wordpools/wasnorm_wordpool_576.txt	LTP373	ltpFR2	11	12	BEEF	113	n/a	n/a	0	0	0
2702051	REC_WORD	wordpools/wasnorm_wordpool_576.txt	LTP373	ltpFR2	11	12	GRILL	661	n/a	n/a	0	0	0
2703482	REC_WORD	wordpools/wasnorm_wordpool_576.txt	LTP373	ltpFR2	11	12	AIRPORT	13	n/a	n/a	0	0	0
2704474	REC_WORD	wordpools/wasnorm_wordpool_576.txt	LTP373	ltpFR2	11	12	HANDBAG	684	n/a	n/a	0	0	0
2705662	REC_WORD	wordpools/wasnorm_wordpool_576.txt	LTP373	ltpFR2	11	12	COBRA	336	n/a	n/a	0	0	0
2706874	REC_WORD	wordpools/wasnorm_wordpool_576.txt	LTP373	ltpFR2	11	12	RATTLE	1170	n/a	n/a	0	0	0
2710858	REC_WORD	wordpools/wasnorm_wordpool_576.txt	LTP373	ltpFR2	11	12	SPACE	1345	n/a	n/a	0	0	0
2712042	REC_WORD	wordpools/wasnorm_wordpool_576.txt	LTP373	ltpFR2	11	12	FRANCE	601	n/a	n/a	0	0	0
2727262	REC_WORD	wordpools/wasnorm_wordpool_576.txt	LTP373	ltpFR2	11	12	ELBOW	520	n/a	n/a	0	0	0
2730614	REC_WORD	wordpools/wasnorm_wordpool_576.txt	LTP373	ltpFR2	11	12	LEG	809	n/a	n/a	0	0	0
2742895	REC_WORD	wordpools/wasnorm_wordpool_576.txt	LTP373	ltpFR2	11	12	OMELET	976	n/a	n/a	0	0	0
2784758	DISTRACTOR	n/a	LTP373	ltpFR2	11	13	n/a	n/a	n/a	n/a	0	0	0
2784758	START	n/a	LTP373	ltpFR2	11	n/a	n/a	n/a	20	n/a	n/a	n/a	n/a
2784775	PROB	n/a	LTP373	ltpFR2	11	n/a	n/a	n/a	20	13	2	5	6
2787440	PROB	n/a	LTP373	ltpFR2	11	n/a	n/a	n/a	20	9	3	3	3
2788457	PROB	n/a	LTP373	ltpFR2	11	n/a	n/a	n/a	20	13	2	5	6
2789756	PROB	n/a	LTP373	ltpFR2	11	n/a	n/a	n/a	20	16	2	6	8
2792022	PROB	n/a	LTP373	ltpFR2	11	n/a	n/a	n/a	20	7	3	3	1
2793238	PROB	n/a	LTP373	ltpFR2	11	n/a	n/a	n/a	20	9	2	6	1
2795420	PROB	n/a	LTP373	ltpFR2	11	n/a	n/a	n/a	20	11	7	2	2
2796869	PROB	n/a	LTP373	ltpFR2	11	n/a	n/a	n/a	20	17	5	8	7
2798719	PROB	n/a	LTP373	ltpFR2	11	n/a	n/a	n/a	20	8	3	2	3
2800051	PROB	n/a	LTP373	ltpFR2	11	n/a	n/a	n/a	20	10	2	2	6
2801667	PROB	n/a	LTP373	ltpFR2	11	n/a	n/a	n/a	20	11	5	3	3
2804366	PROB	n/a	LTP373	ltpFR2	11	n/a	n/a	n/a	20	13	4	5	4
2806132	PROB	n/a	LTP373	ltpFR2	11	n/a	n/a	n/a	20	13	3	6	4
2807608	STOP	n/a	LTP373	ltpFR2	11	n/a	n/a	n/a	20	n/a	n/a	n/a	n/a
2809730	WORD	wordpools/wasnorm_wordpool_576.txt	LTP373	ltpFR2	11	13	NOMAD	955	n/a	n/a	0	0	0
2812330	WORD	wordpools/wasnorm_wordpool_576.txt	LTP373	ltpFR2	11	13	LODGE	839	n/a	n/a	0	0	0
2814945	WORD	wordpools/wasnorm_wordpool_576.txt	LTP373	ltpFR2	11	13	FRAME	600	n/a	n/a	0	0	0
2817543	WORD	wordpools/wasnorm_wordpool_576.txt	LTP373	ltpFR2	11	13	OUTDOORS	987	n/a	n/a	0	0	0
2820293	WORD	wordpools/wasnorm_wordpool_576.txt	LTP373	ltpFR2	11	13	NECKLACE	940	n/a	n/a	0	0	0
2822791	WORD	wordpools/wasnorm_wordpool_576.txt	LTP373	ltpFR2	11	13	BIKE	125	n/a	n/a	0	0	0
2825357	WORD	wordpools/wasnorm_wordpool_576.txt	LTP373	ltpFR2	11	13	MILK	895	n/a	n/a	0	0	0
2827889	WORD	wordpools/wasnorm_wordpool_576.txt	LTP373	ltpFR2	11	13	RAFT	1159	n/a	n/a	0	0	0
2830571	WORD	wordpools/wasnorm_wordpool_576.txt	LTP373	ltpFR2	11	13	BURGLAR	200	n/a	n/a	0	0	0
2833353	WORD	wordpools/wasnorm_wordpool_576.txt	LTP373	ltpFR2	11	13	CONVICT	371	n/a	n/a	0	0	0
2835835	WORD	wordpools/wasnorm_wordpool_576.txt	LTP373	ltpFR2	11	13	LIGHTNING	820	n/a	n/a	0	0	0
2838335	WORD	wordpools/wasnorm_wordpool_576.txt	LTP373	ltpFR2	11	13	UNCLE	1536	n/a	n/a	0	0	0
2840983	WORD	wordpools/wasnorm_wordpool_576.txt	LTP373	ltpFR2	11	13	COUSIN	392	n/a	n/a	0	0	0
2843598	WORD	wordpools/wasnorm_wordpool_576.txt	LTP373	ltpFR2	11	13	GALLON	618	n/a	n/a	0	0	0
2846364	WORD	wordpools/wasnorm_wordpool_576.txt	LTP373	ltpFR2	11	13	MUSTARD	935	n/a	n/a	0	0	0
2849113	WORD	wordpools/wasnorm_wordpool_576.txt	LTP373	ltpFR2	11	13	PLUTO	1092	n/a	n/a	0	0	0
2851595	WORD	wordpools/wasnorm_wordpool_576.txt	LTP373	ltpFR2	11	13	LUMBER	848	n/a	n/a	0	0	0
2854377	WORD	wordpools/wasnorm_wordpool_576.txt	LTP373	ltpFR2	11	13	MEAT	883	n/a	n/a	0	0	0
2856892	WORD	wordpools/wasnorm_wordpool_576.txt	LTP373	ltpFR2	11	13	PUDDLE	1140	n/a	n/a	0	0	0
2859641	WORD	wordpools/wasnorm_wordpool_576.txt	LTP373	ltpFR2	11	13	EUROPE	541	n/a	n/a	0	0	0
2862223	WORD	wordpools/wasnorm_wordpool_576.txt	LTP373	ltpFR2	11	13	SLIDE	1326	n/a	n/a	0	0	0
2864972	WORD	wordpools/wasnorm_wordpool_576.txt	LTP373	ltpFR2	11	13	MISSILE	900	n/a	n/a	0	0	0
2867771	WORD	wordpools/wasnorm_wordpool_576.txt	LTP373	ltpFR2	11	13	ROCKET	1202	n/a	n/a	0	0	0
2870469	WORD	wordpools/wasnorm_wordpool_576.txt	LTP373	ltpFR2	11	13	YOLK	1633	n/a	n/a	0	0	0
2872086	START	n/a	LTP373	ltpFR2	11	n/a	n/a	n/a	21	n/a	n/a	n/a	n/a
2872966	DISTRACTOR	n/a	LTP373	ltpFR2	11	13	n/a	n/a	n/a	n/a	0	0	0
2872968	PROB	n/a	LTP373	ltpFR2	11	n/a	n/a	n/a	21	19	6	8	5
2876250	PROB	n/a	LTP373	ltpFR2	11	n/a	n/a	n/a	21	20	8	4	8
2878516	PROB	n/a	LTP373	ltpFR2	11	n/a	n/a	n/a	21	16	3	7	6
2880248	PROB	n/a	LTP373	ltpFR2	11	n/a	n/a	n/a	21	12	6	3	3
2882048	PROB	n/a	LTP373	ltpFR2	11	n/a	n/a	n/a	21	11	5	1	5
2884047	PROB	n/a	LTP373	ltpFR2	11	n/a	n/a	n/a	21	15	9	2	4
2886512	PROB	n/a	LTP373	ltpFR2	11	n/a	n/a	n/a	21	15	9	4	2
2887978	PROB	n/a	LTP373	ltpFR2	11	n/a	n/a	n/a	21	21	9	6	6
2889329	PROB	n/a	LTP373	ltpFR2	11	n/a	n/a	n/a	21	13	3	8	2
2890610	PROB	n/a	LTP373	ltpFR2	11	n/a	n/a	n/a	21	9	1	1	7
2891793	PROB	n/a	LTP373	ltpFR2	11	n/a	n/a	n/a	21	17	9	2	6
2896035	STOP	n/a	LTP373	ltpFR2	11	n/a	n/a	n/a	21	n/a	n/a	n/a	n/a
2897957	REC_START	n/a	LTP373	ltpFR2	11	13	n/a	n/a	n/a	n/a	0	0	0
2899075	REC_WORD	wordpools/wasnorm_wordpool_576.txt	LTP373	ltpFR2	11	13	NOMAD	955	n/a	n/a	0	0	0
2901205	REC_WORD	wordpools/wasnorm_wordpool_576.txt	LTP373	ltpFR2	11	13	OUTDOORS	987	n/a	n/a	0	0	0
2902655	REC_WORD	wordpools/wasnorm_wordpool_576.txt	LTP373	ltpFR2	11	13	CONVICT	371	n/a	n/a	0	0	0
2903902	REC_WORD	wordpools/wasnorm_wordpool_576.txt	LTP373	ltpFR2	11	13	LODGE	839	n/a	n/a	0	0	0
2905201	REC_WORD	wordpools/wasnorm_wordpool_576.txt	LTP373	ltpFR2	11	13	FRAME	600	n/a	n/a	0	0	0
2906654	REC_WORD	wordpools/wasnorm_wordpool_576.txt	LTP373	ltpFR2	11	13	EUROPE	541	n/a	n/a	0	0	0
2907939	REC_WORD	wordpools/wasnorm_wordpool_576.txt	LTP373	ltpFR2	11	13	MISSILE	900	n/a	n/a	0	0	0
2909407	REC_WORD	wordpools/wasnorm_wordpool_576.txt	LTP373	ltpFR2	11	13	ROCKET	1202	n/a	n/a	0	0	0
2953375	REC_WORD	wordpools/wasnorm_wordpool_576.txt	LTP373	ltpFR2	11	13	MUSTARD	935	n/a	n/a	0	0	0
2955289	REC_WORD	wordpools/wasnorm_wordpool_576.txt	LTP373	ltpFR2	11	13	GALLON	618	n/a	n/a	0	0	0
2955789	REC_WORD	wordpools/wasnorm_wordpool_576.txt	LTP373	ltpFR2	11	13	MILK	895	n/a	n/a	0	0	0
2964929	REC_WORD	wordpools/wasnorm_wordpool_576.txt	LTP373	ltpFR2	11	13	UNCLE	1536	n/a	n/a	0	0	0
2965229	REC_WORD	wordpools/wasnorm_wordpool_576.txt	LTP373	ltpFR2	11	13	COUSIN	392	n/a	n/a	0	0	0
2988399	WORD	wordpools/wasnorm_wordpool_576.txt	LTP373	ltpFR2	11	14	POPCORN	1104	n/a	n/a	0	0	0
2990848	WORD	wordpools/wasnorm_wordpool_576.txt	LTP373	ltpFR2	11	14	CRITIC	410	n/a	n/a	0	0	0
2993497	WORD	wordpools/wasnorm_wordpool_576.txt	LTP373	ltpFR2	11	14	STAMP	1370	n/a	n/a	0	0	0
2996146	WORD	wordpools/wasnorm_wordpool_576.txt	LTP373	ltpFR2	11	14	PACKAGE	997	n/a	n/a	0	0	0
2998795	WORD	wordpools/wasnorm_wordpool_576.txt	LTP373	ltpFR2	11	14	JUGGLER	763	n/a	n/a	0	0	0
3001311	WORD	wordpools/wasnorm_wordpool_576.txt	LTP373	ltpFR2	11	14	SUBWAY	1400	n/a	n/a	0	0	0
3003842	WORD	wordpools/wasnorm_wordpool_576.txt	LTP373	ltpFR2	11	14	WAITRESS	1581	n/a	n/a	0	0	0
3006292	WORD	wordpools/wasnorm_wordpool_576.txt	LTP373	ltpFR2	11	14	BARLEY	88	n/a	n/a	0	0	0
3008840	WORD	wordpools/wasnorm_wordpool_576.txt	LTP373	ltpFR2	11	14	REPORT	1184	n/a	n/a	0	0	0
3011522	WORD	wordpools/wasnorm_wordpool_576.txt	LTP373	ltpFR2	11	14	GOBLIN	645	n/a	n/a	0	0	0
3014155	WORD	wordpools/wasnorm_wordpool_576.txt	LTP373	ltpFR2	11	14	LEOPARD	812	n/a	n/a	0	0	0
3016720	WORD	wordpools/wasnorm_wordpool_576.txt	LTP373	ltpFR2	11	14	TILE	1468	n/a	n/a	0	0	0
3019402	WORD	wordpools/wasnorm_wordpool_576.txt	LTP373	ltpFR2	11	14	MARSH	874	n/a	n/a	0	0	0
3021918	WORD	wordpools/wasnorm_wordpool_576.txt	LTP373	ltpFR2	11	14	TREAT	1501	n/a	n/a	0	0	0
3024417	WORD	wordpools/wasnorm_wordpool_576.txt	LTP373	ltpFR2	11	14	CARRIAGE	248	n/a	n/a	0	0	0
3027032	WORD	wordpools/wasnorm_wordpool_576.txt	LTP373	ltpFR2	11	14	ANKLE	24	n/a	n/a	0	0	0
3029564	WORD	wordpools/wasnorm_wordpool_576.txt	LTP373	ltpFR2	11	14	HAND	683	n/a	n/a	0	0	0
3032146	WORD	wordpools/wasnorm_wordpool_576.txt	LTP373	ltpFR2	11	14	COUCH	386	n/a	n/a	0	0	0
3034828	WORD	wordpools/wasnorm_wordpool_576.txt	LTP373	ltpFR2	11	14	WAITER	1580	n/a	n/a	0	0	0
3037644	WORD	wordpools/wasnorm_wordpool_576.txt	LTP373	ltpFR2	11	14	FLAG	573	n/a	n/a	0	0	0
3040294	WORD	wordpools/wasnorm_wordpool_576.txt	LTP373	ltpFR2	11	14	CHEMIST	292	n/a	n/a	0	0	0
3042808	WORD	wordpools/wasnorm_wordpool_576.txt	LTP373	ltpFR2	11	14	SCARF	1246	n/a	n/a	0	0	0
3045240	WORD	wordpools/wasnorm_wordpool_576.txt	LTP373	ltpFR2	11	14	ROBIN	1199	n/a	n/a	0	0	0
3047906	WORD	wordpools/wasnorm_wordpool_576.txt	LTP373	ltpFR2	11	14	POSSUM	1112	n/a	n/a	0	0	0
3049522	START	n/a	LTP373	ltpFR2	11	n/a	n/a	n/a	22	n/a	n/a	n/a	n/a
3050448	DISTRACTOR	n/a	LTP373	ltpFR2	11	14	n/a	n/a	n/a	n/a	0	0	0
3050455	PROB	n/a	LTP373	ltpFR2	11	n/a	n/a	n/a	22	7	1	3	3
3052037	PROB	n/a	LTP373	ltpFR2	11	n/a	n/a	n/a	22	9	5	3	1
3053204	PROB	n/a	LTP373	ltpFR2	11	n/a	n/a	n/a	22	12	9	1	2
3054720	PROB	n/a	LTP373	ltpFR2	11	n/a	n/a	n/a	22	19	9	4	6
3056119	PROB	n/a	LTP373	ltpFR2	11	n/a	n/a	n/a	22	12	6	2	4
3057568	PROB	n/a	LTP373	ltpFR2	11	n/a	n/a	n/a	22	15	4	4	7
3058951	PROB	n/a	LTP373	ltpFR2	11	n/a	n/a	n/a	22	22	7	7	8
3061616	PROB	n/a	LTP373	ltpFR2	11	n/a	n/a	n/a	22	19	7	8	4
3063449	PROB	n/a	LTP373	ltpFR2	11	n/a	n/a	n/a	22	9	3	4	2
3066481	PROB	n/a	LTP373	ltpFR2	11	n/a	n/a	n/a	22	16	5	2	9
3067664	PROB	n/a	LTP373	ltpFR2	11	n/a	n/a	n/a	22	18	8	1	9
3068780	PROB	n/a	LTP373	ltpFR2	11	n/a	n/a	n/a	22	12	1	2	9
3070196	PROB	n/a	LTP373	ltpFR2	11	n/a	n/a	n/a	22	24	7	8	9
3071945	PROB	n/a	LTP373	ltpFR2	11	n/a	n/a	n/a	22	12	2	8	2
3073385	STOP	n/a	LTP373	ltpFR2	11	n/a	n/a	n/a	22	n/a	n/a	n/a	n/a
3075411	REC_START	n/a	LTP373	ltpFR2	11	14	n/a	n/a	n/a	n/a	0	0	0
3076453	REC_WORD	wordpools/wasnorm_wordpool_576.txt	LTP373	ltpFR2	11	14	CRITIC	410	n/a	n/a	0	0	0
3077551	REC_WORD	wordpools/wasnorm_wordpool_576.txt	LTP373	ltpFR2	11	14	SCARF	1246	n/a	n/a	0	0	0
3078898	REC_WORD	wordpools/wasnorm_wordpool_576.txt	LTP373	ltpFR2	11	14	POPCORN	1104	n/a	n/a	0	0	0
3079983	REC_WORD	wordpools/wasnorm_wordpool_576.txt	LTP373	ltpFR2	11	14	TREAT	1501	n/a	n/a	0	0	0
3083014	REC_WORD	wordpools/wasnorm_wordpool_576.txt	LTP373	ltpFR2	11	14	STAMP	1370	n/a	n/a	0	0	0
3084413	REC_WORD	wordpools/wasnorm_wordpool_576.txt	LTP373	ltpFR2	11	14	POSTAGE	1113	n/a	n/a	0	0	0
3089568	REC_WORD	wordpools/wasnorm_wordpool_576.txt	LTP373	ltpFR2	11	14	ANKLE	24	n/a	n/a	0	0	0
3094966	REC_WORD	wordpools/wasnorm_wordpool_576.txt	LTP373	ltpFR2	11	14	WAITRESS	1581	n/a	n/a	0	0	0
3098576	REC_WORD	wordpools/wasnorm_wordpool_576.txt	LTP373	ltpFR2	11	14	HOSTESS	723	n/a	n/a	0	0	0
3110698	REC_WORD	wordpools/wasnorm_wordpool_576.txt	LTP373	ltpFR2	11	14	JUGGLER	763	n/a	n/a	0	0	0
3111658	REC_WORD	wordpools/wasnorm_wordpool_576.txt	LTP373	ltpFR2	11	14	SUBWAY	1400	n/a	n/a	0	0	0
3112853	REC_WORD	wordpools/wasnorm_wordpool_576.txt	LTP373	ltpFR2	11	14	TILE	1468	n/a	n/a	0	0	0
3114092	REC_WORD	wordpools/wasnorm_wordpool_576.txt	LTP373	ltpFR2	11	14	MARSH	874	n/a	n/a	0	0	0
3139094	REC_WORD	wordpools/wasnorm_wordpool_576.txt	LTP373	ltpFR2	11	14	CHEMIST	292	n/a	n/a	0	0	0
3165869	WORD	wordpools/wasnorm_wordpool_576.txt	LTP373	ltpFR2	11	15	EGYPT	519	n/a	n/a	0	0	0
3168468	WORD	wordpools/wasnorm_wordpool_576.txt	LTP373	ltpFR2	11	15	MUMMY	932	n/a	n/a	0	0	0
3171117	WORD	wordpools/wasnorm_wordpool_576.txt	LTP373	ltpFR2	11	15	SODA	1341	n/a	n/a	0	0	0
3173849	WORD	wordpools/wasnorm_wordpool_576.txt	LTP373	ltpFR2	11	15	DINER	467	n/a	n/a	0	0	0
3176631	WORD	wordpools/wasnorm_wordpool_576.txt	LTP373	ltpFR2	11	15	CONTRACT	368	n/a	n/a	0	0	0
3179396	WORD	wordpools/wasnorm_wordpool_576.txt	LTP373	ltpFR2	11	15	SIBLING	1301	n/a	n/a	0	0	0
3181995	WORD	wordpools/wasnorm_wordpool_576.txt	LTP373	ltpFR2	11	15	BACKBONE	66	n/a	n/a	0	0	0
3184428	WORD	wordpools/wasnorm_wordpool_576.txt	LTP373	ltpFR2	11	15	DAUGHTER	442	n/a	n/a	0	0	0
3187226	WORD	wordpools/wasnorm_wordpool_576.txt	LTP373	ltpFR2	11	15	VIKING	1565	n/a	n/a	0	0	0
3189858	WORD	wordpools/wasnorm_wordpool_576.txt	LTP373	ltpFR2	11	15	CHAPEL	280	n/a	n/a	0	0	0
3192341	WORD	wordpools/wasnorm_wordpool_576.txt	LTP373	ltpFR2	11	15	JUNGLE	764	n/a	n/a	0	0	0
3195106	WORD	wordpools/wasnorm_wordpool_576.txt	LTP373	ltpFR2	11	15	BLENDER	136	n/a	n/a	0	0	0
3197638	WORD	wordpools/wasnorm_wordpool_576.txt	LTP373	ltpFR2	11	15	CROSS	413	n/a	n/a	0	0	0
3200087	WORD	wordpools/wasnorm_wordpool_576.txt	LTP373	ltpFR2	11	15	OUTLAW	989	n/a	n/a	0	0	0
3202636	WORD	wordpools/wasnorm_wordpool_576.txt	LTP373	ltpFR2	11	15	STAPLE	1371	n/a	n/a	0	0	0
3205351	WORD	wordpools/wasnorm_wordpool_576.txt	LTP373	ltpFR2	11	15	DENIM	446	n/a	n/a	0	0	0
3207934	WORD	wordpools/wasnorm_wordpool_576.txt	LTP373	ltpFR2	11	15	CREVICE	405	n/a	n/a	0	0	0
3210749	WORD	wordpools/wasnorm_wordpool_576.txt	LTP373	ltpFR2	11	15	SHELF	1280	n/a	n/a	0	0	0
3213315	WORD	wordpools/wasnorm_wordpool_576.txt	LTP373	ltpFR2	11	15	STUDENT	1395	n/a	n/a	0	0	0
3216047	WORD	wordpools/wasnorm_wordpool_576.txt	LTP373	ltpFR2	11	15	NOTEBOOK	959	n/a	n/a	0	0	0
3218612	WORD	wordpools/wasnorm_wordpool_576.txt	LTP373	ltpFR2	11	15	CANYON	235	n/a	n/a	0	0	0
3221428	WORD	wordpools/wasnorm_wordpool_576.txt	LTP373	ltpFR2	11	15	SUMMIT	1405	n/a	n/a	0	0	0
3224043	WORD	wordpools/wasnorm_wordpool_576.txt	LTP373	ltpFR2	11	15	TRIBE	1505	n/a	n/a	0	0	0
3226575	WORD	wordpools/wasnorm_wordpool_576.txt	LTP373	ltpFR2	11	15	DRESS	495	n/a	n/a	0	0	0
3228191	START	n/a	LTP373	ltpFR2	11	n/a	n/a	n/a	23	n/a	n/a	n/a	n/a
3229308	DISTRACTOR	n/a	LTP373	ltpFR2	11	15	n/a	n/a	n/a	n/a	0	0	0
3229325	PROB	n/a	LTP373	ltpFR2	11	n/a	n/a	n/a	23	17	2	7	8
3231939	PROB	n/a	LTP373	ltpFR2	11	n/a	n/a	n/a	23	19	7	6	8
3233805	PROB	n/a	LTP373	ltpFR2	11	n/a	n/a	n/a	23	11	1	5	5
3234921	PROB	n/a	LTP373	ltpFR2	11	n/a	n/a	n/a	23	15	5	8	2
3236937	PROB	n/a	LTP373	ltpFR2	11	n/a	n/a	n/a	23	10	5	1	4
3238670	PROB	n/a	LTP373	ltpFR2	11	n/a	n/a	n/a	23	12	2	6	4
3240702	PROB	n/a	LTP373	ltpFR2	11	n/a	n/a	n/a	23	12	6	2	4
3242501	PROB	n/a	LTP373	ltpFR2	11	n/a	n/a	n/a	23	15	7	3	5
3243567	PROB	n/a	LTP373	ltpFR2	11	n/a	n/a	n/a	23	14	4	3	7
3244934	PROB	n/a	LTP373	ltpFR2	11	n/a	n/a	n/a	23	16	8	6	2
3246549	PROB	n/a	LTP373	ltpFR2	11	n/a	n/a	n/a	23	12	6	4	2
3247999	PROB	n/a	LTP373	ltpFR2	11	n/a	n/a	n/a	23	11	1	1	9
3250015	PROB	n/a	LTP373	ltpFR2	11	n/a	n/a	n/a	23	20	6	5	9
3251862	STOP	n/a	LTP373	ltpFR2	11	n/a	n/a	n/a	23	n/a	n/a	n/a	n/a
3254096	REC_START	n/a	LTP373	ltpFR2	11	15	n/a	n/a	n/a	n/a	0	0	0
3255429	REC_WORD	wordpools/wasnorm_wordpool_576.txt	LTP373	ltpFR2	11	15	JUNGLE	764	n/a	n/a	0	0	0
3256521	REC_WORD	wordpools/wasnorm_wordpool_576.txt	LTP373	ltpFR2	11	15	CANYON	235	n/a	n/a	0	0	0
3257555	REC_WORD	wordpools/wasnorm_wordpool_576.txt	LTP373	ltpFR2	11	15	SUMMIT	1405	n/a	n/a	0	0	0
3258818	REC_WORD	wordpools/wasnorm_wordpool_576.txt	LTP373	ltpFR2	11	15	TRIBE	1505	n/a	n/a	0	0	0
3259994	REC_WORD	wordpools/wasnorm_wordpool_576.txt	LTP373	ltpFR2	11	15	EGYPT	519	n/a	n/a	0	0	0
3260995	REC_WORD	wordpools/wasnorm_wordpool_576.txt	LTP373	ltpFR2	11	15	MUMMY	932	n/a	n/a	0	0	0
3262240	REC_WORD	wordpools/wasnorm_wordpool_576.txt	LTP373	ltpFR2	11	15	DENIM	446	n/a	n/a	0	0	0
3264453	REC_WORD	wordpools/wasnorm_wordpool_576.txt	LTP373	ltpFR2	11	15	DINER	467	n/a	n/a	0	0	0
3265314	REC_WORD	wordpools/wasnorm_wordpool_576.txt	LTP373	ltpFR2	11	15	SODA	1341	n/a	n/a	0	0	0
3266511	REC_WORD	wordpools/wasnorm_wordpool_576.txt	LTP373	ltpFR2	11	15	BLENDER	136	n/a	n/a	0	0	0
3271007	REC_WORD	wordpools/wasnorm_wordpool_576.txt	LTP373	ltpFR2	11	15	STUDENT	1395	n/a	n/a	0	0	0
3273372	REC_WORD	wordpools/wasnorm_wordpool_576.txt	LTP373	ltpFR2	11	15	NOTEBOOK	959	n/a	n/a	0	0	0
3274512	REC_WORD	wordpools/wasnorm_wordpool_576.txt	LTP373	ltpFR2	11	15	CONTRACT	368	n/a	n/a	0	0	0
3295722	REC_WORD	wordpools/wasnorm_wordpool_576.txt	LTP373	ltpFR2	11	15	CREVICE	405	n/a	n/a	0	0	0
3296635	REC_WORD	wordpools/wasnorm_wordpool_576.txt	LTP373	ltpFR2	11	15	SHELF	1280	n/a	n/a	0	0	0
3344572	WORD	wordpools/wasnorm_wordpool_576.txt	LTP373	ltpFR2	11	16	HAWK	692	n/a	n/a	0	0	0
3347221	WORD	wordpools/wasnorm_wordpool_576.txt	LTP373	ltpFR2	11	16	PATIENT	1024	n/a	n/a	0	0	0
3349686	WORD	wordpools/wasnorm_wordpool_576.txt	LTP373	ltpFR2	11	16	BINDER	127	n/a	n/a	0	0	0
3352485	WORD	wordpools/wasnorm_wordpool_576.txt	LTP373	ltpFR2	11	16	PAPER	1011	n/a	n/a	0	0	0
3355017	WORD	wordpools/wasnorm_wordpool_576.txt	LTP373	ltpFR2	11	16	ASIA	46	n/a	n/a	0	0	0
3357516	WORD	wordpools/wasnorm_wordpool_576.txt	LTP373	ltpFR2	11	16	LAPEL	800	n/a	n/a	0	0	0
3360065	WORD	wordpools/wasnorm_wordpool_576.txt	LTP373	ltpFR2	11	16	DUST	508	n/a	n/a	0	0	0
3362864	WORD	wordpools/wasnorm_wordpool_576.txt	LTP373	ltpFR2	11	16	CRICKET	408	n/a	n/a	0	0	0
3365379	WORD	wordpools/wasnorm_wordpool_576.txt	LTP373	ltpFR2	11	16	LONDON	843	n/a	n/a	0	0	0
3368128	WORD	wordpools/wasnorm_wordpool_576.txt	LTP373	ltpFR2	11	16	SALAD	1224	n/a	n/a	0	0	0
3370627	WORD	wordpools/wasnorm_wordpool_576.txt	LTP373	ltpFR2	11	16	SHORTCAKE	1292	n/a	n/a	0	0	0
3373242	WORD	wordpools/wasnorm_wordpool_576.txt	LTP373	ltpFR2	11	16	PROTON	1132	n/a	n/a	0	0	0
3375908	WORD	wordpools/wasnorm_wordpool_576.txt	LTP373	ltpFR2	11	16	CLAM	315	n/a	n/a	0	0	0
3378490	WORD	wordpools/wasnorm_wordpool_576.txt	LTP373	ltpFR2	11	16	VELVET	1555	n/a	n/a	0	0	0
3381072	WORD	wordpools/wasnorm_wordpool_576.txt	LTP373	ltpFR2	11	16	AUTHOR	61	n/a	n/a	0	0	0
3383637	WORD	wordpools/wasnorm_wordpool_576.txt	LTP373	ltpFR2	11	16	BANJO	82	n/a	n/a	0	0	0
3386370	WORD	wordpools/wasnorm_wordpool_576.txt	LTP373	ltpFR2	11	16	HARP	689	n/a	n/a	0	0	0
3388802	WORD	wordpools/wasnorm_wordpool_576.txt	LTP373	ltpFR2	11	16	WASP	1593	n/a	n/a	0	0	0
3391335	WORD	wordpools/wasnorm_wordpool_576.txt	LTP373	ltpFR2	11	16	ATOM	55	n/a	n/a	0	0	0
3393800	WORD	wordpools/wasnorm_wordpool_576.txt	LTP373	ltpFR2	11	16	REBEL	1172	n/a	n/a	0	0	0
3396248	WORD	wordpools/wasnorm_wordpool_576.txt	LTP373	ltpFR2	11	16	PRINCE	1124	n/a	n/a	0	0	0
3398981	WORD	wordpools/wasnorm_wordpool_576.txt	LTP373	ltpFR2	11	16	CHURCH	307	n/a	n/a	0	0	0
3401413	WORD	wordpools/wasnorm_wordpool_576.txt	LTP373	ltpFR2	11	16	ATLAS	53	n/a	n/a	0	0	0
3404245	WORD	wordpools/wasnorm_wordpool_576.txt	LTP373	ltpFR2	11	16	POISON	1096	n/a	n/a	0	0	0
3405861	START	n/a	LTP373	ltpFR2	11	n/a	n/a	n/a	24	n/a	n/a	n/a	n/a
3406775	DISTRACTOR	n/a	LTP373	ltpFR2	11	16	n/a	n/a	n/a	n/a	0	0	0
3406777	PROB	n/a	LTP373	ltpFR2	11	n/a	n/a	n/a	24	18	9	1	8
3409376	PROB	n/a	LTP373	ltpFR2	11	n/a	n/a	n/a	24	17	5	6	6
3410875	PROB	n/a	LTP373	ltpFR2	11	n/a	n/a	n/a	24	15	4	4	7
3412276	PROB	n/a	LTP373	ltpFR2	11	n/a	n/a	n/a	24	15	1	6	8
3413924	PROB	n/a	LTP373	ltpFR2	11	n/a	n/a	n/a	24	17	9	6	2
3416089	PROB	n/a	LTP373	ltpFR2	11	n/a	n/a	n/a	24	12	2	8	2
3417239	PROB	n/a	LTP373	ltpFR2	11	n/a	n/a	n/a	24	13	6	6	1
3418422	PROB	n/a	LTP373	ltpFR2	11	n/a	n/a	n/a	24	12	4	1	7
3419671	PROB	n/a	LTP373	ltpFR2	11	n/a	n/a	n/a	24	11	1	3	7
3421420	PROB	n/a	LTP373	ltpFR2	11	n/a	n/a	n/a	24	10	1	5	4
3423020	PROB	n/a	LTP373	ltpFR2	11	n/a	n/a	n/a	24	7	2	3	2
3425868	PROB	n/a	LTP373	ltpFR2	11	n/a	n/a	n/a	24	22	8	6	8
3429861	STOP	n/a	LTP373	ltpFR2	11	n/a	n/a	n/a	24	n/a	n/a	n/a	n/a
3431716	REC_START	n/a	LTP373	ltpFR2	11	16	n/a	n/a	n/a	n/a	0	0	0
3433128	REC_WORD	wordpools/wasnorm_wordpool_576.txt	LTP373	ltpFR2	11	16	AUTHOR	61	n/a	n/a	0	0	0
3434329	REC_WORD	wordpools/wasnorm_wordpool_576.txt	LTP373	ltpFR2	11	16	VELVET	1555	n/a	n/a	0	0	0
3435541	REC_WORD	wordpools/wasnorm_wordpool_576.txt	LTP373	ltpFR2	11	16	BINDER	127	n/a	n/a	0	0	0
3436725	REC_WORD	wordpools/wasnorm_wordpool_576.txt	LTP373	ltpFR2	11	16	PAPER	1011	n/a	n/a	0	0	0
3439516	REC_WORD	wordpools/wasnorm_wordpool_576.txt	LTP373	ltpFR2	11	16	HAWK	692	n/a	n/a	0	0	0
3444762	REC_WORD	wordpools/wasnorm_wordpool_576.txt	LTP373	ltpFR2	11	16	CLAM	315	n/a	n/a	0	0	0
3456686	REC_WORD	wordpools/wasnorm_wordpool_576.txt	LTP373	ltpFR2	11	16	PROTON	1132	n/a	n/a	0	0	0
3457833	REC_WORD	wordpools/wasnorm_wordpool_576.txt	LTP373	ltpFR2	11	16	ATOM	55	n/a	n/a	0	0	0
3464119	REC_WORD	wordpools/wasnorm_wordpool_576.txt	LTP373	ltpFR2	11	16	CHURCH	307	n/a	n/a	0	0	0
3467784	REC_WORD	wordpools/wasnorm_wordpool_576.txt	LTP373	ltpFR2	11	16	ASIA	46	n/a	n/a	0	0	0
3469016	REC_WORD	wordpools/wasnorm_wordpool_576.txt	LTP373	ltpFR2	11	16	LONDON	843	n/a	n/a	0	0	0
3476965	REC_WORD	wordpools/wasnorm_wordpool_576.txt	LTP373	ltpFR2	11	16	SHORTCAKE	1292	n/a	n/a	0	0	0
3508265	REST_REWET	n/a	LTP373	ltpFR2	11	16	n/a	n/a	n/a	n/a	0	0	0
3572535	DISTRACTOR	n/a	LTP373	ltpFR2	11	17	n/a	n/a	n/a	n/a	0	0	0
3572536	START	n/a	LTP373	ltpFR2	11	n/a	n/a	n/a	25	n/a	n/a	n/a	n/a
3572552	PROB	n/a	LTP373	ltpFR2	11	n/a	n/a	n/a	25	10	1	6	3
3574286	PROB	n/a	LTP373	ltpFR2	11	n/a	n/a	n/a	25	7	5	1	1
3575484	PROB	n/a	LTP373	ltpFR2	11	n/a	n/a	n/a	25	17	9	7	5
3577033	PROB	n/a	LTP373	ltpFR2	11	n/a	n/a	n/a	25	17	1	9	7
3578449	PROB	n/a	LTP373	ltpFR2	11	n/a	n/a	n/a	25	13	2	9	1
3579732	PROB	n/a	LTP373	ltpFR2	11	n/a	n/a	n/a	25	19	9	8	2
3581381	PROB	n/a	LTP373	ltpFR2	11	n/a	n/a	n/a	25	12	6	4	2
3582697	PROB	n/a	LTP373	ltpFR2	11	n/a	n/a	n/a	25	16	8	7	1
3584530	PROB	n/a	LTP373	ltpFR2	11	n/a	n/a	n/a	25	10	6	3	1
3585946	PROB	n/a	LTP373	ltpFR2	11	n/a	n/a	n/a	25	14	3	8	3
3587879	PROB	n/a	LTP373	ltpFR2	11	n/a	n/a	n/a	25	25	8	8	9
3590262	PROB	n/a	LTP373	ltpFR2	11	n/a	n/a	n/a	25	7	5	1	1
3591393	PROB	n/a	LTP373	ltpFR2	11	n/a	n/a	n/a	25	16	4	4	8
3593026	PROB	n/a	LTP373	ltpFR2	11	n/a	n/a	n/a	25	15	3	4	8
3594375	PROB	n/a	LTP373	ltpFR2	11	n/a	n/a	n/a	25	17	8	7	5
3595881	STOP	n/a	LTP373	ltpFR2	11	n/a	n/a	n/a	25	n/a	n/a	n/a	n/a
3597557	WORD	wordpools/wasnorm_wordpool_576.txt	LTP373	ltpFR2	11	17	NEUTRON	947	n/a	n/a	0	0	0
3600140	WORD	wordpools/wasnorm_wordpool_576.txt	LTP373	ltpFR2	11	17	NOVEL	960	n/a	n/a	0	0	0
3602855	WORD	wordpools/wasnorm_wordpool_576.txt	LTP373	ltpFR2	11	17	WHISTLE	1606	n/a	n/a	0	0	0
3605604	WORD	wordpools/wasnorm_wordpool_576.txt	LTP373	ltpFR2	11	17	SEAL	1262	n/a	n/a	0	0	0
3608186	WORD	wordpools/wasnorm_wordpool_576.txt	LTP373	ltpFR2	11	17	DORM	488	n/a	n/a	0	0	0
3610968	WORD	wordpools/wasnorm_wordpool_576.txt	LTP373	ltpFR2	11	17	COLLEGE	346	n/a	n/a	0	0	0
3613434	WORD	wordpools/wasnorm_wordpool_576.txt	LTP373	ltpFR2	11	17	ROBOT	1200	n/a	n/a	0	0	0
3615999	WORD	wordpools/wasnorm_wordpool_576.txt	LTP373	ltpFR2	11	17	PADDLE	1000	n/a	n/a	0	0	0
3618798	WORD	wordpools/wasnorm_wordpool_576.txt	LTP373	ltpFR2	11	17	MARINE	869	n/a	n/a	0	0	0
3621397	WORD	wordpools/wasnorm_wordpool_576.txt	LTP373	ltpFR2	11	17	GLASS	639	n/a	n/a	0	0	0
3623879	WORD	wordpools/wasnorm_wordpool_576.txt	LTP373	ltpFR2	11	17	GRAVE	658	n/a	n/a	0	0	0
3626694	WORD	wordpools/wasnorm_wordpool_576.txt	LTP373	ltpFR2	11	17	LOFT	840	n/a	n/a	0	0	0
3629176	WORD	wordpools/wasnorm_wordpool_576.txt	LTP373	ltpFR2	11	17	PEACH	1031	n/a	n/a	0	0	0
3631825	WORD	wordpools/wasnorm_wordpool_576.txt	LTP373	ltpFR2	11	17	SOFTBALL	1343	n/a	n/a	0	0	0
3634557	WORD	wordpools/wasnorm_wordpool_576.txt	LTP373	ltpFR2	11	17	TEACHER	1440	n/a	n/a	0	0	0
3637023	WORD	wordpools/wasnorm_wordpool_576.txt	LTP373	ltpFR2	11	17	RACKET	1155	n/a	n/a	0	0	0
3639705	WORD	wordpools/wasnorm_wordpool_576.txt	LTP373	ltpFR2	11	17	YARN	1631	n/a	n/a	0	0	0
3642337	WORD	wordpools/wasnorm_wordpool_576.txt	LTP373	ltpFR2	11	17	TRUCK	1512	n/a	n/a	0	0	0
3644919	WORD	wordpools/wasnorm_wordpool_576.txt	LTP373	ltpFR2	11	17	POET	1095	n/a	n/a	0	0	0
3647668	WORD	wordpools/wasnorm_wordpool_576.txt	LTP373	ltpFR2	11	17	TURTLE	1522	n/a	n/a	0	0	0
3650167	WORD	wordpools/wasnorm_wordpool_576.txt	LTP373	ltpFR2	11	17	GARDEN	623	n/a	n/a	0	0	0
3652799	WORD	wordpools/wasnorm_wordpool_576.txt	LTP373	ltpFR2	11	17	ORCHID	982	n/a	n/a	0	0	0
3655465	WORD	wordpools/wasnorm_wordpool_576.txt	LTP373	ltpFR2	11	17	UMPIRE	1535	n/a	n/a	0	0	0
3657963	WORD	wordpools/wasnorm_wordpool_576.txt	LTP373	ltpFR2	11	17	SPOUSE	1358	n/a	n/a	0	0	0
3659579	START	n/a	LTP373	ltpFR2	11	n/a	n/a	n/a	26	n/a	n/a	n/a	n/a
3660511	DISTRACTOR	n/a	LTP373	ltpFR2	11	17	n/a	n/a	n/a	n/a	0	0	0
3660529	PROB	n/a	LTP373	ltpFR2	11	n/a	n/a	n/a	26	25	8	8	9
3662296	PROB	n/a	LTP373	ltpFR2	11	n/a	n/a	n/a	26	19	8	7	4
3664295	PROB	n/a	LTP373	ltpFR2	11	n/a	n/a	n/a	26	15	5	9	1
3666460	PROB	n/a	LTP373	ltpFR2	11	n/a	n/a	n/a	26	10	6	1	3
3667792	PROB	n/a	LTP373	ltpFR2	11	n/a	n/a	n/a	26	16	9	4	3
3669309	PROB	n/a	LTP373	ltpFR2	11	n/a	n/a	n/a	26	12	1	4	7
3670891	PROB	n/a	LTP373	ltpFR2	11	n/a	n/a	n/a	26	20	9	5	6
3673324	PROB	n/a	LTP373	ltpFR2	11	n/a	n/a	n/a	26	22	5	8	9
3675406	PROB	n/a	LTP373	ltpFR2	11	n/a	n/a	n/a	26	19	7	7	5
3676672	PROB	n/a	LTP373	ltpFR2	11	n/a	n/a	n/a	26	13	5	5	3
3677754	PROB	n/a	LTP373	ltpFR2	11	n/a	n/a	n/a	26	14	5	4	5
3683578	STOP	n/a	LTP373	ltpFR2	11	n/a	n/a	n/a	26	n/a	n/a	n/a	n/a
3685418	REC_START	n/a	LTP373	ltpFR2	11	17	n/a	n/a	n/a	n/a	0	0	0
3687194	REC_WORD	wordpools/wasnorm_wordpool_576.txt	LTP373	ltpFR2	11	17	TEACHER	1440	n/a	n/a	0	0	0
3688367	REC_WORD	wordpools/wasnorm_wordpool_576.txt	LTP373	ltpFR2	11	17	COLLEGE	346	n/a	n/a	0	0	0
3689642	REC_WORD	wordpools/wasnorm_wordpool_576.txt	LTP373	ltpFR2	11	17	DORM	488	n/a	n/a	0	0	0
3690772	REC_WORD	wordpools/wasnorm_wordpool_576.txt	LTP373	ltpFR2	11	17	LOFT	840	n/a	n/a	0	0	0
3691952	REC_WORD	wordpools/wasnorm_wordpool_576.txt	LTP373	ltpFR2	11	17	SPOUSE	1358	n/a	n/a	0	0	0
3693194	REC_WORD	wordpools/wasnorm_wordpool_576.txt	LTP373	ltpFR2	11	17	MARINE	869	n/a	n/a	0	0	0
3694413	REC_WORD	wordpools/wasnorm_wordpool_576.txt	LTP373	ltpFR2	11	17	PADDLE	1000	n/a	n/a	0	0	0
3695657	REC_WORD	wordpools/wasnorm_wordpool_576.txt	LTP373	ltpFR2	11	17	UMPIRE	1535	n/a	n/a	0	0	0
3696708	REC_WORD	wordpools/wasnorm_wordpool_576.txt	LTP373	ltpFR2	11	17	GARDEN	623	n/a	n/a	0	0	0
3697930	REC_WORD	wordpools/wasnorm_wordpool_576.txt	LTP373	ltpFR2	11	17	ORCHID	982	n/a	n/a	0	0	0
3701208	REC_WORD	wordpools/wasnorm_wordpool_576.txt	LTP373	ltpFR2	11	17	ROBOT	1200	n/a	n/a	0	0	0
3703306	REC_WORD	wordpools/wasnorm_wordpool_576.txt	LTP373	ltpFR2	11	17	NEUTRON	947	n/a	n/a	0	0	0
3704360	REC_WORD	wordpools/wasnorm_wordpool_576.txt	LTP373	ltpFR2	11	17	NOVEL	960	n/a	n/a	0	0	0
3705525	REC_WORD	wordpools/wasnorm_wordpool_576.txt	LTP373	ltpFR2	11	17	POET	1095	n/a	n/a	0	0	0
3757326	REC_WORD	wordpools/wasnorm_wordpool_576.txt	LTP373	ltpFR2	11	17	UMPIRE	1535	n/a	n/a	0	0	0
3775877	WORD	wordpools/wasnorm_wordpool_576.txt	LTP373	ltpFR2	11	18	MUFFIN	929	n/a	n/a	0	0	0
3778310	WORD	wordpools/wasnorm_wordpool_576.txt	LTP373	ltpFR2	11	18	LAGOON	795	n/a	n/a	0	0	0
3780941	WORD	wordpools/wasnorm_wordpool_576.txt	LTP373	ltpFR2	11	18	BATHTUB	100	n/a	n/a	0	0	0
3783590	WORD	wordpools/wasnorm_wordpool_576.txt	LTP373	ltpFR2	11	18	LASER	801	n/a	n/a	0	0	0
3786405	WORD	wordpools/wasnorm_wordpool_576.txt	LTP373	ltpFR2	11	18	CATCHER	258	n/a	n/a	0	0	0
3788871	WORD	wordpools/wasnorm_wordpool_576.txt	LTP373	ltpFR2	11	18	DONKEY	484	n/a	n/a	0	0	0
3791370	WORD	wordpools/wasnorm_wordpool_576.txt	LTP373	ltpFR2	11	18	MARKER	870	n/a	n/a	0	0	0
3793919	WORD	wordpools/wasnorm_wordpool_576.txt	LTP373	ltpFR2	11	18	RUG	1215	n/a	n/a	0	0	0
3796584	WORD	wordpools/wasnorm_wordpool_576.txt	LTP373	ltpFR2	11	18	PEBBLE	1035	n/a	n/a	0	0	0
3799267	WORD	wordpools/wasnorm_wordpool_576.txt	LTP373	ltpFR2	11	18	PRINCESS	1125	n/a	n/a	0	0	0
3801748	WORD	wordpools/wasnorm_wordpool_576.txt	LTP373	ltpFR2	11	18	QUEEN	1149	n/a	n/a	0	0	0
3804397	WORD	wordpools/wasnorm_wordpool_576.txt	LTP373	ltpFR2	11	18	CROWN	415	n/a	n/a	0	0	0
3806913	WORD	wordpools/wasnorm_wordpool_576.txt	LTP373	ltpFR2	11	18	SPOOL	1356	n/a	n/a	0	0	0
3809362	WORD	wordpools/wasnorm_wordpool_576.txt	LTP373	ltpFR2	11	18	WITNESS	1618	n/a	n/a	0	0	0
3812110	WORD	wordpools/wasnorm_wordpool_576.txt	LTP373	ltpFR2	11	18	DASHBOARD	441	n/a	n/a	0	0	0
3814693	WORD	wordpools/wasnorm_wordpool_576.txt	LTP373	ltpFR2	11	18	STOVE	1388	n/a	n/a	0	0	0
3817491	WORD	wordpools/wasnorm_wordpool_576.txt	LTP373	ltpFR2	11	18	FREEZER	604	n/a	n/a	0	0	0
3820157	WORD	wordpools/wasnorm_wordpool_576.txt	LTP373	ltpFR2	11	18	HOUND	724	n/a	n/a	0	0	0
3822872	WORD	wordpools/wasnorm_wordpool_576.txt	LTP373	ltpFR2	11	18	FRIAR	605	n/a	n/a	0	0	0
3825571	WORD	wordpools/wasnorm_wordpool_576.txt	LTP373	ltpFR2	11	18	RELISH	1183	n/a	n/a	0	0	0
3828137	WORD	wordpools/wasnorm_wordpool_576.txt	LTP373	ltpFR2	11	18	DRIVER	499	n/a	n/a	0	0	0
3830702	WORD	wordpools/wasnorm_wordpool_576.txt	LTP373	ltpFR2	11	18	VIRUS	1572	n/a	n/a	0	0	0
3833134	WORD	wordpools/wasnorm_wordpool_576.txt	LTP373	ltpFR2	11	18	CANDY	230	n/a	n/a	0	0	0
3835633	WORD	wordpools/wasnorm_wordpool_576.txt	LTP373	ltpFR2	11	18	COWBOY	395	n/a	n/a	0	0	0
3837249	START	n/a	LTP373	ltpFR2	11	n/a	n/a	n/a	27	n/a	n/a	n/a	n/a
3838303	DISTRACTOR	n/a	LTP373	ltpFR2	11	18	n/a	n/a	n/a	n/a	0	0	0
3838316	PROB	n/a	LTP373	ltpFR2	11	n/a	n/a	n/a	27	20	3	9	8
3840781	PROB	n/a	LTP373	ltpFR2	11	n/a	n/a	n/a	27	5	2	1	2
3843096	PROB	n/a	LTP373	ltpFR2	11	n/a	n/a	n/a	27	18	7	6	5
3847262	PROB	n/a	LTP373	ltpFR2	11	n/a	n/a	n/a	27	18	2	7	9
3848427	PROB	n/a	LTP373	ltpFR2	11	n/a	n/a	n/a	27	27	9	9	9
3849993	PROB	n/a	LTP373	ltpFR2	11	n/a	n/a	n/a	27	14	8	1	5
3853042	PROB	n/a	LTP373	ltpFR2	11	n/a	n/a	n/a	27	18	9	7	2
3854341	PROB	n/a	LTP373	ltpFR2	11	n/a	n/a	n/a	27	13	9	2	2
3856657	PROB	n/a	LTP373	ltpFR2	11	n/a	n/a	n/a	27	20	8	7	5
3858823	PROB	n/a	LTP373	ltpFR2	11	n/a	n/a	n/a	27	19	7	8	4
3860569	STOP	n/a	LTP373	ltpFR2	11	n/a	n/a	n/a	27	n/a	n/a	n/a	n/a
3863038	REC_START	n/a	LTP373	ltpFR2	11	18	n/a	n/a	n/a	n/a	0	0	0
3864225	REC_WORD	wordpools/wasnorm_wordpool_576.txt	LTP373	ltpFR2	11	18	DRIVER	499	n/a	n/a	0	0	0
3865515	REC_WORD	wordpools/wasnorm_wordpool_576.txt	LTP373	ltpFR2	11	18	DASHBOARD	441	n/a	n/a	0	0	0
3866820	REC_WORD	wordpools/wasnorm_wordpool_576.txt	LTP373	ltpFR2	11	18	PEBBLE	1035	n/a	n/a	0	0	0
3868018	REC_WORD	wordpools/wasnorm_wordpool_576.txt	LTP373	ltpFR2	11	18	QUEEN	1149	n/a	n/a	0	0	0
3869361	REC_WORD	wordpools/wasnorm_wordpool_576.txt	LTP373	ltpFR2	11	18	PRINCESS	1125	n/a	n/a	0	0	0
3870560	REC_WORD	wordpools/wasnorm_wordpool_576.txt	LTP373	ltpFR2	11	18	CROWN	415	n/a	n/a	0	0	0
3871877	REC_WORD	wordpools/wasnorm_wordpool_576.txt	LTP373	ltpFR2	11	18	BATHTUB	100	n/a	n/a	0	0	0
3873115	REC_WORD	wordpools/wasnorm_wordpool_576.txt	LTP373	ltpFR2	11	18	LAGOON	795	n/a	n/a	0	0	0
3880456	REC_WORD	wordpools/wasnorm_wordpool_576.txt	LTP373	ltpFR2	11	18	RUG	1215	n/a	n/a	0	0	0
3889308	REC_WORD	wordpools/wasnorm_wordpool_576.txt	LTP373	ltpFR2	11	18	COWBOY	395	n/a	n/a	0	0	0
3927210	REC_WORD	wordpools/wasnorm_wordpool_576.txt	LTP373	ltpFR2	11	18	WITNESS	1618	n/a	n/a	0	0	0
3929210	REC_WORD	wordpools/wasnorm_wordpool_576.txt	LTP373	ltpFR2	11	18	FREEZER	604	n/a	n/a	0	0	0
3953480	WORD	wordpools/wasnorm_wordpool_576.txt	LTP373	ltpFR2	11	19	CONCERT	360	n/a	n/a	0	0	0
3956012	WORD	wordpools/wasnorm_wordpool_576.txt	LTP373	ltpFR2	11	19	BODY	145	n/a	n/a	0	0	0
3958578	WORD	wordpools/wasnorm_wordpool_576.txt	LTP373	ltpFR2	11	19	QUARTER	1148	n/a	n/a	0	0	0
3961376	WORD	wordpools/wasnorm_wordpool_576.txt	LTP373	ltpFR2	11	19	PALACE	1006	n/a	n/a	0	0	0
3964175	WORD	wordpools/wasnorm_wordpool_576.txt	LTP373	ltpFR2	11	19	OFFICE	972	n/a	n/a	0	0	0
3966641	WORD	wordpools/wasnorm_wordpool_576.txt	LTP373	ltpFR2	11	19	CANAL	226	n/a	n/a	0	0	0
3969356	WORD	wordpools/wasnorm_wordpool_576.txt	LTP373	ltpFR2	11	19	PORK	1108	n/a	n/a	0	0	0
3971805	WORD	wordpools/wasnorm_wordpool_576.txt	LTP373	ltpFR2	11	19	CYCLONE	431	n/a	n/a	0	0	0
3974237	WORD	wordpools/wasnorm_wordpool_576.txt	LTP373	ltpFR2	11	19	CASKET	255	n/a	n/a	0	0	0
3976719	WORD	wordpools/wasnorm_wordpool_576.txt	LTP373	ltpFR2	11	19	TAXI	1438	n/a	n/a	0	0	0
3979485	WORD	wordpools/wasnorm_wordpool_576.txt	LTP373	ltpFR2	11	19	COUNTY	389	n/a	n/a	0	0	0
3982301	WORD	wordpools/wasnorm_wordpool_576.txt	LTP373	ltpFR2	11	19	SUSPECT	1415	n/a	n/a	0	0	0
3984982	WORD	wordpools/wasnorm_wordpool_576.txt	LTP373	ltpFR2	11	19	STALLION	1369	n/a	n/a	0	0	0
3987598	WORD	wordpools/wasnorm_wordpool_576.txt	LTP373	ltpFR2	11	19	SADDLE	1221	n/a	n/a	0	0	0
3990346	WORD	wordpools/wasnorm_wordpool_576.txt	LTP373	ltpFR2	11	19	KNAPSACK	783	n/a	n/a	0	0	0
3992895	WORD	wordpools/wasnorm_wordpool_576.txt	LTP373	ltpFR2	11	19	POCKET	1093	n/a	n/a	0	0	0
3995428	WORD	wordpools/wasnorm_wordpool_576.txt	LTP373	ltpFR2	11	19	PLAZA	1088	n/a	n/a	0	0	0
3998093	WORD	wordpools/wasnorm_wordpool_576.txt	LTP373	ltpFR2	11	19	SMOG	1330	n/a	n/a	0	0	0
4000575	WORD	wordpools/wasnorm_wordpool_576.txt	LTP373	ltpFR2	11	19	OYSTER	995	n/a	n/a	0	0	0
4003374	WORD	wordpools/wasnorm_wordpool_576.txt	LTP373	ltpFR2	11	19	SNAIL	1332	n/a	n/a	0	0	0
4005989	WORD	wordpools/wasnorm_wordpool_576.txt	LTP373	ltpFR2	11	19	SHELTER	1282	n/a	n/a	0	0	0
4008655	WORD	wordpools/wasnorm_wordpool_576.txt	LTP373	ltpFR2	11	19	BRIEFCASE	175	n/a	n/a	0	0	0
4011271	WORD	wordpools/wasnorm_wordpool_576.txt	LTP373	ltpFR2	11	19	FIDDLE	561	n/a	n/a	0	0	0
4013853	WORD	wordpools/wasnorm_wordpool_576.txt	LTP373	ltpFR2	11	19	BACON	67	n/a	n/a	0	0	0
4015469	START	n/a	LTP373	ltpFR2	11	n/a	n/a	n/a	28	n/a	n/a	n/a	n/a
4016276	DISTRACTOR	n/a	LTP373	ltpFR2	11	19	n/a	n/a	n/a	n/a	0	0	0
4016286	PROB	n/a	LTP373	ltpFR2	11	n/a	n/a	n/a	28	17	8	7	2
4018117	PROB	n/a	LTP373	ltpFR2	11	n/a	n/a	n/a	28	14	8	5	1
4020033	PROB	n/a	LTP373	ltpFR2	11	n/a	n/a	n/a	28	17	7	3	7
4021333	PROB	n/a	LTP373	ltpFR2	11	n/a	n/a	n/a	28	19	8	9	2
4022665	PROB	n/a	LTP373	ltpFR2	11	n/a	n/a	n/a	28	13	2	3	8
4023931	PROB	n/a	LTP373	ltpFR2	11	n/a	n/a	n/a	28	19	7	9	3
4025414	PROB	n/a	LTP373	ltpFR2	11	n/a	n/a	n/a	28	9	1	3	5
4027363	PROB	n/a	LTP373	ltpFR2	11	n/a	n/a	n/a	28	11	4	4	3
4031329	PROB	n/a	LTP373	ltpFR2	11	n/a	n/a	n/a	28	18	3	6	9
4032611	PROB	n/a	LTP373	ltpFR2	11	n/a	n/a	n/a	28	9	2	2	5
4033677	PROB	n/a	LTP373	ltpFR2	11	n/a	n/a	n/a	28	22	8	7	7
4035110	PROB	n/a	LTP373	ltpFR2	11	n/a	n/a	n/a	28	17	8	6	3
4036476	PROB	n/a	LTP373	ltpFR2	11	n/a	n/a	n/a	28	21	7	8	6
4038367	STOP	n/a	LTP373	ltpFR2	11	n/a	n/a	n/a	28	n/a	n/a	n/a	n/a
4041424	REC_START	n/a	LTP373	ltpFR2	11	19	n/a	n/a	n/a	n/a	0	0	0
4042281	REC_WORD	wordpools/wasnorm_wordpool_576.txt	LTP373	ltpFR2	11	19	COUNTY	389	n/a	n/a	0	0	0
4043552	REC_WORD	wordpools/wasnorm_wordpool_576.txt	LTP373	ltpFR2	11	19	PALACE	1006	n/a	n/a	0	0	0
4044888	REC_WORD	wordpools/wasnorm_wordpool_576.txt	LTP373	ltpFR2	11	19	PLAZA	1088	n/a	n/a	0	0	0
4046118	REC_WORD	wordpools/wasnorm_wordpool_576.txt	LTP373	ltpFR2	11	19	SHELTER	1282	n/a	n/a	0	0	0
4064688	REC_WORD	wordpools/wasnorm_wordpool_576.txt	LTP373	ltpFR2	11	19	SUSPECT	1415	n/a	n/a	0	0	0
4069304	REC_WORD	wordpools/wasnorm_wordpool_576.txt	LTP373	ltpFR2	11	19	TOMB	1477	n/a	n/a	0	0	0
4074363	REC_WORD	wordpools/wasnorm_wordpool_576.txt	LTP373	ltpFR2	11	19	GRAVE	658	n/a	n/a	0	0	0
4111114	REC_WORD	wordpools/wasnorm_wordpool_576.txt	LTP373	ltpFR2	11	19	OYSTER	995	n/a	n/a	0	0	0
4131849	DISTRACTOR	n/a	LTP373	ltpFR2	11	20	n/a	n/a	n/a	n/a	0	0	0
4131849	START	n/a	LTP373	ltpFR2	11	n/a	n/a	n/a	29	n/a	n/a	n/a	n/a
4131866	PROB	n/a	LTP373	ltpFR2	11	n/a	n/a	n/a	29	16	2	7	7
4133632	PROB	n/a	LTP373	ltpFR2	11	n/a	n/a	n/a	29	11	8	1	2
4135431	PROB	n/a	LTP373	ltpFR2	11	n/a	n/a	n/a	29	24	9	6	9
4137164	PROB	n/a	LTP373	ltpFR2	11	n/a	n/a	n/a	29	19	6	7	6
4138796	PROB	n/a	LTP373	ltpFR2	11	n/a	n/a	n/a	29	11	1	9	1
4139962	PROB	n/a	LTP373	ltpFR2	11	n/a	n/a	n/a	29	13	4	8	7
4141695	PROB	n/a	LTP373	ltpFR2	11	n/a	n/a	n/a	29	18	8	6	4
4143011	PROB	n/a	LTP373	ltpFR2	11	n/a	n/a	n/a	29	10	5	3	2
4144278	PROB	n/a	LTP373	ltpFR2	11	n/a	n/a	n/a	29	13	5	6	2
4146327	PROB	n/a	LTP373	ltpFR2	11	n/a	n/a	n/a	29	15	1	5	9
4147659	PROB	n/a	LTP373	ltpFR2	11	n/a	n/a	n/a	29	20	3	9	8
4149458	PROB	n/a	LTP373	ltpFR2	11	n/a	n/a	n/a	29	18	8	6	4
4150824	PROB	n/a	LTP373	ltpFR2	11	n/a	n/a	n/a	29	18	7	7	4
4153523	PROB	n/a	LTP373	ltpFR2	11	n/a	n/a	n/a	29	13	7	5	1
4155098	STOP	n/a	LTP373	ltpFR2	11	n/a	n/a	n/a	29	n/a	n/a	n/a	n/a
4156921	WORD	wordpools/wasnorm_wordpool_576.txt	LTP373	ltpFR2	11	20	TUTU	1524	n/a	n/a	0	0	0
4159387	WORD	wordpools/wasnorm_wordpool_576.txt	LTP373	ltpFR2	11	20	DANCER	437	n/a	n/a	0	0	0
4161969	WORD	wordpools/wasnorm_wordpool_576.txt	LTP373	ltpFR2	11	20	SHOVEL	1295	n/a	n/a	0	0	0
4164718	WORD	wordpools/wasnorm_wordpool_576.txt	LTP373	ltpFR2	11	20	WHISKERS	1605	n/a	n/a	0	0	0
4167383	WORD	wordpools/wasnorm_wordpool_576.txt	LTP373	ltpFR2	11	20	GLOVE	642	n/a	n/a	0	0	0
4170182	WORD	wordpools/wasnorm_wordpool_576.txt	LTP373	ltpFR2	11	20	PANTHER	1009	n/a	n/a	0	0	0
4172881	WORD	wordpools/wasnorm_wordpool_576.txt	LTP373	ltpFR2	11	20	HUSBAND	728	n/a	n/a	0	0	0
4175346	WORD	wordpools/wasnorm_wordpool_576.txt	LTP373	ltpFR2	11	20	CELLAR	267	n/a	n/a	0	0	0
4178062	WORD	wordpools/wasnorm_wordpool_576.txt	LTP373	ltpFR2	11	20	BARREL	91	n/a	n/a	0	0	0
4180560	WORD	wordpools/wasnorm_wordpool_576.txt	LTP373	ltpFR2	11	20	MARS	873	n/a	n/a	0	0	0
4183243	WORD	wordpools/wasnorm_wordpool_576.txt	LTP373	ltpFR2	11	20	WRENCH	1625	n/a	n/a	0	0	0
4185825	WORD	wordpools/wasnorm_wordpool_576.txt	LTP373	ltpFR2	11	20	FINGER	567	n/a	n/a	0	0	0
4188540	WORD	wordpools/wasnorm_wordpool_576.txt	LTP373	ltpFR2	11	20	RABBIT	1152	n/a	n/a	0	0	0
4191257	WORD	wordpools/wasnorm_wordpool_576.txt	LTP373	ltpFR2	11	20	BASEMENT	94	n/a	n/a	0	0	0
4193821	WORD	wordpools/wasnorm_wordpool_576.txt	LTP373	ltpFR2	11	20	SCISSORS	1250	n/a	n/a	0	0	0
4196553	WORD	wordpools/wasnorm_wordpool_576.txt	LTP373	ltpFR2	11	20	AGENT	10	n/a	n/a	0	0	0
4199135	WORD	wordpools/wasnorm_wordpool_576.txt	LTP373	ltpFR2	11	20	PARENT	1013	n/a	n/a	0	0	0
4201901	WORD	wordpools/wasnorm_wordpool_576.txt	LTP373	ltpFR2	11	20	CHILD	299	n/a	n/a	0	0	0
4204683	WORD	wordpools/wasnorm_wordpool_576.txt	LTP373	ltpFR2	11	20	MARKET	871	n/a	n/a	0	0	0
4207498	WORD	wordpools/wasnorm_wordpool_576.txt	LTP373	ltpFR2	11	20	PERCH	1048	n/a	n/a	0	0	0
4210214	WORD	wordpools/wasnorm_wordpool_576.txt	LTP373	ltpFR2	11	20	COIN	343	n/a	n/a	0	0	0
4212779	WORD	wordpools/wasnorm_wordpool_576.txt	LTP373	ltpFR2	11	20	MILDEW	893	n/a	n/a	0	0	0
4215345	WORD	wordpools/wasnorm_wordpool_576.txt	LTP373	ltpFR2	11	20	SUNRISE	1407	n/a	n/a	0	0	0
4218027	WORD	wordpools/wasnorm_wordpool_576.txt	LTP373	ltpFR2	11	20	ORANGE	980	n/a	n/a	0	0	0
4219643	START	n/a	LTP373	ltpFR2	11	n/a	n/a	n/a	30	n/a	n/a	n/a	n/a
4220673	DISTRACTOR	n/a	LTP373	ltpFR2	11	20	n/a	n/a	n/a	n/a	0	0	0
4220676	PROB	n/a	LTP373	ltpFR2	11	n/a	n/a	n/a	30	14	7	2	5
4222641	PROB	n/a	LTP373	ltpFR2	11	n/a	n/a	n/a	30	16	2	7	7
