onset	duration	trial_type	sample	stim_file	subject	experiment	session	trial	task	item_name	item_num	recog_resp	recog_conf	resp	answer	test_x	test_y	test_z	color_r	color_g	color_b	case	font
231.87	n/a	SESS_START	115935	n/a	LTP070	ltpFR	8	n/a	n/a	n/a	n/a	1	3	n/a	n/a	0	0	0	n/a	n/a	n/a	n/a	n/a
283.692	n/a	START	141846	n/a	LTP070	ltpFR	8	n/a	n/a	n/a	n/a	n/a	n/a	n/a	n/a	n/a	n/a	n/a	n/a	n/a	n/a	n/a	n/a
283.716	n/a	PROB	141858	n/a	LTP070	ltpFR	8	n/a	n/a	n/a	n/a	n/a	n/a	n/a	10	3	4	3	n/a	n/a	n/a	n/a	n/a
287.368	n/a	PROB	143684	n/a	LTP070	ltpFR	8	n/a	n/a	n/a	n/a	n/a	n/a	n/a	20	7	9	4	n/a	n/a	n/a	n/a	n/a
290.168	n/a	PROB	145084	n/a	LTP070	ltpFR	8	n/a	n/a	n/a	n/a	n/a	n/a	n/a	14	2	4	8	n/a	n/a	n/a	n/a	n/a
292.618	n/a	PROB	146309	n/a	LTP070	ltpFR	8	n/a	n/a	n/a	n/a	n/a	n/a	n/a	20	8	7	5	n/a	n/a	n/a	n/a	n/a
294.866	n/a	PROB	147433	n/a	LTP070	ltpFR	8	n/a	n/a	n/a	n/a	n/a	n/a	n/a	14	4	3	7	n/a	n/a	n/a	n/a	n/a
296.95	n/a	PROB	148475	n/a	LTP070	ltpFR	8	n/a	n/a	n/a	n/a	n/a	n/a	n/a	19	8	4	7	n/a	n/a	n/a	n/a	n/a
299.25	n/a	PROB	149625	n/a	LTP070	ltpFR	8	n/a	n/a	n/a	n/a	n/a	n/a	n/a	11	3	6	2	n/a	n/a	n/a	n/a	n/a
303.694	n/a	STOP	151847	n/a	LTP070	ltpFR	8	n/a	n/a	n/a	n/a	n/a	n/a	n/a	n/a	n/a	n/a	n/a	n/a	n/a	n/a	n/a	n/a
379.456	n/a	WORD	189728	wordpools/wasnorm_wordpool.txt	LTP070	ltpFR	8	1	0	SINK	1309	0	n/a	1	n/a	0	0	0	0.422607421875	0.5869140625	0	upper	zerothre.ttf
383.656	n/a	WORD	191828	wordpools/wasnorm_wordpool.txt	LTP070	ltpFR	8	1	0	FOUNTAIN	597	n/a	n/a	1	n/a	0	0	0	0.422607421875	0.5869140625	0	upper	zerothre.ttf
387.798	n/a	WORD	193899	wordpools/wasnorm_wordpool.txt	LTP070	ltpFR	8	1	0	RADIO	1157	n/a	n/a	1	n/a	0	0	0	0.422607421875	0.5869140625	0	upper	zerothre.ttf
391.788	n/a	WORD	195894	wordpools/wasnorm_wordpool.txt	LTP070	ltpFR	8	1	0	STEREO	1378	n/a	n/a	1	n/a	0	0	0	0.422607421875	0.5869140625	0	upper	zerothre.ttf
395.688	n/a	WORD	197844	wordpools/wasnorm_wordpool.txt	LTP070	ltpFR	8	1	0	DESK	452	n/a	n/a	1	n/a	0	0	0	0.422607421875	0.5869140625	0	upper	zerothre.ttf
399.788	n/a	WORD	199894	wordpools/wasnorm_wordpool.txt	LTP070	ltpFR	8	1	0	BRICK	172	n/a	n/a	0	n/a	0	0	0	0.422607421875	0.5869140625	0	upper	zerothre.ttf
403.972	n/a	WORD	201986	wordpools/wasnorm_wordpool.txt	LTP070	ltpFR	8	1	0	TOWER	1490	n/a	n/a	1	n/a	0	0	0	0.422607421875	0.5869140625	0	upper	zerothre.ttf
408.14	n/a	WORD	204070	wordpools/wasnorm_wordpool.txt	LTP070	ltpFR	8	1	0	OCEAN	970	n/a	n/a	1	n/a	0	0	0	0.422607421875	0.5869140625	0	upper	zerothre.ttf
412.048	n/a	WORD	206024	wordpools/wasnorm_wordpool.txt	LTP070	ltpFR	8	1	0	LOBSTER	837	n/a	n/a	0	n/a	0	0	0	0.422607421875	0.5869140625	0	upper	zerothre.ttf
415.914	n/a	WORD	207957	wordpools/wasnorm_wordpool.txt	LTP070	ltpFR	8	1	0	RUNNER	1218	n/a	n/a	1	n/a	0	0	0	0.422607421875	0.5869140625	0	upper	zerothre.ttf
419.98	n/a	WORD	209990	wordpools/wasnorm_wordpool.txt	LTP070	ltpFR	8	1	0	ORANGE	980	n/a	n/a	0	n/a	0	0	0	0.422607421875	0.5869140625	0	upper	zerothre.ttf
424.006	n/a	WORD	212003	wordpools/wasnorm_wordpool.txt	LTP070	ltpFR	8	1	0	CHAIR	274	n/a	n/a	1	n/a	0	0	0	0.422607421875	0.5869140625	0	upper	zerothre.ttf
428.106	n/a	WORD	214053	wordpools/wasnorm_wordpool.txt	LTP070	ltpFR	8	1	0	UNDERWEAR	1537	n/a	n/a	0	n/a	0	0	0	0.422607421875	0.5869140625	0	upper	zerothre.ttf
432.114	n/a	WORD	216057	wordpools/wasnorm_wordpool.txt	LTP070	ltpFR	8	1	0	DINNER	468	n/a	n/a	1	n/a	0	0	0	0.422607421875	0.5869140625	0	upper	zerothre.ttf
435.948	n/a	WORD	217974	wordpools/wasnorm_wordpool.txt	LTP070	ltpFR	8	1	0	SHEARS	1276	n/a	n/a	0	n/a	0	0	0	0.422607421875	0.5869140625	0	upper	zerothre.ttf
439.88	n/a	WORD	219940	wordpools/wasnorm_wordpool.txt	LTP070	ltpFR	8	1	0	LINEN	825	n/a	n/a	0	n/a	0	0	0	0.422607421875	0.5869140625	0	upper	zerothre.ttf
442.888	n/a	START	221444	n/a	LTP070	ltpFR	8	n/a	n/a	n/a	n/a	n/a	n/a	n/a	n/a	n/a	n/a	n/a	n/a	n/a	n/a	n/a	n/a
444.046	n/a	PROB	222023	n/a	LTP070	ltpFR	8	n/a	n/a	n/a	n/a	n/a	n/a	n/a	10	4	5	1	n/a	n/a	n/a	n/a	n/a
446.204	n/a	PROB	223102	n/a	LTP070	ltpFR	8	n/a	n/a	n/a	n/a	n/a	n/a	n/a	15	5	9	1	n/a	n/a	n/a	n/a	n/a
450.888	n/a	STOP	225444	n/a	LTP070	ltpFR	8	n/a	n/a	n/a	n/a	n/a	n/a	n/a	n/a	n/a	n/a	n/a	n/a	n/a	n/a	n/a	n/a
452.788	n/a	REC_START	226394	n/a	LTP070	ltpFR	8	1	n/a	n/a	n/a	n/a	n/a	n/a	n/a	0	0	0	n/a	n/a	n/a	n/a	n/a
454.28	n/a	REC_WORD	227140	wordpools/wasnorm_wordpool.txt	LTP070	ltpFR	8	1	0	SHEARS	1276	n/a	n/a	0	n/a	0	0	0	n/a	n/a	n/a	n/a	n/a
456.71	n/a	REC_WORD	228355	wordpools/wasnorm_wordpool.txt	LTP070	ltpFR	8	1	0	UNDERWEAR	1537	n/a	n/a	0	n/a	0	0	0	n/a	n/a	n/a	n/a	n/a
458.51	n/a	REC_WORD	229255	wordpools/wasnorm_wordpool.txt	LTP070	ltpFR	8	1	0	LINEN	825	n/a	n/a	0	n/a	0	0	0	n/a	n/a	n/a	n/a	n/a
460.914	n/a	REC_WORD	230457	wordpools/wasnorm_wordpool.txt	LTP070	ltpFR	8	1	0	BRICK	172	n/a	n/a	0	n/a	0	0	0	n/a	n/a	n/a	n/a	n/a
462.91	n/a	REC_WORD	231455	wordpools/wasnorm_wordpool.txt	LTP070	ltpFR	8	1	0	OCEAN	970	n/a	n/a	1	n/a	0	0	0	n/a	n/a	n/a	n/a	n/a
464.742	n/a	REC_WORD	232371	wordpools/wasnorm_wordpool.txt	LTP070	ltpFR	8	1	0	RUNNER	1218	n/a	n/a	1	n/a	0	0	0	n/a	n/a	n/a	n/a	n/a
466.662	n/a	REC_WORD	233331	wordpools/wasnorm_wordpool.txt	LTP070	ltpFR	8	1	0	ORANGE	980	n/a	n/a	0	n/a	0	0	0	n/a	n/a	n/a	n/a	n/a
477.708	n/a	REC_WORD	238854	wordpools/wasnorm_wordpool.txt	LTP070	ltpFR	8	1	0	TOWER	1490	n/a	n/a	1	n/a	0	0	0	n/a	n/a	n/a	n/a	n/a
488.882	n/a	REC_WORD	244441	wordpools/wasnorm_wordpool.txt	LTP070	ltpFR	8	1	0	RADIO	1157	n/a	n/a	1	n/a	0	0	0	n/a	n/a	n/a	n/a	n/a
490.394	n/a	REC_WORD	245197	wordpools/wasnorm_wordpool.txt	LTP070	ltpFR	8	1	0	STEREO	1378	n/a	n/a	1	n/a	0	0	0	n/a	n/a	n/a	n/a	n/a
504.668	n/a	REC_WORD	252334	wordpools/wasnorm_wordpool.txt	LTP070	ltpFR	8	1	0	DESK	452	n/a	n/a	1	n/a	0	0	0	n/a	n/a	n/a	n/a	n/a
506.104	n/a	REC_WORD	253052	wordpools/wasnorm_wordpool.txt	LTP070	ltpFR	8	1	0	CHAIR	274	n/a	n/a	1	n/a	0	0	0	n/a	n/a	n/a	n/a	n/a
534.97	n/a	START	267485	n/a	LTP070	ltpFR	8	n/a	n/a	n/a	n/a	n/a	n/a	n/a	n/a	n/a	n/a	n/a	n/a	n/a	n/a	n/a	n/a
536.478	n/a	PROB	268239	n/a	LTP070	ltpFR	8	n/a	n/a	n/a	n/a	n/a	n/a	n/a	18	9	6	3	n/a	n/a	n/a	n/a	n/a
539.486	n/a	PROB	269743	n/a	LTP070	ltpFR	8	n/a	n/a	n/a	n/a	n/a	n/a	n/a	9	2	2	5	n/a	n/a	n/a	n/a	n/a
541.614	n/a	STOP	270807	n/a	LTP070	ltpFR	8	n/a	n/a	n/a	n/a	n/a	n/a	n/a	n/a	n/a	n/a	n/a	n/a	n/a	n/a	n/a	n/a
544.11	n/a	WORD	272055	wordpools/wasnorm_wordpool.txt	LTP070	ltpFR	8	2	1	KNOT	788	n/a	n/a	0	n/a	0	0	0	0.57763671875	0.412841796875	1	lower	amplitud.ttf
547.112	n/a	START	273556	n/a	LTP070	ltpFR	8	n/a	n/a	n/a	n/a	n/a	n/a	n/a	n/a	n/a	n/a	n/a	n/a	n/a	n/a	n/a	n/a
548.16	n/a	PROB	274080	n/a	LTP070	ltpFR	8	n/a	n/a	n/a	n/a	n/a	n/a	n/a	17	9	4	4	n/a	n/a	n/a	n/a	n/a
550.91	n/a	PROB	275455	n/a	LTP070	ltpFR	8	n/a	n/a	n/a	n/a	n/a	n/a	n/a	27	9	9	9	n/a	n/a	n/a	n/a	n/a
555.112	n/a	STOP	277556	n/a	LTP070	ltpFR	8	n/a	n/a	n/a	n/a	n/a	n/a	n/a	n/a	n/a	n/a	n/a	n/a	n/a	n/a	n/a	n/a
556.17	n/a	WORD	278085	wordpools/wasnorm_wordpool.txt	LTP070	ltpFR	8	2	1	SCARF	1246	n/a	n/a	0	n/a	0	0	0	0.57763671875	0.412841796875	1	lower	amplitud.ttf
559.178	n/a	START	279589	n/a	LTP070	ltpFR	8	n/a	n/a	n/a	n/a	n/a	n/a	n/a	n/a	n/a	n/a	n/a	n/a	n/a	n/a	n/a	n/a
560.328	n/a	PROB	280164	n/a	LTP070	ltpFR	8	n/a	n/a	n/a	n/a	n/a	n/a	n/a	18	8	6	4	n/a	n/a	n/a	n/a	n/a
562.252	n/a	PROB	281126	n/a	LTP070	ltpFR	8	n/a	n/a	n/a	n/a	n/a	n/a	n/a	8	2	4	2	n/a	n/a	n/a	n/a	n/a
563.826	n/a	PROB	281913	n/a	LTP070	ltpFR	8	n/a	n/a	n/a	n/a	n/a	n/a	n/a	18	9	5	4	n/a	n/a	n/a	n/a	n/a
565.846	n/a	STOP	282923	n/a	LTP070	ltpFR	8	n/a	n/a	n/a	n/a	n/a	n/a	n/a	n/a	n/a	n/a	n/a	n/a	n/a	n/a	n/a	n/a
568.236	n/a	WORD	284118	wordpools/wasnorm_wordpool.txt	LTP070	ltpFR	8	2	1	CALENDAR	221	n/a	n/a	0	n/a	0	0	0	0.57763671875	0.412841796875	1	lower	amplitud.ttf
571.244	n/a	START	285622	n/a	LTP070	ltpFR	8	n/a	n/a	n/a	n/a	n/a	n/a	n/a	n/a	n/a	n/a	n/a	n/a	n/a	n/a	n/a	n/a
572.068	n/a	PROB	286034	n/a	LTP070	ltpFR	8	n/a	n/a	n/a	n/a	n/a	n/a	n/a	8	1	1	6	n/a	n/a	n/a	n/a	n/a
573.468	n/a	PROB	286734	n/a	LTP070	ltpFR	8	n/a	n/a	n/a	n/a	n/a	n/a	n/a	17	5	8	3	n/a	n/a	n/a	n/a	n/a
575.852	n/a	PROB	287926	n/a	LTP070	ltpFR	8	n/a	n/a	n/a	n/a	n/a	n/a	n/a	11	3	1	7	n/a	n/a	n/a	n/a	n/a
578.16	n/a	STOP	289080	n/a	LTP070	ltpFR	8	n/a	n/a	n/a	n/a	n/a	n/a	n/a	n/a	n/a	n/a	n/a	n/a	n/a	n/a	n/a	n/a
580.236	n/a	WORD	290118	wordpools/wasnorm_wordpool.txt	LTP070	ltpFR	8	2	1	FRECKLE	602	n/a	n/a	0	n/a	0	0	0	0.57763671875	0.412841796875	1	lower	amplitud.ttf
583.244	n/a	START	291622	n/a	LTP070	ltpFR	8	n/a	n/a	n/a	n/a	n/a	n/a	n/a	n/a	n/a	n/a	n/a	n/a	n/a	n/a	n/a	n/a
584.386	n/a	PROB	292193	n/a	LTP070	ltpFR	8	n/a	n/a	n/a	n/a	n/a	n/a	n/a	15	5	6	4	n/a	n/a	n/a	n/a	n/a
586.784	n/a	PROB	293392	n/a	LTP070	ltpFR	8	n/a	n/a	n/a	n/a	n/a	n/a	n/a	12	3	4	5	n/a	n/a	n/a	n/a	n/a
588.994	n/a	PROB	294497	n/a	LTP070	ltpFR	8	n/a	n/a	n/a	n/a	n/a	n/a	n/a	18	9	1	8	n/a	n/a	n/a	n/a	n/a
590.79	n/a	STOP	295395	n/a	LTP070	ltpFR	8	n/a	n/a	n/a	n/a	n/a	n/a	n/a	n/a	n/a	n/a	n/a	n/a	n/a	n/a	n/a	n/a
592.342	n/a	WORD	296171	wordpools/wasnorm_wordpool.txt	LTP070	ltpFR	8	2	1	TILE	1468	n/a	n/a	0	n/a	0	0	0	0.57763671875	0.412841796875	1	lower	amplitud.ttf
595.344	n/a	START	297672	n/a	LTP070	ltpFR	8	n/a	n/a	n/a	n/a	n/a	n/a	n/a	n/a	n/a	n/a	n/a	n/a	n/a	n/a	n/a	n/a
596.402	n/a	PROB	298201	n/a	LTP070	ltpFR	8	n/a	n/a	n/a	n/a	n/a	n/a	n/a	18	8	4	6	n/a	n/a	n/a	n/a	n/a
598.202	n/a	PROB	299101	n/a	LTP070	ltpFR	8	n/a	n/a	n/a	n/a	n/a	n/a	n/a	14	4	7	3	n/a	n/a	n/a	n/a	n/a
600.46	n/a	PROB	300230	n/a	LTP070	ltpFR	8	n/a	n/a	n/a	n/a	n/a	n/a	n/a	19	8	4	7	n/a	n/a	n/a	n/a	n/a
602.656	n/a	STOP	301328	n/a	LTP070	ltpFR	8	n/a	n/a	n/a	n/a	n/a	n/a	n/a	n/a	n/a	n/a	n/a	n/a	n/a	n/a	n/a	n/a
604.192	n/a	WORD	302096	wordpools/wasnorm_wordpool.txt	LTP070	ltpFR	8	2	1	SHINGLE	1285	n/a	n/a	0	n/a	0	0	0	0.57763671875	0.412841796875	1	lower	amplitud.ttf
607.202	n/a	START	303601	n/a	LTP070	ltpFR	8	n/a	n/a	n/a	n/a	n/a	n/a	n/a	n/a	n/a	n/a	n/a	n/a	n/a	n/a	n/a	n/a
608.16	n/a	PROB	304080	n/a	LTP070	ltpFR	8	n/a	n/a	n/a	n/a	n/a	n/a	n/a	16	2	5	9	n/a	n/a	n/a	n/a	n/a
610.192	n/a	PROB	305096	n/a	LTP070	ltpFR	8	n/a	n/a	n/a	n/a	n/a	n/a	n/a	13	3	5	5	n/a	n/a	n/a	n/a	n/a
611.984	n/a	PROB	305992	n/a	LTP070	ltpFR	8	n/a	n/a	n/a	n/a	n/a	n/a	n/a	10	1	3	6	n/a	n/a	n/a	n/a	n/a
613.696	n/a	STOP	306848	n/a	LTP070	ltpFR	8	n/a	n/a	n/a	n/a	n/a	n/a	n/a	n/a	n/a	n/a	n/a	n/a	n/a	n/a	n/a	n/a
616.034	n/a	WORD	308017	wordpools/wasnorm_wordpool.txt	LTP070	ltpFR	8	2	1	LAGOON	795	n/a	n/a	0	n/a	0	0	0	0.57763671875	0.412841796875	1	lower	amplitud.ttf
619.044	n/a	START	309522	n/a	LTP070	ltpFR	8	n/a	n/a	n/a	n/a	n/a	n/a	n/a	n/a	n/a	n/a	n/a	n/a	n/a	n/a	n/a	n/a
620.06	n/a	PROB	310030	n/a	LTP070	ltpFR	8	n/a	n/a	n/a	n/a	n/a	n/a	n/a	22	9	6	7	n/a	n/a	n/a	n/a	n/a
627.044	n/a	STOP	313522	n/a	LTP070	ltpFR	8	n/a	n/a	n/a	n/a	n/a	n/a	n/a	n/a	n/a	n/a	n/a	n/a	n/a	n/a	n/a	n/a
628.068	n/a	WORD	314034	wordpools/wasnorm_wordpool.txt	LTP070	ltpFR	8	2	1	CRICKET	408	n/a	n/a	1	n/a	0	0	0	0.57763671875	0.412841796875	1	lower	amplitud.ttf
631.076	n/a	START	315538	n/a	LTP070	ltpFR	8	n/a	n/a	n/a	n/a	n/a	n/a	n/a	n/a	n/a	n/a	n/a	n/a	n/a	n/a	n/a	n/a
632.016	n/a	PROB	316008	n/a	LTP070	ltpFR	8	n/a	n/a	n/a	n/a	n/a	n/a	n/a	10	1	3	6	n/a	n/a	n/a	n/a	n/a
633.6	n/a	PROB	316800	n/a	LTP070	ltpFR	8	n/a	n/a	n/a	n/a	n/a	n/a	n/a	11	3	6	2	n/a	n/a	n/a	n/a	n/a
636.316	n/a	PROB	318158	n/a	LTP070	ltpFR	8	n/a	n/a	n/a	n/a	n/a	n/a	n/a	20	8	9	3	n/a	n/a	n/a	n/a	n/a
638.69	n/a	STOP	319345	n/a	LTP070	ltpFR	8	n/a	n/a	n/a	n/a	n/a	n/a	n/a	n/a	n/a	n/a	n/a	n/a	n/a	n/a	n/a	n/a
639.9	n/a	WORD	319950	wordpools/wasnorm_wordpool.txt	LTP070	ltpFR	8	2	1	MOTH	920	n/a	n/a	1	n/a	0	0	0	0.57763671875	0.412841796875	1	lower	amplitud.ttf
642.908	n/a	START	321454	n/a	LTP070	ltpFR	8	n/a	n/a	n/a	n/a	n/a	n/a	n/a	n/a	n/a	n/a	n/a	n/a	n/a	n/a	n/a	n/a
643.774	n/a	PROB	321887	n/a	LTP070	ltpFR	8	n/a	n/a	n/a	n/a	n/a	n/a	n/a	19	6	4	9	n/a	n/a	n/a	n/a	n/a
645.824	n/a	PROB	322912	n/a	LTP070	ltpFR	8	n/a	n/a	n/a	n/a	n/a	n/a	n/a	18	1	9	8	n/a	n/a	n/a	n/a	n/a
647.708	n/a	PROB	323854	n/a	LTP070	ltpFR	8	n/a	n/a	n/a	n/a	n/a	n/a	n/a	15	4	2	9	n/a	n/a	n/a	n/a	n/a
649.562	n/a	STOP	324781	n/a	LTP070	ltpFR	8	n/a	n/a	n/a	n/a	n/a	n/a	n/a	n/a	n/a	n/a	n/a	n/a	n/a	n/a	n/a	n/a
652.034	n/a	WORD	326017	wordpools/wasnorm_wordpool.txt	LTP070	ltpFR	8	2	1	ELEPHANT	523	n/a	n/a	1	n/a	0	0	0	0.57763671875	0.412841796875	1	lower	amplitud.ttf
655.042	n/a	START	327521	n/a	LTP070	ltpFR	8	n/a	n/a	n/a	n/a	n/a	n/a	n/a	n/a	n/a	n/a	n/a	n/a	n/a	n/a	n/a	n/a
656.092	n/a	PROB	328046	n/a	LTP070	ltpFR	8	n/a	n/a	n/a	n/a	n/a	n/a	n/a	15	9	3	3	n/a	n/a	n/a	n/a	n/a
658.35	n/a	PROB	329175	n/a	LTP070	ltpFR	8	n/a	n/a	n/a	n/a	n/a	n/a	n/a	20	4	7	9	n/a	n/a	n/a	n/a	n/a
660.758	n/a	PROB	330379	n/a	LTP070	ltpFR	8	n/a	n/a	n/a	n/a	n/a	n/a	n/a	18	2	8	8	n/a	n/a	n/a	n/a	n/a
662.73	n/a	STOP	331365	n/a	LTP070	ltpFR	8	n/a	n/a	n/a	n/a	n/a	n/a	n/a	n/a	n/a	n/a	n/a	n/a	n/a	n/a	n/a	n/a
664.216	n/a	WORD	332108	wordpools/wasnorm_wordpool.txt	LTP070	ltpFR	8	2	1	BLOSSOM	138	n/a	n/a	1	n/a	0	0	0	0.57763671875	0.412841796875	1	lower	amplitud.ttf
667.226	n/a	START	333613	n/a	LTP070	ltpFR	8	n/a	n/a	n/a	n/a	n/a	n/a	n/a	n/a	n/a	n/a	n/a	n/a	n/a	n/a	n/a	n/a
668.092	n/a	PROB	334046	n/a	LTP070	ltpFR	8	n/a	n/a	n/a	n/a	n/a	n/a	n/a	16	3	4	9	n/a	n/a	n/a	n/a	n/a
670.774	n/a	PROB	335387	n/a	LTP070	ltpFR	8	n/a	n/a	n/a	n/a	n/a	n/a	n/a	13	1	3	9	n/a	n/a	n/a	n/a	n/a
675.224	n/a	STOP	337612	n/a	LTP070	ltpFR	8	n/a	n/a	n/a	n/a	n/a	n/a	n/a	n/a	n/a	n/a	n/a	n/a	n/a	n/a	n/a	n/a
676.066	n/a	WORD	338033	wordpools/wasnorm_wordpool.txt	LTP070	ltpFR	8	2	1	PUMPKIN	1142	n/a	n/a	1	n/a	0	0	0	0.57763671875	0.412841796875	1	lower	amplitud.ttf
679.074	n/a	START	339537	n/a	LTP070	ltpFR	8	n/a	n/a	n/a	n/a	n/a	n/a	n/a	n/a	n/a	n/a	n/a	n/a	n/a	n/a	n/a	n/a
680.016	n/a	PROB	340008	n/a	LTP070	ltpFR	8	n/a	n/a	n/a	n/a	n/a	n/a	n/a	20	7	5	8	n/a	n/a	n/a	n/a	n/a
682.866	n/a	PROB	341433	n/a	LTP070	ltpFR	8	n/a	n/a	n/a	n/a	n/a	n/a	n/a	16	7	3	6	n/a	n/a	n/a	n/a	n/a
687.076	n/a	STOP	343538	n/a	LTP070	ltpFR	8	n/a	n/a	n/a	n/a	n/a	n/a	n/a	n/a	n/a	n/a	n/a	n/a	n/a	n/a	n/a	n/a
687.924	n/a	WORD	343962	wordpools/wasnorm_wordpool.txt	LTP070	ltpFR	8	2	1	MARINE	869	n/a	n/a	1	n/a	0	0	0	0.57763671875	0.412841796875	1	lower	amplitud.ttf
690.932	n/a	START	345466	n/a	LTP070	ltpFR	8	n/a	n/a	n/a	n/a	n/a	n/a	n/a	n/a	n/a	n/a	n/a	n/a	n/a	n/a	n/a	n/a
691.798	n/a	PROB	345899	n/a	LTP070	ltpFR	8	n/a	n/a	n/a	n/a	n/a	n/a	n/a	17	5	5	7	n/a	n/a	n/a	n/a	n/a
693.59	n/a	PROB	346795	n/a	LTP070	ltpFR	8	n/a	n/a	n/a	n/a	n/a	n/a	n/a	12	5	2	5	n/a	n/a	n/a	n/a	n/a
698.932	n/a	STOP	349466	n/a	LTP070	ltpFR	8	n/a	n/a	n/a	n/a	n/a	n/a	n/a	n/a	n/a	n/a	n/a	n/a	n/a	n/a	n/a	n/a
699.83	n/a	WORD	349915	wordpools/wasnorm_wordpool.txt	LTP070	ltpFR	8	2	1	MEADOW	881	n/a	n/a	1	n/a	0	0	0	0.57763671875	0.412841796875	1	lower	amplitud.ttf
702.84	n/a	START	351420	n/a	LTP070	ltpFR	8	n/a	n/a	n/a	n/a	n/a	n/a	n/a	n/a	n/a	n/a	n/a	n/a	n/a	n/a	n/a	n/a
703.94	n/a	PROB	351970	n/a	LTP070	ltpFR	8	n/a	n/a	n/a	n/a	n/a	n/a	n/a	14	4	9	1	n/a	n/a	n/a	n/a	n/a
705.59	n/a	PROB	352795	n/a	LTP070	ltpFR	8	n/a	n/a	n/a	n/a	n/a	n/a	n/a	19	7	5	9	n/a	n/a	n/a	n/a	n/a
707.608	n/a	PROB	353804	n/a	LTP070	ltpFR	8	n/a	n/a	n/a	n/a	n/a	n/a	n/a	19	9	1	9	n/a	n/a	n/a	n/a	n/a
710.142	n/a	STOP	355071	n/a	LTP070	ltpFR	8	n/a	n/a	n/a	n/a	n/a	n/a	n/a	n/a	n/a	n/a	n/a	n/a	n/a	n/a	n/a	n/a
711.764	n/a	WORD	355882	wordpools/wasnorm_wordpool.txt	LTP070	ltpFR	8	2	1	SKELETON	1314	n/a	n/a	0	n/a	0	0	0	0.57763671875	0.412841796875	1	lower	amplitud.ttf
714.772	n/a	START	357386	n/a	LTP070	ltpFR	8	n/a	n/a	n/a	n/a	n/a	n/a	n/a	n/a	n/a	n/a	n/a	n/a	n/a	n/a	n/a	n/a
715.682	n/a	PROB	357841	n/a	LTP070	ltpFR	8	n/a	n/a	n/a	n/a	n/a	n/a	n/a	11	7	2	2	n/a	n/a	n/a	n/a	n/a
717.506	n/a	PROB	358753	n/a	LTP070	ltpFR	8	n/a	n/a	n/a	n/a	n/a	n/a	n/a	16	1	6	9	n/a	n/a	n/a	n/a	n/a
720.698	n/a	PROB	360349	n/a	LTP070	ltpFR	8	n/a	n/a	n/a	n/a	n/a	n/a	n/a	12	2	5	5	n/a	n/a	n/a	n/a	n/a
722.358	n/a	STOP	361179	n/a	LTP070	ltpFR	8	n/a	n/a	n/a	n/a	n/a	n/a	n/a	n/a	n/a	n/a	n/a	n/a	n/a	n/a	n/a	n/a
723.682	n/a	WORD	361841	wordpools/wasnorm_wordpool.txt	LTP070	ltpFR	8	2	1	KANGAROO	768	n/a	n/a	1	n/a	0	0	0	0.57763671875	0.412841796875	1	lower	amplitud.ttf
726.682	n/a	START	363341	n/a	LTP070	ltpFR	8	n/a	n/a	n/a	n/a	n/a	n/a	n/a	n/a	n/a	n/a	n/a	n/a	n/a	n/a	n/a	n/a
727.756	n/a	PROB	363878	n/a	LTP070	ltpFR	8	n/a	n/a	n/a	n/a	n/a	n/a	n/a	10	5	4	1	n/a	n/a	n/a	n/a	n/a
729.974	n/a	PROB	364987	n/a	LTP070	ltpFR	8	n/a	n/a	n/a	n/a	n/a	n/a	n/a	18	8	2	8	n/a	n/a	n/a	n/a	n/a
732.39	n/a	PROB	366195	n/a	LTP070	ltpFR	8	n/a	n/a	n/a	n/a	n/a	n/a	n/a	14	4	3	7	n/a	n/a	n/a	n/a	n/a
734.086	n/a	STOP	367043	n/a	LTP070	ltpFR	8	n/a	n/a	n/a	n/a	n/a	n/a	n/a	n/a	n/a	n/a	n/a	n/a	n/a	n/a	n/a	n/a
736.506	n/a	REC_START	368253	n/a	LTP070	ltpFR	8	2	n/a	n/a	n/a	n/a	n/a	n/a	n/a	0	0	0	n/a	n/a	n/a	n/a	n/a
738.332	n/a	REC_WORD	369166	wordpools/wasnorm_wordpool.txt	LTP070	ltpFR	8	2	1	SKELETON	1314	n/a	n/a	0	n/a	0	0	0	n/a	n/a	n/a	n/a	n/a
741.34	n/a	REC_WORD	370670	wordpools/wasnorm_wordpool.txt	LTP070	ltpFR	8	2	1	MARINE	869	n/a	n/a	1	n/a	0	0	0	n/a	n/a	n/a	n/a	n/a
744.954	n/a	REC_WORD	372477	wordpools/wasnorm_wordpool.txt	LTP070	ltpFR	8	2	1	CRICKET	408	n/a	n/a	1	n/a	0	0	0	n/a	n/a	n/a	n/a	n/a
746.52	n/a	REC_WORD	373260	wordpools/wasnorm_wordpool.txt	LTP070	ltpFR	8	2	1	MOTH	920	n/a	n/a	1	n/a	0	0	0	n/a	n/a	n/a	n/a	n/a
751.742	n/a	REC_WORD	375871	wordpools/wasnorm_wordpool.txt	LTP070	ltpFR	8	2	1	MEADOW	881	n/a	n/a	1	n/a	0	0	0	n/a	n/a	n/a	n/a	n/a
754.302	n/a	REC_WORD	377151	wordpools/wasnorm_wordpool.txt	LTP070	ltpFR	8	2	1	KANGAROO	768	n/a	n/a	1	n/a	0	0	0	n/a	n/a	n/a	n/a	n/a
771.784	n/a	REC_WORD	385892	wordpools/wasnorm_wordpool.txt	LTP070	ltpFR	8	2	1	MARINE	869	n/a	n/a	1	n/a	0	0	0	n/a	n/a	n/a	n/a	n/a
828.246	n/a	WORD	414123	wordpools/wasnorm_wordpool.txt	LTP070	ltpFR	8	3	1	PENDULUM	1043	n/a	n/a	0	n/a	0	0	0	0.57763671875	0.412841796875	1	lower	amplitud.ttf
832.254	n/a	WORD	416127	wordpools/wasnorm_wordpool.txt	LTP070	ltpFR	8	3	1	WASP	1593	n/a	n/a	1	n/a	0	0	0	0.57763671875	0.412841796875	1	lower	amplitud.ttf
836.388	n/a	WORD	418194	wordpools/wasnorm_wordpool.txt	LTP070	ltpFR	8	3	1	VOLLEYBALL	1576	n/a	n/a	0	n/a	0	0	0	0.57763671875	0.412841796875	1	lower	amplitud.ttf
840.478	n/a	WORD	420239	wordpools/wasnorm_wordpool.txt	LTP070	ltpFR	8	3	1	ANCHOR	21	n/a	n/a	0	n/a	0	0	0	0.57763671875	0.412841796875	1	lower	amplitud.ttf
844.62	n/a	WORD	422310	wordpools/wasnorm_wordpool.txt	LTP070	ltpFR	8	3	1	MOOSE	915	n/a	n/a	1	n/a	0	0	0	0.57763671875	0.412841796875	1	lower	amplitud.ttf
848.72	n/a	WORD	424360	wordpools/wasnorm_wordpool.txt	LTP070	ltpFR	8	3	1	WIRE	1616	n/a	n/a	0	n/a	0	0	0	0.57763671875	0.412841796875	1	lower	amplitud.ttf
852.646	n/a	WORD	426323	wordpools/wasnorm_wordpool.txt	LTP070	ltpFR	8	3	1	ATHLETE	52	n/a	n/a	1	n/a	0	0	0	0.57763671875	0.412841796875	1	lower	amplitud.ttf
856.852	n/a	WORD	428426	wordpools/wasnorm_wordpool.txt	LTP070	ltpFR	8	3	1	REFEREE	1178	n/a	n/a	1	n/a	0	0	0	0.57763671875	0.412841796875	1	lower	amplitud.ttf
860.778	n/a	WORD	430389	wordpools/wasnorm_wordpool.txt	LTP070	ltpFR	8	3	1	BUFFALO	186	n/a	n/a	1	n/a	0	0	0	0.57763671875	0.412841796875	1	lower	amplitud.ttf
864.926	n/a	WORD	432463	wordpools/wasnorm_wordpool.txt	LTP070	ltpFR	8	3	1	OAR	966	n/a	n/a	0	n/a	0	0	0	0.57763671875	0.412841796875	1	lower	amplitud.ttf
868.844	n/a	WORD	434422	wordpools/wasnorm_wordpool.txt	LTP070	ltpFR	8	3	1	SARDINE	1235	n/a	n/a	1	n/a	0	0	0	0.57763671875	0.412841796875	1	lower	amplitud.ttf
872.894	n/a	WORD	436447	wordpools/wasnorm_wordpool.txt	LTP070	ltpFR	8	3	1	COD	340	n/a	n/a	1	n/a	0	0	0	0.57763671875	0.412841796875	1	lower	amplitud.ttf
877.036	n/a	WORD	438518	wordpools/wasnorm_wordpool.txt	LTP070	ltpFR	8	3	1	LANDSCAPE	799	n/a	n/a	0	n/a	0	0	0	0.57763671875	0.412841796875	1	lower	amplitud.ttf
880.868	n/a	WORD	440434	wordpools/wasnorm_wordpool.txt	LTP070	ltpFR	8	3	1	JUGGLER	763	n/a	n/a	1	n/a	0	0	0	0.57763671875	0.412841796875	1	lower	amplitud.ttf
884.884	n/a	WORD	442442	wordpools/wasnorm_wordpool.txt	LTP070	ltpFR	8	3	1	CRUMB	416	n/a	n/a	0	n/a	0	0	0	0.57763671875	0.412841796875	1	lower	amplitud.ttf
888.892	n/a	WORD	444446	wordpools/wasnorm_wordpool.txt	LTP070	ltpFR	8	3	1	CHERRY	293	n/a	n/a	1	n/a	0	0	0	0.57763671875	0.412841796875	1	lower	amplitud.ttf
891.902	n/a	START	445951	n/a	LTP070	ltpFR	8	n/a	n/a	n/a	n/a	n/a	n/a	n/a	n/a	n/a	n/a	n/a	n/a	n/a	n/a	n/a	n/a
892.836	n/a	PROB	446418	n/a	LTP070	ltpFR	8	n/a	n/a	n/a	n/a	n/a	n/a	n/a	17	1	7	9	n/a	n/a	n/a	n/a	n/a
895.27	n/a	PROB	447635	n/a	LTP070	ltpFR	8	n/a	n/a	n/a	n/a	n/a	n/a	n/a	19	5	8	7	n/a	n/a	n/a	n/a	n/a
898.152	n/a	PROB	449076	n/a	LTP070	ltpFR	8	n/a	n/a	n/a	n/a	n/a	n/a	n/a	22	9	5	8	n/a	n/a	n/a	n/a	n/a
901.202	n/a	PROB	450601	n/a	LTP070	ltpFR	8	n/a	n/a	n/a	n/a	n/a	n/a	n/a	20	7	8	5	n/a	n/a	n/a	n/a	n/a
903.552	n/a	PROB	451776	n/a	LTP070	ltpFR	8	n/a	n/a	n/a	n/a	n/a	n/a	n/a	17	5	3	9	n/a	n/a	n/a	n/a	n/a
907.902	n/a	STOP	453951	n/a	LTP070	ltpFR	8	n/a	n/a	n/a	n/a	n/a	n/a	n/a	n/a	n/a	n/a	n/a	n/a	n/a	n/a	n/a	n/a
909.752	n/a	REC_START	454876	n/a	LTP070	ltpFR	8	3	n/a	n/a	n/a	n/a	n/a	n/a	n/a	0	0	0	n/a	n/a	n/a	n/a	n/a
911.228	n/a	REC_WORD	455614	wordpools/wasnorm_wordpool.txt	LTP070	ltpFR	8	3	1	PENDULUM	1043	n/a	n/a	0	n/a	0	0	0	n/a	n/a	n/a	n/a	n/a
915.334	n/a	REC_WORD	457667	wordpools/wasnorm_wordpool.txt	LTP070	ltpFR	8	3	1	OAR	966	n/a	n/a	0	n/a	0	0	0	n/a	n/a	n/a	n/a	n/a
917.48	n/a	REC_WORD	458740	wordpools/wasnorm_wordpool.txt	LTP070	ltpFR	8	3	1	ANCHOR	21	n/a	n/a	0	n/a	0	0	0	n/a	n/a	n/a	n/a	n/a
919.644	n/a	REC_WORD	459822	wordpools/wasnorm_wordpool.txt	LTP070	ltpFR	8	3	1	ATHLETE	52	n/a	n/a	1	n/a	0	0	0	n/a	n/a	n/a	n/a	n/a
921.73	n/a	REC_WORD	460865	wordpools/wasnorm_wordpool.txt	LTP070	ltpFR	8	3	1	REFEREE	1178	n/a	n/a	1	n/a	0	0	0	n/a	n/a	n/a	n/a	n/a
924.12	n/a	REC_WORD	462060	wordpools/wasnorm_wordpool.txt	LTP070	ltpFR	8	3	1	MOOSE	915	n/a	n/a	1	n/a	0	0	0	n/a	n/a	n/a	n/a	n/a
926.31	n/a	REC_WORD	463155	wordpools/wasnorm_wordpool.txt	LTP070	ltpFR	8	3	1	BUFFALO	186	n/a	n/a	1	n/a	0	0	0	n/a	n/a	n/a	n/a	n/a
928.714	n/a	REC_WORD	464357	wordpools/wasnorm_wordpool.txt	LTP070	ltpFR	8	3	1	WASP	1593	n/a	n/a	1	n/a	0	0	0	n/a	n/a	n/a	n/a	n/a
934.408	n/a	REC_WORD	467204	wordpools/wasnorm_wordpool.txt	LTP070	ltpFR	8	3	1	LANDSCAPE	799	n/a	n/a	0	n/a	0	0	0	n/a	n/a	n/a	n/a	n/a
956.394	n/a	REC_WORD	478197	wordpools/wasnorm_wordpool.txt	LTP070	ltpFR	8	3	1	CHERRY	293	n/a	n/a	1	n/a	0	0	0	n/a	n/a	n/a	n/a	n/a
965.398	n/a	REC_WORD	482699	wordpools/wasnorm_wordpool.txt	LTP070	ltpFR	8	3	1	KNOT	788	n/a	n/a	0	n/a	0	0	0	n/a	n/a	n/a	n/a	n/a
990.95	n/a	START	495475	n/a	LTP070	ltpFR	8	n/a	n/a	n/a	n/a	n/a	n/a	n/a	n/a	n/a	n/a	n/a	n/a	n/a	n/a	n/a	n/a
992.458	n/a	PROB	496229	n/a	LTP070	ltpFR	8	n/a	n/a	n/a	n/a	n/a	n/a	n/a	9	3	5	1	n/a	n/a	n/a	n/a	n/a
994.074	n/a	PROB	497037	n/a	LTP070	ltpFR	8	n/a	n/a	n/a	n/a	n/a	n/a	n/a	9	1	3	5	n/a	n/a	n/a	n/a	n/a
996.7	n/a	PROB	498350	n/a	LTP070	ltpFR	8	n/a	n/a	n/a	n/a	n/a	n/a	n/a	19	7	6	6	n/a	n/a	n/a	n/a	n/a
998.722	n/a	STOP	499361	n/a	LTP070	ltpFR	8	n/a	n/a	n/a	n/a	n/a	n/a	n/a	n/a	n/a	n/a	n/a	n/a	n/a	n/a	n/a	n/a
1000.058	n/a	WORD	500029	wordpools/wasnorm_wordpool.txt	LTP070	ltpFR	8	4	1	COB	334	n/a	n/a	0	n/a	0	0	0	0.57763671875	0.412841796875	1	lower	amplitud.ttf
1003.066	n/a	START	501533	n/a	LTP070	ltpFR	8	n/a	n/a	n/a	n/a	n/a	n/a	n/a	n/a	n/a	n/a	n/a	n/a	n/a	n/a	n/a	n/a
1004.042	n/a	PROB	502021	n/a	LTP070	ltpFR	8	n/a	n/a	n/a	n/a	n/a	n/a	n/a	17	5	9	3	n/a	n/a	n/a	n/a	n/a
1006.774	n/a	PROB	503387	n/a	LTP070	ltpFR	8	n/a	n/a	n/a	n/a	n/a	n/a	n/a	18	8	5	6	n/a	n/a	n/a	n/a	n/a
1008.608	n/a	PROB	504304	n/a	LTP070	ltpFR	8	n/a	n/a	n/a	n/a	n/a	n/a	n/a	5	1	1	3	n/a	n/a	n/a	n/a	n/a
1010.508	n/a	STOP	505254	n/a	LTP070	ltpFR	8	n/a	n/a	n/a	n/a	n/a	n/a	n/a	n/a	n/a	n/a	n/a	n/a	n/a	n/a	n/a	n/a
1011.982	n/a	WORD	505991	wordpools/wasnorm_wordpool.txt	LTP070	ltpFR	8	4	1	BAIT	70	n/a	n/a	0	n/a	0	0	0	0.57763671875	0.412841796875	1	lower	amplitud.ttf
1014.992	n/a	START	507496	n/a	LTP070	ltpFR	8	n/a	n/a	n/a	n/a	n/a	n/a	n/a	n/a	n/a	n/a	n/a	n/a	n/a	n/a	n/a	n/a
1015.948	n/a	PROB	507974	n/a	LTP070	ltpFR	8	n/a	n/a	n/a	n/a	n/a	n/a	n/a	13	7	4	2	n/a	n/a	n/a	n/a	n/a
1019.816	n/a	PROB	509908	n/a	LTP070	ltpFR	8	n/a	n/a	n/a	n/a	n/a	n/a	n/a	6	4	1	1	n/a	n/a	n/a	n/a	n/a
1021.66	n/a	STOP	510830	n/a	LTP070	ltpFR	8	n/a	n/a	n/a	n/a	n/a	n/a	n/a	n/a	n/a	n/a	n/a	n/a	n/a	n/a	n/a	n/a
1024.058	n/a	WORD	512029	wordpools/wasnorm_wordpool.txt	LTP070	ltpFR	8	4	1	TRAITOR	1495	n/a	n/a	0	n/a	0	0	0	0.57763671875	0.412841796875	1	lower	amplitud.ttf
1027.066	n/a	START	513533	n/a	LTP070	ltpFR	8	n/a	n/a	n/a	n/a	n/a	n/a	n/a	n/a	n/a	n/a	n/a	n/a	n/a	n/a	n/a	n/a
1028.232	n/a	PROB	514116	n/a	LTP070	ltpFR	8	n/a	n/a	n/a	n/a	n/a	n/a	n/a	18	2	8	8	n/a	n/a	n/a	n/a	n/a
1029.958	n/a	PROB	514979	n/a	LTP070	ltpFR	8	n/a	n/a	n/a	n/a	n/a	n/a	n/a	11	1	1	9	n/a	n/a	n/a	n/a	n/a
1031.432	n/a	PROB	515716	n/a	LTP070	ltpFR	8	n/a	n/a	n/a	n/a	n/a	n/a	n/a	11	3	5	3	n/a	n/a	n/a	n/a	n/a
1034.356	n/a	STOP	517178	n/a	LTP070	ltpFR	8	n/a	n/a	n/a	n/a	n/a	n/a	n/a	n/a	n/a	n/a	n/a	n/a	n/a	n/a	n/a	n/a
1036.198	n/a	WORD	518099	wordpools/wasnorm_wordpool.txt	LTP070	ltpFR	8	4	1	FARMER	553	n/a	n/a	1	n/a	0	0	0	0.57763671875	0.412841796875	1	lower	amplitud.ttf
1039.208	n/a	START	519604	n/a	LTP070	ltpFR	8	n/a	n/a	n/a	n/a	n/a	n/a	n/a	n/a	n/a	n/a	n/a	n/a	n/a	n/a	n/a	n/a
1040.408	n/a	PROB	520204	n/a	LTP070	ltpFR	8	n/a	n/a	n/a	n/a	n/a	n/a	n/a	14	9	4	1	n/a	n/a	n/a	n/a	n/a
1042.432	n/a	PROB	521216	n/a	LTP070	ltpFR	8	n/a	n/a	n/a	n/a	n/a	n/a	n/a	10	7	2	1	n/a	n/a	n/a	n/a	n/a
1047.208	n/a	STOP	523604	n/a	LTP070	ltpFR	8	n/a	n/a	n/a	n/a	n/a	n/a	n/a	n/a	n/a	n/a	n/a	n/a	n/a	n/a	n/a	n/a
1048.24	n/a	WORD	524120	wordpools/wasnorm_wordpool.txt	LTP070	ltpFR	8	4	1	TAR	1435	n/a	n/a	0	n/a	0	0	0	0.57763671875	0.412841796875	1	lower	amplitud.ttf
1051.248	n/a	START	525624	n/a	LTP070	ltpFR	8	n/a	n/a	n/a	n/a	n/a	n/a	n/a	n/a	n/a	n/a	n/a	n/a	n/a	n/a	n/a	n/a
1052.424	n/a	PROB	526212	n/a	LTP070	ltpFR	8	n/a	n/a	n/a	n/a	n/a	n/a	n/a	20	9	9	2	n/a	n/a	n/a	n/a	n/a
1054.356	n/a	PROB	527178	n/a	LTP070	ltpFR	8	n/a	n/a	n/a	n/a	n/a	n/a	n/a	11	2	6	3	n/a	n/a	n/a	n/a	n/a
1057.29	n/a	PROB	528645	n/a	LTP070	ltpFR	8	n/a	n/a	n/a	n/a	n/a	n/a	n/a	4	1	2	1	n/a	n/a	n/a	n/a	n/a
1058.838	n/a	STOP	529419	n/a	LTP070	ltpFR	8	n/a	n/a	n/a	n/a	n/a	n/a	n/a	n/a	n/a	n/a	n/a	n/a	n/a	n/a	n/a	n/a
1060.232	n/a	WORD	530116	wordpools/wasnorm_wordpool.txt	LTP070	ltpFR	8	4	1	GRAVEL	659	n/a	n/a	1	n/a	0	0	0	0.57763671875	0.412841796875	1	lower	amplitud.ttf
1063.232	n/a	START	531616	n/a	LTP070	ltpFR	8	n/a	n/a	n/a	n/a	n/a	n/a	n/a	n/a	n/a	n/a	n/a	n/a	n/a	n/a	n/a	n/a
1064.074	n/a	PROB	532037	n/a	LTP070	ltpFR	8	n/a	n/a	n/a	n/a	n/a	n/a	n/a	16	8	3	5	n/a	n/a	n/a	n/a	n/a
1066.956	n/a	PROB	533478	n/a	LTP070	ltpFR	8	n/a	n/a	n/a	n/a	n/a	n/a	n/a	11	6	1	4	n/a	n/a	n/a	n/a	n/a
1071.232	n/a	STOP	535616	n/a	LTP070	ltpFR	8	n/a	n/a	n/a	n/a	n/a	n/a	n/a	n/a	n/a	n/a	n/a	n/a	n/a	n/a	n/a	n/a
1072.072	n/a	WORD	536036	wordpools/wasnorm_wordpool.txt	LTP070	ltpFR	8	4	1	PILLOW	1069	n/a	n/a	0	n/a	0	0	0	0.57763671875	0.412841796875	1	lower	amplitud.ttf
1075.082	n/a	START	537541	n/a	LTP070	ltpFR	8	n/a	n/a	n/a	n/a	n/a	n/a	n/a	n/a	n/a	n/a	n/a	n/a	n/a	n/a	n/a	n/a
1076.064	n/a	PROB	538032	n/a	LTP070	ltpFR	8	n/a	n/a	n/a	n/a	n/a	n/a	n/a	12	1	6	5	n/a	n/a	n/a	n/a	n/a
1083.082	n/a	STOP	541541	n/a	LTP070	ltpFR	8	n/a	n/a	n/a	n/a	n/a	n/a	n/a	n/a	n/a	n/a	n/a	n/a	n/a	n/a	n/a	n/a
1084.206	n/a	WORD	542103	wordpools/wasnorm_wordpool.txt	LTP070	ltpFR	8	4	1	BUYER	208	n/a	n/a	1	n/a	0	0	0	0.57763671875	0.412841796875	1	lower	amplitud.ttf
1087.214	n/a	START	543607	n/a	LTP070	ltpFR	8	n/a	n/a	n/a	n/a	n/a	n/a	n/a	n/a	n/a	n/a	n/a	n/a	n/a	n/a	n/a	n/a
1088.348	n/a	PROB	544174	n/a	LTP070	ltpFR	8	n/a	n/a	n/a	n/a	n/a	n/a	n/a	19	9	8	2	n/a	n/a	n/a	n/a	n/a
1091.222	n/a	PROB	545611	n/a	LTP070	ltpFR	8	n/a	n/a	n/a	n/a	n/a	n/a	n/a	6	1	1	4	n/a	n/a	n/a	n/a	n/a
1092.648	n/a	PROB	546324	n/a	LTP070	ltpFR	8	n/a	n/a	n/a	n/a	n/a	n/a	n/a	17	7	2	8	n/a	n/a	n/a	n/a	n/a
1094.336	n/a	STOP	547168	n/a	LTP070	ltpFR	8	n/a	n/a	n/a	n/a	n/a	n/a	n/a	n/a	n/a	n/a	n/a	n/a	n/a	n/a	n/a	n/a
1096.422	n/a	WORD	548211	wordpools/wasnorm_wordpool.txt	LTP070	ltpFR	8	4	1	TICKET	1464	n/a	n/a	0	n/a	0	0	0	0.57763671875	0.412841796875	1	lower	amplitud.ttf
1099.422	n/a	START	549711	n/a	LTP070	ltpFR	8	n/a	n/a	n/a	n/a	n/a	n/a	n/a	n/a	n/a	n/a	n/a	n/a	n/a	n/a	n/a	n/a
1100.338	n/a	PROB	550169	n/a	LTP070	ltpFR	8	n/a	n/a	n/a	n/a	n/a	n/a	n/a	20	9	4	7	n/a	n/a	n/a	n/a	n/a
1103.422	n/a	PROB	551711	n/a	LTP070	ltpFR	8	n/a	n/a	n/a	n/a	n/a	n/a	n/a	15	9	2	4	n/a	n/a	n/a	n/a	n/a
1106.296	n/a	STOP	553148	n/a	LTP070	ltpFR	8	n/a	n/a	n/a	n/a	n/a	n/a	n/a	n/a	n/a	n/a	n/a	n/a	n/a	n/a	n/a	n/a
1108.472	n/a	WORD	554236	wordpools/wasnorm_wordpool.txt	LTP070	ltpFR	8	4	1	STREAM	1392	n/a	n/a	1	n/a	0	0	0	0.57763671875	0.412841796875	1	lower	amplitud.ttf
1111.48	n/a	START	555740	n/a	LTP070	ltpFR	8	n/a	n/a	n/a	n/a	n/a	n/a	n/a	n/a	n/a	n/a	n/a	n/a	n/a	n/a	n/a	n/a
1112.656	n/a	PROB	556328	n/a	LTP070	ltpFR	8	n/a	n/a	n/a	n/a	n/a	n/a	n/a	17	8	6	3	n/a	n/a	n/a	n/a	n/a
1114.572	n/a	PROB	557286	n/a	LTP070	ltpFR	8	n/a	n/a	n/a	n/a	n/a	n/a	n/a	10	4	2	4	n/a	n/a	n/a	n/a	n/a
1118.608	n/a	STOP	559304	n/a	LTP070	ltpFR	8	n/a	n/a	n/a	n/a	n/a	n/a	n/a	n/a	n/a	n/a	n/a	n/a	n/a	n/a	n/a	n/a
1120.646	n/a	WORD	560323	wordpools/wasnorm_wordpool.txt	LTP070	ltpFR	8	4	1	INSECT	740	n/a	n/a	1	n/a	0	0	0	0.57763671875	0.412841796875	1	lower	amplitud.ttf
1123.656	n/a	START	561828	n/a	LTP070	ltpFR	8	n/a	n/a	n/a	n/a	n/a	n/a	n/a	n/a	n/a	n/a	n/a	n/a	n/a	n/a	n/a	n/a
1124.762	n/a	PROB	562381	n/a	LTP070	ltpFR	8	n/a	n/a	n/a	n/a	n/a	n/a	n/a	15	2	9	4	n/a	n/a	n/a	n/a	n/a
1126.938	n/a	PROB	563469	n/a	LTP070	ltpFR	8	n/a	n/a	n/a	n/a	n/a	n/a	n/a	11	4	2	5	n/a	n/a	n/a	n/a	n/a
1129.514	n/a	PROB	564757	n/a	LTP070	ltpFR	8	n/a	n/a	n/a	n/a	n/a	n/a	n/a	13	1	7	5	n/a	n/a	n/a	n/a	n/a
1131.41	n/a	STOP	565705	n/a	LTP070	ltpFR	8	n/a	n/a	n/a	n/a	n/a	n/a	n/a	n/a	n/a	n/a	n/a	n/a	n/a	n/a	n/a	n/a
1132.672	n/a	WORD	566336	wordpools/wasnorm_wordpool.txt	LTP070	ltpFR	8	4	1	BUTTERFLY	206	n/a	n/a	1	n/a	0	0	0	0.57763671875	0.412841796875	1	lower	amplitud.ttf
1135.68	n/a	START	567840	n/a	LTP070	ltpFR	8	n/a	n/a	n/a	n/a	n/a	n/a	n/a	n/a	n/a	n/a	n/a	n/a	n/a	n/a	n/a	n/a
1136.812	n/a	PROB	568406	n/a	LTP070	ltpFR	8	n/a	n/a	n/a	n/a	n/a	n/a	n/a	22	8	9	5	n/a	n/a	n/a	n/a	n/a
1139.388	n/a	PROB	569694	n/a	LTP070	ltpFR	8	n/a	n/a	n/a	n/a	n/a	n/a	n/a	5	2	1	2	n/a	n/a	n/a	n/a	n/a
1143.68	n/a	STOP	571840	n/a	LTP070	ltpFR	8	n/a	n/a	n/a	n/a	n/a	n/a	n/a	n/a	n/a	n/a	n/a	n/a	n/a	n/a	n/a	n/a
1144.714	n/a	WORD	572357	wordpools/wasnorm_wordpool.txt	LTP070	ltpFR	8	4	1	HAMMOCK	681	n/a	n/a	0	n/a	0	0	0	0.57763671875	0.412841796875	1	lower	amplitud.ttf
1147.72	n/a	START	573860	n/a	LTP070	ltpFR	8	n/a	n/a	n/a	n/a	n/a	n/a	n/a	n/a	n/a	n/a	n/a	n/a	n/a	n/a	n/a	n/a
1148.886	n/a	PROB	574443	n/a	LTP070	ltpFR	8	n/a	n/a	n/a	n/a	n/a	n/a	n/a	16	8	2	6	n/a	n/a	n/a	n/a	n/a
1150.804	n/a	PROB	575402	n/a	LTP070	ltpFR	8	n/a	n/a	n/a	n/a	n/a	n/a	n/a	9	4	1	4	n/a	n/a	n/a	n/a	n/a
1152.412	n/a	PROB	576206	n/a	LTP070	ltpFR	8	n/a	n/a	n/a	n/a	n/a	n/a	n/a	9	3	3	3	n/a	n/a	n/a	n/a	n/a
1155.546	n/a	STOP	577773	n/a	LTP070	ltpFR	8	n/a	n/a	n/a	n/a	n/a	n/a	n/a	n/a	n/a	n/a	n/a	n/a	n/a	n/a	n/a	n/a
1156.786	n/a	WORD	578393	wordpools/wasnorm_wordpool.txt	LTP070	ltpFR	8	4	1	SAW	1239	n/a	n/a	0	n/a	0	0	0	0.57763671875	0.412841796875	1	lower	amplitud.ttf
1159.794	n/a	START	579897	n/a	LTP070	ltpFR	8	n/a	n/a	n/a	n/a	n/a	n/a	n/a	n/a	n/a	n/a	n/a	n/a	n/a	n/a	n/a	n/a
1160.902	n/a	PROB	580451	n/a	LTP070	ltpFR	8	n/a	n/a	n/a	n/a	n/a	n/a	n/a	13	9	1	3	n/a	n/a	n/a	n/a	n/a
1164.23	n/a	PROB	582115	n/a	LTP070	ltpFR	8	n/a	n/a	n/a	n/a	n/a	n/a	n/a	17	7	6	4	n/a	n/a	n/a	n/a	n/a
1166.644	n/a	STOP	583322	n/a	LTP070	ltpFR	8	n/a	n/a	n/a	n/a	n/a	n/a	n/a	n/a	n/a	n/a	n/a	n/a	n/a	n/a	n/a	n/a
1168.894	n/a	WORD	584447	wordpools/wasnorm_wordpool.txt	LTP070	ltpFR	8	4	1	SCARECROW	1245	n/a	n/a	0	n/a	0	0	0	0.57763671875	0.412841796875	1	lower	amplitud.ttf
1171.904	n/a	START	585952	n/a	LTP070	ltpFR	8	n/a	n/a	n/a	n/a	n/a	n/a	n/a	n/a	n/a	n/a	n/a	n/a	n/a	n/a	n/a	n/a
1172.936	n/a	PROB	586468	n/a	LTP070	ltpFR	8	n/a	n/a	n/a	n/a	n/a	n/a	n/a	25	8	9	8	n/a	n/a	n/a	n/a	n/a
1175.82	n/a	PROB	587910	n/a	LTP070	ltpFR	8	n/a	n/a	n/a	n/a	n/a	n/a	n/a	16	2	6	8	n/a	n/a	n/a	n/a	n/a
1178.588	n/a	STOP	589294	n/a	LTP070	ltpFR	8	n/a	n/a	n/a	n/a	n/a	n/a	n/a	n/a	n/a	n/a	n/a	n/a	n/a	n/a	n/a	n/a
1181.07	n/a	WORD	590535	wordpools/wasnorm_wordpool.txt	LTP070	ltpFR	8	4	1	HAWK	692	n/a	n/a	1	n/a	0	0	0	0.57763671875	0.412841796875	1	lower	amplitud.ttf
1184.07	n/a	START	592035	n/a	LTP070	ltpFR	8	n/a	n/a	n/a	n/a	n/a	n/a	n/a	n/a	n/a	n/a	n/a	n/a	n/a	n/a	n/a	n/a
1185.028	n/a	PROB	592514	n/a	LTP070	ltpFR	8	n/a	n/a	n/a	n/a	n/a	n/a	n/a	16	5	2	9	n/a	n/a	n/a	n/a	n/a
1186.886	n/a	PROB	593443	n/a	LTP070	ltpFR	8	n/a	n/a	n/a	n/a	n/a	n/a	n/a	16	4	8	4	n/a	n/a	n/a	n/a	n/a
1192.07	n/a	STOP	596035	n/a	LTP070	ltpFR	8	n/a	n/a	n/a	n/a	n/a	n/a	n/a	n/a	n/a	n/a	n/a	n/a	n/a	n/a	n/a	n/a
1193.828	n/a	REC_START	596914	n/a	LTP070	ltpFR	8	4	n/a	n/a	n/a	n/a	n/a	n/a	n/a	0	0	0	n/a	n/a	n/a	n/a	n/a
1195.164	n/a	REC_WORD	597582	wordpools/wasnorm_wordpool.txt	LTP070	ltpFR	8	4	1	SAW	1239	n/a	n/a	0	n/a	0	0	0	n/a	n/a	n/a	n/a	n/a
1197.414	n/a	REC_WORD	598707	wordpools/wasnorm_wordpool.txt	LTP070	ltpFR	8	4	1	HAWK	692	n/a	n/a	1	n/a	0	0	0	n/a	n/a	n/a	n/a	n/a
1199.544	n/a	REC_WORD	599772	wordpools/wasnorm_wordpool.txt	LTP070	ltpFR	8	4	1	FARMER	553	n/a	n/a	1	n/a	0	0	0	n/a	n/a	n/a	n/a	n/a
1210.774	n/a	REC_WORD	605387	wordpools/wasnorm_wordpool.txt	LTP070	ltpFR	8	4	1	SCARECROW	1245	n/a	n/a	0	n/a	0	0	0	n/a	n/a	n/a	n/a	n/a
1217.654	n/a	REC_WORD	608827	wordpools/wasnorm_wordpool.txt	LTP070	ltpFR	8	4	1	BUTTERFLY	206	n/a	n/a	1	n/a	0	0	0	n/a	n/a	n/a	n/a	n/a
1219.286	n/a	REC_WORD	609643	wordpools/wasnorm_wordpool.txt	LTP070	ltpFR	8	4	1	INSECT	740	n/a	n/a	1	n/a	0	0	0	n/a	n/a	n/a	n/a	n/a
1265.852	n/a	REC_WORD	632926	wordpools/wasnorm_wordpool.txt	LTP070	ltpFR	8	4	1	MEADOW	881	n/a	n/a	1	n/a	0	0	0	n/a	n/a	n/a	n/a	n/a
1278.326	n/a	WORD	639163	wordpools/wasnorm_wordpool.txt	LTP070	ltpFR	8	5	1	FLANNEL	574	n/a	n/a	0	n/a	0	0	0	0.57763671875	0.412841796875	1	lower	amplitud.ttf
1282.318	n/a	WORD	641159	wordpools/wasnorm_wordpool.txt	LTP070	ltpFR	8	5	1	WAREHOUSE	1588	n/a	n/a	0	n/a	0	0	0	0.57763671875	0.412841796875	1	lower	amplitud.ttf
1286.35	n/a	WORD	643175	wordpools/wasnorm_wordpool.txt	LTP070	ltpFR	8	5	1	DOCUMENT	479	n/a	n/a	0	n/a	0	0	0	0.57763671875	0.412841796875	1	lower	amplitud.ttf
1290.318	n/a	WORD	645159	wordpools/wasnorm_wordpool.txt	LTP070	ltpFR	8	5	1	MAN	862	n/a	n/a	1	n/a	0	0	0	0.57763671875	0.412841796875	1	lower	amplitud.ttf
1294.502	n/a	WORD	647251	wordpools/wasnorm_wordpool.txt	LTP070	ltpFR	8	5	0	LEAF	808	n/a	n/a	1	n/a	0	0	0	0.422607421875	0.5869140625	0	upper	zerothre.ttf
1298.442	n/a	WORD	649221	wordpools/wasnorm_wordpool.txt	LTP070	ltpFR	8	5	0	NUN	962	n/a	n/a	1	n/a	0	0	0	0.422607421875	0.5869140625	0	upper	zerothre.ttf
1302.334	n/a	WORD	651167	wordpools/wasnorm_wordpool.txt	LTP070	ltpFR	8	5	0	JOKER	759	n/a	n/a	1	n/a	0	0	0	0.422607421875	0.5869140625	0	upper	zerothre.ttf
1306.392	n/a	WORD	653196	wordpools/wasnorm_wordpool.txt	LTP070	ltpFR	8	5	0	DICE	461	n/a	n/a	0	n/a	0	0	0	0.422607421875	0.5869140625	0	upper	zerothre.ttf
1310.424	n/a	WORD	655212	wordpools/wasnorm_wordpool.txt	LTP070	ltpFR	8	5	1	TERRITORY	1452	n/a	n/a	0	n/a	0	0	0	0.57763671875	0.412841796875	1	lower	amplitud.ttf
1314.358	n/a	WORD	657179	wordpools/wasnorm_wordpool.txt	LTP070	ltpFR	8	5	1	PREACHER	1119	n/a	n/a	1	n/a	0	0	0	0.57763671875	0.412841796875	1	lower	amplitud.ttf
1318.466	n/a	WORD	659233	wordpools/wasnorm_wordpool.txt	LTP070	ltpFR	8	5	0	GOAT	644	n/a	n/a	1	n/a	0	0	0	0.422607421875	0.5869140625	0	upper	zerothre.ttf
1322.634	n/a	WORD	661317	wordpools/wasnorm_wordpool.txt	LTP070	ltpFR	8	5	0	LAMB	797	n/a	n/a	1	n/a	0	0	0	0.422607421875	0.5869140625	0	upper	zerothre.ttf
1326.524	n/a	WORD	663262	wordpools/wasnorm_wordpool.txt	LTP070	ltpFR	8	5	0	LADY	794	n/a	n/a	1	n/a	0	0	0	0.422607421875	0.5869140625	0	upper	zerothre.ttf
1330.482	n/a	WORD	665241	wordpools/wasnorm_wordpool.txt	LTP070	ltpFR	8	5	0	SALIVA	1226	n/a	n/a	0	n/a	0	0	0	0.422607421875	0.5869140625	0	upper	zerothre.ttf
1334.65	n/a	WORD	667325	wordpools/wasnorm_wordpool.txt	LTP070	ltpFR	8	5	1	BEARD	107	n/a	n/a	0	n/a	0	0	0	0.57763671875	0.412841796875	1	lower	amplitud.ttf
1338.558	n/a	WORD	669279	wordpools/wasnorm_wordpool.txt	LTP070	ltpFR	8	5	1	TABLET	1427	n/a	n/a	0	n/a	0	0	0	0.57763671875	0.412841796875	1	lower	amplitud.ttf
1344.4	n/a	REC_START	672200	n/a	LTP070	ltpFR	8	5	n/a	n/a	n/a	n/a	n/a	n/a	n/a	0	0	0	n/a	n/a	n/a	n/a	n/a
1347.512	n/a	REC_WORD	673756	wordpools/wasnorm_wordpool.txt	LTP070	ltpFR	8	5	1	MAN	862	n/a	n/a	1	n/a	0	0	0	n/a	n/a	n/a	n/a	n/a
1349.214	n/a	REC_WORD	674607	wordpools/wasnorm_wordpool.txt	LTP070	ltpFR	8	5	0	LADY	794	n/a	n/a	1	n/a	0	0	0	n/a	n/a	n/a	n/a	n/a
1351.848	n/a	REC_WORD	675924	wordpools/wasnorm_wordpool.txt	LTP070	ltpFR	8	5	0	GOAT	644	n/a	n/a	1	n/a	0	0	0	n/a	n/a	n/a	n/a	n/a
1353.68	n/a	REC_WORD	676840	wordpools/wasnorm_wordpool.txt	LTP070	ltpFR	8	5	0	LAMB	797	n/a	n/a	1	n/a	0	0	0	n/a	n/a	n/a	n/a	n/a
1355.84	n/a	REC_WORD	677920	wordpools/wasnorm_wordpool.txt	LTP070	ltpFR	8	5	1	BEARD	107	n/a	n/a	0	n/a	0	0	0	n/a	n/a	n/a	n/a	n/a
1357.586	n/a	REC_WORD	678793	wordpools/wasnorm_wordpool.txt	LTP070	ltpFR	8	5	1	TABLET	1427	n/a	n/a	0	n/a	0	0	0	n/a	n/a	n/a	n/a	n/a
1363.102	n/a	REC_WORD	681551	wordpools/wasnorm_wordpool.txt	LTP070	ltpFR	8	5	1	PREACHER	1119	n/a	n/a	1	n/a	0	0	0	n/a	n/a	n/a	n/a	n/a
1378.524	n/a	REC_WORD	689262	wordpools/wasnorm_wordpool.txt	LTP070	ltpFR	8	5	0	LEAF	808	n/a	n/a	1	n/a	0	0	0	n/a	n/a	n/a	n/a	n/a
1379.976	n/a	REC_WORD	689988	wordpools/wasnorm_wordpool.txt	LTP070	ltpFR	8	5	0	DICE	461	n/a	n/a	0	n/a	0	0	0	n/a	n/a	n/a	n/a	n/a
1397.526	n/a	REC_WORD	698763	wordpools/wasnorm_wordpool.txt	LTP070	ltpFR	8	5	1	TERRITORY	1452	n/a	n/a	0	n/a	0	0	0	n/a	n/a	n/a	n/a	n/a
1427.58	n/a	WORD	713790	wordpools/wasnorm_wordpool.txt	LTP070	ltpFR	8	6	0	PLATE	1086	n/a	n/a	1	n/a	0	0	0	0.422607421875	0.5869140625	0	upper	zerothre.ttf
1431.698	n/a	WORD	715849	wordpools/wasnorm_wordpool.txt	LTP070	ltpFR	8	6	0	PARIS	1014	n/a	n/a	1	n/a	0	0	0	0.422607421875	0.5869140625	0	upper	zerothre.ttf
1435.556	n/a	WORD	717778	wordpools/wasnorm_wordpool.txt	LTP070	ltpFR	8	6	0	CHISEL	305	n/a	n/a	0	n/a	0	0	0	0.422607421875	0.5869140625	0	upper	zerothre.ttf
1439.672	n/a	WORD	719836	wordpools/wasnorm_wordpool.txt	LTP070	ltpFR	8	6	0	SEED	1266	n/a	n/a	0	n/a	0	0	0	0.422607421875	0.5869140625	0	upper	zerothre.ttf
1443.556	n/a	WORD	721778	wordpools/wasnorm_wordpool.txt	LTP070	ltpFR	8	6	1	SCOUT	1252	n/a	n/a	1	n/a	0	0	0	0.57763671875	0.412841796875	1	lower	amplitud.ttf
1447.406	n/a	WORD	723703	wordpools/wasnorm_wordpool.txt	LTP070	ltpFR	8	6	1	KNOB	787	n/a	n/a	0	n/a	0	0	0	0.57763671875	0.412841796875	1	lower	amplitud.ttf
1451.538	n/a	WORD	725769	wordpools/wasnorm_wordpool.txt	LTP070	ltpFR	8	6	1	SUIT	1402	n/a	n/a	0	n/a	0	0	0	0.57763671875	0.412841796875	1	lower	amplitud.ttf
1455.672	n/a	WORD	727836	wordpools/wasnorm_wordpool.txt	LTP070	ltpFR	8	6	1	TERMITE	1451	n/a	n/a	0	n/a	0	0	0	0.57763671875	0.412841796875	1	lower	amplitud.ttf
1459.656	n/a	WORD	729828	wordpools/wasnorm_wordpool.txt	LTP070	ltpFR	8	6	0	BEETLE	116	n/a	n/a	0	n/a	0	0	0	0.422607421875	0.5869140625	0	upper	zerothre.ttf
1463.588	n/a	WORD	731794	wordpools/wasnorm_wordpool.txt	LTP070	ltpFR	8	6	0	FLOWER	584	n/a	n/a	0	n/a	0	0	0	0.422607421875	0.5869140625	0	upper	zerothre.ttf
1467.58	n/a	WORD	733790	wordpools/wasnorm_wordpool.txt	LTP070	ltpFR	8	6	0	RANCH	1166	n/a	n/a	1	n/a	0	0	0	0.422607421875	0.5869140625	0	upper	zerothre.ttf
1471.736	n/a	WORD	735868	wordpools/wasnorm_wordpool.txt	LTP070	ltpFR	8	6	0	OX	994	n/a	n/a	1	n/a	0	0	0	0.422607421875	0.5869140625	0	upper	zerothre.ttf
1475.744	n/a	WORD	737872	wordpools/wasnorm_wordpool.txt	LTP070	ltpFR	8	6	1	BUTTON	207	n/a	n/a	0	n/a	0	0	0	0.57763671875	0.412841796875	1	lower	amplitud.ttf
1479.596	n/a	WORD	739798	wordpools/wasnorm_wordpool.txt	LTP070	ltpFR	8	6	1	NIECE	952	n/a	n/a	1	n/a	0	0	0	0.57763671875	0.412841796875	1	lower	amplitud.ttf
1483.488	n/a	WORD	741744	wordpools/wasnorm_wordpool.txt	LTP070	ltpFR	8	6	1	CURB	426	n/a	n/a	0	n/a	0	0	0	0.57763671875	0.412841796875	1	lower	amplitud.ttf
1487.372	n/a	WORD	743686	wordpools/wasnorm_wordpool.txt	LTP070	ltpFR	8	6	1	ELM	527	n/a	n/a	1	n/a	0	0	0	0.57763671875	0.412841796875	1	lower	amplitud.ttf
1490.38	n/a	START	745190	n/a	LTP070	ltpFR	8	n/a	n/a	n/a	n/a	n/a	n/a	n/a	n/a	n/a	n/a	n/a	n/a	n/a	n/a	n/a	n/a
1491.412	n/a	PROB	745706	n/a	LTP070	ltpFR	8	n/a	n/a	n/a	n/a	n/a	n/a	n/a	21	9	8	4	n/a	n/a	n/a	n/a	n/a
1495.388	n/a	PROB	747694	n/a	LTP070	ltpFR	8	n/a	n/a	n/a	n/a	n/a	n/a	n/a	19	5	5	9	n/a	n/a	n/a	n/a	n/a
1497.034	n/a	STOP	748517	n/a	LTP070	ltpFR	8	n/a	n/a	n/a	n/a	n/a	n/a	n/a	n/a	n/a	n/a	n/a	n/a	n/a	n/a	n/a	n/a
1500.146	n/a	REC_START	750073	n/a	LTP070	ltpFR	8	6	n/a	n/a	n/a	n/a	n/a	n/a	n/a	0	0	0	n/a	n/a	n/a	n/a	n/a
1502.096	n/a	REC_WORD	751048	wordpools/wasnorm_wordpool.txt	LTP070	ltpFR	8	6	1	NIECE	952	n/a	n/a	1	n/a	0	0	0	n/a	n/a	n/a	n/a	n/a
1504.172	n/a	REC_WORD	752086	wordpools/wasnorm_wordpool.txt	LTP070	ltpFR	8	6	1	ELM	527	n/a	n/a	1	n/a	0	0	0	n/a	n/a	n/a	n/a	n/a
1506.082	n/a	REC_WORD	753041	wordpools/wasnorm_wordpool.txt	LTP070	ltpFR	8	6	0	PARIS	1014	n/a	n/a	1	n/a	0	0	0	n/a	n/a	n/a	n/a	n/a
1508.282	n/a	REC_WORD	754141	wordpools/wasnorm_wordpool.txt	LTP070	ltpFR	8	6	0	RANCH	1166	n/a	n/a	1	n/a	0	0	0	n/a	n/a	n/a	n/a	n/a
1511.596	n/a	REC_WORD	755798	wordpools/wasnorm_wordpool.txt	LTP070	ltpFR	8	6	0	FLOWER	584	n/a	n/a	0	n/a	0	0	0	n/a	n/a	n/a	n/a	n/a
1513.336	n/a	REC_WORD	756668	wordpools/wasnorm_wordpool.txt	LTP070	ltpFR	8	6	0	BEETLE	116	n/a	n/a	0	n/a	0	0	0	n/a	n/a	n/a	n/a	n/a
1568.718	n/a	REC_WORD	784359	wordpools/wasnorm_wordpool.txt	LTP070	ltpFR	8	6	0	OX	994	n/a	n/a	1	n/a	0	0	0	n/a	n/a	n/a	n/a	n/a
1591.352	n/a	START	795676	n/a	LTP070	ltpFR	8	n/a	n/a	n/a	n/a	n/a	n/a	n/a	n/a	n/a	n/a	n/a	n/a	n/a	n/a	n/a	n/a
1592.86	n/a	PROB	796430	n/a	LTP070	ltpFR	8	n/a	n/a	n/a	n/a	n/a	n/a	n/a	19	1	9	9	n/a	n/a	n/a	n/a	n/a
1596.552	n/a	PROB	798276	n/a	LTP070	ltpFR	8	n/a	n/a	n/a	n/a	n/a	n/a	n/a	16	4	8	6	n/a	n/a	n/a	n/a	n/a
1598.684	n/a	PROB	799342	n/a	LTP070	ltpFR	8	n/a	n/a	n/a	n/a	n/a	n/a	n/a	9	3	4	2	n/a	n/a	n/a	n/a	n/a
1600.876	n/a	PROB	800438	n/a	LTP070	ltpFR	8	n/a	n/a	n/a	n/a	n/a	n/a	n/a	15	7	2	6	n/a	n/a	n/a	n/a	n/a
1603.534	n/a	PROB	801767	n/a	LTP070	ltpFR	8	n/a	n/a	n/a	n/a	n/a	n/a	n/a	15	4	9	2	n/a	n/a	n/a	n/a	n/a
1606.128	n/a	STOP	803064	n/a	LTP070	ltpFR	8	n/a	n/a	n/a	n/a	n/a	n/a	n/a	n/a	n/a	n/a	n/a	n/a	n/a	n/a	n/a	n/a
1608.244	n/a	WORD	804122	wordpools/wasnorm_wordpool.txt	LTP070	ltpFR	8	7	0	RIDER	1191	n/a	n/a	1	n/a	0	0	0	0.422607421875	0.5869140625	0	upper	zerothre.ttf
1611.252	n/a	START	805626	n/a	LTP070	ltpFR	8	n/a	n/a	n/a	n/a	n/a	n/a	n/a	n/a	n/a	n/a	n/a	n/a	n/a	n/a	n/a	n/a
1612.418	n/a	PROB	806209	n/a	LTP070	ltpFR	8	n/a	n/a	n/a	n/a	n/a	n/a	n/a	18	9	7	4	n/a	n/a	n/a	n/a	n/a
1614.618	n/a	PROB	807309	n/a	LTP070	ltpFR	8	n/a	n/a	n/a	n/a	n/a	n/a	n/a	23	9	5	9	n/a	n/a	n/a	n/a	n/a
1618.034	n/a	PROB	809017	n/a	LTP070	ltpFR	8	n/a	n/a	n/a	n/a	n/a	n/a	n/a	11	4	3	4	n/a	n/a	n/a	n/a	n/a
1620.7	n/a	PROB	810350	n/a	LTP070	ltpFR	8	n/a	n/a	n/a	n/a	n/a	n/a	n/a	17	7	9	1	n/a	n/a	n/a	n/a	n/a
1623.6	n/a	PROB	811800	n/a	LTP070	ltpFR	8	n/a	n/a	n/a	n/a	n/a	n/a	n/a	14	5	3	6	n/a	n/a	n/a	n/a	n/a
1625.888	n/a	STOP	812944	n/a	LTP070	ltpFR	8	n/a	n/a	n/a	n/a	n/a	n/a	n/a	n/a	n/a	n/a	n/a	n/a	n/a	n/a	n/a	n/a
1628.252	n/a	WORD	814126	wordpools/wasnorm_wordpool.txt	LTP070	ltpFR	8	7	0	ARCHITECT	36	n/a	n/a	1	n/a	0	0	0	0.422607421875	0.5869140625	0	upper	zerothre.ttf
1631.26	n/a	START	815630	n/a	LTP070	ltpFR	8	n/a	n/a	n/a	n/a	n/a	n/a	n/a	n/a	n/a	n/a	n/a	n/a	n/a	n/a	n/a	n/a
1632.284	n/a	PROB	816142	n/a	LTP070	ltpFR	8	n/a	n/a	n/a	n/a	n/a	n/a	n/a	20	8	3	9	n/a	n/a	n/a	n/a	n/a
1636.142	n/a	PROB	818071	n/a	LTP070	ltpFR	8	n/a	n/a	n/a	n/a	n/a	n/a	n/a	23	9	4	9	n/a	n/a	n/a	n/a	n/a
1640.874	n/a	PROB	820437	n/a	LTP070	ltpFR	8	n/a	n/a	n/a	n/a	n/a	n/a	n/a	16	6	1	9	n/a	n/a	n/a	n/a	n/a
1644.55	n/a	PROB	822275	n/a	LTP070	ltpFR	8	n/a	n/a	n/a	n/a	n/a	n/a	n/a	20	4	8	8	n/a	n/a	n/a	n/a	n/a
1646.53	n/a	STOP	823265	n/a	LTP070	ltpFR	8	n/a	n/a	n/a	n/a	n/a	n/a	n/a	n/a	n/a	n/a	n/a	n/a	n/a	n/a	n/a	n/a
1648.1	n/a	WORD	824050	wordpools/wasnorm_wordpool.txt	LTP070	ltpFR	8	7	0	RIBBON	1189	n/a	n/a	1	n/a	0	0	0	0.422607421875	0.5869140625	0	upper	zerothre.ttf
1651.11	n/a	START	825555	n/a	LTP070	ltpFR	8	n/a	n/a	n/a	n/a	n/a	n/a	n/a	n/a	n/a	n/a	n/a	n/a	n/a	n/a	n/a	n/a
1652.0	n/a	PROB	826000	n/a	LTP070	ltpFR	8	n/a	n/a	n/a	n/a	n/a	n/a	n/a	16	8	6	2	n/a	n/a	n/a	n/a	n/a
1653.842	n/a	PROB	826921	n/a	LTP070	ltpFR	8	n/a	n/a	n/a	n/a	n/a	n/a	n/a	22	6	9	7	n/a	n/a	n/a	n/a	n/a
1657.65	n/a	PROB	828825	n/a	LTP070	ltpFR	8	n/a	n/a	n/a	n/a	n/a	n/a	n/a	11	3	1	7	n/a	n/a	n/a	n/a	n/a
1659.566	n/a	PROB	829783	n/a	LTP070	ltpFR	8	n/a	n/a	n/a	n/a	n/a	n/a	n/a	21	6	7	8	n/a	n/a	n/a	n/a	n/a
1663.05	n/a	PROB	831525	n/a	LTP070	ltpFR	8	n/a	n/a	n/a	n/a	n/a	n/a	n/a	11	2	5	4	n/a	n/a	n/a	n/a	n/a
1667.11	n/a	STOP	833555	n/a	LTP070	ltpFR	8	n/a	n/a	n/a	n/a	n/a	n/a	n/a	n/a	n/a	n/a	n/a	n/a	n/a	n/a	n/a	n/a
1668.082	n/a	WORD	834041	wordpools/wasnorm_wordpool.txt	LTP070	ltpFR	8	7	1	COLONEL	348	n/a	n/a	0	n/a	0	0	0	0.57763671875	0.412841796875	1	lower	amplitud.ttf
1671.092	n/a	START	835546	n/a	LTP070	ltpFR	8	n/a	n/a	n/a	n/a	n/a	n/a	n/a	n/a	n/a	n/a	n/a	n/a	n/a	n/a	n/a	n/a
1671.94	n/a	PROB	835970	n/a	LTP070	ltpFR	8	n/a	n/a	n/a	n/a	n/a	n/a	n/a	13	6	5	2	n/a	n/a	n/a	n/a	n/a
1674.708	n/a	PROB	837354	n/a	LTP070	ltpFR	8	n/a	n/a	n/a	n/a	n/a	n/a	n/a	19	9	1	9	n/a	n/a	n/a	n/a	n/a
1676.816	n/a	PROB	838408	n/a	LTP070	ltpFR	8	n/a	n/a	n/a	n/a	n/a	n/a	n/a	16	8	2	6	n/a	n/a	n/a	n/a	n/a
1679.316	n/a	PROB	839658	n/a	LTP070	ltpFR	8	n/a	n/a	n/a	n/a	n/a	n/a	n/a	11	6	1	4	n/a	n/a	n/a	n/a	n/a
1681.924	n/a	PROB	840962	n/a	LTP070	ltpFR	8	n/a	n/a	n/a	n/a	n/a	n/a	n/a	23	7	7	9	n/a	n/a	n/a	n/a	n/a
1684.158	n/a	PROB	842079	n/a	LTP070	ltpFR	8	n/a	n/a	n/a	n/a	n/a	n/a	n/a	18	7	2	9	n/a	n/a	n/a	n/a	n/a
1686.794	n/a	STOP	843397	n/a	LTP070	ltpFR	8	n/a	n/a	n/a	n/a	n/a	n/a	n/a	n/a	n/a	n/a	n/a	n/a	n/a	n/a	n/a	n/a
1688.074	n/a	WORD	844037	wordpools/wasnorm_wordpool.txt	LTP070	ltpFR	8	7	1	GENERAL	630	n/a	n/a	1	n/a	0	0	0	0.57763671875	0.412841796875	1	lower	amplitud.ttf
1691.084	n/a	START	845542	n/a	LTP070	ltpFR	8	n/a	n/a	n/a	n/a	n/a	n/a	n/a	n/a	n/a	n/a	n/a	n/a	n/a	n/a	n/a	n/a
1692.15	n/a	PROB	846075	n/a	LTP070	ltpFR	8	n/a	n/a	n/a	n/a	n/a	n/a	n/a	10	6	1	3	n/a	n/a	n/a	n/a	n/a
1694.748	n/a	PROB	847374	n/a	LTP070	ltpFR	8	n/a	n/a	n/a	n/a	n/a	n/a	n/a	18	7	8	3	n/a	n/a	n/a	n/a	n/a
1696.748	n/a	PROB	848374	n/a	LTP070	ltpFR	8	n/a	n/a	n/a	n/a	n/a	n/a	n/a	14	3	2	9	n/a	n/a	n/a	n/a	n/a
1698.79	n/a	PROB	849395	n/a	LTP070	ltpFR	8	n/a	n/a	n/a	n/a	n/a	n/a	n/a	12	3	8	1	n/a	n/a	n/a	n/a	n/a
1701.566	n/a	PROB	850783	n/a	LTP070	ltpFR	8	n/a	n/a	n/a	n/a	n/a	n/a	n/a	22	7	4	9	n/a	n/a	n/a	n/a	n/a
1707.076	n/a	STOP	853538	n/a	LTP070	ltpFR	8	n/a	n/a	n/a	n/a	n/a	n/a	n/a	n/a	n/a	n/a	n/a	n/a	n/a	n/a	n/a	n/a
1708.156	n/a	WORD	854078	wordpools/wasnorm_wordpool.txt	LTP070	ltpFR	8	7	1	RELATIVE	1182	n/a	n/a	1	n/a	0	0	0	0.57763671875	0.412841796875	1	lower	amplitud.ttf
1711.166	n/a	START	855583	n/a	LTP070	ltpFR	8	n/a	n/a	n/a	n/a	n/a	n/a	n/a	n/a	n/a	n/a	n/a	n/a	n/a	n/a	n/a	n/a
1712.182	n/a	PROB	856091	n/a	LTP070	ltpFR	8	n/a	n/a	n/a	n/a	n/a	n/a	n/a	14	6	4	4	n/a	n/a	n/a	n/a	n/a
1714.258	n/a	PROB	857129	n/a	LTP070	ltpFR	8	n/a	n/a	n/a	n/a	n/a	n/a	n/a	16	6	7	3	n/a	n/a	n/a	n/a	n/a
1716.308	n/a	PROB	858154	n/a	LTP070	ltpFR	8	n/a	n/a	n/a	n/a	n/a	n/a	n/a	15	8	1	6	n/a	n/a	n/a	n/a	n/a
1718.29	n/a	PROB	859145	n/a	LTP070	ltpFR	8	n/a	n/a	n/a	n/a	n/a	n/a	n/a	14	6	3	5	n/a	n/a	n/a	n/a	n/a
1720.374	n/a	PROB	860187	n/a	LTP070	ltpFR	8	n/a	n/a	n/a	n/a	n/a	n/a	n/a	15	4	4	3	n/a	n/a	n/a	n/a	n/a
1723.206	n/a	PROB	861603	n/a	LTP070	ltpFR	8	n/a	n/a	n/a	n/a	n/a	n/a	n/a	19	4	8	7	n/a	n/a	n/a	n/a	n/a
1726.614	n/a	STOP	863307	n/a	LTP070	ltpFR	8	n/a	n/a	n/a	n/a	n/a	n/a	n/a	n/a	n/a	n/a	n/a	n/a	n/a	n/a	n/a	n/a
1728.19	n/a	WORD	864095	wordpools/wasnorm_wordpool.txt	LTP070	ltpFR	8	7	1	INDIAN	736	n/a	n/a	1	n/a	0	0	0	0.57763671875	0.412841796875	1	lower	amplitud.ttf
1731.198	n/a	START	865599	n/a	LTP070	ltpFR	8	n/a	n/a	n/a	n/a	n/a	n/a	n/a	n/a	n/a	n/a	n/a	n/a	n/a	n/a	n/a	n/a
1732.408	n/a	PROB	866204	n/a	LTP070	ltpFR	8	n/a	n/a	n/a	n/a	n/a	n/a	n/a	15	1	5	9	n/a	n/a	n/a	n/a	n/a
1734.79	n/a	PROB	867395	n/a	LTP070	ltpFR	8	n/a	n/a	n/a	n/a	n/a	n/a	n/a	16	7	7	2	n/a	n/a	n/a	n/a	n/a
1738.164	n/a	PROB	869082	n/a	LTP070	ltpFR	8	n/a	n/a	n/a	n/a	n/a	n/a	n/a	20	9	7	4	n/a	n/a	n/a	n/a	n/a
1741.014	n/a	PROB	870507	n/a	LTP070	ltpFR	8	n/a	n/a	n/a	n/a	n/a	n/a	n/a	14	7	1	6	n/a	n/a	n/a	n/a	n/a
1743.198	n/a	PROB	871599	n/a	LTP070	ltpFR	8	n/a	n/a	n/a	n/a	n/a	n/a	n/a	21	7	5	9	n/a	n/a	n/a	n/a	n/a
1746.838	n/a	STOP	873419	n/a	LTP070	ltpFR	8	n/a	n/a	n/a	n/a	n/a	n/a	n/a	n/a	n/a	n/a	n/a	n/a	n/a	n/a	n/a	n/a
1748.29	n/a	WORD	874145	wordpools/wasnorm_wordpool.txt	LTP070	ltpFR	8	7	1	RAG	1160	n/a	n/a	0	n/a	0	0	0	0.57763671875	0.412841796875	1	lower	amplitud.ttf
1751.298	n/a	START	875649	n/a	LTP070	ltpFR	8	n/a	n/a	n/a	n/a	n/a	n/a	n/a	n/a	n/a	n/a	n/a	n/a	n/a	n/a	n/a	n/a
1752.206	n/a	PROB	876103	n/a	LTP070	ltpFR	8	n/a	n/a	n/a	n/a	n/a	n/a	n/a	11	4	6	1	n/a	n/a	n/a	n/a	n/a
1754.274	n/a	PROB	877137	n/a	LTP070	ltpFR	8	n/a	n/a	n/a	n/a	n/a	n/a	n/a	15	2	5	8	n/a	n/a	n/a	n/a	n/a
1756.098	n/a	PROB	878049	n/a	LTP070	ltpFR	8	n/a	n/a	n/a	n/a	n/a	n/a	n/a	14	4	8	2	n/a	n/a	n/a	n/a	n/a
1757.946	n/a	PROB	878973	n/a	LTP070	ltpFR	8	n/a	n/a	n/a	n/a	n/a	n/a	n/a	18	7	4	7	n/a	n/a	n/a	n/a	n/a
1761.106	n/a	PROB	880553	n/a	LTP070	ltpFR	8	n/a	n/a	n/a	n/a	n/a	n/a	n/a	13	2	4	7	n/a	n/a	n/a	n/a	n/a
1763.522	n/a	PROB	881761	n/a	LTP070	ltpFR	8	n/a	n/a	n/a	n/a	n/a	n/a	n/a	10	4	4	2	n/a	n/a	n/a	n/a	n/a
1767.298	n/a	STOP	883649	n/a	LTP070	ltpFR	8	n/a	n/a	n/a	n/a	n/a	n/a	n/a	n/a	n/a	n/a	n/a	n/a	n/a	n/a	n/a	n/a
1768.248	n/a	WORD	884124	wordpools/wasnorm_wordpool.txt	LTP070	ltpFR	8	7	1	DRAWER	493	n/a	n/a	0	n/a	0	0	0	0.57763671875	0.412841796875	1	lower	amplitud.ttf
1771.256	n/a	START	885628	n/a	LTP070	ltpFR	8	n/a	n/a	n/a	n/a	n/a	n/a	n/a	n/a	n/a	n/a	n/a	n/a	n/a	n/a	n/a	n/a
1772.364	n/a	PROB	886182	n/a	LTP070	ltpFR	8	n/a	n/a	n/a	n/a	n/a	n/a	n/a	16	2	7	7	n/a	n/a	n/a	n/a	n/a
1774.422	n/a	PROB	887211	n/a	LTP070	ltpFR	8	n/a	n/a	n/a	n/a	n/a	n/a	n/a	12	6	2	4	n/a	n/a	n/a	n/a	n/a
1778.29	n/a	PROB	889145	n/a	LTP070	ltpFR	8	n/a	n/a	n/a	n/a	n/a	n/a	n/a	24	7	8	9	n/a	n/a	n/a	n/a	n/a
1781.28	n/a	PROB	890640	n/a	LTP070	ltpFR	8	n/a	n/a	n/a	n/a	n/a	n/a	n/a	9	1	2	6	n/a	n/a	n/a	n/a	n/a
1783.148	n/a	PROB	891574	n/a	LTP070	ltpFR	8	n/a	n/a	n/a	n/a	n/a	n/a	n/a	13	3	5	5	n/a	n/a	n/a	n/a	n/a
1784.988	n/a	PROB	892494	n/a	LTP070	ltpFR	8	n/a	n/a	n/a	n/a	n/a	n/a	n/a	18	7	7	4	n/a	n/a	n/a	n/a	n/a
1786.808	n/a	STOP	893404	n/a	LTP070	ltpFR	8	n/a	n/a	n/a	n/a	n/a	n/a	n/a	n/a	n/a	n/a	n/a	n/a	n/a	n/a	n/a	n/a
1788.322	n/a	WORD	894161	wordpools/wasnorm_wordpool.txt	LTP070	ltpFR	8	7	0	CONCRETE	361	n/a	n/a	1	n/a	0	0	0	0.422607421875	0.5869140625	0	upper	zerothre.ttf
1791.33	n/a	START	895665	n/a	LTP070	ltpFR	8	n/a	n/a	n/a	n/a	n/a	n/a	n/a	n/a	n/a	n/a	n/a	n/a	n/a	n/a	n/a	n/a
1792.154	n/a	PROB	896077	n/a	LTP070	ltpFR	8	n/a	n/a	n/a	n/a	n/a	n/a	n/a	18	8	9	1	n/a	n/a	n/a	n/a	n/a
1794.13	n/a	PROB	897065	n/a	LTP070	ltpFR	8	n/a	n/a	n/a	n/a	n/a	n/a	n/a	17	1	8	8	n/a	n/a	n/a	n/a	n/a
1796.572	n/a	PROB	898286	n/a	LTP070	ltpFR	8	n/a	n/a	n/a	n/a	n/a	n/a	n/a	19	9	6	6	n/a	n/a	n/a	n/a	n/a
1799.264	n/a	PROB	899632	n/a	LTP070	ltpFR	8	n/a	n/a	n/a	n/a	n/a	n/a	n/a	8	4	1	3	n/a	n/a	n/a	n/a	n/a
1803.738	n/a	PROB	901869	n/a	LTP070	ltpFR	8	n/a	n/a	n/a	n/a	n/a	n/a	n/a	18	3	9	6	n/a	n/a	n/a	n/a	n/a
1806.674	n/a	STOP	903337	n/a	LTP070	ltpFR	8	n/a	n/a	n/a	n/a	n/a	n/a	n/a	n/a	n/a	n/a	n/a	n/a	n/a	n/a	n/a	n/a
1808.412	n/a	WORD	904206	wordpools/wasnorm_wordpool.txt	LTP070	ltpFR	8	7	0	GULL	671	n/a	n/a	0	n/a	0	0	0	0.422607421875	0.5869140625	0	upper	zerothre.ttf
1811.414	n/a	START	905707	n/a	LTP070	ltpFR	8	n/a	n/a	n/a	n/a	n/a	n/a	n/a	n/a	n/a	n/a	n/a	n/a	n/a	n/a	n/a	n/a
1812.354	n/a	PROB	906177	n/a	LTP070	ltpFR	8	n/a	n/a	n/a	n/a	n/a	n/a	n/a	17	5	4	8	n/a	n/a	n/a	n/a	n/a
1814.82	n/a	PROB	907410	n/a	LTP070	ltpFR	8	n/a	n/a	n/a	n/a	n/a	n/a	n/a	14	2	5	7	n/a	n/a	n/a	n/a	n/a
1817.388	n/a	PROB	908694	n/a	LTP070	ltpFR	8	n/a	n/a	n/a	n/a	n/a	n/a	n/a	11	2	2	7	n/a	n/a	n/a	n/a	n/a
1819.264	n/a	PROB	909632	n/a	LTP070	ltpFR	8	n/a	n/a	n/a	n/a	n/a	n/a	n/a	9	5	2	2	n/a	n/a	n/a	n/a	n/a
1822.688	n/a	PROB	911344	n/a	LTP070	ltpFR	8	n/a	n/a	n/a	n/a	n/a	n/a	n/a	15	4	5	6	n/a	n/a	n/a	n/a	n/a
1827.414	n/a	STOP	913707	n/a	LTP070	ltpFR	8	n/a	n/a	n/a	n/a	n/a	n/a	n/a	n/a	n/a	n/a	n/a	n/a	n/a	n/a	n/a	n/a
1828.58	n/a	WORD	914290	wordpools/wasnorm_wordpool.txt	LTP070	ltpFR	8	7	0	MINER	896	n/a	n/a	1	n/a	0	0	0	0.422607421875	0.5869140625	0	upper	zerothre.ttf
1831.588	n/a	START	915794	n/a	LTP070	ltpFR	8	n/a	n/a	n/a	n/a	n/a	n/a	n/a	n/a	n/a	n/a	n/a	n/a	n/a	n/a	n/a	n/a
1832.554	n/a	PROB	916277	n/a	LTP070	ltpFR	8	n/a	n/a	n/a	n/a	n/a	n/a	n/a	13	4	6	3	n/a	n/a	n/a	n/a	n/a
1834.296	n/a	PROB	917148	n/a	LTP070	ltpFR	8	n/a	n/a	n/a	n/a	n/a	n/a	n/a	14	5	8	1	n/a	n/a	n/a	n/a	n/a
1836.37	n/a	PROB	918185	n/a	LTP070	ltpFR	8	n/a	n/a	n/a	n/a	n/a	n/a	n/a	19	9	1	9	n/a	n/a	n/a	n/a	n/a
1838.238	n/a	PROB	919119	n/a	LTP070	ltpFR	8	n/a	n/a	n/a	n/a	n/a	n/a	n/a	15	5	6	4	n/a	n/a	n/a	n/a	n/a
1840.828	n/a	PROB	920414	n/a	LTP070	ltpFR	8	n/a	n/a	n/a	n/a	n/a	n/a	n/a	15	1	6	8	n/a	n/a	n/a	n/a	n/a
1842.962	n/a	PROB	921481	n/a	LTP070	ltpFR	8	n/a	n/a	n/a	n/a	n/a	n/a	n/a	16	6	3	7	n/a	n/a	n/a	n/a	n/a
1844.912	n/a	PROB	922456	n/a	LTP070	ltpFR	8	n/a	n/a	n/a	n/a	n/a	n/a	n/a	15	1	6	8	n/a	n/a	n/a	n/a	n/a
1847.108	n/a	STOP	923554	n/a	LTP070	ltpFR	8	n/a	n/a	n/a	n/a	n/a	n/a	n/a	n/a	n/a	n/a	n/a	n/a	n/a	n/a	n/a	n/a
1848.52	n/a	WORD	924260	wordpools/wasnorm_wordpool.txt	LTP070	ltpFR	8	7	1	NECKLACE	940	n/a	n/a	0	n/a	0	0	0	0.57763671875	0.412841796875	1	lower	amplitud.ttf
1851.528	n/a	START	925764	n/a	LTP070	ltpFR	8	n/a	n/a	n/a	n/a	n/a	n/a	n/a	n/a	n/a	n/a	n/a	n/a	n/a	n/a	n/a	n/a
1852.436	n/a	PROB	926218	n/a	LTP070	ltpFR	8	n/a	n/a	n/a	n/a	n/a	n/a	n/a	19	7	9	3	n/a	n/a	n/a	n/a	n/a
1856.678	n/a	PROB	928339	n/a	LTP070	ltpFR	8	n/a	n/a	n/a	n/a	n/a	n/a	n/a	11	1	6	4	n/a	n/a	n/a	n/a	n/a
1858.688	n/a	PROB	929344	n/a	LTP070	ltpFR	8	n/a	n/a	n/a	n/a	n/a	n/a	n/a	15	2	9	4	n/a	n/a	n/a	n/a	n/a
1860.962	n/a	PROB	930481	n/a	LTP070	ltpFR	8	n/a	n/a	n/a	n/a	n/a	n/a	n/a	13	6	5	2	n/a	n/a	n/a	n/a	n/a
1863.128	n/a	PROB	931564	n/a	LTP070	ltpFR	8	n/a	n/a	n/a	n/a	n/a	n/a	n/a	21	7	5	9	n/a	n/a	n/a	n/a	n/a
1866.532	n/a	STOP	933266	n/a	LTP070	ltpFR	8	n/a	n/a	n/a	n/a	n/a	n/a	n/a	n/a	n/a	n/a	n/a	n/a	n/a	n/a	n/a	n/a
1868.52	n/a	WORD	934260	wordpools/wasnorm_wordpool.txt	LTP070	ltpFR	8	7	1	NAPKIN	937	n/a	n/a	0	n/a	0	0	0	0.57763671875	0.412841796875	1	lower	amplitud.ttf
1871.528	n/a	START	935764	n/a	LTP070	ltpFR	8	n/a	n/a	n/a	n/a	n/a	n/a	n/a	n/a	n/a	n/a	n/a	n/a	n/a	n/a	n/a	n/a
1872.612	n/a	PROB	936306	n/a	LTP070	ltpFR	8	n/a	n/a	n/a	n/a	n/a	n/a	n/a	21	9	3	9	n/a	n/a	n/a	n/a	n/a
1876.186	n/a	PROB	938093	n/a	LTP070	ltpFR	8	n/a	n/a	n/a	n/a	n/a	n/a	n/a	23	9	5	9	n/a	n/a	n/a	n/a	n/a
1878.92	n/a	PROB	939460	n/a	LTP070	ltpFR	8	n/a	n/a	n/a	n/a	n/a	n/a	n/a	15	8	2	7	n/a	n/a	n/a	n/a	n/a
1881.036	n/a	PROB	940518	n/a	LTP070	ltpFR	8	n/a	n/a	n/a	n/a	n/a	n/a	n/a	17	6	3	7	n/a	n/a	n/a	n/a	n/a
1883.328	n/a	PROB	941664	n/a	LTP070	ltpFR	8	n/a	n/a	n/a	n/a	n/a	n/a	n/a	12	4	5	3	n/a	n/a	n/a	n/a	n/a
1887.31	n/a	STOP	943655	n/a	LTP070	ltpFR	8	n/a	n/a	n/a	n/a	n/a	n/a	n/a	n/a	n/a	n/a	n/a	n/a	n/a	n/a	n/a	n/a
1888.412	n/a	WORD	944206	wordpools/wasnorm_wordpool.txt	LTP070	ltpFR	8	7	0	HEADBAND	696	n/a	n/a	2	n/a	0	0	0	0.422607421875	0.5869140625	0	upper	zerothre.ttf
1889.57	n/a	KEY_MSG	944785	n/a	LTP070	ltpFR	8	7	n/a	n/a	n/a	n/a	n/a	n/a	n/a	0	0	0	n/a	n/a	n/a	n/a	n/a
1891.42	n/a	START	945710	n/a	LTP070	ltpFR	8	n/a	n/a	n/a	n/a	n/a	n/a	n/a	n/a	n/a	n/a	n/a	n/a	n/a	n/a	n/a	n/a
1892.236	n/a	PROB	946118	n/a	LTP070	ltpFR	8	n/a	n/a	n/a	n/a	n/a	n/a	n/a	14	7	2	5	n/a	n/a	n/a	n/a	n/a
1896.052	n/a	PROB	948026	n/a	LTP070	ltpFR	8	n/a	n/a	n/a	n/a	n/a	n/a	n/a	9	5	3	1	n/a	n/a	n/a	n/a	n/a
1899.544	n/a	PROB	949772	n/a	LTP070	ltpFR	8	n/a	n/a	n/a	n/a	n/a	n/a	n/a	10	7	2	1	n/a	n/a	n/a	n/a	n/a
1902.062	n/a	PROB	951031	n/a	LTP070	ltpFR	8	n/a	n/a	n/a	n/a	n/a	n/a	n/a	15	5	9	1	n/a	n/a	n/a	n/a	n/a
1904.002	n/a	PROB	952001	n/a	LTP070	ltpFR	8	n/a	n/a	n/a	n/a	n/a	n/a	n/a	18	9	5	4	n/a	n/a	n/a	n/a	n/a
1906.55	n/a	STOP	953275	n/a	LTP070	ltpFR	8	n/a	n/a	n/a	n/a	n/a	n/a	n/a	n/a	n/a	n/a	n/a	n/a	n/a	n/a	n/a	n/a
1908.31	n/a	WORD	954155	wordpools/wasnorm_wordpool.txt	LTP070	ltpFR	8	7	0	QUAIL	1147	n/a	n/a	1	n/a	0	0	0	0.422607421875	0.5869140625	0	upper	zerothre.ttf
1911.318	n/a	START	955659	n/a	LTP070	ltpFR	8	n/a	n/a	n/a	n/a	n/a	n/a	n/a	n/a	n/a	n/a	n/a	n/a	n/a	n/a	n/a	n/a
1912.218	n/a	PROB	956109	n/a	LTP070	ltpFR	8	n/a	n/a	n/a	n/a	n/a	n/a	n/a	13	1	4	8	n/a	n/a	n/a	n/a	n/a
1914.784	n/a	PROB	957392	n/a	LTP070	ltpFR	8	n/a	n/a	n/a	n/a	n/a	n/a	n/a	18	8	6	4	n/a	n/a	n/a	n/a	n/a
1916.8	n/a	PROB	958400	n/a	LTP070	ltpFR	8	n/a	n/a	n/a	n/a	n/a	n/a	n/a	14	2	9	3	n/a	n/a	n/a	n/a	n/a
1919.194	n/a	PROB	959597	n/a	LTP070	ltpFR	8	n/a	n/a	n/a	n/a	n/a	n/a	n/a	16	8	6	2	n/a	n/a	n/a	n/a	n/a
1922.102	n/a	PROB	961051	n/a	LTP070	ltpFR	8	n/a	n/a	n/a	n/a	n/a	n/a	n/a	19	7	6	6	n/a	n/a	n/a	n/a	n/a
1926.712	n/a	STOP	963356	n/a	LTP070	ltpFR	8	n/a	n/a	n/a	n/a	n/a	n/a	n/a	n/a	n/a	n/a	n/a	n/a	n/a	n/a	n/a	n/a
1929.12	n/a	REC_START	964560	n/a	LTP070	ltpFR	8	7	n/a	n/a	n/a	n/a	n/a	n/a	n/a	0	0	0	n/a	n/a	n/a	n/a	n/a
1930.446	n/a	REC_WORD	965223	wordpools/wasnorm_wordpool.txt	LTP070	ltpFR	8	7	0	QUAIL	1147	n/a	n/a	1	n/a	0	0	0	n/a	n/a	n/a	n/a	n/a
1944.64	n/a	REC_WORD	972320	wordpools/wasnorm_wordpool.txt	LTP070	ltpFR	8	7	1	BUTTERFLY	206	n/a	n/a	1	n/a	0	0	0	n/a	n/a	n/a	n/a	n/a
1955.72	n/a	REC_WORD	977860	wordpools/wasnorm_wordpool.txt	LTP070	ltpFR	8	7	1	RELATIVE	1182	n/a	n/a	1	n/a	0	0	0	n/a	n/a	n/a	n/a	n/a
1964.052	n/a	REC_WORD	982026	wordpools/wasnorm_wordpool.txt	LTP070	ltpFR	8	7	1	COLONEL	348	n/a	n/a	0	n/a	0	0	0	n/a	n/a	n/a	n/a	n/a
1965.802	n/a	REC_WORD	982901	wordpools/wasnorm_wordpool.txt	LTP070	ltpFR	8	7	1	GENERAL	630	n/a	n/a	1	n/a	0	0	0	n/a	n/a	n/a	n/a	n/a
1973.76	n/a	REC_WORD	986880	wordpools/wasnorm_wordpool.txt	LTP070	ltpFR	8	7	0	GULL	671	n/a	n/a	0	n/a	0	0	0	n/a	n/a	n/a	n/a	n/a
2038.124	n/a	WORD	1019062	wordpools/wasnorm_wordpool.txt	LTP070	ltpFR	8	8	0	GYMNAST	675	n/a	n/a	1	n/a	0	0	0	0.422607421875	0.5869140625	0	upper	zerothre.ttf
2042.324	n/a	WORD	1021162	wordpools/wasnorm_wordpool.txt	LTP070	ltpFR	8	8	0	CUFF	423	n/a	n/a	0	n/a	0	0	0	0.422607421875	0.5869140625	0	upper	zerothre.ttf
2046.474	n/a	WORD	1023237	wordpools/wasnorm_wordpool.txt	LTP070	ltpFR	8	8	0	TRIGGER	1507	n/a	n/a	0	n/a	0	0	0	0.422607421875	0.5869140625	0	upper	zerothre.ttf
2050.416	n/a	WORD	1025208	wordpools/wasnorm_wordpool.txt	LTP070	ltpFR	8	8	0	ARTIST	43	n/a	n/a	1	n/a	0	0	0	0.422607421875	0.5869140625	0	upper	zerothre.ttf
2054.624	n/a	WORD	1027312	wordpools/wasnorm_wordpool.txt	LTP070	ltpFR	8	8	0	CARPENTER	246	n/a	n/a	1	n/a	0	0	0	0.422607421875	0.5869140625	0	upper	zerothre.ttf
2058.69	n/a	WORD	1029345	wordpools/wasnorm_wordpool.txt	LTP070	ltpFR	8	8	0	CHICK	296	n/a	n/a	0	n/a	0	0	0	0.422607421875	0.5869140625	0	upper	zerothre.ttf
2062.556	n/a	WORD	1031278	wordpools/wasnorm_wordpool.txt	LTP070	ltpFR	8	8	0	ROOSTER	1209	n/a	n/a	1	n/a	0	0	0	0.422607421875	0.5869140625	0	upper	zerothre.ttf
2066.664	n/a	WORD	1033332	wordpools/wasnorm_wordpool.txt	LTP070	ltpFR	8	8	0	IGLOO	734	n/a	n/a	1	n/a	0	0	0	0.422607421875	0.5869140625	0	upper	zerothre.ttf
2070.856	n/a	WORD	1035428	wordpools/wasnorm_wordpool.txt	LTP070	ltpFR	8	8	0	HANDKERCHIEF	686	n/a	n/a	0	n/a	0	0	0	0.422607421875	0.5869140625	0	upper	zerothre.ttf
2074.988	n/a	WORD	1037494	wordpools/wasnorm_wordpool.txt	LTP070	ltpFR	8	8	0	STAPLE	1371	n/a	n/a	0	n/a	0	0	0	0.422607421875	0.5869140625	0	upper	zerothre.ttf
2078.896	n/a	WORD	1039448	wordpools/wasnorm_wordpool.txt	LTP070	ltpFR	8	8	0	LABEL	790	n/a	n/a	0	n/a	0	0	0	0.422607421875	0.5869140625	0	upper	zerothre.ttf
2082.896	n/a	WORD	1041448	wordpools/wasnorm_wordpool.txt	LTP070	ltpFR	8	8	0	BEEF	113	n/a	n/a	1	n/a	0	0	0	0.422607421875	0.5869140625	0	upper	zerothre.ttf
2086.822	n/a	WORD	1043411	wordpools/wasnorm_wordpool.txt	LTP070	ltpFR	8	8	0	FUR	615	n/a	n/a	0	n/a	0	0	0	0.422607421875	0.5869140625	0	upper	zerothre.ttf
2090.664	n/a	WORD	1045332	wordpools/wasnorm_wordpool.txt	LTP070	ltpFR	8	8	0	PAINT	1003	n/a	n/a	0	n/a	0	0	0	0.422607421875	0.5869140625	0	upper	zerothre.ttf
2094.664	n/a	WORD	1047332	wordpools/wasnorm_wordpool.txt	LTP070	ltpFR	8	8	0	OUTLAW	989	n/a	n/a	1	n/a	0	0	0	0.422607421875	0.5869140625	0	upper	zerothre.ttf
2098.506	n/a	WORD	1049253	wordpools/wasnorm_wordpool.txt	LTP070	ltpFR	8	8	0	COP	376	n/a	n/a	1	n/a	0	0	0	0.422607421875	0.5869140625	0	upper	zerothre.ttf
2104.49	n/a	REC_START	1052245	n/a	LTP070	ltpFR	8	8	n/a	n/a	n/a	n/a	n/a	n/a	n/a	0	0	0	n/a	n/a	n/a	n/a	n/a
2106.6	n/a	REC_WORD	1053300	wordpools/wasnorm_wordpool.txt	LTP070	ltpFR	8	8	n/a	CUP	424	n/a	n/a	n/a	n/a	0	0	0	n/a	n/a	n/a	n/a	n/a
2108.456	n/a	REC_WORD	1054228	wordpools/wasnorm_wordpool.txt	LTP070	ltpFR	8	8	0	GYMNAST	675	n/a	n/a	1	n/a	0	0	0	n/a	n/a	n/a	n/a	n/a
2110.652	n/a	REC_WORD	1055326	wordpools/wasnorm_wordpool.txt	LTP070	ltpFR	8	8	0	IGLOO	734	n/a	n/a	1	n/a	0	0	0	n/a	n/a	n/a	n/a	n/a
2112.442	n/a	REC_WORD	1056221	wordpools/wasnorm_wordpool.txt	LTP070	ltpFR	8	8	0	HANDKERCHIEF	686	n/a	n/a	0	n/a	0	0	0	n/a	n/a	n/a	n/a	n/a
2118.174	n/a	REC_WORD	1059087	wordpools/wasnorm_wordpool.txt	LTP070	ltpFR	8	8	0	FUR	615	n/a	n/a	0	n/a	0	0	0	n/a	n/a	n/a	n/a	n/a
2120.588	n/a	REC_WORD	1060294	wordpools/wasnorm_wordpool.txt	LTP070	ltpFR	8	8	0	BEEF	113	n/a	n/a	1	n/a	0	0	0	n/a	n/a	n/a	n/a	n/a
2134.188	n/a	REC_WORD	1067094	wordpools/wasnorm_wordpool.txt	LTP070	ltpFR	8	8	0	TRIGGER	1507	n/a	n/a	0	n/a	0	0	0	n/a	n/a	n/a	n/a	n/a
2142.356	n/a	REC_WORD	1071178	wordpools/wasnorm_wordpool.txt	LTP070	ltpFR	8	8	0	ROOSTER	1209	n/a	n/a	1	n/a	0	0	0	n/a	n/a	n/a	n/a	n/a
2143.738	n/a	REC_WORD	1071869	wordpools/wasnorm_wordpool.txt	LTP070	ltpFR	8	8	0	CHICK	296	n/a	n/a	0	n/a	0	0	0	n/a	n/a	n/a	n/a	n/a
2158.914	n/a	REC_WORD	1079457	wordpools/wasnorm_wordpool.txt	LTP070	ltpFR	8	8	0	OUTLAW	989	n/a	n/a	1	n/a	0	0	0	n/a	n/a	n/a	n/a	n/a
2187.112	n/a	START	1093556	n/a	LTP070	ltpFR	8	n/a	n/a	n/a	n/a	n/a	n/a	n/a	n/a	n/a	n/a	n/a	n/a	n/a	n/a	n/a	n/a
2188.62	n/a	PROB	1094310	n/a	LTP070	ltpFR	8	n/a	n/a	n/a	n/a	n/a	n/a	n/a	18	2	9	7	n/a	n/a	n/a	n/a	n/a
2192.878	n/a	PROB	1096439	n/a	LTP070	ltpFR	8	n/a	n/a	n/a	n/a	n/a	n/a	n/a	14	5	5	4	n/a	n/a	n/a	n/a	n/a
2194.612	n/a	PROB	1097306	n/a	LTP070	ltpFR	8	n/a	n/a	n/a	n/a	n/a	n/a	n/a	7	2	4	1	n/a	n/a	n/a	n/a	n/a
2196.962	n/a	PROB	1098481	n/a	LTP070	ltpFR	8	n/a	n/a	n/a	n/a	n/a	n/a	n/a	19	8	9	2	n/a	n/a	n/a	n/a	n/a
2203.114	n/a	STOP	1101557	n/a	LTP070	ltpFR	8	n/a	n/a	n/a	n/a	n/a	n/a	n/a	n/a	n/a	n/a	n/a	n/a	n/a	n/a	n/a	n/a
2204.278	n/a	WORD	1102139	wordpools/wasnorm_wordpool.txt	LTP070	ltpFR	8	9	1	CROCODILE	411	n/a	n/a	0	n/a	0	0	0	0.57763671875	0.412841796875	1	lower	amplitud.ttf
2207.286	n/a	START	1103643	n/a	LTP070	ltpFR	8	n/a	n/a	n/a	n/a	n/a	n/a	n/a	n/a	n/a	n/a	n/a	n/a	n/a	n/a	n/a	n/a
2208.386	n/a	PROB	1104193	n/a	LTP070	ltpFR	8	n/a	n/a	n/a	n/a	n/a	n/a	n/a	18	7	3	8	n/a	n/a	n/a	n/a	n/a
2210.694	n/a	PROB	1105347	n/a	LTP070	ltpFR	8	n/a	n/a	n/a	n/a	n/a	n/a	n/a	13	5	6	2	n/a	n/a	n/a	n/a	n/a
2212.91	n/a	PROB	1106455	n/a	LTP070	ltpFR	8	n/a	n/a	n/a	n/a	n/a	n/a	n/a	14	5	8	1	n/a	n/a	n/a	n/a	n/a
2215.02	n/a	PROB	1107510	n/a	LTP070	ltpFR	8	n/a	n/a	n/a	n/a	n/a	n/a	n/a	17	1	8	8	n/a	n/a	n/a	n/a	n/a
2217.686	n/a	PROB	1108843	n/a	LTP070	ltpFR	8	n/a	n/a	n/a	n/a	n/a	n/a	n/a	16	7	3	6	n/a	n/a	n/a	n/a	n/a
2219.486	n/a	PROB	1109743	n/a	LTP070	ltpFR	8	n/a	n/a	n/a	n/a	n/a	n/a	n/a	10	1	6	3	n/a	n/a	n/a	n/a	n/a
2221.876	n/a	STOP	1110938	n/a	LTP070	ltpFR	8	n/a	n/a	n/a	n/a	n/a	n/a	n/a	n/a	n/a	n/a	n/a	n/a	n/a	n/a	n/a	n/a
2224.412	n/a	WORD	1112206	wordpools/wasnorm_wordpool.txt	LTP070	ltpFR	8	9	1	BOOT	150	n/a	n/a	0	n/a	0	0	0	0.57763671875	0.412841796875	1	lower	amplitud.ttf
2227.42	n/a	START	1113710	n/a	LTP070	ltpFR	8	n/a	n/a	n/a	n/a	n/a	n/a	n/a	n/a	n/a	n/a	n/a	n/a	n/a	n/a	n/a	n/a
2228.228	n/a	PROB	1114114	n/a	LTP070	ltpFR	8	n/a	n/a	n/a	n/a	n/a	n/a	n/a	13	5	2	6	n/a	n/a	n/a	n/a	n/a
2230.652	n/a	PROB	1115326	n/a	LTP070	ltpFR	8	n/a	n/a	n/a	n/a	n/a	n/a	n/a	7	2	1	4	n/a	n/a	n/a	n/a	n/a
2234.86	n/a	PROB	1117430	n/a	LTP070	ltpFR	8	n/a	n/a	n/a	n/a	n/a	n/a	n/a	26	9	9	8	n/a	n/a	n/a	n/a	n/a
2238.752	n/a	PROB	1119376	n/a	LTP070	ltpFR	8	n/a	n/a	n/a	n/a	n/a	n/a	n/a	16	4	4	6	n/a	n/a	n/a	n/a	n/a
2243.42	n/a	STOP	1121710	n/a	LTP070	ltpFR	8	n/a	n/a	n/a	n/a	n/a	n/a	n/a	n/a	n/a	n/a	n/a	n/a	n/a	n/a	n/a	n/a
2244.52	n/a	WORD	1122260	wordpools/wasnorm_wordpool.txt	LTP070	ltpFR	8	9	0	CHIMPANZEE	302	n/a	n/a	1	n/a	0	0	0	0.422607421875	0.5869140625	0	upper	zerothre.ttf
2247.528	n/a	START	1123764	n/a	LTP070	ltpFR	8	n/a	n/a	n/a	n/a	n/a	n/a	n/a	n/a	n/a	n/a	n/a	n/a	n/a	n/a	n/a	n/a
2248.578	n/a	PROB	1124289	n/a	LTP070	ltpFR	8	n/a	n/a	n/a	n/a	n/a	n/a	n/a	13	9	1	3	n/a	n/a	n/a	n/a	n/a
2251.36	n/a	PROB	1125680	n/a	LTP070	ltpFR	8	n/a	n/a	n/a	n/a	n/a	n/a	n/a	20	3	8	9	n/a	n/a	n/a	n/a	n/a
2253.768	n/a	PROB	1126884	n/a	LTP070	ltpFR	8	n/a	n/a	n/a	n/a	n/a	n/a	n/a	20	9	8	3	n/a	n/a	n/a	n/a	n/a
2256.684	n/a	PROB	1128342	n/a	LTP070	ltpFR	8	n/a	n/a	n/a	n/a	n/a	n/a	n/a	15	8	1	6	n/a	n/a	n/a	n/a	n/a
2258.834	n/a	PROB	1129417	n/a	LTP070	ltpFR	8	n/a	n/a	n/a	n/a	n/a	n/a	n/a	15	2	9	4	n/a	n/a	n/a	n/a	n/a
2263.528	n/a	STOP	1131764	n/a	LTP070	ltpFR	8	n/a	n/a	n/a	n/a	n/a	n/a	n/a	n/a	n/a	n/a	n/a	n/a	n/a	n/a	n/a	n/a
2264.694	n/a	WORD	1132347	wordpools/wasnorm_wordpool.txt	LTP070	ltpFR	8	9	0	RUBY	1214	n/a	n/a	0	n/a	0	0	0	0.422607421875	0.5869140625	0	upper	zerothre.ttf
2267.702	n/a	START	1133851	n/a	LTP070	ltpFR	8	n/a	n/a	n/a	n/a	n/a	n/a	n/a	n/a	n/a	n/a	n/a	n/a	n/a	n/a	n/a	n/a
2268.85	n/a	PROB	1134425	n/a	LTP070	ltpFR	8	n/a	n/a	n/a	n/a	n/a	n/a	n/a	12	3	6	3	n/a	n/a	n/a	n/a	n/a
2271.234	n/a	PROB	1135617	n/a	LTP070	ltpFR	8	n/a	n/a	n/a	n/a	n/a	n/a	n/a	14	8	5	2	n/a	n/a	n/a	n/a	n/a
2275.376	n/a	PROB	1137688	n/a	LTP070	ltpFR	8	n/a	n/a	n/a	n/a	n/a	n/a	n/a	16	9	2	5	n/a	n/a	n/a	n/a	n/a
2277.834	n/a	PROB	1138917	n/a	LTP070	ltpFR	8	n/a	n/a	n/a	n/a	n/a	n/a	n/a	21	5	8	8	n/a	n/a	n/a	n/a	n/a
2280.218	n/a	PROB	1140109	n/a	LTP070	ltpFR	8	n/a	n/a	n/a	n/a	n/a	n/a	n/a	8	2	1	5	n/a	n/a	n/a	n/a	n/a
2282.24	n/a	STOP	1141120	n/a	LTP070	ltpFR	8	n/a	n/a	n/a	n/a	n/a	n/a	n/a	n/a	n/a	n/a	n/a	n/a	n/a	n/a	n/a	n/a
2284.718	n/a	WORD	1142359	wordpools/wasnorm_wordpool.txt	LTP070	ltpFR	8	9	0	GEM	629	n/a	n/a	0	n/a	0	0	0	0.422607421875	0.5869140625	0	upper	zerothre.ttf
2287.726	n/a	START	1143863	n/a	LTP070	ltpFR	8	n/a	n/a	n/a	n/a	n/a	n/a	n/a	n/a	n/a	n/a	n/a	n/a	n/a	n/a	n/a	n/a
2288.702	n/a	PROB	1144351	n/a	LTP070	ltpFR	8	n/a	n/a	n/a	n/a	n/a	n/a	n/a	11	2	6	5	n/a	n/a	n/a	n/a	n/a
2290.742	n/a	PROB	1145371	n/a	LTP070	ltpFR	8	n/a	n/a	n/a	n/a	n/a	n/a	n/a	14	2	9	3	n/a	n/a	n/a	n/a	n/a
2292.734	n/a	PROB	1146367	n/a	LTP070	ltpFR	8	n/a	n/a	n/a	n/a	n/a	n/a	n/a	13	4	7	2	n/a	n/a	n/a	n/a	n/a
2295.11	n/a	PROB	1147555	n/a	LTP070	ltpFR	8	n/a	n/a	n/a	n/a	n/a	n/a	n/a	18	4	5	9	n/a	n/a	n/a	n/a	n/a
2297.1	n/a	PROB	1148550	n/a	LTP070	ltpFR	8	n/a	n/a	n/a	n/a	n/a	n/a	n/a	16	2	5	9	n/a	n/a	n/a	n/a	n/a
2299.76	n/a	PROB	1149880	n/a	LTP070	ltpFR	8	n/a	n/a	n/a	n/a	n/a	n/a	n/a	20	6	9	5	n/a	n/a	n/a	n/a	n/a
2302.968	n/a	STOP	1151484	n/a	LTP070	ltpFR	8	n/a	n/a	n/a	n/a	n/a	n/a	n/a	n/a	n/a	n/a	n/a	n/a	n/a	n/a	n/a	n/a
2304.634	n/a	WORD	1152317	wordpools/wasnorm_wordpool.txt	LTP070	ltpFR	8	9	1	PREDATOR	1120	n/a	n/a	0	n/a	0	0	0	0.57763671875	0.412841796875	1	lower	amplitud.ttf
2307.642	n/a	START	1153821	n/a	LTP070	ltpFR	8	n/a	n/a	n/a	n/a	n/a	n/a	n/a	n/a	n/a	n/a	n/a	n/a	n/a	n/a	n/a	n/a
2308.76	n/a	PROB	1154380	n/a	LTP070	ltpFR	8	n/a	n/a	n/a	n/a	n/a	n/a	n/a	18	6	8	4	n/a	n/a	n/a	n/a	n/a
2310.832	n/a	PROB	1155416	n/a	LTP070	ltpFR	8	n/a	n/a	n/a	n/a	n/a	n/a	n/a	10	2	3	5	n/a	n/a	n/a	n/a	n/a
2312.768	n/a	PROB	1156384	n/a	LTP070	ltpFR	8	n/a	n/a	n/a	n/a	n/a	n/a	n/a	10	3	5	2	n/a	n/a	n/a	n/a	n/a
2314.9	n/a	PROB	1157450	n/a	LTP070	ltpFR	8	n/a	n/a	n/a	n/a	n/a	n/a	n/a	17	6	9	2	n/a	n/a	n/a	n/a	n/a
2317.85	n/a	PROB	1158925	n/a	LTP070	ltpFR	8	n/a	n/a	n/a	n/a	n/a	n/a	n/a	14	3	2	9	n/a	n/a	n/a	n/a	n/a
2320.174	n/a	PROB	1160087	n/a	LTP070	ltpFR	8	n/a	n/a	n/a	n/a	n/a	n/a	n/a	10	1	4	5	n/a	n/a	n/a	n/a	n/a
2323.218	n/a	STOP	1161609	n/a	LTP070	ltpFR	8	n/a	n/a	n/a	n/a	n/a	n/a	n/a	n/a	n/a	n/a	n/a	n/a	n/a	n/a	n/a	n/a
2324.7	n/a	WORD	1162350	wordpools/wasnorm_wordpool.txt	LTP070	ltpFR	8	9	1	COCKTAIL	338	n/a	n/a	0	n/a	0	0	0	0.57763671875	0.412841796875	1	lower	amplitud.ttf
2327.71	n/a	START	1163855	n/a	LTP070	ltpFR	8	n/a	n/a	n/a	n/a	n/a	n/a	n/a	n/a	n/a	n/a	n/a	n/a	n/a	n/a	n/a	n/a
2328.75	n/a	PROB	1164375	n/a	LTP070	ltpFR	8	n/a	n/a	n/a	n/a	n/a	n/a	n/a	14	4	9	1	n/a	n/a	n/a	n/a	n/a
2331.642	n/a	PROB	1165821	n/a	LTP070	ltpFR	8	n/a	n/a	n/a	n/a	n/a	n/a	n/a	17	9	2	6	n/a	n/a	n/a	n/a	n/a
2336.192	n/a	PROB	1168096	n/a	LTP070	ltpFR	8	n/a	n/a	n/a	n/a	n/a	n/a	n/a	20	5	8	7	n/a	n/a	n/a	n/a	n/a
2340.132	n/a	PROB	1170066	n/a	LTP070	ltpFR	8	n/a	n/a	n/a	n/a	n/a	n/a	n/a	9	3	1	5	n/a	n/a	n/a	n/a	n/a
2343.18	n/a	STOP	1171590	n/a	LTP070	ltpFR	8	n/a	n/a	n/a	n/a	n/a	n/a	n/a	n/a	n/a	n/a	n/a	n/a	n/a	n/a	n/a	n/a
2344.816	n/a	WORD	1172408	wordpools/wasnorm_wordpool.txt	LTP070	ltpFR	8	9	0	CREATURE	403	n/a	n/a	0	n/a	0	0	0	0.422607421875	0.5869140625	0	upper	zerothre.ttf
2347.824	n/a	START	1173912	n/a	LTP070	ltpFR	8	n/a	n/a	n/a	n/a	n/a	n/a	n/a	n/a	n/a	n/a	n/a	n/a	n/a	n/a	n/a	n/a
2348.948	n/a	PROB	1174474	n/a	LTP070	ltpFR	8	n/a	n/a	n/a	n/a	n/a	n/a	n/a	9	4	2	3	n/a	n/a	n/a	n/a	n/a
2352.758	n/a	PROB	1176379	n/a	LTP070	ltpFR	8	n/a	n/a	n/a	n/a	n/a	n/a	n/a	14	2	8	6	n/a	n/a	n/a	n/a	n/a
2354.782	n/a	PROB	1177391	n/a	LTP070	ltpFR	8	n/a	n/a	n/a	n/a	n/a	n/a	n/a	22	6	9	7	n/a	n/a	n/a	n/a	n/a
2363.826	n/a	STOP	1181913	n/a	LTP070	ltpFR	8	n/a	n/a	n/a	n/a	n/a	n/a	n/a	n/a	n/a	n/a	n/a	n/a	n/a	n/a	n/a	n/a
2364.666	n/a	WORD	1182333	wordpools/wasnorm_wordpool.txt	LTP070	ltpFR	8	9	0	GRAVE	658	n/a	n/a	1	n/a	0	0	0	0.422607421875	0.5869140625	0	upper	zerothre.ttf
2367.674	n/a	START	1183837	n/a	LTP070	ltpFR	8	n/a	n/a	n/a	n/a	n/a	n/a	n/a	n/a	n/a	n/a	n/a	n/a	n/a	n/a	n/a	n/a
2368.774	n/a	PROB	1184387	n/a	LTP070	ltpFR	8	n/a	n/a	n/a	n/a	n/a	n/a	n/a	24	9	6	9	n/a	n/a	n/a	n/a	n/a
2372.09	n/a	PROB	1186045	n/a	LTP070	ltpFR	8	n/a	n/a	n/a	n/a	n/a	n/a	n/a	16	5	9	2	n/a	n/a	n/a	n/a	n/a
2374.798	n/a	PROB	1187399	n/a	LTP070	ltpFR	8	n/a	n/a	n/a	n/a	n/a	n/a	n/a	24	8	8	8	n/a	n/a	n/a	n/a	n/a
2376.64	n/a	PROB	1188320	n/a	LTP070	ltpFR	8	n/a	n/a	n/a	n/a	n/a	n/a	n/a	14	6	3	5	n/a	n/a	n/a	n/a	n/a
2378.99	n/a	PROB	1189495	n/a	LTP070	ltpFR	8	n/a	n/a	n/a	n/a	n/a	n/a	n/a	6	1	1	4	n/a	n/a	n/a	n/a	n/a
2383.676	n/a	STOP	1191838	n/a	LTP070	ltpFR	8	n/a	n/a	n/a	n/a	n/a	n/a	n/a	n/a	n/a	n/a	n/a	n/a	n/a	n/a	n/a	n/a
2384.616	n/a	WORD	1192308	wordpools/wasnorm_wordpool.txt	LTP070	ltpFR	8	9	0	BROOK	177	n/a	n/a	1	n/a	0	0	0	0.422607421875	0.5869140625	0	upper	zerothre.ttf
2387.616	n/a	START	1193808	n/a	LTP070	ltpFR	8	n/a	n/a	n/a	n/a	n/a	n/a	n/a	n/a	n/a	n/a	n/a	n/a	n/a	n/a	n/a	n/a
2388.732	n/a	PROB	1194366	n/a	LTP070	ltpFR	8	n/a	n/a	n/a	n/a	n/a	n/a	n/a	16	1	7	8	n/a	n/a	n/a	n/a	n/a
2390.44	n/a	PROB	1195220	n/a	LTP070	ltpFR	8	n/a	n/a	n/a	n/a	n/a	n/a	n/a	23	8	9	6	n/a	n/a	n/a	n/a	n/a
2393.598	n/a	PROB	1196799	n/a	LTP070	ltpFR	8	n/a	n/a	n/a	n/a	n/a	n/a	n/a	16	7	2	7	n/a	n/a	n/a	n/a	n/a
2395.89	n/a	PROB	1197945	n/a	LTP070	ltpFR	8	n/a	n/a	n/a	n/a	n/a	n/a	n/a	12	7	1	4	n/a	n/a	n/a	n/a	n/a
2399.698	n/a	PROB	1199849	n/a	LTP070	ltpFR	8	n/a	n/a	n/a	n/a	n/a	n/a	n/a	14	5	2	7	n/a	n/a	n/a	n/a	n/a
2402.142	n/a	STOP	1201071	n/a	LTP070	ltpFR	8	n/a	n/a	n/a	n/a	n/a	n/a	n/a	n/a	n/a	n/a	n/a	n/a	n/a	n/a	n/a	n/a
2404.716	n/a	WORD	1202358	wordpools/wasnorm_wordpool.txt	LTP070	ltpFR	8	9	0	ELK	526	n/a	n/a	1	n/a	0	0	0	0.422607421875	0.5869140625	0	upper	zerothre.ttf
2407.724	n/a	START	1203862	n/a	LTP070	ltpFR	8	n/a	n/a	n/a	n/a	n/a	n/a	n/a	n/a	n/a	n/a	n/a	n/a	n/a	n/a	n/a	n/a
2408.88	n/a	PROB	1204440	n/a	LTP070	ltpFR	8	n/a	n/a	n/a	n/a	n/a	n/a	n/a	11	2	6	3	n/a	n/a	n/a	n/a	n/a
2412.106	n/a	PROB	1206053	n/a	LTP070	ltpFR	8	n/a	n/a	n/a	n/a	n/a	n/a	n/a	11	5	4	2	n/a	n/a	n/a	n/a	n/a
2414.398	n/a	PROB	1207199	n/a	LTP070	ltpFR	8	n/a	n/a	n/a	n/a	n/a	n/a	n/a	23	8	7	8	n/a	n/a	n/a	n/a	n/a
2418.772	n/a	PROB	1209386	n/a	LTP070	ltpFR	8	n/a	n/a	n/a	n/a	n/a	n/a	n/a	17	6	3	8	n/a	n/a	n/a	n/a	n/a
2423.724	n/a	STOP	1211862	n/a	LTP070	ltpFR	8	n/a	n/a	n/a	n/a	n/a	n/a	n/a	n/a	n/a	n/a	n/a	n/a	n/a	n/a	n/a	n/a
2424.63	n/a	WORD	1212315	wordpools/wasnorm_wordpool.txt	LTP070	ltpFR	8	9	0	WICK	1607	n/a	n/a	0	n/a	0	0	0	0.422607421875	0.5869140625	0	upper	zerothre.ttf
2427.64	n/a	START	1213820	n/a	LTP070	ltpFR	8	n/a	n/a	n/a	n/a	n/a	n/a	n/a	n/a	n/a	n/a	n/a	n/a	n/a	n/a	n/a	n/a
2428.698	n/a	PROB	1214349	n/a	LTP070	ltpFR	8	n/a	n/a	n/a	n/a	n/a	n/a	n/a	12	7	4	1	n/a	n/a	n/a	n/a	n/a
2432.148	n/a	PROB	1216074	n/a	LTP070	ltpFR	8	n/a	n/a	n/a	n/a	n/a	n/a	n/a	13	9	1	3	n/a	n/a	n/a	n/a	n/a
2434.24	n/a	PROB	1217120	n/a	LTP070	ltpFR	8	n/a	n/a	n/a	n/a	n/a	n/a	n/a	13	4	1	8	n/a	n/a	n/a	n/a	n/a
2437.514	n/a	PROB	1218757	n/a	LTP070	ltpFR	8	n/a	n/a	n/a	n/a	n/a	n/a	n/a	23	8	7	8	n/a	n/a	n/a	n/a	n/a
2443.64	n/a	STOP	1221820	n/a	LTP070	ltpFR	8	n/a	n/a	n/a	n/a	n/a	n/a	n/a	n/a	n/a	n/a	n/a	n/a	n/a	n/a	n/a	n/a
2444.514	n/a	WORD	1222257	wordpools/wasnorm_wordpool.txt	LTP070	ltpFR	8	9	1	SWITCH	1422	n/a	n/a	0	n/a	0	0	0	0.57763671875	0.412841796875	1	lower	amplitud.ttf
2447.524	n/a	START	1223762	n/a	LTP070	ltpFR	8	n/a	n/a	n/a	n/a	n/a	n/a	n/a	n/a	n/a	n/a	n/a	n/a	n/a	n/a	n/a	n/a
2448.614	n/a	PROB	1224307	n/a	LTP070	ltpFR	8	n/a	n/a	n/a	n/a	n/a	n/a	n/a	15	8	3	4	n/a	n/a	n/a	n/a	n/a
2450.53	n/a	PROB	1225265	n/a	LTP070	ltpFR	8	n/a	n/a	n/a	n/a	n/a	n/a	n/a	11	4	5	2	n/a	n/a	n/a	n/a	n/a
2453.356	n/a	PROB	1226678	n/a	LTP070	ltpFR	8	n/a	n/a	n/a	n/a	n/a	n/a	n/a	17	4	7	6	n/a	n/a	n/a	n/a	n/a
2455.78	n/a	PROB	1227890	n/a	LTP070	ltpFR	8	n/a	n/a	n/a	n/a	n/a	n/a	n/a	16	8	7	1	n/a	n/a	n/a	n/a	n/a
2457.796	n/a	PROB	1228898	n/a	LTP070	ltpFR	8	n/a	n/a	n/a	n/a	n/a	n/a	n/a	21	8	9	4	n/a	n/a	n/a	n/a	n/a
2463.522	n/a	STOP	1231761	n/a	LTP070	ltpFR	8	n/a	n/a	n/a	n/a	n/a	n/a	n/a	n/a	n/a	n/a	n/a	n/a	n/a	n/a	n/a	n/a
2464.572	n/a	WORD	1232286	wordpools/wasnorm_wordpool.txt	LTP070	ltpFR	8	9	1	BARTENDER	92	n/a	n/a	0	n/a	0	0	0	0.57763671875	0.412841796875	1	lower	amplitud.ttf
2467.58	n/a	START	1233790	n/a	LTP070	ltpFR	8	n/a	n/a	n/a	n/a	n/a	n/a	n/a	n/a	n/a	n/a	n/a	n/a	n/a	n/a	n/a	n/a
2468.498	n/a	PROB	1234249	n/a	LTP070	ltpFR	8	n/a	n/a	n/a	n/a	n/a	n/a	n/a	22	5	9	8	n/a	n/a	n/a	n/a	n/a
2472.664	n/a	PROB	1236332	n/a	LTP070	ltpFR	8	n/a	n/a	n/a	n/a	n/a	n/a	n/a	15	1	8	6	n/a	n/a	n/a	n/a	n/a
2474.87	n/a	PROB	1237435	n/a	LTP070	ltpFR	8	n/a	n/a	n/a	n/a	n/a	n/a	n/a	26	9	9	8	n/a	n/a	n/a	n/a	n/a
2478.046	n/a	PROB	1239023	n/a	LTP070	ltpFR	8	n/a	n/a	n/a	n/a	n/a	n/a	n/a	20	8	4	8	n/a	n/a	n/a	n/a	n/a
2483.582	n/a	STOP	1241791	n/a	LTP070	ltpFR	8	n/a	n/a	n/a	n/a	n/a	n/a	n/a	n/a	n/a	n/a	n/a	n/a	n/a	n/a	n/a	n/a
2484.712	n/a	WORD	1242356	wordpools/wasnorm_wordpool.txt	LTP070	ltpFR	8	9	1	PROFESSIONAL	1130	n/a	n/a	1	n/a	0	0	0	0.57763671875	0.412841796875	1	lower	amplitud.ttf
2487.722	n/a	START	1243861	n/a	LTP070	ltpFR	8	n/a	n/a	n/a	n/a	n/a	n/a	n/a	n/a	n/a	n/a	n/a	n/a	n/a	n/a	n/a	n/a
2488.746	n/a	PROB	1244373	n/a	LTP070	ltpFR	8	n/a	n/a	n/a	n/a	n/a	n/a	n/a	18	6	8	4	n/a	n/a	n/a	n/a	n/a
2491.096	n/a	PROB	1245548	n/a	LTP070	ltpFR	8	n/a	n/a	n/a	n/a	n/a	n/a	n/a	15	2	6	7	n/a	n/a	n/a	n/a	n/a
2495.122	n/a	PROB	1247561	n/a	LTP070	ltpFR	8	n/a	n/a	n/a	n/a	n/a	n/a	n/a	19	2	9	8	n/a	n/a	n/a	n/a	n/a
2497.404	n/a	PROB	1248702	n/a	LTP070	ltpFR	8	n/a	n/a	n/a	n/a	n/a	n/a	n/a	18	1	8	9	n/a	n/a	n/a	n/a	n/a
2499.638	n/a	PROB	1249819	n/a	LTP070	ltpFR	8	n/a	n/a	n/a	n/a	n/a	n/a	n/a	15	4	4	7	n/a	n/a	n/a	n/a	n/a
2502.73	n/a	STOP	1251365	n/a	LTP070	ltpFR	8	n/a	n/a	n/a	n/a	n/a	n/a	n/a	n/a	n/a	n/a	n/a	n/a	n/a	n/a	n/a	n/a
2504.62	n/a	WORD	1252310	wordpools/wasnorm_wordpool.txt	LTP070	ltpFR	8	9	1	BEAVER	109	n/a	n/a	1	n/a	0	0	0	0.57763671875	0.412841796875	1	lower	amplitud.ttf
2507.628	n/a	START	1253814	n/a	LTP070	ltpFR	8	n/a	n/a	n/a	n/a	n/a	n/a	n/a	n/a	n/a	n/a	n/a	n/a	n/a	n/a	n/a	n/a
2508.536	n/a	PROB	1254268	n/a	LTP070	ltpFR	8	n/a	n/a	n/a	n/a	n/a	n/a	n/a	17	7	8	2	n/a	n/a	n/a	n/a	n/a
2510.472	n/a	PROB	1255236	n/a	LTP070	ltpFR	8	n/a	n/a	n/a	n/a	n/a	n/a	n/a	14	4	3	7	n/a	n/a	n/a	n/a	n/a
2512.562	n/a	PROB	1256281	n/a	LTP070	ltpFR	8	n/a	n/a	n/a	n/a	n/a	n/a	n/a	19	7	6	6	n/a	n/a	n/a	n/a	n/a
2515.296	n/a	PROB	1257648	n/a	LTP070	ltpFR	8	n/a	n/a	n/a	n/a	n/a	n/a	n/a	17	4	8	5	n/a	n/a	n/a	n/a	n/a
2517.754	n/a	PROB	1258877	n/a	LTP070	ltpFR	8	n/a	n/a	n/a	n/a	n/a	n/a	n/a	15	6	6	3	n/a	n/a	n/a	n/a	n/a
2523.63	n/a	STOP	1261815	n/a	LTP070	ltpFR	8	n/a	n/a	n/a	n/a	n/a	n/a	n/a	n/a	n/a	n/a	n/a	n/a	n/a	n/a	n/a	n/a
2525.37	n/a	REC_START	1262685	n/a	LTP070	ltpFR	8	9	n/a	n/a	n/a	n/a	n/a	n/a	n/a	0	0	0	n/a	n/a	n/a	n/a	n/a
2527.27	n/a	REC_WORD	1263635	wordpools/wasnorm_wordpool.txt	LTP070	ltpFR	8	9	0	ELK	526	n/a	n/a	1	n/a	0	0	0	n/a	n/a	n/a	n/a	n/a
2529.486	n/a	REC_WORD	1264743	wordpools/wasnorm_wordpool.txt	LTP070	ltpFR	8	9	1	BEAVER	109	n/a	n/a	1	n/a	0	0	0	n/a	n/a	n/a	n/a	n/a
2531.528	n/a	REC_WORD	1265764	wordpools/wasnorm_wordpool.txt	LTP070	ltpFR	8	9	0	WICK	1607	n/a	n/a	0	n/a	0	0	0	n/a	n/a	n/a	n/a	n/a
2536.286	n/a	REC_WORD	1268143	wordpools/wasnorm_wordpool.txt	LTP070	ltpFR	8	9	1	PROFESSIONAL	1130	n/a	n/a	1	n/a	0	0	0	n/a	n/a	n/a	n/a	n/a
2607.618	n/a	WORD	1303809	wordpools/wasnorm_wordpool.txt	LTP070	ltpFR	8	10	1	CUE	422	n/a	n/a	0	n/a	0	0	0	0.57763671875	0.412841796875	1	lower	amplitud.ttf
2611.576	n/a	WORD	1305788	wordpools/wasnorm_wordpool.txt	LTP070	ltpFR	8	10	1	RIVER	1194	n/a	n/a	0	n/a	0	0	0	0.57763671875	0.412841796875	1	lower	amplitud.ttf
2615.544	n/a	WORD	1307772	wordpools/wasnorm_wordpool.txt	LTP070	ltpFR	8	10	1	WAITER	1580	n/a	n/a	1	n/a	0	0	0	0.57763671875	0.412841796875	1	lower	amplitud.ttf
2619.752	n/a	WORD	1309876	wordpools/wasnorm_wordpool.txt	LTP070	ltpFR	8	10	1	PLUTO	1092	n/a	n/a	0	n/a	0	0	0	0.57763671875	0.412841796875	1	lower	amplitud.ttf
2623.652	n/a	WORD	1311826	wordpools/wasnorm_wordpool.txt	LTP070	ltpFR	8	10	1	CLIMBER	323	n/a	n/a	1	n/a	0	0	0	0.57763671875	0.412841796875	1	lower	amplitud.ttf
2627.726	n/a	WORD	1313863	wordpools/wasnorm_wordpool.txt	LTP070	ltpFR	8	10	0	HIKER	708	n/a	n/a	1	n/a	0	0	0	0.422607421875	0.5869140625	0	upper	zerothre.ttf
2631.85	n/a	WORD	1315925	wordpools/wasnorm_wordpool.txt	LTP070	ltpFR	8	10	0	MUSHROOM	934	n/a	n/a	0	n/a	0	0	0	0.422607421875	0.5869140625	0	upper	zerothre.ttf
2635.784	n/a	WORD	1317892	wordpools/wasnorm_wordpool.txt	LTP070	ltpFR	8	10	1	SPONGE	1355	n/a	n/a	0	n/a	0	0	0	0.57763671875	0.412841796875	1	lower	amplitud.ttf
2639.768	n/a	WORD	1319884	wordpools/wasnorm_wordpool.txt	LTP070	ltpFR	8	10	1	NEPTUNE	943	n/a	n/a	0	n/a	0	0	0	0.57763671875	0.412841796875	1	lower	amplitud.ttf
2643.95	n/a	WORD	1321975	wordpools/wasnorm_wordpool.txt	LTP070	ltpFR	8	10	1	PUZZLE	1146	n/a	n/a	0	n/a	0	0	0	0.57763671875	0.412841796875	1	lower	amplitud.ttf
2647.916	n/a	WORD	1323958	wordpools/wasnorm_wordpool.txt	LTP070	ltpFR	8	10	0	WORM	1623	n/a	n/a	0	n/a	0	0	0	0.422607421875	0.5869140625	0	upper	zerothre.ttf
2652.066	n/a	WORD	1326033	wordpools/wasnorm_wordpool.txt	LTP070	ltpFR	8	10	0	INTESTINE	742	n/a	n/a	0	n/a	0	0	0	0.422607421875	0.5869140625	0	upper	zerothre.ttf
2656.25	n/a	WORD	1328125	wordpools/wasnorm_wordpool.txt	LTP070	ltpFR	8	10	0	CORK	380	n/a	n/a	0	n/a	0	0	0	0.422607421875	0.5869140625	0	upper	zerothre.ttf
2660.384	n/a	WORD	1330192	wordpools/wasnorm_wordpool.txt	LTP070	ltpFR	8	10	0	PUMP	1141	n/a	n/a	0	n/a	0	0	0	0.422607421875	0.5869140625	0	upper	zerothre.ttf
2664.566	n/a	WORD	1332283	wordpools/wasnorm_wordpool.txt	LTP070	ltpFR	8	10	0	DRYER	503	n/a	n/a	1	n/a	0	0	0	0.422607421875	0.5869140625	0	upper	zerothre.ttf
2668.484	n/a	WORD	1334242	wordpools/wasnorm_wordpool.txt	LTP070	ltpFR	8	10	0	LAUNDRY	803	n/a	n/a	1	n/a	0	0	0	0.422607421875	0.5869140625	0	upper	zerothre.ttf
2671.492	n/a	START	1335746	n/a	LTP070	ltpFR	8	n/a	n/a	n/a	n/a	n/a	n/a	n/a	n/a	n/a	n/a	n/a	n/a	n/a	n/a	n/a	n/a
2672.424	n/a	PROB	1336212	n/a	LTP070	ltpFR	8	n/a	n/a	n/a	n/a	n/a	n/a	n/a	9	2	4	3	n/a	n/a	n/a	n/a	n/a
2675.208	n/a	PROB	1337604	n/a	LTP070	ltpFR	8	n/a	n/a	n/a	n/a	n/a	n/a	n/a	12	2	1	9	n/a	n/a	n/a	n/a	n/a
2677.292	n/a	PROB	1338646	n/a	LTP070	ltpFR	8	n/a	n/a	n/a	n/a	n/a	n/a	n/a	14	3	9	2	n/a	n/a	n/a	n/a	n/a
2679.35	n/a	PROB	1339675	n/a	LTP070	ltpFR	8	n/a	n/a	n/a	n/a	n/a	n/a	n/a	20	6	7	7	n/a	n/a	n/a	n/a	n/a
2682.75	n/a	PROB	1341375	n/a	LTP070	ltpFR	8	n/a	n/a	n/a	n/a	n/a	n/a	n/a	12	7	4	1	n/a	n/a	n/a	n/a	n/a
2686.572	n/a	STOP	1343286	n/a	LTP070	ltpFR	8	n/a	n/a	n/a	n/a	n/a	n/a	n/a	n/a	n/a	n/a	n/a	n/a	n/a	n/a	n/a	n/a
2689.276	n/a	REC_START	1344638	n/a	LTP070	ltpFR	8	10	n/a	n/a	n/a	n/a	n/a	n/a	n/a	0	0	0	n/a	n/a	n/a	n/a	n/a
2692.752	n/a	REC_WORD	1346376	wordpools/wasnorm_wordpool.txt	LTP070	ltpFR	8	10	0	DRYER	503	n/a	n/a	1	n/a	0	0	0	n/a	n/a	n/a	n/a	n/a
2694.508	n/a	REC_WORD	1347254	wordpools/wasnorm_wordpool.txt	LTP070	ltpFR	8	10	0	LAUNDRY	803	n/a	n/a	1	n/a	0	0	0	n/a	n/a	n/a	n/a	n/a
2697.008	n/a	REC_WORD	1348504	wordpools/wasnorm_wordpool.txt	LTP070	ltpFR	8	10	0	CORK	380	n/a	n/a	0	n/a	0	0	0	n/a	n/a	n/a	n/a	n/a
2701.942	n/a	REC_WORD	1350971	wordpools/wasnorm_wordpool.txt	LTP070	ltpFR	8	10	1	PLUTO	1092	n/a	n/a	0	n/a	0	0	0	n/a	n/a	n/a	n/a	n/a
2703.534	n/a	REC_WORD	1351767	wordpools/wasnorm_wordpool.txt	LTP070	ltpFR	8	10	1	NEPTUNE	943	n/a	n/a	0	n/a	0	0	0	n/a	n/a	n/a	n/a	n/a
2709.086	n/a	REC_WORD	1354543	wordpools/wasnorm_wordpool.txt	LTP070	ltpFR	8	10	1	CLIMBER	323	n/a	n/a	1	n/a	0	0	0	n/a	n/a	n/a	n/a	n/a
2710.254	n/a	REC_WORD	1355127	wordpools/wasnorm_wordpool.txt	LTP070	ltpFR	8	10	0	HIKER	708	n/a	n/a	1	n/a	0	0	0	n/a	n/a	n/a	n/a	n/a
2716.61	n/a	REC_WORD	1358305	wordpools/wasnorm_wordpool.txt	LTP070	ltpFR	8	10	0	INTESTINE	742	n/a	n/a	0	n/a	0	0	0	n/a	n/a	n/a	n/a	n/a
2720.272	n/a	REC_WORD	1360136	wordpools/wasnorm_wordpool.txt	LTP070	ltpFR	8	10	0	MUSHROOM	934	n/a	n/a	0	n/a	0	0	0	n/a	n/a	n/a	n/a	n/a
2736.106	n/a	REC_WORD	1368053	wordpools/wasnorm_wordpool.txt	LTP070	ltpFR	8	10	1	PUZZLE	1146	n/a	n/a	0	n/a	0	0	0	n/a	n/a	n/a	n/a	n/a
2766.582	n/a	START	1383291	n/a	LTP070	ltpFR	8	n/a	n/a	n/a	n/a	n/a	n/a	n/a	n/a	n/a	n/a	n/a	n/a	n/a	n/a	n/a	n/a
2768.09	n/a	PROB	1384045	n/a	LTP070	ltpFR	8	n/a	n/a	n/a	n/a	n/a	n/a	n/a	15	4	8	3	n/a	n/a	n/a	n/a	n/a
2770.532	n/a	PROB	1385266	n/a	LTP070	ltpFR	8	n/a	n/a	n/a	n/a	n/a	n/a	n/a	14	7	6	3	n/a	n/a	n/a	n/a	n/a
2773.432	n/a	STOP	1386716	n/a	LTP070	ltpFR	8	n/a	n/a	n/a	n/a	n/a	n/a	n/a	n/a	n/a	n/a	n/a	n/a	n/a	n/a	n/a	n/a
2775.58	n/a	WORD	1387790	wordpools/wasnorm_wordpool.txt	LTP070	ltpFR	8	11	0	DETECTIVE	454	n/a	n/a	1	n/a	0	0	0	0.422607421875	0.5869140625	0	upper	zerothre.ttf
2778.59	n/a	START	1389295	n/a	LTP070	ltpFR	8	n/a	n/a	n/a	n/a	n/a	n/a	n/a	n/a	n/a	n/a	n/a	n/a	n/a	n/a	n/a	n/a
2779.764	n/a	PROB	1389882	n/a	LTP070	ltpFR	8	n/a	n/a	n/a	n/a	n/a	n/a	n/a	14	6	7	1	n/a	n/a	n/a	n/a	n/a
2782.664	n/a	PROB	1391332	n/a	LTP070	ltpFR	8	n/a	n/a	n/a	n/a	n/a	n/a	n/a	9	3	3	3	n/a	n/a	n/a	n/a	n/a
2786.59	n/a	STOP	1393295	n/a	LTP070	ltpFR	8	n/a	n/a	n/a	n/a	n/a	n/a	n/a	n/a	n/a	n/a	n/a	n/a	n/a	n/a	n/a	n/a
2787.53	n/a	WORD	1393765	wordpools/wasnorm_wordpool.txt	LTP070	ltpFR	8	11	0	DEPUTY	450	n/a	n/a	1	n/a	0	0	0	0.422607421875	0.5869140625	0	upper	zerothre.ttf
2790.54	n/a	START	1395270	n/a	LTP070	ltpFR	8	n/a	n/a	n/a	n/a	n/a	n/a	n/a	n/a	n/a	n/a	n/a	n/a	n/a	n/a	n/a	n/a
2791.406	n/a	PROB	1395703	n/a	LTP070	ltpFR	8	n/a	n/a	n/a	n/a	n/a	n/a	n/a	12	2	2	8	n/a	n/a	n/a	n/a	n/a
2794.048	n/a	PROB	1397024	n/a	LTP070	ltpFR	8	n/a	n/a	n/a	n/a	n/a	n/a	n/a	12	6	5	1	n/a	n/a	n/a	n/a	n/a
2797.176	n/a	STOP	1398588	n/a	LTP070	ltpFR	8	n/a	n/a	n/a	n/a	n/a	n/a	n/a	n/a	n/a	n/a	n/a	n/a	n/a	n/a	n/a	n/a
2799.504	n/a	WORD	1399752	wordpools/wasnorm_wordpool.txt	LTP070	ltpFR	8	11	0	PLUMBER	1091	n/a	n/a	1	n/a	0	0	0	0.422607421875	0.5869140625	0	upper	zerothre.ttf
2802.514	n/a	START	1401257	n/a	LTP070	ltpFR	8	n/a	n/a	n/a	n/a	n/a	n/a	n/a	n/a	n/a	n/a	n/a	n/a	n/a	n/a	n/a	n/a
2803.462	n/a	PROB	1401731	n/a	LTP070	ltpFR	8	n/a	n/a	n/a	n/a	n/a	n/a	n/a	11	3	3	5	n/a	n/a	n/a	n/a	n/a
2805.88	n/a	PROB	1402940	n/a	LTP070	ltpFR	8	n/a	n/a	n/a	n/a	n/a	n/a	n/a	17	2	6	9	n/a	n/a	n/a	n/a	n/a
2810.514	n/a	STOP	1405257	n/a	LTP070	ltpFR	8	n/a	n/a	n/a	n/a	n/a	n/a	n/a	n/a	n/a	n/a	n/a	n/a	n/a	n/a	n/a	n/a
2811.688	n/a	WORD	1405844	wordpools/wasnorm_wordpool.txt	LTP070	ltpFR	8	11	0	GIRAFFE	636	n/a	n/a	1	n/a	0	0	0	0.422607421875	0.5869140625	0	upper	zerothre.ttf
2814.698	n/a	START	1407349	n/a	LTP070	ltpFR	8	n/a	n/a	n/a	n/a	n/a	n/a	n/a	n/a	n/a	n/a	n/a	n/a	n/a	n/a	n/a	n/a
2815.754	n/a	PROB	1407877	n/a	LTP070	ltpFR	8	n/a	n/a	n/a	n/a	n/a	n/a	n/a	12	4	2	6	n/a	n/a	n/a	n/a	n/a
2817.696	n/a	PROB	1408848	n/a	LTP070	ltpFR	8	n/a	n/a	n/a	n/a	n/a	n/a	n/a	14	6	3	5	n/a	n/a	n/a	n/a	n/a
2822.698	n/a	STOP	1411349	n/a	LTP070	ltpFR	8	n/a	n/a	n/a	n/a	n/a	n/a	n/a	n/a	n/a	n/a	n/a	n/a	n/a	n/a	n/a	n/a
2823.596	n/a	WORD	1411798	wordpools/wasnorm_wordpool.txt	LTP070	ltpFR	8	11	0	ROOST	1208	n/a	n/a	0	n/a	0	0	0	0.422607421875	0.5869140625	0	upper	zerothre.ttf
2826.606	n/a	START	1413303	n/a	LTP070	ltpFR	8	n/a	n/a	n/a	n/a	n/a	n/a	n/a	n/a	n/a	n/a	n/a	n/a	n/a	n/a	n/a	n/a
2827.638	n/a	PROB	1413819	n/a	LTP070	ltpFR	8	n/a	n/a	n/a	n/a	n/a	n/a	n/a	10	3	2	5	n/a	n/a	n/a	n/a	n/a
2829.912	n/a	PROB	1414956	n/a	LTP070	ltpFR	8	n/a	n/a	n/a	n/a	n/a	n/a	n/a	17	4	7	6	n/a	n/a	n/a	n/a	n/a
2834.606	n/a	STOP	1417303	n/a	LTP070	ltpFR	8	n/a	n/a	n/a	n/a	n/a	n/a	n/a	n/a	n/a	n/a	n/a	n/a	n/a	n/a	n/a	n/a
2835.804	n/a	WORD	1417902	wordpools/wasnorm_wordpool.txt	LTP070	ltpFR	8	11	0	QUILL	1150	n/a	n/a	0	n/a	0	0	0	0.422607421875	0.5869140625	0	upper	zerothre.ttf
2838.812	n/a	START	1419406	n/a	LTP070	ltpFR	8	n/a	n/a	n/a	n/a	n/a	n/a	n/a	n/a	n/a	n/a	n/a	n/a	n/a	n/a	n/a	n/a
2839.844	n/a	PROB	1419922	n/a	LTP070	ltpFR	8	n/a	n/a	n/a	n/a	n/a	n/a	n/a	23	9	9	5	n/a	n/a	n/a	n/a	n/a
2842.02	n/a	PROB	1421010	n/a	LTP070	ltpFR	8	n/a	n/a	n/a	n/a	n/a	n/a	n/a	13	7	1	5	n/a	n/a	n/a	n/a	n/a
2846.812	n/a	STOP	1423406	n/a	LTP070	ltpFR	8	n/a	n/a	n/a	n/a	n/a	n/a	n/a	n/a	n/a	n/a	n/a	n/a	n/a	n/a	n/a	n/a
2847.696	n/a	WORD	1423848	wordpools/wasnorm_wordpool.txt	LTP070	ltpFR	8	11	0	RAISIN	1163	n/a	n/a	0	n/a	0	0	0	0.422607421875	0.5869140625	0	upper	zerothre.ttf
2850.704	n/a	START	1425352	n/a	LTP070	ltpFR	8	n/a	n/a	n/a	n/a	n/a	n/a	n/a	n/a	n/a	n/a	n/a	n/a	n/a	n/a	n/a	n/a
2851.796	n/a	PROB	1425898	n/a	LTP070	ltpFR	8	n/a	n/a	n/a	n/a	n/a	n/a	n/a	20	9	9	2	n/a	n/a	n/a	n/a	n/a
2854.588	n/a	PROB	1427294	n/a	LTP070	ltpFR	8	n/a	n/a	n/a	n/a	n/a	n/a	n/a	16	2	7	7	n/a	n/a	n/a	n/a	n/a
2857.17	n/a	PROB	1428585	n/a	LTP070	ltpFR	8	n/a	n/a	n/a	n/a	n/a	n/a	n/a	6	1	1	4	n/a	n/a	n/a	n/a	n/a
2858.412	n/a	STOP	1429206	n/a	LTP070	ltpFR	8	n/a	n/a	n/a	n/a	n/a	n/a	n/a	n/a	n/a	n/a	n/a	n/a	n/a	n/a	n/a	n/a
2859.902	n/a	WORD	1429951	wordpools/wasnorm_wordpool.txt	LTP070	ltpFR	8	11	0	MANAGER	863	n/a	n/a	1	n/a	0	0	0	0.422607421875	0.5869140625	0	upper	zerothre.ttf
2862.912	n/a	START	1431456	n/a	LTP070	ltpFR	8	n/a	n/a	n/a	n/a	n/a	n/a	n/a	n/a	n/a	n/a	n/a	n/a	n/a	n/a	n/a	n/a
2863.978	n/a	PROB	1431989	n/a	LTP070	ltpFR	8	n/a	n/a	n/a	n/a	n/a	n/a	n/a	11	1	7	3	n/a	n/a	n/a	n/a	n/a
2866.678	n/a	PROB	1433339	n/a	LTP070	ltpFR	8	n/a	n/a	n/a	n/a	n/a	n/a	n/a	14	3	2	9	n/a	n/a	n/a	n/a	n/a
2870.912	n/a	STOP	1435456	n/a	LTP070	ltpFR	8	n/a	n/a	n/a	n/a	n/a	n/a	n/a	n/a	n/a	n/a	n/a	n/a	n/a	n/a	n/a	n/a
2871.778	n/a	WORD	1435889	wordpools/wasnorm_wordpool.txt	LTP070	ltpFR	8	11	0	AUTOMOBILE	62	n/a	n/a	0	n/a	0	0	0	0.422607421875	0.5869140625	0	upper	zerothre.ttf
2874.788	n/a	START	1437394	n/a	LTP070	ltpFR	8	n/a	n/a	n/a	n/a	n/a	n/a	n/a	n/a	n/a	n/a	n/a	n/a	n/a	n/a	n/a	n/a
2875.894	n/a	PROB	1437947	n/a	LTP070	ltpFR	8	n/a	n/a	n/a	n/a	n/a	n/a	n/a	21	6	7	9	n/a	n/a	n/a	n/a	n/a
2878.786	n/a	PROB	1439393	n/a	LTP070	ltpFR	8	n/a	n/a	n/a	n/a	n/a	n/a	n/a	9	1	3	5	n/a	n/a	n/a	n/a	n/a
2882.052	n/a	STOP	1441026	n/a	LTP070	ltpFR	8	n/a	n/a	n/a	n/a	n/a	n/a	n/a	n/a	n/a	n/a	n/a	n/a	n/a	n/a	n/a	n/a
2883.694	n/a	WORD	1441847	wordpools/wasnorm_wordpool.txt	LTP070	ltpFR	8	11	0	NOTEBOOK	959	n/a	n/a	0	n/a	0	0	0	0.422607421875	0.5869140625	0	upper	zerothre.ttf
2886.704	n/a	START	1443352	n/a	LTP070	ltpFR	8	n/a	n/a	n/a	n/a	n/a	n/a	n/a	n/a	n/a	n/a	n/a	n/a	n/a	n/a	n/a	n/a
2887.844	n/a	PROB	1443922	n/a	LTP070	ltpFR	8	n/a	n/a	n/a	n/a	n/a	n/a	n/a	18	9	1	8	n/a	n/a	n/a	n/a	n/a
2890.028	n/a	PROB	1445014	n/a	LTP070	ltpFR	8	n/a	n/a	n/a	n/a	n/a	n/a	n/a	19	7	3	9	n/a	n/a	n/a	n/a	n/a
2891.662	n/a	PROB	1445831	n/a	LTP070	ltpFR	8	n/a	n/a	n/a	n/a	n/a	n/a	n/a	15	1	9	5	n/a	n/a	n/a	n/a	n/a
2893.63	n/a	STOP	1446815	n/a	LTP070	ltpFR	8	n/a	n/a	n/a	n/a	n/a	n/a	n/a	n/a	n/a	n/a	n/a	n/a	n/a	n/a	n/a	n/a
2895.652	n/a	WORD	1447826	wordpools/wasnorm_wordpool.txt	LTP070	ltpFR	8	11	0	DOUGH	489	n/a	n/a	0	n/a	0	0	0	0.422607421875	0.5869140625	0	upper	zerothre.ttf
2898.654	n/a	START	1449327	n/a	LTP070	ltpFR	8	n/a	n/a	n/a	n/a	n/a	n/a	n/a	n/a	n/a	n/a	n/a	n/a	n/a	n/a	n/a	n/a
2899.736	n/a	PROB	1449868	n/a	LTP070	ltpFR	8	n/a	n/a	n/a	n/a	n/a	n/a	n/a	17	3	9	5	n/a	n/a	n/a	n/a	n/a
2902.186	n/a	PROB	1451093	n/a	LTP070	ltpFR	8	n/a	n/a	n/a	n/a	n/a	n/a	n/a	10	3	3	4	n/a	n/a	n/a	n/a	n/a
2905.134	n/a	STOP	1452567	n/a	LTP070	ltpFR	8	n/a	n/a	n/a	n/a	n/a	n/a	n/a	n/a	n/a	n/a	n/a	n/a	n/a	n/a	n/a	n/a
2907.486	n/a	WORD	1453743	wordpools/wasnorm_wordpool.txt	LTP070	ltpFR	8	11	0	DUST	508	n/a	n/a	0	n/a	0	0	0	0.422607421875	0.5869140625	0	upper	zerothre.ttf
2910.496	n/a	START	1455248	n/a	LTP070	ltpFR	8	n/a	n/a	n/a	n/a	n/a	n/a	n/a	n/a	n/a	n/a	n/a	n/a	n/a	n/a	n/a	n/a
2911.644	n/a	PROB	1455822	n/a	LTP070	ltpFR	8	n/a	n/a	n/a	n/a	n/a	n/a	n/a	15	8	3	4	n/a	n/a	n/a	n/a	n/a
2913.52	n/a	PROB	1456760	n/a	LTP070	ltpFR	8	n/a	n/a	n/a	n/a	n/a	n/a	n/a	17	3	8	5	n/a	n/a	n/a	n/a	n/a
2915.736	n/a	PROB	1457868	n/a	LTP070	ltpFR	8	n/a	n/a	n/a	n/a	n/a	n/a	n/a	9	1	7	1	n/a	n/a	n/a	n/a	n/a
2918.102	n/a	STOP	1459051	n/a	LTP070	ltpFR	8	n/a	n/a	n/a	n/a	n/a	n/a	n/a	n/a	n/a	n/a	n/a	n/a	n/a	n/a	n/a	n/a
2919.468	n/a	WORD	1459734	wordpools/wasnorm_wordpool.txt	LTP070	ltpFR	8	11	0	LINT	826	n/a	n/a	0	n/a	0	0	0	0.422607421875	0.5869140625	0	upper	zerothre.ttf
2922.478	n/a	START	1461239	n/a	LTP070	ltpFR	8	n/a	n/a	n/a	n/a	n/a	n/a	n/a	n/a	n/a	n/a	n/a	n/a	n/a	n/a	n/a	n/a
2923.444	n/a	PROB	1461722	n/a	LTP070	ltpFR	8	n/a	n/a	n/a	n/a	n/a	n/a	n/a	20	5	9	6	n/a	n/a	n/a	n/a	n/a
2925.552	n/a	PROB	1462776	n/a	LTP070	ltpFR	8	n/a	n/a	n/a	n/a	n/a	n/a	n/a	19	6	8	5	n/a	n/a	n/a	n/a	n/a
2927.768	n/a	PROB	1463884	n/a	LTP070	ltpFR	8	n/a	n/a	n/a	n/a	n/a	n/a	n/a	16	8	2	4	n/a	n/a	n/a	n/a	n/a
2929.95	n/a	STOP	1464975	n/a	LTP070	ltpFR	8	n/a	n/a	n/a	n/a	n/a	n/a	n/a	n/a	n/a	n/a	n/a	n/a	n/a	n/a	n/a	n/a
2931.67	n/a	WORD	1465835	wordpools/wasnorm_wordpool.txt	LTP070	ltpFR	8	11	0	TWEEZERS	1526	n/a	n/a	0	n/a	0	0	0	0.422607421875	0.5869140625	0	upper	zerothre.ttf
2934.678	n/a	START	1467339	n/a	LTP070	ltpFR	8	n/a	n/a	n/a	n/a	n/a	n/a	n/a	n/a	n/a	n/a	n/a	n/a	n/a	n/a	n/a	n/a
2935.628	n/a	PROB	1467814	n/a	LTP070	ltpFR	8	n/a	n/a	n/a	n/a	n/a	n/a	n/a	17	1	7	9	n/a	n/a	n/a	n/a	n/a
2937.9	n/a	PROB	1468950	n/a	LTP070	ltpFR	8	n/a	n/a	n/a	n/a	n/a	n/a	n/a	5	2	1	2	n/a	n/a	n/a	n/a	n/a
2939.26	n/a	PROB	1469630	n/a	LTP070	ltpFR	8	n/a	n/a	n/a	n/a	n/a	n/a	n/a	19	9	4	6	n/a	n/a	n/a	n/a	n/a
2941.424	n/a	STOP	1470712	n/a	LTP070	ltpFR	8	n/a	n/a	n/a	n/a	n/a	n/a	n/a	n/a	n/a	n/a	n/a	n/a	n/a	n/a	n/a	n/a
2943.584	n/a	WORD	1471792	wordpools/wasnorm_wordpool.txt	LTP070	ltpFR	8	11	0	SCISSORS	1250	n/a	n/a	0	n/a	0	0	0	0.422607421875	0.5869140625	0	upper	zerothre.ttf
2946.586	n/a	START	1473293	n/a	LTP070	ltpFR	8	n/a	n/a	n/a	n/a	n/a	n/a	n/a	n/a	n/a	n/a	n/a	n/a	n/a	n/a	n/a	n/a
2947.768	n/a	PROB	1473884	n/a	LTP070	ltpFR	8	n/a	n/a	n/a	n/a	n/a	n/a	n/a	15	2	6	7	n/a	n/a	n/a	n/a	n/a
2950.152	n/a	PROB	1475076	n/a	LTP070	ltpFR	8	n/a	n/a	n/a	n/a	n/a	n/a	n/a	15	7	3	5	n/a	n/a	n/a	n/a	n/a
2952.018	n/a	PROB	1476009	n/a	LTP070	ltpFR	8	n/a	n/a	n/a	n/a	n/a	n/a	n/a	16	7	7	2	n/a	n/a	n/a	n/a	n/a
2953.608	n/a	STOP	1476804	n/a	LTP070	ltpFR	8	n/a	n/a	n/a	n/a	n/a	n/a	n/a	n/a	n/a	n/a	n/a	n/a	n/a	n/a	n/a	n/a
2955.61	n/a	WORD	1477805	wordpools/wasnorm_wordpool.txt	LTP070	ltpFR	8	11	0	FREEWAY	603	n/a	n/a	1	n/a	0	0	0	0.422607421875	0.5869140625	0	upper	zerothre.ttf
2958.618	n/a	START	1479309	n/a	LTP070	ltpFR	8	n/a	n/a	n/a	n/a	n/a	n/a	n/a	n/a	n/a	n/a	n/a	n/a	n/a	n/a	n/a	n/a
2959.784	n/a	PROB	1479892	n/a	LTP070	ltpFR	8	n/a	n/a	n/a	n/a	n/a	n/a	n/a	12	8	3	1	n/a	n/a	n/a	n/a	n/a
2963.102	n/a	PROB	1481551	n/a	LTP070	ltpFR	8	n/a	n/a	n/a	n/a	n/a	n/a	n/a	13	7	3	3	n/a	n/a	n/a	n/a	n/a
2965.336	n/a	STOP	1482668	n/a	LTP070	ltpFR	8	n/a	n/a	n/a	n/a	n/a	n/a	n/a	n/a	n/a	n/a	n/a	n/a	n/a	n/a	n/a	n/a
2968.434	n/a	REC_START	1484217	n/a	LTP070	ltpFR	8	11	n/a	n/a	n/a	n/a	n/a	n/a	n/a	0	0	0	n/a	n/a	n/a	n/a	n/a
2970.564	n/a	REC_WORD	1485282	wordpools/wasnorm_wordpool.txt	LTP070	ltpFR	8	11	0	SCISSORS	1250	n/a	n/a	0	n/a	0	0	0	n/a	n/a	n/a	n/a	n/a
2972.836	n/a	REC_WORD	1486418	wordpools/wasnorm_wordpool.txt	LTP070	ltpFR	8	11	0	TWEEZERS	1526	n/a	n/a	0	n/a	0	0	0	n/a	n/a	n/a	n/a	n/a
2975.47	n/a	REC_WORD	1487735	wordpools/wasnorm_wordpool.txt	LTP070	ltpFR	8	11	0	FREEWAY	603	n/a	n/a	1	n/a	0	0	0	n/a	n/a	n/a	n/a	n/a
2979.83	n/a	REC_WORD	1489915	wordpools/wasnorm_wordpool.txt	LTP070	ltpFR	8	11	0	QUILL	1150	n/a	n/a	0	n/a	0	0	0	n/a	n/a	n/a	n/a	n/a
2993.374	n/a	REC_WORD	1496687	wordpools/wasnorm_wordpool.txt	LTP070	ltpFR	8	11	0	LINT	826	n/a	n/a	0	n/a	0	0	0	n/a	n/a	n/a	n/a	n/a
2995.01	n/a	REC_WORD	1497505	wordpools/wasnorm_wordpool.txt	LTP070	ltpFR	8	11	0	DUST	508	n/a	n/a	0	n/a	0	0	0	n/a	n/a	n/a	n/a	n/a
3037.062	n/a	REC_WORD	1518531	wordpools/wasnorm_wordpool.txt	LTP070	ltpFR	8	11	1	STREAM	1392	n/a	n/a	1	n/a	0	0	0	n/a	n/a	n/a	n/a	n/a
3047.332	n/a	WORD	1523666	wordpools/wasnorm_wordpool.txt	LTP070	ltpFR	8	12	0	FARM	552	n/a	n/a	1	n/a	0	0	0	0.422607421875	0.5869140625	0	upper	zerothre.ttf
3051.324	n/a	WORD	1525662	wordpools/wasnorm_wordpool.txt	LTP070	ltpFR	8	12	0	CATTLE	261	n/a	n/a	1	n/a	0	0	0	0.422607421875	0.5869140625	0	upper	zerothre.ttf
3055.19	n/a	WORD	1527595	wordpools/wasnorm_wordpool.txt	LTP070	ltpFR	8	12	0	HAND	683	n/a	n/a	0	n/a	0	0	0	0.422607421875	0.5869140625	0	upper	zerothre.ttf
3059.35	n/a	WORD	1529675	wordpools/wasnorm_wordpool.txt	LTP070	ltpFR	8	12	1	ROUGE	1213	n/a	n/a	0	n/a	0	0	0	0.57763671875	0.412841796875	1	lower	amplitud.ttf
3063.424	n/a	WORD	1531712	wordpools/wasnorm_wordpool.txt	LTP070	ltpFR	8	12	1	TYPIST	1532	n/a	n/a	1	n/a	0	0	0	0.57763671875	0.412841796875	1	lower	amplitud.ttf
3067.382	n/a	WORD	1533691	wordpools/wasnorm_wordpool.txt	LTP070	ltpFR	8	12	1	BRIEFCASE	175	n/a	n/a	1	n/a	0	0	0	0.57763671875	0.412841796875	1	lower	amplitud.ttf
3071.332	n/a	WORD	1535666	wordpools/wasnorm_wordpool.txt	LTP070	ltpFR	8	12	1	COMMITTEE	355	n/a	n/a	1	n/a	0	0	0	0.57763671875	0.412841796875	1	lower	amplitud.ttf
3075.364	n/a	WORD	1537682	wordpools/wasnorm_wordpool.txt	LTP070	ltpFR	8	12	1	GANG	619	n/a	n/a	1	n/a	0	0	0	0.57763671875	0.412841796875	1	lower	amplitud.ttf
3079.458	n/a	WORD	1539729	wordpools/wasnorm_wordpool.txt	LTP070	ltpFR	8	12	1	REEF	1177	n/a	n/a	1	n/a	0	0	0	0.57763671875	0.412841796875	1	lower	amplitud.ttf
3083.282	n/a	WORD	1541641	wordpools/wasnorm_wordpool.txt	LTP070	ltpFR	8	12	0	TREAT	1501	n/a	n/a	1	n/a	0	0	0	0.422607421875	0.5869140625	0	upper	zerothre.ttf
3087.264	n/a	WORD	1543632	wordpools/wasnorm_wordpool.txt	LTP070	ltpFR	8	12	0	RUST	1219	n/a	n/a	0	n/a	0	0	0	0.422607421875	0.5869140625	0	upper	zerothre.ttf
3091.148	n/a	WORD	1545574	wordpools/wasnorm_wordpool.txt	LTP070	ltpFR	8	12	0	SHELL	1281	n/a	n/a	0	n/a	0	0	0	0.422607421875	0.5869140625	0	upper	zerothre.ttf
3095.048	n/a	WORD	1547524	wordpools/wasnorm_wordpool.txt	LTP070	ltpFR	8	12	0	BULL	193	n/a	n/a	1	n/a	0	0	0	0.422607421875	0.5869140625	0	upper	zerothre.ttf
3099.198	n/a	WORD	1549599	wordpools/wasnorm_wordpool.txt	LTP070	ltpFR	8	12	0	PISTON	1076	n/a	n/a	0	n/a	0	0	0	0.422607421875	0.5869140625	0	upper	zerothre.ttf
3103.348	n/a	WORD	1551674	wordpools/wasnorm_wordpool.txt	LTP070	ltpFR	8	12	1	WALLET	1583	n/a	n/a	0	n/a	0	0	0	0.57763671875	0.412841796875	1	lower	amplitud.ttf
3107.514	n/a	WORD	1553757	wordpools/wasnorm_wordpool.txt	LTP070	ltpFR	8	12	1	HERD	705	n/a	n/a	1	n/a	0	0	0	0.57763671875	0.412841796875	1	lower	amplitud.ttf
3110.522	n/a	START	1555261	n/a	LTP070	ltpFR	8	n/a	n/a	n/a	n/a	n/a	n/a	n/a	n/a	n/a	n/a	n/a	n/a	n/a	n/a	n/a	n/a
3111.698	n/a	PROB	1555849	n/a	LTP070	ltpFR	8	n/a	n/a	n/a	n/a	n/a	n/a	n/a	14	2	8	4	n/a	n/a	n/a	n/a	n/a
3114.288	n/a	PROB	1557144	n/a	LTP070	ltpFR	8	n/a	n/a	n/a	n/a	n/a	n/a	n/a	22	7	7	8	n/a	n/a	n/a	n/a	n/a
3117.072	n/a	STOP	1558536	n/a	LTP070	ltpFR	8	n/a	n/a	n/a	n/a	n/a	n/a	n/a	n/a	n/a	n/a	n/a	n/a	n/a	n/a	n/a	n/a
3120.256	n/a	REC_START	1560128	n/a	LTP070	ltpFR	8	12	n/a	n/a	n/a	n/a	n/a	n/a	n/a	0	0	0	n/a	n/a	n/a	n/a	n/a
3121.608	n/a	REC_WORD	1560804	wordpools/wasnorm_wordpool.txt	LTP070	ltpFR	8	12	0	FARM	552	n/a	n/a	1	n/a	0	0	0	n/a	n/a	n/a	n/a	n/a
3123.44	n/a	REC_WORD	1561720	wordpools/wasnorm_wordpool.txt	LTP070	ltpFR	8	12	0	CATTLE	261	n/a	n/a	1	n/a	0	0	0	n/a	n/a	n/a	n/a	n/a
3125.234	n/a	REC_WORD	1562617	wordpools/wasnorm_wordpool.txt	LTP070	ltpFR	8	12	1	TYPIST	1532	n/a	n/a	1	n/a	0	0	0	n/a	n/a	n/a	n/a	n/a
3127.086	n/a	REC_WORD	1563543	wordpools/wasnorm_wordpool.txt	LTP070	ltpFR	8	12	1	BRIEFCASE	175	n/a	n/a	1	n/a	0	0	0	n/a	n/a	n/a	n/a	n/a
3129.68	n/a	REC_WORD	1564840	wordpools/wasnorm_wordpool.txt	LTP070	ltpFR	8	12	n/a	BOWL	158	n/a	n/a	n/a	n/a	0	0	0	n/a	n/a	n/a	n/a	n/a
3131.282	n/a	REC_WORD	1565641	wordpools/wasnorm_wordpool.txt	LTP070	ltpFR	8	12	1	HERD	705	n/a	n/a	1	n/a	0	0	0	n/a	n/a	n/a	n/a	n/a
3134.748	n/a	REC_WORD	1567374	wordpools/wasnorm_wordpool.txt	LTP070	ltpFR	8	12	0	SHELL	1281	n/a	n/a	0	n/a	0	0	0	n/a	n/a	n/a	n/a	n/a
3138.13	n/a	REC_WORD	1569065	wordpools/wasnorm_wordpool.txt	LTP070	ltpFR	8	12	0	RUST	1219	n/a	n/a	0	n/a	0	0	0	n/a	n/a	n/a	n/a	n/a
3140.102	n/a	REC_WORD	1570051	wordpools/wasnorm_wordpool.txt	LTP070	ltpFR	8	12	0	TREAT	1501	n/a	n/a	1	n/a	0	0	0	n/a	n/a	n/a	n/a	n/a
3158.646	n/a	REC_WORD	1579323	wordpools/wasnorm_wordpool.txt	LTP070	ltpFR	8	12	1	GANG	619	n/a	n/a	1	n/a	0	0	0	n/a	n/a	n/a	n/a	n/a
3169.512	n/a	REC_WORD	1584756	wordpools/wasnorm_wordpool.txt	LTP070	ltpFR	8	12	1	REEF	1177	n/a	n/a	1	n/a	0	0	0	n/a	n/a	n/a	n/a	n/a
3177.464	n/a	REC_WORD	1588732	wordpools/wasnorm_wordpool.txt	LTP070	ltpFR	8	12	1	WALLET	1583	n/a	n/a	0	n/a	0	0	0	n/a	n/a	n/a	n/a	n/a
3192.276	n/a	REC_WORD	1596138	wordpools/wasnorm_wordpool.txt	LTP070	ltpFR	8	12	0	SHELL	1281	n/a	n/a	0	n/a	0	0	0	n/a	n/a	n/a	n/a	n/a
3195.87	n/a	REST_REWET	1597935	n/a	LTP070	ltpFR	8	12	n/a	n/a	n/a	n/a	n/a	n/a	n/a	0	0	0	n/a	n/a	n/a	n/a	n/a
3820.946	n/a	REC_START	1910473	n/a	LTP070	ltpFR	8	n/a	n/a	n/a	n/a	n/a	n/a	n/a	n/a	0	0	0	n/a	n/a	n/a	n/a	n/a
3822.508	n/a	FFR_REC_WORD	1911254	wordpools/wasnorm_wordpool.txt	LTP070	ltpFR	8	n/a	1	MOOSE	915	n/a	n/a	1	n/a	0	0	0	n/a	n/a	n/a	n/a	n/a
3824.184	n/a	FFR_REC_WORD	1912092	wordpools/wasnorm_wordpool.txt	LTP070	ltpFR	8	n/a	0	ELK	526	n/a	n/a	1	n/a	0	0	0	n/a	n/a	n/a	n/a	n/a
3826.164	n/a	FFR_REC_WORD	1913082	wordpools/wasnorm_wordpool.txt	LTP070	ltpFR	8	n/a	0	FARM	552	n/a	n/a	1	n/a	0	0	0	n/a	n/a	n/a	n/a	n/a
3827.85	n/a	FFR_REC_WORD	1913925	wordpools/wasnorm_wordpool.txt	LTP070	ltpFR	8	n/a	1	FARMER	553	n/a	n/a	1	n/a	0	0	0	n/a	n/a	n/a	n/a	n/a
3829.592	n/a	FFR_REC_WORD	1914796	wordpools/wasnorm_wordpool.txt	LTP070	ltpFR	8	n/a	0	RANCH	1166	n/a	n/a	1	n/a	0	0	0	n/a	n/a	n/a	n/a	n/a
3831.218	n/a	FFR_REC_WORD	1915609	wordpools/wasnorm_wordpool.txt	LTP070	ltpFR	8	n/a	1	HERD	705	n/a	n/a	1	n/a	0	0	0	n/a	n/a	n/a	n/a	n/a
3832.884	n/a	FFR_REC_WORD	1916442	wordpools/wasnorm_wordpool.txt	LTP070	ltpFR	8	n/a	0	CATTLE	261	n/a	n/a	1	n/a	0	0	0	n/a	n/a	n/a	n/a	n/a
3834.82	n/a	FFR_REC_WORD	1917410	wordpools/wasnorm_wordpool.txt	LTP070	ltpFR	8	n/a	n/a	BOWL	158	n/a	n/a	n/a	n/a	0	0	0	n/a	n/a	n/a	n/a	n/a
3839.266	n/a	FFR_REC_WORD	1919633	wordpools/wasnorm_wordpool.txt	LTP070	ltpFR	8	n/a	0	ELK	526	n/a	n/a	1	n/a	0	0	0	n/a	n/a	n/a	n/a	n/a
3842.244	n/a	FFR_REC_WORD	1921122	wordpools/wasnorm_wordpool.txt	LTP070	ltpFR	8	n/a	1	BUFFALO	186	n/a	n/a	1	n/a	0	0	0	n/a	n/a	n/a	n/a	n/a
3844.908	n/a	FFR_REC_WORD	1922454	wordpools/wasnorm_wordpool.txt	LTP070	ltpFR	8	n/a	1	HAWK	692	n/a	n/a	1	n/a	0	0	0	n/a	n/a	n/a	n/a	n/a
3846.964	n/a	FFR_REC_WORD	1923482	wordpools/wasnorm_wordpool.txt	LTP070	ltpFR	8	n/a	0	GULL	671	n/a	n/a	0	n/a	0	0	0	n/a	n/a	n/a	n/a	n/a
3848.79	n/a	FFR_REC_WORD	1924395	wordpools/wasnorm_wordpool.txt	LTP070	ltpFR	8	n/a	0	QUAIL	1147	n/a	n/a	1	n/a	0	0	0	n/a	n/a	n/a	n/a	n/a
3856.018	n/a	FFR_REC_WORD	1928009	wordpools/wasnorm_wordpool.txt	LTP070	ltpFR	8	n/a	0	OX	994	n/a	n/a	1	n/a	0	0	0	n/a	n/a	n/a	n/a	n/a
3860.448	n/a	FFR_REC_WORD	1930224	wordpools/wasnorm_wordpool.txt	LTP070	ltpFR	8	n/a	1	BEAVER	109	n/a	n/a	1	n/a	0	0	0	n/a	n/a	n/a	n/a	n/a
3864.43	n/a	FFR_REC_WORD	1932215	wordpools/wasnorm_wordpool.txt	LTP070	ltpFR	8	n/a	0	IGLOO	734	n/a	n/a	1	n/a	0	0	0	n/a	n/a	n/a	n/a	n/a
3870.526	n/a	FFR_REC_WORD	1935263	wordpools/wasnorm_wordpool.txt	LTP070	ltpFR	8	n/a	0	QUILL	1150	n/a	n/a	0	n/a	0	0	0	n/a	n/a	n/a	n/a	n/a
3874.172	n/a	FFR_REC_WORD	1937086	wordpools/wasnorm_wordpool.txt	LTP070	ltpFR	8	n/a	0	PISTON	1076	n/a	n/a	0	n/a	0	0	0	n/a	n/a	n/a	n/a	n/a
3878.822	n/a	FFR_REC_WORD	1939411	wordpools/wasnorm_wordpool.txt	LTP070	ltpFR	8	n/a	0	TRIGGER	1507	n/a	n/a	0	n/a	0	0	0	n/a	n/a	n/a	n/a	n/a
3883.232	n/a	FFR_REC_WORD	1941616	wordpools/wasnorm_wordpool.txt	LTP070	ltpFR	8	n/a	0	MUSHROOM	934	n/a	n/a	0	n/a	0	0	0	n/a	n/a	n/a	n/a	n/a
3888.162	n/a	FFR_REC_WORD	1944081	wordpools/wasnorm_wordpool.txt	LTP070	ltpFR	8	n/a	0	ORANGE	980	n/a	n/a	0	n/a	0	0	0	n/a	n/a	n/a	n/a	n/a
