onset	duration	trial_type	sample	stim_file	subject	experiment	session	trial	item_name	item_num	list	answer	test_x	test_y	test_z
228.779296875	n/a	SESS_START	468540	n/a	LTP348	ltpFR2	14	n/a	n/a	n/a	n/a	n/a	0	0	0
246.29150390625	n/a	START	504405	n/a	LTP348	ltpFR2	14	n/a	n/a	n/a	-1	n/a	n/a	n/a	n/a
246.3212890625	n/a	PROB	504466	n/a	LTP348	ltpFR2	14	n/a	n/a	n/a	-1	23	7	9	7
248.63671875	n/a	PROB	509208	n/a	LTP348	ltpFR2	14	n/a	n/a	n/a	-1	11	1	7	3
250.15234375	n/a	PROB	512312	n/a	LTP348	ltpFR2	14	n/a	n/a	n/a	-1	11	2	5	4
251.83447265625	n/a	PROB	515757	n/a	LTP348	ltpFR2	14	n/a	n/a	n/a	-1	19	9	5	5
253.28564453125	n/a	PROB	518729	n/a	LTP348	ltpFR2	14	n/a	n/a	n/a	-1	18	4	9	4
257.7646484375	n/a	STOP	527902	n/a	LTP348	ltpFR2	14	n/a	n/a	n/a	-1	n/a	n/a	n/a	n/a
290.20068359375	n/a	WORD	594331	wordpools/wasnorm_wordpool_576.txt	LTP348	ltpFR2	14	1	WAITER	1580	n/a	n/a	0	0	0
292.681640625	n/a	WORD	599412	wordpools/wasnorm_wordpool_576.txt	LTP348	ltpFR2	14	1	CONCERT	360	n/a	n/a	0	0	0
295.39794921875	n/a	WORD	604975	wordpools/wasnorm_wordpool_576.txt	LTP348	ltpFR2	14	1	BRICK	172	n/a	n/a	0	0	0
298.07861328125	n/a	WORD	610465	wordpools/wasnorm_wordpool_576.txt	LTP348	ltpFR2	14	1	SODA	1341	n/a	n/a	0	0	0
300.51171875	n/a	WORD	615448	wordpools/wasnorm_wordpool_576.txt	LTP348	ltpFR2	14	1	MILDEW	893	n/a	n/a	0	0	0
303.04296875	n/a	WORD	620632	wordpools/wasnorm_wordpool_576.txt	LTP348	ltpFR2	14	1	MISTER	901	n/a	n/a	0	0	0
305.85791015625	n/a	WORD	626397	wordpools/wasnorm_wordpool_576.txt	LTP348	ltpFR2	14	1	WHISTLE	1606	n/a	n/a	0	0	0
308.30810546875	n/a	WORD	631415	wordpools/wasnorm_wordpool_576.txt	LTP348	ltpFR2	14	1	BULLET	194	n/a	n/a	0	0	0
311.05615234375	n/a	WORD	637043	wordpools/wasnorm_wordpool_576.txt	LTP348	ltpFR2	14	1	EGYPT	519	n/a	n/a	0	0	0
313.87109375	n/a	WORD	642808	wordpools/wasnorm_wordpool_576.txt	LTP348	ltpFR2	14	1	GRAVE	658	n/a	n/a	0	0	0
316.6357421875	n/a	WORD	648470	wordpools/wasnorm_wordpool_576.txt	LTP348	ltpFR2	14	1	FIDDLE	561	n/a	n/a	0	0	0
319.369140625	n/a	WORD	654068	wordpools/wasnorm_wordpool_576.txt	LTP348	ltpFR2	14	1	PLASTER	1085	n/a	n/a	0	0	0
322.01708984375	n/a	WORD	659491	wordpools/wasnorm_wordpool_576.txt	LTP348	ltpFR2	14	1	DANCER	437	n/a	n/a	0	0	0
324.64892578125	n/a	WORD	664881	wordpools/wasnorm_wordpool_576.txt	LTP348	ltpFR2	14	1	MILK	895	n/a	n/a	0	0	0
327.46484375	n/a	WORD	670648	wordpools/wasnorm_wordpool_576.txt	LTP348	ltpFR2	14	1	RUG	1215	n/a	n/a	0	0	0
330.2138671875	n/a	WORD	676278	wordpools/wasnorm_wordpool_576.txt	LTP348	ltpFR2	14	1	ITEM	746	n/a	n/a	0	0	0
332.64501953125	n/a	WORD	681257	wordpools/wasnorm_wordpool_576.txt	LTP348	ltpFR2	14	1	BADGE	68	n/a	n/a	0	0	0
335.42822265625	n/a	WORD	686957	wordpools/wasnorm_wordpool_576.txt	LTP348	ltpFR2	14	1	SHERIFF	1284	n/a	n/a	0	0	0
337.89306640625	n/a	WORD	692005	wordpools/wasnorm_wordpool_576.txt	LTP348	ltpFR2	14	1	QUEEN	1149	n/a	n/a	0	0	0
340.44189453125	n/a	WORD	697225	wordpools/wasnorm_wordpool_576.txt	LTP348	ltpFR2	14	1	WORKER	1621	n/a	n/a	0	0	0
343.14013671875	n/a	WORD	702751	wordpools/wasnorm_wordpool_576.txt	LTP348	ltpFR2	14	1	SNACK	1331	n/a	n/a	0	0	0
345.6220703125	n/a	WORD	707834	wordpools/wasnorm_wordpool_576.txt	LTP348	ltpFR2	14	1	COOK	372	n/a	n/a	0	0	0
348.205078125	n/a	WORD	713124	wordpools/wasnorm_wordpool_576.txt	LTP348	ltpFR2	14	1	DASHBOARD	441	n/a	n/a	0	0	0
350.986328125	n/a	WORD	718820	wordpools/wasnorm_wordpool_576.txt	LTP348	ltpFR2	14	1	PARTNER	1017	n/a	n/a	0	0	0
352.60205078125	n/a	START	722129	n/a	LTP348	ltpFR2	14	n/a	n/a	n/a	1	n/a	n/a	n/a	n/a
353.72119140625	n/a	DISTRACTOR	724421	n/a	LTP348	ltpFR2	14	1	n/a	n/a	n/a	n/a	0	0	0
353.7353515625	n/a	PROB	724450	n/a	LTP348	ltpFR2	14	n/a	n/a	n/a	1	15	8	5	2
355.88427734375	n/a	PROB	728851	n/a	LTP348	ltpFR2	14	n/a	n/a	n/a	1	12	4	4	4
358.533203125	n/a	PROB	734276	n/a	LTP348	ltpFR2	14	n/a	n/a	n/a	1	8	1	4	3
360.49951171875	n/a	PROB	738303	n/a	LTP348	ltpFR2	14	n/a	n/a	n/a	1	11	1	4	6
361.947265625	n/a	PROB	741268	n/a	LTP348	ltpFR2	14	n/a	n/a	n/a	1	18	7	7	4
364.29736328125	n/a	PROB	746081	n/a	LTP348	ltpFR2	14	n/a	n/a	n/a	1	4	2	1	1
366.12939453125	n/a	PROB	749833	n/a	LTP348	ltpFR2	14	n/a	n/a	n/a	1	9	1	2	6
368.328125	n/a	PROB	754336	n/a	LTP348	ltpFR2	14	n/a	n/a	n/a	1	23	5	9	9
371.59228515625	n/a	PROB	761021	n/a	LTP348	ltpFR2	14	n/a	n/a	n/a	1	21	6	6	9
373.9755859375	n/a	PROB	765902	n/a	LTP348	ltpFR2	14	n/a	n/a	n/a	1	22	4	9	9
376.30224609375	n/a	STOP	770667	n/a	LTP348	ltpFR2	14	n/a	n/a	n/a	1	n/a	n/a	n/a	n/a
378.4072265625	n/a	REC_START	774978	n/a	LTP348	ltpFR2	14	1	n/a	n/a	n/a	n/a	0	0	0
378.7392578125	n/a	REC_WORD	775658	wordpools/wasnorm_wordpool_576.txt	LTP348	ltpFR2	14	1	MILDEW	893	n/a	n/a	0	0	0
379.33740234375	n/a	REC_WORD	776883	wordpools/wasnorm_wordpool_576.txt	LTP348	ltpFR2	14	1	CONCERT	360	n/a	n/a	0	0	0
380.16748046875	n/a	REC_WORD	778583	wordpools/wasnorm_wordpool_576.txt	LTP348	ltpFR2	14	1	BADGE	68	n/a	n/a	0	0	0
382.0986328125	n/a	REC_WORD	782538	wordpools/wasnorm_wordpool_576.txt	LTP348	ltpFR2	14	1	WAITER	1580	n/a	n/a	0	0	0
383.36865234375	n/a	REC_WORD	785139	wordpools/wasnorm_wordpool_576.txt	LTP348	ltpFR2	14	1	DANCER	437	n/a	n/a	0	0	0
383.974609375	n/a	REC_WORD	786380	wordpools/wasnorm_wordpool_576.txt	LTP348	ltpFR2	14	1	QUEEN	1149	n/a	n/a	0	0	0
389.1943359375	n/a	REC_WORD	797070	wordpools/wasnorm_wordpool_576.txt	LTP348	ltpFR2	14	1	POLICE	1098	n/a	n/a	0	0	0
398.45458984375	n/a	REC_WORD	816035	wordpools/wasnorm_wordpool_576.txt	LTP348	ltpFR2	14	1	SERVER	1272	n/a	n/a	0	0	0
414.1826171875	n/a	REC_WORD	848246	wordpools/wasnorm_wordpool_576.txt	LTP348	ltpFR2	14	1	CONCERT	360	n/a	n/a	0	0	0
423.50146484375	n/a	REC_WORD	867331	wordpools/wasnorm_wordpool_576.txt	LTP348	ltpFR2	14	1	ASIA	46	n/a	n/a	0	0	0
468.84521484375	n/a	DISTRACTOR	960195	n/a	LTP348	ltpFR2	14	2	n/a	n/a	n/a	n/a	0	0	0
468.84521484375	n/a	START	960195	n/a	LTP348	ltpFR2	14	n/a	n/a	n/a	2	n/a	n/a	n/a	n/a
468.86181640625	n/a	PROB	960229	n/a	LTP348	ltpFR2	14	n/a	n/a	n/a	2	15	4	3	8
473.89306640625	n/a	PROB	970533	n/a	LTP348	ltpFR2	14	n/a	n/a	n/a	2	7	1	3	3
475.60791015625	n/a	PROB	974045	n/a	LTP348	ltpFR2	14	n/a	n/a	n/a	2	12	2	9	1
477.2421875	n/a	PROB	977392	n/a	LTP348	ltpFR2	14	n/a	n/a	n/a	2	13	3	8	2
478.83984375	n/a	PROB	980664	n/a	LTP348	ltpFR2	14	n/a	n/a	n/a	2	14	4	3	7
480.35693359375	n/a	PROB	983771	n/a	LTP348	ltpFR2	14	n/a	n/a	n/a	2	18	8	7	3
482.0048828125	n/a	PROB	987146	n/a	LTP348	ltpFR2	14	n/a	n/a	n/a	2	13	4	4	5
485.48828125	n/a	PROB	994280	n/a	LTP348	ltpFR2	14	n/a	n/a	n/a	2	15	5	9	1
487.1201171875	n/a	PROB	997622	n/a	LTP348	ltpFR2	14	n/a	n/a	n/a	2	19	8	4	7
490.2861328125	n/a	PROB	1004106	n/a	LTP348	ltpFR2	14	n/a	n/a	n/a	2	8	5	1	2
492.7021484375	n/a	STOP	1009054	n/a	LTP348	ltpFR2	14	n/a	n/a	n/a	2	n/a	n/a	n/a	n/a
493.9990234375	n/a	WORD	1011710	wordpools/wasnorm_wordpool_576.txt	LTP348	ltpFR2	14	2	SPHINX	1349	n/a	n/a	0	0	0
496.6650390625	n/a	WORD	1017170	wordpools/wasnorm_wordpool_576.txt	LTP348	ltpFR2	14	2	GARBAGE	622	n/a	n/a	0	0	0
499.4140625	n/a	WORD	1022800	wordpools/wasnorm_wordpool_576.txt	LTP348	ltpFR2	14	2	TRUCK	1512	n/a	n/a	0	0	0
502.029296875	n/a	WORD	1028156	wordpools/wasnorm_wordpool_576.txt	LTP348	ltpFR2	14	2	ATOM	55	n/a	n/a	0	0	0
504.47802734375	n/a	WORD	1033171	wordpools/wasnorm_wordpool_576.txt	LTP348	ltpFR2	14	2	NEUTRON	947	n/a	n/a	0	0	0
507.244140625	n/a	WORD	1038836	wordpools/wasnorm_wordpool_576.txt	LTP348	ltpFR2	14	2	MAILMAN	858	n/a	n/a	0	0	0
510.04150390625	n/a	WORD	1044565	wordpools/wasnorm_wordpool_576.txt	LTP348	ltpFR2	14	2	CHEST	295	n/a	n/a	0	0	0
512.6572265625	n/a	WORD	1049922	wordpools/wasnorm_wordpool_576.txt	LTP348	ltpFR2	14	2	GLASS	639	n/a	n/a	0	0	0
515.3564453125	n/a	WORD	1055450	wordpools/wasnorm_wordpool_576.txt	LTP348	ltpFR2	14	2	GARLIC	624	n/a	n/a	0	0	0
517.80419921875	n/a	WORD	1060463	wordpools/wasnorm_wordpool_576.txt	LTP348	ltpFR2	14	2	BARREL	91	n/a	n/a	0	0	0
520.404296875	n/a	WORD	1065788	wordpools/wasnorm_wordpool_576.txt	LTP348	ltpFR2	14	2	COCKTAIL	338	n/a	n/a	0	0	0
523.16943359375	n/a	WORD	1071451	wordpools/wasnorm_wordpool_576.txt	LTP348	ltpFR2	14	2	ICEBERG	731	n/a	n/a	0	0	0
525.767578125	n/a	WORD	1076772	wordpools/wasnorm_wordpool_576.txt	LTP348	ltpFR2	14	2	FLIPPER	580	n/a	n/a	0	0	0
528.21728515625	n/a	WORD	1081789	wordpools/wasnorm_wordpool_576.txt	LTP348	ltpFR2	14	2	COFFEE	341	n/a	n/a	0	0	0
531.03125	n/a	WORD	1087552	wordpools/wasnorm_wordpool_576.txt	LTP348	ltpFR2	14	2	SPIDER	1351	n/a	n/a	0	0	0
533.74658203125	n/a	WORD	1093113	wordpools/wasnorm_wordpool_576.txt	LTP348	ltpFR2	14	2	GHETTO	633	n/a	n/a	0	0	0
536.1962890625	n/a	WORD	1098130	wordpools/wasnorm_wordpool_576.txt	LTP348	ltpFR2	14	2	SCARF	1246	n/a	n/a	0	0	0
538.8603515625	n/a	WORD	1103586	wordpools/wasnorm_wordpool_576.txt	LTP348	ltpFR2	14	2	COUNTY	389	n/a	n/a	0	0	0
541.642578125	n/a	WORD	1109284	wordpools/wasnorm_wordpool_576.txt	LTP348	ltpFR2	14	2	SPOUSE	1358	n/a	n/a	0	0	0
544.12451171875	n/a	WORD	1114367	wordpools/wasnorm_wordpool_576.txt	LTP348	ltpFR2	14	2	FEMALE	559	n/a	n/a	0	0	0
546.92333984375	n/a	WORD	1120099	wordpools/wasnorm_wordpool_576.txt	LTP348	ltpFR2	14	2	HONEY	713	n/a	n/a	0	0	0
549.53955078125	n/a	WORD	1125457	wordpools/wasnorm_wordpool_576.txt	LTP348	ltpFR2	14	2	COSTUME	383	n/a	n/a	0	0	0
552.0546875	n/a	WORD	1130608	wordpools/wasnorm_wordpool_576.txt	LTP348	ltpFR2	14	2	WARDROBE	1587	n/a	n/a	0	0	0
554.6533203125	n/a	WORD	1135930	wordpools/wasnorm_wordpool_576.txt	LTP348	ltpFR2	14	2	HORNET	718	n/a	n/a	0	0	0
556.2705078125	n/a	START	1139242	n/a	LTP348	ltpFR2	14	n/a	n/a	n/a	3	n/a	n/a	n/a	n/a
557.16064453125	n/a	DISTRACTOR	1141065	n/a	LTP348	ltpFR2	14	2	n/a	n/a	n/a	n/a	0	0	0
557.16943359375	n/a	PROB	1141083	n/a	LTP348	ltpFR2	14	n/a	n/a	n/a	3	12	7	4	1
559.58349609375	n/a	PROB	1146027	n/a	LTP348	ltpFR2	14	n/a	n/a	n/a	3	15	8	2	5
561.06640625	n/a	PROB	1149064	n/a	LTP348	ltpFR2	14	n/a	n/a	n/a	3	15	7	3	5
562.6826171875	n/a	PROB	1152374	n/a	LTP348	ltpFR2	14	n/a	n/a	n/a	3	19	7	5	7
565.58056640625	n/a	PROB	1158309	n/a	LTP348	ltpFR2	14	n/a	n/a	n/a	3	23	8	8	7
568.23046875	n/a	PROB	1163736	n/a	LTP348	ltpFR2	14	n/a	n/a	n/a	3	8	6	1	1
569.82861328125	n/a	PROB	1167009	n/a	LTP348	ltpFR2	14	n/a	n/a	n/a	3	15	6	6	3
571.74462890625	n/a	PROB	1170933	n/a	LTP348	ltpFR2	14	n/a	n/a	n/a	3	19	8	5	6
573.84375	n/a	PROB	1175232	n/a	LTP348	ltpFR2	14	n/a	n/a	n/a	3	16	6	5	5
575.24365234375	n/a	PROB	1178099	n/a	LTP348	ltpFR2	14	n/a	n/a	n/a	3	15	7	5	3
577.1416015625	n/a	PROB	1181986	n/a	LTP348	ltpFR2	14	n/a	n/a	n/a	3	7	3	2	2
579.27978515625	n/a	STOP	1186365	n/a	LTP348	ltpFR2	14	n/a	n/a	n/a	3	n/a	n/a	n/a	n/a
582.140625	n/a	REC_START	1192224	n/a	LTP348	ltpFR2	14	2	n/a	n/a	n/a	n/a	0	0	0
582.44970703125	n/a	REC_WORD	1192857	wordpools/wasnorm_wordpool_576.txt	LTP348	ltpFR2	14	2	SPHINX	1349	n/a	n/a	0	0	0
583.26953125	n/a	REC_WORD	1194536	wordpools/wasnorm_wordpool_576.txt	LTP348	ltpFR2	14	2	CHEST	295	n/a	n/a	0	0	0
584.73681640625	n/a	REC_WORD	1197541	wordpools/wasnorm_wordpool_576.txt	LTP348	ltpFR2	14	2	HONEY	713	n/a	n/a	0	0	0
586.3076171875	n/a	REC_WORD	1200758	wordpools/wasnorm_wordpool_576.txt	LTP348	ltpFR2	14	2	WARDROBE	1587	n/a	n/a	0	0	0
600.1796875	n/a	REC_WORD	1229168	wordpools/wasnorm_wordpool_576.txt	LTP348	ltpFR2	14	2	DUST	508	n/a	n/a	0	0	0
629.40283203125	n/a	REC_WORD	1289017	wordpools/wasnorm_wordpool_576.txt	LTP348	ltpFR2	14	2	SPIDER	1351	n/a	n/a	0	0	0
636.06494140625	n/a	REC_WORD	1302661	wordpools/wasnorm_wordpool_576.txt	LTP348	ltpFR2	14	2	DRESS	495	n/a	n/a	0	0	0
672.59521484375	n/a	DISTRACTOR	1377475	n/a	LTP348	ltpFR2	14	3	n/a	n/a	n/a	n/a	0	0	0
672.59521484375	n/a	START	1377475	n/a	LTP348	ltpFR2	14	n/a	n/a	n/a	4	n/a	n/a	n/a	n/a
672.6123046875	n/a	PROB	1377510	n/a	LTP348	ltpFR2	14	n/a	n/a	n/a	4	12	2	6	4
674.89453125	n/a	PROB	1382184	n/a	LTP348	ltpFR2	14	n/a	n/a	n/a	4	20	5	9	6
678.443359375	n/a	PROB	1389452	n/a	LTP348	ltpFR2	14	n/a	n/a	n/a	4	12	4	2	6
680.392578125	n/a	PROB	1393444	n/a	LTP348	ltpFR2	14	n/a	n/a	n/a	4	11	2	1	8
682.62353515625	n/a	PROB	1398013	n/a	LTP348	ltpFR2	14	n/a	n/a	n/a	4	9	4	2	3
685.20751953125	n/a	PROB	1403305	n/a	LTP348	ltpFR2	14	n/a	n/a	n/a	4	12	1	8	3
687.2724609375	n/a	PROB	1407534	n/a	LTP348	ltpFR2	14	n/a	n/a	n/a	4	19	9	6	4
689.1533203125	n/a	PROB	1411386	n/a	LTP348	ltpFR2	14	n/a	n/a	n/a	4	16	6	6	4
691.4375	n/a	PROB	1416064	n/a	LTP348	ltpFR2	14	n/a	n/a	n/a	4	25	9	9	7
696.32861328125	n/a	STOP	1426081	n/a	LTP348	ltpFR2	14	n/a	n/a	n/a	4	n/a	n/a	n/a	n/a
697.66650390625	n/a	WORD	1428821	wordpools/wasnorm_wordpool_576.txt	LTP348	ltpFR2	14	3	LIZARD	834	n/a	n/a	0	0	0
700.1826171875	n/a	WORD	1433974	wordpools/wasnorm_wordpool_576.txt	LTP348	ltpFR2	14	3	RADISH	1158	n/a	n/a	0	0	0
702.98046875	n/a	WORD	1439704	wordpools/wasnorm_wordpool_576.txt	LTP348	ltpFR2	14	3	DUST	508	n/a	n/a	0	0	0
705.48046875	n/a	WORD	1444824	wordpools/wasnorm_wordpool_576.txt	LTP348	ltpFR2	14	3	CLOUD	328	n/a	n/a	0	0	0
708.04443359375	n/a	WORD	1450075	wordpools/wasnorm_wordpool_576.txt	LTP348	ltpFR2	14	3	NAPKIN	937	n/a	n/a	0	0	0
710.84375	n/a	WORD	1455808	wordpools/wasnorm_wordpool_576.txt	LTP348	ltpFR2	14	3	OFFICE	972	n/a	n/a	0	0	0
713.45947265625	n/a	WORD	1461165	wordpools/wasnorm_wordpool_576.txt	LTP348	ltpFR2	14	3	COLLEGE	346	n/a	n/a	0	0	0
715.890625	n/a	WORD	1466144	wordpools/wasnorm_wordpool_576.txt	LTP348	ltpFR2	14	3	MOP	916	n/a	n/a	0	0	0
718.3408203125	n/a	WORD	1471162	wordpools/wasnorm_wordpool_576.txt	LTP348	ltpFR2	14	3	DUSTPAN	509	n/a	n/a	0	0	0
720.90478515625	n/a	WORD	1476413	wordpools/wasnorm_wordpool_576.txt	LTP348	ltpFR2	14	3	PICTURE	1061	n/a	n/a	0	0	0
723.70361328125	n/a	WORD	1482145	wordpools/wasnorm_wordpool_576.txt	LTP348	ltpFR2	14	3	OMELET	976	n/a	n/a	0	0	0
726.23681640625	n/a	WORD	1487333	wordpools/wasnorm_wordpool_576.txt	LTP348	ltpFR2	14	3	TURNIP	1521	n/a	n/a	0	0	0
728.7177734375	n/a	WORD	1492414	wordpools/wasnorm_wordpool_576.txt	LTP348	ltpFR2	14	3	BACON	67	n/a	n/a	0	0	0
731.40087890625	n/a	WORD	1497909	wordpools/wasnorm_wordpool_576.txt	LTP348	ltpFR2	14	3	SHOULDER	1294	n/a	n/a	0	0	0
734.06591796875	n/a	WORD	1503367	wordpools/wasnorm_wordpool_576.txt	LTP348	ltpFR2	14	3	DRAWING	494	n/a	n/a	0	0	0
736.81396484375	n/a	WORD	1508995	wordpools/wasnorm_wordpool_576.txt	LTP348	ltpFR2	14	3	PALACE	1006	n/a	n/a	0	0	0
739.48095703125	n/a	WORD	1514457	wordpools/wasnorm_wordpool_576.txt	LTP348	ltpFR2	14	3	JUGGLER	763	n/a	n/a	0	0	0
742.01171875	n/a	WORD	1519640	wordpools/wasnorm_wordpool_576.txt	LTP348	ltpFR2	14	3	PLAYGROUND	1087	n/a	n/a	0	0	0
744.7939453125	n/a	WORD	1525338	wordpools/wasnorm_wordpool_576.txt	LTP348	ltpFR2	14	3	SUNRISE	1407	n/a	n/a	0	0	0
747.44287109375	n/a	WORD	1530763	wordpools/wasnorm_wordpool_576.txt	LTP348	ltpFR2	14	3	PEDAL	1037	n/a	n/a	0	0	0
750.2587890625	n/a	WORD	1536530	wordpools/wasnorm_wordpool_576.txt	LTP348	ltpFR2	14	3	RACKET	1155	n/a	n/a	0	0	0
752.93896484375	n/a	WORD	1542019	wordpools/wasnorm_wordpool_576.txt	LTP348	ltpFR2	14	3	PICNIC	1060	n/a	n/a	0	0	0
755.388671875	n/a	WORD	1547036	wordpools/wasnorm_wordpool_576.txt	LTP348	ltpFR2	14	3	SANDWICH	1232	n/a	n/a	0	0	0
757.919921875	n/a	WORD	1552220	wordpools/wasnorm_wordpool_576.txt	LTP348	ltpFR2	14	3	CYCLONE	431	n/a	n/a	0	0	0
759.5380859375	n/a	START	1555534	n/a	LTP348	ltpFR2	14	n/a	n/a	n/a	5	n/a	n/a	n/a	n/a
760.6318359375	n/a	DISTRACTOR	1557774	n/a	LTP348	ltpFR2	14	3	n/a	n/a	n/a	n/a	0	0	0
760.6357421875	n/a	PROB	1557782	n/a	LTP348	ltpFR2	14	n/a	n/a	n/a	5	14	4	6	4
762.66796875	n/a	PROB	1561944	n/a	LTP348	ltpFR2	14	n/a	n/a	n/a	5	14	3	4	7
765.35107421875	n/a	PROB	1567439	n/a	LTP348	ltpFR2	14	n/a	n/a	n/a	5	8	3	2	3
767.84912109375	n/a	PROB	1572555	n/a	LTP348	ltpFR2	14	n/a	n/a	n/a	5	20	9	5	6
770.46484375	n/a	PROB	1577912	n/a	LTP348	ltpFR2	14	n/a	n/a	n/a	5	14	2	5	7
774.0791015625	n/a	PROB	1585314	n/a	LTP348	ltpFR2	14	n/a	n/a	n/a	5	22	9	8	4
778.3779296875	n/a	PROB	1594118	n/a	LTP348	ltpFR2	14	n/a	n/a	n/a	5	10	3	6	1
783.537109375	n/a	STOP	1604684	n/a	LTP348	ltpFR2	14	n/a	n/a	n/a	5	n/a	n/a	n/a	n/a
785.34228515625	n/a	REC_START	1608381	n/a	LTP348	ltpFR2	14	3	n/a	n/a	n/a	n/a	0	0	0
785.8779296875	n/a	REC_WORD	1609478	wordpools/wasnorm_wordpool_576.txt	LTP348	ltpFR2	14	3	DUST	508	n/a	n/a	0	0	0
786.4453125	n/a	REC_WORD	1610640	wordpools/wasnorm_wordpool_576.txt	LTP348	ltpFR2	14	3	MOP	916	n/a	n/a	0	0	0
787.0693359375	n/a	REC_WORD	1611918	wordpools/wasnorm_wordpool_576.txt	LTP348	ltpFR2	14	3	DUSTPAN	509	n/a	n/a	0	0	0
787.955078125	n/a	REC_WORD	1613732	wordpools/wasnorm_wordpool_576.txt	LTP348	ltpFR2	14	3	PICTURE	1061	n/a	n/a	0	0	0
788.5693359375	n/a	REC_WORD	1614990	wordpools/wasnorm_wordpool_576.txt	LTP348	ltpFR2	14	3	PLAYGROUND	1087	n/a	n/a	0	0	0
789.47314453125	n/a	REC_WORD	1616841	wordpools/wasnorm_wordpool_576.txt	LTP348	ltpFR2	14	3	LIZARD	834	n/a	n/a	0	0	0
795.11328125	n/a	REC_WORD	1628392	wordpools/wasnorm_wordpool_576.txt	LTP348	ltpFR2	14	3	OMELET	976	n/a	n/a	0	0	0
804.38916015625	n/a	REC_WORD	1647389	wordpools/wasnorm_wordpool_576.txt	LTP348	ltpFR2	14	3	COLLEGE	346	n/a	n/a	0	0	0
805.0244140625	n/a	REC_WORD	1648690	wordpools/wasnorm_wordpool_576.txt	LTP348	ltpFR2	14	3	STUDENT	1395	n/a	n/a	0	0	0
854.87939453125	n/a	REC_WORD	1750793	wordpools/wasnorm_wordpool_576.txt	LTP348	ltpFR2	14	3	BREAD	170	n/a	n/a	0	0	0
875.8125	n/a	WORD	1793664	wordpools/wasnorm_wordpool_576.txt	LTP348	ltpFR2	14	4	LONDON	843	n/a	n/a	0	0	0
878.52880859375	n/a	WORD	1799227	wordpools/wasnorm_wordpool_576.txt	LTP348	ltpFR2	14	4	BABY	64	n/a	n/a	0	0	0
881.0439453125	n/a	WORD	1804378	wordpools/wasnorm_wordpool_576.txt	LTP348	ltpFR2	14	4	SUITCASE	1403	n/a	n/a	0	0	0
883.7587890625	n/a	WORD	1809938	wordpools/wasnorm_wordpool_576.txt	LTP348	ltpFR2	14	4	FLASHLIGHT	575	n/a	n/a	0	0	0
886.40869140625	n/a	WORD	1815365	wordpools/wasnorm_wordpool_576.txt	LTP348	ltpFR2	14	4	SLIDE	1326	n/a	n/a	0	0	0
889.2236328125	n/a	WORD	1821130	wordpools/wasnorm_wordpool_576.txt	LTP348	ltpFR2	14	4	CLOCK	325	n/a	n/a	0	0	0
891.87060546875	n/a	WORD	1826551	wordpools/wasnorm_wordpool_576.txt	LTP348	ltpFR2	14	4	SKILLET	1317	n/a	n/a	0	0	0
894.37060546875	n/a	WORD	1831671	wordpools/wasnorm_wordpool_576.txt	LTP348	ltpFR2	14	4	SPONGE	1355	n/a	n/a	0	0	0
897.11865234375	n/a	WORD	1837299	wordpools/wasnorm_wordpool_576.txt	LTP348	ltpFR2	14	4	BATHTUB	100	n/a	n/a	0	0	0
899.91796875	n/a	WORD	1843032	wordpools/wasnorm_wordpool_576.txt	LTP348	ltpFR2	14	4	STALLION	1369	n/a	n/a	0	0	0
902.6328125	n/a	WORD	1848592	wordpools/wasnorm_wordpool_576.txt	LTP348	ltpFR2	14	4	BARLEY	88	n/a	n/a	0	0	0
905.33203125	n/a	WORD	1854120	wordpools/wasnorm_wordpool_576.txt	LTP348	ltpFR2	14	4	STAMP	1370	n/a	n/a	0	0	0
908.02978515625	n/a	WORD	1859645	wordpools/wasnorm_wordpool_576.txt	LTP348	ltpFR2	14	4	MONSTER	912	n/a	n/a	0	0	0
910.462890625	n/a	WORD	1864628	wordpools/wasnorm_wordpool_576.txt	LTP348	ltpFR2	14	4	PEANUT	1032	n/a	n/a	0	0	0
913.078125	n/a	WORD	1869984	wordpools/wasnorm_wordpool_576.txt	LTP348	ltpFR2	14	4	SWORD	1423	n/a	n/a	0	0	0
915.826171875	n/a	WORD	1875612	wordpools/wasnorm_wordpool_576.txt	LTP348	ltpFR2	14	4	HATCHET	691	n/a	n/a	0	0	0
918.42578125	n/a	WORD	1880936	wordpools/wasnorm_wordpool_576.txt	LTP348	ltpFR2	14	4	PRINCE	1124	n/a	n/a	0	0	0
920.89013671875	n/a	WORD	1885983	wordpools/wasnorm_wordpool_576.txt	LTP348	ltpFR2	14	4	CREATURE	403	n/a	n/a	0	0	0
923.671875	n/a	WORD	1891680	wordpools/wasnorm_wordpool_576.txt	LTP348	ltpFR2	14	4	LUGGAGE	847	n/a	n/a	0	0	0
926.3720703125	n/a	WORD	1897210	wordpools/wasnorm_wordpool_576.txt	LTP348	ltpFR2	14	4	STREAM	1392	n/a	n/a	0	0	0
929.06982421875	n/a	WORD	1902735	wordpools/wasnorm_wordpool_576.txt	LTP348	ltpFR2	14	4	PUPPY	1144	n/a	n/a	0	0	0
931.63525390625	n/a	WORD	1907989	wordpools/wasnorm_wordpool_576.txt	LTP348	ltpFR2	14	4	FLASK	576	n/a	n/a	0	0	0
934.14990234375	n/a	WORD	1913139	wordpools/wasnorm_wordpool_576.txt	LTP348	ltpFR2	14	4	BIKE	125	n/a	n/a	0	0	0
936.59912109375	n/a	WORD	1918155	wordpools/wasnorm_wordpool_576.txt	LTP348	ltpFR2	14	4	ORCHID	982	n/a	n/a	0	0	0
938.21630859375	n/a	START	1921467	n/a	LTP348	ltpFR2	14	n/a	n/a	n/a	6	n/a	n/a	n/a	n/a
939.35205078125	n/a	DISTRACTOR	1923793	n/a	LTP348	ltpFR2	14	4	n/a	n/a	n/a	n/a	0	0	0
939.3662109375	n/a	PROB	1923822	n/a	LTP348	ltpFR2	14	n/a	n/a	n/a	6	17	3	6	8
943.8291015625	n/a	PROB	1932962	n/a	LTP348	ltpFR2	14	n/a	n/a	n/a	6	20	8	4	9
948.2939453125	n/a	PROB	1942106	n/a	LTP348	ltpFR2	14	n/a	n/a	n/a	6	26	9	8	9
952.47607421875	n/a	PROB	1950671	n/a	LTP348	ltpFR2	14	n/a	n/a	n/a	6	13	1	9	3
954.00732421875	n/a	PROB	1953807	n/a	LTP348	ltpFR2	14	n/a	n/a	n/a	6	10	3	6	1
956.45703125	n/a	PROB	1958824	n/a	LTP348	ltpFR2	14	n/a	n/a	n/a	6	13	3	8	2
958.08935546875	n/a	PROB	1962167	n/a	LTP348	ltpFR2	14	n/a	n/a	n/a	6	11	2	4	5
961.00146484375	n/a	STOP	1968131	n/a	LTP348	ltpFR2	14	n/a	n/a	n/a	6	n/a	n/a	n/a	n/a
964.0205078125	n/a	REC_START	1974314	n/a	LTP348	ltpFR2	14	4	n/a	n/a	n/a	n/a	0	0	0
964.578125	n/a	REC_WORD	1975456	wordpools/wasnorm_wordpool_576.txt	LTP348	ltpFR2	14	4	LONDON	843	n/a	n/a	0	0	0
965.197265625	n/a	REC_WORD	1976724	wordpools/wasnorm_wordpool_576.txt	LTP348	ltpFR2	14	4	BABY	64	n/a	n/a	0	0	0
965.865234375	n/a	REC_WORD	1978092	wordpools/wasnorm_wordpool_576.txt	LTP348	ltpFR2	14	4	ORCHID	982	n/a	n/a	0	0	0
967.25732421875	n/a	REC_WORD	1980943	wordpools/wasnorm_wordpool_576.txt	LTP348	ltpFR2	14	4	SKILLET	1317	n/a	n/a	0	0	0
967.9111328125	n/a	REC_WORD	1982282	wordpools/wasnorm_wordpool_576.txt	LTP348	ltpFR2	14	4	HATCHET	691	n/a	n/a	0	0	0
971.08642578125	n/a	REC_WORD	1988785	wordpools/wasnorm_wordpool_576.txt	LTP348	ltpFR2	14	4	MONSTER	912	n/a	n/a	0	0	0
982.9814453125	n/a	REC_WORD	2013146	wordpools/wasnorm_wordpool_576.txt	LTP348	ltpFR2	14	4	PICTURE	1061	n/a	n/a	0	0	0
1014.98974609375	n/a	REC_WORD	2078699	wordpools/wasnorm_wordpool_576.txt	LTP348	ltpFR2	14	4	TREE	1502	n/a	n/a	0	0	0
1054.47607421875	n/a	WORD	2159567	wordpools/wasnorm_wordpool_576.txt	LTP348	ltpFR2	14	5	BODY	145	n/a	n/a	0	0	0
1057.14013671875	n/a	WORD	2165023	wordpools/wasnorm_wordpool_576.txt	LTP348	ltpFR2	14	5	SPACE	1345	n/a	n/a	0	0	0
1059.65576171875	n/a	WORD	2170175	wordpools/wasnorm_wordpool_576.txt	LTP348	ltpFR2	14	5	COMET	353	n/a	n/a	0	0	0
1062.10498046875	n/a	WORD	2175191	wordpools/wasnorm_wordpool_576.txt	LTP348	ltpFR2	14	5	BUREAU	199	n/a	n/a	0	0	0
1064.73681640625	n/a	WORD	2180581	wordpools/wasnorm_wordpool_576.txt	LTP348	ltpFR2	14	5	ATLAS	53	n/a	n/a	0	0	0
1067.3359375	n/a	WORD	2185904	wordpools/wasnorm_wordpool_576.txt	LTP348	ltpFR2	14	5	STOMACH	1384	n/a	n/a	0	0	0
1069.833984375	n/a	WORD	2191020	wordpools/wasnorm_wordpool_576.txt	LTP348	ltpFR2	14	5	LION	827	n/a	n/a	0	0	0
1072.51708984375	n/a	WORD	2196515	wordpools/wasnorm_wordpool_576.txt	LTP348	ltpFR2	14	5	DOUGHNUT	490	n/a	n/a	0	0	0
1075.14794921875	n/a	WORD	2201903	wordpools/wasnorm_wordpool_576.txt	LTP348	ltpFR2	14	5	CRATER	400	n/a	n/a	0	0	0
1077.86328125	n/a	WORD	2207464	wordpools/wasnorm_wordpool_576.txt	LTP348	ltpFR2	14	5	HIKER	708	n/a	n/a	0	0	0
1080.5302734375	n/a	WORD	2212926	wordpools/wasnorm_wordpool_576.txt	LTP348	ltpFR2	14	5	WORLD	1622	n/a	n/a	0	0	0
1083.0439453125	n/a	WORD	2218074	wordpools/wasnorm_wordpool_576.txt	LTP348	ltpFR2	14	5	WRENCH	1625	n/a	n/a	0	0	0
1085.77587890625	n/a	WORD	2223669	wordpools/wasnorm_wordpool_576.txt	LTP348	ltpFR2	14	5	WAGON	1578	n/a	n/a	0	0	0
1088.54296875	n/a	WORD	2229336	wordpools/wasnorm_wordpool_576.txt	LTP348	ltpFR2	14	5	GUITAR	670	n/a	n/a	0	0	0
1090.97412109375	n/a	WORD	2234315	wordpools/wasnorm_wordpool_576.txt	LTP348	ltpFR2	14	5	PANTHER	1009	n/a	n/a	0	0	0
1093.63916015625	n/a	WORD	2239773	wordpools/wasnorm_wordpool_576.txt	LTP348	ltpFR2	14	5	GLOVE	642	n/a	n/a	0	0	0
1096.2392578125	n/a	WORD	2245098	wordpools/wasnorm_wordpool_576.txt	LTP348	ltpFR2	14	5	PATROL	1027	n/a	n/a	0	0	0
1099.02001953125	n/a	WORD	2250793	wordpools/wasnorm_wordpool_576.txt	LTP348	ltpFR2	14	5	OYSTER	995	n/a	n/a	0	0	0
1101.65234375	n/a	WORD	2256184	wordpools/wasnorm_wordpool_576.txt	LTP348	ltpFR2	14	5	FINGER	567	n/a	n/a	0	0	0
1104.318359375	n/a	WORD	2261644	wordpools/wasnorm_wordpool_576.txt	LTP348	ltpFR2	14	5	CLAM	315	n/a	n/a	0	0	0
1106.83203125	n/a	WORD	2266792	wordpools/wasnorm_wordpool_576.txt	LTP348	ltpFR2	14	5	TROUT	1511	n/a	n/a	0	0	0
1109.6142578125	n/a	WORD	2272490	wordpools/wasnorm_wordpool_576.txt	LTP348	ltpFR2	14	5	LIVER	833	n/a	n/a	0	0	0
1112.3310546875	n/a	WORD	2278054	wordpools/wasnorm_wordpool_576.txt	LTP348	ltpFR2	14	5	BASEMENT	94	n/a	n/a	0	0	0
1114.9951171875	n/a	WORD	2283510	wordpools/wasnorm_wordpool_576.txt	LTP348	ltpFR2	14	5	SLUG	1329	n/a	n/a	0	0	0
1116.611328125	n/a	START	2286820	n/a	LTP348	ltpFR2	14	n/a	n/a	n/a	7	n/a	n/a	n/a	n/a
1117.69921875	n/a	DISTRACTOR	2289048	n/a	LTP348	ltpFR2	14	5	n/a	n/a	n/a	n/a	0	0	0
1117.7275390625	n/a	PROB	2289106	n/a	LTP348	ltpFR2	14	n/a	n/a	n/a	7	15	8	1	6
1120.51025390625	n/a	PROB	2294805	n/a	LTP348	ltpFR2	14	n/a	n/a	n/a	7	18	9	5	4
1124.4912109375	n/a	PROB	2302958	n/a	LTP348	ltpFR2	14	n/a	n/a	n/a	7	12	6	5	2
1127.37353515625	n/a	PROB	2308861	n/a	LTP348	ltpFR2	14	n/a	n/a	n/a	7	21	9	6	6
1134.03662109375	n/a	PROB	2322507	n/a	LTP348	ltpFR2	14	n/a	n/a	n/a	7	18	7	4	7
1136.1015625	n/a	PROB	2326736	n/a	LTP348	ltpFR2	14	n/a	n/a	n/a	7	14	4	2	8
1140.6103515625	n/a	STOP	2335970	n/a	LTP348	ltpFR2	14	n/a	n/a	n/a	7	n/a	n/a	n/a	n/a
1142.43359375	n/a	REC_START	2339704	n/a	LTP348	ltpFR2	14	5	n/a	n/a	n/a	n/a	0	0	0
1143.09765625	n/a	REC_WORD	2341064	wordpools/wasnorm_wordpool_576.txt	LTP348	ltpFR2	14	5	BODY	145	n/a	n/a	0	0	0
1143.70458984375	n/a	REC_WORD	2342307	wordpools/wasnorm_wordpool_576.txt	LTP348	ltpFR2	14	5	WORLD	1622	n/a	n/a	0	0	0
1144.3515625	n/a	REC_WORD	2343632	wordpools/wasnorm_wordpool_576.txt	LTP348	ltpFR2	14	5	ATLAS	53	n/a	n/a	0	0	0
1158.45166015625	n/a	REC_WORD	2372509	wordpools/wasnorm_wordpool_576.txt	LTP348	ltpFR2	14	5	DONOR	485	n/a	n/a	0	0	0
1192.5166015625	n/a	REC_WORD	2442274	wordpools/wasnorm_wordpool_576.txt	LTP348	ltpFR2	14	5	BODY	145	n/a	n/a	0	0	0
1192.94189453125	n/a	REC_WORD	2443145	wordpools/wasnorm_wordpool_576.txt	LTP348	ltpFR2	14	5	WORLD	1622	n/a	n/a	0	0	0
1193.53857421875	n/a	REC_WORD	2444367	wordpools/wasnorm_wordpool_576.txt	LTP348	ltpFR2	14	5	ATLAS	53	n/a	n/a	0	0	0
1232.9208984375	n/a	DISTRACTOR	2525022	n/a	LTP348	ltpFR2	14	6	n/a	n/a	n/a	n/a	0	0	0
1232.9208984375	n/a	START	2525022	n/a	LTP348	ltpFR2	14	n/a	n/a	n/a	8	n/a	n/a	n/a	n/a
1232.93798828125	n/a	PROB	2525057	n/a	LTP348	ltpFR2	14	n/a	n/a	n/a	8	11	7	1	3
1234.6533203125	n/a	PROB	2528570	n/a	LTP348	ltpFR2	14	n/a	n/a	n/a	8	16	5	3	8
1237.65234375	n/a	PROB	2534712	n/a	LTP348	ltpFR2	14	n/a	n/a	n/a	8	9	1	1	7
1239.28515625	n/a	PROB	2538056	n/a	LTP348	ltpFR2	14	n/a	n/a	n/a	8	14	6	5	3
1242.1162109375	n/a	PROB	2543854	n/a	LTP348	ltpFR2	14	n/a	n/a	n/a	8	13	1	3	9
1243.9990234375	n/a	PROB	2547710	n/a	LTP348	ltpFR2	14	n/a	n/a	n/a	8	16	6	3	7
1245.51611328125	n/a	PROB	2550817	n/a	LTP348	ltpFR2	14	n/a	n/a	n/a	8	19	4	7	8
1250.31298828125	n/a	PROB	2560641	n/a	LTP348	ltpFR2	14	n/a	n/a	n/a	8	7	1	1	5
1252.111328125	n/a	PROB	2564324	n/a	LTP348	ltpFR2	14	n/a	n/a	n/a	8	20	9	8	3
1256.92138671875	n/a	STOP	2574175	n/a	LTP348	ltpFR2	14	n/a	n/a	n/a	8	n/a	n/a	n/a	n/a
1258.00830078125	n/a	WORD	2576401	wordpools/wasnorm_wordpool_576.txt	LTP348	ltpFR2	14	6	ACTRESS	6	n/a	n/a	0	0	0
1260.6240234375	n/a	WORD	2581758	wordpools/wasnorm_wordpool_576.txt	LTP348	ltpFR2	14	6	TUNNEL	1519	n/a	n/a	0	0	0
1263.05615234375	n/a	WORD	2586739	wordpools/wasnorm_wordpool_576.txt	LTP348	ltpFR2	14	6	LODGE	839	n/a	n/a	0	0	0
1265.67138671875	n/a	WORD	2592095	wordpools/wasnorm_wordpool_576.txt	LTP348	ltpFR2	14	6	MOTEL	919	n/a	n/a	0	0	0
1268.37109375	n/a	WORD	2597624	wordpools/wasnorm_wordpool_576.txt	LTP348	ltpFR2	14	6	POPCORN	1104	n/a	n/a	0	0	0
1270.9521484375	n/a	WORD	2602910	wordpools/wasnorm_wordpool_576.txt	LTP348	ltpFR2	14	6	LASER	801	n/a	n/a	0	0	0
1273.55224609375	n/a	WORD	2608235	wordpools/wasnorm_wordpool_576.txt	LTP348	ltpFR2	14	6	DONKEY	484	n/a	n/a	0	0	0
1276.099609375	n/a	WORD	2613452	wordpools/wasnorm_wordpool_576.txt	LTP348	ltpFR2	14	6	KNIFE	785	n/a	n/a	0	0	0
1278.68115234375	n/a	WORD	2618739	wordpools/wasnorm_wordpool_576.txt	LTP348	ltpFR2	14	6	JELLY	755	n/a	n/a	0	0	0
1281.1982421875	n/a	WORD	2623894	wordpools/wasnorm_wordpool_576.txt	LTP348	ltpFR2	14	6	GALLON	618	n/a	n/a	0	0	0
1283.8955078125	n/a	WORD	2629418	wordpools/wasnorm_wordpool_576.txt	LTP348	ltpFR2	14	6	FLUTE	585	n/a	n/a	0	0	0
1286.529296875	n/a	WORD	2634812	wordpools/wasnorm_wordpool_576.txt	LTP348	ltpFR2	14	6	THIEF	1456	n/a	n/a	0	0	0
1289.34423828125	n/a	WORD	2640577	wordpools/wasnorm_wordpool_576.txt	LTP348	ltpFR2	14	6	BOARD	143	n/a	n/a	0	0	0
1291.84228515625	n/a	WORD	2645693	wordpools/wasnorm_wordpool_576.txt	LTP348	ltpFR2	14	6	KIDNEY	776	n/a	n/a	0	0	0
1294.4755859375	n/a	WORD	2651086	wordpools/wasnorm_wordpool_576.txt	LTP348	ltpFR2	14	6	WAITRESS	1581	n/a	n/a	0	0	0
1297.24072265625	n/a	WORD	2656749	wordpools/wasnorm_wordpool_576.txt	LTP348	ltpFR2	14	6	DINER	467	n/a	n/a	0	0	0
1299.92138671875	n/a	WORD	2662239	wordpools/wasnorm_wordpool_576.txt	LTP348	ltpFR2	14	6	HORSE	719	n/a	n/a	0	0	0
1302.4375	n/a	WORD	2667392	wordpools/wasnorm_wordpool_576.txt	LTP348	ltpFR2	14	6	DOLPHIN	483	n/a	n/a	0	0	0
1305.1865234375	n/a	WORD	2673022	wordpools/wasnorm_wordpool_576.txt	LTP348	ltpFR2	14	6	SEAL	1262	n/a	n/a	0	0	0
1307.70068359375	n/a	WORD	2678171	wordpools/wasnorm_wordpool_576.txt	LTP348	ltpFR2	14	6	SUPPER	1411	n/a	n/a	0	0	0
1310.18359375	n/a	WORD	2683256	wordpools/wasnorm_wordpool_576.txt	LTP348	ltpFR2	14	6	CRITIC	410	n/a	n/a	0	0	0
1312.86474609375	n/a	WORD	2688747	wordpools/wasnorm_wordpool_576.txt	LTP348	ltpFR2	14	6	BANJO	82	n/a	n/a	0	0	0
1315.46484375	n/a	WORD	2694072	wordpools/wasnorm_wordpool_576.txt	LTP348	ltpFR2	14	6	CHAPEL	280	n/a	n/a	0	0	0
1318.1455078125	n/a	WORD	2699562	wordpools/wasnorm_wordpool_576.txt	LTP348	ltpFR2	14	6	SPOON	1357	n/a	n/a	0	0	0
1319.7626953125	n/a	START	2702874	n/a	LTP348	ltpFR2	14	n/a	n/a	n/a	9	n/a	n/a	n/a	n/a
1320.841796875	n/a	DISTRACTOR	2705084	n/a	LTP348	ltpFR2	14	6	n/a	n/a	n/a	n/a	0	0	0
1320.8447265625	n/a	PROB	2705090	n/a	LTP348	ltpFR2	14	n/a	n/a	n/a	9	11	1	4	6
1322.79345703125	n/a	PROB	2709081	n/a	LTP348	ltpFR2	14	n/a	n/a	n/a	9	10	5	4	1
1325.07568359375	n/a	PROB	2713755	n/a	LTP348	ltpFR2	14	n/a	n/a	n/a	9	21	4	9	8
1332.35693359375	n/a	PROB	2728667	n/a	LTP348	ltpFR2	14	n/a	n/a	n/a	9	12	1	6	5
1334.82080078125	n/a	PROB	2733713	n/a	LTP348	ltpFR2	14	n/a	n/a	n/a	9	20	9	4	7
1338.38671875	n/a	PROB	2741016	n/a	LTP348	ltpFR2	14	n/a	n/a	n/a	9	18	6	6	6
1340.1015625	n/a	PROB	2744528	n/a	LTP348	ltpFR2	14	n/a	n/a	n/a	9	17	3	7	7
1343.22900390625	n/a	STOP	2750933	n/a	LTP348	ltpFR2	14	n/a	n/a	n/a	9	n/a	n/a	n/a	n/a
1345.583984375	n/a	REC_START	2755756	n/a	LTP348	ltpFR2	14	6	n/a	n/a	n/a	n/a	0	0	0
1346.15869140625	n/a	REC_WORD	2756933	wordpools/wasnorm_wordpool_576.txt	LTP348	ltpFR2	14	6	DOLPHIN	483	n/a	n/a	0	0	0
1346.68798828125	n/a	REC_WORD	2758017	wordpools/wasnorm_wordpool_576.txt	LTP348	ltpFR2	14	6	SEAL	1262	n/a	n/a	0	0	0
1347.68798828125	n/a	REC_WORD	2760065	wordpools/wasnorm_wordpool_576.txt	LTP348	ltpFR2	14	6	HORSE	719	n/a	n/a	0	0	0
1348.9609375	n/a	REC_WORD	2762672	wordpools/wasnorm_wordpool_576.txt	LTP348	ltpFR2	14	6	ACTRESS	6	n/a	n/a	0	0	0
1351.01904296875	n/a	REC_WORD	2766887	wordpools/wasnorm_wordpool_576.txt	LTP348	ltpFR2	14	6	WAITRESS	1581	n/a	n/a	0	0	0
1353.453125	n/a	REC_WORD	2771872	wordpools/wasnorm_wordpool_576.txt	LTP348	ltpFR2	14	6	KNIFE	785	n/a	n/a	0	0	0
1354.27880859375	n/a	REC_WORD	2773563	wordpools/wasnorm_wordpool_576.txt	LTP348	ltpFR2	14	6	SUPPER	1411	n/a	n/a	0	0	0
1355.2041015625	n/a	REC_WORD	2775458	wordpools/wasnorm_wordpool_576.txt	LTP348	ltpFR2	14	6	SPOON	1357	n/a	n/a	0	0	0
1369.10009765625	n/a	REC_WORD	2803917	wordpools/wasnorm_wordpool_576.txt	LTP348	ltpFR2	14	6	DONOR	485	n/a	n/a	0	0	0
1385.578125	n/a	REC_WORD	2837664	wordpools/wasnorm_wordpool_576.txt	LTP348	ltpFR2	14	6	DONKEY	484	n/a	n/a	0	0	0
1399.45703125	n/a	REC_WORD	2866088	wordpools/wasnorm_wordpool_576.txt	LTP348	ltpFR2	14	6	HEART	697	n/a	n/a	0	0	0
1436.021484375	n/a	DISTRACTOR	2940972	n/a	LTP348	ltpFR2	14	7	n/a	n/a	n/a	n/a	0	0	0
1436.021484375	n/a	START	2940972	n/a	LTP348	ltpFR2	14	n/a	n/a	n/a	10	n/a	n/a	n/a	n/a
1436.03857421875	n/a	PROB	2941007	n/a	LTP348	ltpFR2	14	n/a	n/a	n/a	10	14	7	2	5
1439.83642578125	n/a	PROB	2948785	n/a	LTP348	ltpFR2	14	n/a	n/a	n/a	10	5	1	2	2
1441.75146484375	n/a	PROB	2952707	n/a	LTP348	ltpFR2	14	n/a	n/a	n/a	10	11	6	2	3
1444.91748046875	n/a	PROB	2959191	n/a	LTP348	ltpFR2	14	n/a	n/a	n/a	10	14	6	4	4
1447.2333984375	n/a	PROB	2963934	n/a	LTP348	ltpFR2	14	n/a	n/a	n/a	10	14	1	6	7
1449.265625	n/a	PROB	2968096	n/a	LTP348	ltpFR2	14	n/a	n/a	n/a	10	22	6	8	8
1452.53076171875	n/a	PROB	2974783	n/a	LTP348	ltpFR2	14	n/a	n/a	n/a	10	15	8	1	6
1455.4296875	n/a	PROB	2980720	n/a	LTP348	ltpFR2	14	n/a	n/a	n/a	10	12	6	3	3
1457.7607421875	n/a	PROB	2985494	n/a	LTP348	ltpFR2	14	n/a	n/a	n/a	10	10	2	7	1
1459.3974609375	n/a	STOP	2988846	n/a	LTP348	ltpFR2	14	n/a	n/a	n/a	10	n/a	n/a	n/a	n/a
1460.90966796875	n/a	WORD	2991943	wordpools/wasnorm_wordpool_576.txt	LTP348	ltpFR2	14	7	ANTLER	29	n/a	n/a	0	0	0
1463.525390625	n/a	WORD	2997300	wordpools/wasnorm_wordpool_576.txt	LTP348	ltpFR2	14	7	GAZELLE	628	n/a	n/a	0	0	0
1466.2744140625	n/a	WORD	3002930	wordpools/wasnorm_wordpool_576.txt	LTP348	ltpFR2	14	7	PAPER	1011	n/a	n/a	0	0	0
1468.95556640625	n/a	WORD	3008421	wordpools/wasnorm_wordpool_576.txt	LTP348	ltpFR2	14	7	VELVET	1555	n/a	n/a	0	0	0
1471.587890625	n/a	WORD	3013812	wordpools/wasnorm_wordpool_576.txt	LTP348	ltpFR2	14	7	BRIEFCASE	175	n/a	n/a	0	0	0
1474.1865234375	n/a	WORD	3019134	wordpools/wasnorm_wordpool_576.txt	LTP348	ltpFR2	14	7	TWIG	1527	n/a	n/a	0	0	0
1476.9677734375	n/a	WORD	3024830	wordpools/wasnorm_wordpool_576.txt	LTP348	ltpFR2	14	7	FILM	565	n/a	n/a	0	0	0
1479.4677734375	n/a	WORD	3029950	wordpools/wasnorm_wordpool_576.txt	LTP348	ltpFR2	14	7	FRIEND	606	n/a	n/a	0	0	0
1482.1826171875	n/a	WORD	3035510	wordpools/wasnorm_wordpool_576.txt	LTP348	ltpFR2	14	7	COWBOY	395	n/a	n/a	0	0	0
1484.91357421875	n/a	WORD	3041103	wordpools/wasnorm_wordpool_576.txt	LTP348	ltpFR2	14	7	ZEBRA	1635	n/a	n/a	0	0	0
1487.712890625	n/a	WORD	3046836	wordpools/wasnorm_wordpool_576.txt	LTP348	ltpFR2	14	7	PASSAGE	1019	n/a	n/a	0	0	0
1490.16162109375	n/a	WORD	3051851	wordpools/wasnorm_wordpool_576.txt	LTP348	ltpFR2	14	7	DRESS	495	n/a	n/a	0	0	0
1492.74365234375	n/a	WORD	3057139	wordpools/wasnorm_wordpool_576.txt	LTP348	ltpFR2	14	7	MEAT	883	n/a	n/a	0	0	0
1495.35986328125	n/a	WORD	3062497	wordpools/wasnorm_wordpool_576.txt	LTP348	ltpFR2	14	7	TURKEY	1520	n/a	n/a	0	0	0
1497.9248046875	n/a	WORD	3067750	wordpools/wasnorm_wordpool_576.txt	LTP348	ltpFR2	14	7	BEAVER	109	n/a	n/a	0	0	0
1500.58984375	n/a	WORD	3073208	wordpools/wasnorm_wordpool_576.txt	LTP348	ltpFR2	14	7	OUTFIT	988	n/a	n/a	0	0	0
1503.171875	n/a	WORD	3078496	wordpools/wasnorm_wordpool_576.txt	LTP348	ltpFR2	14	7	STAPLE	1371	n/a	n/a	0	0	0
1505.75390625	n/a	WORD	3083784	wordpools/wasnorm_wordpool_576.txt	LTP348	ltpFR2	14	7	CUPBOARD	425	n/a	n/a	0	0	0
1508.2041015625	n/a	WORD	3088802	wordpools/wasnorm_wordpool_576.txt	LTP348	ltpFR2	14	7	SALT	1229	n/a	n/a	0	0	0
1510.91796875	n/a	WORD	3094360	wordpools/wasnorm_wordpool_576.txt	LTP348	ltpFR2	14	7	HANDBAG	684	n/a	n/a	0	0	0
1513.4677734375	n/a	WORD	3099582	wordpools/wasnorm_wordpool_576.txt	LTP348	ltpFR2	14	7	BANKER	84	n/a	n/a	0	0	0
1515.916015625	n/a	WORD	3104596	wordpools/wasnorm_wordpool_576.txt	LTP348	ltpFR2	14	7	MARKET	871	n/a	n/a	0	0	0
1518.43212890625	n/a	WORD	3109749	wordpools/wasnorm_wordpool_576.txt	LTP348	ltpFR2	14	7	ANKLE	24	n/a	n/a	0	0	0
1521.23095703125	n/a	WORD	3115481	wordpools/wasnorm_wordpool_576.txt	LTP348	ltpFR2	14	7	MAILBOX	857	n/a	n/a	0	0	0
1522.84619140625	n/a	START	3118789	n/a	LTP348	ltpFR2	14	n/a	n/a	n/a	11	n/a	n/a	n/a	n/a
1523.89697265625	n/a	DISTRACTOR	3120941	n/a	LTP348	ltpFR2	14	7	n/a	n/a	n/a	n/a	0	0	0
1523.912109375	n/a	PROB	3120972	n/a	LTP348	ltpFR2	14	n/a	n/a	n/a	11	17	7	6	4
1526.11083984375	n/a	PROB	3125475	n/a	LTP348	ltpFR2	14	n/a	n/a	n/a	11	11	3	4	3
1528.02587890625	n/a	PROB	3129397	n/a	LTP348	ltpFR2	14	n/a	n/a	n/a	11	11	1	4	6
1530.658203125	n/a	PROB	3134788	n/a	LTP348	ltpFR2	14	n/a	n/a	n/a	11	20	9	5	6
1533.08984375	n/a	PROB	3139768	n/a	LTP348	ltpFR2	14	n/a	n/a	n/a	11	16	7	4	5
1535.3740234375	n/a	PROB	3144446	n/a	LTP348	ltpFR2	14	n/a	n/a	n/a	11	24	9	9	6
1537.72119140625	n/a	PROB	3149253	n/a	LTP348	ltpFR2	14	n/a	n/a	n/a	11	23	7	7	9
1540.0869140625	n/a	PROB	3154098	n/a	LTP348	ltpFR2	14	n/a	n/a	n/a	11	6	1	4	1
1542.119140625	n/a	PROB	3158260	n/a	LTP348	ltpFR2	14	n/a	n/a	n/a	11	20	9	8	3
1546.84619140625	n/a	STOP	3167941	n/a	LTP348	ltpFR2	14	n/a	n/a	n/a	11	n/a	n/a	n/a	n/a
1548.63330078125	n/a	REC_START	3171601	n/a	LTP348	ltpFR2	14	7	n/a	n/a	n/a	n/a	0	0	0
1549.22021484375	n/a	REC_WORD	3172803	wordpools/wasnorm_wordpool_576.txt	LTP348	ltpFR2	14	7	ANTLER	29	n/a	n/a	0	0	0
1549.8623046875	n/a	REC_WORD	3174118	wordpools/wasnorm_wordpool_576.txt	LTP348	ltpFR2	14	7	GAZELLE	628	n/a	n/a	0	0	0
1550.4921875	n/a	REC_WORD	3175408	wordpools/wasnorm_wordpool_576.txt	LTP348	ltpFR2	14	7	MAILBOX	857	n/a	n/a	0	0	0
1558.4951171875	n/a	REC_WORD	3191798	wordpools/wasnorm_wordpool_576.txt	LTP348	ltpFR2	14	7	POSTAGE	1113	n/a	n/a	0	0	0
1564.75830078125	n/a	REC_WORD	3204625	wordpools/wasnorm_wordpool_576.txt	LTP348	ltpFR2	14	7	VELVET	1555	n/a	n/a	0	0	0
1572.50732421875	n/a	REC_WORD	3220495	wordpools/wasnorm_wordpool_576.txt	LTP348	ltpFR2	14	7	BANKER	84	n/a	n/a	0	0	0
1573.275390625	n/a	REC_WORD	3222068	wordpools/wasnorm_wordpool_576.txt	LTP348	ltpFR2	14	7	BANK	83	n/a	n/a	0	0	0
1619.6806640625	n/a	REC_WORD	3317106	wordpools/wasnorm_wordpool_576.txt	LTP348	ltpFR2	14	7	MILK	895	n/a	n/a	0	0	0
1639.0888671875	n/a	WORD	3356854	wordpools/wasnorm_wordpool_576.txt	LTP348	ltpFR2	14	8	PLUTO	1092	n/a	n/a	0	0	0
1641.5869140625	n/a	WORD	3361970	wordpools/wasnorm_wordpool_576.txt	LTP348	ltpFR2	14	8	HEADBAND	696	n/a	n/a	0	0	0
1644.23681640625	n/a	WORD	3367397	wordpools/wasnorm_wordpool_576.txt	LTP348	ltpFR2	14	8	DANDRUFF	439	n/a	n/a	0	0	0
1646.78466796875	n/a	WORD	3372615	wordpools/wasnorm_wordpool_576.txt	LTP348	ltpFR2	14	8	LAPEL	800	n/a	n/a	0	0	0
1649.2509765625	n/a	WORD	3377666	wordpools/wasnorm_wordpool_576.txt	LTP348	ltpFR2	14	8	WASP	1593	n/a	n/a	0	0	0
1652.03173828125	n/a	WORD	3383361	wordpools/wasnorm_wordpool_576.txt	LTP348	ltpFR2	14	8	BINDER	127	n/a	n/a	0	0	0
1654.56494140625	n/a	WORD	3388549	wordpools/wasnorm_wordpool_576.txt	LTP348	ltpFR2	14	8	LUMBER	848	n/a	n/a	0	0	0
1657.046875	n/a	WORD	3393632	wordpools/wasnorm_wordpool_576.txt	LTP348	ltpFR2	14	8	FLEET	578	n/a	n/a	0	0	0
1659.7451171875	n/a	WORD	3399158	wordpools/wasnorm_wordpool_576.txt	LTP348	ltpFR2	14	8	VENUS	1557	n/a	n/a	0	0	0
1662.22802734375	n/a	WORD	3404243	wordpools/wasnorm_wordpool_576.txt	LTP348	ltpFR2	14	8	CONTRACT	368	n/a	n/a	0	0	0
1664.958984375	n/a	WORD	3409836	wordpools/wasnorm_wordpool_576.txt	LTP348	ltpFR2	14	8	PACKAGE	997	n/a	n/a	0	0	0
1667.658203125	n/a	WORD	3415364	wordpools/wasnorm_wordpool_576.txt	LTP348	ltpFR2	14	8	TRENCH	1503	n/a	n/a	0	0	0
1670.30810546875	n/a	WORD	3420791	wordpools/wasnorm_wordpool_576.txt	LTP348	ltpFR2	14	8	COLONEL	348	n/a	n/a	0	0	0
1672.93896484375	n/a	WORD	3426179	wordpools/wasnorm_wordpool_576.txt	LTP348	ltpFR2	14	8	CURTAIN	427	n/a	n/a	0	0	0
1675.75390625	n/a	WORD	3431944	wordpools/wasnorm_wordpool_576.txt	LTP348	ltpFR2	14	8	NECKLACE	940	n/a	n/a	0	0	0
1678.32080078125	n/a	WORD	3437201	wordpools/wasnorm_wordpool_576.txt	LTP348	ltpFR2	14	8	BROOK	177	n/a	n/a	0	0	0
1681.10107421875	n/a	WORD	3442895	wordpools/wasnorm_wordpool_576.txt	LTP348	ltpFR2	14	8	CORAL	378	n/a	n/a	0	0	0
1683.7001953125	n/a	WORD	3448218	wordpools/wasnorm_wordpool_576.txt	LTP348	ltpFR2	14	8	GRAVEL	659	n/a	n/a	0	0	0
1686.51611328125	n/a	WORD	3453985	wordpools/wasnorm_wordpool_576.txt	LTP348	ltpFR2	14	8	SIBLING	1301	n/a	n/a	0	0	0
1689.1640625	n/a	WORD	3459408	wordpools/wasnorm_wordpool_576.txt	LTP348	ltpFR2	14	8	SISTER	1312	n/a	n/a	0	0	0
1691.779296875	n/a	WORD	3464764	wordpools/wasnorm_wordpool_576.txt	LTP348	ltpFR2	14	8	STAKE	1368	n/a	n/a	0	0	0
1694.59521484375	n/a	WORD	3470531	wordpools/wasnorm_wordpool_576.txt	LTP348	ltpFR2	14	8	STOVE	1388	n/a	n/a	0	0	0
1697.2783203125	n/a	WORD	3476026	wordpools/wasnorm_wordpool_576.txt	LTP348	ltpFR2	14	8	PUPIL	1143	n/a	n/a	0	0	0
1699.8251953125	n/a	WORD	3481242	wordpools/wasnorm_wordpool_576.txt	LTP348	ltpFR2	14	8	STICKER	1382	n/a	n/a	0	0	0
1701.4423828125	n/a	START	3484554	n/a	LTP348	ltpFR2	14	n/a	n/a	n/a	12	n/a	n/a	n/a	n/a
1702.2490234375	n/a	DISTRACTOR	3486206	n/a	LTP348	ltpFR2	14	8	n/a	n/a	n/a	n/a	0	0	0
1702.25830078125	n/a	PROB	3486225	n/a	LTP348	ltpFR2	14	n/a	n/a	n/a	12	6	2	3	1
1704.34130859375	n/a	PROB	3490491	n/a	LTP348	ltpFR2	14	n/a	n/a	n/a	12	19	6	8	5
1707.5390625	n/a	PROB	3497040	n/a	LTP348	ltpFR2	14	n/a	n/a	n/a	12	26	1	8	7
1710.3212890625	n/a	PROB	3502738	n/a	LTP348	ltpFR2	14	n/a	n/a	n/a	12	15	3	7	5
1715.0341796875	n/a	PROB	3512390	n/a	LTP348	ltpFR2	14	n/a	n/a	n/a	12	15	3	8	4
1718.4501953125	n/a	PROB	3519386	n/a	LTP348	ltpFR2	14	n/a	n/a	n/a	12	12	2	6	3
1725.4423828125	n/a	STOP	3533706	n/a	LTP348	ltpFR2	14	n/a	n/a	n/a	12	n/a	n/a	n/a	n/a
1727.26318359375	n/a	REC_START	3537435	n/a	LTP348	ltpFR2	14	8	n/a	n/a	n/a	n/a	0	0	0
1733.74658203125	n/a	REC_WORD	3550713	wordpools/wasnorm_wordpool_576.txt	LTP348	ltpFR2	14	8	STICKER	1382	n/a	n/a	0	0	0
1737.37646484375	n/a	REC_WORD	3558147	wordpools/wasnorm_wordpool_576.txt	LTP348	ltpFR2	14	8	PLUTO	1092	n/a	n/a	0	0	0
1755.66845703125	n/a	REC_WORD	3595609	wordpools/wasnorm_wordpool_576.txt	LTP348	ltpFR2	14	8	STAKE	1368	n/a	n/a	0	0	0
1803.80810546875	n/a	REST_REWET	3694199	n/a	LTP348	ltpFR2	14	8	n/a	n/a	n/a	n/a	0	0	0
1916.32080078125	n/a	DISTRACTOR	3924625	n/a	LTP348	ltpFR2	14	9	n/a	n/a	n/a	n/a	0	0	0
1916.32080078125	n/a	START	3924625	n/a	LTP348	ltpFR2	14	n/a	n/a	n/a	13	n/a	n/a	n/a	n/a
1916.33740234375	n/a	PROB	3924659	n/a	LTP348	ltpFR2	14	n/a	n/a	n/a	13	7	1	1	5
1917.86865234375	n/a	PROB	3927795	n/a	LTP348	ltpFR2	14	n/a	n/a	n/a	13	14	7	2	5
1920.61767578125	n/a	PROB	3933425	n/a	LTP348	ltpFR2	14	n/a	n/a	n/a	13	15	5	6	4
1922.58251953125	n/a	PROB	3937449	n/a	LTP348	ltpFR2	14	n/a	n/a	n/a	13	11	4	2	5
1925.3828125	n/a	PROB	3943184	n/a	LTP348	ltpFR2	14	n/a	n/a	n/a	13	19	7	4	8
1927.59765625	n/a	PROB	3947720	n/a	LTP348	ltpFR2	14	n/a	n/a	n/a	13	19	9	4	6
1929.5478515625	n/a	PROB	3951714	n/a	LTP348	ltpFR2	14	n/a	n/a	n/a	13	14	1	4	9
1931.57861328125	n/a	PROB	3955873	n/a	LTP348	ltpFR2	14	n/a	n/a	n/a	13	22	8	7	7
1935.19482421875	n/a	PROB	3963279	n/a	LTP348	ltpFR2	14	n/a	n/a	n/a	13	11	3	7	1
1936.60986328125	n/a	PROB	3966177	n/a	LTP348	ltpFR2	14	n/a	n/a	n/a	13	17	2	8	7
1939.91162109375	n/a	STOP	3972939	n/a	LTP348	ltpFR2	14	n/a	n/a	n/a	13	n/a	n/a	n/a	n/a
1941.27490234375	n/a	WORD	3975731	wordpools/wasnorm_wordpool_576.txt	LTP348	ltpFR2	14	9	LEOPARD	812	n/a	n/a	0	0	0
1943.8056640625	n/a	WORD	3980914	wordpools/wasnorm_wordpool_576.txt	LTP348	ltpFR2	14	9	LABEL	790	n/a	n/a	0	0	0
1946.3056640625	n/a	WORD	3986034	wordpools/wasnorm_wordpool_576.txt	LTP348	ltpFR2	14	9	TRACTOR	1493	n/a	n/a	0	0	0
1948.919921875	n/a	WORD	3991388	wordpools/wasnorm_wordpool_576.txt	LTP348	ltpFR2	14	9	OUTDOORS	987	n/a	n/a	0	0	0
1951.5029296875	n/a	WORD	3996678	wordpools/wasnorm_wordpool_576.txt	LTP348	ltpFR2	14	9	GLOBE	641	n/a	n/a	0	0	0
1953.98388671875	n/a	WORD	4001759	wordpools/wasnorm_wordpool_576.txt	LTP348	ltpFR2	14	9	GROUND	666	n/a	n/a	0	0	0
1956.53369140625	n/a	WORD	4006981	wordpools/wasnorm_wordpool_576.txt	LTP348	ltpFR2	14	9	TERMITE	1451	n/a	n/a	0	0	0
1959.1650390625	n/a	WORD	4012370	wordpools/wasnorm_wordpool_576.txt	LTP348	ltpFR2	14	9	BREAST	171	n/a	n/a	0	0	0
1961.6640625	n/a	WORD	4017488	wordpools/wasnorm_wordpool_576.txt	LTP348	ltpFR2	14	9	HAND	683	n/a	n/a	0	0	0
1964.4140625	n/a	WORD	4023120	wordpools/wasnorm_wordpool_576.txt	LTP348	ltpFR2	14	9	WRIST	1626	n/a	n/a	0	0	0
1967.0947265625	n/a	WORD	4028610	wordpools/wasnorm_wordpool_576.txt	LTP348	ltpFR2	14	9	CAFE	216	n/a	n/a	0	0	0
1969.5439453125	n/a	WORD	4033626	wordpools/wasnorm_wordpool_576.txt	LTP348	ltpFR2	14	9	CELLAR	267	n/a	n/a	0	0	0
1972.10888671875	n/a	WORD	4038879	wordpools/wasnorm_wordpool_576.txt	LTP348	ltpFR2	14	9	ROOSTER	1209	n/a	n/a	0	0	0
1974.55908203125	n/a	WORD	4043897	wordpools/wasnorm_wordpool_576.txt	LTP348	ltpFR2	14	9	FRANCE	601	n/a	n/a	0	0	0
1977.05615234375	n/a	WORD	4049011	wordpools/wasnorm_wordpool_576.txt	LTP348	ltpFR2	14	9	MAPLE	866	n/a	n/a	0	0	0
1979.4892578125	n/a	WORD	4053994	wordpools/wasnorm_wordpool_576.txt	LTP348	ltpFR2	14	9	LEADER	807	n/a	n/a	0	0	0
1982.037109375	n/a	WORD	4059212	wordpools/wasnorm_wordpool_576.txt	LTP348	ltpFR2	14	9	RIFLE	1192	n/a	n/a	0	0	0
1984.60302734375	n/a	WORD	4064467	wordpools/wasnorm_wordpool_576.txt	LTP348	ltpFR2	14	9	LIGHTNING	820	n/a	n/a	0	0	0
1987.236328125	n/a	WORD	4069860	wordpools/wasnorm_wordpool_576.txt	LTP348	ltpFR2	14	9	SHRUB	1299	n/a	n/a	0	0	0
1989.98291015625	n/a	WORD	4075485	wordpools/wasnorm_wordpool_576.txt	LTP348	ltpFR2	14	9	JAPAN	749	n/a	n/a	0	0	0
1992.43310546875	n/a	WORD	4080503	wordpools/wasnorm_wordpool_576.txt	LTP348	ltpFR2	14	9	RELISH	1183	n/a	n/a	0	0	0
1995.13134765625	n/a	WORD	4086029	wordpools/wasnorm_wordpool_576.txt	LTP348	ltpFR2	14	9	KETCHUP	771	n/a	n/a	0	0	0
1997.89599609375	n/a	WORD	4091691	wordpools/wasnorm_wordpool_576.txt	LTP348	ltpFR2	14	9	MUFFIN	929	n/a	n/a	0	0	0
2000.51220703125	n/a	WORD	4097049	wordpools/wasnorm_wordpool_576.txt	LTP348	ltpFR2	14	9	SUBWAY	1400	n/a	n/a	0	0	0
2002.12744140625	n/a	START	4100357	n/a	LTP348	ltpFR2	14	n/a	n/a	n/a	14	n/a	n/a	n/a	n/a
2002.93115234375	n/a	DISTRACTOR	4102003	n/a	LTP348	ltpFR2	14	9	n/a	n/a	n/a	n/a	0	0	0
2002.943359375	n/a	PROB	4102028	n/a	LTP348	ltpFR2	14	n/a	n/a	n/a	14	18	6	7	5
2006.75830078125	n/a	PROB	4109841	n/a	LTP348	ltpFR2	14	n/a	n/a	n/a	14	10	1	3	6
2008.54248046875	n/a	PROB	4113495	n/a	LTP348	ltpFR2	14	n/a	n/a	n/a	14	16	3	5	8
2011.7392578125	n/a	PROB	4120042	n/a	LTP348	ltpFR2	14	n/a	n/a	n/a	14	15	8	1	6
2015.47216796875	n/a	PROB	4127687	n/a	LTP348	ltpFR2	14	n/a	n/a	n/a	14	14	4	3	7
2017.96923828125	n/a	PROB	4132801	n/a	LTP348	ltpFR2	14	n/a	n/a	n/a	14	23	9	8	6
2025.67236328125	n/a	STOP	4148577	n/a	LTP348	ltpFR2	14	n/a	n/a	n/a	14	n/a	n/a	n/a	n/a
2027.9482421875	n/a	REC_START	4153238	n/a	LTP348	ltpFR2	14	9	n/a	n/a	n/a	n/a	0	0	0
2028.12158203125	n/a	REC_WORD	4153593	wordpools/wasnorm_wordpool_576.txt	LTP348	ltpFR2	14	9	MUFFIN	929	n/a	n/a	0	0	0
2029.00146484375	n/a	REC_WORD	4155395	wordpools/wasnorm_wordpool_576.txt	LTP348	ltpFR2	14	9	GROUND	666	n/a	n/a	0	0	0
2031.71435546875	n/a	REC_WORD	4160951	wordpools/wasnorm_wordpool_576.txt	LTP348	ltpFR2	14	9	KETCHUP	771	n/a	n/a	0	0	0
2032.46337890625	n/a	REC_WORD	4162485	wordpools/wasnorm_wordpool_576.txt	LTP348	ltpFR2	14	9	RELISH	1183	n/a	n/a	0	0	0
2118.38818359375	n/a	DISTRACTOR	4338459	n/a	LTP348	ltpFR2	14	10	n/a	n/a	n/a	n/a	0	0	0
2118.38818359375	n/a	START	4338459	n/a	LTP348	ltpFR2	14	n/a	n/a	n/a	15	n/a	n/a	n/a	n/a
2118.40478515625	n/a	PROB	4338493	n/a	LTP348	ltpFR2	14	n/a	n/a	n/a	15	20	9	3	8
2122.55322265625	n/a	PROB	4346989	n/a	LTP348	ltpFR2	14	n/a	n/a	n/a	15	21	9	3	9
2125.01708984375	n/a	PROB	4352035	n/a	LTP348	ltpFR2	14	n/a	n/a	n/a	15	9	3	5	1
2127.94921875	n/a	PROB	4358040	n/a	LTP348	ltpFR2	14	n/a	n/a	n/a	15	18	4	5	9
2130.5810546875	n/a	PROB	4363430	n/a	LTP348	ltpFR2	14	n/a	n/a	n/a	15	24	9	9	6
2134.197265625	n/a	PROB	4370836	n/a	LTP348	ltpFR2	14	n/a	n/a	n/a	15	22	7	9	6
2139.1943359375	n/a	PROB	4381070	n/a	LTP348	ltpFR2	14	n/a	n/a	n/a	15	19	9	8	2
2141.13720703125	n/a	STOP	4385049	n/a	LTP348	ltpFR2	14	n/a	n/a	n/a	15	n/a	n/a	n/a	n/a
2143.55908203125	n/a	WORD	4390009	wordpools/wasnorm_wordpool_576.txt	LTP348	ltpFR2	14	10	MARROW	872	n/a	n/a	0	0	0
2146.1572265625	n/a	WORD	4395330	wordpools/wasnorm_wordpool_576.txt	LTP348	ltpFR2	14	10	BACKBONE	66	n/a	n/a	0	0	0
2148.63916015625	n/a	WORD	4400413	wordpools/wasnorm_wordpool_576.txt	LTP348	ltpFR2	14	10	NOTEBOOK	959	n/a	n/a	0	0	0
2151.2880859375	n/a	WORD	4405838	wordpools/wasnorm_wordpool_576.txt	LTP348	ltpFR2	14	10	DRINK	498	n/a	n/a	0	0	0
2154.08642578125	n/a	WORD	4411569	wordpools/wasnorm_wordpool_576.txt	LTP348	ltpFR2	14	10	COIN	343	n/a	n/a	0	0	0
2156.5693359375	n/a	WORD	4416654	wordpools/wasnorm_wordpool_576.txt	LTP348	ltpFR2	14	10	DIME	466	n/a	n/a	0	0	0
2159.0673828125	n/a	WORD	4421770	wordpools/wasnorm_wordpool_576.txt	LTP348	ltpFR2	14	10	JUNGLE	764	n/a	n/a	0	0	0
2161.533203125	n/a	WORD	4426820	wordpools/wasnorm_wordpool_576.txt	LTP348	ltpFR2	14	10	TABLET	1427	n/a	n/a	0	0	0
2164.1640625	n/a	WORD	4432208	wordpools/wasnorm_wordpool_576.txt	LTP348	ltpFR2	14	10	CITRUS	313	n/a	n/a	0	0	0
2166.697265625	n/a	WORD	4437396	wordpools/wasnorm_wordpool_576.txt	LTP348	ltpFR2	14	10	SURVEY	1414	n/a	n/a	0	0	0
2169.23046875	n/a	WORD	4442584	wordpools/wasnorm_wordpool_576.txt	LTP348	ltpFR2	14	10	CARRIAGE	248	n/a	n/a	0	0	0
2171.9775390625	n/a	WORD	4448210	wordpools/wasnorm_wordpool_576.txt	LTP348	ltpFR2	14	10	LOFT	840	n/a	n/a	0	0	0
2174.70947265625	n/a	WORD	4453805	wordpools/wasnorm_wordpool_576.txt	LTP348	ltpFR2	14	10	BANK	83	n/a	n/a	0	0	0
2177.2421875	n/a	WORD	4458992	wordpools/wasnorm_wordpool_576.txt	LTP348	ltpFR2	14	10	GIRL	637	n/a	n/a	0	0	0
2179.72314453125	n/a	WORD	4464073	wordpools/wasnorm_wordpool_576.txt	LTP348	ltpFR2	14	10	DENIM	446	n/a	n/a	0	0	0
2182.240234375	n/a	WORD	4469228	wordpools/wasnorm_wordpool_576.txt	LTP348	ltpFR2	14	10	ONION	977	n/a	n/a	0	0	0
2184.771484375	n/a	WORD	4474412	wordpools/wasnorm_wordpool_576.txt	LTP348	ltpFR2	14	10	CHURCH	307	n/a	n/a	0	0	0
2187.4375	n/a	WORD	4479872	wordpools/wasnorm_wordpool_576.txt	LTP348	ltpFR2	14	10	PATIENT	1024	n/a	n/a	0	0	0
2190.05224609375	n/a	WORD	4485227	wordpools/wasnorm_wordpool_576.txt	LTP348	ltpFR2	14	10	OINTMENT	974	n/a	n/a	0	0	0
2192.80029296875	n/a	WORD	4490855	wordpools/wasnorm_wordpool_576.txt	LTP348	ltpFR2	14	10	LUNCH	849	n/a	n/a	0	0	0
2195.400390625	n/a	WORD	4496180	wordpools/wasnorm_wordpool_576.txt	LTP348	ltpFR2	14	10	PREACHER	1119	n/a	n/a	0	0	0
2197.9814453125	n/a	WORD	4501466	wordpools/wasnorm_wordpool_576.txt	LTP348	ltpFR2	14	10	BRACES	164	n/a	n/a	0	0	0
2200.74658203125	n/a	WORD	4507129	wordpools/wasnorm_wordpool_576.txt	LTP348	ltpFR2	14	10	BOYFRIEND	162	n/a	n/a	0	0	0
2203.1796875	n/a	WORD	4512112	wordpools/wasnorm_wordpool_576.txt	LTP348	ltpFR2	14	10	PEACH	1031	n/a	n/a	0	0	0
2204.79443359375	n/a	START	4515419	n/a	LTP348	ltpFR2	14	n/a	n/a	n/a	16	n/a	n/a	n/a	n/a
2205.7314453125	n/a	DISTRACTOR	4517338	n/a	LTP348	ltpFR2	14	10	n/a	n/a	n/a	n/a	0	0	0
2205.74462890625	n/a	PROB	4517365	n/a	LTP348	ltpFR2	14	n/a	n/a	n/a	16	14	7	1	6
2208.3935546875	n/a	PROB	4522790	n/a	LTP348	ltpFR2	14	n/a	n/a	n/a	16	11	2	7	2
2212.107421875	n/a	PROB	4530396	n/a	LTP348	ltpFR2	14	n/a	n/a	n/a	16	25	9	7	9
2217.0888671875	n/a	PROB	4540598	n/a	LTP348	ltpFR2	14	n/a	n/a	n/a	16	19	8	9	2
2220.53759765625	n/a	PROB	4547661	n/a	LTP348	ltpFR2	14	n/a	n/a	n/a	16	21	8	7	6
2224.95166015625	n/a	PROB	4556701	n/a	LTP348	ltpFR2	14	n/a	n/a	n/a	16	14	5	7	2
2227.37890625	n/a	STOP	4561672	n/a	LTP348	ltpFR2	14	n/a	n/a	n/a	16	n/a	n/a	n/a	n/a
2230.6328125	n/a	REC_START	4568336	n/a	LTP348	ltpFR2	14	10	n/a	n/a	n/a	n/a	0	0	0
2231.08154296875	n/a	REC_WORD	4569255	wordpools/wasnorm_wordpool_576.txt	LTP348	ltpFR2	14	10	MAMMAL	861	n/a	n/a	0	0	0
2231.89697265625	n/a	REC_WORD	4570925	wordpools/wasnorm_wordpool_576.txt	LTP348	ltpFR2	14	10	BACKBONE	66	n/a	n/a	0	0	0
2232.77197265625	n/a	REC_WORD	4572717	wordpools/wasnorm_wordpool_576.txt	LTP348	ltpFR2	14	10	ONION	977	n/a	n/a	0	0	0
2234.0556640625	n/a	REC_WORD	4575346	wordpools/wasnorm_wordpool_576.txt	LTP348	ltpFR2	14	10	GIRL	637	n/a	n/a	0	0	0
2235.15966796875	n/a	REC_WORD	4577607	wordpools/wasnorm_wordpool_576.txt	LTP348	ltpFR2	14	10	BANK	83	n/a	n/a	0	0	0
2297.4560546875	n/a	REC_WORD	4705190	wordpools/wasnorm_wordpool_576.txt	LTP348	ltpFR2	14	10	DANCE	-1	n/a	n/a	0	0	0
2321.08837890625	n/a	DISTRACTOR	4753589	n/a	LTP348	ltpFR2	14	11	n/a	n/a	n/a	n/a	0	0	0
2321.08837890625	n/a	START	4753589	n/a	LTP348	ltpFR2	14	n/a	n/a	n/a	17	n/a	n/a	n/a	n/a
2321.1044921875	n/a	PROB	4753622	n/a	LTP348	ltpFR2	14	n/a	n/a	n/a	17	14	1	4	9
2323.2041015625	n/a	PROB	4757922	n/a	LTP348	ltpFR2	14	n/a	n/a	n/a	17	17	4	8	5
2326.486328125	n/a	PROB	4764644	n/a	LTP348	ltpFR2	14	n/a	n/a	n/a	17	19	9	9	1
2328.83447265625	n/a	PROB	4769453	n/a	LTP348	ltpFR2	14	n/a	n/a	n/a	17	11	6	4	1
2330.58349609375	n/a	PROB	4773035	n/a	LTP348	ltpFR2	14	n/a	n/a	n/a	17	12	7	1	4
2335.09765625	n/a	PROB	4782280	n/a	LTP348	ltpFR2	14	n/a	n/a	n/a	17	16	5	8	3
2337.59619140625	n/a	PROB	4787397	n/a	LTP348	ltpFR2	14	n/a	n/a	n/a	17	20	2	9	9
2339.76123046875	n/a	PROB	4791831	n/a	LTP348	ltpFR2	14	n/a	n/a	n/a	17	12	2	1	9
2345.08837890625	n/a	STOP	4802741	n/a	LTP348	ltpFR2	14	n/a	n/a	n/a	17	n/a	n/a	n/a	n/a
2346.05859375	n/a	WORD	4804728	wordpools/wasnorm_wordpool_576.txt	LTP348	ltpFR2	14	11	CUSTARD	429	n/a	n/a	0	0	0
2348.525390625	n/a	WORD	4809780	wordpools/wasnorm_wordpool_576.txt	LTP348	ltpFR2	14	11	PRINCESS	1125	n/a	n/a	0	0	0
2351.0234375	n/a	WORD	4814896	wordpools/wasnorm_wordpool_576.txt	LTP348	ltpFR2	14	11	CROWN	415	n/a	n/a	0	0	0
2353.67138671875	n/a	WORD	4820319	wordpools/wasnorm_wordpool_576.txt	LTP348	ltpFR2	14	11	HOUND	724	n/a	n/a	0	0	0
2356.4716796875	n/a	WORD	4826054	wordpools/wasnorm_wordpool_576.txt	LTP348	ltpFR2	14	11	GOBLIN	645	n/a	n/a	0	0	0
2359.23681640625	n/a	WORD	4831717	wordpools/wasnorm_wordpool_576.txt	LTP348	ltpFR2	14	11	LADY	794	n/a	n/a	0	0	0
2361.9345703125	n/a	WORD	4837242	wordpools/wasnorm_wordpool_576.txt	LTP348	ltpFR2	14	11	VAGRANT	1544	n/a	n/a	0	0	0
2364.74951171875	n/a	WORD	4843007	wordpools/wasnorm_wordpool_576.txt	LTP348	ltpFR2	14	11	SALMON	1227	n/a	n/a	0	0	0
2367.58154296875	n/a	WORD	4848807	wordpools/wasnorm_wordpool_576.txt	LTP348	ltpFR2	14	11	PENGUIN	1044	n/a	n/a	0	0	0
2370.19775390625	n/a	WORD	4854165	wordpools/wasnorm_wordpool_576.txt	LTP348	ltpFR2	14	11	SCALLOP	1242	n/a	n/a	0	0	0
2372.87890625	n/a	WORD	4859656	wordpools/wasnorm_wordpool_576.txt	LTP348	ltpFR2	14	11	KNAPSACK	783	n/a	n/a	0	0	0
2375.32861328125	n/a	WORD	4864673	wordpools/wasnorm_wordpool_576.txt	LTP348	ltpFR2	14	11	FRIAR	605	n/a	n/a	0	0	0
2378.10986328125	n/a	WORD	4870369	wordpools/wasnorm_wordpool_576.txt	LTP348	ltpFR2	14	11	POCKET	1093	n/a	n/a	0	0	0
2380.60888671875	n/a	WORD	4875487	wordpools/wasnorm_wordpool_576.txt	LTP348	ltpFR2	14	11	ICING	732	n/a	n/a	0	0	0
2383.40869140625	n/a	WORD	4881221	wordpools/wasnorm_wordpool_576.txt	LTP348	ltpFR2	14	11	COBRA	336	n/a	n/a	0	0	0
2386.10595703125	n/a	WORD	4886745	wordpools/wasnorm_wordpool_576.txt	LTP348	ltpFR2	14	11	POISON	1096	n/a	n/a	0	0	0
2388.671875	n/a	WORD	4892000	wordpools/wasnorm_wordpool_576.txt	LTP348	ltpFR2	14	11	RIVER	1194	n/a	n/a	0	0	0
2391.13671875	n/a	WORD	4897048	wordpools/wasnorm_wordpool_576.txt	LTP348	ltpFR2	14	11	CASKET	255	n/a	n/a	0	0	0
2393.70166015625	n/a	WORD	4902301	wordpools/wasnorm_wordpool_576.txt	LTP348	ltpFR2	14	11	JELLO	754	n/a	n/a	0	0	0
2396.3349609375	n/a	WORD	4907694	wordpools/wasnorm_wordpool_576.txt	LTP348	ltpFR2	14	11	UMPIRE	1535	n/a	n/a	0	0	0
2399.0498046875	n/a	WORD	4913254	wordpools/wasnorm_wordpool_576.txt	LTP348	ltpFR2	14	11	TEMPLE	1448	n/a	n/a	0	0	0
2401.53271484375	n/a	WORD	4918339	wordpools/wasnorm_wordpool_576.txt	LTP348	ltpFR2	14	11	RUST	1219	n/a	n/a	0	0	0
2404.28076171875	n/a	WORD	4923967	wordpools/wasnorm_wordpool_576.txt	LTP348	ltpFR2	14	11	NOMAD	955	n/a	n/a	0	0	0
2406.7958984375	n/a	WORD	4929118	wordpools/wasnorm_wordpool_576.txt	LTP348	ltpFR2	14	11	HUSBAND	728	n/a	n/a	0	0	0
2408.4130859375	n/a	START	4932430	n/a	LTP348	ltpFR2	14	n/a	n/a	n/a	18	n/a	n/a	n/a	n/a
2409.4599609375	n/a	DISTRACTOR	4934574	n/a	LTP348	ltpFR2	14	11	n/a	n/a	n/a	n/a	0	0	0
2409.4619140625	n/a	PROB	4934578	n/a	LTP348	ltpFR2	14	n/a	n/a	n/a	18	16	4	8	4
2412.126953125	n/a	PROB	4940036	n/a	LTP348	ltpFR2	14	n/a	n/a	n/a	18	15	3	3	9
2415.60791015625	n/a	PROB	4947165	n/a	LTP348	ltpFR2	14	n/a	n/a	n/a	18	14	3	5	6
2423.65380859375	n/a	PROB	4963643	n/a	LTP348	ltpFR2	14	n/a	n/a	n/a	18	19	8	8	3
2426.419921875	n/a	PROB	4969308	n/a	LTP348	ltpFR2	14	n/a	n/a	n/a	18	13	1	8	4
2432.4130859375	n/a	STOP	4981582	n/a	LTP348	ltpFR2	14	n/a	n/a	n/a	18	n/a	n/a	n/a	n/a
2434.26708984375	n/a	REC_START	4985379	n/a	LTP348	ltpFR2	14	11	n/a	n/a	n/a	n/a	0	0	0
2434.80126953125	n/a	REC_WORD	4986473	wordpools/wasnorm_wordpool_576.txt	LTP348	ltpFR2	14	11	RUST	1219	n/a	n/a	0	0	0
2435.455078125	n/a	REC_WORD	4987812	wordpools/wasnorm_wordpool_576.txt	LTP348	ltpFR2	14	11	NOMAD	955	n/a	n/a	0	0	0
2436.326171875	n/a	REC_WORD	4989596	wordpools/wasnorm_wordpool_576.txt	LTP348	ltpFR2	14	11	JELLY	755	n/a	n/a	0	0	0
2438.72998046875	n/a	REC_WORD	4994519	wordpools/wasnorm_wordpool_576.txt	LTP348	ltpFR2	14	11	CUSTARD	429	n/a	n/a	0	0	0
2439.779296875	n/a	REC_WORD	4996668	wordpools/wasnorm_wordpool_576.txt	LTP348	ltpFR2	14	11	PENGUIN	1044	n/a	n/a	0	0	0
2472.4814453125	n/a	REC_WORD	5063642	wordpools/wasnorm_wordpool_576.txt	LTP348	ltpFR2	14	11	SILK	1307	n/a	n/a	0	0	0
2482.0341796875	n/a	REC_WORD	5083206	wordpools/wasnorm_wordpool_576.txt	LTP348	ltpFR2	14	11	KNAPSACK	783	n/a	n/a	0	0	0
2524.70458984375	n/a	DISTRACTOR	5170595	n/a	LTP348	ltpFR2	14	12	n/a	n/a	n/a	n/a	0	0	0
2524.70458984375	n/a	START	5170595	n/a	LTP348	ltpFR2	14	n/a	n/a	n/a	19	n/a	n/a	n/a	n/a
2524.7216796875	n/a	PROB	5170630	n/a	LTP348	ltpFR2	14	n/a	n/a	n/a	19	12	2	8	2
2526.88671875	n/a	PROB	5175064	n/a	LTP348	ltpFR2	14	n/a	n/a	n/a	19	15	1	6	8
2529.353515625	n/a	PROB	5180116	n/a	LTP348	ltpFR2	14	n/a	n/a	n/a	19	16	3	9	4
2532.28564453125	n/a	PROB	5186121	n/a	LTP348	ltpFR2	14	n/a	n/a	n/a	19	10	2	3	5
2534.66650390625	n/a	PROB	5190997	n/a	LTP348	ltpFR2	14	n/a	n/a	n/a	19	9	3	3	3
2536.11572265625	n/a	PROB	5193965	n/a	LTP348	ltpFR2	14	n/a	n/a	n/a	19	5	3	1	1
2537.81494140625	n/a	PROB	5197445	n/a	LTP348	ltpFR2	14	n/a	n/a	n/a	19	10	2	5	3
2540.5146484375	n/a	PROB	5202974	n/a	LTP348	ltpFR2	14	n/a	n/a	n/a	19	14	8	4	2
2546.49462890625	n/a	PROB	5215221	n/a	LTP348	ltpFR2	14	n/a	n/a	n/a	19	13	6	5	2
2548.52490234375	n/a	STOP	5219379	n/a	LTP348	ltpFR2	14	n/a	n/a	n/a	19	n/a	n/a	n/a	n/a
2549.6259765625	n/a	WORD	5221634	wordpools/wasnorm_wordpool_576.txt	LTP348	ltpFR2	14	12	COOKBOOK	373	n/a	n/a	0	0	0
2552.2919921875	n/a	WORD	5227094	wordpools/wasnorm_wordpool_576.txt	LTP348	ltpFR2	14	12	PASTRY	1022	n/a	n/a	0	0	0
2554.97265625	n/a	WORD	5232584	wordpools/wasnorm_wordpool_576.txt	LTP348	ltpFR2	14	12	STATUE	1374	n/a	n/a	0	0	0
2557.7548828125	n/a	WORD	5238282	wordpools/wasnorm_wordpool_576.txt	LTP348	ltpFR2	14	12	SLIME	1327	n/a	n/a	0	0	0
2560.2548828125	n/a	WORD	5243402	wordpools/wasnorm_wordpool_576.txt	LTP348	ltpFR2	14	12	FUNGUS	614	n/a	n/a	0	0	0
2562.90283203125	n/a	WORD	5248825	wordpools/wasnorm_wordpool_576.txt	LTP348	ltpFR2	14	12	SHELF	1280	n/a	n/a	0	0	0
2565.60107421875	n/a	WORD	5254351	wordpools/wasnorm_wordpool_576.txt	LTP348	ltpFR2	14	12	INMATE	738	n/a	n/a	0	0	0
2568.10009765625	n/a	WORD	5259469	wordpools/wasnorm_wordpool_576.txt	LTP348	ltpFR2	14	12	SCULPTURE	1258	n/a	n/a	0	0	0
2570.81494140625	n/a	WORD	5265029	wordpools/wasnorm_wordpool_576.txt	LTP348	ltpFR2	14	12	FOOT	590	n/a	n/a	0	0	0
2573.58203125	n/a	WORD	5270696	wordpools/wasnorm_wordpool_576.txt	LTP348	ltpFR2	14	12	SKETCH	1315	n/a	n/a	0	0	0
2576.31396484375	n/a	WORD	5276291	wordpools/wasnorm_wordpool_576.txt	LTP348	ltpFR2	14	12	RAFT	1159	n/a	n/a	0	0	0
2578.9951171875	n/a	WORD	5281782	wordpools/wasnorm_wordpool_576.txt	LTP348	ltpFR2	14	12	FIREMAN	569	n/a	n/a	0	0	0
2581.64306640625	n/a	WORD	5287205	wordpools/wasnorm_wordpool_576.txt	LTP348	ltpFR2	14	12	ZIPPER	1636	n/a	n/a	0	0	0
2584.17626953125	n/a	WORD	5292393	wordpools/wasnorm_wordpool_576.txt	LTP348	ltpFR2	14	12	PASTA	1021	n/a	n/a	0	0	0
2586.84130859375	n/a	WORD	5297851	wordpools/wasnorm_wordpool_576.txt	LTP348	ltpFR2	14	12	COUCH	386	n/a	n/a	0	0	0
2589.5400390625	n/a	WORD	5303378	wordpools/wasnorm_wordpool_576.txt	LTP348	ltpFR2	14	12	CLAMP	316	n/a	n/a	0	0	0
2592.17236328125	n/a	WORD	5308769	wordpools/wasnorm_wordpool_576.txt	LTP348	ltpFR2	14	12	MARINE	869	n/a	n/a	0	0	0
2594.787109375	n/a	WORD	5314124	wordpools/wasnorm_wordpool_576.txt	LTP348	ltpFR2	14	12	SILK	1307	n/a	n/a	0	0	0
2597.47021484375	n/a	WORD	5319619	wordpools/wasnorm_wordpool_576.txt	LTP348	ltpFR2	14	12	JURY	766	n/a	n/a	0	0	0
2599.96826171875	n/a	WORD	5324735	wordpools/wasnorm_wordpool_576.txt	LTP348	ltpFR2	14	12	LAKE	796	n/a	n/a	0	0	0
2602.4169921875	n/a	WORD	5329750	wordpools/wasnorm_wordpool_576.txt	LTP348	ltpFR2	14	12	SIDEWALK	1303	n/a	n/a	0	0	0
2605.0322265625	n/a	WORD	5335106	wordpools/wasnorm_wordpool_576.txt	LTP348	ltpFR2	14	12	IDOL	733	n/a	n/a	0	0	0
2607.7802734375	n/a	WORD	5340734	wordpools/wasnorm_wordpool_576.txt	LTP348	ltpFR2	14	12	CANAL	226	n/a	n/a	0	0	0
2610.48046875	n/a	WORD	5346264	wordpools/wasnorm_wordpool_576.txt	LTP348	ltpFR2	14	12	VALVE	1546	n/a	n/a	0	0	0
2612.09521484375	n/a	START	5349571	n/a	LTP348	ltpFR2	14	n/a	n/a	n/a	20	n/a	n/a	n/a	n/a
2613.1923828125	n/a	DISTRACTOR	5351818	n/a	LTP348	ltpFR2	14	12	n/a	n/a	n/a	n/a	0	0	0
2613.1962890625	n/a	PROB	5351826	n/a	LTP348	ltpFR2	14	n/a	n/a	n/a	20	15	6	1	8
2616.244140625	n/a	PROB	5358068	n/a	LTP348	ltpFR2	14	n/a	n/a	n/a	20	17	9	1	7
2618.0751953125	n/a	PROB	5361818	n/a	LTP348	ltpFR2	14	n/a	n/a	n/a	20	9	4	3	2
2620.59130859375	n/a	PROB	5366971	n/a	LTP348	ltpFR2	14	n/a	n/a	n/a	20	16	7	3	6
2622.6904296875	n/a	PROB	5371270	n/a	LTP348	ltpFR2	14	n/a	n/a	n/a	20	17	8	8	1
2624.7724609375	n/a	PROB	5375534	n/a	LTP348	ltpFR2	14	n/a	n/a	n/a	20	15	7	5	3
2629.0703125	n/a	PROB	5384336	n/a	LTP348	ltpFR2	14	n/a	n/a	n/a	20	22	8	8	6
2631.38623046875	n/a	PROB	5389079	n/a	LTP348	ltpFR2	14	n/a	n/a	n/a	20	12	3	5	4
2635.140625	n/a	STOP	5396768	n/a	LTP348	ltpFR2	14	n/a	n/a	n/a	20	n/a	n/a	n/a	n/a
2638.03466796875	n/a	REC_START	5402695	n/a	LTP348	ltpFR2	14	12	n/a	n/a	n/a	n/a	0	0	0
2638.29638671875	n/a	REC_WORD	5403231	wordpools/wasnorm_wordpool_576.txt	LTP348	ltpFR2	14	12	JURY	766	n/a	n/a	0	0	0
2642.056640625	n/a	REC_WORD	5410932	wordpools/wasnorm_wordpool_576.txt	LTP348	ltpFR2	14	12	VALVE	1546	n/a	n/a	0	0	0
2643.77734375	n/a	REC_WORD	5414456	wordpools/wasnorm_wordpool_576.txt	LTP348	ltpFR2	14	12	LAKE	796	n/a	n/a	0	0	0
2728.505859375	n/a	WORD	5587980	wordpools/wasnorm_wordpool_576.txt	LTP348	ltpFR2	14	13	OZONE	996	n/a	n/a	0	0	0
2731.27099609375	n/a	WORD	5593643	wordpools/wasnorm_wordpool_576.txt	LTP348	ltpFR2	14	13	BEEF	113	n/a	n/a	0	0	0
2733.7021484375	n/a	WORD	5598622	wordpools/wasnorm_wordpool_576.txt	LTP348	ltpFR2	14	13	MARKER	870	n/a	n/a	0	0	0
2736.30224609375	n/a	WORD	5603947	wordpools/wasnorm_wordpool_576.txt	LTP348	ltpFR2	14	13	VIRUS	1572	n/a	n/a	0	0	0
2738.89990234375	n/a	WORD	5609267	wordpools/wasnorm_wordpool_576.txt	LTP348	ltpFR2	14	13	FRECKLE	602	n/a	n/a	0	0	0
2741.3330078125	n/a	WORD	5614250	wordpools/wasnorm_wordpool_576.txt	LTP348	ltpFR2	14	13	LIPSTICK	829	n/a	n/a	0	0	0
2743.830078125	n/a	WORD	5619364	wordpools/wasnorm_wordpool_576.txt	LTP348	ltpFR2	14	13	HAMPER	682	n/a	n/a	0	0	0
2746.447265625	n/a	WORD	5624724	wordpools/wasnorm_wordpool_576.txt	LTP348	ltpFR2	14	13	CLOTHES	327	n/a	n/a	0	0	0
2749.0283203125	n/a	WORD	5630010	wordpools/wasnorm_wordpool_576.txt	LTP348	ltpFR2	14	13	PISTON	1076	n/a	n/a	0	0	0
2751.494140625	n/a	WORD	5635060	wordpools/wasnorm_wordpool_576.txt	LTP348	ltpFR2	14	13	COD	340	n/a	n/a	0	0	0
2754.05908203125	n/a	WORD	5640313	wordpools/wasnorm_wordpool_576.txt	LTP348	ltpFR2	14	13	CATTLE	261	n/a	n/a	0	0	0
2756.64111328125	n/a	WORD	5645601	wordpools/wasnorm_wordpool_576.txt	LTP348	ltpFR2	14	13	SAUSAGE	1238	n/a	n/a	0	0	0
2759.44140625	n/a	WORD	5651336	wordpools/wasnorm_wordpool_576.txt	LTP348	ltpFR2	14	13	PIZZA	1079	n/a	n/a	0	0	0
2762.0712890625	n/a	WORD	5656722	wordpools/wasnorm_wordpool_576.txt	LTP348	ltpFR2	14	13	TOMBSTONE	1478	n/a	n/a	0	0	0
2764.75341796875	n/a	WORD	5662215	wordpools/wasnorm_wordpool_576.txt	LTP348	ltpFR2	14	13	SWIMMER	1420	n/a	n/a	0	0	0
2767.486328125	n/a	WORD	5667812	wordpools/wasnorm_wordpool_576.txt	LTP348	ltpFR2	14	13	DAUGHTER	442	n/a	n/a	0	0	0
2770.10107421875	n/a	WORD	5673167	wordpools/wasnorm_wordpool_576.txt	LTP348	ltpFR2	14	13	BELLY	119	n/a	n/a	0	0	0
2772.7001953125	n/a	WORD	5678490	wordpools/wasnorm_wordpool_576.txt	LTP348	ltpFR2	14	13	BLOUSE	139	n/a	n/a	0	0	0
2775.19921875	n/a	WORD	5683608	wordpools/wasnorm_wordpool_576.txt	LTP348	ltpFR2	14	13	LILY	821	n/a	n/a	0	0	0
2777.8974609375	n/a	WORD	5689134	wordpools/wasnorm_wordpool_576.txt	LTP348	ltpFR2	14	13	TROMBONE	1508	n/a	n/a	0	0	0
2780.6123046875	n/a	WORD	5694694	wordpools/wasnorm_wordpool_576.txt	LTP348	ltpFR2	14	13	BROTHER	179	n/a	n/a	0	0	0
2783.26220703125	n/a	WORD	5700121	wordpools/wasnorm_wordpool_576.txt	LTP348	ltpFR2	14	13	WIDOW	1608	n/a	n/a	0	0	0
2786.07666015625	n/a	WORD	5705885	wordpools/wasnorm_wordpool_576.txt	LTP348	ltpFR2	14	13	PECAN	1036	n/a	n/a	0	0	0
2788.67529296875	n/a	WORD	5711207	wordpools/wasnorm_wordpool_576.txt	LTP348	ltpFR2	14	13	CRAYON	401	n/a	n/a	0	0	0
2790.29248046875	n/a	START	5714519	n/a	LTP348	ltpFR2	14	n/a	n/a	n/a	21	n/a	n/a	n/a	n/a
2791.2802734375	n/a	DISTRACTOR	5716542	n/a	LTP348	ltpFR2	14	13	n/a	n/a	n/a	n/a	0	0	0
2791.29150390625	n/a	PROB	5716565	n/a	LTP348	ltpFR2	14	n/a	n/a	n/a	21	16	9	2	5
2795.6552734375	n/a	PROB	5725502	n/a	LTP348	ltpFR2	14	n/a	n/a	n/a	21	10	5	4	1
2797.23828125	n/a	PROB	5728744	n/a	LTP348	ltpFR2	14	n/a	n/a	n/a	21	20	5	6	9
2799.86962890625	n/a	PROB	5734133	n/a	LTP348	ltpFR2	14	n/a	n/a	n/a	21	15	6	2	7
2802.302734375	n/a	PROB	5739116	n/a	LTP348	ltpFR2	14	n/a	n/a	n/a	21	20	2	9	9
2804.3857421875	n/a	PROB	5743382	n/a	LTP348	ltpFR2	14	n/a	n/a	n/a	21	18	5	5	8
2806.16650390625	n/a	PROB	5747029	n/a	LTP348	ltpFR2	14	n/a	n/a	n/a	21	22	8	8	6
2809.36669921875	n/a	PROB	5753583	n/a	LTP348	ltpFR2	14	n/a	n/a	n/a	21	11	3	7	1
2810.86474609375	n/a	PROB	5756651	n/a	LTP348	ltpFR2	14	n/a	n/a	n/a	21	10	1	5	4
2814.29248046875	n/a	STOP	5763671	n/a	LTP348	ltpFR2	14	n/a	n/a	n/a	21	n/a	n/a	n/a	n/a
2816.04638671875	n/a	REC_START	5767263	n/a	LTP348	ltpFR2	14	13	n/a	n/a	n/a	n/a	0	0	0
2816.41650390625	n/a	REC_WORD	5768021	wordpools/wasnorm_wordpool_576.txt	LTP348	ltpFR2	14	13	OZONE	996	n/a	n/a	0	0	0
2817.0517578125	n/a	REC_WORD	5769322	wordpools/wasnorm_wordpool_576.txt	LTP348	ltpFR2	14	13	BEEF	113	n/a	n/a	0	0	0
2818.1318359375	n/a	REC_WORD	5771534	wordpools/wasnorm_wordpool_576.txt	LTP348	ltpFR2	14	13	LILY	821	n/a	n/a	0	0	0
2818.83740234375	n/a	REC_WORD	5772979	wordpools/wasnorm_wordpool_576.txt	LTP348	ltpFR2	14	13	PIZZA	1079	n/a	n/a	0	0	0
2819.39453125	n/a	REC_WORD	5774120	wordpools/wasnorm_wordpool_576.txt	LTP348	ltpFR2	14	13	SAUSAGE	1238	n/a	n/a	0	0	0
2820.228515625	n/a	REC_WORD	5775828	wordpools/wasnorm_wordpool_576.txt	LTP348	ltpFR2	14	13	BLOUSE	139	n/a	n/a	0	0	0
2831.40966796875	n/a	REC_WORD	5798727	wordpools/wasnorm_wordpool_576.txt	LTP348	ltpFR2	14	13	CATTLE	261	n/a	n/a	0	0	0
2835.59765625	n/a	REC_WORD	5807304	wordpools/wasnorm_wordpool_576.txt	LTP348	ltpFR2	14	13	BELLY	119	n/a	n/a	0	0	0
2838.640625	n/a	REC_WORD	5813536	wordpools/wasnorm_wordpool_576.txt	LTP348	ltpFR2	14	13	GIRL	637	n/a	n/a	0	0	0
2840.87890625	n/a	REC_WORD	5818120	wordpools/wasnorm_wordpool_576.txt	LTP348	ltpFR2	14	13	LADY	794	n/a	n/a	0	0	0
2843.40185546875	n/a	REC_WORD	5823287	wordpools/wasnorm_wordpool_576.txt	LTP348	ltpFR2	14	13	TROMBONE	1508	n/a	n/a	0	0	0
2844.1259765625	n/a	REC_WORD	5824770	wordpools/wasnorm_wordpool_576.txt	LTP348	ltpFR2	14	13	TOMBSTONE	1478	n/a	n/a	0	0	0
2847.505859375	n/a	REC_WORD	5831692	wordpools/wasnorm_wordpool_576.txt	LTP348	ltpFR2	14	13	LAPEL	800	n/a	n/a	0	0	0
2906.50244140625	n/a	WORD	5952517	wordpools/wasnorm_wordpool_576.txt	LTP348	ltpFR2	14	14	ROD	1203	n/a	n/a	0	0	0
2909.2841796875	n/a	WORD	5958214	wordpools/wasnorm_wordpool_576.txt	LTP348	ltpFR2	14	14	BLACKBOARD	133	n/a	n/a	0	0	0
2911.7822265625	n/a	WORD	5963330	wordpools/wasnorm_wordpool_576.txt	LTP348	ltpFR2	14	14	SALAD	1224	n/a	n/a	0	0	0
2914.248046875	n/a	WORD	5968380	wordpools/wasnorm_wordpool_576.txt	LTP348	ltpFR2	14	14	HOOD	714	n/a	n/a	0	0	0
2916.7294921875	n/a	WORD	5973462	wordpools/wasnorm_wordpool_576.txt	LTP348	ltpFR2	14	14	KITCHEN	778	n/a	n/a	0	0	0
2919.17822265625	n/a	WORD	5978477	wordpools/wasnorm_wordpool_576.txt	LTP348	ltpFR2	14	14	PLATE	1086	n/a	n/a	0	0	0
2921.79345703125	n/a	WORD	5983833	wordpools/wasnorm_wordpool_576.txt	LTP348	ltpFR2	14	14	SCALPEL	1243	n/a	n/a	0	0	0
2924.3935546875	n/a	WORD	5989158	wordpools/wasnorm_wordpool_576.txt	LTP348	ltpFR2	14	14	ROCKET	1202	n/a	n/a	0	0	0
2926.89111328125	n/a	WORD	5994273	wordpools/wasnorm_wordpool_576.txt	LTP348	ltpFR2	14	14	MUSTARD	935	n/a	n/a	0	0	0
2929.5244140625	n/a	WORD	5999666	wordpools/wasnorm_wordpool_576.txt	LTP348	ltpFR2	14	14	EUROPE	541	n/a	n/a	0	0	0
2932.322265625	n/a	WORD	6005396	wordpools/wasnorm_wordpool_576.txt	LTP348	ltpFR2	14	14	NURSE	963	n/a	n/a	0	0	0
2934.83740234375	n/a	WORD	6010547	wordpools/wasnorm_wordpool_576.txt	LTP348	ltpFR2	14	14	TAXI	1438	n/a	n/a	0	0	0
2937.50341796875	n/a	WORD	6016007	wordpools/wasnorm_wordpool_576.txt	LTP348	ltpFR2	14	14	TWEEZERS	1526	n/a	n/a	0	0	0
2940.185546875	n/a	WORD	6021500	wordpools/wasnorm_wordpool_576.txt	LTP348	ltpFR2	14	14	MOTOR	922	n/a	n/a	0	0	0
2942.93359375	n/a	WORD	6027128	wordpools/wasnorm_wordpool_576.txt	LTP348	ltpFR2	14	14	RECORD	1176	n/a	n/a	0	0	0
2945.482421875	n/a	WORD	6032348	wordpools/wasnorm_wordpool_576.txt	LTP348	ltpFR2	14	14	HARP	689	n/a	n/a	0	0	0
2948.11328125	n/a	WORD	6037736	wordpools/wasnorm_wordpool_576.txt	LTP348	ltpFR2	14	14	DRILL	497	n/a	n/a	0	0	0
2950.8955078125	n/a	WORD	6043434	wordpools/wasnorm_wordpool_576.txt	LTP348	ltpFR2	14	14	TOURIST	1488	n/a	n/a	0	0	0
2953.54541015625	n/a	WORD	6048861	wordpools/wasnorm_wordpool_576.txt	LTP348	ltpFR2	14	14	CANDY	230	n/a	n/a	0	0	0
2956.1943359375	n/a	WORD	6054286	wordpools/wasnorm_wordpool_576.txt	LTP348	ltpFR2	14	14	EXPERT	543	n/a	n/a	0	0	0
2958.80859375	n/a	WORD	6059640	wordpools/wasnorm_wordpool_576.txt	LTP348	ltpFR2	14	14	COURSE	390	n/a	n/a	0	0	0
2961.42578125	n/a	WORD	6065000	wordpools/wasnorm_wordpool_576.txt	LTP348	ltpFR2	14	14	MATCH	878	n/a	n/a	0	0	0
2963.939453125	n/a	WORD	6070148	wordpools/wasnorm_wordpool_576.txt	LTP348	ltpFR2	14	14	BLENDER	136	n/a	n/a	0	0	0
2966.40576171875	n/a	WORD	6075199	wordpools/wasnorm_wordpool_576.txt	LTP348	ltpFR2	14	14	AGENT	10	n/a	n/a	0	0	0
2968.0205078125	n/a	START	6078506	n/a	LTP348	ltpFR2	14	n/a	n/a	n/a	22	n/a	n/a	n/a	n/a
2969.0126953125	n/a	DISTRACTOR	6080538	n/a	LTP348	ltpFR2	14	14	n/a	n/a	n/a	n/a	0	0	0
2969.0205078125	n/a	PROB	6080554	n/a	LTP348	ltpFR2	14	n/a	n/a	n/a	22	14	5	6	3
2972.1015625	n/a	PROB	6086864	n/a	LTP348	ltpFR2	14	n/a	n/a	n/a	22	6	3	1	2
2974.6005859375	n/a	PROB	6091982	n/a	LTP348	ltpFR2	14	n/a	n/a	n/a	22	23	9	5	8
2978.8818359375	n/a	PROB	6100750	n/a	LTP348	ltpFR2	14	n/a	n/a	n/a	22	15	1	7	7
2980.74755859375	n/a	PROB	6104571	n/a	LTP348	ltpFR2	14	n/a	n/a	n/a	22	13	4	5	4
2983.66259765625	n/a	PROB	6110541	n/a	LTP348	ltpFR2	14	n/a	n/a	n/a	22	8	3	3	2
2985.39697265625	n/a	PROB	6114093	n/a	LTP348	ltpFR2	14	n/a	n/a	n/a	22	12	3	2	7
2987.19580078125	n/a	PROB	6117777	n/a	LTP348	ltpFR2	14	n/a	n/a	n/a	22	16	7	2	7
2989.07666015625	n/a	PROB	6121629	n/a	LTP348	ltpFR2	14	n/a	n/a	n/a	22	11	3	3	5
2990.9990234375	n/a	STOP	6125566	n/a	LTP348	ltpFR2	14	n/a	n/a	n/a	22	n/a	n/a	n/a	n/a
2993.77587890625	n/a	REC_START	6131253	n/a	LTP348	ltpFR2	14	14	n/a	n/a	n/a	n/a	0	0	0
2994.4755859375	n/a	REC_WORD	6132686	wordpools/wasnorm_wordpool_576.txt	LTP348	ltpFR2	14	14	AGENT	10	n/a	n/a	0	0	0
2997.18994140625	n/a	REC_WORD	6138245	wordpools/wasnorm_wordpool_576.txt	LTP348	ltpFR2	14	14	EXPERT	543	n/a	n/a	0	0	0
3000.0986328125	n/a	REC_WORD	6144202	wordpools/wasnorm_wordpool_576.txt	LTP348	ltpFR2	14	14	ROD	1203	n/a	n/a	0	0	0
3000.8056640625	n/a	REC_WORD	6145650	wordpools/wasnorm_wordpool_576.txt	LTP348	ltpFR2	14	14	RUST	1219	n/a	n/a	0	0	0
3009.01171875	n/a	REC_WORD	6162456	wordpools/wasnorm_wordpool_576.txt	LTP348	ltpFR2	14	14	MATCH	878	n/a	n/a	0	0	0
3010.52685546875	n/a	REC_WORD	6165559	wordpools/wasnorm_wordpool_576.txt	LTP348	ltpFR2	14	14	UMPIRE	1535	n/a	n/a	0	0	0
3084.2314453125	n/a	DISTRACTOR	6316506	n/a	LTP348	ltpFR2	14	15	n/a	n/a	n/a	n/a	0	0	0
3084.2314453125	n/a	START	6316506	n/a	LTP348	ltpFR2	14	n/a	n/a	n/a	23	n/a	n/a	n/a	n/a
3084.24853515625	n/a	PROB	6316541	n/a	LTP348	ltpFR2	14	n/a	n/a	n/a	23	1	2	4	5
3086.74658203125	n/a	PROB	6321657	n/a	LTP348	ltpFR2	14	n/a	n/a	n/a	23	21	9	8	4
3092.79345703125	n/a	PROB	6334041	n/a	LTP348	ltpFR2	14	n/a	n/a	n/a	23	14	1	8	5
3094.79248046875	n/a	PROB	6338135	n/a	LTP348	ltpFR2	14	n/a	n/a	n/a	23	15	5	5	5
3096.525390625	n/a	PROB	6341684	n/a	LTP348	ltpFR2	14	n/a	n/a	n/a	23	22	9	6	7
3102.37255859375	n/a	PROB	6353659	n/a	LTP348	ltpFR2	14	n/a	n/a	n/a	23	15	4	9	2
3108.2314453125	n/a	STOP	6365658	n/a	LTP348	ltpFR2	14	n/a	n/a	n/a	23	n/a	n/a	n/a	n/a
3109.36962890625	n/a	WORD	6367989	wordpools/wasnorm_wordpool_576.txt	LTP348	ltpFR2	14	15	DRESSER	496	n/a	n/a	0	0	0
3111.80078125	n/a	WORD	6372968	wordpools/wasnorm_wordpool_576.txt	LTP348	ltpFR2	14	15	YACHT	1629	n/a	n/a	0	0	0
3114.3837890625	n/a	WORD	6378258	wordpools/wasnorm_wordpool_576.txt	LTP348	ltpFR2	14	15	AIRPLANE	12	n/a	n/a	0	0	0
3116.814453125	n/a	WORD	6383236	wordpools/wasnorm_wordpool_576.txt	LTP348	ltpFR2	14	15	MESSAGE	888	n/a	n/a	0	0	0
3119.6298828125	n/a	WORD	6389002	wordpools/wasnorm_wordpool_576.txt	LTP348	ltpFR2	14	15	DORM	488	n/a	n/a	0	0	0
3122.3125	n/a	WORD	6394496	wordpools/wasnorm_wordpool_576.txt	LTP348	ltpFR2	14	15	PERMIT	1051	n/a	n/a	0	0	0
3124.99365234375	n/a	WORD	6399987	wordpools/wasnorm_wordpool_576.txt	LTP348	ltpFR2	14	15	SCOTCH	1251	n/a	n/a	0	0	0
3127.74267578125	n/a	WORD	6405617	wordpools/wasnorm_wordpool_576.txt	LTP348	ltpFR2	14	15	JOURNAL	760	n/a	n/a	0	0	0
3130.2255859375	n/a	WORD	6410702	wordpools/wasnorm_wordpool_576.txt	LTP348	ltpFR2	14	15	SERVER	1272	n/a	n/a	0	0	0
3133.02392578125	n/a	WORD	6416433	wordpools/wasnorm_wordpool_576.txt	LTP348	ltpFR2	14	15	AWARD	63	n/a	n/a	0	0	0
3135.8388671875	n/a	WORD	6422198	wordpools/wasnorm_wordpool_576.txt	LTP348	ltpFR2	14	15	OUTLAW	989	n/a	n/a	0	0	0
3138.3046875	n/a	WORD	6427248	wordpools/wasnorm_wordpool_576.txt	LTP348	ltpFR2	14	15	WITNESS	1618	n/a	n/a	0	0	0
3140.78564453125	n/a	WORD	6432329	wordpools/wasnorm_wordpool_576.txt	LTP348	ltpFR2	14	15	ULCER	1533	n/a	n/a	0	0	0
3143.2529296875	n/a	WORD	6437382	wordpools/wasnorm_wordpool_576.txt	LTP348	ltpFR2	14	15	CARROT	249	n/a	n/a	0	0	0
3145.68359375	n/a	WORD	6442360	wordpools/wasnorm_wordpool_576.txt	LTP348	ltpFR2	14	15	BUNNY	198	n/a	n/a	0	0	0
3148.4169921875	n/a	WORD	6447958	wordpools/wasnorm_wordpool_576.txt	LTP348	ltpFR2	14	15	VIKING	1565	n/a	n/a	0	0	0
3151.14794921875	n/a	WORD	6453551	wordpools/wasnorm_wordpool_576.txt	LTP348	ltpFR2	14	15	MASK	876	n/a	n/a	0	0	0
3153.5966796875	n/a	WORD	6458566	wordpools/wasnorm_wordpool_576.txt	LTP348	ltpFR2	14	15	FOREST	593	n/a	n/a	0	0	0
3156.14501953125	n/a	WORD	6463785	wordpools/wasnorm_wordpool_576.txt	LTP348	ltpFR2	14	15	TURTLE	1522	n/a	n/a	0	0	0
3158.5791015625	n/a	WORD	6468770	wordpools/wasnorm_wordpool_576.txt	LTP348	ltpFR2	14	15	RABBIT	1152	n/a	n/a	0	0	0
3161.0927734375	n/a	WORD	6473918	wordpools/wasnorm_wordpool_576.txt	LTP348	ltpFR2	14	15	BRAKE	166	n/a	n/a	0	0	0
3163.74169921875	n/a	WORD	6479343	wordpools/wasnorm_wordpool_576.txt	LTP348	ltpFR2	14	15	NOVEL	960	n/a	n/a	0	0	0
3166.30810546875	n/a	WORD	6484599	wordpools/wasnorm_wordpool_576.txt	LTP348	ltpFR2	14	15	FLESH	579	n/a	n/a	0	0	0
3168.80615234375	n/a	WORD	6489715	wordpools/wasnorm_wordpool_576.txt	LTP348	ltpFR2	14	15	WASHER	1592	n/a	n/a	0	0	0
3170.4228515625	n/a	START	6493026	n/a	LTP348	ltpFR2	14	n/a	n/a	n/a	24	n/a	n/a	n/a	n/a
3171.3779296875	n/a	DISTRACTOR	6494982	n/a	LTP348	ltpFR2	14	15	n/a	n/a	n/a	n/a	0	0	0
3171.38916015625	n/a	PROB	6495005	n/a	LTP348	ltpFR2	14	n/a	n/a	n/a	24	23	6	9	8
3179.01708984375	n/a	PROB	6510627	n/a	LTP348	ltpFR2	14	n/a	n/a	n/a	24	13	1	6	6
3180.7001953125	n/a	PROB	6514074	n/a	LTP348	ltpFR2	14	n/a	n/a	n/a	24	19	9	5	5
3182.14892578125	n/a	PROB	6517041	n/a	LTP348	ltpFR2	14	n/a	n/a	n/a	24	3	1	1	1
3183.5	n/a	PROB	6519808	n/a	LTP348	ltpFR2	14	n/a	n/a	n/a	24	13	2	3	8
3185.796875	n/a	PROB	6524512	n/a	LTP348	ltpFR2	14	n/a	n/a	n/a	24	15	7	7	1
3187.23095703125	n/a	PROB	6527449	n/a	LTP348	ltpFR2	14	n/a	n/a	n/a	24	16	5	6	5
3188.6962890625	n/a	PROB	6530450	n/a	LTP348	ltpFR2	14	n/a	n/a	n/a	24	16	3	6	7
3191.67822265625	n/a	PROB	6536557	n/a	LTP348	ltpFR2	14	n/a	n/a	n/a	24	14	5	2	7
3194.30517578125	n/a	STOP	6541937	n/a	LTP348	ltpFR2	14	n/a	n/a	n/a	24	n/a	n/a	n/a	n/a
3196.3603515625	n/a	REC_START	6546146	n/a	LTP348	ltpFR2	14	15	n/a	n/a	n/a	n/a	0	0	0
3197.0009765625	n/a	REC_WORD	6547458	wordpools/wasnorm_wordpool_576.txt	LTP348	ltpFR2	14	15	NOVEL	960	n/a	n/a	0	0	0
3197.76904296875	n/a	REC_WORD	6549031	wordpools/wasnorm_wordpool_576.txt	LTP348	ltpFR2	14	15	JOURNAL	760	n/a	n/a	0	0	0
3199.39599609375	n/a	REC_WORD	6552363	wordpools/wasnorm_wordpool_576.txt	LTP348	ltpFR2	14	15	WASHER	1592	n/a	n/a	0	0	0
3266.28271484375	n/a	REC_WORD	6689347	wordpools/wasnorm_wordpool_576.txt	LTP348	ltpFR2	14	15	SERVER	1272	n/a	n/a	0	0	0
3268.431640625	n/a	REC_WORD	6693748	wordpools/wasnorm_wordpool_576.txt	LTP348	ltpFR2	14	15	AIRPLANE	12	n/a	n/a	0	0	0
3286.7978515625	n/a	DISTRACTOR	6731362	n/a	LTP348	ltpFR2	14	16	n/a	n/a	n/a	n/a	0	0	0
3286.7978515625	n/a	START	6731362	n/a	LTP348	ltpFR2	14	n/a	n/a	n/a	25	n/a	n/a	n/a	n/a
3286.81494140625	n/a	PROB	6731397	n/a	LTP348	ltpFR2	14	n/a	n/a	n/a	25	7	4	2	1
3288.99658203125	n/a	PROB	6735865	n/a	LTP348	ltpFR2	14	n/a	n/a	n/a	25	15	7	6	2
3292.16162109375	n/a	PROB	6742347	n/a	LTP348	ltpFR2	14	n/a	n/a	n/a	25	9	1	7	1
3293.66162109375	n/a	PROB	6745419	n/a	LTP348	ltpFR2	14	n/a	n/a	n/a	25	10	2	6	2
3295.9267578125	n/a	PROB	6750058	n/a	LTP348	ltpFR2	14	n/a	n/a	n/a	25	13	3	6	4
3297.376953125	n/a	PROB	6753028	n/a	LTP348	ltpFR2	14	n/a	n/a	n/a	25	12	1	8	3
3299.8076171875	n/a	PROB	6758006	n/a	LTP348	ltpFR2	14	n/a	n/a	n/a	25	15	3	3	9
3302.27490234375	n/a	PROB	6763059	n/a	LTP348	ltpFR2	14	n/a	n/a	n/a	25	20	9	4	7
3305.22265625	n/a	PROB	6769096	n/a	LTP348	ltpFR2	14	n/a	n/a	n/a	25	19	9	7	3
3307.32177734375	n/a	PROB	6773395	n/a	LTP348	ltpFR2	14	n/a	n/a	n/a	25	19	9	3	7
3310.7978515625	n/a	STOP	6780514	n/a	LTP348	ltpFR2	14	n/a	n/a	n/a	25	n/a	n/a	n/a	n/a
3311.9189453125	n/a	WORD	6782810	wordpools/wasnorm_wordpool_576.txt	LTP348	ltpFR2	14	16	POLICE	1098	n/a	n/a	0	0	0
3314.7177734375	n/a	WORD	6788542	wordpools/wasnorm_wordpool_576.txt	LTP348	ltpFR2	14	16	DRUG	501	n/a	n/a	0	0	0
3317.333984375	n/a	WORD	6793900	wordpools/wasnorm_wordpool_576.txt	LTP348	ltpFR2	14	16	COUSIN	392	n/a	n/a	0	0	0
3319.93212890625	n/a	WORD	6799221	wordpools/wasnorm_wordpool_576.txt	LTP348	ltpFR2	14	16	REBEL	1172	n/a	n/a	0	0	0
3322.44775390625	n/a	WORD	6804373	wordpools/wasnorm_wordpool_576.txt	LTP348	ltpFR2	14	16	PUDDING	1139	n/a	n/a	0	0	0
3324.89599609375	n/a	WORD	6809387	wordpools/wasnorm_wordpool_576.txt	LTP348	ltpFR2	14	16	BLUEPRINT	142	n/a	n/a	0	0	0
3327.49609375	n/a	WORD	6814712	wordpools/wasnorm_wordpool_576.txt	LTP348	ltpFR2	14	16	GANGSTER	620	n/a	n/a	0	0	0
3330.16015625	n/a	WORD	6820168	wordpools/wasnorm_wordpool_576.txt	LTP348	ltpFR2	14	16	POWDER	1117	n/a	n/a	0	0	0
3332.77490234375	n/a	WORD	6825523	wordpools/wasnorm_wordpool_576.txt	LTP348	ltpFR2	14	16	SHORTS	1293	n/a	n/a	0	0	0
3335.5751953125	n/a	WORD	6831258	wordpools/wasnorm_wordpool_576.txt	LTP348	ltpFR2	14	16	UNCLE	1536	n/a	n/a	0	0	0
3338.240234375	n/a	WORD	6836716	wordpools/wasnorm_wordpool_576.txt	LTP348	ltpFR2	14	16	ROBBER	1197	n/a	n/a	0	0	0
3340.7548828125	n/a	WORD	6841866	wordpools/wasnorm_wordpool_576.txt	LTP348	ltpFR2	14	16	BANQUET	86	n/a	n/a	0	0	0
3343.455078125	n/a	WORD	6847396	wordpools/wasnorm_wordpool_576.txt	LTP348	ltpFR2	14	16	CABBAGE	210	n/a	n/a	0	0	0
3346.001953125	n/a	WORD	6852612	wordpools/wasnorm_wordpool_576.txt	LTP348	ltpFR2	14	16	LETTUCE	814	n/a	n/a	0	0	0
3348.55224609375	n/a	WORD	6857835	wordpools/wasnorm_wordpool_576.txt	LTP348	ltpFR2	14	16	INFANT	737	n/a	n/a	0	0	0
3351.18310546875	n/a	WORD	6863223	wordpools/wasnorm_wordpool_576.txt	LTP348	ltpFR2	14	16	BLOCKADE	137	n/a	n/a	0	0	0
3353.6982421875	n/a	WORD	6868374	wordpools/wasnorm_wordpool_576.txt	LTP348	ltpFR2	14	16	TABLE	1426	n/a	n/a	0	0	0
3356.498046875	n/a	WORD	6874108	wordpools/wasnorm_wordpool_576.txt	LTP348	ltpFR2	14	16	PADDING	999	n/a	n/a	0	0	0
3359.09619140625	n/a	WORD	6879429	wordpools/wasnorm_wordpool_576.txt	LTP348	ltpFR2	14	16	AUTHOR	61	n/a	n/a	0	0	0
3361.611328125	n/a	WORD	6884580	wordpools/wasnorm_wordpool_576.txt	LTP348	ltpFR2	14	16	PISTOL	1075	n/a	n/a	0	0	0
3364.244140625	n/a	WORD	6889972	wordpools/wasnorm_wordpool_576.txt	LTP348	ltpFR2	14	16	CREVICE	405	n/a	n/a	0	0	0
3367.04248046875	n/a	WORD	6895703	wordpools/wasnorm_wordpool_576.txt	LTP348	ltpFR2	14	16	PLAID	1080	n/a	n/a	0	0	0
3369.55810546875	n/a	WORD	6900855	wordpools/wasnorm_wordpool_576.txt	LTP348	ltpFR2	14	16	PEPPER	1047	n/a	n/a	0	0	0
3372.0234375	n/a	WORD	6905904	wordpools/wasnorm_wordpool_576.txt	LTP348	ltpFR2	14	16	SUSPECT	1415	n/a	n/a	0	0	0
3373.63916015625	n/a	START	6909213	n/a	LTP348	ltpFR2	14	n/a	n/a	n/a	26	n/a	n/a	n/a	n/a
3374.8251953125	n/a	DISTRACTOR	6911642	n/a	LTP348	ltpFR2	14	16	n/a	n/a	n/a	n/a	0	0	0
3374.83837890625	n/a	PROB	6911669	n/a	LTP348	ltpFR2	14	n/a	n/a	n/a	26	20	6	5	9
3377.50439453125	n/a	PROB	6917129	n/a	LTP348	ltpFR2	14	n/a	n/a	n/a	26	15	7	4	4
3380.20361328125	n/a	PROB	6922657	n/a	LTP348	ltpFR2	14	n/a	n/a	n/a	26	20	8	3	9
3383.568359375	n/a	PROB	6929548	n/a	LTP348	ltpFR2	14	n/a	n/a	n/a	26	4	2	1	1
3385.66650390625	n/a	PROB	6933845	n/a	LTP348	ltpFR2	14	n/a	n/a	n/a	26	19	3	7	9
3387.2333984375	n/a	PROB	6937054	n/a	LTP348	ltpFR2	14	n/a	n/a	n/a	26	17	4	8	5
3390.064453125	n/a	PROB	6942852	n/a	LTP348	ltpFR2	14	n/a	n/a	n/a	26	11	6	2	3
3393.6455078125	n/a	PROB	6950186	n/a	LTP348	ltpFR2	14	n/a	n/a	n/a	26	10	7	1	2
3395.1787109375	n/a	PROB	6953326	n/a	LTP348	ltpFR2	14	n/a	n/a	n/a	26	19	3	7	9
3396.681640625	n/a	STOP	6956404	n/a	LTP348	ltpFR2	14	n/a	n/a	n/a	26	n/a	n/a	n/a	n/a
3399.4775390625	n/a	REC_START	6962130	n/a	LTP348	ltpFR2	14	16	n/a	n/a	n/a	n/a	0	0	0
3399.6923828125	n/a	REC_WORD	6962570	wordpools/wasnorm_wordpool_576.txt	LTP348	ltpFR2	14	16	POLICE	1098	n/a	n/a	0	0	0
3400.345703125	n/a	REC_WORD	6963908	wordpools/wasnorm_wordpool_576.txt	LTP348	ltpFR2	14	16	CREVICE	405	n/a	n/a	0	0	0
3401.71875	n/a	REC_WORD	6966720	wordpools/wasnorm_wordpool_576.txt	LTP348	ltpFR2	14	16	ROBBER	1197	n/a	n/a	0	0	0
3403.15673828125	n/a	REC_WORD	6969665	wordpools/wasnorm_wordpool_576.txt	LTP348	ltpFR2	14	16	GANGSTER	620	n/a	n/a	0	0	0
3418.6083984375	n/a	REC_WORD	7001310	wordpools/wasnorm_wordpool_576.txt	LTP348	ltpFR2	14	16	BADGE	68	n/a	n/a	0	0	0
3423.82373046875	n/a	REC_WORD	7011991	wordpools/wasnorm_wordpool_576.txt	LTP348	ltpFR2	14	16	DRESS	495	n/a	n/a	0	0	0
3424.37353515625	n/a	REC_WORD	7013117	wordpools/wasnorm_wordpool_576.txt	LTP348	ltpFR2	14	16	SILK	1307	n/a	n/a	0	0	0
3429.6728515625	n/a	REC_WORD	7023970	wordpools/wasnorm_wordpool_576.txt	LTP348	ltpFR2	14	16	PISTOL	1075	n/a	n/a	0	0	0
3432.12255859375	n/a	REC_WORD	7028987	wordpools/wasnorm_wordpool_576.txt	LTP348	ltpFR2	14	16	PISTON	1076	n/a	n/a	0	0	0
3435.9677734375	n/a	REC_WORD	7036862	wordpools/wasnorm_wordpool_576.txt	LTP348	ltpFR2	14	16	COUSIN	392	n/a	n/a	0	0	0
3476.02197265625	n/a	REST_REWET	7118893	n/a	LTP348	ltpFR2	14	16	n/a	n/a	n/a	n/a	0	0	0
3587.5517578125	n/a	WORD	7347306	wordpools/wasnorm_wordpool_576.txt	LTP348	ltpFR2	14	17	PIGMENT	1066	n/a	n/a	0	0	0
3590.3505859375	n/a	WORD	7353038	wordpools/wasnorm_wordpool_576.txt	LTP348	ltpFR2	14	17	BUG	187	n/a	n/a	0	0	0
3593.03173828125	n/a	WORD	7358529	wordpools/wasnorm_wordpool_576.txt	LTP348	ltpFR2	14	17	YARN	1631	n/a	n/a	0	0	0
3595.69677734375	n/a	WORD	7363987	wordpools/wasnorm_wordpool_576.txt	LTP348	ltpFR2	14	17	SPOOL	1356	n/a	n/a	0	0	0
3598.44677734375	n/a	WORD	7369619	wordpools/wasnorm_wordpool_576.txt	LTP348	ltpFR2	14	17	SMOG	1330	n/a	n/a	0	0	0
3601.19482421875	n/a	WORD	7375247	wordpools/wasnorm_wordpool_576.txt	LTP348	ltpFR2	14	17	ROBIN	1199	n/a	n/a	0	0	0
3604.009765625	n/a	WORD	7381012	wordpools/wasnorm_wordpool_576.txt	LTP348	ltpFR2	14	17	RATTLE	1170	n/a	n/a	0	0	0
3606.65771484375	n/a	WORD	7386435	wordpools/wasnorm_wordpool_576.txt	LTP348	ltpFR2	14	17	OX	994	n/a	n/a	0	0	0
3609.19091796875	n/a	WORD	7391623	wordpools/wasnorm_wordpool_576.txt	LTP348	ltpFR2	14	17	PRIMATE	1123	n/a	n/a	0	0	0
3611.68896484375	n/a	WORD	7396739	wordpools/wasnorm_wordpool_576.txt	LTP348	ltpFR2	14	17	FLAG	573	n/a	n/a	0	0	0
3614.38916015625	n/a	WORD	7402269	wordpools/wasnorm_wordpool_576.txt	LTP348	ltpFR2	14	17	BALLOON	75	n/a	n/a	0	0	0
3617.15283203125	n/a	WORD	7407929	wordpools/wasnorm_wordpool_576.txt	LTP348	ltpFR2	14	17	TRIBE	1505	n/a	n/a	0	0	0
3619.85205078125	n/a	WORD	7413457	wordpools/wasnorm_wordpool_576.txt	LTP348	ltpFR2	14	17	PIMPLE	1071	n/a	n/a	0	0	0
3622.48486328125	n/a	WORD	7418849	wordpools/wasnorm_wordpool_576.txt	LTP348	ltpFR2	14	17	CRIB	407	n/a	n/a	0	0	0
3625.08203125	n/a	WORD	7424168	wordpools/wasnorm_wordpool_576.txt	LTP348	ltpFR2	14	17	BEAKER	104	n/a	n/a	0	0	0
3627.880859375	n/a	WORD	7429900	wordpools/wasnorm_wordpool_576.txt	LTP348	ltpFR2	14	17	FIREPLACE	570	n/a	n/a	0	0	0
3630.68017578125	n/a	WORD	7435633	wordpools/wasnorm_wordpool_576.txt	LTP348	ltpFR2	14	17	TRANSPLANT	1496	n/a	n/a	0	0	0
3633.49609375	n/a	WORD	7441400	wordpools/wasnorm_wordpool_576.txt	LTP348	ltpFR2	14	17	EYELASH	546	n/a	n/a	0	0	0
3636.2783203125	n/a	WORD	7447098	wordpools/wasnorm_wordpool_576.txt	LTP348	ltpFR2	14	17	SCARECROW	1245	n/a	n/a	0	0	0
3638.8251953125	n/a	WORD	7452314	wordpools/wasnorm_wordpool_576.txt	LTP348	ltpFR2	14	17	TORTOISE	1486	n/a	n/a	0	0	0
3641.59130859375	n/a	WORD	7457979	wordpools/wasnorm_wordpool_576.txt	LTP348	ltpFR2	14	17	ELBOW	520	n/a	n/a	0	0	0
3644.123046875	n/a	WORD	7463164	wordpools/wasnorm_wordpool_576.txt	LTP348	ltpFR2	14	17	BISON	131	n/a	n/a	0	0	0
3646.93798828125	n/a	WORD	7468929	wordpools/wasnorm_wordpool_576.txt	LTP348	ltpFR2	14	17	CHIPMUNK	304	n/a	n/a	0	0	0
3649.67041015625	n/a	WORD	7474525	wordpools/wasnorm_wordpool_576.txt	LTP348	ltpFR2	14	17	CHEMIST	292	n/a	n/a	0	0	0
3651.287109375	n/a	START	7477836	n/a	LTP348	ltpFR2	14	n/a	n/a	n/a	27	n/a	n/a	n/a	n/a
3652.41796875	n/a	DISTRACTOR	7480152	n/a	LTP348	ltpFR2	14	17	n/a	n/a	n/a	n/a	0	0	0
3652.42041015625	n/a	PROB	7480157	n/a	LTP348	ltpFR2	14	n/a	n/a	n/a	27	9	6	1	2
3655.833984375	n/a	PROB	7487148	n/a	LTP348	ltpFR2	14	n/a	n/a	n/a	27	5	1	1	3
3657.484375	n/a	PROB	7490528	n/a	LTP348	ltpFR2	14	n/a	n/a	n/a	27	8	3	9	6
3661.7314453125	n/a	PROB	7499226	n/a	LTP348	ltpFR2	14	n/a	n/a	n/a	27	14	6	5	3
3665.3974609375	n/a	PROB	7506734	n/a	LTP348	ltpFR2	14	n/a	n/a	n/a	27	15	4	7	4
3668.09423828125	n/a	PROB	7512257	n/a	LTP348	ltpFR2	14	n/a	n/a	n/a	27	13	7	1	5
3671.46044921875	n/a	PROB	7519151	n/a	LTP348	ltpFR2	14	n/a	n/a	n/a	27	14	2	5	7
3674.46044921875	n/a	STOP	7525295	n/a	LTP348	ltpFR2	14	n/a	n/a	n/a	27	n/a	n/a	n/a	n/a
3677.107421875	n/a	REC_START	7530716	n/a	LTP348	ltpFR2	14	17	n/a	n/a	n/a	n/a	0	0	0
3677.7353515625	n/a	REC_WORD	7532002	wordpools/wasnorm_wordpool_576.txt	LTP348	ltpFR2	14	17	CHEMIST	292	n/a	n/a	0	0	0
3678.658203125	n/a	REC_WORD	7533892	wordpools/wasnorm_wordpool_576.txt	LTP348	ltpFR2	14	17	BUG	187	n/a	n/a	0	0	0
3751.18798828125	n/a	REC_WORD	7682433	wordpools/wasnorm_wordpool_576.txt	LTP348	ltpFR2	14	17	DOCTOR	478	n/a	n/a	0	0	0
3767.56396484375	n/a	WORD	7715971	wordpools/wasnorm_wordpool_576.txt	LTP348	ltpFR2	14	18	PARROT	1015	n/a	n/a	0	0	0
3770.2958984375	n/a	WORD	7721566	wordpools/wasnorm_wordpool_576.txt	LTP348	ltpFR2	14	18	GARDEN	623	n/a	n/a	0	0	0
3772.9599609375	n/a	WORD	7727022	wordpools/wasnorm_wordpool_576.txt	LTP348	ltpFR2	14	18	FOREHEAD	592	n/a	n/a	0	0	0
3775.64208984375	n/a	WORD	7732515	wordpools/wasnorm_wordpool_576.txt	LTP348	ltpFR2	14	18	THRONE	1461	n/a	n/a	0	0	0
3778.07421875	n/a	WORD	7737496	wordpools/wasnorm_wordpool_576.txt	LTP348	ltpFR2	14	18	PUDDLE	1140	n/a	n/a	0	0	0
3780.55712890625	n/a	WORD	7742581	wordpools/wasnorm_wordpool_576.txt	LTP348	ltpFR2	14	18	THREAD	1460	n/a	n/a	0	0	0
3783.3720703125	n/a	WORD	7748346	wordpools/wasnorm_wordpool_576.txt	LTP348	ltpFR2	14	18	COUNTRY	388	n/a	n/a	0	0	0
3786.0869140625	n/a	WORD	7753906	wordpools/wasnorm_wordpool_576.txt	LTP348	ltpFR2	14	18	HELMET	702	n/a	n/a	0	0	0
3788.73486328125	n/a	WORD	7759329	wordpools/wasnorm_wordpool_576.txt	LTP348	ltpFR2	14	18	ORANGE	980	n/a	n/a	0	0	0
3791.43505859375	n/a	WORD	7764859	wordpools/wasnorm_wordpool_576.txt	LTP348	ltpFR2	14	18	RAZOR	1171	n/a	n/a	0	0	0
3794.06591796875	n/a	WORD	7770247	wordpools/wasnorm_wordpool_576.txt	LTP348	ltpFR2	14	18	SCISSORS	1250	n/a	n/a	0	0	0
3796.78125	n/a	WORD	7775808	wordpools/wasnorm_wordpool_576.txt	LTP348	ltpFR2	14	18	SUMMIT	1405	n/a	n/a	0	0	0
3799.56396484375	n/a	WORD	7781507	wordpools/wasnorm_wordpool_576.txt	LTP348	ltpFR2	14	18	WHISKERS	1605	n/a	n/a	0	0	0
3802.29638671875	n/a	WORD	7787103	wordpools/wasnorm_wordpool_576.txt	LTP348	ltpFR2	14	18	FRUIT	610	n/a	n/a	0	0	0
3804.76123046875	n/a	WORD	7792151	wordpools/wasnorm_wordpool_576.txt	LTP348	ltpFR2	14	18	POSSUM	1112	n/a	n/a	0	0	0
3807.47705078125	n/a	WORD	7797713	wordpools/wasnorm_wordpool_576.txt	LTP348	ltpFR2	14	18	BEAST	108	n/a	n/a	0	0	0
3809.92529296875	n/a	WORD	7802727	wordpools/wasnorm_wordpool_576.txt	LTP348	ltpFR2	14	18	DAISY	435	n/a	n/a	0	0	0
3812.525390625	n/a	WORD	7808052	wordpools/wasnorm_wordpool_576.txt	LTP348	ltpFR2	14	18	HEDGE	699	n/a	n/a	0	0	0
3815.08935546875	n/a	WORD	7813303	wordpools/wasnorm_wordpool_576.txt	LTP348	ltpFR2	14	18	BRANCH	168	n/a	n/a	0	0	0
3817.58935546875	n/a	WORD	7818423	wordpools/wasnorm_wordpool_576.txt	LTP348	ltpFR2	14	18	PLIERS	1089	n/a	n/a	0	0	0
3820.05322265625	n/a	WORD	7823469	wordpools/wasnorm_wordpool_576.txt	LTP348	ltpFR2	14	18	CRUTCH	417	n/a	n/a	0	0	0
3822.83544921875	n/a	WORD	7829167	wordpools/wasnorm_wordpool_576.txt	LTP348	ltpFR2	14	18	TUBA	1515	n/a	n/a	0	0	0
3825.30224609375	n/a	WORD	7834219	wordpools/wasnorm_wordpool_576.txt	LTP348	ltpFR2	14	18	MUMMY	932	n/a	n/a	0	0	0
3827.79931640625	n/a	WORD	7839333	wordpools/wasnorm_wordpool_576.txt	LTP348	ltpFR2	14	18	PORK	1108	n/a	n/a	0	0	0
3829.41748046875	n/a	START	7842647	n/a	LTP348	ltpFR2	14	n/a	n/a	n/a	28	n/a	n/a	n/a	n/a
3830.439453125	n/a	DISTRACTOR	7844740	n/a	LTP348	ltpFR2	14	18	n/a	n/a	n/a	n/a	0	0	0
3830.44921875	n/a	PROB	7844760	n/a	LTP348	ltpFR2	14	n/a	n/a	n/a	28	10	1	2	7
3832.3984375	n/a	PROB	7848752	n/a	LTP348	ltpFR2	14	n/a	n/a	n/a	28	13	3	5	5
3833.83056640625	n/a	PROB	7851685	n/a	LTP348	ltpFR2	14	n/a	n/a	n/a	28	17	7	6	4
3836.6455078125	n/a	PROB	7857450	n/a	LTP348	ltpFR2	14	n/a	n/a	n/a	28	12	5	4	3
3841.79248046875	n/a	PROB	7867991	n/a	LTP348	ltpFR2	14	n/a	n/a	n/a	28	20	3	8	9
3847.67333984375	n/a	PROB	7880035	n/a	LTP348	ltpFR2	14	n/a	n/a	n/a	28	13	2	9	2
3851.33935546875	n/a	PROB	7887543	n/a	LTP348	ltpFR2	14	n/a	n/a	n/a	28	16	4	7	5
3853.26171875	n/a	STOP	7891480	n/a	LTP348	ltpFR2	14	n/a	n/a	n/a	28	n/a	n/a	n/a	n/a
3855.2373046875	n/a	REC_START	7895526	n/a	LTP348	ltpFR2	14	18	n/a	n/a	n/a	n/a	0	0	0
3855.28857421875	n/a	REC_WORD	7895631	wordpools/wasnorm_wordpool_576.txt	LTP348	ltpFR2	14	18	PORK	1108	n/a	n/a	0	0	0
3855.92041015625	n/a	REC_WORD	7896925	wordpools/wasnorm_wordpool_576.txt	LTP348	ltpFR2	14	18	MUMMY	932	n/a	n/a	0	0	0
3862.6904296875	n/a	REC_WORD	7910790	wordpools/wasnorm_wordpool_576.txt	LTP348	ltpFR2	14	18	DAISY	435	n/a	n/a	0	0	0
3945.69189453125	n/a	WORD	8080777	wordpools/wasnorm_wordpool_576.txt	LTP348	ltpFR2	14	19	CEILING	265	n/a	n/a	0	0	0
3948.47509765625	n/a	WORD	8086477	wordpools/wasnorm_wordpool_576.txt	LTP348	ltpFR2	14	19	HEART	697	n/a	n/a	0	0	0
3951.13916015625	n/a	WORD	8091933	wordpools/wasnorm_wordpool_576.txt	LTP348	ltpFR2	14	19	DONOR	485	n/a	n/a	0	0	0
3953.72119140625	n/a	WORD	8097221	wordpools/wasnorm_wordpool_576.txt	LTP348	ltpFR2	14	19	SOFTBALL	1343	n/a	n/a	0	0	0
3956.2041015625	n/a	WORD	8102306	wordpools/wasnorm_wordpool_576.txt	LTP348	ltpFR2	14	19	SWAMP	1416	n/a	n/a	0	0	0
3958.66943359375	n/a	WORD	8107355	wordpools/wasnorm_wordpool_576.txt	LTP348	ltpFR2	14	19	BUTCHER	203	n/a	n/a	0	0	0
3961.1513671875	n/a	WORD	8112438	wordpools/wasnorm_wordpool_576.txt	LTP348	ltpFR2	14	19	GREASE	660	n/a	n/a	0	0	0
3963.96630859375	n/a	WORD	8118203	wordpools/wasnorm_wordpool_576.txt	LTP348	ltpFR2	14	19	SHIRT	1287	n/a	n/a	0	0	0
3966.63134765625	n/a	WORD	8123661	wordpools/wasnorm_wordpool_576.txt	LTP348	ltpFR2	14	19	SCRIBBLE	1256	n/a	n/a	0	0	0
3969.09716796875	n/a	WORD	8128711	wordpools/wasnorm_wordpool_576.txt	LTP348	ltpFR2	14	19	BUCKET	184	n/a	n/a	0	0	0
3971.54736328125	n/a	WORD	8133729	wordpools/wasnorm_wordpool_576.txt	LTP348	ltpFR2	14	19	PILOT	1070	n/a	n/a	0	0	0
3974.01123046875	n/a	WORD	8138775	wordpools/wasnorm_wordpool_576.txt	LTP348	ltpFR2	14	19	SPARROW	1347	n/a	n/a	0	0	0
3976.54443359375	n/a	WORD	8143963	wordpools/wasnorm_wordpool_576.txt	LTP348	ltpFR2	14	19	EMPIRE	530	n/a	n/a	0	0	0
3979.04248046875	n/a	WORD	8149079	wordpools/wasnorm_wordpool_576.txt	LTP348	ltpFR2	14	19	CAPTIVE	240	n/a	n/a	0	0	0
3981.525390625	n/a	WORD	8154164	wordpools/wasnorm_wordpool_576.txt	LTP348	ltpFR2	14	19	CHAUFFEUR	283	n/a	n/a	0	0	0
3984.3076171875	n/a	WORD	8159862	wordpools/wasnorm_wordpool_576.txt	LTP348	ltpFR2	14	19	PIANO	1057	n/a	n/a	0	0	0
3986.88818359375	n/a	WORD	8165147	wordpools/wasnorm_wordpool_576.txt	LTP348	ltpFR2	14	19	MARS	873	n/a	n/a	0	0	0
3989.4384765625	n/a	WORD	8170370	wordpools/wasnorm_wordpool_576.txt	LTP348	ltpFR2	14	19	CONVICT	371	n/a	n/a	0	0	0
3992.03564453125	n/a	WORD	8175689	wordpools/wasnorm_wordpool_576.txt	LTP348	ltpFR2	14	19	GRAPE	654	n/a	n/a	0	0	0
3994.78466796875	n/a	WORD	8181319	wordpools/wasnorm_wordpool_576.txt	LTP348	ltpFR2	14	19	CHAMPAGNE	278	n/a	n/a	0	0	0
3997.599609375	n/a	WORD	8187084	wordpools/wasnorm_wordpool_576.txt	LTP348	ltpFR2	14	19	SHOVEL	1295	n/a	n/a	0	0	0
4000.349609375	n/a	WORD	8192716	wordpools/wasnorm_wordpool_576.txt	LTP348	ltpFR2	14	19	VALLEY	1545	n/a	n/a	0	0	0
4002.78076171875	n/a	WORD	8197695	wordpools/wasnorm_wordpool_576.txt	LTP348	ltpFR2	14	19	LADDER	793	n/a	n/a	0	0	0
4005.24755859375	n/a	WORD	8202747	wordpools/wasnorm_wordpool_576.txt	LTP348	ltpFR2	14	19	COTTAGE	384	n/a	n/a	0	0	0
4006.8623046875	n/a	START	8206054	n/a	LTP348	ltpFR2	14	n/a	n/a	n/a	29	n/a	n/a	n/a	n/a
4008.00732421875	n/a	DISTRACTOR	8208399	n/a	LTP348	ltpFR2	14	19	n/a	n/a	n/a	n/a	0	0	0
4008.01171875	n/a	PROB	8208408	n/a	LTP348	ltpFR2	14	n/a	n/a	n/a	29	14	4	6	4
4009.8603515625	n/a	PROB	8212194	n/a	LTP348	ltpFR2	14	n/a	n/a	n/a	29	11	2	3	6
4013.1083984375	n/a	PROB	8218846	n/a	LTP348	ltpFR2	14	n/a	n/a	n/a	29	16	9	2	5
4015.90771484375	n/a	PROB	8224579	n/a	LTP348	ltpFR2	14	n/a	n/a	n/a	29	25	8	8	9
4018.2734375	n/a	PROB	8229424	n/a	LTP348	ltpFR2	14	n/a	n/a	n/a	29	15	4	3	8
4022.5888671875	n/a	PROB	8238262	n/a	LTP348	ltpFR2	14	n/a	n/a	n/a	29	14	8	3	3
4030.86279296875	n/a	STOP	8255207	n/a	LTP348	ltpFR2	14	n/a	n/a	n/a	29	n/a	n/a	n/a	n/a
4032.64990234375	n/a	REC_START	8258867	n/a	LTP348	ltpFR2	14	19	n/a	n/a	n/a	n/a	0	0	0
4033.140625	n/a	REC_WORD	8259872	wordpools/wasnorm_wordpool_576.txt	LTP348	ltpFR2	14	19	COTTAGE	384	n/a	n/a	0	0	0
4033.806640625	n/a	REC_WORD	8261236	wordpools/wasnorm_wordpool_576.txt	LTP348	ltpFR2	14	19	CAPTIVE	240	n/a	n/a	0	0	0
4034.99658203125	n/a	REC_WORD	8263673	wordpools/wasnorm_wordpool_576.txt	LTP348	ltpFR2	14	19	CONVICT	371	n/a	n/a	0	0	0
4037.380859375	n/a	REC_WORD	8268556	wordpools/wasnorm_wordpool_576.txt	LTP348	ltpFR2	14	19	SCRIBBLE	1256	n/a	n/a	0	0	0
4053.99169921875	n/a	REC_WORD	8302575	wordpools/wasnorm_wordpool_576.txt	LTP348	ltpFR2	14	19	SHOVEL	1295	n/a	n/a	0	0	0
4055.35205078125	n/a	REC_WORD	8305361	wordpools/wasnorm_wordpool_576.txt	LTP348	ltpFR2	14	19	GRAPE	654	n/a	n/a	0	0	0
4123.10546875	n/a	WORD	8444120	wordpools/wasnorm_wordpool_576.txt	LTP348	ltpFR2	14	20	ARM	38	n/a	n/a	0	0	0
4125.88720703125	n/a	WORD	8449817	wordpools/wasnorm_wordpool_576.txt	LTP348	ltpFR2	14	20	CABIN	211	n/a	n/a	0	0	0
4128.619140625	n/a	WORD	8455412	wordpools/wasnorm_wordpool_576.txt	LTP348	ltpFR2	14	20	FARMER	553	n/a	n/a	0	0	0
4131.3681640625	n/a	WORD	8461042	wordpools/wasnorm_wordpool_576.txt	LTP348	ltpFR2	14	20	SHARK	1275	n/a	n/a	0	0	0
4133.79931640625	n/a	WORD	8466021	wordpools/wasnorm_wordpool_576.txt	LTP348	ltpFR2	14	20	SADDLE	1221	n/a	n/a	0	0	0
4136.54931640625	n/a	WORD	8471653	wordpools/wasnorm_wordpool_576.txt	LTP348	ltpFR2	14	20	LAGOON	795	n/a	n/a	0	0	0
4138.99755859375	n/a	WORD	8476667	wordpools/wasnorm_wordpool_576.txt	LTP348	ltpFR2	14	20	APPLE	33	n/a	n/a	0	0	0
4141.779296875	n/a	WORD	8482364	wordpools/wasnorm_wordpool_576.txt	LTP348	ltpFR2	14	20	SHORTCAKE	1292	n/a	n/a	0	0	0
4144.611328125	n/a	WORD	8488164	wordpools/wasnorm_wordpool_576.txt	LTP348	ltpFR2	14	20	MARSH	874	n/a	n/a	0	0	0
4147.310546875	n/a	WORD	8493692	wordpools/wasnorm_wordpool_576.txt	LTP348	ltpFR2	14	20	JEANS	752	n/a	n/a	0	0	0
4150.09130859375	n/a	WORD	8499387	wordpools/wasnorm_wordpool_576.txt	LTP348	ltpFR2	14	20	TUTU	1524	n/a	n/a	0	0	0
4152.5244140625	n/a	WORD	8504370	wordpools/wasnorm_wordpool_576.txt	LTP348	ltpFR2	14	20	REPORT	1184	n/a	n/a	0	0	0
4155.25634765625	n/a	WORD	8509965	wordpools/wasnorm_wordpool_576.txt	LTP348	ltpFR2	14	20	GAVEL	627	n/a	n/a	0	0	0
4157.8544921875	n/a	WORD	8515286	wordpools/wasnorm_wordpool_576.txt	LTP348	ltpFR2	14	20	STAR	1373	n/a	n/a	0	0	0
4160.40478515625	n/a	WORD	8520509	wordpools/wasnorm_wordpool_576.txt	LTP348	ltpFR2	14	20	HERO	706	n/a	n/a	0	0	0
4163.20263671875	n/a	WORD	8526239	wordpools/wasnorm_wordpool_576.txt	LTP348	ltpFR2	14	20	LEG	809	n/a	n/a	0	0	0
4165.93359375	n/a	WORD	8531832	wordpools/wasnorm_wordpool_576.txt	LTP348	ltpFR2	14	20	ARMY	39	n/a	n/a	0	0	0
4168.55078125	n/a	WORD	8537192	wordpools/wasnorm_wordpool_576.txt	LTP348	ltpFR2	14	20	APRON	35	n/a	n/a	0	0	0
4171.2158203125	n/a	WORD	8542650	wordpools/wasnorm_wordpool_576.txt	LTP348	ltpFR2	14	20	TOASTER	1472	n/a	n/a	0	0	0
4173.77978515625	n/a	WORD	8547901	wordpools/wasnorm_wordpool_576.txt	LTP348	ltpFR2	14	20	ACTOR	5	n/a	n/a	0	0	0
4176.3798828125	n/a	WORD	8553226	wordpools/wasnorm_wordpool_576.txt	LTP348	ltpFR2	14	20	SNAKE	1333	n/a	n/a	0	0	0
4178.8447265625	n/a	WORD	8558274	wordpools/wasnorm_wordpool_576.txt	LTP348	ltpFR2	14	20	SEAFOOD	1260	n/a	n/a	0	0	0
4181.62646484375	n/a	WORD	8563971	wordpools/wasnorm_wordpool_576.txt	LTP348	ltpFR2	14	20	TILE	1468	n/a	n/a	0	0	0
4184.259765625	n/a	WORD	8569364	wordpools/wasnorm_wordpool_576.txt	LTP348	ltpFR2	14	20	FOX	598	n/a	n/a	0	0	0
4185.87451171875	n/a	START	8572671	n/a	LTP348	ltpFR2	14	n/a	n/a	n/a	30	n/a	n/a	n/a	n/a
4187.07275390625	n/a	DISTRACTOR	8575125	n/a	LTP348	ltpFR2	14	20	n/a	n/a	n/a	n/a	0	0	0
4187.0908203125	n/a	PROB	8575162	n/a	LTP348	ltpFR2	14	n/a	n/a	n/a	30	15	3	5	7
4189.98876953125	n/a	PROB	8581097	n/a	LTP348	ltpFR2	14	n/a	n/a	n/a	30	6	1	1	4
4191.57275390625	n/a	PROB	8584341	n/a	LTP348	ltpFR2	14	n/a	n/a	n/a	30	22	9	7	6
4198.68505859375	n/a	PROB	8598907	n/a	LTP348	ltpFR2	14	n/a	n/a	n/a	30	26	9	8	9
4201.849609375	n/a	PROB	8605388	n/a	LTP348	ltpFR2	14	n/a	n/a	n/a	30	10	3	5	2
4204.94775390625	n/a	PROB	8611733	n/a	LTP348	ltpFR2	14	n/a	n/a	n/a	30	11	3	5	3
4209.8740234375	n/a	STOP	8621822	n/a	LTP348	ltpFR2	14	n/a	n/a	n/a	30	n/a	n/a	n/a	n/a
4211.7119140625	n/a	REC_START	8625586	n/a	LTP348	ltpFR2	14	20	n/a	n/a	n/a	n/a	0	0	0
4212.27783203125	n/a	REC_WORD	8626745	wordpools/wasnorm_wordpool_576.txt	LTP348	ltpFR2	14	20	LAGOON	795	n/a	n/a	0	0	0
4226.44921875	n/a	REC_WORD	8655768	wordpools/wasnorm_wordpool_576.txt	LTP348	ltpFR2	14	20	SHORTCAKE	1292	n/a	n/a	0	0	0
4302.150390625	n/a	DISTRACTOR	8810804	n/a	LTP348	ltpFR2	14	21	n/a	n/a	n/a	n/a	0	0	0
4302.150390625	n/a	START	8810804	n/a	LTP348	ltpFR2	14	n/a	n/a	n/a	31	n/a	n/a	n/a	n/a
4302.16748046875	n/a	PROB	8810839	n/a	LTP348	ltpFR2	14	n/a	n/a	n/a	31	20	8	9	3
4306.5166015625	n/a	PROB	8819746	n/a	LTP348	ltpFR2	14	n/a	n/a	n/a	31	16	2	9	5
4310.33056640625	n/a	PROB	8827557	n/a	LTP348	ltpFR2	14	n/a	n/a	n/a	31	11	5	5	1
4311.7294921875	n/a	PROB	8830422	n/a	LTP348	ltpFR2	14	n/a	n/a	n/a	31	10	7	1	2
4313.61181640625	n/a	PROB	8834277	n/a	LTP348	ltpFR2	14	n/a	n/a	n/a	31	8	1	2	5
4315.7607421875	n/a	PROB	8838678	n/a	LTP348	ltpFR2	14	n/a	n/a	n/a	31	14	4	2	8
4318.36083984375	n/a	PROB	8844003	n/a	LTP348	ltpFR2	14	n/a	n/a	n/a	31	16	5	4	7
4323.224609375	n/a	PROB	8853964	n/a	LTP348	ltpFR2	14	n/a	n/a	n/a	31	19	8	6	5
4325.4658203125	n/a	STOP	8858554	n/a	LTP348	ltpFR2	14	n/a	n/a	n/a	31	n/a	n/a	n/a	n/a
4327.03857421875	n/a	WORD	8861775	wordpools/wasnorm_wordpool_576.txt	LTP348	ltpFR2	14	21	PEBBLE	1035	n/a	n/a	0	0	0
4329.720703125	n/a	WORD	8867268	wordpools/wasnorm_wordpool_576.txt	LTP348	ltpFR2	14	21	ISLAND	745	n/a	n/a	0	0	0
4332.31982421875	n/a	WORD	8872591	wordpools/wasnorm_wordpool_576.txt	LTP348	ltpFR2	14	21	QUAIL	1147	n/a	n/a	0	0	0
4335.0849609375	n/a	WORD	8878254	wordpools/wasnorm_wordpool_576.txt	LTP348	ltpFR2	14	21	YOLK	1633	n/a	n/a	0	0	0
4337.6826171875	n/a	WORD	8883574	wordpools/wasnorm_wordpool_576.txt	LTP348	ltpFR2	14	21	NIGHTGOWN	953	n/a	n/a	0	0	0
4340.4326171875	n/a	WORD	8889206	wordpools/wasnorm_wordpool_576.txt	LTP348	ltpFR2	14	21	FRAGRANCE	599	n/a	n/a	0	0	0
4343.11376953125	n/a	WORD	8894697	wordpools/wasnorm_wordpool_576.txt	LTP348	ltpFR2	14	21	PERFUME	1049	n/a	n/a	0	0	0
4345.595703125	n/a	WORD	8899780	wordpools/wasnorm_wordpool_576.txt	LTP348	ltpFR2	14	21	CLIMBER	323	n/a	n/a	0	0	0
4348.345703125	n/a	WORD	8905412	wordpools/wasnorm_wordpool_576.txt	LTP348	ltpFR2	14	21	DENTIST	447	n/a	n/a	0	0	0
4351.14306640625	n/a	WORD	8911141	wordpools/wasnorm_wordpool_576.txt	LTP348	ltpFR2	14	21	CASHEW	253	n/a	n/a	0	0	0
4353.89208984375	n/a	WORD	8916771	wordpools/wasnorm_wordpool_576.txt	LTP348	ltpFR2	14	21	WOMAN	1620	n/a	n/a	0	0	0
