onset	duration	trial_type	sample	stim_file	subject	experiment	session	trial	task	item_name	item_num	recog_conf	resp	color_b	color_g	color_r	case	font
459.03	n/a	SESS_START	229515	n/a	LTP063	ltpFR	5	n/a	n/a	n/a	n/a	4	n/a	n/a	n/a	n/a	n/a	n/a
494.306	n/a	WORD	247153	wordpools/wasnorm_wordpool.txt	LTP063	ltpFR	5	1	1	GHETTO	633	n/a	0	0	0.5869140625	0.422607421875	lower	../fonts/zerothre.ttf
498.25	n/a	WORD	249125	wordpools/wasnorm_wordpool.txt	LTP063	ltpFR	5	1	1	OCEAN	970	n/a	0	0	0.5869140625	0.422607421875	lower	../fonts/zerothre.ttf
502.264	n/a	WORD	251132	wordpools/wasnorm_wordpool.txt	LTP063	ltpFR	5	1	1	TERMITE	1451	n/a	1	0	0.5869140625	0.422607421875	lower	../fonts/zerothre.ttf
506.142	n/a	WORD	253071	wordpools/wasnorm_wordpool.txt	LTP063	ltpFR	5	1	0	ROACH	1195	n/a	0	1	0.412841796875	0.57763671875	upper	../fonts/amplitud.ttf
510.07	n/a	WORD	255035	wordpools/wasnorm_wordpool.txt	LTP063	ltpFR	5	1	0	AFRICA	9	n/a	1	1	0.412841796875	0.57763671875	upper	../fonts/amplitud.ttf
513.882	n/a	WORD	256941	wordpools/wasnorm_wordpool.txt	LTP063	ltpFR	5	1	0	LOUNGE	845	n/a	1	1	0.412841796875	0.57763671875	upper	../fonts/amplitud.ttf
517.818	n/a	WORD	258909	wordpools/wasnorm_wordpool.txt	LTP063	ltpFR	5	1	0	COTTAGE	384	n/a	1	1	0.412841796875	0.57763671875	upper	../fonts/amplitud.ttf
521.814	n/a	WORD	260907	wordpools/wasnorm_wordpool.txt	LTP063	ltpFR	5	1	1	PLASTER	1085	n/a	0	0	0.5869140625	0.422607421875	lower	../fonts/zerothre.ttf
526.018	n/a	WORD	263009	wordpools/wasnorm_wordpool.txt	LTP063	ltpFR	5	1	1	MANSION	864	n/a	0	0	0.5869140625	0.422607421875	lower	../fonts/zerothre.ttf
530.046	n/a	WORD	265023	wordpools/wasnorm_wordpool.txt	LTP063	ltpFR	5	1	1	LIEUTENANT	818	n/a	1	0	0.5869140625	0.422607421875	lower	../fonts/zerothre.ttf
533.926	n/a	WORD	266963	wordpools/wasnorm_wordpool.txt	LTP063	ltpFR	5	1	1	KEEPER	769	n/a	1	0	0.5869140625	0.422607421875	lower	../fonts/zerothre.ttf
537.93	n/a	WORD	268965	wordpools/wasnorm_wordpool.txt	LTP063	ltpFR	5	1	1	AIRCRAFT	11	n/a	0	0	0.5869140625	0.422607421875	lower	../fonts/zerothre.ttf
542.04	n/a	WORD	271020	wordpools/wasnorm_wordpool.txt	LTP063	ltpFR	5	1	0	GRASSHOPPER	656	n/a	0	1	0.412841796875	0.57763671875	upper	../fonts/amplitud.ttf
546.238	n/a	WORD	273119	wordpools/wasnorm_wordpool.txt	LTP063	ltpFR	5	1	0	ZUCCHINI	1638	n/a	0	1	0.412841796875	0.57763671875	upper	../fonts/amplitud.ttf
550.2	n/a	WORD	275100	wordpools/wasnorm_wordpool.txt	LTP063	ltpFR	5	1	0	BEVERAGE	123	n/a	0	1	0.412841796875	0.57763671875	upper	../fonts/amplitud.ttf
554.27	n/a	WORD	277135	wordpools/wasnorm_wordpool.txt	LTP063	ltpFR	5	1	0	TERMINAL	1450	n/a	1	1	0.412841796875	0.57763671875	upper	../fonts/amplitud.ttf
560.072	n/a	REC_START	280036	n/a	LTP063	ltpFR	5	1	n/a	n/a	n/a	n/a	n/a	n/a	n/a	n/a	n/a	n/a
561.144	n/a	REC_WORD	280572	wordpools/wasnorm_wordpool.txt	LTP063	ltpFR	5	1	0	LOUNGE	845	n/a	1	n/a	n/a	n/a	n/a	n/a
562.366	n/a	REC_WORD	281183	wordpools/wasnorm_wordpool.txt	LTP063	ltpFR	5	1	0	TERMINAL	1450	n/a	1	n/a	n/a	n/a	n/a	n/a
564.596	n/a	REC_WORD	282298	wordpools/wasnorm_wordpool.txt	LTP063	ltpFR	5	1	0	AFRICA	9	n/a	1	n/a	n/a	n/a	n/a	n/a
565.916	n/a	REC_WORD	282958	wordpools/wasnorm_wordpool.txt	LTP063	ltpFR	5	1	0	ZUCCHINI	1638	n/a	0	n/a	n/a	n/a	n/a	n/a
568.088	n/a	REC_WORD	284044	wordpools/wasnorm_wordpool.txt	LTP063	ltpFR	5	1	0	ROACH	1195	n/a	0	n/a	n/a	n/a	n/a	n/a
570.708	n/a	REC_WORD	285354	wordpools/wasnorm_wordpool.txt	LTP063	ltpFR	5	1	1	OCEAN	970	n/a	0	n/a	n/a	n/a	n/a	n/a
574.062	n/a	REC_WORD	287031	wordpools/wasnorm_wordpool.txt	LTP063	ltpFR	5	1	1	TERMITE	1451	n/a	1	n/a	n/a	n/a	n/a	n/a
577.314	n/a	REC_WORD	288657	wordpools/wasnorm_wordpool.txt	LTP063	ltpFR	5	1	1	LIEUTENANT	818	n/a	1	n/a	n/a	n/a	n/a	n/a
607.458	n/a	REC_WORD	303729	wordpools/wasnorm_wordpool.txt	LTP063	ltpFR	5	1	n/a	COACH	331	n/a	n/a	n/a	n/a	n/a	n/a	n/a
642.858	n/a	WORD	321429	wordpools/wasnorm_wordpool.txt	LTP063	ltpFR	5	2	0	TAXI	1438	n/a	1	1	0.412841796875	0.57763671875	upper	../fonts/amplitud.ttf
646.77	n/a	WORD	323385	wordpools/wasnorm_wordpool.txt	LTP063	ltpFR	5	2	0	STAKE	1368	n/a	0	1	0.412841796875	0.57763671875	upper	../fonts/amplitud.ttf
650.774	n/a	WORD	325387	wordpools/wasnorm_wordpool.txt	LTP063	ltpFR	5	2	0	KITE	779	n/a	1	1	0.412841796875	0.57763671875	upper	../fonts/amplitud.ttf
654.92	n/a	WORD	327460	wordpools/wasnorm_wordpool.txt	LTP063	ltpFR	5	2	1	BRAN	167	n/a	0	0	0.5869140625	0.422607421875	lower	../fonts/zerothre.ttf
658.932	n/a	WORD	329466	wordpools/wasnorm_wordpool.txt	LTP063	ltpFR	5	2	1	RAISIN	1163	n/a	1	0	0.5869140625	0.422607421875	lower	../fonts/zerothre.ttf
663.036	n/a	WORD	331518	wordpools/wasnorm_wordpool.txt	LTP063	ltpFR	5	2	1	LAKE	796	n/a	0	0	0.5869140625	0.422607421875	lower	../fonts/zerothre.ttf
667.166	n/a	WORD	333583	wordpools/wasnorm_wordpool.txt	LTP063	ltpFR	5	2	1	SWIMMER	1420	n/a	1	0	0.5869140625	0.422607421875	lower	../fonts/zerothre.ttf
671.034	n/a	WORD	335517	wordpools/wasnorm_wordpool.txt	LTP063	ltpFR	5	2	1	MONGOOSE	909	n/a	1	0	0.5869140625	0.422607421875	lower	../fonts/zerothre.ttf
674.898	n/a	WORD	337449	wordpools/wasnorm_wordpool.txt	LTP063	ltpFR	5	2	0	SWAMP	1416	n/a	1	1	0.412841796875	0.57763671875	upper	../fonts/amplitud.ttf
678.834	n/a	WORD	339417	wordpools/wasnorm_wordpool.txt	LTP063	ltpFR	5	2	0	PAINTER	1004	n/a	1	1	0.412841796875	0.57763671875	upper	../fonts/amplitud.ttf
682.68	n/a	WORD	341340	wordpools/wasnorm_wordpool.txt	LTP063	ltpFR	5	2	0	HERO	706	n/a	1	1	0.412841796875	0.57763671875	upper	../fonts/amplitud.ttf
686.692	n/a	WORD	343346	wordpools/wasnorm_wordpool.txt	LTP063	ltpFR	5	2	1	TIMBER	1469	n/a	0	0	0.5869140625	0.422607421875	lower	../fonts/zerothre.ttf
690.696	n/a	WORD	345348	wordpools/wasnorm_wordpool.txt	LTP063	ltpFR	5	2	1	SUSPECT	1415	n/a	1	0	0.5869140625	0.422607421875	lower	../fonts/zerothre.ttf
694.9	n/a	WORD	347450	wordpools/wasnorm_wordpool.txt	LTP063	ltpFR	5	2	1	ARTIST	43	n/a	1	0	0.5869140625	0.422607421875	lower	../fonts/zerothre.ttf
698.736	n/a	WORD	349368	wordpools/wasnorm_wordpool.txt	LTP063	ltpFR	5	2	0	MOLECULE	905	n/a	0	1	0.412841796875	0.57763671875	upper	../fonts/amplitud.ttf
702.582	n/a	WORD	351291	wordpools/wasnorm_wordpool.txt	LTP063	ltpFR	5	2	0	CHECK	284	n/a	0	1	0.412841796875	0.57763671875	upper	../fonts/amplitud.ttf
708.302	n/a	REC_START	354151	n/a	LTP063	ltpFR	5	2	n/a	n/a	n/a	n/a	n/a	n/a	n/a	n/a	n/a	n/a
709.762	n/a	REC_WORD	354881	wordpools/wasnorm_wordpool.txt	LTP063	ltpFR	5	2	0	MOLECULE	905	n/a	0	n/a	n/a	n/a	n/a	n/a
712.6	n/a	REC_WORD	356300	wordpools/wasnorm_wordpool.txt	LTP063	ltpFR	5	2	0	STAKE	1368	n/a	0	n/a	n/a	n/a	n/a	n/a
717.432	n/a	REC_WORD	358716	wordpools/wasnorm_wordpool.txt	LTP063	ltpFR	5	2	0	SWAMP	1416	n/a	1	n/a	n/a	n/a	n/a	n/a
719.426	n/a	REC_WORD	359713	wordpools/wasnorm_wordpool.txt	LTP063	ltpFR	5	2	1	SWIMMER	1420	n/a	1	n/a	n/a	n/a	n/a	n/a
721.2	n/a	REC_WORD	360600	wordpools/wasnorm_wordpool.txt	LTP063	ltpFR	5	2	0	PAINTER	1004	n/a	1	n/a	n/a	n/a	n/a	n/a
723.002	n/a	REC_WORD	361501	wordpools/wasnorm_wordpool.txt	LTP063	ltpFR	5	2	1	ARTIST	43	n/a	1	n/a	n/a	n/a	n/a	n/a
728.578	n/a	REC_WORD	364289	wordpools/wasnorm_wordpool.txt	LTP063	ltpFR	5	2	1	LAKE	796	n/a	0	n/a	n/a	n/a	n/a	n/a
753.744	n/a	REC_WORD	376872	wordpools/wasnorm_wordpool.txt	LTP063	ltpFR	5	2	1	MONGOOSE	909	n/a	1	n/a	n/a	n/a	n/a	n/a
759.146	n/a	REC_WORD	379573	wordpools/wasnorm_wordpool.txt	LTP063	ltpFR	5	2	0	TAXI	1438	n/a	1	n/a	n/a	n/a	n/a	n/a
786.56	n/a	WORD	393280	wordpools/wasnorm_wordpool.txt	LTP063	ltpFR	5	3	-1	OFFICER	973	n/a	-1	1	1.0	1.0	upper	../fonts/Verdana.ttf
790.49	n/a	WORD	395245	wordpools/wasnorm_wordpool.txt	LTP063	ltpFR	5	3	-1	CASH	252	n/a	-1	1	1.0	1.0	upper	../fonts/Verdana.ttf
794.502	n/a	WORD	397251	wordpools/wasnorm_wordpool.txt	LTP063	ltpFR	5	3	-1	VETERAN	1561	n/a	-1	1	1.0	1.0	upper	../fonts/Verdana.ttf
798.464	n/a	WORD	399232	wordpools/wasnorm_wordpool.txt	LTP063	ltpFR	5	3	-1	MISSILE	900	n/a	-1	1	1.0	1.0	upper	../fonts/Verdana.ttf
802.426	n/a	WORD	401213	wordpools/wasnorm_wordpool.txt	LTP063	ltpFR	5	3	-1	CAFE	216	n/a	-1	1	1.0	1.0	upper	../fonts/Verdana.ttf
806.364	n/a	WORD	403182	wordpools/wasnorm_wordpool.txt	LTP063	ltpFR	5	3	-1	STOMACH	1384	n/a	-1	1	1.0	1.0	upper	../fonts/Verdana.ttf
810.484	n/a	WORD	405242	wordpools/wasnorm_wordpool.txt	LTP063	ltpFR	5	3	-1	SOLDIER	1344	n/a	-1	1	1.0	1.0	upper	../fonts/Verdana.ttf
814.562	n/a	WORD	407281	wordpools/wasnorm_wordpool.txt	LTP063	ltpFR	5	3	-1	HOME	712	n/a	-1	1	1.0	1.0	upper	../fonts/Verdana.ttf
818.392	n/a	WORD	409196	wordpools/wasnorm_wordpool.txt	LTP063	ltpFR	5	3	-1	DORM	488	n/a	-1	1	1.0	1.0	upper	../fonts/Verdana.ttf
822.312	n/a	WORD	411156	wordpools/wasnorm_wordpool.txt	LTP063	ltpFR	5	3	-1	ARMY	39	n/a	-1	1	1.0	1.0	upper	../fonts/Verdana.ttf
826.482	n/a	WORD	413241	wordpools/wasnorm_wordpool.txt	LTP063	ltpFR	5	3	-1	LIST	830	n/a	-1	1	1.0	1.0	upper	../fonts/Verdana.ttf
830.304	n/a	WORD	415152	wordpools/wasnorm_wordpool.txt	LTP063	ltpFR	5	3	-1	SNACK	1331	n/a	-1	1	1.0	1.0	upper	../fonts/Verdana.ttf
834.356	n/a	WORD	417178	wordpools/wasnorm_wordpool.txt	LTP063	ltpFR	5	3	-1	CHICKEN	297	n/a	-1	1	1.0	1.0	upper	../fonts/Verdana.ttf
838.502	n/a	WORD	419251	wordpools/wasnorm_wordpool.txt	LTP063	ltpFR	5	3	-1	DIME	466	n/a	-1	1	1.0	1.0	upper	../fonts/Verdana.ttf
842.704	n/a	WORD	421352	wordpools/wasnorm_wordpool.txt	LTP063	ltpFR	5	3	-1	SUPPER	1411	n/a	-1	1	1.0	1.0	upper	../fonts/Verdana.ttf
846.526	n/a	WORD	423263	wordpools/wasnorm_wordpool.txt	LTP063	ltpFR	5	3	-1	POSSUM	1112	n/a	-1	1	1.0	1.0	upper	../fonts/Verdana.ttf
852.294	n/a	REC_START	426147	n/a	LTP063	ltpFR	5	3	n/a	n/a	n/a	n/a	n/a	n/a	n/a	n/a	n/a	n/a
854.744	n/a	REC_WORD	427372	wordpools/wasnorm_wordpool.txt	LTP063	ltpFR	5	3	-1	OFFICER	973	n/a	-1	n/a	n/a	n/a	n/a	n/a
856.234	n/a	REC_WORD	428117	wordpools/wasnorm_wordpool.txt	LTP063	ltpFR	5	3	-1	SOLDIER	1344	n/a	-1	n/a	n/a	n/a	n/a	n/a
857.866	n/a	REC_WORD	428933	wordpools/wasnorm_wordpool.txt	LTP063	ltpFR	5	3	-1	VETERAN	1561	n/a	-1	n/a	n/a	n/a	n/a	n/a
859.474	n/a	REC_WORD	429737	wordpools/wasnorm_wordpool.txt	LTP063	ltpFR	5	3	-1	ARMY	39	n/a	-1	n/a	n/a	n/a	n/a	n/a
861.22	n/a	REC_WORD	430610	wordpools/wasnorm_wordpool.txt	LTP063	ltpFR	5	3	-1	CASH	252	n/a	-1	n/a	n/a	n/a	n/a	n/a
863.184	n/a	REC_WORD	431592	wordpools/wasnorm_wordpool.txt	LTP063	ltpFR	5	3	-1	MISSILE	900	n/a	-1	n/a	n/a	n/a	n/a	n/a
870.926	n/a	REC_WORD	435463	wordpools/wasnorm_wordpool.txt	LTP063	ltpFR	5	3	-1	CAFE	216	n/a	-1	n/a	n/a	n/a	n/a	n/a
872.494	n/a	REC_WORD	436247	wordpools/wasnorm_wordpool.txt	LTP063	ltpFR	5	3	-1	SNACK	1331	n/a	-1	n/a	n/a	n/a	n/a	n/a
874.364	n/a	REC_WORD	437182	wordpools/wasnorm_wordpool.txt	LTP063	ltpFR	5	3	-1	CHICKEN	297	n/a	-1	n/a	n/a	n/a	n/a	n/a
876.054	n/a	REC_WORD	438027	wordpools/wasnorm_wordpool.txt	LTP063	ltpFR	5	3	-1	SUPPER	1411	n/a	-1	n/a	n/a	n/a	n/a	n/a
877.856	n/a	REC_WORD	438928	wordpools/wasnorm_wordpool.txt	LTP063	ltpFR	5	3	-1	STOMACH	1384	n/a	-1	n/a	n/a	n/a	n/a	n/a
879.698	n/a	REC_WORD	439849	wordpools/wasnorm_wordpool.txt	LTP063	ltpFR	5	3	-1	DIME	466	n/a	-1	n/a	n/a	n/a	n/a	n/a
890.916	n/a	REC_WORD	445458	wordpools/wasnorm_wordpool.txt	LTP063	ltpFR	5	3	-1	HOME	712	n/a	-1	n/a	n/a	n/a	n/a	n/a
893.046	n/a	REC_WORD	446523	wordpools/wasnorm_wordpool.txt	LTP063	ltpFR	5	3	-1	DORM	488	n/a	-1	n/a	n/a	n/a	n/a	n/a
934.258	n/a	WORD	467129	wordpools/wasnorm_wordpool.txt	LTP063	ltpFR	5	4	-1	HAT	690	n/a	-1	1	1.0	1.0	upper	../fonts/Verdana.ttf
938.246	n/a	WORD	469123	wordpools/wasnorm_wordpool.txt	LTP063	ltpFR	5	4	-1	ROOT	1210	n/a	-1	1	1.0	1.0	upper	../fonts/Verdana.ttf
942.208	n/a	WORD	471104	wordpools/wasnorm_wordpool.txt	LTP063	ltpFR	5	4	-1	CABIN	211	n/a	-1	1	1.0	1.0	upper	../fonts/Verdana.ttf
946.144	n/a	WORD	473072	wordpools/wasnorm_wordpool.txt	LTP063	ltpFR	5	4	-1	WORM	1623	n/a	-1	1	1.0	1.0	upper	../fonts/Verdana.ttf
950.098	n/a	WORD	475049	wordpools/wasnorm_wordpool.txt	LTP063	ltpFR	5	4	-1	GREASE	660	n/a	-1	1	1.0	1.0	upper	../fonts/Verdana.ttf
954.268	n/a	WORD	477134	wordpools/wasnorm_wordpool.txt	LTP063	ltpFR	5	4	-1	VOLLEYBALL	1576	n/a	-1	1	1.0	1.0	upper	../fonts/Verdana.ttf
958.372	n/a	WORD	479186	wordpools/wasnorm_wordpool.txt	LTP063	ltpFR	5	4	-1	PLAZA	1088	n/a	-1	1	1.0	1.0	upper	../fonts/Verdana.ttf
962.434	n/a	WORD	481217	wordpools/wasnorm_wordpool.txt	LTP063	ltpFR	5	4	-1	ISLAND	745	n/a	-1	1	1.0	1.0	upper	../fonts/Verdana.ttf
966.464	n/a	WORD	483232	wordpools/wasnorm_wordpool.txt	LTP063	ltpFR	5	4	-1	DIVER	476	n/a	-1	1	1.0	1.0	upper	../fonts/Verdana.ttf
970.376	n/a	WORD	485188	wordpools/wasnorm_wordpool.txt	LTP063	ltpFR	5	4	-1	GANG	619	n/a	-1	1	1.0	1.0	upper	../fonts/Verdana.ttf
974.412	n/a	WORD	487206	wordpools/wasnorm_wordpool.txt	LTP063	ltpFR	5	4	-1	FLOUR	583	n/a	-1	1	1.0	1.0	upper	../fonts/Verdana.ttf
978.49	n/a	WORD	489245	wordpools/wasnorm_wordpool.txt	LTP063	ltpFR	5	4	-1	ICING	732	n/a	-1	1	1.0	1.0	upper	../fonts/Verdana.ttf
982.428	n/a	WORD	491214	wordpools/wasnorm_wordpool.txt	LTP063	ltpFR	5	4	-1	BOXER	160	n/a	-1	1	1.0	1.0	upper	../fonts/Verdana.ttf
986.416	n/a	WORD	493208	wordpools/wasnorm_wordpool.txt	LTP063	ltpFR	5	4	-1	DONOR	485	n/a	-1	1	1.0	1.0	upper	../fonts/Verdana.ttf
990.494	n/a	WORD	495247	wordpools/wasnorm_wordpool.txt	LTP063	ltpFR	5	4	-1	WHEEL	1603	n/a	-1	1	1.0	1.0	upper	../fonts/Verdana.ttf
994.68	n/a	WORD	497340	wordpools/wasnorm_wordpool.txt	LTP063	ltpFR	5	4	-1	CAP	236	n/a	-1	1	1.0	1.0	upper	../fonts/Verdana.ttf
1000.542	n/a	REC_START	500271	n/a	LTP063	ltpFR	5	4	n/a	n/a	n/a	n/a	n/a	n/a	n/a	n/a	n/a	n/a
1002.158	n/a	REC_WORD	501079	wordpools/wasnorm_wordpool.txt	LTP063	ltpFR	5	4	-1	CAP	236	n/a	-1	n/a	n/a	n/a	n/a	n/a
1003.394	n/a	REC_WORD	501697	wordpools/wasnorm_wordpool.txt	LTP063	ltpFR	5	4	-1	HAT	690	n/a	-1	n/a	n/a	n/a	n/a	n/a
1005.73	n/a	REC_WORD	502865	wordpools/wasnorm_wordpool.txt	LTP063	ltpFR	5	4	-1	ROOT	1210	n/a	-1	n/a	n/a	n/a	n/a	n/a
1010.014	n/a	REC_WORD	505007	wordpools/wasnorm_wordpool.txt	LTP063	ltpFR	5	4	-1	CABIN	211	n/a	-1	n/a	n/a	n/a	n/a	n/a
1011.542	n/a	REC_WORD	505771	wordpools/wasnorm_wordpool.txt	LTP063	ltpFR	5	4	-1	ISLAND	745	n/a	-1	n/a	n/a	n/a	n/a	n/a
1012.934	n/a	REC_WORD	506467	wordpools/wasnorm_wordpool.txt	LTP063	ltpFR	5	4	-1	DIVER	476	n/a	-1	n/a	n/a	n/a	n/a	n/a
1016.814	n/a	REC_WORD	508407	wordpools/wasnorm_wordpool.txt	LTP063	ltpFR	5	4	-1	GREASE	660	n/a	-1	n/a	n/a	n/a	n/a	n/a
1018.046	n/a	REC_WORD	509023	wordpools/wasnorm_wordpool.txt	LTP063	ltpFR	5	4	-1	GANG	619	n/a	-1	n/a	n/a	n/a	n/a	n/a
1022.89	n/a	REC_WORD	511445	wordpools/wasnorm_wordpool.txt	LTP063	ltpFR	5	4	-1	ICING	732	n/a	-1	n/a	n/a	n/a	n/a	n/a
1024.232	n/a	REC_WORD	512116	wordpools/wasnorm_wordpool.txt	LTP063	ltpFR	5	4	-1	FLOUR	583	n/a	-1	n/a	n/a	n/a	n/a	n/a
1026.512	n/a	REC_WORD	513256	wordpools/wasnorm_wordpool.txt	LTP063	ltpFR	5	4	-1	BOXER	160	n/a	-1	n/a	n/a	n/a	n/a	n/a
1081.148	n/a	WORD	540574	wordpools/wasnorm_wordpool.txt	LTP063	ltpFR	5	5	-1	CHIPMUNK	304	n/a	-1	1	1.0	1.0	upper	../fonts/Verdana.ttf
1085.26	n/a	WORD	542630	wordpools/wasnorm_wordpool.txt	LTP063	ltpFR	5	5	-1	CASHEW	253	n/a	-1	1	1.0	1.0	upper	../fonts/Verdana.ttf
1089.306	n/a	WORD	544653	wordpools/wasnorm_wordpool.txt	LTP063	ltpFR	5	5	-1	ESCALATOR	539	n/a	-1	1	1.0	1.0	upper	../fonts/Verdana.ttf
1093.31	n/a	WORD	546655	wordpools/wasnorm_wordpool.txt	LTP063	ltpFR	5	5	-1	SERVANT	1271	n/a	-1	1	1.0	1.0	upper	../fonts/Verdana.ttf
1097.272	n/a	WORD	548636	wordpools/wasnorm_wordpool.txt	LTP063	ltpFR	5	5	-1	GENTLEMAN	631	n/a	-1	1	1.0	1.0	upper	../fonts/Verdana.ttf
1101.434	n/a	WORD	550717	wordpools/wasnorm_wordpool.txt	LTP063	ltpFR	5	5	-1	DRUG	501	n/a	-1	1	1.0	1.0	upper	../fonts/Verdana.ttf
1105.378	n/a	WORD	552689	wordpools/wasnorm_wordpool.txt	LTP063	ltpFR	5	5	-1	BRACELET	163	n/a	-1	1	1.0	1.0	upper	../fonts/Verdana.ttf
1109.458	n/a	WORD	554729	wordpools/wasnorm_wordpool.txt	LTP063	ltpFR	5	5	-1	CLIMBER	323	n/a	-1	1	1.0	1.0	upper	../fonts/Verdana.ttf
1113.412	n/a	WORD	556706	wordpools/wasnorm_wordpool.txt	LTP063	ltpFR	5	5	-1	WAITER	1580	n/a	-1	1	1.0	1.0	upper	../fonts/Verdana.ttf
1117.44	n/a	WORD	558720	wordpools/wasnorm_wordpool.txt	LTP063	ltpFR	5	5	-1	MISTER	901	n/a	-1	1	1.0	1.0	upper	../fonts/Verdana.ttf
1121.31	n/a	WORD	560655	wordpools/wasnorm_wordpool.txt	LTP063	ltpFR	5	5	-1	PEACH	1031	n/a	-1	1	1.0	1.0	upper	../fonts/Verdana.ttf
1125.156	n/a	WORD	562578	wordpools/wasnorm_wordpool.txt	LTP063	ltpFR	5	5	-1	KNAPSACK	783	n/a	-1	1	1.0	1.0	upper	../fonts/Verdana.ttf
1129.21	n/a	WORD	564605	wordpools/wasnorm_wordpool.txt	LTP063	ltpFR	5	5	-1	TOY	1492	n/a	-1	1	1.0	1.0	upper	../fonts/Verdana.ttf
1133.338	n/a	WORD	566669	wordpools/wasnorm_wordpool.txt	LTP063	ltpFR	5	5	-1	DELINQUENT	445	n/a	-1	1	1.0	1.0	upper	../fonts/Verdana.ttf
1137.258	n/a	WORD	568629	wordpools/wasnorm_wordpool.txt	LTP063	ltpFR	5	5	-1	FRUIT	610	n/a	-1	1	1.0	1.0	upper	../fonts/Verdana.ttf
1141.37	n/a	WORD	570685	wordpools/wasnorm_wordpool.txt	LTP063	ltpFR	5	5	-1	ORANGE	980	n/a	-1	1	1.0	1.0	upper	../fonts/Verdana.ttf
1147.098	n/a	REC_START	573549	n/a	LTP063	ltpFR	5	5	n/a	n/a	n/a	n/a	n/a	n/a	n/a	n/a	n/a	n/a
1149.578	n/a	REC_WORD	574789	wordpools/wasnorm_wordpool.txt	LTP063	ltpFR	5	5	-1	SERVANT	1271	n/a	-1	n/a	n/a	n/a	n/a	n/a
1150.954	n/a	REC_WORD	575477	wordpools/wasnorm_wordpool.txt	LTP063	ltpFR	5	5	-1	WAITER	1580	n/a	-1	n/a	n/a	n/a	n/a	n/a
1152.282	n/a	REC_WORD	576141	wordpools/wasnorm_wordpool.txt	LTP063	ltpFR	5	5	-1	GENTLEMAN	631	n/a	-1	n/a	n/a	n/a	n/a	n/a
1153.628	n/a	REC_WORD	576814	wordpools/wasnorm_wordpool.txt	LTP063	ltpFR	5	5	-1	MISTER	901	n/a	-1	n/a	n/a	n/a	n/a	n/a
1154.856	n/a	REC_WORD	577428	wordpools/wasnorm_wordpool.txt	LTP063	ltpFR	5	5	-1	DELINQUENT	445	n/a	-1	n/a	n/a	n/a	n/a	n/a
1157.632	n/a	REC_WORD	578816	wordpools/wasnorm_wordpool.txt	LTP063	ltpFR	5	5	-1	FRUIT	610	n/a	-1	n/a	n/a	n/a	n/a	n/a
1159.234	n/a	REC_WORD	579617	wordpools/wasnorm_wordpool.txt	LTP063	ltpFR	5	5	-1	PEACH	1031	n/a	-1	n/a	n/a	n/a	n/a	n/a
1161.142	n/a	REC_WORD	580571	wordpools/wasnorm_wordpool.txt	LTP063	ltpFR	5	5	-1	ORANGE	980	n/a	-1	n/a	n/a	n/a	n/a	n/a
1165.048	n/a	REC_WORD	582524	wordpools/wasnorm_wordpool.txt	LTP063	ltpFR	5	5	-1	CHIPMUNK	304	n/a	-1	n/a	n/a	n/a	n/a	n/a
1167.172	n/a	REC_WORD	583586	wordpools/wasnorm_wordpool.txt	LTP063	ltpFR	5	5	-1	CASHEW	253	n/a	-1	n/a	n/a	n/a	n/a	n/a
1169.108	n/a	REC_WORD	584554	wordpools/wasnorm_wordpool.txt	LTP063	ltpFR	5	5	-1	BRACELET	163	n/a	-1	n/a	n/a	n/a	n/a	n/a
1170.598	n/a	REC_WORD	585299	wordpools/wasnorm_wordpool.txt	LTP063	ltpFR	5	5	-1	DRUG	501	n/a	-1	n/a	n/a	n/a	n/a	n/a
1172.206	n/a	REC_WORD	586103	wordpools/wasnorm_wordpool.txt	LTP063	ltpFR	5	5	-1	ESCALATOR	539	n/a	-1	n/a	n/a	n/a	n/a	n/a
1178.722	n/a	REC_WORD	589361	wordpools/wasnorm_wordpool.txt	LTP063	ltpFR	5	5	-1	KNAPSACK	783	n/a	-1	n/a	n/a	n/a	n/a	n/a
1227.954	n/a	WORD	613977	wordpools/wasnorm_wordpool.txt	LTP063	ltpFR	5	6	-1	OBOE	969	n/a	-1	1	1.0	1.0	upper	../fonts/Verdana.ttf
1231.934	n/a	WORD	615967	wordpools/wasnorm_wordpool.txt	LTP063	ltpFR	5	6	-1	TAPE	1433	n/a	-1	1	1.0	1.0	upper	../fonts/Verdana.ttf
1235.746	n/a	WORD	617873	wordpools/wasnorm_wordpool.txt	LTP063	ltpFR	5	6	-1	BEER	114	n/a	-1	1	1.0	1.0	upper	../fonts/Verdana.ttf
1239.808	n/a	WORD	619904	wordpools/wasnorm_wordpool.txt	LTP063	ltpFR	5	6	-1	LIMOUSINE	824	n/a	-1	1	1.0	1.0	upper	../fonts/Verdana.ttf
1243.67	n/a	WORD	621835	wordpools/wasnorm_wordpool.txt	LTP063	ltpFR	5	6	-1	PAWN	1030	n/a	-1	1	1.0	1.0	upper	../fonts/Verdana.ttf
1247.84	n/a	WORD	623920	wordpools/wasnorm_wordpool.txt	LTP063	ltpFR	5	6	-1	SWAN	1417	n/a	-1	1	1.0	1.0	upper	../fonts/Verdana.ttf
1251.776	n/a	WORD	625888	wordpools/wasnorm_wordpool.txt	LTP063	ltpFR	5	6	-1	OLIVE	975	n/a	-1	1	1.0	1.0	upper	../fonts/Verdana.ttf
1255.622	n/a	WORD	627811	wordpools/wasnorm_wordpool.txt	LTP063	ltpFR	5	6	-1	DICTIONARY	463	n/a	-1	1	1.0	1.0	upper	../fonts/Verdana.ttf
1259.592	n/a	WORD	629796	wordpools/wasnorm_wordpool.txt	LTP063	ltpFR	5	6	-1	PEBBLE	1035	n/a	-1	1	1.0	1.0	upper	../fonts/Verdana.ttf
1263.78	n/a	WORD	631890	wordpools/wasnorm_wordpool.txt	LTP063	ltpFR	5	6	-1	DIAMOND	458	n/a	-1	1	1.0	1.0	upper	../fonts/Verdana.ttf
1267.784	n/a	WORD	633892	wordpools/wasnorm_wordpool.txt	LTP063	ltpFR	5	6	-1	LETTUCE	814	n/a	-1	1	1.0	1.0	upper	../fonts/Verdana.ttf
1271.886	n/a	WORD	635943	wordpools/wasnorm_wordpool.txt	LTP063	ltpFR	5	6	-1	CUCUMBER	421	n/a	-1	1	1.0	1.0	upper	../fonts/Verdana.ttf
1276.092	n/a	WORD	638046	wordpools/wasnorm_wordpool.txt	LTP063	ltpFR	5	6	-1	PARROT	1015	n/a	-1	1	1.0	1.0	upper	../fonts/Verdana.ttf
1280.06	n/a	WORD	640030	wordpools/wasnorm_wordpool.txt	LTP063	ltpFR	5	6	-1	MOTH	920	n/a	-1	1	1.0	1.0	upper	../fonts/Verdana.ttf
1283.99	n/a	WORD	641995	wordpools/wasnorm_wordpool.txt	LTP063	ltpFR	5	6	-1	VICTOR	1563	n/a	-1	1	1.0	1.0	upper	../fonts/Verdana.ttf
1287.91	n/a	WORD	643955	wordpools/wasnorm_wordpool.txt	LTP063	ltpFR	5	6	-1	PUB	1135	n/a	-1	1	1.0	1.0	upper	../fonts/Verdana.ttf
1293.612	n/a	REC_START	646806	n/a	LTP063	ltpFR	5	6	n/a	n/a	n/a	n/a	n/a	n/a	n/a	n/a	n/a	n/a
1295.59	n/a	REC_WORD	647795	wordpools/wasnorm_wordpool.txt	LTP063	ltpFR	5	6	-1	VICTOR	1563	n/a	-1	n/a	n/a	n/a	n/a	n/a
1296.944	n/a	REC_WORD	648472	wordpools/wasnorm_wordpool.txt	LTP063	ltpFR	5	6	-1	OBOE	969	n/a	-1	n/a	n/a	n/a	n/a	n/a
1299.808	n/a	REC_WORD	649904	wordpools/wasnorm_wordpool.txt	LTP063	ltpFR	5	6	-1	SWAN	1417	n/a	-1	n/a	n/a	n/a	n/a	n/a
1301.03	n/a	REC_WORD	650515	wordpools/wasnorm_wordpool.txt	LTP063	ltpFR	5	6	-1	LIMOUSINE	824	n/a	-1	n/a	n/a	n/a	n/a	n/a
1302.386	n/a	REC_WORD	651193	wordpools/wasnorm_wordpool.txt	LTP063	ltpFR	5	6	-1	PUB	1135	n/a	-1	n/a	n/a	n/a	n/a	n/a
1303.73	n/a	REC_WORD	651865	wordpools/wasnorm_wordpool.txt	LTP063	ltpFR	5	6	-1	BEER	114	n/a	-1	n/a	n/a	n/a	n/a	n/a
1306.014	n/a	REC_WORD	653007	wordpools/wasnorm_wordpool.txt	LTP063	ltpFR	5	6	-1	PARROT	1015	n/a	-1	n/a	n/a	n/a	n/a	n/a
1308.938	n/a	REC_WORD	654469	wordpools/wasnorm_wordpool.txt	LTP063	ltpFR	5	6	-1	MOTH	920	n/a	-1	n/a	n/a	n/a	n/a	n/a
1311.568	n/a	REC_WORD	655784	wordpools/wasnorm_wordpool.txt	LTP063	ltpFR	5	6	-1	PEBBLE	1035	n/a	-1	n/a	n/a	n/a	n/a	n/a
1313.168	n/a	REC_WORD	656584	wordpools/wasnorm_wordpool.txt	LTP063	ltpFR	5	6	-1	DIAMOND	458	n/a	-1	n/a	n/a	n/a	n/a	n/a
1314.856	n/a	REC_WORD	657428	wordpools/wasnorm_wordpool.txt	LTP063	ltpFR	5	6	-1	LETTUCE	814	n/a	-1	n/a	n/a	n/a	n/a	n/a
1318.112	n/a	REC_WORD	659056	wordpools/wasnorm_wordpool.txt	LTP063	ltpFR	5	6	-1	CUCUMBER	421	n/a	-1	n/a	n/a	n/a	n/a	n/a
1327.896	n/a	REC_WORD	663948	wordpools/wasnorm_wordpool.txt	LTP063	ltpFR	5	6	-1	OLIVE	975	n/a	-1	n/a	n/a	n/a	n/a	n/a
1333.592	n/a	REC_WORD	666796	wordpools/wasnorm_wordpool.txt	LTP063	ltpFR	5	6	-1	DIAMOND	458	n/a	-1	n/a	n/a	n/a	n/a	n/a
1333.598	n/a	REC_WORD	666799	wordpools/wasnorm_wordpool.txt	LTP063	ltpFR	5	6	-1	TAPE	1433	n/a	-1	n/a	n/a	n/a	n/a	n/a
1374.768	n/a	WORD	687384	wordpools/wasnorm_wordpool.txt	LTP063	ltpFR	5	7	0	BRICK	172	n/a	1	1	0.412841796875	0.57763671875	upper	../fonts/amplitud.ttf
1378.906	n/a	WORD	689453	wordpools/wasnorm_wordpool.txt	LTP063	ltpFR	5	7	0	TIGER	1467	n/a	1	1	0.412841796875	0.57763671875	upper	../fonts/amplitud.ttf
1382.718	n/a	WORD	691359	wordpools/wasnorm_wordpool.txt	LTP063	ltpFR	5	7	0	SEAFOOD	1260	n/a	0	1	0.412841796875	0.57763671875	upper	../fonts/amplitud.ttf
1386.554	n/a	WORD	693277	wordpools/wasnorm_wordpool.txt	LTP063	ltpFR	5	7	0	SALMON	1227	n/a	0	1	0.412841796875	0.57763671875	upper	../fonts/amplitud.ttf
1390.716	n/a	WORD	695358	wordpools/wasnorm_wordpool.txt	LTP063	ltpFR	5	7	0	LIMB	822	n/a	1	1	0.412841796875	0.57763671875	upper	../fonts/amplitud.ttf
1394.588	n/a	WORD	697294	wordpools/wasnorm_wordpool.txt	LTP063	ltpFR	5	7	0	LEAF	808	n/a	0	1	0.412841796875	0.57763671875	upper	../fonts/amplitud.ttf
1398.452	n/a	WORD	699226	wordpools/wasnorm_wordpool.txt	LTP063	ltpFR	5	7	1	TROUT	1511	n/a	1	0	0.5869140625	0.422607421875	lower	../fonts/zerothre.ttf
1402.406	n/a	WORD	701203	wordpools/wasnorm_wordpool.txt	LTP063	ltpFR	5	7	1	CRITIC	410	n/a	1	0	0.5869140625	0.422607421875	lower	../fonts/zerothre.ttf
1406.426	n/a	WORD	703213	wordpools/wasnorm_wordpool.txt	LTP063	ltpFR	5	7	1	PORCH	1106	n/a	0	0	0.5869140625	0.422607421875	lower	../fonts/zerothre.ttf
1410.346	n/a	WORD	705173	wordpools/wasnorm_wordpool.txt	LTP063	ltpFR	5	7	0	COACH	331	n/a	1	1	0.412841796875	0.57763671875	upper	../fonts/amplitud.ttf
1414.274	n/a	WORD	707137	wordpools/wasnorm_wordpool.txt	LTP063	ltpFR	5	7	0	PUPIL	1143	n/a	0	1	0.412841796875	0.57763671875	upper	../fonts/amplitud.ttf
1418.328	n/a	WORD	709164	wordpools/wasnorm_wordpool.txt	LTP063	ltpFR	5	7	1	BUN	197	n/a	0	0	0.5869140625	0.422607421875	lower	../fonts/zerothre.ttf
1422.348	n/a	WORD	711174	wordpools/wasnorm_wordpool.txt	LTP063	ltpFR	5	7	1	MERMAID	887	n/a	0	0	0.5869140625	0.422607421875	lower	../fonts/zerothre.ttf
1426.452	n/a	WORD	713226	wordpools/wasnorm_wordpool.txt	LTP063	ltpFR	5	7	1	CREATURE	403	n/a	1	0	0.5869140625	0.422607421875	lower	../fonts/zerothre.ttf
1430.264	n/a	WORD	715132	wordpools/wasnorm_wordpool.txt	LTP063	ltpFR	5	7	1	RELISH	1183	n/a	0	0	0.5869140625	0.422607421875	lower	../fonts/zerothre.ttf
1434.426	n/a	WORD	717213	wordpools/wasnorm_wordpool.txt	LTP063	ltpFR	5	7	1	GOAT	644	n/a	1	0	0.5869140625	0.422607421875	lower	../fonts/zerothre.ttf
1440.088	n/a	REC_START	720044	n/a	LTP063	ltpFR	5	7	n/a	n/a	n/a	n/a	n/a	n/a	n/a	n/a	n/a	n/a
1441.658	n/a	REC_WORD	720829	wordpools/wasnorm_wordpool.txt	LTP063	ltpFR	5	7	1	GOAT	644	n/a	1	n/a	n/a	n/a	n/a	n/a
1442.722	n/a	REC_WORD	721361	wordpools/wasnorm_wordpool.txt	LTP063	ltpFR	5	7	1	MERMAID	887	n/a	0	n/a	n/a	n/a	n/a	n/a
1444.064	n/a	REC_WORD	722032	wordpools/wasnorm_wordpool.txt	LTP063	ltpFR	5	7	1	CREATURE	403	n/a	1	n/a	n/a	n/a	n/a	n/a
1446.468	n/a	REC_WORD	723234	wordpools/wasnorm_wordpool.txt	LTP063	ltpFR	5	7	1	TROUT	1511	n/a	1	n/a	n/a	n/a	n/a	n/a
1447.562	n/a	REC_WORD	723781	wordpools/wasnorm_wordpool.txt	LTP063	ltpFR	5	7	0	SALMON	1227	n/a	0	n/a	n/a	n/a	n/a	n/a
1449.082	n/a	REC_WORD	724541	wordpools/wasnorm_wordpool.txt	LTP063	ltpFR	5	7	0	LEAF	808	n/a	0	n/a	n/a	n/a	n/a	n/a
1455.004	n/a	REC_WORD	727502	wordpools/wasnorm_wordpool.txt	LTP063	ltpFR	5	7	0	TIGER	1467	n/a	1	n/a	n/a	n/a	n/a	n/a
1484.67	n/a	REC_WORD	742335	wordpools/wasnorm_wordpool.txt	LTP063	ltpFR	5	7	0	PUPIL	1143	n/a	0	n/a	n/a	n/a	n/a	n/a
1500.494	n/a	REC_WORD	750247	wordpools/wasnorm_wordpool.txt	LTP063	ltpFR	5	7	0	LIMB	822	n/a	1	n/a	n/a	n/a	n/a	n/a
1518.146	n/a	WORD	759073	wordpools/wasnorm_wordpool.txt	LTP063	ltpFR	5	8	1	PLANT	1083	n/a	1	0	0.5869140625	0.422607421875	lower	../fonts/zerothre.ttf
1522.024	n/a	WORD	761012	wordpools/wasnorm_wordpool.txt	LTP063	ltpFR	5	8	1	SEED	1266	n/a	1	0	0.5869140625	0.422607421875	lower	../fonts/zerothre.ttf
1526.138	n/a	WORD	763069	wordpools/wasnorm_wordpool.txt	LTP063	ltpFR	5	8	1	CRAB	397	n/a	1	0	0.5869140625	0.422607421875	lower	../fonts/zerothre.ttf
1530.066	n/a	WORD	765033	wordpools/wasnorm_wordpool.txt	LTP063	ltpFR	5	8	0	GUARDIAN	668	n/a	1	1	0.412841796875	0.57763671875	upper	../fonts/amplitud.ttf
1534.096	n/a	WORD	767048	wordpools/wasnorm_wordpool.txt	LTP063	ltpFR	5	8	0	UTENSIL	1542	n/a	0	1	0.412841796875	0.57763671875	upper	../fonts/amplitud.ttf
1538.306	n/a	WORD	769153	wordpools/wasnorm_wordpool.txt	LTP063	ltpFR	5	8	1	GARBAGE	622	n/a	0	0	0.5869140625	0.422607421875	lower	../fonts/zerothre.ttf
1542.178	n/a	WORD	771089	wordpools/wasnorm_wordpool.txt	LTP063	ltpFR	5	8	1	CLAM	315	n/a	1	0	0.5869140625	0.422607421875	lower	../fonts/zerothre.ttf
1546.248	n/a	WORD	773124	wordpools/wasnorm_wordpool.txt	LTP063	ltpFR	5	8	1	ANGEL	22	n/a	0	0	0.5869140625	0.422607421875	lower	../fonts/zerothre.ttf
1550.152	n/a	WORD	775076	wordpools/wasnorm_wordpool.txt	LTP063	ltpFR	5	8	1	APPENDAGE	32	n/a	1	0	0.5869140625	0.422607421875	lower	../fonts/zerothre.ttf
1554.288	n/a	WORD	777144	wordpools/wasnorm_wordpool.txt	LTP063	ltpFR	5	8	1	CHECKERS	285	n/a	0	0	0.5869140625	0.422607421875	lower	../fonts/zerothre.ttf
1558.168	n/a	WORD	779084	wordpools/wasnorm_wordpool.txt	LTP063	ltpFR	5	8	0	REFEREE	1178	n/a	1	1	0.412841796875	0.57763671875	upper	../fonts/amplitud.ttf
1562.288	n/a	WORD	781144	wordpools/wasnorm_wordpool.txt	LTP063	ltpFR	5	8	0	COUNTRY	388	n/a	1	1	0.412841796875	0.57763671875	upper	../fonts/amplitud.ttf
1566.368	n/a	WORD	783184	wordpools/wasnorm_wordpool.txt	LTP063	ltpFR	5	8	0	DISH	474	n/a	0	1	0.412841796875	0.57763671875	upper	../fonts/amplitud.ttf
1570.22	n/a	WORD	785110	wordpools/wasnorm_wordpool.txt	LTP063	ltpFR	5	8	0	VEST	1559	n/a	0	1	0.412841796875	0.57763671875	upper	../fonts/amplitud.ttf
1574.424	n/a	WORD	787212	wordpools/wasnorm_wordpool.txt	LTP063	ltpFR	5	8	0	VAGRANT	1544	n/a	1	1	0.412841796875	0.57763671875	upper	../fonts/amplitud.ttf
1578.244	n/a	WORD	789122	wordpools/wasnorm_wordpool.txt	LTP063	ltpFR	5	8	0	RECIPE	1175	n/a	0	1	0.412841796875	0.57763671875	upper	../fonts/amplitud.ttf
1584.088	n/a	REC_START	792044	n/a	LTP063	ltpFR	5	8	n/a	n/a	n/a	n/a	n/a	n/a	n/a	n/a	n/a	n/a
1586.048	n/a	REC_WORD	793024	wordpools/wasnorm_wordpool.txt	LTP063	ltpFR	5	8	0	VAGRANT	1544	n/a	1	n/a	n/a	n/a	n/a	n/a
1587.596	n/a	REC_WORD	793798	wordpools/wasnorm_wordpool.txt	LTP063	ltpFR	5	8	0	RECIPE	1175	n/a	0	n/a	n/a	n/a	n/a	n/a
1589.336	n/a	REC_WORD	794668	wordpools/wasnorm_wordpool.txt	LTP063	ltpFR	5	8	1	APPENDAGE	32	n/a	1	n/a	n/a	n/a	n/a	n/a
1591.652	n/a	REC_WORD	795826	wordpools/wasnorm_wordpool.txt	LTP063	ltpFR	5	8	1	CRAB	397	n/a	1	n/a	n/a	n/a	n/a	n/a
1592.934	n/a	REC_WORD	796467	wordpools/wasnorm_wordpool.txt	LTP063	ltpFR	5	8	1	CLAM	315	n/a	1	n/a	n/a	n/a	n/a	n/a
1667.066	n/a	WORD	833533	wordpools/wasnorm_wordpool.txt	LTP063	ltpFR	5	9	1	LIP	828	n/a	1	0	0.5869140625	0.422607421875	lower	../fonts/zerothre.ttf
1670.938	n/a	WORD	835469	wordpools/wasnorm_wordpool.txt	LTP063	ltpFR	5	9	1	FLASHLIGHT	575	n/a	0	0	0.5869140625	0.422607421875	lower	../fonts/zerothre.ttf
1675.1	n/a	WORD	837550	wordpools/wasnorm_wordpool.txt	LTP063	ltpFR	5	9	1	ASSISTANT	48	n/a	1	0	0.5869140625	0.422607421875	lower	../fonts/zerothre.ttf
1678.928	n/a	WORD	839464	wordpools/wasnorm_wordpool.txt	LTP063	ltpFR	5	9	1	EMPLOYEE	531	n/a	1	0	0.5869140625	0.422607421875	lower	../fonts/zerothre.ttf
1683.024	n/a	WORD	841512	wordpools/wasnorm_wordpool.txt	LTP063	ltpFR	5	9	1	CHAIN	273	n/a	0	0	0.5869140625	0.422607421875	lower	../fonts/zerothre.ttf
1687.162	n/a	WORD	843581	wordpools/wasnorm_wordpool.txt	LTP063	ltpFR	5	9	1	DESIGNER	451	n/a	1	0	0.5869140625	0.422607421875	lower	../fonts/zerothre.ttf
1691.174	n/a	WORD	845587	wordpools/wasnorm_wordpool.txt	LTP063	ltpFR	5	9	1	HORNET	718	n/a	1	0	0.5869140625	0.422607421875	lower	../fonts/zerothre.ttf
1695.06	n/a	WORD	847530	wordpools/wasnorm_wordpool.txt	LTP063	ltpFR	5	9	1	GANGSTER	620	n/a	1	0	0.5869140625	0.422607421875	lower	../fonts/zerothre.ttf
1699.106	n/a	WORD	849553	wordpools/wasnorm_wordpool.txt	LTP063	ltpFR	5	9	1	PEARL	1034	n/a	0	0	0.5869140625	0.422607421875	lower	../fonts/zerothre.ttf
1703.026	n/a	WORD	851513	wordpools/wasnorm_wordpool.txt	LTP063	ltpFR	5	9	1	DRAWER	493	n/a	0	0	0.5869140625	0.422607421875	lower	../fonts/zerothre.ttf
1707.212	n/a	WORD	853606	wordpools/wasnorm_wordpool.txt	LTP063	ltpFR	5	9	1	STRAWBERRY	1391	n/a	1	0	0.5869140625	0.422607421875	lower	../fonts/zerothre.ttf
1711.166	n/a	WORD	855583	wordpools/wasnorm_wordpool.txt	LTP063	ltpFR	5	9	1	GRAPE	654	n/a	1	0	0.5869140625	0.422607421875	lower	../fonts/zerothre.ttf
1715.312	n/a	WORD	857656	wordpools/wasnorm_wordpool.txt	LTP063	ltpFR	5	9	1	MOSQUITO	917	n/a	1	0	0.5869140625	0.422607421875	lower	../fonts/zerothre.ttf
1719.466	n/a	WORD	859733	wordpools/wasnorm_wordpool.txt	LTP063	ltpFR	5	9	1	VICTIM	1562	n/a	1	0	0.5869140625	0.422607421875	lower	../fonts/zerothre.ttf
1723.52	n/a	WORD	861760	wordpools/wasnorm_wordpool.txt	LTP063	ltpFR	5	9	1	VIDEO	1564	n/a	0	0	0.5869140625	0.422607421875	lower	../fonts/zerothre.ttf
1727.498	n/a	WORD	863749	wordpools/wasnorm_wordpool.txt	LTP063	ltpFR	5	9	1	PRODUCER	1129	n/a	1	0	0.5869140625	0.422607421875	lower	../fonts/zerothre.ttf
1733.392	n/a	REC_START	866696	n/a	LTP063	ltpFR	5	9	n/a	n/a	n/a	n/a	n/a	n/a	n/a	n/a	n/a	n/a
1734.286	n/a	REC_WORD	867143	wordpools/wasnorm_wordpool.txt	LTP063	ltpFR	5	9	1	PRODUCER	1129	n/a	1	n/a	n/a	n/a	n/a	n/a
1735.324	n/a	REC_WORD	867662	wordpools/wasnorm_wordpool.txt	LTP063	ltpFR	5	9	1	VICTIM	1562	n/a	1	n/a	n/a	n/a	n/a	n/a
1736.802	n/a	REC_WORD	868401	wordpools/wasnorm_wordpool.txt	LTP063	ltpFR	5	9	1	EMPLOYEE	531	n/a	1	n/a	n/a	n/a	n/a	n/a
1738.176	n/a	REC_WORD	869088	wordpools/wasnorm_wordpool.txt	LTP063	ltpFR	5	9	1	ASSISTANT	48	n/a	1	n/a	n/a	n/a	n/a	n/a
1740.206	n/a	REC_WORD	870103	wordpools/wasnorm_wordpool.txt	LTP063	ltpFR	5	9	1	DESIGNER	451	n/a	1	n/a	n/a	n/a	n/a	n/a
1744.876	n/a	REC_WORD	872438	wordpools/wasnorm_wordpool.txt	LTP063	ltpFR	5	9	1	LIP	828	n/a	1	n/a	n/a	n/a	n/a	n/a
1745.776	n/a	REC_WORD	872888	wordpools/wasnorm_wordpool.txt	LTP063	ltpFR	5	9	1	FLASHLIGHT	575	n/a	0	n/a	n/a	n/a	n/a	n/a
1766.672	n/a	REC_WORD	883336	wordpools/wasnorm_wordpool.txt	LTP063	ltpFR	5	9	1	VIDEO	1564	n/a	0	n/a	n/a	n/a	n/a	n/a
1811.66	n/a	WORD	905830	wordpools/wasnorm_wordpool.txt	LTP063	ltpFR	5	10	0	WALL	1582	n/a	1	1	0.412841796875	0.57763671875	upper	../fonts/amplitud.ttf
1815.68	n/a	WORD	907840	wordpools/wasnorm_wordpool.txt	LTP063	ltpFR	5	10	0	WASP	1593	n/a	1	1	0.412841796875	0.57763671875	upper	../fonts/amplitud.ttf
1819.51	n/a	WORD	909755	wordpools/wasnorm_wordpool.txt	LTP063	ltpFR	5	10	0	RUST	1219	n/a	1	1	0.412841796875	0.57763671875	upper	../fonts/amplitud.ttf
1823.554	n/a	WORD	911777	wordpools/wasnorm_wordpool.txt	LTP063	ltpFR	5	10	1	DRIVER	499	n/a	1	0	0.5869140625	0.422607421875	lower	../fonts/zerothre.ttf
1827.632	n/a	WORD	913816	wordpools/wasnorm_wordpool.txt	LTP063	ltpFR	5	10	1	UNIFORM	1539	n/a	0	0	0.5869140625	0.422607421875	lower	../fonts/zerothre.ttf
1831.47	n/a	WORD	915735	wordpools/wasnorm_wordpool.txt	LTP063	ltpFR	5	10	1	DAUGHTER	442	n/a	1	0	0.5869140625	0.422607421875	lower	../fonts/zerothre.ttf
1835.416	n/a	WORD	917708	wordpools/wasnorm_wordpool.txt	LTP063	ltpFR	5	10	1	BEE	112	n/a	1	0	0.5869140625	0.422607421875	lower	../fonts/zerothre.ttf
1839.412	n/a	WORD	919706	wordpools/wasnorm_wordpool.txt	LTP063	ltpFR	5	10	1	FLESH	579	n/a	1	0	0.5869140625	0.422607421875	lower	../fonts/zerothre.ttf
1843.614	n/a	WORD	921807	wordpools/wasnorm_wordpool.txt	LTP063	ltpFR	5	10	0	TRACTOR	1493	n/a	1	1	0.412841796875	0.57763671875	upper	../fonts/amplitud.ttf
1847.518	n/a	WORD	923759	wordpools/wasnorm_wordpool.txt	LTP063	ltpFR	5	10	0	HELMET	702	n/a	1	1	0.412841796875	0.57763671875	upper	../fonts/amplitud.ttf
1851.432	n/a	WORD	925716	wordpools/wasnorm_wordpool.txt	LTP063	ltpFR	5	10	1	MOTORCYCLE	923	n/a	0	0	0.5869140625	0.422607421875	lower	../fonts/zerothre.ttf
1855.394	n/a	WORD	927697	wordpools/wasnorm_wordpool.txt	LTP063	ltpFR	5	10	1	POLICE	1098	n/a	1	0	0.5869140625	0.422607421875	lower	../fonts/zerothre.ttf
1859.222	n/a	WORD	929611	wordpools/wasnorm_wordpool.txt	LTP063	ltpFR	5	10	1	CACTUS	215	n/a	1	0	0.5869140625	0.422607421875	lower	../fonts/zerothre.ttf
1863.392	n/a	WORD	931696	wordpools/wasnorm_wordpool.txt	LTP063	ltpFR	5	10	0	PITCHFORK	1078	n/a	1	1	0.412841796875	0.57763671875	upper	../fonts/amplitud.ttf
1867.304	n/a	WORD	933652	wordpools/wasnorm_wordpool.txt	LTP063	ltpFR	5	10	0	CLOVE	329	n/a	0	1	0.412841796875	0.57763671875	upper	../fonts/amplitud.ttf
1871.392	n/a	WORD	935696	wordpools/wasnorm_wordpool.txt	LTP063	ltpFR	5	10	0	RELATIVE	1182	n/a	1	1	0.412841796875	0.57763671875	upper	../fonts/amplitud.ttf
1877.17	n/a	REC_START	938585	n/a	LTP063	ltpFR	5	10	n/a	n/a	n/a	n/a	n/a	n/a	n/a	n/a	n/a	n/a
1878.092	n/a	REC_WORD	939046	wordpools/wasnorm_wordpool.txt	LTP063	ltpFR	5	10	0	RELATIVE	1182	n/a	1	n/a	n/a	n/a	n/a	n/a
1879.518	n/a	REC_WORD	939759	wordpools/wasnorm_wordpool.txt	LTP063	ltpFR	5	10	1	POLICE	1098	n/a	1	n/a	n/a	n/a	n/a	n/a
1881.512	n/a	REC_WORD	940756	wordpools/wasnorm_wordpool.txt	LTP063	ltpFR	5	10	0	CLOVE	329	n/a	0	n/a	n/a	n/a	n/a	n/a
1898.646	n/a	REC_WORD	949323	wordpools/wasnorm_wordpool.txt	LTP063	ltpFR	5	10	1	MOTORCYCLE	923	n/a	0	n/a	n/a	n/a	n/a	n/a
1904.792	n/a	REC_WORD	952396	wordpools/wasnorm_wordpool.txt	LTP063	ltpFR	5	10	0	WALL	1582	n/a	1	n/a	n/a	n/a	n/a	n/a
1908.52	n/a	REC_WORD	954260	wordpools/wasnorm_wordpool.txt	LTP063	ltpFR	5	10	0	WASP	1593	n/a	1	n/a	n/a	n/a	n/a	n/a
1909.96	n/a	REC_WORD	954980	wordpools/wasnorm_wordpool.txt	LTP063	ltpFR	5	10	1	BEE	112	n/a	1	n/a	n/a	n/a	n/a	n/a
1913.118	n/a	REC_WORD	956559	wordpools/wasnorm_wordpool.txt	LTP063	ltpFR	5	10	0	RUST	1219	n/a	1	n/a	n/a	n/a	n/a	n/a
1962.786	n/a	WORD	981393	wordpools/wasnorm_wordpool.txt	LTP063	ltpFR	5	11	1	ASTRONAUT	51	n/a	1	0	0.5869140625	0.422607421875	lower	../fonts/zerothre.ttf
1966.964	n/a	WORD	983482	wordpools/wasnorm_wordpool.txt	LTP063	ltpFR	5	11	1	SUN	1406	n/a	0	0	0.5869140625	0.422607421875	lower	../fonts/zerothre.ttf
1971.094	n/a	WORD	985547	wordpools/wasnorm_wordpool.txt	LTP063	ltpFR	5	11	1	TELEPHONE	1445	n/a	0	0	0.5869140625	0.422607421875	lower	../fonts/zerothre.ttf
1975.164	n/a	WORD	987582	wordpools/wasnorm_wordpool.txt	LTP063	ltpFR	5	11	1	FORT	595	n/a	0	0	0.5869140625	0.422607421875	lower	../fonts/zerothre.ttf
1979.068	n/a	WORD	989534	wordpools/wasnorm_wordpool.txt	LTP063	ltpFR	5	11	1	CAVE	263	n/a	0	0	0.5869140625	0.422607421875	lower	../fonts/zerothre.ttf
1983.23	n/a	WORD	991615	wordpools/wasnorm_wordpool.txt	LTP063	ltpFR	5	11	1	NOSE	957	n/a	1	0	0.5869140625	0.422607421875	lower	../fonts/zerothre.ttf
1987.1	n/a	WORD	993550	wordpools/wasnorm_wordpool.txt	LTP063	ltpFR	5	11	1	FACE	547	n/a	1	0	0.5869140625	0.422607421875	lower	../fonts/zerothre.ttf
1991.304	n/a	WORD	995652	wordpools/wasnorm_wordpool.txt	LTP063	ltpFR	5	11	1	RICE	1190	n/a	0	0	0.5869140625	0.422607421875	lower	../fonts/zerothre.ttf
1995.2	n/a	WORD	997600	wordpools/wasnorm_wordpool.txt	LTP063	ltpFR	5	11	1	PROFESSIONAL	1130	n/a	1	0	0.5869140625	0.422607421875	lower	../fonts/zerothre.ttf
1999.212	n/a	WORD	999606	wordpools/wasnorm_wordpool.txt	LTP063	ltpFR	5	11	1	DIAL	457	n/a	0	0	0.5869140625	0.422607421875	lower	../fonts/zerothre.ttf
2003.398	n/a	WORD	1001699	wordpools/wasnorm_wordpool.txt	LTP063	ltpFR	5	11	1	SAILOR	1223	n/a	1	0	0.5869140625	0.422607421875	lower	../fonts/zerothre.ttf
2007.518	n/a	WORD	1003759	wordpools/wasnorm_wordpool.txt	LTP063	ltpFR	5	11	1	RAFT	1159	n/a	0	0	0.5869140625	0.422607421875	lower	../fonts/zerothre.ttf
2011.43	n/a	WORD	1005715	wordpools/wasnorm_wordpool.txt	LTP063	ltpFR	5	11	1	PADDLE	1000	n/a	0	0	0.5869140625	0.422607421875	lower	../fonts/zerothre.ttf
2015.518	n/a	WORD	1007759	wordpools/wasnorm_wordpool.txt	LTP063	ltpFR	5	11	1	KANGAROO	768	n/a	0	0	0.5869140625	0.422607421875	lower	../fonts/zerothre.ttf
2019.646	n/a	WORD	1009823	wordpools/wasnorm_wordpool.txt	LTP063	ltpFR	5	11	1	INCENSE	735	n/a	0	0	0.5869140625	0.422607421875	lower	../fonts/zerothre.ttf
2023.766	n/a	WORD	1011883	wordpools/wasnorm_wordpool.txt	LTP063	ltpFR	5	11	1	GRILL	661	n/a	0	0	0.5869140625	0.422607421875	lower	../fonts/zerothre.ttf
2029.742	n/a	REC_START	1014871	n/a	LTP063	ltpFR	5	11	n/a	n/a	n/a	n/a	n/a	n/a	n/a	n/a	n/a	n/a
2031.106	n/a	REC_WORD	1015553	wordpools/wasnorm_wordpool.txt	LTP063	ltpFR	5	11	1	PROFESSIONAL	1130	n/a	1	n/a	n/a	n/a	n/a	n/a
2032.606	n/a	REC_WORD	1016303	wordpools/wasnorm_wordpool.txt	LTP063	ltpFR	5	11	1	ASTRONAUT	51	n/a	1	n/a	n/a	n/a	n/a	n/a
2035.546	n/a	REC_WORD	1017773	wordpools/wasnorm_wordpool.txt	LTP063	ltpFR	5	11	1	SUN	1406	n/a	0	n/a	n/a	n/a	n/a	n/a
2037.156	n/a	REC_WORD	1018578	wordpools/wasnorm_wordpool.txt	LTP063	ltpFR	5	11	1	FACE	547	n/a	1	n/a	n/a	n/a	n/a	n/a
2038.518	n/a	REC_WORD	1019259	wordpools/wasnorm_wordpool.txt	LTP063	ltpFR	5	11	1	NOSE	957	n/a	1	n/a	n/a	n/a	n/a	n/a
2043.732	n/a	REC_WORD	1021866	wordpools/wasnorm_wordpool.txt	LTP063	ltpFR	5	11	1	RAFT	1159	n/a	0	n/a	n/a	n/a	n/a	n/a
2044.928	n/a	REC_WORD	1022464	wordpools/wasnorm_wordpool.txt	LTP063	ltpFR	5	11	1	PADDLE	1000	n/a	0	n/a	n/a	n/a	n/a	n/a
2048.138	n/a	REC_WORD	1024069	wordpools/wasnorm_wordpool.txt	LTP063	ltpFR	5	11	1	GRILL	661	n/a	0	n/a	n/a	n/a	n/a	n/a
2049.12	n/a	REC_WORD	1024560	wordpools/wasnorm_wordpool.txt	LTP063	ltpFR	5	11	1	KANGAROO	768	n/a	0	n/a	n/a	n/a	n/a	n/a
2063.516	n/a	REC_WORD	1031758	wordpools/wasnorm_wordpool.txt	LTP063	ltpFR	5	11	1	TELEPHONE	1445	n/a	0	n/a	n/a	n/a	n/a	n/a
2064.888	n/a	REC_WORD	1032444	wordpools/wasnorm_wordpool.txt	LTP063	ltpFR	5	11	1	DIAL	457	n/a	0	n/a	n/a	n/a	n/a	n/a
2099.382	n/a	REC_WORD	1049691	wordpools/wasnorm_wordpool.txt	LTP063	ltpFR	5	11	1	FORT	595	n/a	0	n/a	n/a	n/a	n/a	n/a
2103.46	n/a	REC_WORD	1051730	wordpools/wasnorm_wordpool.txt	LTP063	ltpFR	5	11	1	CAVE	263	n/a	0	n/a	n/a	n/a	n/a	n/a
2107.944	n/a	WORD	1053972	wordpools/wasnorm_wordpool.txt	LTP063	ltpFR	5	12	1	WIRE	1616	n/a	0	0	0.5869140625	0.422607421875	lower	../fonts/zerothre.ttf
2112.022	n/a	WORD	1056011	wordpools/wasnorm_wordpool.txt	LTP063	ltpFR	5	12	1	FLY	586	n/a	1	0	0.5869140625	0.422607421875	lower	../fonts/zerothre.ttf
2116.144	n/a	WORD	1058072	wordpools/wasnorm_wordpool.txt	LTP063	ltpFR	5	12	1	NURSE	963	n/a	1	0	0.5869140625	0.422607421875	lower	../fonts/zerothre.ttf
2119.98	n/a	WORD	1059990	wordpools/wasnorm_wordpool.txt	LTP063	ltpFR	5	12	1	VEHICLE	1553	n/a	0	0	0.5869140625	0.422607421875	lower	../fonts/zerothre.ttf
2124.058	n/a	WORD	1062029	wordpools/wasnorm_wordpool.txt	LTP063	ltpFR	5	12	0	AUTOMOBILE	62	n/a	1	1	0.412841796875	0.57763671875	upper	../fonts/amplitud.ttf
2128.214	n/a	WORD	1064107	wordpools/wasnorm_wordpool.txt	LTP063	ltpFR	5	12	0	ANTELOPE	27	n/a	1	1	0.412841796875	0.57763671875	upper	../fonts/amplitud.ttf
2132.116	n/a	WORD	1066058	wordpools/wasnorm_wordpool.txt	LTP063	ltpFR	5	12	0	MAMMAL	861	n/a	1	1	0.412841796875	0.57763671875	upper	../fonts/amplitud.ttf
2135.962	n/a	WORD	1067981	wordpools/wasnorm_wordpool.txt	LTP063	ltpFR	5	12	0	CART	250	n/a	1	1	0.412841796875	0.57763671875	upper	../fonts/amplitud.ttf
2139.774	n/a	WORD	1069887	wordpools/wasnorm_wordpool.txt	LTP063	ltpFR	5	12	1	PIER	1063	n/a	0	0	0.5869140625	0.422607421875	lower	../fonts/zerothre.ttf
2143.746	n/a	WORD	1071873	wordpools/wasnorm_wordpool.txt	LTP063	ltpFR	5	12	1	TURKEY	1520	n/a	1	0	0.5869140625	0.422607421875	lower	../fonts/zerothre.ttf
2147.658	n/a	WORD	1073829	wordpools/wasnorm_wordpool.txt	LTP063	ltpFR	5	12	0	VEAL	1551	n/a	0	1	0.412841796875	0.57763671875	upper	../fonts/amplitud.ttf
2151.678	n/a	WORD	1075839	wordpools/wasnorm_wordpool.txt	LTP063	ltpFR	5	12	0	CATERPILLAR	259	n/a	0	1	0.412841796875	0.57763671875	upper	../fonts/amplitud.ttf
2155.848	n/a	WORD	1077924	wordpools/wasnorm_wordpool.txt	LTP063	ltpFR	5	12	0	COD	340	n/a	0	1	0.412841796875	0.57763671875	upper	../fonts/amplitud.ttf
2159.826	n/a	WORD	1079913	wordpools/wasnorm_wordpool.txt	LTP063	ltpFR	5	12	0	WAND	1586	n/a	0	1	0.412841796875	0.57763671875	upper	../fonts/amplitud.ttf
2163.648	n/a	WORD	1081824	wordpools/wasnorm_wordpool.txt	LTP063	ltpFR	5	12	1	STEREO	1378	n/a	0	0	0.5869140625	0.422607421875	lower	../fonts/zerothre.ttf
2167.46	n/a	WORD	1083730	wordpools/wasnorm_wordpool.txt	LTP063	ltpFR	5	12	1	BOOTH	151	n/a	0	0	0.5869140625	0.422607421875	lower	../fonts/zerothre.ttf
2173.48	n/a	REC_START	1086740	n/a	LTP063	ltpFR	5	12	n/a	n/a	n/a	n/a	n/a	n/a	n/a	n/a	n/a	n/a
2177.47	n/a	REC_WORD	1088735	wordpools/wasnorm_wordpool.txt	LTP063	ltpFR	5	12	1	BOOTH	151	n/a	0	n/a	n/a	n/a	n/a	n/a
2178.302	n/a	REC_WORD	1089151	wordpools/wasnorm_wordpool.txt	LTP063	ltpFR	5	12	1	STEREO	1378	n/a	0	n/a	n/a	n/a	n/a	n/a
2179.92	n/a	REC_WORD	1089960	wordpools/wasnorm_wordpool.txt	LTP063	ltpFR	5	12	0	CATERPILLAR	259	n/a	0	n/a	n/a	n/a	n/a	n/a
2181.362	n/a	REC_WORD	1090681	wordpools/wasnorm_wordpool.txt	LTP063	ltpFR	5	12	0	COD	340	n/a	0	n/a	n/a	n/a	n/a	n/a
2199.58	n/a	REC_WORD	1099790	wordpools/wasnorm_wordpool.txt	LTP063	ltpFR	5	12	1	PIER	1063	n/a	0	n/a	n/a	n/a	n/a	n/a
2201.196	n/a	REC_WORD	1100598	wordpools/wasnorm_wordpool.txt	LTP063	ltpFR	5	12	0	AUTOMOBILE	62	n/a	1	n/a	n/a	n/a	n/a	n/a
2232.59	n/a	REC_WORD	1116295	wordpools/wasnorm_wordpool.txt	LTP063	ltpFR	5	12	1	NURSE	963	n/a	1	n/a	n/a	n/a	n/a	n/a
2249.066	n/a	REST_REWET	1124533	n/a	LTP063	ltpFR	5	12	n/a	n/a	n/a	n/a	n/a	n/a	n/a	n/a	n/a	n/a
2834.686	n/a	WORD	1417343	wordpools/wasnorm_wordpool.txt	LTP063	ltpFR	5	13	1	RAM	1165	n/a	1	0	0.5869140625	0.422607421875	lower	../fonts/zerothre.ttf
2838.88	n/a	WORD	1419440	wordpools/wasnorm_wordpool.txt	LTP063	ltpFR	5	13	1	WAREHOUSE	1588	n/a	0	0	0.5869140625	0.422607421875	lower	../fonts/zerothre.ttf
2842.992	n/a	WORD	1421496	wordpools/wasnorm_wordpool.txt	LTP063	ltpFR	5	13	1	CHIMNEY	301	n/a	0	0	0.5869140625	0.422607421875	lower	../fonts/zerothre.ttf
2847.164	n/a	WORD	1423582	wordpools/wasnorm_wordpool.txt	LTP063	ltpFR	5	13	1	HEN	703	n/a	1	0	0.5869140625	0.422607421875	lower	../fonts/zerothre.ttf
2851.082	n/a	WORD	1425541	wordpools/wasnorm_wordpool.txt	LTP063	ltpFR	5	13	1	BATTERY	101	n/a	0	0	0.5869140625	0.422607421875	lower	../fonts/zerothre.ttf
2855.238	n/a	WORD	1427619	wordpools/wasnorm_wordpool.txt	LTP063	ltpFR	5	13	1	BARRACUDA	90	n/a	1	0	0.5869140625	0.422607421875	lower	../fonts/zerothre.ttf
2859.3	n/a	WORD	1429650	wordpools/wasnorm_wordpool.txt	LTP063	ltpFR	5	13	1	BIRD	129	n/a	1	0	0.5869140625	0.422607421875	lower	../fonts/zerothre.ttf
2863.178	n/a	WORD	1431589	wordpools/wasnorm_wordpool.txt	LTP063	ltpFR	5	13	1	CATTLE	261	n/a	1	0	0.5869140625	0.422607421875	lower	../fonts/zerothre.ttf
2867.282	n/a	WORD	1433641	wordpools/wasnorm_wordpool.txt	LTP063	ltpFR	5	13	1	COW	393	n/a	1	0	0.5869140625	0.422607421875	lower	../fonts/zerothre.ttf
2871.468	n/a	WORD	1435734	wordpools/wasnorm_wordpool.txt	LTP063	ltpFR	5	13	1	SUPERMARKET	1409	n/a	0	0	0.5869140625	0.422607421875	lower	../fonts/zerothre.ttf
2875.63	n/a	WORD	1437815	wordpools/wasnorm_wordpool.txt	LTP063	ltpFR	5	13	1	CORN	381	n/a	1	0	0.5869140625	0.422607421875	lower	../fonts/zerothre.ttf
2879.494	n/a	WORD	1439747	wordpools/wasnorm_wordpool.txt	LTP063	ltpFR	5	13	1	TOMATO	1476	n/a	1	0	0.5869140625	0.422607421875	lower	../fonts/zerothre.ttf
2883.646	n/a	WORD	1441823	wordpools/wasnorm_wordpool.txt	LTP063	ltpFR	5	13	1	TORCH	1484	n/a	0	0	0.5869140625	0.422607421875	lower	../fonts/zerothre.ttf
2887.832	n/a	WORD	1443916	wordpools/wasnorm_wordpool.txt	LTP063	ltpFR	5	13	1	BUGLE	189	n/a	0	0	0.5869140625	0.422607421875	lower	../fonts/zerothre.ttf
2891.754	n/a	WORD	1445877	wordpools/wasnorm_wordpool.txt	LTP063	ltpFR	5	13	1	TROMBONE	1508	n/a	0	0	0.5869140625	0.422607421875	lower	../fonts/zerothre.ttf
2895.732	n/a	WORD	1447866	wordpools/wasnorm_wordpool.txt	LTP063	ltpFR	5	13	1	BAIT	70	n/a	0	0	0.5869140625	0.422607421875	lower	../fonts/zerothre.ttf
2901.634	n/a	REC_START	1450817	n/a	LTP063	ltpFR	5	13	n/a	n/a	n/a	n/a	n/a	n/a	n/a	n/a	n/a	n/a
2902.292	n/a	REC_WORD	1451146	wordpools/wasnorm_wordpool.txt	LTP063	ltpFR	5	13	1	WAREHOUSE	1588	n/a	0	n/a	n/a	n/a	n/a	n/a
2903.934	n/a	REC_WORD	1451967	wordpools/wasnorm_wordpool.txt	LTP063	ltpFR	5	13	1	CHIMNEY	301	n/a	0	n/a	n/a	n/a	n/a	n/a
2905.656	n/a	REC_WORD	1452828	wordpools/wasnorm_wordpool.txt	LTP063	ltpFR	5	13	1	BAIT	70	n/a	0	n/a	n/a	n/a	n/a	n/a
2906.952	n/a	REC_WORD	1453476	wordpools/wasnorm_wordpool.txt	LTP063	ltpFR	5	13	1	CATTLE	261	n/a	1	n/a	n/a	n/a	n/a	n/a
2908.394	n/a	REC_WORD	1454197	wordpools/wasnorm_wordpool.txt	LTP063	ltpFR	5	13	1	COW	393	n/a	1	n/a	n/a	n/a	n/a	n/a
2910.04	n/a	REC_WORD	1455020	wordpools/wasnorm_wordpool.txt	LTP063	ltpFR	5	13	n/a	RANCH	1166	n/a	n/a	n/a	n/a	n/a	n/a	n/a
2913.582	n/a	REC_WORD	1456791	wordpools/wasnorm_wordpool.txt	LTP063	ltpFR	5	13	1	BATTERY	101	n/a	0	n/a	n/a	n/a	n/a	n/a
2918.196	n/a	REC_WORD	1459098	wordpools/wasnorm_wordpool.txt	LTP063	ltpFR	5	13	1	SUPERMARKET	1409	n/a	0	n/a	n/a	n/a	n/a	n/a
2981.034	n/a	WORD	1490517	wordpools/wasnorm_wordpool.txt	LTP063	ltpFR	5	14	0	TOAST	1471	n/a	0	1	0.412841796875	0.57763671875	upper	../fonts/amplitud.ttf
2985.214	n/a	WORD	1492607	wordpools/wasnorm_wordpool.txt	LTP063	ltpFR	5	14	0	LAGOON	795	n/a	1	1	0.412841796875	0.57763671875	upper	../fonts/amplitud.ttf
2989.292	n/a	WORD	1494646	wordpools/wasnorm_wordpool.txt	LTP063	ltpFR	5	14	0	LIVER	833	n/a	0	1	0.412841796875	0.57763671875	upper	../fonts/amplitud.ttf
2993.354	n/a	WORD	1496677	wordpools/wasnorm_wordpool.txt	LTP063	ltpFR	5	14	0	PIE	1062	n/a	0	1	0.412841796875	0.57763671875	upper	../fonts/amplitud.ttf
2997.224	n/a	WORD	1498612	wordpools/wasnorm_wordpool.txt	LTP063	ltpFR	5	14	0	TRUCK	1512	n/a	1	1	0.412841796875	0.57763671875	upper	../fonts/amplitud.ttf
3001.362	n/a	WORD	1500681	wordpools/wasnorm_wordpool.txt	LTP063	ltpFR	5	14	0	BRAKE	166	n/a	0	1	0.412841796875	0.57763671875	upper	../fonts/amplitud.ttf
3005.174	n/a	WORD	1502587	wordpools/wasnorm_wordpool.txt	LTP063	ltpFR	5	14	0	CRIMINAL	409	n/a	1	1	0.412841796875	0.57763671875	upper	../fonts/amplitud.ttf
3009.328	n/a	WORD	1504664	wordpools/wasnorm_wordpool.txt	LTP063	ltpFR	5	14	0	NURSERY	964	n/a	1	1	0.412841796875	0.57763671875	upper	../fonts/amplitud.ttf
3013.348	n/a	WORD	1506674	wordpools/wasnorm_wordpool.txt	LTP063	ltpFR	5	14	0	GOO	648	n/a	0	1	0.412841796875	0.57763671875	upper	../fonts/amplitud.ttf
3017.318	n/a	WORD	1508659	wordpools/wasnorm_wordpool.txt	LTP063	ltpFR	5	14	0	COLLAR	345	n/a	0	1	0.412841796875	0.57763671875	upper	../fonts/amplitud.ttf
3021.306	n/a	WORD	1510653	wordpools/wasnorm_wordpool.txt	LTP063	ltpFR	5	14	0	BARREL	91	n/a	1	1	0.412841796875	0.57763671875	upper	../fonts/amplitud.ttf
3025.368	n/a	WORD	1512684	wordpools/wasnorm_wordpool.txt	LTP063	ltpFR	5	14	0	CINNAMON	310	n/a	1	1	0.412841796875	0.57763671875	upper	../fonts/amplitud.ttf
3029.57	n/a	WORD	1514785	wordpools/wasnorm_wordpool.txt	LTP063	ltpFR	5	14	0	SIREN	1310	n/a	1	1	0.412841796875	0.57763671875	upper	../fonts/amplitud.ttf
3033.54	n/a	WORD	1516770	wordpools/wasnorm_wordpool.txt	LTP063	ltpFR	5	14	0	SERGEANT	1269	n/a	1	1	0.412841796875	0.57763671875	upper	../fonts/amplitud.ttf
3037.354	n/a	WORD	1518677	wordpools/wasnorm_wordpool.txt	LTP063	ltpFR	5	14	0	PERSON	1052	n/a	1	1	0.412841796875	0.57763671875	upper	../fonts/amplitud.ttf
3041.24	n/a	WORD	1520620	wordpools/wasnorm_wordpool.txt	LTP063	ltpFR	5	14	0	PRISON	1127	n/a	1	1	0.412841796875	0.57763671875	upper	../fonts/amplitud.ttf
3047.11	n/a	REC_START	1523555	n/a	LTP063	ltpFR	5	14	n/a	n/a	n/a	n/a	n/a	n/a	n/a	n/a	n/a	n/a
3049.87	n/a	REC_WORD	1524935	wordpools/wasnorm_wordpool.txt	LTP063	ltpFR	5	14	0	SIREN	1310	n/a	1	n/a	n/a	n/a	n/a	n/a
3050.942	n/a	REC_WORD	1525471	wordpools/wasnorm_wordpool.txt	LTP063	ltpFR	5	14	0	SERGEANT	1269	n/a	1	n/a	n/a	n/a	n/a	n/a
3052.236	n/a	REC_WORD	1526118	wordpools/wasnorm_wordpool.txt	LTP063	ltpFR	5	14	0	PRISON	1127	n/a	1	n/a	n/a	n/a	n/a	n/a
3053.46	n/a	REC_WORD	1526730	wordpools/wasnorm_wordpool.txt	LTP063	ltpFR	5	14	0	BARREL	91	n/a	1	n/a	n/a	n/a	n/a	n/a
3054.852	n/a	REC_WORD	1527426	wordpools/wasnorm_wordpool.txt	LTP063	ltpFR	5	14	0	GOO	648	n/a	0	n/a	n/a	n/a	n/a	n/a
3056.174	n/a	REC_WORD	1528087	wordpools/wasnorm_wordpool.txt	LTP063	ltpFR	5	14	0	TRUCK	1512	n/a	1	n/a	n/a	n/a	n/a	n/a
3057.59	n/a	REC_WORD	1528795	wordpools/wasnorm_wordpool.txt	LTP063	ltpFR	5	14	0	BRAKE	166	n/a	0	n/a	n/a	n/a	n/a	n/a
3071.49	n/a	REC_WORD	1535745	wordpools/wasnorm_wordpool.txt	LTP063	ltpFR	5	14	0	CINNAMON	310	n/a	1	n/a	n/a	n/a	n/a	n/a
3075.124	n/a	REC_WORD	1537562	wordpools/wasnorm_wordpool.txt	LTP063	ltpFR	5	14	0	PERSON	1052	n/a	1	n/a	n/a	n/a	n/a	n/a
3244.274	n/a	WORD	1622137	wordpools/wasnorm_wordpool.txt	LTP063	ltpFR	5	15	0	CARD	243	n/a	0	1	0.412841796875	0.57763671875	upper	../fonts/amplitud.ttf
3248.444	n/a	WORD	1624222	wordpools/wasnorm_wordpool.txt	LTP063	ltpFR	5	15	0	WRIST	1626	n/a	0	1	0.412841796875	0.57763671875	upper	../fonts/amplitud.ttf
3252.366	n/a	WORD	1626183	wordpools/wasnorm_wordpool.txt	LTP063	ltpFR	5	15	0	GUARD	667	n/a	1	1	0.412841796875	0.57763671875	upper	../fonts/amplitud.ttf
3256.278	n/a	WORD	1628139	wordpools/wasnorm_wordpool.txt	LTP063	ltpFR	5	15	0	ALMANAC	17	n/a	0	1	0.412841796875	0.57763671875	upper	../fonts/amplitud.ttf
3260.256	n/a	WORD	1630128	wordpools/wasnorm_wordpool.txt	LTP063	ltpFR	5	15	0	CANAL	226	n/a	1	1	0.412841796875	0.57763671875	upper	../fonts/amplitud.ttf
3264.292	n/a	WORD	1632146	wordpools/wasnorm_wordpool.txt	LTP063	ltpFR	5	15	0	NOTE	958	n/a	0	1	0.412841796875	0.57763671875	upper	../fonts/amplitud.ttf
3268.222	n/a	WORD	1634111	wordpools/wasnorm_wordpool.txt	LTP063	ltpFR	5	15	0	BUG	187	n/a	0	1	0.412841796875	0.57763671875	upper	../fonts/amplitud.ttf
3272.392	n/a	WORD	1636196	wordpools/wasnorm_wordpool.txt	LTP063	ltpFR	5	15	0	SLIDE	1326	n/a	1	1	0.412841796875	0.57763671875	upper	../fonts/amplitud.ttf
3276.204	n/a	WORD	1638102	wordpools/wasnorm_wordpool.txt	LTP063	ltpFR	5	15	0	SHED	1277	n/a	1	1	0.412841796875	0.57763671875	upper	../fonts/amplitud.ttf
3280.056	n/a	WORD	1640028	wordpools/wasnorm_wordpool.txt	LTP063	ltpFR	5	15	0	CHEST	295	n/a	1	1	0.412841796875	0.57763671875	upper	../fonts/amplitud.ttf
3284.204	n/a	WORD	1642102	wordpools/wasnorm_wordpool.txt	LTP063	ltpFR	5	15	0	VALVE	1546	n/a	0	1	0.412841796875	0.57763671875	upper	../fonts/amplitud.ttf
3288.332	n/a	WORD	1644166	wordpools/wasnorm_wordpool.txt	LTP063	ltpFR	5	15	0	POTATO	1115	n/a	0	1	0.412841796875	0.57763671875	upper	../fonts/amplitud.ttf
3292.228	n/a	WORD	1646114	wordpools/wasnorm_wordpool.txt	LTP063	ltpFR	5	15	0	HUSBAND	728	n/a	1	1	0.412841796875	0.57763671875	upper	../fonts/amplitud.ttf
3296.29	n/a	WORD	1648145	wordpools/wasnorm_wordpool.txt	LTP063	ltpFR	5	15	0	INSECT	740	n/a	1	1	0.412841796875	0.57763671875	upper	../fonts/amplitud.ttf
3300.152	n/a	WORD	1650076	wordpools/wasnorm_wordpool.txt	LTP063	ltpFR	5	15	0	FIG	563	n/a	0	1	0.412841796875	0.57763671875	upper	../fonts/amplitud.ttf
3304.088	n/a	WORD	1652044	wordpools/wasnorm_wordpool.txt	LTP063	ltpFR	5	15	0	MOSS	918	n/a	0	1	0.412841796875	0.57763671875	upper	../fonts/amplitud.ttf
3309.94	n/a	REC_START	1654970	n/a	LTP063	ltpFR	5	15	n/a	n/a	n/a	n/a	n/a	n/a	n/a	n/a	n/a	n/a
3312.536	n/a	REC_WORD	1656268	wordpools/wasnorm_wordpool.txt	LTP063	ltpFR	5	15	0	FIG	563	n/a	0	n/a	n/a	n/a	n/a	n/a
3314.2	n/a	REC_WORD	1657100	wordpools/wasnorm_wordpool.txt	LTP063	ltpFR	5	15	0	MOSS	918	n/a	0	n/a	n/a	n/a	n/a	n/a
3315.962	n/a	REC_WORD	1657981	wordpools/wasnorm_wordpool.txt	LTP063	ltpFR	5	15	0	INSECT	740	n/a	1	n/a	n/a	n/a	n/a	n/a
3318.74	n/a	REC_WORD	1659370	wordpools/wasnorm_wordpool.txt	LTP063	ltpFR	5	15	0	BUG	187	n/a	0	n/a	n/a	n/a	n/a	n/a
3320.402	n/a	REC_WORD	1660201	wordpools/wasnorm_wordpool.txt	LTP063	ltpFR	5	15	0	HUSBAND	728	n/a	1	n/a	n/a	n/a	n/a	n/a
3388.184	n/a	WORD	1694092	wordpools/wasnorm_wordpool.txt	LTP063	ltpFR	5	16	0	CORD	379	n/a	0	1	0.412841796875	0.57763671875	upper	../fonts/amplitud.ttf
3392.046	n/a	WORD	1696023	wordpools/wasnorm_wordpool.txt	LTP063	ltpFR	5	16	0	HELICOPTER	701	n/a	1	1	0.412841796875	0.57763671875	upper	../fonts/amplitud.ttf
3396.074	n/a	WORD	1698037	wordpools/wasnorm_wordpool.txt	LTP063	ltpFR	5	16	0	SCREW	1254	n/a	0	1	0.412841796875	0.57763671875	upper	../fonts/amplitud.ttf
3400.112	n/a	WORD	1700056	wordpools/wasnorm_wordpool.txt	LTP063	ltpFR	5	16	0	WINDSHIELD	1612	n/a	1	1	0.412841796875	0.57763671875	upper	../fonts/amplitud.ttf
3404.142	n/a	WORD	1702071	wordpools/wasnorm_wordpool.txt	LTP063	ltpFR	5	16	0	COBWEB	337	n/a	0	1	0.412841796875	0.57763671875	upper	../fonts/amplitud.ttf
3408.104	n/a	WORD	1704052	wordpools/wasnorm_wordpool.txt	LTP063	ltpFR	5	16	0	CLARINET	317	n/a	1	1	0.412841796875	0.57763671875	upper	../fonts/amplitud.ttf
3412.306	n/a	WORD	1706153	wordpools/wasnorm_wordpool.txt	LTP063	ltpFR	5	16	0	FIGHTER	564	n/a	1	1	0.412841796875	0.57763671875	upper	../fonts/amplitud.ttf
3416.268	n/a	WORD	1708134	wordpools/wasnorm_wordpool.txt	LTP063	ltpFR	5	16	0	TAG	1429	n/a	0	1	0.412841796875	0.57763671875	upper	../fonts/amplitud.ttf
3420.08	n/a	WORD	1710040	wordpools/wasnorm_wordpool.txt	LTP063	ltpFR	5	16	0	THUMB	1462	n/a	0	1	0.412841796875	0.57763671875	upper	../fonts/amplitud.ttf
3424.21	n/a	WORD	1712105	wordpools/wasnorm_wordpool.txt	LTP063	ltpFR	5	16	0	HOSE	720	n/a	1	1	0.412841796875	0.57763671875	upper	../fonts/amplitud.ttf
3428.164	n/a	WORD	1714082	wordpools/wasnorm_wordpool.txt	LTP063	ltpFR	5	16	0	FOUNTAIN	597	n/a	1	1	0.412841796875	0.57763671875	upper	../fonts/amplitud.ttf
3432.016	n/a	WORD	1716008	wordpools/wasnorm_wordpool.txt	LTP063	ltpFR	5	16	0	BILL	126	n/a	0	1	0.412841796875	0.57763671875	upper	../fonts/amplitud.ttf
3435.844	n/a	WORD	1717922	wordpools/wasnorm_wordpool.txt	LTP063	ltpFR	5	16	0	DRIVEWAY	500	n/a	1	1	0.412841796875	0.57763671875	upper	../fonts/amplitud.ttf
3439.724	n/a	WORD	1719862	wordpools/wasnorm_wordpool.txt	LTP063	ltpFR	5	16	0	PENCIL	1042	n/a	0	1	0.412841796875	0.57763671875	upper	../fonts/amplitud.ttf
3443.578	n/a	WORD	1721789	wordpools/wasnorm_wordpool.txt	LTP063	ltpFR	5	16	0	GEM	629	n/a	0	1	0.412841796875	0.57763671875	upper	../fonts/amplitud.ttf
3447.748	n/a	WORD	1723874	wordpools/wasnorm_wordpool.txt	LTP063	ltpFR	5	16	0	CHIME	300	n/a	0	1	0.412841796875	0.57763671875	upper	../fonts/amplitud.ttf
3453.468	n/a	REC_START	1726734	n/a	LTP063	ltpFR	5	16	n/a	n/a	n/a	n/a	n/a	n/a	n/a	n/a	n/a	n/a
3454.84	n/a	REC_WORD	1727420	wordpools/wasnorm_wordpool.txt	LTP063	ltpFR	5	16	0	PENCIL	1042	n/a	0	n/a	n/a	n/a	n/a	n/a
3455.838	n/a	REC_WORD	1727919	wordpools/wasnorm_wordpool.txt	LTP063	ltpFR	5	16	0	TAG	1429	n/a	0	n/a	n/a	n/a	n/a	n/a
3457.494	n/a	REC_WORD	1728747	wordpools/wasnorm_wordpool.txt	LTP063	ltpFR	5	16	0	GEM	629	n/a	0	n/a	n/a	n/a	n/a	n/a
3458.93	n/a	REC_WORD	1729465	wordpools/wasnorm_wordpool.txt	LTP063	ltpFR	5	16	0	CHIME	300	n/a	0	n/a	n/a	n/a	n/a	n/a
3469.34	n/a	REC_WORD	1734670	wordpools/wasnorm_wordpool.txt	LTP063	ltpFR	5	16	0	HELICOPTER	701	n/a	1	n/a	n/a	n/a	n/a	n/a
3471.094	n/a	REC_WORD	1735547	wordpools/wasnorm_wordpool.txt	LTP063	ltpFR	5	16	0	WINDSHIELD	1612	n/a	1	n/a	n/a	n/a	n/a	n/a
3477.124	n/a	REC_WORD	1738562	wordpools/wasnorm_wordpool.txt	LTP063	ltpFR	5	16	0	SCREW	1254	n/a	0	n/a	n/a	n/a	n/a	n/a
3542.392	n/a	REC_START	1771196	n/a	LTP063	ltpFR	5	n/a	n/a	n/a	n/a	n/a	n/a	n/a	n/a	n/a	n/a	n/a
3544.15	n/a	FFR_REC_WORD	1772075	wordpools/wasnorm_wordpool.txt	LTP063	ltpFR	5	n/a	1	PROFESSIONAL	1130	n/a	1	n/a	n/a	n/a	n/a	n/a
3545.544	n/a	FFR_REC_WORD	1772772	wordpools/wasnorm_wordpool.txt	LTP063	ltpFR	5	n/a	1	ASTRONAUT	51	n/a	1	n/a	n/a	n/a	n/a	n/a
3547.906	n/a	FFR_REC_WORD	1773953	wordpools/wasnorm_wordpool.txt	LTP063	ltpFR	5	n/a	1	SUN	1406	n/a	0	n/a	n/a	n/a	n/a	n/a
3550.332	n/a	FFR_REC_WORD	1775166	wordpools/wasnorm_wordpool.txt	LTP063	ltpFR	5	n/a	1	FORT	595	n/a	0	n/a	n/a	n/a	n/a	n/a
3551.56	n/a	FFR_REC_WORD	1775780	wordpools/wasnorm_wordpool.txt	LTP063	ltpFR	5	n/a	1	CAVE	263	n/a	0	n/a	n/a	n/a	n/a	n/a
3554.998	n/a	FFR_REC_WORD	1777499	wordpools/wasnorm_wordpool.txt	LTP063	ltpFR	5	n/a	1	RAFT	1159	n/a	0	n/a	n/a	n/a	n/a	n/a
3556.1	n/a	FFR_REC_WORD	1778050	wordpools/wasnorm_wordpool.txt	LTP063	ltpFR	5	n/a	1	PADDLE	1000	n/a	0	n/a	n/a	n/a	n/a	n/a
3558.092	n/a	FFR_REC_WORD	1779046	wordpools/wasnorm_wordpool.txt	LTP063	ltpFR	5	n/a	1	GRILL	661	n/a	0	n/a	n/a	n/a	n/a	n/a
3560.298	n/a	FFR_REC_WORD	1780149	wordpools/wasnorm_wordpool.txt	LTP063	ltpFR	5	n/a	1	KANGAROO	768	n/a	0	n/a	n/a	n/a	n/a	n/a
3562.662	n/a	FFR_REC_WORD	1781331	wordpools/wasnorm_wordpool.txt	LTP063	ltpFR	5	n/a	-1	VICTOR	1563	n/a	-1	n/a	n/a	n/a	n/a	n/a
3564.176	n/a	FFR_REC_WORD	1782088	wordpools/wasnorm_wordpool.txt	LTP063	ltpFR	5	n/a	-1	OBOE	969	n/a	-1	n/a	n/a	n/a	n/a	n/a
3565.644	n/a	FFR_REC_WORD	1782822	wordpools/wasnorm_wordpool.txt	LTP063	ltpFR	5	n/a	-1	PARROT	1015	n/a	-1	n/a	n/a	n/a	n/a	n/a
3568.416	n/a	FFR_REC_WORD	1784208	wordpools/wasnorm_wordpool.txt	LTP063	ltpFR	5	n/a	-1	LIMOUSINE	824	n/a	-1	n/a	n/a	n/a	n/a	n/a
3570.342	n/a	FFR_REC_WORD	1785171	wordpools/wasnorm_wordpool.txt	LTP063	ltpFR	5	n/a	-1	BEER	114	n/a	-1	n/a	n/a	n/a	n/a	n/a
3571.76	n/a	FFR_REC_WORD	1785880	wordpools/wasnorm_wordpool.txt	LTP063	ltpFR	5	n/a	-1	PUB	1135	n/a	-1	n/a	n/a	n/a	n/a	n/a
3573.224	n/a	FFR_REC_WORD	1786612	wordpools/wasnorm_wordpool.txt	LTP063	ltpFR	5	n/a	-1	SWAN	1417	n/a	-1	n/a	n/a	n/a	n/a	n/a
3577.172	n/a	FFR_REC_WORD	1788586	wordpools/wasnorm_wordpool.txt	LTP063	ltpFR	5	n/a	-1	FRUIT	610	n/a	-1	n/a	n/a	n/a	n/a	n/a
3578.87	n/a	FFR_REC_WORD	1789435	wordpools/wasnorm_wordpool.txt	LTP063	ltpFR	5	n/a	-1	PEACH	1031	n/a	-1	n/a	n/a	n/a	n/a	n/a
3579.566	n/a	FFR_REC_WORD	1789783	wordpools/wasnorm_wordpool.txt	LTP063	ltpFR	5	n/a	1	STRAWBERRY	1391	n/a	1	n/a	n/a	n/a	n/a	n/a
3583.264	n/a	FFR_REC_WORD	1791632	wordpools/wasnorm_wordpool.txt	LTP063	ltpFR	5	n/a	-1	ORANGE	980	n/a	-1	n/a	n/a	n/a	n/a	n/a
3584.596	n/a	FFR_REC_WORD	1792298	wordpools/wasnorm_wordpool.txt	LTP063	ltpFR	5	n/a	1	GRAPE	654	n/a	1	n/a	n/a	n/a	n/a	n/a
3586.114	n/a	FFR_REC_WORD	1793057	wordpools/wasnorm_wordpool.txt	LTP063	ltpFR	5	n/a	-1	OLIVE	975	n/a	-1	n/a	n/a	n/a	n/a	n/a
3587.708	n/a	FFR_REC_WORD	1793854	wordpools/wasnorm_wordpool.txt	LTP063	ltpFR	5	n/a	-1	LETTUCE	814	n/a	-1	n/a	n/a	n/a	n/a	n/a
3589.336	n/a	FFR_REC_WORD	1794668	wordpools/wasnorm_wordpool.txt	LTP063	ltpFR	5	n/a	0	ZUCCHINI	1638	n/a	0	n/a	n/a	n/a	n/a	n/a
3591.17	n/a	FFR_REC_WORD	1795585	wordpools/wasnorm_wordpool.txt	LTP063	ltpFR	5	n/a	1	TOMATO	1476	n/a	1	n/a	n/a	n/a	n/a	n/a
3592.886	n/a	FFR_REC_WORD	1796443	wordpools/wasnorm_wordpool.txt	LTP063	ltpFR	5	n/a	0	POTATO	1115	n/a	0	n/a	n/a	n/a	n/a	n/a
3596.464	n/a	FFR_REC_WORD	1798232	wordpools/wasnorm_wordpool.txt	LTP063	ltpFR	5	n/a	-1	CASHEW	253	n/a	-1	n/a	n/a	n/a	n/a	n/a
3598.026	n/a	FFR_REC_WORD	1799013	wordpools/wasnorm_wordpool.txt	LTP063	ltpFR	5	n/a	n/a	SQUIRREL	1362	n/a	n/a	n/a	n/a	n/a	n/a	n/a
3601.088	n/a	FFR_REC_WORD	1800544	wordpools/wasnorm_wordpool.txt	LTP063	ltpFR	5	n/a	-1	CHIPMUNK	304	n/a	-1	n/a	n/a	n/a	n/a	n/a
3602.634	n/a	FFR_REC_WORD	1801317	wordpools/wasnorm_wordpool.txt	LTP063	ltpFR	5	n/a	-1	KNAPSACK	783	n/a	-1	n/a	n/a	n/a	n/a	n/a
3604.138	n/a	FFR_REC_WORD	1802069	wordpools/wasnorm_wordpool.txt	LTP063	ltpFR	5	n/a	-1	DELINQUENT	445	n/a	-1	n/a	n/a	n/a	n/a	n/a
3605.986	n/a	FFR_REC_WORD	1802993	wordpools/wasnorm_wordpool.txt	LTP063	ltpFR	5	n/a	-1	SERVANT	1271	n/a	-1	n/a	n/a	n/a	n/a	n/a
3607.882	n/a	FFR_REC_WORD	1803941	wordpools/wasnorm_wordpool.txt	LTP063	ltpFR	5	n/a	-1	WAITER	1580	n/a	-1	n/a	n/a	n/a	n/a	n/a
3609.27	n/a	FFR_REC_WORD	1804635	wordpools/wasnorm_wordpool.txt	LTP063	ltpFR	5	n/a	-1	GENTLEMAN	631	n/a	-1	n/a	n/a	n/a	n/a	n/a
3610.986	n/a	FFR_REC_WORD	1805493	wordpools/wasnorm_wordpool.txt	LTP063	ltpFR	5	n/a	-1	MISTER	901	n/a	-1	n/a	n/a	n/a	n/a	n/a
3612.67	n/a	FFR_REC_WORD	1806335	wordpools/wasnorm_wordpool.txt	LTP063	ltpFR	5	n/a	0	PERSON	1052	n/a	1	n/a	n/a	n/a	n/a	n/a
3614.468	n/a	FFR_REC_WORD	1807234	wordpools/wasnorm_wordpool.txt	LTP063	ltpFR	5	n/a	0	SERGEANT	1269	n/a	1	n/a	n/a	n/a	n/a	n/a
3617.67	n/a	FFR_REC_WORD	1808835	wordpools/wasnorm_wordpool.txt	LTP063	ltpFR	5	n/a	0	HUSBAND	728	n/a	1	n/a	n/a	n/a	n/a	n/a
3619.622	n/a	FFR_REC_WORD	1809811	wordpools/wasnorm_wordpool.txt	LTP063	ltpFR	5	n/a	-1	OFFICER	973	n/a	-1	n/a	n/a	n/a	n/a	n/a
3621.636	n/a	FFR_REC_WORD	1810818	wordpools/wasnorm_wordpool.txt	LTP063	ltpFR	5	n/a	1	POLICE	1098	n/a	1	n/a	n/a	n/a	n/a	n/a
3624.35	n/a	FFR_REC_WORD	1812175	wordpools/wasnorm_wordpool.txt	LTP063	ltpFR	5	n/a	-1	VETERAN	1561	n/a	-1	n/a	n/a	n/a	n/a	n/a
3628.646	n/a	FFR_REC_WORD	1814323	wordpools/wasnorm_wordpool.txt	LTP063	ltpFR	5	n/a	-1	SOLDIER	1344	n/a	-1	n/a	n/a	n/a	n/a	n/a
3630.412	n/a	FFR_REC_WORD	1815206	wordpools/wasnorm_wordpool.txt	LTP063	ltpFR	5	n/a	-1	ARMY	39	n/a	-1	n/a	n/a	n/a	n/a	n/a
3632.224	n/a	FFR_REC_WORD	1816112	wordpools/wasnorm_wordpool.txt	LTP063	ltpFR	5	n/a	n/a	OUTFIT	988	n/a	n/a	n/a	n/a	n/a	n/a	n/a
3634.872	n/a	FFR_REC_WORD	1817436	wordpools/wasnorm_wordpool.txt	LTP063	ltpFR	5	n/a	-1	CAFE	216	n/a	-1	n/a	n/a	n/a	n/a	n/a
3636.69	n/a	FFR_REC_WORD	1818345	wordpools/wasnorm_wordpool.txt	LTP063	ltpFR	5	n/a	-1	SNACK	1331	n/a	-1	n/a	n/a	n/a	n/a	n/a
3638.032	n/a	FFR_REC_WORD	1819016	wordpools/wasnorm_wordpool.txt	LTP063	ltpFR	5	n/a	-1	SUPPER	1411	n/a	-1	n/a	n/a	n/a	n/a	n/a
3639.712	n/a	FFR_REC_WORD	1819856	wordpools/wasnorm_wordpool.txt	LTP063	ltpFR	5	n/a	-1	CHICKEN	297	n/a	-1	n/a	n/a	n/a	n/a	n/a
3641.736	n/a	FFR_REC_WORD	1820868	wordpools/wasnorm_wordpool.txt	LTP063	ltpFR	5	n/a	-1	DIME	466	n/a	-1	n/a	n/a	n/a	n/a	n/a
3643.422	n/a	FFR_REC_WORD	1821711	wordpools/wasnorm_wordpool.txt	LTP063	ltpFR	5	n/a	-1	MISSILE	900	n/a	-1	n/a	n/a	n/a	n/a	n/a
3647.12	n/a	FFR_REC_WORD	1823560	wordpools/wasnorm_wordpool.txt	LTP063	ltpFR	5	n/a	0	INSECT	740	n/a	1	n/a	n/a	n/a	n/a	n/a
3648.586	n/a	FFR_REC_WORD	1824293	wordpools/wasnorm_wordpool.txt	LTP063	ltpFR	5	n/a	0	BUG	187	n/a	0	n/a	n/a	n/a	n/a	n/a
3650.012	n/a	FFR_REC_WORD	1825006	wordpools/wasnorm_wordpool.txt	LTP063	ltpFR	5	n/a	0	WASP	1593	n/a	1	n/a	n/a	n/a	n/a	n/a
3652.132	n/a	FFR_REC_WORD	1826066	wordpools/wasnorm_wordpool.txt	LTP063	ltpFR	5	n/a	1	HORNET	718	n/a	1	n/a	n/a	n/a	n/a	n/a
3653.73	n/a	FFR_REC_WORD	1826865	wordpools/wasnorm_wordpool.txt	LTP063	ltpFR	5	n/a	1	BEE	112	n/a	1	n/a	n/a	n/a	n/a	n/a
3660.834	n/a	FFR_REC_WORD	1830417	wordpools/wasnorm_wordpool.txt	LTP063	ltpFR	5	n/a	0	MOSS	918	n/a	0	n/a	n/a	n/a	n/a	n/a
3664.296	n/a	FFR_REC_WORD	1832148	wordpools/wasnorm_wordpool.txt	LTP063	ltpFR	5	n/a	-1	ROOT	1210	n/a	-1	n/a	n/a	n/a	n/a	n/a
3665.208	n/a	FFR_REC_WORD	1832604	wordpools/wasnorm_wordpool.txt	LTP063	ltpFR	5	n/a	1	PLANT	1083	n/a	1	n/a	n/a	n/a	n/a	n/a
3666.154	n/a	FFR_REC_WORD	1833077	wordpools/wasnorm_wordpool.txt	LTP063	ltpFR	5	n/a	1	SEED	1266	n/a	1	n/a	n/a	n/a	n/a	n/a
3667.542	n/a	FFR_REC_WORD	1833771	wordpools/wasnorm_wordpool.txt	LTP063	ltpFR	5	n/a	-1	HAT	690	n/a	-1	n/a	n/a	n/a	n/a	n/a
3668.51	n/a	FFR_REC_WORD	1834255	wordpools/wasnorm_wordpool.txt	LTP063	ltpFR	5	n/a	-1	CAP	236	n/a	-1	n/a	n/a	n/a	n/a	n/a
3670.346	n/a	FFR_REC_WORD	1835173	wordpools/wasnorm_wordpool.txt	LTP063	ltpFR	5	n/a	-1	ISLAND	745	n/a	-1	n/a	n/a	n/a	n/a	n/a
3671.342	n/a	FFR_REC_WORD	1835671	wordpools/wasnorm_wordpool.txt	LTP063	ltpFR	5	n/a	1	SWIMMER	1420	n/a	1	n/a	n/a	n/a	n/a	n/a
3672.722	n/a	FFR_REC_WORD	1836361	wordpools/wasnorm_wordpool.txt	LTP063	ltpFR	5	n/a	-1	DIVER	476	n/a	-1	n/a	n/a	n/a	n/a	n/a
3673.736	n/a	FFR_REC_WORD	1836868	wordpools/wasnorm_wordpool.txt	LTP063	ltpFR	5	n/a	0	SWAMP	1416	n/a	1	n/a	n/a	n/a	n/a	n/a
3674.938	n/a	FFR_REC_WORD	1837469	wordpools/wasnorm_wordpool.txt	LTP063	ltpFR	5	n/a	0	LAGOON	795	n/a	1	n/a	n/a	n/a	n/a	n/a
3676.796	n/a	FFR_REC_WORD	1838398	wordpools/wasnorm_wordpool.txt	LTP063	ltpFR	5	n/a	-1	CABIN	211	n/a	-1	n/a	n/a	n/a	n/a	n/a
3679.182	n/a	FFR_REC_WORD	1839591	wordpools/wasnorm_wordpool.txt	LTP063	ltpFR	5	n/a	0	COTTAGE	384	n/a	1	n/a	n/a	n/a	n/a	n/a
3682.98	n/a	FFR_REC_WORD	1841490	wordpools/wasnorm_wordpool.txt	LTP063	ltpFR	5	n/a	1	PIER	1063	n/a	0	n/a	n/a	n/a	n/a	n/a
3687.894	n/a	FFR_REC_WORD	1843947	wordpools/wasnorm_wordpool.txt	LTP063	ltpFR	5	n/a	0	HELICOPTER	701	n/a	1	n/a	n/a	n/a	n/a	n/a
3689.474	n/a	FFR_REC_WORD	1844737	wordpools/wasnorm_wordpool.txt	LTP063	ltpFR	5	n/a	0	AUTOMOBILE	62	n/a	1	n/a	n/a	n/a	n/a	n/a
3694.99	n/a	FFR_REC_WORD	1847495	wordpools/wasnorm_wordpool.txt	LTP063	ltpFR	5	n/a	1	VEHICLE	1553	n/a	0	n/a	n/a	n/a	n/a	n/a
3723.916	n/a	FFR_REC_WORD	1861958	wordpools/wasnorm_wordpool.txt	LTP063	ltpFR	5	n/a	1	CRAB	397	n/a	1	n/a	n/a	n/a	n/a	n/a
3725.164	n/a	FFR_REC_WORD	1862582	wordpools/wasnorm_wordpool.txt	LTP063	ltpFR	5	n/a	1	CLAM	315	n/a	1	n/a	n/a	n/a	n/a	n/a
3726.808	n/a	FFR_REC_WORD	1863404	wordpools/wasnorm_wordpool.txt	LTP063	ltpFR	5	n/a	1	FACE	547	n/a	1	n/a	n/a	n/a	n/a	n/a
3727.908	n/a	FFR_REC_WORD	1863954	wordpools/wasnorm_wordpool.txt	LTP063	ltpFR	5	n/a	1	NOSE	957	n/a	1	n/a	n/a	n/a	n/a	n/a
3729.488	n/a	FFR_REC_WORD	1864744	wordpools/wasnorm_wordpool.txt	LTP063	ltpFR	5	n/a	0	WRIST	1626	n/a	0	n/a	n/a	n/a	n/a	n/a
3730.606	n/a	FFR_REC_WORD	1865303	wordpools/wasnorm_wordpool.txt	LTP063	ltpFR	5	n/a	0	LIMB	822	n/a	1	n/a	n/a	n/a	n/a	n/a
3731.786	n/a	FFR_REC_WORD	1865893	wordpools/wasnorm_wordpool.txt	LTP063	ltpFR	5	n/a	1	APPENDAGE	32	n/a	1	n/a	n/a	n/a	n/a	n/a
3734.472	n/a	FFR_REC_WORD	1867236	wordpools/wasnorm_wordpool.txt	LTP063	ltpFR	5	n/a	0	TIGER	1467	n/a	1	n/a	n/a	n/a	n/a	n/a
3756.47	n/a	FFR_REC_WORD	1878235	wordpools/wasnorm_wordpool.txt	LTP063	ltpFR	5	n/a	-1	OLIVE	975	n/a	-1	n/a	n/a	n/a	n/a	n/a
3773.904	n/a	FFR_REC_WORD	1886952	wordpools/wasnorm_wordpool.txt	LTP063	ltpFR	5	n/a	1	TELEPHONE	1445	n/a	0	n/a	n/a	n/a	n/a	n/a
3776.336	n/a	FFR_REC_WORD	1888168	wordpools/wasnorm_wordpool.txt	LTP063	ltpFR	5	n/a	1	DIAL	457	n/a	0	n/a	n/a	n/a	n/a	n/a
3780.346	n/a	FFR_REC_WORD	1890173	wordpools/wasnorm_wordpool.txt	LTP063	ltpFR	5	n/a	0	PENCIL	1042	n/a	0	n/a	n/a	n/a	n/a	n/a
3783.152	n/a	FFR_REC_WORD	1891576	wordpools/wasnorm_wordpool.txt	LTP063	ltpFR	5	n/a	n/a	APE	31	n/a	n/a	n/a	n/a	n/a	n/a	n/a
3786.224	n/a	FFR_REC_WORD	1893112	wordpools/wasnorm_wordpool.txt	LTP063	ltpFR	5	n/a	0	CLARINET	317	n/a	1	n/a	n/a	n/a	n/a	n/a
3790.684	n/a	FFR_REC_WORD	1895342	wordpools/wasnorm_wordpool.txt	LTP063	ltpFR	5	n/a	1	CHAIN	273	n/a	0	n/a	n/a	n/a	n/a	n/a
3796.328	n/a	FFR_REC_WORD	1898164	wordpools/wasnorm_wordpool.txt	LTP063	ltpFR	5	n/a	0	TAG	1429	n/a	0	n/a	n/a	n/a	n/a	n/a
3802.958	n/a	FFR_REC_WORD	1901479	wordpools/wasnorm_wordpool.txt	LTP063	ltpFR	5	n/a	0	WALL	1582	n/a	1	n/a	n/a	n/a	n/a	n/a
3806.33	n/a	FFR_REC_WORD	1903165	wordpools/wasnorm_wordpool.txt	LTP063	ltpFR	5	n/a	-1	HOME	712	n/a	-1	n/a	n/a	n/a	n/a	n/a
3810.24	n/a	FFR_REC_WORD	1905120	wordpools/wasnorm_wordpool.txt	LTP063	ltpFR	5	n/a	-1	DORM	488	n/a	-1	n/a	n/a	n/a	n/a	n/a
3813.032	n/a	FFR_REC_WORD	1906516	wordpools/wasnorm_wordpool.txt	LTP063	ltpFR	5	n/a	1	SUPERMARKET	1409	n/a	0	n/a	n/a	n/a	n/a	n/a
3858.228	n/a	REC_START	1929114	n/a	LTP063	ltpFR	5	1	n/a	n/a	n/a	n/a	n/a	n/a	n/a	n/a	n/a	n/a
3858.262	n/a	RECOG_TARGET	1929131	n/a	LTP063	ltpFR	5	1	0	THUMB	1462	5	0	n/a	n/a	n/a	n/a	n/a
3859.824	n/a	RECOG_RESP	1929912	n/a	LTP063	ltpFR	5	1	0	THUMB	1462	n/a	0	n/a	n/a	n/a	n/a	n/a
3860.658	n/a	RECOG_CONF	1930329	n/a	LTP063	ltpFR	5	1	0	THUMB	1462	5	0	n/a	n/a	n/a	n/a	n/a
3862.274	n/a	RECOG_TARGET	1931137	n/a	LTP063	ltpFR	5	1	-1	DICTIONARY	463	5	-1	n/a	n/a	n/a	n/a	n/a
3862.932	n/a	RECOG_RESP	1931466	n/a	LTP063	ltpFR	5	1	-1	DICTIONARY	463	n/a	-1	n/a	n/a	n/a	n/a	n/a
3863.65	n/a	RECOG_CONF	1931825	n/a	LTP063	ltpFR	5	1	-1	DICTIONARY	463	5	-1	n/a	n/a	n/a	n/a	n/a
3865.036	n/a	RECOG_LURE	1932518	n/a	LTP063	ltpFR	5	1	n/a	TEMPLE	1448	4	n/a	n/a	n/a	n/a	n/a	n/a
3865.846	n/a	RECOG_RESP	1932923	n/a	LTP063	ltpFR	5	1	n/a	TEMPLE	1448	n/a	n/a	n/a	n/a	n/a	n/a	n/a
3866.544	n/a	RECOG_CONF	1933272	n/a	LTP063	ltpFR	5	1	n/a	TEMPLE	1448	4	n/a	n/a	n/a	n/a	n/a	n/a
3867.95	n/a	RECOG_LURE	1933975	n/a	LTP063	ltpFR	5	1	n/a	POLE	1097	4	n/a	n/a	n/a	n/a	n/a	n/a
3868.61	n/a	RECOG_RESP	1934305	n/a	LTP063	ltpFR	5	1	n/a	POLE	1097	n/a	n/a	n/a	n/a	n/a	n/a	n/a
3869.25	n/a	RECOG_CONF	1934625	n/a	LTP063	ltpFR	5	1	n/a	POLE	1097	4	n/a	n/a	n/a	n/a	n/a	n/a
3870.696	n/a	RECOG_LURE	1935348	n/a	LTP063	ltpFR	5	1	n/a	BEAR	106	4	n/a	n/a	n/a	n/a	n/a	n/a
3871.354	n/a	RECOG_RESP	1935677	n/a	LTP063	ltpFR	5	1	n/a	BEAR	106	n/a	n/a	n/a	n/a	n/a	n/a	n/a
3872.032	n/a	RECOG_CONF	1936016	n/a	LTP063	ltpFR	5	1	n/a	BEAR	106	4	n/a	n/a	n/a	n/a	n/a	n/a
3873.52	n/a	RECOG_TARGET	1936760	n/a	LTP063	ltpFR	5	1	1	MOTORCYCLE	923	5	0	n/a	n/a	n/a	n/a	n/a
3874.094	n/a	RECOG_RESP	1937047	n/a	LTP063	ltpFR	5	1	1	MOTORCYCLE	923	n/a	0	n/a	n/a	n/a	n/a	n/a
3874.766	n/a	RECOG_CONF	1937383	n/a	LTP063	ltpFR	5	1	1	MOTORCYCLE	923	5	0	n/a	n/a	n/a	n/a	n/a
3876.232	n/a	RECOG_TARGET	1938116	n/a	LTP063	ltpFR	5	1	-1	OBOE	969	5	-1	n/a	n/a	n/a	n/a	n/a
3876.792	n/a	RECOG_RESP	1938396	n/a	LTP063	ltpFR	5	1	-1	OBOE	969	n/a	-1	n/a	n/a	n/a	n/a	n/a
3877.48	n/a	RECOG_CONF	1938740	n/a	LTP063	ltpFR	5	1	-1	OBOE	969	5	-1	n/a	n/a	n/a	n/a	n/a
3878.97	n/a	RECOG_TARGET	1939485	n/a	LTP063	ltpFR	5	1	1	TERMITE	1451	5	1	n/a	n/a	n/a	n/a	n/a
3879.69	n/a	RECOG_RESP	1939845	n/a	LTP063	ltpFR	5	1	1	TERMITE	1451	n/a	1	n/a	n/a	n/a	n/a	n/a
3880.384	n/a	RECOG_CONF	1940192	n/a	LTP063	ltpFR	5	1	1	TERMITE	1451	5	1	n/a	n/a	n/a	n/a	n/a
3881.776	n/a	RECOG_TARGET	1940888	n/a	LTP063	ltpFR	5	1	0	ALMANAC	17	5	0	n/a	n/a	n/a	n/a	n/a
3882.484	n/a	RECOG_RESP	1941242	n/a	LTP063	ltpFR	5	1	0	ALMANAC	17	n/a	0	n/a	n/a	n/a	n/a	n/a
3883.198	n/a	RECOG_CONF	1941599	n/a	LTP063	ltpFR	5	1	0	ALMANAC	17	5	0	n/a	n/a	n/a	n/a	n/a
3884.614	n/a	RECOG_LURE	1942307	n/a	LTP063	ltpFR	5	1	n/a	CROW	414	4	n/a	n/a	n/a	n/a	n/a	n/a
3885.302	n/a	RECOG_RESP	1942651	n/a	LTP063	ltpFR	5	1	n/a	CROW	414	n/a	n/a	n/a	n/a	n/a	n/a	n/a
3886.032	n/a	RECOG_CONF	1943016	n/a	LTP063	ltpFR	5	1	n/a	CROW	414	4	n/a	n/a	n/a	n/a	n/a	n/a
3887.462	n/a	RECOG_TARGET	1943731	n/a	LTP063	ltpFR	5	1	-1	OFFICER	973	3	-1	n/a	n/a	n/a	n/a	n/a
3889.738	n/a	RECOG_RESP	1944869	n/a	LTP063	ltpFR	5	1	-1	OFFICER	973	n/a	-1	n/a	n/a	n/a	n/a	n/a
3890.628	n/a	RECOG_CONF	1945314	n/a	LTP063	ltpFR	5	1	-1	OFFICER	973	3	-1	n/a	n/a	n/a	n/a	n/a
3892.114	n/a	RECOG_TARGET	1946057	n/a	LTP063	ltpFR	5	1	-1	HAT	690	5	-1	n/a	n/a	n/a	n/a	n/a
3892.69	n/a	RECOG_RESP	1946345	n/a	LTP063	ltpFR	5	1	-1	HAT	690	n/a	-1	n/a	n/a	n/a	n/a	n/a
3893.504	n/a	RECOG_CONF	1946752	n/a	LTP063	ltpFR	5	1	-1	HAT	690	5	-1	n/a	n/a	n/a	n/a	n/a
3895.002	n/a	RECOG_TARGET	1947501	n/a	LTP063	ltpFR	5	1	1	GRILL	661	5	0	n/a	n/a	n/a	n/a	n/a
3895.62	n/a	RECOG_RESP	1947810	n/a	LTP063	ltpFR	5	1	1	GRILL	661	n/a	0	n/a	n/a	n/a	n/a	n/a
3896.308	n/a	RECOG_CONF	1948154	n/a	LTP063	ltpFR	5	1	1	GRILL	661	5	0	n/a	n/a	n/a	n/a	n/a
3897.716	n/a	RECOG_TARGET	1948858	n/a	LTP063	ltpFR	5	1	-1	ROOT	1210	5	-1	n/a	n/a	n/a	n/a	n/a
3898.344	n/a	RECOG_RESP	1949172	n/a	LTP063	ltpFR	5	1	-1	ROOT	1210	n/a	-1	n/a	n/a	n/a	n/a	n/a
3899.042	n/a	RECOG_CONF	1949521	n/a	LTP063	ltpFR	5	1	-1	ROOT	1210	5	-1	n/a	n/a	n/a	n/a	n/a
3900.388	n/a	RECOG_TARGET	1950194	n/a	LTP063	ltpFR	5	1	1	PADDLE	1000	5	0	n/a	n/a	n/a	n/a	n/a
3900.972	n/a	RECOG_RESP	1950486	n/a	LTP063	ltpFR	5	1	1	PADDLE	1000	n/a	0	n/a	n/a	n/a	n/a	n/a
3901.686	n/a	RECOG_CONF	1950843	n/a	LTP063	ltpFR	5	1	1	PADDLE	1000	5	0	n/a	n/a	n/a	n/a	n/a
3903.05	n/a	RECOG_TARGET	1951525	n/a	LTP063	ltpFR	5	1	-1	MOTH	920	5	-1	n/a	n/a	n/a	n/a	n/a
3903.562	n/a	RECOG_RESP	1951781	n/a	LTP063	ltpFR	5	1	-1	MOTH	920	n/a	-1	n/a	n/a	n/a	n/a	n/a
3904.26	n/a	RECOG_CONF	1952130	n/a	LTP063	ltpFR	5	1	-1	MOTH	920	5	-1	n/a	n/a	n/a	n/a	n/a
3905.672	n/a	RECOG_TARGET	1952836	n/a	LTP063	ltpFR	5	1	-1	HOME	712	5	-1	n/a	n/a	n/a	n/a	n/a
3906.274	n/a	RECOG_RESP	1953137	n/a	LTP063	ltpFR	5	1	-1	HOME	712	n/a	-1	n/a	n/a	n/a	n/a	n/a
3906.974	n/a	RECOG_CONF	1953487	n/a	LTP063	ltpFR	5	1	-1	HOME	712	5	-1	n/a	n/a	n/a	n/a	n/a
3908.412	n/a	RECOG_TARGET	1954206	n/a	LTP063	ltpFR	5	1	0	ROACH	1195	5	0	n/a	n/a	n/a	n/a	n/a
3909.024	n/a	RECOG_RESP	1954512	n/a	LTP063	ltpFR	5	1	0	ROACH	1195	n/a	0	n/a	n/a	n/a	n/a	n/a
3909.79	n/a	RECOG_CONF	1954895	n/a	LTP063	ltpFR	5	1	0	ROACH	1195	5	0	n/a	n/a	n/a	n/a	n/a
3911.168	n/a	RECOG_TARGET	1955584	n/a	LTP063	ltpFR	5	1	1	MONGOOSE	909	5	1	n/a	n/a	n/a	n/a	n/a
3911.778	n/a	RECOG_RESP	1955889	n/a	LTP063	ltpFR	5	1	1	MONGOOSE	909	n/a	1	n/a	n/a	n/a	n/a	n/a
3912.452	n/a	RECOG_CONF	1956226	n/a	LTP063	ltpFR	5	1	1	MONGOOSE	909	5	1	n/a	n/a	n/a	n/a	n/a
3913.904	n/a	RECOG_LURE	1956952	n/a	LTP063	ltpFR	5	1	n/a	LEG	809	4	n/a	n/a	n/a	n/a	n/a	n/a
3914.636	n/a	RECOG_RESP	1957318	n/a	LTP063	ltpFR	5	1	n/a	LEG	809	n/a	n/a	n/a	n/a	n/a	n/a	n/a
3915.334	n/a	RECOG_CONF	1957667	n/a	LTP063	ltpFR	5	1	n/a	LEG	809	4	n/a	n/a	n/a	n/a	n/a	n/a
3918.52	n/a	REC_START	1959260	n/a	LTP063	ltpFR	5	2	n/a	n/a	n/a	n/a	n/a	n/a	n/a	n/a	n/a	n/a
3918.542	n/a	RECOG_TARGET	1959271	n/a	LTP063	ltpFR	5	2	1	PIER	1063	5	0	n/a	n/a	n/a	n/a	n/a
3919.162	n/a	RECOG_RESP	1959581	n/a	LTP063	ltpFR	5	2	1	PIER	1063	n/a	0	n/a	n/a	n/a	n/a	n/a
3919.852	n/a	RECOG_CONF	1959926	n/a	LTP063	ltpFR	5	2	1	PIER	1063	5	0	n/a	n/a	n/a	n/a	n/a
3921.24	n/a	RECOG_TARGET	1960620	n/a	LTP063	ltpFR	5	2	1	TROMBONE	1508	5	0	n/a	n/a	n/a	n/a	n/a
3921.966	n/a	RECOG_RESP	1960983	n/a	LTP063	ltpFR	5	2	1	TROMBONE	1508	n/a	0	n/a	n/a	n/a	n/a	n/a
3922.714	n/a	RECOG_CONF	1961357	n/a	LTP063	ltpFR	5	2	1	TROMBONE	1508	5	0	n/a	n/a	n/a	n/a	n/a
3924.076	n/a	RECOG_TARGET	1962038	n/a	LTP063	ltpFR	5	2	1	DESIGNER	451	5	1	n/a	n/a	n/a	n/a	n/a
3924.7	n/a	RECOG_RESP	1962350	n/a	LTP063	ltpFR	5	2	1	DESIGNER	451	n/a	1	n/a	n/a	n/a	n/a	n/a
3925.428	n/a	RECOG_CONF	1962714	n/a	LTP063	ltpFR	5	2	1	DESIGNER	451	5	1	n/a	n/a	n/a	n/a	n/a
3926.782	n/a	RECOG_TARGET	1963391	n/a	LTP063	ltpFR	5	2	1	TIMBER	1469	5	0	n/a	n/a	n/a	n/a	n/a
3927.362	n/a	RECOG_RESP	1963681	n/a	LTP063	ltpFR	5	2	1	TIMBER	1469	n/a	0	n/a	n/a	n/a	n/a	n/a
3928.102	n/a	RECOG_CONF	1964051	n/a	LTP063	ltpFR	5	2	1	TIMBER	1469	5	0	n/a	n/a	n/a	n/a	n/a
3929.562	n/a	RECOG_TARGET	1964781	n/a	LTP063	ltpFR	5	2	0	WASP	1593	5	1	n/a	n/a	n/a	n/a	n/a
3930.128	n/a	RECOG_RESP	1965064	n/a	LTP063	ltpFR	5	2	0	WASP	1593	n/a	1	n/a	n/a	n/a	n/a	n/a
3930.846	n/a	RECOG_CONF	1965423	n/a	LTP063	ltpFR	5	2	0	WASP	1593	5	1	n/a	n/a	n/a	n/a	n/a
3932.234	n/a	RECOG_LURE	1966117	n/a	LTP063	ltpFR	5	2	n/a	SKETCH	1315	4	n/a	n/a	n/a	n/a	n/a	n/a
3932.942	n/a	RECOG_RESP	1966471	n/a	LTP063	ltpFR	5	2	n/a	SKETCH	1315	n/a	n/a	n/a	n/a	n/a	n/a	n/a
3933.65	n/a	RECOG_CONF	1966825	n/a	LTP063	ltpFR	5	2	n/a	SKETCH	1315	4	n/a	n/a	n/a	n/a	n/a	n/a
3934.998	n/a	RECOG_TARGET	1967499	n/a	LTP063	ltpFR	5	2	0	PENCIL	1042	5	0	n/a	n/a	n/a	n/a	n/a
3935.626	n/a	RECOG_RESP	1967813	n/a	LTP063	ltpFR	5	2	0	PENCIL	1042	n/a	0	n/a	n/a	n/a	n/a	n/a
3936.304	n/a	RECOG_CONF	1968152	n/a	LTP063	ltpFR	5	2	0	PENCIL	1042	5	0	n/a	n/a	n/a	n/a	n/a
3937.628	n/a	RECOG_TARGET	1968814	n/a	LTP063	ltpFR	5	2	0	CANAL	226	5	1	n/a	n/a	n/a	n/a	n/a
3938.31	n/a	RECOG_RESP	1969155	n/a	LTP063	ltpFR	5	2	0	CANAL	226	n/a	1	n/a	n/a	n/a	n/a	n/a
3939.058	n/a	RECOG_CONF	1969529	n/a	LTP063	ltpFR	5	2	0	CANAL	226	5	1	n/a	n/a	n/a	n/a	n/a
3940.492	n/a	RECOG_TARGET	1970246	n/a	LTP063	ltpFR	5	2	1	FLY	586	5	1	n/a	n/a	n/a	n/a	n/a
3941.054	n/a	RECOG_RESP	1970527	n/a	LTP063	ltpFR	5	2	1	FLY	586	n/a	1	n/a	n/a	n/a	n/a	n/a
3941.772	n/a	RECOG_CONF	1970886	n/a	LTP063	ltpFR	5	2	1	FLY	586	5	1	n/a	n/a	n/a	n/a	n/a
3943.196	n/a	RECOG_TARGET	1971598	n/a	LTP063	ltpFR	5	2	-1	CASHEW	253	5	-1	n/a	n/a	n/a	n/a	n/a
3943.746	n/a	RECOG_RESP	1971873	n/a	LTP063	ltpFR	5	2	-1	CASHEW	253	n/a	-1	n/a	n/a	n/a	n/a	n/a
3944.426	n/a	RECOG_CONF	1972213	n/a	LTP063	ltpFR	5	2	-1	CASHEW	253	5	-1	n/a	n/a	n/a	n/a	n/a
3945.868	n/a	RECOG_TARGET	1972934	n/a	LTP063	ltpFR	5	2	1	COW	393	5	1	n/a	n/a	n/a	n/a	n/a
3946.332	n/a	RECOG_RESP	1973166	n/a	LTP063	ltpFR	5	2	1	COW	393	n/a	1	n/a	n/a	n/a	n/a	n/a
3947.04	n/a	RECOG_CONF	1973520	n/a	LTP063	ltpFR	5	2	1	COW	393	5	1	n/a	n/a	n/a	n/a	n/a
3948.4	n/a	RECOG_TARGET	1974200	n/a	LTP063	ltpFR	5	2	-1	SOLDIER	1344	5	-1	n/a	n/a	n/a	n/a	n/a
3948.89	n/a	RECOG_RESP	1974445	n/a	LTP063	ltpFR	5	2	-1	SOLDIER	1344	n/a	-1	n/a	n/a	n/a	n/a	n/a
3949.594	n/a	RECOG_CONF	1974797	n/a	LTP063	ltpFR	5	2	-1	SOLDIER	1344	5	-1	n/a	n/a	n/a	n/a	n/a
3950.896	n/a	RECOG_TARGET	1975448	n/a	LTP063	ltpFR	5	2	1	LAKE	796	5	0	n/a	n/a	n/a	n/a	n/a
3951.554	n/a	RECOG_RESP	1975777	n/a	LTP063	ltpFR	5	2	1	LAKE	796	n/a	0	n/a	n/a	n/a	n/a	n/a
3952.248	n/a	RECOG_CONF	1976124	n/a	LTP063	ltpFR	5	2	1	LAKE	796	5	0	n/a	n/a	n/a	n/a	n/a
3953.618	n/a	RECOG_LURE	1976809	n/a	LTP063	ltpFR	5	2	n/a	ATMOSPHERE	54	4	n/a	n/a	n/a	n/a	n/a	n/a
3954.308	n/a	RECOG_RESP	1977154	n/a	LTP063	ltpFR	5	2	n/a	ATMOSPHERE	54	n/a	n/a	n/a	n/a	n/a	n/a	n/a
3955.052	n/a	RECOG_CONF	1977526	n/a	LTP063	ltpFR	5	2	n/a	ATMOSPHERE	54	4	n/a	n/a	n/a	n/a	n/a	n/a
3956.44	n/a	RECOG_LURE	1978220	n/a	LTP063	ltpFR	5	2	n/a	ACTRESS	6	4	n/a	n/a	n/a	n/a	n/a	n/a
3957.098	n/a	RECOG_RESP	1978549	n/a	LTP063	ltpFR	5	2	n/a	ACTRESS	6	n/a	n/a	n/a	n/a	n/a	n/a	n/a
3957.796	n/a	RECOG_CONF	1978898	n/a	LTP063	ltpFR	5	2	n/a	ACTRESS	6	4	n/a	n/a	n/a	n/a	n/a	n/a
3959.18	n/a	RECOG_TARGET	1979590	n/a	LTP063	ltpFR	5	2	0	TIGER	1467	5	1	n/a	n/a	n/a	n/a	n/a
3959.782	n/a	RECOG_RESP	1979891	n/a	LTP063	ltpFR	5	2	0	TIGER	1467	n/a	1	n/a	n/a	n/a	n/a	n/a
3960.5	n/a	RECOG_CONF	1980250	n/a	LTP063	ltpFR	5	2	0	TIGER	1467	5	1	n/a	n/a	n/a	n/a	n/a
3961.942	n/a	RECOG_TARGET	1980971	n/a	LTP063	ltpFR	5	2	0	BRICK	172	5	1	n/a	n/a	n/a	n/a	n/a
3962.59	n/a	RECOG_RESP	1981295	n/a	LTP063	ltpFR	5	2	0	BRICK	172	n/a	1	n/a	n/a	n/a	n/a	n/a
3963.354	n/a	RECOG_CONF	1981677	n/a	LTP063	ltpFR	5	2	0	BRICK	172	5	1	n/a	n/a	n/a	n/a	n/a
3964.664	n/a	RECOG_LURE	1982332	n/a	LTP063	ltpFR	5	2	n/a	CHEERLEADER	288	4	n/a	n/a	n/a	n/a	n/a	n/a
3965.314	n/a	RECOG_RESP	1982657	n/a	LTP063	ltpFR	5	2	n/a	CHEERLEADER	288	n/a	n/a	n/a	n/a	n/a	n/a	n/a
3966.076	n/a	RECOG_CONF	1983038	n/a	LTP063	ltpFR	5	2	n/a	CHEERLEADER	288	4	n/a	n/a	n/a	n/a	n/a	n/a
3967.462	n/a	RECOG_LURE	1983731	n/a	LTP063	ltpFR	5	2	n/a	SHUTTER	1300	4	n/a	n/a	n/a	n/a	n/a	n/a
3968.122	n/a	RECOG_RESP	1984061	n/a	LTP063	ltpFR	5	2	n/a	SHUTTER	1300	n/a	n/a	n/a	n/a	n/a	n/a	n/a
3968.78	n/a	RECOG_CONF	1984390	n/a	LTP063	ltpFR	5	2	n/a	SHUTTER	1300	4	n/a	n/a	n/a	n/a	n/a	n/a
3970.3	n/a	RECOG_TARGET	1985150	n/a	LTP063	ltpFR	5	2	0	FIG	563	5	0	n/a	n/a	n/a	n/a	n/a
3970.892	n/a	RECOG_RESP	1985446	n/a	LTP063	ltpFR	5	2	0	FIG	563	n/a	0	n/a	n/a	n/a	n/a	n/a
3971.604	n/a	RECOG_CONF	1985802	n/a	LTP063	ltpFR	5	2	0	FIG	563	5	0	n/a	n/a	n/a	n/a	n/a
3974.774	n/a	REC_START	1987387	n/a	LTP063	ltpFR	5	3	n/a	n/a	n/a	n/a	n/a	n/a	n/a	n/a	n/a	n/a
3974.802	n/a	RECOG_TARGET	1987401	n/a	LTP063	ltpFR	5	3	1	RICE	1190	5	0	n/a	n/a	n/a	n/a	n/a
3975.352	n/a	RECOG_RESP	1987676	n/a	LTP063	ltpFR	5	3	1	RICE	1190	n/a	0	n/a	n/a	n/a	n/a	n/a
3976.026	n/a	RECOG_CONF	1988013	n/a	LTP063	ltpFR	5	3	1	RICE	1190	5	0	n/a	n/a	n/a	n/a	n/a
3977.416	n/a	RECOG_TARGET	1988708	n/a	LTP063	ltpFR	5	3	0	COBWEB	337	5	0	n/a	n/a	n/a	n/a	n/a
3977.996	n/a	RECOG_RESP	1988998	n/a	LTP063	ltpFR	5	3	0	COBWEB	337	n/a	0	n/a	n/a	n/a	n/a	n/a
3978.7	n/a	RECOG_CONF	1989350	n/a	LTP063	ltpFR	5	3	0	COBWEB	337	5	0	n/a	n/a	n/a	n/a	n/a
3980.07	n/a	RECOG_TARGET	1990035	n/a	LTP063	ltpFR	5	3	1	GOAT	644	5	1	n/a	n/a	n/a	n/a	n/a
3980.656	n/a	RECOG_RESP	1990328	n/a	LTP063	ltpFR	5	3	1	GOAT	644	n/a	1	n/a	n/a	n/a	n/a	n/a
3981.374	n/a	RECOG_CONF	1990687	n/a	LTP063	ltpFR	5	3	1	GOAT	644	5	1	n/a	n/a	n/a	n/a	n/a
3982.776	n/a	RECOG_TARGET	1991388	n/a	LTP063	ltpFR	5	3	1	HEN	703	5	1	n/a	n/a	n/a	n/a	n/a
3983.4	n/a	RECOG_RESP	1991700	n/a	LTP063	ltpFR	5	3	1	HEN	703	n/a	1	n/a	n/a	n/a	n/a	n/a
3984.088	n/a	RECOG_CONF	1992044	n/a	LTP063	ltpFR	5	3	1	HEN	703	5	1	n/a	n/a	n/a	n/a	n/a
3985.482	n/a	RECOG_TARGET	1992741	n/a	LTP063	ltpFR	5	3	0	BARREL	91	5	1	n/a	n/a	n/a	n/a	n/a
3986.078	n/a	RECOG_RESP	1993039	n/a	LTP063	ltpFR	5	3	0	BARREL	91	n/a	1	n/a	n/a	n/a	n/a	n/a
3986.772	n/a	RECOG_CONF	1993386	n/a	LTP063	ltpFR	5	3	0	BARREL	91	5	1	n/a	n/a	n/a	n/a	n/a
3988.238	n/a	RECOG_TARGET	1994119	n/a	LTP063	ltpFR	5	3	-1	WAITER	1580	5	-1	n/a	n/a	n/a	n/a	n/a
3988.928	n/a	RECOG_RESP	1994464	n/a	LTP063	ltpFR	5	3	-1	WAITER	1580	n/a	-1	n/a	n/a	n/a	n/a	n/a
3989.656	n/a	RECOG_CONF	1994828	n/a	LTP063	ltpFR	5	3	-1	WAITER	1580	5	-1	n/a	n/a	n/a	n/a	n/a
3991.066	n/a	RECOG_TARGET	1995533	n/a	LTP063	ltpFR	5	3	1	DIAL	457	5	0	n/a	n/a	n/a	n/a	n/a
3991.63	n/a	RECOG_RESP	1995815	n/a	LTP063	ltpFR	5	3	1	DIAL	457	n/a	0	n/a	n/a	n/a	n/a	n/a
3992.28	n/a	RECOG_CONF	1996140	n/a	LTP063	ltpFR	5	3	1	DIAL	457	5	0	n/a	n/a	n/a	n/a	n/a
3993.688	n/a	RECOG_TARGET	1996844	n/a	LTP063	ltpFR	5	3	0	RUST	1219	5	1	n/a	n/a	n/a	n/a	n/a
3994.26	n/a	RECOG_RESP	1997130	n/a	LTP063	ltpFR	5	3	0	RUST	1219	n/a	1	n/a	n/a	n/a	n/a	n/a
3994.914	n/a	RECOG_CONF	1997457	n/a	LTP063	ltpFR	5	3	0	RUST	1219	5	1	n/a	n/a	n/a	n/a	n/a
3996.32	n/a	RECOG_TARGET	1998160	n/a	LTP063	ltpFR	5	3	0	CHIME	300	5	0	n/a	n/a	n/a	n/a	n/a
3996.922	n/a	RECOG_RESP	1998461	n/a	LTP063	ltpFR	5	3	0	CHIME	300	n/a	0	n/a	n/a	n/a	n/a	n/a
3997.628	n/a	RECOG_CONF	1998814	n/a	LTP063	ltpFR	5	3	0	CHIME	300	5	0	n/a	n/a	n/a	n/a	n/a
3999.058	n/a	RECOG_TARGET	1999529	n/a	LTP063	ltpFR	5	3	-1	MISSILE	900	5	-1	n/a	n/a	n/a	n/a	n/a
3999.562	n/a	RECOG_RESP	1999781	n/a	LTP063	ltpFR	5	3	-1	MISSILE	900	n/a	-1	n/a	n/a	n/a	n/a	n/a
4000.292	n/a	RECOG_CONF	2000146	n/a	LTP063	ltpFR	5	3	-1	MISSILE	900	5	-1	n/a	n/a	n/a	n/a	n/a
4001.67	n/a	RECOG_TARGET	2000835	n/a	LTP063	ltpFR	5	3	-1	VICTOR	1563	5	-1	n/a	n/a	n/a	n/a	n/a
4002.236	n/a	RECOG_RESP	2001118	n/a	LTP063	ltpFR	5	3	-1	VICTOR	1563	n/a	-1	n/a	n/a	n/a	n/a	n/a
4002.956	n/a	RECOG_CONF	2001478	n/a	LTP063	ltpFR	5	3	-1	VICTOR	1563	5	-1	n/a	n/a	n/a	n/a	n/a
4004.328	n/a	RECOG_TARGET	2002164	n/a	LTP063	ltpFR	5	3	0	HELICOPTER	701	5	1	n/a	n/a	n/a	n/a	n/a
4004.91	n/a	RECOG_RESP	2002455	n/a	LTP063	ltpFR	5	3	0	HELICOPTER	701	n/a	1	n/a	n/a	n/a	n/a	n/a
4005.62	n/a	RECOG_CONF	2002810	n/a	LTP063	ltpFR	5	3	0	HELICOPTER	701	5	1	n/a	n/a	n/a	n/a	n/a
4007.064	n/a	RECOG_LURE	2003532	n/a	LTP063	ltpFR	5	3	n/a	VOLUNTEER	1577	4	n/a	n/a	n/a	n/a	n/a	n/a
4007.77	n/a	RECOG_RESP	2003885	n/a	LTP063	ltpFR	5	3	n/a	VOLUNTEER	1577	n/a	n/a	n/a	n/a	n/a	n/a	n/a
4008.462	n/a	RECOG_CONF	2004231	n/a	LTP063	ltpFR	5	3	n/a	VOLUNTEER	1577	4	n/a	n/a	n/a	n/a	n/a	n/a
4009.862	n/a	RECOG_TARGET	2004931	n/a	LTP063	ltpFR	5	3	0	ANTELOPE	27	5	1	n/a	n/a	n/a	n/a	n/a
4010.598	n/a	RECOG_RESP	2005299	n/a	LTP063	ltpFR	5	3	0	ANTELOPE	27	n/a	1	n/a	n/a	n/a	n/a	n/a
4011.336	n/a	RECOG_CONF	2005668	n/a	LTP063	ltpFR	5	3	0	ANTELOPE	27	5	1	n/a	n/a	n/a	n/a	n/a
4012.792	n/a	RECOG_TARGET	2006396	n/a	LTP063	ltpFR	5	3	-1	VOLLEYBALL	1576	5	-1	n/a	n/a	n/a	n/a	n/a
4013.68	n/a	RECOG_RESP	2006840	n/a	LTP063	ltpFR	5	3	-1	VOLLEYBALL	1576	n/a	-1	n/a	n/a	n/a	n/a	n/a
4014.45	n/a	RECOG_CONF	2007225	n/a	LTP063	ltpFR	5	3	-1	VOLLEYBALL	1576	5	-1	n/a	n/a	n/a	n/a	n/a
4015.854	n/a	RECOG_TARGET	2007927	n/a	LTP063	ltpFR	5	3	1	GHETTO	633	5	0	n/a	n/a	n/a	n/a	n/a
4016.62	n/a	RECOG_RESP	2008310	n/a	LTP063	ltpFR	5	3	1	GHETTO	633	n/a	0	n/a	n/a	n/a	n/a	n/a
4017.322	n/a	RECOG_CONF	2008661	n/a	LTP063	ltpFR	5	3	1	GHETTO	633	5	0	n/a	n/a	n/a	n/a	n/a
4018.768	n/a	RECOG_LURE	2009384	n/a	LTP063	ltpFR	5	3	n/a	FOOT	590	4	n/a	n/a	n/a	n/a	n/a	n/a
4019.428	n/a	RECOG_RESP	2009714	n/a	LTP063	ltpFR	5	3	n/a	FOOT	590	n/a	n/a	n/a	n/a	n/a	n/a	n/a
4020.146	n/a	RECOG_CONF	2010073	n/a	LTP063	ltpFR	5	3	n/a	FOOT	590	4	n/a	n/a	n/a	n/a	n/a	n/a
4021.58	n/a	RECOG_TARGET	2010790	n/a	LTP063	ltpFR	5	3	-1	CHICKEN	297	5	-1	n/a	n/a	n/a	n/a	n/a
4022.112	n/a	RECOG_RESP	2011056	n/a	LTP063	ltpFR	5	3	-1	CHICKEN	297	n/a	-1	n/a	n/a	n/a	n/a	n/a
4022.79	n/a	RECOG_CONF	2011395	n/a	LTP063	ltpFR	5	3	-1	CHICKEN	297	5	-1	n/a	n/a	n/a	n/a	n/a
4024.22	n/a	RECOG_TARGET	2012110	n/a	LTP063	ltpFR	5	3	1	ANGEL	22	5	0	n/a	n/a	n/a	n/a	n/a
4024.756	n/a	RECOG_RESP	2012378	n/a	LTP063	ltpFR	5	3	1	ANGEL	22	n/a	0	n/a	n/a	n/a	n/a	n/a
4025.474	n/a	RECOG_CONF	2012737	n/a	LTP063	ltpFR	5	3	1	ANGEL	22	5	0	n/a	n/a	n/a	n/a	n/a
4026.808	n/a	RECOG_TARGET	2013404	n/a	LTP063	ltpFR	5	3	-1	CLIMBER	323	5	-1	n/a	n/a	n/a	n/a	n/a
4027.49	n/a	RECOG_RESP	2013745	n/a	LTP063	ltpFR	5	3	-1	CLIMBER	323	n/a	-1	n/a	n/a	n/a	n/a	n/a
4028.208	n/a	RECOG_CONF	2014104	n/a	LTP063	ltpFR	5	3	-1	CLIMBER	323	5	-1	n/a	n/a	n/a	n/a	n/a
4031.612	n/a	REC_START	2015806	n/a	LTP063	ltpFR	5	4	n/a	n/a	n/a	n/a	n/a	n/a	n/a	n/a	n/a	n/a
4031.638	n/a	RECOG_LURE	2015819	n/a	LTP063	ltpFR	5	4	n/a	WINGS	1614	4	n/a	n/a	n/a	n/a	n/a	n/a
4032.564	n/a	RECOG_RESP	2016282	n/a	LTP063	ltpFR	5	4	n/a	WINGS	1614	n/a	n/a	n/a	n/a	n/a	n/a	n/a
4033.294	n/a	RECOG_CONF	2016647	n/a	LTP063	ltpFR	5	4	n/a	WINGS	1614	4	n/a	n/a	n/a	n/a	n/a	n/a
4034.726	n/a	RECOG_LURE	2017363	n/a	LTP063	ltpFR	5	4	n/a	DEPARTMENT	449	4	n/a	n/a	n/a	n/a	n/a	n/a
4035.488	n/a	RECOG_RESP	2017744	n/a	LTP063	ltpFR	5	4	n/a	DEPARTMENT	449	n/a	n/a	n/a	n/a	n/a	n/a	n/a
4036.176	n/a	RECOG_CONF	2018088	n/a	LTP063	ltpFR	5	4	n/a	DEPARTMENT	449	4	n/a	n/a	n/a	n/a	n/a	n/a
4037.58	n/a	RECOG_TARGET	2018790	n/a	LTP063	ltpFR	5	4	0	HUSBAND	728	5	1	n/a	n/a	n/a	n/a	n/a
4038.192	n/a	RECOG_RESP	2019096	n/a	LTP063	ltpFR	5	4	0	HUSBAND	728	n/a	1	n/a	n/a	n/a	n/a	n/a
4038.85	n/a	RECOG_CONF	2019425	n/a	LTP063	ltpFR	5	4	0	HUSBAND	728	5	1	n/a	n/a	n/a	n/a	n/a
4040.278	n/a	RECOG_TARGET	2020139	n/a	LTP063	ltpFR	5	4	0	INSECT	740	5	1	n/a	n/a	n/a	n/a	n/a
4040.886	n/a	RECOG_RESP	2020443	n/a	LTP063	ltpFR	5	4	0	INSECT	740	n/a	1	n/a	n/a	n/a	n/a	n/a
4041.584	n/a	RECOG_CONF	2020792	n/a	LTP063	ltpFR	5	4	0	INSECT	740	5	1	n/a	n/a	n/a	n/a	n/a
4042.924	n/a	RECOG_TARGET	2021462	n/a	LTP063	ltpFR	5	4	-1	CASH	252	5	-1	n/a	n/a	n/a	n/a	n/a
4043.536	n/a	RECOG_RESP	2021768	n/a	LTP063	ltpFR	5	4	-1	CASH	252	n/a	-1	n/a	n/a	n/a	n/a	n/a
4044.218	n/a	RECOG_CONF	2022109	n/a	LTP063	ltpFR	5	4	-1	CASH	252	5	-1	n/a	n/a	n/a	n/a	n/a
4045.556	n/a	RECOG_TARGET	2022778	n/a	LTP063	ltpFR	5	4	0	CRIMINAL	409	5	1	n/a	n/a	n/a	n/a	n/a
4046.138	n/a	RECOG_RESP	2023069	n/a	LTP063	ltpFR	5	4	0	CRIMINAL	409	n/a	1	n/a	n/a	n/a	n/a	n/a
4046.832	n/a	RECOG_CONF	2023416	n/a	LTP063	ltpFR	5	4	0	CRIMINAL	409	5	1	n/a	n/a	n/a	n/a	n/a
4048.244	n/a	RECOG_TARGET	2024122	n/a	LTP063	ltpFR	5	4	1	OCEAN	970	4	0	n/a	n/a	n/a	n/a	n/a
4049.058	n/a	RECOG_RESP	2024529	n/a	LTP063	ltpFR	5	4	1	OCEAN	970	n/a	0	n/a	n/a	n/a	n/a	n/a
4049.796	n/a	RECOG_CONF	2024898	n/a	LTP063	ltpFR	5	4	1	OCEAN	970	4	0	n/a	n/a	n/a	n/a	n/a
4051.216	n/a	RECOG_TARGET	2025608	n/a	LTP063	ltpFR	5	4	0	BEVERAGE	123	5	0	n/a	n/a	n/a	n/a	n/a
4051.786	n/a	RECOG_RESP	2025893	n/a	LTP063	ltpFR	5	4	0	BEVERAGE	123	n/a	0	n/a	n/a	n/a	n/a	n/a
4052.44	n/a	RECOG_CONF	2026220	n/a	LTP063	ltpFR	5	4	0	BEVERAGE	123	5	0	n/a	n/a	n/a	n/a	n/a
4053.878	n/a	RECOG_TARGET	2026939	n/a	LTP063	ltpFR	5	4	-1	DELINQUENT	445	5	-1	n/a	n/a	n/a	n/a	n/a
4054.466	n/a	RECOG_RESP	2027233	n/a	LTP063	ltpFR	5	4	-1	DELINQUENT	445	n/a	-1	n/a	n/a	n/a	n/a	n/a
4055.164	n/a	RECOG_CONF	2027582	n/a	LTP063	ltpFR	5	4	-1	DELINQUENT	445	5	-1	n/a	n/a	n/a	n/a	n/a
4056.534	n/a	RECOG_TARGET	2028267	n/a	LTP063	ltpFR	5	4	1	FLESH	579	4	1	n/a	n/a	n/a	n/a	n/a
4057.408	n/a	RECOG_RESP	2028704	n/a	LTP063	ltpFR	5	4	1	FLESH	579	n/a	1	n/a	n/a	n/a	n/a	n/a
4058.118	n/a	RECOG_CONF	2029059	n/a	LTP063	ltpFR	5	4	1	FLESH	579	4	1	n/a	n/a	n/a	n/a	n/a
4059.522	n/a	RECOG_LURE	2029761	n/a	LTP063	ltpFR	5	4	n/a	CHICK	296	4	n/a	n/a	n/a	n/a	n/a	n/a
4060.268	n/a	RECOG_RESP	2030134	n/a	LTP063	ltpFR	5	4	n/a	CHICK	296	n/a	n/a	n/a	n/a	n/a	n/a	n/a
4061.0	n/a	RECOG_CONF	2030500	n/a	LTP063	ltpFR	5	4	n/a	CHICK	296	4	n/a	n/a	n/a	n/a	n/a	n/a
4062.394	n/a	RECOG_TARGET	2031197	n/a	LTP063	ltpFR	5	4	0	DISH	474	5	0	n/a	n/a	n/a	n/a	n/a
4062.962	n/a	RECOG_RESP	2031481	n/a	LTP063	ltpFR	5	4	0	DISH	474	n/a	0	n/a	n/a	n/a	n/a	n/a
4063.624	n/a	RECOG_CONF	2031812	n/a	LTP063	ltpFR	5	4	0	DISH	474	5	0	n/a	n/a	n/a	n/a	n/a
4065.04	n/a	RECOG_TARGET	2032520	n/a	LTP063	ltpFR	5	4	1	RAFT	1159	5	0	n/a	n/a	n/a	n/a	n/a
4065.84	n/a	RECOG_RESP	2032920	n/a	LTP063	ltpFR	5	4	1	RAFT	1159	n/a	0	n/a	n/a	n/a	n/a	n/a
4066.518	n/a	RECOG_CONF	2033259	n/a	LTP063	ltpFR	5	4	1	RAFT	1159	5	0	n/a	n/a	n/a	n/a	n/a
4067.954	n/a	RECOG_TARGET	2033977	n/a	LTP063	ltpFR	5	4	-1	FLOUR	583	5	-1	n/a	n/a	n/a	n/a	n/a
4068.538	n/a	RECOG_RESP	2034269	n/a	LTP063	ltpFR	5	4	-1	FLOUR	583	n/a	-1	n/a	n/a	n/a	n/a	n/a
4069.202	n/a	RECOG_CONF	2034601	n/a	LTP063	ltpFR	5	4	-1	FLOUR	583	5	-1	n/a	n/a	n/a	n/a	n/a
4070.592	n/a	RECOG_TARGET	2035296	n/a	LTP063	ltpFR	5	4	0	PERSON	1052	5	1	n/a	n/a	n/a	n/a	n/a
4071.158	n/a	RECOG_RESP	2035579	n/a	LTP063	ltpFR	5	4	0	PERSON	1052	n/a	1	n/a	n/a	n/a	n/a	n/a
4071.826	n/a	RECOG_CONF	2035913	n/a	LTP063	ltpFR	5	4	0	PERSON	1052	5	1	n/a	n/a	n/a	n/a	n/a
4073.298	n/a	RECOG_TARGET	2036649	n/a	LTP063	ltpFR	5	4	-1	CUCUMBER	421	3	-1	n/a	n/a	n/a	n/a	n/a
4073.938	n/a	RECOG_RESP_VV	2036969	n/a	LTP063	ltpFR	5	4	-1	CUCUMBER	421	n/a	-1	n/a	n/a	n/a	n/a	n/a
4075.308	n/a	RECOG_RESP	2037654	n/a	LTP063	ltpFR	5	4	-1	CUCUMBER	421	n/a	-1	n/a	n/a	n/a	n/a	n/a
4076.864	n/a	RECOG_CONF	2038432	n/a	LTP063	ltpFR	5	4	-1	CUCUMBER	421	3	-1	n/a	n/a	n/a	n/a	n/a
4078.292	n/a	RECOG_TARGET	2039146	n/a	LTP063	ltpFR	5	4	0	PUPIL	1143	5	0	n/a	n/a	n/a	n/a	n/a
4078.94	n/a	RECOG_RESP	2039470	n/a	LTP063	ltpFR	5	4	0	PUPIL	1143	n/a	0	n/a	n/a	n/a	n/a	n/a
4079.558	n/a	RECOG_CONF	2039779	n/a	LTP063	ltpFR	5	4	0	PUPIL	1143	5	0	n/a	n/a	n/a	n/a	n/a
4081.03	n/a	RECOG_TARGET	2040515	n/a	LTP063	ltpFR	5	4	1	GARBAGE	622	5	0	n/a	n/a	n/a	n/a	n/a
4081.674	n/a	RECOG_RESP	2040837	n/a	LTP063	ltpFR	5	4	1	GARBAGE	622	n/a	0	n/a	n/a	n/a	n/a	n/a
4082.282	n/a	RECOG_CONF	2041141	n/a	LTP063	ltpFR	5	4	1	GARBAGE	622	5	0	n/a	n/a	n/a	n/a	n/a
4083.776	n/a	RECOG_LURE	2041888	n/a	LTP063	ltpFR	5	4	n/a	STOCKING	1383	4	n/a	n/a	n/a	n/a	n/a	n/a
4084.776	n/a	RECOG_RESP	2042388	n/a	LTP063	ltpFR	5	4	n/a	STOCKING	1383	n/a	n/a	n/a	n/a	n/a	n/a	n/a
4085.474	n/a	RECOG_CONF	2042737	n/a	LTP063	ltpFR	5	4	n/a	STOCKING	1383	4	n/a	n/a	n/a	n/a	n/a	n/a
4086.94	n/a	RECOG_TARGET	2043470	n/a	LTP063	ltpFR	5	4	-1	LIMOUSINE	824	5	-1	n/a	n/a	n/a	n/a	n/a
4087.53	n/a	RECOG_RESP	2043765	n/a	LTP063	ltpFR	5	4	-1	LIMOUSINE	824	n/a	-1	n/a	n/a	n/a	n/a	n/a
4088.188	n/a	RECOG_CONF	2044094	n/a	LTP063	ltpFR	5	4	-1	LIMOUSINE	824	5	-1	n/a	n/a	n/a	n/a	n/a
4091.33	n/a	REC_START	2045665	n/a	LTP063	ltpFR	5	5	n/a	n/a	n/a	n/a	n/a	n/a	n/a	n/a	n/a	n/a
4091.36	n/a	RECOG_TARGET	2045680	n/a	LTP063	ltpFR	5	5	0	DRIVEWAY	500	5	1	n/a	n/a	n/a	n/a	n/a
4092.072	n/a	RECOG_RESP	2046036	n/a	LTP063	ltpFR	5	5	0	DRIVEWAY	500	n/a	1	n/a	n/a	n/a	n/a	n/a
4092.752	n/a	RECOG_CONF	2046376	n/a	LTP063	ltpFR	5	5	0	DRIVEWAY	500	5	1	n/a	n/a	n/a	n/a	n/a
4094.174	n/a	RECOG_TARGET	2047087	n/a	LTP063	ltpFR	5	5	0	SWAMP	1416	5	1	n/a	n/a	n/a	n/a	n/a
4094.736	n/a	RECOG_RESP	2047368	n/a	LTP063	ltpFR	5	5	0	SWAMP	1416	n/a	1	n/a	n/a	n/a	n/a	n/a
4095.396	n/a	RECOG_CONF	2047698	n/a	LTP063	ltpFR	5	5	0	SWAMP	1416	5	1	n/a	n/a	n/a	n/a	n/a
4096.77	n/a	RECOG_LURE	2048385	n/a	LTP063	ltpFR	5	5	n/a	PHYSICIAN	1056	4	n/a	n/a	n/a	n/a	n/a	n/a
4097.456	n/a	RECOG_RESP	2048728	n/a	LTP063	ltpFR	5	5	n/a	PHYSICIAN	1056	n/a	n/a	n/a	n/a	n/a	n/a	n/a
4098.138	n/a	RECOG_CONF	2049069	n/a	LTP063	ltpFR	5	5	n/a	PHYSICIAN	1056	4	n/a	n/a	n/a	n/a	n/a	n/a
4099.542	n/a	RECOG_TARGET	2049771	n/a	LTP063	ltpFR	5	5	1	SUSPECT	1415	3	1	n/a	n/a	n/a	n/a	n/a
4100.534	n/a	RECOG_RESP	2050267	n/a	LTP063	ltpFR	5	5	1	SUSPECT	1415	n/a	1	n/a	n/a	n/a	n/a	n/a
4101.132	n/a	RECOG_CONF	2050566	n/a	LTP063	ltpFR	5	5	1	SUSPECT	1415	3	1	n/a	n/a	n/a	n/a	n/a
4102.596	n/a	RECOG_TARGET	2051298	n/a	LTP063	ltpFR	5	5	0	FOUNTAIN	597	5	1	n/a	n/a	n/a	n/a	n/a
4103.168	n/a	RECOG_RESP	2051584	n/a	LTP063	ltpFR	5	5	0	FOUNTAIN	597	n/a	1	n/a	n/a	n/a	n/a	n/a
4103.836	n/a	RECOG_CONF	2051918	n/a	LTP063	ltpFR	5	5	0	FOUNTAIN	597	5	1	n/a	n/a	n/a	n/a	n/a
4105.286	n/a	RECOG_TARGET	2052643	n/a	LTP063	ltpFR	5	5	1	BUGLE	189	5	0	n/a	n/a	n/a	n/a	n/a
4105.822	n/a	RECOG_RESP	2052911	n/a	LTP063	ltpFR	5	5	1	BUGLE	189	n/a	0	n/a	n/a	n/a	n/a	n/a
4106.48	n/a	RECOG_CONF	2053240	n/a	LTP063	ltpFR	5	5	1	BUGLE	189	5	0	n/a	n/a	n/a	n/a	n/a
4107.874	n/a	RECOG_TARGET	2053937	n/a	LTP063	ltpFR	5	5	0	GRASSHOPPER	656	5	0	n/a	n/a	n/a	n/a	n/a
4108.616	n/a	RECOG_RESP	2054308	n/a	LTP063	ltpFR	5	5	0	GRASSHOPPER	656	n/a	0	n/a	n/a	n/a	n/a	n/a
4109.254	n/a	RECOG_CONF	2054627	n/a	LTP063	ltpFR	5	5	0	GRASSHOPPER	656	5	0	n/a	n/a	n/a	n/a	n/a
4110.638	n/a	RECOG_TARGET	2055319	n/a	LTP063	ltpFR	5	5	0	FIGHTER	564	5	1	n/a	n/a	n/a	n/a	n/a
4111.16	n/a	RECOG_RESP	2055580	n/a	LTP063	ltpFR	5	5	0	FIGHTER	564	n/a	1	n/a	n/a	n/a	n/a	n/a
4111.818	n/a	RECOG_CONF	2055909	n/a	LTP063	ltpFR	5	5	0	FIGHTER	564	5	1	n/a	n/a	n/a	n/a	n/a
4113.168	n/a	RECOG_TARGET	2056584	n/a	LTP063	ltpFR	5	5	0	CATERPILLAR	259	5	0	n/a	n/a	n/a	n/a	n/a
4113.738	n/a	RECOG_RESP	2056869	n/a	LTP063	ltpFR	5	5	0	CATERPILLAR	259	n/a	0	n/a	n/a	n/a	n/a	n/a
4114.382	n/a	RECOG_CONF	2057191	n/a	LTP063	ltpFR	5	5	0	CATERPILLAR	259	5	0	n/a	n/a	n/a	n/a	n/a
4115.866	n/a	RECOG_TARGET	2057933	n/a	LTP063	ltpFR	5	5	1	CLAM	315	5	1	n/a	n/a	n/a	n/a	n/a
4116.418	n/a	RECOG_RESP	2058209	n/a	LTP063	ltpFR	5	5	1	CLAM	315	n/a	1	n/a	n/a	n/a	n/a	n/a
4117.056	n/a	RECOG_CONF	2058528	n/a	LTP063	ltpFR	5	5	1	CLAM	315	5	1	n/a	n/a	n/a	n/a	n/a
4118.53	n/a	RECOG_TARGET	2059265	n/a	LTP063	ltpFR	5	5	-1	FRUIT	610	5	-1	n/a	n/a	n/a	n/a	n/a
4119.102	n/a	RECOG_RESP	2059551	n/a	LTP063	ltpFR	5	5	-1	FRUIT	610	n/a	-1	n/a	n/a	n/a	n/a	n/a
4119.78	n/a	RECOG_CONF	2059890	n/a	LTP063	ltpFR	5	5	-1	FRUIT	610	5	-1	n/a	n/a	n/a	n/a	n/a
4121.286	n/a	RECOG_LURE	2060643	n/a	LTP063	ltpFR	5	5	n/a	EUROPE	541	4	n/a	n/a	n/a	n/a	n/a	n/a
4121.97	n/a	RECOG_RESP	2060985	n/a	LTP063	ltpFR	5	5	n/a	EUROPE	541	n/a	n/a	n/a	n/a	n/a	n/a	n/a
4122.664	n/a	RECOG_CONF	2061332	n/a	LTP063	ltpFR	5	5	n/a	EUROPE	541	4	n/a	n/a	n/a	n/a	n/a	n/a
4124.072	n/a	RECOG_TARGET	2062036	n/a	LTP063	ltpFR	5	5	0	LAGOON	795	5	1	n/a	n/a	n/a	n/a	n/a
4124.6	n/a	RECOG_RESP	2062300	n/a	LTP063	ltpFR	5	5	0	LAGOON	795	n/a	1	n/a	n/a	n/a	n/a	n/a
4125.248	n/a	RECOG_CONF	2062624	n/a	LTP063	ltpFR	5	5	0	LAGOON	795	5	1	n/a	n/a	n/a	n/a	n/a
4126.602	n/a	RECOG_LURE	2063301	n/a	LTP063	ltpFR	5	5	n/a	TABLE	1426	4	n/a	n/a	n/a	n/a	n/a	n/a
4127.208	n/a	RECOG_RESP	2063604	n/a	LTP063	ltpFR	5	5	n/a	TABLE	1426	n/a	n/a	n/a	n/a	n/a	n/a	n/a
4127.852	n/a	RECOG_CONF	2063926	n/a	LTP063	ltpFR	5	5	n/a	TABLE	1426	4	n/a	n/a	n/a	n/a	n/a	n/a
4129.26	n/a	RECOG_TARGET	2064630	n/a	LTP063	ltpFR	5	5	0	MOSS	918	5	0	n/a	n/a	n/a	n/a	n/a
4129.758	n/a	RECOG_RESP	2064879	n/a	LTP063	ltpFR	5	5	0	MOSS	918	n/a	0	n/a	n/a	n/a	n/a	n/a
4130.396	n/a	RECOG_CONF	2065198	n/a	LTP063	ltpFR	5	5	0	MOSS	918	5	0	n/a	n/a	n/a	n/a	n/a
4131.822	n/a	RECOG_LURE	2065911	n/a	LTP063	ltpFR	5	5	n/a	TWISTER	1530	4	n/a	n/a	n/a	n/a	n/a	n/a
4132.476	n/a	RECOG_RESP	2066238	n/a	LTP063	ltpFR	5	5	n/a	TWISTER	1530	n/a	n/a	n/a	n/a	n/a	n/a	n/a
4133.17	n/a	RECOG_CONF	2066585	n/a	LTP063	ltpFR	5	5	n/a	TWISTER	1530	4	n/a	n/a	n/a	n/a	n/a	n/a
4134.594	n/a	RECOG_TARGET	2067297	n/a	LTP063	ltpFR	5	5	-1	CAFE	216	5	-1	n/a	n/a	n/a	n/a	n/a
4135.18	n/a	RECOG_RESP	2067590	n/a	LTP063	ltpFR	5	5	-1	CAFE	216	n/a	-1	n/a	n/a	n/a	n/a	n/a
4135.854	n/a	RECOG_CONF	2067927	n/a	LTP063	ltpFR	5	5	-1	CAFE	216	5	-1	n/a	n/a	n/a	n/a	n/a
4137.208	n/a	RECOG_TARGET	2068604	n/a	LTP063	ltpFR	5	5	1	VEHICLE	1553	5	0	n/a	n/a	n/a	n/a	n/a
4137.76	n/a	RECOG_RESP	2068880	n/a	LTP063	ltpFR	5	5	1	VEHICLE	1553	n/a	0	n/a	n/a	n/a	n/a	n/a
4138.398	n/a	RECOG_CONF	2069199	n/a	LTP063	ltpFR	5	5	1	VEHICLE	1553	5	0	n/a	n/a	n/a	n/a	n/a
4139.788	n/a	RECOG_TARGET	2069894	n/a	LTP063	ltpFR	5	5	0	VALVE	1546	5	0	n/a	n/a	n/a	n/a	n/a
4140.484	n/a	RECOG_RESP	2070242	n/a	LTP063	ltpFR	5	5	0	VALVE	1546	n/a	0	n/a	n/a	n/a	n/a	n/a
4141.182	n/a	RECOG_CONF	2070591	n/a	LTP063	ltpFR	5	5	0	VALVE	1546	5	0	n/a	n/a	n/a	n/a	n/a
4142.56	n/a	RECOG_TARGET	2071280	n/a	LTP063	ltpFR	5	5	0	WRIST	1626	5	0	n/a	n/a	n/a	n/a	n/a
4143.092	n/a	RECOG_RESP	2071546	n/a	LTP063	ltpFR	5	5	0	WRIST	1626	n/a	0	n/a	n/a	n/a	n/a	n/a
4143.746	n/a	RECOG_CONF	2071873	n/a	LTP063	ltpFR	5	5	0	WRIST	1626	5	0	n/a	n/a	n/a	n/a	n/a
4146.876	n/a	REC_START	2073438	n/a	LTP063	ltpFR	5	6	n/a	n/a	n/a	n/a	n/a	n/a	n/a	n/a	n/a	n/a
4146.904	n/a	RECOG_TARGET	2073452	n/a	LTP063	ltpFR	5	6	0	TRACTOR	1493	5	1	n/a	n/a	n/a	n/a	n/a
4147.61	n/a	RECOG_RESP	2073805	n/a	LTP063	ltpFR	5	6	0	TRACTOR	1493	n/a	1	n/a	n/a	n/a	n/a	n/a
4148.288	n/a	RECOG_CONF	2074144	n/a	LTP063	ltpFR	5	6	0	TRACTOR	1493	5	1	n/a	n/a	n/a	n/a	n/a
4149.618	n/a	RECOG_LURE	2074809	n/a	LTP063	ltpFR	5	6	n/a	BACKBONE	66	4	n/a	n/a	n/a	n/a	n/a	n/a
4150.308	n/a	RECOG_RESP	2075154	n/a	LTP063	ltpFR	5	6	n/a	BACKBONE	66	n/a	n/a	n/a	n/a	n/a	n/a	n/a
4150.982	n/a	RECOG_CONF	2075491	n/a	LTP063	ltpFR	5	6	n/a	BACKBONE	66	4	n/a	n/a	n/a	n/a	n/a	n/a
4152.408	n/a	RECOG_TARGET	2076204	n/a	LTP063	ltpFR	5	6	1	PLASTER	1085	5	0	n/a	n/a	n/a	n/a	n/a
4152.918	n/a	RECOG_RESP	2076459	n/a	LTP063	ltpFR	5	6	1	PLASTER	1085	n/a	0	n/a	n/a	n/a	n/a	n/a
4153.556	n/a	RECOG_CONF	2076778	n/a	LTP063	ltpFR	5	6	1	PLASTER	1085	5	0	n/a	n/a	n/a	n/a	n/a
4154.994	n/a	RECOG_TARGET	2077497	n/a	LTP063	ltpFR	5	6	1	BUN	197	5	0	n/a	n/a	n/a	n/a	n/a
4155.582	n/a	RECOG_RESP	2077791	n/a	LTP063	ltpFR	5	6	1	BUN	197	n/a	0	n/a	n/a	n/a	n/a	n/a
4156.19	n/a	RECOG_CONF	2078095	n/a	LTP063	ltpFR	5	6	1	BUN	197	5	0	n/a	n/a	n/a	n/a	n/a
4157.6	n/a	RECOG_TARGET	2078800	n/a	LTP063	ltpFR	5	6	1	POLICE	1098	5	1	n/a	n/a	n/a	n/a	n/a
4158.17	n/a	RECOG_RESP	2079085	n/a	LTP063	ltpFR	5	6	1	POLICE	1098	n/a	1	n/a	n/a	n/a	n/a	n/a
4158.834	n/a	RECOG_CONF	2079417	n/a	LTP063	ltpFR	5	6	1	POLICE	1098	5	1	n/a	n/a	n/a	n/a	n/a
4160.29	n/a	RECOG_TARGET	2080145	n/a	LTP063	ltpFR	5	6	1	CORN	381	5	1	n/a	n/a	n/a	n/a	n/a
4160.844	n/a	RECOG_RESP	2080422	n/a	LTP063	ltpFR	5	6	1	CORN	381	n/a	1	n/a	n/a	n/a	n/a	n/a
4161.448	n/a	RECOG_CONF	2080724	n/a	LTP063	ltpFR	5	6	1	CORN	381	5	1	n/a	n/a	n/a	n/a	n/a
4162.878	n/a	RECOG_TARGET	2081439	n/a	LTP063	ltpFR	5	6	1	ASSISTANT	48	5	1	n/a	n/a	n/a	n/a	n/a
4163.588	n/a	RECOG_RESP	2081794	n/a	LTP063	ltpFR	5	6	1	ASSISTANT	48	n/a	1	n/a	n/a	n/a	n/a	n/a
4164.252	n/a	RECOG_CONF	2082126	n/a	LTP063	ltpFR	5	6	1	ASSISTANT	48	5	1	n/a	n/a	n/a	n/a	n/a
4165.624	n/a	RECOG_TARGET	2082812	n/a	LTP063	ltpFR	5	6	1	STRAWBERRY	1391	5	1	n/a	n/a	n/a	n/a	n/a
4166.108	n/a	RECOG_RESP	2083054	n/a	LTP063	ltpFR	5	6	1	STRAWBERRY	1391	n/a	1	n/a	n/a	n/a	n/a	n/a
4166.716	n/a	RECOG_CONF	2083358	n/a	LTP063	ltpFR	5	6	1	STRAWBERRY	1391	5	1	n/a	n/a	n/a	n/a	n/a
4168.14	n/a	RECOG_TARGET	2084070	n/a	LTP063	ltpFR	5	6	0	TERMINAL	1450	5	1	n/a	n/a	n/a	n/a	n/a
4170.144	n/a	RECOG_RESP	2085072	n/a	LTP063	ltpFR	5	6	0	TERMINAL	1450	n/a	1	n/a	n/a	n/a	n/a	n/a
4170.748	n/a	RECOG_CONF	2085374	n/a	LTP063	ltpFR	5	6	0	TERMINAL	1450	5	1	n/a	n/a	n/a	n/a	n/a
4172.168	n/a	RECOG_TARGET	2086084	n/a	LTP063	ltpFR	5	6	0	PIE	1062	5	0	n/a	n/a	n/a	n/a	n/a
4172.822	n/a	RECOG_RESP	2086411	n/a	LTP063	ltpFR	5	6	0	PIE	1062	n/a	0	n/a	n/a	n/a	n/a	n/a
4173.43	n/a	RECOG_CONF	2086715	n/a	LTP063	ltpFR	5	6	0	PIE	1062	5	0	n/a	n/a	n/a	n/a	n/a
4174.864	n/a	RECOG_LURE	2087432	n/a	LTP063	ltpFR	5	6	n/a	CHARCOAL	281	4	n/a	n/a	n/a	n/a	n/a	n/a
4175.562	n/a	RECOG_RESP	2087781	n/a	LTP063	ltpFR	5	6	n/a	CHARCOAL	281	n/a	n/a	n/a	n/a	n/a	n/a	n/a
4176.204	n/a	RECOG_CONF	2088102	n/a	LTP063	ltpFR	5	6	n/a	CHARCOAL	281	4	n/a	n/a	n/a	n/a	n/a	n/a
4177.626	n/a	RECOG_TARGET	2088813	n/a	LTP063	ltpFR	5	6	1	SAILOR	1223	5	1	n/a	n/a	n/a	n/a	n/a
