onset	duration	trial_type	sample	stim_file	subject	experiment	session	trial	item_name	item_num	list	answer	test_x	test_y	test_z
65.16	n/a	SESS_START	32580	n/a	LTP207	ltpFR2	6	n/a	n/a	n/a	n/a	n/a	0	0	0
279.292	n/a	SESS_START	139646	n/a	LTP207	ltpFR2	6	n/a	n/a	n/a	n/a	n/a	0	0	0
304.106	n/a	START	152053	n/a	LTP207	ltpFR2	6	n/a	n/a	n/a	-1	n/a	n/a	n/a	n/a
304.138	n/a	PROB	152069	n/a	LTP207	ltpFR2	6	n/a	n/a	n/a	-1	16	4	3	9
307.318	n/a	PROB	153659	n/a	LTP207	ltpFR2	6	n/a	n/a	n/a	-1	17	9	4	4
308.748	n/a	PROB	154374	n/a	LTP207	ltpFR2	6	n/a	n/a	n/a	-1	16	4	9	3
310.496	n/a	PROB	155248	n/a	LTP207	ltpFR2	6	n/a	n/a	n/a	-1	16	7	2	7
311.91	n/a	PROB	155955	n/a	LTP207	ltpFR2	6	n/a	n/a	n/a	-1	15	7	5	3
313.242	n/a	PROB	156621	n/a	LTP207	ltpFR2	6	n/a	n/a	n/a	-1	13	5	7	1
315.38	n/a	STOP	157690	n/a	LTP207	ltpFR2	6	n/a	n/a	n/a	-1	n/a	n/a	n/a	n/a
356.728	n/a	DISTRACTOR	178364	n/a	LTP207	ltpFR2	6	1	n/a	n/a	n/a	n/a	0	0	0
356.728	n/a	START	178364	n/a	LTP207	ltpFR2	6	n/a	n/a	n/a	1	n/a	n/a	n/a	n/a
356.76	n/a	PROB	178380	n/a	LTP207	ltpFR2	6	n/a	n/a	n/a	1	13	6	6	1
358.276	n/a	PROB	179138	n/a	LTP207	ltpFR2	6	n/a	n/a	n/a	1	12	1	3	7
359.64	n/a	PROB	179820	n/a	LTP207	ltpFR2	6	n/a	n/a	n/a	1	21	9	7	5
361.786	n/a	PROB	180893	n/a	LTP207	ltpFR2	6	n/a	n/a	n/a	1	18	7	8	3
363.252	n/a	PROB	181626	n/a	LTP207	ltpFR2	6	n/a	n/a	n/a	1	10	4	2	2
364.932	n/a	PROB	182466	n/a	LTP207	ltpFR2	6	n/a	n/a	n/a	1	10	1	1	8
366.762	n/a	PROB	183381	n/a	LTP207	ltpFR2	6	n/a	n/a	n/a	1	7	3	1	3
367.994	n/a	PROB	183997	n/a	LTP207	ltpFR2	6	n/a	n/a	n/a	1	18	9	1	8
369.076	n/a	PROB	184538	n/a	LTP207	ltpFR2	6	n/a	n/a	n/a	1	10	3	5	2
371.106	n/a	PROB	185553	n/a	LTP207	ltpFR2	6	n/a	n/a	n/a	1	11	1	9	1
372.088	n/a	PROB	186044	n/a	LTP207	ltpFR2	6	n/a	n/a	n/a	1	21	7	7	7
373.336	n/a	PROB	186668	n/a	LTP207	ltpFR2	6	n/a	n/a	n/a	1	8	5	2	1
374.552	n/a	PROB	187276	n/a	LTP207	ltpFR2	6	n/a	n/a	n/a	1	12	5	1	6
376.016	n/a	PROB	188008	n/a	LTP207	ltpFR2	6	n/a	n/a	n/a	1	17	8	1	7
377.896	n/a	PROB	188948	n/a	LTP207	ltpFR2	6	n/a	n/a	n/a	1	9	2	2	5
379.358	n/a	STOP	189679	n/a	LTP207	ltpFR2	6	n/a	n/a	n/a	1	n/a	n/a	n/a	n/a
381.856	n/a	WORD	190928	wordpools/wasnorm_wordpool_576.txt	LTP207	ltpFR2	6	1	TABLE	1426	n/a	n/a	0	0	0
384.37	n/a	WORD	192185	wordpools/wasnorm_wordpool_576.txt	LTP207	ltpFR2	6	1	NEUTRON	947	n/a	n/a	0	0	0
387.05	n/a	WORD	193525	wordpools/wasnorm_wordpool_576.txt	LTP207	ltpFR2	6	1	FOREST	593	n/a	n/a	0	0	0
389.546	n/a	WORD	194773	wordpools/wasnorm_wordpool_576.txt	LTP207	ltpFR2	6	1	COCOON	339	n/a	n/a	0	0	0
392.174	n/a	WORD	196087	wordpools/wasnorm_wordpool_576.txt	LTP207	ltpFR2	6	1	MOTEL	919	n/a	n/a	0	0	0
394.638	n/a	WORD	197319	wordpools/wasnorm_wordpool_576.txt	LTP207	ltpFR2	6	1	PERMIT	1051	n/a	n/a	0	0	0
397.168	n/a	WORD	198584	wordpools/wasnorm_wordpool_576.txt	LTP207	ltpFR2	6	1	SUSPECT	1415	n/a	n/a	0	0	0
399.93	n/a	WORD	199965	wordpools/wasnorm_wordpool_576.txt	LTP207	ltpFR2	6	1	POLICE	1098	n/a	n/a	0	0	0
402.576	n/a	WORD	201288	wordpools/wasnorm_wordpool_576.txt	LTP207	ltpFR2	6	1	LASER	801	n/a	n/a	0	0	0
405.072	n/a	WORD	202536	wordpools/wasnorm_wordpool_576.txt	LTP207	ltpFR2	6	1	FLASHLIGHT	575	n/a	n/a	0	0	0
407.602	n/a	WORD	203801	wordpools/wasnorm_wordpool_576.txt	LTP207	ltpFR2	6	1	TERMITE	1451	n/a	n/a	0	0	0
410.282	n/a	WORD	205141	wordpools/wasnorm_wordpool_576.txt	LTP207	ltpFR2	6	1	HIGHWAY	707	n/a	n/a	0	0	0
412.894	n/a	WORD	206447	wordpools/wasnorm_wordpool_576.txt	LTP207	ltpFR2	6	1	CASHEW	253	n/a	n/a	0	0	0
415.458	n/a	WORD	207729	wordpools/wasnorm_wordpool_576.txt	LTP207	ltpFR2	6	1	FEMALE	559	n/a	n/a	0	0	0
417.92	n/a	WORD	208960	wordpools/wasnorm_wordpool_576.txt	LTP207	ltpFR2	6	1	SHORTCAKE	1292	n/a	n/a	0	0	0
420.7	n/a	WORD	210350	wordpools/wasnorm_wordpool_576.txt	LTP207	ltpFR2	6	1	PARTNER	1017	n/a	n/a	0	0	0
423.312	n/a	WORD	211656	wordpools/wasnorm_wordpool_576.txt	LTP207	ltpFR2	6	1	SHELF	1280	n/a	n/a	0	0	0
426.092	n/a	WORD	213046	wordpools/wasnorm_wordpool_576.txt	LTP207	ltpFR2	6	1	TWIG	1527	n/a	n/a	0	0	0
428.888	n/a	WORD	214444	wordpools/wasnorm_wordpool_576.txt	LTP207	ltpFR2	6	1	IDOL	733	n/a	n/a	0	0	0
431.684	n/a	WORD	215842	wordpools/wasnorm_wordpool_576.txt	LTP207	ltpFR2	6	1	WASHER	1592	n/a	n/a	0	0	0
434.196	n/a	WORD	217098	wordpools/wasnorm_wordpool_576.txt	LTP207	ltpFR2	6	1	BUREAU	199	n/a	n/a	0	0	0
436.842	n/a	WORD	218421	wordpools/wasnorm_wordpool_576.txt	LTP207	ltpFR2	6	1	REBEL	1172	n/a	n/a	0	0	0
439.422	n/a	WORD	219711	wordpools/wasnorm_wordpool_576.txt	LTP207	ltpFR2	6	1	BEAKER	104	n/a	n/a	0	0	0
441.852	n/a	WORD	220926	wordpools/wasnorm_wordpool_576.txt	LTP207	ltpFR2	6	1	SLIME	1327	n/a	n/a	0	0	0
443.466	n/a	START	221733	n/a	LTP207	ltpFR2	6	n/a	n/a	n/a	2	n/a	n/a	n/a	n/a
444.41	n/a	DISTRACTOR	222205	n/a	LTP207	ltpFR2	6	1	n/a	n/a	n/a	n/a	0	0	0
444.414	n/a	PROB	222207	n/a	LTP207	ltpFR2	6	n/a	n/a	n/a	2	17	7	6	4
445.912	n/a	PROB	222956	n/a	LTP207	ltpFR2	6	n/a	n/a	n/a	2	11	2	8	1
447.06	n/a	PROB	223530	n/a	LTP207	ltpFR2	6	n/a	n/a	n/a	2	19	8	4	7
451.404	n/a	PROB	225702	n/a	LTP207	ltpFR2	6	n/a	n/a	n/a	2	18	4	5	9
452.686	n/a	PROB	226343	n/a	LTP207	ltpFR2	6	n/a	n/a	n/a	2	5	1	1	3
453.634	n/a	PROB	226817	n/a	LTP207	ltpFR2	6	n/a	n/a	n/a	2	17	6	2	9
455.364	n/a	PROB	227682	n/a	LTP207	ltpFR2	6	n/a	n/a	n/a	2	11	6	1	4
456.73	n/a	PROB	228365	n/a	LTP207	ltpFR2	6	n/a	n/a	n/a	2	15	8	1	6
457.978	n/a	PROB	228989	n/a	LTP207	ltpFR2	6	n/a	n/a	n/a	2	16	7	3	6
459.16	n/a	PROB	229580	n/a	LTP207	ltpFR2	6	n/a	n/a	n/a	2	12	4	1	7
460.34	n/a	PROB	230170	n/a	LTP207	ltpFR2	6	n/a	n/a	n/a	2	15	5	1	9
461.456	n/a	PROB	230728	n/a	LTP207	ltpFR2	6	n/a	n/a	n/a	2	16	6	3	7
462.954	n/a	PROB	231477	n/a	LTP207	ltpFR2	6	n/a	n/a	n/a	2	15	7	6	2
465.034	n/a	PROB	232517	n/a	LTP207	ltpFR2	6	n/a	n/a	n/a	2	24	9	6	9
466.822	n/a	STOP	233411	n/a	LTP207	ltpFR2	6	n/a	n/a	n/a	2	n/a	n/a	n/a	n/a
469.262	n/a	REC_START	234631	n/a	LTP207	ltpFR2	6	1	n/a	n/a	n/a	n/a	0	0	0
471.072	n/a	REC_WORD	235536	wordpools/wasnorm_wordpool_576.txt	LTP207	ltpFR2	6	1	TABLE	1426	n/a	n/a	0	0	0
473.42	n/a	REC_WORD	236710	wordpools/wasnorm_wordpool_576.txt	LTP207	ltpFR2	6	1	FEMALE	559	n/a	n/a	0	0	0
485.276	n/a	REC_WORD	242638	wordpools/wasnorm_wordpool_576.txt	LTP207	ltpFR2	6	1	SPOON	1357	n/a	n/a	0	0	0
559.96	n/a	WORD	279980	wordpools/wasnorm_wordpool_576.txt	LTP207	ltpFR2	6	2	INFANT	737	n/a	n/a	0	0	0
562.54	n/a	WORD	281270	wordpools/wasnorm_wordpool_576.txt	LTP207	ltpFR2	6	2	BUG	187	n/a	n/a	0	0	0
565.218	n/a	WORD	282609	wordpools/wasnorm_wordpool_576.txt	LTP207	ltpFR2	6	2	CASKET	255	n/a	n/a	0	0	0
567.982	n/a	WORD	283991	wordpools/wasnorm_wordpool_576.txt	LTP207	ltpFR2	6	2	CHAPEL	280	n/a	n/a	0	0	0
570.428	n/a	WORD	285214	wordpools/wasnorm_wordpool_576.txt	LTP207	ltpFR2	6	2	HIKER	708	n/a	n/a	0	0	0
573.208	n/a	WORD	286604	wordpools/wasnorm_wordpool_576.txt	LTP207	ltpFR2	6	2	NOTEBOOK	959	n/a	n/a	0	0	0
575.638	n/a	WORD	287819	wordpools/wasnorm_wordpool_576.txt	LTP207	ltpFR2	6	2	RATTLE	1170	n/a	n/a	0	0	0
578.284	n/a	WORD	289142	wordpools/wasnorm_wordpool_576.txt	LTP207	ltpFR2	6	2	SUNRISE	1407	n/a	n/a	0	0	0
580.846	n/a	WORD	290423	wordpools/wasnorm_wordpool_576.txt	LTP207	ltpFR2	6	2	DANDRUFF	439	n/a	n/a	0	0	0
583.676	n/a	WORD	291838	wordpools/wasnorm_wordpool_576.txt	LTP207	ltpFR2	6	2	LADDER	793	n/a	n/a	0	0	0
586.122	n/a	WORD	293061	wordpools/wasnorm_wordpool_576.txt	LTP207	ltpFR2	6	2	BASEMENT	94	n/a	n/a	0	0	0
588.652	n/a	WORD	294326	wordpools/wasnorm_wordpool_576.txt	LTP207	ltpFR2	6	2	OMELET	976	n/a	n/a	0	0	0
591.464	n/a	WORD	295732	wordpools/wasnorm_wordpool_576.txt	LTP207	ltpFR2	6	2	COTTAGE	384	n/a	n/a	0	0	0
594.076	n/a	WORD	297038	wordpools/wasnorm_wordpool_576.txt	LTP207	ltpFR2	6	2	CEILING	265	n/a	n/a	0	0	0
596.622	n/a	WORD	298311	wordpools/wasnorm_wordpool_576.txt	LTP207	ltpFR2	6	2	TILE	1468	n/a	n/a	0	0	0
599.168	n/a	WORD	299584	wordpools/wasnorm_wordpool_576.txt	LTP207	ltpFR2	6	2	BRIEFCASE	175	n/a	n/a	0	0	0
601.932	n/a	WORD	300966	wordpools/wasnorm_wordpool_576.txt	LTP207	ltpFR2	6	2	COUNTY	389	n/a	n/a	0	0	0
604.428	n/a	WORD	302214	wordpools/wasnorm_wordpool_576.txt	LTP207	ltpFR2	6	2	ROBIN	1199	n/a	n/a	0	0	0
607.174	n/a	WORD	303587	wordpools/wasnorm_wordpool_576.txt	LTP207	ltpFR2	6	2	HOOD	714	n/a	n/a	0	0	0
609.836	n/a	WORD	304918	wordpools/wasnorm_wordpool_576.txt	LTP207	ltpFR2	6	2	TAXI	1438	n/a	n/a	0	0	0
612.648	n/a	WORD	306324	wordpools/wasnorm_wordpool_576.txt	LTP207	ltpFR2	6	2	CRICKET	408	n/a	n/a	0	0	0
615.144	n/a	WORD	307572	wordpools/wasnorm_wordpool_576.txt	LTP207	ltpFR2	6	2	BUGGY	188	n/a	n/a	0	0	0
617.874	n/a	WORD	308937	wordpools/wasnorm_wordpool_576.txt	LTP207	ltpFR2	6	2	GLOBE	641	n/a	n/a	0	0	0
620.604	n/a	WORD	310302	wordpools/wasnorm_wordpool_576.txt	LTP207	ltpFR2	6	2	LAPEL	800	n/a	n/a	0	0	0
622.218	n/a	START	311109	n/a	LTP207	ltpFR2	6	n/a	n/a	n/a	3	n/a	n/a	n/a	n/a
623.314	n/a	DISTRACTOR	311657	n/a	LTP207	ltpFR2	6	2	n/a	n/a	n/a	n/a	0	0	0
623.316	n/a	PROB	311658	n/a	LTP207	ltpFR2	6	n/a	n/a	n/a	3	9	2	6	1
624.814	n/a	PROB	312407	n/a	LTP207	ltpFR2	6	n/a	n/a	n/a	3	23	6	9	8
628.924	n/a	PROB	314462	n/a	LTP207	ltpFR2	6	n/a	n/a	n/a	3	15	6	1	8
630.172	n/a	PROB	315086	n/a	LTP207	ltpFR2	6	n/a	n/a	n/a	3	17	4	6	7
631.736	n/a	PROB	315868	n/a	LTP207	ltpFR2	6	n/a	n/a	n/a	3	15	2	5	8
632.852	n/a	PROB	316426	n/a	LTP207	ltpFR2	6	n/a	n/a	n/a	3	20	3	9	8
634.6	n/a	PROB	317300	n/a	LTP207	ltpFR2	6	n/a	n/a	n/a	3	8	1	2	5
635.848	n/a	PROB	317924	n/a	LTP207	ltpFR2	6	n/a	n/a	n/a	3	11	1	3	7
637.128	n/a	PROB	318564	n/a	LTP207	ltpFR2	6	n/a	n/a	n/a	3	10	1	1	8
639.326	n/a	PROB	319663	n/a	LTP207	ltpFR2	6	n/a	n/a	n/a	3	15	4	3	8
640.524	n/a	PROB	320262	n/a	LTP207	ltpFR2	6	n/a	n/a	n/a	3	9	2	5	2
641.822	n/a	PROB	320911	n/a	LTP207	ltpFR2	6	n/a	n/a	n/a	3	24	5	9	9
643.186	n/a	PROB	321593	n/a	LTP207	ltpFR2	6	n/a	n/a	n/a	3	10	2	7	1
645.578	n/a	STOP	322789	n/a	LTP207	ltpFR2	6	n/a	n/a	n/a	3	n/a	n/a	n/a	n/a
648.096	n/a	REC_START	324048	n/a	LTP207	ltpFR2	6	2	n/a	n/a	n/a	n/a	0	0	0
649.536	n/a	REC_WORD	324768	wordpools/wasnorm_wordpool_576.txt	LTP207	ltpFR2	6	2	GLOBE	641	n/a	n/a	0	0	0
654.03	n/a	REC_WORD	327015	wordpools/wasnorm_wordpool_576.txt	LTP207	ltpFR2	6	2	BUGGY	188	n/a	n/a	0	0	0
664.218	n/a	REC_WORD	332109	wordpools/wasnorm_wordpool_576.txt	LTP207	ltpFR2	6	2	COCOON	339	n/a	n/a	0	0	0
669.9	n/a	REC_WORD	334950	wordpools/wasnorm_wordpool_576.txt	LTP207	ltpFR2	6	2	NOTEBOOK	959	n/a	n/a	0	0	0
694.608	n/a	REC_WORD	347304	wordpools/wasnorm_wordpool_576.txt	LTP207	ltpFR2	6	2	SUNRISE	1407	n/a	n/a	0	0	0
738.778	n/a	WORD	369389	wordpools/wasnorm_wordpool_576.txt	LTP207	ltpFR2	6	3	ROCKET	1202	n/a	n/a	0	0	0
741.592	n/a	WORD	370796	wordpools/wasnorm_wordpool_576.txt	LTP207	ltpFR2	6	3	CABIN	211	n/a	n/a	0	0	0
744.022	n/a	WORD	372011	wordpools/wasnorm_wordpool_576.txt	LTP207	ltpFR2	6	3	FOOT	590	n/a	n/a	0	0	0
746.584	n/a	WORD	373292	wordpools/wasnorm_wordpool_576.txt	LTP207	ltpFR2	6	3	PACKAGE	997	n/a	n/a	0	0	0
749.296	n/a	WORD	374648	wordpools/wasnorm_wordpool_576.txt	LTP207	ltpFR2	6	3	SALMON	1227	n/a	n/a	0	0	0
751.76	n/a	WORD	375880	wordpools/wasnorm_wordpool_576.txt	LTP207	ltpFR2	6	3	SPHINX	1349	n/a	n/a	0	0	0
754.422	n/a	WORD	377211	wordpools/wasnorm_wordpool_576.txt	LTP207	ltpFR2	6	3	GROUND	666	n/a	n/a	0	0	0
757.234	n/a	WORD	378617	wordpools/wasnorm_wordpool_576.txt	LTP207	ltpFR2	6	3	RUG	1215	n/a	n/a	0	0	0
759.698	n/a	WORD	379849	wordpools/wasnorm_wordpool_576.txt	LTP207	ltpFR2	6	3	COUCH	386	n/a	n/a	0	0	0
762.31	n/a	WORD	381155	wordpools/wasnorm_wordpool_576.txt	LTP207	ltpFR2	6	3	LEG	809	n/a	n/a	0	0	0
764.74	n/a	WORD	382370	wordpools/wasnorm_wordpool_576.txt	LTP207	ltpFR2	6	3	LUNCH	849	n/a	n/a	0	0	0
767.27	n/a	WORD	383635	wordpools/wasnorm_wordpool_576.txt	LTP207	ltpFR2	6	3	SUPPER	1411	n/a	n/a	0	0	0
769.998	n/a	WORD	384999	wordpools/wasnorm_wordpool_576.txt	LTP207	ltpFR2	6	3	TYPIST	1532	n/a	n/a	0	0	0
772.528	n/a	WORD	386264	wordpools/wasnorm_wordpool_576.txt	LTP207	ltpFR2	6	3	CRAB	397	n/a	n/a	0	0	0
775.192	n/a	WORD	387596	wordpools/wasnorm_wordpool_576.txt	LTP207	ltpFR2	6	3	GIFT	635	n/a	n/a	0	0	0
777.87	n/a	WORD	388935	wordpools/wasnorm_wordpool_576.txt	LTP207	ltpFR2	6	3	SIBLING	1301	n/a	n/a	0	0	0
780.566	n/a	WORD	390283	wordpools/wasnorm_wordpool_576.txt	LTP207	ltpFR2	6	3	CONTRACT	368	n/a	n/a	0	0	0
783.38	n/a	WORD	391690	wordpools/wasnorm_wordpool_576.txt	LTP207	ltpFR2	6	3	DRESSER	496	n/a	n/a	0	0	0
785.976	n/a	WORD	392988	wordpools/wasnorm_wordpool_576.txt	LTP207	ltpFR2	6	3	CUPBOARD	425	n/a	n/a	0	0	0
788.422	n/a	WORD	394211	wordpools/wasnorm_wordpool_576.txt	LTP207	ltpFR2	6	3	SKILLET	1317	n/a	n/a	0	0	0
791.2	n/a	WORD	395600	wordpools/wasnorm_wordpool_576.txt	LTP207	ltpFR2	6	3	NURSE	963	n/a	n/a	0	0	0
793.746	n/a	WORD	396873	wordpools/wasnorm_wordpool_576.txt	LTP207	ltpFR2	6	3	RIVER	1194	n/a	n/a	0	0	0
796.542	n/a	WORD	398271	wordpools/wasnorm_wordpool_576.txt	LTP207	ltpFR2	6	3	TORTOISE	1486	n/a	n/a	0	0	0
799.288	n/a	WORD	399644	wordpools/wasnorm_wordpool_576.txt	LTP207	ltpFR2	6	3	HONEY	713	n/a	n/a	0	0	0
800.904	n/a	START	400452	n/a	LTP207	ltpFR2	6	n/a	n/a	n/a	4	n/a	n/a	n/a	n/a
802.054	n/a	DISTRACTOR	401027	n/a	LTP207	ltpFR2	6	3	n/a	n/a	n/a	n/a	0	0	0
802.068	n/a	PROB	401034	n/a	LTP207	ltpFR2	6	n/a	n/a	n/a	4	12	1	4	7
803.35	n/a	PROB	401675	n/a	LTP207	ltpFR2	6	n/a	n/a	n/a	4	7	2	3	2
805.03	n/a	PROB	402515	n/a	LTP207	ltpFR2	6	n/a	n/a	n/a	4	14	1	4	9
806.262	n/a	PROB	403131	n/a	LTP207	ltpFR2	6	n/a	n/a	n/a	4	10	1	5	4
808.042	n/a	PROB	404021	n/a	LTP207	ltpFR2	6	n/a	n/a	n/a	4	16	8	1	7
809.822	n/a	PROB	404911	n/a	LTP207	ltpFR2	6	n/a	n/a	n/a	4	12	4	4	4
810.888	n/a	PROB	405444	n/a	LTP207	ltpFR2	6	n/a	n/a	n/a	4	13	4	4	5
812.536	n/a	PROB	406268	n/a	LTP207	ltpFR2	6	n/a	n/a	n/a	4	10	2	4	4
814.05	n/a	PROB	407025	n/a	LTP207	ltpFR2	6	n/a	n/a	n/a	4	14	3	2	9
815.3	n/a	PROB	407650	n/a	LTP207	ltpFR2	6	n/a	n/a	n/a	4	14	4	9	1
817.014	n/a	PROB	408507	n/a	LTP207	ltpFR2	6	n/a	n/a	n/a	4	7	5	1	1
818.312	n/a	PROB	409156	n/a	LTP207	ltpFR2	6	n/a	n/a	n/a	4	17	7	9	1
819.742	n/a	PROB	409871	n/a	LTP207	ltpFR2	6	n/a	n/a	n/a	4	22	9	9	4
821.34	n/a	PROB	410670	n/a	LTP207	ltpFR2	6	n/a	n/a	n/a	4	18	6	3	9
823.07	n/a	PROB	411535	n/a	LTP207	ltpFR2	6	n/a	n/a	n/a	4	16	5	9	2
824.428	n/a	STOP	412214	n/a	LTP207	ltpFR2	6	n/a	n/a	n/a	4	n/a	n/a	n/a	n/a
826.666	n/a	REC_START	413333	n/a	LTP207	ltpFR2	6	3	n/a	n/a	n/a	n/a	0	0	0
827.98	n/a	REC_WORD	413990	wordpools/wasnorm_wordpool_576.txt	LTP207	ltpFR2	6	3	ROCKET	1202	n/a	n/a	0	0	0
828.99	n/a	REC_WORD	414495	wordpools/wasnorm_wordpool_576.txt	LTP207	ltpFR2	6	3	CABIN	211	n/a	n/a	0	0	0
830.274	n/a	REC_WORD	415137	wordpools/wasnorm_wordpool_576.txt	LTP207	ltpFR2	6	3	FOOT	590	n/a	n/a	0	0	0
831.812	n/a	REC_WORD	415906	wordpools/wasnorm_wordpool_576.txt	LTP207	ltpFR2	6	3	PACKAGE	997	n/a	n/a	0	0	0
833.02	n/a	REC_WORD	416510	wordpools/wasnorm_wordpool_576.txt	LTP207	ltpFR2	6	3	SALMON	1227	n/a	n/a	0	0	0
834.97	n/a	REC_WORD	417485	wordpools/wasnorm_wordpool_576.txt	LTP207	ltpFR2	6	3	SPHINX	1349	n/a	n/a	0	0	0
847.09	n/a	REC_WORD	423545	wordpools/wasnorm_wordpool_576.txt	LTP207	ltpFR2	6	3	LUNCH	849	n/a	n/a	0	0	0
847.902	n/a	REC_WORD	423951	wordpools/wasnorm_wordpool_576.txt	LTP207	ltpFR2	6	3	SUPPER	1411	n/a	n/a	0	0	0
850.59	n/a	REC_WORD	425295	wordpools/wasnorm_wordpool_576.txt	LTP207	ltpFR2	6	3	HONEY	713	n/a	n/a	0	0	0
917.348	n/a	WORD	458674	wordpools/wasnorm_wordpool_576.txt	LTP207	ltpFR2	6	4	VALVE	1546	n/a	n/a	0	0	0
919.894	n/a	WORD	459947	wordpools/wasnorm_wordpool_576.txt	LTP207	ltpFR2	6	4	VAGRANT	1544	n/a	n/a	0	0	0
922.624	n/a	WORD	461312	wordpools/wasnorm_wordpool_576.txt	LTP207	ltpFR2	6	4	REPORT	1184	n/a	n/a	0	0	0
925.186	n/a	WORD	462593	wordpools/wasnorm_wordpool_576.txt	LTP207	ltpFR2	6	4	FLEET	578	n/a	n/a	0	0	0
927.948	n/a	WORD	463974	wordpools/wasnorm_wordpool_576.txt	LTP207	ltpFR2	6	4	RAZOR	1171	n/a	n/a	0	0	0
930.544	n/a	WORD	465272	wordpools/wasnorm_wordpool_576.txt	LTP207	ltpFR2	6	4	PUDDLE	1140	n/a	n/a	0	0	0
933.308	n/a	WORD	466654	wordpools/wasnorm_wordpool_576.txt	LTP207	ltpFR2	6	4	AWARD	63	n/a	n/a	0	0	0
935.886	n/a	WORD	467943	wordpools/wasnorm_wordpool_576.txt	LTP207	ltpFR2	6	4	SMOG	1330	n/a	n/a	0	0	0
938.332	n/a	WORD	469166	wordpools/wasnorm_wordpool_576.txt	LTP207	ltpFR2	6	4	CORAL	378	n/a	n/a	0	0	0
940.846	n/a	WORD	470423	wordpools/wasnorm_wordpool_576.txt	LTP207	ltpFR2	6	4	PEACH	1031	n/a	n/a	0	0	0
943.542	n/a	WORD	471771	wordpools/wasnorm_wordpool_576.txt	LTP207	ltpFR2	6	4	RUST	1219	n/a	n/a	0	0	0
946.038	n/a	WORD	473019	wordpools/wasnorm_wordpool_576.txt	LTP207	ltpFR2	6	4	MONEY	908	n/a	n/a	0	0	0
948.718	n/a	WORD	474359	wordpools/wasnorm_wordpool_576.txt	LTP207	ltpFR2	6	4	STICKER	1382	n/a	n/a	0	0	0
951.28	n/a	WORD	475640	wordpools/wasnorm_wordpool_576.txt	LTP207	ltpFR2	6	4	PEPPER	1047	n/a	n/a	0	0	0
954.026	n/a	WORD	477013	wordpools/wasnorm_wordpool_576.txt	LTP207	ltpFR2	6	4	HATCHET	691	n/a	n/a	0	0	0
956.738	n/a	WORD	478369	wordpools/wasnorm_wordpool_576.txt	LTP207	ltpFR2	6	4	WAITER	1580	n/a	n/a	0	0	0
959.168	n/a	WORD	479584	wordpools/wasnorm_wordpool_576.txt	LTP207	ltpFR2	6	4	WAITRESS	1581	n/a	n/a	0	0	0
961.898	n/a	WORD	480949	wordpools/wasnorm_wordpool_576.txt	LTP207	ltpFR2	6	4	OZONE	996	n/a	n/a	0	0	0
964.51	n/a	WORD	482255	wordpools/wasnorm_wordpool_576.txt	LTP207	ltpFR2	6	4	COBRA	336	n/a	n/a	0	0	0
966.956	n/a	WORD	483478	wordpools/wasnorm_wordpool_576.txt	LTP207	ltpFR2	6	4	DIVER	476	n/a	n/a	0	0	0
969.486	n/a	WORD	484743	wordpools/wasnorm_wordpool_576.txt	LTP207	ltpFR2	6	4	BLADE	134	n/a	n/a	0	0	0
971.916	n/a	WORD	485958	wordpools/wasnorm_wordpool_576.txt	LTP207	ltpFR2	6	4	FUNGUS	614	n/a	n/a	0	0	0
974.53	n/a	WORD	487265	wordpools/wasnorm_wordpool_576.txt	LTP207	ltpFR2	6	4	RADISH	1158	n/a	n/a	0	0	0
977.11	n/a	WORD	488555	wordpools/wasnorm_wordpool_576.txt	LTP207	ltpFR2	6	4	PAPER	1011	n/a	n/a	0	0	0
978.724	n/a	START	489362	n/a	LTP207	ltpFR2	6	n/a	n/a	n/a	5	n/a	n/a	n/a	n/a
979.888	n/a	DISTRACTOR	489944	n/a	LTP207	ltpFR2	6	4	n/a	n/a	n/a	n/a	0	0	0
979.906	n/a	PROB	489953	n/a	LTP207	ltpFR2	6	n/a	n/a	n/a	5	22	7	4	9
982.168	n/a	PROB	491084	n/a	LTP207	ltpFR2	6	n/a	n/a	n/a	5	12	3	7	2
983.366	n/a	PROB	491683	n/a	LTP207	ltpFR2	6	n/a	n/a	n/a	5	13	1	4	8
984.732	n/a	PROB	492366	n/a	LTP207	ltpFR2	6	n/a	n/a	n/a	5	11	3	5	3
986.212	n/a	PROB	493106	n/a	LTP207	ltpFR2	6	n/a	n/a	n/a	5	14	9	2	3
987.676	n/a	PROB	493838	n/a	LTP207	ltpFR2	6	n/a	n/a	n/a	5	21	6	6	9
988.976	n/a	PROB	494488	n/a	LTP207	ltpFR2	6	n/a	n/a	n/a	5	13	7	5	1
990.356	n/a	PROB	495178	n/a	LTP207	ltpFR2	6	n/a	n/a	n/a	5	12	5	3	4
991.72	n/a	PROB	495860	n/a	LTP207	ltpFR2	6	n/a	n/a	n/a	5	11	4	1	6
992.82	n/a	PROB	496410	n/a	LTP207	ltpFR2	6	n/a	n/a	n/a	5	19	8	3	8
994.318	n/a	PROB	497159	n/a	LTP207	ltpFR2	6	n/a	n/a	n/a	5	19	9	5	5
995.682	n/a	PROB	497841	n/a	LTP207	ltpFR2	6	n/a	n/a	n/a	5	18	2	9	7
997.796	n/a	PROB	498898	n/a	LTP207	ltpFR2	6	n/a	n/a	n/a	5	25	8	9	8
999.592	n/a	PROB	499796	n/a	LTP207	ltpFR2	6	n/a	n/a	n/a	5	20	5	7	8
1000.94	n/a	PROB	500470	n/a	LTP207	ltpFR2	6	n/a	n/a	n/a	5	19	9	4	6
1002.246	n/a	STOP	501123	n/a	LTP207	ltpFR2	6	n/a	n/a	n/a	5	n/a	n/a	n/a	n/a
1004.568	n/a	REC_START	502284	n/a	LTP207	ltpFR2	6	4	n/a	n/a	n/a	n/a	0	0	0
1023.006	n/a	REC_WORD	511503	wordpools/wasnorm_wordpool_576.txt	LTP207	ltpFR2	6	4	OZONE	996	n/a	n/a	0	0	0
1040.244	n/a	REC_WORD	520122	wordpools/wasnorm_wordpool_576.txt	LTP207	ltpFR2	6	4	PEACH	1031	n/a	n/a	0	0	0
1042.304	n/a	REC_WORD	521152	wordpools/wasnorm_wordpool_576.txt	LTP207	ltpFR2	6	4	CORAL	378	n/a	n/a	0	0	0
1095.334	n/a	WORD	547667	wordpools/wasnorm_wordpool_576.txt	LTP207	ltpFR2	6	5	NAPKIN	937	n/a	n/a	0	0	0
1097.864	n/a	WORD	548932	wordpools/wasnorm_wordpool_576.txt	LTP207	ltpFR2	6	5	PIANO	1057	n/a	n/a	0	0	0
1100.326	n/a	WORD	550163	wordpools/wasnorm_wordpool_576.txt	LTP207	ltpFR2	6	5	CAPTIVE	240	n/a	n/a	0	0	0
1102.922	n/a	WORD	551461	wordpools/wasnorm_wordpool_576.txt	LTP207	ltpFR2	6	5	VICTIM	1562	n/a	n/a	0	0	0
1105.686	n/a	WORD	552843	wordpools/wasnorm_wordpool_576.txt	LTP207	ltpFR2	6	5	BRAKE	166	n/a	n/a	0	0	0
1108.332	n/a	WORD	554166	wordpools/wasnorm_wordpool_576.txt	LTP207	ltpFR2	6	5	MOTOR	922	n/a	n/a	0	0	0
1110.878	n/a	WORD	555439	wordpools/wasnorm_wordpool_576.txt	LTP207	ltpFR2	6	5	OFFICE	972	n/a	n/a	0	0	0
1113.324	n/a	WORD	556662	wordpools/wasnorm_wordpool_576.txt	LTP207	ltpFR2	6	5	TRIBE	1505	n/a	n/a	0	0	0
1115.82	n/a	WORD	557910	wordpools/wasnorm_wordpool_576.txt	LTP207	ltpFR2	6	5	PLIERS	1089	n/a	n/a	0	0	0
1118.516	n/a	WORD	559258	wordpools/wasnorm_wordpool_576.txt	LTP207	ltpFR2	6	5	MEAT	883	n/a	n/a	0	0	0
1120.978	n/a	WORD	560489	wordpools/wasnorm_wordpool_576.txt	LTP207	ltpFR2	6	5	PICNIC	1060	n/a	n/a	0	0	0
1123.792	n/a	WORD	561896	wordpools/wasnorm_wordpool_576.txt	LTP207	ltpFR2	6	5	CHAUFFEUR	283	n/a	n/a	0	0	0
1126.42	n/a	WORD	563210	wordpools/wasnorm_wordpool_576.txt	LTP207	ltpFR2	6	5	KIDNEY	776	n/a	n/a	0	0	0
1128.95	n/a	WORD	564475	wordpools/wasnorm_wordpool_576.txt	LTP207	ltpFR2	6	5	WASP	1593	n/a	n/a	0	0	0
1131.696	n/a	WORD	565848	wordpools/wasnorm_wordpool_576.txt	LTP207	ltpFR2	6	5	WRENCH	1625	n/a	n/a	0	0	0
1134.508	n/a	WORD	567254	wordpools/wasnorm_wordpool_576.txt	LTP207	ltpFR2	6	5	CLAMP	316	n/a	n/a	0	0	0
1137.238	n/a	WORD	568619	wordpools/wasnorm_wordpool_576.txt	LTP207	ltpFR2	6	5	CONCERT	360	n/a	n/a	0	0	0
1139.836	n/a	WORD	569918	wordpools/wasnorm_wordpool_576.txt	LTP207	ltpFR2	6	5	KLEENEX	782	n/a	n/a	0	0	0
1142.598	n/a	WORD	571299	wordpools/wasnorm_wordpool_576.txt	LTP207	ltpFR2	6	5	BINDER	127	n/a	n/a	0	0	0
1145.078	n/a	WORD	572539	wordpools/wasnorm_wordpool_576.txt	LTP207	ltpFR2	6	5	CANDY	230	n/a	n/a	0	0	0
1147.756	n/a	WORD	573878	wordpools/wasnorm_wordpool_576.txt	LTP207	ltpFR2	6	5	TREAT	1501	n/a	n/a	0	0	0
1150.336	n/a	WORD	575168	wordpools/wasnorm_wordpool_576.txt	LTP207	ltpFR2	6	5	BLOUSE	139	n/a	n/a	0	0	0
1152.8	n/a	WORD	576400	wordpools/wasnorm_wordpool_576.txt	LTP207	ltpFR2	6	5	SWORD	1423	n/a	n/a	0	0	0
1155.428	n/a	WORD	577714	wordpools/wasnorm_wordpool_576.txt	LTP207	ltpFR2	6	5	INMATE	738	n/a	n/a	0	0	0
1157.042	n/a	START	578521	n/a	LTP207	ltpFR2	6	n/a	n/a	n/a	6	n/a	n/a	n/a	n/a
1157.946	n/a	DISTRACTOR	578973	n/a	LTP207	ltpFR2	6	5	n/a	n/a	n/a	n/a	0	0	0
1157.958	n/a	PROB	578979	n/a	LTP207	ltpFR2	6	n/a	n/a	n/a	6	9	3	2	4
1159.406	n/a	PROB	579703	n/a	LTP207	ltpFR2	6	n/a	n/a	n/a	6	8	2	1	5
1160.538	n/a	PROB	580269	n/a	LTP207	ltpFR2	6	n/a	n/a	n/a	6	11	4	2	5
1161.72	n/a	PROB	580860	n/a	LTP207	ltpFR2	6	n/a	n/a	n/a	6	13	6	2	5
1163.284	n/a	PROB	581642	n/a	LTP207	ltpFR2	6	n/a	n/a	n/a	6	15	6	3	6
1164.598	n/a	PROB	582299	n/a	LTP207	ltpFR2	6	n/a	n/a	n/a	6	14	7	3	4
1166.062	n/a	PROB	583031	n/a	LTP207	ltpFR2	6	n/a	n/a	n/a	6	20	9	5	6
1167.594	n/a	PROB	583797	n/a	LTP207	ltpFR2	6	n/a	n/a	n/a	6	19	6	5	8
1170.174	n/a	PROB	585087	n/a	LTP207	ltpFR2	6	n/a	n/a	n/a	6	13	4	3	6
1171.654	n/a	PROB	585827	n/a	LTP207	ltpFR2	6	n/a	n/a	n/a	6	9	3	3	3
1172.72	n/a	PROB	586360	n/a	LTP207	ltpFR2	6	n/a	n/a	n/a	6	16	2	7	7
1174.316	n/a	PROB	587158	n/a	LTP207	ltpFR2	6	n/a	n/a	n/a	6	8	2	4	2
1175.764	n/a	PROB	587882	n/a	LTP207	ltpFR2	6	n/a	n/a	n/a	6	15	6	2	7
1177.13	n/a	PROB	588565	n/a	LTP207	ltpFR2	6	n/a	n/a	n/a	6	22	8	5	9
1179.512	n/a	STOP	589756	n/a	LTP207	ltpFR2	6	n/a	n/a	n/a	6	n/a	n/a	n/a	n/a
1182.822	n/a	REC_START	591411	n/a	LTP207	ltpFR2	6	5	n/a	n/a	n/a	n/a	0	0	0
1185.208	n/a	REC_WORD	592604	wordpools/wasnorm_wordpool_576.txt	LTP207	ltpFR2	6	5	CAPTIVE	240	n/a	n/a	0	0	0
1186.386	n/a	REC_WORD	593193	wordpools/wasnorm_wordpool_576.txt	LTP207	ltpFR2	6	5	INMATE	738	n/a	n/a	0	0	0
1187.638	n/a	REC_WORD	593819	wordpools/wasnorm_wordpool_576.txt	LTP207	ltpFR2	6	5	MOTOR	922	n/a	n/a	0	0	0
1189.046	n/a	REC_WORD	594523	wordpools/wasnorm_wordpool_576.txt	LTP207	ltpFR2	6	5	BRAKE	166	n/a	n/a	0	0	0
1190.498	n/a	REC_WORD	595249	wordpools/wasnorm_wordpool_576.txt	LTP207	ltpFR2	6	5	OFFICE	972	n/a	n/a	0	0	0
1196.974	n/a	REC_WORD	598487	wordpools/wasnorm_wordpool_576.txt	LTP207	ltpFR2	6	5	VICTIM	1562	n/a	n/a	0	0	0
1273.47	n/a	DISTRACTOR	636735	n/a	LTP207	ltpFR2	6	6	n/a	n/a	n/a	n/a	0	0	0
1273.47	n/a	START	636735	n/a	LTP207	ltpFR2	6	n/a	n/a	n/a	7	n/a	n/a	n/a	n/a
1273.504	n/a	PROB	636752	n/a	LTP207	ltpFR2	6	n/a	n/a	n/a	7	198	4	9	7
1275.168	n/a	PROB	637584	n/a	LTP207	ltpFR2	6	n/a	n/a	n/a	7	8	2	5	1
1276.898	n/a	PROB	638449	n/a	LTP207	ltpFR2	6	n/a	n/a	n/a	7	13	8	3	2
1279.294	n/a	PROB	639647	n/a	LTP207	ltpFR2	6	n/a	n/a	n/a	7	12	4	2	6
1280.442	n/a	PROB	640221	n/a	LTP207	ltpFR2	6	n/a	n/a	n/a	7	15	3	6	6
1281.924	n/a	PROB	640962	n/a	LTP207	ltpFR2	6	n/a	n/a	n/a	7	7	2	2	3
1283.256	n/a	PROB	641628	n/a	LTP207	ltpFR2	6	n/a	n/a	n/a	7	22	9	7	4
1284.754	n/a	PROB	642377	n/a	LTP207	ltpFR2	6	n/a	n/a	n/a	7	14	6	6	2
1286.318	n/a	PROB	643159	n/a	LTP207	ltpFR2	6	n/a	n/a	n/a	7	11	2	6	3
1287.632	n/a	PROB	643816	n/a	LTP207	ltpFR2	6	n/a	n/a	n/a	7	19	7	6	6
1289.312	n/a	PROB	644656	n/a	LTP207	ltpFR2	6	n/a	n/a	n/a	7	16	1	8	7
1290.528	n/a	PROB	645264	n/a	LTP207	ltpFR2	6	n/a	n/a	n/a	7	12	6	1	5
1292.108	n/a	PROB	646054	n/a	LTP207	ltpFR2	6	n/a	n/a	n/a	7	13	8	4	1
1293.94	n/a	PROB	646970	n/a	LTP207	ltpFR2	6	n/a	n/a	n/a	7	13	8	1	4
1295.238	n/a	PROB	647619	n/a	LTP207	ltpFR2	6	n/a	n/a	n/a	7	15	9	4	2
1296.482	n/a	STOP	648241	n/a	LTP207	ltpFR2	6	n/a	n/a	n/a	7	n/a	n/a	n/a	n/a
1298.65	n/a	WORD	649325	wordpools/wasnorm_wordpool_576.txt	LTP207	ltpFR2	6	6	THRONE	1461	n/a	n/a	0	0	0
1301.38	n/a	WORD	650690	wordpools/wasnorm_wordpool_576.txt	LTP207	ltpFR2	6	6	TOMBSTONE	1478	n/a	n/a	0	0	0
1303.908	n/a	WORD	651954	wordpools/wasnorm_wordpool_576.txt	LTP207	ltpFR2	6	6	HUMAN	726	n/a	n/a	0	0	0
1306.722	n/a	WORD	653361	wordpools/wasnorm_wordpool_576.txt	LTP207	ltpFR2	6	6	CAMEL	223	n/a	n/a	0	0	0
1309.184	n/a	WORD	654592	wordpools/wasnorm_wordpool_576.txt	LTP207	ltpFR2	6	6	BARREL	91	n/a	n/a	0	0	0
1311.946	n/a	WORD	655973	wordpools/wasnorm_wordpool_576.txt	LTP207	ltpFR2	6	6	QUEEN	1149	n/a	n/a	0	0	0
1314.742	n/a	WORD	657371	wordpools/wasnorm_wordpool_576.txt	LTP207	ltpFR2	6	6	ROOSTER	1209	n/a	n/a	0	0	0
1317.256	n/a	WORD	658628	wordpools/wasnorm_wordpool_576.txt	LTP207	ltpFR2	6	6	TURKEY	1520	n/a	n/a	0	0	0
1319.718	n/a	WORD	659859	wordpools/wasnorm_wordpool_576.txt	LTP207	ltpFR2	6	6	FIDDLE	561	n/a	n/a	0	0	0
1322.214	n/a	WORD	661107	wordpools/wasnorm_wordpool_576.txt	LTP207	ltpFR2	6	6	NIGHTGOWN	953	n/a	n/a	0	0	0
1324.794	n/a	WORD	662397	wordpools/wasnorm_wordpool_576.txt	LTP207	ltpFR2	6	6	BIKE	125	n/a	n/a	0	0	0
1327.29	n/a	WORD	663645	wordpools/wasnorm_wordpool_576.txt	LTP207	ltpFR2	6	6	FRANCE	601	n/a	n/a	0	0	0
1329.904	n/a	WORD	664952	wordpools/wasnorm_wordpool_576.txt	LTP207	ltpFR2	6	6	PIGEON	1065	n/a	n/a	0	0	0
1332.416	n/a	WORD	666208	wordpools/wasnorm_wordpool_576.txt	LTP207	ltpFR2	6	6	HAWK	692	n/a	n/a	0	0	0
1334.896	n/a	WORD	667448	wordpools/wasnorm_wordpool_576.txt	LTP207	ltpFR2	6	6	HOOK	715	n/a	n/a	0	0	0
1337.376	n/a	WORD	668688	wordpools/wasnorm_wordpool_576.txt	LTP207	ltpFR2	6	6	GARBAGE	622	n/a	n/a	0	0	0
1340.188	n/a	WORD	670094	wordpools/wasnorm_wordpool_576.txt	LTP207	ltpFR2	6	6	SANDWICH	1232	n/a	n/a	0	0	0
1342.884	n/a	WORD	671442	wordpools/wasnorm_wordpool_576.txt	LTP207	ltpFR2	6	6	SCALLOP	1242	n/a	n/a	0	0	0
1345.446	n/a	WORD	672723	wordpools/wasnorm_wordpool_576.txt	LTP207	ltpFR2	6	6	MONSTER	912	n/a	n/a	0	0	0
1347.96	n/a	WORD	673980	wordpools/wasnorm_wordpool_576.txt	LTP207	ltpFR2	6	6	EYELASH	546	n/a	n/a	0	0	0
1350.456	n/a	WORD	675228	wordpools/wasnorm_wordpool_576.txt	LTP207	ltpFR2	6	6	PISTOL	1075	n/a	n/a	0	0	0
1352.968	n/a	WORD	676484	wordpools/wasnorm_wordpool_576.txt	LTP207	ltpFR2	6	6	EUROPE	541	n/a	n/a	0	0	0
1355.614	n/a	WORD	677807	wordpools/wasnorm_wordpool_576.txt	LTP207	ltpFR2	6	6	VELVET	1555	n/a	n/a	0	0	0
1358.112	n/a	WORD	679056	wordpools/wasnorm_wordpool_576.txt	LTP207	ltpFR2	6	6	MILDEW	893	n/a	n/a	0	0	0
1359.726	n/a	START	679863	n/a	LTP207	ltpFR2	6	n/a	n/a	n/a	8	n/a	n/a	n/a	n/a
1360.732	n/a	DISTRACTOR	680366	n/a	LTP207	ltpFR2	6	6	n/a	n/a	n/a	n/a	0	0	0
1360.74	n/a	PROB	680370	n/a	LTP207	ltpFR2	6	n/a	n/a	n/a	8	16	2	6	8
1362.238	n/a	PROB	681119	n/a	LTP207	ltpFR2	6	n/a	n/a	n/a	8	13	2	3	8
1363.504	n/a	PROB	681752	n/a	LTP207	ltpFR2	6	n/a	n/a	n/a	8	20	9	2	9
1365.05	n/a	PROB	682525	n/a	LTP207	ltpFR2	6	n/a	n/a	n/a	8	14	1	6	7
1366.366	n/a	PROB	683183	n/a	LTP207	ltpFR2	6	n/a	n/a	n/a	8	13	6	5	2
1368.396	n/a	PROB	684198	n/a	LTP207	ltpFR2	6	n/a	n/a	n/a	8	17	9	3	5
1370.926	n/a	PROB	685463	n/a	LTP207	ltpFR2	6	n/a	n/a	n/a	8	13	5	5	3
1371.974	n/a	PROB	685987	n/a	LTP207	ltpFR2	6	n/a	n/a	n/a	8	17	6	9	2
1374.12	n/a	PROB	687060	n/a	LTP207	ltpFR2	6	n/a	n/a	n/a	8	17	4	6	7
1376.134	n/a	PROB	688067	n/a	LTP207	ltpFR2	6	n/a	n/a	n/a	8	4	1	1	2
1377.284	n/a	PROB	688642	n/a	LTP207	ltpFR2	6	n/a	n/a	n/a	8	12	4	6	2
1378.598	n/a	PROB	689299	n/a	LTP207	ltpFR2	6	n/a	n/a	n/a	8	27	9	9	9
1381.212	n/a	PROB	690606	n/a	LTP207	ltpFR2	6	n/a	n/a	n/a	8	10	1	2	7
1382.266	n/a	STOP	691133	n/a	LTP207	ltpFR2	6	n/a	n/a	n/a	8	n/a	n/a	n/a	n/a
1385.572	n/a	REC_START	692786	n/a	LTP207	ltpFR2	6	6	n/a	n/a	n/a	n/a	0	0	0
1390.616	n/a	REC_WORD	695308	wordpools/wasnorm_wordpool_576.txt	LTP207	ltpFR2	6	6	HAWK	692	n/a	n/a	0	0	0
1393.178	n/a	REC_WORD	696589	wordpools/wasnorm_wordpool_576.txt	LTP207	ltpFR2	6	6	PISTOL	1075	n/a	n/a	0	0	0
1395.226	n/a	REC_WORD	697613	wordpools/wasnorm_wordpool_576.txt	LTP207	ltpFR2	6	6	EUROPE	541	n/a	n/a	0	0	0
1413.646	n/a	REC_WORD	706823	wordpools/wasnorm_wordpool_576.txt	LTP207	ltpFR2	6	6	MILDEW	893	n/a	n/a	0	0	0
1476.236	n/a	WORD	738118	wordpools/wasnorm_wordpool_576.txt	LTP207	ltpFR2	6	7	COURSE	390	n/a	n/a	0	0	0
1478.766	n/a	WORD	739383	wordpools/wasnorm_wordpool_576.txt	LTP207	ltpFR2	6	7	OUTDOORS	987	n/a	n/a	0	0	0
1481.48	n/a	WORD	740740	wordpools/wasnorm_wordpool_576.txt	LTP207	ltpFR2	6	7	MACHINE	852	n/a	n/a	0	0	0
1483.992	n/a	WORD	741996	wordpools/wasnorm_wordpool_576.txt	LTP207	ltpFR2	6	7	LIZARD	834	n/a	n/a	0	0	0
1486.488	n/a	WORD	743244	wordpools/wasnorm_wordpool_576.txt	LTP207	ltpFR2	6	7	SNAKE	1333	n/a	n/a	0	0	0
1489.068	n/a	WORD	744534	wordpools/wasnorm_wordpool_576.txt	LTP207	ltpFR2	6	7	BLOCKADE	137	n/a	n/a	0	0	0
1491.53	n/a	WORD	745765	wordpools/wasnorm_wordpool_576.txt	LTP207	ltpFR2	6	7	BELLY	119	n/a	n/a	0	0	0
1494.16	n/a	WORD	747080	wordpools/wasnorm_wordpool_576.txt	LTP207	ltpFR2	6	7	NOMAD	955	n/a	n/a	0	0	0
1496.606	n/a	WORD	748303	wordpools/wasnorm_wordpool_576.txt	LTP207	ltpFR2	6	7	PADDING	999	n/a	n/a	0	0	0
1499.27	n/a	WORD	749635	wordpools/wasnorm_wordpool_576.txt	LTP207	ltpFR2	6	7	ZIPPER	1636	n/a	n/a	0	0	0
1501.748	n/a	WORD	750874	wordpools/wasnorm_wordpool_576.txt	LTP207	ltpFR2	6	7	FILM	565	n/a	n/a	0	0	0
1504.278	n/a	WORD	752139	wordpools/wasnorm_wordpool_576.txt	LTP207	ltpFR2	6	7	ACTRESS	6	n/a	n/a	0	0	0
1506.908	n/a	WORD	753454	wordpools/wasnorm_wordpool_576.txt	LTP207	ltpFR2	6	7	PROTON	1132	n/a	n/a	0	0	0
1509.504	n/a	WORD	754752	wordpools/wasnorm_wordpool_576.txt	LTP207	ltpFR2	6	7	JUDGE	761	n/a	n/a	0	0	0
1512.284	n/a	WORD	756142	wordpools/wasnorm_wordpool_576.txt	LTP207	ltpFR2	6	7	ULCER	1533	n/a	n/a	0	0	0
1515.012	n/a	WORD	757506	wordpools/wasnorm_wordpool_576.txt	LTP207	ltpFR2	6	7	IGLOO	734	n/a	n/a	0	0	0
1517.542	n/a	WORD	758771	wordpools/wasnorm_wordpool_576.txt	LTP207	ltpFR2	6	7	PLAYGROUND	1087	n/a	n/a	0	0	0
1520.004	n/a	WORD	760002	wordpools/wasnorm_wordpool_576.txt	LTP207	ltpFR2	6	7	FOOTBALL	591	n/a	n/a	0	0	0
1522.768	n/a	WORD	761384	wordpools/wasnorm_wordpool_576.txt	LTP207	ltpFR2	6	7	ROBOT	1200	n/a	n/a	0	0	0
1525.198	n/a	WORD	762599	wordpools/wasnorm_wordpool_576.txt	LTP207	ltpFR2	6	7	SWAMP	1416	n/a	n/a	0	0	0
1527.894	n/a	WORD	763947	wordpools/wasnorm_wordpool_576.txt	LTP207	ltpFR2	6	7	MARKER	870	n/a	n/a	0	0	0
1530.706	n/a	WORD	765353	wordpools/wasnorm_wordpool_576.txt	LTP207	ltpFR2	6	7	CABBAGE	210	n/a	n/a	0	0	0
1533.518	n/a	WORD	766759	wordpools/wasnorm_wordpool_576.txt	LTP207	ltpFR2	6	7	PARENT	1013	n/a	n/a	0	0	0
1535.998	n/a	WORD	767999	wordpools/wasnorm_wordpool_576.txt	LTP207	ltpFR2	6	7	SISTER	1312	n/a	n/a	0	0	0
1537.612	n/a	START	768806	n/a	LTP207	ltpFR2	6	n/a	n/a	n/a	9	n/a	n/a	n/a	n/a
1538.636	n/a	DISTRACTOR	769318	n/a	LTP207	ltpFR2	6	7	n/a	n/a	n/a	n/a	0	0	0
1538.644	n/a	PROB	769322	n/a	LTP207	ltpFR2	6	n/a	n/a	n/a	9	22	9	4	9
1540.276	n/a	PROB	770138	n/a	LTP207	ltpFR2	6	n/a	n/a	n/a	9	23	9	9	5
1541.94	n/a	PROB	770970	n/a	LTP207	ltpFR2	6	n/a	n/a	n/a	9	14	3	2	9
1543.254	n/a	PROB	771627	n/a	LTP207	ltpFR2	6	n/a	n/a	n/a	9	12	1	7	4
1544.752	n/a	PROB	772376	n/a	LTP207	ltpFR2	6	n/a	n/a	n/a	9	14	8	4	2
1546.234	n/a	PROB	773117	n/a	LTP207	ltpFR2	6	n/a	n/a	n/a	9	18	9	7	2
1547.698	n/a	PROB	773849	n/a	LTP207	ltpFR2	6	n/a	n/a	n/a	9	16	5	4	7
1549.196	n/a	PROB	774598	n/a	LTP207	ltpFR2	6	n/a	n/a	n/a	9	15	1	5	9
1550.378	n/a	PROB	775189	n/a	LTP207	ltpFR2	6	n/a	n/a	n/a	9	13	6	2	5
1551.824	n/a	PROB	775912	n/a	LTP207	ltpFR2	6	n/a	n/a	n/a	9	13	7	4	2
1553.24	n/a	PROB	776620	n/a	LTP207	ltpFR2	6	n/a	n/a	n/a	9	12	1	3	8
1554.272	n/a	PROB	777136	n/a	LTP207	ltpFR2	6	n/a	n/a	n/a	9	16	8	1	7
1555.686	n/a	PROB	777843	n/a	LTP207	ltpFR2	6	n/a	n/a	n/a	9	23	8	9	6
1557.682	n/a	PROB	778841	n/a	LTP207	ltpFR2	6	n/a	n/a	n/a	9	23	7	8	8
1559.63	n/a	PROB	779815	n/a	LTP207	ltpFR2	6	n/a	n/a	n/a	9	14	4	2	8
1561.484	n/a	STOP	780742	n/a	LTP207	ltpFR2	6	n/a	n/a	n/a	9	n/a	n/a	n/a	n/a
1563.424	n/a	REC_START	781712	n/a	LTP207	ltpFR2	6	7	n/a	n/a	n/a	n/a	0	0	0
1581.876	n/a	REC_WORD	790938	wordpools/wasnorm_wordpool_576.txt	LTP207	ltpFR2	6	7	OUTDOORS	987	n/a	n/a	0	0	0
1582.876	n/a	REC_WORD_VV	791438	wordpools/wasnorm_wordpool_576.txt	LTP207	ltpFR2	6	7	<>	-1	n/a	n/a	0	0	0
1589.04	n/a	REC_WORD	794520	wordpools/wasnorm_wordpool_576.txt	LTP207	ltpFR2	6	7	COURSE	390	n/a	n/a	0	0	0
1611.354	n/a	REC_WORD	805677	wordpools/wasnorm_wordpool_576.txt	LTP207	ltpFR2	6	7	PLAYGROUND	1087	n/a	n/a	0	0	0
1615.092	n/a	REC_WORD	807546	wordpools/wasnorm_wordpool_576.txt	LTP207	ltpFR2	6	7	FILM	565	n/a	n/a	0	0	0
1616.142	n/a	REC_WORD	808071	wordpools/wasnorm_wordpool_576.txt	LTP207	ltpFR2	6	7	ACTRESS	6	n/a	n/a	0	0	0
1622.104	n/a	REC_WORD	811052	wordpools/wasnorm_wordpool_576.txt	LTP207	ltpFR2	6	7	LIZARD	834	n/a	n/a	0	0	0
1622.846	n/a	REC_WORD	811423	wordpools/wasnorm_wordpool_576.txt	LTP207	ltpFR2	6	7	SNAKE	1333	n/a	n/a	0	0	0
1623.784	n/a	REC_WORD	811892	wordpools/wasnorm_wordpool_576.txt	LTP207	ltpFR2	6	7	MACHINE	852	n/a	n/a	0	0	0
1654.09	n/a	DISTRACTOR	827045	n/a	LTP207	ltpFR2	6	8	n/a	n/a	n/a	n/a	0	0	0
1654.09	n/a	START	827045	n/a	LTP207	ltpFR2	6	n/a	n/a	n/a	10	n/a	n/a	n/a	n/a
1654.124	n/a	PROB	827062	n/a	LTP207	ltpFR2	6	n/a	n/a	n/a	10	13	6	4	3
1655.688	n/a	PROB	827844	n/a	LTP207	ltpFR2	6	n/a	n/a	n/a	10	20	6	8	6
1657.386	n/a	PROB	828693	n/a	LTP207	ltpFR2	6	n/a	n/a	n/a	10	18	6	6	6
1659.366	n/a	PROB	829683	n/a	LTP207	ltpFR2	6	n/a	n/a	n/a	10	15	9	1	5
1660.764	n/a	PROB	830382	n/a	LTP207	ltpFR2	6	n/a	n/a	n/a	10	17	3	9	5
1662.294	n/a	PROB	831147	n/a	LTP207	ltpFR2	6	n/a	n/a	n/a	10	17	2	8	7
1663.692	n/a	PROB	831846	n/a	LTP207	ltpFR2	6	n/a	n/a	n/a	10	22	8	8	6
1665.39	n/a	PROB	832695	n/a	LTP207	ltpFR2	6	n/a	n/a	n/a	10	15	6	5	4
1667.138	n/a	PROB	833569	n/a	LTP207	ltpFR2	6	n/a	n/a	n/a	10	18	4	9	5
1668.634	n/a	PROB	834317	n/a	LTP207	ltpFR2	6	n/a	n/a	n/a	10	20	8	9	3
1670.432	n/a	PROB	835216	n/a	LTP207	ltpFR2	6	n/a	n/a	n/a	10	18	7	3	8
1671.864	n/a	PROB	835932	n/a	LTP207	ltpFR2	6	n/a	n/a	n/a	10	10	5	2	3
1673.462	n/a	PROB	836731	n/a	LTP207	ltpFR2	6	n/a	n/a	n/a	10	20	8	7	5
1675.692	n/a	PROB	837846	n/a	LTP207	ltpFR2	6	n/a	n/a	n/a	10	14	4	6	4
1677.006	n/a	STOP	838503	n/a	LTP207	ltpFR2	6	n/a	n/a	n/a	10	n/a	n/a	n/a	n/a
1679.152	n/a	WORD	839576	wordpools/wasnorm_wordpool_576.txt	LTP207	ltpFR2	6	8	TWEEZERS	1526	n/a	n/a	0	0	0
1681.6	n/a	WORD	840800	wordpools/wasnorm_wordpool_576.txt	LTP207	ltpFR2	6	8	GREASE	660	n/a	n/a	0	0	0
1684.112	n/a	WORD	842056	wordpools/wasnorm_wordpool_576.txt	LTP207	ltpFR2	6	8	PIGMENT	1066	n/a	n/a	0	0	0
1686.808	n/a	WORD	843404	wordpools/wasnorm_wordpool_576.txt	LTP207	ltpFR2	6	8	MATTRESS	879	n/a	n/a	0	0	0
1689.388	n/a	WORD	844694	wordpools/wasnorm_wordpool_576.txt	LTP207	ltpFR2	6	8	BURGLAR	200	n/a	n/a	0	0	0
1692.084	n/a	WORD	846042	wordpools/wasnorm_wordpool_576.txt	LTP207	ltpFR2	6	8	WAGON	1578	n/a	n/a	0	0	0
1694.73	n/a	WORD	847365	wordpools/wasnorm_wordpool_576.txt	LTP207	ltpFR2	6	8	PISTON	1076	n/a	n/a	0	0	0
1697.376	n/a	WORD	848688	wordpools/wasnorm_wordpool_576.txt	LTP207	ltpFR2	6	8	DRUG	501	n/a	n/a	0	0	0
1700.138	n/a	WORD	850069	wordpools/wasnorm_wordpool_576.txt	LTP207	ltpFR2	6	8	OX	994	n/a	n/a	0	0	0
1702.818	n/a	WORD	851409	wordpools/wasnorm_wordpool_576.txt	LTP207	ltpFR2	6	8	PATIENT	1024	n/a	n/a	0	0	0
1705.514	n/a	WORD	852757	wordpools/wasnorm_wordpool_576.txt	LTP207	ltpFR2	6	8	FLESH	579	n/a	n/a	0	0	0
1708.06	n/a	WORD	854030	wordpools/wasnorm_wordpool_576.txt	LTP207	ltpFR2	6	8	MUMMY	932	n/a	n/a	0	0	0
1710.524	n/a	WORD	855262	wordpools/wasnorm_wordpool_576.txt	LTP207	ltpFR2	6	8	PALACE	1006	n/a	n/a	0	0	0
1713.252	n/a	WORD	856626	wordpools/wasnorm_wordpool_576.txt	LTP207	ltpFR2	6	8	CATTLE	261	n/a	n/a	0	0	0
1715.732	n/a	WORD	857866	wordpools/wasnorm_wordpool_576.txt	LTP207	ltpFR2	6	8	GANGSTER	620	n/a	n/a	0	0	0
1718.428	n/a	WORD	859214	wordpools/wasnorm_wordpool_576.txt	LTP207	ltpFR2	6	8	JUNGLE	764	n/a	n/a	0	0	0
1720.892	n/a	WORD	860446	wordpools/wasnorm_wordpool_576.txt	LTP207	ltpFR2	6	8	COFFEE	341	n/a	n/a	0	0	0
1723.604	n/a	WORD	861802	wordpools/wasnorm_wordpool_576.txt	LTP207	ltpFR2	6	8	LAGOON	795	n/a	n/a	0	0	0
1726.382	n/a	WORD	863191	wordpools/wasnorm_wordpool_576.txt	LTP207	ltpFR2	6	8	ORCHID	982	n/a	n/a	0	0	0
1728.962	n/a	WORD	864481	wordpools/wasnorm_wordpool_576.txt	LTP207	ltpFR2	6	8	LILY	821	n/a	n/a	0	0	0
1731.692	n/a	WORD	865846	wordpools/wasnorm_wordpool_576.txt	LTP207	ltpFR2	6	8	FIREPLACE	570	n/a	n/a	0	0	0
1734.122	n/a	WORD	867061	wordpools/wasnorm_wordpool_576.txt	LTP207	ltpFR2	6	8	SPACE	1345	n/a	n/a	0	0	0
1736.684	n/a	WORD	868342	wordpools/wasnorm_wordpool_576.txt	LTP207	ltpFR2	6	8	XEROX	1628	n/a	n/a	0	0	0
1739.23	n/a	WORD	869615	wordpools/wasnorm_wordpool_576.txt	LTP207	ltpFR2	6	8	WORKER	1621	n/a	n/a	0	0	0
1740.846	n/a	START	870423	n/a	LTP207	ltpFR2	6	n/a	n/a	n/a	11	n/a	n/a	n/a	n/a
1742.0	n/a	DISTRACTOR	871000	n/a	LTP207	ltpFR2	6	8	n/a	n/a	n/a	n/a	0	0	0
1742.01	n/a	PROB	871005	n/a	LTP207	ltpFR2	6	n/a	n/a	n/a	11	12	2	3	7
1743.424	n/a	PROB	871712	n/a	LTP207	ltpFR2	6	n/a	n/a	n/a	11	10	1	8	1
1744.788	n/a	PROB	872394	n/a	LTP207	ltpFR2	6	n/a	n/a	n/a	11	17	3	9	5
1746.52	n/a	PROB	873260	n/a	LTP207	ltpFR2	6	n/a	n/a	n/a	11	15	4	8	3
1747.918	n/a	PROB	873959	n/a	LTP207	ltpFR2	6	n/a	n/a	n/a	11	11	3	6	2
1749.664	n/a	PROB	874832	n/a	LTP207	ltpFR2	6	n/a	n/a	n/a	11	15	1	9	5
1750.914	n/a	PROB	875457	n/a	LTP207	ltpFR2	6	n/a	n/a	n/a	11	14	5	2	7
1752.61	n/a	PROB	876305	n/a	LTP207	ltpFR2	6	n/a	n/a	n/a	11	14	2	7	5
1754.108	n/a	PROB	877054	n/a	LTP207	ltpFR2	6	n/a	n/a	n/a	11	12	1	5	6
1755.324	n/a	PROB	877662	n/a	LTP207	ltpFR2	6	n/a	n/a	n/a	11	18	1	8	9
1756.522	n/a	PROB	878261	n/a	LTP207	ltpFR2	6	n/a	n/a	n/a	11	21	9	4	8
1759.816	n/a	PROB	879908	n/a	LTP207	ltpFR2	6	n/a	n/a	n/a	11	16	2	7	7
1763.028	n/a	PROB	881514	n/a	LTP207	ltpFR2	6	n/a	n/a	n/a	11	26	8	9	9
1764.446	n/a	STOP	882223	n/a	LTP207	ltpFR2	6	n/a	n/a	n/a	11	n/a	n/a	n/a	n/a
1766.656	n/a	REC_START	883328	n/a	LTP207	ltpFR2	6	8	n/a	n/a	n/a	n/a	0	0	0
1768.186	n/a	REC_WORD	884093	wordpools/wasnorm_wordpool_576.txt	LTP207	ltpFR2	6	8	XEROX	1628	n/a	n/a	0	0	0
1769.856	n/a	REC_WORD	884928	wordpools/wasnorm_wordpool_576.txt	LTP207	ltpFR2	6	8	OX	994	n/a	n/a	0	0	0
1771.274	n/a	REC_WORD	885637	wordpools/wasnorm_wordpool_576.txt	LTP207	ltpFR2	6	8	DRAGON	492	n/a	n/a	0	0	0
1775.746	n/a	REC_WORD	887873	wordpools/wasnorm_wordpool_576.txt	LTP207	ltpFR2	6	8	TWEEZERS	1526	n/a	n/a	0	0	0
1778.244	n/a	REC_WORD	889122	wordpools/wasnorm_wordpool_576.txt	LTP207	ltpFR2	6	8	BURGLAR	200	n/a	n/a	0	0	0
1843.31	n/a	REST_REWET	921655	n/a	LTP207	ltpFR2	6	8	n/a	n/a	n/a	n/a	0	0	0
2536.95	n/a	WORD	1268475	wordpools/wasnorm_wordpool_576.txt	LTP207	ltpFR2	6	9	CATCHER	258	n/a	n/a	0	0	0
2539.646	n/a	WORD	1269823	wordpools/wasnorm_wordpool_576.txt	LTP207	ltpFR2	6	9	EXPERT	543	n/a	n/a	0	0	0
2542.392	n/a	WORD	1271196	wordpools/wasnorm_wordpool_576.txt	LTP207	ltpFR2	6	9	GRAPE	654	n/a	n/a	0	0	0
2545.104	n/a	WORD	1272552	wordpools/wasnorm_wordpool_576.txt	LTP207	ltpFR2	6	9	ARM	38	n/a	n/a	0	0	0
2547.716	n/a	WORD	1273858	wordpools/wasnorm_wordpool_576.txt	LTP207	ltpFR2	6	9	CRUTCH	417	n/a	n/a	0	0	0
2550.262	n/a	WORD	1275131	wordpools/wasnorm_wordpool_576.txt	LTP207	ltpFR2	6	9	POISON	1096	n/a	n/a	0	0	0
2552.76	n/a	WORD	1276380	wordpools/wasnorm_wordpool_576.txt	LTP207	ltpFR2	6	9	PRINCESS	1125	n/a	n/a	0	0	0
2555.472	n/a	WORD	1277736	wordpools/wasnorm_wordpool_576.txt	LTP207	ltpFR2	6	9	MARINE	869	n/a	n/a	0	0	0
2558.234	n/a	WORD	1279117	wordpools/wasnorm_wordpool_576.txt	LTP207	ltpFR2	6	9	BLACKBOARD	133	n/a	n/a	0	0	0
2560.714	n/a	WORD	1280357	wordpools/wasnorm_wordpool_576.txt	LTP207	ltpFR2	6	9	BRANDY	169	n/a	n/a	0	0	0
2563.376	n/a	WORD	1281688	wordpools/wasnorm_wordpool_576.txt	LTP207	ltpFR2	6	9	UMPIRE	1535	n/a	n/a	0	0	0
2565.84	n/a	WORD	1282920	wordpools/wasnorm_wordpool_576.txt	LTP207	ltpFR2	6	9	CITRUS	313	n/a	n/a	0	0	0
2568.586	n/a	WORD	1284293	wordpools/wasnorm_wordpool_576.txt	LTP207	ltpFR2	6	9	BLUEPRINT	142	n/a	n/a	0	0	0
2571.398	n/a	WORD	1285699	wordpools/wasnorm_wordpool_576.txt	LTP207	ltpFR2	6	9	JAPAN	749	n/a	n/a	0	0	0
2573.844	n/a	WORD	1286922	wordpools/wasnorm_wordpool_576.txt	LTP207	ltpFR2	6	9	GRAVE	658	n/a	n/a	0	0	0
2576.54	n/a	WORD	1288270	wordpools/wasnorm_wordpool_576.txt	LTP207	ltpFR2	6	9	KNIFE	785	n/a	n/a	0	0	0
2579.252	n/a	WORD	1289626	wordpools/wasnorm_wordpool_576.txt	LTP207	ltpFR2	6	9	SPOON	1357	n/a	n/a	0	0	0
2581.898	n/a	WORD	1290949	wordpools/wasnorm_wordpool_576.txt	LTP207	ltpFR2	6	9	CROWN	415	n/a	n/a	0	0	0
2584.562	n/a	WORD	1292281	wordpools/wasnorm_wordpool_576.txt	LTP207	ltpFR2	6	9	SHERIFF	1284	n/a	n/a	0	0	0
2586.992	n/a	WORD	1293496	wordpools/wasnorm_wordpool_576.txt	LTP207	ltpFR2	6	9	JUGGLER	763	n/a	n/a	0	0	0
2589.688	n/a	WORD	1294844	wordpools/wasnorm_wordpool_576.txt	LTP207	ltpFR2	6	9	BROOK	177	n/a	n/a	0	0	0
2592.468	n/a	WORD	1296234	wordpools/wasnorm_wordpool_576.txt	LTP207	ltpFR2	6	9	DUSTPAN	509	n/a	n/a	0	0	0
2595.064	n/a	WORD	1297532	wordpools/wasnorm_wordpool_576.txt	LTP207	ltpFR2	6	9	GIRL	637	n/a	n/a	0	0	0
2597.81	n/a	WORD	1298905	wordpools/wasnorm_wordpool_576.txt	LTP207	ltpFR2	6	9	BREAST	171	n/a	n/a	0	0	0
2599.424	n/a	START	1299712	n/a	LTP207	ltpFR2	6	n/a	n/a	n/a	12	n/a	n/a	n/a	n/a
2600.324	n/a	DISTRACTOR	1300162	n/a	LTP207	ltpFR2	6	9	n/a	n/a	n/a	n/a	0	0	0
2600.34	n/a	PROB	1300170	n/a	LTP207	ltpFR2	6	n/a	n/a	n/a	12	14	6	1	7
2601.72	n/a	PROB	1300860	n/a	LTP207	ltpFR2	6	n/a	n/a	n/a	12	23	8	9	6
2603.534	n/a	PROB	1301767	n/a	LTP207	ltpFR2	6	n/a	n/a	n/a	12	11	6	1	4
2604.7	n/a	PROB	1302350	n/a	LTP207	ltpFR2	6	n/a	n/a	n/a	12	16	4	6	6
2606.596	n/a	PROB	1303298	n/a	LTP207	ltpFR2	6	n/a	n/a	n/a	12	13	6	6	1
2607.962	n/a	PROB	1303981	n/a	LTP207	ltpFR2	6	n/a	n/a	n/a	12	12	5	5	2
2608.96	n/a	PROB	1304480	n/a	LTP207	ltpFR2	6	n/a	n/a	n/a	12	21	5	9	7
2611.556	n/a	PROB	1305778	n/a	LTP207	ltpFR2	6	n/a	n/a	n/a	12	16	5	8	3
2612.97	n/a	PROB	1306485	n/a	LTP207	ltpFR2	6	n/a	n/a	n/a	12	15	1	9	5
2614.418	n/a	PROB	1307209	n/a	LTP207	ltpFR2	6	n/a	n/a	n/a	12	18	8	1	9
2615.916	n/a	PROB	1307958	n/a	LTP207	ltpFR2	6	n/a	n/a	n/a	12	8	3	2	3
2617.43	n/a	PROB	1308715	n/a	LTP207	ltpFR2	6	n/a	n/a	n/a	12	9	1	6	2
2619.078	n/a	PROB	1309539	n/a	LTP207	ltpFR2	6	n/a	n/a	n/a	12	11	6	1	4
2620.326	n/a	PROB	1310163	n/a	LTP207	ltpFR2	6	n/a	n/a	n/a	12	6	4	1	1
2621.724	n/a	PROB	1310862	n/a	LTP207	ltpFR2	6	n/a	n/a	n/a	12	18	3	6	9
2623.066	n/a	STOP	1311533	n/a	LTP207	ltpFR2	6	n/a	n/a	n/a	12	n/a	n/a	n/a	n/a
2625.302	n/a	REC_START	1312651	n/a	LTP207	ltpFR2	6	9	n/a	n/a	n/a	n/a	0	0	0
2630.852	n/a	REC_WORD	1315426	wordpools/wasnorm_wordpool_576.txt	LTP207	ltpFR2	6	9	POISON	1096	n/a	n/a	0	0	0
2632.688	n/a	REC_WORD	1316344	wordpools/wasnorm_wordpool_576.txt	LTP207	ltpFR2	6	9	EXPERT	543	n/a	n/a	0	0	0
2634.752	n/a	REC_WORD	1317376	wordpools/wasnorm_wordpool_576.txt	LTP207	ltpFR2	6	9	CRUTCH	417	n/a	n/a	0	0	0
2639.84	n/a	REC_WORD	1319920	wordpools/wasnorm_wordpool_576.txt	LTP207	ltpFR2	6	9	GIRL	637	n/a	n/a	0	0	0
2715.968	n/a	DISTRACTOR	1357984	n/a	LTP207	ltpFR2	6	10	n/a	n/a	n/a	n/a	0	0	0
2715.968	n/a	START	1357984	n/a	LTP207	ltpFR2	6	n/a	n/a	n/a	13	n/a	n/a	n/a	n/a
2716.0	n/a	PROB	1358000	n/a	LTP207	ltpFR2	6	n/a	n/a	n/a	13	18	5	8	5
2717.516	n/a	PROB	1358758	n/a	LTP207	ltpFR2	6	n/a	n/a	n/a	13	12	5	2	5
2718.946	n/a	PROB	1359473	n/a	LTP207	ltpFR2	6	n/a	n/a	n/a	13	20	6	9	5
2720.394	n/a	PROB	1360197	n/a	LTP207	ltpFR2	6	n/a	n/a	n/a	13	9	1	1	7
2721.942	n/a	PROB	1360971	n/a	LTP207	ltpFR2	6	n/a	n/a	n/a	13	5	1	2	2
2722.94	n/a	PROB	1361470	n/a	LTP207	ltpFR2	6	n/a	n/a	n/a	13	13	4	3	6
2724.188	n/a	PROB	1362094	n/a	LTP207	ltpFR2	6	n/a	n/a	n/a	13	9	5	1	3
2726.152	n/a	PROB	1363076	n/a	LTP207	ltpFR2	6	n/a	n/a	n/a	13	9	1	5	3
2727.5	n/a	PROB	1363750	n/a	LTP207	ltpFR2	6	n/a	n/a	n/a	13	8	4	3	1
2728.864	n/a	PROB	1364432	n/a	LTP207	ltpFR2	6	n/a	n/a	n/a	13	14	6	6	2
2730.212	n/a	PROB	1365106	n/a	LTP207	ltpFR2	6	n/a	n/a	n/a	13	12	6	3	3
2731.744	n/a	PROB	1365872	n/a	LTP207	ltpFR2	6	n/a	n/a	n/a	13	15	1	7	7
2732.792	n/a	PROB	1366396	n/a	LTP207	ltpFR2	6	n/a	n/a	n/a	13	11	1	6	4
2733.808	n/a	PROB	1366904	n/a	LTP207	ltpFR2	6	n/a	n/a	n/a	13	15	9	1	5
2734.972	n/a	PROB	1367486	n/a	LTP207	ltpFR2	6	n/a	n/a	n/a	13	15	1	7	7
2736.138	n/a	PROB	1368069	n/a	LTP207	ltpFR2	6	n/a	n/a	n/a	13	6	1	2	3
2739.968	n/a	STOP	1369984	n/a	LTP207	ltpFR2	6	n/a	n/a	n/a	13	n/a	n/a	n/a	n/a
2741.114	n/a	WORD	1370557	wordpools/wasnorm_wordpool_576.txt	LTP207	ltpFR2	6	10	RECEIPT	1173	n/a	n/a	0	0	0
2743.892	n/a	WORD	1371946	wordpools/wasnorm_wordpool_576.txt	LTP207	ltpFR2	6	10	CLOTHES	327	n/a	n/a	0	0	0
2746.69	n/a	WORD	1373345	wordpools/wasnorm_wordpool_576.txt	LTP207	ltpFR2	6	10	GLOVE	642	n/a	n/a	0	0	0
2749.518	n/a	WORD	1374759	wordpools/wasnorm_wordpool_576.txt	LTP207	ltpFR2	6	10	WRIST	1626	n/a	n/a	0	0	0
2752.182	n/a	WORD	1376091	wordpools/wasnorm_wordpool_576.txt	LTP207	ltpFR2	6	10	FRAGRANCE	599	n/a	n/a	0	0	0
2754.81	n/a	WORD	1377405	wordpools/wasnorm_wordpool_576.txt	LTP207	ltpFR2	6	10	TRUCK	1512	n/a	n/a	0	0	0
2757.59	n/a	WORD	1378795	wordpools/wasnorm_wordpool_576.txt	LTP207	ltpFR2	6	10	YACHT	1629	n/a	n/a	0	0	0
2760.036	n/a	WORD	1380018	wordpools/wasnorm_wordpool_576.txt	LTP207	ltpFR2	6	10	CRAYON	401	n/a	n/a	0	0	0
2762.832	n/a	WORD	1381416	wordpools/wasnorm_wordpool_576.txt	LTP207	ltpFR2	6	10	CREVICE	405	n/a	n/a	0	0	0
2765.412	n/a	WORD	1382706	wordpools/wasnorm_wordpool_576.txt	LTP207	ltpFR2	6	10	BRACES	164	n/a	n/a	0	0	0
2767.858	n/a	WORD	1383929	wordpools/wasnorm_wordpool_576.txt	LTP207	ltpFR2	6	10	RAFT	1159	n/a	n/a	0	0	0
2770.354	n/a	WORD	1385177	wordpools/wasnorm_wordpool_576.txt	LTP207	ltpFR2	6	10	WORLD	1622	n/a	n/a	0	0	0
2773.134	n/a	WORD	1386567	wordpools/wasnorm_wordpool_576.txt	LTP207	ltpFR2	6	10	KITCHEN	778	n/a	n/a	0	0	0
2775.58	n/a	WORD	1387790	wordpools/wasnorm_wordpool_576.txt	LTP207	ltpFR2	6	10	TROMBONE	1508	n/a	n/a	0	0	0
2778.308	n/a	WORD	1389154	wordpools/wasnorm_wordpool_576.txt	LTP207	ltpFR2	6	10	BODY	145	n/a	n/a	0	0	0
2780.854	n/a	WORD	1390427	wordpools/wasnorm_wordpool_576.txt	LTP207	ltpFR2	6	10	CLOCK	325	n/a	n/a	0	0	0
2783.618	n/a	WORD	1391809	wordpools/wasnorm_wordpool_576.txt	LTP207	ltpFR2	6	10	DOUGHNUT	490	n/a	n/a	0	0	0
2786.114	n/a	WORD	1393057	wordpools/wasnorm_wordpool_576.txt	LTP207	ltpFR2	6	10	YARN	1631	n/a	n/a	0	0	0
2788.794	n/a	WORD	1394397	wordpools/wasnorm_wordpool_576.txt	LTP207	ltpFR2	6	10	POWDER	1117	n/a	n/a	0	0	0
2791.522	n/a	WORD	1395761	wordpools/wasnorm_wordpool_576.txt	LTP207	ltpFR2	6	10	ELBOW	520	n/a	n/a	0	0	0
2794.334	n/a	WORD	1397167	wordpools/wasnorm_wordpool_576.txt	LTP207	ltpFR2	6	10	COUSIN	392	n/a	n/a	0	0	0
2797.064	n/a	WORD	1398532	wordpools/wasnorm_wordpool_576.txt	LTP207	ltpFR2	6	10	UNCLE	1536	n/a	n/a	0	0	0
2799.51	n/a	WORD	1399755	wordpools/wasnorm_wordpool_576.txt	LTP207	ltpFR2	6	10	EGYPT	519	n/a	n/a	0	0	0
2802.174	n/a	WORD	1401087	wordpools/wasnorm_wordpool_576.txt	LTP207	ltpFR2	6	10	COUNTRY	388	n/a	n/a	0	0	0
2803.788	n/a	START	1401894	n/a	LTP207	ltpFR2	6	n/a	n/a	n/a	14	n/a	n/a	n/a	n/a
2804.672	n/a	DISTRACTOR	1402336	n/a	LTP207	ltpFR2	6	10	n/a	n/a	n/a	n/a	0	0	0
2804.686	n/a	PROB	1402343	n/a	LTP207	ltpFR2	6	n/a	n/a	n/a	14	18	5	4	9
2807.632	n/a	PROB	1403816	n/a	LTP207	ltpFR2	6	n/a	n/a	n/a	14	14	4	5	5
2808.764	n/a	PROB	1404382	n/a	LTP207	ltpFR2	6	n/a	n/a	n/a	14	19	7	6	6
2810.162	n/a	PROB	1405081	n/a	LTP207	ltpFR2	6	n/a	n/a	n/a	14	11	6	1	4
2811.292	n/a	PROB	1405646	n/a	LTP207	ltpFR2	6	n/a	n/a	n/a	14	17	7	3	7
2813.49	n/a	PROB	1406745	n/a	LTP207	ltpFR2	6	n/a	n/a	n/a	14	24	8	9	7
2815.72	n/a	PROB	1407860	n/a	LTP207	ltpFR2	6	n/a	n/a	n/a	14	18	5	7	6
2817.284	n/a	PROB	1408642	n/a	LTP207	ltpFR2	6	n/a	n/a	n/a	14	15	4	7	4
2818.548	n/a	PROB	1409274	n/a	LTP207	ltpFR2	6	n/a	n/a	n/a	14	11	6	5	7
2820.412	n/a	PROB	1410206	n/a	LTP207	ltpFR2	6	n/a	n/a	n/a	14	21	7	6	8
2822.026	n/a	PROB	1411013	n/a	LTP207	ltpFR2	6	n/a	n/a	n/a	14	19	8	6	5
2823.808	n/a	PROB	1411904	n/a	LTP207	ltpFR2	6	n/a	n/a	n/a	14	11	4	5	2
2825.788	n/a	PROB	1412894	n/a	LTP207	ltpFR2	6	n/a	n/a	n/a	14	8	2	4	4
2827.14	n/a	STOP	1413570	n/a	LTP207	ltpFR2	6	n/a	n/a	n/a	14	n/a	n/a	n/a	n/a
2829.734	n/a	REC_START	1414867	n/a	LTP207	ltpFR2	6	10	n/a	n/a	n/a	n/a	0	0	0
2832.314	n/a	REC_WORD	1416157	wordpools/wasnorm_wordpool_576.txt	LTP207	ltpFR2	6	10	TROMBONE	1508	n/a	n/a	0	0	0
2833.746	n/a	REC_WORD	1416873	wordpools/wasnorm_wordpool_576.txt	LTP207	ltpFR2	6	10	BODY	145	n/a	n/a	0	0	0
2834.922	n/a	REC_WORD	1417461	wordpools/wasnorm_wordpool_576.txt	LTP207	ltpFR2	6	10	CLOCK	325	n/a	n/a	0	0	0
2837.426	n/a	REC_WORD	1418713	wordpools/wasnorm_wordpool_576.txt	LTP207	ltpFR2	6	10	YACHT	1629	n/a	n/a	0	0	0
2838.446	n/a	REC_WORD	1419223	wordpools/wasnorm_wordpool_576.txt	LTP207	ltpFR2	6	10	TRUCK	1512	n/a	n/a	0	0	0
2840.042	n/a	REC_WORD	1420021	wordpools/wasnorm_wordpool_576.txt	LTP207	ltpFR2	6	10	KITCHEN	778	n/a	n/a	0	0	0
2845.96	n/a	REC_WORD	1422980	wordpools/wasnorm_wordpool_576.txt	LTP207	ltpFR2	6	10	RECEIPT	1173	n/a	n/a	0	0	0
2849.026	n/a	REC_WORD	1424513	wordpools/wasnorm_wordpool_576.txt	LTP207	ltpFR2	6	10	CLOTHES	327	n/a	n/a	0	0	0
2850.08	n/a	REC_WORD	1425040	wordpools/wasnorm_wordpool_576.txt	LTP207	ltpFR2	6	10	GLOVE	642	n/a	n/a	0	0	0
2851.498	n/a	REC_WORD	1425749	wordpools/wasnorm_wordpool_576.txt	LTP207	ltpFR2	6	10	WRIST	1626	n/a	n/a	0	0	0
2853.312	n/a	REC_WORD	1426656	wordpools/wasnorm_wordpool_576.txt	LTP207	ltpFR2	6	10	FRAGRANCE	599	n/a	n/a	0	0	0
2854.312	n/a	REC_WORD_VV	1427156	wordpools/wasnorm_wordpool_576.txt	LTP207	ltpFR2	6	10	<>	-1	n/a	n/a	0	0	0
2920.432	n/a	DISTRACTOR	1460216	n/a	LTP207	ltpFR2	6	11	n/a	n/a	n/a	n/a	0	0	0
2920.432	n/a	START	1460216	n/a	LTP207	ltpFR2	6	n/a	n/a	n/a	15	n/a	n/a	n/a	n/a
2920.466	n/a	PROB	1460233	n/a	LTP207	ltpFR2	6	n/a	n/a	n/a	15	16	5	5	6
2922.162	n/a	PROB	1461081	n/a	LTP207	ltpFR2	6	n/a	n/a	n/a	15	13	1	8	4
2924.126	n/a	PROB	1462063	n/a	LTP207	ltpFR2	6	n/a	n/a	n/a	15	19	7	6	6
2926.106	n/a	PROB	1463053	n/a	LTP207	ltpFR2	6	n/a	n/a	n/a	15	11	6	1	4
2927.82	n/a	PROB	1463910	n/a	LTP207	ltpFR2	6	n/a	n/a	n/a	15	12	6	5	1
2928.902	n/a	PROB	1464451	n/a	LTP207	ltpFR2	6	n/a	n/a	n/a	15	19	2	9	8
2931.332	n/a	PROB	1465666	n/a	LTP207	ltpFR2	6	n/a	n/a	n/a	15	13	1	4	8
2932.43	n/a	PROB	1466215	n/a	LTP207	ltpFR2	6	n/a	n/a	n/a	15	16	2	5	9
2934.578	n/a	PROB	1467289	n/a	LTP207	ltpFR2	6	n/a	n/a	n/a	15	23	8	6	9
2936.258	n/a	PROB	1468129	n/a	LTP207	ltpFR2	6	n/a	n/a	n/a	15	22	6	7	9
2938.022	n/a	PROB	1469011	n/a	LTP207	ltpFR2	6	n/a	n/a	n/a	15	16	6	8	2
2940.152	n/a	PROB	1470076	n/a	LTP207	ltpFR2	6	n/a	n/a	n/a	15	18	9	2	7
2941.734	n/a	PROB	1470867	n/a	LTP207	ltpFR2	6	n/a	n/a	n/a	15	13	3	1	9
2942.878	n/a	STOP	1471439	n/a	LTP207	ltpFR2	6	n/a	n/a	n/a	15	n/a	n/a	n/a	n/a
2945.278	n/a	WORD	1472639	wordpools/wasnorm_wordpool_576.txt	LTP207	ltpFR2	6	11	PANTHER	1009	n/a	n/a	0	0	0
2947.842	n/a	WORD	1473921	wordpools/wasnorm_wordpool_576.txt	LTP207	ltpFR2	6	11	LUGGAGE	847	n/a	n/a	0	0	0
2950.47	n/a	WORD	1475235	wordpools/wasnorm_wordpool_576.txt	LTP207	ltpFR2	6	11	KNAPSACK	783	n/a	n/a	0	0	0
2953.2	n/a	WORD	1476600	wordpools/wasnorm_wordpool_576.txt	LTP207	ltpFR2	6	11	PASTRY	1022	n/a	n/a	0	0	0
2955.68	n/a	WORD	1477840	wordpools/wasnorm_wordpool_576.txt	LTP207	ltpFR2	6	11	VENUS	1557	n/a	n/a	0	0	0
2958.392	n/a	WORD	1479196	wordpools/wasnorm_wordpool_576.txt	LTP207	ltpFR2	6	11	HEDGE	699	n/a	n/a	0	0	0
2961.172	n/a	WORD	1480586	wordpools/wasnorm_wordpool_576.txt	LTP207	ltpFR2	6	11	SURVEY	1414	n/a	n/a	0	0	0
2963.768	n/a	WORD	1481884	wordpools/wasnorm_wordpool_576.txt	LTP207	ltpFR2	6	11	ATLAS	53	n/a	n/a	0	0	0
2966.43	n/a	WORD	1483215	wordpools/wasnorm_wordpool_576.txt	LTP207	ltpFR2	6	11	COIN	343	n/a	n/a	0	0	0
2969.126	n/a	WORD	1484563	wordpools/wasnorm_wordpool_576.txt	LTP207	ltpFR2	6	11	BISON	131	n/a	n/a	0	0	0
2971.688	n/a	WORD	1485844	wordpools/wasnorm_wordpool_576.txt	LTP207	ltpFR2	6	11	LUMBER	848	n/a	n/a	0	0	0
2974.402	n/a	WORD	1487201	wordpools/wasnorm_wordpool_576.txt	LTP207	ltpFR2	6	11	MARS	873	n/a	n/a	0	0	0
2977.13	n/a	WORD	1488565	wordpools/wasnorm_wordpool_576.txt	LTP207	ltpFR2	6	11	BOX	159	n/a	n/a	0	0	0
2979.66	n/a	WORD	1489830	wordpools/wasnorm_wordpool_576.txt	LTP207	ltpFR2	6	11	HEADBAND	696	n/a	n/a	0	0	0
2982.272	n/a	WORD	1491136	wordpools/wasnorm_wordpool_576.txt	LTP207	ltpFR2	6	11	STONE	1385	n/a	n/a	0	0	0
2984.72	n/a	WORD	1492360	wordpools/wasnorm_wordpool_576.txt	LTP207	ltpFR2	6	11	FRIAR	605	n/a	n/a	0	0	0
2987.482	n/a	WORD	1493741	wordpools/wasnorm_wordpool_576.txt	LTP207	ltpFR2	6	11	COWBOY	395	n/a	n/a	0	0	0
2990.128	n/a	WORD	1495064	wordpools/wasnorm_wordpool_576.txt	LTP207	ltpFR2	6	11	CARRIAGE	248	n/a	n/a	0	0	0
2992.61	n/a	WORD	1496305	wordpools/wasnorm_wordpool_576.txt	LTP207	ltpFR2	6	11	BADGE	68	n/a	n/a	0	0	0
2995.104	n/a	WORD	1497552	wordpools/wasnorm_wordpool_576.txt	LTP207	ltpFR2	6	11	PATROL	1027	n/a	n/a	0	0	0
2997.9	n/a	WORD	1498950	wordpools/wasnorm_wordpool_576.txt	LTP207	ltpFR2	6	11	THREAD	1460	n/a	n/a	0	0	0
3000.646	n/a	WORD	1500323	wordpools/wasnorm_wordpool_576.txt	LTP207	ltpFR2	6	11	ONION	977	n/a	n/a	0	0	0
3003.092	n/a	WORD	1501546	wordpools/wasnorm_wordpool_576.txt	LTP207	ltpFR2	6	11	CREATURE	403	n/a	n/a	0	0	0
3005.622	n/a	WORD	1502811	wordpools/wasnorm_wordpool_576.txt	LTP207	ltpFR2	6	11	CELLAR	267	n/a	n/a	0	0	0
3007.236	n/a	START	1503618	n/a	LTP207	ltpFR2	6	n/a	n/a	n/a	16	n/a	n/a	n/a	n/a
3008.086	n/a	DISTRACTOR	1504043	n/a	LTP207	ltpFR2	6	11	n/a	n/a	n/a	n/a	0	0	0
3008.102	n/a	PROB	1504051	n/a	LTP207	ltpFR2	6	n/a	n/a	n/a	16	12	4	1	7
3009.566	n/a	PROB	1504783	n/a	LTP207	ltpFR2	6	n/a	n/a	n/a	16	12	3	4	5
3011.348	n/a	PROB	1505674	n/a	LTP207	ltpFR2	6	n/a	n/a	n/a	16	19	6	4	9
3012.646	n/a	PROB	1506323	n/a	LTP207	ltpFR2	6	n/a	n/a	n/a	16	20	5	6	9
3014.026	n/a	PROB	1507013	n/a	LTP207	ltpFR2	6	n/a	n/a	n/a	16	12	4	2	6
3015.208	n/a	PROB	1507604	n/a	LTP207	ltpFR2	6	n/a	n/a	n/a	16	27	9	9	9
3016.722	n/a	PROB	1508361	n/a	LTP207	ltpFR2	6	n/a	n/a	n/a	16	16	6	3	9
3018.07	n/a	PROB	1509035	n/a	LTP207	ltpFR2	6	n/a	n/a	n/a	16	18	5	9	4
3020.2	n/a	PROB	1510100	n/a	LTP207	ltpFR2	6	n/a	n/a	n/a	16	8	1	3	4
3021.316	n/a	PROB	1510658	n/a	LTP207	ltpFR2	6	n/a	n/a	n/a	16	13	3	5	5
3022.43	n/a	PROB	1511215	n/a	LTP207	ltpFR2	6	n/a	n/a	n/a	16	12	2	3	7
3023.596	n/a	PROB	1511798	n/a	LTP207	ltpFR2	6	n/a	n/a	n/a	16	11	6	2	3
3024.91	n/a	PROB	1512455	n/a	LTP207	ltpFR2	6	n/a	n/a	n/a	16	12	3	7	2
3025.992	n/a	PROB	1512996	n/a	LTP207	ltpFR2	6	n/a	n/a	n/a	16	22	8	6	8
3027.59	n/a	PROB	1513795	n/a	LTP207	ltpFR2	6	n/a	n/a	n/a	16	13	5	1	7
3028.772	n/a	PROB	1514386	n/a	LTP207	ltpFR2	6	n/a	n/a	n/a	16	14	3	6	5
3030.488	n/a	STOP	1515244	n/a	LTP207	ltpFR2	6	n/a	n/a	n/a	16	n/a	n/a	n/a	n/a
3033.132	n/a	REC_START	1516566	n/a	LTP207	ltpFR2	6	11	n/a	n/a	n/a	n/a	0	0	0
3043.174	n/a	REC_WORD	1521587	wordpools/wasnorm_wordpool_576.txt	LTP207	ltpFR2	6	11	BLOCKADE	137	n/a	n/a	0	0	0
3123.814	n/a	WORD	1561907	wordpools/wasnorm_wordpool_576.txt	LTP207	ltpFR2	6	12	SHELTER	1282	n/a	n/a	0	0	0
3126.244	n/a	WORD	1563122	wordpools/wasnorm_wordpool_576.txt	LTP207	ltpFR2	6	12	BRICK	172	n/a	n/a	0	0	0
3128.99	n/a	WORD	1564495	wordpools/wasnorm_wordpool_576.txt	LTP207	ltpFR2	6	12	ROD	1203	n/a	n/a	0	0	0
3131.568	n/a	WORD	1565784	wordpools/wasnorm_wordpool_576.txt	LTP207	ltpFR2	6	12	STREAM	1392	n/a	n/a	0	0	0
3134.182	n/a	WORD	1567091	wordpools/wasnorm_wordpool_576.txt	LTP207	ltpFR2	6	12	BARLEY	88	n/a	n/a	0	0	0
3136.778	n/a	WORD	1568389	wordpools/wasnorm_wordpool_576.txt	LTP207	ltpFR2	6	12	SODA	1341	n/a	n/a	0	0	0
3139.24	n/a	WORD	1569620	wordpools/wasnorm_wordpool_576.txt	LTP207	ltpFR2	6	12	BUBBLE	183	n/a	n/a	0	0	0
3141.87	n/a	WORD	1570935	wordpools/wasnorm_wordpool_576.txt	LTP207	ltpFR2	6	12	ATOM	55	n/a	n/a	0	0	0
3144.45	n/a	WORD	1572225	wordpools/wasnorm_wordpool_576.txt	LTP207	ltpFR2	6	12	STAKE	1368	n/a	n/a	0	0	0
3146.896	n/a	WORD	1573448	wordpools/wasnorm_wordpool_576.txt	LTP207	ltpFR2	6	12	BROTHER	179	n/a	n/a	0	0	0
3149.376	n/a	WORD	1574688	wordpools/wasnorm_wordpool_576.txt	LTP207	ltpFR2	6	12	WINDOW	1611	n/a	n/a	0	0	0
3151.84	n/a	WORD	1575920	wordpools/wasnorm_wordpool_576.txt	LTP207	ltpFR2	6	12	GLASS	639	n/a	n/a	0	0	0
3154.568	n/a	WORD	1577284	wordpools/wasnorm_wordpool_576.txt	LTP207	ltpFR2	6	12	GRILL	661	n/a	n/a	0	0	0
3157.032	n/a	WORD	1578516	wordpools/wasnorm_wordpool_576.txt	LTP207	ltpFR2	6	12	MAMMAL	861	n/a	n/a	0	0	0
3159.628	n/a	WORD	1579814	wordpools/wasnorm_wordpool_576.txt	LTP207	ltpFR2	6	12	DRESS	495	n/a	n/a	0	0	0
3162.39	n/a	WORD	1581195	wordpools/wasnorm_wordpool_576.txt	LTP207	ltpFR2	6	12	BALLOON	75	n/a	n/a	0	0	0
3165.12	n/a	WORD	1582560	wordpools/wasnorm_wordpool_576.txt	LTP207	ltpFR2	6	12	DRILL	497	n/a	n/a	0	0	0
3167.666	n/a	WORD	1583833	wordpools/wasnorm_wordpool_576.txt	LTP207	ltpFR2	6	12	JURY	766	n/a	n/a	0	0	0
3170.096	n/a	WORD	1585048	wordpools/wasnorm_wordpool_576.txt	LTP207	ltpFR2	6	12	TUTU	1524	n/a	n/a	0	0	0
3172.658	n/a	WORD	1586329	wordpools/wasnorm_wordpool_576.txt	LTP207	ltpFR2	6	12	GUITAR	670	n/a	n/a	0	0	0
3175.138	n/a	WORD	1587569	wordpools/wasnorm_wordpool_576.txt	LTP207	ltpFR2	6	12	PRIMATE	1123	n/a	n/a	0	0	0
3177.818	n/a	WORD	1588909	wordpools/wasnorm_wordpool_576.txt	LTP207	ltpFR2	6	12	LEOPARD	812	n/a	n/a	0	0	0
3180.414	n/a	WORD	1590207	wordpools/wasnorm_wordpool_576.txt	LTP207	ltpFR2	6	12	GAVEL	627	n/a	n/a	0	0	0
3183.176	n/a	WORD	1591588	wordpools/wasnorm_wordpool_576.txt	LTP207	ltpFR2	6	12	SADDLE	1221	n/a	n/a	0	0	0
3184.79	n/a	START	1592395	n/a	LTP207	ltpFR2	6	n/a	n/a	n/a	17	n/a	n/a	n/a	n/a
3185.756	n/a	DISTRACTOR	1592878	n/a	LTP207	ltpFR2	6	12	n/a	n/a	n/a	n/a	0	0	0
3185.772	n/a	PROB	1592886	n/a	LTP207	ltpFR2	6	n/a	n/a	n/a	17	24	8	9	8
3190.516	n/a	PROB	1595258	n/a	LTP207	ltpFR2	6	n/a	n/a	n/a	17	8	5	2	1
3191.814	n/a	PROB	1595907	n/a	LTP207	ltpFR2	6	n/a	n/a	n/a	17	12	7	4	1
3192.928	n/a	PROB	1596464	n/a	LTP207	ltpFR2	6	n/a	n/a	n/a	17	2	6	3	3
3195.774	n/a	PROB	1597887	n/a	LTP207	ltpFR2	6	n/a	n/a	n/a	17	21	8	7	6
3198.62	n/a	PROB	1599310	n/a	LTP207	ltpFR2	6	n/a	n/a	n/a	17	13	3	7	3
3200.25	n/a	PROB	1600125	n/a	LTP207	ltpFR2	6	n/a	n/a	n/a	17	18	3	9	6
3202.63	n/a	PROB	1601315	n/a	LTP207	ltpFR2	6	n/a	n/a	n/a	17	11	4	5	2
3204.044	n/a	PROB	1602022	n/a	LTP207	ltpFR2	6	n/a	n/a	n/a	17	13	5	1	7
3205.11	n/a	PROB	1602555	n/a	LTP207	ltpFR2	6	n/a	n/a	n/a	17	17	5	4	8
3206.542	n/a	PROB	1603271	n/a	LTP207	ltpFR2	6	n/a	n/a	n/a	17	6	4	1	1
3207.458	n/a	STOP	1603729	n/a	LTP207	ltpFR2	6	n/a	n/a	n/a	17	n/a	n/a	n/a	n/a
3210.736	n/a	REC_START	1605368	n/a	LTP207	ltpFR2	6	12	n/a	n/a	n/a	n/a	0	0	0
3301.468	n/a	DISTRACTOR	1650734	n/a	LTP207	ltpFR2	6	13	n/a	n/a	n/a	n/a	0	0	0
3301.468	n/a	START	1650734	n/a	LTP207	ltpFR2	6	n/a	n/a	n/a	18	n/a	n/a	n/a	n/a
3301.5	n/a	PROB	1650750	n/a	LTP207	ltpFR2	6	n/a	n/a	n/a	18	23	8	8	7
3302.898	n/a	PROB	1651449	n/a	LTP207	ltpFR2	6	n/a	n/a	n/a	18	17	5	7	5
3304.262	n/a	PROB	1652131	n/a	LTP207	ltpFR2	6	n/a	n/a	n/a	18	13	2	9	2
3305.51	n/a	PROB	1652755	n/a	LTP207	ltpFR2	6	n/a	n/a	n/a	18	8	4	2	2
3307.674	n/a	PROB	1653837	n/a	LTP207	ltpFR2	6	n/a	n/a	n/a	18	18	5	5	8
3309.006	n/a	PROB	1654503	n/a	LTP207	ltpFR2	6	n/a	n/a	n/a	18	17	5	5	7
3311.12	n/a	PROB	1655560	n/a	LTP207	ltpFR2	6	n/a	n/a	n/a	18	18	9	7	3
3312.436	n/a	PROB	1656218	n/a	LTP207	ltpFR2	6	n/a	n/a	n/a	18	19	6	9	3
3315.264	n/a	PROB	1657632	n/a	LTP207	ltpFR2	6	n/a	n/a	n/a	18	14	3	8	3
3317.128	n/a	PROB	1658564	n/a	LTP207	ltpFR2	6	n/a	n/a	n/a	18	23	9	5	9
3318.742	n/a	PROB	1659371	n/a	LTP207	ltpFR2	6	n/a	n/a	n/a	18	22	5	9	8
3321.372	n/a	PROB	1660686	n/a	LTP207	ltpFR2	6	n/a	n/a	n/a	18	20	7	6	7
3323.02	n/a	PROB	1661510	n/a	LTP207	ltpFR2	6	n/a	n/a	n/a	18	17	5	6	6
3324.924	n/a	STOP	1662462	n/a	LTP207	ltpFR2	6	n/a	n/a	n/a	18	n/a	n/a	n/a	n/a
3326.448	n/a	WORD	1663224	wordpools/wasnorm_wordpool_576.txt	LTP207	ltpFR2	6	13	SERVANT	1271	n/a	n/a	0	0	0
3329.026	n/a	WORD	1664513	wordpools/wasnorm_wordpool_576.txt	LTP207	ltpFR2	6	13	PADDLE	1000	n/a	n/a	0	0	0
3331.656	n/a	WORD	1665828	wordpools/wasnorm_wordpool_576.txt	LTP207	ltpFR2	6	13	OYSTER	995	n/a	n/a	0	0	0
3334.102	n/a	WORD	1667051	wordpools/wasnorm_wordpool_576.txt	LTP207	ltpFR2	6	13	POCKET	1093	n/a	n/a	0	0	0
3336.932	n/a	WORD	1668466	wordpools/wasnorm_wordpool_576.txt	LTP207	ltpFR2	6	13	ARMY	39	n/a	n/a	0	0	0
3339.362	n/a	WORD	1669681	wordpools/wasnorm_wordpool_576.txt	LTP207	ltpFR2	6	13	PLAID	1080	n/a	n/a	0	0	0
3341.858	n/a	WORD	1670929	wordpools/wasnorm_wordpool_576.txt	LTP207	ltpFR2	6	13	PARSLEY	1016	n/a	n/a	0	0	0
3344.654	n/a	WORD	1672327	wordpools/wasnorm_wordpool_576.txt	LTP207	ltpFR2	6	13	TURNIP	1521	n/a	n/a	0	0	0
3347.332	n/a	WORD	1673666	wordpools/wasnorm_wordpool_576.txt	LTP207	ltpFR2	6	13	LETTUCE	814	n/a	n/a	0	0	0
3350.096	n/a	WORD	1675048	wordpools/wasnorm_wordpool_576.txt	LTP207	ltpFR2	6	13	SALAD	1224	n/a	n/a	0	0	0
3352.526	n/a	WORD	1676263	wordpools/wasnorm_wordpool_576.txt	LTP207	ltpFR2	6	13	SOFTBALL	1343	n/a	n/a	0	0	0
3355.004	n/a	WORD	1677502	wordpools/wasnorm_wordpool_576.txt	LTP207	ltpFR2	6	13	SEAFOOD	1260	n/a	n/a	0	0	0
3357.434	n/a	WORD	1678717	wordpools/wasnorm_wordpool_576.txt	LTP207	ltpFR2	6	13	PAIL	1002	n/a	n/a	0	0	0
3360.214	n/a	WORD	1680107	wordpools/wasnorm_wordpool_576.txt	LTP207	ltpFR2	6	13	DUST	508	n/a	n/a	0	0	0
3362.86	n/a	WORD	1681430	wordpools/wasnorm_wordpool_576.txt	LTP207	ltpFR2	6	13	QUARTER	1148	n/a	n/a	0	0	0
3365.606	n/a	WORD	1682803	wordpools/wasnorm_wordpool_576.txt	LTP207	ltpFR2	6	13	CLAM	315	n/a	n/a	0	0	0
3368.302	n/a	WORD	1684151	wordpools/wasnorm_wordpool_576.txt	LTP207	ltpFR2	6	13	SHIRT	1287	n/a	n/a	0	0	0
3370.782	n/a	WORD	1685391	wordpools/wasnorm_wordpool_576.txt	LTP207	ltpFR2	6	13	DOLPHIN	483	n/a	n/a	0	0	0
3373.328	n/a	WORD	1686664	wordpools/wasnorm_wordpool_576.txt	LTP207	ltpFR2	6	13	TEMPLE	1448	n/a	n/a	0	0	0
3376.106	n/a	WORD	1688053	wordpools/wasnorm_wordpool_576.txt	LTP207	ltpFR2	6	13	PLASTER	1085	n/a	n/a	0	0	0
3378.57	n/a	WORD	1689285	wordpools/wasnorm_wordpool_576.txt	LTP207	ltpFR2	6	13	LEADER	807	n/a	n/a	0	0	0
3381.15	n/a	WORD	1690575	wordpools/wasnorm_wordpool_576.txt	LTP207	ltpFR2	6	13	CHAMPAGNE	278	n/a	n/a	0	0	0
3383.596	n/a	WORD	1691798	wordpools/wasnorm_wordpool_576.txt	LTP207	ltpFR2	6	13	ANTLER	29	n/a	n/a	0	0	0
3386.408	n/a	WORD	1693204	wordpools/wasnorm_wordpool_576.txt	LTP207	ltpFR2	6	13	DONKEY	484	n/a	n/a	0	0	0
3388.022	n/a	START	1694011	n/a	LTP207	ltpFR2	6	n/a	n/a	n/a	19	n/a	n/a	n/a	n/a
3388.864	n/a	DISTRACTOR	1694432	n/a	LTP207	ltpFR2	6	13	n/a	n/a	n/a	n/a	0	0	0
3388.87	n/a	PROB	1694435	n/a	LTP207	ltpFR2	6	n/a	n/a	n/a	19	17	3	5	9
3390.952	n/a	PROB	1695476	n/a	LTP207	ltpFR2	6	n/a	n/a	n/a	19	16	6	5	5
3392.682	n/a	PROB	1696341	n/a	LTP207	ltpFR2	6	n/a	n/a	n/a	19	14	8	5	1
3394.23	n/a	PROB	1697115	n/a	LTP207	ltpFR2	6	n/a	n/a	n/a	19	12	9	2	1
3395.396	n/a	PROB	1697698	n/a	LTP207	ltpFR2	6	n/a	n/a	n/a	19	13	6	3	4
3397.542	n/a	PROB	1698771	n/a	LTP207	ltpFR2	6	n/a	n/a	n/a	19	7	4	1	2
3399.274	n/a	PROB	1699637	n/a	LTP207	ltpFR2	6	n/a	n/a	n/a	19	15	1	8	6
3401.304	n/a	PROB	1700652	n/a	LTP207	ltpFR2	6	n/a	n/a	n/a	19	21	7	7	7
3402.352	n/a	PROB	1701176	n/a	LTP207	ltpFR2	6	n/a	n/a	n/a	19	16	3	8	5
3404.798	n/a	PROB	1702399	n/a	LTP207	ltpFR2	6	n/a	n/a	n/a	19	15	5	6	4
3406.628	n/a	PROB	1703314	n/a	LTP207	ltpFR2	6	n/a	n/a	n/a	19	11	5	1	5
3407.96	n/a	PROB	1703980	n/a	LTP207	ltpFR2	6	n/a	n/a	n/a	19	20	2	9	9
3409.358	n/a	PROB	1704679	n/a	LTP207	ltpFR2	6	n/a	n/a	n/a	19	23	9	7	7
3410.86	n/a	STOP	1705430	n/a	LTP207	ltpFR2	6	n/a	n/a	n/a	19	n/a	n/a	n/a	n/a
3413.968	n/a	REC_START	1706984	n/a	LTP207	ltpFR2	6	13	n/a	n/a	n/a	n/a	0	0	0
3418.54	n/a	REC_WORD	1709270	wordpools/wasnorm_wordpool_576.txt	LTP207	ltpFR2	6	13	PAIL	1002	n/a	n/a	0	0	0
3420.116	n/a	REC_WORD	1710058	wordpools/wasnorm_wordpool_576.txt	LTP207	ltpFR2	6	13	DUST	508	n/a	n/a	0	0	0
3422.596	n/a	REC_WORD	1711298	wordpools/wasnorm_wordpool_576.txt	LTP207	ltpFR2	6	13	PARSLEY	1016	n/a	n/a	0	0	0
3423.726	n/a	REC_WORD	1711863	wordpools/wasnorm_wordpool_576.txt	LTP207	ltpFR2	6	13	TURNIP	1521	n/a	n/a	0	0	0
3425.468	n/a	REC_WORD	1712734	wordpools/wasnorm_wordpool_576.txt	LTP207	ltpFR2	6	13	OYSTER	995	n/a	n/a	0	0	0
3427.822	n/a	REC_WORD	1713911	wordpools/wasnorm_wordpool_576.txt	LTP207	ltpFR2	6	13	ARMY	39	n/a	n/a	0	0	0
3429.032	n/a	REC_WORD	1714516	wordpools/wasnorm_wordpool_576.txt	LTP207	ltpFR2	6	13	PLAID	1080	n/a	n/a	0	0	0
3430.402	n/a	REC_WORD	1715201	wordpools/wasnorm_wordpool_576.txt	LTP207	ltpFR2	6	13	SERVANT	1271	n/a	n/a	0	0	0
3431.984	n/a	REC_WORD	1715992	wordpools/wasnorm_wordpool_576.txt	LTP207	ltpFR2	6	13	PADDLE	1000	n/a	n/a	0	0	0
3442.544	n/a	REC_WORD	1721272	wordpools/wasnorm_wordpool_576.txt	LTP207	ltpFR2	6	13	POCKET	1093	n/a	n/a	0	0	0
3504.618	n/a	DISTRACTOR	1752309	n/a	LTP207	ltpFR2	6	14	n/a	n/a	n/a	n/a	0	0	0
3504.618	n/a	START	1752309	n/a	LTP207	ltpFR2	6	n/a	n/a	n/a	20	n/a	n/a	n/a	n/a
3504.65	n/a	PROB	1752325	n/a	LTP207	ltpFR2	6	n/a	n/a	n/a	20	15	5	7	3
3505.932	n/a	PROB	1752966	n/a	LTP207	ltpFR2	6	n/a	n/a	n/a	20	7	2	1	4
3507.362	n/a	PROB	1753681	n/a	LTP207	ltpFR2	6	n/a	n/a	n/a	20	11	5	3	3
3508.71	n/a	PROB	1754355	n/a	LTP207	ltpFR2	6	n/a	n/a	n/a	20	7	5	3	1
3511.108	n/a	PROB	1755554	n/a	LTP207	ltpFR2	6	n/a	n/a	n/a	20	7	5	1	1
3513.204	n/a	PROB	1756602	n/a	LTP207	ltpFR2	6	n/a	n/a	n/a	20	8	1	5	2
3514.286	n/a	PROB	1757143	n/a	LTP207	ltpFR2	6	n/a	n/a	n/a	20	14	5	4	5
3516.798	n/a	PROB	1758399	n/a	LTP207	ltpFR2	6	n/a	n/a	n/a	20	12	2	8	2
3517.98	n/a	PROB	1758990	n/a	LTP207	ltpFR2	6	n/a	n/a	n/a	20	13	5	4	4
3519.494	n/a	PROB	1759747	n/a	LTP207	ltpFR2	6	n/a	n/a	n/a	20	18	3	8	7
3521.076	n/a	PROB	1760538	n/a	LTP207	ltpFR2	6	n/a	n/a	n/a	20	15	4	8	3
3522.674	n/a	PROB	1761337	n/a	LTP207	ltpFR2	6	n/a	n/a	n/a	20	11	2	2	7
3523.804	n/a	PROB	1761902	n/a	LTP207	ltpFR2	6	n/a	n/a	n/a	20	3	1	1	1
3524.77	n/a	PROB	1762385	n/a	LTP207	ltpFR2	6	n/a	n/a	n/a	20	15	3	3	9
3525.884	n/a	PROB	1762942	n/a	LTP207	ltpFR2	6	n/a	n/a	n/a	20	17	9	3	5
3527.254	n/a	STOP	1763627	n/a	LTP207	ltpFR2	6	n/a	n/a	n/a	20	n/a	n/a	n/a	n/a
3529.83	n/a	WORD	1764915	wordpools/wasnorm_wordpool_576.txt	LTP207	ltpFR2	6	14	BABY	64	n/a	n/a	0	0	0
3532.326	n/a	WORD	1766163	wordpools/wasnorm_wordpool_576.txt	LTP207	ltpFR2	6	14	SIDEWALK	1303	n/a	n/a	0	0	0
3534.938	n/a	WORD	1767469	wordpools/wasnorm_wordpool_576.txt	LTP207	ltpFR2	6	14	CRITIC	410	n/a	n/a	0	0	0
3537.7	n/a	WORD	1768850	wordpools/wasnorm_wordpool_576.txt	LTP207	ltpFR2	6	14	POPCORN	1104	n/a	n/a	0	0	0
3540.296	n/a	WORD	1770148	wordpools/wasnorm_wordpool_576.txt	LTP207	ltpFR2	6	14	SUITCASE	1403	n/a	n/a	0	0	0
3542.744	n/a	WORD	1771372	wordpools/wasnorm_wordpool_576.txt	LTP207	ltpFR2	6	14	TOURIST	1488	n/a	n/a	0	0	0
3545.19	n/a	WORD	1772595	wordpools/wasnorm_wordpool_576.txt	LTP207	ltpFR2	6	14	FLUTE	585	n/a	n/a	0	0	0
3547.836	n/a	WORD	1773918	wordpools/wasnorm_wordpool_576.txt	LTP207	ltpFR2	6	14	GUARD	667	n/a	n/a	0	0	0
3550.564	n/a	WORD	1775282	wordpools/wasnorm_wordpool_576.txt	LTP207	ltpFR2	6	14	ASIA	46	n/a	n/a	0	0	0
3553.028	n/a	WORD	1776514	wordpools/wasnorm_wordpool_576.txt	LTP207	ltpFR2	6	14	CASHIER	254	n/a	n/a	0	0	0
3555.592	n/a	WORD	1777796	wordpools/wasnorm_wordpool_576.txt	LTP207	ltpFR2	6	14	MARKET	871	n/a	n/a	0	0	0
3558.288	n/a	WORD	1779144	wordpools/wasnorm_wordpool_576.txt	LTP207	ltpFR2	6	14	CURTAIN	427	n/a	n/a	0	0	0
3560.784	n/a	WORD	1780392	wordpools/wasnorm_wordpool_576.txt	LTP207	ltpFR2	6	14	BEAVER	109	n/a	n/a	0	0	0
3563.364	n/a	WORD	1781682	wordpools/wasnorm_wordpool_576.txt	LTP207	ltpFR2	6	14	LADY	794	n/a	n/a	0	0	0
3565.96	n/a	WORD	1782980	wordpools/wasnorm_wordpool_576.txt	LTP207	ltpFR2	6	14	PEBBLE	1035	n/a	n/a	0	0	0
3568.638	n/a	WORD	1784319	wordpools/wasnorm_wordpool_576.txt	LTP207	ltpFR2	6	14	POET	1095	n/a	n/a	0	0	0
3571.152	n/a	WORD	1785576	wordpools/wasnorm_wordpool_576.txt	LTP207	ltpFR2	6	14	STAMP	1370	n/a	n/a	0	0	0
3573.848	n/a	WORD	1786924	wordpools/wasnorm_wordpool_576.txt	LTP207	ltpFR2	6	14	PREACHER	1119	n/a	n/a	0	0	0
3576.66	n/a	WORD	1788330	wordpools/wasnorm_wordpool_576.txt	LTP207	ltpFR2	6	14	BOARD	143	n/a	n/a	0	0	0
3579.222	n/a	WORD	1789611	wordpools/wasnorm_wordpool_576.txt	LTP207	ltpFR2	6	14	SLUG	1329	n/a	n/a	0	0	0
3581.902	n/a	WORD	1790951	wordpools/wasnorm_wordpool_576.txt	LTP207	ltpFR2	6	14	BULLET	194	n/a	n/a	0	0	0
3584.714	n/a	WORD	1792357	wordpools/wasnorm_wordpool_576.txt	LTP207	ltpFR2	6	14	CRIB	407	n/a	n/a	0	0	0
3587.294	n/a	WORD	1793647	wordpools/wasnorm_wordpool_576.txt	LTP207	ltpFR2	6	14	MESSAGE	888	n/a	n/a	0	0	0
3589.94	n/a	WORD	1794970	wordpools/wasnorm_wordpool_576.txt	LTP207	ltpFR2	6	14	WHISKERS	1605	n/a	n/a	0	0	0
3591.554	n/a	START	1795777	n/a	LTP207	ltpFR2	6	n/a	n/a	n/a	21	n/a	n/a	n/a	n/a
3592.5	n/a	DISTRACTOR	1796250	n/a	LTP207	ltpFR2	6	14	n/a	n/a	n/a	n/a	0	0	0
3592.504	n/a	PROB	1796252	n/a	LTP207	ltpFR2	6	n/a	n/a	n/a	21	16	4	6	6
3595.932	n/a	PROB	1797966	n/a	LTP207	ltpFR2	6	n/a	n/a	n/a	21	15	5	1	9
3596.98	n/a	PROB	1798490	n/a	LTP207	ltpFR2	6	n/a	n/a	n/a	21	17	8	1	8
3598.378	n/a	PROB	1799189	n/a	LTP207	ltpFR2	6	n/a	n/a	n/a	21	18	7	9	2
3599.908	n/a	PROB	1799954	n/a	LTP207	ltpFR2	6	n/a	n/a	n/a	21	19	5	7	7
3601.29	n/a	PROB	1800645	n/a	LTP207	ltpFR2	6	n/a	n/a	n/a	21	11	2	1	8
3602.422	n/a	PROB	1801211	n/a	LTP207	ltpFR2	6	n/a	n/a	n/a	21	12	2	8	2
3603.72	n/a	PROB	1801860	n/a	LTP207	ltpFR2	6	n/a	n/a	n/a	21	15	6	3	6
3605.318	n/a	PROB	1802659	n/a	LTP207	ltpFR2	6	n/a	n/a	n/a	21	17	8	4	5
3607.082	n/a	PROB	1803541	n/a	LTP207	ltpFR2	6	n/a	n/a	n/a	21	12	1	7	4
3608.712	n/a	PROB	1804356	n/a	LTP207	ltpFR2	6	n/a	n/a	n/a	21	20	1	9	9
3610.094	n/a	PROB	1805047	n/a	LTP207	ltpFR2	6	n/a	n/a	n/a	21	16	8	1	7
3611.592	n/a	PROB	1805796	n/a	LTP207	ltpFR2	6	n/a	n/a	n/a	21	10	2	3	5
3612.89	n/a	PROB	1806445	n/a	LTP207	ltpFR2	6	n/a	n/a	n/a	21	16	5	7	4
3614.486	n/a	STOP	1807243	n/a	LTP207	ltpFR2	6	n/a	n/a	n/a	21	n/a	n/a	n/a	n/a
3617.466	n/a	REC_START	1808733	n/a	LTP207	ltpFR2	6	14	n/a	n/a	n/a	n/a	0	0	0
3618.338	n/a	REC_WORD	1809169	wordpools/wasnorm_wordpool_576.txt	LTP207	ltpFR2	6	14	BABY	64	n/a	n/a	0	0	0
3619.306	n/a	REC_WORD	1809653	wordpools/wasnorm_wordpool_576.txt	LTP207	ltpFR2	6	14	SIDEWALK	1303	n/a	n/a	0	0	0
3620.904	n/a	REC_WORD	1810452	wordpools/wasnorm_wordpool_576.txt	LTP207	ltpFR2	6	14	CRITIC	410	n/a	n/a	0	0	0
3622.072	n/a	REC_WORD	1811036	wordpools/wasnorm_wordpool_576.txt	LTP207	ltpFR2	6	14	POPCORN	1104	n/a	n/a	0	0	0
3623.664	n/a	REC_WORD	1811832	wordpools/wasnorm_wordpool_576.txt	LTP207	ltpFR2	6	14	TOURIST	1488	n/a	n/a	0	0	0
3628.068	n/a	REC_WORD	1814034	wordpools/wasnorm_wordpool_576.txt	LTP207	ltpFR2	6	14	SUITCASE	1403	n/a	n/a	0	0	0
3629.99	n/a	REC_WORD	1814995	wordpools/wasnorm_wordpool_576.txt	LTP207	ltpFR2	6	14	FLUTE	585	n/a	n/a	0	0	0
3631.564	n/a	REC_WORD	1815782	wordpools/wasnorm_wordpool_576.txt	LTP207	ltpFR2	6	14	CASHIER	254	n/a	n/a	0	0	0
3708.098	n/a	DISTRACTOR	1854049	n/a	LTP207	ltpFR2	6	15	n/a	n/a	n/a	n/a	0	0	0
3708.098	n/a	START	1854049	n/a	LTP207	ltpFR2	6	n/a	n/a	n/a	22	n/a	n/a	n/a	n/a
3708.132	n/a	PROB	1854066	n/a	LTP207	ltpFR2	6	n/a	n/a	n/a	22	15	1	7	7
3709.28	n/a	PROB	1854640	n/a	LTP207	ltpFR2	6	n/a	n/a	n/a	22	16	7	5	4
3710.678	n/a	PROB	1855339	n/a	LTP207	ltpFR2	6	n/a	n/a	n/a	22	20	8	9	3
3713.458	n/a	PROB	1856729	n/a	LTP207	ltpFR2	6	n/a	n/a	n/a	22	13	5	4	4
3716.586	n/a	PROB	1858293	n/a	LTP207	ltpFR2	6	n/a	n/a	n/a	22	20	6	7	7
3718.55	n/a	PROB	1859275	n/a	LTP207	ltpFR2	6	n/a	n/a	n/a	22	17	9	7	1
3721.262	n/a	PROB	1860631	n/a	LTP207	ltpFR2	6	n/a	n/a	n/a	22	14	1	7	6
3723.194	n/a	PROB	1861597	n/a	LTP207	ltpFR2	6	n/a	n/a	n/a	22	14	7	2	5
3724.758	n/a	PROB	1862379	n/a	LTP207	ltpFR2	6	n/a	n/a	n/a	22	14	6	4	4
3726.922	n/a	PROB	1863461	n/a	LTP207	ltpFR2	6	n/a	n/a	n/a	22	15	6	2	7
3728.802	n/a	PROB	1864401	n/a	LTP207	ltpFR2	6	n/a	n/a	n/a	22	9	2	6	1
3730.316	n/a	PROB	1865158	n/a	LTP207	ltpFR2	6	n/a	n/a	n/a	22	18	7	7	4
3731.576	n/a	STOP	1865788	n/a	LTP207	ltpFR2	6	n/a	n/a	n/a	22	n/a	n/a	n/a	n/a
3733.162	n/a	WORD	1866581	wordpools/wasnorm_wordpool_576.txt	LTP207	ltpFR2	6	15	BLENDER	136	n/a	n/a	0	0	0
3735.742	n/a	WORD	1867871	wordpools/wasnorm_wordpool_576.txt	LTP207	ltpFR2	6	15	TOASTER	1472	n/a	n/a	0	0	0
3738.22	n/a	WORD	1869110	wordpools/wasnorm_wordpool_576.txt	LTP207	ltpFR2	6	15	APPLE	33	n/a	n/a	0	0	0
3740.95	n/a	WORD	1870475	wordpools/wasnorm_wordpool_576.txt	LTP207	ltpFR2	6	15	PECAN	1036	n/a	n/a	0	0	0
3743.53	n/a	WORD	1871765	wordpools/wasnorm_wordpool_576.txt	LTP207	ltpFR2	6	15	ANKLE	24	n/a	n/a	0	0	0
3746.026	n/a	WORD	1873013	wordpools/wasnorm_wordpool_576.txt	LTP207	ltpFR2	6	15	PASTA	1021	n/a	n/a	0	0	0
3748.822	n/a	WORD	1874411	wordpools/wasnorm_wordpool_576.txt	LTP207	ltpFR2	6	15	NECKLACE	940	n/a	n/a	0	0	0
3751.484	n/a	WORD	1875742	wordpools/wasnorm_wordpool_576.txt	LTP207	ltpFR2	6	15	JEANS	752	n/a	n/a	0	0	0
3754.164	n/a	WORD	1877082	wordpools/wasnorm_wordpool_576.txt	LTP207	ltpFR2	6	15	ORANGE	980	n/a	n/a	0	0	0
3756.876	n/a	WORD	1878438	wordpools/wasnorm_wordpool_576.txt	LTP207	ltpFR2	6	15	CIGAR	308	n/a	n/a	0	0	0
3759.34	n/a	WORD	1879670	wordpools/wasnorm_wordpool_576.txt	LTP207	ltpFR2	6	15	WIDOW	1608	n/a	n/a	0	0	0
3762.102	n/a	WORD	1881051	wordpools/wasnorm_wordpool_576.txt	LTP207	ltpFR2	6	15	SPONGE	1355	n/a	n/a	0	0	0
3764.548	n/a	WORD	1882274	wordpools/wasnorm_wordpool_576.txt	LTP207	ltpFR2	6	15	BATHTUB	100	n/a	n/a	0	0	0
3767.094	n/a	WORD	1883547	wordpools/wasnorm_wordpool_576.txt	LTP207	ltpFR2	6	15	SPOUSE	1358	n/a	n/a	0	0	0
3769.84	n/a	WORD	1884920	wordpools/wasnorm_wordpool_576.txt	LTP207	ltpFR2	6	15	SHOULDER	1294	n/a	n/a	0	0	0
3772.336	n/a	WORD	1886168	wordpools/wasnorm_wordpool_576.txt	LTP207	ltpFR2	6	15	SHOVEL	1295	n/a	n/a	0	0	0
3775.082	n/a	WORD	1887541	wordpools/wasnorm_wordpool_576.txt	LTP207	ltpFR2	6	15	GARLIC	624	n/a	n/a	0	0	0
3777.846	n/a	WORD	1888923	wordpools/wasnorm_wordpool_576.txt	LTP207	ltpFR2	6	15	SALT	1229	n/a	n/a	0	0	0
3780.292	n/a	WORD	1890146	wordpools/wasnorm_wordpool_576.txt	LTP207	ltpFR2	6	15	TUNNEL	1519	n/a	n/a	0	0	0
3783.07	n/a	WORD	1891535	wordpools/wasnorm_wordpool_576.txt	LTP207	ltpFR2	6	15	LOFT	840	n/a	n/a	0	0	0
3785.5	n/a	WORD	1892750	wordpools/wasnorm_wordpool_576.txt	LTP207	ltpFR2	6	15	CLIMBER	323	n/a	n/a	0	0	0
3787.996	n/a	WORD	1893998	wordpools/wasnorm_wordpool_576.txt	LTP207	ltpFR2	6	15	PUPPY	1144	n/a	n/a	0	0	0
3790.66	n/a	WORD	1895330	wordpools/wasnorm_wordpool_576.txt	LTP207	ltpFR2	6	15	DORM	488	n/a	n/a	0	0	0
3793.438	n/a	WORD	1896719	wordpools/wasnorm_wordpool_576.txt	LTP207	ltpFR2	6	15	MUFFIN	929	n/a	n/a	0	0	0
3795.054	n/a	START	1897527	n/a	LTP207	ltpFR2	6	n/a	n/a	n/a	23	n/a	n/a	n/a	n/a
3795.938	n/a	DISTRACTOR	1897969	n/a	LTP207	ltpFR2	6	15	n/a	n/a	n/a	n/a	0	0	0
3795.952	n/a	PROB	1897976	n/a	LTP207	ltpFR2	6	n/a	n/a	n/a	23	17	4	7	6
3798.566	n/a	PROB	1899283	n/a	LTP207	ltpFR2	6	n/a	n/a	n/a	23	17	8	1	8
3800.096	n/a	PROB	1900048	n/a	LTP207	ltpFR2	6	n/a	n/a	n/a	23	13	9	1	3
3801.262	n/a	PROB	1900631	n/a	LTP207	ltpFR2	6	n/a	n/a	n/a	23	12	2	1	9
3802.442	n/a	PROB	1901221	n/a	LTP207	ltpFR2	6	n/a	n/a	n/a	23	15	2	6	7
3804.374	n/a	PROB	1902187	n/a	LTP207	ltpFR2	6	n/a	n/a	n/a	23	6	1	3	2
3806.27	n/a	PROB	1903135	n/a	LTP207	ltpFR2	6	n/a	n/a	n/a	23	21	8	8	5
3807.702	n/a	PROB	1903851	n/a	LTP207	ltpFR2	6	n/a	n/a	n/a	23	17	9	6	2
3809.2	n/a	PROB	1904600	n/a	LTP207	ltpFR2	6	n/a	n/a	n/a	23	15	3	4	8
3810.698	n/a	PROB	1905349	n/a	LTP207	ltpFR2	6	n/a	n/a	n/a	23	10	6	2	2
3813.642	n/a	PROB	1906821	n/a	LTP207	ltpFR2	6	n/a	n/a	n/a	23	15	5	5	5
3814.924	n/a	PROB	1907462	n/a	LTP207	ltpFR2	6	n/a	n/a	n/a	23	19	7	7	5
3816.488	n/a	PROB	1908244	n/a	LTP207	ltpFR2	6	n/a	n/a	n/a	23	24	9	9	6
3818.082	n/a	STOP	1909041	n/a	LTP207	ltpFR2	6	n/a	n/a	n/a	23	n/a	n/a	n/a	n/a
3820.816	n/a	REC_START	1910408	n/a	LTP207	ltpFR2	6	15	n/a	n/a	n/a	n/a	0	0	0
3821.658	n/a	REC_WORD	1910829	wordpools/wasnorm_wordpool_576.txt	LTP207	ltpFR2	6	15	BLENDER	136	n/a	n/a	0	0	0
3822.6	n/a	REC_WORD	1911300	wordpools/wasnorm_wordpool_576.txt	LTP207	ltpFR2	6	15	TOASTER	1472	n/a	n/a	0	0	0
3823.954	n/a	REC_WORD	1911977	wordpools/wasnorm_wordpool_576.txt	LTP207	ltpFR2	6	15	APPLE	33	n/a	n/a	0	0	0
3825.214	n/a	REC_WORD	1912607	wordpools/wasnorm_wordpool_576.txt	LTP207	ltpFR2	6	15	PECAN	1036	n/a	n/a	0	0	0
3828.338	n/a	REC_WORD	1914169	wordpools/wasnorm_wordpool_576.txt	LTP207	ltpFR2	6	15	ANKLE	24	n/a	n/a	0	0	0
3879.956	n/a	REC_WORD	1939978	wordpools/wasnorm_wordpool_576.txt	LTP207	ltpFR2	6	15	DORM	488	n/a	n/a	0	0	0
3911.464	n/a	DISTRACTOR	1955732	n/a	LTP207	ltpFR2	6	16	n/a	n/a	n/a	n/a	0	0	0
3911.464	n/a	START	1955732	n/a	LTP207	ltpFR2	6	n/a	n/a	n/a	24	n/a	n/a	n/a	n/a
3911.498	n/a	PROB	1955749	n/a	LTP207	ltpFR2	6	n/a	n/a	n/a	24	5	1	3	1
3912.446	n/a	PROB	1956223	n/a	LTP207	ltpFR2	6	n/a	n/a	n/a	24	5	2	2	1
3913.378	n/a	PROB	1956689	n/a	LTP207	ltpFR2	6	n/a	n/a	n/a	24	17	7	2	8
3915.142	n/a	PROB	1957571	n/a	LTP207	ltpFR2	6	n/a	n/a	n/a	24	19	3	9	7
3917.422	n/a	PROB	1958711	n/a	LTP207	ltpFR2	6	n/a	n/a	n/a	24	14	5	4	5
3918.836	n/a	PROB	1959418	n/a	LTP207	ltpFR2	6	n/a	n/a	n/a	24	13	5	5	3
3919.952	n/a	PROB	1959976	n/a	LTP207	ltpFR2	6	n/a	n/a	n/a	24	12	8	1	3
3921.798	n/a	PROB	1960899	n/a	LTP207	ltpFR2	6	n/a	n/a	n/a	24	10	2	1	7
3922.98	n/a	PROB	1961490	n/a	LTP207	ltpFR2	6	n/a	n/a	n/a	24	2	8	8	6
3925.526	n/a	PROB	1962763	n/a	LTP207	ltpFR2	6	n/a	n/a	n/a	24	15	9	3	3
3927.208	n/a	PROB	1963604	n/a	LTP207	ltpFR2	6	n/a	n/a	n/a	24	10	3	4	3
3929.204	n/a	PROB	1964602	n/a	LTP207	ltpFR2	6	n/a	n/a	n/a	24	11	3	6	1
3930.52	n/a	PROB	1965260	n/a	LTP207	ltpFR2	6	n/a	n/a	n/a	24	16	5	3	8
3932.582	n/a	PROB	1966291	n/a	LTP207	ltpFR2	6	n/a	n/a	n/a	24	4	1	2	1
3934.658	n/a	STOP	1967329	n/a	LTP207	ltpFR2	6	n/a	n/a	n/a	24	n/a	n/a	n/a	n/a
3936.676	n/a	WORD	1968338	wordpools/wasnorm_wordpool_576.txt	LTP207	ltpFR2	6	16	SWIMMER	1420	n/a	n/a	0	0	0
3939.322	n/a	WORD	1969661	wordpools/wasnorm_wordpool_576.txt	LTP207	ltpFR2	6	16	HORSE	719	n/a	n/a	0	0	0
3942.002	n/a	WORD	1971001	wordpools/wasnorm_wordpool_576.txt	LTP207	ltpFR2	6	16	TURTLE	1522	n/a	n/a	0	0	0
3944.482	n/a	WORD	1972241	wordpools/wasnorm_wordpool_576.txt	LTP207	ltpFR2	6	16	RABBIT	1152	n/a	n/a	0	0	0
3947.012	n/a	WORD	1973506	wordpools/wasnorm_wordpool_576.txt	LTP207	ltpFR2	6	16	LONDON	843	n/a	n/a	0	0	0
3949.64	n/a	WORD	1974820	wordpools/wasnorm_wordpool_576.txt	LTP207	ltpFR2	6	16	RIFLE	1192	n/a	n/a	0	0	0
3952.386	n/a	WORD	1976193	wordpools/wasnorm_wordpool_576.txt	LTP207	ltpFR2	6	16	SPARROW	1347	n/a	n/a	0	0	0
3955.1	n/a	WORD	1977550	wordpools/wasnorm_wordpool_576.txt	LTP207	ltpFR2	6	16	STATUE	1374	n/a	n/a	0	0	0
3957.846	n/a	WORD	1978923	wordpools/wasnorm_wordpool_576.txt	LTP207	ltpFR2	6	16	TABLET	1427	n/a	n/a	0	0	0
3960.558	n/a	WORD	1980279	wordpools/wasnorm_wordpool_576.txt	LTP207	ltpFR2	6	16	SLOPE	1328	n/a	n/a	0	0	0
3963.238	n/a	WORD	1981619	wordpools/wasnorm_wordpool_576.txt	LTP207	ltpFR2	6	16	TRANSPLANT	1496	n/a	n/a	0	0	0
3966.034	n/a	WORD	1983017	wordpools/wasnorm_wordpool_576.txt	LTP207	ltpFR2	6	16	POSSUM	1112	n/a	n/a	0	0	0
3968.746	n/a	WORD	1984373	wordpools/wasnorm_wordpool_576.txt	LTP207	ltpFR2	6	16	VIRUS	1572	n/a	n/a	0	0	0
3971.26	n/a	WORD	1985630	wordpools/wasnorm_wordpool_576.txt	LTP207	ltpFR2	6	16	BANJO	82	n/a	n/a	0	0	0
3974.072	n/a	WORD	1987036	wordpools/wasnorm_wordpool_576.txt	LTP207	ltpFR2	6	16	EAGLE	512	n/a	n/a	0	0	0
3976.584	n/a	WORD	1988292	wordpools/wasnorm_wordpool_576.txt	LTP207	ltpFR2	6	16	PICTURE	1061	n/a	n/a	0	0	0
3979.114	n/a	WORD	1989557	wordpools/wasnorm_wordpool_576.txt	LTP207	ltpFR2	6	16	SCULPTURE	1258	n/a	n/a	0	0	0
3981.844	n/a	WORD	1990922	wordpools/wasnorm_wordpool_576.txt	LTP207	ltpFR2	6	16	GRIZZLY	662	n/a	n/a	0	0	0
3984.274	n/a	WORD	1992137	wordpools/wasnorm_wordpool_576.txt	LTP207	ltpFR2	6	16	STALLION	1369	n/a	n/a	0	0	0
3987.036	n/a	WORD	1993518	wordpools/wasnorm_wordpool_576.txt	LTP207	ltpFR2	6	16	ZEBRA	1635	n/a	n/a	0	0	0
3989.648	n/a	WORD	1994824	wordpools/wasnorm_wordpool_576.txt	LTP207	ltpFR2	6	16	LAKE	796	n/a	n/a	0	0	0
3992.294	n/a	WORD	1996147	wordpools/wasnorm_wordpool_576.txt	LTP207	ltpFR2	6	16	STAR	1373	n/a	n/a	0	0	0
3994.924	n/a	WORD	1997462	wordpools/wasnorm_wordpool_576.txt	LTP207	ltpFR2	6	16	HUSBAND	728	n/a	n/a	0	0	0
3997.486	n/a	WORD	1998743	wordpools/wasnorm_wordpool_576.txt	LTP207	ltpFR2	6	16	RECORD	1176	n/a	n/a	0	0	0
3999.102	n/a	START	1999551	n/a	LTP207	ltpFR2	6	n/a	n/a	n/a	25	n/a	n/a	n/a	n/a
4000.082	n/a	DISTRACTOR	2000041	n/a	LTP207	ltpFR2	6	16	n/a	n/a	n/a	n/a	0	0	0
4000.1	n/a	PROB	2000050	n/a	LTP207	ltpFR2	6	n/a	n/a	n/a	25	13	1	9	3
4001.598	n/a	PROB	2000799	n/a	LTP207	ltpFR2	6	n/a	n/a	n/a	25	21	8	5	8
4002.996	n/a	PROB	2001498	n/a	LTP207	ltpFR2	6	n/a	n/a	n/a	25	14	7	3	4
4004.326	n/a	PROB	2002163	n/a	LTP207	ltpFR2	6	n/a	n/a	n/a	25	17	6	6	5
4005.724	n/a	PROB	2002862	n/a	LTP207	ltpFR2	6	n/a	n/a	n/a	25	11	1	9	1
4007.222	n/a	PROB	2003611	n/a	LTP207	ltpFR2	6	n/a	n/a	n/a	25	11	5	3	3
4008.604	n/a	PROB	2004302	n/a	LTP207	ltpFR2	6	n/a	n/a	n/a	25	20	9	2	9
4010.168	n/a	PROB	2005084	n/a	LTP207	ltpFR2	6	n/a	n/a	n/a	25	14	4	7	3
4011.382	n/a	PROB	2005691	n/a	LTP207	ltpFR2	6	n/a	n/a	n/a	25	12	2	6	4
4013.53	n/a	PROB	2006765	n/a	LTP207	ltpFR2	6	n/a	n/a	n/a	25	13	1	7	5
4015.444	n/a	PROB	2007722	n/a	LTP207	ltpFR2	6	n/a	n/a	n/a	25	10	1	6	3
4018.922	n/a	PROB	2009461	n/a	LTP207	ltpFR2	6	n/a	n/a	n/a	25	26	9	9	8
4020.336	n/a	PROB	2010168	n/a	LTP207	ltpFR2	6	n/a	n/a	n/a	25	5	2	2	1
4021.218	n/a	PROB	2010609	n/a	LTP207	ltpFR2	6	n/a	n/a	n/a	25	12	4	2	6
4022.836	n/a	STOP	2011418	n/a	LTP207	ltpFR2	6	n/a	n/a	n/a	25	n/a	n/a	n/a	n/a
4025.046	n/a	REC_START	2012523	n/a	LTP207	ltpFR2	6	16	n/a	n/a	n/a	n/a	0	0	0
4025.924	n/a	REC_WORD	2012962	wordpools/wasnorm_wordpool_576.txt	LTP207	ltpFR2	6	16	SWIMMER	1420	n/a	n/a	0	0	0
4027.06	n/a	REC_WORD	2013530	wordpools/wasnorm_wordpool_576.txt	LTP207	ltpFR2	6	16	RABBIT	1152	n/a	n/a	0	0	0
4028.396	n/a	REC_WORD	2014198	wordpools/wasnorm_wordpool_576.txt	LTP207	ltpFR2	6	16	TURTLE	1522	n/a	n/a	0	0	0
4033.902	n/a	REC_WORD	2016951	wordpools/wasnorm_wordpool_576.txt	LTP207	ltpFR2	6	16	LONDON	843	n/a	n/a	0	0	0
4046.308	n/a	REC_WORD	2023154	wordpools/wasnorm_wordpool_576.txt	LTP207	ltpFR2	6	16	BANJO	82	n/a	n/a	0	0	0
4101.666	n/a	REST_REWET	2050833	n/a	LTP207	ltpFR2	6	16	n/a	n/a	n/a	n/a	0	0	0
4377.558	n/a	WORD	2188779	wordpools/wasnorm_wordpool_576.txt	LTP207	ltpFR2	6	17	HOUND	724	n/a	n/a	0	0	0
4380.22	n/a	WORD	2190110	wordpools/wasnorm_wordpool_576.txt	LTP207	ltpFR2	6	17	COOK	372	n/a	n/a	0	0	0
4382.684	n/a	WORD	2191342	wordpools/wasnorm_wordpool_576.txt	LTP207	ltpFR2	6	17	SLIDE	1326	n/a	n/a	0	0	0
4385.164	n/a	WORD	2192582	wordpools/wasnorm_wordpool_576.txt	LTP207	ltpFR2	6	17	BACON	67	n/a	n/a	0	0	0
4387.76	n/a	WORD	2193880	wordpools/wasnorm_wordpool_576.txt	LTP207	ltpFR2	6	17	SUMMIT	1405	n/a	n/a	0	0	0
4390.538	n/a	WORD	2195269	wordpools/wasnorm_wordpool_576.txt	LTP207	ltpFR2	6	17	LOVER	846	n/a	n/a	0	0	0
4393.168	n/a	WORD	2196584	wordpools/wasnorm_wordpool_576.txt	LTP207	ltpFR2	6	17	CHILD	299	n/a	n/a	0	0	0
4395.764	n/a	WORD	2197882	wordpools/wasnorm_wordpool_576.txt	LTP207	ltpFR2	6	17	DAUGHTER	442	n/a	n/a	0	0	0
4398.41	n/a	WORD	2199205	wordpools/wasnorm_wordpool_576.txt	LTP207	ltpFR2	6	17	BEEF	113	n/a	n/a	0	0	0
4400.84	n/a	WORD	2200420	wordpools/wasnorm_wordpool_576.txt	LTP207	ltpFR2	6	17	DENTIST	447	n/a	n/a	0	0	0
4403.27	n/a	WORD	2201635	wordpools/wasnorm_wordpool_576.txt	LTP207	ltpFR2	6	17	MILK	895	n/a	n/a	0	0	0
4406.032	n/a	WORD	2203016	wordpools/wasnorm_wordpool_576.txt	LTP207	ltpFR2	6	17	GALLON	618	n/a	n/a	0	0	0
4408.812	n/a	WORD	2204406	wordpools/wasnorm_wordpool_576.txt	LTP207	ltpFR2	6	17	HAMPER	682	n/a	n/a	0	0	0
4411.624	n/a	WORD	2205812	wordpools/wasnorm_wordpool_576.txt	LTP207	ltpFR2	6	17	COSTUME	383	n/a	n/a	0	0	0
4414.252	n/a	WORD	2207126	wordpools/wasnorm_wordpool_576.txt	LTP207	ltpFR2	6	17	DASHBOARD	441	n/a	n/a	0	0	0
4416.75	n/a	WORD	2208375	wordpools/wasnorm_wordpool_576.txt	LTP207	ltpFR2	6	17	CANYON	235	n/a	n/a	0	0	0
4419.346	n/a	WORD	2209673	wordpools/wasnorm_wordpool_576.txt	LTP207	ltpFR2	6	17	KEEPER	769	n/a	n/a	0	0	0
4421.924	n/a	WORD	2210962	wordpools/wasnorm_wordpool_576.txt	LTP207	ltpFR2	6	17	GYMNAST	675	n/a	n/a	0	0	0
4424.522	n/a	WORD	2212261	wordpools/wasnorm_wordpool_576.txt	LTP207	ltpFR2	6	17	SCALPEL	1243	n/a	n/a	0	0	0
4427.134	n/a	WORD	2213567	wordpools/wasnorm_wordpool_576.txt	LTP207	ltpFR2	6	17	LACE	792	n/a	n/a	0	0	0
4429.814	n/a	WORD	2214907	wordpools/wasnorm_wordpool_576.txt	LTP207	ltpFR2	6	17	CONVICT	371	n/a	n/a	0	0	0
4432.426	n/a	WORD	2216213	wordpools/wasnorm_wordpool_576.txt	LTP207	ltpFR2	6	17	TROUT	1511	n/a	n/a	0	0	0
4435.038	n/a	WORD	2217519	wordpools/wasnorm_wordpool_576.txt	LTP207	ltpFR2	6	17	APRON	35	n/a	n/a	0	0	0
4437.752	n/a	WORD	2218876	wordpools/wasnorm_wordpool_576.txt	LTP207	ltpFR2	6	17	AGENT	10	n/a	n/a	0	0	0
4439.366	n/a	START	2219683	n/a	LTP207	ltpFR2	6	n/a	n/a	n/a	26	n/a	n/a	n/a	n/a
4440.238	n/a	DISTRACTOR	2220119	n/a	LTP207	ltpFR2	6	17	n/a	n/a	n/a	n/a	0	0	0
4440.248	n/a	PROB	2220124	n/a	LTP207	ltpFR2	6	n/a	n/a	n/a	26	14	7	5	2
4442.03	n/a	PROB	2221015	n/a	LTP207	ltpFR2	6	n/a	n/a	n/a	26	18	3	7	8
4443.66	n/a	PROB	2221830	n/a	LTP207	ltpFR2	6	n/a	n/a	n/a	26	13	9	1	3
4444.758	n/a	PROB	2222379	n/a	LTP207	ltpFR2	6	n/a	n/a	n/a	26	23	9	9	5
4446.256	n/a	PROB	2223128	n/a	LTP207	ltpFR2	6	n/a	n/a	n/a	26	20	4	9	7
4448.868	n/a	PROB	2224434	n/a	LTP207	ltpFR2	6	n/a	n/a	n/a	26	16	5	6	5
4450.384	n/a	PROB	2225192	n/a	LTP207	ltpFR2	6	n/a	n/a	n/a	26	15	6	2	7
4451.664	n/a	PROB	2225832	n/a	LTP207	ltpFR2	6	n/a	n/a	n/a	26	8	5	1	2
4453.012	n/a	PROB	2226506	n/a	LTP207	ltpFR2	6	n/a	n/a	n/a	26	14	3	9	2
4454.478	n/a	PROB	2227239	n/a	LTP207	ltpFR2	6	n/a	n/a	n/a	26	18	3	6	9
4456.292	n/a	PROB	2228146	n/a	LTP207	ltpFR2	6	n/a	n/a	n/a	26	14	8	2	4
4457.806	n/a	PROB	2228903	n/a	LTP207	ltpFR2	6	n/a	n/a	n/a	26	24	9	6	9
4459.786	n/a	PROB	2229893	n/a	LTP207	ltpFR2	6	n/a	n/a	n/a	26	14	6	4	4
4461.068	n/a	PROB	2230534	n/a	LTP207	ltpFR2	6	n/a	n/a	n/a	26	14	1	7	6
4462.304	n/a	STOP	2231152	n/a	LTP207	ltpFR2	6	n/a	n/a	n/a	26	n/a	n/a	n/a	n/a
4465.246	n/a	REC_START	2232623	n/a	LTP207	ltpFR2	6	17	n/a	n/a	n/a	n/a	0	0	0
4473.094	n/a	REC_WORD	2236547	wordpools/wasnorm_wordpool_576.txt	LTP207	ltpFR2	6	17	COOK	372	n/a	n/a	0	0	0
4476.976	n/a	REC_WORD	2238488	wordpools/wasnorm_wordpool_576.txt	LTP207	ltpFR2	6	17	SLIDE	1326	n/a	n/a	0	0	0
4489.6	n/a	REC_WORD	2244800	wordpools/wasnorm_wordpool_576.txt	LTP207	ltpFR2	6	17	DAUGHTER	442	n/a	n/a	0	0	0
4491.674	n/a	REC_WORD	2245837	wordpools/wasnorm_wordpool_576.txt	LTP207	ltpFR2	6	17	LOVER	846	n/a	n/a	0	0	0
4493.62	n/a	REC_WORD	2246810	wordpools/wasnorm_wordpool_576.txt	LTP207	ltpFR2	6	17	SUMMIT	1405	n/a	n/a	0	0	0
4555.894	n/a	DISTRACTOR	2277947	n/a	LTP207	ltpFR2	6	18	n/a	n/a	n/a	n/a	0	0	0
4555.894	n/a	START	2277947	n/a	LTP207	ltpFR2	6	n/a	n/a	n/a	27	n/a	n/a	n/a	n/a
4555.926	n/a	PROB	2277963	n/a	LTP207	ltpFR2	6	n/a	n/a	n/a	27	18	8	9	1
4557.774	n/a	PROB	2278887	n/a	LTP207	ltpFR2	6	n/a	n/a	n/a	27	9	2	3	4
4560.504	n/a	PROB	2280252	n/a	LTP207	ltpFR2	6	n/a	n/a	n/a	27	16	4	3	9
4561.884	n/a	PROB	2280942	n/a	LTP207	ltpFR2	6	n/a	n/a	n/a	27	13	8	1	4
4564.88	n/a	PROB	2282440	n/a	LTP207	ltpFR2	6	n/a	n/a	n/a	27	12	6	1	5
4566.56	n/a	PROB	2283280	n/a	LTP207	ltpFR2	6	n/a	n/a	n/a	27	14	5	2	7
4567.842	n/a	PROB	2283921	n/a	LTP207	ltpFR2	6	n/a	n/a	n/a	27	15	5	6	4
4569.74	n/a	PROB	2284870	n/a	LTP207	ltpFR2	6	n/a	n/a	n/a	27	17	4	5	8
4571.254	n/a	PROB	2285627	n/a	LTP207	ltpFR2	6	n/a	n/a	n/a	27	17	7	6	4
4572.718	n/a	PROB	2286359	n/a	LTP207	ltpFR2	6	n/a	n/a	n/a	27	15	9	5	1
4574.0	n/a	PROB	2287000	n/a	LTP207	ltpFR2	6	n/a	n/a	n/a	27	20	7	8	5
4576.03	n/a	PROB	2288015	n/a	LTP207	ltpFR2	6	n/a	n/a	n/a	27	20	5	9	6
4578.376	n/a	PROB	2289188	n/a	LTP207	ltpFR2	6	n/a	n/a	n/a	27	27	9	9	9
4579.746	n/a	STOP	2289873	n/a	LTP207	ltpFR2	6	n/a	n/a	n/a	27	n/a	n/a	n/a	n/a
4580.756	n/a	WORD	2290378	wordpools/wasnorm_wordpool_576.txt	LTP207	ltpFR2	6	18	FLASK	576	n/a	n/a	0	0	0
4583.518	n/a	WORD	2291759	wordpools/wasnorm_wordpool_576.txt	LTP207	ltpFR2	6	18	SPIDER	1351	n/a	n/a	0	0	0
4586.298	n/a	WORD	2293149	wordpools/wasnorm_wordpool_576.txt	LTP207	ltpFR2	6	18	JELLY	755	n/a	n/a	0	0	0
4589.094	n/a	WORD	2294547	wordpools/wasnorm_wordpool_576.txt	LTP207	ltpFR2	6	18	TEACHER	1440	n/a	n/a	0	0	0
4591.706	n/a	WORD	2295853	wordpools/wasnorm_wordpool_576.txt	LTP207	ltpFR2	6	18	COLLEGE	346	n/a	n/a	0	0	0
4594.154	n/a	WORD	2297077	wordpools/wasnorm_wordpool_576.txt	LTP207	ltpFR2	6	18	CHURCH	307	n/a	n/a	0	0	0
4596.766	n/a	WORD	2298383	wordpools/wasnorm_wordpool_576.txt	LTP207	ltpFR2	6	18	MEDAL	885	n/a	n/a	0	0	0
4599.462	n/a	WORD	2299731	wordpools/wasnorm_wordpool_576.txt	LTP207	ltpFR2	6	18	HELMET	702	n/a	n/a	0	0	0
4601.91	n/a	WORD	2300955	wordpools/wasnorm_wordpool_576.txt	LTP207	ltpFR2	6	18	SCOTCH	1251	n/a	n/a	0	0	0
4604.488	n/a	WORD	2302244	wordpools/wasnorm_wordpool_576.txt	LTP207	ltpFR2	6	18	HOSTESS	723	n/a	n/a	0	0	0
4607.052	n/a	WORD	2303526	wordpools/wasnorm_wordpool_576.txt	LTP207	ltpFR2	6	18	SERVER	1272	n/a	n/a	0	0	0
4609.548	n/a	WORD	2304774	wordpools/wasnorm_wordpool_576.txt	LTP207	ltpFR2	6	18	HERO	706	n/a	n/a	0	0	0
4612.326	n/a	WORD	2306163	wordpools/wasnorm_wordpool_576.txt	LTP207	ltpFR2	6	18	VIKING	1565	n/a	n/a	0	0	0
4614.774	n/a	WORD	2307387	wordpools/wasnorm_wordpool_576.txt	LTP207	ltpFR2	6	18	DIME	466	n/a	n/a	0	0	0
4617.452	n/a	WORD	2308726	wordpools/wasnorm_wordpool_576.txt	LTP207	ltpFR2	6	18	LODGE	839	n/a	n/a	0	0	0
4619.998	n/a	WORD	2309999	wordpools/wasnorm_wordpool_576.txt	LTP207	ltpFR2	6	18	PLUTO	1092	n/a	n/a	0	0	0
4622.728	n/a	WORD	2311364	wordpools/wasnorm_wordpool_576.txt	LTP207	ltpFR2	6	18	COMET	353	n/a	n/a	0	0	0
4625.324	n/a	WORD	2312662	wordpools/wasnorm_wordpool_576.txt	LTP207	ltpFR2	6	18	SHORTS	1293	n/a	n/a	0	0	0
4627.888	n/a	WORD	2313944	wordpools/wasnorm_wordpool_576.txt	LTP207	ltpFR2	6	18	GAZELLE	628	n/a	n/a	0	0	0
4630.516	n/a	WORD	2315258	wordpools/wasnorm_wordpool_576.txt	LTP207	ltpFR2	6	18	JOURNAL	760	n/a	n/a	0	0	0
4633.278	n/a	WORD	2316639	wordpools/wasnorm_wordpool_576.txt	LTP207	ltpFR2	6	18	WOMAN	1620	n/a	n/a	0	0	0
4635.908	n/a	WORD	2317954	wordpools/wasnorm_wordpool_576.txt	LTP207	ltpFR2	6	18	BRANCH	168	n/a	n/a	0	0	0
4638.504	n/a	WORD	2319252	wordpools/wasnorm_wordpool_576.txt	LTP207	ltpFR2	6	18	PEDAL	1037	n/a	n/a	0	0	0
4641.284	n/a	WORD	2320642	wordpools/wasnorm_wordpool_576.txt	LTP207	ltpFR2	6	18	OINTMENT	974	n/a	n/a	0	0	0
4642.898	n/a	START	2321449	n/a	LTP207	ltpFR2	6	n/a	n/a	n/a	28	n/a	n/a	n/a	n/a
4643.898	n/a	DISTRACTOR	2321949	n/a	LTP207	ltpFR2	6	18	n/a	n/a	n/a	n/a	0	0	0
4643.914	n/a	PROB	2321957	n/a	LTP207	ltpFR2	6	n/a	n/a	n/a	28	14	7	6	1
4645.228	n/a	PROB	2322614	n/a	LTP207	ltpFR2	6	n/a	n/a	n/a	28	19	7	5	7
4646.776	n/a	PROB	2323388	n/a	LTP207	ltpFR2	6	n/a	n/a	n/a	28	12	2	1	9
4647.758	n/a	PROB	2323879	n/a	LTP207	ltpFR2	6	n/a	n/a	n/a	28	19	4	6	9
4649.072	n/a	PROB	2324536	n/a	LTP207	ltpFR2	6	n/a	n/a	n/a	28	9	3	4	2
4651.536	n/a	PROB	2325768	n/a	LTP207	ltpFR2	6	n/a	n/a	n/a	28	19	5	6	8
4653.25	n/a	PROB	2326625	n/a	LTP207	ltpFR2	6	n/a	n/a	n/a	28	18	6	3	9
4655.18	n/a	PROB	2327590	n/a	LTP207	ltpFR2	6	n/a	n/a	n/a	28	12	7	3	2
4656.294	n/a	PROB	2328147	n/a	LTP207	ltpFR2	6	n/a	n/a	n/a	28	13	2	4	7
4657.492	n/a	PROB	2328746	n/a	LTP207	ltpFR2	6	n/a	n/a	n/a	28	25	8	8	9
4659.14	n/a	PROB	2329570	n/a	LTP207	ltpFR2	6	n/a	n/a	n/a	28	21	6	7	8
4660.872	n/a	PROB	2330436	n/a	LTP207	ltpFR2	6	n/a	n/a	n/a	28	20	9	9	2
4662.452	n/a	PROB	2331226	n/a	LTP207	ltpFR2	6	n/a	n/a	n/a	28	17	5	6	6
4665.264	n/a	PROB	2332632	n/a	LTP207	ltpFR2	6	n/a	n/a	n/a	28	21	5	7	9
4666.484	n/a	STOP	2333242	n/a	LTP207	ltpFR2	6	n/a	n/a	n/a	28	n/a	n/a	n/a	n/a
4668.76	n/a	REC_START	2334380	n/a	LTP207	ltpFR2	6	18	n/a	n/a	n/a	n/a	0	0	0
4676.906	n/a	REC_WORD	2338453	wordpools/wasnorm_wordpool_576.txt	LTP207	ltpFR2	6	18	FLASK	576	n/a	n/a	0	0	0
4678.132	n/a	REC_WORD	2339066	wordpools/wasnorm_wordpool_576.txt	LTP207	ltpFR2	6	18	SPIDER	1351	n/a	n/a	0	0	0
4679.868	n/a	REC_WORD	2339934	wordpools/wasnorm_wordpool_576.txt	LTP207	ltpFR2	6	18	TEACHER	1440	n/a	n/a	0	0	0
4681.982	n/a	REC_WORD	2340991	wordpools/wasnorm_wordpool_576.txt	LTP207	ltpFR2	6	18	JELLY	755	n/a	n/a	0	0	0
4684.71	n/a	REC_WORD	2342355	wordpools/wasnorm_wordpool_576.txt	LTP207	ltpFR2	6	18	COLLEGE	346	n/a	n/a	0	0	0
4686.854	n/a	REC_WORD	2343427	wordpools/wasnorm_wordpool_576.txt	LTP207	ltpFR2	6	18	CHURCH	307	n/a	n/a	0	0	0
4688.938	n/a	REC_WORD	2344469	wordpools/wasnorm_wordpool_576.txt	LTP207	ltpFR2	6	18	MEDAL	885	n/a	n/a	0	0	0
4706.824	n/a	REC_WORD	2353412	wordpools/wasnorm_wordpool_576.txt	LTP207	ltpFR2	6	18	AWARD	63	n/a	n/a	0	0	0
4737.624	n/a	REC_WORD	2368812	wordpools/wasnorm_wordpool_576.txt	LTP207	ltpFR2	6	18	HELMET	702	n/a	n/a	0	0	0
4742.542	n/a	REC_WORD	2371271	wordpools/wasnorm_wordpool_576.txt	LTP207	ltpFR2	6	18	HERO	706	n/a	n/a	0	0	0
4759.426	n/a	WORD	2379713	wordpools/wasnorm_wordpool_576.txt	LTP207	ltpFR2	6	19	SAUSAGE	1238	n/a	n/a	0	0	0
4762.222	n/a	WORD	2381111	wordpools/wasnorm_wordpool_576.txt	LTP207	ltpFR2	6	19	MASK	876	n/a	n/a	0	0	0
4764.852	n/a	WORD	2382426	wordpools/wasnorm_wordpool_576.txt	LTP207	ltpFR2	6	19	PERFUME	1049	n/a	n/a	0	0	0
4767.38	n/a	WORD	2383690	wordpools/wasnorm_wordpool_576.txt	LTP207	ltpFR2	6	19	COMPASS	358	n/a	n/a	0	0	0
4769.96	n/a	WORD	2384980	wordpools/wasnorm_wordpool_576.txt	LTP207	ltpFR2	6	19	FRUIT	610	n/a	n/a	0	0	0
4772.606	n/a	WORD	2386303	wordpools/wasnorm_wordpool_576.txt	LTP207	ltpFR2	6	19	YOLK	1633	n/a	n/a	0	0	0
4775.27	n/a	WORD	2387635	wordpools/wasnorm_wordpool_576.txt	LTP207	ltpFR2	6	19	BUTCHER	203	n/a	n/a	0	0	0
4777.998	n/a	WORD	2388999	wordpools/wasnorm_wordpool_576.txt	LTP207	ltpFR2	6	19	FLOWER	584	n/a	n/a	0	0	0
4780.512	n/a	WORD	2390256	wordpools/wasnorm_wordpool_576.txt	LTP207	ltpFR2	6	19	DAISY	435	n/a	n/a	0	0	0
4783.19	n/a	WORD	2391595	wordpools/wasnorm_wordpool_576.txt	LTP207	ltpFR2	6	19	COLONEL	348	n/a	n/a	0	0	0
4785.77	n/a	WORD	2392885	wordpools/wasnorm_wordpool_576.txt	LTP207	ltpFR2	6	19	DRIVER	499	n/a	n/a	0	0	0
4788.35	n/a	WORD	2394175	wordpools/wasnorm_wordpool_576.txt	LTP207	ltpFR2	6	19	SUBWAY	1400	n/a	n/a	0	0	0
4791.112	n/a	WORD	2395556	wordpools/wasnorm_wordpool_576.txt	LTP207	ltpFR2	6	19	BANKER	84	n/a	n/a	0	0	0
4793.824	n/a	WORD	2396912	wordpools/wasnorm_wordpool_576.txt	LTP207	ltpFR2	6	19	LIVER	833	n/a	n/a	0	0	0
4796.47	n/a	WORD	2398235	wordpools/wasnorm_wordpool_576.txt	LTP207	ltpFR2	6	19	CARROT	249	n/a	n/a	0	0	0
4799.066	n/a	WORD	2399533	wordpools/wasnorm_wordpool_576.txt	LTP207	ltpFR2	6	19	LIPSTICK	829	n/a	n/a	0	0	0
4801.73	n/a	WORD	2400865	wordpools/wasnorm_wordpool_576.txt	LTP207	ltpFR2	6	19	ROBBER	1197	n/a	n/a	0	0	0
4804.458	n/a	WORD	2402229	wordpools/wasnorm_wordpool_576.txt	LTP207	ltpFR2	6	19	SKETCH	1315	n/a	n/a	0	0	0
4806.972	n/a	WORD	2403486	wordpools/wasnorm_wordpool_576.txt	LTP207	ltpFR2	6	19	PORTRAIT	1111	n/a	n/a	0	0	0
4809.636	n/a	WORD	2404818	wordpools/wasnorm_wordpool_576.txt	LTP207	ltpFR2	6	19	CHEST	295	n/a	n/a	0	0	0
4812.364	n/a	WORD	2406182	wordpools/wasnorm_wordpool_576.txt	LTP207	ltpFR2	6	19	OUTLAW	989	n/a	n/a	0	0	0
4815.06	n/a	WORD	2407530	wordpools/wasnorm_wordpool_576.txt	LTP207	ltpFR2	6	19	SKIRT	1319	n/a	n/a	0	0	0
4817.556	n/a	WORD	2408778	wordpools/wasnorm_wordpool_576.txt	LTP207	ltpFR2	6	19	BANK	83	n/a	n/a	0	0	0
4820.118	n/a	WORD	2410059	wordpools/wasnorm_wordpool_576.txt	LTP207	ltpFR2	6	19	SCRIBBLE	1256	n/a	n/a	0	0	0
4821.734	n/a	START	2410867	n/a	LTP207	ltpFR2	6	n/a	n/a	n/a	29	n/a	n/a	n/a	n/a
4822.816	n/a	DISTRACTOR	2411408	n/a	LTP207	ltpFR2	6	19	n/a	n/a	n/a	n/a	0	0	0
4822.832	n/a	PROB	2411416	n/a	LTP207	ltpFR2	6	n/a	n/a	n/a	29	15	5	3	7
4824.778	n/a	PROB	2412389	n/a	LTP207	ltpFR2	6	n/a	n/a	n/a	29	11	6	3	2
4826.642	n/a	PROB	2413321	n/a	LTP207	ltpFR2	6	n/a	n/a	n/a	29	19	9	9	1
4829.804	n/a	PROB	2414902	n/a	LTP207	ltpFR2	6	n/a	n/a	n/a	29	7	3	3	1
4831.386	n/a	PROB	2415693	n/a	LTP207	ltpFR2	6	n/a	n/a	n/a	29	9	5	2	2
4832.734	n/a	PROB	2416367	n/a	LTP207	ltpFR2	6	n/a	n/a	n/a	29	10	1	4	5
4834.464	n/a	PROB	2417232	n/a	LTP207	ltpFR2	6	n/a	n/a	n/a	29	21	9	6	6
4838.026	n/a	PROB	2419013	n/a	LTP207	ltpFR2	6	n/a	n/a	n/a	29	6	1	4	1
4839.274	n/a	PROB	2419637	n/a	LTP207	ltpFR2	6	n/a	n/a	n/a	29	16	9	3	4
4841.988	n/a	PROB	2420994	n/a	LTP207	ltpFR2	6	n/a	n/a	n/a	29	17	1	7	9
4843.652	n/a	PROB	2421826	n/a	LTP207	ltpFR2	6	n/a	n/a	n/a	29	14	1	7	6
4845.47	n/a	STOP	2422735	n/a	LTP207	ltpFR2	6	n/a	n/a	n/a	29	n/a	n/a	n/a	n/a
4847.68	n/a	REC_START	2423840	n/a	LTP207	ltpFR2	6	19	n/a	n/a	n/a	n/a	0	0	0
4850.814	n/a	REC_WORD	2425407	wordpools/wasnorm_wordpool_576.txt	LTP207	ltpFR2	6	19	SAUSAGE	1238	n/a	n/a	0	0	0
4852.778	n/a	REC_WORD	2426389	wordpools/wasnorm_wordpool_576.txt	LTP207	ltpFR2	6	19	MASK	876	n/a	n/a	0	0	0
4861.176	n/a	REC_WORD	2430588	wordpools/wasnorm_wordpool_576.txt	LTP207	ltpFR2	6	19	PERFUME	1049	n/a	n/a	0	0	0
4938.328	n/a	DISTRACTOR	2469164	n/a	LTP207	ltpFR2	6	20	n/a	n/a	n/a	n/a	0	0	0
4938.328	n/a	START	2469164	n/a	LTP207	ltpFR2	6	n/a	n/a	n/a	30	n/a	n/a	n/a	n/a
4938.36	n/a	PROB	2469180	n/a	LTP207	ltpFR2	6	n/a	n/a	n/a	30	14	1	9	4
4940.008	n/a	PROB	2470004	n/a	LTP207	ltpFR2	6	n/a	n/a	n/a	30	12	6	4	2
4941.374	n/a	PROB	2470687	n/a	LTP207	ltpFR2	6	n/a	n/a	n/a	30	10	5	4	1
4943.154	n/a	PROB	2471577	n/a	LTP207	ltpFR2	6	n/a	n/a	n/a	30	14	4	3	7
4944.352	n/a	PROB	2472176	n/a	LTP207	ltpFR2	6	n/a	n/a	n/a	30	10	1	4	5
4946.066	n/a	PROB	2473033	n/a	LTP207	ltpFR2	6	n/a	n/a	n/a	30	21	9	8	4
4947.632	n/a	PROB	2473816	n/a	LTP207	ltpFR2	6	n/a	n/a	n/a	30	20	6	8	6
4949.278	n/a	PROB	2474639	n/a	LTP207	ltpFR2	6	n/a	n/a	n/a	30	9	3	5	1
4951.076	n/a	PROB	2475538	n/a	LTP207	ltpFR2	6	n/a	n/a	n/a	30	19	8	3	8
4952.872	n/a	PROB	2476436	n/a	LTP207	ltpFR2	6	n/a	n/a	n/a	30	17	5	5	7
4954.62	n/a	PROB	2477310	n/a	LTP207	ltpFR2	6	n/a	n/a	n/a	30	16	5	3	8
4955.884	n/a	PROB	2477942	n/a	LTP207	ltpFR2	6	n/a	n/a	n/a	30	14	8	5	1
4957.232	n/a	PROB	2478616	n/a	LTP207	ltpFR2	6	n/a	n/a	n/a	30	10	2	5	3
4959.196	n/a	PROB	2479598	n/a	LTP207	ltpFR2	6	n/a	n/a	n/a	30	14	4	5	5
4960.512	n/a	PROB	2480256	n/a	LTP207	ltpFR2	6	n/a	n/a	n/a	30	11	4	6	1
4961.528	n/a	STOP	2480764	n/a	LTP207	ltpFR2	6	n/a	n/a	n/a	30	n/a	n/a	n/a	n/a
4963.54	n/a	WORD	2481770	wordpools/wasnorm_wordpool_576.txt	LTP207	ltpFR2	6	20	OUTFIT	988	n/a	n/a	0	0	0
4966.152	n/a	WORD	2483076	wordpools/wasnorm_wordpool_576.txt	LTP207	ltpFR2	6	20	PILOT	1070	n/a	n/a	0	0	0
4968.732	n/a	WORD	2484366	wordpools/wasnorm_wordpool_576.txt	LTP207	ltpFR2	6	20	DRAGON	492	n/a	n/a	0	0	0
4971.528	n/a	WORD	2485764	wordpools/wasnorm_wordpool_576.txt	LTP207	ltpFR2	6	20	LAVA	804	n/a	n/a	0	0	0
4974.04	n/a	WORD	2487020	wordpools/wasnorm_wordpool_576.txt	LTP207	ltpFR2	6	20	CRATER	400	n/a	n/a	0	0	0
4976.754	n/a	WORD	2488377	wordpools/wasnorm_wordpool_576.txt	LTP207	ltpFR2	6	20	BUNNY	198	n/a	n/a	0	0	0
4979.55	n/a	WORD	2489775	wordpools/wasnorm_wordpool_576.txt	LTP207	ltpFR2	6	20	COD	340	n/a	n/a	0	0	0
4982.362	n/a	WORD	2491181	wordpools/wasnorm_wordpool_576.txt	LTP207	ltpFR2	6	20	PLAZA	1088	n/a	n/a	0	0	0
4985.042	n/a	WORD	2492521	wordpools/wasnorm_wordpool_576.txt	LTP207	ltpFR2	6	20	SWITCH	1422	n/a	n/a	0	0	0
4987.588	n/a	WORD	2493794	wordpools/wasnorm_wordpool_576.txt	LTP207	ltpFR2	6	20	SNACK	1331	n/a	n/a	0	0	0
4990.3	n/a	WORD	2495150	wordpools/wasnorm_wordpool_576.txt	LTP207	ltpFR2	6	20	BOUQUET	157	n/a	n/a	0	0	0
4992.796	n/a	WORD	2496398	wordpools/wasnorm_wordpool_576.txt	LTP207	ltpFR2	6	20	FLIPPER	580	n/a	n/a	0	0	0
4995.392	n/a	WORD	2497696	wordpools/wasnorm_wordpool_576.txt	LTP207	ltpFR2	6	20	FREEZER	604	n/a	n/a	0	0	0
4998.022	n/a	WORD	2499011	wordpools/wasnorm_wordpool_576.txt	LTP207	ltpFR2	6	20	MISSILE	900	n/a	n/a	0	0	0
5000.834	n/a	WORD	2500417	wordpools/wasnorm_wordpool_576.txt	LTP207	ltpFR2	6	20	ICING	732	n/a	n/a	0	0	0
5003.648	n/a	WORD	2501824	wordpools/wasnorm_wordpool_576.txt	LTP207	ltpFR2	6	20	VALLEY	1545	n/a	n/a	0	0	0
5006.178	n/a	WORD	2503089	wordpools/wasnorm_wordpool_576.txt	LTP207	ltpFR2	6	20	BANQUET	86	n/a	n/a	0	0	0
5008.906	n/a	WORD	2504453	wordpools/wasnorm_wordpool_576.txt	LTP207	ltpFR2	6	20	PLATE	1086	n/a	n/a	0	0	0
5011.67	n/a	WORD	2505835	wordpools/wasnorm_wordpool_576.txt	LTP207	ltpFR2	6	20	AIRPORT	13	n/a	n/a	0	0	0
5014.148	n/a	WORD	2507074	wordpools/wasnorm_wordpool_576.txt	LTP207	ltpFR2	6	20	CROSS	413	n/a	n/a	0	0	0
5016.578	n/a	WORD	2508289	wordpools/wasnorm_wordpool_576.txt	LTP207	ltpFR2	6	20	RACKET	1155	n/a	n/a	0	0	0
5019.224	n/a	WORD	2509612	wordpools/wasnorm_wordpool_576.txt	LTP207	ltpFR2	6	20	SEAL	1262	n/a	n/a	0	0	0
5021.67	n/a	WORD	2510835	wordpools/wasnorm_wordpool_576.txt	LTP207	ltpFR2	6	20	KETCHUP	771	n/a	n/a	0	0	0
5024.25	n/a	WORD	2512125	wordpools/wasnorm_wordpool_576.txt	LTP207	ltpFR2	6	20	STOVE	1388	n/a	n/a	0	0	0
5025.864	n/a	START	2512932	n/a	LTP207	ltpFR2	6	n/a	n/a	n/a	31	n/a	n/a	n/a	n/a
5026.998	n/a	DISTRACTOR	2513499	n/a	LTP207	ltpFR2	6	20	n/a	n/a	n/a	n/a	0	0	0
5027.012	n/a	PROB	2513506	n/a	LTP207	ltpFR2	6	n/a	n/a	n/a	31	18	7	2	9
5028.61	n/a	PROB	2514305	n/a	LTP207	ltpFR2	6	n/a	n/a	n/a	31	13	1	9	3
5029.976	n/a	PROB	2514988	n/a	LTP207	ltpFR2	6	n/a	n/a	n/a	31	8	3	4	1
5031.772	n/a	PROB	2515886	n/a	LTP207	ltpFR2	6	n/a	n/a	n/a	31	22	7	8	7
5033.254	n/a	PROB	2516627	n/a	LTP207	ltpFR2	6	n/a	n/a	n/a	31	14	8	3	3
5034.552	n/a	PROB	2517276	n/a	LTP207	ltpFR2	6	n/a	n/a	n/a	31	10	2	3	5
