onset	duration	trial_type	sample	stim_file	subject	experiment	session	trial	task	item_name	item_num	recog_conf	resp	answer	test_x	test_y	test_z	color_b	color_g	color_r	case	font
288.264	n/a	SESS_START	144132	n/a	LTP125	ltpFR	7	n/a	n/a	n/a	n/a	5	n/a	n/a	0	0	0	n/a	n/a	n/a	n/a	n/a
579.414	n/a	START	289707	n/a	LTP125	ltpFR	7	n/a	n/a	n/a	n/a	n/a	n/a	n/a	n/a	n/a	n/a	n/a	n/a	n/a	n/a	n/a
579.44	n/a	PROB	289720	n/a	LTP125	ltpFR	7	n/a	n/a	n/a	n/a	n/a	n/a	12	2	3	7	n/a	n/a	n/a	n/a	n/a
581.572	n/a	PROB	290786	n/a	LTP125	ltpFR	7	n/a	n/a	n/a	n/a	n/a	n/a	21	9	5	7	n/a	n/a	n/a	n/a	n/a
584.354	n/a	PROB	292177	n/a	LTP125	ltpFR	7	n/a	n/a	n/a	n/a	n/a	n/a	11	4	5	2	n/a	n/a	n/a	n/a	n/a
585.912	n/a	PROB	292956	n/a	LTP125	ltpFR	7	n/a	n/a	n/a	n/a	n/a	n/a	23	9	7	7	n/a	n/a	n/a	n/a	n/a
588.844	n/a	PROB	294422	n/a	LTP125	ltpFR	7	n/a	n/a	n/a	n/a	n/a	n/a	20	5	8	7	n/a	n/a	n/a	n/a	n/a
591.894	n/a	PROB	295947	n/a	LTP125	ltpFR	7	n/a	n/a	n/a	n/a	n/a	n/a	12	1	7	4	n/a	n/a	n/a	n/a	n/a
593.844	n/a	PROB	296922	n/a	LTP125	ltpFR	7	n/a	n/a	n/a	n/a	n/a	n/a	16	9	2	5	n/a	n/a	n/a	n/a	n/a
595.934	n/a	PROB	297967	n/a	LTP125	ltpFR	7	n/a	n/a	n/a	n/a	n/a	n/a	18	9	6	3	n/a	n/a	n/a	n/a	n/a
599.416	n/a	STOP	299708	n/a	LTP125	ltpFR	7	n/a	n/a	n/a	n/a	n/a	n/a	n/a	n/a	n/a	n/a	n/a	n/a	n/a	n/a	n/a
732.062	n/a	START	366031	n/a	LTP125	ltpFR	7	n/a	n/a	n/a	n/a	n/a	n/a	n/a	n/a	n/a	n/a	n/a	n/a	n/a	n/a	n/a
733.568	n/a	PROB	366784	n/a	LTP125	ltpFR	7	n/a	n/a	n/a	n/a	n/a	n/a	10	7	1	2	n/a	n/a	n/a	n/a	n/a
737.284	n/a	PROB	368642	n/a	LTP125	ltpFR	7	n/a	n/a	n/a	n/a	n/a	n/a	14	8	2	4	n/a	n/a	n/a	n/a	n/a
739.276	n/a	STOP	369638	n/a	LTP125	ltpFR	7	n/a	n/a	n/a	n/a	n/a	n/a	n/a	n/a	n/a	n/a	n/a	n/a	n/a	n/a	n/a
741.098	n/a	WORD	370549	wordpools/wasnorm_wordpool.txt	LTP125	ltpFR	7	1	0	WINGS	1614	n/a	1	n/a	0	0	0	0	0.5869140625	0.422607421875	lower	../fonts/amplitud.ttf
744.108	n/a	START	372054	n/a	LTP125	ltpFR	7	n/a	n/a	n/a	n/a	n/a	n/a	n/a	n/a	n/a	n/a	n/a	n/a	n/a	n/a	n/a
745.248	n/a	PROB	372624	n/a	LTP125	ltpFR	7	n/a	n/a	n/a	n/a	n/a	n/a	12	5	4	3	n/a	n/a	n/a	n/a	n/a
748.056	n/a	PROB	374028	n/a	LTP125	ltpFR	7	n/a	n/a	n/a	n/a	n/a	n/a	12	7	4	1	n/a	n/a	n/a	n/a	n/a
752.106	n/a	STOP	376053	n/a	LTP125	ltpFR	7	n/a	n/a	n/a	n/a	n/a	n/a	n/a	n/a	n/a	n/a	n/a	n/a	n/a	n/a	n/a
753.254	n/a	WORD	376627	wordpools/wasnorm_wordpool.txt	LTP125	ltpFR	7	1	0	SUPERVISOR	1410	n/a	1	n/a	0	0	0	0	0.5869140625	0.422607421875	lower	../fonts/amplitud.ttf
756.262	n/a	START	378131	n/a	LTP125	ltpFR	7	n/a	n/a	n/a	n/a	n/a	n/a	n/a	n/a	n/a	n/a	n/a	n/a	n/a	n/a	n/a
757.21	n/a	PROB	378605	n/a	LTP125	ltpFR	7	n/a	n/a	n/a	n/a	n/a	n/a	17	8	8	1	n/a	n/a	n/a	n/a	n/a
758.868	n/a	PROB	379434	n/a	LTP125	ltpFR	7	n/a	n/a	n/a	n/a	n/a	n/a	14	8	4	2	n/a	n/a	n/a	n/a	n/a
761.292	n/a	PROB	380646	n/a	LTP125	ltpFR	7	n/a	n/a	n/a	n/a	n/a	n/a	20	9	3	8	n/a	n/a	n/a	n/a	n/a
763.326	n/a	STOP	381663	n/a	LTP125	ltpFR	7	n/a	n/a	n/a	n/a	n/a	n/a	n/a	n/a	n/a	n/a	n/a	n/a	n/a	n/a	n/a
765.358	n/a	WORD	382679	wordpools/wasnorm_wordpool.txt	LTP125	ltpFR	7	1	0	CROSS	413	n/a	0	n/a	0	0	0	0	0.5869140625	0.422607421875	lower	../fonts/amplitud.ttf
768.366	n/a	START	384183	n/a	LTP125	ltpFR	7	n/a	n/a	n/a	n/a	n/a	n/a	n/a	n/a	n/a	n/a	n/a	n/a	n/a	n/a	n/a
769.516	n/a	PROB	384758	n/a	LTP125	ltpFR	7	n/a	n/a	n/a	n/a	n/a	n/a	11	2	3	6	n/a	n/a	n/a	n/a	n/a
771.474	n/a	PROB	385737	n/a	LTP125	ltpFR	7	n/a	n/a	n/a	n/a	n/a	n/a	15	5	3	7	n/a	n/a	n/a	n/a	n/a
773.272	n/a	PROB	386636	n/a	LTP125	ltpFR	7	n/a	n/a	n/a	n/a	n/a	n/a	24	9	8	8	n/a	n/a	n/a	n/a	n/a
776.294	n/a	STOP	388147	n/a	LTP125	ltpFR	7	n/a	n/a	n/a	n/a	n/a	n/a	n/a	n/a	n/a	n/a	n/a	n/a	n/a	n/a	n/a
777.38	n/a	WORD	388690	wordpools/wasnorm_wordpool.txt	LTP125	ltpFR	7	1	0	BLUEPRINT	142	n/a	0	n/a	0	0	0	0	0.5869140625	0.422607421875	lower	../fonts/amplitud.ttf
780.388	n/a	START	390194	n/a	LTP125	ltpFR	7	n/a	n/a	n/a	n/a	n/a	n/a	n/a	n/a	n/a	n/a	n/a	n/a	n/a	n/a	n/a
781.438	n/a	PROB	390719	n/a	LTP125	ltpFR	7	n/a	n/a	n/a	n/a	n/a	n/a	17	2	7	8	n/a	n/a	n/a	n/a	n/a
783.236	n/a	PROB	391618	n/a	LTP125	ltpFR	7	n/a	n/a	n/a	n/a	n/a	n/a	14	9	4	1	n/a	n/a	n/a	n/a	n/a
785.528	n/a	PROB	392764	n/a	LTP125	ltpFR	7	n/a	n/a	n/a	n/a	n/a	n/a	16	6	9	1	n/a	n/a	n/a	n/a	n/a
787.086	n/a	STOP	393543	n/a	LTP125	ltpFR	7	n/a	n/a	n/a	n/a	n/a	n/a	n/a	n/a	n/a	n/a	n/a	n/a	n/a	n/a	n/a
789.344	n/a	WORD	394672	wordpools/wasnorm_wordpool.txt	LTP125	ltpFR	7	1	0	CHAMPAGNE	278	n/a	0	n/a	0	0	0	0	0.5869140625	0.422607421875	lower	../fonts/amplitud.ttf
792.35	n/a	START	396175	n/a	LTP125	ltpFR	7	n/a	n/a	n/a	n/a	n/a	n/a	n/a	n/a	n/a	n/a	n/a	n/a	n/a	n/a	n/a
793.524	n/a	PROB	396762	n/a	LTP125	ltpFR	7	n/a	n/a	n/a	n/a	n/a	n/a	17	4	8	5	n/a	n/a	n/a	n/a	n/a
800.352	n/a	STOP	400176	n/a	LTP125	ltpFR	7	n/a	n/a	n/a	n/a	n/a	n/a	n/a	n/a	n/a	n/a	n/a	n/a	n/a	n/a	n/a
801.456	n/a	WORD	400728	wordpools/wasnorm_wordpool.txt	LTP125	ltpFR	7	1	0	COACH	331	n/a	1	n/a	0	0	0	0	0.5869140625	0.422607421875	lower	../fonts/amplitud.ttf
804.464	n/a	START	402232	n/a	LTP125	ltpFR	7	n/a	n/a	n/a	n/a	n/a	n/a	n/a	n/a	n/a	n/a	n/a	n/a	n/a	n/a	n/a
805.396	n/a	PROB	402698	n/a	LTP125	ltpFR	7	n/a	n/a	n/a	n/a	n/a	n/a	11	2	6	3	n/a	n/a	n/a	n/a	n/a
807.08	n/a	PROB	403540	n/a	LTP125	ltpFR	7	n/a	n/a	n/a	n/a	n/a	n/a	6	2	2	2	n/a	n/a	n/a	n/a	n/a
808.588	n/a	PROB	404294	n/a	LTP125	ltpFR	7	n/a	n/a	n/a	n/a	n/a	n/a	14	2	4	8	n/a	n/a	n/a	n/a	n/a
810.594	n/a	PROB	405297	n/a	LTP125	ltpFR	7	n/a	n/a	n/a	n/a	n/a	n/a	14	5	7	2	n/a	n/a	n/a	n/a	n/a
812.2	n/a	STOP	406100	n/a	LTP125	ltpFR	7	n/a	n/a	n/a	n/a	n/a	n/a	n/a	n/a	n/a	n/a	n/a	n/a	n/a	n/a	n/a
813.494	n/a	WORD	406747	wordpools/wasnorm_wordpool.txt	LTP125	ltpFR	7	1	0	PALACE	1006	n/a	1	n/a	0	0	0	0	0.5869140625	0.422607421875	lower	../fonts/amplitud.ttf
816.502	n/a	START	408251	n/a	LTP125	ltpFR	7	n/a	n/a	n/a	n/a	n/a	n/a	n/a	n/a	n/a	n/a	n/a	n/a	n/a	n/a	n/a
817.384	n/a	PROB	408692	n/a	LTP125	ltpFR	7	n/a	n/a	n/a	n/a	n/a	n/a	13	3	4	6	n/a	n/a	n/a	n/a	n/a
819.502	n/a	PROB	409751	n/a	LTP125	ltpFR	7	n/a	n/a	n/a	n/a	n/a	n/a	12	6	3	3	n/a	n/a	n/a	n/a	n/a
821.276	n/a	PROB	410638	n/a	LTP125	ltpFR	7	n/a	n/a	n/a	n/a	n/a	n/a	11	5	4	2	n/a	n/a	n/a	n/a	n/a
824.502	n/a	STOP	412251	n/a	LTP125	ltpFR	7	n/a	n/a	n/a	n/a	n/a	n/a	n/a	n/a	n/a	n/a	n/a	n/a	n/a	n/a	n/a
825.558	n/a	WORD	412779	wordpools/wasnorm_wordpool.txt	LTP125	ltpFR	7	1	0	COTTAGE	384	n/a	1	n/a	0	0	0	0	0.5869140625	0.422607421875	lower	../fonts/amplitud.ttf
828.566	n/a	START	414283	n/a	LTP125	ltpFR	7	n/a	n/a	n/a	n/a	n/a	n/a	n/a	n/a	n/a	n/a	n/a	n/a	n/a	n/a	n/a
829.506	n/a	PROB	414753	n/a	LTP125	ltpFR	7	n/a	n/a	n/a	n/a	n/a	n/a	11	1	1	9	n/a	n/a	n/a	n/a	n/a
830.748	n/a	PROB	415374	n/a	LTP125	ltpFR	7	n/a	n/a	n/a	n/a	n/a	n/a	21	5	8	8	n/a	n/a	n/a	n/a	n/a
832.404	n/a	PROB	416202	n/a	LTP125	ltpFR	7	n/a	n/a	n/a	n/a	n/a	n/a	17	3	7	7	n/a	n/a	n/a	n/a	n/a
834.646	n/a	PROB	417323	n/a	LTP125	ltpFR	7	n/a	n/a	n/a	n/a	n/a	n/a	18	7	5	6	n/a	n/a	n/a	n/a	n/a
836.44	n/a	STOP	418220	n/a	LTP125	ltpFR	7	n/a	n/a	n/a	n/a	n/a	n/a	n/a	n/a	n/a	n/a	n/a	n/a	n/a	n/a	n/a
837.712	n/a	WORD	418856	wordpools/wasnorm_wordpool.txt	LTP125	ltpFR	7	1	0	TANGERINE	1431	n/a	0	n/a	0	0	0	0	0.5869140625	0.422607421875	lower	../fonts/amplitud.ttf
840.72	n/a	START	420360	n/a	LTP125	ltpFR	7	n/a	n/a	n/a	n/a	n/a	n/a	n/a	n/a	n/a	n/a	n/a	n/a	n/a	n/a	n/a
841.686	n/a	PROB	420843	n/a	LTP125	ltpFR	7	n/a	n/a	n/a	n/a	n/a	n/a	10	1	1	8	n/a	n/a	n/a	n/a	n/a
843.036	n/a	PROB	421518	n/a	LTP125	ltpFR	7	n/a	n/a	n/a	n/a	n/a	n/a	9	4	1	4	n/a	n/a	n/a	n/a	n/a
845.094	n/a	PROB	422547	n/a	LTP125	ltpFR	7	n/a	n/a	n/a	n/a	n/a	n/a	14	1	8	5	n/a	n/a	n/a	n/a	n/a
847.57	n/a	STOP	423785	n/a	LTP125	ltpFR	7	n/a	n/a	n/a	n/a	n/a	n/a	n/a	n/a	n/a	n/a	n/a	n/a	n/a	n/a	n/a
849.674	n/a	WORD	424837	wordpools/wasnorm_wordpool.txt	LTP125	ltpFR	7	1	0	RAISIN	1163	n/a	0	n/a	0	0	0	0	0.5869140625	0.422607421875	lower	../fonts/amplitud.ttf
852.682	n/a	START	426341	n/a	LTP125	ltpFR	7	n/a	n/a	n/a	n/a	n/a	n/a	n/a	n/a	n/a	n/a	n/a	n/a	n/a	n/a	n/a
853.556	n/a	PROB	426778	n/a	LTP125	ltpFR	7	n/a	n/a	n/a	n/a	n/a	n/a	18	7	4	7	n/a	n/a	n/a	n/a	n/a
855.93	n/a	PROB	427965	n/a	LTP125	ltpFR	7	n/a	n/a	n/a	n/a	n/a	n/a	15	6	1	8	n/a	n/a	n/a	n/a	n/a
860.684	n/a	STOP	430342	n/a	LTP125	ltpFR	7	n/a	n/a	n/a	n/a	n/a	n/a	n/a	n/a	n/a	n/a	n/a	n/a	n/a	n/a	n/a
861.646	n/a	WORD	430823	wordpools/wasnorm_wordpool.txt	LTP125	ltpFR	7	1	0	CANARY	227	n/a	0	n/a	0	0	0	0	0.5869140625	0.422607421875	lower	../fonts/amplitud.ttf
864.654	n/a	START	432327	n/a	LTP125	ltpFR	7	n/a	n/a	n/a	n/a	n/a	n/a	n/a	n/a	n/a	n/a	n/a	n/a	n/a	n/a	n/a
865.478	n/a	PROB	432739	n/a	LTP125	ltpFR	7	n/a	n/a	n/a	n/a	n/a	n/a	24	9	9	8	n/a	n/a	n/a	n/a	n/a
868.636	n/a	PROB	434318	n/a	LTP125	ltpFR	7	n/a	n/a	n/a	n/a	n/a	n/a	8	5	2	1	n/a	n/a	n/a	n/a	n/a
870.968	n/a	PROB	435484	n/a	LTP125	ltpFR	7	n/a	n/a	n/a	n/a	n/a	n/a	14	1	5	8	n/a	n/a	n/a	n/a	n/a
872.626	n/a	STOP	436313	n/a	LTP125	ltpFR	7	n/a	n/a	n/a	n/a	n/a	n/a	n/a	n/a	n/a	n/a	n/a	n/a	n/a	n/a	n/a
873.642	n/a	WORD	436821	wordpools/wasnorm_wordpool.txt	LTP125	ltpFR	7	1	0	ROOM	1206	n/a	1	n/a	0	0	0	0	0.5869140625	0.422607421875	lower	../fonts/amplitud.ttf
876.65	n/a	START	438325	n/a	LTP125	ltpFR	7	n/a	n/a	n/a	n/a	n/a	n/a	n/a	n/a	n/a	n/a	n/a	n/a	n/a	n/a	n/a
877.592	n/a	PROB	438796	n/a	LTP125	ltpFR	7	n/a	n/a	n/a	n/a	n/a	n/a	15	1	6	8	n/a	n/a	n/a	n/a	n/a
879.282	n/a	PROB	439641	n/a	LTP125	ltpFR	7	n/a	n/a	n/a	n/a	n/a	n/a	16	2	7	7	n/a	n/a	n/a	n/a	n/a
882.466	n/a	PROB	441233	n/a	LTP125	ltpFR	7	n/a	n/a	n/a	n/a	n/a	n/a	24	9	9	6	n/a	n/a	n/a	n/a	n/a
884.548	n/a	STOP	442274	n/a	LTP125	ltpFR	7	n/a	n/a	n/a	n/a	n/a	n/a	n/a	n/a	n/a	n/a	n/a	n/a	n/a	n/a	n/a
885.856	n/a	WORD	442928	wordpools/wasnorm_wordpool.txt	LTP125	ltpFR	7	1	0	TICKET	1464	n/a	0	n/a	0	0	0	0	0.5869140625	0.422607421875	lower	../fonts/amplitud.ttf
888.864	n/a	START	444432	n/a	LTP125	ltpFR	7	n/a	n/a	n/a	n/a	n/a	n/a	n/a	n/a	n/a	n/a	n/a	n/a	n/a	n/a	n/a
889.896	n/a	PROB	444948	n/a	LTP125	ltpFR	7	n/a	n/a	n/a	n/a	n/a	n/a	12	1	7	4	n/a	n/a	n/a	n/a	n/a
891.42	n/a	PROB	445710	n/a	LTP125	ltpFR	7	n/a	n/a	n/a	n/a	n/a	n/a	24	8	8	6	n/a	n/a	n/a	n/a	n/a
894.052	n/a	PROB	447026	n/a	LTP125	ltpFR	7	n/a	n/a	n/a	n/a	n/a	n/a	8	4	1	3	n/a	n/a	n/a	n/a	n/a
896.564	n/a	STOP	448282	n/a	LTP125	ltpFR	7	n/a	n/a	n/a	n/a	n/a	n/a	n/a	n/a	n/a	n/a	n/a	n/a	n/a	n/a	n/a
897.778	n/a	WORD	448889	wordpools/wasnorm_wordpool.txt	LTP125	ltpFR	7	1	0	ATHLETE	52	n/a	1	n/a	0	0	0	0	0.5869140625	0.422607421875	lower	../fonts/amplitud.ttf
900.786	n/a	START	450393	n/a	LTP125	ltpFR	7	n/a	n/a	n/a	n/a	n/a	n/a	n/a	n/a	n/a	n/a	n/a	n/a	n/a	n/a	n/a
901.91	n/a	PROB	450955	n/a	LTP125	ltpFR	7	n/a	n/a	n/a	n/a	n/a	n/a	5	1	3	1	n/a	n/a	n/a	n/a	n/a
903.226	n/a	PROB	451613	n/a	LTP125	ltpFR	7	n/a	n/a	n/a	n/a	n/a	n/a	12	7	4	1	n/a	n/a	n/a	n/a	n/a
904.866	n/a	PROB	452433	n/a	LTP125	ltpFR	7	n/a	n/a	n/a	n/a	n/a	n/a	11	1	6	4	n/a	n/a	n/a	n/a	n/a
906.342	n/a	PROB	453171	n/a	LTP125	ltpFR	7	n/a	n/a	n/a	n/a	n/a	n/a	14	2	5	7	n/a	n/a	n/a	n/a	n/a
908.18	n/a	STOP	454090	n/a	LTP125	ltpFR	7	n/a	n/a	n/a	n/a	n/a	n/a	n/a	n/a	n/a	n/a	n/a	n/a	n/a	n/a	n/a
909.948	n/a	WORD	454974	wordpools/wasnorm_wordpool.txt	LTP125	ltpFR	7	1	0	PIGMENT	1066	n/a	0	n/a	0	0	0	0	0.5869140625	0.422607421875	lower	../fonts/amplitud.ttf
912.956	n/a	START	456478	n/a	LTP125	ltpFR	7	n/a	n/a	n/a	n/a	n/a	n/a	n/a	n/a	n/a	n/a	n/a	n/a	n/a	n/a	n/a
914.03	n/a	PROB	457015	n/a	LTP125	ltpFR	7	n/a	n/a	n/a	n/a	n/a	n/a	9	3	3	3	n/a	n/a	n/a	n/a	n/a
915.306	n/a	PROB	457653	n/a	LTP125	ltpFR	7	n/a	n/a	n/a	n/a	n/a	n/a	19	3	7	9	n/a	n/a	n/a	n/a	n/a
917.264	n/a	PROB	458632	n/a	LTP125	ltpFR	7	n/a	n/a	n/a	n/a	n/a	n/a	10	1	2	7	n/a	n/a	n/a	n/a	n/a
918.73	n/a	PROB	459365	n/a	LTP125	ltpFR	7	n/a	n/a	n/a	n/a	n/a	n/a	11	9	1	1	n/a	n/a	n/a	n/a	n/a
919.758	n/a	STOP	459879	n/a	LTP125	ltpFR	7	n/a	n/a	n/a	n/a	n/a	n/a	n/a	n/a	n/a	n/a	n/a	n/a	n/a	n/a	n/a
921.92	n/a	WORD	460960	wordpools/wasnorm_wordpool.txt	LTP125	ltpFR	7	1	0	CRAYON	401	n/a	0	n/a	0	0	0	0	0.5869140625	0.422607421875	lower	../fonts/amplitud.ttf
924.928	n/a	START	462464	n/a	LTP125	ltpFR	7	n/a	n/a	n/a	n/a	n/a	n/a	n/a	n/a	n/a	n/a	n/a	n/a	n/a	n/a	n/a
925.81	n/a	PROB	462905	n/a	LTP125	ltpFR	7	n/a	n/a	n/a	n/a	n/a	n/a	10	2	5	3	n/a	n/a	n/a	n/a	n/a
927.41	n/a	PROB	463705	n/a	LTP125	ltpFR	7	n/a	n/a	n/a	n/a	n/a	n/a	16	4	9	3	n/a	n/a	n/a	n/a	n/a
929.718	n/a	PROB	464859	n/a	LTP125	ltpFR	7	n/a	n/a	n/a	n/a	n/a	n/a	17	8	3	6	n/a	n/a	n/a	n/a	n/a
931.686	n/a	STOP	465843	n/a	LTP125	ltpFR	7	n/a	n/a	n/a	n/a	n/a	n/a	n/a	n/a	n/a	n/a	n/a	n/a	n/a	n/a	n/a
934.75	n/a	REC_START	467375	n/a	LTP125	ltpFR	7	1	n/a	n/a	n/a	n/a	n/a	n/a	0	0	0	n/a	n/a	n/a	n/a	n/a
935.728	n/a	REC_WORD	467864	wordpools/wasnorm_wordpool.txt	LTP125	ltpFR	7	1	0	CANARY	227	n/a	0	n/a	0	0	0	n/a	n/a	n/a	n/a	n/a
937.114	n/a	REC_WORD	468557	wordpools/wasnorm_wordpool.txt	LTP125	ltpFR	7	1	0	BLUEPRINT	142	n/a	0	n/a	0	0	0	n/a	n/a	n/a	n/a	n/a
938.338	n/a	REC_WORD	469169	wordpools/wasnorm_wordpool.txt	LTP125	ltpFR	7	1	0	WINGS	1614	n/a	1	n/a	0	0	0	n/a	n/a	n/a	n/a	n/a
939.57	n/a	REC_WORD	469785	wordpools/wasnorm_wordpool.txt	LTP125	ltpFR	7	1	0	CRAYON	401	n/a	0	n/a	0	0	0	n/a	n/a	n/a	n/a	n/a
940.906	n/a	REC_WORD	470453	wordpools/wasnorm_wordpool.txt	LTP125	ltpFR	7	1	0	TANGERINE	1431	n/a	0	n/a	0	0	0	n/a	n/a	n/a	n/a	n/a
942.258	n/a	REC_WORD	471129	wordpools/wasnorm_wordpool.txt	LTP125	ltpFR	7	1	0	COTTAGE	384	n/a	1	n/a	0	0	0	n/a	n/a	n/a	n/a	n/a
947.766	n/a	REC_WORD	473883	wordpools/wasnorm_wordpool.txt	LTP125	ltpFR	7	1	0	PIGMENT	1066	n/a	0	n/a	0	0	0	n/a	n/a	n/a	n/a	n/a
949.118	n/a	REC_WORD	474559	wordpools/wasnorm_wordpool.txt	LTP125	ltpFR	7	1	0	RAISIN	1163	n/a	0	n/a	0	0	0	n/a	n/a	n/a	n/a	n/a
1017.508	n/a	START	508754	n/a	LTP125	ltpFR	7	n/a	n/a	n/a	n/a	n/a	n/a	n/a	n/a	n/a	n/a	n/a	n/a	n/a	n/a	n/a
1019.008	n/a	PROB	509504	n/a	LTP125	ltpFR	7	n/a	n/a	n/a	n/a	n/a	n/a	11	9	1	1	n/a	n/a	n/a	n/a	n/a
1020.332	n/a	PROB	510166	n/a	LTP125	ltpFR	7	n/a	n/a	n/a	n/a	n/a	n/a	18	3	9	6	n/a	n/a	n/a	n/a	n/a
1022.206	n/a	PROB	511103	n/a	LTP125	ltpFR	7	n/a	n/a	n/a	n/a	n/a	n/a	19	2	9	8	n/a	n/a	n/a	n/a	n/a
1024.034	n/a	STOP	512017	n/a	LTP125	ltpFR	7	n/a	n/a	n/a	n/a	n/a	n/a	n/a	n/a	n/a	n/a	n/a	n/a	n/a	n/a	n/a
1026.696	n/a	WORD	513348	wordpools/wasnorm_wordpool.txt	LTP125	ltpFR	7	2	1	HEAD	695	n/a	0	n/a	0	0	0	1	0.412841796875	0.57763671875	upper	../fonts/zerothre.ttf
1029.704	n/a	START	514852	n/a	LTP125	ltpFR	7	n/a	n/a	n/a	n/a	n/a	n/a	n/a	n/a	n/a	n/a	n/a	n/a	n/a	n/a	n/a
1030.662	n/a	PROB	515331	n/a	LTP125	ltpFR	7	n/a	n/a	n/a	n/a	n/a	n/a	17	5	4	8	n/a	n/a	n/a	n/a	n/a
1032.254	n/a	PROB	516127	n/a	LTP125	ltpFR	7	n/a	n/a	n/a	n/a	n/a	n/a	14	6	2	6	n/a	n/a	n/a	n/a	n/a
1033.954	n/a	PROB	516977	n/a	LTP125	ltpFR	7	n/a	n/a	n/a	n/a	n/a	n/a	16	4	8	6	n/a	n/a	n/a	n/a	n/a
1035.67	n/a	PROB	517835	n/a	LTP125	ltpFR	7	n/a	n/a	n/a	n/a	n/a	n/a	17	5	7	5	n/a	n/a	n/a	n/a	n/a
1037.324	n/a	STOP	518662	n/a	LTP125	ltpFR	7	n/a	n/a	n/a	n/a	n/a	n/a	n/a	n/a	n/a	n/a	n/a	n/a	n/a	n/a	n/a
1038.56	n/a	WORD	519280	wordpools/wasnorm_wordpool.txt	LTP125	ltpFR	7	2	1	SOCK	1339	n/a	0	n/a	0	0	0	1	0.412841796875	0.57763671875	upper	../fonts/zerothre.ttf
1041.568	n/a	START	520784	n/a	LTP125	ltpFR	7	n/a	n/a	n/a	n/a	n/a	n/a	n/a	n/a	n/a	n/a	n/a	n/a	n/a	n/a	n/a
1042.508	n/a	PROB	521254	n/a	LTP125	ltpFR	7	n/a	n/a	n/a	n/a	n/a	n/a	22	8	6	6	n/a	n/a	n/a	n/a	n/a
1045.34	n/a	PROB	522670	n/a	LTP125	ltpFR	7	n/a	n/a	n/a	n/a	n/a	n/a	18	6	3	9	n/a	n/a	n/a	n/a	n/a
1047.032	n/a	PROB	523516	n/a	LTP125	ltpFR	7	n/a	n/a	n/a	n/a	n/a	n/a	9	5	1	2	n/a	n/a	n/a	n/a	n/a
1048.676	n/a	STOP	524338	n/a	LTP125	ltpFR	7	n/a	n/a	n/a	n/a	n/a	n/a	n/a	n/a	n/a	n/a	n/a	n/a	n/a	n/a	n/a
1050.614	n/a	WORD	525307	wordpools/wasnorm_wordpool.txt	LTP125	ltpFR	7	2	1	PONY	1102	n/a	1	n/a	0	0	0	1	0.412841796875	0.57763671875	upper	../fonts/zerothre.ttf
1053.622	n/a	START	526811	n/a	LTP125	ltpFR	7	n/a	n/a	n/a	n/a	n/a	n/a	n/a	n/a	n/a	n/a	n/a	n/a	n/a	n/a	n/a
1054.456	n/a	PROB	527228	n/a	LTP125	ltpFR	7	n/a	n/a	n/a	n/a	n/a	n/a	19	9	6	4	n/a	n/a	n/a	n/a	n/a
1056.762	n/a	PROB	528381	n/a	LTP125	ltpFR	7	n/a	n/a	n/a	n/a	n/a	n/a	22	7	8	7	n/a	n/a	n/a	n/a	n/a
1060.46	n/a	STOP	530230	n/a	LTP125	ltpFR	7	n/a	n/a	n/a	n/a	n/a	n/a	n/a	n/a	n/a	n/a	n/a	n/a	n/a	n/a	n/a
1062.444	n/a	WORD	531222	wordpools/wasnorm_wordpool.txt	LTP125	ltpFR	7	2	1	SAP	1233	n/a	0	n/a	0	0	0	1	0.412841796875	0.57763671875	upper	../fonts/zerothre.ttf
1065.452	n/a	START	532726	n/a	LTP125	ltpFR	7	n/a	n/a	n/a	n/a	n/a	n/a	n/a	n/a	n/a	n/a	n/a	n/a	n/a	n/a	n/a
1066.518	n/a	PROB	533259	n/a	LTP125	ltpFR	7	n/a	n/a	n/a	n/a	n/a	n/a	17	6	9	2	n/a	n/a	n/a	n/a	n/a
1068.552	n/a	PROB	534276	n/a	LTP125	ltpFR	7	n/a	n/a	n/a	n/a	n/a	n/a	13	6	6	1	n/a	n/a	n/a	n/a	n/a
1069.892	n/a	PROB	534946	n/a	LTP125	ltpFR	7	n/a	n/a	n/a	n/a	n/a	n/a	16	8	2	6	n/a	n/a	n/a	n/a	n/a
1071.184	n/a	PROB	535592	n/a	LTP125	ltpFR	7	n/a	n/a	n/a	n/a	n/a	n/a	16	7	1	8	n/a	n/a	n/a	n/a	n/a
1072.718	n/a	STOP	536359	n/a	LTP125	ltpFR	7	n/a	n/a	n/a	n/a	n/a	n/a	n/a	n/a	n/a	n/a	n/a	n/a	n/a	n/a	n/a
1074.59	n/a	WORD	537295	wordpools/wasnorm_wordpool.txt	LTP125	ltpFR	7	2	1	ORNAMENT	985	n/a	0	n/a	0	0	0	1	0.412841796875	0.57763671875	upper	../fonts/zerothre.ttf
1077.598	n/a	START	538799	n/a	LTP125	ltpFR	7	n/a	n/a	n/a	n/a	n/a	n/a	n/a	n/a	n/a	n/a	n/a	n/a	n/a	n/a	n/a
1078.606	n/a	PROB	539303	n/a	LTP125	ltpFR	7	n/a	n/a	n/a	n/a	n/a	n/a	13	4	5	4	n/a	n/a	n/a	n/a	n/a
1083.062	n/a	PROB	541531	n/a	LTP125	ltpFR	7	n/a	n/a	n/a	n/a	n/a	n/a	14	2	6	6	n/a	n/a	n/a	n/a	n/a
1084.398	n/a	STOP	542199	n/a	LTP125	ltpFR	7	n/a	n/a	n/a	n/a	n/a	n/a	n/a	n/a	n/a	n/a	n/a	n/a	n/a	n/a	n/a
1086.704	n/a	WORD	543352	wordpools/wasnorm_wordpool.txt	LTP125	ltpFR	7	2	1	CRAB	397	n/a	1	n/a	0	0	0	1	0.412841796875	0.57763671875	upper	../fonts/zerothre.ttf
1089.712	n/a	START	544856	n/a	LTP125	ltpFR	7	n/a	n/a	n/a	n/a	n/a	n/a	n/a	n/a	n/a	n/a	n/a	n/a	n/a	n/a	n/a
1090.602	n/a	PROB	545301	n/a	LTP125	ltpFR	7	n/a	n/a	n/a	n/a	n/a	n/a	13	2	5	6	n/a	n/a	n/a	n/a	n/a
1092.194	n/a	PROB	546097	n/a	LTP125	ltpFR	7	n/a	n/a	n/a	n/a	n/a	n/a	16	5	5	6	n/a	n/a	n/a	n/a	n/a
1093.526	n/a	PROB	546763	n/a	LTP125	ltpFR	7	n/a	n/a	n/a	n/a	n/a	n/a	11	3	1	7	n/a	n/a	n/a	n/a	n/a
1094.968	n/a	PROB	547484	n/a	LTP125	ltpFR	7	n/a	n/a	n/a	n/a	n/a	n/a	11	2	4	5	n/a	n/a	n/a	n/a	n/a
1096.486	n/a	STOP	548243	n/a	LTP125	ltpFR	7	n/a	n/a	n/a	n/a	n/a	n/a	n/a	n/a	n/a	n/a	n/a	n/a	n/a	n/a	n/a
1098.884	n/a	WORD	549442	wordpools/wasnorm_wordpool.txt	LTP125	ltpFR	7	2	1	OFFICE	972	n/a	0	n/a	0	0	0	1	0.412841796875	0.57763671875	upper	../fonts/zerothre.ttf
1101.89	n/a	START	550945	n/a	LTP125	ltpFR	7	n/a	n/a	n/a	n/a	n/a	n/a	n/a	n/a	n/a	n/a	n/a	n/a	n/a	n/a	n/a
1102.798	n/a	PROB	551399	n/a	LTP125	ltpFR	7	n/a	n/a	n/a	n/a	n/a	n/a	16	8	3	5	n/a	n/a	n/a	n/a	n/a
1104.764	n/a	PROB	552382	n/a	LTP125	ltpFR	7	n/a	n/a	n/a	n/a	n/a	n/a	19	9	4	6	n/a	n/a	n/a	n/a	n/a
1106.782	n/a	PROB	553391	n/a	LTP125	ltpFR	7	n/a	n/a	n/a	n/a	n/a	n/a	13	5	7	1	n/a	n/a	n/a	n/a	n/a
1108.29	n/a	PROB	554145	n/a	LTP125	ltpFR	7	n/a	n/a	n/a	n/a	n/a	n/a	21	8	7	6	n/a	n/a	n/a	n/a	n/a
1109.848	n/a	STOP	554924	n/a	LTP125	ltpFR	7	n/a	n/a	n/a	n/a	n/a	n/a	n/a	n/a	n/a	n/a	n/a	n/a	n/a	n/a	n/a
1110.93	n/a	WORD	555465	wordpools/wasnorm_wordpool.txt	LTP125	ltpFR	7	2	1	CHAMBER	277	n/a	0	n/a	0	0	0	1	0.412841796875	0.57763671875	upper	../fonts/zerothre.ttf
1113.938	n/a	START	556969	n/a	LTP125	ltpFR	7	n/a	n/a	n/a	n/a	n/a	n/a	n/a	n/a	n/a	n/a	n/a	n/a	n/a	n/a	n/a
1114.846	n/a	PROB	557423	n/a	LTP125	ltpFR	7	n/a	n/a	n/a	n/a	n/a	n/a	12	6	2	4	n/a	n/a	n/a	n/a	n/a
1116.336	n/a	PROB	558168	n/a	LTP125	ltpFR	7	n/a	n/a	n/a	n/a	n/a	n/a	10	3	2	5	n/a	n/a	n/a	n/a	n/a
1118.336	n/a	PROB	559168	n/a	LTP125	ltpFR	7	n/a	n/a	n/a	n/a	n/a	n/a	16	1	8	7	n/a	n/a	n/a	n/a	n/a
1120.584	n/a	STOP	560292	n/a	LTP125	ltpFR	7	n/a	n/a	n/a	n/a	n/a	n/a	n/a	n/a	n/a	n/a	n/a	n/a	n/a	n/a	n/a
1122.81	n/a	WORD	561405	wordpools/wasnorm_wordpool.txt	LTP125	ltpFR	7	2	1	BARN	89	n/a	0	n/a	0	0	0	1	0.412841796875	0.57763671875	upper	../fonts/zerothre.ttf
1125.816	n/a	START	562908	n/a	LTP125	ltpFR	7	n/a	n/a	n/a	n/a	n/a	n/a	n/a	n/a	n/a	n/a	n/a	n/a	n/a	n/a	n/a
1126.676	n/a	PROB	563338	n/a	LTP125	ltpFR	7	n/a	n/a	n/a	n/a	n/a	n/a	8	1	2	5	n/a	n/a	n/a	n/a	n/a
1128.508	n/a	PROB	564254	n/a	LTP125	ltpFR	7	n/a	n/a	n/a	n/a	n/a	n/a	15	4	5	6	n/a	n/a	n/a	n/a	n/a
1130.224	n/a	PROB	565112	n/a	LTP125	ltpFR	7	n/a	n/a	n/a	n/a	n/a	n/a	12	1	2	9	n/a	n/a	n/a	n/a	n/a
1133.818	n/a	STOP	566909	n/a	LTP125	ltpFR	7	n/a	n/a	n/a	n/a	n/a	n/a	n/a	n/a	n/a	n/a	n/a	n/a	n/a	n/a	n/a
1134.69	n/a	WORD	567345	wordpools/wasnorm_wordpool.txt	LTP125	ltpFR	7	2	1	SQUID	1361	n/a	1	n/a	0	0	0	1	0.412841796875	0.57763671875	upper	../fonts/zerothre.ttf
1137.696	n/a	START	568848	n/a	LTP125	ltpFR	7	n/a	n/a	n/a	n/a	n/a	n/a	n/a	n/a	n/a	n/a	n/a	n/a	n/a	n/a	n/a
1138.83	n/a	PROB	569415	n/a	LTP125	ltpFR	7	n/a	n/a	n/a	n/a	n/a	n/a	17	4	6	7	n/a	n/a	n/a	n/a	n/a
1141.528	n/a	PROB	570764	n/a	LTP125	ltpFR	7	n/a	n/a	n/a	n/a	n/a	n/a	12	6	1	5	n/a	n/a	n/a	n/a	n/a
1142.994	n/a	PROB	571497	n/a	LTP125	ltpFR	7	n/a	n/a	n/a	n/a	n/a	n/a	15	3	4	8	n/a	n/a	n/a	n/a	n/a
1144.776	n/a	STOP	572388	n/a	LTP125	ltpFR	7	n/a	n/a	n/a	n/a	n/a	n/a	n/a	n/a	n/a	n/a	n/a	n/a	n/a	n/a	n/a
1146.636	n/a	WORD	573318	wordpools/wasnorm_wordpool.txt	LTP125	ltpFR	7	2	1	PRINCESS	1125	n/a	1	n/a	0	0	0	1	0.412841796875	0.57763671875	upper	../fonts/zerothre.ttf
1149.644	n/a	START	574822	n/a	LTP125	ltpFR	7	n/a	n/a	n/a	n/a	n/a	n/a	n/a	n/a	n/a	n/a	n/a	n/a	n/a	n/a	n/a
1150.752	n/a	PROB	575376	n/a	LTP125	ltpFR	7	n/a	n/a	n/a	n/a	n/a	n/a	15	2	6	7	n/a	n/a	n/a	n/a	n/a
1152.184	n/a	PROB	576092	n/a	LTP125	ltpFR	7	n/a	n/a	n/a	n/a	n/a	n/a	18	7	4	7	n/a	n/a	n/a	n/a	n/a
1157.644	n/a	STOP	578822	n/a	LTP125	ltpFR	7	n/a	n/a	n/a	n/a	n/a	n/a	n/a	n/a	n/a	n/a	n/a	n/a	n/a	n/a	n/a
1158.598	n/a	WORD	579299	wordpools/wasnorm_wordpool.txt	LTP125	ltpFR	7	2	1	TOAD	1470	n/a	1	n/a	0	0	0	1	0.412841796875	0.57763671875	upper	../fonts/zerothre.ttf
1161.606	n/a	START	580803	n/a	LTP125	ltpFR	7	n/a	n/a	n/a	n/a	n/a	n/a	n/a	n/a	n/a	n/a	n/a	n/a	n/a	n/a	n/a
1162.414	n/a	PROB	581207	n/a	LTP125	ltpFR	7	n/a	n/a	n/a	n/a	n/a	n/a	19	8	5	6	n/a	n/a	n/a	n/a	n/a
1164.364	n/a	PROB	582182	n/a	LTP125	ltpFR	7	n/a	n/a	n/a	n/a	n/a	n/a	26	9	8	9	n/a	n/a	n/a	n/a	n/a
1168.826	n/a	STOP	584413	n/a	LTP125	ltpFR	7	n/a	n/a	n/a	n/a	n/a	n/a	n/a	n/a	n/a	n/a	n/a	n/a	n/a	n/a	n/a
1170.612	n/a	WORD	585306	wordpools/wasnorm_wordpool.txt	LTP125	ltpFR	7	2	1	BACKBONE	66	n/a	0	n/a	0	0	0	1	0.412841796875	0.57763671875	upper	../fonts/zerothre.ttf
1173.62	n/a	START	586810	n/a	LTP125	ltpFR	7	n/a	n/a	n/a	n/a	n/a	n/a	n/a	n/a	n/a	n/a	n/a	n/a	n/a	n/a	n/a
1174.568	n/a	PROB	587284	n/a	LTP125	ltpFR	7	n/a	n/a	n/a	n/a	n/a	n/a	20	8	8	4	n/a	n/a	n/a	n/a	n/a
1176.702	n/a	PROB	588351	n/a	LTP125	ltpFR	7	n/a	n/a	n/a	n/a	n/a	n/a	12	9	2	1	n/a	n/a	n/a	n/a	n/a
1178.326	n/a	PROB	589163	n/a	LTP125	ltpFR	7	n/a	n/a	n/a	n/a	n/a	n/a	9	1	4	4	n/a	n/a	n/a	n/a	n/a
1179.8	n/a	PROB	589900	n/a	LTP125	ltpFR	7	n/a	n/a	n/a	n/a	n/a	n/a	8	2	2	4	n/a	n/a	n/a	n/a	n/a
1181.37	n/a	STOP	590685	n/a	LTP125	ltpFR	7	n/a	n/a	n/a	n/a	n/a	n/a	n/a	n/a	n/a	n/a	n/a	n/a	n/a	n/a	n/a
1182.7	n/a	WORD	591350	wordpools/wasnorm_wordpool.txt	LTP125	ltpFR	7	2	1	VOLUNTEER	1577	n/a	1	n/a	0	0	0	1	0.412841796875	0.57763671875	upper	../fonts/zerothre.ttf
1185.708	n/a	START	592854	n/a	LTP125	ltpFR	7	n/a	n/a	n/a	n/a	n/a	n/a	n/a	n/a	n/a	n/a	n/a	n/a	n/a	n/a	n/a
1186.766	n/a	PROB	593383	n/a	LTP125	ltpFR	7	n/a	n/a	n/a	n/a	n/a	n/a	9	3	5	1	n/a	n/a	n/a	n/a	n/a
1189.264	n/a	PROB	594632	n/a	LTP125	ltpFR	7	n/a	n/a	n/a	n/a	n/a	n/a	7	4	1	2	n/a	n/a	n/a	n/a	n/a
1191.032	n/a	PROB	595516	n/a	LTP125	ltpFR	7	n/a	n/a	n/a	n/a	n/a	n/a	8	3	1	4	n/a	n/a	n/a	n/a	n/a
1192.388	n/a	STOP	596194	n/a	LTP125	ltpFR	7	n/a	n/a	n/a	n/a	n/a	n/a	n/a	n/a	n/a	n/a	n/a	n/a	n/a	n/a	n/a
1194.622	n/a	WORD	597311	wordpools/wasnorm_wordpool.txt	LTP125	ltpFR	7	2	1	PIGEON	1065	n/a	1	n/a	0	0	0	1	0.412841796875	0.57763671875	upper	../fonts/zerothre.ttf
1197.628	n/a	START	598814	n/a	LTP125	ltpFR	7	n/a	n/a	n/a	n/a	n/a	n/a	n/a	n/a	n/a	n/a	n/a	n/a	n/a	n/a	n/a
1198.62	n/a	PROB	599310	n/a	LTP125	ltpFR	7	n/a	n/a	n/a	n/a	n/a	n/a	10	8	2	4	n/a	n/a	n/a	n/a	n/a
1201.552	n/a	PROB	600776	n/a	LTP125	ltpFR	7	n/a	n/a	n/a	n/a	n/a	n/a	19	6	7	6	n/a	n/a	n/a	n/a	n/a
1203.678	n/a	PROB	601839	n/a	LTP125	ltpFR	7	n/a	n/a	n/a	n/a	n/a	n/a	15	1	5	9	n/a	n/a	n/a	n/a	n/a
1205.116	n/a	STOP	602558	n/a	LTP125	ltpFR	7	n/a	n/a	n/a	n/a	n/a	n/a	n/a	n/a	n/a	n/a	n/a	n/a	n/a	n/a	n/a
1206.468	n/a	WORD	603234	wordpools/wasnorm_wordpool.txt	LTP125	ltpFR	7	2	1	BIRD	129	n/a	1	n/a	0	0	0	1	0.412841796875	0.57763671875	upper	../fonts/zerothre.ttf
1209.476	n/a	START	604738	n/a	LTP125	ltpFR	7	n/a	n/a	n/a	n/a	n/a	n/a	n/a	n/a	n/a	n/a	n/a	n/a	n/a	n/a	n/a
1210.308	n/a	PROB	605154	n/a	LTP125	ltpFR	7	n/a	n/a	n/a	n/a	n/a	n/a	23	7	9	7	n/a	n/a	n/a	n/a	n/a
1215.224	n/a	PROB	607612	n/a	LTP125	ltpFR	7	n/a	n/a	n/a	n/a	n/a	n/a	17	4	8	5	n/a	n/a	n/a	n/a	n/a
1217.164	n/a	STOP	608582	n/a	LTP125	ltpFR	7	n/a	n/a	n/a	n/a	n/a	n/a	n/a	n/a	n/a	n/a	n/a	n/a	n/a	n/a	n/a
1219.348	n/a	REC_START	609674	n/a	LTP125	ltpFR	7	2	n/a	n/a	n/a	n/a	n/a	n/a	0	0	0	n/a	n/a	n/a	n/a	n/a
1220.938	n/a	REC_WORD	610469	wordpools/wasnorm_wordpool.txt	LTP125	ltpFR	7	2	1	PONY	1102	n/a	1	n/a	0	0	0	n/a	n/a	n/a	n/a	n/a
1221.862	n/a	REC_WORD	610931	wordpools/wasnorm_wordpool.txt	LTP125	ltpFR	7	2	1	TOAD	1470	n/a	1	n/a	0	0	0	n/a	n/a	n/a	n/a	n/a
1222.81	n/a	REC_WORD	611405	wordpools/wasnorm_wordpool.txt	LTP125	ltpFR	7	2	1	CRAB	397	n/a	1	n/a	0	0	0	n/a	n/a	n/a	n/a	n/a
1224.008	n/a	REC_WORD	612004	wordpools/wasnorm_wordpool.txt	LTP125	ltpFR	7	2	1	PRINCESS	1125	n/a	1	n/a	0	0	0	n/a	n/a	n/a	n/a	n/a
1225.434	n/a	REC_WORD	612717	wordpools/wasnorm_wordpool.txt	LTP125	ltpFR	7	2	1	HEAD	695	n/a	0	n/a	0	0	0	n/a	n/a	n/a	n/a	n/a
1226.376	n/a	REC_WORD	613188	wordpools/wasnorm_wordpool.txt	LTP125	ltpFR	7	2	1	SOCK	1339	n/a	0	n/a	0	0	0	n/a	n/a	n/a	n/a	n/a
1227.838	n/a	REC_WORD	613919	wordpools/wasnorm_wordpool.txt	LTP125	ltpFR	7	2	1	OFFICE	972	n/a	0	n/a	0	0	0	n/a	n/a	n/a	n/a	n/a
1229.016	n/a	REC_WORD	614508	wordpools/wasnorm_wordpool.txt	LTP125	ltpFR	7	2	1	CHAMBER	277	n/a	0	n/a	0	0	0	n/a	n/a	n/a	n/a	n/a
1317.326	n/a	WORD	658663	wordpools/wasnorm_wordpool.txt	LTP125	ltpFR	7	3	1	MECHANIC	884	n/a	1	n/a	0	0	0	1	0.412841796875	0.57763671875	upper	../fonts/zerothre.ttf
1321.158	n/a	WORD	660579	wordpools/wasnorm_wordpool.txt	LTP125	ltpFR	7	3	1	VAN	1548	n/a	0	n/a	0	0	0	1	0.412841796875	0.57763671875	upper	../fonts/zerothre.ttf
1325.324	n/a	WORD	662662	wordpools/wasnorm_wordpool.txt	LTP125	ltpFR	7	3	1	COLT	349	n/a	1	n/a	0	0	0	1	0.412841796875	0.57763671875	upper	../fonts/zerothre.ttf
1329.448	n/a	WORD	664724	wordpools/wasnorm_wordpool.txt	LTP125	ltpFR	7	3	1	PROTON	1132	n/a	0	n/a	0	0	0	1	0.412841796875	0.57763671875	upper	../fonts/zerothre.ttf
1333.304	n/a	WORD	666652	wordpools/wasnorm_wordpool.txt	LTP125	ltpFR	7	3	1	DOLPHIN	483	n/a	1	n/a	0	0	0	1	0.412841796875	0.57763671875	upper	../fonts/zerothre.ttf
1337.27	n/a	WORD	668635	wordpools/wasnorm_wordpool.txt	LTP125	ltpFR	7	3	1	BRANDY	169	n/a	0	n/a	0	0	0	1	0.412841796875	0.57763671875	upper	../fonts/zerothre.ttf
1341.26	n/a	WORD	670630	wordpools/wasnorm_wordpool.txt	LTP125	ltpFR	7	3	1	OATS	968	n/a	0	n/a	0	0	0	1	0.412841796875	0.57763671875	upper	../fonts/zerothre.ttf
1345.392	n/a	WORD	672696	wordpools/wasnorm_wordpool.txt	LTP125	ltpFR	7	3	1	DIVER	476	n/a	1	n/a	0	0	0	1	0.412841796875	0.57763671875	upper	../fonts/zerothre.ttf
1349.45	n/a	WORD	674725	wordpools/wasnorm_wordpool.txt	LTP125	ltpFR	7	3	1	SALAD	1224	n/a	0	n/a	0	0	0	1	0.412841796875	0.57763671875	upper	../fonts/zerothre.ttf
1353.322	n/a	WORD	676661	wordpools/wasnorm_wordpool.txt	LTP125	ltpFR	7	3	1	BLACKBERRY	132	n/a	0	n/a	0	0	0	1	0.412841796875	0.57763671875	upper	../fonts/zerothre.ttf
1357.198	n/a	WORD	678599	wordpools/wasnorm_wordpool.txt	LTP125	ltpFR	7	3	1	CLIPPERS	324	n/a	0	n/a	0	0	0	1	0.412841796875	0.57763671875	upper	../fonts/zerothre.ttf
1361.162	n/a	WORD	680581	wordpools/wasnorm_wordpool.txt	LTP125	ltpFR	7	3	1	WINE	1613	n/a	0	n/a	0	0	0	1	0.412841796875	0.57763671875	upper	../fonts/zerothre.ttf
1364.994	n/a	WORD	682497	wordpools/wasnorm_wordpool.txt	LTP125	ltpFR	7	3	1	PUMP	1141	n/a	0	n/a	0	0	0	1	0.412841796875	0.57763671875	upper	../fonts/zerothre.ttf
1369.06	n/a	WORD	684530	wordpools/wasnorm_wordpool.txt	LTP125	ltpFR	7	3	1	INVENTOR	743	n/a	1	n/a	0	0	0	1	0.412841796875	0.57763671875	upper	../fonts/zerothre.ttf
1373.142	n/a	WORD	686571	wordpools/wasnorm_wordpool.txt	LTP125	ltpFR	7	3	1	FREEWAY	603	n/a	0	n/a	0	0	0	1	0.412841796875	0.57763671875	upper	../fonts/zerothre.ttf
1376.992	n/a	WORD	688496	wordpools/wasnorm_wordpool.txt	LTP125	ltpFR	7	3	1	PISTON	1076	n/a	0	n/a	0	0	0	1	0.412841796875	0.57763671875	upper	../fonts/zerothre.ttf
1380.0	n/a	START	690000	n/a	LTP125	ltpFR	7	n/a	n/a	n/a	n/a	n/a	n/a	n/a	n/a	n/a	n/a	n/a	n/a	n/a	n/a	n/a
1381.124	n/a	PROB	690562	n/a	LTP125	ltpFR	7	n/a	n/a	n/a	n/a	n/a	n/a	11	1	3	7	n/a	n/a	n/a	n/a	n/a
1382.69	n/a	PROB	691345	n/a	LTP125	ltpFR	7	n/a	n/a	n/a	n/a	n/a	n/a	14	2	7	5	n/a	n/a	n/a	n/a	n/a
1384.34	n/a	PROB	692170	n/a	LTP125	ltpFR	7	n/a	n/a	n/a	n/a	n/a	n/a	19	8	2	9	n/a	n/a	n/a	n/a	n/a
1388.0	n/a	STOP	694000	n/a	LTP125	ltpFR	7	n/a	n/a	n/a	n/a	n/a	n/a	n/a	n/a	n/a	n/a	n/a	n/a	n/a	n/a	n/a
1389.854	n/a	REC_START	694927	n/a	LTP125	ltpFR	7	3	n/a	n/a	n/a	n/a	n/a	n/a	0	0	0	n/a	n/a	n/a	n/a	n/a
1390.548	n/a	REC_WORD	695274	wordpools/wasnorm_wordpool.txt	LTP125	ltpFR	7	3	1	MECHANIC	884	n/a	1	n/a	0	0	0	n/a	n/a	n/a	n/a	n/a
1391.63	n/a	REC_WORD	695815	wordpools/wasnorm_wordpool.txt	LTP125	ltpFR	7	3	1	VAN	1548	n/a	0	n/a	0	0	0	n/a	n/a	n/a	n/a	n/a
1392.818	n/a	REC_WORD	696409	wordpools/wasnorm_wordpool.txt	LTP125	ltpFR	7	3	1	COLT	349	n/a	1	n/a	0	0	0	n/a	n/a	n/a	n/a	n/a
1394.096	n/a	REC_WORD	697048	wordpools/wasnorm_wordpool.txt	LTP125	ltpFR	7	3	1	OATS	968	n/a	0	n/a	0	0	0	n/a	n/a	n/a	n/a	n/a
1395.558	n/a	REC_WORD	697779	wordpools/wasnorm_wordpool.txt	LTP125	ltpFR	7	3	1	BRANDY	169	n/a	0	n/a	0	0	0	n/a	n/a	n/a	n/a	n/a
1396.74	n/a	REC_WORD	698370	wordpools/wasnorm_wordpool.txt	LTP125	ltpFR	7	3	1	BLACKBERRY	132	n/a	0	n/a	0	0	0	n/a	n/a	n/a	n/a	n/a
1398.062	n/a	REC_WORD	699031	wordpools/wasnorm_wordpool.txt	LTP125	ltpFR	7	3	1	PISTON	1076	n/a	0	n/a	0	0	0	n/a	n/a	n/a	n/a	n/a
1418.212	n/a	REC_WORD	709106	wordpools/wasnorm_wordpool.txt	LTP125	ltpFR	7	3	1	SALAD	1224	n/a	0	n/a	0	0	0	n/a	n/a	n/a	n/a	n/a
1431.836	n/a	REC_WORD	715918	wordpools/wasnorm_wordpool.txt	LTP125	ltpFR	7	3	1	WINE	1613	n/a	0	n/a	0	0	0	n/a	n/a	n/a	n/a	n/a
1468.914	n/a	WORD	734457	wordpools/wasnorm_wordpool.txt	LTP125	ltpFR	7	4	0	CAKE	219	n/a	1	n/a	0	0	0	0	0.5869140625	0.422607421875	lower	../fonts/amplitud.ttf
1472.946	n/a	WORD	736473	wordpools/wasnorm_wordpool.txt	LTP125	ltpFR	7	4	0	CAT	257	n/a	1	n/a	0	0	0	0	0.5869140625	0.422607421875	lower	../fonts/amplitud.ttf
1476.778	n/a	WORD	738389	wordpools/wasnorm_wordpool.txt	LTP125	ltpFR	7	4	0	SPACE	1345	n/a	0	n/a	0	0	0	0	0.5869140625	0.422607421875	lower	../fonts/amplitud.ttf
1480.794	n/a	WORD	740397	wordpools/wasnorm_wordpool.txt	LTP125	ltpFR	7	4	0	ELEVATOR	524	n/a	1	n/a	0	0	0	0	0.5869140625	0.422607421875	lower	../fonts/amplitud.ttf
1484.866	n/a	WORD	742433	wordpools/wasnorm_wordpool.txt	LTP125	ltpFR	7	4	0	PAW	1029	n/a	1	n/a	0	0	0	0	0.5869140625	0.422607421875	lower	../fonts/amplitud.ttf
1488.774	n/a	WORD	744387	wordpools/wasnorm_wordpool.txt	LTP125	ltpFR	7	4	0	WAREHOUSE	1588	n/a	0	n/a	0	0	0	0	0.5869140625	0.422607421875	lower	../fonts/amplitud.ttf
1492.956	n/a	WORD	746478	wordpools/wasnorm_wordpool.txt	LTP125	ltpFR	7	4	0	CORN	381	n/a	0	n/a	0	0	0	0	0.5869140625	0.422607421875	lower	../fonts/amplitud.ttf
1497.114	n/a	WORD	748557	wordpools/wasnorm_wordpool.txt	LTP125	ltpFR	7	4	0	BIBLE	124	n/a	0	n/a	0	0	0	0	0.5869140625	0.422607421875	lower	../fonts/amplitud.ttf
1501.078	n/a	WORD	750539	wordpools/wasnorm_wordpool.txt	LTP125	ltpFR	7	4	0	BOOK	149	n/a	0	n/a	0	0	0	0	0.5869140625	0.422607421875	lower	../fonts/amplitud.ttf
1505.102	n/a	WORD	752551	wordpools/wasnorm_wordpool.txt	LTP125	ltpFR	7	4	0	CONCRETE	361	n/a	1	n/a	0	0	0	0	0.5869140625	0.422607421875	lower	../fonts/amplitud.ttf
1509.144	n/a	WORD	754572	wordpools/wasnorm_wordpool.txt	LTP125	ltpFR	7	4	0	SIDEWALK	1303	n/a	1	n/a	0	0	0	0	0.5869140625	0.422607421875	lower	../fonts/amplitud.ttf
1513.118	n/a	WORD	756559	wordpools/wasnorm_wordpool.txt	LTP125	ltpFR	7	4	0	CONCERT	360	n/a	1	n/a	0	0	0	0	0.5869140625	0.422607421875	lower	../fonts/amplitud.ttf
1516.958	n/a	WORD	758479	wordpools/wasnorm_wordpool.txt	LTP125	ltpFR	7	4	0	FIDDLE	561	n/a	1	n/a	0	0	0	0	0.5869140625	0.422607421875	lower	../fonts/amplitud.ttf
1520.964	n/a	WORD	760482	wordpools/wasnorm_wordpool.txt	LTP125	ltpFR	7	4	0	RECIPE	1175	n/a	0	n/a	0	0	0	0	0.5869140625	0.422607421875	lower	../fonts/amplitud.ttf
1525.096	n/a	WORD	762548	wordpools/wasnorm_wordpool.txt	LTP125	ltpFR	7	4	0	SNEAKER	1334	n/a	0	n/a	0	0	0	0	0.5869140625	0.422607421875	lower	../fonts/amplitud.ttf
1529.112	n/a	WORD	764556	wordpools/wasnorm_wordpool.txt	LTP125	ltpFR	7	4	0	FRIES	607	n/a	0	n/a	0	0	0	0	0.5869140625	0.422607421875	lower	../fonts/amplitud.ttf
1532.12	n/a	START	766060	n/a	LTP125	ltpFR	7	n/a	n/a	n/a	n/a	n/a	n/a	n/a	n/a	n/a	n/a	n/a	n/a	n/a	n/a	n/a
1533.212	n/a	PROB	766606	n/a	LTP125	ltpFR	7	n/a	n/a	n/a	n/a	n/a	n/a	9	4	2	3	n/a	n/a	n/a	n/a	n/a
1536.118	n/a	PROB	768059	n/a	LTP125	ltpFR	7	n/a	n/a	n/a	n/a	n/a	n/a	10	6	3	1	n/a	n/a	n/a	n/a	n/a
1537.71	n/a	PROB	768855	n/a	LTP125	ltpFR	7	n/a	n/a	n/a	n/a	n/a	n/a	16	7	7	2	n/a	n/a	n/a	n/a	n/a
1539.494	n/a	STOP	769747	n/a	LTP125	ltpFR	7	n/a	n/a	n/a	n/a	n/a	n/a	n/a	n/a	n/a	n/a	n/a	n/a	n/a	n/a	n/a
1541.884	n/a	REC_START	770942	n/a	LTP125	ltpFR	7	4	n/a	n/a	n/a	n/a	n/a	n/a	0	0	0	n/a	n/a	n/a	n/a	n/a
1542.94	n/a	REC_WORD	771470	wordpools/wasnorm_wordpool.txt	LTP125	ltpFR	7	4	0	CAKE	219	n/a	1	n/a	0	0	0	n/a	n/a	n/a	n/a	n/a
1543.944	n/a	REC_WORD	771972	wordpools/wasnorm_wordpool.txt	LTP125	ltpFR	7	4	0	CAT	257	n/a	1	n/a	0	0	0	n/a	n/a	n/a	n/a	n/a
1544.92	n/a	REC_WORD	772460	wordpools/wasnorm_wordpool.txt	LTP125	ltpFR	7	4	0	FIDDLE	561	n/a	1	n/a	0	0	0	n/a	n/a	n/a	n/a	n/a
1545.914	n/a	REC_WORD	772957	wordpools/wasnorm_wordpool.txt	LTP125	ltpFR	7	4	0	SPACE	1345	n/a	0	n/a	0	0	0	n/a	n/a	n/a	n/a	n/a
1547.386	n/a	REC_WORD	773693	wordpools/wasnorm_wordpool.txt	LTP125	ltpFR	7	4	0	BIBLE	124	n/a	0	n/a	0	0	0	n/a	n/a	n/a	n/a	n/a
1548.514	n/a	REC_WORD	774257	wordpools/wasnorm_wordpool.txt	LTP125	ltpFR	7	4	0	BOOK	149	n/a	0	n/a	0	0	0	n/a	n/a	n/a	n/a	n/a
1556.326	n/a	REC_WORD	778163	wordpools/wasnorm_wordpool.txt	LTP125	ltpFR	7	4	0	CONCRETE	361	n/a	1	n/a	0	0	0	n/a	n/a	n/a	n/a	n/a
1557.414	n/a	REC_WORD	778707	wordpools/wasnorm_wordpool.txt	LTP125	ltpFR	7	4	0	SIDEWALK	1303	n/a	1	n/a	0	0	0	n/a	n/a	n/a	n/a	n/a
1579.53	n/a	REC_WORD	789765	wordpools/wasnorm_wordpool.txt	LTP125	ltpFR	7	4	0	SNEAKER	1334	n/a	0	n/a	0	0	0	n/a	n/a	n/a	n/a	n/a
1595.056	n/a	REC_WORD	797528	wordpools/wasnorm_wordpool.txt	LTP125	ltpFR	7	4	0	PAW	1029	n/a	1	n/a	0	0	0	n/a	n/a	n/a	n/a	n/a
1601.766	n/a	REC_WORD	800883	wordpools/wasnorm_wordpool.txt	LTP125	ltpFR	7	4	0	CONCERT	360	n/a	1	n/a	0	0	0	n/a	n/a	n/a	n/a	n/a
1640.828	n/a	WORD	820414	wordpools/wasnorm_wordpool.txt	LTP125	ltpFR	7	5	0	CABOOSE	214	n/a	1	n/a	0	0	0	0	0.5869140625	0.422607421875	lower	../fonts/amplitud.ttf
1644.87	n/a	WORD	822435	wordpools/wasnorm_wordpool.txt	LTP125	ltpFR	7	5	0	LASH	802	n/a	0	n/a	0	0	0	0	0.5869140625	0.422607421875	lower	../fonts/amplitud.ttf
1648.844	n/a	WORD	824422	wordpools/wasnorm_wordpool.txt	LTP125	ltpFR	7	5	0	EYE	545	n/a	0	n/a	0	0	0	0	0.5869140625	0.422607421875	lower	../fonts/amplitud.ttf
1652.95	n/a	WORD	826475	wordpools/wasnorm_wordpool.txt	LTP125	ltpFR	7	5	0	SPHINX	1349	n/a	1	n/a	0	0	0	0	0.5869140625	0.422607421875	lower	../fonts/amplitud.ttf
1657.066	n/a	WORD	828533	wordpools/wasnorm_wordpool.txt	LTP125	ltpFR	7	5	0	SUBWAY	1400	n/a	1	n/a	0	0	0	0	0.5869140625	0.422607421875	lower	../fonts/amplitud.ttf
1660.948	n/a	WORD	830474	wordpools/wasnorm_wordpool.txt	LTP125	ltpFR	7	5	0	FENCE	560	n/a	1	n/a	0	0	0	0	0.5869140625	0.422607421875	lower	../fonts/amplitud.ttf
1665.072	n/a	WORD	832536	wordpools/wasnorm_wordpool.txt	LTP125	ltpFR	7	5	0	WHEEL	1603	n/a	1	n/a	0	0	0	0	0.5869140625	0.422607421875	lower	../fonts/amplitud.ttf
1669.104	n/a	WORD	834552	wordpools/wasnorm_wordpool.txt	LTP125	ltpFR	7	5	0	BATTERY	101	n/a	0	n/a	0	0	0	0	0.5869140625	0.422607421875	lower	../fonts/amplitud.ttf
1673.186	n/a	WORD	836593	wordpools/wasnorm_wordpool.txt	LTP125	ltpFR	7	5	0	PIT	1077	n/a	1	n/a	0	0	0	0	0.5869140625	0.422607421875	lower	../fonts/amplitud.ttf
1677.384	n/a	WORD	838692	wordpools/wasnorm_wordpool.txt	LTP125	ltpFR	7	5	0	ANTLER	29	n/a	1	n/a	0	0	0	0	0.5869140625	0.422607421875	lower	../fonts/amplitud.ttf
1681.226	n/a	WORD	840613	wordpools/wasnorm_wordpool.txt	LTP125	ltpFR	7	5	0	KEG	770	n/a	1	n/a	0	0	0	0	0.5869140625	0.422607421875	lower	../fonts/amplitud.ttf
1685.248	n/a	WORD	842624	wordpools/wasnorm_wordpool.txt	LTP125	ltpFR	7	5	0	ASH	44	n/a	0	n/a	0	0	0	0	0.5869140625	0.422607421875	lower	../fonts/amplitud.ttf
1689.43	n/a	WORD	844715	wordpools/wasnorm_wordpool.txt	LTP125	ltpFR	7	5	0	SPRINKLE	1359	n/a	0	n/a	0	0	0	0	0.5869140625	0.422607421875	lower	../fonts/amplitud.ttf
1693.488	n/a	WORD	846744	wordpools/wasnorm_wordpool.txt	LTP125	ltpFR	7	5	0	SPIT	1354	n/a	0	n/a	0	0	0	0	0.5869140625	0.422607421875	lower	../fonts/amplitud.ttf
1697.686	n/a	WORD	848843	wordpools/wasnorm_wordpool.txt	LTP125	ltpFR	7	5	0	HOOK	715	n/a	0	n/a	0	0	0	0	0.5869140625	0.422607421875	lower	../fonts/amplitud.ttf
1701.644	n/a	WORD	850822	wordpools/wasnorm_wordpool.txt	LTP125	ltpFR	7	5	0	FIREMAN	569	n/a	1	n/a	0	0	0	0	0.5869140625	0.422607421875	lower	../fonts/amplitud.ttf
1704.652	n/a	START	852326	n/a	LTP125	ltpFR	7	n/a	n/a	n/a	n/a	n/a	n/a	n/a	n/a	n/a	n/a	n/a	n/a	n/a	n/a	n/a
1705.826	n/a	PROB	852913	n/a	LTP125	ltpFR	7	n/a	n/a	n/a	n/a	n/a	n/a	10	4	2	4	n/a	n/a	n/a	n/a	n/a
1708.316	n/a	PROB	854158	n/a	LTP125	ltpFR	7	n/a	n/a	n/a	n/a	n/a	n/a	12	2	1	9	n/a	n/a	n/a	n/a	n/a
1709.808	n/a	PROB	854904	n/a	LTP125	ltpFR	7	n/a	n/a	n/a	n/a	n/a	n/a	17	7	8	2	n/a	n/a	n/a	n/a	n/a
1711.326	n/a	STOP	855663	n/a	LTP125	ltpFR	7	n/a	n/a	n/a	n/a	n/a	n/a	n/a	n/a	n/a	n/a	n/a	n/a	n/a	n/a	n/a
1714.506	n/a	REC_START	857253	n/a	LTP125	ltpFR	7	5	n/a	n/a	n/a	n/a	n/a	n/a	0	0	0	n/a	n/a	n/a	n/a	n/a
1715.374	n/a	REC_WORD	857687	wordpools/wasnorm_wordpool.txt	LTP125	ltpFR	7	5	0	KEG	770	n/a	1	n/a	0	0	0	n/a	n/a	n/a	n/a	n/a
1716.722	n/a	REC_WORD	858361	wordpools/wasnorm_wordpool.txt	LTP125	ltpFR	7	5	0	ASH	44	n/a	0	n/a	0	0	0	n/a	n/a	n/a	n/a	n/a
1718.108	n/a	REC_WORD	859054	wordpools/wasnorm_wordpool.txt	LTP125	ltpFR	7	5	0	HOOK	715	n/a	0	n/a	0	0	0	n/a	n/a	n/a	n/a	n/a
1719.61	n/a	REC_WORD	859805	wordpools/wasnorm_wordpool.txt	LTP125	ltpFR	7	5	0	EYE	545	n/a	0	n/a	0	0	0	n/a	n/a	n/a	n/a	n/a
1720.952	n/a	REC_WORD	860476	wordpools/wasnorm_wordpool.txt	LTP125	ltpFR	7	5	0	LASH	802	n/a	0	n/a	0	0	0	n/a	n/a	n/a	n/a	n/a
1793.974	n/a	START	896987	n/a	LTP125	ltpFR	7	n/a	n/a	n/a	n/a	n/a	n/a	n/a	n/a	n/a	n/a	n/a	n/a	n/a	n/a	n/a
1795.49	n/a	PROB	897745	n/a	LTP125	ltpFR	7	n/a	n/a	n/a	n/a	n/a	n/a	16	8	3	5	n/a	n/a	n/a	n/a	n/a
1797.882	n/a	PROB	898941	n/a	LTP125	ltpFR	7	n/a	n/a	n/a	n/a	n/a	n/a	15	7	1	7	n/a	n/a	n/a	n/a	n/a
1799.182	n/a	PROB	899591	n/a	LTP125	ltpFR	7	n/a	n/a	n/a	n/a	n/a	n/a	17	9	6	1	n/a	n/a	n/a	n/a	n/a
1801.02	n/a	STOP	900510	n/a	LTP125	ltpFR	7	n/a	n/a	n/a	n/a	n/a	n/a	n/a	n/a	n/a	n/a	n/a	n/a	n/a	n/a	n/a
1802.88	n/a	WORD	901440	wordpools/wasnorm_wordpool.txt	LTP125	ltpFR	7	6	0	SUNRISE	1407	n/a	1	n/a	0	0	0	0	0.5869140625	0.422607421875	lower	../fonts/amplitud.ttf
1805.888	n/a	START	902944	n/a	LTP125	ltpFR	7	n/a	n/a	n/a	n/a	n/a	n/a	n/a	n/a	n/a	n/a	n/a	n/a	n/a	n/a	n/a
1806.896	n/a	PROB	903448	n/a	LTP125	ltpFR	7	n/a	n/a	n/a	n/a	n/a	n/a	13	3	9	1	n/a	n/a	n/a	n/a	n/a
1809.202	n/a	PROB	904601	n/a	LTP125	ltpFR	7	n/a	n/a	n/a	n/a	n/a	n/a	15	8	6	1	n/a	n/a	n/a	n/a	n/a
1813.888	n/a	STOP	906944	n/a	LTP125	ltpFR	7	n/a	n/a	n/a	n/a	n/a	n/a	n/a	n/a	n/a	n/a	n/a	n/a	n/a	n/a	n/a
1815.092	n/a	WORD	907546	wordpools/wasnorm_wordpool.txt	LTP125	ltpFR	7	6	0	WORKER	1621	n/a	1	n/a	0	0	0	0	0.5869140625	0.422607421875	lower	../fonts/amplitud.ttf
1818.1	n/a	START	909050	n/a	LTP125	ltpFR	7	n/a	n/a	n/a	n/a	n/a	n/a	n/a	n/a	n/a	n/a	n/a	n/a	n/a	n/a	n/a
1819.0	n/a	PROB	909500	n/a	LTP125	ltpFR	7	n/a	n/a	n/a	n/a	n/a	n/a	17	4	7	6	n/a	n/a	n/a	n/a	n/a
1820.732	n/a	PROB	910366	n/a	LTP125	ltpFR	7	n/a	n/a	n/a	n/a	n/a	n/a	14	6	6	4	n/a	n/a	n/a	n/a	n/a
1821.9	n/a	PROB	910950	n/a	LTP125	ltpFR	7	n/a	n/a	n/a	n/a	n/a	n/a	17	4	5	8	n/a	n/a	n/a	n/a	n/a
1824.124	n/a	PROB	912062	n/a	LTP125	ltpFR	7	n/a	n/a	n/a	n/a	n/a	n/a	16	3	6	7	n/a	n/a	n/a	n/a	n/a
1825.684	n/a	STOP	912842	n/a	LTP125	ltpFR	7	n/a	n/a	n/a	n/a	n/a	n/a	n/a	n/a	n/a	n/a	n/a	n/a	n/a	n/a	n/a
1827.03	n/a	WORD	913515	wordpools/wasnorm_wordpool.txt	LTP125	ltpFR	7	6	0	CRUTCH	417	n/a	0	n/a	0	0	0	0	0.5869140625	0.422607421875	lower	../fonts/amplitud.ttf
1830.04	n/a	START	915020	n/a	LTP125	ltpFR	7	n/a	n/a	n/a	n/a	n/a	n/a	n/a	n/a	n/a	n/a	n/a	n/a	n/a	n/a	n/a
1830.854	n/a	PROB	915427	n/a	LTP125	ltpFR	7	n/a	n/a	n/a	n/a	n/a	n/a	15	7	5	3	n/a	n/a	n/a	n/a	n/a
1832.854	n/a	PROB	916427	n/a	LTP125	ltpFR	7	n/a	n/a	n/a	n/a	n/a	n/a	16	1	9	6	n/a	n/a	n/a	n/a	n/a
1834.294	n/a	PROB	917147	n/a	LTP125	ltpFR	7	n/a	n/a	n/a	n/a	n/a	n/a	11	1	8	2	n/a	n/a	n/a	n/a	n/a
1838.04	n/a	STOP	919020	n/a	LTP125	ltpFR	7	n/a	n/a	n/a	n/a	n/a	n/a	n/a	n/a	n/a	n/a	n/a	n/a	n/a	n/a	n/a
1839.02	n/a	WORD	919510	wordpools/wasnorm_wordpool.txt	LTP125	ltpFR	7	6	0	ROBE	1198	n/a	1	n/a	0	0	0	0	0.5869140625	0.422607421875	lower	../fonts/amplitud.ttf
1842.026	n/a	START	921013	n/a	LTP125	ltpFR	7	n/a	n/a	n/a	n/a	n/a	n/a	n/a	n/a	n/a	n/a	n/a	n/a	n/a	n/a	n/a
1843.018	n/a	PROB	921509	n/a	LTP125	ltpFR	7	n/a	n/a	n/a	n/a	n/a	n/a	11	8	2	1	n/a	n/a	n/a	n/a	n/a
1845.0	n/a	PROB	922500	n/a	LTP125	ltpFR	7	n/a	n/a	n/a	n/a	n/a	n/a	14	7	5	2	n/a	n/a	n/a	n/a	n/a
1846.4	n/a	PROB	923200	n/a	LTP125	ltpFR	7	n/a	n/a	n/a	n/a	n/a	n/a	13	4	5	4	n/a	n/a	n/a	n/a	n/a
1848.224	n/a	PROB	924112	n/a	LTP125	ltpFR	7	n/a	n/a	n/a	n/a	n/a	n/a	17	6	8	3	n/a	n/a	n/a	n/a	n/a
1849.646	n/a	STOP	924823	n/a	LTP125	ltpFR	7	n/a	n/a	n/a	n/a	n/a	n/a	n/a	n/a	n/a	n/a	n/a	n/a	n/a	n/a	n/a
1851.082	n/a	WORD	925541	wordpools/wasnorm_wordpool.txt	LTP125	ltpFR	7	6	0	MOP	916	n/a	1	n/a	0	0	0	0	0.5869140625	0.422607421875	lower	../fonts/amplitud.ttf
1854.09	n/a	START	927045	n/a	LTP125	ltpFR	7	n/a	n/a	n/a	n/a	n/a	n/a	n/a	n/a	n/a	n/a	n/a	n/a	n/a	n/a	n/a
1855.04	n/a	PROB	927520	n/a	LTP125	ltpFR	7	n/a	n/a	n/a	n/a	n/a	n/a	11	1	1	8	n/a	n/a	n/a	n/a	n/a
1856.298	n/a	PROB	928149	n/a	LTP125	ltpFR	7	n/a	n/a	n/a	n/a	n/a	n/a	13	3	1	9	n/a	n/a	n/a	n/a	n/a
1857.83	n/a	PROB	928915	n/a	LTP125	ltpFR	7	n/a	n/a	n/a	n/a	n/a	n/a	9	2	3	4	n/a	n/a	n/a	n/a	n/a
1859.78	n/a	PROB	929890	n/a	LTP125	ltpFR	7	n/a	n/a	n/a	n/a	n/a	n/a	17	5	4	6	n/a	n/a	n/a	n/a	n/a
1861.478	n/a	STOP	930739	n/a	LTP125	ltpFR	7	n/a	n/a	n/a	n/a	n/a	n/a	n/a	n/a	n/a	n/a	n/a	n/a	n/a	n/a	n/a
1862.954	n/a	WORD	931477	wordpools/wasnorm_wordpool.txt	LTP125	ltpFR	7	6	0	PUDDING	1139	n/a	0	n/a	0	0	0	0	0.5869140625	0.422607421875	lower	../fonts/amplitud.ttf
1865.962	n/a	START	932981	n/a	LTP125	ltpFR	7	n/a	n/a	n/a	n/a	n/a	n/a	n/a	n/a	n/a	n/a	n/a	n/a	n/a	n/a	n/a
1866.81	n/a	PROB	933405	n/a	LTP125	ltpFR	7	n/a	n/a	n/a	n/a	n/a	n/a	12	1	2	9	n/a	n/a	n/a	n/a	n/a
1868.444	n/a	PROB	934222	n/a	LTP125	ltpFR	7	n/a	n/a	n/a	n/a	n/a	n/a	13	7	4	2	n/a	n/a	n/a	n/a	n/a
1870.542	n/a	PROB	935271	n/a	LTP125	ltpFR	7	n/a	n/a	n/a	n/a	n/a	n/a	174	5	7	4	n/a	n/a	n/a	n/a	n/a
1872.142	n/a	PROB	936071	n/a	LTP125	ltpFR	7	n/a	n/a	n/a	n/a	n/a	n/a	11	2	8	1	n/a	n/a	n/a	n/a	n/a
1873.864	n/a	STOP	936932	n/a	LTP125	ltpFR	7	n/a	n/a	n/a	n/a	n/a	n/a	n/a	n/a	n/a	n/a	n/a	n/a	n/a	n/a	n/a
1874.816	n/a	WORD	937408	wordpools/wasnorm_wordpool.txt	LTP125	ltpFR	7	6	0	BLUEBERRY	140	n/a	0	n/a	0	0	0	0	0.5869140625	0.422607421875	lower	../fonts/amplitud.ttf
1877.824	n/a	START	938912	n/a	LTP125	ltpFR	7	n/a	n/a	n/a	n/a	n/a	n/a	n/a	n/a	n/a	n/a	n/a	n/a	n/a	n/a	n/a
1878.74	n/a	PROB	939370	n/a	LTP125	ltpFR	7	n/a	n/a	n/a	n/a	n/a	n/a	14	3	3	8	n/a	n/a	n/a	n/a	n/a
1880.606	n/a	PROB	940303	n/a	LTP125	ltpFR	7	n/a	n/a	n/a	n/a	n/a	n/a	11	5	1	5	n/a	n/a	n/a	n/a	n/a
1881.806	n/a	PROB	940903	n/a	LTP125	ltpFR	7	n/a	n/a	n/a	n/a	n/a	n/a	14	4	6	4	n/a	n/a	n/a	n/a	n/a
1882.88	n/a	PROB	941440	n/a	LTP125	ltpFR	7	n/a	n/a	n/a	n/a	n/a	n/a	12	5	1	6	n/a	n/a	n/a	n/a	n/a
1884.896	n/a	STOP	942448	n/a	LTP125	ltpFR	7	n/a	n/a	n/a	n/a	n/a	n/a	n/a	n/a	n/a	n/a	n/a	n/a	n/a	n/a	n/a
1886.954	n/a	WORD	943477	wordpools/wasnorm_wordpool.txt	LTP125	ltpFR	7	6	0	SCENERY	1247	n/a	1	n/a	0	0	0	0	0.5869140625	0.422607421875	lower	../fonts/amplitud.ttf
1889.962	n/a	START	944981	n/a	LTP125	ltpFR	7	n/a	n/a	n/a	n/a	n/a	n/a	n/a	n/a	n/a	n/a	n/a	n/a	n/a	n/a	n/a
1891.144	n/a	PROB	945572	n/a	LTP125	ltpFR	7	n/a	n/a	n/a	n/a	n/a	n/a	14	3	8	3	n/a	n/a	n/a	n/a	n/a
1893.752	n/a	PROB	946876	n/a	LTP125	ltpFR	7	n/a	n/a	n/a	n/a	n/a	n/a	15	1	7	7	n/a	n/a	n/a	n/a	n/a
1894.87	n/a	PROB	947435	n/a	LTP125	ltpFR	7	n/a	n/a	n/a	n/a	n/a	n/a	8	4	1	3	n/a	n/a	n/a	n/a	n/a
1897.456	n/a	STOP	948728	n/a	LTP125	ltpFR	7	n/a	n/a	n/a	n/a	n/a	n/a	n/a	n/a	n/a	n/a	n/a	n/a	n/a	n/a	n/a
1898.968	n/a	WORD	949484	wordpools/wasnorm_wordpool.txt	LTP125	ltpFR	7	6	0	CREEK	404	n/a	1	n/a	0	0	0	0	0.5869140625	0.422607421875	lower	../fonts/amplitud.ttf
1901.976	n/a	START	950988	n/a	LTP125	ltpFR	7	n/a	n/a	n/a	n/a	n/a	n/a	n/a	n/a	n/a	n/a	n/a	n/a	n/a	n/a	n/a
1902.8	n/a	PROB	951400	n/a	LTP125	ltpFR	7	n/a	n/a	n/a	n/a	n/a	n/a	14	2	5	7	n/a	n/a	n/a	n/a	n/a
1904.44	n/a	PROB	952220	n/a	LTP125	ltpFR	7	n/a	n/a	n/a	n/a	n/a	n/a	15	3	6	6	n/a	n/a	n/a	n/a	n/a
1906.032	n/a	PROB	953016	n/a	LTP125	ltpFR	7	n/a	n/a	n/a	n/a	n/a	n/a	19	9	5	5	n/a	n/a	n/a	n/a	n/a
1909.974	n/a	STOP	954987	n/a	LTP125	ltpFR	7	n/a	n/a	n/a	n/a	n/a	n/a	n/a	n/a	n/a	n/a	n/a	n/a	n/a	n/a	n/a
1911.006	n/a	WORD	955503	wordpools/wasnorm_wordpool.txt	LTP125	ltpFR	7	6	0	GLUE	643	n/a	0	n/a	0	0	0	0	0.5869140625	0.422607421875	lower	../fonts/amplitud.ttf
1914.014	n/a	START	957007	n/a	LTP125	ltpFR	7	n/a	n/a	n/a	n/a	n/a	n/a	n/a	n/a	n/a	n/a	n/a	n/a	n/a	n/a	n/a
1914.996	n/a	PROB	957498	n/a	LTP125	ltpFR	7	n/a	n/a	n/a	n/a	n/a	n/a	18	6	3	9	n/a	n/a	n/a	n/a	n/a
1917.012	n/a	PROB	958506	n/a	LTP125	ltpFR	7	n/a	n/a	n/a	n/a	n/a	n/a	15	1	7	7	n/a	n/a	n/a	n/a	n/a
1918.178	n/a	PROB	959089	n/a	LTP125	ltpFR	7	n/a	n/a	n/a	n/a	n/a	n/a	15	3	8	4	n/a	n/a	n/a	n/a	n/a
1920.028	n/a	PROB	960014	n/a	LTP125	ltpFR	7	n/a	n/a	n/a	n/a	n/a	n/a	18	8	6	2	n/a	n/a	n/a	n/a	n/a
1921.498	n/a	STOP	960749	n/a	LTP125	ltpFR	7	n/a	n/a	n/a	n/a	n/a	n/a	n/a	n/a	n/a	n/a	n/a	n/a	n/a	n/a	n/a
1922.926	n/a	WORD	961463	wordpools/wasnorm_wordpool.txt	LTP125	ltpFR	7	6	0	CLOTHES	327	n/a	1	n/a	0	0	0	0	0.5869140625	0.422607421875	lower	../fonts/amplitud.ttf
1925.934	n/a	START	962967	n/a	LTP125	ltpFR	7	n/a	n/a	n/a	n/a	n/a	n/a	n/a	n/a	n/a	n/a	n/a	n/a	n/a	n/a	n/a
1926.842	n/a	PROB	963421	n/a	LTP125	ltpFR	7	n/a	n/a	n/a	n/a	n/a	n/a	12	5	6	1	n/a	n/a	n/a	n/a	n/a
1928.708	n/a	PROB	964354	n/a	LTP125	ltpFR	7	n/a	n/a	n/a	n/a	n/a	n/a	18	5	4	9	n/a	n/a	n/a	n/a	n/a
1930.484	n/a	PROB	965242	n/a	LTP125	ltpFR	7	n/a	n/a	n/a	n/a	n/a	n/a	20	2	8	8	n/a	n/a	n/a	n/a	n/a
1932.498	n/a	STOP	966249	n/a	LTP125	ltpFR	7	n/a	n/a	n/a	n/a	n/a	n/a	n/a	n/a	n/a	n/a	n/a	n/a	n/a	n/a	n/a
1935.058	n/a	WORD	967529	wordpools/wasnorm_wordpool.txt	LTP125	ltpFR	7	6	0	ELBOW	520	n/a	0	n/a	0	0	0	0	0.5869140625	0.422607421875	lower	../fonts/amplitud.ttf
1938.066	n/a	START	969033	n/a	LTP125	ltpFR	7	n/a	n/a	n/a	n/a	n/a	n/a	n/a	n/a	n/a	n/a	n/a	n/a	n/a	n/a	n/a
1938.88	n/a	PROB	969440	n/a	LTP125	ltpFR	7	n/a	n/a	n/a	n/a	n/a	n/a	12	7	2	3	n/a	n/a	n/a	n/a	n/a
1940.638	n/a	PROB	970319	n/a	LTP125	ltpFR	7	n/a	n/a	n/a	n/a	n/a	n/a	11	1	6	4	n/a	n/a	n/a	n/a	n/a
1941.996	n/a	PROB	970998	n/a	LTP125	ltpFR	7	n/a	n/a	n/a	n/a	n/a	n/a	4	1	1	2	n/a	n/a	n/a	n/a	n/a
1944.228	n/a	PROB	972114	n/a	LTP125	ltpFR	7	n/a	n/a	n/a	n/a	n/a	n/a	9	1	1	7	n/a	n/a	n/a	n/a	n/a
1945.778	n/a	STOP	972889	n/a	LTP125	ltpFR	7	n/a	n/a	n/a	n/a	n/a	n/a	n/a	n/a	n/a	n/a	n/a	n/a	n/a	n/a	n/a
1947.02	n/a	WORD	973510	wordpools/wasnorm_wordpool.txt	LTP125	ltpFR	7	6	0	OPERATOR	979	n/a	1	n/a	0	0	0	0	0.5869140625	0.422607421875	lower	../fonts/amplitud.ttf
1950.028	n/a	START	975014	n/a	LTP125	ltpFR	7	n/a	n/a	n/a	n/a	n/a	n/a	n/a	n/a	n/a	n/a	n/a	n/a	n/a	n/a	n/a
1951.136	n/a	PROB	975568	n/a	LTP125	ltpFR	7	n/a	n/a	n/a	n/a	n/a	n/a	23	9	6	7	n/a	n/a	n/a	n/a	n/a
1954.234	n/a	PROB	977117	n/a	LTP125	ltpFR	7	n/a	n/a	n/a	n/a	n/a	n/a	22	9	7	8	n/a	n/a	n/a	n/a	n/a
1956.66	n/a	STOP	978330	n/a	LTP125	ltpFR	7	n/a	n/a	n/a	n/a	n/a	n/a	n/a	n/a	n/a	n/a	n/a	n/a	n/a	n/a	n/a
1958.982	n/a	WORD	979491	wordpools/wasnorm_wordpool.txt	LTP125	ltpFR	7	6	0	WIRE	1616	n/a	0	n/a	0	0	0	0	0.5869140625	0.422607421875	lower	../fonts/amplitud.ttf
1961.99	n/a	START	980995	n/a	LTP125	ltpFR	7	n/a	n/a	n/a	n/a	n/a	n/a	n/a	n/a	n/a	n/a	n/a	n/a	n/a	n/a	n/a
1963.156	n/a	PROB	981578	n/a	LTP125	ltpFR	7	n/a	n/a	n/a	n/a	n/a	n/a	7	2	2	3	n/a	n/a	n/a	n/a	n/a
1966.146	n/a	PROB	983073	n/a	LTP125	ltpFR	7	n/a	n/a	n/a	n/a	n/a	n/a	17	8	7	2	n/a	n/a	n/a	n/a	n/a
1968.23	n/a	PROB	984115	n/a	LTP125	ltpFR	7	n/a	n/a	n/a	n/a	n/a	n/a	18	9	7	2	n/a	n/a	n/a	n/a	n/a
1969.796	n/a	STOP	984898	n/a	LTP125	ltpFR	7	n/a	n/a	n/a	n/a	n/a	n/a	n/a	n/a	n/a	n/a	n/a	n/a	n/a	n/a	n/a
1970.988	n/a	WORD	985494	wordpools/wasnorm_wordpool.txt	LTP125	ltpFR	7	6	0	SIDING	1304	n/a	0	n/a	0	0	0	0	0.5869140625	0.422607421875	lower	../fonts/amplitud.ttf
1973.996	n/a	START	986998	n/a	LTP125	ltpFR	7	n/a	n/a	n/a	n/a	n/a	n/a	n/a	n/a	n/a	n/a	n/a	n/a	n/a	n/a	n/a
1974.844	n/a	PROB	987422	n/a	LTP125	ltpFR	7	n/a	n/a	n/a	n/a	n/a	n/a	22	9	8	5	n/a	n/a	n/a	n/a	n/a
1979.594	n/a	PROB	989797	n/a	LTP125	ltpFR	7	n/a	n/a	n/a	n/a	n/a	n/a	14	9	1	4	n/a	n/a	n/a	n/a	n/a
1981.188	n/a	STOP	990594	n/a	LTP125	ltpFR	7	n/a	n/a	n/a	n/a	n/a	n/a	n/a	n/a	n/a	n/a	n/a	n/a	n/a	n/a	n/a
1982.942	n/a	WORD	991471	wordpools/wasnorm_wordpool.txt	LTP125	ltpFR	7	6	0	HOUSE	725	n/a	1	n/a	0	0	0	0	0.5869140625	0.422607421875	lower	../fonts/amplitud.ttf
1985.95	n/a	START	992975	n/a	LTP125	ltpFR	7	n/a	n/a	n/a	n/a	n/a	n/a	n/a	n/a	n/a	n/a	n/a	n/a	n/a	n/a	n/a
1986.832	n/a	PROB	993416	n/a	LTP125	ltpFR	7	n/a	n/a	n/a	n/a	n/a	n/a	16	2	6	8	n/a	n/a	n/a	n/a	n/a
1988.682	n/a	PROB	994341	n/a	LTP125	ltpFR	7	n/a	n/a	n/a	n/a	n/a	n/a	10	2	7	1	n/a	n/a	n/a	n/a	n/a
1991.032	n/a	PROB	995516	n/a	LTP125	ltpFR	7	n/a	n/a	n/a	n/a	n/a	n/a	20	8	9	3	n/a	n/a	n/a	n/a	n/a
1992.926	n/a	STOP	996463	n/a	LTP125	ltpFR	7	n/a	n/a	n/a	n/a	n/a	n/a	n/a	n/a	n/a	n/a	n/a	n/a	n/a	n/a	n/a
1995.73	n/a	REC_START	997865	n/a	LTP125	ltpFR	7	6	n/a	n/a	n/a	n/a	n/a	n/a	0	0	0	n/a	n/a	n/a	n/a	n/a
1996.674	n/a	REC_WORD	998337	wordpools/wasnorm_wordpool.txt	LTP125	ltpFR	7	6	0	BLUEBERRY	140	n/a	0	n/a	0	0	0	n/a	n/a	n/a	n/a	n/a
1997.69	n/a	REC_WORD	998845	wordpools/wasnorm_wordpool.txt	LTP125	ltpFR	7	6	0	WORKER	1621	n/a	1	n/a	0	0	0	n/a	n/a	n/a	n/a	n/a
1998.688	n/a	REC_WORD	999344	wordpools/wasnorm_wordpool.txt	LTP125	ltpFR	7	6	0	FENCE	560	n/a	1	n/a	0	0	0	n/a	n/a	n/a	n/a	n/a
1999.82	n/a	REC_WORD	999910	wordpools/wasnorm_wordpool.txt	LTP125	ltpFR	7	6	0	SIDING	1304	n/a	0	n/a	0	0	0	n/a	n/a	n/a	n/a	n/a
2001.192	n/a	REC_WORD	1000596	wordpools/wasnorm_wordpool.txt	LTP125	ltpFR	7	6	0	HOUSE	725	n/a	1	n/a	0	0	0	n/a	n/a	n/a	n/a	n/a
2035.198	n/a	REC_WORD	1017599	wordpools/wasnorm_wordpool.txt	LTP125	ltpFR	7	6	0	CLOTHES	327	n/a	1	n/a	0	0	0	n/a	n/a	n/a	n/a	n/a
2074.206	n/a	START	1037103	n/a	LTP125	ltpFR	7	n/a	n/a	n/a	n/a	n/a	n/a	n/a	n/a	n/a	n/a	n/a	n/a	n/a	n/a	n/a
2075.714	n/a	PROB	1037857	n/a	LTP125	ltpFR	7	n/a	n/a	n/a	n/a	n/a	n/a	19	5	5	9	n/a	n/a	n/a	n/a	n/a
2077.622	n/a	PROB	1038811	n/a	LTP125	ltpFR	7	n/a	n/a	n/a	n/a	n/a	n/a	19	7	8	4	n/a	n/a	n/a	n/a	n/a
2079.404	n/a	PROB	1039702	n/a	LTP125	ltpFR	7	n/a	n/a	n/a	n/a	n/a	n/a	10	4	5	1	n/a	n/a	n/a	n/a	n/a
2080.754	n/a	PROB	1040377	n/a	LTP125	ltpFR	7	n/a	n/a	n/a	n/a	n/a	n/a	27	9	9	9	n/a	n/a	n/a	n/a	n/a
2083.08	n/a	PROB	1041540	n/a	LTP125	ltpFR	7	n/a	n/a	n/a	n/a	n/a	n/a	19	9	6	4	n/a	n/a	n/a	n/a	n/a
2084.978	n/a	PROB	1042489	n/a	LTP125	ltpFR	7	n/a	n/a	n/a	n/a	n/a	n/a	15	9	2	4	n/a	n/a	n/a	n/a	n/a
2086.912	n/a	PROB	1043456	n/a	LTP125	ltpFR	7	n/a	n/a	n/a	n/a	n/a	n/a	12	2	8	2	n/a	n/a	n/a	n/a	n/a
2088.12	n/a	PROB	1044060	n/a	LTP125	ltpFR	7	n/a	n/a	n/a	n/a	n/a	n/a	13	3	9	1	n/a	n/a	n/a	n/a	n/a
2089.338	n/a	STOP	1044669	n/a	LTP125	ltpFR	7	n/a	n/a	n/a	n/a	n/a	n/a	n/a	n/a	n/a	n/a	n/a	n/a	n/a	n/a	n/a
2091.244	n/a	WORD	1045622	wordpools/wasnorm_wordpool.txt	LTP125	ltpFR	7	7	1	OUTLAW	989	n/a	1	n/a	0	0	0	1	0.412841796875	0.57763671875	upper	../fonts/zerothre.ttf
2094.25	n/a	START	1047125	n/a	LTP125	ltpFR	7	n/a	n/a	n/a	n/a	n/a	n/a	n/a	n/a	n/a	n/a	n/a	n/a	n/a	n/a	n/a
2095.084	n/a	PROB	1047542	n/a	LTP125	ltpFR	7	n/a	n/a	n/a	n/a	n/a	n/a	15	3	6	6	n/a	n/a	n/a	n/a	n/a
2097.208	n/a	PROB	1048604	n/a	LTP125	ltpFR	7	n/a	n/a	n/a	n/a	n/a	n/a	8	4	1	3	n/a	n/a	n/a	n/a	n/a
2099.024	n/a	PROB	1049512	n/a	LTP125	ltpFR	7	n/a	n/a	n/a	n/a	n/a	n/a	5	1	1	3	n/a	n/a	n/a	n/a	n/a
2100.306	n/a	PROB	1050153	n/a	LTP125	ltpFR	7	n/a	n/a	n/a	n/a	n/a	n/a	16	3	6	7	n/a	n/a	n/a	n/a	n/a
2101.772	n/a	PROB	1050886	n/a	LTP125	ltpFR	7	n/a	n/a	n/a	n/a	n/a	n/a	6	2	1	3	n/a	n/a	n/a	n/a	n/a
2104.232	n/a	PROB	1052116	n/a	LTP125	ltpFR	7	n/a	n/a	n/a	n/a	n/a	n/a	16	4	5	7	n/a	n/a	n/a	n/a	n/a
2105.956	n/a	PROB	1052978	n/a	LTP125	ltpFR	7	n/a	n/a	n/a	n/a	n/a	n/a	21	8	4	9	n/a	n/a	n/a	n/a	n/a
2107.556	n/a	PROB	1053778	n/a	LTP125	ltpFR	7	n/a	n/a	n/a	n/a	n/a	n/a	13	4	3	6	n/a	n/a	n/a	n/a	n/a
2109.292	n/a	STOP	1054646	n/a	LTP125	ltpFR	7	n/a	n/a	n/a	n/a	n/a	n/a	n/a	n/a	n/a	n/a	n/a	n/a	n/a	n/a	n/a
2111.388	n/a	WORD	1055694	wordpools/wasnorm_wordpool.txt	LTP125	ltpFR	7	7	1	CLOVE	329	n/a	0	n/a	0	0	0	1	0.412841796875	0.57763671875	upper	../fonts/zerothre.ttf
2114.394	n/a	START	1057197	n/a	LTP125	ltpFR	7	n/a	n/a	n/a	n/a	n/a	n/a	n/a	n/a	n/a	n/a	n/a	n/a	n/a	n/a	n/a
2115.286	n/a	PROB	1057643	n/a	LTP125	ltpFR	7	n/a	n/a	n/a	n/a	n/a	n/a	12	4	5	3	n/a	n/a	n/a	n/a	n/a
2116.986	n/a	PROB	1058493	n/a	LTP125	ltpFR	7	n/a	n/a	n/a	n/a	n/a	n/a	25	7	9	9	n/a	n/a	n/a	n/a	n/a
2119.7	n/a	PROB	1059850	n/a	LTP125	ltpFR	7	n/a	n/a	n/a	n/a	n/a	n/a	17	7	5	5	n/a	n/a	n/a	n/a	n/a
2123.5	n/a	PROB	1061750	n/a	LTP125	ltpFR	7	n/a	n/a	n/a	n/a	n/a	n/a	8	2	5	1	n/a	n/a	n/a	n/a	n/a
2125.882	n/a	PROB	1062941	n/a	LTP125	ltpFR	7	n/a	n/a	n/a	n/a	n/a	n/a	5	5	1	1	n/a	n/a	n/a	n/a	n/a
2127.182	n/a	PROB	1063591	n/a	LTP125	ltpFR	7	n/a	n/a	n/a	n/a	n/a	n/a	15	1	5	9	n/a	n/a	n/a	n/a	n/a
2128.574	n/a	PROB	1064287	n/a	LTP125	ltpFR	7	n/a	n/a	n/a	n/a	n/a	n/a	14	4	5	5	n/a	n/a	n/a	n/a	n/a
2129.652	n/a	STOP	1064826	n/a	LTP125	ltpFR	7	n/a	n/a	n/a	n/a	n/a	n/a	n/a	n/a	n/a	n/a	n/a	n/a	n/a	n/a	n/a
2131.24	n/a	WORD	1065620	wordpools/wasnorm_wordpool.txt	LTP125	ltpFR	7	7	1	ALMANAC	17	n/a	0	n/a	0	0	0	1	0.412841796875	0.57763671875	upper	../fonts/zerothre.ttf
2134.246	n/a	START	1067123	n/a	LTP125	ltpFR	7	n/a	n/a	n/a	n/a	n/a	n/a	n/a	n/a	n/a	n/a	n/a	n/a	n/a	n/a	n/a
2135.43	n/a	PROB	1067715	n/a	LTP125	ltpFR	7	n/a	n/a	n/a	n/a	n/a	n/a	11	2	8	1	n/a	n/a	n/a	n/a	n/a
2138.046	n/a	PROB	1069023	n/a	LTP125	ltpFR	7	n/a	n/a	n/a	n/a	n/a	n/a	15	3	6	6	n/a	n/a	n/a	n/a	n/a
2139.32	n/a	PROB	1069660	n/a	LTP125	ltpFR	7	n/a	n/a	n/a	n/a	n/a	n/a	15	4	1	6	n/a	n/a	n/a	n/a	n/a
2140.552	n/a	PROB	1070276	n/a	LTP125	ltpFR	7	n/a	n/a	n/a	n/a	n/a	n/a	21	7	8	6	n/a	n/a	n/a	n/a	n/a
2142.37	n/a	PROB	1071185	n/a	LTP125	ltpFR	7	n/a	n/a	n/a	n/a	n/a	n/a	15	7	6	2	n/a	n/a	n/a	n/a	n/a
2143.72	n/a	PROB	1071860	n/a	LTP125	ltpFR	7	n/a	n/a	n/a	n/a	n/a	n/a	174	8	5	4	n/a	n/a	n/a	n/a	n/a
2145.668	n/a	PROB	1072834	n/a	LTP125	ltpFR	7	n/a	n/a	n/a	n/a	n/a	n/a	19	8	2	9	n/a	n/a	n/a	n/a	n/a
2147.552	n/a	PROB	1073776	n/a	LTP125	ltpFR	7	n/a	n/a	n/a	n/a	n/a	n/a	11	1	9	1	n/a	n/a	n/a	n/a	n/a
2148.75	n/a	STOP	1074375	n/a	LTP125	ltpFR	7	n/a	n/a	n/a	n/a	n/a	n/a	n/a	n/a	n/a	n/a	n/a	n/a	n/a	n/a	n/a
2151.342	n/a	WORD	1075671	wordpools/wasnorm_wordpool.txt	LTP125	ltpFR	7	7	1	CHIPMUNK	304	n/a	1	n/a	0	0	0	1	0.412841796875	0.57763671875	upper	../fonts/zerothre.ttf
2154.35	n/a	START	1077175	n/a	LTP125	ltpFR	7	n/a	n/a	n/a	n/a	n/a	n/a	n/a	n/a	n/a	n/a	n/a	n/a	n/a	n/a	n/a
2155.374	n/a	PROB	1077687	n/a	LTP125	ltpFR	7	n/a	n/a	n/a	n/a	n/a	n/a	10	1	1	8	n/a	n/a	n/a	n/a	n/a
2156.94	n/a	PROB	1078470	n/a	LTP125	ltpFR	7	n/a	n/a	n/a	n/a	n/a	n/a	14	4	6	4	n/a	n/a	n/a	n/a	n/a
2158.164	n/a	PROB	1079082	n/a	LTP125	ltpFR	7	n/a	n/a	n/a	n/a	n/a	n/a	23	9	6	7	n/a	n/a	n/a	n/a	n/a
2161.438	n/a	PROB	1080719	n/a	LTP125	ltpFR	7	n/a	n/a	n/a	n/a	n/a	n/a	13	6	4	3	n/a	n/a	n/a	n/a	n/a
2162.722	n/a	PROB	1081361	n/a	LTP125	ltpFR	7	n/a	n/a	n/a	n/a	n/a	n/a	11	3	5	3	n/a	n/a	n/a	n/a	n/a
2164.264	n/a	PROB	1082132	n/a	LTP125	ltpFR	7	n/a	n/a	n/a	n/a	n/a	n/a	11	6	2	3	n/a	n/a	n/a	n/a	n/a
2166.996	n/a	PROB	1083498	n/a	LTP125	ltpFR	7	n/a	n/a	n/a	n/a	n/a	n/a	18	2	7	9	n/a	n/a	n/a	n/a	n/a
2169.254	n/a	STOP	1084627	n/a	LTP125	ltpFR	7	n/a	n/a	n/a	n/a	n/a	n/a	n/a	n/a	n/a	n/a	n/a	n/a	n/a	n/a	n/a
2171.368	n/a	WORD	1085684	wordpools/wasnorm_wordpool.txt	LTP125	ltpFR	7	7	1	OTTER	986	n/a	1	n/a	0	0	0	1	0.412841796875	0.57763671875	upper	../fonts/zerothre.ttf
2174.376	n/a	START	1087188	n/a	LTP125	ltpFR	7	n/a	n/a	n/a	n/a	n/a	n/a	n/a	n/a	n/a	n/a	n/a	n/a	n/a	n/a	n/a
2175.21	n/a	PROB	1087605	n/a	LTP125	ltpFR	7	n/a	n/a	n/a	n/a	n/a	n/a	13	8	3	2	n/a	n/a	n/a	n/a	n/a
2176.858	n/a	PROB	1088429	n/a	LTP125	ltpFR	7	n/a	n/a	n/a	n/a	n/a	n/a	19	3	8	8	n/a	n/a	n/a	n/a	n/a
2179.158	n/a	PROB	1089579	n/a	LTP125	ltpFR	7	n/a	n/a	n/a	n/a	n/a	n/a	23	7	9	7	n/a	n/a	n/a	n/a	n/a
2184.548	n/a	PROB	1092274	n/a	LTP125	ltpFR	7	n/a	n/a	n/a	n/a	n/a	n/a	15	5	5	5	n/a	n/a	n/a	n/a	n/a
2185.474	n/a	PROB	1092737	n/a	LTP125	ltpFR	7	n/a	n/a	n/a	n/a	n/a	n/a	19	8	6	5	n/a	n/a	n/a	n/a	n/a
2189.352	n/a	STOP	1094676	n/a	LTP125	ltpFR	7	n/a	n/a	n/a	n/a	n/a	n/a	n/a	n/a	n/a	n/a	n/a	n/a	n/a	n/a	n/a
2191.372	n/a	WORD	1095686	wordpools/wasnorm_wordpool.txt	LTP125	ltpFR	7	7	1	BINDER	127	n/a	0	n/a	0	0	0	1	0.412841796875	0.57763671875	upper	../fonts/zerothre.ttf
2194.378	n/a	START	1097189	n/a	LTP125	ltpFR	7	n/a	n/a	n/a	n/a	n/a	n/a	n/a	n/a	n/a	n/a	n/a	n/a	n/a	n/a	n/a
2195.294	n/a	PROB	1097647	n/a	LTP125	ltpFR	7	n/a	n/a	n/a	n/a	n/a	n/a	15	6	4	5	n/a	n/a	n/a	n/a	n/a
2198.07	n/a	PROB	1099035	n/a	LTP125	ltpFR	7	n/a	n/a	n/a	n/a	n/a	n/a	11	6	4	1	n/a	n/a	n/a	n/a	n/a
2199.502	n/a	PROB	1099751	n/a	LTP125	ltpFR	7	n/a	n/a	n/a	n/a	n/a	n/a	18	7	8	3	n/a	n/a	n/a	n/a	n/a
2201.344	n/a	PROB	1100672	n/a	LTP125	ltpFR	7	n/a	n/a	n/a	n/a	n/a	n/a	15	4	4	7	n/a	n/a	n/a	n/a	n/a
2202.818	n/a	PROB	1101409	n/a	LTP125	ltpFR	7	n/a	n/a	n/a	n/a	n/a	n/a	12	7	1	4	n/a	n/a	n/a	n/a	n/a
2204.726	n/a	PROB	1102363	n/a	LTP125	ltpFR	7	n/a	n/a	n/a	n/a	n/a	n/a	20	8	3	9	n/a	n/a	n/a	n/a	n/a
2206.9	n/a	PROB	1103450	n/a	LTP125	ltpFR	7	n/a	n/a	n/a	n/a	n/a	n/a	3	1	1	1	n/a	n/a	n/a	n/a	n/a
2210.38	n/a	STOP	1105190	n/a	LTP125	ltpFR	7	n/a	n/a	n/a	n/a	n/a	n/a	n/a	n/a	n/a	n/a	n/a	n/a	n/a	n/a	n/a
2211.366	n/a	WORD	1105683	wordpools/wasnorm_wordpool.txt	LTP125	ltpFR	7	7	1	SUSPECT	1415	n/a	1	n/a	0	0	0	1	0.412841796875	0.57763671875	upper	../fonts/zerothre.ttf
2214.372	n/a	START	1107186	n/a	LTP125	ltpFR	7	n/a	n/a	n/a	n/a	n/a	n/a	n/a	n/a	n/a	n/a	n/a	n/a	n/a	n/a	n/a
2215.188	n/a	PROB	1107594	n/a	LTP125	ltpFR	7	n/a	n/a	n/a	n/a	n/a	n/a	17	7	4	6	n/a	n/a	n/a	n/a	n/a
2219.472	n/a	PROB	1109736	n/a	LTP125	ltpFR	7	n/a	n/a	n/a	n/a	n/a	n/a	17	8	7	2	n/a	n/a	n/a	n/a	n/a
2221.138	n/a	PROB	1110569	n/a	LTP125	ltpFR	7	n/a	n/a	n/a	n/a	n/a	n/a	15	7	7	1	n/a	n/a	n/a	n/a	n/a
2222.438	n/a	PROB	1111219	n/a	LTP125	ltpFR	7	n/a	n/a	n/a	n/a	n/a	n/a	18	5	6	7	n/a	n/a	n/a	n/a	n/a
2225.036	n/a	PROB	1112518	n/a	LTP125	ltpFR	7	n/a	n/a	n/a	n/a	n/a	n/a	7	2	4	1	n/a	n/a	n/a	n/a	n/a
2227.844	n/a	PROB	1113922	n/a	LTP125	ltpFR	7	n/a	n/a	n/a	n/a	n/a	n/a	5	3	1	2	n/a	n/a	n/a	n/a	n/a
2230.374	n/a	STOP	1115187	n/a	LTP125	ltpFR	7	n/a	n/a	n/a	n/a	n/a	n/a	n/a	n/a	n/a	n/a	n/a	n/a	n/a	n/a	n/a
2231.226	n/a	WORD	1115613	wordpools/wasnorm_wordpool.txt	LTP125	ltpFR	7	7	1	FOOTBALL	591	n/a	0	n/a	0	0	0	1	0.412841796875	0.57763671875	upper	../fonts/zerothre.ttf
2234.234	n/a	START	1117117	n/a	LTP125	ltpFR	7	n/a	n/a	n/a	n/a	n/a	n/a	n/a	n/a	n/a	n/a	n/a	n/a	n/a	n/a	n/a
2235.15	n/a	PROB	1117575	n/a	LTP125	ltpFR	7	n/a	n/a	n/a	n/a	n/a	n/a	14	5	8	1	n/a	n/a	n/a	n/a	n/a
2237.574	n/a	PROB	1118787	n/a	LTP125	ltpFR	7	n/a	n/a	n/a	n/a	n/a	n/a	17	5	5	7	n/a	n/a	n/a	n/a	n/a
2239.498	n/a	PROB	1119749	n/a	LTP125	ltpFR	7	n/a	n/a	n/a	n/a	n/a	n/a	11	8	1	2	n/a	n/a	n/a	n/a	n/a
2241.374	n/a	PROB	1120687	n/a	LTP125	ltpFR	7	n/a	n/a	n/a	n/a	n/a	n/a	14	4	8	2	n/a	n/a	n/a	n/a	n/a
2243.198	n/a	PROB	1121599	n/a	LTP125	ltpFR	7	n/a	n/a	n/a	n/a	n/a	n/a	23	8	9	6	n/a	n/a	n/a	n/a	n/a
2245.388	n/a	PROB	1122694	n/a	LTP125	ltpFR	7	n/a	n/a	n/a	n/a	n/a	n/a	13	4	3	6	n/a	n/a	n/a	n/a	n/a
2247.388	n/a	PROB	1123694	n/a	LTP125	ltpFR	7	n/a	n/a	n/a	n/a	n/a	n/a	10	8	1	1	n/a	n/a	n/a	n/a	n/a
2248.562	n/a	PROB	1124281	n/a	LTP125	ltpFR	7	n/a	n/a	n/a	n/a	n/a	n/a	9	5	2	2	n/a	n/a	n/a	n/a	n/a
2250.034	n/a	STOP	1125017	n/a	LTP125	ltpFR	7	n/a	n/a	n/a	n/a	n/a	n/a	n/a	n/a	n/a	n/a	n/a	n/a	n/a	n/a	n/a
2251.328	n/a	WORD	1125664	wordpools/wasnorm_wordpool.txt	LTP125	ltpFR	7	7	1	MAGAZINE	853	n/a	0	n/a	0	0	0	1	0.412841796875	0.57763671875	upper	../fonts/zerothre.ttf
2254.336	n/a	START	1127168	n/a	LTP125	ltpFR	7	n/a	n/a	n/a	n/a	n/a	n/a	n/a	n/a	n/a	n/a	n/a	n/a	n/a	n/a	n/a
2255.252	n/a	PROB	1127626	n/a	LTP125	ltpFR	7	n/a	n/a	n/a	n/a	n/a	n/a	19	7	4	8	n/a	n/a	n/a	n/a	n/a
2257.186	n/a	PROB	1128593	n/a	LTP125	ltpFR	7	n/a	n/a	n/a	n/a	n/a	n/a	15	3	3	9	n/a	n/a	n/a	n/a	n/a
2259.392	n/a	PROB	1129696	n/a	LTP125	ltpFR	7	n/a	n/a	n/a	n/a	n/a	n/a	25	9	7	9	n/a	n/a	n/a	n/a	n/a
2262.508	n/a	PROB	1131254	n/a	LTP125	ltpFR	7	n/a	n/a	n/a	n/a	n/a	n/a	16	8	2	6	n/a	n/a	n/a	n/a	n/a
2263.992	n/a	PROB	1131996	n/a	LTP125	ltpFR	7	n/a	n/a	n/a	n/a	n/a	n/a	6	2	1	3	n/a	n/a	n/a	n/a	n/a
2265.748	n/a	PROB	1132874	n/a	LTP125	ltpFR	7	n/a	n/a	n/a	n/a	n/a	n/a	14	3	8	3	n/a	n/a	n/a	n/a	n/a
2267.456	n/a	PROB	1133728	n/a	LTP125	ltpFR	7	n/a	n/a	n/a	n/a	n/a	n/a	12	7	2	3	n/a	n/a	n/a	n/a	n/a
2270.336	n/a	STOP	1135168	n/a	LTP125	ltpFR	7	n/a	n/a	n/a	n/a	n/a	n/a	n/a	n/a	n/a	n/a	n/a	n/a	n/a	n/a	n/a
2271.506	n/a	WORD	1135753	wordpools/wasnorm_wordpool.txt	LTP125	ltpFR	7	7	1	NET	946	n/a	0	n/a	0	0	0	1	0.412841796875	0.57763671875	upper	../fonts/zerothre.ttf
2274.512	n/a	START	1137256	n/a	LTP125	ltpFR	7	n/a	n/a	n/a	n/a	n/a	n/a	n/a	n/a	n/a	n/a	n/a	n/a	n/a	n/a	n/a
2275.396	n/a	PROB	1137698	n/a	LTP125	ltpFR	7	n/a	n/a	n/a	n/a	n/a	n/a	17	4	9	4	n/a	n/a	n/a	n/a	n/a
2277.138	n/a	PROB	1138569	n/a	LTP125	ltpFR	7	n/a	n/a	n/a	n/a	n/a	n/a	18	7	7	4	n/a	n/a	n/a	n/a	n/a
2279.08	n/a	PROB	1139540	n/a	LTP125	ltpFR	7	n/a	n/a	n/a	n/a	n/a	n/a	18	9	2	7	n/a	n/a	n/a	n/a	n/a
2280.828	n/a	PROB	1140414	n/a	LTP125	ltpFR	7	n/a	n/a	n/a	n/a	n/a	n/a	12	7	3	2	n/a	n/a	n/a	n/a	n/a
2284.526	n/a	PROB	1142263	n/a	LTP125	ltpFR	7	n/a	n/a	n/a	n/a	n/a	n/a	11	2	5	4	n/a	n/a	n/a	n/a	n/a
2286.086	n/a	PROB	1143043	n/a	LTP125	ltpFR	7	n/a	n/a	n/a	n/a	n/a	n/a	16	2	6	8	n/a	n/a	n/a	n/a	n/a
2290.512	n/a	STOP	1145256	n/a	LTP125	ltpFR	7	n/a	n/a	n/a	n/a	n/a	n/a	n/a	n/a	n/a	n/a	n/a	n/a	n/a	n/a	n/a
2291.474	n/a	WORD	1145737	wordpools/wasnorm_wordpool.txt	LTP125	ltpFR	7	7	1	BAIT	70	n/a	0	n/a	0	0	0	1	0.412841796875	0.57763671875	upper	../fonts/zerothre.ttf
2294.482	n/a	START	1147241	n/a	LTP125	ltpFR	7	n/a	n/a	n/a	n/a	n/a	n/a	n/a	n/a	n/a	n/a	n/a	n/a	n/a	n/a	n/a
2295.348	n/a	PROB	1147674	n/a	LTP125	ltpFR	7	n/a	n/a	n/a	n/a	n/a	n/a	17	8	6	3	n/a	n/a	n/a	n/a	n/a
2297.622	n/a	PROB	1148811	n/a	LTP125	ltpFR	7	n/a	n/a	n/a	n/a	n/a	n/a	17	6	4	7	n/a	n/a	n/a	n/a	n/a
2299.506	n/a	PROB	1149753	n/a	LTP125	ltpFR	7	n/a	n/a	n/a	n/a	n/a	n/a	8	3	3	2	n/a	n/a	n/a	n/a	n/a
2301.58	n/a	PROB	1150790	n/a	LTP125	ltpFR	7	n/a	n/a	n/a	n/a	n/a	n/a	11	6	2	3	n/a	n/a	n/a	n/a	n/a
2302.954	n/a	PROB	1151477	n/a	LTP125	ltpFR	7	n/a	n/a	n/a	n/a	n/a	n/a	24	7	8	9	n/a	n/a	n/a	n/a	n/a
2306.936	n/a	PROB	1153468	n/a	LTP125	ltpFR	7	n/a	n/a	n/a	n/a	n/a	n/a	7	1	4	2	n/a	n/a	n/a	n/a	n/a
2310.482	n/a	STOP	1155241	n/a	LTP125	ltpFR	7	n/a	n/a	n/a	n/a	n/a	n/a	n/a	n/a	n/a	n/a	n/a	n/a	n/a	n/a	n/a
2311.692	n/a	WORD	1155846	wordpools/wasnorm_wordpool.txt	LTP125	ltpFR	7	7	1	HANDBAG	684	n/a	0	n/a	0	0	0	1	0.412841796875	0.57763671875	upper	../fonts/zerothre.ttf
2314.702	n/a	START	1157351	n/a	LTP125	ltpFR	7	n/a	n/a	n/a	n/a	n/a	n/a	n/a	n/a	n/a	n/a	n/a	n/a	n/a	n/a	n/a
2315.85	n/a	PROB	1157925	n/a	LTP125	ltpFR	7	n/a	n/a	n/a	n/a	n/a	n/a	15	2	4	9	n/a	n/a	n/a	n/a	n/a
2317.834	n/a	PROB	1158917	n/a	LTP125	ltpFR	7	n/a	n/a	n/a	n/a	n/a	n/a	6	3	2	1	n/a	n/a	n/a	n/a	n/a
2319.124	n/a	PROB	1159562	n/a	LTP125	ltpFR	7	n/a	n/a	n/a	n/a	n/a	n/a	12	8	2	2	n/a	n/a	n/a	n/a	n/a
2320.458	n/a	PROB	1160229	n/a	LTP125	ltpFR	7	n/a	n/a	n/a	n/a	n/a	n/a	18	9	2	7	n/a	n/a	n/a	n/a	n/a
2321.974	n/a	PROB	1160987	n/a	LTP125	ltpFR	7	n/a	n/a	n/a	n/a	n/a	n/a	14	2	6	6	n/a	n/a	n/a	n/a	n/a
2323.448	n/a	PROB	1161724	n/a	LTP125	ltpFR	7	n/a	n/a	n/a	n/a	n/a	n/a	20	5	7	8	n/a	n/a	n/a	n/a	n/a
2325.472	n/a	PROB	1162736	n/a	LTP125	ltpFR	7	n/a	n/a	n/a	n/a	n/a	n/a	23	4	8	9	n/a	n/a	n/a	n/a	n/a
2328.938	n/a	PROB	1164469	n/a	LTP125	ltpFR	7	n/a	n/a	n/a	n/a	n/a	n/a	14	8	1	3	n/a	n/a	n/a	n/a	n/a
2330.686	n/a	STOP	1165343	n/a	LTP125	ltpFR	7	n/a	n/a	n/a	n/a	n/a	n/a	n/a	n/a	n/a	n/a	n/a	n/a	n/a	n/a	n/a
2331.87	n/a	WORD	1165935	wordpools/wasnorm_wordpool.txt	LTP125	ltpFR	7	7	1	CHERRY	293	n/a	0	n/a	0	0	0	1	0.412841796875	0.57763671875	upper	../fonts/zerothre.ttf
2334.878	n/a	START	1167439	n/a	LTP125	ltpFR	7	n/a	n/a	n/a	n/a	n/a	n/a	n/a	n/a	n/a	n/a	n/a	n/a	n/a	n/a	n/a
2335.854	n/a	PROB	1167927	n/a	LTP125	ltpFR	7	n/a	n/a	n/a	n/a	n/a	n/a	16	8	5	3	n/a	n/a	n/a	n/a	n/a
2339.576	n/a	PROB	1169788	n/a	LTP125	ltpFR	7	n/a	n/a	n/a	n/a	n/a	n/a	15	8	4	3	n/a	n/a	n/a	n/a	n/a
2341.06	n/a	PROB	1170530	n/a	LTP125	ltpFR	7	n/a	n/a	n/a	n/a	n/a	n/a	24	7	9	8	n/a	n/a	n/a	n/a	n/a
2343.3	n/a	PROB	1171650	n/a	LTP125	ltpFR	7	n/a	n/a	n/a	n/a	n/a	n/a	19	8	9	2	n/a	n/a	n/a	n/a	n/a
2346.076	n/a	PROB	1173038	n/a	LTP125	ltpFR	7	n/a	n/a	n/a	n/a	n/a	n/a	13	2	5	6	n/a	n/a	n/a	n/a	n/a
2347.516	n/a	PROB	1173758	n/a	LTP125	ltpFR	7	n/a	n/a	n/a	n/a	n/a	n/a	21	9	9	3	n/a	n/a	n/a	n/a	n/a
2348.932	n/a	PROB	1174466	n/a	LTP125	ltpFR	7	n/a	n/a	n/a	n/a	n/a	n/a	19	4	7	8	n/a	n/a	n/a	n/a	n/a
2350.656	n/a	STOP	1175328	n/a	LTP125	ltpFR	7	n/a	n/a	n/a	n/a	n/a	n/a	n/a	n/a	n/a	n/a	n/a	n/a	n/a	n/a	n/a
2352.016	n/a	WORD	1176008	wordpools/wasnorm_wordpool.txt	LTP125	ltpFR	7	7	1	SCARF	1246	n/a	0	n/a	0	0	0	1	0.412841796875	0.57763671875	upper	../fonts/zerothre.ttf
2355.022	n/a	START	1177511	n/a	LTP125	ltpFR	7	n/a	n/a	n/a	n/a	n/a	n/a	n/a	n/a	n/a	n/a	n/a	n/a	n/a	n/a	n/a
2355.996	n/a	PROB	1177998	n/a	LTP125	ltpFR	7	n/a	n/a	n/a	n/a	n/a	n/a	16	6	1	9	n/a	n/a	n/a	n/a	n/a
2357.43	n/a	PROB	1178715	n/a	LTP125	ltpFR	7	n/a	n/a	n/a	n/a	n/a	n/a	17	7	8	2	n/a	n/a	n/a	n/a	n/a
2359.038	n/a	PROB	1179519	n/a	LTP125	ltpFR	7	n/a	n/a	n/a	n/a	n/a	n/a	6	2	2	3	n/a	n/a	n/a	n/a	n/a
2360.238	n/a	PROB	1180119	n/a	LTP125	ltpFR	7	n/a	n/a	n/a	n/a	n/a	n/a	14	3	8	1	n/a	n/a	n/a	n/a	n/a
2361.944	n/a	PROB	1180972	n/a	LTP125	ltpFR	7	n/a	n/a	n/a	n/a	n/a	n/a	9	1	4	3	n/a	n/a	n/a	n/a	n/a
2363.852	n/a	PROB	1181926	n/a	LTP125	ltpFR	7	n/a	n/a	n/a	n/a	n/a	n/a	20	6	6	8	n/a	n/a	n/a	n/a	n/a
2365.868	n/a	PROB	1182934	n/a	LTP125	ltpFR	7	n/a	n/a	n/a	n/a	n/a	n/a	16	1	7	5	n/a	n/a	n/a	n/a	n/a
2367.468	n/a	PROB	1183734	n/a	LTP125	ltpFR	7	n/a	n/a	n/a	n/a	n/a	n/a	19	7	9	3	n/a	n/a	n/a	n/a	n/a
2370.466	n/a	STOP	1185233	n/a	LTP125	ltpFR	7	n/a	n/a	n/a	n/a	n/a	n/a	n/a	n/a	n/a	n/a	n/a	n/a	n/a	n/a	n/a
2371.868	n/a	WORD	1185934	wordpools/wasnorm_wordpool.txt	LTP125	ltpFR	7	7	1	VOLCANO	1575	n/a	1	n/a	0	0	0	1	0.412841796875	0.57763671875	upper	../fonts/zerothre.ttf
2374.876	n/a	START	1187438	n/a	LTP125	ltpFR	7	n/a	n/a	n/a	n/a	n/a	n/a	n/a	n/a	n/a	n/a	n/a	n/a	n/a	n/a	n/a
2375.79	n/a	PROB	1187895	n/a	LTP125	ltpFR	7	n/a	n/a	n/a	n/a	n/a	n/a	17	2	6	9	n/a	n/a	n/a	n/a	n/a
2377.666	n/a	PROB	1188833	n/a	LTP125	ltpFR	7	n/a	n/a	n/a	n/a	n/a	n/a	21	8	7	7	n/a	n/a	n/a	n/a	n/a
2379.672	n/a	PROB	1189836	n/a	LTP125	ltpFR	7	n/a	n/a	n/a	n/a	n/a	n/a	21	7	9	8	n/a	n/a	n/a	n/a	n/a
2381.298	n/a	PROB	1190649	n/a	LTP125	ltpFR	7	n/a	n/a	n/a	n/a	n/a	n/a	10	2	2	6	n/a	n/a	n/a	n/a	n/a
2384.238	n/a	PROB	1192119	n/a	LTP125	ltpFR	7	n/a	n/a	n/a	n/a	n/a	n/a	23	5	8	9	n/a	n/a	n/a	n/a	n/a
2387.736	n/a	PROB	1193868	n/a	LTP125	ltpFR	7	n/a	n/a	n/a	n/a	n/a	n/a	18	7	9	2	n/a	n/a	n/a	n/a	n/a
2389.626	n/a	STOP	1194813	n/a	LTP125	ltpFR	7	n/a	n/a	n/a	n/a	n/a	n/a	n/a	n/a	n/a	n/a	n/a	n/a	n/a	n/a	n/a
2392.028	n/a	WORD	1196014	wordpools/wasnorm_wordpool.txt	LTP125	ltpFR	7	7	1	CRACKER	398	n/a	0	n/a	0	0	0	1	0.412841796875	0.57763671875	upper	../fonts/zerothre.ttf
2395.036	n/a	START	1197518	n/a	LTP125	ltpFR	7	n/a	n/a	n/a	n/a	n/a	n/a	n/a	n/a	n/a	n/a	n/a	n/a	n/a	n/a	n/a
2395.96	n/a	PROB	1197980	n/a	LTP125	ltpFR	7	n/a	n/a	n/a	n/a	n/a	n/a	17	5	7	5	n/a	n/a	n/a	n/a	n/a
2397.584	n/a	PROB	1198792	n/a	LTP125	ltpFR	7	n/a	n/a	n/a	n/a	n/a	n/a	16	4	6	6	n/a	n/a	n/a	n/a	n/a
2399.608	n/a	PROB	1199804	n/a	LTP125	ltpFR	7	n/a	n/a	n/a	n/a	n/a	n/a	15	1	9	5	n/a	n/a	n/a	n/a	n/a
2401.324	n/a	PROB	1200662	n/a	LTP125	ltpFR	7	n/a	n/a	n/a	n/a	n/a	n/a	14	6	5	3	n/a	n/a	n/a	n/a	n/a
2403.058	n/a	PROB	1201529	n/a	LTP125	ltpFR	7	n/a	n/a	n/a	n/a	n/a	n/a	23	9	5	9	n/a	n/a	n/a	n/a	n/a
2404.766	n/a	PROB	1202383	n/a	LTP125	ltpFR	7	n/a	n/a	n/a	n/a	n/a	n/a	15	5	1	9	n/a	n/a	n/a	n/a	n/a
2405.99	n/a	PROB	1202995	n/a	LTP125	ltpFR	7	n/a	n/a	n/a	n/a	n/a	n/a	10	2	7	1	n/a	n/a	n/a	n/a	n/a
2407.614	n/a	PROB	1203807	n/a	LTP125	ltpFR	7	n/a	n/a	n/a	n/a	n/a	n/a	9	1	6	2	n/a	n/a	n/a	n/a	n/a
2408.964	n/a	PROB	1204482	n/a	LTP125	ltpFR	7	n/a	n/a	n/a	n/a	n/a	n/a	15	3	6	6	n/a	n/a	n/a	n/a	n/a
2410.268	n/a	STOP	1205134	n/a	LTP125	ltpFR	7	n/a	n/a	n/a	n/a	n/a	n/a	n/a	n/a	n/a	n/a	n/a	n/a	n/a	n/a	n/a
2412.938	n/a	REC_START	1206469	n/a	LTP125	ltpFR	7	7	n/a	n/a	n/a	n/a	n/a	n/a	0	0	0	n/a	n/a	n/a	n/a	n/a
2413.836	n/a	REC_WORD	1206918	wordpools/wasnorm_wordpool.txt	LTP125	ltpFR	7	7	1	CLOVE	329	n/a	0	n/a	0	0	0	n/a	n/a	n/a	n/a	n/a
2414.704	n/a	REC_WORD_VV	1207352	wordpools/wasnorm_wordpool.txt	LTP125	ltpFR	7	7	n/a	<>	-1	n/a	n/a	n/a	0	0	0	n/a	n/a	n/a	n/a	n/a
2415.204	n/a	REC_WORD	1207602	wordpools/wasnorm_wordpool.txt	LTP125	ltpFR	7	7	1	ALMANAC	17	n/a	0	n/a	0	0	0	n/a	n/a	n/a	n/a	n/a
2416.23	n/a	REC_WORD	1208115	wordpools/wasnorm_wordpool.txt	LTP125	ltpFR	7	7	1	CHIPMUNK	304	n/a	1	n/a	0	0	0	n/a	n/a	n/a	n/a	n/a
2417.384	n/a	REC_WORD	1208692	wordpools/wasnorm_wordpool.txt	LTP125	ltpFR	7	7	1	CHIPMUNK	304	n/a	1	n/a	0	0	0	n/a	n/a	n/a	n/a	n/a
2419.08	n/a	REC_WORD	1209540	wordpools/wasnorm_wordpool.txt	LTP125	ltpFR	7	7	1	OTTER	986	n/a	1	n/a	0	0	0	n/a	n/a	n/a	n/a	n/a
2419.912	n/a	REC_WORD	1209956	wordpools/wasnorm_wordpool.txt	LTP125	ltpFR	7	7	1	MAGAZINE	853	n/a	0	n/a	0	0	0	n/a	n/a	n/a	n/a	n/a
2420.866	n/a	REC_WORD	1210433	wordpools/wasnorm_wordpool.txt	LTP125	ltpFR	7	7	1	FOOTBALL	591	n/a	0	n/a	0	0	0	n/a	n/a	n/a	n/a	n/a
2421.972	n/a	REC_WORD	1210986	wordpools/wasnorm_wordpool.txt	LTP125	ltpFR	7	7	1	CHERRY	293	n/a	0	n/a	0	0	0	n/a	n/a	n/a	n/a	n/a
2423.106	n/a	REC_WORD	1211553	wordpools/wasnorm_wordpool.txt	LTP125	ltpFR	7	7	1	HANDBAG	684	n/a	0	n/a	0	0	0	n/a	n/a	n/a	n/a	n/a
2505.002	n/a	WORD	1252501	wordpools/wasnorm_wordpool.txt	LTP125	ltpFR	7	8	1	TWEEZERS	1526	n/a	0	n/a	0	0	0	1	0.412841796875	0.57763671875	upper	../fonts/zerothre.ttf
2509.086	n/a	WORD	1254543	wordpools/wasnorm_wordpool.txt	LTP125	ltpFR	7	8	1	PRISON	1127	n/a	0	n/a	0	0	0	1	0.412841796875	0.57763671875	upper	../fonts/zerothre.ttf
2513.274	n/a	WORD	1256637	wordpools/wasnorm_wordpool.txt	LTP125	ltpFR	7	8	1	CRIMINAL	409	n/a	1	n/a	0	0	0	1	0.412841796875	0.57763671875	upper	../fonts/zerothre.ttf
2517.414	n/a	WORD	1258707	wordpools/wasnorm_wordpool.txt	LTP125	ltpFR	7	8	1	JAPAN	749	n/a	0	n/a	0	0	0	1	0.412841796875	0.57763671875	upper	../fonts/zerothre.ttf
2521.33	n/a	WORD	1260665	wordpools/wasnorm_wordpool.txt	LTP125	ltpFR	7	8	1	LEVER	815	n/a	0	n/a	0	0	0	1	0.412841796875	0.57763671875	upper	../fonts/zerothre.ttf
2525.304	n/a	WORD	1262652	wordpools/wasnorm_wordpool.txt	LTP125	ltpFR	7	8	1	BANQUET	86	n/a	0	n/a	0	0	0	1	0.412841796875	0.57763671875	upper	../fonts/zerothre.ttf
2529.436	n/a	WORD	1264718	wordpools/wasnorm_wordpool.txt	LTP125	ltpFR	7	8	1	COOK	372	n/a	1	n/a	0	0	0	1	0.412841796875	0.57763671875	upper	../fonts/zerothre.ttf
2533.46	n/a	WORD	1266730	wordpools/wasnorm_wordpool.txt	LTP125	ltpFR	7	8	1	WILDERNESS	1610	n/a	0	n/a	0	0	0	1	0.412841796875	0.57763671875	upper	../fonts/zerothre.ttf
2537.584	n/a	WORD	1268792	wordpools/wasnorm_wordpool.txt	LTP125	ltpFR	7	8	1	SHEPHERD	1283	n/a	1	n/a	0	0	0	1	0.412841796875	0.57763671875	upper	../fonts/zerothre.ttf
2541.64	n/a	WORD	1270820	wordpools/wasnorm_wordpool.txt	LTP125	ltpFR	7	8	1	BUGGY	188	n/a	0	n/a	0	0	0	1	0.412841796875	0.57763671875	upper	../fonts/zerothre.ttf
2545.532	n/a	WORD	1272766	wordpools/wasnorm_wordpool.txt	LTP125	ltpFR	7	8	1	LENS	811	n/a	0	n/a	0	0	0	1	0.412841796875	0.57763671875	upper	../fonts/zerothre.ttf
2549.572	n/a	WORD	1274786	wordpools/wasnorm_wordpool.txt	LTP125	ltpFR	7	8	1	SHRUB	1299	n/a	0	n/a	0	0	0	1	0.412841796875	0.57763671875	upper	../fonts/zerothre.ttf
2553.512	n/a	WORD	1276756	wordpools/wasnorm_wordpool.txt	LTP125	ltpFR	7	8	1	SPICE	1350	n/a	0	n/a	0	0	0	1	0.412841796875	0.57763671875	upper	../fonts/zerothre.ttf
2557.66	n/a	WORD	1278830	wordpools/wasnorm_wordpool.txt	LTP125	ltpFR	7	8	1	CACTUS	215	n/a	0	n/a	0	0	0	1	0.412841796875	0.57763671875	upper	../fonts/zerothre.ttf
2561.842	n/a	WORD	1280921	wordpools/wasnorm_wordpool.txt	LTP125	ltpFR	7	8	1	CATHEDRAL	260	n/a	0	n/a	0	0	0	1	0.412841796875	0.57763671875	upper	../fonts/zerothre.ttf
2565.726	n/a	WORD	1282863	wordpools/wasnorm_wordpool.txt	LTP125	ltpFR	7	8	1	LAMB	797	n/a	1	n/a	0	0	0	1	0.412841796875	0.57763671875	upper	../fonts/zerothre.ttf
2571.482	n/a	REC_START	1285741	n/a	LTP125	ltpFR	7	8	n/a	n/a	n/a	n/a	n/a	n/a	0	0	0	n/a	n/a	n/a	n/a	n/a
2573.692	n/a	REC_WORD	1286846	wordpools/wasnorm_wordpool.txt	LTP125	ltpFR	7	8	1	CRIMINAL	409	n/a	1	n/a	0	0	0	n/a	n/a	n/a	n/a	n/a
2574.72	n/a	REC_WORD	1287360	wordpools/wasnorm_wordpool.txt	LTP125	ltpFR	7	8	1	TWEEZERS	1526	n/a	0	n/a	0	0	0	n/a	n/a	n/a	n/a	n/a
2575.72	n/a	REC_WORD_VV	1287860	wordpools/wasnorm_wordpool.txt	LTP125	ltpFR	7	8	n/a	<>	-1	n/a	n/a	n/a	0	0	0	n/a	n/a	n/a	n/a	n/a
2576.49	n/a	REC_WORD	1288245	wordpools/wasnorm_wordpool.txt	LTP125	ltpFR	7	8	1	TWEEZERS	1526	n/a	0	n/a	0	0	0	n/a	n/a	n/a	n/a	n/a
2577.544	n/a	REC_WORD	1288772	wordpools/wasnorm_wordpool.txt	LTP125	ltpFR	7	8	1	PRISON	1127	n/a	0	n/a	0	0	0	n/a	n/a	n/a	n/a	n/a
2579.164	n/a	REC_WORD	1289582	wordpools/wasnorm_wordpool.txt	LTP125	ltpFR	7	8	1	BANQUET	86	n/a	0	n/a	0	0	0	n/a	n/a	n/a	n/a	n/a
2580.078	n/a	REC_WORD	1290039	wordpools/wasnorm_wordpool.txt	LTP125	ltpFR	7	8	1	COOK	372	n/a	1	n/a	0	0	0	n/a	n/a	n/a	n/a	n/a
2580.99	n/a	REC_WORD	1290495	wordpools/wasnorm_wordpool.txt	LTP125	ltpFR	7	8	1	WILDERNESS	1610	n/a	0	n/a	0	0	0	n/a	n/a	n/a	n/a	n/a
2582.024	n/a	REC_WORD	1291012	wordpools/wasnorm_wordpool.txt	LTP125	ltpFR	7	8	1	SHEPHERD	1283	n/a	1	n/a	0	0	0	n/a	n/a	n/a	n/a	n/a
2583.486	n/a	REC_WORD	1291743	wordpools/wasnorm_wordpool.txt	LTP125	ltpFR	7	8	1	LAMB	797	n/a	1	n/a	0	0	0	n/a	n/a	n/a	n/a	n/a
2585.128	n/a	REC_WORD	1292564	wordpools/wasnorm_wordpool.txt	LTP125	ltpFR	7	8	1	SHRUB	1299	n/a	0	n/a	0	0	0	n/a	n/a	n/a	n/a	n/a
2598.846	n/a	REC_WORD	1299423	wordpools/wasnorm_wordpool.txt	LTP125	ltpFR	7	8	1	JAPAN	749	n/a	0	n/a	0	0	0	n/a	n/a	n/a	n/a	n/a
2600.138	n/a	REC_WORD	1300069	wordpools/wasnorm_wordpool.txt	LTP125	ltpFR	7	8	1	LEVER	815	n/a	0	n/a	0	0	0	n/a	n/a	n/a	n/a	n/a
2607.352	n/a	REC_WORD	1303676	wordpools/wasnorm_wordpool.txt	LTP125	ltpFR	7	8	1	SPICE	1350	n/a	0	n/a	0	0	0	n/a	n/a	n/a	n/a	n/a
2659.314	n/a	WORD	1329657	wordpools/wasnorm_wordpool.txt	LTP125	ltpFR	7	9	1	RANCH	1166	n/a	0	n/a	0	0	0	1	0.412841796875	0.57763671875	upper	../fonts/zerothre.ttf
2663.338	n/a	WORD	1331669	wordpools/wasnorm_wordpool.txt	LTP125	ltpFR	7	9	1	UNICORN	1538	n/a	1	n/a	0	0	0	1	0.412841796875	0.57763671875	upper	../fonts/zerothre.ttf
2667.552	n/a	WORD	1333776	wordpools/wasnorm_wordpool.txt	LTP125	ltpFR	7	9	1	ANT	25	n/a	1	n/a	0	0	0	1	0.412841796875	0.57763671875	upper	../fonts/zerothre.ttf
2671.676	n/a	WORD	1335838	wordpools/wasnorm_wordpool.txt	LTP125	ltpFR	7	9	1	LAKE	796	n/a	0	n/a	0	0	0	1	0.412841796875	0.57763671875	upper	../fonts/zerothre.ttf
2675.866	n/a	WORD	1337933	wordpools/wasnorm_wordpool.txt	LTP125	ltpFR	7	9	1	DRIVEWAY	500	n/a	0	n/a	0	0	0	1	0.412841796875	0.57763671875	upper	../fonts/zerothre.ttf
2679.95	n/a	WORD	1339975	wordpools/wasnorm_wordpool.txt	LTP125	ltpFR	7	9	1	SPIDER	1351	n/a	1	n/a	0	0	0	1	0.412841796875	0.57763671875	upper	../fonts/zerothre.ttf
2683.782	n/a	WORD	1341891	wordpools/wasnorm_wordpool.txt	LTP125	ltpFR	7	9	1	WEED	1599	n/a	0	n/a	0	0	0	1	0.412841796875	0.57763671875	upper	../fonts/zerothre.ttf
2687.98	n/a	WORD	1343990	wordpools/wasnorm_wordpool.txt	LTP125	ltpFR	7	9	1	PUPPY	1144	n/a	1	n/a	0	0	0	1	0.412841796875	0.57763671875	upper	../fonts/zerothre.ttf
2692.07	n/a	WORD	1346035	wordpools/wasnorm_wordpool.txt	LTP125	ltpFR	7	9	1	AIRPLANE	12	n/a	0	n/a	0	0	0	1	0.412841796875	0.57763671875	upper	../fonts/zerothre.ttf
2696.244	n/a	WORD	1348122	wordpools/wasnorm_wordpool.txt	LTP125	ltpFR	7	9	1	COLONEL	348	n/a	1	n/a	0	0	0	1	0.412841796875	0.57763671875	upper	../fonts/zerothre.ttf
2700.36	n/a	WORD	1350180	wordpools/wasnorm_wordpool.txt	LTP125	ltpFR	7	9	1	MAYONNAISE	880	n/a	0	n/a	0	0	0	1	0.412841796875	0.57763671875	upper	../fonts/zerothre.ttf
2704.55	n/a	WORD	1352275	wordpools/wasnorm_wordpool.txt	LTP125	ltpFR	7	9	1	RICE	1190	n/a	0	n/a	0	0	0	1	0.412841796875	0.57763671875	upper	../fonts/zerothre.ttf
2708.516	n/a	WORD	1354258	wordpools/wasnorm_wordpool.txt	LTP125	ltpFR	7	9	1	PRAIRIE	1118	n/a	1	n/a	0	0	0	1	0.412841796875	0.57763671875	upper	../fonts/zerothre.ttf
2712.506	n/a	WORD	1356253	wordpools/wasnorm_wordpool.txt	LTP125	ltpFR	7	9	1	SPONGE	1355	n/a	0	n/a	0	0	0	1	0.412841796875	0.57763671875	upper	../fonts/zerothre.ttf
2716.664	n/a	WORD	1358332	wordpools/wasnorm_wordpool.txt	LTP125	ltpFR	7	9	1	STEAM	1375	n/a	0	n/a	0	0	0	1	0.412841796875	0.57763671875	upper	../fonts/zerothre.ttf
2720.578	n/a	WORD	1360289	wordpools/wasnorm_wordpool.txt	LTP125	ltpFR	7	9	1	ISLAND	745	n/a	0	n/a	0	0	0	1	0.412841796875	0.57763671875	upper	../fonts/zerothre.ttf
2723.586	n/a	START	1361793	n/a	LTP125	ltpFR	7	n/a	n/a	n/a	n/a	n/a	n/a	n/a	n/a	n/a	n/a	n/a	n/a	n/a	n/a	n/a
2724.41	n/a	PROB	1362205	n/a	LTP125	ltpFR	7	n/a	n/a	n/a	n/a	n/a	n/a	12	2	9	1	n/a	n/a	n/a	n/a	n/a
2726.176	n/a	PROB	1363088	n/a	LTP125	ltpFR	7	n/a	n/a	n/a	n/a	n/a	n/a	13	3	6	4	n/a	n/a	n/a	n/a	n/a
2727.576	n/a	PROB	1363788	n/a	LTP125	ltpFR	7	n/a	n/a	n/a	n/a	n/a	n/a	13	3	5	5	n/a	n/a	n/a	n/a	n/a
2728.784	n/a	PROB	1364392	n/a	LTP125	ltpFR	7	n/a	n/a	n/a	n/a	n/a	n/a	13	3	2	8	n/a	n/a	n/a	n/a	n/a
2730.0	n/a	PROB	1365000	n/a	LTP125	ltpFR	7	n/a	n/a	n/a	n/a	n/a	n/a	10	5	4	1	n/a	n/a	n/a	n/a	n/a
2731.55	n/a	PROB	1365775	n/a	LTP125	ltpFR	7	n/a	n/a	n/a	n/a	n/a	n/a	9	2	3	4	n/a	n/a	n/a	n/a	n/a
2734.0	n/a	PROB	1367000	n/a	LTP125	ltpFR	7	n/a	n/a	n/a	n/a	n/a	n/a	14	4	4	6	n/a	n/a	n/a	n/a	n/a
2735.416	n/a	PROB	1367708	n/a	LTP125	ltpFR	7	n/a	n/a	n/a	n/a	n/a	n/a	21	7	6	8	n/a	n/a	n/a	n/a	n/a
2737.24	n/a	PROB	1368620	n/a	LTP125	ltpFR	7	n/a	n/a	n/a	n/a	n/a	n/a	16	6	4	6	n/a	n/a	n/a	n/a	n/a
2738.638	n/a	STOP	1369319	n/a	LTP125	ltpFR	7	n/a	n/a	n/a	n/a	n/a	n/a	n/a	n/a	n/a	n/a	n/a	n/a	n/a	n/a	n/a
2741.448	n/a	REC_START	1370724	n/a	LTP125	ltpFR	7	9	n/a	n/a	n/a	n/a	n/a	n/a	0	0	0	n/a	n/a	n/a	n/a	n/a
2742.386	n/a	REC_WORD	1371193	wordpools/wasnorm_wordpool.txt	LTP125	ltpFR	7	9	1	RANCH	1166	n/a	0	n/a	0	0	0	n/a	n/a	n/a	n/a	n/a
2743.668	n/a	REC_WORD	1371834	wordpools/wasnorm_wordpool.txt	LTP125	ltpFR	7	9	1	UNICORN	1538	n/a	1	n/a	0	0	0	n/a	n/a	n/a	n/a	n/a
2746.222	n/a	REC_WORD	1373111	wordpools/wasnorm_wordpool.txt	LTP125	ltpFR	7	9	1	ANT	25	n/a	1	n/a	0	0	0	n/a	n/a	n/a	n/a	n/a
2747.324	n/a	REC_WORD	1373662	wordpools/wasnorm_wordpool.txt	LTP125	ltpFR	7	9	1	DRIVEWAY	500	n/a	0	n/a	0	0	0	n/a	n/a	n/a	n/a	n/a
2748.646	n/a	REC_WORD	1374323	wordpools/wasnorm_wordpool.txt	LTP125	ltpFR	7	9	1	LAKE	796	n/a	0	n/a	0	0	0	n/a	n/a	n/a	n/a	n/a
2750.462	n/a	REC_WORD	1375231	wordpools/wasnorm_wordpool.txt	LTP125	ltpFR	7	9	1	PUPPY	1144	n/a	1	n/a	0	0	0	n/a	n/a	n/a	n/a	n/a
2751.864	n/a	REC_WORD	1375932	wordpools/wasnorm_wordpool.txt	LTP125	ltpFR	7	9	1	PRAIRIE	1118	n/a	1	n/a	0	0	0	n/a	n/a	n/a	n/a	n/a
2757.752	n/a	REC_WORD	1378876	wordpools/wasnorm_wordpool.txt	LTP125	ltpFR	7	9	1	STEAM	1375	n/a	0	n/a	0	0	0	n/a	n/a	n/a	n/a	n/a
2775.892	n/a	REC_WORD	1387946	wordpools/wasnorm_wordpool.txt	LTP125	ltpFR	7	9	1	ISLAND	745	n/a	0	n/a	0	0	0	n/a	n/a	n/a	n/a	n/a
2796.67	n/a	REC_WORD	1398335	wordpools/wasnorm_wordpool.txt	LTP125	ltpFR	7	9	1	MAYONNAISE	880	n/a	0	n/a	0	0	0	n/a	n/a	n/a	n/a	n/a
2797.754	n/a	REC_WORD	1398877	wordpools/wasnorm_wordpool.txt	LTP125	ltpFR	7	9	1	COLONEL	348	n/a	1	n/a	0	0	0	n/a	n/a	n/a	n/a	n/a
2798.83	n/a	REC_WORD	1399415	wordpools/wasnorm_wordpool.txt	LTP125	ltpFR	7	9	1	RICE	1190	n/a	0	n/a	0	0	0	n/a	n/a	n/a	n/a	n/a
2814.85	n/a	REC_WORD	1407425	wordpools/wasnorm_wordpool.txt	LTP125	ltpFR	7	9	1	WEED	1599	n/a	0	n/a	0	0	0	n/a	n/a	n/a	n/a	n/a
2823.148	n/a	WORD	1411574	wordpools/wasnorm_wordpool.txt	LTP125	ltpFR	7	10	1	SOFTBALL	1343	n/a	0	n/a	0	0	0	1	0.412841796875	0.57763671875	upper	../fonts/zerothre.ttf
2827.212	n/a	WORD	1413606	wordpools/wasnorm_wordpool.txt	LTP125	ltpFR	7	10	1	DECK	443	n/a	0	n/a	0	0	0	1	0.412841796875	0.57763671875	upper	../fonts/zerothre.ttf
2831.196	n/a	WORD	1415598	wordpools/wasnorm_wordpool.txt	LTP125	ltpFR	7	10	1	HOSTAGE	722	n/a	1	n/a	0	0	0	1	0.412841796875	0.57763671875	upper	../fonts/zerothre.ttf
2835.386	n/a	WORD	1417693	wordpools/wasnorm_wordpool.txt	LTP125	ltpFR	7	10	1	OX	994	n/a	1	n/a	0	0	0	1	0.412841796875	0.57763671875	upper	../fonts/zerothre.ttf
2839.302	n/a	WORD	1419651	wordpools/wasnorm_wordpool.txt	LTP125	ltpFR	7	10	1	MILK	895	n/a	0	n/a	0	0	0	1	0.412841796875	0.57763671875	upper	../fonts/zerothre.ttf
2843.25	n/a	WORD	1421625	wordpools/wasnorm_wordpool.txt	LTP125	ltpFR	7	10	1	CABLE	213	n/a	0	n/a	0	0	0	1	0.412841796875	0.57763671875	upper	../fonts/zerothre.ttf
2847.356	n/a	WORD	1423678	wordpools/wasnorm_wordpool.txt	LTP125	ltpFR	7	10	1	YOLK	1633	n/a	0	n/a	0	0	0	1	0.412841796875	0.57763671875	upper	../fonts/zerothre.ttf
2851.224	n/a	WORD	1425612	wordpools/wasnorm_wordpool.txt	LTP125	ltpFR	7	10	1	REPTILE	1185	n/a	1	n/a	0	0	0	1	0.412841796875	0.57763671875	upper	../fonts/zerothre.ttf
2855.288	n/a	WORD	1427644	wordpools/wasnorm_wordpool.txt	LTP125	ltpFR	7	10	1	STAKE	1368	n/a	0	n/a	0	0	0	1	0.412841796875	0.57763671875	upper	../fonts/zerothre.ttf
2859.312	n/a	WORD	1429656	wordpools/wasnorm_wordpool.txt	LTP125	ltpFR	7	10	1	BOWL	158	n/a	0	n/a	0	0	0	1	0.412841796875	0.57763671875	upper	../fonts/zerothre.ttf
2863.444	n/a	WORD	1431722	wordpools/wasnorm_wordpool.txt	LTP125	ltpFR	7	10	1	MICROWAVE	892	n/a	0	n/a	0	0	0	1	0.412841796875	0.57763671875	upper	../fonts/zerothre.ttf
2867.584	n/a	WORD	1433792	wordpools/wasnorm_wordpool.txt	LTP125	ltpFR	7	10	1	TAG	1429	n/a	0	n/a	0	0	0	1	0.412841796875	0.57763671875	upper	../fonts/zerothre.ttf
2871.566	n/a	WORD	1435783	wordpools/wasnorm_wordpool.txt	LTP125	ltpFR	7	10	1	SNAKE	1333	n/a	1	n/a	0	0	0	1	0.412841796875	0.57763671875	upper	../fonts/zerothre.ttf
2875.732	n/a	WORD	1437866	wordpools/wasnorm_wordpool.txt	LTP125	ltpFR	7	10	1	MOAT	903	n/a	0	n/a	0	0	0	1	0.412841796875	0.57763671875	upper	../fonts/zerothre.ttf
2879.73	n/a	WORD	1439865	wordpools/wasnorm_wordpool.txt	LTP125	ltpFR	7	10	1	SHELF	1280	n/a	0	n/a	0	0	0	1	0.412841796875	0.57763671875	upper	../fonts/zerothre.ttf
2883.762	n/a	WORD	1441881	wordpools/wasnorm_wordpool.txt	LTP125	ltpFR	7	10	1	PUBLISHER	1137	n/a	1	n/a	0	0	0	1	0.412841796875	0.57763671875	upper	../fonts/zerothre.ttf
2886.77	n/a	START	1443385	n/a	LTP125	ltpFR	7	n/a	n/a	n/a	n/a	n/a	n/a	n/a	n/a	n/a	n/a	n/a	n/a	n/a	n/a	n/a
2887.788	n/a	PROB	1443894	n/a	LTP125	ltpFR	7	n/a	n/a	n/a	n/a	n/a	n/a	16	9	2	5	n/a	n/a	n/a	n/a	n/a
2890.17	n/a	PROB	1445085	n/a	LTP125	ltpFR	7	n/a	n/a	n/a	n/a	n/a	n/a	21	8	6	7	n/a	n/a	n/a	n/a	n/a
2893.446	n/a	STOP	1446723	n/a	LTP125	ltpFR	7	n/a	n/a	n/a	n/a	n/a	n/a	n/a	n/a	n/a	n/a	n/a	n/a	n/a	n/a	n/a
2896.692	n/a	REC_START	1448346	n/a	LTP125	ltpFR	7	10	n/a	n/a	n/a	n/a	n/a	n/a	0	0	0	n/a	n/a	n/a	n/a	n/a
2899.47	n/a	REC_WORD	1449735	wordpools/wasnorm_wordpool.txt	LTP125	ltpFR	7	10	1	HOSTAGE	722	n/a	1	n/a	0	0	0	n/a	n/a	n/a	n/a	n/a
2900.564	n/a	REC_WORD	1450282	wordpools/wasnorm_wordpool.txt	LTP125	ltpFR	7	10	1	OX	994	n/a	1	n/a	0	0	0	n/a	n/a	n/a	n/a	n/a
2901.372	n/a	REC_WORD	1450686	wordpools/wasnorm_wordpool.txt	LTP125	ltpFR	7	10	1	MILK	895	n/a	0	n/a	0	0	0	n/a	n/a	n/a	n/a	n/a
2902.394	n/a	REC_WORD	1451197	wordpools/wasnorm_wordpool.txt	LTP125	ltpFR	7	10	1	STAKE	1368	n/a	0	n/a	0	0	0	n/a	n/a	n/a	n/a	n/a
2903.742	n/a	REC_WORD	1451871	wordpools/wasnorm_wordpool.txt	LTP125	ltpFR	7	10	1	BOWL	158	n/a	0	n/a	0	0	0	n/a	n/a	n/a	n/a	n/a
2904.774	n/a	REC_WORD	1452387	wordpools/wasnorm_wordpool.txt	LTP125	ltpFR	7	10	1	REPTILE	1185	n/a	1	n/a	0	0	0	n/a	n/a	n/a	n/a	n/a
2905.99	n/a	REC_WORD	1452995	wordpools/wasnorm_wordpool.txt	LTP125	ltpFR	7	10	1	SNAKE	1333	n/a	1	n/a	0	0	0	n/a	n/a	n/a	n/a	n/a
2934.942	n/a	REC_WORD	1467471	wordpools/wasnorm_wordpool.txt	LTP125	ltpFR	7	10	1	CABLE	213	n/a	0	n/a	0	0	0	n/a	n/a	n/a	n/a	n/a
2972.294	n/a	REST_REWET	1486147	n/a	LTP125	ltpFR	7	10	n/a	n/a	n/a	n/a	n/a	n/a	0	0	0	n/a	n/a	n/a	n/a	n/a
3336.778	n/a	START	1668389	n/a	LTP125	ltpFR	7	n/a	n/a	n/a	n/a	n/a	n/a	n/a	n/a	n/a	n/a	n/a	n/a	n/a	n/a	n/a
3338.284	n/a	PROB	1669142	n/a	LTP125	ltpFR	7	n/a	n/a	n/a	n/a	n/a	n/a	10	1	1	8	n/a	n/a	n/a	n/a	n/a
3339.892	n/a	PROB	1669946	n/a	LTP125	ltpFR	7	n/a	n/a	n/a	n/a	n/a	n/a	12	1	7	4	n/a	n/a	n/a	n/a	n/a
3342.0	n/a	PROB	1671000	n/a	LTP125	ltpFR	7	n/a	n/a	n/a	n/a	n/a	n/a	12	4	2	5	n/a	n/a	n/a	n/a	n/a
3344.0	n/a	PROB	1672000	n/a	LTP125	ltpFR	7	n/a	n/a	n/a	n/a	n/a	n/a	7	2	3	2	n/a	n/a	n/a	n/a	n/a
3345.79	n/a	PROB	1672895	n/a	LTP125	ltpFR	7	n/a	n/a	n/a	n/a	n/a	n/a	14	8	3	3	n/a	n/a	n/a	n/a	n/a
3348.266	n/a	PROB	1674133	n/a	LTP125	ltpFR	7	n/a	n/a	n/a	n/a	n/a	n/a	17	6	8	3	n/a	n/a	n/a	n/a	n/a
3352.778	n/a	STOP	1676389	n/a	LTP125	ltpFR	7	n/a	n/a	n/a	n/a	n/a	n/a	n/a	n/a	n/a	n/a	n/a	n/a	n/a	n/a	n/a
3353.914	n/a	WORD	1676957	wordpools/wasnorm_wordpool.txt	LTP125	ltpFR	7	11	0	PRISONER	1128	n/a	0	n/a	0	0	0	0	0.5869140625	0.422607421875	lower	../fonts/amplitud.ttf
3356.92	n/a	START	1678460	n/a	LTP125	ltpFR	7	n/a	n/a	n/a	n/a	n/a	n/a	n/a	n/a	n/a	n/a	n/a	n/a	n/a	n/a	n/a
3358.07	n/a	PROB	1679035	n/a	LTP125	ltpFR	7	n/a	n/a	n/a	n/a	n/a	n/a	18	5	9	4	n/a	n/a	n/a	n/a	n/a
3361.544	n/a	PROB	1680772	n/a	LTP125	ltpFR	7	n/a	n/a	n/a	n/a	n/a	n/a	24	6	7	9	n/a	n/a	n/a	n/a	n/a
3363.66	n/a	PROB	1681830	n/a	LTP125	ltpFR	7	n/a	n/a	n/a	n/a	n/a	n/a	11	1	2	8	n/a	n/a	n/a	n/a	n/a
3365.0	n/a	PROB	1682500	n/a	LTP125	ltpFR	7	n/a	n/a	n/a	n/a	n/a	n/a	17	8	5	4	n/a	n/a	n/a	n/a	n/a
3367.076	n/a	PROB	1683538	n/a	LTP125	ltpFR	7	n/a	n/a	n/a	n/a	n/a	n/a	15	5	1	9	n/a	n/a	n/a	n/a	n/a
3368.384	n/a	PROB	1684192	n/a	LTP125	ltpFR	7	n/a	n/a	n/a	n/a	n/a	n/a	17	5	3	9	n/a	n/a	n/a	n/a	n/a
3370.208	n/a	PROB	1685104	n/a	LTP125	ltpFR	7	n/a	n/a	n/a	n/a	n/a	n/a	15	1	7	7	n/a	n/a	n/a	n/a	n/a
3371.534	n/a	STOP	1685767	n/a	LTP125	ltpFR	7	n/a	n/a	n/a	n/a	n/a	n/a	n/a	n/a	n/a	n/a	n/a	n/a	n/a	n/a	n/a
3373.974	n/a	WORD	1686987	wordpools/wasnorm_wordpool.txt	LTP125	ltpFR	7	11	0	CRUMB	416	n/a	0	n/a	0	0	0	0	0.5869140625	0.422607421875	lower	../fonts/amplitud.ttf
3376.982	n/a	START	1688491	n/a	LTP125	ltpFR	7	n/a	n/a	n/a	n/a	n/a	n/a	n/a	n/a	n/a	n/a	n/a	n/a	n/a	n/a	n/a
3378.164	n/a	PROB	1689082	n/a	LTP125	ltpFR	7	n/a	n/a	n/a	n/a	n/a	n/a	14	3	7	4	n/a	n/a	n/a	n/a	n/a
3379.846	n/a	PROB	1689923	n/a	LTP125	ltpFR	7	n/a	n/a	n/a	n/a	n/a	n/a	21	5	8	8	n/a	n/a	n/a	n/a	n/a
3381.438	n/a	PROB	1690719	n/a	LTP125	ltpFR	7	n/a	n/a	n/a	n/a	n/a	n/a	24	9	6	9	n/a	n/a	n/a	n/a	n/a
3385.28	n/a	PROB	1692640	n/a	LTP125	ltpFR	7	n/a	n/a	n/a	n/a	n/a	n/a	16	5	6	5	n/a	n/a	n/a	n/a	n/a
3387.736	n/a	PROB	1693868	n/a	LTP125	ltpFR	7	n/a	n/a	n/a	n/a	n/a	n/a	16	4	6	6	n/a	n/a	n/a	n/a	n/a
3389.478	n/a	PROB	1694739	n/a	LTP125	ltpFR	7	n/a	n/a	n/a	n/a	n/a	n/a	10	7	1	2	n/a	n/a	n/a	n/a	n/a
3390.968	n/a	PROB	1695484	n/a	LTP125	ltpFR	7	n/a	n/a	n/a	n/a	n/a	n/a	17	4	8	5	n/a	n/a	n/a	n/a	n/a
3392.576	n/a	STOP	1696288	n/a	LTP125	ltpFR	7	n/a	n/a	n/a	n/a	n/a	n/a	n/a	n/a	n/a	n/a	n/a	n/a	n/a	n/a	n/a
3393.918	n/a	WORD	1696959	wordpools/wasnorm_wordpool.txt	LTP125	ltpFR	7	11	0	FIN	566	n/a	0	n/a	0	0	0	0	0.5869140625	0.422607421875	lower	../fonts/amplitud.ttf
3396.926	n/a	START	1698463	n/a	LTP125	ltpFR	7	n/a	n/a	n/a	n/a	n/a	n/a	n/a	n/a	n/a	n/a	n/a	n/a	n/a	n/a	n/a
3397.932	n/a	PROB	1698966	n/a	LTP125	ltpFR	7	n/a	n/a	n/a	n/a	n/a	n/a	13	5	5	3	n/a	n/a	n/a	n/a	n/a
3399.358	n/a	PROB	1699679	n/a	LTP125	ltpFR	7	n/a	n/a	n/a	n/a	n/a	n/a	23	9	8	6	n/a	n/a	n/a	n/a	n/a
3401.398	n/a	PROB	1700699	n/a	LTP125	ltpFR	7	n/a	n/a	n/a	n/a	n/a	n/a	16	6	1	9	n/a	n/a	n/a	n/a	n/a
3402.832	n/a	PROB	1701416	n/a	LTP125	ltpFR	7	n/a	n/a	n/a	n/a	n/a	n/a	13	5	5	3	n/a	n/a	n/a	n/a	n/a
3404.364	n/a	PROB	1702182	n/a	LTP125	ltpFR	7	n/a	n/a	n/a	n/a	n/a	n/a	11	1	2	8	n/a	n/a	n/a	n/a	n/a
3405.822	n/a	PROB	1702911	n/a	LTP125	ltpFR	7	n/a	n/a	n/a	n/a	n/a	n/a	15	1	9	5	n/a	n/a	n/a	n/a	n/a
3407.048	n/a	PROB	1703524	n/a	LTP125	ltpFR	7	n/a	n/a	n/a	n/a	n/a	n/a	16	6	1	9	n/a	n/a	n/a	n/a	n/a
3408.388	n/a	PROB	1704194	n/a	LTP125	ltpFR	7	n/a	n/a	n/a	n/a	n/a	n/a	17	9	1	7	n/a	n/a	n/a	n/a	n/a
3411.42	n/a	PROB	1705710	n/a	LTP125	ltpFR	7	n/a	n/a	n/a	n/a	n/a	n/a	18	4	6	8	n/a	n/a	n/a	n/a	n/a
3412.84	n/a	STOP	1706420	n/a	LTP125	ltpFR	7	n/a	n/a	n/a	n/a	n/a	n/a	n/a	n/a	n/a	n/a	n/a	n/a	n/a	n/a	n/a
3413.994	n/a	WORD	1706997	wordpools/wasnorm_wordpool.txt	LTP125	ltpFR	7	11	0	EARRING	514	n/a	0	n/a	0	0	0	0	0.5869140625	0.422607421875	lower	../fonts/amplitud.ttf
3417.002	n/a	START	1708501	n/a	LTP125	ltpFR	7	n/a	n/a	n/a	n/a	n/a	n/a	n/a	n/a	n/a	n/a	n/a	n/a	n/a	n/a	n/a
3417.96	n/a	PROB	1708980	n/a	LTP125	ltpFR	7	n/a	n/a	n/a	n/a	n/a	n/a	14	3	9	2	n/a	n/a	n/a	n/a	n/a
3419.86	n/a	PROB	1709930	n/a	LTP125	ltpFR	7	n/a	n/a	n/a	n/a	n/a	n/a	10	2	2	6	n/a	n/a	n/a	n/a	n/a
3422.168	n/a	PROB	1711084	n/a	LTP125	ltpFR	7	n/a	n/a	n/a	n/a	n/a	n/a	18	9	7	2	n/a	n/a	n/a	n/a	n/a
3424.126	n/a	PROB	1712063	n/a	LTP125	ltpFR	7	n/a	n/a	n/a	n/a	n/a	n/a	5	2	1	2	n/a	n/a	n/a	n/a	n/a
3425.826	n/a	PROB	1712913	n/a	LTP125	ltpFR	7	n/a	n/a	n/a	n/a	n/a	n/a	14	6	2	6	n/a	n/a	n/a	n/a	n/a
3427.316	n/a	PROB	1713658	n/a	LTP125	ltpFR	7	n/a	n/a	n/a	n/a	n/a	n/a	13	1	4	8	n/a	n/a	n/a	n/a	n/a
3428.658	n/a	PROB	1714329	n/a	LTP125	ltpFR	7	n/a	n/a	n/a	n/a	n/a	n/a	17	7	2	8	n/a	n/a	n/a	n/a	n/a
3430.782	n/a	PROB	1715391	n/a	LTP125	ltpFR	7	n/a	n/a	n/a	n/a	n/a	n/a	14	3	4	7	n/a	n/a	n/a	n/a	n/a
3432.082	n/a	STOP	1716041	n/a	LTP125	ltpFR	7	n/a	n/a	n/a	n/a	n/a	n/a	n/a	n/a	n/a	n/a	n/a	n/a	n/a	n/a	n/a
3433.89	n/a	WORD	1716945	wordpools/wasnorm_wordpool.txt	LTP125	ltpFR	7	11	0	GOLD	647	n/a	0	n/a	0	0	0	0	0.5869140625	0.422607421875	lower	../fonts/amplitud.ttf
3436.896	n/a	START	1718448	n/a	LTP125	ltpFR	7	n/a	n/a	n/a	n/a	n/a	n/a	n/a	n/a	n/a	n/a	n/a	n/a	n/a	n/a	n/a
3438.012	n/a	PROB	1719006	n/a	LTP125	ltpFR	7	n/a	n/a	n/a	n/a	n/a	n/a	19	5	8	6	n/a	n/a	n/a	n/a	n/a
3439.612	n/a	PROB	1719806	n/a	LTP125	ltpFR	7	n/a	n/a	n/a	n/a	n/a	n/a	18	7	8	3	n/a	n/a	n/a	n/a	n/a
3442.402	n/a	PROB	1721201	n/a	LTP125	ltpFR	7	n/a	n/a	n/a	n/a	n/a	n/a	19	7	4	8	n/a	n/a	n/a	n/a	n/a
3444.486	n/a	PROB	1722243	n/a	LTP125	ltpFR	7	n/a	n/a	n/a	n/a	n/a	n/a	22	8	9	5	n/a	n/a	n/a	n/a	n/a
3446.51	n/a	PROB	1723255	n/a	LTP125	ltpFR	7	n/a	n/a	n/a	n/a	n/a	n/a	16	8	4	2	n/a	n/a	n/a	n/a	n/a
3448.076	n/a	PROB	1724038	n/a	LTP125	ltpFR	7	n/a	n/a	n/a	n/a	n/a	n/a	7	3	1	2	n/a	n/a	n/a	n/a	n/a
3450.226	n/a	PROB	1725113	n/a	LTP125	ltpFR	7	n/a	n/a	n/a	n/a	n/a	n/a	12	1	5	6	n/a	n/a	n/a	n/a	n/a
3452.274	n/a	STOP	1726137	n/a	LTP125	ltpFR	7	n/a	n/a	n/a	n/a	n/a	n/a	n/a	n/a	n/a	n/a	n/a	n/a	n/a	n/a	n/a
3453.882	n/a	WORD	1726941	wordpools/wasnorm_wordpool.txt	LTP125	ltpFR	7	11	0	CAMERA	224	n/a	0	n/a	0	0	0	0	0.5869140625	0.422607421875	lower	../fonts/amplitud.ttf
3456.89	n/a	START	1728445	n/a	LTP125	ltpFR	7	n/a	n/a	n/a	n/a	n/a	n/a	n/a	n/a	n/a	n/a	n/a	n/a	n/a	n/a	n/a
3457.956	n/a	PROB	1728978	n/a	LTP125	ltpFR	7	n/a	n/a	n/a	n/a	n/a	n/a	13	7	2	4	n/a	n/a	n/a	n/a	n/a
3460.214	n/a	PROB	1730107	n/a	LTP125	ltpFR	7	n/a	n/a	n/a	n/a	n/a	n/a	8	3	1	4	n/a	n/a	n/a	n/a	n/a
3462.28	n/a	PROB	1731140	n/a	LTP125	ltpFR	7	n/a	n/a	n/a	n/a	n/a	n/a	14	2	4	8	n/a	n/a	n/a	n/a	n/a
3463.756	n/a	PROB	1731878	n/a	LTP125	ltpFR	7	n/a	n/a	n/a	n/a	n/a	n/a	9	1	3	5	n/a	n/a	n/a	n/a	n/a
3464.996	n/a	PROB	1732498	n/a	LTP125	ltpFR	7	n/a	n/a	n/a	n/a	n/a	n/a	17	9	7	1	n/a	n/a	n/a	n/a	n/a
3466.746	n/a	PROB	1733373	n/a	LTP125	ltpFR	7	n/a	n/a	n/a	n/a	n/a	n/a	8	1	1	6	n/a	n/a	n/a	n/a	n/a
3467.978	n/a	PROB	1733989	n/a	LTP125	ltpFR	7	n/a	n/a	n/a	n/a	n/a	n/a	14	2	3	9	n/a	n/a	n/a	n/a	n/a
3470.104	n/a	PROB	1735052	n/a	LTP125	ltpFR	7	n/a	n/a	n/a	n/a	n/a	n/a	23	6	9	8	n/a	n/a	n/a	n/a	n/a
3472.196	n/a	STOP	1736098	n/a	LTP125	ltpFR	7	n/a	n/a	n/a	n/a	n/a	n/a	n/a	n/a	n/a	n/a	n/a	n/a	n/a	n/a	n/a
3474.018	n/a	WORD	1737009	wordpools/wasnorm_wordpool.txt	LTP125	ltpFR	7	11	0	FLEET	578	n/a	1	n/a	0	0	0	0	0.5869140625	0.422607421875	lower	../fonts/amplitud.ttf
3477.026	n/a	START	1738513	n/a	LTP125	ltpFR	7	n/a	n/a	n/a	n/a	n/a	n/a	n/a	n/a	n/a	n/a	n/a	n/a	n/a	n/a	n/a
3477.958	n/a	PROB	1738979	n/a	LTP125	ltpFR	7	n/a	n/a	n/a	n/a	n/a	n/a	11	7	1	3	n/a	n/a	n/a	n/a	n/a
3479.658	n/a	PROB	1739829	n/a	LTP125	ltpFR	7	n/a	n/a	n/a	n/a	n/a	n/a	16	1	8	7	n/a	n/a	n/a	n/a	n/a
3481.116	n/a	PROB	1740558	n/a	LTP125	ltpFR	7	n/a	n/a	n/a	n/a	n/a	n/a	11	5	1	5	n/a	n/a	n/a	n/a	n/a
3482.174	n/a	PROB	1741087	n/a	LTP125	ltpFR	7	n/a	n/a	n/a	n/a	n/a	n/a	23	7	7	9	n/a	n/a	n/a	n/a	n/a
3485.84	n/a	PROB	1742920	n/a	LTP125	ltpFR	7	n/a	n/a	n/a	n/a	n/a	n/a	14	9	1	4	n/a	n/a	n/a	n/a	n/a
3487.232	n/a	PROB	1743616	n/a	LTP125	ltpFR	7	n/a	n/a	n/a	n/a	n/a	n/a	17	9	3	5	n/a	n/a	n/a	n/a	n/a
3488.582	n/a	PROB	1744291	n/a	LTP125	ltpFR	7	n/a	n/a	n/a	n/a	n/a	n/a	19	7	6	6	n/a	n/a	n/a	n/a	n/a
3491.724	n/a	STOP	1745862	n/a	LTP125	ltpFR	7	n/a	n/a	n/a	n/a	n/a	n/a	n/a	n/a	n/a	n/a	n/a	n/a	n/a	n/a	n/a
3493.988	n/a	WORD	1746994	wordpools/wasnorm_wordpool.txt	LTP125	ltpFR	7	11	0	PISTOL	1075	n/a	0	n/a	0	0	0	0	0.5869140625	0.422607421875	lower	../fonts/amplitud.ttf
3496.996	n/a	START	1748498	n/a	LTP125	ltpFR	7	n/a	n/a	n/a	n/a	n/a	n/a	n/a	n/a	n/a	n/a	n/a	n/a	n/a	n/a	n/a
3498.02	n/a	PROB	1749010	n/a	LTP125	ltpFR	7	n/a	n/a	n/a	n/a	n/a	n/a	17	6	8	3	n/a	n/a	n/a	n/a	n/a
3499.868	n/a	PROB	1749934	n/a	LTP125	ltpFR	7	n/a	n/a	n/a	n/a	n/a	n/a	17	7	7	3	n/a	n/a	n/a	n/a	n/a
3501.27	n/a	PROB	1750635	n/a	LTP125	ltpFR	7	n/a	n/a	n/a	n/a	n/a	n/a	7	2	4	1	n/a	n/a	n/a	n/a	n/a
3502.718	n/a	PROB	1751359	n/a	LTP125	ltpFR	7	n/a	n/a	n/a	n/a	n/a	n/a	18	7	4	7	n/a	n/a	n/a	n/a	n/a
3504.776	n/a	PROB	1752388	n/a	LTP125	ltpFR	7	n/a	n/a	n/a	n/a	n/a	n/a	18	6	3	9	n/a	n/a	n/a	n/a	n/a
3506.784	n/a	PROB	1753392	n/a	LTP125	ltpFR	7	n/a	n/a	n/a	n/a	n/a	n/a	17	8	2	5	n/a	n/a	n/a	n/a	n/a
3509.116	n/a	PROB	1754558	n/a	LTP125	ltpFR	7	n/a	n/a	n/a	n/a	n/a	n/a	6	1	4	1	n/a	n/a	n/a	n/a	n/a
3510.474	n/a	PROB	1755237	n/a	LTP125	ltpFR	7	n/a	n/a	n/a	n/a	n/a	n/a	20	3	8	9	n/a	n/a	n/a	n/a	n/a
3512.598	n/a	STOP	1756299	n/a	LTP125	ltpFR	7	n/a	n/a	n/a	n/a	n/a	n/a	n/a	n/a	n/a	n/a	n/a	n/a	n/a	n/a	n/a
3513.982	n/a	WORD	1756991	wordpools/wasnorm_wordpool.txt	LTP125	ltpFR	7	11	0	TUBA	1515	n/a	1	n/a	0	0	0	0	0.5869140625	0.422607421875	lower	../fonts/amplitud.ttf
3516.988	n/a	START	1758494	n/a	LTP125	ltpFR	7	n/a	n/a	n/a	n/a	n/a	n/a	n/a	n/a	n/a	n/a	n/a	n/a	n/a	n/a	n/a
3517.988	n/a	PROB	1758994	n/a	LTP125	ltpFR	7	n/a	n/a	n/a	n/a	n/a	n/a	19	3	7	9	n/a	n/a	n/a	n/a	n/a
3520.238	n/a	PROB	1760119	n/a	LTP125	ltpFR	7	n/a	n/a	n/a	n/a	n/a	n/a	23	8	9	6	n/a	n/a	n/a	n/a	n/a
3523.788	n/a	PROB	1761894	n/a	LTP125	ltpFR	7	n/a	n/a	n/a	n/a	n/a	n/a	16	5	6	5	n/a	n/a	n/a	n/a	n/a
3525.894	n/a	PROB	1762947	n/a	LTP125	ltpFR	7	n/a	n/a	n/a	n/a	n/a	n/a	13	4	5	4	n/a	n/a	n/a	n/a	n/a
3527.96	n/a	PROB	1763980	n/a	LTP125	ltpFR	7	n/a	n/a	n/a	n/a	n/a	n/a	14	3	9	2	n/a	n/a	n/a	n/a	n/a
3530.094	n/a	PROB	1765047	n/a	LTP125	ltpFR	7	n/a	n/a	n/a	n/a	n/a	n/a	18	8	5	5	n/a	n/a	n/a	n/a	n/a
3531.442	n/a	PROB	1765721	n/a	LTP125	ltpFR	7	n/a	n/a	n/a	n/a	n/a	n/a	11	1	6	4	n/a	n/a	n/a	n/a	n/a
3532.646	n/a	STOP	1766323	n/a	LTP125	ltpFR	7	n/a	n/a	n/a	n/a	n/a	n/a	n/a	n/a	n/a	n/a	n/a	n/a	n/a	n/a	n/a
3533.992	n/a	WORD	1766996	wordpools/wasnorm_wordpool.txt	LTP125	ltpFR	7	11	0	CELLO	268	n/a	1	n/a	0	0	0	0	0.5869140625	0.422607421875	lower	../fonts/amplitud.ttf
3537.0	n/a	START	1768500	n/a	LTP125	ltpFR	7	n/a	n/a	n/a	n/a	n/a	n/a	n/a	n/a	n/a	n/a	n/a	n/a	n/a	n/a	n/a
3537.974	n/a	PROB	1768987	n/a	LTP125	ltpFR	7	n/a	n/a	n/a	n/a	n/a	n/a	15	6	7	2	n/a	n/a	n/a	n/a	n/a
3543.672	n/a	PROB	1771836	n/a	LTP125	ltpFR	7	n/a	n/a	n/a	n/a	n/a	n/a	22	9	4	9	n/a	n/a	n/a	n/a	n/a
3545.63	n/a	PROB	1772815	n/a	LTP125	ltpFR	7	n/a	n/a	n/a	n/a	n/a	n/a	7	2	2	3	n/a	n/a	n/a	n/a	n/a
3547.638	n/a	PROB	1773819	n/a	LTP125	ltpFR	7	n/a	n/a	n/a	n/a	n/a	n/a	22	9	7	6	n/a	n/a	n/a	n/a	n/a
3550.404	n/a	PROB	1775202	n/a	LTP125	ltpFR	7	n/a	n/a	n/a	n/a	n/a	n/a	12	9	1	2	n/a	n/a	n/a	n/a	n/a
3551.696	n/a	STOP	1775848	n/a	LTP125	ltpFR	7	n/a	n/a	n/a	n/a	n/a	n/a	n/a	n/a	n/a	n/a	n/a	n/a	n/a	n/a	n/a
3554.186	n/a	WORD	1777093	wordpools/wasnorm_wordpool.txt	LTP125	ltpFR	7	11	0	MILDEW	893	n/a	0	n/a	0	0	0	0	0.5869140625	0.422607421875	lower	../fonts/amplitud.ttf
3557.194	n/a	START	1778597	n/a	LTP125	ltpFR	7	n/a	n/a	n/a	n/a	n/a	n/a	n/a	n/a	n/a	n/a	n/a	n/a	n/a	n/a	n/a
3558.278	n/a	PROB	1779139	n/a	LTP125	ltpFR	7	n/a	n/a	n/a	n/a	n/a	n/a	22	4	9	9	n/a	n/a	n/a	n/a	n/a
3559.768	n/a	PROB	1779884	n/a	LTP125	ltpFR	7	n/a	n/a	n/a	n/a	n/a	n/a	10	1	1	8	n/a	n/a	n/a	n/a	n/a
3560.992	n/a	PROB	1780496	n/a	LTP125	ltpFR	7	n/a	n/a	n/a	n/a	n/a	n/a	13	6	4	3	n/a	n/a	n/a	n/a	n/a
3562.242	n/a	PROB	1781121	n/a	LTP125	ltpFR	7	n/a	n/a	n/a	n/a	n/a	n/a	13	6	3	4	n/a	n/a	n/a	n/a	n/a
3564.124	n/a	PROB	1782062	n/a	LTP125	ltpFR	7	n/a	n/a	n/a	n/a	n/a	n/a	15	8	4	3	n/a	n/a	n/a	n/a	n/a
3565.95	n/a	PROB	1782975	n/a	LTP125	ltpFR	7	n/a	n/a	n/a	n/a	n/a	n/a	10	7	2	1	n/a	n/a	n/a	n/a	n/a
3568.006	n/a	PROB	1784003	n/a	LTP125	ltpFR	7	n/a	n/a	n/a	n/a	n/a	n/a	10	6	2	2	n/a	n/a	n/a	n/a	n/a
3573.194	n/a	STOP	1786597	n/a	LTP125	ltpFR	7	n/a	n/a	n/a	n/a	n/a	n/a	n/a	n/a	n/a	n/a	n/a	n/a	n/a	n/a	n/a
3574.372	n/a	WORD	1787186	wordpools/wasnorm_wordpool.txt	LTP125	ltpFR	7	11	0	LAWN	805	n/a	1	n/a	0	0	0	0	0.5869140625	0.422607421875	lower	../fonts/amplitud.ttf
3577.38	n/a	START	1788690	n/a	LTP125	ltpFR	7	n/a	n/a	n/a	n/a	n/a	n/a	n/a	n/a	n/a	n/a	n/a	n/a	n/a	n/a	n/a
3578.38	n/a	PROB	1789190	n/a	LTP125	ltpFR	7	n/a	n/a	n/a	n/a	n/a	n/a	11	4	4	3	n/a	n/a	n/a	n/a	n/a
3580.32	n/a	PROB	1790160	n/a	LTP125	ltpFR	7	n/a	n/a	n/a	n/a	n/a	n/a	19	7	9	3	n/a	n/a	n/a	n/a	n/a
3582.178	n/a	PROB	1791089	n/a	LTP125	ltpFR	7	n/a	n/a	n/a	n/a	n/a	n/a	15	6	6	3	n/a	n/a	n/a	n/a	n/a
3583.57	n/a	PROB	1791785	n/a	LTP125	ltpFR	7	n/a	n/a	n/a	n/a	n/a	n/a	15	2	9	4	n/a	n/a	n/a	n/a	n/a
3585.344	n/a	PROB	1792672	n/a	LTP125	ltpFR	7	n/a	n/a	n/a	n/a	n/a	n/a	20	5	7	8	n/a	n/a	n/a	n/a	n/a
3586.952	n/a	PROB	1793476	n/a	LTP125	ltpFR	7	n/a	n/a	n/a	n/a	n/a	n/a	10	2	2	6	n/a	n/a	n/a	n/a	n/a
3588.65	n/a	PROB	1794325	n/a	LTP125	ltpFR	7	n/a	n/a	n/a	n/a	n/a	n/a	21	9	5	7	n/a	n/a	n/a	n/a	n/a
3591.516	n/a	PROB	1795758	n/a	LTP125	ltpFR	7	n/a	n/a	n/a	n/a	n/a	n/a	15	4	2	9	n/a	n/a	n/a	n/a	n/a
3593.274	n/a	STOP	1796637	n/a	LTP125	ltpFR	7	n/a	n/a	n/a	n/a	n/a	n/a	n/a	n/a	n/a	n/a	n/a	n/a	n/a	n/a	n/a
3594.306	n/a	WORD	1797153	wordpools/wasnorm_wordpool.txt	LTP125	ltpFR	7	11	0	TUB	1514	n/a	1	n/a	0	0	0	0	0.5869140625	0.422607421875	lower	../fonts/amplitud.ttf
3597.316	n/a	START	1798658	n/a	LTP125	ltpFR	7	n/a	n/a	n/a	n/a	n/a	n/a	n/a	n/a	n/a	n/a	n/a	n/a	n/a	n/a	n/a
3598.49	n/a	PROB	1799245	n/a	LTP125	ltpFR	7	n/a	n/a	n/a	n/a	n/a	n/a	13	3	3	7	n/a	n/a	n/a	n/a	n/a
3599.84	n/a	PROB	1799920	n/a	LTP125	ltpFR	7	n/a	n/a	n/a	n/a	n/a	n/a	15	3	9	3	n/a	n/a	n/a	n/a	n/a
3601.756	n/a	PROB	1800878	n/a	LTP125	ltpFR	7	n/a	n/a	n/a	n/a	n/a	n/a	12	6	3	3	n/a	n/a	n/a	n/a	n/a
3603.38	n/a	PROB	1801690	n/a	LTP125	ltpFR	7	n/a	n/a	n/a	n/a	n/a	n/a	12	5	6	1	n/a	n/a	n/a	n/a	n/a
3604.472	n/a	PROB	1802236	n/a	LTP125	ltpFR	7	n/a	n/a	n/a	n/a	n/a	n/a	21	8	9	4	n/a	n/a	n/a	n/a	n/a
3607.036	n/a	PROB	1803518	n/a	LTP125	ltpFR	7	n/a	n/a	n/a	n/a	n/a	n/a	14	2	7	5	n/a	n/a	n/a	n/a	n/a
3609.12	n/a	PROB	1804560	n/a	LTP125	ltpFR	7	n/a	n/a	n/a	n/a	n/a	n/a	19	9	9	1	n/a	n/a	n/a	n/a	n/a
3611.218	n/a	PROB	1805609	n/a	LTP125	ltpFR	7	n/a	n/a	n/a	n/a	n/a	n/a	15	1	5	9	n/a	n/a	n/a	n/a	n/a
3612.514	n/a	STOP	1806257	n/a	LTP125	ltpFR	7	n/a	n/a	n/a	n/a	n/a	n/a	n/a	n/a	n/a	n/a	n/a	n/a	n/a	n/a	n/a
3614.41	n/a	WORD	1807205	wordpools/wasnorm_wordpool.txt	LTP125	ltpFR	7	11	0	BARREL	91	n/a	1	n/a	0	0	0	0	0.5869140625	0.422607421875	lower	../fonts/amplitud.ttf
3617.418	n/a	START	1808709	n/a	LTP125	ltpFR	7	n/a	n/a	n/a	n/a	n/a	n/a	n/a	n/a	n/a	n/a	n/a	n/a	n/a	n/a	n/a
3618.342	n/a	PROB	1809171	n/a	LTP125	ltpFR	7	n/a	n/a	n/a	n/a	n/a	n/a	14	7	2	5	n/a	n/a	n/a	n/a	n/a
3620.708	n/a	PROB	1810354	n/a	LTP125	ltpFR	7	n/a	n/a	n/a	n/a	n/a	n/a	14	1	4	9	n/a	n/a	n/a	n/a	n/a
3621.94	n/a	PROB	1810970	n/a	LTP125	ltpFR	7	n/a	n/a	n/a	n/a	n/a	n/a	9	1	5	3	n/a	n/a	n/a	n/a	n/a
3623.298	n/a	PROB	1811649	n/a	LTP125	ltpFR	7	n/a	n/a	n/a	n/a	n/a	n/a	6	3	2	1	n/a	n/a	n/a	n/a	n/a
3625.124	n/a	PROB	1812562	n/a	LTP125	ltpFR	7	n/a	n/a	n/a	n/a	n/a	n/a	15	4	6	5	n/a	n/a	n/a	n/a	n/a
3626.48	n/a	PROB	1813240	n/a	LTP125	ltpFR	7	n/a	n/a	n/a	n/a	n/a	n/a	17	7	9	1	n/a	n/a	n/a	n/a	n/a
3627.922	n/a	PROB	1813961	n/a	LTP125	ltpFR	7	n/a	n/a	n/a	n/a	n/a	n/a	8	3	4	1	n/a	n/a	n/a	n/a	n/a
3629.48	n/a	PROB	1814740	n/a	LTP125	ltpFR	7	n/a	n/a	n/a	n/a	n/a	n/a	5	2	1	2	n/a	n/a	n/a	n/a	n/a
3630.654	n/a	PROB	1815327	n/a	LTP125	ltpFR	7	n/a	n/a	n/a	n/a	n/a	n/a	15	9	2	4	n/a	n/a	n/a	n/a	n/a
