onset	duration	trial_type	sample	stim_file	subject	experiment	session	trial	task	item_name	item_num	recog_conf	resp	color_b	color_g	color_r	case	font
273.466	n/a	SESS_START	136733	n/a	LTP111	ltpFR	4	n/a	n/a	n/a	n/a	1	n/a	n/a	n/a	n/a	n/a	n/a
346.904	n/a	WORD	173452	wordpools/wasnorm_wordpool.txt	LTP111	ltpFR	4	1	0	KIWI	781	n/a	0	0	0.5869140625	0.422607421875	lower	../fonts/amplitud.ttf
351.112	n/a	WORD	175556	wordpools/wasnorm_wordpool.txt	LTP111	ltpFR	4	1	0	WORKER	1621	n/a	n/a	0	0.5869140625	0.422607421875	lower	../fonts/amplitud.ttf
354.136	n/a	SLOW_MSG	177068	n/a	LTP111	ltpFR	4	1	n/a	n/a	n/a	n/a	n/a	n/a	n/a	n/a	n/a	n/a
356.652	n/a	WORD	178326	wordpools/wasnorm_wordpool.txt	LTP111	ltpFR	4	1	0	LILY	821	n/a	0	0	0.5869140625	0.422607421875	lower	../fonts/amplitud.ttf
360.8	n/a	WORD	180400	wordpools/wasnorm_wordpool.txt	LTP111	ltpFR	4	1	0	GARDEN	623	n/a	0	0	0.5869140625	0.422607421875	lower	../fonts/amplitud.ttf
364.782	n/a	WORD	182391	wordpools/wasnorm_wordpool.txt	LTP111	ltpFR	4	1	1	HIKER	708	n/a	0	1	0.412841796875	0.57763671875	upper	../fonts/zerothre.ttf
368.964	n/a	WORD	184482	wordpools/wasnorm_wordpool.txt	LTP111	ltpFR	4	1	1	LADDER	793	n/a	0	1	0.412841796875	0.57763671875	upper	../fonts/zerothre.ttf
372.82	n/a	WORD	186410	wordpools/wasnorm_wordpool.txt	LTP111	ltpFR	4	1	1	OFFICE	972	n/a	0	1	0.412841796875	0.57763671875	upper	../fonts/zerothre.ttf
376.928	n/a	WORD	188464	wordpools/wasnorm_wordpool.txt	LTP111	ltpFR	4	1	1	TWEEZERS	1526	n/a	0	1	0.412841796875	0.57763671875	upper	../fonts/zerothre.ttf
380.96	n/a	WORD	190480	wordpools/wasnorm_wordpool.txt	LTP111	ltpFR	4	1	1	FACE	547	n/a	0	1	0.412841796875	0.57763671875	upper	../fonts/zerothre.ttf
384.976	n/a	WORD	192488	wordpools/wasnorm_wordpool.txt	LTP111	ltpFR	4	1	1	CRIB	407	n/a	0	1	0.412841796875	0.57763671875	upper	../fonts/zerothre.ttf
388.808	n/a	WORD	194404	wordpools/wasnorm_wordpool.txt	LTP111	ltpFR	4	1	0	METEOR	889	n/a	1	0	0.5869140625	0.422607421875	lower	../fonts/amplitud.ttf
392.856	n/a	WORD	196428	wordpools/wasnorm_wordpool.txt	LTP111	ltpFR	4	1	0	HEART	697	n/a	0	0	0.5869140625	0.422607421875	lower	../fonts/amplitud.ttf
396.698	n/a	WORD	198349	wordpools/wasnorm_wordpool.txt	LTP111	ltpFR	4	1	0	ARTIST	43	n/a	0	0	0.5869140625	0.422607421875	lower	../fonts/amplitud.ttf
400.68	n/a	WORD	200340	wordpools/wasnorm_wordpool.txt	LTP111	ltpFR	4	1	0	TYPIST	1532	n/a	0	0	0.5869140625	0.422607421875	lower	../fonts/amplitud.ttf
404.612	n/a	WORD	202306	wordpools/wasnorm_wordpool.txt	LTP111	ltpFR	4	1	1	APARTMENT	30	n/a	0	1	0.412841796875	0.57763671875	upper	../fonts/zerothre.ttf
408.492	n/a	WORD	204246	wordpools/wasnorm_wordpool.txt	LTP111	ltpFR	4	1	1	PICTURE	1061	n/a	0	1	0.412841796875	0.57763671875	upper	../fonts/zerothre.ttf
414.234	n/a	REC_START	207117	n/a	LTP111	ltpFR	4	1	n/a	n/a	n/a	n/a	n/a	n/a	n/a	n/a	n/a	n/a
416.24	n/a	REC_WORD	208120	wordpools/wasnorm_wordpool.txt	LTP111	ltpFR	4	1	1	PICTURE	1061	n/a	0	n/a	n/a	n/a	n/a	n/a
416.922	n/a	REC_WORD	208461	wordpools/wasnorm_wordpool.txt	LTP111	ltpFR	4	1	1	APARTMENT	30	n/a	0	n/a	n/a	n/a	n/a	n/a
417.826	n/a	REC_WORD	208913	wordpools/wasnorm_wordpool.txt	LTP111	ltpFR	4	1	0	TYPIST	1532	n/a	0	n/a	n/a	n/a	n/a	n/a
420.79	n/a	REC_WORD	210395	wordpools/wasnorm_wordpool.txt	LTP111	ltpFR	4	1	1	TWEEZERS	1526	n/a	0	n/a	n/a	n/a	n/a	n/a
422.062	n/a	REC_WORD	211031	wordpools/wasnorm_wordpool.txt	LTP111	ltpFR	4	1	0	METEOR	889	n/a	1	n/a	n/a	n/a	n/a	n/a
425.19	n/a	REC_WORD	212595	wordpools/wasnorm_wordpool.txt	LTP111	ltpFR	4	1	0	KIWI	781	n/a	0	n/a	n/a	n/a	n/a	n/a
427.304	n/a	REC_WORD	213652	wordpools/wasnorm_wordpool.txt	LTP111	ltpFR	4	1	0	KIWI	781	n/a	0	n/a	n/a	n/a	n/a	n/a
428.612	n/a	REC_WORD	214306	wordpools/wasnorm_wordpool.txt	LTP111	ltpFR	4	1	0	GARDEN	623	n/a	0	n/a	n/a	n/a	n/a	n/a
429.464	n/a	REC_WORD	214732	wordpools/wasnorm_wordpool.txt	LTP111	ltpFR	4	1	n/a	EMPLOYEE	531	n/a	n/a	n/a	n/a	n/a	n/a	n/a
431.844	n/a	REC_WORD	215922	wordpools/wasnorm_wordpool.txt	LTP111	ltpFR	4	1	1	LADDER	793	n/a	0	n/a	n/a	n/a	n/a	n/a
443.758	n/a	REC_WORD	221879	wordpools/wasnorm_wordpool.txt	LTP111	ltpFR	4	1	1	APARTMENT	30	n/a	0	n/a	n/a	n/a	n/a	n/a
460.86	n/a	REC_WORD	230430	wordpools/wasnorm_wordpool.txt	LTP111	ltpFR	4	1	0	TYPIST	1532	n/a	0	n/a	n/a	n/a	n/a	n/a
500.716	n/a	WORD	250358	wordpools/wasnorm_wordpool.txt	LTP111	ltpFR	4	2	1	DRIVER	499	n/a	1	1	0.412841796875	0.57763671875	upper	../fonts/zerothre.ttf
504.564	n/a	WORD	252282	wordpools/wasnorm_wordpool.txt	LTP111	ltpFR	4	2	1	CHAUFFEUR	283	n/a	1	1	0.412841796875	0.57763671875	upper	../fonts/zerothre.ttf
508.462	n/a	WORD	254231	wordpools/wasnorm_wordpool.txt	LTP111	ltpFR	4	2	0	DONOR	485	n/a	0	0	0.5869140625	0.422607421875	lower	../fonts/amplitud.ttf
512.546	n/a	WORD	256273	wordpools/wasnorm_wordpool.txt	LTP111	ltpFR	4	2	0	FOOT	590	n/a	0	0	0.5869140625	0.422607421875	lower	../fonts/amplitud.ttf
516.518	n/a	WORD	258259	wordpools/wasnorm_wordpool.txt	LTP111	ltpFR	4	2	0	CLOSET	326	n/a	0	0	0.5869140625	0.422607421875	lower	../fonts/amplitud.ttf
520.492	n/a	WORD	260246	wordpools/wasnorm_wordpool.txt	LTP111	ltpFR	4	2	1	DRYER	503	n/a	0	1	0.412841796875	0.57763671875	upper	../fonts/zerothre.ttf
524.408	n/a	WORD	262204	wordpools/wasnorm_wordpool.txt	LTP111	ltpFR	4	2	1	LASH	802	n/a	0	1	0.412841796875	0.57763671875	upper	../fonts/zerothre.ttf
528.34	n/a	WORD	264170	wordpools/wasnorm_wordpool.txt	LTP111	ltpFR	4	2	1	SIRLOIN	1311	n/a	0	1	0.412841796875	0.57763671875	upper	../fonts/zerothre.ttf
532.34	n/a	WORD	266170	wordpools/wasnorm_wordpool.txt	LTP111	ltpFR	4	2	1	FLOUR	583	n/a	0	1	0.412841796875	0.57763671875	upper	../fonts/zerothre.ttf
536.546	n/a	WORD	268273	wordpools/wasnorm_wordpool.txt	LTP111	ltpFR	4	2	1	CASTLE	256	n/a	0	1	0.412841796875	0.57763671875	upper	../fonts/zerothre.ttf
540.678	n/a	WORD	270339	wordpools/wasnorm_wordpool.txt	LTP111	ltpFR	4	2	1	COBBLER	335	n/a	0	1	0.412841796875	0.57763671875	upper	../fonts/zerothre.ttf
544.818	n/a	WORD	272409	wordpools/wasnorm_wordpool.txt	LTP111	ltpFR	4	2	0	PIANO	1057	n/a	0	0	0.5869140625	0.422607421875	lower	../fonts/amplitud.ttf
548.936	n/a	WORD	274468	wordpools/wasnorm_wordpool.txt	LTP111	ltpFR	4	2	0	WHIP	1604	n/a	0	0	0.5869140625	0.422607421875	lower	../fonts/amplitud.ttf
552.968	n/a	WORD	276484	wordpools/wasnorm_wordpool.txt	LTP111	ltpFR	4	2	0	DOORBELL	487	n/a	0	0	0.5869140625	0.422607421875	lower	../fonts/amplitud.ttf
556.874	n/a	WORD	278437	wordpools/wasnorm_wordpool.txt	LTP111	ltpFR	4	2	0	OMELET	976	n/a	0	0	0.5869140625	0.422607421875	lower	../fonts/amplitud.ttf
560.748	n/a	WORD	280374	wordpools/wasnorm_wordpool.txt	LTP111	ltpFR	4	2	0	RELATIVE	1182	n/a	0	0	0.5869140625	0.422607421875	lower	../fonts/amplitud.ttf
566.512	n/a	REC_START	283256	n/a	LTP111	ltpFR	4	2	n/a	n/a	n/a	n/a	n/a	n/a	n/a	n/a	n/a	n/a
567.644	n/a	REC_WORD	283822	wordpools/wasnorm_wordpool.txt	LTP111	ltpFR	4	2	0	RELATIVE	1182	n/a	0	n/a	n/a	n/a	n/a	n/a
571.5	n/a	REC_WORD	285750	wordpools/wasnorm_wordpool.txt	LTP111	ltpFR	4	2	1	CASTLE	256	n/a	0	n/a	n/a	n/a	n/a	n/a
574.22	n/a	REC_WORD	287110	wordpools/wasnorm_wordpool.txt	LTP111	ltpFR	4	2	0	CLOSET	326	n/a	0	n/a	n/a	n/a	n/a	n/a
576.694	n/a	REC_WORD	288347	wordpools/wasnorm_wordpool.txt	LTP111	ltpFR	4	2	0	WHIP	1604	n/a	0	n/a	n/a	n/a	n/a	n/a
579.592	n/a	REC_WORD	289796	wordpools/wasnorm_wordpool.txt	LTP111	ltpFR	4	2	0	PIANO	1057	n/a	0	n/a	n/a	n/a	n/a	n/a
581.808	n/a	REC_WORD	290904	wordpools/wasnorm_wordpool.txt	LTP111	ltpFR	4	2	1	SIRLOIN	1311	n/a	0	n/a	n/a	n/a	n/a	n/a
584.242	n/a	REC_WORD	292121	wordpools/wasnorm_wordpool.txt	LTP111	ltpFR	4	2	1	FLOUR	583	n/a	0	n/a	n/a	n/a	n/a	n/a
586.96	n/a	REC_WORD	293480	wordpools/wasnorm_wordpool.txt	LTP111	ltpFR	4	2	1	COBBLER	335	n/a	0	n/a	n/a	n/a	n/a	n/a
592.55	n/a	REC_WORD	296275	wordpools/wasnorm_wordpool.txt	LTP111	ltpFR	4	2	1	CHAUFFEUR	283	n/a	1	n/a	n/a	n/a	n/a	n/a
593.162	n/a	REC_WORD	296581	wordpools/wasnorm_wordpool.txt	LTP111	ltpFR	4	2	1	DRIVER	499	n/a	1	n/a	n/a	n/a	n/a	n/a
648.37	n/a	WORD	324185	wordpools/wasnorm_wordpool.txt	LTP111	ltpFR	4	3	-1	ROBIN	1199	n/a	-1	1	1.0	1.0	upper	../fonts/Verdana.ttf
652.228	n/a	WORD	326114	wordpools/wasnorm_wordpool.txt	LTP111	ltpFR	4	3	-1	BIRD	129	n/a	-1	1	1.0	1.0	upper	../fonts/Verdana.ttf
656.094	n/a	WORD	328047	wordpools/wasnorm_wordpool.txt	LTP111	ltpFR	4	3	-1	TWISTER	1530	n/a	-1	1	1.0	1.0	upper	../fonts/Verdana.ttf
660.06	n/a	WORD	330030	wordpools/wasnorm_wordpool.txt	LTP111	ltpFR	4	3	-1	HOME	712	n/a	-1	1	1.0	1.0	upper	../fonts/Verdana.ttf
664.108	n/a	WORD	332054	wordpools/wasnorm_wordpool.txt	LTP111	ltpFR	4	3	-1	GROCERIES	663	n/a	-1	1	1.0	1.0	upper	../fonts/Verdana.ttf
668.124	n/a	WORD	334062	wordpools/wasnorm_wordpool.txt	LTP111	ltpFR	4	3	-1	BOWL	158	n/a	-1	1	1.0	1.0	upper	../fonts/Verdana.ttf
672.164	n/a	WORD	336082	wordpools/wasnorm_wordpool.txt	LTP111	ltpFR	4	3	-1	NECK	939	n/a	-1	1	1.0	1.0	upper	../fonts/Verdana.ttf
676.096	n/a	WORD	338048	wordpools/wasnorm_wordpool.txt	LTP111	ltpFR	4	3	-1	LUGGAGE	847	n/a	-1	1	1.0	1.0	upper	../fonts/Verdana.ttf
679.944	n/a	WORD	339972	wordpools/wasnorm_wordpool.txt	LTP111	ltpFR	4	3	-1	CAFETERIA	217	n/a	-1	1	1.0	1.0	upper	../fonts/Verdana.ttf
683.97	n/a	WORD	341985	wordpools/wasnorm_wordpool.txt	LTP111	ltpFR	4	3	-1	MICROWAVE	892	n/a	-1	1	1.0	1.0	upper	../fonts/Verdana.ttf
687.984	n/a	WORD	343992	wordpools/wasnorm_wordpool.txt	LTP111	ltpFR	4	3	-1	CAPTIVE	240	n/a	-1	1	1.0	1.0	upper	../fonts/Verdana.ttf
691.85	n/a	WORD	345925	wordpools/wasnorm_wordpool.txt	LTP111	ltpFR	4	3	-1	SUITCASE	1403	n/a	-1	1	1.0	1.0	upper	../fonts/Verdana.ttf
695.69	n/a	WORD	347845	wordpools/wasnorm_wordpool.txt	LTP111	ltpFR	4	3	-1	PLAID	1080	n/a	-1	1	1.0	1.0	upper	../fonts/Verdana.ttf
699.872	n/a	WORD	349936	wordpools/wasnorm_wordpool.txt	LTP111	ltpFR	4	3	-1	KEEPER	769	n/a	-1	1	1.0	1.0	upper	../fonts/Verdana.ttf
703.704	n/a	WORD	351852	wordpools/wasnorm_wordpool.txt	LTP111	ltpFR	4	3	-1	DRESS	495	n/a	-1	1	1.0	1.0	upper	../fonts/Verdana.ttf
707.712	n/a	WORD	353856	wordpools/wasnorm_wordpool.txt	LTP111	ltpFR	4	3	-1	PLUM	1090	n/a	-1	1	1.0	1.0	upper	../fonts/Verdana.ttf
713.594	n/a	REC_START	356797	n/a	LTP111	ltpFR	4	3	n/a	n/a	n/a	n/a	n/a	n/a	n/a	n/a	n/a	n/a
715.578	n/a	REC_WORD	357789	wordpools/wasnorm_wordpool.txt	LTP111	ltpFR	4	3	-1	NECK	939	n/a	-1	n/a	n/a	n/a	n/a	n/a
716.152	n/a	REC_WORD	358076	wordpools/wasnorm_wordpool.txt	LTP111	ltpFR	4	3	-1	DRESS	495	n/a	-1	n/a	n/a	n/a	n/a	n/a
716.926	n/a	REC_WORD	358463	wordpools/wasnorm_wordpool.txt	LTP111	ltpFR	4	3	-1	PLUM	1090	n/a	-1	n/a	n/a	n/a	n/a	n/a
717.874	n/a	REC_WORD	358937	wordpools/wasnorm_wordpool.txt	LTP111	ltpFR	4	3	-1	KEEPER	769	n/a	-1	n/a	n/a	n/a	n/a	n/a
721.82	n/a	REC_WORD	360910	wordpools/wasnorm_wordpool.txt	LTP111	ltpFR	4	3	-1	PLAID	1080	n/a	-1	n/a	n/a	n/a	n/a	n/a
725.676	n/a	REC_WORD	362838	wordpools/wasnorm_wordpool.txt	LTP111	ltpFR	4	3	-1	SUITCASE	1403	n/a	-1	n/a	n/a	n/a	n/a	n/a
730.272	n/a	REC_WORD	365136	wordpools/wasnorm_wordpool.txt	LTP111	ltpFR	4	3	-1	TWISTER	1530	n/a	-1	n/a	n/a	n/a	n/a	n/a
732.038	n/a	REC_WORD	366019	wordpools/wasnorm_wordpool.txt	LTP111	ltpFR	4	3	-1	CAPTIVE	240	n/a	-1	n/a	n/a	n/a	n/a	n/a
735.31	n/a	REC_WORD	367655	wordpools/wasnorm_wordpool.txt	LTP111	ltpFR	4	3	-1	GROCERIES	663	n/a	-1	n/a	n/a	n/a	n/a	n/a
737.554	n/a	REC_WORD	368777	wordpools/wasnorm_wordpool.txt	LTP111	ltpFR	4	3	n/a	HOUSE	725	n/a	n/a	n/a	n/a	n/a	n/a	n/a
740.808	n/a	REC_WORD	370404	wordpools/wasnorm_wordpool.txt	LTP111	ltpFR	4	3	-1	BIRD	129	n/a	-1	n/a	n/a	n/a	n/a	n/a
746.66	n/a	REC_WORD	373330	wordpools/wasnorm_wordpool.txt	LTP111	ltpFR	4	3	-1	NECK	939	n/a	-1	n/a	n/a	n/a	n/a	n/a
751.784	n/a	REC_WORD	375892	wordpools/wasnorm_wordpool.txt	LTP111	ltpFR	4	3	n/a	KITCHEN	778	n/a	n/a	n/a	n/a	n/a	n/a	n/a
761.782	n/a	REC_WORD	380891	wordpools/wasnorm_wordpool.txt	LTP111	ltpFR	4	3	n/a	BLUEJAY	141	n/a	n/a	n/a	n/a	n/a	n/a	n/a
794.126	n/a	WORD	397063	wordpools/wasnorm_wordpool.txt	LTP111	ltpFR	4	4	1	PEAR	1033	n/a	0	1	0.412841796875	0.57763671875	upper	../fonts/zerothre.ttf
798.034	n/a	WORD	399017	wordpools/wasnorm_wordpool.txt	LTP111	ltpFR	4	4	1	ZEBRA	1635	n/a	0	1	0.412841796875	0.57763671875	upper	../fonts/zerothre.ttf
802.158	n/a	WORD	401079	wordpools/wasnorm_wordpool.txt	LTP111	ltpFR	4	4	1	SWAMP	1416	n/a	1	1	0.412841796875	0.57763671875	upper	../fonts/zerothre.ttf
806.19	n/a	WORD	403095	wordpools/wasnorm_wordpool.txt	LTP111	ltpFR	4	4	1	BEAST	108	n/a	1	1	0.412841796875	0.57763671875	upper	../fonts/zerothre.ttf
810.396	n/a	WORD	405198	wordpools/wasnorm_wordpool.txt	LTP111	ltpFR	4	4	1	MOOSE	915	n/a	0	1	0.412841796875	0.57763671875	upper	../fonts/zerothre.ttf
814.262	n/a	WORD	407131	wordpools/wasnorm_wordpool.txt	LTP111	ltpFR	4	4	1	MOAT	903	n/a	0	1	0.412841796875	0.57763671875	upper	../fonts/zerothre.ttf
818.394	n/a	WORD	409197	wordpools/wasnorm_wordpool.txt	LTP111	ltpFR	4	4	1	CATTLE	261	n/a	0	1	0.412841796875	0.57763671875	upper	../fonts/zerothre.ttf
822.46	n/a	WORD	411230	wordpools/wasnorm_wordpool.txt	LTP111	ltpFR	4	4	1	BULL	193	n/a	n/a	1	0.412841796875	0.57763671875	upper	../fonts/zerothre.ttf
825.484	n/a	SLOW_MSG	412742	n/a	LTP111	ltpFR	4	4	n/a	n/a	n/a	n/a	n/a	n/a	n/a	n/a	n/a	n/a
828.05	n/a	WORD	414025	wordpools/wasnorm_wordpool.txt	LTP111	ltpFR	4	4	1	RELISH	1183	n/a	0	1	0.412841796875	0.57763671875	upper	../fonts/zerothre.ttf
831.974	n/a	WORD	415987	wordpools/wasnorm_wordpool.txt	LTP111	ltpFR	4	4	1	NIGHTGOWN	953	n/a	0	1	0.412841796875	0.57763671875	upper	../fonts/zerothre.ttf
836.156	n/a	WORD	418078	wordpools/wasnorm_wordpool.txt	LTP111	ltpFR	4	4	1	CHERRY	293	n/a	0	1	0.412841796875	0.57763671875	upper	../fonts/zerothre.ttf
840.27	n/a	WORD	420135	wordpools/wasnorm_wordpool.txt	LTP111	ltpFR	4	4	1	MALL	860	n/a	0	1	0.412841796875	0.57763671875	upper	../fonts/zerothre.ttf
844.154	n/a	WORD	422077	wordpools/wasnorm_wordpool.txt	LTP111	ltpFR	4	4	1	THESAURUS	1454	n/a	0	1	0.412841796875	0.57763671875	upper	../fonts/zerothre.ttf
848.16	n/a	WORD	424080	wordpools/wasnorm_wordpool.txt	LTP111	ltpFR	4	4	1	CUSTARD	429	n/a	0	1	0.412841796875	0.57763671875	upper	../fonts/zerothre.ttf
852.366	n/a	WORD	426183	wordpools/wasnorm_wordpool.txt	LTP111	ltpFR	4	4	1	YARD	1630	n/a	0	1	0.412841796875	0.57763671875	upper	../fonts/zerothre.ttf
856.398	n/a	WORD	428199	wordpools/wasnorm_wordpool.txt	LTP111	ltpFR	4	4	1	DICTATOR	462	n/a	0	1	0.412841796875	0.57763671875	upper	../fonts/zerothre.ttf
862.34	n/a	REC_START	431170	n/a	LTP111	ltpFR	4	4	n/a	n/a	n/a	n/a	n/a	n/a	n/a	n/a	n/a	n/a
864.828	n/a	REC_WORD	432414	wordpools/wasnorm_wordpool.txt	LTP111	ltpFR	4	4	1	DICTATOR	462	n/a	0	n/a	n/a	n/a	n/a	n/a
867.502	n/a	REC_WORD	433751	wordpools/wasnorm_wordpool.txt	LTP111	ltpFR	4	4	1	SWAMP	1416	n/a	1	n/a	n/a	n/a	n/a	n/a
871.748	n/a	REC_WORD	435874	wordpools/wasnorm_wordpool.txt	LTP111	ltpFR	4	4	1	MOAT	903	n/a	0	n/a	n/a	n/a	n/a	n/a
876.372	n/a	REC_WORD	438186	wordpools/wasnorm_wordpool.txt	LTP111	ltpFR	4	4	1	BEAST	108	n/a	1	n/a	n/a	n/a	n/a	n/a
878.658	n/a	REC_WORD	439329	wordpools/wasnorm_wordpool.txt	LTP111	ltpFR	4	4	1	ZEBRA	1635	n/a	0	n/a	n/a	n/a	n/a	n/a
881.098	n/a	REC_WORD	440549	wordpools/wasnorm_wordpool.txt	LTP111	ltpFR	4	4	1	BULL	193	n/a	n/a	n/a	n/a	n/a	n/a	n/a
883.272	n/a	REC_WORD	441636	wordpools/wasnorm_wordpool.txt	LTP111	ltpFR	4	4	1	CATTLE	261	n/a	0	n/a	n/a	n/a	n/a	n/a
887.552	n/a	REC_WORD	443776	wordpools/wasnorm_wordpool.txt	LTP111	ltpFR	4	4	1	NIGHTGOWN	953	n/a	0	n/a	n/a	n/a	n/a	n/a
890.282	n/a	REC_WORD	445141	wordpools/wasnorm_wordpool.txt	LTP111	ltpFR	4	4	1	CHERRY	293	n/a	0	n/a	n/a	n/a	n/a	n/a
892.87	n/a	REC_WORD	446435	wordpools/wasnorm_wordpool.txt	LTP111	ltpFR	4	4	1	MALL	860	n/a	0	n/a	n/a	n/a	n/a	n/a
948.988	n/a	WORD	474494	wordpools/wasnorm_wordpool.txt	LTP111	ltpFR	4	5	1	PATIO	1025	n/a	0	1	0.412841796875	0.57763671875	upper	../fonts/zerothre.ttf
952.912	n/a	WORD	476456	wordpools/wasnorm_wordpool.txt	LTP111	ltpFR	4	5	1	DRILL	497	n/a	0	1	0.412841796875	0.57763671875	upper	../fonts/zerothre.ttf
957.086	n/a	WORD	478543	wordpools/wasnorm_wordpool.txt	LTP111	ltpFR	4	5	0	HAMMOCK	681	n/a	0	0	0.5869140625	0.422607421875	lower	../fonts/amplitud.ttf
961.16	n/a	WORD	480580	wordpools/wasnorm_wordpool.txt	LTP111	ltpFR	4	5	0	PIE	1062	n/a	0	0	0.5869140625	0.422607421875	lower	../fonts/amplitud.ttf
965.366	n/a	WORD	482683	wordpools/wasnorm_wordpool.txt	LTP111	ltpFR	4	5	0	HUT	729	n/a	0	0	0.5869140625	0.422607421875	lower	../fonts/amplitud.ttf
969.506	n/a	WORD	484753	wordpools/wasnorm_wordpool.txt	LTP111	ltpFR	4	5	0	SYRINGE	1424	n/a	0	0	0.5869140625	0.422607421875	lower	../fonts/amplitud.ttf
973.396	n/a	WORD	486698	wordpools/wasnorm_wordpool.txt	LTP111	ltpFR	4	5	0	CHILD	299	n/a	0	0	0.5869140625	0.422607421875	lower	../fonts/amplitud.ttf
977.564	n/a	WORD	488782	wordpools/wasnorm_wordpool.txt	LTP111	ltpFR	4	5	1	PORCH	1106	n/a	2	1	0.412841796875	0.57763671875	upper	../fonts/zerothre.ttf
979.18	n/a	KEY_MSG	489590	n/a	LTP111	ltpFR	4	5	n/a	n/a	n/a	n/a	n/a	n/a	n/a	n/a	n/a	n/a
981.862	n/a	WORD	490931	wordpools/wasnorm_wordpool.txt	LTP111	ltpFR	4	5	1	PICNIC	1060	n/a	0	1	0.412841796875	0.57763671875	upper	../fonts/zerothre.ttf
986.026	n/a	WORD	493013	wordpools/wasnorm_wordpool.txt	LTP111	ltpFR	4	5	1	MARKET	871	n/a	0	1	0.412841796875	0.57763671875	upper	../fonts/zerothre.ttf
989.858	n/a	WORD	494929	wordpools/wasnorm_wordpool.txt	LTP111	ltpFR	4	5	1	INTESTINE	742	n/a	0	1	0.412841796875	0.57763671875	upper	../fonts/zerothre.ttf
993.75	n/a	WORD	496875	wordpools/wasnorm_wordpool.txt	LTP111	ltpFR	4	5	0	FAIRY	549	n/a	0	0	0.5869140625	0.422607421875	lower	../fonts/amplitud.ttf
997.724	n/a	WORD	498862	wordpools/wasnorm_wordpool.txt	LTP111	ltpFR	4	5	0	ADULT	8	n/a	0	0	0.5869140625	0.422607421875	lower	../fonts/amplitud.ttf
1001.748	n/a	WORD	500874	wordpools/wasnorm_wordpool.txt	LTP111	ltpFR	4	5	0	RICE	1190	n/a	0	0	0.5869140625	0.422607421875	lower	../fonts/amplitud.ttf
1005.788	n/a	WORD	502894	wordpools/wasnorm_wordpool.txt	LTP111	ltpFR	4	5	1	WHALE	1601	n/a	0	1	0.412841796875	0.57763671875	upper	../fonts/zerothre.ttf
1009.82	n/a	WORD	504910	wordpools/wasnorm_wordpool.txt	LTP111	ltpFR	4	5	1	TROUT	1511	n/a	1	1	0.412841796875	0.57763671875	upper	../fonts/zerothre.ttf
1015.502	n/a	REC_START	507751	n/a	LTP111	ltpFR	4	5	n/a	n/a	n/a	n/a	n/a	n/a	n/a	n/a	n/a	n/a
1017.268	n/a	REC_WORD	508634	wordpools/wasnorm_wordpool.txt	LTP111	ltpFR	4	5	1	WHALE	1601	n/a	0	n/a	n/a	n/a	n/a	n/a
1019.902	n/a	REC_WORD	509951	wordpools/wasnorm_wordpool.txt	LTP111	ltpFR	4	5	1	TROUT	1511	n/a	1	n/a	n/a	n/a	n/a	n/a
1020.724	n/a	REC_WORD	510362	wordpools/wasnorm_wordpool.txt	LTP111	ltpFR	4	5	0	FAIRY	549	n/a	0	n/a	n/a	n/a	n/a	n/a
1021.388	n/a	REC_WORD	510694	wordpools/wasnorm_wordpool.txt	LTP111	ltpFR	4	5	1	PICNIC	1060	n/a	0	n/a	n/a	n/a	n/a	n/a
1023.374	n/a	REC_WORD	511687	wordpools/wasnorm_wordpool.txt	LTP111	ltpFR	4	5	1	PATIO	1025	n/a	0	n/a	n/a	n/a	n/a	n/a
1023.988	n/a	REC_WORD	511994	wordpools/wasnorm_wordpool.txt	LTP111	ltpFR	4	5	1	DRILL	497	n/a	0	n/a	n/a	n/a	n/a	n/a
1025.862	n/a	REC_WORD	512931	wordpools/wasnorm_wordpool.txt	LTP111	ltpFR	4	5	0	HUT	729	n/a	0	n/a	n/a	n/a	n/a	n/a
1028.058	n/a	REC_WORD	514029	wordpools/wasnorm_wordpool.txt	LTP111	ltpFR	4	5	0	PIE	1062	n/a	0	n/a	n/a	n/a	n/a	n/a
1031.262	n/a	REC_WORD	515631	wordpools/wasnorm_wordpool.txt	LTP111	ltpFR	4	5	0	CHILD	299	n/a	0	n/a	n/a	n/a	n/a	n/a
1033.66	n/a	REC_WORD	516830	wordpools/wasnorm_wordpool.txt	LTP111	ltpFR	4	5	1	PORCH	1106	n/a	2	n/a	n/a	n/a	n/a	n/a
1050.244	n/a	REC_WORD	525122	wordpools/wasnorm_wordpool.txt	LTP111	ltpFR	4	5	1	PICNIC	1060	n/a	0	n/a	n/a	n/a	n/a	n/a
1053.412	n/a	REC_WORD	526706	wordpools/wasnorm_wordpool.txt	LTP111	ltpFR	4	5	0	ADULT	8	n/a	0	n/a	n/a	n/a	n/a	n/a
1098.66	n/a	WORD	549330	wordpools/wasnorm_wordpool.txt	LTP111	ltpFR	4	6	1	DAM	436	n/a	n/a	1	0.412841796875	0.57763671875	upper	../fonts/zerothre.ttf
1101.684	n/a	SLOW_MSG	550842	n/a	LTP111	ltpFR	4	6	n/a	n/a	n/a	n/a	n/a	n/a	n/a	n/a	n/a	n/a
1104.032	n/a	WORD	552016	wordpools/wasnorm_wordpool.txt	LTP111	ltpFR	4	6	1	CROW	414	n/a	1	1	0.412841796875	0.57763671875	upper	../fonts/zerothre.ttf
1107.964	n/a	WORD	553982	wordpools/wasnorm_wordpool.txt	LTP111	ltpFR	4	6	1	AUDIENCE	59	n/a	0	1	0.412841796875	0.57763671875	upper	../fonts/zerothre.ttf
1111.814	n/a	WORD	555907	wordpools/wasnorm_wordpool.txt	LTP111	ltpFR	4	6	1	MILITARY	894	n/a	0	1	0.412841796875	0.57763671875	upper	../fonts/zerothre.ttf
1115.754	n/a	WORD	557877	wordpools/wasnorm_wordpool.txt	LTP111	ltpFR	4	6	1	FLY	586	n/a	0	1	0.412841796875	0.57763671875	upper	../fonts/zerothre.ttf
1119.786	n/a	WORD	559893	wordpools/wasnorm_wordpool.txt	LTP111	ltpFR	4	6	1	RIVER	1194	n/a	0	1	0.412841796875	0.57763671875	upper	../fonts/zerothre.ttf
1123.784	n/a	WORD	561892	wordpools/wasnorm_wordpool.txt	LTP111	ltpFR	4	6	1	PERSON	1052	n/a	1	1	0.412841796875	0.57763671875	upper	../fonts/zerothre.ttf
1127.668	n/a	WORD	563834	wordpools/wasnorm_wordpool.txt	LTP111	ltpFR	4	6	1	SEA	1259	n/a	0	1	0.412841796875	0.57763671875	upper	../fonts/zerothre.ttf
1131.49	n/a	WORD	565745	wordpools/wasnorm_wordpool.txt	LTP111	ltpFR	4	6	1	TIDE	1465	n/a	0	1	0.412841796875	0.57763671875	upper	../fonts/zerothre.ttf
1135.33	n/a	WORD	567665	wordpools/wasnorm_wordpool.txt	LTP111	ltpFR	4	6	1	PASSAGE	1019	n/a	0	1	0.412841796875	0.57763671875	upper	../fonts/zerothre.ttf
1139.422	n/a	WORD	569711	wordpools/wasnorm_wordpool.txt	LTP111	ltpFR	4	6	1	NOTEBOOK	959	n/a	0	1	0.412841796875	0.57763671875	upper	../fonts/zerothre.ttf
1143.344	n/a	WORD	571672	wordpools/wasnorm_wordpool.txt	LTP111	ltpFR	4	6	1	ROACH	1195	n/a	0	1	0.412841796875	0.57763671875	upper	../fonts/zerothre.ttf
1147.228	n/a	WORD	573614	wordpools/wasnorm_wordpool.txt	LTP111	ltpFR	4	6	1	ELEPHANT	523	n/a	1	1	0.412841796875	0.57763671875	upper	../fonts/zerothre.ttf
1151.068	n/a	WORD	575534	wordpools/wasnorm_wordpool.txt	LTP111	ltpFR	4	6	1	VEST	1559	n/a	0	1	0.412841796875	0.57763671875	upper	../fonts/zerothre.ttf
1155.1	n/a	WORD	577550	wordpools/wasnorm_wordpool.txt	LTP111	ltpFR	4	6	1	SLEEVE	1324	n/a	0	1	0.412841796875	0.57763671875	upper	../fonts/zerothre.ttf
1159.016	n/a	WORD	579508	wordpools/wasnorm_wordpool.txt	LTP111	ltpFR	4	6	1	FIST	572	n/a	0	1	0.412841796875	0.57763671875	upper	../fonts/zerothre.ttf
1165.04	n/a	REC_START	582520	n/a	LTP111	ltpFR	4	6	n/a	n/a	n/a	n/a	n/a	n/a	n/a	n/a	n/a	n/a
1167.2	n/a	REC_WORD	583600	wordpools/wasnorm_wordpool.txt	LTP111	ltpFR	4	6	1	FIST	572	n/a	0	n/a	n/a	n/a	n/a	n/a
1170.438	n/a	REC_WORD	585219	wordpools/wasnorm_wordpool.txt	LTP111	ltpFR	4	6	1	FLY	586	n/a	0	n/a	n/a	n/a	n/a	n/a
1175.238	n/a	REC_WORD	587619	wordpools/wasnorm_wordpool.txt	LTP111	ltpFR	4	6	1	ELEPHANT	523	n/a	1	n/a	n/a	n/a	n/a	n/a
1178.206	n/a	REC_WORD	589103	wordpools/wasnorm_wordpool.txt	LTP111	ltpFR	4	6	1	SEA	1259	n/a	0	n/a	n/a	n/a	n/a	n/a
1181.418	n/a	REC_WORD	590709	wordpools/wasnorm_wordpool.txt	LTP111	ltpFR	4	6	1	PERSON	1052	n/a	1	n/a	n/a	n/a	n/a	n/a
1192.568	n/a	REC_WORD	596284	wordpools/wasnorm_wordpool.txt	LTP111	ltpFR	4	6	1	AUDIENCE	59	n/a	0	n/a	n/a	n/a	n/a	n/a
1195.338	n/a	REC_WORD	597669	wordpools/wasnorm_wordpool.txt	LTP111	ltpFR	4	6	1	MILITARY	894	n/a	0	n/a	n/a	n/a	n/a	n/a
1212.126	n/a	REC_WORD	606063	wordpools/wasnorm_wordpool.txt	LTP111	ltpFR	4	6	1	FLY	586	n/a	0	n/a	n/a	n/a	n/a	n/a
1251.63	n/a	WORD	625815	wordpools/wasnorm_wordpool.txt	LTP111	ltpFR	4	7	0	AFRICA	9	n/a	1	0	0.5869140625	0.422607421875	lower	../fonts/amplitud.ttf
1255.654	n/a	WORD	627827	wordpools/wasnorm_wordpool.txt	LTP111	ltpFR	4	7	0	THORN	1459	n/a	0	0	0.5869140625	0.422607421875	lower	../fonts/amplitud.ttf
1259.752	n/a	WORD	629876	wordpools/wasnorm_wordpool.txt	LTP111	ltpFR	4	7	0	FLOWER	584	n/a	0	0	0.5869140625	0.422607421875	lower	../fonts/amplitud.ttf
1263.918	n/a	WORD	631959	wordpools/wasnorm_wordpool.txt	LTP111	ltpFR	4	7	0	NAPKIN	937	n/a	0	0	0.5869140625	0.422607421875	lower	../fonts/amplitud.ttf
1267.876	n/a	WORD	633938	wordpools/wasnorm_wordpool.txt	LTP111	ltpFR	4	7	1	JAPAN	749	n/a	0	1	0.412841796875	0.57763671875	upper	../fonts/zerothre.ttf
1271.84	n/a	WORD	635920	wordpools/wasnorm_wordpool.txt	LTP111	ltpFR	4	7	1	NAVIGATOR	938	n/a	0	1	0.412841796875	0.57763671875	upper	../fonts/zerothre.ttf
1275.888	n/a	WORD	637944	wordpools/wasnorm_wordpool.txt	LTP111	ltpFR	4	7	1	LIMOUSINE	824	n/a	0	1	0.412841796875	0.57763671875	upper	../fonts/zerothre.ttf
1280.004	n/a	WORD	640002	wordpools/wasnorm_wordpool.txt	LTP111	ltpFR	4	7	1	ARENA	37	n/a	0	1	0.412841796875	0.57763671875	upper	../fonts/zerothre.ttf
1284.12	n/a	WORD	642060	wordpools/wasnorm_wordpool.txt	LTP111	ltpFR	4	7	0	KETCHUP	771	n/a	0	0	0.5869140625	0.422607421875	lower	../fonts/amplitud.ttf
1288.136	n/a	WORD	644068	wordpools/wasnorm_wordpool.txt	LTP111	ltpFR	4	7	0	INSECT	740	n/a	0	0	0.5869140625	0.422607421875	lower	../fonts/amplitud.ttf
1292.034	n/a	WORD	646017	wordpools/wasnorm_wordpool.txt	LTP111	ltpFR	4	7	1	BEETLE	116	n/a	0	1	0.412841796875	0.57763671875	upper	../fonts/zerothre.ttf
1296.05	n/a	WORD	648025	wordpools/wasnorm_wordpool.txt	LTP111	ltpFR	4	7	1	QUILT	1151	n/a	0	1	0.412841796875	0.57763671875	upper	../fonts/zerothre.ttf
1300.214	n/a	WORD	650107	wordpools/wasnorm_wordpool.txt	LTP111	ltpFR	4	7	1	HANDKERCHIEF	686	n/a	0	1	0.412841796875	0.57763671875	upper	../fonts/zerothre.ttf
1304.272	n/a	WORD	652136	wordpools/wasnorm_wordpool.txt	LTP111	ltpFR	4	7	1	SALIVA	1226	n/a	0	1	0.412841796875	0.57763671875	upper	../fonts/zerothre.ttf
1308.154	n/a	WORD	654077	wordpools/wasnorm_wordpool.txt	LTP111	ltpFR	4	7	0	RAG	1160	n/a	0	0	0.5869140625	0.422607421875	lower	../fonts/amplitud.ttf
1312.318	n/a	WORD	656159	wordpools/wasnorm_wordpool.txt	LTP111	ltpFR	4	7	0	UMPIRE	1535	n/a	0	0	0.5869140625	0.422607421875	lower	../fonts/amplitud.ttf
1318.184	n/a	REC_START	659092	n/a	LTP111	ltpFR	4	7	n/a	n/a	n/a	n/a	n/a	n/a	n/a	n/a	n/a	n/a
1329.06	n/a	REC_WORD	664530	wordpools/wasnorm_wordpool.txt	LTP111	ltpFR	4	7	0	AFRICA	9	n/a	1	n/a	n/a	n/a	n/a	n/a
1331.544	n/a	REC_WORD	665772	wordpools/wasnorm_wordpool.txt	LTP111	ltpFR	4	7	0	FLOWER	584	n/a	0	n/a	n/a	n/a	n/a	n/a
1333.98	n/a	REC_WORD	666990	wordpools/wasnorm_wordpool.txt	LTP111	ltpFR	4	7	0	THORN	1459	n/a	0	n/a	n/a	n/a	n/a	n/a
1337.362	n/a	REC_WORD	668681	wordpools/wasnorm_wordpool.txt	LTP111	ltpFR	4	7	1	JAPAN	749	n/a	0	n/a	n/a	n/a	n/a	n/a
1339.832	n/a	REC_WORD	669916	wordpools/wasnorm_wordpool.txt	LTP111	ltpFR	4	7	1	NAVIGATOR	938	n/a	0	n/a	n/a	n/a	n/a	n/a
1342.462	n/a	REC_WORD	671231	wordpools/wasnorm_wordpool.txt	LTP111	ltpFR	4	7	1	LIMOUSINE	824	n/a	0	n/a	n/a	n/a	n/a	n/a
1406.556	n/a	WORD	703278	wordpools/wasnorm_wordpool.txt	LTP111	ltpFR	4	8	-1	GLACIER	638	n/a	-1	1	1.0	1.0	upper	../fonts/Verdana.ttf
1410.74	n/a	WORD	705370	wordpools/wasnorm_wordpool.txt	LTP111	ltpFR	4	8	-1	SCOTCH	1251	n/a	-1	1	1.0	1.0	upper	../fonts/Verdana.ttf
1414.614	n/a	WORD	707307	wordpools/wasnorm_wordpool.txt	LTP111	ltpFR	4	8	-1	BEVERAGE	123	n/a	-1	1	1.0	1.0	upper	../fonts/Verdana.ttf
1418.704	n/a	WORD	709352	wordpools/wasnorm_wordpool.txt	LTP111	ltpFR	4	8	-1	RACCOON	1153	n/a	-1	1	1.0	1.0	upper	../fonts/Verdana.ttf
1422.652	n/a	WORD	711326	wordpools/wasnorm_wordpool.txt	LTP111	ltpFR	4	8	-1	STOCKING	1383	n/a	-1	1	1.0	1.0	upper	../fonts/Verdana.ttf
1426.492	n/a	WORD	713246	wordpools/wasnorm_wordpool.txt	LTP111	ltpFR	4	8	-1	DISC	473	n/a	-1	1	1.0	1.0	upper	../fonts/Verdana.ttf
1430.558	n/a	WORD	715279	wordpools/wasnorm_wordpool.txt	LTP111	ltpFR	4	8	-1	CLARINET	317	n/a	-1	1	1.0	1.0	upper	../fonts/Verdana.ttf
1434.54	n/a	WORD	717270	wordpools/wasnorm_wordpool.txt	LTP111	ltpFR	4	8	-1	WALL	1582	n/a	-1	1	1.0	1.0	upper	../fonts/Verdana.ttf
1438.538	n/a	WORD	719269	wordpools/wasnorm_wordpool.txt	LTP111	ltpFR	4	8	-1	GARAGE	621	n/a	-1	1	1.0	1.0	upper	../fonts/Verdana.ttf
1442.43	n/a	WORD	721215	wordpools/wasnorm_wordpool.txt	LTP111	ltpFR	4	8	-1	ROOF	1205	n/a	-1	1	1.0	1.0	upper	../fonts/Verdana.ttf
1446.544	n/a	WORD	723272	wordpools/wasnorm_wordpool.txt	LTP111	ltpFR	4	8	-1	ASSISTANT	48	n/a	-1	1	1.0	1.0	upper	../fonts/Verdana.ttf
1450.552	n/a	WORD	725276	wordpools/wasnorm_wordpool.txt	LTP111	ltpFR	4	8	-1	PUMP	1141	n/a	-1	1	1.0	1.0	upper	../fonts/Verdana.ttf
1454.492	n/a	WORD	727246	wordpools/wasnorm_wordpool.txt	LTP111	ltpFR	4	8	-1	DOCK	477	n/a	-1	1	1.0	1.0	upper	../fonts/Verdana.ttf
1458.692	n/a	WORD	729346	wordpools/wasnorm_wordpool.txt	LTP111	ltpFR	4	8	-1	MARBLE	867	n/a	-1	1	1.0	1.0	upper	../fonts/Verdana.ttf
1462.84	n/a	WORD	731420	wordpools/wasnorm_wordpool.txt	LTP111	ltpFR	4	8	-1	STUDENT	1395	n/a	-1	1	1.0	1.0	upper	../fonts/Verdana.ttf
1467.03	n/a	WORD	733515	wordpools/wasnorm_wordpool.txt	LTP111	ltpFR	4	8	-1	CAR	241	n/a	-1	1	1.0	1.0	upper	../fonts/Verdana.ttf
1472.922	n/a	REC_START	736461	n/a	LTP111	ltpFR	4	8	n/a	n/a	n/a	n/a	n/a	n/a	n/a	n/a	n/a	n/a
1473.594	n/a	REC_WORD	736797	wordpools/wasnorm_wordpool.txt	LTP111	ltpFR	4	8	-1	ASSISTANT	48	n/a	-1	n/a	n/a	n/a	n/a	n/a
1476.324	n/a	REC_WORD	738162	wordpools/wasnorm_wordpool.txt	LTP111	ltpFR	4	8	-1	PUMP	1141	n/a	-1	n/a	n/a	n/a	n/a	n/a
1479.108	n/a	REC_WORD	739554	wordpools/wasnorm_wordpool.txt	LTP111	ltpFR	4	8	-1	DOCK	477	n/a	-1	n/a	n/a	n/a	n/a	n/a
1481.632	n/a	REC_WORD	740816	wordpools/wasnorm_wordpool.txt	LTP111	ltpFR	4	8	-1	MARBLE	867	n/a	-1	n/a	n/a	n/a	n/a	n/a
1484.252	n/a	REC_WORD	742126	wordpools/wasnorm_wordpool.txt	LTP111	ltpFR	4	8	-1	STUDENT	1395	n/a	-1	n/a	n/a	n/a	n/a	n/a
1488.522	n/a	REC_WORD	744261	wordpools/wasnorm_wordpool.txt	LTP111	ltpFR	4	8	-1	CAR	241	n/a	-1	n/a	n/a	n/a	n/a	n/a
1547.476	n/a	REC_WORD_VV	773738	wordpools/wasnorm_wordpool.txt	LTP111	ltpFR	4	8	n/a	<>	-1	n/a	n/a	n/a	n/a	n/a	n/a	n/a
1555.896	n/a	WORD	777948	wordpools/wasnorm_wordpool.txt	LTP111	ltpFR	4	9	1	CABINET	212	n/a	0	1	0.412841796875	0.57763671875	upper	../fonts/zerothre.ttf
1560.062	n/a	WORD	780031	wordpools/wasnorm_wordpool.txt	LTP111	ltpFR	4	9	1	WASHER	1592	n/a	0	1	0.412841796875	0.57763671875	upper	../fonts/zerothre.ttf
1564.052	n/a	WORD	782026	wordpools/wasnorm_wordpool.txt	LTP111	ltpFR	4	9	1	ERASER	538	n/a	0	1	0.412841796875	0.57763671875	upper	../fonts/zerothre.ttf
1568.142	n/a	WORD	784071	wordpools/wasnorm_wordpool.txt	LTP111	ltpFR	4	9	1	COUSIN	392	n/a	1	1	0.412841796875	0.57763671875	upper	../fonts/zerothre.ttf
1572.166	n/a	WORD	786083	wordpools/wasnorm_wordpool.txt	LTP111	ltpFR	4	9	1	CRIMINAL	409	n/a	1	1	0.412841796875	0.57763671875	upper	../fonts/zerothre.ttf
1576.322	n/a	WORD	788161	wordpools/wasnorm_wordpool.txt	LTP111	ltpFR	4	9	1	COMPASS	358	n/a	1	1	0.412841796875	0.57763671875	upper	../fonts/zerothre.ttf
1580.262	n/a	WORD	790131	wordpools/wasnorm_wordpool.txt	LTP111	ltpFR	4	9	1	RAZOR	1171	n/a	0	1	0.412841796875	0.57763671875	upper	../fonts/zerothre.ttf
1584.086	n/a	WORD	792043	wordpools/wasnorm_wordpool.txt	LTP111	ltpFR	4	9	1	TRUCK	1512	n/a	0	1	0.412841796875	0.57763671875	upper	../fonts/zerothre.ttf
1588.094	n/a	WORD	794047	wordpools/wasnorm_wordpool.txt	LTP111	ltpFR	4	9	1	VICTIM	1562	n/a	0	1	0.412841796875	0.57763671875	upper	../fonts/zerothre.ttf
1592.094	n/a	WORD	796047	wordpools/wasnorm_wordpool.txt	LTP111	ltpFR	4	9	1	COAL	332	n/a	1	1	0.412841796875	0.57763671875	upper	../fonts/zerothre.ttf
1596.184	n/a	WORD	798092	wordpools/wasnorm_wordpool.txt	LTP111	ltpFR	4	9	1	UNCLE	1536	n/a	1	1	0.412841796875	0.57763671875	upper	../fonts/zerothre.ttf
1600.108	n/a	WORD	800054	wordpools/wasnorm_wordpool.txt	LTP111	ltpFR	4	9	1	CLAMP	316	n/a	0	1	0.412841796875	0.57763671875	upper	../fonts/zerothre.ttf
1604.288	n/a	WORD	802144	wordpools/wasnorm_wordpool.txt	LTP111	ltpFR	4	9	1	SEAL	1262	n/a	0	1	0.412841796875	0.57763671875	upper	../fonts/zerothre.ttf
1608.37	n/a	WORD	804185	wordpools/wasnorm_wordpool.txt	LTP111	ltpFR	4	9	1	ENVELOPE	537	n/a	0	1	0.412841796875	0.57763671875	upper	../fonts/zerothre.ttf
1612.394	n/a	WORD	806197	wordpools/wasnorm_wordpool.txt	LTP111	ltpFR	4	9	1	RING	1193	n/a	0	1	0.412841796875	0.57763671875	upper	../fonts/zerothre.ttf
1616.302	n/a	WORD	808151	wordpools/wasnorm_wordpool.txt	LTP111	ltpFR	4	9	1	DIAMOND	458	n/a	0	1	0.412841796875	0.57763671875	upper	../fonts/zerothre.ttf
1622.06	n/a	REC_START	811030	n/a	LTP111	ltpFR	4	9	n/a	n/a	n/a	n/a	n/a	n/a	n/a	n/a	n/a	n/a
1623.994	n/a	REC_WORD	811997	wordpools/wasnorm_wordpool.txt	LTP111	ltpFR	4	9	1	DIAMOND	458	n/a	0	n/a	n/a	n/a	n/a	n/a
1627.866	n/a	REC_WORD	813933	wordpools/wasnorm_wordpool.txt	LTP111	ltpFR	4	9	1	COUSIN	392	n/a	1	n/a	n/a	n/a	n/a	n/a
1632.312	n/a	REC_WORD	816156	wordpools/wasnorm_wordpool.txt	LTP111	ltpFR	4	9	1	UNCLE	1536	n/a	1	n/a	n/a	n/a	n/a	n/a
1635.624	n/a	REC_WORD	817812	wordpools/wasnorm_wordpool.txt	LTP111	ltpFR	4	9	1	COMPASS	358	n/a	1	n/a	n/a	n/a	n/a	n/a
1676.912	n/a	REC_WORD	838456	wordpools/wasnorm_wordpool.txt	LTP111	ltpFR	4	9	1	CRIMINAL	409	n/a	1	n/a	n/a	n/a	n/a	n/a
1715.806	n/a	WORD	857903	wordpools/wasnorm_wordpool.txt	LTP111	ltpFR	4	10	0	CHIEF	298	n/a	0	0	0.5869140625	0.422607421875	lower	../fonts/amplitud.ttf
1719.954	n/a	WORD	859977	wordpools/wasnorm_wordpool.txt	LTP111	ltpFR	4	10	0	COMMANDER	354	n/a	0	0	0.5869140625	0.422607421875	lower	../fonts/amplitud.ttf
1724.01	n/a	WORD	862005	wordpools/wasnorm_wordpool.txt	LTP111	ltpFR	4	10	0	BRACELET	163	n/a	0	0	0.5869140625	0.422607421875	lower	../fonts/amplitud.ttf
1728.002	n/a	WORD	864001	wordpools/wasnorm_wordpool.txt	LTP111	ltpFR	4	10	1	ELBOW	520	n/a	1	1	0.412841796875	0.57763671875	upper	../fonts/zerothre.ttf
1732.15	n/a	WORD	866075	wordpools/wasnorm_wordpool.txt	LTP111	ltpFR	4	10	1	FOX	598	n/a	1	1	0.412841796875	0.57763671875	upper	../fonts/zerothre.ttf
1736.348	n/a	WORD	868174	wordpools/wasnorm_wordpool.txt	LTP111	ltpFR	4	10	1	CERAMICS	271	n/a	0	1	0.412841796875	0.57763671875	upper	../fonts/zerothre.ttf
1740.322	n/a	WORD	870161	wordpools/wasnorm_wordpool.txt	LTP111	ltpFR	4	10	1	ESSAY	540	n/a	0	1	0.412841796875	0.57763671875	upper	../fonts/zerothre.ttf
1744.396	n/a	WORD	872198	wordpools/wasnorm_wordpool.txt	LTP111	ltpFR	4	10	0	STAFF	1365	n/a	0	0	0.5869140625	0.422607421875	lower	../fonts/amplitud.ttf
1748.42	n/a	WORD	874210	wordpools/wasnorm_wordpool.txt	LTP111	ltpFR	4	10	0	INSTRUCTOR	741	n/a	0	0	0.5869140625	0.422607421875	lower	../fonts/amplitud.ttf
1752.636	n/a	WORD	876318	wordpools/wasnorm_wordpool.txt	LTP111	ltpFR	4	10	0	POET	1095	n/a	0	0	0.5869140625	0.422607421875	lower	../fonts/amplitud.ttf
1756.668	n/a	WORD	878334	wordpools/wasnorm_wordpool.txt	LTP111	ltpFR	4	10	0	PUDDLE	1140	n/a	0	0	0.5869140625	0.422607421875	lower	../fonts/amplitud.ttf
1760.532	n/a	WORD	880266	wordpools/wasnorm_wordpool.txt	LTP111	ltpFR	4	10	0	CAGE	218	n/a	0	0	0.5869140625	0.422607421875	lower	../fonts/amplitud.ttf
1764.382	n/a	WORD	882191	wordpools/wasnorm_wordpool.txt	LTP111	ltpFR	4	10	1	CAT	257	n/a	1	1	0.412841796875	0.57763671875	upper	../fonts/zerothre.ttf
1768.24	n/a	WORD	884120	wordpools/wasnorm_wordpool.txt	LTP111	ltpFR	4	10	1	SCRIBBLE	1256	n/a	0	1	0.412841796875	0.57763671875	upper	../fonts/zerothre.ttf
1772.114	n/a	WORD	886057	wordpools/wasnorm_wordpool.txt	LTP111	ltpFR	4	10	1	STOOL	1386	n/a	0	1	0.412841796875	0.57763671875	upper	../fonts/zerothre.ttf
1775.996	n/a	WORD	887998	wordpools/wasnorm_wordpool.txt	LTP111	ltpFR	4	10	1	FUGITIVE	612	n/a	0	1	0.412841796875	0.57763671875	upper	../fonts/zerothre.ttf
1781.618	n/a	REC_START	890809	n/a	LTP111	ltpFR	4	10	n/a	n/a	n/a	n/a	n/a	n/a	n/a	n/a	n/a	n/a
1783.504	n/a	REC_WORD	891752	wordpools/wasnorm_wordpool.txt	LTP111	ltpFR	4	10	1	FUGITIVE	612	n/a	0	n/a	n/a	n/a	n/a	n/a
1785.396	n/a	REC_WORD	892698	wordpools/wasnorm_wordpool.txt	LTP111	ltpFR	4	10	1	STOOL	1386	n/a	0	n/a	n/a	n/a	n/a	n/a
1787.352	n/a	REC_WORD	893676	wordpools/wasnorm_wordpool.txt	LTP111	ltpFR	4	10	0	COMMANDER	354	n/a	0	n/a	n/a	n/a	n/a	n/a
1789.916	n/a	REC_WORD	894958	wordpools/wasnorm_wordpool.txt	LTP111	ltpFR	4	10	0	CHIEF	298	n/a	0	n/a	n/a	n/a	n/a	n/a
1792.14	n/a	REC_WORD	896070	wordpools/wasnorm_wordpool.txt	LTP111	ltpFR	4	10	1	ELBOW	520	n/a	1	n/a	n/a	n/a	n/a	n/a
1794.376	n/a	REC_WORD	897188	wordpools/wasnorm_wordpool.txt	LTP111	ltpFR	4	10	0	BRACELET	163	n/a	0	n/a	n/a	n/a	n/a	n/a
1797.528	n/a	REC_WORD	898764	wordpools/wasnorm_wordpool.txt	LTP111	ltpFR	4	10	0	PUDDLE	1140	n/a	0	n/a	n/a	n/a	n/a	n/a
1800.332	n/a	REC_WORD	900166	wordpools/wasnorm_wordpool.txt	LTP111	ltpFR	4	10	1	ESSAY	540	n/a	0	n/a	n/a	n/a	n/a	n/a
1801.04	n/a	REC_WORD	900520	wordpools/wasnorm_wordpool.txt	LTP111	ltpFR	4	10	0	POET	1095	n/a	0	n/a	n/a	n/a	n/a	n/a
1801.568	n/a	REC_WORD	900784	wordpools/wasnorm_wordpool.txt	LTP111	ltpFR	4	10	1	SCRIBBLE	1256	n/a	0	n/a	n/a	n/a	n/a	n/a
1811.722	n/a	REC_WORD	905861	wordpools/wasnorm_wordpool.txt	LTP111	ltpFR	4	10	0	CAGE	218	n/a	0	n/a	n/a	n/a	n/a	n/a
1876.964	n/a	WORD	938482	wordpools/wasnorm_wordpool.txt	LTP111	ltpFR	4	11	1	SWAN	1417	n/a	0	1	0.412841796875	0.57763671875	upper	../fonts/zerothre.ttf
1881.13	n/a	WORD	940565	wordpools/wasnorm_wordpool.txt	LTP111	ltpFR	4	11	1	GOOSE	649	n/a	0	1	0.412841796875	0.57763671875	upper	../fonts/zerothre.ttf
1885.328	n/a	WORD	942664	wordpools/wasnorm_wordpool.txt	LTP111	ltpFR	4	11	1	VENUS	1557	n/a	0	1	0.412841796875	0.57763671875	upper	../fonts/zerothre.ttf
1889.36	n/a	WORD	944680	wordpools/wasnorm_wordpool.txt	LTP111	ltpFR	4	11	1	HOOP	716	n/a	0	1	0.412841796875	0.57763671875	upper	../fonts/zerothre.ttf
1893.558	n/a	WORD	946779	wordpools/wasnorm_wordpool.txt	LTP111	ltpFR	4	11	1	PUPPY	1144	n/a	0	1	0.412841796875	0.57763671875	upper	../fonts/zerothre.ttf
1897.39	n/a	WORD	948695	wordpools/wasnorm_wordpool.txt	LTP111	ltpFR	4	11	1	ALLEY	15	n/a	0	1	0.412841796875	0.57763671875	upper	../fonts/zerothre.ttf
1901.532	n/a	WORD	950766	wordpools/wasnorm_wordpool.txt	LTP111	ltpFR	4	11	0	LASER	801	n/a	0	0	0.5869140625	0.422607421875	lower	../fonts/amplitud.ttf
1905.446	n/a	WORD	952723	wordpools/wasnorm_wordpool.txt	LTP111	ltpFR	4	11	0	JAM	748	n/a	0	0	0.5869140625	0.422607421875	lower	../fonts/amplitud.ttf
1909.37	n/a	WORD	954685	wordpools/wasnorm_wordpool.txt	LTP111	ltpFR	4	11	1	PLANET	1082	n/a	0	1	0.412841796875	0.57763671875	upper	../fonts/zerothre.ttf
1913.452	n/a	WORD	956726	wordpools/wasnorm_wordpool.txt	LTP111	ltpFR	4	11	1	SPIDER	1351	n/a	0	1	0.412841796875	0.57763671875	upper	../fonts/zerothre.ttf
1917.584	n/a	WORD	958792	wordpools/wasnorm_wordpool.txt	LTP111	ltpFR	4	11	0	BEGGAR	117	n/a	2	0	0.5869140625	0.422607421875	lower	../fonts/amplitud.ttf
1918.626	n/a	KEY_MSG	959313	n/a	LTP111	ltpFR	4	11	n/a	n/a	n/a	n/a	n/a	n/a	n/a	n/a	n/a	n/a
1921.5	n/a	WORD	960750	wordpools/wasnorm_wordpool.txt	LTP111	ltpFR	4	11	0	DOUGHNUT	490	n/a	0	0	0.5869140625	0.422607421875	lower	../fonts/amplitud.ttf
1925.532	n/a	WORD	962766	wordpools/wasnorm_wordpool.txt	LTP111	ltpFR	4	11	0	PRIEST	1122	n/a	0	0	0.5869140625	0.422607421875	lower	../fonts/amplitud.ttf
1929.648	n/a	WORD	964824	wordpools/wasnorm_wordpool.txt	LTP111	ltpFR	4	11	0	POCKET	1093	n/a	0	0	0.5869140625	0.422607421875	lower	../fonts/amplitud.ttf
1933.838	n/a	WORD	966919	wordpools/wasnorm_wordpool.txt	LTP111	ltpFR	4	11	0	WALLET	1583	n/a	0	0	0.5869140625	0.422607421875	lower	../fonts/amplitud.ttf
1937.654	n/a	WORD	968827	wordpools/wasnorm_wordpool.txt	LTP111	ltpFR	4	11	0	DANCER	437	n/a	0	0	0.5869140625	0.422607421875	lower	../fonts/amplitud.ttf
1943.47	n/a	REC_START	971735	n/a	LTP111	ltpFR	4	11	n/a	n/a	n/a	n/a	n/a	n/a	n/a	n/a	n/a	n/a
1945.106	n/a	REC_WORD	972553	wordpools/wasnorm_wordpool.txt	LTP111	ltpFR	4	11	0	DANCER	437	n/a	0	n/a	n/a	n/a	n/a	n/a
1945.994	n/a	REC_WORD	972997	wordpools/wasnorm_wordpool.txt	LTP111	ltpFR	4	11	0	PRIEST	1122	n/a	0	n/a	n/a	n/a	n/a	n/a
1946.992	n/a	REC_WORD	973496	wordpools/wasnorm_wordpool.txt	LTP111	ltpFR	4	11	0	WALLET	1583	n/a	0	n/a	n/a	n/a	n/a	n/a
1950.08	n/a	REC_WORD	975040	wordpools/wasnorm_wordpool.txt	LTP111	ltpFR	4	11	0	POCKET	1093	n/a	0	n/a	n/a	n/a	n/a	n/a
1953.048	n/a	REC_WORD	976524	wordpools/wasnorm_wordpool.txt	LTP111	ltpFR	4	11	1	SWAN	1417	n/a	0	n/a	n/a	n/a	n/a	n/a
1954.09	n/a	REC_WORD	977045	wordpools/wasnorm_wordpool.txt	LTP111	ltpFR	4	11	1	GOOSE	649	n/a	0	n/a	n/a	n/a	n/a	n/a
1954.988	n/a	REC_WORD	977494	wordpools/wasnorm_wordpool.txt	LTP111	ltpFR	4	11	1	HOOP	716	n/a	0	n/a	n/a	n/a	n/a	n/a
1961.908	n/a	REC_WORD	980954	wordpools/wasnorm_wordpool.txt	LTP111	ltpFR	4	11	0	JAM	748	n/a	0	n/a	n/a	n/a	n/a	n/a
1964.238	n/a	REC_WORD	982119	wordpools/wasnorm_wordpool.txt	LTP111	ltpFR	4	11	1	SPIDER	1351	n/a	0	n/a	n/a	n/a	n/a	n/a
1965.34	n/a	REC_WORD	982670	wordpools/wasnorm_wordpool.txt	LTP111	ltpFR	4	11	1	VENUS	1557	n/a	0	n/a	n/a	n/a	n/a	n/a
1970.744	n/a	REC_WORD	985372	wordpools/wasnorm_wordpool.txt	LTP111	ltpFR	4	11	0	LASER	801	n/a	0	n/a	n/a	n/a	n/a	n/a
2025.136	n/a	WORD	1012568	wordpools/wasnorm_wordpool.txt	LTP111	ltpFR	4	12	0	ALBUM	14	n/a	0	0	0.5869140625	0.422607421875	lower	../fonts/amplitud.ttf
2028.968	n/a	WORD	1014484	wordpools/wasnorm_wordpool.txt	LTP111	ltpFR	4	12	0	TAPE	1433	n/a	0	0	0.5869140625	0.422607421875	lower	../fonts/amplitud.ttf
2032.958	n/a	WORD	1016479	wordpools/wasnorm_wordpool.txt	LTP111	ltpFR	4	12	0	GUM	672	n/a	0	0	0.5869140625	0.422607421875	lower	../fonts/amplitud.ttf
2037.108	n/a	WORD	1018554	wordpools/wasnorm_wordpool.txt	LTP111	ltpFR	4	12	0	MILK	895	n/a	0	0	0.5869140625	0.422607421875	lower	../fonts/amplitud.ttf
2041.272	n/a	WORD	1020636	wordpools/wasnorm_wordpool.txt	LTP111	ltpFR	4	12	0	MOWER	928	n/a	0	0	0.5869140625	0.422607421875	lower	../fonts/amplitud.ttf
2045.146	n/a	WORD	1022573	wordpools/wasnorm_wordpool.txt	LTP111	ltpFR	4	12	0	SHRUB	1299	n/a	0	0	0.5869140625	0.422607421875	lower	../fonts/amplitud.ttf
2049.028	n/a	WORD	1024514	wordpools/wasnorm_wordpool.txt	LTP111	ltpFR	4	12	0	JAW	751	n/a	0	0	0.5869140625	0.422607421875	lower	../fonts/amplitud.ttf
2053.102	n/a	WORD	1026551	wordpools/wasnorm_wordpool.txt	LTP111	ltpFR	4	12	0	SNOB	1335	n/a	0	0	0.5869140625	0.422607421875	lower	../fonts/amplitud.ttf
2057.086	n/a	WORD	1028543	wordpools/wasnorm_wordpool.txt	LTP111	ltpFR	4	12	0	WIFE	1609	n/a	0	0	0.5869140625	0.422607421875	lower	../fonts/amplitud.ttf
2060.976	n/a	WORD	1030488	wordpools/wasnorm_wordpool.txt	LTP111	ltpFR	4	12	0	RADISH	1158	n/a	0	0	0.5869140625	0.422607421875	lower	../fonts/amplitud.ttf
2065.108	n/a	WORD	1032554	wordpools/wasnorm_wordpool.txt	LTP111	ltpFR	4	12	0	TOMATO	1476	n/a	0	0	0.5869140625	0.422607421875	lower	../fonts/amplitud.ttf
2068.932	n/a	WORD	1034466	wordpools/wasnorm_wordpool.txt	LTP111	ltpFR	4	12	0	PAPER	1011	n/a	0	0	0.5869140625	0.422607421875	lower	../fonts/amplitud.ttf
2072.846	n/a	WORD	1036423	wordpools/wasnorm_wordpool.txt	LTP111	ltpFR	4	12	0	DRAWER	493	n/a	0	0	0.5869140625	0.422607421875	lower	../fonts/amplitud.ttf
2076.92	n/a	WORD	1038460	wordpools/wasnorm_wordpool.txt	LTP111	ltpFR	4	12	0	SPRINKLE	1359	n/a	0	0	0.5869140625	0.422607421875	lower	../fonts/amplitud.ttf
2081.07	n/a	WORD	1040535	wordpools/wasnorm_wordpool.txt	LTP111	ltpFR	4	12	0	SCROLL	1257	n/a	0	0	0.5869140625	0.422607421875	lower	../fonts/amplitud.ttf
2085.068	n/a	WORD	1042534	wordpools/wasnorm_wordpool.txt	LTP111	ltpFR	4	12	0	IRON	744	n/a	0	0	0.5869140625	0.422607421875	lower	../fonts/amplitud.ttf
2090.85	n/a	REC_START	1045425	n/a	LTP111	ltpFR	4	12	n/a	n/a	n/a	n/a	n/a	n/a	n/a	n/a	n/a	n/a
2093.01	n/a	REC_WORD	1046505	wordpools/wasnorm_wordpool.txt	LTP111	ltpFR	4	12	0	IRON	744	n/a	0	n/a	n/a	n/a	n/a	n/a
2098.522	n/a	REC_WORD	1049261	wordpools/wasnorm_wordpool.txt	LTP111	ltpFR	4	12	n/a	CAPE	237	n/a	n/a	n/a	n/a	n/a	n/a	n/a
2099.466	n/a	REC_WORD	1049733	wordpools/wasnorm_wordpool.txt	LTP111	ltpFR	4	12	0	GUM	672	n/a	0	n/a	n/a	n/a	n/a	n/a
2103.636	n/a	REC_WORD	1051818	wordpools/wasnorm_wordpool.txt	LTP111	ltpFR	4	12	0	ALBUM	14	n/a	0	n/a	n/a	n/a	n/a	n/a
2106.296	n/a	REC_WORD	1053148	wordpools/wasnorm_wordpool.txt	LTP111	ltpFR	4	12	0	MOWER	928	n/a	0	n/a	n/a	n/a	n/a	n/a
2113.17	n/a	REC_WORD	1056585	wordpools/wasnorm_wordpool.txt	LTP111	ltpFR	4	12	0	WIFE	1609	n/a	0	n/a	n/a	n/a	n/a	n/a
2137.546	n/a	REC_WORD	1068773	wordpools/wasnorm_wordpool.txt	LTP111	ltpFR	4	12	0	MILK	895	n/a	0	n/a	n/a	n/a	n/a	n/a
2166.442	n/a	REST_REWET	1083221	n/a	LTP111	ltpFR	4	12	n/a	n/a	n/a	n/a	n/a	n/a	n/a	n/a	n/a	n/a
2548.694	n/a	WORD	1274347	wordpools/wasnorm_wordpool.txt	LTP111	ltpFR	4	13	0	PILOT	1070	n/a	0	0	0.5869140625	0.422607421875	lower	../fonts/amplitud.ttf
2552.668	n/a	WORD	1276334	wordpools/wasnorm_wordpool.txt	LTP111	ltpFR	4	13	0	POPE	1105	n/a	0	0	0.5869140625	0.422607421875	lower	../fonts/amplitud.ttf
2556.842	n/a	WORD	1278421	wordpools/wasnorm_wordpool.txt	LTP111	ltpFR	4	13	0	CUFF	423	n/a	0	0	0.5869140625	0.422607421875	lower	../fonts/amplitud.ttf
2560.732	n/a	WORD	1280366	wordpools/wasnorm_wordpool.txt	LTP111	ltpFR	4	13	0	SLACKS	1323	n/a	0	0	0.5869140625	0.422607421875	lower	../fonts/amplitud.ttf
2564.764	n/a	WORD	1282382	wordpools/wasnorm_wordpool.txt	LTP111	ltpFR	4	13	0	GRAVE	658	n/a	0	0	0.5869140625	0.422607421875	lower	../fonts/amplitud.ttf
2568.922	n/a	WORD	1284461	wordpools/wasnorm_wordpool.txt	LTP111	ltpFR	4	13	0	HANDBAG	684	n/a	0	0	0.5869140625	0.422607421875	lower	../fonts/amplitud.ttf
2572.912	n/a	WORD	1286456	wordpools/wasnorm_wordpool.txt	LTP111	ltpFR	4	13	0	WAIST	1579	n/a	0	0	0.5869140625	0.422607421875	lower	../fonts/amplitud.ttf
2577.07	n/a	WORD	1288535	wordpools/wasnorm_wordpool.txt	LTP111	ltpFR	4	13	0	WRENCH	1625	n/a	0	0	0.5869140625	0.422607421875	lower	../fonts/amplitud.ttf
2581.06	n/a	WORD	1290530	wordpools/wasnorm_wordpool.txt	LTP111	ltpFR	4	13	0	ROD	1203	n/a	0	0	0.5869140625	0.422607421875	lower	../fonts/amplitud.ttf
2585.166	n/a	WORD	1292583	wordpools/wasnorm_wordpool.txt	LTP111	ltpFR	4	13	0	TUTU	1524	n/a	0	0	0.5869140625	0.422607421875	lower	../fonts/amplitud.ttf
2589.19	n/a	WORD	1294595	wordpools/wasnorm_wordpool.txt	LTP111	ltpFR	4	13	0	CLOVE	329	n/a	0	0	0.5869140625	0.422607421875	lower	../fonts/amplitud.ttf
2593.206	n/a	WORD	1296603	wordpools/wasnorm_wordpool.txt	LTP111	ltpFR	4	13	0	BUG	187	n/a	0	0	0.5869140625	0.422607421875	lower	../fonts/amplitud.ttf
2597.238	n/a	WORD	1298619	wordpools/wasnorm_wordpool.txt	LTP111	ltpFR	4	13	0	MOTH	920	n/a	0	0	0.5869140625	0.422607421875	lower	../fonts/amplitud.ttf
2601.154	n/a	WORD	1300577	wordpools/wasnorm_wordpool.txt	LTP111	ltpFR	4	13	0	KITE	779	n/a	0	0	0.5869140625	0.422607421875	lower	../fonts/amplitud.ttf
2605.35	n/a	WORD	1302675	wordpools/wasnorm_wordpool.txt	LTP111	ltpFR	4	13	0	SEED	1266	n/a	0	0	0.5869140625	0.422607421875	lower	../fonts/amplitud.ttf
2609.292	n/a	WORD	1304646	wordpools/wasnorm_wordpool.txt	LTP111	ltpFR	4	13	0	TOOL	1480	n/a	0	0	0.5869140625	0.422607421875	lower	../fonts/amplitud.ttf
2615.258	n/a	REC_START	1307629	n/a	LTP111	ltpFR	4	13	n/a	n/a	n/a	n/a	n/a	n/a	n/a	n/a	n/a	n/a
2616.76	n/a	REC_WORD	1308380	wordpools/wasnorm_wordpool.txt	LTP111	ltpFR	4	13	0	MOTH	920	n/a	0	n/a	n/a	n/a	n/a	n/a
2618.56	n/a	REC_WORD	1309280	wordpools/wasnorm_wordpool.txt	LTP111	ltpFR	4	13	0	TUTU	1524	n/a	0	n/a	n/a	n/a	n/a	n/a
2620.252	n/a	REC_WORD	1310126	wordpools/wasnorm_wordpool.txt	LTP111	ltpFR	4	13	0	CLOVE	329	n/a	0	n/a	n/a	n/a	n/a	n/a
2621.046	n/a	REC_WORD	1310523	wordpools/wasnorm_wordpool.txt	LTP111	ltpFR	4	13	0	KITE	779	n/a	0	n/a	n/a	n/a	n/a	n/a
2622.83	n/a	REC_WORD	1311415	wordpools/wasnorm_wordpool.txt	LTP111	ltpFR	4	13	0	SEED	1266	n/a	0	n/a	n/a	n/a	n/a	n/a
2623.928	n/a	REC_WORD	1311964	wordpools/wasnorm_wordpool.txt	LTP111	ltpFR	4	13	0	TOOL	1480	n/a	0	n/a	n/a	n/a	n/a	n/a
2625.594	n/a	REC_WORD	1312797	wordpools/wasnorm_wordpool.txt	LTP111	ltpFR	4	13	0	PRIEST	1122	n/a	0	n/a	n/a	n/a	n/a	n/a
2626.224	n/a	REC_WORD	1313112	wordpools/wasnorm_wordpool.txt	LTP111	ltpFR	4	13	0	PILOT	1070	n/a	0	n/a	n/a	n/a	n/a	n/a
2626.882	n/a	REC_WORD	1313441	wordpools/wasnorm_wordpool.txt	LTP111	ltpFR	4	13	0	CUFF	423	n/a	0	n/a	n/a	n/a	n/a	n/a
2627.53	n/a	REC_WORD	1313765	wordpools/wasnorm_wordpool.txt	LTP111	ltpFR	4	13	n/a	PANTS	1010	n/a	n/a	n/a	n/a	n/a	n/a	n/a
2628.428	n/a	REC_WORD_VV	1314214	wordpools/wasnorm_wordpool.txt	LTP111	ltpFR	4	13	n/a	<>	-1	n/a	n/a	n/a	n/a	n/a	n/a	n/a
2628.574	n/a	REC_WORD	1314287	wordpools/wasnorm_wordpool.txt	LTP111	ltpFR	4	13	0	SLACKS	1323	n/a	0	n/a	n/a	n/a	n/a	n/a
2633.388	n/a	REC_WORD	1316694	wordpools/wasnorm_wordpool.txt	LTP111	ltpFR	4	13	0	GRAVE	658	n/a	0	n/a	n/a	n/a	n/a	n/a
2633.928	n/a	REC_WORD	1316964	wordpools/wasnorm_wordpool.txt	LTP111	ltpFR	4	13	0	HANDBAG	684	n/a	0	n/a	n/a	n/a	n/a	n/a
2640.172	n/a	REC_WORD	1320086	wordpools/wasnorm_wordpool.txt	LTP111	ltpFR	4	13	0	WAIST	1579	n/a	0	n/a	n/a	n/a	n/a	n/a
2640.782	n/a	REC_WORD	1320391	wordpools/wasnorm_wordpool.txt	LTP111	ltpFR	4	13	0	ROD	1203	n/a	0	n/a	n/a	n/a	n/a	n/a
2700.682	n/a	WORD	1350341	wordpools/wasnorm_wordpool.txt	LTP111	ltpFR	4	14	-1	LAUNDRY	803	n/a	-1	1	1.0	1.0	upper	../fonts/Verdana.ttf
2704.52	n/a	WORD	1352260	wordpools/wasnorm_wordpool.txt	LTP111	ltpFR	4	14	-1	BEAD	103	n/a	-1	1	1.0	1.0	upper	../fonts/Verdana.ttf
2708.662	n/a	WORD	1354331	wordpools/wasnorm_wordpool.txt	LTP111	ltpFR	4	14	-1	TREASURE	1500	n/a	-1	1	1.0	1.0	upper	../fonts/Verdana.ttf
2712.728	n/a	WORD	1356364	wordpools/wasnorm_wordpool.txt	LTP111	ltpFR	4	14	-1	MEDAL	885	n/a	-1	1	1.0	1.0	upper	../fonts/Verdana.ttf
2716.844	n/a	WORD	1358422	wordpools/wasnorm_wordpool.txt	LTP111	ltpFR	4	14	-1	BOXER	160	n/a	-1	1	1.0	1.0	upper	../fonts/Verdana.ttf
2720.816	n/a	WORD	1360408	wordpools/wasnorm_wordpool.txt	LTP111	ltpFR	4	14	-1	POLITICIAN	1099	n/a	-1	1	1.0	1.0	upper	../fonts/Verdana.ttf
2724.658	n/a	WORD	1362329	wordpools/wasnorm_wordpool.txt	LTP111	ltpFR	4	14	-1	AWARD	63	n/a	-1	1	1.0	1.0	upper	../fonts/Verdana.ttf
2728.588	n/a	WORD	1364294	wordpools/wasnorm_wordpool.txt	LTP111	ltpFR	4	14	-1	FIN	566	n/a	-1	1	1.0	1.0	upper	../fonts/Verdana.ttf
2732.53	n/a	WORD	1366265	wordpools/wasnorm_wordpool.txt	LTP111	ltpFR	4	14	-1	DIVER	476	n/a	-1	1	1.0	1.0	upper	../fonts/Verdana.ttf
2736.502	n/a	WORD	1368251	wordpools/wasnorm_wordpool.txt	LTP111	ltpFR	4	14	-1	DRESSER	496	n/a	-1	1	1.0	1.0	upper	../fonts/Verdana.ttf
2740.652	n/a	WORD	1370326	wordpools/wasnorm_wordpool.txt	LTP111	ltpFR	4	14	-1	HOUND	724	n/a	-1	1	1.0	1.0	upper	../fonts/Verdana.ttf
2744.86	n/a	WORD	1372430	wordpools/wasnorm_wordpool.txt	LTP111	ltpFR	4	14	-1	DRIVEWAY	500	n/a	-1	1	1.0	1.0	upper	../fonts/Verdana.ttf
2748.984	n/a	WORD	1374492	wordpools/wasnorm_wordpool.txt	LTP111	ltpFR	4	14	-1	MOTOR	922	n/a	-1	1	1.0	1.0	upper	../fonts/Verdana.ttf
2752.84	n/a	WORD	1376420	wordpools/wasnorm_wordpool.txt	LTP111	ltpFR	4	14	-1	MONK	910	n/a	-1	1	1.0	1.0	upper	../fonts/Verdana.ttf
2756.672	n/a	WORD	1378336	wordpools/wasnorm_wordpool.txt	LTP111	ltpFR	4	14	-1	EMPLOYER	532	n/a	-1	1	1.0	1.0	upper	../fonts/Verdana.ttf
2760.73	n/a	WORD	1380365	wordpools/wasnorm_wordpool.txt	LTP111	ltpFR	4	14	-1	LACE	792	n/a	-1	1	1.0	1.0	upper	../fonts/Verdana.ttf
2766.328	n/a	REC_START	1383164	n/a	LTP111	ltpFR	4	14	n/a	n/a	n/a	n/a	n/a	n/a	n/a	n/a	n/a	n/a
2767.016	n/a	REC_WORD	1383508	wordpools/wasnorm_wordpool.txt	LTP111	ltpFR	4	14	-1	DRIVEWAY	500	n/a	-1	n/a	n/a	n/a	n/a	n/a
2767.612	n/a	REC_WORD	1383806	wordpools/wasnorm_wordpool.txt	LTP111	ltpFR	4	14	-1	MOTOR	922	n/a	-1	n/a	n/a	n/a	n/a	n/a
2768.048	n/a	REC_WORD	1384024	wordpools/wasnorm_wordpool.txt	LTP111	ltpFR	4	14	-1	MONK	910	n/a	-1	n/a	n/a	n/a	n/a	n/a
2768.642	n/a	REC_WORD	1384321	wordpools/wasnorm_wordpool.txt	LTP111	ltpFR	4	14	-1	EMPLOYER	532	n/a	-1	n/a	n/a	n/a	n/a	n/a
2769.178	n/a	REC_WORD	1384589	wordpools/wasnorm_wordpool.txt	LTP111	ltpFR	4	14	-1	LACE	792	n/a	-1	n/a	n/a	n/a	n/a	n/a
2771.83	n/a	REC_WORD	1385915	wordpools/wasnorm_wordpool.txt	LTP111	ltpFR	4	14	-1	LAUNDRY	803	n/a	-1	n/a	n/a	n/a	n/a	n/a
2773.976	n/a	REC_WORD	1386988	wordpools/wasnorm_wordpool.txt	LTP111	ltpFR	4	14	-1	TREASURE	1500	n/a	-1	n/a	n/a	n/a	n/a	n/a
2774.51	n/a	REC_WORD	1387255	wordpools/wasnorm_wordpool.txt	LTP111	ltpFR	4	14	-1	MEDAL	885	n/a	-1	n/a	n/a	n/a	n/a	n/a
2780.136	n/a	REC_WORD	1390068	wordpools/wasnorm_wordpool.txt	LTP111	ltpFR	4	14	0	ALBUM	14	n/a	0	n/a	n/a	n/a	n/a	n/a
2780.65	n/a	REC_WORD_VV	1390325	wordpools/wasnorm_wordpool.txt	LTP111	ltpFR	4	14	n/a	<>	-1	n/a	n/a	n/a	n/a	n/a	n/a	n/a
2780.84	n/a	REC_WORD	1390420	wordpools/wasnorm_wordpool.txt	LTP111	ltpFR	4	14	0	ALBUM	14	n/a	0	n/a	n/a	n/a	n/a	n/a
2782.756	n/a	REC_WORD	1391378	wordpools/wasnorm_wordpool.txt	LTP111	ltpFR	4	14	-1	DRESSER	496	n/a	-1	n/a	n/a	n/a	n/a	n/a
2797.244	n/a	REC_WORD	1398622	wordpools/wasnorm_wordpool.txt	LTP111	ltpFR	4	14	-1	BOXER	160	n/a	-1	n/a	n/a	n/a	n/a	n/a
2798.576	n/a	REC_WORD	1399288	wordpools/wasnorm_wordpool.txt	LTP111	ltpFR	4	14	-1	POLITICIAN	1099	n/a	-1	n/a	n/a	n/a	n/a	n/a
2800.258	n/a	REC_WORD	1400129	wordpools/wasnorm_wordpool.txt	LTP111	ltpFR	4	14	-1	DIVER	476	n/a	-1	n/a	n/a	n/a	n/a	n/a
2852.392	n/a	WORD	1426196	wordpools/wasnorm_wordpool.txt	LTP111	ltpFR	4	15	-1	BULB	192	n/a	-1	1	1.0	1.0	upper	../fonts/Verdana.ttf
2856.458	n/a	WORD	1428229	wordpools/wasnorm_wordpool.txt	LTP111	ltpFR	4	15	-1	FRIEND	606	n/a	-1	1	1.0	1.0	upper	../fonts/Verdana.ttf
2860.282	n/a	WORD	1430141	wordpools/wasnorm_wordpool.txt	LTP111	ltpFR	4	15	-1	PERFUME	1049	n/a	-1	1	1.0	1.0	upper	../fonts/Verdana.ttf
2864.198	n/a	WORD	1432099	wordpools/wasnorm_wordpool.txt	LTP111	ltpFR	4	15	-1	PILL	1068	n/a	-1	1	1.0	1.0	upper	../fonts/Verdana.ttf
2868.098	n/a	WORD	1434049	wordpools/wasnorm_wordpool.txt	LTP111	ltpFR	4	15	-1	DRUG	501	n/a	-1	1	1.0	1.0	upper	../fonts/Verdana.ttf
2872.212	n/a	WORD	1436106	wordpools/wasnorm_wordpool.txt	LTP111	ltpFR	4	15	-1	BARREL	91	n/a	-1	1	1.0	1.0	upper	../fonts/Verdana.ttf
2876.194	n/a	WORD	1438097	wordpools/wasnorm_wordpool.txt	LTP111	ltpFR	4	15	-1	SLIME	1327	n/a	-1	1	1.0	1.0	upper	../fonts/Verdana.ttf
2880.21	n/a	WORD	1440105	wordpools/wasnorm_wordpool.txt	LTP111	ltpFR	4	15	-1	LAWN	805	n/a	-1	1	1.0	1.0	upper	../fonts/Verdana.ttf
2884.026	n/a	WORD	1442013	wordpools/wasnorm_wordpool.txt	LTP111	ltpFR	4	15	-1	PAIL	1002	n/a	-1	1	1.0	1.0	upper	../fonts/Verdana.ttf
2887.958	n/a	WORD	1443979	wordpools/wasnorm_wordpool.txt	LTP111	ltpFR	4	15	-1	HEAD	695	n/a	-1	1	1.0	1.0	upper	../fonts/Verdana.ttf
2891.966	n/a	WORD	1445983	wordpools/wasnorm_wordpool.txt	LTP111	ltpFR	4	15	-1	RAFT	1159	n/a	-1	1	1.0	1.0	upper	../fonts/Verdana.ttf
2896.138	n/a	WORD	1448069	wordpools/wasnorm_wordpool.txt	LTP111	ltpFR	4	15	-1	SHIP	1286	n/a	-1	1	1.0	1.0	upper	../fonts/Verdana.ttf
2900.254	n/a	WORD	1450127	wordpools/wasnorm_wordpool.txt	LTP111	ltpFR	4	15	-1	WASHCLOTH	1591	n/a	-1	1	1.0	1.0	upper	../fonts/Verdana.ttf
2904.386	n/a	WORD	1452193	wordpools/wasnorm_wordpool.txt	LTP111	ltpFR	4	15	-1	BEAR	106	n/a	-1	1	1.0	1.0	upper	../fonts/Verdana.ttf
2908.326	n/a	WORD	1454163	wordpools/wasnorm_wordpool.txt	LTP111	ltpFR	4	15	-1	BEARD	107	n/a	-1	1	1.0	1.0	upper	../fonts/Verdana.ttf
2912.276	n/a	WORD	1456138	wordpools/wasnorm_wordpool.txt	LTP111	ltpFR	4	15	-1	DETERGENT	455	n/a	-1	1	1.0	1.0	upper	../fonts/Verdana.ttf
2918.124	n/a	REC_START	1459062	n/a	LTP111	ltpFR	4	15	n/a	n/a	n/a	n/a	n/a	n/a	n/a	n/a	n/a	n/a
2919.082	n/a	REC_WORD	1459541	wordpools/wasnorm_wordpool.txt	LTP111	ltpFR	4	15	-1	SHIP	1286	n/a	-1	n/a	n/a	n/a	n/a	n/a
2919.794	n/a	REC_WORD	1459897	wordpools/wasnorm_wordpool.txt	LTP111	ltpFR	4	15	-1	WASHCLOTH	1591	n/a	-1	n/a	n/a	n/a	n/a	n/a
2920.642	n/a	REC_WORD	1460321	wordpools/wasnorm_wordpool.txt	LTP111	ltpFR	4	15	-1	BEAR	106	n/a	-1	n/a	n/a	n/a	n/a	n/a
2921.332	n/a	REC_WORD	1460666	wordpools/wasnorm_wordpool.txt	LTP111	ltpFR	4	15	-1	BEARD	107	n/a	-1	n/a	n/a	n/a	n/a	n/a
2921.914	n/a	REC_WORD	1460957	wordpools/wasnorm_wordpool.txt	LTP111	ltpFR	4	15	-1	DETERGENT	455	n/a	-1	n/a	n/a	n/a	n/a	n/a
2925.502	n/a	REC_WORD	1462751	wordpools/wasnorm_wordpool.txt	LTP111	ltpFR	4	15	-1	FRIEND	606	n/a	-1	n/a	n/a	n/a	n/a	n/a
2931.524	n/a	REC_WORD	1465762	wordpools/wasnorm_wordpool.txt	LTP111	ltpFR	4	15	-1	PILL	1068	n/a	-1	n/a	n/a	n/a	n/a	n/a
2933.39	n/a	REC_WORD	1466695	wordpools/wasnorm_wordpool.txt	LTP111	ltpFR	4	15	-1	DRUG	501	n/a	-1	n/a	n/a	n/a	n/a	n/a
2935.47	n/a	REC_WORD	1467735	wordpools/wasnorm_wordpool.txt	LTP111	ltpFR	4	15	-1	PERFUME	1049	n/a	-1	n/a	n/a	n/a	n/a	n/a
2938.308	n/a	REC_WORD	1469154	wordpools/wasnorm_wordpool.txt	LTP111	ltpFR	4	15	-1	LAWN	805	n/a	-1	n/a	n/a	n/a	n/a	n/a
2939.93	n/a	REC_WORD	1469965	wordpools/wasnorm_wordpool.txt	LTP111	ltpFR	4	15	-1	PAIL	1002	n/a	-1	n/a	n/a	n/a	n/a	n/a
2941.722	n/a	REC_WORD	1470861	wordpools/wasnorm_wordpool.txt	LTP111	ltpFR	4	15	-1	BARREL	91	n/a	-1	n/a	n/a	n/a	n/a	n/a
2943.372	n/a	REC_WORD	1471686	wordpools/wasnorm_wordpool.txt	LTP111	ltpFR	4	15	-1	SLIME	1327	n/a	-1	n/a	n/a	n/a	n/a	n/a
3006.956	n/a	WORD	1503478	wordpools/wasnorm_wordpool.txt	LTP111	ltpFR	4	16	0	LOOP	844	n/a	0	0	0.5869140625	0.422607421875	lower	../fonts/amplitud.ttf
3011.128	n/a	WORD	1505564	wordpools/wasnorm_wordpool.txt	LTP111	ltpFR	4	16	0	ELM	527	n/a	0	0	0.5869140625	0.422607421875	lower	../fonts/amplitud.ttf
3014.994	n/a	WORD	1507497	wordpools/wasnorm_wordpool.txt	LTP111	ltpFR	4	16	0	ACORN	3	n/a	0	0	0.5869140625	0.422607421875	lower	../fonts/amplitud.ttf
3019.176	n/a	WORD	1509588	wordpools/wasnorm_wordpool.txt	LTP111	ltpFR	4	16	0	CRUMB	416	n/a	0	0	0.5869140625	0.422607421875	lower	../fonts/amplitud.ttf
3023.366	n/a	WORD	1511683	wordpools/wasnorm_wordpool.txt	LTP111	ltpFR	4	16	0	PASTRY	1022	n/a	0	0	0.5869140625	0.422607421875	lower	../fonts/amplitud.ttf
3027.332	n/a	WORD	1513666	wordpools/wasnorm_wordpool.txt	LTP111	ltpFR	4	16	0	BEER	114	n/a	0	0	0.5869140625	0.422607421875	lower	../fonts/amplitud.ttf
3031.248	n/a	WORD	1515624	wordpools/wasnorm_wordpool.txt	LTP111	ltpFR	4	16	0	SEAT	1264	n/a	0	0	0.5869140625	0.422607421875	lower	../fonts/amplitud.ttf
3035.346	n/a	WORD	1517673	wordpools/wasnorm_wordpool.txt	LTP111	ltpFR	4	16	0	WEED	1599	n/a	n/a	0	0.5869140625	0.422607421875	lower	../fonts/amplitud.ttf
3038.37	n/a	SLOW_MSG	1519185	n/a	LTP111	ltpFR	4	16	n/a	n/a	n/a	n/a	n/a	n/a	n/a	n/a	n/a	n/a
3040.72	n/a	WORD	1520360	wordpools/wasnorm_wordpool.txt	LTP111	ltpFR	4	16	0	BANDIT	81	n/a	0	0	0.5869140625	0.422607421875	lower	../fonts/amplitud.ttf
3044.818	n/a	WORD	1522409	wordpools/wasnorm_wordpool.txt	LTP111	ltpFR	4	16	0	COLESLAW	344	n/a	0	0	0.5869140625	0.422607421875	lower	../fonts/amplitud.ttf
3048.726	n/a	WORD	1524363	wordpools/wasnorm_wordpool.txt	LTP111	ltpFR	4	16	0	CHIMNEY	301	n/a	0	0	0.5869140625	0.422607421875	lower	../fonts/amplitud.ttf
3052.59	n/a	WORD	1526295	wordpools/wasnorm_wordpool.txt	LTP111	ltpFR	4	16	0	OUTLAW	989	n/a	0	0	0.5869140625	0.422607421875	lower	../fonts/amplitud.ttf
3056.58	n/a	WORD	1528290	wordpools/wasnorm_wordpool.txt	LTP111	ltpFR	4	16	0	KNOT	788	n/a	0	0	0.5869140625	0.422607421875	lower	../fonts/amplitud.ttf
3060.446	n/a	WORD	1530223	wordpools/wasnorm_wordpool.txt	LTP111	ltpFR	4	16	0	TUBE	1516	n/a	0	0	0.5869140625	0.422607421875	lower	../fonts/amplitud.ttf
3064.636	n/a	WORD	1532318	wordpools/wasnorm_wordpool.txt	LTP111	ltpFR	4	16	0	BATH	98	n/a	0	0	0.5869140625	0.422607421875	lower	../fonts/amplitud.ttf
3068.56	n/a	WORD	1534280	wordpools/wasnorm_wordpool.txt	LTP111	ltpFR	4	16	0	BAKER	71	n/a	0	0	0.5869140625	0.422607421875	lower	../fonts/amplitud.ttf
3074.358	n/a	REC_START	1537179	n/a	LTP111	ltpFR	4	16	n/a	n/a	n/a	n/a	n/a	n/a	n/a	n/a	n/a	n/a
3075.786	n/a	REC_WORD	1537893	wordpools/wasnorm_wordpool.txt	LTP111	ltpFR	4	16	0	BAKER	71	n/a	0	n/a	n/a	n/a	n/a	n/a
3076.194	n/a	REC_WORD	1538097	wordpools/wasnorm_wordpool.txt	LTP111	ltpFR	4	16	0	BATH	98	n/a	0	n/a	n/a	n/a	n/a	n/a
3080.536	n/a	REC_WORD	1540268	wordpools/wasnorm_wordpool.txt	LTP111	ltpFR	4	16	0	LOOP	844	n/a	0	n/a	n/a	n/a	n/a	n/a
3082.082	n/a	REC_WORD	1541041	wordpools/wasnorm_wordpool.txt	LTP111	ltpFR	4	16	0	ACORN	3	n/a	0	n/a	n/a	n/a	n/a	n/a
3084.002	n/a	REC_WORD	1542001	wordpools/wasnorm_wordpool.txt	LTP111	ltpFR	4	16	0	ELM	527	n/a	0	n/a	n/a	n/a	n/a	n/a
3087.156	n/a	REC_WORD	1543578	wordpools/wasnorm_wordpool.txt	LTP111	ltpFR	4	16	0	BANDIT	81	n/a	0	n/a	n/a	n/a	n/a	n/a
3090.538	n/a	REC_WORD	1545269	wordpools/wasnorm_wordpool.txt	LTP111	ltpFR	4	16	0	CRUMB	416	n/a	0	n/a	n/a	n/a	n/a	n/a
3092.682	n/a	REC_WORD	1546341	wordpools/wasnorm_wordpool.txt	LTP111	ltpFR	4	16	0	PASTRY	1022	n/a	0	n/a	n/a	n/a	n/a	n/a
3093.496	n/a	REC_WORD	1546748	wordpools/wasnorm_wordpool.txt	LTP111	ltpFR	4	16	0	BEER	114	n/a	0	n/a	n/a	n/a	n/a	n/a
3096.026	n/a	REC_WORD	1548013	wordpools/wasnorm_wordpool.txt	LTP111	ltpFR	4	16	0	BAKER	71	n/a	0	n/a	n/a	n/a	n/a	n/a
3174.738	n/a	REC_START	1587369	n/a	LTP111	ltpFR	4	1	n/a	n/a	n/a	n/a	n/a	n/a	n/a	n/a	n/a	n/a
3174.772	n/a	RECOG_LURE	1587386	n/a	LTP111	ltpFR	4	1	n/a	PLATE	1086	1	n/a	n/a	n/a	n/a	n/a	n/a
3179.942	n/a	RECOG_RESP	1589971	n/a	LTP111	ltpFR	4	1	n/a	PLATE	1086	n/a	n/a	n/a	n/a	n/a	n/a	n/a
3182.296	n/a	RECOG_CONF	1591148	n/a	LTP111	ltpFR	4	1	n/a	PLATE	1086	1	n/a	n/a	n/a	n/a	n/a	n/a
3183.942	n/a	RECOG_TARGET	1591971	n/a	LTP111	ltpFR	4	1	0	SEED	1266	1	0	n/a	n/a	n/a	n/a	n/a
3185.16	n/a	RECOG_RESP	1592580	n/a	LTP111	ltpFR	4	1	0	SEED	1266	n/a	0	n/a	n/a	n/a	n/a	n/a
3186.346	n/a	RECOG_CONF	1593173	n/a	LTP111	ltpFR	4	1	0	SEED	1266	1	0	n/a	n/a	n/a	n/a	n/a
3187.916	n/a	RECOG_LURE	1593958	n/a	LTP111	ltpFR	4	1	n/a	CAVE	263	1	n/a	n/a	n/a	n/a	n/a	n/a
3189.28	n/a	RECOG_RESP	1594640	n/a	LTP111	ltpFR	4	1	n/a	CAVE	263	n/a	n/a	n/a	n/a	n/a	n/a	n/a
3190.318	n/a	RECOG_CONF	1595159	n/a	LTP111	ltpFR	4	1	n/a	CAVE	263	1	n/a	n/a	n/a	n/a	n/a	n/a
3191.806	n/a	RECOG_LURE	1595903	n/a	LTP111	ltpFR	4	1	n/a	YOKE	1632	1	n/a	n/a	n/a	n/a	n/a	n/a
3192.868	n/a	RECOG_RESP	1596434	n/a	LTP111	ltpFR	4	1	n/a	YOKE	1632	n/a	n/a	n/a	n/a	n/a	n/a	n/a
3193.712	n/a	RECOG_CONF	1596856	n/a	LTP111	ltpFR	4	1	n/a	YOKE	1632	1	n/a	n/a	n/a	n/a	n/a	n/a
3195.098	n/a	RECOG_LURE	1597549	n/a	LTP111	ltpFR	4	1	n/a	COB	334	1	n/a	n/a	n/a	n/a	n/a	n/a
3196.14	n/a	RECOG_RESP	1598070	n/a	LTP111	ltpFR	4	1	n/a	COB	334	n/a	n/a	n/a	n/a	n/a	n/a	n/a
3196.984	n/a	RECOG_CONF	1598492	n/a	LTP111	ltpFR	4	1	n/a	COB	334	1	n/a	n/a	n/a	n/a	n/a	n/a
3198.222	n/a	RECOG_TARGET	1599111	n/a	LTP111	ltpFR	4	1	-1	FRIEND	606	3	-1	n/a	n/a	n/a	n/a	n/a
3199.044	n/a	RECOG_RESP	1599522	n/a	LTP111	ltpFR	4	1	-1	FRIEND	606	n/a	-1	n/a	n/a	n/a	n/a	n/a
3200.736	n/a	RECOG_CONF	1600368	n/a	LTP111	ltpFR	4	1	-1	FRIEND	606	3	-1	n/a	n/a	n/a	n/a	n/a
3202.188	n/a	RECOG_LURE	1601094	n/a	LTP111	ltpFR	4	1	n/a	OBOE	969	1	n/a	n/a	n/a	n/a	n/a	n/a
3205.206	n/a	RECOG_RESP	1602603	n/a	LTP111	ltpFR	4	1	n/a	OBOE	969	n/a	n/a	n/a	n/a	n/a	n/a	n/a
3206.412	n/a	RECOG_CONF	1603206	n/a	LTP111	ltpFR	4	1	n/a	OBOE	969	1	n/a	n/a	n/a	n/a	n/a	n/a
3208.044	n/a	RECOG_TARGET	1604022	n/a	LTP111	ltpFR	4	1	1	AUDIENCE	59	3	0	n/a	n/a	n/a	n/a	n/a
3208.982	n/a	RECOG_RESP	1604491	n/a	LTP111	ltpFR	4	1	1	AUDIENCE	59	n/a	0	n/a	n/a	n/a	n/a	n/a
3209.984	n/a	RECOG_CONF	1604992	n/a	LTP111	ltpFR	4	1	1	AUDIENCE	59	3	0	n/a	n/a	n/a	n/a	n/a
3211.342	n/a	RECOG_TARGET	1605671	n/a	LTP111	ltpFR	4	1	0	WIFE	1609	2	0	n/a	n/a	n/a	n/a	n/a
3212.176	n/a	RECOG_RESP	1606088	n/a	LTP111	ltpFR	4	1	0	WIFE	1609	n/a	0	n/a	n/a	n/a	n/a	n/a
3213.118	n/a	RECOG_CONF	1606559	n/a	LTP111	ltpFR	4	1	0	WIFE	1609	2	0	n/a	n/a	n/a	n/a	n/a
3214.55	n/a	RECOG_LURE	1607275	n/a	LTP111	ltpFR	4	1	n/a	PROFESSOR	1131	1	n/a	n/a	n/a	n/a	n/a	n/a
3216.072	n/a	RECOG_RESP	1608036	n/a	LTP111	ltpFR	4	1	n/a	PROFESSOR	1131	n/a	n/a	n/a	n/a	n/a	n/a	n/a
3217.358	n/a	RECOG_CONF	1608679	n/a	LTP111	ltpFR	4	1	n/a	PROFESSOR	1131	1	n/a	n/a	n/a	n/a	n/a	n/a
3218.9	n/a	RECOG_TARGET	1609450	n/a	LTP111	ltpFR	4	1	0	BANDIT	81	4	0	n/a	n/a	n/a	n/a	n/a
3219.624	n/a	RECOG_RESP	1609812	n/a	LTP111	ltpFR	4	1	0	BANDIT	81	n/a	0	n/a	n/a	n/a	n/a	n/a
3220.83	n/a	RECOG_CONF	1610415	n/a	LTP111	ltpFR	4	1	0	BANDIT	81	4	0	n/a	n/a	n/a	n/a	n/a
3222.272	n/a	RECOG_TARGET	1611136	n/a	LTP111	ltpFR	4	1	0	HAMMOCK	681	4	0	n/a	n/a	n/a	n/a	n/a
3223.14	n/a	RECOG_RESP	1611570	n/a	LTP111	ltpFR	4	1	0	HAMMOCK	681	n/a	0	n/a	n/a	n/a	n/a	n/a
3224.252	n/a	RECOG_CONF	1612126	n/a	LTP111	ltpFR	4	1	0	HAMMOCK	681	4	0	n/a	n/a	n/a	n/a	n/a
3225.738	n/a	RECOG_LURE	1612869	n/a	LTP111	ltpFR	4	1	n/a	FLASK	576	1	n/a	n/a	n/a	n/a	n/a	n/a
3227.082	n/a	RECOG_RESP	1613541	n/a	LTP111	ltpFR	4	1	n/a	FLASK	576	n/a	n/a	n/a	n/a	n/a	n/a	n/a
3228.404	n/a	RECOG_CONF	1614202	n/a	LTP111	ltpFR	4	1	n/a	FLASK	576	1	n/a	n/a	n/a	n/a	n/a	n/a
3229.904	n/a	RECOG_LURE	1614952	n/a	LTP111	ltpFR	4	1	n/a	BLACKBOARD	133	1	n/a	n/a	n/a	n/a	n/a	n/a
3231.368	n/a	RECOG_RESP	1615684	n/a	LTP111	ltpFR	4	1	n/a	BLACKBOARD	133	n/a	n/a	n/a	n/a	n/a	n/a	n/a
3232.754	n/a	RECOG_CONF	1616377	n/a	LTP111	ltpFR	4	1	n/a	BLACKBOARD	133	1	n/a	n/a	n/a	n/a	n/a	n/a
3234.27	n/a	RECOG_LURE	1617135	n/a	LTP111	ltpFR	4	1	n/a	PEDAL	1037	1	n/a	n/a	n/a	n/a	n/a	n/a
3235.184	n/a	RECOG_RESP	1617592	n/a	LTP111	ltpFR	4	1	n/a	PEDAL	1037	n/a	n/a	n/a	n/a	n/a	n/a	n/a
3236.056	n/a	RECOG_CONF	1618028	n/a	LTP111	ltpFR	4	1	n/a	PEDAL	1037	1	n/a	n/a	n/a	n/a	n/a	n/a
3237.41	n/a	RECOG_LURE	1618705	n/a	LTP111	ltpFR	4	1	n/a	ROUGE	1213	1	n/a	n/a	n/a	n/a	n/a	n/a
3238.456	n/a	RECOG_RESP	1619228	n/a	LTP111	ltpFR	4	1	n/a	ROUGE	1213	n/a	n/a	n/a	n/a	n/a	n/a	n/a
3239.28	n/a	RECOG_CONF	1619640	n/a	LTP111	ltpFR	4	1	n/a	ROUGE	1213	1	n/a	n/a	n/a	n/a	n/a	n/a
3240.642	n/a	RECOG_TARGET	1620321	n/a	LTP111	ltpFR	4	1	1	ERASER	538	1	0	n/a	n/a	n/a	n/a	n/a
3241.944	n/a	RECOG_RESP	1620972	n/a	LTP111	ltpFR	4	1	1	ERASER	538	n/a	0	n/a	n/a	n/a	n/a	n/a
3242.842	n/a	RECOG_CONF	1621421	n/a	LTP111	ltpFR	4	1	1	ERASER	538	1	0	n/a	n/a	n/a	n/a	n/a
3244.216	n/a	RECOG_LURE	1622108	n/a	LTP111	ltpFR	4	1	n/a	BOARD	143	1	n/a	n/a	n/a	n/a	n/a	n/a
3245.42	n/a	RECOG_RESP	1622710	n/a	LTP111	ltpFR	4	1	n/a	BOARD	143	n/a	n/a	n/a	n/a	n/a	n/a	n/a
3246.254	n/a	RECOG_CONF	1623127	n/a	LTP111	ltpFR	4	1	n/a	BOARD	143	1	n/a	n/a	n/a	n/a	n/a	n/a
3247.622	n/a	RECOG_TARGET	1623811	n/a	LTP111	ltpFR	4	1	0	SYRINGE	1424	3	0	n/a	n/a	n/a	n/a	n/a
3248.574	n/a	RECOG_RESP	1624287	n/a	LTP111	ltpFR	4	1	0	SYRINGE	1424	n/a	0	n/a	n/a	n/a	n/a	n/a
3249.516	n/a	RECOG_CONF	1624758	n/a	LTP111	ltpFR	4	1	0	SYRINGE	1424	3	0	n/a	n/a	n/a	n/a	n/a
3250.864	n/a	RECOG_TARGET	1625432	n/a	LTP111	ltpFR	4	1	1	BEETLE	116	1	0	n/a	n/a	n/a	n/a	n/a
3251.688	n/a	RECOG_RESP	1625844	n/a	LTP111	ltpFR	4	1	1	BEETLE	116	n/a	0	n/a	n/a	n/a	n/a	n/a
3252.61	n/a	RECOG_CONF	1626305	n/a	LTP111	ltpFR	4	1	1	BEETLE	116	1	0	n/a	n/a	n/a	n/a	n/a
3257.866	n/a	REC_START	1628933	n/a	LTP111	ltpFR	4	2	n/a	n/a	n/a	n/a	n/a	n/a	n/a	n/a	n/a	n/a
3257.904	n/a	RECOG_LURE	1628952	n/a	LTP111	ltpFR	4	2	n/a	ABDOMEN	1	2	n/a	n/a	n/a	n/a	n/a	n/a
3259.068	n/a	RECOG_RESP	1629534	n/a	LTP111	ltpFR	4	2	n/a	ABDOMEN	1	n/a	n/a	n/a	n/a	n/a	n/a	n/a
3260.016	n/a	RECOG_CONF	1630008	n/a	LTP111	ltpFR	4	2	n/a	ABDOMEN	1	2	n/a	n/a	n/a	n/a	n/a	n/a
3261.444	n/a	RECOG_LURE	1630722	n/a	LTP111	ltpFR	4	2	n/a	TUNA	1518	1	n/a	n/a	n/a	n/a	n/a	n/a
3262.272	n/a	RECOG_RESP	1631136	n/a	LTP111	ltpFR	4	2	n/a	TUNA	1518	n/a	n/a	n/a	n/a	n/a	n/a	n/a
3263.11	n/a	RECOG_CONF	1631555	n/a	LTP111	ltpFR	4	2	n/a	TUNA	1518	1	n/a	n/a	n/a	n/a	n/a	n/a
3264.45	n/a	RECOG_LURE	1632225	n/a	LTP111	ltpFR	4	2	n/a	CANVAS	234	1	n/a	n/a	n/a	n/a	n/a	n/a
3266.342	n/a	RECOG_RESP	1633171	n/a	LTP111	ltpFR	4	2	n/a	CANVAS	234	n/a	n/a	n/a	n/a	n/a	n/a	n/a
3267.27	n/a	RECOG_CONF	1633635	n/a	LTP111	ltpFR	4	2	n/a	CANVAS	234	1	n/a	n/a	n/a	n/a	n/a	n/a
3268.692	n/a	RECOG_LURE	1634346	n/a	LTP111	ltpFR	4	2	n/a	MAILBOX	857	1	n/a	n/a	n/a	n/a	n/a	n/a
3269.614	n/a	RECOG_RESP	1634807	n/a	LTP111	ltpFR	4	2	n/a	MAILBOX	857	n/a	n/a	n/a	n/a	n/a	n/a	n/a
3270.494	n/a	RECOG_CONF	1635247	n/a	LTP111	ltpFR	4	2	n/a	MAILBOX	857	1	n/a	n/a	n/a	n/a	n/a	n/a
3271.734	n/a	RECOG_TARGET	1635867	n/a	LTP111	ltpFR	4	2	-1	ROOF	1205	3	-1	n/a	n/a	n/a	n/a	n/a
3272.664	n/a	RECOG_RESP	1636332	n/a	LTP111	ltpFR	4	2	-1	ROOF	1205	n/a	-1	n/a	n/a	n/a	n/a	n/a
3273.606	n/a	RECOG_CONF	1636803	n/a	LTP111	ltpFR	4	2	-1	ROOF	1205	3	-1	n/a	n/a	n/a	n/a	n/a
3275.098	n/a	RECOG_LURE	1637549	n/a	LTP111	ltpFR	4	2	n/a	RADIATOR	1156	1	n/a	n/a	n/a	n/a	n/a	n/a
3275.946	n/a	RECOG_RESP	1637973	n/a	LTP111	ltpFR	4	2	n/a	RADIATOR	1156	n/a	n/a	n/a	n/a	n/a	n/a	n/a
3276.75	n/a	RECOG_CONF	1638375	n/a	LTP111	ltpFR	4	2	n/a	RADIATOR	1156	1	n/a	n/a	n/a	n/a	n/a	n/a
3278.09	n/a	RECOG_LURE	1639045	n/a	LTP111	ltpFR	4	2	n/a	MONGOOSE	909	1	n/a	n/a	n/a	n/a	n/a	n/a
3278.89	n/a	RECOG_RESP	1639445	n/a	LTP111	ltpFR	4	2	n/a	MONGOOSE	909	n/a	n/a	n/a	n/a	n/a	n/a	n/a
3279.632	n/a	RECOG_CONF	1639816	n/a	LTP111	ltpFR	4	2	n/a	MONGOOSE	909	1	n/a	n/a	n/a	n/a	n/a	n/a
3280.964	n/a	RECOG_LURE	1640482	n/a	LTP111	ltpFR	4	2	n/a	DWARF	510	1	n/a	n/a	n/a	n/a	n/a	n/a
3281.738	n/a	RECOG_RESP_VV	1640869	n/a	LTP111	ltpFR	4	2	n/a	DWARF	510	n/a	n/a	n/a	n/a	n/a	n/a	n/a
3282.292	n/a	RECOG_RESP	1641146	n/a	LTP111	ltpFR	4	2	n/a	DWARF	510	n/a	n/a	n/a	n/a	n/a	n/a	n/a
3283.134	n/a	RECOG_CONF	1641567	n/a	LTP111	ltpFR	4	2	n/a	DWARF	510	1	n/a	n/a	n/a	n/a	n/a	n/a
3284.552	n/a	RECOG_TARGET	1642276	n/a	LTP111	ltpFR	4	2	1	CHAUFFEUR	283	3	1	n/a	n/a	n/a	n/a	n/a
3285.948	n/a	RECOG_RESP	1642974	n/a	LTP111	ltpFR	4	2	1	CHAUFFEUR	283	n/a	1	n/a	n/a	n/a	n/a	n/a
3286.876	n/a	RECOG_CONF	1643438	n/a	LTP111	ltpFR	4	2	1	CHAUFFEUR	283	3	1	n/a	n/a	n/a	n/a	n/a
3288.178	n/a	RECOG_TARGET	1644089	n/a	LTP111	ltpFR	4	2	0	TUBE	1516	4	0	n/a	n/a	n/a	n/a	n/a
3288.886	n/a	RECOG_RESP	1644443	n/a	LTP111	ltpFR	4	2	0	TUBE	1516	n/a	0	n/a	n/a	n/a	n/a	n/a
3289.69	n/a	RECOG_CONF	1644845	n/a	LTP111	ltpFR	4	2	0	TUBE	1516	4	0	n/a	n/a	n/a	n/a	n/a
3290.902	n/a	RECOG_TARGET	1645451	n/a	LTP111	ltpFR	4	2	-1	PLAID	1080	4	-1	n/a	n/a	n/a	n/a	n/a
3291.696	n/a	RECOG_RESP	1645848	n/a	LTP111	ltpFR	4	2	-1	PLAID	1080	n/a	-1	n/a	n/a	n/a	n/a	n/a
3292.514	n/a	RECOG_CONF	1646257	n/a	LTP111	ltpFR	4	2	-1	PLAID	1080	4	-1	n/a	n/a	n/a	n/a	n/a
3293.884	n/a	RECOG_TARGET	1646942	n/a	LTP111	ltpFR	4	2	-1	GROCERIES	663	4	-1	n/a	n/a	n/a	n/a	n/a
3294.634	n/a	RECOG_RESP	1647317	n/a	LTP111	ltpFR	4	2	-1	GROCERIES	663	n/a	-1	n/a	n/a	n/a	n/a	n/a
3295.498	n/a	RECOG_CONF	1647749	n/a	LTP111	ltpFR	4	2	-1	GROCERIES	663	4	-1	n/a	n/a	n/a	n/a	n/a
3296.858	n/a	RECOG_TARGET	1648429	n/a	LTP111	ltpFR	4	2	0	ROD	1203	4	0	n/a	n/a	n/a	n/a	n/a
3297.494	n/a	RECOG_RESP	1648747	n/a	LTP111	ltpFR	4	2	0	ROD	1203	n/a	0	n/a	n/a	n/a	n/a	n/a
3298.412	n/a	RECOG_CONF	1649206	n/a	LTP111	ltpFR	4	2	0	ROD	1203	4	0	n/a	n/a	n/a	n/a	n/a
3299.648	n/a	RECOG_LURE	1649824	n/a	LTP111	ltpFR	4	2	n/a	BRIDE	173	1	n/a	n/a	n/a	n/a	n/a	n/a
3300.542	n/a	RECOG_RESP	1650271	n/a	LTP111	ltpFR	4	2	n/a	BRIDE	173	n/a	n/a	n/a	n/a	n/a	n/a	n/a
3301.294	n/a	RECOG_CONF	1650647	n/a	LTP111	ltpFR	4	2	n/a	BRIDE	173	1	n/a	n/a	n/a	n/a	n/a	n/a
3302.614	n/a	RECOG_LURE	1651307	n/a	LTP111	ltpFR	4	2	n/a	FLORIDA	582	2	n/a	n/a	n/a	n/a	n/a	n/a
3303.39	n/a	RECOG_RESP	1651695	n/a	LTP111	ltpFR	4	2	n/a	FLORIDA	582	n/a	n/a	n/a	n/a	n/a	n/a	n/a
3304.178	n/a	RECOG_CONF	1652089	n/a	LTP111	ltpFR	4	2	n/a	FLORIDA	582	2	n/a	n/a	n/a	n/a	n/a	n/a
3305.504	n/a	RECOG_TARGET	1652752	n/a	LTP111	ltpFR	4	2	1	GOOSE	649	2	0	n/a	n/a	n/a	n/a	n/a
3306.184	n/a	RECOG_RESP	1653092	n/a	LTP111	ltpFR	4	2	1	GOOSE	649	n/a	0	n/a	n/a	n/a	n/a	n/a
3306.952	n/a	RECOG_CONF	1653476	n/a	LTP111	ltpFR	4	2	1	GOOSE	649	2	0	n/a	n/a	n/a	n/a	n/a
3308.298	n/a	RECOG_TARGET	1654149	n/a	LTP111	ltpFR	4	2	-1	ROBIN	1199	3	-1	n/a	n/a	n/a	n/a	n/a
3309.142	n/a	RECOG_RESP	1654571	n/a	LTP111	ltpFR	4	2	-1	ROBIN	1199	n/a	-1	n/a	n/a	n/a	n/a	n/a
3310.006	n/a	RECOG_CONF	1655003	n/a	LTP111	ltpFR	4	2	-1	ROBIN	1199	3	-1	n/a	n/a	n/a	n/a	n/a
3311.378	n/a	RECOG_LURE	1655689	n/a	LTP111	ltpFR	4	2	n/a	FORK	594	2	n/a	n/a	n/a	n/a	n/a	n/a
3312.94	n/a	RECOG_RESP	1656470	n/a	LTP111	ltpFR	4	2	n/a	FORK	594	n/a	n/a	n/a	n/a	n/a	n/a	n/a
3313.748	n/a	RECOG_CONF	1656874	n/a	LTP111	ltpFR	4	2	n/a	FORK	594	2	n/a	n/a	n/a	n/a	n/a	n/a
3315.194	n/a	RECOG_TARGET	1657597	n/a	LTP111	ltpFR	4	2	0	STAFF	1365	1	0	n/a	n/a	n/a	n/a	n/a
3316.192	n/a	RECOG_RESP	1658096	n/a	LTP111	ltpFR	4	2	0	STAFF	1365	n/a	0	n/a	n/a	n/a	n/a	n/a
3316.89	n/a	RECOG_CONF	1658445	n/a	LTP111	ltpFR	4	2	0	STAFF	1365	1	0	n/a	n/a	n/a	n/a	n/a
3318.286	n/a	RECOG_TARGET	1659143	n/a	LTP111	ltpFR	4	2	-1	LAUNDRY	803	2	-1	n/a	n/a	n/a	n/a	n/a
3319.08	n/a	RECOG_RESP	1659540	n/a	LTP111	ltpFR	4	2	-1	LAUNDRY	803	n/a	-1	n/a	n/a	n/a	n/a	n/a
3319.794	n/a	RECOG_CONF	1659897	n/a	LTP111	ltpFR	4	2	-1	LAUNDRY	803	2	-1	n/a	n/a	n/a	n/a	n/a
3324.144	n/a	REC_START	1662072	n/a	LTP111	ltpFR	4	3	n/a	n/a	n/a	n/a	n/a	n/a	n/a	n/a	n/a	n/a
3324.174	n/a	RECOG_TARGET	1662087	n/a	LTP111	ltpFR	4	3	-1	NECK	939	3	-1	n/a	n/a	n/a	n/a	n/a
3325.292	n/a	RECOG_RESP	1662646	n/a	LTP111	ltpFR	4	3	-1	NECK	939	n/a	-1	n/a	n/a	n/a	n/a	n/a
3326.414	n/a	RECOG_CONF	1663207	n/a	LTP111	ltpFR	4	3	-1	NECK	939	3	-1	n/a	n/a	n/a	n/a	n/a
3327.832	n/a	RECOG_TARGET	1663916	n/a	LTP111	ltpFR	4	3	-1	BULB	192	1	-1	n/a	n/a	n/a	n/a	n/a
3328.844	n/a	RECOG_RESP	1664422	n/a	LTP111	ltpFR	4	3	-1	BULB	192	n/a	-1	n/a	n/a	n/a	n/a	n/a
3330.846	n/a	RECOG_CONF	1665423	n/a	LTP111	ltpFR	4	3	-1	BULB	192	1	-1	n/a	n/a	n/a	n/a	n/a
3332.248	n/a	RECOG_LURE	1666124	n/a	LTP111	ltpFR	4	3	n/a	RASPBERRY	1168	1	n/a	n/a	n/a	n/a	n/a	n/a
3334.118	n/a	RECOG_RESP	1667059	n/a	LTP111	ltpFR	4	3	n/a	RASPBERRY	1168	n/a	n/a	n/a	n/a	n/a	n/a	n/a
3334.886	n/a	RECOG_CONF	1667443	n/a	LTP111	ltpFR	4	3	n/a	RASPBERRY	1168	1	n/a	n/a	n/a	n/a	n/a	n/a
3336.28	n/a	RECOG_LURE	1668140	n/a	LTP111	ltpFR	4	3	n/a	DYNAMITE	511	1	n/a	n/a	n/a	n/a	n/a	n/a
3338.886	n/a	RECOG_RESP	1669443	n/a	LTP111	ltpFR	4	3	n/a	DYNAMITE	511	n/a	n/a	n/a	n/a	n/a	n/a	n/a
3339.714	n/a	RECOG_CONF	1669857	n/a	LTP111	ltpFR	4	3	n/a	DYNAMITE	511	1	n/a	n/a	n/a	n/a	n/a	n/a
3341.07	n/a	RECOG_LURE	1670535	n/a	LTP111	ltpFR	4	3	n/a	CHEESE	289	1	n/a	n/a	n/a	n/a	n/a	n/a
3342.28	n/a	RECOG_RESP	1671140	n/a	LTP111	ltpFR	4	3	n/a	CHEESE	289	n/a	n/a	n/a	n/a	n/a	n/a	n/a
3343.158	n/a	RECOG_CONF	1671579	n/a	LTP111	ltpFR	4	3	n/a	CHEESE	289	1	n/a	n/a	n/a	n/a	n/a	n/a
3344.576	n/a	RECOG_LURE	1672288	n/a	LTP111	ltpFR	4	3	n/a	JURY	766	1	n/a	n/a	n/a	n/a	n/a	n/a
3345.672	n/a	RECOG_RESP	1672836	n/a	LTP111	ltpFR	4	3	n/a	JURY	766	n/a	n/a	n/a	n/a	n/a	n/a	n/a
3346.46	n/a	RECOG_CONF	1673230	n/a	LTP111	ltpFR	4	3	n/a	JURY	766	1	n/a	n/a	n/a	n/a	n/a	n/a
3347.936	n/a	RECOG_LURE	1673968	n/a	LTP111	ltpFR	4	3	n/a	QUAIL	1147	1	n/a	n/a	n/a	n/a	n/a	n/a
3349.812	n/a	RECOG_RESP	1674906	n/a	LTP111	ltpFR	4	3	n/a	QUAIL	1147	n/a	n/a	n/a	n/a	n/a	n/a	n/a
3350.98	n/a	RECOG_CONF	1675490	n/a	LTP111	ltpFR	4	3	n/a	QUAIL	1147	1	n/a	n/a	n/a	n/a	n/a	n/a
3352.49	n/a	RECOG_LURE	1676245	n/a	LTP111	ltpFR	4	3	n/a	PATH	1023	1	n/a	n/a	n/a	n/a	n/a	n/a
3353.364	n/a	RECOG_RESP	1676682	n/a	LTP111	ltpFR	4	3	n/a	PATH	1023	n/a	n/a	n/a	n/a	n/a	n/a	n/a
3354.194	n/a	RECOG_CONF	1677097	n/a	LTP111	ltpFR	4	3	n/a	PATH	1023	1	n/a	n/a	n/a	n/a	n/a	n/a
3355.524	n/a	RECOG_TARGET	1677762	n/a	LTP111	ltpFR	4	3	0	HUT	729	3	0	n/a	n/a	n/a	n/a	n/a
3356.662	n/a	RECOG_RESP	1678331	n/a	LTP111	ltpFR	4	3	0	HUT	729	n/a	0	n/a	n/a	n/a	n/a	n/a
3357.616	n/a	RECOG_CONF	1678808	n/a	LTP111	ltpFR	4	3	0	HUT	729	3	0	n/a	n/a	n/a	n/a	n/a
3359.056	n/a	RECOG_LURE	1679528	n/a	LTP111	ltpFR	4	3	n/a	OVAL	990	1	n/a	n/a	n/a	n/a	n/a	n/a
3359.846	n/a	RECOG_RESP	1679923	n/a	LTP111	ltpFR	4	3	n/a	OVAL	990	n/a	n/a	n/a	n/a	n/a	n/a	n/a
3360.548	n/a	RECOG_CONF	1680274	n/a	LTP111	ltpFR	4	3	n/a	OVAL	990	1	n/a	n/a	n/a	n/a	n/a	n/a
3361.88	n/a	RECOG_LURE	1680940	n/a	LTP111	ltpFR	4	3	n/a	SHELF	1280	1	n/a	n/a	n/a	n/a	n/a	n/a
3363.452	n/a	RECOG_RESP_VV	1681726	n/a	LTP111	ltpFR	4	3	n/a	SHELF	1280	n/a	n/a	n/a	n/a	n/a	n/a	n/a
3364.65	n/a	RECOG_RESP	1682325	n/a	LTP111	ltpFR	4	3	n/a	SHELF	1280	n/a	n/a	n/a	n/a	n/a	n/a	n/a
3365.986	n/a	RECOG_CONF	1682993	n/a	LTP111	ltpFR	4	3	n/a	SHELF	1280	1	n/a	n/a	n/a	n/a	n/a	n/a
3367.536	n/a	RECOG_LURE	1683768	n/a	LTP111	ltpFR	4	3	n/a	CUCUMBER	421	1	n/a	n/a	n/a	n/a	n/a	n/a
3368.452	n/a	RECOG_RESP	1684226	n/a	LTP111	ltpFR	4	3	n/a	CUCUMBER	421	n/a	n/a	n/a	n/a	n/a	n/a	n/a
3369.36	n/a	RECOG_CONF	1684680	n/a	LTP111	ltpFR	4	3	n/a	CUCUMBER	421	1	n/a	n/a	n/a	n/a	n/a	n/a
3370.82	n/a	RECOG_LURE	1685410	n/a	LTP111	ltpFR	4	3	n/a	SENATOR	1268	1	n/a	n/a	n/a	n/a	n/a	n/a
3374.074	n/a	RECOG_RESP	1687037	n/a	LTP111	ltpFR	4	3	n/a	SENATOR	1268	n/a	n/a	n/a	n/a	n/a	n/a	n/a
3375.316	n/a	RECOG_CONF	1687658	n/a	LTP111	ltpFR	4	3	n/a	SENATOR	1268	1	n/a	n/a	n/a	n/a	n/a	n/a
3376.76	n/a	RECOG_LURE	1688380	n/a	LTP111	ltpFR	4	3	n/a	PANTS	1010	3	n/a	n/a	n/a	n/a	n/a	n/a
3377.646	n/a	RECOG_RESP	1688823	n/a	LTP111	ltpFR	4	3	n/a	PANTS	1010	n/a	n/a	n/a	n/a	n/a	n/a	n/a
3378.518	n/a	RECOG_CONF	1689259	n/a	LTP111	ltpFR	4	3	n/a	PANTS	1010	3	n/a	n/a	n/a	n/a	n/a	n/a
3379.842	n/a	RECOG_TARGET	1689921	n/a	LTP111	ltpFR	4	3	0	RAG	1160	1	0	n/a	n/a	n/a	n/a	n/a
3382.798	n/a	RECOG_RESP	1691399	n/a	LTP111	ltpFR	4	3	0	RAG	1160	n/a	0	n/a	n/a	n/a	n/a	n/a
3383.786	n/a	RECOG_CONF	1691893	n/a	LTP111	ltpFR	4	3	0	RAG	1160	1	0	n/a	n/a	n/a	n/a	n/a
3385.156	n/a	RECOG_LURE	1692578	n/a	LTP111	ltpFR	4	3	n/a	TERMINAL	1450	1	n/a	n/a	n/a	n/a	n/a	n/a
3391.54	n/a	RECOG_RESP	1695770	n/a	LTP111	ltpFR	4	3	n/a	TERMINAL	1450	n/a	n/a	n/a	n/a	n/a	n/a	n/a
3392.348	n/a	RECOG_CONF	1696174	n/a	LTP111	ltpFR	4	3	n/a	TERMINAL	1450	1	n/a	n/a	n/a	n/a	n/a	n/a
3393.78	n/a	RECOG_LURE	1696890	n/a	LTP111	ltpFR	4	3	n/a	HERB	704	2	n/a	n/a	n/a	n/a	n/a	n/a
3395.276	n/a	RECOG_RESP	1697638	n/a	LTP111	ltpFR	4	3	n/a	HERB	704	n/a	n/a	n/a	n/a	n/a	n/a	n/a
3396.32	n/a	RECOG_CONF	1698160	n/a	LTP111	ltpFR	4	3	n/a	HERB	704	2	n/a	n/a	n/a	n/a	n/a	n/a
3397.794	n/a	RECOG_TARGET	1698897	n/a	LTP111	ltpFR	4	3	0	ELM	527	3	0	n/a	n/a	n/a	n/a	n/a
3398.524	n/a	RECOG_RESP	1699262	n/a	LTP111	ltpFR	4	3	0	ELM	527	n/a	0	n/a	n/a	n/a	n/a	n/a
3399.292	n/a	RECOG_CONF	1699646	n/a	LTP111	ltpFR	4	3	0	ELM	527	3	0	n/a	n/a	n/a	n/a	n/a
3400.786	n/a	RECOG_LURE	1700393	n/a	LTP111	ltpFR	4	3	n/a	HOSTAGE	722	1	n/a	n/a	n/a	n/a	n/a	n/a
3407.754	n/a	RECOG_RESP	1703877	n/a	LTP111	ltpFR	4	3	n/a	HOSTAGE	722	n/a	n/a	n/a	n/a	n/a	n/a	n/a
3408.952	n/a	RECOG_CONF	1704476	n/a	LTP111	ltpFR	4	3	n/a	HOSTAGE	722	1	n/a	n/a	n/a	n/a	n/a	n/a
3410.54	n/a	RECOG_TARGET	1705270	n/a	LTP111	ltpFR	4	3	1	MOAT	903	3	0	n/a	n/a	n/a	n/a	n/a
3411.766	n/a	RECOG_RESP	1705883	n/a	LTP111	ltpFR	4	3	1	MOAT	903	n/a	0	n/a	n/a	n/a	n/a	n/a
3412.594	n/a	RECOG_CONF	1706297	n/a	LTP111	ltpFR	4	3	1	MOAT	903	3	0	n/a	n/a	n/a	n/a	n/a
3416.872	n/a	REC_START	1708436	n/a	LTP111	ltpFR	4	4	n/a	n/a	n/a	n/a	n/a	n/a	n/a	n/a	n/a	n/a
3416.906	n/a	RECOG_LURE	1708453	n/a	LTP111	ltpFR	4	4	n/a	CROSS	413	1	n/a	n/a	n/a	n/a	n/a	n/a
3418.378	n/a	RECOG_RESP	1709189	n/a	LTP111	ltpFR	4	4	n/a	CROSS	413	n/a	n/a	n/a	n/a	n/a	n/a	n/a
3419.162	n/a	RECOG_CONF	1709581	n/a	LTP111	ltpFR	4	4	n/a	CROSS	413	1	n/a	n/a	n/a	n/a	n/a	n/a
3420.586	n/a	RECOG_LURE	1710293	n/a	LTP111	ltpFR	4	4	n/a	STRAWBERRY	1391	1	n/a	n/a	n/a	n/a	n/a	n/a
3421.496	n/a	RECOG_RESP	1710748	n/a	LTP111	ltpFR	4	4	n/a	STRAWBERRY	1391	n/a	n/a	n/a	n/a	n/a	n/a	n/a
3422.256	n/a	RECOG_CONF	1711128	n/a	LTP111	ltpFR	4	4	n/a	STRAWBERRY	1391	1	n/a	n/a	n/a	n/a	n/a	n/a
3423.728	n/a	RECOG_TARGET	1711864	n/a	LTP111	ltpFR	4	4	0	WEED	1599	2	n/a	n/a	n/a	n/a	n/a	n/a
3425.16	n/a	RECOG_RESP	1712580	n/a	LTP111	ltpFR	4	4	0	WEED	1599	n/a	n/a	n/a	n/a	n/a	n/a	n/a
3426.726	n/a	RECOG_CONF	1713363	n/a	LTP111	ltpFR	4	4	0	WEED	1599	2	n/a	n/a	n/a	n/a	n/a	n/a
3428.492	n/a	RECOG_LURE	1714246	n/a	LTP111	ltpFR	4	4	n/a	FIG	563	1	n/a	n/a	n/a	n/a	n/a	n/a
3429.384	n/a	RECOG_RESP	1714692	n/a	LTP111	ltpFR	4	4	n/a	FIG	563	n/a	n/a	n/a	n/a	n/a	n/a	n/a
3430.298	n/a	RECOG_CONF	1715149	n/a	LTP111	ltpFR	4	4	n/a	FIG	563	1	n/a	n/a	n/a	n/a	n/a	n/a
3431.868	n/a	RECOG_LURE	1715934	n/a	LTP111	ltpFR	4	4	n/a	CONTRACT	368	1	n/a	n/a	n/a	n/a	n/a	n/a
3432.762	n/a	RECOG_RESP	1716381	n/a	LTP111	ltpFR	4	4	n/a	CONTRACT	368	n/a	n/a	n/a	n/a	n/a	n/a	n/a
3433.52	n/a	RECOG_CONF	1716760	n/a	LTP111	ltpFR	4	4	n/a	CONTRACT	368	1	n/a	n/a	n/a	n/a	n/a	n/a
3435.008	n/a	RECOG_LURE	1717504	n/a	LTP111	ltpFR	4	4	n/a	SHRINE	1298	1	n/a	n/a	n/a	n/a	n/a	n/a
3436.22	n/a	RECOG_RESP	1718110	n/a	LTP111	ltpFR	4	4	n/a	SHRINE	1298	n/a	n/a	n/a	n/a	n/a	n/a	n/a
3437.022	n/a	RECOG_CONF	1718511	n/a	LTP111	ltpFR	4	4	n/a	SHRINE	1298	1	n/a	n/a	n/a	n/a	n/a	n/a
3438.49	n/a	RECOG_TARGET	1719245	n/a	LTP111	ltpFR	4	4	0	DOORBELL	487	1	0	n/a	n/a	n/a	n/a	n/a
3439.542	n/a	RECOG_RESP	1719771	n/a	LTP111	ltpFR	4	4	0	DOORBELL	487	n/a	0	n/a	n/a	n/a	n/a	n/a
3440.326	n/a	RECOG_CONF	1720163	n/a	LTP111	ltpFR	4	4	0	DOORBELL	487	1	0	n/a	n/a	n/a	n/a	n/a
3441.748	n/a	RECOG_LURE	1720874	n/a	LTP111	ltpFR	4	4	n/a	BARN	89	1	n/a	n/a	n/a	n/a	n/a	n/a
3443.738	n/a	RECOG_RESP	1721869	n/a	LTP111	ltpFR	4	4	n/a	BARN	89	n/a	n/a	n/a	n/a	n/a	n/a	n/a
3444.726	n/a	RECOG_CONF	1722363	n/a	LTP111	ltpFR	4	4	n/a	BARN	89	1	n/a	n/a	n/a	n/a	n/a	n/a
3446.238	n/a	RECOG_TARGET	1723119	n/a	LTP111	ltpFR	4	4	1	THESAURUS	1454	3	0	n/a	n/a	n/a	n/a	n/a
3447.066	n/a	RECOG_RESP	1723533	n/a	LTP111	ltpFR	4	4	1	THESAURUS	1454	n/a	0	n/a	n/a	n/a	n/a	n/a
3447.918	n/a	RECOG_CONF	1723959	n/a	LTP111	ltpFR	4	4	1	THESAURUS	1454	3	0	n/a	n/a	n/a	n/a	n/a
3449.296	n/a	RECOG_LURE	1724648	n/a	LTP111	ltpFR	4	4	n/a	OUTFIT	988	1	n/a	n/a	n/a	n/a	n/a	n/a
3450.014	n/a	RECOG_RESP	1725007	n/a	LTP111	ltpFR	4	4	n/a	OUTFIT	988	n/a	n/a	n/a	n/a	n/a	n/a	n/a
3450.762	n/a	RECOG_CONF	1725381	n/a	LTP111	ltpFR	4	4	n/a	OUTFIT	988	1	n/a	n/a	n/a	n/a	n/a	n/a
3452.194	n/a	RECOG_TARGET	1726097	n/a	LTP111	ltpFR	4	4	1	HOOP	716	4	0	n/a	n/a	n/a	n/a	n/a
3452.998	n/a	RECOG_RESP	1726499	n/a	LTP111	ltpFR	4	4	1	HOOP	716	n/a	0	n/a	n/a	n/a	n/a	n/a
3453.796	n/a	RECOG_CONF	1726898	n/a	LTP111	ltpFR	4	4	1	HOOP	716	4	0	n/a	n/a	n/a	n/a	n/a
3455.086	n/a	RECOG_TARGET	1727543	n/a	LTP111	ltpFR	4	4	1	SEA	1259	3	0	n/a	n/a	n/a	n/a	n/a
3455.846	n/a	RECOG_RESP	1727923	n/a	LTP111	ltpFR	4	4	1	SEA	1259	n/a	0	n/a	n/a	n/a	n/a	n/a
3456.718	n/a	RECOG_CONF	1728359	n/a	LTP111	ltpFR	4	4	1	SEA	1259	3	0	n/a	n/a	n/a	n/a	n/a
3458.06	n/a	RECOG_LURE	1729030	n/a	LTP111	ltpFR	4	4	n/a	HOSE	720	2	n/a	n/a	n/a	n/a	n/a	n/a
3458.914	n/a	RECOG_RESP	1729457	n/a	LTP111	ltpFR	4	4	n/a	HOSE	720	n/a	n/a	n/a	n/a	n/a	n/a	n/a
3459.682	n/a	RECOG_CONF	1729841	n/a	LTP111	ltpFR	4	4	n/a	HOSE	720	2	n/a	n/a	n/a	n/a	n/a	n/a
3461.108	n/a	RECOG_TARGET	1730554	n/a	LTP111	ltpFR	4	4	0	RELATIVE	1182	1	0	n/a	n/a	n/a	n/a	n/a
3462.002	n/a	RECOG_RESP	1731001	n/a	LTP111	ltpFR	4	4	0	RELATIVE	1182	n/a	0	n/a	n/a	n/a	n/a	n/a
3462.676	n/a	RECOG_CONF	1731338	n/a	LTP111	ltpFR	4	4	0	RELATIVE	1182	1	0	n/a	n/a	n/a	n/a	n/a
3464.1	n/a	RECOG_TARGET	1732050	n/a	LTP111	ltpFR	4	4	1	SWAN	1417	2	0	n/a	n/a	n/a	n/a	n/a
3464.816	n/a	RECOG_RESP	1732408	n/a	LTP111	ltpFR	4	4	1	SWAN	1417	n/a	0	n/a	n/a	n/a	n/a	n/a
3465.64	n/a	RECOG_CONF	1732820	n/a	LTP111	ltpFR	4	4	1	SWAN	1417	2	0	n/a	n/a	n/a	n/a	n/a
3467.016	n/a	RECOG_LURE	1733508	n/a	LTP111	ltpFR	4	4	n/a	HEEL	700	3	n/a	n/a	n/a	n/a	n/a	n/a
3467.87	n/a	RECOG_RESP	1733935	n/a	LTP111	ltpFR	4	4	n/a	HEEL	700	n/a	n/a	n/a	n/a	n/a	n/a	n/a
3468.712	n/a	RECOG_CONF	1734356	n/a	LTP111	ltpFR	4	4	n/a	HEEL	700	3	n/a	n/a	n/a	n/a	n/a	n/a
3470.048	n/a	RECOG_LURE	1735024	n/a	LTP111	ltpFR	4	4	n/a	PORK	1108	1	n/a	n/a	n/a	n/a	n/a	n/a
3470.768	n/a	RECOG_RESP	1735384	n/a	LTP111	ltpFR	4	4	n/a	PORK	1108	n/a	n/a	n/a	n/a	n/a	n/a	n/a
3471.546	n/a	RECOG_CONF	1735773	n/a	LTP111	ltpFR	4	4	n/a	PORK	1108	1	n/a	n/a	n/a	n/a	n/a	n/a
3472.872	n/a	RECOG_LURE	1736436	n/a	LTP111	ltpFR	4	4	n/a	MACHINE	852	1	n/a	n/a	n/a	n/a	n/a	n/a
3473.742	n/a	RECOG_RESP	1736871	n/a	LTP111	ltpFR	4	4	n/a	MACHINE	852	n/a	n/a	n/a	n/a	n/a	n/a	n/a
3474.56	n/a	RECOG_CONF	1737280	n/a	LTP111	ltpFR	4	4	n/a	MACHINE	852	1	n/a	n/a	n/a	n/a	n/a	n/a
3475.904	n/a	RECOG_TARGET	1737952	n/a	LTP111	ltpFR	4	4	0	COLESLAW	344	3	0	n/a	n/a	n/a	n/a	n/a
3477.278	n/a	RECOG_RESP	1738639	n/a	LTP111	ltpFR	4	4	0	COLESLAW	344	n/a	0	n/a	n/a	n/a	n/a	n/a
3478.152	n/a	RECOG_CONF	1739076	n/a	LTP111	ltpFR	4	4	0	COLESLAW	344	3	0	n/a	n/a	n/a	n/a	n/a
3479.594	n/a	RECOG_TARGET	1739797	n/a	LTP111	ltpFR	4	4	0	RADISH	1158	2	0	n/a	n/a	n/a	n/a	n/a
3480.64	n/a	RECOG_RESP	1740320	n/a	LTP111	ltpFR	4	4	0	RADISH	1158	n/a	0	n/a	n/a	n/a	n/a	n/a
3481.414	n/a	RECOG_CONF	1740707	n/a	LTP111	ltpFR	4	4	0	RADISH	1158	2	0	n/a	n/a	n/a	n/a	n/a
3486.712	n/a	REC_START	1743356	n/a	LTP111	ltpFR	4	5	n/a	n/a	n/a	n/a	n/a	n/a	n/a	n/a	n/a	n/a
3486.752	n/a	RECOG_TARGET	1743376	n/a	LTP111	ltpFR	4	5	-1	TREASURE	1500	3	-1	n/a	n/a	n/a	n/a	n/a
3488.318	n/a	RECOG_RESP	1744159	n/a	LTP111	ltpFR	4	5	-1	TREASURE	1500	n/a	-1	n/a	n/a	n/a	n/a	n/a
3489.32	n/a	RECOG_CONF	1744660	n/a	LTP111	ltpFR	4	5	-1	TREASURE	1500	3	-1	n/a	n/a	n/a	n/a	n/a
3490.75	n/a	RECOG_TARGET	1745375	n/a	LTP111	ltpFR	4	5	0	DONOR	485	2	0	n/a	n/a	n/a	n/a	n/a
3491.844	n/a	RECOG_RESP	1745922	n/a	LTP111	ltpFR	4	5	0	DONOR	485	n/a	0	n/a	n/a	n/a	n/a	n/a
3492.582	n/a	RECOG_CONF	1746291	n/a	LTP111	ltpFR	4	5	0	DONOR	485	2	0	n/a	n/a	n/a	n/a	n/a
3493.898	n/a	RECOG_LURE	1746949	n/a	LTP111	ltpFR	4	5	n/a	LIST	830	1	n/a	n/a	n/a	n/a	n/a	n/a
3494.778	n/a	RECOG_RESP	1747389	n/a	LTP111	ltpFR	4	5	n/a	LIST	830	n/a	n/a	n/a	n/a	n/a	n/a	n/a
3495.476	n/a	RECOG_CONF	1747738	n/a	LTP111	ltpFR	4	5	n/a	LIST	830	1	n/a	n/a	n/a	n/a	n/a	n/a
3496.898	n/a	RECOG_LURE	1748449	n/a	LTP111	ltpFR	4	5	n/a	SUMMIT	1405	1	n/a	n/a	n/a	n/a	n/a	n/a
3498.056	n/a	RECOG_RESP	1749028	n/a	LTP111	ltpFR	4	5	n/a	SUMMIT	1405	n/a	n/a	n/a	n/a	n/a	n/a	n/a
3498.848	n/a	RECOG_CONF	1749424	n/a	LTP111	ltpFR	4	5	n/a	SUMMIT	1405	1	n/a	n/a	n/a	n/a	n/a	n/a
3500.246	n/a	RECOG_LURE	1750123	n/a	LTP111	ltpFR	4	5	n/a	STEP	1377	1	n/a	n/a	n/a	n/a	n/a	n/a
3501.284	n/a	RECOG_RESP	1750642	n/a	LTP111	ltpFR	4	5	n/a	STEP	1377	n/a	n/a	n/a	n/a	n/a	n/a	n/a
3502.212	n/a	RECOG_CONF	1751106	n/a	LTP111	ltpFR	4	5	n/a	STEP	1377	1	n/a	n/a	n/a	n/a	n/a	n/a
3503.554	n/a	RECOG_LURE	1751777	n/a	LTP111	ltpFR	4	5	n/a	SKILLET	1317	1	n/a	n/a	n/a	n/a	n/a	n/a
3504.328	n/a	RECOG_RESP	1752164	n/a	LTP111	ltpFR	4	5	n/a	SKILLET	1317	n/a	n/a	n/a	n/a	n/a	n/a	n/a
3505.146	n/a	RECOG_CONF	1752573	n/a	LTP111	ltpFR	4	5	n/a	SKILLET	1317	1	n/a	n/a	n/a	n/a	n/a	n/a
3506.494	n/a	RECOG_TARGET	1753247	n/a	LTP111	ltpFR	4	5	0	KIWI	781	3	0	n/a	n/a	n/a	n/a	n/a
3507.226	n/a	RECOG_RESP	1753613	n/a	LTP111	ltpFR	4	5	0	KIWI	781	n/a	0	n/a	n/a	n/a	n/a	n/a
3508.148	n/a	RECOG_CONF	1754074	n/a	LTP111	ltpFR	4	5	0	KIWI	781	3	0	n/a	n/a	n/a	n/a	n/a
3509.468	n/a	RECOG_TARGET	1754734	n/a	LTP111	ltpFR	4	5	-1	DRIVEWAY	500	4	-1	n/a	n/a	n/a	n/a	n/a
3510.194	n/a	RECOG_RESP	1755097	n/a	LTP111	ltpFR	4	5	-1	DRIVEWAY	500	n/a	-1	n/a	n/a	n/a	n/a	n/a
3511.162	n/a	RECOG_CONF	1755581	n/a	LTP111	ltpFR	4	5	-1	DRIVEWAY	500	4	-1	n/a	n/a	n/a	n/a	n/a
3512.566	n/a	RECOG_LURE	1756283	n/a	LTP111	ltpFR	4	5	n/a	GOAT	644	1	n/a	n/a	n/a	n/a	n/a	n/a
3513.362	n/a	RECOG_RESP	1756681	n/a	LTP111	ltpFR	4	5	n/a	GOAT	644	n/a	n/a	n/a	n/a	n/a	n/a	n/a
3514.184	n/a	RECOG_CONF	1757092	n/a	LTP111	ltpFR	4	5	n/a	GOAT	644	1	n/a	n/a	n/a	n/a	n/a	n/a
3515.49	n/a	RECOG_TARGET	1757745	n/a	LTP111	ltpFR	4	5	-1	WALL	1582	3	-1	n/a	n/a	n/a	n/a	n/a
3516.206	n/a	RECOG_RESP	1758103	n/a	LTP111	ltpFR	4	5	-1	WALL	1582	n/a	-1	n/a	n/a	n/a	n/a	n/a
3517.028	n/a	RECOG_CONF	1758514	n/a	LTP111	ltpFR	4	5	-1	WALL	1582	3	-1	n/a	n/a	n/a	n/a	n/a
3518.424	n/a	RECOG_TARGET	1759212	n/a	LTP111	ltpFR	4	5	-1	LUGGAGE	847	1	-1	n/a	n/a	n/a	n/a	n/a
3519.114	n/a	RECOG_RESP	1759557	n/a	LTP111	ltpFR	4	5	-1	LUGGAGE	847	n/a	-1	n/a	n/a	n/a	n/a	n/a
3519.862	n/a	RECOG_CONF	1759931	n/a	LTP111	ltpFR	4	5	-1	LUGGAGE	847	1	-1	n/a	n/a	n/a	n/a	n/a
3521.2	n/a	RECOG_LURE	1760600	n/a	LTP111	ltpFR	4	5	n/a	DORM	488	1	n/a	n/a	n/a	n/a	n/a	n/a
3522.362	n/a	RECOG_RESP	1761181	n/a	LTP111	ltpFR	4	5	n/a	DORM	488	n/a	n/a	n/a	n/a	n/a	n/a	n/a
3523.236	n/a	RECOG_CONF	1761618	n/a	LTP111	ltpFR	4	5	n/a	DORM	488	1	n/a	n/a	n/a	n/a	n/a	n/a
3524.488	n/a	RECOG_TARGET	1762244	n/a	LTP111	ltpFR	4	5	1	MARKET	871	3	0	n/a	n/a	n/a	n/a	n/a
3525.25	n/a	RECOG_RESP	1762625	n/a	LTP111	ltpFR	4	5	1	MARKET	871	n/a	0	n/a	n/a	n/a	n/a	n/a
3526.088	n/a	RECOG_CONF	1763044	n/a	LTP111	ltpFR	4	5	1	MARKET	871	3	0	n/a	n/a	n/a	n/a	n/a
3527.354	n/a	RECOG_LURE	1763677	n/a	LTP111	ltpFR	4	5	n/a	FAMILY	550	2	n/a	n/a	n/a	n/a	n/a	n/a
3528.08	n/a	RECOG_RESP	1764040	n/a	LTP111	ltpFR	4	5	n/a	FAMILY	550	n/a	n/a	n/a	n/a	n/a	n/a	n/a
3528.812	n/a	RECOG_CONF	1764406	n/a	LTP111	ltpFR	4	5	n/a	FAMILY	550	2	n/a	n/a	n/a	n/a	n/a	n/a
3530.196	n/a	RECOG_LURE	1765098	n/a	LTP111	ltpFR	4	5	n/a	CHIME	300	1	n/a	n/a	n/a	n/a	n/a	n/a
3531.532	n/a	RECOG_RESP	1765766	n/a	LTP111	ltpFR	4	5	n/a	CHIME	300	n/a	n/a	n/a	n/a	n/a	n/a	n/a
3532.204	n/a	RECOG_CONF	1766102	n/a	LTP111	ltpFR	4	5	n/a	CHIME	300	1	n/a	n/a	n/a	n/a	n/a	n/a
3533.578	n/a	RECOG_LURE	1766789	n/a	LTP111	ltpFR	4	5	n/a	ANIMAL	23	1	n/a	n/a	n/a	n/a	n/a	n/a
3539.194	n/a	RECOG_RESP	1769597	n/a	LTP111	ltpFR	4	5	n/a	ANIMAL	23	n/a	n/a	n/a	n/a	n/a	n/a	n/a
3539.948	n/a	RECOG_CONF	1769974	n/a	LTP111	ltpFR	4	5	n/a	ANIMAL	23	1	n/a	n/a	n/a	n/a	n/a	n/a
3541.35	n/a	RECOG_TARGET	1770675	n/a	LTP111	ltpFR	4	5	0	POCKET	1093	4	0	n/a	n/a	n/a	n/a	n/a
3544.828	n/a	RECOG_RESP	1772414	n/a	LTP111	ltpFR	4	5	0	POCKET	1093	n/a	0	n/a	n/a	n/a	n/a	n/a
3545.686	n/a	RECOG_CONF	1772843	n/a	LTP111	ltpFR	4	5	0	POCKET	1093	4	0	n/a	n/a	n/a	n/a	n/a
3547.25	n/a	RECOG_TARGET	1773625	n/a	LTP111	ltpFR	4	5	0	WRENCH	1625	3	0	n/a	n/a	n/a	n/a	n/a
3548.05	n/a	RECOG_RESP	1774025	n/a	LTP111	ltpFR	4	5	0	WRENCH	1625	n/a	0	n/a	n/a	n/a	n/a	n/a
3548.858	n/a	RECOG_CONF	1774429	n/a	LTP111	ltpFR	4	5	0	WRENCH	1625	3	0	n/a	n/a	n/a	n/a	n/a
3550.14	n/a	RECOG_TARGET	1775070	n/a	LTP111	ltpFR	4	5	0	BATH	98	2	0	n/a	n/a	n/a	n/a	n/a
3550.984	n/a	RECOG_RESP	1775492	n/a	LTP111	ltpFR	4	5	0	BATH	98	n/a	0	n/a	n/a	n/a	n/a	n/a
3551.732	n/a	RECOG_CONF	1775866	n/a	LTP111	ltpFR	4	5	0	BATH	98	2	0	n/a	n/a	n/a	n/a	n/a
3553.072	n/a	RECOG_LURE	1776536	n/a	LTP111	ltpFR	4	5	n/a	POTTERY	1116	1	n/a	n/a	n/a	n/a	n/a	n/a
3553.826	n/a	RECOG_RESP	1776913	n/a	LTP111	ltpFR	4	5	n/a	POTTERY	1116	n/a	n/a	n/a	n/a	n/a	n/a	n/a
3554.606	n/a	RECOG_CONF	1777303	n/a	LTP111	ltpFR	4	5	n/a	POTTERY	1116	1	n/a	n/a	n/a	n/a	n/a	n/a
3558.97	n/a	REC_START	1779485	n/a	LTP111	ltpFR	4	6	n/a	n/a	n/a	n/a	n/a	n/a	n/a	n/a	n/a	n/a
3559.004	n/a	RECOG_LURE	1779502	n/a	LTP111	ltpFR	4	6	n/a	PIG	1064	1	n/a	n/a	n/a	n/a	n/a	n/a
3560.074	n/a	RECOG_RESP	1780037	n/a	LTP111	ltpFR	4	6	n/a	PIG	1064	n/a	n/a	n/a	n/a	n/a	n/a	n/a
3560.722	n/a	RECOG_CONF	1780361	n/a	LTP111	ltpFR	4	6	n/a	PIG	1064	1	n/a	n/a	n/a	n/a	n/a	n/a
3561.97	n/a	RECOG_TARGET	1780985	n/a	LTP111	ltpFR	4	6	0	POPE	1105	3	0	n/a	n/a	n/a	n/a	n/a
3562.762	n/a	RECOG_RESP	1781381	n/a	LTP111	ltpFR	4	6	0	POPE	1105	n/a	0	n/a	n/a	n/a	n/a	n/a
3563.486	n/a	RECOG_CONF	1781743	n/a	LTP111	ltpFR	4	6	0	POPE	1105	3	0	n/a	n/a	n/a	n/a	n/a
3564.794	n/a	RECOG_LURE	1782397	n/a	LTP111	ltpFR	4	6	n/a	WHISTLE	1606	2	n/a	n/a	n/a	n/a	n/a	n/a
3565.612	n/a	RECOG_RESP	1782806	n/a	LTP111	ltpFR	4	6	n/a	WHISTLE	1606	n/a	n/a	n/a	n/a	n/a	n/a	n/a
3566.34	n/a	RECOG_CONF	1783170	n/a	LTP111	ltpFR	4	6	n/a	WHISTLE	1606	2	n/a	n/a	n/a	n/a	n/a	n/a
3567.6	n/a	RECOG_TARGET	1783800	n/a	LTP111	ltpFR	4	6	0	SCROLL	1257	1	0	n/a	n/a	n/a	n/a	n/a
3568.336	n/a	RECOG_RESP	1784168	n/a	LTP111	ltpFR	4	6	0	SCROLL	1257	n/a	0	n/a	n/a	n/a	n/a	n/a
3568.984	n/a	RECOG_CONF	1784492	n/a	LTP111	ltpFR	4	6	0	SCROLL	1257	1	0	n/a	n/a	n/a	n/a	n/a
3570.234	n/a	RECOG_LURE	1785117	n/a	LTP111	ltpFR	4	6	n/a	NEUTRON	947	1	n/a	n/a	n/a	n/a	n/a	n/a
3571.752	n/a	RECOG_RESP	1785876	n/a	LTP111	ltpFR	4	6	n/a	NEUTRON	947	n/a	n/a	n/a	n/a	n/a	n/a	n/a
3573.284	n/a	RECOG_CONF	1786642	n/a	LTP111	ltpFR	4	6	n/a	NEUTRON	947	1	n/a	n/a	n/a	n/a	n/a	n/a
3574.79	n/a	RECOG_LURE	1787395	n/a	LTP111	ltpFR	4	6	n/a	CHAMPION	279	1	n/a	n/a	n/a	n/a	n/a	n/a
3575.818	n/a	RECOG_RESP	1787909	n/a	LTP111	ltpFR	4	6	n/a	CHAMPION	279	n/a	n/a	n/a	n/a	n/a	n/a	n/a
3576.606	n/a	RECOG_CONF	1788303	n/a	LTP111	ltpFR	4	6	n/a	CHAMPION	279	1	n/a	n/a	n/a	n/a	n/a	n/a
3578.072	n/a	RECOG_LURE	1789036	n/a	LTP111	ltpFR	4	6	n/a	TOWN	1491	1	n/a	n/a	n/a	n/a	n/a	n/a
3579.176	n/a	RECOG_RESP	1789588	n/a	LTP111	ltpFR	4	6	n/a	TOWN	1491	n/a	n/a	n/a	n/a	n/a	n/a	n/a
3579.95	n/a	RECOG_CONF	1789975	n/a	LTP111	ltpFR	4	6	n/a	TOWN	1491	1	n/a	n/a	n/a	n/a	n/a	n/a
3581.372	n/a	RECOG_TARGET	1790686	n/a	LTP111	ltpFR	4	6	-1	MEDAL	885	4	-1	n/a	n/a	n/a	n/a	n/a
3582.224	n/a	RECOG_RESP	1791112	n/a	LTP111	ltpFR	4	6	-1	MEDAL	885	n/a	-1	n/a	n/a	n/a	n/a	n/a
3582.992	n/a	RECOG_CONF	1791496	n/a	LTP111	ltpFR	4	6	-1	MEDAL	885	4	-1	n/a	n/a	n/a	n/a	n/a
3584.47	n/a	RECOG_TARGET	1792235	n/a	LTP111	ltpFR	4	6	1	CROW	414	1	1	n/a	n/a	n/a	n/a	n/a
3585.308	n/a	RECOG_RESP	1792654	n/a	LTP111	ltpFR	4	6	1	CROW	414	n/a	1	n/a	n/a	n/a	n/a	n/a
3586.076	n/a	RECOG_CONF	1793038	n/a	LTP111	ltpFR	4	6	1	CROW	414	1	1	n/a	n/a	n/a	n/a	n/a
3587.502	n/a	RECOG_LURE	1793751	n/a	LTP111	ltpFR	4	6	n/a	NURSE	963	1	n/a	n/a	n/a	n/a	n/a	n/a
3588.744	n/a	RECOG_RESP	1794372	n/a	LTP111	ltpFR	4	6	n/a	NURSE	963	n/a	n/a	n/a	n/a	n/a	n/a	n/a
3590.256	n/a	RECOG_CONF	1795128	n/a	LTP111	ltpFR	4	6	n/a	NURSE	963	1	n/a	n/a	n/a	n/a	n/a	n/a
3591.844	n/a	RECOG_LURE	1795922	n/a	LTP111	ltpFR	4	6	n/a	CRAB	397	1	n/a	n/a	n/a	n/a	n/a	n/a
3592.716	n/a	RECOG_RESP	1796358	n/a	LTP111	ltpFR	4	6	n/a	CRAB	397	n/a	n/a	n/a	n/a	n/a	n/a	n/a
3594.068	n/a	RECOG_CONF	1797034	n/a	LTP111	ltpFR	4	6	n/a	CRAB	397	1	n/a	n/a	n/a	n/a	n/a	n/a
3595.6	n/a	RECOG_LURE	1797800	n/a	LTP111	ltpFR	4	6	n/a	DOUGH	489	2	n/a	n/a	n/a	n/a	n/a	n/a
3596.418	n/a	RECOG_RESP	1798209	n/a	LTP111	ltpFR	4	6	n/a	DOUGH	489	n/a	n/a	n/a	n/a	n/a	n/a	n/a
3597.32	n/a	RECOG_CONF	1798660	n/a	LTP111	ltpFR	4	6	n/a	DOUGH	489	2	n/a	n/a	n/a	n/a	n/a	n/a
3598.642	n/a	RECOG_LURE	1799321	n/a	LTP111	ltpFR	4	6	n/a	BASKETBALL	96	1	n/a	n/a	n/a	n/a	n/a	n/a
3599.532	n/a	RECOG_RESP	1799766	n/a	LTP111	ltpFR	4	6	n/a	BASKETBALL	96	n/a	n/a	n/a	n/a	n/a	n/a	n/a
3600.344	n/a	RECOG_CONF	1800172	n/a	LTP111	ltpFR	4	6	n/a	BASKETBALL	96	1	n/a	n/a	n/a	n/a	n/a	n/a
3601.782	n/a	RECOG_LURE	1800891	n/a	LTP111	ltpFR	4	6	n/a	STEM	1376	2	n/a	n/a	n/a	n/a	n/a	n/a
3603.866	n/a	RECOG_RESP	1801933	n/a	LTP111	ltpFR	4	6	n/a	STEM	1376	n/a	n/a	n/a	n/a	n/a	n/a	n/a
3605.024	n/a	RECOG_CONF	1802512	n/a	LTP111	ltpFR	4	6	n/a	STEM	1376	2	n/a	n/a	n/a	n/a	n/a	n/a
3606.53	n/a	RECOG_TARGET	1803265	n/a	LTP111	ltpFR	4	6	0	CAGE	218	3	0	n/a	n/a	n/a	n/a	n/a
3607.956	n/a	RECOG_RESP	1803978	n/a	LTP111	ltpFR	4	6	0	CAGE	218	n/a	0	n/a	n/a	n/a	n/a	n/a
3609.254	n/a	RECOG_CONF	1804627	n/a	LTP111	ltpFR	4	6	0	CAGE	218	3	0	n/a	n/a	n/a	n/a	n/a
3610.67	n/a	RECOG_TARGET	1805335	n/a	LTP111	ltpFR	4	6	1	ARENA	37	3	0	n/a	n/a	n/a	n/a	n/a
3611.624	n/a	RECOG_RESP	1805812	n/a	LTP111	ltpFR	4	6	1	ARENA	37	n/a	0	n/a	n/a	n/a	n/a	n/a
3612.586	n/a	RECOG_CONF	1806293	n/a	LTP111	ltpFR	4	6	1	ARENA	37	3	0	n/a	n/a	n/a	n/a	n/a
3613.928	n/a	RECOG_LURE	1806964	n/a	LTP111	ltpFR	4	6	n/a	NICOTINE	951	1	n/a	n/a	n/a	n/a	n/a	n/a
3614.872	n/a	RECOG_RESP	1807436	n/a	LTP111	ltpFR	4	6	n/a	NICOTINE	951	n/a	n/a	n/a	n/a	n/a	n/a	n/a
3615.77	n/a	RECOG_CONF	1807885	n/a	LTP111	ltpFR	4	6	n/a	NICOTINE	951	1	n/a	n/a	n/a	n/a	n/a	n/a
3617.344	n/a	RECOG_TARGET	1808672	n/a	LTP111	ltpFR	4	6	0	AFRICA	9	4	1	n/a	n/a	n/a	n/a	n/a
3618.144	n/a	RECOG_RESP	1809072	n/a	LTP111	ltpFR	4	6	0	AFRICA	9	n/a	1	n/a	n/a	n/a	n/a	n/a
3619.162	n/a	RECOG_CONF	1809581	n/a	LTP111	ltpFR	4	6	0	AFRICA	9	4	1	n/a	n/a	n/a	n/a	n/a
3620.542	n/a	RECOG_LURE	1810271	n/a	LTP111	ltpFR	4	6	n/a	CRADLE	399	1	n/a	n/a	n/a	n/a	n/a	n/a
3621.318	n/a	RECOG_RESP	1810659	n/a	LTP111	ltpFR	4	6	n/a	CRADLE	399	n/a	n/a	n/a	n/a	n/a	n/a	n/a
3622.106	n/a	RECOG_CONF	1811053	n/a	LTP111	ltpFR	4	6	n/a	CRADLE	399	1	n/a	n/a	n/a	n/a	n/a	n/a
3623.566	n/a	RECOG_LURE	1811783	n/a	LTP111	ltpFR	4	6	n/a	LITTER	832	1	n/a	n/a	n/a	n/a	n/a	n/a
3624.38	n/a	RECOG_RESP	1812190	n/a	LTP111	ltpFR	4	6	n/a	LITTER	832	n/a	n/a	n/a	n/a	n/a	n/a	n/a
3625.01	n/a	RECOG_CONF	1812505	n/a	LTP111	ltpFR	4	6	n/a	LITTER	832	1	n/a	n/a	n/a	n/a	n/a	n/a
3634.56	n/a	REC_START	1817280	n/a	LTP111	ltpFR	4	7	n/a	n/a	n/a	n/a	n/a	n/a	n/a	n/a	n/a	n/a
3634.596	n/a	RECOG_TARGET	1817298	n/a	LTP111	ltpFR	4	7	1	CABINET	212	1	0	n/a	n/a	n/a	n/a	n/a
3636.23	n/a	RECOG_RESP	1818115	n/a	LTP111	ltpFR	4	7	1	CABINET	212	n/a	0	n/a	n/a	n/a	n/a	n/a
3637.03	n/a	RECOG_CONF	1818515	n/a	LTP111	ltpFR	4	7	1	CABINET	212	1	0	n/a	n/a	n/a	n/a	n/a
3638.396	n/a	RECOG_TARGET	1819198	n/a	LTP111	ltpFR	4	7	-1	GARAGE	621	1	-1	n/a	n/a	n/a	n/a	n/a
3639.934	n/a	RECOG_RESP	1819967	n/a	LTP111	ltpFR	4	7	-1	GARAGE	621	n/a	-1	n/a	n/a	n/a	n/a	n/a
3640.852	n/a	RECOG_CONF	1820426	n/a	LTP111	ltpFR	4	7	-1	GARAGE	621	1	-1	n/a	n/a	n/a	n/a	n/a
3642.162	n/a	RECOG_LURE	1821081	n/a	LTP111	ltpFR	4	7	n/a	CREVICE	405	1	n/a	n/a	n/a	n/a	n/a	n/a
3643.754	n/a	RECOG_RESP	1821877	n/a	LTP111	ltpFR	4	7	n/a	CREVICE	405	n/a	n/a	n/a	n/a	n/a	n/a	n/a
3644.612	n/a	RECOG_CONF	1822306	n/a	LTP111	ltpFR	4	7	n/a	CREVICE	405	1	n/a	n/a	n/a	n/a	n/a	n/a
3645.928	n/a	RECOG_TARGET	1822964	n/a	LTP111	ltpFR	4	7	1	CHERRY	293	4	0	n/a	n/a	n/a	n/a	n/a
3646.642	n/a	RECOG_RESP	1823321	n/a	LTP111	ltpFR	4	7	1	CHERRY	293	n/a	0	n/a	n/a	n/a	n/a	n/a
3647.556	n/a	RECOG_CONF	1823778	n/a	LTP111	ltpFR	4	7	1	CHERRY	293	4	0	n/a	n/a	n/a	n/a	n/a
3649.102	n/a	RECOG_TARGET	1824551	n/a	LTP111	ltpFR	4	7	1	JAPAN	749	4	0	n/a	n/a	n/a	n/a	n/a
3649.856	n/a	RECOG_RESP_VV	1824928	n/a	LTP111	ltpFR	4	7	1	JAPAN	749	n/a	0	n/a	n/a	n/a	n/a	n/a
3650.694	n/a	RECOG_RESP	1825347	n/a	LTP111	ltpFR	4	7	1	JAPAN	749	n/a	0	n/a	n/a	n/a	n/a	n/a
3651.726	n/a	RECOG_CONF	1825863	n/a	LTP111	ltpFR	4	7	1	JAPAN	749	4	0	n/a	n/a	n/a	n/a	n/a
3653.108	n/a	RECOG_TARGET	1826554	n/a	LTP111	ltpFR	4	7	0	BAKER	71	4	0	n/a	n/a	n/a	n/a	n/a
3653.982	n/a	RECOG_RESP	1826991	n/a	LTP111	ltpFR	4	7	0	BAKER	71	n/a	0	n/a	n/a	n/a	n/a	n/a
3654.83	n/a	RECOG_CONF	1827415	n/a	LTP111	ltpFR	4	7	0	BAKER	71	4	0	n/a	n/a	n/a	n/a	n/a
3656.174	n/a	RECOG_TARGET	1828087	n/a	LTP111	ltpFR	4	7	1	MALL	860	4	0	n/a	n/a	n/a	n/a	n/a
3657.244	n/a	RECOG_RESP	1828622	n/a	LTP111	ltpFR	4	7	1	MALL	860	n/a	0	n/a	n/a	n/a	n/a	n/a
3658.102	n/a	RECOG_CONF	1829051	n/a	LTP111	ltpFR	4	7	1	MALL	860	4	0	n/a	n/a	n/a	n/a	n/a
3659.372	n/a	RECOG_LURE	1829686	n/a	LTP111	ltpFR	4	7	n/a	APE	31	1	n/a	n/a	n/a	n/a	n/a	n/a
3660.262	n/a	RECOG_RESP	1830131	n/a	LTP111	ltpFR	4	7	n/a	APE	31	n/a	n/a	n/a	n/a	n/a	n/a	n/a
3661.056	n/a	RECOG_CONF	1830528	n/a	LTP111	ltpFR	4	7	n/a	APE	31	1	n/a	n/a	n/a	n/a	n/a	n/a
3662.58	n/a	RECOG_TARGET	1831290	n/a	LTP111	ltpFR	4	7	1	NAVIGATOR	938	4	0	n/a	n/a	n/a	n/a	n/a
3663.5	n/a	RECOG_RESP	1831750	n/a	LTP111	ltpFR	4	7	1	NAVIGATOR	938	n/a	0	n/a	n/a	n/a	n/a	n/a
3664.398	n/a	RECOG_CONF	1832199	n/a	LTP111	ltpFR	4	7	1	NAVIGATOR	938	4	0	n/a	n/a	n/a	n/a	n/a
3665.772	n/a	RECOG_TARGET	1832886	n/a	LTP111	ltpFR	4	7	0	CHIEF	298	4	0	n/a	n/a	n/a	n/a	n/a
3667.002	n/a	RECOG_RESP	1833501	n/a	LTP111	ltpFR	4	7	0	CHIEF	298	n/a	0	n/a	n/a	n/a	n/a	n/a
3667.85	n/a	RECOG_CONF	1833925	n/a	LTP111	ltpFR	4	7	0	CHIEF	298	4	0	n/a	n/a	n/a	n/a	n/a
3669.146	n/a	RECOG_TARGET	1834573	n/a	LTP111	ltpFR	4	7	1	MILITARY	894	4	0	n/a	n/a	n/a	n/a	n/a
3670.006	n/a	RECOG_RESP	1835003	n/a	LTP111	ltpFR	4	7	1	MILITARY	894	n/a	0	n/a	n/a	n/a	n/a	n/a
3670.904	n/a	RECOG_CONF	1835452	n/a	LTP111	ltpFR	4	7	1	MILITARY	894	4	0	n/a	n/a	n/a	n/a	n/a
3672.152	n/a	RECOG_LURE	1836076	n/a	LTP111	ltpFR	4	7	n/a	SKYSCRAPER	1322	1	n/a	n/a	n/a	n/a	n/a	n/a
3673.128	n/a	RECOG_RESP	1836564	n/a	LTP111	ltpFR	4	7	n/a	SKYSCRAPER	1322	n/a	n/a	n/a	n/a	n/a	n/a	n/a
3673.848	n/a	RECOG_CONF	1836924	n/a	LTP111	ltpFR	4	7	n/a	SKYSCRAPER	1322	1	n/a	n/a	n/a	n/a	n/a	n/a
3675.36	n/a	RECOG_LURE	1837680	n/a	LTP111	ltpFR	4	7	n/a	SODA	1341	1	n/a	n/a	n/a	n/a	n/a	n/a
3676.282	n/a	RECOG_RESP	1838141	n/a	LTP111	ltpFR	4	7	n/a	SODA	1341	n/a	n/a	n/a	n/a	n/a	n/a	n/a
3677.12	n/a	RECOG_CONF	1838560	n/a	LTP111	ltpFR	4	7	n/a	SODA	1341	1	n/a	n/a	n/a	n/a	n/a	n/a
3678.418	n/a	RECOG_TARGET	1839209	n/a	LTP111	ltpFR	4	7	0	CHILD	299	4	0	n/a	n/a	n/a	n/a	n/a
3679.286	n/a	RECOG_RESP	1839643	n/a	LTP111	ltpFR	4	7	0	CHILD	299	n/a	0	n/a	n/a	n/a	n/a	n/a
3680.134	n/a	RECOG_CONF	1840067	n/a	LTP111	ltpFR	4	7	0	CHILD	299	4	0	n/a	n/a	n/a	n/a	n/a
3681.374	n/a	RECOG_TARGET	1840687	n/a	LTP111	ltpFR	4	7	0	UMPIRE	1535	1	0	n/a	n/a	n/a	n/a	n/a
3682.194	n/a	RECOG_RESP	1841097	n/a	LTP111	ltpFR	4	7	0	UMPIRE	1535	n/a	0	n/a	n/a	n/a	n/a	n/a
3682.888	n/a	RECOG_CONF	1841444	n/a	LTP111	ltpFR	4	7	0	UMPIRE	1535	1	0	n/a	n/a	n/a	n/a	n/a
3684.158	n/a	RECOG_LURE	1842079	n/a	LTP111	ltpFR	4	7	n/a	COTTAGE	384	1	n/a	n/a	n/a	n/a	n/a	n/a
3685.228	n/a	RECOG_RESP	1842614	n/a	LTP111	ltpFR	4	7	n/a	COTTAGE	384	n/a	n/a	n/a	n/a	n/a	n/a	n/a
3685.98	n/a	RECOG_CONF	1842990	n/a	LTP111	ltpFR	4	7	n/a	COTTAGE	384	1	n/a	n/a	n/a	n/a	n/a	n/a
3687.364	n/a	RECOG_TARGET	1843682	n/a	LTP111	ltpFR	4	7	1	TRUCK	1512	1	0	n/a	n/a	n/a	n/a	n/a
3688.336	n/a	RECOG_RESP	1844168	n/a	LTP111	ltpFR	4	7	1	TRUCK	1512	n/a	0	n/a	n/a	n/a	n/a	n/a
3689.054	n/a	RECOG_CONF	1844527	n/a	LTP111	ltpFR	4	7	1	TRUCK	1512	1	0	n/a	n/a	n/a	n/a	n/a
3690.298	n/a	RECOG_TARGET	1845149	n/a	LTP111	ltpFR	4	7	-1	BOWL	158	1	-1	n/a	n/a	n/a	n/a	n/a
3691.308	n/a	RECOG_RESP	1845654	n/a	LTP111	ltpFR	4	7	-1	BOWL	158	n/a	-1	n/a	n/a	n/a	n/a	n/a
3692.146	n/a	RECOG_CONF	1846073	n/a	LTP111	ltpFR	4	7	-1	BOWL	158	1	-1	n/a	n/a	n/a	n/a	n/a
3693.52	n/a	RECOG_LURE	1846760	n/a	LTP111	ltpFR	4	7	n/a	VETERAN	1561	1	n/a	n/a	n/a	n/a	n/a	n/a
3694.656	n/a	RECOG_RESP	1847328	n/a	LTP111	ltpFR	4	7	n/a	VETERAN	1561	n/a	n/a	n/a	n/a	n/a	n/a	n/a
3695.48	n/a	RECOG_CONF	1847740	n/a	LTP111	ltpFR	4	7	n/a	VETERAN	1561	1	n/a	n/a	n/a	n/a	n/a	n/a
3696.846	n/a	RECOG_LURE	1848423	n/a	LTP111	ltpFR	4	7	n/a	TRANSPLANT	1496	1	n/a	n/a	n/a	n/a	n/a	n/a
3698.194	n/a	RECOG_RESP	1849097	n/a	LTP111	ltpFR	4	7	n/a	TRANSPLANT	1496	n/a	n/a	n/a	n/a	n/a	n/a	n/a
3699.332	n/a	RECOG_CONF	1849666	n/a	LTP111	ltpFR	4	7	n/a	TRANSPLANT	1496	1	n/a	n/a	n/a	n/a	n/a	n/a
3703.154	n/a	REC_START	1851577	n/a	LTP111	ltpFR	4	8	n/a	n/a	n/a	n/a	n/a	n/a	n/a	n/a	n/a	n/a
3703.186	n/a	RECOG_TARGET	1851593	n/a	LTP111	ltpFR	4	8	0	GUM	672	1	0	n/a	n/a	n/a	n/a	n/a
3704.282	n/a	RECOG_RESP	1852141	n/a	LTP111	ltpFR	4	8	0	GUM	672	n/a	0	n/a	n/a	n/a	n/a	n/a
3705.094	n/a	RECOG_CONF	1852547	n/a	LTP111	ltpFR	4	8	0	GUM	672	1	0	n/a	n/a	n/a	n/a	n/a
3706.424	n/a	RECOG_TARGET	1853212	n/a	LTP111	ltpFR	4	8	0	INSTRUCTOR	741	4	0	n/a	n/a	n/a	n/a	n/a
3707.694	n/a	RECOG_RESP	1853847	n/a	LTP111	ltpFR	4	8	0	INSTRUCTOR	741	n/a	0	n/a	n/a	n/a	n/a	n/a
3708.626	n/a	RECOG_CONF	1854313	n/a	LTP111	ltpFR	4	8	0	INSTRUCTOR	741	4	0	n/a	n/a	n/a	n/a	n/a
3709.992	n/a	RECOG_LURE	1854996	n/a	LTP111	ltpFR	4	8	n/a	RECEPTIONIST	1174	1	n/a	n/a	n/a	n/a	n/a	n/a
