onset	duration	trial_type	sample	stim_file	subject	experiment	session	trial	task	item_name	item_num	recog_conf	resp	answer	test_x	test_y	test_z	color_b	color_g	color_r	case	font
242.334	n/a	SESS_START	121167	n/a	LTP210	ltpFR	8	n/a	n/a	n/a	n/a	1	n/a	n/a	0	0	0	n/a	n/a	n/a	n/a	n/a
309.438	n/a	START	154719	n/a	LTP210	ltpFR	8	n/a	n/a	n/a	n/a	n/a	n/a	n/a	n/a	n/a	n/a	n/a	n/a	n/a	n/a	n/a
309.47	n/a	PROB	154735	n/a	LTP210	ltpFR	8	n/a	n/a	n/a	n/a	n/a	n/a	10	2	4	4	n/a	n/a	n/a	n/a	n/a
311.468	n/a	PROB	155734	n/a	LTP210	ltpFR	8	n/a	n/a	n/a	n/a	n/a	n/a	13	1	6	6	n/a	n/a	n/a	n/a	n/a
312.848	n/a	PROB	156424	n/a	LTP210	ltpFR	8	n/a	n/a	n/a	n/a	n/a	n/a	16	9	1	6	n/a	n/a	n/a	n/a	n/a
314.13	n/a	PROB	157065	n/a	LTP210	ltpFR	8	n/a	n/a	n/a	n/a	n/a	n/a	14	2	5	7	n/a	n/a	n/a	n/a	n/a
316.276	n/a	PROB	158138	n/a	LTP210	ltpFR	8	n/a	n/a	n/a	n/a	n/a	n/a	19	5	7	7	n/a	n/a	n/a	n/a	n/a
318.656	n/a	PROB	159328	n/a	LTP210	ltpFR	8	n/a	n/a	n/a	n/a	n/a	n/a	17	8	6	3	n/a	n/a	n/a	n/a	n/a
323.632	n/a	PROB	161816	n/a	LTP210	ltpFR	8	n/a	n/a	n/a	n/a	n/a	n/a	18	6	4	8	n/a	n/a	n/a	n/a	n/a
326.212	n/a	PROB	163106	n/a	LTP210	ltpFR	8	n/a	n/a	n/a	n/a	n/a	n/a	11	7	1	3	n/a	n/a	n/a	n/a	n/a
327.884	n/a	STOP	163942	n/a	LTP210	ltpFR	8	n/a	n/a	n/a	n/a	n/a	n/a	n/a	n/a	n/a	n/a	n/a	n/a	n/a	n/a	n/a
385.374	n/a	WORD	192687	wordpools/wasnorm_wordpool_less_exclusions.txt	LTP210	ltpFR	8	1	1	CHISEL	305	n/a	0	n/a	0	0	0	1	0.412841796875	0.57763671875	lower	../fonts/zerothre.ttf
389.452	n/a	WORD	194726	wordpools/wasnorm_wordpool_less_exclusions.txt	LTP210	ltpFR	8	1	1	PUPPY	1144	n/a	1	n/a	0	0	0	1	0.412841796875	0.57763671875	lower	../fonts/zerothre.ttf
393.578	n/a	WORD	196789	wordpools/wasnorm_wordpool_less_exclusions.txt	LTP210	ltpFR	8	1	1	DIAPER	459	n/a	0	n/a	0	0	0	1	0.412841796875	0.57763671875	lower	../fonts/zerothre.ttf
397.406	n/a	WORD	198703	wordpools/wasnorm_wordpool_less_exclusions.txt	LTP210	ltpFR	8	1	1	GANG	619	n/a	1	n/a	0	0	0	1	0.412841796875	0.57763671875	lower	../fonts/zerothre.ttf
401.534	n/a	WORD	200767	wordpools/wasnorm_wordpool_less_exclusions.txt	LTP210	ltpFR	8	1	1	EYELASH	546	n/a	0	n/a	0	0	0	1	0.412841796875	0.57763671875	lower	../fonts/zerothre.ttf
405.512	n/a	WORD	202756	wordpools/wasnorm_wordpool_less_exclusions.txt	LTP210	ltpFR	8	1	1	WOLF	1619	n/a	1	n/a	0	0	0	1	0.412841796875	0.57763671875	lower	../fonts/zerothre.ttf
409.572	n/a	WORD	204786	wordpools/wasnorm_wordpool_less_exclusions.txt	LTP210	ltpFR	8	1	1	SKUNK	1321	n/a	1	n/a	0	0	0	1	0.412841796875	0.57763671875	lower	../fonts/zerothre.ttf
413.616	n/a	WORD	206808	wordpools/wasnorm_wordpool_less_exclusions.txt	LTP210	ltpFR	8	1	1	FUR	615	n/a	0	n/a	0	0	0	1	0.412841796875	0.57763671875	lower	../fonts/zerothre.ttf
417.692	n/a	WORD	208846	wordpools/wasnorm_wordpool_less_exclusions.txt	LTP210	ltpFR	8	1	1	BEAST	108	n/a	1	n/a	0	0	0	1	0.412841796875	0.57763671875	lower	../fonts/zerothre.ttf
421.538	n/a	WORD	210769	wordpools/wasnorm_wordpool_less_exclusions.txt	LTP210	ltpFR	8	1	1	OATS	968	n/a	1	n/a	0	0	0	1	0.412841796875	0.57763671875	lower	../fonts/zerothre.ttf
425.516	n/a	WORD	212758	wordpools/wasnorm_wordpool_less_exclusions.txt	LTP210	ltpFR	8	1	1	MARGARINE	868	n/a	0	n/a	0	0	0	1	0.412841796875	0.57763671875	lower	../fonts/zerothre.ttf
429.492	n/a	WORD	214746	wordpools/wasnorm_wordpool_less_exclusions.txt	LTP210	ltpFR	8	1	1	LABYRINTH	791	n/a	0	n/a	0	0	0	1	0.412841796875	0.57763671875	lower	../fonts/zerothre.ttf
433.454	n/a	WORD	216727	wordpools/wasnorm_wordpool_less_exclusions.txt	LTP210	ltpFR	8	1	1	PUZZLE	1146	n/a	0	n/a	0	0	0	1	0.412841796875	0.57763671875	lower	../fonts/zerothre.ttf
437.298	n/a	WORD	218649	wordpools/wasnorm_wordpool_less_exclusions.txt	LTP210	ltpFR	8	1	1	STAKE	1368	n/a	0	n/a	0	0	0	1	0.412841796875	0.57763671875	lower	../fonts/zerothre.ttf
441.226	n/a	WORD	220613	wordpools/wasnorm_wordpool_less_exclusions.txt	LTP210	ltpFR	8	1	1	LASH	802	n/a	0	n/a	0	0	0	1	0.412841796875	0.57763671875	lower	../fonts/zerothre.ttf
445.07	n/a	WORD	222535	wordpools/wasnorm_wordpool_less_exclusions.txt	LTP210	ltpFR	8	1	1	SQUIRREL	1362	n/a	1	n/a	0	0	0	1	0.412841796875	0.57763671875	lower	../fonts/zerothre.ttf
448.082	n/a	START	224041	n/a	LTP210	ltpFR	8	n/a	n/a	n/a	n/a	n/a	n/a	n/a	n/a	n/a	n/a	n/a	n/a	n/a	n/a	n/a
449.114	n/a	PROB	224557	n/a	LTP210	ltpFR	8	n/a	n/a	n/a	n/a	n/a	n/a	8	1	1	6	n/a	n/a	n/a	n/a	n/a
451.044	n/a	PROB	225522	n/a	LTP210	ltpFR	8	n/a	n/a	n/a	n/a	n/a	n/a	15	2	7	6	n/a	n/a	n/a	n/a	n/a
456.082	n/a	STOP	228041	n/a	LTP210	ltpFR	8	n/a	n/a	n/a	n/a	n/a	n/a	n/a	n/a	n/a	n/a	n/a	n/a	n/a	n/a	n/a
457.884	n/a	REC_START	228942	n/a	LTP210	ltpFR	8	1	n/a	n/a	n/a	n/a	n/a	n/a	0	0	0	n/a	n/a	n/a	n/a	n/a
458.812	n/a	REC_WORD	229406	wordpools/wasnorm_wordpool_less_exclusions.txt	LTP210	ltpFR	8	1	1	CHISEL	305	n/a	0	n/a	0	0	0	n/a	n/a	n/a	n/a	n/a
460.272	n/a	REC_WORD	230136	wordpools/wasnorm_wordpool_less_exclusions.txt	LTP210	ltpFR	8	1	1	EYELASH	546	n/a	0	n/a	0	0	0	n/a	n/a	n/a	n/a	n/a
461.61	n/a	REC_WORD	230805	wordpools/wasnorm_wordpool_less_exclusions.txt	LTP210	ltpFR	8	1	1	LASH	802	n/a	0	n/a	0	0	0	n/a	n/a	n/a	n/a	n/a
462.986	n/a	REC_WORD	231493	wordpools/wasnorm_wordpool_less_exclusions.txt	LTP210	ltpFR	8	1	1	SQUIRREL	1362	n/a	1	n/a	0	0	0	n/a	n/a	n/a	n/a	n/a
464.378	n/a	REC_WORD	232189	wordpools/wasnorm_wordpool_less_exclusions.txt	LTP210	ltpFR	8	1	1	WOLF	1619	n/a	1	n/a	0	0	0	n/a	n/a	n/a	n/a	n/a
465.8	n/a	REC_WORD	232900	wordpools/wasnorm_wordpool_less_exclusions.txt	LTP210	ltpFR	8	1	1	BEAST	108	n/a	1	n/a	0	0	0	n/a	n/a	n/a	n/a	n/a
468.444	n/a	REC_WORD	234222	wordpools/wasnorm_wordpool_less_exclusions.txt	LTP210	ltpFR	8	1	1	GANG	619	n/a	1	n/a	0	0	0	n/a	n/a	n/a	n/a	n/a
476.44	n/a	REC_WORD	238220	wordpools/wasnorm_wordpool_less_exclusions.txt	LTP210	ltpFR	8	1	1	FUR	615	n/a	0	n/a	0	0	0	n/a	n/a	n/a	n/a	n/a
544.606	n/a	START	272303	n/a	LTP210	ltpFR	8	n/a	n/a	n/a	n/a	n/a	n/a	n/a	n/a	n/a	n/a	n/a	n/a	n/a	n/a	n/a
546.12	n/a	PROB	273060	n/a	LTP210	ltpFR	8	n/a	n/a	n/a	n/a	n/a	n/a	14	4	4	6	n/a	n/a	n/a	n/a	n/a
549.598	n/a	PROB	274799	n/a	LTP210	ltpFR	8	n/a	n/a	n/a	n/a	n/a	n/a	16	8	6	2	n/a	n/a	n/a	n/a	n/a
551.072	n/a	STOP	275536	n/a	LTP210	ltpFR	8	n/a	n/a	n/a	n/a	n/a	n/a	n/a	n/a	n/a	n/a	n/a	n/a	n/a	n/a	n/a
553.708	n/a	WORD	276854	wordpools/wasnorm_wordpool_less_exclusions.txt	LTP210	ltpFR	8	2	1	BERRY	122	n/a	1	n/a	0	0	0	1	0.412841796875	0.57763671875	lower	../fonts/zerothre.ttf
556.72	n/a	START	278360	n/a	LTP210	ltpFR	8	n/a	n/a	n/a	n/a	n/a	n/a	n/a	n/a	n/a	n/a	n/a	n/a	n/a	n/a	n/a
557.718	n/a	PROB	278859	n/a	LTP210	ltpFR	8	n/a	n/a	n/a	n/a	n/a	n/a	12	5	2	5	n/a	n/a	n/a	n/a	n/a
559.384	n/a	PROB	279692	n/a	LTP210	ltpFR	8	n/a	n/a	n/a	n/a	n/a	n/a	3	1	1	1	n/a	n/a	n/a	n/a	n/a
560.432	n/a	PROB	280216	n/a	LTP210	ltpFR	8	n/a	n/a	n/a	n/a	n/a	n/a	15	3	8	5	n/a	n/a	n/a	n/a	n/a
564.72	n/a	STOP	282360	n/a	LTP210	ltpFR	8	n/a	n/a	n/a	n/a	n/a	n/a	n/a	n/a	n/a	n/a	n/a	n/a	n/a	n/a	n/a
565.856	n/a	WORD	282928	wordpools/wasnorm_wordpool_less_exclusions.txt	LTP210	ltpFR	8	2	1	ACORN	3	n/a	1	n/a	0	0	0	1	0.412841796875	0.57763671875	lower	../fonts/zerothre.ttf
568.87	n/a	START	284435	n/a	LTP210	ltpFR	8	n/a	n/a	n/a	n/a	n/a	n/a	n/a	n/a	n/a	n/a	n/a	n/a	n/a	n/a	n/a
570.018	n/a	PROB	285009	n/a	LTP210	ltpFR	8	n/a	n/a	n/a	n/a	n/a	n/a	15	9	1	5	n/a	n/a	n/a	n/a	n/a
571.266	n/a	PROB	285633	n/a	LTP210	ltpFR	8	n/a	n/a	n/a	n/a	n/a	n/a	11	2	7	2	n/a	n/a	n/a	n/a	n/a
573.064	n/a	PROB	286532	n/a	LTP210	ltpFR	8	n/a	n/a	n/a	n/a	n/a	n/a	6	2	3	1	n/a	n/a	n/a	n/a	n/a
574.562	n/a	PROB	287281	n/a	LTP210	ltpFR	8	n/a	n/a	n/a	n/a	n/a	n/a	20	6	8	6	n/a	n/a	n/a	n/a	n/a
576.296	n/a	STOP	288148	n/a	LTP210	ltpFR	8	n/a	n/a	n/a	n/a	n/a	n/a	n/a	n/a	n/a	n/a	n/a	n/a	n/a	n/a	n/a
578.006	n/a	WORD	289003	wordpools/wasnorm_wordpool_less_exclusions.txt	LTP210	ltpFR	8	2	1	OTTER	986	n/a	1	n/a	0	0	0	1	0.412841796875	0.57763671875	lower	../fonts/zerothre.ttf
581.02	n/a	START	290510	n/a	LTP210	ltpFR	8	n/a	n/a	n/a	n/a	n/a	n/a	n/a	n/a	n/a	n/a	n/a	n/a	n/a	n/a	n/a
581.85	n/a	PROB	290925	n/a	LTP210	ltpFR	8	n/a	n/a	n/a	n/a	n/a	n/a	12	5	5	2	n/a	n/a	n/a	n/a	n/a
582.914	n/a	PROB	291457	n/a	LTP210	ltpFR	8	n/a	n/a	n/a	n/a	n/a	n/a	15	5	4	6	n/a	n/a	n/a	n/a	n/a
584.762	n/a	PROB	292381	n/a	LTP210	ltpFR	8	n/a	n/a	n/a	n/a	n/a	n/a	18	3	9	6	n/a	n/a	n/a	n/a	n/a
589.02	n/a	STOP	294510	n/a	LTP210	ltpFR	8	n/a	n/a	n/a	n/a	n/a	n/a	n/a	n/a	n/a	n/a	n/a	n/a	n/a	n/a	n/a
589.888	n/a	WORD	294944	wordpools/wasnorm_wordpool_less_exclusions.txt	LTP210	ltpFR	8	2	1	CLAW	319	n/a	0	n/a	0	0	0	1	0.412841796875	0.57763671875	lower	../fonts/zerothre.ttf
592.9	n/a	START	296450	n/a	LTP210	ltpFR	8	n/a	n/a	n/a	n/a	n/a	n/a	n/a	n/a	n/a	n/a	n/a	n/a	n/a	n/a	n/a
594.05	n/a	PROB	297025	n/a	LTP210	ltpFR	8	n/a	n/a	n/a	n/a	n/a	n/a	17	8	4	5	n/a	n/a	n/a	n/a	n/a
596.362	n/a	PROB	298181	n/a	LTP210	ltpFR	8	n/a	n/a	n/a	n/a	n/a	n/a	16	6	3	7	n/a	n/a	n/a	n/a	n/a
597.876	n/a	PROB	298938	n/a	LTP210	ltpFR	8	n/a	n/a	n/a	n/a	n/a	n/a	21	6	8	7	n/a	n/a	n/a	n/a	n/a
600.152	n/a	STOP	300076	n/a	LTP210	ltpFR	8	n/a	n/a	n/a	n/a	n/a	n/a	n/a	n/a	n/a	n/a	n/a	n/a	n/a	n/a	n/a
602.104	n/a	WORD	301052	wordpools/wasnorm_wordpool_less_exclusions.txt	LTP210	ltpFR	8	2	1	LION	827	n/a	1	n/a	0	0	0	1	0.412841796875	0.57763671875	lower	../fonts/zerothre.ttf
605.116	n/a	START	302558	n/a	LTP210	ltpFR	8	n/a	n/a	n/a	n/a	n/a	n/a	n/a	n/a	n/a	n/a	n/a	n/a	n/a	n/a	n/a
606.064	n/a	PROB	303032	n/a	LTP210	ltpFR	8	n/a	n/a	n/a	n/a	n/a	n/a	13	9	2	2	n/a	n/a	n/a	n/a	n/a
607.946	n/a	PROB	303973	n/a	LTP210	ltpFR	8	n/a	n/a	n/a	n/a	n/a	n/a	11	1	5	5	n/a	n/a	n/a	n/a	n/a
609.16	n/a	PROB	304580	n/a	LTP210	ltpFR	8	n/a	n/a	n/a	n/a	n/a	n/a	14	1	8	5	n/a	n/a	n/a	n/a	n/a
612.568	n/a	STOP	306284	n/a	LTP210	ltpFR	8	n/a	n/a	n/a	n/a	n/a	n/a	n/a	n/a	n/a	n/a	n/a	n/a	n/a	n/a	n/a
614.086	n/a	WORD	307043	wordpools/wasnorm_wordpool_less_exclusions.txt	LTP210	ltpFR	8	2	1	WALNUT	1584	n/a	1	n/a	0	0	0	1	0.412841796875	0.57763671875	lower	../fonts/zerothre.ttf
617.098	n/a	START	308549	n/a	LTP210	ltpFR	8	n/a	n/a	n/a	n/a	n/a	n/a	n/a	n/a	n/a	n/a	n/a	n/a	n/a	n/a	n/a
618.146	n/a	PROB	309073	n/a	LTP210	ltpFR	8	n/a	n/a	n/a	n/a	n/a	n/a	19	8	4	7	n/a	n/a	n/a	n/a	n/a
621.142	n/a	PROB	310571	n/a	LTP210	ltpFR	8	n/a	n/a	n/a	n/a	n/a	n/a	20	9	6	5	n/a	n/a	n/a	n/a	n/a
625.098	n/a	STOP	312549	n/a	LTP210	ltpFR	8	n/a	n/a	n/a	n/a	n/a	n/a	n/a	n/a	n/a	n/a	n/a	n/a	n/a	n/a	n/a
626.034	n/a	WORD	313017	wordpools/wasnorm_wordpool_less_exclusions.txt	LTP210	ltpFR	8	2	1	PARROT	1015	n/a	1	n/a	0	0	0	1	0.412841796875	0.57763671875	lower	../fonts/zerothre.ttf
629.048	n/a	START	314524	n/a	LTP210	ltpFR	8	n/a	n/a	n/a	n/a	n/a	n/a	n/a	n/a	n/a	n/a	n/a	n/a	n/a	n/a	n/a
629.962	n/a	PROB	314981	n/a	LTP210	ltpFR	8	n/a	n/a	n/a	n/a	n/a	n/a	12	3	7	2	n/a	n/a	n/a	n/a	n/a
631.226	n/a	PROB	315613	n/a	LTP210	ltpFR	8	n/a	n/a	n/a	n/a	n/a	n/a	21	6	7	7	n/a	n/a	n/a	n/a	n/a
633.424	n/a	PROB	316712	n/a	LTP210	ltpFR	8	n/a	n/a	n/a	n/a	n/a	n/a	18	7	5	6	n/a	n/a	n/a	n/a	n/a
636.552	n/a	STOP	318276	n/a	LTP210	ltpFR	8	n/a	n/a	n/a	n/a	n/a	n/a	n/a	n/a	n/a	n/a	n/a	n/a	n/a	n/a	n/a
638.25	n/a	WORD	319125	wordpools/wasnorm_wordpool_less_exclusions.txt	LTP210	ltpFR	8	2	1	EAGLE	512	n/a	1	n/a	0	0	0	1	0.412841796875	0.57763671875	lower	../fonts/zerothre.ttf
641.262	n/a	START	320631	n/a	LTP210	ltpFR	8	n/a	n/a	n/a	n/a	n/a	n/a	n/a	n/a	n/a	n/a	n/a	n/a	n/a	n/a	n/a
642.278	n/a	PROB	321139	n/a	LTP210	ltpFR	8	n/a	n/a	n/a	n/a	n/a	n/a	16	3	6	7	n/a	n/a	n/a	n/a	n/a
643.792	n/a	PROB	321896	n/a	LTP210	ltpFR	8	n/a	n/a	n/a	n/a	n/a	n/a	22	4	9	9	n/a	n/a	n/a	n/a	n/a
645.756	n/a	PROB	322878	n/a	LTP210	ltpFR	8	n/a	n/a	n/a	n/a	n/a	n/a	5	1	1	3	n/a	n/a	n/a	n/a	n/a
646.938	n/a	PROB	323469	n/a	LTP210	ltpFR	8	n/a	n/a	n/a	n/a	n/a	n/a	16	8	6	3	n/a	n/a	n/a	n/a	n/a
648.682	n/a	STOP	324341	n/a	LTP210	ltpFR	8	n/a	n/a	n/a	n/a	n/a	n/a	n/a	n/a	n/a	n/a	n/a	n/a	n/a	n/a	n/a
650.116	n/a	WORD	325058	wordpools/wasnorm_wordpool_less_exclusions.txt	LTP210	ltpFR	8	2	1	CROCODILE	411	n/a	1	n/a	0	0	0	1	0.412841796875	0.57763671875	lower	../fonts/zerothre.ttf
653.128	n/a	START	326564	n/a	LTP210	ltpFR	8	n/a	n/a	n/a	n/a	n/a	n/a	n/a	n/a	n/a	n/a	n/a	n/a	n/a	n/a	n/a
654.21	n/a	PROB	327105	n/a	LTP210	ltpFR	8	n/a	n/a	n/a	n/a	n/a	n/a	12	2	4	6	n/a	n/a	n/a	n/a	n/a
655.824	n/a	PROB	327912	n/a	LTP210	ltpFR	8	n/a	n/a	n/a	n/a	n/a	n/a	21	7	5	9	n/a	n/a	n/a	n/a	n/a
658.188	n/a	PROB	329094	n/a	LTP210	ltpFR	8	n/a	n/a	n/a	n/a	n/a	n/a	15	5	5	5	n/a	n/a	n/a	n/a	n/a
659.486	n/a	PROB	329743	n/a	LTP210	ltpFR	8	n/a	n/a	n/a	n/a	n/a	n/a	15	4	6	5	n/a	n/a	n/a	n/a	n/a
660.8	n/a	STOP	330400	n/a	LTP210	ltpFR	8	n/a	n/a	n/a	n/a	n/a	n/a	n/a	n/a	n/a	n/a	n/a	n/a	n/a	n/a	n/a
662.332	n/a	WORD	331166	wordpools/wasnorm_wordpool_less_exclusions.txt	LTP210	ltpFR	8	2	1	ALMOND	18	n/a	1	n/a	0	0	0	1	0.412841796875	0.57763671875	lower	../fonts/zerothre.ttf
665.344	n/a	START	332672	n/a	LTP210	ltpFR	8	n/a	n/a	n/a	n/a	n/a	n/a	n/a	n/a	n/a	n/a	n/a	n/a	n/a	n/a	n/a
666.308	n/a	PROB	333154	n/a	LTP210	ltpFR	8	n/a	n/a	n/a	n/a	n/a	n/a	19	3	7	9	n/a	n/a	n/a	n/a	n/a
667.524	n/a	PROB	333762	n/a	LTP210	ltpFR	8	n/a	n/a	n/a	n/a	n/a	n/a	13	4	4	5	n/a	n/a	n/a	n/a	n/a
669.304	n/a	PROB	334652	n/a	LTP210	ltpFR	8	n/a	n/a	n/a	n/a	n/a	n/a	11	2	5	4	n/a	n/a	n/a	n/a	n/a
672.322	n/a	STOP	336161	n/a	LTP210	ltpFR	8	n/a	n/a	n/a	n/a	n/a	n/a	n/a	n/a	n/a	n/a	n/a	n/a	n/a	n/a	n/a
674.18	n/a	WORD	337090	wordpools/wasnorm_wordpool_less_exclusions.txt	LTP210	ltpFR	8	2	1	RANCH	1166	n/a	0	n/a	0	0	0	1	0.412841796875	0.57763671875	lower	../fonts/zerothre.ttf
677.192	n/a	START	338596	n/a	LTP210	ltpFR	8	n/a	n/a	n/a	n/a	n/a	n/a	n/a	n/a	n/a	n/a	n/a	n/a	n/a	n/a	n/a
678.208	n/a	PROB	339104	n/a	LTP210	ltpFR	8	n/a	n/a	n/a	n/a	n/a	n/a	12	4	2	6	n/a	n/a	n/a	n/a	n/a
679.788	n/a	PROB	339894	n/a	LTP210	ltpFR	8	n/a	n/a	n/a	n/a	n/a	n/a	9	3	2	4	n/a	n/a	n/a	n/a	n/a
682.384	n/a	PROB	341192	n/a	LTP210	ltpFR	8	n/a	n/a	n/a	n/a	n/a	n/a	12	3	7	2	n/a	n/a	n/a	n/a	n/a
685.192	n/a	STOP	342596	n/a	LTP210	ltpFR	8	n/a	n/a	n/a	n/a	n/a	n/a	n/a	n/a	n/a	n/a	n/a	n/a	n/a	n/a	n/a
686.312	n/a	WORD	343156	wordpools/wasnorm_wordpool_less_exclusions.txt	LTP210	ltpFR	8	2	1	BULL	193	n/a	1	n/a	0	0	0	1	0.412841796875	0.57763671875	lower	../fonts/zerothre.ttf
689.324	n/a	START	344662	n/a	LTP210	ltpFR	8	n/a	n/a	n/a	n/a	n/a	n/a	n/a	n/a	n/a	n/a	n/a	n/a	n/a	n/a	n/a
690.39	n/a	PROB	345195	n/a	LTP210	ltpFR	8	n/a	n/a	n/a	n/a	n/a	n/a	8	5	2	1	n/a	n/a	n/a	n/a	n/a
692.27	n/a	PROB	346135	n/a	LTP210	ltpFR	8	n/a	n/a	n/a	n/a	n/a	n/a	11	3	1	7	n/a	n/a	n/a	n/a	n/a
693.436	n/a	PROB	346718	n/a	LTP210	ltpFR	8	n/a	n/a	n/a	n/a	n/a	n/a	24	9	9	6	n/a	n/a	n/a	n/a	n/a
697.324	n/a	STOP	348662	n/a	LTP210	ltpFR	8	n/a	n/a	n/a	n/a	n/a	n/a	n/a	n/a	n/a	n/a	n/a	n/a	n/a	n/a	n/a
698.428	n/a	WORD	349214	wordpools/wasnorm_wordpool_less_exclusions.txt	LTP210	ltpFR	8	2	1	SALAD	1224	n/a	0	n/a	0	0	0	1	0.412841796875	0.57763671875	lower	../fonts/zerothre.ttf
701.456	n/a	START	350728	n/a	LTP210	ltpFR	8	n/a	n/a	n/a	n/a	n/a	n/a	n/a	n/a	n/a	n/a	n/a	n/a	n/a	n/a	n/a
702.288	n/a	PROB	351144	n/a	LTP210	ltpFR	8	n/a	n/a	n/a	n/a	n/a	n/a	21	6	7	9	n/a	n/a	n/a	n/a	n/a
706.35	n/a	PROB	353175	n/a	LTP210	ltpFR	8	n/a	n/a	n/a	n/a	n/a	n/a	12	2	4	6	n/a	n/a	n/a	n/a	n/a
707.954	n/a	STOP	353977	n/a	LTP210	ltpFR	8	n/a	n/a	n/a	n/a	n/a	n/a	n/a	n/a	n/a	n/a	n/a	n/a	n/a	n/a	n/a
710.426	n/a	WORD	355213	wordpools/wasnorm_wordpool_less_exclusions.txt	LTP210	ltpFR	8	2	1	UNICORN	1538	n/a	1	n/a	0	0	0	1	0.412841796875	0.57763671875	lower	../fonts/zerothre.ttf
713.438	n/a	START	356719	n/a	LTP210	ltpFR	8	n/a	n/a	n/a	n/a	n/a	n/a	n/a	n/a	n/a	n/a	n/a	n/a	n/a	n/a	n/a
714.42	n/a	PROB	357210	n/a	LTP210	ltpFR	8	n/a	n/a	n/a	n/a	n/a	n/a	25	7	9	9	n/a	n/a	n/a	n/a	n/a
716.402	n/a	PROB	358201	n/a	LTP210	ltpFR	8	n/a	n/a	n/a	n/a	n/a	n/a	8	6	1	1	n/a	n/a	n/a	n/a	n/a
717.634	n/a	PROB	358817	n/a	LTP210	ltpFR	8	n/a	n/a	n/a	n/a	n/a	n/a	14	1	8	5	n/a	n/a	n/a	n/a	n/a
720.346	n/a	STOP	360173	n/a	LTP210	ltpFR	8	n/a	n/a	n/a	n/a	n/a	n/a	n/a	n/a	n/a	n/a	n/a	n/a	n/a	n/a	n/a
722.542	n/a	WORD	361271	wordpools/wasnorm_wordpool_less_exclusions.txt	LTP210	ltpFR	8	2	1	WELL	1600	n/a	0	n/a	0	0	0	1	0.412841796875	0.57763671875	lower	../fonts/zerothre.ttf
725.556	n/a	START	362778	n/a	LTP210	ltpFR	8	n/a	n/a	n/a	n/a	n/a	n/a	n/a	n/a	n/a	n/a	n/a	n/a	n/a	n/a	n/a
726.486	n/a	PROB	363243	n/a	LTP210	ltpFR	8	n/a	n/a	n/a	n/a	n/a	n/a	9	1	7	1	n/a	n/a	n/a	n/a	n/a
727.7	n/a	PROB	363850	n/a	LTP210	ltpFR	8	n/a	n/a	n/a	n/a	n/a	n/a	21	9	8	4	n/a	n/a	n/a	n/a	n/a
733.556	n/a	STOP	366778	n/a	LTP210	ltpFR	8	n/a	n/a	n/a	n/a	n/a	n/a	n/a	n/a	n/a	n/a	n/a	n/a	n/a	n/a	n/a
734.692	n/a	WORD	367346	wordpools/wasnorm_wordpool_less_exclusions.txt	LTP210	ltpFR	8	2	1	PLUM	1090	n/a	1	n/a	0	0	0	1	0.412841796875	0.57763671875	lower	../fonts/zerothre.ttf
737.702	n/a	START	368851	n/a	LTP210	ltpFR	8	n/a	n/a	n/a	n/a	n/a	n/a	n/a	n/a	n/a	n/a	n/a	n/a	n/a	n/a	n/a
738.768	n/a	PROB	369384	n/a	LTP210	ltpFR	8	n/a	n/a	n/a	n/a	n/a	n/a	10	1	6	3	n/a	n/a	n/a	n/a	n/a
740.516	n/a	PROB	370258	n/a	LTP210	ltpFR	8	n/a	n/a	n/a	n/a	n/a	n/a	19	6	5	8	n/a	n/a	n/a	n/a	n/a
742.828	n/a	PROB	371414	n/a	LTP210	ltpFR	8	n/a	n/a	n/a	n/a	n/a	n/a	20	9	7	4	n/a	n/a	n/a	n/a	n/a
745.162	n/a	STOP	372581	n/a	LTP210	ltpFR	8	n/a	n/a	n/a	n/a	n/a	n/a	n/a	n/a	n/a	n/a	n/a	n/a	n/a	n/a	n/a
747.59	n/a	REC_START	373795	n/a	LTP210	ltpFR	8	2	n/a	n/a	n/a	n/a	n/a	n/a	0	0	0	n/a	n/a	n/a	n/a	n/a
749.15	n/a	REC_WORD	374575	wordpools/wasnorm_wordpool_less_exclusions.txt	LTP210	ltpFR	8	2	1	PLUM	1090	n/a	1	n/a	0	0	0	n/a	n/a	n/a	n/a	n/a
750.498	n/a	REC_WORD	375249	wordpools/wasnorm_wordpool_less_exclusions.txt	LTP210	ltpFR	8	2	1	ALMOND	18	n/a	1	n/a	0	0	0	n/a	n/a	n/a	n/a	n/a
751.844	n/a	REC_WORD	375922	wordpools/wasnorm_wordpool_less_exclusions.txt	LTP210	ltpFR	8	2	1	BERRY	122	n/a	1	n/a	0	0	0	n/a	n/a	n/a	n/a	n/a
818.948	n/a	REC_WORD	409474	wordpools/wasnorm_wordpool_less_exclusions.txt	LTP210	ltpFR	8	2	1	UNICORN	1538	n/a	1	n/a	0	0	0	n/a	n/a	n/a	n/a	n/a
833.146	n/a	WORD	416573	wordpools/wasnorm_wordpool_less_exclusions.txt	LTP210	ltpFR	8	3	0	VAULT	1550	n/a	1	n/a	0	0	0	0	0.5869140625	0.422607421875	upper	../fonts/amplitud.ttf
837.188	n/a	WORD	418594	wordpools/wasnorm_wordpool_less_exclusions.txt	LTP210	ltpFR	8	3	0	AUTOMOBILE	62	n/a	1	n/a	0	0	0	0	0.5869140625	0.422607421875	upper	../fonts/amplitud.ttf
841.4	n/a	WORD	420700	wordpools/wasnorm_wordpool_less_exclusions.txt	LTP210	ltpFR	8	3	0	ISLAND	745	n/a	1	n/a	0	0	0	0	0.5869140625	0.422607421875	upper	../fonts/amplitud.ttf
845.31	n/a	WORD	422655	wordpools/wasnorm_wordpool_less_exclusions.txt	LTP210	ltpFR	8	3	0	SUIT	1402	n/a	1	n/a	0	0	0	0	0.5869140625	0.422607421875	upper	../fonts/amplitud.ttf
849.52	n/a	WORD	424760	wordpools/wasnorm_wordpool_less_exclusions.txt	LTP210	ltpFR	8	3	0	POLYESTER	1100	n/a	0	n/a	0	0	0	0	0.5869140625	0.422607421875	upper	../fonts/amplitud.ttf
853.498	n/a	WORD	426749	wordpools/wasnorm_wordpool_less_exclusions.txt	LTP210	ltpFR	8	3	0	NEWSPAPER	948	n/a	0	n/a	0	0	0	0	0.5869140625	0.422607421875	upper	../fonts/amplitud.ttf
857.676	n/a	WORD	428838	wordpools/wasnorm_wordpool_less_exclusions.txt	LTP210	ltpFR	8	3	0	MOB	904	n/a	1	n/a	0	0	0	0	0.5869140625	0.422607421875	upper	../fonts/amplitud.ttf
861.752	n/a	WORD	430876	wordpools/wasnorm_wordpool_less_exclusions.txt	LTP210	ltpFR	8	3	0	FEAST	556	n/a	1	n/a	0	0	0	0	0.5869140625	0.422607421875	upper	../fonts/amplitud.ttf
865.93	n/a	WORD	432965	wordpools/wasnorm_wordpool_less_exclusions.txt	LTP210	ltpFR	8	3	0	BOOK	149	n/a	0	n/a	0	0	0	0	0.5869140625	0.422607421875	upper	../fonts/amplitud.ttf
869.924	n/a	WORD	434962	wordpools/wasnorm_wordpool_less_exclusions.txt	LTP210	ltpFR	8	3	0	STREAM	1392	n/a	0	n/a	0	0	0	0	0.5869140625	0.422607421875	upper	../fonts/amplitud.ttf
873.85	n/a	WORD	436925	wordpools/wasnorm_wordpool_less_exclusions.txt	LTP210	ltpFR	8	3	0	TRAY	1498	n/a	0	n/a	0	0	0	0	0.5869140625	0.422607421875	upper	../fonts/amplitud.ttf
877.812	n/a	WORD	438906	wordpools/wasnorm_wordpool_less_exclusions.txt	LTP210	ltpFR	8	3	0	BOXER	160	n/a	0	n/a	0	0	0	0	0.5869140625	0.422607421875	upper	../fonts/amplitud.ttf
881.772	n/a	WORD	440886	wordpools/wasnorm_wordpool_less_exclusions.txt	LTP210	ltpFR	8	3	0	BELL	118	n/a	0	n/a	0	0	0	0	0.5869140625	0.422607421875	upper	../fonts/amplitud.ttf
885.75	n/a	WORD	442875	wordpools/wasnorm_wordpool_less_exclusions.txt	LTP210	ltpFR	8	3	0	COMMANDER	354	n/a	1	n/a	0	0	0	0	0.5869140625	0.422607421875	upper	../fonts/amplitud.ttf
889.894	n/a	WORD	444947	wordpools/wasnorm_wordpool_less_exclusions.txt	LTP210	ltpFR	8	3	0	FIG	563	n/a	0	n/a	0	0	0	0	0.5869140625	0.422607421875	upper	../fonts/amplitud.ttf
893.804	n/a	WORD	446902	wordpools/wasnorm_wordpool_less_exclusions.txt	LTP210	ltpFR	8	3	0	FOREST	593	n/a	1	n/a	0	0	0	0	0.5869140625	0.422607421875	upper	../fonts/amplitud.ttf
896.816	n/a	START	448408	n/a	LTP210	ltpFR	8	n/a	n/a	n/a	n/a	n/a	n/a	n/a	n/a	n/a	n/a	n/a	n/a	n/a	n/a	n/a
897.966	n/a	PROB	448983	n/a	LTP210	ltpFR	8	n/a	n/a	n/a	n/a	n/a	n/a	16	9	1	6	n/a	n/a	n/a	n/a	n/a
899.896	n/a	PROB	449948	n/a	LTP210	ltpFR	8	n/a	n/a	n/a	n/a	n/a	n/a	12	1	6	5	n/a	n/a	n/a	n/a	n/a
901.328	n/a	PROB	450664	n/a	LTP210	ltpFR	8	n/a	n/a	n/a	n/a	n/a	n/a	9	1	6	2	n/a	n/a	n/a	n/a	n/a
903.224	n/a	PROB	451612	n/a	LTP210	ltpFR	8	n/a	n/a	n/a	n/a	n/a	n/a	9	5	3	1	n/a	n/a	n/a	n/a	n/a
904.58	n/a	STOP	452290	n/a	LTP210	ltpFR	8	n/a	n/a	n/a	n/a	n/a	n/a	n/a	n/a	n/a	n/a	n/a	n/a	n/a	n/a	n/a
906.57	n/a	REC_START	453285	n/a	LTP210	ltpFR	8	3	n/a	n/a	n/a	n/a	n/a	n/a	0	0	0	n/a	n/a	n/a	n/a	n/a
909.19	n/a	REC_WORD	454595	wordpools/wasnorm_wordpool_less_exclusions.txt	LTP210	ltpFR	8	3	0	VAULT	1550	n/a	1	n/a	0	0	0	n/a	n/a	n/a	n/a	n/a
910.836	n/a	REC_WORD	455418	wordpools/wasnorm_wordpool_less_exclusions.txt	LTP210	ltpFR	8	3	0	POLYESTER	1100	n/a	0	n/a	0	0	0	n/a	n/a	n/a	n/a	n/a
912.516	n/a	REC_WORD	456258	wordpools/wasnorm_wordpool_less_exclusions.txt	LTP210	ltpFR	8	3	0	SUIT	1402	n/a	1	n/a	0	0	0	n/a	n/a	n/a	n/a	n/a
914.034	n/a	REC_WORD	457017	wordpools/wasnorm_wordpool_less_exclusions.txt	LTP210	ltpFR	8	3	0	BOOK	149	n/a	0	n/a	0	0	0	n/a	n/a	n/a	n/a	n/a
915.256	n/a	REC_WORD	457628	wordpools/wasnorm_wordpool_less_exclusions.txt	LTP210	ltpFR	8	3	0	NEWSPAPER	948	n/a	0	n/a	0	0	0	n/a	n/a	n/a	n/a	n/a
916.612	n/a	REC_WORD	458306	wordpools/wasnorm_wordpool_less_exclusions.txt	LTP210	ltpFR	8	3	0	FIG	563	n/a	0	n/a	0	0	0	n/a	n/a	n/a	n/a	n/a
917.94	n/a	REC_WORD	458970	wordpools/wasnorm_wordpool_less_exclusions.txt	LTP210	ltpFR	8	3	0	STREAM	1392	n/a	0	n/a	0	0	0	n/a	n/a	n/a	n/a	n/a
921.746	n/a	REC_WORD	460873	wordpools/wasnorm_wordpool_less_exclusions.txt	LTP210	ltpFR	8	3	0	COMMANDER	354	n/a	1	n/a	0	0	0	n/a	n/a	n/a	n/a	n/a
925.528	n/a	REC_WORD	462764	wordpools/wasnorm_wordpool_less_exclusions.txt	LTP210	ltpFR	8	3	0	BOXER	160	n/a	0	n/a	0	0	0	n/a	n/a	n/a	n/a	n/a
1002.61	n/a	WORD	501305	wordpools/wasnorm_wordpool_less_exclusions.txt	LTP210	ltpFR	8	4	0	DART	440	n/a	0	n/a	0	0	0	0	0.5869140625	0.422607421875	upper	../fonts/amplitud.ttf
1006.488	n/a	WORD	503244	wordpools/wasnorm_wordpool_less_exclusions.txt	LTP210	ltpFR	8	4	0	HAYSTACK	694	n/a	1	n/a	0	0	0	0	0.5869140625	0.422607421875	upper	../fonts/amplitud.ttf
1010.516	n/a	WORD	505258	wordpools/wasnorm_wordpool_less_exclusions.txt	LTP210	ltpFR	8	4	0	ELF	525	n/a	1	n/a	0	0	0	0	0.5869140625	0.422607421875	upper	../fonts/amplitud.ttf
1014.378	n/a	WORD	507189	wordpools/wasnorm_wordpool_less_exclusions.txt	LTP210	ltpFR	8	4	1	CEILING	265	n/a	0	n/a	0	0	0	1	0.412841796875	0.57763671875	lower	../fonts/zerothre.ttf
1018.472	n/a	WORD	509236	wordpools/wasnorm_wordpool_less_exclusions.txt	LTP210	ltpFR	8	4	1	TWEEZERS	1526	n/a	0	n/a	0	0	0	1	0.412841796875	0.57763671875	lower	../fonts/zerothre.ttf
1022.632	n/a	WORD	511316	wordpools/wasnorm_wordpool_less_exclusions.txt	LTP210	ltpFR	8	4	1	DIAMOND	458	n/a	0	n/a	0	0	0	1	0.412841796875	0.57763671875	lower	../fonts/zerothre.ttf
1026.66	n/a	WORD	513330	wordpools/wasnorm_wordpool_less_exclusions.txt	LTP210	ltpFR	8	4	1	DESK	452	n/a	0	n/a	0	0	0	1	0.412841796875	0.57763671875	lower	../fonts/zerothre.ttf
1030.536	n/a	WORD	515268	wordpools/wasnorm_wordpool_less_exclusions.txt	LTP210	ltpFR	8	4	0	SOFA	1342	n/a	1	n/a	0	0	0	0	0.5869140625	0.422607421875	upper	../fonts/amplitud.ttf
1034.63	n/a	WORD	517315	wordpools/wasnorm_wordpool_less_exclusions.txt	LTP210	ltpFR	8	4	0	FACE	547	n/a	0	n/a	0	0	0	0	0.5869140625	0.422607421875	upper	../fonts/amplitud.ttf
1038.658	n/a	WORD	519329	wordpools/wasnorm_wordpool_less_exclusions.txt	LTP210	ltpFR	8	4	1	FLAG	573	n/a	0	n/a	0	0	0	1	0.412841796875	0.57763671875	lower	../fonts/zerothre.ttf
1042.718	n/a	WORD	521359	wordpools/wasnorm_wordpool_less_exclusions.txt	LTP210	ltpFR	8	4	1	HERO	706	n/a	1	n/a	0	0	0	1	0.412841796875	0.57763671875	lower	../fonts/zerothre.ttf
1046.646	n/a	WORD	523323	wordpools/wasnorm_wordpool_less_exclusions.txt	LTP210	ltpFR	8	4	1	GUARDIAN	668	n/a	1	n/a	0	0	0	1	0.412841796875	0.57763671875	lower	../fonts/zerothre.ttf
1050.706	n/a	WORD	525353	wordpools/wasnorm_wordpool_less_exclusions.txt	LTP210	ltpFR	8	4	1	DAUGHTER	442	n/a	1	n/a	0	0	0	1	0.412841796875	0.57763671875	lower	../fonts/zerothre.ttf
1054.618	n/a	WORD	527309	wordpools/wasnorm_wordpool_less_exclusions.txt	LTP210	ltpFR	8	4	0	HOSE	720	n/a	1	n/a	0	0	0	0	0.5869140625	0.422607421875	upper	../fonts/amplitud.ttf
1058.76	n/a	WORD	529380	wordpools/wasnorm_wordpool_less_exclusions.txt	LTP210	ltpFR	8	4	0	BUILDER	190	n/a	1	n/a	0	0	0	0	0.5869140625	0.422607421875	upper	../fonts/amplitud.ttf
1062.972	n/a	WORD	531486	wordpools/wasnorm_wordpool_less_exclusions.txt	LTP210	ltpFR	8	4	0	SAPPHIRE	1234	n/a	0	n/a	0	0	0	0	0.5869140625	0.422607421875	upper	../fonts/amplitud.ttf
1065.984	n/a	START	532992	n/a	LTP210	ltpFR	8	n/a	n/a	n/a	n/a	n/a	n/a	n/a	n/a	n/a	n/a	n/a	n/a	n/a	n/a	n/a
1066.832	n/a	PROB	533416	n/a	LTP210	ltpFR	8	n/a	n/a	n/a	n/a	n/a	n/a	19	3	9	7	n/a	n/a	n/a	n/a	n/a
1069.062	n/a	PROB	534531	n/a	LTP210	ltpFR	8	n/a	n/a	n/a	n/a	n/a	n/a	21	9	4	8	n/a	n/a	n/a	n/a	n/a
1072.024	n/a	PROB	536012	n/a	LTP210	ltpFR	8	n/a	n/a	n/a	n/a	n/a	n/a	5	3	1	1	n/a	n/a	n/a	n/a	n/a
1073.14	n/a	PROB	536570	n/a	LTP210	ltpFR	8	n/a	n/a	n/a	n/a	n/a	n/a	26	9	9	8	n/a	n/a	n/a	n/a	n/a
1075.22	n/a	PROB	537610	n/a	LTP210	ltpFR	8	n/a	n/a	n/a	n/a	n/a	n/a	19	5	8	6	n/a	n/a	n/a	n/a	n/a
1077.184	n/a	PROB	538592	n/a	LTP210	ltpFR	8	n/a	n/a	n/a	n/a	n/a	n/a	13	6	1	6	n/a	n/a	n/a	n/a	n/a
1078.482	n/a	PROB	539241	n/a	LTP210	ltpFR	8	n/a	n/a	n/a	n/a	n/a	n/a	20	8	4	8	n/a	n/a	n/a	n/a	n/a
1079.996	n/a	PROB	539998	n/a	LTP210	ltpFR	8	n/a	n/a	n/a	n/a	n/a	n/a	15	5	2	8	n/a	n/a	n/a	n/a	n/a
1081.87	n/a	STOP	540935	n/a	LTP210	ltpFR	8	n/a	n/a	n/a	n/a	n/a	n/a	n/a	n/a	n/a	n/a	n/a	n/a	n/a	n/a	n/a
1083.824	n/a	REC_START	541912	n/a	LTP210	ltpFR	8	4	n/a	n/a	n/a	n/a	n/a	n/a	0	0	0	n/a	n/a	n/a	n/a	n/a
1085.102	n/a	REC_WORD	542551	wordpools/wasnorm_wordpool_less_exclusions.txt	LTP210	ltpFR	8	4	0	BUILDER	190	n/a	1	n/a	0	0	0	n/a	n/a	n/a	n/a	n/a
1086.588	n/a	REC_WORD	543294	wordpools/wasnorm_wordpool_less_exclusions.txt	LTP210	ltpFR	8	4	1	DAUGHTER	442	n/a	1	n/a	0	0	0	n/a	n/a	n/a	n/a	n/a
1087.896	n/a	REC_WORD	543948	wordpools/wasnorm_wordpool_less_exclusions.txt	LTP210	ltpFR	8	4	1	HERO	706	n/a	1	n/a	0	0	0	n/a	n/a	n/a	n/a	n/a
1249.314	n/a	START	624657	n/a	LTP210	ltpFR	8	n/a	n/a	n/a	n/a	n/a	n/a	n/a	n/a	n/a	n/a	n/a	n/a	n/a	n/a	n/a
1250.826	n/a	PROB	625413	n/a	LTP210	ltpFR	8	n/a	n/a	n/a	n/a	n/a	n/a	16	8	7	1	n/a	n/a	n/a	n/a	n/a
1252.592	n/a	PROB	626296	n/a	LTP210	ltpFR	8	n/a	n/a	n/a	n/a	n/a	n/a	13	5	2	6	n/a	n/a	n/a	n/a	n/a
1254.736	n/a	PROB	627368	n/a	LTP210	ltpFR	8	n/a	n/a	n/a	n/a	n/a	n/a	15	3	8	4	n/a	n/a	n/a	n/a	n/a
1256.376	n/a	STOP	628188	n/a	LTP210	ltpFR	8	n/a	n/a	n/a	n/a	n/a	n/a	n/a	n/a	n/a	n/a	n/a	n/a	n/a	n/a	n/a
1258.132	n/a	WORD	629066	wordpools/wasnorm_wordpool_less_exclusions.txt	LTP210	ltpFR	8	5	0	MILITARY	894	n/a	1	n/a	0	0	0	0	0.5869140625	0.422607421875	upper	../fonts/amplitud.ttf
1261.146	n/a	START	630573	n/a	LTP210	ltpFR	8	n/a	n/a	n/a	n/a	n/a	n/a	n/a	n/a	n/a	n/a	n/a	n/a	n/a	n/a	n/a
1262.276	n/a	PROB	631138	n/a	LTP210	ltpFR	8	n/a	n/a	n/a	n/a	n/a	n/a	12	6	4	2	n/a	n/a	n/a	n/a	n/a
1263.94	n/a	PROB	631970	n/a	LTP210	ltpFR	8	n/a	n/a	n/a	n/a	n/a	n/a	16	2	7	7	n/a	n/a	n/a	n/a	n/a
1269.146	n/a	STOP	634573	n/a	LTP210	ltpFR	8	n/a	n/a	n/a	n/a	n/a	n/a	n/a	n/a	n/a	n/a	n/a	n/a	n/a	n/a	n/a
1270.082	n/a	WORD	635041	wordpools/wasnorm_wordpool_less_exclusions.txt	LTP210	ltpFR	8	5	0	CARROT	249	n/a	0	n/a	0	0	0	0	0.5869140625	0.422607421875	upper	../fonts/amplitud.ttf
1273.094	n/a	START	636547	n/a	LTP210	ltpFR	8	n/a	n/a	n/a	n/a	n/a	n/a	n/a	n/a	n/a	n/a	n/a	n/a	n/a	n/a	n/a
1274.276	n/a	PROB	637138	n/a	LTP210	ltpFR	8	n/a	n/a	n/a	n/a	n/a	n/a	18	8	1	9	n/a	n/a	n/a	n/a	n/a
1275.872	n/a	PROB	637936	n/a	LTP210	ltpFR	8	n/a	n/a	n/a	n/a	n/a	n/a	11	4	5	2	n/a	n/a	n/a	n/a	n/a
1277.954	n/a	PROB	638977	n/a	LTP210	ltpFR	8	n/a	n/a	n/a	n/a	n/a	n/a	17	9	5	3	n/a	n/a	n/a	n/a	n/a
1280.578	n/a	STOP	640289	n/a	LTP210	ltpFR	8	n/a	n/a	n/a	n/a	n/a	n/a	n/a	n/a	n/a	n/a	n/a	n/a	n/a	n/a	n/a
1282.048	n/a	WORD	641024	wordpools/wasnorm_wordpool_less_exclusions.txt	LTP210	ltpFR	8	5	0	SPICE	1350	n/a	0	n/a	0	0	0	0	0.5869140625	0.422607421875	upper	../fonts/amplitud.ttf
1285.06	n/a	START	642530	n/a	LTP210	ltpFR	8	n/a	n/a	n/a	n/a	n/a	n/a	n/a	n/a	n/a	n/a	n/a	n/a	n/a	n/a	n/a
1285.992	n/a	PROB	642996	n/a	LTP210	ltpFR	8	n/a	n/a	n/a	n/a	n/a	n/a	16	6	6	5	n/a	n/a	n/a	n/a	n/a
1287.572	n/a	PROB	643786	n/a	LTP210	ltpFR	8	n/a	n/a	n/a	n/a	n/a	n/a	26	9	9	8	n/a	n/a	n/a	n/a	n/a
1291.634	n/a	STOP	645817	n/a	LTP210	ltpFR	8	n/a	n/a	n/a	n/a	n/a	n/a	n/a	n/a	n/a	n/a	n/a	n/a	n/a	n/a	n/a
1294.096	n/a	WORD	647048	wordpools/wasnorm_wordpool_less_exclusions.txt	LTP210	ltpFR	8	5	0	CANNON	232	n/a	1	n/a	0	0	0	0	0.5869140625	0.422607421875	upper	../fonts/amplitud.ttf
1297.108	n/a	START	648554	n/a	LTP210	ltpFR	8	n/a	n/a	n/a	n/a	n/a	n/a	n/a	n/a	n/a	n/a	n/a	n/a	n/a	n/a	n/a
1297.99	n/a	PROB	648995	n/a	LTP210	ltpFR	8	n/a	n/a	n/a	n/a	n/a	n/a	20	8	5	7	n/a	n/a	n/a	n/a	n/a
1300.454	n/a	PROB	650227	n/a	LTP210	ltpFR	8	n/a	n/a	n/a	n/a	n/a	n/a	11	8	2	1	n/a	n/a	n/a	n/a	n/a
1305.11	n/a	STOP	652555	n/a	LTP210	ltpFR	8	n/a	n/a	n/a	n/a	n/a	n/a	n/a	n/a	n/a	n/a	n/a	n/a	n/a	n/a	n/a
1306.312	n/a	WORD	653156	wordpools/wasnorm_wordpool_less_exclusions.txt	LTP210	ltpFR	8	5	0	SAILOR	1223	n/a	1	n/a	0	0	0	0	0.5869140625	0.422607421875	upper	../fonts/amplitud.ttf
1309.324	n/a	START	654662	n/a	LTP210	ltpFR	8	n/a	n/a	n/a	n/a	n/a	n/a	n/a	n/a	n/a	n/a	n/a	n/a	n/a	n/a	n/a
1310.406	n/a	PROB	655203	n/a	LTP210	ltpFR	8	n/a	n/a	n/a	n/a	n/a	n/a	18	7	2	9	n/a	n/a	n/a	n/a	n/a
1312.768	n/a	PROB	656384	n/a	LTP210	ltpFR	8	n/a	n/a	n/a	n/a	n/a	n/a	18	6	7	5	n/a	n/a	n/a	n/a	n/a
1315.482	n/a	PROB	657741	n/a	LTP210	ltpFR	8	n/a	n/a	n/a	n/a	n/a	n/a	12	3	7	2	n/a	n/a	n/a	n/a	n/a
1316.914	n/a	STOP	658457	n/a	LTP210	ltpFR	8	n/a	n/a	n/a	n/a	n/a	n/a	n/a	n/a	n/a	n/a	n/a	n/a	n/a	n/a	n/a
1318.294	n/a	WORD	659147	wordpools/wasnorm_wordpool_less_exclusions.txt	LTP210	ltpFR	8	5	0	CREW	406	n/a	1	n/a	0	0	0	0	0.5869140625	0.422607421875	upper	../fonts/amplitud.ttf
1321.306	n/a	START	660653	n/a	LTP210	ltpFR	8	n/a	n/a	n/a	n/a	n/a	n/a	n/a	n/a	n/a	n/a	n/a	n/a	n/a	n/a	n/a
1322.388	n/a	PROB	661194	n/a	LTP210	ltpFR	8	n/a	n/a	n/a	n/a	n/a	n/a	17	5	5	7	n/a	n/a	n/a	n/a	n/a
1325.35	n/a	PROB	662675	n/a	LTP210	ltpFR	8	n/a	n/a	n/a	n/a	n/a	n/a	10	3	3	4	n/a	n/a	n/a	n/a	n/a
1327.496	n/a	PROB	663748	n/a	LTP210	ltpFR	8	n/a	n/a	n/a	n/a	n/a	n/a	21	8	8	5	n/a	n/a	n/a	n/a	n/a
1329.258	n/a	STOP	664629	n/a	LTP210	ltpFR	8	n/a	n/a	n/a	n/a	n/a	n/a	n/a	n/a	n/a	n/a	n/a	n/a	n/a	n/a	n/a
1330.276	n/a	WORD	665138	wordpools/wasnorm_wordpool_less_exclusions.txt	LTP210	ltpFR	8	5	0	PRAIRIE	1118	n/a	1	n/a	0	0	0	0	0.5869140625	0.422607421875	upper	../fonts/amplitud.ttf
1333.288	n/a	START	666644	n/a	LTP210	ltpFR	8	n/a	n/a	n/a	n/a	n/a	n/a	n/a	n/a	n/a	n/a	n/a	n/a	n/a	n/a	n/a
1334.454	n/a	PROB	667227	n/a	LTP210	ltpFR	8	n/a	n/a	n/a	n/a	n/a	n/a	13	4	5	4	n/a	n/a	n/a	n/a	n/a
1336.05	n/a	PROB	668025	n/a	LTP210	ltpFR	8	n/a	n/a	n/a	n/a	n/a	n/a	13	2	3	8	n/a	n/a	n/a	n/a	n/a
1337.548	n/a	PROB	668774	n/a	LTP210	ltpFR	8	n/a	n/a	n/a	n/a	n/a	n/a	11	2	2	7	n/a	n/a	n/a	n/a	n/a
1340.082	n/a	STOP	670041	n/a	LTP210	ltpFR	8	n/a	n/a	n/a	n/a	n/a	n/a	n/a	n/a	n/a	n/a	n/a	n/a	n/a	n/a	n/a
1342.508	n/a	WORD	671254	wordpools/wasnorm_wordpool_less_exclusions.txt	LTP210	ltpFR	8	5	0	PLASTER	1085	n/a	0	n/a	0	0	0	0	0.5869140625	0.422607421875	upper	../fonts/amplitud.ttf
1345.52	n/a	START	672760	n/a	LTP210	ltpFR	8	n/a	n/a	n/a	n/a	n/a	n/a	n/a	n/a	n/a	n/a	n/a	n/a	n/a	n/a	n/a
1346.486	n/a	PROB	673243	n/a	LTP210	ltpFR	8	n/a	n/a	n/a	n/a	n/a	n/a	15	3	9	3	n/a	n/a	n/a	n/a	n/a
1349.214	n/a	PROB	674607	n/a	LTP210	ltpFR	8	n/a	n/a	n/a	n/a	n/a	n/a	12	2	4	6	n/a	n/a	n/a	n/a	n/a
1351.078	n/a	PROB	675539	n/a	LTP210	ltpFR	8	n/a	n/a	n/a	n/a	n/a	n/a	18	3	8	7	n/a	n/a	n/a	n/a	n/a
1353.018	n/a	STOP	676509	n/a	LTP210	ltpFR	8	n/a	n/a	n/a	n/a	n/a	n/a	n/a	n/a	n/a	n/a	n/a	n/a	n/a	n/a	n/a
1354.524	n/a	WORD	677262	wordpools/wasnorm_wordpool_less_exclusions.txt	LTP210	ltpFR	8	5	0	GARLIC	624	n/a	0	n/a	0	0	0	0	0.5869140625	0.422607421875	upper	../fonts/amplitud.ttf
1357.536	n/a	START	678768	n/a	LTP210	ltpFR	8	n/a	n/a	n/a	n/a	n/a	n/a	n/a	n/a	n/a	n/a	n/a	n/a	n/a	n/a	n/a
1358.6	n/a	PROB	679300	n/a	LTP210	ltpFR	8	n/a	n/a	n/a	n/a	n/a	n/a	23	8	7	7	n/a	n/a	n/a	n/a	n/a
1360.63	n/a	PROB	680315	n/a	LTP210	ltpFR	8	n/a	n/a	n/a	n/a	n/a	n/a	21	7	7	8	n/a	n/a	n/a	n/a	n/a
1363.044	n/a	PROB	681522	n/a	LTP210	ltpFR	8	n/a	n/a	n/a	n/a	n/a	n/a	27	9	9	9	n/a	n/a	n/a	n/a	n/a
1364.73	n/a	STOP	682365	n/a	LTP210	ltpFR	8	n/a	n/a	n/a	n/a	n/a	n/a	n/a	n/a	n/a	n/a	n/a	n/a	n/a	n/a	n/a
1366.672	n/a	WORD	683336	wordpools/wasnorm_wordpool_less_exclusions.txt	LTP210	ltpFR	8	5	0	MARKER	870	n/a	0	n/a	0	0	0	0	0.5869140625	0.422607421875	upper	../fonts/amplitud.ttf
1369.684	n/a	START	684842	n/a	LTP210	ltpFR	8	n/a	n/a	n/a	n/a	n/a	n/a	n/a	n/a	n/a	n/a	n/a	n/a	n/a	n/a	n/a
1370.516	n/a	PROB	685258	n/a	LTP210	ltpFR	8	n/a	n/a	n/a	n/a	n/a	n/a	18	7	8	3	n/a	n/a	n/a	n/a	n/a
1372.43	n/a	PROB	686215	n/a	LTP210	ltpFR	8	n/a	n/a	n/a	n/a	n/a	n/a	15	4	2	9	n/a	n/a	n/a	n/a	n/a
1374.312	n/a	PROB	687156	n/a	LTP210	ltpFR	8	n/a	n/a	n/a	n/a	n/a	n/a	17	6	4	7	n/a	n/a	n/a	n/a	n/a
1377.686	n/a	STOP	688843	n/a	LTP210	ltpFR	8	n/a	n/a	n/a	n/a	n/a	n/a	n/a	n/a	n/a	n/a	n/a	n/a	n/a	n/a	n/a
1378.604	n/a	WORD	689302	wordpools/wasnorm_wordpool_less_exclusions.txt	LTP210	ltpFR	8	5	0	ZUCCHINI	1638	n/a	0	n/a	0	0	0	0	0.5869140625	0.422607421875	upper	../fonts/amplitud.ttf
1381.618	n/a	START	690809	n/a	LTP210	ltpFR	8	n/a	n/a	n/a	n/a	n/a	n/a	n/a	n/a	n/a	n/a	n/a	n/a	n/a	n/a	n/a
1382.432	n/a	PROB	691216	n/a	LTP210	ltpFR	8	n/a	n/a	n/a	n/a	n/a	n/a	9	1	6	2	n/a	n/a	n/a	n/a	n/a
1384.08	n/a	PROB	692040	n/a	LTP210	ltpFR	8	n/a	n/a	n/a	n/a	n/a	n/a	11	4	5	2	n/a	n/a	n/a	n/a	n/a
1385.694	n/a	PROB	692847	n/a	LTP210	ltpFR	8	n/a	n/a	n/a	n/a	n/a	n/a	19	7	7	5	n/a	n/a	n/a	n/a	n/a
1387.426	n/a	PROB	693713	n/a	LTP210	ltpFR	8	n/a	n/a	n/a	n/a	n/a	n/a	21	7	9	5	n/a	n/a	n/a	n/a	n/a
1389.156	n/a	STOP	694578	n/a	LTP210	ltpFR	8	n/a	n/a	n/a	n/a	n/a	n/a	n/a	n/a	n/a	n/a	n/a	n/a	n/a	n/a	n/a
1390.638	n/a	WORD	695319	wordpools/wasnorm_wordpool_less_exclusions.txt	LTP210	ltpFR	8	5	0	BUS	201	n/a	1	n/a	0	0	0	0	0.5869140625	0.422607421875	upper	../fonts/amplitud.ttf
1393.65	n/a	START	696825	n/a	LTP210	ltpFR	8	n/a	n/a	n/a	n/a	n/a	n/a	n/a	n/a	n/a	n/a	n/a	n/a	n/a	n/a	n/a
1394.664	n/a	PROB	697332	n/a	LTP210	ltpFR	8	n/a	n/a	n/a	n/a	n/a	n/a	17	8	3	6	n/a	n/a	n/a	n/a	n/a
1396.81	n/a	PROB	698405	n/a	LTP210	ltpFR	8	n/a	n/a	n/a	n/a	n/a	n/a	11	6	2	3	n/a	n/a	n/a	n/a	n/a
1400.1	n/a	STOP	700050	n/a	LTP210	ltpFR	8	n/a	n/a	n/a	n/a	n/a	n/a	n/a	n/a	n/a	n/a	n/a	n/a	n/a	n/a	n/a
1402.57	n/a	WORD	701285	wordpools/wasnorm_wordpool_less_exclusions.txt	LTP210	ltpFR	8	5	0	SALESMAN	1225	n/a	1	n/a	0	0	0	0	0.5869140625	0.422607421875	upper	../fonts/amplitud.ttf
1405.582	n/a	START	702791	n/a	LTP210	ltpFR	8	n/a	n/a	n/a	n/a	n/a	n/a	n/a	n/a	n/a	n/a	n/a	n/a	n/a	n/a	n/a
1406.746	n/a	PROB	703373	n/a	LTP210	ltpFR	8	n/a	n/a	n/a	n/a	n/a	n/a	9	2	2	5	n/a	n/a	n/a	n/a	n/a
1408.294	n/a	PROB	704147	n/a	LTP210	ltpFR	8	n/a	n/a	n/a	n/a	n/a	n/a	14	3	5	6	n/a	n/a	n/a	n/a	n/a
1410.39	n/a	PROB	705195	n/a	LTP210	ltpFR	8	n/a	n/a	n/a	n/a	n/a	n/a	6	2	1	3	n/a	n/a	n/a	n/a	n/a
1412.914	n/a	STOP	706457	n/a	LTP210	ltpFR	8	n/a	n/a	n/a	n/a	n/a	n/a	n/a	n/a	n/a	n/a	n/a	n/a	n/a	n/a	n/a
1414.784	n/a	WORD	707392	wordpools/wasnorm_wordpool_less_exclusions.txt	LTP210	ltpFR	8	5	0	BLUEPRINT	142	n/a	1	n/a	0	0	0	0	0.5869140625	0.422607421875	upper	../fonts/amplitud.ttf
1417.796	n/a	START	708898	n/a	LTP210	ltpFR	8	n/a	n/a	n/a	n/a	n/a	n/a	n/a	n/a	n/a	n/a	n/a	n/a	n/a	n/a	n/a
1418.794	n/a	PROB	709397	n/a	LTP210	ltpFR	8	n/a	n/a	n/a	n/a	n/a	n/a	11	1	3	7	n/a	n/a	n/a	n/a	n/a
1419.926	n/a	PROB	709963	n/a	LTP210	ltpFR	8	n/a	n/a	n/a	n/a	n/a	n/a	13	3	8	2	n/a	n/a	n/a	n/a	n/a
1421.308	n/a	PROB	710654	n/a	LTP210	ltpFR	8	n/a	n/a	n/a	n/a	n/a	n/a	21	8	4	9	n/a	n/a	n/a	n/a	n/a
1424.62	n/a	STOP	712310	n/a	LTP210	ltpFR	8	n/a	n/a	n/a	n/a	n/a	n/a	n/a	n/a	n/a	n/a	n/a	n/a	n/a	n/a	n/a
1426.916	n/a	WORD	713458	wordpools/wasnorm_wordpool_less_exclusions.txt	LTP210	ltpFR	8	5	0	AWARD	63	n/a	0	n/a	0	0	0	0	0.5869140625	0.422607421875	upper	../fonts/amplitud.ttf
1429.928	n/a	START	714964	n/a	LTP210	ltpFR	8	n/a	n/a	n/a	n/a	n/a	n/a	n/a	n/a	n/a	n/a	n/a	n/a	n/a	n/a	n/a
1430.76	n/a	PROB	715380	n/a	LTP210	ltpFR	8	n/a	n/a	n/a	n/a	n/a	n/a	19	3	7	9	n/a	n/a	n/a	n/a	n/a
1432.242	n/a	PROB	716121	n/a	LTP210	ltpFR	8	n/a	n/a	n/a	n/a	n/a	n/a	20	2	9	9	n/a	n/a	n/a	n/a	n/a
1434.138	n/a	PROB	717069	n/a	LTP210	ltpFR	8	n/a	n/a	n/a	n/a	n/a	n/a	19	8	3	8	n/a	n/a	n/a	n/a	n/a
1437.172	n/a	STOP	718586	n/a	LTP210	ltpFR	8	n/a	n/a	n/a	n/a	n/a	n/a	n/a	n/a	n/a	n/a	n/a	n/a	n/a	n/a	n/a
1438.764	n/a	WORD	719382	wordpools/wasnorm_wordpool_less_exclusions.txt	LTP210	ltpFR	8	5	0	STATUE	1374	n/a	1	n/a	0	0	0	0	0.5869140625	0.422607421875	upper	../fonts/amplitud.ttf
1441.776	n/a	START	720888	n/a	LTP210	ltpFR	8	n/a	n/a	n/a	n/a	n/a	n/a	n/a	n/a	n/a	n/a	n/a	n/a	n/a	n/a	n/a
1442.924	n/a	PROB	721462	n/a	LTP210	ltpFR	8	n/a	n/a	n/a	n/a	n/a	n/a	25	9	9	7	n/a	n/a	n/a	n/a	n/a
1449.778	n/a	STOP	724889	n/a	LTP210	ltpFR	8	n/a	n/a	n/a	n/a	n/a	n/a	n/a	n/a	n/a	n/a	n/a	n/a	n/a	n/a	n/a
1451.58	n/a	REC_START	725790	n/a	LTP210	ltpFR	8	5	n/a	n/a	n/a	n/a	n/a	n/a	0	0	0	n/a	n/a	n/a	n/a	n/a
1452.602	n/a	REC_WORD	726301	wordpools/wasnorm_wordpool_less_exclusions.txt	LTP210	ltpFR	8	5	0	ZUCCHINI	1638	n/a	0	n/a	0	0	0	n/a	n/a	n/a	n/a	n/a
1454.074	n/a	REC_WORD	727037	wordpools/wasnorm_wordpool_less_exclusions.txt	LTP210	ltpFR	8	5	0	STATUE	1374	n/a	1	n/a	0	0	0	n/a	n/a	n/a	n/a	n/a
1455.67	n/a	REC_WORD	727835	wordpools/wasnorm_wordpool_less_exclusions.txt	LTP210	ltpFR	8	5	0	AWARD	63	n/a	0	n/a	0	0	0	n/a	n/a	n/a	n/a	n/a
1469.654	n/a	REC_WORD	734827	wordpools/wasnorm_wordpool_less_exclusions.txt	LTP210	ltpFR	8	5	0	MILITARY	894	n/a	1	n/a	0	0	0	n/a	n/a	n/a	n/a	n/a
1471.71	n/a	REC_WORD	735855	wordpools/wasnorm_wordpool_less_exclusions.txt	LTP210	ltpFR	8	5	0	PRAIRIE	1118	n/a	1	n/a	0	0	0	n/a	n/a	n/a	n/a	n/a
1483.408	n/a	REC_WORD	741704	wordpools/wasnorm_wordpool_less_exclusions.txt	LTP210	ltpFR	8	5	0	MARKER	870	n/a	0	n/a	0	0	0	n/a	n/a	n/a	n/a	n/a
1510.282	n/a	REC_WORD	755141	wordpools/wasnorm_wordpool_less_exclusions.txt	LTP210	ltpFR	8	5	0	BLUEPRINT	142	n/a	1	n/a	0	0	0	n/a	n/a	n/a	n/a	n/a
1547.022	n/a	START	773511	n/a	LTP210	ltpFR	8	n/a	n/a	n/a	n/a	n/a	n/a	n/a	n/a	n/a	n/a	n/a	n/a	n/a	n/a	n/a
1548.536	n/a	PROB	774268	n/a	LTP210	ltpFR	8	n/a	n/a	n/a	n/a	n/a	n/a	21	9	8	4	n/a	n/a	n/a	n/a	n/a
1552.232	n/a	PROB	776116	n/a	LTP210	ltpFR	8	n/a	n/a	n/a	n/a	n/a	n/a	18	1	9	8	n/a	n/a	n/a	n/a	n/a
1553.496	n/a	PROB	776748	n/a	LTP210	ltpFR	8	n/a	n/a	n/a	n/a	n/a	n/a	9	5	1	3	n/a	n/a	n/a	n/a	n/a
1554.81	n/a	PROB	777405	n/a	LTP210	ltpFR	8	n/a	n/a	n/a	n/a	n/a	n/a	13	3	5	5	n/a	n/a	n/a	n/a	n/a
1556.492	n/a	PROB	778246	n/a	LTP210	ltpFR	8	n/a	n/a	n/a	n/a	n/a	n/a	19	8	7	4	n/a	n/a	n/a	n/a	n/a
1558.804	n/a	PROB	779402	n/a	LTP210	ltpFR	8	n/a	n/a	n/a	n/a	n/a	n/a	14	3	9	2	n/a	n/a	n/a	n/a	n/a
1561.716	n/a	STOP	780858	n/a	LTP210	ltpFR	8	n/a	n/a	n/a	n/a	n/a	n/a	n/a	n/a	n/a	n/a	n/a	n/a	n/a	n/a	n/a
1563.964	n/a	WORD	781982	wordpools/wasnorm_wordpool_less_exclusions.txt	LTP210	ltpFR	8	6	0	CELLO	268	n/a	1	n/a	0	0	0	0	0.5869140625	0.422607421875	upper	../fonts/amplitud.ttf
1566.976	n/a	START	783488	n/a	LTP210	ltpFR	8	n/a	n/a	n/a	n/a	n/a	n/a	n/a	n/a	n/a	n/a	n/a	n/a	n/a	n/a	n/a
1567.94	n/a	PROB	783970	n/a	LTP210	ltpFR	8	n/a	n/a	n/a	n/a	n/a	n/a	8	1	5	2	n/a	n/a	n/a	n/a	n/a
1569.754	n/a	PROB	784877	n/a	LTP210	ltpFR	8	n/a	n/a	n/a	n/a	n/a	n/a	12	3	8	1	n/a	n/a	n/a	n/a	n/a
1572.368	n/a	PROB	786184	n/a	LTP210	ltpFR	8	n/a	n/a	n/a	n/a	n/a	n/a	16	9	1	6	n/a	n/a	n/a	n/a	n/a
1573.666	n/a	PROB	786833	n/a	LTP210	ltpFR	8	n/a	n/a	n/a	n/a	n/a	n/a	14	2	7	5	n/a	n/a	n/a	n/a	n/a
1575.446	n/a	PROB	787723	n/a	LTP210	ltpFR	8	n/a	n/a	n/a	n/a	n/a	n/a	22	6	6	8	n/a	n/a	n/a	n/a	n/a
1577.326	n/a	PROB	788663	n/a	LTP210	ltpFR	8	n/a	n/a	n/a	n/a	n/a	n/a	10	4	4	2	n/a	n/a	n/a	n/a	n/a
1579.94	n/a	PROB	789970	n/a	LTP210	ltpFR	8	n/a	n/a	n/a	n/a	n/a	n/a	16	7	2	7	n/a	n/a	n/a	n/a	n/a
1582.118	n/a	STOP	791059	n/a	LTP210	ltpFR	8	n/a	n/a	n/a	n/a	n/a	n/a	n/a	n/a	n/a	n/a	n/a	n/a	n/a	n/a	n/a
1584.184	n/a	WORD	792092	wordpools/wasnorm_wordpool_less_exclusions.txt	LTP210	ltpFR	8	6	0	MOP	916	n/a	1	n/a	0	0	0	0	0.5869140625	0.422607421875	upper	../fonts/amplitud.ttf
1587.196	n/a	START	793598	n/a	LTP210	ltpFR	8	n/a	n/a	n/a	n/a	n/a	n/a	n/a	n/a	n/a	n/a	n/a	n/a	n/a	n/a	n/a
1588.194	n/a	PROB	794097	n/a	LTP210	ltpFR	8	n/a	n/a	n/a	n/a	n/a	n/a	19	4	6	9	n/a	n/a	n/a	n/a	n/a
1589.958	n/a	PROB	794979	n/a	LTP210	ltpFR	8	n/a	n/a	n/a	n/a	n/a	n/a	13	2	9	2	n/a	n/a	n/a	n/a	n/a
1591.722	n/a	PROB	795861	n/a	LTP210	ltpFR	8	n/a	n/a	n/a	n/a	n/a	n/a	19	5	7	7	n/a	n/a	n/a	n/a	n/a
1593.786	n/a	PROB	796893	n/a	LTP210	ltpFR	8	n/a	n/a	n/a	n/a	n/a	n/a	10	2	1	7	n/a	n/a	n/a	n/a	n/a
1595.202	n/a	PROB	797601	n/a	LTP210	ltpFR	8	n/a	n/a	n/a	n/a	n/a	n/a	14	6	6	2	n/a	n/a	n/a	n/a	n/a
1596.632	n/a	PROB	798316	n/a	LTP210	ltpFR	8	n/a	n/a	n/a	n/a	n/a	n/a	10	3	4	4	n/a	n/a	n/a	n/a	n/a
1598.712	n/a	PROB	799356	n/a	LTP210	ltpFR	8	n/a	n/a	n/a	n/a	n/a	n/a	16	6	2	8	n/a	n/a	n/a	n/a	n/a
1602.846	n/a	STOP	801423	n/a	LTP210	ltpFR	8	n/a	n/a	n/a	n/a	n/a	n/a	n/a	n/a	n/a	n/a	n/a	n/a	n/a	n/a	n/a
1604.238	n/a	WORD	802119	wordpools/wasnorm_wordpool_less_exclusions.txt	LTP210	ltpFR	8	6	0	RAM	1165	n/a	1	n/a	0	0	0	0	0.5869140625	0.422607421875	upper	../fonts/amplitud.ttf
1607.25	n/a	START	803625	n/a	LTP210	ltpFR	8	n/a	n/a	n/a	n/a	n/a	n/a	n/a	n/a	n/a	n/a	n/a	n/a	n/a	n/a	n/a
1608.298	n/a	PROB	804149	n/a	LTP210	ltpFR	8	n/a	n/a	n/a	n/a	n/a	n/a	5	1	1	3	n/a	n/a	n/a	n/a	n/a
1609.562	n/a	PROB	804781	n/a	LTP210	ltpFR	8	n/a	n/a	n/a	n/a	n/a	n/a	14	5	2	7	n/a	n/a	n/a	n/a	n/a
1612.242	n/a	PROB	806121	n/a	LTP210	ltpFR	8	n/a	n/a	n/a	n/a	n/a	n/a	23	7	8	9	n/a	n/a	n/a	n/a	n/a
1614.638	n/a	PROB	807319	n/a	LTP210	ltpFR	8	n/a	n/a	n/a	n/a	n/a	n/a	18	5	8	5	n/a	n/a	n/a	n/a	n/a
1616.486	n/a	PROB	808243	n/a	LTP210	ltpFR	8	n/a	n/a	n/a	n/a	n/a	n/a	18	1	8	9	n/a	n/a	n/a	n/a	n/a
1617.968	n/a	PROB	808984	n/a	LTP210	ltpFR	8	n/a	n/a	n/a	n/a	n/a	n/a	14	1	9	4	n/a	n/a	n/a	n/a	n/a
1619.098	n/a	PROB	809549	n/a	LTP210	ltpFR	8	n/a	n/a	n/a	n/a	n/a	n/a	12	5	5	2	n/a	n/a	n/a	n/a	n/a
1620.264	n/a	PROB	810132	n/a	LTP210	ltpFR	8	n/a	n/a	n/a	n/a	n/a	n/a	15	8	1	6	n/a	n/a	n/a	n/a	n/a
1622.526	n/a	STOP	811263	n/a	LTP210	ltpFR	8	n/a	n/a	n/a	n/a	n/a	n/a	n/a	n/a	n/a	n/a	n/a	n/a	n/a	n/a	n/a
1624.192	n/a	WORD	812096	wordpools/wasnorm_wordpool_less_exclusions.txt	LTP210	ltpFR	8	6	0	COACH	331	n/a	1	n/a	0	0	0	0	0.5869140625	0.422607421875	upper	../fonts/amplitud.ttf
1627.204	n/a	START	813602	n/a	LTP210	ltpFR	8	n/a	n/a	n/a	n/a	n/a	n/a	n/a	n/a	n/a	n/a	n/a	n/a	n/a	n/a	n/a
1628.068	n/a	PROB	814034	n/a	LTP210	ltpFR	8	n/a	n/a	n/a	n/a	n/a	n/a	18	8	9	2	n/a	n/a	n/a	n/a	n/a
1629.4	n/a	PROB	814700	n/a	LTP210	ltpFR	8	n/a	n/a	n/a	n/a	n/a	n/a	21	8	5	8	n/a	n/a	n/a	n/a	n/a
1633.528	n/a	PROB	816764	n/a	LTP210	ltpFR	8	n/a	n/a	n/a	n/a	n/a	n/a	13	2	7	4	n/a	n/a	n/a	n/a	n/a
1636.49	n/a	PROB	818245	n/a	LTP210	ltpFR	8	n/a	n/a	n/a	n/a	n/a	n/a	10	4	1	5	n/a	n/a	n/a	n/a	n/a
1638.436	n/a	PROB	819218	n/a	LTP210	ltpFR	8	n/a	n/a	n/a	n/a	n/a	n/a	19	7	3	9	n/a	n/a	n/a	n/a	n/a
1639.684	n/a	PROB	819842	n/a	LTP210	ltpFR	8	n/a	n/a	n/a	n/a	n/a	n/a	15	2	9	4	n/a	n/a	n/a	n/a	n/a
1641.79	n/a	STOP	820895	n/a	LTP210	ltpFR	8	n/a	n/a	n/a	n/a	n/a	n/a	n/a	n/a	n/a	n/a	n/a	n/a	n/a	n/a	n/a
1644.328	n/a	WORD	822164	wordpools/wasnorm_wordpool_less_exclusions.txt	LTP210	ltpFR	8	6	1	STEW	1380	n/a	0	n/a	0	0	0	1	0.412841796875	0.57763671875	lower	../fonts/zerothre.ttf
1647.358	n/a	START	823679	n/a	LTP210	ltpFR	8	n/a	n/a	n/a	n/a	n/a	n/a	n/a	n/a	n/a	n/a	n/a	n/a	n/a	n/a	n/a
1648.504	n/a	PROB	824252	n/a	LTP210	ltpFR	8	n/a	n/a	n/a	n/a	n/a	n/a	16	8	6	2	n/a	n/a	n/a	n/a	n/a
1650.17	n/a	PROB	825085	n/a	LTP210	ltpFR	8	n/a	n/a	n/a	n/a	n/a	n/a	14	5	7	2	n/a	n/a	n/a	n/a	n/a
1651.882	n/a	PROB	825941	n/a	LTP210	ltpFR	8	n/a	n/a	n/a	n/a	n/a	n/a	17	2	9	6	n/a	n/a	n/a	n/a	n/a
1653.648	n/a	PROB	826824	n/a	LTP210	ltpFR	8	n/a	n/a	n/a	n/a	n/a	n/a	15	2	8	5	n/a	n/a	n/a	n/a	n/a
1655.096	n/a	PROB	827548	n/a	LTP210	ltpFR	8	n/a	n/a	n/a	n/a	n/a	n/a	13	9	1	3	n/a	n/a	n/a	n/a	n/a
1656.294	n/a	PROB	828147	n/a	LTP210	ltpFR	8	n/a	n/a	n/a	n/a	n/a	n/a	14	5	8	1	n/a	n/a	n/a	n/a	n/a
1658.024	n/a	PROB	829012	n/a	LTP210	ltpFR	8	n/a	n/a	n/a	n/a	n/a	n/a	14	3	5	6	n/a	n/a	n/a	n/a	n/a
1659.988	n/a	PROB	829994	n/a	LTP210	ltpFR	8	n/a	n/a	n/a	n/a	n/a	n/a	10	2	2	6	n/a	n/a	n/a	n/a	n/a
1663.358	n/a	STOP	831679	n/a	LTP210	ltpFR	8	n/a	n/a	n/a	n/a	n/a	n/a	n/a	n/a	n/a	n/a	n/a	n/a	n/a	n/a	n/a
1664.382	n/a	WORD	832191	wordpools/wasnorm_wordpool_less_exclusions.txt	LTP210	ltpFR	8	6	1	SCENERY	1247	n/a	0	n/a	0	0	0	1	0.412841796875	0.57763671875	lower	../fonts/zerothre.ttf
1667.394	n/a	START	833697	n/a	LTP210	ltpFR	8	n/a	n/a	n/a	n/a	n/a	n/a	n/a	n/a	n/a	n/a	n/a	n/a	n/a	n/a	n/a
1668.46	n/a	PROB	834230	n/a	LTP210	ltpFR	8	n/a	n/a	n/a	n/a	n/a	n/a	13	7	4	2	n/a	n/a	n/a	n/a	n/a
1670.058	n/a	PROB	835029	n/a	LTP210	ltpFR	8	n/a	n/a	n/a	n/a	n/a	n/a	6	2	2	2	n/a	n/a	n/a	n/a	n/a
1671.306	n/a	PROB	835653	n/a	LTP210	ltpFR	8	n/a	n/a	n/a	n/a	n/a	n/a	8	2	5	1	n/a	n/a	n/a	n/a	n/a
1673.086	n/a	PROB	836543	n/a	LTP210	ltpFR	8	n/a	n/a	n/a	n/a	n/a	n/a	10	4	5	1	n/a	n/a	n/a	n/a	n/a
1674.566	n/a	PROB	837283	n/a	LTP210	ltpFR	8	n/a	n/a	n/a	n/a	n/a	n/a	15	6	5	4	n/a	n/a	n/a	n/a	n/a
1676.314	n/a	PROB	838157	n/a	LTP210	ltpFR	8	n/a	n/a	n/a	n/a	n/a	n/a	9	1	5	3	n/a	n/a	n/a	n/a	n/a
1678.228	n/a	PROB	839114	n/a	LTP210	ltpFR	8	n/a	n/a	n/a	n/a	n/a	n/a	14	3	2	9	n/a	n/a	n/a	n/a	n/a
1680.242	n/a	PROB	840121	n/a	LTP210	ltpFR	8	n/a	n/a	n/a	n/a	n/a	n/a	15	8	5	2	n/a	n/a	n/a	n/a	n/a
1683.392	n/a	STOP	841696	n/a	LTP210	ltpFR	8	n/a	n/a	n/a	n/a	n/a	n/a	n/a	n/a	n/a	n/a	n/a	n/a	n/a	n/a	n/a
1684.368	n/a	WORD	842184	wordpools/wasnorm_wordpool_less_exclusions.txt	LTP210	ltpFR	8	6	1	UNCLE	1536	n/a	1	n/a	0	0	0	1	0.412841796875	0.57763671875	lower	../fonts/zerothre.ttf
1687.382	n/a	START	843691	n/a	LTP210	ltpFR	8	n/a	n/a	n/a	n/a	n/a	n/a	n/a	n/a	n/a	n/a	n/a	n/a	n/a	n/a	n/a
1688.546	n/a	PROB	844273	n/a	LTP210	ltpFR	8	n/a	n/a	n/a	n/a	n/a	n/a	16	5	3	8	n/a	n/a	n/a	n/a	n/a
1690.426	n/a	PROB	845213	n/a	LTP210	ltpFR	8	n/a	n/a	n/a	n/a	n/a	n/a	18	9	7	2	n/a	n/a	n/a	n/a	n/a
1692.656	n/a	PROB	846328	n/a	LTP210	ltpFR	8	n/a	n/a	n/a	n/a	n/a	n/a	8	4	2	2	n/a	n/a	n/a	n/a	n/a
1694.27	n/a	PROB	847135	n/a	LTP210	ltpFR	8	n/a	n/a	n/a	n/a	n/a	n/a	15	6	8	1	n/a	n/a	n/a	n/a	n/a
1696.95	n/a	PROB	848475	n/a	LTP210	ltpFR	8	n/a	n/a	n/a	n/a	n/a	n/a	16	4	3	9	n/a	n/a	n/a	n/a	n/a
1703.382	n/a	STOP	851691	n/a	LTP210	ltpFR	8	n/a	n/a	n/a	n/a	n/a	n/a	n/a	n/a	n/a	n/a	n/a	n/a	n/a	n/a	n/a
1704.456	n/a	WORD	852228	wordpools/wasnorm_wordpool_less_exclusions.txt	LTP210	ltpFR	8	6	1	HOOK	715	n/a	0	n/a	0	0	0	1	0.412841796875	0.57763671875	lower	../fonts/zerothre.ttf
1707.468	n/a	START	853734	n/a	LTP210	ltpFR	8	n/a	n/a	n/a	n/a	n/a	n/a	n/a	n/a	n/a	n/a	n/a	n/a	n/a	n/a	n/a
1708.284	n/a	PROB	854142	n/a	LTP210	ltpFR	8	n/a	n/a	n/a	n/a	n/a	n/a	20	6	9	5	n/a	n/a	n/a	n/a	n/a
1710.414	n/a	PROB	855207	n/a	LTP210	ltpFR	8	n/a	n/a	n/a	n/a	n/a	n/a	14	7	2	5	n/a	n/a	n/a	n/a	n/a
1712.726	n/a	PROB	856363	n/a	LTP210	ltpFR	8	n/a	n/a	n/a	n/a	n/a	n/a	15	9	3	3	n/a	n/a	n/a	n/a	n/a
1714.54	n/a	PROB	857270	n/a	LTP210	ltpFR	8	n/a	n/a	n/a	n/a	n/a	n/a	20	4	9	7	n/a	n/a	n/a	n/a	n/a
1717.67	n/a	PROB	858835	n/a	LTP210	ltpFR	8	n/a	n/a	n/a	n/a	n/a	n/a	24	8	9	7	n/a	n/a	n/a	n/a	n/a
1719.716	n/a	PROB	859858	n/a	LTP210	ltpFR	8	n/a	n/a	n/a	n/a	n/a	n/a	15	2	9	3	n/a	n/a	n/a	n/a	n/a
1722.048	n/a	STOP	861024	n/a	LTP210	ltpFR	8	n/a	n/a	n/a	n/a	n/a	n/a	n/a	n/a	n/a	n/a	n/a	n/a	n/a	n/a	n/a
1724.392	n/a	WORD	862196	wordpools/wasnorm_wordpool_less_exclusions.txt	LTP210	ltpFR	8	6	0	NET	946	n/a	1	n/a	0	0	0	0	0.5869140625	0.422607421875	upper	../fonts/amplitud.ttf
1727.406	n/a	START	863703	n/a	LTP210	ltpFR	8	n/a	n/a	n/a	n/a	n/a	n/a	n/a	n/a	n/a	n/a	n/a	n/a	n/a	n/a	n/a
1728.42	n/a	PROB	864210	n/a	LTP210	ltpFR	8	n/a	n/a	n/a	n/a	n/a	n/a	15	6	6	3	n/a	n/a	n/a	n/a	n/a
1730.25	n/a	PROB	865125	n/a	LTP210	ltpFR	8	n/a	n/a	n/a	n/a	n/a	n/a	18	8	2	8	n/a	n/a	n/a	n/a	n/a
1731.566	n/a	PROB	865783	n/a	LTP210	ltpFR	8	n/a	n/a	n/a	n/a	n/a	n/a	8	2	4	2	n/a	n/a	n/a	n/a	n/a
1733.146	n/a	PROB	866573	n/a	LTP210	ltpFR	8	n/a	n/a	n/a	n/a	n/a	n/a	15	2	7	6	n/a	n/a	n/a	n/a	n/a
1734.876	n/a	PROB	867438	n/a	LTP210	ltpFR	8	n/a	n/a	n/a	n/a	n/a	n/a	16	8	6	2	n/a	n/a	n/a	n/a	n/a
1736.192	n/a	PROB	868096	n/a	LTP210	ltpFR	8	n/a	n/a	n/a	n/a	n/a	n/a	20	7	9	4	n/a	n/a	n/a	n/a	n/a
1738.39	n/a	PROB	869195	n/a	LTP210	ltpFR	8	n/a	n/a	n/a	n/a	n/a	n/a	16	6	6	4	n/a	n/a	n/a	n/a	n/a
1739.87	n/a	PROB	869935	n/a	LTP210	ltpFR	8	n/a	n/a	n/a	n/a	n/a	n/a	16	4	8	4	n/a	n/a	n/a	n/a	n/a
1742.816	n/a	STOP	871408	n/a	LTP210	ltpFR	8	n/a	n/a	n/a	n/a	n/a	n/a	n/a	n/a	n/a	n/a	n/a	n/a	n/a	n/a	n/a
1744.28	n/a	WORD	872140	wordpools/wasnorm_wordpool_less_exclusions.txt	LTP210	ltpFR	8	6	0	SCREW	1254	n/a	0	n/a	0	0	0	0	0.5869140625	0.422607421875	upper	../fonts/amplitud.ttf
1747.294	n/a	START	873647	n/a	LTP210	ltpFR	8	n/a	n/a	n/a	n/a	n/a	n/a	n/a	n/a	n/a	n/a	n/a	n/a	n/a	n/a	n/a
1748.44	n/a	PROB	874220	n/a	LTP210	ltpFR	8	n/a	n/a	n/a	n/a	n/a	n/a	24	6	9	9	n/a	n/a	n/a	n/a	n/a
1751.07	n/a	PROB	875535	n/a	LTP210	ltpFR	8	n/a	n/a	n/a	n/a	n/a	n/a	11	6	4	1	n/a	n/a	n/a	n/a	n/a
1752.534	n/a	PROB	876267	n/a	LTP210	ltpFR	8	n/a	n/a	n/a	n/a	n/a	n/a	24	8	9	7	n/a	n/a	n/a	n/a	n/a
1754.516	n/a	PROB	877258	n/a	LTP210	ltpFR	8	n/a	n/a	n/a	n/a	n/a	n/a	10	7	1	2	n/a	n/a	n/a	n/a	n/a
1756.212	n/a	PROB	878106	n/a	LTP210	ltpFR	8	n/a	n/a	n/a	n/a	n/a	n/a	15	5	3	7	n/a	n/a	n/a	n/a	n/a
1758.492	n/a	PROB	879246	n/a	LTP210	ltpFR	8	n/a	n/a	n/a	n/a	n/a	n/a	11	2	8	1	n/a	n/a	n/a	n/a	n/a
1759.608	n/a	PROB	879804	n/a	LTP210	ltpFR	8	n/a	n/a	n/a	n/a	n/a	n/a	17	7	8	2	n/a	n/a	n/a	n/a	n/a
1761.422	n/a	PROB	880711	n/a	LTP210	ltpFR	8	n/a	n/a	n/a	n/a	n/a	n/a	16	4	5	7	n/a	n/a	n/a	n/a	n/a
1763.008	n/a	STOP	881504	n/a	LTP210	ltpFR	8	n/a	n/a	n/a	n/a	n/a	n/a	n/a	n/a	n/a	n/a	n/a	n/a	n/a	n/a	n/a
1764.25	n/a	WORD	882125	wordpools/wasnorm_wordpool_less_exclusions.txt	LTP210	ltpFR	8	6	0	COURT	391	n/a	1	n/a	0	0	0	0	0.5869140625	0.422607421875	upper	../fonts/amplitud.ttf
1767.264	n/a	START	883632	n/a	LTP210	ltpFR	8	n/a	n/a	n/a	n/a	n/a	n/a	n/a	n/a	n/a	n/a	n/a	n/a	n/a	n/a	n/a
1768.244	n/a	PROB	884122	n/a	LTP210	ltpFR	8	n/a	n/a	n/a	n/a	n/a	n/a	20	6	9	5	n/a	n/a	n/a	n/a	n/a
1770.89	n/a	PROB	885445	n/a	LTP210	ltpFR	8	n/a	n/a	n/a	n/a	n/a	n/a	14	6	6	2	n/a	n/a	n/a	n/a	n/a
1773.354	n/a	PROB	886677	n/a	LTP210	ltpFR	8	n/a	n/a	n/a	n/a	n/a	n/a	19	8	9	2	n/a	n/a	n/a	n/a	n/a
1775.782	n/a	PROB	887891	n/a	LTP210	ltpFR	8	n/a	n/a	n/a	n/a	n/a	n/a	6	1	2	3	n/a	n/a	n/a	n/a	n/a
1777.698	n/a	PROB	888849	n/a	LTP210	ltpFR	8	n/a	n/a	n/a	n/a	n/a	n/a	10	2	1	7	n/a	n/a	n/a	n/a	n/a
1778.978	n/a	PROB	889489	n/a	LTP210	ltpFR	8	n/a	n/a	n/a	n/a	n/a	n/a	5	1	3	1	n/a	n/a	n/a	n/a	n/a
1780.144	n/a	PROB	890072	n/a	LTP210	ltpFR	8	n/a	n/a	n/a	n/a	n/a	n/a	9	5	2	2	n/a	n/a	n/a	n/a	n/a
1781.658	n/a	PROB	890829	n/a	LTP210	ltpFR	8	n/a	n/a	n/a	n/a	n/a	n/a	18	8	3	7	n/a	n/a	n/a	n/a	n/a
1783.088	n/a	STOP	891544	n/a	LTP210	ltpFR	8	n/a	n/a	n/a	n/a	n/a	n/a	n/a	n/a	n/a	n/a	n/a	n/a	n/a	n/a	n/a
1784.17	n/a	WORD	892085	wordpools/wasnorm_wordpool_less_exclusions.txt	LTP210	ltpFR	8	6	0	SHINGLE	1285	n/a	0	n/a	0	0	0	0	0.5869140625	0.422607421875	upper	../fonts/amplitud.ttf
1787.184	n/a	START	893592	n/a	LTP210	ltpFR	8	n/a	n/a	n/a	n/a	n/a	n/a	n/a	n/a	n/a	n/a	n/a	n/a	n/a	n/a	n/a
1788.032	n/a	PROB	894016	n/a	LTP210	ltpFR	8	n/a	n/a	n/a	n/a	n/a	n/a	17	9	2	6	n/a	n/a	n/a	n/a	n/a
1790.794	n/a	PROB	895397	n/a	LTP210	ltpFR	8	n/a	n/a	n/a	n/a	n/a	n/a	16	3	4	9	n/a	n/a	n/a	n/a	n/a
1792.376	n/a	PROB	896188	n/a	LTP210	ltpFR	8	n/a	n/a	n/a	n/a	n/a	n/a	14	1	9	4	n/a	n/a	n/a	n/a	n/a
1793.64	n/a	PROB	896820	n/a	LTP210	ltpFR	8	n/a	n/a	n/a	n/a	n/a	n/a	11	6	2	3	n/a	n/a	n/a	n/a	n/a
1795.52	n/a	PROB	897760	n/a	LTP210	ltpFR	8	n/a	n/a	n/a	n/a	n/a	n/a	14	5	2	7	n/a	n/a	n/a	n/a	n/a
1797.716	n/a	PROB	898858	n/a	LTP210	ltpFR	8	n/a	n/a	n/a	n/a	n/a	n/a	9	4	1	5	n/a	n/a	n/a	n/a	n/a
1799.116	n/a	PROB	899558	n/a	LTP210	ltpFR	8	n/a	n/a	n/a	n/a	n/a	n/a	15	2	6	7	n/a	n/a	n/a	n/a	n/a
1802.32	n/a	STOP	901160	n/a	LTP210	ltpFR	8	n/a	n/a	n/a	n/a	n/a	n/a	n/a	n/a	n/a	n/a	n/a	n/a	n/a	n/a	n/a
1804.008	n/a	WORD	902004	wordpools/wasnorm_wordpool_less_exclusions.txt	LTP210	ltpFR	8	6	1	GRASSHOPPER	656	n/a	1	n/a	0	0	0	1	0.412841796875	0.57763671875	lower	../fonts/zerothre.ttf
1807.02	n/a	START	903510	n/a	LTP210	ltpFR	8	n/a	n/a	n/a	n/a	n/a	n/a	n/a	n/a	n/a	n/a	n/a	n/a	n/a	n/a	n/a
1808.136	n/a	PROB	904068	n/a	LTP210	ltpFR	8	n/a	n/a	n/a	n/a	n/a	n/a	17	2	6	9	n/a	n/a	n/a	n/a	n/a
1811.464	n/a	PROB	905732	n/a	LTP210	ltpFR	8	n/a	n/a	n/a	n/a	n/a	n/a	15	6	1	8	n/a	n/a	n/a	n/a	n/a
1814.028	n/a	PROB	907014	n/a	LTP210	ltpFR	8	n/a	n/a	n/a	n/a	n/a	n/a	7	3	2	2	n/a	n/a	n/a	n/a	n/a
1817.006	n/a	PROB	908503	n/a	LTP210	ltpFR	8	n/a	n/a	n/a	n/a	n/a	n/a	21	9	9	3	n/a	n/a	n/a	n/a	n/a
1823.022	n/a	STOP	911511	n/a	LTP210	ltpFR	8	n/a	n/a	n/a	n/a	n/a	n/a	n/a	n/a	n/a	n/a	n/a	n/a	n/a	n/a	n/a
1823.878	n/a	WORD	911939	wordpools/wasnorm_wordpool_less_exclusions.txt	LTP210	ltpFR	8	6	1	MOTH	920	n/a	1	n/a	0	0	0	1	0.412841796875	0.57763671875	lower	../fonts/zerothre.ttf
1826.89	n/a	START	913445	n/a	LTP210	ltpFR	8	n/a	n/a	n/a	n/a	n/a	n/a	n/a	n/a	n/a	n/a	n/a	n/a	n/a	n/a	n/a
1827.722	n/a	PROB	913861	n/a	LTP210	ltpFR	8	n/a	n/a	n/a	n/a	n/a	n/a	16	5	9	2	n/a	n/a	n/a	n/a	n/a
1829.77	n/a	PROB	914885	n/a	LTP210	ltpFR	8	n/a	n/a	n/a	n/a	n/a	n/a	13	5	5	3	n/a	n/a	n/a	n/a	n/a
1831.734	n/a	PROB	915867	n/a	LTP210	ltpFR	8	n/a	n/a	n/a	n/a	n/a	n/a	19	9	1	9	n/a	n/a	n/a	n/a	n/a
1833.032	n/a	PROB	916516	n/a	LTP210	ltpFR	8	n/a	n/a	n/a	n/a	n/a	n/a	19	9	1	9	n/a	n/a	n/a	n/a	n/a
1833.914	n/a	PROB	916957	n/a	LTP210	ltpFR	8	n/a	n/a	n/a	n/a	n/a	n/a	13	2	5	6	n/a	n/a	n/a	n/a	n/a
1835.926	n/a	PROB	917963	n/a	LTP210	ltpFR	8	n/a	n/a	n/a	n/a	n/a	n/a	5	3	1	1	n/a	n/a	n/a	n/a	n/a
1837.36	n/a	PROB	918680	n/a	LTP210	ltpFR	8	n/a	n/a	n/a	n/a	n/a	n/a	15	5	9	2	n/a	n/a	n/a	n/a	n/a
1842.89	n/a	STOP	921445	n/a	LTP210	ltpFR	8	n/a	n/a	n/a	n/a	n/a	n/a	n/a	n/a	n/a	n/a	n/a	n/a	n/a	n/a	n/a
1843.95	n/a	WORD	921975	wordpools/wasnorm_wordpool_less_exclusions.txt	LTP210	ltpFR	8	6	1	LAWYER	806	n/a	1	n/a	0	0	0	1	0.412841796875	0.57763671875	lower	../fonts/zerothre.ttf
1846.962	n/a	START	923481	n/a	LTP210	ltpFR	8	n/a	n/a	n/a	n/a	n/a	n/a	n/a	n/a	n/a	n/a	n/a	n/a	n/a	n/a	n/a
1848.076	n/a	PROB	924038	n/a	LTP210	ltpFR	8	n/a	n/a	n/a	n/a	n/a	n/a	17	7	6	4	n/a	n/a	n/a	n/a	n/a
1849.872	n/a	PROB	924936	n/a	LTP210	ltpFR	8	n/a	n/a	n/a	n/a	n/a	n/a	15	5	5	5	n/a	n/a	n/a	n/a	n/a
1851.022	n/a	PROB	925511	n/a	LTP210	ltpFR	8	n/a	n/a	n/a	n/a	n/a	n/a	16	4	8	4	n/a	n/a	n/a	n/a	n/a
1852.652	n/a	PROB	926326	n/a	LTP210	ltpFR	8	n/a	n/a	n/a	n/a	n/a	n/a	8	2	4	2	n/a	n/a	n/a	n/a	n/a
1853.984	n/a	PROB	926992	n/a	LTP210	ltpFR	8	n/a	n/a	n/a	n/a	n/a	n/a	9	2	3	4	n/a	n/a	n/a	n/a	n/a
1855.982	n/a	PROB	927991	n/a	LTP210	ltpFR	8	n/a	n/a	n/a	n/a	n/a	n/a	14	1	5	8	n/a	n/a	n/a	n/a	n/a
1858.028	n/a	PROB	929014	n/a	LTP210	ltpFR	8	n/a	n/a	n/a	n/a	n/a	n/a	19	1	9	9	n/a	n/a	n/a	n/a	n/a
1859.31	n/a	PROB	929655	n/a	LTP210	ltpFR	8	n/a	n/a	n/a	n/a	n/a	n/a	20	9	6	5	n/a	n/a	n/a	n/a	n/a
1862.962	n/a	STOP	931481	n/a	LTP210	ltpFR	8	n/a	n/a	n/a	n/a	n/a	n/a	n/a	n/a	n/a	n/a	n/a	n/a	n/a	n/a	n/a
1864.12	n/a	WORD	932060	wordpools/wasnorm_wordpool_less_exclusions.txt	LTP210	ltpFR	8	6	1	LIVER	833	n/a	0	n/a	0	0	0	1	0.412841796875	0.57763671875	lower	../fonts/zerothre.ttf
1867.132	n/a	START	933566	n/a	LTP210	ltpFR	8	n/a	n/a	n/a	n/a	n/a	n/a	n/a	n/a	n/a	n/a	n/a	n/a	n/a	n/a	n/a
1868.296	n/a	PROB	934148	n/a	LTP210	ltpFR	8	n/a	n/a	n/a	n/a	n/a	n/a	24	8	8	8	n/a	n/a	n/a	n/a	n/a
1870.028	n/a	PROB	935014	n/a	LTP210	ltpFR	8	n/a	n/a	n/a	n/a	n/a	n/a	10	6	1	3	n/a	n/a	n/a	n/a	n/a
1872.074	n/a	PROB	936037	n/a	LTP210	ltpFR	8	n/a	n/a	n/a	n/a	n/a	n/a	19	5	7	7	n/a	n/a	n/a	n/a	n/a
1874.67	n/a	PROB	937335	n/a	LTP210	ltpFR	8	n/a	n/a	n/a	n/a	n/a	n/a	20	9	2	9	n/a	n/a	n/a	n/a	n/a
1879.596	n/a	PROB	939798	n/a	LTP210	ltpFR	8	n/a	n/a	n/a	n/a	n/a	n/a	6	1	3	2	n/a	n/a	n/a	n/a	n/a
1883.132	n/a	STOP	941566	n/a	LTP210	ltpFR	8	n/a	n/a	n/a	n/a	n/a	n/a	n/a	n/a	n/a	n/a	n/a	n/a	n/a	n/a	n/a
1885.022	n/a	REC_START	942511	n/a	LTP210	ltpFR	8	6	n/a	n/a	n/a	n/a	n/a	n/a	0	0	0	n/a	n/a	n/a	n/a	n/a
1886.354	n/a	REC_WORD	943177	wordpools/wasnorm_wordpool_less_exclusions.txt	LTP210	ltpFR	8	6	1	GRASSHOPPER	656	n/a	1	n/a	0	0	0	n/a	n/a	n/a	n/a	n/a
1889.556	n/a	REC_WORD	944778	wordpools/wasnorm_wordpool_less_exclusions.txt	LTP210	ltpFR	8	6	1	LIVER	833	n/a	0	n/a	0	0	0	n/a	n/a	n/a	n/a	n/a
1892.66	n/a	REC_WORD	946330	wordpools/wasnorm_wordpool_less_exclusions.txt	LTP210	ltpFR	8	6	1	UNCLE	1536	n/a	1	n/a	0	0	0	n/a	n/a	n/a	n/a	n/a
1902.438	n/a	REC_WORD	951219	wordpools/wasnorm_wordpool_less_exclusions.txt	LTP210	ltpFR	8	6	0	SCREW	1254	n/a	0	n/a	0	0	0	n/a	n/a	n/a	n/a	n/a
1971.994	n/a	WORD	985997	wordpools/wasnorm_wordpool_less_exclusions.txt	LTP210	ltpFR	8	7	1	ARCHITECT	36	n/a	1	n/a	0	0	0	1	0.412841796875	0.57763671875	lower	../fonts/zerothre.ttf
1976.17	n/a	WORD	988085	wordpools/wasnorm_wordpool_less_exclusions.txt	LTP210	ltpFR	8	7	1	CITY	314	n/a	0	n/a	0	0	0	1	0.412841796875	0.57763671875	lower	../fonts/zerothre.ttf
1980.264	n/a	WORD	990132	wordpools/wasnorm_wordpool_less_exclusions.txt	LTP210	ltpFR	8	7	1	TROMBONE	1508	n/a	0	n/a	0	0	0	1	0.412841796875	0.57763671875	lower	../fonts/zerothre.ttf
1984.108	n/a	WORD	992054	wordpools/wasnorm_wordpool_less_exclusions.txt	LTP210	ltpFR	8	7	0	BAND	78	n/a	1	n/a	0	0	0	0	0.5869140625	0.422607421875	upper	../fonts/amplitud.ttf
1988.02	n/a	WORD	994010	wordpools/wasnorm_wordpool_less_exclusions.txt	LTP210	ltpFR	8	7	0	FLUTE	585	n/a	0	n/a	0	0	0	0	0.5869140625	0.422607421875	upper	../fonts/amplitud.ttf
1991.93	n/a	WORD	995965	wordpools/wasnorm_wordpool_less_exclusions.txt	LTP210	ltpFR	8	7	0	CONCRETE	361	n/a	0	n/a	0	0	0	0	0.5869140625	0.422607421875	upper	../fonts/amplitud.ttf
1995.924	n/a	WORD	997962	wordpools/wasnorm_wordpool_less_exclusions.txt	LTP210	ltpFR	8	7	0	ATMOSPHERE	54	n/a	0	n/a	0	0	0	0	0.5869140625	0.422607421875	upper	../fonts/amplitud.ttf
1999.952	n/a	WORD	999976	wordpools/wasnorm_wordpool_less_exclusions.txt	LTP210	ltpFR	8	7	1	CAPITAL	238	n/a	0	n/a	0	0	0	1	0.412841796875	0.57763671875	lower	../fonts/zerothre.ttf
2003.794	n/a	WORD	1001897	wordpools/wasnorm_wordpool_less_exclusions.txt	LTP210	ltpFR	8	7	1	FIST	572	n/a	0	n/a	0	0	0	1	0.412841796875	0.57763671875	lower	../fonts/zerothre.ttf
2007.772	n/a	WORD	1003886	wordpools/wasnorm_wordpool_less_exclusions.txt	LTP210	ltpFR	8	7	1	SAUSAGE	1238	n/a	0	n/a	0	0	0	1	0.412841796875	0.57763671875	lower	../fonts/zerothre.ttf
2011.618	n/a	WORD	1005809	wordpools/wasnorm_wordpool_less_exclusions.txt	LTP210	ltpFR	8	7	0	SUSPECT	1415	n/a	1	n/a	0	0	0	0	0.5869140625	0.422607421875	upper	../fonts/amplitud.ttf
2015.644	n/a	WORD	1007822	wordpools/wasnorm_wordpool_less_exclusions.txt	LTP210	ltpFR	8	7	0	BURGLAR	200	n/a	1	n/a	0	0	0	0	0.5869140625	0.422607421875	upper	../fonts/amplitud.ttf
2019.588	n/a	WORD	1009794	wordpools/wasnorm_wordpool_less_exclusions.txt	LTP210	ltpFR	8	7	0	NOTE	958	n/a	0	n/a	0	0	0	0	0.5869140625	0.422607421875	upper	../fonts/amplitud.ttf
2023.55	n/a	WORD	1011775	wordpools/wasnorm_wordpool_less_exclusions.txt	LTP210	ltpFR	8	7	0	RECIPE	1175	n/a	0	n/a	0	0	0	0	0.5869140625	0.422607421875	upper	../fonts/amplitud.ttf
2027.61	n/a	WORD	1013805	wordpools/wasnorm_wordpool_less_exclusions.txt	LTP210	ltpFR	8	7	1	CRUMB	416	n/a	0	n/a	0	0	0	1	0.412841796875	0.57763671875	lower	../fonts/zerothre.ttf
2031.572	n/a	WORD	1015786	wordpools/wasnorm_wordpool_less_exclusions.txt	LTP210	ltpFR	8	7	1	PRIEST	1122	n/a	1	n/a	0	0	0	1	0.412841796875	0.57763671875	lower	../fonts/zerothre.ttf
2037.48	n/a	REC_START	1018740	n/a	LTP210	ltpFR	8	7	n/a	n/a	n/a	n/a	n/a	n/a	0	0	0	n/a	n/a	n/a	n/a	n/a
2038.354	n/a	REC_WORD	1019177	wordpools/wasnorm_wordpool_less_exclusions.txt	LTP210	ltpFR	8	7	0	RECIPE	1175	n/a	0	n/a	0	0	0	n/a	n/a	n/a	n/a	n/a
2040.1	n/a	REC_WORD	1020050	wordpools/wasnorm_wordpool_less_exclusions.txt	LTP210	ltpFR	8	7	1	CRUMB	416	n/a	0	n/a	0	0	0	n/a	n/a	n/a	n/a	n/a
2041.556	n/a	REC_WORD	1020778	wordpools/wasnorm_wordpool_less_exclusions.txt	LTP210	ltpFR	8	7	1	PRIEST	1122	n/a	1	n/a	0	0	0	n/a	n/a	n/a	n/a	n/a
2043.566	n/a	REC_WORD	1021783	wordpools/wasnorm_wordpool_less_exclusions.txt	LTP210	ltpFR	8	7	1	ARCHITECT	36	n/a	1	n/a	0	0	0	n/a	n/a	n/a	n/a	n/a
2044.918	n/a	REC_WORD	1022459	wordpools/wasnorm_wordpool_less_exclusions.txt	LTP210	ltpFR	8	7	1	CITY	314	n/a	0	n/a	0	0	0	n/a	n/a	n/a	n/a	n/a
2046.594	n/a	REC_WORD	1023297	wordpools/wasnorm_wordpool_less_exclusions.txt	LTP210	ltpFR	8	7	0	BAND	78	n/a	1	n/a	0	0	0	n/a	n/a	n/a	n/a	n/a
2047.816	n/a	REC_WORD	1023908	wordpools/wasnorm_wordpool_less_exclusions.txt	LTP210	ltpFR	8	7	0	FLUTE	585	n/a	0	n/a	0	0	0	n/a	n/a	n/a	n/a	n/a
2061.63	n/a	REC_WORD	1030815	wordpools/wasnorm_wordpool_less_exclusions.txt	LTP210	ltpFR	8	7	1	SAUSAGE	1238	n/a	0	n/a	0	0	0	n/a	n/a	n/a	n/a	n/a
2135.036	n/a	WORD	1067518	wordpools/wasnorm_wordpool_less_exclusions.txt	LTP210	ltpFR	8	8	1	BARLEY	88	n/a	1	n/a	0	0	0	1	0.412841796875	0.57763671875	lower	../fonts/zerothre.ttf
2138.98	n/a	WORD	1069490	wordpools/wasnorm_wordpool_less_exclusions.txt	LTP210	ltpFR	8	8	1	RICE	1190	n/a	1	n/a	0	0	0	1	0.412841796875	0.57763671875	lower	../fonts/zerothre.ttf
2143.074	n/a	WORD	1071537	wordpools/wasnorm_wordpool_less_exclusions.txt	LTP210	ltpFR	8	8	1	JEWEL	757	n/a	0	n/a	0	0	0	1	0.412841796875	0.57763671875	lower	../fonts/zerothre.ttf
2147.216	n/a	WORD	1073608	wordpools/wasnorm_wordpool_less_exclusions.txt	LTP210	ltpFR	8	8	1	TROUT	1511	n/a	1	n/a	0	0	0	1	0.412841796875	0.57763671875	lower	../fonts/zerothre.ttf
2151.162	n/a	WORD	1075581	wordpools/wasnorm_wordpool_less_exclusions.txt	LTP210	ltpFR	8	8	1	THIGH	1457	n/a	0	n/a	0	0	0	1	0.412841796875	0.57763671875	lower	../fonts/zerothre.ttf
2155.088	n/a	WORD	1077544	wordpools/wasnorm_wordpool_less_exclusions.txt	LTP210	ltpFR	8	8	1	MARROW	872	n/a	0	n/a	0	0	0	1	0.412841796875	0.57763671875	lower	../fonts/zerothre.ttf
2159.248	n/a	WORD	1079624	wordpools/wasnorm_wordpool_less_exclusions.txt	LTP210	ltpFR	8	8	1	MANAGER	863	n/a	1	n/a	0	0	0	1	0.412841796875	0.57763671875	lower	../fonts/zerothre.ttf
2163.094	n/a	WORD	1081547	wordpools/wasnorm_wordpool_less_exclusions.txt	LTP210	ltpFR	8	8	1	EMPLOYER	532	n/a	1	n/a	0	0	0	1	0.412841796875	0.57763671875	lower	../fonts/zerothre.ttf
2167.188	n/a	WORD	1083594	wordpools/wasnorm_wordpool_less_exclusions.txt	LTP210	ltpFR	8	8	1	OCTOPUS	971	n/a	1	n/a	0	0	0	1	0.412841796875	0.57763671875	lower	../fonts/zerothre.ttf
2171.048	n/a	WORD	1085524	wordpools/wasnorm_wordpool_less_exclusions.txt	LTP210	ltpFR	8	8	1	JEEP	753	n/a	0	n/a	0	0	0	1	0.412841796875	0.57763671875	lower	../fonts/zerothre.ttf
2175.058	n/a	WORD	1087529	wordpools/wasnorm_wordpool_less_exclusions.txt	LTP210	ltpFR	8	8	1	FOREHEAD	592	n/a	0	n/a	0	0	0	1	0.412841796875	0.57763671875	lower	../fonts/zerothre.ttf
2179.22	n/a	WORD	1089610	wordpools/wasnorm_wordpool_less_exclusions.txt	LTP210	ltpFR	8	8	1	SCROLL	1257	n/a	0	n/a	0	0	0	1	0.412841796875	0.57763671875	lower	../fonts/zerothre.ttf
2183.248	n/a	WORD	1091624	wordpools/wasnorm_wordpool_less_exclusions.txt	LTP210	ltpFR	8	8	1	TOE	1473	n/a	0	n/a	0	0	0	1	0.412841796875	0.57763671875	lower	../fonts/zerothre.ttf
2187.108	n/a	WORD	1093554	wordpools/wasnorm_wordpool_less_exclusions.txt	LTP210	ltpFR	8	8	1	BAIT	70	n/a	0	n/a	0	0	0	1	0.412841796875	0.57763671875	lower	../fonts/zerothre.ttf
2191.136	n/a	WORD	1095568	wordpools/wasnorm_wordpool_less_exclusions.txt	LTP210	ltpFR	8	8	1	COD	340	n/a	1	n/a	0	0	0	1	0.412841796875	0.57763671875	lower	../fonts/zerothre.ttf
2195.162	n/a	WORD	1097581	wordpools/wasnorm_wordpool_less_exclusions.txt	LTP210	ltpFR	8	8	1	SUBWAY	1400	n/a	0	n/a	0	0	0	1	0.412841796875	0.57763671875	lower	../fonts/zerothre.ttf
2198.176	n/a	START	1099088	n/a	LTP210	ltpFR	8	n/a	n/a	n/a	n/a	n/a	n/a	n/a	n/a	n/a	n/a	n/a	n/a	n/a	n/a	n/a
2199.108	n/a	PROB	1099554	n/a	LTP210	ltpFR	8	n/a	n/a	n/a	n/a	n/a	n/a	18	8	3	7	n/a	n/a	n/a	n/a	n/a
2201.536	n/a	PROB	1100768	n/a	LTP210	ltpFR	8	n/a	n/a	n/a	n/a	n/a	n/a	23	9	8	6	n/a	n/a	n/a	n/a	n/a
2204.316	n/a	PROB	1102158	n/a	LTP210	ltpFR	8	n/a	n/a	n/a	n/a	n/a	n/a	9	4	4	1	n/a	n/a	n/a	n/a	n/a
2206.03	n/a	PROB	1103015	n/a	LTP210	ltpFR	8	n/a	n/a	n/a	n/a	n/a	n/a	15	4	4	7	n/a	n/a	n/a	n/a	n/a
2208.692	n/a	PROB	1104346	n/a	LTP210	ltpFR	8	n/a	n/a	n/a	n/a	n/a	n/a	22	8	5	9	n/a	n/a	n/a	n/a	n/a
2211.056	n/a	PROB	1105528	n/a	LTP210	ltpFR	8	n/a	n/a	n/a	n/a	n/a	n/a	21	6	8	7	n/a	n/a	n/a	n/a	n/a
2213.046	n/a	STOP	1106523	n/a	LTP210	ltpFR	8	n/a	n/a	n/a	n/a	n/a	n/a	n/a	n/a	n/a	n/a	n/a	n/a	n/a	n/a	n/a
2215.95	n/a	REC_START	1107975	n/a	LTP210	ltpFR	8	8	n/a	n/a	n/a	n/a	n/a	n/a	0	0	0	n/a	n/a	n/a	n/a	n/a
2216.856	n/a	REC_WORD	1108428	wordpools/wasnorm_wordpool_less_exclusions.txt	LTP210	ltpFR	8	8	1	SUBWAY	1400	n/a	0	n/a	0	0	0	n/a	n/a	n/a	n/a	n/a
2221.746	n/a	REC_WORD	1110873	wordpools/wasnorm_wordpool_less_exclusions.txt	LTP210	ltpFR	8	8	1	RICE	1190	n/a	1	n/a	0	0	0	n/a	n/a	n/a	n/a	n/a
2223.388	n/a	REC_WORD	1111694	wordpools/wasnorm_wordpool_less_exclusions.txt	LTP210	ltpFR	8	8	1	BARLEY	88	n/a	1	n/a	0	0	0	n/a	n/a	n/a	n/a	n/a
2226.26	n/a	REC_WORD	1113130	wordpools/wasnorm_wordpool_less_exclusions.txt	LTP210	ltpFR	8	8	1	EMPLOYER	532	n/a	1	n/a	0	0	0	n/a	n/a	n/a	n/a	n/a
2227.942	n/a	REC_WORD	1113971	wordpools/wasnorm_wordpool_less_exclusions.txt	LTP210	ltpFR	8	8	1	MANAGER	863	n/a	1	n/a	0	0	0	n/a	n/a	n/a	n/a	n/a
2232.222	n/a	REC_WORD	1116111	wordpools/wasnorm_wordpool_less_exclusions.txt	LTP210	ltpFR	8	8	1	JEWEL	757	n/a	0	n/a	0	0	0	n/a	n/a	n/a	n/a	n/a
2302.52	n/a	START	1151260	n/a	LTP210	ltpFR	8	n/a	n/a	n/a	n/a	n/a	n/a	n/a	n/a	n/a	n/a	n/a	n/a	n/a	n/a	n/a
2304.034	n/a	PROB	1152017	n/a	LTP210	ltpFR	8	n/a	n/a	n/a	n/a	n/a	n/a	12	2	6	4	n/a	n/a	n/a	n/a	n/a
2305.682	n/a	PROB	1152841	n/a	LTP210	ltpFR	8	n/a	n/a	n/a	n/a	n/a	n/a	14	2	8	4	n/a	n/a	n/a	n/a	n/a
2306.93	n/a	PROB	1153465	n/a	LTP210	ltpFR	8	n/a	n/a	n/a	n/a	n/a	n/a	11	3	2	6	n/a	n/a	n/a	n/a	n/a
2308.726	n/a	PROB	1154363	n/a	LTP210	ltpFR	8	n/a	n/a	n/a	n/a	n/a	n/a	20	8	9	3	n/a	n/a	n/a	n/a	n/a
2311.29	n/a	PROB	1155645	n/a	LTP210	ltpFR	8	n/a	n/a	n/a	n/a	n/a	n/a	9	7	1	1	n/a	n/a	n/a	n/a	n/a
2312.788	n/a	PROB	1156394	n/a	LTP210	ltpFR	8	n/a	n/a	n/a	n/a	n/a	n/a	15	7	4	4	n/a	n/a	n/a	n/a	n/a
2315.034	n/a	PROB	1157517	n/a	LTP210	ltpFR	8	n/a	n/a	n/a	n/a	n/a	n/a	27	9	9	9	n/a	n/a	n/a	n/a	n/a
2316.748	n/a	PROB	1158374	n/a	LTP210	ltpFR	8	n/a	n/a	n/a	n/a	n/a	n/a	17	8	4	5	n/a	n/a	n/a	n/a	n/a
2318.456	n/a	STOP	1159228	n/a	LTP210	ltpFR	8	n/a	n/a	n/a	n/a	n/a	n/a	n/a	n/a	n/a	n/a	n/a	n/a	n/a	n/a	n/a
2319.594	n/a	WORD	1159797	wordpools/wasnorm_wordpool_less_exclusions.txt	LTP210	ltpFR	8	9	0	GROCERIES	663	n/a	1	n/a	0	0	0	0	0.5869140625	0.422607421875	upper	../fonts/amplitud.ttf
2322.608	n/a	START	1161304	n/a	LTP210	ltpFR	8	n/a	n/a	n/a	n/a	n/a	n/a	n/a	n/a	n/a	n/a	n/a	n/a	n/a	n/a	n/a
2323.656	n/a	PROB	1161828	n/a	LTP210	ltpFR	8	n/a	n/a	n/a	n/a	n/a	n/a	24	8	9	7	n/a	n/a	n/a	n/a	n/a
2325.536	n/a	PROB	1162768	n/a	LTP210	ltpFR	8	n/a	n/a	n/a	n/a	n/a	n/a	19	6	8	5	n/a	n/a	n/a	n/a	n/a
2329.016	n/a	PROB	1164508	n/a	LTP210	ltpFR	8	n/a	n/a	n/a	n/a	n/a	n/a	9	1	1	7	n/a	n/a	n/a	n/a	n/a
2330.13	n/a	PROB	1165065	n/a	LTP210	ltpFR	8	n/a	n/a	n/a	n/a	n/a	n/a	14	4	6	4	n/a	n/a	n/a	n/a	n/a
2331.262	n/a	PROB	1165631	n/a	LTP210	ltpFR	8	n/a	n/a	n/a	n/a	n/a	n/a	11	7	1	3	n/a	n/a	n/a	n/a	n/a
2332.594	n/a	PROB	1166297	n/a	LTP210	ltpFR	8	n/a	n/a	n/a	n/a	n/a	n/a	8	1	2	5	n/a	n/a	n/a	n/a	n/a
2335.622	n/a	PROB	1167811	n/a	LTP210	ltpFR	8	n/a	n/a	n/a	n/a	n/a	n/a	17	1	9	7	n/a	n/a	n/a	n/a	n/a
2338.608	n/a	STOP	1169304	n/a	LTP210	ltpFR	8	n/a	n/a	n/a	n/a	n/a	n/a	n/a	n/a	n/a	n/a	n/a	n/a	n/a	n/a	n/a
2339.732	n/a	WORD	1169866	wordpools/wasnorm_wordpool_less_exclusions.txt	LTP210	ltpFR	8	9	0	GUEST	669	n/a	1	n/a	0	0	0	0	0.5869140625	0.422607421875	upper	../fonts/amplitud.ttf
2342.744	n/a	START	1171372	n/a	LTP210	ltpFR	8	n/a	n/a	n/a	n/a	n/a	n/a	n/a	n/a	n/a	n/a	n/a	n/a	n/a	n/a	n/a
2343.626	n/a	PROB	1171813	n/a	LTP210	ltpFR	8	n/a	n/a	n/a	n/a	n/a	n/a	13	6	3	4	n/a	n/a	n/a	n/a	n/a
2345.424	n/a	PROB	1172712	n/a	LTP210	ltpFR	8	n/a	n/a	n/a	n/a	n/a	n/a	11	2	7	2	n/a	n/a	n/a	n/a	n/a
2347.304	n/a	PROB	1173652	n/a	LTP210	ltpFR	8	n/a	n/a	n/a	n/a	n/a	n/a	5	3	1	1	n/a	n/a	n/a	n/a	n/a
2348.62	n/a	PROB	1174310	n/a	LTP210	ltpFR	8	n/a	n/a	n/a	n/a	n/a	n/a	16	3	8	5	n/a	n/a	n/a	n/a	n/a
2350.516	n/a	PROB	1175258	n/a	LTP210	ltpFR	8	n/a	n/a	n/a	n/a	n/a	n/a	16	7	3	6	n/a	n/a	n/a	n/a	n/a
2351.796	n/a	PROB	1175898	n/a	LTP210	ltpFR	8	n/a	n/a	n/a	n/a	n/a	n/a	22	5	8	9	n/a	n/a	n/a	n/a	n/a
2354.028	n/a	PROB	1177014	n/a	LTP210	ltpFR	8	n/a	n/a	n/a	n/a	n/a	n/a	13	1	7	5	n/a	n/a	n/a	n/a	n/a
2356.524	n/a	PROB	1178262	n/a	LTP210	ltpFR	8	n/a	n/a	n/a	n/a	n/a	n/a	11	7	2	2	n/a	n/a	n/a	n/a	n/a
2357.944	n/a	STOP	1178972	n/a	LTP210	ltpFR	8	n/a	n/a	n/a	n/a	n/a	n/a	n/a	n/a	n/a	n/a	n/a	n/a	n/a	n/a	n/a
2359.752	n/a	WORD	1179876	wordpools/wasnorm_wordpool_less_exclusions.txt	LTP210	ltpFR	8	9	0	DETERGENT	455	n/a	0	n/a	0	0	0	0	0.5869140625	0.422607421875	upper	../fonts/amplitud.ttf
2362.764	n/a	START	1181382	n/a	LTP210	ltpFR	8	n/a	n/a	n/a	n/a	n/a	n/a	n/a	n/a	n/a	n/a	n/a	n/a	n/a	n/a	n/a
2363.896	n/a	PROB	1181948	n/a	LTP210	ltpFR	8	n/a	n/a	n/a	n/a	n/a	n/a	15	3	8	4	n/a	n/a	n/a	n/a	n/a
2366.26	n/a	PROB	1183130	n/a	LTP210	ltpFR	8	n/a	n/a	n/a	n/a	n/a	n/a	19	7	8	4	n/a	n/a	n/a	n/a	n/a
2368.024	n/a	PROB	1184012	n/a	LTP210	ltpFR	8	n/a	n/a	n/a	n/a	n/a	n/a	18	6	8	4	n/a	n/a	n/a	n/a	n/a
2370.586	n/a	PROB	1185293	n/a	LTP210	ltpFR	8	n/a	n/a	n/a	n/a	n/a	n/a	11	3	1	7	n/a	n/a	n/a	n/a	n/a
2371.916	n/a	PROB	1185958	n/a	LTP210	ltpFR	8	n/a	n/a	n/a	n/a	n/a	n/a	16	5	3	8	n/a	n/a	n/a	n/a	n/a
2374.364	n/a	PROB	1187182	n/a	LTP210	ltpFR	8	n/a	n/a	n/a	n/a	n/a	n/a	12	2	9	1	n/a	n/a	n/a	n/a	n/a
2375.978	n/a	PROB	1187989	n/a	LTP210	ltpFR	8	n/a	n/a	n/a	n/a	n/a	n/a	13	2	2	9	n/a	n/a	n/a	n/a	n/a
2378.16	n/a	STOP	1189080	n/a	LTP210	ltpFR	8	n/a	n/a	n/a	n/a	n/a	n/a	n/a	n/a	n/a	n/a	n/a	n/a	n/a	n/a	n/a
2379.822	n/a	WORD	1189911	wordpools/wasnorm_wordpool_less_exclusions.txt	LTP210	ltpFR	8	9	0	DIAL	457	n/a	0	n/a	0	0	0	0	0.5869140625	0.422607421875	upper	../fonts/amplitud.ttf
2382.834	n/a	START	1191417	n/a	LTP210	ltpFR	8	n/a	n/a	n/a	n/a	n/a	n/a	n/a	n/a	n/a	n/a	n/a	n/a	n/a	n/a	n/a
2383.932	n/a	PROB	1191966	n/a	LTP210	ltpFR	8	n/a	n/a	n/a	n/a	n/a	n/a	8	1	1	6	n/a	n/a	n/a	n/a	n/a
2385.348	n/a	PROB	1192674	n/a	LTP210	ltpFR	8	n/a	n/a	n/a	n/a	n/a	n/a	11	4	4	3	n/a	n/a	n/a	n/a	n/a
2387.046	n/a	PROB	1193523	n/a	LTP210	ltpFR	8	n/a	n/a	n/a	n/a	n/a	n/a	16	9	6	1	n/a	n/a	n/a	n/a	n/a
2388.492	n/a	PROB	1194246	n/a	LTP210	ltpFR	8	n/a	n/a	n/a	n/a	n/a	n/a	17	3	7	7	n/a	n/a	n/a	n/a	n/a
2390.274	n/a	PROB	1195137	n/a	LTP210	ltpFR	8	n/a	n/a	n/a	n/a	n/a	n/a	18	7	7	4	n/a	n/a	n/a	n/a	n/a
2392.47	n/a	PROB	1196235	n/a	LTP210	ltpFR	8	n/a	n/a	n/a	n/a	n/a	n/a	8	6	1	1	n/a	n/a	n/a	n/a	n/a
2393.818	n/a	PROB	1196909	n/a	LTP210	ltpFR	8	n/a	n/a	n/a	n/a	n/a	n/a	17	1	7	9	n/a	n/a	n/a	n/a	n/a
2397.634	n/a	STOP	1198817	n/a	LTP210	ltpFR	8	n/a	n/a	n/a	n/a	n/a	n/a	n/a	n/a	n/a	n/a	n/a	n/a	n/a	n/a	n/a
2399.76	n/a	WORD	1199880	wordpools/wasnorm_wordpool_less_exclusions.txt	LTP210	ltpFR	8	9	0	RESTAURANT	1187	n/a	1	n/a	0	0	0	0	0.5869140625	0.422607421875	upper	../fonts/amplitud.ttf
2402.772	n/a	START	1201386	n/a	LTP210	ltpFR	8	n/a	n/a	n/a	n/a	n/a	n/a	n/a	n/a	n/a	n/a	n/a	n/a	n/a	n/a	n/a
2403.736	n/a	PROB	1201868	n/a	LTP210	ltpFR	8	n/a	n/a	n/a	n/a	n/a	n/a	24	9	9	6	n/a	n/a	n/a	n/a	n/a
2406.384	n/a	PROB	1203192	n/a	LTP210	ltpFR	8	n/a	n/a	n/a	n/a	n/a	n/a	17	4	5	8	n/a	n/a	n/a	n/a	n/a
2408.198	n/a	PROB	1204099	n/a	LTP210	ltpFR	8	n/a	n/a	n/a	n/a	n/a	n/a	19	6	4	9	n/a	n/a	n/a	n/a	n/a
2409.662	n/a	PROB	1204831	n/a	LTP210	ltpFR	8	n/a	n/a	n/a	n/a	n/a	n/a	10	3	3	4	n/a	n/a	n/a	n/a	n/a
2412.076	n/a	PROB	1206038	n/a	LTP210	ltpFR	8	n/a	n/a	n/a	n/a	n/a	n/a	17	7	9	1	n/a	n/a	n/a	n/a	n/a
2413.822	n/a	PROB	1206911	n/a	LTP210	ltpFR	8	n/a	n/a	n/a	n/a	n/a	n/a	18	4	6	8	n/a	n/a	n/a	n/a	n/a
2415.67	n/a	PROB	1207835	n/a	LTP210	ltpFR	8	n/a	n/a	n/a	n/a	n/a	n/a	14	8	5	1	n/a	n/a	n/a	n/a	n/a
2418.33	n/a	STOP	1209165	n/a	LTP210	ltpFR	8	n/a	n/a	n/a	n/a	n/a	n/a	n/a	n/a	n/a	n/a	n/a	n/a	n/a	n/a	n/a
2419.714	n/a	WORD	1209857	wordpools/wasnorm_wordpool_less_exclusions.txt	LTP210	ltpFR	8	9	0	PENGUIN	1044	n/a	n/a	n/a	0	0	0	0	0.5869140625	0.422607421875	upper	../fonts/amplitud.ttf
2422.742	n/a	SLOW_MSG	1211371	n/a	LTP210	ltpFR	8	9	n/a	n/a	n/a	n/a	n/a	n/a	0	0	0	n/a	n/a	n/a	n/a	n/a
2424.274	n/a	START	1212137	n/a	LTP210	ltpFR	8	n/a	n/a	n/a	n/a	n/a	n/a	n/a	n/a	n/a	n/a	n/a	n/a	n/a	n/a	n/a
2425.09	n/a	PROB	1212545	n/a	LTP210	ltpFR	8	n/a	n/a	n/a	n/a	n/a	n/a	14	5	3	6	n/a	n/a	n/a	n/a	n/a
2429.6	n/a	PROB	1214800	n/a	LTP210	ltpFR	8	n/a	n/a	n/a	n/a	n/a	n/a	16	4	5	7	n/a	n/a	n/a	n/a	n/a
2431.296	n/a	PROB	1215648	n/a	LTP210	ltpFR	8	n/a	n/a	n/a	n/a	n/a	n/a	10	4	3	4	n/a	n/a	n/a	n/a	n/a
2433.41	n/a	PROB	1216705	n/a	LTP210	ltpFR	8	n/a	n/a	n/a	n/a	n/a	n/a	13	2	7	4	n/a	n/a	n/a	n/a	n/a
2435.822	n/a	PROB	1217911	n/a	LTP210	ltpFR	8	n/a	n/a	n/a	n/a	n/a	n/a	12	3	3	6	n/a	n/a	n/a	n/a	n/a
2438.302	n/a	PROB	1219151	n/a	LTP210	ltpFR	8	n/a	n/a	n/a	n/a	n/a	n/a	15	1	5	9	n/a	n/a	n/a	n/a	n/a
2439.466	n/a	STOP	1219733	n/a	LTP210	ltpFR	8	n/a	n/a	n/a	n/a	n/a	n/a	n/a	n/a	n/a	n/a	n/a	n/a	n/a	n/a	n/a
2441.182	n/a	WORD	1220591	wordpools/wasnorm_wordpool_less_exclusions.txt	LTP210	ltpFR	8	9	1	BIRD	129	n/a	1	n/a	0	0	0	1	0.412841796875	0.57763671875	lower	../fonts/zerothre.ttf
2444.194	n/a	START	1222097	n/a	LTP210	ltpFR	8	n/a	n/a	n/a	n/a	n/a	n/a	n/a	n/a	n/a	n/a	n/a	n/a	n/a	n/a	n/a
2445.01	n/a	PROB	1222505	n/a	LTP210	ltpFR	8	n/a	n/a	n/a	n/a	n/a	n/a	16	7	6	3	n/a	n/a	n/a	n/a	n/a
2447.006	n/a	PROB	1223503	n/a	LTP210	ltpFR	8	n/a	n/a	n/a	n/a	n/a	n/a	17	1	9	7	n/a	n/a	n/a	n/a	n/a
2448.704	n/a	PROB	1224352	n/a	LTP210	ltpFR	8	n/a	n/a	n/a	n/a	n/a	n/a	14	6	7	1	n/a	n/a	n/a	n/a	n/a
2450.518	n/a	PROB	1225259	n/a	LTP210	ltpFR	8	n/a	n/a	n/a	n/a	n/a	n/a	21	8	9	4	n/a	n/a	n/a	n/a	n/a
2453.696	n/a	PROB	1226848	n/a	LTP210	ltpFR	8	n/a	n/a	n/a	n/a	n/a	n/a	14	9	4	1	n/a	n/a	n/a	n/a	n/a
2456.092	n/a	PROB	1228046	n/a	LTP210	ltpFR	8	n/a	n/a	n/a	n/a	n/a	n/a	12	2	5	5	n/a	n/a	n/a	n/a	n/a
2457.258	n/a	PROB	1228629	n/a	LTP210	ltpFR	8	n/a	n/a	n/a	n/a	n/a	n/a	10	1	5	4	n/a	n/a	n/a	n/a	n/a
2458.714	n/a	STOP	1229357	n/a	LTP210	ltpFR	8	n/a	n/a	n/a	n/a	n/a	n/a	n/a	n/a	n/a	n/a	n/a	n/a	n/a	n/a	n/a
2461.186	n/a	WORD	1230593	wordpools/wasnorm_wordpool_less_exclusions.txt	LTP210	ltpFR	8	9	1	DISH	474	n/a	0	n/a	0	0	0	1	0.412841796875	0.57763671875	lower	../fonts/zerothre.ttf
2464.198	n/a	START	1232099	n/a	LTP210	ltpFR	8	n/a	n/a	n/a	n/a	n/a	n/a	n/a	n/a	n/a	n/a	n/a	n/a	n/a	n/a	n/a
2465.212	n/a	PROB	1232606	n/a	LTP210	ltpFR	8	n/a	n/a	n/a	n/a	n/a	n/a	15	3	3	9	n/a	n/a	n/a	n/a	n/a
2466.994	n/a	PROB	1233497	n/a	LTP210	ltpFR	8	n/a	n/a	n/a	n/a	n/a	n/a	17	7	3	7	n/a	n/a	n/a	n/a	n/a
2468.242	n/a	PROB	1234121	n/a	LTP210	ltpFR	8	n/a	n/a	n/a	n/a	n/a	n/a	16	9	4	3	n/a	n/a	n/a	n/a	n/a
2470.788	n/a	PROB	1235394	n/a	LTP210	ltpFR	8	n/a	n/a	n/a	n/a	n/a	n/a	20	7	5	8	n/a	n/a	n/a	n/a	n/a
2474.5	n/a	PROB	1237250	n/a	LTP210	ltpFR	8	n/a	n/a	n/a	n/a	n/a	n/a	12	1	9	2	n/a	n/a	n/a	n/a	n/a
2475.764	n/a	PROB	1237882	n/a	LTP210	ltpFR	8	n/a	n/a	n/a	n/a	n/a	n/a	23	8	7	8	n/a	n/a	n/a	n/a	n/a
2480.198	n/a	STOP	1240099	n/a	LTP210	ltpFR	8	n/a	n/a	n/a	n/a	n/a	n/a	n/a	n/a	n/a	n/a	n/a	n/a	n/a	n/a	n/a
2481.406	n/a	WORD	1240703	wordpools/wasnorm_wordpool_less_exclusions.txt	LTP210	ltpFR	8	9	0	CLOWN	330	n/a	1	n/a	0	0	0	0	0.5869140625	0.422607421875	upper	../fonts/amplitud.ttf
2484.418	n/a	START	1242209	n/a	LTP210	ltpFR	8	n/a	n/a	n/a	n/a	n/a	n/a	n/a	n/a	n/a	n/a	n/a	n/a	n/a	n/a	n/a
2485.566	n/a	PROB	1242783	n/a	LTP210	ltpFR	8	n/a	n/a	n/a	n/a	n/a	n/a	18	1	8	9	n/a	n/a	n/a	n/a	n/a
2488.528	n/a	PROB	1244264	n/a	LTP210	ltpFR	8	n/a	n/a	n/a	n/a	n/a	n/a	10	2	5	3	n/a	n/a	n/a	n/a	n/a
2490.676	n/a	PROB	1245338	n/a	LTP210	ltpFR	8	n/a	n/a	n/a	n/a	n/a	n/a	15	8	3	4	n/a	n/a	n/a	n/a	n/a
2492.69	n/a	PROB	1246345	n/a	LTP210	ltpFR	8	n/a	n/a	n/a	n/a	n/a	n/a	18	2	7	9	n/a	n/a	n/a	n/a	n/a
2495.418	n/a	PROB	1247709	n/a	LTP210	ltpFR	8	n/a	n/a	n/a	n/a	n/a	n/a	11	8	1	2	n/a	n/a	n/a	n/a	n/a
2497.416	n/a	PROB	1248708	n/a	LTP210	ltpFR	8	n/a	n/a	n/a	n/a	n/a	n/a	5	2	1	2	n/a	n/a	n/a	n/a	n/a
2500.178	n/a	STOP	1250089	n/a	LTP210	ltpFR	8	n/a	n/a	n/a	n/a	n/a	n/a	n/a	n/a	n/a	n/a	n/a	n/a	n/a	n/a	n/a
2501.26	n/a	WORD	1250630	wordpools/wasnorm_wordpool_less_exclusions.txt	LTP210	ltpFR	8	9	0	HUMAN	726	n/a	1	n/a	0	0	0	0	0.5869140625	0.422607421875	upper	../fonts/amplitud.ttf
2504.272	n/a	START	1252136	n/a	LTP210	ltpFR	8	n/a	n/a	n/a	n/a	n/a	n/a	n/a	n/a	n/a	n/a	n/a	n/a	n/a	n/a	n/a
2505.12	n/a	PROB	1252560	n/a	LTP210	ltpFR	8	n/a	n/a	n/a	n/a	n/a	n/a	17	7	1	9	n/a	n/a	n/a	n/a	n/a
2506.718	n/a	PROB	1253359	n/a	LTP210	ltpFR	8	n/a	n/a	n/a	n/a	n/a	n/a	11	3	1	7	n/a	n/a	n/a	n/a	n/a
2508.266	n/a	PROB	1254133	n/a	LTP210	ltpFR	8	n/a	n/a	n/a	n/a	n/a	n/a	10	3	6	1	n/a	n/a	n/a	n/a	n/a
2510.046	n/a	PROB	1255023	n/a	LTP210	ltpFR	8	n/a	n/a	n/a	n/a	n/a	n/a	14	6	7	2	n/a	n/a	n/a	n/a	n/a
2512.842	n/a	PROB	1256421	n/a	LTP210	ltpFR	8	n/a	n/a	n/a	n/a	n/a	n/a	19	8	4	7	n/a	n/a	n/a	n/a	n/a
2518.754	n/a	STOP	1259377	n/a	LTP210	ltpFR	8	n/a	n/a	n/a	n/a	n/a	n/a	n/a	n/a	n/a	n/a	n/a	n/a	n/a	n/a	n/a
2521.18	n/a	WORD	1260590	wordpools/wasnorm_wordpool_less_exclusions.txt	LTP210	ltpFR	8	9	1	COMET	353	n/a	0	n/a	0	0	0	1	0.412841796875	0.57763671875	lower	../fonts/zerothre.ttf
2524.192	n/a	START	1262096	n/a	LTP210	ltpFR	8	n/a	n/a	n/a	n/a	n/a	n/a	n/a	n/a	n/a	n/a	n/a	n/a	n/a	n/a	n/a
2525.208	n/a	PROB	1262604	n/a	LTP210	ltpFR	8	n/a	n/a	n/a	n/a	n/a	n/a	13	3	3	5	n/a	n/a	n/a	n/a	n/a
2528.702	n/a	PROB	1264351	n/a	LTP210	ltpFR	8	n/a	n/a	n/a	n/a	n/a	n/a	19	9	7	3	n/a	n/a	n/a	n/a	n/a
2540.192	n/a	STOP	1270096	n/a	LTP210	ltpFR	8	n/a	n/a	n/a	n/a	n/a	n/a	n/a	n/a	n/a	n/a	n/a	n/a	n/a	n/a	n/a
2541.134	n/a	WORD	1270567	wordpools/wasnorm_wordpool_less_exclusions.txt	LTP210	ltpFR	8	9	1	IDOL	733	n/a	1	n/a	0	0	0	1	0.412841796875	0.57763671875	lower	../fonts/zerothre.ttf
2544.148	n/a	START	1272074	n/a	LTP210	ltpFR	8	n/a	n/a	n/a	n/a	n/a	n/a	n/a	n/a	n/a	n/a	n/a	n/a	n/a	n/a	n/a
2545.362	n/a	PROB	1272681	n/a	LTP210	ltpFR	8	n/a	n/a	n/a	n/a	n/a	n/a	12	6	4	2	n/a	n/a	n/a	n/a	n/a
2546.726	n/a	PROB	1273363	n/a	LTP210	ltpFR	8	n/a	n/a	n/a	n/a	n/a	n/a	14	6	1	7	n/a	n/a	n/a	n/a	n/a
2548.838	n/a	PROB	1274419	n/a	LTP210	ltpFR	8	n/a	n/a	n/a	n/a	n/a	n/a	18	8	7	3	n/a	n/a	n/a	n/a	n/a
2551.934	n/a	PROB	1275967	n/a	LTP210	ltpFR	8	n/a	n/a	n/a	n/a	n/a	n/a	15	2	9	4	n/a	n/a	n/a	n/a	n/a
2554.148	n/a	PROB	1277074	n/a	LTP210	ltpFR	8	n/a	n/a	n/a	n/a	n/a	n/a	19	7	5	7	n/a	n/a	n/a	n/a	n/a
2556.446	n/a	PROB	1278223	n/a	LTP210	ltpFR	8	n/a	n/a	n/a	n/a	n/a	n/a	15	3	7	5	n/a	n/a	n/a	n/a	n/a
2558.16	n/a	PROB	1279080	n/a	LTP210	ltpFR	8	n/a	n/a	n/a	n/a	n/a	n/a	15	3	9	3	n/a	n/a	n/a	n/a	n/a
2560.068	n/a	STOP	1280034	n/a	LTP210	ltpFR	8	n/a	n/a	n/a	n/a	n/a	n/a	n/a	n/a	n/a	n/a	n/a	n/a	n/a	n/a	n/a
2561.172	n/a	WORD	1280586	wordpools/wasnorm_wordpool_less_exclusions.txt	LTP210	ltpFR	8	9	1	SERVER	1272	n/a	1	n/a	0	0	0	1	0.412841796875	0.57763671875	lower	../fonts/zerothre.ttf
2564.184	n/a	START	1282092	n/a	LTP210	ltpFR	8	n/a	n/a	n/a	n/a	n/a	n/a	n/a	n/a	n/a	n/a	n/a	n/a	n/a	n/a	n/a
2565.032	n/a	PROB	1282516	n/a	LTP210	ltpFR	8	n/a	n/a	n/a	n/a	n/a	n/a	22	9	5	8	n/a	n/a	n/a	n/a	n/a
2567.994	n/a	PROB	1283997	n/a	LTP210	ltpFR	8	n/a	n/a	n/a	n/a	n/a	n/a	11	3	2	4	n/a	n/a	n/a	n/a	n/a
2570.174	n/a	PROB	1285087	n/a	LTP210	ltpFR	8	n/a	n/a	n/a	n/a	n/a	n/a	11	7	1	3	n/a	n/a	n/a	n/a	n/a
2573.784	n/a	PROB	1286892	n/a	LTP210	ltpFR	8	n/a	n/a	n/a	n/a	n/a	n/a	20	9	8	3	n/a	n/a	n/a	n/a	n/a
2576.216	n/a	PROB	1288108	n/a	LTP210	ltpFR	8	n/a	n/a	n/a	n/a	n/a	n/a	9	3	4	2	n/a	n/a	n/a	n/a	n/a
2578.708	n/a	STOP	1289354	n/a	LTP210	ltpFR	8	n/a	n/a	n/a	n/a	n/a	n/a	n/a	n/a	n/a	n/a	n/a	n/a	n/a	n/a	n/a
2581.024	n/a	WORD	1290512	wordpools/wasnorm_wordpool_less_exclusions.txt	LTP210	ltpFR	8	9	1	BUBBLE	183	n/a	0	n/a	0	0	0	1	0.412841796875	0.57763671875	lower	../fonts/zerothre.ttf
2584.038	n/a	START	1292019	n/a	LTP210	ltpFR	8	n/a	n/a	n/a	n/a	n/a	n/a	n/a	n/a	n/a	n/a	n/a	n/a	n/a	n/a	n/a
2584.868	n/a	PROB	1292434	n/a	LTP210	ltpFR	8	n/a	n/a	n/a	n/a	n/a	n/a	22	7	8	7	n/a	n/a	n/a	n/a	n/a
2587.032	n/a	PROB	1293516	n/a	LTP210	ltpFR	8	n/a	n/a	n/a	n/a	n/a	n/a	14	6	1	7	n/a	n/a	n/a	n/a	n/a
2589.412	n/a	PROB	1294706	n/a	LTP210	ltpFR	8	n/a	n/a	n/a	n/a	n/a	n/a	15	4	4	7	n/a	n/a	n/a	n/a	n/a
2591.976	n/a	PROB	1295988	n/a	LTP210	ltpFR	8	n/a	n/a	n/a	n/a	n/a	n/a	17	8	8	1	n/a	n/a	n/a	n/a	n/a
2593.49	n/a	PROB	1296745	n/a	LTP210	ltpFR	8	n/a	n/a	n/a	n/a	n/a	n/a	11	1	2	8	n/a	n/a	n/a	n/a	n/a
2594.786	n/a	PROB	1297393	n/a	LTP210	ltpFR	8	n/a	n/a	n/a	n/a	n/a	n/a	17	1	8	8	n/a	n/a	n/a	n/a	n/a
2600.038	n/a	STOP	1300019	n/a	LTP210	ltpFR	8	n/a	n/a	n/a	n/a	n/a	n/a	n/a	n/a	n/a	n/a	n/a	n/a	n/a	n/a	n/a
2601.212	n/a	WORD	1300606	wordpools/wasnorm_wordpool_less_exclusions.txt	LTP210	ltpFR	8	9	1	LITERATURE	831	n/a	0	n/a	0	0	0	1	0.412841796875	0.57763671875	lower	../fonts/zerothre.ttf
2604.224	n/a	START	1302112	n/a	LTP210	ltpFR	8	n/a	n/a	n/a	n/a	n/a	n/a	n/a	n/a	n/a	n/a	n/a	n/a	n/a	n/a	n/a
2605.356	n/a	PROB	1302678	n/a	LTP210	ltpFR	8	n/a	n/a	n/a	n/a	n/a	n/a	15	2	7	6	n/a	n/a	n/a	n/a	n/a
2608.8	n/a	PROB	1304400	n/a	LTP210	ltpFR	8	n/a	n/a	n/a	n/a	n/a	n/a	24	9	8	7	n/a	n/a	n/a	n/a	n/a
2612.312	n/a	PROB	1306156	n/a	LTP210	ltpFR	8	n/a	n/a	n/a	n/a	n/a	n/a	18	4	9	5	n/a	n/a	n/a	n/a	n/a
2614.842	n/a	PROB	1307421	n/a	LTP210	ltpFR	8	n/a	n/a	n/a	n/a	n/a	n/a	18	9	1	8	n/a	n/a	n/a	n/a	n/a
2616.306	n/a	PROB	1308153	n/a	LTP210	ltpFR	8	n/a	n/a	n/a	n/a	n/a	n/a	15	8	3	4	n/a	n/a	n/a	n/a	n/a
2618.238	n/a	PROB	1309119	n/a	LTP210	ltpFR	8	n/a	n/a	n/a	n/a	n/a	n/a	16	9	6	1	n/a	n/a	n/a	n/a	n/a
2619.988	n/a	STOP	1309994	n/a	LTP210	ltpFR	8	n/a	n/a	n/a	n/a	n/a	n/a	n/a	n/a	n/a	n/a	n/a	n/a	n/a	n/a	n/a
2621.35	n/a	WORD	1310675	wordpools/wasnorm_wordpool_less_exclusions.txt	LTP210	ltpFR	8	9	1	REPORT	1184	n/a	0	n/a	0	0	0	1	0.412841796875	0.57763671875	lower	../fonts/zerothre.ttf
2624.362	n/a	START	1312181	n/a	LTP210	ltpFR	8	n/a	n/a	n/a	n/a	n/a	n/a	n/a	n/a	n/a	n/a	n/a	n/a	n/a	n/a	n/a
2625.526	n/a	PROB	1312763	n/a	LTP210	ltpFR	8	n/a	n/a	n/a	n/a	n/a	n/a	7	1	3	3	n/a	n/a	n/a	n/a	n/a
2627.224	n/a	PROB	1313612	n/a	LTP210	ltpFR	8	n/a	n/a	n/a	n/a	n/a	n/a	16	6	6	4	n/a	n/a	n/a	n/a	n/a
2629.088	n/a	PROB	1314544	n/a	LTP210	ltpFR	8	n/a	n/a	n/a	n/a	n/a	n/a	11	2	1	8	n/a	n/a	n/a	n/a	n/a
2630.834	n/a	PROB	1315417	n/a	LTP210	ltpFR	8	n/a	n/a	n/a	n/a	n/a	n/a	12	9	1	2	n/a	n/a	n/a	n/a	n/a
2632.15	n/a	PROB	1316075	n/a	LTP210	ltpFR	8	n/a	n/a	n/a	n/a	n/a	n/a	14	7	2	5	n/a	n/a	n/a	n/a	n/a
2634.596	n/a	PROB	1317298	n/a	LTP210	ltpFR	8	n/a	n/a	n/a	n/a	n/a	n/a	20	8	6	6	n/a	n/a	n/a	n/a	n/a
2637.376	n/a	PROB	1318688	n/a	LTP210	ltpFR	8	n/a	n/a	n/a	n/a	n/a	n/a	16	1	8	7	n/a	n/a	n/a	n/a	n/a
2639.308	n/a	STOP	1319654	n/a	LTP210	ltpFR	8	n/a	n/a	n/a	n/a	n/a	n/a	n/a	n/a	n/a	n/a	n/a	n/a	n/a	n/a	n/a
2642.252	n/a	REC_START	1321126	n/a	LTP210	ltpFR	8	9	n/a	n/a	n/a	n/a	n/a	n/a	0	0	0	n/a	n/a	n/a	n/a	n/a
2644.346	n/a	REC_WORD	1322173	wordpools/wasnorm_wordpool_less_exclusions.txt	LTP210	ltpFR	8	9	1	REPORT	1184	n/a	0	n/a	0	0	0	n/a	n/a	n/a	n/a	n/a
2690.876	n/a	REC_WORD	1345438	wordpools/wasnorm_wordpool_less_exclusions.txt	LTP210	ltpFR	8	9	0	HUMAN	726	n/a	1	n/a	0	0	0	n/a	n/a	n/a	n/a	n/a
2727.558	n/a	WORD	1363779	wordpools/wasnorm_wordpool_less_exclusions.txt	LTP210	ltpFR	8	10	1	NAVIGATOR	938	n/a	1	n/a	0	0	0	1	0.412841796875	0.57763671875	lower	../fonts/zerothre.ttf
2731.452	n/a	WORD	1365726	wordpools/wasnorm_wordpool_less_exclusions.txt	LTP210	ltpFR	8	10	1	PIE	1062	n/a	0	n/a	0	0	0	1	0.412841796875	0.57763671875	lower	../fonts/zerothre.ttf
2735.512	n/a	WORD	1367756	wordpools/wasnorm_wordpool_less_exclusions.txt	LTP210	ltpFR	8	10	0	TILE	1468	n/a	0	n/a	0	0	0	0	0.5869140625	0.422607421875	upper	../fonts/amplitud.ttf
2739.506	n/a	WORD	1369753	wordpools/wasnorm_wordpool_less_exclusions.txt	LTP210	ltpFR	8	10	0	MAT	877	n/a	1	n/a	0	0	0	0	0.5869140625	0.422607421875	upper	../fonts/amplitud.ttf
2743.7	n/a	WORD	1371850	wordpools/wasnorm_wordpool_less_exclusions.txt	LTP210	ltpFR	8	10	1	LIPSTICK	829	n/a	0	n/a	0	0	0	1	0.412841796875	0.57763671875	lower	../fonts/zerothre.ttf
2747.726	n/a	WORD	1373863	wordpools/wasnorm_wordpool_less_exclusions.txt	LTP210	ltpFR	8	10	1	WALLET	1583	n/a	0	n/a	0	0	0	1	0.412841796875	0.57763671875	lower	../fonts/zerothre.ttf
2751.87	n/a	WORD	1375935	wordpools/wasnorm_wordpool_less_exclusions.txt	LTP210	ltpFR	8	10	1	SARDINE	1235	n/a	1	n/a	0	0	0	1	0.412841796875	0.57763671875	lower	../fonts/zerothre.ttf
2755.848	n/a	WORD	1377924	wordpools/wasnorm_wordpool_less_exclusions.txt	LTP210	ltpFR	8	10	0	RIB	1188	n/a	1	n/a	0	0	0	0	0.5869140625	0.422607421875	upper	../fonts/amplitud.ttf
2760.06	n/a	WORD	1380030	wordpools/wasnorm_wordpool_less_exclusions.txt	LTP210	ltpFR	8	10	0	BRIEFCASE	175	n/a	1	n/a	0	0	0	0	0.5869140625	0.422607421875	upper	../fonts/amplitud.ttf
2764.254	n/a	WORD	1382127	wordpools/wasnorm_wordpool_less_exclusions.txt	LTP210	ltpFR	8	10	0	BOSS	152	n/a	1	n/a	0	0	0	0	0.5869140625	0.422607421875	upper	../fonts/amplitud.ttf
2768.482	n/a	WORD	1384241	wordpools/wasnorm_wordpool_less_exclusions.txt	LTP210	ltpFR	8	10	0	PIRATE	1074	n/a	1	n/a	0	0	0	0	0.5869140625	0.422607421875	upper	../fonts/amplitud.ttf
2772.492	n/a	WORD	1386246	wordpools/wasnorm_wordpool_less_exclusions.txt	LTP210	ltpFR	8	10	0	CATERPILLAR	259	n/a	0	n/a	0	0	0	0	0.5869140625	0.422607421875	upper	../fonts/amplitud.ttf
2776.57	n/a	WORD	1388285	wordpools/wasnorm_wordpool_less_exclusions.txt	LTP210	ltpFR	8	10	0	BAKER	71	n/a	1	n/a	0	0	0	0	0.5869140625	0.422607421875	upper	../fonts/amplitud.ttf
2780.63	n/a	WORD	1390315	wordpools/wasnorm_wordpool_less_exclusions.txt	LTP210	ltpFR	8	10	1	PREACHER	1119	n/a	1	n/a	0	0	0	1	0.412841796875	0.57763671875	lower	../fonts/zerothre.ttf
2784.608	n/a	WORD	1392304	wordpools/wasnorm_wordpool_less_exclusions.txt	LTP210	ltpFR	8	10	1	TEMPLE	1448	n/a	0	n/a	0	0	0	1	0.412841796875	0.57763671875	lower	../fonts/zerothre.ttf
2788.502	n/a	WORD	1394251	wordpools/wasnorm_wordpool_less_exclusions.txt	LTP210	ltpFR	8	10	1	SALMON	1227	n/a	1	n/a	0	0	0	1	0.412841796875	0.57763671875	lower	../fonts/zerothre.ttf
2791.514	n/a	START	1395757	n/a	LTP210	ltpFR	8	n/a	n/a	n/a	n/a	n/a	n/a	n/a	n/a	n/a	n/a	n/a	n/a	n/a	n/a	n/a
2792.362	n/a	PROB	1396181	n/a	LTP210	ltpFR	8	n/a	n/a	n/a	n/a	n/a	n/a	7	5	1	1	n/a	n/a	n/a	n/a	n/a
2795.292	n/a	PROB	1397646	n/a	LTP210	ltpFR	8	n/a	n/a	n/a	n/a	n/a	n/a	14	8	4	2	n/a	n/a	n/a	n/a	n/a
2796.772	n/a	PROB	1398386	n/a	LTP210	ltpFR	8	n/a	n/a	n/a	n/a	n/a	n/a	6	3	2	1	n/a	n/a	n/a	n/a	n/a
2798.11	n/a	STOP	1399055	n/a	LTP210	ltpFR	8	n/a	n/a	n/a	n/a	n/a	n/a	n/a	n/a	n/a	n/a	n/a	n/a	n/a	n/a	n/a
2801.316	n/a	REC_START	1400658	n/a	LTP210	ltpFR	8	10	n/a	n/a	n/a	n/a	n/a	n/a	0	0	0	n/a	n/a	n/a	n/a	n/a
2802.264	n/a	REC_WORD	1401132	wordpools/wasnorm_wordpool_less_exclusions.txt	LTP210	ltpFR	8	10	1	SARDINE	1235	n/a	1	n/a	0	0	0	n/a	n/a	n/a	n/a	n/a
2807.786	n/a	REC_WORD	1403893	wordpools/wasnorm_wordpool_less_exclusions.txt	LTP210	ltpFR	8	10	1	SALMON	1227	n/a	1	n/a	0	0	0	n/a	n/a	n/a	n/a	n/a
2832.416	n/a	REC_WORD	1416208	wordpools/wasnorm_wordpool_less_exclusions.txt	LTP210	ltpFR	8	10	1	PREACHER	1119	n/a	1	n/a	0	0	0	n/a	n/a	n/a	n/a	n/a
2834.91	n/a	REC_WORD	1417455	wordpools/wasnorm_wordpool_less_exclusions.txt	LTP210	ltpFR	8	10	1	TEMPLE	1448	n/a	0	n/a	0	0	0	n/a	n/a	n/a	n/a	n/a
2876.92	n/a	REST_REWET	1438460	n/a	LTP210	ltpFR	8	10	n/a	n/a	n/a	n/a	n/a	n/a	0	0	0	n/a	n/a	n/a	n/a	n/a
3221.344	n/a	START	1610672	n/a	LTP210	ltpFR	8	n/a	n/a	n/a	n/a	n/a	n/a	n/a	n/a	n/a	n/a	n/a	n/a	n/a	n/a	n/a
3222.858	n/a	PROB	1611429	n/a	LTP210	ltpFR	8	n/a	n/a	n/a	n/a	n/a	n/a	15	5	2	8	n/a	n/a	n/a	n/a	n/a
3224.39	n/a	PROB	1612195	n/a	LTP210	ltpFR	8	n/a	n/a	n/a	n/a	n/a	n/a	16	7	7	2	n/a	n/a	n/a	n/a	n/a
3227.634	n/a	PROB	1613817	n/a	LTP210	ltpFR	8	n/a	n/a	n/a	n/a	n/a	n/a	12	1	2	9	n/a	n/a	n/a	n/a	n/a
3229.092	n/a	STOP	1614546	n/a	LTP210	ltpFR	8	n/a	n/a	n/a	n/a	n/a	n/a	n/a	n/a	n/a	n/a	n/a	n/a	n/a	n/a	n/a
3230.464	n/a	WORD	1615232	wordpools/wasnorm_wordpool_less_exclusions.txt	LTP210	ltpFR	8	11	1	GRAPE	654	n/a	1	n/a	0	0	0	1	0.412841796875	0.57763671875	lower	../fonts/zerothre.ttf
3233.476	n/a	START	1616738	n/a	LTP210	ltpFR	8	n/a	n/a	n/a	n/a	n/a	n/a	n/a	n/a	n/a	n/a	n/a	n/a	n/a	n/a	n/a
3234.392	n/a	PROB	1617196	n/a	LTP210	ltpFR	8	n/a	n/a	n/a	n/a	n/a	n/a	12	2	7	3	n/a	n/a	n/a	n/a	n/a
3236.022	n/a	PROB	1618011	n/a	LTP210	ltpFR	8	n/a	n/a	n/a	n/a	n/a	n/a	16	2	6	8	n/a	n/a	n/a	n/a	n/a
3237.786	n/a	PROB	1618893	n/a	LTP210	ltpFR	8	n/a	n/a	n/a	n/a	n/a	n/a	11	2	3	6	n/a	n/a	n/a	n/a	n/a
3241.476	n/a	STOP	1620738	n/a	LTP210	ltpFR	8	n/a	n/a	n/a	n/a	n/a	n/a	n/a	n/a	n/a	n/a	n/a	n/a	n/a	n/a	n/a
3242.562	n/a	WORD	1621281	wordpools/wasnorm_wordpool_less_exclusions.txt	LTP210	ltpFR	8	11	1	SPONGE	1355	n/a	0	n/a	0	0	0	1	0.412841796875	0.57763671875	lower	../fonts/zerothre.ttf
3245.576	n/a	START	1622788	n/a	LTP210	ltpFR	8	n/a	n/a	n/a	n/a	n/a	n/a	n/a	n/a	n/a	n/a	n/a	n/a	n/a	n/a	n/a
3246.788	n/a	PROB	1623394	n/a	LTP210	ltpFR	8	n/a	n/a	n/a	n/a	n/a	n/a	22	6	7	9	n/a	n/a	n/a	n/a	n/a
3250.434	n/a	PROB	1625217	n/a	LTP210	ltpFR	8	n/a	n/a	n/a	n/a	n/a	n/a	11	4	1	6	n/a	n/a	n/a	n/a	n/a
3251.914	n/a	PROB	1625957	n/a	LTP210	ltpFR	8	n/a	n/a	n/a	n/a	n/a	n/a	17	8	2	7	n/a	n/a	n/a	n/a	n/a
3253.116	n/a	STOP	1626558	n/a	LTP210	ltpFR	8	n/a	n/a	n/a	n/a	n/a	n/a	n/a	n/a	n/a	n/a	n/a	n/a	n/a	n/a	n/a
3254.728	n/a	WORD	1627364	wordpools/wasnorm_wordpool_less_exclusions.txt	LTP210	ltpFR	8	11	0	DISHWASHER	475	n/a	1	n/a	0	0	0	0	0.5869140625	0.422607421875	upper	../fonts/amplitud.ttf
3257.74	n/a	START	1628870	n/a	LTP210	ltpFR	8	n/a	n/a	n/a	n/a	n/a	n/a	n/a	n/a	n/a	n/a	n/a	n/a	n/a	n/a	n/a
3258.87	n/a	PROB	1629435	n/a	LTP210	ltpFR	8	n/a	n/a	n/a	n/a	n/a	n/a	15	4	8	3	n/a	n/a	n/a	n/a	n/a
3260.668	n/a	PROB	1630334	n/a	LTP210	ltpFR	8	n/a	n/a	n/a	n/a	n/a	n/a	12	5	1	6	n/a	n/a	n/a	n/a	n/a
3262.914	n/a	PROB	1631457	n/a	LTP210	ltpFR	8	n/a	n/a	n/a	n/a	n/a	n/a	13	2	5	6	n/a	n/a	n/a	n/a	n/a
3265.228	n/a	STOP	1632614	n/a	LTP210	ltpFR	8	n/a	n/a	n/a	n/a	n/a	n/a	n/a	n/a	n/a	n/a	n/a	n/a	n/a	n/a	n/a
3266.742	n/a	WORD	1633371	wordpools/wasnorm_wordpool_less_exclusions.txt	LTP210	ltpFR	8	11	0	PITCHFORK	1078	n/a	1	n/a	0	0	0	0	0.5869140625	0.422607421875	upper	../fonts/amplitud.ttf
3269.754	n/a	START	1634877	n/a	LTP210	ltpFR	8	n/a	n/a	n/a	n/a	n/a	n/a	n/a	n/a	n/a	n/a	n/a	n/a	n/a	n/a	n/a
3270.638	n/a	PROB	1635319	n/a	LTP210	ltpFR	8	n/a	n/a	n/a	n/a	n/a	n/a	16	5	5	6	n/a	n/a	n/a	n/a	n/a
3271.868	n/a	PROB	1635934	n/a	LTP210	ltpFR	8	n/a	n/a	n/a	n/a	n/a	n/a	25	9	7	9	n/a	n/a	n/a	n/a	n/a
3274.4	n/a	PROB	1637200	n/a	LTP210	ltpFR	8	n/a	n/a	n/a	n/a	n/a	n/a	13	4	3	6	n/a	n/a	n/a	n/a	n/a
3276.31	n/a	STOP	1638155	n/a	LTP210	ltpFR	8	n/a	n/a	n/a	n/a	n/a	n/a	n/a	n/a	n/a	n/a	n/a	n/a	n/a	n/a	n/a
3278.874	n/a	WORD	1639437	wordpools/wasnorm_wordpool_less_exclusions.txt	LTP210	ltpFR	8	11	0	ELK	526	n/a	1	n/a	0	0	0	0	0.5869140625	0.422607421875	upper	../fonts/amplitud.ttf
3281.888	n/a	START	1640944	n/a	LTP210	ltpFR	8	n/a	n/a	n/a	n/a	n/a	n/a	n/a	n/a	n/a	n/a	n/a	n/a	n/a	n/a	n/a
3282.736	n/a	PROB	1641368	n/a	LTP210	ltpFR	8	n/a	n/a	n/a	n/a	n/a	n/a	8	4	3	1	n/a	n/a	n/a	n/a	n/a
3284.568	n/a	PROB	1642284	n/a	LTP210	ltpFR	8	n/a	n/a	n/a	n/a	n/a	n/a	12	8	2	2	n/a	n/a	n/a	n/a	n/a
3285.948	n/a	PROB	1642974	n/a	LTP210	ltpFR	8	n/a	n/a	n/a	n/a	n/a	n/a	14	9	3	2	n/a	n/a	n/a	n/a	n/a
3289.888	n/a	STOP	1644944	n/a	LTP210	ltpFR	8	n/a	n/a	n/a	n/a	n/a	n/a	n/a	n/a	n/a	n/a	n/a	n/a	n/a	n/a	n/a
3290.774	n/a	WORD	1645387	wordpools/wasnorm_wordpool_less_exclusions.txt	LTP210	ltpFR	8	11	0	STUMP	1396	n/a	1	n/a	0	0	0	0	0.5869140625	0.422607421875	upper	../fonts/amplitud.ttf
3293.786	n/a	START	1646893	n/a	LTP210	ltpFR	8	n/a	n/a	n/a	n/a	n/a	n/a	n/a	n/a	n/a	n/a	n/a	n/a	n/a	n/a	n/a
3294.852	n/a	PROB	1647426	n/a	LTP210	ltpFR	8	n/a	n/a	n/a	n/a	n/a	n/a	13	3	8	2	n/a	n/a	n/a	n/a	n/a
3296.15	n/a	PROB	1648075	n/a	LTP210	ltpFR	8	n/a	n/a	n/a	n/a	n/a	n/a	12	4	3	5	n/a	n/a	n/a	n/a	n/a
3298.48	n/a	PROB	1649240	n/a	LTP210	ltpFR	8	n/a	n/a	n/a	n/a	n/a	n/a	15	4	4	7	n/a	n/a	n/a	n/a	n/a
3300.598	n/a	STOP	1650299	n/a	LTP210	ltpFR	8	n/a	n/a	n/a	n/a	n/a	n/a	n/a	n/a	n/a	n/a	n/a	n/a	n/a	n/a	n/a
3302.922	n/a	WORD	1651461	wordpools/wasnorm_wordpool_less_exclusions.txt	LTP210	ltpFR	8	11	0	GUM	672	n/a	0	n/a	0	0	0	0	0.5869140625	0.422607421875	upper	../fonts/amplitud.ttf
3305.934	n/a	START	1652967	n/a	LTP210	ltpFR	8	n/a	n/a	n/a	n/a	n/a	n/a	n/a	n/a	n/a	n/a	n/a	n/a	n/a	n/a	n/a
3307.068	n/a	PROB	1653534	n/a	LTP210	ltpFR	8	n/a	n/a	n/a	n/a	n/a	n/a	11	1	1	9	n/a	n/a	n/a	n/a	n/a
3308.248	n/a	PROB	1654124	n/a	LTP210	ltpFR	8	n/a	n/a	n/a	n/a	n/a	n/a	16	9	6	1	n/a	n/a	n/a	n/a	n/a
3309.762	n/a	PROB	1654881	n/a	LTP210	ltpFR	8	n/a	n/a	n/a	n/a	n/a	n/a	15	1	9	5	n/a	n/a	n/a	n/a	n/a
3310.828	n/a	PROB	1655414	n/a	LTP210	ltpFR	8	n/a	n/a	n/a	n/a	n/a	n/a	22	6	8	8	n/a	n/a	n/a	n/a	n/a
3312.382	n/a	STOP	1656191	n/a	LTP210	ltpFR	8	n/a	n/a	n/a	n/a	n/a	n/a	n/a	n/a	n/a	n/a	n/a	n/a	n/a	n/a	n/a
3314.988	n/a	WORD	1657494	wordpools/wasnorm_wordpool_less_exclusions.txt	LTP210	ltpFR	8	11	1	BOTTLE	153	n/a	0	n/a	0	0	0	1	0.412841796875	0.57763671875	lower	../fonts/zerothre.ttf
3318.002	n/a	START	1659001	n/a	LTP210	ltpFR	8	n/a	n/a	n/a	n/a	n/a	n/a	n/a	n/a	n/a	n/a	n/a	n/a	n/a	n/a	n/a
3318.932	n/a	PROB	1659466	n/a	LTP210	ltpFR	8	n/a	n/a	n/a	n/a	n/a	n/a	8	2	3	3	n/a	n/a	n/a	n/a	n/a
3322.528	n/a	PROB	1661264	n/a	LTP210	ltpFR	8	n/a	n/a	n/a	n/a	n/a	n/a	15	8	1	6	n/a	n/a	n/a	n/a	n/a
3325.03	n/a	STOP	1662515	n/a	LTP210	ltpFR	8	n/a	n/a	n/a	n/a	n/a	n/a	n/a	n/a	n/a	n/a	n/a	n/a	n/a	n/a	n/a
3327.17	n/a	WORD	1663585	wordpools/wasnorm_wordpool_less_exclusions.txt	LTP210	ltpFR	8	11	1	ANGEL	22	n/a	1	n/a	0	0	0	1	0.412841796875	0.57763671875	lower	../fonts/zerothre.ttf
3330.184	n/a	START	1665092	n/a	LTP210	ltpFR	8	n/a	n/a	n/a	n/a	n/a	n/a	n/a	n/a	n/a	n/a	n/a	n/a	n/a	n/a	n/a
3331.28	n/a	PROB	1665640	n/a	LTP210	ltpFR	8	n/a	n/a	n/a	n/a	n/a	n/a	19	9	6	4	n/a	n/a	n/a	n/a	n/a
3332.996	n/a	PROB	1666498	n/a	LTP210	ltpFR	8	n/a	n/a	n/a	n/a	n/a	n/a	16	3	4	9	n/a	n/a	n/a	n/a	n/a
3334.742	n/a	PROB	1667371	n/a	LTP210	ltpFR	8	n/a	n/a	n/a	n/a	n/a	n/a	7	3	1	3	n/a	n/a	n/a	n/a	n/a
3336.606	n/a	PROB	1668303	n/a	LTP210	ltpFR	8	n/a	n/a	n/a	n/a	n/a	n/a	13	8	2	3	n/a	n/a	n/a	n/a	n/a
3337.756	n/a	STOP	1668878	n/a	LTP210	ltpFR	8	n/a	n/a	n/a	n/a	n/a	n/a	n/a	n/a	n/a	n/a	n/a	n/a	n/a	n/a	n/a
3339.002	n/a	WORD	1669501	wordpools/wasnorm_wordpool_less_exclusions.txt	LTP210	ltpFR	8	11	1	JUNGLE	764	n/a	0	n/a	0	0	0	1	0.412841796875	0.57763671875	lower	../fonts/zerothre.ttf
3342.016	n/a	START	1671008	n/a	LTP210	ltpFR	8	n/a	n/a	n/a	n/a	n/a	n/a	n/a	n/a	n/a	n/a	n/a	n/a	n/a	n/a	n/a
3342.93	n/a	PROB	1671465	n/a	LTP210	ltpFR	8	n/a	n/a	n/a	n/a	n/a	n/a	20	9	2	9	n/a	n/a	n/a	n/a	n/a
3344.828	n/a	PROB	1672414	n/a	LTP210	ltpFR	8	n/a	n/a	n/a	n/a	n/a	n/a	16	6	1	9	n/a	n/a	n/a	n/a	n/a
3347.192	n/a	PROB	1673596	n/a	LTP210	ltpFR	8	n/a	n/a	n/a	n/a	n/a	n/a	16	5	3	8	n/a	n/a	n/a	n/a	n/a
3349.462	n/a	STOP	1674731	n/a	LTP210	ltpFR	8	n/a	n/a	n/a	n/a	n/a	n/a	n/a	n/a	n/a	n/a	n/a	n/a	n/a	n/a	n/a
3351.02	n/a	WORD	1675510	wordpools/wasnorm_wordpool_less_exclusions.txt	LTP210	ltpFR	8	11	1	MAPLE	866	n/a	1	n/a	0	0	0	1	0.412841796875	0.57763671875	lower	../fonts/zerothre.ttf
3354.032	n/a	START	1677016	n/a	LTP210	ltpFR	8	n/a	n/a	n/a	n/a	n/a	n/a	n/a	n/a	n/a	n/a	n/a	n/a	n/a	n/a	n/a
3354.946	n/a	PROB	1677473	n/a	LTP210	ltpFR	8	n/a	n/a	n/a	n/a	n/a	n/a	14	4	4	5	n/a	n/a	n/a	n/a	n/a
3362.032	n/a	STOP	1681016	n/a	LTP210	ltpFR	8	n/a	n/a	n/a	n/a	n/a	n/a	n/a	n/a	n/a	n/a	n/a	n/a	n/a	n/a	n/a
3362.984	n/a	WORD	1681492	wordpools/wasnorm_wordpool_less_exclusions.txt	LTP210	ltpFR	8	11	1	ORCHID	982	n/a	1	n/a	0	0	0	1	0.412841796875	0.57763671875	lower	../fonts/zerothre.ttf
3365.998	n/a	START	1682999	n/a	LTP210	ltpFR	8	n/a	n/a	n/a	n/a	n/a	n/a	n/a	n/a	n/a	n/a	n/a	n/a	n/a	n/a	n/a
3366.978	n/a	PROB	1683489	n/a	LTP210	ltpFR	8	n/a	n/a	n/a	n/a	n/a	n/a	16	2	7	7	n/a	n/a	n/a	n/a	n/a
3369.658	n/a	PROB	1684829	n/a	LTP210	ltpFR	8	n/a	n/a	n/a	n/a	n/a	n/a	11	5	5	1	n/a	n/a	n/a	n/a	n/a
3370.64	n/a	PROB	1685320	n/a	LTP210	ltpFR	8	n/a	n/a	n/a	n/a	n/a	n/a	13	6	5	2	n/a	n/a	n/a	n/a	n/a
3372.288	n/a	PROB	1686144	n/a	LTP210	ltpFR	8	n/a	n/a	n/a	n/a	n/a	n/a	16	3	5	8	n/a	n/a	n/a	n/a	n/a
3373.95	n/a	STOP	1686975	n/a	LTP210	ltpFR	8	n/a	n/a	n/a	n/a	n/a	n/a	n/a	n/a	n/a	n/a	n/a	n/a	n/a	n/a	n/a
3375.034	n/a	WORD	1687517	wordpools/wasnorm_wordpool_less_exclusions.txt	LTP210	ltpFR	8	11	1	FLOWER	584	n/a	1	n/a	0	0	0	1	0.412841796875	0.57763671875	lower	../fonts/zerothre.ttf
3378.046	n/a	START	1689023	n/a	LTP210	ltpFR	8	n/a	n/a	n/a	n/a	n/a	n/a	n/a	n/a	n/a	n/a	n/a	n/a	n/a	n/a	n/a
3379.194	n/a	PROB	1689597	n/a	LTP210	ltpFR	8	n/a	n/a	n/a	n/a	n/a	n/a	18	2	8	8	n/a	n/a	n/a	n/a	n/a
3380.558	n/a	PROB	1690279	n/a	LTP210	ltpFR	8	n/a	n/a	n/a	n/a	n/a	n/a	18	7	6	5	n/a	n/a	n/a	n/a	n/a
3382.406	n/a	PROB	1691203	n/a	LTP210	ltpFR	8	n/a	n/a	n/a	n/a	n/a	n/a	14	6	3	5	n/a	n/a	n/a	n/a	n/a
3384.678	n/a	STOP	1692339	n/a	LTP210	ltpFR	8	n/a	n/a	n/a	n/a	n/a	n/a	n/a	n/a	n/a	n/a	n/a	n/a	n/a	n/a	n/a
3387.216	n/a	WORD	1693608	wordpools/wasnorm_wordpool_less_exclusions.txt	LTP210	ltpFR	8	11	0	BANDIT	81	n/a	1	n/a	0	0	0	0	0.5869140625	0.422607421875	upper	../fonts/amplitud.ttf
3390.228	n/a	START	1695114	n/a	LTP210	ltpFR	8	n/a	n/a	n/a	n/a	n/a	n/a	n/a	n/a	n/a	n/a	n/a	n/a	n/a	n/a	n/a
3391.176	n/a	PROB	1695588	n/a	LTP210	ltpFR	8	n/a	n/a	n/a	n/a	n/a	n/a	16	6	4	6	n/a	n/a	n/a	n/a	n/a
3392.706	n/a	PROB	1696353	n/a	LTP210	ltpFR	8	n/a	n/a	n/a	n/a	n/a	n/a	21	7	9	5	n/a	n/a	n/a	n/a	n/a
3394.72	n/a	PROB	1697360	n/a	LTP210	ltpFR	8	n/a	n/a	n/a	n/a	n/a	n/a	17	6	5	6	n/a	n/a	n/a	n/a	n/a
3398.228	n/a	STOP	1699114	n/a	LTP210	ltpFR	8	n/a	n/a	n/a	n/a	n/a	n/a	n/a	n/a	n/a	n/a	n/a	n/a	n/a	n/a	n/a
3399.214	n/a	WORD	1699607	wordpools/wasnorm_wordpool_less_exclusions.txt	LTP210	ltpFR	8	11	0	TABLE	1426	n/a	1	n/a	0	0	0	0	0.5869140625	0.422607421875	upper	../fonts/amplitud.ttf
3402.226	n/a	START	1701113	n/a	LTP210	ltpFR	8	n/a	n/a	n/a	n/a	n/a	n/a	n/a	n/a	n/a	n/a	n/a	n/a	n/a	n/a	n/a
3403.042	n/a	PROB	1701521	n/a	LTP210	ltpFR	8	n/a	n/a	n/a	n/a	n/a	n/a	13	5	2	6	n/a	n/a	n/a	n/a	n/a
3405.388	n/a	PROB	1702694	n/a	LTP210	ltpFR	8	n/a	n/a	n/a	n/a	n/a	n/a	16	7	6	3	n/a	n/a	n/a	n/a	n/a
3407.168	n/a	PROB	1703584	n/a	LTP210	ltpFR	8	n/a	n/a	n/a	n/a	n/a	n/a	17	9	1	7	n/a	n/a	n/a	n/a	n/a
3408.838	n/a	STOP	1704419	n/a	LTP210	ltpFR	8	n/a	n/a	n/a	n/a	n/a	n/a	n/a	n/a	n/a	n/a	n/a	n/a	n/a	n/a	n/a
3411.296	n/a	WORD	1705648	wordpools/wasnorm_wordpool_less_exclusions.txt	LTP210	ltpFR	8	11	0	HORIZON	717	n/a	1	n/a	0	0	0	0	0.5869140625	0.422607421875	upper	../fonts/amplitud.ttf
3414.308	n/a	START	1707154	n/a	LTP210	ltpFR	8	n/a	n/a	n/a	n/a	n/a	n/a	n/a	n/a	n/a	n/a	n/a	n/a	n/a	n/a	n/a
3415.374	n/a	PROB	1707687	n/a	LTP210	ltpFR	8	n/a	n/a	n/a	n/a	n/a	n/a	17	8	8	1	n/a	n/a	n/a	n/a	n/a
3417.92	n/a	PROB	1708960	n/a	LTP210	ltpFR	8	n/a	n/a	n/a	n/a	n/a	n/a	12	2	2	8	n/a	n/a	n/a	n/a	n/a
3422.31	n/a	STOP	1711155	n/a	LTP210	ltpFR	8	n/a	n/a	n/a	n/a	n/a	n/a	n/a	n/a	n/a	n/a	n/a	n/a	n/a	n/a	n/a
3424.162	n/a	REC_START	1712081	n/a	LTP210	ltpFR	8	11	n/a	n/a	n/a	n/a	n/a	n/a	0	0	0	n/a	n/a	n/a	n/a	n/a
3425.318	n/a	REC_WORD	1712659	wordpools/wasnorm_wordpool_less_exclusions.txt	LTP210	ltpFR	8	11	0	HORIZON	717	n/a	1	n/a	0	0	0	n/a	n/a	n/a	n/a	n/a
3432.348	n/a	REC_WORD	1716174	wordpools/wasnorm_wordpool_less_exclusions.txt	LTP210	ltpFR	8	11	1	ANGEL	22	n/a	1	n/a	0	0	0	n/a	n/a	n/a	n/a	n/a
3439.906	n/a	REC_WORD	1719953	wordpools/wasnorm_wordpool_less_exclusions.txt	LTP210	ltpFR	8	11	1	SPONGE	1355	n/a	0	n/a	0	0	0	n/a	n/a	n/a	n/a	n/a
3467.672	n/a	REC_WORD	1733836	wordpools/wasnorm_wordpool_less_exclusions.txt	LTP210	ltpFR	8	11	0	DISHWASHER	475	n/a	1	n/a	0	0	0	n/a	n/a	n/a	n/a	n/a
3479.71	n/a	REC_WORD	1739855	wordpools/wasnorm_wordpool_less_exclusions.txt	LTP210	ltpFR	8	11	0	MOP	916	n/a	1	n/a	0	0	0	n/a	n/a	n/a	n/a	n/a
3509.086	n/a	WORD	1754543	wordpools/wasnorm_wordpool_less_exclusions.txt	LTP210	ltpFR	8	12	0	EDITORIAL	517	n/a	1	n/a	0	0	0	0	0.5869140625	0.422607421875	upper	../fonts/amplitud.ttf
3513.196	n/a	WORD	1756598	wordpools/wasnorm_wordpool_less_exclusions.txt	LTP210	ltpFR	8	12	0	HANDBAG	684	n/a	0	n/a	0	0	0	0	0.5869140625	0.422607421875	upper	../fonts/amplitud.ttf
3517.272	n/a	WORD	1758636	wordpools/wasnorm_wordpool_less_exclusions.txt	LTP210	ltpFR	8	12	0	MAJOR	859	n/a	0	n/a	0	0	0	0	0.5869140625	0.422607421875	upper	../fonts/amplitud.ttf
3521.234	n/a	WORD	1760617	wordpools/wasnorm_wordpool_less_exclusions.txt	LTP210	ltpFR	8	12	0	OPERA	978	n/a	1	n/a	0	0	0	0	0.5869140625	0.422607421875	upper	../fonts/amplitud.ttf
3525.31	n/a	WORD	1762655	wordpools/wasnorm_wordpool_less_exclusions.txt	LTP210	ltpFR	8	12	0	CACTUS	215	n/a	1	n/a	0	0	0	0	0.5869140625	0.422607421875	upper	../fonts/amplitud.ttf
