mstime	trial_type	stim_file	subject	experiment	session	trial	item_name	item_num	list	answer	test_x	test_y	test_z
0	SESS_START	n/a	LTP362	ltpFR2	13	n/a	n/a	n/a	n/a	n/a	0	0	0
14512	START	n/a	LTP362	ltpFR2	13	n/a	n/a	n/a	-1	n/a	n/a	n/a	n/a
14542	PROB	n/a	LTP362	ltpFR2	13	n/a	n/a	n/a	-1	13	1	9	3
15675	PROB	n/a	LTP362	ltpFR2	13	n/a	n/a	n/a	-1	10	5	2	3
16758	PROB	n/a	LTP362	ltpFR2	13	n/a	n/a	n/a	-1	19	7	4	8
18491	PROB	n/a	LTP362	ltpFR2	13	n/a	n/a	n/a	-1	16	4	6	6
19657	PROB	n/a	LTP362	ltpFR2	13	n/a	n/a	n/a	-1	18	6	4	8
20740	PROB	n/a	LTP362	ltpFR2	13	n/a	n/a	n/a	-1	19	9	1	9
21856	PROB	n/a	LTP362	ltpFR2	13	n/a	n/a	n/a	-1	13	4	8	1
23323	PROB	n/a	LTP362	ltpFR2	13	n/a	n/a	n/a	-1	11	2	1	8
26512	STOP	n/a	LTP362	ltpFR2	13	n/a	n/a	n/a	-1	n/a	n/a	n/a	n/a
56425	WORD	wordpools/wasnorm_wordpool_576.txt	LTP362	ltpFR2	13	1	SLOPE	1328	n/a	n/a	0	0	0
59090	WORD	wordpools/wasnorm_wordpool_576.txt	LTP362	ltpFR2	13	1	SOFTBALL	1343	n/a	n/a	0	0	0
61804	WORD	wordpools/wasnorm_wordpool_576.txt	LTP362	ltpFR2	13	1	PEPPER	1047	n/a	n/a	0	0	0
64388	WORD	wordpools/wasnorm_wordpool_576.txt	LTP362	ltpFR2	13	1	PICTURE	1061	n/a	n/a	0	0	0
67103	WORD	wordpools/wasnorm_wordpool_576.txt	LTP362	ltpFR2	13	1	QUAIL	1147	n/a	n/a	0	0	0
69568	WORD	wordpools/wasnorm_wordpool_576.txt	LTP362	ltpFR2	13	1	HONEY	713	n/a	n/a	0	0	0
72184	WORD	wordpools/wasnorm_wordpool_576.txt	LTP362	ltpFR2	13	1	PIZZA	1079	n/a	n/a	0	0	0
74933	WORD	wordpools/wasnorm_wordpool_576.txt	LTP362	ltpFR2	13	1	SEAFOOD	1260	n/a	n/a	0	0	0
77681	WORD	wordpools/wasnorm_wordpool_576.txt	LTP362	ltpFR2	13	1	LIVER	833	n/a	n/a	0	0	0
80380	WORD	wordpools/wasnorm_wordpool_576.txt	LTP362	ltpFR2	13	1	MEAT	883	n/a	n/a	0	0	0
82979	WORD	wordpools/wasnorm_wordpool_576.txt	LTP362	ltpFR2	13	1	WHISKERS	1605	n/a	n/a	0	0	0
85494	WORD	wordpools/wasnorm_wordpool_576.txt	LTP362	ltpFR2	13	1	DRIVER	499	n/a	n/a	0	0	0
88144	WORD	wordpools/wasnorm_wordpool_576.txt	LTP362	ltpFR2	13	1	CHAUFFEUR	283	n/a	n/a	0	0	0
90708	WORD	wordpools/wasnorm_wordpool_576.txt	LTP362	ltpFR2	13	1	LACE	792	n/a	n/a	0	0	0
93191	WORD	wordpools/wasnorm_wordpool_576.txt	LTP362	ltpFR2	13	1	WASP	1593	n/a	n/a	0	0	0
95672	WORD	wordpools/wasnorm_wordpool_576.txt	LTP362	ltpFR2	13	1	OUTFIT	988	n/a	n/a	0	0	0
98289	WORD	wordpools/wasnorm_wordpool_576.txt	LTP362	ltpFR2	13	1	YARN	1631	n/a	n/a	0	0	0
100938	WORD	wordpools/wasnorm_wordpool_576.txt	LTP362	ltpFR2	13	1	ONION	977	n/a	n/a	0	0	0
103519	WORD	wordpools/wasnorm_wordpool_576.txt	LTP362	ltpFR2	13	1	FILM	565	n/a	n/a	0	0	0
106202	WORD	wordpools/wasnorm_wordpool_576.txt	LTP362	ltpFR2	13	1	HARP	689	n/a	n/a	0	0	0
108766	WORD	wordpools/wasnorm_wordpool_576.txt	LTP362	ltpFR2	13	1	WHISTLE	1606	n/a	n/a	0	0	0
111316	WORD	wordpools/wasnorm_wordpool_576.txt	LTP362	ltpFR2	13	1	LIPSTICK	829	n/a	n/a	0	0	0
114099	WORD	wordpools/wasnorm_wordpool_576.txt	LTP362	ltpFR2	13	1	BARLEY	88	n/a	n/a	0	0	0
116663	WORD	wordpools/wasnorm_wordpool_576.txt	LTP362	ltpFR2	13	1	DRILL	497	n/a	n/a	0	0	0
118280	START	n/a	LTP362	ltpFR2	13	n/a	n/a	n/a	1	n/a	n/a	n/a	n/a
119314	DISTRACTOR	n/a	LTP362	ltpFR2	13	1	n/a	n/a	n/a	n/a	0	0	0
119329	PROB	n/a	LTP362	ltpFR2	13	n/a	n/a	n/a	1	23	9	6	8
121711	PROB	n/a	LTP362	ltpFR2	13	n/a	n/a	n/a	1	16	3	4	9
123776	PROB	n/a	LTP362	ltpFR2	13	n/a	n/a	n/a	1	13	5	3	5
124826	PROB	n/a	LTP362	ltpFR2	13	n/a	n/a	n/a	1	11	2	7	2
126126	PROB	n/a	LTP362	ltpFR2	13	n/a	n/a	n/a	1	20	6	5	9
127675	PROB	n/a	LTP362	ltpFR2	13	n/a	n/a	n/a	1	12	2	2	8
128791	PROB	n/a	LTP362	ltpFR2	13	n/a	n/a	n/a	1	13	9	2	2
130341	PROB	n/a	LTP362	ltpFR2	13	n/a	n/a	n/a	1	17	4	6	7
131473	PROB	n/a	LTP362	ltpFR2	13	n/a	n/a	n/a	1	18	9	7	2
133356	PROB	n/a	LTP362	ltpFR2	13	n/a	n/a	n/a	1	26	9	9	8
135056	PROB	n/a	LTP362	ltpFR2	13	n/a	n/a	n/a	1	12	4	1	7
136288	PROB	n/a	LTP362	ltpFR2	13	n/a	n/a	n/a	1	13	3	3	7
137388	PROB	n/a	LTP362	ltpFR2	13	n/a	n/a	n/a	1	14	2	3	9
138887	PROB	n/a	LTP362	ltpFR2	13	n/a	n/a	n/a	1	12	3	2	7
142280	STOP	n/a	LTP362	ltpFR2	13	n/a	n/a	n/a	1	n/a	n/a	n/a	n/a
144202	REC_START	n/a	LTP362	ltpFR2	13	1	n/a	n/a	n/a	n/a	0	0	0
145221	REC_WORD	wordpools/wasnorm_wordpool_576.txt	LTP362	ltpFR2	13	1	YARN	1631	n/a	n/a	0	0	0
145916	REC_WORD	wordpools/wasnorm_wordpool_576.txt	LTP362	ltpFR2	13	1	SLOPE	1328	n/a	n/a	0	0	0
146597	REC_WORD	wordpools/wasnorm_wordpool_576.txt	LTP362	ltpFR2	13	1	CHAUFFEUR	283	n/a	n/a	0	0	0
147932	REC_WORD	wordpools/wasnorm_wordpool_576.txt	LTP362	ltpFR2	13	1	BARLEY	88	n/a	n/a	0	0	0
149985	REC_WORD	wordpools/wasnorm_wordpool_576.txt	LTP362	ltpFR2	13	1	WHISKEY	-1	n/a	n/a	0	0	0
157397	REC_WORD	wordpools/wasnorm_wordpool_576.txt	LTP362	ltpFR2	13	1	LIPSTICK	829	n/a	n/a	0	0	0
166184	REC_WORD	wordpools/wasnorm_wordpool_576.txt	LTP362	ltpFR2	13	1	SOFTBALL	1343	n/a	n/a	0	0	0
234626	DISTRACTOR	n/a	LTP362	ltpFR2	13	2	n/a	n/a	n/a	n/a	0	0	0
234627	START	n/a	LTP362	ltpFR2	13	n/a	n/a	n/a	2	n/a	n/a	n/a	n/a
234643	PROB	n/a	LTP362	ltpFR2	13	n/a	n/a	n/a	2	15	6	3	6
236327	PROB	n/a	LTP362	ltpFR2	13	n/a	n/a	n/a	2	13	3	8	2
237409	PROB	n/a	LTP362	ltpFR2	13	n/a	n/a	n/a	2	8	3	3	2
238575	PROB	n/a	LTP362	ltpFR2	13	n/a	n/a	n/a	2	23	9	8	6
240141	PROB	n/a	LTP362	ltpFR2	13	n/a	n/a	n/a	2	12	9	2	1
241274	PROB	n/a	LTP362	ltpFR2	13	n/a	n/a	n/a	2	16	4	4	9
242706	PROB	n/a	LTP362	ltpFR2	13	n/a	n/a	n/a	2	16	7	3	6
244023	PROB	n/a	LTP362	ltpFR2	13	n/a	n/a	n/a	2	18	9	7	2
245439	PROB	n/a	LTP362	ltpFR2	13	n/a	n/a	n/a	2	1	4	8	4
246621	PROB	n/a	LTP362	ltpFR2	13	n/a	n/a	n/a	2	122	2	2	8
248171	PROB	n/a	LTP362	ltpFR2	13	n/a	n/a	n/a	2	5	1	4	3
249703	PROB	n/a	LTP362	ltpFR2	13	n/a	n/a	n/a	2	21	4	8	9
251903	PROB	n/a	LTP362	ltpFR2	13	n/a	n/a	n/a	2	7	3	3	1
253302	PROB	n/a	LTP362	ltpFR2	13	n/a	n/a	n/a	2	17	6	7	6
255385	PROB	n/a	LTP362	ltpFR2	13	n/a	n/a	n/a	2	14	9	1	4
257452	STOP	n/a	LTP362	ltpFR2	13	n/a	n/a	n/a	2	n/a	n/a	n/a	n/a
259615	WORD	wordpools/wasnorm_wordpool_576.txt	LTP362	ltpFR2	13	2	ELBOW	520	n/a	n/a	0	0	0
262348	WORD	wordpools/wasnorm_wordpool_576.txt	LTP362	ltpFR2	13	2	MARROW	872	n/a	n/a	0	0	0
265114	WORD	wordpools/wasnorm_wordpool_576.txt	LTP362	ltpFR2	13	2	CHIPMUNK	304	n/a	n/a	0	0	0
267811	WORD	wordpools/wasnorm_wordpool_576.txt	LTP362	ltpFR2	13	2	ATLAS	53	n/a	n/a	0	0	0
270544	WORD	wordpools/wasnorm_wordpool_576.txt	LTP362	ltpFR2	13	2	TEACHER	1440	n/a	n/a	0	0	0
273227	WORD	wordpools/wasnorm_wordpool_576.txt	LTP362	ltpFR2	13	2	DANCER	437	n/a	n/a	0	0	0
276025	WORD	wordpools/wasnorm_wordpool_576.txt	LTP362	ltpFR2	13	2	PUDDING	1139	n/a	n/a	0	0	0
278840	WORD	wordpools/wasnorm_wordpool_576.txt	LTP362	ltpFR2	13	2	CHILD	299	n/a	n/a	0	0	0
281622	WORD	wordpools/wasnorm_wordpool_576.txt	LTP362	ltpFR2	13	2	BABY	64	n/a	n/a	0	0	0
284355	WORD	wordpools/wasnorm_wordpool_576.txt	LTP362	ltpFR2	13	2	PUPIL	1143	n/a	n/a	0	0	0
286836	WORD	wordpools/wasnorm_wordpool_576.txt	LTP362	ltpFR2	13	2	HATCHET	691	n/a	n/a	0	0	0
289269	WORD	wordpools/wasnorm_wordpool_576.txt	LTP362	ltpFR2	13	2	APRON	35	n/a	n/a	0	0	0
291867	WORD	wordpools/wasnorm_wordpool_576.txt	LTP362	ltpFR2	13	2	RECORD	1176	n/a	n/a	0	0	0
294466	WORD	wordpools/wasnorm_wordpool_576.txt	LTP362	ltpFR2	13	2	IDOL	733	n/a	n/a	0	0	0
297132	WORD	wordpools/wasnorm_wordpool_576.txt	LTP362	ltpFR2	13	2	SNAKE	1333	n/a	n/a	0	0	0
299597	WORD	wordpools/wasnorm_wordpool_576.txt	LTP362	ltpFR2	13	2	LEOPARD	812	n/a	n/a	0	0	0
302147	WORD	wordpools/wasnorm_wordpool_576.txt	LTP362	ltpFR2	13	2	CHURCH	307	n/a	n/a	0	0	0
304745	WORD	wordpools/wasnorm_wordpool_576.txt	LTP362	ltpFR2	13	2	EYELASH	546	n/a	n/a	0	0	0
307378	WORD	wordpools/wasnorm_wordpool_576.txt	LTP362	ltpFR2	13	2	NOMAD	955	n/a	n/a	0	0	0
310110	WORD	wordpools/wasnorm_wordpool_576.txt	LTP362	ltpFR2	13	2	REBEL	1172	n/a	n/a	0	0	0
312774	WORD	wordpools/wasnorm_wordpool_576.txt	LTP362	ltpFR2	13	2	RECEIPT	1173	n/a	n/a	0	0	0
315291	WORD	wordpools/wasnorm_wordpool_576.txt	LTP362	ltpFR2	13	2	BISON	131	n/a	n/a	0	0	0
317990	WORD	wordpools/wasnorm_wordpool_576.txt	LTP362	ltpFR2	13	2	TWISTER	1530	n/a	n/a	0	0	0
320439	WORD	wordpools/wasnorm_wordpool_576.txt	LTP362	ltpFR2	13	2	CYCLONE	431	n/a	n/a	0	0	0
322055	START	n/a	LTP362	ltpFR2	13	n/a	n/a	n/a	3	n/a	n/a	n/a	n/a
322935	DISTRACTOR	n/a	LTP362	ltpFR2	13	2	n/a	n/a	n/a	n/a	0	0	0
322937	PROB	n/a	LTP362	ltpFR2	13	n/a	n/a	n/a	3	16	4	9	3
324519	PROB	n/a	LTP362	ltpFR2	13	n/a	n/a	n/a	3	17	5	9	3
326386	PROB	n/a	LTP362	ltpFR2	13	n/a	n/a	n/a	3	10	1	7	2
327701	PROB	n/a	LTP362	ltpFR2	13	n/a	n/a	n/a	3	16	6	6	4
328918	PROB	n/a	LTP362	ltpFR2	13	n/a	n/a	n/a	3	17	6	5	6
330218	PROB	n/a	LTP362	ltpFR2	13	n/a	n/a	n/a	3	21	7	6	8
332217	PROB	n/a	LTP362	ltpFR2	13	n/a	n/a	n/a	3	15	8	5	2
333865	PROB	n/a	LTP362	ltpFR2	13	n/a	n/a	n/a	3	17	7	7	3
335132	PROB	n/a	LTP362	ltpFR2	13	n/a	n/a	n/a	3	6	1	3	2
336281	PROB	n/a	LTP362	ltpFR2	13	n/a	n/a	n/a	3	15	8	1	6
337596	PROB	n/a	LTP362	ltpFR2	13	n/a	n/a	n/a	3	12	5	4	3
339180	PROB	n/a	LTP362	ltpFR2	13	n/a	n/a	n/a	3	17	5	7	5
340296	PROB	n/a	LTP362	ltpFR2	13	n/a	n/a	n/a	3	11	2	4	5
341678	PROB	n/a	LTP362	ltpFR2	13	n/a	n/a	n/a	3	15	9	1	5
342844	PROB	n/a	LTP362	ltpFR2	13	n/a	n/a	n/a	3	13	3	1	9
344045	PROB	n/a	LTP362	ltpFR2	13	n/a	n/a	n/a	3	10	3	5	2
345517	STOP	n/a	LTP362	ltpFR2	13	n/a	n/a	n/a	3	n/a	n/a	n/a	n/a
347993	REC_START	n/a	LTP362	ltpFR2	13	2	n/a	n/a	n/a	n/a	0	0	0
350264	REC_WORD	wordpools/wasnorm_wordpool_576.txt	LTP362	ltpFR2	13	2	LEOPARD	812	n/a	n/a	0	0	0
350961	REC_WORD	wordpools/wasnorm_wordpool_576.txt	LTP362	ltpFR2	13	2	CYCLONE	431	n/a	n/a	0	0	0
351902	REC_WORD	wordpools/wasnorm_wordpool_576.txt	LTP362	ltpFR2	13	2	TWISTER	1530	n/a	n/a	0	0	0
355438	REC_WORD	wordpools/wasnorm_wordpool_576.txt	LTP362	ltpFR2	13	2	HAMSTER	-1	n/a	n/a	0	0	0
357524	REC_WORD	wordpools/wasnorm_wordpool_576.txt	LTP362	ltpFR2	13	2	MARROW	872	n/a	n/a	0	0	0
358463	REC_WORD	wordpools/wasnorm_wordpool_576.txt	LTP362	ltpFR2	13	2	ELBOW	520	n/a	n/a	0	0	0
359330	REC_WORD	wordpools/wasnorm_wordpool_576.txt	LTP362	ltpFR2	13	2	ATLAS	53	n/a	n/a	0	0	0
361011	REC_WORD	wordpools/wasnorm_wordpool_576.txt	LTP362	ltpFR2	13	2	TEACHER	1440	n/a	n/a	0	0	0
361921	REC_WORD	wordpools/wasnorm_wordpool_576.txt	LTP362	ltpFR2	13	2	PUPIL	1143	n/a	n/a	0	0	0
362670	REC_WORD_VV	wordpools/wasnorm_wordpool_576.txt	LTP362	ltpFR2	13	2	<>	-1	n/a	n/a	0	0	0
363152	REC_WORD	wordpools/wasnorm_wordpool_576.txt	LTP362	ltpFR2	13	2	CHILD	299	n/a	n/a	0	0	0
363889	REC_WORD	wordpools/wasnorm_wordpool_576.txt	LTP362	ltpFR2	13	2	PUDDING	1139	n/a	n/a	0	0	0
438468	WORD	wordpools/wasnorm_wordpool_576.txt	LTP362	ltpFR2	13	3	FUNGUS	614	n/a	n/a	0	0	0
441251	WORD	wordpools/wasnorm_wordpool_576.txt	LTP362	ltpFR2	13	3	WARDROBE	1587	n/a	n/a	0	0	0
443832	WORD	wordpools/wasnorm_wordpool_576.txt	LTP362	ltpFR2	13	3	GARBAGE	622	n/a	n/a	0	0	0
446348	WORD	wordpools/wasnorm_wordpool_576.txt	LTP362	ltpFR2	13	3	VENUS	1557	n/a	n/a	0	0	0
449130	WORD	wordpools/wasnorm_wordpool_576.txt	LTP362	ltpFR2	13	3	VIKING	1565	n/a	n/a	0	0	0
451762	WORD	wordpools/wasnorm_wordpool_576.txt	LTP362	ltpFR2	13	3	SALT	1229	n/a	n/a	0	0	0
454477	WORD	wordpools/wasnorm_wordpool_576.txt	LTP362	ltpFR2	13	3	BARREL	91	n/a	n/a	0	0	0
457260	WORD	wordpools/wasnorm_wordpool_576.txt	LTP362	ltpFR2	13	3	SPHINX	1349	n/a	n/a	0	0	0
459758	WORD	wordpools/wasnorm_wordpool_576.txt	LTP362	ltpFR2	13	3	COSTUME	383	n/a	n/a	0	0	0
462490	WORD	wordpools/wasnorm_wordpool_576.txt	LTP362	ltpFR2	13	3	HORSE	719	n/a	n/a	0	0	0
465306	WORD	wordpools/wasnorm_wordpool_576.txt	LTP362	ltpFR2	13	3	COTTAGE	384	n/a	n/a	0	0	0
467972	WORD	wordpools/wasnorm_wordpool_576.txt	LTP362	ltpFR2	13	3	PLIERS	1089	n/a	n/a	0	0	0
470620	WORD	wordpools/wasnorm_wordpool_576.txt	LTP362	ltpFR2	13	3	WRENCH	1625	n/a	n/a	0	0	0
473420	WORD	wordpools/wasnorm_wordpool_576.txt	LTP362	ltpFR2	13	3	CAMEL	223	n/a	n/a	0	0	0
475985	WORD	wordpools/wasnorm_wordpool_576.txt	LTP362	ltpFR2	13	3	CATTLE	261	n/a	n/a	0	0	0
478699	WORD	wordpools/wasnorm_wordpool_576.txt	LTP362	ltpFR2	13	3	RUST	1219	n/a	n/a	0	0	0
481149	WORD	wordpools/wasnorm_wordpool_576.txt	LTP362	ltpFR2	13	3	MOTOR	922	n/a	n/a	0	0	0
483797	WORD	wordpools/wasnorm_wordpool_576.txt	LTP362	ltpFR2	13	3	NURSE	963	n/a	n/a	0	0	0
486397	WORD	wordpools/wasnorm_wordpool_576.txt	LTP362	ltpFR2	13	3	CABIN	211	n/a	n/a	0	0	0
489012	WORD	wordpools/wasnorm_wordpool_576.txt	LTP362	ltpFR2	13	3	SLIME	1327	n/a	n/a	0	0	0
491494	WORD	wordpools/wasnorm_wordpool_576.txt	LTP362	ltpFR2	13	3	PROTON	1132	n/a	n/a	0	0	0
494060	WORD	wordpools/wasnorm_wordpool_576.txt	LTP362	ltpFR2	13	3	CAFE	216	n/a	n/a	0	0	0
496758	WORD	wordpools/wasnorm_wordpool_576.txt	LTP362	ltpFR2	13	3	PLAZA	1088	n/a	n/a	0	0	0
499341	WORD	wordpools/wasnorm_wordpool_576.txt	LTP362	ltpFR2	13	3	CHAPEL	280	n/a	n/a	0	0	0
500957	START	n/a	LTP362	ltpFR2	13	n/a	n/a	n/a	4	n/a	n/a	n/a	n/a
501766	DISTRACTOR	n/a	LTP362	ltpFR2	13	3	n/a	n/a	n/a	n/a	0	0	0
501772	PROB	n/a	LTP362	ltpFR2	13	n/a	n/a	n/a	4	16	5	6	5
503123	PROB	n/a	LTP362	ltpFR2	13	n/a	n/a	n/a	4	12	7	4	1
504771	PROB	n/a	LTP362	ltpFR2	13	n/a	n/a	n/a	4	21	7	7	7
508420	PROB	n/a	LTP362	ltpFR2	13	n/a	n/a	n/a	4	25	9	8	8
510270	PROB	n/a	LTP362	ltpFR2	13	n/a	n/a	n/a	4	17	8	4	5
511734	PROB	n/a	LTP362	ltpFR2	13	n/a	n/a	n/a	4	11	3	3	5
513018	PROB	n/a	LTP362	ltpFR2	13	n/a	n/a	n/a	4	17	8	8	1
514500	PROB	n/a	LTP362	ltpFR2	13	n/a	n/a	n/a	4	13	3	6	4
515616	PROB	n/a	LTP362	ltpFR2	13	n/a	n/a	n/a	4	15	8	3	8
517499	PROB	n/a	LTP362	ltpFR2	13	n/a	n/a	n/a	4	20	4	9	7
520797	PROB	n/a	LTP362	ltpFR2	13	n/a	n/a	n/a	4	14	2	9	3
522980	PROB	n/a	LTP362	ltpFR2	13	n/a	n/a	n/a	4	17	6	9	2
524940	STOP	n/a	LTP362	ltpFR2	13	n/a	n/a	n/a	4	n/a	n/a	n/a	n/a
526728	REC_START	n/a	LTP362	ltpFR2	13	3	n/a	n/a	n/a	n/a	0	0	0
527532	REC_WORD	wordpools/wasnorm_wordpool_576.txt	LTP362	ltpFR2	13	3	FUNGUS	614	n/a	n/a	0	0	0
528456	REC_WORD	wordpools/wasnorm_wordpool_576.txt	LTP362	ltpFR2	13	3	WARDROBE	1587	n/a	n/a	0	0	0
529874	REC_WORD	wordpools/wasnorm_wordpool_576.txt	LTP362	ltpFR2	13	3	VIKING	1565	n/a	n/a	0	0	0
533343	REC_WORD	wordpools/wasnorm_wordpool_576.txt	LTP362	ltpFR2	13	3	COSTUME	383	n/a	n/a	0	0	0
534415	REC_WORD	wordpools/wasnorm_wordpool_576.txt	LTP362	ltpFR2	13	3	GARBAGE	622	n/a	n/a	0	0	0
535459	REC_WORD	wordpools/wasnorm_wordpool_576.txt	LTP362	ltpFR2	13	3	HORSE	719	n/a	n/a	0	0	0
537140	REC_WORD	wordpools/wasnorm_wordpool_576.txt	LTP362	ltpFR2	13	3	SALT	1229	n/a	n/a	0	0	0
537671	REC_WORD	wordpools/wasnorm_wordpool_576.txt	LTP362	ltpFR2	13	3	BARREL	91	n/a	n/a	0	0	0
538081	REC_WORD	wordpools/wasnorm_wordpool_576.txt	LTP362	ltpFR2	13	3	SPHINX	1349	n/a	n/a	0	0	0
617171	DISTRACTOR	n/a	LTP362	ltpFR2	13	4	n/a	n/a	n/a	n/a	0	0	0
617171	START	n/a	LTP362	ltpFR2	13	n/a	n/a	n/a	5	n/a	n/a	n/a	n/a
617188	PROB	n/a	LTP362	ltpFR2	13	n/a	n/a	n/a	5	21	8	7	6
621303	PROB	n/a	LTP362	ltpFR2	13	n/a	n/a	n/a	5	16	5	2	9
622818	PROB	n/a	LTP362	ltpFR2	13	n/a	n/a	n/a	5	16	9	1	6
624151	PROB	n/a	LTP362	ltpFR2	13	n/a	n/a	n/a	5	18	9	8	1
625516	PROB	n/a	LTP362	ltpFR2	13	n/a	n/a	n/a	5	15	2	5	8
627183	PROB	n/a	LTP362	ltpFR2	13	n/a	n/a	n/a	5	29	8	8	3
629132	PROB	n/a	LTP362	ltpFR2	13	n/a	n/a	n/a	5	14	5	3	6
632414	PROB	n/a	LTP362	ltpFR2	13	n/a	n/a	n/a	5	18	7	8	3
633980	PROB	n/a	LTP362	ltpFR2	13	n/a	n/a	n/a	5	12	6	4	2
635313	PROB	n/a	LTP362	ltpFR2	13	n/a	n/a	n/a	5	17	4	9	4
636561	PROB	n/a	LTP362	ltpFR2	13	n/a	n/a	n/a	5	10	5	4	1
637578	PROB	n/a	LTP362	ltpFR2	13	n/a	n/a	n/a	5	20	9	4	7
638945	PROB	n/a	LTP362	ltpFR2	13	n/a	n/a	n/a	5	8	6	1	1
639936	STOP	n/a	LTP362	ltpFR2	13	n/a	n/a	n/a	5	n/a	n/a	n/a	n/a
642343	WORD	wordpools/wasnorm_wordpool_576.txt	LTP362	ltpFR2	13	4	PARTNER	1017	n/a	n/a	0	0	0
644892	WORD	wordpools/wasnorm_wordpool_576.txt	LTP362	ltpFR2	13	4	MARSH	874	n/a	n/a	0	0	0
647690	WORD	wordpools/wasnorm_wordpool_576.txt	LTP362	ltpFR2	13	4	FARMER	553	n/a	n/a	0	0	0
650223	WORD	wordpools/wasnorm_wordpool_576.txt	LTP362	ltpFR2	13	4	LAMP	798	n/a	n/a	0	0	0
653005	WORD	wordpools/wasnorm_wordpool_576.txt	LTP362	ltpFR2	13	4	DRAGON	492	n/a	n/a	0	0	0
655603	WORD	wordpools/wasnorm_wordpool_576.txt	LTP362	ltpFR2	13	4	HOSTESS	723	n/a	n/a	0	0	0
658319	WORD	wordpools/wasnorm_wordpool_576.txt	LTP362	ltpFR2	13	4	UNCLE	1536	n/a	n/a	0	0	0
660951	WORD	wordpools/wasnorm_wordpool_576.txt	LTP362	ltpFR2	13	4	BROTHER	179	n/a	n/a	0	0	0
663384	WORD	wordpools/wasnorm_wordpool_576.txt	LTP362	ltpFR2	13	4	CIGAR	308	n/a	n/a	0	0	0
666199	WORD	wordpools/wasnorm_wordpool_576.txt	LTP362	ltpFR2	13	4	FRAME	600	n/a	n/a	0	0	0
668915	WORD	wordpools/wasnorm_wordpool_576.txt	LTP362	ltpFR2	13	4	SPOUSE	1358	n/a	n/a	0	0	0
671413	WORD	wordpools/wasnorm_wordpool_576.txt	LTP362	ltpFR2	13	4	GRIZZLY	662	n/a	n/a	0	0	0
674212	WORD	wordpools/wasnorm_wordpool_576.txt	LTP362	ltpFR2	13	4	SILK	1307	n/a	n/a	0	0	0
676878	WORD	wordpools/wasnorm_wordpool_576.txt	LTP362	ltpFR2	13	4	COMET	353	n/a	n/a	0	0	0
679326	WORD	wordpools/wasnorm_wordpool_576.txt	LTP362	ltpFR2	13	4	SPACE	1345	n/a	n/a	0	0	0
682125	WORD	wordpools/wasnorm_wordpool_576.txt	LTP362	ltpFR2	13	4	CITRUS	313	n/a	n/a	0	0	0
684773	WORD	wordpools/wasnorm_wordpool_576.txt	LTP362	ltpFR2	13	4	CARROT	249	n/a	n/a	0	0	0
687522	WORD	wordpools/wasnorm_wordpool_576.txt	LTP362	ltpFR2	13	4	BOYFRIEND	162	n/a	n/a	0	0	0
690255	WORD	wordpools/wasnorm_wordpool_576.txt	LTP362	ltpFR2	13	4	SUMMIT	1405	n/a	n/a	0	0	0
692904	WORD	wordpools/wasnorm_wordpool_576.txt	LTP362	ltpFR2	13	4	SWORD	1423	n/a	n/a	0	0	0
695468	WORD	wordpools/wasnorm_wordpool_576.txt	LTP362	ltpFR2	13	4	IGLOO	734	n/a	n/a	0	0	0
698285	WORD	wordpools/wasnorm_wordpool_576.txt	LTP362	ltpFR2	13	4	FLAG	573	n/a	n/a	0	0	0
700799	WORD	wordpools/wasnorm_wordpool_576.txt	LTP362	ltpFR2	13	4	VELVET	1555	n/a	n/a	0	0	0
703432	WORD	wordpools/wasnorm_wordpool_576.txt	LTP362	ltpFR2	13	4	DAISY	435	n/a	n/a	0	0	0
705048	START	n/a	LTP362	ltpFR2	13	n/a	n/a	n/a	6	n/a	n/a	n/a	n/a
706135	DISTRACTOR	n/a	LTP362	ltpFR2	13	4	n/a	n/a	n/a	n/a	0	0	0
706148	PROB	n/a	LTP362	ltpFR2	13	n/a	n/a	n/a	6	8	5	1	2
707496	PROB	n/a	LTP362	ltpFR2	13	n/a	n/a	n/a	6	10	4	3	3
709063	PROB	n/a	LTP362	ltpFR2	13	n/a	n/a	n/a	6	12	4	5	3
710446	PROB	n/a	LTP362	ltpFR2	13	n/a	n/a	n/a	6	22	5	9	8
713161	PROB	n/a	LTP362	ltpFR2	13	n/a	n/a	n/a	6	16	7	1	8
714377	PROB	n/a	LTP362	ltpFR2	13	n/a	n/a	n/a	6	16	5	9	2
716492	PROB	n/a	LTP362	ltpFR2	13	n/a	n/a	n/a	6	16	7	4	5
720308	PROB	n/a	LTP362	ltpFR2	13	n/a	n/a	n/a	6	13	8	4	1
722057	PROB	n/a	LTP362	ltpFR2	13	n/a	n/a	n/a	6	16	8	4	4
723440	PROB	n/a	LTP362	ltpFR2	13	n/a	n/a	n/a	6	12	2	5	5
724538	PROB	n/a	LTP362	ltpFR2	13	n/a	n/a	n/a	6	12	2	7	3
725671	PROB	n/a	LTP362	ltpFR2	13	n/a	n/a	n/a	6	17	8	4	5
726922	PROB	n/a	LTP362	ltpFR2	13	n/a	n/a	n/a	6	18	9	7	2
728251	STOP	n/a	LTP362	ltpFR2	13	n/a	n/a	n/a	6	n/a	n/a	n/a	n/a
730819	REC_START	n/a	LTP362	ltpFR2	13	4	n/a	n/a	n/a	n/a	0	0	0
731958	REC_WORD	wordpools/wasnorm_wordpool_576.txt	LTP362	ltpFR2	13	4	SILK	1307	n/a	n/a	0	0	0
733051	REC_WORD	wordpools/wasnorm_wordpool_576.txt	LTP362	ltpFR2	13	4	VELVET	1555	n/a	n/a	0	0	0
733641	REC_WORD	wordpools/wasnorm_wordpool_576.txt	LTP362	ltpFR2	13	4	SPACE	1345	n/a	n/a	0	0	0
735713	REC_WORD	wordpools/wasnorm_wordpool_576.txt	LTP362	ltpFR2	13	4	FARMER	553	n/a	n/a	0	0	0
736269	REC_WORD	wordpools/wasnorm_wordpool_576.txt	LTP362	ltpFR2	13	4	PARTNER	1017	n/a	n/a	0	0	0
736968	REC_WORD	wordpools/wasnorm_wordpool_576.txt	LTP362	ltpFR2	13	4	MARSH	874	n/a	n/a	0	0	0
744850	REC_WORD	wordpools/wasnorm_wordpool_576.txt	LTP362	ltpFR2	13	4	IGLOO	734	n/a	n/a	0	0	0
821262	DISTRACTOR	n/a	LTP362	ltpFR2	13	5	n/a	n/a	n/a	n/a	0	0	0
821263	START	n/a	LTP362	ltpFR2	13	n/a	n/a	n/a	7	n/a	n/a	n/a	n/a
821279	PROB	n/a	LTP362	ltpFR2	13	n/a	n/a	n/a	7	16	5	8	3
823544	PROB	n/a	LTP362	ltpFR2	13	n/a	n/a	n/a	7	8	3	1	4
824793	PROB	n/a	LTP362	ltpFR2	13	n/a	n/a	n/a	7	16	4	7	5
826193	PROB	n/a	LTP362	ltpFR2	13	n/a	n/a	n/a	7	16	8	4	4
827293	PROB	n/a	LTP362	ltpFR2	13	n/a	n/a	n/a	7	20	5	9	6
828741	PROB	n/a	LTP362	ltpFR2	13	n/a	n/a	n/a	7	12	1	6	5
829875	PROB	n/a	LTP362	ltpFR2	13	n/a	n/a	n/a	7	13	2	8	3
831158	PROB	n/a	LTP362	ltpFR2	13	n/a	n/a	n/a	7	12	5	2	5
832191	PROB	n/a	LTP362	ltpFR2	13	n/a	n/a	n/a	7	158	2	7	9
833839	PROB	n/a	LTP362	ltpFR2	13	n/a	n/a	n/a	7	12	7	1	4
835106	PROB	n/a	LTP362	ltpFR2	13	n/a	n/a	n/a	7	9	1	2	6
836239	PROB	n/a	LTP362	ltpFR2	13	n/a	n/a	n/a	7	11	3	3	5
837604	PROB	n/a	LTP362	ltpFR2	13	n/a	n/a	n/a	7	22	8	9	5
840220	PROB	n/a	LTP362	ltpFR2	13	n/a	n/a	n/a	7	18	8	5	5
841370	PROB	n/a	LTP362	ltpFR2	13	n/a	n/a	n/a	7	18	2	7	9
845263	STOP	n/a	LTP362	ltpFR2	13	n/a	n/a	n/a	7	n/a	n/a	n/a	n/a
846284	WORD	wordpools/wasnorm_wordpool_576.txt	LTP362	ltpFR2	13	5	COBRA	336	n/a	n/a	0	0	0
849083	WORD	wordpools/wasnorm_wordpool_576.txt	LTP362	ltpFR2	13	5	SWAMP	1416	n/a	n/a	0	0	0
851664	WORD	wordpools/wasnorm_wordpool_576.txt	LTP362	ltpFR2	13	5	TILE	1468	n/a	n/a	0	0	0
854463	WORD	wordpools/wasnorm_wordpool_576.txt	LTP362	ltpFR2	13	5	PREACHER	1119	n/a	n/a	0	0	0
857113	WORD	wordpools/wasnorm_wordpool_576.txt	LTP362	ltpFR2	13	5	DRESSER	496	n/a	n/a	0	0	0
859627	WORD	wordpools/wasnorm_wordpool_576.txt	LTP362	ltpFR2	13	5	SHORTS	1293	n/a	n/a	0	0	0
862144	WORD	wordpools/wasnorm_wordpool_576.txt	LTP362	ltpFR2	13	5	PLATE	1086	n/a	n/a	0	0	0
864876	WORD	wordpools/wasnorm_wordpool_576.txt	LTP362	ltpFR2	13	5	MOP	916	n/a	n/a	0	0	0
867624	WORD	wordpools/wasnorm_wordpool_576.txt	LTP362	ltpFR2	13	5	GLOBE	641	n/a	n/a	0	0	0
870057	WORD	wordpools/wasnorm_wordpool_576.txt	LTP362	ltpFR2	13	5	PEACH	1031	n/a	n/a	0	0	0
872655	WORD	wordpools/wasnorm_wordpool_576.txt	LTP362	ltpFR2	13	5	NOVEL	960	n/a	n/a	0	0	0
875355	WORD	wordpools/wasnorm_wordpool_576.txt	LTP362	ltpFR2	13	5	ACTRESS	6	n/a	n/a	0	0	0
877819	WORD	wordpools/wasnorm_wordpool_576.txt	LTP362	ltpFR2	13	5	SUITCASE	1403	n/a	n/a	0	0	0
880452	WORD	wordpools/wasnorm_wordpool_576.txt	LTP362	ltpFR2	13	5	ZEBRA	1635	n/a	n/a	0	0	0
882968	WORD	wordpools/wasnorm_wordpool_576.txt	LTP362	ltpFR2	13	5	TEMPLE	1448	n/a	n/a	0	0	0
885482	WORD	wordpools/wasnorm_wordpool_576.txt	LTP362	ltpFR2	13	5	BLACKBOARD	133	n/a	n/a	0	0	0
887916	WORD	wordpools/wasnorm_wordpool_576.txt	LTP362	ltpFR2	13	5	BLOUSE	139	n/a	n/a	0	0	0
890730	WORD	wordpools/wasnorm_wordpool_576.txt	LTP362	ltpFR2	13	5	SHIRT	1287	n/a	n/a	0	0	0
893363	WORD	wordpools/wasnorm_wordpool_576.txt	LTP362	ltpFR2	13	5	CHEST	295	n/a	n/a	0	0	0
895929	WORD	wordpools/wasnorm_wordpool_576.txt	LTP362	ltpFR2	13	5	TWEEZERS	1526	n/a	n/a	0	0	0
898560	WORD	wordpools/wasnorm_wordpool_576.txt	LTP362	ltpFR2	13	5	SCRIBBLE	1256	n/a	n/a	0	0	0
901193	WORD	wordpools/wasnorm_wordpool_576.txt	LTP362	ltpFR2	13	5	ITEM	746	n/a	n/a	0	0	0
903942	WORD	wordpools/wasnorm_wordpool_576.txt	LTP362	ltpFR2	13	5	MARINE	869	n/a	n/a	0	0	0
906606	WORD	wordpools/wasnorm_wordpool_576.txt	LTP362	ltpFR2	13	5	PLUTO	1092	n/a	n/a	0	0	0
908223	START	n/a	LTP362	ltpFR2	13	n/a	n/a	n/a	8	n/a	n/a	n/a	n/a
909422	DISTRACTOR	n/a	LTP362	ltpFR2	13	5	n/a	n/a	n/a	n/a	0	0	0
909439	PROB	n/a	LTP362	ltpFR2	13	n/a	n/a	n/a	8	16	6	9	1
910922	PROB	n/a	LTP362	ltpFR2	13	n/a	n/a	n/a	8	16	9	3	4
912770	PROB	n/a	LTP362	ltpFR2	13	n/a	n/a	n/a	8	17	5	8	4
914337	PROB	n/a	LTP362	ltpFR2	13	n/a	n/a	n/a	8	15	7	3	5
916086	PROB	n/a	LTP362	ltpFR2	13	n/a	n/a	n/a	8	17	1	8	8
917834	PROB	n/a	LTP362	ltpFR2	13	n/a	n/a	n/a	8	22	7	8	7
920716	PROB	n/a	LTP362	ltpFR2	13	n/a	n/a	n/a	8	20	9	7	4
922100	PROB	n/a	LTP362	ltpFR2	13	n/a	n/a	n/a	8	14	6	4	4
923933	PROB	n/a	LTP362	ltpFR2	13	n/a	n/a	n/a	8	12	5	3	4
926032	PROB	n/a	LTP362	ltpFR2	13	n/a	n/a	n/a	8	12	1	8	3
927663	PROB	n/a	LTP362	ltpFR2	13	n/a	n/a	n/a	8	17	6	3	8
932223	STOP	n/a	LTP362	ltpFR2	13	n/a	n/a	n/a	8	n/a	n/a	n/a	n/a
934162	REC_START	n/a	LTP362	ltpFR2	13	5	n/a	n/a	n/a	n/a	0	0	0
1008483	REC_WORD_VV	wordpools/wasnorm_wordpool_576.txt	LTP362	ltpFR2	13	5	<>	-1	n/a	n/a	0	0	0
1024603	DISTRACTOR	n/a	LTP362	ltpFR2	13	6	n/a	n/a	n/a	n/a	0	0	0
1024603	START	n/a	LTP362	ltpFR2	13	n/a	n/a	n/a	9	n/a	n/a	n/a	n/a
1024619	PROB	n/a	LTP362	ltpFR2	13	n/a	n/a	n/a	9	21	4	9	8
1026153	PROB	n/a	LTP362	ltpFR2	13	n/a	n/a	n/a	9	16	1	6	9
1027386	PROB	n/a	LTP362	ltpFR2	13	n/a	n/a	n/a	9	13	5	6	2
1028851	PROB	n/a	LTP362	ltpFR2	13	n/a	n/a	n/a	9	21	9	8	4
1031151	PROB	n/a	LTP362	ltpFR2	13	n/a	n/a	n/a	9	17	7	5	5
1032250	PROB	n/a	LTP362	ltpFR2	13	n/a	n/a	n/a	9	18	9	4	5
1033649	PROB	n/a	LTP362	ltpFR2	13	n/a	n/a	n/a	9	13	1	4	8
1035714	PROB	n/a	LTP362	ltpFR2	13	n/a	n/a	n/a	9	18	6	9	3
1040529	PROB	n/a	LTP362	ltpFR2	13	n/a	n/a	n/a	9	12	3	4	5
1042678	PROB	n/a	LTP362	ltpFR2	13	n/a	n/a	n/a	9	9	2	3	4
1044411	PROB	n/a	LTP362	ltpFR2	13	n/a	n/a	n/a	9	19	2	9	8
1045860	PROB	n/a	LTP362	ltpFR2	13	n/a	n/a	n/a	9	15	3	6	6
1047748	STOP	n/a	LTP362	ltpFR2	13	n/a	n/a	n/a	9	n/a	n/a	n/a	n/a
1049443	WORD	wordpools/wasnorm_wordpool_576.txt	LTP362	ltpFR2	13	6	DENIM	446	n/a	n/a	0	0	0
1052191	WORD	wordpools/wasnorm_wordpool_576.txt	LTP362	ltpFR2	13	6	LUNCH	849	n/a	n/a	0	0	0
1054656	WORD	wordpools/wasnorm_wordpool_576.txt	LTP362	ltpFR2	13	6	TOASTER	1472	n/a	n/a	0	0	0
1057239	WORD	wordpools/wasnorm_wordpool_576.txt	LTP362	ltpFR2	13	6	PATIENT	1024	n/a	n/a	0	0	0
1059871	WORD	wordpools/wasnorm_wordpool_576.txt	LTP362	ltpFR2	13	6	GRAVE	658	n/a	n/a	0	0	0
1062403	WORD	wordpools/wasnorm_wordpool_576.txt	LTP362	ltpFR2	13	6	CANDY	230	n/a	n/a	0	0	0
1064851	WORD	wordpools/wasnorm_wordpool_576.txt	LTP362	ltpFR2	13	6	RAFT	1159	n/a	n/a	0	0	0
1067284	WORD	wordpools/wasnorm_wordpool_576.txt	LTP362	ltpFR2	13	6	KITCHEN	778	n/a	n/a	0	0	0
1069832	WORD	wordpools/wasnorm_wordpool_576.txt	LTP362	ltpFR2	13	6	XEROX	1628	n/a	n/a	0	0	0
1072332	WORD	wordpools/wasnorm_wordpool_576.txt	LTP362	ltpFR2	13	6	CASHIER	254	n/a	n/a	0	0	0
1074964	WORD	wordpools/wasnorm_wordpool_576.txt	LTP362	ltpFR2	13	6	MARKET	871	n/a	n/a	0	0	0
1077512	WORD	wordpools/wasnorm_wordpool_576.txt	LTP362	ltpFR2	13	6	CLOTHES	327	n/a	n/a	0	0	0
1080345	WORD	wordpools/wasnorm_wordpool_576.txt	LTP362	ltpFR2	13	6	COLONEL	348	n/a	n/a	0	0	0
1083111	WORD	wordpools/wasnorm_wordpool_576.txt	LTP362	ltpFR2	13	6	PRINCE	1124	n/a	n/a	0	0	0
1085609	WORD	wordpools/wasnorm_wordpool_576.txt	LTP362	ltpFR2	13	6	PALACE	1006	n/a	n/a	0	0	0
1088392	WORD	wordpools/wasnorm_wordpool_576.txt	LTP362	ltpFR2	13	6	DUST	508	n/a	n/a	0	0	0
1090957	WORD	wordpools/wasnorm_wordpool_576.txt	LTP362	ltpFR2	13	6	JUGGLER	763	n/a	n/a	0	0	0
1093738	WORD	wordpools/wasnorm_wordpool_576.txt	LTP362	ltpFR2	13	6	PLAYGROUND	1087	n/a	n/a	0	0	0
1096371	WORD	wordpools/wasnorm_wordpool_576.txt	LTP362	ltpFR2	13	6	RUG	1215	n/a	n/a	0	0	0
1099003	WORD	wordpools/wasnorm_wordpool_576.txt	LTP362	ltpFR2	13	6	CEILING	265	n/a	n/a	0	0	0
1101785	WORD	wordpools/wasnorm_wordpool_576.txt	LTP362	ltpFR2	13	6	SIDEWALK	1303	n/a	n/a	0	0	0
1104550	WORD	wordpools/wasnorm_wordpool_576.txt	LTP362	ltpFR2	13	6	FLOWER	584	n/a	n/a	0	0	0
1107300	WORD	wordpools/wasnorm_wordpool_576.txt	LTP362	ltpFR2	13	6	GYMNAST	675	n/a	n/a	0	0	0
1109864	WORD	wordpools/wasnorm_wordpool_576.txt	LTP362	ltpFR2	13	6	BUBBLE	183	n/a	n/a	0	0	0
1111480	START	n/a	LTP362	ltpFR2	13	n/a	n/a	n/a	10	n/a	n/a	n/a	n/a
1112580	DISTRACTOR	n/a	LTP362	ltpFR2	13	6	n/a	n/a	n/a	n/a	0	0	0
1112596	PROB	n/a	LTP362	ltpFR2	13	n/a	n/a	n/a	10	11	6	1	4
1113897	PROB	n/a	LTP362	ltpFR2	13	n/a	n/a	n/a	10	15	9	5	1
1115030	PROB	n/a	LTP362	ltpFR2	13	n/a	n/a	n/a	10	19	3	8	8
1116611	PROB	n/a	LTP362	ltpFR2	13	n/a	n/a	n/a	10	15	1	7	7
1117895	PROB	n/a	LTP362	ltpFR2	13	n/a	n/a	n/a	10	20	9	5	6
1119244	PROB	n/a	LTP362	ltpFR2	13	n/a	n/a	n/a	10	16	5	6	5
1120261	PROB	n/a	LTP362	ltpFR2	13	n/a	n/a	n/a	10	22	6	9	7
1122525	PROB	n/a	LTP362	ltpFR2	13	n/a	n/a	n/a	10	10	3	2	5
1123876	PROB	n/a	LTP362	ltpFR2	13	n/a	n/a	n/a	10	11	3	2	6
1125242	PROB	n/a	LTP362	ltpFR2	13	n/a	n/a	n/a	10	14	4	9	1
1126874	PROB	n/a	LTP362	ltpFR2	13	n/a	n/a	n/a	10	19	4	6	9
1128157	PROB	n/a	LTP362	ltpFR2	13	n/a	n/a	n/a	10	20	9	5	6
1129539	PROB	n/a	LTP362	ltpFR2	13	n/a	n/a	n/a	10	13	2	7	4
1130922	PROB	n/a	LTP362	ltpFR2	13	n/a	n/a	n/a	10	10	4	4	2
1131955	PROB	n/a	LTP362	ltpFR2	13	n/a	n/a	n/a	10	20	8	9	3
1133455	PROB	n/a	LTP362	ltpFR2	13	n/a	n/a	n/a	10	18	7	8	3
1134759	STOP	n/a	LTP362	ltpFR2	13	n/a	n/a	n/a	10	n/a	n/a	n/a	n/a
1137354	REC_START	n/a	LTP362	ltpFR2	13	6	n/a	n/a	n/a	n/a	0	0	0
1139237	REC_WORD	wordpools/wasnorm_wordpool_576.txt	LTP362	ltpFR2	13	6	DENIM	446	n/a	n/a	0	0	0
1139839	REC_WORD	wordpools/wasnorm_wordpool_576.txt	LTP362	ltpFR2	13	6	BUBBLE	183	n/a	n/a	0	0	0
1227794	WORD	wordpools/wasnorm_wordpool_576.txt	LTP362	ltpFR2	13	7	BLADE	134	n/a	n/a	0	0	0
1230228	WORD	wordpools/wasnorm_wordpool_576.txt	LTP362	ltpFR2	13	7	HAWK	692	n/a	n/a	0	0	0
1232960	WORD	wordpools/wasnorm_wordpool_576.txt	LTP362	ltpFR2	13	7	BLENDER	136	n/a	n/a	0	0	0
1235425	WORD	wordpools/wasnorm_wordpool_576.txt	LTP362	ltpFR2	13	7	FOX	598	n/a	n/a	0	0	0
1238107	WORD	wordpools/wasnorm_wordpool_576.txt	LTP362	ltpFR2	13	7	HIKER	708	n/a	n/a	0	0	0
1240755	WORD	wordpools/wasnorm_wordpool_576.txt	LTP362	ltpFR2	13	7	SHORTCAKE	1292	n/a	n/a	0	0	0
1243305	WORD	wordpools/wasnorm_wordpool_576.txt	LTP362	ltpFR2	13	7	LUGGAGE	847	n/a	n/a	0	0	0
1245770	WORD	wordpools/wasnorm_wordpool_576.txt	LTP362	ltpFR2	13	7	EXPERT	543	n/a	n/a	0	0	0
1248403	WORD	wordpools/wasnorm_wordpool_576.txt	LTP362	ltpFR2	13	7	PRINCESS	1125	n/a	n/a	0	0	0
1250867	WORD	wordpools/wasnorm_wordpool_576.txt	LTP362	ltpFR2	13	7	GRILL	661	n/a	n/a	0	0	0
1253434	WORD	wordpools/wasnorm_wordpool_576.txt	LTP362	ltpFR2	13	7	SUNSET	1408	n/a	n/a	0	0	0
1256016	WORD	wordpools/wasnorm_wordpool_576.txt	LTP362	ltpFR2	13	7	SUNRISE	1407	n/a	n/a	0	0	0
1258814	WORD	wordpools/wasnorm_wordpool_576.txt	LTP362	ltpFR2	13	7	JELLO	754	n/a	n/a	0	0	0
1261447	WORD	wordpools/wasnorm_wordpool_576.txt	LTP362	ltpFR2	13	7	PASTRY	1022	n/a	n/a	0	0	0
1264179	WORD	wordpools/wasnorm_wordpool_576.txt	LTP362	ltpFR2	13	7	BELLY	119	n/a	n/a	0	0	0
1266660	WORD	wordpools/wasnorm_wordpool_576.txt	LTP362	ltpFR2	13	7	LILY	821	n/a	n/a	0	0	0
1269210	WORD	wordpools/wasnorm_wordpool_576.txt	LTP362	ltpFR2	13	7	SHARK	1275	n/a	n/a	0	0	0
1271824	WORD	wordpools/wasnorm_wordpool_576.txt	LTP362	ltpFR2	13	7	SEAGULL	1261	n/a	n/a	0	0	0
1274424	WORD	wordpools/wasnorm_wordpool_576.txt	LTP362	ltpFR2	13	7	STAR	1373	n/a	n/a	0	0	0
1276940	WORD	wordpools/wasnorm_wordpool_576.txt	LTP362	ltpFR2	13	7	SHOULDER	1294	n/a	n/a	0	0	0
1279389	WORD	wordpools/wasnorm_wordpool_576.txt	LTP362	ltpFR2	13	7	CRUTCH	417	n/a	n/a	0	0	0
1282187	WORD	wordpools/wasnorm_wordpool_576.txt	LTP362	ltpFR2	13	7	MARKER	870	n/a	n/a	0	0	0
1284835	WORD	wordpools/wasnorm_wordpool_576.txt	LTP362	ltpFR2	13	7	ICING	732	n/a	n/a	0	0	0
1287551	WORD	wordpools/wasnorm_wordpool_576.txt	LTP362	ltpFR2	13	7	MONEY	908	n/a	n/a	0	0	0
1289168	START	n/a	LTP362	ltpFR2	13	n/a	n/a	n/a	11	n/a	n/a	n/a	n/a
1289979	DISTRACTOR	n/a	LTP362	ltpFR2	13	7	n/a	n/a	n/a	n/a	0	0	0
1289984	PROB	n/a	LTP362	ltpFR2	13	n/a	n/a	n/a	11	17	7	1	9
1291383	PROB	n/a	LTP362	ltpFR2	13	n/a	n/a	n/a	11	9	7	1	1
1292582	PROB	n/a	LTP362	ltpFR2	13	n/a	n/a	n/a	11	14	1	7	6
1293949	PROB	n/a	LTP362	ltpFR2	13	n/a	n/a	n/a	11	18	6	9	3
1296081	PROB	n/a	LTP362	ltpFR2	13	n/a	n/a	n/a	11	10	5	3	2
1297380	PROB	n/a	LTP362	ltpFR2	13	n/a	n/a	n/a	11	21	8	8	5
1299446	PROB	n/a	LTP362	ltpFR2	13	n/a	n/a	n/a	11	15	7	5	3
1301345	PROB	n/a	LTP362	ltpFR2	13	n/a	n/a	n/a	11	17	7	6	4
1302677	PROB	n/a	LTP362	ltpFR2	13	n/a	n/a	n/a	11	18	6	4	8
1303777	PROB	n/a	LTP362	ltpFR2	13	n/a	n/a	n/a	11	21	4	9	8
1305576	PROB	n/a	LTP362	ltpFR2	13	n/a	n/a	n/a	11	20	9	3	8
1307443	PROB	n/a	LTP362	ltpFR2	13	n/a	n/a	n/a	11	2	9	8	6
1309308	PROB	n/a	LTP362	ltpFR2	13	n/a	n/a	n/a	11	13	3	5	5
1311291	PROB	n/a	LTP362	ltpFR2	13	n/a	n/a	n/a	11	16	6	5	5
1312564	STOP	n/a	LTP362	ltpFR2	13	n/a	n/a	n/a	11	n/a	n/a	n/a	n/a
1314990	REC_START	n/a	LTP362	ltpFR2	13	7	n/a	n/a	n/a	n/a	0	0	0
1317452	REC_WORD	wordpools/wasnorm_wordpool_576.txt	LTP362	ltpFR2	13	7	CHESS	294	n/a	n/a	0	0	0
1318401	REC_WORD	wordpools/wasnorm_wordpool_576.txt	LTP362	ltpFR2	13	7	EXPERT	543	n/a	n/a	0	0	0
1318920	REC_WORD	wordpools/wasnorm_wordpool_576.txt	LTP362	ltpFR2	13	7	BLADE	134	n/a	n/a	0	0	0
1319221	REC_WORD	wordpools/wasnorm_wordpool_576.txt	LTP362	ltpFR2	13	7	HAWK	692	n/a	n/a	0	0	0
1319726	REC_WORD	wordpools/wasnorm_wordpool_576.txt	LTP362	ltpFR2	13	7	BLENDER	136	n/a	n/a	0	0	0
1320500	REC_WORD	wordpools/wasnorm_wordpool_576.txt	LTP362	ltpFR2	13	7	FOX	598	n/a	n/a	0	0	0
1320871	REC_WORD	wordpools/wasnorm_wordpool_576.txt	LTP362	ltpFR2	13	7	HIKER	708	n/a	n/a	0	0	0
1323336	REC_WORD	wordpools/wasnorm_wordpool_576.txt	LTP362	ltpFR2	13	7	LUGGAGE	847	n/a	n/a	0	0	0
1386243	REC_WORD	wordpools/wasnorm_wordpool_576.txt	LTP362	ltpFR2	13	7	LILY	821	n/a	n/a	0	0	0
1405464	WORD	wordpools/wasnorm_wordpool_576.txt	LTP362	ltpFR2	13	8	HIGHWAY	707	n/a	n/a	0	0	0
1408014	WORD	wordpools/wasnorm_wordpool_576.txt	LTP362	ltpFR2	13	8	FOOTBALL	591	n/a	n/a	0	0	0
1410678	WORD	wordpools/wasnorm_wordpool_576.txt	LTP362	ltpFR2	13	8	GUITAR	670	n/a	n/a	0	0	0
1413428	WORD	wordpools/wasnorm_wordpool_576.txt	LTP362	ltpFR2	13	8	SADDLE	1221	n/a	n/a	0	0	0
1415859	WORD	wordpools/wasnorm_wordpool_576.txt	LTP362	ltpFR2	13	8	SUPPER	1411	n/a	n/a	0	0	0
1418625	WORD	wordpools/wasnorm_wordpool_576.txt	LTP362	ltpFR2	13	8	FEMALE	559	n/a	n/a	0	0	0
1421125	WORD	wordpools/wasnorm_wordpool_576.txt	LTP362	ltpFR2	13	8	BREAST	171	n/a	n/a	0	0	0
1423806	WORD	wordpools/wasnorm_wordpool_576.txt	LTP362	ltpFR2	13	8	ASIA	46	n/a	n/a	0	0	0
1426405	WORD	wordpools/wasnorm_wordpool_576.txt	LTP362	ltpFR2	13	8	BRAKE	166	n/a	n/a	0	0	0
1428853	WORD	wordpools/wasnorm_wordpool_576.txt	LTP362	ltpFR2	13	8	BEEF	113	n/a	n/a	0	0	0
1431652	WORD	wordpools/wasnorm_wordpool_576.txt	LTP362	ltpFR2	13	8	LONDON	843	n/a	n/a	0	0	0
1434085	WORD	wordpools/wasnorm_wordpool_576.txt	LTP362	ltpFR2	13	8	CASKET	255	n/a	n/a	0	0	0
1436816	WORD	wordpools/wasnorm_wordpool_576.txt	LTP362	ltpFR2	13	8	TOMBSTONE	1478	n/a	n/a	0	0	0
1439450	WORD	wordpools/wasnorm_wordpool_576.txt	LTP362	ltpFR2	13	8	FLUTE	585	n/a	n/a	0	0	0
1441882	WORD	wordpools/wasnorm_wordpool_576.txt	LTP362	ltpFR2	13	8	LOFT	840	n/a	n/a	0	0	0
1444680	WORD	wordpools/wasnorm_wordpool_576.txt	LTP362	ltpFR2	13	8	CATCHER	258	n/a	n/a	0	0	0
1447495	WORD	wordpools/wasnorm_wordpool_576.txt	LTP362	ltpFR2	13	8	CURTAIN	427	n/a	n/a	0	0	0
1449962	WORD	wordpools/wasnorm_wordpool_576.txt	LTP362	ltpFR2	13	8	CRICKET	408	n/a	n/a	0	0	0
1452743	WORD	wordpools/wasnorm_wordpool_576.txt	LTP362	ltpFR2	13	8	COCOON	339	n/a	n/a	0	0	0
1455491	WORD	wordpools/wasnorm_wordpool_576.txt	LTP362	ltpFR2	13	8	ATOM	55	n/a	n/a	0	0	0
1458308	WORD	wordpools/wasnorm_wordpool_576.txt	LTP362	ltpFR2	13	8	TRANSPLANT	1496	n/a	n/a	0	0	0
1460739	WORD	wordpools/wasnorm_wordpool_576.txt	LTP362	ltpFR2	13	8	UMPIRE	1535	n/a	n/a	0	0	0
1463272	WORD	wordpools/wasnorm_wordpool_576.txt	LTP362	ltpFR2	13	8	BUTCHER	203	n/a	n/a	0	0	0
1465921	WORD	wordpools/wasnorm_wordpool_576.txt	LTP362	ltpFR2	13	8	COWBOY	395	n/a	n/a	0	0	0
1467536	START	n/a	LTP362	ltpFR2	13	n/a	n/a	n/a	12	n/a	n/a	n/a	n/a
1468591	DISTRACTOR	n/a	LTP362	ltpFR2	13	8	n/a	n/a	n/a	n/a	0	0	0
1468602	PROB	n/a	LTP362	ltpFR2	13	n/a	n/a	n/a	12	18	3	9	6
1470684	PROB	n/a	LTP362	ltpFR2	13	n/a	n/a	n/a	12	12	2	2	8
1471817	PROB	n/a	LTP362	ltpFR2	13	n/a	n/a	n/a	12	17	9	6	2
1473533	PROB	n/a	LTP362	ltpFR2	13	n/a	n/a	n/a	12	17	4	5	8
1474950	PROB	n/a	LTP362	ltpFR2	13	n/a	n/a	n/a	12	9	3	5	1
1476233	PROB	n/a	LTP362	ltpFR2	13	n/a	n/a	n/a	12	12	2	4	6
1477865	PROB	n/a	LTP362	ltpFR2	13	n/a	n/a	n/a	12	18	9	1	8
1479182	PROB	n/a	LTP362	ltpFR2	13	n/a	n/a	n/a	12	17	9	5	3
1480663	PROB	n/a	LTP362	ltpFR2	13	n/a	n/a	n/a	12	8	4	3	1
1481829	PROB	n/a	LTP362	ltpFR2	13	n/a	n/a	n/a	12	17	3	7	7
1483213	PROB	n/a	LTP362	ltpFR2	13	n/a	n/a	n/a	12	20	9	5	6
1484929	PROB	n/a	LTP362	ltpFR2	13	n/a	n/a	n/a	12	11	1	9	1
1486544	PROB	n/a	LTP362	ltpFR2	13	n/a	n/a	n/a	12	17	4	5	8
1488111	PROB	n/a	LTP362	ltpFR2	13	n/a	n/a	n/a	12	9	2	6	1
1489444	PROB	n/a	LTP362	ltpFR2	13	n/a	n/a	n/a	12	12	1	6	5
1490666	STOP	n/a	LTP362	ltpFR2	13	n/a	n/a	n/a	12	n/a	n/a	n/a	n/a
1493409	REC_START	n/a	LTP362	ltpFR2	13	8	n/a	n/a	n/a	n/a	0	0	0
1507558	REC_WORD	wordpools/wasnorm_wordpool_576.txt	LTP362	ltpFR2	13	8	FOOTBALL	591	n/a	n/a	0	0	0
1508446	REC_WORD	wordpools/wasnorm_wordpool_576.txt	LTP362	ltpFR2	13	8	FEMALE	559	n/a	n/a	0	0	0
1509185	REC_WORD	wordpools/wasnorm_wordpool_576.txt	LTP362	ltpFR2	13	8	BREAST	171	n/a	n/a	0	0	0
1510213	REC_WORD	wordpools/wasnorm_wordpool_576.txt	LTP362	ltpFR2	13	8	HIGHWAY	707	n/a	n/a	0	0	0
1569957	REST_REWET	n/a	LTP362	ltpFR2	13	8	n/a	n/a	n/a	n/a	0	0	0
1679557	WORD	wordpools/wasnorm_wordpool_576.txt	LTP362	ltpFR2	13	9	BEAVER	109	n/a	n/a	0	0	0
1682073	WORD	wordpools/wasnorm_wordpool_576.txt	LTP362	ltpFR2	13	9	CARRIAGE	248	n/a	n/a	0	0	0
1684604	WORD	wordpools/wasnorm_wordpool_576.txt	LTP362	ltpFR2	13	9	HEART	697	n/a	n/a	0	0	0
1687371	WORD	wordpools/wasnorm_wordpool_576.txt	LTP362	ltpFR2	13	9	WAITER	1580	n/a	n/a	0	0	0
1689936	WORD	wordpools/wasnorm_wordpool_576.txt	LTP362	ltpFR2	13	9	COUNTRY	388	n/a	n/a	0	0	0
1692651	WORD	wordpools/wasnorm_wordpool_576.txt	LTP362	ltpFR2	13	9	SALAD	1224	n/a	n/a	0	0	0
1695284	WORD	wordpools/wasnorm_wordpool_576.txt	LTP362	ltpFR2	13	9	SANDWICH	1232	n/a	n/a	0	0	0
1697832	WORD	wordpools/wasnorm_wordpool_576.txt	LTP362	ltpFR2	13	9	SNAIL	1332	n/a	n/a	0	0	0
1700398	WORD	wordpools/wasnorm_wordpool_576.txt	LTP362	ltpFR2	13	9	OYSTER	995	n/a	n/a	0	0	0
1703097	WORD	wordpools/wasnorm_wordpool_576.txt	LTP362	ltpFR2	13	9	COUNTY	389	n/a	n/a	0	0	0
1705778	WORD	wordpools/wasnorm_wordpool_576.txt	LTP362	ltpFR2	13	9	REPORT	1184	n/a	n/a	0	0	0
1708411	WORD	wordpools/wasnorm_wordpool_576.txt	LTP362	ltpFR2	13	9	SPOOL	1356	n/a	n/a	0	0	0
1710927	WORD	wordpools/wasnorm_wordpool_576.txt	LTP362	ltpFR2	13	9	KIDNEY	776	n/a	n/a	0	0	0
1713575	WORD	wordpools/wasnorm_wordpool_576.txt	LTP362	ltpFR2	13	9	GAZELLE	628	n/a	n/a	0	0	0
1716275	WORD	wordpools/wasnorm_wordpool_576.txt	LTP362	ltpFR2	13	9	DANDRUFF	439	n/a	n/a	0	0	0
1718756	WORD	wordpools/wasnorm_wordpool_576.txt	LTP362	ltpFR2	13	9	STALLION	1369	n/a	n/a	0	0	0
1721356	WORD	wordpools/wasnorm_wordpool_576.txt	LTP362	ltpFR2	13	9	ROCKET	1202	n/a	n/a	0	0	0
1724021	WORD	wordpools/wasnorm_wordpool_576.txt	LTP362	ltpFR2	13	9	BUCKET	184	n/a	n/a	0	0	0
1726552	WORD	wordpools/wasnorm_wordpool_576.txt	LTP362	ltpFR2	13	9	OX	994	n/a	n/a	0	0	0
1729252	WORD	wordpools/wasnorm_wordpool_576.txt	LTP362	ltpFR2	13	9	JUDGE	761	n/a	n/a	0	0	0
1731934	WORD	wordpools/wasnorm_wordpool_576.txt	LTP362	ltpFR2	13	9	GAVEL	627	n/a	n/a	0	0	0
1734549	WORD	wordpools/wasnorm_wordpool_576.txt	LTP362	ltpFR2	13	9	FIREPLACE	570	n/a	n/a	0	0	0
1737098	WORD	wordpools/wasnorm_wordpool_576.txt	LTP362	ltpFR2	13	9	STICKER	1382	n/a	n/a	0	0	0
1739846	WORD	wordpools/wasnorm_wordpool_576.txt	LTP362	ltpFR2	13	9	TURNIP	1521	n/a	n/a	0	0	0
1741462	START	n/a	LTP362	ltpFR2	13	n/a	n/a	n/a	13	n/a	n/a	n/a	n/a
1742347	DISTRACTOR	n/a	LTP362	ltpFR2	13	9	n/a	n/a	n/a	n/a	0	0	0
1742363	PROB	n/a	LTP362	ltpFR2	13	n/a	n/a	n/a	13	6	3	1	2
1743678	PROB	n/a	LTP362	ltpFR2	13	n/a	n/a	n/a	13	23	7	7	9
1745245	PROB	n/a	LTP362	ltpFR2	13	n/a	n/a	n/a	13	11	4	3	4
1746743	PROB	n/a	LTP362	ltpFR2	13	n/a	n/a	n/a	13	24	9	8	7
1748592	PROB	n/a	LTP362	ltpFR2	13	n/a	n/a	n/a	13	15	6	8	1
1750442	PROB	n/a	LTP362	ltpFR2	13	n/a	n/a	n/a	13	18	9	5	4
1751975	PROB	n/a	LTP362	ltpFR2	13	n/a	n/a	n/a	13	11	6	3	2
1753690	PROB	n/a	LTP362	ltpFR2	13	n/a	n/a	n/a	13	16	7	8	1
1754940	PROB	n/a	LTP362	ltpFR2	13	n/a	n/a	n/a	13	12	2	7	3
1756440	PROB	n/a	LTP362	ltpFR2	13	n/a	n/a	n/a	13	18	7	2	9
1757972	PROB	n/a	LTP362	ltpFR2	13	n/a	n/a	n/a	13	17	8	5	4
1759322	PROB	n/a	LTP362	ltpFR2	13	n/a	n/a	n/a	13	7	2	3	2
1761371	PROB	n/a	LTP362	ltpFR2	13	n/a	n/a	n/a	13	16	4	8	4
1762702	PROB	n/a	LTP362	ltpFR2	13	n/a	n/a	n/a	13	17	7	7	3
1763852	PROB	n/a	LTP362	ltpFR2	13	n/a	n/a	n/a	13	11	9	1	1
1764859	STOP	n/a	LTP362	ltpFR2	13	n/a	n/a	n/a	13	n/a	n/a	n/a	n/a
1767202	REC_START	n/a	LTP362	ltpFR2	13	9	n/a	n/a	n/a	n/a	0	0	0
1769036	REC_WORD	wordpools/wasnorm_wordpool_576.txt	LTP362	ltpFR2	13	9	KIDNEY	776	n/a	n/a	0	0	0
1769399	REC_WORD	wordpools/wasnorm_wordpool_576.txt	LTP362	ltpFR2	13	9	GAZELLE	628	n/a	n/a	0	0	0
1769947	REC_WORD	wordpools/wasnorm_wordpool_576.txt	LTP362	ltpFR2	13	9	STALLION	1369	n/a	n/a	0	0	0
1791010	REC_WORD	wordpools/wasnorm_wordpool_576.txt	LTP362	ltpFR2	13	9	BOX	159	n/a	n/a	0	0	0
1791625	REC_WORD	wordpools/wasnorm_wordpool_576.txt	LTP362	ltpFR2	13	9	JUDGE	761	n/a	n/a	0	0	0
1792029	REC_WORD	wordpools/wasnorm_wordpool_576.txt	LTP362	ltpFR2	13	9	JUDGE	761	n/a	n/a	0	0	0
1792524	REC_WORD	wordpools/wasnorm_wordpool_576.txt	LTP362	ltpFR2	13	9	BEAVER	109	n/a	n/a	0	0	0
1857626	DISTRACTOR	n/a	LTP362	ltpFR2	13	10	n/a	n/a	n/a	n/a	0	0	0
1857626	START	n/a	LTP362	ltpFR2	13	n/a	n/a	n/a	14	n/a	n/a	n/a	n/a
1857643	PROB	n/a	LTP362	ltpFR2	13	n/a	n/a	n/a	14	20	6	6	8
1859460	PROB	n/a	LTP362	ltpFR2	13	n/a	n/a	n/a	14	20	5	6	9
1860858	PROB	n/a	LTP362	ltpFR2	13	n/a	n/a	n/a	14	20	3	8	9
1862375	PROB	n/a	LTP362	ltpFR2	13	n/a	n/a	n/a	14	12	9	1	2
1863657	PROB	n/a	LTP362	ltpFR2	13	n/a	n/a	n/a	14	12	3	5	4
1865024	PROB	n/a	LTP362	ltpFR2	13	n/a	n/a	n/a	14	14	6	5	3
1867456	PROB	n/a	LTP362	ltpFR2	13	n/a	n/a	n/a	14	20	3	8	9
1868955	PROB	n/a	LTP362	ltpFR2	13	n/a	n/a	n/a	14	10	2	7	1
1871288	PROB	n/a	LTP362	ltpFR2	13	n/a	n/a	n/a	14	15	5	3	7
1872536	PROB	n/a	LTP362	ltpFR2	13	n/a	n/a	n/a	14	17	9	1	7
1873986	PROB	n/a	LTP362	ltpFR2	13	n/a	n/a	n/a	14	14	6	3	5
1876052	PROB	n/a	LTP362	ltpFR2	13	n/a	n/a	n/a	14	15	3	6	6
1877467	PROB	n/a	LTP362	ltpFR2	13	n/a	n/a	n/a	14	15	6	5	4
1881095	STOP	n/a	LTP362	ltpFR2	13	n/a	n/a	n/a	14	n/a	n/a	n/a	n/a
1882598	WORD	wordpools/wasnorm_wordpool_576.txt	LTP362	ltpFR2	13	10	GRAPE	654	n/a	n/a	0	0	0
1885265	WORD	wordpools/wasnorm_wordpool_576.txt	LTP362	ltpFR2	13	10	LAPEL	800	n/a	n/a	0	0	0
1887914	WORD	wordpools/wasnorm_wordpool_576.txt	LTP362	ltpFR2	13	10	SPIDER	1351	n/a	n/a	0	0	0
1890711	WORD	wordpools/wasnorm_wordpool_576.txt	LTP362	ltpFR2	13	10	CHAMPAGNE	278	n/a	n/a	0	0	0
1893444	WORD	wordpools/wasnorm_wordpool_576.txt	LTP362	ltpFR2	13	10	FOREHEAD	592	n/a	n/a	0	0	0
1896077	WORD	wordpools/wasnorm_wordpool_576.txt	LTP362	ltpFR2	13	10	MATCH	878	n/a	n/a	0	0	0
1898841	WORD	wordpools/wasnorm_wordpool_576.txt	LTP362	ltpFR2	13	10	TERMITE	1451	n/a	n/a	0	0	0
1901623	WORD	wordpools/wasnorm_wordpool_576.txt	LTP362	ltpFR2	13	10	KLEENEX	782	n/a	n/a	0	0	0
1904323	WORD	wordpools/wasnorm_wordpool_576.txt	LTP362	ltpFR2	13	10	STREAM	1392	n/a	n/a	0	0	0
1906771	WORD	wordpools/wasnorm_wordpool_576.txt	LTP362	ltpFR2	13	10	PLASTER	1085	n/a	n/a	0	0	0
1909586	WORD	wordpools/wasnorm_wordpool_576.txt	LTP362	ltpFR2	13	10	JAPAN	749	n/a	n/a	0	0	0
1912336	WORD	wordpools/wasnorm_wordpool_576.txt	LTP362	ltpFR2	13	10	LADY	794	n/a	n/a	0	0	0
1914767	WORD	wordpools/wasnorm_wordpool_576.txt	LTP362	ltpFR2	13	10	TART	1436	n/a	n/a	0	0	0
1917434	WORD	wordpools/wasnorm_wordpool_576.txt	LTP362	ltpFR2	13	10	SNACK	1331	n/a	n/a	0	0	0
1920116	WORD	wordpools/wasnorm_wordpool_576.txt	LTP362	ltpFR2	13	10	PANTHER	1009	n/a	n/a	0	0	0
1922647	WORD	wordpools/wasnorm_wordpool_576.txt	LTP362	ltpFR2	13	10	POSSUM	1112	n/a	n/a	0	0	0
1925247	WORD	wordpools/wasnorm_wordpool_576.txt	LTP362	ltpFR2	13	10	AGENT	10	n/a	n/a	0	0	0
1927979	WORD	wordpools/wasnorm_wordpool_576.txt	LTP362	ltpFR2	13	10	HERO	706	n/a	n/a	0	0	0
1930660	WORD	wordpools/wasnorm_wordpool_576.txt	LTP362	ltpFR2	13	10	LION	827	n/a	n/a	0	0	0
1933243	WORD	wordpools/wasnorm_wordpool_576.txt	LTP362	ltpFR2	13	10	WAGON	1578	n/a	n/a	0	0	0
1935925	WORD	wordpools/wasnorm_wordpool_576.txt	LTP362	ltpFR2	13	10	QUEEN	1149	n/a	n/a	0	0	0
1938473	WORD	wordpools/wasnorm_wordpool_576.txt	LTP362	ltpFR2	13	10	CROWN	415	n/a	n/a	0	0	0
1941040	WORD	wordpools/wasnorm_wordpool_576.txt	LTP362	ltpFR2	13	10	HEADBAND	696	n/a	n/a	0	0	0
1943821	WORD	wordpools/wasnorm_wordpool_576.txt	LTP362	ltpFR2	13	10	VIRUS	1572	n/a	n/a	0	0	0
1945438	START	n/a	LTP362	ltpFR2	13	n/a	n/a	n/a	15	n/a	n/a	n/a	n/a
1946434	DISTRACTOR	n/a	LTP362	ltpFR2	13	10	n/a	n/a	n/a	n/a	0	0	0
1946437	PROB	n/a	LTP362	ltpFR2	13	n/a	n/a	n/a	15	12	4	1	7
1947785	PROB	n/a	LTP362	ltpFR2	13	n/a	n/a	n/a	15	26	9	8	9
1949985	PROB	n/a	LTP362	ltpFR2	13	n/a	n/a	n/a	15	21	5	7	9
1953984	PROB	n/a	LTP362	ltpFR2	13	n/a	n/a	n/a	15	21	6	9	6
1955682	PROB	n/a	LTP362	ltpFR2	13	n/a	n/a	n/a	15	18	9	1	8
1956932	PROB	n/a	LTP362	ltpFR2	13	n/a	n/a	n/a	15	12	2	6	4
1958032	PROB	n/a	LTP362	ltpFR2	13	n/a	n/a	n/a	15	20	7	6	7
1959448	PROB	n/a	LTP362	ltpFR2	13	n/a	n/a	n/a	15	18	8	3	7
1960546	PROB	n/a	LTP362	ltpFR2	13	n/a	n/a	n/a	15	11	1	4	6
1961546	PROB	n/a	LTP362	ltpFR2	13	n/a	n/a	n/a	15	18	7	6	5
1964162	PROB	n/a	LTP362	ltpFR2	13	n/a	n/a	n/a	15	12	4	3	5
1965527	PROB	n/a	LTP362	ltpFR2	13	n/a	n/a	n/a	15	13	4	4	5
1967760	PROB	n/a	LTP362	ltpFR2	13	n/a	n/a	n/a	15	10	6	1	3
1969042	STOP	n/a	LTP362	ltpFR2	13	n/a	n/a	n/a	15	n/a	n/a	n/a	n/a
1971193	REC_START	n/a	LTP362	ltpFR2	13	10	n/a	n/a	n/a	n/a	0	0	0
1972908	REC_WORD	wordpools/wasnorm_wordpool_576.txt	LTP362	ltpFR2	13	10	MAN	862	n/a	n/a	0	0	0
1973235	REC_WORD	wordpools/wasnorm_wordpool_576.txt	LTP362	ltpFR2	13	10	WOMAN	1620	n/a	n/a	0	0	0
1973928	REC_WORD	wordpools/wasnorm_wordpool_576.txt	LTP362	ltpFR2	13	10	HEADBAND	696	n/a	n/a	0	0	0
1974881	REC_WORD	wordpools/wasnorm_wordpool_576.txt	LTP362	ltpFR2	13	10	WAGON	1578	n/a	n/a	0	0	0
1975787	REC_WORD	wordpools/wasnorm_wordpool_576.txt	LTP362	ltpFR2	13	10	QUEEN	1149	n/a	n/a	0	0	0
1976512	REC_WORD	wordpools/wasnorm_wordpool_576.txt	LTP362	ltpFR2	13	10	CROWN	415	n/a	n/a	0	0	0
1978802	REC_WORD	wordpools/wasnorm_wordpool_576.txt	LTP362	ltpFR2	13	10	VICTIM	1562	n/a	n/a	0	0	0
2061651	WORD	wordpools/wasnorm_wordpool_576.txt	LTP362	ltpFR2	13	11	PISTON	1076	n/a	n/a	0	0	0
2064134	WORD	wordpools/wasnorm_wordpool_576.txt	LTP362	ltpFR2	13	11	MESSAGE	888	n/a	n/a	0	0	0
2066632	WORD	wordpools/wasnorm_wordpool_576.txt	LTP362	ltpFR2	13	11	FLIPPER	580	n/a	n/a	0	0	0
2069198	WORD	wordpools/wasnorm_wordpool_576.txt	LTP362	ltpFR2	13	11	NOTEBOOK	959	n/a	n/a	0	0	0
2071746	WORD	wordpools/wasnorm_wordpool_576.txt	LTP362	ltpFR2	13	11	GHETTO	633	n/a	n/a	0	0	0
2074213	WORD	wordpools/wasnorm_wordpool_576.txt	LTP362	ltpFR2	13	11	SKIRT	1319	n/a	n/a	0	0	0
2076811	WORD	wordpools/wasnorm_wordpool_576.txt	LTP362	ltpFR2	13	11	ZIPPER	1636	n/a	n/a	0	0	0
2079509	WORD	wordpools/wasnorm_wordpool_576.txt	LTP362	ltpFR2	13	11	BRICK	172	n/a	n/a	0	0	0
2082326	WORD	wordpools/wasnorm_wordpool_576.txt	LTP362	ltpFR2	13	11	CASHEW	253	n/a	n/a	0	0	0
2084991	WORD	wordpools/wasnorm_wordpool_576.txt	LTP362	ltpFR2	13	11	RIVER	1194	n/a	n/a	0	0	0
2087539	WORD	wordpools/wasnorm_wordpool_576.txt	LTP362	ltpFR2	13	11	LASER	801	n/a	n/a	0	0	0
2090106	WORD	wordpools/wasnorm_wordpool_576.txt	LTP362	ltpFR2	13	11	BUNNY	198	n/a	n/a	0	0	0
2092587	WORD	wordpools/wasnorm_wordpool_576.txt	LTP362	ltpFR2	13	11	ACTOR	5	n/a	n/a	0	0	0
2095220	WORD	wordpools/wasnorm_wordpool_576.txt	LTP362	ltpFR2	13	11	BINDER	127	n/a	n/a	0	0	0
2097935	WORD	wordpools/wasnorm_wordpool_576.txt	LTP362	ltpFR2	13	11	GOBLIN	645	n/a	n/a	0	0	0
2100750	WORD	wordpools/wasnorm_wordpool_576.txt	LTP362	ltpFR2	13	11	GREASE	660	n/a	n/a	0	0	0
2103565	WORD	wordpools/wasnorm_wordpool_576.txt	LTP362	ltpFR2	13	11	ROBIN	1199	n/a	n/a	0	0	0
2106148	WORD	wordpools/wasnorm_wordpool_576.txt	LTP362	ltpFR2	13	11	BANK	83	n/a	n/a	0	0	0
2108663	WORD	wordpools/wasnorm_wordpool_576.txt	LTP362	ltpFR2	13	11	DIME	466	n/a	n/a	0	0	0
2111296	WORD	wordpools/wasnorm_wordpool_576.txt	LTP362	ltpFR2	13	11	SCISSORS	1250	n/a	n/a	0	0	0
2113878	WORD	wordpools/wasnorm_wordpool_576.txt	LTP362	ltpFR2	13	11	HEDGE	699	n/a	n/a	0	0	0
2116509	WORD	wordpools/wasnorm_wordpool_576.txt	LTP362	ltpFR2	13	11	FIREMAN	569	n/a	n/a	0	0	0
2119326	WORD	wordpools/wasnorm_wordpool_576.txt	LTP362	ltpFR2	13	11	CRAB	397	n/a	n/a	0	0	0
2122124	WORD	wordpools/wasnorm_wordpool_576.txt	LTP362	ltpFR2	13	11	JURY	766	n/a	n/a	0	0	0
2123740	START	n/a	LTP362	ltpFR2	13	n/a	n/a	n/a	16	n/a	n/a	n/a	n/a
2124702	DISTRACTOR	n/a	LTP362	ltpFR2	13	11	n/a	n/a	n/a	n/a	0	0	0
2124706	PROB	n/a	LTP362	ltpFR2	13	n/a	n/a	n/a	16	16	3	6	7
2126206	PROB	n/a	LTP362	ltpFR2	13	n/a	n/a	n/a	16	14	5	3	6
2128620	PROB	n/a	LTP362	ltpFR2	13	n/a	n/a	n/a	16	11	2	5	4
2129853	PROB	n/a	LTP362	ltpFR2	13	n/a	n/a	n/a	16	15	2	8	5
2131852	PROB	n/a	LTP362	ltpFR2	13	n/a	n/a	n/a	16	10	2	7	1
2133601	PROB	n/a	LTP362	ltpFR2	13	n/a	n/a	n/a	16	24	8	8	6
2135534	PROB	n/a	LTP362	ltpFR2	13	n/a	n/a	n/a	16	14	6	3	5
2137533	PROB	n/a	LTP362	ltpFR2	13	n/a	n/a	n/a	16	21	9	9	3
2139183	PROB	n/a	LTP362	ltpFR2	13	n/a	n/a	n/a	16	6	2	2	2
2140266	PROB	n/a	LTP362	ltpFR2	13	n/a	n/a	n/a	16	18	7	5	6
2142948	PROB	n/a	LTP362	ltpFR2	13	n/a	n/a	n/a	16	16	7	7	2
2144431	PROB	n/a	LTP362	ltpFR2	13	n/a	n/a	n/a	16	11	8	2	1
2146960	STOP	n/a	LTP362	ltpFR2	13	n/a	n/a	n/a	16	n/a	n/a	n/a	n/a
2149578	REC_START	n/a	LTP362	ltpFR2	13	11	n/a	n/a	n/a	n/a	0	0	0
2151768	REC_WORD	wordpools/wasnorm_wordpool_576.txt	LTP362	ltpFR2	13	11	PISTON	1076	n/a	n/a	0	0	0
2240038	WORD	wordpools/wasnorm_wordpool_576.txt	LTP362	ltpFR2	13	12	ORCHID	982	n/a	n/a	0	0	0
2242469	WORD	wordpools/wasnorm_wordpool_576.txt	LTP362	ltpFR2	13	12	PECAN	1036	n/a	n/a	0	0	0
2245019	WORD	wordpools/wasnorm_wordpool_576.txt	LTP362	ltpFR2	13	12	LABEL	790	n/a	n/a	0	0	0
2247683	WORD	wordpools/wasnorm_wordpool_576.txt	LTP362	ltpFR2	13	12	COIN	343	n/a	n/a	0	0	0
2250283	WORD	wordpools/wasnorm_wordpool_576.txt	LTP362	ltpFR2	13	12	BANKER	84	n/a	n/a	0	0	0
2253048	WORD	wordpools/wasnorm_wordpool_576.txt	LTP362	ltpFR2	13	12	BACON	67	n/a	n/a	0	0	0
2255596	WORD	wordpools/wasnorm_wordpool_576.txt	LTP362	ltpFR2	13	12	SAUSAGE	1238	n/a	n/a	0	0	0
2258413	WORD	wordpools/wasnorm_wordpool_576.txt	LTP362	ltpFR2	13	12	EGYPT	519	n/a	n/a	0	0	0
2260995	WORD	wordpools/wasnorm_wordpool_576.txt	LTP362	ltpFR2	13	12	WITNESS	1618	n/a	n/a	0	0	0
2263543	WORD	wordpools/wasnorm_wordpool_576.txt	LTP362	ltpFR2	13	12	BOX	159	n/a	n/a	0	0	0
2266109	WORD	wordpools/wasnorm_wordpool_576.txt	LTP362	ltpFR2	13	12	THIEF	1456	n/a	n/a	0	0	0
2268657	WORD	wordpools/wasnorm_wordpool_576.txt	LTP362	ltpFR2	13	12	BOUQUET	157	n/a	n/a	0	0	0
2271290	WORD	wordpools/wasnorm_wordpool_576.txt	LTP362	ltpFR2	13	12	TUBA	1515	n/a	n/a	0	0	0
2274089	WORD	wordpools/wasnorm_wordpool_576.txt	LTP362	ltpFR2	13	12	CONVICT	371	n/a	n/a	0	0	0
2276620	WORD	wordpools/wasnorm_wordpool_576.txt	LTP362	ltpFR2	13	12	TRACTOR	1493	n/a	n/a	0	0	0
2279153	WORD	wordpools/wasnorm_wordpool_576.txt	LTP362	ltpFR2	13	12	LETTUCE	814	n/a	n/a	0	0	0
2281751	WORD	wordpools/wasnorm_wordpool_576.txt	LTP362	ltpFR2	13	12	OUTLAW	989	n/a	n/a	0	0	0
2284500	WORD	wordpools/wasnorm_wordpool_576.txt	LTP362	ltpFR2	13	12	GALLON	618	n/a	n/a	0	0	0
2287183	WORD	wordpools/wasnorm_wordpool_576.txt	LTP362	ltpFR2	13	12	SALMON	1227	n/a	n/a	0	0	0
2289631	WORD	wordpools/wasnorm_wordpool_576.txt	LTP362	ltpFR2	13	12	GLASS	639	n/a	n/a	0	0	0
2292297	WORD	wordpools/wasnorm_wordpool_576.txt	LTP362	ltpFR2	13	12	DRINK	498	n/a	n/a	0	0	0
2294845	WORD	wordpools/wasnorm_wordpool_576.txt	LTP362	ltpFR2	13	12	MILK	895	n/a	n/a	0	0	0
2297312	WORD	wordpools/wasnorm_wordpool_576.txt	LTP362	ltpFR2	13	12	THREAD	1460	n/a	n/a	0	0	0
2299760	WORD	wordpools/wasnorm_wordpool_576.txt	LTP362	ltpFR2	13	12	PEANUT	1032	n/a	n/a	0	0	0
2301377	START	n/a	LTP362	ltpFR2	13	n/a	n/a	n/a	17	n/a	n/a	n/a	n/a
2302528	DISTRACTOR	n/a	LTP362	ltpFR2	13	12	n/a	n/a	n/a	n/a	0	0	0
2302542	PROB	n/a	LTP362	ltpFR2	13	n/a	n/a	n/a	17	11	6	2	3
2304724	PROB	n/a	LTP362	ltpFR2	13	n/a	n/a	n/a	17	21	5	9	7
2306757	PROB	n/a	LTP362	ltpFR2	13	n/a	n/a	n/a	17	20	9	8	3
2308539	PROB	n/a	LTP362	ltpFR2	13	n/a	n/a	n/a	17	20	9	8	3
2309822	PROB	n/a	LTP362	ltpFR2	13	n/a	n/a	n/a	17	16	3	4	9
2311189	PROB	n/a	LTP362	ltpFR2	13	n/a	n/a	n/a	17	17	3	8	6
2312721	PROB	n/a	LTP362	ltpFR2	13	n/a	n/a	n/a	17	21	9	6	6
2314021	PROB	n/a	LTP362	ltpFR2	13	n/a	n/a	n/a	17	6	3	1	2
2315287	PROB	n/a	LTP362	ltpFR2	13	n/a	n/a	n/a	17	15	7	7	1
2316735	PROB	n/a	LTP362	ltpFR2	13	n/a	n/a	n/a	17	10	1	2	7
2317936	PROB	n/a	LTP362	ltpFR2	13	n/a	n/a	n/a	17	14	4	9	1
2319601	PROB	n/a	LTP362	ltpFR2	13	n/a	n/a	n/a	17	13	1	5	7
2321334	PROB	n/a	LTP362	ltpFR2	13	n/a	n/a	n/a	17	12	3	5	4
2325377	STOP	n/a	LTP362	ltpFR2	13	n/a	n/a	n/a	17	n/a	n/a	n/a	n/a
2327316	REC_START	n/a	LTP362	ltpFR2	13	12	n/a	n/a	n/a	n/a	0	0	0
2375207	REC_WORD	wordpools/wasnorm_wordpool_576.txt	LTP362	ltpFR2	13	12	EGYPT	519	n/a	n/a	0	0	0
2417756	DISTRACTOR	n/a	LTP362	ltpFR2	13	13	n/a	n/a	n/a	n/a	0	0	0
2417757	START	n/a	LTP362	ltpFR2	13	n/a	n/a	n/a	18	n/a	n/a	n/a	n/a
2417773	PROB	n/a	LTP362	ltpFR2	13	n/a	n/a	n/a	18	19	9	4	6
2418990	PROB	n/a	LTP362	ltpFR2	13	n/a	n/a	n/a	18	8	1	1	6
2420223	PROB	n/a	LTP362	ltpFR2	13	n/a	n/a	n/a	18	16	7	1	8
2421721	PROB	n/a	LTP362	ltpFR2	13	n/a	n/a	n/a	18	10	2	6	2
2422837	PROB	n/a	LTP362	ltpFR2	13	n/a	n/a	n/a	18	11	1	7	3
2423871	PROB	n/a	LTP362	ltpFR2	13	n/a	n/a	n/a	18	21	8	5	8
2425553	PROB	n/a	LTP362	ltpFR2	13	n/a	n/a	n/a	18	17	7	6	4
2426802	PROB	n/a	LTP362	ltpFR2	13	n/a	n/a	n/a	18	12	6	5	1
2427886	PROB	n/a	LTP362	ltpFR2	13	n/a	n/a	n/a	18	23	7	8	8
2430035	PROB	n/a	LTP362	ltpFR2	13	n/a	n/a	n/a	18	18	6	6	6
2431534	PROB	n/a	LTP362	ltpFR2	13	n/a	n/a	n/a	18	3	1	1	1
2432466	PROB	n/a	LTP362	ltpFR2	13	n/a	n/a	n/a	18	16	1	7	8
2434367	PROB	n/a	LTP362	ltpFR2	13	n/a	n/a	n/a	18	19	6	7	6
2436681	PROB	n/a	LTP362	ltpFR2	13	n/a	n/a	n/a	18	10	2	4	4
2437714	PROB	n/a	LTP362	ltpFR2	13	n/a	n/a	n/a	18	11	4	3	4
2439480	PROB	n/a	LTP362	ltpFR2	13	n/a	n/a	n/a	18	8	3	2	3
2441504	STOP	n/a	LTP362	ltpFR2	13	n/a	n/a	n/a	18	n/a	n/a	n/a	n/a
2442745	WORD	wordpools/wasnorm_wordpool_576.txt	LTP362	ltpFR2	13	13	SODA	1341	n/a	n/a	0	0	0
2445577	WORD	wordpools/wasnorm_wordpool_576.txt	LTP362	ltpFR2	13	13	PASSAGE	1019	n/a	n/a	0	0	0
2448194	WORD	wordpools/wasnorm_wordpool_576.txt	LTP362	ltpFR2	13	13	VAGRANT	1544	n/a	n/a	0	0	0
2450692	WORD	wordpools/wasnorm_wordpool_576.txt	LTP362	ltpFR2	13	13	KNIFE	785	n/a	n/a	0	0	0
2453408	WORD	wordpools/wasnorm_wordpool_576.txt	LTP362	ltpFR2	13	13	SCALPEL	1243	n/a	n/a	0	0	0
2456107	WORD	wordpools/wasnorm_wordpool_576.txt	LTP362	ltpFR2	13	13	TABLE	1426	n/a	n/a	0	0	0
2458838	WORD	wordpools/wasnorm_wordpool_576.txt	LTP362	ltpFR2	13	13	TROMBONE	1508	n/a	n/a	0	0	0
2461454	WORD	wordpools/wasnorm_wordpool_576.txt	LTP362	ltpFR2	13	13	ARMY	39	n/a	n/a	0	0	0
2464120	WORD	wordpools/wasnorm_wordpool_576.txt	LTP362	ltpFR2	13	13	AWARD	63	n/a	n/a	0	0	0
2466768	WORD	wordpools/wasnorm_wordpool_576.txt	LTP362	ltpFR2	13	13	COCKTAIL	338	n/a	n/a	0	0	0
2469251	WORD	wordpools/wasnorm_wordpool_576.txt	LTP362	ltpFR2	13	13	INMATE	738	n/a	n/a	0	0	0
2471832	WORD	wordpools/wasnorm_wordpool_576.txt	LTP362	ltpFR2	13	13	CAPTIVE	240	n/a	n/a	0	0	0
2474647	WORD	wordpools/wasnorm_wordpool_576.txt	LTP362	ltpFR2	13	13	CANAL	226	n/a	n/a	0	0	0
2477479	WORD	wordpools/wasnorm_wordpool_576.txt	LTP362	ltpFR2	13	13	CUPBOARD	425	n/a	n/a	0	0	0
2480063	WORD	wordpools/wasnorm_wordpool_576.txt	LTP362	ltpFR2	13	13	BANJO	82	n/a	n/a	0	0	0
2482527	WORD	wordpools/wasnorm_wordpool_576.txt	LTP362	ltpFR2	13	13	SCARECROW	1245	n/a	n/a	0	0	0
2485027	WORD	wordpools/wasnorm_wordpool_576.txt	LTP362	ltpFR2	13	13	PAIL	1002	n/a	n/a	0	0	0
2487592	WORD	wordpools/wasnorm_wordpool_576.txt	LTP362	ltpFR2	13	13	BEAST	108	n/a	n/a	0	0	0
2490308	WORD	wordpools/wasnorm_wordpool_576.txt	LTP362	ltpFR2	13	13	ISLAND	745	n/a	n/a	0	0	0
2493107	WORD	wordpools/wasnorm_wordpool_576.txt	LTP362	ltpFR2	13	13	BUGGY	188	n/a	n/a	0	0	0
2495922	WORD	wordpools/wasnorm_wordpool_576.txt	LTP362	ltpFR2	13	13	BIKE	125	n/a	n/a	0	0	0
2498586	WORD	wordpools/wasnorm_wordpool_576.txt	LTP362	ltpFR2	13	13	FREEZER	604	n/a	n/a	0	0	0
2501253	WORD	wordpools/wasnorm_wordpool_576.txt	LTP362	ltpFR2	13	13	BATHTUB	100	n/a	n/a	0	0	0
2503952	WORD	wordpools/wasnorm_wordpool_576.txt	LTP362	ltpFR2	13	13	ROD	1203	n/a	n/a	0	0	0
2505567	START	n/a	LTP362	ltpFR2	13	n/a	n/a	n/a	19	n/a	n/a	n/a	n/a
2506598	DISTRACTOR	n/a	LTP362	ltpFR2	13	13	n/a	n/a	n/a	n/a	0	0	0
2506600	PROB	n/a	LTP362	ltpFR2	13	n/a	n/a	n/a	19	21	8	5	8
2508217	PROB	n/a	LTP362	ltpFR2	13	n/a	n/a	n/a	19	9	5	3	1
2509515	PROB	n/a	LTP362	ltpFR2	13	n/a	n/a	n/a	19	10	6	3	1
2510764	PROB	n/a	LTP362	ltpFR2	13	n/a	n/a	n/a	19	6	3	2	1
2512065	PROB	n/a	LTP362	ltpFR2	13	n/a	n/a	n/a	19	13	1	5	7
2513613	PROB	n/a	LTP362	ltpFR2	13	n/a	n/a	n/a	19	12	4	1	7
2514880	PROB	n/a	LTP362	ltpFR2	13	n/a	n/a	n/a	19	9	1	4	4
2515913	PROB	n/a	LTP362	ltpFR2	13	n/a	n/a	n/a	19	11	2	4	5
2517379	PROB	n/a	LTP362	ltpFR2	13	n/a	n/a	n/a	19	11	3	4	4
2518962	PROB	n/a	LTP362	ltpFR2	13	n/a	n/a	n/a	19	10	2	2	6
2520361	PROB	n/a	LTP362	ltpFR2	13	n/a	n/a	n/a	19	19	2	8	9
2521576	PROB	n/a	LTP362	ltpFR2	13	n/a	n/a	n/a	19	17	5	5	7
2522592	PROB	n/a	LTP362	ltpFR2	13	n/a	n/a	n/a	19	20	9	5	6
2524159	PROB	n/a	LTP362	ltpFR2	13	n/a	n/a	n/a	19	14	3	4	7
2525808	PROB	n/a	LTP362	ltpFR2	13	n/a	n/a	n/a	19	11	6	4	1
2526891	PROB	n/a	LTP362	ltpFR2	13	n/a	n/a	n/a	19	14	9	3	2
2529539	STOP	n/a	LTP362	ltpFR2	13	n/a	n/a	n/a	19	n/a	n/a	n/a	n/a
2531390	REC_START	n/a	LTP362	ltpFR2	13	13	n/a	n/a	n/a	n/a	0	0	0
2591230	REC_WORD	wordpools/wasnorm_wordpool_576.txt	LTP362	ltpFR2	13	13	CUPBOARD	425	n/a	n/a	0	0	0
2594742	REC_WORD	wordpools/wasnorm_wordpool_576.txt	LTP362	ltpFR2	13	13	BANJO	82	n/a	n/a	0	0	0
2596662	REC_WORD	wordpools/wasnorm_wordpool_576.txt	LTP362	ltpFR2	13	13	SCARECROW	1245	n/a	n/a	0	0	0
2621814	DISTRACTOR	n/a	LTP362	ltpFR2	13	14	n/a	n/a	n/a	n/a	0	0	0
2621814	START	n/a	LTP362	ltpFR2	13	n/a	n/a	n/a	20	n/a	n/a	n/a	n/a
2621831	PROB	n/a	LTP362	ltpFR2	13	n/a	n/a	n/a	20	14	4	5	5
2623448	PROB	n/a	LTP362	ltpFR2	13	n/a	n/a	n/a	20	20	7	5	8
2625080	PROB	n/a	LTP362	ltpFR2	13	n/a	n/a	n/a	20	14	2	6	6
2626812	PROB	n/a	LTP362	ltpFR2	13	n/a	n/a	n/a	20	17	1	9	7
2628062	PROB	n/a	LTP362	ltpFR2	13	n/a	n/a	n/a	20	12	4	4	4
2629527	PROB	n/a	LTP362	ltpFR2	13	n/a	n/a	n/a	20	17	3	5	9
2631094	PROB	n/a	LTP362	ltpFR2	13	n/a	n/a	n/a	20	11	4	1	6
2632127	PROB	n/a	LTP362	ltpFR2	13	n/a	n/a	n/a	20	19	5	7	7
2633509	PROB	n/a	LTP362	ltpFR2	13	n/a	n/a	n/a	20	11	7	1	3
2634542	PROB	n/a	LTP362	ltpFR2	13	n/a	n/a	n/a	20	16	9	4	3
2635808	PROB	n/a	LTP362	ltpFR2	13	n/a	n/a	n/a	20	16	1	9	6
2636942	PROB	n/a	LTP362	ltpFR2	13	n/a	n/a	n/a	20	6	1	3	2
2638008	PROB	n/a	LTP362	ltpFR2	13	n/a	n/a	n/a	20	10	1	2	7
2639091	PROB	n/a	LTP362	ltpFR2	13	n/a	n/a	n/a	20	20	6	8	6
2640240	PROB	n/a	LTP362	ltpFR2	13	n/a	n/a	n/a	20	18	6	3	9
2641456	PROB	n/a	LTP362	ltpFR2	13	n/a	n/a	n/a	20	13	2	2	9
2643039	PROB	n/a	LTP362	ltpFR2	13	n/a	n/a	n/a	20	24	9	8	7
2644518	STOP	n/a	LTP362	ltpFR2	13	n/a	n/a	n/a	20	n/a	n/a	n/a	n/a
2646987	WORD	wordpools/wasnorm_wordpool_576.txt	LTP362	ltpFR2	13	14	BODY	145	n/a	n/a	0	0	0
2649652	WORD	wordpools/wasnorm_wordpool_576.txt	LTP362	ltpFR2	13	14	COMPASS	358	n/a	n/a	0	0	0
2652418	WORD	wordpools/wasnorm_wordpool_576.txt	LTP362	ltpFR2	13	14	OMELET	976	n/a	n/a	0	0	0
2655134	WORD	wordpools/wasnorm_wordpool_576.txt	LTP362	ltpFR2	13	14	TABLET	1427	n/a	n/a	0	0	0
2657916	WORD	wordpools/wasnorm_wordpool_576.txt	LTP362	ltpFR2	13	14	WASHER	1592	n/a	n/a	0	0	0
2660730	WORD	wordpools/wasnorm_wordpool_576.txt	LTP362	ltpFR2	13	14	SUBWAY	1400	n/a	n/a	0	0	0
2663495	WORD	wordpools/wasnorm_wordpool_576.txt	LTP362	ltpFR2	13	14	CRIB	407	n/a	n/a	0	0	0
2666062	WORD	wordpools/wasnorm_wordpool_576.txt	LTP362	ltpFR2	13	14	LEG	809	n/a	n/a	0	0	0
2668593	WORD	wordpools/wasnorm_wordpool_576.txt	LTP362	ltpFR2	13	14	SERVER	1272	n/a	n/a	0	0	0
2671160	WORD	wordpools/wasnorm_wordpool_576.txt	LTP362	ltpFR2	13	14	PARSLEY	1016	n/a	n/a	0	0	0
2673807	WORD	wordpools/wasnorm_wordpool_576.txt	LTP362	ltpFR2	13	14	GLOVE	642	n/a	n/a	0	0	0
2676606	WORD	wordpools/wasnorm_wordpool_576.txt	LTP362	ltpFR2	13	14	FINGER	567	n/a	n/a	0	0	0
2679123	WORD	wordpools/wasnorm_wordpool_576.txt	LTP362	ltpFR2	13	14	POPCORN	1104	n/a	n/a	0	0	0
2681737	WORD	wordpools/wasnorm_wordpool_576.txt	LTP362	ltpFR2	13	14	BRACES	164	n/a	n/a	0	0	0
2684270	WORD	wordpools/wasnorm_wordpool_576.txt	LTP362	ltpFR2	13	14	CRATER	400	n/a	n/a	0	0	0
2686801	WORD	wordpools/wasnorm_wordpool_576.txt	LTP362	ltpFR2	13	14	CREVICE	405	n/a	n/a	0	0	0
2689385	WORD	wordpools/wasnorm_wordpool_576.txt	LTP362	ltpFR2	13	14	POET	1095	n/a	n/a	0	0	0
2691934	WORD	wordpools/wasnorm_wordpool_576.txt	LTP362	ltpFR2	13	14	FRAGRANCE	599	n/a	n/a	0	0	0
2694515	WORD	wordpools/wasnorm_wordpool_576.txt	LTP362	ltpFR2	13	14	GIRL	637	n/a	n/a	0	0	0
2697015	WORD	wordpools/wasnorm_wordpool_576.txt	LTP362	ltpFR2	13	14	INFANT	737	n/a	n/a	0	0	0
2699596	WORD	wordpools/wasnorm_wordpool_576.txt	LTP362	ltpFR2	13	14	LAGOON	795	n/a	n/a	0	0	0
2702212	WORD	wordpools/wasnorm_wordpool_576.txt	LTP362	ltpFR2	13	14	DAUGHTER	442	n/a	n/a	0	0	0
2704643	WORD	wordpools/wasnorm_wordpool_576.txt	LTP362	ltpFR2	13	14	HAMPER	682	n/a	n/a	0	0	0
2707110	WORD	wordpools/wasnorm_wordpool_576.txt	LTP362	ltpFR2	13	14	OINTMENT	974	n/a	n/a	0	0	0
2708725	START	n/a	LTP362	ltpFR2	13	n/a	n/a	n/a	21	n/a	n/a	n/a	n/a
2709822	DISTRACTOR	n/a	LTP362	ltpFR2	13	14	n/a	n/a	n/a	n/a	0	0	0
2709824	PROB	n/a	LTP362	ltpFR2	13	n/a	n/a	n/a	21	17	8	4	5
2711724	PROB	n/a	LTP362	ltpFR2	13	n/a	n/a	n/a	21	16	8	5	3
2713007	PROB	n/a	LTP362	ltpFR2	13	n/a	n/a	n/a	21	7	5	1	1
2714024	PROB	n/a	LTP362	ltpFR2	13	n/a	n/a	n/a	21	11	2	8	1
2715223	PROB	n/a	LTP362	ltpFR2	13	n/a	n/a	n/a	21	12	1	4	7
2716356	PROB	n/a	LTP362	ltpFR2	13	n/a	n/a	n/a	21	16	4	5	7
2717955	PROB	n/a	LTP362	ltpFR2	13	n/a	n/a	n/a	21	20	8	6	6
2719254	PROB	n/a	LTP362	ltpFR2	13	n/a	n/a	n/a	21	17	2	6	9
2720703	PROB	n/a	LTP362	ltpFR2	13	n/a	n/a	n/a	21	21	4	8	9
2722835	PROB	n/a	LTP362	ltpFR2	13	n/a	n/a	n/a	21	17	8	1	8
2724286	PROB	n/a	LTP362	ltpFR2	13	n/a	n/a	n/a	21	20	6	6	8
2725701	PROB	n/a	LTP362	ltpFR2	13	n/a	n/a	n/a	21	18	4	5	9
2727001	PROB	n/a	LTP362	ltpFR2	13	n/a	n/a	n/a	21	13	5	5	3
2728150	PROB	n/a	LTP362	ltpFR2	13	n/a	n/a	n/a	21	13	4	2	7
2729966	PROB	n/a	LTP362	ltpFR2	13	n/a	n/a	n/a	21	11	3	2	6
2731978	STOP	n/a	LTP362	ltpFR2	13	n/a	n/a	n/a	21	n/a	n/a	n/a	n/a
2734497	REC_START	n/a	LTP362	ltpFR2	13	14	n/a	n/a	n/a	n/a	0	0	0
2737288	REC_WORD	wordpools/wasnorm_wordpool_576.txt	LTP362	ltpFR2	13	14	DAUGHTER	442	n/a	n/a	0	0	0
2738780	REC_WORD	wordpools/wasnorm_wordpool_576.txt	LTP362	ltpFR2	13	14	WASHER	1592	n/a	n/a	0	0	0
2739637	REC_WORD_VV	wordpools/wasnorm_wordpool_576.txt	LTP362	ltpFR2	13	14	<>	-1	n/a	n/a	0	0	0
2740010	REC_WORD	wordpools/wasnorm_wordpool_576.txt	LTP362	ltpFR2	13	14	BODY	145	n/a	n/a	0	0	0
2743100	REC_WORD	wordpools/wasnorm_wordpool_576.txt	LTP362	ltpFR2	13	14	SUBWAY	1400	n/a	n/a	0	0	0
2744699	REC_WORD	wordpools/wasnorm_wordpool_576.txt	LTP362	ltpFR2	13	14	CREVICE	405	n/a	n/a	0	0	0
2746515	REC_WORD	wordpools/wasnorm_wordpool_576.txt	LTP362	ltpFR2	13	14	CRIB	407	n/a	n/a	0	0	0
2748546	REC_WORD	wordpools/wasnorm_wordpool_576.txt	LTP362	ltpFR2	13	14	SERVER	1272	n/a	n/a	0	0	0
2749475	REC_WORD	wordpools/wasnorm_wordpool_576.txt	LTP362	ltpFR2	13	14	LEG	809	n/a	n/a	0	0	0
2749990	REC_WORD	wordpools/wasnorm_wordpool_576.txt	LTP362	ltpFR2	13	14	TABLET	1427	n/a	n/a	0	0	0
2750383	REC_WORD	wordpools/wasnorm_wordpool_576.txt	LTP362	ltpFR2	13	14	FINGER	567	n/a	n/a	0	0	0
2824940	WORD	wordpools/wasnorm_wordpool_576.txt	LTP362	ltpFR2	13	15	GRAVEL	659	n/a	n/a	0	0	0
2827671	WORD	wordpools/wasnorm_wordpool_576.txt	LTP362	ltpFR2	13	15	THRONE	1461	n/a	n/a	0	0	0
2830487	WORD	wordpools/wasnorm_wordpool_576.txt	LTP362	ltpFR2	13	15	EAGLE	512	n/a	n/a	0	0	0
2833003	WORD	wordpools/wasnorm_wordpool_576.txt	LTP362	ltpFR2	13	15	TURTLE	1522	n/a	n/a	0	0	0
2835534	WORD	wordpools/wasnorm_wordpool_576.txt	LTP362	ltpFR2	13	15	WORLD	1622	n/a	n/a	0	0	0
2838334	WORD	wordpools/wasnorm_wordpool_576.txt	LTP362	ltpFR2	13	15	PERFUME	1049	n/a	n/a	0	0	0
2841049	WORD	wordpools/wasnorm_wordpool_576.txt	LTP362	ltpFR2	13	15	EMPIRE	530	n/a	n/a	0	0	0
2843814	WORD	wordpools/wasnorm_wordpool_576.txt	LTP362	ltpFR2	13	15	CROSS	413	n/a	n/a	0	0	0
2846496	WORD	wordpools/wasnorm_wordpool_576.txt	LTP362	ltpFR2	13	15	STAKE	1368	n/a	n/a	0	0	0
2849079	WORD	wordpools/wasnorm_wordpool_576.txt	LTP362	ltpFR2	13	15	MAPLE	866	n/a	n/a	0	0	0
2851660	WORD	wordpools/wasnorm_wordpool_576.txt	LTP362	ltpFR2	13	15	BRANCH	168	n/a	n/a	0	0	0
2854194	WORD	wordpools/wasnorm_wordpool_576.txt	LTP362	ltpFR2	13	15	SHRUB	1299	n/a	n/a	0	0	0
2856926	WORD	wordpools/wasnorm_wordpool_576.txt	LTP362	ltpFR2	13	15	PORTRAIT	1111	n/a	n/a	0	0	0
2859623	WORD	wordpools/wasnorm_wordpool_576.txt	LTP362	ltpFR2	13	15	BACKBONE	66	n/a	n/a	0	0	0
2862190	WORD	wordpools/wasnorm_wordpool_576.txt	LTP362	ltpFR2	13	15	PATROL	1027	n/a	n/a	0	0	0
2864771	WORD	wordpools/wasnorm_wordpool_576.txt	LTP362	ltpFR2	13	15	TWIG	1527	n/a	n/a	0	0	0
2867520	WORD	wordpools/wasnorm_wordpool_576.txt	LTP362	ltpFR2	13	15	NAPKIN	937	n/a	n/a	0	0	0
2870170	WORD	wordpools/wasnorm_wordpool_576.txt	LTP362	ltpFR2	13	15	KNAPSACK	783	n/a	n/a	0	0	0
2872684	WORD	wordpools/wasnorm_wordpool_576.txt	LTP362	ltpFR2	13	15	BRIEFCASE	175	n/a	n/a	0	0	0
2875284	WORD	wordpools/wasnorm_wordpool_576.txt	LTP362	ltpFR2	13	15	GANGSTER	620	n/a	n/a	0	0	0
2877883	WORD	wordpools/wasnorm_wordpool_576.txt	LTP362	ltpFR2	13	15	STAPLE	1371	n/a	n/a	0	0	0
2880348	WORD	wordpools/wasnorm_wordpool_576.txt	LTP362	ltpFR2	13	15	PARROT	1015	n/a	n/a	0	0	0
2883180	WORD	wordpools/wasnorm_wordpool_576.txt	LTP362	ltpFR2	13	15	RABBIT	1152	n/a	n/a	0	0	0
2885678	WORD	wordpools/wasnorm_wordpool_576.txt	LTP362	ltpFR2	13	15	FRIAR	605	n/a	n/a	0	0	0
2887295	START	n/a	LTP362	ltpFR2	13	n/a	n/a	n/a	22	n/a	n/a	n/a	n/a
2888306	DISTRACTOR	n/a	LTP362	ltpFR2	13	15	n/a	n/a	n/a	n/a	0	0	0
2888328	PROB	n/a	LTP362	ltpFR2	13	n/a	n/a	n/a	22	17	7	6	4
2889927	PROB	n/a	LTP362	ltpFR2	13	n/a	n/a	n/a	22	19	9	3	7
2891077	PROB	n/a	LTP362	ltpFR2	13	n/a	n/a	n/a	22	15	9	5	1
2892176	PROB	n/a	LTP362	ltpFR2	13	n/a	n/a	n/a	22	16	2	5	9
2893808	PROB	n/a	LTP362	ltpFR2	13	n/a	n/a	n/a	22	5	3	1	1
2894958	PROB	n/a	LTP362	ltpFR2	13	n/a	n/a	n/a	22	18	8	5	5
2896408	PROB	n/a	LTP362	ltpFR2	13	n/a	n/a	n/a	22	22	9	7	6
2899456	PROB	n/a	LTP362	ltpFR2	13	n/a	n/a	n/a	22	21	9	7	5
2901922	PROB	n/a	LTP362	ltpFR2	13	n/a	n/a	n/a	22	8	1	4	3
2903071	PROB	n/a	LTP362	ltpFR2	13	n/a	n/a	n/a	22	15	5	6	4
2904204	PROB	n/a	LTP362	ltpFR2	13	n/a	n/a	n/a	22	15	2	4	9
2905686	PROB	n/a	LTP362	ltpFR2	13	n/a	n/a	n/a	22	15	3	9	3
2907136	PROB	n/a	LTP362	ltpFR2	13	n/a	n/a	n/a	22	13	6	6	1
2908535	PROB	n/a	LTP362	ltpFR2	13	n/a	n/a	n/a	22	21	6	6	9
2910384	STOP	n/a	LTP362	ltpFR2	13	n/a	n/a	n/a	22	n/a	n/a	n/a	n/a
2913134	REC_START	n/a	LTP362	ltpFR2	13	15	n/a	n/a	n/a	n/a	0	0	0
2917587	REC_WORD	wordpools/wasnorm_wordpool_576.txt	LTP362	ltpFR2	13	15	EAGLE	512	n/a	n/a	0	0	0
2918289	REC_WORD	wordpools/wasnorm_wordpool_576.txt	LTP362	ltpFR2	13	15	TURTLE	1522	n/a	n/a	0	0	0
2918955	REC_WORD_VV	wordpools/wasnorm_wordpool_576.txt	LTP362	ltpFR2	13	15	<>	-1	n/a	n/a	0	0	0
2923540	REC_WORD_VV	wordpools/wasnorm_wordpool_576.txt	LTP362	ltpFR2	13	15	<>	-1	n/a	n/a	0	0	0
3003608	WORD	wordpools/wasnorm_wordpool_576.txt	LTP362	ltpFR2	13	16	ANKLE	24	n/a	n/a	0	0	0
3006175	WORD	wordpools/wasnorm_wordpool_576.txt	LTP362	ltpFR2	13	16	CONCERT	360	n/a	n/a	0	0	0
3008639	WORD	wordpools/wasnorm_wordpool_576.txt	LTP362	ltpFR2	13	16	SISTER	1312	n/a	n/a	0	0	0
3011356	WORD	wordpools/wasnorm_wordpool_576.txt	LTP362	ltpFR2	13	16	PARENT	1013	n/a	n/a	0	0	0
3013905	WORD	wordpools/wasnorm_wordpool_576.txt	LTP362	ltpFR2	13	16	SCARF	1246	n/a	n/a	0	0	0
3016502	WORD	wordpools/wasnorm_wordpool_576.txt	LTP362	ltpFR2	13	16	MACHINE	852	n/a	n/a	0	0	0
3019086	WORD	wordpools/wasnorm_wordpool_576.txt	LTP362	ltpFR2	13	16	JEANS	752	n/a	n/a	0	0	0
3021600	WORD	wordpools/wasnorm_wordpool_576.txt	LTP362	ltpFR2	13	16	RELISH	1183	n/a	n/a	0	0	0
3024267	WORD	wordpools/wasnorm_wordpool_576.txt	LTP362	ltpFR2	13	16	SUSPECT	1415	n/a	n/a	0	0	0
3027016	WORD	wordpools/wasnorm_wordpool_576.txt	LTP362	ltpFR2	13	16	PERCH	1048	n/a	n/a	0	0	0
3029480	WORD	wordpools/wasnorm_wordpool_576.txt	LTP362	ltpFR2	13	16	HOOK	715	n/a	n/a	0	0	0
3032213	WORD	wordpools/wasnorm_wordpool_576.txt	LTP362	ltpFR2	13	16	CLIMBER	323	n/a	n/a	0	0	0
3034678	WORD	wordpools/wasnorm_wordpool_576.txt	LTP362	ltpFR2	13	16	FLASHLIGHT	575	n/a	n/a	0	0	0
3037277	WORD	wordpools/wasnorm_wordpool_576.txt	LTP362	ltpFR2	13	16	SWITCH	1422	n/a	n/a	0	0	0
3039943	WORD	wordpools/wasnorm_wordpool_576.txt	LTP362	ltpFR2	13	16	PLAID	1080	n/a	n/a	0	0	0
3042474	WORD	wordpools/wasnorm_wordpool_576.txt	LTP362	ltpFR2	13	16	MASK	876	n/a	n/a	0	0	0
3045224	WORD	wordpools/wasnorm_wordpool_576.txt	LTP362	ltpFR2	13	16	CRAYON	401	n/a	n/a	0	0	0
3047705	WORD	wordpools/wasnorm_wordpool_576.txt	LTP362	ltpFR2	13	16	PILOT	1070	n/a	n/a	0	0	0
3050255	WORD	wordpools/wasnorm_wordpool_576.txt	LTP362	ltpFR2	13	16	CLOCK	325	n/a	n/a	0	0	0
3052819	WORD	wordpools/wasnorm_wordpool_576.txt	LTP362	ltpFR2	13	16	VALLEY	1545	n/a	n/a	0	0	0
3055319	WORD	wordpools/wasnorm_wordpool_576.txt	LTP362	ltpFR2	13	16	CANYON	235	n/a	n/a	0	0	0
3058118	WORD	wordpools/wasnorm_wordpool_576.txt	LTP362	ltpFR2	13	16	MUSTARD	935	n/a	n/a	0	0	0
3060883	WORD	wordpools/wasnorm_wordpool_576.txt	LTP362	ltpFR2	13	16	ICEBERG	731	n/a	n/a	0	0	0
3063449	WORD	wordpools/wasnorm_wordpool_576.txt	LTP362	ltpFR2	13	16	FRANCE	601	n/a	n/a	0	0	0
3065065	START	n/a	LTP362	ltpFR2	13	n/a	n/a	n/a	23	n/a	n/a	n/a	n/a
3066045	DISTRACTOR	n/a	LTP362	ltpFR2	13	16	n/a	n/a	n/a	n/a	0	0	0
3066048	PROB	n/a	LTP362	ltpFR2	13	n/a	n/a	n/a	23	14	7	3	4
3068347	PROB	n/a	LTP362	ltpFR2	13	n/a	n/a	n/a	23	8	1	6	1
3069612	PROB	n/a	LTP362	ltpFR2	13	n/a	n/a	n/a	23	15	3	5	7
3071062	PROB	n/a	LTP362	ltpFR2	13	n/a	n/a	n/a	23	8	2	3	3
3072627	PROB	n/a	LTP362	ltpFR2	13	n/a	n/a	n/a	23	10	1	7	2
3073878	PROB	n/a	LTP362	ltpFR2	13	n/a	n/a	n/a	23	17	2	9	6
3076376	PROB	n/a	LTP362	ltpFR2	13	n/a	n/a	n/a	23	13	5	6	2
3077575	PROB	n/a	LTP362	ltpFR2	13	n/a	n/a	n/a	23	11	6	3	2
3078875	PROB	n/a	LTP362	ltpFR2	13	n/a	n/a	n/a	23	20	5	8	7
3080474	PROB	n/a	LTP362	ltpFR2	13	n/a	n/a	n/a	23	15	5	9	1
3081540	PROB	n/a	LTP362	ltpFR2	13	n/a	n/a	n/a	23	14	6	7	1
3082822	PROB	n/a	LTP362	ltpFR2	13	n/a	n/a	n/a	23	16	7	3	6
3084306	PROB	n/a	LTP362	ltpFR2	13	n/a	n/a	n/a	23	8	4	1	3
3085422	PROB	n/a	LTP362	ltpFR2	13	n/a	n/a	n/a	23	21	5	8	8
3087804	STOP	n/a	LTP362	ltpFR2	13	n/a	n/a	n/a	23	n/a	n/a	n/a	n/a
3090937	REC_START	n/a	LTP362	ltpFR2	13	16	n/a	n/a	n/a	n/a	0	0	0
3092008	REC_WORD	wordpools/wasnorm_wordpool_576.txt	LTP362	ltpFR2	13	16	ANKLE	24	n/a	n/a	0	0	0
3092438	REC_WORD	wordpools/wasnorm_wordpool_576.txt	LTP362	ltpFR2	13	16	SISTER	1312	n/a	n/a	0	0	0
3093126	REC_WORD	wordpools/wasnorm_wordpool_576.txt	LTP362	ltpFR2	13	16	PARENT	1013	n/a	n/a	0	0	0
3093677	REC_WORD	wordpools/wasnorm_wordpool_576.txt	LTP362	ltpFR2	13	16	SCARF	1246	n/a	n/a	0	0	0
3097759	REC_WORD	wordpools/wasnorm_wordpool_576.txt	LTP362	ltpFR2	13	16	CLOCK	325	n/a	n/a	0	0	0
3102813	REC_WORD	wordpools/wasnorm_wordpool_576.txt	LTP362	ltpFR2	13	16	PLAID	1080	n/a	n/a	0	0	0
3167484	REST_REWET	n/a	LTP362	ltpFR2	13	16	n/a	n/a	n/a	n/a	0	0	0
3329146	WORD	wordpools/wasnorm_wordpool_576.txt	LTP362	ltpFR2	13	17	POWDER	1117	n/a	n/a	0	0	0
3331593	WORD	wordpools/wasnorm_wordpool_576.txt	LTP362	ltpFR2	13	17	HUMAN	726	n/a	n/a	0	0	0
3334227	WORD	wordpools/wasnorm_wordpool_576.txt	LTP362	ltpFR2	13	17	CLAM	315	n/a	n/a	0	0	0
3337025	WORD	wordpools/wasnorm_wordpool_576.txt	LTP362	ltpFR2	13	17	DRAWING	494	n/a	n/a	0	0	0
3339773	WORD	wordpools/wasnorm_wordpool_576.txt	LTP362	ltpFR2	13	17	LUMBER	848	n/a	n/a	0	0	0
3342290	WORD	wordpools/wasnorm_wordpool_576.txt	LTP362	ltpFR2	13	17	COOKBOOK	373	n/a	n/a	0	0	0
3345022	WORD	wordpools/wasnorm_wordpool_576.txt	LTP362	ltpFR2	13	17	COUCH	386	n/a	n/a	0	0	0
3347703	WORD	wordpools/wasnorm_wordpool_576.txt	LTP362	ltpFR2	13	17	DRESS	495	n/a	n/a	0	0	0
3350386	WORD	wordpools/wasnorm_wordpool_576.txt	LTP362	ltpFR2	13	17	SLUG	1329	n/a	n/a	0	0	0
3353001	WORD	wordpools/wasnorm_wordpool_576.txt	LTP362	ltpFR2	13	17	COOK	372	n/a	n/a	0	0	0
3355633	WORD	wordpools/wasnorm_wordpool_576.txt	LTP362	ltpFR2	13	17	SMOG	1330	n/a	n/a	0	0	0
3358432	WORD	wordpools/wasnorm_wordpool_576.txt	LTP362	ltpFR2	13	17	FIDDLE	561	n/a	n/a	0	0	0
3360931	WORD	wordpools/wasnorm_wordpool_576.txt	LTP362	ltpFR2	13	17	RATTLE	1170	n/a	n/a	0	0	0
3363546	WORD	wordpools/wasnorm_wordpool_576.txt	LTP362	ltpFR2	13	17	FRECKLE	602	n/a	n/a	0	0	0
3366179	WORD	wordpools/wasnorm_wordpool_576.txt	LTP362	ltpFR2	13	17	TORTOISE	1486	n/a	n/a	0	0	0
3368860	WORD	wordpools/wasnorm_wordpool_576.txt	LTP362	ltpFR2	13	17	KETCHUP	771	n/a	n/a	0	0	0
3371509	WORD	wordpools/wasnorm_wordpool_576.txt	LTP362	ltpFR2	13	17	MISSILE	900	n/a	n/a	0	0	0
3374042	WORD	wordpools/wasnorm_wordpool_576.txt	LTP362	ltpFR2	13	17	FLASK	576	n/a	n/a	0	0	0
3376740	WORD	wordpools/wasnorm_wordpool_576.txt	LTP362	ltpFR2	13	17	BEAKER	104	n/a	n/a	0	0	0
3379190	WORD	wordpools/wasnorm_wordpool_576.txt	LTP362	ltpFR2	13	17	POISON	1096	n/a	n/a	0	0	0
3381988	WORD	wordpools/wasnorm_wordpool_576.txt	LTP362	ltpFR2	13	17	SLIDE	1326	n/a	n/a	0	0	0
3384719	WORD	wordpools/wasnorm_wordpool_576.txt	LTP362	ltpFR2	13	17	STOVE	1388	n/a	n/a	0	0	0
3387501	WORD	wordpools/wasnorm_wordpool_576.txt	LTP362	ltpFR2	13	17	BLUEPRINT	142	n/a	n/a	0	0	0
3389951	WORD	wordpools/wasnorm_wordpool_576.txt	LTP362	ltpFR2	13	17	SHELTER	1282	n/a	n/a	0	0	0
3391566	START	n/a	LTP362	ltpFR2	13	n/a	n/a	n/a	24	n/a	n/a	n/a	n/a
3392510	DISTRACTOR	n/a	LTP362	ltpFR2	13	17	n/a	n/a	n/a	n/a	0	0	0
3392516	PROB	n/a	LTP362	ltpFR2	13	n/a	n/a	n/a	24	19	4	9	6
3394083	PROB	n/a	LTP362	ltpFR2	13	n/a	n/a	n/a	24	11	2	6	3
3396232	PROB	n/a	LTP362	ltpFR2	13	n/a	n/a	n/a	24	19	6	9	4
3397415	PROB	n/a	LTP362	ltpFR2	13	n/a	n/a	n/a	24	22	8	7	7
3399180	PROB	n/a	LTP362	ltpFR2	13	n/a	n/a	n/a	24	22	5	9	8
3402246	PROB	n/a	LTP362	ltpFR2	13	n/a	n/a	n/a	24	11	4	5	2
3403395	PROB	n/a	LTP362	ltpFR2	13	n/a	n/a	n/a	24	20	9	4	7
3405643	PROB	n/a	LTP362	ltpFR2	13	n/a	n/a	n/a	24	10	2	7	1
3406809	PROB	n/a	LTP362	ltpFR2	13	n/a	n/a	n/a	24	13	5	7	1
3408725	PROB	n/a	LTP362	ltpFR2	13	n/a	n/a	n/a	24	18	9	1	8
3410076	PROB	n/a	LTP362	ltpFR2	13	n/a	n/a	n/a	24	18	6	4	8
3412474	PROB	n/a	LTP362	ltpFR2	13	n/a	n/a	n/a	24	18	3	6	9
3415192	STOP	n/a	LTP362	ltpFR2	13	n/a	n/a	n/a	24	n/a	n/a	n/a	n/a
3417389	REC_START	n/a	LTP362	ltpFR2	13	17	n/a	n/a	n/a	n/a	0	0	0
3419229	REC_WORD	wordpools/wasnorm_wordpool_576.txt	LTP362	ltpFR2	13	17	CLAM	315	n/a	n/a	0	0	0
3419903	REC_WORD	wordpools/wasnorm_wordpool_576.txt	LTP362	ltpFR2	13	17	DRUM	502	n/a	n/a	0	0	0
3420381	REC_WORD	wordpools/wasnorm_wordpool_576.txt	LTP362	ltpFR2	13	17	HUMAN	726	n/a	n/a	0	0	0
3421259	REC_WORD	wordpools/wasnorm_wordpool_576.txt	LTP362	ltpFR2	13	17	COOKBOOK	373	n/a	n/a	0	0	0
3422259	REC_WORD_VV	wordpools/wasnorm_wordpool_576.txt	LTP362	ltpFR2	13	17	<>	-1	n/a	n/a	0	0	0
3507847	WORD	wordpools/wasnorm_wordpool_576.txt	LTP362	ltpFR2	13	18	PORK	1108	n/a	n/a	0	0	0
3510662	WORD	wordpools/wasnorm_wordpool_576.txt	LTP362	ltpFR2	13	18	FLESH	579	n/a	n/a	0	0	0
3513362	WORD	wordpools/wasnorm_wordpool_576.txt	LTP362	ltpFR2	13	18	PADDLE	1000	n/a	n/a	0	0	0
3515843	WORD	wordpools/wasnorm_wordpool_576.txt	LTP362	ltpFR2	13	18	TRENCH	1503	n/a	n/a	0	0	0
3518609	WORD	wordpools/wasnorm_wordpool_576.txt	LTP362	ltpFR2	13	18	CRITIC	410	n/a	n/a	0	0	0
3521309	WORD	wordpools/wasnorm_wordpool_576.txt	LTP362	ltpFR2	13	18	RACKET	1155	n/a	n/a	0	0	0
3524107	WORD	wordpools/wasnorm_wordpool_576.txt	LTP362	ltpFR2	13	18	PAPER	1011	n/a	n/a	0	0	0
3526805	WORD	wordpools/wasnorm_wordpool_576.txt	LTP362	ltpFR2	13	18	ARM	38	n/a	n/a	0	0	0
3529272	WORD	wordpools/wasnorm_wordpool_576.txt	LTP362	ltpFR2	13	18	WRIST	1626	n/a	n/a	0	0	0
3531870	WORD	wordpools/wasnorm_wordpool_576.txt	LTP362	ltpFR2	13	18	EUROPE	541	n/a	n/a	0	0	0
3534386	WORD	wordpools/wasnorm_wordpool_576.txt	LTP362	ltpFR2	13	18	TREAT	1501	n/a	n/a	0	0	0
3537201	WORD	wordpools/wasnorm_wordpool_576.txt	LTP362	ltpFR2	13	18	COUSIN	392	n/a	n/a	0	0	0
3539716	WORD	wordpools/wasnorm_wordpool_576.txt	LTP362	ltpFR2	13	18	ORANGE	980	n/a	n/a	0	0	0
3542299	WORD	wordpools/wasnorm_wordpool_576.txt	LTP362	ltpFR2	13	18	JELLY	755	n/a	n/a	0	0	0
3545081	WORD	wordpools/wasnorm_wordpool_576.txt	LTP362	ltpFR2	13	18	MUFFIN	929	n/a	n/a	0	0	0
3547512	WORD	wordpools/wasnorm_wordpool_576.txt	LTP362	ltpFR2	13	18	STATUE	1374	n/a	n/a	0	0	0
3550329	WORD	wordpools/wasnorm_wordpool_576.txt	LTP362	ltpFR2	13	18	DONOR	485	n/a	n/a	0	0	0
3553094	WORD	wordpools/wasnorm_wordpool_576.txt	LTP362	ltpFR2	13	18	LIZARD	834	n/a	n/a	0	0	0
3555559	WORD	wordpools/wasnorm_wordpool_576.txt	LTP362	ltpFR2	13	18	DIVER	476	n/a	n/a	0	0	0
3558192	WORD	wordpools/wasnorm_wordpool_576.txt	LTP362	ltpFR2	13	18	CORAL	378	n/a	n/a	0	0	0
3560823	WORD	wordpools/wasnorm_wordpool_576.txt	LTP362	ltpFR2	13	18	PICNIC	1060	n/a	n/a	0	0	0
3563589	WORD	wordpools/wasnorm_wordpool_576.txt	LTP362	ltpFR2	13	18	APPLE	33	n/a	n/a	0	0	0
3566088	WORD	wordpools/wasnorm_wordpool_576.txt	LTP362	ltpFR2	13	18	DONKEY	484	n/a	n/a	0	0	0
3568803	WORD	wordpools/wasnorm_wordpool_576.txt	LTP362	ltpFR2	13	18	BUREAU	199	n/a	n/a	0	0	0
3570420	START	n/a	LTP362	ltpFR2	13	n/a	n/a	n/a	25	n/a	n/a	n/a	n/a
3571288	DISTRACTOR	n/a	LTP362	ltpFR2	13	18	n/a	n/a	n/a	n/a	0	0	0
3571303	PROB	n/a	LTP362	ltpFR2	13	n/a	n/a	n/a	25	16	5	6	5
3572784	PROB	n/a	LTP362	ltpFR2	13	n/a	n/a	n/a	25	12	5	4	3
3574667	PROB	n/a	LTP362	ltpFR2	13	n/a	n/a	n/a	25	18	2	8	8
3575967	PROB	n/a	LTP362	ltpFR2	13	n/a	n/a	n/a	25	16	5	6	5
3577000	PROB	n/a	LTP362	ltpFR2	13	n/a	n/a	n/a	25	11	6	2	3
3578266	PROB	n/a	LTP362	ltpFR2	13	n/a	n/a	n/a	25	15	3	7	5
3581015	PROB	n/a	LTP362	ltpFR2	13	n/a	n/a	n/a	25	20	8	9	3
3583097	PROB	n/a	LTP362	ltpFR2	13	n/a	n/a	n/a	25	13	1	4	8
3585346	PROB	n/a	LTP362	ltpFR2	13	n/a	n/a	n/a	25	20	8	8	4
3587945	PROB	n/a	LTP362	ltpFR2	13	n/a	n/a	n/a	25	21	8	7	6
3589894	PROB	n/a	LTP362	ltpFR2	13	n/a	n/a	n/a	25	21	5	9	7
3593341	STOP	n/a	LTP362	ltpFR2	13	n/a	n/a	n/a	25	n/a	n/a	n/a	n/a
3596325	REC_START	n/a	LTP362	ltpFR2	13	18	n/a	n/a	n/a	n/a	0	0	0
3670646	REC_WORD_VV	wordpools/wasnorm_wordpool_576.txt	LTP362	ltpFR2	13	18	<>	-1	n/a	n/a	0	0	0
3686766	DISTRACTOR	n/a	LTP362	ltpFR2	13	19	n/a	n/a	n/a	n/a	0	0	0
3686766	START	n/a	LTP362	ltpFR2	13	n/a	n/a	n/a	26	n/a	n/a	n/a	n/a
3686783	PROB	n/a	LTP362	ltpFR2	13	n/a	n/a	n/a	26	19	9	8	2
3688033	PROB	n/a	LTP362	ltpFR2	13	n/a	n/a	n/a	26	11	7	1	3
3689149	PROB	n/a	LTP362	ltpFR2	13	n/a	n/a	n/a	26	9	1	1	7
3690232	PROB	n/a	LTP362	ltpFR2	13	n/a	n/a	n/a	26	14	6	7	1
3691564	PROB	n/a	LTP362	ltpFR2	13	n/a	n/a	n/a	26	24	8	9	7
3694247	PROB	n/a	LTP362	ltpFR2	13	n/a	n/a	n/a	26	14	9	4	1
3695612	PROB	n/a	LTP362	ltpFR2	13	n/a	n/a	n/a	26	14	4	9	1
3696762	PROB	n/a	LTP362	ltpFR2	13	n/a	n/a	n/a	26	16	8	2	6
3698079	PROB	n/a	LTP362	ltpFR2	13	n/a	n/a	n/a	26	23	9	5	9
3700078	PROB	n/a	LTP362	ltpFR2	13	n/a	n/a	n/a	26	19	4	8	7
3701643	PROB	n/a	LTP362	ltpFR2	13	n/a	n/a	n/a	26	20	7	6	7
3702993	PROB	n/a	LTP362	ltpFR2	13	n/a	n/a	n/a	26	12	2	6	4
3704359	PROB	n/a	LTP362	ltpFR2	13	n/a	n/a	n/a	26	15	6	2	7
3707573	PROB	n/a	LTP362	ltpFR2	13	n/a	n/a	n/a	26	12	5	1	6
3709504	STOP	n/a	LTP362	ltpFR2	13	n/a	n/a	n/a	26	n/a	n/a	n/a	n/a
3711889	WORD	wordpools/wasnorm_wordpool_576.txt	LTP362	ltpFR2	13	19	DUSTPAN	509	n/a	n/a	0	0	0
3714438	WORD	wordpools/wasnorm_wordpool_576.txt	LTP362	ltpFR2	13	19	SPONGE	1355	n/a	n/a	0	0	0
3717237	WORD	wordpools/wasnorm_wordpool_576.txt	LTP362	ltpFR2	13	19	SIBLING	1301	n/a	n/a	0	0	0
3719985	WORD	wordpools/wasnorm_wordpool_576.txt	LTP362	ltpFR2	13	19	JOURNAL	760	n/a	n/a	0	0	0
3722733	WORD	wordpools/wasnorm_wordpool_576.txt	LTP362	ltpFR2	13	19	SHELF	1280	n/a	n/a	0	0	0
3725499	WORD	wordpools/wasnorm_wordpool_576.txt	LTP362	ltpFR2	13	19	SCOTCH	1251	n/a	n/a	0	0	0
3727982	WORD	wordpools/wasnorm_wordpool_576.txt	LTP362	ltpFR2	13	19	CLAMP	316	n/a	n/a	0	0	0
3730431	WORD	wordpools/wasnorm_wordpool_576.txt	LTP362	ltpFR2	13	19	SERVANT	1271	n/a	n/a	0	0	0
3733246	WORD	wordpools/wasnorm_wordpool_576.txt	LTP362	ltpFR2	13	19	BURGLAR	200	n/a	n/a	0	0	0
3736011	WORD	wordpools/wasnorm_wordpool_576.txt	LTP362	ltpFR2	13	19	POSTAGE	1113	n/a	n/a	0	0	0
3738643	WORD	wordpools/wasnorm_wordpool_576.txt	LTP362	ltpFR2	13	19	TUNNEL	1519	n/a	n/a	0	0	0
3741226	WORD	wordpools/wasnorm_wordpool_576.txt	LTP362	ltpFR2	13	19	HUSBAND	728	n/a	n/a	0	0	0
3743774	WORD	wordpools/wasnorm_wordpool_576.txt	LTP362	ltpFR2	13	19	STUDENT	1395	n/a	n/a	0	0	0
3746323	WORD	wordpools/wasnorm_wordpool_576.txt	LTP362	ltpFR2	13	19	LAKE	796	n/a	n/a	0	0	0
3748939	WORD	wordpools/wasnorm_wordpool_576.txt	LTP362	ltpFR2	13	19	BRANDY	169	n/a	n/a	0	0	0
3751620	WORD	wordpools/wasnorm_wordpool_576.txt	LTP362	ltpFR2	13	19	OFFICE	972	n/a	n/a	0	0	0
3754070	WORD	wordpools/wasnorm_wordpool_576.txt	LTP362	ltpFR2	13	19	TYPIST	1532	n/a	n/a	0	0	0
3756784	WORD	wordpools/wasnorm_wordpool_576.txt	LTP362	ltpFR2	13	19	NEUTRON	947	n/a	n/a	0	0	0
3759600	WORD	wordpools/wasnorm_wordpool_576.txt	LTP362	ltpFR2	13	19	DRUG	501	n/a	n/a	0	0	0
3762316	WORD	wordpools/wasnorm_wordpool_576.txt	LTP362	ltpFR2	13	19	WIDOW	1608	n/a	n/a	0	0	0
3764847	WORD	wordpools/wasnorm_wordpool_576.txt	LTP362	ltpFR2	13	19	SPOON	1357	n/a	n/a	0	0	0
3767281	WORD	wordpools/wasnorm_wordpool_576.txt	LTP362	ltpFR2	13	19	WIFE	1609	n/a	n/a	0	0	0
3770046	WORD	wordpools/wasnorm_wordpool_576.txt	LTP362	ltpFR2	13	19	ROBBER	1197	n/a	n/a	0	0	0
3772827	WORD	wordpools/wasnorm_wordpool_576.txt	LTP362	ltpFR2	13	19	PACKAGE	997	n/a	n/a	0	0	0
3774444	START	n/a	LTP362	ltpFR2	13	n/a	n/a	n/a	27	n/a	n/a	n/a	n/a
3775404	DISTRACTOR	n/a	LTP362	ltpFR2	13	19	n/a	n/a	n/a	n/a	0	0	0
3775410	PROB	n/a	LTP362	ltpFR2	13	n/a	n/a	n/a	27	14	6	7	1
3776842	PROB	n/a	LTP362	ltpFR2	13	n/a	n/a	n/a	27	11	1	6	4
3777876	PROB	n/a	LTP362	ltpFR2	13	n/a	n/a	n/a	27	15	6	6	3
3779807	PROB	n/a	LTP362	ltpFR2	13	n/a	n/a	n/a	27	19	9	2	8
3781174	PROB	n/a	LTP362	ltpFR2	13	n/a	n/a	n/a	27	18	9	7	2
3783057	PROB	n/a	LTP362	ltpFR2	13	n/a	n/a	n/a	27	13	6	4	3
3784206	PROB	n/a	LTP362	ltpFR2	13	n/a	n/a	n/a	27	23	6	8	9
3786039	PROB	n/a	LTP362	ltpFR2	13	n/a	n/a	n/a	27	15	3	7	5
3787238	PROB	n/a	LTP362	ltpFR2	13	n/a	n/a	n/a	27	10	7	1	2
3788454	PROB	n/a	LTP362	ltpFR2	13	n/a	n/a	n/a	27	16	3	7	6
3789586	PROB	n/a	LTP362	ltpFR2	13	n/a	n/a	n/a	27	4	1	2	1
3790702	PROB	n/a	LTP362	ltpFR2	13	n/a	n/a	n/a	27	14	8	5	1
3792419	PROB	n/a	LTP362	ltpFR2	13	n/a	n/a	n/a	27	21	9	6	6
3794318	PROB	n/a	LTP362	ltpFR2	13	n/a	n/a	n/a	27	20	9	4	7
3796051	PROB	n/a	LTP362	ltpFR2	13	n/a	n/a	n/a	27	16	7	7	2
3797507	STOP	n/a	LTP362	ltpFR2	13	n/a	n/a	n/a	27	n/a	n/a	n/a	n/a
3800216	REC_START	n/a	LTP362	ltpFR2	13	19	n/a	n/a	n/a	n/a	0	0	0
3802518	REC_WORD	wordpools/wasnorm_wordpool_576.txt	LTP362	ltpFR2	13	19	BRANDY	169	n/a	n/a	0	0	0
3803140	REC_WORD	wordpools/wasnorm_wordpool_576.txt	LTP362	ltpFR2	13	19	ROBBER	1197	n/a	n/a	0	0	0
3803825	REC_WORD	wordpools/wasnorm_wordpool_576.txt	LTP362	ltpFR2	13	19	BURGLAR	200	n/a	n/a	0	0	0
3890657	DISTRACTOR	n/a	LTP362	ltpFR2	13	20	n/a	n/a	n/a	n/a	0	0	0
3890657	START	n/a	LTP362	ltpFR2	13	n/a	n/a	n/a	28	n/a	n/a	n/a	n/a
3890674	PROB	n/a	LTP362	ltpFR2	13	n/a	n/a	n/a	28	18	8	8	2
3892041	PROB	n/a	LTP362	ltpFR2	13	n/a	n/a	n/a	28	22	7	8	7
3893806	PROB	n/a	LTP362	ltpFR2	13	n/a	n/a	n/a	28	13	9	3	1
3895006	PROB	n/a	LTP362	ltpFR2	13	n/a	n/a	n/a	28	12	9	1	2
3896306	PROB	n/a	LTP362	ltpFR2	13	n/a	n/a	n/a	28	16	1	7	8
3897537	PROB	n/a	LTP362	ltpFR2	13	n/a	n/a	n/a	28	13	5	4	4
3899853	PROB	n/a	LTP362	ltpFR2	13	n/a	n/a	n/a	28	10	2	1	7
3900970	PROB	n/a	LTP362	ltpFR2	13	n/a	n/a	n/a	28	12	1	6	5
3902020	PROB	n/a	LTP362	ltpFR2	13	n/a	n/a	n/a	28	17	3	5	9
3903302	PROB	n/a	LTP362	ltpFR2	13	n/a	n/a	n/a	28	13	1	7	5
3904952	PROB	n/a	LTP362	ltpFR2	13	n/a	n/a	n/a	28	12	7	1	4
3906451	PROB	n/a	LTP362	ltpFR2	13	n/a	n/a	n/a	28	10	3	5	2
3908732	PROB	n/a	LTP362	ltpFR2	13	n/a	n/a	n/a	28	3	1	1	1
3910016	PROB	n/a	LTP362	ltpFR2	13	n/a	n/a	n/a	28	16	4	5	7
3912781	PROB	n/a	LTP362	ltpFR2	13	n/a	n/a	n/a	28	14	5	5	4
3914359	STOP	n/a	LTP362	ltpFR2	13	n/a	n/a	n/a	28	n/a	n/a	n/a	n/a
3915813	WORD	wordpools/wasnorm_wordpool_576.txt	LTP362	ltpFR2	13	20	FRIEND	606	n/a	n/a	0	0	0
3918346	WORD	wordpools/wasnorm_wordpool_576.txt	LTP362	ltpFR2	13	20	LADDER	793	n/a	n/a	0	0	0
3920878	WORD	wordpools/wasnorm_wordpool_576.txt	LTP362	ltpFR2	13	20	JUNGLE	764	n/a	n/a	0	0	0
3923327	WORD	wordpools/wasnorm_wordpool_576.txt	LTP362	ltpFR2	13	20	ANTLER	29	n/a	n/a	0	0	0
3925892	WORD	wordpools/wasnorm_wordpool_576.txt	LTP362	ltpFR2	13	20	FOREST	593	n/a	n/a	0	0	0
3928690	WORD	wordpools/wasnorm_wordpool_576.txt	LTP362	ltpFR2	13	20	PRIMATE	1123	n/a	n/a	0	0	0
3931472	WORD	wordpools/wasnorm_wordpool_576.txt	LTP362	ltpFR2	13	20	SEAL	1262	n/a	n/a	0	0	0
3934288	WORD	wordpools/wasnorm_wordpool_576.txt	LTP362	ltpFR2	13	20	CONTRACT	368	n/a	n/a	0	0	0
3936921	WORD	wordpools/wasnorm_wordpool_576.txt	LTP362	ltpFR2	13	20	DOLPHIN	483	n/a	n/a	0	0	0
3939453	WORD	wordpools/wasnorm_wordpool_576.txt	LTP362	ltpFR2	13	20	PIMPLE	1071	n/a	n/a	0	0	0
3942185	WORD	wordpools/wasnorm_wordpool_576.txt	LTP362	ltpFR2	13	20	BASEMENT	94	n/a	n/a	0	0	0
3944716	WORD	wordpools/wasnorm_wordpool_576.txt	LTP362	ltpFR2	13	20	MAMMAL	861	n/a	n/a	0	0	0
3947183	WORD	wordpools/wasnorm_wordpool_576.txt	LTP362	ltpFR2	13	20	BOARD	143	n/a	n/a	0	0	0
3949915	WORD	wordpools/wasnorm_wordpool_576.txt	LTP362	ltpFR2	13	20	SURVEY	1414	n/a	n/a	0	0	0
3952596	WORD	wordpools/wasnorm_wordpool_576.txt	LTP362	ltpFR2	13	20	DOUGHNUT	490	n/a	n/a	0	0	0
3955179	WORD	wordpools/wasnorm_wordpool_576.txt	LTP362	ltpFR2	13	20	FRUIT	610	n/a	n/a	0	0	0
3957677	WORD	wordpools/wasnorm_wordpool_576.txt	LTP362	ltpFR2	13	20	OZONE	996	n/a	n/a	0	0	0
3960509	WORD	wordpools/wasnorm_wordpool_576.txt	LTP362	ltpFR2	13	20	CELLAR	267	n/a	n/a	0	0	0
3962992	WORD	wordpools/wasnorm_wordpool_576.txt	LTP362	ltpFR2	13	20	HELMET	702	n/a	n/a	0	0	0
3965458	WORD	wordpools/wasnorm_wordpool_576.txt	LTP362	ltpFR2	13	20	TROUT	1511	n/a	n/a	0	0	0
3967890	WORD	wordpools/wasnorm_wordpool_576.txt	LTP362	ltpFR2	13	20	TRUCK	1512	n/a	n/a	0	0	0
3970621	WORD	wordpools/wasnorm_wordpool_576.txt	LTP362	ltpFR2	13	20	VALVE	1546	n/a	n/a	0	0	0
3973421	WORD	wordpools/wasnorm_wordpool_576.txt	LTP362	ltpFR2	13	20	CLOUD	328	n/a	n/a	0	0	0
3976103	WORD	wordpools/wasnorm_wordpool_576.txt	LTP362	ltpFR2	13	20	LIGHTNING	820	n/a	n/a	0	0	0
3977718	START	n/a	LTP362	ltpFR2	13	n/a	n/a	n/a	29	n/a	n/a	n/a	n/a
3978650	DISTRACTOR	n/a	LTP362	ltpFR2	13	20	n/a	n/a	n/a	n/a	0	0	0
3978667	PROB	n/a	LTP362	ltpFR2	13	n/a	n/a	n/a	29	12	4	1	7
3980051	PROB	n/a	LTP362	ltpFR2	13	n/a	n/a	n/a	29	10	4	2	4
3981384	PROB	n/a	LTP362	ltpFR2	13	n/a	n/a	n/a	29	17	2	8	7
3983166	PROB	n/a	LTP362	ltpFR2	13	n/a	n/a	n/a	29	12	7	3	2
3984899	PROB	n/a	LTP362	ltpFR2	13	n/a	n/a	n/a	29	14	4	9	1
3986065	PROB	n/a	LTP362	ltpFR2	13	n/a	n/a	n/a	29	15	5	4	6
3987964	PROB	n/a	LTP362	ltpFR2	13	n/a	n/a	n/a	29	20	4	7	9
3989562	PROB	n/a	LTP362	ltpFR2	13	n/a	n/a	n/a	29	17	8	8	1
3991029	PROB	n/a	LTP362	ltpFR2	13	n/a	n/a	n/a	29	13	5	1	7
3992396	PROB	n/a	LTP362	ltpFR2	13	n/a	n/a	n/a	29	11	1	6	4
3993494	PROB	n/a	LTP362	ltpFR2	13	n/a	n/a	n/a	29	13	1	8	4
3995560	PROB	n/a	LTP362	ltpFR2	13	n/a	n/a	n/a	29	10	3	6	1
3996742	PROB	n/a	LTP362	ltpFR2	13	n/a	n/a	n/a	29	17	5	3	9
3999426	PROB	n/a	LTP362	ltpFR2	13	n/a	n/a	n/a	29	8	4	1	3
4001553	STOP	n/a	LTP362	ltpFR2	13	n/a	n/a	n/a	29	n/a	n/a	n/a	n/a
4003507	REC_START	n/a	LTP362	ltpFR2	13	20	n/a	n/a	n/a	n/a	0	0	0
4004688	REC_WORD	wordpools/wasnorm_wordpool_576.txt	LTP362	ltpFR2	13	20	FRIEND	606	n/a	n/a	0	0	0
4005353	REC_WORD	wordpools/wasnorm_wordpool_576.txt	LTP362	ltpFR2	13	20	JUNGLE	764	n/a	n/a	0	0	0
4005882	REC_WORD	wordpools/wasnorm_wordpool_576.txt	LTP362	ltpFR2	13	20	LADDER	793	n/a	n/a	0	0	0
4006402	REC_WORD	wordpools/wasnorm_wordpool_576.txt	LTP362	ltpFR2	13	20	BOARD	143	n/a	n/a	0	0	0
4006857	REC_WORD	wordpools/wasnorm_wordpool_576.txt	LTP362	ltpFR2	13	20	SURVEY	1414	n/a	n/a	0	0	0
4010445	REC_WORD	wordpools/wasnorm_wordpool_576.txt	LTP362	ltpFR2	13	20	DOUGHNUT	490	n/a	n/a	0	0	0
4010792	REC_WORD	wordpools/wasnorm_wordpool_576.txt	LTP362	ltpFR2	13	20	FRUIT	610	n/a	n/a	0	0	0
4093950	WORD	wordpools/wasnorm_wordpool_576.txt	LTP362	ltpFR2	13	21	SKETCH	1315	n/a	n/a	0	0	0
4096531	WORD	wordpools/wasnorm_wordpool_576.txt	LTP362	ltpFR2	13	21	MAILBOX	857	n/a	n/a	0	0	0
4099214	WORD	wordpools/wasnorm_wordpool_576.txt	LTP362	ltpFR2	13	21	PENGUIN	1044	n/a	n/a	0	0	0
4101778	WORD	wordpools/wasnorm_wordpool_576.txt	LTP362	ltpFR2	13	21	OUTDOORS	987	n/a	n/a	0	0	0
4104328	WORD	wordpools/wasnorm_wordpool_576.txt	LTP362	ltpFR2	13	21	PERMIT	1051	n/a	n/a	0	0	0
4106809	WORD	wordpools/wasnorm_wordpool_576.txt	LTP362	ltpFR2	13	21	HANDBAG	684	n/a	n/a	0	0	0
4109309	WORD	wordpools/wasnorm_wordpool_576.txt	LTP362	ltpFR2	13	21	COFFEE	341	n/a	n/a	0	0	0
4112108	WORD	wordpools/wasnorm_wordpool_576.txt	LTP362	ltpFR2	13	21	HORNET	718	n/a	n/a	0	0	0
4114573	WORD	wordpools/wasnorm_wordpool_576.txt	LTP362	ltpFR2	13	21	WORKER	1621	n/a	n/a	0	0	0
4117306	WORD	wordpools/wasnorm_wordpool_576.txt	LTP362	ltpFR2	13	21	YACHT	1629	n/a	n/a	0	0	0
4119955	WORD	wordpools/wasnorm_wordpool_576.txt	LTP362	ltpFR2	13	21	WINDOW	1611	n/a	n/a	0	0	0
4122686	WORD	wordpools/wasnorm_wordpool_576.txt	LTP362	ltpFR2	13	21	NECKLACE	940	n/a	n/a	0	0	0
4125285	WORD	wordpools/wasnorm_wordpool_576.txt	LTP362	ltpFR2	13	21	MEDAL	885	n/a	n/a	0	0	0
4128084	WORD	wordpools/wasnorm_wordpool_576.txt	LTP362	ltpFR2	13	21	MATTRESS	879	n/a	n/a	0	0	0
4130649	WORD	wordpools/wasnorm_wordpool_576.txt	LTP362	ltpFR2	13	21	NIGHTGOWN	953	n/a	n/a	0	0	0
4133132	WORD	wordpools/wasnorm_wordpool_576.txt	LTP362	ltpFR2	13	21	PUPPY	1144	n/a	n/a	0	0	0
4135947	WORD	wordpools/wasnorm_wordpool_576.txt	LTP362	ltpFR2	13	21	STOMACH	1384	n/a	n/a	0	0	0
4138762	WORD	wordpools/wasnorm_wordpool_576.txt	LTP362	ltpFR2	13	21	BROOK	177	n/a	n/a	0	0	0
4141378	WORD	wordpools/wasnorm_wordpool_576.txt	LTP362	ltpFR2	13	21	AUTHOR	61	n/a	n/a	0	0	0
4144127	WORD	wordpools/wasnorm_wordpool_576.txt	LTP362	ltpFR2	13	21	DENTIST	447	n/a	n/a	0	0	0
4146641	WORD	wordpools/wasnorm_wordpool_576.txt	LTP362	ltpFR2	13	21	SPARROW	1347	n/a	n/a	0	0	0
4149125	WORD	wordpools/wasnorm_wordpool_576.txt	LTP362	ltpFR2	13	21	POCKET	1093	n/a	n/a	0	0	0
4151923	WORD	wordpools/wasnorm_wordpool_576.txt	LTP362	ltpFR2	13	21	PIGMENT	1066	n/a	n/a	0	0	0
4154721	WORD	wordpools/wasnorm_wordpool_576.txt	LTP362	ltpFR2	13	21	GIFT	635	n/a	n/a	0	0	0
4156338	START	n/a	LTP362	ltpFR2	13	n/a	n/a	n/a	30	n/a	n/a	n/a	n/a
4157171	DISTRACTOR	n/a	LTP362	ltpFR2	13	21	n/a	n/a	n/a	n/a	0	0	0
4157188	PROB	n/a	LTP362	ltpFR2	13	n/a	n/a	n/a	30	10	2	3	5
4158669	PROB	n/a	LTP362	ltpFR2	13	n/a	n/a	n/a	30	13	7	4	2
4159886	PROB	n/a	LTP362	ltpFR2	13	n/a	n/a	n/a	30	19	8	7	4
4161601	PROB	n/a	LTP362	ltpFR2	13	n/a	n/a	n/a	30	25	9	7	9
4164683	PROB	n/a	LTP362	ltpFR2	13	n/a	n/a	n/a	30	21	9	7	5
4167465	PROB	n/a	LTP362	ltpFR2	13	n/a	n/a	n/a	30	12	2	5	5
4168932	PROB	n/a	LTP362	ltpFR2	13	n/a	n/a	n/a	30	5	2	1	2
4170864	PROB	n/a	LTP362	ltpFR2	13	n/a	n/a	n/a	30	13	1	4	7
4172164	PROB	n/a	LTP362	ltpFR2	13	n/a	n/a	n/a	30	14	4	5	5
4173646	PROB	n/a	LTP362	ltpFR2	13	n/a	n/a	n/a	30	20	7	7	7
4175712	PROB	n/a	LTP362	ltpFR2	13	n/a	n/a	n/a	30	13	3	2	8
4177711	PROB	n/a	LTP362	ltpFR2	13	n/a	n/a	n/a	30	17	9	3	5
4179264	STOP	n/a	LTP362	ltpFR2	13	n/a	n/a	n/a	30	n/a	n/a	n/a	n/a
4182143	REC_START	n/a	LTP362	ltpFR2	13	21	n/a	n/a	n/a	n/a	0	0	0
4192010	REC_WORD	wordpools/wasnorm_wordpool_576.txt	LTP362	ltpFR2	13	21	SKETCH	1315	n/a	n/a	0	0	0
4193010	REC_WORD_VV	wordpools/wasnorm_wordpool_576.txt	LTP362	ltpFR2	13	21	<>	-1	n/a	n/a	0	0	0
4272584	DISTRACTOR	n/a	LTP362	ltpFR2	13	22	n/a	n/a	n/a	n/a	0	0	0
4272585	START	n/a	LTP362	ltpFR2	13	n/a	n/a	n/a	31	n/a	n/a	n/a	n/a
4272601	PROB	n/a	LTP362	ltpFR2	13	n/a	n/a	n/a	31	19	5	5	9
4273951	PROB	n/a	LTP362	ltpFR2	13	n/a	n/a	n/a	31	14	5	7	2
4276384	PROB	n/a	LTP362	ltpFR2	13	n/a	n/a	n/a	31	15	9	2	4
4278299	PROB	n/a	LTP362	ltpFR2	13	n/a	n/a	n/a	31	7	2	3	2
4280597	PROB	n/a	LTP362	ltpFR2	13	n/a	n/a	n/a	31	11	3	3	5
4282298	PROB	n/a	LTP362	ltpFR2	13	n/a	n/a	n/a	31	23	9	9	5
4284862	PROB	n/a	LTP362	ltpFR2	13	n/a	n/a	n/a	31	14	3	5	6
4288212	PROB	n/a	LTP362	ltpFR2	13	n/a	n/a	n/a	31	16	2	7	7
4290810	PROB	n/a	LTP362	ltpFR2	13	n/a	n/a	n/a	31	11	3	1	7
4292227	PROB	n/a	LTP362	ltpFR2	13	n/a	n/a	n/a	31	20	5	6	9
4296585	STOP	n/a	LTP362	ltpFR2	13	n/a	n/a	n/a	31	n/a	n/a	n/a	n/a
4297723	WORD	wordpools/wasnorm_wordpool_576.txt	LTP362	ltpFR2	13	22	FLEET	578	n/a	n/a	0	0	0
4300339	WORD	wordpools/wasnorm_wordpool_576.txt	LTP362	ltpFR2	13	22	MILDEW	893	n/a	n/a	0	0	0
4303005	WORD	wordpools/wasnorm_wordpool_576.txt	LTP362	ltpFR2	13	22	GARDEN	623	n/a	n/a	0	0	0
4305753	WORD	wordpools/wasnorm_wordpool_576.txt	LTP362	ltpFR2	13	22	DORM	488	n/a	n/a	0	0	0
4308203	WORD	wordpools/wasnorm_wordpool_576.txt	LTP362	ltpFR2	13	22	PEDAL	1037	n/a	n/a	0	0	0
4310817	WORD	wordpools/wasnorm_wordpool_576.txt	LTP362	ltpFR2	13	22	MISTER	901	n/a	n/a	0	0	0
4313466	WORD	wordpools/wasnorm_wordpool_576.txt	LTP362	ltpFR2	13	22	PIANO	1057	n/a	n/a	0	0	0
4316099	WORD	wordpools/wasnorm_wordpool_576.txt	LTP362	ltpFR2	13	22	ROBOT	1200	n/a	n/a	0	0	0
4318881	WORD	wordpools/wasnorm_wordpool_576.txt	LTP362	ltpFR2	13	22	ULCER	1533	n/a	n/a	0	0	0
4321596	WORD	wordpools/wasnorm_wordpool_576.txt	LTP362	ltpFR2	13	22	TOURIST	1488	n/a	n/a	0	0	0
4324046	WORD	wordpools/wasnorm_wordpool_576.txt	LTP362	ltpFR2	13	22	KEEPER	769	n/a	n/a	0	0	0
4326593	WORD	wordpools/wasnorm_wordpool_576.txt	LTP362	ltpFR2	13	22	WAITRESS	1581	n/a	n/a	0	0	0
4329027	WORD	wordpools/wasnorm_wordpool_576.txt	LTP362	ltpFR2	13	22	DINER	467	n/a	n/a	0	0	0
4331624	WORD	wordpools/wasnorm_wordpool_576.txt	LTP362	ltpFR2	13	22	QUARTER	1148	n/a	n/a	0	0	0
4334391	WORD	wordpools/wasnorm_wordpool_576.txt	LTP362	ltpFR2	13	22	BALLOON	75	n/a	n/a	0	0	0
4336873	WORD	wordpools/wasnorm_wordpool_576.txt	LTP362	ltpFR2	13	22	TURKEY	1520	n/a	n/a	0	0	0
4339471	WORD	wordpools/wasnorm_wordpool_576.txt	LTP362	ltpFR2	13	22	MOTEL	919	n/a	n/a	0	0	0
4342221	WORD	wordpools/wasnorm_wordpool_576.txt	LTP362	ltpFR2	13	22	LODGE	839	n/a	n/a	0	0	0
4344735	WORD	wordpools/wasnorm_wordpool_576.txt	LTP362	ltpFR2	13	22	LOVER	846	n/a	n/a	0	0	0
4347252	WORD	wordpools/wasnorm_wordpool_576.txt	LTP362	ltpFR2	13	22	BANQUET	86	n/a	n/a	0	0	0
4349967	WORD	wordpools/wasnorm_wordpool_576.txt	LTP362	ltpFR2	13	22	TRIBE	1505	n/a	n/a	0	0	0
4352399	WORD	wordpools/wasnorm_wordpool_576.txt	LTP362	ltpFR2	13	22	COURSE	390	n/a	n/a	0	0	0
4355065	WORD	wordpools/wasnorm_wordpool_576.txt	LTP362	ltpFR2	13	22	COLLEGE	346	n/a	n/a	0	0	0
4357496	WORD	wordpools/wasnorm_wordpool_576.txt	LTP362	ltpFR2	13	22	WOMAN	1620	n/a	n/a	0	0	0
4359113	START	n/a	LTP362	ltpFR2	13	n/a	n/a	n/a	32	n/a	n/a	n/a	n/a
4360232	DISTRACTOR	n/a	LTP362	ltpFR2	13	22	n/a	n/a	n/a	n/a	0	0	0
4360246	PROB	n/a	LTP362	ltpFR2	13	n/a	n/a	n/a	32	20	6	6	8
4361962	PROB	n/a	LTP362	ltpFR2	13	n/a	n/a	n/a	32	19	7	7	5
4363460	PROB	n/a	LTP362	ltpFR2	13	n/a	n/a	n/a	32	10	8	1	1
4364593	PROB	n/a	LTP362	ltpFR2	13	n/a	n/a	n/a	32	18	4	6	8
4366176	PROB	n/a	LTP362	ltpFR2	13	n/a	n/a	n/a	32	14	3	7	4
4368209	PROB	n/a	LTP362	ltpFR2	13	n/a	n/a	n/a	32	22	4	9	9
4369840	PROB	n/a	LTP362	ltpFR2	13	n/a	n/a	n/a	32	20	5	8	7
4372057	PROB	n/a	LTP362	ltpFR2	13	n/a	n/a	n/a	32	6	1	3	2
4373257	PROB	n/a	LTP362	ltpFR2	13	n/a	n/a	n/a	32	15	8	6	1
4376571	PROB	n/a	LTP362	ltpFR2	13	n/a	n/a	n/a	32	23	7	7	9
4378104	PROB	n/a	LTP362	ltpFR2	13	n/a	n/a	n/a	32	16	9	5	2
4380602	PROB	n/a	LTP362	ltpFR2	13	n/a	n/a	n/a	32	20	6	9	5
4382158	STOP	n/a	LTP362	ltpFR2	13	n/a	n/a	n/a	32	n/a	n/a	n/a	n/a
4384935	REC_START	n/a	LTP362	ltpFR2	13	22	n/a	n/a	n/a	n/a	0	0	0
4387309	REC_WORD	wordpools/wasnorm_wordpool_576.txt	LTP362	ltpFR2	13	22	FLEET	578	n/a	n/a	0	0	0
4387798	REC_WORD	wordpools/wasnorm_wordpool_576.txt	LTP362	ltpFR2	13	22	ROBOT	1200	n/a	n/a	0	0	0
4388346	REC_WORD	wordpools/wasnorm_wordpool_576.txt	LTP362	ltpFR2	13	22	TOURIST	1488	n/a	n/a	0	0	0
4388819	REC_WORD_VV	wordpools/wasnorm_wordpool_576.txt	LTP362	ltpFR2	13	22	<>	-1	n/a	n/a	0	0	0
4392620	REC_WORD	wordpools/wasnorm_wordpool_576.txt	LTP362	ltpFR2	13	22	WAITRESS	1581	n/a	n/a	0	0	0
4475377	DISTRACTOR	n/a	LTP362	ltpFR2	13	23	n/a	n/a	n/a	n/a	0	0	0
4475377	START	n/a	LTP362	ltpFR2	13	n/a	n/a	n/a	33	n/a	n/a	n/a	n/a
4475394	PROB	n/a	LTP362	ltpFR2	13	n/a	n/a	n/a	33	15	5	1	9
4477126	PROB	n/a	LTP362	ltpFR2	13	n/a	n/a	n/a	33	13	7	5	1
4480507	PROB	n/a	LTP362	ltpFR2	13	n/a	n/a	n/a	33	9	3	1	5
4481924	PROB	n/a	LTP362	ltpFR2	13	n/a	n/a	n/a	33	16	4	7	5
4484522	PROB	n/a	LTP362	ltpFR2	13	n/a	n/a	n/a	33	19	6	9	4
4485788	PROB	n/a	LTP362	ltpFR2	13	n/a	n/a	n/a	33	21	5	7	9
4488853	PROB	n/a	LTP362	ltpFR2	13	n/a	n/a	n/a	33	18	6	5	7
4490953	PROB	n/a	LTP362	ltpFR2	13	n/a	n/a	n/a	33	17	6	9	2
4493634	PROB	n/a	LTP362	ltpFR2	13	n/a	n/a	n/a	33	22	9	9	4
4495517	PROB	n/a	LTP362	ltpFR2	13	n/a	n/a	n/a	33	12	6	4	2
4496917	PROB	n/a	LTP362	ltpFR2	13	n/a	n/a	n/a	33	13	3	1	9
4498082	STOP	n/a	LTP362	ltpFR2	13	n/a	n/a	n/a	33	n/a	n/a	n/a	n/a
4500498	WORD	wordpools/wasnorm_wordpool_576.txt	LTP362	ltpFR2	13	23	GUARD	667	n/a	n/a	0	0	0
4503248	WORD	wordpools/wasnorm_wordpool_576.txt	LTP362	ltpFR2	13	23	PASTA	1021	n/a	n/a	0	0	0
4506046	WORD	wordpools/wasnorm_wordpool_576.txt	LTP362	ltpFR2	13	23	YOLK	1633	n/a	n/a	0	0	0
4508744	WORD	wordpools/wasnorm_wordpool_576.txt	LTP362	ltpFR2	13	23	ROOSTER	1209	n/a	n/a	0	0	0
4511493	WORD	wordpools/wasnorm_wordpool_576.txt	LTP362	ltpFR2	13	23	SHERIFF	1284	n/a	n/a	0	0	0
4514093	WORD	wordpools/wasnorm_wordpool_576.txt	LTP362	ltpFR2	13	23	CUSTARD	429	n/a	n/a	0	0	0
4516791	WORD	wordpools/wasnorm_wordpool_576.txt	LTP362	ltpFR2	13	23	PEBBLE	1035	n/a	n/a	0	0	0
4519457	WORD	wordpools/wasnorm_wordpool_576.txt	LTP362	ltpFR2	13	23	SCALLOP	1242	n/a	n/a	0	0	0
4521939	WORD	wordpools/wasnorm_wordpool_576.txt	LTP362	ltpFR2	13	23	FOOT	590	n/a	n/a	0	0	0
4524687	WORD	wordpools/wasnorm_wordpool_576.txt	LTP362	ltpFR2	13	23	HAND	683	n/a	n/a	0	0	0
4527237	WORD	wordpools/wasnorm_wordpool_576.txt	LTP362	ltpFR2	13	23	POLICE	1098	n/a	n/a	0	0	0
4529986	WORD	wordpools/wasnorm_wordpool_576.txt	LTP362	ltpFR2	13	23	STAMP	1370	n/a	n/a	0	0	0
4532483	WORD	wordpools/wasnorm_wordpool_576.txt	LTP362	ltpFR2	13	23	MAILMAN	858	n/a	n/a	0	0	0
4534933	WORD	wordpools/wasnorm_wordpool_576.txt	LTP362	ltpFR2	13	23	PUDDLE	1140	n/a	n/a	0	0	0
4537748	WORD	wordpools/wasnorm_wordpool_576.txt	LTP362	ltpFR2	13	23	HOOD	714	n/a	n/a	0	0	0
4540181	WORD	wordpools/wasnorm_wordpool_576.txt	LTP362	ltpFR2	13	23	SKILLET	1317	n/a	n/a	0	0	0
4542646	WORD	wordpools/wasnorm_wordpool_576.txt	LTP362	ltpFR2	13	23	PADDING	999	n/a	n/a	0	0	0
4545112	WORD	wordpools/wasnorm_wordpool_576.txt	LTP362	ltpFR2	13	23	BADGE	68	n/a	n/a	0	0	0
4547793	WORD	wordpools/wasnorm_wordpool_576.txt	LTP362	ltpFR2	13	23	DASHBOARD	441	n/a	n/a	0	0	0
4550326	WORD	wordpools/wasnorm_wordpool_576.txt	LTP362	ltpFR2	13	23	TUTU	1524	n/a	n/a	0	0	0
4552858	WORD	wordpools/wasnorm_wordpool_576.txt	LTP362	ltpFR2	13	23	TAXI	1438	n/a	n/a	0	0	0
4555640	WORD	wordpools/wasnorm_wordpool_576.txt	LTP362	ltpFR2	13	23	CHEMIST	292	n/a	n/a	0	0	0
4558240	WORD	wordpools/wasnorm_wordpool_576.txt	LTP362	ltpFR2	13	23	PIGEON	1065	n/a	n/a	0	0	0
4560938	WORD	wordpools/wasnorm_wordpool_576.txt	LTP362	ltpFR2	13	23	BUG	187	n/a	n/a	0	0	0
4562553	START	n/a	LTP362	ltpFR2	13	n/a	n/a	n/a	34	n/a	n/a	n/a	n/a
4563542	DISTRACTOR	n/a	LTP362	ltpFR2	13	23	n/a	n/a	n/a	n/a	0	0	0
4563553	PROB	n/a	LTP362	ltpFR2	13	n/a	n/a	n/a	34	16	6	2	8
4566169	PROB	n/a	LTP362	ltpFR2	13	n/a	n/a	n/a	34	16	9	4	3
4567834	PROB	n/a	LTP362	ltpFR2	13	n/a	n/a	n/a	34	16	7	7	2
4569201	PROB	n/a	LTP362	ltpFR2	13	n/a	n/a	n/a	34	9	3	2	4
4571732	PROB	n/a	LTP362	ltpFR2	13	n/a	n/a	n/a	34	7	1	2	4
4573033	PROB	n/a	LTP362	ltpFR2	13	n/a	n/a	n/a	34	11	1	5	5
4574182	PROB	n/a	LTP362	ltpFR2	13	n/a	n/a	n/a	34	14	5	7	2
4575981	PROB	n/a	LTP362	ltpFR2	13	n/a	n/a	n/a	34	18	7	3	8
4577298	PROB	n/a	LTP362	ltpFR2	13	n/a	n/a	n/a	34	22	9	7	6
4579063	PROB	n/a	LTP362	ltpFR2	13	n/a	n/a	n/a	34	16	3	8	5
4580695	PROB	n/a	LTP362	ltpFR2	13	n/a	n/a	n/a	34	22	8	7	7
4582412	PROB	n/a	LTP362	ltpFR2	13	n/a	n/a	n/a	34	9	6	2	1
4583660	PROB	n/a	LTP362	ltpFR2	13	n/a	n/a	n/a	34	12	1	4	7
4585444	STOP	n/a	LTP362	ltpFR2	13	n/a	n/a	n/a	34	n/a	n/a	n/a	n/a
4588343	REC_START	n/a	LTP362	ltpFR2	13	23	n/a	n/a	n/a	n/a	0	0	0
4589860	REC_WORD	wordpools/wasnorm_wordpool_576.txt	LTP362	ltpFR2	13	23	POLICE	1098	n/a	n/a	0	0	0
4590311	REC_WORD	wordpools/wasnorm_wordpool_576.txt	LTP362	ltpFR2	13	23	STAMP	1370	n/a	n/a	0	0	0
4591211	REC_WORD	wordpools/wasnorm_wordpool_576.txt	LTP362	ltpFR2	13	23	BUG	187	n/a	n/a	0	0	0
4613551	REC_WORD	wordpools/wasnorm_wordpool_576.txt	LTP362	ltpFR2	13	23	TUTU	1524	n/a	n/a	0	0	0
4678784	DISTRACTOR	n/a	LTP362	ltpFR2	13	24	n/a	n/a	n/a	n/a	0	0	0
4678784	START	n/a	LTP362	ltpFR2	13	n/a	n/a	n/a	35	n/a	n/a	n/a	n/a
4678801	PROB	n/a	LTP362	ltpFR2	13	n/a	n/a	n/a	35	24	8	9	7
4681284	PROB	n/a	LTP362	ltpFR2	13	n/a	n/a	n/a	35	18	3	8	7
4683916	PROB	n/a	LTP362	ltpFR2	13	n/a	n/a	n/a	35	18	7	3	8
4685648	PROB	n/a	LTP362	ltpFR2	13	n/a	n/a	n/a	35	17	9	4	4
4687365	PROB	n/a	LTP362	ltpFR2	13	n/a	n/a	n/a	35	8	2	5	1
4688730	PROB	n/a	LTP362	ltpFR2	13	n/a	n/a	n/a	35	11	8	2	1
4691396	PROB	n/a	LTP362	ltpFR2	13	n/a	n/a	n/a	35	13	5	4	4
4694128	PROB	n/a	LTP362	ltpFR2	13	n/a	n/a	n/a	35	4	1	1	2
4702784	STOP	n/a	LTP362	ltpFR2	13	n/a	n/a	n/a	35	n/a	n/a	n/a	n/a
4703723	WORD	wordpools/wasnorm_wordpool_576.txt	LTP362	ltpFR2	13	24	CREATURE	403	n/a	n/a	0	0	0
4706521	WORD	wordpools/wasnorm_wordpool_576.txt	LTP362	ltpFR2	13	24	GARLIC	624	n/a	n/a	0	0	0
4708955	WORD	wordpools/wasnorm_wordpool_576.txt	LTP362	ltpFR2	13	24	RIFLE	1192	n/a	n/a	0	0	0
4711603	WORD	wordpools/wasnorm_wordpool_576.txt	LTP362	ltpFR2	13	24	BULLET	194	n/a	n/a	0	0	0
4714336	WORD	wordpools/wasnorm_wordpool_576.txt	LTP362	ltpFR2	13	24	PISTOL	1075	n/a	n/a	0	0	0
4717068	WORD	wordpools/wasnorm_wordpool_576.txt	LTP362	ltpFR2	13	24	BLOCKADE	137	n/a	n/a	0	0	0
4719832	WORD	wordpools/wasnorm_wordpool_576.txt	LTP362	ltpFR2	13	24	LEADER	807	n/a	n/a	0	0	0
4722514	WORD	wordpools/wasnorm_wordpool_576.txt	LTP362	ltpFR2	13	24	VICTIM	1562	n/a	n/a	0	0	0
4725297	WORD	wordpools/wasnorm_wordpool_576.txt	LTP362	ltpFR2	13	24	MARS	873	n/a	n/a	0	0	0
4727779	WORD	wordpools/wasnorm_wordpool_576.txt	LTP362	ltpFR2	13	24	RAZOR	1171	n/a	n/a	0	0	0
4730312	WORD	wordpools/wasnorm_wordpool_576.txt	LTP362	ltpFR2	13	24	SWIMMER	1420	n/a	n/a	0	0	0
4733010	WORD	wordpools/wasnorm_wordpool_576.txt	LTP362	ltpFR2	13	24	RADISH	1158	n/a	n/a	0	0	0
4735692	WORD	wordpools/wasnorm_wordpool_576.txt	LTP362	ltpFR2	13	24	SCULPTURE	1258	n/a	n/a	0	0	0
4738474	WORD	wordpools/wasnorm_wordpool_576.txt	LTP362	ltpFR2	13	24	MONSTER	912	n/a	n/a	0	0	0
