mstime	trial_type	stim_file	subject	experiment	session	trial	item_name	item_num	list	answer	test_x	test_y	test_z
0	SESS_START	n/a	LTP385	ltpFR2	14	n/a	n/a	n/a	n/a	n/a	0	0	0
13832	START	n/a	LTP385	ltpFR2	14	n/a	n/a	n/a	-1	n/a	n/a	n/a	n/a
13854	PROB	n/a	LTP385	ltpFR2	14	n/a	n/a	n/a	-1	13	7	1	5
16970	PROB	n/a	LTP385	ltpFR2	14	n/a	n/a	n/a	-1	13	6	5	2
19503	PROB	n/a	LTP385	ltpFR2	14	n/a	n/a	n/a	-1	19	9	7	3
21190	PROB	n/a	LTP385	ltpFR2	14	n/a	n/a	n/a	-1	12	6	3	3
25831	STOP	n/a	LTP385	ltpFR2	14	n/a	n/a	n/a	-1	n/a	n/a	n/a	n/a
119372	WORD	wordpools/wasnorm_wordpool_576.txt	LTP385	ltpFR2	14	1	LILY	821	n/a	n/a	0	0	0
121794	WORD	wordpools/wasnorm_wordpool_576.txt	LTP385	ltpFR2	14	1	FLOWER	584	n/a	n/a	0	0	0
124595	WORD	wordpools/wasnorm_wordpool_576.txt	LTP385	ltpFR2	14	1	RIFLE	1192	n/a	n/a	0	0	0
127125	WORD	wordpools/wasnorm_wordpool_576.txt	LTP385	ltpFR2	14	1	PIMPLE	1071	n/a	n/a	0	0	0
129883	WORD	wordpools/wasnorm_wordpool_576.txt	LTP385	ltpFR2	14	1	CANYON	235	n/a	n/a	0	0	0
132508	WORD	wordpools/wasnorm_wordpool_576.txt	LTP385	ltpFR2	14	1	REBEL	1172	n/a	n/a	0	0	0
135080	WORD	wordpools/wasnorm_wordpool_576.txt	LTP385	ltpFR2	14	1	MAPLE	866	n/a	n/a	0	0	0
137704	WORD	wordpools/wasnorm_wordpool_576.txt	LTP385	ltpFR2	14	1	BOARD	143	n/a	n/a	0	0	0
140294	WORD	wordpools/wasnorm_wordpool_576.txt	LTP385	ltpFR2	14	1	PIANO	1057	n/a	n/a	0	0	0
142985	WORD	wordpools/wasnorm_wordpool_576.txt	LTP385	ltpFR2	14	1	RECORD	1176	n/a	n/a	0	0	0
145701	WORD	wordpools/wasnorm_wordpool_576.txt	LTP385	ltpFR2	14	1	IDOL	733	n/a	n/a	0	0	0
148140	WORD	wordpools/wasnorm_wordpool_576.txt	LTP385	ltpFR2	14	1	MATCH	878	n/a	n/a	0	0	0
150573	WORD	wordpools/wasnorm_wordpool_576.txt	LTP385	ltpFR2	14	1	WARDROBE	1587	n/a	n/a	0	0	0
153154	WORD	wordpools/wasnorm_wordpool_576.txt	LTP385	ltpFR2	14	1	NOVEL	960	n/a	n/a	0	0	0
155769	WORD	wordpools/wasnorm_wordpool_576.txt	LTP385	ltpFR2	14	1	MAMMAL	861	n/a	n/a	0	0	0
158544	WORD	wordpools/wasnorm_wordpool_576.txt	LTP385	ltpFR2	14	1	LAVA	804	n/a	n/a	0	0	0
161008	WORD	wordpools/wasnorm_wordpool_576.txt	LTP385	ltpFR2	14	1	SANDWICH	1232	n/a	n/a	0	0	0
163682	WORD	wordpools/wasnorm_wordpool_576.txt	LTP385	ltpFR2	14	1	BUCKET	184	n/a	n/a	0	0	0
166114	WORD	wordpools/wasnorm_wordpool_576.txt	LTP385	ltpFR2	14	1	DASHBOARD	441	n/a	n/a	0	0	0
168647	WORD	wordpools/wasnorm_wordpool_576.txt	LTP385	ltpFR2	14	1	STICKER	1382	n/a	n/a	0	0	0
171119	WORD	wordpools/wasnorm_wordpool_576.txt	LTP385	ltpFR2	14	1	FLAG	573	n/a	n/a	0	0	0
173885	WORD	wordpools/wasnorm_wordpool_576.txt	LTP385	ltpFR2	14	1	FRECKLE	602	n/a	n/a	0	0	0
176367	WORD	wordpools/wasnorm_wordpool_576.txt	LTP385	ltpFR2	14	1	SUMMIT	1405	n/a	n/a	0	0	0
178915	WORD	wordpools/wasnorm_wordpool_576.txt	LTP385	ltpFR2	14	1	SHELF	1280	n/a	n/a	0	0	0
180521	START	n/a	LTP385	ltpFR2	14	n/a	n/a	n/a	1	n/a	n/a	n/a	n/a
181404	DISTRACTOR	n/a	LTP385	ltpFR2	14	1	n/a	n/a	n/a	n/a	0	0	0
181406	PROB	n/a	LTP385	ltpFR2	14	n/a	n/a	n/a	1	15	6	7	2
183903	PROB	n/a	LTP385	ltpFR2	14	n/a	n/a	n/a	1	16	9	5	2
185626	PROB	n/a	LTP385	ltpFR2	14	n/a	n/a	n/a	1	10	6	2	2
187104	PROB	n/a	LTP385	ltpFR2	14	n/a	n/a	n/a	1	15	6	4	5
188600	PROB	n/a	LTP385	ltpFR2	14	n/a	n/a	n/a	1	18	6	7	5
191508	PROB	n/a	LTP385	ltpFR2	14	n/a	n/a	n/a	1	13	1	6	6
193112	PROB	n/a	LTP385	ltpFR2	14	n/a	n/a	n/a	1	14	4	8	2
194642	PROB	n/a	LTP385	ltpFR2	14	n/a	n/a	n/a	1	21	9	7	5
197131	PROB	n/a	LTP385	ltpFR2	14	n/a	n/a	n/a	1	12	2	6	3
200682	PROB	n/a	LTP385	ltpFR2	14	n/a	n/a	n/a	1	17	5	6	6
203756	STOP	n/a	LTP385	ltpFR2	14	n/a	n/a	n/a	1	n/a	n/a	n/a	n/a
206366	REC_START	n/a	LTP385	ltpFR2	14	1	n/a	n/a	n/a	n/a	0	0	0
208072	REC_WORD	wordpools/wasnorm_wordpool_576.txt	LTP385	ltpFR2	14	1	LILY	821	n/a	n/a	0	0	0
208663	REC_WORD	wordpools/wasnorm_wordpool_576.txt	LTP385	ltpFR2	14	1	FLOWER	584	n/a	n/a	0	0	0
210010	REC_WORD	wordpools/wasnorm_wordpool_576.txt	LTP385	ltpFR2	14	1	CRAYON	401	n/a	n/a	0	0	0
211974	REC_WORD	wordpools/wasnorm_wordpool_576.txt	LTP385	ltpFR2	14	1	DASHBOARD	441	n/a	n/a	0	0	0
212917	REC_WORD	wordpools/wasnorm_wordpool_576.txt	LTP385	ltpFR2	14	1	REBEL	1172	n/a	n/a	0	0	0
214405	REC_WORD	wordpools/wasnorm_wordpool_576.txt	LTP385	ltpFR2	14	1	CANYON	235	n/a	n/a	0	0	0
215919	REC_WORD	wordpools/wasnorm_wordpool_576.txt	LTP385	ltpFR2	14	1	LAKE	796	n/a	n/a	0	0	0
216676	REC_WORD	wordpools/wasnorm_wordpool_576.txt	LTP385	ltpFR2	14	1	FLAG	573	n/a	n/a	0	0	0
218823	REC_WORD	wordpools/wasnorm_wordpool_576.txt	LTP385	ltpFR2	14	1	SUMMIT	1405	n/a	n/a	0	0	0
230219	REC_WORD	wordpools/wasnorm_wordpool_576.txt	LTP385	ltpFR2	14	1	PIMPLE	1071	n/a	n/a	0	0	0
230995	REC_WORD	wordpools/wasnorm_wordpool_576.txt	LTP385	ltpFR2	14	1	FRECKLE	602	n/a	n/a	0	0	0
237508	REC_WORD	wordpools/wasnorm_wordpool_576.txt	LTP385	ltpFR2	14	1	FLOWER	584	n/a	n/a	0	0	0
296791	DISTRACTOR	n/a	LTP385	ltpFR2	14	2	n/a	n/a	n/a	n/a	0	0	0
296791	START	n/a	LTP385	ltpFR2	14	n/a	n/a	n/a	2	n/a	n/a	n/a	n/a
296808	PROB	n/a	LTP385	ltpFR2	14	n/a	n/a	n/a	2	6	3	1	2
298913	PROB	n/a	LTP385	ltpFR2	14	n/a	n/a	n/a	2	6	1	2	3
300284	PROB	n/a	LTP385	ltpFR2	14	n/a	n/a	n/a	2	21	7	9	5
304462	PROB	n/a	LTP385	ltpFR2	14	n/a	n/a	n/a	2	11	1	9	1
306701	PROB	n/a	LTP385	ltpFR2	14	n/a	n/a	n/a	2	18	1	9	8
310720	PROB	n/a	LTP385	ltpFR2	14	n/a	n/a	n/a	2	14	5	6	3
314296	PROB	n/a	LTP385	ltpFR2	14	n/a	n/a	n/a	2	18	7	9	2
320791	STOP	n/a	LTP385	ltpFR2	14	n/a	n/a	n/a	2	n/a	n/a	n/a	n/a
321867	WORD	wordpools/wasnorm_wordpool_576.txt	LTP385	ltpFR2	14	2	SUSPECT	1415	n/a	n/a	0	0	0
324358	WORD	wordpools/wasnorm_wordpool_576.txt	LTP385	ltpFR2	14	2	SKIRT	1319	n/a	n/a	0	0	0
327089	WORD	wordpools/wasnorm_wordpool_576.txt	LTP385	ltpFR2	14	2	CONVICT	371	n/a	n/a	0	0	0
329563	WORD	wordpools/wasnorm_wordpool_576.txt	LTP385	ltpFR2	14	2	JEANS	752	n/a	n/a	0	0	0
332345	WORD	wordpools/wasnorm_wordpool_576.txt	LTP385	ltpFR2	14	2	PUDDING	1139	n/a	n/a	0	0	0
334793	WORD	wordpools/wasnorm_wordpool_576.txt	LTP385	ltpFR2	14	2	SCOTCH	1251	n/a	n/a	0	0	0
337435	WORD	wordpools/wasnorm_wordpool_576.txt	LTP385	ltpFR2	14	2	SEAGULL	1261	n/a	n/a	0	0	0
339848	WORD	wordpools/wasnorm_wordpool_576.txt	LTP385	ltpFR2	14	2	PASTA	1021	n/a	n/a	0	0	0
342288	WORD	wordpools/wasnorm_wordpool_576.txt	LTP385	ltpFR2	14	2	DRIVER	499	n/a	n/a	0	0	0
344695	WORD	wordpools/wasnorm_wordpool_576.txt	LTP385	ltpFR2	14	2	CHAUFFEUR	283	n/a	n/a	0	0	0
347294	WORD	wordpools/wasnorm_wordpool_576.txt	LTP385	ltpFR2	14	2	GIRL	637	n/a	n/a	0	0	0
349733	WORD	wordpools/wasnorm_wordpool_576.txt	LTP385	ltpFR2	14	2	OUTLAW	989	n/a	n/a	0	0	0
352492	WORD	wordpools/wasnorm_wordpool_576.txt	LTP385	ltpFR2	14	2	OUTDOORS	987	n/a	n/a	0	0	0
355173	WORD	wordpools/wasnorm_wordpool_576.txt	LTP385	ltpFR2	14	2	WHISTLE	1606	n/a	n/a	0	0	0
357830	WORD	wordpools/wasnorm_wordpool_576.txt	LTP385	ltpFR2	14	2	THIEF	1456	n/a	n/a	0	0	0
360329	WORD	wordpools/wasnorm_wordpool_576.txt	LTP385	ltpFR2	14	2	HEDGE	699	n/a	n/a	0	0	0
363019	WORD	wordpools/wasnorm_wordpool_576.txt	LTP385	ltpFR2	14	2	TART	1436	n/a	n/a	0	0	0
365460	WORD	wordpools/wasnorm_wordpool_576.txt	LTP385	ltpFR2	14	2	CURTAIN	427	n/a	n/a	0	0	0
368099	WORD	wordpools/wasnorm_wordpool_576.txt	LTP385	ltpFR2	14	2	CAPTIVE	240	n/a	n/a	0	0	0
370757	WORD	wordpools/wasnorm_wordpool_576.txt	LTP385	ltpFR2	14	2	FOOT	590	n/a	n/a	0	0	0
373407	WORD	wordpools/wasnorm_wordpool_576.txt	LTP385	ltpFR2	14	2	ROCKET	1202	n/a	n/a	0	0	0
375904	WORD	wordpools/wasnorm_wordpool_576.txt	LTP385	ltpFR2	14	2	CRATER	400	n/a	n/a	0	0	0
378554	WORD	wordpools/wasnorm_wordpool_576.txt	LTP385	ltpFR2	14	2	CABIN	211	n/a	n/a	0	0	0
381151	WORD	wordpools/wasnorm_wordpool_576.txt	LTP385	ltpFR2	14	2	LODGE	839	n/a	n/a	0	0	0
382756	START	n/a	LTP385	ltpFR2	14	n/a	n/a	n/a	3	n/a	n/a	n/a	n/a
383709	DISTRACTOR	n/a	LTP385	ltpFR2	14	2	n/a	n/a	n/a	n/a	0	0	0
383717	PROB	n/a	LTP385	ltpFR2	14	n/a	n/a	n/a	3	13	4	4	5
386375	PROB	n/a	LTP385	ltpFR2	14	n/a	n/a	n/a	3	13	5	3	5
387987	PROB	n/a	LTP385	ltpFR2	14	n/a	n/a	n/a	3	14	6	6	2
389708	PROB	n/a	LTP385	ltpFR2	14	n/a	n/a	n/a	3	18	9	6	3
391897	PROB	n/a	LTP385	ltpFR2	14	n/a	n/a	n/a	3	18	5	4	9
395649	PROB	n/a	LTP385	ltpFR2	14	n/a	n/a	n/a	3	14	4	1	9
397505	PROB	n/a	LTP385	ltpFR2	14	n/a	n/a	n/a	3	12	8	2	2
399091	PROB	n/a	LTP385	ltpFR2	14	n/a	n/a	n/a	3	16	6	6	4
401147	PROB	n/a	LTP385	ltpFR2	14	n/a	n/a	n/a	3	17	5	5	7
403010	PROB	n/a	LTP385	ltpFR2	14	n/a	n/a	n/a	3	24	8	8	6
405412	STOP	n/a	LTP385	ltpFR2	14	n/a	n/a	n/a	3	n/a	n/a	n/a	n/a
408659	REC_START	n/a	LTP385	ltpFR2	14	2	n/a	n/a	n/a	n/a	0	0	0
410299	REC_WORD	wordpools/wasnorm_wordpool_576.txt	LTP385	ltpFR2	14	2	ROCKET	1202	n/a	n/a	0	0	0
411330	REC_WORD	wordpools/wasnorm_wordpool_576.txt	LTP385	ltpFR2	14	2	CRATER	400	n/a	n/a	0	0	0
413088	REC_WORD	wordpools/wasnorm_wordpool_576.txt	LTP385	ltpFR2	14	2	CABIN	211	n/a	n/a	0	0	0
415898	REC_WORD	wordpools/wasnorm_wordpool_576.txt	LTP385	ltpFR2	14	2	LODGE	839	n/a	n/a	0	0	0
419639	REC_WORD	wordpools/wasnorm_wordpool_576.txt	LTP385	ltpFR2	14	2	CONVICT	371	n/a	n/a	0	0	0
420616	REC_WORD	wordpools/wasnorm_wordpool_576.txt	LTP385	ltpFR2	14	2	CAPTIVE	240	n/a	n/a	0	0	0
422290	REC_WORD	wordpools/wasnorm_wordpool_576.txt	LTP385	ltpFR2	14	2	SUSPECT	1415	n/a	n/a	0	0	0
426067	REC_WORD	wordpools/wasnorm_wordpool_576.txt	LTP385	ltpFR2	14	2	JEANS	752	n/a	n/a	0	0	0
426933	REC_WORD	wordpools/wasnorm_wordpool_576.txt	LTP385	ltpFR2	14	2	SKIRT	1319	n/a	n/a	0	0	0
499094	WORD	wordpools/wasnorm_wordpool_576.txt	LTP385	ltpFR2	14	3	JELLY	755	n/a	n/a	0	0	0
501902	WORD	wordpools/wasnorm_wordpool_576.txt	LTP385	ltpFR2	14	3	BRIEFCASE	175	n/a	n/a	0	0	0
504376	WORD	wordpools/wasnorm_wordpool_576.txt	LTP385	ltpFR2	14	3	WOMAN	1620	n/a	n/a	0	0	0
507107	WORD	wordpools/wasnorm_wordpool_576.txt	LTP385	ltpFR2	14	3	PEACH	1031	n/a	n/a	0	0	0
509523	WORD	wordpools/wasnorm_wordpool_576.txt	LTP385	ltpFR2	14	3	COUCH	386	n/a	n/a	0	0	0
512054	WORD	wordpools/wasnorm_wordpool_576.txt	LTP385	ltpFR2	14	3	SPOON	1357	n/a	n/a	0	0	0
514486	WORD	wordpools/wasnorm_wordpool_576.txt	LTP385	ltpFR2	14	3	UMPIRE	1535	n/a	n/a	0	0	0
517017	WORD	wordpools/wasnorm_wordpool_576.txt	LTP385	ltpFR2	14	3	RACKET	1155	n/a	n/a	0	0	0
519450	WORD	wordpools/wasnorm_wordpool_576.txt	LTP385	ltpFR2	14	3	GRAVEL	659	n/a	n/a	0	0	0
521914	WORD	wordpools/wasnorm_wordpool_576.txt	LTP385	ltpFR2	14	3	DUST	508	n/a	n/a	0	0	0
524329	WORD	wordpools/wasnorm_wordpool_576.txt	LTP385	ltpFR2	14	3	SEAFOOD	1260	n/a	n/a	0	0	0
527086	WORD	wordpools/wasnorm_wordpool_576.txt	LTP385	ltpFR2	14	3	BARLEY	88	n/a	n/a	0	0	0
529644	WORD	wordpools/wasnorm_wordpool_576.txt	LTP385	ltpFR2	14	3	OFFICE	972	n/a	n/a	0	0	0
532443	WORD	wordpools/wasnorm_wordpool_576.txt	LTP385	ltpFR2	14	3	FOREHEAD	592	n/a	n/a	0	0	0
534857	WORD	wordpools/wasnorm_wordpool_576.txt	LTP385	ltpFR2	14	3	SILK	1307	n/a	n/a	0	0	0
537407	WORD	wordpools/wasnorm_wordpool_576.txt	LTP385	ltpFR2	14	3	VELVET	1555	n/a	n/a	0	0	0
540155	WORD	wordpools/wasnorm_wordpool_576.txt	LTP385	ltpFR2	14	3	MATTRESS	879	n/a	n/a	0	0	0
542637	WORD	wordpools/wasnorm_wordpool_576.txt	LTP385	ltpFR2	14	3	FEMALE	559	n/a	n/a	0	0	0
545235	WORD	wordpools/wasnorm_wordpool_576.txt	LTP385	ltpFR2	14	3	XEROX	1628	n/a	n/a	0	0	0
547658	WORD	wordpools/wasnorm_wordpool_576.txt	LTP385	ltpFR2	14	3	PATROL	1027	n/a	n/a	0	0	0
550315	WORD	wordpools/wasnorm_wordpool_576.txt	LTP385	ltpFR2	14	3	TABLE	1426	n/a	n/a	0	0	0
553023	WORD	wordpools/wasnorm_wordpool_576.txt	LTP385	ltpFR2	14	3	CELLAR	267	n/a	n/a	0	0	0
555647	WORD	wordpools/wasnorm_wordpool_576.txt	LTP385	ltpFR2	14	3	LOVER	846	n/a	n/a	0	0	0
558279	WORD	wordpools/wasnorm_wordpool_576.txt	LTP385	ltpFR2	14	3	SNAIL	1332	n/a	n/a	0	0	0
559883	START	n/a	LTP385	ltpFR2	14	n/a	n/a	n/a	4	n/a	n/a	n/a	n/a
561071	DISTRACTOR	n/a	LTP385	ltpFR2	14	3	n/a	n/a	n/a	n/a	0	0	0
561078	PROB	n/a	LTP385	ltpFR2	14	n/a	n/a	n/a	4	13	4	8	1
563125	PROB	n/a	LTP385	ltpFR2	14	n/a	n/a	n/a	4	21	5	8	8
565063	PROB	n/a	LTP385	ltpFR2	14	n/a	n/a	n/a	4	24	9	6	9
567345	PROB	n/a	LTP385	ltpFR2	14	n/a	n/a	n/a	4	18	6	7	5
570529	PROB	n/a	LTP385	ltpFR2	14	n/a	n/a	n/a	4	13	5	6	2
573144	PROB	n/a	LTP385	ltpFR2	14	n/a	n/a	n/a	4	14	7	5	2
575409	PROB	n/a	LTP385	ltpFR2	14	n/a	n/a	n/a	4	5	1	2	2
576637	PROB	n/a	LTP385	ltpFR2	14	n/a	n/a	n/a	4	16	4	8	4
579176	PROB	n/a	LTP385	ltpFR2	14	n/a	n/a	n/a	4	11	2	2	7
583882	STOP	n/a	LTP385	ltpFR2	14	n/a	n/a	n/a	4	n/a	n/a	n/a	n/a
585653	REC_START	n/a	LTP385	ltpFR2	14	3	n/a	n/a	n/a	n/a	0	0	0
591114	REC_WORD	wordpools/wasnorm_wordpool_576.txt	LTP385	ltpFR2	14	3	FEMALE	559	n/a	n/a	0	0	0
592489	REC_WORD	wordpools/wasnorm_wordpool_576.txt	LTP385	ltpFR2	14	3	PEACH	1031	n/a	n/a	0	0	0
594734	REC_WORD	wordpools/wasnorm_wordpool_576.txt	LTP385	ltpFR2	14	3	COUCH	386	n/a	n/a	0	0	0
596636	REC_WORD	wordpools/wasnorm_wordpool_576.txt	LTP385	ltpFR2	14	3	SPOON	1357	n/a	n/a	0	0	0
599054	REC_WORD	wordpools/wasnorm_wordpool_576.txt	LTP385	ltpFR2	14	3	ROCKET	1202	n/a	n/a	0	0	0
601687	REC_WORD	wordpools/wasnorm_wordpool_576.txt	LTP385	ltpFR2	14	3	GRAVEL	659	n/a	n/a	0	0	0
602609	REC_WORD	wordpools/wasnorm_wordpool_576.txt	LTP385	ltpFR2	14	3	DUST	508	n/a	n/a	0	0	0
606822	REC_WORD	wordpools/wasnorm_wordpool_576.txt	LTP385	ltpFR2	14	3	SEAFOOD	1260	n/a	n/a	0	0	0
607678	REC_WORD	wordpools/wasnorm_wordpool_576.txt	LTP385	ltpFR2	14	3	BARLEY	88	n/a	n/a	0	0	0
612681	REC_WORD	wordpools/wasnorm_wordpool_576.txt	LTP385	ltpFR2	14	3	PATROL	1027	n/a	n/a	0	0	0
613642	REC_WORD	wordpools/wasnorm_wordpool_576.txt	LTP385	ltpFR2	14	3	CELLULAR	-1	n/a	n/a	0	0	0
614642	REC_WORD_VV	wordpools/wasnorm_wordpool_576.txt	LTP385	ltpFR2	14	3	<>	-1	n/a	n/a	0	0	0
616621	REC_WORD	wordpools/wasnorm_wordpool_576.txt	LTP385	ltpFR2	14	3	LOVER	846	n/a	n/a	0	0	0
618747	REC_WORD	wordpools/wasnorm_wordpool_576.txt	LTP385	ltpFR2	14	3	MATTRESS	879	n/a	n/a	0	0	0
620919	REC_WORD	wordpools/wasnorm_wordpool_576.txt	LTP385	ltpFR2	14	3	VELVET	1555	n/a	n/a	0	0	0
621602	REC_WORD	wordpools/wasnorm_wordpool_576.txt	LTP385	ltpFR2	14	3	SILK	1307	n/a	n/a	0	0	0
624694	REC_WORD	wordpools/wasnorm_wordpool_576.txt	LTP385	ltpFR2	14	3	EX	-1	n/a	n/a	0	0	0
625079	REC_WORD	wordpools/wasnorm_wordpool_576.txt	LTP385	ltpFR2	14	3	ROCK	1201	n/a	n/a	0	0	0
676087	WORD	wordpools/wasnorm_wordpool_576.txt	LTP385	ltpFR2	14	4	WASHER	1592	n/a	n/a	0	0	0
678661	WORD	wordpools/wasnorm_wordpool_576.txt	LTP385	ltpFR2	14	4	PADDLE	1000	n/a	n/a	0	0	0
681251	WORD	wordpools/wasnorm_wordpool_576.txt	LTP385	ltpFR2	14	4	WRIST	1626	n/a	n/a	0	0	0
683850	WORD	wordpools/wasnorm_wordpool_576.txt	LTP385	ltpFR2	14	4	ARM	38	n/a	n/a	0	0	0
686617	WORD	wordpools/wasnorm_wordpool_576.txt	LTP385	ltpFR2	14	4	CASKET	255	n/a	n/a	0	0	0
689039	WORD	wordpools/wasnorm_wordpool_576.txt	LTP385	ltpFR2	14	4	CRAYON	401	n/a	n/a	0	0	0
691813	WORD	wordpools/wasnorm_wordpool_576.txt	LTP385	ltpFR2	14	4	HOUND	724	n/a	n/a	0	0	0
694312	WORD	wordpools/wasnorm_wordpool_576.txt	LTP385	ltpFR2	14	4	TOASTER	1472	n/a	n/a	0	0	0
696852	WORD	wordpools/wasnorm_wordpool_576.txt	LTP385	ltpFR2	14	4	SKILLET	1317	n/a	n/a	0	0	0
699376	WORD	wordpools/wasnorm_wordpool_576.txt	LTP385	ltpFR2	14	4	INMATE	738	n/a	n/a	0	0	0
701999	WORD	wordpools/wasnorm_wordpool_576.txt	LTP385	ltpFR2	14	4	FOOTBALL	591	n/a	n/a	0	0	0
704740	WORD	wordpools/wasnorm_wordpool_576.txt	LTP385	ltpFR2	14	4	OUTFIT	988	n/a	n/a	0	0	0
707406	WORD	wordpools/wasnorm_wordpool_576.txt	LTP385	ltpFR2	14	4	PLAID	1080	n/a	n/a	0	0	0
709887	WORD	wordpools/wasnorm_wordpool_576.txt	LTP385	ltpFR2	14	4	MARROW	872	n/a	n/a	0	0	0
712645	WORD	wordpools/wasnorm_wordpool_576.txt	LTP385	ltpFR2	14	4	POWDER	1117	n/a	n/a	0	0	0
715436	WORD	wordpools/wasnorm_wordpool_576.txt	LTP385	ltpFR2	14	4	BABY	64	n/a	n/a	0	0	0
717933	WORD	wordpools/wasnorm_wordpool_576.txt	LTP385	ltpFR2	14	4	SCARF	1246	n/a	n/a	0	0	0
720458	WORD	wordpools/wasnorm_wordpool_576.txt	LTP385	ltpFR2	14	4	SALT	1229	n/a	n/a	0	0	0
723072	WORD	wordpools/wasnorm_wordpool_576.txt	LTP385	ltpFR2	14	4	YOLK	1633	n/a	n/a	0	0	0
725872	WORD	wordpools/wasnorm_wordpool_576.txt	LTP385	ltpFR2	14	4	TURTLE	1522	n/a	n/a	0	0	0
728345	WORD	wordpools/wasnorm_wordpool_576.txt	LTP385	ltpFR2	14	4	PREACHER	1119	n/a	n/a	0	0	0
730760	WORD	wordpools/wasnorm_wordpool_576.txt	LTP385	ltpFR2	14	4	HELMET	702	n/a	n/a	0	0	0
733359	WORD	wordpools/wasnorm_wordpool_576.txt	LTP385	ltpFR2	14	4	BODY	145	n/a	n/a	0	0	0
736099	WORD	wordpools/wasnorm_wordpool_576.txt	LTP385	ltpFR2	14	4	BULLET	194	n/a	n/a	0	0	0
737704	START	n/a	LTP385	ltpFR2	14	n/a	n/a	n/a	5	n/a	n/a	n/a	n/a
738524	DISTRACTOR	n/a	LTP385	ltpFR2	14	4	n/a	n/a	n/a	n/a	0	0	0
738532	PROB	n/a	LTP385	ltpFR2	14	n/a	n/a	n/a	5	12	6	3	3
740870	PROB	n/a	LTP385	ltpFR2	14	n/a	n/a	n/a	5	9	4	4	1
742634	PROB	n/a	LTP385	ltpFR2	14	n/a	n/a	n/a	5	14	6	3	5
744565	PROB	n/a	LTP385	ltpFR2	14	n/a	n/a	n/a	5	9	4	3	2
747146	PROB	n/a	LTP385	ltpFR2	14	n/a	n/a	n/a	5	17	7	8	2
748925	PROB	n/a	LTP385	ltpFR2	14	n/a	n/a	n/a	5	13	5	7	1
750897	PROB	n/a	LTP385	ltpFR2	14	n/a	n/a	n/a	5	17	3	4	8
754975	PROB	n/a	LTP385	ltpFR2	14	n/a	n/a	n/a	5	23	6	9	8
761704	STOP	n/a	LTP385	ltpFR2	14	n/a	n/a	n/a	5	n/a	n/a	n/a	n/a
763433	REC_START	n/a	LTP385	ltpFR2	14	4	n/a	n/a	n/a	n/a	0	0	0
767537	REC_WORD	wordpools/wasnorm_wordpool_576.txt	LTP385	ltpFR2	14	4	PADDLE	1000	n/a	n/a	0	0	0
768286	REC_WORD	wordpools/wasnorm_wordpool_576.txt	LTP385	ltpFR2	14	4	CRAYON	401	n/a	n/a	0	0	0
770783	REC_WORD	wordpools/wasnorm_wordpool_576.txt	LTP385	ltpFR2	14	4	ARM	38	n/a	n/a	0	0	0
772512	REC_WORD	wordpools/wasnorm_wordpool_576.txt	LTP385	ltpFR2	14	4	HAND	683	n/a	n/a	0	0	0
774163	REC_WORD	wordpools/wasnorm_wordpool_576.txt	LTP385	ltpFR2	14	4	WASHER	1592	n/a	n/a	0	0	0
775892	REC_WORD	wordpools/wasnorm_wordpool_576.txt	LTP385	ltpFR2	14	4	GRAVE	658	n/a	n/a	0	0	0
812498	REC_WORD	wordpools/wasnorm_wordpool_576.txt	LTP385	ltpFR2	14	4	FOOTBALL	591	n/a	n/a	0	0	0
814020	REC_WORD	wordpools/wasnorm_wordpool_576.txt	LTP385	ltpFR2	14	4	INMATE	738	n/a	n/a	0	0	0
815505	REC_WORD	wordpools/wasnorm_wordpool_576.txt	LTP385	ltpFR2	14	4	SKILLET	1317	n/a	n/a	0	0	0
818982	REC_WORD	wordpools/wasnorm_wordpool_576.txt	LTP385	ltpFR2	14	4	YOLK	1633	n/a	n/a	0	0	0
819925	REC_WORD	wordpools/wasnorm_wordpool_576.txt	LTP385	ltpFR2	14	4	MARROW	872	n/a	n/a	0	0	0
825909	REC_WORD	wordpools/wasnorm_wordpool_576.txt	LTP385	ltpFR2	14	4	BLENDER	136	n/a	n/a	0	0	0
905714	WORD	wordpools/wasnorm_wordpool_576.txt	LTP385	ltpFR2	14	5	WITNESS	1618	n/a	n/a	0	0	0
908356	WORD	wordpools/wasnorm_wordpool_576.txt	LTP385	ltpFR2	14	5	THRONE	1461	n/a	n/a	0	0	0
911020	WORD	wordpools/wasnorm_wordpool_576.txt	LTP385	ltpFR2	14	5	COMET	353	n/a	n/a	0	0	0
913686	WORD	wordpools/wasnorm_wordpool_576.txt	LTP385	ltpFR2	14	5	SCISSORS	1250	n/a	n/a	0	0	0
916361	WORD	wordpools/wasnorm_wordpool_576.txt	LTP385	ltpFR2	14	5	TORTOISE	1486	n/a	n/a	0	0	0
919075	WORD	wordpools/wasnorm_wordpool_576.txt	LTP385	ltpFR2	14	5	POCKET	1093	n/a	n/a	0	0	0
921833	WORD	wordpools/wasnorm_wordpool_576.txt	LTP385	ltpFR2	14	5	GREASE	660	n/a	n/a	0	0	0
924432	WORD	wordpools/wasnorm_wordpool_576.txt	LTP385	ltpFR2	14	5	MOTOR	922	n/a	n/a	0	0	0
927047	WORD	wordpools/wasnorm_wordpool_576.txt	LTP385	ltpFR2	14	5	EMPIRE	530	n/a	n/a	0	0	0
929687	WORD	wordpools/wasnorm_wordpool_576.txt	LTP385	ltpFR2	14	5	ASIA	46	n/a	n/a	0	0	0
932344	WORD	wordpools/wasnorm_wordpool_576.txt	LTP385	ltpFR2	14	5	VIRUS	1572	n/a	n/a	0	0	0
934843	WORD	wordpools/wasnorm_wordpool_576.txt	LTP385	ltpFR2	14	5	BISON	131	n/a	n/a	0	0	0
937442	WORD	wordpools/wasnorm_wordpool_576.txt	LTP385	ltpFR2	14	5	FLIPPER	580	n/a	n/a	0	0	0
939998	WORD	wordpools/wasnorm_wordpool_576.txt	LTP385	ltpFR2	14	5	TEMPLE	1448	n/a	n/a	0	0	0
942798	WORD	wordpools/wasnorm_wordpool_576.txt	LTP385	ltpFR2	14	5	COUNTRY	388	n/a	n/a	0	0	0
945304	WORD	wordpools/wasnorm_wordpool_576.txt	LTP385	ltpFR2	14	5	BANK	83	n/a	n/a	0	0	0
947995	WORD	wordpools/wasnorm_wordpool_576.txt	LTP385	ltpFR2	14	5	ORANGE	980	n/a	n/a	0	0	0
950669	WORD	wordpools/wasnorm_wordpool_576.txt	LTP385	ltpFR2	14	5	APPLE	33	n/a	n/a	0	0	0
953435	WORD	wordpools/wasnorm_wordpool_576.txt	LTP385	ltpFR2	14	5	PASSAGE	1019	n/a	n/a	0	0	0
955908	WORD	wordpools/wasnorm_wordpool_576.txt	LTP385	ltpFR2	14	5	WRENCH	1625	n/a	n/a	0	0	0
958441	WORD	wordpools/wasnorm_wordpool_576.txt	LTP385	ltpFR2	14	5	STAKE	1368	n/a	n/a	0	0	0
961189	WORD	wordpools/wasnorm_wordpool_576.txt	LTP385	ltpFR2	14	5	PRINCE	1124	n/a	n/a	0	0	0
963929	WORD	wordpools/wasnorm_wordpool_576.txt	LTP385	ltpFR2	14	5	SLUG	1329	n/a	n/a	0	0	0
966354	WORD	wordpools/wasnorm_wordpool_576.txt	LTP385	ltpFR2	14	5	SHOULDER	1294	n/a	n/a	0	0	0
967957	START	n/a	LTP385	ltpFR2	14	n/a	n/a	n/a	6	n/a	n/a	n/a	n/a
969051	DISTRACTOR	n/a	LTP385	ltpFR2	14	5	n/a	n/a	n/a	n/a	0	0	0
969060	PROB	n/a	LTP385	ltpFR2	14	n/a	n/a	n/a	6	14	5	8	1
971032	PROB	n/a	LTP385	ltpFR2	14	n/a	n/a	n/a	6	18	7	2	9
973781	PROB	n/a	LTP385	ltpFR2	14	n/a	n/a	n/a	6	19	7	3	9
976204	PROB	n/a	LTP385	ltpFR2	14	n/a	n/a	n/a	6	15	8	5	2
978251	PROB	n/a	LTP385	ltpFR2	14	n/a	n/a	n/a	6	15	3	7	5
979973	PROB	n/a	LTP385	ltpFR2	14	n/a	n/a	n/a	6	20	6	9	5
982112	PROB	n/a	LTP385	ltpFR2	14	n/a	n/a	n/a	6	9	6	1	2
983975	PROB	n/a	LTP385	ltpFR2	14	n/a	n/a	n/a	6	16	7	2	7
986131	PROB	n/a	LTP385	ltpFR2	14	n/a	n/a	n/a	6	23	9	5	8
991956	STOP	n/a	LTP385	ltpFR2	14	n/a	n/a	n/a	6	n/a	n/a	n/a	n/a
993802	REC_START	n/a	LTP385	ltpFR2	14	5	n/a	n/a	n/a	n/a	0	0	0
999793	REC_WORD	wordpools/wasnorm_wordpool_576.txt	LTP385	ltpFR2	14	5	EMPIRE	530	n/a	n/a	0	0	0
1000661	REC_WORD	wordpools/wasnorm_wordpool_576.txt	LTP385	ltpFR2	14	5	ASIA	46	n/a	n/a	0	0	0
1001697	REC_WORD	wordpools/wasnorm_wordpool_576.txt	LTP385	ltpFR2	14	5	GREASE	660	n/a	n/a	0	0	0
1002310	REC_WORD	wordpools/wasnorm_wordpool_576.txt	LTP385	ltpFR2	14	5	MOTOR	922	n/a	n/a	0	0	0
1003756	REC_WORD	wordpools/wasnorm_wordpool_576.txt	LTP385	ltpFR2	14	5	VIRUS	1572	n/a	n/a	0	0	0
1004658	REC_WORD	wordpools/wasnorm_wordpool_576.txt	LTP385	ltpFR2	14	5	CATTLE	261	n/a	n/a	0	0	0
1005280	REC_WORD	wordpools/wasnorm_wordpool_576.txt	LTP385	ltpFR2	14	5	FLIPPER	580	n/a	n/a	0	0	0
1008231	REC_WORD	wordpools/wasnorm_wordpool_576.txt	LTP385	ltpFR2	14	5	BISON	131	n/a	n/a	0	0	0
1012413	REC_WORD	wordpools/wasnorm_wordpool_576.txt	LTP385	ltpFR2	14	5	TEMPLE	1448	n/a	n/a	0	0	0
1013138	REC_WORD	wordpools/wasnorm_wordpool_576.txt	LTP385	ltpFR2	14	5	COUNTRY	388	n/a	n/a	0	0	0
1014542	REC_WORD	wordpools/wasnorm_wordpool_576.txt	LTP385	ltpFR2	14	5	PRINCE	1124	n/a	n/a	0	0	0
1015223	REC_WORD	wordpools/wasnorm_wordpool_576.txt	LTP385	ltpFR2	14	5	SHOULDER	1294	n/a	n/a	0	0	0
1017760	REC_WORD	wordpools/wasnorm_wordpool_576.txt	LTP385	ltpFR2	14	5	SLUG	1329	n/a	n/a	0	0	0
1019342	REC_WORD	wordpools/wasnorm_wordpool_576.txt	LTP385	ltpFR2	14	5	WRENCH	1625	n/a	n/a	0	0	0
1129158	WORD	wordpools/wasnorm_wordpool_576.txt	LTP385	ltpFR2	14	6	HANDBAG	684	n/a	n/a	0	0	0
1131840	WORD	wordpools/wasnorm_wordpool_576.txt	LTP385	ltpFR2	14	6	BUGGY	188	n/a	n/a	0	0	0
1134515	WORD	wordpools/wasnorm_wordpool_576.txt	LTP385	ltpFR2	14	6	EYELASH	546	n/a	n/a	0	0	0
1136937	WORD	wordpools/wasnorm_wordpool_576.txt	LTP385	ltpFR2	14	6	LIPSTICK	829	n/a	n/a	0	0	0
1139353	WORD	wordpools/wasnorm_wordpool_576.txt	LTP385	ltpFR2	14	6	JUDGE	761	n/a	n/a	0	0	0
1142034	WORD	wordpools/wasnorm_wordpool_576.txt	LTP385	ltpFR2	14	6	AGENT	10	n/a	n/a	0	0	0
1144791	WORD	wordpools/wasnorm_wordpool_576.txt	LTP385	ltpFR2	14	6	CHIPMUNK	304	n/a	n/a	0	0	0
1147483	WORD	wordpools/wasnorm_wordpool_576.txt	LTP385	ltpFR2	14	6	CEILING	265	n/a	n/a	0	0	0
1150290	WORD	wordpools/wasnorm_wordpool_576.txt	LTP385	ltpFR2	14	6	TREAT	1501	n/a	n/a	0	0	0
1152763	WORD	wordpools/wasnorm_wordpool_576.txt	LTP385	ltpFR2	14	6	KNAPSACK	783	n/a	n/a	0	0	0
1155388	WORD	wordpools/wasnorm_wordpool_576.txt	LTP385	ltpFR2	14	6	CARRIAGE	248	n/a	n/a	0	0	0
1157802	WORD	wordpools/wasnorm_wordpool_576.txt	LTP385	ltpFR2	14	6	ROBIN	1199	n/a	n/a	0	0	0
1160602	WORD	wordpools/wasnorm_wordpool_576.txt	LTP385	ltpFR2	14	6	WIFE	1609	n/a	n/a	0	0	0
1163216	WORD	wordpools/wasnorm_wordpool_576.txt	LTP385	ltpFR2	14	6	EXPERT	543	n/a	n/a	0	0	0
1165790	WORD	wordpools/wasnorm_wordpool_576.txt	LTP385	ltpFR2	14	6	SLIDE	1326	n/a	n/a	0	0	0
1168481	WORD	wordpools/wasnorm_wordpool_576.txt	LTP385	ltpFR2	14	6	PERCH	1048	n/a	n/a	0	0	0
1171146	WORD	wordpools/wasnorm_wordpool_576.txt	LTP385	ltpFR2	14	6	MOTEL	919	n/a	n/a	0	0	0
1173845	WORD	wordpools/wasnorm_wordpool_576.txt	LTP385	ltpFR2	14	6	FRAGRANCE	599	n/a	n/a	0	0	0
1176461	WORD	wordpools/wasnorm_wordpool_576.txt	LTP385	ltpFR2	14	6	BOUQUET	157	n/a	n/a	0	0	0
1179042	WORD	wordpools/wasnorm_wordpool_576.txt	LTP385	ltpFR2	14	6	DOUGHNUT	490	n/a	n/a	0	0	0
1181800	WORD	wordpools/wasnorm_wordpool_576.txt	LTP385	ltpFR2	14	6	DRAWING	494	n/a	n/a	0	0	0
1184533	WORD	wordpools/wasnorm_wordpool_576.txt	LTP385	ltpFR2	14	6	PORTRAIT	1111	n/a	n/a	0	0	0
1187248	WORD	wordpools/wasnorm_wordpool_576.txt	LTP385	ltpFR2	14	6	GHETTO	633	n/a	n/a	0	0	0
1189838	WORD	wordpools/wasnorm_wordpool_576.txt	LTP385	ltpFR2	14	6	QUARTER	1148	n/a	n/a	0	0	0
1191443	START	n/a	LTP385	ltpFR2	14	n/a	n/a	n/a	7	n/a	n/a	n/a	n/a
1192470	DISTRACTOR	n/a	LTP385	ltpFR2	14	6	n/a	n/a	n/a	n/a	0	0	0
1192479	PROB	n/a	LTP385	ltpFR2	14	n/a	n/a	n/a	7	9	1	7	1
1194393	PROB	n/a	LTP385	ltpFR2	14	n/a	n/a	n/a	7	15	6	7	2
1196322	PROB	n/a	LTP385	ltpFR2	14	n/a	n/a	n/a	7	16	9	5	2
1198219	PROB	n/a	LTP385	ltpFR2	14	n/a	n/a	n/a	7	24	6	9	9
1200376	PROB	n/a	LTP385	ltpFR2	14	n/a	n/a	n/a	7	21	9	3	9
1203232	PROB	n/a	LTP385	ltpFR2	14	n/a	n/a	n/a	7	14	9	2	3
1205146	PROB	n/a	LTP385	ltpFR2	14	n/a	n/a	n/a	7	15	9	4	2
1207669	PROB	n/a	LTP385	ltpFR2	14	n/a	n/a	n/a	7	13	3	2	8
1209492	PROB	n/a	LTP385	ltpFR2	14	n/a	n/a	n/a	7	15	4	4	7
1213309	PROB	n/a	LTP385	ltpFR2	14	n/a	n/a	n/a	7	8	3	2	3
1215293	STOP	n/a	LTP385	ltpFR2	14	n/a	n/a	n/a	7	n/a	n/a	n/a	n/a
1217304	REC_START	n/a	LTP385	ltpFR2	14	6	n/a	n/a	n/a	n/a	0	0	0
1220977	REC_WORD	wordpools/wasnorm_wordpool_576.txt	LTP385	ltpFR2	14	6	ROBIN	1199	n/a	n/a	0	0	0
1221986	REC_WORD	wordpools/wasnorm_wordpool_576.txt	LTP385	ltpFR2	14	6	WIFE	1609	n/a	n/a	0	0	0
1225682	REC_WORD	wordpools/wasnorm_wordpool_576.txt	LTP385	ltpFR2	14	6	MALL	860	n/a	n/a	0	0	0
1227296	REC_WORD	wordpools/wasnorm_wordpool_576.txt	LTP385	ltpFR2	14	6	EYELASH	546	n/a	n/a	0	0	0
1262202	REC_WORD	wordpools/wasnorm_wordpool_576.txt	LTP385	ltpFR2	14	6	DOUGHNUT	490	n/a	n/a	0	0	0
1307739	WORD	wordpools/wasnorm_wordpool_576.txt	LTP385	ltpFR2	14	7	PACKAGE	997	n/a	n/a	0	0	0
1310422	WORD	wordpools/wasnorm_wordpool_576.txt	LTP385	ltpFR2	14	7	CROWN	415	n/a	n/a	0	0	0
1313045	WORD	wordpools/wasnorm_wordpool_576.txt	LTP385	ltpFR2	14	7	STATUE	1374	n/a	n/a	0	0	0
1315735	WORD	wordpools/wasnorm_wordpool_576.txt	LTP385	ltpFR2	14	7	ACTRESS	6	n/a	n/a	0	0	0
1318394	WORD	wordpools/wasnorm_wordpool_576.txt	LTP385	ltpFR2	14	7	MILDEW	893	n/a	n/a	0	0	0
1320857	WORD	wordpools/wasnorm_wordpool_576.txt	LTP385	ltpFR2	14	7	ANKLE	24	n/a	n/a	0	0	0
1323407	WORD	wordpools/wasnorm_wordpool_576.txt	LTP385	ltpFR2	14	7	HAMPER	682	n/a	n/a	0	0	0
1325838	WORD	wordpools/wasnorm_wordpool_576.txt	LTP385	ltpFR2	14	7	CATCHER	258	n/a	n/a	0	0	0
1328613	WORD	wordpools/wasnorm_wordpool_576.txt	LTP385	ltpFR2	14	7	PECAN	1036	n/a	n/a	0	0	0
1331244	WORD	wordpools/wasnorm_wordpool_576.txt	LTP385	ltpFR2	14	7	GALLON	618	n/a	n/a	0	0	0
1333659	WORD	wordpools/wasnorm_wordpool_576.txt	LTP385	ltpFR2	14	7	PEPPER	1047	n/a	n/a	0	0	0
1336450	WORD	wordpools/wasnorm_wordpool_576.txt	LTP385	ltpFR2	14	7	GARLIC	624	n/a	n/a	0	0	0
1338973	WORD	wordpools/wasnorm_wordpool_576.txt	LTP385	ltpFR2	14	7	STOVE	1388	n/a	n/a	0	0	0
1341631	WORD	wordpools/wasnorm_wordpool_576.txt	LTP385	ltpFR2	14	7	APRON	35	n/a	n/a	0	0	0
1344053	WORD	wordpools/wasnorm_wordpool_576.txt	LTP385	ltpFR2	14	7	VALLEY	1545	n/a	n/a	0	0	0
1346702	WORD	wordpools/wasnorm_wordpool_576.txt	LTP385	ltpFR2	14	7	SUPPER	1411	n/a	n/a	0	0	0
1349477	WORD	wordpools/wasnorm_wordpool_576.txt	LTP385	ltpFR2	14	7	LASER	801	n/a	n/a	0	0	0
1352142	WORD	wordpools/wasnorm_wordpool_576.txt	LTP385	ltpFR2	14	7	LACE	792	n/a	n/a	0	0	0
1354574	WORD	wordpools/wasnorm_wordpool_576.txt	LTP385	ltpFR2	14	7	PADDING	999	n/a	n/a	0	0	0
1357055	WORD	wordpools/wasnorm_wordpool_576.txt	LTP385	ltpFR2	14	7	STAMP	1370	n/a	n/a	0	0	0
1359720	WORD	wordpools/wasnorm_wordpool_576.txt	LTP385	ltpFR2	14	7	TRUCK	1512	n/a	n/a	0	0	0
1362210	WORD	wordpools/wasnorm_wordpool_576.txt	LTP385	ltpFR2	14	7	SOFTBALL	1343	n/a	n/a	0	0	0
1364626	WORD	wordpools/wasnorm_wordpool_576.txt	LTP385	ltpFR2	14	7	SPIDER	1351	n/a	n/a	0	0	0
1367341	WORD	wordpools/wasnorm_wordpool_576.txt	LTP385	ltpFR2	14	7	WASP	1593	n/a	n/a	0	0	0
1368945	START	n/a	LTP385	ltpFR2	14	n/a	n/a	n/a	8	n/a	n/a	n/a	n/a
1369852	DISTRACTOR	n/a	LTP385	ltpFR2	14	7	n/a	n/a	n/a	n/a	0	0	0
1369856	PROB	n/a	LTP385	ltpFR2	14	n/a	n/a	n/a	8	18	4	6	8
1372338	PROB	n/a	LTP385	ltpFR2	14	n/a	n/a	n/a	8	16	4	4	8
1374293	PROB	n/a	LTP385	ltpFR2	14	n/a	n/a	n/a	8	17	4	4	9
1376683	PROB	n/a	LTP385	ltpFR2	14	n/a	n/a	n/a	8	15	2	8	5
1379014	PROB	n/a	LTP385	ltpFR2	14	n/a	n/a	n/a	8	18	4	6	8
1380802	PROB	n/a	LTP385	ltpFR2	14	n/a	n/a	n/a	8	20	7	5	8
1384295	PROB	n/a	LTP385	ltpFR2	14	n/a	n/a	n/a	8	18	7	4	7
1386602	PROB	n/a	LTP385	ltpFR2	14	n/a	n/a	n/a	8	6	3	2	1
1387988	PROB	n/a	LTP385	ltpFR2	14	n/a	n/a	n/a	8	16	6	6	4
1390052	PROB	n/a	LTP385	ltpFR2	14	n/a	n/a	n/a	8	14	5	5	4
1391963	STOP	n/a	LTP385	ltpFR2	14	n/a	n/a	n/a	8	n/a	n/a	n/a	n/a
1394816	REC_START	n/a	LTP385	ltpFR2	14	7	n/a	n/a	n/a	n/a	0	0	0
1399469	REC_WORD	wordpools/wasnorm_wordpool_576.txt	LTP385	ltpFR2	14	7	SOFTBALL	1343	n/a	n/a	0	0	0
1402303	REC_WORD	wordpools/wasnorm_wordpool_576.txt	LTP385	ltpFR2	14	7	ACTRESS	6	n/a	n/a	0	0	0
1404154	REC_WORD	wordpools/wasnorm_wordpool_576.txt	LTP385	ltpFR2	14	7	STATUE	1374	n/a	n/a	0	0	0
1411405	REC_WORD	wordpools/wasnorm_wordpool_576.txt	LTP385	ltpFR2	14	7	GALLON	618	n/a	n/a	0	0	0
1412224	REC_WORD	wordpools/wasnorm_wordpool_576.txt	LTP385	ltpFR2	14	7	CASHEW	253	n/a	n/a	0	0	0
1414733	REC_WORD	wordpools/wasnorm_wordpool_576.txt	LTP385	ltpFR2	14	7	GARLIC	624	n/a	n/a	0	0	0
1416482	REC_WORD	wordpools/wasnorm_wordpool_576.txt	LTP385	ltpFR2	14	7	PEPPER	1047	n/a	n/a	0	0	0
1418523	REC_WORD	wordpools/wasnorm_wordpool_576.txt	LTP385	ltpFR2	14	7	MILDEW	893	n/a	n/a	0	0	0
1420165	REC_WORD	wordpools/wasnorm_wordpool_576.txt	LTP385	ltpFR2	14	7	LACE	792	n/a	n/a	0	0	0
1422991	REC_WORD	wordpools/wasnorm_wordpool_576.txt	LTP385	ltpFR2	14	7	PACKAGE	997	n/a	n/a	0	0	0
1424506	REC_WORD	wordpools/wasnorm_wordpool_576.txt	LTP385	ltpFR2	14	7	STAMP	1370	n/a	n/a	0	0	0
1427084	REC_WORD	wordpools/wasnorm_wordpool_576.txt	LTP385	ltpFR2	14	7	BASEBALL	93	n/a	n/a	0	0	0
1441314	REC_WORD	wordpools/wasnorm_wordpool_576.txt	LTP385	ltpFR2	14	7	SOFTBALL	1343	n/a	n/a	0	0	0
1457745	REC_WORD	wordpools/wasnorm_wordpool_576.txt	LTP385	ltpFR2	14	7	AWARD	63	n/a	n/a	0	0	0
1485250	DISTRACTOR	n/a	LTP385	ltpFR2	14	8	n/a	n/a	n/a	n/a	0	0	0
1485250	START	n/a	LTP385	ltpFR2	14	n/a	n/a	n/a	9	n/a	n/a	n/a	n/a
1485267	PROB	n/a	LTP385	ltpFR2	14	n/a	n/a	n/a	9	15	9	4	2
1487616	PROB	n/a	LTP385	ltpFR2	14	n/a	n/a	n/a	9	12	4	1	7
1490390	PROB	n/a	LTP385	ltpFR2	14	n/a	n/a	n/a	9	11	3	1	7
1492160	PROB	n/a	LTP385	ltpFR2	14	n/a	n/a	n/a	9	21	4	8	9
1495845	PROB	n/a	LTP385	ltpFR2	14	n/a	n/a	n/a	9	26	8	9	9
1498370	PROB	n/a	LTP385	ltpFR2	14	n/a	n/a	n/a	9	15	4	6	5
1500892	PROB	n/a	LTP385	ltpFR2	14	n/a	n/a	n/a	9	15	8	6	1
1502848	PROB	n/a	LTP385	ltpFR2	14	n/a	n/a	n/a	9	16	5	7	4
1505221	PROB	n/a	LTP385	ltpFR2	14	n/a	n/a	n/a	9	10	1	4	5
1509250	STOP	n/a	LTP385	ltpFR2	14	n/a	n/a	n/a	9	n/a	n/a	n/a	n/a
1510142	WORD	wordpools/wasnorm_wordpool_576.txt	LTP385	ltpFR2	14	8	BLADE	134	n/a	n/a	0	0	0
1512566	WORD	wordpools/wasnorm_wordpool_576.txt	LTP385	ltpFR2	14	8	SWAMP	1416	n/a	n/a	0	0	0
1515206	WORD	wordpools/wasnorm_wordpool_576.txt	LTP385	ltpFR2	14	8	BANKER	84	n/a	n/a	0	0	0
1517838	WORD	wordpools/wasnorm_wordpool_576.txt	LTP385	ltpFR2	14	8	SIBLING	1301	n/a	n/a	0	0	0
1520396	WORD	wordpools/wasnorm_wordpool_576.txt	LTP385	ltpFR2	14	8	ATLAS	53	n/a	n/a	0	0	0
1523127	WORD	wordpools/wasnorm_wordpool_576.txt	LTP385	ltpFR2	14	8	POPCORN	1104	n/a	n/a	0	0	0
1525560	WORD	wordpools/wasnorm_wordpool_576.txt	LTP385	ltpFR2	14	8	PISTOL	1075	n/a	n/a	0	0	0
1528224	WORD	wordpools/wasnorm_wordpool_576.txt	LTP385	ltpFR2	14	8	SUBWAY	1400	n/a	n/a	0	0	0
1530915	WORD	wordpools/wasnorm_wordpool_576.txt	LTP385	ltpFR2	14	8	TYPIST	1532	n/a	n/a	0	0	0
1533556	WORD	wordpools/wasnorm_wordpool_576.txt	LTP385	ltpFR2	14	8	CASHIER	254	n/a	n/a	0	0	0
1536012	WORD	wordpools/wasnorm_wordpool_576.txt	LTP385	ltpFR2	14	8	LETTUCE	814	n/a	n/a	0	0	0
1538803	WORD	wordpools/wasnorm_wordpool_576.txt	LTP385	ltpFR2	14	8	TURNIP	1521	n/a	n/a	0	0	0
1541603	WORD	wordpools/wasnorm_wordpool_576.txt	LTP385	ltpFR2	14	8	STREAM	1392	n/a	n/a	0	0	0
1544100	WORD	wordpools/wasnorm_wordpool_576.txt	LTP385	ltpFR2	14	8	CRITIC	410	n/a	n/a	0	0	0
1546732	WORD	wordpools/wasnorm_wordpool_576.txt	LTP385	ltpFR2	14	8	LEADER	807	n/a	n/a	0	0	0
1549533	WORD	wordpools/wasnorm_wordpool_576.txt	LTP385	ltpFR2	14	8	LIGHTNING	820	n/a	n/a	0	0	0
1552055	WORD	wordpools/wasnorm_wordpool_576.txt	LTP385	ltpFR2	14	8	ZIPPER	1636	n/a	n/a	0	0	0
1554696	WORD	wordpools/wasnorm_wordpool_576.txt	LTP385	ltpFR2	14	8	DENIM	446	n/a	n/a	0	0	0
1557504	WORD	wordpools/wasnorm_wordpool_576.txt	LTP385	ltpFR2	14	8	TOMBSTONE	1478	n/a	n/a	0	0	0
1559951	WORD	wordpools/wasnorm_wordpool_576.txt	LTP385	ltpFR2	14	8	BUG	187	n/a	n/a	0	0	0
1562518	WORD	wordpools/wasnorm_wordpool_576.txt	LTP385	ltpFR2	14	8	CAFE	216	n/a	n/a	0	0	0
1564998	WORD	wordpools/wasnorm_wordpool_576.txt	LTP385	ltpFR2	14	8	COTTAGE	384	n/a	n/a	0	0	0
1567747	WORD	wordpools/wasnorm_wordpool_576.txt	LTP385	ltpFR2	14	8	ORCHID	982	n/a	n/a	0	0	0
1570481	WORD	wordpools/wasnorm_wordpool_576.txt	LTP385	ltpFR2	14	8	OINTMENT	974	n/a	n/a	0	0	0
1572084	START	n/a	LTP385	ltpFR2	14	n/a	n/a	n/a	10	n/a	n/a	n/a	n/a
1573010	DISTRACTOR	n/a	LTP385	ltpFR2	14	8	n/a	n/a	n/a	n/a	0	0	0
1573012	PROB	n/a	LTP385	ltpFR2	14	n/a	n/a	n/a	10	8	1	3	4
1578994	PROB	n/a	LTP385	ltpFR2	14	n/a	n/a	n/a	10	18	7	6	6
1582947	PROB	n/a	LTP385	ltpFR2	14	n/a	n/a	n/a	10	12	3	5	7
1585413	PROB	n/a	LTP385	ltpFR2	14	n/a	n/a	n/a	10	18	4	7	6
1588754	PROB	n/a	LTP385	ltpFR2	14	n/a	n/a	n/a	10	16	7	6	3
1590993	PROB	n/a	LTP385	ltpFR2	14	n/a	n/a	n/a	10	19	7	4	8
1595009	STOP	n/a	LTP385	ltpFR2	14	n/a	n/a	n/a	10	n/a	n/a	n/a	n/a
1597963	REC_START	n/a	LTP385	ltpFR2	14	8	n/a	n/a	n/a	n/a	0	0	0
1610423	REC_WORD	wordpools/wasnorm_wordpool_576.txt	LTP385	ltpFR2	14	8	RIFT	-1	n/a	n/a	0	0	0
1611471	REC_WORD	wordpools/wasnorm_wordpool_576.txt	LTP385	ltpFR2	14	8	BROTHER	179	n/a	n/a	0	0	0
1614570	REC_WORD	wordpools/wasnorm_wordpool_576.txt	LTP385	ltpFR2	14	8	SWAMP	1416	n/a	n/a	0	0	0
1629602	REC_WORD	wordpools/wasnorm_wordpool_576.txt	LTP385	ltpFR2	14	8	GAME	-1	n/a	n/a	0	0	0
1674486	REST_REWET	n/a	LTP385	ltpFR2	14	8	n/a	n/a	n/a	n/a	0	0	0
1877808	DISTRACTOR	n/a	LTP385	ltpFR2	14	9	n/a	n/a	n/a	n/a	0	0	0
1877808	START	n/a	LTP385	ltpFR2	14	n/a	n/a	n/a	11	n/a	n/a	n/a	n/a
1877824	PROB	n/a	LTP385	ltpFR2	14	n/a	n/a	n/a	11	16	2	8	6
1879863	PROB	n/a	LTP385	ltpFR2	14	n/a	n/a	n/a	11	16	2	7	7
1881743	PROB	n/a	LTP385	ltpFR2	14	n/a	n/a	n/a	11	21	6	9	6
1885588	PROB	n/a	LTP385	ltpFR2	14	n/a	n/a	n/a	11	6	3	2	2
1888887	PROB	n/a	LTP385	ltpFR2	14	n/a	n/a	n/a	11	21	8	5	9
1892781	PROB	n/a	LTP385	ltpFR2	14	n/a	n/a	n/a	11	16	6	6	4
1895565	PROB	n/a	LTP385	ltpFR2	14	n/a	n/a	n/a	11	24	8	6	9
1901808	STOP	n/a	LTP385	ltpFR2	14	n/a	n/a	n/a	11	n/a	n/a	n/a	n/a
1902666	WORD	wordpools/wasnorm_wordpool_576.txt	LTP385	ltpFR2	14	9	COMPASS	358	n/a	n/a	0	0	0
1905466	WORD	wordpools/wasnorm_wordpool_576.txt	LTP385	ltpFR2	14	9	BLUEPRINT	142	n/a	n/a	0	0	0
1907947	WORD	wordpools/wasnorm_wordpool_576.txt	LTP385	ltpFR2	14	9	ROBOT	1200	n/a	n/a	0	0	0
1910547	WORD	wordpools/wasnorm_wordpool_576.txt	LTP385	ltpFR2	14	9	CRICKET	408	n/a	n/a	0	0	0
1912986	WORD	wordpools/wasnorm_wordpool_576.txt	LTP385	ltpFR2	14	9	REPORT	1184	n/a	n/a	0	0	0
1915627	WORD	wordpools/wasnorm_wordpool_576.txt	LTP385	ltpFR2	14	9	TUTU	1524	n/a	n/a	0	0	0
1918292	WORD	wordpools/wasnorm_wordpool_576.txt	LTP385	ltpFR2	14	9	COCOON	339	n/a	n/a	0	0	0
1920848	WORD	wordpools/wasnorm_wordpool_576.txt	LTP385	ltpFR2	14	9	BURGLAR	200	n/a	n/a	0	0	0
1923624	WORD	wordpools/wasnorm_wordpool_576.txt	LTP385	ltpFR2	14	9	COLONEL	348	n/a	n/a	0	0	0
1926414	WORD	wordpools/wasnorm_wordpool_576.txt	LTP385	ltpFR2	14	9	FLEET	578	n/a	n/a	0	0	0
1929037	WORD	wordpools/wasnorm_wordpool_576.txt	LTP385	ltpFR2	14	9	HIKER	708	n/a	n/a	0	0	0
1931612	WORD	wordpools/wasnorm_wordpool_576.txt	LTP385	ltpFR2	14	9	NOMAD	955	n/a	n/a	0	0	0
1934285	WORD	wordpools/wasnorm_wordpool_576.txt	LTP385	ltpFR2	14	9	SPONGE	1355	n/a	n/a	0	0	0
1937000	WORD	wordpools/wasnorm_wordpool_576.txt	LTP385	ltpFR2	14	9	NOTEBOOK	959	n/a	n/a	0	0	0
1939666	WORD	wordpools/wasnorm_wordpool_576.txt	LTP385	ltpFR2	14	9	INFANT	737	n/a	n/a	0	0	0
1942474	WORD	wordpools/wasnorm_wordpool_576.txt	LTP385	ltpFR2	14	9	RATTLE	1170	n/a	n/a	0	0	0
1944922	WORD	wordpools/wasnorm_wordpool_576.txt	LTP385	ltpFR2	14	9	CREVICE	405	n/a	n/a	0	0	0
1947421	WORD	wordpools/wasnorm_wordpool_576.txt	LTP385	ltpFR2	14	9	BACKBONE	66	n/a	n/a	0	0	0
1950127	WORD	wordpools/wasnorm_wordpool_576.txt	LTP385	ltpFR2	14	9	SHELTER	1282	n/a	n/a	0	0	0
1952684	WORD	wordpools/wasnorm_wordpool_576.txt	LTP385	ltpFR2	14	9	MARKER	870	n/a	n/a	0	0	0
1955316	WORD	wordpools/wasnorm_wordpool_576.txt	LTP385	ltpFR2	14	9	TERMITE	1451	n/a	n/a	0	0	0
1958007	WORD	wordpools/wasnorm_wordpool_576.txt	LTP385	ltpFR2	14	9	COD	340	n/a	n/a	0	0	0
1960456	WORD	wordpools/wasnorm_wordpool_576.txt	LTP385	ltpFR2	14	9	VIKING	1565	n/a	n/a	0	0	0
1963137	WORD	wordpools/wasnorm_wordpool_576.txt	LTP385	ltpFR2	14	9	MESSAGE	888	n/a	n/a	0	0	0
1964742	START	n/a	LTP385	ltpFR2	14	n/a	n/a	n/a	12	n/a	n/a	n/a	n/a
1965674	DISTRACTOR	n/a	LTP385	ltpFR2	14	9	n/a	n/a	n/a	n/a	0	0	0
1965678	PROB	n/a	LTP385	ltpFR2	14	n/a	n/a	n/a	12	16	8	4	4
1968101	PROB	n/a	LTP385	ltpFR2	14	n/a	n/a	n/a	12	16	8	5	3
1970908	PROB	n/a	LTP385	ltpFR2	14	n/a	n/a	n/a	12	10	1	2	7
1972413	PROB	n/a	LTP385	ltpFR2	14	n/a	n/a	n/a	12	12	5	5	2
1974033	PROB	n/a	LTP385	ltpFR2	14	n/a	n/a	n/a	12	16	8	7	1
1976014	PROB	n/a	LTP385	ltpFR2	14	n/a	n/a	n/a	12	6	4	2	4
1979807	PROB	n/a	LTP385	ltpFR2	14	n/a	n/a	n/a	12	11	4	2	5
1982490	PROB	n/a	LTP385	ltpFR2	14	n/a	n/a	n/a	12	13	1	6	6
1984152	PROB	n/a	LTP385	ltpFR2	14	n/a	n/a	n/a	12	16	8	5	3
1986325	PROB	n/a	LTP385	ltpFR2	14	n/a	n/a	n/a	12	7	1	2	4
1988391	STOP	n/a	LTP385	ltpFR2	14	n/a	n/a	n/a	12	n/a	n/a	n/a	n/a
1990638	REC_START	n/a	LTP385	ltpFR2	14	9	n/a	n/a	n/a	n/a	0	0	0
1991713	REC_WORD	wordpools/wasnorm_wordpool_576.txt	LTP385	ltpFR2	14	9	VIKING	1565	n/a	n/a	0	0	0
1992809	REC_WORD	wordpools/wasnorm_wordpool_576.txt	LTP385	ltpFR2	14	9	MASSAGE	-1	n/a	n/a	0	0	0
1993796	REC_WORD	wordpools/wasnorm_wordpool_576.txt	LTP385	ltpFR2	14	9	MESSAGE	888	n/a	n/a	0	0	0
1995576	REC_WORD	wordpools/wasnorm_wordpool_576.txt	LTP385	ltpFR2	14	9	ROBOT	1200	n/a	n/a	0	0	0
1996965	REC_WORD	wordpools/wasnorm_wordpool_576.txt	LTP385	ltpFR2	14	9	COMPASS	358	n/a	n/a	0	0	0
2009420	REC_WORD	wordpools/wasnorm_wordpool_576.txt	LTP385	ltpFR2	14	9	NOMAD	955	n/a	n/a	0	0	0
2011444	REC_WORD	wordpools/wasnorm_wordpool_576.txt	LTP385	ltpFR2	14	9	VIKING	1565	n/a	n/a	0	0	0
2015751	REC_WORD	wordpools/wasnorm_wordpool_576.txt	LTP385	ltpFR2	14	9	TUTU	1524	n/a	n/a	0	0	0
2017877	REC_WORD	wordpools/wasnorm_wordpool_576.txt	LTP385	ltpFR2	14	9	COCOON	339	n/a	n/a	0	0	0
2024347	REC_WORD	wordpools/wasnorm_wordpool_576.txt	LTP385	ltpFR2	14	9	COLONEL	348	n/a	n/a	0	0	0
2081063	DISTRACTOR	n/a	LTP385	ltpFR2	14	10	n/a	n/a	n/a	n/a	0	0	0
2081064	START	n/a	LTP385	ltpFR2	14	n/a	n/a	n/a	13	n/a	n/a	n/a	n/a
2081080	PROB	n/a	LTP385	ltpFR2	14	n/a	n/a	n/a	13	16	3	9	4
2083638	PROB	n/a	LTP385	ltpFR2	14	n/a	n/a	n/a	13	14	6	4	4
2085476	PROB	n/a	LTP385	ltpFR2	14	n/a	n/a	n/a	13	10	1	1	8
2086837	PROB	n/a	LTP385	ltpFR2	14	n/a	n/a	n/a	13	17	4	7	6
2089336	PROB	n/a	LTP385	ltpFR2	14	n/a	n/a	n/a	13	17	1	7	9
2091492	PROB	n/a	LTP385	ltpFR2	14	n/a	n/a	n/a	13	23	7	9	5
2094090	PROB	n/a	LTP385	ltpFR2	14	n/a	n/a	n/a	13	11	1	9	1
2096079	PROB	n/a	LTP385	ltpFR2	14	n/a	n/a	n/a	13	23	6	9	8
2100048	PROB	n/a	LTP385	ltpFR2	14	n/a	n/a	n/a	13	14	4	2	8
2105064	STOP	n/a	LTP385	ltpFR2	14	n/a	n/a	n/a	13	n/a	n/a	n/a	n/a
2106123	WORD	wordpools/wasnorm_wordpool_576.txt	LTP385	ltpFR2	14	10	AIRPLANE	12	n/a	n/a	0	0	0
2108930	WORD	wordpools/wasnorm_wordpool_576.txt	LTP385	ltpFR2	14	10	TOURIST	1488	n/a	n/a	0	0	0
2111538	WORD	wordpools/wasnorm_wordpool_576.txt	LTP385	ltpFR2	14	10	YACHT	1629	n/a	n/a	0	0	0
2114203	WORD	wordpools/wasnorm_wordpool_576.txt	LTP385	ltpFR2	14	10	MOP	916	n/a	n/a	0	0	0
2116718	WORD	wordpools/wasnorm_wordpool_576.txt	LTP385	ltpFR2	14	10	AIRPORT	13	n/a	n/a	0	0	0
2119316	WORD	wordpools/wasnorm_wordpool_576.txt	LTP385	ltpFR2	14	10	MISTER	901	n/a	n/a	0	0	0
2121848	WORD	wordpools/wasnorm_wordpool_576.txt	LTP385	ltpFR2	14	10	DENTIST	447	n/a	n/a	0	0	0
2124406	WORD	wordpools/wasnorm_wordpool_576.txt	LTP385	ltpFR2	14	10	DRILL	497	n/a	n/a	0	0	0
2127129	WORD	wordpools/wasnorm_wordpool_576.txt	LTP385	ltpFR2	14	10	HORSE	719	n/a	n/a	0	0	0
2129903	WORD	wordpools/wasnorm_wordpool_576.txt	LTP385	ltpFR2	14	10	CUSTARD	429	n/a	n/a	0	0	0
2132411	WORD	wordpools/wasnorm_wordpool_576.txt	LTP385	ltpFR2	14	10	LUGGAGE	847	n/a	n/a	0	0	0
2134942	WORD	wordpools/wasnorm_wordpool_576.txt	LTP385	ltpFR2	14	10	LEOPARD	812	n/a	n/a	0	0	0
2137592	WORD	wordpools/wasnorm_wordpool_576.txt	LTP385	ltpFR2	14	10	GRIZZLY	662	n/a	n/a	0	0	0
2140315	WORD	wordpools/wasnorm_wordpool_576.txt	LTP385	ltpFR2	14	10	ROOSTER	1209	n/a	n/a	0	0	0
2142913	WORD	wordpools/wasnorm_wordpool_576.txt	LTP385	ltpFR2	14	10	GUITAR	670	n/a	n/a	0	0	0
2145613	WORD	wordpools/wasnorm_wordpool_576.txt	LTP385	ltpFR2	14	10	LAKE	796	n/a	n/a	0	0	0
2148362	WORD	wordpools/wasnorm_wordpool_576.txt	LTP385	ltpFR2	14	10	SALAD	1224	n/a	n/a	0	0	0
2150985	WORD	wordpools/wasnorm_wordpool_576.txt	LTP385	ltpFR2	14	10	RADISH	1158	n/a	n/a	0	0	0
2153643	WORD	wordpools/wasnorm_wordpool_576.txt	LTP385	ltpFR2	14	10	DUSTPAN	509	n/a	n/a	0	0	0
2156316	WORD	wordpools/wasnorm_wordpool_576.txt	LTP385	ltpFR2	14	10	FRUIT	610	n/a	n/a	0	0	0
2158923	WORD	wordpools/wasnorm_wordpool_576.txt	LTP385	ltpFR2	14	10	ICING	732	n/a	n/a	0	0	0
2161523	WORD	wordpools/wasnorm_wordpool_576.txt	LTP385	ltpFR2	14	10	CLIMBER	323	n/a	n/a	0	0	0
2164279	WORD	wordpools/wasnorm_wordpool_576.txt	LTP385	ltpFR2	14	10	CITRUS	313	n/a	n/a	0	0	0
2166803	WORD	wordpools/wasnorm_wordpool_576.txt	LTP385	ltpFR2	14	10	MONSTER	912	n/a	n/a	0	0	0
2168408	START	n/a	LTP385	ltpFR2	14	n/a	n/a	n/a	14	n/a	n/a	n/a	n/a
2169349	DISTRACTOR	n/a	LTP385	ltpFR2	14	10	n/a	n/a	n/a	n/a	0	0	0
2169352	PROB	n/a	LTP385	ltpFR2	14	n/a	n/a	n/a	14	18	1	9	8
2171408	PROB	n/a	LTP385	ltpFR2	14	n/a	n/a	n/a	14	15	3	5	7
2174022	PROB	n/a	LTP385	ltpFR2	14	n/a	n/a	n/a	14	14	5	3	6
2176713	PROB	n/a	LTP385	ltpFR2	14	n/a	n/a	n/a	14	5	1	1	3
2178300	PROB	n/a	LTP385	ltpFR2	14	n/a	n/a	n/a	14	18	8	4	6
2180365	PROB	n/a	LTP385	ltpFR2	14	n/a	n/a	n/a	14	14	5	2	7
2182746	PROB	n/a	LTP385	ltpFR2	14	n/a	n/a	n/a	14	14	3	5	3
2187509	PROB	n/a	LTP385	ltpFR2	14	n/a	n/a	n/a	14	8	5	1	2
2192408	STOP	n/a	LTP385	ltpFR2	14	n/a	n/a	n/a	14	n/a	n/a	n/a	n/a
2194143	REC_START	n/a	LTP385	ltpFR2	14	10	n/a	n/a	n/a	n/a	0	0	0
2197757	REC_WORD	wordpools/wasnorm_wordpool_576.txt	LTP385	ltpFR2	14	10	HIKER	708	n/a	n/a	0	0	0
2198526	REC_WORD	wordpools/wasnorm_wordpool_576.txt	LTP385	ltpFR2	14	10	TOURIST	1488	n/a	n/a	0	0	0
2200129	REC_WORD	wordpools/wasnorm_wordpool_576.txt	LTP385	ltpFR2	14	10	PLANE	1081	n/a	n/a	0	0	0
2200954	REC_WORD	wordpools/wasnorm_wordpool_576.txt	LTP385	ltpFR2	14	10	AIRPLANE	12	n/a	n/a	0	0	0
2202146	REC_WORD	wordpools/wasnorm_wordpool_576.txt	LTP385	ltpFR2	14	10	DENTIST	447	n/a	n/a	0	0	0
2203015	REC_WORD	wordpools/wasnorm_wordpool_576.txt	LTP385	ltpFR2	14	10	DRILL	497	n/a	n/a	0	0	0
2204328	REC_WORD	wordpools/wasnorm_wordpool_576.txt	LTP385	ltpFR2	14	10	TART	1436	n/a	n/a	0	0	0
2205657	REC_WORD	wordpools/wasnorm_wordpool_576.txt	LTP385	ltpFR2	14	10	SALAD	1224	n/a	n/a	0	0	0
2206641	REC_WORD	wordpools/wasnorm_wordpool_576.txt	LTP385	ltpFR2	14	10	RADISH	1158	n/a	n/a	0	0	0
2207975	REC_WORD	wordpools/wasnorm_wordpool_576.txt	LTP385	ltpFR2	14	10	HORSE	719	n/a	n/a	0	0	0
2219775	REC_WORD	wordpools/wasnorm_wordpool_576.txt	LTP385	ltpFR2	14	10	ROOSTER	1209	n/a	n/a	0	0	0
2229991	REC_WORD	wordpools/wasnorm_wordpool_576.txt	LTP385	ltpFR2	14	10	CHEETAH	-1	n/a	n/a	0	0	0
2430346	DISTRACTOR	n/a	LTP385	ltpFR2	14	11	n/a	n/a	n/a	n/a	0	0	0
2430346	START	n/a	LTP385	ltpFR2	14	n/a	n/a	n/a	15	n/a	n/a	n/a	n/a
2430364	PROB	n/a	LTP385	ltpFR2	14	n/a	n/a	n/a	15	13	2	3	8
2432478	PROB	n/a	LTP385	ltpFR2	14	n/a	n/a	n/a	15	6	1	3	2
2434424	PROB	n/a	LTP385	ltpFR2	14	n/a	n/a	n/a	15	13	1	9	3
2435861	PROB	n/a	LTP385	ltpFR2	14	n/a	n/a	n/a	15	19	5	6	8
2438334	PROB	n/a	LTP385	ltpFR2	14	n/a	n/a	n/a	15	15	8	5	2
2442144	PROB	n/a	LTP385	ltpFR2	14	n/a	n/a	n/a	15	13	3	6	4
2443765	PROB	n/a	LTP385	ltpFR2	14	n/a	n/a	n/a	15	16	6	2	8
2445796	PROB	n/a	LTP385	ltpFR2	14	n/a	n/a	n/a	15	13	9	3	1
2448211	PROB	n/a	LTP385	ltpFR2	14	n/a	n/a	n/a	15	24	9	8	7
2454237	STOP	n/a	LTP385	ltpFR2	14	n/a	n/a	n/a	15	n/a	n/a	n/a	n/a
2455506	WORD	wordpools/wasnorm_wordpool_576.txt	LTP385	ltpFR2	14	11	CANAL	226	n/a	n/a	0	0	0
2458154	WORD	wordpools/wasnorm_wordpool_576.txt	LTP385	ltpFR2	14	11	DONKEY	484	n/a	n/a	0	0	0
2460753	WORD	wordpools/wasnorm_wordpool_576.txt	LTP385	ltpFR2	14	11	SCARECROW	1245	n/a	n/a	0	0	0
2463318	WORD	wordpools/wasnorm_wordpool_576.txt	LTP385	ltpFR2	14	11	DRESS	495	n/a	n/a	0	0	0
2465892	WORD	wordpools/wasnorm_wordpool_576.txt	LTP385	ltpFR2	14	11	CABBAGE	210	n/a	n/a	0	0	0
2468608	WORD	wordpools/wasnorm_wordpool_576.txt	LTP385	ltpFR2	14	11	PISTON	1076	n/a	n/a	0	0	0
2471281	WORD	wordpools/wasnorm_wordpool_576.txt	LTP385	ltpFR2	14	11	ELBOW	520	n/a	n/a	0	0	0
2474047	WORD	wordpools/wasnorm_wordpool_576.txt	LTP385	ltpFR2	14	11	PEDAL	1037	n/a	n/a	0	0	0
2476605	WORD	wordpools/wasnorm_wordpool_576.txt	LTP385	ltpFR2	14	11	BIKE	125	n/a	n/a	0	0	0
2479169	WORD	wordpools/wasnorm_wordpool_576.txt	LTP385	ltpFR2	14	11	SUNSET	1408	n/a	n/a	0	0	0
2481960	WORD	wordpools/wasnorm_wordpool_576.txt	LTP385	ltpFR2	14	11	PALACE	1006	n/a	n/a	0	0	0
2484726	WORD	wordpools/wasnorm_wordpool_576.txt	LTP385	ltpFR2	14	11	PRINCESS	1125	n/a	n/a	0	0	0
2487216	WORD	wordpools/wasnorm_wordpool_576.txt	LTP385	ltpFR2	14	11	COUNTY	389	n/a	n/a	0	0	0
2489915	WORD	wordpools/wasnorm_wordpool_576.txt	LTP385	ltpFR2	14	11	SPARROW	1347	n/a	n/a	0	0	0
2492498	WORD	wordpools/wasnorm_wordpool_576.txt	LTP385	ltpFR2	14	11	TRACTOR	1493	n/a	n/a	0	0	0
2495179	WORD	wordpools/wasnorm_wordpool_576.txt	LTP385	ltpFR2	14	11	LADDER	793	n/a	n/a	0	0	0
2497603	WORD	wordpools/wasnorm_wordpool_576.txt	LTP385	ltpFR2	14	11	CRUTCH	417	n/a	n/a	0	0	0
2500050	WORD	wordpools/wasnorm_wordpool_576.txt	LTP385	ltpFR2	14	11	PORK	1108	n/a	n/a	0	0	0
2502516	WORD	wordpools/wasnorm_wordpool_576.txt	LTP385	ltpFR2	14	11	BEAKER	104	n/a	n/a	0	0	0
2505289	WORD	wordpools/wasnorm_wordpool_576.txt	LTP385	ltpFR2	14	11	PIGEON	1065	n/a	n/a	0	0	0
2507938	WORD	wordpools/wasnorm_wordpool_576.txt	LTP385	ltpFR2	14	11	COIN	343	n/a	n/a	0	0	0
2510712	WORD	wordpools/wasnorm_wordpool_576.txt	LTP385	ltpFR2	14	11	MARKET	871	n/a	n/a	0	0	0
2513186	WORD	wordpools/wasnorm_wordpool_576.txt	LTP385	ltpFR2	14	11	BACON	67	n/a	n/a	0	0	0
2515935	WORD	wordpools/wasnorm_wordpool_576.txt	LTP385	ltpFR2	14	11	STUDENT	1395	n/a	n/a	0	0	0
2517540	START	n/a	LTP385	ltpFR2	14	n/a	n/a	n/a	16	n/a	n/a	n/a	n/a
2518643	DISTRACTOR	n/a	LTP385	ltpFR2	14	11	n/a	n/a	n/a	n/a	0	0	0
2518650	PROB	n/a	LTP385	ltpFR2	14	n/a	n/a	n/a	16	11	3	5	3
2521934	PROB	n/a	LTP385	ltpFR2	14	n/a	n/a	n/a	16	17	4	5	8
2524650	PROB	n/a	LTP385	ltpFR2	14	n/a	n/a	n/a	16	22	5	8	9
2529170	PROB	n/a	LTP385	ltpFR2	14	n/a	n/a	n/a	16	13	4	3	6
2532405	PROB	n/a	LTP385	ltpFR2	14	n/a	n/a	n/a	16	11	4	1	6
2536466	PROB	n/a	LTP385	ltpFR2	14	n/a	n/a	n/a	16	7	1	1	5
2541540	STOP	n/a	LTP385	ltpFR2	14	n/a	n/a	n/a	16	n/a	n/a	n/a	n/a
2543444	REC_START	n/a	LTP385	ltpFR2	14	11	n/a	n/a	n/a	n/a	0	0	0
2547821	REC_WORD	wordpools/wasnorm_wordpool_576.txt	LTP385	ltpFR2	14	11	CANAL	226	n/a	n/a	0	0	0
2548569	REC_WORD	wordpools/wasnorm_wordpool_576.txt	LTP385	ltpFR2	14	11	SCARECROW	1245	n/a	n/a	0	0	0
2553998	REC_WORD	wordpools/wasnorm_wordpool_576.txt	LTP385	ltpFR2	14	11	STUDENT	1395	n/a	n/a	0	0	0
2633869	DISTRACTOR	n/a	LTP385	ltpFR2	14	12	n/a	n/a	n/a	n/a	0	0	0
2633869	START	n/a	LTP385	ltpFR2	14	n/a	n/a	n/a	17	n/a	n/a	n/a	n/a
2633886	PROB	n/a	LTP385	ltpFR2	14	n/a	n/a	n/a	17	14	4	6	4
2635908	PROB	n/a	LTP385	ltpFR2	14	n/a	n/a	n/a	17	15	4	5	6
2638030	PROB	n/a	LTP385	ltpFR2	14	n/a	n/a	n/a	17	15	5	1	9
2641038	PROB	n/a	LTP385	ltpFR2	14	n/a	n/a	n/a	17	15	3	2	6
2644147	PROB	n/a	LTP385	ltpFR2	14	n/a	n/a	n/a	17	8	4	3	1
2646562	PROB	n/a	LTP385	ltpFR2	14	n/a	n/a	n/a	17	18	6	3	9
2649010	PROB	n/a	LTP385	ltpFR2	14	n/a	n/a	n/a	17	14	6	6	2
2652403	PROB	n/a	LTP385	ltpFR2	14	n/a	n/a	n/a	17	15	7	2	6
2657868	STOP	n/a	LTP385	ltpFR2	14	n/a	n/a	n/a	17	n/a	n/a	n/a	n/a
2658853	WORD	wordpools/wasnorm_wordpool_576.txt	LTP385	ltpFR2	14	12	GUARD	667	n/a	n/a	0	0	0
2661428	WORD	wordpools/wasnorm_wordpool_576.txt	LTP385	ltpFR2	14	12	RECEIPT	1173	n/a	n/a	0	0	0
2664226	WORD	wordpools/wasnorm_wordpool_576.txt	LTP385	ltpFR2	14	12	PIZZA	1079	n/a	n/a	0	0	0
2666900	WORD	wordpools/wasnorm_wordpool_576.txt	LTP385	ltpFR2	14	12	CONCERT	360	n/a	n/a	0	0	0
2669625	WORD	wordpools/wasnorm_wordpool_576.txt	LTP385	ltpFR2	14	12	FRIAR	605	n/a	n/a	0	0	0
2672424	WORD	wordpools/wasnorm_wordpool_576.txt	LTP385	ltpFR2	14	12	CROSS	413	n/a	n/a	0	0	0
2674863	WORD	wordpools/wasnorm_wordpool_576.txt	LTP385	ltpFR2	14	12	STONE	1385	n/a	n/a	0	0	0
2677328	WORD	wordpools/wasnorm_wordpool_576.txt	LTP385	ltpFR2	14	12	RUG	1215	n/a	n/a	0	0	0
2680002	WORD	wordpools/wasnorm_wordpool_576.txt	LTP385	ltpFR2	14	12	HAND	683	n/a	n/a	0	0	0
2682484	WORD	wordpools/wasnorm_wordpool_576.txt	LTP385	ltpFR2	14	12	ISLAND	745	n/a	n/a	0	0	0
2684898	WORD	wordpools/wasnorm_wordpool_576.txt	LTP385	ltpFR2	14	12	ULCER	1533	n/a	n/a	0	0	0
2687414	WORD	wordpools/wasnorm_wordpool_576.txt	LTP385	ltpFR2	14	12	PERMIT	1051	n/a	n/a	0	0	0
2690137	WORD	wordpools/wasnorm_wordpool_576.txt	LTP385	ltpFR2	14	12	FARMER	553	n/a	n/a	0	0	0
2692719	WORD	wordpools/wasnorm_wordpool_576.txt	LTP385	ltpFR2	14	12	CLOUD	328	n/a	n/a	0	0	0
2695218	WORD	wordpools/wasnorm_wordpool_576.txt	LTP385	ltpFR2	14	12	SHORTS	1293	n/a	n/a	0	0	0
2697699	WORD	wordpools/wasnorm_wordpool_576.txt	LTP385	ltpFR2	14	12	MEDAL	885	n/a	n/a	0	0	0
2700357	WORD	wordpools/wasnorm_wordpool_576.txt	LTP385	ltpFR2	14	12	NIGHTGOWN	953	n/a	n/a	0	0	0
2703005	WORD	wordpools/wasnorm_wordpool_576.txt	LTP385	ltpFR2	14	12	PLAZA	1088	n/a	n/a	0	0	0
2705662	WORD	wordpools/wasnorm_wordpool_576.txt	LTP385	ltpFR2	14	12	NEUTRON	947	n/a	n/a	0	0	0
2708278	WORD	wordpools/wasnorm_wordpool_576.txt	LTP385	ltpFR2	14	12	PROTON	1132	n/a	n/a	0	0	0
2710876	WORD	wordpools/wasnorm_wordpool_576.txt	LTP385	ltpFR2	14	12	OYSTER	995	n/a	n/a	0	0	0
2713509	WORD	wordpools/wasnorm_wordpool_576.txt	LTP385	ltpFR2	14	12	SLIME	1327	n/a	n/a	0	0	0
2716024	WORD	wordpools/wasnorm_wordpool_576.txt	LTP385	ltpFR2	14	12	GLOVE	642	n/a	n/a	0	0	0
2718515	WORD	wordpools/wasnorm_wordpool_576.txt	LTP385	ltpFR2	14	12	POLICE	1098	n/a	n/a	0	0	0
2720127	START	n/a	LTP385	ltpFR2	14	n/a	n/a	n/a	18	n/a	n/a	n/a	n/a
2721191	DISTRACTOR	n/a	LTP385	ltpFR2	14	12	n/a	n/a	n/a	n/a	0	0	0
2721196	PROB	n/a	LTP385	ltpFR2	14	n/a	n/a	n/a	18	20	4	7	9
2724321	PROB	n/a	LTP385	ltpFR2	14	n/a	n/a	n/a	18	22	5	8	9
2728733	PROB	n/a	LTP385	ltpFR2	14	n/a	n/a	n/a	18	23	8	8	7
2732603	PROB	n/a	LTP385	ltpFR2	14	n/a	n/a	n/a	18	12	6	5	1
2735083	PROB	n/a	LTP385	ltpFR2	14	n/a	n/a	n/a	18	20	5	6	9
2737382	PROB	n/a	LTP385	ltpFR2	14	n/a	n/a	n/a	18	15	5	6	4
2739295	PROB	n/a	LTP385	ltpFR2	14	n/a	n/a	n/a	18	22	9	7	6
2744127	STOP	n/a	LTP385	ltpFR2	14	n/a	n/a	n/a	18	n/a	n/a	n/a	n/a
2745955	REC_START	n/a	LTP385	ltpFR2	14	12	n/a	n/a	n/a	n/a	0	0	0
2746731	REC_WORD	wordpools/wasnorm_wordpool_576.txt	LTP385	ltpFR2	14	12	PROTON	1132	n/a	n/a	0	0	0
2747643	REC_WORD	wordpools/wasnorm_wordpool_576.txt	LTP385	ltpFR2	14	12	NEUTRON	947	n/a	n/a	0	0	0
2755384	REC_WORD	wordpools/wasnorm_wordpool_576.txt	LTP385	ltpFR2	14	12	GUARD	667	n/a	n/a	0	0	0
2756399	REC_WORD	wordpools/wasnorm_wordpool_576.txt	LTP385	ltpFR2	14	12	RECEIPT	1173	n/a	n/a	0	0	0
2757859	REC_WORD	wordpools/wasnorm_wordpool_576.txt	LTP385	ltpFR2	14	12	PIZZA	1079	n/a	n/a	0	0	0
2953539	DISTRACTOR	n/a	LTP385	ltpFR2	14	13	n/a	n/a	n/a	n/a	0	0	0
2953539	START	n/a	LTP385	ltpFR2	14	n/a	n/a	n/a	19	n/a	n/a	n/a	n/a
2953556	PROB	n/a	LTP385	ltpFR2	14	n/a	n/a	n/a	19	8	1	3	4
2955911	PROB	n/a	LTP385	ltpFR2	14	n/a	n/a	n/a	19	14	3	9	2
2958878	PROB	n/a	LTP385	ltpFR2	14	n/a	n/a	n/a	19	24	9	6	9
2961777	PROB	n/a	LTP385	ltpFR2	14	n/a	n/a	n/a	19	21	9	3	9
2964410	PROB	n/a	LTP385	ltpFR2	14	n/a	n/a	n/a	19	12	2	3	7
2966323	PROB	n/a	LTP385	ltpFR2	14	n/a	n/a	n/a	19	18	7	9	3
2969532	PROB	n/a	LTP385	ltpFR2	14	n/a	n/a	n/a	19	13	8	4	1
2971846	PROB	n/a	LTP385	ltpFR2	14	n/a	n/a	n/a	19	24	6	9	8
2977539	STOP	n/a	LTP385	ltpFR2	14	n/a	n/a	n/a	19	n/a	n/a	n/a	n/a
2978431	WORD	wordpools/wasnorm_wordpool_576.txt	LTP385	ltpFR2	14	13	JELLO	754	n/a	n/a	0	0	0
2980962	WORD	wordpools/wasnorm_wordpool_576.txt	LTP385	ltpFR2	14	13	BREAST	171	n/a	n/a	0	0	0
2983428	WORD	wordpools/wasnorm_wordpool_576.txt	LTP385	ltpFR2	14	13	CONTRACT	368	n/a	n/a	0	0	0
2986051	WORD	wordpools/wasnorm_wordpool_576.txt	LTP385	ltpFR2	14	13	PEANUT	1032	n/a	n/a	0	0	0
2988592	WORD	wordpools/wasnorm_wordpool_576.txt	LTP385	ltpFR2	14	13	COOKBOOK	373	n/a	n/a	0	0	0
2991064	WORD	wordpools/wasnorm_wordpool_576.txt	LTP385	ltpFR2	14	13	RIVER	1194	n/a	n/a	0	0	0
2993705	WORD	wordpools/wasnorm_wordpool_576.txt	LTP385	ltpFR2	14	13	PUDDLE	1140	n/a	n/a	0	0	0
2996354	WORD	wordpools/wasnorm_wordpool_576.txt	LTP385	ltpFR2	14	13	STAPLE	1371	n/a	n/a	0	0	0
2998802	WORD	wordpools/wasnorm_wordpool_576.txt	LTP385	ltpFR2	14	13	HUMAN	726	n/a	n/a	0	0	0
3001275	WORD	wordpools/wasnorm_wordpool_576.txt	LTP385	ltpFR2	14	13	HUSBAND	728	n/a	n/a	0	0	0
3004066	WORD	wordpools/wasnorm_wordpool_576.txt	LTP385	ltpFR2	14	13	SPOUSE	1358	n/a	n/a	0	0	0
3006723	WORD	wordpools/wasnorm_wordpool_576.txt	LTP385	ltpFR2	14	13	MASK	876	n/a	n/a	0	0	0
3009305	WORD	wordpools/wasnorm_wordpool_576.txt	LTP385	ltpFR2	14	13	SCULPTURE	1258	n/a	n/a	0	0	0
3011996	WORD	wordpools/wasnorm_wordpool_576.txt	LTP385	ltpFR2	14	13	POET	1095	n/a	n/a	0	0	0
3014694	WORD	wordpools/wasnorm_wordpool_576.txt	LTP385	ltpFR2	14	13	FOREST	593	n/a	n/a	0	0	0
3017478	WORD	wordpools/wasnorm_wordpool_576.txt	LTP385	ltpFR2	14	13	ICEBERG	731	n/a	n/a	0	0	0
3019984	WORD	wordpools/wasnorm_wordpool_576.txt	LTP385	ltpFR2	14	13	PUPIL	1143	n/a	n/a	0	0	0
3022642	WORD	wordpools/wasnorm_wordpool_576.txt	LTP385	ltpFR2	14	13	GANGSTER	620	n/a	n/a	0	0	0
3025106	WORD	wordpools/wasnorm_wordpool_576.txt	LTP385	ltpFR2	14	13	KLEENEX	782	n/a	n/a	0	0	0
3027605	WORD	wordpools/wasnorm_wordpool_576.txt	LTP385	ltpFR2	14	13	TEACHER	1440	n/a	n/a	0	0	0
3030078	WORD	wordpools/wasnorm_wordpool_576.txt	LTP385	ltpFR2	14	13	FLASK	576	n/a	n/a	0	0	0
3032810	WORD	wordpools/wasnorm_wordpool_576.txt	LTP385	ltpFR2	14	13	GLASS	639	n/a	n/a	0	0	0
3035543	WORD	wordpools/wasnorm_wordpool_576.txt	LTP385	ltpFR2	14	13	BLENDER	136	n/a	n/a	0	0	0
3038183	WORD	wordpools/wasnorm_wordpool_576.txt	LTP385	ltpFR2	14	13	KETCHUP	771	n/a	n/a	0	0	0
3039787	START	n/a	LTP385	ltpFR2	14	n/a	n/a	n/a	20	n/a	n/a	n/a	n/a
3040806	DISTRACTOR	n/a	LTP385	ltpFR2	14	13	n/a	n/a	n/a	n/a	0	0	0
3040815	PROB	n/a	LTP385	ltpFR2	14	n/a	n/a	n/a	20	21	5	8	8
3044392	PROB	n/a	LTP385	ltpFR2	14	n/a	n/a	n/a	20	17	7	8	2
3048395	PROB	n/a	LTP385	ltpFR2	14	n/a	n/a	n/a	20	14	9	2	3
3050716	PROB	n/a	LTP385	ltpFR2	14	n/a	n/a	n/a	20	13	2	6	5
3053609	PROB	n/a	LTP385	ltpFR2	14	n/a	n/a	n/a	20	14	8	5	1
3055671	PROB	n/a	LTP385	ltpFR2	14	n/a	n/a	n/a	20	21	4	9	8
3060886	PROB	n/a	LTP385	ltpFR2	14	n/a	n/a	n/a	20	15	7	6	2
3063713	STOP	n/a	LTP385	ltpFR2	14	n/a	n/a	n/a	20	n/a	n/a	n/a	n/a
3065642	REC_START	n/a	LTP385	ltpFR2	14	13	n/a	n/a	n/a	n/a	0	0	0
3067236	REC_WORD	wordpools/wasnorm_wordpool_576.txt	LTP385	ltpFR2	14	13	BLENDER	136	n/a	n/a	0	0	0
3068029	REC_WORD	wordpools/wasnorm_wordpool_576.txt	LTP385	ltpFR2	14	13	KETCHUP	771	n/a	n/a	0	0	0
3070802	REC_WORD	wordpools/wasnorm_wordpool_576.txt	LTP385	ltpFR2	14	13	JELLO	754	n/a	n/a	0	0	0
3072140	REC_WORD	wordpools/wasnorm_wordpool_576.txt	LTP385	ltpFR2	14	13	BREAST	171	n/a	n/a	0	0	0
3073429	REC_WORD	wordpools/wasnorm_wordpool_576.txt	LTP385	ltpFR2	14	13	CONTRACT	368	n/a	n/a	0	0	0
3075059	REC_WORD	wordpools/wasnorm_wordpool_576.txt	LTP385	ltpFR2	14	13	PEANUT	1032	n/a	n/a	0	0	0
3079045	REC_WORD	wordpools/wasnorm_wordpool_576.txt	LTP385	ltpFR2	14	13	PEANUT	1032	n/a	n/a	0	0	0
3079360	REC_WORD	wordpools/wasnorm_wordpool_576.txt	LTP385	ltpFR2	14	13	BUTTER	205	n/a	n/a	0	0	0
3089806	REC_WORD	wordpools/wasnorm_wordpool_576.txt	LTP385	ltpFR2	14	13	MASK	876	n/a	n/a	0	0	0
3091350	REC_WORD	wordpools/wasnorm_wordpool_576.txt	LTP385	ltpFR2	14	13	HUSBAND	728	n/a	n/a	0	0	0
3092221	REC_WORD	wordpools/wasnorm_wordpool_576.txt	LTP385	ltpFR2	14	13	WIFE	1609	n/a	n/a	0	0	0
3156067	DISTRACTOR	n/a	LTP385	ltpFR2	14	14	n/a	n/a	n/a	n/a	0	0	0
3156067	START	n/a	LTP385	ltpFR2	14	n/a	n/a	n/a	21	n/a	n/a	n/a	n/a
3156084	PROB	n/a	LTP385	ltpFR2	14	n/a	n/a	n/a	21	18	9	1	8
3158306	PROB	n/a	LTP385	ltpFR2	14	n/a	n/a	n/a	21	11	4	1	6
3160505	PROB	n/a	LTP385	ltpFR2	14	n/a	n/a	n/a	21	15	5	5	5
3161891	PROB	n/a	LTP385	ltpFR2	14	n/a	n/a	n/a	21	7	1	3	3
3163955	PROB	n/a	LTP385	ltpFR2	14	n/a	n/a	n/a	21	19	8	7	4
3166203	PROB	n/a	LTP385	ltpFR2	14	n/a	n/a	n/a	21	17	5	3	9
3168384	PROB	n/a	LTP385	ltpFR2	14	n/a	n/a	n/a	21	14	2	8	4
3171049	PROB	n/a	LTP385	ltpFR2	14	n/a	n/a	n/a	21	25	9	8	8
3175285	PROB	n/a	LTP385	ltpFR2	14	n/a	n/a	n/a	21	15	1	9	5
3180066	STOP	n/a	LTP385	ltpFR2	14	n/a	n/a	n/a	21	n/a	n/a	n/a	n/a
3181068	WORD	wordpools/wasnorm_wordpool_576.txt	LTP385	ltpFR2	14	14	TRANSPLANT	1496	n/a	n/a	0	0	0
3183650	WORD	wordpools/wasnorm_wordpool_576.txt	LTP385	ltpFR2	14	14	SWIMMER	1420	n/a	n/a	0	0	0
3186064	WORD	wordpools/wasnorm_wordpool_576.txt	LTP385	ltpFR2	14	14	TILE	1468	n/a	n/a	0	0	0
3188530	WORD	wordpools/wasnorm_wordpool_576.txt	LTP385	ltpFR2	14	14	WORKER	1621	n/a	n/a	0	0	0
3191078	WORD	wordpools/wasnorm_wordpool_576.txt	LTP385	ltpFR2	14	14	WINDOW	1611	n/a	n/a	0	0	0
3193651	WORD	wordpools/wasnorm_wordpool_576.txt	LTP385	ltpFR2	14	14	LUNCH	849	n/a	n/a	0	0	0
3196325	WORD	wordpools/wasnorm_wordpool_576.txt	LTP385	ltpFR2	14	14	TWEEZERS	1526	n/a	n/a	0	0	0
3198807	WORD	wordpools/wasnorm_wordpool_576.txt	LTP385	ltpFR2	14	14	TWISTER	1530	n/a	n/a	0	0	0
3201365	WORD	wordpools/wasnorm_wordpool_576.txt	LTP385	ltpFR2	14	14	RAFT	1159	n/a	n/a	0	0	0
3203921	WORD	wordpools/wasnorm_wordpool_576.txt	LTP385	ltpFR2	14	14	LAGOON	795	n/a	n/a	0	0	0
3206712	WORD	wordpools/wasnorm_wordpool_576.txt	LTP385	ltpFR2	14	14	PICNIC	1060	n/a	n/a	0	0	0
3209335	WORD	wordpools/wasnorm_wordpool_576.txt	LTP385	ltpFR2	14	14	SURVEY	1414	n/a	n/a	0	0	0
3211926	WORD	wordpools/wasnorm_wordpool_576.txt	LTP385	ltpFR2	14	14	CHEMIST	292	n/a	n/a	0	0	0
3214367	WORD	wordpools/wasnorm_wordpool_576.txt	LTP385	ltpFR2	14	14	JAPAN	749	n/a	n/a	0	0	0
3217165	WORD	wordpools/wasnorm_wordpool_576.txt	LTP385	ltpFR2	14	14	BALLOON	75	n/a	n/a	0	0	0
3219964	WORD	wordpools/wasnorm_wordpool_576.txt	LTP385	ltpFR2	14	14	GROUND	666	n/a	n/a	0	0	0
3222388	WORD	wordpools/wasnorm_wordpool_576.txt	LTP385	ltpFR2	14	14	UNCLE	1536	n/a	n/a	0	0	0
3224860	WORD	wordpools/wasnorm_wordpool_576.txt	LTP385	ltpFR2	14	14	NECKLACE	940	n/a	n/a	0	0	0
3227636	WORD	wordpools/wasnorm_wordpool_576.txt	LTP385	ltpFR2	14	14	JUGGLER	763	n/a	n/a	0	0	0
3230334	WORD	wordpools/wasnorm_wordpool_576.txt	LTP385	ltpFR2	14	14	VALVE	1546	n/a	n/a	0	0	0
3232773	WORD	wordpools/wasnorm_wordpool_576.txt	LTP385	ltpFR2	14	14	HOOD	714	n/a	n/a	0	0	0
3235314	WORD	wordpools/wasnorm_wordpool_576.txt	LTP385	ltpFR2	14	14	WHISKERS	1605	n/a	n/a	0	0	0
3238054	WORD	wordpools/wasnorm_wordpool_576.txt	LTP385	ltpFR2	14	14	PARENT	1013	n/a	n/a	0	0	0
3240595	WORD	wordpools/wasnorm_wordpool_576.txt	LTP385	ltpFR2	14	14	FIREPLACE	570	n/a	n/a	0	0	0
3242199	START	n/a	LTP385	ltpFR2	14	n/a	n/a	n/a	22	n/a	n/a	n/a	n/a
3243340	DISTRACTOR	n/a	LTP385	ltpFR2	14	14	n/a	n/a	n/a	n/a	0	0	0
3243343	PROB	n/a	LTP385	ltpFR2	14	n/a	n/a	n/a	22	15	4	5	6
3248575	PROB	n/a	LTP385	ltpFR2	14	n/a	n/a	n/a	22	18	8	8	2
3250822	PROB	n/a	LTP385	ltpFR2	14	n/a	n/a	n/a	22	7	5	1	1
3252276	PROB	n/a	LTP385	ltpFR2	14	n/a	n/a	n/a	22	20	6	8	6
3254600	PROB	n/a	LTP385	ltpFR2	14	n/a	n/a	n/a	22	4	2	1	1
3255794	PROB	n/a	LTP385	ltpFR2	14	n/a	n/a	n/a	22	21	7	7	7
3257097	PROB	n/a	LTP385	ltpFR2	14	n/a	n/a	n/a	22	17	9	7	1
3259671	PROB	n/a	LTP385	ltpFR2	14	n/a	n/a	n/a	22	15	9	5	1
3266199	STOP	n/a	LTP385	ltpFR2	14	n/a	n/a	n/a	22	n/a	n/a	n/a	n/a
3268077	REC_START	n/a	LTP385	ltpFR2	14	14	n/a	n/a	n/a	n/a	0	0	0
3269038	REC_WORD	wordpools/wasnorm_wordpool_576.txt	LTP385	ltpFR2	14	14	WHISKERS	1605	n/a	n/a	0	0	0
3270180	REC_WORD	wordpools/wasnorm_wordpool_576.txt	LTP385	ltpFR2	14	14	PARENT	1013	n/a	n/a	0	0	0
3271430	REC_WORD	wordpools/wasnorm_wordpool_576.txt	LTP385	ltpFR2	14	14	UNCLE	1536	n/a	n/a	0	0	0
3272550	REC_WORD	wordpools/wasnorm_wordpool_576.txt	LTP385	ltpFR2	14	14	SWIMMER	1420	n/a	n/a	0	0	0
3274026	REC_WORD	wordpools/wasnorm_wordpool_576.txt	LTP385	ltpFR2	14	14	TRANSPLANT	1496	n/a	n/a	0	0	0
3276425	REC_WORD	wordpools/wasnorm_wordpool_576.txt	LTP385	ltpFR2	14	14	TILE	1468	n/a	n/a	0	0	0
3277595	REC_WORD	wordpools/wasnorm_wordpool_576.txt	LTP385	ltpFR2	14	14	WINDOW	1611	n/a	n/a	0	0	0
3278862	REC_WORD	wordpools/wasnorm_wordpool_576.txt	LTP385	ltpFR2	14	14	JAPAN	749	n/a	n/a	0	0	0
3288235	REC_WORD	wordpools/wasnorm_wordpool_576.txt	LTP385	ltpFR2	14	14	GROUND	666	n/a	n/a	0	0	0
3358513	WORD	wordpools/wasnorm_wordpool_576.txt	LTP385	ltpFR2	14	15	FRIEND	606	n/a	n/a	0	0	0
3361261	WORD	wordpools/wasnorm_wordpool_576.txt	LTP385	ltpFR2	14	15	BOX	159	n/a	n/a	0	0	0
3363818	WORD	wordpools/wasnorm_wordpool_576.txt	LTP385	ltpFR2	14	15	BEAVER	109	n/a	n/a	0	0	0
3366325	WORD	wordpools/wasnorm_wordpool_576.txt	LTP385	ltpFR2	14	15	TROUT	1511	n/a	n/a	0	0	0
3369116	WORD	wordpools/wasnorm_wordpool_576.txt	LTP385	ltpFR2	14	15	SUITCASE	1403	n/a	n/a	0	0	0
3371623	WORD	wordpools/wasnorm_wordpool_576.txt	LTP385	ltpFR2	14	15	BUREAU	199	n/a	n/a	0	0	0
3374238	WORD	wordpools/wasnorm_wordpool_576.txt	LTP385	ltpFR2	14	15	SEAL	1262	n/a	n/a	0	0	0
3377012	WORD	wordpools/wasnorm_wordpool_576.txt	LTP385	ltpFR2	14	15	PANTHER	1009	n/a	n/a	0	0	0
3379620	WORD	wordpools/wasnorm_wordpool_576.txt	LTP385	ltpFR2	14	15	IGLOO	734	n/a	n/a	0	0	0
3382361	WORD	wordpools/wasnorm_wordpool_576.txt	LTP385	ltpFR2	14	15	BRANCH	168	n/a	n/a	0	0	0
3384841	WORD	wordpools/wasnorm_wordpool_576.txt	LTP385	ltpFR2	14	15	LONDON	843	n/a	n/a	0	0	0
3387391	WORD	wordpools/wasnorm_wordpool_576.txt	LTP385	ltpFR2	14	15	DRUG	501	n/a	n/a	0	0	0
3389922	WORD	wordpools/wasnorm_wordpool_576.txt	LTP385	ltpFR2	14	15	TABLET	1427	n/a	n/a	0	0	0
3392479	WORD	wordpools/wasnorm_wordpool_576.txt	LTP385	ltpFR2	14	15	SERVER	1272	n/a	n/a	0	0	0
3395286	WORD	wordpools/wasnorm_wordpool_576.txt	LTP385	ltpFR2	14	15	WAITER	1580	n/a	n/a	0	0	0
3398035	WORD	wordpools/wasnorm_wordpool_576.txt	LTP385	ltpFR2	14	15	BEAST	108	n/a	n/a	0	0	0
3400801	WORD	wordpools/wasnorm_wordpool_576.txt	LTP385	ltpFR2	14	15	FINGER	567	n/a	n/a	0	0	0
3403551	WORD	wordpools/wasnorm_wordpool_576.txt	LTP385	ltpFR2	14	15	EUROPE	541	n/a	n/a	0	0	0
3406324	WORD	wordpools/wasnorm_wordpool_576.txt	LTP385	ltpFR2	14	15	BLACKBOARD	133	n/a	n/a	0	0	0
3408772	WORD	wordpools/wasnorm_wordpool_576.txt	LTP385	ltpFR2	14	15	LUMBER	848	n/a	n/a	0	0	0
3411254	WORD	wordpools/wasnorm_wordpool_576.txt	LTP385	ltpFR2	14	15	EGYPT	519	n/a	n/a	0	0	0
3413819	WORD	wordpools/wasnorm_wordpool_576.txt	LTP385	ltpFR2	14	15	PILOT	1070	n/a	n/a	0	0	0
3416477	WORD	wordpools/wasnorm_wordpool_576.txt	LTP385	ltpFR2	14	15	VICTIM	1562	n/a	n/a	0	0	0
3419259	WORD	wordpools/wasnorm_wordpool_576.txt	LTP385	ltpFR2	14	15	NAPKIN	937	n/a	n/a	0	0	0
3420864	START	n/a	LTP385	ltpFR2	14	n/a	n/a	n/a	23	n/a	n/a	n/a	n/a
3421761	DISTRACTOR	n/a	LTP385	ltpFR2	14	15	n/a	n/a	n/a	n/a	0	0	0
3421766	PROB	n/a	LTP385	ltpFR2	14	n/a	n/a	n/a	23	13	2	7	4
3424281	PROB	n/a	LTP385	ltpFR2	14	n/a	n/a	n/a	23	16	7	4	5
3427624	PROB	n/a	LTP385	ltpFR2	14	n/a	n/a	n/a	23	18	6	4	8
3429227	PROB	n/a	LTP385	ltpFR2	14	n/a	n/a	n/a	23	17	9	2	6
3431341	PROB	n/a	LTP385	ltpFR2	14	n/a	n/a	n/a	23	23	6	9	8
3433873	PROB	n/a	LTP385	ltpFR2	14	n/a	n/a	n/a	23	15	5	7	3
3435803	PROB	n/a	LTP385	ltpFR2	14	n/a	n/a	n/a	23	17	5	3	9
3440683	PROB	n/a	LTP385	ltpFR2	14	n/a	n/a	n/a	23	14	2	6	6
3443502	STOP	n/a	LTP385	ltpFR2	14	n/a	n/a	n/a	23	n/a	n/a	n/a	n/a
3446634	REC_START	n/a	LTP385	ltpFR2	14	15	n/a	n/a	n/a	n/a	0	0	0
3452464	REC_WORD	wordpools/wasnorm_wordpool_576.txt	LTP385	ltpFR2	14	15	PILOT	1070	n/a	n/a	0	0	0
3453135	REC_WORD	wordpools/wasnorm_wordpool_576.txt	LTP385	ltpFR2	14	15	NAPKIN	937	n/a	n/a	0	0	0
3454016	REC_WORD	wordpools/wasnorm_wordpool_576.txt	LTP385	ltpFR2	14	15	MURDERER	-1	n/a	n/a	0	0	0
3455501	REC_WORD	wordpools/wasnorm_wordpool_576.txt	LTP385	ltpFR2	14	15	EGYPT	519	n/a	n/a	0	0	0
3456990	REC_WORD	wordpools/wasnorm_wordpool_576.txt	LTP385	ltpFR2	14	15	EUROPE	541	n/a	n/a	0	0	0
3457674	REC_WORD	wordpools/wasnorm_wordpool_576.txt	LTP385	ltpFR2	14	15	LONDON	843	n/a	n/a	0	0	0
3459201	REC_WORD	wordpools/wasnorm_wordpool_576.txt	LTP385	ltpFR2	14	15	IGLOO	734	n/a	n/a	0	0	0
3461745	REC_WORD	wordpools/wasnorm_wordpool_576.txt	LTP385	ltpFR2	14	15	BRANCH	168	n/a	n/a	0	0	0
3463734	REC_WORD	wordpools/wasnorm_wordpool_576.txt	LTP385	ltpFR2	14	15	WOOD	-1	n/a	n/a	0	0	0
3465165	REC_WORD	wordpools/wasnorm_wordpool_576.txt	LTP385	ltpFR2	14	15	BEAVER	109	n/a	n/a	0	0	0
3466159	REC_WORD	wordpools/wasnorm_wordpool_576.txt	LTP385	ltpFR2	14	15	SEAL	1262	n/a	n/a	0	0	0
3472658	REC_WORD	wordpools/wasnorm_wordpool_576.txt	LTP385	ltpFR2	14	15	FRIEND	606	n/a	n/a	0	0	0
3474094	REC_WORD	wordpools/wasnorm_wordpool_576.txt	LTP385	ltpFR2	14	15	BOX	159	n/a	n/a	0	0	0
3475267	REC_WORD	wordpools/wasnorm_wordpool_576.txt	LTP385	ltpFR2	14	15	DRUG	501	n/a	n/a	0	0	0
3476555	REC_WORD	wordpools/wasnorm_wordpool_576.txt	LTP385	ltpFR2	14	15	FINGER	567	n/a	n/a	0	0	0
3477916	REC_WORD	wordpools/wasnorm_wordpool_576.txt	LTP385	ltpFR2	14	15	BEAST	108	n/a	n/a	0	0	0
3478984	REC_WORD	wordpools/wasnorm_wordpool_576.txt	LTP385	ltpFR2	14	15	SERVER	1272	n/a	n/a	0	0	0
3480406	REC_WORD	wordpools/wasnorm_wordpool_576.txt	LTP385	ltpFR2	14	15	WAITRESS	1581	n/a	n/a	0	0	0
3537060	DISTRACTOR	n/a	LTP385	ltpFR2	14	16	n/a	n/a	n/a	n/a	0	0	0
3537060	START	n/a	LTP385	ltpFR2	14	n/a	n/a	n/a	24	n/a	n/a	n/a	n/a
3537076	PROB	n/a	LTP385	ltpFR2	14	n/a	n/a	n/a	24	12	6	3	3
3539182	PROB	n/a	LTP385	ltpFR2	14	n/a	n/a	n/a	24	10	2	4	4
3541556	PROB	n/a	LTP385	ltpFR2	14	n/a	n/a	n/a	24	13	1	7	5
3543352	PROB	n/a	LTP385	ltpFR2	14	n/a	n/a	n/a	24	16	4	8	4
3545816	PROB	n/a	LTP385	ltpFR2	14	n/a	n/a	n/a	24	13	3	9	1
3547939	PROB	n/a	LTP385	ltpFR2	14	n/a	n/a	n/a	24	13	3	1	9
3549586	PROB	n/a	LTP385	ltpFR2	14	n/a	n/a	n/a	24	7	2	3	2
3552410	PROB	n/a	LTP385	ltpFR2	14	n/a	n/a	n/a	24	15	9	2	4
3554339	PROB	n/a	LTP385	ltpFR2	14	n/a	n/a	n/a	24	14	8	4	4
3557021	PROB	n/a	LTP385	ltpFR2	14	n/a	n/a	n/a	24	20	8	3	9
3560465	STOP	n/a	LTP385	ltpFR2	14	n/a	n/a	n/a	24	n/a	n/a	n/a	n/a
3562018	WORD	wordpools/wasnorm_wordpool_576.txt	LTP385	ltpFR2	14	16	DIME	466	n/a	n/a	0	0	0
3564509	WORD	wordpools/wasnorm_wordpool_576.txt	LTP385	ltpFR2	14	16	THREAD	1460	n/a	n/a	0	0	0
3567308	WORD	wordpools/wasnorm_wordpool_576.txt	LTP385	ltpFR2	14	16	RUST	1219	n/a	n/a	0	0	0
3569823	WORD	wordpools/wasnorm_wordpool_576.txt	LTP385	ltpFR2	14	16	FUNGUS	614	n/a	n/a	0	0	0
3572539	WORD	wordpools/wasnorm_wordpool_576.txt	LTP385	ltpFR2	14	16	JURY	766	n/a	n/a	0	0	0
3575212	WORD	wordpools/wasnorm_wordpool_576.txt	LTP385	ltpFR2	14	16	CYCLONE	431	n/a	n/a	0	0	0
3577652	WORD	wordpools/wasnorm_wordpool_576.txt	LTP385	ltpFR2	14	16	SPOOL	1356	n/a	n/a	0	0	0
3580326	WORD	wordpools/wasnorm_wordpool_576.txt	LTP385	ltpFR2	14	16	BUTCHER	203	n/a	n/a	0	0	0
3583100	WORD	wordpools/wasnorm_wordpool_576.txt	LTP385	ltpFR2	14	16	HORNET	718	n/a	n/a	0	0	0
3585757	WORD	wordpools/wasnorm_wordpool_576.txt	LTP385	ltpFR2	14	16	LEG	809	n/a	n/a	0	0	0
3588357	WORD	wordpools/wasnorm_wordpool_576.txt	LTP385	ltpFR2	14	16	COBRA	336	n/a	n/a	0	0	0
3591030	WORD	wordpools/wasnorm_wordpool_576.txt	LTP385	ltpFR2	14	16	KNIFE	785	n/a	n/a	0	0	0
3593487	WORD	wordpools/wasnorm_wordpool_576.txt	LTP385	ltpFR2	14	16	MISSILE	900	n/a	n/a	0	0	0
3596185	WORD	wordpools/wasnorm_wordpool_576.txt	LTP385	ltpFR2	14	16	SCALPEL	1243	n/a	n/a	0	0	0
3598876	WORD	wordpools/wasnorm_wordpool_576.txt	LTP385	ltpFR2	14	16	PLASTER	1085	n/a	n/a	0	0	0
3601359	WORD	wordpools/wasnorm_wordpool_576.txt	LTP385	ltpFR2	14	16	BRICK	172	n/a	n/a	0	0	0
3603914	WORD	wordpools/wasnorm_wordpool_576.txt	LTP385	ltpFR2	14	16	BOYFRIEND	162	n/a	n/a	0	0	0
3606338	WORD	wordpools/wasnorm_wordpool_576.txt	LTP385	ltpFR2	14	16	HEART	697	n/a	n/a	0	0	0
3609012	WORD	wordpools/wasnorm_wordpool_576.txt	LTP385	ltpFR2	14	16	CHURCH	307	n/a	n/a	0	0	0
3611752	WORD	wordpools/wasnorm_wordpool_576.txt	LTP385	ltpFR2	14	16	CHAPEL	280	n/a	n/a	0	0	0
3614552	WORD	wordpools/wasnorm_wordpool_576.txt	LTP385	ltpFR2	14	16	DANDRUFF	439	n/a	n/a	0	0	0
3617352	WORD	wordpools/wasnorm_wordpool_576.txt	LTP385	ltpFR2	14	16	LABEL	790	n/a	n/a	0	0	0
3619966	WORD	wordpools/wasnorm_wordpool_576.txt	LTP385	ltpFR2	14	16	SHORTCAKE	1292	n/a	n/a	0	0	0
3622723	WORD	wordpools/wasnorm_wordpool_576.txt	LTP385	ltpFR2	14	16	RAZOR	1171	n/a	n/a	0	0	0
3624328	START	n/a	LTP385	ltpFR2	14	n/a	n/a	n/a	25	n/a	n/a	n/a	n/a
3625251	DISTRACTOR	n/a	LTP385	ltpFR2	14	16	n/a	n/a	n/a	n/a	0	0	0
3625255	PROB	n/a	LTP385	ltpFR2	14	n/a	n/a	n/a	25	20	6	7	7
3630077	PROB	n/a	LTP385	ltpFR2	14	n/a	n/a	n/a	25	14	3	8	3
3632700	PROB	n/a	LTP385	ltpFR2	14	n/a	n/a	n/a	25	6	2	2	2
3633937	PROB	n/a	LTP385	ltpFR2	14	n/a	n/a	n/a	25	15	9	3	3
3635692	PROB	n/a	LTP385	ltpFR2	14	n/a	n/a	n/a	25	20	7	6	7
3638040	PROB	n/a	LTP385	ltpFR2	14	n/a	n/a	n/a	25	10	7	1	2
3639786	PROB	n/a	LTP385	ltpFR2	14	n/a	n/a	n/a	25	23	9	5	9
3648327	STOP	n/a	LTP385	ltpFR2	14	n/a	n/a	n/a	25	n/a	n/a	n/a	n/a
3650165	REC_START	n/a	LTP385	ltpFR2	14	16	n/a	n/a	n/a	n/a	0	0	0
3651125	REC_WORD	wordpools/wasnorm_wordpool_576.txt	LTP385	ltpFR2	14	16	RAZOR	1171	n/a	n/a	0	0	0
3652814	REC_WORD	wordpools/wasnorm_wordpool_576.txt	LTP385	ltpFR2	14	16	PLASTER	1085	n/a	n/a	0	0	0
3654995	REC_WORD	wordpools/wasnorm_wordpool_576.txt	LTP385	ltpFR2	14	16	BOYFRIEND	162	n/a	n/a	0	0	0
3655653	REC_WORD	wordpools/wasnorm_wordpool_576.txt	LTP385	ltpFR2	14	16	HEART	697	n/a	n/a	0	0	0
3661589	REC_WORD	wordpools/wasnorm_wordpool_576.txt	LTP385	ltpFR2	14	16	WALL	1582	n/a	n/a	0	0	0
3662998	REC_WORD	wordpools/wasnorm_wordpool_576.txt	LTP385	ltpFR2	14	16	BRICK	172	n/a	n/a	0	0	0
3664511	REC_WORD	wordpools/wasnorm_wordpool_576.txt	LTP385	ltpFR2	14	16	CHURCH	307	n/a	n/a	0	0	0
3665655	REC_WORD	wordpools/wasnorm_wordpool_576.txt	LTP385	ltpFR2	14	16	CHAPEL	280	n/a	n/a	0	0	0
3667552	REC_WORD	wordpools/wasnorm_wordpool_576.txt	LTP385	ltpFR2	14	16	JURY	766	n/a	n/a	0	0	0
3668775	REC_WORD	wordpools/wasnorm_wordpool_576.txt	LTP385	ltpFR2	14	16	THREAD	1460	n/a	n/a	0	0	0
3670308	REC_WORD	wordpools/wasnorm_wordpool_576.txt	LTP385	ltpFR2	14	16	CYCLONE	431	n/a	n/a	0	0	0
3698999	REC_WORD	wordpools/wasnorm_wordpool_576.txt	LTP385	ltpFR2	14	16	RUST	1219	n/a	n/a	0	0	0
3700109	REC_WORD	wordpools/wasnorm_wordpool_576.txt	LTP385	ltpFR2	14	16	MILDEW	893	n/a	n/a	0	0	0
3703132	REC_WORD	wordpools/wasnorm_wordpool_576.txt	LTP385	ltpFR2	14	16	DANDRUFF	439	n/a	n/a	0	0	0
3726695	REST_REWET	n/a	LTP385	ltpFR2	14	16	n/a	n/a	n/a	n/a	0	0	0
3905050	WORD	wordpools/wasnorm_wordpool_576.txt	LTP385	ltpFR2	14	17	TWIG	1527	n/a	n/a	0	0	0
3907516	WORD	wordpools/wasnorm_wordpool_576.txt	LTP385	ltpFR2	14	17	LAMP	798	n/a	n/a	0	0	0
3910298	WORD	wordpools/wasnorm_wordpool_576.txt	LTP385	ltpFR2	14	17	BLOCKADE	137	n/a	n/a	0	0	0
3912855	WORD	wordpools/wasnorm_wordpool_576.txt	LTP385	ltpFR2	14	17	MARINE	869	n/a	n/a	0	0	0
3915421	WORD	wordpools/wasnorm_wordpool_576.txt	LTP385	ltpFR2	14	17	SISTER	1312	n/a	n/a	0	0	0
3918227	WORD	wordpools/wasnorm_wordpool_576.txt	LTP385	ltpFR2	14	17	COWBOY	395	n/a	n/a	0	0	0
3920910	WORD	wordpools/wasnorm_wordpool_576.txt	LTP385	ltpFR2	14	17	DOLPHIN	483	n/a	n/a	0	0	0
3923333	WORD	wordpools/wasnorm_wordpool_576.txt	LTP385	ltpFR2	14	17	SAUSAGE	1238	n/a	n/a	0	0	0
3925932	WORD	wordpools/wasnorm_wordpool_576.txt	LTP385	ltpFR2	14	17	CORAL	378	n/a	n/a	0	0	0
3928389	WORD	wordpools/wasnorm_wordpool_576.txt	LTP385	ltpFR2	14	17	SADDLE	1221	n/a	n/a	0	0	0
3931154	WORD	wordpools/wasnorm_wordpool_576.txt	LTP385	ltpFR2	14	17	ROBBER	1197	n/a	n/a	0	0	0
3933728	WORD	wordpools/wasnorm_wordpool_576.txt	LTP385	ltpFR2	14	17	PLATE	1086	n/a	n/a	0	0	0
3936243	WORD	wordpools/wasnorm_wordpool_576.txt	LTP385	ltpFR2	14	17	COOK	372	n/a	n/a	0	0	0
3939008	WORD	wordpools/wasnorm_wordpool_576.txt	LTP385	ltpFR2	14	17	PARROT	1015	n/a	n/a	0	0	0
3941600	WORD	wordpools/wasnorm_wordpool_576.txt	LTP385	ltpFR2	14	17	SLOPE	1328	n/a	n/a	0	0	0
3944080	WORD	wordpools/wasnorm_wordpool_576.txt	LTP385	ltpFR2	14	17	DIVER	476	n/a	n/a	0	0	0
3946779	WORD	wordpools/wasnorm_wordpool_576.txt	LTP385	ltpFR2	14	17	SALMON	1227	n/a	n/a	0	0	0
3949488	WORD	wordpools/wasnorm_wordpool_576.txt	LTP385	ltpFR2	14	17	RABBIT	1152	n/a	n/a	0	0	0
3951993	WORD	wordpools/wasnorm_wordpool_576.txt	LTP385	ltpFR2	14	17	HIGHWAY	707	n/a	n/a	0	0	0
3954576	WORD	wordpools/wasnorm_wordpool_576.txt	LTP385	ltpFR2	14	17	MILK	895	n/a	n/a	0	0	0
3957199	WORD	wordpools/wasnorm_wordpool_576.txt	LTP385	ltpFR2	14	17	ROD	1203	n/a	n/a	0	0	0
3959881	WORD	wordpools/wasnorm_wordpool_576.txt	LTP385	ltpFR2	14	17	FLASHLIGHT	575	n/a	n/a	0	0	0
3962640	WORD	wordpools/wasnorm_wordpool_576.txt	LTP385	ltpFR2	14	17	HAWK	692	n/a	n/a	0	0	0
3965087	WORD	wordpools/wasnorm_wordpool_576.txt	LTP385	ltpFR2	14	17	EAGLE	512	n/a	n/a	0	0	0
3966692	START	n/a	LTP385	ltpFR2	14	n/a	n/a	n/a	26	n/a	n/a	n/a	n/a
3967842	DISTRACTOR	n/a	LTP385	ltpFR2	14	17	n/a	n/a	n/a	n/a	0	0	0
3967845	PROB	n/a	LTP385	ltpFR2	14	n/a	n/a	n/a	26	9	1	7	1
3969683	PROB	n/a	LTP385	ltpFR2	14	n/a	n/a	n/a	26	14	3	9	2
3971730	PROB	n/a	LTP385	ltpFR2	14	n/a	n/a	n/a	26	14	5	8	1
3974195	PROB	n/a	LTP385	ltpFR2	14	n/a	n/a	n/a	26	11	3	3	5
3976611	PROB	n/a	LTP385	ltpFR2	14	n/a	n/a	n/a	26	16	8	1	7
3978891	PROB	n/a	LTP385	ltpFR2	14	n/a	n/a	n/a	26	9	5	2	2
3980429	PROB	n/a	LTP385	ltpFR2	14	n/a	n/a	n/a	26	15	4	3	8
3982175	PROB	n/a	LTP385	ltpFR2	14	n/a	n/a	n/a	26	15	9	2	4
3984222	PROB	n/a	LTP385	ltpFR2	14	n/a	n/a	n/a	26	7	2	2	3
3987532	PROB	n/a	LTP385	ltpFR2	14	n/a	n/a	n/a	26	19	7	9	3
3990206	STOP	n/a	LTP385	ltpFR2	14	n/a	n/a	n/a	26	n/a	n/a	n/a	n/a
3992521	REC_START	n/a	LTP385	ltpFR2	14	17	n/a	n/a	n/a	n/a	0	0	0
4000716	REC_WORD	wordpools/wasnorm_wordpool_576.txt	LTP385	ltpFR2	14	17	ROD	1203	n/a	n/a	0	0	0
4001598	REC_WORD	wordpools/wasnorm_wordpool_576.txt	LTP385	ltpFR2	14	17	FLASHLIGHT	575	n/a	n/a	0	0	0
4003189	REC_WORD	wordpools/wasnorm_wordpool_576.txt	LTP385	ltpFR2	14	17	LANTERN	-1	n/a	n/a	0	0	0
4004227	REC_WORD	wordpools/wasnorm_wordpool_576.txt	LTP385	ltpFR2	14	17	TWIG	1527	n/a	n/a	0	0	0
4005145	REC_WORD	wordpools/wasnorm_wordpool_576.txt	LTP385	ltpFR2	14	17	BLOCKADE	137	n/a	n/a	0	0	0
4007016	REC_WORD	wordpools/wasnorm_wordpool_576.txt	LTP385	ltpFR2	14	17	HIGHWAY	707	n/a	n/a	0	0	0
4009704	REC_WORD	wordpools/wasnorm_wordpool_576.txt	LTP385	ltpFR2	14	17	MARINE	869	n/a	n/a	0	0	0
4012211	REC_WORD	wordpools/wasnorm_wordpool_576.txt	LTP385	ltpFR2	14	17	BEEF	113	n/a	n/a	0	0	0
4013249	REC_WORD	wordpools/wasnorm_wordpool_576.txt	LTP385	ltpFR2	14	17	PLATE	1086	n/a	n/a	0	0	0
4014722	REC_WORD	wordpools/wasnorm_wordpool_576.txt	LTP385	ltpFR2	14	17	COOK	372	n/a	n/a	0	0	0
4018433	REC_WORD	wordpools/wasnorm_wordpool_576.txt	LTP385	ltpFR2	14	17	PARROT	1015	n/a	n/a	0	0	0
4024485	REC_WORD	wordpools/wasnorm_wordpool_576.txt	LTP385	ltpFR2	14	17	BEAR	106	n/a	n/a	0	0	0
4035355	REC_WORD	wordpools/wasnorm_wordpool_576.txt	LTP385	ltpFR2	14	17	SEAGULL	1261	n/a	n/a	0	0	0
4036641	REC_WORD	wordpools/wasnorm_wordpool_576.txt	LTP385	ltpFR2	14	17	CORAL	378	n/a	n/a	0	0	0
4038494	REC_WORD	wordpools/wasnorm_wordpool_576.txt	LTP385	ltpFR2	14	17	COWBOY	395	n/a	n/a	0	0	0
4039760	REC_WORD	wordpools/wasnorm_wordpool_576.txt	LTP385	ltpFR2	14	17	SAUSAGE	1238	n/a	n/a	0	0	0
4048068	REC_WORD	wordpools/wasnorm_wordpool_576.txt	LTP385	ltpFR2	14	17	DIVER	476	n/a	n/a	0	0	0
4082946	DISTRACTOR	n/a	LTP385	ltpFR2	14	18	n/a	n/a	n/a	n/a	0	0	0
4082946	START	n/a	LTP385	ltpFR2	14	n/a	n/a	n/a	27	n/a	n/a	n/a	n/a
4082963	PROB	n/a	LTP385	ltpFR2	14	n/a	n/a	n/a	27	13	7	2	4
4086330	PROB	n/a	LTP385	ltpFR2	14	n/a	n/a	n/a	27	12	3	1	8
4088143	PROB	n/a	LTP385	ltpFR2	14	n/a	n/a	n/a	27	21	6	6	9
4090684	PROB	n/a	LTP385	ltpFR2	14	n/a	n/a	n/a	27	5	2	1	2
4092581	PROB	n/a	LTP385	ltpFR2	14	n/a	n/a	n/a	27	7	2	3	2
4096542	PROB	n/a	LTP385	ltpFR2	14	n/a	n/a	n/a	27	15	3	9	3
4098489	PROB	n/a	LTP385	ltpFR2	14	n/a	n/a	n/a	27	14	6	2	4
4100995	PROB	n/a	LTP385	ltpFR2	14	n/a	n/a	n/a	27	11	1	7	3
4103944	PROB	n/a	LTP385	ltpFR2	14	n/a	n/a	n/a	27	12	3	1	8
4106322	STOP	n/a	LTP385	ltpFR2	14	n/a	n/a	n/a	27	n/a	n/a	n/a	n/a
4108047	WORD	wordpools/wasnorm_wordpool_576.txt	LTP385	ltpFR2	14	18	RELISH	1183	n/a	n/a	0	0	0
4110630	WORD	wordpools/wasnorm_wordpool_576.txt	LTP385	ltpFR2	14	18	SHIRT	1287	n/a	n/a	0	0	0
4113086	WORD	wordpools/wasnorm_wordpool_576.txt	LTP385	ltpFR2	14	18	OMELET	976	n/a	n/a	0	0	0
4115751	WORD	wordpools/wasnorm_wordpool_576.txt	LTP385	ltpFR2	14	18	JUNGLE	764	n/a	n/a	0	0	0
4118367	WORD	wordpools/wasnorm_wordpool_576.txt	LTP385	ltpFR2	14	18	WIDOW	1608	n/a	n/a	0	0	0
4120798	WORD	wordpools/wasnorm_wordpool_576.txt	LTP385	ltpFR2	14	18	SHOVEL	1295	n/a	n/a	0	0	0
4123506	WORD	wordpools/wasnorm_wordpool_576.txt	LTP385	ltpFR2	14	18	MARSH	874	n/a	n/a	0	0	0
4126121	WORD	wordpools/wasnorm_wordpool_576.txt	LTP385	ltpFR2	14	18	SHRUB	1299	n/a	n/a	0	0	0
4128612	WORD	wordpools/wasnorm_wordpool_576.txt	LTP385	ltpFR2	14	18	PENGUIN	1044	n/a	n/a	0	0	0
4131134	WORD	wordpools/wasnorm_wordpool_576.txt	LTP385	ltpFR2	14	18	HOOK	715	n/a	n/a	0	0	0
4133608	WORD	wordpools/wasnorm_wordpool_576.txt	LTP385	ltpFR2	14	18	BRACES	164	n/a	n/a	0	0	0
4136106	WORD	wordpools/wasnorm_wordpool_576.txt	LTP385	ltpFR2	14	18	MUSTARD	935	n/a	n/a	0	0	0
4138746	WORD	wordpools/wasnorm_wordpool_576.txt	LTP385	ltpFR2	14	18	HONEY	713	n/a	n/a	0	0	0
4141328	WORD	wordpools/wasnorm_wordpool_576.txt	LTP385	ltpFR2	14	18	GRAVE	658	n/a	n/a	0	0	0
4143994	WORD	wordpools/wasnorm_wordpool_576.txt	LTP385	ltpFR2	14	18	COFFEE	341	n/a	n/a	0	0	0
4146734	WORD	wordpools/wasnorm_wordpool_576.txt	LTP385	ltpFR2	14	18	SODA	1341	n/a	n/a	0	0	0
4149376	WORD	wordpools/wasnorm_wordpool_576.txt	LTP385	ltpFR2	14	18	FRANCE	601	n/a	n/a	0	0	0
4151898	WORD	wordpools/wasnorm_wordpool_576.txt	LTP385	ltpFR2	14	18	GARDEN	623	n/a	n/a	0	0	0
4154681	WORD	wordpools/wasnorm_wordpool_576.txt	LTP385	ltpFR2	14	18	DAISY	435	n/a	n/a	0	0	0
4157481	WORD	wordpools/wasnorm_wordpool_576.txt	LTP385	ltpFR2	14	18	MAILMAN	858	n/a	n/a	0	0	0
4159995	WORD	wordpools/wasnorm_wordpool_576.txt	LTP385	ltpFR2	14	18	TRIBE	1505	n/a	n/a	0	0	0
4162719	WORD	wordpools/wasnorm_wordpool_576.txt	LTP385	ltpFR2	14	18	MUFFIN	929	n/a	n/a	0	0	0
4165226	WORD	wordpools/wasnorm_wordpool_576.txt	LTP385	ltpFR2	14	18	GAVEL	627	n/a	n/a	0	0	0
4168009	WORD	wordpools/wasnorm_wordpool_576.txt	LTP385	ltpFR2	14	18	FIDDLE	561	n/a	n/a	0	0	0
4169614	START	n/a	LTP385	ltpFR2	14	n/a	n/a	n/a	28	n/a	n/a	n/a	n/a
4170814	DISTRACTOR	n/a	LTP385	ltpFR2	14	18	n/a	n/a	n/a	n/a	0	0	0
4170816	PROB	n/a	LTP385	ltpFR2	14	n/a	n/a	n/a	28	15	7	6	2
4173599	PROB	n/a	LTP385	ltpFR2	14	n/a	n/a	n/a	28	17	8	2	7
4175754	PROB	n/a	LTP385	ltpFR2	14	n/a	n/a	n/a	28	5	1	4	4
4177910	PROB	n/a	LTP385	ltpFR2	14	n/a	n/a	n/a	28	21	8	9	4
4182365	PROB	n/a	LTP385	ltpFR2	14	n/a	n/a	n/a	28	17	4	4	9
4184762	PROB	n/a	LTP385	ltpFR2	14	n/a	n/a	n/a	28	18	8	4	6
4187904	PROB	n/a	LTP385	ltpFR2	14	n/a	n/a	n/a	28	22	4	9	9
4193613	STOP	n/a	LTP385	ltpFR2	14	n/a	n/a	n/a	28	n/a	n/a	n/a	n/a
4195542	REC_START	n/a	LTP385	ltpFR2	14	18	n/a	n/a	n/a	n/a	0	0	0
4196739	REC_WORD	wordpools/wasnorm_wordpool_576.txt	LTP385	ltpFR2	14	18	GAVEL	627	n/a	n/a	0	0	0
4197671	REC_WORD	wordpools/wasnorm_wordpool_576.txt	LTP385	ltpFR2	14	18	GRAVE	658	n/a	n/a	0	0	0
4199583	REC_WORD	wordpools/wasnorm_wordpool_576.txt	LTP385	ltpFR2	14	18	WIDOW	1608	n/a	n/a	0	0	0
4201345	REC_WORD	wordpools/wasnorm_wordpool_576.txt	LTP385	ltpFR2	14	18	BRACES	164	n/a	n/a	0	0	0
4206322	REC_WORD	wordpools/wasnorm_wordpool_576.txt	LTP385	ltpFR2	14	18	CORAL	378	n/a	n/a	0	0	0
4208359	REC_WORD	wordpools/wasnorm_wordpool_576.txt	LTP385	ltpFR2	14	18	SHRUB	1299	n/a	n/a	0	0	0
4218334	REC_WORD	wordpools/wasnorm_wordpool_576.txt	LTP385	ltpFR2	14	18	JAPAN	749	n/a	n/a	0	0	0
4223227	REC_WORD	wordpools/wasnorm_wordpool_576.txt	LTP385	ltpFR2	14	18	JUNGLE	764	n/a	n/a	0	0	0
4225058	REC_WORD	wordpools/wasnorm_wordpool_576.txt	LTP385	ltpFR2	14	18	OMELET	976	n/a	n/a	0	0	0
4233810	REC_WORD	wordpools/wasnorm_wordpool_576.txt	LTP385	ltpFR2	14	18	MILK	895	n/a	n/a	0	0	0
4244268	REC_WORD	wordpools/wasnorm_wordpool_576.txt	LTP385	ltpFR2	14	18	GARDEN	623	n/a	n/a	0	0	0
4245193	REC_WORD	wordpools/wasnorm_wordpool_576.txt	LTP385	ltpFR2	14	18	DAISY	435	n/a	n/a	0	0	0
4247520	REC_WORD	wordpools/wasnorm_wordpool_576.txt	LTP385	ltpFR2	14	18	VALLEY	1545	n/a	n/a	0	0	0
4286010	DISTRACTOR	n/a	LTP385	ltpFR2	14	19	n/a	n/a	n/a	n/a	0	0	0
4286010	START	n/a	LTP385	ltpFR2	14	n/a	n/a	n/a	29	n/a	n/a	n/a	n/a
4286026	PROB	n/a	LTP385	ltpFR2	14	n/a	n/a	n/a	29	10	5	1	4
4288292	PROB	n/a	LTP385	ltpFR2	14	n/a	n/a	n/a	29	12	6	4	2
4289962	PROB	n/a	LTP385	ltpFR2	14	n/a	n/a	n/a	29	17	4	8	5
4292637	PROB	n/a	LTP385	ltpFR2	14	n/a	n/a	n/a	29	16	6	3	6
4295528	PROB	n/a	LTP385	ltpFR2	14	n/a	n/a	n/a	29	10	7	1	2
4297674	PROB	n/a	LTP385	ltpFR2	14	n/a	n/a	n/a	29	13	2	7	4
4300281	PROB	n/a	LTP385	ltpFR2	14	n/a	n/a	n/a	29	15	4	5	6
4303933	PROB	n/a	LTP385	ltpFR2	14	n/a	n/a	n/a	29	18	9	6	3
4306297	PROB	n/a	LTP385	ltpFR2	14	n/a	n/a	n/a	29	11	6	1	4
4310010	STOP	n/a	LTP385	ltpFR2	14	n/a	n/a	n/a	29	n/a	n/a	n/a	n/a
4311161	WORD	wordpools/wasnorm_wordpool_576.txt	LTP385	ltpFR2	14	19	SCALLOP	1242	n/a	n/a	0	0	0
4313568	WORD	wordpools/wasnorm_wordpool_576.txt	LTP385	ltpFR2	14	19	ATOM	55	n/a	n/a	0	0	0
4316074	WORD	wordpools/wasnorm_wordpool_576.txt	LTP385	ltpFR2	14	19	ANTLER	29	n/a	n/a	0	0	0
4318515	WORD	wordpools/wasnorm_wordpool_576.txt	LTP385	ltpFR2	14	19	CASHEW	253	n/a	n/a	0	0	0
4321021	WORD	wordpools/wasnorm_wordpool_576.txt	LTP385	ltpFR2	14	19	SUNRISE	1407	n/a	n/a	0	0	0
4323587	WORD	wordpools/wasnorm_wordpool_576.txt	LTP385	ltpFR2	14	19	BUBBLE	183	n/a	n/a	0	0	0
4326017	WORD	wordpools/wasnorm_wordpool_576.txt	LTP385	ltpFR2	14	19	DRESSER	496	n/a	n/a	0	0	0
4328674	WORD	wordpools/wasnorm_wordpool_576.txt	LTP385	ltpFR2	14	19	CHEST	295	n/a	n/a	0	0	0
4331089	WORD	wordpools/wasnorm_wordpool_576.txt	LTP385	ltpFR2	14	19	TUBA	1515	n/a	n/a	0	0	0
4333863	WORD	wordpools/wasnorm_wordpool_576.txt	LTP385	ltpFR2	14	19	BATHTUB	100	n/a	n/a	0	0	0
4336328	WORD	wordpools/wasnorm_wordpool_576.txt	LTP385	ltpFR2	14	19	GAZELLE	628	n/a	n/a	0	0	0
4338985	WORD	wordpools/wasnorm_wordpool_576.txt	LTP385	ltpFR2	14	19	LION	827	n/a	n/a	0	0	0
4341651	WORD	wordpools/wasnorm_wordpool_576.txt	LTP385	ltpFR2	14	19	SMOG	1330	n/a	n/a	0	0	0
4344409	WORD	wordpools/wasnorm_wordpool_576.txt	LTP385	ltpFR2	14	19	BANJO	82	n/a	n/a	0	0	0
4347015	WORD	wordpools/wasnorm_wordpool_576.txt	LTP385	ltpFR2	14	19	FLUTE	585	n/a	n/a	0	0	0
4349748	WORD	wordpools/wasnorm_wordpool_576.txt	LTP385	ltpFR2	14	19	BUNNY	198	n/a	n/a	0	0	0
4352531	WORD	wordpools/wasnorm_wordpool_576.txt	LTP385	ltpFR2	14	19	GOBLIN	645	n/a	n/a	0	0	0
4355288	WORD	wordpools/wasnorm_wordpool_576.txt	LTP385	ltpFR2	14	19	GIFT	635	n/a	n/a	0	0	0
4357987	WORD	wordpools/wasnorm_wordpool_576.txt	LTP385	ltpFR2	14	19	PIGMENT	1066	n/a	n/a	0	0	0
4360494	WORD	wordpools/wasnorm_wordpool_576.txt	LTP385	ltpFR2	14	19	AUTHOR	61	n/a	n/a	0	0	0
4362975	WORD	wordpools/wasnorm_wordpool_576.txt	LTP385	ltpFR2	14	19	PLIERS	1089	n/a	n/a	0	0	0
4365441	WORD	wordpools/wasnorm_wordpool_576.txt	LTP385	ltpFR2	14	19	SPHINX	1349	n/a	n/a	0	0	0
4368097	WORD	wordpools/wasnorm_wordpool_576.txt	LTP385	ltpFR2	14	19	BRANDY	169	n/a	n/a	0	0	0
4370746	WORD	wordpools/wasnorm_wordpool_576.txt	LTP385	ltpFR2	14	19	GRAPE	654	n/a	n/a	0	0	0
4372352	START	n/a	LTP385	ltpFR2	14	n/a	n/a	n/a	30	n/a	n/a	n/a	n/a
4373425	DISTRACTOR	n/a	LTP385	ltpFR2	14	19	n/a	n/a	n/a	n/a	0	0	0
4373429	PROB	n/a	LTP385	ltpFR2	14	n/a	n/a	n/a	30	9	1	1	7
4375552	PROB	n/a	LTP385	ltpFR2	14	n/a	n/a	n/a	30	17	2	9	6
4378585	PROB	n/a	LTP385	ltpFR2	14	n/a	n/a	n/a	30	9	6	1	2
4381501	PROB	n/a	LTP385	ltpFR2	14	n/a	n/a	n/a	30	17	6	4	7
4383255	PROB	n/a	LTP385	ltpFR2	14	n/a	n/a	n/a	30	12	3	4	5
4385252	PROB	n/a	LTP385	ltpFR2	14	n/a	n/a	n/a	30	12	5	2	5
4387332	PROB	n/a	LTP385	ltpFR2	14	n/a	n/a	n/a	30	17	5	5	7
4389731	PROB	n/a	LTP385	ltpFR2	14	n/a	n/a	n/a	30	10	6	1	2
4391903	PROB	n/a	LTP385	ltpFR2	14	n/a	n/a	n/a	30	13	2	7	4
4395035	STOP	n/a	LTP385	ltpFR2	14	n/a	n/a	n/a	30	n/a	n/a	n/a	n/a
4398187	REC_START	n/a	LTP385	ltpFR2	14	19	n/a	n/a	n/a	n/a	0	0	0
4399430	REC_WORD	wordpools/wasnorm_wordpool_576.txt	LTP385	ltpFR2	14	19	BRANDY	169	n/a	n/a	0	0	0
4400519	REC_WORD	wordpools/wasnorm_wordpool_576.txt	LTP385	ltpFR2	14	19	GRAPE	654	n/a	n/a	0	0	0
4401587	REC_WORD	wordpools/wasnorm_wordpool_576.txt	LTP385	ltpFR2	14	19	ANTLER	29	n/a	n/a	0	0	0
4402741	REC_WORD	wordpools/wasnorm_wordpool_576.txt	LTP385	ltpFR2	14	19	SCALLOP	1242	n/a	n/a	0	0	0
4406555	REC_WORD	wordpools/wasnorm_wordpool_576.txt	LTP385	ltpFR2	14	19	CHEST	295	n/a	n/a	0	0	0
4407937	REC_WORD	wordpools/wasnorm_wordpool_576.txt	LTP385	ltpFR2	14	19	BUBBLE	183	n/a	n/a	0	0	0
4488631	WORD	wordpools/wasnorm_wordpool_576.txt	LTP385	ltpFR2	14	20	POSTAGE	1113	n/a	n/a	0	0	0
4491296	WORD	wordpools/wasnorm_wordpool_576.txt	LTP385	ltpFR2	14	20	MAILBOX	857	n/a	n/a	0	0	0
4493928	WORD	wordpools/wasnorm_wordpool_576.txt	LTP385	ltpFR2	14	20	WAGON	1578	n/a	n/a	0	0	0
4496486	WORD	wordpools/wasnorm_wordpool_576.txt	LTP385	ltpFR2	14	20	ACTOR	5	n/a	n/a	0	0	0
4499159	WORD	wordpools/wasnorm_wordpool_576.txt	LTP385	ltpFR2	14	20	STALLION	1369	n/a	n/a	0	0	0
4501591	WORD	wordpools/wasnorm_wordpool_576.txt	LTP385	ltpFR2	14	20	COURSE	390	n/a	n/a	0	0	0
4504357	WORD	wordpools/wasnorm_wordpool_576.txt	LTP385	ltpFR2	14	20	SERVANT	1271	n/a	n/a	0	0	0
4506996	WORD	wordpools/wasnorm_wordpool_576.txt	LTP385	ltpFR2	14	20	ZEBRA	1635	n/a	n/a	0	0	0
4509796	WORD	wordpools/wasnorm_wordpool_576.txt	LTP385	ltpFR2	14	20	KITCHEN	778	n/a	n/a	0	0	0
4512344	WORD	wordpools/wasnorm_wordpool_576.txt	LTP385	ltpFR2	14	20	PASTRY	1022	n/a	n/a	0	0	0
4515035	WORD	wordpools/wasnorm_wordpool_576.txt	LTP385	ltpFR2	14	20	PRIMATE	1123	n/a	n/a	0	0	0
4517834	WORD	wordpools/wasnorm_wordpool_576.txt	LTP385	ltpFR2	14	20	SNACK	1331	n/a	n/a	0	0	0
4520601	WORD	wordpools/wasnorm_wordpool_576.txt	LTP385	ltpFR2	14	20	BANQUET	86	n/a	n/a	0	0	0
4523290	WORD	wordpools/wasnorm_wordpool_576.txt	LTP385	ltpFR2	14	20	BARREL	91	n/a	n/a	0	0	0
4525881	WORD	wordpools/wasnorm_wordpool_576.txt	LTP385	ltpFR2	14	20	CHAMPAGNE	278	n/a	n/a	0	0	0
4528505	WORD	wordpools/wasnorm_wordpool_576.txt	LTP385	ltpFR2	14	20	STAR	1373	n/a	n/a	0	0	0
4531103	WORD	wordpools/wasnorm_wordpool_576.txt	LTP385	ltpFR2	14	20	VAGRANT	1544	n/a	n/a	0	0	0
4533602	WORD	wordpools/wasnorm_wordpool_576.txt	LTP385	ltpFR2	14	20	CANDY	230	n/a	n/a	0	0	0
4536309	WORD	wordpools/wasnorm_wordpool_576.txt	LTP385	ltpFR2	14	20	BLOUSE	139	n/a	n/a	0	0	0
4539091	WORD	wordpools/wasnorm_wordpool_576.txt	LTP385	ltpFR2	14	20	BROOK	177	n/a	n/a	0	0	0
4541840	WORD	wordpools/wasnorm_wordpool_576.txt	LTP385	ltpFR2	14	20	GRILL	661	n/a	n/a	0	0	0
4544305	WORD	wordpools/wasnorm_wordpool_576.txt	LTP385	ltpFR2	14	20	COLLEGE	346	n/a	n/a	0	0	0
4547046	WORD	wordpools/wasnorm_wordpool_576.txt	LTP385	ltpFR2	14	20	AWARD	63	n/a	n/a	0	0	0
4549570	WORD	wordpools/wasnorm_wordpool_576.txt	LTP385	ltpFR2	14	20	TRENCH	1503	n/a	n/a	0	0	0
4551174	START	n/a	LTP385	ltpFR2	14	n/a	n/a	n/a	31	n/a	n/a	n/a	n/a
4552285	DISTRACTOR	n/a	LTP385	ltpFR2	14	20	n/a	n/a	n/a	n/a	0	0	0
4552293	PROB	n/a	LTP385	ltpFR2	14	n/a	n/a	n/a	31	16	7	6	3
4555184	PROB	n/a	LTP385	ltpFR2	14	n/a	n/a	n/a	31	13	6	3	4
4558811	PROB	n/a	LTP385	ltpFR2	14	n/a	n/a	n/a	31	13	6	6	1
4560683	PROB	n/a	LTP385	ltpFR2	14	n/a	n/a	n/a	31	16	6	5	5
4562212	PROB	n/a	LTP385	ltpFR2	14	n/a	n/a	n/a	31	13	9	2	2
4564777	PROB	n/a	LTP385	ltpFR2	14	n/a	n/a	n/a	31	16	1	8	7
4567175	PROB	n/a	LTP385	ltpFR2	14	n/a	n/a	n/a	31	8	3	3	2
4569013	PROB	n/a	LTP385	ltpFR2	14	n/a	n/a	n/a	31	16	9	1	6
4571737	PROB	n/a	LTP385	ltpFR2	14	n/a	n/a	n/a	31	11	1	8	2
4573905	STOP	n/a	LTP385	ltpFR2	14	n/a	n/a	n/a	31	n/a	n/a	n/a	n/a
4577027	REC_START	n/a	LTP385	ltpFR2	14	20	n/a	n/a	n/a	n/a	0	0	0
4577753	REC_WORD	wordpools/wasnorm_wordpool_576.txt	LTP385	ltpFR2	14	20	COLLEGE	346	n/a	n/a	0	0	0
4578393	REC_WORD	wordpools/wasnorm_wordpool_576.txt	LTP385	ltpFR2	14	20	AWARD	63	n/a	n/a	0	0	0
4579418	REC_WORD	wordpools/wasnorm_wordpool_576.txt	LTP385	ltpFR2	14	20	TRENCH	1503	n/a	n/a	0	0	0
4581014	REC_WORD	wordpools/wasnorm_wordpool_576.txt	LTP385	ltpFR2	14	20	PACKAGE	997	n/a	n/a	0	0	0
4581947	REC_WORD	wordpools/wasnorm_wordpool_576.txt	LTP385	ltpFR2	14	20	POSTAGE	1113	n/a	n/a	0	0	0
4585569	REC_WORD	wordpools/wasnorm_wordpool_576.txt	LTP385	ltpFR2	14	20	VOLUNTEER	1577	n/a	n/a	0	0	0
4587230	REC_WORD	wordpools/wasnorm_wordpool_576.txt	LTP385	ltpFR2	14	20	ZEBRA	1635	n/a	n/a	0	0	0
4589898	REC_WORD	wordpools/wasnorm_wordpool_576.txt	LTP385	ltpFR2	14	20	HORSE	719	n/a	n/a	0	0	0
4592279	REC_WORD	wordpools/wasnorm_wordpool_576.txt	LTP385	ltpFR2	14	20	CARRIAGE	248	n/a	n/a	0	0	0
4594027	REC_WORD	wordpools/wasnorm_wordpool_576.txt	LTP385	ltpFR2	14	20	GALLON	618	n/a	n/a	0	0	0
4594567	REC_WORD	wordpools/wasnorm_wordpool_576.txt	LTP385	ltpFR2	14	20	CHAMPAGNE	278	n/a	n/a	0	0	0
4597446	REC_WORD	wordpools/wasnorm_wordpool_576.txt	LTP385	ltpFR2	14	20	SNACK	1331	n/a	n/a	0	0	0
4600321	REC_WORD	wordpools/wasnorm_wordpool_576.txt	LTP385	ltpFR2	14	20	VAGRANT	1544	n/a	n/a	0	0	0
4601430	REC_WORD	wordpools/wasnorm_wordpool_576.txt	LTP385	ltpFR2	14	20	CANDY	230	n/a	n/a	0	0	0
4604940	REC_WORD	wordpools/wasnorm_wordpool_576.txt	LTP385	ltpFR2	14	20	MAILMAN	858	n/a	n/a	0	0	0
4606188	REC_WORD	wordpools/wasnorm_wordpool_576.txt	LTP385	ltpFR2	14	20	KITCHEN	778	n/a	n/a	0	0	0
4610791	REC_WORD	wordpools/wasnorm_wordpool_576.txt	LTP385	ltpFR2	14	20	BANQUET	86	n/a	n/a	0	0	0
4667463	WORD	wordpools/wasnorm_wordpool_576.txt	LTP385	ltpFR2	14	21	PAIL	1002	n/a	n/a	0	0	0
4669885	WORD	wordpools/wasnorm_wordpool_576.txt	LTP385	ltpFR2	14	21	HATCHET	691	n/a	n/a	0	0	0
4672368	WORD	wordpools/wasnorm_wordpool_576.txt	LTP385	ltpFR2	14	21	DONOR	485	n/a	n/a	0	0	0
4674907	WORD	wordpools/wasnorm_wordpool_576.txt	LTP385	ltpFR2	14	21	FLESH	579	n/a	n/a	0	0	0
4677456	WORD	wordpools/wasnorm_wordpool_576.txt	LTP385	ltpFR2	14	21	WAITRESS	1581	n/a	n/a	0	0	0
4680138	WORD	wordpools/wasnorm_wordpool_576.txt	LTP385	ltpFR2	14	21	LIZARD	834	n/a	n/a	0	0	0
4682669	WORD	wordpools/wasnorm_wordpool_576.txt	LTP385	ltpFR2	14	21	CLAM	315	n/a	n/a	0	0	0
4685285	WORD	wordpools/wasnorm_wordpool_576.txt	LTP385	ltpFR2	14	21	HOSTESS	723	n/a	n/a	0	0	0
4687967	WORD	wordpools/wasnorm_wordpool_576.txt	LTP385	ltpFR2	14	21	SKETCH	1315	n/a	n/a	0	0	0
4690475	WORD	wordpools/wasnorm_wordpool_576.txt	LTP385	ltpFR2	14	21	PARSLEY	1016	n/a	n/a	0	0	0
4693265	WORD	wordpools/wasnorm_wordpool_576.txt	LTP385	ltpFR2	14	21	COCKTAIL	338	n/a	n/a	0	0	0
4695729	WORD	wordpools/wasnorm_wordpool_576.txt	LTP385	ltpFR2	14	21	DRINK	498	n/a	n/a	0	0	0
4698530	WORD	wordpools/wasnorm_wordpool_576.txt	LTP385	ltpFR2	14	21	MACHINE	852	n/a	n/a	0	0	0
4700952	WORD	wordpools/wasnorm_wordpool_576.txt	LTP385	ltpFR2	14	21	CLAMP	316	n/a	n/a	0	0	0
4703760	WORD	wordpools/wasnorm_wordpool_576.txt	LTP385	ltpFR2	14	21	COUSIN	392	n/a	n/a	0	0	0
4706174	WORD	wordpools/wasnorm_wordpool_576.txt	LTP385	ltpFR2	14	21	PARTNER	1017	n/a	n/a	0	0	0
4708715	WORD	wordpools/wasnorm_wordpool_576.txt	LTP385	ltpFR2	14	21	FRAME	600	n/a	n/a	0	0	0
4711506	WORD	wordpools/wasnorm_wordpool_576.txt	LTP385	ltpFR2	14	21	POISON	1096	n/a	n/a	0	0	0
4714196	WORD	wordpools/wasnorm_wordpool_576.txt	LTP385	ltpFR2	14	21	DRAGON	492	n/a	n/a	0	0	0
4716686	WORD	wordpools/wasnorm_wordpool_576.txt	LTP385	ltpFR2	14	21	QUAIL	1147	n/a	n/a	0	0	0
4719495	WORD	wordpools/wasnorm_wordpool_576.txt	LTP385	ltpFR2	14	21	PEBBLE	1035	n/a	n/a	0	0	0
4721934	WORD	wordpools/wasnorm_wordpool_576.txt	LTP385	ltpFR2	14	21	CARROT	249	n/a	n/a	0	0	0
4724633	WORD	wordpools/wasnorm_wordpool_576.txt	LTP385	ltpFR2	14	21	TROMBONE	1508	n/a	n/a	0	0	0
4727290	WORD	wordpools/wasnorm_wordpool_576.txt	LTP385	ltpFR2	14	21	HARP	689	n/a	n/a	0	0	0
4728894	START	n/a	LTP385	ltpFR2	14	n/a	n/a	n/a	32	n/a	n/a	n/a	n/a
4730067	DISTRACTOR	n/a	LTP385	ltpFR2	14	21	n/a	n/a	n/a	n/a	0	0	0
4730072	PROB	n/a	LTP385	ltpFR2	14	n/a	n/a	n/a	32	13	1	3	9
4733974	PROB	n/a	LTP385	ltpFR2	14	n/a	n/a	n/a	32	13	5	2	6
4736673	PROB	n/a	LTP385	ltpFR2	14	n/a	n/a	n/a	32	17	1	7	9
4739790	PROB	n/a	LTP385	ltpFR2	14	n/a	n/a	n/a	32	11	1	2	8
4741720	PROB	n/a	LTP385	ltpFR2	14	n/a	n/a	n/a	32	14	5	2	7
4743859	PROB	n/a	LTP385	ltpFR2	14	n/a	n/a	n/a	32	14	6	7	1
4746576	PROB	n/a	LTP385	ltpFR2	14	n/a	n/a	n/a	32	24	9	9	6
4750895	PROB	n/a	LTP385	ltpFR2	14	n/a	n/a	n/a	32	14	5	5	4
4752294	STOP	n/a	LTP385	ltpFR2	14	n/a	n/a	n/a	32	n/a	n/a	n/a	n/a
4754672	REC_START	n/a	LTP385	ltpFR2	14	21	n/a	n/a	n/a	n/a	0	0	0
4755704	REC_WORD	wordpools/wasnorm_wordpool_576.txt	LTP385	ltpFR2	14	21	TROMBONE	1508	n/a	n/a	0	0	0
4756474	REC_WORD	wordpools/wasnorm_wordpool_576.txt	LTP385	ltpFR2	14	21	HARP	689	n/a	n/a	0	0	0
4759187	REC_WORD	wordpools/wasnorm_wordpool_576.txt	LTP385	ltpFR2	14	21	FLESH	579	n/a	n/a	0	0	0
4760801	REC_WORD	wordpools/wasnorm_wordpool_576.txt	LTP385	ltpFR2	14	21	DONOR	485	n/a	n/a	0	0	0
4762753	REC_WORD	wordpools/wasnorm_wordpool_576.txt	LTP385	ltpFR2	14	21	LIZARD	834	n/a	n/a	0	0	0
4764037	REC_WORD	wordpools/wasnorm_wordpool_576.txt	LTP385	ltpFR2	14	21	PAIL	1002	n/a	n/a	0	0	0
4767755	REC_WORD	wordpools/wasnorm_wordpool_576.txt	LTP385	ltpFR2	14	21	WAITER	1580	n/a	n/a	0	0	0
4768971	REC_WORD	wordpools/wasnorm_wordpool_576.txt	LTP385	ltpFR2	14	21	COUSIN	392	n/a	n/a	0	0	0
4770440	REC_WORD	wordpools/wasnorm_wordpool_576.txt	LTP385	ltpFR2	14	21	PARTNER	1017	n/a	n/a	0	0	0
4772074	REC_WORD	wordpools/wasnorm_wordpool_576.txt	LTP385	ltpFR2	14	21	CALM	-1	n/a	n/a	0	0	0
4773680	REC_WORD	wordpools/wasnorm_wordpool_576.txt	LTP385	ltpFR2	14	21	POISON	1096	n/a	n/a	0	0	0
4794531	REC_WORD	wordpools/wasnorm_wordpool_576.txt	LTP385	ltpFR2	14	21	DRINK	498	n/a	n/a	0	0	0
4795346	REC_WORD	wordpools/wasnorm_wordpool_576.txt	LTP385	ltpFR2	14	21	COCKTAIL	338	n/a	n/a	0	0	0
4796997	REC_WORD	wordpools/wasnorm_wordpool_576.txt	LTP385	ltpFR2	14	21	MACHINE	852	n/a	n/a	0	0	0
4799145	REC_WORD	wordpools/wasnorm_wordpool_576.txt	LTP385	ltpFR2	14	21	CLAMP	316	n/a	n/a	0	0	0
4845107	WORD	wordpools/wasnorm_wordpool_576.txt	LTP385	ltpFR2	14	22	BRAKE	166	n/a	n/a	0	0	0
4847889	WORD	wordpools/wasnorm_wordpool_576.txt	LTP385	ltpFR2	14	22	CUPBOARD	425	n/a	n/a	0	0	0
4850321	WORD	wordpools/wasnorm_wordpool_576.txt	LTP385	ltpFR2	14	22	OX	994	n/a	n/a	0	0	0
4852727	WORD	wordpools/wasnorm_wordpool_576.txt	LTP385	ltpFR2	14	22	DORM	488	n/a	n/a	0	0	0
4855511	WORD	wordpools/wasnorm_wordpool_576.txt	LTP385	ltpFR2	14	22	MONEY	908	n/a	n/a	0	0	0
4858217	WORD	wordpools/wasnorm_wordpool_576.txt	LTP385	ltpFR2	14	22	SIDEWALK	1303	n/a	n/a	0	0	0
4860808	WORD	wordpools/wasnorm_wordpool_576.txt	LTP385	ltpFR2	14	22	CLOTHES	327	n/a	n/a	0	0	0
4863583	WORD	wordpools/wasnorm_wordpool_576.txt	LTP385	ltpFR2	14	22	CATTLE	261	n/a	n/a	0	0	0
4866214	WORD	wordpools/wasnorm_wordpool_576.txt	LTP385	ltpFR2	14	22	YARN	1631	n/a	n/a	0	0	0
4868804	WORD	wordpools/wasnorm_wordpool_576.txt	LTP385	ltpFR2	14	22	LAPEL	800	n/a	n/a	0	0	0
4871336	WORD	wordpools/wasnorm_wordpool_576.txt	LTP385	ltpFR2	14	22	BINDER	127	n/a	n/a	0	0	0
4873976	WORD	wordpools/wasnorm_wordpool_576.txt	LTP385	ltpFR2	14	22	JOURNAL	760	n/a	n/a	0	0	0
4876684	WORD	wordpools/wasnorm_wordpool_576.txt	LTP385	ltpFR2	14	22	CLOCK	325	n/a	n/a	0	0	0
4879098	WORD	wordpools/wasnorm_wordpool_576.txt	LTP385	ltpFR2	14	22	STOMACH	1384	n/a	n/a	0	0	0
4881864	WORD	wordpools/wasnorm_wordpool_576.txt	LTP385	ltpFR2	14	22	DANCER	437	n/a	n/a	0	0	0
4884655	WORD	wordpools/wasnorm_wordpool_576.txt	LTP385	ltpFR2	14	22	SWORD	1423	n/a	n/a	0	0	0
4887430	WORD	wordpools/wasnorm_wordpool_576.txt	LTP385	ltpFR2	14	22	TAXI	1438	n/a	n/a	0	0	0
4890078	WORD	wordpools/wasnorm_wordpool_576.txt	LTP385	ltpFR2	14	22	PLAYGROUND	1087	n/a	n/a	0	0	0
4892810	WORD	wordpools/wasnorm_wordpool_576.txt	LTP385	ltpFR2	14	22	OZONE	996	n/a	n/a	0	0	0
4895292	WORD	wordpools/wasnorm_wordpool_576.txt	LTP385	ltpFR2	14	22	COSTUME	383	n/a	n/a	0	0	0
4897824	WORD	wordpools/wasnorm_wordpool_576.txt	LTP385	ltpFR2	14	22	MEAT	883	n/a	n/a	0	0	0
4900599	WORD	wordpools/wasnorm_wordpool_576.txt	LTP385	ltpFR2	14	22	TURKEY	1520	n/a	n/a	0	0	0
4903130	WORD	wordpools/wasnorm_wordpool_576.txt	LTP385	ltpFR2	14	22	TUNNEL	1519	n/a	n/a	0	0	0
4905845	WORD	wordpools/wasnorm_wordpool_576.txt	LTP385	ltpFR2	14	22	GYMNAST	675	n/a	n/a	0	0	0
4907451	START	n/a	LTP385	ltpFR2	14	n/a	n/a	n/a	33	n/a	n/a	n/a	n/a
4908303	DISTRACTOR	n/a	LTP385	ltpFR2	14	22	n/a	n/a	n/a	n/a	0	0	0
4908310	PROB	n/a	LTP385	ltpFR2	14	n/a	n/a	n/a	33	15	3	4	8
4912213	PROB	n/a	LTP385	ltpFR2	14	n/a	n/a	n/a	33	27	9	9	9
4914034	PROB	n/a	LTP385	ltpFR2	14	n/a	n/a	n/a	33	11	5	2	4
4918672	PROB	n/a	LTP385	ltpFR2	14	n/a	n/a	n/a	33	19	9	3	7
4922958	PROB	n/a	LTP385	ltpFR2	14	n/a	n/a	n/a	33	13	7	5	1
4924955	PROB	n/a	LTP385	ltpFR2	14	n/a	n/a	n/a	33	12	9	2	1
4928966	PROB	n/a	LTP385	ltpFR2	14	n/a	n/a	n/a	33	16	6	5	5
4931260	STOP	n/a	LTP385	ltpFR2	14	n/a	n/a	n/a	33	n/a	n/a	n/a	n/a
4933303	REC_START	n/a	LTP385	ltpFR2	14	22	n/a	n/a	n/a	n/a	0	0	0
4937181	REC_WORD	wordpools/wasnorm_wordpool_576.txt	LTP385	ltpFR2	14	22	QUAIL	1147	n/a	n/a	0	0	0
4939943	REC_WORD	wordpools/wasnorm_wordpool_576.txt	LTP385	ltpFR2	14	22	OX	994	n/a	n/a	0	0	0
4941134	REC_WORD	wordpools/wasnorm_wordpool_576.txt	LTP385	ltpFR2	14	22	CUPBOARD	425	n/a	n/a	0	0	0
4942285	REC_WORD	wordpools/wasnorm_wordpool_576.txt	LTP385	ltpFR2	14	22	TUNNEL	1519	n/a	n/a	0	0	0
4943330	REC_WORD	wordpools/wasnorm_wordpool_576.txt	LTP385	ltpFR2	14	22	GYMNAST	675	n/a	n/a	0	0	0
4945076	REC_WORD	wordpools/wasnorm_wordpool_576.txt	LTP385	ltpFR2	14	22	PLAYGROUND	1087	n/a	n/a	0	0	0
4947713	REC_WORD	wordpools/wasnorm_wordpool_576.txt	LTP385	ltpFR2	14	22	HAY	693	n/a	n/a	0	0	0
4948903	REC_WORD	wordpools/wasnorm_wordpool_576.txt	LTP385	ltpFR2	14	22	LAPEL	800	n/a	n/a	0	0	0
4951548	REC_WORD	wordpools/wasnorm_wordpool_576.txt	LTP385	ltpFR2	14	22	MONEY	908	n/a	n/a	0	0	0
4957077	REC_WORD	wordpools/wasnorm_wordpool_576.txt	LTP385	ltpFR2	14	22	SIDEWALK	1303	n/a	n/a	0	0	0
5053000	DISTRACTOR	n/a	LTP385	ltpFR2	14	23	n/a	n/a	n/a	n/a	0	0	0
5053000	START	n/a	LTP385	ltpFR2	14	n/a	n/a	n/a	34	n/a	n/a	n/a	n/a
5053017	PROB	n/a	LTP385	ltpFR2	14	n/a	n/a	n/a	34	15	4	9	2
5055340	PROB	n/a	LTP385	ltpFR2	14	n/a	n/a	n/a	34	22	8	5	9
5059242	PROB	n/a	LTP385	ltpFR2	14	n/a	n/a	n/a	34	6	2	2	2
5061648	PROB	n/a	LTP385	ltpFR2	14	n/a	n/a	n/a	34	12	4	5	3
5064130	PROB	n/a	LTP385	ltpFR2	14	n/a	n/a	n/a	34	12	3	7	2
5066344	PROB	n/a	LTP385	ltpFR2	14	n/a	n/a	n/a	34	12	2	7	3
5068233	PROB	n/a	LTP385	ltpFR2	14	n/a	n/a	n/a	34	16	3	8	5
5072945	PROB	n/a	LTP385	ltpFR2	14	n/a	n/a	n/a	34	12	5	4	3
5077000	STOP	n/a	LTP385	ltpFR2	14	n/a	n/a	n/a	34	n/a	n/a	n/a	n/a
5078193	WORD	wordpools/wasnorm_wordpool_576.txt	LTP385	ltpFR2	14	23	HERO	706	n/a	n/a	0	0	0
5080833	WORD	wordpools/wasnorm_wordpool_576.txt	LTP385	ltpFR2	14	23	QUEEN	1149	n/a	n/a	0	0	0
5083642	WORD	wordpools/wasnorm_wordpool_576.txt	LTP385	ltpFR2	14	23	ONION	977	n/a	n/a	0	0	0
5086441	WORD	wordpools/wasnorm_wordpool_576.txt	LTP385	ltpFR2	14	23	CIGAR	308	n/a	n/a	0	0	0
5089122	WORD	wordpools/wasnorm_wordpool_576.txt	LTP385	ltpFR2	14	23	CRIB	407	n/a	n/a	0	0	0
5091754	WORD	wordpools/wasnorm_wordpool_576.txt	LTP385	ltpFR2	14	23	PICTURE	1061	n/a	n/a	0	0	0
5094169	WORD	wordpools/wasnorm_wordpool_576.txt	LTP385	ltpFR2	14	23	PAPER	1011	n/a	n/a	0	0	0
5096718	WORD	wordpools/wasnorm_wordpool_576.txt	LTP385	ltpFR2	14	23	SCRIBBLE	1256	n/a	n/a	0	0	0
5099183	WORD	wordpools/wasnorm_wordpool_576.txt	LTP385	ltpFR2	14	23	KEEPER	769	n/a	n/a	0	0	0
5101832	WORD	wordpools/wasnorm_wordpool_576.txt	LTP385	ltpFR2	14	23	HEADBAND	696	n/a	n/a	0	0	0
5104456	WORD	wordpools/wasnorm_wordpool_576.txt	LTP385	ltpFR2	14	23	ARMY	39	n/a	n/a	0	0	0
5106945	WORD	wordpools/wasnorm_wordpool_576.txt	LTP385	ltpFR2	14	23	FIREMAN	569	n/a	n/a	0	0	0
5109520	WORD	wordpools/wasnorm_wordpool_576.txt	LTP385	ltpFR2	14	23	CHILD	299	n/a	n/a	0	0	0
5111959	WORD	wordpools/wasnorm_wordpool_576.txt	LTP385	ltpFR2	14	23	CAMEL	223	n/a	n/a	0	0	0
5114391	WORD	wordpools/wasnorm_wordpool_576.txt	LTP385	ltpFR2	14	23	SPACE	1345	n/a	n/a	0	0	0
5116822	WORD	wordpools/wasnorm_wordpool_576.txt	LTP385	ltpFR2	14	23	LOFT	840	n/a	n/a	0	0	0
5119522	WORD	wordpools/wasnorm_wordpool_576.txt	LTP385	ltpFR2	14	23	ITEM	746	n/a	n/a	0	0	0
5122161	WORD	wordpools/wasnorm_wordpool_576.txt	LTP385	ltpFR2	14	23	CRAB	397	n/a	n/a	0	0	0
5124743	WORD	wordpools/wasnorm_wordpool_576.txt	LTP385	ltpFR2	14	23	DAUGHTER	442	n/a	n/a	0	0	0
5127493	WORD	wordpools/wasnorm_wordpool_576.txt	LTP385	ltpFR2	14	23	MUMMY	932	n/a	n/a	0	0	0
5130116	WORD	wordpools/wasnorm_wordpool_576.txt	LTP385	ltpFR2	14	23	BADGE	68	n/a	n/a	0	0	0
5132599	WORD	wordpools/wasnorm_wordpool_576.txt	LTP385	ltpFR2	14	23	VENUS	1557	n/a	n/a	0	0	0
5135029	WORD	wordpools/wasnorm_wordpool_576.txt	LTP385	ltpFR2	14	23	MARS	873	n/a	n/a	0	0	0
