mstime	trial_type	stim_file	subject	experiment	session	trial	item_name	item_num	list	answer	test_x	test_y	test_z
0	SESS_START	n/a	LTP329	ltpFR2	22	n/a	n/a	n/a	n/a	n/a	0	0	0
28288	START	n/a	LTP329	ltpFR2	22	n/a	n/a	n/a	-1	n/a	n/a	n/a	n/a
28318	PROB	n/a	LTP329	ltpFR2	22	n/a	n/a	n/a	-1	6	3	1	2
29619	PROB	n/a	LTP329	ltpFR2	22	n/a	n/a	n/a	-1	14	7	5	2
30951	PROB	n/a	LTP329	ltpFR2	22	n/a	n/a	n/a	-1	15	8	4	3
32600	PROB	n/a	LTP329	ltpFR2	22	n/a	n/a	n/a	-1	11	2	8	1
33516	PROB	n/a	LTP329	ltpFR2	22	n/a	n/a	n/a	-1	21	7	5	9
35082	PROB	n/a	LTP329	ltpFR2	22	n/a	n/a	n/a	-1	15	8	1	6
37247	PROB	n/a	LTP329	ltpFR2	22	n/a	n/a	n/a	-1	10	6	1	3
40288	STOP	n/a	LTP329	ltpFR2	22	n/a	n/a	n/a	-1	n/a	n/a	n/a	n/a
72413	WORD	wordpools/wasnorm_wordpool_576.txt	LTP329	ltpFR2	22	1	PRINCESS	1125	n/a	n/a	0	0	0
74979	WORD	wordpools/wasnorm_wordpool_576.txt	LTP329	ltpFR2	22	1	ULCER	1533	n/a	n/a	0	0	0
77494	WORD	wordpools/wasnorm_wordpool_576.txt	LTP329	ltpFR2	22	1	CREVICE	405	n/a	n/a	0	0	0
79977	WORD	wordpools/wasnorm_wordpool_576.txt	LTP329	ltpFR2	22	1	LIGHTNING	820	n/a	n/a	0	0	0
82525	WORD	wordpools/wasnorm_wordpool_576.txt	LTP329	ltpFR2	22	1	CLOUD	328	n/a	n/a	0	0	0
85074	WORD	wordpools/wasnorm_wordpool_576.txt	LTP329	ltpFR2	22	1	LAPEL	800	n/a	n/a	0	0	0
87656	WORD	wordpools/wasnorm_wordpool_576.txt	LTP329	ltpFR2	22	1	RECORD	1176	n/a	n/a	0	0	0
90304	WORD	wordpools/wasnorm_wordpool_576.txt	LTP329	ltpFR2	22	1	BROOK	177	n/a	n/a	0	0	0
93020	WORD	wordpools/wasnorm_wordpool_576.txt	LTP329	ltpFR2	22	1	PICTURE	1061	n/a	n/a	0	0	0
95836	WORD	wordpools/wasnorm_wordpool_576.txt	LTP329	ltpFR2	22	1	PLASTER	1085	n/a	n/a	0	0	0
98500	WORD	wordpools/wasnorm_wordpool_576.txt	LTP329	ltpFR2	22	1	POSTAGE	1113	n/a	n/a	0	0	0
100950	WORD	wordpools/wasnorm_wordpool_576.txt	LTP329	ltpFR2	22	1	SPACE	1345	n/a	n/a	0	0	0
103565	WORD	wordpools/wasnorm_wordpool_576.txt	LTP329	ltpFR2	22	1	ROCKET	1202	n/a	n/a	0	0	0
106181	WORD	wordpools/wasnorm_wordpool_576.txt	LTP329	ltpFR2	22	1	TROMBONE	1508	n/a	n/a	0	0	0
108746	WORD	wordpools/wasnorm_wordpool_576.txt	LTP329	ltpFR2	22	1	HIKER	708	n/a	n/a	0	0	0
111310	WORD	wordpools/wasnorm_wordpool_576.txt	LTP329	ltpFR2	22	1	EUROPE	541	n/a	n/a	0	0	0
113911	WORD	wordpools/wasnorm_wordpool_576.txt	LTP329	ltpFR2	22	1	GIFT	635	n/a	n/a	0	0	0
116342	WORD	wordpools/wasnorm_wordpool_576.txt	LTP329	ltpFR2	22	1	MAILBOX	857	n/a	n/a	0	0	0
119025	WORD	wordpools/wasnorm_wordpool_576.txt	LTP329	ltpFR2	22	1	COUCH	386	n/a	n/a	0	0	0
121574	WORD	wordpools/wasnorm_wordpool_576.txt	LTP329	ltpFR2	22	1	CIGAR	308	n/a	n/a	0	0	0
124355	WORD	wordpools/wasnorm_wordpool_576.txt	LTP329	ltpFR2	22	1	SKILLET	1317	n/a	n/a	0	0	0
127055	WORD	wordpools/wasnorm_wordpool_576.txt	LTP329	ltpFR2	22	1	MAILMAN	858	n/a	n/a	0	0	0
129637	WORD	wordpools/wasnorm_wordpool_576.txt	LTP329	ltpFR2	22	1	DANDRUFF	439	n/a	n/a	0	0	0
132152	WORD	wordpools/wasnorm_wordpool_576.txt	LTP329	ltpFR2	22	1	POCKET	1093	n/a	n/a	0	0	0
133768	START	n/a	LTP329	ltpFR2	22	n/a	n/a	n/a	1	n/a	n/a	n/a	n/a
134775	DISTRACTOR	n/a	LTP329	ltpFR2	22	1	n/a	n/a	n/a	n/a	0	0	0
134784	PROB	n/a	LTP329	ltpFR2	22	n/a	n/a	n/a	1	8	2	4	2
136600	PROB	n/a	LTP329	ltpFR2	22	n/a	n/a	n/a	1	9	6	1	2
137833	PROB	n/a	LTP329	ltpFR2	22	n/a	n/a	n/a	1	26	9	9	8
139347	PROB	n/a	LTP329	ltpFR2	22	n/a	n/a	n/a	1	18	8	4	6
141181	PROB	n/a	LTP329	ltpFR2	22	n/a	n/a	n/a	1	15	3	3	9
142730	PROB	n/a	LTP329	ltpFR2	22	n/a	n/a	n/a	1	22	9	4	9
143996	PROB	n/a	LTP329	ltpFR2	22	n/a	n/a	n/a	1	8	5	2	1
145029	PROB	n/a	LTP329	ltpFR2	22	n/a	n/a	n/a	1	9	2	2	5
146062	PROB	n/a	LTP329	ltpFR2	22	n/a	n/a	n/a	1	16	3	4	9
148276	PROB	n/a	LTP329	ltpFR2	22	n/a	n/a	n/a	1	12	4	2	5
149977	PROB	n/a	LTP329	ltpFR2	22	n/a	n/a	n/a	1	19	7	8	4
153725	PROB	n/a	LTP329	ltpFR2	22	n/a	n/a	n/a	1	15	9	3	3
155141	PROB	n/a	LTP329	ltpFR2	22	n/a	n/a	n/a	1	14	5	5	4
156196	STOP	n/a	LTP329	ltpFR2	22	n/a	n/a	n/a	1	n/a	n/a	n/a	n/a
159573	REC_START	n/a	LTP329	ltpFR2	22	1	n/a	n/a	n/a	n/a	0	0	0
160944	REC_WORD	wordpools/wasnorm_wordpool_576.txt	LTP329	ltpFR2	22	1	CREVICE	405	n/a	n/a	0	0	0
162286	REC_WORD	wordpools/wasnorm_wordpool_576.txt	LTP329	ltpFR2	22	1	SPACE	1345	n/a	n/a	0	0	0
163286	REC_WORD_VV	wordpools/wasnorm_wordpool_576.txt	LTP329	ltpFR2	22	1	<>	-1	n/a	n/a	0	0	0
166168	REC_WORD	wordpools/wasnorm_wordpool_576.txt	LTP329	ltpFR2	22	1	ROCKET	1202	n/a	n/a	0	0	0
167488	REC_WORD	wordpools/wasnorm_wordpool_576.txt	LTP329	ltpFR2	22	1	CLOUD	328	n/a	n/a	0	0	0
168669	REC_WORD	wordpools/wasnorm_wordpool_576.txt	LTP329	ltpFR2	22	1	LIGHTNING	820	n/a	n/a	0	0	0
170158	REC_WORD	wordpools/wasnorm_wordpool_576.txt	LTP329	ltpFR2	22	1	HIKER	708	n/a	n/a	0	0	0
172146	REC_WORD	wordpools/wasnorm_wordpool_576.txt	LTP329	ltpFR2	22	1	TROMBONE	1508	n/a	n/a	0	0	0
173715	REC_WORD	wordpools/wasnorm_wordpool_576.txt	LTP329	ltpFR2	22	1	PLASTER	1085	n/a	n/a	0	0	0
174974	REC_WORD	wordpools/wasnorm_wordpool_576.txt	LTP329	ltpFR2	22	1	POSTAGE	1113	n/a	n/a	0	0	0
177554	REC_WORD	wordpools/wasnorm_wordpool_576.txt	LTP329	ltpFR2	22	1	MAILMAN	858	n/a	n/a	0	0	0
179021	REC_WORD	wordpools/wasnorm_wordpool_576.txt	LTP329	ltpFR2	22	1	MAILBOX	857	n/a	n/a	0	0	0
180021	REC_WORD_VV	wordpools/wasnorm_wordpool_576.txt	LTP329	ltpFR2	22	1	<>	-1	n/a	n/a	0	0	0
180712	REC_WORD	wordpools/wasnorm_wordpool_576.txt	LTP329	ltpFR2	22	1	GIFT	635	n/a	n/a	0	0	0
182373	REC_WORD	wordpools/wasnorm_wordpool_576.txt	LTP329	ltpFR2	22	1	PICTURE	1061	n/a	n/a	0	0	0
185164	REC_WORD	wordpools/wasnorm_wordpool_576.txt	LTP329	ltpFR2	22	1	COUCH	386	n/a	n/a	0	0	0
201210	REC_WORD	wordpools/wasnorm_wordpool_576.txt	LTP329	ltpFR2	22	1	SKILLET	1317	n/a	n/a	0	0	0
209371	REC_WORD	wordpools/wasnorm_wordpool_576.txt	LTP329	ltpFR2	22	1	ULCER	1533	n/a	n/a	0	0	0
211122	REC_WORD	wordpools/wasnorm_wordpool_576.txt	LTP329	ltpFR2	22	1	PRINCESS	1125	n/a	n/a	0	0	0
216928	REC_WORD	wordpools/wasnorm_wordpool_576.txt	LTP329	ltpFR2	22	1	BROOK	177	n/a	n/a	0	0	0
250226	DISTRACTOR	n/a	LTP329	ltpFR2	22	2	n/a	n/a	n/a	n/a	0	0	0
250226	START	n/a	LTP329	ltpFR2	22	n/a	n/a	n/a	2	n/a	n/a	n/a	n/a
250259	PROB	n/a	LTP329	ltpFR2	22	n/a	n/a	n/a	2	13	3	2	8
251709	PROB	n/a	LTP329	ltpFR2	22	n/a	n/a	n/a	2	9	5	2	2
254324	PROB	n/a	LTP329	ltpFR2	22	n/a	n/a	n/a	2	15	3	3	9
255390	PROB	n/a	LTP329	ltpFR2	22	n/a	n/a	n/a	2	26	7	9	8
258255	PROB	n/a	LTP329	ltpFR2	22	n/a	n/a	n/a	2	17	8	2	7
259839	PROB	n/a	LTP329	ltpFR2	22	n/a	n/a	n/a	2	20	5	7	8
261871	PROB	n/a	LTP329	ltpFR2	22	n/a	n/a	n/a	2	12	6	4	2
263070	PROB	n/a	LTP329	ltpFR2	22	n/a	n/a	n/a	2	13	5	3	5
264186	PROB	n/a	LTP329	ltpFR2	22	n/a	n/a	n/a	2	9	2	2	5
265268	PROB	n/a	LTP329	ltpFR2	22	n/a	n/a	n/a	2	17	9	5	3
266901	PROB	n/a	LTP329	ltpFR2	22	n/a	n/a	n/a	2	22	6	8	8
268217	PROB	n/a	LTP329	ltpFR2	22	n/a	n/a	n/a	2	16	7	8	1
269601	PROB	n/a	LTP329	ltpFR2	22	n/a	n/a	n/a	2	12	3	6	3
271066	PROB	n/a	LTP329	ltpFR2	22	n/a	n/a	n/a	2	11	3	1	7
274226	STOP	n/a	LTP329	ltpFR2	22	n/a	n/a	n/a	2	n/a	n/a	n/a	n/a
275131	WORD	wordpools/wasnorm_wordpool_576.txt	LTP329	ltpFR2	22	2	BRANCH	168	n/a	n/a	0	0	0
277630	WORD	wordpools/wasnorm_wordpool_576.txt	LTP329	ltpFR2	22	2	ISLAND	745	n/a	n/a	0	0	0
280179	WORD	wordpools/wasnorm_wordpool_576.txt	LTP329	ltpFR2	22	2	DAISY	435	n/a	n/a	0	0	0
282677	WORD	wordpools/wasnorm_wordpool_576.txt	LTP329	ltpFR2	22	2	HATCHET	691	n/a	n/a	0	0	0
285508	WORD	wordpools/wasnorm_wordpool_576.txt	LTP329	ltpFR2	22	2	TUTU	1524	n/a	n/a	0	0	0
288025	WORD	wordpools/wasnorm_wordpool_576.txt	LTP329	ltpFR2	22	2	BUGGY	188	n/a	n/a	0	0	0
290707	WORD	wordpools/wasnorm_wordpool_576.txt	LTP329	ltpFR2	22	2	EXPERT	543	n/a	n/a	0	0	0
293521	WORD	wordpools/wasnorm_wordpool_576.txt	LTP329	ltpFR2	22	2	JURY	766	n/a	n/a	0	0	0
296004	WORD	wordpools/wasnorm_wordpool_576.txt	LTP329	ltpFR2	22	2	HUSBAND	728	n/a	n/a	0	0	0
298719	WORD	wordpools/wasnorm_wordpool_576.txt	LTP329	ltpFR2	22	2	TILE	1468	n/a	n/a	0	0	0
301317	WORD	wordpools/wasnorm_wordpool_576.txt	LTP329	ltpFR2	22	2	SUNSET	1408	n/a	n/a	0	0	0
303967	WORD	wordpools/wasnorm_wordpool_576.txt	LTP329	ltpFR2	22	2	WIDOW	1608	n/a	n/a	0	0	0
306799	WORD	wordpools/wasnorm_wordpool_576.txt	LTP329	ltpFR2	22	2	GRAVE	658	n/a	n/a	0	0	0
309262	WORD	wordpools/wasnorm_wordpool_576.txt	LTP329	ltpFR2	22	2	RELISH	1183	n/a	n/a	0	0	0
312095	WORD	wordpools/wasnorm_wordpool_576.txt	LTP329	ltpFR2	22	2	CURTAIN	427	n/a	n/a	0	0	0
314911	WORD	wordpools/wasnorm_wordpool_576.txt	LTP329	ltpFR2	22	2	ROD	1203	n/a	n/a	0	0	0
317508	WORD	wordpools/wasnorm_wordpool_576.txt	LTP329	ltpFR2	22	2	SWIMMER	1420	n/a	n/a	0	0	0
320025	WORD	wordpools/wasnorm_wordpool_576.txt	LTP329	ltpFR2	22	2	BULLET	194	n/a	n/a	0	0	0
322707	WORD	wordpools/wasnorm_wordpool_576.txt	LTP329	ltpFR2	22	2	DOLPHIN	483	n/a	n/a	0	0	0
325488	WORD	wordpools/wasnorm_wordpool_576.txt	LTP329	ltpFR2	22	2	GRIZZLY	662	n/a	n/a	0	0	0
328137	WORD	wordpools/wasnorm_wordpool_576.txt	LTP329	ltpFR2	22	2	RIFLE	1192	n/a	n/a	0	0	0
330836	WORD	wordpools/wasnorm_wordpool_576.txt	LTP329	ltpFR2	22	2	LEADER	807	n/a	n/a	0	0	0
333317	WORD	wordpools/wasnorm_wordpool_576.txt	LTP329	ltpFR2	22	2	CYCLONE	431	n/a	n/a	0	0	0
336017	WORD	wordpools/wasnorm_wordpool_576.txt	LTP329	ltpFR2	22	2	TWISTER	1530	n/a	n/a	0	0	0
337633	START	n/a	LTP329	ltpFR2	22	n/a	n/a	n/a	3	n/a	n/a	n/a	n/a
338656	DISTRACTOR	n/a	LTP329	ltpFR2	22	2	n/a	n/a	n/a	n/a	0	0	0
338682	PROB	n/a	LTP329	ltpFR2	22	n/a	n/a	n/a	3	20	5	9	6
342180	PROB	n/a	LTP329	ltpFR2	22	n/a	n/a	n/a	3	19	7	4	8
344228	PROB	n/a	LTP329	ltpFR2	22	n/a	n/a	n/a	3	16	7	1	8
346062	PROB	n/a	LTP329	ltpFR2	22	n/a	n/a	n/a	3	14	3	6	5
347661	PROB	n/a	LTP329	ltpFR2	22	n/a	n/a	n/a	3	15	9	1	5
348710	PROB	n/a	LTP329	ltpFR2	22	n/a	n/a	n/a	3	16	8	1	7
350325	PROB	n/a	LTP329	ltpFR2	22	n/a	n/a	n/a	3	11	3	4	4
352159	PROB	n/a	LTP329	ltpFR2	22	n/a	n/a	n/a	3	16	7	1	8
353741	PROB	n/a	LTP329	ltpFR2	22	n/a	n/a	n/a	3	13	2	2	9
355041	PROB	n/a	LTP329	ltpFR2	22	n/a	n/a	n/a	3	12	6	1	5
356573	PROB	n/a	LTP329	ltpFR2	22	n/a	n/a	n/a	3	14	2	4	8
358039	PROB	n/a	LTP329	ltpFR2	22	n/a	n/a	n/a	3	11	4	5	2
361633	STOP	n/a	LTP329	ltpFR2	22	n/a	n/a	n/a	3	n/a	n/a	n/a	n/a
363486	REC_START	n/a	LTP329	ltpFR2	22	2	n/a	n/a	n/a	n/a	0	0	0
366002	REC_WORD	wordpools/wasnorm_wordpool_576.txt	LTP329	ltpFR2	22	2	BULLET	194	n/a	n/a	0	0	0
367496	REC_WORD	wordpools/wasnorm_wordpool_576.txt	LTP329	ltpFR2	22	2	RIFLE	1192	n/a	n/a	0	0	0
369071	REC_WORD	wordpools/wasnorm_wordpool_576.txt	LTP329	ltpFR2	22	2	LEADER	807	n/a	n/a	0	0	0
370499	REC_WORD	wordpools/wasnorm_wordpool_576.txt	LTP329	ltpFR2	22	2	RELISH	1183	n/a	n/a	0	0	0
372850	REC_WORD	wordpools/wasnorm_wordpool_576.txt	LTP329	ltpFR2	22	2	DOLPHIN	483	n/a	n/a	0	0	0
374490	REC_WORD	wordpools/wasnorm_wordpool_576.txt	LTP329	ltpFR2	22	2	GRIZZLY	662	n/a	n/a	0	0	0
379538	REC_WORD	wordpools/wasnorm_wordpool_576.txt	LTP329	ltpFR2	22	2	CYCLONE	431	n/a	n/a	0	0	0
381471	REC_WORD	wordpools/wasnorm_wordpool_576.txt	LTP329	ltpFR2	22	2	TWISTER	1530	n/a	n/a	0	0	0
383249	REC_WORD	wordpools/wasnorm_wordpool_576.txt	LTP329	ltpFR2	22	2	BUGGY	188	n/a	n/a	0	0	0
385595	REC_WORD	wordpools/wasnorm_wordpool_576.txt	LTP329	ltpFR2	22	2	GRAVE	658	n/a	n/a	0	0	0
388622	REC_WORD	wordpools/wasnorm_wordpool_576.txt	LTP329	ltpFR2	22	2	WIDOW	1608	n/a	n/a	0	0	0
390785	REC_WORD	wordpools/wasnorm_wordpool_576.txt	LTP329	ltpFR2	22	2	TILE	1468	n/a	n/a	0	0	0
392790	REC_WORD	wordpools/wasnorm_wordpool_576.txt	LTP329	ltpFR2	22	2	HUSBAND	728	n/a	n/a	0	0	0
398955	REC_WORD	wordpools/wasnorm_wordpool_576.txt	LTP329	ltpFR2	22	2	HATCHET	691	n/a	n/a	0	0	0
400906	REC_WORD	wordpools/wasnorm_wordpool_576.txt	LTP329	ltpFR2	22	2	TUTU	1524	n/a	n/a	0	0	0
403414	REC_WORD	wordpools/wasnorm_wordpool_576.txt	LTP329	ltpFR2	22	2	DAISY	435	n/a	n/a	0	0	0
410444	REC_WORD	wordpools/wasnorm_wordpool_576.txt	LTP329	ltpFR2	22	2	CURTAIN	427	n/a	n/a	0	0	0
412412	REC_WORD	wordpools/wasnorm_wordpool_576.txt	LTP329	ltpFR2	22	2	ROD	1203	n/a	n/a	0	0	0
454091	DISTRACTOR	n/a	LTP329	ltpFR2	22	3	n/a	n/a	n/a	n/a	0	0	0
454092	START	n/a	LTP329	ltpFR2	22	n/a	n/a	n/a	4	n/a	n/a	n/a	n/a
454125	PROB	n/a	LTP329	ltpFR2	22	n/a	n/a	n/a	4	18	8	4	6
455974	PROB	n/a	LTP329	ltpFR2	22	n/a	n/a	n/a	4	20	9	7	4
457673	PROB	n/a	LTP329	ltpFR2	22	n/a	n/a	n/a	4	21	9	8	3
460905	PROB	n/a	LTP329	ltpFR2	22	n/a	n/a	n/a	4	19	6	4	9
462654	PROB	n/a	LTP329	ltpFR2	22	n/a	n/a	n/a	4	15	4	3	8
464053	PROB	n/a	LTP329	ltpFR2	22	n/a	n/a	n/a	4	25	8	9	8
467200	PROB	n/a	LTP329	ltpFR2	22	n/a	n/a	n/a	4	22	5	8	9
469383	PROB	n/a	LTP329	ltpFR2	22	n/a	n/a	n/a	4	19	9	1	9
470716	PROB	n/a	LTP329	ltpFR2	22	n/a	n/a	n/a	4	14	6	7	1
472231	PROB	n/a	LTP329	ltpFR2	22	n/a	n/a	n/a	4	7	3	2	2
474364	PROB	n/a	LTP329	ltpFR2	22	n/a	n/a	n/a	4	21	8	8	5
475631	PROB	n/a	LTP329	ltpFR2	22	n/a	n/a	n/a	4	15	5	6	4
477884	STOP	n/a	LTP329	ltpFR2	22	n/a	n/a	n/a	4	n/a	n/a	n/a	n/a
479228	WORD	wordpools/wasnorm_wordpool_576.txt	LTP329	ltpFR2	22	3	PLAID	1080	n/a	n/a	0	0	0
481994	WORD	wordpools/wasnorm_wordpool_576.txt	LTP329	ltpFR2	22	3	FREEZER	604	n/a	n/a	0	0	0
484560	WORD	wordpools/wasnorm_wordpool_576.txt	LTP329	ltpFR2	22	3	BUNNY	198	n/a	n/a	0	0	0
487175	WORD	wordpools/wasnorm_wordpool_576.txt	LTP329	ltpFR2	22	3	WAGON	1578	n/a	n/a	0	0	0
489840	WORD	wordpools/wasnorm_wordpool_576.txt	LTP329	ltpFR2	22	3	CLOCK	325	n/a	n/a	0	0	0
492355	WORD	wordpools/wasnorm_wordpool_576.txt	LTP329	ltpFR2	22	3	FLAG	573	n/a	n/a	0	0	0
494888	WORD	wordpools/wasnorm_wordpool_576.txt	LTP329	ltpFR2	22	3	FLUTE	585	n/a	n/a	0	0	0
497686	WORD	wordpools/wasnorm_wordpool_576.txt	LTP329	ltpFR2	22	3	UMPIRE	1535	n/a	n/a	0	0	0
500517	WORD	wordpools/wasnorm_wordpool_576.txt	LTP329	ltpFR2	22	3	SCRIBBLE	1256	n/a	n/a	0	0	0
503100	WORD	wordpools/wasnorm_wordpool_576.txt	LTP329	ltpFR2	22	3	SKETCH	1315	n/a	n/a	0	0	0
505816	WORD	wordpools/wasnorm_wordpool_576.txt	LTP329	ltpFR2	22	3	CARROT	249	n/a	n/a	0	0	0
508548	WORD	wordpools/wasnorm_wordpool_576.txt	LTP329	ltpFR2	22	3	DRIVER	499	n/a	n/a	0	0	0
511295	WORD	wordpools/wasnorm_wordpool_576.txt	LTP329	ltpFR2	22	3	CRAYON	401	n/a	n/a	0	0	0
514062	WORD	wordpools/wasnorm_wordpool_576.txt	LTP329	ltpFR2	22	3	ARM	38	n/a	n/a	0	0	0
516810	WORD	wordpools/wasnorm_wordpool_576.txt	LTP329	ltpFR2	22	3	EYELASH	546	n/a	n/a	0	0	0
519291	WORD	wordpools/wasnorm_wordpool_576.txt	LTP329	ltpFR2	22	3	WRENCH	1625	n/a	n/a	0	0	0
521974	WORD	wordpools/wasnorm_wordpool_576.txt	LTP329	ltpFR2	22	3	PACKAGE	997	n/a	n/a	0	0	0
524540	WORD	wordpools/wasnorm_wordpool_576.txt	LTP329	ltpFR2	22	3	LUNCH	849	n/a	n/a	0	0	0
527072	WORD	wordpools/wasnorm_wordpool_576.txt	LTP329	ltpFR2	22	3	COUNTRY	388	n/a	n/a	0	0	0
529721	WORD	wordpools/wasnorm_wordpool_576.txt	LTP329	ltpFR2	22	3	RABBIT	1152	n/a	n/a	0	0	0
532368	WORD	wordpools/wasnorm_wordpool_576.txt	LTP329	ltpFR2	22	3	BIKE	125	n/a	n/a	0	0	0
534868	WORD	wordpools/wasnorm_wordpool_576.txt	LTP329	ltpFR2	22	3	HELMET	702	n/a	n/a	0	0	0
537633	WORD	wordpools/wasnorm_wordpool_576.txt	LTP329	ltpFR2	22	3	GLOBE	641	n/a	n/a	0	0	0
540198	WORD	wordpools/wasnorm_wordpool_576.txt	LTP329	ltpFR2	22	3	HORSE	719	n/a	n/a	0	0	0
541815	START	n/a	LTP329	ltpFR2	22	n/a	n/a	n/a	5	n/a	n/a	n/a	n/a
542617	DISTRACTOR	n/a	LTP329	ltpFR2	22	3	n/a	n/a	n/a	n/a	0	0	0
542631	PROB	n/a	LTP329	ltpFR2	22	n/a	n/a	n/a	5	19	7	3	9
544763	PROB	n/a	LTP329	ltpFR2	22	n/a	n/a	n/a	5	14	9	2	3
546062	PROB	n/a	LTP329	ltpFR2	22	n/a	n/a	n/a	5	13	4	6	3
547211	PROB	n/a	LTP329	ltpFR2	22	n/a	n/a	n/a	5	17	7	3	7
548493	PROB	n/a	LTP329	ltpFR2	22	n/a	n/a	n/a	5	10	3	6	1
549677	PROB	n/a	LTP329	ltpFR2	22	n/a	n/a	n/a	5	20	7	9	4
552609	PROB	n/a	LTP329	ltpFR2	22	n/a	n/a	n/a	5	20	3	9	8
554524	PROB	n/a	LTP329	ltpFR2	22	n/a	n/a	n/a	5	16	8	5	3
556256	PROB	n/a	LTP329	ltpFR2	22	n/a	n/a	n/a	5	17	7	4	6
557740	PROB	n/a	LTP329	ltpFR2	22	n/a	n/a	n/a	5	17	4	8	5
559355	PROB	n/a	LTP329	ltpFR2	22	n/a	n/a	n/a	5	11	8	1	2
560338	PROB	n/a	LTP329	ltpFR2	22	n/a	n/a	n/a	5	9	2	6	1
561387	PROB	n/a	LTP329	ltpFR2	22	n/a	n/a	n/a	5	26	8	9	8
562687	PROB	n/a	LTP329	ltpFR2	22	n/a	n/a	n/a	5	14	3	6	5
565068	STOP	n/a	LTP329	ltpFR2	22	n/a	n/a	n/a	5	n/a	n/a	n/a	n/a
567719	REC_START	n/a	LTP329	ltpFR2	22	3	n/a	n/a	n/a	n/a	0	0	0
570544	REC_WORD	wordpools/wasnorm_wordpool_576.txt	LTP329	ltpFR2	22	3	COUNTRY	388	n/a	n/a	0	0	0
572918	REC_WORD	wordpools/wasnorm_wordpool_576.txt	LTP329	ltpFR2	22	3	WAGON	1578	n/a	n/a	0	0	0
581407	REC_WORD	wordpools/wasnorm_wordpool_576.txt	LTP329	ltpFR2	22	3	EYELASH	546	n/a	n/a	0	0	0
588159	REC_WORD	wordpools/wasnorm_wordpool_576.txt	LTP329	ltpFR2	22	3	UMPIRE	1535	n/a	n/a	0	0	0
592089	REC_WORD	wordpools/wasnorm_wordpool_576.txt	LTP329	ltpFR2	22	3	ARM	38	n/a	n/a	0	0	0
609441	REC_WORD	wordpools/wasnorm_wordpool_576.txt	LTP329	ltpFR2	22	3	CRAYON	401	n/a	n/a	0	0	0
611933	REC_WORD	wordpools/wasnorm_wordpool_576.txt	LTP329	ltpFR2	22	3	SCRIBBLE	1256	n/a	n/a	0	0	0
613444	REC_WORD	wordpools/wasnorm_wordpool_576.txt	LTP329	ltpFR2	22	3	SKETCH	1315	n/a	n/a	0	0	0
658322	DISTRACTOR	n/a	LTP329	ltpFR2	22	4	n/a	n/a	n/a	n/a	0	0	0
658323	START	n/a	LTP329	ltpFR2	22	n/a	n/a	n/a	6	n/a	n/a	n/a	n/a
658356	PROB	n/a	LTP329	ltpFR2	22	n/a	n/a	n/a	6	11	3	3	5
659839	PROB	n/a	LTP329	ltpFR2	22	n/a	n/a	n/a	6	19	5	5	9
660989	PROB	n/a	LTP329	ltpFR2	22	n/a	n/a	n/a	6	23	7	8	8
666536	PROB	n/a	LTP329	ltpFR2	22	n/a	n/a	n/a	6	15	5	8	2
668068	PROB	n/a	LTP329	ltpFR2	22	n/a	n/a	n/a	6	14	3	4	7
669701	PROB	n/a	LTP329	ltpFR2	22	n/a	n/a	n/a	6	23	5	7	1
672017	PROB	n/a	LTP329	ltpFR2	22	n/a	n/a	n/a	6	5	2	2	1
673498	PROB	n/a	LTP329	ltpFR2	22	n/a	n/a	n/a	6	14	6	5	3
675981	PROB	n/a	LTP329	ltpFR2	22	n/a	n/a	n/a	6	9	7	1	1
677047	PROB	n/a	LTP329	ltpFR2	22	n/a	n/a	n/a	6	17	6	8	3
678763	PROB	n/a	LTP329	ltpFR2	22	n/a	n/a	n/a	6	25	9	8	9
682323	STOP	n/a	LTP329	ltpFR2	22	n/a	n/a	n/a	6	n/a	n/a	n/a	n/a
683427	WORD	wordpools/wasnorm_wordpool_576.txt	LTP329	ltpFR2	22	4	STALLION	1369	n/a	n/a	0	0	0
686060	WORD	wordpools/wasnorm_wordpool_576.txt	LTP329	ltpFR2	22	4	BABY	64	n/a	n/a	0	0	0
688658	WORD	wordpools/wasnorm_wordpool_576.txt	LTP329	ltpFR2	22	4	CRUTCH	417	n/a	n/a	0	0	0
691373	WORD	wordpools/wasnorm_wordpool_576.txt	LTP329	ltpFR2	22	4	BOARD	143	n/a	n/a	0	0	0
693889	WORD	wordpools/wasnorm_wordpool_576.txt	LTP329	ltpFR2	22	4	PIANO	1057	n/a	n/a	0	0	0
696437	WORD	wordpools/wasnorm_wordpool_576.txt	LTP329	ltpFR2	22	4	SHOULDER	1294	n/a	n/a	0	0	0
699285	WORD	wordpools/wasnorm_wordpool_576.txt	LTP329	ltpFR2	22	4	BLOUSE	139	n/a	n/a	0	0	0
702018	WORD	wordpools/wasnorm_wordpool_576.txt	LTP329	ltpFR2	22	4	BEAST	108	n/a	n/a	0	0	0
704600	WORD	wordpools/wasnorm_wordpool_576.txt	LTP329	ltpFR2	22	4	BASEMENT	94	n/a	n/a	0	0	0
707398	WORD	wordpools/wasnorm_wordpool_576.txt	LTP329	ltpFR2	22	4	JOURNAL	760	n/a	n/a	0	0	0
710031	WORD	wordpools/wasnorm_wordpool_576.txt	LTP329	ltpFR2	22	4	POET	1095	n/a	n/a	0	0	0
712630	WORD	wordpools/wasnorm_wordpool_576.txt	LTP329	ltpFR2	22	4	ANKLE	24	n/a	n/a	0	0	0
715411	WORD	wordpools/wasnorm_wordpool_576.txt	LTP329	ltpFR2	22	4	INFANT	737	n/a	n/a	0	0	0
718077	WORD	wordpools/wasnorm_wordpool_576.txt	LTP329	ltpFR2	22	4	LEG	809	n/a	n/a	0	0	0
720542	WORD	wordpools/wasnorm_wordpool_576.txt	LTP329	ltpFR2	22	4	ELBOW	520	n/a	n/a	0	0	0
723091	WORD	wordpools/wasnorm_wordpool_576.txt	LTP329	ltpFR2	22	4	BISON	131	n/a	n/a	0	0	0
725657	WORD	wordpools/wasnorm_wordpool_576.txt	LTP329	ltpFR2	22	4	LONDON	843	n/a	n/a	0	0	0
728189	WORD	wordpools/wasnorm_wordpool_576.txt	LTP329	ltpFR2	22	4	CELLAR	267	n/a	n/a	0	0	0
730937	WORD	wordpools/wasnorm_wordpool_576.txt	LTP329	ltpFR2	22	4	BLUEPRINT	142	n/a	n/a	0	0	0
733418	WORD	wordpools/wasnorm_wordpool_576.txt	LTP329	ltpFR2	22	4	JEANS	752	n/a	n/a	0	0	0
736085	WORD	wordpools/wasnorm_wordpool_576.txt	LTP329	ltpFR2	22	4	CEILING	265	n/a	n/a	0	0	0
738867	WORD	wordpools/wasnorm_wordpool_576.txt	LTP329	ltpFR2	22	4	BLACKBOARD	133	n/a	n/a	0	0	0
741699	WORD	wordpools/wasnorm_wordpool_576.txt	LTP329	ltpFR2	22	4	SCALPEL	1243	n/a	n/a	0	0	0
744280	WORD	wordpools/wasnorm_wordpool_576.txt	LTP329	ltpFR2	22	4	RUG	1215	n/a	n/a	0	0	0
745898	START	n/a	LTP329	ltpFR2	22	n/a	n/a	n/a	7	n/a	n/a	n/a	n/a
747000	DISTRACTOR	n/a	LTP329	ltpFR2	22	4	n/a	n/a	n/a	n/a	0	0	0
747029	PROB	n/a	LTP329	ltpFR2	22	n/a	n/a	n/a	7	20	3	8	9
750594	PROB	n/a	LTP329	ltpFR2	22	n/a	n/a	n/a	7	11	5	1	5
751577	PROB	n/a	LTP329	ltpFR2	22	n/a	n/a	n/a	7	6	2	1	3
752676	PROB	n/a	LTP329	ltpFR2	22	n/a	n/a	n/a	7	12	4	7	1
754009	PROB	n/a	LTP329	ltpFR2	22	n/a	n/a	n/a	7	11	5	5	1
755374	PROB	n/a	LTP329	ltpFR2	22	n/a	n/a	n/a	7	20	8	3	9
756891	PROB	n/a	LTP329	ltpFR2	22	n/a	n/a	n/a	7	15	8	4	3
758607	PROB	n/a	LTP329	ltpFR2	22	n/a	n/a	n/a	7	10	8	1	1
759956	PROB	n/a	LTP329	ltpFR2	22	n/a	n/a	n/a	7	5	1	1	3
761172	PROB	n/a	LTP329	ltpFR2	22	n/a	n/a	n/a	7	22	7	6	9
763437	PROB	n/a	LTP329	ltpFR2	22	n/a	n/a	n/a	7	13	5	6	2
765737	PROB	n/a	LTP329	ltpFR2	22	n/a	n/a	n/a	7	14	7	1	6
769898	STOP	n/a	LTP329	ltpFR2	22	n/a	n/a	n/a	7	n/a	n/a	n/a	n/a
771751	REC_START	n/a	LTP329	ltpFR2	22	4	n/a	n/a	n/a	n/a	0	0	0
774206	REC_WORD	wordpools/wasnorm_wordpool_576.txt	LTP329	ltpFR2	22	4	RUG	1215	n/a	n/a	0	0	0
775901	REC_WORD	wordpools/wasnorm_wordpool_576.txt	LTP329	ltpFR2	22	4	BASEMENT	94	n/a	n/a	0	0	0
779638	REC_WORD	wordpools/wasnorm_wordpool_576.txt	LTP329	ltpFR2	22	4	BEAST	108	n/a	n/a	0	0	0
780683	REC_WORD	wordpools/wasnorm_wordpool_576.txt	LTP329	ltpFR2	22	4	STALLION	1369	n/a	n/a	0	0	0
782614	REC_WORD	wordpools/wasnorm_wordpool_576.txt	LTP329	ltpFR2	22	4	ANKLE	24	n/a	n/a	0	0	0
784221	REC_WORD	wordpools/wasnorm_wordpool_576.txt	LTP329	ltpFR2	22	4	ELBOW	520	n/a	n/a	0	0	0
785294	REC_WORD	wordpools/wasnorm_wordpool_576.txt	LTP329	ltpFR2	22	4	SHOULDER	1294	n/a	n/a	0	0	0
790915	REC_WORD	wordpools/wasnorm_wordpool_576.txt	LTP329	ltpFR2	22	4	BLACKBOARD	133	n/a	n/a	0	0	0
792678	REC_WORD	wordpools/wasnorm_wordpool_576.txt	LTP329	ltpFR2	22	4	BOARD	143	n/a	n/a	0	0	0
862438	WORD	wordpools/wasnorm_wordpool_576.txt	LTP329	ltpFR2	22	5	PLATE	1086	n/a	n/a	0	0	0
865121	WORD	wordpools/wasnorm_wordpool_576.txt	LTP329	ltpFR2	22	5	NOVEL	960	n/a	n/a	0	0	0
867919	WORD	wordpools/wasnorm_wordpool_576.txt	LTP329	ltpFR2	22	5	PERCH	1048	n/a	n/a	0	0	0
870384	WORD	wordpools/wasnorm_wordpool_576.txt	LTP329	ltpFR2	22	5	BLENDER	136	n/a	n/a	0	0	0
872850	WORD	wordpools/wasnorm_wordpool_576.txt	LTP329	ltpFR2	22	5	SNAKE	1333	n/a	n/a	0	0	0
875298	WORD	wordpools/wasnorm_wordpool_576.txt	LTP329	ltpFR2	22	5	COCKTAIL	338	n/a	n/a	0	0	0
877864	WORD	wordpools/wasnorm_wordpool_576.txt	LTP329	ltpFR2	22	5	FLASK	576	n/a	n/a	0	0	0
880680	WORD	wordpools/wasnorm_wordpool_576.txt	LTP329	ltpFR2	22	5	FIREMAN	569	n/a	n/a	0	0	0
883410	WORD	wordpools/wasnorm_wordpool_576.txt	LTP329	ltpFR2	22	5	VALVE	1546	n/a	n/a	0	0	0
886060	WORD	wordpools/wasnorm_wordpool_576.txt	LTP329	ltpFR2	22	5	CITRUS	313	n/a	n/a	0	0	0
888809	WORD	wordpools/wasnorm_wordpool_576.txt	LTP329	ltpFR2	22	5	GARLIC	624	n/a	n/a	0	0	0
891257	WORD	wordpools/wasnorm_wordpool_576.txt	LTP329	ltpFR2	22	5	CASHIER	254	n/a	n/a	0	0	0
894040	WORD	wordpools/wasnorm_wordpool_576.txt	LTP329	ltpFR2	22	5	SKIRT	1319	n/a	n/a	0	0	0
896605	WORD	wordpools/wasnorm_wordpool_576.txt	LTP329	ltpFR2	22	5	SHORTS	1293	n/a	n/a	0	0	0
899087	WORD	wordpools/wasnorm_wordpool_576.txt	LTP329	ltpFR2	22	5	WARDROBE	1587	n/a	n/a	0	0	0
901752	WORD	wordpools/wasnorm_wordpool_576.txt	LTP329	ltpFR2	22	5	OX	994	n/a	n/a	0	0	0
904217	WORD	wordpools/wasnorm_wordpool_576.txt	LTP329	ltpFR2	22	5	PEACH	1031	n/a	n/a	0	0	0
906866	WORD	wordpools/wasnorm_wordpool_576.txt	LTP329	ltpFR2	22	5	BARLEY	88	n/a	n/a	0	0	0
909431	WORD	wordpools/wasnorm_wordpool_576.txt	LTP329	ltpFR2	22	5	ITEM	746	n/a	n/a	0	0	0
912164	WORD	wordpools/wasnorm_wordpool_576.txt	LTP329	ltpFR2	22	5	MARKET	871	n/a	n/a	0	0	0
914779	WORD	wordpools/wasnorm_wordpool_576.txt	LTP329	ltpFR2	22	5	DANCER	437	n/a	n/a	0	0	0
917244	WORD	wordpools/wasnorm_wordpool_576.txt	LTP329	ltpFR2	22	5	SALT	1229	n/a	n/a	0	0	0
919793	WORD	wordpools/wasnorm_wordpool_576.txt	LTP329	ltpFR2	22	5	WRIST	1626	n/a	n/a	0	0	0
922491	WORD	wordpools/wasnorm_wordpool_576.txt	LTP329	ltpFR2	22	5	VENUS	1557	n/a	n/a	0	0	0
924108	START	n/a	LTP329	ltpFR2	22	n/a	n/a	n/a	8	n/a	n/a	n/a	n/a
925047	DISTRACTOR	n/a	LTP329	ltpFR2	22	5	n/a	n/a	n/a	n/a	0	0	0
925074	PROB	n/a	LTP329	ltpFR2	22	n/a	n/a	n/a	8	15	8	2	5
927123	PROB	n/a	LTP329	ltpFR2	22	n/a	n/a	n/a	8	22	8	8	6
930805	PROB	n/a	LTP329	ltpFR2	22	n/a	n/a	n/a	8	12	8	3	1
931954	PROB	n/a	LTP329	ltpFR2	22	n/a	n/a	n/a	8	11	6	2	3
933469	PROB	n/a	LTP329	ltpFR2	22	n/a	n/a	n/a	8	14	4	1	9
934636	PROB	n/a	LTP329	ltpFR2	22	n/a	n/a	n/a	8	12	1	3	8
938068	PROB	n/a	LTP329	ltpFR2	22	n/a	n/a	n/a	8	15	5	9	1
939249	PROB	n/a	LTP329	ltpFR2	22	n/a	n/a	n/a	8	17	7	6	4
940600	PROB	n/a	LTP329	ltpFR2	22	n/a	n/a	n/a	8	16	6	6	4
943632	PROB	n/a	LTP329	ltpFR2	22	n/a	n/a	n/a	8	7	1	4	2
944931	PROB	n/a	LTP329	ltpFR2	22	n/a	n/a	n/a	8	6	1	1	4
945997	PROB	n/a	LTP329	ltpFR2	22	n/a	n/a	n/a	8	13	9	2	2
947196	STOP	n/a	LTP329	ltpFR2	22	n/a	n/a	n/a	8	n/a	n/a	n/a	n/a
950046	REC_START	n/a	LTP329	ltpFR2	22	5	n/a	n/a	n/a	n/a	0	0	0
952109	REC_WORD	wordpools/wasnorm_wordpool_576.txt	LTP329	ltpFR2	22	5	NOVEL	960	n/a	n/a	0	0	0
955320	REC_WORD	wordpools/wasnorm_wordpool_576.txt	LTP329	ltpFR2	22	5	SALT	1229	n/a	n/a	0	0	0
959536	REC_WORD	wordpools/wasnorm_wordpool_576.txt	LTP329	ltpFR2	22	5	WRIST	1626	n/a	n/a	0	0	0
970196	REC_WORD	wordpools/wasnorm_wordpool_576.txt	LTP329	ltpFR2	22	5	DANCER	437	n/a	n/a	0	0	0
975499	REC_WORD	wordpools/wasnorm_wordpool_576.txt	LTP329	ltpFR2	22	5	COCKTAIL	338	n/a	n/a	0	0	0
976894	REC_WORD	wordpools/wasnorm_wordpool_576.txt	LTP329	ltpFR2	22	5	BARLEY	88	n/a	n/a	0	0	0
982851	REC_WORD	wordpools/wasnorm_wordpool_576.txt	LTP329	ltpFR2	22	5	FLASK	576	n/a	n/a	0	0	0
992549	REC_WORD	wordpools/wasnorm_wordpool_576.txt	LTP329	ltpFR2	22	5	SKIRT	1319	n/a	n/a	0	0	0
994782	REC_WORD	wordpools/wasnorm_wordpool_576.txt	LTP329	ltpFR2	22	5	SHORTS	1293	n/a	n/a	0	0	0
998950	REC_WORD	wordpools/wasnorm_wordpool_576.txt	LTP329	ltpFR2	22	5	BLOUSE	139	n/a	n/a	0	0	0
1062455	WORD	wordpools/wasnorm_wordpool_576.txt	LTP329	ltpFR2	22	6	MEDAL	885	n/a	n/a	0	0	0
1064938	WORD	wordpools/wasnorm_wordpool_576.txt	LTP329	ltpFR2	22	6	XEROX	1628	n/a	n/a	0	0	0
1067653	WORD	wordpools/wasnorm_wordpool_576.txt	LTP329	ltpFR2	22	6	DUST	508	n/a	n/a	0	0	0
1070135	WORD	wordpools/wasnorm_wordpool_576.txt	LTP329	ltpFR2	22	6	HANDBAG	684	n/a	n/a	0	0	0
1072584	WORD	wordpools/wasnorm_wordpool_576.txt	LTP329	ltpFR2	22	6	ICING	732	n/a	n/a	0	0	0
1075332	WORD	wordpools/wasnorm_wordpool_576.txt	LTP329	ltpFR2	22	6	SHOVEL	1295	n/a	n/a	0	0	0
1077815	WORD	wordpools/wasnorm_wordpool_576.txt	LTP329	ltpFR2	22	6	CAFE	216	n/a	n/a	0	0	0
1080630	WORD	wordpools/wasnorm_wordpool_576.txt	LTP329	ltpFR2	22	6	SPOOL	1356	n/a	n/a	0	0	0
1083146	WORD	wordpools/wasnorm_wordpool_576.txt	LTP329	ltpFR2	22	6	STUDENT	1395	n/a	n/a	0	0	0
1085944	WORD	wordpools/wasnorm_wordpool_576.txt	LTP329	ltpFR2	22	6	COLLEGE	346	n/a	n/a	0	0	0
1088693	WORD	wordpools/wasnorm_wordpool_576.txt	LTP329	ltpFR2	22	6	CROWN	415	n/a	n/a	0	0	0
1091491	WORD	wordpools/wasnorm_wordpool_576.txt	LTP329	ltpFR2	22	6	STOMACH	1384	n/a	n/a	0	0	0
1094090	WORD	wordpools/wasnorm_wordpool_576.txt	LTP329	ltpFR2	22	6	TURKEY	1520	n/a	n/a	0	0	0
1096822	WORD	wordpools/wasnorm_wordpool_576.txt	LTP329	ltpFR2	22	6	ASIA	46	n/a	n/a	0	0	0
1099654	WORD	wordpools/wasnorm_wordpool_576.txt	LTP329	ltpFR2	22	6	VALLEY	1545	n/a	n/a	0	0	0
1102368	WORD	wordpools/wasnorm_wordpool_576.txt	LTP329	ltpFR2	22	6	GAVEL	627	n/a	n/a	0	0	0
1105151	WORD	wordpools/wasnorm_wordpool_576.txt	LTP329	ltpFR2	22	6	MILK	895	n/a	n/a	0	0	0
1107783	WORD	wordpools/wasnorm_wordpool_576.txt	LTP329	ltpFR2	22	6	DRINK	498	n/a	n/a	0	0	0
1110481	WORD	wordpools/wasnorm_wordpool_576.txt	LTP329	ltpFR2	22	6	SLOPE	1328	n/a	n/a	0	0	0
1113048	WORD	wordpools/wasnorm_wordpool_576.txt	LTP329	ltpFR2	22	6	CANYON	235	n/a	n/a	0	0	0
1115863	WORD	wordpools/wasnorm_wordpool_576.txt	LTP329	ltpFR2	22	6	CLOTHES	327	n/a	n/a	0	0	0
1118494	WORD	wordpools/wasnorm_wordpool_576.txt	LTP329	ltpFR2	22	6	TYPIST	1532	n/a	n/a	0	0	0
1121127	WORD	wordpools/wasnorm_wordpool_576.txt	LTP329	ltpFR2	22	6	DINER	467	n/a	n/a	0	0	0
1123676	WORD	wordpools/wasnorm_wordpool_576.txt	LTP329	ltpFR2	22	6	WASHER	1592	n/a	n/a	0	0	0
1125291	START	n/a	LTP329	ltpFR2	22	n/a	n/a	n/a	9	n/a	n/a	n/a	n/a
1126096	DISTRACTOR	n/a	LTP329	ltpFR2	22	6	n/a	n/a	n/a	n/a	0	0	0
1126124	PROB	n/a	LTP329	ltpFR2	22	n/a	n/a	n/a	9	17	9	6	2
1128923	PROB	n/a	LTP329	ltpFR2	22	n/a	n/a	n/a	9	20	7	8	5
1130156	PROB	n/a	LTP329	ltpFR2	22	n/a	n/a	n/a	9	11	7	2	2
1131254	PROB	n/a	LTP329	ltpFR2	22	n/a	n/a	n/a	9	10	7	2	1
1132671	PROB	n/a	LTP329	ltpFR2	22	n/a	n/a	n/a	9	12	8	3	1
1133787	PROB	n/a	LTP329	ltpFR2	22	n/a	n/a	n/a	9	12	1	2	9
1134937	PROB	n/a	LTP329	ltpFR2	22	n/a	n/a	n/a	9	14	7	1	6
1136385	PROB	n/a	LTP329	ltpFR2	22	n/a	n/a	n/a	9	5	3	1	1
1137468	PROB	n/a	LTP329	ltpFR2	22	n/a	n/a	n/a	9	14	4	5	5
1138618	PROB	n/a	LTP329	ltpFR2	22	n/a	n/a	n/a	9	5	1	3	1
1141117	PROB	n/a	LTP329	ltpFR2	22	n/a	n/a	n/a	9	19	7	6	6
1142616	PROB	n/a	LTP329	ltpFR2	22	n/a	n/a	n/a	9	18	5	7	6
1144815	PROB	n/a	LTP329	ltpFR2	22	n/a	n/a	n/a	9	14	5	1	8
1146148	PROB	n/a	LTP329	ltpFR2	22	n/a	n/a	n/a	9	11	1	6	4
1147313	PROB	n/a	LTP329	ltpFR2	22	n/a	n/a	n/a	9	18	4	6	8
1148692	STOP	n/a	LTP329	ltpFR2	22	n/a	n/a	n/a	9	n/a	n/a	n/a	n/a
1151147	REC_START	n/a	LTP329	ltpFR2	22	6	n/a	n/a	n/a	n/a	0	0	0
1152638	REC_WORD	wordpools/wasnorm_wordpool_576.txt	LTP329	ltpFR2	22	6	XEROX	1628	n/a	n/a	0	0	0
1153638	REC_WORD_VV	wordpools/wasnorm_wordpool_576.txt	LTP329	ltpFR2	22	6	<>	-1	n/a	n/a	0	0	0
1154550	REC_WORD	wordpools/wasnorm_wordpool_576.txt	LTP329	ltpFR2	22	6	SHOVEL	1295	n/a	n/a	0	0	0
1158512	REC_WORD	wordpools/wasnorm_wordpool_576.txt	LTP329	ltpFR2	22	6	DRINK	498	n/a	n/a	0	0	0
1169373	REC_WORD	wordpools/wasnorm_wordpool_576.txt	LTP329	ltpFR2	22	6	GAVEL	627	n/a	n/a	0	0	0
1178077	REC_WORD	wordpools/wasnorm_wordpool_576.txt	LTP329	ltpFR2	22	6	CLOTHING	-1	n/a	n/a	0	0	0
1187663	REC_WORD	wordpools/wasnorm_wordpool_576.txt	LTP329	ltpFR2	22	6	WRIST	1626	n/a	n/a	0	0	0
1209216	REC_WORD	wordpools/wasnorm_wordpool_576.txt	LTP329	ltpFR2	22	6	DUST	508	n/a	n/a	0	0	0
1223169	REC_WORD	wordpools/wasnorm_wordpool_576.txt	LTP329	ltpFR2	22	6	ICING	732	n/a	n/a	0	0	0
1241767	WORD	wordpools/wasnorm_wordpool_576.txt	LTP329	ltpFR2	22	7	RATTLE	1170	n/a	n/a	0	0	0
1244331	WORD	wordpools/wasnorm_wordpool_576.txt	LTP329	ltpFR2	22	7	SLIDE	1326	n/a	n/a	0	0	0
1246914	WORD	wordpools/wasnorm_wordpool_576.txt	LTP329	ltpFR2	22	7	PISTON	1076	n/a	n/a	0	0	0
1249763	WORD	wordpools/wasnorm_wordpool_576.txt	LTP329	ltpFR2	22	7	BRAKE	166	n/a	n/a	0	0	0
1252344	WORD	wordpools/wasnorm_wordpool_576.txt	LTP329	ltpFR2	22	7	JAPAN	749	n/a	n/a	0	0	0
1254877	WORD	wordpools/wasnorm_wordpool_576.txt	LTP329	ltpFR2	22	7	STAR	1373	n/a	n/a	0	0	0
1257458	WORD	wordpools/wasnorm_wordpool_576.txt	LTP329	ltpFR2	22	7	PIGEON	1065	n/a	n/a	0	0	0
1259974	WORD	wordpools/wasnorm_wordpool_576.txt	LTP329	ltpFR2	22	7	AGENT	10	n/a	n/a	0	0	0
1262623	WORD	wordpools/wasnorm_wordpool_576.txt	LTP329	ltpFR2	22	7	CLAMP	316	n/a	n/a	0	0	0
1265189	WORD	wordpools/wasnorm_wordpool_576.txt	LTP329	ltpFR2	22	7	SIDEWALK	1303	n/a	n/a	0	0	0
1267737	WORD	wordpools/wasnorm_wordpool_576.txt	LTP329	ltpFR2	22	7	LASER	801	n/a	n/a	0	0	0
1270352	WORD	wordpools/wasnorm_wordpool_576.txt	LTP329	ltpFR2	22	7	WASP	1593	n/a	n/a	0	0	0
1272852	WORD	wordpools/wasnorm_wordpool_576.txt	LTP329	ltpFR2	22	7	COMET	353	n/a	n/a	0	0	0
1275383	WORD	wordpools/wasnorm_wordpool_576.txt	LTP329	ltpFR2	22	7	INMATE	738	n/a	n/a	0	0	0
1278115	WORD	wordpools/wasnorm_wordpool_576.txt	LTP329	ltpFR2	22	7	BADGE	68	n/a	n/a	0	0	0
1280714	WORD	wordpools/wasnorm_wordpool_576.txt	LTP329	ltpFR2	22	7	PANTHER	1009	n/a	n/a	0	0	0
1283462	WORD	wordpools/wasnorm_wordpool_576.txt	LTP329	ltpFR2	22	7	BLOCKADE	137	n/a	n/a	0	0	0
1286078	WORD	wordpools/wasnorm_wordpool_576.txt	LTP329	ltpFR2	22	7	GLASS	639	n/a	n/a	0	0	0
1288877	WORD	wordpools/wasnorm_wordpool_576.txt	LTP329	ltpFR2	22	7	MAMMAL	861	n/a	n/a	0	0	0
1291508	WORD	wordpools/wasnorm_wordpool_576.txt	LTP329	ltpFR2	22	7	FLIPPER	580	n/a	n/a	0	0	0
1293991	WORD	wordpools/wasnorm_wordpool_576.txt	LTP329	ltpFR2	22	7	PEDAL	1037	n/a	n/a	0	0	0
1296623	WORD	wordpools/wasnorm_wordpool_576.txt	LTP329	ltpFR2	22	7	BRANDY	169	n/a	n/a	0	0	0
1299321	WORD	wordpools/wasnorm_wordpool_576.txt	LTP329	ltpFR2	22	7	BUG	187	n/a	n/a	0	0	0
1302137	WORD	wordpools/wasnorm_wordpool_576.txt	LTP329	ltpFR2	22	7	PERFUME	1049	n/a	n/a	0	0	0
1303753	START	n/a	LTP329	ltpFR2	22	n/a	n/a	n/a	10	n/a	n/a	n/a	n/a
1304936	DISTRACTOR	n/a	LTP329	ltpFR2	22	7	n/a	n/a	n/a	n/a	0	0	0
1304952	PROB	n/a	LTP329	ltpFR2	22	n/a	n/a	n/a	10	19	6	9	4
1309399	PROB	n/a	LTP329	ltpFR2	22	n/a	n/a	n/a	10	11	2	4	5
1311132	PROB	n/a	LTP329	ltpFR2	22	n/a	n/a	n/a	10	21	9	9	3
1312331	PROB	n/a	LTP329	ltpFR2	22	n/a	n/a	n/a	10	19	8	2	9
1313964	PROB	n/a	LTP329	ltpFR2	22	n/a	n/a	n/a	10	20	9	3	8
1315396	PROB	n/a	LTP329	ltpFR2	22	n/a	n/a	n/a	10	18	7	6	5
1318378	PROB	n/a	LTP329	ltpFR2	22	n/a	n/a	n/a	10	12	2	8	2
1319678	PROB	n/a	LTP329	ltpFR2	22	n/a	n/a	n/a	10	8	1	5	2
1321443	PROB	n/a	LTP329	ltpFR2	22	n/a	n/a	n/a	10	16	1	8	7
1323409	PROB	n/a	LTP329	ltpFR2	22	n/a	n/a	n/a	10	18	8	1	9
1325424	PROB	n/a	LTP329	ltpFR2	22	n/a	n/a	n/a	10	8	5	1	2
1327196	STOP	n/a	LTP329	ltpFR2	22	n/a	n/a	n/a	10	n/a	n/a	n/a	n/a
1329658	REC_START	n/a	LTP329	ltpFR2	22	7	n/a	n/a	n/a	n/a	0	0	0
1360745	REC_WORD	wordpools/wasnorm_wordpool_576.txt	LTP329	ltpFR2	22	7	PEBBLE	1035	n/a	n/a	0	0	0
1375253	REC_WORD	wordpools/wasnorm_wordpool_576.txt	LTP329	ltpFR2	22	7	BLOCKADE	137	n/a	n/a	0	0	0
1420277	WORD	wordpools/wasnorm_wordpool_576.txt	LTP329	ltpFR2	22	8	RACKET	1155	n/a	n/a	0	0	0
1423077	WORD	wordpools/wasnorm_wordpool_576.txt	LTP329	ltpFR2	22	8	KLEENEX	782	n/a	n/a	0	0	0
1425875	WORD	wordpools/wasnorm_wordpool_576.txt	LTP329	ltpFR2	22	8	OUTDOORS	987	n/a	n/a	0	0	0
1428340	WORD	wordpools/wasnorm_wordpool_576.txt	LTP329	ltpFR2	22	8	STICKER	1382	n/a	n/a	0	0	0
1430840	WORD	wordpools/wasnorm_wordpool_576.txt	LTP329	ltpFR2	22	8	RUST	1219	n/a	n/a	0	0	0
1433588	WORD	wordpools/wasnorm_wordpool_576.txt	LTP329	ltpFR2	22	8	GRAPE	654	n/a	n/a	0	0	0
1436187	WORD	wordpools/wasnorm_wordpool_576.txt	LTP329	ltpFR2	22	8	ARMY	39	n/a	n/a	0	0	0
1438986	WORD	wordpools/wasnorm_wordpool_576.txt	LTP329	ltpFR2	22	8	COLONEL	348	n/a	n/a	0	0	0
1441450	WORD	wordpools/wasnorm_wordpool_576.txt	LTP329	ltpFR2	22	8	FRUIT	610	n/a	n/a	0	0	0
1443933	WORD	wordpools/wasnorm_wordpool_576.txt	LTP329	ltpFR2	22	8	TOURIST	1488	n/a	n/a	0	0	0
1446498	WORD	wordpools/wasnorm_wordpool_576.txt	LTP329	ltpFR2	22	8	LUGGAGE	847	n/a	n/a	0	0	0
1449263	WORD	wordpools/wasnorm_wordpool_576.txt	LTP329	ltpFR2	22	8	POISON	1096	n/a	n/a	0	0	0
1451896	WORD	wordpools/wasnorm_wordpool_576.txt	LTP329	ltpFR2	22	8	ANTLER	29	n/a	n/a	0	0	0
1454678	WORD	wordpools/wasnorm_wordpool_576.txt	LTP329	ltpFR2	22	8	STAPLE	1371	n/a	n/a	0	0	0
1457325	WORD	wordpools/wasnorm_wordpool_576.txt	LTP329	ltpFR2	22	8	LADDER	793	n/a	n/a	0	0	0
1459975	WORD	wordpools/wasnorm_wordpool_576.txt	LTP329	ltpFR2	22	8	FOREHEAD	592	n/a	n/a	0	0	0
1462691	WORD	wordpools/wasnorm_wordpool_576.txt	LTP329	ltpFR2	22	8	HEADBAND	696	n/a	n/a	0	0	0
1465539	WORD	wordpools/wasnorm_wordpool_576.txt	LTP329	ltpFR2	22	8	GARDEN	623	n/a	n/a	0	0	0
1468303	WORD	wordpools/wasnorm_wordpool_576.txt	LTP329	ltpFR2	22	8	CHILD	299	n/a	n/a	0	0	0
1470986	WORD	wordpools/wasnorm_wordpool_576.txt	LTP329	ltpFR2	22	8	VIRUS	1572	n/a	n/a	0	0	0
1473535	WORD	wordpools/wasnorm_wordpool_576.txt	LTP329	ltpFR2	22	8	CROSS	413	n/a	n/a	0	0	0
1475984	WORD	wordpools/wasnorm_wordpool_576.txt	LTP329	ltpFR2	22	8	IGLOO	734	n/a	n/a	0	0	0
1478782	WORD	wordpools/wasnorm_wordpool_576.txt	LTP329	ltpFR2	22	8	FRANCE	601	n/a	n/a	0	0	0
1481464	WORD	wordpools/wasnorm_wordpool_576.txt	LTP329	ltpFR2	22	8	SUITCASE	1403	n/a	n/a	0	0	0
1483097	START	n/a	LTP329	ltpFR2	22	n/a	n/a	n/a	11	n/a	n/a	n/a	n/a
1484270	DISTRACTOR	n/a	LTP329	ltpFR2	22	8	n/a	n/a	n/a	n/a	0	0	0
1484279	PROB	n/a	LTP329	ltpFR2	22	n/a	n/a	n/a	11	15	8	3	4
1486411	PROB	n/a	LTP329	ltpFR2	22	n/a	n/a	n/a	11	21	8	8	5
1488244	PROB	n/a	LTP329	ltpFR2	22	n/a	n/a	n/a	11	19	6	9	4
1489977	PROB	n/a	LTP329	ltpFR2	22	n/a	n/a	n/a	11	9	2	4	3
1492076	PROB	n/a	LTP329	ltpFR2	22	n/a	n/a	n/a	11	9	1	7	1
1493424	PROB	n/a	LTP329	ltpFR2	22	n/a	n/a	n/a	11	12	5	5	2
1494440	PROB	n/a	LTP329	ltpFR2	22	n/a	n/a	n/a	11	20	7	6	7
1496456	PROB	n/a	LTP329	ltpFR2	22	n/a	n/a	n/a	11	6	2	3	1
1497673	PROB	n/a	LTP329	ltpFR2	22	n/a	n/a	n/a	11	12	9	1	2
1498739	PROB	n/a	LTP329	ltpFR2	22	n/a	n/a	n/a	11	15	5	1	9
1500354	PROB	n/a	LTP329	ltpFR2	22	n/a	n/a	n/a	11	19	7	8	4
1502270	PROB	n/a	LTP329	ltpFR2	22	n/a	n/a	n/a	11	7	1	5	1
1503687	PROB	n/a	LTP329	ltpFR2	22	n/a	n/a	n/a	11	9	1	5	3
1507097	STOP	n/a	LTP329	ltpFR2	22	n/a	n/a	n/a	11	n/a	n/a	n/a	n/a
1508936	REC_START	n/a	LTP329	ltpFR2	22	8	n/a	n/a	n/a	n/a	0	0	0
1510845	REC_WORD	wordpools/wasnorm_wordpool_576.txt	LTP329	ltpFR2	22	8	OUTDOORS	987	n/a	n/a	0	0	0
1512123	REC_WORD	wordpools/wasnorm_wordpool_576.txt	LTP329	ltpFR2	22	8	LADDER	793	n/a	n/a	0	0	0
1513071	REC_WORD	wordpools/wasnorm_wordpool_576.txt	LTP329	ltpFR2	22	8	FOREHEAD	592	n/a	n/a	0	0	0
1514332	REC_WORD	wordpools/wasnorm_wordpool_576.txt	LTP329	ltpFR2	22	8	HEADBAND	696	n/a	n/a	0	0	0
1515909	REC_WORD	wordpools/wasnorm_wordpool_576.txt	LTP329	ltpFR2	22	8	KLEENEX	782	n/a	n/a	0	0	0
1524647	REC_WORD	wordpools/wasnorm_wordpool_576.txt	LTP329	ltpFR2	22	8	ANTLER	29	n/a	n/a	0	0	0
1525599	REC_WORD	wordpools/wasnorm_wordpool_576.txt	LTP329	ltpFR2	22	8	COLONEL	348	n/a	n/a	0	0	0
1526705	REC_WORD	wordpools/wasnorm_wordpool_576.txt	LTP329	ltpFR2	22	8	ARMY	39	n/a	n/a	0	0	0
1527724	REC_WORD	wordpools/wasnorm_wordpool_576.txt	LTP329	ltpFR2	22	8	RACKET	1155	n/a	n/a	0	0	0
1528646	REC_WORD	wordpools/wasnorm_wordpool_576.txt	LTP329	ltpFR2	22	8	STICKER	1382	n/a	n/a	0	0	0
1529942	REC_WORD	wordpools/wasnorm_wordpool_576.txt	LTP329	ltpFR2	22	8	RUST	1219	n/a	n/a	0	0	0
1536108	REC_WORD	wordpools/wasnorm_wordpool_576.txt	LTP329	ltpFR2	22	8	LUGGAGE	847	n/a	n/a	0	0	0
1537911	REC_WORD	wordpools/wasnorm_wordpool_576.txt	LTP329	ltpFR2	22	8	SUITCASE	1403	n/a	n/a	0	0	0
1538911	REC_WORD_VV	wordpools/wasnorm_wordpool_576.txt	LTP329	ltpFR2	22	8	<>	-1	n/a	n/a	0	0	0
1559805	REC_WORD	wordpools/wasnorm_wordpool_576.txt	LTP329	ltpFR2	22	8	FRUIT	610	n/a	n/a	0	0	0
1585495	REST_REWET	n/a	LTP329	ltpFR2	22	8	n/a	n/a	n/a	n/a	0	0	0
1851914	WORD	wordpools/wasnorm_wordpool_576.txt	LTP329	ltpFR2	22	9	JUDGE	761	n/a	n/a	0	0	0
1854412	WORD	wordpools/wasnorm_wordpool_576.txt	LTP329	ltpFR2	22	9	BRIEFCASE	175	n/a	n/a	0	0	0
1857178	WORD	wordpools/wasnorm_wordpool_576.txt	LTP329	ltpFR2	22	9	CUPBOARD	425	n/a	n/a	0	0	0
1859677	WORD	wordpools/wasnorm_wordpool_576.txt	LTP329	ltpFR2	22	9	STATUE	1374	n/a	n/a	0	0	0
1862308	WORD	wordpools/wasnorm_wordpool_576.txt	LTP329	ltpFR2	22	9	CABIN	211	n/a	n/a	0	0	0
1865024	WORD	wordpools/wasnorm_wordpool_576.txt	LTP329	ltpFR2	22	9	OINTMENT	974	n/a	n/a	0	0	0
1867488	WORD	wordpools/wasnorm_wordpool_576.txt	LTP329	ltpFR2	22	9	KNAPSACK	783	n/a	n/a	0	0	0
1870005	WORD	wordpools/wasnorm_wordpool_576.txt	LTP329	ltpFR2	22	9	SPHINX	1349	n/a	n/a	0	0	0
1872687	WORD	wordpools/wasnorm_wordpool_576.txt	LTP329	ltpFR2	22	9	COURSE	390	n/a	n/a	0	0	0
1875418	WORD	wordpools/wasnorm_wordpool_576.txt	LTP329	ltpFR2	22	9	MOTOR	922	n/a	n/a	0	0	0
1878134	WORD	wordpools/wasnorm_wordpool_576.txt	LTP329	ltpFR2	22	9	DASHBOARD	441	n/a	n/a	0	0	0
1880600	WORD	wordpools/wasnorm_wordpool_576.txt	LTP329	ltpFR2	22	9	FIDDLE	561	n/a	n/a	0	0	0
1883347	WORD	wordpools/wasnorm_wordpool_576.txt	LTP329	ltpFR2	22	9	DRESS	495	n/a	n/a	0	0	0
1885880	WORD	wordpools/wasnorm_wordpool_576.txt	LTP329	ltpFR2	22	9	STAMP	1370	n/a	n/a	0	0	0
1888562	WORD	wordpools/wasnorm_wordpool_576.txt	LTP329	ltpFR2	22	9	COOK	372	n/a	n/a	0	0	0
1891161	WORD	wordpools/wasnorm_wordpool_576.txt	LTP329	ltpFR2	22	9	MILDEW	893	n/a	n/a	0	0	0
1893793	WORD	wordpools/wasnorm_wordpool_576.txt	LTP329	ltpFR2	22	9	SHELTER	1282	n/a	n/a	0	0	0
1896324	WORD	wordpools/wasnorm_wordpool_576.txt	LTP329	ltpFR2	22	9	SPOUSE	1358	n/a	n/a	0	0	0
1899140	WORD	wordpools/wasnorm_wordpool_576.txt	LTP329	ltpFR2	22	9	BEAVER	109	n/a	n/a	0	0	0
1901739	WORD	wordpools/wasnorm_wordpool_576.txt	LTP329	ltpFR2	22	9	TREAT	1501	n/a	n/a	0	0	0
1904237	WORD	wordpools/wasnorm_wordpool_576.txt	LTP329	ltpFR2	22	9	EGYPT	519	n/a	n/a	0	0	0
1907003	WORD	wordpools/wasnorm_wordpool_576.txt	LTP329	ltpFR2	22	9	TEMPLE	1448	n/a	n/a	0	0	0
1909752	WORD	wordpools/wasnorm_wordpool_576.txt	LTP329	ltpFR2	22	9	CABBAGE	210	n/a	n/a	0	0	0
1912516	WORD	wordpools/wasnorm_wordpool_576.txt	LTP329	ltpFR2	22	9	MUMMY	932	n/a	n/a	0	0	0
1914133	START	n/a	LTP329	ltpFR2	22	n/a	n/a	n/a	12	n/a	n/a	n/a	n/a
1914979	DISTRACTOR	n/a	LTP329	ltpFR2	22	9	n/a	n/a	n/a	n/a	0	0	0
1914999	PROB	n/a	LTP329	ltpFR2	22	n/a	n/a	n/a	12	17	4	7	6
1917864	PROB	n/a	LTP329	ltpFR2	22	n/a	n/a	n/a	12	12	2	9	1
1919197	PROB	n/a	LTP329	ltpFR2	22	n/a	n/a	n/a	12	8	3	2	3
1921180	PROB	n/a	LTP329	ltpFR2	22	n/a	n/a	n/a	12	14	6	4	4
1922345	PROB	n/a	LTP329	ltpFR2	22	n/a	n/a	n/a	12	7	1	4	2
1924294	PROB	n/a	LTP329	ltpFR2	22	n/a	n/a	n/a	12	13	6	3	4
1925860	PROB	n/a	LTP329	ltpFR2	22	n/a	n/a	n/a	12	15	7	3	5
1928009	PROB	n/a	LTP329	ltpFR2	22	n/a	n/a	n/a	12	12	1	4	7
1929176	PROB	n/a	LTP329	ltpFR2	22	n/a	n/a	n/a	12	10	3	1	6
1931340	PROB	n/a	LTP329	ltpFR2	22	n/a	n/a	n/a	12	19	5	7	7
1932540	PROB	n/a	LTP329	ltpFR2	22	n/a	n/a	n/a	12	16	5	4	7
1934190	PROB	n/a	LTP329	ltpFR2	22	n/a	n/a	n/a	12	20	6	5	9
1936321	PROB	n/a	LTP329	ltpFR2	22	n/a	n/a	n/a	12	11	1	9	1
1937355	STOP	n/a	LTP329	ltpFR2	22	n/a	n/a	n/a	12	n/a	n/a	n/a	n/a
1939937	REC_START	n/a	LTP329	ltpFR2	22	9	n/a	n/a	n/a	n/a	0	0	0
1941976	REC_WORD	wordpools/wasnorm_wordpool_576.txt	LTP329	ltpFR2	22	9	JUDGE	761	n/a	n/a	0	0	0
1942976	REC_WORD_VV	wordpools/wasnorm_wordpool_576.txt	LTP329	ltpFR2	22	9	<>	-1	n/a	n/a	0	0	0
1944190	REC_WORD	wordpools/wasnorm_wordpool_576.txt	LTP329	ltpFR2	22	9	CUPBOARD	425	n/a	n/a	0	0	0
1949661	REC_WORD	wordpools/wasnorm_wordpool_576.txt	LTP329	ltpFR2	22	9	KNAPSACK	783	n/a	n/a	0	0	0
1950661	REC_WORD_VV	wordpools/wasnorm_wordpool_576.txt	LTP329	ltpFR2	22	9	<>	-1	n/a	n/a	0	0	0
1952109	REC_WORD	wordpools/wasnorm_wordpool_576.txt	LTP329	ltpFR2	22	9	BRIEFCASE	175	n/a	n/a	0	0	0
1953109	REC_WORD_VV	wordpools/wasnorm_wordpool_576.txt	LTP329	ltpFR2	22	9	<>	-1	n/a	n/a	0	0	0
1957671	REC_WORD	wordpools/wasnorm_wordpool_576.txt	LTP329	ltpFR2	22	9	STATUE	1374	n/a	n/a	0	0	0
1966674	REC_WORD	wordpools/wasnorm_wordpool_576.txt	LTP329	ltpFR2	22	9	SPOUSE	1358	n/a	n/a	0	0	0
1967674	REC_WORD_VV	wordpools/wasnorm_wordpool_576.txt	LTP329	ltpFR2	22	9	<>	-1	n/a	n/a	0	0	0
1968297	REC_WORD	wordpools/wasnorm_wordpool_576.txt	LTP329	ltpFR2	22	9	DRESS	495	n/a	n/a	0	0	0
1970021	REC_WORD	wordpools/wasnorm_wordpool_576.txt	LTP329	ltpFR2	22	9	SHELTER	1282	n/a	n/a	0	0	0
1973481	REC_WORD	wordpools/wasnorm_wordpool_576.txt	LTP329	ltpFR2	22	9	COTTAGE	384	n/a	n/a	0	0	0
1974708	REC_WORD	wordpools/wasnorm_wordpool_576.txt	LTP329	ltpFR2	22	9	CABBAGE	210	n/a	n/a	0	0	0
1987273	REC_WORD	wordpools/wasnorm_wordpool_576.txt	LTP329	ltpFR2	22	9	BEAVER	109	n/a	n/a	0	0	0
2001148	REC_WORD	wordpools/wasnorm_wordpool_576.txt	LTP329	ltpFR2	22	9	OINTMENT	974	n/a	n/a	0	0	0
2010263	REC_WORD	wordpools/wasnorm_wordpool_576.txt	LTP329	ltpFR2	22	9	DASHBOARD	441	n/a	n/a	0	0	0
2011970	REC_WORD	wordpools/wasnorm_wordpool_576.txt	LTP329	ltpFR2	22	9	MOTOR	922	n/a	n/a	0	0	0
2013052	REC_WORD	wordpools/wasnorm_wordpool_576.txt	LTP329	ltpFR2	22	9	COURSE	390	n/a	n/a	0	0	0
2014158	REC_WORD	wordpools/wasnorm_wordpool_576.txt	LTP329	ltpFR2	22	9	FIDDLE	561	n/a	n/a	0	0	0
2030575	DISTRACTOR	n/a	LTP329	ltpFR2	22	10	n/a	n/a	n/a	n/a	0	0	0
2030575	START	n/a	LTP329	ltpFR2	22	n/a	n/a	n/a	13	n/a	n/a	n/a	n/a
2030608	PROB	n/a	LTP329	ltpFR2	22	n/a	n/a	n/a	13	1	4	4	2
2033124	PROB	n/a	LTP329	ltpFR2	22	n/a	n/a	n/a	13	11	4	4	3
2035589	PROB	n/a	LTP329	ltpFR2	22	n/a	n/a	n/a	13	15	8	3	4
2037971	PROB	n/a	LTP329	ltpFR2	22	n/a	n/a	n/a	13	18	4	9	7
2040519	PROB	n/a	LTP329	ltpFR2	22	n/a	n/a	n/a	13	21	8	4	9
2044951	PROB	n/a	LTP329	ltpFR2	22	n/a	n/a	n/a	13	13	7	3	3
2046316	PROB	n/a	LTP329	ltpFR2	22	n/a	n/a	n/a	13	15	7	5	3
2049248	PROB	n/a	LTP329	ltpFR2	22	n/a	n/a	n/a	13	17	4	7	6
2051447	PROB	n/a	LTP329	ltpFR2	22	n/a	n/a	n/a	13	17	7	4	6
2054572	STOP	n/a	LTP329	ltpFR2	22	n/a	n/a	n/a	13	n/a	n/a	n/a	n/a
2055629	WORD	wordpools/wasnorm_wordpool_576.txt	LTP329	ltpFR2	22	10	BELLY	119	n/a	n/a	0	0	0
2058178	WORD	wordpools/wasnorm_wordpool_576.txt	LTP329	ltpFR2	22	10	BODY	145	n/a	n/a	0	0	0
2060694	WORD	wordpools/wasnorm_wordpool_576.txt	LTP329	ltpFR2	22	10	HARP	689	n/a	n/a	0	0	0
2063208	WORD	wordpools/wasnorm_wordpool_576.txt	LTP329	ltpFR2	22	10	DRILL	497	n/a	n/a	0	0	0
2065691	WORD	wordpools/wasnorm_wordpool_576.txt	LTP329	ltpFR2	22	10	GYMNAST	675	n/a	n/a	0	0	0
2068289	WORD	wordpools/wasnorm_wordpool_576.txt	LTP329	ltpFR2	22	10	SEAL	1262	n/a	n/a	0	0	0
2070738	WORD	wordpools/wasnorm_wordpool_576.txt	LTP329	ltpFR2	22	10	LEOPARD	812	n/a	n/a	0	0	0
2073320	WORD	wordpools/wasnorm_wordpool_576.txt	LTP329	ltpFR2	22	10	BLADE	134	n/a	n/a	0	0	0
2076052	WORD	wordpools/wasnorm_wordpool_576.txt	LTP329	ltpFR2	22	10	PALACE	1006	n/a	n/a	0	0	0
2078500	WORD	wordpools/wasnorm_wordpool_576.txt	LTP329	ltpFR2	22	10	TABLE	1426	n/a	n/a	0	0	0
2081083	WORD	wordpools/wasnorm_wordpool_576.txt	LTP329	ltpFR2	22	10	THRONE	1461	n/a	n/a	0	0	0
2083782	WORD	wordpools/wasnorm_wordpool_576.txt	LTP329	ltpFR2	22	10	DRAGON	492	n/a	n/a	0	0	0
2086564	WORD	wordpools/wasnorm_wordpool_576.txt	LTP329	ltpFR2	22	10	SWORD	1423	n/a	n/a	0	0	0
2089013	WORD	wordpools/wasnorm_wordpool_576.txt	LTP329	ltpFR2	22	10	BANJO	82	n/a	n/a	0	0	0
2091645	WORD	wordpools/wasnorm_wordpool_576.txt	LTP329	ltpFR2	22	10	MARINE	869	n/a	n/a	0	0	0
2094110	WORD	wordpools/wasnorm_wordpool_576.txt	LTP329	ltpFR2	22	10	STAKE	1368	n/a	n/a	0	0	0
2096759	WORD	wordpools/wasnorm_wordpool_576.txt	LTP329	ltpFR2	22	10	LETTUCE	814	n/a	n/a	0	0	0
2099591	WORD	wordpools/wasnorm_wordpool_576.txt	LTP329	ltpFR2	22	10	GRAVEL	659	n/a	n/a	0	0	0
2102222	WORD	wordpools/wasnorm_wordpool_576.txt	LTP329	ltpFR2	22	10	RIVER	1194	n/a	n/a	0	0	0
2104788	WORD	wordpools/wasnorm_wordpool_576.txt	LTP329	ltpFR2	22	10	FOOTBALL	591	n/a	n/a	0	0	0
2107319	WORD	wordpools/wasnorm_wordpool_576.txt	LTP329	ltpFR2	22	10	AWARD	63	n/a	n/a	0	0	0
2109836	WORD	wordpools/wasnorm_wordpool_576.txt	LTP329	ltpFR2	22	10	HOOK	715	n/a	n/a	0	0	0
2112618	WORD	wordpools/wasnorm_wordpool_576.txt	LTP329	ltpFR2	22	10	UNCLE	1536	n/a	n/a	0	0	0
2115382	WORD	wordpools/wasnorm_wordpool_576.txt	LTP329	ltpFR2	22	10	COUSIN	392	n/a	n/a	0	0	0
2116999	START	n/a	LTP329	ltpFR2	22	n/a	n/a	n/a	14	n/a	n/a	n/a	n/a
2118145	DISTRACTOR	n/a	LTP329	ltpFR2	22	10	n/a	n/a	n/a	n/a	0	0	0
2118165	PROB	n/a	LTP329	ltpFR2	22	n/a	n/a	n/a	14	12	6	1	5
2119897	PROB	n/a	LTP329	ltpFR2	22	n/a	n/a	n/a	14	16	3	5	8
2121563	PROB	n/a	LTP329	ltpFR2	22	n/a	n/a	n/a	14	13	4	6	3
2122829	PROB	n/a	LTP329	ltpFR2	22	n/a	n/a	n/a	14	17	5	4	8
2124878	PROB	n/a	LTP329	ltpFR2	22	n/a	n/a	n/a	14	23	7	7	9
2126577	PROB	n/a	LTP329	ltpFR2	22	n/a	n/a	n/a	14	21	8	5	8
2128077	PROB	n/a	LTP329	ltpFR2	22	n/a	n/a	n/a	14	15	5	2	8
2129743	PROB	n/a	LTP329	ltpFR2	22	n/a	n/a	n/a	14	19	8	5	6
2131542	PROB	n/a	LTP329	ltpFR2	22	n/a	n/a	n/a	14	20	8	9	3
2133791	PROB	n/a	LTP329	ltpFR2	22	n/a	n/a	n/a	14	13	1	4	8
2135255	PROB	n/a	LTP329	ltpFR2	22	n/a	n/a	n/a	14	23	7	7	9
2136956	PROB	n/a	LTP329	ltpFR2	22	n/a	n/a	n/a	14	8	2	5	1
2138072	PROB	n/a	LTP329	ltpFR2	22	n/a	n/a	n/a	14	23	5	9	9
2139900	STOP	n/a	LTP329	ltpFR2	22	n/a	n/a	n/a	14	n/a	n/a	n/a	n/a
2142821	REC_START	n/a	LTP329	ltpFR2	22	10	n/a	n/a	n/a	n/a	0	0	0
2147264	REC_WORD	wordpools/wasnorm_wordpool_576.txt	LTP329	ltpFR2	22	10	STAKE	1368	n/a	n/a	0	0	0
2148486	REC_WORD	wordpools/wasnorm_wordpool_576.txt	LTP329	ltpFR2	22	10	BLADE	134	n/a	n/a	0	0	0
2149751	REC_WORD	wordpools/wasnorm_wordpool_576.txt	LTP329	ltpFR2	22	10	SWORD	1423	n/a	n/a	0	0	0
2151072	REC_WORD	wordpools/wasnorm_wordpool_576.txt	LTP329	ltpFR2	22	10	DRAGON	492	n/a	n/a	0	0	0
2152316	REC_WORD	wordpools/wasnorm_wordpool_576.txt	LTP329	ltpFR2	22	10	PALACE	1006	n/a	n/a	0	0	0
2155684	REC_WORD	wordpools/wasnorm_wordpool_576.txt	LTP329	ltpFR2	22	10	THRONE	1461	n/a	n/a	0	0	0
2167942	REC_WORD	wordpools/wasnorm_wordpool_576.txt	LTP329	ltpFR2	22	10	DRILL	497	n/a	n/a	0	0	0
2169396	REC_WORD	wordpools/wasnorm_wordpool_576.txt	LTP329	ltpFR2	22	10	HARP	689	n/a	n/a	0	0	0
2199787	REC_WORD	wordpools/wasnorm_wordpool_576.txt	LTP329	ltpFR2	22	10	RIVER	1194	n/a	n/a	0	0	0
2233473	DISTRACTOR	n/a	LTP329	ltpFR2	22	11	n/a	n/a	n/a	n/a	0	0	0
2233474	START	n/a	LTP329	ltpFR2	22	n/a	n/a	n/a	15	n/a	n/a	n/a	n/a
2233507	PROB	n/a	LTP329	ltpFR2	22	n/a	n/a	n/a	15	19	9	9	1
2234957	PROB	n/a	LTP329	ltpFR2	22	n/a	n/a	n/a	15	19	9	1	9
2235973	PROB	n/a	LTP329	ltpFR2	22	n/a	n/a	n/a	15	11	6	2	3
2237238	PROB	n/a	LTP329	ltpFR2	22	n/a	n/a	n/a	15	21	5	9	7
2240270	PROB	n/a	LTP329	ltpFR2	22	n/a	n/a	n/a	15	23	9	6	8
2242636	PROB	n/a	LTP329	ltpFR2	22	n/a	n/a	n/a	15	6	1	2	3
2243919	PROB	n/a	LTP329	ltpFR2	22	n/a	n/a	n/a	15	13	5	6	2
2245185	PROB	n/a	LTP329	ltpFR2	22	n/a	n/a	n/a	15	17	1	7	9
2247084	PROB	n/a	LTP329	ltpFR2	22	n/a	n/a	n/a	15	19	8	3	8
2249883	PROB	n/a	LTP329	ltpFR2	22	n/a	n/a	n/a	15	16	6	1	9
2251498	PROB	n/a	LTP329	ltpFR2	22	n/a	n/a	n/a	15	14	2	3	9
2253148	PROB	n/a	LTP329	ltpFR2	22	n/a	n/a	n/a	15	15	7	6	2
2254864	PROB	n/a	LTP329	ltpFR2	22	n/a	n/a	n/a	15	17	7	9	1
2256315	STOP	n/a	LTP329	ltpFR2	22	n/a	n/a	n/a	15	n/a	n/a	n/a	n/a
2258378	WORD	wordpools/wasnorm_wordpool_576.txt	LTP329	ltpFR2	22	11	PAPER	1011	n/a	n/a	0	0	0
2260861	WORD	wordpools/wasnorm_wordpool_576.txt	LTP329	ltpFR2	22	11	PARENT	1013	n/a	n/a	0	0	0
2263475	WORD	wordpools/wasnorm_wordpool_576.txt	LTP329	ltpFR2	22	11	SIBLING	1301	n/a	n/a	0	0	0
2266307	WORD	wordpools/wasnorm_wordpool_576.txt	LTP329	ltpFR2	22	11	GIRL	637	n/a	n/a	0	0	0
2269090	WORD	wordpools/wasnorm_wordpool_576.txt	LTP329	ltpFR2	22	11	CRICKET	408	n/a	n/a	0	0	0
2271839	WORD	wordpools/wasnorm_wordpool_576.txt	LTP329	ltpFR2	22	11	SPIDER	1351	n/a	n/a	0	0	0
2274621	WORD	wordpools/wasnorm_wordpool_576.txt	LTP329	ltpFR2	22	11	THIEF	1456	n/a	n/a	0	0	0
2277268	WORD	wordpools/wasnorm_wordpool_576.txt	LTP329	ltpFR2	22	11	SCULPTURE	1258	n/a	n/a	0	0	0
2279951	WORD	wordpools/wasnorm_wordpool_576.txt	LTP329	ltpFR2	22	11	CAMEL	223	n/a	n/a	0	0	0
2282567	WORD	wordpools/wasnorm_wordpool_576.txt	LTP329	ltpFR2	22	11	VAGRANT	1544	n/a	n/a	0	0	0
2285182	WORD	wordpools/wasnorm_wordpool_576.txt	LTP329	ltpFR2	22	11	FRAGRANCE	599	n/a	n/a	0	0	0
2287914	WORD	wordpools/wasnorm_wordpool_576.txt	LTP329	ltpFR2	22	11	FIREPLACE	570	n/a	n/a	0	0	0
2290679	WORD	wordpools/wasnorm_wordpool_576.txt	LTP329	ltpFR2	22	11	BREAST	171	n/a	n/a	0	0	0
2293178	WORD	wordpools/wasnorm_wordpool_576.txt	LTP329	ltpFR2	22	11	JELLO	754	n/a	n/a	0	0	0
2295760	WORD	wordpools/wasnorm_wordpool_576.txt	LTP329	ltpFR2	22	11	COBRA	336	n/a	n/a	0	0	0
2298408	WORD	wordpools/wasnorm_wordpool_576.txt	LTP329	ltpFR2	22	11	PREACHER	1119	n/a	n/a	0	0	0
2301256	WORD	wordpools/wasnorm_wordpool_576.txt	LTP329	ltpFR2	22	11	HUMAN	726	n/a	n/a	0	0	0
2303739	WORD	wordpools/wasnorm_wordpool_576.txt	LTP329	ltpFR2	22	11	BUCKET	184	n/a	n/a	0	0	0
2306304	WORD	wordpools/wasnorm_wordpool_576.txt	LTP329	ltpFR2	22	11	BATHTUB	100	n/a	n/a	0	0	0
2308820	WORD	wordpools/wasnorm_wordpool_576.txt	LTP329	ltpFR2	22	11	GALLON	618	n/a	n/a	0	0	0
2311368	WORD	wordpools/wasnorm_wordpool_576.txt	LTP329	ltpFR2	22	11	HAND	683	n/a	n/a	0	0	0
2314001	WORD	wordpools/wasnorm_wordpool_576.txt	LTP329	ltpFR2	22	11	POSSUM	1112	n/a	n/a	0	0	0
2316633	WORD	wordpools/wasnorm_wordpool_576.txt	LTP329	ltpFR2	22	11	BURGLAR	200	n/a	n/a	0	0	0
2319297	WORD	wordpools/wasnorm_wordpool_576.txt	LTP329	ltpFR2	22	11	ONION	977	n/a	n/a	0	0	0
2320931	START	n/a	LTP329	ltpFR2	22	n/a	n/a	n/a	16	n/a	n/a	n/a	n/a
2321891	DISTRACTOR	n/a	LTP329	ltpFR2	22	11	n/a	n/a	n/a	n/a	0	0	0
2321897	PROB	n/a	LTP329	ltpFR2	22	n/a	n/a	n/a	16	6	1	3	2
2326361	PROB	n/a	LTP329	ltpFR2	22	n/a	n/a	n/a	16	13	2	4	7
2327927	PROB	n/a	LTP329	ltpFR2	22	n/a	n/a	n/a	16	15	3	3	9
2329127	PROB	n/a	LTP329	ltpFR2	22	n/a	n/a	n/a	16	14	6	6	2
2330325	PROB	n/a	LTP329	ltpFR2	22	n/a	n/a	n/a	16	11	2	2	7
2332308	PROB	n/a	LTP329	ltpFR2	22	n/a	n/a	n/a	16	19	7	6	6
2333841	PROB	n/a	LTP329	ltpFR2	22	n/a	n/a	n/a	16	18	7	7	4
2335091	PROB	n/a	LTP329	ltpFR2	22	n/a	n/a	n/a	16	20	8	4	8
2337673	PROB	n/a	LTP329	ltpFR2	22	n/a	n/a	n/a	16	17	5	6	6
2339089	PROB	n/a	LTP329	ltpFR2	22	n/a	n/a	n/a	16	17	9	3	5
2341436	PROB	n/a	LTP329	ltpFR2	22	n/a	n/a	n/a	16	19	2	9	8
2343003	PROB	n/a	LTP329	ltpFR2	22	n/a	n/a	n/a	16	11	6	3	2
2344164	STOP	n/a	LTP329	ltpFR2	22	n/a	n/a	n/a	16	n/a	n/a	n/a	n/a
2346869	REC_START	n/a	LTP329	ltpFR2	22	11	n/a	n/a	n/a	n/a	0	0	0
2348901	REC_WORD	wordpools/wasnorm_wordpool_576.txt	LTP329	ltpFR2	22	11	PARENT	1013	n/a	n/a	0	0	0
2349942	REC_WORD	wordpools/wasnorm_wordpool_576.txt	LTP329	ltpFR2	22	11	SIBLING	1301	n/a	n/a	0	0	0
2351664	REC_WORD	wordpools/wasnorm_wordpool_576.txt	LTP329	ltpFR2	22	11	GIRL	637	n/a	n/a	0	0	0
2355131	REC_WORD	wordpools/wasnorm_wordpool_576.txt	LTP329	ltpFR2	22	11	CRICKET	408	n/a	n/a	0	0	0
2356369	REC_WORD	wordpools/wasnorm_wordpool_576.txt	LTP329	ltpFR2	22	11	SPIDER	1351	n/a	n/a	0	0	0
2363642	REC_WORD	wordpools/wasnorm_wordpool_576.txt	LTP329	ltpFR2	22	11	SCULPTURE	1258	n/a	n/a	0	0	0
2364642	REC_WORD_VV	wordpools/wasnorm_wordpool_576.txt	LTP329	ltpFR2	22	11	<>	-1	n/a	n/a	0	0	0
2367907	REC_WORD	wordpools/wasnorm_wordpool_576.txt	LTP329	ltpFR2	22	11	BUCKET	184	n/a	n/a	0	0	0
2372700	REC_WORD	wordpools/wasnorm_wordpool_576.txt	LTP329	ltpFR2	22	11	FRAGRANCE	599	n/a	n/a	0	0	0
2373903	REC_WORD	wordpools/wasnorm_wordpool_576.txt	LTP329	ltpFR2	22	11	VAGRANT	1544	n/a	n/a	0	0	0
2375361	REC_WORD	wordpools/wasnorm_wordpool_576.txt	LTP329	ltpFR2	22	11	CAMEL	223	n/a	n/a	0	0	0
2437489	DISTRACTOR	n/a	LTP329	ltpFR2	22	12	n/a	n/a	n/a	n/a	0	0	0
2437489	START	n/a	LTP329	ltpFR2	22	n/a	n/a	n/a	17	n/a	n/a	n/a	n/a
2437522	PROB	n/a	LTP329	ltpFR2	22	n/a	n/a	n/a	17	26	9	9	8
2439888	PROB	n/a	LTP329	ltpFR2	22	n/a	n/a	n/a	17	14	6	3	5
2442004	PROB	n/a	LTP329	ltpFR2	22	n/a	n/a	n/a	17	13	4	1	8
2443670	PROB	n/a	LTP329	ltpFR2	22	n/a	n/a	n/a	17	15	4	4	9
2445202	PROB	n/a	LTP329	ltpFR2	22	n/a	n/a	n/a	17	11	2	6	3
2448184	PROB	n/a	LTP329	ltpFR2	22	n/a	n/a	n/a	17	20	9	2	9
2449534	PROB	n/a	LTP329	ltpFR2	22	n/a	n/a	n/a	17	16	9	5	2
2451733	PROB	n/a	LTP329	ltpFR2	22	n/a	n/a	n/a	17	15	8	5	2
2453832	PROB	n/a	LTP329	ltpFR2	22	n/a	n/a	n/a	17	17	7	1	9
2455114	PROB	n/a	LTP329	ltpFR2	22	n/a	n/a	n/a	17	17	9	5	3
2457462	PROB	n/a	LTP329	ltpFR2	22	n/a	n/a	n/a	17	10	4	3	3
2459179	PROB	n/a	LTP329	ltpFR2	22	n/a	n/a	n/a	17	13	3	7	3
2460467	STOP	n/a	LTP329	ltpFR2	22	n/a	n/a	n/a	17	n/a	n/a	n/a	n/a
2462460	WORD	wordpools/wasnorm_wordpool_576.txt	LTP329	ltpFR2	22	12	CUSTARD	429	n/a	n/a	0	0	0
2464943	WORD	wordpools/wasnorm_wordpool_576.txt	LTP329	ltpFR2	22	12	CRIB	407	n/a	n/a	0	0	0
2467491	WORD	wordpools/wasnorm_wordpool_576.txt	LTP329	ltpFR2	22	12	PASTRY	1022	n/a	n/a	0	0	0
2470272	WORD	wordpools/wasnorm_wordpool_576.txt	LTP329	ltpFR2	22	12	MARSH	874	n/a	n/a	0	0	0
2473022	WORD	wordpools/wasnorm_wordpool_576.txt	LTP329	ltpFR2	22	12	YACHT	1629	n/a	n/a	0	0	0
2475737	WORD	wordpools/wasnorm_wordpool_576.txt	LTP329	ltpFR2	22	12	PLAYGROUND	1087	n/a	n/a	0	0	0
2478368	WORD	wordpools/wasnorm_wordpool_576.txt	LTP329	ltpFR2	22	12	TRACTOR	1493	n/a	n/a	0	0	0
2480851	WORD	wordpools/wasnorm_wordpool_576.txt	LTP329	ltpFR2	22	12	TRUCK	1512	n/a	n/a	0	0	0
2483567	WORD	wordpools/wasnorm_wordpool_576.txt	LTP329	ltpFR2	22	12	ROBIN	1199	n/a	n/a	0	0	0
2486348	WORD	wordpools/wasnorm_wordpool_576.txt	LTP329	ltpFR2	22	12	SODA	1341	n/a	n/a	0	0	0
2489064	WORD	wordpools/wasnorm_wordpool_576.txt	LTP329	ltpFR2	22	12	PADDING	999	n/a	n/a	0	0	0
2491746	WORD	wordpools/wasnorm_wordpool_576.txt	LTP329	ltpFR2	22	12	HOOD	714	n/a	n/a	0	0	0
2494444	WORD	wordpools/wasnorm_wordpool_576.txt	LTP329	ltpFR2	22	12	HAWK	692	n/a	n/a	0	0	0
2497276	WORD	wordpools/wasnorm_wordpool_576.txt	LTP329	ltpFR2	22	12	TAXI	1438	n/a	n/a	0	0	0
2499742	WORD	wordpools/wasnorm_wordpool_576.txt	LTP329	ltpFR2	22	12	LODGE	839	n/a	n/a	0	0	0
2502373	WORD	wordpools/wasnorm_wordpool_576.txt	LTP329	ltpFR2	22	12	DORM	488	n/a	n/a	0	0	0
2505123	WORD	wordpools/wasnorm_wordpool_576.txt	LTP329	ltpFR2	22	12	DRAWING	494	n/a	n/a	0	0	0
2507938	WORD	wordpools/wasnorm_wordpool_576.txt	LTP329	ltpFR2	22	12	PORTRAIT	1111	n/a	n/a	0	0	0
2510553	WORD	wordpools/wasnorm_wordpool_576.txt	LTP329	ltpFR2	22	12	MISSILE	900	n/a	n/a	0	0	0
2513268	WORD	wordpools/wasnorm_wordpool_576.txt	LTP329	ltpFR2	22	12	PEPPER	1047	n/a	n/a	0	0	0
2515867	WORD	wordpools/wasnorm_wordpool_576.txt	LTP329	ltpFR2	22	12	CHAUFFEUR	283	n/a	n/a	0	0	0
2518515	WORD	wordpools/wasnorm_wordpool_576.txt	LTP329	ltpFR2	22	12	SILK	1307	n/a	n/a	0	0	0
2521230	WORD	wordpools/wasnorm_wordpool_576.txt	LTP329	ltpFR2	22	12	CRATER	400	n/a	n/a	0	0	0
2524013	WORD	wordpools/wasnorm_wordpool_576.txt	LTP329	ltpFR2	22	12	PILOT	1070	n/a	n/a	0	0	0
2525630	START	n/a	LTP329	ltpFR2	22	n/a	n/a	n/a	18	n/a	n/a	n/a	n/a
2526465	DISTRACTOR	n/a	LTP329	ltpFR2	22	12	n/a	n/a	n/a	n/a	0	0	0
2526478	PROB	n/a	LTP329	ltpFR2	22	n/a	n/a	n/a	18	20	9	9	2
2528344	PROB	n/a	LTP329	ltpFR2	22	n/a	n/a	n/a	18	16	7	6	3
2530743	PROB	n/a	LTP329	ltpFR2	22	n/a	n/a	n/a	18	17	8	7	2
2532559	PROB	n/a	LTP329	ltpFR2	22	n/a	n/a	n/a	18	17	7	9	1
2534042	PROB	n/a	LTP329	ltpFR2	22	n/a	n/a	n/a	18	20	9	5	6
2535641	PROB	n/a	LTP329	ltpFR2	22	n/a	n/a	n/a	18	19	3	8	8
2537790	PROB	n/a	LTP329	ltpFR2	22	n/a	n/a	n/a	18	16	2	9	5
2540504	PROB	n/a	LTP329	ltpFR2	22	n/a	n/a	n/a	18	9	3	4	2
2542138	PROB	n/a	LTP329	ltpFR2	22	n/a	n/a	n/a	18	15	1	9	5
2543804	PROB	n/a	LTP329	ltpFR2	22	n/a	n/a	n/a	18	10	3	2	5
2545886	PROB	n/a	LTP329	ltpFR2	22	n/a	n/a	n/a	18	11	2	6	3
2549628	STOP	n/a	LTP329	ltpFR2	22	n/a	n/a	n/a	18	n/a	n/a	n/a	n/a
2551567	REC_START	n/a	LTP329	ltpFR2	22	12	n/a	n/a	n/a	n/a	0	0	0
2552934	REC_WORD	wordpools/wasnorm_wordpool_576.txt	LTP329	ltpFR2	22	12	CHAUFFEUR	283	n/a	n/a	0	0	0
2554595	REC_WORD	wordpools/wasnorm_wordpool_576.txt	LTP329	ltpFR2	22	12	PILOT	1070	n/a	n/a	0	0	0
2556078	REC_WORD	wordpools/wasnorm_wordpool_576.txt	LTP329	ltpFR2	22	12	MARSH	874	n/a	n/a	0	0	0
2558126	REC_WORD	wordpools/wasnorm_wordpool_576.txt	LTP329	ltpFR2	22	12	YACHT	1629	n/a	n/a	0	0	0
2559493	REC_WORD	wordpools/wasnorm_wordpool_576.txt	LTP329	ltpFR2	22	12	PLAYGROUND	1087	n/a	n/a	0	0	0
2585867	REC_WORD_VV	wordpools/wasnorm_wordpool_576.txt	LTP329	ltpFR2	22	12	<>	-1	n/a	n/a	0	0	0
2588603	REC_WORD	wordpools/wasnorm_wordpool_576.txt	LTP329	ltpFR2	22	12	CRIB	407	n/a	n/a	0	0	0
2642172	DISTRACTOR	n/a	LTP329	ltpFR2	22	13	n/a	n/a	n/a	n/a	0	0	0
2642172	START	n/a	LTP329	ltpFR2	22	n/a	n/a	n/a	19	n/a	n/a	n/a	n/a
2642205	PROB	n/a	LTP329	ltpFR2	22	n/a	n/a	n/a	19	12	3	2	7
2645137	PROB	n/a	LTP329	ltpFR2	22	n/a	n/a	n/a	19	24	9	8	7
2649334	PROB	n/a	LTP329	ltpFR2	22	n/a	n/a	n/a	19	20	9	5	6
2651168	PROB	n/a	LTP329	ltpFR2	22	n/a	n/a	n/a	19	20	3	8	9
2652833	PROB	n/a	LTP329	ltpFR2	22	n/a	n/a	n/a	19	8	6	1	1
2654049	PROB	n/a	LTP329	ltpFR2	22	n/a	n/a	n/a	19	13	5	1	7
2656914	PROB	n/a	LTP329	ltpFR2	22	n/a	n/a	n/a	19	15	4	6	5
2658114	PROB	n/a	LTP329	ltpFR2	22	n/a	n/a	n/a	19	7	1	1	5
2659212	PROB	n/a	LTP329	ltpFR2	22	n/a	n/a	n/a	19	18	4	7	7
2660596	PROB	n/a	LTP329	ltpFR2	22	n/a	n/a	n/a	19	4	1	1	2
2662811	PROB	n/a	LTP329	ltpFR2	22	n/a	n/a	n/a	19	18	5	5	8
2663994	PROB	n/a	LTP329	ltpFR2	22	n/a	n/a	n/a	19	12	7	4	1
2665660	STOP	n/a	LTP329	ltpFR2	22	n/a	n/a	n/a	19	n/a	n/a	n/a	n/a
2667092	WORD	wordpools/wasnorm_wordpool_576.txt	LTP329	ltpFR2	22	13	MISTER	901	n/a	n/a	0	0	0
2669574	WORD	wordpools/wasnorm_wordpool_576.txt	LTP329	ltpFR2	22	13	LADY	794	n/a	n/a	0	0	0
2672355	WORD	wordpools/wasnorm_wordpool_576.txt	LTP329	ltpFR2	22	13	BALLOON	75	n/a	n/a	0	0	0
2675122	WORD	wordpools/wasnorm_wordpool_576.txt	LTP329	ltpFR2	22	13	SUPPER	1411	n/a	n/a	0	0	0
2677870	WORD	wordpools/wasnorm_wordpool_576.txt	LTP329	ltpFR2	22	13	PECAN	1036	n/a	n/a	0	0	0
2680485	WORD	wordpools/wasnorm_wordpool_576.txt	LTP329	ltpFR2	22	13	TUBA	1515	n/a	n/a	0	0	0
2683084	WORD	wordpools/wasnorm_wordpool_576.txt	LTP329	ltpFR2	22	13	NOTEBOOK	959	n/a	n/a	0	0	0
2685683	WORD	wordpools/wasnorm_wordpool_576.txt	LTP329	ltpFR2	22	13	OYSTER	995	n/a	n/a	0	0	0
2688198	WORD	wordpools/wasnorm_wordpool_576.txt	LTP329	ltpFR2	22	13	FOREST	593	n/a	n/a	0	0	0
2690664	WORD	wordpools/wasnorm_wordpool_576.txt	LTP329	ltpFR2	22	13	JUNGLE	764	n/a	n/a	0	0	0
2693245	WORD	wordpools/wasnorm_wordpool_576.txt	LTP329	ltpFR2	22	13	SEAGULL	1261	n/a	n/a	0	0	0
2695995	WORD	wordpools/wasnorm_wordpool_576.txt	LTP329	ltpFR2	22	13	REPORT	1184	n/a	n/a	0	0	0
2698459	WORD	wordpools/wasnorm_wordpool_576.txt	LTP329	ltpFR2	22	13	REBEL	1172	n/a	n/a	0	0	0
2701291	WORD	wordpools/wasnorm_wordpool_576.txt	LTP329	ltpFR2	22	13	FARMER	553	n/a	n/a	0	0	0
2703841	WORD	wordpools/wasnorm_wordpool_576.txt	LTP329	ltpFR2	22	13	GARBAGE	622	n/a	n/a	0	0	0
2706355	WORD	wordpools/wasnorm_wordpool_576.txt	LTP329	ltpFR2	22	13	TABLET	1427	n/a	n/a	0	0	0
2709021	WORD	wordpools/wasnorm_wordpool_576.txt	LTP329	ltpFR2	22	13	GHETTO	633	n/a	n/a	0	0	0
2711687	WORD	wordpools/wasnorm_wordpool_576.txt	LTP329	ltpFR2	22	13	IDOL	733	n/a	n/a	0	0	0
2714484	WORD	wordpools/wasnorm_wordpool_576.txt	LTP329	ltpFR2	22	13	CLAM	315	n/a	n/a	0	0	0
2716984	WORD	wordpools/wasnorm_wordpool_576.txt	LTP329	ltpFR2	22	13	CRAB	397	n/a	n/a	0	0	0
2719550	WORD	wordpools/wasnorm_wordpool_576.txt	LTP329	ltpFR2	22	13	SCOTCH	1251	n/a	n/a	0	0	0
2722314	WORD	wordpools/wasnorm_wordpool_576.txt	LTP329	ltpFR2	22	13	GRILL	661	n/a	n/a	0	0	0
2724947	WORD	wordpools/wasnorm_wordpool_576.txt	LTP329	ltpFR2	22	13	WIFE	1609	n/a	n/a	0	0	0
2727579	WORD	wordpools/wasnorm_wordpool_576.txt	LTP329	ltpFR2	22	13	WHISTLE	1606	n/a	n/a	0	0	0
2729195	START	n/a	LTP329	ltpFR2	22	n/a	n/a	n/a	20	n/a	n/a	n/a	n/a
2730212	DISTRACTOR	n/a	LTP329	ltpFR2	22	13	n/a	n/a	n/a	n/a	0	0	0
2730227	PROB	n/a	LTP329	ltpFR2	22	n/a	n/a	n/a	20	18	9	1	8
2731760	PROB	n/a	LTP329	ltpFR2	22	n/a	n/a	n/a	20	13	8	3	2
2733508	PROB	n/a	LTP329	ltpFR2	22	n/a	n/a	n/a	20	11	2	8	1
2735125	PROB	n/a	LTP329	ltpFR2	22	n/a	n/a	n/a	20	13	8	2	3
2736407	PROB	n/a	LTP329	ltpFR2	22	n/a	n/a	n/a	20	12	7	4	1
2737774	PROB	n/a	LTP329	ltpFR2	22	n/a	n/a	n/a	20	13	3	4	6
2739057	PROB	n/a	LTP329	ltpFR2	22	n/a	n/a	n/a	20	16	9	3	4
2740488	PROB	n/a	LTP329	ltpFR2	22	n/a	n/a	n/a	20	12	4	1	7
2742721	PROB	n/a	LTP329	ltpFR2	22	n/a	n/a	n/a	20	12	4	1	7
2743704	PROB	n/a	LTP329	ltpFR2	22	n/a	n/a	n/a	20	16	7	8	1
2745336	PROB	n/a	LTP329	ltpFR2	22	n/a	n/a	n/a	20	11	2	1	8
2746502	PROB	n/a	LTP329	ltpFR2	22	n/a	n/a	n/a	20	5	3	1	1
2747435	PROB	n/a	LTP329	ltpFR2	22	n/a	n/a	n/a	20	8	3	2	3
2748718	PROB	n/a	LTP329	ltpFR2	22	n/a	n/a	n/a	20	14	5	8	1
2751017	PROB	n/a	LTP329	ltpFR2	22	n/a	n/a	n/a	20	18	7	7	4
2752164	STOP	n/a	LTP329	ltpFR2	22	n/a	n/a	n/a	20	n/a	n/a	n/a	n/a
2755116	REC_START	n/a	LTP329	ltpFR2	22	13	n/a	n/a	n/a	n/a	0	0	0
2756020	REC_WORD	wordpools/wasnorm_wordpool_576.txt	LTP329	ltpFR2	22	13	WIFE	1609	n/a	n/a	0	0	0
2757115	REC_WORD	wordpools/wasnorm_wordpool_576.txt	LTP329	ltpFR2	22	13	LADY	794	n/a	n/a	0	0	0
2758425	REC_WORD	wordpools/wasnorm_wordpool_576.txt	LTP329	ltpFR2	22	13	MISTER	901	n/a	n/a	0	0	0
2762748	REC_WORD	wordpools/wasnorm_wordpool_576.txt	LTP329	ltpFR2	22	13	CLAM	315	n/a	n/a	0	0	0
2765756	REC_WORD	wordpools/wasnorm_wordpool_576.txt	LTP329	ltpFR2	22	13	CRAB	397	n/a	n/a	0	0	0
2766862	REC_WORD	wordpools/wasnorm_wordpool_576.txt	LTP329	ltpFR2	22	13	OYSTER	995	n/a	n/a	0	0	0
2776851	REC_WORD	wordpools/wasnorm_wordpool_576.txt	LTP329	ltpFR2	22	13	GRILL	661	n/a	n/a	0	0	0
2779937	REC_WORD	wordpools/wasnorm_wordpool_576.txt	LTP329	ltpFR2	22	13	TUBA	1515	n/a	n/a	0	0	0
2785903	REC_WORD	wordpools/wasnorm_wordpool_576.txt	LTP329	ltpFR2	22	13	BALLOON	75	n/a	n/a	0	0	0
2806792	REC_WORD	wordpools/wasnorm_wordpool_576.txt	LTP329	ltpFR2	22	13	SEAGULL	1261	n/a	n/a	0	0	0
2809544	REC_WORD	wordpools/wasnorm_wordpool_576.txt	LTP329	ltpFR2	22	13	NOTEBOOK	959	n/a	n/a	0	0	0
2810583	REC_WORD	wordpools/wasnorm_wordpool_576.txt	LTP329	ltpFR2	22	13	REPORT	1184	n/a	n/a	0	0	0
2818129	REC_WORD	wordpools/wasnorm_wordpool_576.txt	LTP329	ltpFR2	22	13	SUPPER	1411	n/a	n/a	0	0	0
2819524	REC_WORD	wordpools/wasnorm_wordpool_576.txt	LTP329	ltpFR2	22	13	PECAN	1036	n/a	n/a	0	0	0
2845737	WORD	wordpools/wasnorm_wordpool_576.txt	LTP329	ltpFR2	22	14	COWBOY	395	n/a	n/a	0	0	0
2848418	WORD	wordpools/wasnorm_wordpool_576.txt	LTP329	ltpFR2	22	14	CLIMBER	323	n/a	n/a	0	0	0
2851034	WORD	wordpools/wasnorm_wordpool_576.txt	LTP329	ltpFR2	22	14	SUMMIT	1405	n/a	n/a	0	0	0
2853750	WORD	wordpools/wasnorm_wordpool_576.txt	LTP329	ltpFR2	22	14	RAFT	1159	n/a	n/a	0	0	0
2856297	WORD	wordpools/wasnorm_wordpool_576.txt	LTP329	ltpFR2	22	14	CANDY	230	n/a	n/a	0	0	0
2858797	WORD	wordpools/wasnorm_wordpool_576.txt	LTP329	ltpFR2	22	14	TRIBE	1505	n/a	n/a	0	0	0
2861579	WORD	wordpools/wasnorm_wordpool_576.txt	LTP329	ltpFR2	22	14	PASTA	1021	n/a	n/a	0	0	0
2864028	WORD	wordpools/wasnorm_wordpool_576.txt	LTP329	ltpFR2	22	14	LAMP	798	n/a	n/a	0	0	0
2866492	WORD	wordpools/wasnorm_wordpool_576.txt	LTP329	ltpFR2	22	14	APPLE	33	n/a	n/a	0	0	0
2869208	WORD	wordpools/wasnorm_wordpool_576.txt	LTP329	ltpFR2	22	14	PIZZA	1079	n/a	n/a	0	0	0
2871974	WORD	wordpools/wasnorm_wordpool_576.txt	LTP329	ltpFR2	22	14	TART	1436	n/a	n/a	0	0	0
2874773	WORD	wordpools/wasnorm_wordpool_576.txt	LTP329	ltpFR2	22	14	MUSTARD	935	n/a	n/a	0	0	0
2877588	WORD	wordpools/wasnorm_wordpool_576.txt	LTP329	ltpFR2	22	14	NOMAD	955	n/a	n/a	0	0	0
2880335	WORD	wordpools/wasnorm_wordpool_576.txt	LTP329	ltpFR2	22	14	BUREAU	199	n/a	n/a	0	0	0
2883018	WORD	wordpools/wasnorm_wordpool_576.txt	LTP329	ltpFR2	22	14	BRICK	172	n/a	n/a	0	0	0
2885500	WORD	wordpools/wasnorm_wordpool_576.txt	LTP329	ltpFR2	22	14	DRESSER	496	n/a	n/a	0	0	0
2888232	WORD	wordpools/wasnorm_wordpool_576.txt	LTP329	ltpFR2	22	14	BOYFRIEND	162	n/a	n/a	0	0	0
2890865	WORD	wordpools/wasnorm_wordpool_576.txt	LTP329	ltpFR2	22	14	BOUQUET	157	n/a	n/a	0	0	0
2893613	WORD	wordpools/wasnorm_wordpool_576.txt	LTP329	ltpFR2	22	14	SWAMP	1416	n/a	n/a	0	0	0
2896294	WORD	wordpools/wasnorm_wordpool_576.txt	LTP329	ltpFR2	22	14	JUGGLER	763	n/a	n/a	0	0	0
2898761	WORD	wordpools/wasnorm_wordpool_576.txt	LTP329	ltpFR2	22	14	DONOR	485	n/a	n/a	0	0	0
2901342	WORD	wordpools/wasnorm_wordpool_576.txt	LTP329	ltpFR2	22	14	PUPIL	1143	n/a	n/a	0	0	0
2903891	WORD	wordpools/wasnorm_wordpool_576.txt	LTP329	ltpFR2	22	14	TEACHER	1440	n/a	n/a	0	0	0
2906723	WORD	wordpools/wasnorm_wordpool_576.txt	LTP329	ltpFR2	22	14	ACTOR	5	n/a	n/a	0	0	0
2908338	START	n/a	LTP329	ltpFR2	22	n/a	n/a	n/a	21	n/a	n/a	n/a	n/a
2909313	DISTRACTOR	n/a	LTP329	ltpFR2	22	14	n/a	n/a	n/a	n/a	0	0	0
2909321	PROB	n/a	LTP329	ltpFR2	22	n/a	n/a	n/a	21	14	3	3	8
2910838	PROB	n/a	LTP329	ltpFR2	22	n/a	n/a	n/a	21	9	5	2	2
2911937	PROB	n/a	LTP329	ltpFR2	22	n/a	n/a	n/a	21	19	7	7	5
2913170	PROB	n/a	LTP329	ltpFR2	22	n/a	n/a	n/a	21	14	4	8	2
2914803	PROB	n/a	LTP329	ltpFR2	22	n/a	n/a	n/a	21	17	8	8	1
2916467	PROB	n/a	LTP329	ltpFR2	22	n/a	n/a	n/a	21	15	8	4	3
2918534	PROB	n/a	LTP329	ltpFR2	22	n/a	n/a	n/a	21	12	8	3	1
2919833	PROB	n/a	LTP329	ltpFR2	22	n/a	n/a	n/a	21	8	2	4	2
2921100	PROB	n/a	LTP329	ltpFR2	22	n/a	n/a	n/a	21	15	9	6	1
2922532	PROB	n/a	LTP329	ltpFR2	22	n/a	n/a	n/a	21	17	6	3	8
2925714	PROB	n/a	LTP329	ltpFR2	22	n/a	n/a	n/a	21	12	9	2	1
2927395	PROB	n/a	LTP329	ltpFR2	22	n/a	n/a	n/a	21	16	2	7	7
2928662	PROB	n/a	LTP329	ltpFR2	22	n/a	n/a	n/a	21	5	1	3	1
2929629	PROB	n/a	LTP329	ltpFR2	22	n/a	n/a	n/a	21	20	6	7	7
2930996	STOP	n/a	LTP329	ltpFR2	22	n/a	n/a	n/a	21	n/a	n/a	n/a	n/a
2934259	REC_START	n/a	LTP329	ltpFR2	22	14	n/a	n/a	n/a	n/a	0	0	0
2937638	REC_WORD	wordpools/wasnorm_wordpool_576.txt	LTP329	ltpFR2	22	14	ACTOR	5	n/a	n/a	0	0	0
2944604	REC_WORD	wordpools/wasnorm_wordpool_576.txt	LTP329	ltpFR2	22	14	BOUQUET	157	n/a	n/a	0	0	0
2947385	REC_WORD	wordpools/wasnorm_wordpool_576.txt	LTP329	ltpFR2	22	14	TRIBE	1505	n/a	n/a	0	0	0
2948759	REC_WORD	wordpools/wasnorm_wordpool_576.txt	LTP329	ltpFR2	22	14	COWBOY	395	n/a	n/a	0	0	0
2952757	REC_WORD	wordpools/wasnorm_wordpool_576.txt	LTP329	ltpFR2	22	14	RAFT	1159	n/a	n/a	0	0	0
2956683	REC_WORD	wordpools/wasnorm_wordpool_576.txt	LTP329	ltpFR2	22	14	CANDY	230	n/a	n/a	0	0	0
2958034	REC_WORD	wordpools/wasnorm_wordpool_576.txt	LTP329	ltpFR2	22	14	PASTA	1021	n/a	n/a	0	0	0
2959528	REC_WORD	wordpools/wasnorm_wordpool_576.txt	LTP329	ltpFR2	22	14	PIZZA	1079	n/a	n/a	0	0	0
2966457	REC_WORD	wordpools/wasnorm_wordpool_576.txt	LTP329	ltpFR2	22	14	MUSTARD	935	n/a	n/a	0	0	0
2968131	REC_WORD	wordpools/wasnorm_wordpool_576.txt	LTP329	ltpFR2	22	14	SUMMIT	1405	n/a	n/a	0	0	0
2969594	REC_WORD	wordpools/wasnorm_wordpool_576.txt	LTP329	ltpFR2	22	14	CLIMBER	323	n/a	n/a	0	0	0
2975117	REC_WORD	wordpools/wasnorm_wordpool_576.txt	LTP329	ltpFR2	22	14	CRATER	400	n/a	n/a	0	0	0
2984731	REC_WORD	wordpools/wasnorm_wordpool_576.txt	LTP329	ltpFR2	22	14	BUREAU	199	n/a	n/a	0	0	0
2987712	REC_WORD	wordpools/wasnorm_wordpool_576.txt	LTP329	ltpFR2	22	14	DRESSER	496	n/a	n/a	0	0	0
3024881	WORD	wordpools/wasnorm_wordpool_576.txt	LTP329	ltpFR2	22	15	DAUGHTER	442	n/a	n/a	0	0	0
3027346	WORD	wordpools/wasnorm_wordpool_576.txt	LTP329	ltpFR2	22	15	PEANUT	1032	n/a	n/a	0	0	0
3029929	WORD	wordpools/wasnorm_wordpool_576.txt	LTP329	ltpFR2	22	15	CASHEW	253	n/a	n/a	0	0	0
3032644	WORD	wordpools/wasnorm_wordpool_576.txt	LTP329	ltpFR2	22	15	MARS	873	n/a	n/a	0	0	0
3035110	WORD	wordpools/wasnorm_wordpool_576.txt	LTP329	ltpFR2	22	15	KEEPER	769	n/a	n/a	0	0	0
3037891	WORD	wordpools/wasnorm_wordpool_576.txt	LTP329	ltpFR2	22	15	PUPPY	1144	n/a	n/a	0	0	0
3040373	WORD	wordpools/wasnorm_wordpool_576.txt	LTP329	ltpFR2	22	15	YOLK	1633	n/a	n/a	0	0	0
3042889	WORD	wordpools/wasnorm_wordpool_576.txt	LTP329	ltpFR2	22	15	WORLD	1622	n/a	n/a	0	0	0
3045503	WORD	wordpools/wasnorm_wordpool_576.txt	LTP329	ltpFR2	22	15	THREAD	1460	n/a	n/a	0	0	0
3048070	WORD	wordpools/wasnorm_wordpool_576.txt	LTP329	ltpFR2	22	15	OZONE	996	n/a	n/a	0	0	0
3050602	WORD	wordpools/wasnorm_wordpool_576.txt	LTP329	ltpFR2	22	15	TRENCH	1503	n/a	n/a	0	0	0
3053283	WORD	wordpools/wasnorm_wordpool_576.txt	LTP329	ltpFR2	22	15	AIRPLANE	12	n/a	n/a	0	0	0
3055966	WORD	wordpools/wasnorm_wordpool_576.txt	LTP329	ltpFR2	22	15	BEAKER	104	n/a	n/a	0	0	0
3058681	WORD	wordpools/wasnorm_wordpool_576.txt	LTP329	ltpFR2	22	15	SHRUB	1299	n/a	n/a	0	0	0
3061462	WORD	wordpools/wasnorm_wordpool_576.txt	LTP329	ltpFR2	22	15	CHAPEL	280	n/a	n/a	0	0	0
3064062	WORD	wordpools/wasnorm_wordpool_576.txt	LTP329	ltpFR2	22	15	POWDER	1117	n/a	n/a	0	0	0
3066860	WORD	wordpools/wasnorm_wordpool_576.txt	LTP329	ltpFR2	22	15	CHURCH	307	n/a	n/a	0	0	0
3069508	WORD	wordpools/wasnorm_wordpool_576.txt	LTP329	ltpFR2	22	15	EAGLE	512	n/a	n/a	0	0	0
3072340	WORD	wordpools/wasnorm_wordpool_576.txt	LTP329	ltpFR2	22	15	GLOVE	642	n/a	n/a	0	0	0
3075006	WORD	wordpools/wasnorm_wordpool_576.txt	LTP329	ltpFR2	22	15	COSTUME	383	n/a	n/a	0	0	0
3077471	WORD	wordpools/wasnorm_wordpool_576.txt	LTP329	ltpFR2	22	15	HAMPER	682	n/a	n/a	0	0	0
3079971	WORD	wordpools/wasnorm_wordpool_576.txt	LTP329	ltpFR2	22	15	CHEMIST	292	n/a	n/a	0	0	0
3082603	WORD	wordpools/wasnorm_wordpool_576.txt	LTP329	ltpFR2	22	15	DIME	466	n/a	n/a	0	0	0
3085384	WORD	wordpools/wasnorm_wordpool_576.txt	LTP329	ltpFR2	22	15	OUTLAW	989	n/a	n/a	0	0	0
3087017	START	n/a	LTP329	ltpFR2	22	n/a	n/a	n/a	22	n/a	n/a	n/a	n/a
3088073	DISTRACTOR	n/a	LTP329	ltpFR2	22	15	n/a	n/a	n/a	n/a	0	0	0
3088100	PROB	n/a	LTP329	ltpFR2	22	n/a	n/a	n/a	22	18	8	5	5
3091732	PROB	n/a	LTP329	ltpFR2	22	n/a	n/a	n/a	22	14	8	4	2
3094080	PROB	n/a	LTP329	ltpFR2	22	n/a	n/a	n/a	22	11	3	4	4
3096013	PROB	n/a	LTP329	ltpFR2	22	n/a	n/a	n/a	22	7	1	1	5
3097162	PROB	n/a	LTP329	ltpFR2	22	n/a	n/a	n/a	22	19	2	1	9
3098745	PROB	n/a	LTP329	ltpFR2	22	n/a	n/a	n/a	22	21	7	7	7
3103659	PROB	n/a	LTP329	ltpFR2	22	n/a	n/a	n/a	22	14	8	5	1
3104958	PROB	n/a	LTP329	ltpFR2	22	n/a	n/a	n/a	22	14	4	7	3
3106223	PROB	n/a	LTP329	ltpFR2	22	n/a	n/a	n/a	22	13	3	3	7
3107506	PROB	n/a	LTP329	ltpFR2	22	n/a	n/a	n/a	22	11	1	2	8
3108472	PROB	n/a	LTP329	ltpFR2	22	n/a	n/a	n/a	22	25	8	7	9
3110676	STOP	n/a	LTP329	ltpFR2	22	n/a	n/a	n/a	22	n/a	n/a	n/a	n/a
3112805	REC_START	n/a	LTP329	ltpFR2	22	15	n/a	n/a	n/a	n/a	0	0	0
3117034	REC_WORD	wordpools/wasnorm_wordpool_576.txt	LTP329	ltpFR2	22	15	COSTUME	383	n/a	n/a	0	0	0
3118981	REC_WORD	wordpools/wasnorm_wordpool_576.txt	LTP329	ltpFR2	22	15	OUTLAW	989	n/a	n/a	0	0	0
3122035	REC_WORD	wordpools/wasnorm_wordpool_576.txt	LTP329	ltpFR2	22	15	TRENCH	1503	n/a	n/a	0	0	0
3130046	REC_WORD	wordpools/wasnorm_wordpool_576.txt	LTP329	ltpFR2	22	15	OZONE	996	n/a	n/a	0	0	0
3131422	REC_WORD	wordpools/wasnorm_wordpool_576.txt	LTP329	ltpFR2	22	15	WORLD	1622	n/a	n/a	0	0	0
3133013	REC_WORD	wordpools/wasnorm_wordpool_576.txt	LTP329	ltpFR2	22	15	AIRPLANE	12	n/a	n/a	0	0	0
3134532	REC_WORD	wordpools/wasnorm_wordpool_576.txt	LTP329	ltpFR2	22	15	EAGLE	512	n/a	n/a	0	0	0
3136188	REC_WORD	wordpools/wasnorm_wordpool_576.txt	LTP329	ltpFR2	22	15	GLOVE	642	n/a	n/a	0	0	0
3161888	REC_WORD	wordpools/wasnorm_wordpool_576.txt	LTP329	ltpFR2	22	15	BOYFRIEND	162	n/a	n/a	0	0	0
3203475	WORD	wordpools/wasnorm_wordpool_576.txt	LTP329	ltpFR2	22	16	SAUSAGE	1238	n/a	n/a	0	0	0
3206141	WORD	wordpools/wasnorm_wordpool_576.txt	LTP329	ltpFR2	22	16	FLASHLIGHT	575	n/a	n/a	0	0	0
3208590	WORD	wordpools/wasnorm_wordpool_576.txt	LTP329	ltpFR2	22	16	MATCH	878	n/a	n/a	0	0	0
3211189	WORD	wordpools/wasnorm_wordpool_576.txt	LTP329	ltpFR2	22	16	ICEBERG	731	n/a	n/a	0	0	0
3214021	WORD	wordpools/wasnorm_wordpool_576.txt	LTP329	ltpFR2	22	16	HORNET	718	n/a	n/a	0	0	0
3216653	WORD	wordpools/wasnorm_wordpool_576.txt	LTP329	ltpFR2	22	16	PUDDING	1139	n/a	n/a	0	0	0
3219217	WORD	wordpools/wasnorm_wordpool_576.txt	LTP329	ltpFR2	22	16	PASSAGE	1019	n/a	n/a	0	0	0
3221800	WORD	wordpools/wasnorm_wordpool_576.txt	LTP329	ltpFR2	22	16	CONCERT	360	n/a	n/a	0	0	0
3224398	WORD	wordpools/wasnorm_wordpool_576.txt	LTP329	ltpFR2	22	16	CANAL	226	n/a	n/a	0	0	0
3226998	WORD	wordpools/wasnorm_wordpool_576.txt	LTP329	ltpFR2	22	16	VIKING	1565	n/a	n/a	0	0	0
3229680	WORD	wordpools/wasnorm_wordpool_576.txt	LTP329	ltpFR2	22	16	HIGHWAY	707	n/a	n/a	0	0	0
3232444	WORD	wordpools/wasnorm_wordpool_576.txt	LTP329	ltpFR2	22	16	GUITAR	670	n/a	n/a	0	0	0
3234910	WORD	wordpools/wasnorm_wordpool_576.txt	LTP329	ltpFR2	22	16	DENIM	446	n/a	n/a	0	0	0
3237742	WORD	wordpools/wasnorm_wordpool_576.txt	LTP329	ltpFR2	22	16	WITNESS	1618	n/a	n/a	0	0	0
3240307	WORD	wordpools/wasnorm_wordpool_576.txt	LTP329	ltpFR2	22	16	CONVICT	371	n/a	n/a	0	0	0
3242773	WORD	wordpools/wasnorm_wordpool_576.txt	LTP329	ltpFR2	22	16	MUFFIN	929	n/a	n/a	0	0	0
3245588	WORD	wordpools/wasnorm_wordpool_576.txt	LTP329	ltpFR2	22	16	TOASTER	1472	n/a	n/a	0	0	0
3248269	WORD	wordpools/wasnorm_wordpool_576.txt	LTP329	ltpFR2	22	16	ORANGE	980	n/a	n/a	0	0	0
3250819	WORD	wordpools/wasnorm_wordpool_576.txt	LTP329	ltpFR2	22	16	PISTOL	1075	n/a	n/a	0	0	0
3253551	WORD	wordpools/wasnorm_wordpool_576.txt	LTP329	ltpFR2	22	16	YARN	1631	n/a	n/a	0	0	0
3256349	WORD	wordpools/wasnorm_wordpool_576.txt	LTP329	ltpFR2	22	16	LAKE	796	n/a	n/a	0	0	0
3258932	WORD	wordpools/wasnorm_wordpool_576.txt	LTP329	ltpFR2	22	16	BANQUET	86	n/a	n/a	0	0	0
3261429	WORD	wordpools/wasnorm_wordpool_576.txt	LTP329	ltpFR2	22	16	GAZELLE	628	n/a	n/a	0	0	0
3264228	WORD	wordpools/wasnorm_wordpool_576.txt	LTP329	ltpFR2	22	16	SEAFOOD	1260	n/a	n/a	0	0	0
3265845	START	n/a	LTP329	ltpFR2	22	n/a	n/a	n/a	23	n/a	n/a	n/a	n/a
3267014	DISTRACTOR	n/a	LTP329	ltpFR2	22	16	n/a	n/a	n/a	n/a	0	0	0
3267028	PROB	n/a	LTP329	ltpFR2	22	n/a	n/a	n/a	23	6	1	2	3
3268610	PROB	n/a	LTP329	ltpFR2	22	n/a	n/a	n/a	23	11	3	5	3
3270010	PROB	n/a	LTP329	ltpFR2	22	n/a	n/a	n/a	23	22	8	4	8
3272158	PROB	n/a	LTP329	ltpFR2	22	n/a	n/a	n/a	23	17	5	9	3
3275757	PROB	n/a	LTP329	ltpFR2	22	n/a	n/a	n/a	23	20	5	8	7
3278504	PROB	n/a	LTP329	ltpFR2	22	n/a	n/a	n/a	23	22	9	4	9
3279788	PROB	n/a	LTP329	ltpFR2	22	n/a	n/a	n/a	23	18	1	9	8
3281520	PROB	n/a	LTP329	ltpFR2	22	n/a	n/a	n/a	23	12	2	6	4
3282803	PROB	n/a	LTP329	ltpFR2	22	n/a	n/a	n/a	23	16	1	9	6
3283869	PROB	n/a	LTP329	ltpFR2	22	n/a	n/a	n/a	23	19	7	7	5
3285218	PROB	n/a	LTP329	ltpFR2	22	n/a	n/a	n/a	23	13	1	5	7
3286818	PROB	n/a	LTP329	ltpFR2	22	n/a	n/a	n/a	23	11	2	4	5
3288980	STOP	n/a	LTP329	ltpFR2	22	n/a	n/a	n/a	23	n/a	n/a	n/a	n/a
3291666	REC_START	n/a	LTP329	ltpFR2	22	16	n/a	n/a	n/a	n/a	0	0	0
3296291	REC_WORD	wordpools/wasnorm_wordpool_576.txt	LTP329	ltpFR2	22	16	HIGHWAY	707	n/a	n/a	0	0	0
3297429	REC_WORD	wordpools/wasnorm_wordpool_576.txt	LTP329	ltpFR2	22	16	CANAL	226	n/a	n/a	0	0	0
3298978	REC_WORD	wordpools/wasnorm_wordpool_576.txt	LTP329	ltpFR2	22	16	PASSAGE	1019	n/a	n/a	0	0	0
3308127	REC_WORD	wordpools/wasnorm_wordpool_576.txt	LTP329	ltpFR2	22	16	SEAFOOD	1260	n/a	n/a	0	0	0
3338648	REC_WORD	wordpools/wasnorm_wordpool_576.txt	LTP329	ltpFR2	22	16	SAUSAGE	1238	n/a	n/a	0	0	0
3339988	REC_WORD	wordpools/wasnorm_wordpool_576.txt	LTP329	ltpFR2	22	16	PUDDING	1139	n/a	n/a	0	0	0
3368210	REST_REWET	n/a	LTP329	ltpFR2	22	16	n/a	n/a	n/a	n/a	0	0	0
3644724	WORD	wordpools/wasnorm_wordpool_576.txt	LTP329	ltpFR2	22	17	LAGOON	795	n/a	n/a	0	0	0
3647238	WORD	wordpools/wasnorm_wordpool_576.txt	LTP329	ltpFR2	22	17	MARKER	870	n/a	n/a	0	0	0
3649721	WORD	wordpools/wasnorm_wordpool_576.txt	LTP329	ltpFR2	22	17	APRON	35	n/a	n/a	0	0	0
3652352	WORD	wordpools/wasnorm_wordpool_576.txt	LTP329	ltpFR2	22	17	SPOON	1357	n/a	n/a	0	0	0
3654952	WORD	wordpools/wasnorm_wordpool_576.txt	LTP329	ltpFR2	22	17	LIZARD	834	n/a	n/a	0	0	0
3657416	WORD	wordpools/wasnorm_wordpool_576.txt	LTP329	ltpFR2	22	17	STREAM	1392	n/a	n/a	0	0	0
3659983	WORD	wordpools/wasnorm_wordpool_576.txt	LTP329	ltpFR2	22	17	EMPIRE	530	n/a	n/a	0	0	0
3662615	WORD	wordpools/wasnorm_wordpool_576.txt	LTP329	ltpFR2	22	17	FLOWER	584	n/a	n/a	0	0	0
3665329	WORD	wordpools/wasnorm_wordpool_576.txt	LTP329	ltpFR2	22	17	ORCHID	982	n/a	n/a	0	0	0
3667912	WORD	wordpools/wasnorm_wordpool_576.txt	LTP329	ltpFR2	22	17	PAIL	1002	n/a	n/a	0	0	0
3670410	WORD	wordpools/wasnorm_wordpool_576.txt	LTP329	ltpFR2	22	17	MONSTER	912	n/a	n/a	0	0	0
3673193	WORD	wordpools/wasnorm_wordpool_576.txt	LTP329	ltpFR2	22	17	TORTOISE	1486	n/a	n/a	0	0	0
3675991	WORD	wordpools/wasnorm_wordpool_576.txt	LTP329	ltpFR2	22	17	SERVANT	1271	n/a	n/a	0	0	0
3678456	WORD	wordpools/wasnorm_wordpool_576.txt	LTP329	ltpFR2	22	17	FRAME	600	n/a	n/a	0	0	0
3681139	WORD	wordpools/wasnorm_wordpool_576.txt	LTP329	ltpFR2	22	17	SMOG	1330	n/a	n/a	0	0	0
3683754	WORD	wordpools/wasnorm_wordpool_576.txt	LTP329	ltpFR2	22	17	GOBLIN	645	n/a	n/a	0	0	0
3686235	WORD	wordpools/wasnorm_wordpool_576.txt	LTP329	ltpFR2	22	17	FLEET	578	n/a	n/a	0	0	0
3688718	WORD	wordpools/wasnorm_wordpool_576.txt	LTP329	ltpFR2	22	17	HOSTESS	723	n/a	n/a	0	0	0
3691233	WORD	wordpools/wasnorm_wordpool_576.txt	LTP329	ltpFR2	22	17	KETCHUP	771	n/a	n/a	0	0	0
3693716	WORD	wordpools/wasnorm_wordpool_576.txt	LTP329	ltpFR2	22	17	SCISSORS	1250	n/a	n/a	0	0	0
3696347	WORD	wordpools/wasnorm_wordpool_576.txt	LTP329	ltpFR2	22	17	ROBBER	1197	n/a	n/a	0	0	0
3698997	WORD	wordpools/wasnorm_wordpool_576.txt	LTP329	ltpFR2	22	17	SUSPECT	1415	n/a	n/a	0	0	0
3701795	WORD	wordpools/wasnorm_wordpool_576.txt	LTP329	ltpFR2	22	17	PATIENT	1024	n/a	n/a	0	0	0
3704560	WORD	wordpools/wasnorm_wordpool_576.txt	LTP329	ltpFR2	22	17	FILM	565	n/a	n/a	0	0	0
3706193	START	n/a	LTP329	ltpFR2	22	n/a	n/a	n/a	24	n/a	n/a	n/a	n/a
3707376	DISTRACTOR	n/a	LTP329	ltpFR2	22	17	n/a	n/a	n/a	n/a	0	0	0
3707408	PROB	n/a	LTP329	ltpFR2	22	n/a	n/a	n/a	24	18	8	7	3
3709224	PROB	n/a	LTP329	ltpFR2	22	n/a	n/a	n/a	24	7	1	3	3
3710757	PROB	n/a	LTP329	ltpFR2	22	n/a	n/a	n/a	24	2	6	7	7
3712090	PROB	n/a	LTP329	ltpFR2	22	n/a	n/a	n/a	24	11	2	2	7
3713455	PROB	n/a	LTP329	ltpFR2	22	n/a	n/a	n/a	24	16	7	6	3
3715254	PROB	n/a	LTP329	ltpFR2	22	n/a	n/a	n/a	24	14	6	3	5
3717004	PROB	n/a	LTP329	ltpFR2	22	n/a	n/a	n/a	24	13	4	4	5
3719586	PROB	n/a	LTP329	ltpFR2	22	n/a	n/a	n/a	24	16	2	7	7
3721235	PROB	n/a	LTP329	ltpFR2	22	n/a	n/a	n/a	24	16	7	8	1
3722668	PROB	n/a	LTP329	ltpFR2	22	n/a	n/a	n/a	24	18	5	9	4
3724750	PROB	n/a	LTP329	ltpFR2	22	n/a	n/a	n/a	24	15	9	4	2
3726299	PROB	n/a	LTP329	ltpFR2	22	n/a	n/a	n/a	24	7	1	1	5
3727498	PROB	n/a	LTP329	ltpFR2	22	n/a	n/a	n/a	24	10	7	2	1
3728582	PROB	n/a	LTP329	ltpFR2	22	n/a	n/a	n/a	24	5	2	1	2
3729532	STOP	n/a	LTP329	ltpFR2	22	n/a	n/a	n/a	24	n/a	n/a	n/a	n/a
3732032	REC_START	n/a	LTP329	ltpFR2	22	17	n/a	n/a	n/a	n/a	0	0	0
3733427	REC_WORD_VV	wordpools/wasnorm_wordpool_576.txt	LTP329	ltpFR2	22	17	<>	-1	n/a	n/a	0	0	0
3736682	REC_WORD	wordpools/wasnorm_wordpool_576.txt	LTP329	ltpFR2	22	17	ROBBER	1197	n/a	n/a	0	0	0
3737735	REC_WORD	wordpools/wasnorm_wordpool_576.txt	LTP329	ltpFR2	22	17	SUSPECT	1415	n/a	n/a	0	0	0
3739784	REC_WORD	wordpools/wasnorm_wordpool_576.txt	LTP329	ltpFR2	22	17	FILM	565	n/a	n/a	0	0	0
3741607	REC_WORD	wordpools/wasnorm_wordpool_576.txt	LTP329	ltpFR2	22	17	SERVANT	1271	n/a	n/a	0	0	0
3743013	REC_WORD	wordpools/wasnorm_wordpool_576.txt	LTP329	ltpFR2	22	17	WAITRESS	1581	n/a	n/a	0	0	0
3744466	REC_WORD	wordpools/wasnorm_wordpool_576.txt	LTP329	ltpFR2	22	17	TORTOISE	1486	n/a	n/a	0	0	0
3745635	REC_WORD	wordpools/wasnorm_wordpool_576.txt	LTP329	ltpFR2	22	17	LIZARD	834	n/a	n/a	0	0	0
3751547	REC_WORD	wordpools/wasnorm_wordpool_576.txt	LTP329	ltpFR2	22	17	LAGOON	795	n/a	n/a	0	0	0
3752735	REC_WORD	wordpools/wasnorm_wordpool_576.txt	LTP329	ltpFR2	22	17	FLEET	578	n/a	n/a	0	0	0
3754598	REC_WORD	wordpools/wasnorm_wordpool_576.txt	LTP329	ltpFR2	22	17	MARKER	870	n/a	n/a	0	0	0
3758629	REC_WORD	wordpools/wasnorm_wordpool_576.txt	LTP329	ltpFR2	22	17	SMOG	1330	n/a	n/a	0	0	0
3760013	REC_WORD	wordpools/wasnorm_wordpool_576.txt	LTP329	ltpFR2	22	17	GOBLIN	645	n/a	n/a	0	0	0
3762232	REC_WORD	wordpools/wasnorm_wordpool_576.txt	LTP329	ltpFR2	22	17	KETCHUP	771	n/a	n/a	0	0	0
3763449	REC_WORD	wordpools/wasnorm_wordpool_576.txt	LTP329	ltpFR2	22	17	SCISSORS	1250	n/a	n/a	0	0	0
3769240	REC_WORD	wordpools/wasnorm_wordpool_576.txt	LTP329	ltpFR2	22	17	ORCHID	982	n/a	n/a	0	0	0
3770339	REC_WORD	wordpools/wasnorm_wordpool_576.txt	LTP329	ltpFR2	22	17	FLOWER	584	n/a	n/a	0	0	0
3785635	REC_WORD	wordpools/wasnorm_wordpool_576.txt	LTP329	ltpFR2	22	17	FRAME	600	n/a	n/a	0	0	0
3795758	REC_WORD	wordpools/wasnorm_wordpool_576.txt	LTP329	ltpFR2	22	17	PAIL	1002	n/a	n/a	0	0	0
3803717	REC_WORD	wordpools/wasnorm_wordpool_576.txt	LTP329	ltpFR2	22	17	APRON	35	n/a	n/a	0	0	0
3822685	DISTRACTOR	n/a	LTP329	ltpFR2	22	18	n/a	n/a	n/a	n/a	0	0	0
3822685	START	n/a	LTP329	ltpFR2	22	n/a	n/a	n/a	25	n/a	n/a	n/a	n/a
3822718	PROB	n/a	LTP329	ltpFR2	22	n/a	n/a	n/a	25	14	2	9	3
3824601	PROB	n/a	LTP329	ltpFR2	22	n/a	n/a	n/a	25	23	9	8	6
3827249	PROB	n/a	LTP329	ltpFR2	22	n/a	n/a	n/a	25	17	7	4	6
3828832	PROB	n/a	LTP329	ltpFR2	22	n/a	n/a	n/a	25	12	1	2	9
3830598	PROB	n/a	LTP329	ltpFR2	22	n/a	n/a	n/a	25	16	4	8	4
3833880	PROB	n/a	LTP329	ltpFR2	22	n/a	n/a	n/a	25	19	7	7	5
3835079	PROB	n/a	LTP329	ltpFR2	22	n/a	n/a	n/a	25	9	1	1	7
3836078	PROB	n/a	LTP329	ltpFR2	22	n/a	n/a	n/a	25	15	5	3	7
3837227	PROB	n/a	LTP329	ltpFR2	22	n/a	n/a	n/a	25	20	9	7	4
3838910	PROB	n/a	LTP329	ltpFR2	22	n/a	n/a	n/a	25	19	5	8	6
3841143	PROB	n/a	LTP329	ltpFR2	22	n/a	n/a	n/a	25	9	3	4	2
3842908	PROB	n/a	LTP329	ltpFR2	22	n/a	n/a	n/a	25	8	1	4	3
3845157	PROB	n/a	LTP329	ltpFR2	22	n/a	n/a	n/a	25	15	7	4	4
3846556	STOP	n/a	LTP329	ltpFR2	22	n/a	n/a	n/a	25	n/a	n/a	n/a	n/a
3847723	WORD	wordpools/wasnorm_wordpool_576.txt	LTP329	ltpFR2	22	18	HEART	697	n/a	n/a	0	0	0
3850487	WORD	wordpools/wasnorm_wordpool_576.txt	LTP329	ltpFR2	22	18	TROUT	1511	n/a	n/a	0	0	0
3852953	WORD	wordpools/wasnorm_wordpool_576.txt	LTP329	ltpFR2	22	18	LOVER	846	n/a	n/a	0	0	0
3855485	WORD	wordpools/wasnorm_wordpool_576.txt	LTP329	ltpFR2	22	18	AUTHOR	61	n/a	n/a	0	0	0
3858151	WORD	wordpools/wasnorm_wordpool_576.txt	LTP329	ltpFR2	22	18	SCARECROW	1245	n/a	n/a	0	0	0
3860783	WORD	wordpools/wasnorm_wordpool_576.txt	LTP329	ltpFR2	22	18	LACE	792	n/a	n/a	0	0	0
3863397	WORD	wordpools/wasnorm_wordpool_576.txt	LTP329	ltpFR2	22	18	SHARK	1275	n/a	n/a	0	0	0
3865897	WORD	wordpools/wasnorm_wordpool_576.txt	LTP329	ltpFR2	22	18	FLESH	579	n/a	n/a	0	0	0
3868546	WORD	wordpools/wasnorm_wordpool_576.txt	LTP329	ltpFR2	22	18	LIVER	833	n/a	n/a	0	0	0
3871078	WORD	wordpools/wasnorm_wordpool_576.txt	LTP329	ltpFR2	22	18	LABEL	790	n/a	n/a	0	0	0
3873593	WORD	wordpools/wasnorm_wordpool_576.txt	LTP329	ltpFR2	22	18	ZIPPER	1636	n/a	n/a	0	0	0
3876274	WORD	wordpools/wasnorm_wordpool_576.txt	LTP329	ltpFR2	22	18	FEMALE	559	n/a	n/a	0	0	0
3878924	WORD	wordpools/wasnorm_wordpool_576.txt	LTP329	ltpFR2	22	18	COUNTY	389	n/a	n/a	0	0	0
3881438	WORD	wordpools/wasnorm_wordpool_576.txt	LTP329	ltpFR2	22	18	GREASE	660	n/a	n/a	0	0	0
3884220	WORD	wordpools/wasnorm_wordpool_576.txt	LTP329	ltpFR2	22	18	NIGHTGOWN	953	n/a	n/a	0	0	0
3886720	WORD	wordpools/wasnorm_wordpool_576.txt	LTP329	ltpFR2	22	18	MOTEL	919	n/a	n/a	0	0	0
3889201	WORD	wordpools/wasnorm_wordpool_576.txt	LTP329	ltpFR2	22	18	DIVER	476	n/a	n/a	0	0	0
3891884	WORD	wordpools/wasnorm_wordpool_576.txt	LTP329	ltpFR2	22	18	PUDDLE	1140	n/a	n/a	0	0	0
3894482	WORD	wordpools/wasnorm_wordpool_576.txt	LTP329	ltpFR2	22	18	QUAIL	1147	n/a	n/a	0	0	0
3896948	WORD	wordpools/wasnorm_wordpool_576.txt	LTP329	ltpFR2	22	18	DUSTPAN	509	n/a	n/a	0	0	0
3899680	WORD	wordpools/wasnorm_wordpool_576.txt	LTP329	ltpFR2	22	18	CHEST	295	n/a	n/a	0	0	0
3902395	WORD	wordpools/wasnorm_wordpool_576.txt	LTP329	ltpFR2	22	18	PERMIT	1051	n/a	n/a	0	0	0
3904978	WORD	wordpools/wasnorm_wordpool_576.txt	LTP329	ltpFR2	22	18	DENTIST	447	n/a	n/a	0	0	0
3907776	WORD	wordpools/wasnorm_wordpool_576.txt	LTP329	ltpFR2	22	18	PRIMATE	1123	n/a	n/a	0	0	0
3909391	START	n/a	LTP329	ltpFR2	22	n/a	n/a	n/a	26	n/a	n/a	n/a	n/a
3910458	DISTRACTOR	n/a	LTP329	ltpFR2	22	18	n/a	n/a	n/a	n/a	0	0	0
3910474	PROB	n/a	LTP329	ltpFR2	22	n/a	n/a	n/a	26	12	3	7	2
3912141	PROB	n/a	LTP329	ltpFR2	22	n/a	n/a	n/a	26	19	9	2	8
3913540	PROB	n/a	LTP329	ltpFR2	22	n/a	n/a	n/a	26	17	6	9	2
3915521	PROB	n/a	LTP329	ltpFR2	22	n/a	n/a	n/a	26	14	3	3	8
3917072	PROB	n/a	LTP329	ltpFR2	22	n/a	n/a	n/a	26	15	7	2	6
3918904	PROB	n/a	LTP329	ltpFR2	22	n/a	n/a	n/a	26	15	7	2	6
3920137	PROB	n/a	LTP329	ltpFR2	22	n/a	n/a	n/a	26	20	8	6	6
3922069	PROB	n/a	LTP329	ltpFR2	22	n/a	n/a	n/a	26	24	8	8	8
3924118	PROB	n/a	LTP329	ltpFR2	22	n/a	n/a	n/a	26	17	3	9	5
3925784	PROB	n/a	LTP329	ltpFR2	22	n/a	n/a	n/a	26	16	6	6	4
3927199	PROB	n/a	LTP329	ltpFR2	22	n/a	n/a	n/a	26	15	6	2	7
3929166	PROB	n/a	LTP329	ltpFR2	22	n/a	n/a	n/a	26	1	3	2	9
3930598	PROB	n/a	LTP329	ltpFR2	22	n/a	n/a	n/a	26	12	6	2	4
3932203	STOP	n/a	LTP329	ltpFR2	22	n/a	n/a	n/a	26	n/a	n/a	n/a	n/a
3935329	REC_START	n/a	LTP329	ltpFR2	22	18	n/a	n/a	n/a	n/a	0	0	0
3937206	REC_WORD	wordpools/wasnorm_wordpool_576.txt	LTP329	ltpFR2	22	18	GREASE	660	n/a	n/a	0	0	0
3938467	REC_WORD	wordpools/wasnorm_wordpool_576.txt	LTP329	ltpFR2	22	18	QUAIL	1147	n/a	n/a	0	0	0
3943128	REC_WORD	wordpools/wasnorm_wordpool_576.txt	LTP329	ltpFR2	22	18	CHEST	295	n/a	n/a	0	0	0
3944350	REC_WORD	wordpools/wasnorm_wordpool_576.txt	LTP329	ltpFR2	22	18	HEART	697	n/a	n/a	0	0	0
3945591	REC_WORD	wordpools/wasnorm_wordpool_576.txt	LTP329	ltpFR2	22	18	LOVER	846	n/a	n/a	0	0	0
3947176	REC_WORD	wordpools/wasnorm_wordpool_576.txt	LTP329	ltpFR2	22	18	FEMALE	559	n/a	n/a	0	0	0
3948498	REC_WORD	wordpools/wasnorm_wordpool_576.txt	LTP329	ltpFR2	22	18	SILK	1307	n/a	n/a	0	0	0
3950863	REC_WORD	wordpools/wasnorm_wordpool_576.txt	LTP329	ltpFR2	22	18	DENTIST	447	n/a	n/a	0	0	0
3952030	REC_WORD	wordpools/wasnorm_wordpool_576.txt	LTP329	ltpFR2	22	18	DIVER	476	n/a	n/a	0	0	0
3953224	REC_WORD	wordpools/wasnorm_wordpool_576.txt	LTP329	ltpFR2	22	18	PERMIT	1051	n/a	n/a	0	0	0
3954641	REC_WORD	wordpools/wasnorm_wordpool_576.txt	LTP329	ltpFR2	22	18	PUDDLE	1140	n/a	n/a	0	0	0
3969179	REC_WORD	wordpools/wasnorm_wordpool_576.txt	LTP329	ltpFR2	22	18	SCARECROW	1245	n/a	n/a	0	0	0
3975870	REC_WORD	wordpools/wasnorm_wordpool_576.txt	LTP329	ltpFR2	22	18	SHARK	1275	n/a	n/a	0	0	0
3977045	REC_WORD	wordpools/wasnorm_wordpool_576.txt	LTP329	ltpFR2	22	18	FLESH	579	n/a	n/a	0	0	0
3979246	REC_WORD	wordpools/wasnorm_wordpool_576.txt	LTP329	ltpFR2	22	18	PRIMATE	1123	n/a	n/a	0	0	0
3999127	REC_WORD	wordpools/wasnorm_wordpool_576.txt	LTP329	ltpFR2	22	18	DUSTPAN	509	n/a	n/a	0	0	0
4005531	REC_WORD	wordpools/wasnorm_wordpool_576.txt	LTP329	ltpFR2	22	18	COUNTY	389	n/a	n/a	0	0	0
4025984	WORD	wordpools/wasnorm_wordpool_576.txt	LTP329	ltpFR2	22	19	ACTRESS	6	n/a	n/a	0	0	0
4028600	WORD	wordpools/wasnorm_wordpool_576.txt	LTP329	ltpFR2	22	19	WORKER	1621	n/a	n/a	0	0	0
4031380	WORD	wordpools/wasnorm_wordpool_576.txt	LTP329	ltpFR2	22	19	COCOON	339	n/a	n/a	0	0	0
4034047	WORD	wordpools/wasnorm_wordpool_576.txt	LTP329	ltpFR2	22	19	TERMITE	1451	n/a	n/a	0	0	0
4036511	WORD	wordpools/wasnorm_wordpool_576.txt	LTP329	ltpFR2	22	19	STOVE	1388	n/a	n/a	0	0	0
4039293	WORD	wordpools/wasnorm_wordpool_576.txt	LTP329	ltpFR2	22	19	FRECKLE	602	n/a	n/a	0	0	0
4042010	WORD	wordpools/wasnorm_wordpool_576.txt	LTP329	ltpFR2	22	19	CAPTIVE	240	n/a	n/a	0	0	0
4044474	WORD	wordpools/wasnorm_wordpool_576.txt	LTP329	ltpFR2	22	19	RADISH	1158	n/a	n/a	0	0	0
4047074	WORD	wordpools/wasnorm_wordpool_576.txt	LTP329	ltpFR2	22	19	BANK	83	n/a	n/a	0	0	0
4049806	WORD	wordpools/wasnorm_wordpool_576.txt	LTP329	ltpFR2	22	19	CONTRACT	368	n/a	n/a	0	0	0
4052420	WORD	wordpools/wasnorm_wordpool_576.txt	LTP329	ltpFR2	22	19	LAVA	804	n/a	n/a	0	0	0
4054903	WORD	wordpools/wasnorm_wordpool_576.txt	LTP329	ltpFR2	22	19	MASK	876	n/a	n/a	0	0	0
4057618	WORD	wordpools/wasnorm_wordpool_576.txt	LTP329	ltpFR2	22	19	POLICE	1098	n/a	n/a	0	0	0
4060366	WORD	wordpools/wasnorm_wordpool_576.txt	LTP329	ltpFR2	22	19	TRANSPLANT	1496	n/a	n/a	0	0	0
4063099	WORD	wordpools/wasnorm_wordpool_576.txt	LTP329	ltpFR2	22	19	SURVEY	1414	n/a	n/a	0	0	0
4065898	WORD	wordpools/wasnorm_wordpool_576.txt	LTP329	ltpFR2	22	19	SERVER	1272	n/a	n/a	0	0	0
4068613	WORD	wordpools/wasnorm_wordpool_576.txt	LTP329	ltpFR2	22	19	PIMPLE	1071	n/a	n/a	0	0	0
4071162	WORD	wordpools/wasnorm_wordpool_576.txt	LTP329	ltpFR2	22	19	SHERIFF	1284	n/a	n/a	0	0	0
4074027	WORD	wordpools/wasnorm_wordpool_576.txt	LTP329	ltpFR2	22	19	HONEY	713	n/a	n/a	0	0	0
4076809	WORD	wordpools/wasnorm_wordpool_576.txt	LTP329	ltpFR2	22	19	POPCORN	1104	n/a	n/a	0	0	0
4079541	WORD	wordpools/wasnorm_wordpool_576.txt	LTP329	ltpFR2	22	19	CRITIC	410	n/a	n/a	0	0	0
4082156	WORD	wordpools/wasnorm_wordpool_576.txt	LTP329	ltpFR2	22	19	PLAZA	1088	n/a	n/a	0	0	0
4084822	WORD	wordpools/wasnorm_wordpool_576.txt	LTP329	ltpFR2	22	19	FINGER	567	n/a	n/a	0	0	0
4087587	WORD	wordpools/wasnorm_wordpool_576.txt	LTP329	ltpFR2	22	19	KITCHEN	778	n/a	n/a	0	0	0
4089219	START	n/a	LTP329	ltpFR2	22	n/a	n/a	n/a	27	n/a	n/a	n/a	n/a
4090373	DISTRACTOR	n/a	LTP329	ltpFR2	22	19	n/a	n/a	n/a	n/a	0	0	0
4090401	PROB	n/a	LTP329	ltpFR2	22	n/a	n/a	n/a	27	14	1	5	8
4092350	PROB	n/a	LTP329	ltpFR2	22	n/a	n/a	n/a	27	17	8	3	6
4094333	PROB	n/a	LTP329	ltpFR2	22	n/a	n/a	n/a	27	14	5	5	4
4095465	PROB	n/a	LTP329	ltpFR2	22	n/a	n/a	n/a	27	12	9	1	2
4096515	PROB	n/a	LTP329	ltpFR2	22	n/a	n/a	n/a	27	15	8	3	4
4098182	PROB	n/a	LTP329	ltpFR2	22	n/a	n/a	n/a	27	22	7	7	8
4100330	PROB	n/a	LTP329	ltpFR2	22	n/a	n/a	n/a	27	25	8	9	8
4104129	PROB	n/a	LTP329	ltpFR2	22	n/a	n/a	n/a	27	12	3	3	6
4106727	PROB	n/a	LTP329	ltpFR2	22	n/a	n/a	n/a	27	10	2	7	1
4108560	PROB	n/a	LTP329	ltpFR2	22	n/a	n/a	n/a	27	21	7	5	9
4113218	STOP	n/a	LTP329	ltpFR2	22	n/a	n/a	n/a	27	n/a	n/a	n/a	n/a
4115107	REC_START	n/a	LTP329	ltpFR2	22	19	n/a	n/a	n/a	n/a	0	0	0
4119362	REC_WORD	wordpools/wasnorm_wordpool_576.txt	LTP329	ltpFR2	22	19	CONTRACT	368	n/a	n/a	0	0	0
4120393	REC_WORD	wordpools/wasnorm_wordpool_576.txt	LTP329	ltpFR2	22	19	SURVEY	1414	n/a	n/a	0	0	0
4121492	REC_WORD	wordpools/wasnorm_wordpool_576.txt	LTP329	ltpFR2	22	19	PLAZA	1088	n/a	n/a	0	0	0
4122589	REC_WORD	wordpools/wasnorm_wordpool_576.txt	LTP329	ltpFR2	22	19	BANK	83	n/a	n/a	0	0	0
4123552	REC_WORD	wordpools/wasnorm_wordpool_576.txt	LTP329	ltpFR2	22	19	FINGER	567	n/a	n/a	0	0	0
4126403	REC_WORD	wordpools/wasnorm_wordpool_576.txt	LTP329	ltpFR2	22	19	STOVE	1388	n/a	n/a	0	0	0
4138898	REC_WORD	wordpools/wasnorm_wordpool_576.txt	LTP329	ltpFR2	22	19	POLICE	1098	n/a	n/a	0	0	0
4139797	REC_WORD	wordpools/wasnorm_wordpool_576.txt	LTP329	ltpFR2	22	19	SHERIFF	1284	n/a	n/a	0	0	0
4141363	REC_WORD	wordpools/wasnorm_wordpool_576.txt	LTP329	ltpFR2	22	19	SHERIFF	1284	n/a	n/a	0	0	0
4142528	REC_WORD	wordpools/wasnorm_wordpool_576.txt	LTP329	ltpFR2	22	19	CAPTIVE	240	n/a	n/a	0	0	0
4143528	REC_WORD_VV	wordpools/wasnorm_wordpool_576.txt	LTP329	ltpFR2	22	19	<>	-1	n/a	n/a	0	0	0
4144623	REC_WORD	wordpools/wasnorm_wordpool_576.txt	LTP329	ltpFR2	22	19	ACTRESS	6	n/a	n/a	0	0	0
4149438	REC_WORD	wordpools/wasnorm_wordpool_576.txt	LTP329	ltpFR2	22	19	WORKER	1621	n/a	n/a	0	0	0
4170105	REC_WORD	wordpools/wasnorm_wordpool_576.txt	LTP329	ltpFR2	22	19	TRANSPLANT	1496	n/a	n/a	0	0	0
4205745	DISTRACTOR	n/a	LTP329	ltpFR2	22	20	n/a	n/a	n/a	n/a	0	0	0
4205745	START	n/a	LTP329	ltpFR2	22	n/a	n/a	n/a	28	n/a	n/a	n/a	n/a
4205778	PROB	n/a	LTP329	ltpFR2	22	n/a	n/a	n/a	28	8	6	1	1
4207210	PROB	n/a	LTP329	ltpFR2	22	n/a	n/a	n/a	28	10	3	5	2
4208359	PROB	n/a	LTP329	ltpFR2	22	n/a	n/a	n/a	28	17	7	5	5
4209676	PROB	n/a	LTP329	ltpFR2	22	n/a	n/a	n/a	28	5	1	2	2
4210626	PROB	n/a	LTP329	ltpFR2	22	n/a	n/a	n/a	28	19	6	7	6
4212741	PROB	n/a	LTP329	ltpFR2	22	n/a	n/a	n/a	28	23	9	9	5
4215607	PROB	n/a	LTP329	ltpFR2	22	n/a	n/a	n/a	28	12	8	2	2
4217221	PROB	n/a	LTP329	ltpFR2	22	n/a	n/a	n/a	28	14	4	1	9
4218371	PROB	n/a	LTP329	ltpFR2	22	n/a	n/a	n/a	28	17	8	8	1
4219705	PROB	n/a	LTP329	ltpFR2	22	n/a	n/a	n/a	28	21	7	8	6
4222653	PROB	n/a	LTP329	ltpFR2	22	n/a	n/a	n/a	28	16	4	5	7
4224368	PROB	n/a	LTP329	ltpFR2	22	n/a	n/a	n/a	28	18	6	7	5
4226300	PROB	n/a	LTP329	ltpFR2	22	n/a	n/a	n/a	28	21	9	4	8
4228199	PROB	n/a	LTP329	ltpFR2	22	n/a	n/a	n/a	28	8	2	1	4
4229708	STOP	n/a	LTP329	ltpFR2	22	n/a	n/a	n/a	28	n/a	n/a	n/a	n/a
4230766	WORD	wordpools/wasnorm_wordpool_576.txt	LTP329	ltpFR2	22	20	PARROT	1015	n/a	n/a	0	0	0
4233531	WORD	wordpools/wasnorm_wordpool_576.txt	LTP329	ltpFR2	22	20	HOUND	724	n/a	n/a	0	0	0
4236180	WORD	wordpools/wasnorm_wordpool_576.txt	LTP329	ltpFR2	22	20	DRUG	501	n/a	n/a	0	0	0
4238878	WORD	wordpools/wasnorm_wordpool_576.txt	LTP329	ltpFR2	22	20	FUNGUS	614	n/a	n/a	0	0	0
4241459	WORD	wordpools/wasnorm_wordpool_576.txt	LTP329	ltpFR2	22	20	SLUG	1329	n/a	n/a	0	0	0
4244159	WORD	wordpools/wasnorm_wordpool_576.txt	LTP329	ltpFR2	22	20	BANKER	84	n/a	n/a	0	0	0
4246841	WORD	wordpools/wasnorm_wordpool_576.txt	LTP329	ltpFR2	22	20	SHORTCAKE	1292	n/a	n/a	0	0	0
4249640	WORD	wordpools/wasnorm_wordpool_576.txt	LTP329	ltpFR2	22	20	HEDGE	699	n/a	n/a	0	0	0
4252287	WORD	wordpools/wasnorm_wordpool_576.txt	LTP329	ltpFR2	22	20	SISTER	1312	n/a	n/a	0	0	0
4254787	WORD	wordpools/wasnorm_wordpool_576.txt	LTP329	ltpFR2	22	20	BROTHER	179	n/a	n/a	0	0	0
4257636	WORD	wordpools/wasnorm_wordpool_576.txt	LTP329	ltpFR2	22	20	LIPSTICK	829	n/a	n/a	0	0	0
4260185	WORD	wordpools/wasnorm_wordpool_576.txt	LTP329	ltpFR2	22	20	PLUTO	1092	n/a	n/a	0	0	0
4262767	WORD	wordpools/wasnorm_wordpool_576.txt	LTP329	ltpFR2	22	20	GROUND	666	n/a	n/a	0	0	0
4265364	WORD	wordpools/wasnorm_wordpool_576.txt	LTP329	ltpFR2	22	20	QUARTER	1148	n/a	n/a	0	0	0
4268031	WORD	wordpools/wasnorm_wordpool_576.txt	LTP329	ltpFR2	22	20	DOUGHNUT	490	n/a	n/a	0	0	0
4270829	WORD	wordpools/wasnorm_wordpool_576.txt	LTP329	ltpFR2	22	20	DONKEY	484	n/a	n/a	0	0	0
4273494	WORD	wordpools/wasnorm_wordpool_576.txt	LTP329	ltpFR2	22	20	SNAIL	1332	n/a	n/a	0	0	0
4276309	WORD	wordpools/wasnorm_wordpool_576.txt	LTP329	ltpFR2	22	20	SNACK	1331	n/a	n/a	0	0	0
4278775	WORD	wordpools/wasnorm_wordpool_576.txt	LTP329	ltpFR2	22	20	SADDLE	1221	n/a	n/a	0	0	0
4281223	WORD	wordpools/wasnorm_wordpool_576.txt	LTP329	ltpFR2	22	20	BUBBLE	183	n/a	n/a	0	0	0
4283773	WORD	wordpools/wasnorm_wordpool_576.txt	LTP329	ltpFR2	22	20	OMELET	976	n/a	n/a	0	0	0
4286538	WORD	wordpools/wasnorm_wordpool_576.txt	LTP329	ltpFR2	22	20	BRACES	164	n/a	n/a	0	0	0
4289120	WORD	wordpools/wasnorm_wordpool_576.txt	LTP329	ltpFR2	22	20	PORK	1108	n/a	n/a	0	0	0
4291785	WORD	wordpools/wasnorm_wordpool_576.txt	LTP329	ltpFR2	22	20	CARRIAGE	248	n/a	n/a	0	0	0
4293417	START	n/a	LTP329	ltpFR2	22	n/a	n/a	n/a	29	n/a	n/a	n/a	n/a
4294392	DISTRACTOR	n/a	LTP329	ltpFR2	22	20	n/a	n/a	n/a	n/a	0	0	0
4294400	PROB	n/a	LTP329	ltpFR2	22	n/a	n/a	n/a	29	8	3	3	2
4295817	PROB	n/a	LTP329	ltpFR2	22	n/a	n/a	n/a	29	11	1	8	2
4296966	PROB	n/a	LTP329	ltpFR2	22	n/a	n/a	n/a	29	18	8	9	1
4298515	PROB	n/a	LTP329	ltpFR2	22	n/a	n/a	n/a	29	17	6	8	3
4300698	PROB	n/a	LTP329	ltpFR2	22	n/a	n/a	n/a	29	14	2	6	6
4302797	PROB	n/a	LTP329	ltpFR2	22	n/a	n/a	n/a	29	13	2	6	5
4307778	PROB	n/a	LTP329	ltpFR2	22	n/a	n/a	n/a	29	13	6	1	6
4308960	PROB	n/a	LTP329	ltpFR2	22	n/a	n/a	n/a	29	12	3	4	5
4310993	PROB	n/a	LTP329	ltpFR2	22	n/a	n/a	n/a	29	18	6	9	3
4313207	PROB	n/a	LTP329	ltpFR2	22	n/a	n/a	n/a	29	10	7	1	2
4314357	PROB	n/a	LTP329	ltpFR2	22	n/a	n/a	n/a	29	11	1	2	8
4315406	PROB	n/a	LTP329	ltpFR2	22	n/a	n/a	n/a	29	18	9	6	3
4316628	STOP	n/a	LTP329	ltpFR2	22	n/a	n/a	n/a	29	n/a	n/a	n/a	n/a
4319271	REC_START	n/a	LTP329	ltpFR2	22	20	n/a	n/a	n/a	n/a	0	0	0
4320641	REC_WORD	wordpools/wasnorm_wordpool_576.txt	LTP329	ltpFR2	22	20	PORK	1108	n/a	n/a	0	0	0
4321478	REC_WORD	wordpools/wasnorm_wordpool_576.txt	LTP329	ltpFR2	22	20	OMELET	976	n/a	n/a	0	0	0
4322285	REC_WORD	wordpools/wasnorm_wordpool_576.txt	LTP329	ltpFR2	22	20	CARRIAGE	248	n/a	n/a	0	0	0
4323553	REC_WORD	wordpools/wasnorm_wordpool_576.txt	LTP329	ltpFR2	22	20	DRUG	501	n/a	n/a	0	0	0
4325916	REC_WORD	wordpools/wasnorm_wordpool_576.txt	LTP329	ltpFR2	22	20	SHORTCAKE	1292	n/a	n/a	0	0	0
4327117	REC_WORD	wordpools/wasnorm_wordpool_576.txt	LTP329	ltpFR2	22	20	HEDGE	699	n/a	n/a	0	0	0
4328309	REC_WORD	wordpools/wasnorm_wordpool_576.txt	LTP329	ltpFR2	22	20	QUARTER	1148	n/a	n/a	0	0	0
4329375	REC_WORD	wordpools/wasnorm_wordpool_576.txt	LTP329	ltpFR2	22	20	BANKER	84	n/a	n/a	0	0	0
4332811	REC_WORD	wordpools/wasnorm_wordpool_576.txt	LTP329	ltpFR2	22	20	SNAIL	1332	n/a	n/a	0	0	0
4336389	REC_WORD	wordpools/wasnorm_wordpool_576.txt	LTP329	ltpFR2	22	20	SLUG	1329	n/a	n/a	0	0	0
4346440	REC_WORD	wordpools/wasnorm_wordpool_576.txt	LTP329	ltpFR2	22	20	LIPSTICK	829	n/a	n/a	0	0	0
4347301	REC_WORD	wordpools/wasnorm_wordpool_576.txt	LTP329	ltpFR2	22	20	SISTER	1312	n/a	n/a	0	0	0
4348548	REC_WORD	wordpools/wasnorm_wordpool_576.txt	LTP329	ltpFR2	22	20	BROTHER	179	n/a	n/a	0	0	0
4353378	REC_WORD	wordpools/wasnorm_wordpool_576.txt	LTP329	ltpFR2	22	20	GROUND	666	n/a	n/a	0	0	0
4354417	REC_WORD	wordpools/wasnorm_wordpool_576.txt	LTP329	ltpFR2	22	20	FUNGUS	614	n/a	n/a	0	0	0
4355417	REC_WORD_VV	wordpools/wasnorm_wordpool_576.txt	LTP329	ltpFR2	22	20	<>	-1	n/a	n/a	0	0	0
4391168	REC_WORD	wordpools/wasnorm_wordpool_576.txt	LTP329	ltpFR2	22	20	TERMITE	1451	n/a	n/a	0	0	0
4409910	DISTRACTOR	n/a	LTP329	ltpFR2	22	21	n/a	n/a	n/a	n/a	0	0	0
4409910	START	n/a	LTP329	ltpFR2	22	n/a	n/a	n/a	30	n/a	n/a	n/a	n/a
4409944	PROB	n/a	LTP329	ltpFR2	22	n/a	n/a	n/a	30	12	1	3	8
4411375	PROB	n/a	LTP329	ltpFR2	22	n/a	n/a	n/a	30	12	2	7	3
4413125	PROB	n/a	LTP329	ltpFR2	22	n/a	n/a	n/a	30	11	3	6	2
4414941	PROB	n/a	LTP329	ltpFR2	22	n/a	n/a	n/a	30	15	8	1	6
4416674	PROB	n/a	LTP329	ltpFR2	22	n/a	n/a	n/a	30	18	4	5	9
4418539	PROB	n/a	LTP329	ltpFR2	22	n/a	n/a	n/a	30	20	7	8	5
4421971	PROB	n/a	LTP329	ltpFR2	22	n/a	n/a	n/a	30	13	7	1	5
4424703	PROB	n/a	LTP329	ltpFR2	22	n/a	n/a	n/a	30	15	5	6	4
4426036	PROB	n/a	LTP329	ltpFR2	22	n/a	n/a	n/a	30	19	9	1	9
4427168	PROB	n/a	LTP329	ltpFR2	22	n/a	n/a	n/a	30	13	9	1	3
4428217	PROB	n/a	LTP329	ltpFR2	22	n/a	n/a	n/a	30	23	8	8	7
4432860	STOP	n/a	LTP329	ltpFR2	22	n/a	n/a	n/a	30	n/a	n/a	n/a	n/a
4434848	WORD	wordpools/wasnorm_wordpool_576.txt	LTP329	ltpFR2	22	21	JELLY	755	n/a	n/a	0	0	0
4437596	WORD	wordpools/wasnorm_wordpool_576.txt	LTP329	ltpFR2	22	21	QUEEN	1149	n/a	n/a	0	0	0
4440394	WORD	wordpools/wasnorm_wordpool_576.txt	LTP329	ltpFR2	22	21	SLIME	1327	n/a	n/a	0	0	0
4443194	WORD	wordpools/wasnorm_wordpool_576.txt	LTP329	ltpFR2	22	21	SPONGE	1355	n/a	n/a	0	0	0
4445926	WORD	wordpools/wasnorm_wordpool_576.txt	LTP329	ltpFR2	22	21	NECKLACE	940	n/a	n/a	0	0	0
4448407	WORD	wordpools/wasnorm_wordpool_576.txt	LTP329	ltpFR2	22	21	FRIEND	606	n/a	n/a	0	0	0
4450873	WORD	wordpools/wasnorm_wordpool_576.txt	LTP329	ltpFR2	22	21	PARTNER	1017	n/a	n/a	0	0	0
4453688	WORD	wordpools/wasnorm_wordpool_576.txt	LTP329	ltpFR2	22	21	PRINCE	1124	n/a	n/a	0	0	0
4456453	WORD	wordpools/wasnorm_wordpool_576.txt	LTP329	ltpFR2	22	21	LION	827	n/a	n/a	0	0	0
4459186	WORD	wordpools/wasnorm_wordpool_576.txt	LTP329	ltpFR2	22	21	COTTAGE	384	n/a	n/a	0	0	0
4461968	WORD	wordpools/wasnorm_wordpool_576.txt	LTP329	ltpFR2	22	21	PADDLE	1000	n/a	n/a	0	0	0
4464733	WORD	wordpools/wasnorm_wordpool_576.txt	LTP329	ltpFR2	22	21	PIGMENT	1066	n/a	n/a	0	0	0
4467364	WORD	wordpools/wasnorm_wordpool_576.txt	LTP329	ltpFR2	22	21	BACON	67	n/a	n/a	0	0	0
4469847	WORD	wordpools/wasnorm_wordpool_576.txt	LTP329	ltpFR2	22	21	SWITCH	1422	n/a	n/a	0	0	0
4472428	WORD	wordpools/wasnorm_wordpool_576.txt	LTP329	ltpFR2	22	21	CASKET	255	n/a	n/a	0	0	0
4475061	WORD	wordpools/wasnorm_wordpool_576.txt	LTP329	ltpFR2	22	21	SCALLOP	1242	n/a	n/a	0	0	0
4477593	WORD	wordpools/wasnorm_wordpool_576.txt	LTP329	ltpFR2	22	21	COMPASS	358	n/a	n/a	0	0	0
4480274	WORD	wordpools/wasnorm_wordpool_576.txt	LTP329	ltpFR2	22	21	CATCHER	258	n/a	n/a	0	0	0
4482741	WORD	wordpools/wasnorm_wordpool_576.txt	LTP329	ltpFR2	22	21	SCARF	1246	n/a	n/a	0	0	0
4485472	WORD	wordpools/wasnorm_wordpool_576.txt	LTP329	ltpFR2	22	21	SALAD	1224	n/a	n/a	0	0	0
4488021	WORD	wordpools/wasnorm_wordpool_576.txt	LTP329	ltpFR2	22	21	TURNIP	1521	n/a	n/a	0	0	0
4490837	WORD	wordpools/wasnorm_wordpool_576.txt	LTP329	ltpFR2	22	21	STONE	1385	n/a	n/a	0	0	0
4493334	WORD	wordpools/wasnorm_wordpool_576.txt	LTP329	ltpFR2	22	21	KIDNEY	776	n/a	n/a	0	0	0
4496101	WORD	wordpools/wasnorm_wordpool_576.txt	LTP329	ltpFR2	22	21	SOFTBALL	1343	n/a	n/a	0	0	0
