mstime	trial_type	stim_file	subject	experiment	session	trial	task	item_name	item_num	recog_conf	resp	color_b	color_g	color_r	case	font
0	SESS_START	n/a	LTP080	ltpFR	0	n/a	n/a	n/a	n/a	n/a	n/a	n/a	n/a	n/a	n/a	n/a
43569	WORD	wordpools/wasnorm_wordpool.txt	LTP080	ltpFR	0	1	-1	SAUCER	1237	n/a	-1	1	1.0	1.0	upper	../fonts/Verdana.ttf
47585	WORD	wordpools/wasnorm_wordpool.txt	LTP080	ltpFR	0	1	-1	LEVER	815	n/a	-1	1	1.0	1.0	upper	../fonts/Verdana.ttf
51734	WORD	wordpools/wasnorm_wordpool.txt	LTP080	ltpFR	0	1	-1	RASPBERRY	1168	n/a	-1	1	1.0	1.0	upper	../fonts/Verdana.ttf
55634	WORD	wordpools/wasnorm_wordpool.txt	LTP080	ltpFR	0	1	-1	SUBURB	1399	n/a	-1	1	1.0	1.0	upper	../fonts/Verdana.ttf
59808	WORD	wordpools/wasnorm_wordpool.txt	LTP080	ltpFR	0	1	-1	COTTAGE	384	n/a	-1	1	1.0	1.0	upper	../fonts/Verdana.ttf
63983	WORD	wordpools/wasnorm_wordpool.txt	LTP080	ltpFR	0	1	-1	TWEEZERS	1526	n/a	-1	1	1.0	1.0	upper	../fonts/Verdana.ttf
68091	WORD	wordpools/wasnorm_wordpool.txt	LTP080	ltpFR	0	1	-1	REPORT	1184	n/a	-1	1	1.0	1.0	upper	../fonts/Verdana.ttf
72258	WORD	wordpools/wasnorm_wordpool.txt	LTP080	ltpFR	0	1	-1	IDOL	733	n/a	-1	1	1.0	1.0	upper	../fonts/Verdana.ttf
76107	WORD	wordpools/wasnorm_wordpool.txt	LTP080	ltpFR	0	1	-1	CREATURE	403	n/a	-1	1	1.0	1.0	upper	../fonts/Verdana.ttf
80283	WORD	wordpools/wasnorm_wordpool.txt	LTP080	ltpFR	0	1	-1	CHERRY	293	n/a	-1	1	1.0	1.0	upper	../fonts/Verdana.ttf
84474	WORD	wordpools/wasnorm_wordpool.txt	LTP080	ltpFR	0	1	-1	SUBMARINE	1398	n/a	-1	1	1.0	1.0	upper	../fonts/Verdana.ttf
88540	WORD	wordpools/wasnorm_wordpool.txt	LTP080	ltpFR	0	1	-1	POOL	1103	n/a	-1	1	1.0	1.0	upper	../fonts/Verdana.ttf
92639	WORD	wordpools/wasnorm_wordpool.txt	LTP080	ltpFR	0	1	-1	UNDERWEAR	1537	n/a	-1	1	1.0	1.0	upper	../fonts/Verdana.ttf
96797	WORD	wordpools/wasnorm_wordpool.txt	LTP080	ltpFR	0	1	-1	OATMEAL	967	n/a	-1	1	1.0	1.0	upper	../fonts/Verdana.ttf
100822	WORD	wordpools/wasnorm_wordpool.txt	LTP080	ltpFR	0	1	-1	CREEK	404	n/a	-1	1	1.0	1.0	upper	../fonts/Verdana.ttf
104963	WORD	wordpools/wasnorm_wordpool.txt	LTP080	ltpFR	0	1	-1	REEF	1177	n/a	-1	1	1.0	1.0	upper	../fonts/Verdana.ttf
110780	REC_START	n/a	LTP080	ltpFR	0	1	n/a	n/a	n/a	n/a	n/a	n/a	n/a	n/a	n/a	n/a
111758	REC_WORD	wordpools/wasnorm_wordpool.txt	LTP080	ltpFR	0	1	-1	CREEK	404	n/a	-1	n/a	n/a	n/a	n/a	n/a
112670	REC_WORD	wordpools/wasnorm_wordpool.txt	LTP080	ltpFR	0	1	-1	REEF	1177	n/a	-1	n/a	n/a	n/a	n/a	n/a
113663	REC_WORD	wordpools/wasnorm_wordpool.txt	LTP080	ltpFR	0	1	-1	SAUCER	1237	n/a	-1	n/a	n/a	n/a	n/a	n/a
114711	REC_WORD	wordpools/wasnorm_wordpool.txt	LTP080	ltpFR	0	1	n/a	LOVER	846	n/a	n/a	n/a	n/a	n/a	n/a	n/a
115958	REC_WORD	wordpools/wasnorm_wordpool.txt	LTP080	ltpFR	0	1	-1	UNDERWEAR	1537	n/a	-1	n/a	n/a	n/a	n/a	n/a
117090	REC_WORD	wordpools/wasnorm_wordpool.txt	LTP080	ltpFR	0	1	-1	COTTAGE	384	n/a	-1	n/a	n/a	n/a	n/a	n/a
117988	REC_WORD	wordpools/wasnorm_wordpool.txt	LTP080	ltpFR	0	1	-1	SUBURB	1399	n/a	-1	n/a	n/a	n/a	n/a	n/a
119460	REC_WORD	wordpools/wasnorm_wordpool.txt	LTP080	ltpFR	0	1	-1	REPORT	1184	n/a	-1	n/a	n/a	n/a	n/a	n/a
126633	REC_WORD	wordpools/wasnorm_wordpool.txt	LTP080	ltpFR	0	1	-1	SUBMARINE	1398	n/a	-1	n/a	n/a	n/a	n/a	n/a
138197	REC_WORD	wordpools/wasnorm_wordpool.txt	LTP080	ltpFR	0	1	-1	OATMEAL	967	n/a	-1	n/a	n/a	n/a	n/a	n/a
145516	REC_WORD	wordpools/wasnorm_wordpool.txt	LTP080	ltpFR	0	1	-1	CHERRY	293	n/a	-1	n/a	n/a	n/a	n/a	n/a
170603	REC_WORD_VV	wordpools/wasnorm_wordpool.txt	LTP080	ltpFR	0	1	n/a	<>	-1	n/a	n/a	n/a	n/a	n/a	n/a	n/a
192732	WORD	wordpools/wasnorm_wordpool.txt	LTP080	ltpFR	0	2	-1	POLITICIAN	1099	n/a	-1	1	1.0	1.0	upper	../fonts/Verdana.ttf
196640	WORD	wordpools/wasnorm_wordpool.txt	LTP080	ltpFR	0	2	-1	CANYON	235	n/a	-1	1	1.0	1.0	upper	../fonts/Verdana.ttf
200831	WORD	wordpools/wasnorm_wordpool.txt	LTP080	ltpFR	0	2	-1	ATTIRE	57	n/a	-1	1	1.0	1.0	upper	../fonts/Verdana.ttf
204647	WORD	wordpools/wasnorm_wordpool.txt	LTP080	ltpFR	0	2	-1	DART	440	n/a	-1	1	1.0	1.0	upper	../fonts/Verdana.ttf
208565	WORD	wordpools/wasnorm_wordpool.txt	LTP080	ltpFR	0	2	-1	TURNIP	1521	n/a	-1	1	1.0	1.0	upper	../fonts/Verdana.ttf
212456	WORD	wordpools/wasnorm_wordpool.txt	LTP080	ltpFR	0	2	-1	OFFICE	972	n/a	-1	1	1.0	1.0	upper	../fonts/Verdana.ttf
216306	WORD	wordpools/wasnorm_wordpool.txt	LTP080	ltpFR	0	2	-1	SPICE	1350	n/a	-1	1	1.0	1.0	upper	../fonts/Verdana.ttf
220121	WORD	wordpools/wasnorm_wordpool.txt	LTP080	ltpFR	0	2	-1	DRYER	503	n/a	-1	1	1.0	1.0	upper	../fonts/Verdana.ttf
223963	WORD	wordpools/wasnorm_wordpool.txt	LTP080	ltpFR	0	2	-1	SENATOR	1268	n/a	-1	1	1.0	1.0	upper	../fonts/Verdana.ttf
228146	WORD	wordpools/wasnorm_wordpool.txt	LTP080	ltpFR	0	2	-1	HUT	729	n/a	-1	1	1.0	1.0	upper	../fonts/Verdana.ttf
231979	WORD	wordpools/wasnorm_wordpool.txt	LTP080	ltpFR	0	2	-1	PRAIRIE	1118	n/a	-1	1	1.0	1.0	upper	../fonts/Verdana.ttf
236028	WORD	wordpools/wasnorm_wordpool.txt	LTP080	ltpFR	0	2	-1	NET	946	n/a	-1	1	1.0	1.0	upper	../fonts/Verdana.ttf
239945	WORD	wordpools/wasnorm_wordpool.txt	LTP080	ltpFR	0	2	-1	COACH	331	n/a	-1	1	1.0	1.0	upper	../fonts/Verdana.ttf
243936	WORD	wordpools/wasnorm_wordpool.txt	LTP080	ltpFR	0	2	-1	TELEVISION	1447	n/a	-1	1	1.0	1.0	upper	../fonts/Verdana.ttf
248036	WORD	wordpools/wasnorm_wordpool.txt	LTP080	ltpFR	0	2	-1	ANTENNA	28	n/a	-1	1	1.0	1.0	upper	../fonts/Verdana.ttf
252094	WORD	wordpools/wasnorm_wordpool.txt	LTP080	ltpFR	0	2	-1	CARPENTER	246	n/a	-1	1	1.0	1.0	upper	../fonts/Verdana.ttf
258002	REC_START	n/a	LTP080	ltpFR	0	2	n/a	n/a	n/a	n/a	n/a	n/a	n/a	n/a	n/a	n/a
258995	REC_WORD	wordpools/wasnorm_wordpool.txt	LTP080	ltpFR	0	2	-1	CARPENTER	246	n/a	-1	n/a	n/a	n/a	n/a	n/a
259793	REC_WORD	wordpools/wasnorm_wordpool.txt	LTP080	ltpFR	0	2	-1	ANTENNA	28	n/a	-1	n/a	n/a	n/a	n/a	n/a
260771	REC_WORD	wordpools/wasnorm_wordpool.txt	LTP080	ltpFR	0	2	-1	TELEVISION	1447	n/a	-1	n/a	n/a	n/a	n/a	n/a
262372	REC_WORD	wordpools/wasnorm_wordpool.txt	LTP080	ltpFR	0	2	-1	POLITICIAN	1099	n/a	-1	n/a	n/a	n/a	n/a	n/a
263559	REC_WORD	wordpools/wasnorm_wordpool.txt	LTP080	ltpFR	0	2	-1	ATTIRE	57	n/a	-1	n/a	n/a	n/a	n/a	n/a
264995	REC_WORD	wordpools/wasnorm_wordpool.txt	LTP080	ltpFR	0	2	-1	SENATOR	1268	n/a	-1	n/a	n/a	n/a	n/a	n/a
268413	REC_WORD	wordpools/wasnorm_wordpool.txt	LTP080	ltpFR	0	2	-1	HUT	729	n/a	-1	n/a	n/a	n/a	n/a	n/a
269595	REC_WORD	wordpools/wasnorm_wordpool.txt	LTP080	ltpFR	0	2	-1	CARPENTER	246	n/a	-1	n/a	n/a	n/a	n/a	n/a
273941	REC_WORD	wordpools/wasnorm_wordpool.txt	LTP080	ltpFR	0	2	-1	CANYON	235	n/a	-1	n/a	n/a	n/a	n/a	n/a
274893	REC_WORD	wordpools/wasnorm_wordpool.txt	LTP080	ltpFR	0	2	-1	PRAIRIE	1118	n/a	-1	n/a	n/a	n/a	n/a	n/a
283693	REC_WORD	wordpools/wasnorm_wordpool.txt	LTP080	ltpFR	0	2	-1	COACH	331	n/a	-1	n/a	n/a	n/a	n/a	n/a
284397	REC_WORD	wordpools/wasnorm_wordpool.txt	LTP080	ltpFR	0	2	-1	NET	946	n/a	-1	n/a	n/a	n/a	n/a	n/a
338438	WORD	wordpools/wasnorm_wordpool.txt	LTP080	ltpFR	0	3	-1	STAGE	1366	n/a	-1	1	1.0	1.0	upper	../fonts/Verdana.ttf
342388	WORD	wordpools/wasnorm_wordpool.txt	LTP080	ltpFR	0	3	-1	CIRCUS	311	n/a	-1	1	1.0	1.0	upper	../fonts/Verdana.ttf
346546	WORD	wordpools/wasnorm_wordpool.txt	LTP080	ltpFR	0	3	-1	CANDY	230	n/a	-1	1	1.0	1.0	upper	../fonts/Verdana.ttf
350379	WORD	wordpools/wasnorm_wordpool.txt	LTP080	ltpFR	0	3	-1	BUS	201	n/a	-1	1	1.0	1.0	upper	../fonts/Verdana.ttf
354287	WORD	wordpools/wasnorm_wordpool.txt	LTP080	ltpFR	0	3	-1	REPTILE	1185	n/a	-1	1	1.0	1.0	upper	../fonts/Verdana.ttf
358454	WORD	wordpools/wasnorm_wordpool.txt	LTP080	ltpFR	0	3	-1	MONGOOSE	909	n/a	-1	1	1.0	1.0	upper	../fonts/Verdana.ttf
362636	WORD	wordpools/wasnorm_wordpool.txt	LTP080	ltpFR	0	3	-1	GRADUATE	653	n/a	-1	1	1.0	1.0	upper	../fonts/Verdana.ttf
366769	WORD	wordpools/wasnorm_wordpool.txt	LTP080	ltpFR	0	3	-1	STAFF	1365	n/a	-1	1	1.0	1.0	upper	../fonts/Verdana.ttf
370627	WORD	wordpools/wasnorm_wordpool.txt	LTP080	ltpFR	0	3	-1	PARSLEY	1016	n/a	-1	1	1.0	1.0	upper	../fonts/Verdana.ttf
374768	WORD	wordpools/wasnorm_wordpool.txt	LTP080	ltpFR	0	3	-1	TUBE	1516	n/a	-1	1	1.0	1.0	upper	../fonts/Verdana.ttf
378751	WORD	wordpools/wasnorm_wordpool.txt	LTP080	ltpFR	0	3	-1	ROUGE	1213	n/a	-1	1	1.0	1.0	upper	../fonts/Verdana.ttf
382934	WORD	wordpools/wasnorm_wordpool.txt	LTP080	ltpFR	0	3	-1	OREGANO	983	n/a	-1	1	1.0	1.0	upper	../fonts/Verdana.ttf
387017	WORD	wordpools/wasnorm_wordpool.txt	LTP080	ltpFR	0	3	-1	LIBRARY	816	n/a	-1	1	1.0	1.0	upper	../fonts/Verdana.ttf
390909	WORD	wordpools/wasnorm_wordpool.txt	LTP080	ltpFR	0	3	-1	SPARROW	1347	n/a	-1	1	1.0	1.0	upper	../fonts/Verdana.ttf
394800	WORD	wordpools/wasnorm_wordpool.txt	LTP080	ltpFR	0	3	-1	WAGON	1578	n/a	-1	1	1.0	1.0	upper	../fonts/Verdana.ttf
398933	WORD	wordpools/wasnorm_wordpool.txt	LTP080	ltpFR	0	3	-1	PUPIL	1143	n/a	-1	1	1.0	1.0	upper	../fonts/Verdana.ttf
404704	REC_START	n/a	LTP080	ltpFR	0	3	n/a	n/a	n/a	n/a	n/a	n/a	n/a	n/a	n/a	n/a
405577	REC_WORD	wordpools/wasnorm_wordpool.txt	LTP080	ltpFR	0	3	-1	PUPIL	1143	n/a	-1	n/a	n/a	n/a	n/a	n/a
407348	REC_WORD	wordpools/wasnorm_wordpool.txt	LTP080	ltpFR	0	3	-1	CIRCUS	311	n/a	-1	n/a	n/a	n/a	n/a	n/a
408155	REC_WORD	wordpools/wasnorm_wordpool.txt	LTP080	ltpFR	0	3	-1	STAGE	1366	n/a	-1	n/a	n/a	n/a	n/a	n/a
411224	REC_WORD	wordpools/wasnorm_wordpool.txt	LTP080	ltpFR	0	3	-1	MONGOOSE	909	n/a	-1	n/a	n/a	n/a	n/a	n/a
412087	REC_WORD	wordpools/wasnorm_wordpool.txt	LTP080	ltpFR	0	3	-1	REPTILE	1185	n/a	-1	n/a	n/a	n/a	n/a	n/a
412785	REC_WORD	wordpools/wasnorm_wordpool.txt	LTP080	ltpFR	0	3	-1	SPARROW	1347	n/a	-1	n/a	n/a	n/a	n/a	n/a
430211	REC_WORD	wordpools/wasnorm_wordpool.txt	LTP080	ltpFR	0	3	-1	BUS	201	n/a	-1	n/a	n/a	n/a	n/a	n/a
432181	REC_WORD	wordpools/wasnorm_wordpool.txt	LTP080	ltpFR	0	3	-1	WAGON	1578	n/a	-1	n/a	n/a	n/a	n/a	n/a
438607	REC_WORD	wordpools/wasnorm_wordpool.txt	LTP080	ltpFR	0	3	-1	PARSLEY	1016	n/a	-1	n/a	n/a	n/a	n/a	n/a
442169	REC_WORD	wordpools/wasnorm_wordpool.txt	LTP080	ltpFR	0	3	-1	TUBE	1516	n/a	-1	n/a	n/a	n/a	n/a	n/a
451612	REC_WORD	wordpools/wasnorm_wordpool.txt	LTP080	ltpFR	0	3	-1	OREGANO	983	n/a	-1	n/a	n/a	n/a	n/a	n/a
484110	WORD	wordpools/wasnorm_wordpool.txt	LTP080	ltpFR	0	4	-1	SCREW	1254	n/a	-1	1	1.0	1.0	upper	../fonts/Verdana.ttf
488060	WORD	wordpools/wasnorm_wordpool.txt	LTP080	ltpFR	0	4	-1	OUTDOORS	987	n/a	-1	1	1.0	1.0	upper	../fonts/Verdana.ttf
492001	WORD	wordpools/wasnorm_wordpool.txt	LTP080	ltpFR	0	4	-1	MOVIE	927	n/a	-1	1	1.0	1.0	upper	../fonts/Verdana.ttf
495926	WORD	wordpools/wasnorm_wordpool.txt	LTP080	ltpFR	0	4	-1	FILM	565	n/a	-1	1	1.0	1.0	upper	../fonts/Verdana.ttf
499975	WORD	wordpools/wasnorm_wordpool.txt	LTP080	ltpFR	0	4	-1	POT	1114	n/a	-1	1	1.0	1.0	upper	../fonts/Verdana.ttf
503858	WORD	wordpools/wasnorm_wordpool.txt	LTP080	ltpFR	0	4	-1	DENTIST	447	n/a	-1	1	1.0	1.0	upper	../fonts/Verdana.ttf
507758	WORD	wordpools/wasnorm_wordpool.txt	LTP080	ltpFR	0	4	-1	OTTER	986	n/a	-1	1	1.0	1.0	upper	../fonts/Verdana.ttf
511924	WORD	wordpools/wasnorm_wordpool.txt	LTP080	ltpFR	0	4	-1	SANDWICH	1232	n/a	-1	1	1.0	1.0	upper	../fonts/Verdana.ttf
516024	WORD	wordpools/wasnorm_wordpool.txt	LTP080	ltpFR	0	4	-1	VINE	1568	n/a	-1	1	1.0	1.0	upper	../fonts/Verdana.ttf
519907	WORD	wordpools/wasnorm_wordpool.txt	LTP080	ltpFR	0	4	-1	TOMB	1477	n/a	-1	1	1.0	1.0	upper	../fonts/Verdana.ttf
523974	WORD	wordpools/wasnorm_wordpool.txt	LTP080	ltpFR	0	4	-1	SALOON	1228	n/a	-1	1	1.0	1.0	upper	../fonts/Verdana.ttf
527840	WORD	wordpools/wasnorm_wordpool.txt	LTP080	ltpFR	0	4	-1	DRINK	498	n/a	-1	1	1.0	1.0	upper	../fonts/Verdana.ttf
532031	WORD	wordpools/wasnorm_wordpool.txt	LTP080	ltpFR	0	4	-1	TEMPLE	1448	n/a	-1	1	1.0	1.0	upper	../fonts/Verdana.ttf
536014	WORD	wordpools/wasnorm_wordpool.txt	LTP080	ltpFR	0	4	-1	GRAVE	658	n/a	-1	1	1.0	1.0	upper	../fonts/Verdana.ttf
540147	WORD	wordpools/wasnorm_wordpool.txt	LTP080	ltpFR	0	4	-1	MILDEW	893	n/a	-1	1	1.0	1.0	upper	../fonts/Verdana.ttf
544097	WORD	wordpools/wasnorm_wordpool.txt	LTP080	ltpFR	0	4	-1	BAY	102	n/a	-1	1	1.0	1.0	upper	../fonts/Verdana.ttf
549781	REC_START	n/a	LTP080	ltpFR	0	4	n/a	n/a	n/a	n/a	n/a	n/a	n/a	n/a	n/a	n/a
550818	REC_WORD	wordpools/wasnorm_wordpool.txt	LTP080	ltpFR	0	4	-1	BAY	102	n/a	-1	n/a	n/a	n/a	n/a	n/a
551567	REC_WORD	wordpools/wasnorm_wordpool.txt	LTP080	ltpFR	0	4	-1	MILDEW	893	n/a	-1	n/a	n/a	n/a	n/a	n/a
552649	REC_WORD	wordpools/wasnorm_wordpool.txt	LTP080	ltpFR	0	4	-1	TOMB	1477	n/a	-1	n/a	n/a	n/a	n/a	n/a
560671	REC_WORD	wordpools/wasnorm_wordpool.txt	LTP080	ltpFR	0	4	-1	MOVIE	927	n/a	-1	n/a	n/a	n/a	n/a	n/a
561179	REC_WORD	wordpools/wasnorm_wordpool.txt	LTP080	ltpFR	0	4	-1	FILM	565	n/a	-1	n/a	n/a	n/a	n/a	n/a
561988	REC_WORD	wordpools/wasnorm_wordpool.txt	LTP080	ltpFR	0	4	-1	OUTDOORS	987	n/a	-1	n/a	n/a	n/a	n/a	n/a
563340	REC_WORD	wordpools/wasnorm_wordpool.txt	LTP080	ltpFR	0	4	-1	OTTER	986	n/a	-1	n/a	n/a	n/a	n/a	n/a
564547	REC_WORD	wordpools/wasnorm_wordpool.txt	LTP080	ltpFR	0	4	-1	BAY	102	n/a	-1	n/a	n/a	n/a	n/a	n/a
572509	REC_WORD	wordpools/wasnorm_wordpool.txt	LTP080	ltpFR	0	4	-1	DENTIST	447	n/a	-1	n/a	n/a	n/a	n/a	n/a
573632	REC_WORD	wordpools/wasnorm_wordpool.txt	LTP080	ltpFR	0	4	-1	POT	1114	n/a	-1	n/a	n/a	n/a	n/a	n/a
574295	REC_WORD	wordpools/wasnorm_wordpool.txt	LTP080	ltpFR	0	4	-1	SCREW	1254	n/a	-1	n/a	n/a	n/a	n/a	n/a
766256	WORD	wordpools/wasnorm_wordpool.txt	LTP080	ltpFR	0	5	0	VEIN	1554	n/a	0	1	0.412841796875	0.57763671875	upper	../fonts/zerothre.ttf
770456	WORD	wordpools/wasnorm_wordpool.txt	LTP080	ltpFR	0	5	0	TERMITE	1451	n/a	0	1	0.412841796875	0.57763671875	upper	../fonts/zerothre.ttf
774572	WORD	wordpools/wasnorm_wordpool.txt	LTP080	ltpFR	0	5	0	FLY	586	n/a	0	1	0.412841796875	0.57763671875	upper	../fonts/zerothre.ttf
778506	WORD	wordpools/wasnorm_wordpool.txt	LTP080	ltpFR	0	5	0	CRIB	407	n/a	1	1	0.412841796875	0.57763671875	upper	../fonts/zerothre.ttf
782355	WORD	wordpools/wasnorm_wordpool.txt	LTP080	ltpFR	0	5	0	BEE	112	n/a	0	1	0.412841796875	0.57763671875	upper	../fonts/zerothre.ttf
786455	WORD	wordpools/wasnorm_wordpool.txt	LTP080	ltpFR	0	5	0	PICKLE	1059	n/a	0	1	0.412841796875	0.57763671875	upper	../fonts/zerothre.ttf
790645	WORD	wordpools/wasnorm_wordpool.txt	LTP080	ltpFR	0	5	0	FOUNTAIN	597	n/a	1	1	0.412841796875	0.57763671875	upper	../fonts/zerothre.ttf
794579	WORD	wordpools/wasnorm_wordpool.txt	LTP080	ltpFR	0	5	0	FINGERNAIL	568	n/a	0	1	0.412841796875	0.57763671875	upper	../fonts/zerothre.ttf
798670	WORD	wordpools/wasnorm_wordpool.txt	LTP080	ltpFR	0	5	0	STRAWBERRY	1391	n/a	0	1	0.412841796875	0.57763671875	upper	../fonts/zerothre.ttf
802753	WORD	wordpools/wasnorm_wordpool.txt	LTP080	ltpFR	0	5	0	CAPTIVE	240	n/a	1	1	0.412841796875	0.57763671875	upper	../fonts/zerothre.ttf
806752	WORD	wordpools/wasnorm_wordpool.txt	LTP080	ltpFR	0	5	0	HOSTAGE	722	n/a	1	1	0.412841796875	0.57763671875	upper	../fonts/zerothre.ttf
810710	WORD	wordpools/wasnorm_wordpool.txt	LTP080	ltpFR	0	5	0	CHAMPAGNE	278	n/a	0	1	0.412841796875	0.57763671875	upper	../fonts/zerothre.ttf
814844	WORD	wordpools/wasnorm_wordpool.txt	LTP080	ltpFR	0	5	0	CUP	424	n/a	0	1	0.412841796875	0.57763671875	upper	../fonts/zerothre.ttf
818793	WORD	wordpools/wasnorm_wordpool.txt	LTP080	ltpFR	0	5	0	ORGAN	984	n/a	0	1	0.412841796875	0.57763671875	upper	../fonts/zerothre.ttf
822751	WORD	wordpools/wasnorm_wordpool.txt	LTP080	ltpFR	0	5	0	PUDDLE	1140	n/a	1	1	0.412841796875	0.57763671875	upper	../fonts/zerothre.ttf
826876	WORD	wordpools/wasnorm_wordpool.txt	LTP080	ltpFR	0	5	0	SCHOOL	1248	n/a	1	1	0.412841796875	0.57763671875	upper	../fonts/zerothre.ttf
832818	REC_START	n/a	LTP080	ltpFR	0	5	n/a	n/a	n/a	n/a	n/a	n/a	n/a	n/a	n/a	n/a
833900	REC_WORD	wordpools/wasnorm_wordpool.txt	LTP080	ltpFR	0	5	0	SCHOOL	1248	n/a	1	n/a	n/a	n/a	n/a	n/a
835187	REC_WORD	wordpools/wasnorm_wordpool.txt	LTP080	ltpFR	0	5	0	PUDDLE	1140	n/a	1	n/a	n/a	n/a	n/a	n/a
836933	REC_WORD	wordpools/wasnorm_wordpool.txt	LTP080	ltpFR	0	5	0	CHAMPAGNE	278	n/a	0	n/a	n/a	n/a	n/a	n/a
838280	REC_WORD	wordpools/wasnorm_wordpool.txt	LTP080	ltpFR	0	5	0	CUP	424	n/a	0	n/a	n/a	n/a	n/a	n/a
839168	REC_WORD	wordpools/wasnorm_wordpool.txt	LTP080	ltpFR	0	5	0	STRAWBERRY	1391	n/a	0	n/a	n/a	n/a	n/a	n/a
840959	REC_WORD	wordpools/wasnorm_wordpool.txt	LTP080	ltpFR	0	5	0	TERMITE	1451	n/a	0	n/a	n/a	n/a	n/a	n/a
842580	REC_WORD	wordpools/wasnorm_wordpool.txt	LTP080	ltpFR	0	5	0	FLY	586	n/a	0	n/a	n/a	n/a	n/a	n/a
845269	REC_WORD	wordpools/wasnorm_wordpool.txt	LTP080	ltpFR	0	5	0	HOSTAGE	722	n/a	1	n/a	n/a	n/a	n/a	n/a
846292	REC_WORD	wordpools/wasnorm_wordpool.txt	LTP080	ltpFR	0	5	0	CAPTIVE	240	n/a	1	n/a	n/a	n/a	n/a	n/a
853850	REC_WORD	wordpools/wasnorm_wordpool.txt	LTP080	ltpFR	0	5	0	ORGAN	984	n/a	0	n/a	n/a	n/a	n/a	n/a
873166	REC_WORD	wordpools/wasnorm_wordpool.txt	LTP080	ltpFR	0	5	0	FOUNTAIN	597	n/a	1	n/a	n/a	n/a	n/a	n/a
911895	WORD	wordpools/wasnorm_wordpool.txt	LTP080	ltpFR	0	6	0	MARGARINE	868	n/a	0	1	0.412841796875	0.57763671875	upper	../fonts/zerothre.ttf
915819	WORD	wordpools/wasnorm_wordpool.txt	LTP080	ltpFR	0	6	0	MUFFIN	929	n/a	0	1	0.412841796875	0.57763671875	upper	../fonts/zerothre.ttf
919786	WORD	wordpools/wasnorm_wordpool.txt	LTP080	ltpFR	0	6	0	PRESIDENT	1121	n/a	1	1	0.412841796875	0.57763671875	upper	../fonts/zerothre.ttf
923769	WORD	wordpools/wasnorm_wordpool.txt	LTP080	ltpFR	0	6	0	SEAL	1262	n/a	1	1	0.412841796875	0.57763671875	upper	../fonts/zerothre.ttf
927827	WORD	wordpools/wasnorm_wordpool.txt	LTP080	ltpFR	0	6	0	HOSE	720	n/a	1	1	0.412841796875	0.57763671875	upper	../fonts/zerothre.ttf
932035	WORD	wordpools/wasnorm_wordpool.txt	LTP080	ltpFR	0	6	0	SAXOPHONE	1240	n/a	1	1	0.412841796875	0.57763671875	upper	../fonts/zerothre.ttf
936134	WORD	wordpools/wasnorm_wordpool.txt	LTP080	ltpFR	0	6	0	SOFA	1342	n/a	1	1	0.412841796875	0.57763671875	upper	../fonts/zerothre.ttf
939984	WORD	wordpools/wasnorm_wordpool.txt	LTP080	ltpFR	0	6	0	DRESSER	496	n/a	1	1	0.412841796875	0.57763671875	upper	../fonts/zerothre.ttf
943809	WORD	wordpools/wasnorm_wordpool.txt	LTP080	ltpFR	0	6	0	SPRINKLE	1359	n/a	0	1	0.412841796875	0.57763671875	upper	../fonts/zerothre.ttf
948000	WORD	wordpools/wasnorm_wordpool.txt	LTP080	ltpFR	0	6	0	PAIL	1002	n/a	1	1	0.412841796875	0.57763671875	upper	../fonts/zerothre.ttf
951942	WORD	wordpools/wasnorm_wordpool.txt	LTP080	ltpFR	0	6	0	CLOSET	326	n/a	1	1	0.412841796875	0.57763671875	upper	../fonts/zerothre.ttf
956108	WORD	wordpools/wasnorm_wordpool.txt	LTP080	ltpFR	0	6	0	NIGHTGOWN	953	n/a	1	1	0.412841796875	0.57763671875	upper	../fonts/zerothre.ttf
960149	WORD	wordpools/wasnorm_wordpool.txt	LTP080	ltpFR	0	6	0	MOTH	920	n/a	0	1	0.412841796875	0.57763671875	upper	../fonts/zerothre.ttf
964275	WORD	wordpools/wasnorm_wordpool.txt	LTP080	ltpFR	0	6	0	SWING	1421	n/a	1	1	0.412841796875	0.57763671875	upper	../fonts/zerothre.ttf
968308	WORD	wordpools/wasnorm_wordpool.txt	LTP080	ltpFR	0	6	0	CHAIRPERSON	275	n/a	1	1	0.412841796875	0.57763671875	upper	../fonts/zerothre.ttf
972483	WORD	wordpools/wasnorm_wordpool.txt	LTP080	ltpFR	0	6	0	RICE	1190	n/a	0	1	0.412841796875	0.57763671875	upper	../fonts/zerothre.ttf
978233	REC_START	n/a	LTP080	ltpFR	0	6	n/a	n/a	n/a	n/a	n/a	n/a	n/a	n/a	n/a	n/a
979250	REC_WORD	wordpools/wasnorm_wordpool.txt	LTP080	ltpFR	0	6	0	RICE	1190	n/a	0	n/a	n/a	n/a	n/a	n/a
980178	REC_WORD	wordpools/wasnorm_wordpool.txt	LTP080	ltpFR	0	6	0	CHAIRPERSON	275	n/a	1	n/a	n/a	n/a	n/a	n/a
981540	REC_WORD	wordpools/wasnorm_wordpool.txt	LTP080	ltpFR	0	6	0	PRESIDENT	1121	n/a	1	n/a	n/a	n/a	n/a	n/a
993897	REC_WORD	wordpools/wasnorm_wordpool.txt	LTP080	ltpFR	0	6	0	CLOSET	326	n/a	1	n/a	n/a	n/a	n/a	n/a
994685	REC_WORD	wordpools/wasnorm_wordpool.txt	LTP080	ltpFR	0	6	0	SOFA	1342	n/a	1	n/a	n/a	n/a	n/a	n/a
997329	REC_WORD	wordpools/wasnorm_wordpool.txt	LTP080	ltpFR	0	6	0	SAXOPHONE	1240	n/a	1	n/a	n/a	n/a	n/a	n/a
1001415	REC_WORD	wordpools/wasnorm_wordpool.txt	LTP080	ltpFR	0	6	0	DRESSER	496	n/a	1	n/a	n/a	n/a	n/a	n/a
1016765	REC_WORD	wordpools/wasnorm_wordpool.txt	LTP080	ltpFR	0	6	0	MARGARINE	868	n/a	0	n/a	n/a	n/a	n/a	n/a
1018002	REC_WORD	wordpools/wasnorm_wordpool.txt	LTP080	ltpFR	0	6	0	MUFFIN	929	n/a	0	n/a	n/a	n/a	n/a	n/a
1057034	WORD	wordpools/wasnorm_wordpool.txt	LTP080	ltpFR	0	7	0	SWAN	1417	n/a	1	1	0.412841796875	0.57763671875	upper	../fonts/zerothre.ttf
1061200	WORD	wordpools/wasnorm_wordpool.txt	LTP080	ltpFR	0	7	0	TEAM	1441	n/a	1	1	0.412841796875	0.57763671875	upper	../fonts/zerothre.ttf
1065025	WORD	wordpools/wasnorm_wordpool.txt	LTP080	ltpFR	0	7	0	SOAP	1337	n/a	0	1	0.412841796875	0.57763671875	upper	../fonts/zerothre.ttf
1068999	WORD	wordpools/wasnorm_wordpool.txt	LTP080	ltpFR	0	7	0	PIGEON	1065	n/a	1	1	0.412841796875	0.57763671875	upper	../fonts/zerothre.ttf
1072999	WORD	wordpools/wasnorm_wordpool.txt	LTP080	ltpFR	0	7	0	JUG	762	n/a	1	1	0.412841796875	0.57763671875	upper	../fonts/zerothre.ttf
1077107	WORD	wordpools/wasnorm_wordpool.txt	LTP080	ltpFR	0	7	0	TEAPOT	1442	n/a	0	1	0.412841796875	0.57763671875	upper	../fonts/zerothre.ttf
1081057	WORD	wordpools/wasnorm_wordpool.txt	LTP080	ltpFR	0	7	0	TUSK	1523	n/a	1	1	0.412841796875	0.57763671875	upper	../fonts/zerothre.ttf
1085065	WORD	wordpools/wasnorm_wordpool.txt	LTP080	ltpFR	0	7	0	BASKETBALL	96	n/a	1	1	0.412841796875	0.57763671875	upper	../fonts/zerothre.ttf
1089015	WORD	wordpools/wasnorm_wordpool.txt	LTP080	ltpFR	0	7	0	JACKET	747	n/a	1	1	0.412841796875	0.57763671875	upper	../fonts/zerothre.ttf
1093023	WORD	wordpools/wasnorm_wordpool.txt	LTP080	ltpFR	0	7	0	FLANNEL	574	n/a	1	1	0.412841796875	0.57763671875	upper	../fonts/zerothre.ttf
1097189	WORD	wordpools/wasnorm_wordpool.txt	LTP080	ltpFR	0	7	0	FARM	552	n/a	1	1	0.412841796875	0.57763671875	upper	../fonts/zerothre.ttf
1101205	WORD	wordpools/wasnorm_wordpool.txt	LTP080	ltpFR	0	7	0	ACTRESS	6	n/a	1	1	0.412841796875	0.57763671875	upper	../fonts/zerothre.ttf
1105281	WORD	wordpools/wasnorm_wordpool.txt	LTP080	ltpFR	0	7	0	RESTAURANT	1187	n/a	1	1	0.412841796875	0.57763671875	upper	../fonts/zerothre.ttf
1109196	WORD	wordpools/wasnorm_wordpool.txt	LTP080	ltpFR	0	7	0	LION	827	n/a	1	1	0.412841796875	0.57763671875	upper	../fonts/zerothre.ttf
1113105	WORD	wordpools/wasnorm_wordpool.txt	LTP080	ltpFR	0	7	0	LEOPARD	812	n/a	1	1	0.412841796875	0.57763671875	upper	../fonts/zerothre.ttf
1117222	WORD	wordpools/wasnorm_wordpool.txt	LTP080	ltpFR	0	7	0	EXPERT	543	n/a	1	1	0.412841796875	0.57763671875	upper	../fonts/zerothre.ttf
1122929	REC_START	n/a	LTP080	ltpFR	0	7	n/a	n/a	n/a	n/a	n/a	n/a	n/a	n/a	n/a	n/a
1123797	REC_WORD	wordpools/wasnorm_wordpool.txt	LTP080	ltpFR	0	7	0	EXPERT	543	n/a	1	n/a	n/a	n/a	n/a	n/a
1124710	REC_WORD	wordpools/wasnorm_wordpool.txt	LTP080	ltpFR	0	7	0	LION	827	n/a	1	n/a	n/a	n/a	n/a	n/a
1125623	REC_WORD	wordpools/wasnorm_wordpool.txt	LTP080	ltpFR	0	7	0	LEOPARD	812	n/a	1	n/a	n/a	n/a	n/a	n/a
1132712	REC_WORD	wordpools/wasnorm_wordpool.txt	LTP080	ltpFR	0	7	0	TUSK	1523	n/a	1	n/a	n/a	n/a	n/a	n/a
1147952	REC_WORD	wordpools/wasnorm_wordpool.txt	LTP080	ltpFR	0	7	0	JUG	762	n/a	1	n/a	n/a	n/a	n/a	n/a
1155176	REC_WORD	wordpools/wasnorm_wordpool.txt	LTP080	ltpFR	0	7	0	TEAPOT	1442	n/a	0	n/a	n/a	n/a	n/a	n/a
1168031	REC_WORD	wordpools/wasnorm_wordpool.txt	LTP080	ltpFR	0	7	0	ACTRESS	6	n/a	1	n/a	n/a	n/a	n/a	n/a
1201599	WORD	wordpools/wasnorm_wordpool.txt	LTP080	ltpFR	0	8	0	SHOULDER	1294	n/a	1	1	0.412841796875	0.57763671875	upper	../fonts/zerothre.ttf
1205656	WORD	wordpools/wasnorm_wordpool.txt	LTP080	ltpFR	0	8	0	STORE	1387	n/a	1	1	0.412841796875	0.57763671875	upper	../fonts/zerothre.ttf
1209598	WORD	wordpools/wasnorm_wordpool.txt	LTP080	ltpFR	0	8	0	PASSAGE	1019	n/a	1	1	0.412841796875	0.57763671875	upper	../fonts/zerothre.ttf
1213548	WORD	wordpools/wasnorm_wordpool.txt	LTP080	ltpFR	0	8	0	HALL	677	n/a	1	1	0.412841796875	0.57763671875	upper	../fonts/zerothre.ttf
1217630	WORD	wordpools/wasnorm_wordpool.txt	LTP080	ltpFR	0	8	0	DILL	465	n/a	0	1	0.412841796875	0.57763671875	upper	../fonts/zerothre.ttf
1221621	WORD	wordpools/wasnorm_wordpool.txt	LTP080	ltpFR	0	8	0	TAPE	1433	n/a	0	1	0.412841796875	0.57763671875	upper	../fonts/zerothre.ttf
1225829	WORD	wordpools/wasnorm_wordpool.txt	LTP080	ltpFR	0	8	0	SLEEVE	1324	n/a	1	1	0.412841796875	0.57763671875	upper	../fonts/zerothre.ttf
1229896	WORD	wordpools/wasnorm_wordpool.txt	LTP080	ltpFR	0	8	0	FRAGRANCE	599	n/a	0	1	0.412841796875	0.57763671875	upper	../fonts/zerothre.ttf
1233721	WORD	wordpools/wasnorm_wordpool.txt	LTP080	ltpFR	0	8	0	PANTHER	1009	n/a	1	1	0.412841796875	0.57763671875	upper	../fonts/zerothre.ttf
1237912	WORD	wordpools/wasnorm_wordpool.txt	LTP080	ltpFR	0	8	0	MOUSE	925	n/a	0	1	0.412841796875	0.57763671875	upper	../fonts/zerothre.ttf
1241937	WORD	wordpools/wasnorm_wordpool.txt	LTP080	ltpFR	0	8	0	SKIN	1318	n/a	1	1	0.412841796875	0.57763671875	upper	../fonts/zerothre.ttf
1245936	WORD	wordpools/wasnorm_wordpool.txt	LTP080	ltpFR	0	8	0	SOCKET	1340	n/a	1	1	0.412841796875	0.57763671875	upper	../fonts/zerothre.ttf
1249911	WORD	wordpools/wasnorm_wordpool.txt	LTP080	ltpFR	0	8	0	CIGAR	308	n/a	0	1	0.412841796875	0.57763671875	upper	../fonts/zerothre.ttf
1253894	WORD	wordpools/wasnorm_wordpool.txt	LTP080	ltpFR	0	8	0	HANGER	687	n/a	1	1	0.412841796875	0.57763671875	upper	../fonts/zerothre.ttf
1258102	WORD	wordpools/wasnorm_wordpool.txt	LTP080	ltpFR	0	8	0	WAREHOUSE	1588	n/a	1	1	0.412841796875	0.57763671875	upper	../fonts/zerothre.ttf
1262152	WORD	wordpools/wasnorm_wordpool.txt	LTP080	ltpFR	0	8	0	VIOLIN	1571	n/a	1	1	0.412841796875	0.57763671875	upper	../fonts/zerothre.ttf
1267977	REC_START	n/a	LTP080	ltpFR	0	8	n/a	n/a	n/a	n/a	n/a	n/a	n/a	n/a	n/a	n/a
1268969	REC_WORD	wordpools/wasnorm_wordpool.txt	LTP080	ltpFR	0	8	0	VIOLIN	1571	n/a	1	n/a	n/a	n/a	n/a	n/a
1270122	REC_WORD	wordpools/wasnorm_wordpool.txt	LTP080	ltpFR	0	8	0	WAREHOUSE	1588	n/a	1	n/a	n/a	n/a	n/a	n/a
1271338	REC_WORD	wordpools/wasnorm_wordpool.txt	LTP080	ltpFR	0	8	0	STORE	1387	n/a	1	n/a	n/a	n/a	n/a	n/a
1272656	REC_WORD	wordpools/wasnorm_wordpool.txt	LTP080	ltpFR	0	8	0	PASSAGE	1019	n/a	1	n/a	n/a	n/a	n/a	n/a
1274138	REC_WORD	wordpools/wasnorm_wordpool.txt	LTP080	ltpFR	0	8	0	HALL	677	n/a	1	n/a	n/a	n/a	n/a	n/a
1277889	REC_WORD	wordpools/wasnorm_wordpool.txt	LTP080	ltpFR	0	8	0	DILL	465	n/a	0	n/a	n/a	n/a	n/a	n/a
1279196	REC_WORD	wordpools/wasnorm_wordpool.txt	LTP080	ltpFR	0	8	0	TAPE	1433	n/a	0	n/a	n/a	n/a	n/a	n/a
1288809	REC_WORD	wordpools/wasnorm_wordpool.txt	LTP080	ltpFR	0	8	0	PANTHER	1009	n/a	1	n/a	n/a	n/a	n/a	n/a
1289667	REC_WORD	wordpools/wasnorm_wordpool.txt	LTP080	ltpFR	0	8	0	MOUSE	925	n/a	0	n/a	n/a	n/a	n/a	n/a
1350604	WORD	wordpools/wasnorm_wordpool.txt	LTP080	ltpFR	0	9	1	RIVER	1194	n/a	0	0	0.5869140625	0.422607421875	lower	../fonts/amplitud.ttf
1354496	WORD	wordpools/wasnorm_wordpool.txt	LTP080	ltpFR	0	9	1	LOBSTER	837	n/a	1	0	0.5869140625	0.422607421875	lower	../fonts/amplitud.ttf
1358529	WORD	wordpools/wasnorm_wordpool.txt	LTP080	ltpFR	0	9	1	SIGN	1305	n/a	0	0	0.5869140625	0.422607421875	lower	../fonts/amplitud.ttf
1362495	WORD	wordpools/wasnorm_wordpool.txt	LTP080	ltpFR	0	9	1	BISON	131	n/a	1	0	0.5869140625	0.422607421875	lower	../fonts/amplitud.ttf
1366661	WORD	wordpools/wasnorm_wordpool.txt	LTP080	ltpFR	0	9	1	ISLAND	745	n/a	0	0	0.5869140625	0.422607421875	lower	../fonts/amplitud.ttf
1370528	WORD	wordpools/wasnorm_wordpool.txt	LTP080	ltpFR	0	9	1	PICTURE	1061	n/a	0	0	0.5869140625	0.422607421875	lower	../fonts/amplitud.ttf
1374453	WORD	wordpools/wasnorm_wordpool.txt	LTP080	ltpFR	0	9	1	VICTIM	1562	n/a	1	0	0.5869140625	0.422607421875	lower	../fonts/amplitud.ttf
1378519	WORD	wordpools/wasnorm_wordpool.txt	LTP080	ltpFR	0	9	1	CELERY	266	n/a	1	0	0.5869140625	0.422607421875	lower	../fonts/amplitud.ttf
1382360	WORD	wordpools/wasnorm_wordpool.txt	LTP080	ltpFR	0	9	1	BEAN	105	n/a	0	0	0.5869140625	0.422607421875	lower	../fonts/amplitud.ttf
1386260	WORD	wordpools/wasnorm_wordpool.txt	LTP080	ltpFR	0	9	1	MACHINE	852	n/a	0	0	0.5869140625	0.422607421875	lower	../fonts/amplitud.ttf
1390126	WORD	wordpools/wasnorm_wordpool.txt	LTP080	ltpFR	0	9	1	LAKE	796	n/a	0	0	0.5869140625	0.422607421875	lower	../fonts/amplitud.ttf
1394251	WORD	wordpools/wasnorm_wordpool.txt	LTP080	ltpFR	0	9	1	DRAWING	494	n/a	0	0	0.5869140625	0.422607421875	lower	../fonts/amplitud.ttf
1398067	WORD	wordpools/wasnorm_wordpool.txt	LTP080	ltpFR	0	9	1	DOCUMENT	479	n/a	0	0	0.5869140625	0.422607421875	lower	../fonts/amplitud.ttf
1402083	WORD	wordpools/wasnorm_wordpool.txt	LTP080	ltpFR	0	9	1	CHIPMUNK	304	n/a	1	0	0.5869140625	0.422607421875	lower	../fonts/amplitud.ttf
1406058	WORD	wordpools/wasnorm_wordpool.txt	LTP080	ltpFR	0	9	1	JUNGLE	764	n/a	0	0	0.5869140625	0.422607421875	lower	../fonts/amplitud.ttf
1410041	WORD	wordpools/wasnorm_wordpool.txt	LTP080	ltpFR	0	9	1	PAPER	1011	n/a	0	0	0.5869140625	0.422607421875	lower	../fonts/amplitud.ttf
1415674	REC_START	n/a	LTP080	ltpFR	0	9	n/a	n/a	n/a	n/a	n/a	n/a	n/a	n/a	n/a	n/a
1417081	REC_WORD	wordpools/wasnorm_wordpool.txt	LTP080	ltpFR	0	9	1	PAPER	1011	n/a	0	n/a	n/a	n/a	n/a	n/a
1418058	REC_WORD	wordpools/wasnorm_wordpool.txt	LTP080	ltpFR	0	9	1	DOCUMENT	479	n/a	0	n/a	n/a	n/a	n/a	n/a
1419166	REC_WORD	wordpools/wasnorm_wordpool.txt	LTP080	ltpFR	0	9	1	JUNGLE	764	n/a	0	n/a	n/a	n/a	n/a	n/a
1420268	REC_WORD	wordpools/wasnorm_wordpool.txt	LTP080	ltpFR	0	9	1	PICTURE	1061	n/a	0	n/a	n/a	n/a	n/a	n/a
1423795	REC_WORD	wordpools/wasnorm_wordpool.txt	LTP080	ltpFR	0	9	1	BISON	131	n/a	1	n/a	n/a	n/a	n/a	n/a
1431413	REC_WORD	wordpools/wasnorm_wordpool.txt	LTP080	ltpFR	0	9	1	LAKE	796	n/a	0	n/a	n/a	n/a	n/a	n/a
1434795	REC_WORD	wordpools/wasnorm_wordpool.txt	LTP080	ltpFR	0	9	1	RIVER	1194	n/a	0	n/a	n/a	n/a	n/a	n/a
1496235	WORD	wordpools/wasnorm_wordpool.txt	LTP080	ltpFR	0	10	1	BASKET	95	n/a	0	0	0.5869140625	0.422607421875	lower	../fonts/amplitud.ttf
1500343	WORD	wordpools/wasnorm_wordpool.txt	LTP080	ltpFR	0	10	1	DAISY	435	n/a	1	0	0.5869140625	0.422607421875	lower	../fonts/amplitud.ttf
1504251	WORD	wordpools/wasnorm_wordpool.txt	LTP080	ltpFR	0	10	1	ELM	527	n/a	1	0	0.5869140625	0.422607421875	lower	../fonts/amplitud.ttf
1508234	WORD	wordpools/wasnorm_wordpool.txt	LTP080	ltpFR	0	10	1	UTENSIL	1542	n/a	0	0	0.5869140625	0.422607421875	lower	../fonts/amplitud.ttf
1512058	WORD	wordpools/wasnorm_wordpool.txt	LTP080	ltpFR	0	10	1	MONASTERY	907	n/a	0	0	0.5869140625	0.422607421875	lower	../fonts/amplitud.ttf
1516016	WORD	wordpools/wasnorm_wordpool.txt	LTP080	ltpFR	0	10	1	PELT	1040	n/a	0	0	0.5869140625	0.422607421875	lower	../fonts/amplitud.ttf
1519882	WORD	wordpools/wasnorm_wordpool.txt	LTP080	ltpFR	0	10	1	PLANT	1083	n/a	1	0	0.5869140625	0.422607421875	lower	../fonts/amplitud.ttf
1523874	WORD	wordpools/wasnorm_wordpool.txt	LTP080	ltpFR	0	10	1	ROSE	1212	n/a	1	0	0.5869140625	0.422607421875	lower	../fonts/amplitud.ttf
1528032	WORD	wordpools/wasnorm_wordpool.txt	LTP080	ltpFR	0	10	1	FELLOW	558	n/a	0	0	0.5869140625	0.422607421875	lower	../fonts/amplitud.ttf
1532165	WORD	wordpools/wasnorm_wordpool.txt	LTP080	ltpFR	0	10	1	PARTNER	1017	n/a	1	0	0.5869140625	0.422607421875	lower	../fonts/amplitud.ttf
1536115	WORD	wordpools/wasnorm_wordpool.txt	LTP080	ltpFR	0	10	1	FLEET	578	n/a	0	0	0.5869140625	0.422607421875	lower	../fonts/amplitud.ttf
1539939	WORD	wordpools/wasnorm_wordpool.txt	LTP080	ltpFR	0	10	1	KEEPER	769	n/a	0	0	0.5869140625	0.422607421875	lower	../fonts/amplitud.ttf
1544114	WORD	wordpools/wasnorm_wordpool.txt	LTP080	ltpFR	0	10	1	SWORD	1423	n/a	0	0	0.5869140625	0.422607421875	lower	../fonts/amplitud.ttf
1548273	WORD	wordpools/wasnorm_wordpool.txt	LTP080	ltpFR	0	10	1	BOOT	150	n/a	0	0	0.5869140625	0.422607421875	lower	../fonts/amplitud.ttf
1552180	WORD	wordpools/wasnorm_wordpool.txt	LTP080	ltpFR	0	10	1	FOREST	593	n/a	0	0	0.5869140625	0.422607421875	lower	../fonts/amplitud.ttf
1556289	WORD	wordpools/wasnorm_wordpool.txt	LTP080	ltpFR	0	10	1	STAPLE	1371	n/a	0	0	0.5869140625	0.422607421875	lower	../fonts/amplitud.ttf
1562188	REC_START	n/a	LTP080	ltpFR	0	10	n/a	n/a	n/a	n/a	n/a	n/a	n/a	n/a	n/a	n/a
1563175	REC_WORD	wordpools/wasnorm_wordpool.txt	LTP080	ltpFR	0	10	1	STAPLE	1371	n/a	0	n/a	n/a	n/a	n/a	n/a
1564228	REC_WORD	wordpools/wasnorm_wordpool.txt	LTP080	ltpFR	0	10	1	FOREST	593	n/a	0	n/a	n/a	n/a	n/a	n/a
1565720	REC_WORD	wordpools/wasnorm_wordpool.txt	LTP080	ltpFR	0	10	1	BOOT	150	n/a	0	n/a	n/a	n/a	n/a	n/a
1568917	REC_WORD	wordpools/wasnorm_wordpool.txt	LTP080	ltpFR	0	10	1	UTENSIL	1542	n/a	0	n/a	n/a	n/a	n/a	n/a
1572674	REC_WORD	wordpools/wasnorm_wordpool.txt	LTP080	ltpFR	0	10	1	PELT	1040	n/a	0	n/a	n/a	n/a	n/a	n/a
1574390	REC_WORD	wordpools/wasnorm_wordpool.txt	LTP080	ltpFR	0	10	1	FELLOW	558	n/a	0	n/a	n/a	n/a	n/a	n/a
1575243	REC_WORD	wordpools/wasnorm_wordpool.txt	LTP080	ltpFR	0	10	1	PARTNER	1017	n/a	1	n/a	n/a	n/a	n/a	n/a
1642258	WORD	wordpools/wasnorm_wordpool.txt	LTP080	ltpFR	0	11	1	RUM	1217	n/a	0	0	0.5869140625	0.422607421875	lower	../fonts/amplitud.ttf
1646357	WORD	wordpools/wasnorm_wordpool.txt	LTP080	ltpFR	0	11	1	CAGE	218	n/a	0	0	0.5869140625	0.422607421875	lower	../fonts/amplitud.ttf
1650549	WORD	wordpools/wasnorm_wordpool.txt	LTP080	ltpFR	0	11	1	SPIT	1354	n/a	0	0	0.5869140625	0.422607421875	lower	../fonts/amplitud.ttf
1654473	WORD	wordpools/wasnorm_wordpool.txt	LTP080	ltpFR	0	11	1	BEAVER	109	n/a	0	0	0.5869140625	0.422607421875	lower	../fonts/amplitud.ttf
1658348	WORD	wordpools/wasnorm_wordpool.txt	LTP080	ltpFR	0	11	1	GRASS	655	n/a	0	0	0.5869140625	0.422607421875	lower	../fonts/amplitud.ttf
1662172	WORD	wordpools/wasnorm_wordpool.txt	LTP080	ltpFR	0	11	1	SLIME	1327	n/a	0	0	0.5869140625	0.422607421875	lower	../fonts/amplitud.ttf
1666105	WORD	wordpools/wasnorm_wordpool.txt	LTP080	ltpFR	0	11	1	ROBOT	1200	n/a	0	0	0.5869140625	0.422607421875	lower	../fonts/amplitud.ttf
1670146	WORD	wordpools/wasnorm_wordpool.txt	LTP080	ltpFR	0	11	1	CONSOLE	364	n/a	0	0	0.5869140625	0.422607421875	lower	../fonts/amplitud.ttf
1674146	WORD	wordpools/wasnorm_wordpool.txt	LTP080	ltpFR	0	11	1	SEAGULL	1261	n/a	1	0	0.5869140625	0.422607421875	lower	../fonts/amplitud.ttf
1678280	WORD	wordpools/wasnorm_wordpool.txt	LTP080	ltpFR	0	11	1	MARROW	872	n/a	0	0	0.5869140625	0.422607421875	lower	../fonts/amplitud.ttf
1682363	WORD	wordpools/wasnorm_wordpool.txt	LTP080	ltpFR	0	11	1	BUFFALO	186	n/a	1	0	0.5869140625	0.422607421875	lower	../fonts/amplitud.ttf
1686288	WORD	wordpools/wasnorm_wordpool.txt	LTP080	ltpFR	0	11	1	LASH	802	n/a	0	0	0.5869140625	0.422607421875	lower	../fonts/amplitud.ttf
1690103	WORD	wordpools/wasnorm_wordpool.txt	LTP080	ltpFR	0	11	1	DRILL	497	n/a	0	0	0.5869140625	0.422607421875	lower	../fonts/amplitud.ttf
1694312	WORD	wordpools/wasnorm_wordpool.txt	LTP080	ltpFR	0	11	1	MANAGER	863	n/a	1	0	0.5869140625	0.422607421875	lower	../fonts/amplitud.ttf
1698337	WORD	wordpools/wasnorm_wordpool.txt	LTP080	ltpFR	0	11	1	BUG	187	n/a	1	0	0.5869140625	0.422607421875	lower	../fonts/amplitud.ttf
1702353	WORD	wordpools/wasnorm_wordpool.txt	LTP080	ltpFR	0	11	1	INSECT	740	n/a	1	0	0.5869140625	0.422607421875	lower	../fonts/amplitud.ttf
1708211	REC_START	n/a	LTP080	ltpFR	0	11	n/a	n/a	n/a	n/a	n/a	n/a	n/a	n/a	n/a	n/a
1709358	REC_WORD	wordpools/wasnorm_wordpool.txt	LTP080	ltpFR	0	11	1	INSECT	740	n/a	1	n/a	n/a	n/a	n/a	n/a
1710555	REC_WORD	wordpools/wasnorm_wordpool.txt	LTP080	ltpFR	0	11	1	BUG	187	n/a	1	n/a	n/a	n/a	n/a	n/a
1715594	REC_WORD	wordpools/wasnorm_wordpool.txt	LTP080	ltpFR	0	11	1	BUFFALO	186	n/a	1	n/a	n/a	n/a	n/a	n/a
1719849	REC_WORD	wordpools/wasnorm_wordpool.txt	LTP080	ltpFR	0	11	1	CONSOLE	364	n/a	0	n/a	n/a	n/a	n/a	n/a
1746848	REC_WORD	wordpools/wasnorm_wordpool.txt	LTP080	ltpFR	0	11	1	MANAGER	863	n/a	1	n/a	n/a	n/a	n/a	n/a
1753453	REC_WORD	wordpools/wasnorm_wordpool.txt	LTP080	ltpFR	0	11	1	BEAVER	109	n/a	0	n/a	n/a	n/a	n/a	n/a
1790580	WORD	wordpools/wasnorm_wordpool.txt	LTP080	ltpFR	0	12	1	CONVENT	370	n/a	0	0	0.5869140625	0.422607421875	lower	../fonts/amplitud.ttf
1794546	WORD	wordpools/wasnorm_wordpool.txt	LTP080	ltpFR	0	12	1	CRIMINAL	409	n/a	1	0	0.5869140625	0.422607421875	lower	../fonts/amplitud.ttf
1798438	WORD	wordpools/wasnorm_wordpool.txt	LTP080	ltpFR	0	12	1	ASSISTANT	48	n/a	1	0	0.5869140625	0.422607421875	lower	../fonts/amplitud.ttf
1802371	WORD	wordpools/wasnorm_wordpool.txt	LTP080	ltpFR	0	12	1	COMEDIAN	352	n/a	1	0	0.5869140625	0.422607421875	lower	../fonts/amplitud.ttf
1806570	WORD	wordpools/wasnorm_wordpool.txt	LTP080	ltpFR	0	12	1	NOTE	958	n/a	0	0	0.5869140625	0.422607421875	lower	../fonts/amplitud.ttf
1810537	WORD	wordpools/wasnorm_wordpool.txt	LTP080	ltpFR	0	12	1	KID	775	n/a	1	0	0.5869140625	0.422607421875	lower	../fonts/amplitud.ttf
1814420	WORD	wordpools/wasnorm_wordpool.txt	LTP080	ltpFR	0	12	1	ADOLESCENT	7	n/a	1	0	0.5869140625	0.422607421875	lower	../fonts/amplitud.ttf
1818419	WORD	wordpools/wasnorm_wordpool.txt	LTP080	ltpFR	0	12	1	WALRUS	1585	n/a	1	0	0.5869140625	0.422607421875	lower	../fonts/amplitud.ttf
1822386	WORD	wordpools/wasnorm_wordpool.txt	LTP080	ltpFR	0	12	1	ANTEATER	26	n/a	1	0	0.5869140625	0.422607421875	lower	../fonts/amplitud.ttf
1826277	WORD	wordpools/wasnorm_wordpool.txt	LTP080	ltpFR	0	12	1	CHURCH	307	n/a	0	0	0.5869140625	0.422607421875	lower	../fonts/amplitud.ttf
1830402	WORD	wordpools/wasnorm_wordpool.txt	LTP080	ltpFR	0	12	1	VENT	1556	n/a	0	0	0.5869140625	0.422607421875	lower	../fonts/amplitud.ttf
1834385	WORD	wordpools/wasnorm_wordpool.txt	LTP080	ltpFR	0	12	1	CELLO	268	n/a	0	0	0.5869140625	0.422607421875	lower	../fonts/amplitud.ttf
1838200	WORD	wordpools/wasnorm_wordpool.txt	LTP080	ltpFR	0	12	1	HAMBURGER	679	n/a	0	0	0.5869140625	0.422607421875	lower	../fonts/amplitud.ttf
1842301	WORD	wordpools/wasnorm_wordpool.txt	LTP080	ltpFR	0	12	1	CHEESE	289	n/a	0	0	0.5869140625	0.422607421875	lower	../fonts/amplitud.ttf
1846384	WORD	wordpools/wasnorm_wordpool.txt	LTP080	ltpFR	0	12	1	CRUMB	416	n/a	0	0	0.5869140625	0.422607421875	lower	../fonts/amplitud.ttf
1850284	WORD	wordpools/wasnorm_wordpool.txt	LTP080	ltpFR	0	12	1	LUNCH	849	n/a	0	0	0.5869140625	0.422607421875	lower	../fonts/amplitud.ttf
1856058	REC_START	n/a	LTP080	ltpFR	0	12	n/a	n/a	n/a	n/a	n/a	n/a	n/a	n/a	n/a	n/a
1856866	REC_WORD	wordpools/wasnorm_wordpool.txt	LTP080	ltpFR	0	12	1	LUNCH	849	n/a	0	n/a	n/a	n/a	n/a	n/a
1857604	REC_WORD	wordpools/wasnorm_wordpool.txt	LTP080	ltpFR	0	12	1	CRUMB	416	n/a	0	n/a	n/a	n/a	n/a	n/a
1858807	REC_WORD	wordpools/wasnorm_wordpool.txt	LTP080	ltpFR	0	12	1	CHEESE	289	n/a	0	n/a	n/a	n/a	n/a	n/a
1860692	REC_WORD	wordpools/wasnorm_wordpool.txt	LTP080	ltpFR	0	12	1	HAMBURGER	679	n/a	0	n/a	n/a	n/a	n/a	n/a
1864763	REC_WORD	wordpools/wasnorm_wordpool.txt	LTP080	ltpFR	0	12	1	CHURCH	307	n/a	0	n/a	n/a	n/a	n/a	n/a
1870764	REC_WORD	wordpools/wasnorm_wordpool.txt	LTP080	ltpFR	0	12	1	ANTEATER	26	n/a	1	n/a	n/a	n/a	n/a	n/a
1874306	REC_WORD	wordpools/wasnorm_wordpool.txt	LTP080	ltpFR	0	12	1	COMEDIAN	352	n/a	1	n/a	n/a	n/a	n/a	n/a
1877564	REC_WORD	wordpools/wasnorm_wordpool.txt	LTP080	ltpFR	0	12	1	ASSISTANT	48	n/a	1	n/a	n/a	n/a	n/a	n/a
1878602	REC_WORD	wordpools/wasnorm_wordpool.txt	LTP080	ltpFR	0	12	1	CRIMINAL	409	n/a	1	n/a	n/a	n/a	n/a	n/a
1931635	REST_REWET	n/a	LTP080	ltpFR	0	12	n/a	n/a	n/a	n/a	n/a	n/a	n/a	n/a	n/a	n/a
2370311	WORD	wordpools/wasnorm_wordpool.txt	LTP080	ltpFR	0	13	0	OCEAN	970	n/a	1	1	0.412841796875	0.57763671875	upper	../fonts/zerothre.ttf
2374386	WORD	wordpools/wasnorm_wordpool.txt	LTP080	ltpFR	0	13	0	SNORKEL	1336	n/a	1	1	0.412841796875	0.57763671875	upper	../fonts/zerothre.ttf
2378319	WORD	wordpools/wasnorm_wordpool.txt	LTP080	ltpFR	0	13	1	WEED	1599	n/a	1	0	0.5869140625	0.422607421875	lower	../fonts/amplitud.ttf
2382286	WORD	wordpools/wasnorm_wordpool.txt	LTP080	ltpFR	0	13	1	TOAD	1470	n/a	1	0	0.5869140625	0.422607421875	lower	../fonts/amplitud.ttf
2386209	WORD	wordpools/wasnorm_wordpool.txt	LTP080	ltpFR	0	13	1	SWEATER	1419	n/a	0	0	0.5869140625	0.422607421875	lower	../fonts/amplitud.ttf
2390151	WORD	wordpools/wasnorm_wordpool.txt	LTP080	ltpFR	0	13	1	AUTOMOBILE	62	n/a	0	0	0.5869140625	0.422607421875	lower	../fonts/amplitud.ttf
2394042	WORD	wordpools/wasnorm_wordpool.txt	LTP080	ltpFR	0	13	1	DIRECTOR	471	n/a	1	0	0.5869140625	0.422607421875	lower	../fonts/amplitud.ttf
2398058	WORD	wordpools/wasnorm_wordpool.txt	LTP080	ltpFR	0	13	1	THICKET	1455	n/a	1	0	0.5869140625	0.422607421875	lower	../fonts/amplitud.ttf
2401925	WORD	wordpools/wasnorm_wordpool.txt	LTP080	ltpFR	0	13	0	BATHROOM	99	n/a	1	1	0.412841796875	0.57763671875	upper	../fonts/zerothre.ttf
2406083	WORD	wordpools/wasnorm_wordpool.txt	LTP080	ltpFR	0	13	0	TELESCOPE	1446	n/a	1	1	0.412841796875	0.57763671875	upper	../fonts/zerothre.ttf
2410174	WORD	wordpools/wasnorm_wordpool.txt	LTP080	ltpFR	0	13	0	SAP	1233	n/a	1	1	0.412841796875	0.57763671875	upper	../fonts/zerothre.ttf
2414250	WORD	wordpools/wasnorm_wordpool.txt	LTP080	ltpFR	0	13	0	CAB	209	n/a	1	1	0.412841796875	0.57763671875	upper	../fonts/zerothre.ttf
2418132	WORD	wordpools/wasnorm_wordpool.txt	LTP080	ltpFR	0	13	1	VEST	1559	n/a	0	0	0.5869140625	0.422607421875	lower	../fonts/amplitud.ttf
2422283	WORD	wordpools/wasnorm_wordpool.txt	LTP080	ltpFR	0	13	1	ROPE	1211	n/a	0	0	0.5869140625	0.422607421875	lower	../fonts/amplitud.ttf
2426482	WORD	wordpools/wasnorm_wordpool.txt	LTP080	ltpFR	0	13	0	HARE	688	n/a	1	1	0.412841796875	0.57763671875	upper	../fonts/zerothre.ttf
2430349	WORD	wordpools/wasnorm_wordpool.txt	LTP080	ltpFR	0	13	0	TURTLE	1522	n/a	0	1	0.412841796875	0.57763671875	upper	../fonts/zerothre.ttf
2436148	REC_START	n/a	LTP080	ltpFR	0	13	n/a	n/a	n/a	n/a	n/a	n/a	n/a	n/a	n/a	n/a
2437340	REC_WORD	wordpools/wasnorm_wordpool.txt	LTP080	ltpFR	0	13	0	TURTLE	1522	n/a	0	n/a	n/a	n/a	n/a	n/a
2438063	REC_WORD	wordpools/wasnorm_wordpool.txt	LTP080	ltpFR	0	13	0	HARE	688	n/a	1	n/a	n/a	n/a	n/a	n/a
2439370	REC_WORD	wordpools/wasnorm_wordpool.txt	LTP080	ltpFR	0	13	1	ROPE	1211	n/a	0	n/a	n/a	n/a	n/a	n/a
2440578	REC_WORD	wordpools/wasnorm_wordpool.txt	LTP080	ltpFR	0	13	1	WEED	1599	n/a	1	n/a	n/a	n/a	n/a	n/a
2442204	REC_WORD	wordpools/wasnorm_wordpool.txt	LTP080	ltpFR	0	13	1	THICKET	1455	n/a	1	n/a	n/a	n/a	n/a	n/a
2450365	REC_WORD	wordpools/wasnorm_wordpool.txt	LTP080	ltpFR	0	13	1	AUTOMOBILE	62	n/a	0	n/a	n/a	n/a	n/a	n/a
2456132	REC_WORD	wordpools/wasnorm_wordpool.txt	LTP080	ltpFR	0	13	1	SWEATER	1419	n/a	0	n/a	n/a	n/a	n/a	n/a
2517191	WORD	wordpools/wasnorm_wordpool.txt	LTP080	ltpFR	0	14	0	BENCH	121	n/a	1	1	0.412841796875	0.57763671875	upper	../fonts/zerothre.ttf
2521133	WORD	wordpools/wasnorm_wordpool.txt	LTP080	ltpFR	0	14	0	TREAT	1501	n/a	0	1	0.412841796875	0.57763671875	upper	../fonts/zerothre.ttf
2525233	WORD	wordpools/wasnorm_wordpool.txt	LTP080	ltpFR	0	14	0	CRAB	397	n/a	0	1	0.412841796875	0.57763671875	upper	../fonts/zerothre.ttf
2529090	WORD	wordpools/wasnorm_wordpool.txt	LTP080	ltpFR	0	14	0	CHAIR	274	n/a	1	1	0.412841796875	0.57763671875	upper	../fonts/zerothre.ttf
2533115	WORD	wordpools/wasnorm_wordpool.txt	LTP080	ltpFR	0	14	1	FARMER	553	n/a	1	0	0.5869140625	0.422607421875	lower	../fonts/amplitud.ttf
2537065	WORD	wordpools/wasnorm_wordpool.txt	LTP080	ltpFR	0	14	1	PRODUCER	1129	n/a	1	0	0.5869140625	0.422607421875	lower	../fonts/amplitud.ttf
2540906	WORD	wordpools/wasnorm_wordpool.txt	LTP080	ltpFR	0	14	1	YARD	1630	n/a	0	0	0.5869140625	0.422607421875	lower	../fonts/amplitud.ttf
2545031	WORD	wordpools/wasnorm_wordpool.txt	LTP080	ltpFR	0	14	1	TROUT	1511	n/a	1	0	0.5869140625	0.422607421875	lower	../fonts/amplitud.ttf
2548889	WORD	wordpools/wasnorm_wordpool.txt	LTP080	ltpFR	0	14	0	ACROBAT	4	n/a	1	1	0.412841796875	0.57763671875	upper	../fonts/zerothre.ttf
2552947	WORD	wordpools/wasnorm_wordpool.txt	LTP080	ltpFR	0	14	0	PEAR	1033	n/a	0	1	0.412841796875	0.57763671875	upper	../fonts/zerothre.ttf
2556830	WORD	wordpools/wasnorm_wordpool.txt	LTP080	ltpFR	0	14	0	APPLE	33	n/a	0	1	0.412841796875	0.57763671875	upper	../fonts/zerothre.ttf
2560905	WORD	wordpools/wasnorm_wordpool.txt	LTP080	ltpFR	0	14	0	SHRUB	1299	n/a	1	1	0.412841796875	0.57763671875	upper	../fonts/zerothre.ttf
2564879	WORD	wordpools/wasnorm_wordpool.txt	LTP080	ltpFR	0	14	1	SCREWDRIVER	1255	n/a	0	0	0.5869140625	0.422607421875	lower	../fonts/amplitud.ttf
2568987	WORD	wordpools/wasnorm_wordpool.txt	LTP080	ltpFR	0	14	1	CABINET	212	n/a	0	0	0.5869140625	0.422607421875	lower	../fonts/amplitud.ttf
2572845	WORD	wordpools/wasnorm_wordpool.txt	LTP080	ltpFR	0	14	1	SUIT	1402	n/a	0	0	0.5869140625	0.422607421875	lower	../fonts/amplitud.ttf
2577028	WORD	wordpools/wasnorm_wordpool.txt	LTP080	ltpFR	0	14	1	SCARF	1246	n/a	0	0	0.5869140625	0.422607421875	lower	../fonts/amplitud.ttf
2582737	REC_START	n/a	LTP080	ltpFR	0	14	n/a	n/a	n/a	n/a	n/a	n/a	n/a	n/a	n/a	n/a
2583739	REC_WORD	wordpools/wasnorm_wordpool.txt	LTP080	ltpFR	0	14	1	SCARF	1246	n/a	0	n/a	n/a	n/a	n/a	n/a
2584892	REC_WORD	wordpools/wasnorm_wordpool.txt	LTP080	ltpFR	0	14	1	SUIT	1402	n/a	0	n/a	n/a	n/a	n/a	n/a
2589795	REC_WORD	wordpools/wasnorm_wordpool.txt	LTP080	ltpFR	0	14	1	FARMER	553	n/a	1	n/a	n/a	n/a	n/a	n/a
2592789	REC_WORD	wordpools/wasnorm_wordpool.txt	LTP080	ltpFR	0	14	1	TROUT	1511	n/a	1	n/a	n/a	n/a	n/a	n/a
2615228	REC_WORD	wordpools/wasnorm_wordpool.txt	LTP080	ltpFR	0	14	1	YARD	1630	n/a	0	n/a	n/a	n/a	n/a	n/a
2663440	WORD	wordpools/wasnorm_wordpool.txt	LTP080	ltpFR	0	15	1	CYLINDER	432	n/a	0	0	0.5869140625	0.422607421875	lower	../fonts/amplitud.ttf
2667398	WORD	wordpools/wasnorm_wordpool.txt	LTP080	ltpFR	0	15	1	SIDING	1304	n/a	0	0	0.5869140625	0.422607421875	lower	../fonts/amplitud.ttf
2671222	WORD	wordpools/wasnorm_wordpool.txt	LTP080	ltpFR	0	15	1	PLIERS	1089	n/a	0	0	0.5869140625	0.422607421875	lower	../fonts/amplitud.ttf
2675188	WORD	wordpools/wasnorm_wordpool.txt	LTP080	ltpFR	0	15	1	COLLEGE	346	n/a	0	0	0.5869140625	0.422607421875	lower	../fonts/amplitud.ttf
2679096	WORD	wordpools/wasnorm_wordpool.txt	LTP080	ltpFR	0	15	0	SALIVA	1226	n/a	1	1	0.412841796875	0.57763671875	upper	../fonts/zerothre.ttf
2683255	WORD	wordpools/wasnorm_wordpool.txt	LTP080	ltpFR	0	15	0	HOOK	715	n/a	0	1	0.412841796875	0.57763671875	upper	../fonts/zerothre.ttf
2687313	WORD	wordpools/wasnorm_wordpool.txt	LTP080	ltpFR	0	15	0	COP	376	n/a	1	1	0.412841796875	0.57763671875	upper	../fonts/zerothre.ttf
2691338	WORD	wordpools/wasnorm_wordpool.txt	LTP080	ltpFR	0	15	0	DENIM	446	n/a	1	1	0.412841796875	0.57763671875	upper	../fonts/zerothre.ttf
2695346	WORD	wordpools/wasnorm_wordpool.txt	LTP080	ltpFR	0	15	1	SCALLOP	1242	n/a	1	0	0.5869140625	0.422607421875	lower	../fonts/amplitud.ttf
2699287	WORD	wordpools/wasnorm_wordpool.txt	LTP080	ltpFR	0	15	1	BARK	87	n/a	0	0	0.5869140625	0.422607421875	lower	../fonts/amplitud.ttf
2703403	WORD	wordpools/wasnorm_wordpool.txt	LTP080	ltpFR	0	15	1	DEPUTY	450	n/a	1	0	0.5869140625	0.422607421875	lower	../fonts/amplitud.ttf
2707236	WORD	wordpools/wasnorm_wordpool.txt	LTP080	ltpFR	0	15	1	VILLAIN	1567	n/a	1	0	0.5869140625	0.422607421875	lower	../fonts/amplitud.ttf
2711236	WORD	wordpools/wasnorm_wordpool.txt	LTP080	ltpFR	0	15	0	ENCYCLOPEDIA	533	n/a	1	1	0.412841796875	0.57763671875	upper	../fonts/zerothre.ttf
2715201	WORD	wordpools/wasnorm_wordpool.txt	LTP080	ltpFR	0	15	0	SHELF	1280	n/a	1	1	0.412841796875	0.57763671875	upper	../fonts/zerothre.ttf
2719059	WORD	wordpools/wasnorm_wordpool.txt	LTP080	ltpFR	0	15	0	SQUID	1361	n/a	1	1	0.412841796875	0.57763671875	upper	../fonts/zerothre.ttf
2722926	WORD	wordpools/wasnorm_wordpool.txt	LTP080	ltpFR	0	15	0	CORAL	378	n/a	1	1	0.412841796875	0.57763671875	upper	../fonts/zerothre.ttf
2728743	REC_START	n/a	LTP080	ltpFR	0	15	n/a	n/a	n/a	n/a	n/a	n/a	n/a	n/a	n/a	n/a
2729885	REC_WORD	wordpools/wasnorm_wordpool.txt	LTP080	ltpFR	0	15	0	CORAL	378	n/a	1	n/a	n/a	n/a	n/a	n/a
2730638	REC_WORD	wordpools/wasnorm_wordpool.txt	LTP080	ltpFR	0	15	0	SQUID	1361	n/a	1	n/a	n/a	n/a	n/a	n/a
2734594	REC_WORD	wordpools/wasnorm_wordpool.txt	LTP080	ltpFR	0	15	1	SCREWDRIVER	1255	n/a	0	n/a	n/a	n/a	n/a	n/a
2740616	REC_WORD	wordpools/wasnorm_wordpool.txt	LTP080	ltpFR	0	15	1	COLLEGE	346	n/a	0	n/a	n/a	n/a	n/a	n/a
2752015	REC_WORD	wordpools/wasnorm_wordpool.txt	LTP080	ltpFR	0	15	0	HOOK	715	n/a	0	n/a	n/a	n/a	n/a	n/a
2754479	REC_WORD	wordpools/wasnorm_wordpool.txt	LTP080	ltpFR	0	15	0	ENCYCLOPEDIA	533	n/a	1	n/a	n/a	n/a	n/a	n/a
2755567	REC_WORD	wordpools/wasnorm_wordpool.txt	LTP080	ltpFR	0	15	0	SHELF	1280	n/a	1	n/a	n/a	n/a	n/a	n/a
2760825	REC_WORD	wordpools/wasnorm_wordpool.txt	LTP080	ltpFR	0	15	1	DEPUTY	450	n/a	1	n/a	n/a	n/a	n/a	n/a
2761653	REC_WORD	wordpools/wasnorm_wordpool.txt	LTP080	ltpFR	0	15	1	VILLAIN	1567	n/a	1	n/a	n/a	n/a	n/a	n/a
2808619	WORD	wordpools/wasnorm_wordpool.txt	LTP080	ltpFR	0	16	1	GANGSTER	620	n/a	1	0	0.5869140625	0.422607421875	lower	../fonts/amplitud.ttf
2812811	WORD	wordpools/wasnorm_wordpool.txt	LTP080	ltpFR	0	16	1	STOMACH	1384	n/a	0	0	0.5869140625	0.422607421875	lower	../fonts/amplitud.ttf
2816635	WORD	wordpools/wasnorm_wordpool.txt	LTP080	ltpFR	0	16	0	COUCH	386	n/a	1	1	0.412841796875	0.57763671875	upper	../fonts/zerothre.ttf
2820444	WORD	wordpools/wasnorm_wordpool.txt	LTP080	ltpFR	0	16	0	SOCIETY	1338	n/a	1	1	0.412841796875	0.57763671875	upper	../fonts/zerothre.ttf
2824461	WORD	wordpools/wasnorm_wordpool.txt	LTP080	ltpFR	0	16	0	BUCKET	184	n/a	1	1	0.412841796875	0.57763671875	upper	../fonts/zerothre.ttf
2828344	WORD	wordpools/wasnorm_wordpool.txt	LTP080	ltpFR	0	16	1	TANGERINE	1431	n/a	1	0	0.5869140625	0.422607421875	lower	../fonts/amplitud.ttf
2832427	WORD	wordpools/wasnorm_wordpool.txt	LTP080	ltpFR	0	16	1	VEGETABLE	1552	n/a	1	0	0.5869140625	0.422607421875	lower	../fonts/amplitud.ttf
2836327	WORD	wordpools/wasnorm_wordpool.txt	LTP080	ltpFR	0	16	0	MONARCH	906	n/a	0	1	0.412841796875	0.57763671875	upper	../fonts/zerothre.ttf
2840443	WORD	wordpools/wasnorm_wordpool.txt	LTP080	ltpFR	0	16	0	SCALPEL	1243	n/a	0	1	0.412841796875	0.57763671875	upper	../fonts/zerothre.ttf
2844276	WORD	wordpools/wasnorm_wordpool.txt	LTP080	ltpFR	0	16	0	DOCTOR	478	n/a	1	1	0.412841796875	0.57763671875	upper	../fonts/zerothre.ttf
2848191	WORD	wordpools/wasnorm_wordpool.txt	LTP080	ltpFR	0	16	0	MATTRESS	879	n/a	1	1	0.412841796875	0.57763671875	upper	../fonts/zerothre.ttf
2852141	WORD	wordpools/wasnorm_wordpool.txt	LTP080	ltpFR	0	16	0	RACKET	1155	n/a	1	1	0.412841796875	0.57763671875	upper	../fonts/zerothre.ttf
2856309	WORD	wordpools/wasnorm_wordpool.txt	LTP080	ltpFR	0	16	1	HOUND	724	n/a	1	0	0.5869140625	0.422607421875	lower	../fonts/amplitud.ttf
2860216	WORD	wordpools/wasnorm_wordpool.txt	LTP080	ltpFR	0	16	1	PIER	1063	n/a	0	0	0.5869140625	0.422607421875	lower	../fonts/amplitud.ttf
2864207	WORD	wordpools/wasnorm_wordpool.txt	LTP080	ltpFR	0	16	1	BUTCHER	203	n/a	1	0	0.5869140625	0.422607421875	lower	../fonts/amplitud.ttf
2868073	WORD	wordpools/wasnorm_wordpool.txt	LTP080	ltpFR	0	16	1	LIVER	833	n/a	0	0	0.5869140625	0.422607421875	lower	../fonts/amplitud.ttf
2873857	REC_START	n/a	LTP080	ltpFR	0	16	n/a	n/a	n/a	n/a	n/a	n/a	n/a	n/a	n/a	n/a
2875318	REC_WORD	wordpools/wasnorm_wordpool.txt	LTP080	ltpFR	0	16	1	LIVER	833	n/a	0	n/a	n/a	n/a	n/a	n/a
2876096	REC_WORD	wordpools/wasnorm_wordpool.txt	LTP080	ltpFR	0	16	1	STOMACH	1384	n/a	0	n/a	n/a	n/a	n/a	n/a
2877479	REC_WORD	wordpools/wasnorm_wordpool.txt	LTP080	ltpFR	0	16	1	PIER	1063	n/a	0	n/a	n/a	n/a	n/a	n/a
2883749	REC_WORD	wordpools/wasnorm_wordpool.txt	LTP080	ltpFR	0	16	n/a	CHAPEL	280	n/a	n/a	n/a	n/a	n/a	n/a	n/a
2889382	REC_WORD	wordpools/wasnorm_wordpool.txt	LTP080	ltpFR	0	16	1	TANGERINE	1431	n/a	1	n/a	n/a	n/a	n/a	n/a
2892445	REC_WORD	wordpools/wasnorm_wordpool.txt	LTP080	ltpFR	0	16	0	DOCTOR	478	n/a	1	n/a	n/a	n/a	n/a	n/a
2893112	REC_WORD	wordpools/wasnorm_wordpool.txt	LTP080	ltpFR	0	16	0	SCALPEL	1243	n/a	0	n/a	n/a	n/a	n/a	n/a
2974708	REC_START	n/a	LTP080	ltpFR	0	n/a	n/a	n/a	n/a	n/a	n/a	n/a	n/a	n/a	n/a	n/a
2976353	FFR_REC_WORD	wordpools/wasnorm_wordpool.txt	LTP080	ltpFR	0	n/a	1	STOMACH	1384	n/a	0	n/a	n/a	n/a	n/a	n/a
2977277	FFR_REC_WORD	wordpools/wasnorm_wordpool.txt	LTP080	ltpFR	0	n/a	1	LIVER	833	n/a	0	n/a	n/a	n/a	n/a	n/a
2978589	FFR_REC_WORD	wordpools/wasnorm_wordpool.txt	LTP080	ltpFR	0	n/a	1	PIER	1063	n/a	0	n/a	n/a	n/a	n/a	n/a
2980739	FFR_REC_WORD	wordpools/wasnorm_wordpool.txt	LTP080	ltpFR	0	n/a	1	BISON	131	n/a	1	n/a	n/a	n/a	n/a	n/a
2981592	FFR_REC_WORD	wordpools/wasnorm_wordpool.txt	LTP080	ltpFR	0	n/a	1	BUFFALO	186	n/a	1	n/a	n/a	n/a	n/a	n/a
2983278	FFR_REC_WORD	wordpools/wasnorm_wordpool.txt	LTP080	ltpFR	0	n/a	-1	OTTER	986	n/a	-1	n/a	n/a	n/a	n/a	n/a
2985513	FFR_REC_WORD	wordpools/wasnorm_wordpool.txt	LTP080	ltpFR	0	n/a	1	TANGERINE	1431	n/a	1	n/a	n/a	n/a	n/a	n/a
2986503	FFR_REC_WORD	wordpools/wasnorm_wordpool.txt	LTP080	ltpFR	0	n/a	0	SCHOOL	1248	n/a	1	n/a	n/a	n/a	n/a	n/a
2987314	FFR_REC_WORD	wordpools/wasnorm_wordpool.txt	LTP080	ltpFR	0	n/a	1	COLLEGE	346	n/a	0	n/a	n/a	n/a	n/a	n/a
2988302	FFR_REC_WORD	wordpools/wasnorm_wordpool.txt	LTP080	ltpFR	0	n/a	0	DOCTOR	478	n/a	1	n/a	n/a	n/a	n/a	n/a
2989290	FFR_REC_WORD	wordpools/wasnorm_wordpool.txt	LTP080	ltpFR	0	n/a	0	ACTRESS	6	n/a	1	n/a	n/a	n/a	n/a	n/a
2991021	FFR_REC_WORD	wordpools/wasnorm_wordpool.txt	LTP080	ltpFR	0	n/a	1	DEPUTY	450	n/a	1	n/a	n/a	n/a	n/a	n/a
2992921	FFR_REC_WORD	wordpools/wasnorm_wordpool.txt	LTP080	ltpFR	0	n/a	1	VILLAIN	1567	n/a	1	n/a	n/a	n/a	n/a	n/a
2999556	FFR_REC_WORD	wordpools/wasnorm_wordpool.txt	LTP080	ltpFR	0	n/a	0	STRAWBERRY	1391	n/a	0	n/a	n/a	n/a	n/a	n/a
3002385	FFR_REC_WORD	wordpools/wasnorm_wordpool.txt	LTP080	ltpFR	0	n/a	n/a	HOUSE	725	n/a	n/a	n/a	n/a	n/a	n/a	n/a
3003472	FFR_REC_WORD	wordpools/wasnorm_wordpool.txt	LTP080	ltpFR	0	n/a	0	SOFA	1342	n/a	1	n/a	n/a	n/a	n/a	n/a
3004440	FFR_REC_WORD	wordpools/wasnorm_wordpool.txt	LTP080	ltpFR	0	n/a	0	SAXOPHONE	1240	n/a	1	n/a	n/a	n/a	n/a	n/a
3006969	FFR_REC_WORD	wordpools/wasnorm_wordpool.txt	LTP080	ltpFR	0	n/a	-1	CANYON	235	n/a	-1	n/a	n/a	n/a	n/a	n/a
3011324	FFR_REC_WORD	wordpools/wasnorm_wordpool.txt	LTP080	ltpFR	0	n/a	n/a	FIELD	562	n/a	n/a	n/a	n/a	n/a	n/a	n/a
3012482	FFR_REC_WORD	wordpools/wasnorm_wordpool.txt	LTP080	ltpFR	0	n/a	1	JUNGLE	764	n/a	0	n/a	n/a	n/a	n/a	n/a
3013345	FFR_REC_WORD	wordpools/wasnorm_wordpool.txt	LTP080	ltpFR	0	n/a	1	LAKE	796	n/a	0	n/a	n/a	n/a	n/a	n/a
3014263	FFR_REC_WORD	wordpools/wasnorm_wordpool.txt	LTP080	ltpFR	0	n/a	-1	BAY	102	n/a	-1	n/a	n/a	n/a	n/a	n/a
3020713	FFR_REC_WORD	wordpools/wasnorm_wordpool.txt	LTP080	ltpFR	0	n/a	-1	OTTER	986	n/a	-1	n/a	n/a	n/a	n/a	n/a
3023048	FFR_REC_WORD	wordpools/wasnorm_wordpool.txt	LTP080	ltpFR	0	n/a	1	BEAVER	109	n/a	0	n/a	n/a	n/a	n/a	n/a
3035584	FFR_REC_WORD	wordpools/wasnorm_wordpool.txt	LTP080	ltpFR	0	n/a	0	BUCKET	184	n/a	1	n/a	n/a	n/a	n/a	n/a
3036717	FFR_REC_WORD	wordpools/wasnorm_wordpool.txt	LTP080	ltpFR	0	n/a	0	JUG	762	n/a	1	n/a	n/a	n/a	n/a	n/a
3045667	FFR_REC_WORD	wordpools/wasnorm_wordpool.txt	LTP080	ltpFR	0	n/a	-1	TOMB	1477	n/a	-1	n/a	n/a	n/a	n/a	n/a
3049423	FFR_REC_WORD	wordpools/wasnorm_wordpool.txt	LTP080	ltpFR	0	n/a	-1	MILDEW	893	n/a	-1	n/a	n/a	n/a	n/a	n/a
3074945	FFR_REC_WORD	wordpools/wasnorm_wordpool.txt	LTP080	ltpFR	0	n/a	1	PARTNER	1017	n/a	1	n/a	n/a	n/a	n/a	n/a
3078661	FFR_REC_WORD	wordpools/wasnorm_wordpool.txt	LTP080	ltpFR	0	n/a	1	FELLOW	558	n/a	0	n/a	n/a	n/a	n/a	n/a
3086888	FFR_REC_WORD	wordpools/wasnorm_wordpool.txt	LTP080	ltpFR	0	n/a	0	SOCIETY	1338	n/a	1	n/a	n/a	n/a	n/a	n/a
3090285	FFR_REC_WORD	wordpools/wasnorm_wordpool.txt	LTP080	ltpFR	0	n/a	0	HOOK	715	n/a	0	n/a	n/a	n/a	n/a	n/a
3093697	FFR_REC_WORD	wordpools/wasnorm_wordpool.txt	LTP080	ltpFR	0	n/a	n/a	CHAPEL	280	n/a	n/a	n/a	n/a	n/a	n/a	n/a
3095398	FFR_REC_WORD	wordpools/wasnorm_wordpool.txt	LTP080	ltpFR	0	n/a	1	CHURCH	307	n/a	0	n/a	n/a	n/a	n/a	n/a
3101869	FFR_REC_WORD	wordpools/wasnorm_wordpool.txt	LTP080	ltpFR	0	n/a	0	DRESSER	496	n/a	1	n/a	n/a	n/a	n/a	n/a
3106174	FFR_REC_WORD	wordpools/wasnorm_wordpool.txt	LTP080	ltpFR	0	n/a	0	FLY	586	n/a	0	n/a	n/a	n/a	n/a	n/a
3107945	FFR_REC_WORD	wordpools/wasnorm_wordpool.txt	LTP080	ltpFR	0	n/a	1	INSECT	740	n/a	1	n/a	n/a	n/a	n/a	n/a
3108958	FFR_REC_WORD	wordpools/wasnorm_wordpool.txt	LTP080	ltpFR	0	n/a	1	BUG	187	n/a	1	n/a	n/a	n/a	n/a	n/a
3114560	FFR_REC_WORD	wordpools/wasnorm_wordpool.txt	LTP080	ltpFR	0	n/a	0	TAPE	1433	n/a	0	n/a	n/a	n/a	n/a	n/a
3128818	FFR_REC_WORD	wordpools/wasnorm_wordpool.txt	LTP080	ltpFR	0	n/a	1	CONSOLE	364	n/a	0	n/a	n/a	n/a	n/a	n/a
3129596	FFR_REC_WORD	wordpools/wasnorm_wordpool.txt	LTP080	ltpFR	0	n/a	1	MACHINE	852	n/a	0	n/a	n/a	n/a	n/a	n/a
3138685	FFR_REC_WORD	wordpools/wasnorm_wordpool.txt	LTP080	ltpFR	0	n/a	1	GRASS	655	n/a	0	n/a	n/a	n/a	n/a	n/a
3151710	FFR_REC_WORD	wordpools/wasnorm_wordpool.txt	LTP080	ltpFR	0	n/a	1	ROSE	1212	n/a	1	n/a	n/a	n/a	n/a	n/a
3153706	FFR_REC_WORD	wordpools/wasnorm_wordpool.txt	LTP080	ltpFR	0	n/a	0	SHRUB	1299	n/a	1	n/a	n/a	n/a	n/a	n/a
3155457	FFR_REC_WORD	wordpools/wasnorm_wordpool.txt	LTP080	ltpFR	0	n/a	1	PLANT	1083	n/a	1	n/a	n/a	n/a	n/a	n/a
3164097	FFR_REC_WORD	wordpools/wasnorm_wordpool.txt	LTP080	ltpFR	0	n/a	1	RIVER	1194	n/a	0	n/a	n/a	n/a	n/a	n/a
3170488	FFR_REC_WORD	wordpools/wasnorm_wordpool.txt	LTP080	ltpFR	0	n/a	1	AUTOMOBILE	62	n/a	0	n/a	n/a	n/a	n/a	n/a
3187689	FFR_REC_WORD	wordpools/wasnorm_wordpool.txt	LTP080	ltpFR	0	n/a	-1	DENTIST	447	n/a	-1	n/a	n/a	n/a	n/a	n/a
3198444	FFR_REC_WORD	wordpools/wasnorm_wordpool.txt	LTP080	ltpFR	0	n/a	0	PANTHER	1009	n/a	1	n/a	n/a	n/a	n/a	n/a
3199073	FFR_REC_WORD	wordpools/wasnorm_wordpool.txt	LTP080	ltpFR	0	n/a	0	MOUSE	925	n/a	0	n/a	n/a	n/a	n/a	n/a
3201951	FFR_REC_WORD	wordpools/wasnorm_wordpool.txt	LTP080	ltpFR	0	n/a	0	LION	827	n/a	1	n/a	n/a	n/a	n/a	n/a
3218289	FFR_REC_WORD	wordpools/wasnorm_wordpool.txt	LTP080	ltpFR	0	n/a	-1	LIBRARY	816	n/a	-1	n/a	n/a	n/a	n/a	n/a
3219327	FFR_REC_WORD	wordpools/wasnorm_wordpool.txt	LTP080	ltpFR	0	n/a	0	SHELF	1280	n/a	1	n/a	n/a	n/a	n/a	n/a
3220038	FFR_REC_WORD	wordpools/wasnorm_wordpool.txt	LTP080	ltpFR	0	n/a	0	ENCYCLOPEDIA	533	n/a	1	n/a	n/a	n/a	n/a	n/a
3258338	FFR_REC_WORD	wordpools/wasnorm_wordpool.txt	LTP080	ltpFR	0	n/a	-1	SENATOR	1268	n/a	-1	n/a	n/a	n/a	n/a	n/a
3259755	FFR_REC_WORD	wordpools/wasnorm_wordpool.txt	LTP080	ltpFR	0	n/a	-1	POLITICIAN	1099	n/a	-1	n/a	n/a	n/a	n/a	n/a
3261177	FFR_REC_WORD	wordpools/wasnorm_wordpool.txt	LTP080	ltpFR	0	n/a	0	PRESIDENT	1121	n/a	1	n/a	n/a	n/a	n/a	n/a
3264364	FFR_REC_WORD	wordpools/wasnorm_wordpool.txt	LTP080	ltpFR	0	n/a	0	CHAIRPERSON	275	n/a	1	n/a	n/a	n/a	n/a	n/a
3267078	FFR_REC_WORD	wordpools/wasnorm_wordpool.txt	LTP080	ltpFR	0	n/a	-1	OFFICE	972	n/a	-1	n/a	n/a	n/a	n/a	n/a
3269498	FFR_REC_WORD	wordpools/wasnorm_wordpool.txt	LTP080	ltpFR	0	n/a	-1	HUT	729	n/a	-1	n/a	n/a	n/a	n/a	n/a
3334490	REC_START	n/a	LTP080	ltpFR	0	1	n/a	n/a	n/a	n/a	n/a	n/a	n/a	n/a	n/a	n/a
3334523	RECOG_TARGET	n/a	LTP080	ltpFR	0	1	0	PEAR	1033	5	0	n/a	n/a	n/a	n/a	n/a
3336920	RECOG_RESP	n/a	LTP080	ltpFR	0	1	0	PEAR	1033	n/a	0	n/a	n/a	n/a	n/a	n/a
3339980	RECOG_CONF	n/a	LTP080	ltpFR	0	1	0	PEAR	1033	5	0	n/a	n/a	n/a	n/a	n/a
3341821	RECOG_TARGET	n/a	LTP080	ltpFR	0	1	1	BARK	87	5	0	n/a	n/a	n/a	n/a	n/a
3343816	RECOG_RESP	n/a	LTP080	ltpFR	0	1	1	BARK	87	n/a	0	n/a	n/a	n/a	n/a	n/a
3345360	RECOG_CONF	n/a	LTP080	ltpFR	0	1	1	BARK	87	5	0	n/a	n/a	n/a	n/a	n/a
3347029	RECOG_TARGET	n/a	LTP080	ltpFR	0	1	0	CUP	424	2	0	n/a	n/a	n/a	n/a	n/a
3348441	RECOG_RESP	n/a	LTP080	ltpFR	0	1	0	CUP	424	n/a	0	n/a	n/a	n/a	n/a	n/a
3350013	RECOG_CONF	n/a	LTP080	ltpFR	0	1	0	CUP	424	2	0	n/a	n/a	n/a	n/a	n/a
3351670	RECOG_TARGET	n/a	LTP080	ltpFR	0	1	0	SHRUB	1299	5	1	n/a	n/a	n/a	n/a	n/a
3353437	RECOG_RESP	n/a	LTP080	ltpFR	0	1	0	SHRUB	1299	n/a	1	n/a	n/a	n/a	n/a	n/a
3354839	RECOG_CONF	n/a	LTP080	ltpFR	0	1	0	SHRUB	1299	5	1	n/a	n/a	n/a	n/a	n/a
3356396	RECOG_TARGET	n/a	LTP080	ltpFR	0	1	-1	NET	946	5	-1	n/a	n/a	n/a	n/a	n/a
3357627	RECOG_RESP	n/a	LTP080	ltpFR	0	1	-1	NET	946	n/a	-1	n/a	n/a	n/a	n/a	n/a
3359019	RECOG_CONF	n/a	LTP080	ltpFR	0	1	-1	NET	946	5	-1	n/a	n/a	n/a	n/a	n/a
3360611	RECOG_LURE	n/a	LTP080	ltpFR	0	1	n/a	MAILBOX	857	2	n/a	n/a	n/a	n/a	n/a	n/a
3362312	RECOG_RESP	n/a	LTP080	ltpFR	0	1	n/a	MAILBOX	857	n/a	n/a	n/a	n/a	n/a	n/a	n/a
3363671	RECOG_CONF	n/a	LTP080	ltpFR	0	1	n/a	MAILBOX	857	2	n/a	n/a	n/a	n/a	n/a	n/a
3365245	RECOG_TARGET	n/a	LTP080	ltpFR	0	1	1	TROUT	1511	5	1	n/a	n/a	n/a	n/a	n/a
3366548	RECOG_RESP	n/a	LTP080	ltpFR	0	1	1	TROUT	1511	n/a	1	n/a	n/a	n/a	n/a	n/a
3367738	RECOG_CONF	n/a	LTP080	ltpFR	0	1	1	TROUT	1511	5	1	n/a	n/a	n/a	n/a	n/a
3369295	RECOG_TARGET	n/a	LTP080	ltpFR	0	1	-1	GRADUATE	653	4	-1	n/a	n/a	n/a	n/a	n/a
3370935	RECOG_RESP	n/a	LTP080	ltpFR	0	1	-1	GRADUATE	653	n/a	-1	n/a	n/a	n/a	n/a	n/a
3372307	RECOG_CONF	n/a	LTP080	ltpFR	0	1	-1	GRADUATE	653	4	-1	n/a	n/a	n/a	n/a	n/a
3373719	RECOG_TARGET	n/a	LTP080	ltpFR	0	1	1	RUM	1217	5	0	n/a	n/a	n/a	n/a	n/a
3374710	RECOG_RESP	n/a	LTP080	ltpFR	0	1	1	RUM	1217	n/a	0	n/a	n/a	n/a	n/a	n/a
3375941	RECOG_CONF	n/a	LTP080	ltpFR	0	1	1	RUM	1217	5	0	n/a	n/a	n/a	n/a	n/a
3377461	RECOG_TARGET	n/a	LTP080	ltpFR	0	1	0	CRAB	397	5	0	n/a	n/a	n/a	n/a	n/a
3378509	RECOG_RESP	n/a	LTP080	ltpFR	0	1	0	CRAB	397	n/a	0	n/a	n/a	n/a	n/a	n/a
3379652	RECOG_CONF	n/a	LTP080	ltpFR	0	1	0	CRAB	397	5	0	n/a	n/a	n/a	n/a	n/a
3381160	RECOG_TARGET	n/a	LTP080	ltpFR	0	1	-1	SUBMARINE	1398	5	-1	n/a	n/a	n/a	n/a	n/a
3382152	RECOG_RESP	n/a	LTP080	ltpFR	0	1	-1	SUBMARINE	1398	n/a	-1	n/a	n/a	n/a	n/a	n/a
3383344	RECOG_CONF	n/a	LTP080	ltpFR	0	1	-1	SUBMARINE	1398	5	-1	n/a	n/a	n/a	n/a	n/a
3384885	RECOG_TARGET	n/a	LTP080	ltpFR	0	1	0	SWAN	1417	5	1	n/a	n/a	n/a	n/a	n/a
3385987	RECOG_RESP	n/a	LTP080	ltpFR	0	1	0	SWAN	1417	n/a	1	n/a	n/a	n/a	n/a	n/a
3387174	RECOG_CONF	n/a	LTP080	ltpFR	0	1	0	SWAN	1417	5	1	n/a	n/a	n/a	n/a	n/a
3388726	RECOG_TARGET	n/a	LTP080	ltpFR	0	1	-1	COTTAGE	384	2	-1	n/a	n/a	n/a	n/a	n/a
3390787	RECOG_RESP	n/a	LTP080	ltpFR	0	1	-1	COTTAGE	384	n/a	-1	n/a	n/a	n/a	n/a	n/a
3391957	RECOG_CONF	n/a	LTP080	ltpFR	0	1	-1	COTTAGE	384	2	-1	n/a	n/a	n/a	n/a	n/a
3393502	RECOG_TARGET	n/a	LTP080	ltpFR	0	1	1	BISON	131	5	1	n/a	n/a	n/a	n/a	n/a
3394467	RECOG_RESP	n/a	LTP080	ltpFR	0	1	1	BISON	131	n/a	1	n/a	n/a	n/a	n/a	n/a
3395573	RECOG_CONF	n/a	LTP080	ltpFR	0	1	1	BISON	131	5	1	n/a	n/a	n/a	n/a	n/a
3397025	RECOG_LURE	n/a	LTP080	ltpFR	0	1	n/a	THERMOMETER	1453	3	n/a	n/a	n/a	n/a	n/a	n/a
3398554	RECOG_RESP	n/a	LTP080	ltpFR	0	1	n/a	THERMOMETER	1453	n/a	n/a	n/a	n/a	n/a	n/a	n/a
3400026	RECOG_CONF	n/a	LTP080	ltpFR	0	1	n/a	THERMOMETER	1453	3	n/a	n/a	n/a	n/a	n/a	n/a
3401601	RECOG_TARGET	n/a	LTP080	ltpFR	0	1	-1	LIBRARY	816	5	-1	n/a	n/a	n/a	n/a	n/a
3402475	RECOG_RESP	n/a	LTP080	ltpFR	0	1	-1	LIBRARY	816	n/a	-1	n/a	n/a	n/a	n/a	n/a
3403807	RECOG_CONF	n/a	LTP080	ltpFR	0	1	-1	LIBRARY	816	5	-1	n/a	n/a	n/a	n/a	n/a
3405476	RECOG_LURE	n/a	LTP080	ltpFR	0	1	n/a	TWISTER	1530	4	n/a	n/a	n/a	n/a	n/a	n/a
3406870	RECOG_RESP	n/a	LTP080	ltpFR	0	1	n/a	TWISTER	1530	n/a	n/a	n/a	n/a	n/a	n/a	n/a
3408343	RECOG_CONF	n/a	LTP080	ltpFR	0	1	n/a	TWISTER	1530	4	n/a	n/a	n/a	n/a	n/a	n/a
3409799	RECOG_LURE	n/a	LTP080	ltpFR	0	1	n/a	WITCH	1617	4	n/a	n/a	n/a	n/a	n/a	n/a
3411009	RECOG_RESP	n/a	LTP080	ltpFR	0	1	n/a	WITCH	1617	n/a	n/a	n/a	n/a	n/a	n/a	n/a
3412441	RECOG_CONF	n/a	LTP080	ltpFR	0	1	n/a	WITCH	1617	4	n/a	n/a	n/a	n/a	n/a	n/a
3413857	RECOG_TARGET	n/a	LTP080	ltpFR	0	1	1	MANAGER	863	5	1	n/a	n/a	n/a	n/a	n/a
3415032	RECOG_RESP	n/a	LTP080	ltpFR	0	1	1	MANAGER	863	n/a	1	n/a	n/a	n/a	n/a	n/a
3416145	RECOG_CONF	n/a	LTP080	ltpFR	0	1	1	MANAGER	863	5	1	n/a	n/a	n/a	n/a	n/a
3417782	RECOG_TARGET	n/a	LTP080	ltpFR	0	1	1	SCREWDRIVER	1255	5	0	n/a	n/a	n/a	n/a	n/a
3418758	RECOG_RESP	n/a	LTP080	ltpFR	0	1	1	SCREWDRIVER	1255	n/a	0	n/a	n/a	n/a	n/a	n/a
3419868	RECOG_CONF	n/a	LTP080	ltpFR	0	1	1	SCREWDRIVER	1255	5	0	n/a	n/a	n/a	n/a	n/a
3461628	REC_START	n/a	LTP080	ltpFR	0	2	n/a	n/a	n/a	n/a	n/a	n/a	n/a	n/a	n/a	n/a
3461662	RECOG_TARGET	n/a	LTP080	ltpFR	0	2	0	SLEEVE	1324	4	1	n/a	n/a	n/a	n/a	n/a
3462850	RECOG_RESP	n/a	LTP080	ltpFR	0	2	0	SLEEVE	1324	n/a	1	n/a	n/a	n/a	n/a	n/a
3463958	RECOG_CONF	n/a	LTP080	ltpFR	0	2	0	SLEEVE	1324	4	1	n/a	n/a	n/a	n/a	n/a
3465629	RECOG_TARGET	n/a	LTP080	ltpFR	0	2	0	TEAPOT	1442	5	0	n/a	n/a	n/a	n/a	n/a
3466882	RECOG_RESP	n/a	LTP080	ltpFR	0	2	0	TEAPOT	1442	n/a	0	n/a	n/a	n/a	n/a	n/a
3467879	RECOG_CONF	n/a	LTP080	ltpFR	0	2	0	TEAPOT	1442	5	0	n/a	n/a	n/a	n/a	n/a
3469371	RECOG_TARGET	n/a	LTP080	ltpFR	0	2	1	HOUND	724	3	1	n/a	n/a	n/a	n/a	n/a
3470512	RECOG_RESP	n/a	LTP080	ltpFR	0	2	1	HOUND	724	n/a	1	n/a	n/a	n/a	n/a	n/a
3471590	RECOG_CONF	n/a	LTP080	ltpFR	0	2	1	HOUND	724	3	1	n/a	n/a	n/a	n/a	n/a
3473045	RECOG_TARGET	n/a	LTP080	ltpFR	0	2	-1	POT	1114	5	-1	n/a	n/a	n/a	n/a	n/a
3473863	RECOG_RESP	n/a	LTP080	ltpFR	0	2	-1	POT	1114	n/a	-1	n/a	n/a	n/a	n/a	n/a
3474953	RECOG_CONF	n/a	LTP080	ltpFR	0	2	-1	POT	1114	5	-1	n/a	n/a	n/a	n/a	n/a
3476470	RECOG_TARGET	n/a	LTP080	ltpFR	0	2	-1	GRAVE	658	2	-1	n/a	n/a	n/a	n/a	n/a
3478093	RECOG_RESP	n/a	LTP080	ltpFR	0	2	-1	GRAVE	658	n/a	-1	n/a	n/a	n/a	n/a	n/a
3479122	RECOG_CONF	n/a	LTP080	ltpFR	0	2	-1	GRAVE	658	2	-1	n/a	n/a	n/a	n/a	n/a
3480545	RECOG_TARGET	n/a	LTP080	ltpFR	0	2	1	MACHINE	852	5	0	n/a	n/a	n/a	n/a	n/a
3481474	RECOG_RESP	n/a	LTP080	ltpFR	0	2	1	MACHINE	852	n/a	0	n/a	n/a	n/a	n/a	n/a
3482505	RECOG_CONF	n/a	LTP080	ltpFR	0	2	1	MACHINE	852	5	0	n/a	n/a	n/a	n/a	n/a
3483961	RECOG_LURE	n/a	LTP080	ltpFR	0	2	n/a	BARLEY	88	2	n/a	n/a	n/a	n/a	n/a	n/a
3485743	RECOG_RESP	n/a	LTP080	ltpFR	0	2	n/a	BARLEY	88	n/a	n/a	n/a	n/a	n/a	n/a	n/a
3487085	RECOG_CONF	n/a	LTP080	ltpFR	0	2	n/a	BARLEY	88	2	n/a	n/a	n/a	n/a	n/a	n/a
3488561	RECOG_TARGET	n/a	LTP080	ltpFR	0	2	1	GRASS	655	5	0	n/a	n/a	n/a	n/a	n/a
3489359	RECOG_RESP	n/a	LTP080	ltpFR	0	2	1	GRASS	655	n/a	0	n/a	n/a	n/a	n/a	n/a
3490377	RECOG_CONF	n/a	LTP080	ltpFR	0	2	1	GRASS	655	5	0	n/a	n/a	n/a	n/a	n/a
3491893	RECOG_TARGET	n/a	LTP080	ltpFR	0	2	-1	ATTIRE	57	5	-1	n/a	n/a	n/a	n/a	n/a
3492834	RECOG_RESP	n/a	LTP080	ltpFR	0	2	-1	ATTIRE	57	n/a	-1	n/a	n/a	n/a	n/a	n/a
3493919	RECOG_CONF	n/a	LTP080	ltpFR	0	2	-1	ATTIRE	57	5	-1	n/a	n/a	n/a	n/a	n/a
3495277	RECOG_TARGET	n/a	LTP080	ltpFR	0	2	0	CAB	209	5	1	n/a	n/a	n/a	n/a	n/a
3496183	RECOG_RESP	n/a	LTP080	ltpFR	0	2	0	CAB	209	n/a	1	n/a	n/a	n/a	n/a	n/a
3497167	RECOG_CONF	n/a	LTP080	ltpFR	0	2	0	CAB	209	5	1	n/a	n/a	n/a	n/a	n/a
3498618	RECOG_TARGET	n/a	LTP080	ltpFR	0	2	1	VENT	1556	2	0	n/a	n/a	n/a	n/a	n/a
3499724	RECOG_RESP	n/a	LTP080	ltpFR	0	2	1	VENT	1556	n/a	0	n/a	n/a	n/a	n/a	n/a
3500809	RECOG_CONF	n/a	LTP080	ltpFR	0	2	1	VENT	1556	2	0	n/a	n/a	n/a	n/a	n/a
3502277	RECOG_TARGET	n/a	LTP080	ltpFR	0	2	0	SAP	1233	5	1	n/a	n/a	n/a	n/a	n/a
3503724	RECOG_RESP	n/a	LTP080	ltpFR	0	2	0	SAP	1233	n/a	1	n/a	n/a	n/a	n/a	n/a
3504845	RECOG_CONF	n/a	LTP080	ltpFR	0	2	0	SAP	1233	5	1	n/a	n/a	n/a	n/a	n/a
3506293	RECOG_TARGET	n/a	LTP080	ltpFR	0	2	-1	FILM	565	5	-1	n/a	n/a	n/a	n/a	n/a
3507489	RECOG_RESP	n/a	LTP080	ltpFR	0	2	-1	FILM	565	n/a	-1	n/a	n/a	n/a	n/a	n/a
3508576	RECOG_CONF	n/a	LTP080	ltpFR	0	2	-1	FILM	565	5	-1	n/a	n/a	n/a	n/a	n/a
3510235	RECOG_TARGET	n/a	LTP080	ltpFR	0	2	0	CRIB	407	5	1	n/a	n/a	n/a	n/a	n/a
3511218	RECOG_RESP	n/a	LTP080	ltpFR	0	2	0	CRIB	407	n/a	1	n/a	n/a	n/a	n/a	n/a
3512377	RECOG_CONF	n/a	LTP080	ltpFR	0	2	0	CRIB	407	5	1	n/a	n/a	n/a	n/a	n/a
3513950	RECOG_LURE	n/a	LTP080	ltpFR	0	2	n/a	DRUM	502	2	n/a	n/a	n/a	n/a	n/a	n/a
3516132	RECOG_RESP	n/a	LTP080	ltpFR	0	2	n/a	DRUM	502	n/a	n/a	n/a	n/a	n/a	n/a	n/a
3517267	RECOG_CONF	n/a	LTP080	ltpFR	0	2	n/a	DRUM	502	2	n/a	n/a	n/a	n/a	n/a	n/a
3518883	RECOG_LURE	n/a	LTP080	ltpFR	0	2	n/a	MOON	914	3	n/a	n/a	n/a	n/a	n/a	n/a
3520225	RECOG_RESP	n/a	LTP080	ltpFR	0	2	n/a	MOON	914	n/a	n/a	n/a	n/a	n/a	n/a	n/a
3521771	RECOG_CONF	n/a	LTP080	ltpFR	0	2	n/a	MOON	914	3	n/a	n/a	n/a	n/a	n/a	n/a
3523158	RECOG_LURE	n/a	LTP080	ltpFR	0	2	n/a	DISH	474	2	n/a	n/a	n/a	n/a	n/a	n/a
3524206	RECOG_RESP	n/a	LTP080	ltpFR	0	2	n/a	DISH	474	n/a	n/a	n/a	n/a	n/a	n/a	n/a
3525259	RECOG_CONF	n/a	LTP080	ltpFR	0	2	n/a	DISH	474	2	n/a	n/a	n/a	n/a	n/a	n/a
3526749	RECOG_TARGET	n/a	LTP080	ltpFR	0	2	-1	VINE	1568	5	-1	n/a	n/a	n/a	n/a	n/a
3527601	RECOG_RESP	n/a	LTP080	ltpFR	0	2	-1	VINE	1568	n/a	-1	n/a	n/a	n/a	n/a	n/a
3528598	RECOG_CONF	n/a	LTP080	ltpFR	0	2	-1	VINE	1568	5	-1	n/a	n/a	n/a	n/a	n/a
3530049	RECOG_TARGET	n/a	LTP080	ltpFR	0	2	1	PLANT	1083	5	1	n/a	n/a	n/a	n/a	n/a
3530819	RECOG_RESP	n/a	LTP080	ltpFR	0	2	1	PLANT	1083	n/a	1	n/a	n/a	n/a	n/a	n/a
3531887	RECOG_CONF	n/a	LTP080	ltpFR	0	2	1	PLANT	1083	5	1	n/a	n/a	n/a	n/a	n/a
3533291	RECOG_TARGET	n/a	LTP080	ltpFR	0	2	0	PAIL	1002	5	1	n/a	n/a	n/a	n/a	n/a
3534322	RECOG_RESP	n/a	LTP080	ltpFR	0	2	0	PAIL	1002	n/a	1	n/a	n/a	n/a	n/a	n/a
3535636	RECOG_CONF	n/a	LTP080	ltpFR	0	2	0	PAIL	1002	5	1	n/a	n/a	n/a	n/a	n/a
3541231	REC_START	n/a	LTP080	ltpFR	0	3	n/a	n/a	n/a	n/a	n/a	n/a	n/a	n/a	n/a	n/a
3541266	RECOG_TARGET	n/a	LTP080	ltpFR	0	3	-1	OATMEAL	967	2	-1	n/a	n/a	n/a	n/a	n/a
3542447	RECOG_RESP	n/a	LTP080	ltpFR	0	3	-1	OATMEAL	967	n/a	-1	n/a	n/a	n/a	n/a	n/a
3543546	RECOG_CONF	n/a	LTP080	ltpFR	0	3	-1	OATMEAL	967	2	-1	n/a	n/a	n/a	n/a	n/a
3545131	RECOG_TARGET	n/a	LTP080	ltpFR	0	3	-1	SPARROW	1347	5	-1	n/a	n/a	n/a	n/a	n/a
3546112	RECOG_RESP	n/a	LTP080	ltpFR	0	3	-1	SPARROW	1347	n/a	-1	n/a	n/a	n/a	n/a	n/a
3547083	RECOG_CONF	n/a	LTP080	ltpFR	0	3	-1	SPARROW	1347	5	-1	n/a	n/a	n/a	n/a	n/a
3548548	RECOG_LURE	n/a	LTP080	ltpFR	0	3	n/a	GORILLA	650	2	n/a	n/a	n/a	n/a	n/a	n/a
3550106	RECOG_RESP	n/a	LTP080	ltpFR	0	3	n/a	GORILLA	650	n/a	n/a	n/a	n/a	n/a	n/a	n/a
3551251	RECOG_CONF	n/a	LTP080	ltpFR	0	3	n/a	GORILLA	650	2	n/a	n/a	n/a	n/a	n/a	n/a
3552655	RECOG_TARGET	n/a	LTP080	ltpFR	0	3	0	HALL	677	5	1	n/a	n/a	n/a	n/a	n/a
3553691	RECOG_RESP	n/a	LTP080	ltpFR	0	3	0	HALL	677	n/a	1	n/a	n/a	n/a	n/a	n/a
3554715	RECOG_CONF	n/a	LTP080	ltpFR	0	3	0	HALL	677	5	1	n/a	n/a	n/a	n/a	n/a
3556113	RECOG_TARGET	n/a	LTP080	ltpFR	0	3	1	KID	775	5	1	n/a	n/a	n/a	n/a	n/a
3556891	RECOG_RESP	n/a	LTP080	ltpFR	0	3	1	KID	775	n/a	1	n/a	n/a	n/a	n/a	n/a
3557918	RECOG_CONF	n/a	LTP080	ltpFR	0	3	1	KID	775	5	1	n/a	n/a	n/a	n/a	n/a
3559331	RECOG_TARGET	n/a	LTP080	ltpFR	0	3	1	PRODUCER	1129	4	1	n/a	n/a	n/a	n/a	n/a
3560683	RECOG_RESP	n/a	LTP080	ltpFR	0	3	1	PRODUCER	1129	n/a	1	n/a	n/a	n/a	n/a	n/a
3562158	RECOG_CONF	n/a	LTP080	ltpFR	0	3	1	PRODUCER	1129	4	1	n/a	n/a	n/a	n/a	n/a
3563597	RECOG_TARGET	n/a	LTP080	ltpFR	0	3	1	CRIMINAL	409	5	1	n/a	n/a	n/a	n/a	n/a
3564332	RECOG_RESP	n/a	LTP080	ltpFR	0	3	1	CRIMINAL	409	n/a	1	n/a	n/a	n/a	n/a	n/a
3565340	RECOG_CONF	n/a	LTP080	ltpFR	0	3	1	CRIMINAL	409	5	1	n/a	n/a	n/a	n/a	n/a
3567038	RECOG_TARGET	n/a	LTP080	ltpFR	0	3	1	LUNCH	849	4	0	n/a	n/a	n/a	n/a	n/a
3568404	RECOG_RESP	n/a	LTP080	ltpFR	0	3	1	LUNCH	849	n/a	0	n/a	n/a	n/a	n/a	n/a
3569463	RECOG_CONF	n/a	LTP080	ltpFR	0	3	1	LUNCH	849	4	0	n/a	n/a	n/a	n/a	n/a
3570871	RECOG_TARGET	n/a	LTP080	ltpFR	0	3	0	CHAMPAGNE	278	5	0	n/a	n/a	n/a	n/a	n/a
3571566	RECOG_RESP	n/a	LTP080	ltpFR	0	3	0	CHAMPAGNE	278	n/a	0	n/a	n/a	n/a	n/a	n/a
3572643	RECOG_CONF	n/a	LTP080	ltpFR	0	3	0	CHAMPAGNE	278	5	0	n/a	n/a	n/a	n/a	n/a
3574112	RECOG_TARGET	n/a	LTP080	ltpFR	0	3	0	NIGHTGOWN	953	3	1	n/a	n/a	n/a	n/a	n/a
3575247	RECOG_RESP	n/a	LTP080	ltpFR	0	3	0	NIGHTGOWN	953	n/a	1	n/a	n/a	n/a	n/a	n/a
3576539	RECOG_CONF	n/a	LTP080	ltpFR	0	3	0	NIGHTGOWN	953	3	1	n/a	n/a	n/a	n/a	n/a
3577987	RECOG_TARGET	n/a	LTP080	ltpFR	0	3	1	SIGN	1305	5	0	n/a	n/a	n/a	n/a	n/a
3579532	RECOG_RESP	n/a	LTP080	ltpFR	0	3	1	SIGN	1305	n/a	0	n/a	n/a	n/a	n/a	n/a
3580562	RECOG_CONF	n/a	LTP080	ltpFR	0	3	1	SIGN	1305	5	0	n/a	n/a	n/a	n/a	n/a
3581987	RECOG_TARGET	n/a	LTP080	ltpFR	0	3	1	GANGSTER	620	5	1	n/a	n/a	n/a	n/a	n/a
3582685	RECOG_RESP	n/a	LTP080	ltpFR	0	3	1	GANGSTER	620	n/a	1	n/a	n/a	n/a	n/a	n/a
3583689	RECOG_CONF	n/a	LTP080	ltpFR	0	3	1	GANGSTER	620	5	1	n/a	n/a	n/a	n/a	n/a
3585145	RECOG_LURE	n/a	LTP080	ltpFR	0	3	n/a	SPATULA	1348	2	n/a	n/a	n/a	n/a	n/a	n/a
3586462	RECOG_RESP	n/a	LTP080	ltpFR	0	3	n/a	SPATULA	1348	n/a	n/a	n/a	n/a	n/a	n/a	n/a
3587948	RECOG_CONF	n/a	LTP080	ltpFR	0	3	n/a	SPATULA	1348	2	n/a	n/a	n/a	n/a	n/a	n/a
3589337	RECOG_LURE	n/a	LTP080	ltpFR	0	3	n/a	DRIVEWAY	500	2	n/a	n/a	n/a	n/a	n/a	n/a
3591742	RECOG_RESP	n/a	LTP080	ltpFR	0	3	n/a	DRIVEWAY	500	n/a	n/a	n/a	n/a	n/a	n/a	n/a
3592956	RECOG_CONF	n/a	LTP080	ltpFR	0	3	n/a	DRIVEWAY	500	2	n/a	n/a	n/a	n/a	n/a	n/a
3594420	RECOG_TARGET	n/a	LTP080	ltpFR	0	3	1	SWORD	1423	3	0	n/a	n/a	n/a	n/a	n/a
3595558	RECOG_RESP	n/a	LTP080	ltpFR	0	3	1	SWORD	1423	n/a	0	n/a	n/a	n/a	n/a	n/a
3596620	RECOG_CONF	n/a	LTP080	ltpFR	0	3	1	SWORD	1423	3	0	n/a	n/a	n/a	n/a	n/a
3598002	RECOG_TARGET	n/a	LTP080	ltpFR	0	3	0	SOCIETY	1338	5	1	n/a	n/a	n/a	n/a	n/a
3598802	RECOG_RESP	n/a	LTP080	ltpFR	0	3	0	SOCIETY	1338	n/a	1	n/a	n/a	n/a	n/a	n/a
3599843	RECOG_CONF	n/a	LTP080	ltpFR	0	3	0	SOCIETY	1338	5	1	n/a	n/a	n/a	n/a	n/a
3601185	RECOG_LURE	n/a	LTP080	ltpFR	0	3	n/a	WALNUT	1584	3	n/a	n/a	n/a	n/a	n/a	n/a
3602369	RECOG_RESP	n/a	LTP080	ltpFR	0	3	n/a	WALNUT	1584	n/a	n/a	n/a	n/a	n/a	n/a	n/a
3603464	RECOG_CONF	n/a	LTP080	ltpFR	0	3	n/a	WALNUT	1584	3	n/a	n/a	n/a	n/a	n/a	n/a
3604810	RECOG_TARGET	n/a	LTP080	ltpFR	0	3	1	SCARF	1246	5	0	n/a	n/a	n/a	n/a	n/a
3606053	RECOG_RESP	n/a	LTP080	ltpFR	0	3	1	SCARF	1246	n/a	0	n/a	n/a	n/a	n/a	n/a
3607375	RECOG_CONF	n/a	LTP080	ltpFR	0	3	1	SCARF	1246	5	0	n/a	n/a	n/a	n/a	n/a
3608735	RECOG_LURE	n/a	LTP080	ltpFR	0	3	n/a	LEMON	810	3	n/a	n/a	n/a	n/a	n/a	n/a
3609765	RECOG_RESP	n/a	LTP080	ltpFR	0	3	n/a	LEMON	810	n/a	n/a	n/a	n/a	n/a	n/a	n/a
3611042	RECOG_CONF	n/a	LTP080	ltpFR	0	3	n/a	LEMON	810	3	n/a	n/a	n/a	n/a	n/a	n/a
3612494	RECOG_TARGET	n/a	LTP080	ltpFR	0	3	-1	SUBURB	1399	4	-1	n/a	n/a	n/a	n/a	n/a
3614783	RECOG_RESP	n/a	LTP080	ltpFR	0	3	-1	SUBURB	1399	n/a	-1	n/a	n/a	n/a	n/a	n/a
3616142	RECOG_CONF	n/a	LTP080	ltpFR	0	3	-1	SUBURB	1399	4	-1	n/a	n/a	n/a	n/a	n/a
3620662	REC_START	n/a	LTP080	ltpFR	0	4	n/a	n/a	n/a	n/a	n/a	n/a	n/a	n/a	n/a	n/a
3620692	RECOG_LURE	n/a	LTP080	ltpFR	0	4	n/a	BAIT	70	2	n/a	n/a	n/a	n/a	n/a	n/a
3622146	RECOG_RESP	n/a	LTP080	ltpFR	0	4	n/a	BAIT	70	n/a	n/a	n/a	n/a	n/a	n/a	n/a
3623312	RECOG_CONF	n/a	LTP080	ltpFR	0	4	n/a	BAIT	70	2	n/a	n/a	n/a	n/a	n/a	n/a
3624758	RECOG_TARGET	n/a	LTP080	ltpFR	0	4	-1	CIRCUS	311	5	-1	n/a	n/a	n/a	n/a	n/a
3625660	RECOG_RESP	n/a	LTP080	ltpFR	0	4	-1	CIRCUS	311	n/a	-1	n/a	n/a	n/a	n/a	n/a
3626623	RECOG_CONF	n/a	LTP080	ltpFR	0	4	-1	CIRCUS	311	5	-1	n/a	n/a	n/a	n/a	n/a
3627950	RECOG_TARGET	n/a	LTP080	ltpFR	0	4	-1	TOMB	1477	5	-1	n/a	n/a	n/a	n/a	n/a
3628707	RECOG_RESP	n/a	LTP080	ltpFR	0	4	-1	TOMB	1477	n/a	-1	n/a	n/a	n/a	n/a	n/a
3629706	RECOG_CONF	n/a	LTP080	ltpFR	0	4	-1	TOMB	1477	5	-1	n/a	n/a	n/a	n/a	n/a
3631191	RECOG_TARGET	n/a	LTP080	ltpFR	0	4	-1	MONGOOSE	909	5	-1	n/a	n/a	n/a	n/a	n/a
3631874	RECOG_RESP	n/a	LTP080	ltpFR	0	4	-1	MONGOOSE	909	n/a	-1	n/a	n/a	n/a	n/a	n/a
3632949	RECOG_CONF	n/a	LTP080	ltpFR	0	4	-1	MONGOOSE	909	5	-1	n/a	n/a	n/a	n/a	n/a
3634417	RECOG_LURE	n/a	LTP080	ltpFR	0	4	n/a	COWARD	394	4	n/a	n/a	n/a	n/a	n/a	n/a
3635332	RECOG_RESP	n/a	LTP080	ltpFR	0	4	n/a	COWARD	394	n/a	n/a	n/a	n/a	n/a	n/a	n/a
3636454	RECOG_CONF	n/a	LTP080	ltpFR	0	4	n/a	COWARD	394	4	n/a	n/a	n/a	n/a	n/a	n/a
3637816	RECOG_TARGET	n/a	LTP080	ltpFR	0	4	1	JUNGLE	764	5	0	n/a	n/a	n/a	n/a	n/a
3638521	RECOG_RESP	n/a	LTP080	ltpFR	0	4	1	JUNGLE	764	n/a	0	n/a	n/a	n/a	n/a	n/a
3639604	RECOG_CONF	n/a	LTP080	ltpFR	0	4	1	JUNGLE	764	5	0	n/a	n/a	n/a	n/a	n/a
3640890	RECOG_LURE	n/a	LTP080	ltpFR	0	4	n/a	TAR	1435	3	n/a	n/a	n/a	n/a	n/a	n/a
3642082	RECOG_RESP	n/a	LTP080	ltpFR	0	4	n/a	TAR	1435	n/a	n/a	n/a	n/a	n/a	n/a	n/a
3643196	RECOG_CONF	n/a	LTP080	ltpFR	0	4	n/a	TAR	1435	3	n/a	n/a	n/a	n/a	n/a	n/a
3644615	RECOG_TARGET	n/a	LTP080	ltpFR	0	4	1	LOBSTER	837	2	1	n/a	n/a	n/a	n/a	n/a
3646335	RECOG_RESP	n/a	LTP080	ltpFR	0	4	1	LOBSTER	837	n/a	1	n/a	n/a	n/a	n/a	n/a
3647492	RECOG_CONF	n/a	LTP080	ltpFR	0	4	1	LOBSTER	837	2	1	n/a	n/a	n/a	n/a	n/a
3648915	RECOG_TARGET	n/a	LTP080	ltpFR	0	4	0	MOTH	920	2	0	n/a	n/a	n/a	n/a	n/a
3650088	RECOG_RESP	n/a	LTP080	ltpFR	0	4	0	MOTH	920	n/a	0	n/a	n/a	n/a	n/a	n/a
3651060	RECOG_CONF	n/a	LTP080	ltpFR	0	4	0	MOTH	920	2	0	n/a	n/a	n/a	n/a	n/a
3652574	RECOG_TARGET	n/a	LTP080	ltpFR	0	4	-1	IDOL	733	3	-1	n/a	n/a	n/a	n/a	n/a
3653723	RECOG_RESP	n/a	LTP080	ltpFR	0	4	-1	IDOL	733	n/a	-1	n/a	n/a	n/a	n/a	n/a
3654680	RECOG_CONF	n/a	LTP080	ltpFR	0	4	-1	IDOL	733	3	-1	n/a	n/a	n/a	n/a	n/a
3656139	RECOG_TARGET	n/a	LTP080	ltpFR	0	4	1	STOMACH	1384	5	0	n/a	n/a	n/a	n/a	n/a
3656904	RECOG_RESP	n/a	LTP080	ltpFR	0	4	1	STOMACH	1384	n/a	0	n/a	n/a	n/a	n/a	n/a
3657992	RECOG_CONF	n/a	LTP080	ltpFR	0	4	1	STOMACH	1384	5	0	n/a	n/a	n/a	n/a	n/a
3659332	RECOG_TARGET	n/a	LTP080	ltpFR	0	4	0	MARGARINE	868	5	0	n/a	n/a	n/a	n/a	n/a
3660104	RECOG_RESP	n/a	LTP080	ltpFR	0	4	0	MARGARINE	868	n/a	0	n/a	n/a	n/a	n/a	n/a
3661070	RECOG_CONF	n/a	LTP080	ltpFR	0	4	0	MARGARINE	868	5	0	n/a	n/a	n/a	n/a	n/a
3662448	RECOG_TARGET	n/a	LTP080	ltpFR	0	4	0	BATHROOM	99	2	1	n/a	n/a	n/a	n/a	n/a
3663408	RECOG_RESP	n/a	LTP080	ltpFR	0	4	0	BATHROOM	99	n/a	1	n/a	n/a	n/a	n/a	n/a
3664489	RECOG_CONF	n/a	LTP080	ltpFR	0	4	0	BATHROOM	99	2	1	n/a	n/a	n/a	n/a	n/a
3665897	RECOG_LURE	n/a	LTP080	ltpFR	0	4	n/a	HEEL	700	4	n/a	n/a	n/a	n/a	n/a	n/a
3666690	RECOG_RESP	n/a	LTP080	ltpFR	0	4	n/a	HEEL	700	n/a	n/a	n/a	n/a	n/a	n/a	n/a
3667754	RECOG_CONF	n/a	LTP080	ltpFR	0	4	n/a	HEEL	700	4	n/a	n/a	n/a	n/a	n/a	n/a
3669097	RECOG_TARGET	n/a	LTP080	ltpFR	0	4	1	CHIPMUNK	304	1	1	n/a	n/a	n/a	n/a	n/a
3671304	RECOG_RESP	n/a	LTP080	ltpFR	0	4	1	CHIPMUNK	304	n/a	1	n/a	n/a	n/a	n/a	n/a
3672838	RECOG_CONF	n/a	LTP080	ltpFR	0	4	1	CHIPMUNK	304	1	1	n/a	n/a	n/a	n/a	n/a
3674306	RECOG_LURE	n/a	LTP080	ltpFR	0	4	n/a	DOLLAR	482	2	n/a	n/a	n/a	n/a	n/a	n/a
3675488	RECOG_RESP	n/a	LTP080	ltpFR	0	4	n/a	DOLLAR	482	n/a	n/a	n/a	n/a	n/a	n/a	n/a
3676527	RECOG_CONF	n/a	LTP080	ltpFR	0	4	n/a	DOLLAR	482	2	n/a	n/a	n/a	n/a	n/a	n/a
3677971	RECOG_TARGET	n/a	LTP080	ltpFR	0	4	1	PLIERS	1089	5	0	n/a	n/a	n/a	n/a	n/a
3678767	RECOG_RESP	n/a	LTP080	ltpFR	0	4	1	PLIERS	1089	n/a	0	n/a	n/a	n/a	n/a	n/a
3679762	RECOG_CONF	n/a	LTP080	ltpFR	0	4	1	PLIERS	1089	5	0	n/a	n/a	n/a	n/a	n/a
3681129	RECOG_LURE	n/a	LTP080	ltpFR	0	4	n/a	VACUUM	1543	2	n/a	n/a	n/a	n/a	n/a	n/a
3683247	RECOG_RESP	n/a	LTP080	ltpFR	0	4	n/a	VACUUM	1543	n/a	n/a	n/a	n/a	n/a	n/a	n/a
3684673	RECOG_CONF	n/a	LTP080	ltpFR	0	4	n/a	VACUUM	1543	2	n/a	n/a	n/a	n/a	n/a	n/a
3686045	RECOG_TARGET	n/a	LTP080	ltpFR	0	4	0	RESTAURANT	1187	3	1	n/a	n/a	n/a	n/a	n/a
3687117	RECOG_RESP	n/a	LTP080	ltpFR	0	4	0	RESTAURANT	1187	n/a	1	n/a	n/a	n/a	n/a	n/a
3688143	RECOG_CONF	n/a	LTP080	ltpFR	0	4	0	RESTAURANT	1187	3	1	n/a	n/a	n/a	n/a	n/a
3689488	RECOG_TARGET	n/a	LTP080	ltpFR	0	4	1	FELLOW	558	5	0	n/a	n/a	n/a	n/a	n/a
3690792	RECOG_RESP	n/a	LTP080	ltpFR	0	4	1	FELLOW	558	n/a	0	n/a	n/a	n/a	n/a	n/a
3691807	RECOG_CONF	n/a	LTP080	ltpFR	0	4	1	FELLOW	558	5	0	n/a	n/a	n/a	n/a	n/a
3696716	REC_START	n/a	LTP080	ltpFR	0	5	n/a	n/a	n/a	n/a	n/a	n/a	n/a	n/a	n/a	n/a
3696745	RECOG_TARGET	n/a	LTP080	ltpFR	0	5	1	PIER	1063	5	0	n/a	n/a	n/a	n/a	n/a
3697860	RECOG_RESP	n/a	LTP080	ltpFR	0	5	1	PIER	1063	n/a	0	n/a	n/a	n/a	n/a	n/a
3698836	RECOG_CONF	n/a	LTP080	ltpFR	0	5	1	PIER	1063	5	0	n/a	n/a	n/a	n/a	n/a
3700345	RECOG_TARGET	n/a	LTP080	ltpFR	0	5	1	WEED	1599	5	1	n/a	n/a	n/a	n/a	n/a
3701308	RECOG_RESP	n/a	LTP080	ltpFR	0	5	1	WEED	1599	n/a	1	n/a	n/a	n/a	n/a	n/a
3702278	RECOG_CONF	n/a	LTP080	ltpFR	0	5	1	WEED	1599	5	1	n/a	n/a	n/a	n/a	n/a
3703777	RECOG_LURE	n/a	LTP080	ltpFR	0	5	n/a	MINT	898	2	n/a	n/a	n/a	n/a	n/a	n/a
3705128	RECOG_RESP	n/a	LTP080	ltpFR	0	5	n/a	MINT	898	n/a	n/a	n/a	n/a	n/a	n/a	n/a
3706142	RECOG_CONF	n/a	LTP080	ltpFR	0	5	n/a	MINT	898	2	n/a	n/a	n/a	n/a	n/a	n/a
3707503	RECOG_TARGET	n/a	LTP080	ltpFR	0	5	0	CHAIRPERSON	275	5	1	n/a	n/a	n/a	n/a	n/a
3708446	RECOG_RESP	n/a	LTP080	ltpFR	0	5	0	CHAIRPERSON	275	n/a	1	n/a	n/a	n/a	n/a	n/a
3709460	RECOG_CONF	n/a	LTP080	ltpFR	0	5	0	CHAIRPERSON	275	5	1	n/a	n/a	n/a	n/a	n/a
3710902	RECOG_TARGET	n/a	LTP080	ltpFR	0	5	0	LION	827	5	1	n/a	n/a	n/a	n/a	n/a
3711625	RECOG_RESP	n/a	LTP080	ltpFR	0	5	0	LION	827	n/a	1	n/a	n/a	n/a	n/a	n/a
3712665	RECOG_CONF	n/a	LTP080	ltpFR	0	5	0	LION	827	5	1	n/a	n/a	n/a	n/a	n/a
3714127	RECOG_TARGET	n/a	LTP080	ltpFR	0	5	-1	CARPENTER	246	5	-1	n/a	n/a	n/a	n/a	n/a
3714888	RECOG_RESP	n/a	LTP080	ltpFR	0	5	-1	CARPENTER	246	n/a	-1	n/a	n/a	n/a	n/a	n/a
3715897	RECOG_CONF	n/a	LTP080	ltpFR	0	5	-1	CARPENTER	246	5	-1	n/a	n/a	n/a	n/a	n/a
3717394	RECOG_TARGET	n/a	LTP080	ltpFR	0	5	1	COLLEGE	346	5	0	n/a	n/a	n/a	n/a	n/a
3718124	RECOG_RESP	n/a	LTP080	ltpFR	0	5	1	COLLEGE	346	n/a	0	n/a	n/a	n/a	n/a	n/a
3719180	RECOG_CONF	n/a	LTP080	ltpFR	0	5	1	COLLEGE	346	5	0	n/a	n/a	n/a	n/a	n/a
3720701	RECOG_TARGET	n/a	LTP080	ltpFR	0	5	1	CELERY	266	2	1	n/a	n/a	n/a	n/a	n/a
3721912	RECOG_RESP	n/a	LTP080	ltpFR	0	5	1	CELERY	266	n/a	1	n/a	n/a	n/a	n/a	n/a
3723093	RECOG_CONF	n/a	LTP080	ltpFR	0	5	1	CELERY	266	2	1	n/a	n/a	n/a	n/a	n/a
3724485	RECOG_LURE	n/a	LTP080	ltpFR	0	5	n/a	CARROT	249	2	n/a	n/a	n/a	n/a	n/a	n/a
3725592	RECOG_RESP	n/a	LTP080	ltpFR	0	5	n/a	CARROT	249	n/a	n/a	n/a	n/a	n/a	n/a	n/a
3726549	RECOG_CONF	n/a	LTP080	ltpFR	0	5	n/a	CARROT	249	2	n/a	n/a	n/a	n/a	n/a	n/a
3727984	RECOG_TARGET	n/a	LTP080	ltpFR	0	5	-1	BUS	201	5	-1	n/a	n/a	n/a	n/a	n/a
3728667	RECOG_RESP	n/a	LTP080	ltpFR	0	5	-1	BUS	201	n/a	-1	n/a	n/a	n/a	n/a	n/a
3729666	RECOG_CONF	n/a	LTP080	ltpFR	0	5	-1	BUS	201	5	-1	n/a	n/a	n/a	n/a	n/a
3730925	RECOG_TARGET	n/a	LTP080	ltpFR	0	5	1	UTENSIL	1542	5	0	n/a	n/a	n/a	n/a	n/a
3731627	RECOG_RESP	n/a	LTP080	ltpFR	0	5	1	UTENSIL	1542	n/a	0	n/a	n/a	n/a	n/a	n/a
3732629	RECOG_CONF	n/a	LTP080	ltpFR	0	5	1	UTENSIL	1542	5	0	n/a	n/a	n/a	n/a	n/a
3733933	RECOG_TARGET	n/a	LTP080	ltpFR	0	5	1	THICKET	1455	5	1	n/a	n/a	n/a	n/a	n/a
3734710	RECOG_RESP	n/a	LTP080	ltpFR	0	5	1	THICKET	1455	n/a	1	n/a	n/a	n/a	n/a	n/a
3735609	RECOG_CONF	n/a	LTP080	ltpFR	0	5	1	THICKET	1455	5	1	n/a	n/a	n/a	n/a	n/a
3737125	RECOG_TARGET	n/a	LTP080	ltpFR	0	5	1	CONVENT	370	5	0	n/a	n/a	n/a	n/a	n/a
3737945	RECOG_RESP	n/a	LTP080	ltpFR	0	5	1	CONVENT	370	n/a	0	n/a	n/a	n/a	n/a	n/a
3738812	RECOG_CONF	n/a	LTP080	ltpFR	0	5	1	CONVENT	370	5	0	n/a	n/a	n/a	n/a	n/a
3740342	RECOG_TARGET	n/a	LTP080	ltpFR	0	5	-1	OUTDOORS	987	5	-1	n/a	n/a	n/a	n/a	n/a
3741609	RECOG_RESP	n/a	LTP080	ltpFR	0	5	-1	OUTDOORS	987	n/a	-1	n/a	n/a	n/a	n/a	n/a
3742574	RECOG_CONF	n/a	LTP080	ltpFR	0	5	-1	OUTDOORS	987	5	-1	n/a	n/a	n/a	n/a	n/a
3744024	RECOG_TARGET	n/a	LTP080	ltpFR	0	5	-1	DENTIST	447	5	-1	n/a	n/a	n/a	n/a	n/a
3744732	RECOG_RESP	n/a	LTP080	ltpFR	0	5	-1	DENTIST	447	n/a	-1	n/a	n/a	n/a	n/a	n/a
3745711	RECOG_CONF	n/a	LTP080	ltpFR	0	5	-1	DENTIST	447	5	-1	n/a	n/a	n/a	n/a	n/a
3747132	RECOG_TARGET	n/a	LTP080	ltpFR	0	5	-1	BAY	102	5	-1	n/a	n/a	n/a	n/a	n/a
3747757	RECOG_RESP	n/a	LTP080	ltpFR	0	5	-1	BAY	102	n/a	-1	n/a	n/a	n/a	n/a	n/a
3748733	RECOG_CONF	n/a	LTP080	ltpFR	0	5	-1	BAY	102	5	-1	n/a	n/a	n/a	n/a	n/a
3750267	RECOG_TARGET	n/a	LTP080	ltpFR	0	5	0	TREAT	1501	4	0	n/a	n/a	n/a	n/a	n/a
3751020	RECOG_RESP	n/a	LTP080	ltpFR	0	5	0	TREAT	1501	n/a	0	n/a	n/a	n/a	n/a	n/a
3752065	RECOG_CONF	n/a	LTP080	ltpFR	0	5	0	TREAT	1501	4	0	n/a	n/a	n/a	n/a	n/a
3753333	RECOG_TARGET	n/a	LTP080	ltpFR	0	5	-1	OREGANO	983	3	-1	n/a	n/a	n/a	n/a	n/a
3754070	RECOG_RESP	n/a	LTP080	ltpFR	0	5	-1	OREGANO	983	n/a	-1	n/a	n/a	n/a	n/a	n/a
3755457	RECOG_CONF	n/a	LTP080	ltpFR	0	5	-1	OREGANO	983	3	-1	n/a	n/a	n/a	n/a	n/a
3756873	RECOG_TARGET	n/a	LTP080	ltpFR	0	5	1	CHURCH	307	5	0	n/a	n/a	n/a	n/a	n/a
3757521	RECOG_RESP	n/a	LTP080	ltpFR	0	5	1	CHURCH	307	n/a	0	n/a	n/a	n/a	n/a	n/a
3758505	RECOG_CONF	n/a	LTP080	ltpFR	0	5	1	CHURCH	307	5	0	n/a	n/a	n/a	n/a	n/a
3759957	RECOG_TARGET	n/a	LTP080	ltpFR	0	5	0	TEAM	1441	5	1	n/a	n/a	n/a	n/a	n/a
3760654	RECOG_RESP	n/a	LTP080	ltpFR	0	5	0	TEAM	1441	n/a	1	n/a	n/a	n/a	n/a	n/a
3761616	RECOG_CONF	n/a	LTP080	ltpFR	0	5	0	TEAM	1441	5	1	n/a	n/a	n/a	n/a	n/a
3765410	REC_START	n/a	LTP080	ltpFR	0	6	n/a	n/a	n/a	n/a	n/a	n/a	n/a	n/a	n/a	n/a
3765440	RECOG_TARGET	n/a	LTP080	ltpFR	0	6	0	SEAL	1262	5	1	n/a	n/a	n/a	n/a	n/a
3766253	RECOG_RESP	n/a	LTP080	ltpFR	0	6	0	SEAL	1262	n/a	1	n/a	n/a	n/a	n/a	n/a
3767241	RECOG_CONF	n/a	LTP080	ltpFR	0	6	0	SEAL	1262	5	1	n/a	n/a	n/a	n/a	n/a
3768540	RECOG_TARGET	n/a	LTP080	ltpFR	0	6	1	ELM	527	3	1	n/a	n/a	n/a	n/a	n/a
3769309	RECOG_RESP	n/a	LTP080	ltpFR	0	6	1	ELM	527	n/a	1	n/a	n/a	n/a	n/a	n/a
3770314	RECOG_CONF	n/a	LTP080	ltpFR	0	6	1	ELM	527	3	1	n/a	n/a	n/a	n/a	n/a
3771672	RECOG_TARGET	n/a	LTP080	ltpFR	0	6	0	PUDDLE	1140	5	1	n/a	n/a	n/a	n/a	n/a
3772503	RECOG_RESP	n/a	LTP080	ltpFR	0	6	0	PUDDLE	1140	n/a	1	n/a	n/a	n/a	n/a	n/a
3773496	RECOG_CONF	n/a	LTP080	ltpFR	0	6	0	PUDDLE	1140	5	1	n/a	n/a	n/a	n/a	n/a
3774889	RECOG_TARGET	n/a	LTP080	ltpFR	0	6	-1	CANYON	235	5	-1	n/a	n/a	n/a	n/a	n/a
3775505	RECOG_RESP	n/a	LTP080	ltpFR	0	6	-1	CANYON	235	n/a	-1	n/a	n/a	n/a	n/a	n/a
3776530	RECOG_CONF	n/a	LTP080	ltpFR	0	6	-1	CANYON	235	5	-1	n/a	n/a	n/a	n/a	n/a
3777922	RECOG_TARGET	n/a	LTP080	ltpFR	0	6	-1	CREATURE	403	5	-1	n/a	n/a	n/a	n/a	n/a
3778657	RECOG_RESP	n/a	LTP080	ltpFR	0	6	-1	CREATURE	403	n/a	-1	n/a	n/a	n/a	n/a	n/a
3779632	RECOG_CONF	n/a	LTP080	ltpFR	0	6	-1	CREATURE	403	5	-1	n/a	n/a	n/a	n/a	n/a
3781072	RECOG_TARGET	n/a	LTP080	ltpFR	0	6	1	MONASTERY	907	5	0	n/a	n/a	n/a	n/a	n/a
3781891	RECOG_RESP	n/a	LTP080	ltpFR	0	6	1	MONASTERY	907	n/a	0	n/a	n/a	n/a	n/a	n/a
3782953	RECOG_CONF	n/a	LTP080	ltpFR	0	6	1	MONASTERY	907	5	0	n/a	n/a	n/a	n/a	n/a
3784431	RECOG_TARGET	n/a	LTP080	ltpFR	0	6	1	DOCUMENT	479	5	0	n/a	n/a	n/a	n/a	n/a
3785287	RECOG_RESP	n/a	LTP080	ltpFR	0	6	1	DOCUMENT	479	n/a	0	n/a	n/a	n/a	n/a	n/a
3786237	RECOG_CONF	n/a	LTP080	ltpFR	0	6	1	DOCUMENT	479	5	0	n/a	n/a	n/a	n/a	n/a
3787514	RECOG_TARGET	n/a	LTP080	ltpFR	0	6	1	FOREST	593	5	0	n/a	n/a	n/a	n/a	n/a
3788114	RECOG_RESP	n/a	LTP080	ltpFR	0	6	1	FOREST	593	n/a	0	n/a	n/a	n/a	n/a	n/a
3789101	RECOG_CONF	n/a	LTP080	ltpFR	0	6	1	FOREST	593	5	0	n/a	n/a	n/a	n/a	n/a
3790322	RECOG_TARGET	n/a	LTP080	ltpFR	0	6	0	APPLE	33	5	0	n/a	n/a	n/a	n/a	n/a
3791058	RECOG_RESP	n/a	LTP080	ltpFR	0	6	0	APPLE	33	n/a	0	n/a	n/a	n/a	n/a	n/a
3792024	RECOG_CONF	n/a	LTP080	ltpFR	0	6	0	APPLE	33	5	0	n/a	n/a	n/a	n/a	n/a
3793363	RECOG_TARGET	n/a	LTP080	ltpFR	0	6	0	SHOULDER	1294	5	1	n/a	n/a	n/a	n/a	n/a
3793987	RECOG_RESP	n/a	LTP080	ltpFR	0	6	0	SHOULDER	1294	n/a	1	n/a	n/a	n/a	n/a	n/a
3794933	RECOG_CONF	n/a	LTP080	ltpFR	0	6	0	SHOULDER	1294	5	1	n/a	n/a	n/a	n/a	n/a
3796271	RECOG_TARGET	n/a	LTP080	ltpFR	0	6	0	SWING	1421	4	1	n/a	n/a	n/a	n/a	n/a
3797143	RECOG_RESP	n/a	LTP080	ltpFR	0	6	0	SWING	1421	n/a	1	n/a	n/a	n/a	n/a	n/a
3798200	RECOG_CONF	n/a	LTP080	ltpFR	0	6	0	SWING	1421	4	1	n/a	n/a	n/a	n/a	n/a
3799505	RECOG_TARGET	n/a	LTP080	ltpFR	0	6	-1	SPICE	1350	3	-1	n/a	n/a	n/a	n/a	n/a
3800487	RECOG_RESP	n/a	LTP080	ltpFR	0	6	-1	SPICE	1350	n/a	-1	n/a	n/a	n/a	n/a	n/a
3801513	RECOG_CONF	n/a	LTP080	ltpFR	0	6	-1	SPICE	1350	3	-1	n/a	n/a	n/a	n/a	n/a
3802762	RECOG_TARGET	n/a	LTP080	ltpFR	0	6	1	STAPLE	1371	4	0	n/a	n/a	n/a	n/a	n/a
3803551	RECOG_RESP	n/a	LTP080	ltpFR	0	6	1	STAPLE	1371	n/a	0	n/a	n/a	n/a	n/a	n/a
3804566	RECOG_CONF	n/a	LTP080	ltpFR	0	6	1	STAPLE	1371	4	0	n/a	n/a	n/a	n/a	n/a
3805870	RECOG_TARGET	n/a	LTP080	ltpFR	0	6	1	FARMER	553	5	1	n/a	n/a	n/a	n/a	n/a
3806505	RECOG_RESP	n/a	LTP080	ltpFR	0	6	1	FARMER	553	n/a	1	n/a	n/a	n/a	n/a	n/a
3807499	RECOG_CONF	n/a	LTP080	ltpFR	0	6	1	FARMER	553	5	1	n/a	n/a	n/a	n/a	n/a
3808803	RECOG_TARGET	n/a	LTP080	ltpFR	0	6	-1	TWEEZERS	1526	2	-1	n/a	n/a	n/a	n/a	n/a
3809841	RECOG_RESP	n/a	LTP080	ltpFR	0	6	-1	TWEEZERS	1526	n/a	-1	n/a	n/a	n/a	n/a	n/a
3810780	RECOG_CONF	n/a	LTP080	ltpFR	0	6	-1	TWEEZERS	1526	2	-1	n/a	n/a	n/a	n/a	n/a
3812220	RECOG_LURE	n/a	LTP080	ltpFR	0	6	n/a	CORK	380	3	n/a	n/a	n/a	n/a	n/a	n/a
3813026	RECOG_RESP	n/a	LTP080	ltpFR	0	6	n/a	CORK	380	n/a	n/a	n/a	n/a	n/a	n/a	n/a
3813944	RECOG_CONF	n/a	LTP080	ltpFR	0	6	n/a	CORK	380	3	n/a	n/a	n/a	n/a	n/a	n/a
3815262	RECOG_TARGET	n/a	LTP080	ltpFR	0	6	0	MUFFIN	929	5	0	n/a	n/a	n/a	n/a	n/a
3816463	RECOG_RESP	n/a	LTP080	ltpFR	0	6	0	MUFFIN	929	n/a	0	n/a	n/a	n/a	n/a	n/a
3817506	RECOG_CONF	n/a	LTP080	ltpFR	0	6	0	MUFFIN	929	5	0	n/a	n/a	n/a	n/a	n/a
3818894	RECOG_LURE	n/a	LTP080	ltpFR	0	6	n/a	TRUCK	1512	2	n/a	n/a	n/a	n/a	n/a	n/a
3820069	RECOG_RESP	n/a	LTP080	ltpFR	0	6	n/a	TRUCK	1512	n/a	n/a	n/a	n/a	n/a	n/a	n/a
3820989	RECOG_CONF	n/a	LTP080	ltpFR	0	6	n/a	TRUCK	1512	2	n/a	n/a	n/a	n/a	n/a	n/a
3822320	RECOG_TARGET	n/a	LTP080	ltpFR	0	6	0	SHELF	1280	5	1	n/a	n/a	n/a	n/a	n/a
3823188	RECOG_RESP	n/a	LTP080	ltpFR	0	6	0	SHELF	1280	n/a	1	n/a	n/a	n/a	n/a	n/a
3824271	RECOG_CONF	n/a	LTP080	ltpFR	0	6	0	SHELF	1280	5	1	n/a	n/a	n/a	n/a	n/a
3825677	RECOG_LURE	n/a	LTP080	ltpFR	0	6	n/a	GUARDIAN	668	4	n/a	n/a	n/a	n/a	n/a	n/a
3826703	RECOG_RESP	n/a	LTP080	ltpFR	0	6	n/a	GUARDIAN	668	n/a	n/a	n/a	n/a	n/a	n/a	n/a
3827811	RECOG_CONF	n/a	LTP080	ltpFR	0	6	n/a	GUARDIAN	668	4	n/a	n/a	n/a	n/a	n/a	n/a
3832832	REC_START	n/a	LTP080	ltpFR	0	7	n/a	n/a	n/a	n/a	n/a	n/a	n/a	n/a	n/a	n/a
3832868	RECOG_TARGET	n/a	LTP080	ltpFR	0	7	1	SWEATER	1419	5	0	n/a	n/a	n/a	n/a	n/a
3833616	RECOG_RESP	n/a	LTP080	ltpFR	0	7	1	SWEATER	1419	n/a	0	n/a	n/a	n/a	n/a	n/a
3834529	RECOG_CONF	n/a	LTP080	ltpFR	0	7	1	SWEATER	1419	5	0	n/a	n/a	n/a	n/a	n/a
3835884	RECOG_TARGET	n/a	LTP080	ltpFR	0	7	1	ROSE	1212	5	1	n/a	n/a	n/a	n/a	n/a
3836484	RECOG_RESP	n/a	LTP080	ltpFR	0	7	1	ROSE	1212	n/a	1	n/a	n/a	n/a	n/a	n/a
3837426	RECOG_CONF	n/a	LTP080	ltpFR	0	7	1	ROSE	1212	5	1	n/a	n/a	n/a	n/a	n/a
3838709	RECOG_TARGET	n/a	LTP080	ltpFR	0	7	-1	REEF	1177	5	-1	n/a	n/a	n/a	n/a	n/a
3839315	RECOG_RESP	n/a	LTP080	ltpFR	0	7	-1	REEF	1177	n/a	-1	n/a	n/a	n/a	n/a	n/a
3840224	RECOG_CONF	n/a	LTP080	ltpFR	0	7	-1	REEF	1177	5	-1	n/a	n/a	n/a	n/a	n/a
3841675	RECOG_TARGET	n/a	LTP080	ltpFR	0	7	0	DRESSER	496	5	1	n/a	n/a	n/a	n/a	n/a
3842264	RECOG_RESP	n/a	LTP080	ltpFR	0	7	0	DRESSER	496	n/a	1	n/a	n/a	n/a	n/a	n/a
3843303	RECOG_CONF	n/a	LTP080	ltpFR	0	7	0	DRESSER	496	5	1	n/a	n/a	n/a	n/a	n/a
3844767	RECOG_LURE	n/a	LTP080	ltpFR	0	7	n/a	ALBUM	14	2	n/a	n/a	n/a	n/a	n/a	n/a
3845765	RECOG_RESP	n/a	LTP080	ltpFR	0	7	n/a	ALBUM	14	n/a	n/a	n/a	n/a	n/a	n/a	n/a
3846657	RECOG_CONF	n/a	LTP080	ltpFR	0	7	n/a	ALBUM	14	2	n/a	n/a	n/a	n/a	n/a	n/a
3848033	RECOG_TARGET	n/a	LTP080	ltpFR	0	7	1	DRILL	497	2	0	n/a	n/a	n/a	n/a	n/a
3848948	RECOG_RESP	n/a	LTP080	ltpFR	0	7	1	DRILL	497	n/a	0	n/a	n/a	n/a	n/a	n/a
3849831	RECOG_CONF	n/a	LTP080	ltpFR	0	7	1	DRILL	497	2	0	n/a	n/a	n/a	n/a	n/a
3851158	RECOG_TARGET	n/a	LTP080	ltpFR	0	7	0	COUCH	386	5	1	n/a	n/a	n/a	n/a	n/a
3851936	RECOG_RESP	n/a	LTP080	ltpFR	0	7	0	COUCH	386	n/a	1	n/a	n/a	n/a	n/a	n/a
3852881	RECOG_CONF	n/a	LTP080	ltpFR	0	7	0	COUCH	386	5	1	n/a	n/a	n/a	n/a	n/a
3854091	RECOG_TARGET	n/a	LTP080	ltpFR	0	7	1	BUTCHER	203	2	1	n/a	n/a	n/a	n/a	n/a
3854943	RECOG_RESP	n/a	LTP080	ltpFR	0	7	1	BUTCHER	203	n/a	1	n/a	n/a	n/a	n/a	n/a
3855845	RECOG_CONF	n/a	LTP080	ltpFR	0	7	1	BUTCHER	203	2	1	n/a	n/a	n/a	n/a	n/a
3857267	RECOG_TARGET	n/a	LTP080	ltpFR	0	7	0	MATTRESS	879	5	1	n/a	n/a	n/a	n/a	n/a
3858043	RECOG_RESP	n/a	LTP080	ltpFR	0	7	0	MATTRESS	879	n/a	1	n/a	n/a	n/a	n/a	n/a
3858959	RECOG_CONF	n/a	LTP080	ltpFR	0	7	0	MATTRESS	879	5	1	n/a	n/a	n/a	n/a	n/a
3860317	RECOG_TARGET	n/a	LTP080	ltpFR	0	7	-1	POLITICIAN	1099	5	-1	n/a	n/a	n/a	n/a	n/a
3861000	RECOG_RESP	n/a	LTP080	ltpFR	0	7	-1	POLITICIAN	1099	n/a	-1	n/a	n/a	n/a	n/a	n/a
3861961	RECOG_CONF	n/a	LTP080	ltpFR	0	7	-1	POLITICIAN	1099	5	-1	n/a	n/a	n/a	n/a	n/a
3863215	RECOG_TARGET	n/a	LTP080	ltpFR	0	7	0	BEE	112	5	0	n/a	n/a	n/a	n/a	n/a
3864012	RECOG_RESP	n/a	LTP080	ltpFR	0	7	0	BEE	112	n/a	0	n/a	n/a	n/a	n/a	n/a
3864994	RECOG_CONF	n/a	LTP080	ltpFR	0	7	0	BEE	112	5	0	n/a	n/a	n/a	n/a	n/a
3866225	RECOG_TARGET	n/a	LTP080	ltpFR	0	7	0	FOUNTAIN	597	5	1	n/a	n/a	n/a	n/a	n/a
3866835	RECOG_RESP	n/a	LTP080	ltpFR	0	7	0	FOUNTAIN	597	n/a	1	n/a	n/a	n/a	n/a	n/a
3867867	RECOG_CONF	n/a	LTP080	ltpFR	0	7	0	FOUNTAIN	597	5	1	n/a	n/a	n/a	n/a	n/a
3869132	RECOG_TARGET	n/a	LTP080	ltpFR	0	7	0	SKIN	1318	5	1	n/a	n/a	n/a	n/a	n/a
3869928	RECOG_RESP	n/a	LTP080	ltpFR	0	7	0	SKIN	1318	n/a	1	n/a	n/a	n/a	n/a	n/a
3870877	RECOG_CONF	n/a	LTP080	ltpFR	0	7	0	SKIN	1318	5	1	n/a	n/a	n/a	n/a	n/a
3872249	RECOG_LURE	n/a	LTP080	ltpFR	0	7	n/a	ADULT	8	4	n/a	n/a	n/a	n/a	n/a	n/a
3873067	RECOG_RESP	n/a	LTP080	ltpFR	0	7	n/a	ADULT	8	n/a	n/a	n/a	n/a	n/a	n/a	n/a
3874153	RECOG_CONF	n/a	LTP080	ltpFR	0	7	n/a	ADULT	8	4	n/a	n/a	n/a	n/a	n/a	n/a
3875457	RECOG_TARGET	n/a	LTP080	ltpFR	0	7	0	STORE	1387	5	1	n/a	n/a	n/a	n/a	n/a
3876470	RECOG_RESP	n/a	LTP080	ltpFR	0	7	0	STORE	1387	n/a	1	n/a	n/a	n/a	n/a	n/a
3877435	RECOG_CONF	n/a	LTP080	ltpFR	0	7	0	STORE	1387	5	1	n/a	n/a	n/a	n/a	n/a
3878798	RECOG_TARGET	n/a	LTP080	ltpFR	0	7	1	VILLAIN	1567	5	1	n/a	n/a	n/a	n/a	n/a
3879466	RECOG_RESP	n/a	LTP080	ltpFR	0	7	1	VILLAIN	1567	n/a	1	n/a	n/a	n/a	n/a	n/a
3880341	RECOG_CONF	n/a	LTP080	ltpFR	0	7	1	VILLAIN	1567	5	1	n/a	n/a	n/a	n/a	n/a
3881639	RECOG_TARGET	n/a	LTP080	ltpFR	0	7	0	SOAP	1337	5	0	n/a	n/a	n/a	n/a	n/a
3882311	RECOG_RESP	n/a	LTP080	ltpFR	0	7	0	SOAP	1337	n/a	0	n/a	n/a	n/a	n/a	n/a
3883186	RECOG_CONF	n/a	LTP080	ltpFR	0	7	0	SOAP	1337	5	0	n/a	n/a	n/a	n/a	n/a
3884598	RECOG_TARGET	n/a	LTP080	ltpFR	0	7	0	CAPTIVE	240	4	1	n/a	n/a	n/a	n/a	n/a
3885241	RECOG_RESP	n/a	LTP080	ltpFR	0	7	0	CAPTIVE	240	n/a	1	n/a	n/a	n/a	n/a	n/a
3886305	RECOG_CONF	n/a	LTP080	ltpFR	0	7	0	CAPTIVE	240	4	1	n/a	n/a	n/a	n/a	n/a
3887647	RECOG_TARGET	n/a	LTP080	ltpFR	0	7	1	RIVER	1194	5	0	n/a	n/a	n/a	n/a	n/a
3888194	RECOG_RESP	n/a	LTP080	ltpFR	0	7	1	RIVER	1194	n/a	0	n/a	n/a	n/a	n/a	n/a
3889041	RECOG_CONF	n/a	LTP080	ltpFR	0	7	1	RIVER	1194	5	0	n/a	n/a	n/a	n/a	n/a
3890539	RECOG_TARGET	n/a	LTP080	ltpFR	0	7	1	ROPE	1211	5	0	n/a	n/a	n/a	n/a	n/a
3891092	RECOG_RESP	n/a	LTP080	ltpFR	0	7	1	ROPE	1211	n/a	0	n/a	n/a	n/a	n/a	n/a
3891996	RECOG_CONF	n/a	LTP080	ltpFR	0	7	1	ROPE	1211	5	0	n/a	n/a	n/a	n/a	n/a
3895712	REC_START	n/a	LTP080	ltpFR	0	8	n/a	n/a	n/a	n/a	n/a	n/a	n/a	n/a	n/a	n/a
3895746	RECOG_TARGET	n/a	LTP080	ltpFR	0	8	0	LEOPARD	812	4	1	n/a	n/a	n/a	n/a	n/a
3896707	RECOG_RESP	n/a	LTP080	ltpFR	0	8	0	LEOPARD	812	n/a	1	n/a	n/a	n/a	n/a	n/a
3898007	RECOG_CONF	n/a	LTP080	ltpFR	0	8	0	LEOPARD	812	4	1	n/a	n/a	n/a	n/a	n/a
3899472	RECOG_TARGET	n/a	LTP080	ltpFR	0	8	-1	REPORT	1184	4	-1	n/a	n/a	n/a	n/a	n/a
3901002	RECOG_RESP	n/a	LTP080	ltpFR	0	8	-1	REPORT	1184	n/a	-1	n/a	n/a	n/a	n/a	n/a
3902089	RECOG_CONF	n/a	LTP080	ltpFR	0	8	-1	REPORT	1184	4	-1	n/a	n/a	n/a	n/a	n/a
3903397	RECOG_TARGET	n/a	LTP080	ltpFR	0	8	1	MARROW	872	5	0	n/a	n/a	n/a	n/a	n/a
3904289	RECOG_RESP	n/a	LTP080	ltpFR	0	8	1	MARROW	872	n/a	0	n/a	n/a	n/a	n/a	n/a
3905264	RECOG_CONF	n/a	LTP080	ltpFR	0	8	1	MARROW	872	5	0	n/a	n/a	n/a	n/a	n/a
3906646	RECOG_LURE	n/a	LTP080	ltpFR	0	8	n/a	TORNADO	1485	3	n/a	n/a	n/a	n/a	n/a	n/a
3908147	RECOG_RESP	n/a	LTP080	ltpFR	0	8	n/a	TORNADO	1485	n/a	n/a	n/a	n/a	n/a	n/a	n/a
3909099	RECOG_CONF	n/a	LTP080	ltpFR	0	8	n/a	TORNADO	1485	3	n/a	n/a	n/a	n/a	n/a	n/a
3910555	RECOG_TARGET	n/a	LTP080	ltpFR	0	8	1	CYLINDER	432	5	0	n/a	n/a	n/a	n/a	n/a
3911255	RECOG_RESP	n/a	LTP080	ltpFR	0	8	1	CYLINDER	432	n/a	0	n/a	n/a	n/a	n/a	n/a
3912239	RECOG_CONF	n/a	LTP080	ltpFR	0	8	1	CYLINDER	432	5	0	n/a	n/a	n/a	n/a	n/a
3913513	RECOG_TARGET	n/a	LTP080	ltpFR	0	8	0	PRESIDENT	1121	5	1	n/a	n/a	n/a	n/a	n/a
3914088	RECOG_RESP	n/a	LTP080	ltpFR	0	8	0	PRESIDENT	1121	n/a	1	n/a	n/a	n/a	n/a	n/a
3915033	RECOG_CONF	n/a	LTP080	ltpFR	0	8	0	PRESIDENT	1121	5	1	n/a	n/a	n/a	n/a	n/a
3916379	RECOG_TARGET	n/a	LTP080	ltpFR	0	8	1	SUIT	1402	5	0	n/a	n/a	n/a	n/a	n/a
3916963	RECOG_RESP	n/a	LTP080	ltpFR	0	8	1	SUIT	1402	n/a	0	n/a	n/a	n/a	n/a	n/a
3917906	RECOG_CONF	n/a	LTP080	ltpFR	0	8	1	SUIT	1402	5	0	n/a	n/a	n/a	n/a	n/a
3919195	RECOG_TARGET	n/a	LTP080	ltpFR	0	8	0	RICE	1190	5	0	n/a	n/a	n/a	n/a	n/a
3919749	RECOG_RESP	n/a	LTP080	ltpFR	0	8	0	RICE	1190	n/a	0	n/a	n/a	n/a	n/a	n/a
3920720	RECOG_CONF	n/a	LTP080	ltpFR	0	8	0	RICE	1190	5	0	n/a	n/a	n/a	n/a	n/a
3922019	RECOG_TARGET	n/a	LTP080	ltpFR	0	8	-1	SANDWICH	1232	5	-1	n/a	n/a	n/a	n/a	n/a
3923185	RECOG_RESP	n/a	LTP080	ltpFR	0	8	-1	SANDWICH	1232	n/a	-1	n/a	n/a	n/a	n/a	n/a
3924033	RECOG_CONF	n/a	LTP080	ltpFR	0	8	-1	SANDWICH	1232	5	-1	n/a	n/a	n/a	n/a	n/a
3925479	RECOG_LURE	n/a	LTP080	ltpFR	0	8	n/a	TOMBSTONE	1478	5	n/a	n/a	n/a	n/a	n/a	n/a
3926088	RECOG_RESP	n/a	LTP080	ltpFR	0	8	n/a	TOMBSTONE	1478	n/a	n/a	n/a	n/a	n/a	n/a	n/a
3927018	RECOG_CONF	n/a	LTP080	ltpFR	0	8	n/a	TOMBSTONE	1478	5	n/a	n/a	n/a	n/a	n/a	n/a
3928387	RECOG_TARGET	n/a	LTP080	ltpFR	0	8	0	HOSTAGE	722	2	1	n/a	n/a	n/a	n/a	n/a
3930465	RECOG_RESP	n/a	LTP080	ltpFR	0	8	0	HOSTAGE	722	n/a	1	n/a	n/a	n/a	n/a	n/a
3932401	RECOG_CONF	n/a	LTP080	ltpFR	0	8	0	HOSTAGE	722	2	1	n/a	n/a	n/a	n/a	n/a
3933827	RECOG_TARGET	n/a	LTP080	ltpFR	0	8	0	ACROBAT	4	3	1	n/a	n/a	n/a	n/a	n/a
3934877	RECOG_RESP	n/a	LTP080	ltpFR	0	8	0	ACROBAT	4	n/a	1	n/a	n/a	n/a	n/a	n/a
3935769	RECOG_CONF	n/a	LTP080	ltpFR	0	8	0	ACROBAT	4	3	1	n/a	n/a	n/a	n/a	n/a
3937102	RECOG_TARGET	n/a	LTP080	ltpFR	0	8	-1	TUBE	1516	5	-1	n/a	n/a	n/a	n/a	n/a
3937686	RECOG_RESP	n/a	LTP080	ltpFR	0	8	-1	TUBE	1516	n/a	-1	n/a	n/a	n/a	n/a	n/a
3938518	RECOG_CONF	n/a	LTP080	ltpFR	0	8	-1	TUBE	1516	5	-1	n/a	n/a	n/a	n/a	n/a
3939768	RECOG_TARGET	n/a	LTP080	ltpFR	0	8	1	ROBOT	1200	5	0	n/a	n/a	n/a	n/a	n/a
3940560	RECOG_RESP	n/a	LTP080	ltpFR	0	8	1	ROBOT	1200	n/a	0	n/a	n/a	n/a	n/a	n/a
3941453	RECOG_CONF	n/a	LTP080	ltpFR	0	8	1	ROBOT	1200	5	0	n/a	n/a	n/a	n/a	n/a
3942826	RECOG_TARGET	n/a	LTP080	ltpFR	0	8	1	CELLO	268	5	0	n/a	n/a	n/a	n/a	n/a
3943823	RECOG_RESP	n/a	LTP080	ltpFR	0	8	1	CELLO	268	n/a	0	n/a	n/a	n/a	n/a	n/a
3944673	RECOG_CONF	n/a	LTP080	ltpFR	0	8	1	CELLO	268	5	0	n/a	n/a	n/a	n/a	n/a
3946026	RECOG_LURE	n/a	LTP080	ltpFR	0	8	n/a	ARTICLE	42	2	n/a	n/a	n/a	n/a	n/a	n/a
3947236	RECOG_RESP	n/a	LTP080	ltpFR	0	8	n/a	ARTICLE	42	n/a	n/a	n/a	n/a	n/a	n/a	n/a
3948159	RECOG_CONF	n/a	LTP080	ltpFR	0	8	n/a	ARTICLE	42	2	n/a	n/a	n/a	n/a	n/a	n/a
3949510	RECOG_TARGET	n/a	LTP080	ltpFR	0	8	1	INSECT	740	5	1	n/a	n/a	n/a	n/a	n/a
3950152	RECOG_RESP	n/a	LTP080	ltpFR	0	8	1	INSECT	740	n/a	1	n/a	n/a	n/a	n/a	n/a
3951031	RECOG_CONF	n/a	LTP080	ltpFR	0	8	1	INSECT	740	5	1	n/a	n/a	n/a	n/a	n/a
3952385	RECOG_TARGET	n/a	LTP080	ltpFR	0	8	0	STRAWBERRY	1391	5	0	n/a	n/a	n/a	n/a	n/a
3953003	RECOG_RESP	n/a	LTP080	ltpFR	0	8	0	STRAWBERRY	1391	n/a	0	n/a	n/a	n/a	n/a	n/a
3953950	RECOG_CONF	n/a	LTP080	ltpFR	0	8	0	STRAWBERRY	1391	5	0	n/a	n/a	n/a	n/a	n/a
3955200	RECOG_TARGET	n/a	LTP080	ltpFR	0	8	0	TURTLE	1522	5	0	n/a	n/a	n/a	n/a	n/a
3955793	RECOG_RESP	n/a	LTP080	ltpFR	0	8	0	TURTLE	1522	n/a	0	n/a	n/a	n/a	n/a	n/a
3956748	RECOG_CONF	n/a	LTP080	ltpFR	0	8	0	TURTLE	1522	5	0	n/a	n/a	n/a	n/a	n/a
3958033	RECOG_TARGET	n/a	LTP080	ltpFR	0	8	-1	LEVER	815	5	-1	n/a	n/a	n/a	n/a	n/a
3958758	RECOG_RESP	n/a	LTP080	ltpFR	0	8	-1	LEVER	815	n/a	-1	n/a	n/a	n/a	n/a	n/a
3959650	RECOG_CONF	n/a	LTP080	ltpFR	0	8	-1	LEVER	815	5	-1	n/a	n/a	n/a	n/a	n/a
3965198	REC_START	n/a	LTP080	ltpFR	0	9	n/a	n/a	n/a	n/a	n/a	n/a	n/a	n/a	n/a	n/a
3965234	RECOG_LURE	n/a	LTP080	ltpFR	0	9	n/a	HELICOPTER	701	3	n/a	n/a	n/a	n/a	n/a	n/a
3966469	RECOG_RESP	n/a	LTP080	ltpFR	0	9	n/a	HELICOPTER	701	n/a	n/a	n/a	n/a	n/a	n/a	n/a
3967353	RECOG_CONF	n/a	LTP080	ltpFR	0	9	n/a	HELICOPTER	701	3	n/a	n/a	n/a	n/a	n/a	n/a
3968666	RECOG_TARGET	n/a	LTP080	ltpFR	0	9	0	BENCH	121	2	1	n/a	n/a	n/a	n/a	n/a
3969573	RECOG_RESP	n/a	LTP080	ltpFR	0	9	0	BENCH	121	n/a	1	n/a	n/a	n/a	n/a	n/a
3970485	RECOG_CONF	n/a	LTP080	ltpFR	0	9	0	BENCH	121	2	1	n/a	n/a	n/a	n/a	n/a
3971832	RECOG_LURE	n/a	LTP080	ltpFR	0	9	n/a	BUBBLE	183	3	n/a	n/a	n/a	n/a	n/a	n/a
3972601	RECOG_RESP	n/a	LTP080	ltpFR	0	9	n/a	BUBBLE	183	n/a	n/a	n/a	n/a	n/a	n/a	n/a
3973403	RECOG_CONF	n/a	LTP080	ltpFR	0	9	n/a	BUBBLE	183	3	n/a	n/a	n/a	n/a	n/a	n/a
3974782	RECOG_TARGET	n/a	LTP080	ltpFR	0	9	1	COMEDIAN	352	5	1	n/a	n/a	n/a	n/a	n/a
3975548	RECOG_RESP	n/a	LTP080	ltpFR	0	9	1	COMEDIAN	352	n/a	1	n/a	n/a	n/a	n/a	n/a
3976477	RECOG_CONF	n/a	LTP080	ltpFR	0	9	1	COMEDIAN	352	5	1	n/a	n/a	n/a	n/a	n/a
3977832	RECOG_TARGET	n/a	LTP080	ltpFR	0	9	0	COP	376	5	1	n/a	n/a	n/a	n/a	n/a
3978627	RECOG_RESP	n/a	LTP080	ltpFR	0	9	0	COP	376	n/a	1	n/a	n/a	n/a	n/a	n/a
3979469	RECOG_CONF	n/a	LTP080	ltpFR	0	9	0	COP	376	5	1	n/a	n/a	n/a	n/a	n/a
3980857	RECOG_TARGET	n/a	LTP080	ltpFR	0	9	-1	TEMPLE	1448	2	-1	n/a	n/a	n/a	n/a	n/a
3981704	RECOG_RESP	n/a	LTP080	ltpFR	0	9	-1	TEMPLE	1448	n/a	-1	n/a	n/a	n/a	n/a	n/a
3982601	RECOG_CONF	n/a	LTP080	ltpFR	0	9	-1	TEMPLE	1448	2	-1	n/a	n/a	n/a	n/a	n/a
3984040	RECOG_TARGET	n/a	LTP080	ltpFR	0	9	0	ENCYCLOPEDIA	533	5	1	n/a	n/a	n/a	n/a	n/a
3984719	RECOG_RESP	n/a	LTP080	ltpFR	0	9	0	ENCYCLOPEDIA	533	n/a	1	n/a	n/a	n/a	n/a	n/a
3985626	RECOG_CONF	n/a	LTP080	ltpFR	0	9	0	ENCYCLOPEDIA	533	5	1	n/a	n/a	n/a	n/a	n/a
3986931	RECOG_TARGET	n/a	LTP080	ltpFR	0	9	1	DIRECTOR	471	2	1	n/a	n/a	n/a	n/a	n/a
3987902	RECOG_RESP	n/a	LTP080	ltpFR	0	9	1	DIRECTOR	471	n/a	1	n/a	n/a	n/a	n/a	n/a
3988828	RECOG_CONF	n/a	LTP080	ltpFR	0	9	1	DIRECTOR	471	2	1	n/a	n/a	n/a	n/a	n/a
3990048	RECOG_LURE	n/a	LTP080	ltpFR	0	9	n/a	RANCH	1166	2	n/a	n/a	n/a	n/a	n/a	n/a
3990902	RECOG_RESP	n/a	LTP080	ltpFR	0	9	n/a	RANCH	1166	n/a	n/a	n/a	n/a	n/a	n/a	n/a
3991807	RECOG_CONF	n/a	LTP080	ltpFR	0	9	n/a	RANCH	1166	2	n/a	n/a	n/a	n/a	n/a	n/a
3993122	RECOG_TARGET	n/a	LTP080	ltpFR	0	9	-1	OFFICE	972	3	-1	n/a	n/a	n/a	n/a	n/a
3994297	RECOG_RESP	n/a	LTP080	ltpFR	0	9	-1	OFFICE	972	n/a	-1	n/a	n/a	n/a	n/a	n/a
3995274	RECOG_CONF	n/a	LTP080	ltpFR	0	9	-1	OFFICE	972	3	-1	n/a	n/a	n/a	n/a	n/a
3996573	RECOG_LURE	n/a	LTP080	ltpFR	0	9	n/a	RECEPTIONIST	1174	2	n/a	n/a	n/a	n/a	n/a	n/a
3997547	RECOG_RESP	n/a	LTP080	ltpFR	0	9	n/a	RECEPTIONIST	1174	n/a	n/a	n/a	n/a	n/a	n/a	n/a
3998457	RECOG_CONF	n/a	LTP080	ltpFR	0	9	n/a	RECEPTIONIST	1174	2	n/a	n/a	n/a	n/a	n/a	n/a
3999764	RECOG_LURE	n/a	LTP080	ltpFR	0	9	n/a	BANK	83	3	n/a	n/a	n/a	n/a	n/a	n/a
4000493	RECOG_RESP	n/a	LTP080	ltpFR	0	9	n/a	BANK	83	n/a	n/a	n/a	n/a	n/a	n/a	n/a
4001708	RECOG_CONF	n/a	LTP080	ltpFR	0	9	n/a	BANK	83	3	n/a	n/a	n/a	n/a	n/a	n/a
4003080	RECOG_TARGET	n/a	LTP080	ltpFR	0	9	0	TUSK	1523	5	1	n/a	n/a	n/a	n/a	n/a
4004097	RECOG_RESP	n/a	LTP080	ltpFR	0	9	0	TUSK	1523	n/a	1	n/a	n/a	n/a	n/a	n/a
4005012	RECOG_CONF	n/a	LTP080	ltpFR	0	9	0	TUSK	1523	5	1	n/a	n/a	n/a	n/a	n/a
4006339	RECOG_TARGET	n/a	LTP080	ltpFR	0	9	1	CRUMB	416	3	0	n/a	n/a	n/a	n/a	n/a
4007089	RECOG_RESP	n/a	LTP080	ltpFR	0	9	1	CRUMB	416	n/a	0	n/a	n/a	n/a	n/a	n/a
4008041	RECOG_CONF	n/a	LTP080	ltpFR	0	9	1	CRUMB	416	3	0	n/a	n/a	n/a	n/a	n/a
4009406	RECOG_TARGET	n/a	LTP080	ltpFR	0	9	1	SPIT	1354	5	0	n/a	n/a	n/a	n/a	n/a
4010254	RECOG_RESP	n/a	LTP080	ltpFR	0	9	1	SPIT	1354	n/a	0	n/a	n/a	n/a	n/a	n/a
4011167	RECOG_CONF	n/a	LTP080	ltpFR	0	9	1	SPIT	1354	5	0	n/a	n/a	n/a	n/a	n/a
4012472	RECOG_TARGET	n/a	LTP080	ltpFR	0	9	0	MONARCH	906	5	0	n/a	n/a	n/a	n/a	n/a
4013181	RECOG_RESP	n/a	LTP080	ltpFR	0	9	0	MONARCH	906	n/a	0	n/a	n/a	n/a	n/a	n/a
4014076	RECOG_CONF	n/a	LTP080	ltpFR	0	9	0	MONARCH	906	5	0	n/a	n/a	n/a	n/a	n/a
