onset	duration	trial_type	sample	stim_file	subject	experiment	session	trial	item_name	item_num	list	answer	test_x	test_y	test_z
209.81103515625	n/a	SESS_START	429693	n/a	LTP349	ltpFR2	23	n/a	n/a	n/a	n/a	n/a	0	0	0
222.22412109375	n/a	START	455115	n/a	LTP349	ltpFR2	23	n/a	n/a	n/a	-1	n/a	n/a	n/a	n/a
222.25537109375	n/a	PROB	455179	n/a	LTP349	ltpFR2	23	n/a	n/a	n/a	-1	25	8	7	8
225.55224609375	n/a	PROB	461931	n/a	LTP349	ltpFR2	23	n/a	n/a	n/a	-1	12	5	3	5
227.80224609375	n/a	PROB	466539	n/a	LTP349	ltpFR2	23	n/a	n/a	n/a	-1	10	7	2	1
230.2685546875	n/a	PROB	471590	n/a	LTP349	ltpFR2	23	n/a	n/a	n/a	-1	15	5	6	4
234.224609375	n/a	STOP	479692	n/a	LTP349	ltpFR2	23	n/a	n/a	n/a	-1	n/a	n/a	n/a	n/a
265.30078125	n/a	WORD	543336	wordpools/wasnorm_wordpool_576.txt	LTP349	ltpFR2	23	1	SNOB	1335	n/a	n/a	0	0	0
267.7998046875	n/a	WORD	548454	wordpools/wasnorm_wordpool_576.txt	LTP349	ltpFR2	23	1	GRIZZLY	662	n/a	n/a	0	0	0
270.3818359375	n/a	WORD	553742	wordpools/wasnorm_wordpool_576.txt	LTP349	ltpFR2	23	1	BELLY	119	n/a	n/a	0	0	0
273.19677734375	n/a	WORD	559507	wordpools/wasnorm_wordpool_576.txt	LTP349	ltpFR2	23	1	COURSE	390	n/a	n/a	0	0	0
275.9287109375	n/a	WORD	565102	wordpools/wasnorm_wordpool_576.txt	LTP349	ltpFR2	23	1	BUNNY	198	n/a	n/a	0	0	0
278.3779296875	n/a	WORD	570118	wordpools/wasnorm_wordpool_576.txt	LTP349	ltpFR2	23	1	MUSTARD	935	n/a	n/a	0	0	0
281.19287109375	n/a	WORD	575883	wordpools/wasnorm_wordpool_576.txt	LTP349	ltpFR2	23	1	GLASSES	640	n/a	n/a	0	0	0
283.77490234375	n/a	WORD	581171	wordpools/wasnorm_wordpool_576.txt	LTP349	ltpFR2	23	1	LODGE	839	n/a	n/a	0	0	0
286.27392578125	n/a	WORD	586289	wordpools/wasnorm_wordpool_576.txt	LTP349	ltpFR2	23	1	DRIVEWAY	500	n/a	n/a	0	0	0
288.888671875	n/a	WORD	591644	wordpools/wasnorm_wordpool_576.txt	LTP349	ltpFR2	23	1	CONSOLE	364	n/a	n/a	0	0	0
291.40380859375	n/a	WORD	596795	wordpools/wasnorm_wordpool_576.txt	LTP349	ltpFR2	23	1	MARROW	872	n/a	n/a	0	0	0
294.0869140625	n/a	WORD	602290	wordpools/wasnorm_wordpool_576.txt	LTP349	ltpFR2	23	1	SHORTS	1293	n/a	n/a	0	0	0
296.81787109375	n/a	WORD	607883	wordpools/wasnorm_wordpool_576.txt	LTP349	ltpFR2	23	1	AIRCRAFT	11	n/a	n/a	0	0	0
299.61572265625	n/a	WORD	613613	wordpools/wasnorm_wordpool_576.txt	LTP349	ltpFR2	23	1	GERM	632	n/a	n/a	0	0	0
302.181640625	n/a	WORD	618868	wordpools/wasnorm_wordpool_576.txt	LTP349	ltpFR2	23	1	STAR	1373	n/a	n/a	0	0	0
304.84765625	n/a	WORD	624328	wordpools/wasnorm_wordpool_576.txt	LTP349	ltpFR2	23	1	LANDSCAPE	799	n/a	n/a	0	0	0
307.27978515625	n/a	WORD	629309	wordpools/wasnorm_wordpool_576.txt	LTP349	ltpFR2	23	1	COOKIE	374	n/a	n/a	0	0	0
310.0947265625	n/a	WORD	635074	wordpools/wasnorm_wordpool_576.txt	LTP349	ltpFR2	23	1	DESSERT	453	n/a	n/a	0	0	0
312.91015625	n/a	WORD	640840	wordpools/wasnorm_wordpool_576.txt	LTP349	ltpFR2	23	1	TORTOISE	1486	n/a	n/a	0	0	0
315.7080078125	n/a	WORD	646570	wordpools/wasnorm_wordpool_576.txt	LTP349	ltpFR2	23	1	DECK	443	n/a	n/a	0	0	0
318.48974609375	n/a	WORD	652267	wordpools/wasnorm_wordpool_576.txt	LTP349	ltpFR2	23	1	MOTEL	919	n/a	n/a	0	0	0
320.97314453125	n/a	WORD	657353	wordpools/wasnorm_wordpool_576.txt	LTP349	ltpFR2	23	1	HERO	706	n/a	n/a	0	0	0
323.52099609375	n/a	WORD	662571	wordpools/wasnorm_wordpool_576.txt	LTP349	ltpFR2	23	1	ADULT	8	n/a	n/a	0	0	0
325.98681640625	n/a	WORD	667621	wordpools/wasnorm_wordpool_576.txt	LTP349	ltpFR2	23	1	FOSSIL	596	n/a	n/a	0	0	0
327.60205078125	n/a	START	670929	n/a	LTP349	ltpFR2	23	n/a	n/a	n/a	1	n/a	n/a	n/a	n/a
328.7529296875	n/a	DISTRACTOR	673286	n/a	LTP349	ltpFR2	23	1	n/a	n/a	n/a	n/a	0	0	0
328.76904296875	n/a	PROB	673319	n/a	LTP349	ltpFR2	23	n/a	n/a	n/a	1	15	8	2	5
331.05126953125	n/a	PROB	677993	n/a	LTP349	ltpFR2	23	n/a	n/a	n/a	1	11	6	1	4
332.64990234375	n/a	PROB	681267	n/a	LTP349	ltpFR2	23	n/a	n/a	n/a	1	13	3	2	8
334.30029296875	n/a	PROB	684647	n/a	LTP349	ltpFR2	23	n/a	n/a	n/a	1	10	3	2	5
337.23193359375	n/a	PROB	690651	n/a	LTP349	ltpFR2	23	n/a	n/a	n/a	1	11	8	2	1
339.43115234375	n/a	PROB	695155	n/a	LTP349	ltpFR2	23	n/a	n/a	n/a	1	14	6	6	2
340.6962890625	n/a	PROB	697746	n/a	LTP349	ltpFR2	23	n/a	n/a	n/a	1	17	5	3	9
342.779296875	n/a	PROB	702012	n/a	LTP349	ltpFR2	23	n/a	n/a	n/a	1	8	6	1	1
343.89501953125	n/a	PROB	704297	n/a	LTP349	ltpFR2	23	n/a	n/a	n/a	1	17	8	4	5
345.693359375	n/a	PROB	707980	n/a	LTP349	ltpFR2	23	n/a	n/a	n/a	1	11	5	1	5
346.81005859375	n/a	PROB	710267	n/a	LTP349	ltpFR2	23	n/a	n/a	n/a	1	5	3	1	1
348.8759765625	n/a	PROB	714498	n/a	LTP349	ltpFR2	23	n/a	n/a	n/a	1	17	8	2	7
350.1982421875	n/a	STOP	717206	n/a	LTP349	ltpFR2	23	n/a	n/a	n/a	1	n/a	n/a	n/a	n/a
353.490234375	n/a	REC_START	723948	n/a	LTP349	ltpFR2	23	1	n/a	n/a	n/a	n/a	0	0	0
355.55712890625	n/a	REC_WORD	728181	wordpools/wasnorm_wordpool_576.txt	LTP349	ltpFR2	23	1	SNOB	1335	n/a	n/a	0	0	0
357.34130859375	n/a	REC_WORD	731835	wordpools/wasnorm_wordpool_576.txt	LTP349	ltpFR2	23	1	GRIZZLY	662	n/a	n/a	0	0	0
358.5341796875	n/a	REC_WORD	734278	wordpools/wasnorm_wordpool_576.txt	LTP349	ltpFR2	23	1	BELLY	119	n/a	n/a	0	0	0
359.701171875	n/a	REC_WORD	736668	wordpools/wasnorm_wordpool_576.txt	LTP349	ltpFR2	23	1	BUNNY	198	n/a	n/a	0	0	0
360.6962890625	n/a	REC_WORD	738706	wordpools/wasnorm_wordpool_576.txt	LTP349	ltpFR2	23	1	MUSTARD	935	n/a	n/a	0	0	0
361.9384765625	n/a	REC_WORD	741250	wordpools/wasnorm_wordpool_576.txt	LTP349	ltpFR2	23	1	MARROW	872	n/a	n/a	0	0	0
363.13720703125	n/a	REC_WORD	743705	wordpools/wasnorm_wordpool_576.txt	LTP349	ltpFR2	23	1	COURSE	390	n/a	n/a	0	0	0
364.3681640625	n/a	REC_WORD	746226	wordpools/wasnorm_wordpool_576.txt	LTP349	ltpFR2	23	1	LODGE	839	n/a	n/a	0	0	0
365.693359375	n/a	REC_WORD	748940	wordpools/wasnorm_wordpool_576.txt	LTP349	ltpFR2	23	1	DRIVEWAY	500	n/a	n/a	0	0	0
367.04736328125	n/a	REC_WORD	751713	wordpools/wasnorm_wordpool_576.txt	LTP349	ltpFR2	23	1	AIRCRAFT	11	n/a	n/a	0	0	0
370.6064453125	n/a	REC_WORD	759002	wordpools/wasnorm_wordpool_576.txt	LTP349	ltpFR2	23	1	GERM	632	n/a	n/a	0	0	0
371.62451171875	n/a	REC_WORD	761087	wordpools/wasnorm_wordpool_576.txt	LTP349	ltpFR2	23	1	STAR	1373	n/a	n/a	0	0	0
373.783203125	n/a	REC_WORD	765508	wordpools/wasnorm_wordpool_576.txt	LTP349	ltpFR2	23	1	SHORTS	1293	n/a	n/a	0	0	0
375.154296875	n/a	REC_WORD	768316	wordpools/wasnorm_wordpool_576.txt	LTP349	ltpFR2	23	1	GLASSES	640	n/a	n/a	0	0	0
376.41259765625	n/a	REC_WORD	770893	wordpools/wasnorm_wordpool_576.txt	LTP349	ltpFR2	23	1	HERO	706	n/a	n/a	0	0	0
377.38623046875	n/a	REC_WORD	772887	wordpools/wasnorm_wordpool_576.txt	LTP349	ltpFR2	23	1	ADULT	8	n/a	n/a	0	0	0
381.67431640625	n/a	REC_WORD	781669	wordpools/wasnorm_wordpool_576.txt	LTP349	ltpFR2	23	1	MOTEL	919	n/a	n/a	0	0	0
443.962890625	n/a	WORD	909236	wordpools/wasnorm_wordpool_576.txt	LTP349	ltpFR2	23	2	PITCHFORK	1078	n/a	n/a	0	0	0
446.56103515625	n/a	WORD	914557	wordpools/wasnorm_wordpool_576.txt	LTP349	ltpFR2	23	2	SPHINX	1349	n/a	n/a	0	0	0
449.09375	n/a	WORD	919744	wordpools/wasnorm_wordpool_576.txt	LTP349	ltpFR2	23	2	FEAST	556	n/a	n/a	0	0	0
451.5576171875	n/a	WORD	924790	wordpools/wasnorm_wordpool_576.txt	LTP349	ltpFR2	23	2	LEMON	810	n/a	n/a	0	0	0
454.1748046875	n/a	WORD	930150	wordpools/wasnorm_wordpool_576.txt	LTP349	ltpFR2	23	2	FARMER	553	n/a	n/a	0	0	0
456.7568359375	n/a	WORD	935438	wordpools/wasnorm_wordpool_576.txt	LTP349	ltpFR2	23	2	CATTLE	261	n/a	n/a	0	0	0
459.18896484375	n/a	WORD	940419	wordpools/wasnorm_wordpool_576.txt	LTP349	ltpFR2	23	2	APRON	35	n/a	n/a	0	0	0
461.65283203125	n/a	WORD	945465	wordpools/wasnorm_wordpool_576.txt	LTP349	ltpFR2	23	2	AWARD	63	n/a	n/a	0	0	0
464.27001953125	n/a	WORD	950825	wordpools/wasnorm_wordpool_576.txt	LTP349	ltpFR2	23	2	EARRING	514	n/a	n/a	0	0	0
467.0849609375	n/a	WORD	956590	wordpools/wasnorm_wordpool_576.txt	LTP349	ltpFR2	23	2	COSTUME	383	n/a	n/a	0	0	0
469.75	n/a	WORD	962048	wordpools/wasnorm_wordpool_576.txt	LTP349	ltpFR2	23	2	PORK	1108	n/a	n/a	0	0	0
472.2490234375	n/a	WORD	967166	wordpools/wasnorm_wordpool_576.txt	LTP349	ltpFR2	23	2	BEEF	113	n/a	n/a	0	0	0
474.712890625	n/a	WORD	972212	wordpools/wasnorm_wordpool_576.txt	LTP349	ltpFR2	23	2	MEAT	883	n/a	n/a	0	0	0
477.31298828125	n/a	WORD	977537	wordpools/wasnorm_wordpool_576.txt	LTP349	ltpFR2	23	2	LIZARD	834	n/a	n/a	0	0	0
479.77880859375	n/a	WORD	982587	wordpools/wasnorm_wordpool_576.txt	LTP349	ltpFR2	23	2	BLACKBOARD	133	n/a	n/a	0	0	0
482.4111328125	n/a	WORD	987978	wordpools/wasnorm_wordpool_576.txt	LTP349	ltpFR2	23	2	PRISON	1127	n/a	n/a	0	0	0
485.04296875	n/a	WORD	993368	wordpools/wasnorm_wordpool_576.txt	LTP349	ltpFR2	23	2	WAX	1597	n/a	n/a	0	0	0
487.70703125	n/a	WORD	998824	wordpools/wasnorm_wordpool_576.txt	LTP349	ltpFR2	23	2	PLUM	1090	n/a	n/a	0	0	0
490.14013671875	n/a	WORD	1003807	wordpools/wasnorm_wordpool_576.txt	LTP349	ltpFR2	23	2	EGYPT	519	n/a	n/a	0	0	0
492.9052734375	n/a	WORD	1009470	wordpools/wasnorm_wordpool_576.txt	LTP349	ltpFR2	23	2	SEAL	1262	n/a	n/a	0	0	0
495.63623046875	n/a	WORD	1015063	wordpools/wasnorm_wordpool_576.txt	LTP349	ltpFR2	23	2	SLOPE	1328	n/a	n/a	0	0	0
498.38623046875	n/a	WORD	1020695	wordpools/wasnorm_wordpool_576.txt	LTP349	ltpFR2	23	2	LADDER	793	n/a	n/a	0	0	0
501.05126953125	n/a	WORD	1026153	wordpools/wasnorm_wordpool_576.txt	LTP349	ltpFR2	23	2	ROACH	1195	n/a	n/a	0	0	0
503.80029296875	n/a	WORD	1031783	wordpools/wasnorm_wordpool_576.txt	LTP349	ltpFR2	23	2	DRESS	495	n/a	n/a	0	0	0
505.416015625	n/a	START	1035092	n/a	LTP349	ltpFR2	23	n/a	n/a	n/a	2	n/a	n/a	n/a	n/a
506.46044921875	n/a	DISTRACTOR	1037231	n/a	LTP349	ltpFR2	23	2	n/a	n/a	n/a	n/a	0	0	0
506.46435546875	n/a	PROB	1037239	n/a	LTP349	ltpFR2	23	n/a	n/a	n/a	2	98	4	4	1
507.78125	n/a	PROB	1039936	n/a	LTP349	ltpFR2	23	n/a	n/a	n/a	2	18	5	7	6
510.3134765625	n/a	PROB	1045122	n/a	LTP349	ltpFR2	23	n/a	n/a	n/a	2	22	8	8	6
511.74609375	n/a	PROB	1048056	n/a	LTP349	ltpFR2	23	n/a	n/a	n/a	2	19	8	9	2
513.412109375	n/a	PROB	1051468	n/a	LTP349	ltpFR2	23	n/a	n/a	n/a	2	12	1	2	9
520.275390625	n/a	PROB	1065524	n/a	LTP349	ltpFR2	23	n/a	n/a	n/a	2	19	9	4	6
522.12451171875	n/a	PROB	1069311	n/a	LTP349	ltpFR2	23	n/a	n/a	n/a	2	1	6	9	7
528.646484375	n/a	STOP	1082668	n/a	LTP349	ltpFR2	23	n/a	n/a	n/a	2	n/a	n/a	n/a	n/a
531.17041015625	n/a	REC_START	1087837	n/a	LTP349	ltpFR2	23	2	n/a	n/a	n/a	n/a	0	0	0
535.42041015625	n/a	REC_WORD	1096541	wordpools/wasnorm_wordpool_576.txt	LTP349	ltpFR2	23	2	PITCHFORK	1078	n/a	n/a	0	0	0
536.3984375	n/a	REC_WORD	1098544	wordpools/wasnorm_wordpool_576.txt	LTP349	ltpFR2	23	2	SPHINX	1349	n/a	n/a	0	0	0
537.74658203125	n/a	REC_WORD	1101305	wordpools/wasnorm_wordpool_576.txt	LTP349	ltpFR2	23	2	FARMER	553	n/a	n/a	0	0	0
538.8662109375	n/a	REC_WORD	1103598	wordpools/wasnorm_wordpool_576.txt	LTP349	ltpFR2	23	2	APRON	35	n/a	n/a	0	0	0
539.79345703125	n/a	REC_WORD	1105497	wordpools/wasnorm_wordpool_576.txt	LTP349	ltpFR2	23	2	CATTLE	261	n/a	n/a	0	0	0
541.33056640625	n/a	REC_WORD	1108645	wordpools/wasnorm_wordpool_576.txt	LTP349	ltpFR2	23	2	MEAT	883	n/a	n/a	0	0	0
542.388671875	n/a	REC_WORD	1110812	wordpools/wasnorm_wordpool_576.txt	LTP349	ltpFR2	23	2	LIZARD	834	n/a	n/a	0	0	0
543.6552734375	n/a	REC_WORD	1113406	wordpools/wasnorm_wordpool_576.txt	LTP349	ltpFR2	23	2	BEEF	113	n/a	n/a	0	0	0
544.5556640625	n/a	REC_WORD	1115250	wordpools/wasnorm_wordpool_576.txt	LTP349	ltpFR2	23	2	PORK	1108	n/a	n/a	0	0	0
546.62451171875	n/a	REC_WORD	1119487	wordpools/wasnorm_wordpool_576.txt	LTP349	ltpFR2	23	2	EARRING	514	n/a	n/a	0	0	0
547.97265625	n/a	REC_WORD	1122248	wordpools/wasnorm_wordpool_576.txt	LTP349	ltpFR2	23	2	MODEL	-1	n/a	n/a	0	0	0
549.41845703125	n/a	REC_WORD	1125209	wordpools/wasnorm_wordpool_576.txt	LTP349	ltpFR2	23	2	AWARD	63	n/a	n/a	0	0	0
550.74072265625	n/a	REC_WORD	1127917	wordpools/wasnorm_wordpool_576.txt	LTP349	ltpFR2	23	2	LADDER	793	n/a	n/a	0	0	0
557.845703125	n/a	REC_WORD	1142468	wordpools/wasnorm_wordpool_576.txt	LTP349	ltpFR2	23	2	PRISON	1127	n/a	n/a	0	0	0
558.69677734375	n/a	REC_WORD	1144211	wordpools/wasnorm_wordpool_576.txt	LTP349	ltpFR2	23	2	BLACKBOARD	133	n/a	n/a	0	0	0
593.86083984375	n/a	REC_WORD	1216227	wordpools/wasnorm_wordpool_576.txt	LTP349	ltpFR2	23	2	SLOPE	1328	n/a	n/a	0	0	0
602.60791015625	n/a	REC_WORD	1234141	wordpools/wasnorm_wordpool_576.txt	LTP349	ltpFR2	23	2	ROACH	1195	n/a	n/a	0	0	0
621.60791015625	n/a	DISTRACTOR	1273053	n/a	LTP349	ltpFR2	23	3	n/a	n/a	n/a	n/a	0	0	0
621.60791015625	n/a	START	1273053	n/a	LTP349	ltpFR2	23	n/a	n/a	n/a	3	n/a	n/a	n/a	n/a
621.625	n/a	PROB	1273088	n/a	LTP349	ltpFR2	23	n/a	n/a	n/a	3	17	4	9	4
623.7578125	n/a	PROB	1277456	n/a	LTP349	ltpFR2	23	n/a	n/a	n/a	3	14	1	5	8
625.6728515625	n/a	PROB	1281378	n/a	LTP349	ltpFR2	23	n/a	n/a	n/a	3	12	3	8	1
627.43994140625	n/a	PROB	1284997	n/a	LTP349	ltpFR2	23	n/a	n/a	n/a	3	11	4	3	4
628.77197265625	n/a	PROB	1287725	n/a	LTP349	ltpFR2	23	n/a	n/a	n/a	3	18	9	4	5
631.2880859375	n/a	PROB	1292878	n/a	LTP349	ltpFR2	23	n/a	n/a	n/a	3	14	9	1	4
632.453125	n/a	PROB	1295264	n/a	LTP349	ltpFR2	23	n/a	n/a	n/a	3	8	1	2	5
633.81982421875	n/a	PROB	1298063	n/a	LTP349	ltpFR2	23	n/a	n/a	n/a	3	21	6	9	6
635.4189453125	n/a	PROB	1301338	n/a	LTP349	ltpFR2	23	n/a	n/a	n/a	3	19	9	1	9
636.88525390625	n/a	PROB	1304341	n/a	LTP349	ltpFR2	23	n/a	n/a	n/a	3	12	1	6	5
638.48291015625	n/a	PROB	1307613	n/a	LTP349	ltpFR2	23	n/a	n/a	n/a	3	12	6	1	5
640.64892578125	n/a	PROB	1312049	n/a	LTP349	ltpFR2	23	n/a	n/a	n/a	3	18	9	7	2
642.04931640625	n/a	PROB	1314917	n/a	LTP349	ltpFR2	23	n/a	n/a	n/a	3	12	5	6	1
643.81494140625	n/a	PROB	1318533	n/a	LTP349	ltpFR2	23	n/a	n/a	n/a	3	14	9	4	1
645.39208984375	n/a	STOP	1321763	n/a	LTP349	ltpFR2	23	n/a	n/a	n/a	3	n/a	n/a	n/a	n/a
646.76318359375	n/a	WORD	1324571	wordpools/wasnorm_wordpool_576.txt	LTP349	ltpFR2	23	3	PROTON	1132	n/a	n/a	0	0	0
649.47802734375	n/a	WORD	1330131	wordpools/wasnorm_wordpool_576.txt	LTP349	ltpFR2	23	3	BUGGY	188	n/a	n/a	0	0	0
651.9609375	n/a	WORD	1335216	wordpools/wasnorm_wordpool_576.txt	LTP349	ltpFR2	23	3	BALLOON	75	n/a	n/a	0	0	0
654.50927734375	n/a	WORD	1340435	wordpools/wasnorm_wordpool_576.txt	LTP349	ltpFR2	23	3	FREEWAY	603	n/a	n/a	0	0	0
657.2919921875	n/a	WORD	1346134	wordpools/wasnorm_wordpool_576.txt	LTP349	ltpFR2	23	3	GAUZE	626	n/a	n/a	0	0	0
660.05712890625	n/a	WORD	1351797	wordpools/wasnorm_wordpool_576.txt	LTP349	ltpFR2	23	3	FIGHTER	564	n/a	n/a	0	0	0
662.67138671875	n/a	WORD	1357151	wordpools/wasnorm_wordpool_576.txt	LTP349	ltpFR2	23	3	CHARCOAL	281	n/a	n/a	0	0	0
665.30419921875	n/a	WORD	1362543	wordpools/wasnorm_wordpool_576.txt	LTP349	ltpFR2	23	3	PLUTO	1092	n/a	n/a	0	0	0
668.119140625	n/a	WORD	1368308	wordpools/wasnorm_wordpool_576.txt	LTP349	ltpFR2	23	3	MARS	873	n/a	n/a	0	0	0
670.7353515625	n/a	WORD	1373666	wordpools/wasnorm_wordpool_576.txt	LTP349	ltpFR2	23	3	SIRLOIN	1311	n/a	n/a	0	0	0
673.49951171875	n/a	WORD	1379327	wordpools/wasnorm_wordpool_576.txt	LTP349	ltpFR2	23	3	EUROPE	541	n/a	n/a	0	0	0
676.18212890625	n/a	WORD	1384821	wordpools/wasnorm_wordpool_576.txt	LTP349	ltpFR2	23	3	FLIPPER	580	n/a	n/a	0	0	0
678.814453125	n/a	WORD	1390212	wordpools/wasnorm_wordpool_576.txt	LTP349	ltpFR2	23	3	COUGAR	387	n/a	n/a	0	0	0
681.32958984375	n/a	WORD	1395363	wordpools/wasnorm_wordpool_576.txt	LTP349	ltpFR2	23	3	HEEL	700	n/a	n/a	0	0	0
683.9453125	n/a	WORD	1400720	wordpools/wasnorm_wordpool_576.txt	LTP349	ltpFR2	23	3	LETTER	813	n/a	n/a	0	0	0
686.41015625	n/a	WORD	1405768	wordpools/wasnorm_wordpool_576.txt	LTP349	ltpFR2	23	3	GARAGE	621	n/a	n/a	0	0	0
689.109375	n/a	WORD	1411296	wordpools/wasnorm_wordpool_576.txt	LTP349	ltpFR2	23	3	SHELTER	1282	n/a	n/a	0	0	0
691.7744140625	n/a	WORD	1416754	wordpools/wasnorm_wordpool_576.txt	LTP349	ltpFR2	23	3	BLUEPRINT	142	n/a	n/a	0	0	0
694.306640625	n/a	WORD	1421940	wordpools/wasnorm_wordpool_576.txt	LTP349	ltpFR2	23	3	ATTIRE	57	n/a	n/a	0	0	0
696.97265625	n/a	WORD	1427400	wordpools/wasnorm_wordpool_576.txt	LTP349	ltpFR2	23	3	TRIGGER	1507	n/a	n/a	0	0	0
699.50341796875	n/a	WORD	1432583	wordpools/wasnorm_wordpool_576.txt	LTP349	ltpFR2	23	3	TIGER	1467	n/a	n/a	0	0	0
702.13671875	n/a	WORD	1437976	wordpools/wasnorm_wordpool_576.txt	LTP349	ltpFR2	23	3	CELLAR	267	n/a	n/a	0	0	0
704.78564453125	n/a	WORD	1443401	wordpools/wasnorm_wordpool_576.txt	LTP349	ltpFR2	23	3	PANTHER	1009	n/a	n/a	0	0	0
707.3173828125	n/a	WORD	1448586	wordpools/wasnorm_wordpool_576.txt	LTP349	ltpFR2	23	3	GAZELLE	628	n/a	n/a	0	0	0
708.93359375	n/a	START	1451896	n/a	LTP349	ltpFR2	23	n/a	n/a	n/a	4	n/a	n/a	n/a	n/a
709.9697265625	n/a	DISTRACTOR	1454018	n/a	LTP349	ltpFR2	23	3	n/a	n/a	n/a	n/a	0	0	0
709.982421875	n/a	PROB	1454044	n/a	LTP349	ltpFR2	23	n/a	n/a	n/a	4	11	1	3	7
711.86474609375	n/a	PROB	1457899	n/a	LTP349	ltpFR2	23	n/a	n/a	n/a	4	17	3	7	7
713.4306640625	n/a	PROB	1461106	n/a	LTP349	ltpFR2	23	n/a	n/a	n/a	4	9	2	3	4
715.04638671875	n/a	PROB	1464415	n/a	LTP349	ltpFR2	23	n/a	n/a	n/a	4	10	4	2	4
716.46142578125	n/a	PROB	1467313	n/a	LTP349	ltpFR2	23	n/a	n/a	n/a	4	12	3	7	3
717.71044921875	n/a	PROB	1469871	n/a	LTP349	ltpFR2	23	n/a	n/a	n/a	4	13	8	4	1
719.5107421875	n/a	PROB	1473558	n/a	LTP349	ltpFR2	23	n/a	n/a	n/a	4	18	6	5	7
722.12646484375	n/a	PROB	1478915	n/a	LTP349	ltpFR2	23	n/a	n/a	n/a	4	16	8	5	3
723.95849609375	n/a	PROB	1482667	n/a	LTP349	ltpFR2	23	n/a	n/a	n/a	4	8	5	2	1
725.2744140625	n/a	PROB	1485362	n/a	LTP349	ltpFR2	23	n/a	n/a	n/a	4	22	6	8	9
729.2568359375	n/a	PROB	1493518	n/a	LTP349	ltpFR2	23	n/a	n/a	n/a	4	13	1	3	9
732.93359375	n/a	STOP	1501048	n/a	LTP349	ltpFR2	23	n/a	n/a	n/a	4	n/a	n/a	n/a	n/a
734.73779296875	n/a	REC_START	1504743	n/a	LTP349	ltpFR2	23	3	n/a	n/a	n/a	n/a	0	0	0
735.57080078125	n/a	REC_WORD	1506449	wordpools/wasnorm_wordpool_576.txt	LTP349	ltpFR2	23	3	PANTHER	1009	n/a	n/a	0	0	0
736.2705078125	n/a	REC_WORD	1507882	wordpools/wasnorm_wordpool_576.txt	LTP349	ltpFR2	23	3	GAZELLE	628	n/a	n/a	0	0	0
737.84765625	n/a	REC_WORD	1511112	wordpools/wasnorm_wordpool_576.txt	LTP349	ltpFR2	23	3	BUGGY	188	n/a	n/a	0	0	0
738.3466796875	n/a	REC_WORD	1512134	wordpools/wasnorm_wordpool_576.txt	LTP349	ltpFR2	23	3	FREEWAY	603	n/a	n/a	0	0	0
740.4765625	n/a	REC_WORD	1516496	wordpools/wasnorm_wordpool_576.txt	LTP349	ltpFR2	23	3	GAUZE	626	n/a	n/a	0	0	0
741.32470703125	n/a	REC_WORD	1518233	wordpools/wasnorm_wordpool_576.txt	LTP349	ltpFR2	23	3	FIGHTER	564	n/a	n/a	0	0	0
743.65576171875	n/a	REC_WORD	1523007	wordpools/wasnorm_wordpool_576.txt	LTP349	ltpFR2	23	3	PLUTO	1092	n/a	n/a	0	0	0
744.62255859375	n/a	REC_WORD	1524987	wordpools/wasnorm_wordpool_576.txt	LTP349	ltpFR2	23	3	PROTON	1132	n/a	n/a	0	0	0
745.35888671875	n/a	REC_WORD_VV	1526495	wordpools/wasnorm_wordpool_576.txt	LTP349	ltpFR2	23	3	<>	-1	n/a	n/a	0	0	0
745.833984375	n/a	REC_WORD	1527468	wordpools/wasnorm_wordpool_576.txt	LTP349	ltpFR2	23	3	MARS	873	n/a	n/a	0	0	0
762.85400390625	n/a	REC_WORD	1562325	wordpools/wasnorm_wordpool_576.txt	LTP349	ltpFR2	23	3	COUGAR	387	n/a	n/a	0	0	0
764.51513671875	n/a	REC_WORD	1565727	wordpools/wasnorm_wordpool_576.txt	LTP349	ltpFR2	23	3	COUGAR	387	n/a	n/a	0	0	0
765.10595703125	n/a	REC_WORD	1566937	wordpools/wasnorm_wordpool_576.txt	LTP349	ltpFR2	23	3	HEEL	700	n/a	n/a	0	0	0
767.14306640625	n/a	REC_WORD_VV	1571109	wordpools/wasnorm_wordpool_576.txt	LTP349	ltpFR2	23	3	<>	-1	n/a	n/a	0	0	0
769.97314453125	n/a	REC_WORD_VV	1576905	wordpools/wasnorm_wordpool_576.txt	LTP349	ltpFR2	23	3	<>	-1	n/a	n/a	0	0	0
770.34716796875	n/a	REC_WORD	1577671	wordpools/wasnorm_wordpool_576.txt	LTP349	ltpFR2	23	3	PANTHER	1009	n/a	n/a	0	0	0
771.0498046875	n/a	REC_WORD	1579110	wordpools/wasnorm_wordpool_576.txt	LTP349	ltpFR2	23	3	LION	827	n/a	n/a	0	0	0
774.35302734375	n/a	REC_WORD	1585875	wordpools/wasnorm_wordpool_576.txt	LTP349	ltpFR2	23	3	TRIGGER	1507	n/a	n/a	0	0	0
776.18603515625	n/a	REC_WORD_VV	1589629	wordpools/wasnorm_wordpool_576.txt	LTP349	ltpFR2	23	3	<>	-1	n/a	n/a	0	0	0
776.39111328125	n/a	REC_WORD	1590049	wordpools/wasnorm_wordpool_576.txt	LTP349	ltpFR2	23	3	LION	827	n/a	n/a	0	0	0
777.19287109375	n/a	REC_WORD	1591691	wordpools/wasnorm_wordpool_576.txt	LTP349	ltpFR2	23	3	ATTIRE	57	n/a	n/a	0	0	0
777.9990234375	n/a	REC_WORD	1593342	wordpools/wasnorm_wordpool_576.txt	LTP349	ltpFR2	23	3	TRIGGER	1507	n/a	n/a	0	0	0
778.7548828125	n/a	REC_WORD	1594890	wordpools/wasnorm_wordpool_576.txt	LTP349	ltpFR2	23	3	TIGER	1467	n/a	n/a	0	0	0
789.41796875	n/a	REC_WORD	1616728	wordpools/wasnorm_wordpool_576.txt	LTP349	ltpFR2	23	3	EUROPE	541	n/a	n/a	0	0	0
799.55810546875	n/a	REC_WORD	1637495	wordpools/wasnorm_wordpool_576.txt	LTP349	ltpFR2	23	3	CHARCOAL	281	n/a	n/a	0	0	0
825.17626953125	n/a	DISTRACTOR	1689961	n/a	LTP349	ltpFR2	23	4	n/a	n/a	n/a	n/a	0	0	0
825.17626953125	n/a	START	1689961	n/a	LTP349	ltpFR2	23	n/a	n/a	n/a	5	n/a	n/a	n/a	n/a
825.1923828125	n/a	PROB	1689994	n/a	LTP349	ltpFR2	23	n/a	n/a	n/a	5	185	6	8	4
826.72412109375	n/a	PROB	1693131	n/a	LTP349	ltpFR2	23	n/a	n/a	n/a	5	13	4	7	2
829.63916015625	n/a	PROB	1699101	n/a	LTP349	ltpFR2	23	n/a	n/a	n/a	5	21	6	9	6
831.38916015625	n/a	PROB	1702685	n/a	LTP349	ltpFR2	23	n/a	n/a	n/a	5	22	8	8	7
834.23828125	n/a	PROB	1708520	n/a	LTP349	ltpFR2	23	n/a	n/a	n/a	5	14	9	3	2
836.20458984375	n/a	PROB	1712547	n/a	LTP349	ltpFR2	23	n/a	n/a	n/a	5	20	6	8	6
837.71826171875	n/a	PROB	1715647	n/a	LTP349	ltpFR2	23	n/a	n/a	n/a	5	18	5	6	7
839.66845703125	n/a	PROB	1719641	n/a	LTP349	ltpFR2	23	n/a	n/a	n/a	5	18	6	4	8
841.16845703125	n/a	PROB	1722713	n/a	LTP349	ltpFR2	23	n/a	n/a	n/a	5	12	2	4	6
842.71630859375	n/a	PROB	1725883	n/a	LTP349	ltpFR2	23	n/a	n/a	n/a	5	20	9	6	5
844.615234375	n/a	PROB	1729772	n/a	LTP349	ltpFR2	23	n/a	n/a	n/a	5	20	5	7	8
846.59765625	n/a	PROB	1733832	n/a	LTP349	ltpFR2	23	n/a	n/a	n/a	5	22	6	9	7
849.017578125	n/a	STOP	1738788	n/a	LTP349	ltpFR2	23	n/a	n/a	n/a	5	n/a	n/a	n/a	n/a
850.24755859375	n/a	WORD	1741307	wordpools/wasnorm_wordpool_576.txt	LTP349	ltpFR2	23	4	STRANGER	1389	n/a	n/a	0	0	0
853.0126953125	n/a	WORD	1746970	wordpools/wasnorm_wordpool_576.txt	LTP349	ltpFR2	23	4	GOBLIN	645	n/a	n/a	0	0	0
855.4765625	n/a	WORD	1752016	wordpools/wasnorm_wordpool_576.txt	LTP349	ltpFR2	23	4	BOTTLE	153	n/a	n/a	0	0	0
858.2763671875	n/a	WORD	1757750	wordpools/wasnorm_wordpool_576.txt	LTP349	ltpFR2	23	4	REPTILE	1185	n/a	n/a	0	0	0
860.8916015625	n/a	WORD	1763106	wordpools/wasnorm_wordpool_576.txt	LTP349	ltpFR2	23	4	FAUCET	555	n/a	n/a	0	0	0
863.67236328125	n/a	WORD	1768801	wordpools/wasnorm_wordpool_576.txt	LTP349	ltpFR2	23	4	STAPLER	1372	n/a	n/a	0	0	0
866.17236328125	n/a	WORD	1773921	wordpools/wasnorm_wordpool_576.txt	LTP349	ltpFR2	23	4	SCAPEGOAT	1244	n/a	n/a	0	0	0
868.95458984375	n/a	WORD	1779619	wordpools/wasnorm_wordpool_576.txt	LTP349	ltpFR2	23	4	PERSON	1052	n/a	n/a	0	0	0
871.46875	n/a	WORD	1784768	wordpools/wasnorm_wordpool_576.txt	LTP349	ltpFR2	23	4	TWIG	1527	n/a	n/a	0	0	0
874.28564453125	n/a	WORD	1790537	wordpools/wasnorm_wordpool_576.txt	LTP349	ltpFR2	23	4	CRADLE	399	n/a	n/a	0	0	0
877.05078125	n/a	WORD	1796200	wordpools/wasnorm_wordpool_576.txt	LTP349	ltpFR2	23	4	LOVER	846	n/a	n/a	0	0	0
879.564453125	n/a	WORD	1801348	wordpools/wasnorm_wordpool_576.txt	LTP349	ltpFR2	23	4	PLUMBER	1091	n/a	n/a	0	0	0
882.34765625	n/a	WORD	1807048	wordpools/wasnorm_wordpool_576.txt	LTP349	ltpFR2	23	4	BATHROOM	99	n/a	n/a	0	0	0
885.11376953125	n/a	WORD	1812713	wordpools/wasnorm_wordpool_576.txt	LTP349	ltpFR2	23	4	TOILET	1475	n/a	n/a	0	0	0
887.64453125	n/a	WORD	1817896	wordpools/wasnorm_wordpool_576.txt	LTP349	ltpFR2	23	4	VAMPIRE	1547	n/a	n/a	0	0	0
890.34375	n/a	WORD	1823424	wordpools/wasnorm_wordpool_576.txt	LTP349	ltpFR2	23	4	ORGAN	984	n/a	n/a	0	0	0
893.02587890625	n/a	WORD	1828917	wordpools/wasnorm_wordpool_576.txt	LTP349	ltpFR2	23	4	BANKER	84	n/a	n/a	0	0	0
895.556640625	n/a	WORD	1834100	wordpools/wasnorm_wordpool_576.txt	LTP349	ltpFR2	23	4	POISON	1096	n/a	n/a	0	0	0
898.0068359375	n/a	WORD	1839118	wordpools/wasnorm_wordpool_576.txt	LTP349	ltpFR2	23	4	TRUCK	1512	n/a	n/a	0	0	0
900.45458984375	n/a	WORD	1844131	wordpools/wasnorm_wordpool_576.txt	LTP349	ltpFR2	23	4	CRAB	397	n/a	n/a	0	0	0
902.9208984375	n/a	WORD	1849182	wordpools/wasnorm_wordpool_576.txt	LTP349	ltpFR2	23	4	LACE	792	n/a	n/a	0	0	0
905.65185546875	n/a	WORD	1854775	wordpools/wasnorm_wordpool_576.txt	LTP349	ltpFR2	23	4	MONGOOSE	909	n/a	n/a	0	0	0
908.48388671875	n/a	WORD	1860575	wordpools/wasnorm_wordpool_576.txt	LTP349	ltpFR2	23	4	FROST	609	n/a	n/a	0	0	0
910.93408203125	n/a	WORD	1865593	wordpools/wasnorm_wordpool_576.txt	LTP349	ltpFR2	23	4	ANCHOR	21	n/a	n/a	0	0	0
912.548828125	n/a	START	1868900	n/a	LTP349	ltpFR2	23	n/a	n/a	n/a	6	n/a	n/a	n/a	n/a
913.35986328125	n/a	DISTRACTOR	1870561	n/a	LTP349	ltpFR2	23	4	n/a	n/a	n/a	n/a	0	0	0
913.36572265625	n/a	PROB	1870573	n/a	LTP349	ltpFR2	23	n/a	n/a	n/a	6	16	2	5	9
915.96484375	n/a	PROB	1875896	n/a	LTP349	ltpFR2	23	n/a	n/a	n/a	6	14	4	2	8
919.97998046875	n/a	PROB	1884119	n/a	LTP349	ltpFR2	23	n/a	n/a	n/a	6	20	9	2	9
922.56103515625	n/a	PROB	1889405	n/a	LTP349	ltpFR2	23	n/a	n/a	n/a	6	21	8	4	9
924.44384765625	n/a	PROB	1893261	n/a	LTP349	ltpFR2	23	n/a	n/a	n/a	6	8	2	1	5
926.04296875	n/a	PROB	1896536	n/a	LTP349	ltpFR2	23	n/a	n/a	n/a	6	17	9	2	6
928.22607421875	n/a	PROB	1901007	n/a	LTP349	ltpFR2	23	n/a	n/a	n/a	6	23	9	7	7
933.35595703125	n/a	PROB	1911513	n/a	LTP349	ltpFR2	23	n/a	n/a	n/a	6	13	7	4	2
936.17822265625	n/a	STOP	1917293	n/a	LTP349	ltpFR2	23	n/a	n/a	n/a	6	n/a	n/a	n/a	n/a
938.3212890625	n/a	REC_START	1921682	n/a	LTP349	ltpFR2	23	4	n/a	n/a	n/a	n/a	0	0	0
939.93896484375	n/a	REC_WORD	1924995	wordpools/wasnorm_wordpool_576.txt	LTP349	ltpFR2	23	4	LACE	792	n/a	n/a	0	0	0
946.78125	n/a	REC_WORD	1939008	wordpools/wasnorm_wordpool_576.txt	LTP349	ltpFR2	23	4	MONGOOSE	909	n/a	n/a	0	0	0
1028.759765625	n/a	DISTRACTOR	2106900	n/a	LTP349	ltpFR2	23	5	n/a	n/a	n/a	n/a	0	0	0
1028.759765625	n/a	START	2106900	n/a	LTP349	ltpFR2	23	n/a	n/a	n/a	7	n/a	n/a	n/a	n/a
1028.77685546875	n/a	PROB	2106935	n/a	LTP349	ltpFR2	23	n/a	n/a	n/a	7	15	7	6	2
1031.2587890625	n/a	PROB	2112018	n/a	LTP349	ltpFR2	23	n/a	n/a	n/a	7	21	7	7	7
1032.53955078125	n/a	PROB	2114641	n/a	LTP349	ltpFR2	23	n/a	n/a	n/a	7	9	2	4	3
1034.45556640625	n/a	PROB	2118565	n/a	LTP349	ltpFR2	23	n/a	n/a	n/a	7	6	4	1	1
1035.98974609375	n/a	PROB	2121707	n/a	LTP349	ltpFR2	23	n/a	n/a	n/a	7	11	2	1	8
1037.720703125	n/a	PROB	2125252	n/a	LTP349	ltpFR2	23	n/a	n/a	n/a	7	16	7	6	3
1039.7197265625	n/a	PROB	2129346	n/a	LTP349	ltpFR2	23	n/a	n/a	n/a	7	13	6	4	3
1041.38671875	n/a	PROB	2132760	n/a	LTP349	ltpFR2	23	n/a	n/a	n/a	7	12	2	5	5
1042.501953125	n/a	PROB	2135044	n/a	LTP349	ltpFR2	23	n/a	n/a	n/a	7	13	5	7	1
1044.1357421875	n/a	PROB	2138390	n/a	LTP349	ltpFR2	23	n/a	n/a	n/a	7	21	6	7	9
1045.884765625	n/a	PROB	2141972	n/a	LTP349	ltpFR2	23	n/a	n/a	n/a	7	12	2	1	9
1048.849609375	n/a	PROB	2148044	n/a	LTP349	ltpFR2	23	n/a	n/a	n/a	7	15	4	8	3
1052.7587890625	n/a	STOP	2156050	n/a	LTP349	ltpFR2	23	n/a	n/a	n/a	7	n/a	n/a	n/a	n/a
1053.6298828125	n/a	WORD	2157834	wordpools/wasnorm_wordpool_576.txt	LTP349	ltpFR2	23	5	TIMBER	1469	n/a	n/a	0	0	0
1056.24560546875	n/a	WORD	2163191	wordpools/wasnorm_wordpool_576.txt	LTP349	ltpFR2	23	5	VELVET	1555	n/a	n/a	0	0	0
1058.76171875	n/a	WORD	2168344	wordpools/wasnorm_wordpool_576.txt	LTP349	ltpFR2	23	5	CRYSTAL	418	n/a	n/a	0	0	0
1061.39404296875	n/a	WORD	2173735	wordpools/wasnorm_wordpool_576.txt	LTP349	ltpFR2	23	5	COLLEGE	346	n/a	n/a	0	0	0
1063.94287109375	n/a	WORD	2178955	wordpools/wasnorm_wordpool_576.txt	LTP349	ltpFR2	23	5	FATHER	554	n/a	n/a	0	0	0
1066.47412109375	n/a	WORD	2184139	wordpools/wasnorm_wordpool_576.txt	LTP349	ltpFR2	23	5	MOTHER	921	n/a	n/a	0	0	0
1069.2568359375	n/a	WORD	2189838	wordpools/wasnorm_wordpool_576.txt	LTP349	ltpFR2	23	5	GROUND	666	n/a	n/a	0	0	0
1071.98779296875	n/a	WORD	2195431	wordpools/wasnorm_wordpool_576.txt	LTP349	ltpFR2	23	5	FLOWER	584	n/a	n/a	0	0	0
1074.669921875	n/a	WORD	2200924	wordpools/wasnorm_wordpool_576.txt	LTP349	ltpFR2	23	5	BADGE	68	n/a	n/a	0	0	0
1077.2529296875	n/a	WORD	2206214	wordpools/wasnorm_wordpool_576.txt	LTP349	ltpFR2	23	5	PRAIRIE	1118	n/a	n/a	0	0	0
1079.93505859375	n/a	WORD	2211707	wordpools/wasnorm_wordpool_576.txt	LTP349	ltpFR2	23	5	KNUCKLE	789	n/a	n/a	0	0	0
1082.59912109375	n/a	WORD	2217163	wordpools/wasnorm_wordpool_576.txt	LTP349	ltpFR2	23	5	EYELASH	546	n/a	n/a	0	0	0
1085.08203125	n/a	WORD	2222248	wordpools/wasnorm_wordpool_576.txt	LTP349	ltpFR2	23	5	TWEEZERS	1526	n/a	n/a	0	0	0
1087.8642578125	n/a	WORD	2227946	wordpools/wasnorm_wordpool_576.txt	LTP349	ltpFR2	23	5	RIVER	1194	n/a	n/a	0	0	0
1090.52783203125	n/a	WORD	2233401	wordpools/wasnorm_wordpool_576.txt	LTP349	ltpFR2	23	5	GLACIER	638	n/a	n/a	0	0	0
1093.26123046875	n/a	WORD	2238999	wordpools/wasnorm_wordpool_576.txt	LTP349	ltpFR2	23	5	PLANT	1083	n/a	n/a	0	0	0
1095.72607421875	n/a	WORD	2244047	wordpools/wasnorm_wordpool_576.txt	LTP349	ltpFR2	23	5	HOOK	715	n/a	n/a	0	0	0
1098.541015625	n/a	WORD	2249812	wordpools/wasnorm_wordpool_576.txt	LTP349	ltpFR2	23	5	SKETCH	1315	n/a	n/a	0	0	0
1101.35693359375	n/a	WORD	2255579	wordpools/wasnorm_wordpool_576.txt	LTP349	ltpFR2	23	5	PORT	1110	n/a	n/a	0	0	0
1103.88916015625	n/a	WORD	2260765	wordpools/wasnorm_wordpool_576.txt	LTP349	ltpFR2	23	5	LOBSTER	837	n/a	n/a	0	0	0
1106.669921875	n/a	WORD	2266460	wordpools/wasnorm_wordpool_576.txt	LTP349	ltpFR2	23	5	STREAM	1392	n/a	n/a	0	0	0
1109.169921875	n/a	WORD	2271580	wordpools/wasnorm_wordpool_576.txt	LTP349	ltpFR2	23	5	KEYBOARD	774	n/a	n/a	0	0	0
1111.9521484375	n/a	WORD	2277278	wordpools/wasnorm_wordpool_576.txt	LTP349	ltpFR2	23	5	TRUMPET	1513	n/a	n/a	0	0	0
1114.7509765625	n/a	WORD	2283010	wordpools/wasnorm_wordpool_576.txt	LTP349	ltpFR2	23	5	DUST	508	n/a	n/a	0	0	0
1116.3671875	n/a	START	2286320	n/a	LTP349	ltpFR2	23	n/a	n/a	n/a	8	n/a	n/a	n/a	n/a
1117.21826171875	n/a	DISTRACTOR	2288063	n/a	LTP349	ltpFR2	23	5	n/a	n/a	n/a	n/a	0	0	0
1117.2333984375	n/a	PROB	2288094	n/a	LTP349	ltpFR2	23	n/a	n/a	n/a	8	21	5	7	9
1121.064453125	n/a	PROB	2295940	n/a	LTP349	ltpFR2	23	n/a	n/a	n/a	8	17	7	5	5
1122.38037109375	n/a	PROB	2298635	n/a	LTP349	ltpFR2	23	n/a	n/a	n/a	8	15	5	8	2
1123.6123046875	n/a	PROB	2301158	n/a	LTP349	ltpFR2	23	n/a	n/a	n/a	8	16	5	4	7
1125.09619140625	n/a	PROB	2304197	n/a	LTP349	ltpFR2	23	n/a	n/a	n/a	8	15	2	8	5
1126.3125	n/a	PROB	2306688	n/a	LTP349	ltpFR2	23	n/a	n/a	n/a	8	14	5	6	3
1127.67724609375	n/a	PROB	2309483	n/a	LTP349	ltpFR2	23	n/a	n/a	n/a	8	8	3	3	2
1128.92724609375	n/a	PROB	2312043	n/a	LTP349	ltpFR2	23	n/a	n/a	n/a	8	9	5	3	1
1130.326171875	n/a	PROB	2314908	n/a	LTP349	ltpFR2	23	n/a	n/a	n/a	8	15	3	7	5
1132.00927734375	n/a	PROB	2318355	n/a	LTP349	ltpFR2	23	n/a	n/a	n/a	8	9	2	2	5
1134.490234375	n/a	PROB	2323436	n/a	LTP349	ltpFR2	23	n/a	n/a	n/a	8	21	4	9	8
1137.572265625	n/a	PROB	2329748	n/a	LTP349	ltpFR2	23	n/a	n/a	n/a	8	18	4	5	9
1139.275390625	n/a	STOP	2333236	n/a	LTP349	ltpFR2	23	n/a	n/a	n/a	8	n/a	n/a	n/a	n/a
1142.154296875	n/a	REC_START	2339132	n/a	LTP349	ltpFR2	23	5	n/a	n/a	n/a	n/a	0	0	0
1146.486328125	n/a	REC_WORD	2348004	wordpools/wasnorm_wordpool_576.txt	LTP349	ltpFR2	23	5	TIMBER	1469	n/a	n/a	0	0	0
1147.45947265625	n/a	REC_WORD	2349997	wordpools/wasnorm_wordpool_576.txt	LTP349	ltpFR2	23	5	VELVET	1555	n/a	n/a	0	0	0
1148.67138671875	n/a	REC_WORD	2352479	wordpools/wasnorm_wordpool_576.txt	LTP349	ltpFR2	23	5	CRYSTAL	418	n/a	n/a	0	0	0
1149.45263671875	n/a	REC_WORD	2354079	wordpools/wasnorm_wordpool_576.txt	LTP349	ltpFR2	23	5	COLLEGE	346	n/a	n/a	0	0	0
1155.16650390625	n/a	REC_WORD	2365781	wordpools/wasnorm_wordpool_576.txt	LTP349	ltpFR2	23	5	PORT	1110	n/a	n/a	0	0	0
1156.43359375	n/a	REC_WORD	2368376	wordpools/wasnorm_wordpool_576.txt	LTP349	ltpFR2	23	5	LOBSTER	837	n/a	n/a	0	0	0
1156.8095703125	n/a	REC_WORD	2369146	wordpools/wasnorm_wordpool_576.txt	LTP349	ltpFR2	23	5	STREAM	1392	n/a	n/a	0	0	0
1166.3203125	n/a	REC_WORD	2388624	wordpools/wasnorm_wordpool_576.txt	LTP349	ltpFR2	23	5	PLANT	1083	n/a	n/a	0	0	0
1167.51953125	n/a	REC_WORD	2391080	wordpools/wasnorm_wordpool_576.txt	LTP349	ltpFR2	23	5	FLOWER	584	n/a	n/a	0	0	0
1169.57275390625	n/a	REC_WORD	2395285	wordpools/wasnorm_wordpool_576.txt	LTP349	ltpFR2	23	5	GROUND	666	n/a	n/a	0	0	0
1171.37255859375	n/a	REC_WORD	2398971	wordpools/wasnorm_wordpool_576.txt	LTP349	ltpFR2	23	5	DAISY	435	n/a	n/a	0	0	0
1175.74072265625	n/a	REC_WORD	2407917	wordpools/wasnorm_wordpool_576.txt	LTP349	ltpFR2	23	5	FATHER	554	n/a	n/a	0	0	0
1176.435546875	n/a	REC_WORD	2409340	wordpools/wasnorm_wordpool_576.txt	LTP349	ltpFR2	23	5	MOTHER	921	n/a	n/a	0	0	0
1200.974609375	n/a	REC_WORD	2459596	wordpools/wasnorm_wordpool_576.txt	LTP349	ltpFR2	23	5	EYELASH	546	n/a	n/a	0	0	0
1202.14599609375	n/a	REC_WORD	2461995	wordpools/wasnorm_wordpool_576.txt	LTP349	ltpFR2	23	5	MAMMAL	861	n/a	n/a	0	0	0
1203.2080078125	n/a	REC_WORD	2464170	wordpools/wasnorm_wordpool_576.txt	LTP349	ltpFR2	23	5	TWEEZERS	1526	n/a	n/a	0	0	0
1232.591796875	n/a	DISTRACTOR	2524348	n/a	LTP349	ltpFR2	23	6	n/a	n/a	n/a	n/a	0	0	0
1232.591796875	n/a	START	2524348	n/a	LTP349	ltpFR2	23	n/a	n/a	n/a	9	n/a	n/a	n/a	n/a
1232.60888671875	n/a	PROB	2524383	n/a	LTP349	ltpFR2	23	n/a	n/a	n/a	9	15	5	3	7
1234.69091796875	n/a	PROB	2528647	n/a	LTP349	ltpFR2	23	n/a	n/a	n/a	9	20	8	6	6
1236.158203125	n/a	PROB	2531652	n/a	LTP349	ltpFR2	23	n/a	n/a	n/a	9	20	9	8	3
1238.0400390625	n/a	PROB	2535506	n/a	LTP349	ltpFR2	23	n/a	n/a	n/a	9	14	6	4	4
1239.39013671875	n/a	PROB	2538271	n/a	LTP349	ltpFR2	23	n/a	n/a	n/a	9	18	4	7	7
1241.7041015625	n/a	PROB	2543010	n/a	LTP349	ltpFR2	23	n/a	n/a	n/a	9	19	8	9	2
1243.75390625	n/a	PROB	2547208	n/a	LTP349	ltpFR2	23	n/a	n/a	n/a	9	13	4	7	2
1245.30322265625	n/a	PROB	2550381	n/a	LTP349	ltpFR2	23	n/a	n/a	n/a	9	14	4	3	7
1246.8359375	n/a	PROB	2553520	n/a	LTP349	ltpFR2	23	n/a	n/a	n/a	9	22	8	9	5
1250.833984375	n/a	PROB	2561708	n/a	LTP349	ltpFR2	23	n/a	n/a	n/a	9	19	8	2	9
1252.31689453125	n/a	PROB	2564745	n/a	LTP349	ltpFR2	23	n/a	n/a	n/a	9	13	6	1	6
1253.783203125	n/a	PROB	2567748	n/a	LTP349	ltpFR2	23	n/a	n/a	n/a	9	12	5	2	5
1256.59130859375	n/a	STOP	2573499	n/a	LTP349	ltpFR2	23	n/a	n/a	n/a	9	n/a	n/a	n/a	n/a
1257.63037109375	n/a	WORD	2575627	wordpools/wasnorm_wordpool_576.txt	LTP349	ltpFR2	23	6	CACTUS	215	n/a	n/a	0	0	0
1260.31298828125	n/a	WORD	2581121	wordpools/wasnorm_wordpool_576.txt	LTP349	ltpFR2	23	6	SEASHORE	1263	n/a	n/a	0	0	0
1262.92822265625	n/a	WORD	2586477	wordpools/wasnorm_wordpool_576.txt	LTP349	ltpFR2	23	6	SNAKE	1333	n/a	n/a	0	0	0
1265.67626953125	n/a	WORD	2592105	wordpools/wasnorm_wordpool_576.txt	LTP349	ltpFR2	23	6	RODENT	1204	n/a	n/a	0	0	0
1268.208984375	n/a	WORD	2597292	wordpools/wasnorm_wordpool_576.txt	LTP349	ltpFR2	23	6	KITTEN	780	n/a	n/a	0	0	0
1270.791015625	n/a	WORD	2602580	wordpools/wasnorm_wordpool_576.txt	LTP349	ltpFR2	23	6	CAPTAIN	239	n/a	n/a	0	0	0
1273.50537109375	n/a	WORD	2608139	wordpools/wasnorm_wordpool_576.txt	LTP349	ltpFR2	23	6	DOCTOR	478	n/a	n/a	0	0	0
1275.98828125	n/a	WORD	2613224	wordpools/wasnorm_wordpool_576.txt	LTP349	ltpFR2	23	6	ARTIST	43	n/a	n/a	0	0	0
1278.75439453125	n/a	WORD	2618889	wordpools/wasnorm_wordpool_576.txt	LTP349	ltpFR2	23	6	NEPTUNE	943	n/a	n/a	0	0	0
1281.236328125	n/a	WORD	2623972	wordpools/wasnorm_wordpool_576.txt	LTP349	ltpFR2	23	6	SATURN	1236	n/a	n/a	0	0	0
1283.91845703125	n/a	WORD	2629465	wordpools/wasnorm_wordpool_576.txt	LTP349	ltpFR2	23	6	COD	340	n/a	n/a	0	0	0
1286.59912109375	n/a	WORD	2634955	wordpools/wasnorm_wordpool_576.txt	LTP349	ltpFR2	23	6	BASEMENT	94	n/a	n/a	0	0	0
1289.26513671875	n/a	WORD	2640415	wordpools/wasnorm_wordpool_576.txt	LTP349	ltpFR2	23	6	SPINACH	1352	n/a	n/a	0	0	0
1291.84716796875	n/a	WORD	2645703	wordpools/wasnorm_wordpool_576.txt	LTP349	ltpFR2	23	6	WOLF	1619	n/a	n/a	0	0	0
1294.396484375	n/a	WORD	2650924	wordpools/wasnorm_wordpool_576.txt	LTP349	ltpFR2	23	6	SICKLE	1302	n/a	n/a	0	0	0
1296.9443359375	n/a	WORD	2656142	wordpools/wasnorm_wordpool_576.txt	LTP349	ltpFR2	23	6	CUSTARD	429	n/a	n/a	0	0	0
1299.5263671875	n/a	WORD	2661430	wordpools/wasnorm_wordpool_576.txt	LTP349	ltpFR2	23	6	FLUTE	585	n/a	n/a	0	0	0
1302.25830078125	n/a	WORD	2667025	wordpools/wasnorm_wordpool_576.txt	LTP349	ltpFR2	23	6	HANDCUFFS	685	n/a	n/a	0	0	0
1305.07421875	n/a	WORD	2672792	wordpools/wasnorm_wordpool_576.txt	LTP349	ltpFR2	23	6	FREEZER	604	n/a	n/a	0	0	0
1307.62255859375	n/a	WORD	2678011	wordpools/wasnorm_wordpool_576.txt	LTP349	ltpFR2	23	6	SAND	1230	n/a	n/a	0	0	0
1310.37158203125	n/a	WORD	2683641	wordpools/wasnorm_wordpool_576.txt	LTP349	ltpFR2	23	6	SCISSORS	1250	n/a	n/a	0	0	0
1312.8203125	n/a	WORD	2688656	wordpools/wasnorm_wordpool_576.txt	LTP349	ltpFR2	23	6	NIGHTGOWN	953	n/a	n/a	0	0	0
1315.6015625	n/a	WORD	2694352	wordpools/wasnorm_wordpool_576.txt	LTP349	ltpFR2	23	6	MUSHROOM	934	n/a	n/a	0	0	0
1318.134765625	n/a	WORD	2699540	wordpools/wasnorm_wordpool_576.txt	LTP349	ltpFR2	23	6	DOG	480	n/a	n/a	0	0	0
1319.75048828125	n/a	START	2702849	n/a	LTP349	ltpFR2	23	n/a	n/a	n/a	10	n/a	n/a	n/a	n/a
1320.638671875	n/a	DISTRACTOR	2704668	n/a	LTP349	ltpFR2	23	6	n/a	n/a	n/a	n/a	0	0	0
1320.6484375	n/a	PROB	2704688	n/a	LTP349	ltpFR2	23	n/a	n/a	n/a	10	12	8	2	2
1322.4326171875	n/a	PROB	2708342	n/a	LTP349	ltpFR2	23	n/a	n/a	n/a	10	13	3	7	3
1324.41455078125	n/a	PROB	2712401	n/a	LTP349	ltpFR2	23	n/a	n/a	n/a	10	14	6	4	4
1325.98046875	n/a	PROB	2715608	n/a	LTP349	ltpFR2	23	n/a	n/a	n/a	10	6	3	2	1
1328.21240234375	n/a	PROB	2720179	n/a	LTP349	ltpFR2	23	n/a	n/a	n/a	10	18	6	9	3
1329.99560546875	n/a	PROB	2723831	n/a	LTP349	ltpFR2	23	n/a	n/a	n/a	10	14	8	4	2
1332.62646484375	n/a	PROB	2729219	n/a	LTP349	ltpFR2	23	n/a	n/a	n/a	10	17	5	7	5
1334.09375	n/a	PROB	2732224	n/a	LTP349	ltpFR2	23	n/a	n/a	n/a	10	12	2	2	8
1336.7587890625	n/a	PROB	2737682	n/a	LTP349	ltpFR2	23	n/a	n/a	n/a	10	14	2	7	5
1338.556640625	n/a	PROB	2741364	n/a	LTP349	ltpFR2	23	n/a	n/a	n/a	10	20	9	3	8
1341.439453125	n/a	PROB	2747268	n/a	LTP349	ltpFR2	23	n/a	n/a	n/a	10	11	1	2	8
1343.30078125	n/a	STOP	2751080	n/a	LTP349	ltpFR2	23	n/a	n/a	n/a	10	n/a	n/a	n/a	n/a
1345.5537109375	n/a	REC_START	2755694	n/a	LTP349	ltpFR2	23	6	n/a	n/a	n/a	n/a	0	0	0
1347.77978515625	n/a	REC_WORD	2760253	wordpools/wasnorm_wordpool_576.txt	LTP349	ltpFR2	23	6	FREEZER	604	n/a	n/a	0	0	0
1348.9345703125	n/a	REC_WORD	2762618	wordpools/wasnorm_wordpool_576.txt	LTP349	ltpFR2	23	6	SAND	1230	n/a	n/a	0	0	0
1356.8359375	n/a	REC_WORD	2778800	wordpools/wasnorm_wordpool_576.txt	LTP349	ltpFR2	23	6	SCISSORS	1250	n/a	n/a	0	0	0
1359.177734375	n/a	REC_WORD	2783596	wordpools/wasnorm_wordpool_576.txt	LTP349	ltpFR2	23	6	NIGHTGOWN	953	n/a	n/a	0	0	0
1391.169921875	n/a	REC_WORD	2849116	wordpools/wasnorm_wordpool_576.txt	LTP349	ltpFR2	23	6	SICKLE	1302	n/a	n/a	0	0	0
1398.48388671875	n/a	REC_WORD	2864095	wordpools/wasnorm_wordpool_576.txt	LTP349	ltpFR2	23	6	HANDCUFFS	685	n/a	n/a	0	0	0
1409.3232421875	n/a	REC_WORD	2886294	wordpools/wasnorm_wordpool_576.txt	LTP349	ltpFR2	23	6	CACTUS	215	n/a	n/a	0	0	0
1435.9931640625	n/a	DISTRACTOR	2940914	n/a	LTP349	ltpFR2	23	7	n/a	n/a	n/a	n/a	0	0	0
1435.9931640625	n/a	START	2940914	n/a	LTP349	ltpFR2	23	n/a	n/a	n/a	11	n/a	n/a	n/a	n/a
1436.01025390625	n/a	PROB	2940949	n/a	LTP349	ltpFR2	23	n/a	n/a	n/a	11	20	9	5	6
1438.8583984375	n/a	PROB	2946782	n/a	LTP349	ltpFR2	23	n/a	n/a	n/a	11	13	5	1	7
1441.00732421875	n/a	PROB	2951183	n/a	LTP349	ltpFR2	23	n/a	n/a	n/a	11	21	9	4	8
1444.25634765625	n/a	PROB	2957837	n/a	LTP349	ltpFR2	23	n/a	n/a	n/a	11	10	2	3	5
1445.78857421875	n/a	PROB	2960975	n/a	LTP349	ltpFR2	23	n/a	n/a	n/a	11	11	1	3	7
1450.21923828125	n/a	PROB	2970049	n/a	LTP349	ltpFR2	23	n/a	n/a	n/a	11	19	6	4	9
1451.95263671875	n/a	PROB	2973599	n/a	LTP349	ltpFR2	23	n/a	n/a	n/a	11	15	1	9	5
1453.13525390625	n/a	PROB	2976021	n/a	LTP349	ltpFR2	23	n/a	n/a	n/a	11	18	5	6	7
1457.13330078125	n/a	PROB	2984209	n/a	LTP349	ltpFR2	23	n/a	n/a	n/a	11	14	4	3	7
1459.0615234375	n/a	STOP	2988158	n/a	LTP349	ltpFR2	23	n/a	n/a	n/a	11	n/a	n/a	n/a	n/a
1460.9814453125	n/a	WORD	2992090	wordpools/wasnorm_wordpool_576.txt	LTP349	ltpFR2	23	7	LETTUCE	814	n/a	n/a	0	0	0
1463.6123046875	n/a	WORD	2997478	wordpools/wasnorm_wordpool_576.txt	LTP349	ltpFR2	23	7	SCHOOL	1248	n/a	n/a	0	0	0
1466.29541015625	n/a	WORD	3002973	wordpools/wasnorm_wordpool_576.txt	LTP349	ltpFR2	23	7	BROOK	177	n/a	n/a	0	0	0
1469.060546875	n/a	WORD	3008636	wordpools/wasnorm_wordpool_576.txt	LTP349	ltpFR2	23	7	GREASE	660	n/a	n/a	0	0	0
1471.79248046875	n/a	WORD	3014231	wordpools/wasnorm_wordpool_576.txt	LTP349	ltpFR2	23	7	SUITCASE	1403	n/a	n/a	0	0	0
1474.4736328125	n/a	WORD	3019722	wordpools/wasnorm_wordpool_576.txt	LTP349	ltpFR2	23	7	CASHEW	253	n/a	n/a	0	0	0
1477.17333984375	n/a	WORD	3025251	wordpools/wasnorm_wordpool_576.txt	LTP349	ltpFR2	23	7	DUNGEON	507	n/a	n/a	0	0	0
1479.6376953125	n/a	WORD	3030298	wordpools/wasnorm_wordpool_576.txt	LTP349	ltpFR2	23	7	BUILDER	190	n/a	n/a	0	0	0
1482.3876953125	n/a	WORD	3035930	wordpools/wasnorm_wordpool_576.txt	LTP349	ltpFR2	23	7	PUDDING	1139	n/a	n/a	0	0	0
1485.16943359375	n/a	WORD	3041627	wordpools/wasnorm_wordpool_576.txt	LTP349	ltpFR2	23	7	KIDNEY	776	n/a	n/a	0	0	0
1487.95166015625	n/a	WORD	3047325	wordpools/wasnorm_wordpool_576.txt	LTP349	ltpFR2	23	7	LIVER	833	n/a	n/a	0	0	0
1490.482421875	n/a	WORD	3052508	wordpools/wasnorm_wordpool_576.txt	LTP349	ltpFR2	23	7	LILY	821	n/a	n/a	0	0	0
1492.931640625	n/a	WORD	3057524	wordpools/wasnorm_wordpool_576.txt	LTP349	ltpFR2	23	7	CARROT	249	n/a	n/a	0	0	0
1495.4794921875	n/a	WORD	3062742	wordpools/wasnorm_wordpool_576.txt	LTP349	ltpFR2	23	7	MONKEY	911	n/a	n/a	0	0	0
1497.9794921875	n/a	WORD	3067862	wordpools/wasnorm_wordpool_576.txt	LTP349	ltpFR2	23	7	PASTRY	1022	n/a	n/a	0	0	0
1500.7275390625	n/a	WORD	3073490	wordpools/wasnorm_wordpool_576.txt	LTP349	ltpFR2	23	7	HOSTAGE	722	n/a	n/a	0	0	0
1503.44384765625	n/a	WORD	3079053	wordpools/wasnorm_wordpool_576.txt	LTP349	ltpFR2	23	7	PUDDLE	1140	n/a	n/a	0	0	0
1506.0087890625	n/a	WORD	3084306	wordpools/wasnorm_wordpool_576.txt	LTP349	ltpFR2	23	7	PENGUIN	1044	n/a	n/a	0	0	0
1508.82470703125	n/a	WORD	3090073	wordpools/wasnorm_wordpool_576.txt	LTP349	ltpFR2	23	7	BEAST	108	n/a	n/a	0	0	0
1511.43994140625	n/a	WORD	3095429	wordpools/wasnorm_wordpool_576.txt	LTP349	ltpFR2	23	7	LEAF	808	n/a	n/a	0	0	0
1513.87158203125	n/a	WORD	3100409	wordpools/wasnorm_wordpool_576.txt	LTP349	ltpFR2	23	7	CASTLE	256	n/a	n/a	0	0	0
1516.35400390625	n/a	WORD	3105493	wordpools/wasnorm_wordpool_576.txt	LTP349	ltpFR2	23	7	PADDLE	1000	n/a	n/a	0	0	0
1518.96875	n/a	WORD	3110848	wordpools/wasnorm_wordpool_576.txt	LTP349	ltpFR2	23	7	MARINE	869	n/a	n/a	0	0	0
1521.78466796875	n/a	WORD	3116615	wordpools/wasnorm_wordpool_576.txt	LTP349	ltpFR2	23	7	SNORKEL	1336	n/a	n/a	0	0	0
1523.40087890625	n/a	START	3119925	n/a	LTP349	ltpFR2	23	n/a	n/a	n/a	12	n/a	n/a	n/a	n/a
1524.5	n/a	DISTRACTOR	3122176	n/a	LTP349	ltpFR2	23	7	n/a	n/a	n/a	n/a	0	0	0
1524.51611328125	n/a	PROB	3122209	n/a	LTP349	ltpFR2	23	n/a	n/a	n/a	12	18	8	4	6
1526.89892578125	n/a	PROB	3127089	n/a	LTP349	ltpFR2	23	n/a	n/a	n/a	12	15	9	4	2
1528.72998046875	n/a	PROB	3130839	n/a	LTP349	ltpFR2	23	n/a	n/a	n/a	12	13	7	3	3
1530.1640625	n/a	PROB	3133776	n/a	LTP349	ltpFR2	23	n/a	n/a	n/a	12	13	1	4	8
1531.61181640625	n/a	PROB	3136741	n/a	LTP349	ltpFR2	23	n/a	n/a	n/a	12	14	8	3	2
1533.39599609375	n/a	PROB	3140395	n/a	LTP349	ltpFR2	23	n/a	n/a	n/a	12	14	2	7	5
1535.22802734375	n/a	PROB	3144147	n/a	LTP349	ltpFR2	23	n/a	n/a	n/a	12	15	5	3	7
1538.826171875	n/a	PROB	3151516	n/a	LTP349	ltpFR2	23	n/a	n/a	n/a	12	14	3	5	6
1540.35888671875	n/a	PROB	3154655	n/a	LTP349	ltpFR2	23	n/a	n/a	n/a	12	15	2	4	9
1542.125	n/a	PROB	3158272	n/a	LTP349	ltpFR2	23	n/a	n/a	n/a	12	9	2	5	2
1543.47314453125	n/a	PROB	3161033	n/a	LTP349	ltpFR2	23	n/a	n/a	n/a	12	11	1	6	4
1544.7568359375	n/a	PROB	3163662	n/a	LTP349	ltpFR2	23	n/a	n/a	n/a	12	11	2	6	4
1545.86181640625	n/a	STOP	3165925	n/a	LTP349	ltpFR2	23	n/a	n/a	n/a	12	n/a	n/a	n/a	n/a
1549.35595703125	n/a	REC_START	3173081	n/a	LTP349	ltpFR2	23	7	n/a	n/a	n/a	n/a	0	0	0
1550.60009765625	n/a	REC_WORD	3175629	wordpools/wasnorm_wordpool_576.txt	LTP349	ltpFR2	23	7	SNORKEL	1336	n/a	n/a	0	0	0
1552.72802734375	n/a	REC_WORD	3179987	wordpools/wasnorm_wordpool_576.txt	LTP349	ltpFR2	23	7	LETTUCE	814	n/a	n/a	0	0	0
1554.39990234375	n/a	REC_WORD	3183411	wordpools/wasnorm_wordpool_576.txt	LTP349	ltpFR2	23	7	BROOK	177	n/a	n/a	0	0	0
1555.369140625	n/a	REC_WORD	3185396	wordpools/wasnorm_wordpool_576.txt	LTP349	ltpFR2	23	7	SCHOOL	1248	n/a	n/a	0	0	0
1556.76025390625	n/a	REC_WORD	3188245	wordpools/wasnorm_wordpool_576.txt	LTP349	ltpFR2	23	7	DUNGEON	507	n/a	n/a	0	0	0
1557.9189453125	n/a	REC_WORD	3190618	wordpools/wasnorm_wordpool_576.txt	LTP349	ltpFR2	23	7	MONKEY	911	n/a	n/a	0	0	0
1560.65234375	n/a	REC_WORD	3196216	wordpools/wasnorm_wordpool_576.txt	LTP349	ltpFR2	23	7	LIVER	833	n/a	n/a	0	0	0
1562.05029296875	n/a	REC_WORD	3199079	wordpools/wasnorm_wordpool_576.txt	LTP349	ltpFR2	23	7	KIDNEY	776	n/a	n/a	0	0	0
1562.7470703125	n/a	REC_WORD	3200506	wordpools/wasnorm_wordpool_576.txt	LTP349	ltpFR2	23	7	LILY	821	n/a	n/a	0	0	0
1564.6650390625	n/a	REC_WORD	3204434	wordpools/wasnorm_wordpool_576.txt	LTP349	ltpFR2	23	7	CASHEW	253	n/a	n/a	0	0	0
1565.67626953125	n/a	REC_WORD	3206505	wordpools/wasnorm_wordpool_576.txt	LTP349	ltpFR2	23	7	GREASE	660	n/a	n/a	0	0	0
1566.71826171875	n/a	REC_WORD	3208639	wordpools/wasnorm_wordpool_576.txt	LTP349	ltpFR2	23	7	SUITCASE	1403	n/a	n/a	0	0	0
1585.76220703125	n/a	REC_WORD	3247641	wordpools/wasnorm_wordpool_576.txt	LTP349	ltpFR2	23	7	PENGUIN	1044	n/a	n/a	0	0	0
1604.41259765625	n/a	REC_WORD_VV	3285837	wordpools/wasnorm_wordpool_576.txt	LTP349	ltpFR2	23	7	<>	-1	n/a	n/a	0	0	0
1605.0673828125	n/a	REC_WORD	3287178	wordpools/wasnorm_wordpool_576.txt	LTP349	ltpFR2	23	7	DUNGEON	507	n/a	n/a	0	0	0
1639.8095703125	n/a	WORD	3358330	wordpools/wasnorm_wordpool_576.txt	LTP349	ltpFR2	23	8	CATCHER	258	n/a	n/a	0	0	0
1642.32568359375	n/a	WORD	3363483	wordpools/wasnorm_wordpool_576.txt	LTP349	ltpFR2	23	8	TRIBE	1505	n/a	n/a	0	0	0
1645.140625	n/a	WORD	3369248	wordpools/wasnorm_wordpool_576.txt	LTP349	ltpFR2	23	8	VENUS	1557	n/a	n/a	0	0	0
1647.62158203125	n/a	WORD	3374329	wordpools/wasnorm_wordpool_576.txt	LTP349	ltpFR2	23	8	HARP	689	n/a	n/a	0	0	0
1650.07177734375	n/a	WORD	3379347	wordpools/wasnorm_wordpool_576.txt	LTP349	ltpFR2	23	8	CONCERT	360	n/a	n/a	0	0	0
1652.88671875	n/a	WORD	3385112	wordpools/wasnorm_wordpool_576.txt	LTP349	ltpFR2	23	8	MASK	876	n/a	n/a	0	0	0
1655.65185546875	n/a	WORD	3390775	wordpools/wasnorm_wordpool_576.txt	LTP349	ltpFR2	23	8	FRECKLE	602	n/a	n/a	0	0	0
1658.4345703125	n/a	WORD	3396474	wordpools/wasnorm_wordpool_576.txt	LTP349	ltpFR2	23	8	SHIRT	1287	n/a	n/a	0	0	0
1660.94970703125	n/a	WORD	3401625	wordpools/wasnorm_wordpool_576.txt	LTP349	ltpFR2	23	8	SALESMAN	1225	n/a	n/a	0	0	0
1663.58056640625	n/a	WORD	3407013	wordpools/wasnorm_wordpool_576.txt	LTP349	ltpFR2	23	8	SKATE	1313	n/a	n/a	0	0	0
1666.263671875	n/a	WORD	3412508	wordpools/wasnorm_wordpool_576.txt	LTP349	ltpFR2	23	8	TORCH	1484	n/a	n/a	0	0	0
1668.74560546875	n/a	WORD	3417591	wordpools/wasnorm_wordpool_576.txt	LTP349	ltpFR2	23	8	ONION	977	n/a	n/a	0	0	0
1671.427734375	n/a	WORD	3423084	wordpools/wasnorm_wordpool_576.txt	LTP349	ltpFR2	23	8	PAINTING	1005	n/a	n/a	0	0	0
1674.24365234375	n/a	WORD	3428851	wordpools/wasnorm_wordpool_576.txt	LTP349	ltpFR2	23	8	ELK	526	n/a	n/a	0	0	0
1676.69091796875	n/a	WORD	3433863	wordpools/wasnorm_wordpool_576.txt	LTP349	ltpFR2	23	8	REINDEER	1181	n/a	n/a	0	0	0
1679.423828125	n/a	WORD	3439460	wordpools/wasnorm_wordpool_576.txt	LTP349	ltpFR2	23	8	BIBLE	124	n/a	n/a	0	0	0
1682.2060546875	n/a	WORD	3445158	wordpools/wasnorm_wordpool_576.txt	LTP349	ltpFR2	23	8	PLASTER	1085	n/a	n/a	0	0	0
1685.0380859375	n/a	WORD	3450958	wordpools/wasnorm_wordpool_576.txt	LTP349	ltpFR2	23	8	ANGEL	22	n/a	n/a	0	0	0
1687.81982421875	n/a	WORD	3456655	wordpools/wasnorm_wordpool_576.txt	LTP349	ltpFR2	23	8	SPONGE	1355	n/a	n/a	0	0	0
1690.26904296875	n/a	WORD	3461671	wordpools/wasnorm_wordpool_576.txt	LTP349	ltpFR2	23	8	WINDSHIELD	1612	n/a	n/a	0	0	0
1692.80078125	n/a	WORD	3466856	wordpools/wasnorm_wordpool_576.txt	LTP349	ltpFR2	23	8	CHAMBER	277	n/a	n/a	0	0	0
1695.46484375	n/a	WORD	3472312	wordpools/wasnorm_wordpool_576.txt	LTP349	ltpFR2	23	8	SCULPTURE	1258	n/a	n/a	0	0	0
1698.1650390625	n/a	WORD	3477842	wordpools/wasnorm_wordpool_576.txt	LTP349	ltpFR2	23	8	SKUNK	1321	n/a	n/a	0	0	0
1700.64599609375	n/a	WORD	3482923	wordpools/wasnorm_wordpool_576.txt	LTP349	ltpFR2	23	8	GODDESS	646	n/a	n/a	0	0	0
1702.26318359375	n/a	START	3486235	n/a	LTP349	ltpFR2	23	n/a	n/a	n/a	13	n/a	n/a	n/a	n/a
1703.30419921875	n/a	DISTRACTOR	3488367	n/a	LTP349	ltpFR2	23	8	n/a	n/a	n/a	n/a	0	0	0
1703.31201171875	n/a	PROB	3488383	n/a	LTP349	ltpFR2	23	n/a	n/a	n/a	13	23	9	7	7
1705.994140625	n/a	PROB	3493876	n/a	LTP349	ltpFR2	23	n/a	n/a	n/a	13	25	8	7	8
1707.744140625	n/a	PROB	3497460	n/a	LTP349	ltpFR2	23	n/a	n/a	n/a	13	4	2	1	1
1709.4921875	n/a	PROB	3501040	n/a	LTP349	ltpFR2	23	n/a	n/a	n/a	13	22	6	8	8
1713.14111328125	n/a	PROB	3508513	n/a	LTP349	ltpFR2	23	n/a	n/a	n/a	13	20	7	4	9
1715.63916015625	n/a	PROB	3513629	n/a	LTP349	ltpFR2	23	n/a	n/a	n/a	13	10	3	1	6
1718.2880859375	n/a	PROB	3519054	n/a	LTP349	ltpFR2	23	n/a	n/a	n/a	13	20	5	8	7
1720.10400390625	n/a	PROB	3522773	n/a	LTP349	ltpFR2	23	n/a	n/a	n/a	13	20	4	7	9
1722.10302734375	n/a	PROB	3526867	n/a	LTP349	ltpFR2	23	n/a	n/a	n/a	13	21	9	6	6
1723.8349609375	n/a	PROB	3530414	n/a	LTP349	ltpFR2	23	n/a	n/a	n/a	13	18	1	8	9
1725.59033203125	n/a	STOP	3534009	n/a	LTP349	ltpFR2	23	n/a	n/a	n/a	13	n/a	n/a	n/a	n/a
1728.2021484375	n/a	REC_START	3539358	n/a	LTP349	ltpFR2	23	8	n/a	n/a	n/a	n/a	0	0	0
1802.57080078125	n/a	REC_WORD_VV	3691665	wordpools/wasnorm_wordpool_576.txt	LTP349	ltpFR2	23	8	<>	-1	n/a	n/a	0	0	0
1804.74560546875	n/a	REST_REWET	3696119	n/a	LTP349	ltpFR2	23	8	n/a	n/a	n/a	n/a	0	0	0
1871.04736328125	n/a	WORD	3831905	wordpools/wasnorm_wordpool_576.txt	LTP349	ltpFR2	23	9	SALAD	1224	n/a	n/a	0	0	0
1873.54541015625	n/a	WORD	3837021	wordpools/wasnorm_wordpool_576.txt	LTP349	ltpFR2	23	9	PEOPLE	1046	n/a	n/a	0	0	0
1876.3271484375	n/a	WORD	3842718	wordpools/wasnorm_wordpool_576.txt	LTP349	ltpFR2	23	9	CLOUD	328	n/a	n/a	0	0	0
1878.9931640625	n/a	WORD	3848178	wordpools/wasnorm_wordpool_576.txt	LTP349	ltpFR2	23	9	CASKET	255	n/a	n/a	0	0	0
1881.59130859375	n/a	WORD	3853499	wordpools/wasnorm_wordpool_576.txt	LTP349	ltpFR2	23	9	TOMBSTONE	1478	n/a	n/a	0	0	0
1884.0400390625	n/a	WORD	3858514	wordpools/wasnorm_wordpool_576.txt	LTP349	ltpFR2	23	9	BEETLE	116	n/a	n/a	0	0	0
1886.822265625	n/a	WORD	3864212	wordpools/wasnorm_wordpool_576.txt	LTP349	ltpFR2	23	9	CONVICT	371	n/a	n/a	0	0	0
1889.271484375	n/a	WORD	3869228	wordpools/wasnorm_wordpool_576.txt	LTP349	ltpFR2	23	9	HEART	697	n/a	n/a	0	0	0
1892.08642578125	n/a	WORD	3874993	wordpools/wasnorm_wordpool_576.txt	LTP349	ltpFR2	23	9	FILM	565	n/a	n/a	0	0	0
1894.78515625	n/a	WORD	3880520	wordpools/wasnorm_wordpool_576.txt	LTP349	ltpFR2	23	9	DONOR	485	n/a	n/a	0	0	0
1897.38427734375	n/a	WORD	3885843	wordpools/wasnorm_wordpool_576.txt	LTP349	ltpFR2	23	9	PASTA	1021	n/a	n/a	0	0	0
1900.19921875	n/a	WORD	3891608	wordpools/wasnorm_wordpool_576.txt	LTP349	ltpFR2	23	9	COCOON	339	n/a	n/a	0	0	0
1902.68017578125	n/a	WORD	3896689	wordpools/wasnorm_wordpool_576.txt	LTP349	ltpFR2	23	9	CREATURE	403	n/a	n/a	0	0	0
1905.29638671875	n/a	WORD	3902047	wordpools/wasnorm_wordpool_576.txt	LTP349	ltpFR2	23	9	PONY	1102	n/a	n/a	0	0	0
1907.74560546875	n/a	WORD	3907063	wordpools/wasnorm_wordpool_576.txt	LTP349	ltpFR2	23	9	CIRCUS	311	n/a	n/a	0	0	0
1910.21142578125	n/a	WORD	3912113	wordpools/wasnorm_wordpool_576.txt	LTP349	ltpFR2	23	9	INMATE	738	n/a	n/a	0	0	0
1912.75927734375	n/a	WORD	3917331	wordpools/wasnorm_wordpool_576.txt	LTP349	ltpFR2	23	9	BUILDING	191	n/a	n/a	0	0	0
1915.408203125	n/a	WORD	3922756	wordpools/wasnorm_wordpool_576.txt	LTP349	ltpFR2	23	9	SHRIMP	1297	n/a	n/a	0	0	0
1918.04052734375	n/a	WORD	3928147	wordpools/wasnorm_wordpool_576.txt	LTP349	ltpFR2	23	9	FLESH	579	n/a	n/a	0	0	0
1920.67138671875	n/a	WORD	3933535	wordpools/wasnorm_wordpool_576.txt	LTP349	ltpFR2	23	9	JEEP	753	n/a	n/a	0	0	0
1923.3544921875	n/a	WORD	3939030	wordpools/wasnorm_wordpool_576.txt	LTP349	ltpFR2	23	9	NOMAD	955	n/a	n/a	0	0	0
1926.11962890625	n/a	WORD	3944693	wordpools/wasnorm_wordpool_576.txt	LTP349	ltpFR2	23	9	MISTER	901	n/a	n/a	0	0	0
1928.83544921875	n/a	WORD	3950255	wordpools/wasnorm_wordpool_576.txt	LTP349	ltpFR2	23	9	PUPIL	1143	n/a	n/a	0	0	0
1931.54931640625	n/a	WORD	3955813	wordpools/wasnorm_wordpool_576.txt	LTP349	ltpFR2	23	9	SINK	1309	n/a	n/a	0	0	0
1933.16650390625	n/a	START	3959125	n/a	LTP349	ltpFR2	23	n/a	n/a	n/a	14	n/a	n/a	n/a	n/a
1934.03564453125	n/a	DISTRACTOR	3960905	n/a	LTP349	ltpFR2	23	9	n/a	n/a	n/a	n/a	0	0	0
1934.0498046875	n/a	PROB	3960934	n/a	LTP349	ltpFR2	23	n/a	n/a	n/a	14	17	3	9	5
1937.33056640625	n/a	PROB	3967653	n/a	LTP349	ltpFR2	23	n/a	n/a	n/a	14	16	7	3	6
1939.12939453125	n/a	PROB	3971337	n/a	LTP349	ltpFR2	23	n/a	n/a	n/a	14	13	1	4	8
1941.3955078125	n/a	PROB	3975978	n/a	LTP349	ltpFR2	23	n/a	n/a	n/a	14	6	2	1	3
1944.310546875	n/a	PROB	3981948	n/a	LTP349	ltpFR2	23	n/a	n/a	n/a	14	20	9	8	3
1947.2265625	n/a	PROB	3987920	n/a	LTP349	ltpFR2	23	n/a	n/a	n/a	14	19	9	6	4
1949.02587890625	n/a	PROB	3991605	n/a	LTP349	ltpFR2	23	n/a	n/a	n/a	14	16	3	5	8
1950.974609375	n/a	PROB	3995596	n/a	LTP349	ltpFR2	23	n/a	n/a	n/a	14	19	9	2	8
1952.53955078125	n/a	PROB	3998801	n/a	LTP349	ltpFR2	23	n/a	n/a	n/a	14	6	2	2	2
1953.87255859375	n/a	PROB	4001531	n/a	LTP349	ltpFR2	23	n/a	n/a	n/a	14	12	4	2	6
1957.16552734375	n/a	STOP	4008275	n/a	LTP349	ltpFR2	23	n/a	n/a	n/a	14	n/a	n/a	n/a	n/a
1959.07080078125	n/a	REC_START	4012177	n/a	LTP349	ltpFR2	23	9	n/a	n/a	n/a	n/a	0	0	0
1960.7197265625	n/a	REC_WORD	4015554	wordpools/wasnorm_wordpool_576.txt	LTP349	ltpFR2	23	9	CLOUD	328	n/a	n/a	0	0	0
1961.640625	n/a	REC_WORD_VV	4017440	wordpools/wasnorm_wordpool_576.txt	LTP349	ltpFR2	23	9	<>	-1	n/a	n/a	0	0	0
1962.16552734375	n/a	REC_WORD	4018515	wordpools/wasnorm_wordpool_576.txt	LTP349	ltpFR2	23	9	CLOUD	328	n/a	n/a	0	0	0
1963.228515625	n/a	REC_WORD	4020692	wordpools/wasnorm_wordpool_576.txt	LTP349	ltpFR2	23	9	CIRCUS	311	n/a	n/a	0	0	0
1964.091796875	n/a	REC_WORD	4022460	wordpools/wasnorm_wordpool_576.txt	LTP349	ltpFR2	23	9	CONVICT	371	n/a	n/a	0	0	0
1965.3330078125	n/a	REC_WORD	4025002	wordpools/wasnorm_wordpool_576.txt	LTP349	ltpFR2	23	9	INMATE	738	n/a	n/a	0	0	0
1971.5400390625	n/a	REC_WORD	4037714	wordpools/wasnorm_wordpool_576.txt	LTP349	ltpFR2	23	9	TOMBSTONE	1478	n/a	n/a	0	0	0
1972.77978515625	n/a	REC_WORD	4040253	wordpools/wasnorm_wordpool_576.txt	LTP349	ltpFR2	23	9	GRAVY	-1	n/a	n/a	0	0	0
1974.416015625	n/a	REC_WORD	4043604	wordpools/wasnorm_wordpool_576.txt	LTP349	ltpFR2	23	9	GRAVY	-1	n/a	n/a	0	0	0
1976.0146484375	n/a	REC_WORD	4046878	wordpools/wasnorm_wordpool_576.txt	LTP349	ltpFR2	23	9	GRAVE	658	n/a	n/a	0	0	0
1976.81103515625	n/a	REC_WORD	4048509	wordpools/wasnorm_wordpool_576.txt	LTP349	ltpFR2	23	9	GRAVE	658	n/a	n/a	0	0	0
1991.82177734375	n/a	REC_WORD	4079251	wordpools/wasnorm_wordpool_576.txt	LTP349	ltpFR2	23	9	CREATURE	403	n/a	n/a	0	0	0
1993.1240234375	n/a	REC_WORD	4081918	wordpools/wasnorm_wordpool_576.txt	LTP349	ltpFR2	23	9	PONY	1102	n/a	n/a	0	0	0
2049.525390625	n/a	DISTRACTOR	4197428	n/a	LTP349	ltpFR2	23	10	n/a	n/a	n/a	n/a	0	0	0
2049.525390625	n/a	START	4197428	n/a	LTP349	ltpFR2	23	n/a	n/a	n/a	15	n/a	n/a	n/a	n/a
2049.54150390625	n/a	PROB	4197461	n/a	LTP349	ltpFR2	23	n/a	n/a	n/a	15	14	7	1	6
2054.25732421875	n/a	PROB	4207119	n/a	LTP349	ltpFR2	23	n/a	n/a	n/a	15	13	2	4	7
2057.55419921875	n/a	PROB	4213871	n/a	LTP349	ltpFR2	23	n/a	n/a	n/a	15	25	8	9	8
2060.13720703125	n/a	PROB	4219161	n/a	LTP349	ltpFR2	23	n/a	n/a	n/a	15	5	1	1	3
2062.75341796875	n/a	PROB	4224519	n/a	LTP349	ltpFR2	23	n/a	n/a	n/a	15	17	4	6	7
2064.185546875	n/a	PROB	4227452	n/a	LTP349	ltpFR2	23	n/a	n/a	n/a	15	15	5	6	4
2065.650390625	n/a	PROB	4230452	n/a	LTP349	ltpFR2	23	n/a	n/a	n/a	15	12	3	8	1
2067.2001953125	n/a	PROB	4233626	n/a	LTP349	ltpFR2	23	n/a	n/a	n/a	15	16	8	4	4
2068.7666015625	n/a	PROB	4236834	n/a	LTP349	ltpFR2	23	n/a	n/a	n/a	15	17	5	8	4
2072.6005859375	n/a	STOP	4244686	n/a	LTP349	ltpFR2	23	n/a	n/a	n/a	15	n/a	n/a	n/a	n/a
2074.38037109375	n/a	WORD	4248331	wordpools/wasnorm_wordpool_576.txt	LTP349	ltpFR2	23	10	DART	440	n/a	n/a	0	0	0
2076.9453125	n/a	WORD	4253584	wordpools/wasnorm_wordpool_576.txt	LTP349	ltpFR2	23	10	MARBLE	867	n/a	n/a	0	0	0
2079.5263671875	n/a	WORD	4258870	wordpools/wasnorm_wordpool_576.txt	LTP349	ltpFR2	23	10	FARM	552	n/a	n/a	0	0	0
2082.29345703125	n/a	WORD	4264537	wordpools/wasnorm_wordpool_576.txt	LTP349	ltpFR2	23	10	BISCUIT	130	n/a	n/a	0	0	0
2084.95849609375	n/a	WORD	4269995	wordpools/wasnorm_wordpool_576.txt	LTP349	ltpFR2	23	10	CIGAR	308	n/a	n/a	0	0	0
2087.73974609375	n/a	WORD	4275691	wordpools/wasnorm_wordpool_576.txt	LTP349	ltpFR2	23	10	MOUNTAIN	924	n/a	n/a	0	0	0
2090.3896484375	n/a	WORD	4281118	wordpools/wasnorm_wordpool_576.txt	LTP349	ltpFR2	23	10	CLIFF	322	n/a	n/a	0	0	0
2092.90478515625	n/a	WORD	4286269	wordpools/wasnorm_wordpool_576.txt	LTP349	ltpFR2	23	10	BANJO	82	n/a	n/a	0	0	0
2095.4697265625	n/a	WORD	4291522	wordpools/wasnorm_wordpool_576.txt	LTP349	ltpFR2	23	10	ROBOT	1200	n/a	n/a	0	0	0
2098.1357421875	n/a	WORD	4296982	wordpools/wasnorm_wordpool_576.txt	LTP349	ltpFR2	23	10	BASEBALL	93	n/a	n/a	0	0	0
2100.68359375	n/a	WORD	4302200	wordpools/wasnorm_wordpool_576.txt	LTP349	ltpFR2	23	10	SLEEVE	1324	n/a	n/a	0	0	0
2103.44970703125	n/a	WORD	4307865	wordpools/wasnorm_wordpool_576.txt	LTP349	ltpFR2	23	10	CARRIAGE	248	n/a	n/a	0	0	0
2106.2646484375	n/a	WORD	4313630	wordpools/wasnorm_wordpool_576.txt	LTP349	ltpFR2	23	10	MONARCH	906	n/a	n/a	0	0	0
2109.013671875	n/a	WORD	4319260	wordpools/wasnorm_wordpool_576.txt	LTP349	ltpFR2	23	10	CLOCK	325	n/a	n/a	0	0	0
2111.7958984375	n/a	WORD	4324958	wordpools/wasnorm_wordpool_576.txt	LTP349	ltpFR2	23	10	FLANNEL	574	n/a	n/a	0	0	0
2114.294921875	n/a	WORD	4330076	wordpools/wasnorm_wordpool_576.txt	LTP349	ltpFR2	23	10	BLUEJAY	141	n/a	n/a	0	0	0
2116.90966796875	n/a	WORD	4335431	wordpools/wasnorm_wordpool_576.txt	LTP349	ltpFR2	23	10	ACORN	3	n/a	n/a	0	0	0
2119.69091796875	n/a	WORD	4341127	wordpools/wasnorm_wordpool_576.txt	LTP349	ltpFR2	23	10	LUGGAGE	847	n/a	n/a	0	0	0
2122.15673828125	n/a	WORD	4346177	wordpools/wasnorm_wordpool_576.txt	LTP349	ltpFR2	23	10	SPICE	1350	n/a	n/a	0	0	0
2124.93896484375	n/a	WORD	4351875	wordpools/wasnorm_wordpool_576.txt	LTP349	ltpFR2	23	10	SUGAR	1401	n/a	n/a	0	0	0
2127.65380859375	n/a	WORD	4357435	wordpools/wasnorm_wordpool_576.txt	LTP349	ltpFR2	23	10	CROWN	415	n/a	n/a	0	0	0
2130.2529296875	n/a	WORD	4362758	wordpools/wasnorm_wordpool_576.txt	LTP349	ltpFR2	23	10	DRIVER	499	n/a	n/a	0	0	0
2132.86865234375	n/a	WORD	4368115	wordpools/wasnorm_wordpool_576.txt	LTP349	ltpFR2	23	10	ATHLETE	52	n/a	n/a	0	0	0
2135.56591796875	n/a	WORD	4373639	wordpools/wasnorm_wordpool_576.txt	LTP349	ltpFR2	23	10	OATMEAL	967	n/a	n/a	0	0	0
2137.18310546875	n/a	START	4376951	n/a	LTP349	ltpFR2	23	n/a	n/a	n/a	16	n/a	n/a	n/a	n/a
2138.095703125	n/a	DISTRACTOR	4378820	n/a	LTP349	ltpFR2	23	10	n/a	n/a	n/a	n/a	0	0	0
2138.09912109375	n/a	PROB	4378827	n/a	LTP349	ltpFR2	23	n/a	n/a	n/a	16	12	3	5	4
2141.01513671875	n/a	PROB	4384799	n/a	LTP349	ltpFR2	23	n/a	n/a	n/a	16	22	6	8	5
2143.49609375	n/a	PROB	4389880	n/a	LTP349	ltpFR2	23	n/a	n/a	n/a	16	17	5	9	3
2146.0947265625	n/a	PROB	4395202	n/a	LTP349	ltpFR2	23	n/a	n/a	n/a	16	8	2	4	2
2147.72705078125	n/a	PROB	4398545	n/a	LTP349	ltpFR2	23	n/a	n/a	n/a	16	15	9	2	4
2149.22705078125	n/a	PROB	4401617	n/a	LTP349	ltpFR2	23	n/a	n/a	n/a	16	11	4	5	2
2151.8759765625	n/a	PROB	4407042	n/a	LTP349	ltpFR2	23	n/a	n/a	n/a	16	12	2	2	8
2153.3251953125	n/a	PROB	4410010	n/a	LTP349	ltpFR2	23	n/a	n/a	n/a	16	14	4	8	2
2154.740234375	n/a	PROB	4412908	n/a	LTP349	ltpFR2	23	n/a	n/a	n/a	16	13	2	5	6
2156.52294921875	n/a	PROB	4416559	n/a	LTP349	ltpFR2	23	n/a	n/a	n/a	16	24	8	7	9
2161.18310546875	n/a	STOP	4426103	n/a	LTP349	ltpFR2	23	n/a	n/a	n/a	16	n/a	n/a	n/a	n/a
2163.00390625	n/a	REC_START	4429832	n/a	LTP349	ltpFR2	23	10	n/a	n/a	n/a	n/a	0	0	0
2170.830078125	n/a	REC_WORD_VV	4445860	wordpools/wasnorm_wordpool_576.txt	LTP349	ltpFR2	23	10	<>	-1	n/a	n/a	0	0	0
2171.75927734375	n/a	REC_WORD_VV	4447763	wordpools/wasnorm_wordpool_576.txt	LTP349	ltpFR2	23	10	<>	-1	n/a	n/a	0	0	0
2174.47021484375	n/a	REC_WORD	4453315	wordpools/wasnorm_wordpool_576.txt	LTP349	ltpFR2	23	10	DART	440	n/a	n/a	0	0	0
2175.03515625	n/a	REC_WORD	4454472	wordpools/wasnorm_wordpool_576.txt	LTP349	ltpFR2	23	10	MARBLE	867	n/a	n/a	0	0	0
2177.17333984375	n/a	REC_WORD	4458851	wordpools/wasnorm_wordpool_576.txt	LTP349	ltpFR2	23	10	BANJO	82	n/a	n/a	0	0	0
2177.7451171875	n/a	REC_WORD	4460022	wordpools/wasnorm_wordpool_576.txt	LTP349	ltpFR2	23	10	ROBOT	1200	n/a	n/a	0	0	0
2178.916015625	n/a	REC_WORD	4462420	wordpools/wasnorm_wordpool_576.txt	LTP349	ltpFR2	23	10	FARM	552	n/a	n/a	0	0	0
2179.7041015625	n/a	REC_WORD	4464034	wordpools/wasnorm_wordpool_576.txt	LTP349	ltpFR2	23	10	MOUNTAIN	924	n/a	n/a	0	0	0
2180.958984375	n/a	REC_WORD	4466604	wordpools/wasnorm_wordpool_576.txt	LTP349	ltpFR2	23	10	CLIFF	322	n/a	n/a	0	0	0
2197.77734375	n/a	REC_WORD	4501048	wordpools/wasnorm_wordpool_576.txt	LTP349	ltpFR2	23	10	CROWN	415	n/a	n/a	0	0	0
2253.45849609375	n/a	DISTRACTOR	4615083	n/a	LTP349	ltpFR2	23	11	n/a	n/a	n/a	n/a	0	0	0
2253.45849609375	n/a	START	4615083	n/a	LTP349	ltpFR2	23	n/a	n/a	n/a	17	n/a	n/a	n/a	n/a
2253.474609375	n/a	PROB	4615116	n/a	LTP349	ltpFR2	23	n/a	n/a	n/a	17	21	9	7	5
2255.49072265625	n/a	PROB	4619245	n/a	LTP349	ltpFR2	23	n/a	n/a	n/a	17	11	1	3	7
2256.79052734375	n/a	PROB	4621907	n/a	LTP349	ltpFR2	23	n/a	n/a	n/a	17	12	7	3	2
2258.35693359375	n/a	PROB	4625115	n/a	LTP349	ltpFR2	23	n/a	n/a	n/a	17	15	2	8	5
2260.4228515625	n/a	PROB	4629346	n/a	LTP349	ltpFR2	23	n/a	n/a	n/a	17	20	7	9	4
2262.1884765625	n/a	PROB	4632962	n/a	LTP349	ltpFR2	23	n/a	n/a	n/a	17	16	8	3	5
2264.5029296875	n/a	PROB	4637702	n/a	LTP349	ltpFR2	23	n/a	n/a	n/a	17	22	8	8	6
2266.03662109375	n/a	PROB	4640843	n/a	LTP349	ltpFR2	23	n/a	n/a	n/a	17	15	2	7	6
2267.517578125	n/a	PROB	4643876	n/a	LTP349	ltpFR2	23	n/a	n/a	n/a	17	14	1	7	6
2270.4345703125	n/a	PROB	4649850	n/a	LTP349	ltpFR2	23	n/a	n/a	n/a	17	19	4	6	9
2271.81689453125	n/a	PROB	4652681	n/a	LTP349	ltpFR2	23	n/a	n/a	n/a	17	21	7	7	7
2272.89990234375	n/a	PROB	4654899	n/a	LTP349	ltpFR2	23	n/a	n/a	n/a	17	15	7	4	4
2274.7490234375	n/a	PROB	4658686	n/a	LTP349	ltpFR2	23	n/a	n/a	n/a	17	18	4	9	5
2277.3388671875	n/a	STOP	4663990	n/a	LTP349	ltpFR2	23	n/a	n/a	n/a	17	n/a	n/a	n/a	n/a
2278.61279296875	n/a	WORD	4666599	wordpools/wasnorm_wordpool_576.txt	LTP349	ltpFR2	23	11	JOINT	758	n/a	n/a	0	0	0
2281.37890625	n/a	WORD	4672264	wordpools/wasnorm_wordpool_576.txt	LTP349	ltpFR2	23	11	DOCK	477	n/a	n/a	0	0	0
2284.1279296875	n/a	WORD	4677894	wordpools/wasnorm_wordpool_576.txt	LTP349	ltpFR2	23	11	ATLAS	53	n/a	n/a	0	0	0
2286.64208984375	n/a	WORD	4683043	wordpools/wasnorm_wordpool_576.txt	LTP349	ltpFR2	23	11	GLOBE	641	n/a	n/a	0	0	0
2289.208984375	n/a	WORD	4688300	wordpools/wasnorm_wordpool_576.txt	LTP349	ltpFR2	23	11	WARDROBE	1587	n/a	n/a	0	0	0
2291.94091796875	n/a	WORD	4693895	wordpools/wasnorm_wordpool_576.txt	LTP349	ltpFR2	23	11	VILLAGE	1566	n/a	n/a	0	0	0
2294.455078125	n/a	WORD	4699044	wordpools/wasnorm_wordpool_576.txt	LTP349	ltpFR2	23	11	PIRATE	1074	n/a	n/a	0	0	0
2296.970703125	n/a	WORD	4704196	wordpools/wasnorm_wordpool_576.txt	LTP349	ltpFR2	23	11	CHAMPAGNE	278	n/a	n/a	0	0	0
2299.73583984375	n/a	WORD	4709859	wordpools/wasnorm_wordpool_576.txt	LTP349	ltpFR2	23	11	DIAMOND	458	n/a	n/a	0	0	0
2302.5009765625	n/a	WORD	4715522	wordpools/wasnorm_wordpool_576.txt	LTP349	ltpFR2	23	11	INFANT	737	n/a	n/a	0	0	0
2305.1171875	n/a	WORD	4720880	wordpools/wasnorm_wordpool_576.txt	LTP349	ltpFR2	23	11	LUMBER	848	n/a	n/a	0	0	0
2307.76611328125	n/a	WORD	4726305	wordpools/wasnorm_wordpool_576.txt	LTP349	ltpFR2	23	11	SQUID	1361	n/a	n/a	0	0	0
2310.4482421875	n/a	WORD	4731798	wordpools/wasnorm_wordpool_576.txt	LTP349	ltpFR2	23	11	SIDING	1304	n/a	n/a	0	0	0
2312.9970703125	n/a	WORD	4737018	wordpools/wasnorm_wordpool_576.txt	LTP349	ltpFR2	23	11	RAISIN	1163	n/a	n/a	0	0	0
2315.69482421875	n/a	WORD	4742543	wordpools/wasnorm_wordpool_576.txt	LTP349	ltpFR2	23	11	STUDENT	1395	n/a	n/a	0	0	0
2318.2783203125	n/a	WORD	4747834	wordpools/wasnorm_wordpool_576.txt	LTP349	ltpFR2	23	11	COCKTAIL	338	n/a	n/a	0	0	0
2320.84326171875	n/a	WORD	4753087	wordpools/wasnorm_wordpool_576.txt	LTP349	ltpFR2	23	11	WAITER	1580	n/a	n/a	0	0	0
2323.30810546875	n/a	WORD	4758135	wordpools/wasnorm_wordpool_576.txt	LTP349	ltpFR2	23	11	TURKEY	1520	n/a	n/a	0	0	0
2326.0400390625	n/a	WORD	4763730	wordpools/wasnorm_wordpool_576.txt	LTP349	ltpFR2	23	11	BREAST	171	n/a	n/a	0	0	0
2328.83935546875	n/a	WORD	4769463	wordpools/wasnorm_wordpool_576.txt	LTP349	ltpFR2	23	11	GRILL	661	n/a	n/a	0	0	0
2331.4541015625	n/a	WORD	4774818	wordpools/wasnorm_wordpool_576.txt	LTP349	ltpFR2	23	11	BRACELET	163	n/a	n/a	0	0	0
2334.05322265625	n/a	WORD	4780141	wordpools/wasnorm_wordpool_576.txt	LTP349	ltpFR2	23	11	PORCH	1106	n/a	n/a	0	0	0
2336.63427734375	n/a	WORD	4785427	wordpools/wasnorm_wordpool_576.txt	LTP349	ltpFR2	23	11	SOCKET	1340	n/a	n/a	0	0	0
2339.18408203125	n/a	WORD	4790649	wordpools/wasnorm_wordpool_576.txt	LTP349	ltpFR2	23	11	CONCRETE	361	n/a	n/a	0	0	0
2340.80029296875	n/a	START	4793959	n/a	LTP349	ltpFR2	23	n/a	n/a	n/a	18	n/a	n/a	n/a	n/a
2341.607421875	n/a	DISTRACTOR	4795612	n/a	LTP349	ltpFR2	23	11	n/a	n/a	n/a	n/a	0	0	0
2341.615234375	n/a	PROB	4795628	n/a	LTP349	ltpFR2	23	n/a	n/a	n/a	18	16	6	9	1
2343.53125	n/a	PROB	4799552	n/a	LTP349	ltpFR2	23	n/a	n/a	n/a	18	17	5	7	5
2345.49609375	n/a	PROB	4803576	n/a	LTP349	ltpFR2	23	n/a	n/a	n/a	18	23	7	8	6
2348.46240234375	n/a	PROB	4809651	n/a	LTP349	ltpFR2	23	n/a	n/a	n/a	18	8	3	4	1
2350.6611328125	n/a	PROB	4814154	n/a	LTP349	ltpFR2	23	n/a	n/a	n/a	18	21	7	7	7
2351.96142578125	n/a	PROB	4816817	n/a	LTP349	ltpFR2	23	n/a	n/a	n/a	18	17	2	7	8
2354.12646484375	n/a	PROB	4821251	n/a	LTP349	ltpFR2	23	n/a	n/a	n/a	18	1	2	4	5
2356.34228515625	n/a	PROB	4825789	n/a	LTP349	ltpFR2	23	n/a	n/a	n/a	18	12	6	3	3
2358.50732421875	n/a	PROB	4830223	n/a	LTP349	ltpFR2	23	n/a	n/a	n/a	18	20	8	4	8
2360.04052734375	n/a	PROB	4833363	n/a	LTP349	ltpFR2	23	n/a	n/a	n/a	18	16	5	8	3
2362.87255859375	n/a	PROB	4839163	n/a	LTP349	ltpFR2	23	n/a	n/a	n/a	18	8	2	4	2
2364.29931640625	n/a	STOP	4842085	n/a	LTP349	ltpFR2	23	n/a	n/a	n/a	18	n/a	n/a	n/a	n/a
2366.736328125	n/a	REC_START	4847076	n/a	LTP349	ltpFR2	23	11	n/a	n/a	n/a	n/a	0	0	0
2368.5732421875	n/a	REC_WORD_VV	4850838	wordpools/wasnorm_wordpool_576.txt	LTP349	ltpFR2	23	11	<>	-1	n/a	n/a	0	0	0
2369.3525390625	n/a	REC_WORD_VV	4852434	wordpools/wasnorm_wordpool_576.txt	LTP349	ltpFR2	23	11	<>	-1	n/a	n/a	0	0	0
2369.91064453125	n/a	REC_WORD	4853577	wordpools/wasnorm_wordpool_576.txt	LTP349	ltpFR2	23	11	CONCRETE	361	n/a	n/a	0	0	0
2375.41259765625	n/a	REC_WORD	4864845	wordpools/wasnorm_wordpool_576.txt	LTP349	ltpFR2	23	11	JOINT	758	n/a	n/a	0	0	0
2378.1884765625	n/a	REC_WORD	4870530	wordpools/wasnorm_wordpool_576.txt	LTP349	ltpFR2	23	11	ATLAS	53	n/a	n/a	0	0	0
2379.65771484375	n/a	REC_WORD	4873539	wordpools/wasnorm_wordpool_576.txt	LTP349	ltpFR2	23	11	GLOBE	641	n/a	n/a	0	0	0
2388.62255859375	n/a	REC_WORD	4891899	wordpools/wasnorm_wordpool_576.txt	LTP349	ltpFR2	23	11	DOCK	477	n/a	n/a	0	0	0
2390.216796875	n/a	REC_WORD_VV	4895164	wordpools/wasnorm_wordpool_576.txt	LTP349	ltpFR2	23	11	<>	-1	n/a	n/a	0	0	0
2391.0654296875	n/a	REC_WORD	4896902	wordpools/wasnorm_wordpool_576.txt	LTP349	ltpFR2	23	11	PIRATE	1074	n/a	n/a	0	0	0
2392.9677734375	n/a	REC_WORD	4900798	wordpools/wasnorm_wordpool_576.txt	LTP349	ltpFR2	23	11	VILLAGE	1566	n/a	n/a	0	0	0
2395.48779296875	n/a	REC_WORD	4905959	wordpools/wasnorm_wordpool_576.txt	LTP349	ltpFR2	23	11	RAISIN	1163	n/a	n/a	0	0	0
2397.302734375	n/a	REC_WORD	4909676	wordpools/wasnorm_wordpool_576.txt	LTP349	ltpFR2	23	11	STUDENT	1395	n/a	n/a	0	0	0
2400.81640625	n/a	REC_WORD	4916872	wordpools/wasnorm_wordpool_576.txt	LTP349	ltpFR2	23	11	DIAMOND	458	n/a	n/a	0	0	0
2402.4716796875	n/a	REC_WORD	4920262	wordpools/wasnorm_wordpool_576.txt	LTP349	ltpFR2	23	11	CHAMPAGNE	278	n/a	n/a	0	0	0
2406.08544921875	n/a	REC_WORD	4927663	wordpools/wasnorm_wordpool_576.txt	LTP349	ltpFR2	23	11	INFANT	737	n/a	n/a	0	0	0
2412.767578125	n/a	REC_WORD	4941348	wordpools/wasnorm_wordpool_576.txt	LTP349	ltpFR2	23	11	COCKTAIL	338	n/a	n/a	0	0	0
2457.22607421875	n/a	WORD	5032399	wordpools/wasnorm_wordpool_576.txt	LTP349	ltpFR2	23	12	BRIDGE	174	n/a	n/a	0	0	0
2459.69091796875	n/a	WORD	5037447	wordpools/wasnorm_wordpool_576.txt	LTP349	ltpFR2	23	12	LASER	801	n/a	n/a	0	0	0
2462.3740234375	n/a	WORD	5042942	wordpools/wasnorm_wordpool_576.txt	LTP349	ltpFR2	23	12	STREET	1393	n/a	n/a	0	0	0
2464.97216796875	n/a	WORD	5048263	wordpools/wasnorm_wordpool_576.txt	LTP349	ltpFR2	23	12	SWAMP	1416	n/a	n/a	0	0	0
2467.77099609375	n/a	WORD	5053995	wordpools/wasnorm_wordpool_576.txt	LTP349	ltpFR2	23	12	VILLAIN	1567	n/a	n/a	0	0	0
2470.46923828125	n/a	WORD	5059521	wordpools/wasnorm_wordpool_576.txt	LTP349	ltpFR2	23	12	FRAME	600	n/a	n/a	0	0	0
2473.18505859375	n/a	WORD	5065083	wordpools/wasnorm_wordpool_576.txt	LTP349	ltpFR2	23	12	TOURIST	1488	n/a	n/a	0	0	0
2475.666015625	n/a	WORD	5070164	wordpools/wasnorm_wordpool_576.txt	LTP349	ltpFR2	23	12	OMELET	976	n/a	n/a	0	0	0
2478.43212890625	n/a	WORD	5075829	wordpools/wasnorm_wordpool_576.txt	LTP349	ltpFR2	23	12	DANDRUFF	439	n/a	n/a	0	0	0
2481.01416015625	n/a	WORD	5081117	wordpools/wasnorm_wordpool_576.txt	LTP349	ltpFR2	23	12	OFFICE	972	n/a	n/a	0	0	0
2483.81298828125	n/a	WORD	5086849	wordpools/wasnorm_wordpool_576.txt	LTP349	ltpFR2	23	12	JUGGLER	763	n/a	n/a	0	0	0
2486.42822265625	n/a	WORD	5092205	wordpools/wasnorm_wordpool_576.txt	LTP349	ltpFR2	23	12	GYMNAST	675	n/a	n/a	0	0	0
2489.09423828125	n/a	WORD	5097665	wordpools/wasnorm_wordpool_576.txt	LTP349	ltpFR2	23	12	RADISH	1158	n/a	n/a	0	0	0
2491.64111328125	n/a	WORD	5102881	wordpools/wasnorm_wordpool_576.txt	LTP349	ltpFR2	23	12	ATTIC	56	n/a	n/a	0	0	0
2494.14111328125	n/a	WORD	5108001	wordpools/wasnorm_wordpool_576.txt	LTP349	ltpFR2	23	12	MATCH	878	n/a	n/a	0	0	0
2496.84033203125	n/a	WORD	5113529	wordpools/wasnorm_wordpool_576.txt	LTP349	ltpFR2	23	12	SENATE	1267	n/a	n/a	0	0	0
2499.50439453125	n/a	WORD	5118985	wordpools/wasnorm_wordpool_576.txt	LTP349	ltpFR2	23	12	DANCER	437	n/a	n/a	0	0	0
2502.30419921875	n/a	WORD	5124719	wordpools/wasnorm_wordpool_576.txt	LTP349	ltpFR2	23	12	WHISKERS	1605	n/a	n/a	0	0	0
2504.7353515625	n/a	WORD	5129698	wordpools/wasnorm_wordpool_576.txt	LTP349	ltpFR2	23	12	HEADBAND	696	n/a	n/a	0	0	0
2507.51708984375	n/a	WORD	5135395	wordpools/wasnorm_wordpool_576.txt	LTP349	ltpFR2	23	12	DRAGON	492	n/a	n/a	0	0	0
2510.267578125	n/a	WORD	5141028	wordpools/wasnorm_wordpool_576.txt	LTP349	ltpFR2	23	12	BOUILLON	154	n/a	n/a	0	0	0
2512.982421875	n/a	WORD	5146588	wordpools/wasnorm_wordpool_576.txt	LTP349	ltpFR2	23	12	VESSEL	1558	n/a	n/a	0	0	0
2515.58056640625	n/a	WORD	5151909	wordpools/wasnorm_wordpool_576.txt	LTP349	ltpFR2	23	12	TUTU	1524	n/a	n/a	0	0	0
2518.21337890625	n/a	WORD	5157301	wordpools/wasnorm_wordpool_576.txt	LTP349	ltpFR2	23	12	STUMP	1396	n/a	n/a	0	0	0
2519.82958984375	n/a	START	5160611	n/a	LTP349	ltpFR2	23	n/a	n/a	n/a	19	n/a	n/a	n/a	n/a
2521.0263671875	n/a	DISTRACTOR	5163062	n/a	LTP349	ltpFR2	23	12	n/a	n/a	n/a	n/a	0	0	0
2521.0283203125	n/a	PROB	5163066	n/a	LTP349	ltpFR2	23	n/a	n/a	n/a	19	12	8	3	1
2522.91064453125	n/a	PROB	5166921	n/a	LTP349	ltpFR2	23	n/a	n/a	n/a	19	7	3	1	3
2524.49267578125	n/a	PROB	5170161	n/a	LTP349	ltpFR2	23	n/a	n/a	n/a	19	13	4	3	6
2526.12548828125	n/a	PROB	5173505	n/a	LTP349	ltpFR2	23	n/a	n/a	n/a	19	22	8	7	7
2528.09130859375	n/a	PROB	5177531	n/a	LTP349	ltpFR2	23	n/a	n/a	n/a	19	19	9	2	8
2529.75732421875	n/a	PROB	5180943	n/a	LTP349	ltpFR2	23	n/a	n/a	n/a	19	14	6	5	3
2532.2724609375	n/a	PROB	5186094	n/a	LTP349	ltpFR2	23	n/a	n/a	n/a	19	18	6	8	4
2534.12158203125	n/a	PROB	5189881	n/a	LTP349	ltpFR2	23	n/a	n/a	n/a	19	8	2	3	3
2536.37060546875	n/a	PROB	5194487	n/a	LTP349	ltpFR2	23	n/a	n/a	n/a	19	14	7	1	6
2538.236328125	n/a	PROB	5198308	n/a	LTP349	ltpFR2	23	n/a	n/a	n/a	19	17	5	3	9
2541.8017578125	n/a	PROB	5205610	n/a	LTP349	ltpFR2	23	n/a	n/a	n/a	19	8	2	4	2
2543.7724609375	n/a	STOP	5209646	n/a	LTP349	ltpFR2	23	n/a	n/a	n/a	19	n/a	n/a	n/a	n/a
2545.66552734375	n/a	REC_START	5213523	n/a	LTP349	ltpFR2	23	12	n/a	n/a	n/a	n/a	0	0	0
2547.306640625	n/a	REC_WORD	5216884	wordpools/wasnorm_wordpool_576.txt	LTP349	ltpFR2	23	12	TUTU	1524	n/a	n/a	0	0	0
2551.96240234375	n/a	REC_WORD	5226419	wordpools/wasnorm_wordpool_576.txt	LTP349	ltpFR2	23	12	BRIDGE	174	n/a	n/a	0	0	0
2553.32080078125	n/a	REC_WORD	5229201	wordpools/wasnorm_wordpool_576.txt	LTP349	ltpFR2	23	12	LADDER	793	n/a	n/a	0	0	0
2554.677734375	n/a	REC_WORD	5231980	wordpools/wasnorm_wordpool_576.txt	LTP349	ltpFR2	23	12	STREET	1393	n/a	n/a	0	0	0
2556.146484375	n/a	REC_WORD	5234988	wordpools/wasnorm_wordpool_576.txt	LTP349	ltpFR2	23	12	TOURIST	1488	n/a	n/a	0	0	0
2557.08056640625	n/a	REC_WORD	5236901	wordpools/wasnorm_wordpool_576.txt	LTP349	ltpFR2	23	12	SWAMP	1416	n/a	n/a	0	0	0
2636.17236328125	n/a	WORD	5398881	wordpools/wasnorm_wordpool_576.txt	LTP349	ltpFR2	23	13	CRUTCH	417	n/a	n/a	0	0	0
2638.72021484375	n/a	WORD	5404099	wordpools/wasnorm_wordpool_576.txt	LTP349	ltpFR2	23	13	PORTRAIT	1111	n/a	n/a	0	0	0
2641.30322265625	n/a	WORD	5409389	wordpools/wasnorm_wordpool_576.txt	LTP349	ltpFR2	23	13	BUSH	202	n/a	n/a	0	0	0
2644.1181640625	n/a	WORD	5415154	wordpools/wasnorm_wordpool_576.txt	LTP349	ltpFR2	23	13	BANK	83	n/a	n/a	0	0	0
2646.93310546875	n/a	WORD	5420919	wordpools/wasnorm_wordpool_576.txt	LTP349	ltpFR2	23	13	SCRIBBLE	1256	n/a	n/a	0	0	0
2649.7314453125	n/a	WORD	5426650	wordpools/wasnorm_wordpool_576.txt	LTP349	ltpFR2	23	13	CHECKERS	285	n/a	n/a	0	0	0
2652.18017578125	n/a	WORD	5431665	wordpools/wasnorm_wordpool_576.txt	LTP349	ltpFR2	23	13	PALACE	1006	n/a	n/a	0	0	0
2654.87939453125	n/a	WORD	5437193	wordpools/wasnorm_wordpool_576.txt	LTP349	ltpFR2	23	13	THRONE	1461	n/a	n/a	0	0	0
2657.64306640625	n/a	WORD	5442853	wordpools/wasnorm_wordpool_576.txt	LTP349	ltpFR2	23	13	TOOTHBRUSH	1482	n/a	n/a	0	0	0
2660.42626953125	n/a	WORD	5448553	wordpools/wasnorm_wordpool_576.txt	LTP349	ltpFR2	23	13	CARPET	247	n/a	n/a	0	0	0
2663.00830078125	n/a	WORD	5453841	wordpools/wasnorm_wordpool_576.txt	LTP349	ltpFR2	23	13	HUSBAND	728	n/a	n/a	0	0	0
2665.70654296875	n/a	WORD	5459367	wordpools/wasnorm_wordpool_576.txt	LTP349	ltpFR2	23	13	CRICKET	408	n/a	n/a	0	0	0
2668.189453125	n/a	WORD	5464452	wordpools/wasnorm_wordpool_576.txt	LTP349	ltpFR2	23	13	CAMEL	223	n/a	n/a	0	0	0
2670.98828125	n/a	WORD	5470184	wordpools/wasnorm_wordpool_576.txt	LTP349	ltpFR2	23	13	CAPE	237	n/a	n/a	0	0	0
2673.65234375	n/a	WORD	5475640	wordpools/wasnorm_wordpool_576.txt	LTP349	ltpFR2	23	13	SPARROW	1347	n/a	n/a	0	0	0
2676.36865234375	n/a	WORD	5481203	wordpools/wasnorm_wordpool_576.txt	LTP349	ltpFR2	23	13	COFFEE	341	n/a	n/a	0	0	0
2678.900390625	n/a	WORD	5486388	wordpools/wasnorm_wordpool_576.txt	LTP349	ltpFR2	23	13	CAFE	216	n/a	n/a	0	0	0
2681.6484375	n/a	WORD	5492016	wordpools/wasnorm_wordpool_576.txt	LTP349	ltpFR2	23	13	HANGER	687	n/a	n/a	0	0	0
2684.1484375	n/a	WORD	5497136	wordpools/wasnorm_wordpool_576.txt	LTP349	ltpFR2	23	13	ELBOW	520	n/a	n/a	0	0	0
2686.6123046875	n/a	WORD	5502182	wordpools/wasnorm_wordpool_576.txt	LTP349	ltpFR2	23	13	PERFUME	1049	n/a	n/a	0	0	0
2689.04541015625	n/a	WORD	5507165	wordpools/wasnorm_wordpool_576.txt	LTP349	ltpFR2	23	13	MILDEW	893	n/a	n/a	0	0	0
2691.8115234375	n/a	WORD	5512830	wordpools/wasnorm_wordpool_576.txt	LTP349	ltpFR2	23	13	LITTER	832	n/a	n/a	0	0	0
2694.2607421875	n/a	WORD	5517846	wordpools/wasnorm_wordpool_576.txt	LTP349	ltpFR2	23	13	PRIEST	1122	n/a	n/a	0	0	0
2697.04248046875	n/a	WORD	5523543	wordpools/wasnorm_wordpool_576.txt	LTP349	ltpFR2	23	13	SEAGULL	1261	n/a	n/a	0	0	0
2698.65771484375	n/a	START	5526851	n/a	LTP349	ltpFR2	23	n/a	n/a	n/a	20	n/a	n/a	n/a	n/a
2699.8466796875	n/a	DISTRACTOR	5529286	n/a	LTP349	ltpFR2	23	13	n/a	n/a	n/a	n/a	0	0	0
2699.857421875	n/a	PROB	5529308	n/a	LTP349	ltpFR2	23	n/a	n/a	n/a	20	16	8	4	4
2702.32275390625	n/a	PROB	5534357	n/a	LTP349	ltpFR2	23	n/a	n/a	n/a	20	13	7	1	5
2704.23876953125	n/a	PROB	5538281	n/a	LTP349	ltpFR2	23	n/a	n/a	n/a	20	17	2	7	8
2705.95458984375	n/a	PROB	5541795	n/a	LTP349	ltpFR2	23	n/a	n/a	n/a	20	14	6	6	2
2707.20361328125	n/a	PROB	5544353	n/a	LTP349	ltpFR2	23	n/a	n/a	n/a	20	22	9	6	7
2709.53466796875	n/a	PROB	5549127	n/a	LTP349	ltpFR2	23	n/a	n/a	n/a	20	5	1	1	3
2710.95166015625	n/a	PROB	5552029	n/a	LTP349	ltpFR2	23	n/a	n/a	n/a	20	19	8	3	8
2714.15087890625	n/a	PROB	5558581	n/a	LTP349	ltpFR2	23	n/a	n/a	n/a	20	15	9	4	2
2716.9658203125	n/a	PROB	5564346	n/a	LTP349	ltpFR2	23	n/a	n/a	n/a	20	26	9	9	8
2722.65771484375	n/a	STOP	5576003	n/a	LTP349	ltpFR2	23	n/a	n/a	n/a	20	n/a	n/a	n/a	n/a
2724.51171875	n/a	REC_START	5579800	n/a	LTP349	ltpFR2	23	13	n/a	n/a	n/a	n/a	0	0	0
2798.8681640625	n/a	REC_WORD_VV	5732082	wordpools/wasnorm_wordpool_576.txt	LTP349	ltpFR2	23	13	<>	-1	n/a	n/a	0	0	0
2814.96728515625	n/a	WORD	5765053	wordpools/wasnorm_wordpool_576.txt	LTP349	ltpFR2	23	14	KIWI	781	n/a	n/a	0	0	0
2817.58251953125	n/a	WORD	5770409	wordpools/wasnorm_wordpool_576.txt	LTP349	ltpFR2	23	14	BASKET	95	n/a	n/a	0	0	0
2820.1982421875	n/a	WORD	5775766	wordpools/wasnorm_wordpool_576.txt	LTP349	ltpFR2	23	14	ROBIN	1199	n/a	n/a	0	0	0
2822.7802734375	n/a	WORD	5781054	wordpools/wasnorm_wordpool_576.txt	LTP349	ltpFR2	23	14	PLAYGROUND	1087	n/a	n/a	0	0	0
2825.42919921875	n/a	WORD	5786479	wordpools/wasnorm_wordpool_576.txt	LTP349	ltpFR2	23	14	STAKE	1368	n/a	n/a	0	0	0
2828.02734375	n/a	WORD	5791800	wordpools/wasnorm_wordpool_576.txt	LTP349	ltpFR2	23	14	TREASURE	1500	n/a	n/a	0	0	0
2830.810546875	n/a	WORD	5797500	wordpools/wasnorm_wordpool_576.txt	LTP349	ltpFR2	23	14	ARMY	39	n/a	n/a	0	0	0
2833.5576171875	n/a	WORD	5803126	wordpools/wasnorm_wordpool_576.txt	LTP349	ltpFR2	23	14	MAJOR	859	n/a	n/a	0	0	0
2836.20751953125	n/a	WORD	5808553	wordpools/wasnorm_wordpool_576.txt	LTP349	ltpFR2	23	14	MANSION	864	n/a	n/a	0	0	0
2839.0224609375	n/a	WORD	5814318	wordpools/wasnorm_wordpool_576.txt	LTP349	ltpFR2	23	14	NICKEL	950	n/a	n/a	0	0	0
2841.603515625	n/a	WORD	5819604	wordpools/wasnorm_wordpool_576.txt	LTP349	ltpFR2	23	14	COOKBOOK	373	n/a	n/a	0	0	0
2844.0537109375	n/a	WORD	5824622	wordpools/wasnorm_wordpool_576.txt	LTP349	ltpFR2	23	14	SHEARS	1276	n/a	n/a	0	0	0
2846.7177734375	n/a	WORD	5830078	wordpools/wasnorm_wordpool_576.txt	LTP349	ltpFR2	23	14	YARD	1630	n/a	n/a	0	0	0
2849.41748046875	n/a	WORD	5835607	wordpools/wasnorm_wordpool_576.txt	LTP349	ltpFR2	23	14	MEADOW	881	n/a	n/a	0	0	0
2852.099609375	n/a	WORD	5841100	wordpools/wasnorm_wordpool_576.txt	LTP349	ltpFR2	23	14	BRUNETTE	181	n/a	n/a	0	0	0
2854.54736328125	n/a	WORD	5846113	wordpools/wasnorm_wordpool_576.txt	LTP349	ltpFR2	23	14	SUITE	1404	n/a	n/a	0	0	0
2857.33056640625	n/a	WORD	5851813	wordpools/wasnorm_wordpool_576.txt	LTP349	ltpFR2	23	14	LOBBY	836	n/a	n/a	0	0	0
2859.845703125	n/a	WORD	5856964	wordpools/wasnorm_wordpool_576.txt	LTP349	ltpFR2	23	14	RESORT	1186	n/a	n/a	0	0	0
2862.62646484375	n/a	WORD	5862659	wordpools/wasnorm_wordpool_576.txt	LTP349	ltpFR2	23	14	SHINGLE	1285	n/a	n/a	0	0	0
2865.07666015625	n/a	WORD	5867677	wordpools/wasnorm_wordpool_576.txt	LTP349	ltpFR2	23	14	SHACK	1273	n/a	n/a	0	0	0
2867.7587890625	n/a	WORD	5873170	wordpools/wasnorm_wordpool_576.txt	LTP349	ltpFR2	23	14	RULER	1216	n/a	n/a	0	0	0
2870.29052734375	n/a	WORD	5878355	wordpools/wasnorm_wordpool_576.txt	LTP349	ltpFR2	23	14	RAFT	1159	n/a	n/a	0	0	0
2873.0556640625	n/a	WORD	5884018	wordpools/wasnorm_wordpool_576.txt	LTP349	ltpFR2	23	14	PICTURE	1061	n/a	n/a	0	0	0
2875.50390625	n/a	WORD	5889032	wordpools/wasnorm_wordpool_576.txt	LTP349	ltpFR2	23	14	LADY	794	n/a	n/a	0	0	0
2877.12060546875	n/a	START	5892343	n/a	LTP349	ltpFR2	23	n/a	n/a	n/a	21	n/a	n/a	n/a	n/a
2878.02294921875	n/a	DISTRACTOR	5894191	n/a	LTP349	ltpFR2	23	14	n/a	n/a	n/a	n/a	0	0	0
2878.03662109375	n/a	PROB	5894219	n/a	LTP349	ltpFR2	23	n/a	n/a	n/a	21	15	2	7	6
2880.15283203125	n/a	PROB	5898553	n/a	LTP349	ltpFR2	23	n/a	n/a	n/a	21	13	4	1	8
2882.0517578125	n/a	PROB	5902442	n/a	LTP349	ltpFR2	23	n/a	n/a	n/a	21	17	7	7	3
2884.11669921875	n/a	PROB	5906671	n/a	LTP349	ltpFR2	23	n/a	n/a	n/a	21	12	6	5	1
2885.73193359375	n/a	PROB	5909979	n/a	LTP349	ltpFR2	23	n/a	n/a	n/a	21	1	3	5	4
2887.66357421875	n/a	PROB	5913935	n/a	LTP349	ltpFR2	23	n/a	n/a	n/a	21	8	2	4	2
2891.52880859375	n/a	PROB	5921851	n/a	LTP349	ltpFR2	23	n/a	n/a	n/a	21	22	8	6	8
2893.212890625	n/a	PROB	5925300	n/a	LTP349	ltpFR2	23	n/a	n/a	n/a	21	4	2	1	1
2894.5439453125	n/a	PROB	5928026	n/a	LTP349	ltpFR2	23	n/a	n/a	n/a	21	15	6	8	1
2896.4599609375	n/a	PROB	5931950	n/a	LTP349	ltpFR2	23	n/a	n/a	n/a	21	18	9	6	3
2897.97705078125	n/a	PROB	5935057	n/a	LTP349	ltpFR2	23	n/a	n/a	n/a	21	12	3	5	4
2899.458984375	n/a	PROB	5938092	n/a	LTP349	ltpFR2	23	n/a	n/a	n/a	21	5	1	1	3
2901.01513671875	n/a	STOP	5941279	n/a	LTP349	ltpFR2	23	n/a	n/a	n/a	21	n/a	n/a	n/a	n/a
2903.05810546875	n/a	REC_START	5945463	n/a	LTP349	ltpFR2	23	14	n/a	n/a	n/a	n/a	0	0	0
2907.55712890625	n/a	REC_WORD	5954677	wordpools/wasnorm_wordpool_576.txt	LTP349	ltpFR2	23	14	SUITE	1404	n/a	n/a	0	0	0
2908.55712890625	n/a	REC_WORD_VV	5956725	wordpools/wasnorm_wordpool_576.txt	LTP349	ltpFR2	23	14	<>	-1	n/a	n/a	0	0	0
2911.123046875	n/a	REC_WORD	5961980	wordpools/wasnorm_wordpool_576.txt	LTP349	ltpFR2	23	14	SUITE	1404	n/a	n/a	0	0	0
2911.8388671875	n/a	REC_WORD_VV	5963446	wordpools/wasnorm_wordpool_576.txt	LTP349	ltpFR2	23	14	<>	-1	n/a	n/a	0	0	0
2993.529296875	n/a	WORD	6130748	wordpools/wasnorm_wordpool_576.txt	LTP349	ltpFR2	23	15	HEDGE	699	n/a	n/a	0	0	0
2996.095703125	n/a	WORD	6136004	wordpools/wasnorm_wordpool_576.txt	LTP349	ltpFR2	23	15	BUCKET	184	n/a	n/a	0	0	0
2998.609375	n/a	WORD	6141152	wordpools/wasnorm_wordpool_576.txt	LTP349	ltpFR2	23	15	DENIM	446	n/a	n/a	0	0	0
3001.29248046875	n/a	WORD	6146647	wordpools/wasnorm_wordpool_576.txt	LTP349	ltpFR2	23	15	PUMPKIN	1142	n/a	n/a	0	0	0
3004.0244140625	n/a	WORD	6152242	wordpools/wasnorm_wordpool_576.txt	LTP349	ltpFR2	23	15	COBBLER	335	n/a	n/a	0	0	0
3006.72265625	n/a	WORD	6157768	wordpools/wasnorm_wordpool_576.txt	LTP349	ltpFR2	23	15	SWIMMER	1420	n/a	n/a	0	0	0
3009.17236328125	n/a	WORD	6162785	wordpools/wasnorm_wordpool_576.txt	LTP349	ltpFR2	23	15	BOUQUET	157	n/a	n/a	0	0	0
3011.87060546875	n/a	WORD	6168311	wordpools/wasnorm_wordpool_576.txt	LTP349	ltpFR2	23	15	BEDROOM	111	n/a	n/a	0	0	0
3014.45361328125	n/a	WORD	6173601	wordpools/wasnorm_wordpool_576.txt	LTP349	ltpFR2	23	15	HAMMOCK	681	n/a	n/a	0	0	0
3016.8857421875	n/a	WORD	6178582	wordpools/wasnorm_wordpool_576.txt	LTP349	ltpFR2	23	15	SLIDE	1326	n/a	n/a	0	0	0
3019.61669921875	n/a	WORD	6184175	wordpools/wasnorm_wordpool_576.txt	LTP349	ltpFR2	23	15	STABLE	1363	n/a	n/a	0	0	0
3022.41552734375	n/a	WORD	6189907	wordpools/wasnorm_wordpool_576.txt	LTP349	ltpFR2	23	15	CREEK	404	n/a	n/a	0	0	0
3025.03173828125	n/a	WORD	6195265	wordpools/wasnorm_wordpool_576.txt	LTP349	ltpFR2	23	15	ACTOR	5	n/a	n/a	0	0	0
3027.66259765625	n/a	WORD	6200653	wordpools/wasnorm_wordpool_576.txt	LTP349	ltpFR2	23	15	PEPPER	1047	n/a	n/a	0	0	0
3030.16162109375	n/a	WORD	6205771	wordpools/wasnorm_wordpool_576.txt	LTP349	ltpFR2	23	15	CRACKER	398	n/a	n/a	0	0	0
3032.84375	n/a	WORD	6211264	wordpools/wasnorm_wordpool_576.txt	LTP349	ltpFR2	23	15	CANVAS	234	n/a	n/a	0	0	0
3035.3095703125	n/a	WORD	6216314	wordpools/wasnorm_wordpool_576.txt	LTP349	ltpFR2	23	15	THICKET	1455	n/a	n/a	0	0	0
3037.82470703125	n/a	WORD	6221465	wordpools/wasnorm_wordpool_576.txt	LTP349	ltpFR2	23	15	MOP	916	n/a	n/a	0	0	0
3040.306640625	n/a	WORD	6226548	wordpools/wasnorm_wordpool_576.txt	LTP349	ltpFR2	23	15	SALT	1229	n/a	n/a	0	0	0
3042.77294921875	n/a	WORD	6231599	wordpools/wasnorm_wordpool_576.txt	LTP349	ltpFR2	23	15	DOORBELL	487	n/a	n/a	0	0	0
3045.3876953125	n/a	WORD	6236954	wordpools/wasnorm_wordpool_576.txt	LTP349	ltpFR2	23	15	DWARF	510	n/a	n/a	0	0	0
3048.10400390625	n/a	WORD	6242517	wordpools/wasnorm_wordpool_576.txt	LTP349	ltpFR2	23	15	PIGMENT	1066	n/a	n/a	0	0	0
3050.76904296875	n/a	WORD	6247975	wordpools/wasnorm_wordpool_576.txt	LTP349	ltpFR2	23	15	SARDINE	1235	n/a	n/a	0	0	0
3053.36767578125	n/a	WORD	6253297	wordpools/wasnorm_wordpool_576.txt	LTP349	ltpFR2	23	15	FRAGRANCE	599	n/a	n/a	0	0	0
3054.98388671875	n/a	START	6256607	n/a	LTP349	ltpFR2	23	n/a	n/a	n/a	22	n/a	n/a	n/a	n/a
3056.11181640625	n/a	DISTRACTOR	6258917	n/a	LTP349	ltpFR2	23	15	n/a	n/a	n/a	n/a	0	0	0
3056.11572265625	n/a	PROB	6258925	n/a	LTP349	ltpFR2	23	n/a	n/a	n/a	22	14	4	3	7
3057.94873046875	n/a	PROB	6262679	n/a	LTP349	ltpFR2	23	n/a	n/a	n/a	22	14	3	3	8
3059.69677734375	n/a	PROB	6266259	n/a	LTP349	ltpFR2	23	n/a	n/a	n/a	22	10	4	2	4
3061.31396484375	n/a	PROB	6269571	n/a	LTP349	ltpFR2	23	n/a	n/a	n/a	22	20	5	8	7
3066.078125	n/a	PROB	6279328	n/a	LTP349	ltpFR2	23	n/a	n/a	n/a	22	21	9	4	8
3067.81005859375	n/a	PROB	6282875	n/a	LTP349	ltpFR2	23	n/a	n/a	n/a	22	19	9	9	1
3070.0927734375	n/a	PROB	6287550	n/a	LTP349	ltpFR2	23	n/a	n/a	n/a	22	14	5	7	2
3071.77490234375	n/a	PROB	6290995	n/a	LTP349	ltpFR2	23	n/a	n/a	n/a	22	8	1	3	4
3073.158203125	n/a	PROB	6293828	n/a	LTP349	ltpFR2	23	n/a	n/a	n/a	22	12	6	2	4
3075.35693359375	n/a	PROB	6298331	n/a	LTP349	ltpFR2	23	n/a	n/a	n/a	22	8	5	1	2
3076.77294921875	n/a	PROB	6301231	n/a	LTP349	ltpFR2	23	n/a	n/a	n/a	22	13	3	7	7
3078.44091796875	n/a	STOP	6304647	n/a	LTP349	ltpFR2	23	n/a	n/a	n/a	22	n/a	n/a	n/a	n/a
3080.837890625	n/a	REC_START	6309556	n/a	LTP349	ltpFR2	23	15	n/a	n/a	n/a	n/a	0	0	0
3082.072265625	n/a	REC_WORD	6312084	wordpools/wasnorm_wordpool_576.txt	LTP349	ltpFR2	23	15	THICKET	1455	n/a	n/a	0	0	0
3083.47119140625	n/a	REC_WORD	6314949	wordpools/wasnorm_wordpool_576.txt	LTP349	ltpFR2	23	15	HEDGE	699	n/a	n/a	0	0	0
3171.29248046875	n/a	DISTRACTOR	6494807	n/a	LTP349	ltpFR2	23	16	n/a	n/a	n/a	n/a	0	0	0
3171.29345703125	n/a	START	6494809	n/a	LTP349	ltpFR2	23	n/a	n/a	n/a	23	n/a	n/a	n/a	n/a
3171.3095703125	n/a	PROB	6494842	n/a	LTP349	ltpFR2	23	n/a	n/a	n/a	23	15	3	7	5
3173.974609375	n/a	PROB	6500300	n/a	LTP349	ltpFR2	23	n/a	n/a	n/a	23	14	4	8	2
3175.556640625	n/a	PROB	6503540	n/a	LTP349	ltpFR2	23	n/a	n/a	n/a	23	17	5	5	7
3177.806640625	n/a	PROB	6508148	n/a	LTP349	ltpFR2	23	n/a	n/a	n/a	23	8	3	2	3
3180.021484375	n/a	PROB	6512684	n/a	LTP349	ltpFR2	23	n/a	n/a	n/a	23	14	1	8	5
3181.37158203125	n/a	PROB	6515449	n/a	LTP349	ltpFR2	23	n/a	n/a	n/a	23	8	3	2	3
3182.7197265625	n/a	PROB	6518210	n/a	LTP349	ltpFR2	23	n/a	n/a	n/a	23	25	9	9	7
3185.1025390625	n/a	PROB	6523090	n/a	LTP349	ltpFR2	23	n/a	n/a	n/a	23	11	3	5	3
3187.517578125	n/a	PROB	6528036	n/a	LTP349	ltpFR2	23	n/a	n/a	n/a	23	18	4	8	6
3189.28369140625	n/a	PROB	6531653	n/a	LTP349	ltpFR2	23	n/a	n/a	n/a	23	14	4	1	9
3191.19970703125	n/a	PROB	6535577	n/a	LTP349	ltpFR2	23	n/a	n/a	n/a	23	9	5	2	2
3192.58203125	n/a	PROB	6538408	n/a	LTP349	ltpFR2	23	n/a	n/a	n/a	23	14	5	8	1
3194.18505859375	n/a	STOP	6541691	n/a	LTP349	ltpFR2	23	n/a	n/a	n/a	23	n/a	n/a	n/a	n/a
3196.380859375	n/a	WORD	6546188	wordpools/wasnorm_wordpool_576.txt	LTP349	ltpFR2	23	16	FRUIT	610	n/a	n/a	0	0	0
3199.095703125	n/a	WORD	6551748	wordpools/wasnorm_wordpool_576.txt	LTP349	ltpFR2	23	16	APPLE	33	n/a	n/a	0	0	0
3201.64404296875	n/a	WORD	6556967	wordpools/wasnorm_wordpool_576.txt	LTP349	ltpFR2	23	16	RIFLE	1192	n/a	n/a	0	0	0
3204.10986328125	n/a	WORD	6562017	wordpools/wasnorm_wordpool_576.txt	LTP349	ltpFR2	23	16	HOUND	724	n/a	n/a	0	0	0
3206.89208984375	n/a	WORD	6567715	wordpools/wasnorm_wordpool_576.txt	LTP349	ltpFR2	23	16	RUG	1215	n/a	n/a	0	0	0
3209.52294921875	n/a	WORD	6573103	wordpools/wasnorm_wordpool_576.txt	LTP349	ltpFR2	23	16	ROD	1203	n/a	n/a	0	0	0
3212.255859375	n/a	WORD	6578700	wordpools/wasnorm_wordpool_576.txt	LTP349	ltpFR2	23	16	GRASS	655	n/a	n/a	0	0	0
3215.07177734375	n/a	WORD	6584467	wordpools/wasnorm_wordpool_576.txt	LTP349	ltpFR2	23	16	CHAPEL	280	n/a	n/a	0	0	0
3217.60302734375	n/a	WORD	6589651	wordpools/wasnorm_wordpool_576.txt	LTP349	ltpFR2	23	16	GANGSTER	620	n/a	n/a	0	0	0
3220.0859375	n/a	WORD	6594736	wordpools/wasnorm_wordpool_576.txt	LTP349	ltpFR2	23	16	ICING	732	n/a	n/a	0	0	0
3222.68310546875	n/a	WORD	6600055	wordpools/wasnorm_wordpool_576.txt	LTP349	ltpFR2	23	16	SHORTCAKE	1292	n/a	n/a	0	0	0
3225.4501953125	n/a	WORD	6605722	wordpools/wasnorm_wordpool_576.txt	LTP349	ltpFR2	23	16	ACTRESS	6	n/a	n/a	0	0	0
3228.01513671875	n/a	WORD	6610975	wordpools/wasnorm_wordpool_576.txt	LTP349	ltpFR2	23	16	MERMAID	887	n/a	n/a	0	0	0
3230.830078125	n/a	WORD	6616740	wordpools/wasnorm_wordpool_576.txt	LTP349	ltpFR2	23	16	FRIAR	605	n/a	n/a	0	0	0
3233.544921875	n/a	WORD	6622300	wordpools/wasnorm_wordpool_576.txt	LTP349	ltpFR2	23	16	SAPPHIRE	1234	n/a	n/a	0	0	0
3236.14404296875	n/a	WORD	6627623	wordpools/wasnorm_wordpool_576.txt	LTP349	ltpFR2	23	16	HAYSTACK	694	n/a	n/a	0	0	0
3238.77587890625	n/a	WORD	6633013	wordpools/wasnorm_wordpool_576.txt	LTP349	ltpFR2	23	16	CRATER	400	n/a	n/a	0	0	0
3241.50732421875	n/a	WORD	6638607	wordpools/wasnorm_wordpool_576.txt	LTP349	ltpFR2	23	16	NOVEL	960	n/a	n/a	0	0	0
3244.02392578125	n/a	WORD	6643761	wordpools/wasnorm_wordpool_576.txt	LTP349	ltpFR2	23	16	HOSTESS	723	n/a	n/a	0	0	0
3246.52197265625	n/a	WORD	6648877	wordpools/wasnorm_wordpool_576.txt	LTP349	ltpFR2	23	16	BRIDE	173	n/a	n/a	0	0	0
3249.02099609375	n/a	WORD	6653995	wordpools/wasnorm_wordpool_576.txt	LTP349	ltpFR2	23	16	FEATHER	557	n/a	n/a	0	0	0
3251.77001953125	n/a	WORD	6659625	wordpools/wasnorm_wordpool_576.txt	LTP349	ltpFR2	23	16	SUNSET	1408	n/a	n/a	0	0	0
3254.583984375	n/a	WORD	6665388	wordpools/wasnorm_wordpool_576.txt	LTP349	ltpFR2	23	16	TEAPOT	1442	n/a	n/a	0	0	0
3257.01708984375	n/a	WORD	6670371	wordpools/wasnorm_wordpool_576.txt	LTP349	ltpFR2	23	16	COFFIN	342	n/a	n/a	0	0	0
3258.63330078125	n/a	START	6673681	n/a	LTP349	ltpFR2	23	n/a	n/a	n/a	24	n/a	n/a	n/a	n/a
3259.72314453125	n/a	DISTRACTOR	6675913	n/a	LTP349	ltpFR2	23	16	n/a	n/a	n/a	n/a	0	0	0
3259.732421875	n/a	PROB	6675932	n/a	LTP349	ltpFR2	23	n/a	n/a	n/a	24	11	6	4	1
3261.3994140625	n/a	PROB	6679346	n/a	LTP349	ltpFR2	23	n/a	n/a	n/a	24	8	3	2	3
3263.0810546875	n/a	PROB	6682790	n/a	LTP349	ltpFR2	23	n/a	n/a	n/a	24	19	4	6	9
3265.9130859375	n/a	PROB	6688590	n/a	LTP349	ltpFR2	23	n/a	n/a	n/a	24	17	9	4	4
3268.52734375	n/a	PROB	6693944	n/a	LTP349	ltpFR2	23	n/a	n/a	n/a	24	16	5	9	2
3270.5263671875	n/a	PROB	6698038	n/a	LTP349	ltpFR2	23	n/a	n/a	n/a	24	7	1	3	3
3271.8935546875	n/a	PROB	6700838	n/a	LTP349	ltpFR2	23	n/a	n/a	n/a	24	16	4	6	6
3273.62548828125	n/a	PROB	6704385	n/a	LTP349	ltpFR2	23	n/a	n/a	n/a	24	9	2	2	5
3275.158203125	n/a	PROB	6707524	n/a	LTP349	ltpFR2	23	n/a	n/a	n/a	24	11	1	1	9
3276.32421875	n/a	PROB	6709912	n/a	LTP349	ltpFR2	23	n/a	n/a	n/a	24	2	8	3	9
3278.8232421875	n/a	PROB	6715030	n/a	LTP349	ltpFR2	23	n/a	n/a	n/a	24	13	9	3	1
3282.1943359375	n/a	STOP	6721934	n/a	LTP349	ltpFR2	23	n/a	n/a	n/a	24	n/a	n/a	n/a	n/a
3284.55322265625	n/a	REC_START	6726765	n/a	LTP349	ltpFR2	23	16	n/a	n/a	n/a	n/a	0	0	0
3287.71435546875	n/a	REC_WORD	6733239	wordpools/wasnorm_wordpool_576.txt	LTP349	ltpFR2	23	16	HOSTESS	723	n/a	n/a	0	0	0
3289.86328125	n/a	REC_WORD	6737640	wordpools/wasnorm_wordpool_576.txt	LTP349	ltpFR2	23	16	TEAPOT	1442	n/a	n/a	0	0	0
3291.0546875	n/a	REC_WORD	6740080	wordpools/wasnorm_wordpool_576.txt	LTP349	ltpFR2	23	16	BRIDE	173	n/a	n/a	0	0	0
3292.03857421875	n/a	REC_WORD	6742095	wordpools/wasnorm_wordpool_576.txt	LTP349	ltpFR2	23	16	SUNSET	1408	n/a	n/a	0	0	0
3295.38037109375	n/a	REC_WORD	6748939	wordpools/wasnorm_wordpool_576.txt	LTP349	ltpFR2	23	16	FRUIT	610	n/a	n/a	0	0	0
3296.88037109375	n/a	REC_WORD	6752011	wordpools/wasnorm_wordpool_576.txt	LTP349	ltpFR2	23	16	APPLE	33	n/a	n/a	0	0	0
3300.11669921875	n/a	REC_WORD	6758639	wordpools/wasnorm_wordpool_576.txt	LTP349	ltpFR2	23	16	RIFLE	1192	n/a	n/a	0	0	0
3302.4423828125	n/a	REC_WORD	6763402	wordpools/wasnorm_wordpool_576.txt	LTP349	ltpFR2	23	16	CHAPEL	280	n/a	n/a	0	0	0
3361.10009765625	n/a	REST_REWET	6883533	n/a	LTP349	ltpFR2	23	16	n/a	n/a	n/a	n/a	0	0	0
3463.74853515625	n/a	WORD	7093757	wordpools/wasnorm_wordpool_576.txt	LTP349	ltpFR2	23	17	SUNRISE	1407	n/a	n/a	0	0	0
3466.2314453125	n/a	WORD	7098842	wordpools/wasnorm_wordpool_576.txt	LTP349	ltpFR2	23	17	SUSPECT	1415	n/a	n/a	0	0	0
3469.013671875	n/a	WORD	7104540	wordpools/wasnorm_wordpool_576.txt	LTP349	ltpFR2	23	17	VALVE	1546	n/a	n/a	0	0	0
3471.46142578125	n/a	WORD	7109553	wordpools/wasnorm_wordpool_576.txt	LTP349	ltpFR2	23	17	CONVENT	370	n/a	n/a	0	0	0
3473.99462890625	n/a	WORD	7114741	wordpools/wasnorm_wordpool_576.txt	LTP349	ltpFR2	23	17	COTTAGE	384	n/a	n/a	0	0	0
3476.70849609375	n/a	WORD	7120299	wordpools/wasnorm_wordpool_576.txt	LTP349	ltpFR2	23	17	TRANSPLANT	1496	n/a	n/a	0	0	0
3479.15869140625	n/a	WORD	7125317	wordpools/wasnorm_wordpool_576.txt	LTP349	ltpFR2	23	17	MAPLE	866	n/a	n/a	0	0	0
3481.82470703125	n/a	WORD	7130777	wordpools/wasnorm_wordpool_576.txt	LTP349	ltpFR2	23	17	FOREST	593	n/a	n/a	0	0	0
3484.27294921875	n/a	WORD	7135791	wordpools/wasnorm_wordpool_576.txt	LTP349	ltpFR2	23	17	TREAT	1501	n/a	n/a	0	0	0
3486.8388671875	n/a	WORD	7141046	wordpools/wasnorm_wordpool_576.txt	LTP349	ltpFR2	23	17	PLANET	1082	n/a	n/a	0	0	0
3489.61962890625	n/a	WORD	7146741	wordpools/wasnorm_wordpool_576.txt	LTP349	ltpFR2	23	17	CABLE	213	n/a	n/a	0	0	0
3492.0859375	n/a	WORD	7151792	wordpools/wasnorm_wordpool_576.txt	LTP349	ltpFR2	23	17	SUBURB	1399	n/a	n/a	0	0	0
3494.90087890625	n/a	WORD	7157557	wordpools/wasnorm_wordpool_576.txt	LTP349	ltpFR2	23	17	KEEPER	769	n/a	n/a	0	0	0
3497.5986328125	n/a	WORD	7163082	wordpools/wasnorm_wordpool_576.txt	LTP349	ltpFR2	23	17	MUMMY	932	n/a	n/a	0	0	0
3500.11474609375	n/a	WORD	7168235	wordpools/wasnorm_wordpool_576.txt	LTP349	ltpFR2	23	17	BRICK	172	n/a	n/a	0	0	0
3502.74560546875	n/a	WORD	7173623	wordpools/wasnorm_wordpool_576.txt	LTP349	ltpFR2	23	17	BOULDER	155	n/a	n/a	0	0	0
3505.51171875	n/a	WORD	7179288	wordpools/wasnorm_wordpool_576.txt	LTP349	ltpFR2	23	17	FRIES	607	n/a	n/a	0	0	0
3508.06103515625	n/a	WORD	7184509	wordpools/wasnorm_wordpool_576.txt	LTP349	ltpFR2	23	17	SLACKS	1323	n/a	n/a	0	0	0
3510.81005859375	n/a	WORD	7190139	wordpools/wasnorm_wordpool_576.txt	LTP349	ltpFR2	23	17	MAILBOX	857	n/a	n/a	0	0	0
3513.60791015625	n/a	WORD	7195869	wordpools/wasnorm_wordpool_576.txt	LTP349	ltpFR2	23	17	POSTAGE	1113	n/a	n/a	0	0	0
3516.24072265625	n/a	WORD	7201261	wordpools/wasnorm_wordpool_576.txt	LTP349	ltpFR2	23	17	MARSH	874	n/a	n/a	0	0	0
3518.705078125	n/a	WORD	7206308	wordpools/wasnorm_wordpool_576.txt	LTP349	ltpFR2	23	17	GRAPE	654	n/a	n/a	0	0	0
3521.30517578125	n/a	WORD	7211633	wordpools/wasnorm_wordpool_576.txt	LTP349	ltpFR2	23	17	PARTY	1018	n/a	n/a	0	0	0
3523.90283203125	n/a	WORD	7216953	wordpools/wasnorm_wordpool_576.txt	LTP349	ltpFR2	23	17	BURGLAR	200	n/a	n/a	0	0	0
3525.51904296875	n/a	START	7220263	n/a	LTP349	ltpFR2	23	n/a	n/a	n/a	25	n/a	n/a	n/a	n/a
3526.31787109375	n/a	DISTRACTOR	7221899	n/a	LTP349	ltpFR2	23	17	n/a	n/a	n/a	n/a	0	0	0
3526.3359375	n/a	PROB	7221936	n/a	LTP349	ltpFR2	23	n/a	n/a	n/a	25	9	2	1	6
3528.6669921875	n/a	PROB	7226710	n/a	LTP349	ltpFR2	23	n/a	n/a	n/a	25	6	2	1	3
3530.85009765625	n/a	PROB	7231181	n/a	LTP349	ltpFR2	23	n/a	n/a	n/a	25	16	6	5	5
3532.615234375	n/a	PROB	7234796	n/a	LTP349	ltpFR2	23	n/a	n/a	n/a	25	17	1	7	9
3535.248046875	n/a	PROB	7240188	n/a	LTP349	ltpFR2	23	n/a	n/a	n/a	25	20	6	5	9
3537.962890625	n/a	PROB	7245748	n/a	LTP349	ltpFR2	23	n/a	n/a	n/a	25	14	2	9	3
3539.97900390625	n/a	PROB	7249877	n/a	LTP349	ltpFR2	23	n/a	n/a	n/a	25	20	6	5	9
3541.81103515625	n/a	PROB	7253629	n/a	LTP349	ltpFR2	23	n/a	n/a	n/a	25	11	1	5	5
3542.994140625	n/a	PROB	7256052	n/a	LTP349	ltpFR2	23	n/a	n/a	n/a	25	21	8	8	5
3545.2431640625	n/a	PROB	7260658	n/a	LTP349	ltpFR2	23	n/a	n/a	n/a	25	10	1	2	7
3546.958984375	n/a	PROB	7264172	n/a	LTP349	ltpFR2	23	n/a	n/a	n/a	25	13	7	3	3
3548.43603515625	n/a	STOP	7267197	n/a	LTP349	ltpFR2	23	n/a	n/a	n/a	25	n/a	n/a	n/a	n/a
3551.2900390625	n/a	REC_START	7273042	n/a	LTP349	ltpFR2	23	17	n/a	n/a	n/a	n/a	0	0	0
3552.67333984375	n/a	REC_WORD	7275875	wordpools/wasnorm_wordpool_576.txt	LTP349	ltpFR2	23	17	SUNRISE	1407	n/a	n/a	0	0	0
3553.89501953125	n/a	REC_WORD	7278377	wordpools/wasnorm_wordpool_576.txt	LTP349	ltpFR2	23	17	CONVENT	370	n/a	n/a	0	0	0
3555.1953125	n/a	REC_WORD	7281040	wordpools/wasnorm_wordpool_576.txt	LTP349	ltpFR2	23	17	CABLE	213	n/a	n/a	0	0	0
3555.47705078125	n/a	REC_WORD	7281617	wordpools/wasnorm_wordpool_576.txt	LTP349	ltpFR2	23	17	FOREST	593	n/a	n/a	0	0	0
3560.990234375	n/a	REC_WORD	7292908	wordpools/wasnorm_wordpool_576.txt	LTP349	ltpFR2	23	17	THIEF	1456	n/a	n/a	0	0	0
3598.638671875	n/a	REC_WORD	7370012	wordpools/wasnorm_wordpool_576.txt	LTP349	ltpFR2	23	17	PARTY	1018	n/a	n/a	0	0	0
3612.3115234375	n/a	REC_WORD_VV	7398014	wordpools/wasnorm_wordpool_576.txt	LTP349	ltpFR2	23	17	<>	-1	n/a	n/a	0	0	0
3613.1806640625	n/a	REC_WORD	7399794	wordpools/wasnorm_wordpool_576.txt	LTP349	ltpFR2	23	17	VALVE	1546	n/a	n/a	0	0	0
3641.74462890625	n/a	WORD	7458293	wordpools/wasnorm_wordpool_576.txt	LTP349	ltpFR2	23	18	SAUCER	1237	n/a	n/a	0	0	0
3644.5595703125	n/a	WORD	7464058	wordpools/wasnorm_wordpool_576.txt	LTP349	ltpFR2	23	18	KETTLE	772	n/a	n/a	0	0	0
3647.19287109375	n/a	WORD	7469451	wordpools/wasnorm_wordpool_576.txt	LTP349	ltpFR2	23	18	CARTON	251	n/a	n/a	0	0	0
3649.640625	n/a	WORD	7474464	wordpools/wasnorm_wordpool_576.txt	LTP349	ltpFR2	23	18	POND	1101	n/a	n/a	0	0	0
3652.40673828125	n/a	WORD	7480129	wordpools/wasnorm_wordpool_576.txt	LTP349	ltpFR2	23	18	CREVICE	405	n/a	n/a	0	0	0
3655.0556640625	n/a	WORD	7485554	wordpools/wasnorm_wordpool_576.txt	LTP349	ltpFR2	23	18	AGENT	10	n/a	n/a	0	0	0
3657.82080078125	n/a	WORD	7491217	wordpools/wasnorm_wordpool_576.txt	LTP349	ltpFR2	23	18	CHISEL	305	n/a	n/a	0	0	0
3660.5859375	n/a	WORD	7496880	wordpools/wasnorm_wordpool_576.txt	LTP349	ltpFR2	23	18	WATER	1594	n/a	n/a	0	0	0
3663.1689453125	n/a	WORD	7502170	wordpools/wasnorm_wordpool_576.txt	LTP349	ltpFR2	23	18	WAREHOUSE	1588	n/a	n/a	0	0	0
3665.64990234375	n/a	WORD	7507251	wordpools/wasnorm_wordpool_576.txt	LTP349	ltpFR2	23	18	DRAWER	493	n/a	n/a	0	0	0
3668.36572265625	n/a	WORD	7512813	wordpools/wasnorm_wordpool_576.txt	LTP349	ltpFR2	23	18	CANOE	233	n/a	n/a	0	0	0
3670.98193359375	n/a	WORD	7518171	wordpools/wasnorm_wordpool_576.txt	LTP349	ltpFR2	23	18	STAMP	1370	n/a	n/a	0	0	0
3673.5791015625	n/a	WORD	7523490	wordpools/wasnorm_wordpool_576.txt	LTP349	ltpFR2	23	18	FROG	608	n/a	n/a	0	0	0
3676.27880859375	n/a	WORD	7529019	wordpools/wasnorm_wordpool_576.txt	LTP349	ltpFR2	23	18	ROCKET	1202	n/a	n/a	0	0	0
3678.72705078125	n/a	WORD	7534033	wordpools/wasnorm_wordpool_576.txt	LTP349	ltpFR2	23	18	MONSTER	912	n/a	n/a	0	0	0
3681.5087890625	n/a	WORD	7539730	wordpools/wasnorm_wordpool_576.txt	LTP349	ltpFR2	23	18	DAD	433	n/a	n/a	0	0	0
3684.291015625	n/a	WORD	7545428	wordpools/wasnorm_wordpool_576.txt	LTP349	ltpFR2	23	18	WAIST	1579	n/a	n/a	0	0	0
3686.83984375	n/a	WORD	7550648	wordpools/wasnorm_wordpool_576.txt	LTP349	ltpFR2	23	18	TAVERN	1437	n/a	n/a	0	0	0
3689.587890625	n/a	WORD	7556276	wordpools/wasnorm_wordpool_576.txt	LTP349	ltpFR2	23	18	FLASK	576	n/a	n/a	0	0	0
3692.38818359375	n/a	WORD	7562011	wordpools/wasnorm_wordpool_576.txt	LTP349	ltpFR2	23	18	THIMBLE	1458	n/a	n/a	0	0	0
3694.93603515625	n/a	WORD	7567229	wordpools/wasnorm_wordpool_576.txt	LTP349	ltpFR2	23	18	NEEDLE	941	n/a	n/a	0	0	0
3697.48388671875	n/a	WORD	7572447	wordpools/wasnorm_wordpool_576.txt	LTP349	ltpFR2	23	18	UNCLE	1536	n/a	n/a	0	0	0
3700.14990234375	n/a	WORD	7577907	wordpools/wasnorm_wordpool_576.txt	LTP349	ltpFR2	23	18	LOUNGE	845	n/a	n/a	0	0	0
3702.93212890625	n/a	WORD	7583605	wordpools/wasnorm_wordpool_576.txt	LTP349	ltpFR2	23	18	TEACHER	1440	n/a	n/a	0	0	0
3704.54736328125	n/a	START	7586913	n/a	LTP349	ltpFR2	23	n/a	n/a	n/a	26	n/a	n/a	n/a	n/a
3705.53515625	n/a	DISTRACTOR	7588936	n/a	LTP349	ltpFR2	23	18	n/a	n/a	n/a	n/a	0	0	0
3705.54736328125	n/a	PROB	7588961	n/a	LTP349	ltpFR2	23	n/a	n/a	n/a	26	14	4	1	9
3711.17822265625	n/a	PROB	7600493	n/a	LTP349	ltpFR2	23	n/a	n/a	n/a	26	19	9	3	7
3713.16015625	n/a	PROB	7604552	n/a	LTP349	ltpFR2	23	n/a	n/a	n/a	26	21	9	7	6
3715.525390625	n/a	PROB	7609396	n/a	LTP349	ltpFR2	23	n/a	n/a	n/a	26	19	8	3	8
3717.30908203125	n/a	PROB	7613049	n/a	LTP349	ltpFR2	23	n/a	n/a	n/a	26	17	5	5	7
3719.5234375	n/a	PROB	7617584	n/a	LTP349	ltpFR2	23	n/a	n/a	n/a	26	13	9	4	2
3723.072265625	n/a	PROB	7624852	n/a	LTP349	ltpFR2	23	n/a	n/a	n/a	26	15	3	6	7
3724.87109375	n/a	PROB	7628536	n/a	LTP349	ltpFR2	23	n/a	n/a	n/a	26	14	7	1	6
3728.54736328125	n/a	STOP	7636065	n/a	LTP349	ltpFR2	23	n/a	n/a	n/a	26	n/a	n/a	n/a	n/a
3730.453125	n/a	REC_START	7639968	n/a	LTP349	ltpFR2	23	18	n/a	n/a	n/a	n/a	0	0	0
3732.1103515625	n/a	REC_WORD	7643362	wordpools/wasnorm_wordpool_576.txt	LTP349	ltpFR2	23	18	LOUNGE	845	n/a	n/a	0	0	0
3733.5224609375	n/a	REC_WORD	7646254	wordpools/wasnorm_wordpool_576.txt	LTP349	ltpFR2	23	18	DAD	433	n/a	n/a	0	0	0
3734.3251953125	n/a	REC_WORD	7647898	wordpools/wasnorm_wordpool_576.txt	LTP349	ltpFR2	23	18	UNCLE	1536	n/a	n/a	0	0	0
3735.4931640625	n/a	REC_WORD	7650290	wordpools/wasnorm_wordpool_576.txt	LTP349	ltpFR2	23	18	SAUCER	1237	n/a	n/a	0	0	0
3736.58056640625	n/a	REC_WORD	7652517	wordpools/wasnorm_wordpool_576.txt	LTP349	ltpFR2	23	18	KETTLE	772	n/a	n/a	0	0	0
3737.82861328125	n/a	REC_WORD	7655073	wordpools/wasnorm_wordpool_576.txt	LTP349	ltpFR2	23	18	POND	1101	n/a	n/a	0	0	0
3761.32763671875	n/a	REC_WORD	7703199	wordpools/wasnorm_wordpool_576.txt	LTP349	ltpFR2	23	18	FACTORY	548	n/a	n/a	0	0	0
3764.4033203125	n/a	REC_WORD	7709498	wordpools/wasnorm_wordpool_576.txt	LTP349	ltpFR2	23	18	THIMBLE	1458	n/a	n/a	0	0	0
3765.45068359375	n/a	REC_WORD	7711643	wordpools/wasnorm_wordpool_576.txt	LTP349	ltpFR2	23	18	NEEDLE	941	n/a	n/a	0	0	0
3820.90771484375	n/a	DISTRACTOR	7825219	n/a	LTP349	ltpFR2	23	19	n/a	n/a	n/a	n/a	0	0	0
3820.90771484375	n/a	START	7825219	n/a	LTP349	ltpFR2	23	n/a	n/a	n/a	27	n/a	n/a	n/a	n/a
