mstime	trial_type	stim_file	subject	experiment	session	trial	item_name	item_num	list	answer	test_x	test_y	test_z
0	SESS_START	n/a	LTP354	ltpFR2	19	n/a	n/a	n/a	n/a	n/a	0	0	0
15097	START	n/a	LTP354	ltpFR2	19	n/a	n/a	n/a	-1	n/a	n/a	n/a	n/a
27096	STOP	n/a	LTP354	ltpFR2	19	n/a	n/a	n/a	-1	n/a	n/a	n/a	n/a
57524	DISTRACTOR	n/a	LTP354	ltpFR2	19	1	n/a	n/a	n/a	n/a	0	0	0
57524	START	n/a	LTP354	ltpFR2	19	n/a	n/a	n/a	1	n/a	n/a	n/a	n/a
57541	PROB	n/a	LTP354	ltpFR2	19	n/a	n/a	n/a	1	13	4	4	5
59806	PROB	n/a	LTP354	ltpFR2	19	n/a	n/a	n/a	1	14	6	6	2
61090	PROB	n/a	LTP354	ltpFR2	19	n/a	n/a	n/a	1	15	3	8	4
62322	PROB	n/a	LTP354	ltpFR2	19	n/a	n/a	n/a	1	16	2	8	6
63388	PROB	n/a	LTP354	ltpFR2	19	n/a	n/a	n/a	1	14	2	5	7
65105	PROB	n/a	LTP354	ltpFR2	19	n/a	n/a	n/a	1	15	7	2	6
66486	PROB	n/a	LTP354	ltpFR2	19	n/a	n/a	n/a	1	9	2	1	6
67436	PROB	n/a	LTP354	ltpFR2	19	n/a	n/a	n/a	1	14	4	3	7
68419	PROB	n/a	LTP354	ltpFR2	19	n/a	n/a	n/a	1	7	1	5	1
69385	PROB	n/a	LTP354	ltpFR2	19	n/a	n/a	n/a	1	13	3	4	6
70301	PROB	n/a	LTP354	ltpFR2	19	n/a	n/a	n/a	1	15	3	8	4
71401	PROB	n/a	LTP354	ltpFR2	19	n/a	n/a	n/a	1	25	8	9	8
74166	PROB	n/a	LTP354	ltpFR2	19	n/a	n/a	n/a	1	25	9	8	8
75716	PROB	n/a	LTP354	ltpFR2	19	n/a	n/a	n/a	1	9	4	2	3
77215	PROB	n/a	LTP354	ltpFR2	19	n/a	n/a	n/a	1	25	9	7	9
78648	PROB	n/a	LTP354	ltpFR2	19	n/a	n/a	n/a	1	11	4	3	4
79764	PROB	n/a	LTP354	ltpFR2	19	n/a	n/a	n/a	1	13	1	8	4
80710	STOP	n/a	LTP354	ltpFR2	19	n/a	n/a	n/a	1	n/a	n/a	n/a	n/a
82363	WORD	wordpools/wasnorm_wordpool_576.txt	LTP354	ltpFR2	19	1	SLIME	1327	n/a	n/a	0	0	0
84912	WORD	wordpools/wasnorm_wordpool_576.txt	LTP354	ltpFR2	19	1	MOTEL	919	n/a	n/a	0	0	0
87527	WORD	wordpools/wasnorm_wordpool_576.txt	LTP354	ltpFR2	19	1	MOTOR	922	n/a	n/a	0	0	0
90060	WORD	wordpools/wasnorm_wordpool_576.txt	LTP354	ltpFR2	19	1	LIPSTICK	829	n/a	n/a	0	0	0
92841	WORD	wordpools/wasnorm_wordpool_576.txt	LTP354	ltpFR2	19	1	DRAGON	492	n/a	n/a	0	0	0
95523	WORD	wordpools/wasnorm_wordpool_576.txt	LTP354	ltpFR2	19	1	CURTAIN	427	n/a	n/a	0	0	0
98156	WORD	wordpools/wasnorm_wordpool_576.txt	LTP354	ltpFR2	19	1	FUNGUS	614	n/a	n/a	0	0	0
100721	WORD	wordpools/wasnorm_wordpool_576.txt	LTP354	ltpFR2	19	1	RADISH	1158	n/a	n/a	0	0	0
103287	WORD	wordpools/wasnorm_wordpool_576.txt	LTP354	ltpFR2	19	1	SALAD	1224	n/a	n/a	0	0	0
105952	WORD	wordpools/wasnorm_wordpool_576.txt	LTP354	ltpFR2	19	1	BUGGY	188	n/a	n/a	0	0	0
108601	WORD	wordpools/wasnorm_wordpool_576.txt	LTP354	ltpFR2	19	1	SNAIL	1332	n/a	n/a	0	0	0
111300	WORD	wordpools/wasnorm_wordpool_576.txt	LTP354	ltpFR2	19	1	SHELF	1280	n/a	n/a	0	0	0
113882	WORD	wordpools/wasnorm_wordpool_576.txt	LTP354	ltpFR2	19	1	HAND	683	n/a	n/a	0	0	0
116314	WORD	wordpools/wasnorm_wordpool_576.txt	LTP354	ltpFR2	19	1	YOLK	1633	n/a	n/a	0	0	0
119130	WORD	wordpools/wasnorm_wordpool_576.txt	LTP354	ltpFR2	19	1	BUNNY	198	n/a	n/a	0	0	0
121878	WORD	wordpools/wasnorm_wordpool_576.txt	LTP354	ltpFR2	19	1	ATOM	55	n/a	n/a	0	0	0
124627	WORD	wordpools/wasnorm_wordpool_576.txt	LTP354	ltpFR2	19	1	FIREPLACE	570	n/a	n/a	0	0	0
127376	WORD	wordpools/wasnorm_wordpool_576.txt	LTP354	ltpFR2	19	1	BOYFRIEND	162	n/a	n/a	0	0	0
129924	WORD	wordpools/wasnorm_wordpool_576.txt	LTP354	ltpFR2	19	1	GUARD	667	n/a	n/a	0	0	0
132423	WORD	wordpools/wasnorm_wordpool_576.txt	LTP354	ltpFR2	19	1	FLEET	578	n/a	n/a	0	0	0
134889	WORD	wordpools/wasnorm_wordpool_576.txt	LTP354	ltpFR2	19	1	HIKER	708	n/a	n/a	0	0	0
137438	WORD	wordpools/wasnorm_wordpool_576.txt	LTP354	ltpFR2	19	1	CHURCH	307	n/a	n/a	0	0	0
139937	WORD	wordpools/wasnorm_wordpool_576.txt	LTP354	ltpFR2	19	1	AUTHOR	61	n/a	n/a	0	0	0
142619	WORD	wordpools/wasnorm_wordpool_576.txt	LTP354	ltpFR2	19	1	PASSAGE	1019	n/a	n/a	0	0	0
144235	START	n/a	LTP354	ltpFR2	19	n/a	n/a	n/a	2	n/a	n/a	n/a	n/a
145209	DISTRACTOR	n/a	LTP354	ltpFR2	19	1	n/a	n/a	n/a	n/a	0	0	0
145218	PROB	n/a	LTP354	ltpFR2	19	n/a	n/a	n/a	2	9	2	5	2
146817	PROB	n/a	LTP354	ltpFR2	19	n/a	n/a	n/a	2	19	5	9	5
148000	PROB	n/a	LTP354	ltpFR2	19	n/a	n/a	n/a	2	14	9	2	3
150215	PROB	n/a	LTP354	ltpFR2	19	n/a	n/a	n/a	2	15	7	1	7
151231	PROB	n/a	LTP354	ltpFR2	19	n/a	n/a	n/a	2	11	1	8	2
152132	PROB	n/a	LTP354	ltpFR2	19	n/a	n/a	n/a	2	21	4	9	8
153797	PROB	n/a	LTP354	ltpFR2	19	n/a	n/a	n/a	2	21	7	9	5
155180	PROB	n/a	LTP354	ltpFR2	19	n/a	n/a	n/a	2	16	5	9	2
156812	PROB	n/a	LTP354	ltpFR2	19	n/a	n/a	n/a	2	15	6	4	5
157762	PROB	n/a	LTP354	ltpFR2	19	n/a	n/a	n/a	2	23	9	5	9
159079	PROB	n/a	LTP354	ltpFR2	19	n/a	n/a	n/a	2	13	2	3	8
160062	PROB	n/a	LTP354	ltpFR2	19	n/a	n/a	n/a	2	4	1	2	1
160994	PROB	n/a	LTP354	ltpFR2	19	n/a	n/a	n/a	2	21	9	4	8
162393	PROB	n/a	LTP354	ltpFR2	19	n/a	n/a	n/a	2	11	3	4	4
163543	PROB	n/a	LTP354	ltpFR2	19	n/a	n/a	n/a	2	16	4	8	4
165009	PROB	n/a	LTP354	ltpFR2	19	n/a	n/a	n/a	2	16	5	9	2
166817	STOP	n/a	LTP354	ltpFR2	19	n/a	n/a	n/a	2	n/a	n/a	n/a	n/a
170141	REC_START	n/a	LTP354	ltpFR2	19	1	n/a	n/a	n/a	n/a	0	0	0
172396	REC_WORD	wordpools/wasnorm_wordpool_576.txt	LTP354	ltpFR2	19	1	PASSAGE	1019	n/a	n/a	0	0	0
174715	REC_WORD	wordpools/wasnorm_wordpool_576.txt	LTP354	ltpFR2	19	1	HIKER	708	n/a	n/a	0	0	0
178779	REC_WORD	wordpools/wasnorm_wordpool_576.txt	LTP354	ltpFR2	19	1	FUNGUS	614	n/a	n/a	0	0	0
184706	REC_WORD	wordpools/wasnorm_wordpool_576.txt	LTP354	ltpFR2	19	1	MOUNTAIN	924	n/a	n/a	0	0	0
189880	REC_WORD	wordpools/wasnorm_wordpool_576.txt	LTP354	ltpFR2	19	1	SNAIL	1332	n/a	n/a	0	0	0
236084	REC_WORD	wordpools/wasnorm_wordpool_576.txt	LTP354	ltpFR2	19	1	LOAD	-1	n/a	n/a	0	0	0
260582	WORD	wordpools/wasnorm_wordpool_576.txt	LTP354	ltpFR2	19	2	SUMMIT	1405	n/a	n/a	0	0	0
263247	WORD	wordpools/wasnorm_wordpool_576.txt	LTP354	ltpFR2	19	2	IGLOO	734	n/a	n/a	0	0	0
265846	WORD	wordpools/wasnorm_wordpool_576.txt	LTP354	ltpFR2	19	2	BRICK	172	n/a	n/a	0	0	0
268478	WORD	wordpools/wasnorm_wordpool_576.txt	LTP354	ltpFR2	19	2	SCRIBBLE	1256	n/a	n/a	0	0	0
271310	WORD	wordpools/wasnorm_wordpool_576.txt	LTP354	ltpFR2	19	2	DUST	508	n/a	n/a	0	0	0
273776	WORD	wordpools/wasnorm_wordpool_576.txt	LTP354	ltpFR2	19	2	SPOON	1357	n/a	n/a	0	0	0
276392	WORD	wordpools/wasnorm_wordpool_576.txt	LTP354	ltpFR2	19	2	SCALPEL	1243	n/a	n/a	0	0	0
279174	WORD	wordpools/wasnorm_wordpool_576.txt	LTP354	ltpFR2	19	2	INFANT	737	n/a	n/a	0	0	0
281806	WORD	wordpools/wasnorm_wordpool_576.txt	LTP354	ltpFR2	19	2	BEAST	108	n/a	n/a	0	0	0
284271	WORD	wordpools/wasnorm_wordpool_576.txt	LTP354	ltpFR2	19	2	BLACKBOARD	133	n/a	n/a	0	0	0
287088	WORD	wordpools/wasnorm_wordpool_576.txt	LTP354	ltpFR2	19	2	THRONE	1461	n/a	n/a	0	0	0
289785	WORD	wordpools/wasnorm_wordpool_576.txt	LTP354	ltpFR2	19	2	CROWN	415	n/a	n/a	0	0	0
292434	WORD	wordpools/wasnorm_wordpool_576.txt	LTP354	ltpFR2	19	2	PUPIL	1143	n/a	n/a	0	0	0
294983	WORD	wordpools/wasnorm_wordpool_576.txt	LTP354	ltpFR2	19	2	BADGE	68	n/a	n/a	0	0	0
297565	WORD	wordpools/wasnorm_wordpool_576.txt	LTP354	ltpFR2	19	2	ANTLER	29	n/a	n/a	0	0	0
300297	WORD	wordpools/wasnorm_wordpool_576.txt	LTP354	ltpFR2	19	2	PRINCE	1124	n/a	n/a	0	0	0
302979	WORD	wordpools/wasnorm_wordpool_576.txt	LTP354	ltpFR2	19	2	AWARD	63	n/a	n/a	0	0	0
305646	WORD	wordpools/wasnorm_wordpool_576.txt	LTP354	ltpFR2	19	2	CANYON	235	n/a	n/a	0	0	0
308277	WORD	wordpools/wasnorm_wordpool_576.txt	LTP354	ltpFR2	19	2	PIGEON	1065	n/a	n/a	0	0	0
310843	WORD	wordpools/wasnorm_wordpool_576.txt	LTP354	ltpFR2	19	2	HEADBAND	696	n/a	n/a	0	0	0
313291	WORD	wordpools/wasnorm_wordpool_576.txt	LTP354	ltpFR2	19	2	TROMBONE	1508	n/a	n/a	0	0	0
315724	WORD	wordpools/wasnorm_wordpool_576.txt	LTP354	ltpFR2	19	2	CANAL	226	n/a	n/a	0	0	0
318423	WORD	wordpools/wasnorm_wordpool_576.txt	LTP354	ltpFR2	19	2	AIRPLANE	12	n/a	n/a	0	0	0
321056	WORD	wordpools/wasnorm_wordpool_576.txt	LTP354	ltpFR2	19	2	CHIPMUNK	304	n/a	n/a	0	0	0
322671	START	n/a	LTP354	ltpFR2	19	n/a	n/a	n/a	3	n/a	n/a	n/a	n/a
323535	DISTRACTOR	n/a	LTP354	ltpFR2	19	2	n/a	n/a	n/a	n/a	0	0	0
323537	PROB	n/a	LTP354	ltpFR2	19	n/a	n/a	n/a	3	9	3	5	1
324886	PROB	n/a	LTP354	ltpFR2	19	n/a	n/a	n/a	3	12	3	8	1
326236	PROB	n/a	LTP354	ltpFR2	19	n/a	n/a	n/a	3	16	4	3	9
327685	PROB	n/a	LTP354	ltpFR2	19	n/a	n/a	n/a	3	14	5	1	8
328951	PROB	n/a	LTP354	ltpFR2	19	n/a	n/a	n/a	3	10	6	2	2
329951	PROB	n/a	LTP354	ltpFR2	19	n/a	n/a	n/a	3	7	2	2	3
331550	PROB	n/a	LTP354	ltpFR2	19	n/a	n/a	n/a	3	24	7	8	9
332816	PROB	n/a	LTP354	ltpFR2	19	n/a	n/a	n/a	3	17	8	6	3
334465	PROB	n/a	LTP354	ltpFR2	19	n/a	n/a	n/a	3	5	1	2	2
335398	PROB	n/a	LTP354	ltpFR2	19	n/a	n/a	n/a	3	18	9	2	7
337997	PROB	n/a	LTP354	ltpFR2	19	n/a	n/a	n/a	3	7	4	2	1
339230	PROB	n/a	LTP354	ltpFR2	19	n/a	n/a	n/a	3	10	1	3	6
340246	PROB	n/a	LTP354	ltpFR2	19	n/a	n/a	n/a	3	20	8	5	7
342178	PROB	n/a	LTP354	ltpFR2	19	n/a	n/a	n/a	3	18	8	8	2
344561	PROB	n/a	LTP354	ltpFR2	19	n/a	n/a	n/a	3	10	3	6	1
345775	STOP	n/a	LTP354	ltpFR2	19	n/a	n/a	n/a	3	n/a	n/a	n/a	n/a
348443	REC_START	n/a	LTP354	ltpFR2	19	2	n/a	n/a	n/a	n/a	0	0	0
351905	REC_WORD	wordpools/wasnorm_wordpool_576.txt	LTP354	ltpFR2	19	2	SUMMIT	1405	n/a	n/a	0	0	0
353197	REC_WORD	wordpools/wasnorm_wordpool_576.txt	LTP354	ltpFR2	19	2	AWARD	63	n/a	n/a	0	0	0
354498	REC_WORD	wordpools/wasnorm_wordpool_576.txt	LTP354	ltpFR2	19	2	THRONE	1461	n/a	n/a	0	0	0
355769	REC_WORD	wordpools/wasnorm_wordpool_576.txt	LTP354	ltpFR2	19	2	INFANT	737	n/a	n/a	0	0	0
357011	REC_WORD	wordpools/wasnorm_wordpool_576.txt	LTP354	ltpFR2	19	2	BRICK	172	n/a	n/a	0	0	0
358447	REC_WORD	wordpools/wasnorm_wordpool_576.txt	LTP354	ltpFR2	19	2	CROWN	415	n/a	n/a	0	0	0
360260	REC_WORD	wordpools/wasnorm_wordpool_576.txt	LTP354	ltpFR2	19	2	PRINCE	1124	n/a	n/a	0	0	0
388271	REC_WORD	wordpools/wasnorm_wordpool_576.txt	LTP354	ltpFR2	19	2	CANAL	226	n/a	n/a	0	0	0
395304	REC_WORD	wordpools/wasnorm_wordpool_576.txt	LTP354	ltpFR2	19	2	BADGE	68	n/a	n/a	0	0	0
438868	DISTRACTOR	n/a	LTP354	ltpFR2	19	3	n/a	n/a	n/a	n/a	0	0	0
438868	START	n/a	LTP354	ltpFR2	19	n/a	n/a	n/a	4	n/a	n/a	n/a	n/a
438885	PROB	n/a	LTP354	ltpFR2	19	n/a	n/a	n/a	4	17	7	7	3
440801	PROB	n/a	LTP354	ltpFR2	19	n/a	n/a	n/a	4	12	6	4	2
441733	PROB	n/a	LTP354	ltpFR2	19	n/a	n/a	n/a	4	14	6	6	2
442766	PROB	n/a	LTP354	ltpFR2	19	n/a	n/a	n/a	4	9	1	1	7
443816	PROB	n/a	LTP354	ltpFR2	19	n/a	n/a	n/a	4	9	3	3	3
444649	PROB	n/a	LTP354	ltpFR2	19	n/a	n/a	n/a	4	14	8	1	5
445798	PROB	n/a	LTP354	ltpFR2	19	n/a	n/a	n/a	4	21	8	7	6
447914	PROB	n/a	LTP354	ltpFR2	19	n/a	n/a	n/a	4	18	7	6	5
449630	PROB	n/a	LTP354	ltpFR2	19	n/a	n/a	n/a	4	12	4	7	1
450913	PROB	n/a	LTP354	ltpFR2	19	n/a	n/a	n/a	4	14	8	5	1
452229	PROB	n/a	LTP354	ltpFR2	19	n/a	n/a	n/a	4	13	7	4	2
453795	PROB	n/a	LTP354	ltpFR2	19	n/a	n/a	n/a	4	13	4	6	3
454977	PROB	n/a	LTP354	ltpFR2	19	n/a	n/a	n/a	4	12	5	5	2
455860	PROB	n/a	LTP354	ltpFR2	19	n/a	n/a	n/a	4	13	6	4	3
456793	PROB	n/a	LTP354	ltpFR2	19	n/a	n/a	n/a	4	13	2	5	6
458243	PROB	n/a	LTP354	ltpFR2	19	n/a	n/a	n/a	4	9	2	3	4
460542	PROB	n/a	LTP354	ltpFR2	19	n/a	n/a	n/a	4	20	6	7	7
461810	STOP	n/a	LTP354	ltpFR2	19	n/a	n/a	n/a	4	n/a	n/a	n/a	n/a
463740	WORD	wordpools/wasnorm_wordpool_576.txt	LTP354	ltpFR2	19	3	FRAME	600	n/a	n/a	0	0	0
466472	WORD	wordpools/wasnorm_wordpool_576.txt	LTP354	ltpFR2	19	3	PICTURE	1061	n/a	n/a	0	0	0
468904	WORD	wordpools/wasnorm_wordpool_576.txt	LTP354	ltpFR2	19	3	SHOVEL	1295	n/a	n/a	0	0	0
471503	WORD	wordpools/wasnorm_wordpool_576.txt	LTP354	ltpFR2	19	3	TROUT	1511	n/a	n/a	0	0	0
474035	WORD	wordpools/wasnorm_wordpool_576.txt	LTP354	ltpFR2	19	3	KNIFE	785	n/a	n/a	0	0	0
476501	WORD	wordpools/wasnorm_wordpool_576.txt	LTP354	ltpFR2	19	3	HERO	706	n/a	n/a	0	0	0
478950	WORD	wordpools/wasnorm_wordpool_576.txt	LTP354	ltpFR2	19	3	HOUND	724	n/a	n/a	0	0	0
481499	WORD	wordpools/wasnorm_wordpool_576.txt	LTP354	ltpFR2	19	3	PANTHER	1009	n/a	n/a	0	0	0
484099	WORD	wordpools/wasnorm_wordpool_576.txt	LTP354	ltpFR2	19	3	FOX	598	n/a	n/a	0	0	0
486780	WORD	wordpools/wasnorm_wordpool_576.txt	LTP354	ltpFR2	19	3	CUPBOARD	425	n/a	n/a	0	0	0
489545	WORD	wordpools/wasnorm_wordpool_576.txt	LTP354	ltpFR2	19	3	SALMON	1227	n/a	n/a	0	0	0
492277	WORD	wordpools/wasnorm_wordpool_576.txt	LTP354	ltpFR2	19	3	TREAT	1501	n/a	n/a	0	0	0
494710	WORD	wordpools/wasnorm_wordpool_576.txt	LTP354	ltpFR2	19	3	LOFT	840	n/a	n/a	0	0	0
497143	WORD	wordpools/wasnorm_wordpool_576.txt	LTP354	ltpFR2	19	3	PADDING	999	n/a	n/a	0	0	0
499874	WORD	wordpools/wasnorm_wordpool_576.txt	LTP354	ltpFR2	19	3	TUBA	1515	n/a	n/a	0	0	0
502306	WORD	wordpools/wasnorm_wordpool_576.txt	LTP354	ltpFR2	19	3	GRAVEL	659	n/a	n/a	0	0	0
504788	WORD	wordpools/wasnorm_wordpool_576.txt	LTP354	ltpFR2	19	3	POET	1095	n/a	n/a	0	0	0
507570	WORD	wordpools/wasnorm_wordpool_576.txt	LTP354	ltpFR2	19	3	KETCHUP	771	n/a	n/a	0	0	0
510269	WORD	wordpools/wasnorm_wordpool_576.txt	LTP354	ltpFR2	19	3	POISON	1096	n/a	n/a	0	0	0
512735	WORD	wordpools/wasnorm_wordpool_576.txt	LTP354	ltpFR2	19	3	BODY	145	n/a	n/a	0	0	0
515250	WORD	wordpools/wasnorm_wordpool_576.txt	LTP354	ltpFR2	19	3	RUST	1219	n/a	n/a	0	0	0
517866	WORD	wordpools/wasnorm_wordpool_576.txt	LTP354	ltpFR2	19	3	COFFEE	341	n/a	n/a	0	0	0
520448	WORD	wordpools/wasnorm_wordpool_576.txt	LTP354	ltpFR2	19	3	CATTLE	261	n/a	n/a	0	0	0
523013	WORD	wordpools/wasnorm_wordpool_576.txt	LTP354	ltpFR2	19	3	EMPIRE	530	n/a	n/a	0	0	0
524629	START	n/a	LTP354	ltpFR2	19	n/a	n/a	n/a	5	n/a	n/a	n/a	n/a
525540	DISTRACTOR	n/a	LTP354	ltpFR2	19	3	n/a	n/a	n/a	n/a	0	0	0
525546	PROB	n/a	LTP354	ltpFR2	19	n/a	n/a	n/a	5	10	7	2	1
526928	PROB	n/a	LTP354	ltpFR2	19	n/a	n/a	n/a	5	19	8	6	5
529444	PROB	n/a	LTP354	ltpFR2	19	n/a	n/a	n/a	5	12	2	8	2
530627	PROB	n/a	LTP354	ltpFR2	19	n/a	n/a	n/a	5	22	9	7	6
532392	PROB	n/a	LTP354	ltpFR2	19	n/a	n/a	n/a	5	17	7	5	5
533542	PROB	n/a	LTP354	ltpFR2	19	n/a	n/a	n/a	5	14	6	5	3
534775	PROB	n/a	LTP354	ltpFR2	19	n/a	n/a	n/a	5	24	8	8	8
535824	PROB	n/a	LTP354	ltpFR2	19	n/a	n/a	n/a	5	17	9	5	3
538390	PROB	n/a	LTP354	ltpFR2	19	n/a	n/a	n/a	5	15	3	5	7
539589	PROB	n/a	LTP354	ltpFR2	19	n/a	n/a	n/a	5	13	7	3	3
540589	PROB	n/a	LTP354	ltpFR2	19	n/a	n/a	n/a	5	12	5	4	3
541821	PROB	n/a	LTP354	ltpFR2	19	n/a	n/a	n/a	5	23	9	6	8
543737	PROB	n/a	LTP354	ltpFR2	19	n/a	n/a	n/a	5	10	2	5	3
545636	PROB	n/a	LTP354	ltpFR2	19	n/a	n/a	n/a	5	11	9	1	1
546553	PROB	n/a	LTP354	ltpFR2	19	n/a	n/a	n/a	5	7	2	3	2
548597	STOP	n/a	LTP354	ltpFR2	19	n/a	n/a	n/a	5	n/a	n/a	n/a	n/a
550419	REC_START	n/a	LTP354	ltpFR2	19	3	n/a	n/a	n/a	n/a	0	0	0
551389	REC_WORD	wordpools/wasnorm_wordpool_576.txt	LTP354	ltpFR2	19	3	PICTURE	1061	n/a	n/a	0	0	0
552176	REC_WORD	wordpools/wasnorm_wordpool_576.txt	LTP354	ltpFR2	19	3	FRAME	600	n/a	n/a	0	0	0
553734	REC_WORD	wordpools/wasnorm_wordpool_576.txt	LTP354	ltpFR2	19	3	CATTLE	261	n/a	n/a	0	0	0
554769	REC_WORD	wordpools/wasnorm_wordpool_576.txt	LTP354	ltpFR2	19	3	RUST	1219	n/a	n/a	0	0	0
557408	REC_WORD	wordpools/wasnorm_wordpool_576.txt	LTP354	ltpFR2	19	3	DUST	508	n/a	n/a	0	0	0
559658	REC_WORD	wordpools/wasnorm_wordpool_576.txt	LTP354	ltpFR2	19	3	HOUND	724	n/a	n/a	0	0	0
560588	REC_WORD	wordpools/wasnorm_wordpool_576.txt	LTP354	ltpFR2	19	3	FOX	598	n/a	n/a	0	0	0
561588	REC_WORD	wordpools/wasnorm_wordpool_576.txt	LTP354	ltpFR2	19	3	PANTHER	1009	n/a	n/a	0	0	0
565556	REC_WORD	wordpools/wasnorm_wordpool_576.txt	LTP354	ltpFR2	19	3	KNIFE	785	n/a	n/a	0	0	0
568716	REC_WORD	wordpools/wasnorm_wordpool_576.txt	LTP354	ltpFR2	19	3	HERO	706	n/a	n/a	0	0	0
570687	REC_WORD	wordpools/wasnorm_wordpool_576.txt	LTP354	ltpFR2	19	3	POISON	1096	n/a	n/a	0	0	0
572987	REC_WORD	wordpools/wasnorm_wordpool_576.txt	LTP354	ltpFR2	19	3	TUBA	1515	n/a	n/a	0	0	0
574035	REC_WORD	wordpools/wasnorm_wordpool_576.txt	LTP354	ltpFR2	19	3	LOFT	840	n/a	n/a	0	0	0
575780	REC_WORD	wordpools/wasnorm_wordpool_576.txt	LTP354	ltpFR2	19	3	PADDING	999	n/a	n/a	0	0	0
586251	REC_WORD	wordpools/wasnorm_wordpool_576.txt	LTP354	ltpFR2	19	3	GRAVEL	659	n/a	n/a	0	0	0
590390	REC_WORD	wordpools/wasnorm_wordpool_576.txt	LTP354	ltpFR2	19	3	TROUT	1511	n/a	n/a	0	0	0
640843	DISTRACTOR	n/a	LTP354	ltpFR2	19	4	n/a	n/a	n/a	n/a	0	0	0
640844	START	n/a	LTP354	ltpFR2	19	n/a	n/a	n/a	6	n/a	n/a	n/a	n/a
640860	PROB	n/a	LTP354	ltpFR2	19	n/a	n/a	n/a	6	6	1	3	2
642176	PROB	n/a	LTP354	ltpFR2	19	n/a	n/a	n/a	6	5	2	1	2
643992	PROB	n/a	LTP354	ltpFR2	19	n/a	n/a	n/a	6	23	5	9	9
645191	PROB	n/a	LTP354	ltpFR2	19	n/a	n/a	n/a	6	5	2	2	1
646092	PROB	n/a	LTP354	ltpFR2	19	n/a	n/a	n/a	6	21	9	4	8
647240	PROB	n/a	LTP354	ltpFR2	19	n/a	n/a	n/a	6	19	6	4	9
648523	PROB	n/a	LTP354	ltpFR2	19	n/a	n/a	n/a	6	22	6	9	7
651255	PROB	n/a	LTP354	ltpFR2	19	n/a	n/a	n/a	6	15	4	6	5
652505	PROB	n/a	LTP354	ltpFR2	19	n/a	n/a	n/a	6	11	2	6	3
653921	PROB	n/a	LTP354	ltpFR2	19	n/a	n/a	n/a	6	21	9	3	9
654954	PROB	n/a	LTP354	ltpFR2	19	n/a	n/a	n/a	6	9	4	3	2
656470	PROB	n/a	LTP354	ltpFR2	19	n/a	n/a	n/a	6	22	7	6	9
658335	PROB	n/a	LTP354	ltpFR2	19	n/a	n/a	n/a	6	17	1	8	8
659635	PROB	n/a	LTP354	ltpFR2	19	n/a	n/a	n/a	6	17	5	6	6
661001	PROB	n/a	LTP354	ltpFR2	19	n/a	n/a	n/a	6	20	4	8	8
663360	STOP	n/a	LTP354	ltpFR2	19	n/a	n/a	n/a	6	n/a	n/a	n/a	n/a
665915	WORD	wordpools/wasnorm_wordpool_576.txt	LTP354	ltpFR2	19	4	RACKET	1155	n/a	n/a	0	0	0
668398	WORD	wordpools/wasnorm_wordpool_576.txt	LTP354	ltpFR2	19	4	PLASTER	1085	n/a	n/a	0	0	0
671064	WORD	wordpools/wasnorm_wordpool_576.txt	LTP354	ltpFR2	19	4	HOOD	714	n/a	n/a	0	0	0
673712	WORD	wordpools/wasnorm_wordpool_576.txt	LTP354	ltpFR2	19	4	PISTON	1076	n/a	n/a	0	0	0
676494	WORD	wordpools/wasnorm_wordpool_576.txt	LTP354	ltpFR2	19	4	STAPLE	1371	n/a	n/a	0	0	0
679144	WORD	wordpools/wasnorm_wordpool_576.txt	LTP354	ltpFR2	19	4	MASK	876	n/a	n/a	0	0	0
681675	WORD	wordpools/wasnorm_wordpool_576.txt	LTP354	ltpFR2	19	4	PATROL	1027	n/a	n/a	0	0	0
684158	WORD	wordpools/wasnorm_wordpool_576.txt	LTP354	ltpFR2	19	4	PAPER	1011	n/a	n/a	0	0	0
686889	WORD	wordpools/wasnorm_wordpool_576.txt	LTP354	ltpFR2	19	4	JUNGLE	764	n/a	n/a	0	0	0
689438	WORD	wordpools/wasnorm_wordpool_576.txt	LTP354	ltpFR2	19	4	FIDDLE	561	n/a	n/a	0	0	0
692170	WORD	wordpools/wasnorm_wordpool_576.txt	LTP354	ltpFR2	19	4	FLESH	579	n/a	n/a	0	0	0
694619	WORD	wordpools/wasnorm_wordpool_576.txt	LTP354	ltpFR2	19	4	FEMALE	559	n/a	n/a	0	0	0
697434	WORD	wordpools/wasnorm_wordpool_576.txt	LTP354	ltpFR2	19	4	PASTRY	1022	n/a	n/a	0	0	0
699983	WORD	wordpools/wasnorm_wordpool_576.txt	LTP354	ltpFR2	19	4	DOUGHNUT	490	n/a	n/a	0	0	0
702599	WORD	wordpools/wasnorm_wordpool_576.txt	LTP354	ltpFR2	19	4	SUBWAY	1400	n/a	n/a	0	0	0
705082	WORD	wordpools/wasnorm_wordpool_576.txt	LTP354	ltpFR2	19	4	JOURNAL	760	n/a	n/a	0	0	0
707746	WORD	wordpools/wasnorm_wordpool_576.txt	LTP354	ltpFR2	19	4	JEANS	752	n/a	n/a	0	0	0
710345	WORD	wordpools/wasnorm_wordpool_576.txt	LTP354	ltpFR2	19	4	PERFUME	1049	n/a	n/a	0	0	0
713128	WORD	wordpools/wasnorm_wordpool_576.txt	LTP354	ltpFR2	19	4	LOVER	846	n/a	n/a	0	0	0
715843	WORD	wordpools/wasnorm_wordpool_576.txt	LTP354	ltpFR2	19	4	CASHEW	253	n/a	n/a	0	0	0
718675	WORD	wordpools/wasnorm_wordpool_576.txt	LTP354	ltpFR2	19	4	PECAN	1036	n/a	n/a	0	0	0
721257	WORD	wordpools/wasnorm_wordpool_576.txt	LTP354	ltpFR2	19	4	TABLE	1426	n/a	n/a	0	0	0
723972	WORD	wordpools/wasnorm_wordpool_576.txt	LTP354	ltpFR2	19	4	DRESSER	496	n/a	n/a	0	0	0
726621	WORD	wordpools/wasnorm_wordpool_576.txt	LTP354	ltpFR2	19	4	MUSTARD	935	n/a	n/a	0	0	0
728237	START	n/a	LTP354	ltpFR2	19	n/a	n/a	n/a	7	n/a	n/a	n/a	n/a
729148	DISTRACTOR	n/a	LTP354	ltpFR2	19	4	n/a	n/a	n/a	n/a	0	0	0
729154	PROB	n/a	LTP354	ltpFR2	19	n/a	n/a	n/a	7	13	1	8	4
730803	PROB	n/a	LTP354	ltpFR2	19	n/a	n/a	n/a	7	19	8	7	4
732802	PROB	n/a	LTP354	ltpFR2	19	n/a	n/a	n/a	7	15	8	4	3
733951	PROB	n/a	LTP354	ltpFR2	19	n/a	n/a	n/a	7	11	6	3	2
735234	PROB	n/a	LTP354	ltpFR2	19	n/a	n/a	n/a	7	17	7	1	9
736350	PROB	n/a	LTP354	ltpFR2	19	n/a	n/a	n/a	7	20	7	4	9
738150	PROB	n/a	LTP354	ltpFR2	19	n/a	n/a	n/a	7	13	5	5	3
739050	PROB	n/a	LTP354	ltpFR2	19	n/a	n/a	n/a	7	12	4	5	3
740182	PROB	n/a	LTP354	ltpFR2	19	n/a	n/a	n/a	7	10	7	2	1
741149	PROB	n/a	LTP354	ltpFR2	19	n/a	n/a	n/a	7	14	4	3	7
742214	PROB	n/a	LTP354	ltpFR2	19	n/a	n/a	n/a	7	11	2	2	7
743330	PROB	n/a	LTP354	ltpFR2	19	n/a	n/a	n/a	7	23	8	8	7
744813	PROB	n/a	LTP354	ltpFR2	19	n/a	n/a	n/a	7	15	1	8	6
746712	PROB	n/a	LTP354	ltpFR2	19	n/a	n/a	n/a	7	12	6	2	4
747962	PROB	n/a	LTP354	ltpFR2	19	n/a	n/a	n/a	7	21	8	8	5
749112	PROB	n/a	LTP354	ltpFR2	19	n/a	n/a	n/a	7	15	2	7	6
750819	STOP	n/a	LTP354	ltpFR2	19	n/a	n/a	n/a	7	n/a	n/a	n/a	n/a
754043	REC_START	n/a	LTP354	ltpFR2	19	4	n/a	n/a	n/a	n/a	0	0	0
759928	REC_WORD	wordpools/wasnorm_wordpool_576.txt	LTP354	ltpFR2	19	4	FEMALE	559	n/a	n/a	0	0	0
766987	REC_WORD	wordpools/wasnorm_wordpool_576.txt	LTP354	ltpFR2	19	4	FLESH	579	n/a	n/a	0	0	0
782675	REC_WORD	wordpools/wasnorm_wordpool_576.txt	LTP354	ltpFR2	19	4	FIDDLE	561	n/a	n/a	0	0	0
844468	DISTRACTOR	n/a	LTP354	ltpFR2	19	5	n/a	n/a	n/a	n/a	0	0	0
844468	START	n/a	LTP354	ltpFR2	19	n/a	n/a	n/a	8	n/a	n/a	n/a	n/a
844485	PROB	n/a	LTP354	ltpFR2	19	n/a	n/a	n/a	8	11	6	1	4
846017	PROB	n/a	LTP354	ltpFR2	19	n/a	n/a	n/a	8	12	9	2	1
847367	PROB	n/a	LTP354	ltpFR2	19	n/a	n/a	n/a	8	15	5	8	2
849449	PROB	n/a	LTP354	ltpFR2	19	n/a	n/a	n/a	8	4	1	2	1
850615	PROB	n/a	LTP354	ltpFR2	19	n/a	n/a	n/a	8	14	2	4	8
852231	PROB	n/a	LTP354	ltpFR2	19	n/a	n/a	n/a	8	12	5	2	5
853132	PROB	n/a	LTP354	ltpFR2	19	n/a	n/a	n/a	8	17	6	3	8
854480	PROB	n/a	LTP354	ltpFR2	19	n/a	n/a	n/a	8	14	1	9	4
855463	PROB	n/a	LTP354	ltpFR2	19	n/a	n/a	n/a	8	16	5	6	5
856446	PROB	n/a	LTP354	ltpFR2	19	n/a	n/a	n/a	8	16	3	5	8
857795	PROB	n/a	LTP354	ltpFR2	19	n/a	n/a	n/a	8	16	7	1	8
858878	PROB	n/a	LTP354	ltpFR2	19	n/a	n/a	n/a	8	16	3	6	7
860228	PROB	n/a	LTP354	ltpFR2	19	n/a	n/a	n/a	8	16	3	7	6
861194	PROB	n/a	LTP354	ltpFR2	19	n/a	n/a	n/a	8	15	4	2	9
863693	PROB	n/a	LTP354	ltpFR2	19	n/a	n/a	n/a	8	16	4	3	9
865126	PROB	n/a	LTP354	ltpFR2	19	n/a	n/a	n/a	8	8	5	1	2
866076	PROB	n/a	LTP354	ltpFR2	19	n/a	n/a	n/a	8	18	4	6	8
867096	STOP	n/a	LTP354	ltpFR2	19	n/a	n/a	n/a	8	n/a	n/a	n/a	n/a
869523	WORD	wordpools/wasnorm_wordpool_576.txt	LTP354	ltpFR2	19	5	BANK	83	n/a	n/a	0	0	0
872056	WORD	wordpools/wasnorm_wordpool_576.txt	LTP354	ltpFR2	19	5	SLUG	1329	n/a	n/a	0	0	0
874688	WORD	wordpools/wasnorm_wordpool_576.txt	LTP354	ltpFR2	19	5	PREACHER	1119	n/a	n/a	0	0	0
877203	WORD	wordpools/wasnorm_wordpool_576.txt	LTP354	ltpFR2	19	5	TRUCK	1512	n/a	n/a	0	0	0
879952	WORD	wordpools/wasnorm_wordpool_576.txt	LTP354	ltpFR2	19	5	TRACTOR	1493	n/a	n/a	0	0	0
882384	WORD	wordpools/wasnorm_wordpool_576.txt	LTP354	ltpFR2	19	5	LILY	821	n/a	n/a	0	0	0
884883	WORD	wordpools/wasnorm_wordpool_576.txt	LTP354	ltpFR2	19	5	BUTCHER	203	n/a	n/a	0	0	0
887382	WORD	wordpools/wasnorm_wordpool_576.txt	LTP354	ltpFR2	19	5	POPCORN	1104	n/a	n/a	0	0	0
890115	WORD	wordpools/wasnorm_wordpool_576.txt	LTP354	ltpFR2	19	5	HATCHET	691	n/a	n/a	0	0	0
892580	WORD	wordpools/wasnorm_wordpool_576.txt	LTP354	ltpFR2	19	5	FRECKLE	602	n/a	n/a	0	0	0
895113	WORD	wordpools/wasnorm_wordpool_576.txt	LTP354	ltpFR2	19	5	GHETTO	633	n/a	n/a	0	0	0
897894	WORD	wordpools/wasnorm_wordpool_576.txt	LTP354	ltpFR2	19	5	PISTOL	1075	n/a	n/a	0	0	0
900359	WORD	wordpools/wasnorm_wordpool_576.txt	LTP354	ltpFR2	19	5	SPONGE	1355	n/a	n/a	0	0	0
903041	WORD	wordpools/wasnorm_wordpool_576.txt	LTP354	ltpFR2	19	5	PLIERS	1089	n/a	n/a	0	0	0
905724	WORD	wordpools/wasnorm_wordpool_576.txt	LTP354	ltpFR2	19	5	SWITCH	1422	n/a	n/a	0	0	0
908506	WORD	wordpools/wasnorm_wordpool_576.txt	LTP354	ltpFR2	19	5	ROOSTER	1209	n/a	n/a	0	0	0
911288	WORD	wordpools/wasnorm_wordpool_576.txt	LTP354	ltpFR2	19	5	GRILL	661	n/a	n/a	0	0	0
913887	WORD	wordpools/wasnorm_wordpool_576.txt	LTP354	ltpFR2	19	5	PATIENT	1024	n/a	n/a	0	0	0
916419	WORD	wordpools/wasnorm_wordpool_576.txt	LTP354	ltpFR2	19	5	FOREHEAD	592	n/a	n/a	0	0	0
918984	WORD	wordpools/wasnorm_wordpool_576.txt	LTP354	ltpFR2	19	5	CARRIAGE	248	n/a	n/a	0	0	0
921666	WORD	wordpools/wasnorm_wordpool_576.txt	LTP354	ltpFR2	19	5	CRAB	397	n/a	n/a	0	0	0
924182	WORD	wordpools/wasnorm_wordpool_576.txt	LTP354	ltpFR2	19	5	HIGHWAY	707	n/a	n/a	0	0	0
926964	WORD	wordpools/wasnorm_wordpool_576.txt	LTP354	ltpFR2	19	5	PLAZA	1088	n/a	n/a	0	0	0
929529	WORD	wordpools/wasnorm_wordpool_576.txt	LTP354	ltpFR2	19	5	MARKET	871	n/a	n/a	0	0	0
931147	START	n/a	LTP354	ltpFR2	19	n/a	n/a	n/a	9	n/a	n/a	n/a	n/a
932287	DISTRACTOR	n/a	LTP354	ltpFR2	19	5	n/a	n/a	n/a	n/a	0	0	0
932295	PROB	n/a	LTP354	ltpFR2	19	n/a	n/a	n/a	9	16	2	7	7
933777	PROB	n/a	LTP354	ltpFR2	19	n/a	n/a	n/a	9	22	9	4	9
935061	PROB	n/a	LTP354	ltpFR2	19	n/a	n/a	n/a	9	15	9	2	4
937642	PROB	n/a	LTP354	ltpFR2	19	n/a	n/a	n/a	9	22	8	7	7
939425	PROB	n/a	LTP354	ltpFR2	19	n/a	n/a	n/a	9	9	4	1	4
940541	PROB	n/a	LTP354	ltpFR2	19	n/a	n/a	n/a	9	17	4	9	4
942240	PROB	n/a	LTP354	ltpFR2	19	n/a	n/a	n/a	9	12	1	2	9
943406	PROB	n/a	LTP354	ltpFR2	19	n/a	n/a	n/a	9	8	3	4	1
945090	PROB	n/a	LTP354	ltpFR2	19	n/a	n/a	n/a	9	19	8	2	9
946705	PROB	n/a	LTP354	ltpFR2	19	n/a	n/a	n/a	9	19	8	7	4
948288	PROB	n/a	LTP354	ltpFR2	19	n/a	n/a	n/a	9	11	6	1	4
950088	PROB	n/a	LTP354	ltpFR2	19	n/a	n/a	n/a	9	16	5	5	6
951303	PROB	n/a	LTP354	ltpFR2	19	n/a	n/a	n/a	9	17	7	9	1
952486	PROB	n/a	LTP354	ltpFR2	19	n/a	n/a	n/a	9	12	6	3	3
953569	PROB	n/a	LTP354	ltpFR2	19	n/a	n/a	n/a	9	9	4	4	1
954618	STOP	n/a	LTP354	ltpFR2	19	n/a	n/a	n/a	9	n/a	n/a	n/a	n/a
957034	REC_START	n/a	LTP354	ltpFR2	19	5	n/a	n/a	n/a	n/a	0	0	0
968763	REC_WORD	wordpools/wasnorm_wordpool_576.txt	LTP354	ltpFR2	19	5	MARKET	871	n/a	n/a	0	0	0
991175	REC_WORD	wordpools/wasnorm_wordpool_576.txt	LTP354	ltpFR2	19	5	PISTOL	1075	n/a	n/a	0	0	0
993546	REC_WORD	wordpools/wasnorm_wordpool_576.txt	LTP354	ltpFR2	19	5	HATCHET	691	n/a	n/a	0	0	0
996173	REC_WORD	wordpools/wasnorm_wordpool_576.txt	LTP354	ltpFR2	19	5	SWITCH	1422	n/a	n/a	0	0	0
1010160	REC_WORD	wordpools/wasnorm_wordpool_576.txt	LTP354	ltpFR2	19	5	BANK	83	n/a	n/a	0	0	0
1015229	REC_WORD	wordpools/wasnorm_wordpool_576.txt	LTP354	ltpFR2	19	5	PUPIL	1143	n/a	n/a	0	0	0
1018875	REC_WORD	wordpools/wasnorm_wordpool_576.txt	LTP354	ltpFR2	19	5	GHETTO	633	n/a	n/a	0	0	0
1021543	REC_WORD	wordpools/wasnorm_wordpool_576.txt	LTP354	ltpFR2	19	5	CARRIAGE	248	n/a	n/a	0	0	0
1047459	DISTRACTOR	n/a	LTP354	ltpFR2	19	6	n/a	n/a	n/a	n/a	0	0	0
1047460	START	n/a	LTP354	ltpFR2	19	n/a	n/a	n/a	10	n/a	n/a	n/a	n/a
1047476	PROB	n/a	LTP354	ltpFR2	19	n/a	n/a	n/a	10	20	7	7	6
1048742	PROB	n/a	LTP354	ltpFR2	19	n/a	n/a	n/a	10	12	7	2	3
1049875	PROB	n/a	LTP354	ltpFR2	19	n/a	n/a	n/a	10	22	7	9	6
1051941	PROB	n/a	LTP354	ltpFR2	19	n/a	n/a	n/a	10	19	5	5	9
1052940	PROB	n/a	LTP354	ltpFR2	19	n/a	n/a	n/a	10	18	8	6	4
1054023	PROB	n/a	LTP354	ltpFR2	19	n/a	n/a	n/a	10	14	5	7	2
1055422	PROB	n/a	LTP354	ltpFR2	19	n/a	n/a	n/a	10	21	9	7	5
1056772	PROB	n/a	LTP354	ltpFR2	19	n/a	n/a	n/a	10	19	9	4	6
1057871	PROB	n/a	LTP354	ltpFR2	19	n/a	n/a	n/a	10	16	4	7	5
1061303	PROB	n/a	LTP354	ltpFR2	19	n/a	n/a	n/a	10	9	5	3	1
1062453	PROB	n/a	LTP354	ltpFR2	19	n/a	n/a	n/a	10	19	6	4	9
1063452	PROB	n/a	LTP354	ltpFR2	19	n/a	n/a	n/a	10	17	5	6	6
1064868	PROB	n/a	LTP354	ltpFR2	19	n/a	n/a	n/a	10	13	7	1	5
1066102	PROB	n/a	LTP354	ltpFR2	19	n/a	n/a	n/a	10	13	1	6	6
1067367	PROB	n/a	LTP354	ltpFR2	19	n/a	n/a	n/a	10	24	7	9	7
1068550	PROB	n/a	LTP354	ltpFR2	19	n/a	n/a	n/a	10	13	3	5	5
1071460	STOP	n/a	LTP354	ltpFR2	19	n/a	n/a	n/a	10	n/a	n/a	n/a	n/a
1072465	WORD	wordpools/wasnorm_wordpool_576.txt	LTP354	ltpFR2	19	6	TEACHER	1440	n/a	n/a	0	0	0
1075030	WORD	wordpools/wasnorm_wordpool_576.txt	LTP354	ltpFR2	19	6	STUDENT	1395	n/a	n/a	0	0	0
1077762	WORD	wordpools/wasnorm_wordpool_576.txt	LTP354	ltpFR2	19	6	SKIRT	1319	n/a	n/a	0	0	0
1080411	WORD	wordpools/wasnorm_wordpool_576.txt	LTP354	ltpFR2	19	6	STOMACH	1384	n/a	n/a	0	0	0
1083227	WORD	wordpools/wasnorm_wordpool_576.txt	LTP354	ltpFR2	19	6	JELLO	754	n/a	n/a	0	0	0
1085842	WORD	wordpools/wasnorm_wordpool_576.txt	LTP354	ltpFR2	19	6	RELISH	1183	n/a	n/a	0	0	0
1088374	WORD	wordpools/wasnorm_wordpool_576.txt	LTP354	ltpFR2	19	6	SCARF	1246	n/a	n/a	0	0	0
1090990	WORD	wordpools/wasnorm_wordpool_576.txt	LTP354	ltpFR2	19	6	JAPAN	749	n/a	n/a	0	0	0
1093722	WORD	wordpools/wasnorm_wordpool_576.txt	LTP354	ltpFR2	19	6	MILK	895	n/a	n/a	0	0	0
1096421	WORD	wordpools/wasnorm_wordpool_576.txt	LTP354	ltpFR2	19	6	DRINK	498	n/a	n/a	0	0	0
1099036	WORD	wordpools/wasnorm_wordpool_576.txt	LTP354	ltpFR2	19	6	NEUTRON	947	n/a	n/a	0	0	0
1101518	WORD	wordpools/wasnorm_wordpool_576.txt	LTP354	ltpFR2	19	6	SUITCASE	1403	n/a	n/a	0	0	0
1103984	WORD	wordpools/wasnorm_wordpool_576.txt	LTP354	ltpFR2	19	6	TOURIST	1488	n/a	n/a	0	0	0
1106549	WORD	wordpools/wasnorm_wordpool_576.txt	LTP354	ltpFR2	19	6	VIRUS	1572	n/a	n/a	0	0	0
1108998	WORD	wordpools/wasnorm_wordpool_576.txt	LTP354	ltpFR2	19	6	BRAKE	166	n/a	n/a	0	0	0
1111780	WORD	wordpools/wasnorm_wordpool_576.txt	LTP354	ltpFR2	19	6	TART	1436	n/a	n/a	0	0	0
1114429	WORD	wordpools/wasnorm_wordpool_576.txt	LTP354	ltpFR2	19	6	STREAM	1392	n/a	n/a	0	0	0
1117079	WORD	wordpools/wasnorm_wordpool_576.txt	LTP354	ltpFR2	19	6	FLASK	576	n/a	n/a	0	0	0
1119660	WORD	wordpools/wasnorm_wordpool_576.txt	LTP354	ltpFR2	19	6	DRESS	495	n/a	n/a	0	0	0
1122143	WORD	wordpools/wasnorm_wordpool_576.txt	LTP354	ltpFR2	19	6	PARROT	1015	n/a	n/a	0	0	0
1124658	WORD	wordpools/wasnorm_wordpool_576.txt	LTP354	ltpFR2	19	6	TURKEY	1520	n/a	n/a	0	0	0
1127373	WORD	wordpools/wasnorm_wordpool_576.txt	LTP354	ltpFR2	19	6	PERMIT	1051	n/a	n/a	0	0	0
1129872	WORD	wordpools/wasnorm_wordpool_576.txt	LTP354	ltpFR2	19	6	WIDOW	1608	n/a	n/a	0	0	0
1132638	WORD	wordpools/wasnorm_wordpool_576.txt	LTP354	ltpFR2	19	6	BISON	131	n/a	n/a	0	0	0
1134254	START	n/a	LTP354	ltpFR2	19	n/a	n/a	n/a	11	n/a	n/a	n/a	n/a
1135380	DISTRACTOR	n/a	LTP354	ltpFR2	19	6	n/a	n/a	n/a	n/a	0	0	0
1135386	PROB	n/a	LTP354	ltpFR2	19	n/a	n/a	n/a	11	12	4	3	5
1138352	PROB	n/a	LTP354	ltpFR2	19	n/a	n/a	n/a	11	23	7	8	8
1140684	PROB	n/a	LTP354	ltpFR2	19	n/a	n/a	n/a	11	17	3	7	7
1141900	PROB	n/a	LTP354	ltpFR2	19	n/a	n/a	n/a	11	13	2	4	7
1143416	PROB	n/a	LTP354	ltpFR2	19	n/a	n/a	n/a	11	23	8	7	8
1144699	PROB	n/a	LTP354	ltpFR2	19	n/a	n/a	n/a	11	16	8	6	2
1145815	PROB	n/a	LTP354	ltpFR2	19	n/a	n/a	n/a	11	20	5	9	6
1148714	PROB	n/a	LTP354	ltpFR2	19	n/a	n/a	n/a	11	19	6	5	8
1150280	PROB	n/a	LTP354	ltpFR2	19	n/a	n/a	n/a	11	20	8	6	6
1153113	PROB	n/a	LTP354	ltpFR2	19	n/a	n/a	n/a	11	24	8	7	9
1154244	PROB	n/a	LTP354	ltpFR2	19	n/a	n/a	n/a	11	14	3	9	2
1156393	PROB	n/a	LTP354	ltpFR2	19	n/a	n/a	n/a	11	16	8	3	5
1157606	STOP	n/a	LTP354	ltpFR2	19	n/a	n/a	n/a	11	n/a	n/a	n/a	n/a
1160192	REC_START	n/a	LTP354	ltpFR2	19	6	n/a	n/a	n/a	n/a	0	0	0
1164569	REC_WORD	wordpools/wasnorm_wordpool_576.txt	LTP354	ltpFR2	19	6	PARROT	1015	n/a	n/a	0	0	0
1165580	REC_WORD	wordpools/wasnorm_wordpool_576.txt	LTP354	ltpFR2	19	6	TURKEY	1520	n/a	n/a	0	0	0
1167067	REC_WORD	wordpools/wasnorm_wordpool_576.txt	LTP354	ltpFR2	19	6	DRESS	495	n/a	n/a	0	0	0
1169031	REC_WORD	wordpools/wasnorm_wordpool_576.txt	LTP354	ltpFR2	19	6	VIRUS	1572	n/a	n/a	0	0	0
1169907	REC_WORD	wordpools/wasnorm_wordpool_576.txt	LTP354	ltpFR2	19	6	SUITCASE	1403	n/a	n/a	0	0	0
1171035	REC_WORD	wordpools/wasnorm_wordpool_576.txt	LTP354	ltpFR2	19	6	NEUTRON	947	n/a	n/a	0	0	0
1172265	REC_WORD	wordpools/wasnorm_wordpool_576.txt	LTP354	ltpFR2	19	6	JAPAN	749	n/a	n/a	0	0	0
1174787	REC_WORD	wordpools/wasnorm_wordpool_576.txt	LTP354	ltpFR2	19	6	TEACHER	1440	n/a	n/a	0	0	0
1175807	REC_WORD	wordpools/wasnorm_wordpool_576.txt	LTP354	ltpFR2	19	6	STUDENT	1395	n/a	n/a	0	0	0
1179180	REC_WORD	wordpools/wasnorm_wordpool_576.txt	LTP354	ltpFR2	19	6	SKIRT	1319	n/a	n/a	0	0	0
1250634	WORD	wordpools/wasnorm_wordpool_576.txt	LTP354	ltpFR2	19	7	TURNIP	1521	n/a	n/a	0	0	0
1253333	WORD	wordpools/wasnorm_wordpool_576.txt	LTP354	ltpFR2	19	7	STONE	1385	n/a	n/a	0	0	0
1255832	WORD	wordpools/wasnorm_wordpool_576.txt	LTP354	ltpFR2	19	7	LAVA	804	n/a	n/a	0	0	0
1258497	WORD	wordpools/wasnorm_wordpool_576.txt	LTP354	ltpFR2	19	7	CRATER	400	n/a	n/a	0	0	0
1261097	WORD	wordpools/wasnorm_wordpool_576.txt	LTP354	ltpFR2	19	7	SPOUSE	1358	n/a	n/a	0	0	0
1263562	WORD	wordpools/wasnorm_wordpool_576.txt	LTP354	ltpFR2	19	7	WIFE	1609	n/a	n/a	0	0	0
1266344	WORD	wordpools/wasnorm_wordpool_576.txt	LTP354	ltpFR2	19	7	DIVER	476	n/a	n/a	0	0	0
1268843	WORD	wordpools/wasnorm_wordpool_576.txt	LTP354	ltpFR2	19	7	HUSBAND	728	n/a	n/a	0	0	0
1271608	WORD	wordpools/wasnorm_wordpool_576.txt	LTP354	ltpFR2	19	7	PORTRAIT	1111	n/a	n/a	0	0	0
1274058	WORD	wordpools/wasnorm_wordpool_576.txt	LTP354	ltpFR2	19	7	BURGLAR	200	n/a	n/a	0	0	0
1276756	WORD	wordpools/wasnorm_wordpool_576.txt	LTP354	ltpFR2	19	7	CAMEL	223	n/a	n/a	0	0	0
1279221	WORD	wordpools/wasnorm_wordpool_576.txt	LTP354	ltpFR2	19	7	SEAFOOD	1260	n/a	n/a	0	0	0
1281737	WORD	wordpools/wasnorm_wordpool_576.txt	LTP354	ltpFR2	19	7	BARREL	91	n/a	n/a	0	0	0
1284352	WORD	wordpools/wasnorm_wordpool_576.txt	LTP354	ltpFR2	19	7	DANCER	437	n/a	n/a	0	0	0
1287119	WORD	wordpools/wasnorm_wordpool_576.txt	LTP354	ltpFR2	19	7	WHISKERS	1605	n/a	n/a	0	0	0
1289633	WORD	wordpools/wasnorm_wordpool_576.txt	LTP354	ltpFR2	19	7	POWDER	1117	n/a	n/a	0	0	0
1292299	WORD	wordpools/wasnorm_wordpool_576.txt	LTP354	ltpFR2	19	7	RECORD	1176	n/a	n/a	0	0	0
1294731	WORD	wordpools/wasnorm_wordpool_576.txt	LTP354	ltpFR2	19	7	SCOTCH	1251	n/a	n/a	0	0	0
1297530	WORD	wordpools/wasnorm_wordpool_576.txt	LTP354	ltpFR2	19	7	OZONE	996	n/a	n/a	0	0	0
1300146	WORD	wordpools/wasnorm_wordpool_576.txt	LTP354	ltpFR2	19	7	SADDLE	1221	n/a	n/a	0	0	0
1302844	WORD	wordpools/wasnorm_wordpool_576.txt	LTP354	ltpFR2	19	7	COCKTAIL	338	n/a	n/a	0	0	0
1305509	WORD	wordpools/wasnorm_wordpool_576.txt	LTP354	ltpFR2	19	7	TRENCH	1503	n/a	n/a	0	0	0
1308241	WORD	wordpools/wasnorm_wordpool_576.txt	LTP354	ltpFR2	19	7	SCALLOP	1242	n/a	n/a	0	0	0
1311007	WORD	wordpools/wasnorm_wordpool_576.txt	LTP354	ltpFR2	19	7	PARSLEY	1016	n/a	n/a	0	0	0
1312623	START	n/a	LTP354	ltpFR2	19	n/a	n/a	n/a	12	n/a	n/a	n/a	n/a
1313792	DISTRACTOR	n/a	LTP354	ltpFR2	19	7	n/a	n/a	n/a	n/a	0	0	0
1313806	PROB	n/a	LTP354	ltpFR2	19	n/a	n/a	n/a	12	15	4	3	8
1315721	PROB	n/a	LTP354	ltpFR2	19	n/a	n/a	n/a	12	9	2	3	4
1317754	PROB	n/a	LTP354	ltpFR2	19	n/a	n/a	n/a	12	9	4	4	1
1319286	PROB	n/a	LTP354	ltpFR2	19	n/a	n/a	n/a	12	13	7	3	3
1320236	PROB	n/a	LTP354	ltpFR2	19	n/a	n/a	n/a	12	10	2	6	2
1321452	PROB	n/a	LTP354	ltpFR2	19	n/a	n/a	n/a	12	18	5	6	7
1323634	PROB	n/a	LTP354	ltpFR2	19	n/a	n/a	n/a	12	19	6	7	6
1325184	PROB	n/a	LTP354	ltpFR2	19	n/a	n/a	n/a	12	18	4	9	5
1326783	PROB	n/a	LTP354	ltpFR2	19	n/a	n/a	n/a	12	10	7	1	2
1328133	PROB	n/a	LTP354	ltpFR2	19	n/a	n/a	n/a	12	6	1	3	2
1329498	PROB	n/a	LTP354	ltpFR2	19	n/a	n/a	n/a	12	14	3	9	2
1330865	PROB	n/a	LTP354	ltpFR2	19	n/a	n/a	n/a	12	14	4	6	4
1331997	PROB	n/a	LTP354	ltpFR2	19	n/a	n/a	n/a	12	16	6	8	2
1333230	PROB	n/a	LTP354	ltpFR2	19	n/a	n/a	n/a	12	14	4	2	8
1334813	PROB	n/a	LTP354	ltpFR2	19	n/a	n/a	n/a	12	7	2	3	2
1336429	STOP	n/a	LTP354	ltpFR2	19	n/a	n/a	n/a	12	n/a	n/a	n/a	n/a
1338428	REC_START	n/a	LTP354	ltpFR2	19	7	n/a	n/a	n/a	n/a	0	0	0
1340574	REC_WORD	wordpools/wasnorm_wordpool_576.txt	LTP354	ltpFR2	19	7	SCALLOP	1242	n/a	n/a	0	0	0
1341417	REC_WORD	wordpools/wasnorm_wordpool_576.txt	LTP354	ltpFR2	19	7	SEAFOOD	1260	n/a	n/a	0	0	0
1342358	REC_WORD	wordpools/wasnorm_wordpool_576.txt	LTP354	ltpFR2	19	7	PARSLEY	1016	n/a	n/a	0	0	0
1343808	REC_WORD	wordpools/wasnorm_wordpool_576.txt	LTP354	ltpFR2	19	7	BURGLAR	200	n/a	n/a	0	0	0
1344582	REC_WORD	wordpools/wasnorm_wordpool_576.txt	LTP354	ltpFR2	19	7	CAMEL	223	n/a	n/a	0	0	0
1406811	REC_WORD	wordpools/wasnorm_wordpool_576.txt	LTP354	ltpFR2	19	7	LAVA	804	n/a	n/a	0	0	0
1408863	REC_WORD	wordpools/wasnorm_wordpool_576.txt	LTP354	ltpFR2	19	7	CRATER	400	n/a	n/a	0	0	0
1409645	REC_WORD	wordpools/wasnorm_wordpool_576.txt	LTP354	ltpFR2	19	7	DIVER	476	n/a	n/a	0	0	0
1428870	WORD	wordpools/wasnorm_wordpool_576.txt	LTP354	ltpFR2	19	8	DIME	466	n/a	n/a	0	0	0
1431419	WORD	wordpools/wasnorm_wordpool_576.txt	LTP354	ltpFR2	19	8	BARLEY	88	n/a	n/a	0	0	0
1434102	WORD	wordpools/wasnorm_wordpool_576.txt	LTP354	ltpFR2	19	8	SALT	1229	n/a	n/a	0	0	0
1436817	WORD	wordpools/wasnorm_wordpool_576.txt	LTP354	ltpFR2	19	8	POSTAGE	1113	n/a	n/a	0	0	0
1439415	WORD	wordpools/wasnorm_wordpool_576.txt	LTP354	ltpFR2	19	8	COTTAGE	384	n/a	n/a	0	0	0
1441864	WORD	wordpools/wasnorm_wordpool_576.txt	LTP354	ltpFR2	19	8	NOVEL	960	n/a	n/a	0	0	0
1444496	WORD	wordpools/wasnorm_wordpool_576.txt	LTP354	ltpFR2	19	8	VAGRANT	1544	n/a	n/a	0	0	0
1447179	WORD	wordpools/wasnorm_wordpool_576.txt	LTP354	ltpFR2	19	8	WINDOW	1611	n/a	n/a	0	0	0
1449961	WORD	wordpools/wasnorm_wordpool_576.txt	LTP354	ltpFR2	19	8	SURVEY	1414	n/a	n/a	0	0	0
1452726	WORD	wordpools/wasnorm_wordpool_576.txt	LTP354	ltpFR2	19	8	MESSAGE	888	n/a	n/a	0	0	0
1455491	WORD	wordpools/wasnorm_wordpool_576.txt	LTP354	ltpFR2	19	8	APRON	35	n/a	n/a	0	0	0
1458141	WORD	wordpools/wasnorm_wordpool_576.txt	LTP354	ltpFR2	19	8	CEILING	265	n/a	n/a	0	0	0
1460922	WORD	wordpools/wasnorm_wordpool_576.txt	LTP354	ltpFR2	19	8	MONEY	908	n/a	n/a	0	0	0
1463504	WORD	wordpools/wasnorm_wordpool_576.txt	LTP354	ltpFR2	19	8	PEPPER	1047	n/a	n/a	0	0	0
1466303	WORD	wordpools/wasnorm_wordpool_576.txt	LTP354	ltpFR2	19	8	SNACK	1331	n/a	n/a	0	0	0
1468952	WORD	wordpools/wasnorm_wordpool_576.txt	LTP354	ltpFR2	19	8	TYPIST	1532	n/a	n/a	0	0	0
1471451	WORD	wordpools/wasnorm_wordpool_576.txt	LTP354	ltpFR2	19	8	VALVE	1546	n/a	n/a	0	0	0
1474084	WORD	wordpools/wasnorm_wordpool_576.txt	LTP354	ltpFR2	19	8	DRIVER	499	n/a	n/a	0	0	0
1476565	WORD	wordpools/wasnorm_wordpool_576.txt	LTP354	ltpFR2	19	8	CELLAR	267	n/a	n/a	0	0	0
1478997	WORD	wordpools/wasnorm_wordpool_576.txt	LTP354	ltpFR2	19	8	PRIMATE	1123	n/a	n/a	0	0	0
1481730	WORD	wordpools/wasnorm_wordpool_576.txt	LTP354	ltpFR2	19	8	IDOL	733	n/a	n/a	0	0	0
1484428	WORD	wordpools/wasnorm_wordpool_576.txt	LTP354	ltpFR2	19	8	LABEL	790	n/a	n/a	0	0	0
1487210	WORD	wordpools/wasnorm_wordpool_576.txt	LTP354	ltpFR2	19	8	CAPTIVE	240	n/a	n/a	0	0	0
1489709	WORD	wordpools/wasnorm_wordpool_576.txt	LTP354	ltpFR2	19	8	CLAMP	316	n/a	n/a	0	0	0
1491325	START	n/a	LTP354	ltpFR2	19	n/a	n/a	n/a	13	n/a	n/a	n/a	n/a
1492126	DISTRACTOR	n/a	LTP354	ltpFR2	19	8	n/a	n/a	n/a	n/a	0	0	0
1492142	PROB	n/a	LTP354	ltpFR2	19	n/a	n/a	n/a	13	6	2	1	3
1493857	PROB	n/a	LTP354	ltpFR2	19	n/a	n/a	n/a	13	15	3	4	8
1495906	PROB	n/a	LTP354	ltpFR2	19	n/a	n/a	n/a	13	12	3	8	1
1497006	PROB	n/a	LTP354	ltpFR2	19	n/a	n/a	n/a	13	6	2	2	2
1497922	PROB	n/a	LTP354	ltpFR2	19	n/a	n/a	n/a	13	15	2	7	6
1499521	PROB	n/a	LTP354	ltpFR2	19	n/a	n/a	n/a	13	14	4	6	4
1500521	PROB	n/a	LTP354	ltpFR2	19	n/a	n/a	n/a	13	11	2	2	7
1501537	PROB	n/a	LTP354	ltpFR2	19	n/a	n/a	n/a	13	20	6	9	5
1504070	PROB	n/a	LTP354	ltpFR2	19	n/a	n/a	n/a	13	17	9	1	7
1505902	PROB	n/a	LTP354	ltpFR2	19	n/a	n/a	n/a	13	10	7	1	2
1507102	PROB	n/a	LTP354	ltpFR2	19	n/a	n/a	n/a	13	14	4	7	3
1508284	PROB	n/a	LTP354	ltpFR2	19	n/a	n/a	n/a	13	20	9	4	7
1510916	PROB	n/a	LTP354	ltpFR2	19	n/a	n/a	n/a	13	7	2	2	3
1514627	STOP	n/a	LTP354	ltpFR2	19	n/a	n/a	n/a	13	n/a	n/a	n/a	n/a
1517197	REC_START	n/a	LTP354	ltpFR2	19	8	n/a	n/a	n/a	n/a	0	0	0
1518977	REC_WORD	wordpools/wasnorm_wordpool_576.txt	LTP354	ltpFR2	19	8	CAPTIVE	240	n/a	n/a	0	0	0
1520105	REC_WORD	wordpools/wasnorm_wordpool_576.txt	LTP354	ltpFR2	19	8	CLAMP	316	n/a	n/a	0	0	0
1523946	REC_WORD	wordpools/wasnorm_wordpool_576.txt	LTP354	ltpFR2	19	8	DIME	466	n/a	n/a	0	0	0
1524968	REC_WORD	wordpools/wasnorm_wordpool_576.txt	LTP354	ltpFR2	19	8	BARLEY	88	n/a	n/a	0	0	0
1534685	REC_WORD	wordpools/wasnorm_wordpool_576.txt	LTP354	ltpFR2	19	8	BUNNY	198	n/a	n/a	0	0	0
1559927	REC_WORD	wordpools/wasnorm_wordpool_576.txt	LTP354	ltpFR2	19	8	WINDOW	1611	n/a	n/a	0	0	0
1582881	REC_WORD	wordpools/wasnorm_wordpool_576.txt	LTP354	ltpFR2	19	8	APRON	35	n/a	n/a	0	0	0
1593729	REST_REWET	n/a	LTP354	ltpFR2	19	8	n/a	n/a	n/a	n/a	0	0	0
1729184	DISTRACTOR	n/a	LTP354	ltpFR2	19	9	n/a	n/a	n/a	n/a	0	0	0
1729184	START	n/a	LTP354	ltpFR2	19	n/a	n/a	n/a	14	n/a	n/a	n/a	n/a
1729201	PROB	n/a	LTP354	ltpFR2	19	n/a	n/a	n/a	14	18	9	3	6
1731366	PROB	n/a	LTP354	ltpFR2	19	n/a	n/a	n/a	14	12	1	6	5
1732683	PROB	n/a	LTP354	ltpFR2	19	n/a	n/a	n/a	14	16	4	5	7
1734898	PROB	n/a	LTP354	ltpFR2	19	n/a	n/a	n/a	14	12	3	6	3
1735948	PROB	n/a	LTP354	ltpFR2	19	n/a	n/a	n/a	14	11	4	6	1
1736931	PROB	n/a	LTP354	ltpFR2	19	n/a	n/a	n/a	14	16	8	3	5
1738064	PROB	n/a	LTP354	ltpFR2	19	n/a	n/a	n/a	14	21	8	8	5
1739363	PROB	n/a	LTP354	ltpFR2	19	n/a	n/a	n/a	14	15	6	4	5
1740379	PROB	n/a	LTP354	ltpFR2	19	n/a	n/a	n/a	14	12	5	4	3
1742595	PROB	n/a	LTP354	ltpFR2	19	n/a	n/a	n/a	14	21	8	9	4
1744261	PROB	n/a	LTP354	ltpFR2	19	n/a	n/a	n/a	14	21	9	9	3
1746526	PROB	n/a	LTP354	ltpFR2	19	n/a	n/a	n/a	14	21	9	5	7
1748842	PROB	n/a	LTP354	ltpFR2	19	n/a	n/a	n/a	14	19	5	5	9
1749891	PROB	n/a	LTP354	ltpFR2	19	n/a	n/a	n/a	14	15	3	5	7
1751850	STOP	n/a	LTP354	ltpFR2	19	n/a	n/a	n/a	14	n/a	n/a	n/a	n/a
1754339	WORD	wordpools/wasnorm_wordpool_576.txt	LTP354	ltpFR2	19	9	PADDLE	1000	n/a	n/a	0	0	0
1756922	WORD	wordpools/wasnorm_wordpool_576.txt	LTP354	ltpFR2	19	9	ZEBRA	1635	n/a	n/a	0	0	0
1759487	WORD	wordpools/wasnorm_wordpool_576.txt	LTP354	ltpFR2	19	9	LAGOON	795	n/a	n/a	0	0	0
1762303	WORD	wordpools/wasnorm_wordpool_576.txt	LTP354	ltpFR2	19	9	CITRUS	313	n/a	n/a	0	0	0
1764835	WORD	wordpools/wasnorm_wordpool_576.txt	LTP354	ltpFR2	19	9	VIKING	1565	n/a	n/a	0	0	0
1767350	WORD	wordpools/wasnorm_wordpool_576.txt	LTP354	ltpFR2	19	9	ICEBERG	731	n/a	n/a	0	0	0
1770083	WORD	wordpools/wasnorm_wordpool_576.txt	LTP354	ltpFR2	19	9	MARROW	872	n/a	n/a	0	0	0
1772598	WORD	wordpools/wasnorm_wordpool_576.txt	LTP354	ltpFR2	19	9	OX	994	n/a	n/a	0	0	0
1775230	WORD	wordpools/wasnorm_wordpool_576.txt	LTP354	ltpFR2	19	9	GAVEL	627	n/a	n/a	0	0	0
1777912	WORD	wordpools/wasnorm_wordpool_576.txt	LTP354	ltpFR2	19	9	CRITIC	410	n/a	n/a	0	0	0
1780511	WORD	wordpools/wasnorm_wordpool_576.txt	LTP354	ltpFR2	19	9	ACTOR	5	n/a	n/a	0	0	0
1783010	WORD	wordpools/wasnorm_wordpool_576.txt	LTP354	ltpFR2	19	9	WAITER	1580	n/a	n/a	0	0	0
1785525	WORD	wordpools/wasnorm_wordpool_576.txt	LTP354	ltpFR2	19	9	SERVANT	1271	n/a	n/a	0	0	0
1787991	WORD	wordpools/wasnorm_wordpool_576.txt	LTP354	ltpFR2	19	9	POSSUM	1112	n/a	n/a	0	0	0
1790456	WORD	wordpools/wasnorm_wordpool_576.txt	LTP354	ltpFR2	19	9	CREATURE	403	n/a	n/a	0	0	0
1792889	WORD	wordpools/wasnorm_wordpool_576.txt	LTP354	ltpFR2	19	9	SUSPECT	1415	n/a	n/a	0	0	0
1795371	WORD	wordpools/wasnorm_wordpool_576.txt	LTP354	ltpFR2	19	9	ANKLE	24	n/a	n/a	0	0	0
1797853	WORD	wordpools/wasnorm_wordpool_576.txt	LTP354	ltpFR2	19	9	LASER	801	n/a	n/a	0	0	0
1800669	WORD	wordpools/wasnorm_wordpool_576.txt	LTP354	ltpFR2	19	9	SIBLING	1301	n/a	n/a	0	0	0
1803135	WORD	wordpools/wasnorm_wordpool_576.txt	LTP354	ltpFR2	19	9	CHEST	295	n/a	n/a	0	0	0
1805616	WORD	wordpools/wasnorm_wordpool_576.txt	LTP354	ltpFR2	19	9	MAMMAL	861	n/a	n/a	0	0	0
1808149	WORD	wordpools/wasnorm_wordpool_576.txt	LTP354	ltpFR2	19	9	COMET	353	n/a	n/a	0	0	0
1810631	WORD	wordpools/wasnorm_wordpool_576.txt	LTP354	ltpFR2	19	9	EUROPE	541	n/a	n/a	0	0	0
1813130	WORD	wordpools/wasnorm_wordpool_576.txt	LTP354	ltpFR2	19	9	KLEENEX	782	n/a	n/a	0	0	0
1814746	START	n/a	LTP354	ltpFR2	19	n/a	n/a	n/a	15	n/a	n/a	n/a	n/a
1815631	DISTRACTOR	n/a	LTP354	ltpFR2	19	9	n/a	n/a	n/a	n/a	0	0	0
1815645	PROB	n/a	LTP354	ltpFR2	19	n/a	n/a	n/a	15	19	3	8	8
1817461	PROB	n/a	LTP354	ltpFR2	19	n/a	n/a	n/a	15	16	5	7	4
1818760	PROB	n/a	LTP354	ltpFR2	19	n/a	n/a	n/a	15	19	7	5	7
1820409	PROB	n/a	LTP354	ltpFR2	19	n/a	n/a	n/a	15	12	4	6	2
1821342	PROB	n/a	LTP354	ltpFR2	19	n/a	n/a	n/a	15	13	7	1	5
1822675	PROB	n/a	LTP354	ltpFR2	19	n/a	n/a	n/a	15	17	7	8	2
1823825	PROB	n/a	LTP354	ltpFR2	19	n/a	n/a	n/a	15	14	6	3	5
1825624	PROB	n/a	LTP354	ltpFR2	19	n/a	n/a	n/a	15	17	8	8	1
1826940	PROB	n/a	LTP354	ltpFR2	19	n/a	n/a	n/a	15	15	6	6	3
1828023	PROB	n/a	LTP354	ltpFR2	19	n/a	n/a	n/a	15	12	5	2	5
1829022	PROB	n/a	LTP354	ltpFR2	19	n/a	n/a	n/a	15	8	1	2	5
1832737	PROB	n/a	LTP354	ltpFR2	19	n/a	n/a	n/a	15	16	6	7	3
1833820	PROB	n/a	LTP354	ltpFR2	19	n/a	n/a	n/a	15	7	1	2	4
1835071	PROB	n/a	LTP354	ltpFR2	19	n/a	n/a	n/a	15	13	5	4	4
1836902	PROB	n/a	LTP354	ltpFR2	19	n/a	n/a	n/a	15	19	5	9	5
1837997	STOP	n/a	LTP354	ltpFR2	19	n/a	n/a	n/a	15	n/a	n/a	n/a	n/a
1840684	REC_START	n/a	LTP354	ltpFR2	19	9	n/a	n/a	n/a	n/a	0	0	0
1846589	REC_WORD	wordpools/wasnorm_wordpool_576.txt	LTP354	ltpFR2	19	9	COMET	353	n/a	n/a	0	0	0
1847558	REC_WORD	wordpools/wasnorm_wordpool_576.txt	LTP354	ltpFR2	19	9	EUROPE	541	n/a	n/a	0	0	0
1849466	REC_WORD	wordpools/wasnorm_wordpool_576.txt	LTP354	ltpFR2	19	9	CHEST	295	n/a	n/a	0	0	0
1850663	REC_WORD	wordpools/wasnorm_wordpool_576.txt	LTP354	ltpFR2	19	9	ANKLE	24	n/a	n/a	0	0	0
1851740	REC_WORD	wordpools/wasnorm_wordpool_576.txt	LTP354	ltpFR2	19	9	CREATURE	403	n/a	n/a	0	0	0
1853900	REC_WORD	wordpools/wasnorm_wordpool_576.txt	LTP354	ltpFR2	19	9	ITEM	746	n/a	n/a	0	0	0
1854699	REC_WORD	wordpools/wasnorm_wordpool_576.txt	LTP354	ltpFR2	19	9	LAGOON	795	n/a	n/a	0	0	0
1856023	REC_WORD	wordpools/wasnorm_wordpool_576.txt	LTP354	ltpFR2	19	9	VIKING	1565	n/a	n/a	0	0	0
1856535	REC_WORD	wordpools/wasnorm_wordpool_576.txt	LTP354	ltpFR2	19	9	ICEBERG	731	n/a	n/a	0	0	0
1858202	REC_WORD	wordpools/wasnorm_wordpool_576.txt	LTP354	ltpFR2	19	9	MARROW	872	n/a	n/a	0	0	0
1859143	REC_WORD	wordpools/wasnorm_wordpool_576.txt	LTP354	ltpFR2	19	9	OX	994	n/a	n/a	0	0	0
1860388	REC_WORD	wordpools/wasnorm_wordpool_576.txt	LTP354	ltpFR2	19	9	GAVEL	627	n/a	n/a	0	0	0
1861794	REC_WORD	wordpools/wasnorm_wordpool_576.txt	LTP354	ltpFR2	19	9	CRITIC	410	n/a	n/a	0	0	0
1862726	REC_WORD	wordpools/wasnorm_wordpool_576.txt	LTP354	ltpFR2	19	9	ACTOR	5	n/a	n/a	0	0	0
1865473	REC_WORD	wordpools/wasnorm_wordpool_576.txt	LTP354	ltpFR2	19	9	ZEBRA	1635	n/a	n/a	0	0	0
1880593	REC_WORD	wordpools/wasnorm_wordpool_576.txt	LTP354	ltpFR2	19	9	WAITER	1580	n/a	n/a	0	0	0
1884350	REC_WORD	wordpools/wasnorm_wordpool_576.txt	LTP354	ltpFR2	19	9	SUSPECT	1415	n/a	n/a	0	0	0
1931110	DISTRACTOR	n/a	LTP354	ltpFR2	19	10	n/a	n/a	n/a	n/a	0	0	0
1931111	START	n/a	LTP354	ltpFR2	19	n/a	n/a	n/a	16	n/a	n/a	n/a	n/a
1931127	PROB	n/a	LTP354	ltpFR2	19	n/a	n/a	n/a	16	16	1	7	8
1932542	PROB	n/a	LTP354	ltpFR2	19	n/a	n/a	n/a	16	13	1	7	5
1934159	PROB	n/a	LTP354	ltpFR2	19	n/a	n/a	n/a	16	12	4	5	3
1935524	PROB	n/a	LTP354	ltpFR2	19	n/a	n/a	n/a	16	12	4	7	1
1937141	PROB	n/a	LTP354	ltpFR2	19	n/a	n/a	n/a	16	10	5	1	4
1938256	PROB	n/a	LTP354	ltpFR2	19	n/a	n/a	n/a	16	14	5	3	6
1939839	PROB	n/a	LTP354	ltpFR2	19	n/a	n/a	n/a	16	20	8	9	3
1942072	PROB	n/a	LTP354	ltpFR2	19	n/a	n/a	n/a	16	22	5	9	8
1945320	PROB	n/a	LTP354	ltpFR2	19	n/a	n/a	n/a	16	16	4	5	7
1947319	PROB	n/a	LTP354	ltpFR2	19	n/a	n/a	n/a	16	6	2	1	3
1949119	PROB	n/a	LTP354	ltpFR2	19	n/a	n/a	n/a	16	13	8	4	1
1950135	PROB	n/a	LTP354	ltpFR2	19	n/a	n/a	n/a	16	10	2	7	1
1951300	PROB	n/a	LTP354	ltpFR2	19	n/a	n/a	n/a	16	13	4	4	5
1952733	PROB	n/a	LTP354	ltpFR2	19	n/a	n/a	n/a	16	13	4	3	6
1953968	STOP	n/a	LTP354	ltpFR2	19	n/a	n/a	n/a	16	n/a	n/a	n/a	n/a
1956265	WORD	wordpools/wasnorm_wordpool_576.txt	LTP354	ltpFR2	19	10	DENTIST	447	n/a	n/a	0	0	0
1958797	WORD	wordpools/wasnorm_wordpool_576.txt	LTP354	ltpFR2	19	10	BEAVER	109	n/a	n/a	0	0	0
1961562	WORD	wordpools/wasnorm_wordpool_576.txt	LTP354	ltpFR2	19	10	GAZELLE	628	n/a	n/a	0	0	0
1964261	WORD	wordpools/wasnorm_wordpool_576.txt	LTP354	ltpFR2	19	10	CHAUFFEUR	283	n/a	n/a	0	0	0
1966760	WORD	wordpools/wasnorm_wordpool_576.txt	LTP354	ltpFR2	19	10	PERCH	1048	n/a	n/a	0	0	0
1969509	WORD	wordpools/wasnorm_wordpool_576.txt	LTP354	ltpFR2	19	10	BULLET	194	n/a	n/a	0	0	0
1972159	WORD	wordpools/wasnorm_wordpool_576.txt	LTP354	ltpFR2	19	10	SHELTER	1282	n/a	n/a	0	0	0
1974740	WORD	wordpools/wasnorm_wordpool_576.txt	LTP354	ltpFR2	19	10	SPOOL	1356	n/a	n/a	0	0	0
1977338	WORD	wordpools/wasnorm_wordpool_576.txt	LTP354	ltpFR2	19	10	HAWK	692	n/a	n/a	0	0	0
1979937	WORD	wordpools/wasnorm_wordpool_576.txt	LTP354	ltpFR2	19	10	QUAIL	1147	n/a	n/a	0	0	0
1982453	WORD	wordpools/wasnorm_wordpool_576.txt	LTP354	ltpFR2	19	10	BACKBONE	66	n/a	n/a	0	0	0
1985069	WORD	wordpools/wasnorm_wordpool_576.txt	LTP354	ltpFR2	19	10	CRIB	407	n/a	n/a	0	0	0
1987817	WORD	wordpools/wasnorm_wordpool_576.txt	LTP354	ltpFR2	19	10	GREASE	660	n/a	n/a	0	0	0
1990433	WORD	wordpools/wasnorm_wordpool_576.txt	LTP354	ltpFR2	19	10	FOOTBALL	591	n/a	n/a	0	0	0
1992981	WORD	wordpools/wasnorm_wordpool_576.txt	LTP354	ltpFR2	19	10	GYMNAST	675	n/a	n/a	0	0	0
1995447	WORD	wordpools/wasnorm_wordpool_576.txt	LTP354	ltpFR2	19	10	PAIL	1002	n/a	n/a	0	0	0
1998012	WORD	wordpools/wasnorm_wordpool_576.txt	LTP354	ltpFR2	19	10	EGYPT	519	n/a	n/a	0	0	0
2000511	WORD	wordpools/wasnorm_wordpool_576.txt	LTP354	ltpFR2	19	10	ITEM	746	n/a	n/a	0	0	0
2003327	WORD	wordpools/wasnorm_wordpool_576.txt	LTP354	ltpFR2	19	10	OUTLAW	989	n/a	n/a	0	0	0
2006143	WORD	wordpools/wasnorm_wordpool_576.txt	LTP354	ltpFR2	19	10	GARBAGE	622	n/a	n/a	0	0	0
2008725	WORD	wordpools/wasnorm_wordpool_576.txt	LTP354	ltpFR2	19	10	CABIN	211	n/a	n/a	0	0	0
2011440	WORD	wordpools/wasnorm_wordpool_576.txt	LTP354	ltpFR2	19	10	WHISTLE	1606	n/a	n/a	0	0	0
2013922	WORD	wordpools/wasnorm_wordpool_576.txt	LTP354	ltpFR2	19	10	STALLION	1369	n/a	n/a	0	0	0
2016687	WORD	wordpools/wasnorm_wordpool_576.txt	LTP354	ltpFR2	19	10	SIDEWALK	1303	n/a	n/a	0	0	0
2018303	START	n/a	LTP354	ltpFR2	19	n/a	n/a	n/a	17	n/a	n/a	n/a	n/a
2019279	DISTRACTOR	n/a	LTP354	ltpFR2	19	10	n/a	n/a	n/a	n/a	0	0	0
2019286	PROB	n/a	LTP354	ltpFR2	19	n/a	n/a	n/a	17	13	3	7	3
2021835	PROB	n/a	LTP354	ltpFR2	19	n/a	n/a	n/a	17	19	7	8	5
2025068	PROB	n/a	LTP354	ltpFR2	19	n/a	n/a	n/a	17	21	4	8	9
2026949	PROB	n/a	LTP354	ltpFR2	19	n/a	n/a	n/a	17	19	6	5	8
2028249	PROB	n/a	LTP354	ltpFR2	19	n/a	n/a	n/a	17	11	6	2	3
2029282	PROB	n/a	LTP354	ltpFR2	19	n/a	n/a	n/a	17	17	3	9	5
2030881	PROB	n/a	LTP354	ltpFR2	19	n/a	n/a	n/a	17	18	3	6	9
2031980	PROB	n/a	LTP354	ltpFR2	19	n/a	n/a	n/a	17	4	1	2	1
2032797	PROB	n/a	LTP354	ltpFR2	19	n/a	n/a	n/a	17	14	1	6	7
2034047	PROB	n/a	LTP354	ltpFR2	19	n/a	n/a	n/a	17	22	8	9	5
2036628	PROB	n/a	LTP354	ltpFR2	19	n/a	n/a	n/a	17	16	2	6	9
2040193	PROB	n/a	LTP354	ltpFR2	19	n/a	n/a	n/a	17	18	3	8	7
2041435	STOP	n/a	LTP354	ltpFR2	19	n/a	n/a	n/a	17	n/a	n/a	n/a	n/a
2044209	REC_START	n/a	LTP354	ltpFR2	19	10	n/a	n/a	n/a	n/a	0	0	0
2050330	REC_WORD	wordpools/wasnorm_wordpool_576.txt	LTP354	ltpFR2	19	10	GARBAGE	622	n/a	n/a	0	0	0
2050986	REC_WORD	wordpools/wasnorm_wordpool_576.txt	LTP354	ltpFR2	19	10	SIDEWALK	1303	n/a	n/a	0	0	0
2054402	REC_WORD	wordpools/wasnorm_wordpool_576.txt	LTP354	ltpFR2	19	10	HAWK	692	n/a	n/a	0	0	0
2055772	REC_WORD	wordpools/wasnorm_wordpool_576.txt	LTP354	ltpFR2	19	10	GAZELLE	628	n/a	n/a	0	0	0
2057310	REC_WORD	wordpools/wasnorm_wordpool_576.txt	LTP354	ltpFR2	19	10	CHAUFFEUR	283	n/a	n/a	0	0	0
2059988	REC_WORD	wordpools/wasnorm_wordpool_576.txt	LTP354	ltpFR2	19	10	CRIB	407	n/a	n/a	0	0	0
2062146	REC_WORD	wordpools/wasnorm_wordpool_576.txt	LTP354	ltpFR2	19	10	BOARD	143	n/a	n/a	0	0	0
2073040	REC_WORD	wordpools/wasnorm_wordpool_576.txt	LTP354	ltpFR2	19	10	GAZELLE	628	n/a	n/a	0	0	0
2104477	REC_WORD	wordpools/wasnorm_wordpool_576.txt	LTP354	ltpFR2	19	10	BEAVER	109	n/a	n/a	0	0	0
2105518	REC_WORD	wordpools/wasnorm_wordpool_576.txt	LTP354	ltpFR2	19	10	DENTIST	447	n/a	n/a	0	0	0
2113189	REC_WORD	wordpools/wasnorm_wordpool_576.txt	LTP354	ltpFR2	19	10	QUAIL	1147	n/a	n/a	0	0	0
2134651	WORD	wordpools/wasnorm_wordpool_576.txt	LTP354	ltpFR2	19	11	BUREAU	199	n/a	n/a	0	0	0
2137399	WORD	wordpools/wasnorm_wordpool_576.txt	LTP354	ltpFR2	19	11	RIFLE	1192	n/a	n/a	0	0	0
2139948	WORD	wordpools/wasnorm_wordpool_576.txt	LTP354	ltpFR2	19	11	PIANO	1057	n/a	n/a	0	0	0
2142414	WORD	wordpools/wasnorm_wordpool_576.txt	LTP354	ltpFR2	19	11	SODA	1341	n/a	n/a	0	0	0
2145196	WORD	wordpools/wasnorm_wordpool_576.txt	LTP354	ltpFR2	19	11	BALLOON	75	n/a	n/a	0	0	0
2147661	WORD	wordpools/wasnorm_wordpool_576.txt	LTP354	ltpFR2	19	11	ROBOT	1200	n/a	n/a	0	0	0
2150310	WORD	wordpools/wasnorm_wordpool_576.txt	LTP354	ltpFR2	19	11	MACHINE	852	n/a	n/a	0	0	0
2152776	WORD	wordpools/wasnorm_wordpool_576.txt	LTP354	ltpFR2	19	11	COUNTY	389	n/a	n/a	0	0	0
2155424	WORD	wordpools/wasnorm_wordpool_576.txt	LTP354	ltpFR2	19	11	FREEZER	604	n/a	n/a	0	0	0
2158141	WORD	wordpools/wasnorm_wordpool_576.txt	LTP354	ltpFR2	19	11	CABBAGE	210	n/a	n/a	0	0	0
2160955	WORD	wordpools/wasnorm_wordpool_576.txt	LTP354	ltpFR2	19	11	WOMAN	1620	n/a	n/a	0	0	0
2163621	WORD	wordpools/wasnorm_wordpool_576.txt	LTP354	ltpFR2	19	11	SMOG	1330	n/a	n/a	0	0	0
2166303	WORD	wordpools/wasnorm_wordpool_576.txt	LTP354	ltpFR2	19	11	XEROX	1628	n/a	n/a	0	0	0
2168918	WORD	wordpools/wasnorm_wordpool_576.txt	LTP354	ltpFR2	19	11	SPACE	1345	n/a	n/a	0	0	0
2171550	WORD	wordpools/wasnorm_wordpool_576.txt	LTP354	ltpFR2	19	11	SHERIFF	1284	n/a	n/a	0	0	0
2174084	WORD	wordpools/wasnorm_wordpool_576.txt	LTP354	ltpFR2	19	11	COIN	343	n/a	n/a	0	0	0
2176782	WORD	wordpools/wasnorm_wordpool_576.txt	LTP354	ltpFR2	19	11	CONTRACT	368	n/a	n/a	0	0	0
2179530	WORD	wordpools/wasnorm_wordpool_576.txt	LTP354	ltpFR2	19	11	NOMAD	955	n/a	n/a	0	0	0
2182179	WORD	wordpools/wasnorm_wordpool_576.txt	LTP354	ltpFR2	19	11	TAXI	1438	n/a	n/a	0	0	0
2184761	WORD	wordpools/wasnorm_wordpool_576.txt	LTP354	ltpFR2	19	11	MARINE	869	n/a	n/a	0	0	0
2187427	WORD	wordpools/wasnorm_wordpool_576.txt	LTP354	ltpFR2	19	11	CLOTHES	327	n/a	n/a	0	0	0
2190126	WORD	wordpools/wasnorm_wordpool_576.txt	LTP354	ltpFR2	19	11	LADY	794	n/a	n/a	0	0	0
2192741	WORD	wordpools/wasnorm_wordpool_576.txt	LTP354	ltpFR2	19	11	HARP	689	n/a	n/a	0	0	0
2195323	WORD	wordpools/wasnorm_wordpool_576.txt	LTP354	ltpFR2	19	11	WAITRESS	1581	n/a	n/a	0	0	0
2196939	START	n/a	LTP354	ltpFR2	19	n/a	n/a	n/a	18	n/a	n/a	n/a	n/a
2197915	DISTRACTOR	n/a	LTP354	ltpFR2	19	11	n/a	n/a	n/a	n/a	0	0	0
2197922	PROB	n/a	LTP354	ltpFR2	19	n/a	n/a	n/a	18	25	9	8	8
2200871	PROB	n/a	LTP354	ltpFR2	19	n/a	n/a	n/a	18	26	9	9	8
2206136	PROB	n/a	LTP354	ltpFR2	19	n/a	n/a	n/a	18	18	6	4	8
2207284	PROB	n/a	LTP354	ltpFR2	19	n/a	n/a	n/a	18	14	4	7	3
2208267	PROB	n/a	LTP354	ltpFR2	19	n/a	n/a	n/a	18	17	5	3	9
2209817	PROB	n/a	LTP354	ltpFR2	19	n/a	n/a	n/a	18	16	4	8	4
2211050	PROB	n/a	LTP354	ltpFR2	19	n/a	n/a	n/a	18	13	7	2	4
2213665	PROB	n/a	LTP354	ltpFR2	19	n/a	n/a	n/a	18	18	4	7	7
2215115	PROB	n/a	LTP354	ltpFR2	19	n/a	n/a	n/a	18	17	8	3	6
2217196	PROB	n/a	LTP354	ltpFR2	19	n/a	n/a	n/a	18	16	6	5	5
2218196	PROB	n/a	LTP354	ltpFR2	19	n/a	n/a	n/a	18	10	6	3	1
2219212	PROB	n/a	LTP354	ltpFR2	19	n/a	n/a	n/a	18	16	9	3	4
2220768	STOP	n/a	LTP354	ltpFR2	19	n/a	n/a	n/a	18	n/a	n/a	n/a	n/a
2222847	REC_START	n/a	LTP354	ltpFR2	19	11	n/a	n/a	n/a	n/a	0	0	0
2224442	REC_WORD	wordpools/wasnorm_wordpool_576.txt	LTP354	ltpFR2	19	11	BUREAU	199	n/a	n/a	0	0	0
2225548	REC_WORD	wordpools/wasnorm_wordpool_576.txt	LTP354	ltpFR2	19	11	SHERIFF	1284	n/a	n/a	0	0	0
2229679	REC_WORD	wordpools/wasnorm_wordpool_576.txt	LTP354	ltpFR2	19	11	WAITRESS	1581	n/a	n/a	0	0	0
2230454	REC_WORD	wordpools/wasnorm_wordpool_576.txt	LTP354	ltpFR2	19	11	FEMALE	559	n/a	n/a	0	0	0
2231167	REC_WORD	wordpools/wasnorm_wordpool_576.txt	LTP354	ltpFR2	19	11	HARP	689	n/a	n/a	0	0	0
2234482	REC_WORD	wordpools/wasnorm_wordpool_576.txt	LTP354	ltpFR2	19	11	WOMAN	1620	n/a	n/a	0	0	0
2236122	REC_WORD	wordpools/wasnorm_wordpool_576.txt	LTP354	ltpFR2	19	11	LADY	794	n/a	n/a	0	0	0
2260178	REC_WORD	wordpools/wasnorm_wordpool_576.txt	LTP354	ltpFR2	19	11	FROG	608	n/a	n/a	0	0	0
2266007	REC_WORD	wordpools/wasnorm_wordpool_576.txt	LTP354	ltpFR2	19	11	COUNTY	389	n/a	n/a	0	0	0
2268477	REC_WORD	wordpools/wasnorm_wordpool_576.txt	LTP354	ltpFR2	19	11	TAXI	1438	n/a	n/a	0	0	0
2295827	REC_WORD	wordpools/wasnorm_wordpool_576.txt	LTP354	ltpFR2	19	11	PIANO	1057	n/a	n/a	0	0	0
2296927	REC_WORD	wordpools/wasnorm_wordpool_576.txt	LTP354	ltpFR2	19	11	RIFLE	1192	n/a	n/a	0	0	0
2313270	DISTRACTOR	n/a	LTP354	ltpFR2	19	12	n/a	n/a	n/a	n/a	0	0	0
2313270	START	n/a	LTP354	ltpFR2	19	n/a	n/a	n/a	19	n/a	n/a	n/a	n/a
2313286	PROB	n/a	LTP354	ltpFR2	19	n/a	n/a	n/a	19	14	7	6	1
2314402	PROB	n/a	LTP354	ltpFR2	19	n/a	n/a	n/a	19	17	2	8	7
2315635	PROB	n/a	LTP354	ltpFR2	19	n/a	n/a	n/a	19	14	3	5	6
2317168	PROB	n/a	LTP354	ltpFR2	19	n/a	n/a	n/a	19	16	2	6	8
2318384	PROB	n/a	LTP354	ltpFR2	19	n/a	n/a	n/a	19	18	6	8	4
2320316	PROB	n/a	LTP354	ltpFR2	19	n/a	n/a	n/a	19	12	1	6	5
2321499	PROB	n/a	LTP354	ltpFR2	19	n/a	n/a	n/a	19	14	2	4	8
2323432	PROB	n/a	LTP354	ltpFR2	19	n/a	n/a	n/a	19	9	6	2	1
2324381	PROB	n/a	LTP354	ltpFR2	19	n/a	n/a	n/a	19	26	8	9	9
2326714	PROB	n/a	LTP354	ltpFR2	19	n/a	n/a	n/a	19	14	8	2	4
2327830	PROB	n/a	LTP354	ltpFR2	19	n/a	n/a	n/a	19	9	5	3	1
2329279	PROB	n/a	LTP354	ltpFR2	19	n/a	n/a	n/a	19	10	3	1	6
2330445	PROB	n/a	LTP354	ltpFR2	19	n/a	n/a	n/a	19	10	3	2	5
2331845	PROB	n/a	LTP354	ltpFR2	19	n/a	n/a	n/a	19	14	3	5	6
2334910	PROB	n/a	LTP354	ltpFR2	19	n/a	n/a	n/a	19	6	2	1	3
2335876	STOP	n/a	LTP354	ltpFR2	19	n/a	n/a	n/a	19	n/a	n/a	n/a	n/a
2338325	WORD	wordpools/wasnorm_wordpool_576.txt	LTP354	ltpFR2	19	12	SEAGULL	1261	n/a	n/a	0	0	0
2340857	WORD	wordpools/wasnorm_wordpool_576.txt	LTP354	ltpFR2	19	12	FRIAR	605	n/a	n/a	0	0	0
2343389	WORD	wordpools/wasnorm_wordpool_576.txt	LTP354	ltpFR2	19	12	SLOPE	1328	n/a	n/a	0	0	0
2345922	WORD	wordpools/wasnorm_wordpool_576.txt	LTP354	ltpFR2	19	12	LIVER	833	n/a	n/a	0	0	0
2348470	WORD	wordpools/wasnorm_wordpool_576.txt	LTP354	ltpFR2	19	12	CHILD	299	n/a	n/a	0	0	0
2350903	WORD	wordpools/wasnorm_wordpool_576.txt	LTP354	ltpFR2	19	12	LION	827	n/a	n/a	0	0	0
2353368	WORD	wordpools/wasnorm_wordpool_576.txt	LTP354	ltpFR2	19	12	RABBIT	1152	n/a	n/a	0	0	0
2356118	WORD	wordpools/wasnorm_wordpool_576.txt	LTP354	ltpFR2	19	12	DUSTPAN	509	n/a	n/a	0	0	0
2358766	WORD	wordpools/wasnorm_wordpool_576.txt	LTP354	ltpFR2	19	12	CUSTARD	429	n/a	n/a	0	0	0
2361265	WORD	wordpools/wasnorm_wordpool_576.txt	LTP354	ltpFR2	19	12	OYSTER	995	n/a	n/a	0	0	0
2363980	WORD	wordpools/wasnorm_wordpool_576.txt	LTP354	ltpFR2	19	12	CLAM	315	n/a	n/a	0	0	0
2366562	WORD	wordpools/wasnorm_wordpool_576.txt	LTP354	ltpFR2	19	12	SNAKE	1333	n/a	n/a	0	0	0
2369294	WORD	wordpools/wasnorm_wordpool_576.txt	LTP354	ltpFR2	19	12	POLICE	1098	n/a	n/a	0	0	0
2371943	WORD	wordpools/wasnorm_wordpool_576.txt	LTP354	ltpFR2	19	12	TURTLE	1522	n/a	n/a	0	0	0
2374609	WORD	wordpools/wasnorm_wordpool_576.txt	LTP354	ltpFR2	19	12	SWORD	1423	n/a	n/a	0	0	0
2377224	WORD	wordpools/wasnorm_wordpool_576.txt	LTP354	ltpFR2	19	12	RAZOR	1171	n/a	n/a	0	0	0
2379740	WORD	wordpools/wasnorm_wordpool_576.txt	LTP354	ltpFR2	19	12	TILE	1468	n/a	n/a	0	0	0
2382238	WORD	wordpools/wasnorm_wordpool_576.txt	LTP354	ltpFR2	19	12	CHAPEL	280	n/a	n/a	0	0	0
2384754	WORD	wordpools/wasnorm_wordpool_576.txt	LTP354	ltpFR2	19	12	TORTOISE	1486	n/a	n/a	0	0	0
2387419	WORD	wordpools/wasnorm_wordpool_576.txt	LTP354	ltpFR2	19	12	FRAGRANCE	599	n/a	n/a	0	0	0
2389852	WORD	wordpools/wasnorm_wordpool_576.txt	LTP354	ltpFR2	19	12	LAKE	796	n/a	n/a	0	0	0
2392634	WORD	wordpools/wasnorm_wordpool_576.txt	LTP354	ltpFR2	19	12	TOMBSTONE	1478	n/a	n/a	0	0	0
2395084	WORD	wordpools/wasnorm_wordpool_576.txt	LTP354	ltpFR2	19	12	MUMMY	932	n/a	n/a	0	0	0
2397831	WORD	wordpools/wasnorm_wordpool_576.txt	LTP354	ltpFR2	19	12	CHAMPAGNE	278	n/a	n/a	0	0	0
2399447	START	n/a	LTP354	ltpFR2	19	n/a	n/a	n/a	20	n/a	n/a	n/a	n/a
2400374	DISTRACTOR	n/a	LTP354	ltpFR2	19	12	n/a	n/a	n/a	n/a	0	0	0
2400380	PROB	n/a	LTP354	ltpFR2	19	n/a	n/a	n/a	20	11	2	8	1
2401963	PROB	n/a	LTP354	ltpFR2	19	n/a	n/a	n/a	20	5	3	1	1
2402896	PROB	n/a	LTP354	ltpFR2	19	n/a	n/a	n/a	20	17	9	3	5
2404928	PROB	n/a	LTP354	ltpFR2	19	n/a	n/a	n/a	20	10	8	1	1
2405844	PROB	n/a	LTP354	ltpFR2	19	n/a	n/a	n/a	20	25	9	8	8
2407277	PROB	n/a	LTP354	ltpFR2	19	n/a	n/a	n/a	20	13	2	6	5
2408693	PROB	n/a	LTP354	ltpFR2	19	n/a	n/a	n/a	20	17	9	4	4
2410392	PROB	n/a	LTP354	ltpFR2	19	n/a	n/a	n/a	20	23	8	8	7
2412508	PROB	n/a	LTP354	ltpFR2	19	n/a	n/a	n/a	20	8	3	3	2
2413841	PROB	n/a	LTP354	ltpFR2	19	n/a	n/a	n/a	20	11	4	1	6
2414724	PROB	n/a	LTP354	ltpFR2	19	n/a	n/a	n/a	20	20	5	7	8
2416040	PROB	n/a	LTP354	ltpFR2	19	n/a	n/a	n/a	20	6	1	4	1
2416889	PROB	n/a	LTP354	ltpFR2	19	n/a	n/a	n/a	20	11	2	3	6
2418107	PROB	n/a	LTP354	ltpFR2	19	n/a	n/a	n/a	20	12	4	7	1
2419123	PROB	n/a	LTP354	ltpFR2	19	n/a	n/a	n/a	20	22	9	5	8
2422599	STOP	n/a	LTP354	ltpFR2	19	n/a	n/a	n/a	20	n/a	n/a	n/a	n/a
2425253	REC_START	n/a	LTP354	ltpFR2	19	12	n/a	n/a	n/a	n/a	0	0	0
2427365	REC_WORD	wordpools/wasnorm_wordpool_576.txt	LTP354	ltpFR2	19	12	CHAMPAGNE	278	n/a	n/a	0	0	0
2431065	REC_WORD	wordpools/wasnorm_wordpool_576.txt	LTP354	ltpFR2	19	12	SEAGULL	1261	n/a	n/a	0	0	0
2432165	REC_WORD	wordpools/wasnorm_wordpool_576.txt	LTP354	ltpFR2	19	12	FRIAR	605	n/a	n/a	0	0	0
2435489	REC_WORD	wordpools/wasnorm_wordpool_576.txt	LTP354	ltpFR2	19	12	LION	827	n/a	n/a	0	0	0
2436564	REC_WORD	wordpools/wasnorm_wordpool_576.txt	LTP354	ltpFR2	19	12	RABBIT	1152	n/a	n/a	0	0	0
2437929	REC_WORD	wordpools/wasnorm_wordpool_576.txt	LTP354	ltpFR2	19	12	CHILD	299	n/a	n/a	0	0	0
2439698	REC_WORD	wordpools/wasnorm_wordpool_576.txt	LTP354	ltpFR2	19	12	SLOPE	1328	n/a	n/a	0	0	0
2440724	REC_WORD	wordpools/wasnorm_wordpool_576.txt	LTP354	ltpFR2	19	12	DUSTPAN	509	n/a	n/a	0	0	0
2444552	REC_WORD	wordpools/wasnorm_wordpool_576.txt	LTP354	ltpFR2	19	12	LIVER	833	n/a	n/a	0	0	0
2515728	WORD	wordpools/wasnorm_wordpool_576.txt	LTP354	ltpFR2	19	13	BROTHER	179	n/a	n/a	0	0	0
2518243	WORD	wordpools/wasnorm_wordpool_576.txt	LTP354	ltpFR2	19	13	COUSIN	392	n/a	n/a	0	0	0
2520976	WORD	wordpools/wasnorm_wordpool_576.txt	LTP354	ltpFR2	19	13	CYCLONE	431	n/a	n/a	0	0	0
2523541	WORD	wordpools/wasnorm_wordpool_576.txt	LTP354	ltpFR2	19	13	ONION	977	n/a	n/a	0	0	0
2526023	WORD	wordpools/wasnorm_wordpool_576.txt	LTP354	ltpFR2	19	13	UMPIRE	1535	n/a	n/a	0	0	0
2528755	WORD	wordpools/wasnorm_wordpool_576.txt	LTP354	ltpFR2	19	13	CLOUD	328	n/a	n/a	0	0	0
2531504	WORD	wordpools/wasnorm_wordpool_576.txt	LTP354	ltpFR2	19	13	ROCKET	1202	n/a	n/a	0	0	0
2534203	WORD	wordpools/wasnorm_wordpool_576.txt	LTP354	ltpFR2	19	13	KIDNEY	776	n/a	n/a	0	0	0
2536835	WORD	wordpools/wasnorm_wordpool_576.txt	LTP354	ltpFR2	19	13	KITCHEN	778	n/a	n/a	0	0	0
2539500	WORD	wordpools/wasnorm_wordpool_576.txt	LTP354	ltpFR2	19	13	FARMER	553	n/a	n/a	0	0	0
2542067	WORD	wordpools/wasnorm_wordpool_576.txt	LTP354	ltpFR2	19	13	SCARECROW	1245	n/a	n/a	0	0	0
2544731	WORD	wordpools/wasnorm_wordpool_576.txt	LTP354	ltpFR2	19	13	HONEY	713	n/a	n/a	0	0	0
2547530	WORD	wordpools/wasnorm_wordpool_576.txt	LTP354	ltpFR2	19	13	HEART	697	n/a	n/a	0	0	0
2550246	WORD	wordpools/wasnorm_wordpool_576.txt	LTP354	ltpFR2	19	13	TRANSPLANT	1496	n/a	n/a	0	0	0
2552911	WORD	wordpools/wasnorm_wordpool_576.txt	LTP354	ltpFR2	19	13	PLATE	1086	n/a	n/a	0	0	0
2555710	WORD	wordpools/wasnorm_wordpool_576.txt	LTP354	ltpFR2	19	13	BUCKET	184	n/a	n/a	0	0	0
2558409	WORD	wordpools/wasnorm_wordpool_576.txt	LTP354	ltpFR2	19	13	SISTER	1312	n/a	n/a	0	0	0
2561007	WORD	wordpools/wasnorm_wordpool_576.txt	LTP354	ltpFR2	19	13	DONKEY	484	n/a	n/a	0	0	0
2563740	WORD	wordpools/wasnorm_wordpool_576.txt	LTP354	ltpFR2	19	13	DOLPHIN	483	n/a	n/a	0	0	0
2566388	WORD	wordpools/wasnorm_wordpool_576.txt	LTP354	ltpFR2	19	13	AGENT	10	n/a	n/a	0	0	0
2569088	WORD	wordpools/wasnorm_wordpool_576.txt	LTP354	ltpFR2	19	13	TWISTER	1530	n/a	n/a	0	0	0
2571753	WORD	wordpools/wasnorm_wordpool_576.txt	LTP354	ltpFR2	19	13	TOASTER	1472	n/a	n/a	0	0	0
2574468	WORD	wordpools/wasnorm_wordpool_576.txt	LTP354	ltpFR2	19	13	BRANDY	169	n/a	n/a	0	0	0
2577051	WORD	wordpools/wasnorm_wordpool_576.txt	LTP354	ltpFR2	19	13	CANDY	230	n/a	n/a	0	0	0
2578666	START	n/a	LTP354	ltpFR2	19	n/a	n/a	n/a	21	n/a	n/a	n/a	n/a
2579626	DISTRACTOR	n/a	LTP354	ltpFR2	19	13	n/a	n/a	n/a	n/a	0	0	0
2579632	PROB	n/a	LTP354	ltpFR2	19	n/a	n/a	n/a	21	16	7	6	3
2581182	PROB	n/a	LTP354	ltpFR2	19	n/a	n/a	n/a	21	16	6	7	3
2582448	PROB	n/a	LTP354	ltpFR2	19	n/a	n/a	n/a	21	11	7	1	3
2583431	PROB	n/a	LTP354	ltpFR2	19	n/a	n/a	n/a	21	21	6	8	7
2586047	PROB	n/a	LTP354	ltpFR2	19	n/a	n/a	n/a	21	16	6	8	2
2588195	PROB	n/a	LTP354	ltpFR2	19	n/a	n/a	n/a	21	19	8	7	4
2589661	PROB	n/a	LTP354	ltpFR2	19	n/a	n/a	n/a	21	11	1	8	2
2590677	PROB	n/a	LTP354	ltpFR2	19	n/a	n/a	n/a	21	21	9	7	5
2591893	PROB	n/a	LTP354	ltpFR2	19	n/a	n/a	n/a	21	15	7	5	3
2592910	PROB	n/a	LTP354	ltpFR2	19	n/a	n/a	n/a	21	25	9	7	9
2594359	PROB	n/a	LTP354	ltpFR2	19	n/a	n/a	n/a	21	12	2	8	2
2595558	PROB	n/a	LTP354	ltpFR2	19	n/a	n/a	n/a	21	20	6	9	5
2597924	PROB	n/a	LTP354	ltpFR2	19	n/a	n/a	n/a	21	18	2	9	7
2599590	PROB	n/a	LTP354	ltpFR2	19	n/a	n/a	n/a	21	14	5	6	3
2601140	PROB	n/a	LTP354	ltpFR2	19	n/a	n/a	n/a	21	15	3	8	4
2602332	STOP	n/a	LTP354	ltpFR2	19	n/a	n/a	n/a	21	n/a	n/a	n/a	n/a
2604455	REC_START	n/a	LTP354	ltpFR2	19	13	n/a	n/a	n/a	n/a	0	0	0
2606138	REC_WORD	wordpools/wasnorm_wordpool_576.txt	LTP354	ltpFR2	19	13	BRANDY	169	n/a	n/a	0	0	0
2607165	REC_WORD	wordpools/wasnorm_wordpool_576.txt	LTP354	ltpFR2	19	13	CANDY	230	n/a	n/a	0	0	0
2608365	REC_WORD	wordpools/wasnorm_wordpool_576.txt	LTP354	ltpFR2	19	13	AGENT	10	n/a	n/a	0	0	0
2609334	REC_WORD	wordpools/wasnorm_wordpool_576.txt	LTP354	ltpFR2	19	13	DONKEY	484	n/a	n/a	0	0	0
2610383	REC_WORD	wordpools/wasnorm_wordpool_576.txt	LTP354	ltpFR2	19	13	DOLPHIN	483	n/a	n/a	0	0	0
2612720	REC_WORD	wordpools/wasnorm_wordpool_576.txt	LTP354	ltpFR2	19	13	SISTER	1312	n/a	n/a	0	0	0
2613614	REC_WORD	wordpools/wasnorm_wordpool_576.txt	LTP354	ltpFR2	19	13	BROTHER	179	n/a	n/a	0	0	0
2614625	REC_WORD	wordpools/wasnorm_wordpool_576.txt	LTP354	ltpFR2	19	13	COUSIN	392	n/a	n/a	0	0	0
2616628	REC_WORD	wordpools/wasnorm_wordpool_576.txt	LTP354	ltpFR2	19	13	TWISTER	1530	n/a	n/a	0	0	0
2618019	REC_WORD	wordpools/wasnorm_wordpool_576.txt	LTP354	ltpFR2	19	13	CYCLONE	431	n/a	n/a	0	0	0
2619434	REC_WORD	wordpools/wasnorm_wordpool_576.txt	LTP354	ltpFR2	19	13	CLOUD	328	n/a	n/a	0	0	0
2621714	REC_WORD	wordpools/wasnorm_wordpool_576.txt	LTP354	ltpFR2	19	13	WHISKERS	1605	n/a	n/a	0	0	0
2630328	REC_WORD	wordpools/wasnorm_wordpool_576.txt	LTP354	ltpFR2	19	13	UMPIRE	1535	n/a	n/a	0	0	0
2658959	REC_WORD	wordpools/wasnorm_wordpool_576.txt	LTP354	ltpFR2	19	13	LILY	821	n/a	n/a	0	0	0
2694897	WORD	wordpools/wasnorm_wordpool_576.txt	LTP354	ltpFR2	19	14	DANDRUFF	439	n/a	n/a	0	0	0
2697512	WORD	wordpools/wasnorm_wordpool_576.txt	LTP354	ltpFR2	19	14	LAMP	798	n/a	n/a	0	0	0
2700079	WORD	wordpools/wasnorm_wordpool_576.txt	LTP354	ltpFR2	19	14	PEACH	1031	n/a	n/a	0	0	0
2702627	WORD	wordpools/wasnorm_wordpool_576.txt	LTP354	ltpFR2	19	14	HOSTESS	723	n/a	n/a	0	0	0
2705325	WORD	wordpools/wasnorm_wordpool_576.txt	LTP354	ltpFR2	19	14	WRIST	1626	n/a	n/a	0	0	0
2707791	WORD	wordpools/wasnorm_wordpool_576.txt	LTP354	ltpFR2	19	14	VELVET	1555	n/a	n/a	0	0	0
2710523	WORD	wordpools/wasnorm_wordpool_576.txt	LTP354	ltpFR2	19	14	SILK	1307	n/a	n/a	0	0	0
2713056	WORD	wordpools/wasnorm_wordpool_576.txt	LTP354	ltpFR2	19	14	FLOWER	584	n/a	n/a	0	0	0
2715487	WORD	wordpools/wasnorm_wordpool_576.txt	LTP354	ltpFR2	19	14	LIGHTNING	820	n/a	n/a	0	0	0
2718020	WORD	wordpools/wasnorm_wordpool_576.txt	LTP354	ltpFR2	19	14	FILM	565	n/a	n/a	0	0	0
2720502	WORD	wordpools/wasnorm_wordpool_576.txt	LTP354	ltpFR2	19	14	SERVER	1272	n/a	n/a	0	0	0
2723201	WORD	wordpools/wasnorm_wordpool_576.txt	LTP354	ltpFR2	19	14	GRAVE	658	n/a	n/a	0	0	0
2725799	WORD	wordpools/wasnorm_wordpool_576.txt	LTP354	ltpFR2	19	14	VICTIM	1562	n/a	n/a	0	0	0
2728365	WORD	wordpools/wasnorm_wordpool_576.txt	LTP354	ltpFR2	19	14	COCOON	339	n/a	n/a	0	0	0
2731048	WORD	wordpools/wasnorm_wordpool_576.txt	LTP354	ltpFR2	19	14	BRANCH	168	n/a	n/a	0	0	0
2733646	WORD	wordpools/wasnorm_wordpool_576.txt	LTP354	ltpFR2	19	14	PEBBLE	1035	n/a	n/a	0	0	0
2736295	WORD	wordpools/wasnorm_wordpool_576.txt	LTP354	ltpFR2	19	14	SHRUB	1299	n/a	n/a	0	0	0
2738910	WORD	wordpools/wasnorm_wordpool_576.txt	LTP354	ltpFR2	19	14	BOX	159	n/a	n/a	0	0	0
2741526	WORD	wordpools/wasnorm_wordpool_576.txt	LTP354	ltpFR2	19	14	SEAL	1262	n/a	n/a	0	0	0
2743991	WORD	wordpools/wasnorm_wordpool_576.txt	LTP354	ltpFR2	19	14	WARDROBE	1587	n/a	n/a	0	0	0
2746473	WORD	wordpools/wasnorm_wordpool_576.txt	LTP354	ltpFR2	19	14	ULCER	1533	n/a	n/a	0	0	0
2749172	WORD	wordpools/wasnorm_wordpool_576.txt	LTP354	ltpFR2	19	14	PROTON	1132	n/a	n/a	0	0	0
2751738	WORD	wordpools/wasnorm_wordpool_576.txt	LTP354	ltpFR2	19	14	CARROT	249	n/a	n/a	0	0	0
2754287	WORD	wordpools/wasnorm_wordpool_576.txt	LTP354	ltpFR2	19	14	ORANGE	980	n/a	n/a	0	0	0
2755903	START	n/a	LTP354	ltpFR2	19	n/a	n/a	n/a	22	n/a	n/a	n/a	n/a
2756991	DISTRACTOR	n/a	LTP354	ltpFR2	19	14	n/a	n/a	n/a	n/a	0	0	0
2757002	PROB	n/a	LTP354	ltpFR2	19	n/a	n/a	n/a	22	22	6	9	7
2759634	PROB	n/a	LTP354	ltpFR2	19	n/a	n/a	n/a	22	16	5	6	5
2760684	PROB	n/a	LTP354	ltpFR2	19	n/a	n/a	n/a	22	17	1	8	8
2761800	PROB	n/a	LTP354	ltpFR2	19	n/a	n/a	n/a	22	16	3	4	9
2764133	PROB	n/a	LTP354	ltpFR2	19	n/a	n/a	n/a	22	8	2	5	1
2765066	PROB	n/a	LTP354	ltpFR2	19	n/a	n/a	n/a	22	11	5	5	1
2765981	PROB	n/a	LTP354	ltpFR2	19	n/a	n/a	n/a	22	23	9	5	9
2768597	PROB	n/a	LTP354	ltpFR2	19	n/a	n/a	n/a	22	15	7	1	7
2769963	PROB	n/a	LTP354	ltpFR2	19	n/a	n/a	n/a	22	18	7	8	3
2771296	PROB	n/a	LTP354	ltpFR2	19	n/a	n/a	n/a	22	15	6	2	7
2772662	PROB	n/a	LTP354	ltpFR2	19	n/a	n/a	n/a	22	10	2	6	2
2773678	PROB	n/a	LTP354	ltpFR2	19	n/a	n/a	n/a	22	17	6	6	5
2774877	PROB	n/a	LTP354	ltpFR2	19	n/a	n/a	n/a	22	17	8	4	5
2776626	PROB	n/a	LTP354	ltpFR2	19	n/a	n/a	n/a	22	11	1	1	9
2777526	PROB	n/a	LTP354	ltpFR2	19	n/a	n/a	n/a	22	16	2	4	8
2778650	STOP	n/a	LTP354	ltpFR2	19	n/a	n/a	n/a	22	n/a	n/a	n/a	n/a
2781691	REC_START	n/a	LTP354	ltpFR2	19	14	n/a	n/a	n/a	n/a	0	0	0
2784685	REC_WORD	wordpools/wasnorm_wordpool_576.txt	LTP354	ltpFR2	19	14	ULCER	1533	n/a	n/a	0	0	0
2786026	REC_WORD	wordpools/wasnorm_wordpool_576.txt	LTP354	ltpFR2	19	14	PROTON	1132	n/a	n/a	0	0	0
2787432	REC_WORD	wordpools/wasnorm_wordpool_576.txt	LTP354	ltpFR2	19	14	SEAL	1262	n/a	n/a	0	0	0
2788238	REC_WORD	wordpools/wasnorm_wordpool_576.txt	LTP354	ltpFR2	19	14	WARDROBE	1587	n/a	n/a	0	0	0
2789100	REC_WORD	wordpools/wasnorm_wordpool_576.txt	LTP354	ltpFR2	19	14	BOX	159	n/a	n/a	0	0	0
2791266	REC_WORD	wordpools/wasnorm_wordpool_576.txt	LTP354	ltpFR2	19	14	SERVER	1272	n/a	n/a	0	0	0
2792266	REC_WORD_VV	wordpools/wasnorm_wordpool_576.txt	LTP354	ltpFR2	19	14	<>	-1	n/a	n/a	0	0	0
2793316	REC_WORD	wordpools/wasnorm_wordpool_576.txt	LTP354	ltpFR2	19	14	LAMP	798	n/a	n/a	0	0	0
2799256	REC_WORD	wordpools/wasnorm_wordpool_576.txt	LTP354	ltpFR2	19	14	GRAVE	658	n/a	n/a	0	0	0
2803354	REC_WORD	wordpools/wasnorm_wordpool_576.txt	LTP354	ltpFR2	19	14	MACHINE	852	n/a	n/a	0	0	0
2819996	REC_WORD	wordpools/wasnorm_wordpool_576.txt	LTP354	ltpFR2	19	14	FLOWER	584	n/a	n/a	0	0	0
2825142	REC_WORD	wordpools/wasnorm_wordpool_576.txt	LTP354	ltpFR2	19	14	LIGHTNING	820	n/a	n/a	0	0	0
2825770	REC_WORD	wordpools/wasnorm_wordpool_576.txt	LTP354	ltpFR2	19	14	FILM	565	n/a	n/a	0	0	0
2833129	REC_WORD	wordpools/wasnorm_wordpool_576.txt	LTP354	ltpFR2	19	14	BOUQUET	157	n/a	n/a	0	0	0
2836528	REC_WORD	wordpools/wasnorm_wordpool_576.txt	LTP354	ltpFR2	19	14	PEACH	1031	n/a	n/a	0	0	0
2837444	REC_WORD	wordpools/wasnorm_wordpool_576.txt	LTP354	ltpFR2	19	14	COCOON	339	n/a	n/a	0	0	0
2838346	REC_WORD	wordpools/wasnorm_wordpool_576.txt	LTP354	ltpFR2	19	14	PEBBLE	1035	n/a	n/a	0	0	0
2840785	REC_WORD	wordpools/wasnorm_wordpool_576.txt	LTP354	ltpFR2	19	14	DANDRUFF	439	n/a	n/a	0	0	0
2845647	REC_WORD	wordpools/wasnorm_wordpool_576.txt	LTP354	ltpFR2	19	14	LAMP	798	n/a	n/a	0	0	0
2872134	WORD	wordpools/wasnorm_wordpool_576.txt	LTP354	ltpFR2	19	15	DENIM	446	n/a	n/a	0	0	0
2874815	WORD	wordpools/wasnorm_wordpool_576.txt	LTP354	ltpFR2	19	15	MILDEW	893	n/a	n/a	0	0	0
2877564	WORD	wordpools/wasnorm_wordpool_576.txt	LTP354	ltpFR2	19	15	PEDAL	1037	n/a	n/a	0	0	0
2880246	WORD	wordpools/wasnorm_wordpool_576.txt	LTP354	ltpFR2	19	15	MARSH	874	n/a	n/a	0	0	0
2882712	WORD	wordpools/wasnorm_wordpool_576.txt	LTP354	ltpFR2	19	15	BELLY	119	n/a	n/a	0	0	0
2885211	WORD	wordpools/wasnorm_wordpool_576.txt	LTP354	ltpFR2	19	15	COOKBOOK	373	n/a	n/a	0	0	0
2887676	WORD	wordpools/wasnorm_wordpool_576.txt	LTP354	ltpFR2	19	15	OFFICE	972	n/a	n/a	0	0	0
2890175	WORD	wordpools/wasnorm_wordpool_576.txt	LTP354	ltpFR2	19	15	DAUGHTER	442	n/a	n/a	0	0	0
2892774	WORD	wordpools/wasnorm_wordpool_576.txt	LTP354	ltpFR2	19	15	RECEIPT	1173	n/a	n/a	0	0	0
2895339	WORD	wordpools/wasnorm_wordpool_576.txt	LTP354	ltpFR2	19	15	QUARTER	1148	n/a	n/a	0	0	0
2898089	WORD	wordpools/wasnorm_wordpool_576.txt	LTP354	ltpFR2	19	15	FRUIT	610	n/a	n/a	0	0	0
2900637	WORD	wordpools/wasnorm_wordpool_576.txt	LTP354	ltpFR2	19	15	GRAPE	654	n/a	n/a	0	0	0
2903087	WORD	wordpools/wasnorm_wordpool_576.txt	LTP354	ltpFR2	19	15	PUDDLE	1140	n/a	n/a	0	0	0
2905651	WORD	wordpools/wasnorm_wordpool_576.txt	LTP354	ltpFR2	19	15	GARDEN	623	n/a	n/a	0	0	0
2908283	WORD	wordpools/wasnorm_wordpool_576.txt	LTP354	ltpFR2	19	15	BLADE	134	n/a	n/a	0	0	0
2910716	WORD	wordpools/wasnorm_wordpool_576.txt	LTP354	ltpFR2	19	15	BANQUET	86	n/a	n/a	0	0	0
2913531	WORD	wordpools/wasnorm_wordpool_576.txt	LTP354	ltpFR2	19	15	BOUQUET	157	n/a	n/a	0	0	0
2916081	WORD	wordpools/wasnorm_wordpool_576.txt	LTP354	ltpFR2	19	15	TUNNEL	1519	n/a	n/a	0	0	0
2918612	WORD	wordpools/wasnorm_wordpool_576.txt	LTP354	ltpFR2	19	15	POCKET	1093	n/a	n/a	0	0	0
2921045	WORD	wordpools/wasnorm_wordpool_576.txt	LTP354	ltpFR2	19	15	VENUS	1557	n/a	n/a	0	0	0
2923560	WORD	wordpools/wasnorm_wordpool_576.txt	LTP354	ltpFR2	19	15	ARMY	39	n/a	n/a	0	0	0
2926110	WORD	wordpools/wasnorm_wordpool_576.txt	LTP354	ltpFR2	19	15	HELMET	702	n/a	n/a	0	0	0
2928758	WORD	wordpools/wasnorm_wordpool_576.txt	LTP354	ltpFR2	19	15	KEEPER	769	n/a	n/a	0	0	0
2931490	WORD	wordpools/wasnorm_wordpool_576.txt	LTP354	ltpFR2	19	15	HUMAN	726	n/a	n/a	0	0	0
2933107	START	n/a	LTP354	ltpFR2	19	n/a	n/a	n/a	23	n/a	n/a	n/a	n/a
2934151	DISTRACTOR	n/a	LTP354	ltpFR2	19	15	n/a	n/a	n/a	n/a	0	0	0
2934156	PROB	n/a	LTP354	ltpFR2	19	n/a	n/a	n/a	23	19	4	6	9
2935921	PROB	n/a	LTP354	ltpFR2	19	n/a	n/a	n/a	23	15	5	2	8
2937071	PROB	n/a	LTP354	ltpFR2	19	n/a	n/a	n/a	23	9	5	3	1
2938836	PROB	n/a	LTP354	ltpFR2	19	n/a	n/a	n/a	23	12	2	8	2
2939786	PROB	n/a	LTP354	ltpFR2	19	n/a	n/a	n/a	23	14	2	3	9
2941802	PROB	n/a	LTP354	ltpFR2	19	n/a	n/a	n/a	23	14	1	9	4
2942835	PROB	n/a	LTP354	ltpFR2	19	n/a	n/a	n/a	23	12	2	2	8
2943734	PROB	n/a	LTP354	ltpFR2	19	n/a	n/a	n/a	23	17	7	1	9
2944967	PROB	n/a	LTP354	ltpFR2	19	n/a	n/a	n/a	23	12	1	9	2
2946051	PROB	n/a	LTP354	ltpFR2	19	n/a	n/a	n/a	23	21	8	9	4
2948499	PROB	n/a	LTP354	ltpFR2	19	n/a	n/a	n/a	23	19	7	4	8
2949948	PROB	n/a	LTP354	ltpFR2	19	n/a	n/a	n/a	23	6	1	1	4
2951148	PROB	n/a	LTP354	ltpFR2	19	n/a	n/a	n/a	23	12	2	2	8
2952115	PROB	n/a	LTP354	ltpFR2	19	n/a	n/a	n/a	23	4	1	1	2
2953098	PROB	n/a	LTP354	ltpFR2	19	n/a	n/a	n/a	23	14	4	7	3
2954246	PROB	n/a	LTP354	ltpFR2	19	n/a	n/a	n/a	23	18	6	4	8
2955296	PROB	n/a	LTP354	ltpFR2	19	n/a	n/a	n/a	23	10	6	1	3
2956975	STOP	n/a	LTP354	ltpFR2	19	n/a	n/a	n/a	23	n/a	n/a	n/a	n/a
2958978	REC_START	n/a	LTP354	ltpFR2	19	15	n/a	n/a	n/a	n/a	0	0	0
2963527	REC_WORD	wordpools/wasnorm_wordpool_576.txt	LTP354	ltpFR2	19	15	GARDEN	623	n/a	n/a	0	0	0
2964733	REC_WORD	wordpools/wasnorm_wordpool_576.txt	LTP354	ltpFR2	19	15	BELLY	119	n/a	n/a	0	0	0
2966783	REC_WORD	wordpools/wasnorm_wordpool_576.txt	LTP354	ltpFR2	19	15	COOKBOOK	373	n/a	n/a	0	0	0
2967437	REC_WORD	wordpools/wasnorm_wordpool_576.txt	LTP354	ltpFR2	19	15	RECEIPT	1173	n/a	n/a	0	0	0
2969895	REC_WORD	wordpools/wasnorm_wordpool_576.txt	LTP354	ltpFR2	19	15	PORK	1108	n/a	n/a	0	0	0
2973671	REC_WORD	wordpools/wasnorm_wordpool_576.txt	LTP354	ltpFR2	19	15	BANQUET	86	n/a	n/a	0	0	0
2976197	REC_WORD	wordpools/wasnorm_wordpool_576.txt	LTP354	ltpFR2	19	15	BOUQUET	157	n/a	n/a	0	0	0
2987683	REC_WORD	wordpools/wasnorm_wordpool_576.txt	LTP354	ltpFR2	19	15	DAUGHTER	442	n/a	n/a	0	0	0
3002770	REC_WORD	wordpools/wasnorm_wordpool_576.txt	LTP354	ltpFR2	19	15	FRAGRANCE	599	n/a	n/a	0	0	0
3017037	REC_WORD	wordpools/wasnorm_wordpool_576.txt	LTP354	ltpFR2	19	15	PROTON	1132	n/a	n/a	0	0	0
3049420	WORD	wordpools/wasnorm_wordpool_576.txt	LTP354	ltpFR2	19	16	FIREMAN	569	n/a	n/a	0	0	0
3051969	WORD	wordpools/wasnorm_wordpool_576.txt	LTP354	ltpFR2	19	16	SUNSET	1408	n/a	n/a	0	0	0
3054451	WORD	wordpools/wasnorm_wordpool_576.txt	LTP354	ltpFR2	19	16	FINGER	567	n/a	n/a	0	0	0
3057016	WORD	wordpools/wasnorm_wordpool_576.txt	LTP354	ltpFR2	19	16	LEG	809	n/a	n/a	0	0	0
3059632	WORD	wordpools/wasnorm_wordpool_576.txt	LTP354	ltpFR2	19	16	COOK	372	n/a	n/a	0	0	0
3062347	WORD	wordpools/wasnorm_wordpool_576.txt	LTP354	ltpFR2	19	16	MEDAL	885	n/a	n/a	0	0	0
3065114	WORD	wordpools/wasnorm_wordpool_576.txt	LTP354	ltpFR2	19	16	SLIDE	1326	n/a	n/a	0	0	0
3067745	WORD	wordpools/wasnorm_wordpool_576.txt	LTP354	ltpFR2	19	16	EAGLE	512	n/a	n/a	0	0	0
3070493	WORD	wordpools/wasnorm_wordpool_576.txt	LTP354	ltpFR2	19	16	ROBIN	1199	n/a	n/a	0	0	0
3073242	WORD	wordpools/wasnorm_wordpool_576.txt	LTP354	ltpFR2	19	16	NECKLACE	940	n/a	n/a	0	0	0
3075724	WORD	wordpools/wasnorm_wordpool_576.txt	LTP354	ltpFR2	19	16	SCULPTURE	1258	n/a	n/a	0	0	0
3078456	WORD	wordpools/wasnorm_wordpool_576.txt	LTP354	ltpFR2	19	16	STATUE	1374	n/a	n/a	0	0	0
3081255	WORD	wordpools/wasnorm_wordpool_576.txt	LTP354	ltpFR2	19	16	PILOT	1070	n/a	n/a	0	0	0
3083871	WORD	wordpools/wasnorm_wordpool_576.txt	LTP354	ltpFR2	19	16	CRUTCH	417	n/a	n/a	0	0	0
3086619	WORD	wordpools/wasnorm_wordpool_576.txt	LTP354	ltpFR2	19	16	MISTER	901	n/a	n/a	0	0	0
3089385	WORD	wordpools/wasnorm_wordpool_576.txt	LTP354	ltpFR2	19	16	SKETCH	1315	n/a	n/a	0	0	0
3092034	WORD	wordpools/wasnorm_wordpool_576.txt	LTP354	ltpFR2	19	16	SWIMMER	1420	n/a	n/a	0	0	0
3094799	WORD	wordpools/wasnorm_wordpool_576.txt	LTP354	ltpFR2	19	16	COWBOY	395	n/a	n/a	0	0	0
3097465	WORD	wordpools/wasnorm_wordpool_576.txt	LTP354	ltpFR2	19	16	BLENDER	136	n/a	n/a	0	0	0
3100013	WORD	wordpools/wasnorm_wordpool_576.txt	LTP354	ltpFR2	19	16	DASHBOARD	441	n/a	n/a	0	0	0
3102546	WORD	wordpools/wasnorm_wordpool_576.txt	LTP354	ltpFR2	19	16	TABLET	1427	n/a	n/a	0	0	0
3105344	WORD	wordpools/wasnorm_wordpool_576.txt	LTP354	ltpFR2	19	16	HORNET	718	n/a	n/a	0	0	0
3107777	WORD	wordpools/wasnorm_wordpool_576.txt	LTP354	ltpFR2	19	16	WORKER	1621	n/a	n/a	0	0	0
3110242	WORD	wordpools/wasnorm_wordpool_576.txt	LTP354	ltpFR2	19	16	SANDWICH	1232	n/a	n/a	0	0	0
3111858	START	n/a	LTP354	ltpFR2	19	n/a	n/a	n/a	24	n/a	n/a	n/a	n/a
3112966	DISTRACTOR	n/a	LTP354	ltpFR2	19	16	n/a	n/a	n/a	n/a	0	0	0
3112974	PROB	n/a	LTP354	ltpFR2	19	n/a	n/a	n/a	24	24	9	6	9
3115223	PROB	n/a	LTP354	ltpFR2	19	n/a	n/a	n/a	24	22	4	9	9
3116523	PROB	n/a	LTP354	ltpFR2	19	n/a	n/a	n/a	24	22	8	7	7
3117989	PROB	n/a	LTP354	ltpFR2	19	n/a	n/a	n/a	24	18	7	3	8
3120038	PROB	n/a	LTP354	ltpFR2	19	n/a	n/a	n/a	24	12	7	1	4
3121354	PROB	n/a	LTP354	ltpFR2	19	n/a	n/a	n/a	24	23	5	9	9
3122570	PROB	n/a	LTP354	ltpFR2	19	n/a	n/a	n/a	24	10	4	3	3
3124402	PROB	n/a	LTP354	ltpFR2	19	n/a	n/a	n/a	24	14	6	2	6
3125485	PROB	n/a	LTP354	ltpFR2	19	n/a	n/a	n/a	24	24	9	7	8
3126518	PROB	n/a	LTP354	ltpFR2	19	n/a	n/a	n/a	24	10	3	6	1
3127518	PROB	n/a	LTP354	ltpFR2	19	n/a	n/a	n/a	24	8	3	2	3
3128867	PROB	n/a	LTP354	ltpFR2	19	n/a	n/a	n/a	24	15	5	9	1
3129866	PROB	n/a	LTP354	ltpFR2	19	n/a	n/a	n/a	24	12	8	2	1
3131100	PROB	n/a	LTP354	ltpFR2	19	n/a	n/a	n/a	24	20	5	7	8
3135858	STOP	n/a	LTP354	ltpFR2	19	n/a	n/a	n/a	24	n/a	n/a	n/a	n/a
3137781	REC_START	n/a	LTP354	ltpFR2	19	16	n/a	n/a	n/a	n/a	0	0	0
3138534	REC_WORD	wordpools/wasnorm_wordpool_576.txt	LTP354	ltpFR2	19	16	TABLET	1427	n/a	n/a	0	0	0
3139552	REC_WORD	wordpools/wasnorm_wordpool_576.txt	LTP354	ltpFR2	19	16	WORKER	1621	n/a	n/a	0	0	0
3140980	REC_WORD	wordpools/wasnorm_wordpool_576.txt	LTP354	ltpFR2	19	16	SANDWICH	1232	n/a	n/a	0	0	0
3143398	REC_WORD	wordpools/wasnorm_wordpool_576.txt	LTP354	ltpFR2	19	16	FARMER	553	n/a	n/a	0	0	0
3145127	REC_WORD	wordpools/wasnorm_wordpool_576.txt	LTP354	ltpFR2	19	16	COWBOY	395	n/a	n/a	0	0	0
3146860	REC_WORD	wordpools/wasnorm_wordpool_576.txt	LTP354	ltpFR2	19	16	FIREMAN	569	n/a	n/a	0	0	0
3149559	REC_WORD	wordpools/wasnorm_wordpool_576.txt	LTP354	ltpFR2	19	16	SCULPTURE	1258	n/a	n/a	0	0	0
3151442	REC_WORD	wordpools/wasnorm_wordpool_576.txt	LTP354	ltpFR2	19	16	STATUE	1374	n/a	n/a	0	0	0
3152233	REC_WORD	wordpools/wasnorm_wordpool_576.txt	LTP354	ltpFR2	19	16	PILOT	1070	n/a	n/a	0	0	0
3157639	REC_WORD	wordpools/wasnorm_wordpool_576.txt	LTP354	ltpFR2	19	16	EAGLE	512	n/a	n/a	0	0	0
3158330	REC_WORD	wordpools/wasnorm_wordpool_576.txt	LTP354	ltpFR2	19	16	ROBIN	1199	n/a	n/a	0	0	0
3195937	REC_WORD	wordpools/wasnorm_wordpool_576.txt	LTP354	ltpFR2	19	16	FLAG	573	n/a	n/a	0	0	0
3214312	REST_REWET	n/a	LTP354	ltpFR2	19	16	n/a	n/a	n/a	n/a	0	0	0
3348751	WORD	wordpools/wasnorm_wordpool_576.txt	LTP354	ltpFR2	19	17	DRILL	497	n/a	n/a	0	0	0
3351200	WORD	wordpools/wasnorm_wordpool_576.txt	LTP354	ltpFR2	19	17	STAMP	1370	n/a	n/a	0	0	0
3353915	WORD	wordpools/wasnorm_wordpool_576.txt	LTP354	ltpFR2	19	17	CRICKET	408	n/a	n/a	0	0	0
3356714	WORD	wordpools/wasnorm_wordpool_576.txt	LTP354	ltpFR2	19	17	EYELASH	546	n/a	n/a	0	0	0
3359529	WORD	wordpools/wasnorm_wordpool_576.txt	LTP354	ltpFR2	19	17	PIZZA	1079	n/a	n/a	0	0	0
3362211	WORD	wordpools/wasnorm_wordpool_576.txt	LTP354	ltpFR2	19	17	ROBBER	1197	n/a	n/a	0	0	0
3365027	WORD	wordpools/wasnorm_wordpool_576.txt	LTP354	ltpFR2	19	17	THIEF	1456	n/a	n/a	0	0	0
3367726	WORD	wordpools/wasnorm_wordpool_576.txt	LTP354	ltpFR2	19	17	BIKE	125	n/a	n/a	0	0	0
3370208	WORD	wordpools/wasnorm_wordpool_576.txt	LTP354	ltpFR2	19	17	ATLAS	53	n/a	n/a	0	0	0
3372923	WORD	wordpools/wasnorm_wordpool_576.txt	LTP354	ltpFR2	19	17	GLOBE	641	n/a	n/a	0	0	0
3375622	WORD	wordpools/wasnorm_wordpool_576.txt	LTP354	ltpFR2	19	17	FLASHLIGHT	575	n/a	n/a	0	0	0
3378387	WORD	wordpools/wasnorm_wordpool_576.txt	LTP354	ltpFR2	19	17	MATCH	878	n/a	n/a	0	0	0
3380986	WORD	wordpools/wasnorm_wordpool_576.txt	LTP354	ltpFR2	19	17	PENGUIN	1044	n/a	n/a	0	0	0
3383635	WORD	wordpools/wasnorm_wordpool_576.txt	LTP354	ltpFR2	19	17	MARKER	870	n/a	n/a	0	0	0
3386101	WORD	wordpools/wasnorm_wordpool_576.txt	LTP354	ltpFR2	19	17	GIFT	635	n/a	n/a	0	0	0
3388883	WORD	wordpools/wasnorm_wordpool_576.txt	LTP354	ltpFR2	19	17	MAILBOX	857	n/a	n/a	0	0	0
3391681	WORD	wordpools/wasnorm_wordpool_576.txt	LTP354	ltpFR2	19	17	BRACES	164	n/a	n/a	0	0	0
3394447	WORD	wordpools/wasnorm_wordpool_576.txt	LTP354	ltpFR2	19	17	PIGMENT	1066	n/a	n/a	0	0	0
3396929	WORD	wordpools/wasnorm_wordpool_576.txt	LTP354	ltpFR2	19	17	BATHTUB	100	n/a	n/a	0	0	0
3399578	WORD	wordpools/wasnorm_wordpool_576.txt	LTP354	ltpFR2	19	17	BLUEPRINT	142	n/a	n/a	0	0	0
3402043	WORD	wordpools/wasnorm_wordpool_576.txt	LTP354	ltpFR2	19	17	JUDGE	761	n/a	n/a	0	0	0
3404725	WORD	wordpools/wasnorm_wordpool_576.txt	LTP354	ltpFR2	19	17	MAILMAN	858	n/a	n/a	0	0	0
3407457	WORD	wordpools/wasnorm_wordpool_576.txt	LTP354	ltpFR2	19	17	JELLY	755	n/a	n/a	0	0	0
3410223	WORD	wordpools/wasnorm_wordpool_576.txt	LTP354	ltpFR2	19	17	PLUTO	1092	n/a	n/a	0	0	0
3411839	START	n/a	LTP354	ltpFR2	19	n/a	n/a	n/a	25	n/a	n/a	n/a	n/a
3412644	DISTRACTOR	n/a	LTP354	ltpFR2	19	17	n/a	n/a	n/a	n/a	0	0	0
3412655	PROB	n/a	LTP354	ltpFR2	19	n/a	n/a	n/a	25	10	4	3	3
3414454	PROB	n/a	LTP354	ltpFR2	19	n/a	n/a	n/a	25	14	3	5	6
3416105	PROB	n/a	LTP354	ltpFR2	19	n/a	n/a	n/a	25	16	5	6	5
3417170	PROB	n/a	LTP354	ltpFR2	19	n/a	n/a	n/a	25	18	5	4	9
3418636	PROB	n/a	LTP354	ltpFR2	19	n/a	n/a	n/a	25	15	8	2	5
3419602	PROB	n/a	LTP354	ltpFR2	19	n/a	n/a	n/a	25	15	2	4	9
3422401	PROB	n/a	LTP354	ltpFR2	19	n/a	n/a	n/a	25	12	4	2	6
3424183	PROB	n/a	LTP354	ltpFR2	19	n/a	n/a	n/a	25	11	2	8	1
3425899	PROB	n/a	LTP354	ltpFR2	19	n/a	n/a	n/a	25	8	5	2	1
3427050	PROB	n/a	LTP354	ltpFR2	19	n/a	n/a	n/a	25	23	7	8	8
3429364	PROB	n/a	LTP354	ltpFR2	19	n/a	n/a	n/a	25	10	5	3	2
3430414	PROB	n/a	LTP354	ltpFR2	19	n/a	n/a	n/a	25	17	1	7	9
3432013	PROB	n/a	LTP354	ltpFR2	19	n/a	n/a	n/a	25	21	7	8	6
3435037	STOP	n/a	LTP354	ltpFR2	19	n/a	n/a	n/a	25	n/a	n/a	n/a	n/a
3437628	REC_START	n/a	LTP354	ltpFR2	19	17	n/a	n/a	n/a	n/a	0	0	0
3439970	REC_WORD	wordpools/wasnorm_wordpool_576.txt	LTP354	ltpFR2	19	17	MAILMAN	858	n/a	n/a	0	0	0
3441412	REC_WORD	wordpools/wasnorm_wordpool_576.txt	LTP354	ltpFR2	19	17	PLUTO	1092	n/a	n/a	0	0	0
3444625	REC_WORD	wordpools/wasnorm_wordpool_576.txt	LTP354	ltpFR2	19	17	ATLAS	53	n/a	n/a	0	0	0
3445551	REC_WORD	wordpools/wasnorm_wordpool_576.txt	LTP354	ltpFR2	19	17	GLOBE	641	n/a	n/a	0	0	0
3470227	REC_WORD	wordpools/wasnorm_wordpool_576.txt	LTP354	ltpFR2	19	17	VENUS	1557	n/a	n/a	0	0	0
3476705	REC_WORD	wordpools/wasnorm_wordpool_576.txt	LTP354	ltpFR2	19	17	JELLY	755	n/a	n/a	0	0	0
3479923	REC_WORD	wordpools/wasnorm_wordpool_576.txt	LTP354	ltpFR2	19	17	RACKET	1155	n/a	n/a	0	0	0
3484570	REC_WORD	wordpools/wasnorm_wordpool_576.txt	LTP354	ltpFR2	19	17	DASHBOARD	441	n/a	n/a	0	0	0
3497630	REC_WORD	wordpools/wasnorm_wordpool_576.txt	LTP354	ltpFR2	19	17	FRAGRANCE	599	n/a	n/a	0	0	0
3498630	REC_WORD_VV	wordpools/wasnorm_wordpool_576.txt	LTP354	ltpFR2	19	17	<>	-1	n/a	n/a	0	0	0
3505572	REC_WORD	wordpools/wasnorm_wordpool_576.txt	LTP354	ltpFR2	19	17	BACKBONE	66	n/a	n/a	0	0	0
3528054	DISTRACTOR	n/a	LTP354	ltpFR2	19	18	n/a	n/a	n/a	n/a	0	0	0
3528054	START	n/a	LTP354	ltpFR2	19	n/a	n/a	n/a	26	n/a	n/a	n/a	n/a
3528071	PROB	n/a	LTP354	ltpFR2	19	n/a	n/a	n/a	26	21	4	9	8
3529735	PROB	n/a	LTP354	ltpFR2	19	n/a	n/a	n/a	26	18	4	5	9
3530985	PROB	n/a	LTP354	ltpFR2	19	n/a	n/a	n/a	26	15	8	5	2
3532168	PROB	n/a	LTP354	ltpFR2	19	n/a	n/a	n/a	26	16	4	6	7
3533234	PROB	n/a	LTP354	ltpFR2	19	n/a	n/a	n/a	26	18	6	3	9
3536966	PROB	n/a	LTP354	ltpFR2	19	n/a	n/a	n/a	26	11	1	1	9
3537848	PROB	n/a	LTP354	ltpFR2	19	n/a	n/a	n/a	26	17	8	8	1
3538998	PROB	n/a	LTP354	ltpFR2	19	n/a	n/a	n/a	26	24	9	7	8
3540231	PROB	n/a	LTP354	ltpFR2	19	n/a	n/a	n/a	26	14	5	1	8
3541314	PROB	n/a	LTP354	ltpFR2	19	n/a	n/a	n/a	26	15	9	5	1
3542296	PROB	n/a	LTP354	ltpFR2	19	n/a	n/a	n/a	26	16	3	7	6
3543229	PROB	n/a	LTP354	ltpFR2	19	n/a	n/a	n/a	26	22	5	9	8
3546694	PROB	n/a	LTP354	ltpFR2	19	n/a	n/a	n/a	26	13	3	8	2
3547944	PROB	n/a	LTP354	ltpFR2	19	n/a	n/a	n/a	26	7	1	1	5
3548977	PROB	n/a	LTP354	ltpFR2	19	n/a	n/a	n/a	26	14	7	2	5
3550226	PROB	n/a	LTP354	ltpFR2	19	n/a	n/a	n/a	26	17	6	4	7
3551185	STOP	n/a	LTP354	ltpFR2	19	n/a	n/a	n/a	26	n/a	n/a	n/a	n/a
3552892	WORD	wordpools/wasnorm_wordpool_576.txt	LTP354	ltpFR2	19	18	MEAT	883	n/a	n/a	0	0	0
3555657	WORD	wordpools/wasnorm_wordpool_576.txt	LTP354	ltpFR2	19	18	BEEF	113	n/a	n/a	0	0	0
3558322	WORD	wordpools/wasnorm_wordpool_576.txt	LTP354	ltpFR2	19	18	CREVICE	405	n/a	n/a	0	0	0
3560805	WORD	wordpools/wasnorm_wordpool_576.txt	LTP354	ltpFR2	19	18	GROUND	666	n/a	n/a	0	0	0
3563353	WORD	wordpools/wasnorm_wordpool_576.txt	LTP354	ltpFR2	19	18	HAMPER	682	n/a	n/a	0	0	0
3565902	WORD	wordpools/wasnorm_wordpool_576.txt	LTP354	ltpFR2	19	18	INMATE	738	n/a	n/a	0	0	0
3568601	WORD	wordpools/wasnorm_wordpool_576.txt	LTP354	ltpFR2	19	18	DAISY	435	n/a	n/a	0	0	0
3571417	WORD	wordpools/wasnorm_wordpool_576.txt	LTP354	ltpFR2	19	18	TRIBE	1505	n/a	n/a	0	0	0
3574100	WORD	wordpools/wasnorm_wordpool_576.txt	LTP354	ltpFR2	19	18	COUCH	386	n/a	n/a	0	0	0
3576631	WORD	wordpools/wasnorm_wordpool_576.txt	LTP354	ltpFR2	19	18	WRENCH	1625	n/a	n/a	0	0	0
3579196	WORD	wordpools/wasnorm_wordpool_576.txt	LTP354	ltpFR2	19	18	REBEL	1172	n/a	n/a	0	0	0
3581895	WORD	wordpools/wasnorm_wordpool_576.txt	LTP354	ltpFR2	19	18	COLLEGE	346	n/a	n/a	0	0	0
3584627	WORD	wordpools/wasnorm_wordpool_576.txt	LTP354	ltpFR2	19	18	BASEMENT	94	n/a	n/a	0	0	0
3587343	WORD	wordpools/wasnorm_wordpool_576.txt	LTP354	ltpFR2	19	18	GARLIC	624	n/a	n/a	0	0	0
3590076	WORD	wordpools/wasnorm_wordpool_576.txt	LTP354	ltpFR2	19	18	SWAMP	1416	n/a	n/a	0	0	0
3592540	WORD	wordpools/wasnorm_wordpool_576.txt	LTP354	ltpFR2	19	18	COBRA	336	n/a	n/a	0	0	0
3595073	WORD	wordpools/wasnorm_wordpool_576.txt	LTP354	ltpFR2	19	18	COURSE	390	n/a	n/a	0	0	0
3597805	WORD	wordpools/wasnorm_wordpool_576.txt	LTP354	ltpFR2	19	18	COSTUME	383	n/a	n/a	0	0	0
3600420	WORD	wordpools/wasnorm_wordpool_576.txt	LTP354	ltpFR2	19	18	ORCHID	982	n/a	n/a	0	0	0
3603185	WORD	wordpools/wasnorm_wordpool_576.txt	LTP354	ltpFR2	19	18	PALACE	1006	n/a	n/a	0	0	0
3605801	WORD	wordpools/wasnorm_wordpool_576.txt	LTP354	ltpFR2	19	18	PRINCESS	1125	n/a	n/a	0	0	0
3608383	WORD	wordpools/wasnorm_wordpool_576.txt	LTP354	ltpFR2	19	18	JURY	766	n/a	n/a	0	0	0
3611050	WORD	wordpools/wasnorm_wordpool_576.txt	LTP354	ltpFR2	19	18	LUGGAGE	847	n/a	n/a	0	0	0
3613697	WORD	wordpools/wasnorm_wordpool_576.txt	LTP354	ltpFR2	19	18	VALLEY	1545	n/a	n/a	0	0	0
3615314	START	n/a	LTP354	ltpFR2	19	n/a	n/a	n/a	27	n/a	n/a	n/a	n/a
3616212	DISTRACTOR	n/a	LTP354	ltpFR2	19	18	n/a	n/a	n/a	n/a	0	0	0
3616230	PROB	n/a	LTP354	ltpFR2	19	n/a	n/a	n/a	27	12	7	3	2
3618462	PROB	n/a	LTP354	ltpFR2	19	n/a	n/a	n/a	27	15	7	2	6
3622061	PROB	n/a	LTP354	ltpFR2	19	n/a	n/a	n/a	27	19	9	6	4
3623243	PROB	n/a	LTP354	ltpFR2	19	n/a	n/a	n/a	27	15	4	3	8
3625225	PROB	n/a	LTP354	ltpFR2	19	n/a	n/a	n/a	27	18	6	9	3
3626875	PROB	n/a	LTP354	ltpFR2	19	n/a	n/a	n/a	27	13	2	2	9
3628341	PROB	n/a	LTP354	ltpFR2	19	n/a	n/a	n/a	27	18	7	8	3
3630257	PROB	n/a	LTP354	ltpFR2	19	n/a	n/a	n/a	27	14	4	2	8
3634471	PROB	n/a	LTP354	ltpFR2	19	n/a	n/a	n/a	27	8	4	3	1
3636337	PROB	n/a	LTP354	ltpFR2	19	n/a	n/a	n/a	27	21	7	6	8
3637720	PROB	n/a	LTP354	ltpFR2	19	n/a	n/a	n/a	27	12	2	4	6
3638668	STOP	n/a	LTP354	ltpFR2	19	n/a	n/a	n/a	27	n/a	n/a	n/a	n/a
3641185	REC_START	n/a	LTP354	ltpFR2	19	18	n/a	n/a	n/a	n/a	0	0	0
3643549	REC_WORD	wordpools/wasnorm_wordpool_576.txt	LTP354	ltpFR2	19	18	LUGGAGE	847	n/a	n/a	0	0	0
3644679	REC_WORD	wordpools/wasnorm_wordpool_576.txt	LTP354	ltpFR2	19	18	PALACE	1006	n/a	n/a	0	0	0
3647428	REC_WORD	wordpools/wasnorm_wordpool_576.txt	LTP354	ltpFR2	19	18	PRINCESS	1125	n/a	n/a	0	0	0
3648377	REC_WORD	wordpools/wasnorm_wordpool_576.txt	LTP354	ltpFR2	19	18	ORCHID	982	n/a	n/a	0	0	0
3649438	REC_WORD	wordpools/wasnorm_wordpool_576.txt	LTP354	ltpFR2	19	18	FLOWER	584	n/a	n/a	0	0	0
3656969	REC_WORD	wordpools/wasnorm_wordpool_576.txt	LTP354	ltpFR2	19	18	CREVICE	405	n/a	n/a	0	0	0
3658851	REC_WORD	wordpools/wasnorm_wordpool_576.txt	LTP354	ltpFR2	19	18	GROUND	666	n/a	n/a	0	0	0
3664358	REC_WORD	wordpools/wasnorm_wordpool_576.txt	LTP354	ltpFR2	19	18	SWAMP	1416	n/a	n/a	0	0	0
3673601	REC_WORD	wordpools/wasnorm_wordpool_576.txt	LTP354	ltpFR2	19	18	CUSTARD	429	n/a	n/a	0	0	0
3696698	REC_WORD	wordpools/wasnorm_wordpool_576.txt	LTP354	ltpFR2	19	18	MEAT	883	n/a	n/a	0	0	0
3697309	REC_WORD	wordpools/wasnorm_wordpool_576.txt	LTP354	ltpFR2	19	18	BEEF	113	n/a	n/a	0	0	0
3704963	REC_WORD	wordpools/wasnorm_wordpool_576.txt	LTP354	ltpFR2	19	18	STALLION	1369	n/a	n/a	0	0	0
3731627	DISTRACTOR	n/a	LTP354	ltpFR2	19	19	n/a	n/a	n/a	n/a	0	0	0
3731627	START	n/a	LTP354	ltpFR2	19	n/a	n/a	n/a	28	n/a	n/a	n/a	n/a
3731644	PROB	n/a	LTP354	ltpFR2	19	n/a	n/a	n/a	28	15	5	1	9
3733243	PROB	n/a	LTP354	ltpFR2	19	n/a	n/a	n/a	28	13	1	5	7
3735409	PROB	n/a	LTP354	ltpFR2	19	n/a	n/a	n/a	28	22	8	6	8
3737558	PROB	n/a	LTP354	ltpFR2	19	n/a	n/a	n/a	28	20	3	9	8
3738891	PROB	n/a	LTP354	ltpFR2	19	n/a	n/a	n/a	28	16	3	5	8
3739957	PROB	n/a	LTP354	ltpFR2	19	n/a	n/a	n/a	28	10	2	2	6
3740956	PROB	n/a	LTP354	ltpFR2	19	n/a	n/a	n/a	28	23	7	8	6
3742472	PROB	n/a	LTP354	ltpFR2	19	n/a	n/a	n/a	28	12	3	2	7
3743505	PROB	n/a	LTP354	ltpFR2	19	n/a	n/a	n/a	28	22	7	6	9
3747055	PROB	n/a	LTP354	ltpFR2	19	n/a	n/a	n/a	28	15	4	8	3
3748353	PROB	n/a	LTP354	ltpFR2	19	n/a	n/a	n/a	28	18	9	7	2
3749652	PROB	n/a	LTP354	ltpFR2	19	n/a	n/a	n/a	28	10	2	1	7
3750619	PROB	n/a	LTP354	ltpFR2	19	n/a	n/a	n/a	28	15	6	3	6
3751685	PROB	n/a	LTP354	ltpFR2	19	n/a	n/a	n/a	28	9	3	2	4
3753684	PROB	n/a	LTP354	ltpFR2	19	n/a	n/a	n/a	28	21	7	5	9
3754944	STOP	n/a	LTP354	ltpFR2	19	n/a	n/a	n/a	28	n/a	n/a	n/a	n/a
3756816	WORD	wordpools/wasnorm_wordpool_576.txt	LTP354	ltpFR2	19	19	GLOVE	642	n/a	n/a	0	0	0
3759415	WORD	wordpools/wasnorm_wordpool_576.txt	LTP354	ltpFR2	19	19	SCISSORS	1250	n/a	n/a	0	0	0
3762213	WORD	wordpools/wasnorm_wordpool_576.txt	LTP354	ltpFR2	19	19	DORM	488	n/a	n/a	0	0	0
3764846	WORD	wordpools/wasnorm_wordpool_576.txt	LTP354	ltpFR2	19	19	SPHINX	1349	n/a	n/a	0	0	0
3767661	WORD	wordpools/wasnorm_wordpool_576.txt	LTP354	ltpFR2	19	19	HOOK	715	n/a	n/a	0	0	0
3770243	WORD	wordpools/wasnorm_wordpool_576.txt	LTP354	ltpFR2	19	19	COUNTRY	388	n/a	n/a	0	0	0
3772842	WORD	wordpools/wasnorm_wordpool_576.txt	LTP354	ltpFR2	19	19	SOFTBALL	1343	n/a	n/a	0	0	0
3775541	WORD	wordpools/wasnorm_wordpool_576.txt	LTP354	ltpFR2	19	19	SHOULDER	1294	n/a	n/a	0	0	0
3778006	WORD	wordpools/wasnorm_wordpool_576.txt	LTP354	ltpFR2	19	19	CIGAR	308	n/a	n/a	0	0	0
3780555	WORD	wordpools/wasnorm_wordpool_576.txt	LTP354	ltpFR2	19	19	GANGSTER	620	n/a	n/a	0	0	0
3783337	WORD	wordpools/wasnorm_wordpool_576.txt	LTP354	ltpFR2	19	19	NOTEBOOK	959	n/a	n/a	0	0	0
3785836	WORD	wordpools/wasnorm_wordpool_576.txt	LTP354	ltpFR2	19	19	REPORT	1184	n/a	n/a	0	0	0
3788485	WORD	wordpools/wasnorm_wordpool_576.txt	LTP354	ltpFR2	19	19	COLONEL	348	n/a	n/a	0	0	0
3790967	WORD	wordpools/wasnorm_wordpool_576.txt	LTP354	ltpFR2	19	19	CROSS	413	n/a	n/a	0	0	0
3793682	WORD	wordpools/wasnorm_wordpool_576.txt	LTP354	ltpFR2	19	19	PUDDING	1139	n/a	n/a	0	0	0
3796149	WORD	wordpools/wasnorm_wordpool_576.txt	LTP354	ltpFR2	19	19	TEMPLE	1448	n/a	n/a	0	0	0
3798730	WORD	wordpools/wasnorm_wordpool_576.txt	LTP354	ltpFR2	19	19	SHARK	1275	n/a	n/a	0	0	0
3801529	WORD	wordpools/wasnorm_wordpool_576.txt	LTP354	ltpFR2	19	19	CONCERT	360	n/a	n/a	0	0	0
3804294	WORD	wordpools/wasnorm_wordpool_576.txt	LTP354	ltpFR2	19	19	BINDER	127	n/a	n/a	0	0	0
3806860	WORD	wordpools/wasnorm_wordpool_576.txt	LTP354	ltpFR2	19	19	NURSE	963	n/a	n/a	0	0	0
3809292	WORD	wordpools/wasnorm_wordpool_576.txt	LTP354	ltpFR2	19	19	CRAYON	401	n/a	n/a	0	0	0
3811824	WORD	wordpools/wasnorm_wordpool_576.txt	LTP354	ltpFR2	19	19	PLAID	1080	n/a	n/a	0	0	0
3814540	WORD	wordpools/wasnorm_wordpool_576.txt	LTP354	ltpFR2	19	19	HANDBAG	684	n/a	n/a	0	0	0
3817140	WORD	wordpools/wasnorm_wordpool_576.txt	LTP354	ltpFR2	19	19	KNAPSACK	783	n/a	n/a	0	0	0
3818755	START	n/a	LTP354	ltpFR2	19	n/a	n/a	n/a	29	n/a	n/a	n/a	n/a
3819910	DISTRACTOR	n/a	LTP354	ltpFR2	19	19	n/a	n/a	n/a	n/a	0	0	0
3819921	PROB	n/a	LTP354	ltpFR2	19	n/a	n/a	n/a	29	16	8	4	4
3821553	PROB	n/a	LTP354	ltpFR2	19	n/a	n/a	n/a	29	15	6	4	5
3822719	PROB	n/a	LTP354	ltpFR2	19	n/a	n/a	n/a	29	8	2	3	3
3824053	PROB	n/a	LTP354	ltpFR2	19	n/a	n/a	n/a	29	10	1	8	1
3824968	PROB	n/a	LTP354	ltpFR2	19	n/a	n/a	n/a	29	16	9	4	3
3827201	PROB	n/a	LTP354	ltpFR2	19	n/a	n/a	n/a	29	17	4	5	8
3829067	PROB	n/a	LTP354	ltpFR2	19	n/a	n/a	n/a	29	12	1	7	4
3830616	PROB	n/a	LTP354	ltpFR2	19	n/a	n/a	n/a	29	16	9	5	2
3832915	PROB	n/a	LTP354	ltpFR2	19	n/a	n/a	n/a	29	13	3	9	1
3833964	PROB	n/a	LTP354	ltpFR2	19	n/a	n/a	n/a	29	16	5	3	8
3836563	PROB	n/a	LTP354	ltpFR2	19	n/a	n/a	n/a	29	15	3	8	4
3837729	PROB	n/a	LTP354	ltpFR2	19	n/a	n/a	n/a	29	18	8	8	2
3838929	PROB	n/a	LTP354	ltpFR2	19	n/a	n/a	n/a	29	20	9	4	7
3842755	STOP	n/a	LTP354	ltpFR2	19	n/a	n/a	n/a	29	n/a	n/a	n/a	n/a
3844626	REC_START	n/a	LTP354	ltpFR2	19	19	n/a	n/a	n/a	n/a	0	0	0
3845544	REC_WORD	wordpools/wasnorm_wordpool_576.txt	LTP354	ltpFR2	19	19	PLAID	1080	n/a	n/a	0	0	0
3846484	REC_WORD	wordpools/wasnorm_wordpool_576.txt	LTP354	ltpFR2	19	19	KNAPSACK	783	n/a	n/a	0	0	0
3847757	REC_WORD	wordpools/wasnorm_wordpool_576.txt	LTP354	ltpFR2	19	19	SHARK	1275	n/a	n/a	0	0	0
3848379	REC_WORD	wordpools/wasnorm_wordpool_576.txt	LTP354	ltpFR2	19	19	CONCERT	360	n/a	n/a	0	0	0
3849837	REC_WORD	wordpools/wasnorm_wordpool_576.txt	LTP354	ltpFR2	19	19	TEMPLE	1448	n/a	n/a	0	0	0
3851513	REC_WORD	wordpools/wasnorm_wordpool_576.txt	LTP354	ltpFR2	19	19	BINDER	127	n/a	n/a	0	0	0
3852429	REC_WORD	wordpools/wasnorm_wordpool_576.txt	LTP354	ltpFR2	19	19	NOTEBOOK	959	n/a	n/a	0	0	0
3853328	REC_WORD	wordpools/wasnorm_wordpool_576.txt	LTP354	ltpFR2	19	19	CRAYON	401	n/a	n/a	0	0	0
3855006	REC_WORD	wordpools/wasnorm_wordpool_576.txt	LTP354	ltpFR2	19	19	SHOULDER	1294	n/a	n/a	0	0	0
3857031	REC_WORD	wordpools/wasnorm_wordpool_576.txt	LTP354	ltpFR2	19	19	GANGSTER	620	n/a	n/a	0	0	0
3866029	REC_WORD	wordpools/wasnorm_wordpool_576.txt	LTP354	ltpFR2	19	19	SOFTBALL	1343	n/a	n/a	0	0	0
3867029	REC_WORD_VV	wordpools/wasnorm_wordpool_576.txt	LTP354	ltpFR2	19	19	<>	-1	n/a	n/a	0	0	0
3871853	REC_WORD	wordpools/wasnorm_wordpool_576.txt	LTP354	ltpFR2	19	19	JUDGE	761	n/a	n/a	0	0	0
3884931	REC_WORD	wordpools/wasnorm_wordpool_576.txt	LTP354	ltpFR2	19	19	KNAPSACK	783	n/a	n/a	0	0	0
3892959	REC_WORD	wordpools/wasnorm_wordpool_576.txt	LTP354	ltpFR2	19	19	INMATE	738	n/a	n/a	0	0	0
3893959	REC_WORD_VV	wordpools/wasnorm_wordpool_576.txt	LTP354	ltpFR2	19	19	<>	-1	n/a	n/a	0	0	0
3904599	REC_WORD	wordpools/wasnorm_wordpool_576.txt	LTP354	ltpFR2	19	19	SPHINX	1349	n/a	n/a	0	0	0
3913592	REC_WORD	wordpools/wasnorm_wordpool_576.txt	LTP354	ltpFR2	19	19	DORM	488	n/a	n/a	0	0	0
3914231	REC_WORD	wordpools/wasnorm_wordpool_576.txt	LTP354	ltpFR2	19	19	GLOVE	642	n/a	n/a	0	0	0
3914518	REC_WORD	wordpools/wasnorm_wordpool_576.txt	LTP354	ltpFR2	19	19	SCISSORS	1250	n/a	n/a	0	0	0
3935053	DISTRACTOR	n/a	LTP354	ltpFR2	19	20	n/a	n/a	n/a	n/a	0	0	0
3935053	START	n/a	LTP354	ltpFR2	19	n/a	n/a	n/a	30	n/a	n/a	n/a	n/a
3935069	PROB	n/a	LTP354	ltpFR2	19	n/a	n/a	n/a	30	5	1	2	2
3936301	PROB	n/a	LTP354	ltpFR2	19	n/a	n/a	n/a	30	19	3	8	8
3937984	PROB	n/a	LTP354	ltpFR2	19	n/a	n/a	n/a	30	15	9	1	5
3938933	PROB	n/a	LTP354	ltpFR2	19	n/a	n/a	n/a	30	10	2	6	2
3939983	PROB	n/a	LTP354	ltpFR2	19	n/a	n/a	n/a	30	15	7	7	1
3941016	PROB	n/a	LTP354	ltpFR2	19	n/a	n/a	n/a	30	15	4	4	7
3942682	PROB	n/a	LTP354	ltpFR2	19	n/a	n/a	n/a	30	14	2	4	8
3943798	PROB	n/a	LTP354	ltpFR2	19	n/a	n/a	n/a	30	23	5	9	9
3945031	PROB	n/a	LTP354	ltpFR2	19	n/a	n/a	n/a	30	14	9	3	2
3946597	PROB	n/a	LTP354	ltpFR2	19	n/a	n/a	n/a	30	19	2	8	9
3947713	PROB	n/a	LTP354	ltpFR2	19	n/a	n/a	n/a	30	21	9	9	3
3948746	PROB	n/a	LTP354	ltpFR2	19	n/a	n/a	n/a	30	15	1	9	5
3949695	PROB	n/a	LTP354	ltpFR2	19	n/a	n/a	n/a	30	22	4	9	9
3950978	PROB	n/a	LTP354	ltpFR2	19	n/a	n/a	n/a	30	17	6	7	4
3954693	PROB	n/a	LTP354	ltpFR2	19	n/a	n/a	n/a	30	16	7	3	6
3955892	PROB	n/a	LTP354	ltpFR2	19	n/a	n/a	n/a	30	8	1	1	6
3956775	PROB	n/a	LTP354	ltpFR2	19	n/a	n/a	n/a	30	16	4	9	3
3958382	STOP	n/a	LTP354	ltpFR2	19	n/a	n/a	n/a	30	n/a	n/a	n/a	n/a
3960158	WORD	wordpools/wasnorm_wordpool_576.txt	LTP354	ltpFR2	19	20	PEANUT	1032	n/a	n/a	0	0	0
3962706	WORD	wordpools/wasnorm_wordpool_576.txt	LTP354	ltpFR2	19	20	PARTNER	1017	n/a	n/a	0	0	0
3965238	WORD	wordpools/wasnorm_wordpool_576.txt	LTP354	ltpFR2	19	20	STICKER	1382	n/a	n/a	0	0	0
3968020	WORD	wordpools/wasnorm_wordpool_576.txt	LTP354	ltpFR2	19	20	BUBBLE	183	n/a	n/a	0	0	0
3970619	WORD	wordpools/wasnorm_wordpool_576.txt	LTP354	ltpFR2	19	20	BACON	67	n/a	n/a	0	0	0
3973168	WORD	wordpools/wasnorm_wordpool_576.txt	LTP354	ltpFR2	19	20	LODGE	839	n/a	n/a	0	0	0
3975900	WORD	wordpools/wasnorm_wordpool_576.txt	LTP354	ltpFR2	19	20	ISLAND	745	n/a	n/a	0	0	0
3978465	WORD	wordpools/wasnorm_wordpool_576.txt	LTP354	ltpFR2	19	20	OMELET	976	n/a	n/a	0	0	0
3980981	WORD	wordpools/wasnorm_wordpool_576.txt	LTP354	ltpFR2	19	20	OINTMENT	974	n/a	n/a	0	0	0
3983663	WORD	wordpools/wasnorm_wordpool_576.txt	LTP354	ltpFR2	19	20	MAPLE	866	n/a	n/a	0	0	0
3986262	WORD	wordpools/wasnorm_wordpool_576.txt	LTP354	ltpFR2	19	20	LACE	792	n/a	n/a	0	0	0
3988744	WORD	wordpools/wasnorm_wordpool_576.txt	LTP354	ltpFR2	19	20	ARM	38	n/a	n/a	0	0	0
3991193	WORD	wordpools/wasnorm_wordpool_576.txt	LTP354	ltpFR2	19	20	CONVICT	371	n/a	n/a	0	0	0
3993692	WORD	wordpools/wasnorm_wordpool_576.txt	LTP354	ltpFR2	19	20	DRUG	501	n/a	n/a	0	0	0
3996291	WORD	wordpools/wasnorm_wordpool_576.txt	LTP354	ltpFR2	19	20	COMPASS	358	n/a	n/a	0	0	0
3998956	WORD	wordpools/wasnorm_wordpool_576.txt	LTP354	ltpFR2	19	20	PASTA	1021	n/a	n/a	0	0	0
4001738	WORD	wordpools/wasnorm_wordpool_576.txt	LTP354	ltpFR2	19	20	SUNRISE	1407	n/a	n/a	0	0	0
4004387	WORD	wordpools/wasnorm_wordpool_576.txt	LTP354	ltpFR2	19	20	FLIPPER	580	n/a	n/a	0	0	0
4007103	WORD	wordpools/wasnorm_wordpool_576.txt	LTP354	ltpFR2	19	20	COD	340	n/a	n/a	0	0	0
4009785	WORD	wordpools/wasnorm_wordpool_576.txt	LTP354	ltpFR2	19	20	MUFFIN	929	n/a	n/a	0	0	0
4012467	WORD	wordpools/wasnorm_wordpool_576.txt	LTP354	ltpFR2	19	20	QUEEN	1149	n/a	n/a	0	0	0
4015232	WORD	wordpools/wasnorm_wordpool_576.txt	LTP354	ltpFR2	19	20	DONOR	485	n/a	n/a	0	0	0
4017947	WORD	wordpools/wasnorm_wordpool_576.txt	LTP354	ltpFR2	19	20	NIGHTGOWN	953	n/a	n/a	0	0	0
4020613	WORD	wordpools/wasnorm_wordpool_576.txt	LTP354	ltpFR2	19	20	MATTRESS	879	n/a	n/a	0	0	0
4022229	START	n/a	LTP354	ltpFR2	19	n/a	n/a	n/a	31	n/a	n/a	n/a	n/a
4023317	DISTRACTOR	n/a	LTP354	ltpFR2	19	20	n/a	n/a	n/a	n/a	0	0	0
4023328	PROB	n/a	LTP354	ltpFR2	19	n/a	n/a	n/a	31	12	1	5	6
4025095	PROB	n/a	LTP354	ltpFR2	19	n/a	n/a	n/a	31	21	7	5	9
4026327	PROB	n/a	LTP354	ltpFR2	19	n/a	n/a	n/a	31	22	5	8	9
4028776	PROB	n/a	LTP354	ltpFR2	19	n/a	n/a	n/a	31	14	5	4	5
4029876	PROB	n/a	LTP354	ltpFR2	19	n/a	n/a	n/a	31	18	6	7	5
4031358	PROB	n/a	LTP354	ltpFR2	19	n/a	n/a	n/a	31	10	4	1	5
4032391	PROB	n/a	LTP354	ltpFR2	19	n/a	n/a	n/a	31	18	1	8	9
4033574	PROB	n/a	LTP354	ltpFR2	19	n/a	n/a	n/a	31	13	3	9	1
4034557	PROB	n/a	LTP354	ltpFR2	19	n/a	n/a	n/a	31	18	4	5	9
4035673	PROB	n/a	LTP354	ltpFR2	19	n/a	n/a	n/a	31	20	5	8	7
4037505	PROB	n/a	LTP354	ltpFR2	19	n/a	n/a	n/a	31	14	4	7	3
4038638	PROB	n/a	LTP354	ltpFR2	19	n/a	n/a	n/a	31	23	9	8	6
4040487	PROB	n/a	LTP354	ltpFR2	19	n/a	n/a	n/a	31	13	1	6	6
4041487	PROB	n/a	LTP354	ltpFR2	19	n/a	n/a	n/a	31	11	5	2	4
4043586	PROB	n/a	LTP354	ltpFR2	19	n/a	n/a	n/a	31	16	5	3	8
4046229	STOP	n/a	LTP354	ltpFR2	19	n/a	n/a	n/a	31	n/a	n/a	n/a	n/a
4048135	REC_START	n/a	LTP354	ltpFR2	19	20	n/a	n/a	n/a	n/a	0	0	0
4049312	REC_WORD	wordpools/wasnorm_wordpool_576.txt	LTP354	ltpFR2	19	20	QUEEN	1149	n/a	n/a	0	0	0
4050443	REC_WORD	wordpools/wasnorm_wordpool_576.txt	LTP354	ltpFR2	19	20	MATTRESS	879	n/a	n/a	0	0	0
4051664	REC_WORD	wordpools/wasnorm_wordpool_576.txt	LTP354	ltpFR2	19	20	NIGHTGOWN	953	n/a	n/a	0	0	0
4052790	REC_WORD	wordpools/wasnorm_wordpool_576.txt	LTP354	ltpFR2	19	20	DONOR	485	n/a	n/a	0	0	0
4054043	REC_WORD	wordpools/wasnorm_wordpool_576.txt	LTP354	ltpFR2	19	20	ARM	38	n/a	n/a	0	0	0
4057377	REC_WORD	wordpools/wasnorm_wordpool_576.txt	LTP354	ltpFR2	19	20	CONVICT	371	n/a	n/a	0	0	0
4059884	REC_WORD	wordpools/wasnorm_wordpool_576.txt	LTP354	ltpFR2	19	20	SUNRISE	1407	n/a	n/a	0	0	0
4062038	REC_WORD	wordpools/wasnorm_wordpool_576.txt	LTP354	ltpFR2	19	20	ISLAND	745	n/a	n/a	0	0	0
4063282	REC_WORD	wordpools/wasnorm_wordpool_576.txt	LTP354	ltpFR2	19	20	DRUG	501	n/a	n/a	0	0	0
4066540	REC_WORD	wordpools/wasnorm_wordpool_576.txt	LTP354	ltpFR2	19	20	THIEF	1456	n/a	n/a	0	0	0
