mstime	trial_type	stim_file	subject	experiment	session	trial	task	item_name	item_num	recog_conf	resp	color_b	color_g	color_r	case	font
0	SESS_START	n/a	LTP192	ltpFR	4	n/a	n/a	n/a	n/a	1	n/a	n/a	n/a	n/a	n/a	n/a
53473	WORD	wordpools/wasnorm_wordpool_less_exclusions.txt	LTP192	ltpFR	4	1	0	SCISSORS	1250	n/a	1	1	0.412841796875	0.57763671875	lower	../fonts/zerothre.ttf
57653	WORD	wordpools/wasnorm_wordpool_less_exclusions.txt	LTP192	ltpFR	4	1	0	HAMMER	680	n/a	0	1	0.412841796875	0.57763671875	lower	../fonts/zerothre.ttf
61618	WORD	wordpools/wasnorm_wordpool_less_exclusions.txt	LTP192	ltpFR	4	1	1	DESK	452	n/a	0	0	0.5869140625	0.422607421875	upper	../fonts/amplitud.ttf
65550	WORD	wordpools/wasnorm_wordpool_less_exclusions.txt	LTP192	ltpFR	4	1	1	BARK	87	n/a	0	0	0.5869140625	0.422607421875	upper	../fonts/amplitud.ttf
69498	WORD	wordpools/wasnorm_wordpool_less_exclusions.txt	LTP192	ltpFR	4	1	1	THUMB	1462	n/a	0	0	0.5869140625	0.422607421875	upper	../fonts/amplitud.ttf
73413	WORD	wordpools/wasnorm_wordpool_less_exclusions.txt	LTP192	ltpFR	4	1	0	MANAGER	863	n/a	1	1	0.412841796875	0.57763671875	lower	../fonts/zerothre.ttf
77528	WORD	wordpools/wasnorm_wordpool_less_exclusions.txt	LTP192	ltpFR	4	1	0	REFEREE	1178	n/a	1	1	0.412841796875	0.57763671875	lower	../fonts/zerothre.ttf
81376	WORD	wordpools/wasnorm_wordpool_less_exclusions.txt	LTP192	ltpFR	4	1	0	DRIVER	499	n/a	1	1	0.412841796875	0.57763671875	lower	../fonts/zerothre.ttf
85241	WORD	wordpools/wasnorm_wordpool_less_exclusions.txt	LTP192	ltpFR	4	1	0	TRUCK	1512	n/a	1	1	0.412841796875	0.57763671875	lower	../fonts/zerothre.ttf
89306	WORD	wordpools/wasnorm_wordpool_less_exclusions.txt	LTP192	ltpFR	4	1	1	PORT	1110	n/a	0	0	0.5869140625	0.422607421875	upper	../fonts/amplitud.ttf
93221	WORD	wordpools/wasnorm_wordpool_less_exclusions.txt	LTP192	ltpFR	4	1	1	MARINE	869	n/a	1	0	0.5869140625	0.422607421875	upper	../fonts/amplitud.ttf
97085	WORD	wordpools/wasnorm_wordpool_less_exclusions.txt	LTP192	ltpFR	4	1	1	FIELD	562	n/a	0	0	0.5869140625	0.422607421875	upper	../fonts/amplitud.ttf
101084	WORD	wordpools/wasnorm_wordpool_less_exclusions.txt	LTP192	ltpFR	4	1	1	WAITRESS	1581	n/a	1	0	0.5869140625	0.422607421875	upper	../fonts/amplitud.ttf
105300	WORD	wordpools/wasnorm_wordpool_less_exclusions.txt	LTP192	ltpFR	4	1	1	TURTLE	1522	n/a	1	0	0.5869140625	0.422607421875	upper	../fonts/amplitud.ttf
109499	WORD	wordpools/wasnorm_wordpool_less_exclusions.txt	LTP192	ltpFR	4	1	0	SAND	1230	n/a	0	1	0.412841796875	0.57763671875	lower	../fonts/zerothre.ttf
113631	WORD	wordpools/wasnorm_wordpool_less_exclusions.txt	LTP192	ltpFR	4	1	0	FINGER	567	n/a	0	1	0.412841796875	0.57763671875	lower	../fonts/zerothre.ttf
119320	REC_START	n/a	LTP192	ltpFR	4	1	n/a	n/a	n/a	n/a	n/a	n/a	n/a	n/a	n/a	n/a
119858	REC_WORD	wordpools/wasnorm_wordpool_less_exclusions.txt	LTP192	ltpFR	4	1	1	WAITRESS	1581	n/a	1	n/a	n/a	n/a	n/a	n/a
120656	REC_WORD	wordpools/wasnorm_wordpool_less_exclusions.txt	LTP192	ltpFR	4	1	1	TURTLE	1522	n/a	1	n/a	n/a	n/a	n/a	n/a
121265	REC_WORD	wordpools/wasnorm_wordpool_less_exclusions.txt	LTP192	ltpFR	4	1	0	SAND	1230	n/a	0	n/a	n/a	n/a	n/a	n/a
122093	REC_WORD	wordpools/wasnorm_wordpool_less_exclusions.txt	LTP192	ltpFR	4	1	0	FINGER	567	n/a	0	n/a	n/a	n/a	n/a	n/a
123116	REC_WORD	wordpools/wasnorm_wordpool_less_exclusions.txt	LTP192	ltpFR	4	1	1	THUMB	1462	n/a	0	n/a	n/a	n/a	n/a	n/a
123944	REC_WORD	wordpools/wasnorm_wordpool_less_exclusions.txt	LTP192	ltpFR	4	1	0	SCISSORS	1250	n/a	1	n/a	n/a	n/a	n/a	n/a
124717	REC_WORD	wordpools/wasnorm_wordpool_less_exclusions.txt	LTP192	ltpFR	4	1	0	HAMMER	680	n/a	0	n/a	n/a	n/a	n/a	n/a
125945	REC_WORD	wordpools/wasnorm_wordpool_less_exclusions.txt	LTP192	ltpFR	4	1	1	DESK	452	n/a	0	n/a	n/a	n/a	n/a	n/a
128579	REC_WORD	wordpools/wasnorm_wordpool_less_exclusions.txt	LTP192	ltpFR	4	1	1	BARK	87	n/a	0	n/a	n/a	n/a	n/a	n/a
130285	REC_WORD	wordpools/wasnorm_wordpool_less_exclusions.txt	LTP192	ltpFR	4	1	1	MARINE	869	n/a	1	n/a	n/a	n/a	n/a	n/a
131198	REC_WORD	wordpools/wasnorm_wordpool_less_exclusions.txt	LTP192	ltpFR	4	1	0	REFEREE	1178	n/a	1	n/a	n/a	n/a	n/a	n/a
132031	REC_WORD	wordpools/wasnorm_wordpool_less_exclusions.txt	LTP192	ltpFR	4	1	0	DRIVER	499	n/a	1	n/a	n/a	n/a	n/a	n/a
137428	REC_WORD	wordpools/wasnorm_wordpool_less_exclusions.txt	LTP192	ltpFR	4	1	1	FIELD	562	n/a	0	n/a	n/a	n/a	n/a	n/a
163185	REC_WORD	wordpools/wasnorm_wordpool_less_exclusions.txt	LTP192	ltpFR	4	1	0	MANAGER	863	n/a	1	n/a	n/a	n/a	n/a	n/a
198584	WORD	wordpools/wasnorm_wordpool_less_exclusions.txt	LTP192	ltpFR	4	2	1	FOLDER	588	n/a	0	0	0.5869140625	0.422607421875	upper	../fonts/amplitud.ttf
202549	WORD	wordpools/wasnorm_wordpool_less_exclusions.txt	LTP192	ltpFR	4	2	1	JOURNAL	760	n/a	0	0	0.5869140625	0.422607421875	upper	../fonts/amplitud.ttf
206698	WORD	wordpools/wasnorm_wordpool_less_exclusions.txt	LTP192	ltpFR	4	2	1	WALL	1582	n/a	0	0	0.5869140625	0.422607421875	upper	../fonts/amplitud.ttf
210884	WORD	wordpools/wasnorm_wordpool_less_exclusions.txt	LTP192	ltpFR	4	2	1	LID	817	n/a	0	0	0.5869140625	0.422607421875	upper	../fonts/amplitud.ttf
214863	WORD	wordpools/wasnorm_wordpool_less_exclusions.txt	LTP192	ltpFR	4	2	1	TRENCH	1503	n/a	0	0	0.5869140625	0.422607421875	upper	../fonts/amplitud.ttf
218812	WORD	wordpools/wasnorm_wordpool_less_exclusions.txt	LTP192	ltpFR	4	2	1	BEARD	107	n/a	0	0	0.5869140625	0.422607421875	upper	../fonts/amplitud.ttf
222811	WORD	wordpools/wasnorm_wordpool_less_exclusions.txt	LTP192	ltpFR	4	2	0	WINNER	1615	n/a	1	1	0.412841796875	0.57763671875	lower	../fonts/zerothre.ttf
226809	WORD	wordpools/wasnorm_wordpool_less_exclusions.txt	LTP192	ltpFR	4	2	0	STAIRS	1367	n/a	1	1	0.412841796875	0.57763671875	lower	../fonts/zerothre.ttf
230956	WORD	wordpools/wasnorm_wordpool_less_exclusions.txt	LTP192	ltpFR	4	2	0	BISON	131	n/a	1	1	0.412841796875	0.57763671875	lower	../fonts/zerothre.ttf
235022	WORD	wordpools/wasnorm_wordpool_less_exclusions.txt	LTP192	ltpFR	4	2	0	SWORD	1423	n/a	1	1	0.412841796875	0.57763671875	lower	../fonts/zerothre.ttf
238887	WORD	wordpools/wasnorm_wordpool_less_exclusions.txt	LTP192	ltpFR	4	2	1	GYMNAST	675	n/a	1	0	0.5869140625	0.422607421875	upper	../fonts/amplitud.ttf
242734	WORD	wordpools/wasnorm_wordpool_less_exclusions.txt	LTP192	ltpFR	4	2	1	SATURN	1236	n/a	1	0	0.5869140625	0.422607421875	upper	../fonts/amplitud.ttf
246673	WORD	wordpools/wasnorm_wordpool_less_exclusions.txt	LTP192	ltpFR	4	2	0	ZOO	1637	n/a	1	1	0.412841796875	0.57763671875	lower	../fonts/zerothre.ttf
250866	WORD	wordpools/wasnorm_wordpool_less_exclusions.txt	LTP192	ltpFR	4	2	0	CARDINAL	244	n/a	0	1	0.412841796875	0.57763671875	lower	../fonts/zerothre.ttf
254898	WORD	wordpools/wasnorm_wordpool_less_exclusions.txt	LTP192	ltpFR	4	2	0	BLUEJAY	141	n/a	0	1	0.412841796875	0.57763671875	lower	../fonts/zerothre.ttf
258896	WORD	wordpools/wasnorm_wordpool_less_exclusions.txt	LTP192	ltpFR	4	2	0	CLOWN	330	n/a	1	1	0.412841796875	0.57763671875	lower	../fonts/zerothre.ttf
264618	REC_START	n/a	LTP192	ltpFR	4	2	n/a	n/a	n/a	n/a	n/a	n/a	n/a	n/a	n/a	n/a
265211	REC_WORD	wordpools/wasnorm_wordpool_less_exclusions.txt	LTP192	ltpFR	4	2	0	CARDINAL	244	n/a	0	n/a	n/a	n/a	n/a	n/a
266009	REC_WORD	wordpools/wasnorm_wordpool_less_exclusions.txt	LTP192	ltpFR	4	2	0	BLUEJAY	141	n/a	0	n/a	n/a	n/a	n/a	n/a
267017	REC_WORD	wordpools/wasnorm_wordpool_less_exclusions.txt	LTP192	ltpFR	4	2	n/a	CROWN	415	n/a	n/a	n/a	n/a	n/a	n/a	n/a
269621	REC_WORD	wordpools/wasnorm_wordpool_less_exclusions.txt	LTP192	ltpFR	4	2	0	WINNER	1615	n/a	1	n/a	n/a	n/a	n/a	n/a
270769	REC_WORD	wordpools/wasnorm_wordpool_less_exclusions.txt	LTP192	ltpFR	4	2	0	BISON	131	n/a	1	n/a	n/a	n/a	n/a	n/a
276211	REC_WORD	wordpools/wasnorm_wordpool_less_exclusions.txt	LTP192	ltpFR	4	2	1	GYMNAST	675	n/a	1	n/a	n/a	n/a	n/a	n/a
299354	REC_WORD	wordpools/wasnorm_wordpool_less_exclusions.txt	LTP192	ltpFR	4	2	0	SWORD	1423	n/a	1	n/a	n/a	n/a	n/a	n/a
300685	REC_WORD	wordpools/wasnorm_wordpool_less_exclusions.txt	LTP192	ltpFR	4	2	0	STAIRS	1367	n/a	1	n/a	n/a	n/a	n/a	n/a
347395	WORD	wordpools/wasnorm_wordpool_less_exclusions.txt	LTP192	ltpFR	4	3	-1	PIG	1064	n/a	-1	1	1.0	1.0	upper	../fonts/Verdana.ttf
351360	WORD	wordpools/wasnorm_wordpool_less_exclusions.txt	LTP192	ltpFR	4	3	-1	TURKEY	1520	n/a	-1	1	1.0	1.0	upper	../fonts/Verdana.ttf
355459	WORD	wordpools/wasnorm_wordpool_less_exclusions.txt	LTP192	ltpFR	4	3	-1	MISSILE	900	n/a	-1	1	1.0	1.0	upper	../fonts/Verdana.ttf
359457	WORD	wordpools/wasnorm_wordpool_less_exclusions.txt	LTP192	ltpFR	4	3	-1	CHIMNEY	301	n/a	-1	1	1.0	1.0	upper	../fonts/Verdana.ttf
363374	WORD	wordpools/wasnorm_wordpool_less_exclusions.txt	LTP192	ltpFR	4	3	-1	SPIT	1354	n/a	-1	1	1.0	1.0	upper	../fonts/Verdana.ttf
367354	WORD	wordpools/wasnorm_wordpool_less_exclusions.txt	LTP192	ltpFR	4	3	-1	COB	334	n/a	-1	1	1.0	1.0	upper	../fonts/Verdana.ttf
371453	WORD	wordpools/wasnorm_wordpool_less_exclusions.txt	LTP192	ltpFR	4	3	-1	CROWN	415	n/a	-1	1	1.0	1.0	upper	../fonts/Verdana.ttf
375642	WORD	wordpools/wasnorm_wordpool_less_exclusions.txt	LTP192	ltpFR	4	3	-1	THRONE	1461	n/a	-1	1	1.0	1.0	upper	../fonts/Verdana.ttf
379835	WORD	wordpools/wasnorm_wordpool_less_exclusions.txt	LTP192	ltpFR	4	3	-1	PUMP	1141	n/a	-1	1	1.0	1.0	upper	../fonts/Verdana.ttf
383732	WORD	wordpools/wasnorm_wordpool_less_exclusions.txt	LTP192	ltpFR	4	3	-1	ASH	44	n/a	-1	1	1.0	1.0	upper	../fonts/Verdana.ttf
387580	WORD	wordpools/wasnorm_wordpool_less_exclusions.txt	LTP192	ltpFR	4	3	-1	HOUSE	725	n/a	-1	1	1.0	1.0	upper	../fonts/Verdana.ttf
391481	WORD	wordpools/wasnorm_wordpool_less_exclusions.txt	LTP192	ltpFR	4	3	-1	WELL	1600	n/a	-1	1	1.0	1.0	upper	../fonts/Verdana.ttf
395393	WORD	wordpools/wasnorm_wordpool_less_exclusions.txt	LTP192	ltpFR	4	3	-1	WATER	1594	n/a	-1	1	1.0	1.0	upper	../fonts/Verdana.ttf
399241	WORD	wordpools/wasnorm_wordpool_less_exclusions.txt	LTP192	ltpFR	4	3	-1	OCEAN	970	n/a	-1	1	1.0	1.0	upper	../fonts/Verdana.ttf
403172	WORD	wordpools/wasnorm_wordpool_less_exclusions.txt	LTP192	ltpFR	4	3	-1	WAREHOUSE	1588	n/a	-1	1	1.0	1.0	upper	../fonts/Verdana.ttf
407254	WORD	wordpools/wasnorm_wordpool_less_exclusions.txt	LTP192	ltpFR	4	3	-1	WHIP	1604	n/a	-1	1	1.0	1.0	upper	../fonts/Verdana.ttf
413110	REC_START	n/a	LTP192	ltpFR	4	3	n/a	n/a	n/a	n/a	n/a	n/a	n/a	n/a	n/a	n/a
413913	REC_WORD	wordpools/wasnorm_wordpool_less_exclusions.txt	LTP192	ltpFR	4	3	-1	HOUSE	725	n/a	-1	n/a	n/a	n/a	n/a	n/a
414761	REC_WORD	wordpools/wasnorm_wordpool_less_exclusions.txt	LTP192	ltpFR	4	3	-1	WAREHOUSE	1588	n/a	-1	n/a	n/a	n/a	n/a	n/a
415734	REC_WORD	wordpools/wasnorm_wordpool_less_exclusions.txt	LTP192	ltpFR	4	3	-1	WHIP	1604	n/a	-1	n/a	n/a	n/a	n/a	n/a
416647	REC_WORD	wordpools/wasnorm_wordpool_less_exclusions.txt	LTP192	ltpFR	4	3	-1	COB	334	n/a	-1	n/a	n/a	n/a	n/a	n/a
417619	REC_WORD	wordpools/wasnorm_wordpool_less_exclusions.txt	LTP192	ltpFR	4	3	-1	WATER	1594	n/a	-1	n/a	n/a	n/a	n/a	n/a
418742	REC_WORD	wordpools/wasnorm_wordpool_less_exclusions.txt	LTP192	ltpFR	4	3	-1	OCEAN	970	n/a	-1	n/a	n/a	n/a	n/a	n/a
420703	REC_WORD	wordpools/wasnorm_wordpool_less_exclusions.txt	LTP192	ltpFR	4	3	-1	PIG	1064	n/a	-1	n/a	n/a	n/a	n/a	n/a
421715	REC_WORD	wordpools/wasnorm_wordpool_less_exclusions.txt	LTP192	ltpFR	4	3	-1	TURKEY	1520	n/a	-1	n/a	n/a	n/a	n/a	n/a
424888	REC_WORD	wordpools/wasnorm_wordpool_less_exclusions.txt	LTP192	ltpFR	4	3	-1	MISSILE	900	n/a	-1	n/a	n/a	n/a	n/a	n/a
492443	WORD	wordpools/wasnorm_wordpool_less_exclusions.txt	LTP192	ltpFR	4	4	1	GROUND	666	n/a	0	0	0.5869140625	0.422607421875	upper	../fonts/amplitud.ttf
496474	WORD	wordpools/wasnorm_wordpool_less_exclusions.txt	LTP192	ltpFR	4	4	1	FAMILY	550	n/a	1	0	0.5869140625	0.422607421875	upper	../fonts/amplitud.ttf
500539	WORD	wordpools/wasnorm_wordpool_less_exclusions.txt	LTP192	ltpFR	4	4	1	REGISTER	1180	n/a	0	0	0.5869140625	0.422607421875	upper	../fonts/amplitud.ttf
504604	WORD	wordpools/wasnorm_wordpool_less_exclusions.txt	LTP192	ltpFR	4	4	1	DETECTIVE	454	n/a	1	0	0.5869140625	0.422607421875	upper	../fonts/amplitud.ttf
508440	WORD	wordpools/wasnorm_wordpool_less_exclusions.txt	LTP192	ltpFR	4	4	1	FATHER	554	n/a	1	0	0.5869140625	0.422607421875	upper	../fonts/amplitud.ttf
512601	WORD	wordpools/wasnorm_wordpool_less_exclusions.txt	LTP192	ltpFR	4	4	1	CHIMPANZEE	302	n/a	1	0	0.5869140625	0.422607421875	upper	../fonts/amplitud.ttf
516516	WORD	wordpools/wasnorm_wordpool_less_exclusions.txt	LTP192	ltpFR	4	4	1	HOE	711	n/a	0	0	0.5869140625	0.422607421875	upper	../fonts/amplitud.ttf
520484	WORD	wordpools/wasnorm_wordpool_less_exclusions.txt	LTP192	ltpFR	4	4	1	DIGGER	464	n/a	1	0	0.5869140625	0.422607421875	upper	../fonts/amplitud.ttf
524513	WORD	wordpools/wasnorm_wordpool_less_exclusions.txt	LTP192	ltpFR	4	4	1	VITAMIN	1574	n/a	0	0	0.5869140625	0.422607421875	upper	../fonts/amplitud.ttf
528511	WORD	wordpools/wasnorm_wordpool_less_exclusions.txt	LTP192	ltpFR	4	4	1	NERVE	944	n/a	1	0	0.5869140625	0.422607421875	upper	../fonts/amplitud.ttf
532643	WORD	wordpools/wasnorm_wordpool_less_exclusions.txt	LTP192	ltpFR	4	4	1	CLIPPERS	324	n/a	0	0	0.5869140625	0.422607421875	upper	../fonts/amplitud.ttf
536709	WORD	wordpools/wasnorm_wordpool_less_exclusions.txt	LTP192	ltpFR	4	4	1	SHEARS	1276	n/a	0	0	0.5869140625	0.422607421875	upper	../fonts/amplitud.ttf
540693	WORD	wordpools/wasnorm_wordpool_less_exclusions.txt	LTP192	ltpFR	4	4	1	TAR	1435	n/a	0	0	0.5869140625	0.422607421875	upper	../fonts/amplitud.ttf
544505	WORD	wordpools/wasnorm_wordpool_less_exclusions.txt	LTP192	ltpFR	4	4	1	JAW	751	n/a	0	0	0.5869140625	0.422607421875	upper	../fonts/amplitud.ttf
548336	WORD	wordpools/wasnorm_wordpool_less_exclusions.txt	LTP192	ltpFR	4	4	1	LIEUTENANT	818	n/a	1	0	0.5869140625	0.422607421875	upper	../fonts/amplitud.ttf
552251	WORD	wordpools/wasnorm_wordpool_less_exclusions.txt	LTP192	ltpFR	4	4	1	OFFICER	973	n/a	1	0	0.5869140625	0.422607421875	upper	../fonts/amplitud.ttf
557923	REC_START	n/a	LTP192	ltpFR	4	4	n/a	n/a	n/a	n/a	n/a	n/a	n/a	n/a	n/a	n/a
558381	REC_WORD	wordpools/wasnorm_wordpool_less_exclusions.txt	LTP192	ltpFR	4	4	1	LIEUTENANT	818	n/a	1	n/a	n/a	n/a	n/a	n/a
559335	REC_WORD	wordpools/wasnorm_wordpool_less_exclusions.txt	LTP192	ltpFR	4	4	1	OFFICER	973	n/a	1	n/a	n/a	n/a	n/a	n/a
560184	REC_WORD	wordpools/wasnorm_wordpool_less_exclusions.txt	LTP192	ltpFR	4	4	1	NERVE	944	n/a	1	n/a	n/a	n/a	n/a	n/a
561065	REC_WORD	wordpools/wasnorm_wordpool_less_exclusions.txt	LTP192	ltpFR	4	4	1	CLIPPERS	324	n/a	0	n/a	n/a	n/a	n/a	n/a
561821	REC_WORD	wordpools/wasnorm_wordpool_less_exclusions.txt	LTP192	ltpFR	4	4	1	SHEARS	1276	n/a	0	n/a	n/a	n/a	n/a	n/a
563111	REC_WORD	wordpools/wasnorm_wordpool_less_exclusions.txt	LTP192	ltpFR	4	4	1	FATHER	554	n/a	1	n/a	n/a	n/a	n/a	n/a
564058	REC_WORD	wordpools/wasnorm_wordpool_less_exclusions.txt	LTP192	ltpFR	4	4	1	FAMILY	550	n/a	1	n/a	n/a	n/a	n/a	n/a
573263	REC_WORD	wordpools/wasnorm_wordpool_less_exclusions.txt	LTP192	ltpFR	4	4	1	CHIMPANZEE	302	n/a	1	n/a	n/a	n/a	n/a	n/a
574263	REC_WORD_VV	wordpools/wasnorm_wordpool_less_exclusions.txt	LTP192	ltpFR	4	4	n/a	<>	-1	n/a	n/a	n/a	n/a	n/a	n/a	n/a
589825	REC_WORD	wordpools/wasnorm_wordpool_less_exclusions.txt	LTP192	ltpFR	4	4	1	REGISTER	1180	n/a	0	n/a	n/a	n/a	n/a	n/a
636669	WORD	wordpools/wasnorm_wordpool_less_exclusions.txt	LTP192	ltpFR	4	5	1	PEOPLE	1046	n/a	1	0	0.5869140625	0.422607421875	upper	../fonts/amplitud.ttf
640517	WORD	wordpools/wasnorm_wordpool_less_exclusions.txt	LTP192	ltpFR	4	5	1	COMMITTEE	355	n/a	1	0	0.5869140625	0.422607421875	upper	../fonts/amplitud.ttf
644431	WORD	wordpools/wasnorm_wordpool_less_exclusions.txt	LTP192	ltpFR	4	5	1	OTTER	986	n/a	1	0	0.5869140625	0.422607421875	upper	../fonts/amplitud.ttf
648513	WORD	wordpools/wasnorm_wordpool_less_exclusions.txt	LTP192	ltpFR	4	5	1	SHOWER	1296	n/a	0	0	0.5869140625	0.422607421875	upper	../fonts/amplitud.ttf
652595	WORD	wordpools/wasnorm_wordpool_less_exclusions.txt	LTP192	ltpFR	4	5	1	UNCLE	1536	n/a	1	0	0.5869140625	0.422607421875	upper	../fonts/amplitud.ttf
656695	WORD	wordpools/wasnorm_wordpool_less_exclusions.txt	LTP192	ltpFR	4	5	1	OYSTER	995	n/a	0	0	0.5869140625	0.422607421875	upper	../fonts/amplitud.ttf
660827	WORD	wordpools/wasnorm_wordpool_less_exclusions.txt	LTP192	ltpFR	4	5	1	BELLY	119	n/a	0	0	0.5869140625	0.422607421875	upper	../fonts/amplitud.ttf
664926	WORD	wordpools/wasnorm_wordpool_less_exclusions.txt	LTP192	ltpFR	4	5	1	PATRIOT	1026	n/a	1	0	0.5869140625	0.422607421875	upper	../fonts/amplitud.ttf
668841	WORD	wordpools/wasnorm_wordpool_less_exclusions.txt	LTP192	ltpFR	4	5	1	TWIG	1527	n/a	0	0	0.5869140625	0.422607421875	upper	../fonts/amplitud.ttf
672856	WORD	wordpools/wasnorm_wordpool_less_exclusions.txt	LTP192	ltpFR	4	5	1	BUBBLE	183	n/a	0	0	0.5869140625	0.422607421875	upper	../fonts/amplitud.ttf
676888	WORD	wordpools/wasnorm_wordpool_less_exclusions.txt	LTP192	ltpFR	4	5	1	SEAFOOD	1260	n/a	0	0	0.5869140625	0.422607421875	upper	../fonts/amplitud.ttf
681002	WORD	wordpools/wasnorm_wordpool_less_exclusions.txt	LTP192	ltpFR	4	5	1	SEAL	1262	n/a	0	0	0.5869140625	0.422607421875	upper	../fonts/amplitud.ttf
684967	WORD	wordpools/wasnorm_wordpool_less_exclusions.txt	LTP192	ltpFR	4	5	1	HAMMOCK	681	n/a	0	0	0.5869140625	0.422607421875	upper	../fonts/amplitud.ttf
689033	WORD	wordpools/wasnorm_wordpool_less_exclusions.txt	LTP192	ltpFR	4	5	1	LOBSTER	837	n/a	1	0	0.5869140625	0.422607421875	upper	../fonts/amplitud.ttf
692981	WORD	wordpools/wasnorm_wordpool_less_exclusions.txt	LTP192	ltpFR	4	5	1	OCTOPUS	971	n/a	1	0	0.5869140625	0.422607421875	upper	../fonts/amplitud.ttf
696813	WORD	wordpools/wasnorm_wordpool_less_exclusions.txt	LTP192	ltpFR	4	5	1	ATHLETE	52	n/a	1	0	0.5869140625	0.422607421875	upper	../fonts/amplitud.ttf
702635	REC_START	n/a	LTP192	ltpFR	4	5	n/a	n/a	n/a	n/a	n/a	n/a	n/a	n/a	n/a	n/a
703303	REC_WORD	wordpools/wasnorm_wordpool_less_exclusions.txt	LTP192	ltpFR	4	5	1	ATHLETE	52	n/a	1	n/a	n/a	n/a	n/a	n/a
704301	REC_WORD	wordpools/wasnorm_wordpool_less_exclusions.txt	LTP192	ltpFR	4	5	1	OYSTER	995	n/a	0	n/a	n/a	n/a	n/a	n/a
705109	REC_WORD	wordpools/wasnorm_wordpool_less_exclusions.txt	LTP192	ltpFR	4	5	1	LOBSTER	837	n/a	1	n/a	n/a	n/a	n/a	n/a
705867	REC_WORD	wordpools/wasnorm_wordpool_less_exclusions.txt	LTP192	ltpFR	4	5	1	SEAFOOD	1260	n/a	0	n/a	n/a	n/a	n/a	n/a
709893	REC_WORD	wordpools/wasnorm_wordpool_less_exclusions.txt	LTP192	ltpFR	4	5	1	UNCLE	1536	n/a	1	n/a	n/a	n/a	n/a	n/a
716169	REC_WORD	wordpools/wasnorm_wordpool_less_exclusions.txt	LTP192	ltpFR	4	5	1	TWIG	1527	n/a	0	n/a	n/a	n/a	n/a	n/a
726466	REC_WORD	wordpools/wasnorm_wordpool_less_exclusions.txt	LTP192	ltpFR	4	5	1	OCTOPUS	971	n/a	1	n/a	n/a	n/a	n/a	n/a
741786	REC_WORD	wordpools/wasnorm_wordpool_less_exclusions.txt	LTP192	ltpFR	4	5	1	HAMMOCK	681	n/a	0	n/a	n/a	n/a	n/a	n/a
744475	REC_WORD	wordpools/wasnorm_wordpool_less_exclusions.txt	LTP192	ltpFR	4	5	1	PATRIOT	1026	n/a	1	n/a	n/a	n/a	n/a	n/a
781783	WORD	wordpools/wasnorm_wordpool_less_exclusions.txt	LTP192	ltpFR	4	6	-1	SHELL	1281	n/a	-1	1	1.0	1.0	upper	../fonts/Verdana.ttf
785898	WORD	wordpools/wasnorm_wordpool_less_exclusions.txt	LTP192	ltpFR	4	6	-1	WALRUS	1585	n/a	-1	1	1.0	1.0	upper	../fonts/Verdana.ttf
789762	WORD	wordpools/wasnorm_wordpool_less_exclusions.txt	LTP192	ltpFR	4	6	-1	TIDE	1465	n/a	-1	1	1.0	1.0	upper	../fonts/Verdana.ttf
793711	WORD	wordpools/wasnorm_wordpool_less_exclusions.txt	LTP192	ltpFR	4	6	-1	VOLUNTEER	1577	n/a	-1	1	1.0	1.0	upper	../fonts/Verdana.ttf
797609	WORD	wordpools/wasnorm_wordpool_less_exclusions.txt	LTP192	ltpFR	4	6	-1	CANYON	235	n/a	-1	1	1.0	1.0	upper	../fonts/Verdana.ttf
801775	WORD	wordpools/wasnorm_wordpool_less_exclusions.txt	LTP192	ltpFR	4	6	-1	FIG	563	n/a	-1	1	1.0	1.0	upper	../fonts/Verdana.ttf
805740	WORD	wordpools/wasnorm_wordpool_less_exclusions.txt	LTP192	ltpFR	4	6	-1	APPLICATION	34	n/a	-1	1	1.0	1.0	upper	../fonts/Verdana.ttf
809754	WORD	wordpools/wasnorm_wordpool_less_exclusions.txt	LTP192	ltpFR	4	6	-1	FURNITURE	616	n/a	-1	1	1.0	1.0	upper	../fonts/Verdana.ttf
813854	WORD	wordpools/wasnorm_wordpool_less_exclusions.txt	LTP192	ltpFR	4	6	-1	COTTAGE	384	n/a	-1	1	1.0	1.0	upper	../fonts/Verdana.ttf
817718	WORD	wordpools/wasnorm_wordpool_less_exclusions.txt	LTP192	ltpFR	4	6	-1	CHAMPION	279	n/a	-1	1	1.0	1.0	upper	../fonts/Verdana.ttf
821654	WORD	wordpools/wasnorm_wordpool_less_exclusions.txt	LTP192	ltpFR	4	6	-1	EMPIRE	530	n/a	-1	1	1.0	1.0	upper	../fonts/Verdana.ttf
825480	WORD	wordpools/wasnorm_wordpool_less_exclusions.txt	LTP192	ltpFR	4	6	-1	PEAR	1033	n/a	-1	1	1.0	1.0	upper	../fonts/Verdana.ttf
829663	WORD	wordpools/wasnorm_wordpool_less_exclusions.txt	LTP192	ltpFR	4	6	-1	CAFETERIA	217	n/a	-1	1	1.0	1.0	upper	../fonts/Verdana.ttf
833561	WORD	wordpools/wasnorm_wordpool_less_exclusions.txt	LTP192	ltpFR	4	6	-1	BANQUET	86	n/a	-1	1	1.0	1.0	upper	../fonts/Verdana.ttf
837743	WORD	wordpools/wasnorm_wordpool_less_exclusions.txt	LTP192	ltpFR	4	6	-1	SLOPE	1328	n/a	-1	1	1.0	1.0	upper	../fonts/Verdana.ttf
841763	WORD	wordpools/wasnorm_wordpool_less_exclusions.txt	LTP192	ltpFR	4	6	-1	CAPE	237	n/a	-1	1	1.0	1.0	upper	../fonts/Verdana.ttf
847648	REC_START	n/a	LTP192	ltpFR	4	6	n/a	n/a	n/a	n/a	n/a	n/a	n/a	n/a	n/a	n/a
848306	REC_WORD	wordpools/wasnorm_wordpool_less_exclusions.txt	LTP192	ltpFR	4	6	-1	EMPIRE	530	n/a	-1	n/a	n/a	n/a	n/a	n/a
848959	REC_WORD	wordpools/wasnorm_wordpool_less_exclusions.txt	LTP192	ltpFR	4	6	-1	SLOPE	1328	n/a	-1	n/a	n/a	n/a	n/a	n/a
849968	REC_WORD	wordpools/wasnorm_wordpool_less_exclusions.txt	LTP192	ltpFR	4	6	-1	CAPE	237	n/a	-1	n/a	n/a	n/a	n/a	n/a
850741	REC_WORD	wordpools/wasnorm_wordpool_less_exclusions.txt	LTP192	ltpFR	4	6	-1	CAFETERIA	217	n/a	-1	n/a	n/a	n/a	n/a	n/a
852986	REC_WORD	wordpools/wasnorm_wordpool_less_exclusions.txt	LTP192	ltpFR	4	6	-1	BANQUET	86	n/a	-1	n/a	n/a	n/a	n/a	n/a
857969	REC_WORD	wordpools/wasnorm_wordpool_less_exclusions.txt	LTP192	ltpFR	4	6	-1	CHAMPION	279	n/a	-1	n/a	n/a	n/a	n/a	n/a
861651	REC_WORD	wordpools/wasnorm_wordpool_less_exclusions.txt	LTP192	ltpFR	4	6	-1	SHELL	1281	n/a	-1	n/a	n/a	n/a	n/a	n/a
864759	REC_WORD	wordpools/wasnorm_wordpool_less_exclusions.txt	LTP192	ltpFR	4	6	-1	WALRUS	1585	n/a	-1	n/a	n/a	n/a	n/a	n/a
881800	REC_WORD	wordpools/wasnorm_wordpool_less_exclusions.txt	LTP192	ltpFR	4	6	-1	FURNITURE	616	n/a	-1	n/a	n/a	n/a	n/a	n/a
882743	REC_WORD	wordpools/wasnorm_wordpool_less_exclusions.txt	LTP192	ltpFR	4	6	-1	APPLICATION	34	n/a	-1	n/a	n/a	n/a	n/a	n/a
891673	REC_WORD	wordpools/wasnorm_wordpool_less_exclusions.txt	LTP192	ltpFR	4	6	-1	COTTAGE	384	n/a	-1	n/a	n/a	n/a	n/a	n/a
902692	REC_WORD	wordpools/wasnorm_wordpool_less_exclusions.txt	LTP192	ltpFR	4	6	-1	FIG	563	n/a	-1	n/a	n/a	n/a	n/a	n/a
933253	WORD	wordpools/wasnorm_wordpool_less_exclusions.txt	LTP192	ltpFR	4	7	1	CHIME	300	n/a	0	0	0.5869140625	0.422607421875	upper	../fonts/amplitud.ttf
937185	WORD	wordpools/wasnorm_wordpool_less_exclusions.txt	LTP192	ltpFR	4	7	1	DOLL	481	n/a	0	0	0.5869140625	0.422607421875	upper	../fonts/amplitud.ttf
941285	WORD	wordpools/wasnorm_wordpool_less_exclusions.txt	LTP192	ltpFR	4	7	1	REPTILE	1185	n/a	1	0	0.5869140625	0.422607421875	upper	../fonts/amplitud.ttf
945299	WORD	wordpools/wasnorm_wordpool_less_exclusions.txt	LTP192	ltpFR	4	7	0	BOMB	147	n/a	1	1	0.412841796875	0.57763671875	lower	../fonts/zerothre.ttf
949498	WORD	wordpools/wasnorm_wordpool_less_exclusions.txt	LTP192	ltpFR	4	7	0	ATOM	55	n/a	0	1	0.412841796875	0.57763671875	lower	../fonts/zerothre.ttf
953412	WORD	wordpools/wasnorm_wordpool_less_exclusions.txt	LTP192	ltpFR	4	7	1	INFANT	737	n/a	1	0	0.5869140625	0.422607421875	upper	../fonts/amplitud.ttf
957394	WORD	wordpools/wasnorm_wordpool_less_exclusions.txt	LTP192	ltpFR	4	7	1	BOXER	160	n/a	1	0	0.5869140625	0.422607421875	upper	../fonts/amplitud.ttf
961577	WORD	wordpools/wasnorm_wordpool_less_exclusions.txt	LTP192	ltpFR	4	7	0	HANDBAG	684	n/a	0	1	0.412841796875	0.57763671875	lower	../fonts/zerothre.ttf
965531	WORD	wordpools/wasnorm_wordpool_less_exclusions.txt	LTP192	ltpFR	4	7	0	BANKER	84	n/a	1	1	0.412841796875	0.57763671875	lower	../fonts/zerothre.ttf
969724	WORD	wordpools/wasnorm_wordpool_less_exclusions.txt	LTP192	ltpFR	4	7	0	NIGHTGOWN	953	n/a	1	1	0.412841796875	0.57763671875	lower	../fonts/zerothre.ttf
973705	WORD	wordpools/wasnorm_wordpool_less_exclusions.txt	LTP192	ltpFR	4	7	0	BANDANNA	80	n/a	0	1	0.412841796875	0.57763671875	lower	../fonts/zerothre.ttf
977921	WORD	wordpools/wasnorm_wordpool_less_exclusions.txt	LTP192	ltpFR	4	7	0	CHILD	299	n/a	1	1	0.412841796875	0.57763671875	lower	../fonts/zerothre.ttf
982137	WORD	wordpools/wasnorm_wordpool_less_exclusions.txt	LTP192	ltpFR	4	7	0	MONGOOSE	909	n/a	1	1	0.412841796875	0.57763671875	lower	../fonts/zerothre.ttf
986186	WORD	wordpools/wasnorm_wordpool_less_exclusions.txt	LTP192	ltpFR	4	7	1	CABLE	213	n/a	0	0	0.5869140625	0.422607421875	upper	../fonts/amplitud.ttf
990218	WORD	wordpools/wasnorm_wordpool_less_exclusions.txt	LTP192	ltpFR	4	7	1	ESSAY	540	n/a	0	0	0.5869140625	0.422607421875	upper	../fonts/amplitud.ttf
994300	WORD	wordpools/wasnorm_wordpool_less_exclusions.txt	LTP192	ltpFR	4	7	1	POET	1095	n/a	1	0	0.5869140625	0.422607421875	upper	../fonts/amplitud.ttf
999989	REC_START	n/a	LTP192	ltpFR	4	7	n/a	n/a	n/a	n/a	n/a	n/a	n/a	n/a	n/a	n/a
1000902	REC_WORD	wordpools/wasnorm_wordpool_less_exclusions.txt	LTP192	ltpFR	4	7	1	ESSAY	540	n/a	0	n/a	n/a	n/a	n/a	n/a
1001855	REC_WORD	wordpools/wasnorm_wordpool_less_exclusions.txt	LTP192	ltpFR	4	7	1	POET	1095	n/a	1	n/a	n/a	n/a	n/a	n/a
1003531	REC_WORD	wordpools/wasnorm_wordpool_less_exclusions.txt	LTP192	ltpFR	4	7	0	CHILD	299	n/a	1	n/a	n/a	n/a	n/a	n/a
1004399	REC_WORD	wordpools/wasnorm_wordpool_less_exclusions.txt	LTP192	ltpFR	4	7	1	INFANT	737	n/a	1	n/a	n/a	n/a	n/a	n/a
1005785	REC_WORD	wordpools/wasnorm_wordpool_less_exclusions.txt	LTP192	ltpFR	4	7	0	MONGOOSE	909	n/a	1	n/a	n/a	n/a	n/a	n/a
1007542	REC_WORD	wordpools/wasnorm_wordpool_less_exclusions.txt	LTP192	ltpFR	4	7	0	NIGHTGOWN	953	n/a	1	n/a	n/a	n/a	n/a	n/a
1043714	REC_WORD	wordpools/wasnorm_wordpool_less_exclusions.txt	LTP192	ltpFR	4	7	0	BANKER	84	n/a	1	n/a	n/a	n/a	n/a	n/a
1072878	REC_WORD	wordpools/wasnorm_wordpool_less_exclusions.txt	LTP192	ltpFR	4	7	1	CHIME	300	n/a	0	n/a	n/a	n/a	n/a	n/a
1084373	WORD	wordpools/wasnorm_wordpool_less_exclusions.txt	LTP192	ltpFR	4	8	0	COCOON	339	n/a	0	1	0.412841796875	0.57763671875	lower	../fonts/zerothre.ttf
1088438	WORD	wordpools/wasnorm_wordpool_less_exclusions.txt	LTP192	ltpFR	4	8	0	YARN	1631	n/a	0	1	0.412841796875	0.57763671875	lower	../fonts/zerothre.ttf
1092553	WORD	wordpools/wasnorm_wordpool_less_exclusions.txt	LTP192	ltpFR	4	8	1	SCENERY	1247	n/a	0	0	0.5869140625	0.422607421875	upper	../fonts/amplitud.ttf
1096736	WORD	wordpools/wasnorm_wordpool_less_exclusions.txt	LTP192	ltpFR	4	8	1	CUPBOARD	425	n/a	0	0	0.5869140625	0.422607421875	upper	../fonts/amplitud.ttf
1100717	WORD	wordpools/wasnorm_wordpool_less_exclusions.txt	LTP192	ltpFR	4	8	1	COMMANDER	354	n/a	1	0	0.5869140625	0.422607421875	upper	../fonts/amplitud.ttf
1104884	WORD	wordpools/wasnorm_wordpool_less_exclusions.txt	LTP192	ltpFR	4	8	1	POPCORN	1104	n/a	0	0	0.5869140625	0.422607421875	upper	../fonts/amplitud.ttf
1108932	WORD	wordpools/wasnorm_wordpool_less_exclusions.txt	LTP192	ltpFR	4	8	1	COLLAR	345	n/a	0	0	0.5869140625	0.422607421875	upper	../fonts/amplitud.ttf
1112980	WORD	wordpools/wasnorm_wordpool_less_exclusions.txt	LTP192	ltpFR	4	8	0	FOLLOWER	589	n/a	1	1	0.412841796875	0.57763671875	lower	../fonts/zerothre.ttf
1117180	WORD	wordpools/wasnorm_wordpool_less_exclusions.txt	LTP192	ltpFR	4	8	0	OUTLAW	989	n/a	1	1	0.412841796875	0.57763671875	lower	../fonts/zerothre.ttf
1121278	WORD	wordpools/wasnorm_wordpool_less_exclusions.txt	LTP192	ltpFR	4	8	0	CROOK	412	n/a	1	1	0.412841796875	0.57763671875	lower	../fonts/zerothre.ttf
1125126	WORD	wordpools/wasnorm_wordpool_less_exclusions.txt	LTP192	ltpFR	4	8	0	SALAD	1224	n/a	0	1	0.412841796875	0.57763671875	lower	../fonts/zerothre.ttf
1129275	WORD	wordpools/wasnorm_wordpool_less_exclusions.txt	LTP192	ltpFR	4	8	1	RIB	1188	n/a	0	0	0.5869140625	0.422607421875	upper	../fonts/amplitud.ttf
1133307	WORD	wordpools/wasnorm_wordpool_less_exclusions.txt	LTP192	ltpFR	4	8	1	THIMBLE	1458	n/a	0	0	0.5869140625	0.422607421875	upper	../fonts/amplitud.ttf
1137389	WORD	wordpools/wasnorm_wordpool_less_exclusions.txt	LTP192	ltpFR	4	8	1	REFRIGERATOR	1179	n/a	0	0	0.5869140625	0.422607421875	upper	../fonts/amplitud.ttf
1141387	WORD	wordpools/wasnorm_wordpool_less_exclusions.txt	LTP192	ltpFR	4	8	0	PLATE	1086	n/a	0	1	0.412841796875	0.57763671875	lower	../fonts/zerothre.ttf
1145555	WORD	wordpools/wasnorm_wordpool_less_exclusions.txt	LTP192	ltpFR	4	8	0	TWINE	1529	n/a	0	1	0.412841796875	0.57763671875	lower	../fonts/zerothre.ttf
1151242	REC_START	n/a	LTP192	ltpFR	4	8	n/a	n/a	n/a	n/a	n/a	n/a	n/a	n/a	n/a	n/a
1151830	REC_WORD	wordpools/wasnorm_wordpool_less_exclusions.txt	LTP192	ltpFR	4	8	0	TWINE	1529	n/a	0	n/a	n/a	n/a	n/a	n/a
1152683	REC_WORD	wordpools/wasnorm_wordpool_less_exclusions.txt	LTP192	ltpFR	4	8	0	YARN	1631	n/a	0	n/a	n/a	n/a	n/a	n/a
1153461	REC_WORD	wordpools/wasnorm_wordpool_less_exclusions.txt	LTP192	ltpFR	4	8	1	REFRIGERATOR	1179	n/a	0	n/a	n/a	n/a	n/a	n/a
1154435	REC_WORD	wordpools/wasnorm_wordpool_less_exclusions.txt	LTP192	ltpFR	4	8	0	CROOK	412	n/a	1	n/a	n/a	n/a	n/a	n/a
1155387	REC_WORD	wordpools/wasnorm_wordpool_less_exclusions.txt	LTP192	ltpFR	4	8	0	OUTLAW	989	n/a	1	n/a	n/a	n/a	n/a	n/a
1161324	REC_WORD	wordpools/wasnorm_wordpool_less_exclusions.txt	LTP192	ltpFR	4	8	1	SCENERY	1247	n/a	0	n/a	n/a	n/a	n/a	n/a
1162661	REC_WORD	wordpools/wasnorm_wordpool_less_exclusions.txt	LTP192	ltpFR	4	8	1	CUPBOARD	425	n/a	0	n/a	n/a	n/a	n/a	n/a
1170742	REC_WORD	wordpools/wasnorm_wordpool_less_exclusions.txt	LTP192	ltpFR	4	8	1	COMMANDER	354	n/a	1	n/a	n/a	n/a	n/a	n/a
1235157	WORD	wordpools/wasnorm_wordpool_less_exclusions.txt	LTP192	ltpFR	4	9	0	NEWSPAPER	948	n/a	0	1	0.412841796875	0.57763671875	lower	../fonts/zerothre.ttf
1239092	WORD	wordpools/wasnorm_wordpool_less_exclusions.txt	LTP192	ltpFR	4	9	0	NEWSSTAND	949	n/a	1	1	0.412841796875	0.57763671875	lower	../fonts/zerothre.ttf
1243104	WORD	wordpools/wasnorm_wordpool_less_exclusions.txt	LTP192	ltpFR	4	9	0	COUNTY	389	n/a	1	1	0.412841796875	0.57763671875	lower	../fonts/zerothre.ttf
1247136	WORD	wordpools/wasnorm_wordpool_less_exclusions.txt	LTP192	ltpFR	4	9	0	PAPER	1011	n/a	0	1	0.412841796875	0.57763671875	lower	../fonts/zerothre.ttf
1251168	WORD	wordpools/wasnorm_wordpool_less_exclusions.txt	LTP192	ltpFR	4	9	0	GOWN	652	n/a	1	1	0.412841796875	0.57763671875	lower	../fonts/zerothre.ttf
1255166	WORD	wordpools/wasnorm_wordpool_less_exclusions.txt	LTP192	ltpFR	4	9	0	CITY	314	n/a	1	1	0.412841796875	0.57763671875	lower	../fonts/zerothre.ttf
1259332	WORD	wordpools/wasnorm_wordpool_less_exclusions.txt	LTP192	ltpFR	4	9	0	MOUTH	926	n/a	0	1	0.412841796875	0.57763671875	lower	../fonts/zerothre.ttf
1263180	WORD	wordpools/wasnorm_wordpool_less_exclusions.txt	LTP192	ltpFR	4	9	0	PATIO	1025	n/a	1	1	0.412841796875	0.57763671875	lower	../fonts/zerothre.ttf
1267161	WORD	wordpools/wasnorm_wordpool_less_exclusions.txt	LTP192	ltpFR	4	9	0	POPE	1105	n/a	1	1	0.412841796875	0.57763671875	lower	../fonts/zerothre.ttf
1271193	WORD	wordpools/wasnorm_wordpool_less_exclusions.txt	LTP192	ltpFR	4	9	0	NUN	962	n/a	1	1	0.412841796875	0.57763671875	lower	../fonts/zerothre.ttf
1275149	WORD	wordpools/wasnorm_wordpool_less_exclusions.txt	LTP192	ltpFR	4	9	0	NOSE	957	n/a	0	1	0.412841796875	0.57763671875	lower	../fonts/zerothre.ttf
1279257	WORD	wordpools/wasnorm_wordpool_less_exclusions.txt	LTP192	ltpFR	4	9	0	BLOSSOM	138	n/a	0	1	0.412841796875	0.57763671875	lower	../fonts/zerothre.ttf
1283306	WORD	wordpools/wasnorm_wordpool_less_exclusions.txt	LTP192	ltpFR	4	9	0	XEROX	1628	n/a	1	1	0.412841796875	0.57763671875	lower	../fonts/zerothre.ttf
1287354	WORD	wordpools/wasnorm_wordpool_less_exclusions.txt	LTP192	ltpFR	4	9	0	HOOK	715	n/a	0	1	0.412841796875	0.57763671875	lower	../fonts/zerothre.ttf
1291304	WORD	wordpools/wasnorm_wordpool_less_exclusions.txt	LTP192	ltpFR	4	9	0	BAIT	70	n/a	0	1	0.412841796875	0.57763671875	lower	../fonts/zerothre.ttf
1295368	WORD	wordpools/wasnorm_wordpool_less_exclusions.txt	LTP192	ltpFR	4	9	0	TABLET	1427	n/a	0	1	0.412841796875	0.57763671875	lower	../fonts/zerothre.ttf
1301257	REC_START	n/a	LTP192	ltpFR	4	9	n/a	n/a	n/a	n/a	n/a	n/a	n/a	n/a	n/a	n/a
1301795	REC_WORD	wordpools/wasnorm_wordpool_less_exclusions.txt	LTP192	ltpFR	4	9	0	BLOSSOM	138	n/a	0	n/a	n/a	n/a	n/a	n/a
1302748	REC_WORD	wordpools/wasnorm_wordpool_less_exclusions.txt	LTP192	ltpFR	4	9	0	HOOK	715	n/a	0	n/a	n/a	n/a	n/a	n/a
1303631	REC_WORD	wordpools/wasnorm_wordpool_less_exclusions.txt	LTP192	ltpFR	4	9	0	TABLET	1427	n/a	0	n/a	n/a	n/a	n/a	n/a
1304724	REC_WORD	wordpools/wasnorm_wordpool_less_exclusions.txt	LTP192	ltpFR	4	9	0	BAIT	70	n/a	0	n/a	n/a	n/a	n/a	n/a
1312661	REC_WORD	wordpools/wasnorm_wordpool_less_exclusions.txt	LTP192	ltpFR	4	9	0	COUNTY	389	n/a	1	n/a	n/a	n/a	n/a	n/a
1319570	REC_WORD	wordpools/wasnorm_wordpool_less_exclusions.txt	LTP192	ltpFR	4	9	0	POPE	1105	n/a	1	n/a	n/a	n/a	n/a	n/a
1320313	REC_WORD	wordpools/wasnorm_wordpool_less_exclusions.txt	LTP192	ltpFR	4	9	0	NUN	962	n/a	1	n/a	n/a	n/a	n/a	n/a
1330445	REC_WORD	wordpools/wasnorm_wordpool_less_exclusions.txt	LTP192	ltpFR	4	9	0	MOUTH	926	n/a	0	n/a	n/a	n/a	n/a	n/a
1343436	REC_WORD	wordpools/wasnorm_wordpool_less_exclusions.txt	LTP192	ltpFR	4	9	0	NEWSPAPER	948	n/a	0	n/a	n/a	n/a	n/a	n/a
1344379	REC_WORD	wordpools/wasnorm_wordpool_less_exclusions.txt	LTP192	ltpFR	4	9	0	NEWSSTAND	949	n/a	1	n/a	n/a	n/a	n/a	n/a
1346334	REC_WORD	wordpools/wasnorm_wordpool_less_exclusions.txt	LTP192	ltpFR	4	9	0	PAPER	1011	n/a	0	n/a	n/a	n/a	n/a	n/a
1380322	WORD	wordpools/wasnorm_wordpool_less_exclusions.txt	LTP192	ltpFR	4	10	0	EXPERT	543	n/a	1	1	0.412841796875	0.57763671875	lower	../fonts/zerothre.ttf
1384520	WORD	wordpools/wasnorm_wordpool_less_exclusions.txt	LTP192	ltpFR	4	10	0	PROFESSIONAL	1130	n/a	1	1	0.412841796875	0.57763671875	lower	../fonts/zerothre.ttf
1388703	WORD	wordpools/wasnorm_wordpool_less_exclusions.txt	LTP192	ltpFR	4	10	0	BEETLE	116	n/a	0	1	0.412841796875	0.57763671875	lower	../fonts/zerothre.ttf
1392551	WORD	wordpools/wasnorm_wordpool_less_exclusions.txt	LTP192	ltpFR	4	10	0	BREAD	170	n/a	0	1	0.412841796875	0.57763671875	lower	../fonts/zerothre.ttf
1396767	WORD	wordpools/wasnorm_wordpool_less_exclusions.txt	LTP192	ltpFR	4	10	0	CHEF	290	n/a	1	1	0.412841796875	0.57763671875	lower	../fonts/zerothre.ttf
1400850	WORD	wordpools/wasnorm_wordpool_less_exclusions.txt	LTP192	ltpFR	4	10	0	CAFE	216	n/a	1	1	0.412841796875	0.57763671875	lower	../fonts/zerothre.ttf
1404881	WORD	wordpools/wasnorm_wordpool_less_exclusions.txt	LTP192	ltpFR	4	10	0	DOUGH	489	n/a	0	1	0.412841796875	0.57763671875	lower	../fonts/zerothre.ttf
1408880	WORD	wordpools/wasnorm_wordpool_less_exclusions.txt	LTP192	ltpFR	4	10	0	BEE	112	n/a	0	1	0.412841796875	0.57763671875	lower	../fonts/zerothre.ttf
1412978	WORD	wordpools/wasnorm_wordpool_less_exclusions.txt	LTP192	ltpFR	4	10	0	COFFEE	341	n/a	0	1	0.412841796875	0.57763671875	lower	../fonts/zerothre.ttf
1417194	WORD	wordpools/wasnorm_wordpool_less_exclusions.txt	LTP192	ltpFR	4	10	0	BATHTUB	100	n/a	1	1	0.412841796875	0.57763671875	lower	../fonts/zerothre.ttf
1421342	WORD	wordpools/wasnorm_wordpool_less_exclusions.txt	LTP192	ltpFR	4	10	0	PEARL	1034	n/a	0	1	0.412841796875	0.57763671875	lower	../fonts/zerothre.ttf
1425459	WORD	wordpools/wasnorm_wordpool_less_exclusions.txt	LTP192	ltpFR	4	10	0	SAPPHIRE	1234	n/a	0	1	0.412841796875	0.57763671875	lower	../fonts/zerothre.ttf
1429479	WORD	wordpools/wasnorm_wordpool_less_exclusions.txt	LTP192	ltpFR	4	10	0	LENS	811	n/a	0	1	0.412841796875	0.57763671875	lower	../fonts/zerothre.ttf
1433557	WORD	wordpools/wasnorm_wordpool_less_exclusions.txt	LTP192	ltpFR	4	10	0	CEREAL	272	n/a	0	1	0.412841796875	0.57763671875	lower	../fonts/zerothre.ttf
1437587	WORD	wordpools/wasnorm_wordpool_less_exclusions.txt	LTP192	ltpFR	4	10	0	CAMEL	223	n/a	1	1	0.412841796875	0.57763671875	lower	../fonts/zerothre.ttf
1441552	WORD	wordpools/wasnorm_wordpool_less_exclusions.txt	LTP192	ltpFR	4	10	0	CARTON	251	n/a	0	1	0.412841796875	0.57763671875	lower	../fonts/zerothre.ttf
1447341	REC_START	n/a	LTP192	ltpFR	4	10	n/a	n/a	n/a	n/a	n/a	n/a	n/a	n/a	n/a	n/a
1448259	REC_WORD	wordpools/wasnorm_wordpool_less_exclusions.txt	LTP192	ltpFR	4	10	0	CARTON	251	n/a	0	n/a	n/a	n/a	n/a	n/a
1448865	REC_WORD	wordpools/wasnorm_wordpool_less_exclusions.txt	LTP192	ltpFR	4	10	0	CEREAL	272	n/a	0	n/a	n/a	n/a	n/a	n/a
1449690	REC_WORD	wordpools/wasnorm_wordpool_less_exclusions.txt	LTP192	ltpFR	4	10	n/a	MILK	895	n/a	n/a	n/a	n/a	n/a	n/a	n/a
1450478	REC_WORD	wordpools/wasnorm_wordpool_less_exclusions.txt	LTP192	ltpFR	4	10	0	PEARL	1034	n/a	0	n/a	n/a	n/a	n/a	n/a
1451162	REC_WORD	wordpools/wasnorm_wordpool_less_exclusions.txt	LTP192	ltpFR	4	10	0	SAPPHIRE	1234	n/a	0	n/a	n/a	n/a	n/a	n/a
1454380	REC_WORD	wordpools/wasnorm_wordpool_less_exclusions.txt	LTP192	ltpFR	4	10	0	BREAD	170	n/a	0	n/a	n/a	n/a	n/a	n/a
1455203	REC_WORD	wordpools/wasnorm_wordpool_less_exclusions.txt	LTP192	ltpFR	4	10	0	DOUGH	489	n/a	0	n/a	n/a	n/a	n/a	n/a
1455941	REC_WORD	wordpools/wasnorm_wordpool_less_exclusions.txt	LTP192	ltpFR	4	10	0	BEE	112	n/a	0	n/a	n/a	n/a	n/a	n/a
1456719	REC_WORD	wordpools/wasnorm_wordpool_less_exclusions.txt	LTP192	ltpFR	4	10	0	BEETLE	116	n/a	0	n/a	n/a	n/a	n/a	n/a
1459957	REC_WORD	wordpools/wasnorm_wordpool_less_exclusions.txt	LTP192	ltpFR	4	10	0	PROFESSIONAL	1130	n/a	1	n/a	n/a	n/a	n/a	n/a
1462346	REC_WORD	wordpools/wasnorm_wordpool_less_exclusions.txt	LTP192	ltpFR	4	10	0	EXPERT	543	n/a	1	n/a	n/a	n/a	n/a	n/a
1532160	WORD	wordpools/wasnorm_wordpool_less_exclusions.txt	LTP192	ltpFR	4	11	1	BEAST	108	n/a	1	0	0.5869140625	0.422607421875	upper	../fonts/amplitud.ttf
1536259	WORD	wordpools/wasnorm_wordpool_less_exclusions.txt	LTP192	ltpFR	4	11	1	OX	994	n/a	1	0	0.5869140625	0.422607421875	upper	../fonts/amplitud.ttf
1540425	WORD	wordpools/wasnorm_wordpool_less_exclusions.txt	LTP192	ltpFR	4	11	1	STEWARDESS	1381	n/a	1	0	0.5869140625	0.422607421875	upper	../fonts/amplitud.ttf
1544540	WORD	wordpools/wasnorm_wordpool_less_exclusions.txt	LTP192	ltpFR	4	11	1	SAW	1239	n/a	0	0	0.5869140625	0.422607421875	upper	../fonts/amplitud.ttf
1548472	WORD	wordpools/wasnorm_wordpool_less_exclusions.txt	LTP192	ltpFR	4	11	1	DOLLAR	482	n/a	0	0	0.5869140625	0.422607421875	upper	../fonts/amplitud.ttf
1552406	WORD	wordpools/wasnorm_wordpool_less_exclusions.txt	LTP192	ltpFR	4	11	1	NEPTUNE	943	n/a	0	0	0.5869140625	0.422607421875	upper	../fonts/amplitud.ttf
1556452	WORD	wordpools/wasnorm_wordpool_less_exclusions.txt	LTP192	ltpFR	4	11	1	MUFFIN	929	n/a	0	0	0.5869140625	0.422607421875	upper	../fonts/amplitud.ttf
1560517	WORD	wordpools/wasnorm_wordpool_less_exclusions.txt	LTP192	ltpFR	4	11	1	TICK	1463	n/a	1	0	0.5869140625	0.422607421875	upper	../fonts/amplitud.ttf
1564466	WORD	wordpools/wasnorm_wordpool_less_exclusions.txt	LTP192	ltpFR	4	11	1	TURNIP	1521	n/a	0	0	0.5869140625	0.422607421875	upper	../fonts/amplitud.ttf
1568581	WORD	wordpools/wasnorm_wordpool_less_exclusions.txt	LTP192	ltpFR	4	11	1	CHERRY	293	n/a	0	0	0.5869140625	0.422607421875	upper	../fonts/amplitud.ttf
1572646	WORD	wordpools/wasnorm_wordpool_less_exclusions.txt	LTP192	ltpFR	4	11	1	HIKER	708	n/a	1	0	0.5869140625	0.422607421875	upper	../fonts/amplitud.ttf
1576711	WORD	wordpools/wasnorm_wordpool_less_exclusions.txt	LTP192	ltpFR	4	11	1	CLIMBER	323	n/a	1	0	0.5869140625	0.422607421875	upper	../fonts/amplitud.ttf
1580911	WORD	wordpools/wasnorm_wordpool_less_exclusions.txt	LTP192	ltpFR	4	11	1	MARS	873	n/a	0	0	0.5869140625	0.422607421875	upper	../fonts/amplitud.ttf
1584776	WORD	wordpools/wasnorm_wordpool_less_exclusions.txt	LTP192	ltpFR	4	11	1	PENDULUM	1043	n/a	0	0	0.5869140625	0.422607421875	upper	../fonts/amplitud.ttf
1588924	WORD	wordpools/wasnorm_wordpool_less_exclusions.txt	LTP192	ltpFR	4	11	1	PARSLEY	1016	n/a	0	0	0.5869140625	0.422607421875	upper	../fonts/amplitud.ttf
1592858	WORD	wordpools/wasnorm_wordpool_less_exclusions.txt	LTP192	ltpFR	4	11	1	PLANT	1083	n/a	1	0	0.5869140625	0.422607421875	upper	../fonts/amplitud.ttf
1598780	REC_START	n/a	LTP192	ltpFR	4	11	n/a	n/a	n/a	n/a	n/a	n/a	n/a	n/a	n/a	n/a
1599254	REC_WORD	wordpools/wasnorm_wordpool_less_exclusions.txt	LTP192	ltpFR	4	11	1	PLANT	1083	n/a	1	n/a	n/a	n/a	n/a	n/a
1600132	REC_WORD	wordpools/wasnorm_wordpool_less_exclusions.txt	LTP192	ltpFR	4	11	1	PARSLEY	1016	n/a	0	n/a	n/a	n/a	n/a	n/a
1608528	REC_WORD	wordpools/wasnorm_wordpool_less_exclusions.txt	LTP192	ltpFR	4	11	1	STEWARDESS	1381	n/a	1	n/a	n/a	n/a	n/a	n/a
1613935	REC_WORD	wordpools/wasnorm_wordpool_less_exclusions.txt	LTP192	ltpFR	4	11	1	MARS	873	n/a	0	n/a	n/a	n/a	n/a	n/a
1614479	REC_WORD	wordpools/wasnorm_wordpool_less_exclusions.txt	LTP192	ltpFR	4	11	1	NEPTUNE	943	n/a	0	n/a	n/a	n/a	n/a	n/a
1623070	REC_WORD	wordpools/wasnorm_wordpool_less_exclusions.txt	LTP192	ltpFR	4	11	1	SAW	1239	n/a	0	n/a	n/a	n/a	n/a	n/a
1627185	REC_WORD	wordpools/wasnorm_wordpool_less_exclusions.txt	LTP192	ltpFR	4	11	1	TURNIP	1521	n/a	0	n/a	n/a	n/a	n/a	n/a
1632049	REC_WORD	wordpools/wasnorm_wordpool_less_exclusions.txt	LTP192	ltpFR	4	11	1	PLANT	1083	n/a	1	n/a	n/a	n/a	n/a	n/a
1639676	REC_WORD_VV	wordpools/wasnorm_wordpool_less_exclusions.txt	LTP192	ltpFR	4	11	n/a	<>	-1	n/a	n/a	n/a	n/a	n/a	n/a	n/a
1640021	REC_WORD	wordpools/wasnorm_wordpool_less_exclusions.txt	LTP192	ltpFR	4	11	1	PARSLEY	1016	n/a	0	n/a	n/a	n/a	n/a	n/a
1648801	REC_WORD	wordpools/wasnorm_wordpool_less_exclusions.txt	LTP192	ltpFR	4	11	1	BEAST	108	n/a	1	n/a	n/a	n/a	n/a	n/a
1677541	WORD	wordpools/wasnorm_wordpool_less_exclusions.txt	LTP192	ltpFR	4	12	-1	SOFA	1342	n/a	-1	1	1.0	1.0	upper	../fonts/Verdana.ttf
1681508	WORD	wordpools/wasnorm_wordpool_less_exclusions.txt	LTP192	ltpFR	4	12	-1	CROCODILE	411	n/a	-1	1	1.0	1.0	upper	../fonts/Verdana.ttf
1685705	WORD	wordpools/wasnorm_wordpool_less_exclusions.txt	LTP192	ltpFR	4	12	-1	BOTTLE	153	n/a	-1	1	1.0	1.0	upper	../fonts/Verdana.ttf
1689670	WORD	wordpools/wasnorm_wordpool_less_exclusions.txt	LTP192	ltpFR	4	12	-1	REINDEER	1181	n/a	-1	1	1.0	1.0	upper	../fonts/Verdana.ttf
1693585	WORD	wordpools/wasnorm_wordpool_less_exclusions.txt	LTP192	ltpFR	4	12	-1	TULIP	1517	n/a	-1	1	1.0	1.0	upper	../fonts/Verdana.ttf
1697517	WORD	wordpools/wasnorm_wordpool_less_exclusions.txt	LTP192	ltpFR	4	12	-1	FLOWER	584	n/a	-1	1	1.0	1.0	upper	../fonts/Verdana.ttf
1701599	WORD	wordpools/wasnorm_wordpool_less_exclusions.txt	LTP192	ltpFR	4	12	-1	HEATER	698	n/a	-1	1	1.0	1.0	upper	../fonts/Verdana.ttf
1705580	WORD	wordpools/wasnorm_wordpool_less_exclusions.txt	LTP192	ltpFR	4	12	-1	ICEBERG	731	n/a	-1	1	1.0	1.0	upper	../fonts/Verdana.ttf
1709746	WORD	wordpools/wasnorm_wordpool_less_exclusions.txt	LTP192	ltpFR	4	12	-1	SHINGLE	1285	n/a	-1	1	1.0	1.0	upper	../fonts/Verdana.ttf
1713745	WORD	wordpools/wasnorm_wordpool_less_exclusions.txt	LTP192	ltpFR	4	12	-1	CLOTHES	327	n/a	-1	1	1.0	1.0	upper	../fonts/Verdana.ttf
1717799	WORD	wordpools/wasnorm_wordpool_less_exclusions.txt	LTP192	ltpFR	4	12	-1	UTENSIL	1542	n/a	-1	1	1.0	1.0	upper	../fonts/Verdana.ttf
1721893	WORD	wordpools/wasnorm_wordpool_less_exclusions.txt	LTP192	ltpFR	4	12	-1	ANT	25	n/a	-1	1	1.0	1.0	upper	../fonts/Verdana.ttf
1725974	WORD	wordpools/wasnorm_wordpool_less_exclusions.txt	LTP192	ltpFR	4	12	-1	SPATULA	1348	n/a	-1	1	1.0	1.0	upper	../fonts/Verdana.ttf
1729956	WORD	wordpools/wasnorm_wordpool_less_exclusions.txt	LTP192	ltpFR	4	12	-1	NAPKIN	937	n/a	-1	1	1.0	1.0	upper	../fonts/Verdana.ttf
1733920	WORD	wordpools/wasnorm_wordpool_less_exclusions.txt	LTP192	ltpFR	4	12	-1	COUCH	386	n/a	-1	1	1.0	1.0	upper	../fonts/Verdana.ttf
1737836	WORD	wordpools/wasnorm_wordpool_less_exclusions.txt	LTP192	ltpFR	4	12	-1	COCKTAIL	338	n/a	-1	1	1.0	1.0	upper	../fonts/Verdana.ttf
1743691	REC_START	n/a	LTP192	ltpFR	4	12	n/a	n/a	n/a	n/a	n/a	n/a	n/a	n/a	n/a	n/a
1744195	REC_WORD	wordpools/wasnorm_wordpool_less_exclusions.txt	LTP192	ltpFR	4	12	-1	COUCH	386	n/a	-1	n/a	n/a	n/a	n/a	n/a
1744942	REC_WORD	wordpools/wasnorm_wordpool_less_exclusions.txt	LTP192	ltpFR	4	12	-1	SOFA	1342	n/a	-1	n/a	n/a	n/a	n/a	n/a
1745986	REC_WORD	wordpools/wasnorm_wordpool_less_exclusions.txt	LTP192	ltpFR	4	12	-1	COCKTAIL	338	n/a	-1	n/a	n/a	n/a	n/a	n/a
1747806	REC_WORD	wordpools/wasnorm_wordpool_less_exclusions.txt	LTP192	ltpFR	4	12	-1	ICEBERG	731	n/a	-1	n/a	n/a	n/a	n/a	n/a
1749732	REC_WORD	wordpools/wasnorm_wordpool_less_exclusions.txt	LTP192	ltpFR	4	12	-1	BOTTLE	153	n/a	-1	n/a	n/a	n/a	n/a	n/a
1774710	REC_WORD	wordpools/wasnorm_wordpool_less_exclusions.txt	LTP192	ltpFR	4	12	-1	UTENSIL	1542	n/a	-1	n/a	n/a	n/a	n/a	n/a
1819309	REST_REWET	n/a	LTP192	ltpFR	4	12	n/a	n/a	n/a	n/a	n/a	n/a	n/a	n/a	n/a	n/a
2111731	WORD	wordpools/wasnorm_wordpool_less_exclusions.txt	LTP192	ltpFR	4	13	1	RELISH	1183	n/a	0	0	0.5869140625	0.422607421875	upper	../fonts/amplitud.ttf
2115610	WORD	wordpools/wasnorm_wordpool_less_exclusions.txt	LTP192	ltpFR	4	13	1	DILL	465	n/a	0	0	0.5869140625	0.422607421875	upper	../fonts/amplitud.ttf
2119624	WORD	wordpools/wasnorm_wordpool_less_exclusions.txt	LTP192	ltpFR	4	13	1	FISH	571	n/a	1	0	0.5869140625	0.422607421875	upper	../fonts/amplitud.ttf
2123555	WORD	wordpools/wasnorm_wordpool_less_exclusions.txt	LTP192	ltpFR	4	13	1	BROOK	177	n/a	0	0	0.5869140625	0.422607421875	upper	../fonts/amplitud.ttf
2127755	WORD	wordpools/wasnorm_wordpool_less_exclusions.txt	LTP192	ltpFR	4	13	1	WICK	1607	n/a	0	0	0.5869140625	0.422607421875	upper	../fonts/amplitud.ttf
2131791	WORD	wordpools/wasnorm_wordpool_less_exclusions.txt	LTP192	ltpFR	4	13	1	PISTON	1076	n/a	0	0	0.5869140625	0.422607421875	upper	../fonts/amplitud.ttf
2135986	WORD	wordpools/wasnorm_wordpool_less_exclusions.txt	LTP192	ltpFR	4	13	0	VEIN	1554	n/a	0	1	0.412841796875	0.57763671875	lower	../fonts/zerothre.ttf
2140001	WORD	wordpools/wasnorm_wordpool_less_exclusions.txt	LTP192	ltpFR	4	13	0	JEWEL	757	n/a	0	1	0.412841796875	0.57763671875	lower	../fonts/zerothre.ttf
2143982	WORD	wordpools/wasnorm_wordpool_less_exclusions.txt	LTP192	ltpFR	4	13	0	KIWI	781	n/a	0	1	0.412841796875	0.57763671875	lower	../fonts/zerothre.ttf
2147888	WORD	wordpools/wasnorm_wordpool_less_exclusions.txt	LTP192	ltpFR	4	13	0	RASPBERRY	1168	n/a	0	1	0.412841796875	0.57763671875	lower	../fonts/zerothre.ttf
2151834	WORD	wordpools/wasnorm_wordpool_less_exclusions.txt	LTP192	ltpFR	4	13	0	ASSISTANT	48	n/a	1	1	0.412841796875	0.57763671875	lower	../fonts/zerothre.ttf
2155978	WORD	wordpools/wasnorm_wordpool_less_exclusions.txt	LTP192	ltpFR	4	13	0	DOORBELL	487	n/a	0	1	0.412841796875	0.57763671875	lower	../fonts/zerothre.ttf
2159898	WORD	wordpools/wasnorm_wordpool_less_exclusions.txt	LTP192	ltpFR	4	13	1	UNIVERSE	1540	n/a	1	0	0.5869140625	0.422607421875	upper	../fonts/amplitud.ttf
2163974	WORD	wordpools/wasnorm_wordpool_less_exclusions.txt	LTP192	ltpFR	4	13	1	TYPIST	1532	n/a	1	0	0.5869140625	0.422607421875	upper	../fonts/amplitud.ttf
2168107	WORD	wordpools/wasnorm_wordpool_less_exclusions.txt	LTP192	ltpFR	4	13	0	MECHANIC	884	n/a	1	1	0.412841796875	0.57763671875	lower	../fonts/zerothre.ttf
2171971	WORD	wordpools/wasnorm_wordpool_less_exclusions.txt	LTP192	ltpFR	4	13	0	LOOP	844	n/a	1	1	0.412841796875	0.57763671875	lower	../fonts/zerothre.ttf
2177928	REC_START	n/a	LTP192	ltpFR	4	13	n/a	n/a	n/a	n/a	n/a	n/a	n/a	n/a	n/a	n/a
2178671	REC_WORD	wordpools/wasnorm_wordpool_less_exclusions.txt	LTP192	ltpFR	4	13	0	JEWEL	757	n/a	0	n/a	n/a	n/a	n/a	n/a
2179484	REC_WORD	wordpools/wasnorm_wordpool_less_exclusions.txt	LTP192	ltpFR	4	13	0	MECHANIC	884	n/a	1	n/a	n/a	n/a	n/a	n/a
2180328	REC_WORD	wordpools/wasnorm_wordpool_less_exclusions.txt	LTP192	ltpFR	4	13	0	LOOP	844	n/a	1	n/a	n/a	n/a	n/a	n/a
2181240	REC_WORD	wordpools/wasnorm_wordpool_less_exclusions.txt	LTP192	ltpFR	4	13	1	TYPIST	1532	n/a	1	n/a	n/a	n/a	n/a	n/a
2183091	REC_WORD	wordpools/wasnorm_wordpool_less_exclusions.txt	LTP192	ltpFR	4	13	1	UNIVERSE	1540	n/a	1	n/a	n/a	n/a	n/a	n/a
2194415	REC_WORD	wordpools/wasnorm_wordpool_less_exclusions.txt	LTP192	ltpFR	4	13	0	KIWI	781	n/a	0	n/a	n/a	n/a	n/a	n/a
2195398	REC_WORD	wordpools/wasnorm_wordpool_less_exclusions.txt	LTP192	ltpFR	4	13	0	RASPBERRY	1168	n/a	0	n/a	n/a	n/a	n/a	n/a
2217124	REC_WORD	wordpools/wasnorm_wordpool_less_exclusions.txt	LTP192	ltpFR	4	13	0	DOORBELL	487	n/a	0	n/a	n/a	n/a	n/a	n/a
2226270	REC_WORD_VV	wordpools/wasnorm_wordpool_less_exclusions.txt	LTP192	ltpFR	4	13	n/a	<>	-1	n/a	n/a	n/a	n/a	n/a	n/a	n/a
2226811	REC_WORD	wordpools/wasnorm_wordpool_less_exclusions.txt	LTP192	ltpFR	4	13	0	MECHANIC	884	n/a	1	n/a	n/a	n/a	n/a	n/a
2260722	WORD	wordpools/wasnorm_wordpool_less_exclusions.txt	LTP192	ltpFR	4	14	0	CAR	241	n/a	1	1	0.412841796875	0.57763671875	lower	../fonts/zerothre.ttf
2264622	WORD	wordpools/wasnorm_wordpool_less_exclusions.txt	LTP192	ltpFR	4	14	0	NOTE	958	n/a	0	1	0.412841796875	0.57763671875	lower	../fonts/zerothre.ttf
2268719	WORD	wordpools/wasnorm_wordpool_less_exclusions.txt	LTP192	ltpFR	4	14	0	GORILLA	650	n/a	1	1	0.412841796875	0.57763671875	lower	../fonts/zerothre.ttf
2272852	WORD	wordpools/wasnorm_wordpool_less_exclusions.txt	LTP192	ltpFR	4	14	0	PADDING	999	n/a	0	1	0.412841796875	0.57763671875	lower	../fonts/zerothre.ttf
2277051	WORD	wordpools/wasnorm_wordpool_less_exclusions.txt	LTP192	ltpFR	4	14	1	EMERALD	528	n/a	0	0	0.5869140625	0.422607421875	upper	../fonts/amplitud.ttf
2280952	WORD	wordpools/wasnorm_wordpool_less_exclusions.txt	LTP192	ltpFR	4	14	1	SHARK	1275	n/a	1	0	0.5869140625	0.422607421875	upper	../fonts/amplitud.ttf
2284797	WORD	wordpools/wasnorm_wordpool_less_exclusions.txt	LTP192	ltpFR	4	14	1	VEST	1559	n/a	0	0	0.5869140625	0.422607421875	upper	../fonts/amplitud.ttf
2288863	WORD	wordpools/wasnorm_wordpool_less_exclusions.txt	LTP192	ltpFR	4	14	1	MINK	897	n/a	0	0	0.5869140625	0.422607421875	upper	../fonts/amplitud.ttf
2292743	WORD	wordpools/wasnorm_wordpool_less_exclusions.txt	LTP192	ltpFR	4	14	0	RAFT	1159	n/a	0	1	0.412841796875	0.57763671875	lower	../fonts/zerothre.ttf
2296793	WORD	wordpools/wasnorm_wordpool_less_exclusions.txt	LTP192	ltpFR	4	14	0	SHIP	1286	n/a	1	1	0.412841796875	0.57763671875	lower	../fonts/zerothre.ttf
2300907	WORD	wordpools/wasnorm_wordpool_less_exclusions.txt	LTP192	ltpFR	4	14	0	WAGON	1578	n/a	1	1	0.412841796875	0.57763671875	lower	../fonts/zerothre.ttf
2304939	WORD	wordpools/wasnorm_wordpool_less_exclusions.txt	LTP192	ltpFR	4	14	0	CATERPILLAR	259	n/a	0	1	0.412841796875	0.57763671875	lower	../fonts/zerothre.ttf
2308838	WORD	wordpools/wasnorm_wordpool_less_exclusions.txt	LTP192	ltpFR	4	14	1	WINGS	1614	n/a	0	0	0.5869140625	0.422607421875	upper	../fonts/amplitud.ttf
2312853	WORD	wordpools/wasnorm_wordpool_less_exclusions.txt	LTP192	ltpFR	4	14	1	POND	1101	n/a	1	0	0.5869140625	0.422607421875	upper	../fonts/amplitud.ttf
2316901	WORD	wordpools/wasnorm_wordpool_less_exclusions.txt	LTP192	ltpFR	4	14	1	PRIMATE	1123	n/a	1	0	0.5869140625	0.422607421875	upper	../fonts/amplitud.ttf
2321016	WORD	wordpools/wasnorm_wordpool_less_exclusions.txt	LTP192	ltpFR	4	14	1	ROUGE	1213	n/a	0	0	0.5869140625	0.422607421875	upper	../fonts/amplitud.ttf
2326705	REC_START	n/a	LTP192	ltpFR	4	14	n/a	n/a	n/a	n/a	n/a	n/a	n/a	n/a	n/a	n/a
2327263	REC_WORD	wordpools/wasnorm_wordpool_less_exclusions.txt	LTP192	ltpFR	4	14	1	PRIMATE	1123	n/a	1	n/a	n/a	n/a	n/a	n/a
2328186	REC_WORD	wordpools/wasnorm_wordpool_less_exclusions.txt	LTP192	ltpFR	4	14	1	ROUGE	1213	n/a	0	n/a	n/a	n/a	n/a	n/a
2329194	REC_WORD	wordpools/wasnorm_wordpool_less_exclusions.txt	LTP192	ltpFR	4	14	1	POND	1101	n/a	1	n/a	n/a	n/a	n/a	n/a
2331319	REC_WORD	wordpools/wasnorm_wordpool_less_exclusions.txt	LTP192	ltpFR	4	14	0	CAR	241	n/a	1	n/a	n/a	n/a	n/a	n/a
2333479	REC_WORD	wordpools/wasnorm_wordpool_less_exclusions.txt	LTP192	ltpFR	4	14	0	CATERPILLAR	259	n/a	0	n/a	n/a	n/a	n/a	n/a
2344240	REC_WORD	wordpools/wasnorm_wordpool_less_exclusions.txt	LTP192	ltpFR	4	14	1	MINK	897	n/a	0	n/a	n/a	n/a	n/a	n/a
2411960	WORD	wordpools/wasnorm_wordpool_less_exclusions.txt	LTP192	ltpFR	4	15	-1	MEAL	882	n/a	-1	1	1.0	1.0	upper	../fonts/Verdana.ttf
2415808	WORD	wordpools/wasnorm_wordpool_less_exclusions.txt	LTP192	ltpFR	4	15	-1	SPOOL	1356	n/a	-1	1	1.0	1.0	upper	../fonts/Verdana.ttf
2419810	WORD	wordpools/wasnorm_wordpool_less_exclusions.txt	LTP192	ltpFR	4	15	-1	ATTIRE	57	n/a	-1	1	1.0	1.0	upper	../fonts/Verdana.ttf
2423737	WORD	wordpools/wasnorm_wordpool_less_exclusions.txt	LTP192	ltpFR	4	15	-1	HAMPER	682	n/a	-1	1	1.0	1.0	upper	../fonts/Verdana.ttf
2427919	WORD	wordpools/wasnorm_wordpool_less_exclusions.txt	LTP192	ltpFR	4	15	-1	PARIS	1014	n/a	-1	1	1.0	1.0	upper	../fonts/Verdana.ttf
2431767	WORD	wordpools/wasnorm_wordpool_less_exclusions.txt	LTP192	ltpFR	4	15	-1	AFRICA	9	n/a	-1	1	1.0	1.0	upper	../fonts/Verdana.ttf
2435715	WORD	wordpools/wasnorm_wordpool_less_exclusions.txt	LTP192	ltpFR	4	15	-1	HAND	683	n/a	-1	1	1.0	1.0	upper	../fonts/Verdana.ttf
2439596	WORD	wordpools/wasnorm_wordpool_less_exclusions.txt	LTP192	ltpFR	4	15	-1	BEDROOM	111	n/a	-1	1	1.0	1.0	upper	../fonts/Verdana.ttf
2443581	WORD	wordpools/wasnorm_wordpool_less_exclusions.txt	LTP192	ltpFR	4	15	-1	ERASER	538	n/a	-1	1	1.0	1.0	upper	../fonts/Verdana.ttf
2447710	WORD	wordpools/wasnorm_wordpool_less_exclusions.txt	LTP192	ltpFR	4	15	-1	BAKER	71	n/a	-1	1	1.0	1.0	upper	../fonts/Verdana.ttf
2451592	WORD	wordpools/wasnorm_wordpool_less_exclusions.txt	LTP192	ltpFR	4	15	-1	DRUM	502	n/a	-1	1	1.0	1.0	upper	../fonts/Verdana.ttf
2455508	WORD	wordpools/wasnorm_wordpool_less_exclusions.txt	LTP192	ltpFR	4	15	-1	PUBLICATION	1136	n/a	-1	1	1.0	1.0	upper	../fonts/Verdana.ttf
2459421	WORD	wordpools/wasnorm_wordpool_less_exclusions.txt	LTP192	ltpFR	4	15	-1	LITERATURE	831	n/a	-1	1	1.0	1.0	upper	../fonts/Verdana.ttf
2463470	WORD	wordpools/wasnorm_wordpool_less_exclusions.txt	LTP192	ltpFR	4	15	-1	TOENAIL	1474	n/a	-1	1	1.0	1.0	upper	../fonts/Verdana.ttf
2467435	WORD	wordpools/wasnorm_wordpool_less_exclusions.txt	LTP192	ltpFR	4	15	-1	PAINT	1003	n/a	-1	1	1.0	1.0	upper	../fonts/Verdana.ttf
2471517	WORD	wordpools/wasnorm_wordpool_less_exclusions.txt	LTP192	ltpFR	4	15	-1	TROMBONE	1508	n/a	-1	1	1.0	1.0	upper	../fonts/Verdana.ttf
2477440	REC_START	n/a	LTP192	ltpFR	4	15	n/a	n/a	n/a	n/a	n/a	n/a	n/a	n/a	n/a	n/a
2478078	REC_WORD	wordpools/wasnorm_wordpool_less_exclusions.txt	LTP192	ltpFR	4	15	-1	PAINT	1003	n/a	-1	n/a	n/a	n/a	n/a	n/a
2478861	REC_WORD	wordpools/wasnorm_wordpool_less_exclusions.txt	LTP192	ltpFR	4	15	-1	LITERATURE	831	n/a	-1	n/a	n/a	n/a	n/a	n/a
2479720	REC_WORD	wordpools/wasnorm_wordpool_less_exclusions.txt	LTP192	ltpFR	4	15	-1	TOENAIL	1474	n/a	-1	n/a	n/a	n/a	n/a	n/a
2480448	REC_WORD	wordpools/wasnorm_wordpool_less_exclusions.txt	LTP192	ltpFR	4	15	-1	TROMBONE	1508	n/a	-1	n/a	n/a	n/a	n/a	n/a
2483740	REC_WORD	wordpools/wasnorm_wordpool_less_exclusions.txt	LTP192	ltpFR	4	15	-1	AFRICA	9	n/a	-1	n/a	n/a	n/a	n/a	n/a
2484570	REC_WORD	wordpools/wasnorm_wordpool_less_exclusions.txt	LTP192	ltpFR	4	15	-1	ERASER	538	n/a	-1	n/a	n/a	n/a	n/a	n/a
2490340	REC_WORD	wordpools/wasnorm_wordpool_less_exclusions.txt	LTP192	ltpFR	4	15	-1	SPOOL	1356	n/a	-1	n/a	n/a	n/a	n/a	n/a
2494970	REC_WORD	wordpools/wasnorm_wordpool_less_exclusions.txt	LTP192	ltpFR	4	15	-1	PUBLICATION	1136	n/a	-1	n/a	n/a	n/a	n/a	n/a
2523340	REC_WORD	wordpools/wasnorm_wordpool_less_exclusions.txt	LTP192	ltpFR	4	15	-1	HAND	683	n/a	-1	n/a	n/a	n/a	n/a	n/a
2562192	WORD	wordpools/wasnorm_wordpool_less_exclusions.txt	LTP192	ltpFR	4	16	0	CLOVE	329	n/a	0	1	0.412841796875	0.57763671875	lower	../fonts/zerothre.ttf
2566257	WORD	wordpools/wasnorm_wordpool_less_exclusions.txt	LTP192	ltpFR	4	16	0	LOLLIPOP	842	n/a	0	1	0.412841796875	0.57763671875	lower	../fonts/zerothre.ttf
2570423	WORD	wordpools/wasnorm_wordpool_less_exclusions.txt	LTP192	ltpFR	4	16	0	CRAB	397	n/a	0	1	0.412841796875	0.57763671875	lower	../fonts/zerothre.ttf
2574254	WORD	wordpools/wasnorm_wordpool_less_exclusions.txt	LTP192	ltpFR	4	16	0	SOCIETY	1338	n/a	1	1	0.412841796875	0.57763671875	lower	../fonts/zerothre.ttf
2578269	WORD	wordpools/wasnorm_wordpool_less_exclusions.txt	LTP192	ltpFR	4	16	0	KITCHEN	778	n/a	1	1	0.412841796875	0.57763671875	lower	../fonts/zerothre.ttf
2582385	WORD	wordpools/wasnorm_wordpool_less_exclusions.txt	LTP192	ltpFR	4	16	0	CAULIFLOWER	262	n/a	0	1	0.412841796875	0.57763671875	lower	../fonts/zerothre.ttf
2586567	WORD	wordpools/wasnorm_wordpool_less_exclusions.txt	LTP192	ltpFR	4	16	0	GANG	619	n/a	1	1	0.412841796875	0.57763671875	lower	../fonts/zerothre.ttf
2590733	WORD	wordpools/wasnorm_wordpool_less_exclusions.txt	LTP192	ltpFR	4	16	0	BUREAU	199	n/a	1	1	0.412841796875	0.57763671875	lower	../fonts/zerothre.ttf
2594849	WORD	wordpools/wasnorm_wordpool_less_exclusions.txt	LTP192	ltpFR	4	16	0	OUTFIT	988	n/a	1	1	0.412841796875	0.57763671875	lower	../fonts/zerothre.ttf
2598797	WORD	wordpools/wasnorm_wordpool_less_exclusions.txt	LTP192	ltpFR	4	16	0	TREAT	1501	n/a	0	1	0.412841796875	0.57763671875	lower	../fonts/zerothre.ttf
2602813	WORD	wordpools/wasnorm_wordpool_less_exclusions.txt	LTP192	ltpFR	4	16	0	TUNNEL	1519	n/a	1	1	0.412841796875	0.57763671875	lower	../fonts/zerothre.ttf
2606626	WORD	wordpools/wasnorm_wordpool_less_exclusions.txt	LTP192	ltpFR	4	16	0	COLLEGE	346	n/a	1	1	0.412841796875	0.57763671875	lower	../fonts/zerothre.ttf
2610658	WORD	wordpools/wasnorm_wordpool_less_exclusions.txt	LTP192	ltpFR	4	16	0	WASHER	1592	n/a	1	1	0.412841796875	0.57763671875	lower	../fonts/zerothre.ttf
2614591	WORD	wordpools/wasnorm_wordpool_less_exclusions.txt	LTP192	ltpFR	4	16	0	LINT	826	n/a	0	1	0.412841796875	0.57763671875	lower	../fonts/zerothre.ttf
2618521	WORD	wordpools/wasnorm_wordpool_less_exclusions.txt	LTP192	ltpFR	4	16	0	CREAM	402	n/a	0	1	0.412841796875	0.57763671875	lower	../fonts/zerothre.ttf
2622385	WORD	wordpools/wasnorm_wordpool_less_exclusions.txt	LTP192	ltpFR	4	16	0	WHEAT	1602	n/a	0	1	0.412841796875	0.57763671875	lower	../fonts/zerothre.ttf
2628158	REC_START	n/a	LTP192	ltpFR	4	16	n/a	n/a	n/a	n/a	n/a	n/a	n/a	n/a	n/a	n/a
2629006	REC_WORD	wordpools/wasnorm_wordpool_less_exclusions.txt	LTP192	ltpFR	4	16	0	CREAM	402	n/a	0	n/a	n/a	n/a	n/a	n/a
2629819	REC_WORD	wordpools/wasnorm_wordpool_less_exclusions.txt	LTP192	ltpFR	4	16	0	WHEAT	1602	n/a	0	n/a	n/a	n/a	n/a	n/a
2630577	REC_WORD	wordpools/wasnorm_wordpool_less_exclusions.txt	LTP192	ltpFR	4	16	0	WASHER	1592	n/a	1	n/a	n/a	n/a	n/a	n/a
2631455	REC_WORD	wordpools/wasnorm_wordpool_less_exclusions.txt	LTP192	ltpFR	4	16	0	SOCIETY	1338	n/a	1	n/a	n/a	n/a	n/a	n/a
2638748	REC_WORD	wordpools/wasnorm_wordpool_less_exclusions.txt	LTP192	ltpFR	4	16	0	GANG	619	n/a	1	n/a	n/a	n/a	n/a	n/a
2645349	REC_WORD	wordpools/wasnorm_wordpool_less_exclusions.txt	LTP192	ltpFR	4	16	0	OUTFIT	988	n/a	1	n/a	n/a	n/a	n/a	n/a
2660200	REC_WORD	wordpools/wasnorm_wordpool_less_exclusions.txt	LTP192	ltpFR	4	16	0	CAULIFLOWER	262	n/a	0	n/a	n/a	n/a	n/a	n/a
2661178	REC_WORD	wordpools/wasnorm_wordpool_less_exclusions.txt	LTP192	ltpFR	4	16	0	KITCHEN	778	n/a	1	n/a	n/a	n/a	n/a	n/a
2664959	REC_WORD	wordpools/wasnorm_wordpool_less_exclusions.txt	LTP192	ltpFR	4	16	0	CLOVE	329	n/a	0	n/a	n/a	n/a	n/a	n/a
2720523	REC_START	n/a	LTP192	ltpFR	4	n/a	n/a	n/a	n/a	n/a	n/a	n/a	n/a	n/a	n/a	n/a
2720991	FFR_REC_WORD	wordpools/wasnorm_wordpool_less_exclusions.txt	LTP192	ltpFR	4	n/a	0	CLOVE	329	n/a	0	n/a	n/a	n/a	n/a	n/a
2721910	FFR_REC_WORD	wordpools/wasnorm_wordpool_less_exclusions.txt	LTP192	ltpFR	4	n/a	0	CAULIFLOWER	262	n/a	0	n/a	n/a	n/a	n/a	n/a
2722748	FFR_REC_WORD	wordpools/wasnorm_wordpool_less_exclusions.txt	LTP192	ltpFR	4	n/a	0	KITCHEN	778	n/a	1	n/a	n/a	n/a	n/a	n/a
2723381	FFR_REC_WORD	wordpools/wasnorm_wordpool_less_exclusions.txt	LTP192	ltpFR	4	n/a	-1	UTENSIL	1542	n/a	-1	n/a	n/a	n/a	n/a	n/a
2724169	FFR_REC_WORD	wordpools/wasnorm_wordpool_less_exclusions.txt	LTP192	ltpFR	4	n/a	-1	SPOOL	1356	n/a	-1	n/a	n/a	n/a	n/a	n/a
2725671	FFR_REC_WORD	wordpools/wasnorm_wordpool_less_exclusions.txt	LTP192	ltpFR	4	n/a	0	SOCIETY	1338	n/a	1	n/a	n/a	n/a	n/a	n/a
2726744	FFR_REC_WORD	wordpools/wasnorm_wordpool_less_exclusions.txt	LTP192	ltpFR	4	n/a	0	CATERPILLAR	259	n/a	0	n/a	n/a	n/a	n/a	n/a
2727586	FFR_REC_WORD	wordpools/wasnorm_wordpool_less_exclusions.txt	LTP192	ltpFR	4	n/a	0	COCOON	339	n/a	0	n/a	n/a	n/a	n/a	n/a
2730380	FFR_REC_WORD	wordpools/wasnorm_wordpool_less_exclusions.txt	LTP192	ltpFR	4	n/a	1	COMMANDER	354	n/a	1	n/a	n/a	n/a	n/a	n/a
2731383	FFR_REC_WORD	wordpools/wasnorm_wordpool_less_exclusions.txt	LTP192	ltpFR	4	n/a	1	LIEUTENANT	818	n/a	1	n/a	n/a	n/a	n/a	n/a
2734037	FFR_REC_WORD	wordpools/wasnorm_wordpool_less_exclusions.txt	LTP192	ltpFR	4	n/a	1	OFFICER	973	n/a	1	n/a	n/a	n/a	n/a	n/a
2736057	FFR_REC_WORD	wordpools/wasnorm_wordpool_less_exclusions.txt	LTP192	ltpFR	4	n/a	1	BEAST	108	n/a	1	n/a	n/a	n/a	n/a	n/a
2736945	FFR_REC_WORD	wordpools/wasnorm_wordpool_less_exclusions.txt	LTP192	ltpFR	4	n/a	1	BELLY	119	n/a	0	n/a	n/a	n/a	n/a	n/a
2737978	FFR_REC_WORD	wordpools/wasnorm_wordpool_less_exclusions.txt	LTP192	ltpFR	4	n/a	0	CREAM	402	n/a	0	n/a	n/a	n/a	n/a	n/a
2738706	FFR_REC_WORD	wordpools/wasnorm_wordpool_less_exclusions.txt	LTP192	ltpFR	4	n/a	0	WHEAT	1602	n/a	0	n/a	n/a	n/a	n/a	n/a
2739863	FFR_REC_WORD	wordpools/wasnorm_wordpool_less_exclusions.txt	LTP192	ltpFR	4	n/a	0	BREAD	170	n/a	0	n/a	n/a	n/a	n/a	n/a
2740807	FFR_REC_WORD	wordpools/wasnorm_wordpool_less_exclusions.txt	LTP192	ltpFR	4	n/a	0	BEE	112	n/a	0	n/a	n/a	n/a	n/a	n/a
2742567	FFR_REC_WORD	wordpools/wasnorm_wordpool_less_exclusions.txt	LTP192	ltpFR	4	n/a	0	BEETLE	116	n/a	0	n/a	n/a	n/a	n/a	n/a
2744688	FFR_REC_WORD	wordpools/wasnorm_wordpool_less_exclusions.txt	LTP192	ltpFR	4	n/a	0	OUTFIT	988	n/a	1	n/a	n/a	n/a	n/a	n/a
2745925	FFR_REC_WORD	wordpools/wasnorm_wordpool_less_exclusions.txt	LTP192	ltpFR	4	n/a	0	GANG	619	n/a	1	n/a	n/a	n/a	n/a	n/a
2747013	FFR_REC_WORD	wordpools/wasnorm_wordpool_less_exclusions.txt	LTP192	ltpFR	4	n/a	0	OUTLAW	989	n/a	1	n/a	n/a	n/a	n/a	n/a
2753782	FFR_REC_WORD	wordpools/wasnorm_wordpool_less_exclusions.txt	LTP192	ltpFR	4	n/a	-1	CHAMPION	279	n/a	-1	n/a	n/a	n/a	n/a	n/a
2755014	FFR_REC_WORD	wordpools/wasnorm_wordpool_less_exclusions.txt	LTP192	ltpFR	4	n/a	1	ATHLETE	52	n/a	1	n/a	n/a	n/a	n/a	n/a
2757000	FFR_REC_WORD	wordpools/wasnorm_wordpool_less_exclusions.txt	LTP192	ltpFR	4	n/a	-1	PUBLICATION	1136	n/a	-1	n/a	n/a	n/a	n/a	n/a
2758761	FFR_REC_WORD	wordpools/wasnorm_wordpool_less_exclusions.txt	LTP192	ltpFR	4	n/a	1	TYPIST	1532	n/a	1	n/a	n/a	n/a	n/a	n/a
2759644	FFR_REC_WORD	wordpools/wasnorm_wordpool_less_exclusions.txt	LTP192	ltpFR	4	n/a	1	STEWARDESS	1381	n/a	1	n/a	n/a	n/a	n/a	n/a
2761165	FFR_REC_WORD	wordpools/wasnorm_wordpool_less_exclusions.txt	LTP192	ltpFR	4	n/a	0	ASSISTANT	48	n/a	1	n/a	n/a	n/a	n/a	n/a
2763126	FFR_REC_WORD	wordpools/wasnorm_wordpool_less_exclusions.txt	LTP192	ltpFR	4	n/a	0	REFEREE	1178	n/a	1	n/a	n/a	n/a	n/a	n/a
2764178	FFR_REC_WORD	wordpools/wasnorm_wordpool_less_exclusions.txt	LTP192	ltpFR	4	n/a	0	DRIVER	499	n/a	1	n/a	n/a	n/a	n/a	n/a
2765890	FFR_REC_WORD	wordpools/wasnorm_wordpool_less_exclusions.txt	LTP192	ltpFR	4	n/a	0	CAR	241	n/a	1	n/a	n/a	n/a	n/a	n/a
2771711	FFR_REC_WORD	wordpools/wasnorm_wordpool_less_exclusions.txt	LTP192	ltpFR	4	n/a	1	PISTON	1076	n/a	0	n/a	n/a	n/a	n/a	n/a
2784946	FFR_REC_WORD	wordpools/wasnorm_wordpool_less_exclusions.txt	LTP192	ltpFR	4	n/a	1	MINK	897	n/a	0	n/a	n/a	n/a	n/a	n/a
2786293	FFR_REC_WORD	wordpools/wasnorm_wordpool_less_exclusions.txt	LTP192	ltpFR	4	n/a	1	BARK	87	n/a	0	n/a	n/a	n/a	n/a	n/a
2794011	FFR_REC_WORD	wordpools/wasnorm_wordpool_less_exclusions.txt	LTP192	ltpFR	4	n/a	-1	PIG	1064	n/a	-1	n/a	n/a	n/a	n/a	n/a
2794834	FFR_REC_WORD	wordpools/wasnorm_wordpool_less_exclusions.txt	LTP192	ltpFR	4	n/a	-1	TOENAIL	1474	n/a	-1	n/a	n/a	n/a	n/a	n/a
2799793	FFR_REC_WORD	wordpools/wasnorm_wordpool_less_exclusions.txt	LTP192	ltpFR	4	n/a	-1	SOFA	1342	n/a	-1	n/a	n/a	n/a	n/a	n/a
2800546	FFR_REC_WORD	wordpools/wasnorm_wordpool_less_exclusions.txt	LTP192	ltpFR	4	n/a	-1	COUCH	386	n/a	-1	n/a	n/a	n/a	n/a	n/a
2801464	FFR_REC_WORD	wordpools/wasnorm_wordpool_less_exclusions.txt	LTP192	ltpFR	4	n/a	-1	COCKTAIL	338	n/a	-1	n/a	n/a	n/a	n/a	n/a
2804801	FFR_REC_WORD	wordpools/wasnorm_wordpool_less_exclusions.txt	LTP192	ltpFR	4	n/a	-1	BOTTLE	153	n/a	-1	n/a	n/a	n/a	n/a	n/a
2811321	FFR_REC_WORD	wordpools/wasnorm_wordpool_less_exclusions.txt	LTP192	ltpFR	4	n/a	1	CHIME	300	n/a	0	n/a	n/a	n/a	n/a	n/a
2822247	FFR_REC_WORD	wordpools/wasnorm_wordpool_less_exclusions.txt	LTP192	ltpFR	4	n/a	0	COUNTY	389	n/a	1	n/a	n/a	n/a	n/a	n/a
2823179	FFR_REC_WORD	wordpools/wasnorm_wordpool_less_exclusions.txt	LTP192	ltpFR	4	n/a	n/a	SEA	1259	n/a	n/a	n/a	n/a	n/a	n/a	n/a
2824142	FFR_REC_WORD	wordpools/wasnorm_wordpool_less_exclusions.txt	LTP192	ltpFR	4	n/a	-1	OCEAN	970	n/a	-1	n/a	n/a	n/a	n/a	n/a
2825040	FFR_REC_WORD	wordpools/wasnorm_wordpool_less_exclusions.txt	LTP192	ltpFR	4	n/a	-1	WATER	1594	n/a	-1	n/a	n/a	n/a	n/a	n/a
2831276	FFR_REC_WORD	wordpools/wasnorm_wordpool_less_exclusions.txt	LTP192	ltpFR	4	n/a	-1	AFRICA	9	n/a	-1	n/a	n/a	n/a	n/a	n/a
2832109	FFR_REC_WORD	wordpools/wasnorm_wordpool_less_exclusions.txt	LTP192	ltpFR	4	n/a	-1	ERASER	538	n/a	-1	n/a	n/a	n/a	n/a	n/a
2833037	FFR_REC_WORD	wordpools/wasnorm_wordpool_less_exclusions.txt	LTP192	ltpFR	4	n/a	0	DOORBELL	487	n/a	0	n/a	n/a	n/a	n/a	n/a
2845663	FFR_REC_WORD	wordpools/wasnorm_wordpool_less_exclusions.txt	LTP192	ltpFR	4	n/a	0	TWINE	1529	n/a	0	n/a	n/a	n/a	n/a	n/a
2846717	FFR_REC_WORD	wordpools/wasnorm_wordpool_less_exclusions.txt	LTP192	ltpFR	4	n/a	0	YARN	1631	n/a	0	n/a	n/a	n/a	n/a	n/a
2847589	FFR_REC_WORD	wordpools/wasnorm_wordpool_less_exclusions.txt	LTP192	ltpFR	4	n/a	n/a	MOUSE	925	n/a	n/a	n/a	n/a	n/a	n/a	n/a
2850183	FFR_REC_WORD	wordpools/wasnorm_wordpool_less_exclusions.txt	LTP192	ltpFR	4	n/a	0	POPE	1105	n/a	1	n/a	n/a	n/a	n/a	n/a
2850891	FFR_REC_WORD	wordpools/wasnorm_wordpool_less_exclusions.txt	LTP192	ltpFR	4	n/a	0	NUN	962	n/a	1	n/a	n/a	n/a	n/a	n/a
2851515	FFR_REC_WORD	wordpools/wasnorm_wordpool_less_exclusions.txt	LTP192	ltpFR	4	n/a	0	CARDINAL	244	n/a	0	n/a	n/a	n/a	n/a	n/a
2852423	FFR_REC_WORD	wordpools/wasnorm_wordpool_less_exclusions.txt	LTP192	ltpFR	4	n/a	0	BLUEJAY	141	n/a	0	n/a	n/a	n/a	n/a	n/a
2863318	FFR_REC_WORD	wordpools/wasnorm_wordpool_less_exclusions.txt	LTP192	ltpFR	4	n/a	0	SAND	1230	n/a	0	n/a	n/a	n/a	n/a	n/a
2867708	FFR_REC_WORD	wordpools/wasnorm_wordpool_less_exclusions.txt	LTP192	ltpFR	4	n/a	1	THUMB	1462	n/a	0	n/a	n/a	n/a	n/a	n/a
2869514	FFR_REC_WORD	wordpools/wasnorm_wordpool_less_exclusions.txt	LTP192	ltpFR	4	n/a	0	FINGER	567	n/a	0	n/a	n/a	n/a	n/a	n/a
2870462	FFR_REC_WORD	wordpools/wasnorm_wordpool_less_exclusions.txt	LTP192	ltpFR	4	n/a	1	INFANT	737	n/a	1	n/a	n/a	n/a	n/a	n/a
2872143	FFR_REC_WORD	wordpools/wasnorm_wordpool_less_exclusions.txt	LTP192	ltpFR	4	n/a	0	CHILD	299	n/a	1	n/a	n/a	n/a	n/a	n/a
2873211	FFR_REC_WORD	wordpools/wasnorm_wordpool_less_exclusions.txt	LTP192	ltpFR	4	n/a	1	UNCLE	1536	n/a	1	n/a	n/a	n/a	n/a	n/a
2873869	FFR_REC_WORD	wordpools/wasnorm_wordpool_less_exclusions.txt	LTP192	ltpFR	4	n/a	1	FATHER	554	n/a	1	n/a	n/a	n/a	n/a	n/a
2886905	FFR_REC_WORD	wordpools/wasnorm_wordpool_less_exclusions.txt	LTP192	ltpFR	4	n/a	0	PROFESSIONAL	1130	n/a	1	n/a	n/a	n/a	n/a	n/a
2889189	FFR_REC_WORD	wordpools/wasnorm_wordpool_less_exclusions.txt	LTP192	ltpFR	4	n/a	0	BANKER	84	n/a	1	n/a	n/a	n/a	n/a	n/a
2890726	FFR_REC_WORD	wordpools/wasnorm_wordpool_less_exclusions.txt	LTP192	ltpFR	4	n/a	0	EXPERT	543	n/a	1	n/a	n/a	n/a	n/a	n/a
2905083	FFR_REC_WORD	wordpools/wasnorm_wordpool_less_exclusions.txt	LTP192	ltpFR	4	n/a	-1	SPATULA	1348	n/a	-1	n/a	n/a	n/a	n/a	n/a
2907618	FFR_REC_WORD	wordpools/wasnorm_wordpool_less_exclusions.txt	LTP192	ltpFR	4	n/a	1	LID	817	n/a	0	n/a	n/a	n/a	n/a	n/a
2912247	FFR_REC_WORD	wordpools/wasnorm_wordpool_less_exclusions.txt	LTP192	ltpFR	4	n/a	0	CRAB	397	n/a	0	n/a	n/a	n/a	n/a	n/a
2917201	FFR_REC_WORD	wordpools/wasnorm_wordpool_less_exclusions.txt	LTP192	ltpFR	4	n/a	0	NOTE	958	n/a	0	n/a	n/a	n/a	n/a	n/a
2917999	FFR_REC_WORD	wordpools/wasnorm_wordpool_less_exclusions.txt	LTP192	ltpFR	4	n/a	0	PAPER	1011	n/a	0	n/a	n/a	n/a	n/a	n/a
2919286	FFR_REC_WORD	wordpools/wasnorm_wordpool_less_exclusions.txt	LTP192	ltpFR	4	n/a	0	NEWSPAPER	948	n/a	0	n/a	n/a	n/a	n/a	n/a
2920134	FFR_REC_WORD	wordpools/wasnorm_wordpool_less_exclusions.txt	LTP192	ltpFR	4	n/a	0	NEWSSTAND	949	n/a	1	n/a	n/a	n/a	n/a	n/a
2937415	FFR_REC_WORD	wordpools/wasnorm_wordpool_less_exclusions.txt	LTP192	ltpFR	4	n/a	-1	COTTAGE	384	n/a	-1	n/a	n/a	n/a	n/a	n/a
2939600	FFR_REC_WORD	wordpools/wasnorm_wordpool_less_exclusions.txt	LTP192	ltpFR	4	n/a	0	MANAGER	863	n/a	1	n/a	n/a	n/a	n/a	n/a
2947766	FFR_REC_WORD	wordpools/wasnorm_wordpool_less_exclusions.txt	LTP192	ltpFR	4	n/a	-1	MISSILE	900	n/a	-1	n/a	n/a	n/a	n/a	n/a
2980721	FFR_REC_WORD	wordpools/wasnorm_wordpool_less_exclusions.txt	LTP192	ltpFR	4	n/a	1	MARINE	869	n/a	1	n/a	n/a	n/a	n/a	n/a
2997354	FFR_REC_WORD	wordpools/wasnorm_wordpool_less_exclusions.txt	LTP192	ltpFR	4	n/a	1	NEPTUNE	943	n/a	0	n/a	n/a	n/a	n/a	n/a
2997997	FFR_REC_WORD	wordpools/wasnorm_wordpool_less_exclusions.txt	LTP192	ltpFR	4	n/a	1	MARS	873	n/a	0	n/a	n/a	n/a	n/a	n/a
3006997	FFR_REC_WORD	wordpools/wasnorm_wordpool_less_exclusions.txt	LTP192	ltpFR	4	n/a	0	SHIP	1286	n/a	1	n/a	n/a	n/a	n/a	n/a
3011067	FFR_REC_WORD	wordpools/wasnorm_wordpool_less_exclusions.txt	LTP192	ltpFR	4	n/a	0	RAFT	1159	n/a	0	n/a	n/a	n/a	n/a	n/a
3047656	REC_START	n/a	LTP192	ltpFR	4	1	n/a	n/a	n/a	n/a	n/a	n/a	n/a	n/a	n/a	n/a
3047705	RECOG_TARGET	n/a	LTP192	ltpFR	4	1	-1	TIDE	1465	4	-1	n/a	n/a	n/a	n/a	n/a
3049179	RECOG_RESP	n/a	LTP192	ltpFR	4	1	-1	TIDE	1465	n/a	-1	n/a	n/a	n/a	n/a	n/a
3050365	RECOG_CONF	n/a	LTP192	ltpFR	4	1	-1	TIDE	1465	4	-1	n/a	n/a	n/a	n/a	n/a
3052138	RECOG_LURE	n/a	LTP192	ltpFR	4	1	n/a	CASHEW	253	4	n/a	n/a	n/a	n/a	n/a	n/a
3052871	RECOG_RESP	n/a	LTP192	ltpFR	4	1	n/a	CASHEW	253	n/a	n/a	n/a	n/a	n/a	n/a	n/a
3053724	RECOG_CONF	n/a	LTP192	ltpFR	4	1	n/a	CASHEW	253	4	n/a	n/a	n/a	n/a	n/a	n/a
3055585	RECOG_LURE	n/a	LTP192	ltpFR	4	1	n/a	ACROBAT	4	1	n/a	n/a	n/a	n/a	n/a	n/a
3056878	RECOG_RESP	n/a	LTP192	ltpFR	4	1	n/a	ACROBAT	4	n/a	n/a	n/a	n/a	n/a	n/a	n/a
3057865	RECOG_CONF	n/a	LTP192	ltpFR	4	1	n/a	ACROBAT	4	1	n/a	n/a	n/a	n/a	n/a	n/a
3059767	RECOG_TARGET	n/a	LTP192	ltpFR	4	1	1	SHEARS	1276	3	0	n/a	n/a	n/a	n/a	n/a
3060743	RECOG_RESP	n/a	LTP192	ltpFR	4	1	1	SHEARS	1276	n/a	0	n/a	n/a	n/a	n/a	n/a
3061605	RECOG_CONF	n/a	LTP192	ltpFR	4	1	1	SHEARS	1276	3	0	n/a	n/a	n/a	n/a	n/a
3063300	RECOG_LURE	n/a	LTP192	ltpFR	4	1	n/a	QUILT	1151	2	n/a	n/a	n/a	n/a	n/a	n/a
3064207	RECOG_RESP	n/a	LTP192	ltpFR	4	1	n/a	QUILT	1151	n/a	n/a	n/a	n/a	n/a	n/a	n/a
3065255	RECOG_CONF	n/a	LTP192	ltpFR	4	1	n/a	QUILT	1151	2	n/a	n/a	n/a	n/a	n/a	n/a
3066962	RECOG_TARGET	n/a	LTP192	ltpFR	4	1	1	CHIMPANZEE	302	5	1	n/a	n/a	n/a	n/a	n/a
3067548	RECOG_RESP	n/a	LTP192	ltpFR	4	1	1	CHIMPANZEE	302	n/a	1	n/a	n/a	n/a	n/a	n/a
3068489	RECOG_CONF	n/a	LTP192	ltpFR	4	1	1	CHIMPANZEE	302	5	1	n/a	n/a	n/a	n/a	n/a
3070308	RECOG_TARGET	n/a	LTP192	ltpFR	4	1	1	ATHLETE	52	5	1	n/a	n/a	n/a	n/a	n/a
3070885	RECOG_RESP	n/a	LTP192	ltpFR	4	1	1	ATHLETE	52	n/a	1	n/a	n/a	n/a	n/a	n/a
3071712	RECOG_CONF	n/a	LTP192	ltpFR	4	1	1	ATHLETE	52	5	1	n/a	n/a	n/a	n/a	n/a
3073519	RECOG_TARGET	n/a	LTP192	ltpFR	4	1	-1	FURNITURE	616	5	-1	n/a	n/a	n/a	n/a	n/a
3074149	RECOG_RESP	n/a	LTP192	ltpFR	4	1	-1	FURNITURE	616	n/a	-1	n/a	n/a	n/a	n/a	n/a
3075108	RECOG_CONF	n/a	LTP192	ltpFR	4	1	-1	FURNITURE	616	5	-1	n/a	n/a	n/a	n/a	n/a
3076767	RECOG_TARGET	n/a	LTP192	ltpFR	4	1	0	PADDING	999	4	0	n/a	n/a	n/a	n/a	n/a
3077668	RECOG_RESP	n/a	LTP192	ltpFR	4	1	0	PADDING	999	n/a	0	n/a	n/a	n/a	n/a	n/a
3078770	RECOG_CONF	n/a	LTP192	ltpFR	4	1	0	PADDING	999	4	0	n/a	n/a	n/a	n/a	n/a
3080294	RECOG_TARGET	n/a	LTP192	ltpFR	4	1	1	INFANT	737	5	1	n/a	n/a	n/a	n/a	n/a
3080947	RECOG_RESP	n/a	LTP192	ltpFR	4	1	1	INFANT	737	n/a	1	n/a	n/a	n/a	n/a	n/a
3081993	RECOG_CONF	n/a	LTP192	ltpFR	4	1	1	INFANT	737	5	1	n/a	n/a	n/a	n/a	n/a
3083792	RECOG_LURE	n/a	LTP192	ltpFR	4	1	n/a	BUS	201	4	n/a	n/a	n/a	n/a	n/a	n/a
3084422	RECOG_RESP	n/a	LTP192	ltpFR	4	1	n/a	BUS	201	n/a	n/a	n/a	n/a	n/a	n/a	n/a
3085251	RECOG_CONF	n/a	LTP192	ltpFR	4	1	n/a	BUS	201	4	n/a	n/a	n/a	n/a	n/a	n/a
3086970	RECOG_LURE	n/a	LTP192	ltpFR	4	1	n/a	COLOGNE	347	5	n/a	n/a	n/a	n/a	n/a	n/a
3087686	RECOG_RESP	n/a	LTP192	ltpFR	4	1	n/a	COLOGNE	347	n/a	n/a	n/a	n/a	n/a	n/a	n/a
3088727	RECOG_CONF	n/a	LTP192	ltpFR	4	1	n/a	COLOGNE	347	5	n/a	n/a	n/a	n/a	n/a	n/a
3090382	RECOG_TARGET	n/a	LTP192	ltpFR	4	1	0	VEIN	1554	5	0	n/a	n/a	n/a	n/a	n/a
3091074	RECOG_RESP	n/a	LTP192	ltpFR	4	1	0	VEIN	1554	n/a	0	n/a	n/a	n/a	n/a	n/a
3091969	RECOG_CONF	n/a	LTP192	ltpFR	4	1	0	VEIN	1554	5	0	n/a	n/a	n/a	n/a	n/a
3093611	RECOG_TARGET	n/a	LTP192	ltpFR	4	1	-1	BOTTLE	153	5	-1	n/a	n/a	n/a	n/a	n/a
3094170	RECOG_RESP	n/a	LTP192	ltpFR	4	1	-1	BOTTLE	153	n/a	-1	n/a	n/a	n/a	n/a	n/a
3095035	RECOG_CONF	n/a	LTP192	ltpFR	4	1	-1	BOTTLE	153	5	-1	n/a	n/a	n/a	n/a	n/a
3096827	RECOG_TARGET	n/a	LTP192	ltpFR	4	1	1	POPCORN	1104	4	0	n/a	n/a	n/a	n/a	n/a
3097488	RECOG_RESP	n/a	LTP192	ltpFR	4	1	1	POPCORN	1104	n/a	0	n/a	n/a	n/a	n/a	n/a
3098388	RECOG_CONF	n/a	LTP192	ltpFR	4	1	1	POPCORN	1104	4	0	n/a	n/a	n/a	n/a	n/a
3100186	RECOG_TARGET	n/a	LTP192	ltpFR	4	1	0	CAFE	216	4	1	n/a	n/a	n/a	n/a	n/a
3100727	RECOG_RESP	n/a	LTP192	ltpFR	4	1	0	CAFE	216	n/a	1	n/a	n/a	n/a	n/a	n/a
3101612	RECOG_CONF	n/a	LTP192	ltpFR	4	1	0	CAFE	216	4	1	n/a	n/a	n/a	n/a	n/a
3103365	RECOG_LURE	n/a	LTP192	ltpFR	4	1	n/a	LUGGAGE	847	3	n/a	n/a	n/a	n/a	n/a	n/a
3103984	RECOG_RESP	n/a	LTP192	ltpFR	4	1	n/a	LUGGAGE	847	n/a	n/a	n/a	n/a	n/a	n/a	n/a
3104946	RECOG_CONF	n/a	LTP192	ltpFR	4	1	n/a	LUGGAGE	847	3	n/a	n/a	n/a	n/a	n/a	n/a
3106644	RECOG_TARGET	n/a	LTP192	ltpFR	4	1	0	CLOWN	330	4	1	n/a	n/a	n/a	n/a	n/a
3107293	RECOG_RESP	n/a	LTP192	ltpFR	4	1	0	CLOWN	330	n/a	1	n/a	n/a	n/a	n/a	n/a
3108224	RECOG_CONF	n/a	LTP192	ltpFR	4	1	0	CLOWN	330	4	1	n/a	n/a	n/a	n/a	n/a
3109807	RECOG_TARGET	n/a	LTP192	ltpFR	4	1	-1	CAFETERIA	217	4	-1	n/a	n/a	n/a	n/a	n/a
3110415	RECOG_RESP	n/a	LTP192	ltpFR	4	1	-1	CAFETERIA	217	n/a	-1	n/a	n/a	n/a	n/a	n/a
3111243	RECOG_CONF	n/a	LTP192	ltpFR	4	1	-1	CAFETERIA	217	4	-1	n/a	n/a	n/a	n/a	n/a
3112967	RECOG_LURE	n/a	LTP192	ltpFR	4	1	n/a	YACHT	1629	4	n/a	n/a	n/a	n/a	n/a	n/a
3113737	RECOG_RESP	n/a	LTP192	ltpFR	4	1	n/a	YACHT	1629	n/a	n/a	n/a	n/a	n/a	n/a	n/a
3114714	RECOG_CONF	n/a	LTP192	ltpFR	4	1	n/a	YACHT	1629	4	n/a	n/a	n/a	n/a	n/a	n/a
3118430	REC_START	n/a	LTP192	ltpFR	4	2	n/a	n/a	n/a	n/a	n/a	n/a	n/a	n/a	n/a	n/a
3118475	RECOG_LURE	n/a	LTP192	ltpFR	4	2	n/a	NUCLEUS	961	5	n/a	n/a	n/a	n/a	n/a	n/a
3119309	RECOG_RESP	n/a	LTP192	ltpFR	4	2	n/a	NUCLEUS	961	n/a	n/a	n/a	n/a	n/a	n/a	n/a
3120255	RECOG_CONF	n/a	LTP192	ltpFR	4	2	n/a	NUCLEUS	961	5	n/a	n/a	n/a	n/a	n/a	n/a
3121852	RECOG_TARGET	n/a	LTP192	ltpFR	4	2	1	TURNIP	1521	5	0	n/a	n/a	n/a	n/a	n/a
3122385	RECOG_RESP	n/a	LTP192	ltpFR	4	2	1	TURNIP	1521	n/a	0	n/a	n/a	n/a	n/a	n/a
3123344	RECOG_CONF	n/a	LTP192	ltpFR	4	2	1	TURNIP	1521	5	0	n/a	n/a	n/a	n/a	n/a
3124996	RECOG_TARGET	n/a	LTP192	ltpFR	4	2	1	LID	817	5	0	n/a	n/a	n/a	n/a	n/a
3125557	RECOG_RESP	n/a	LTP192	ltpFR	4	2	1	LID	817	n/a	0	n/a	n/a	n/a	n/a	n/a
3126372	RECOG_CONF	n/a	LTP192	ltpFR	4	2	1	LID	817	5	0	n/a	n/a	n/a	n/a	n/a
3128125	RECOG_LURE	n/a	LTP192	ltpFR	4	2	n/a	STETHOSCOPE	1379	4	n/a	n/a	n/a	n/a	n/a	n/a
3128825	RECOG_RESP	n/a	LTP192	ltpFR	4	2	n/a	STETHOSCOPE	1379	n/a	n/a	n/a	n/a	n/a	n/a	n/a
3129667	RECOG_CONF	n/a	LTP192	ltpFR	4	2	n/a	STETHOSCOPE	1379	4	n/a	n/a	n/a	n/a	n/a	n/a
3131353	RECOG_TARGET	n/a	LTP192	ltpFR	4	2	0	TUNNEL	1519	3	1	n/a	n/a	n/a	n/a	n/a
3131920	RECOG_RESP	n/a	LTP192	ltpFR	4	2	0	TUNNEL	1519	n/a	1	n/a	n/a	n/a	n/a	n/a
3132814	RECOG_CONF	n/a	LTP192	ltpFR	4	2	0	TUNNEL	1519	3	1	n/a	n/a	n/a	n/a	n/a
3134532	RECOG_TARGET	n/a	LTP192	ltpFR	4	2	1	REFRIGERATOR	1179	3	0	n/a	n/a	n/a	n/a	n/a
3135134	RECOG_RESP	n/a	LTP192	ltpFR	4	2	1	REFRIGERATOR	1179	n/a	0	n/a	n/a	n/a	n/a	n/a
3136082	RECOG_CONF	n/a	LTP192	ltpFR	4	2	1	REFRIGERATOR	1179	3	0	n/a	n/a	n/a	n/a	n/a
3137627	RECOG_TARGET	n/a	LTP192	ltpFR	4	2	1	SEAL	1262	5	0	n/a	n/a	n/a	n/a	n/a
3138247	RECOG_RESP	n/a	LTP192	ltpFR	4	2	1	SEAL	1262	n/a	0	n/a	n/a	n/a	n/a	n/a
3139111	RECOG_CONF	n/a	LTP192	ltpFR	4	2	1	SEAL	1262	5	0	n/a	n/a	n/a	n/a	n/a
3140906	RECOG_TARGET	n/a	LTP192	ltpFR	4	2	0	MECHANIC	884	4	1	n/a	n/a	n/a	n/a	n/a
3141465	RECOG_RESP	n/a	LTP192	ltpFR	4	2	0	MECHANIC	884	n/a	1	n/a	n/a	n/a	n/a	n/a
3142348	RECOG_CONF	n/a	LTP192	ltpFR	4	2	0	MECHANIC	884	4	1	n/a	n/a	n/a	n/a	n/a
3143968	RECOG_TARGET	n/a	LTP192	ltpFR	4	2	1	PLANT	1083	5	1	n/a	n/a	n/a	n/a	n/a
3144525	RECOG_RESP	n/a	LTP192	ltpFR	4	2	1	PLANT	1083	n/a	1	n/a	n/a	n/a	n/a	n/a
3145389	RECOG_CONF	n/a	LTP192	ltpFR	4	2	1	PLANT	1083	5	1	n/a	n/a	n/a	n/a	n/a
3147079	RECOG_TARGET	n/a	LTP192	ltpFR	4	2	1	JAW	751	5	0	n/a	n/a	n/a	n/a	n/a
3147827	RECOG_RESP	n/a	LTP192	ltpFR	4	2	1	JAW	751	n/a	0	n/a	n/a	n/a	n/a	n/a
3148653	RECOG_CONF	n/a	LTP192	ltpFR	4	2	1	JAW	751	5	0	n/a	n/a	n/a	n/a	n/a
3150358	RECOG_TARGET	n/a	LTP192	ltpFR	4	2	1	FISH	571	3	1	n/a	n/a	n/a	n/a	n/a
3150975	RECOG_RESP	n/a	LTP192	ltpFR	4	2	1	FISH	571	n/a	1	n/a	n/a	n/a	n/a	n/a
3151869	RECOG_CONF	n/a	LTP192	ltpFR	4	2	1	FISH	571	3	1	n/a	n/a	n/a	n/a	n/a
3153524	RECOG_TARGET	n/a	LTP192	ltpFR	4	2	1	OCTOPUS	971	4	1	n/a	n/a	n/a	n/a	n/a
3154110	RECOG_RESP	n/a	LTP192	ltpFR	4	2	1	OCTOPUS	971	n/a	1	n/a	n/a	n/a	n/a	n/a
3154957	RECOG_CONF	n/a	LTP192	ltpFR	4	2	1	OCTOPUS	971	4	1	n/a	n/a	n/a	n/a	n/a
3156649	RECOG_TARGET	n/a	LTP192	ltpFR	4	2	1	THIMBLE	1458	2	0	n/a	n/a	n/a	n/a	n/a
3157609	RECOG_RESP	n/a	LTP192	ltpFR	4	2	1	THIMBLE	1458	n/a	0	n/a	n/a	n/a	n/a	n/a
3158621	RECOG_CONF	n/a	LTP192	ltpFR	4	2	1	THIMBLE	1458	2	0	n/a	n/a	n/a	n/a	n/a
3160313	RECOG_TARGET	n/a	LTP192	ltpFR	4	2	0	POPE	1105	5	1	n/a	n/a	n/a	n/a	n/a
3160893	RECOG_RESP	n/a	LTP192	ltpFR	4	2	0	POPE	1105	n/a	1	n/a	n/a	n/a	n/a	n/a
3161697	RECOG_CONF	n/a	LTP192	ltpFR	4	2	0	POPE	1105	5	1	n/a	n/a	n/a	n/a	n/a
3163458	RECOG_TARGET	n/a	LTP192	ltpFR	4	2	-1	CROCODILE	411	4	-1	n/a	n/a	n/a	n/a	n/a
3164026	RECOG_RESP	n/a	LTP192	ltpFR	4	2	-1	CROCODILE	411	n/a	-1	n/a	n/a	n/a	n/a	n/a
3164955	RECOG_CONF	n/a	LTP192	ltpFR	4	2	-1	CROCODILE	411	4	-1	n/a	n/a	n/a	n/a	n/a
3166653	RECOG_TARGET	n/a	LTP192	ltpFR	4	2	0	HOOK	715	5	0	n/a	n/a	n/a	n/a	n/a
3167130	RECOG_RESP	n/a	LTP192	ltpFR	4	2	0	HOOK	715	n/a	0	n/a	n/a	n/a	n/a	n/a
3168086	RECOG_CONF	n/a	LTP192	ltpFR	4	2	0	HOOK	715	5	0	n/a	n/a	n/a	n/a	n/a
3169738	RECOG_TARGET	n/a	LTP192	ltpFR	4	2	1	BEAST	108	5	1	n/a	n/a	n/a	n/a	n/a
3170258	RECOG_RESP	n/a	LTP192	ltpFR	4	2	1	BEAST	108	n/a	1	n/a	n/a	n/a	n/a	n/a
3171219	RECOG_CONF	n/a	LTP192	ltpFR	4	2	1	BEAST	108	5	1	n/a	n/a	n/a	n/a	n/a
3172927	RECOG_TARGET	n/a	LTP192	ltpFR	4	2	-1	PUBLICATION	1136	5	-1	n/a	n/a	n/a	n/a	n/a
3173403	RECOG_RESP	n/a	LTP192	ltpFR	4	2	-1	PUBLICATION	1136	n/a	-1	n/a	n/a	n/a	n/a	n/a
3174338	RECOG_CONF	n/a	LTP192	ltpFR	4	2	-1	PUBLICATION	1136	5	-1	n/a	n/a	n/a	n/a	n/a
3176055	RECOG_TARGET	n/a	LTP192	ltpFR	4	2	-1	NAPKIN	937	2	-1	n/a	n/a	n/a	n/a	n/a
3176958	RECOG_RESP	n/a	LTP192	ltpFR	4	2	-1	NAPKIN	937	n/a	-1	n/a	n/a	n/a	n/a	n/a
3177918	RECOG_CONF	n/a	LTP192	ltpFR	4	2	-1	NAPKIN	937	2	-1	n/a	n/a	n/a	n/a	n/a
3179686	RECOG_TARGET	n/a	LTP192	ltpFR	4	2	0	CAMEL	223	3	1	n/a	n/a	n/a	n/a	n/a
3180268	RECOG_RESP	n/a	LTP192	ltpFR	4	2	0	CAMEL	223	n/a	1	n/a	n/a	n/a	n/a	n/a
3181127	RECOG_CONF	n/a	LTP192	ltpFR	4	2	0	CAMEL	223	3	1	n/a	n/a	n/a	n/a	n/a
3184513	REC_START	n/a	LTP192	ltpFR	4	3	n/a	n/a	n/a	n/a	n/a	n/a	n/a	n/a	n/a	n/a
3184554	RECOG_TARGET	n/a	LTP192	ltpFR	4	3	0	MOUTH	926	4	0	n/a	n/a	n/a	n/a	n/a
3185236	RECOG_RESP	n/a	LTP192	ltpFR	4	3	0	MOUTH	926	n/a	0	n/a	n/a	n/a	n/a	n/a
3186108	RECOG_CONF	n/a	LTP192	ltpFR	4	3	0	MOUTH	926	4	0	n/a	n/a	n/a	n/a	n/a
3187749	RECOG_TARGET	n/a	LTP192	ltpFR	4	3	1	CHERRY	293	5	0	n/a	n/a	n/a	n/a	n/a
3188285	RECOG_RESP	n/a	LTP192	ltpFR	4	3	1	CHERRY	293	n/a	0	n/a	n/a	n/a	n/a	n/a
3189047	RECOG_CONF	n/a	LTP192	ltpFR	4	3	1	CHERRY	293	5	0	n/a	n/a	n/a	n/a	n/a
3190797	RECOG_TARGET	n/a	LTP192	ltpFR	4	3	-1	BANQUET	86	5	-1	n/a	n/a	n/a	n/a	n/a
3191366	RECOG_RESP	n/a	LTP192	ltpFR	4	3	-1	BANQUET	86	n/a	-1	n/a	n/a	n/a	n/a	n/a
3192268	RECOG_CONF	n/a	LTP192	ltpFR	4	3	-1	BANQUET	86	5	-1	n/a	n/a	n/a	n/a	n/a
3193923	RECOG_TARGET	n/a	LTP192	ltpFR	4	3	-1	WATER	1594	2	-1	n/a	n/a	n/a	n/a	n/a
3194451	RECOG_RESP	n/a	LTP192	ltpFR	4	3	-1	WATER	1594	n/a	-1	n/a	n/a	n/a	n/a	n/a
3195480	RECOG_CONF	n/a	LTP192	ltpFR	4	3	-1	WATER	1594	2	-1	n/a	n/a	n/a	n/a	n/a
3197051	RECOG_TARGET	n/a	LTP192	ltpFR	4	3	1	COMMANDER	354	5	1	n/a	n/a	n/a	n/a	n/a
3197585	RECOG_RESP	n/a	LTP192	ltpFR	4	3	1	COMMANDER	354	n/a	1	n/a	n/a	n/a	n/a	n/a
3198471	RECOG_CONF	n/a	LTP192	ltpFR	4	3	1	COMMANDER	354	5	1	n/a	n/a	n/a	n/a	n/a
3200218	RECOG_TARGET	n/a	LTP192	ltpFR	4	3	1	OX	994	5	1	n/a	n/a	n/a	n/a	n/a
3200755	RECOG_RESP	n/a	LTP192	ltpFR	4	3	1	OX	994	n/a	1	n/a	n/a	n/a	n/a	n/a
3201597	RECOG_CONF	n/a	LTP192	ltpFR	4	3	1	OX	994	5	1	n/a	n/a	n/a	n/a	n/a
3203174	RECOG_LURE	n/a	LTP192	ltpFR	4	3	n/a	SCALLOP	1242	3	n/a	n/a	n/a	n/a	n/a	n/a
3203876	RECOG_RESP	n/a	LTP192	ltpFR	4	3	n/a	SCALLOP	1242	n/a	n/a	n/a	n/a	n/a	n/a	n/a
3204805	RECOG_CONF	n/a	LTP192	ltpFR	4	3	n/a	SCALLOP	1242	3	n/a	n/a	n/a	n/a	n/a	n/a
3206386	RECOG_TARGET	n/a	LTP192	ltpFR	4	3	0	PLATE	1086	3	0	n/a	n/a	n/a	n/a	n/a
3207064	RECOG_RESP	n/a	LTP192	ltpFR	4	3	0	PLATE	1086	n/a	0	n/a	n/a	n/a	n/a	n/a
3207943	RECOG_CONF	n/a	LTP192	ltpFR	4	3	0	PLATE	1086	3	0	n/a	n/a	n/a	n/a	n/a
3209649	RECOG_TARGET	n/a	LTP192	ltpFR	4	3	1	NERVE	944	4	1	n/a	n/a	n/a	n/a	n/a
3210279	RECOG_RESP	n/a	LTP192	ltpFR	4	3	1	NERVE	944	n/a	1	n/a	n/a	n/a	n/a	n/a
3211267	RECOG_CONF	n/a	LTP192	ltpFR	4	3	1	NERVE	944	4	1	n/a	n/a	n/a	n/a	n/a
3212779	RECOG_LURE	n/a	LTP192	ltpFR	4	3	n/a	TRACTOR	1493	4	n/a	n/a	n/a	n/a	n/a	n/a
3213491	RECOG_RESP	n/a	LTP192	ltpFR	4	3	n/a	TRACTOR	1493	n/a	n/a	n/a	n/a	n/a	n/a	n/a
3214373	RECOG_CONF	n/a	LTP192	ltpFR	4	3	n/a	TRACTOR	1493	4	n/a	n/a	n/a	n/a	n/a	n/a
3216089	RECOG_LURE	n/a	LTP192	ltpFR	4	3	n/a	BLUEBERRY	140	3	n/a	n/a	n/a	n/a	n/a	n/a
3216963	RECOG_RESP	n/a	LTP192	ltpFR	4	3	n/a	BLUEBERRY	140	n/a	n/a	n/a	n/a	n/a	n/a	n/a
3217994	RECOG_CONF	n/a	LTP192	ltpFR	4	3	n/a	BLUEBERRY	140	3	n/a	n/a	n/a	n/a	n/a	n/a
3219871	RECOG_TARGET	n/a	LTP192	ltpFR	4	3	0	LINT	826	5	0	n/a	n/a	n/a	n/a	n/a
3220472	RECOG_RESP	n/a	LTP192	ltpFR	4	3	0	LINT	826	n/a	0	n/a	n/a	n/a	n/a	n/a
3221339	RECOG_CONF	n/a	LTP192	ltpFR	4	3	0	LINT	826	5	0	n/a	n/a	n/a	n/a	n/a
3223124	RECOG_TARGET	n/a	LTP192	ltpFR	4	3	1	LOBSTER	837	1	1	n/a	n/a	n/a	n/a	n/a
3224207	RECOG_RESP	n/a	LTP192	ltpFR	4	3	1	LOBSTER	837	n/a	1	n/a	n/a	n/a	n/a	n/a
3225335	RECOG_CONF	n/a	LTP192	ltpFR	4	3	1	LOBSTER	837	1	1	n/a	n/a	n/a	n/a	n/a
3227081	RECOG_TARGET	n/a	LTP192	ltpFR	4	3	-1	ICEBERG	731	5	-1	n/a	n/a	n/a	n/a	n/a
3227722	RECOG_RESP	n/a	LTP192	ltpFR	4	3	-1	ICEBERG	731	n/a	-1	n/a	n/a	n/a	n/a	n/a
3228707	RECOG_CONF	n/a	LTP192	ltpFR	4	3	-1	ICEBERG	731	5	-1	n/a	n/a	n/a	n/a	n/a
3230332	RECOG_LURE	n/a	LTP192	ltpFR	4	3	n/a	LETTUCE	814	2	n/a	n/a	n/a	n/a	n/a	n/a
3231220	RECOG_RESP	n/a	LTP192	ltpFR	4	3	n/a	LETTUCE	814	n/a	n/a	n/a	n/a	n/a	n/a	n/a
3232236	RECOG_CONF	n/a	LTP192	ltpFR	4	3	n/a	LETTUCE	814	2	n/a	n/a	n/a	n/a	n/a	n/a
3233990	RECOG_TARGET	n/a	LTP192	ltpFR	4	3	-1	CROWN	415	4	-1	n/a	n/a	n/a	n/a	n/a
3234576	RECOG_RESP	n/a	LTP192	ltpFR	4	3	-1	CROWN	415	n/a	-1	n/a	n/a	n/a	n/a	n/a
3235662	RECOG_CONF	n/a	LTP192	ltpFR	4	3	-1	CROWN	415	4	-1	n/a	n/a	n/a	n/a	n/a
3237323	RECOG_LURE	n/a	LTP192	ltpFR	4	3	n/a	GOO	648	5	n/a	n/a	n/a	n/a	n/a	n/a
3238020	RECOG_RESP	n/a	LTP192	ltpFR	4	3	n/a	GOO	648	n/a	n/a	n/a	n/a	n/a	n/a	n/a
3238911	RECOG_CONF	n/a	LTP192	ltpFR	4	3	n/a	GOO	648	5	n/a	n/a	n/a	n/a	n/a	n/a
3240682	RECOG_TARGET	n/a	LTP192	ltpFR	4	3	0	BAIT	70	5	0	n/a	n/a	n/a	n/a	n/a
3241255	RECOG_RESP	n/a	LTP192	ltpFR	4	3	0	BAIT	70	n/a	0	n/a	n/a	n/a	n/a	n/a
3242106	RECOG_CONF	n/a	LTP192	ltpFR	4	3	0	BAIT	70	5	0	n/a	n/a	n/a	n/a	n/a
3243895	RECOG_TARGET	n/a	LTP192	ltpFR	4	3	0	BLOSSOM	138	4	0	n/a	n/a	n/a	n/a	n/a
3244633	RECOG_RESP	n/a	LTP192	ltpFR	4	3	0	BLOSSOM	138	n/a	0	n/a	n/a	n/a	n/a	n/a
3245609	RECOG_CONF	n/a	LTP192	ltpFR	4	3	0	BLOSSOM	138	4	0	n/a	n/a	n/a	n/a	n/a
3247357	RECOG_TARGET	n/a	LTP192	ltpFR	4	3	0	EXPERT	543	5	1	n/a	n/a	n/a	n/a	n/a
3247866	RECOG_RESP	n/a	LTP192	ltpFR	4	3	0	EXPERT	543	n/a	1	n/a	n/a	n/a	n/a	n/a
3248842	RECOG_CONF	n/a	LTP192	ltpFR	4	3	0	EXPERT	543	5	1	n/a	n/a	n/a	n/a	n/a
3252325	REC_START	n/a	LTP192	ltpFR	4	4	n/a	n/a	n/a	n/a	n/a	n/a	n/a	n/a	n/a	n/a
3252376	RECOG_LURE	n/a	LTP192	ltpFR	4	4	n/a	HOSTESS	723	2	n/a	n/a	n/a	n/a	n/a	n/a
3254230	RECOG_RESP	n/a	LTP192	ltpFR	4	4	n/a	HOSTESS	723	n/a	n/a	n/a	n/a	n/a	n/a	n/a
3255214	RECOG_CONF	n/a	LTP192	ltpFR	4	4	n/a	HOSTESS	723	2	n/a	n/a	n/a	n/a	n/a	n/a
3256994	RECOG_TARGET	n/a	LTP192	ltpFR	4	4	0	BANKER	84	5	1	n/a	n/a	n/a	n/a	n/a
3257559	RECOG_RESP	n/a	LTP192	ltpFR	4	4	0	BANKER	84	n/a	1	n/a	n/a	n/a	n/a	n/a
3258539	RECOG_CONF	n/a	LTP192	ltpFR	4	4	0	BANKER	84	5	1	n/a	n/a	n/a	n/a	n/a
3260089	RECOG_TARGET	n/a	LTP192	ltpFR	4	4	-1	PARIS	1014	5	-1	n/a	n/a	n/a	n/a	n/a
3260673	RECOG_RESP	n/a	LTP192	ltpFR	4	4	-1	PARIS	1014	n/a	-1	n/a	n/a	n/a	n/a	n/a
3261584	RECOG_CONF	n/a	LTP192	ltpFR	4	4	-1	PARIS	1014	5	-1	n/a	n/a	n/a	n/a	n/a
3263251	RECOG_TARGET	n/a	LTP192	ltpFR	4	4	-1	SHELL	1281	4	-1	n/a	n/a	n/a	n/a	n/a
3264317	RECOG_RESP	n/a	LTP192	ltpFR	4	4	-1	SHELL	1281	n/a	-1	n/a	n/a	n/a	n/a	n/a
3265156	RECOG_CONF	n/a	LTP192	ltpFR	4	4	-1	SHELL	1281	4	-1	n/a	n/a	n/a	n/a	n/a
3266747	RECOG_TARGET	n/a	LTP192	ltpFR	4	4	-1	TURKEY	1520	2	-1	n/a	n/a	n/a	n/a	n/a
3267719	RECOG_RESP	n/a	LTP192	ltpFR	4	4	-1	TURKEY	1520	n/a	-1	n/a	n/a	n/a	n/a	n/a
3268631	RECOG_CONF	n/a	LTP192	ltpFR	4	4	-1	TURKEY	1520	2	-1	n/a	n/a	n/a	n/a	n/a
3270310	RECOG_TARGET	n/a	LTP192	ltpFR	4	4	0	SHIP	1286	4	1	n/a	n/a	n/a	n/a	n/a
3270849	RECOG_RESP	n/a	LTP192	ltpFR	4	4	0	SHIP	1286	n/a	1	n/a	n/a	n/a	n/a	n/a
3271704	RECOG_CONF	n/a	LTP192	ltpFR	4	4	0	SHIP	1286	4	1	n/a	n/a	n/a	n/a	n/a
3273489	RECOG_TARGET	n/a	LTP192	ltpFR	4	4	0	GOWN	652	5	1	n/a	n/a	n/a	n/a	n/a
3274135	RECOG_RESP	n/a	LTP192	ltpFR	4	4	0	GOWN	652	n/a	1	n/a	n/a	n/a	n/a	n/a
3275038	RECOG_CONF	n/a	LTP192	ltpFR	4	4	0	GOWN	652	5	1	n/a	n/a	n/a	n/a	n/a
3276735	RECOG_LURE	n/a	LTP192	ltpFR	4	4	n/a	SUBWAY	1400	3	n/a	n/a	n/a	n/a	n/a	n/a
3277416	RECOG_RESP	n/a	LTP192	ltpFR	4	4	n/a	SUBWAY	1400	n/a	n/a	n/a	n/a	n/a	n/a	n/a
3278341	RECOG_CONF	n/a	LTP192	ltpFR	4	4	n/a	SUBWAY	1400	3	n/a	n/a	n/a	n/a	n/a	n/a
3279980	RECOG_TARGET	n/a	LTP192	ltpFR	4	4	-1	COTTAGE	384	5	-1	n/a	n/a	n/a	n/a	n/a
3280513	RECOG_RESP	n/a	LTP192	ltpFR	4	4	-1	COTTAGE	384	n/a	-1	n/a	n/a	n/a	n/a	n/a
3281442	RECOG_CONF	n/a	LTP192	ltpFR	4	4	-1	COTTAGE	384	5	-1	n/a	n/a	n/a	n/a	n/a
3283176	RECOG_TARGET	n/a	LTP192	ltpFR	4	4	0	GORILLA	650	4	1	n/a	n/a	n/a	n/a	n/a
3283769	RECOG_RESP	n/a	LTP192	ltpFR	4	4	0	GORILLA	650	n/a	1	n/a	n/a	n/a	n/a	n/a
3284730	RECOG_CONF	n/a	LTP192	ltpFR	4	4	0	GORILLA	650	4	1	n/a	n/a	n/a	n/a	n/a
3286438	RECOG_TARGET	n/a	LTP192	ltpFR	4	4	1	PEOPLE	1046	1	1	n/a	n/a	n/a	n/a	n/a
3287769	RECOG_RESP	n/a	LTP192	ltpFR	4	4	1	PEOPLE	1046	n/a	1	n/a	n/a	n/a	n/a	n/a
3288823	RECOG_CONF	n/a	LTP192	ltpFR	4	4	1	PEOPLE	1046	1	1	n/a	n/a	n/a	n/a	n/a
3290637	RECOG_TARGET	n/a	LTP192	ltpFR	4	4	1	VEST	1559	5	0	n/a	n/a	n/a	n/a	n/a
3291188	RECOG_RESP	n/a	LTP192	ltpFR	4	4	1	VEST	1559	n/a	0	n/a	n/a	n/a	n/a	n/a
3292099	RECOG_CONF	n/a	LTP192	ltpFR	4	4	1	VEST	1559	5	0	n/a	n/a	n/a	n/a	n/a
3293783	RECOG_TARGET	n/a	LTP192	ltpFR	4	4	0	LOLLIPOP	842	5	0	n/a	n/a	n/a	n/a	n/a
3294306	RECOG_RESP	n/a	LTP192	ltpFR	4	4	0	LOLLIPOP	842	n/a	0	n/a	n/a	n/a	n/a	n/a
3295178	RECOG_CONF	n/a	LTP192	ltpFR	4	4	0	LOLLIPOP	842	5	0	n/a	n/a	n/a	n/a	n/a
3297028	RECOG_TARGET	n/a	LTP192	ltpFR	4	4	0	MANAGER	863	5	1	n/a	n/a	n/a	n/a	n/a
3297624	RECOG_RESP	n/a	LTP192	ltpFR	4	4	0	MANAGER	863	n/a	1	n/a	n/a	n/a	n/a	n/a
3298425	RECOG_CONF	n/a	LTP192	ltpFR	4	4	0	MANAGER	863	5	1	n/a	n/a	n/a	n/a	n/a
3300206	RECOG_TARGET	n/a	LTP192	ltpFR	4	4	0	REFEREE	1178	5	1	n/a	n/a	n/a	n/a	n/a
3301023	RECOG_RESP	n/a	LTP192	ltpFR	4	4	0	REFEREE	1178	n/a	1	n/a	n/a	n/a	n/a	n/a
3301902	RECOG_CONF	n/a	LTP192	ltpFR	4	4	0	REFEREE	1178	5	1	n/a	n/a	n/a	n/a	n/a
3303552	RECOG_TARGET	n/a	LTP192	ltpFR	4	4	0	FINGER	567	3	0	n/a	n/a	n/a	n/a	n/a
3304536	RECOG_RESP	n/a	LTP192	ltpFR	4	4	0	FINGER	567	n/a	0	n/a	n/a	n/a	n/a	n/a
3305703	RECOG_CONF	n/a	LTP192	ltpFR	4	4	0	FINGER	567	3	0	n/a	n/a	n/a	n/a	n/a
3307183	RECOG_TARGET	n/a	LTP192	ltpFR	4	4	1	MINK	897	5	0	n/a	n/a	n/a	n/a	n/a
3307740	RECOG_RESP	n/a	LTP192	ltpFR	4	4	1	MINK	897	n/a	0	n/a	n/a	n/a	n/a	n/a
3308695	RECOG_CONF	n/a	LTP192	ltpFR	4	4	1	MINK	897	5	0	n/a	n/a	n/a	n/a	n/a
3310228	RECOG_TARGET	n/a	LTP192	ltpFR	4	4	0	NOTE	958	3	0	n/a	n/a	n/a	n/a	n/a
3311153	RECOG_RESP	n/a	LTP192	ltpFR	4	4	0	NOTE	958	n/a	0	n/a	n/a	n/a	n/a	n/a
3311958	RECOG_CONF	n/a	LTP192	ltpFR	4	4	0	NOTE	958	3	0	n/a	n/a	n/a	n/a	n/a
3313714	RECOG_LURE	n/a	LTP192	ltpFR	4	4	n/a	THERMOMETER	1453	4	n/a	n/a	n/a	n/a	n/a	n/a
3314395	RECOG_RESP	n/a	LTP192	ltpFR	4	4	n/a	THERMOMETER	1453	n/a	n/a	n/a	n/a	n/a	n/a	n/a
3315331	RECOG_CONF	n/a	LTP192	ltpFR	4	4	n/a	THERMOMETER	1453	4	n/a	n/a	n/a	n/a	n/a	n/a
3316887	RECOG_LURE	n/a	LTP192	ltpFR	4	4	n/a	MILDEW	893	5	n/a	n/a	n/a	n/a	n/a	n/a
3317557	RECOG_RESP	n/a	LTP192	ltpFR	4	4	n/a	MILDEW	893	n/a	n/a	n/a	n/a	n/a	n/a	n/a
3318405	RECOG_CONF	n/a	LTP192	ltpFR	4	4	n/a	MILDEW	893	5	n/a	n/a	n/a	n/a	n/a	n/a
3322033	REC_START	n/a	LTP192	ltpFR	4	5	n/a	n/a	n/a	n/a	n/a	n/a	n/a	n/a	n/a	n/a
3322089	RECOG_TARGET	n/a	LTP192	ltpFR	4	5	-1	THRONE	1461	4	-1	n/a	n/a	n/a	n/a	n/a
3322956	RECOG_RESP	n/a	LTP192	ltpFR	4	5	-1	THRONE	1461	n/a	-1	n/a	n/a	n/a	n/a	n/a
3323908	RECOG_CONF	n/a	LTP192	ltpFR	4	5	-1	THRONE	1461	4	-1	n/a	n/a	n/a	n/a	n/a
3325585	RECOG_LURE	n/a	LTP192	ltpFR	4	5	n/a	COMB	351	4	n/a	n/a	n/a	n/a	n/a	n/a
3326531	RECOG_RESP	n/a	LTP192	ltpFR	4	5	n/a	COMB	351	n/a	n/a	n/a	n/a	n/a	n/a	n/a
3327525	RECOG_CONF	n/a	LTP192	ltpFR	4	5	n/a	COMB	351	4	n/a	n/a	n/a	n/a	n/a	n/a
3329232	RECOG_TARGET	n/a	LTP192	ltpFR	4	5	-1	REINDEER	1181	5	-1	n/a	n/a	n/a	n/a	n/a
3329823	RECOG_RESP	n/a	LTP192	ltpFR	4	5	-1	REINDEER	1181	n/a	-1	n/a	n/a	n/a	n/a	n/a
3330888	RECOG_CONF	n/a	LTP192	ltpFR	4	5	-1	REINDEER	1181	5	-1	n/a	n/a	n/a	n/a	n/a
3332545	RECOG_LURE	n/a	LTP192	ltpFR	4	5	n/a	TWISTER	1530	5	n/a	n/a	n/a	n/a	n/a	n/a
3333171	RECOG_RESP	n/a	LTP192	ltpFR	4	5	n/a	TWISTER	1530	n/a	n/a	n/a	n/a	n/a	n/a	n/a
3334109	RECOG_CONF	n/a	LTP192	ltpFR	4	5	n/a	TWISTER	1530	5	n/a	n/a	n/a	n/a	n/a	n/a
3335880	RECOG_TARGET	n/a	LTP192	ltpFR	4	5	1	CLIPPERS	324	5	0	n/a	n/a	n/a	n/a	n/a
3336416	RECOG_RESP	n/a	LTP192	ltpFR	4	5	1	CLIPPERS	324	n/a	0	n/a	n/a	n/a	n/a	n/a
3337375	RECOG_CONF	n/a	LTP192	ltpFR	4	5	1	CLIPPERS	324	5	0	n/a	n/a	n/a	n/a	n/a
3339103	RECOG_TARGET	n/a	LTP192	ltpFR	4	5	-1	AFRICA	9	5	-1	n/a	n/a	n/a	n/a	n/a
3339686	RECOG_RESP	n/a	LTP192	ltpFR	4	5	-1	AFRICA	9	n/a	-1	n/a	n/a	n/a	n/a	n/a
3340481	RECOG_CONF	n/a	LTP192	ltpFR	4	5	-1	AFRICA	9	5	-1	n/a	n/a	n/a	n/a	n/a
3342248	RECOG_TARGET	n/a	LTP192	ltpFR	4	5	-1	HAMPER	682	4	-1	n/a	n/a	n/a	n/a	n/a
3342846	RECOG_RESP	n/a	LTP192	ltpFR	4	5	-1	HAMPER	682	n/a	-1	n/a	n/a	n/a	n/a	n/a
3343759	RECOG_CONF	n/a	LTP192	ltpFR	4	5	-1	HAMPER	682	4	-1	n/a	n/a	n/a	n/a	n/a
3345510	RECOG_TARGET	n/a	LTP192	ltpFR	4	5	1	PENDULUM	1043	4	0	n/a	n/a	n/a	n/a	n/a
3346128	RECOG_RESP	n/a	LTP192	ltpFR	4	5	1	PENDULUM	1043	n/a	0	n/a	n/a	n/a	n/a	n/a
3347090	RECOG_CONF	n/a	LTP192	ltpFR	4	5	1	PENDULUM	1043	4	0	n/a	n/a	n/a	n/a	n/a
3348774	RECOG_LURE	n/a	LTP192	ltpFR	4	5	n/a	WORKER	1621	2	n/a	n/a	n/a	n/a	n/a	n/a
3349709	RECOG_RESP	n/a	LTP192	ltpFR	4	5	n/a	WORKER	1621	n/a	n/a	n/a	n/a	n/a	n/a	n/a
3350606	RECOG_CONF	n/a	LTP192	ltpFR	4	5	n/a	WORKER	1621	2	n/a	n/a	n/a	n/a	n/a	n/a
3352219	RECOG_TARGET	n/a	LTP192	ltpFR	4	5	1	DILL	465	4	0	n/a	n/a	n/a	n/a	n/a
3352774	RECOG_RESP	n/a	LTP192	ltpFR	4	5	1	DILL	465	n/a	0	n/a	n/a	n/a	n/a	n/a
3353653	RECOG_CONF	n/a	LTP192	ltpFR	4	5	1	DILL	465	4	0	n/a	n/a	n/a	n/a	n/a
3355314	RECOG_TARGET	n/a	LTP192	ltpFR	4	5	0	DRIVER	499	5	1	n/a	n/a	n/a	n/a	n/a
3355840	RECOG_RESP	n/a	LTP192	ltpFR	4	5	0	DRIVER	499	n/a	1	n/a	n/a	n/a	n/a	n/a
3356790	RECOG_CONF	n/a	LTP192	ltpFR	4	5	0	DRIVER	499	5	1	n/a	n/a	n/a	n/a	n/a
3358494	RECOG_LURE	n/a	LTP192	ltpFR	4	5	n/a	STONE	1385	4	n/a	n/a	n/a	n/a	n/a	n/a
3359079	RECOG_RESP	n/a	LTP192	ltpFR	4	5	n/a	STONE	1385	n/a	n/a	n/a	n/a	n/a	n/a	n/a
3359983	RECOG_CONF	n/a	LTP192	ltpFR	4	5	n/a	STONE	1385	4	n/a	n/a	n/a	n/a	n/a	n/a
3361557	RECOG_LURE	n/a	LTP192	ltpFR	4	5	n/a	DEPARTMENT	449	5	n/a	n/a	n/a	n/a	n/a	n/a
3362213	RECOG_RESP	n/a	LTP192	ltpFR	4	5	n/a	DEPARTMENT	449	n/a	n/a	n/a	n/a	n/a	n/a	n/a
3363153	RECOG_CONF	n/a	LTP192	ltpFR	4	5	n/a	DEPARTMENT	449	5	n/a	n/a	n/a	n/a	n/a	n/a
3364784	RECOG_TARGET	n/a	LTP192	ltpFR	4	5	1	CLIMBER	323	5	1	n/a	n/a	n/a	n/a	n/a
3365457	RECOG_RESP	n/a	LTP192	ltpFR	4	5	1	CLIMBER	323	n/a	1	n/a	n/a	n/a	n/a	n/a
3366357	RECOG_CONF	n/a	LTP192	ltpFR	4	5	1	CLIMBER	323	5	1	n/a	n/a	n/a	n/a	n/a
3368179	RECOG_TARGET	n/a	LTP192	ltpFR	4	5	-1	ERASER	538	5	-1	n/a	n/a	n/a	n/a	n/a
3368679	RECOG_RESP	n/a	LTP192	ltpFR	4	5	-1	ERASER	538	n/a	-1	n/a	n/a	n/a	n/a	n/a
3369418	RECOG_CONF	n/a	LTP192	ltpFR	4	5	-1	ERASER	538	5	-1	n/a	n/a	n/a	n/a	n/a
3371073	RECOG_TARGET	n/a	LTP192	ltpFR	4	5	1	NEPTUNE	943	5	0	n/a	n/a	n/a	n/a	n/a
3371655	RECOG_RESP	n/a	LTP192	ltpFR	4	5	1	NEPTUNE	943	n/a	0	n/a	n/a	n/a	n/a	n/a
3372443	RECOG_CONF	n/a	LTP192	ltpFR	4	5	1	NEPTUNE	943	5	0	n/a	n/a	n/a	n/a	n/a
3374185	RECOG_TARGET	n/a	LTP192	ltpFR	4	5	-1	COB	334	5	-1	n/a	n/a	n/a	n/a	n/a
3374752	RECOG_RESP	n/a	LTP192	ltpFR	4	5	-1	COB	334	n/a	-1	n/a	n/a	n/a	n/a	n/a
3375520	RECOG_CONF	n/a	LTP192	ltpFR	4	5	-1	COB	334	5	-1	n/a	n/a	n/a	n/a	n/a
3377247	RECOG_TARGET	n/a	LTP192	ltpFR	4	5	0	JEWEL	757	4	0	n/a	n/a	n/a	n/a	n/a
3377827	RECOG_RESP	n/a	LTP192	ltpFR	4	5	0	JEWEL	757	n/a	0	n/a	n/a	n/a	n/a	n/a
3378679	RECOG_CONF	n/a	LTP192	ltpFR	4	5	0	JEWEL	757	4	0	n/a	n/a	n/a	n/a	n/a
3380459	RECOG_LURE	n/a	LTP192	ltpFR	4	5	n/a	CONSOLE	364	4	n/a	n/a	n/a	n/a	n/a	n/a
3381131	RECOG_RESP	n/a	LTP192	ltpFR	4	5	n/a	CONSOLE	364	n/a	n/a	n/a	n/a	n/a	n/a	n/a
3382138	RECOG_CONF	n/a	LTP192	ltpFR	4	5	n/a	CONSOLE	364	4	n/a	n/a	n/a	n/a	n/a	n/a
3383772	RECOG_TARGET	n/a	LTP192	ltpFR	4	5	1	HOE	711	3	0	n/a	n/a	n/a	n/a	n/a
3384443	RECOG_RESP	n/a	LTP192	ltpFR	4	5	1	HOE	711	n/a	0	n/a	n/a	n/a	n/a	n/a
3385260	RECOG_CONF	n/a	LTP192	ltpFR	4	5	1	HOE	711	3	0	n/a	n/a	n/a	n/a	n/a
3389140	REC_START	n/a	LTP192	ltpFR	4	6	n/a	n/a	n/a	n/a	n/a	n/a	n/a	n/a	n/a	n/a
3389192	RECOG_TARGET	n/a	LTP192	ltpFR	4	6	0	BANDANNA	80	4	0	n/a	n/a	n/a	n/a	n/a
3389918	RECOG_RESP	n/a	LTP192	ltpFR	4	6	0	BANDANNA	80	n/a	0	n/a	n/a	n/a	n/a	n/a
3390917	RECOG_CONF	n/a	LTP192	ltpFR	4	6	0	BANDANNA	80	4	0	n/a	n/a	n/a	n/a	n/a
3392554	RECOG_TARGET	n/a	LTP192	ltpFR	4	6	-1	MEAL	882	5	-1	n/a	n/a	n/a	n/a	n/a
3393108	RECOG_RESP	n/a	LTP192	ltpFR	4	6	-1	MEAL	882	n/a	-1	n/a	n/a	n/a	n/a	n/a
3394018	RECOG_CONF	n/a	LTP192	ltpFR	4	6	-1	MEAL	882	5	-1	n/a	n/a	n/a	n/a	n/a
3395666	RECOG_LURE	n/a	LTP192	ltpFR	4	6	n/a	WALNUT	1584	4	n/a	n/a	n/a	n/a	n/a	n/a
3396382	RECOG_RESP	n/a	LTP192	ltpFR	4	6	n/a	WALNUT	1584	n/a	n/a	n/a	n/a	n/a	n/a	n/a
3397276	RECOG_CONF	n/a	LTP192	ltpFR	4	6	n/a	WALNUT	1584	4	n/a	n/a	n/a	n/a	n/a	n/a
3398846	RECOG_TARGET	n/a	LTP192	ltpFR	4	6	0	SALAD	1224	1	0	n/a	n/a	n/a	n/a	n/a
3400611	RECOG_RESP	n/a	LTP192	ltpFR	4	6	0	SALAD	1224	n/a	0	n/a	n/a	n/a	n/a	n/a
3401896	RECOG_CONF	n/a	LTP192	ltpFR	4	6	0	SALAD	1224	1	0	n/a	n/a	n/a	n/a	n/a
3403697	RECOG_TARGET	n/a	LTP192	ltpFR	4	6	-1	EMPIRE	530	5	-1	n/a	n/a	n/a	n/a	n/a
3404307	RECOG_RESP	n/a	LTP192	ltpFR	4	6	-1	EMPIRE	530	n/a	-1	n/a	n/a	n/a	n/a	n/a
3405299	RECOG_CONF	n/a	LTP192	ltpFR	4	6	-1	EMPIRE	530	5	-1	n/a	n/a	n/a	n/a	n/a
3406909	RECOG_TARGET	n/a	LTP192	ltpFR	4	6	0	TREAT	1501	4	0	n/a	n/a	n/a	n/a	n/a
3407711	RECOG_RESP	n/a	LTP192	ltpFR	4	6	0	TREAT	1501	n/a	0	n/a	n/a	n/a	n/a	n/a
3408612	RECOG_CONF	n/a	LTP192	ltpFR	4	6	0	TREAT	1501	4	0	n/a	n/a	n/a	n/a	n/a
3410355	RECOG_TARGET	n/a	LTP192	ltpFR	4	6	-1	ANT	25	5	-1	n/a	n/a	n/a	n/a	n/a
3410965	RECOG_RESP	n/a	LTP192	ltpFR	4	6	-1	ANT	25	n/a	-1	n/a	n/a	n/a	n/a	n/a
3411879	RECOG_CONF	n/a	LTP192	ltpFR	4	6	-1	ANT	25	5	-1	n/a	n/a	n/a	n/a	n/a
3413634	RECOG_TARGET	n/a	LTP192	ltpFR	4	6	1	SHARK	1275	5	1	n/a	n/a	n/a	n/a	n/a
3414489	RECOG_RESP	n/a	LTP192	ltpFR	4	6	1	SHARK	1275	n/a	1	n/a	n/a	n/a	n/a	n/a
3415440	RECOG_CONF	n/a	LTP192	ltpFR	4	6	1	SHARK	1275	5	1	n/a	n/a	n/a	n/a	n/a
3417065	RECOG_TARGET	n/a	LTP192	ltpFR	4	6	1	PARSLEY	1016	5	0	n/a	n/a	n/a	n/a	n/a
3417706	RECOG_RESP	n/a	LTP192	ltpFR	4	6	1	PARSLEY	1016	n/a	0	n/a	n/a	n/a	n/a	n/a
3418675	RECOG_CONF	n/a	LTP192	ltpFR	4	6	1	PARSLEY	1016	5	0	n/a	n/a	n/a	n/a	n/a
3420377	RECOG_TARGET	n/a	LTP192	ltpFR	4	6	-1	SPATULA	1348	5	-1	n/a	n/a	n/a	n/a	n/a
3420950	RECOG_RESP	n/a	LTP192	ltpFR	4	6	-1	SPATULA	1348	n/a	-1	n/a	n/a	n/a	n/a	n/a
3421948	RECOG_CONF	n/a	LTP192	ltpFR	4	6	-1	SPATULA	1348	5	-1	n/a	n/a	n/a	n/a	n/a
3423504	RECOG_TARGET	n/a	LTP192	ltpFR	4	6	0	CRAB	397	5	0	n/a	n/a	n/a	n/a	n/a
3424034	RECOG_RESP	n/a	LTP192	ltpFR	4	6	0	CRAB	397	n/a	0	n/a	n/a	n/a	n/a	n/a
3424890	RECOG_CONF	n/a	LTP192	ltpFR	4	6	0	CRAB	397	5	0	n/a	n/a	n/a	n/a	n/a
3426583	RECOG_TARGET	n/a	LTP192	ltpFR	4	6	0	NIGHTGOWN	953	5	1	n/a	n/a	n/a	n/a	n/a
3427146	RECOG_RESP	n/a	LTP192	ltpFR	4	6	0	NIGHTGOWN	953	n/a	1	n/a	n/a	n/a	n/a	n/a
3428013	RECOG_CONF	n/a	LTP192	ltpFR	4	6	0	NIGHTGOWN	953	5	1	n/a	n/a	n/a	n/a	n/a
3429745	RECOG_TARGET	n/a	LTP192	ltpFR	4	6	-1	DRUM	502	5	-1	n/a	n/a	n/a	n/a	n/a
3430304	RECOG_RESP	n/a	LTP192	ltpFR	4	6	-1	DRUM	502	n/a	-1	n/a	n/a	n/a	n/a	n/a
3431265	RECOG_CONF	n/a	LTP192	ltpFR	4	6	-1	DRUM	502	5	-1	n/a	n/a	n/a	n/a	n/a
3432874	RECOG_LURE	n/a	LTP192	ltpFR	4	6	n/a	TOASTER	1472	4	n/a	n/a	n/a	n/a	n/a	n/a
3433541	RECOG_RESP	n/a	LTP192	ltpFR	4	6	n/a	TOASTER	1472	n/a	n/a	n/a	n/a	n/a	n/a	n/a
3434522	RECOG_CONF	n/a	LTP192	ltpFR	4	6	n/a	TOASTER	1472	4	n/a	n/a	n/a	n/a	n/a	n/a
3436119	RECOG_TARGET	n/a	LTP192	ltpFR	4	6	1	CHIME	300	5	0	n/a	n/a	n/a	n/a	n/a
3436695	RECOG_RESP	n/a	LTP192	ltpFR	4	6	1	CHIME	300	n/a	0	n/a	n/a	n/a	n/a	n/a
3437559	RECOG_CONF	n/a	LTP192	ltpFR	4	6	1	CHIME	300	5	0	n/a	n/a	n/a	n/a	n/a
3439431	RECOG_TARGET	n/a	LTP192	ltpFR	4	6	1	COMMITTEE	355	2	1	n/a	n/a	n/a	n/a	n/a
3439971	RECOG_RESP_VV	n/a	LTP192	ltpFR	4	6	1	COMMITTEE	355	n/a	1	n/a	n/a	n/a	n/a	n/a
3440983	RECOG_RESP	n/a	LTP192	ltpFR	4	6	1	COMMITTEE	355	n/a	1	n/a	n/a	n/a	n/a	n/a
3442034	RECOG_CONF	n/a	LTP192	ltpFR	4	6	1	COMMITTEE	355	2	1	n/a	n/a	n/a	n/a	n/a
3443833	RECOG_TARGET	n/a	LTP192	ltpFR	4	6	-1	SLOPE	1328	3	-1	n/a	n/a	n/a	n/a	n/a
3444958	RECOG_RESP	n/a	LTP192	ltpFR	4	6	-1	SLOPE	1328	n/a	-1	n/a	n/a	n/a	n/a	n/a
3445986	RECOG_CONF	n/a	LTP192	ltpFR	4	6	-1	SLOPE	1328	3	-1	n/a	n/a	n/a	n/a	n/a
3447696	RECOG_TARGET	n/a	LTP192	ltpFR	4	6	1	RELISH	1183	4	0	n/a	n/a	n/a	n/a	n/a
3448305	RECOG_RESP	n/a	LTP192	ltpFR	4	6	1	RELISH	1183	n/a	0	n/a	n/a	n/a	n/a	n/a
3449226	RECOG_CONF	n/a	LTP192	ltpFR	4	6	1	RELISH	1183	4	0	n/a	n/a	n/a	n/a	n/a
3451025	RECOG_TARGET	n/a	LTP192	ltpFR	4	6	0	CAULIFLOWER	262	5	0	n/a	n/a	n/a	n/a	n/a
3451516	RECOG_RESP	n/a	LTP192	ltpFR	4	6	0	CAULIFLOWER	262	n/a	0	n/a	n/a	n/a	n/a	n/a
3452487	RECOG_CONF	n/a	LTP192	ltpFR	4	6	0	CAULIFLOWER	262	5	0	n/a	n/a	n/a	n/a	n/a
3454220	RECOG_TARGET	n/a	LTP192	ltpFR	4	6	-1	SHINGLE	1285	5	-1	n/a	n/a	n/a	n/a	n/a
3454785	RECOG_RESP	n/a	LTP192	ltpFR	4	6	-1	SHINGLE	1285	n/a	-1	n/a	n/a	n/a	n/a	n/a
3455623	RECOG_CONF	n/a	LTP192	ltpFR	4	6	-1	SHINGLE	1285	5	-1	n/a	n/a	n/a	n/a	n/a
3459069	REC_START	n/a	LTP192	ltpFR	4	7	n/a	n/a	n/a	n/a	n/a	n/a	n/a	n/a	n/a	n/a
3459122	RECOG_TARGET	n/a	LTP192	ltpFR	4	7	1	TRENCH	1503	5	0	n/a	n/a	n/a	n/a	n/a
3459715	RECOG_RESP	n/a	LTP192	ltpFR	4	7	1	TRENCH	1503	n/a	0	n/a	n/a	n/a	n/a	n/a
3460740	RECOG_CONF	n/a	LTP192	ltpFR	4	7	1	TRENCH	1503	5	0	n/a	n/a	n/a	n/a	n/a
3462301	RECOG_TARGET	n/a	LTP192	ltpFR	4	7	1	JOURNAL	760	4	0	n/a	n/a	n/a	n/a	n/a
3463246	RECOG_RESP	n/a	LTP192	ltpFR	4	7	1	JOURNAL	760	n/a	0	n/a	n/a	n/a	n/a	n/a
3464121	RECOG_CONF	n/a	LTP192	ltpFR	4	7	1	JOURNAL	760	4	0	n/a	n/a	n/a	n/a	n/a
3465815	RECOG_TARGET	n/a	LTP192	ltpFR	4	7	1	MARS	873	5	0	n/a	n/a	n/a	n/a	n/a
3466342	RECOG_RESP	n/a	LTP192	ltpFR	4	7	1	MARS	873	n/a	0	n/a	n/a	n/a	n/a	n/a
3467299	RECOG_CONF	n/a	LTP192	ltpFR	4	7	1	MARS	873	5	0	n/a	n/a	n/a	n/a	n/a
3468959	RECOG_TARGET	n/a	LTP192	ltpFR	4	7	0	MONGOOSE	909	5	1	n/a	n/a	n/a	n/a	n/a
3469740	RECOG_RESP	n/a	LTP192	ltpFR	4	7	0	MONGOOSE	909	n/a	1	n/a	n/a	n/a	n/a	n/a
3470797	RECOG_CONF	n/a	LTP192	ltpFR	4	7	0	MONGOOSE	909	5	1	n/a	n/a	n/a	n/a	n/a
3472390	RECOG_TARGET	n/a	LTP192	ltpFR	4	7	1	BOXER	160	5	1	n/a	n/a	n/a	n/a	n/a
3472937	RECOG_RESP	n/a	LTP192	ltpFR	4	7	1	BOXER	160	n/a	1	n/a	n/a	n/a	n/a	n/a
3473920	RECOG_CONF	n/a	LTP192	ltpFR	4	7	1	BOXER	160	5	1	n/a	n/a	n/a	n/a	n/a
3475467	RECOG_LURE	n/a	LTP192	ltpFR	4	7	n/a	GARAGE	621	3	n/a	n/a	n/a	n/a	n/a	n/a
3476134	RECOG_RESP	n/a	LTP192	ltpFR	4	7	n/a	GARAGE	621	n/a	n/a	n/a	n/a	n/a	n/a	n/a
3476988	RECOG_CONF	n/a	LTP192	ltpFR	4	7	n/a	GARAGE	621	3	n/a	n/a	n/a	n/a	n/a	n/a
3478831	RECOG_LURE	n/a	LTP192	ltpFR	4	7	n/a	SALIVA	1226	4	n/a	n/a	n/a	n/a	n/a	n/a
3479478	RECOG_RESP	n/a	LTP192	ltpFR	4	7	n/a	SALIVA	1226	n/a	n/a	n/a	n/a	n/a	n/a	n/a
3480475	RECOG_CONF	n/a	LTP192	ltpFR	4	7	n/a	SALIVA	1226	4	n/a	n/a	n/a	n/a	n/a	n/a
3482161	RECOG_TARGET	n/a	LTP192	ltpFR	4	7	0	WAGON	1578	4	1	n/a	n/a	n/a	n/a	n/a
3483114	RECOG_RESP	n/a	LTP192	ltpFR	4	7	0	WAGON	1578	n/a	1	n/a	n/a	n/a	n/a	n/a
3484275	RECOG_CONF	n/a	LTP192	ltpFR	4	7	0	WAGON	1578	4	1	n/a	n/a	n/a	n/a	n/a
3485705	RECOG_LURE	n/a	LTP192	ltpFR	4	7	n/a	NOMAD	955	4	n/a	n/a	n/a	n/a	n/a	n/a
3486419	RECOG_RESP	n/a	LTP192	ltpFR	4	7	n/a	NOMAD	955	n/a	n/a	n/a	n/a	n/a	n/a	n/a
3487237	RECOG_CONF	n/a	LTP192	ltpFR	4	7	n/a	NOMAD	955	4	n/a	n/a	n/a	n/a	n/a	n/a
3488903	RECOG_TARGET	n/a	LTP192	ltpFR	4	7	0	HANDBAG	684	4	0	n/a	n/a	n/a	n/a	n/a
3489513	RECOG_RESP	n/a	LTP192	ltpFR	4	7	0	HANDBAG	684	n/a	0	n/a	n/a	n/a	n/a	n/a
