onset	duration	trial_type	sample	stim_file	subject	experiment	session	trial	item_name	item_num	list	answer	test_x	test_y	test_z
-0.002	n/a	SESS_START	-1	n/a	LTP280	ltpFR2	19	n/a	n/a	n/a	n/a	n/a	0	0	0
212.128	n/a	SESS_START	106064	n/a	LTP280	ltpFR2	19	n/a	n/a	n/a	n/a	n/a	0	0	0
221.01	n/a	START	110505	n/a	LTP280	ltpFR2	19	n/a	n/a	n/a	-1	n/a	n/a	n/a	n/a
221.026	n/a	PROB	110513	n/a	LTP280	ltpFR2	19	n/a	n/a	n/a	-1	18	7	5	6
222.844	n/a	PROB	111422	n/a	LTP280	ltpFR2	19	n/a	n/a	n/a	-1	20	6	6	8
224.128	n/a	PROB	112064	n/a	LTP280	ltpFR2	19	n/a	n/a	n/a	-1	6	2	1	3
225.066	n/a	PROB	112533	n/a	LTP280	ltpFR2	19	n/a	n/a	n/a	-1	23	7	9	7
226.464	n/a	PROB	113232	n/a	LTP280	ltpFR2	19	n/a	n/a	n/a	-1	20	7	9	3
227.78	n/a	PROB	113890	n/a	LTP280	ltpFR2	19	n/a	n/a	n/a	-1	12	2	1	9
228.966	n/a	PROB	114483	n/a	LTP280	ltpFR2	19	n/a	n/a	n/a	-1	11	1	2	8
229.848	n/a	PROB	114924	n/a	LTP280	ltpFR2	19	n/a	n/a	n/a	-1	17	5	9	3
231.168	n/a	PROB	115584	n/a	LTP280	ltpFR2	19	n/a	n/a	n/a	-1	18	9	7	2
232.276	n/a	STOP	116138	n/a	LTP280	ltpFR2	19	n/a	n/a	n/a	-1	n/a	n/a	n/a	n/a
253.134	n/a	WORD	126567	wordpools/wasnorm_wordpool_576.txt	LTP280	ltpFR2	19	1	MARS	873	n/a	n/a	0	0	0
255.848	n/a	WORD	127924	wordpools/wasnorm_wordpool_576.txt	LTP280	ltpFR2	19	1	GUITAR	670	n/a	n/a	0	0	0
258.438	n/a	WORD	129219	wordpools/wasnorm_wordpool_576.txt	LTP280	ltpFR2	19	1	CARRIAGE	248	n/a	n/a	0	0	0
260.908	n/a	WORD	130454	wordpools/wasnorm_wordpool_576.txt	LTP280	ltpFR2	19	1	VENUS	1557	n/a	n/a	0	0	0
263.388	n/a	WORD	131694	wordpools/wasnorm_wordpool_576.txt	LTP280	ltpFR2	19	1	TOASTER	1472	n/a	n/a	0	0	0
265.992	n/a	WORD	132996	wordpools/wasnorm_wordpool_576.txt	LTP280	ltpFR2	19	1	HOUND	724	n/a	n/a	0	0	0
268.794	n/a	WORD	134397	wordpools/wasnorm_wordpool_576.txt	LTP280	ltpFR2	19	1	LEG	809	n/a	n/a	0	0	0
271.296	n/a	WORD	135648	wordpools/wasnorm_wordpool_576.txt	LTP280	ltpFR2	19	1	SKETCH	1315	n/a	n/a	0	0	0
273.88	n/a	WORD	136940	wordpools/wasnorm_wordpool_576.txt	LTP280	ltpFR2	19	1	KITCHEN	778	n/a	n/a	0	0	0
276.384	n/a	WORD	138192	wordpools/wasnorm_wordpool_576.txt	LTP280	ltpFR2	19	1	GLOVE	642	n/a	n/a	0	0	0
279.104	n/a	WORD	139552	wordpools/wasnorm_wordpool_576.txt	LTP280	ltpFR2	19	1	WRIST	1626	n/a	n/a	0	0	0
281.536	n/a	WORD	140768	wordpools/wasnorm_wordpool_576.txt	LTP280	ltpFR2	19	1	UNCLE	1536	n/a	n/a	0	0	0
284.34	n/a	WORD	142170	wordpools/wasnorm_wordpool_576.txt	LTP280	ltpFR2	19	1	PARENT	1013	n/a	n/a	0	0	0
287.026	n/a	WORD	143513	wordpools/wasnorm_wordpool_576.txt	LTP280	ltpFR2	19	1	SUNSET	1408	n/a	n/a	0	0	0
289.492	n/a	WORD	144746	wordpools/wasnorm_wordpool_576.txt	LTP280	ltpFR2	19	1	BOX	159	n/a	n/a	0	0	0
292.098	n/a	WORD	146049	wordpools/wasnorm_wordpool_576.txt	LTP280	ltpFR2	19	1	VALLEY	1545	n/a	n/a	0	0	0
294.632	n/a	WORD	147316	wordpools/wasnorm_wordpool_576.txt	LTP280	ltpFR2	19	1	SKILLET	1317	n/a	n/a	0	0	0
297.084	n/a	WORD	148542	wordpools/wasnorm_wordpool_576.txt	LTP280	ltpFR2	19	1	FRIAR	605	n/a	n/a	0	0	0
299.87	n/a	WORD	149935	wordpools/wasnorm_wordpool_576.txt	LTP280	ltpFR2	19	1	COTTAGE	384	n/a	n/a	0	0	0
302.524	n/a	WORD	151262	wordpools/wasnorm_wordpool_576.txt	LTP280	ltpFR2	19	1	PLASTER	1085	n/a	n/a	0	0	0
305.24	n/a	WORD	152620	wordpools/wasnorm_wordpool_576.txt	LTP280	ltpFR2	19	1	HORNET	718	n/a	n/a	0	0	0
307.96	n/a	WORD	153980	wordpools/wasnorm_wordpool_576.txt	LTP280	ltpFR2	19	1	WASP	1593	n/a	n/a	0	0	0
310.678	n/a	WORD	155339	wordpools/wasnorm_wordpool_576.txt	LTP280	ltpFR2	19	1	BARLEY	88	n/a	n/a	0	0	0
313.432	n/a	WORD	156716	wordpools/wasnorm_wordpool_576.txt	LTP280	ltpFR2	19	1	LETTUCE	814	n/a	n/a	0	0	0
315.052	n/a	START	157526	n/a	LTP280	ltpFR2	19	n/a	n/a	n/a	1	n/a	n/a	n/a	n/a
316.166	n/a	DISTRACTOR	158083	n/a	LTP280	ltpFR2	19	1	n/a	n/a	n/a	n/a	0	0	0
316.184	n/a	PROB	158092	n/a	LTP280	ltpFR2	19	n/a	n/a	n/a	1	18	7	8	3
317.602	n/a	PROB	158801	n/a	LTP280	ltpFR2	19	n/a	n/a	n/a	1	19	8	6	5
319.72	n/a	PROB	159860	n/a	LTP280	ltpFR2	19	n/a	n/a	n/a	1	16	9	5	2
320.922	n/a	PROB	160461	n/a	LTP280	ltpFR2	19	n/a	n/a	n/a	1	15	5	3	7
323.372	n/a	PROB	161686	n/a	LTP280	ltpFR2	19	n/a	n/a	n/a	1	18	4	5	9
324.608	n/a	PROB	162304	n/a	LTP280	ltpFR2	19	n/a	n/a	n/a	1	11	5	1	5
325.49	n/a	PROB	162745	n/a	LTP280	ltpFR2	19	n/a	n/a	n/a	1	16	6	5	5
326.658	n/a	PROB	163329	n/a	LTP280	ltpFR2	19	n/a	n/a	n/a	1	14	6	5	3
328.676	n/a	PROB	164338	n/a	LTP280	ltpFR2	19	n/a	n/a	n/a	1	9	3	1	5
329.608	n/a	PROB	164804	n/a	LTP280	ltpFR2	19	n/a	n/a	n/a	1	17	1	7	9
330.594	n/a	PROB	165297	n/a	LTP280	ltpFR2	19	n/a	n/a	n/a	1	20	8	6	6
332.078	n/a	PROB	166039	n/a	LTP280	ltpFR2	19	n/a	n/a	n/a	1	18	5	7	6
333.278	n/a	PROB	166639	n/a	LTP280	ltpFR2	19	n/a	n/a	n/a	1	16	2	6	8
334.648	n/a	PROB	167324	n/a	LTP280	ltpFR2	19	n/a	n/a	n/a	1	14	4	9	1
335.682	n/a	PROB	167841	n/a	LTP280	ltpFR2	19	n/a	n/a	n/a	1	17	8	3	6
336.848	n/a	PROB	168424	n/a	LTP280	ltpFR2	19	n/a	n/a	n/a	1	17	9	4	4
338.054	n/a	STOP	169027	n/a	LTP280	ltpFR2	19	n/a	n/a	n/a	1	n/a	n/a	n/a	n/a
340.836	n/a	REC_START	170418	n/a	LTP280	ltpFR2	19	1	n/a	n/a	n/a	n/a	0	0	0
344.414	n/a	REC_WORD	172207	wordpools/wasnorm_wordpool_576.txt	LTP280	ltpFR2	19	1	PLASTER	1085	n/a	n/a	0	0	0
346.19	n/a	REC_WORD	173095	wordpools/wasnorm_wordpool_576.txt	LTP280	ltpFR2	19	1	UNCLE	1536	n/a	n/a	0	0	0
349.46	n/a	REC_WORD	174730	wordpools/wasnorm_wordpool_576.txt	LTP280	ltpFR2	19	1	MARS	873	n/a	n/a	0	0	0
350.152	n/a	REC_WORD	175076	wordpools/wasnorm_wordpool_576.txt	LTP280	ltpFR2	19	1	VENUS	1557	n/a	n/a	0	0	0
351.146	n/a	REC_WORD	175573	wordpools/wasnorm_wordpool_576.txt	LTP280	ltpFR2	19	1	BARLEY	88	n/a	n/a	0	0	0
355.148	n/a	REC_WORD	177574	wordpools/wasnorm_wordpool_576.txt	LTP280	ltpFR2	19	1	COTTAGE	384	n/a	n/a	0	0	0
365.568	n/a	REC_WORD	182784	wordpools/wasnorm_wordpool_576.txt	LTP280	ltpFR2	19	1	LETTUCE	814	n/a	n/a	0	0	0
368.632	n/a	REC_WORD	184316	wordpools/wasnorm_wordpool_576.txt	LTP280	ltpFR2	19	1	TOASTER	1472	n/a	n/a	0	0	0
369.282	n/a	REC_WORD	184641	wordpools/wasnorm_wordpool_576.txt	LTP280	ltpFR2	19	1	KITCHEN	778	n/a	n/a	0	0	0
369.868	n/a	REC_WORD	184934	wordpools/wasnorm_wordpool_576.txt	LTP280	ltpFR2	19	1	SKILLET	1317	n/a	n/a	0	0	0
374.874	n/a	REC_WORD	187437	wordpools/wasnorm_wordpool_576.txt	LTP280	ltpFR2	19	1	HOUND	724	n/a	n/a	0	0	0
382.326	n/a	REC_WORD	191163	wordpools/wasnorm_wordpool_576.txt	LTP280	ltpFR2	19	1	VALLEY	1545	n/a	n/a	0	0	0
402.694	n/a	REC_WORD	201347	wordpools/wasnorm_wordpool_576.txt	LTP280	ltpFR2	19	1	OVEN	991	n/a	n/a	0	0	0
431.274	n/a	WORD	215637	wordpools/wasnorm_wordpool_576.txt	LTP280	ltpFR2	19	2	NOVEL	960	n/a	n/a	0	0	0
433.918	n/a	WORD	216959	wordpools/wasnorm_wordpool_576.txt	LTP280	ltpFR2	19	2	BINDER	127	n/a	n/a	0	0	0
436.378	n/a	WORD	218189	wordpools/wasnorm_wordpool_576.txt	LTP280	ltpFR2	19	2	SALAD	1224	n/a	n/a	0	0	0
438.88	n/a	WORD	219440	wordpools/wasnorm_wordpool_576.txt	LTP280	ltpFR2	19	2	COLLEGE	346	n/a	n/a	0	0	0
441.548	n/a	WORD	220774	wordpools/wasnorm_wordpool_576.txt	LTP280	ltpFR2	19	2	HERO	706	n/a	n/a	0	0	0
444.3	n/a	WORD	222150	wordpools/wasnorm_wordpool_576.txt	LTP280	ltpFR2	19	2	ARMY	39	n/a	n/a	0	0	0
447.012	n/a	WORD	223506	wordpools/wasnorm_wordpool_576.txt	LTP280	ltpFR2	19	2	VICTIM	1562	n/a	n/a	0	0	0
449.622	n/a	WORD	224811	wordpools/wasnorm_wordpool_576.txt	LTP280	ltpFR2	19	2	HUMAN	726	n/a	n/a	0	0	0
452.192	n/a	WORD	226096	wordpools/wasnorm_wordpool_576.txt	LTP280	ltpFR2	19	2	SUBWAY	1400	n/a	n/a	0	0	0
454.892	n/a	WORD	227446	wordpools/wasnorm_wordpool_576.txt	LTP280	ltpFR2	19	2	CRUTCH	417	n/a	n/a	0	0	0
457.354	n/a	WORD	228677	wordpools/wasnorm_wordpool_576.txt	LTP280	ltpFR2	19	2	SPHINX	1349	n/a	n/a	0	0	0
459.932	n/a	WORD	229966	wordpools/wasnorm_wordpool_576.txt	LTP280	ltpFR2	19	2	TABLE	1426	n/a	n/a	0	0	0
462.474	n/a	WORD	231237	wordpools/wasnorm_wordpool_576.txt	LTP280	ltpFR2	19	2	ELBOW	520	n/a	n/a	0	0	0
465.01	n/a	WORD	232505	wordpools/wasnorm_wordpool_576.txt	LTP280	ltpFR2	19	2	SLIDE	1326	n/a	n/a	0	0	0
467.786	n/a	WORD	233893	wordpools/wasnorm_wordpool_576.txt	LTP280	ltpFR2	19	2	LAGOON	795	n/a	n/a	0	0	0
470.582	n/a	WORD	235291	wordpools/wasnorm_wordpool_576.txt	LTP280	ltpFR2	19	2	ATLAS	53	n/a	n/a	0	0	0
473.102	n/a	WORD	236551	wordpools/wasnorm_wordpool_576.txt	LTP280	ltpFR2	19	2	PUDDING	1139	n/a	n/a	0	0	0
475.718	n/a	WORD	237859	wordpools/wasnorm_wordpool_576.txt	LTP280	ltpFR2	19	2	PIGEON	1065	n/a	n/a	0	0	0
478.238	n/a	WORD	239119	wordpools/wasnorm_wordpool_576.txt	LTP280	ltpFR2	19	2	SCARECROW	1245	n/a	n/a	0	0	0
480.956	n/a	WORD	240478	wordpools/wasnorm_wordpool_576.txt	LTP280	ltpFR2	19	2	GROUND	666	n/a	n/a	0	0	0
483.76	n/a	WORD	241880	wordpools/wasnorm_wordpool_576.txt	LTP280	ltpFR2	19	2	SUITCASE	1403	n/a	n/a	0	0	0
486.378	n/a	WORD	243189	wordpools/wasnorm_wordpool_576.txt	LTP280	ltpFR2	19	2	BUGGY	188	n/a	n/a	0	0	0
488.864	n/a	WORD	244432	wordpools/wasnorm_wordpool_576.txt	LTP280	ltpFR2	19	2	RADISH	1158	n/a	n/a	0	0	0
491.6	n/a	WORD	245800	wordpools/wasnorm_wordpool_576.txt	LTP280	ltpFR2	19	2	BEEF	113	n/a	n/a	0	0	0
493.208	n/a	START	246604	n/a	LTP280	ltpFR2	19	n/a	n/a	n/a	2	n/a	n/a	n/a	n/a
494.336	n/a	DISTRACTOR	247168	n/a	LTP280	ltpFR2	19	2	n/a	n/a	n/a	n/a	0	0	0
494.352	n/a	PROB	247176	n/a	LTP280	ltpFR2	19	n/a	n/a	n/a	2	11	3	2	6
495.456	n/a	PROB	247728	n/a	LTP280	ltpFR2	19	n/a	n/a	n/a	2	15	7	1	7
496.542	n/a	PROB	248271	n/a	LTP280	ltpFR2	19	n/a	n/a	n/a	2	16	4	6	6
498.01	n/a	PROB	249005	n/a	LTP280	ltpFR2	19	n/a	n/a	n/a	2	12	3	3	6
499.178	n/a	PROB	249589	n/a	LTP280	ltpFR2	19	n/a	n/a	n/a	2	13	4	6	3
500.328	n/a	PROB	250164	n/a	LTP280	ltpFR2	19	n/a	n/a	n/a	2	10	2	2	6
501.396	n/a	PROB	250698	n/a	LTP280	ltpFR2	19	n/a	n/a	n/a	2	7	3	2	2
502.562	n/a	PROB	251281	n/a	LTP280	ltpFR2	19	n/a	n/a	n/a	2	5	1	3	1
503.396	n/a	PROB	251698	n/a	LTP280	ltpFR2	19	n/a	n/a	n/a	2	15	5	5	5
504.248	n/a	PROB	252124	n/a	LTP280	ltpFR2	19	n/a	n/a	n/a	2	6	3	2	1
505.05	n/a	PROB	252525	n/a	LTP280	ltpFR2	19	n/a	n/a	n/a	2	14	5	3	6
506.348	n/a	PROB	253174	n/a	LTP280	ltpFR2	19	n/a	n/a	n/a	2	12	6	2	4
507.634	n/a	PROB	253817	n/a	LTP280	ltpFR2	19	n/a	n/a	n/a	2	18	8	6	4
508.818	n/a	PROB	254409	n/a	LTP280	ltpFR2	19	n/a	n/a	n/a	2	20	6	8	8
509.982	n/a	PROB	254991	n/a	LTP280	ltpFR2	19	n/a	n/a	n/a	2	19	5	7	7
511.236	n/a	PROB	255618	n/a	LTP280	ltpFR2	19	n/a	n/a	n/a	2	110	6	2	2
513.088	n/a	PROB	256544	n/a	LTP280	ltpFR2	19	n/a	n/a	n/a	2	13	4	1	8
514.304	n/a	PROB	257152	n/a	LTP280	ltpFR2	19	n/a	n/a	n/a	2	8	1	5	2
515.768	n/a	STOP	257884	n/a	LTP280	ltpFR2	19	n/a	n/a	n/a	2	n/a	n/a	n/a	n/a
519.122	n/a	REC_START	259561	n/a	LTP280	ltpFR2	19	2	n/a	n/a	n/a	n/a	0	0	0
519.122	n/a	REC_WORD	259561	wordpools/wasnorm_wordpool_576.txt	LTP280	ltpFR2	19	2	SUITCASE	1403	n/a	n/a	0	0	0
520.21	n/a	REC_WORD	260105	wordpools/wasnorm_wordpool_576.txt	LTP280	ltpFR2	19	2	BUGGY	188	n/a	n/a	0	0	0
521.226	n/a	REC_WORD	260613	wordpools/wasnorm_wordpool_576.txt	LTP280	ltpFR2	19	2	GROUND	666	n/a	n/a	0	0	0
609.596	n/a	DISTRACTOR	304798	n/a	LTP280	ltpFR2	19	3	n/a	n/a	n/a	n/a	0	0	0
609.596	n/a	START	304798	n/a	LTP280	ltpFR2	19	n/a	n/a	n/a	3	n/a	n/a	n/a	n/a
609.61	n/a	PROB	304805	n/a	LTP280	ltpFR2	19	n/a	n/a	n/a	3	12	6	2	4
611.18	n/a	PROB	305590	n/a	LTP280	ltpFR2	19	n/a	n/a	n/a	3	15	3	3	9
612.48	n/a	PROB	306240	n/a	LTP280	ltpFR2	19	n/a	n/a	n/a	3	16	8	5	3
613.598	n/a	PROB	306799	n/a	LTP280	ltpFR2	19	n/a	n/a	n/a	3	21	4	8	9
614.9	n/a	PROB	307450	n/a	LTP280	ltpFR2	19	n/a	n/a	n/a	3	13	3	1	9
616.134	n/a	PROB	308067	n/a	LTP280	ltpFR2	19	n/a	n/a	n/a	3	11	2	8	1
616.936	n/a	PROB	308468	n/a	LTP280	ltpFR2	19	n/a	n/a	n/a	3	12	1	5	6
617.818	n/a	PROB	308909	n/a	LTP280	ltpFR2	19	n/a	n/a	n/a	3	17	8	6	3
619.07	n/a	PROB	309535	n/a	LTP280	ltpFR2	19	n/a	n/a	n/a	3	14	5	3	6
620.638	n/a	PROB	310319	n/a	LTP280	ltpFR2	19	n/a	n/a	n/a	3	15	6	3	6
622.172	n/a	PROB	311086	n/a	LTP280	ltpFR2	19	n/a	n/a	n/a	3	13	2	3	8
623.408	n/a	PROB	311704	n/a	LTP280	ltpFR2	19	n/a	n/a	n/a	3	13	2	7	4
625.024	n/a	PROB	312512	n/a	LTP280	ltpFR2	19	n/a	n/a	n/a	3	3	1	1	1
626.176	n/a	PROB	313088	n/a	LTP280	ltpFR2	19	n/a	n/a	n/a	3	12	5	3	4
628.162	n/a	PROB	314081	n/a	LTP280	ltpFR2	19	n/a	n/a	n/a	3	17	3	9	5
629.478	n/a	PROB	314739	n/a	LTP280	ltpFR2	19	n/a	n/a	n/a	3	10	3	5	2
630.644	n/a	PROB	315322	n/a	LTP280	ltpFR2	19	n/a	n/a	n/a	3	19	8	3	8
632.08	n/a	PROB	316040	n/a	LTP280	ltpFR2	19	n/a	n/a	n/a	3	17	6	5	6
633.028	n/a	STOP	316514	n/a	LTP280	ltpFR2	19	n/a	n/a	n/a	3	n/a	n/a	n/a	n/a
634.5	n/a	WORD	317250	wordpools/wasnorm_wordpool_576.txt	LTP280	ltpFR2	19	3	BLENDER	136	n/a	n/a	0	0	0
637.118	n/a	WORD	318559	wordpools/wasnorm_wordpool_576.txt	LTP280	ltpFR2	19	3	LOFT	840	n/a	n/a	0	0	0
639.756	n/a	WORD	319878	wordpools/wasnorm_wordpool_576.txt	LTP280	ltpFR2	19	3	BOYFRIEND	162	n/a	n/a	0	0	0
642.294	n/a	WORD	321147	wordpools/wasnorm_wordpool_576.txt	LTP280	ltpFR2	19	3	PIGMENT	1066	n/a	n/a	0	0	0
644.756	n/a	WORD	322378	wordpools/wasnorm_wordpool_576.txt	LTP280	ltpFR2	19	3	OFFICE	972	n/a	n/a	0	0	0
647.298	n/a	WORD	323649	wordpools/wasnorm_wordpool_576.txt	LTP280	ltpFR2	19	3	SPIDER	1351	n/a	n/a	0	0	0
649.912	n/a	WORD	324956	wordpools/wasnorm_wordpool_576.txt	LTP280	ltpFR2	19	3	WASHER	1592	n/a	n/a	0	0	0
652.37	n/a	WORD	326185	wordpools/wasnorm_wordpool_576.txt	LTP280	ltpFR2	19	3	ROBOT	1200	n/a	n/a	0	0	0
655.032	n/a	WORD	327516	wordpools/wasnorm_wordpool_576.txt	LTP280	ltpFR2	19	3	LIPSTICK	829	n/a	n/a	0	0	0
657.666	n/a	WORD	328833	wordpools/wasnorm_wordpool_576.txt	LTP280	ltpFR2	19	3	CANAL	226	n/a	n/a	0	0	0
660.352	n/a	WORD	330176	wordpools/wasnorm_wordpool_576.txt	LTP280	ltpFR2	19	3	SPACE	1345	n/a	n/a	0	0	0
663.106	n/a	WORD	331553	wordpools/wasnorm_wordpool_576.txt	LTP280	ltpFR2	19	3	STAMP	1370	n/a	n/a	0	0	0
665.848	n/a	WORD	332924	wordpools/wasnorm_wordpool_576.txt	LTP280	ltpFR2	19	3	CRAYON	401	n/a	n/a	0	0	0
668.582	n/a	WORD	334291	wordpools/wasnorm_wordpool_576.txt	LTP280	ltpFR2	19	3	NIGHTGOWN	953	n/a	n/a	0	0	0
671.294	n/a	WORD	335647	wordpools/wasnorm_wordpool_576.txt	LTP280	ltpFR2	19	3	THREAD	1460	n/a	n/a	0	0	0
673.78	n/a	WORD	336890	wordpools/wasnorm_wordpool_576.txt	LTP280	ltpFR2	19	3	PIZZA	1079	n/a	n/a	0	0	0
676.456	n/a	WORD	338228	wordpools/wasnorm_wordpool_576.txt	LTP280	ltpFR2	19	3	COD	340	n/a	n/a	0	0	0
679.26	n/a	WORD	339630	wordpools/wasnorm_wordpool_576.txt	LTP280	ltpFR2	19	3	SALMON	1227	n/a	n/a	0	0	0
681.888	n/a	WORD	340944	wordpools/wasnorm_wordpool_576.txt	LTP280	ltpFR2	19	3	COWBOY	395	n/a	n/a	0	0	0
684.704	n/a	WORD	342352	wordpools/wasnorm_wordpool_576.txt	LTP280	ltpFR2	19	3	DRESSER	496	n/a	n/a	0	0	0
687.15	n/a	WORD	343575	wordpools/wasnorm_wordpool_576.txt	LTP280	ltpFR2	19	3	APRON	35	n/a	n/a	0	0	0
689.792	n/a	WORD	344896	wordpools/wasnorm_wordpool_576.txt	LTP280	ltpFR2	19	3	CONVICT	371	n/a	n/a	0	0	0
692.31	n/a	WORD	346155	wordpools/wasnorm_wordpool_576.txt	LTP280	ltpFR2	19	3	ISLAND	745	n/a	n/a	0	0	0
695.048	n/a	WORD	347524	wordpools/wasnorm_wordpool_576.txt	LTP280	ltpFR2	19	3	LAVA	804	n/a	n/a	0	0	0
696.658	n/a	START	348329	n/a	LTP280	ltpFR2	19	n/a	n/a	n/a	4	n/a	n/a	n/a	n/a
697.622	n/a	DISTRACTOR	348811	n/a	LTP280	ltpFR2	19	3	n/a	n/a	n/a	n/a	0	0	0
697.632	n/a	PROB	348816	n/a	LTP280	ltpFR2	19	n/a	n/a	n/a	4	18	5	4	9
699.066	n/a	PROB	349533	n/a	LTP280	ltpFR2	19	n/a	n/a	n/a	4	11	4	1	6
699.982	n/a	PROB	349991	n/a	LTP280	ltpFR2	19	n/a	n/a	n/a	4	25	6	8	9
701.616	n/a	PROB	350808	n/a	LTP280	ltpFR2	19	n/a	n/a	n/a	4	16	9	2	5
703.6	n/a	PROB	351800	n/a	LTP280	ltpFR2	19	n/a	n/a	n/a	4	5	2	1	2
704.536	n/a	PROB	352268	n/a	LTP280	ltpFR2	19	n/a	n/a	n/a	4	19	9	9	1
705.57	n/a	PROB	352785	n/a	LTP280	ltpFR2	19	n/a	n/a	n/a	4	14	4	2	8
706.738	n/a	PROB	353369	n/a	LTP280	ltpFR2	19	n/a	n/a	n/a	4	16	3	6	7
708.238	n/a	PROB	354119	n/a	LTP280	ltpFR2	19	n/a	n/a	n/a	4	16	4	8	4
709.758	n/a	PROB	354879	n/a	LTP280	ltpFR2	19	n/a	n/a	n/a	4	22	9	4	9
711.424	n/a	PROB	355712	n/a	LTP280	ltpFR2	19	n/a	n/a	n/a	4	22	5	9	8
713.228	n/a	PROB	356614	n/a	LTP280	ltpFR2	19	n/a	n/a	n/a	4	13	4	6	3
714.262	n/a	PROB	357131	n/a	LTP280	ltpFR2	19	n/a	n/a	n/a	4	17	7	7	3
715.446	n/a	PROB	357723	n/a	LTP280	ltpFR2	19	n/a	n/a	n/a	4	18	7	9	2
716.694	n/a	PROB	358347	n/a	LTP280	ltpFR2	19	n/a	n/a	n/a	4	19	8	5	6
718.066	n/a	PROB	359033	n/a	LTP280	ltpFR2	19	n/a	n/a	n/a	4	18	8	5	5
719.174	n/a	STOP	359587	n/a	LTP280	ltpFR2	19	n/a	n/a	n/a	4	n/a	n/a	n/a	n/a
722.4	n/a	REC_START	361200	n/a	LTP280	ltpFR2	19	3	n/a	n/a	n/a	n/a	0	0	0
722.768	n/a	REC_WORD	361384	wordpools/wasnorm_wordpool_576.txt	LTP280	ltpFR2	19	3	ISLAND	745	n/a	n/a	0	0	0
723.324	n/a	REC_WORD	361662	wordpools/wasnorm_wordpool_576.txt	LTP280	ltpFR2	19	3	NIGHTGOWN	953	n/a	n/a	0	0	0
724.442	n/a	REC_WORD	362221	wordpools/wasnorm_wordpool_576.txt	LTP280	ltpFR2	19	3	COD	340	n/a	n/a	0	0	0
725.254	n/a	REC_WORD	362627	wordpools/wasnorm_wordpool_576.txt	LTP280	ltpFR2	19	3	SALMON	1227	n/a	n/a	0	0	0
727.516	n/a	REC_WORD	363758	wordpools/wasnorm_wordpool_576.txt	LTP280	ltpFR2	19	3	APRON	35	n/a	n/a	0	0	0
741.598	n/a	REC_WORD	370799	wordpools/wasnorm_wordpool_576.txt	LTP280	ltpFR2	19	3	ISLAND	745	n/a	n/a	0	0	0
742.282	n/a	REC_WORD	371141	wordpools/wasnorm_wordpool_576.txt	LTP280	ltpFR2	19	3	LAVA	804	n/a	n/a	0	0	0
754.446	n/a	REC_WORD	377223	wordpools/wasnorm_wordpool_576.txt	LTP280	ltpFR2	19	3	BEEF	113	n/a	n/a	0	0	0
787.202	n/a	REC_WORD	393601	wordpools/wasnorm_wordpool_576.txt	LTP280	ltpFR2	19	3	THREAD	1460	n/a	n/a	0	0	0
812.87	n/a	WORD	406435	wordpools/wasnorm_wordpool_576.txt	LTP280	ltpFR2	19	4	GREASE	660	n/a	n/a	0	0	0
815.408	n/a	WORD	407704	wordpools/wasnorm_wordpool_576.txt	LTP280	ltpFR2	19	4	SHOVEL	1295	n/a	n/a	0	0	0
817.978	n/a	WORD	408989	wordpools/wasnorm_wordpool_576.txt	LTP280	ltpFR2	19	4	COCOON	339	n/a	n/a	0	0	0
820.412	n/a	WORD	410206	wordpools/wasnorm_wordpool_576.txt	LTP280	ltpFR2	19	4	CUPBOARD	425	n/a	n/a	0	0	0
823.212	n/a	WORD	411606	wordpools/wasnorm_wordpool_576.txt	LTP280	ltpFR2	19	4	CHILD	299	n/a	n/a	0	0	0
825.732	n/a	WORD	412866	wordpools/wasnorm_wordpool_576.txt	LTP280	ltpFR2	19	4	PARROT	1015	n/a	n/a	0	0	0
828.25	n/a	WORD	414125	wordpools/wasnorm_wordpool_576.txt	LTP280	ltpFR2	19	4	MESSAGE	888	n/a	n/a	0	0	0
830.904	n/a	WORD	415452	wordpools/wasnorm_wordpool_576.txt	LTP280	ltpFR2	19	4	POSTAGE	1113	n/a	n/a	0	0	0
833.404	n/a	WORD	416702	wordpools/wasnorm_wordpool_576.txt	LTP280	ltpFR2	19	4	PENGUIN	1044	n/a	n/a	0	0	0
835.924	n/a	WORD	417962	wordpools/wasnorm_wordpool_576.txt	LTP280	ltpFR2	19	4	HOSTESS	723	n/a	n/a	0	0	0
838.424	n/a	WORD	419212	wordpools/wasnorm_wordpool_576.txt	LTP280	ltpFR2	19	4	REBEL	1172	n/a	n/a	0	0	0
840.86	n/a	WORD	420430	wordpools/wasnorm_wordpool_576.txt	LTP280	ltpFR2	19	4	JOURNAL	760	n/a	n/a	0	0	0
843.578	n/a	WORD	421789	wordpools/wasnorm_wordpool_576.txt	LTP280	ltpFR2	19	4	SURVEY	1414	n/a	n/a	0	0	0
846.198	n/a	WORD	423099	wordpools/wasnorm_wordpool_576.txt	LTP280	ltpFR2	19	4	LUNCH	849	n/a	n/a	0	0	0
848.782	n/a	WORD	424391	wordpools/wasnorm_wordpool_576.txt	LTP280	ltpFR2	19	4	SCRIBBLE	1256	n/a	n/a	0	0	0
851.47	n/a	WORD	425735	wordpools/wasnorm_wordpool_576.txt	LTP280	ltpFR2	19	4	MEDAL	885	n/a	n/a	0	0	0
854.238	n/a	WORD	427119	wordpools/wasnorm_wordpool_576.txt	LTP280	ltpFR2	19	4	AWARD	63	n/a	n/a	0	0	0
856.878	n/a	WORD	428439	wordpools/wasnorm_wordpool_576.txt	LTP280	ltpFR2	19	4	BASEMENT	94	n/a	n/a	0	0	0
859.662	n/a	WORD	429831	wordpools/wasnorm_wordpool_576.txt	LTP280	ltpFR2	19	4	BRIEFCASE	175	n/a	n/a	0	0	0
862.428	n/a	WORD	431214	wordpools/wasnorm_wordpool_576.txt	LTP280	ltpFR2	19	4	PUPIL	1143	n/a	n/a	0	0	0
864.962	n/a	WORD	432481	wordpools/wasnorm_wordpool_576.txt	LTP280	ltpFR2	19	4	PADDLE	1000	n/a	n/a	0	0	0
867.646	n/a	WORD	433823	wordpools/wasnorm_wordpool_576.txt	LTP280	ltpFR2	19	4	GHETTO	633	n/a	n/a	0	0	0
870.332	n/a	WORD	435166	wordpools/wasnorm_wordpool_576.txt	LTP280	ltpFR2	19	4	PASSAGE	1019	n/a	n/a	0	0	0
873.07	n/a	WORD	436535	wordpools/wasnorm_wordpool_576.txt	LTP280	ltpFR2	19	4	MARINE	869	n/a	n/a	0	0	0
874.674	n/a	START	437337	n/a	LTP280	ltpFR2	19	n/a	n/a	n/a	5	n/a	n/a	n/a	n/a
875.818	n/a	DISTRACTOR	437909	n/a	LTP280	ltpFR2	19	4	n/a	n/a	n/a	n/a	0	0	0
875.826	n/a	PROB	437913	n/a	LTP280	ltpFR2	19	n/a	n/a	n/a	5	13	3	5	5
877.004	n/a	PROB	438502	n/a	LTP280	ltpFR2	19	n/a	n/a	n/a	5	17	3	6	8
878.924	n/a	PROB	439462	n/a	LTP280	ltpFR2	19	n/a	n/a	n/a	5	15	9	5	1
880.024	n/a	PROB	440012	n/a	LTP280	ltpFR2	19	n/a	n/a	n/a	5	6	1	4	1
881.024	n/a	PROB	440512	n/a	LTP280	ltpFR2	19	n/a	n/a	n/a	5	11	2	7	2
882.34	n/a	PROB	441170	n/a	LTP280	ltpFR2	19	n/a	n/a	n/a	5	12	5	5	2
883.276	n/a	PROB	441638	n/a	LTP280	ltpFR2	19	n/a	n/a	n/a	5	11	1	8	2
884.292	n/a	PROB	442146	n/a	LTP280	ltpFR2	19	n/a	n/a	n/a	5	12	7	1	4
885.578	n/a	PROB	442789	n/a	LTP280	ltpFR2	19	n/a	n/a	n/a	5	23	8	5	9
888.114	n/a	PROB	444057	n/a	LTP280	ltpFR2	19	n/a	n/a	n/a	5	16	8	6	2
891.098	n/a	PROB	445549	n/a	LTP280	ltpFR2	19	n/a	n/a	n/a	5	22	8	6	9
892.534	n/a	PROB	446267	n/a	LTP280	ltpFR2	19	n/a	n/a	n/a	5	8	4	1	3
893.434	n/a	PROB	446717	n/a	LTP280	ltpFR2	19	n/a	n/a	n/a	5	21	7	9	5
894.584	n/a	PROB	447292	n/a	LTP280	ltpFR2	19	n/a	n/a	n/a	5	7	1	4	2
895.602	n/a	PROB	447801	n/a	LTP280	ltpFR2	19	n/a	n/a	n/a	5	24	8	8	6
897.12	n/a	PROB	448560	n/a	LTP280	ltpFR2	19	n/a	n/a	n/a	5	15	7	6	2
898.288	n/a	STOP	449144	n/a	LTP280	ltpFR2	19	n/a	n/a	n/a	5	n/a	n/a	n/a	n/a
900.474	n/a	REC_START	450237	n/a	LTP280	ltpFR2	19	4	n/a	n/a	n/a	n/a	0	0	0
900.834	n/a	REC_WORD	450417	wordpools/wasnorm_wordpool_576.txt	LTP280	ltpFR2	19	4	PUPIL	1143	n/a	n/a	0	0	0
901.556	n/a	REC_WORD	450778	wordpools/wasnorm_wordpool_576.txt	LTP280	ltpFR2	19	4	PUPIL	1143	n/a	n/a	0	0	0
902.26	n/a	REC_WORD_VV	451130	wordpools/wasnorm_wordpool_576.txt	LTP280	ltpFR2	19	4	<>	-1	n/a	n/a	0	0	0
902.706	n/a	REC_WORD	451353	wordpools/wasnorm_wordpool_576.txt	LTP280	ltpFR2	19	4	PADDLE	1000	n/a	n/a	0	0	0
903.49	n/a	REC_WORD	451745	wordpools/wasnorm_wordpool_576.txt	LTP280	ltpFR2	19	4	GHETTO	633	n/a	n/a	0	0	0
904.03	n/a	REC_WORD	452015	wordpools/wasnorm_wordpool_576.txt	LTP280	ltpFR2	19	4	PASSAGE	1019	n/a	n/a	0	0	0
905.454	n/a	REC_WORD	452727	wordpools/wasnorm_wordpool_576.txt	LTP280	ltpFR2	19	4	MARINE	869	n/a	n/a	0	0	0
990.924	n/a	WORD	495462	wordpools/wasnorm_wordpool_576.txt	LTP280	ltpFR2	19	5	MEAT	883	n/a	n/a	0	0	0
993.462	n/a	WORD	496731	wordpools/wasnorm_wordpool_576.txt	LTP280	ltpFR2	19	5	PORTRAIT	1111	n/a	n/a	0	0	0
996.082	n/a	WORD	498041	wordpools/wasnorm_wordpool_576.txt	LTP280	ltpFR2	19	5	FRAME	600	n/a	n/a	0	0	0
998.662	n/a	WORD	499331	wordpools/wasnorm_wordpool_576.txt	LTP280	ltpFR2	19	5	COBRA	336	n/a	n/a	0	0	0
1001.302	n/a	WORD	500651	wordpools/wasnorm_wordpool_576.txt	LTP280	ltpFR2	19	5	SADDLE	1221	n/a	n/a	0	0	0
1003.768	n/a	WORD	501884	wordpools/wasnorm_wordpool_576.txt	LTP280	ltpFR2	19	5	TWIG	1527	n/a	n/a	0	0	0
1006.57	n/a	WORD	503285	wordpools/wasnorm_wordpool_576.txt	LTP280	ltpFR2	19	5	WRENCH	1625	n/a	n/a	0	0	0
1009.372	n/a	WORD	504686	wordpools/wasnorm_wordpool_576.txt	LTP280	ltpFR2	19	5	GAVEL	627	n/a	n/a	0	0	0
1012.108	n/a	WORD	506054	wordpools/wasnorm_wordpool_576.txt	LTP280	ltpFR2	19	5	DINER	467	n/a	n/a	0	0	0
1014.91	n/a	WORD	507455	wordpools/wasnorm_wordpool_576.txt	LTP280	ltpFR2	19	5	SANDWICH	1232	n/a	n/a	0	0	0
1017.448	n/a	WORD	508724	wordpools/wasnorm_wordpool_576.txt	LTP280	ltpFR2	19	5	DONKEY	484	n/a	n/a	0	0	0
1020.032	n/a	WORD	510016	wordpools/wasnorm_wordpool_576.txt	LTP280	ltpFR2	19	5	HUSBAND	728	n/a	n/a	0	0	0
1022.834	n/a	WORD	511417	wordpools/wasnorm_wordpool_576.txt	LTP280	ltpFR2	19	5	CRATER	400	n/a	n/a	0	0	0
1025.502	n/a	WORD	512751	wordpools/wasnorm_wordpool_576.txt	LTP280	ltpFR2	19	5	MAPLE	866	n/a	n/a	0	0	0
1028.288	n/a	WORD	514144	wordpools/wasnorm_wordpool_576.txt	LTP280	ltpFR2	19	5	FRAGRANCE	599	n/a	n/a	0	0	0
1030.992	n/a	WORD	515496	wordpools/wasnorm_wordpool_576.txt	LTP280	ltpFR2	19	5	SODA	1341	n/a	n/a	0	0	0
1033.51	n/a	WORD	516755	wordpools/wasnorm_wordpool_576.txt	LTP280	ltpFR2	19	5	ANTLER	29	n/a	n/a	0	0	0
1036.014	n/a	WORD	518007	wordpools/wasnorm_wordpool_576.txt	LTP280	ltpFR2	19	5	PLUTO	1092	n/a	n/a	0	0	0
1038.498	n/a	WORD	519249	wordpools/wasnorm_wordpool_576.txt	LTP280	ltpFR2	19	5	NECKLACE	940	n/a	n/a	0	0	0
1040.968	n/a	WORD	520484	wordpools/wasnorm_wordpool_576.txt	LTP280	ltpFR2	19	5	PERFUME	1049	n/a	n/a	0	0	0
1043.768	n/a	WORD	521884	wordpools/wasnorm_wordpool_576.txt	LTP280	ltpFR2	19	5	HAMPER	682	n/a	n/a	0	0	0
1046.27	n/a	WORD	523135	wordpools/wasnorm_wordpool_576.txt	LTP280	ltpFR2	19	5	BISON	131	n/a	n/a	0	0	0
1048.788	n/a	WORD	524394	wordpools/wasnorm_wordpool_576.txt	LTP280	ltpFR2	19	5	POSSUM	1112	n/a	n/a	0	0	0
1051.424	n/a	WORD	525712	wordpools/wasnorm_wordpool_576.txt	LTP280	ltpFR2	19	5	SCOTCH	1251	n/a	n/a	0	0	0
1053.044	n/a	START	526522	n/a	LTP280	ltpFR2	19	n/a	n/a	n/a	6	n/a	n/a	n/a	n/a
1053.946	n/a	DISTRACTOR	526973	n/a	LTP280	ltpFR2	19	5	n/a	n/a	n/a	n/a	0	0	0
1053.96	n/a	PROB	526980	n/a	LTP280	ltpFR2	19	n/a	n/a	n/a	6	22	4	9	9
1055.194	n/a	PROB	527597	n/a	LTP280	ltpFR2	19	n/a	n/a	n/a	6	14	7	1	6
1056.262	n/a	PROB	528131	n/a	LTP280	ltpFR2	19	n/a	n/a	n/a	6	6	1	2	3
1057.228	n/a	PROB	528614	n/a	LTP280	ltpFR2	19	n/a	n/a	n/a	6	13	7	4	2
1058.962	n/a	PROB	529481	n/a	LTP280	ltpFR2	19	n/a	n/a	n/a	6	21	8	4	9
1060.73	n/a	PROB	530365	n/a	LTP280	ltpFR2	19	n/a	n/a	n/a	6	20	9	8	3
1062.134	n/a	PROB	531067	n/a	LTP280	ltpFR2	19	n/a	n/a	n/a	6	10	2	5	3
1063.248	n/a	PROB	531624	n/a	LTP280	ltpFR2	19	n/a	n/a	n/a	6	19	6	5	8
1064.5	n/a	PROB	532250	n/a	LTP280	ltpFR2	19	n/a	n/a	n/a	6	19	8	5	6
1066.818	n/a	PROB	533409	n/a	LTP280	ltpFR2	19	n/a	n/a	n/a	6	16	7	7	2
1067.922	n/a	PROB	533961	n/a	LTP280	ltpFR2	19	n/a	n/a	n/a	6	15	5	6	4
1069.138	n/a	PROB	534569	n/a	LTP280	ltpFR2	19	n/a	n/a	n/a	6	16	4	4	8
1070.638	n/a	PROB	535319	n/a	LTP280	ltpFR2	19	n/a	n/a	n/a	6	12	9	1	2
1071.772	n/a	PROB	535886	n/a	LTP280	ltpFR2	19	n/a	n/a	n/a	6	24	6	9	9
1073.574	n/a	PROB	536787	n/a	LTP280	ltpFR2	19	n/a	n/a	n/a	6	7	5	1	1
1074.54	n/a	PROB	537270	n/a	LTP280	ltpFR2	19	n/a	n/a	n/a	6	20	4	7	9
1075.762	n/a	STOP	537881	n/a	LTP280	ltpFR2	19	n/a	n/a	n/a	6	n/a	n/a	n/a	n/a
1078.948	n/a	REC_START	539474	n/a	LTP280	ltpFR2	19	5	n/a	n/a	n/a	n/a	0	0	0
1079.294	n/a	REC_WORD	539647	wordpools/wasnorm_wordpool_576.txt	LTP280	ltpFR2	19	5	BISON	131	n/a	n/a	0	0	0
1080.362	n/a	REC_WORD	540181	wordpools/wasnorm_wordpool_576.txt	LTP280	ltpFR2	19	5	SCOTCH	1251	n/a	n/a	0	0	0
1082.058	n/a	REC_WORD	541029	wordpools/wasnorm_wordpool_576.txt	LTP280	ltpFR2	19	5	MEAT	883	n/a	n/a	0	0	0
1085.74	n/a	REC_WORD	542870	wordpools/wasnorm_wordpool_576.txt	LTP280	ltpFR2	19	5	FRAME	600	n/a	n/a	0	0	0
1087.986	n/a	REC_WORD	543993	wordpools/wasnorm_wordpool_576.txt	LTP280	ltpFR2	19	5	PORTRAIT	1111	n/a	n/a	0	0	0
1096.568	n/a	REC_WORD	548284	wordpools/wasnorm_wordpool_576.txt	LTP280	ltpFR2	19	5	POSSUM	1112	n/a	n/a	0	0	0
1169.368	n/a	DISTRACTOR	584684	n/a	LTP280	ltpFR2	19	6	n/a	n/a	n/a	n/a	0	0	0
1169.368	n/a	START	584684	n/a	LTP280	ltpFR2	19	n/a	n/a	n/a	7	n/a	n/a	n/a	n/a
1169.382	n/a	PROB	584691	n/a	LTP280	ltpFR2	19	n/a	n/a	n/a	7	8	2	5	1
1170.282	n/a	PROB	585141	n/a	LTP280	ltpFR2	19	n/a	n/a	n/a	7	13	4	3	6
1171.568	n/a	PROB	585784	n/a	LTP280	ltpFR2	19	n/a	n/a	n/a	7	11	9	1	1
1172.468	n/a	PROB	586234	n/a	LTP280	ltpFR2	19	n/a	n/a	n/a	7	17	9	6	2
1173.57	n/a	PROB	586785	n/a	LTP280	ltpFR2	19	n/a	n/a	n/a	7	17	8	5	4
1174.82	n/a	PROB	587410	n/a	LTP280	ltpFR2	19	n/a	n/a	n/a	7	15	5	2	8
1176.188	n/a	PROB	588094	n/a	LTP280	ltpFR2	19	n/a	n/a	n/a	7	16	7	8	1
1177.254	n/a	PROB	588627	n/a	LTP280	ltpFR2	19	n/a	n/a	n/a	7	11	2	7	2
1178.622	n/a	PROB	589311	n/a	LTP280	ltpFR2	19	n/a	n/a	n/a	7	15	3	6	3
1179.822	n/a	PROB	589911	n/a	LTP280	ltpFR2	19	n/a	n/a	n/a	7	15	5	7	3
1181.608	n/a	PROB	590804	n/a	LTP280	ltpFR2	19	n/a	n/a	n/a	7	14	7	5	2
1182.876	n/a	PROB	591438	n/a	LTP280	ltpFR2	19	n/a	n/a	n/a	7	23	7	7	9
1184.31	n/a	PROB	592155	n/a	LTP280	ltpFR2	19	n/a	n/a	n/a	7	5	3	1	1
1185.144	n/a	PROB	592572	n/a	LTP280	ltpFR2	19	n/a	n/a	n/a	7	10	5	1	4
1186.178	n/a	PROB	593089	n/a	LTP280	ltpFR2	19	n/a	n/a	n/a	7	8	4	2	2
1187.062	n/a	PROB	593531	n/a	LTP280	ltpFR2	19	n/a	n/a	n/a	7	17	8	4	5
1188.28	n/a	PROB	594140	n/a	LTP280	ltpFR2	19	n/a	n/a	n/a	7	20	8	3	9
1190.514	n/a	PROB	595257	n/a	LTP280	ltpFR2	19	n/a	n/a	n/a	7	15	4	7	4
1191.8	n/a	PROB	595900	n/a	LTP280	ltpFR2	19	n/a	n/a	n/a	7	14	5	7	2
1192.91	n/a	STOP	596455	n/a	LTP280	ltpFR2	19	n/a	n/a	n/a	7	n/a	n/a	n/a	n/a
1194.52	n/a	WORD	597260	wordpools/wasnorm_wordpool_576.txt	LTP280	ltpFR2	19	6	CHEST	295	n/a	n/a	0	0	0
1196.99	n/a	WORD	598495	wordpools/wasnorm_wordpool_576.txt	LTP280	ltpFR2	19	6	ZEBRA	1635	n/a	n/a	0	0	0
1199.768	n/a	WORD	599884	wordpools/wasnorm_wordpool_576.txt	LTP280	ltpFR2	19	6	LILY	821	n/a	n/a	0	0	0
1202.536	n/a	WORD	601268	wordpools/wasnorm_wordpool_576.txt	LTP280	ltpFR2	19	6	GARDEN	623	n/a	n/a	0	0	0
1205.278	n/a	WORD	602639	wordpools/wasnorm_wordpool_576.txt	LTP280	ltpFR2	19	6	GUARD	667	n/a	n/a	0	0	0
1208.026	n/a	WORD	604013	wordpools/wasnorm_wordpool_576.txt	LTP280	ltpFR2	19	6	AGENT	10	n/a	n/a	0	0	0
1210.61	n/a	WORD	605305	wordpools/wasnorm_wordpool_576.txt	LTP280	ltpFR2	19	6	CASHEW	253	n/a	n/a	0	0	0
1213.096	n/a	WORD	606548	wordpools/wasnorm_wordpool_576.txt	LTP280	ltpFR2	19	6	COCKTAIL	338	n/a	n/a	0	0	0
1215.67	n/a	WORD	607835	wordpools/wasnorm_wordpool_576.txt	LTP280	ltpFR2	19	6	EMPIRE	530	n/a	n/a	0	0	0
1218.206	n/a	WORD	609103	wordpools/wasnorm_wordpool_576.txt	LTP280	ltpFR2	19	6	FRUIT	610	n/a	n/a	0	0	0
1220.79	n/a	WORD	610395	wordpools/wasnorm_wordpool_576.txt	LTP280	ltpFR2	19	6	GRAPE	654	n/a	n/a	0	0	0
1223.504	n/a	WORD	611752	wordpools/wasnorm_wordpool_576.txt	LTP280	ltpFR2	19	6	SLIME	1327	n/a	n/a	0	0	0
1226.174	n/a	WORD	613087	wordpools/wasnorm_wordpool_576.txt	LTP280	ltpFR2	19	6	PARSLEY	1016	n/a	n/a	0	0	0
1228.696	n/a	WORD	614348	wordpools/wasnorm_wordpool_576.txt	LTP280	ltpFR2	19	6	IDOL	733	n/a	n/a	0	0	0
1231.128	n/a	WORD	615564	wordpools/wasnorm_wordpool_576.txt	LTP280	ltpFR2	19	6	STREAM	1392	n/a	n/a	0	0	0
1233.58	n/a	WORD	616790	wordpools/wasnorm_wordpool_576.txt	LTP280	ltpFR2	19	6	TURNIP	1521	n/a	n/a	0	0	0
1236.286	n/a	WORD	618143	wordpools/wasnorm_wordpool_576.txt	LTP280	ltpFR2	19	6	HAND	683	n/a	n/a	0	0	0
1239.038	n/a	WORD	619519	wordpools/wasnorm_wordpool_576.txt	LTP280	ltpFR2	19	6	HAWK	692	n/a	n/a	0	0	0
1241.736	n/a	WORD	620868	wordpools/wasnorm_wordpool_576.txt	LTP280	ltpFR2	19	6	LONDON	843	n/a	n/a	0	0	0
1244.508	n/a	WORD	622254	wordpools/wasnorm_wordpool_576.txt	LTP280	ltpFR2	19	6	EXPERT	543	n/a	n/a	0	0	0
1246.942	n/a	WORD	623471	wordpools/wasnorm_wordpool_576.txt	LTP280	ltpFR2	19	6	FIREMAN	569	n/a	n/a	0	0	0
1249.676	n/a	WORD	624838	wordpools/wasnorm_wordpool_576.txt	LTP280	ltpFR2	19	6	FINGER	567	n/a	n/a	0	0	0
1252.18	n/a	WORD	626090	wordpools/wasnorm_wordpool_576.txt	LTP280	ltpFR2	19	6	STALLION	1369	n/a	n/a	0	0	0
1254.932	n/a	WORD	627466	wordpools/wasnorm_wordpool_576.txt	LTP280	ltpFR2	19	6	STONE	1385	n/a	n/a	0	0	0
1256.55	n/a	START	628275	n/a	LTP280	ltpFR2	19	n/a	n/a	n/a	8	n/a	n/a	n/a	n/a
1257.638	n/a	DISTRACTOR	628819	n/a	LTP280	ltpFR2	19	6	n/a	n/a	n/a	n/a	0	0	0
1257.65	n/a	PROB	628825	n/a	LTP280	ltpFR2	19	n/a	n/a	n/a	8	25	8	9	8
1258.866	n/a	PROB	629433	n/a	LTP280	ltpFR2	19	n/a	n/a	n/a	8	22	8	7	7
1260.27	n/a	PROB	630135	n/a	LTP280	ltpFR2	19	n/a	n/a	n/a	8	13	6	2	5
1261.954	n/a	PROB	630977	n/a	LTP280	ltpFR2	19	n/a	n/a	n/a	8	6	2	1	3
1263.304	n/a	PROB	631652	n/a	LTP280	ltpFR2	19	n/a	n/a	n/a	8	17	6	9	2
1264.538	n/a	PROB	632269	n/a	LTP280	ltpFR2	19	n/a	n/a	n/a	8	15	9	3	3
1265.858	n/a	PROB	632929	n/a	LTP280	ltpFR2	19	n/a	n/a	n/a	8	15	6	8	1
1266.842	n/a	PROB	633421	n/a	LTP280	ltpFR2	19	n/a	n/a	n/a	8	14	8	5	1
1268.11	n/a	PROB	634055	n/a	LTP280	ltpFR2	19	n/a	n/a	n/a	8	18	5	5	8
1269.176	n/a	PROB	634588	n/a	LTP280	ltpFR2	19	n/a	n/a	n/a	8	15	7	4	4
1270.446	n/a	PROB	635223	n/a	LTP280	ltpFR2	19	n/a	n/a	n/a	8	17	8	5	4
1272.264	n/a	PROB	636132	n/a	LTP280	ltpFR2	19	n/a	n/a	n/a	8	22	8	8	6
1273.782	n/a	PROB	636891	n/a	LTP280	ltpFR2	19	n/a	n/a	n/a	8	14	2	4	8
1275.582	n/a	PROB	637791	n/a	LTP280	ltpFR2	19	n/a	n/a	n/a	8	7	1	4	2
1276.498	n/a	PROB	638249	n/a	LTP280	ltpFR2	19	n/a	n/a	n/a	8	17	8	3	6
1277.716	n/a	PROB	638858	n/a	LTP280	ltpFR2	19	n/a	n/a	n/a	8	11	3	5	3
1279.03	n/a	STOP	639515	n/a	LTP280	ltpFR2	19	n/a	n/a	n/a	8	n/a	n/a	n/a	n/a
1282.454	n/a	REC_START	641227	n/a	LTP280	ltpFR2	19	6	n/a	n/a	n/a	n/a	0	0	0
1282.836	n/a	REC_WORD	641418	wordpools/wasnorm_wordpool_576.txt	LTP280	ltpFR2	19	6	FRUIT	610	n/a	n/a	0	0	0
1283.362	n/a	REC_WORD	641681	wordpools/wasnorm_wordpool_576.txt	LTP280	ltpFR2	19	6	GRAPE	654	n/a	n/a	0	0	0
1283.97	n/a	REC_WORD	641985	wordpools/wasnorm_wordpool_576.txt	LTP280	ltpFR2	19	6	GARDEN	623	n/a	n/a	0	0	0
1284.412	n/a	REC_WORD	642206	wordpools/wasnorm_wordpool_576.txt	LTP280	ltpFR2	19	6	LILY	821	n/a	n/a	0	0	0
1285.672	n/a	REC_WORD	642836	wordpools/wasnorm_wordpool_576.txt	LTP280	ltpFR2	19	6	PARSLEY	1016	n/a	n/a	0	0	0
1289.404	n/a	REC_WORD	644702	wordpools/wasnorm_wordpool_576.txt	LTP280	ltpFR2	19	6	TURNIP	1521	n/a	n/a	0	0	0
1290.794	n/a	REC_WORD	645397	wordpools/wasnorm_wordpool_576.txt	LTP280	ltpFR2	19	6	EXPERT	543	n/a	n/a	0	0	0
1291.608	n/a	REC_WORD	645804	wordpools/wasnorm_wordpool_576.txt	LTP280	ltpFR2	19	6	FIREMAN	569	n/a	n/a	0	0	0
1372.876	n/a	DISTRACTOR	686438	n/a	LTP280	ltpFR2	19	7	n/a	n/a	n/a	n/a	0	0	0
1372.876	n/a	START	686438	n/a	LTP280	ltpFR2	19	n/a	n/a	n/a	9	n/a	n/a	n/a	n/a
1372.892	n/a	PROB	686446	n/a	LTP280	ltpFR2	19	n/a	n/a	n/a	9	12	2	3	7
1374.292	n/a	PROB	687146	n/a	LTP280	ltpFR2	19	n/a	n/a	n/a	9	19	2	9	8
1375.608	n/a	PROB	687804	n/a	LTP280	ltpFR2	19	n/a	n/a	n/a	9	15	9	2	4
1377.162	n/a	PROB	688581	n/a	LTP280	ltpFR2	19	n/a	n/a	n/a	9	14	1	7	6
1379.014	n/a	PROB	689507	n/a	LTP280	ltpFR2	19	n/a	n/a	n/a	9	17	7	6	4
1380.748	n/a	PROB	690374	n/a	LTP280	ltpFR2	19	n/a	n/a	n/a	9	19	3	7	9
1381.982	n/a	PROB	690991	n/a	LTP280	ltpFR2	19	n/a	n/a	n/a	9	17	9	6	2
1383.084	n/a	PROB	691542	n/a	LTP280	ltpFR2	19	n/a	n/a	n/a	9	20	7	7	6
1384.65	n/a	PROB	692325	n/a	LTP280	ltpFR2	19	n/a	n/a	n/a	9	10	2	1	7
1386.334	n/a	PROB	693167	n/a	LTP280	ltpFR2	19	n/a	n/a	n/a	9	17	7	2	8
1388.302	n/a	PROB	694151	n/a	LTP280	ltpFR2	19	n/a	n/a	n/a	9	16	3	7	6
1390.104	n/a	PROB	695052	n/a	LTP280	ltpFR2	19	n/a	n/a	n/a	9	24	8	8	8
1391.156	n/a	PROB	695578	n/a	LTP280	ltpFR2	19	n/a	n/a	n/a	9	12	9	2	1
1392.076	n/a	PROB	696038	n/a	LTP280	ltpFR2	19	n/a	n/a	n/a	9	22	6	9	7
1393.458	n/a	PROB	696729	n/a	LTP280	ltpFR2	19	n/a	n/a	n/a	9	17	8	7	2
1394.608	n/a	PROB	697304	n/a	LTP280	ltpFR2	19	n/a	n/a	n/a	9	13	6	4	3
1395.624	n/a	STOP	697812	n/a	LTP280	ltpFR2	19	n/a	n/a	n/a	9	n/a	n/a	n/a	n/a
1398.046	n/a	WORD	699023	wordpools/wasnorm_wordpool_576.txt	LTP280	ltpFR2	19	7	RABBIT	1152	n/a	n/a	0	0	0
1400.772	n/a	WORD	700386	wordpools/wasnorm_wordpool_576.txt	LTP280	ltpFR2	19	7	CABIN	211	n/a	n/a	0	0	0
1403.406	n/a	WORD	701703	wordpools/wasnorm_wordpool_576.txt	LTP280	ltpFR2	19	7	MARSH	874	n/a	n/a	0	0	0
1405.86	n/a	WORD	702930	wordpools/wasnorm_wordpool_576.txt	LTP280	ltpFR2	19	7	CABBAGE	210	n/a	n/a	0	0	0
1408.42	n/a	WORD	704210	wordpools/wasnorm_wordpool_576.txt	LTP280	ltpFR2	19	7	CROWN	415	n/a	n/a	0	0	0
1411.048	n/a	WORD	705524	wordpools/wasnorm_wordpool_576.txt	LTP280	ltpFR2	19	7	DAISY	435	n/a	n/a	0	0	0
1413.748	n/a	WORD	706874	wordpools/wasnorm_wordpool_576.txt	LTP280	ltpFR2	19	7	BOUQUET	157	n/a	n/a	0	0	0
1416.408	n/a	WORD	708204	wordpools/wasnorm_wordpool_576.txt	LTP280	ltpFR2	19	7	TRIBE	1505	n/a	n/a	0	0	0
1419.088	n/a	WORD	709544	wordpools/wasnorm_wordpool_576.txt	LTP280	ltpFR2	19	7	LASER	801	n/a	n/a	0	0	0
1421.58	n/a	WORD	710790	wordpools/wasnorm_wordpool_576.txt	LTP280	ltpFR2	19	7	FLASHLIGHT	575	n/a	n/a	0	0	0
1424.366	n/a	WORD	712183	wordpools/wasnorm_wordpool_576.txt	LTP280	ltpFR2	19	7	BRICK	172	n/a	n/a	0	0	0
1427.152	n/a	WORD	713576	wordpools/wasnorm_wordpool_576.txt	LTP280	ltpFR2	19	7	DORM	488	n/a	n/a	0	0	0
1429.746	n/a	WORD	714873	wordpools/wasnorm_wordpool_576.txt	LTP280	ltpFR2	19	7	PEBBLE	1035	n/a	n/a	0	0	0
1432.2	n/a	WORD	716100	wordpools/wasnorm_wordpool_576.txt	LTP280	ltpFR2	19	7	SCULPTURE	1258	n/a	n/a	0	0	0
1434.774	n/a	WORD	717387	wordpools/wasnorm_wordpool_576.txt	LTP280	ltpFR2	19	7	ITEM	746	n/a	n/a	0	0	0
1437.286	n/a	WORD	718643	wordpools/wasnorm_wordpool_576.txt	LTP280	ltpFR2	19	7	MONSTER	912	n/a	n/a	0	0	0
1439.906	n/a	WORD	719953	wordpools/wasnorm_wordpool_576.txt	LTP280	ltpFR2	19	7	BOARD	143	n/a	n/a	0	0	0
1442.374	n/a	WORD	721187	wordpools/wasnorm_wordpool_576.txt	LTP280	ltpFR2	19	7	SHELF	1280	n/a	n/a	0	0	0
1445.0	n/a	WORD	722500	wordpools/wasnorm_wordpool_576.txt	LTP280	ltpFR2	19	7	THRONE	1461	n/a	n/a	0	0	0
1447.644	n/a	WORD	723822	wordpools/wasnorm_wordpool_576.txt	LTP280	ltpFR2	19	7	FOOT	590	n/a	n/a	0	0	0
1450.23	n/a	WORD	725115	wordpools/wasnorm_wordpool_576.txt	LTP280	ltpFR2	19	7	COMPASS	358	n/a	n/a	0	0	0
1452.666	n/a	WORD	726333	wordpools/wasnorm_wordpool_576.txt	LTP280	ltpFR2	19	7	RIVER	1194	n/a	n/a	0	0	0
1455.434	n/a	WORD	727717	wordpools/wasnorm_wordpool_576.txt	LTP280	ltpFR2	19	7	LIGHTNING	820	n/a	n/a	0	0	0
1457.926	n/a	WORD	728963	wordpools/wasnorm_wordpool_576.txt	LTP280	ltpFR2	19	7	SUMMIT	1405	n/a	n/a	0	0	0
1459.54	n/a	START	729770	n/a	LTP280	ltpFR2	19	n/a	n/a	n/a	10	n/a	n/a	n/a	n/a
1460.67	n/a	DISTRACTOR	730335	n/a	LTP280	ltpFR2	19	7	n/a	n/a	n/a	n/a	0	0	0
1460.676	n/a	PROB	730338	n/a	LTP280	ltpFR2	19	n/a	n/a	n/a	10	24	8	7	9
1461.946	n/a	PROB	730973	n/a	LTP280	ltpFR2	19	n/a	n/a	n/a	10	14	9	3	2
1464.18	n/a	PROB	732090	n/a	LTP280	ltpFR2	19	n/a	n/a	n/a	10	20	8	6	6
1465.614	n/a	PROB	732807	n/a	LTP280	ltpFR2	19	n/a	n/a	n/a	10	25	9	9	7
1466.932	n/a	PROB	733466	n/a	LTP280	ltpFR2	19	n/a	n/a	n/a	10	11	1	5	5
1467.95	n/a	PROB	733975	n/a	LTP280	ltpFR2	19	n/a	n/a	n/a	10	10	4	2	4
1468.968	n/a	PROB	734484	n/a	LTP280	ltpFR2	19	n/a	n/a	n/a	10	18	4	5	9
1470.368	n/a	PROB	735184	n/a	LTP280	ltpFR2	19	n/a	n/a	n/a	10	23	8	8	7
1473.134	n/a	PROB	736567	n/a	LTP280	ltpFR2	19	n/a	n/a	n/a	10	18	9	7	2
1474.338	n/a	PROB	737169	n/a	LTP280	ltpFR2	19	n/a	n/a	n/a	10	10	7	2	1
1475.174	n/a	PROB	737587	n/a	LTP280	ltpFR2	19	n/a	n/a	n/a	10	22	9	5	8
1477.47	n/a	PROB	738735	n/a	LTP280	ltpFR2	19	n/a	n/a	n/a	10	13	3	8	2
1478.908	n/a	PROB	739454	n/a	LTP280	ltpFR2	19	n/a	n/a	n/a	10	18	7	7	4
1480.022	n/a	PROB	740011	n/a	LTP280	ltpFR2	19	n/a	n/a	n/a	10	18	4	6	8
1481.108	n/a	PROB	740554	n/a	LTP280	ltpFR2	19	n/a	n/a	n/a	10	16	8	4	4
1482.53	n/a	STOP	741265	n/a	LTP280	ltpFR2	19	n/a	n/a	n/a	10	n/a	n/a	n/a	n/a
1485.412	n/a	REC_START	742706	n/a	LTP280	ltpFR2	19	7	n/a	n/a	n/a	n/a	0	0	0
1485.94	n/a	REC_WORD	742970	wordpools/wasnorm_wordpool_576.txt	LTP280	ltpFR2	19	7	LIGHTNING	820	n/a	n/a	0	0	0
1486.842	n/a	REC_WORD	743421	wordpools/wasnorm_wordpool_576.txt	LTP280	ltpFR2	19	7	SUMMIT	1405	n/a	n/a	0	0	0
1487.842	n/a	REC_WORD_VV	743921	wordpools/wasnorm_wordpool_576.txt	LTP280	ltpFR2	19	7	<>	-1	n/a	n/a	0	0	0
1489.31	n/a	REC_WORD	744655	wordpools/wasnorm_wordpool_576.txt	LTP280	ltpFR2	19	7	DAISY	435	n/a	n/a	0	0	0
1490.368	n/a	REC_WORD	745184	wordpools/wasnorm_wordpool_576.txt	LTP280	ltpFR2	19	7	BOUQUET	157	n/a	n/a	0	0	0
1493.382	n/a	REC_WORD	746691	wordpools/wasnorm_wordpool_576.txt	LTP280	ltpFR2	19	7	SCULPTURE	1258	n/a	n/a	0	0	0
1494.32	n/a	REC_WORD	747160	wordpools/wasnorm_wordpool_576.txt	LTP280	ltpFR2	19	7	SHELF	1280	n/a	n/a	0	0	0
1495.208	n/a	REC_WORD	747604	wordpools/wasnorm_wordpool_576.txt	LTP280	ltpFR2	19	7	DORM	488	n/a	n/a	0	0	0
1575.838	n/a	DISTRACTOR	787919	n/a	LTP280	ltpFR2	19	8	n/a	n/a	n/a	n/a	0	0	0
1575.838	n/a	START	787919	n/a	LTP280	ltpFR2	19	n/a	n/a	n/a	11	n/a	n/a	n/a	n/a
1575.854	n/a	PROB	787927	n/a	LTP280	ltpFR2	19	n/a	n/a	n/a	11	7	3	3	1
1576.702	n/a	PROB	788351	n/a	LTP280	ltpFR2	19	n/a	n/a	n/a	11	12	3	2	7
1577.834	n/a	PROB	788917	n/a	LTP280	ltpFR2	19	n/a	n/a	n/a	11	17	6	4	7
1578.802	n/a	PROB	789401	n/a	LTP280	ltpFR2	19	n/a	n/a	n/a	11	18	3	7	8
1579.888	n/a	PROB	789944	n/a	LTP280	ltpFR2	19	n/a	n/a	n/a	11	15	8	5	2
1581.154	n/a	PROB	790577	n/a	LTP280	ltpFR2	19	n/a	n/a	n/a	11	7	3	3	1
1581.972	n/a	PROB	790986	n/a	LTP280	ltpFR2	19	n/a	n/a	n/a	11	14	1	8	5
1583.238	n/a	PROB	791619	n/a	LTP280	ltpFR2	19	n/a	n/a	n/a	11	5	1	2	2
1584.058	n/a	PROB	792029	n/a	LTP280	ltpFR2	19	n/a	n/a	n/a	11	21	7	9	5
1585.256	n/a	PROB	792628	n/a	LTP280	ltpFR2	19	n/a	n/a	n/a	11	16	7	6	3
1586.992	n/a	PROB	793496	n/a	LTP280	ltpFR2	19	n/a	n/a	n/a	11	15	5	6	4
1588.176	n/a	PROB	794088	n/a	LTP280	ltpFR2	19	n/a	n/a	n/a	11	19	6	7	6
1589.878	n/a	PROB	794939	n/a	LTP280	ltpFR2	19	n/a	n/a	n/a	11	11	1	4	6
1590.844	n/a	PROB	795422	n/a	LTP280	ltpFR2	19	n/a	n/a	n/a	11	8	2	1	5
1591.912	n/a	PROB	795956	n/a	LTP280	ltpFR2	19	n/a	n/a	n/a	11	9	2	7	1
1593.014	n/a	PROB	796507	n/a	LTP280	ltpFR2	19	n/a	n/a	n/a	11	14	1	8	5
1594.462	n/a	PROB	797231	n/a	LTP280	ltpFR2	19	n/a	n/a	n/a	11	18	8	3	7
1595.948	n/a	PROB	797974	n/a	LTP280	ltpFR2	19	n/a	n/a	n/a	11	14	5	5	4
1596.95	n/a	PROB	798475	n/a	LTP280	ltpFR2	19	n/a	n/a	n/a	11	12	1	8	3
1597.936	n/a	PROB	798968	n/a	LTP280	ltpFR2	19	n/a	n/a	n/a	11	12	8	4	1
1598.948	n/a	STOP	799474	n/a	LTP280	ltpFR2	19	n/a	n/a	n/a	11	n/a	n/a	n/a	n/a
1600.976	n/a	WORD	800488	wordpools/wasnorm_wordpool_576.txt	LTP280	ltpFR2	19	8	SPOON	1357	n/a	n/a	0	0	0
1603.554	n/a	WORD	801777	wordpools/wasnorm_wordpool_576.txt	LTP280	ltpFR2	19	8	LIZARD	834	n/a	n/a	0	0	0
1606.142	n/a	WORD	803071	wordpools/wasnorm_wordpool_576.txt	LTP280	ltpFR2	19	8	BEAST	108	n/a	n/a	0	0	0
1608.592	n/a	WORD	804296	wordpools/wasnorm_wordpool_576.txt	LTP280	ltpFR2	19	8	CATTLE	261	n/a	n/a	0	0	0
1611.368	n/a	WORD	805684	wordpools/wasnorm_wordpool_576.txt	LTP280	ltpFR2	19	8	QUAIL	1147	n/a	n/a	0	0	0
1613.92	n/a	WORD	806960	wordpools/wasnorm_wordpool_576.txt	LTP280	ltpFR2	19	8	SPOOL	1356	n/a	n/a	0	0	0
1616.622	n/a	WORD	808311	wordpools/wasnorm_wordpool_576.txt	LTP280	ltpFR2	19	8	JUDGE	761	n/a	n/a	0	0	0
1619.086	n/a	WORD	809543	wordpools/wasnorm_wordpool_576.txt	LTP280	ltpFR2	19	8	BLACKBOARD	133	n/a	n/a	0	0	0
1621.87	n/a	WORD	810935	wordpools/wasnorm_wordpool_576.txt	LTP280	ltpFR2	19	8	COURSE	390	n/a	n/a	0	0	0
1624.512	n/a	WORD	812256	wordpools/wasnorm_wordpool_576.txt	LTP280	ltpFR2	19	8	SIDEWALK	1303	n/a	n/a	0	0	0
1627.164	n/a	WORD	813582	wordpools/wasnorm_wordpool_576.txt	LTP280	ltpFR2	19	8	BUNNY	198	n/a	n/a	0	0	0
1629.776	n/a	WORD	814888	wordpools/wasnorm_wordpool_576.txt	LTP280	ltpFR2	19	8	CARROT	249	n/a	n/a	0	0	0
1632.452	n/a	WORD	816226	wordpools/wasnorm_wordpool_576.txt	LTP280	ltpFR2	19	8	SERVANT	1271	n/a	n/a	0	0	0
1634.898	n/a	WORD	817449	wordpools/wasnorm_wordpool_576.txt	LTP280	ltpFR2	19	8	BANQUET	86	n/a	n/a	0	0	0
1637.588	n/a	WORD	818794	wordpools/wasnorm_wordpool_576.txt	LTP280	ltpFR2	19	8	TUBA	1515	n/a	n/a	0	0	0
1640.008	n/a	WORD	820004	wordpools/wasnorm_wordpool_576.txt	LTP280	ltpFR2	19	8	CRIB	407	n/a	n/a	0	0	0
1642.568	n/a	WORD	821284	wordpools/wasnorm_wordpool_576.txt	LTP280	ltpFR2	19	8	PEACH	1031	n/a	n/a	0	0	0
1645.162	n/a	WORD	822581	wordpools/wasnorm_wordpool_576.txt	LTP280	ltpFR2	19	8	SHRUB	1299	n/a	n/a	0	0	0
1647.824	n/a	WORD	823912	wordpools/wasnorm_wordpool_576.txt	LTP280	ltpFR2	19	8	SHOULDER	1294	n/a	n/a	0	0	0
1650.3	n/a	WORD	825150	wordpools/wasnorm_wordpool_576.txt	LTP280	ltpFR2	19	8	ANKLE	24	n/a	n/a	0	0	0
1653.036	n/a	WORD	826518	wordpools/wasnorm_wordpool_576.txt	LTP280	ltpFR2	19	8	CEILING	265	n/a	n/a	0	0	0
1655.772	n/a	WORD	827886	wordpools/wasnorm_wordpool_576.txt	LTP280	ltpFR2	19	8	COUSIN	392	n/a	n/a	0	0	0
1658.256	n/a	WORD	829128	wordpools/wasnorm_wordpool_576.txt	LTP280	ltpFR2	19	8	SEAGULL	1261	n/a	n/a	0	0	0
1660.994	n/a	WORD	830497	wordpools/wasnorm_wordpool_576.txt	LTP280	ltpFR2	19	8	LION	827	n/a	n/a	0	0	0
1662.602	n/a	START	831301	n/a	LTP280	ltpFR2	19	n/a	n/a	n/a	12	n/a	n/a	n/a	n/a
1663.772	n/a	DISTRACTOR	831886	n/a	LTP280	ltpFR2	19	8	n/a	n/a	n/a	n/a	0	0	0
1663.778	n/a	PROB	831889	n/a	LTP280	ltpFR2	19	n/a	n/a	n/a	12	19	9	3	7
1665.268	n/a	PROB	832634	n/a	LTP280	ltpFR2	19	n/a	n/a	n/a	12	18	8	2	8
1666.304	n/a	PROB	833152	n/a	LTP280	ltpFR2	19	n/a	n/a	n/a	12	12	5	4	3
1667.37	n/a	PROB	833685	n/a	LTP280	ltpFR2	19	n/a	n/a	n/a	12	13	1	8	4
1668.522	n/a	PROB	834261	n/a	LTP280	ltpFR2	19	n/a	n/a	n/a	12	14	2	8	5
1669.774	n/a	PROB	834887	n/a	LTP280	ltpFR2	19	n/a	n/a	n/a	12	9	5	2	2
1670.924	n/a	PROB	835462	n/a	LTP280	ltpFR2	19	n/a	n/a	n/a	12	18	9	4	5
1672.008	n/a	PROB	836004	n/a	LTP280	ltpFR2	19	n/a	n/a	n/a	12	19	7	9	3
1673.56	n/a	PROB	836780	n/a	LTP280	ltpFR2	19	n/a	n/a	n/a	12	19	7	6	6
1675.326	n/a	PROB	837663	n/a	LTP280	ltpFR2	19	n/a	n/a	n/a	12	16	6	7	3
1676.728	n/a	PROB	838364	n/a	LTP280	ltpFR2	19	n/a	n/a	n/a	12	20	9	4	8
1678.064	n/a	PROB	839032	n/a	LTP280	ltpFR2	19	n/a	n/a	n/a	12	18	3	7	8
1679.58	n/a	PROB	839790	n/a	LTP280	ltpFR2	19	n/a	n/a	n/a	12	16	6	5	5
1681.482	n/a	PROB	840741	n/a	LTP280	ltpFR2	19	n/a	n/a	n/a	12	17	9	4	4
1682.7	n/a	PROB	841350	n/a	LTP280	ltpFR2	19	n/a	n/a	n/a	12	10	1	6	3
1683.632	n/a	PROB	841816	n/a	LTP280	ltpFR2	19	n/a	n/a	n/a	12	17	3	6	8
1685.062	n/a	STOP	842531	n/a	LTP280	ltpFR2	19	n/a	n/a	n/a	12	n/a	n/a	n/a	n/a
1688.454	n/a	REC_START	844227	n/a	LTP280	ltpFR2	19	8	n/a	n/a	n/a	n/a	0	0	0
1688.922	n/a	REC_WORD	844461	wordpools/wasnorm_wordpool_576.txt	LTP280	ltpFR2	19	8	BUNNY	198	n/a	n/a	0	0	0
1689.582	n/a	REC_WORD	844791	wordpools/wasnorm_wordpool_576.txt	LTP280	ltpFR2	19	8	CRIB	407	n/a	n/a	0	0	0
1690.638	n/a	REC_WORD	845319	wordpools/wasnorm_wordpool_576.txt	LTP280	ltpFR2	19	8	PEACH	1031	n/a	n/a	0	0	0
1692.882	n/a	REC_WORD	846441	wordpools/wasnorm_wordpool_576.txt	LTP280	ltpFR2	19	8	SHOULDER	1294	n/a	n/a	0	0	0
1764.998	n/a	REST_REWET	882499	n/a	LTP280	ltpFR2	19	8	n/a	n/a	n/a	n/a	0	0	0
1980.884	n/a	WORD	990442	wordpools/wasnorm_wordpool_576.txt	LTP280	ltpFR2	19	9	LEADER	807	n/a	n/a	0	0	0
1983.566	n/a	WORD	991783	wordpools/wasnorm_wordpool_576.txt	LTP280	ltpFR2	19	9	NURSE	963	n/a	n/a	0	0	0
1985.986	n/a	WORD	992993	wordpools/wasnorm_wordpool_576.txt	LTP280	ltpFR2	19	9	DENIM	446	n/a	n/a	0	0	0
1988.54	n/a	WORD	994270	wordpools/wasnorm_wordpool_576.txt	LTP280	ltpFR2	19	9	TRUCK	1512	n/a	n/a	0	0	0
1991.006	n/a	WORD	995503	wordpools/wasnorm_wordpool_576.txt	LTP280	ltpFR2	19	9	HEART	697	n/a	n/a	0	0	0
1993.826	n/a	WORD	996913	wordpools/wasnorm_wordpool_576.txt	LTP280	ltpFR2	19	9	INFANT	737	n/a	n/a	0	0	0
1996.644	n/a	WORD	998322	wordpools/wasnorm_wordpool_576.txt	LTP280	ltpFR2	19	9	CITRUS	313	n/a	n/a	0	0	0
1999.414	n/a	WORD	999707	wordpools/wasnorm_wordpool_576.txt	LTP280	ltpFR2	19	9	LIVER	833	n/a	n/a	0	0	0
2001.966	n/a	WORD	1000983	wordpools/wasnorm_wordpool_576.txt	LTP280	ltpFR2	19	9	CASKET	255	n/a	n/a	0	0	0
2004.718	n/a	WORD	1002359	wordpools/wasnorm_wordpool_576.txt	LTP280	ltpFR2	19	9	MOTOR	922	n/a	n/a	0	0	0
2007.52	n/a	WORD	1003760	wordpools/wasnorm_wordpool_576.txt	LTP280	ltpFR2	19	9	SIBLING	1301	n/a	n/a	0	0	0
2010.006	n/a	WORD	1005003	wordpools/wasnorm_wordpool_576.txt	LTP280	ltpFR2	19	9	PEANUT	1032	n/a	n/a	0	0	0
2012.642	n/a	WORD	1006321	wordpools/wasnorm_wordpool_576.txt	LTP280	ltpFR2	19	9	BANJO	82	n/a	n/a	0	0	0
2015.128	n/a	WORD	1007564	wordpools/wasnorm_wordpool_576.txt	LTP280	ltpFR2	19	9	CONCERT	360	n/a	n/a	0	0	0
2017.812	n/a	WORD	1008906	wordpools/wasnorm_wordpool_576.txt	LTP280	ltpFR2	19	9	GRIZZLY	662	n/a	n/a	0	0	0
2020.546	n/a	WORD	1010273	wordpools/wasnorm_wordpool_576.txt	LTP280	ltpFR2	19	9	LEOPARD	812	n/a	n/a	0	0	0
2023.184	n/a	WORD	1011592	wordpools/wasnorm_wordpool_576.txt	LTP280	ltpFR2	19	9	NOTEBOOK	959	n/a	n/a	0	0	0
2025.97	n/a	WORD	1012985	wordpools/wasnorm_wordpool_576.txt	LTP280	ltpFR2	19	9	FLOWER	584	n/a	n/a	0	0	0
2028.522	n/a	WORD	1014261	wordpools/wasnorm_wordpool_576.txt	LTP280	ltpFR2	19	9	CLOCK	325	n/a	n/a	0	0	0
2031.222	n/a	WORD	1015611	wordpools/wasnorm_wordpool_576.txt	LTP280	ltpFR2	19	9	POPCORN	1104	n/a	n/a	0	0	0
2033.858	n/a	WORD	1016929	wordpools/wasnorm_wordpool_576.txt	LTP280	ltpFR2	19	9	COSTUME	383	n/a	n/a	0	0	0
2036.342	n/a	WORD	1018171	wordpools/wasnorm_wordpool_576.txt	LTP280	ltpFR2	19	9	BRANCH	168	n/a	n/a	0	0	0
2038.796	n/a	WORD	1019398	wordpools/wasnorm_wordpool_576.txt	LTP280	ltpFR2	19	9	LUMBER	848	n/a	n/a	0	0	0
2041.48	n/a	WORD	1020740	wordpools/wasnorm_wordpool_576.txt	LTP280	ltpFR2	19	9	MUFFIN	929	n/a	n/a	0	0	0
2043.086	n/a	START	1021543	n/a	LTP280	ltpFR2	19	n/a	n/a	n/a	13	n/a	n/a	n/a	n/a
2044.204	n/a	DISTRACTOR	1022102	n/a	LTP280	ltpFR2	19	9	n/a	n/a	n/a	n/a	0	0	0
2044.216	n/a	PROB	1022108	n/a	LTP280	ltpFR2	19	n/a	n/a	n/a	13	19	8	3	8
2045.55	n/a	PROB	1022775	n/a	LTP280	ltpFR2	19	n/a	n/a	n/a	13	13	4	4	5
2047.018	n/a	PROB	1023509	n/a	LTP280	ltpFR2	19	n/a	n/a	n/a	13	13	1	4	8
2048.152	n/a	PROB	1024076	n/a	LTP280	ltpFR2	19	n/a	n/a	n/a	13	12	6	3	4
2050.922	n/a	PROB	1025461	n/a	LTP280	ltpFR2	19	n/a	n/a	n/a	13	15	5	1	9
2052.174	n/a	PROB	1026087	n/a	LTP280	ltpFR2	19	n/a	n/a	n/a	13	17	3	7	7
2053.338	n/a	PROB	1026669	n/a	LTP280	ltpFR2	19	n/a	n/a	n/a	13	13	3	4	6
2054.858	n/a	PROB	1027429	n/a	LTP280	ltpFR2	19	n/a	n/a	n/a	13	22	6	8	8
2056.326	n/a	PROB	1028163	n/a	LTP280	ltpFR2	19	n/a	n/a	n/a	13	16	7	1	8
2058.092	n/a	PROB	1029046	n/a	LTP280	ltpFR2	19	n/a	n/a	n/a	13	13	5	4	4
2059.294	n/a	PROB	1029647	n/a	LTP280	ltpFR2	19	n/a	n/a	n/a	13	20	4	8	8
2060.746	n/a	PROB	1030373	n/a	LTP280	ltpFR2	19	n/a	n/a	n/a	13	25	9	8	8
2062.13	n/a	PROB	1031065	n/a	LTP280	ltpFR2	19	n/a	n/a	n/a	13	9	2	6	1
2063.296	n/a	PROB	1031648	n/a	LTP280	ltpFR2	19	n/a	n/a	n/a	13	18	7	6	5
2064.934	n/a	PROB	1032467	n/a	LTP280	ltpFR2	19	n/a	n/a	n/a	13	6	4	1	1
2066.556	n/a	STOP	1033278	n/a	LTP280	ltpFR2	19	n/a	n/a	n/a	13	n/a	n/a	n/a	n/a
2068.87	n/a	REC_START	1034435	n/a	LTP280	ltpFR2	19	9	n/a	n/a	n/a	n/a	0	0	0
2069.292	n/a	REC_WORD	1034646	wordpools/wasnorm_wordpool_576.txt	LTP280	ltpFR2	19	9	LUMBER	848	n/a	n/a	0	0	0
2069.952	n/a	REC_WORD	1034976	wordpools/wasnorm_wordpool_576.txt	LTP280	ltpFR2	19	9	MUFFIN	929	n/a	n/a	0	0	0
2070.872	n/a	REC_WORD	1035436	wordpools/wasnorm_wordpool_576.txt	LTP280	ltpFR2	19	9	GRIZZLY	662	n/a	n/a	0	0	0
2071.548	n/a	REC_WORD	1035774	wordpools/wasnorm_wordpool_576.txt	LTP280	ltpFR2	19	9	LEOPARD	812	n/a	n/a	0	0	0
2073.37	n/a	REC_WORD	1036685	wordpools/wasnorm_wordpool_576.txt	LTP280	ltpFR2	19	9	PEANUT	1032	n/a	n/a	0	0	0
2074.296	n/a	REC_WORD	1037148	wordpools/wasnorm_wordpool_576.txt	LTP280	ltpFR2	19	9	FLOWER	584	n/a	n/a	0	0	0
2159.316	n/a	WORD	1079658	wordpools/wasnorm_wordpool_576.txt	LTP280	ltpFR2	19	10	CHIPMUNK	304	n/a	n/a	0	0	0
2162.036	n/a	WORD	1081018	wordpools/wasnorm_wordpool_576.txt	LTP280	ltpFR2	19	10	SUNRISE	1407	n/a	n/a	0	0	0
2164.704	n/a	WORD	1082352	wordpools/wasnorm_wordpool_576.txt	LTP280	ltpFR2	19	10	MUSTARD	935	n/a	n/a	0	0	0
2167.312	n/a	WORD	1083656	wordpools/wasnorm_wordpool_576.txt	LTP280	ltpFR2	19	10	OX	994	n/a	n/a	0	0	0
2169.762	n/a	WORD	1084881	wordpools/wasnorm_wordpool_576.txt	LTP280	ltpFR2	19	10	YACHT	1629	n/a	n/a	0	0	0
2172.448	n/a	WORD	1086224	wordpools/wasnorm_wordpool_576.txt	LTP280	ltpFR2	19	10	MATCH	878	n/a	n/a	0	0	0
2174.886	n/a	WORD	1087443	wordpools/wasnorm_wordpool_576.txt	LTP280	ltpFR2	19	10	LUGGAGE	847	n/a	n/a	0	0	0
2177.42	n/a	WORD	1088710	wordpools/wasnorm_wordpool_576.txt	LTP280	ltpFR2	19	10	UMPIRE	1535	n/a	n/a	0	0	0
2179.922	n/a	WORD	1089961	wordpools/wasnorm_wordpool_576.txt	LTP280	ltpFR2	19	10	STATUE	1374	n/a	n/a	0	0	0
2182.406	n/a	WORD	1091203	wordpools/wasnorm_wordpool_576.txt	LTP280	ltpFR2	19	10	DOUGHNUT	490	n/a	n/a	0	0	0
2184.938	n/a	WORD	1092469	wordpools/wasnorm_wordpool_576.txt	LTP280	ltpFR2	19	10	CREVICE	405	n/a	n/a	0	0	0
2187.728	n/a	WORD	1093864	wordpools/wasnorm_wordpool_576.txt	LTP280	ltpFR2	19	10	PILOT	1070	n/a	n/a	0	0	0
2190.414	n/a	WORD	1095207	wordpools/wasnorm_wordpool_576.txt	LTP280	ltpFR2	19	10	TRENCH	1503	n/a	n/a	0	0	0
2193.216	n/a	WORD	1096608	wordpools/wasnorm_wordpool_576.txt	LTP280	ltpFR2	19	10	LACE	792	n/a	n/a	0	0	0
2195.764	n/a	WORD	1097882	wordpools/wasnorm_wordpool_576.txt	LTP280	ltpFR2	19	10	DRESS	495	n/a	n/a	0	0	0
2198.3	n/a	WORD	1099150	wordpools/wasnorm_wordpool_576.txt	LTP280	ltpFR2	19	10	OUTDOORS	987	n/a	n/a	0	0	0
2201.086	n/a	WORD	1100543	wordpools/wasnorm_wordpool_576.txt	LTP280	ltpFR2	19	10	DANDRUFF	439	n/a	n/a	0	0	0
2203.788	n/a	WORD	1101894	wordpools/wasnorm_wordpool_576.txt	LTP280	ltpFR2	19	10	BODY	145	n/a	n/a	0	0	0
2206.506	n/a	WORD	1103253	wordpools/wasnorm_wordpool_576.txt	LTP280	ltpFR2	19	10	PEPPER	1047	n/a	n/a	0	0	0
2209.324	n/a	WORD	1104662	wordpools/wasnorm_wordpool_576.txt	LTP280	ltpFR2	19	10	AIRPORT	13	n/a	n/a	0	0	0
2211.794	n/a	WORD	1105897	wordpools/wasnorm_wordpool_576.txt	LTP280	ltpFR2	19	10	GAZELLE	628	n/a	n/a	0	0	0
2214.48	n/a	WORD	1107240	wordpools/wasnorm_wordpool_576.txt	LTP280	ltpFR2	19	10	BUTCHER	203	n/a	n/a	0	0	0
2216.916	n/a	WORD	1108458	wordpools/wasnorm_wordpool_576.txt	LTP280	ltpFR2	19	10	ROCKET	1202	n/a	n/a	0	0	0
2219.65	n/a	WORD	1109825	wordpools/wasnorm_wordpool_576.txt	LTP280	ltpFR2	19	10	STICKER	1382	n/a	n/a	0	0	0
2221.256	n/a	START	1110628	n/a	LTP280	ltpFR2	19	n/a	n/a	n/a	14	n/a	n/a	n/a	n/a
2222.302	n/a	DISTRACTOR	1111151	n/a	LTP280	ltpFR2	19	10	n/a	n/a	n/a	n/a	0	0	0
2222.318	n/a	PROB	1111159	n/a	LTP280	ltpFR2	19	n/a	n/a	n/a	14	14	3	9	2
2224.69	n/a	PROB	1112345	n/a	LTP280	ltpFR2	19	n/a	n/a	n/a	14	12	4	7	1
2225.704	n/a	PROB	1112852	n/a	LTP280	ltpFR2	19	n/a	n/a	n/a	14	12	1	8	3
2226.672	n/a	PROB	1113336	n/a	LTP280	ltpFR2	19	n/a	n/a	n/a	14	25	7	9	9
2227.976	n/a	PROB	1113988	n/a	LTP280	ltpFR2	19	n/a	n/a	n/a	14	16	2	7	7
2229.144	n/a	PROB	1114572	n/a	LTP280	ltpFR2	19	n/a	n/a	n/a	14	10	5	4	1
2230.044	n/a	PROB	1115022	n/a	LTP280	ltpFR2	19	n/a	n/a	n/a	14	12	4	3	5
2231.546	n/a	PROB	1115773	n/a	LTP280	ltpFR2	19	n/a	n/a	n/a	14	11	4	3	4
2233.346	n/a	PROB	1116673	n/a	LTP280	ltpFR2	19	n/a	n/a	n/a	14	14	2	9	3
2234.946	n/a	PROB	1117473	n/a	LTP280	ltpFR2	19	n/a	n/a	n/a	14	9	2	3	4
2236.498	n/a	PROB	1118249	n/a	LTP280	ltpFR2	19	n/a	n/a	n/a	14	11	2	2	7
2238.086	n/a	PROB	1119043	n/a	LTP280	ltpFR2	19	n/a	n/a	n/a	14	15	1	5	9
2239.168	n/a	PROB	1119584	n/a	LTP280	ltpFR2	19	n/a	n/a	n/a	14	18	5	7	6
2240.45	n/a	PROB	1120225	n/a	LTP280	ltpFR2	19	n/a	n/a	n/a	14	25	8	9	7
2241.786	n/a	PROB	1120893	n/a	LTP280	ltpFR2	19	n/a	n/a	n/a	14	17	7	7	3
2243.19	n/a	PROB	1121595	n/a	LTP280	ltpFR2	19	n/a	n/a	n/a	14	5	2	1	2
2243.992	n/a	STOP	1121996	n/a	LTP280	ltpFR2	19	n/a	n/a	n/a	14	n/a	n/a	n/a	n/a
2247.126	n/a	REC_START	1123563	n/a	LTP280	ltpFR2	19	10	n/a	n/a	n/a	n/a	0	0	0
2247.658	n/a	REC_WORD	1123829	wordpools/wasnorm_wordpool_576.txt	LTP280	ltpFR2	19	10	BODY	145	n/a	n/a	0	0	0
2248.246	n/a	REC_WORD	1124123	wordpools/wasnorm_wordpool_576.txt	LTP280	ltpFR2	19	10	PEPPER	1047	n/a	n/a	0	0	0
2248.936	n/a	REC_WORD	1124468	wordpools/wasnorm_wordpool_576.txt	LTP280	ltpFR2	19	10	AIRPORT	13	n/a	n/a	0	0	0
2249.804	n/a	REC_WORD	1124902	wordpools/wasnorm_wordpool_576.txt	LTP280	ltpFR2	19	10	ROCKET	1202	n/a	n/a	0	0	0
2250.892	n/a	REC_WORD	1125446	wordpools/wasnorm_wordpool_576.txt	LTP280	ltpFR2	19	10	STICKER	1382	n/a	n/a	0	0	0
2256.72	n/a	REC_WORD	1128360	wordpools/wasnorm_wordpool_576.txt	LTP280	ltpFR2	19	10	OX	994	n/a	n/a	0	0	0
2257.32	n/a	REC_WORD	1128660	wordpools/wasnorm_wordpool_576.txt	LTP280	ltpFR2	19	10	MUSTARD	935	n/a	n/a	0	0	0
2337.56	n/a	WORD	1168780	wordpools/wasnorm_wordpool_576.txt	LTP280	ltpFR2	19	11	DAUGHTER	442	n/a	n/a	0	0	0
2340.014	n/a	WORD	1170007	wordpools/wasnorm_wordpool_576.txt	LTP280	ltpFR2	19	11	COLONEL	348	n/a	n/a	0	0	0
2342.772	n/a	WORD	1171386	wordpools/wasnorm_wordpool_576.txt	LTP280	ltpFR2	19	11	PLAID	1080	n/a	n/a	0	0	0
2345.39	n/a	WORD	1172695	wordpools/wasnorm_wordpool_576.txt	LTP280	ltpFR2	19	11	CANYON	235	n/a	n/a	0	0	0
2348.054	n/a	WORD	1174027	wordpools/wasnorm_wordpool_576.txt	LTP280	ltpFR2	19	11	DRIVER	499	n/a	n/a	0	0	0
2350.638	n/a	WORD	1175319	wordpools/wasnorm_wordpool_576.txt	LTP280	ltpFR2	19	11	MISSILE	900	n/a	n/a	0	0	0
2353.374	n/a	WORD	1176687	wordpools/wasnorm_wordpool_576.txt	LTP280	ltpFR2	19	11	SKIRT	1319	n/a	n/a	0	0	0
2355.91	n/a	WORD	1177955	wordpools/wasnorm_wordpool_576.txt	LTP280	ltpFR2	19	11	PARTNER	1017	n/a	n/a	0	0	0
2358.66	n/a	WORD	1179330	wordpools/wasnorm_wordpool_576.txt	LTP280	ltpFR2	19	11	LOVER	846	n/a	n/a	0	0	0
2361.172	n/a	WORD	1180586	wordpools/wasnorm_wordpool_576.txt	LTP280	ltpFR2	19	11	BRACES	164	n/a	n/a	0	0	0
2363.64	n/a	WORD	1181820	wordpools/wasnorm_wordpool_576.txt	LTP280	ltpFR2	19	11	MARROW	872	n/a	n/a	0	0	0
2366.424	n/a	WORD	1183212	wordpools/wasnorm_wordpool_576.txt	LTP280	ltpFR2	19	11	LAPEL	800	n/a	n/a	0	0	0
2369.044	n/a	WORD	1184522	wordpools/wasnorm_wordpool_576.txt	LTP280	ltpFR2	19	11	DRAWING	494	n/a	n/a	0	0	0
2371.63	n/a	WORD	1185815	wordpools/wasnorm_wordpool_576.txt	LTP280	ltpFR2	19	11	HATCHET	691	n/a	n/a	0	0	0
2374.066	n/a	WORD	1187033	wordpools/wasnorm_wordpool_576.txt	LTP280	ltpFR2	19	11	PISTON	1076	n/a	n/a	0	0	0
2376.542	n/a	WORD	1188271	wordpools/wasnorm_wordpool_576.txt	LTP280	ltpFR2	19	11	KIDNEY	776	n/a	n/a	0	0	0
2379.336	n/a	WORD	1189668	wordpools/wasnorm_wordpool_576.txt	LTP280	ltpFR2	19	11	LABEL	790	n/a	n/a	0	0	0
2381.772	n/a	WORD	1190886	wordpools/wasnorm_wordpool_576.txt	LTP280	ltpFR2	19	11	PAPER	1011	n/a	n/a	0	0	0
2384.498	n/a	WORD	1192249	wordpools/wasnorm_wordpool_576.txt	LTP280	ltpFR2	19	11	BUREAU	199	n/a	n/a	0	0	0
2387.128	n/a	WORD	1193564	wordpools/wasnorm_wordpool_576.txt	LTP280	ltpFR2	19	11	ARM	38	n/a	n/a	0	0	0
2389.628	n/a	WORD	1194814	wordpools/wasnorm_wordpool_576.txt	LTP280	ltpFR2	19	11	MISTER	901	n/a	n/a	0	0	0
2392.098	n/a	WORD	1196049	wordpools/wasnorm_wordpool_576.txt	LTP280	ltpFR2	19	11	TRANSPLANT	1496	n/a	n/a	0	0	0
2394.566	n/a	WORD	1197283	wordpools/wasnorm_wordpool_576.txt	LTP280	ltpFR2	19	11	COUCH	386	n/a	n/a	0	0	0
2397.224	n/a	WORD	1198612	wordpools/wasnorm_wordpool_576.txt	LTP280	ltpFR2	19	11	PADDING	999	n/a	n/a	0	0	0
2398.836	n/a	START	1199418	n/a	LTP280	ltpFR2	19	n/a	n/a	n/a	15	n/a	n/a	n/a	n/a
2399.702	n/a	DISTRACTOR	1199851	n/a	LTP280	ltpFR2	19	11	n/a	n/a	n/a	n/a	0	0	0
2399.71	n/a	PROB	1199855	n/a	LTP280	ltpFR2	19	n/a	n/a	n/a	15	14	6	1	7
2400.76	n/a	PROB	1200380	n/a	LTP280	ltpFR2	19	n/a	n/a	n/a	15	25	8	5	9
2403.044	n/a	PROB	1201522	n/a	LTP280	ltpFR2	19	n/a	n/a	n/a	15	9	1	2	6
2404.062	n/a	PROB	1202031	n/a	LTP280	ltpFR2	19	n/a	n/a	n/a	15	10	2	2	6
2405.332	n/a	PROB	1202666	n/a	LTP280	ltpFR2	19	n/a	n/a	n/a	15	19	6	7	6
2406.498	n/a	PROB	1203249	n/a	LTP280	ltpFR2	19	n/a	n/a	n/a	15	20	6	6	8
2408.918	n/a	PROB	1204459	n/a	LTP280	ltpFR2	19	n/a	n/a	n/a	15	10	4	5	1
2409.968	n/a	PROB	1204984	n/a	LTP280	ltpFR2	19	n/a	n/a	n/a	15	15	1	6	8
2410.986	n/a	PROB	1205493	n/a	LTP280	ltpFR2	19	n/a	n/a	n/a	15	17	6	3	8
2412.986	n/a	PROB	1206493	n/a	LTP280	ltpFR2	19	n/a	n/a	n/a	15	17	9	5	3
2414.304	n/a	PROB	1207152	n/a	LTP280	ltpFR2	19	n/a	n/a	n/a	15	17	4	4	9
2415.84	n/a	PROB	1207920	n/a	LTP280	ltpFR2	19	n/a	n/a	n/a	15	13	9	2	2
2417.456	n/a	PROB	1208728	n/a	LTP280	ltpFR2	19	n/a	n/a	n/a	15	19	9	5	5
2418.69	n/a	PROB	1209345	n/a	LTP280	ltpFR2	19	n/a	n/a	n/a	15	16	5	4	7
2419.792	n/a	PROB	1209896	n/a	LTP280	ltpFR2	19	n/a	n/a	n/a	15	19	7	9	3
2421.06	n/a	PROB	1210530	n/a	LTP280	ltpFR2	19	n/a	n/a	n/a	15	11	2	4	5
2422.148	n/a	STOP	1211074	n/a	LTP280	ltpFR2	19	n/a	n/a	n/a	15	n/a	n/a	n/a	n/a
2424.714	n/a	REC_START	1212357	n/a	LTP280	ltpFR2	19	11	n/a	n/a	n/a	n/a	0	0	0
2425.072	n/a	REC_WORD	1212536	wordpools/wasnorm_wordpool_576.txt	LTP280	ltpFR2	19	11	MISTER	901	n/a	n/a	0	0	0
2425.58	n/a	REC_WORD	1212790	wordpools/wasnorm_wordpool_576.txt	LTP280	ltpFR2	19	11	KIDNEY	776	n/a	n/a	0	0	0
2426.226	n/a	REC_WORD	1213113	wordpools/wasnorm_wordpool_576.txt	LTP280	ltpFR2	19	11	TRANSPLANT	1496	n/a	n/a	0	0	0
2427.312	n/a	REC_WORD	1213656	wordpools/wasnorm_wordpool_576.txt	LTP280	ltpFR2	19	11	LABEL	790	n/a	n/a	0	0	0
2430.586	n/a	REC_WORD	1215293	wordpools/wasnorm_wordpool_576.txt	LTP280	ltpFR2	19	11	CANYON	235	n/a	n/a	0	0	0
2431.67	n/a	REC_WORD	1215835	wordpools/wasnorm_wordpool_576.txt	LTP280	ltpFR2	19	11	DRIVER	499	n/a	n/a	0	0	0
2438.684	n/a	REC_WORD	1219342	wordpools/wasnorm_wordpool_576.txt	LTP280	ltpFR2	19	11	PISTON	1076	n/a	n/a	0	0	0
2496.26	n/a	REC_WORD	1248130	wordpools/wasnorm_wordpool_576.txt	LTP280	ltpFR2	19	11	DAUGHTER	442	n/a	n/a	0	0	0
2515.186	n/a	DISTRACTOR	1257593	n/a	LTP280	ltpFR2	19	12	n/a	n/a	n/a	n/a	0	0	0
2515.186	n/a	START	1257593	n/a	LTP280	ltpFR2	19	n/a	n/a	n/a	16	n/a	n/a	n/a	n/a
2515.198	n/a	PROB	1257599	n/a	LTP280	ltpFR2	19	n/a	n/a	n/a	16	21	7	8	6
2516.834	n/a	PROB	1258417	n/a	LTP280	ltpFR2	19	n/a	n/a	n/a	16	12	3	2	7
2517.968	n/a	PROB	1258984	n/a	LTP280	ltpFR2	19	n/a	n/a	n/a	16	20	5	9	6
2519.502	n/a	PROB	1259751	n/a	LTP280	ltpFR2	19	n/a	n/a	n/a	16	17	7	4	6
2521.072	n/a	PROB	1260536	n/a	LTP280	ltpFR2	19	n/a	n/a	n/a	16	17	5	8	4
2523.222	n/a	PROB	1261611	n/a	LTP280	ltpFR2	19	n/a	n/a	n/a	16	19	7	5	7
2526.59	n/a	PROB	1263295	n/a	LTP280	ltpFR2	19	n/a	n/a	n/a	16	22	5	8	9
2529.012	n/a	PROB	1264506	n/a	LTP280	ltpFR2	19	n/a	n/a	n/a	16	17	7	8	2
2530.26	n/a	PROB	1265130	n/a	LTP280	ltpFR2	19	n/a	n/a	n/a	16	12	1	7	4
2531.88	n/a	PROB	1265940	n/a	LTP280	ltpFR2	19	n/a	n/a	n/a	16	15	5	4	6
2533.08	n/a	PROB	1266540	n/a	LTP280	ltpFR2	19	n/a	n/a	n/a	16	14	8	2	4
2534.18	n/a	PROB	1267090	n/a	LTP280	ltpFR2	19	n/a	n/a	n/a	16	11	6	4	1
2534.998	n/a	PROB	1267499	n/a	LTP280	ltpFR2	19	n/a	n/a	n/a	16	12	2	2	8
2536.082	n/a	PROB	1268041	n/a	LTP280	ltpFR2	19	n/a	n/a	n/a	16	13	5	3	5
2537.3	n/a	PROB	1268650	n/a	LTP280	ltpFR2	19	n/a	n/a	n/a	16	15	4	9	2
2538.388	n/a	STOP	1269194	n/a	LTP280	ltpFR2	19	n/a	n/a	n/a	16	n/a	n/a	n/a	n/a
2540.17	n/a	WORD	1270085	wordpools/wasnorm_wordpool_576.txt	LTP280	ltpFR2	19	12	BROTHER	179	n/a	n/a	0	0	0
2542.89	n/a	WORD	1271445	wordpools/wasnorm_wordpool_576.txt	LTP280	ltpFR2	19	12	ROBIN	1199	n/a	n/a	0	0	0
2545.678	n/a	WORD	1272839	wordpools/wasnorm_wordpool_576.txt	LTP280	ltpFR2	19	12	VAGRANT	1544	n/a	n/a	0	0	0
2548.442	n/a	WORD	1274221	wordpools/wasnorm_wordpool_576.txt	LTP280	ltpFR2	19	12	SLOPE	1328	n/a	n/a	0	0	0
2551.244	n/a	WORD	1275622	wordpools/wasnorm_wordpool_576.txt	LTP280	ltpFR2	19	12	ROD	1203	n/a	n/a	0	0	0
2554.048	n/a	WORD	1277024	wordpools/wasnorm_wordpool_576.txt	LTP280	ltpFR2	19	12	CLAM	315	n/a	n/a	0	0	0
2556.536	n/a	WORD	1278268	wordpools/wasnorm_wordpool_576.txt	LTP280	ltpFR2	19	12	CRAB	397	n/a	n/a	0	0	0
2559.102	n/a	WORD	1279551	wordpools/wasnorm_wordpool_576.txt	LTP280	ltpFR2	19	12	CATCHER	258	n/a	n/a	0	0	0
2561.552	n/a	WORD	1280776	wordpools/wasnorm_wordpool_576.txt	LTP280	ltpFR2	19	12	TUTU	1524	n/a	n/a	0	0	0
2564.172	n/a	WORD	1282086	wordpools/wasnorm_wordpool_576.txt	LTP280	ltpFR2	19	12	FEMALE	559	n/a	n/a	0	0	0
2566.612	n/a	WORD	1283306	wordpools/wasnorm_wordpool_576.txt	LTP280	ltpFR2	19	12	MAILBOX	857	n/a	n/a	0	0	0
2569.376	n/a	WORD	1284688	wordpools/wasnorm_wordpool_576.txt	LTP280	ltpFR2	19	12	MAILMAN	858	n/a	n/a	0	0	0
2571.944	n/a	WORD	1285972	wordpools/wasnorm_wordpool_576.txt	LTP280	ltpFR2	19	12	PECAN	1036	n/a	n/a	0	0	0
2574.512	n/a	WORD	1287256	wordpools/wasnorm_wordpool_576.txt	LTP280	ltpFR2	19	12	WAITRESS	1581	n/a	n/a	0	0	0
2577.016	n/a	WORD	1288508	wordpools/wasnorm_wordpool_576.txt	LTP280	ltpFR2	19	12	GIRL	637	n/a	n/a	0	0	0
2579.49	n/a	WORD	1289745	wordpools/wasnorm_wordpool_576.txt	LTP280	ltpFR2	19	12	VELVET	1555	n/a	n/a	0	0	0
2582.042	n/a	WORD	1291021	wordpools/wasnorm_wordpool_576.txt	LTP280	ltpFR2	19	12	SOFTBALL	1343	n/a	n/a	0	0	0
2584.594	n/a	WORD	1292297	wordpools/wasnorm_wordpool_576.txt	LTP280	ltpFR2	19	12	GLASS	639	n/a	n/a	0	0	0
2587.09	n/a	WORD	1293545	wordpools/wasnorm_wordpool_576.txt	LTP280	ltpFR2	19	12	SALT	1229	n/a	n/a	0	0	0
2589.558	n/a	WORD	1294779	wordpools/wasnorm_wordpool_576.txt	LTP280	ltpFR2	19	12	BARREL	91	n/a	n/a	0	0	0
2592.234	n/a	WORD	1296117	wordpools/wasnorm_wordpool_576.txt	LTP280	ltpFR2	19	12	ROOSTER	1209	n/a	n/a	0	0	0
2594.778	n/a	WORD	1297389	wordpools/wasnorm_wordpool_576.txt	LTP280	ltpFR2	19	12	WINDOW	1611	n/a	n/a	0	0	0
2597.454	n/a	WORD	1298727	wordpools/wasnorm_wordpool_576.txt	LTP280	ltpFR2	19	12	ULCER	1533	n/a	n/a	0	0	0
2600.124	n/a	WORD	1300062	wordpools/wasnorm_wordpool_576.txt	LTP280	ltpFR2	19	12	GOBLIN	645	n/a	n/a	0	0	0
2601.742	n/a	START	1300871	n/a	LTP280	ltpFR2	19	n/a	n/a	n/a	17	n/a	n/a	n/a	n/a
2602.552	n/a	DISTRACTOR	1301276	n/a	LTP280	ltpFR2	19	12	n/a	n/a	n/a	n/a	0	0	0
2602.56	n/a	PROB	1301280	n/a	LTP280	ltpFR2	19	n/a	n/a	n/a	17	18	5	6	7
2603.734	n/a	PROB	1301867	n/a	LTP280	ltpFR2	19	n/a	n/a	n/a	17	15	1	8	6
2604.702	n/a	PROB	1302351	n/a	LTP280	ltpFR2	19	n/a	n/a	n/a	17	17	7	7	3
2606.072	n/a	PROB	1303036	n/a	LTP280	ltpFR2	19	n/a	n/a	n/a	17	14	8	2	4
2607.456	n/a	PROB	1303728	n/a	LTP280	ltpFR2	19	n/a	n/a	n/a	17	15	3	4	8
2609.174	n/a	PROB	1304587	n/a	LTP280	ltpFR2	19	n/a	n/a	n/a	17	9	2	7	2
2610.506	n/a	PROB	1305253	n/a	LTP280	ltpFR2	19	n/a	n/a	n/a	17	19	7	5	7
2612.842	n/a	PROB	1306421	n/a	LTP280	ltpFR2	19	n/a	n/a	n/a	17	13	4	8	1
2613.742	n/a	PROB	1306871	n/a	LTP280	ltpFR2	19	n/a	n/a	n/a	17	22	9	4	9
2615.126	n/a	PROB	1307563	n/a	LTP280	ltpFR2	19	n/a	n/a	n/a	17	18	5	5	8
2616.078	n/a	PROB	1308039	n/a	LTP280	ltpFR2	19	n/a	n/a	n/a	17	17	5	9	3
2617.428	n/a	PROB	1308714	n/a	LTP280	ltpFR2	19	n/a	n/a	n/a	17	20	8	6	6
2618.778	n/a	PROB	1309389	n/a	LTP280	ltpFR2	19	n/a	n/a	n/a	17	18	8	4	6
2620.182	n/a	PROB	1310091	n/a	LTP280	ltpFR2	19	n/a	n/a	n/a	17	10	6	2	2
2621.182	n/a	PROB	1310591	n/a	LTP280	ltpFR2	19	n/a	n/a	n/a	17	22	7	4	9
2622.382	n/a	PROB	1311191	n/a	LTP280	ltpFR2	19	n/a	n/a	n/a	17	18	4	8	4
2624.478	n/a	STOP	1312239	n/a	LTP280	ltpFR2	19	n/a	n/a	n/a	17	n/a	n/a	n/a	n/a
2627.538	n/a	REC_START	1313769	n/a	LTP280	ltpFR2	19	12	n/a	n/a	n/a	n/a	0	0	0
2627.672	n/a	REC_WORD	1313836	wordpools/wasnorm_wordpool_576.txt	LTP280	ltpFR2	19	12	VELVET	1555	n/a	n/a	0	0	0
2628.324	n/a	REC_WORD	1314162	wordpools/wasnorm_wordpool_576.txt	LTP280	ltpFR2	19	12	SOFTBALL	1343	n/a	n/a	0	0	0
2629.324	n/a	REC_WORD	1314662	wordpools/wasnorm_wordpool_576.txt	LTP280	ltpFR2	19	12	GLASS	639	n/a	n/a	0	0	0
2629.942	n/a	REC_WORD	1314971	wordpools/wasnorm_wordpool_576.txt	LTP280	ltpFR2	19	12	SALT	1229	n/a	n/a	0	0	0
2632.828	n/a	REC_WORD_VV	1316414	wordpools/wasnorm_wordpool_576.txt	LTP280	ltpFR2	19	12	<>	-1	n/a	n/a	0	0	0
2633.898	n/a	REC_WORD	1316949	wordpools/wasnorm_wordpool_576.txt	LTP280	ltpFR2	19	12	MAILMAN	858	n/a	n/a	0	0	0
2634.522	n/a	REC_WORD	1317261	wordpools/wasnorm_wordpool_576.txt	LTP280	ltpFR2	19	12	FEMALE	559	n/a	n/a	0	0	0
2636.918	n/a	REC_WORD	1318459	wordpools/wasnorm_wordpool_576.txt	LTP280	ltpFR2	19	12	CRAB	397	n/a	n/a	0	0	0
2637.456	n/a	REC_WORD	1318728	wordpools/wasnorm_wordpool_576.txt	LTP280	ltpFR2	19	12	CATCHER	258	n/a	n/a	0	0	0
2717.976	n/a	DISTRACTOR	1358988	n/a	LTP280	ltpFR2	19	13	n/a	n/a	n/a	n/a	0	0	0
2717.976	n/a	START	1358988	n/a	LTP280	ltpFR2	19	n/a	n/a	n/a	18	n/a	n/a	n/a	n/a
2717.99	n/a	PROB	1358995	n/a	LTP280	ltpFR2	19	n/a	n/a	n/a	18	24	8	9	6
2720.242	n/a	PROB	1360121	n/a	LTP280	ltpFR2	19	n/a	n/a	n/a	18	21	5	7	9
2722.544	n/a	PROB	1361272	n/a	LTP280	ltpFR2	19	n/a	n/a	n/a	18	21	8	5	8
2723.912	n/a	PROB	1361956	n/a	LTP280	ltpFR2	19	n/a	n/a	n/a	18	15	5	4	6
2725.014	n/a	PROB	1362507	n/a	LTP280	ltpFR2	19	n/a	n/a	n/a	18	10	1	7	2
2725.898	n/a	PROB	1362949	n/a	LTP280	ltpFR2	19	n/a	n/a	n/a	18	13	5	6	2
2726.982	n/a	PROB	1363491	n/a	LTP280	ltpFR2	19	n/a	n/a	n/a	18	12	2	1	9
2728.016	n/a	PROB	1364008	n/a	LTP280	ltpFR2	19	n/a	n/a	n/a	18	22	9	5	9
2729.616	n/a	PROB	1364808	n/a	LTP280	ltpFR2	19	n/a	n/a	n/a	18	12	2	3	7
2730.886	n/a	PROB	1365443	n/a	LTP280	ltpFR2	19	n/a	n/a	n/a	18	4	1	2	1
2731.802	n/a	PROB	1365901	n/a	LTP280	ltpFR2	19	n/a	n/a	n/a	18	12	5	2	5
2732.954	n/a	PROB	1366477	n/a	LTP280	ltpFR2	19	n/a	n/a	n/a	18	23	7	7	9
2734.456	n/a	PROB	1367228	n/a	LTP280	ltpFR2	19	n/a	n/a	n/a	18	15	6	5	4
2735.656	n/a	PROB	1367828	n/a	LTP280	ltpFR2	19	n/a	n/a	n/a	18	16	7	3	6
2736.738	n/a	PROB	1368369	n/a	LTP280	ltpFR2	19	n/a	n/a	n/a	18	20	4	7	9
2738.474	n/a	PROB	1369237	n/a	LTP280	ltpFR2	19	n/a	n/a	n/a	18	20	8	6	6
2740.158	n/a	PROB	1370079	n/a	LTP280	ltpFR2	19	n/a	n/a	n/a	18	19	9	7	3
2741.432	n/a	STOP	1370716	n/a	LTP280	ltpFR2	19	n/a	n/a	n/a	18	n/a	n/a	n/a	n/a
2743.012	n/a	WORD	1371506	wordpools/wasnorm_wordpool_576.txt	LTP280	ltpFR2	19	13	SWAMP	1416	n/a	n/a	0	0	0
2745.596	n/a	WORD	1372798	wordpools/wasnorm_wordpool_576.txt	LTP280	ltpFR2	19	13	FUNGUS	614	n/a	n/a	0	0	0
2748.098	n/a	WORD	1374049	wordpools/wasnorm_wordpool_576.txt	LTP280	ltpFR2	19	13	SEAL	1262	n/a	n/a	0	0	0
2750.9	n/a	WORD	1375450	wordpools/wasnorm_wordpool_576.txt	LTP280	ltpFR2	19	13	BULLET	194	n/a	n/a	0	0	0
2753.386	n/a	WORD	1376693	wordpools/wasnorm_wordpool_576.txt	LTP280	ltpFR2	19	13	VIKING	1565	n/a	n/a	0	0	0
2756.106	n/a	WORD	1378053	wordpools/wasnorm_wordpool_576.txt	LTP280	ltpFR2	19	13	FIREPLACE	570	n/a	n/a	0	0	0
2758.54	n/a	WORD	1379270	wordpools/wasnorm_wordpool_576.txt	LTP280	ltpFR2	19	13	FOOTBALL	591	n/a	n/a	0	0	0
2761.258	n/a	WORD	1380629	wordpools/wasnorm_wordpool_576.txt	LTP280	ltpFR2	19	13	COIN	343	n/a	n/a	0	0	0
2764.046	n/a	WORD	1382023	wordpools/wasnorm_wordpool_576.txt	LTP280	ltpFR2	19	13	CORAL	378	n/a	n/a	0	0	0
2766.496	n/a	WORD	1383248	wordpools/wasnorm_wordpool_576.txt	LTP280	ltpFR2	19	13	SNACK	1331	n/a	n/a	0	0	0
2769.152	n/a	WORD	1384576	wordpools/wasnorm_wordpool_576.txt	LTP280	ltpFR2	19	13	NOMAD	955	n/a	n/a	0	0	0
2771.618	n/a	WORD	1385809	wordpools/wasnorm_wordpool_576.txt	LTP280	ltpFR2	19	13	CONTRACT	368	n/a	n/a	0	0	0
2774.186	n/a	WORD	1387093	wordpools/wasnorm_wordpool_576.txt	LTP280	ltpFR2	19	13	PICTURE	1061	n/a	n/a	0	0	0
2776.922	n/a	WORD	1388461	wordpools/wasnorm_wordpool_576.txt	LTP280	ltpFR2	19	13	BABY	64	n/a	n/a	0	0	0
2779.56	n/a	WORD	1389780	wordpools/wasnorm_wordpool_576.txt	LTP280	ltpFR2	19	13	RATTLE	1170	n/a	n/a	0	0	0
2782.208	n/a	WORD	1391104	wordpools/wasnorm_wordpool_576.txt	LTP280	ltpFR2	19	13	CAMEL	223	n/a	n/a	0	0	0
2784.978	n/a	WORD	1392489	wordpools/wasnorm_wordpool_576.txt	LTP280	ltpFR2	19	13	CIGAR	308	n/a	n/a	0	0	0
2787.664	n/a	WORD	1393832	wordpools/wasnorm_wordpool_576.txt	LTP280	ltpFR2	19	13	GARLIC	624	n/a	n/a	0	0	0
2790.17	n/a	WORD	1395085	wordpools/wasnorm_wordpool_576.txt	LTP280	ltpFR2	19	13	GYMNAST	675	n/a	n/a	0	0	0
2792.766	n/a	WORD	1396383	wordpools/wasnorm_wordpool_576.txt	LTP280	ltpFR2	19	13	GANGSTER	620	n/a	n/a	0	0	0
2795.552	n/a	WORD	1397776	wordpools/wasnorm_wordpool_576.txt	LTP280	ltpFR2	19	13	RUG	1215	n/a	n/a	0	0	0
2798.226	n/a	WORD	1399113	wordpools/wasnorm_wordpool_576.txt	LTP280	ltpFR2	19	13	ICEBERG	731	n/a	n/a	0	0	0
2801.024	n/a	WORD	1400512	wordpools/wasnorm_wordpool_576.txt	LTP280	ltpFR2	19	13	BANKER	84	n/a	n/a	0	0	0
2803.626	n/a	WORD	1401813	wordpools/wasnorm_wordpool_576.txt	LTP280	ltpFR2	19	13	TILE	1468	n/a	n/a	0	0	0
2805.232	n/a	START	1402616	n/a	LTP280	ltpFR2	19	n/a	n/a	n/a	19	n/a	n/a	n/a	n/a
2806.09	n/a	DISTRACTOR	1403045	n/a	LTP280	ltpFR2	19	13	n/a	n/a	n/a	n/a	0	0	0
2806.1	n/a	PROB	1403050	n/a	LTP280	ltpFR2	19	n/a	n/a	n/a	19	14	6	6	2
2807.194	n/a	PROB	1403597	n/a	LTP280	ltpFR2	19	n/a	n/a	n/a	19	9	3	4	2
2808.462	n/a	PROB	1404231	n/a	LTP280	ltpFR2	19	n/a	n/a	n/a	19	19	8	2	9
2809.68	n/a	PROB	1404840	n/a	LTP280	ltpFR2	19	n/a	n/a	n/a	19	12	6	3	4
2810.948	n/a	PROB	1405474	n/a	LTP280	ltpFR2	19	n/a	n/a	n/a	19	20	7	9	4
2814.05	n/a	PROB	1407025	n/a	LTP280	ltpFR2	19	n/a	n/a	n/a	19	11	1	7	3
2814.918	n/a	PROB	1407459	n/a	LTP280	ltpFR2	19	n/a	n/a	n/a	19	15	4	6	5
2816.034	n/a	PROB	1408017	n/a	LTP280	ltpFR2	19	n/a	n/a	n/a	19	20	4	8	8
2817.35	n/a	PROB	1408675	n/a	LTP280	ltpFR2	19	n/a	n/a	n/a	19	17	2	8	7
2818.586	n/a	PROB	1409293	n/a	LTP280	ltpFR2	19	n/a	n/a	n/a	19	16	7	8	1
2819.636	n/a	PROB	1409818	n/a	LTP280	ltpFR2	19	n/a	n/a	n/a	19	20	9	2	9
2820.754	n/a	PROB	1410377	n/a	LTP280	ltpFR2	19	n/a	n/a	n/a	19	10	1	6	3
2821.722	n/a	PROB	1410861	n/a	LTP280	ltpFR2	19	n/a	n/a	n/a	19	10	2	7	1
2822.672	n/a	PROB	1411336	n/a	LTP280	ltpFR2	19	n/a	n/a	n/a	19	19	9	8	2
2823.824	n/a	PROB	1411912	n/a	LTP280	ltpFR2	19	n/a	n/a	n/a	19	14	6	5	3
2824.892	n/a	PROB	1412446	n/a	LTP280	ltpFR2	19	n/a	n/a	n/a	19	19	9	2	8
2826.642	n/a	PROB	1413321	n/a	LTP280	ltpFR2	19	n/a	n/a	n/a	19	10	8	1	1
2827.592	n/a	PROB	1413796	n/a	LTP280	ltpFR2	19	n/a	n/a	n/a	19	8	2	2	4
2828.498	n/a	STOP	1414249	n/a	LTP280	ltpFR2	19	n/a	n/a	n/a	19	n/a	n/a	n/a	n/a
2831.08	n/a	REC_START	1415540	n/a	LTP280	ltpFR2	19	13	n/a	n/a	n/a	n/a	0	0	0
2831.416	n/a	REC_WORD	1415708	wordpools/wasnorm_wordpool_576.txt	LTP280	ltpFR2	19	13	SWAMP	1416	n/a	n/a	0	0	0
2832.132	n/a	REC_WORD	1416066	wordpools/wasnorm_wordpool_576.txt	LTP280	ltpFR2	19	13	FUNGUS	614	n/a	n/a	0	0	0
2834.038	n/a	REC_WORD_VV	1417019	wordpools/wasnorm_wordpool_576.txt	LTP280	ltpFR2	19	13	<>	-1	n/a	n/a	0	0	0
2835.646	n/a	REC_WORD	1417823	wordpools/wasnorm_wordpool_576.txt	LTP280	ltpFR2	19	13	ICEBERG	731	n/a	n/a	0	0	0
2846.058	n/a	REC_WORD_VV	1423029	wordpools/wasnorm_wordpool_576.txt	LTP280	ltpFR2	19	13	<>	-1	n/a	n/a	0	0	0
2846.372	n/a	REC_WORD	1423186	wordpools/wasnorm_wordpool_576.txt	LTP280	ltpFR2	19	13	NOMAD	955	n/a	n/a	0	0	0
2847.23	n/a	REC_WORD	1423615	wordpools/wasnorm_wordpool_576.txt	LTP280	ltpFR2	19	13	SEAL	1262	n/a	n/a	0	0	0
2853.936	n/a	REC_WORD	1426968	wordpools/wasnorm_wordpool_576.txt	LTP280	ltpFR2	19	13	RUG	1215	n/a	n/a	0	0	0
2921.53	n/a	WORD	1460765	wordpools/wasnorm_wordpool_576.txt	LTP280	ltpFR2	19	14	EUROPE	541	n/a	n/a	0	0	0
2924.25	n/a	WORD	1462125	wordpools/wasnorm_wordpool_576.txt	LTP280	ltpFR2	19	14	DASHBOARD	441	n/a	n/a	0	0	0
2926.852	n/a	WORD	1463426	wordpools/wasnorm_wordpool_576.txt	LTP280	ltpFR2	19	14	CLAMP	316	n/a	n/a	0	0	0
2929.652	n/a	WORD	1464826	wordpools/wasnorm_wordpool_576.txt	LTP280	ltpFR2	19	14	ACTOR	5	n/a	n/a	0	0	0
2932.406	n/a	WORD	1466203	wordpools/wasnorm_wordpool_576.txt	LTP280	ltpFR2	19	14	BEAVER	109	n/a	n/a	0	0	0
2934.844	n/a	WORD	1467422	wordpools/wasnorm_wordpool_576.txt	LTP280	ltpFR2	19	14	FOX	598	n/a	n/a	0	0	0
2937.376	n/a	WORD	1468688	wordpools/wasnorm_wordpool_576.txt	LTP280	ltpFR2	19	14	STOVE	1388	n/a	n/a	0	0	0
2939.832	n/a	WORD	1469916	wordpools/wasnorm_wordpool_576.txt	LTP280	ltpFR2	19	14	WIFE	1609	n/a	n/a	0	0	0
2942.582	n/a	WORD	1471291	wordpools/wasnorm_wordpool_576.txt	LTP280	ltpFR2	19	14	DIVER	476	n/a	n/a	0	0	0
2945.086	n/a	WORD	1472543	wordpools/wasnorm_wordpool_576.txt	LTP280	ltpFR2	19	14	JUNGLE	764	n/a	n/a	0	0	0
2947.636	n/a	WORD	1473818	wordpools/wasnorm_wordpool_576.txt	LTP280	ltpFR2	19	14	ROBBER	1197	n/a	n/a	0	0	0
2950.188	n/a	WORD	1475094	wordpools/wasnorm_wordpool_576.txt	LTP280	ltpFR2	19	14	CHAUFFEUR	283	n/a	n/a	0	0	0
2952.808	n/a	WORD	1476404	wordpools/wasnorm_wordpool_576.txt	LTP280	ltpFR2	19	14	YARN	1631	n/a	n/a	0	0	0
2955.542	n/a	WORD	1477771	wordpools/wasnorm_wordpool_576.txt	LTP280	ltpFR2	19	14	QUARTER	1148	n/a	n/a	0	0	0
2958.228	n/a	WORD	1479114	wordpools/wasnorm_wordpool_576.txt	LTP280	ltpFR2	19	14	TOURIST	1488	n/a	n/a	0	0	0
2961.048	n/a	WORD	1480524	wordpools/wasnorm_wordpool_576.txt	LTP280	ltpFR2	19	14	ASIA	46	n/a	n/a	0	0	0
2963.666	n/a	WORD	1481833	wordpools/wasnorm_wordpool_576.txt	LTP280	ltpFR2	19	14	WITNESS	1618	n/a	n/a	0	0	0
2966.102	n/a	WORD	1483051	wordpools/wasnorm_wordpool_576.txt	LTP280	ltpFR2	19	14	JURY	766	n/a	n/a	0	0	0
2968.638	n/a	WORD	1484319	wordpools/wasnorm_wordpool_576.txt	LTP280	ltpFR2	19	14	HOOD	714	n/a	n/a	0	0	0
2971.122	n/a	WORD	1485561	wordpools/wasnorm_wordpool_576.txt	LTP280	ltpFR2	19	14	POWDER	1117	n/a	n/a	0	0	0
2973.608	n/a	WORD	1486804	wordpools/wasnorm_wordpool_576.txt	LTP280	ltpFR2	19	14	WIDOW	1608	n/a	n/a	0	0	0
2976.094	n/a	WORD	1488047	wordpools/wasnorm_wordpool_576.txt	LTP280	ltpFR2	19	14	ONION	977	n/a	n/a	0	0	0
2978.912	n/a	WORD	1489456	wordpools/wasnorm_wordpool_576.txt	LTP280	ltpFR2	19	14	WARDROBE	1587	n/a	n/a	0	0	0
2981.564	n/a	WORD	1490782	wordpools/wasnorm_wordpool_576.txt	LTP280	ltpFR2	19	14	CHURCH	307	n/a	n/a	0	0	0
2983.184	n/a	START	1491592	n/a	LTP280	ltpFR2	19	n/a	n/a	n/a	20	n/a	n/a	n/a	n/a
2984.32	n/a	DISTRACTOR	1492160	n/a	LTP280	ltpFR2	19	14	n/a	n/a	n/a	n/a	0	0	0
2984.334	n/a	PROB	1492167	n/a	LTP280	ltpFR2	19	n/a	n/a	n/a	20	17	9	1	7
2985.4	n/a	PROB	1492700	n/a	LTP280	ltpFR2	19	n/a	n/a	n/a	20	12	5	3	6
2986.616	n/a	PROB	1493308	n/a	LTP280	ltpFR2	19	n/a	n/a	n/a	20	21	6	9	6
2988.154	n/a	PROB	1494077	n/a	LTP280	ltpFR2	19	n/a	n/a	n/a	20	15	3	5	7
2990.202	n/a	PROB	1495101	n/a	LTP280	ltpFR2	19	n/a	n/a	n/a	20	7	1	2	4
2991.088	n/a	PROB	1495544	n/a	LTP280	ltpFR2	19	n/a	n/a	n/a	20	15	6	3	6
2992.304	n/a	PROB	1496152	n/a	LTP280	ltpFR2	19	n/a	n/a	n/a	20	12	5	5	2
2993.188	n/a	PROB	1496594	n/a	LTP280	ltpFR2	19	n/a	n/a	n/a	20	11	3	6	2
2994.49	n/a	PROB	1497245	n/a	LTP280	ltpFR2	19	n/a	n/a	n/a	20	17	3	5	9
2996.124	n/a	PROB	1498062	n/a	LTP280	ltpFR2	19	n/a	n/a	n/a	20	8	3	2	3
2997.992	n/a	PROB	1498996	n/a	LTP280	ltpFR2	19	n/a	n/a	n/a	20	15	6	5	4
2999.112	n/a	PROB	1499556	n/a	LTP280	ltpFR2	19	n/a	n/a	n/a	20	24	9	6	8
3000.812	n/a	PROB	1500406	n/a	LTP280	ltpFR2	19	n/a	n/a	n/a	20	11	8	1	2
3002.196	n/a	PROB	1501098	n/a	LTP280	ltpFR2	19	n/a	n/a	n/a	20	11	6	3	2
3003.38	n/a	PROB	1501690	n/a	LTP280	ltpFR2	19	n/a	n/a	n/a	20	12	3	1	8
3004.348	n/a	PROB	1502174	n/a	LTP280	ltpFR2	19	n/a	n/a	n/a	20	16	4	9	3
3006.19	n/a	STOP	1503095	n/a	LTP280	ltpFR2	19	n/a	n/a	n/a	20	n/a	n/a	n/a	n/a
3009.154	n/a	REC_START	1504577	n/a	LTP280	ltpFR2	19	14	n/a	n/a	n/a	n/a	0	0	0
3009.436	n/a	REC_WORD	1504718	wordpools/wasnorm_wordpool_576.txt	LTP280	ltpFR2	19	14	TOURIST	1488	n/a	n/a	0	0	0
3010.172	n/a	REC_WORD_VV	1505086	wordpools/wasnorm_wordpool_576.txt	LTP280	ltpFR2	19	14	<>	-1	n/a	n/a	0	0	0
3010.514	n/a	REC_WORD	1505257	wordpools/wasnorm_wordpool_576.txt	LTP280	ltpFR2	19	14	ASIA	46	n/a	n/a	0	0	0
3011.126	n/a	REC_WORD	1505563	wordpools/wasnorm_wordpool_576.txt	LTP280	ltpFR2	19	14	WITNESS	1618	n/a	n/a	0	0	0
3012.54	n/a	REC_WORD	1506270	wordpools/wasnorm_wordpool_576.txt	LTP280	ltpFR2	19	14	JURY	766	n/a	n/a	0	0	0
3013.632	n/a	REC_WORD	1506816	wordpools/wasnorm_wordpool_576.txt	LTP280	ltpFR2	19	14	WIDOW	1608	n/a	n/a	0	0	0
3015.746	n/a	REC_WORD	1507873	wordpools/wasnorm_wordpool_576.txt	LTP280	ltpFR2	19	14	ONION	977	n/a	n/a	0	0	0
3016.38	n/a	REC_WORD	1508190	wordpools/wasnorm_wordpool_576.txt	LTP280	ltpFR2	19	14	POWDER	1117	n/a	n/a	0	0	0
3017.718	n/a	REC_WORD	1508859	wordpools/wasnorm_wordpool_576.txt	LTP280	ltpFR2	19	14	WARDROBE	1587	n/a	n/a	0	0	0
3018.382	n/a	REC_WORD	1509191	wordpools/wasnorm_wordpool_576.txt	LTP280	ltpFR2	19	14	CHURCH	307	n/a	n/a	0	0	0
3021.584	n/a	REC_WORD	1510792	wordpools/wasnorm_wordpool_576.txt	LTP280	ltpFR2	19	14	JUNGLE	764	n/a	n/a	0	0	0
3024.748	n/a	REC_WORD	1512374	wordpools/wasnorm_wordpool_576.txt	LTP280	ltpFR2	19	14	WIFE	1609	n/a	n/a	0	0	0
3099.588	n/a	WORD	1549794	wordpools/wasnorm_wordpool_576.txt	LTP280	ltpFR2	19	15	KETCHUP	771	n/a	n/a	0	0	0
3102.352	n/a	WORD	1551176	wordpools/wasnorm_wordpool_576.txt	LTP280	ltpFR2	19	15	RELISH	1183	n/a	n/a	0	0	0
3104.794	n/a	WORD	1552397	wordpools/wasnorm_wordpool_576.txt	LTP280	ltpFR2	19	15	CROSS	413	n/a	n/a	0	0	0
3107.544	n/a	WORD	1553772	wordpools/wasnorm_wordpool_576.txt	LTP280	ltpFR2	19	15	FOREST	593	n/a	n/a	0	0	0
3110.308	n/a	WORD	1555154	wordpools/wasnorm_wordpool_576.txt	LTP280	ltpFR2	19	15	MARKER	870	n/a	n/a	0	0	0
3113.128	n/a	WORD	1556564	wordpools/wasnorm_wordpool_576.txt	LTP280	ltpFR2	19	15	PRIMATE	1123	n/a	n/a	0	0	0
3115.752	n/a	WORD	1557876	wordpools/wasnorm_wordpool_576.txt	LTP280	ltpFR2	19	15	RIFLE	1192	n/a	n/a	0	0	0
3118.314	n/a	WORD	1559157	wordpools/wasnorm_wordpool_576.txt	LTP280	ltpFR2	19	15	CHAPEL	280	n/a	n/a	0	0	0
3120.89	n/a	WORD	1560445	wordpools/wasnorm_wordpool_576.txt	LTP280	ltpFR2	19	15	COFFEE	341	n/a	n/a	0	0	0
3123.624	n/a	WORD	1561812	wordpools/wasnorm_wordpool_576.txt	LTP280	ltpFR2	19	15	PLIERS	1089	n/a	n/a	0	0	0
3126.138	n/a	WORD	1563069	wordpools/wasnorm_wordpool_576.txt	LTP280	ltpFR2	19	15	CAFE	216	n/a	n/a	0	0	0
3128.79	n/a	WORD	1564395	wordpools/wasnorm_wordpool_576.txt	LTP280	ltpFR2	19	15	FILM	565	n/a	n/a	0	0	0
3131.442	n/a	WORD	1565721	wordpools/wasnorm_wordpool_576.txt	LTP280	ltpFR2	19	15	ACTRESS	6	n/a	n/a	0	0	0
3133.894	n/a	WORD	1566947	wordpools/wasnorm_wordpool_576.txt	LTP280	ltpFR2	19	15	BRANDY	169	n/a	n/a	0	0	0
3136.696	n/a	WORD	1568348	wordpools/wasnorm_wordpool_576.txt	LTP280	ltpFR2	19	15	TURKEY	1520	n/a	n/a	0	0	0
3139.248	n/a	WORD	1569624	wordpools/wasnorm_wordpool_576.txt	LTP280	ltpFR2	19	15	BLADE	134	n/a	n/a	0	0	0
3141.836	n/a	WORD	1570918	wordpools/wasnorm_wordpool_576.txt	LTP280	ltpFR2	19	15	HEDGE	699	n/a	n/a	0	0	0
3144.286	n/a	WORD	1572143	wordpools/wasnorm_wordpool_576.txt	LTP280	ltpFR2	19	15	GRILL	661	n/a	n/a	0	0	0
3146.962	n/a	WORD	1573481	wordpools/wasnorm_wordpool_576.txt	LTP280	ltpFR2	19	15	FLASK	576	n/a	n/a	0	0	0
3149.762	n/a	WORD	1574881	wordpools/wasnorm_wordpool_576.txt	LTP280	ltpFR2	19	15	SUSPECT	1415	n/a	n/a	0	0	0
3152.548	n/a	WORD	1576274	wordpools/wasnorm_wordpool_576.txt	LTP280	ltpFR2	19	15	FLESH	579	n/a	n/a	0	0	0
3155.328	n/a	WORD	1577664	wordpools/wasnorm_wordpool_576.txt	LTP280	ltpFR2	19	15	DENTIST	447	n/a	n/a	0	0	0
3158.032	n/a	WORD	1579016	wordpools/wasnorm_wordpool_576.txt	LTP280	ltpFR2	19	15	BLOCKADE	137	n/a	n/a	0	0	0
3160.8	n/a	WORD	1580400	wordpools/wasnorm_wordpool_576.txt	LTP280	ltpFR2	19	15	MILK	895	n/a	n/a	0	0	0
3162.406	n/a	START	1581203	n/a	LTP280	ltpFR2	19	n/a	n/a	n/a	21	n/a	n/a	n/a	n/a
3163.3	n/a	DISTRACTOR	1581650	n/a	LTP280	ltpFR2	19	15	n/a	n/a	n/a	n/a	0	0	0
3163.306	n/a	PROB	1581653	n/a	LTP280	ltpFR2	19	n/a	n/a	n/a	21	14	8	6	3
3164.508	n/a	PROB	1582254	n/a	LTP280	ltpFR2	19	n/a	n/a	n/a	21	12	3	7	2
3165.722	n/a	PROB	1582861	n/a	LTP280	ltpFR2	19	n/a	n/a	n/a	21	15	9	2	4
3166.944	n/a	PROB	1583472	n/a	LTP280	ltpFR2	19	n/a	n/a	n/a	21	13	5	4	4
3168.588	n/a	PROB	1584294	n/a	LTP280	ltpFR2	19	n/a	n/a	n/a	21	15	1	9	5
3169.526	n/a	PROB	1584763	n/a	LTP280	ltpFR2	19	n/a	n/a	n/a	21	25	9	8	8
3171.394	n/a	PROB	1585697	n/a	LTP280	ltpFR2	19	n/a	n/a	n/a	21	21	9	6	6
3173.21	n/a	PROB	1586605	n/a	LTP280	ltpFR2	19	n/a	n/a	n/a	21	20	8	7	5
3174.646	n/a	PROB	1587323	n/a	LTP280	ltpFR2	19	n/a	n/a	n/a	21	17	2	7	8
3176.03	n/a	PROB	1588015	n/a	LTP280	ltpFR2	19	n/a	n/a	n/a	21	19	6	5	8
3177.546	n/a	PROB	1588773	n/a	LTP280	ltpFR2	19	n/a	n/a	n/a	21	13	1	6	6
3178.448	n/a	PROB	1589224	n/a	LTP280	ltpFR2	19	n/a	n/a	n/a	21	21	7	7	7
3179.418	n/a	PROB	1589709	n/a	LTP280	ltpFR2	19	n/a	n/a	n/a	21	24	9	7	8
3181.568	n/a	PROB	1590784	n/a	LTP280	ltpFR2	19	n/a	n/a	n/a	21	15	8	6	1
3182.47	n/a	PROB	1591235	n/a	LTP280	ltpFR2	19	n/a	n/a	n/a	21	13	2	8	3
3183.652	n/a	PROB	1591826	n/a	LTP280	ltpFR2	19	n/a	n/a	n/a	21	15	5	8	2
3185.09	n/a	STOP	1592545	n/a	LTP280	ltpFR2	19	n/a	n/a	n/a	21	n/a	n/a	n/a	n/a
3188.36	n/a	REC_START	1594180	n/a	LTP280	ltpFR2	19	15	n/a	n/a	n/a	n/a	0	0	0
3188.642	n/a	REC_WORD_VV	1594321	wordpools/wasnorm_wordpool_576.txt	LTP280	ltpFR2	19	15	<>	-1	n/a	n/a	0	0	0
3190.29	n/a	REC_WORD	1595145	wordpools/wasnorm_wordpool_576.txt	LTP280	ltpFR2	19	15	BLADE	134	n/a	n/a	0	0	0
3190.702	n/a	REC_WORD	1595351	wordpools/wasnorm_wordpool_576.txt	LTP280	ltpFR2	19	15	HEDGE	699	n/a	n/a	0	0	0
3191.364	n/a	REC_WORD	1595682	wordpools/wasnorm_wordpool_576.txt	LTP280	ltpFR2	19	15	GRILL	661	n/a	n/a	0	0	0
3192.67	n/a	REC_WORD	1596335	wordpools/wasnorm_wordpool_576.txt	LTP280	ltpFR2	19	15	FOREST	593	n/a	n/a	0	0	0
3193.44	n/a	REC_WORD	1596720	wordpools/wasnorm_wordpool_576.txt	LTP280	ltpFR2	19	15	KETCHUP	771	n/a	n/a	0	0	0
3194.364	n/a	REC_WORD	1597182	wordpools/wasnorm_wordpool_576.txt	LTP280	ltpFR2	19	15	RELISH	1183	n/a	n/a	0	0	0
3204.244	n/a	REC_WORD	1602122	wordpools/wasnorm_wordpool_576.txt	LTP280	ltpFR2	19	15	SPOUSE	1358	n/a	n/a	0	0	0
3278.812	n/a	WORD	1639406	wordpools/wasnorm_wordpool_576.txt	LTP280	ltpFR2	19	16	PATIENT	1024	n/a	n/a	0	0	0
3281.498	n/a	WORD	1640749	wordpools/wasnorm_wordpool_576.txt	LTP280	ltpFR2	19	16	LADDER	793	n/a	n/a	0	0	0
3284.168	n/a	WORD	1642084	wordpools/wasnorm_wordpool_576.txt	LTP280	ltpFR2	19	16	HIKER	708	n/a	n/a	0	0	0
3286.902	n/a	WORD	1643451	wordpools/wasnorm_wordpool_576.txt	LTP280	ltpFR2	19	16	CLIMBER	323	n/a	n/a	0	0	0
3289.388	n/a	WORD	1644694	wordpools/wasnorm_wordpool_576.txt	LTP280	ltpFR2	19	16	SEAFOOD	1260	n/a	n/a	0	0	0
3292.09	n/a	WORD	1646045	wordpools/wasnorm_wordpool_576.txt	LTP280	ltpFR2	19	16	MAMMAL	861	n/a	n/a	0	0	0
3294.724	n/a	WORD	1647362	wordpools/wasnorm_wordpool_576.txt	LTP280	ltpFR2	19	16	CLOTHES	327	n/a	n/a	0	0	0
3297.242	n/a	WORD	1648621	wordpools/wasnorm_wordpool_576.txt	LTP280	ltpFR2	19	16	RECORD	1176	n/a	n/a	0	0	0
3299.88	n/a	WORD	1649940	wordpools/wasnorm_wordpool_576.txt	LTP280	ltpFR2	19	16	FOREHEAD	592	n/a	n/a	0	0	0
3302.514	n/a	WORD	1651257	wordpools/wasnorm_wordpool_576.txt	LTP280	ltpFR2	19	16	YOLK	1633	n/a	n/a	0	0	0
3305.206	n/a	WORD	1652603	wordpools/wasnorm_wordpool_576.txt	LTP280	ltpFR2	19	16	ORANGE	980	n/a	n/a	0	0	0
3307.944	n/a	WORD	1653972	wordpools/wasnorm_wordpool_576.txt	LTP280	ltpFR2	19	16	NAPKIN	937	n/a	n/a	0	0	0
3310.388	n/a	WORD	1655194	wordpools/wasnorm_wordpool_576.txt	LTP280	ltpFR2	19	16	SWITCH	1422	n/a	n/a	0	0	0
3313.074	n/a	WORD	1656537	wordpools/wasnorm_wordpool_576.txt	LTP280	ltpFR2	19	16	OUTFIT	988	n/a	n/a	0	0	0
3315.834	n/a	WORD	1657917	wordpools/wasnorm_wordpool_576.txt	LTP280	ltpFR2	19	16	FLUTE	585	n/a	n/a	0	0	0
3318.344	n/a	WORD	1659172	wordpools/wasnorm_wordpool_576.txt	LTP280	ltpFR2	19	16	PIANO	1057	n/a	n/a	0	0	0
3320.946	n/a	WORD	1660473	wordpools/wasnorm_wordpool_576.txt	LTP280	ltpFR2	19	16	CURTAIN	427	n/a	n/a	0	0	0
3323.548	n/a	WORD	1661774	wordpools/wasnorm_wordpool_576.txt	LTP280	ltpFR2	19	16	TYPIST	1532	n/a	n/a	0	0	0
3326.216	n/a	WORD	1663108	wordpools/wasnorm_wordpool_576.txt	LTP280	ltpFR2	19	16	MUMMY	932	n/a	n/a	0	0	0
3328.7	n/a	WORD	1664350	wordpools/wasnorm_wordpool_576.txt	LTP280	ltpFR2	19	16	PANTHER	1009	n/a	n/a	0	0	0
3331.51	n/a	WORD	1665755	wordpools/wasnorm_wordpool_576.txt	LTP280	ltpFR2	19	16	WHISKERS	1605	n/a	n/a	0	0	0
3334.164	n/a	WORD	1667082	wordpools/wasnorm_wordpool_576.txt	LTP280	ltpFR2	19	16	PICNIC	1060	n/a	n/a	0	0	0
3336.69	n/a	WORD	1668345	wordpools/wasnorm_wordpool_576.txt	LTP280	ltpFR2	19	16	STAPLE	1371	n/a	n/a	0	0	0
3339.176	n/a	WORD	1669588	wordpools/wasnorm_wordpool_576.txt	LTP280	ltpFR2	19	16	REPORT	1184	n/a	n/a	0	0	0
3340.788	n/a	START	1670394	n/a	LTP280	ltpFR2	19	n/a	n/a	n/a	22	n/a	n/a	n/a	n/a
3341.87	n/a	DISTRACTOR	1670935	n/a	LTP280	ltpFR2	19	16	n/a	n/a	n/a	n/a	0	0	0
3341.88	n/a	PROB	1670940	n/a	LTP280	ltpFR2	19	n/a	n/a	n/a	22	20	7	6	7
3343.546	n/a	PROB	1671773	n/a	LTP280	ltpFR2	19	n/a	n/a	n/a	22	17	7	3	7
3344.998	n/a	PROB	1672499	n/a	LTP280	ltpFR2	19	n/a	n/a	n/a	22	12	3	1	8
3345.916	n/a	PROB	1672958	n/a	LTP280	ltpFR2	19	n/a	n/a	n/a	22	19	7	7	8
3348.884	n/a	PROB	1674442	n/a	LTP280	ltpFR2	19	n/a	n/a	n/a	22	16	5	4	7
3350.216	n/a	PROB	1675108	n/a	LTP280	ltpFR2	19	n/a	n/a	n/a	22	13	5	6	2
3351.636	n/a	PROB	1675818	n/a	LTP280	ltpFR2	19	n/a	n/a	n/a	22	11	1	4	6
3352.586	n/a	PROB	1676293	n/a	LTP280	ltpFR2	19	n/a	n/a	n/a	22	16	3	9	4
3353.838	n/a	PROB	1676919	n/a	LTP280	ltpFR2	19	n/a	n/a	n/a	22	17	4	4	9
3355.104	n/a	PROB	1677552	n/a	LTP280	ltpFR2	19	n/a	n/a	n/a	22	8	2	2	4
3356.106	n/a	PROB	1678053	n/a	LTP280	ltpFR2	19	n/a	n/a	n/a	22	13	4	6	3
3357.306	n/a	PROB	1678653	n/a	LTP280	ltpFR2	19	n/a	n/a	n/a	22	13	3	4	7
3358.842	n/a	PROB	1679421	n/a	LTP280	ltpFR2	19	n/a	n/a	n/a	22	9	5	1	2
3360.844	n/a	PROB	1680422	n/a	LTP280	ltpFR2	19	n/a	n/a	n/a	22	115	4	7	4
3363.58	n/a	STOP	1681790	n/a	LTP280	ltpFR2	19	n/a	n/a	n/a	22	n/a	n/a	n/a	n/a
3366.532	n/a	REC_START	1683266	n/a	LTP280	ltpFR2	19	16	n/a	n/a	n/a	n/a	0	0	0
3367.358	n/a	REC_WORD	1683679	wordpools/wasnorm_wordpool_576.txt	LTP280	ltpFR2	19	16	PIANO	1057	n/a	n/a	0	0	0
3367.922	n/a	REC_WORD	1683961	wordpools/wasnorm_wordpool_576.txt	LTP280	ltpFR2	19	16	CURTAIN	427	n/a	n/a	0	0	0
3368.568	n/a	REC_WORD	1684284	wordpools/wasnorm_wordpool_576.txt	LTP280	ltpFR2	19	16	STAPLE	1371	n/a	n/a	0	0	0
3443.074	n/a	REST_REWET	1721537	n/a	LTP280	ltpFR2	19	16	n/a	n/a	n/a	n/a	0	0	0
3655.274	n/a	DISTRACTOR	1827637	n/a	LTP280	ltpFR2	19	17	n/a	n/a	n/a	n/a	0	0	0
3655.274	n/a	START	1827637	n/a	LTP280	ltpFR2	19	n/a	n/a	n/a	23	n/a	n/a	n/a	n/a
3655.288	n/a	PROB	1827644	n/a	LTP280	ltpFR2	19	n/a	n/a	n/a	23	15	7	1	7
3656.236	n/a	PROB	1828118	n/a	LTP280	ltpFR2	19	n/a	n/a	n/a	23	14	5	2	7
3657.636	n/a	PROB	1828818	n/a	LTP280	ltpFR2	19	n/a	n/a	n/a	23	15	7	2	6
3659.058	n/a	PROB	1829529	n/a	LTP280	ltpFR2	19	n/a	n/a	n/a	23	17	6	9	2
3660.226	n/a	PROB	1830113	n/a	LTP280	ltpFR2	19	n/a	n/a	n/a	23	17	3	8	6
3661.474	n/a	PROB	1830737	n/a	LTP280	ltpFR2	19	n/a	n/a	n/a	23	21	7	8	6
3662.76	n/a	PROB	1831380	n/a	LTP280	ltpFR2	19	n/a	n/a	n/a	23	18	7	9	2
3663.894	n/a	PROB	1831947	n/a	LTP280	ltpFR2	19	n/a	n/a	n/a	23	14	5	4	5
3665.114	n/a	PROB	1832557	n/a	LTP280	ltpFR2	19	n/a	n/a	n/a	23	11	8	2	1
3665.964	n/a	PROB	1832982	n/a	LTP280	ltpFR2	19	n/a	n/a	n/a	23	19	9	4	5
3667.33	n/a	PROB	1833665	n/a	LTP280	ltpFR2	19	n/a	n/a	n/a	23	15	7	1	7
3668.482	n/a	PROB	1834241	n/a	LTP280	ltpFR2	19	n/a	n/a	n/a	23	17	2	8	7
3669.448	n/a	PROB	1834724	n/a	LTP280	ltpFR2	19	n/a	n/a	n/a	23	13	3	5	5
3670.548	n/a	PROB	1835274	n/a	LTP280	ltpFR2	19	n/a	n/a	n/a	23	11	3	3	5
3672.2	n/a	PROB	1836100	n/a	LTP280	ltpFR2	19	n/a	n/a	n/a	23	17	9	5	3
3673.42	n/a	PROB	1836710	n/a	LTP280	ltpFR2	19	n/a	n/a	n/a	23	4	1	1	2
3674.268	n/a	PROB	1837134	n/a	LTP280	ltpFR2	19	n/a	n/a	n/a	23	20	8	4	8
3675.638	n/a	PROB	1837819	n/a	LTP280	ltpFR2	19	n/a	n/a	n/a	23	23	9	6	8
3677.44	n/a	PROB	1838720	n/a	LTP280	ltpFR2	19	n/a	n/a	n/a	23	8	6	1	1
3678.426	n/a	STOP	1839213	n/a	LTP280	ltpFR2	19	n/a	n/a	n/a	23	n/a	n/a	n/a	n/a
3680.242	n/a	WORD	1840121	wordpools/wasnorm_wordpool_576.txt	LTP280	ltpFR2	19	17	GALLON	618	n/a	n/a	0	0	0
3682.81	n/a	WORD	1841405	wordpools/wasnorm_wordpool_576.txt	LTP280	ltpFR2	19	17	TUNNEL	1519	n/a	n/a	0	0	0
3685.614	n/a	WORD	1842807	wordpools/wasnorm_wordpool_576.txt	LTP280	ltpFR2	19	17	PASTRY	1022	n/a	n/a	0	0	0
3688.048	n/a	WORD	1844024	wordpools/wasnorm_wordpool_576.txt	LTP280	ltpFR2	19	17	EAGLE	512	n/a	n/a	0	0	0
3690.5	n/a	WORD	1845250	wordpools/wasnorm_wordpool_576.txt	LTP280	ltpFR2	19	17	STAKE	1368	n/a	n/a	0	0	0
3692.936	n/a	WORD	1846468	wordpools/wasnorm_wordpool_576.txt	LTP280	ltpFR2	19	17	VALVE	1546	n/a	n/a	0	0	0
3695.638	n/a	WORD	1847819	wordpools/wasnorm_wordpool_576.txt	LTP280	ltpFR2	19	17	JELLO	754	n/a	n/a	0	0	0
3698.422	n/a	WORD	1849211	wordpools/wasnorm_wordpool_576.txt	LTP280	ltpFR2	19	17	TERMITE	1451	n/a	n/a	0	0	0
3701.01	n/a	WORD	1850505	wordpools/wasnorm_wordpool_576.txt	LTP280	ltpFR2	19	17	PEDAL	1037	n/a	n/a	0	0	0
3703.828	n/a	WORD	1851914	wordpools/wasnorm_wordpool_576.txt	LTP280	ltpFR2	19	17	BREAST	171	n/a	n/a	0	0	0
3706.346	n/a	WORD	1853173	wordpools/wasnorm_wordpool_576.txt	LTP280	ltpFR2	19	17	SCALLOP	1242	n/a	n/a	0	0	0
3709.032	n/a	WORD	1854516	wordpools/wasnorm_wordpool_576.txt	LTP280	ltpFR2	19	17	TRACTOR	1493	n/a	n/a	0	0	0
3711.568	n/a	WORD	1855784	wordpools/wasnorm_wordpool_576.txt	LTP280	ltpFR2	19	17	FARMER	553	n/a	n/a	0	0	0
3714.07	n/a	WORD	1857035	wordpools/wasnorm_wordpool_576.txt	LTP280	ltpFR2	19	17	CRICKET	408	n/a	n/a	0	0	0
3716.84	n/a	WORD	1858420	wordpools/wasnorm_wordpool_576.txt	LTP280	ltpFR2	19	17	POLICE	1098	n/a	n/a	0	0	0
3719.606	n/a	WORD	1859803	wordpools/wasnorm_wordpool_576.txt	LTP280	ltpFR2	19	17	GIFT	635	n/a	n/a	0	0	0
3722.16	n/a	WORD	1861080	wordpools/wasnorm_wordpool_576.txt	LTP280	ltpFR2	19	17	HOOK	715	n/a	n/a	0	0	0
3724.66	n/a	WORD	1862330	wordpools/wasnorm_wordpool_576.txt	LTP280	ltpFR2	19	17	TOMBSTONE	1478	n/a	n/a	0	0	0
3727.18	n/a	WORD	1863590	wordpools/wasnorm_wordpool_576.txt	LTP280	ltpFR2	19	17	SCISSORS	1250	n/a	n/a	0	0	0
3729.648	n/a	WORD	1864824	wordpools/wasnorm_wordpool_576.txt	LTP280	ltpFR2	19	17	HEADBAND	696	n/a	n/a	0	0	0
3732.366	n/a	WORD	1866183	wordpools/wasnorm_wordpool_576.txt	LTP280	ltpFR2	19	17	IGLOO	734	n/a	n/a	0	0	0
3734.784	n/a	WORD	1867392	wordpools/wasnorm_wordpool_576.txt	LTP280	ltpFR2	19	17	COUNTRY	388	n/a	n/a	0	0	0
3737.486	n/a	WORD	1868743	wordpools/wasnorm_wordpool_576.txt	LTP280	ltpFR2	19	17	JAPAN	749	n/a	n/a	0	0	0
3740.172	n/a	WORD	1870086	wordpools/wasnorm_wordpool_576.txt	LTP280	ltpFR2	19	17	CUSTARD	429	n/a	n/a	0	0	0
3741.778	n/a	START	1870889	n/a	LTP280	ltpFR2	19	n/a	n/a	n/a	24	n/a	n/a	n/a	n/a
3742.882	n/a	DISTRACTOR	1871441	n/a	LTP280	ltpFR2	19	17	n/a	n/a	n/a	n/a	0	0	0
3742.892	n/a	PROB	1871446	n/a	LTP280	ltpFR2	19	n/a	n/a	n/a	24	13	3	8	2
3744.594	n/a	PROB	1872297	n/a	LTP280	ltpFR2	19	n/a	n/a	n/a	24	12	7	1	4
3745.608	n/a	PROB	1872804	n/a	LTP280	ltpFR2	19	n/a	n/a	n/a	24	9	3	4	2
3746.742	n/a	PROB	1873371	n/a	LTP280	ltpFR2	19	n/a	n/a	n/a	24	14	4	8	2
3747.878	n/a	PROB	1873939	n/a	LTP280	ltpFR2	19	n/a	n/a	n/a	24	11	3	1	7
3748.794	n/a	PROB	1874397	n/a	LTP280	ltpFR2	19	n/a	n/a	n/a	24	4	1	1	2
3749.694	n/a	PROB	1874847	n/a	LTP280	ltpFR2	19	n/a	n/a	n/a	24	25	8	8	9
3751.048	n/a	PROB	1875524	n/a	LTP280	ltpFR2	19	n/a	n/a	n/a	24	6	1	4	1
3751.948	n/a	PROB	1875974	n/a	LTP280	ltpFR2	19	n/a	n/a	n/a	24	12	3	8	1
3752.916	n/a	PROB	1876458	n/a	LTP280	ltpFR2	19	n/a	n/a	n/a	24	9	2	3	4
3754.168	n/a	PROB	1877084	n/a	LTP280	ltpFR2	19	n/a	n/a	n/a	24	9	4	4	1
3755.15	n/a	PROB	1877575	n/a	LTP280	ltpFR2	19	n/a	n/a	n/a	24	16	7	1	8
3756.234	n/a	PROB	1878117	n/a	LTP280	ltpFR2	19	n/a	n/a	n/a	24	17	6	9	2
3757.47	n/a	PROB	1878735	n/a	LTP280	ltpFR2	19	n/a	n/a	n/a	24	17	4	6	7
3759.038	n/a	PROB	1879519	n/a	LTP280	ltpFR2	19	n/a	n/a	n/a	24	21	6	8	7
3760.288	n/a	PROB	1880144	n/a	LTP280	ltpFR2	19	n/a	n/a	n/a	24	14	9	4	1
3761.338	n/a	PROB	1880669	n/a	LTP280	ltpFR2	19	n/a	n/a	n/a	24	11	2	8	1
3762.388	n/a	PROB	1881194	n/a	LTP280	ltpFR2	19	n/a	n/a	n/a	24	20	6	5	9
3763.506	n/a	PROB	1881753	n/a	LTP280	ltpFR2	19	n/a	n/a	n/a	24	18	6	8	4
3764.65	n/a	STOP	1882325	n/a	LTP280	ltpFR2	19	n/a	n/a	n/a	24	n/a	n/a	n/a	n/a
3767.644	n/a	REC_START	1883822	n/a	LTP280	ltpFR2	19	17	n/a	n/a	n/a	n/a	0	0	0
3768.032	n/a	REC_WORD	1884016	wordpools/wasnorm_wordpool_576.txt	LTP280	ltpFR2	19	17	TOMBSTONE	1478	n/a	n/a	0	0	0
3768.726	n/a	REC_WORD	1884363	wordpools/wasnorm_wordpool_576.txt	LTP280	ltpFR2	19	17	HEADBAND	696	n/a	n/a	0	0	0
3770.222	n/a	REC_WORD	1885111	wordpools/wasnorm_wordpool_576.txt	LTP280	ltpFR2	19	17	JAPAN	749	n/a	n/a	0	0	0
3771.196	n/a	REC_WORD	1885598	wordpools/wasnorm_wordpool_576.txt	LTP280	ltpFR2	19	17	CUSTARD	429	n/a	n/a	0	0	0
3786.27	n/a	REC_WORD	1893135	wordpools/wasnorm_wordpool_576.txt	LTP280	ltpFR2	19	17	TRACTOR	1493	n/a	n/a	0	0	0
3858.066	n/a	DISTRACTOR	1929033	n/a	LTP280	ltpFR2	19	18	n/a	n/a	n/a	n/a	0	0	0
3858.066	n/a	START	1929033	n/a	LTP280	ltpFR2	19	n/a	n/a	n/a	25	n/a	n/a	n/a	n/a
3858.082	n/a	PROB	1929041	n/a	LTP280	ltpFR2	19	n/a	n/a	n/a	25	14	4	7	3
3859.782	n/a	PROB	1929891	n/a	LTP280	ltpFR2	19	n/a	n/a	n/a	25	21	9	4	8
3861.7	n/a	PROB	1930850	n/a	LTP280	ltpFR2	19	n/a	n/a	n/a	25	11	4	5	2
3862.752	n/a	PROB	1931376	n/a	LTP280	ltpFR2	19	n/a	n/a	n/a	25	10	3	2	5
3863.936	n/a	PROB	1931968	n/a	LTP280	ltpFR2	19	n/a	n/a	n/a	25	13	5	2	6
3865.42	n/a	PROB	1932710	n/a	LTP280	ltpFR2	19	n/a	n/a	n/a	25	11	6	2	3
3866.906	n/a	PROB	1933453	n/a	LTP280	ltpFR2	19	n/a	n/a	n/a	25	16	4	6	6
3868.204	n/a	PROB	1934102	n/a	LTP280	ltpFR2	19	n/a	n/a	n/a	25	13	4	2	7
3870.124	n/a	PROB	1935062	n/a	LTP280	ltpFR2	19	n/a	n/a	n/a	25	20	6	6	8
3871.59	n/a	PROB	1935795	n/a	LTP280	ltpFR2	19	n/a	n/a	n/a	25	14	7	3	4
3872.658	n/a	PROB	1936329	n/a	LTP280	ltpFR2	19	n/a	n/a	n/a	25	17	2	9	6
3874.172	n/a	PROB	1937086	n/a	LTP280	ltpFR2	19	n/a	n/a	n/a	25	15	1	9	5
3875.078	n/a	PROB	1937539	n/a	LTP280	ltpFR2	19	n/a	n/a	n/a	25	20	3	8	9
3877.014	n/a	PROB	1938507	n/a	LTP280	ltpFR2	19	n/a	n/a	n/a	25	19	3	9	7
3878.464	n/a	PROB	1939232	n/a	LTP280	ltpFR2	19	n/a	n/a	n/a	25	11	1	6	4
3879.298	n/a	PROB	1939649	n/a	LTP280	ltpFR2	19	n/a	n/a	n/a	25	18	5	4	9
3882.066	n/a	STOP	1941033	n/a	LTP280	ltpFR2	19	n/a	n/a	n/a	25	n/a	n/a	n/a	n/a
3883.018	n/a	WORD	1941509	wordpools/wasnorm_wordpool_576.txt	LTP280	ltpFR2	19	18	BLOUSE	139	n/a	n/a	0	0	0
3885.616	n/a	WORD	1942808	wordpools/wasnorm_wordpool_576.txt	LTP280	ltpFR2	19	18	HORSE	719	n/a	n/a	0	0	0
3888.318	n/a	WORD	1944159	wordpools/wasnorm_wordpool_576.txt	LTP280	ltpFR2	19	18	WAGON	1578	n/a	n/a	0	0	0
3891.088	n/a	WORD	1945544	wordpools/wasnorm_wordpool_576.txt	LTP280	ltpFR2	19	18	PISTOL	1075	n/a	n/a	0	0	0
3893.722	n/a	WORD	1946861	wordpools/wasnorm_wordpool_576.txt	LTP280	ltpFR2	19	18	WOMAN	1620	n/a	n/a	0	0	0
3896.192	n/a	WORD	1948096	wordpools/wasnorm_wordpool_576.txt	LTP280	ltpFR2	19	18	WORLD	1622	n/a	n/a	0	0	0
3898.912	n/a	WORD	1949456	wordpools/wasnorm_wordpool_576.txt	LTP280	ltpFR2	19	18	AIRPLANE	12	n/a	n/a	0	0	0
3901.416	n/a	WORD	1950708	wordpools/wasnorm_wordpool_576.txt	LTP280	ltpFR2	19	18	VIRUS	1572	n/a	n/a	0	0	0
3904.0	n/a	WORD	1952000	wordpools/wasnorm_wordpool_576.txt	LTP280	ltpFR2	19	18	TABLET	1427	n/a	n/a	0	0	0
3906.67	n/a	WORD	1953335	wordpools/wasnorm_wordpool_576.txt	LTP280	ltpFR2	19	18	SHERIFF	1284	n/a	n/a	0	0	0
3909.252	n/a	WORD	1954626	wordpools/wasnorm_wordpool_576.txt	LTP280	ltpFR2	19	18	MOTEL	919	n/a	n/a	0	0	0
3911.922	n/a	WORD	1955961	wordpools/wasnorm_wordpool_576.txt	LTP280	ltpFR2	19	18	LODGE	839	n/a	n/a	0	0	0
3914.506	n/a	WORD	1957253	wordpools/wasnorm_wordpool_576.txt	LTP280	ltpFR2	19	18	COUNTY	389	n/a	n/a	0	0	0
3917.244	n/a	WORD	1958622	wordpools/wasnorm_wordpool_576.txt	LTP280	ltpFR2	19	18	BACKBONE	66	n/a	n/a	0	0	0
3919.862	n/a	WORD	1959931	wordpools/wasnorm_wordpool_576.txt	LTP280	ltpFR2	19	18	GLOBE	641	n/a	n/a	0	0	0
3922.296	n/a	WORD	1961148	wordpools/wasnorm_wordpool_576.txt	LTP280	ltpFR2	19	18	DONOR	485	n/a	n/a	0	0	0
3924.866	n/a	WORD	1962433	wordpools/wasnorm_wordpool_576.txt	LTP280	ltpFR2	19	18	QUEEN	1149	n/a	n/a	0	0	0
3927.384	n/a	WORD	1963692	wordpools/wasnorm_wordpool_576.txt	LTP280	ltpFR2	19	18	FRIEND	606	n/a	n/a	0	0	0
3930.104	n/a	WORD	1965052	wordpools/wasnorm_wordpool_576.txt	LTP280	ltpFR2	19	18	DRUG	501	n/a	n/a	0	0	0
3932.672	n/a	WORD	1966336	wordpools/wasnorm_wordpool_576.txt	LTP280	ltpFR2	19	18	BADGE	68	n/a	n/a	0	0	0
3935.324	n/a	WORD	1967662	wordpools/wasnorm_wordpool_576.txt	LTP280	ltpFR2	19	18	POCKET	1093	n/a	n/a	0	0	0
3937.994	n/a	WORD	1968997	wordpools/wasnorm_wordpool_576.txt	LTP280	ltpFR2	19	18	DRAGON	492	n/a	n/a	0	0	0
3940.43	n/a	WORD	1970215	wordpools/wasnorm_wordpool_576.txt	LTP280	ltpFR2	19	18	KEEPER	769	n/a	n/a	0	0	0
3943.248	n/a	WORD	1971624	wordpools/wasnorm_wordpool_576.txt	LTP280	ltpFR2	19	18	OINTMENT	974	n/a	n/a	0	0	0
3944.868	n/a	START	1972434	n/a	LTP280	ltpFR2	19	n/a	n/a	n/a	26	n/a	n/a	n/a	n/a
3945.842	n/a	DISTRACTOR	1972921	n/a	LTP280	ltpFR2	19	18	n/a	n/a	n/a	n/a	0	0	0
3945.85	n/a	PROB	1972925	n/a	LTP280	ltpFR2	19	n/a	n/a	n/a	26	14	5	5	4
3946.85	n/a	PROB	1973425	n/a	LTP280	ltpFR2	19	n/a	n/a	n/a	26	25	8	9	8
3948.368	n/a	PROB	1974184	n/a	LTP280	ltpFR2	19	n/a	n/a	n/a	26	8	1	2	5
3949.402	n/a	PROB	1974701	n/a	LTP280	ltpFR2	19	n/a	n/a	n/a	26	15	6	2	7
3951.154	n/a	PROB	1975577	n/a	LTP280	ltpFR2	19	n/a	n/a	n/a	26	15	7	6	2
3952.038	n/a	PROB	1976019	n/a	LTP280	ltpFR2	19	n/a	n/a	n/a	26	14	7	6	1
3953.54	n/a	PROB	1976770	n/a	LTP280	ltpFR2	19	n/a	n/a	n/a	26	18	8	4	6
3955.04	n/a	PROB	1977520	n/a	LTP280	ltpFR2	19	n/a	n/a	n/a	26	25	9	9	7
3956.372	n/a	PROB	1978186	n/a	LTP280	ltpFR2	19	n/a	n/a	n/a	26	24	8	8	8
3957.976	n/a	PROB	1978988	n/a	LTP280	ltpFR2	19	n/a	n/a	n/a	26	18	8	6	4
3959.428	n/a	PROB	1979714	n/a	LTP280	ltpFR2	19	n/a	n/a	n/a	26	23	9	7	7
3962.48	n/a	PROB	1981240	n/a	LTP280	ltpFR2	19	n/a	n/a	n/a	26	9	3	5	1
3963.546	n/a	PROB	1981773	n/a	LTP280	ltpFR2	19	n/a	n/a	n/a	26	19	7	4	8
3965.43	n/a	PROB	1982715	n/a	LTP280	ltpFR2	19	n/a	n/a	n/a	26	9	2	1	6
3966.832	n/a	PROB	1983416	n/a	LTP280	ltpFR2	19	n/a	n/a	n/a	26	9	2	1	6
3968.04	n/a	STOP	1984020	n/a	LTP280	ltpFR2	19	n/a	n/a	n/a	26	n/a	n/a	n/a	n/a
3970.82	n/a	REC_START	1985410	n/a	LTP280	ltpFR2	19	18	n/a	n/a	n/a	n/a	0	0	0
3971.358	n/a	REC_WORD_VV	1985679	wordpools/wasnorm_wordpool_576.txt	LTP280	ltpFR2	19	18	<>	-1	n/a	n/a	0	0	0
3972.358	n/a	REC_WORD_VV	1986179	wordpools/wasnorm_wordpool_576.txt	LTP280	ltpFR2	19	18	<>	-1	n/a	n/a	0	0	0
3974.462	n/a	REC_WORD_VV	1987231	wordpools/wasnorm_wordpool_576.txt	LTP280	ltpFR2	19	18	<>	-1	n/a	n/a	0	0	0
3975.4	n/a	REC_WORD	1987700	wordpools/wasnorm_wordpool_576.txt	LTP280	ltpFR2	19	18	QUEEN	1149	n/a	n/a	0	0	0
3975.806	n/a	REC_WORD	1987903	wordpools/wasnorm_wordpool_576.txt	LTP280	ltpFR2	19	18	DONOR	485	n/a	n/a	0	0	0
3976.72	n/a	REC_WORD_VV	1988360	wordpools/wasnorm_wordpool_576.txt	LTP280	ltpFR2	19	18	<>	-1	n/a	n/a	0	0	0
3977.648	n/a	REC_WORD	1988824	wordpools/wasnorm_wordpool_576.txt	LTP280	ltpFR2	19	18	SHERIFF	1284	n/a	n/a	0	0	0
3978.288	n/a	REC_WORD	1989144	wordpools/wasnorm_wordpool_576.txt	LTP280	ltpFR2	19	18	BADGE	68	n/a	n/a	0	0	0
3978.678	n/a	REC_WORD	1989339	wordpools/wasnorm_wordpool_576.txt	LTP280	ltpFR2	19	18	POCKET	1093	n/a	n/a	0	0	0
3980.66	n/a	REC_WORD	1990330	wordpools/wasnorm_wordpool_576.txt	LTP280	ltpFR2	19	18	GLOBE	641	n/a	n/a	0	0	0
3981.516	n/a	REC_WORD	1990758	wordpools/wasnorm_wordpool_576.txt	LTP280	ltpFR2	19	18	WORLD	1622	n/a	n/a	0	0	0
3983.952	n/a	REC_WORD	1991976	wordpools/wasnorm_wordpool_576.txt	LTP280	ltpFR2	19	18	AIRPLANE	12	n/a	n/a	0	0	0
3984.622	n/a	REC_WORD	1992311	wordpools/wasnorm_wordpool_576.txt	LTP280	ltpFR2	19	18	VIRUS	1572	n/a	n/a	0	0	0
3988.014	n/a	REC_WORD	1994007	wordpools/wasnorm_wordpool_576.txt	LTP280	ltpFR2	19	18	WOMAN	1620	n/a	n/a	0	0	0
3988.698	n/a	REC_WORD	1994349	wordpools/wasnorm_wordpool_576.txt	LTP280	ltpFR2	19	18	PISTOL	1075	n/a	n/a	0	0	0
3990.106	n/a	REC_WORD	1995053	wordpools/wasnorm_wordpool_576.txt	LTP280	ltpFR2	19	18	HORSE	719	n/a	n/a	0	0	0
3991.226	n/a	REC_WORD	1995613	wordpools/wasnorm_wordpool_576.txt	LTP280	ltpFR2	19	18	WAGON	1578	n/a	n/a	0	0	0
3992.672	n/a	REC_WORD	1996336	wordpools/wasnorm_wordpool_576.txt	LTP280	ltpFR2	19	18	BLOUSE	139	n/a	n/a	0	0	0
3995.248	n/a	REC_WORD	1997624	wordpools/wasnorm_wordpool_576.txt	LTP280	ltpFR2	19	18	OINTMENT	974	n/a	n/a	0	0	0
4061.24	n/a	DISTRACTOR	2030620	n/a	LTP280	ltpFR2	19	19	n/a	n/a	n/a	n/a	0	0	0
4061.24	n/a	START	2030620	n/a	LTP280	ltpFR2	19	n/a	n/a	n/a	27	n/a	n/a	n/a	n/a
4061.256	n/a	PROB	2030628	n/a	LTP280	ltpFR2	19	n/a	n/a	n/a	27	12	8	2	2
4062.39	n/a	PROB	2031195	n/a	LTP280	ltpFR2	19	n/a	n/a	n/a	27	12	5	5	2
4063.39	n/a	PROB	2031695	n/a	LTP280	ltpFR2	19	n/a	n/a	n/a	27	10	2	3	5
4064.608	n/a	PROB	2032304	n/a	LTP280	ltpFR2	19	n/a	n/a	n/a	27	17	9	6	2
4065.692	n/a	PROB	2032846	n/a	LTP280	ltpFR2	19	n/a	n/a	n/a	27	17	7	4	6
4067.276	n/a	PROB	2033638	n/a	LTP280	ltpFR2	19	n/a	n/a	n/a	27	16	7	5	4
