onset	duration	trial_type	sample	stim_file	subject	experiment	session	trial	task	item_name	item_num	recog_resp	recog_conf	resp	color_r	color_g	color_b	case	font
444.922	n/a	SESS_START	222461	n/a	LTP291	ltpFR	2	n/a	n/a	n/a	n/a	1	2	n/a	n/a	n/a	n/a	n/a	n/a
482.708	n/a	WORD	241354	wordpools/wasnorm_wordpool_less_exclusions.txt	LTP291	ltpFR	2	1	1	DECK	443	0	n/a	1	0.57763671875	0.412841796875	1	lower	zerothre.ttf
486.622	n/a	WORD	243311	wordpools/wasnorm_wordpool_less_exclusions.txt	LTP291	ltpFR	2	1	1	TOAST	1471	n/a	n/a	0	0.57763671875	0.412841796875	1	lower	zerothre.ttf
490.67	n/a	WORD	245335	wordpools/wasnorm_wordpool_less_exclusions.txt	LTP291	ltpFR	2	1	0	MULE	931	n/a	n/a	1	0.422607421875	0.5869140625	0	upper	amplitud.ttf
494.838	n/a	WORD	247419	wordpools/wasnorm_wordpool_less_exclusions.txt	LTP291	ltpFR	2	1	0	GRASSHOPPER	656	n/a	n/a	0	0.422607421875	0.5869140625	0	upper	amplitud.ttf
498.77	n/a	WORD	249385	wordpools/wasnorm_wordpool_less_exclusions.txt	LTP291	ltpFR	2	1	0	PICNIC	1060	n/a	n/a	1	0.422607421875	0.5869140625	0	upper	amplitud.ttf
502.718	n/a	WORD	251359	wordpools/wasnorm_wordpool_less_exclusions.txt	LTP291	ltpFR	2	1	0	EDITOR	516	n/a	n/a	1	0.422607421875	0.5869140625	0	upper	amplitud.ttf
506.582	n/a	WORD	253291	wordpools/wasnorm_wordpool_less_exclusions.txt	LTP291	ltpFR	2	1	1	CAT	257	n/a	n/a	1	0.57763671875	0.412841796875	1	lower	zerothre.ttf
510.448	n/a	WORD	255224	wordpools/wasnorm_wordpool_less_exclusions.txt	LTP291	ltpFR	2	1	1	PACKAGE	997	n/a	n/a	0	0.57763671875	0.412841796875	1	lower	zerothre.ttf
514.294	n/a	WORD	257147	wordpools/wasnorm_wordpool_less_exclusions.txt	LTP291	ltpFR	2	1	0	LEAF	808	n/a	n/a	0	0.422607421875	0.5869140625	0	upper	amplitud.ttf
518.478	n/a	WORD	259239	wordpools/wasnorm_wordpool_less_exclusions.txt	LTP291	ltpFR	2	1	0	BUFFALO	186	n/a	n/a	1	0.422607421875	0.5869140625	0	upper	amplitud.ttf
522.442	n/a	WORD	261221	wordpools/wasnorm_wordpool_less_exclusions.txt	LTP291	ltpFR	2	1	0	ROBE	1198	n/a	n/a	0	0.422607421875	0.5869140625	0	upper	amplitud.ttf
526.388	n/a	WORD	263194	wordpools/wasnorm_wordpool_less_exclusions.txt	LTP291	ltpFR	2	1	0	SCARF	1246	n/a	n/a	0	0.422607421875	0.5869140625	0	upper	amplitud.ttf
530.39	n/a	WORD	265195	wordpools/wasnorm_wordpool_less_exclusions.txt	LTP291	ltpFR	2	1	1	PALM	1007	n/a	n/a	0	0.57763671875	0.412841796875	1	lower	zerothre.ttf
534.406	n/a	WORD	267203	wordpools/wasnorm_wordpool_less_exclusions.txt	LTP291	ltpFR	2	1	1	EDITORIAL	517	n/a	n/a	0	0.57763671875	0.412841796875	1	lower	zerothre.ttf
538.536	n/a	WORD	269268	wordpools/wasnorm_wordpool_less_exclusions.txt	LTP291	ltpFR	2	1	1	CAB	209	n/a	n/a	0	0.57763671875	0.412841796875	1	lower	zerothre.ttf
542.586	n/a	WORD	271293	wordpools/wasnorm_wordpool_less_exclusions.txt	LTP291	ltpFR	2	1	1	DRIVEWAY	500	n/a	n/a	0	0.57763671875	0.412841796875	1	lower	zerothre.ttf
548.644	n/a	REC_START	274322	n/a	LTP291	ltpFR	2	1	n/a	n/a	n/a	n/a	n/a	n/a	n/a	n/a	n/a	n/a	n/a
550.578	n/a	REC_WORD	275289	wordpools/wasnorm_wordpool_less_exclusions.txt	LTP291	ltpFR	2	1	n/a	CAR	241	n/a	n/a	n/a	n/a	n/a	n/a	n/a	n/a
551.684	n/a	REC_WORD	275842	wordpools/wasnorm_wordpool_less_exclusions.txt	LTP291	ltpFR	2	1	1	DRIVEWAY	500	n/a	n/a	0	n/a	n/a	n/a	n/a	n/a
553.066	n/a	REC_WORD	276533	wordpools/wasnorm_wordpool_less_exclusions.txt	LTP291	ltpFR	2	1	0	GRASSHOPPER	656	n/a	n/a	0	n/a	n/a	n/a	n/a	n/a
554.632	n/a	REC_WORD	277316	wordpools/wasnorm_wordpool_less_exclusions.txt	LTP291	ltpFR	2	1	0	LEAF	808	n/a	n/a	0	n/a	n/a	n/a	n/a	n/a
555.906	n/a	REC_WORD	277953	wordpools/wasnorm_wordpool_less_exclusions.txt	LTP291	ltpFR	2	1	0	SCARF	1246	n/a	n/a	0	n/a	n/a	n/a	n/a	n/a
563.112	n/a	REC_WORD	281556	wordpools/wasnorm_wordpool_less_exclusions.txt	LTP291	ltpFR	2	1	1	EDITORIAL	517	n/a	n/a	0	n/a	n/a	n/a	n/a	n/a
569.238	n/a	REC_WORD	284619	wordpools/wasnorm_wordpool_less_exclusions.txt	LTP291	ltpFR	2	1	0	PICNIC	1060	n/a	n/a	1	n/a	n/a	n/a	n/a	n/a
626.39	n/a	WORD	313195	wordpools/wasnorm_wordpool_less_exclusions.txt	LTP291	ltpFR	2	2	0	BRACELET	163	n/a	n/a	2	0.422607421875	0.5869140625	0	upper	amplitud.ttf
627.528	n/a	KEY_MSG	313764	n/a	LTP291	ltpFR	2	2	n/a	n/a	n/a	n/a	n/a	n/a	n/a	n/a	n/a	n/a	n/a
630.456	n/a	WORD	315228	wordpools/wasnorm_wordpool_less_exclusions.txt	LTP291	ltpFR	2	2	0	DUNGEON	507	n/a	n/a	1	0.422607421875	0.5869140625	0	upper	amplitud.ttf
634.37	n/a	WORD	317185	wordpools/wasnorm_wordpool_less_exclusions.txt	LTP291	ltpFR	2	2	0	FUGITIVE	612	n/a	n/a	1	0.422607421875	0.5869140625	0	upper	amplitud.ttf
638.25	n/a	WORD	319125	wordpools/wasnorm_wordpool_less_exclusions.txt	LTP291	ltpFR	2	2	0	BEAVER	109	n/a	n/a	1	0.422607421875	0.5869140625	0	upper	amplitud.ttf
642.132	n/a	WORD	321066	wordpools/wasnorm_wordpool_less_exclusions.txt	LTP291	ltpFR	2	2	1	TROUSERS	1510	n/a	n/a	0	0.57763671875	0.412841796875	1	lower	zerothre.ttf
645.966	n/a	WORD	322983	wordpools/wasnorm_wordpool_less_exclusions.txt	LTP291	ltpFR	2	2	1	SCOUT	1252	n/a	n/a	0	0.57763671875	0.412841796875	1	lower	zerothre.ttf
650.08	n/a	WORD	325040	wordpools/wasnorm_wordpool_less_exclusions.txt	LTP291	ltpFR	2	2	1	DUST	508	n/a	n/a	0	0.57763671875	0.412841796875	1	lower	zerothre.ttf
653.978	n/a	WORD	326989	wordpools/wasnorm_wordpool_less_exclusions.txt	LTP291	ltpFR	2	2	1	DRYER	503	n/a	n/a	0	0.57763671875	0.412841796875	1	lower	zerothre.ttf
657.926	n/a	WORD	328963	wordpools/wasnorm_wordpool_less_exclusions.txt	LTP291	ltpFR	2	2	0	BAKER	71	n/a	n/a	1	0.422607421875	0.5869140625	0	upper	amplitud.ttf
661.792	n/a	WORD	330896	wordpools/wasnorm_wordpool_less_exclusions.txt	LTP291	ltpFR	2	2	0	PASTRY	1022	n/a	n/a	1	0.422607421875	0.5869140625	0	upper	amplitud.ttf
665.724	n/a	WORD	332862	wordpools/wasnorm_wordpool_less_exclusions.txt	LTP291	ltpFR	2	2	0	JELLO	754	n/a	n/a	0	0.422607421875	0.5869140625	0	upper	amplitud.ttf
669.79	n/a	WORD	334895	wordpools/wasnorm_wordpool_less_exclusions.txt	LTP291	ltpFR	2	2	0	NECK	939	n/a	n/a	0	0.422607421875	0.5869140625	0	upper	amplitud.ttf
673.754	n/a	WORD	336877	wordpools/wasnorm_wordpool_less_exclusions.txt	LTP291	ltpFR	2	2	1	ZIPPER	1636	n/a	n/a	0	0.57763671875	0.412841796875	1	lower	zerothre.ttf
677.686	n/a	WORD	338843	wordpools/wasnorm_wordpool_less_exclusions.txt	LTP291	ltpFR	2	2	1	CROCODILE	411	n/a	n/a	0	0.57763671875	0.412841796875	1	lower	zerothre.ttf
681.752	n/a	WORD	340876	wordpools/wasnorm_wordpool_less_exclusions.txt	LTP291	ltpFR	2	2	1	CRAYON	401	n/a	n/a	0	0.57763671875	0.412841796875	1	lower	zerothre.ttf
685.902	n/a	WORD	342951	wordpools/wasnorm_wordpool_less_exclusions.txt	LTP291	ltpFR	2	2	1	NEPHEW	942	n/a	n/a	1	0.57763671875	0.412841796875	1	lower	zerothre.ttf
691.74	n/a	REC_START	345870	n/a	LTP291	ltpFR	2	2	n/a	n/a	n/a	n/a	n/a	n/a	n/a	n/a	n/a	n/a	n/a
693.24	n/a	REC_WORD	346620	wordpools/wasnorm_wordpool_less_exclusions.txt	LTP291	ltpFR	2	2	1	CRAYON	401	n/a	n/a	0	n/a	n/a	n/a	n/a	n/a
694.352	n/a	REC_WORD	347176	wordpools/wasnorm_wordpool_less_exclusions.txt	LTP291	ltpFR	2	2	1	NEPHEW	942	n/a	n/a	1	n/a	n/a	n/a	n/a	n/a
696.086	n/a	REC_WORD	348043	wordpools/wasnorm_wordpool_less_exclusions.txt	LTP291	ltpFR	2	2	1	CROCODILE	411	n/a	n/a	0	n/a	n/a	n/a	n/a	n/a
729.75	n/a	REC_WORD	364875	wordpools/wasnorm_wordpool_less_exclusions.txt	LTP291	ltpFR	2	2	1	DUST	508	n/a	n/a	0	n/a	n/a	n/a	n/a	n/a
769.168	n/a	WORD	384584	wordpools/wasnorm_wordpool_less_exclusions.txt	LTP291	ltpFR	2	3	0	STALLION	1369	n/a	n/a	1	0.422607421875	0.5869140625	0	upper	amplitud.ttf
773.034	n/a	WORD	386517	wordpools/wasnorm_wordpool_less_exclusions.txt	LTP291	ltpFR	2	3	0	ANIMAL	23	n/a	n/a	1	0.422607421875	0.5869140625	0	upper	amplitud.ttf
776.982	n/a	WORD	388491	wordpools/wasnorm_wordpool_less_exclusions.txt	LTP291	ltpFR	2	3	0	CHAMPAGNE	278	n/a	n/a	0	0.422607421875	0.5869140625	0	upper	amplitud.ttf
780.828	n/a	WORD	390414	wordpools/wasnorm_wordpool_less_exclusions.txt	LTP291	ltpFR	2	3	1	VIOLA	1570	n/a	n/a	0	0.57763671875	0.412841796875	1	lower	zerothre.ttf
784.88	n/a	WORD	392440	wordpools/wasnorm_wordpool_less_exclusions.txt	LTP291	ltpFR	2	3	1	MEAT	883	n/a	n/a	0	0.57763671875	0.412841796875	1	lower	zerothre.ttf
788.71	n/a	WORD	394355	wordpools/wasnorm_wordpool_less_exclusions.txt	LTP291	ltpFR	2	3	0	STABLE	1363	n/a	n/a	1	0.422607421875	0.5869140625	0	upper	amplitud.ttf
792.86	n/a	WORD	396430	wordpools/wasnorm_wordpool_less_exclusions.txt	LTP291	ltpFR	2	3	0	UNICORN	1538	n/a	n/a	1	0.422607421875	0.5869140625	0	upper	amplitud.ttf
797.01	n/a	WORD	398505	wordpools/wasnorm_wordpool_less_exclusions.txt	LTP291	ltpFR	2	3	1	DIARY	460	n/a	n/a	0	0.57763671875	0.412841796875	1	lower	zerothre.ttf
801.158	n/a	WORD	400579	wordpools/wasnorm_wordpool_less_exclusions.txt	LTP291	ltpFR	2	3	1	MAGAZINE	853	n/a	n/a	0	0.57763671875	0.412841796875	1	lower	zerothre.ttf
805.256	n/a	WORD	402628	wordpools/wasnorm_wordpool_less_exclusions.txt	LTP291	ltpFR	2	3	1	CLIFF	322	n/a	n/a	0	0.57763671875	0.412841796875	1	lower	zerothre.ttf
809.388	n/a	WORD	404694	wordpools/wasnorm_wordpool_less_exclusions.txt	LTP291	ltpFR	2	3	1	BUTTERFLY	206	n/a	n/a	1	0.57763671875	0.412841796875	1	lower	zerothre.ttf
813.606	n/a	WORD	406803	wordpools/wasnorm_wordpool_less_exclusions.txt	LTP291	ltpFR	2	3	1	BLUEJAY	141	n/a	n/a	1	0.57763671875	0.412841796875	1	lower	zerothre.ttf
817.504	n/a	WORD	408752	wordpools/wasnorm_wordpool_less_exclusions.txt	LTP291	ltpFR	2	3	1	BALCONY	72	n/a	n/a	0	0.57763671875	0.412841796875	1	lower	zerothre.ttf
821.552	n/a	WORD	410776	wordpools/wasnorm_wordpool_less_exclusions.txt	LTP291	ltpFR	2	3	0	OATS	968	n/a	n/a	0	0.422607421875	0.5869140625	0	upper	amplitud.ttf
825.668	n/a	WORD	412834	wordpools/wasnorm_wordpool_less_exclusions.txt	LTP291	ltpFR	2	3	0	PENGUIN	1044	n/a	n/a	1	0.422607421875	0.5869140625	0	upper	amplitud.ttf
829.5	n/a	WORD	414750	wordpools/wasnorm_wordpool_less_exclusions.txt	LTP291	ltpFR	2	3	0	PORK	1108	n/a	n/a	1	0.422607421875	0.5869140625	0	upper	amplitud.ttf
835.574	n/a	REC_START	417787	n/a	LTP291	ltpFR	2	3	n/a	n/a	n/a	n/a	n/a	n/a	n/a	n/a	n/a	n/a	n/a
836.378	n/a	REC_WORD	418189	wordpools/wasnorm_wordpool_less_exclusions.txt	LTP291	ltpFR	2	3	0	OATS	968	n/a	n/a	0	n/a	n/a	n/a	n/a	n/a
837.352	n/a	REC_WORD	418676	wordpools/wasnorm_wordpool_less_exclusions.txt	LTP291	ltpFR	2	3	0	PENGUIN	1044	n/a	n/a	1	n/a	n/a	n/a	n/a	n/a
839.292	n/a	REC_WORD	419646	wordpools/wasnorm_wordpool_less_exclusions.txt	LTP291	ltpFR	2	3	0	PORK	1108	n/a	n/a	1	n/a	n/a	n/a	n/a	n/a
863.83	n/a	REC_WORD	431915	wordpools/wasnorm_wordpool_less_exclusions.txt	LTP291	ltpFR	2	3	0	UNICORN	1538	n/a	n/a	1	n/a	n/a	n/a	n/a	n/a
865.55	n/a	REC_WORD	432775	wordpools/wasnorm_wordpool_less_exclusions.txt	LTP291	ltpFR	2	3	0	STABLE	1363	n/a	n/a	1	n/a	n/a	n/a	n/a	n/a
869.396	n/a	REC_WORD	434698	wordpools/wasnorm_wordpool_less_exclusions.txt	LTP291	ltpFR	2	3	0	ANIMAL	23	n/a	n/a	1	n/a	n/a	n/a	n/a	n/a
913.152	n/a	WORD	456576	wordpools/wasnorm_wordpool_less_exclusions.txt	LTP291	ltpFR	2	4	-1	WINGS	1614	n/a	n/a	-1	1.0	1.0	1	upper	Verdana.ttf
917.284	n/a	WORD	458642	wordpools/wasnorm_wordpool_less_exclusions.txt	LTP291	ltpFR	2	4	-1	BIRD	129	n/a	n/a	-1	1.0	1.0	1	upper	Verdana.ttf
921.264	n/a	WORD	460632	wordpools/wasnorm_wordpool_less_exclusions.txt	LTP291	ltpFR	2	4	-1	TREAT	1501	n/a	n/a	-1	1.0	1.0	1	upper	Verdana.ttf
925.148	n/a	WORD	462574	wordpools/wasnorm_wordpool_less_exclusions.txt	LTP291	ltpFR	2	4	-1	LITERATURE	831	n/a	n/a	-1	1.0	1.0	1	upper	Verdana.ttf
929.164	n/a	WORD	464582	wordpools/wasnorm_wordpool_less_exclusions.txt	LTP291	ltpFR	2	4	-1	SHOELACE	1289	n/a	n/a	-1	1.0	1.0	1	upper	Verdana.ttf
933.262	n/a	WORD	466631	wordpools/wasnorm_wordpool_less_exclusions.txt	LTP291	ltpFR	2	4	-1	YARD	1630	n/a	n/a	-1	1.0	1.0	1	upper	Verdana.ttf
937.158	n/a	WORD	468579	wordpools/wasnorm_wordpool_less_exclusions.txt	LTP291	ltpFR	2	4	-1	VETERAN	1561	n/a	n/a	-1	1.0	1.0	1	upper	Verdana.ttf
941.142	n/a	WORD	470571	wordpools/wasnorm_wordpool_less_exclusions.txt	LTP291	ltpFR	2	4	-1	LIBRARY	816	n/a	n/a	-1	1.0	1.0	1	upper	Verdana.ttf
945.292	n/a	WORD	472646	wordpools/wasnorm_wordpool_less_exclusions.txt	LTP291	ltpFR	2	4	-1	ARCHITECT	36	n/a	n/a	-1	1.0	1.0	1	upper	Verdana.ttf
949.206	n/a	WORD	474603	wordpools/wasnorm_wordpool_less_exclusions.txt	LTP291	ltpFR	2	4	-1	BLUEPRINT	142	n/a	n/a	-1	1.0	1.0	1	upper	Verdana.ttf
953.254	n/a	WORD	476627	wordpools/wasnorm_wordpool_less_exclusions.txt	LTP291	ltpFR	2	4	-1	SIREN	1310	n/a	n/a	-1	1.0	1.0	1	upper	Verdana.ttf
957.438	n/a	WORD	478719	wordpools/wasnorm_wordpool_less_exclusions.txt	LTP291	ltpFR	2	4	-1	DONKEY	484	n/a	n/a	-1	1.0	1.0	1	upper	Verdana.ttf
961.3	n/a	WORD	480650	wordpools/wasnorm_wordpool_less_exclusions.txt	LTP291	ltpFR	2	4	-1	BALLOT	76	n/a	n/a	-1	1.0	1.0	1	upper	Verdana.ttf
965.436	n/a	WORD	482718	wordpools/wasnorm_wordpool_less_exclusions.txt	LTP291	ltpFR	2	4	-1	PLIERS	1089	n/a	n/a	-1	1.0	1.0	1	upper	Verdana.ttf
969.434	n/a	WORD	484717	wordpools/wasnorm_wordpool_less_exclusions.txt	LTP291	ltpFR	2	4	-1	WARRIOR	1589	n/a	n/a	-1	1.0	1.0	1	upper	Verdana.ttf
973.364	n/a	WORD	486682	wordpools/wasnorm_wordpool_less_exclusions.txt	LTP291	ltpFR	2	4	-1	CONSOLE	364	n/a	n/a	-1	1.0	1.0	1	upper	Verdana.ttf
979.322	n/a	REC_START	489661	n/a	LTP291	ltpFR	2	4	n/a	n/a	n/a	n/a	n/a	n/a	n/a	n/a	n/a	n/a	n/a
981.226	n/a	REC_WORD	490613	wordpools/wasnorm_wordpool_less_exclusions.txt	LTP291	ltpFR	2	4	-1	SIREN	1310	n/a	n/a	-1	n/a	n/a	n/a	n/a	n/a
982.448	n/a	REC_WORD	491224	wordpools/wasnorm_wordpool_less_exclusions.txt	LTP291	ltpFR	2	4	-1	DONKEY	484	n/a	n/a	-1	n/a	n/a	n/a	n/a	n/a
984.324	n/a	REC_WORD	492162	wordpools/wasnorm_wordpool_less_exclusions.txt	LTP291	ltpFR	2	4	-1	PLIERS	1089	n/a	n/a	-1	n/a	n/a	n/a	n/a	n/a
985.948	n/a	REC_WORD	492974	wordpools/wasnorm_wordpool_less_exclusions.txt	LTP291	ltpFR	2	4	-1	CONSOLE	364	n/a	n/a	-1	n/a	n/a	n/a	n/a	n/a
987.812	n/a	REC_WORD	493906	wordpools/wasnorm_wordpool_less_exclusions.txt	LTP291	ltpFR	2	4	-1	WINGS	1614	n/a	n/a	-1	n/a	n/a	n/a	n/a	n/a
990.034	n/a	REC_WORD	495017	wordpools/wasnorm_wordpool_less_exclusions.txt	LTP291	ltpFR	2	4	-1	BIRD	129	n/a	n/a	-1	n/a	n/a	n/a	n/a	n/a
991.888	n/a	REC_WORD	495944	wordpools/wasnorm_wordpool_less_exclusions.txt	LTP291	ltpFR	2	4	-1	TREAT	1501	n/a	n/a	-1	n/a	n/a	n/a	n/a	n/a
995.468	n/a	REC_WORD	497734	wordpools/wasnorm_wordpool_less_exclusions.txt	LTP291	ltpFR	2	4	-1	LIBRARY	816	n/a	n/a	-1	n/a	n/a	n/a	n/a	n/a
997.502	n/a	REC_WORD	498751	wordpools/wasnorm_wordpool_less_exclusions.txt	LTP291	ltpFR	2	4	-1	YARD	1630	n/a	n/a	-1	n/a	n/a	n/a	n/a	n/a
999.276	n/a	REC_WORD	499638	wordpools/wasnorm_wordpool_less_exclusions.txt	LTP291	ltpFR	2	4	-1	VETERAN	1561	n/a	n/a	-1	n/a	n/a	n/a	n/a	n/a
1001.2	n/a	REC_WORD	500600	wordpools/wasnorm_wordpool_less_exclusions.txt	LTP291	ltpFR	2	4	-1	ARCHITECT	36	n/a	n/a	-1	n/a	n/a	n/a	n/a	n/a
1005.332	n/a	REC_WORD	502666	wordpools/wasnorm_wordpool_less_exclusions.txt	LTP291	ltpFR	2	4	-1	LITERATURE	831	n/a	n/a	-1	n/a	n/a	n/a	n/a	n/a
1011.392	n/a	REC_WORD	505696	wordpools/wasnorm_wordpool_less_exclusions.txt	LTP291	ltpFR	2	4	-1	SHOELACE	1289	n/a	n/a	-1	n/a	n/a	n/a	n/a	n/a
1059.814	n/a	WORD	529907	wordpools/wasnorm_wordpool_less_exclusions.txt	LTP291	ltpFR	2	5	0	OLIVE	975	n/a	n/a	0	0.422607421875	0.5869140625	0	upper	amplitud.ttf
1063.812	n/a	WORD	531906	wordpools/wasnorm_wordpool_less_exclusions.txt	LTP291	ltpFR	2	5	0	SIGNATURE	1306	n/a	n/a	0	0.422607421875	0.5869140625	0	upper	amplitud.ttf
1067.86	n/a	WORD	533930	wordpools/wasnorm_wordpool_less_exclusions.txt	LTP291	ltpFR	2	5	0	SERPENT	1270	n/a	n/a	1	0.422607421875	0.5869140625	0	upper	amplitud.ttf
1071.758	n/a	WORD	535879	wordpools/wasnorm_wordpool_less_exclusions.txt	LTP291	ltpFR	2	5	0	DIVER	476	n/a	n/a	1	0.422607421875	0.5869140625	0	upper	amplitud.ttf
1075.74	n/a	WORD	537870	wordpools/wasnorm_wordpool_less_exclusions.txt	LTP291	ltpFR	2	5	0	SWIMMER	1420	n/a	n/a	1	0.422607421875	0.5869140625	0	upper	amplitud.ttf
1079.722	n/a	WORD	539861	wordpools/wasnorm_wordpool_less_exclusions.txt	LTP291	ltpFR	2	5	0	SIGN	1305	n/a	n/a	0	0.422607421875	0.5869140625	0	upper	amplitud.ttf
1083.838	n/a	WORD	541919	wordpools/wasnorm_wordpool_less_exclusions.txt	LTP291	ltpFR	2	5	0	MONGOOSE	909	n/a	n/a	1	0.422607421875	0.5869140625	0	upper	amplitud.ttf
1087.736	n/a	WORD	543868	wordpools/wasnorm_wordpool_less_exclusions.txt	LTP291	ltpFR	2	5	0	CHARCOAL	281	n/a	n/a	0	0.422607421875	0.5869140625	0	upper	amplitud.ttf
1091.568	n/a	WORD	545784	wordpools/wasnorm_wordpool_less_exclusions.txt	LTP291	ltpFR	2	5	0	PASSAGE	1019	n/a	n/a	1	0.422607421875	0.5869140625	0	upper	amplitud.ttf
1095.65	n/a	WORD	547825	wordpools/wasnorm_wordpool_less_exclusions.txt	LTP291	ltpFR	2	5	0	KNOB	787	n/a	n/a	0	0.422607421875	0.5869140625	0	upper	amplitud.ttf
1099.834	n/a	WORD	549917	wordpools/wasnorm_wordpool_less_exclusions.txt	LTP291	ltpFR	2	5	0	DRILL	497	n/a	n/a	0	0.422607421875	0.5869140625	0	upper	amplitud.ttf
1103.832	n/a	WORD	551916	wordpools/wasnorm_wordpool_less_exclusions.txt	LTP291	ltpFR	2	5	0	BRICK	172	n/a	n/a	1	0.422607421875	0.5869140625	0	upper	amplitud.ttf
1108.03	n/a	WORD	554015	wordpools/wasnorm_wordpool_less_exclusions.txt	LTP291	ltpFR	2	5	0	COMMUNITY	356	n/a	n/a	1	0.422607421875	0.5869140625	0	upper	amplitud.ttf
1112.246	n/a	WORD	556123	wordpools/wasnorm_wordpool_less_exclusions.txt	LTP291	ltpFR	2	5	0	REGISTER	1180	n/a	n/a	1	0.422607421875	0.5869140625	0	upper	amplitud.ttf
1116.296	n/a	WORD	558148	wordpools/wasnorm_wordpool_less_exclusions.txt	LTP291	ltpFR	2	5	0	SARDINE	1235	n/a	n/a	0	0.422607421875	0.5869140625	0	upper	amplitud.ttf
1120.294	n/a	WORD	560147	wordpools/wasnorm_wordpool_less_exclusions.txt	LTP291	ltpFR	2	5	0	TRAY	1498	n/a	n/a	0	0.422607421875	0.5869140625	0	upper	amplitud.ttf
1126.066	n/a	REC_START	563033	n/a	LTP291	ltpFR	2	5	n/a	n/a	n/a	n/a	n/a	n/a	n/a	n/a	n/a	n/a	n/a
1127.192	n/a	REC_WORD	563596	wordpools/wasnorm_wordpool_less_exclusions.txt	LTP291	ltpFR	2	5	0	TRAY	1498	n/a	n/a	0	n/a	n/a	n/a	n/a	n/a
1128.244	n/a	REC_WORD	564122	wordpools/wasnorm_wordpool_less_exclusions.txt	LTP291	ltpFR	2	5	0	REGISTER	1180	n/a	n/a	1	n/a	n/a	n/a	n/a	n/a
1129.802	n/a	REC_WORD	564901	wordpools/wasnorm_wordpool_less_exclusions.txt	LTP291	ltpFR	2	5	0	SARDINE	1235	n/a	n/a	0	n/a	n/a	n/a	n/a	n/a
1136.726	n/a	REC_WORD	568363	wordpools/wasnorm_wordpool_less_exclusions.txt	LTP291	ltpFR	2	5	0	MONGOOSE	909	n/a	n/a	1	n/a	n/a	n/a	n/a	n/a
1145.482	n/a	REC_WORD	572741	wordpools/wasnorm_wordpool_less_exclusions.txt	LTP291	ltpFR	2	5	0	SIGN	1305	n/a	n/a	0	n/a	n/a	n/a	n/a	n/a
1204.5	n/a	WORD	602250	wordpools/wasnorm_wordpool_less_exclusions.txt	LTP291	ltpFR	2	6	1	BROCCOLI	176	n/a	n/a	0	0.57763671875	0.412841796875	1	lower	zerothre.ttf
1208.698	n/a	WORD	604349	wordpools/wasnorm_wordpool_less_exclusions.txt	LTP291	ltpFR	2	6	1	VIOLIN	1571	n/a	n/a	0	0.57763671875	0.412841796875	1	lower	zerothre.ttf
1212.898	n/a	WORD	606449	wordpools/wasnorm_wordpool_less_exclusions.txt	LTP291	ltpFR	2	6	1	PEDESTRIAN	1038	n/a	n/a	1	0.57763671875	0.412841796875	1	lower	zerothre.ttf
1216.764	n/a	WORD	608382	wordpools/wasnorm_wordpool_less_exclusions.txt	LTP291	ltpFR	2	6	1	AUTHOR	61	n/a	n/a	1	0.57763671875	0.412841796875	1	lower	zerothre.ttf
1220.912	n/a	WORD	610456	wordpools/wasnorm_wordpool_less_exclusions.txt	LTP291	ltpFR	2	6	1	ENCYCLOPEDIA	533	n/a	n/a	0	0.57763671875	0.412841796875	1	lower	zerothre.ttf
1225.028	n/a	WORD	612514	wordpools/wasnorm_wordpool_less_exclusions.txt	LTP291	ltpFR	2	6	1	TANGERINE	1431	n/a	n/a	1	0.57763671875	0.412841796875	1	lower	zerothre.ttf
1229.144	n/a	WORD	614572	wordpools/wasnorm_wordpool_less_exclusions.txt	LTP291	ltpFR	2	6	1	ISLAND	745	n/a	n/a	0	0.57763671875	0.412841796875	1	lower	zerothre.ttf
1233.174	n/a	WORD	616587	wordpools/wasnorm_wordpool_less_exclusions.txt	LTP291	ltpFR	2	6	1	CUBE	420	n/a	n/a	0	0.57763671875	0.412841796875	1	lower	zerothre.ttf
1237.156	n/a	WORD	618578	wordpools/wasnorm_wordpool_less_exclusions.txt	LTP291	ltpFR	2	6	1	CAMEL	223	n/a	n/a	1	0.57763671875	0.412841796875	1	lower	zerothre.ttf
1241.206	n/a	WORD	620603	wordpools/wasnorm_wordpool_less_exclusions.txt	LTP291	ltpFR	2	6	1	PRAIRIE	1118	n/a	n/a	0	0.57763671875	0.412841796875	1	lower	zerothre.ttf
1245.354	n/a	WORD	622677	wordpools/wasnorm_wordpool_less_exclusions.txt	LTP291	ltpFR	2	6	1	HOUSE	725	n/a	n/a	0	0.57763671875	0.412841796875	1	lower	zerothre.ttf
1249.556	n/a	WORD	624778	wordpools/wasnorm_wordpool_less_exclusions.txt	LTP291	ltpFR	2	6	1	COLESLAW	344	n/a	n/a	0	0.57763671875	0.412841796875	1	lower	zerothre.ttf
1253.504	n/a	WORD	626752	wordpools/wasnorm_wordpool_less_exclusions.txt	LTP291	ltpFR	2	6	1	ASHTRAY	45	n/a	n/a	0	0.57763671875	0.412841796875	1	lower	zerothre.ttf
1257.468	n/a	WORD	628734	wordpools/wasnorm_wordpool_less_exclusions.txt	LTP291	ltpFR	2	6	1	RUNNER	1218	n/a	n/a	1	0.57763671875	0.412841796875	1	lower	zerothre.ttf
1261.398	n/a	WORD	630699	wordpools/wasnorm_wordpool_less_exclusions.txt	LTP291	ltpFR	2	6	1	GIRAFFE	636	n/a	n/a	1	0.57763671875	0.412841796875	1	lower	zerothre.ttf
1265.364	n/a	WORD	632682	wordpools/wasnorm_wordpool_less_exclusions.txt	LTP291	ltpFR	2	6	1	COLLAR	345	n/a	n/a	0	0.57763671875	0.412841796875	1	lower	zerothre.ttf
1271.004	n/a	REC_START	635502	n/a	LTP291	ltpFR	2	6	n/a	n/a	n/a	n/a	n/a	n/a	n/a	n/a	n/a	n/a	n/a
1272.548	n/a	REC_WORD	636274	wordpools/wasnorm_wordpool_less_exclusions.txt	LTP291	ltpFR	2	6	1	GIRAFFE	636	n/a	n/a	1	n/a	n/a	n/a	n/a	n/a
1274.45	n/a	REC_WORD	637225	wordpools/wasnorm_wordpool_less_exclusions.txt	LTP291	ltpFR	2	6	1	COLLAR	345	n/a	n/a	0	n/a	n/a	n/a	n/a	n/a
1284.83	n/a	REC_WORD	642415	wordpools/wasnorm_wordpool_less_exclusions.txt	LTP291	ltpFR	2	6	1	PEDESTRIAN	1038	n/a	n/a	1	n/a	n/a	n/a	n/a	n/a
1349.856	n/a	WORD	674928	wordpools/wasnorm_wordpool_less_exclusions.txt	LTP291	ltpFR	2	7	1	CREATURE	403	n/a	n/a	1	0.57763671875	0.412841796875	1	lower	zerothre.ttf
1353.886	n/a	WORD	676943	wordpools/wasnorm_wordpool_less_exclusions.txt	LTP291	ltpFR	2	7	1	SKI	1316	n/a	n/a	0	0.57763671875	0.412841796875	1	lower	zerothre.ttf
1358.068	n/a	WORD	679034	wordpools/wasnorm_wordpool_less_exclusions.txt	LTP291	ltpFR	2	7	1	CABOOSE	214	n/a	n/a	0	0.57763671875	0.412841796875	1	lower	zerothre.ttf
1362.184	n/a	WORD	681092	wordpools/wasnorm_wordpool_less_exclusions.txt	LTP291	ltpFR	2	7	1	JOKER	759	n/a	n/a	1	0.57763671875	0.412841796875	1	lower	zerothre.ttf
1366.234	n/a	WORD	683117	wordpools/wasnorm_wordpool_less_exclusions.txt	LTP291	ltpFR	2	7	1	BUREAU	199	n/a	n/a	0	0.57763671875	0.412841796875	1	lower	zerothre.ttf
1370.082	n/a	WORD	685041	wordpools/wasnorm_wordpool_less_exclusions.txt	LTP291	ltpFR	2	7	1	SEAL	1262	n/a	n/a	0	0.57763671875	0.412841796875	1	lower	zerothre.ttf
1374.164	n/a	WORD	687082	wordpools/wasnorm_wordpool_less_exclusions.txt	LTP291	ltpFR	2	7	1	HAIL	676	n/a	n/a	0	0.57763671875	0.412841796875	1	lower	zerothre.ttf
1378.328	n/a	WORD	689164	wordpools/wasnorm_wordpool_less_exclusions.txt	LTP291	ltpFR	2	7	1	MINER	896	n/a	n/a	1	0.57763671875	0.412841796875	1	lower	zerothre.ttf
1382.514	n/a	WORD	691257	wordpools/wasnorm_wordpool_less_exclusions.txt	LTP291	ltpFR	2	7	1	DRAWER	493	n/a	n/a	0	0.57763671875	0.412841796875	1	lower	zerothre.ttf
1386.394	n/a	WORD	693197	wordpools/wasnorm_wordpool_less_exclusions.txt	LTP291	ltpFR	2	7	1	DAM	436	n/a	n/a	0	0.57763671875	0.412841796875	1	lower	zerothre.ttf
1390.578	n/a	WORD	695289	wordpools/wasnorm_wordpool_less_exclusions.txt	LTP291	ltpFR	2	7	1	POND	1101	n/a	n/a	0	0.57763671875	0.412841796875	1	lower	zerothre.ttf
1394.542	n/a	WORD	697271	wordpools/wasnorm_wordpool_less_exclusions.txt	LTP291	ltpFR	2	7	1	BUTTER	205	n/a	n/a	0	0.57763671875	0.412841796875	1	lower	zerothre.ttf
1398.44	n/a	WORD	699220	wordpools/wasnorm_wordpool_less_exclusions.txt	LTP291	ltpFR	2	7	1	SEA	1259	n/a	n/a	0	0.57763671875	0.412841796875	1	lower	zerothre.ttf
1402.32	n/a	WORD	701160	wordpools/wasnorm_wordpool_less_exclusions.txt	LTP291	ltpFR	2	7	1	PIER	1063	n/a	n/a	0	0.57763671875	0.412841796875	1	lower	zerothre.ttf
1406.202	n/a	WORD	703101	wordpools/wasnorm_wordpool_less_exclusions.txt	LTP291	ltpFR	2	7	1	TERMITE	1451	n/a	n/a	1	0.57763671875	0.412841796875	1	lower	zerothre.ttf
1410.386	n/a	WORD	705193	wordpools/wasnorm_wordpool_less_exclusions.txt	LTP291	ltpFR	2	7	1	BUG	187	n/a	n/a	1	0.57763671875	0.412841796875	1	lower	zerothre.ttf
1416.292	n/a	REC_START	708146	n/a	LTP291	ltpFR	2	7	n/a	n/a	n/a	n/a	n/a	n/a	n/a	n/a	n/a	n/a	n/a
1417.496	n/a	REC_WORD	708748	wordpools/wasnorm_wordpool_less_exclusions.txt	LTP291	ltpFR	2	7	1	TERMITE	1451	n/a	n/a	1	n/a	n/a	n/a	n/a	n/a
1418.914	n/a	REC_WORD	709457	wordpools/wasnorm_wordpool_less_exclusions.txt	LTP291	ltpFR	2	7	1	BUG	187	n/a	n/a	1	n/a	n/a	n/a	n/a	n/a
1420.498	n/a	REC_WORD	710249	wordpools/wasnorm_wordpool_less_exclusions.txt	LTP291	ltpFR	2	7	1	PIER	1063	n/a	n/a	0	n/a	n/a	n/a	n/a	n/a
1499.192	n/a	WORD	749596	wordpools/wasnorm_wordpool_less_exclusions.txt	LTP291	ltpFR	2	8	1	ICING	732	n/a	n/a	0	0.57763671875	0.412841796875	1	lower	zerothre.ttf
1503.124	n/a	WORD	751562	wordpools/wasnorm_wordpool_less_exclusions.txt	LTP291	ltpFR	2	8	1	LADY	794	n/a	n/a	1	0.57763671875	0.412841796875	1	lower	zerothre.ttf
1507.056	n/a	WORD	753528	wordpools/wasnorm_wordpool_less_exclusions.txt	LTP291	ltpFR	2	8	1	BEARD	107	n/a	n/a	0	0.57763671875	0.412841796875	1	lower	zerothre.ttf
1511.254	n/a	WORD	755627	wordpools/wasnorm_wordpool_less_exclusions.txt	LTP291	ltpFR	2	8	1	PERCH	1048	n/a	n/a	0	0.57763671875	0.412841796875	1	lower	zerothre.ttf
1515.252	n/a	WORD	757626	wordpools/wasnorm_wordpool_less_exclusions.txt	LTP291	ltpFR	2	8	0	PRESIDENT	1121	n/a	n/a	1	0.422607421875	0.5869140625	0	upper	amplitud.ttf
1519.252	n/a	WORD	759626	wordpools/wasnorm_wordpool_less_exclusions.txt	LTP291	ltpFR	2	8	0	OZONE	996	n/a	n/a	1	0.422607421875	0.5869140625	0	upper	amplitud.ttf
1523.4	n/a	WORD	761700	wordpools/wasnorm_wordpool_less_exclusions.txt	LTP291	ltpFR	2	8	0	SNEAKER	1334	n/a	n/a	0	0.422607421875	0.5869140625	0	upper	amplitud.ttf
1527.264	n/a	WORD	763632	wordpools/wasnorm_wordpool_less_exclusions.txt	LTP291	ltpFR	2	8	1	COYOTE	396	n/a	n/a	1	0.57763671875	0.412841796875	1	lower	zerothre.ttf
1531.346	n/a	WORD	765673	wordpools/wasnorm_wordpool_less_exclusions.txt	LTP291	ltpFR	2	8	1	VET	1560	n/a	n/a	1	0.57763671875	0.412841796875	1	lower	zerothre.ttf
1535.23	n/a	WORD	767615	wordpools/wasnorm_wordpool_less_exclusions.txt	LTP291	ltpFR	2	8	0	COOKBOOK	373	n/a	n/a	0	0.422607421875	0.5869140625	0	upper	amplitud.ttf
1539.094	n/a	WORD	769547	wordpools/wasnorm_wordpool_less_exclusions.txt	LTP291	ltpFR	2	8	0	MARSH	874	n/a	n/a	1	0.422607421875	0.5869140625	0	upper	amplitud.ttf
1542.992	n/a	WORD	771496	wordpools/wasnorm_wordpool_less_exclusions.txt	LTP291	ltpFR	2	8	0	PORTRAIT	1111	n/a	n/a	1	0.422607421875	0.5869140625	0	upper	amplitud.ttf
1546.858	n/a	WORD	773429	wordpools/wasnorm_wordpool_less_exclusions.txt	LTP291	ltpFR	2	8	0	FLOOR	581	n/a	n/a	1	0.422607421875	0.5869140625	0	upper	amplitud.ttf
1550.974	n/a	WORD	775487	wordpools/wasnorm_wordpool_less_exclusions.txt	LTP291	ltpFR	2	8	0	GROUND	666	n/a	n/a	1	0.422607421875	0.5869140625	0	upper	amplitud.ttf
1555.106	n/a	WORD	777553	wordpools/wasnorm_wordpool_less_exclusions.txt	LTP291	ltpFR	2	8	1	PAINTING	1005	n/a	n/a	0	0.57763671875	0.412841796875	1	lower	zerothre.ttf
1559.088	n/a	WORD	779544	wordpools/wasnorm_wordpool_less_exclusions.txt	LTP291	ltpFR	2	8	1	FAUCET	555	n/a	n/a	0	0.57763671875	0.412841796875	1	lower	zerothre.ttf
1564.844	n/a	REC_START	782422	n/a	LTP291	ltpFR	2	8	n/a	n/a	n/a	n/a	n/a	n/a	n/a	n/a	n/a	n/a	n/a
1566.33	n/a	REC_WORD	783165	wordpools/wasnorm_wordpool_less_exclusions.txt	LTP291	ltpFR	2	8	1	FAUCET	555	n/a	n/a	0	n/a	n/a	n/a	n/a	n/a
1567.618	n/a	REC_WORD	783809	wordpools/wasnorm_wordpool_less_exclusions.txt	LTP291	ltpFR	2	8	1	PAINTING	1005	n/a	n/a	0	n/a	n/a	n/a	n/a	n/a
1568.79	n/a	REC_WORD	784395	wordpools/wasnorm_wordpool_less_exclusions.txt	LTP291	ltpFR	2	8	0	FLOOR	581	n/a	n/a	1	n/a	n/a	n/a	n/a	n/a
1570.546	n/a	REC_WORD	785273	wordpools/wasnorm_wordpool_less_exclusions.txt	LTP291	ltpFR	2	8	0	GROUND	666	n/a	n/a	1	n/a	n/a	n/a	n/a	n/a
1574.038	n/a	REC_WORD	787019	wordpools/wasnorm_wordpool_less_exclusions.txt	LTP291	ltpFR	2	8	1	COYOTE	396	n/a	n/a	1	n/a	n/a	n/a	n/a	n/a
1575.684	n/a	REC_WORD	787842	wordpools/wasnorm_wordpool_less_exclusions.txt	LTP291	ltpFR	2	8	0	SNEAKER	1334	n/a	n/a	0	n/a	n/a	n/a	n/a	n/a
1587.536	n/a	REC_WORD	793768	wordpools/wasnorm_wordpool_less_exclusions.txt	LTP291	ltpFR	2	8	0	COOKBOOK	373	n/a	n/a	0	n/a	n/a	n/a	n/a	n/a
1640.496	n/a	REST_REWET	820248	n/a	LTP291	ltpFR	2	8	n/a	n/a	n/a	n/a	n/a	n/a	n/a	n/a	n/a	n/a	n/a
2010.312	n/a	WORD	1005156	wordpools/wasnorm_wordpool_less_exclusions.txt	LTP291	ltpFR	2	9	0	WRENCH	1625	n/a	n/a	2	0.422607421875	0.5869140625	0	upper	amplitud.ttf
2011.264	n/a	KEY_MSG	1005632	n/a	LTP291	ltpFR	2	9	n/a	n/a	n/a	n/a	n/a	n/a	n/a	n/a	n/a	n/a	n/a
2014.478	n/a	WORD	1007239	wordpools/wasnorm_wordpool_less_exclusions.txt	LTP291	ltpFR	2	9	0	BLUEBERRY	140	n/a	n/a	0	0.422607421875	0.5869140625	0	upper	amplitud.ttf
2018.51	n/a	WORD	1009255	wordpools/wasnorm_wordpool_less_exclusions.txt	LTP291	ltpFR	2	9	0	PLUM	1090	n/a	n/a	0	0.422607421875	0.5869140625	0	upper	amplitud.ttf
2022.34	n/a	WORD	1011170	wordpools/wasnorm_wordpool_less_exclusions.txt	LTP291	ltpFR	2	9	1	TWEEZERS	1526	n/a	n/a	0	0.57763671875	0.412841796875	1	lower	zerothre.ttf
2026.39	n/a	WORD	1013195	wordpools/wasnorm_wordpool_less_exclusions.txt	LTP291	ltpFR	2	9	1	HAMBURGER	679	n/a	n/a	1	0.57763671875	0.412841796875	1	lower	zerothre.ttf
2030.254	n/a	WORD	1015127	wordpools/wasnorm_wordpool_less_exclusions.txt	LTP291	ltpFR	2	9	0	WAITER	1580	n/a	n/a	1	0.422607421875	0.5869140625	0	upper	amplitud.ttf
2034.386	n/a	WORD	1017193	wordpools/wasnorm_wordpool_less_exclusions.txt	LTP291	ltpFR	2	9	0	COMPUTER	359	n/a	n/a	1	0.422607421875	0.5869140625	0	upper	amplitud.ttf
2038.434	n/a	WORD	1019217	wordpools/wasnorm_wordpool_less_exclusions.txt	LTP291	ltpFR	2	9	0	WORKER	1621	n/a	n/a	1	0.422607421875	0.5869140625	0	upper	amplitud.ttf
2042.316	n/a	WORD	1021158	wordpools/wasnorm_wordpool_less_exclusions.txt	LTP291	ltpFR	2	9	0	PILOT	1070	n/a	n/a	1	0.422607421875	0.5869140625	0	upper	amplitud.ttf
2046.266	n/a	WORD	1023133	wordpools/wasnorm_wordpool_less_exclusions.txt	LTP291	ltpFR	2	9	0	RAISIN	1163	n/a	n/a	0	0.422607421875	0.5869140625	0	upper	amplitud.ttf
2050.298	n/a	WORD	1025149	wordpools/wasnorm_wordpool_less_exclusions.txt	LTP291	ltpFR	2	9	1	ORANGE	980	n/a	n/a	1	0.57763671875	0.412841796875	1	lower	zerothre.ttf
2054.162	n/a	WORD	1027081	wordpools/wasnorm_wordpool_less_exclusions.txt	LTP291	ltpFR	2	9	1	RECORD	1176	n/a	n/a	0	0.57763671875	0.412841796875	1	lower	zerothre.ttf
2058.11	n/a	WORD	1029055	wordpools/wasnorm_wordpool_less_exclusions.txt	LTP291	ltpFR	2	9	1	ROBOT	1200	n/a	n/a	0	0.57763671875	0.412841796875	1	lower	zerothre.ttf
2061.96	n/a	WORD	1030980	wordpools/wasnorm_wordpool_less_exclusions.txt	LTP291	ltpFR	2	9	1	BREAD	170	n/a	n/a	0	0.57763671875	0.412841796875	1	lower	zerothre.ttf
2066.026	n/a	WORD	1033013	wordpools/wasnorm_wordpool_less_exclusions.txt	LTP291	ltpFR	2	9	1	HOSTESS	723	n/a	n/a	1	0.57763671875	0.412841796875	1	lower	zerothre.ttf
2069.974	n/a	WORD	1034987	wordpools/wasnorm_wordpool_less_exclusions.txt	LTP291	ltpFR	2	9	1	LIZARD	834	n/a	n/a	1	0.57763671875	0.412841796875	1	lower	zerothre.ttf
2075.88	n/a	REC_START	1037940	n/a	LTP291	ltpFR	2	9	n/a	n/a	n/a	n/a	n/a	n/a	n/a	n/a	n/a	n/a	n/a
2076.342	n/a	REC_WORD	1038171	wordpools/wasnorm_wordpool_less_exclusions.txt	LTP291	ltpFR	2	9	1	HOSTESS	723	n/a	n/a	1	n/a	n/a	n/a	n/a	n/a
2077.302	n/a	REC_WORD	1038651	wordpools/wasnorm_wordpool_less_exclusions.txt	LTP291	ltpFR	2	9	1	LIZARD	834	n/a	n/a	1	n/a	n/a	n/a	n/a	n/a
2078.482	n/a	REC_WORD	1039241	wordpools/wasnorm_wordpool_less_exclusions.txt	LTP291	ltpFR	2	9	1	ROBOT	1200	n/a	n/a	0	n/a	n/a	n/a	n/a	n/a
2080.334	n/a	REC_WORD	1040167	wordpools/wasnorm_wordpool_less_exclusions.txt	LTP291	ltpFR	2	9	1	BREAD	170	n/a	n/a	0	n/a	n/a	n/a	n/a	n/a
2142.142	n/a	REC_WORD	1071071	wordpools/wasnorm_wordpool_less_exclusions.txt	LTP291	ltpFR	2	9	0	WORKER	1621	n/a	n/a	1	n/a	n/a	n/a	n/a	n/a
2146.92	n/a	REC_WORD	1073460	wordpools/wasnorm_wordpool_less_exclusions.txt	LTP291	ltpFR	2	9	0	PILOT	1070	n/a	n/a	1	n/a	n/a	n/a	n/a	n/a
2154.444	n/a	WORD	1077222	wordpools/wasnorm_wordpool_less_exclusions.txt	LTP291	ltpFR	2	10	-1	PLASTER	1085	n/a	n/a	-1	1.0	1.0	1	upper	Verdana.ttf
2158.394	n/a	WORD	1079197	wordpools/wasnorm_wordpool_less_exclusions.txt	LTP291	ltpFR	2	10	-1	STAFF	1365	n/a	n/a	-1	1.0	1.0	1	upper	Verdana.ttf
2162.56	n/a	WORD	1081280	wordpools/wasnorm_wordpool_less_exclusions.txt	LTP291	ltpFR	2	10	-1	FLAG	573	n/a	n/a	-1	1.0	1.0	1	upper	Verdana.ttf
2166.61	n/a	WORD	1083305	wordpools/wasnorm_wordpool_less_exclusions.txt	LTP291	ltpFR	2	10	-1	SALMON	1227	n/a	n/a	-1	1.0	1.0	1	upper	Verdana.ttf
2170.524	n/a	WORD	1085262	wordpools/wasnorm_wordpool_less_exclusions.txt	LTP291	ltpFR	2	10	-1	COLUMN	350	n/a	n/a	-1	1.0	1.0	1	upper	Verdana.ttf
2174.452	n/a	WORD	1087226	wordpools/wasnorm_wordpool_less_exclusions.txt	LTP291	ltpFR	2	10	-1	BRIDGE	174	n/a	n/a	-1	1.0	1.0	1	upper	Verdana.ttf
2178.64	n/a	WORD	1089320	wordpools/wasnorm_wordpool_less_exclusions.txt	LTP291	ltpFR	2	10	-1	COAT	333	n/a	n/a	-1	1.0	1.0	1	upper	Verdana.ttf
2182.652	n/a	WORD	1091326	wordpools/wasnorm_wordpool_less_exclusions.txt	LTP291	ltpFR	2	10	-1	CUFF	423	n/a	n/a	-1	1.0	1.0	1	upper	Verdana.ttf
2186.62	n/a	WORD	1093310	wordpools/wasnorm_wordpool_less_exclusions.txt	LTP291	ltpFR	2	10	-1	RANCH	1166	n/a	n/a	-1	1.0	1.0	1	upper	Verdana.ttf
2190.768	n/a	WORD	1095384	wordpools/wasnorm_wordpool_less_exclusions.txt	LTP291	ltpFR	2	10	-1	FARM	552	n/a	n/a	-1	1.0	1.0	1	upper	Verdana.ttf
2194.852	n/a	WORD	1097426	wordpools/wasnorm_wordpool_less_exclusions.txt	LTP291	ltpFR	2	10	-1	CORPORATION	382	n/a	n/a	-1	1.0	1.0	1	upper	Verdana.ttf
2199.05	n/a	WORD	1099525	wordpools/wasnorm_wordpool_less_exclusions.txt	LTP291	ltpFR	2	10	-1	POOL	1103	n/a	n/a	-1	1.0	1.0	1	upper	Verdana.ttf
2203.048	n/a	WORD	1101524	wordpools/wasnorm_wordpool_less_exclusions.txt	LTP291	ltpFR	2	10	-1	GARDEN	623	n/a	n/a	-1	1.0	1.0	1	upper	Verdana.ttf
2207.13	n/a	WORD	1103565	wordpools/wasnorm_wordpool_less_exclusions.txt	LTP291	ltpFR	2	10	-1	PUPIL	1143	n/a	n/a	-1	1.0	1.0	1	upper	Verdana.ttf
2211.028	n/a	WORD	1105514	wordpools/wasnorm_wordpool_less_exclusions.txt	LTP291	ltpFR	2	10	-1	SHACK	1273	n/a	n/a	-1	1.0	1.0	1	upper	Verdana.ttf
2215.228	n/a	WORD	1107614	wordpools/wasnorm_wordpool_less_exclusions.txt	LTP291	ltpFR	2	10	-1	MANSION	864	n/a	n/a	-1	1.0	1.0	1	upper	Verdana.ttf
2221.068	n/a	REC_START	1110534	n/a	LTP291	ltpFR	2	10	n/a	n/a	n/a	n/a	n/a	n/a	n/a	n/a	n/a	n/a	n/a
2221.906	n/a	REC_WORD	1110953	wordpools/wasnorm_wordpool_less_exclusions.txt	LTP291	ltpFR	2	10	-1	POOL	1103	n/a	n/a	-1	n/a	n/a	n/a	n/a	n/a
2222.868	n/a	REC_WORD	1111434	wordpools/wasnorm_wordpool_less_exclusions.txt	LTP291	ltpFR	2	10	-1	PUPIL	1143	n/a	n/a	-1	n/a	n/a	n/a	n/a	n/a
2223.858	n/a	REC_WORD	1111929	wordpools/wasnorm_wordpool_less_exclusions.txt	LTP291	ltpFR	2	10	-1	SHACK	1273	n/a	n/a	-1	n/a	n/a	n/a	n/a	n/a
2225.1	n/a	REC_WORD	1112550	wordpools/wasnorm_wordpool_less_exclusions.txt	LTP291	ltpFR	2	10	-1	MANSION	864	n/a	n/a	-1	n/a	n/a	n/a	n/a	n/a
2228.102	n/a	REC_WORD	1114051	wordpools/wasnorm_wordpool_less_exclusions.txt	LTP291	ltpFR	2	10	-1	FARM	552	n/a	n/a	-1	n/a	n/a	n/a	n/a	n/a
2229.812	n/a	REC_WORD	1114906	wordpools/wasnorm_wordpool_less_exclusions.txt	LTP291	ltpFR	2	10	-1	CORPORATION	382	n/a	n/a	-1	n/a	n/a	n/a	n/a	n/a
2233.576	n/a	REC_WORD	1116788	wordpools/wasnorm_wordpool_less_exclusions.txt	LTP291	ltpFR	2	10	-1	GARDEN	623	n/a	n/a	-1	n/a	n/a	n/a	n/a	n/a
2238.376	n/a	REC_WORD	1119188	wordpools/wasnorm_wordpool_less_exclusions.txt	LTP291	ltpFR	2	10	-1	PLASTER	1085	n/a	n/a	-1	n/a	n/a	n/a	n/a	n/a
2241.4	n/a	REC_WORD	1120700	wordpools/wasnorm_wordpool_less_exclusions.txt	LTP291	ltpFR	2	10	-1	FLAG	573	n/a	n/a	-1	n/a	n/a	n/a	n/a	n/a
2243.054	n/a	REC_WORD	1121527	wordpools/wasnorm_wordpool_less_exclusions.txt	LTP291	ltpFR	2	10	-1	COLUMN	350	n/a	n/a	-1	n/a	n/a	n/a	n/a	n/a
2246.892	n/a	REC_WORD	1123446	wordpools/wasnorm_wordpool_less_exclusions.txt	LTP291	ltpFR	2	10	-1	BRIDGE	174	n/a	n/a	-1	n/a	n/a	n/a	n/a	n/a
2248.082	n/a	REC_WORD	1124041	wordpools/wasnorm_wordpool_less_exclusions.txt	LTP291	ltpFR	2	10	-1	SALMON	1227	n/a	n/a	-1	n/a	n/a	n/a	n/a	n/a
2261.14	n/a	REC_WORD	1130570	wordpools/wasnorm_wordpool_less_exclusions.txt	LTP291	ltpFR	2	10	-1	FARM	552	n/a	n/a	-1	n/a	n/a	n/a	n/a	n/a
2299.182	n/a	WORD	1149591	wordpools/wasnorm_wordpool_less_exclusions.txt	LTP291	ltpFR	2	11	1	FAN	551	n/a	n/a	0	0.57763671875	0.412841796875	1	lower	zerothre.ttf
2303.098	n/a	WORD	1151549	wordpools/wasnorm_wordpool_less_exclusions.txt	LTP291	ltpFR	2	11	1	CASH	252	n/a	n/a	0	0.57763671875	0.412841796875	1	lower	zerothre.ttf
2307.196	n/a	WORD	1153598	wordpools/wasnorm_wordpool_less_exclusions.txt	LTP291	ltpFR	2	11	1	NAVIGATOR	938	n/a	n/a	0	0.57763671875	0.412841796875	1	lower	zerothre.ttf
2311.162	n/a	WORD	1155581	wordpools/wasnorm_wordpool_less_exclusions.txt	LTP291	ltpFR	2	11	1	SPRINKLE	1359	n/a	n/a	0	0.57763671875	0.412841796875	1	lower	zerothre.ttf
2315.292	n/a	WORD	1157646	wordpools/wasnorm_wordpool_less_exclusions.txt	LTP291	ltpFR	2	11	1	BANKER	84	n/a	n/a	1	0.57763671875	0.412841796875	1	lower	zerothre.ttf
2319.158	n/a	WORD	1159579	wordpools/wasnorm_wordpool_less_exclusions.txt	LTP291	ltpFR	2	11	1	TACK	1428	n/a	n/a	1	0.57763671875	0.412841796875	1	lower	zerothre.ttf
2323.29	n/a	WORD	1161645	wordpools/wasnorm_wordpool_less_exclusions.txt	LTP291	ltpFR	2	11	0	HAND	683	n/a	n/a	0	0.422607421875	0.5869140625	0	upper	amplitud.ttf
2327.256	n/a	WORD	1163628	wordpools/wasnorm_wordpool_less_exclusions.txt	LTP291	ltpFR	2	11	0	CHAUFFEUR	283	n/a	n/a	1	0.422607421875	0.5869140625	0	upper	amplitud.ttf
2331.456	n/a	WORD	1165728	wordpools/wasnorm_wordpool_less_exclusions.txt	LTP291	ltpFR	2	11	0	VIKING	1565	n/a	n/a	1	0.422607421875	0.5869140625	0	upper	amplitud.ttf
2335.336	n/a	WORD	1167668	wordpools/wasnorm_wordpool_less_exclusions.txt	LTP291	ltpFR	2	11	0	NICKEL	950	n/a	n/a	0	0.422607421875	0.5869140625	0	upper	amplitud.ttf
2339.302	n/a	WORD	1169651	wordpools/wasnorm_wordpool_less_exclusions.txt	LTP291	ltpFR	2	11	1	CHEMICAL	291	n/a	n/a	0	0.57763671875	0.412841796875	1	lower	zerothre.ttf
2343.484	n/a	WORD	1171742	wordpools/wasnorm_wordpool_less_exclusions.txt	LTP291	ltpFR	2	11	1	HOOD	714	n/a	n/a	0	0.57763671875	0.412841796875	1	lower	zerothre.ttf
2347.584	n/a	WORD	1173792	wordpools/wasnorm_wordpool_less_exclusions.txt	LTP291	ltpFR	2	11	0	GODDESS	646	n/a	n/a	1	0.422607421875	0.5869140625	0	upper	amplitud.ttf
2351.5	n/a	WORD	1175750	wordpools/wasnorm_wordpool_less_exclusions.txt	LTP291	ltpFR	2	11	0	INVENTOR	743	n/a	n/a	1	0.422607421875	0.5869140625	0	upper	amplitud.ttf
2355.682	n/a	WORD	1177841	wordpools/wasnorm_wordpool_less_exclusions.txt	LTP291	ltpFR	2	11	0	MOAT	903	n/a	n/a	1	0.422607421875	0.5869140625	0	upper	amplitud.ttf
2359.764	n/a	WORD	1179882	wordpools/wasnorm_wordpool_less_exclusions.txt	LTP291	ltpFR	2	11	0	RAFT	1159	n/a	n/a	1	0.422607421875	0.5869140625	0	upper	amplitud.ttf
2365.654	n/a	REC_START	1182827	n/a	LTP291	ltpFR	2	11	n/a	n/a	n/a	n/a	n/a	n/a	n/a	n/a	n/a	n/a	n/a
2366.84	n/a	REC_WORD	1183420	wordpools/wasnorm_wordpool_less_exclusions.txt	LTP291	ltpFR	2	11	0	MOAT	903	n/a	n/a	1	n/a	n/a	n/a	n/a	n/a
2368.642	n/a	REC_WORD	1184321	wordpools/wasnorm_wordpool_less_exclusions.txt	LTP291	ltpFR	2	11	0	RAFT	1159	n/a	n/a	1	n/a	n/a	n/a	n/a	n/a
2375.346	n/a	REC_WORD	1187673	wordpools/wasnorm_wordpool_less_exclusions.txt	LTP291	ltpFR	2	11	0	VIKING	1565	n/a	n/a	1	n/a	n/a	n/a	n/a	n/a
2378.5	n/a	REC_WORD	1189250	wordpools/wasnorm_wordpool_less_exclusions.txt	LTP291	ltpFR	2	11	0	HAND	683	n/a	n/a	0	n/a	n/a	n/a	n/a	n/a
2380.978	n/a	REC_WORD	1190489	wordpools/wasnorm_wordpool_less_exclusions.txt	LTP291	ltpFR	2	11	1	CASH	252	n/a	n/a	0	n/a	n/a	n/a	n/a	n/a
2444.27	n/a	WORD	1222135	wordpools/wasnorm_wordpool_less_exclusions.txt	LTP291	ltpFR	2	12	-1	BOTTLE	153	n/a	n/a	-1	1.0	1.0	1	upper	Verdana.ttf
2448.336	n/a	WORD	1224168	wordpools/wasnorm_wordpool_less_exclusions.txt	LTP291	ltpFR	2	12	-1	EUROPE	541	n/a	n/a	-1	1.0	1.0	1	upper	Verdana.ttf
2452.282	n/a	WORD	1226141	wordpools/wasnorm_wordpool_less_exclusions.txt	LTP291	ltpFR	2	12	-1	FRECKLE	602	n/a	n/a	-1	1.0	1.0	1	upper	Verdana.ttf
2456.116	n/a	WORD	1228058	wordpools/wasnorm_wordpool_less_exclusions.txt	LTP291	ltpFR	2	12	-1	GALAXY	617	n/a	n/a	-1	1.0	1.0	1	upper	Verdana.ttf
2459.948	n/a	WORD	1229974	wordpools/wasnorm_wordpool_less_exclusions.txt	LTP291	ltpFR	2	12	-1	ATLAS	53	n/a	n/a	-1	1.0	1.0	1	upper	Verdana.ttf
2463.812	n/a	WORD	1231906	wordpools/wasnorm_wordpool_less_exclusions.txt	LTP291	ltpFR	2	12	-1	WINDSHIELD	1612	n/a	n/a	-1	1.0	1.0	1	upper	Verdana.ttf
2467.744	n/a	WORD	1233872	wordpools/wasnorm_wordpool_less_exclusions.txt	LTP291	ltpFR	2	12	-1	SKATE	1313	n/a	n/a	-1	1.0	1.0	1	upper	Verdana.ttf
2471.692	n/a	WORD	1235846	wordpools/wasnorm_wordpool_less_exclusions.txt	LTP291	ltpFR	2	12	-1	ZOO	1637	n/a	n/a	-1	1.0	1.0	1	upper	Verdana.ttf
2475.54	n/a	WORD	1237770	wordpools/wasnorm_wordpool_less_exclusions.txt	LTP291	ltpFR	2	12	-1	COLONEL	348	n/a	n/a	-1	1.0	1.0	1	upper	Verdana.ttf
2479.388	n/a	WORD	1239694	wordpools/wasnorm_wordpool_less_exclusions.txt	LTP291	ltpFR	2	12	-1	ARMY	39	n/a	n/a	-1	1.0	1.0	1	upper	Verdana.ttf
2483.352	n/a	WORD	1241676	wordpools/wasnorm_wordpool_less_exclusions.txt	LTP291	ltpFR	2	12	-1	RAKE	1164	n/a	n/a	-1	1.0	1.0	1	upper	Verdana.ttf
2487.452	n/a	WORD	1243726	wordpools/wasnorm_wordpool_less_exclusions.txt	LTP291	ltpFR	2	12	-1	SHOVEL	1295	n/a	n/a	-1	1.0	1.0	1	upper	Verdana.ttf
2491.668	n/a	WORD	1245834	wordpools/wasnorm_wordpool_less_exclusions.txt	LTP291	ltpFR	2	12	-1	TONGUE	1479	n/a	n/a	-1	1.0	1.0	1	upper	Verdana.ttf
2495.616	n/a	WORD	1247808	wordpools/wasnorm_wordpool_less_exclusions.txt	LTP291	ltpFR	2	12	-1	THREAD	1460	n/a	n/a	-1	1.0	1.0	1	upper	Verdana.ttf
2499.782	n/a	WORD	1249891	wordpools/wasnorm_wordpool_less_exclusions.txt	LTP291	ltpFR	2	12	-1	BULLETIN	195	n/a	n/a	-1	1.0	1.0	1	upper	Verdana.ttf
2503.948	n/a	WORD	1251974	wordpools/wasnorm_wordpool_less_exclusions.txt	LTP291	ltpFR	2	12	-1	PRIMATE	1123	n/a	n/a	-1	1.0	1.0	1	upper	Verdana.ttf
2509.754	n/a	REC_START	1254877	n/a	LTP291	ltpFR	2	12	n/a	n/a	n/a	n/a	n/a	n/a	n/a	n/a	n/a	n/a	n/a
2510.778	n/a	REC_WORD	1255389	wordpools/wasnorm_wordpool_less_exclusions.txt	LTP291	ltpFR	2	12	-1	THREAD	1460	n/a	n/a	-1	n/a	n/a	n/a	n/a	n/a
2512.098	n/a	REC_WORD	1256049	wordpools/wasnorm_wordpool_less_exclusions.txt	LTP291	ltpFR	2	12	-1	BULLETIN	195	n/a	n/a	-1	n/a	n/a	n/a	n/a	n/a
2513.298	n/a	REC_WORD	1256649	wordpools/wasnorm_wordpool_less_exclusions.txt	LTP291	ltpFR	2	12	-1	PRIMATE	1123	n/a	n/a	-1	n/a	n/a	n/a	n/a	n/a
2514.572	n/a	REC_WORD	1257286	wordpools/wasnorm_wordpool_less_exclusions.txt	LTP291	ltpFR	2	12	-1	ZOO	1637	n/a	n/a	-1	n/a	n/a	n/a	n/a	n/a
2516.016	n/a	REC_WORD	1258008	wordpools/wasnorm_wordpool_less_exclusions.txt	LTP291	ltpFR	2	12	-1	WINDSHIELD	1612	n/a	n/a	-1	n/a	n/a	n/a	n/a	n/a
2517.714	n/a	REC_WORD	1258857	wordpools/wasnorm_wordpool_less_exclusions.txt	LTP291	ltpFR	2	12	-1	SKATE	1313	n/a	n/a	-1	n/a	n/a	n/a	n/a	n/a
2533.454	n/a	REC_WORD	1266727	wordpools/wasnorm_wordpool_less_exclusions.txt	LTP291	ltpFR	2	12	-1	ARMY	39	n/a	n/a	-1	n/a	n/a	n/a	n/a	n/a
2535.306	n/a	REC_WORD	1267653	wordpools/wasnorm_wordpool_less_exclusions.txt	LTP291	ltpFR	2	12	-1	COLONEL	348	n/a	n/a	-1	n/a	n/a	n/a	n/a	n/a
2569.62	n/a	REC_WORD	1284810	wordpools/wasnorm_wordpool_less_exclusions.txt	LTP291	ltpFR	2	12	n/a	UNIVERSE	1540	n/a	n/a	n/a	n/a	n/a	n/a	n/a	n/a
2571.194	n/a	REC_WORD	1285597	wordpools/wasnorm_wordpool_less_exclusions.txt	LTP291	ltpFR	2	12	-1	BOTTLE	153	n/a	n/a	-1	n/a	n/a	n/a	n/a	n/a
2572.69	n/a	REC_WORD	1286345	wordpools/wasnorm_wordpool_less_exclusions.txt	LTP291	ltpFR	2	12	-1	EUROPE	541	n/a	n/a	-1	n/a	n/a	n/a	n/a	n/a
2579.088	n/a	REC_WORD	1289544	wordpools/wasnorm_wordpool_less_exclusions.txt	LTP291	ltpFR	2	12	-1	FRECKLE	602	n/a	n/a	-1	n/a	n/a	n/a	n/a	n/a
2587.652	n/a	WORD	1293826	wordpools/wasnorm_wordpool_less_exclusions.txt	LTP291	ltpFR	2	13	0	BEER	114	n/a	n/a	1	0.422607421875	0.5869140625	0	upper	amplitud.ttf
2591.65	n/a	WORD	1295825	wordpools/wasnorm_wordpool_less_exclusions.txt	LTP291	ltpFR	2	13	0	BRAKE	166	n/a	n/a	1	0.422607421875	0.5869140625	0	upper	amplitud.ttf
2595.582	n/a	WORD	1297791	wordpools/wasnorm_wordpool_less_exclusions.txt	LTP291	ltpFR	2	13	0	CAKE	219	n/a	n/a	0	0.422607421875	0.5869140625	0	upper	amplitud.ttf
2599.764	n/a	WORD	1299882	wordpools/wasnorm_wordpool_less_exclusions.txt	LTP291	ltpFR	2	13	0	EAR	513	n/a	n/a	0	0.422607421875	0.5869140625	0	upper	amplitud.ttf
2603.764	n/a	WORD	1301882	wordpools/wasnorm_wordpool_less_exclusions.txt	LTP291	ltpFR	2	13	0	SHIRT	1287	n/a	n/a	0	0.422607421875	0.5869140625	0	upper	amplitud.ttf
2607.762	n/a	WORD	1303881	wordpools/wasnorm_wordpool_less_exclusions.txt	LTP291	ltpFR	2	13	0	CLOSET	326	n/a	n/a	1	0.422607421875	0.5869140625	0	upper	amplitud.ttf
2611.678	n/a	WORD	1305839	wordpools/wasnorm_wordpool_less_exclusions.txt	LTP291	ltpFR	2	13	0	RECIPE	1175	n/a	n/a	0	0.422607421875	0.5869140625	0	upper	amplitud.ttf
2615.726	n/a	WORD	1307863	wordpools/wasnorm_wordpool_less_exclusions.txt	LTP291	ltpFR	2	13	0	MICROWAVE	892	n/a	n/a	1	0.422607421875	0.5869140625	0	upper	amplitud.ttf
2619.658	n/a	WORD	1309829	wordpools/wasnorm_wordpool_less_exclusions.txt	LTP291	ltpFR	2	13	0	BERRY	122	n/a	n/a	0	0.422607421875	0.5869140625	0	upper	amplitud.ttf
2623.74	n/a	WORD	1311870	wordpools/wasnorm_wordpool_less_exclusions.txt	LTP291	ltpFR	2	13	0	BLOCKADE	137	n/a	n/a	1	0.422607421875	0.5869140625	0	upper	amplitud.ttf
2627.822	n/a	WORD	1313911	wordpools/wasnorm_wordpool_less_exclusions.txt	LTP291	ltpFR	2	13	0	BARREL	91	n/a	n/a	1	0.422607421875	0.5869140625	0	upper	amplitud.ttf
2631.936	n/a	WORD	1315968	wordpools/wasnorm_wordpool_less_exclusions.txt	LTP291	ltpFR	2	13	0	LOG	841	n/a	n/a	1	0.422607421875	0.5869140625	0	upper	amplitud.ttf
2635.936	n/a	WORD	1317968	wordpools/wasnorm_wordpool_less_exclusions.txt	LTP291	ltpFR	2	13	0	MEAL	882	n/a	n/a	0	0.422607421875	0.5869140625	0	upper	amplitud.ttf
2640.002	n/a	WORD	1320001	wordpools/wasnorm_wordpool_less_exclusions.txt	LTP291	ltpFR	2	13	0	CURB	426	n/a	n/a	1	0.422607421875	0.5869140625	0	upper	amplitud.ttf
2644.15	n/a	WORD	1322075	wordpools/wasnorm_wordpool_less_exclusions.txt	LTP291	ltpFR	2	13	0	NECKLACE	940	n/a	n/a	1	0.422607421875	0.5869140625	0	upper	amplitud.ttf
2648.35	n/a	WORD	1324175	wordpools/wasnorm_wordpool_less_exclusions.txt	LTP291	ltpFR	2	13	0	JEWEL	757	n/a	n/a	0	0.422607421875	0.5869140625	0	upper	amplitud.ttf
2654.056	n/a	REC_START	1327028	n/a	LTP291	ltpFR	2	13	n/a	n/a	n/a	n/a	n/a	n/a	n/a	n/a	n/a	n/a	n/a
2654.728	n/a	REC_WORD	1327364	wordpools/wasnorm_wordpool_less_exclusions.txt	LTP291	ltpFR	2	13	0	NECKLACE	940	n/a	n/a	1	n/a	n/a	n/a	n/a	n/a
2655.71	n/a	REC_WORD	1327855	wordpools/wasnorm_wordpool_less_exclusions.txt	LTP291	ltpFR	2	13	0	JEWEL	757	n/a	n/a	0	n/a	n/a	n/a	n/a	n/a
2656.962	n/a	REC_WORD	1328481	wordpools/wasnorm_wordpool_less_exclusions.txt	LTP291	ltpFR	2	13	0	CURB	426	n/a	n/a	1	n/a	n/a	n/a	n/a	n/a
2728.608	n/a	REC_WORD	1364304	wordpools/wasnorm_wordpool_less_exclusions.txt	LTP291	ltpFR	2	13	0	BARREL	91	n/a	n/a	1	n/a	n/a	n/a	n/a	n/a
2737.758	n/a	WORD	1368879	wordpools/wasnorm_wordpool_less_exclusions.txt	LTP291	ltpFR	2	14	0	VOLLEYBALL	1576	n/a	n/a	1	0.422607421875	0.5869140625	0	upper	amplitud.ttf
2741.858	n/a	WORD	1370929	wordpools/wasnorm_wordpool_less_exclusions.txt	LTP291	ltpFR	2	14	0	DRUM	502	n/a	n/a	1	0.422607421875	0.5869140625	0	upper	amplitud.ttf
2745.824	n/a	WORD	1372912	wordpools/wasnorm_wordpool_less_exclusions.txt	LTP291	ltpFR	2	14	0	BANDIT	81	n/a	n/a	1	0.422607421875	0.5869140625	0	upper	amplitud.ttf
2749.854	n/a	WORD	1374927	wordpools/wasnorm_wordpool_less_exclusions.txt	LTP291	ltpFR	2	14	0	OBOE	969	n/a	n/a	1	0.422607421875	0.5869140625	0	upper	amplitud.ttf
2753.77	n/a	WORD	1376885	wordpools/wasnorm_wordpool_less_exclusions.txt	LTP291	ltpFR	2	14	0	SAND	1230	n/a	n/a	0	0.422607421875	0.5869140625	0	upper	amplitud.ttf
2757.6	n/a	WORD	1378800	wordpools/wasnorm_wordpool_less_exclusions.txt	LTP291	ltpFR	2	14	0	STRAWBERRY	1391	n/a	n/a	0	0.422607421875	0.5869140625	0	upper	amplitud.ttf
2761.534	n/a	WORD	1380767	wordpools/wasnorm_wordpool_less_exclusions.txt	LTP291	ltpFR	2	14	0	PUMPKIN	1142	n/a	n/a	1	0.422607421875	0.5869140625	0	upper	amplitud.ttf
2765.448	n/a	WORD	1382724	wordpools/wasnorm_wordpool_less_exclusions.txt	LTP291	ltpFR	2	14	0	OFFICE	972	n/a	n/a	1	0.422607421875	0.5869140625	0	upper	amplitud.ttf
2769.648	n/a	WORD	1384824	wordpools/wasnorm_wordpool_less_exclusions.txt	LTP291	ltpFR	2	14	0	ROOSTER	1209	n/a	n/a	1	0.422607421875	0.5869140625	0	upper	amplitud.ttf
2773.78	n/a	WORD	1386890	wordpools/wasnorm_wordpool_less_exclusions.txt	LTP291	ltpFR	2	14	0	CROOK	412	n/a	n/a	1	0.422607421875	0.5869140625	0	upper	amplitud.ttf
2777.962	n/a	WORD	1388981	wordpools/wasnorm_wordpool_less_exclusions.txt	LTP291	ltpFR	2	14	0	POLICE	1098	n/a	n/a	1	0.422607421875	0.5869140625	0	upper	amplitud.ttf
2782.044	n/a	WORD	1391022	wordpools/wasnorm_wordpool_less_exclusions.txt	LTP291	ltpFR	2	14	0	SERGEANT	1269	n/a	n/a	1	0.422607421875	0.5869140625	0	upper	amplitud.ttf
2785.994	n/a	WORD	1392997	wordpools/wasnorm_wordpool_less_exclusions.txt	LTP291	ltpFR	2	14	0	NITROGEN	954	n/a	n/a	0	0.422607421875	0.5869140625	0	upper	amplitud.ttf
2790.208	n/a	WORD	1395104	wordpools/wasnorm_wordpool_less_exclusions.txt	LTP291	ltpFR	2	14	0	LUNG	850	n/a	n/a	1	0.422607421875	0.5869140625	0	upper	amplitud.ttf
2794.256	n/a	WORD	1397128	wordpools/wasnorm_wordpool_less_exclusions.txt	LTP291	ltpFR	2	14	0	RAM	1165	n/a	n/a	1	0.422607421875	0.5869140625	0	upper	amplitud.ttf
2798.422	n/a	WORD	1399211	wordpools/wasnorm_wordpool_less_exclusions.txt	LTP291	ltpFR	2	14	0	ROD	1203	n/a	n/a	0	0.422607421875	0.5869140625	0	upper	amplitud.ttf
2804.148	n/a	REC_START	1402074	n/a	LTP291	ltpFR	2	14	n/a	n/a	n/a	n/a	n/a	n/a	n/a	n/a	n/a	n/a	n/a
2805.044	n/a	REC_WORD	1402522	wordpools/wasnorm_wordpool_less_exclusions.txt	LTP291	ltpFR	2	14	0	RAM	1165	n/a	n/a	1	n/a	n/a	n/a	n/a	n/a
2806.032	n/a	REC_WORD	1403016	wordpools/wasnorm_wordpool_less_exclusions.txt	LTP291	ltpFR	2	14	0	ROD	1203	n/a	n/a	0	n/a	n/a	n/a	n/a	n/a
2807.568	n/a	REC_WORD	1403784	wordpools/wasnorm_wordpool_less_exclusions.txt	LTP291	ltpFR	2	14	0	SERGEANT	1269	n/a	n/a	1	n/a	n/a	n/a	n/a	n/a
2814.684	n/a	REC_WORD	1407342	wordpools/wasnorm_wordpool_less_exclusions.txt	LTP291	ltpFR	2	14	0	LUNG	850	n/a	n/a	1	n/a	n/a	n/a	n/a	n/a
2819.226	n/a	REC_WORD	1409613	wordpools/wasnorm_wordpool_less_exclusions.txt	LTP291	ltpFR	2	14	0	VOLLEYBALL	1576	n/a	n/a	1	n/a	n/a	n/a	n/a	n/a
2821.376	n/a	REC_WORD	1410688	wordpools/wasnorm_wordpool_less_exclusions.txt	LTP291	ltpFR	2	14	0	DRUM	502	n/a	n/a	1	n/a	n/a	n/a	n/a	n/a
2831.136	n/a	REC_WORD	1415568	wordpools/wasnorm_wordpool_less_exclusions.txt	LTP291	ltpFR	2	14	0	SAND	1230	n/a	n/a	0	n/a	n/a	n/a	n/a	n/a
2832.578	n/a	REC_WORD	1416289	wordpools/wasnorm_wordpool_less_exclusions.txt	LTP291	ltpFR	2	14	0	STRAWBERRY	1391	n/a	n/a	0	n/a	n/a	n/a	n/a	n/a
2838.914	n/a	REC_WORD	1419457	wordpools/wasnorm_wordpool_less_exclusions.txt	LTP291	ltpFR	2	14	0	PUMPKIN	1142	n/a	n/a	1	n/a	n/a	n/a	n/a	n/a
2884.57	n/a	WORD	1442285	wordpools/wasnorm_wordpool_less_exclusions.txt	LTP291	ltpFR	2	15	1	TELEVISION	1447	n/a	n/a	0	0.57763671875	0.412841796875	1	lower	zerothre.ttf
2888.516	n/a	WORD	1444258	wordpools/wasnorm_wordpool_less_exclusions.txt	LTP291	ltpFR	2	15	1	GATE	625	n/a	n/a	0	0.57763671875	0.412841796875	1	lower	zerothre.ttf
2892.414	n/a	WORD	1446207	wordpools/wasnorm_wordpool_less_exclusions.txt	LTP291	ltpFR	2	15	1	MOWER	928	n/a	n/a	0	0.57763671875	0.412841796875	1	lower	zerothre.ttf
2896.33	n/a	WORD	1448165	wordpools/wasnorm_wordpool_less_exclusions.txt	LTP291	ltpFR	2	15	1	JEEP	753	n/a	n/a	0	0.57763671875	0.412841796875	1	lower	zerothre.ttf
2900.362	n/a	WORD	1450181	wordpools/wasnorm_wordpool_less_exclusions.txt	LTP291	ltpFR	2	15	1	FIST	572	n/a	n/a	0	0.57763671875	0.412841796875	1	lower	zerothre.ttf
2904.562	n/a	WORD	1452281	wordpools/wasnorm_wordpool_less_exclusions.txt	LTP291	ltpFR	2	15	1	THICKET	1455	n/a	n/a	0	0.57763671875	0.412841796875	1	lower	zerothre.ttf
2908.492	n/a	WORD	1454246	wordpools/wasnorm_wordpool_less_exclusions.txt	LTP291	ltpFR	2	15	1	CREAM	402	n/a	n/a	0	0.57763671875	0.412841796875	1	lower	zerothre.ttf
2912.342	n/a	WORD	1456171	wordpools/wasnorm_wordpool_less_exclusions.txt	LTP291	ltpFR	2	15	1	TUTU	1524	n/a	n/a	0	0.57763671875	0.412841796875	1	lower	zerothre.ttf
2916.558	n/a	WORD	1458279	wordpools/wasnorm_wordpool_less_exclusions.txt	LTP291	ltpFR	2	15	1	PELICAN	1039	n/a	n/a	1	0.57763671875	0.412841796875	1	lower	zerothre.ttf
2920.724	n/a	WORD	1460362	wordpools/wasnorm_wordpool_less_exclusions.txt	LTP291	ltpFR	2	15	1	HAWK	692	n/a	n/a	1	0.57763671875	0.412841796875	1	lower	zerothre.ttf
2924.722	n/a	WORD	1462361	wordpools/wasnorm_wordpool_less_exclusions.txt	LTP291	ltpFR	2	15	1	CONSUMER	365	n/a	n/a	1	0.57763671875	0.412841796875	1	lower	zerothre.ttf
2928.588	n/a	WORD	1464294	wordpools/wasnorm_wordpool_less_exclusions.txt	LTP291	ltpFR	2	15	1	WALRUS	1585	n/a	n/a	1	0.57763671875	0.412841796875	1	lower	zerothre.ttf
2932.52	n/a	WORD	1466260	wordpools/wasnorm_wordpool_less_exclusions.txt	LTP291	ltpFR	2	15	1	ALLIGATOR	16	n/a	n/a	1	0.57763671875	0.412841796875	1	lower	zerothre.ttf
2936.4	n/a	WORD	1468200	wordpools/wasnorm_wordpool_less_exclusions.txt	LTP291	ltpFR	2	15	1	FENCE	560	n/a	n/a	0	0.57763671875	0.412841796875	1	lower	zerothre.ttf
2940.482	n/a	WORD	1470241	wordpools/wasnorm_wordpool_less_exclusions.txt	LTP291	ltpFR	2	15	1	ANTENNA	28	n/a	n/a	0	0.57763671875	0.412841796875	1	lower	zerothre.ttf
2944.532	n/a	WORD	1472266	wordpools/wasnorm_wordpool_less_exclusions.txt	LTP291	ltpFR	2	15	1	RUST	1219	n/a	n/a	0	0.57763671875	0.412841796875	1	lower	zerothre.ttf
2950.32	n/a	REC_START	1475160	n/a	LTP291	ltpFR	2	15	n/a	n/a	n/a	n/a	n/a	n/a	n/a	n/a	n/a	n/a	n/a
2951.34	n/a	REC_WORD	1475670	wordpools/wasnorm_wordpool_less_exclusions.txt	LTP291	ltpFR	2	15	1	FENCE	560	n/a	n/a	0	n/a	n/a	n/a	n/a	n/a
2952.338	n/a	REC_WORD	1476169	wordpools/wasnorm_wordpool_less_exclusions.txt	LTP291	ltpFR	2	15	1	ANTENNA	28	n/a	n/a	0	n/a	n/a	n/a	n/a	n/a
2953.724	n/a	REC_WORD	1476862	wordpools/wasnorm_wordpool_less_exclusions.txt	LTP291	ltpFR	2	15	1	RUST	1219	n/a	n/a	0	n/a	n/a	n/a	n/a	n/a
2955.668	n/a	REC_WORD	1477834	wordpools/wasnorm_wordpool_less_exclusions.txt	LTP291	ltpFR	2	15	1	ALLIGATOR	16	n/a	n/a	1	n/a	n/a	n/a	n/a	n/a
2964.532	n/a	REC_WORD	1482266	wordpools/wasnorm_wordpool_less_exclusions.txt	LTP291	ltpFR	2	15	1	FIST	572	n/a	n/a	0	n/a	n/a	n/a	n/a	n/a
3002.152	n/a	REC_WORD	1501076	wordpools/wasnorm_wordpool_less_exclusions.txt	LTP291	ltpFR	2	15	1	PELICAN	1039	n/a	n/a	1	n/a	n/a	n/a	n/a	n/a
3029.14	n/a	WORD	1514570	wordpools/wasnorm_wordpool_less_exclusions.txt	LTP291	ltpFR	2	16	-1	BEAR	106	n/a	n/a	-1	1.0	1.0	1	upper	Verdana.ttf
3033.354	n/a	WORD	1516677	wordpools/wasnorm_wordpool_less_exclusions.txt	LTP291	ltpFR	2	16	-1	FURNITURE	616	n/a	n/a	-1	1.0	1.0	1	upper	Verdana.ttf
3037.352	n/a	WORD	1518676	wordpools/wasnorm_wordpool_less_exclusions.txt	LTP291	ltpFR	2	16	-1	BASEMENT	94	n/a	n/a	-1	1.0	1.0	1	upper	Verdana.ttf
3041.334	n/a	WORD	1520667	wordpools/wasnorm_wordpool_less_exclusions.txt	LTP291	ltpFR	2	16	-1	CYCLONE	431	n/a	n/a	-1	1.0	1.0	1	upper	Verdana.ttf
3045.25	n/a	WORD	1522625	wordpools/wasnorm_wordpool_less_exclusions.txt	LTP291	ltpFR	2	16	-1	HERB	704	n/a	n/a	-1	1.0	1.0	1	upper	Verdana.ttf
3049.116	n/a	WORD	1524558	wordpools/wasnorm_wordpool_less_exclusions.txt	LTP291	ltpFR	2	16	-1	DOVE	491	n/a	n/a	-1	1.0	1.0	1	upper	Verdana.ttf
3053.148	n/a	WORD	1526574	wordpools/wasnorm_wordpool_less_exclusions.txt	LTP291	ltpFR	2	16	-1	CANARY	227	n/a	n/a	-1	1.0	1.0	1	upper	Verdana.ttf
3057.062	n/a	WORD	1528531	wordpools/wasnorm_wordpool_less_exclusions.txt	LTP291	ltpFR	2	16	-1	ANCHOR	21	n/a	n/a	-1	1.0	1.0	1	upper	Verdana.ttf
3060.894	n/a	WORD	1530447	wordpools/wasnorm_wordpool_less_exclusions.txt	LTP291	ltpFR	2	16	-1	INTESTINE	742	n/a	n/a	-1	1.0	1.0	1	upper	Verdana.ttf
3064.776	n/a	WORD	1532388	wordpools/wasnorm_wordpool_less_exclusions.txt	LTP291	ltpFR	2	16	-1	ALLEY	15	n/a	n/a	-1	1.0	1.0	1	upper	Verdana.ttf
3068.924	n/a	WORD	1534462	wordpools/wasnorm_wordpool_less_exclusions.txt	LTP291	ltpFR	2	16	-1	RAIL	1161	n/a	n/a	-1	1.0	1.0	1	upper	Verdana.ttf
3073.04	n/a	WORD	1536520	wordpools/wasnorm_wordpool_less_exclusions.txt	LTP291	ltpFR	2	16	-1	APPLE	33	n/a	n/a	-1	1.0	1.0	1	upper	Verdana.ttf
3077.254	n/a	WORD	1538627	wordpools/wasnorm_wordpool_less_exclusions.txt	LTP291	ltpFR	2	16	-1	TAIL	1430	n/a	n/a	-1	1.0	1.0	1	upper	Verdana.ttf
3081.32	n/a	WORD	1540660	wordpools/wasnorm_wordpool_less_exclusions.txt	LTP291	ltpFR	2	16	-1	CHIME	300	n/a	n/a	-1	1.0	1.0	1	upper	Verdana.ttf
3085.154	n/a	WORD	1542577	wordpools/wasnorm_wordpool_less_exclusions.txt	LTP291	ltpFR	2	16	-1	CAFETERIA	217	n/a	n/a	-1	1.0	1.0	1	upper	Verdana.ttf
3089.202	n/a	WORD	1544601	wordpools/wasnorm_wordpool_less_exclusions.txt	LTP291	ltpFR	2	16	-1	CAPTAIN	239	n/a	n/a	-1	1.0	1.0	1	upper	Verdana.ttf
3094.974	n/a	REC_START	1547487	n/a	LTP291	ltpFR	2	16	n/a	n/a	n/a	n/a	n/a	n/a	n/a	n/a	n/a	n/a	n/a
3095.462	n/a	REC_WORD	1547731	wordpools/wasnorm_wordpool_less_exclusions.txt	LTP291	ltpFR	2	16	-1	APPLE	33	n/a	n/a	-1	n/a	n/a	n/a	n/a	n/a
3096.444	n/a	REC_WORD	1548222	wordpools/wasnorm_wordpool_less_exclusions.txt	LTP291	ltpFR	2	16	-1	TAIL	1430	n/a	n/a	-1	n/a	n/a	n/a	n/a	n/a
3097.458	n/a	REC_WORD	1548729	wordpools/wasnorm_wordpool_less_exclusions.txt	LTP291	ltpFR	2	16	-1	CHIME	300	n/a	n/a	-1	n/a	n/a	n/a	n/a	n/a
3098.61	n/a	REC_WORD	1549305	wordpools/wasnorm_wordpool_less_exclusions.txt	LTP291	ltpFR	2	16	-1	CAFETERIA	217	n/a	n/a	-1	n/a	n/a	n/a	n/a	n/a
3100.058	n/a	REC_WORD	1550029	wordpools/wasnorm_wordpool_less_exclusions.txt	LTP291	ltpFR	2	16	-1	CAPTAIN	239	n/a	n/a	-1	n/a	n/a	n/a	n/a	n/a
3101.926	n/a	REC_WORD	1550963	wordpools/wasnorm_wordpool_less_exclusions.txt	LTP291	ltpFR	2	16	-1	CYCLONE	431	n/a	n/a	-1	n/a	n/a	n/a	n/a	n/a
3104.484	n/a	REC_WORD	1552242	wordpools/wasnorm_wordpool_less_exclusions.txt	LTP291	ltpFR	2	16	-1	ANCHOR	21	n/a	n/a	-1	n/a	n/a	n/a	n/a	n/a
3106.868	n/a	REC_WORD	1553434	wordpools/wasnorm_wordpool_less_exclusions.txt	LTP291	ltpFR	2	16	-1	BASEMENT	94	n/a	n/a	-1	n/a	n/a	n/a	n/a	n/a
3112.784	n/a	REC_WORD	1556392	wordpools/wasnorm_wordpool_less_exclusions.txt	LTP291	ltpFR	2	16	-1	FURNITURE	616	n/a	n/a	-1	n/a	n/a	n/a	n/a	n/a
3114.602	n/a	REC_WORD	1557301	wordpools/wasnorm_wordpool_less_exclusions.txt	LTP291	ltpFR	2	16	-1	BEAR	106	n/a	n/a	-1	n/a	n/a	n/a	n/a	n/a
3122.642	n/a	REC_WORD	1561321	wordpools/wasnorm_wordpool_less_exclusions.txt	LTP291	ltpFR	2	16	-1	INTESTINE	742	n/a	n/a	-1	n/a	n/a	n/a	n/a	n/a
3453.83	n/a	REC_START	1726915	n/a	LTP291	ltpFR	2	1	n/a	n/a	n/a	n/a	n/a	n/a	n/a	n/a	n/a	n/a	n/a
3453.878	n/a	RECOG_TARGET	1726939	n/a	LTP291	ltpFR	2	1	1	PIER	1063	1	5	0	n/a	n/a	n/a	n/a	n/a
3456.79	n/a	RECOG_RESP	1728395	n/a	LTP291	ltpFR	2	1	1	PIER	1063	1	n/a	0	n/a	n/a	n/a	n/a	n/a
3458.13	n/a	RECOG_CONF	1729065	n/a	LTP291	ltpFR	2	1	1	PIER	1063	n/a	5	0	n/a	n/a	n/a	n/a	n/a
3460.318	n/a	RECOG_TARGET	1730159	n/a	LTP291	ltpFR	2	1	1	FENCE	560	1	5	0	n/a	n/a	n/a	n/a	n/a
3461.18	n/a	RECOG_RESP	1730590	n/a	LTP291	ltpFR	2	1	1	FENCE	560	1	n/a	0	n/a	n/a	n/a	n/a	n/a
3462.01	n/a	RECOG_CONF	1731005	n/a	LTP291	ltpFR	2	1	1	FENCE	560	n/a	5	0	n/a	n/a	n/a	n/a	n/a
3463.968	n/a	RECOG_TARGET	1731984	n/a	LTP291	ltpFR	2	1	0	GODDESS	646	1	5	1	n/a	n/a	n/a	n/a	n/a
3464.68	n/a	RECOG_RESP	1732340	n/a	LTP291	ltpFR	2	1	0	GODDESS	646	1	n/a	1	n/a	n/a	n/a	n/a	n/a
3465.36	n/a	RECOG_CONF	1732680	n/a	LTP291	ltpFR	2	1	0	GODDESS	646	n/a	5	1	n/a	n/a	n/a	n/a	n/a
3467.096	n/a	RECOG_LURE	1733548	n/a	LTP291	ltpFR	2	1	n/a	GOO	648	0	2	n/a	n/a	n/a	n/a	n/a	n/a
3467.89	n/a	RECOG_RESP	1733945	n/a	LTP291	ltpFR	2	1	n/a	GOO	648	0	n/a	n/a	n/a	n/a	n/a	n/a	n/a
3468.67	n/a	RECOG_CONF	1734335	n/a	LTP291	ltpFR	2	1	n/a	GOO	648	n/a	2	n/a	n/a	n/a	n/a	n/a	n/a
3470.39	n/a	RECOG_TARGET	1735195	n/a	LTP291	ltpFR	2	1	1	BEARD	107	1	5	0	n/a	n/a	n/a	n/a	n/a
3471.126	n/a	RECOG_RESP	1735563	n/a	LTP291	ltpFR	2	1	1	BEARD	107	1	n/a	0	n/a	n/a	n/a	n/a	n/a
3471.78	n/a	RECOG_CONF	1735890	n/a	LTP291	ltpFR	2	1	1	BEARD	107	n/a	5	0	n/a	n/a	n/a	n/a	n/a
3473.434	n/a	RECOG_LURE	1736717	n/a	LTP291	ltpFR	2	1	n/a	CREW	406	1	2	n/a	n/a	n/a	n/a	n/a	n/a
3474.47	n/a	RECOG_RESP	1737235	n/a	LTP291	ltpFR	2	1	n/a	CREW	406	1	n/a	n/a	n/a	n/a	n/a	n/a	n/a
3475.4	n/a	RECOG_CONF	1737700	n/a	LTP291	ltpFR	2	1	n/a	CREW	406	n/a	2	n/a	n/a	n/a	n/a	n/a	n/a
3477.084	n/a	RECOG_TARGET	1738542	n/a	LTP291	ltpFR	2	1	0	OATS	968	1	5	0	n/a	n/a	n/a	n/a	n/a
3478.466	n/a	RECOG_RESP	1739233	n/a	LTP291	ltpFR	2	1	0	OATS	968	1	n/a	0	n/a	n/a	n/a	n/a	n/a
3479.02	n/a	RECOG_CONF	1739510	n/a	LTP291	ltpFR	2	1	0	OATS	968	n/a	5	0	n/a	n/a	n/a	n/a	n/a
3480.966	n/a	RECOG_TARGET	1740483	n/a	LTP291	ltpFR	2	1	1	HOSTESS	723	1	5	1	n/a	n/a	n/a	n/a	n/a
3481.672	n/a	RECOG_RESP	1740836	n/a	LTP291	ltpFR	2	1	1	HOSTESS	723	1	n/a	1	n/a	n/a	n/a	n/a	n/a
3482.372	n/a	RECOG_CONF	1741186	n/a	LTP291	ltpFR	2	1	1	HOSTESS	723	n/a	5	1	n/a	n/a	n/a	n/a	n/a
3484.094	n/a	RECOG_TARGET	1742047	n/a	LTP291	ltpFR	2	1	1	PALM	1007	1	4	0	n/a	n/a	n/a	n/a	n/a
3484.866	n/a	RECOG_RESP	1742433	n/a	LTP291	ltpFR	2	1	1	PALM	1007	1	n/a	0	n/a	n/a	n/a	n/a	n/a
3485.842	n/a	RECOG_CONF	1742921	n/a	LTP291	ltpFR	2	1	1	PALM	1007	n/a	4	0	n/a	n/a	n/a	n/a	n/a
3487.456	n/a	RECOG_TARGET	1743728	n/a	LTP291	ltpFR	2	1	1	MEAT	883	1	5	0	n/a	n/a	n/a	n/a	n/a
3488.036	n/a	RECOG_RESP	1744018	n/a	LTP291	ltpFR	2	1	1	MEAT	883	1	n/a	0	n/a	n/a	n/a	n/a	n/a
3488.772	n/a	RECOG_CONF	1744386	n/a	LTP291	ltpFR	2	1	1	MEAT	883	n/a	5	0	n/a	n/a	n/a	n/a	n/a
3490.366	n/a	RECOG_TARGET	1745183	n/a	LTP291	ltpFR	2	1	0	COMPUTER	359	1	5	1	n/a	n/a	n/a	n/a	n/a
3490.982	n/a	RECOG_RESP	1745491	n/a	LTP291	ltpFR	2	1	0	COMPUTER	359	1	n/a	1	n/a	n/a	n/a	n/a	n/a
3491.642	n/a	RECOG_CONF	1745821	n/a	LTP291	ltpFR	2	1	0	COMPUTER	359	n/a	5	1	n/a	n/a	n/a	n/a	n/a
3493.312	n/a	RECOG_TARGET	1746656	n/a	LTP291	ltpFR	2	1	-1	COLONEL	348	1	5	-1	n/a	n/a	n/a	n/a	n/a
3493.916	n/a	RECOG_RESP	1746958	n/a	LTP291	ltpFR	2	1	-1	COLONEL	348	1	n/a	-1	n/a	n/a	n/a	n/a	n/a
3494.482	n/a	RECOG_CONF	1747241	n/a	LTP291	ltpFR	2	1	-1	COLONEL	348	n/a	5	-1	n/a	n/a	n/a	n/a	n/a
3496.04	n/a	RECOG_TARGET	1748020	n/a	LTP291	ltpFR	2	1	1	CREATURE	403	1	5	1	n/a	n/a	n/a	n/a	n/a
3496.742	n/a	RECOG_RESP	1748371	n/a	LTP291	ltpFR	2	1	1	CREATURE	403	1	n/a	1	n/a	n/a	n/a	n/a	n/a
3497.432	n/a	RECOG_CONF	1748716	n/a	LTP291	ltpFR	2	1	1	CREATURE	403	n/a	5	1	n/a	n/a	n/a	n/a	n/a
3499.218	n/a	RECOG_TARGET	1749609	n/a	LTP291	ltpFR	2	1	0	DRUM	502	1	5	1	n/a	n/a	n/a	n/a	n/a
3499.822	n/a	RECOG_RESP	1749911	n/a	LTP291	ltpFR	2	1	0	DRUM	502	1	n/a	1	n/a	n/a	n/a	n/a	n/a
3500.302	n/a	RECOG_CONF	1750151	n/a	LTP291	ltpFR	2	1	0	DRUM	502	n/a	5	1	n/a	n/a	n/a	n/a	n/a
3501.962	n/a	RECOG_TARGET	1750981	n/a	LTP291	ltpFR	2	1	1	TUTU	1524	1	5	0	n/a	n/a	n/a	n/a	n/a
3502.488	n/a	RECOG_RESP	1751244	n/a	LTP291	ltpFR	2	1	1	TUTU	1524	1	n/a	0	n/a	n/a	n/a	n/a	n/a
3502.862	n/a	RECOG_CONF	1751431	n/a	LTP291	ltpFR	2	1	1	TUTU	1524	n/a	5	0	n/a	n/a	n/a	n/a	n/a
3504.706	n/a	RECOG_TARGET	1752353	n/a	LTP291	ltpFR	2	1	0	NECKLACE	940	1	5	1	n/a	n/a	n/a	n/a	n/a
3505.332	n/a	RECOG_RESP	1752666	n/a	LTP291	ltpFR	2	1	0	NECKLACE	940	1	n/a	1	n/a	n/a	n/a	n/a	n/a
3505.712	n/a	RECOG_CONF	1752856	n/a	LTP291	ltpFR	2	1	0	NECKLACE	940	n/a	5	1	n/a	n/a	n/a	n/a	n/a
3507.416	n/a	RECOG_TARGET	1753708	n/a	LTP291	ltpFR	2	1	-1	PUPIL	1143	1	5	-1	n/a	n/a	n/a	n/a	n/a
3508.588	n/a	RECOG_RESP	1754294	n/a	LTP291	ltpFR	2	1	-1	PUPIL	1143	1	n/a	-1	n/a	n/a	n/a	n/a	n/a
3509.432	n/a	RECOG_CONF	1754716	n/a	LTP291	ltpFR	2	1	-1	PUPIL	1143	n/a	5	-1	n/a	n/a	n/a	n/a	n/a
3511.13	n/a	RECOG_LURE	1755565	n/a	LTP291	ltpFR	2	1	n/a	VILLAGE	1566	1	4	n/a	n/a	n/a	n/a	n/a	n/a
3511.918	n/a	RECOG_RESP	1755959	n/a	LTP291	ltpFR	2	1	n/a	VILLAGE	1566	1	n/a	n/a	n/a	n/a	n/a	n/a	n/a
3512.722	n/a	RECOG_CONF	1756361	n/a	LTP291	ltpFR	2	1	n/a	VILLAGE	1566	n/a	4	n/a	n/a	n/a	n/a	n/a	n/a
3514.358	n/a	RECOG_LURE	1757179	n/a	LTP291	ltpFR	2	1	n/a	COUGAR	387	1	2	n/a	n/a	n/a	n/a	n/a	n/a
3515.168	n/a	RECOG_RESP	1757584	n/a	LTP291	ltpFR	2	1	n/a	COUGAR	387	1	n/a	n/a	n/a	n/a	n/a	n/a	n/a
3515.942	n/a	RECOG_CONF	1757971	n/a	LTP291	ltpFR	2	1	n/a	COUGAR	387	n/a	2	n/a	n/a	n/a	n/a	n/a	n/a
3517.572	n/a	RECOG_TARGET	1758786	n/a	LTP291	ltpFR	2	1	-1	BRIDGE	174	1	5	-1	n/a	n/a	n/a	n/a	n/a
3518.204	n/a	RECOG_RESP	1759102	n/a	LTP291	ltpFR	2	1	-1	BRIDGE	174	1	n/a	-1	n/a	n/a	n/a	n/a	n/a
3518.834	n/a	RECOG_CONF	1759417	n/a	LTP291	ltpFR	2	1	-1	BRIDGE	174	n/a	5	-1	n/a	n/a	n/a	n/a	n/a
3522.71	n/a	REC_START	1761355	n/a	LTP291	ltpFR	2	2	n/a	n/a	n/a	n/a	n/a	n/a	n/a	n/a	n/a	n/a	n/a
3522.758	n/a	RECOG_LURE	1761379	n/a	LTP291	ltpFR	2	2	n/a	GHETTO	633	1	2	n/a	n/a	n/a	n/a	n/a	n/a
3524.046	n/a	RECOG_RESP	1762023	n/a	LTP291	ltpFR	2	2	n/a	GHETTO	633	1	n/a	n/a	n/a	n/a	n/a	n/a	n/a
3525.18	n/a	RECOG_CONF	1762590	n/a	LTP291	ltpFR	2	2	n/a	GHETTO	633	n/a	2	n/a	n/a	n/a	n/a	n/a	n/a
3527.058	n/a	RECOG_TARGET	1763529	n/a	LTP291	ltpFR	2	2	1	ENCYCLOPEDIA	533	1	5	0	n/a	n/a	n/a	n/a	n/a
3527.8	n/a	RECOG_RESP	1763900	n/a	LTP291	ltpFR	2	2	1	ENCYCLOPEDIA	533	1	n/a	0	n/a	n/a	n/a	n/a	n/a
3528.31	n/a	RECOG_CONF	1764155	n/a	LTP291	ltpFR	2	2	1	ENCYCLOPEDIA	533	n/a	5	0	n/a	n/a	n/a	n/a	n/a
3530.002	n/a	RECOG_TARGET	1765001	n/a	LTP291	ltpFR	2	2	0	CHAMPAGNE	278	1	5	0	n/a	n/a	n/a	n/a	n/a
3530.61	n/a	RECOG_RESP	1765305	n/a	LTP291	ltpFR	2	2	0	CHAMPAGNE	278	1	n/a	0	n/a	n/a	n/a	n/a	n/a
3531.19	n/a	RECOG_CONF	1765595	n/a	LTP291	ltpFR	2	2	0	CHAMPAGNE	278	n/a	5	0	n/a	n/a	n/a	n/a	n/a
3533.064	n/a	RECOG_TARGET	1766532	n/a	LTP291	ltpFR	2	2	0	PRESIDENT	1121	1	3	1	n/a	n/a	n/a	n/a	n/a
3534.3	n/a	RECOG_RESP	1767150	n/a	LTP291	ltpFR	2	2	0	PRESIDENT	1121	1	n/a	1	n/a	n/a	n/a	n/a	n/a
3535.48	n/a	RECOG_CONF	1767740	n/a	LTP291	ltpFR	2	2	0	PRESIDENT	1121	n/a	3	1	n/a	n/a	n/a	n/a	n/a
3537.28	n/a	RECOG_LURE	1768640	n/a	LTP291	ltpFR	2	2	n/a	PERISCOPE	1050	0	3	n/a	n/a	n/a	n/a	n/a	n/a
3538.532	n/a	RECOG_RESP	1769266	n/a	LTP291	ltpFR	2	2	n/a	PERISCOPE	1050	0	n/a	n/a	n/a	n/a	n/a	n/a	n/a
3539.852	n/a	RECOG_CONF	1769926	n/a	LTP291	ltpFR	2	2	n/a	PERISCOPE	1050	n/a	3	n/a	n/a	n/a	n/a	n/a	n/a
3541.43	n/a	RECOG_TARGET	1770715	n/a	LTP291	ltpFR	2	2	1	BALCONY	72	1	5	0	n/a	n/a	n/a	n/a	n/a
3542.336	n/a	RECOG_RESP	1771168	n/a	LTP291	ltpFR	2	2	1	BALCONY	72	1	n/a	0	n/a	n/a	n/a	n/a	n/a
3542.842	n/a	RECOG_CONF	1771421	n/a	LTP291	ltpFR	2	2	1	BALCONY	72	n/a	5	0	n/a	n/a	n/a	n/a	n/a
3544.558	n/a	RECOG_TARGET	1772279	n/a	LTP291	ltpFR	2	2	1	CROCODILE	411	1	5	0	n/a	n/a	n/a	n/a	n/a
3545.306	n/a	RECOG_RESP	1772653	n/a	LTP291	ltpFR	2	2	1	CROCODILE	411	1	n/a	0	n/a	n/a	n/a	n/a	n/a
3545.722	n/a	RECOG_CONF	1772861	n/a	LTP291	ltpFR	2	2	1	CROCODILE	411	n/a	5	0	n/a	n/a	n/a	n/a	n/a
3547.486	n/a	RECOG_TARGET	1773743	n/a	LTP291	ltpFR	2	2	1	CREAM	402	1	5	0	n/a	n/a	n/a	n/a	n/a
3548.242	n/a	RECOG_RESP	1774121	n/a	LTP291	ltpFR	2	2	1	CREAM	402	1	n/a	0	n/a	n/a	n/a	n/a	n/a
3548.812	n/a	RECOG_CONF	1774406	n/a	LTP291	ltpFR	2	2	1	CREAM	402	n/a	5	0	n/a	n/a	n/a	n/a	n/a
3550.43	n/a	RECOG_TARGET	1775215	n/a	LTP291	ltpFR	2	2	-1	CAFETERIA	217	1	5	-1	n/a	n/a	n/a	n/a	n/a
3551.102	n/a	RECOG_RESP	1775551	n/a	LTP291	ltpFR	2	2	-1	CAFETERIA	217	1	n/a	-1	n/a	n/a	n/a	n/a	n/a
3551.472	n/a	RECOG_CONF	1775736	n/a	LTP291	ltpFR	2	2	-1	CAFETERIA	217	n/a	5	-1	n/a	n/a	n/a	n/a	n/a
3553.24	n/a	RECOG_TARGET	1776620	n/a	LTP291	ltpFR	2	2	1	DRIVEWAY	500	1	5	0	n/a	n/a	n/a	n/a	n/a
3553.852	n/a	RECOG_RESP	1776926	n/a	LTP291	ltpFR	2	2	1	DRIVEWAY	500	1	n/a	0	n/a	n/a	n/a	n/a	n/a
3554.272	n/a	RECOG_CONF	1777136	n/a	LTP291	ltpFR	2	2	1	DRIVEWAY	500	n/a	5	0	n/a	n/a	n/a	n/a	n/a
3556.07	n/a	RECOG_LURE	1778035	n/a	LTP291	ltpFR	2	2	n/a	JAPAN	749	0	4	n/a	n/a	n/a	n/a	n/a	n/a
3556.798	n/a	RECOG_RESP	1778399	n/a	LTP291	ltpFR	2	2	n/a	JAPAN	749	0	n/a	n/a	n/a	n/a	n/a	n/a	n/a
3557.782	n/a	RECOG_CONF	1778891	n/a	LTP291	ltpFR	2	2	n/a	JAPAN	749	n/a	4	n/a	n/a	n/a	n/a	n/a	n/a
3559.482	n/a	RECOG_TARGET	1779741	n/a	LTP291	ltpFR	2	2	0	OLIVE	975	1	5	0	n/a	n/a	n/a	n/a	n/a
3560.302	n/a	RECOG_RESP	1780151	n/a	LTP291	ltpFR	2	2	0	OLIVE	975	1	n/a	0	n/a	n/a	n/a	n/a	n/a
3560.682	n/a	RECOG_CONF	1780341	n/a	LTP291	ltpFR	2	2	0	OLIVE	975	n/a	5	0	n/a	n/a	n/a	n/a	n/a
3562.46	n/a	RECOG_LURE	1781230	n/a	LTP291	ltpFR	2	2	n/a	EYE	545	0	3	n/a	n/a	n/a	n/a	n/a	n/a
3563.408	n/a	RECOG_RESP	1781704	n/a	LTP291	ltpFR	2	2	n/a	EYE	545	0	n/a	n/a	n/a	n/a	n/a	n/a	n/a
3564.142	n/a	RECOG_CONF	1782071	n/a	LTP291	ltpFR	2	2	n/a	EYE	545	n/a	3	n/a	n/a	n/a	n/a	n/a	n/a
3565.838	n/a	RECOG_TARGET	1782919	n/a	LTP291	ltpFR	2	2	1	CHEMICAL	291	1	5	0	n/a	n/a	n/a	n/a	n/a
3566.682	n/a	RECOG_RESP	1783341	n/a	LTP291	ltpFR	2	2	1	CHEMICAL	291	1	n/a	0	n/a	n/a	n/a	n/a	n/a
3567.042	n/a	RECOG_CONF	1783521	n/a	LTP291	ltpFR	2	2	1	CHEMICAL	291	n/a	5	0	n/a	n/a	n/a	n/a	n/a
3568.784	n/a	RECOG_TARGET	1784392	n/a	LTP291	ltpFR	2	2	-1	VETERAN	1561	1	5	-1	n/a	n/a	n/a	n/a	n/a
3569.518	n/a	RECOG_RESP	1784759	n/a	LTP291	ltpFR	2	2	-1	VETERAN	1561	1	n/a	-1	n/a	n/a	n/a	n/a	n/a
3569.892	n/a	RECOG_CONF	1784946	n/a	LTP291	ltpFR	2	2	-1	VETERAN	1561	n/a	5	-1	n/a	n/a	n/a	n/a	n/a
3571.544	n/a	RECOG_TARGET	1785772	n/a	LTP291	ltpFR	2	2	-1	ATLAS	53	1	5	-1	n/a	n/a	n/a	n/a	n/a
3572.262	n/a	RECOG_RESP	1786131	n/a	LTP291	ltpFR	2	2	-1	ATLAS	53	1	n/a	-1	n/a	n/a	n/a	n/a	n/a
3572.928	n/a	RECOG_CONF	1786464	n/a	LTP291	ltpFR	2	2	-1	ATLAS	53	n/a	5	-1	n/a	n/a	n/a	n/a	n/a
3574.32	n/a	RECOG_LURE	1787160	n/a	LTP291	ltpFR	2	2	n/a	DWARF	510	0	3	n/a	n/a	n/a	n/a	n/a	n/a
3575.324	n/a	RECOG_RESP	1787662	n/a	LTP291	ltpFR	2	2	n/a	DWARF	510	0	n/a	n/a	n/a	n/a	n/a	n/a	n/a
3575.834	n/a	RECOG_CONF	1787917	n/a	LTP291	ltpFR	2	2	n/a	DWARF	510	n/a	3	n/a	n/a	n/a	n/a	n/a	n/a
3577.484	n/a	RECOG_TARGET	1788742	n/a	LTP291	ltpFR	2	2	0	SERGEANT	1269	1	4	1	n/a	n/a	n/a	n/a	n/a
3578.244	n/a	RECOG_RESP	1789122	n/a	LTP291	ltpFR	2	2	0	SERGEANT	1269	1	n/a	1	n/a	n/a	n/a	n/a	n/a
3578.924	n/a	RECOG_CONF	1789462	n/a	LTP291	ltpFR	2	2	0	SERGEANT	1269	n/a	4	1	n/a	n/a	n/a	n/a	n/a
3580.462	n/a	RECOG_TARGET	1790231	n/a	LTP291	ltpFR	2	2	1	DAM	436	1	4	0	n/a	n/a	n/a	n/a	n/a
3581.224	n/a	RECOG_RESP	1790612	n/a	LTP291	ltpFR	2	2	1	DAM	436	1	n/a	0	n/a	n/a	n/a	n/a	n/a
3581.712	n/a	RECOG_CONF	1790856	n/a	LTP291	ltpFR	2	2	1	DAM	436	n/a	4	0	n/a	n/a	n/a	n/a	n/a
3583.172	n/a	RECOG_TARGET	1791586	n/a	LTP291	ltpFR	2	2	-1	CAPTAIN	239	1	4	-1	n/a	n/a	n/a	n/a	n/a
3583.848	n/a	RECOG_RESP	1791924	n/a	LTP291	ltpFR	2	2	-1	CAPTAIN	239	1	n/a	-1	n/a	n/a	n/a	n/a	n/a
3584.274	n/a	RECOG_CONF	1792137	n/a	LTP291	ltpFR	2	2	-1	CAPTAIN	239	n/a	4	-1	n/a	n/a	n/a	n/a	n/a
3587.344	n/a	REC_START	1793672	n/a	LTP291	ltpFR	2	3	n/a	n/a	n/a	n/a	n/a	n/a	n/a	n/a	n/a	n/a	n/a
3587.404	n/a	RECOG_LURE	1793702	n/a	LTP291	ltpFR	2	3	n/a	EMERALD	528	0	3	n/a	n/a	n/a	n/a	n/a	n/a
3588.51	n/a	RECOG_RESP	1794255	n/a	LTP291	ltpFR	2	3	n/a	EMERALD	528	0	n/a	n/a	n/a	n/a	n/a	n/a	n/a
3589.334	n/a	RECOG_CONF	1794667	n/a	LTP291	ltpFR	2	3	n/a	EMERALD	528	n/a	3	n/a	n/a	n/a	n/a	n/a	n/a
3590.886	n/a	RECOG_TARGET	1795443	n/a	LTP291	ltpFR	2	3	0	RAFT	1159	0	3	1	n/a	n/a	n/a	n/a	n/a
3591.854	n/a	RECOG_RESP	1795927	n/a	LTP291	ltpFR	2	3	0	RAFT	1159	0	n/a	1	n/a	n/a	n/a	n/a	n/a
3592.674	n/a	RECOG_CONF	1796337	n/a	LTP291	ltpFR	2	3	0	RAFT	1159	n/a	3	1	n/a	n/a	n/a	n/a	n/a
3594.398	n/a	RECOG_TARGET	1797199	n/a	LTP291	ltpFR	2	3	0	GROUND	666	1	5	1	n/a	n/a	n/a	n/a	n/a
3595.126	n/a	RECOG_RESP	1797563	n/a	LTP291	ltpFR	2	3	0	GROUND	666	1	n/a	1	n/a	n/a	n/a	n/a	n/a
3595.66	n/a	RECOG_CONF	1797830	n/a	LTP291	ltpFR	2	3	0	GROUND	666	n/a	5	1	n/a	n/a	n/a	n/a	n/a
3597.292	n/a	RECOG_TARGET	1798646	n/a	LTP291	ltpFR	2	3	1	EDITORIAL	517	1	4	0	n/a	n/a	n/a	n/a	n/a
3597.876	n/a	RECOG_RESP	1798938	n/a	LTP291	ltpFR	2	3	1	EDITORIAL	517	1	n/a	0	n/a	n/a	n/a	n/a	n/a
3598.646	n/a	RECOG_CONF	1799323	n/a	LTP291	ltpFR	2	3	1	EDITORIAL	517	n/a	4	0	n/a	n/a	n/a	n/a	n/a
3600.304	n/a	RECOG_TARGET	1800152	n/a	LTP291	ltpFR	2	3	1	FIST	572	1	5	0	n/a	n/a	n/a	n/a	n/a
3600.926	n/a	RECOG_RESP	1800463	n/a	LTP291	ltpFR	2	3	1	FIST	572	1	n/a	0	n/a	n/a	n/a	n/a	n/a
3601.46	n/a	RECOG_CONF	1800730	n/a	LTP291	ltpFR	2	3	1	FIST	572	n/a	5	0	n/a	n/a	n/a	n/a	n/a
3603.016	n/a	RECOG_LURE	1801508	n/a	LTP291	ltpFR	2	3	n/a	CHIEF	298	1	4	n/a	n/a	n/a	n/a	n/a	n/a
3603.716	n/a	RECOG_RESP	1801858	n/a	LTP291	ltpFR	2	3	n/a	CHIEF	298	1	n/a	n/a	n/a	n/a	n/a	n/a	n/a
3604.136	n/a	RECOG_CONF	1802068	n/a	LTP291	ltpFR	2	3	n/a	CHIEF	298	n/a	4	n/a	n/a	n/a	n/a	n/a	n/a
3605.724	n/a	RECOG_TARGET	1802862	n/a	LTP291	ltpFR	2	3	0	MARSH	874	1	4	1	n/a	n/a	n/a	n/a	n/a
3606.476	n/a	RECOG_RESP	1803238	n/a	LTP291	ltpFR	2	3	0	MARSH	874	1	n/a	1	n/a	n/a	n/a	n/a	n/a
3606.986	n/a	RECOG_CONF	1803493	n/a	LTP291	ltpFR	2	3	0	MARSH	874	n/a	4	1	n/a	n/a	n/a	n/a	n/a
3608.534	n/a	RECOG_TARGET	1804267	n/a	LTP291	ltpFR	2	3	-1	FURNITURE	616	1	5	-1	n/a	n/a	n/a	n/a	n/a
3609.15	n/a	RECOG_RESP	1804575	n/a	LTP291	ltpFR	2	3	-1	FURNITURE	616	1	n/a	-1	n/a	n/a	n/a	n/a	n/a
3609.446	n/a	RECOG_CONF	1804723	n/a	LTP291	ltpFR	2	3	-1	FURNITURE	616	n/a	5	-1	n/a	n/a	n/a	n/a	n/a
3611.046	n/a	RECOG_TARGET	1805523	n/a	LTP291	ltpFR	2	3	-1	BEAR	106	1	5	-1	n/a	n/a	n/a	n/a	n/a
3611.616	n/a	RECOG_RESP	1805808	n/a	LTP291	ltpFR	2	3	-1	BEAR	106	1	n/a	-1	n/a	n/a	n/a	n/a	n/a
3611.976	n/a	RECOG_CONF	1805988	n/a	LTP291	ltpFR	2	3	-1	BEAR	106	n/a	5	-1	n/a	n/a	n/a	n/a	n/a
3613.64	n/a	RECOG_TARGET	1806820	n/a	LTP291	ltpFR	2	3	1	PEDESTRIAN	1038	1	4	1	n/a	n/a	n/a	n/a	n/a
3614.266	n/a	RECOG_RESP	1807133	n/a	LTP291	ltpFR	2	3	1	PEDESTRIAN	1038	1	n/a	1	n/a	n/a	n/a	n/a	n/a
3614.656	n/a	RECOG_CONF	1807328	n/a	LTP291	ltpFR	2	3	1	PEDESTRIAN	1038	n/a	4	1	n/a	n/a	n/a	n/a	n/a
3616.5	n/a	RECOG_LURE	1808250	n/a	LTP291	ltpFR	2	3	n/a	ANGEL	22	1	3	n/a	n/a	n/a	n/a	n/a	n/a
3617.046	n/a	RECOG_RESP	1808523	n/a	LTP291	ltpFR	2	3	n/a	ANGEL	22	1	n/a	n/a	n/a	n/a	n/a	n/a	n/a
3617.436	n/a	RECOG_RESP_VV	1808718	n/a	LTP291	ltpFR	2	3	n/a	ANGEL	22	n/a	4	n/a	n/a	n/a	n/a	n/a	n/a
3618.248	n/a	RECOG_CONF	1809124	n/a	LTP291	ltpFR	2	3	n/a	ANGEL	22	n/a	3	n/a	n/a	n/a	n/a	n/a	n/a
3619.896	n/a	RECOG_LURE	1809948	n/a	LTP291	ltpFR	2	3	n/a	KIDNEY	776	1	3	n/a	n/a	n/a	n/a	n/a	n/a
3620.782	n/a	RECOG_RESP	1810391	n/a	LTP291	ltpFR	2	3	n/a	KIDNEY	776	1	n/a	n/a	n/a	n/a	n/a	n/a	n/a
3621.306	n/a	RECOG_CONF	1810653	n/a	LTP291	ltpFR	2	3	n/a	KIDNEY	776	n/a	3	n/a	n/a	n/a	n/a	n/a	n/a
3622.824	n/a	RECOG_TARGET	1811412	n/a	LTP291	ltpFR	2	3	0	PORK	1108	1	5	1	n/a	n/a	n/a	n/a	n/a
3623.472	n/a	RECOG_RESP	1811736	n/a	LTP291	ltpFR	2	3	0	PORK	1108	1	n/a	1	n/a	n/a	n/a	n/a	n/a
3623.776	n/a	RECOG_CONF	1811888	n/a	LTP291	ltpFR	2	3	0	PORK	1108	n/a	5	1	n/a	n/a	n/a	n/a	n/a
3625.382	n/a	RECOG_TARGET	1812691	n/a	LTP291	ltpFR	2	3	-1	POOL	1103	1	4	-1	n/a	n/a	n/a	n/a	n/a
3626.096	n/a	RECOG_RESP	1813048	n/a	LTP291	ltpFR	2	3	-1	POOL	1103	1	n/a	-1	n/a	n/a	n/a	n/a	n/a
3626.736	n/a	RECOG_CONF	1813368	n/a	LTP291	ltpFR	2	3	-1	POOL	1103	n/a	4	-1	n/a	n/a	n/a	n/a	n/a
3628.378	n/a	RECOG_TARGET	1814189	n/a	LTP291	ltpFR	2	3	0	FUGITIVE	612	0	3	1	n/a	n/a	n/a	n/a	n/a
3629.446	n/a	RECOG_RESP	1814723	n/a	LTP291	ltpFR	2	3	0	FUGITIVE	612	0	n/a	1	n/a	n/a	n/a	n/a	n/a
3630.126	n/a	RECOG_CONF	1815063	n/a	LTP291	ltpFR	2	3	0	FUGITIVE	612	n/a	3	1	n/a	n/a	n/a	n/a	n/a
3631.824	n/a	RECOG_TARGET	1815912	n/a	LTP291	ltpFR	2	3	0	WAITER	1580	1	5	1	n/a	n/a	n/a	n/a	n/a
3632.702	n/a	RECOG_RESP	1816351	n/a	LTP291	ltpFR	2	3	0	WAITER	1580	1	n/a	1	n/a	n/a	n/a	n/a	n/a
3633.108	n/a	RECOG_CONF	1816554	n/a	LTP291	ltpFR	2	3	0	WAITER	1580	n/a	5	1	n/a	n/a	n/a	n/a	n/a
3634.92	n/a	RECOG_TARGET	1817460	n/a	LTP291	ltpFR	2	3	-1	PLIERS	1089	0	3	-1	n/a	n/a	n/a	n/a	n/a
3636.162	n/a	RECOG_RESP	1818081	n/a	LTP291	ltpFR	2	3	-1	PLIERS	1089	0	n/a	-1	n/a	n/a	n/a	n/a	n/a
3637.488	n/a	RECOG_CONF	1818744	n/a	LTP291	ltpFR	2	3	-1	PLIERS	1089	n/a	3	-1	n/a	n/a	n/a	n/a	n/a
3639.588	n/a	RECOG_TARGET	1819794	n/a	LTP291	ltpFR	2	3	0	VOLLEYBALL	1576	1	5	1	n/a	n/a	n/a	n/a	n/a
3640.318	n/a	RECOG_RESP	1820159	n/a	LTP291	ltpFR	2	3	0	VOLLEYBALL	1576	1	n/a	1	n/a	n/a	n/a	n/a	n/a
3640.718	n/a	RECOG_CONF	1820359	n/a	LTP291	ltpFR	2	3	0	VOLLEYBALL	1576	n/a	5	1	n/a	n/a	n/a	n/a	n/a
3642.432	n/a	RECOG_TARGET	1821216	n/a	LTP291	ltpFR	2	3	0	BERRY	122	1	5	0	n/a	n/a	n/a	n/a	n/a
3643.012	n/a	RECOG_RESP	1821506	n/a	LTP291	ltpFR	2	3	0	BERRY	122	1	n/a	0	n/a	n/a	n/a	n/a	n/a
3643.368	n/a	RECOG_CONF	1821684	n/a	LTP291	ltpFR	2	3	0	BERRY	122	n/a	5	0	n/a	n/a	n/a	n/a	n/a
3645.192	n/a	RECOG_LURE	1822596	n/a	LTP291	ltpFR	2	3	n/a	PEBBLE	1035	0	3	n/a	n/a	n/a	n/a	n/a	n/a
3645.998	n/a	RECOG_RESP	1822999	n/a	LTP291	ltpFR	2	3	n/a	PEBBLE	1035	0	n/a	n/a	n/a	n/a	n/a	n/a	n/a
3647.448	n/a	RECOG_CONF	1823724	n/a	LTP291	ltpFR	2	3	n/a	PEBBLE	1035	n/a	3	n/a	n/a	n/a	n/a	n/a	n/a
3650.862	n/a	REC_START	1825431	n/a	LTP291	ltpFR	2	4	n/a	n/a	n/a	n/a	n/a	n/a	n/a	n/a	n/a	n/a	n/a
3650.916	n/a	RECOG_TARGET	1825458	n/a	LTP291	ltpFR	2	4	-1	BIRD	129	1	3	-1	n/a	n/a	n/a	n/a	n/a
3651.688	n/a	RECOG_RESP	1825844	n/a	LTP291	ltpFR	2	4	-1	BIRD	129	1	n/a	-1	n/a	n/a	n/a	n/a	n/a
3652.372	n/a	RECOG_CONF	1826186	n/a	LTP291	ltpFR	2	4	-1	BIRD	129	n/a	3	-1	n/a	n/a	n/a	n/a	n/a
3654.044	n/a	RECOG_TARGET	1827022	n/a	LTP291	ltpFR	2	4	1	SEA	1259	1	4	0	n/a	n/a	n/a	n/a	n/a
3654.612	n/a	RECOG_RESP	1827306	n/a	LTP291	ltpFR	2	4	1	SEA	1259	1	n/a	0	n/a	n/a	n/a	n/a	n/a
3655.522	n/a	RECOG_CONF	1827761	n/a	LTP291	ltpFR	2	4	1	SEA	1259	n/a	4	0	n/a	n/a	n/a	n/a	n/a
3657.022	n/a	RECOG_TARGET	1828511	n/a	LTP291	ltpFR	2	4	0	OBOE	969	1	5	1	n/a	n/a	n/a	n/a	n/a
3657.752	n/a	RECOG_RESP	1828876	n/a	LTP291	ltpFR	2	4	0	OBOE	969	1	n/a	1	n/a	n/a	n/a	n/a	n/a
3658.192	n/a	RECOG_CONF	1829096	n/a	LTP291	ltpFR	2	4	0	OBOE	969	n/a	5	1	n/a	n/a	n/a	n/a	n/a
3659.882	n/a	RECOG_TARGET	1829941	n/a	LTP291	ltpFR	2	4	1	BUG	187	1	4	1	n/a	n/a	n/a	n/a	n/a
3660.388	n/a	RECOG_RESP	1830194	n/a	LTP291	ltpFR	2	4	1	BUG	187	1	n/a	1	n/a	n/a	n/a	n/a	n/a
3661.132	n/a	RECOG_CONF	1830566	n/a	LTP291	ltpFR	2	4	1	BUG	187	n/a	4	1	n/a	n/a	n/a	n/a	n/a
3662.794	n/a	RECOG_LURE	1831397	n/a	LTP291	ltpFR	2	4	n/a	BUILDING	191	0	3	n/a	n/a	n/a	n/a	n/a	n/a
3663.938	n/a	RECOG_RESP	1831969	n/a	LTP291	ltpFR	2	4	n/a	BUILDING	191	0	n/a	n/a	n/a	n/a	n/a	n/a	n/a
3665.162	n/a	RECOG_CONF	1832581	n/a	LTP291	ltpFR	2	4	n/a	BUILDING	191	n/a	3	n/a	n/a	n/a	n/a	n/a	n/a
3667.092	n/a	RECOG_LURE	1833546	n/a	LTP291	ltpFR	2	4	n/a	KITTEN	780	0	4	n/a	n/a	n/a	n/a	n/a	n/a
3667.978	n/a	RECOG_RESP	1833989	n/a	LTP291	ltpFR	2	4	n/a	KITTEN	780	0	n/a	n/a	n/a	n/a	n/a	n/a	n/a
3669.654	n/a	RECOG_CONF	1834827	n/a	LTP291	ltpFR	2	4	n/a	KITTEN	780	n/a	4	n/a	n/a	n/a	n/a	n/a	n/a
3671.578	n/a	RECOG_LURE	1835789	n/a	LTP291	ltpFR	2	4	n/a	BRANCH	168	1	4	n/a	n/a	n/a	n/a	n/a	n/a
3672.848	n/a	RECOG_RESP	1836424	n/a	LTP291	ltpFR	2	4	n/a	BRANCH	168	1	n/a	n/a	n/a	n/a	n/a	n/a	n/a
3673.544	n/a	RECOG_CONF	1836772	n/a	LTP291	ltpFR	2	4	n/a	BRANCH	168	n/a	4	n/a	n/a	n/a	n/a	n/a	n/a
3675.174	n/a	RECOG_TARGET	1837587	n/a	LTP291	ltpFR	2	4	-1	CYCLONE	431	1	5	-1	n/a	n/a	n/a	n/a	n/a
3675.838	n/a	RECOG_RESP	1837919	n/a	LTP291	ltpFR	2	4	-1	CYCLONE	431	1	n/a	-1	n/a	n/a	n/a	n/a	n/a
3676.204	n/a	RECOG_CONF	1838102	n/a	LTP291	ltpFR	2	4	-1	CYCLONE	431	n/a	5	-1	n/a	n/a	n/a	n/a	n/a
3677.768	n/a	RECOG_TARGET	1838884	n/a	LTP291	ltpFR	2	4	1	BUTTER	205	1	5	0	n/a	n/a	n/a	n/a	n/a
3678.418	n/a	RECOG_RESP	1839209	n/a	LTP291	ltpFR	2	4	1	BUTTER	205	1	n/a	0	n/a	n/a	n/a	n/a	n/a
3678.774	n/a	RECOG_CONF	1839387	n/a	LTP291	ltpFR	2	4	1	BUTTER	205	n/a	5	0	n/a	n/a	n/a	n/a	n/a
3680.424	n/a	RECOG_LURE	1840212	n/a	LTP291	ltpFR	2	4	n/a	COPIER	377	0	4	n/a	n/a	n/a	n/a	n/a	n/a
3681.174	n/a	RECOG_RESP	1840587	n/a	LTP291	ltpFR	2	4	n/a	COPIER	377	0	n/a	n/a	n/a	n/a	n/a	n/a	n/a
3682.454	n/a	RECOG_CONF	1841227	n/a	LTP291	ltpFR	2	4	n/a	COPIER	377	n/a	4	n/a	n/a	n/a	n/a	n/a	n/a
3683.99	n/a	RECOG_TARGET	1841995	n/a	LTP291	ltpFR	2	4	0	PENGUIN	1044	1	5	1	n/a	n/a	n/a	n/a	n/a
3684.744	n/a	RECOG_RESP	1842372	n/a	LTP291	ltpFR	2	4	0	PENGUIN	1044	1	n/a	1	n/a	n/a	n/a	n/a	n/a
3685.114	n/a	RECOG_CONF	1842557	n/a	LTP291	ltpFR	2	4	0	PENGUIN	1044	n/a	5	1	n/a	n/a	n/a	n/a	n/a
3686.836	n/a	RECOG_LURE	1843418	n/a	LTP291	ltpFR	2	4	n/a	CENT	270	0	3	n/a	n/a	n/a	n/a	n/a	n/a
3687.558	n/a	RECOG_RESP	1843779	n/a	LTP291	ltpFR	2	4	n/a	CENT	270	0	n/a	n/a	n/a	n/a	n/a	n/a	n/a
3689.224	n/a	RECOG_CONF	1844612	n/a	LTP291	ltpFR	2	4	n/a	CENT	270	n/a	3	n/a	n/a	n/a	n/a	n/a	n/a
3691.1	n/a	RECOG_TARGET	1845550	n/a	LTP291	ltpFR	2	4	0	POLICE	1098	1	4	1	n/a	n/a	n/a	n/a	n/a
3691.95	n/a	RECOG_RESP	1845975	n/a	LTP291	ltpFR	2	4	0	POLICE	1098	1	n/a	1	n/a	n/a	n/a	n/a	n/a
3692.524	n/a	RECOG_CONF	1846262	n/a	LTP291	ltpFR	2	4	0	POLICE	1098	n/a	4	1	n/a	n/a	n/a	n/a	n/a
3694.046	n/a	RECOG_LURE	1847023	n/a	LTP291	ltpFR	2	4	n/a	THERMOMETER	1453	0	4	n/a	n/a	n/a	n/a	n/a	n/a
3694.79	n/a	RECOG_RESP	1847395	n/a	LTP291	ltpFR	2	4	n/a	THERMOMETER	1453	0	n/a	n/a	n/a	n/a	n/a	n/a	n/a
3696.104	n/a	RECOG_CONF	1848052	n/a	LTP291	ltpFR	2	4	n/a	THERMOMETER	1453	n/a	4	n/a	n/a	n/a	n/a	n/a	n/a
3697.878	n/a	RECOG_TARGET	1848939	n/a	LTP291	ltpFR	2	4	1	SCOUT	1252	0	4	0	n/a	n/a	n/a	n/a	n/a
3698.7	n/a	RECOG_RESP	1849350	n/a	LTP291	ltpFR	2	4	1	SCOUT	1252	0	n/a	0	n/a	n/a	n/a	n/a	n/a
3699.294	n/a	RECOG_CONF	1849647	n/a	LTP291	ltpFR	2	4	1	SCOUT	1252	n/a	4	0	n/a	n/a	n/a	n/a	n/a
3700.806	n/a	RECOG_LURE	1850403	n/a	LTP291	ltpFR	2	4	n/a	DISC	473	0	4	n/a	n/a	n/a	n/a	n/a	n/a
3701.434	n/a	RECOG_RESP	1850717	n/a	LTP291	ltpFR	2	4	n/a	DISC	473	0	n/a	n/a	n/a	n/a	n/a	n/a	n/a
3701.924	n/a	RECOG_CONF	1850962	n/a	LTP291	ltpFR	2	4	n/a	DISC	473	n/a	4	n/a	n/a	n/a	n/a	n/a	n/a
3703.648	n/a	RECOG_TARGET	1851824	n/a	LTP291	ltpFR	2	4	1	MINER	896	0	2	1	n/a	n/a	n/a	n/a	n/a
3704.254	n/a	RECOG_RESP	1852127	n/a	LTP291	ltpFR	2	4	1	MINER	896	0	n/a	1	n/a	n/a	n/a	n/a	n/a
3705.464	n/a	RECOG_CONF	1852732	n/a	LTP291	ltpFR	2	4	1	MINER	896	n/a	2	1	n/a	n/a	n/a	n/a	n/a
3707.096	n/a	RECOG_LURE	1853548	n/a	LTP291	ltpFR	2	4	n/a	PROTON	1132	0	5	n/a	n/a	n/a	n/a	n/a	n/a
3708.106	n/a	RECOG_RESP	1854053	n/a	LTP291	ltpFR	2	4	n/a	PROTON	1132	0	n/a	n/a	n/a	n/a	n/a	n/a	n/a
3708.666	n/a	RECOG_CONF	1854333	n/a	LTP291	ltpFR	2	4	n/a	PROTON	1132	n/a	5	n/a	n/a	n/a	n/a	n/a	n/a
3710.274	n/a	RECOG_TARGET	1855137	n/a	LTP291	ltpFR	2	4	1	CUBE	420	1	5	0	n/a	n/a	n/a	n/a	n/a
3711.46	n/a	RECOG_RESP	1855730	n/a	LTP291	ltpFR	2	4	1	CUBE	420	1	n/a	0	n/a	n/a	n/a	n/a	n/a
3712.326	n/a	RECOG_CONF	1856163	n/a	LTP291	ltpFR	2	4	1	CUBE	420	n/a	5	0	n/a	n/a	n/a	n/a	n/a
3714.038	n/a	RECOG_TARGET	1857019	n/a	LTP291	ltpFR	2	4	0	BARREL	91	1	5	1	n/a	n/a	n/a	n/a	n/a
3714.65	n/a	RECOG_RESP	1857325	n/a	LTP291	ltpFR	2	4	0	BARREL	91	1	n/a	1	n/a	n/a	n/a	n/a	n/a
3715.026	n/a	RECOG_CONF	1857513	n/a	LTP291	ltpFR	2	4	0	BARREL	91	n/a	5	1	n/a	n/a	n/a	n/a	n/a
3719.326	n/a	REC_START	1859663	n/a	LTP291	ltpFR	2	5	n/a	n/a	n/a	n/a	n/a	n/a	n/a	n/a	n/a	n/a	n/a
3719.376	n/a	RECOG_TARGET	1859688	n/a	LTP291	ltpFR	2	5	1	MAGAZINE	853	1	5	0	n/a	n/a	n/a	n/a	n/a
3720.13	n/a	RECOG_RESP	1860065	n/a	LTP291	ltpFR	2	5	1	MAGAZINE	853	1	n/a	0	n/a	n/a	n/a	n/a	n/a
3720.526	n/a	RECOG_CONF	1860263	n/a	LTP291	ltpFR	2	5	1	MAGAZINE	853	n/a	5	0	n/a	n/a	n/a	n/a	n/a
3722.252	n/a	RECOG_TARGET	1861126	n/a	LTP291	ltpFR	2	5	0	BANDIT	81	1	4	1	n/a	n/a	n/a	n/a	n/a
3722.92	n/a	RECOG_RESP	1861460	n/a	LTP291	ltpFR	2	5	0	BANDIT	81	1	n/a	1	n/a	n/a	n/a	n/a	n/a
3723.396	n/a	RECOG_CONF	1861698	n/a	LTP291	ltpFR	2	5	0	BANDIT	81	n/a	4	1	n/a	n/a	n/a	n/a	n/a
3725.13	n/a	RECOG_TARGET	1862565	n/a	LTP291	ltpFR	2	5	1	ORANGE	980	1	2	1	n/a	n/a	n/a	n/a	n/a
3725.746	n/a	RECOG_RESP	1862873	n/a	LTP291	ltpFR	2	5	1	ORANGE	980	1	n/a	1	n/a	n/a	n/a	n/a	n/a
3726.696	n/a	RECOG_CONF	1863348	n/a	LTP291	ltpFR	2	5	1	ORANGE	980	n/a	2	1	n/a	n/a	n/a	n/a	n/a
3728.41	n/a	RECOG_TARGET	1864205	n/a	LTP291	ltpFR	2	5	0	WORKER	1621	1	4	1	n/a	n/a	n/a	n/a	n/a
3729.126	n/a	RECOG_RESP	1864563	n/a	LTP291	ltpFR	2	5	0	WORKER	1621	1	n/a	1	n/a	n/a	n/a	n/a	n/a
3729.816	n/a	RECOG_CONF	1864908	n/a	LTP291	ltpFR	2	5	0	WORKER	1621	n/a	4	1	n/a	n/a	n/a	n/a	n/a
3731.656	n/a	RECOG_LURE	1865828	n/a	LTP291	ltpFR	2	5	n/a	FRIAR	605	0	3	n/a	n/a	n/a	n/a	n/a	n/a
3732.392	n/a	RECOG_RESP	1866196	n/a	LTP291	ltpFR	2	5	n/a	FRIAR	605	0	n/a	n/a	n/a	n/a	n/a	n/a	n/a
3733.736	n/a	RECOG_CONF	1866868	n/a	LTP291	ltpFR	2	5	n/a	FRIAR	605	n/a	3	n/a	n/a	n/a	n/a	n/a	n/a
3735.656	n/a	RECOG_TARGET	1867828	n/a	LTP291	ltpFR	2	5	-1	ARCHITECT	36	1	5	-1	n/a	n/a	n/a	n/a	n/a
3736.572	n/a	RECOG_RESP	1868286	n/a	LTP291	ltpFR	2	5	-1	ARCHITECT	36	1	n/a	-1	n/a	n/a	n/a	n/a	n/a
3737.046	n/a	RECOG_CONF	1868523	n/a	LTP291	ltpFR	2	5	-1	ARCHITECT	36	n/a	5	-1	n/a	n/a	n/a	n/a	n/a
3738.784	n/a	RECOG_TARGET	1869392	n/a	LTP291	ltpFR	2	5	1	RECORD	1176	1	3	0	n/a	n/a	n/a	n/a	n/a
3739.582	n/a	RECOG_RESP	1869791	n/a	LTP291	ltpFR	2	5	1	RECORD	1176	1	n/a	0	n/a	n/a	n/a	n/a	n/a
3740.726	n/a	RECOG_CONF	1870363	n/a	LTP291	ltpFR	2	5	1	RECORD	1176	n/a	3	0	n/a	n/a	n/a	n/a	n/a
3742.95	n/a	RECOG_TARGET	1871475	n/a	LTP291	ltpFR	2	5	0	SERPENT	1270	1	5	1	n/a	n/a	n/a	n/a	n/a
3743.562	n/a	RECOG_RESP	1871781	n/a	LTP291	ltpFR	2	5	0	SERPENT	1270	1	n/a	1	n/a	n/a	n/a	n/a	n/a
3744.186	n/a	RECOG_CONF	1872093	n/a	LTP291	ltpFR	2	5	0	SERPENT	1270	n/a	5	1	n/a	n/a	n/a	n/a	n/a
3746.028	n/a	RECOG_TARGET	1873014	n/a	LTP291	ltpFR	2	5	-1	GARDEN	623	1	4	-1	n/a	n/a	n/a	n/a	n/a
3746.882	n/a	RECOG_RESP	1873441	n/a	LTP291	ltpFR	2	5	-1	GARDEN	623	1	n/a	-1	n/a	n/a	n/a	n/a	n/a
3747.518	n/a	RECOG_CONF	1873759	n/a	LTP291	ltpFR	2	5	-1	GARDEN	623	n/a	4	-1	n/a	n/a	n/a	n/a	n/a
3749.19	n/a	RECOG_LURE	1874595	n/a	LTP291	ltpFR	2	5	n/a	ANT	25	0	3	n/a	n/a	n/a	n/a	n/a	n/a
3750.042	n/a	RECOG_RESP	1875021	n/a	LTP291	ltpFR	2	5	n/a	ANT	25	0	n/a	n/a	n/a	n/a	n/a	n/a	n/a
3750.648	n/a	RECOG_CONF	1875324	n/a	LTP291	ltpFR	2	5	n/a	ANT	25	n/a	3	n/a	n/a	n/a	n/a	n/a	n/a
3752.368	n/a	RECOG_TARGET	1876184	n/a	LTP291	ltpFR	2	5	0	BLOCKADE	137	1	5	1	n/a	n/a	n/a	n/a	n/a
3753.218	n/a	RECOG_RESP_VV	1876609	n/a	LTP291	ltpFR	2	5	0	BLOCKADE	137	0	n/a	1	n/a	n/a	n/a	n/a	n/a
3753.722	n/a	RECOG_RESP	1876861	n/a	LTP291	ltpFR	2	5	0	BLOCKADE	137	1	n/a	1	n/a	n/a	n/a	n/a	n/a
3754.368	n/a	RECOG_CONF	1877184	n/a	LTP291	ltpFR	2	5	0	BLOCKADE	137	n/a	5	1	n/a	n/a	n/a	n/a	n/a
3756.016	n/a	RECOG_LURE	1878008	n/a	LTP291	ltpFR	2	5	n/a	BAND	78	0	3	n/a	n/a	n/a	n/a	n/a	n/a
3756.902	n/a	RECOG_RESP	1878451	n/a	LTP291	ltpFR	2	5	n/a	BAND	78	0	n/a	n/a	n/a	n/a	n/a	n/a	n/a
3757.968	n/a	RECOG_CONF	1878984	n/a	LTP291	ltpFR	2	5	n/a	BAND	78	n/a	3	n/a	n/a	n/a	n/a	n/a	n/a
3759.73	n/a	RECOG_TARGET	1879865	n/a	LTP291	ltpFR	2	5	0	DRILL	497	1	5	0	n/a	n/a	n/a	n/a	n/a
3760.392	n/a	RECOG_RESP	1880196	n/a	LTP291	ltpFR	2	5	0	DRILL	497	1	n/a	0	n/a	n/a	n/a	n/a	n/a
3761.058	n/a	RECOG_CONF	1880529	n/a	LTP291	ltpFR	2	5	0	DRILL	497	n/a	5	0	n/a	n/a	n/a	n/a	n/a
3762.91	n/a	RECOG_TARGET	1881455	n/a	LTP291	ltpFR	2	5	0	SCARF	1246	1	5	0	n/a	n/a	n/a	n/a	n/a
3763.668	n/a	RECOG_RESP	1881834	n/a	LTP291	ltpFR	2	5	0	SCARF	1246	1	n/a	0	n/a	n/a	n/a	n/a	n/a
3764.078	n/a	RECOG_CONF	1882039	n/a	LTP291	ltpFR	2	5	0	SCARF	1246	n/a	5	0	n/a	n/a	n/a	n/a	n/a
3765.822	n/a	RECOG_TARGET	1882911	n/a	LTP291	ltpFR	2	5	1	BREAD	170	1	5	0	n/a	n/a	n/a	n/a	n/a
3766.354	n/a	RECOG_RESP	1883177	n/a	LTP291	ltpFR	2	5	1	BREAD	170	1	n/a	0	n/a	n/a	n/a	n/a	n/a
3766.838	n/a	RECOG_CONF	1883419	n/a	LTP291	ltpFR	2	5	1	BREAD	170	n/a	5	0	n/a	n/a	n/a	n/a	n/a
3768.53	n/a	RECOG_TARGET	1884265	n/a	LTP291	ltpFR	2	5	0	BRAKE	166	1	5	1	n/a	n/a	n/a	n/a	n/a
3769.238	n/a	RECOG_RESP	1884619	n/a	LTP291	ltpFR	2	5	0	BRAKE	166	1	n/a	1	n/a	n/a	n/a	n/a	n/a
3769.528	n/a	RECOG_CONF	1884764	n/a	LTP291	ltpFR	2	5	0	BRAKE	166	n/a	5	1	n/a	n/a	n/a	n/a	n/a
3771.408	n/a	RECOG_TARGET	1885704	n/a	LTP291	ltpFR	2	5	0	COOKBOOK	373	1	5	0	n/a	n/a	n/a	n/a	n/a
3772.074	n/a	RECOG_RESP	1886037	n/a	LTP291	ltpFR	2	5	0	COOKBOOK	373	1	n/a	0	n/a	n/a	n/a	n/a	n/a
3772.478	n/a	RECOG_CONF	1886239	n/a	LTP291	ltpFR	2	5	0	COOKBOOK	373	n/a	5	0	n/a	n/a	n/a	n/a	n/a
3774.202	n/a	RECOG_TARGET	1887101	n/a	LTP291	ltpFR	2	5	1	FAUCET	555	1	4	0	n/a	n/a	n/a	n/a	n/a
3775.028	n/a	RECOG_RESP	1887514	n/a	LTP291	ltpFR	2	5	1	FAUCET	555	1	n/a	0	n/a	n/a	n/a	n/a	n/a
3775.558	n/a	RECOG_CONF	1887779	n/a	LTP291	ltpFR	2	5	1	FAUCET	555	n/a	4	0	n/a	n/a	n/a	n/a	n/a
3777.096	n/a	RECOG_TARGET	1888548	n/a	LTP291	ltpFR	2	5	0	STABLE	1363	1	3	1	n/a	n/a	n/a	n/a	n/a
3778.184	n/a	RECOG_RESP	1889092	n/a	LTP291	ltpFR	2	5	0	STABLE	1363	1	n/a	1	n/a	n/a	n/a	n/a	n/a
3778.858	n/a	RECOG_CONF	1889429	n/a	LTP291	ltpFR	2	5	0	STABLE	1363	n/a	3	1	n/a	n/a	n/a	n/a	n/a
3780.508	n/a	RECOG_TARGET	1890254	n/a	LTP291	ltpFR	2	5	0	NECK	939	1	3	0	n/a	n/a	n/a	n/a	n/a
3781.074	n/a	RECOG_RESP	1890537	n/a	LTP291	ltpFR	2	5	0	NECK	939	1	n/a	0	n/a	n/a	n/a	n/a	n/a
3781.618	n/a	RECOG_CONF	1890809	n/a	LTP291	ltpFR	2	5	0	NECK	939	n/a	3	0	n/a	n/a	n/a	n/a	n/a
3787.128	n/a	REC_START	1893564	n/a	LTP291	ltpFR	2	6	n/a	n/a	n/a	n/a	n/a	n/a	n/a	n/a	n/a	n/a	n/a
3787.186	n/a	RECOG_TARGET	1893593	n/a	LTP291	ltpFR	2	6	1	CRAYON	401	1	5	0	n/a	n/a	n/a	n/a	n/a
3787.998	n/a	RECOG_RESP	1893999	n/a	LTP291	ltpFR	2	6	1	CRAYON	401	1	n/a	0	n/a	n/a	n/a	n/a	n/a
3788.408	n/a	RECOG_CONF	1894204	n/a	LTP291	ltpFR	2	6	1	CRAYON	401	n/a	5	0	n/a	n/a	n/a	n/a	n/a
3790.078	n/a	RECOG_TARGET	1895039	n/a	LTP291	ltpFR	2	6	1	DRYER	503	1	3	0	n/a	n/a	n/a	n/a	n/a
3790.692	n/a	RECOG_RESP	1895346	n/a	LTP291	ltpFR	2	6	1	DRYER	503	1	n/a	0	n/a	n/a	n/a	n/a	n/a
3791.298	n/a	RECOG_CONF	1895649	n/a	LTP291	ltpFR	2	6	1	DRYER	503	n/a	3	0	n/a	n/a	n/a	n/a	n/a
3792.808	n/a	RECOG_TARGET	1896404	n/a	LTP291	ltpFR	2	6	0	CURB	426	1	5	1	n/a	n/a	n/a	n/a	n/a
3793.548	n/a	RECOG_RESP	1896774	n/a	LTP291	ltpFR	2	6	0	CURB	426	1	n/a	1	n/a	n/a	n/a	n/a	n/a
3793.828	n/a	RECOG_CONF	1896914	n/a	LTP291	ltpFR	2	6	0	CURB	426	n/a	5	1	n/a	n/a	n/a	n/a	n/a
3795.55	n/a	RECOG_TARGET	1897775	n/a	LTP291	ltpFR	2	6	1	JEEP	753	1	5	0	n/a	n/a	n/a	n/a	n/a
3796.078	n/a	RECOG_RESP	1898039	n/a	LTP291	ltpFR	2	6	1	JEEP	753	1	n/a	0	n/a	n/a	n/a	n/a	n/a
3796.418	n/a	RECOG_CONF	1898209	n/a	LTP291	ltpFR	2	6	1	JEEP	753	n/a	5	0	n/a	n/a	n/a	n/a	n/a
3798.094	n/a	RECOG_TARGET	1899047	n/a	LTP291	ltpFR	2	6	1	JOKER	759	1	5	1	n/a	n/a	n/a	n/a	n/a
3798.658	n/a	RECOG_RESP	1899329	n/a	LTP291	ltpFR	2	6	1	JOKER	759	1	n/a	1	n/a	n/a	n/a	n/a	n/a
3798.988	n/a	RECOG_CONF	1899494	n/a	LTP291	ltpFR	2	6	1	JOKER	759	n/a	5	1	n/a	n/a	n/a	n/a	n/a
3800.636	n/a	RECOG_LURE	1900318	n/a	LTP291	ltpFR	2	6	n/a	MOTOR	922	0	3	n/a	n/a	n/a	n/a	n/a	n/a
3801.448	n/a	RECOG_RESP	1900724	n/a	LTP291	ltpFR	2	6	n/a	MOTOR	922	0	n/a	n/a	n/a	n/a	n/a	n/a	n/a
3801.948	n/a	RECOG_CONF	1900974	n/a	LTP291	ltpFR	2	6	n/a	MOTOR	922	n/a	3	n/a	n/a	n/a	n/a	n/a	n/a
3803.73	n/a	RECOG_TARGET	1901865	n/a	LTP291	ltpFR	2	6	1	VET	1560	1	5	1	n/a	n/a	n/a	n/a	n/a
3804.438	n/a	RECOG_RESP	1902219	n/a	LTP291	ltpFR	2	6	1	VET	1560	1	n/a	1	n/a	n/a	n/a	n/a	n/a
3804.928	n/a	RECOG_CONF	1902464	n/a	LTP291	ltpFR	2	6	1	VET	1560	n/a	5	1	n/a	n/a	n/a	n/a	n/a
3806.526	n/a	RECOG_TARGET	1903263	n/a	LTP291	ltpFR	2	6	1	HAWK	692	1	5	1	n/a	n/a	n/a	n/a	n/a
3807.134	n/a	RECOG_RESP	1903567	n/a	LTP291	ltpFR	2	6	1	HAWK	692	1	n/a	1	n/a	n/a	n/a	n/a	n/a
3807.568	n/a	RECOG_CONF	1903784	n/a	LTP291	ltpFR	2	6	1	HAWK	692	n/a	5	1	n/a	n/a	n/a	n/a	n/a
3809.386	n/a	RECOG_LURE	1904693	n/a	LTP291	ltpFR	2	6	n/a	SCAPEGOAT	1244	0	3	n/a	n/a	n/a	n/a	n/a	n/a
3810.188	n/a	RECOG_RESP	1905094	n/a	LTP291	ltpFR	2	6	n/a	SCAPEGOAT	1244	0	n/a	n/a	n/a	n/a	n/a	n/a	n/a
3810.958	n/a	RECOG_CONF	1905479	n/a	LTP291	ltpFR	2	6	n/a	SCAPEGOAT	1244	n/a	3	n/a	n/a	n/a	n/a	n/a	n/a
3812.984	n/a	RECOG_LURE	1906492	n/a	LTP291	ltpFR	2	6	n/a	STEREO	1378	0	3	n/a	n/a	n/a	n/a	n/a	n/a
3813.844	n/a	RECOG_RESP	1906922	n/a	LTP291	ltpFR	2	6	n/a	STEREO	1378	0	n/a	n/a	n/a	n/a	n/a	n/a	n/a
3814.478	n/a	RECOG_CONF	1907239	n/a	LTP291	ltpFR	2	6	n/a	STEREO	1378	n/a	3	n/a	n/a	n/a	n/a	n/a	n/a
3816.13	n/a	RECOG_TARGET	1908065	n/a	LTP291	ltpFR	2	6	-1	SHACK	1273	1	2	-1	n/a	n/a	n/a	n/a	n/a
3816.708	n/a	RECOG_RESP_VV	1908354	n/a	LTP291	ltpFR	2	6	-1	SHACK	1273	0	n/a	-1	n/a	n/a	n/a	n/a	n/a
3817.338	n/a	RECOG_RESP	1908669	n/a	LTP291	ltpFR	2	6	-1	SHACK	1273	1	n/a	-1	n/a	n/a	n/a	n/a	n/a
3818.328	n/a	RECOG_CONF	1909164	n/a	LTP291	ltpFR	2	6	-1	SHACK	1273	n/a	2	-1	n/a	n/a	n/a	n/a	n/a
3819.926	n/a	RECOG_LURE	1909963	n/a	LTP291	ltpFR	2	6	n/a	BINDER	127	0	3	n/a	n/a	n/a	n/a	n/a	n/a
3820.694	n/a	RECOG_RESP	1910347	n/a	LTP291	ltpFR	2	6	n/a	BINDER	127	0	n/a	n/a	n/a	n/a	n/a	n/a	n/a
3821.31	n/a	RECOG_CONF	1910655	n/a	LTP291	ltpFR	2	6	n/a	BINDER	127	n/a	3	n/a	n/a	n/a	n/a	n/a	n/a
3823.29	n/a	RECOG_TARGET	1911645	n/a	LTP291	ltpFR	2	6	0	GRASSHOPPER	656	1	3	0	n/a	n/a	n/a	n/a	n/a
3824.004	n/a	RECOG_RESP	1912002	n/a	LTP291	ltpFR	2	6	0	GRASSHOPPER	656	1	n/a	0	n/a	n/a	n/a	n/a	n/a
3824.84	n/a	RECOG_CONF	1912420	n/a	LTP291	ltpFR	2	6	0	GRASSHOPPER	656	n/a	3	0	n/a	n/a	n/a	n/a	n/a
3826.604	n/a	RECOG_TARGET	1913302	n/a	LTP291	ltpFR	2	6	-1	GALAXY	617	1	5	-1	n/a	n/a	n/a	n/a	n/a
3827.55	n/a	RECOG_RESP	1913775	n/a	LTP291	ltpFR	2	6	-1	GALAXY	617	1	n/a	-1	n/a	n/a	n/a	n/a	n/a
3828.12	n/a	RECOG_CONF	1914060	n/a	LTP291	ltpFR	2	6	-1	GALAXY	617	n/a	5	-1	n/a	n/a	n/a	n/a	n/a
3829.78	n/a	RECOG_TARGET	1914890	n/a	LTP291	ltpFR	2	6	1	AUTHOR	61	1	4	1	n/a	n/a	n/a	n/a	n/a
3830.52	n/a	RECOG_RESP	1915260	n/a	LTP291	ltpFR	2	6	1	AUTHOR	61	1	n/a	1	n/a	n/a	n/a	n/a	n/a
3830.98	n/a	RECOG_CONF	1915490	n/a	LTP291	ltpFR	2	6	1	AUTHOR	61	n/a	4	1	n/a	n/a	n/a	n/a	n/a
3832.726	n/a	RECOG_LURE	1916363	n/a	LTP291	ltpFR	2	6	n/a	SECRETARY	1265	1	2	n/a	n/a	n/a	n/a	n/a	n/a
3834.228	n/a	RECOG_RESP	1917114	n/a	LTP291	ltpFR	2	6	n/a	SECRETARY	1265	1	n/a	n/a	n/a	n/a	n/a	n/a	n/a
3835.79	n/a	RECOG_CONF	1917895	n/a	LTP291	ltpFR	2	6	n/a	SECRETARY	1265	n/a	2	n/a	n/a	n/a	n/a	n/a	n/a
3838.346	n/a	RECOG_TARGET	1919173	n/a	LTP291	ltpFR	2	6	1	CAT	257	1	2	1	n/a	n/a	n/a	n/a	n/a
3839.01	n/a	RECOG_RESP	1919505	n/a	LTP291	ltpFR	2	6	1	CAT	257	1	n/a	1	n/a	n/a	n/a	n/a	n/a
3839.75	n/a	RECOG_CONF	1919875	n/a	LTP291	ltpFR	2	6	1	CAT	257	n/a	2	1	n/a	n/a	n/a	n/a	n/a
3841.374	n/a	RECOG_TARGET	1920687	n/a	LTP291	ltpFR	2	6	1	COYOTE	396	1	5	1	n/a	n/a	n/a	n/a	n/a
3842.03	n/a	RECOG_RESP	1921015	n/a	LTP291	ltpFR	2	6	1	COYOTE	396	1	n/a	1	n/a	n/a	n/a	n/a	n/a
3842.47	n/a	RECOG_CONF	1921235	n/a	LTP291	ltpFR	2	6	1	COYOTE	396	n/a	5	1	n/a	n/a	n/a	n/a	n/a
3844.17	n/a	RECOG_TARGET	1922085	n/a	LTP291	ltpFR	2	6	-1	RAKE	1164	1	5	-1	n/a	n/a	n/a	n/a	n/a
3845.18	n/a	RECOG_RESP	1922590	n/a	LTP291	ltpFR	2	6	-1	RAKE	1164	1	n/a	-1	n/a	n/a	n/a	n/a	n/a
3845.54	n/a	RECOG_CONF	1922770	n/a	LTP291	ltpFR	2	6	-1	RAKE	1164	n/a	5	-1	n/a	n/a	n/a	n/a	n/a
3847.164	n/a	RECOG_LURE	1923582	n/a	LTP291	ltpFR	2	6	n/a	COW	393	0	2	n/a	n/a	n/a	n/a	n/a	n/a
3848.0	n/a	RECOG_RESP	1924000	n/a	LTP291	ltpFR	2	6	n/a	COW	393	0	n/a	n/a	n/a	n/a	n/a	n/a	n/a
3848.72	n/a	RECOG_CONF	1924360	n/a	LTP291	ltpFR	2	6	n/a	COW	393	n/a	2	n/a	n/a	n/a	n/a	n/a	n/a
3854.032	n/a	REC_START	1927016	n/a	LTP291	ltpFR	2	7	n/a	n/a	n/a	n/a	n/a	n/a	n/a	n/a	n/a	n/a	n/a
3854.092	n/a	RECOG_TARGET	1927046	n/a	LTP291	ltpFR	2	7	1	VIOLIN	1571	1	4	0	n/a	n/a	n/a	n/a	n/a
3854.802	n/a	RECOG_RESP	1927401	n/a	LTP291	ltpFR	2	7	1	VIOLIN	1571	1	n/a	0	n/a	n/a	n/a	n/a	n/a
3855.452	n/a	RECOG_CONF	1927726	n/a	LTP291	ltpFR	2	7	1	VIOLIN	1571	n/a	4	0	n/a	n/a	n/a	n/a	n/a
3857.152	n/a	RECOG_TARGET	1928576	n/a	LTP291	ltpFR	2	7	1	ASHTRAY	45	0	4	0	n/a	n/a	n/a	n/a	n/a
3857.942	n/a	RECOG_RESP	1928971	n/a	LTP291	ltpFR	2	7	1	ASHTRAY	45	0	n/a	0	n/a	n/a	n/a	n/a	n/a
3858.412	n/a	RECOG_CONF	1929206	n/a	LTP291	ltpFR	2	7	1	ASHTRAY	45	n/a	4	0	n/a	n/a	n/a	n/a	n/a
3859.98	n/a	RECOG_TARGET	1929990	n/a	LTP291	ltpFR	2	7	1	SKI	1316	1	3	0	n/a	n/a	n/a	n/a	n/a
3860.758	n/a	RECOG_RESP	1930379	n/a	LTP291	ltpFR	2	7	1	SKI	1316	1	n/a	0	n/a	n/a	n/a	n/a	n/a
3861.422	n/a	RECOG_CONF	1930711	n/a	LTP291	ltpFR	2	7	1	SKI	1316	n/a	3	0	n/a	n/a	n/a	n/a	n/a
3863.042	n/a	RECOG_TARGET	1931521	n/a	LTP291	ltpFR	2	7	0	EDITOR	516	1	4	1	n/a	n/a	n/a	n/a	n/a
3863.752	n/a	RECOG_RESP	1931876	n/a	LTP291	ltpFR	2	7	0	EDITOR	516	1	n/a	1	n/a	n/a	n/a	n/a	n/a
3864.352	n/a	RECOG_CONF	1932176	n/a	LTP291	ltpFR	2	7	0	EDITOR	516	n/a	4	1	n/a	n/a	n/a	n/a	n/a
3866.17	n/a	RECOG_TARGET	1933085	n/a	LTP291	ltpFR	2	7	0	PASTRY	1022	1	2	1	n/a	n/a	n/a	n/a	n/a
3866.988	n/a	RECOG_RESP	1933494	n/a	LTP291	ltpFR	2	7	0	PASTRY	1022	1	n/a	1	n/a	n/a	n/a	n/a	n/a
3868.462	n/a	RECOG_CONF	1934231	n/a	LTP291	ltpFR	2	7	0	PASTRY	1022	n/a	2	1	n/a	n/a	n/a	n/a	n/a
3870.236	n/a	RECOG_TARGET	1935118	n/a	LTP291	ltpFR	2	7	0	ROD	1203	1	5	0	n/a	n/a	n/a	n/a	n/a
3871.022	n/a	RECOG_RESP	1935511	n/a	LTP291	ltpFR	2	7	0	ROD	1203	1	n/a	0	n/a	n/a	n/a	n/a	n/a
3871.362	n/a	RECOG_CONF	1935681	n/a	LTP291	ltpFR	2	7	0	ROD	1203	n/a	5	0	n/a	n/a	n/a	n/a	n/a
3872.996	n/a	RECOG_LURE	1936498	n/a	LTP291	ltpFR	2	7	n/a	CHAMPION	279	1	2	n/a	n/a	n/a	n/a	n/a	n/a
3874.222	n/a	RECOG_RESP	1937111	n/a	LTP291	ltpFR	2	7	n/a	CHAMPION	279	1	n/a	n/a	n/a	n/a	n/a	n/a	n/a
3874.812	n/a	RECOG_CONF	1937406	n/a	LTP291	ltpFR	2	7	n/a	CHAMPION	279	n/a	2	n/a	n/a	n/a	n/a	n/a	n/a
3876.442	n/a	RECOG_TARGET	1938221	n/a	LTP291	ltpFR	2	7	-1	THREAD	1460	1	5	-1	n/a	n/a	n/a	n/a	n/a
3877.108	n/a	RECOG_RESP	1938554	n/a	LTP291	ltpFR	2	7	-1	THREAD	1460	1	n/a	-1	n/a	n/a	n/a	n/a	n/a
3877.462	n/a	RECOG_CONF	1938731	n/a	LTP291	ltpFR	2	7	-1	THREAD	1460	n/a	5	-1	n/a	n/a	n/a	n/a	n/a
3879.37	n/a	RECOG_TARGET	1939685	n/a	LTP291	ltpFR	2	7	1	BUREAU	199	1	4	0	n/a	n/a	n/a	n/a	n/a
3880.294	n/a	RECOG_RESP	1940147	n/a	LTP291	ltpFR	2	7	1	BUREAU	199	1	n/a	0	n/a	n/a	n/a	n/a	n/a
3880.724	n/a	RECOG_CONF	1940362	n/a	LTP291	ltpFR	2	7	1	BUREAU	199	n/a	4	0	n/a	n/a	n/a	n/a	n/a
3882.416	n/a	RECOG_TARGET	1941208	n/a	LTP291	ltpFR	2	7	1	VIOLA	1570	0	3	0	n/a	n/a	n/a	n/a	n/a
3883.378	n/a	RECOG_RESP	1941689	n/a	LTP291	ltpFR	2	7	1	VIOLA	1570	0	n/a	0	n/a	n/a	n/a	n/a	n/a
3884.584	n/a	RECOG_CONF	1942292	n/a	LTP291	ltpFR	2	7	1	VIOLA	1570	n/a	3	0	n/a	n/a	n/a	n/a	n/a
3886.53	n/a	RECOG_TARGET	1943265	n/a	LTP291	ltpFR	2	7	1	ISLAND	745	1	5	0	n/a	n/a	n/a	n/a	n/a
3887.288	n/a	RECOG_RESP	1943644	n/a	LTP291	ltpFR	2	7	1	ISLAND	745	1	n/a	0	n/a	n/a	n/a	n/a	n/a
3887.664	n/a	RECOG_CONF	1943832	n/a	LTP291	ltpFR	2	7	1	ISLAND	745	n/a	5	0	n/a	n/a	n/a	n/a	n/a
3889.576	n/a	RECOG_LURE	1944788	n/a	LTP291	ltpFR	2	7	n/a	ATTIC	56	1	3	n/a	n/a	n/a	n/a	n/a	n/a
3890.328	n/a	RECOG_RESP	1945164	n/a	LTP291	ltpFR	2	7	n/a	ATTIC	56	1	n/a	n/a	n/a	n/a	n/a	n/a	n/a
3895.124	n/a	RECOG_CONF	1947562	n/a	LTP291	ltpFR	2	7	n/a	ATTIC	56	n/a	3	n/a	n/a	n/a	n/a	n/a	n/a
3897.09	n/a	RECOG_TARGET	1948545	n/a	LTP291	ltpFR	2	7	1	COLESLAW	344	1	5	0	n/a	n/a	n/a	n/a	n/a
3898.11	n/a	RECOG_RESP	1949055	n/a	LTP291	ltpFR	2	7	1	COLESLAW	344	1	n/a	0	n/a	n/a	n/a	n/a	n/a
3898.464	n/a	RECOG_CONF	1949232	n/a	LTP291	ltpFR	2	7	1	COLESLAW	344	n/a	5	0	n/a	n/a	n/a	n/a	n/a
3900.252	n/a	RECOG_TARGET	1950126	n/a	LTP291	ltpFR	2	7	0	BLUEBERRY	140	0	3	0	n/a	n/a	n/a	n/a	n/a
3901.164	n/a	RECOG_RESP	1950582	n/a	LTP291	ltpFR	2	7	0	BLUEBERRY	140	0	n/a	0	n/a	n/a	n/a	n/a	n/a
3902.084	n/a	RECOG_CONF	1951042	n/a	LTP291	ltpFR	2	7	0	BLUEBERRY	140	n/a	3	0	n/a	n/a	n/a	n/a	n/a
3903.848	n/a	RECOG_TARGET	1951924	n/a	LTP291	ltpFR	2	7	1	BLUEJAY	141	0	3	1	n/a	n/a	n/a	n/a	n/a
3904.604	n/a	RECOG_RESP	1952302	n/a	LTP291	ltpFR	2	7	1	BLUEJAY	141	0	n/a	1	n/a	n/a	n/a	n/a	n/a
3905.214	n/a	RECOG_CONF	1952607	n/a	LTP291	ltpFR	2	7	1	BLUEJAY	141	n/a	3	1	n/a	n/a	n/a	n/a	n/a
3906.708	n/a	RECOG_TARGET	1953354	n/a	LTP291	ltpFR	2	7	0	SAND	1230	1	5	0	n/a	n/a	n/a	n/a	n/a
3907.264	n/a	RECOG_RESP	1953632	n/a	LTP291	ltpFR	2	7	0	SAND	1230	1	n/a	0	n/a	n/a	n/a	n/a	n/a
3907.774	n/a	RECOG_CONF	1953887	n/a	LTP291	ltpFR	2	7	0	SAND	1230	n/a	5	0	n/a	n/a	n/a	n/a	n/a
3909.402	n/a	RECOG_TARGET	1954701	n/a	LTP291	ltpFR	2	7	1	HAMBURGER	679	1	3	1	n/a	n/a	n/a	n/a	n/a
3910.234	n/a	RECOG_RESP	1955117	n/a	LTP291	ltpFR	2	7	1	HAMBURGER	679	1	n/a	1	n/a	n/a	n/a	n/a	n/a
3912.234	n/a	RECOG_CONF	1956117	n/a	LTP291	ltpFR	2	7	1	HAMBURGER	679	n/a	3	1	n/a	n/a	n/a	n/a	n/a
3913.902	n/a	RECOG_TARGET	1956951	n/a	LTP291	ltpFR	2	7	0	JEWEL	757	1	5	0	n/a	n/a	n/a	n/a	n/a
3914.66	n/a	RECOG_RESP	1957330	n/a	LTP291	ltpFR	2	7	0	JEWEL	757	1	n/a	0	n/a	n/a	n/a	n/a	n/a
3915.214	n/a	RECOG_CONF	1957607	n/a	LTP291	ltpFR	2	7	0	JEWEL	757	n/a	5	0	n/a	n/a	n/a	n/a	n/a
3916.864	n/a	RECOG_TARGET	1958432	n/a	LTP291	ltpFR	2	7	-1	BLUEPRINT	142	1	5	-1	n/a	n/a	n/a	n/a	n/a
3917.616	n/a	RECOG_RESP	1958808	n/a	LTP291	ltpFR	2	7	-1	BLUEPRINT	142	1	n/a	-1	n/a	n/a	n/a	n/a	n/a
3917.936	n/a	RECOG_CONF	1958968	n/a	LTP291	ltpFR	2	7	-1	BLUEPRINT	142	n/a	5	-1	n/a	n/a	n/a	n/a	n/a
3919.792	n/a	RECOG_TARGET	1959896	n/a	LTP291	ltpFR	2	7	1	DECK	443	1	5	1	n/a	n/a	n/a	n/a	n/a
3920.296	n/a	RECOG_RESP	1960148	n/a	LTP291	ltpFR	2	7	1	DECK	443	1	n/a	1	n/a	n/a	n/a	n/a	n/a
3920.726	n/a	RECOG_CONF	1960363	n/a	LTP291	ltpFR	2	7	1	DECK	443	n/a	5	1	n/a	n/a	n/a	n/a	n/a
3924.826	n/a	REC_START	1962413	n/a	LTP291	ltpFR	2	8	n/a	n/a	n/a	n/a	n/a	n/a	n/a	n/a	n/a	n/a	n/a
3924.878	n/a	RECOG_TARGET	1962439	n/a	LTP291	ltpFR	2	8	-1	ANCHOR	21	1	5	-1	n/a	n/a	n/a	n/a	n/a
3925.622	n/a	RECOG_RESP	1962811	n/a	LTP291	ltpFR	2	8	-1	ANCHOR	21	1	n/a	-1	n/a	n/a	n/a	n/a	n/a
3925.976	n/a	RECOG_CONF	1962988	n/a	LTP291	ltpFR	2	8	-1	ANCHOR	21	n/a	5	-1	n/a	n/a	n/a	n/a	n/a
3927.74	n/a	RECOG_TARGET	1963870	n/a	LTP291	ltpFR	2	8	-1	BULLETIN	195	1	4	-1	n/a	n/a	n/a	n/a	n/a
3928.616	n/a	RECOG_RESP	1964308	n/a	LTP291	ltpFR	2	8	-1	BULLETIN	195	1	n/a	-1	n/a	n/a	n/a	n/a	n/a
3929.106	n/a	RECOG_CONF	1964553	n/a	LTP291	ltpFR	2	8	-1	BULLETIN	195	n/a	4	-1	n/a	n/a	n/a	n/a	n/a
3930.784	n/a	RECOG_TARGET	1965392	n/a	LTP291	ltpFR	2	8	1	CAMEL	223	0	3	1	n/a	n/a	n/a	n/a	n/a
3931.732	n/a	RECOG_RESP	1965866	n/a	LTP291	ltpFR	2	8	1	CAMEL	223	0	n/a	1	n/a	n/a	n/a	n/a	n/a
3932.326	n/a	RECOG_CONF	1966163	n/a	LTP291	ltpFR	2	8	1	CAMEL	223	n/a	3	1	n/a	n/a	n/a	n/a	n/a
