mstime	trial_type	stim_file	subject	experiment	session	trial	task	item_name	item_num	recog_conf	resp	color_b	color_g	color_r	case	font
0	SESS_START	n/a	LTP067	ltpFR	16	n/a	n/a	n/a	n/a	2	n/a	n/a	n/a	n/a	n/a	n/a
33184	WORD	wordpools/wasnorm_wordpool.txt	LTP067	ltpFR	16	1	1	DENIM	446	n/a	0	1	0.412841796875	0.57763671875	lower	../fonts/amplitud.ttf
37037	WORD	wordpools/wasnorm_wordpool.txt	LTP067	ltpFR	16	1	1	CITIZEN	312	n/a	1	1	0.412841796875	0.57763671875	lower	../fonts/amplitud.ttf
41124	WORD	wordpools/wasnorm_wordpool.txt	LTP067	ltpFR	16	1	0	BARREL	91	n/a	1	0	0.5869140625	0.422607421875	upper	../fonts/zerothre.ttf
45095	WORD	wordpools/wasnorm_wordpool.txt	LTP067	ltpFR	16	1	0	HORSE	719	n/a	1	0	0.5869140625	0.422607421875	upper	../fonts/zerothre.ttf
49014	WORD	wordpools/wasnorm_wordpool.txt	LTP067	ltpFR	16	1	0	PATRIOT	1026	n/a	1	0	0.5869140625	0.422607421875	upper	../fonts/zerothre.ttf
53169	WORD	wordpools/wasnorm_wordpool.txt	LTP067	ltpFR	16	1	0	ACROBAT	4	n/a	1	0	0.5869140625	0.422607421875	upper	../fonts/zerothre.ttf
57330	WORD	wordpools/wasnorm_wordpool.txt	LTP067	ltpFR	16	1	1	GYMNAST	675	n/a	1	1	0.412841796875	0.57763671875	lower	../fonts/amplitud.ttf
61459	WORD	wordpools/wasnorm_wordpool.txt	LTP067	ltpFR	16	1	1	REPTILE	1185	n/a	1	1	0.412841796875	0.57763671875	lower	../fonts/amplitud.ttf
65562	WORD	wordpools/wasnorm_wordpool.txt	LTP067	ltpFR	16	1	0	BEDROOM	111	n/a	1	0	0.5869140625	0.422607421875	upper	../fonts/zerothre.ttf
69574	WORD	wordpools/wasnorm_wordpool.txt	LTP067	ltpFR	16	1	0	UNDERWEAR	1537	n/a	0	0	0.5869140625	0.422607421875	upper	../fonts/zerothre.ttf
73536	WORD	wordpools/wasnorm_wordpool.txt	LTP067	ltpFR	16	1	0	SALOON	1228	n/a	1	0	0.5869140625	0.422607421875	upper	../fonts/zerothre.ttf
77415	WORD	wordpools/wasnorm_wordpool.txt	LTP067	ltpFR	16	1	0	TEA	1439	n/a	0	0	0.5869140625	0.422607421875	upper	../fonts/zerothre.ttf
81469	WORD	wordpools/wasnorm_wordpool.txt	LTP067	ltpFR	16	1	1	MESSAGE	888	n/a	0	1	0.412841796875	0.57763671875	lower	../fonts/amplitud.ttf
85364	WORD	wordpools/wasnorm_wordpool.txt	LTP067	ltpFR	16	1	1	DIAL	457	n/a	0	1	0.412841796875	0.57763671875	lower	../fonts/amplitud.ttf
89210	WORD	wordpools/wasnorm_wordpool.txt	LTP067	ltpFR	16	1	1	SHIRT	1287	n/a	0	1	0.412841796875	0.57763671875	lower	../fonts/amplitud.ttf
93272	WORD	wordpools/wasnorm_wordpool.txt	LTP067	ltpFR	16	1	1	TOTE	1487	n/a	0	1	0.412841796875	0.57763671875	lower	../fonts/amplitud.ttf
99166	REC_START	n/a	LTP067	ltpFR	16	1	n/a	n/a	n/a	n/a	n/a	n/a	n/a	n/a	n/a	n/a
99655	REC_WORD	wordpools/wasnorm_wordpool.txt	LTP067	ltpFR	16	1	1	SHIRT	1287	n/a	0	n/a	n/a	n/a	n/a	n/a
100185	REC_WORD	wordpools/wasnorm_wordpool.txt	LTP067	ltpFR	16	1	0	UNDERWEAR	1537	n/a	0	n/a	n/a	n/a	n/a	n/a
100722	REC_WORD	wordpools/wasnorm_wordpool.txt	LTP067	ltpFR	16	1	1	TOTE	1487	n/a	0	n/a	n/a	n/a	n/a	n/a
101780	REC_WORD	wordpools/wasnorm_wordpool.txt	LTP067	ltpFR	16	1	0	BARREL	91	n/a	1	n/a	n/a	n/a	n/a	n/a
104120	REC_WORD	wordpools/wasnorm_wordpool.txt	LTP067	ltpFR	16	1	0	PATRIOT	1026	n/a	1	n/a	n/a	n/a	n/a	n/a
104763	REC_WORD	wordpools/wasnorm_wordpool.txt	LTP067	ltpFR	16	1	0	HORSE	719	n/a	1	n/a	n/a	n/a	n/a	n/a
113179	REC_WORD	wordpools/wasnorm_wordpool.txt	LTP067	ltpFR	16	1	1	DIAL	457	n/a	0	n/a	n/a	n/a	n/a	n/a
117354	REC_WORD	wordpools/wasnorm_wordpool.txt	LTP067	ltpFR	16	1	1	REPTILE	1185	n/a	1	n/a	n/a	n/a	n/a	n/a
118257	REC_WORD	wordpools/wasnorm_wordpool.txt	LTP067	ltpFR	16	1	1	GYMNAST	675	n/a	1	n/a	n/a	n/a	n/a	n/a
120038	REC_WORD	wordpools/wasnorm_wordpool.txt	LTP067	ltpFR	16	1	0	BEDROOM	111	n/a	1	n/a	n/a	n/a	n/a	n/a
130614	REC_WORD	wordpools/wasnorm_wordpool.txt	LTP067	ltpFR	16	1	1	CITIZEN	312	n/a	1	n/a	n/a	n/a	n/a	n/a
134625	REC_WORD	wordpools/wasnorm_wordpool.txt	LTP067	ltpFR	16	1	1	DENIM	446	n/a	0	n/a	n/a	n/a	n/a	n/a
145196	REC_WORD	wordpools/wasnorm_wordpool.txt	LTP067	ltpFR	16	1	n/a	MOOSE	915	n/a	n/a	n/a	n/a	n/a	n/a	n/a
150479	REC_WORD	wordpools/wasnorm_wordpool.txt	LTP067	ltpFR	16	1	0	HORSE	719	n/a	1	n/a	n/a	n/a	n/a	n/a
154250	REC_WORD	wordpools/wasnorm_wordpool.txt	LTP067	ltpFR	16	1	n/a	FROG	608	n/a	n/a	n/a	n/a	n/a	n/a	n/a
159768	REC_WORD	wordpools/wasnorm_wordpool.txt	LTP067	ltpFR	16	1	0	BARREL	91	n/a	1	n/a	n/a	n/a	n/a	n/a
172569	REC_WORD	wordpools/wasnorm_wordpool.txt	LTP067	ltpFR	16	1	n/a	WATER	1594	n/a	n/a	n/a	n/a	n/a	n/a	n/a
173497	REC_WORD	wordpools/wasnorm_wordpool.txt	LTP067	ltpFR	16	1	n/a	POND	1101	n/a	n/a	n/a	n/a	n/a	n/a	n/a
176748	WORD	wordpools/wasnorm_wordpool.txt	LTP067	ltpFR	16	2	0	DIGGER	464	n/a	1	0	0.5869140625	0.422607421875	upper	../fonts/zerothre.ttf
180769	WORD	wordpools/wasnorm_wordpool.txt	LTP067	ltpFR	16	2	0	ALLEY	15	n/a	1	0	0.5869140625	0.422607421875	upper	../fonts/zerothre.ttf
184864	WORD	wordpools/wasnorm_wordpool.txt	LTP067	ltpFR	16	2	1	CANDIDATE	228	n/a	1	1	0.412841796875	0.57763671875	lower	../fonts/amplitud.ttf
188743	WORD	wordpools/wasnorm_wordpool.txt	LTP067	ltpFR	16	2	1	VAN	1548	n/a	0	1	0.412841796875	0.57763671875	lower	../fonts/amplitud.ttf
192921	WORD	wordpools/wasnorm_wordpool.txt	LTP067	ltpFR	16	2	1	GROUND	666	n/a	0	1	0.412841796875	0.57763671875	lower	../fonts/amplitud.ttf
196825	WORD	wordpools/wasnorm_wordpool.txt	LTP067	ltpFR	16	2	1	HIGHWAY	707	n/a	0	1	0.412841796875	0.57763671875	lower	../fonts/amplitud.ttf
200828	WORD	wordpools/wasnorm_wordpool.txt	LTP067	ltpFR	16	2	0	MASCARA	875	n/a	0	0	0.5869140625	0.422607421875	upper	../fonts/zerothre.ttf
204675	WORD	wordpools/wasnorm_wordpool.txt	LTP067	ltpFR	16	2	0	ROUGE	1213	n/a	1	0	0.5869140625	0.422607421875	upper	../fonts/zerothre.ttf
208844	WORD	wordpools/wasnorm_wordpool.txt	LTP067	ltpFR	16	2	0	BUGLE	189	n/a	1	0	0.5869140625	0.422607421875	upper	../fonts/zerothre.ttf
212707	WORD	wordpools/wasnorm_wordpool.txt	LTP067	ltpFR	16	2	0	SOFTBALL	1343	n/a	0	0	0.5869140625	0.422607421875	upper	../fonts/zerothre.ttf
216843	WORD	wordpools/wasnorm_wordpool.txt	LTP067	ltpFR	16	2	0	BUG	187	n/a	0	0	0.5869140625	0.422607421875	upper	../fonts/zerothre.ttf
220930	WORD	wordpools/wasnorm_wordpool.txt	LTP067	ltpFR	16	2	0	SUPPER	1411	n/a	0	0	0.5869140625	0.422607421875	upper	../fonts/zerothre.ttf
225026	WORD	wordpools/wasnorm_wordpool.txt	LTP067	ltpFR	16	2	1	GROCERIES	663	n/a	0	1	0.412841796875	0.57763671875	lower	../fonts/amplitud.ttf
228921	WORD	wordpools/wasnorm_wordpool.txt	LTP067	ltpFR	16	2	1	WRITER	1627	n/a	1	1	0.412841796875	0.57763671875	lower	../fonts/amplitud.ttf
233008	WORD	wordpools/wasnorm_wordpool.txt	LTP067	ltpFR	16	2	1	PANTHER	1009	n/a	1	1	0.412841796875	0.57763671875	lower	../fonts/amplitud.ttf
236920	WORD	wordpools/wasnorm_wordpool.txt	LTP067	ltpFR	16	2	1	ANTEATER	26	n/a	1	1	0.412841796875	0.57763671875	lower	../fonts/amplitud.ttf
242888	REC_START	n/a	LTP067	ltpFR	16	2	n/a	n/a	n/a	n/a	n/a	n/a	n/a	n/a	n/a	n/a
243066	REC_WORD	wordpools/wasnorm_wordpool.txt	LTP067	ltpFR	16	2	1	WRITER	1627	n/a	1	n/a	n/a	n/a	n/a	n/a
243536	REC_WORD	wordpools/wasnorm_wordpool.txt	LTP067	ltpFR	16	2	1	PANTHER	1009	n/a	1	n/a	n/a	n/a	n/a	n/a
246993	REC_WORD	wordpools/wasnorm_wordpool.txt	LTP067	ltpFR	16	2	1	ANTEATER	26	n/a	1	n/a	n/a	n/a	n/a	n/a
248730	REC_WORD	wordpools/wasnorm_wordpool.txt	LTP067	ltpFR	16	2	1	CANDIDATE	228	n/a	1	n/a	n/a	n/a	n/a	n/a
249857	REC_WORD	wordpools/wasnorm_wordpool.txt	LTP067	ltpFR	16	2	0	ALLEY	15	n/a	1	n/a	n/a	n/a	n/a	n/a
250441	REC_WORD	wordpools/wasnorm_wordpool.txt	LTP067	ltpFR	16	2	1	VAN	1548	n/a	0	n/a	n/a	n/a	n/a	n/a
251498	REC_WORD	wordpools/wasnorm_wordpool.txt	LTP067	ltpFR	16	2	0	MASCARA	875	n/a	0	n/a	n/a	n/a	n/a	n/a
262374	REC_WORD	wordpools/wasnorm_wordpool.txt	LTP067	ltpFR	16	2	0	DIGGER	464	n/a	1	n/a	n/a	n/a	n/a	n/a
272520	REC_WORD	wordpools/wasnorm_wordpool.txt	LTP067	ltpFR	16	2	1	REPTILE	1185	n/a	1	n/a	n/a	n/a	n/a	n/a
277732	REC_WORD	wordpools/wasnorm_wordpool.txt	LTP067	ltpFR	16	2	n/a	OPERA	978	n/a	n/a	n/a	n/a	n/a	n/a	n/a
287262	REC_WORD	wordpools/wasnorm_wordpool.txt	LTP067	ltpFR	16	2	0	HORSE	719	n/a	1	n/a	n/a	n/a	n/a	n/a
301495	REC_WORD	wordpools/wasnorm_wordpool.txt	LTP067	ltpFR	16	2	1	PANTHER	1009	n/a	1	n/a	n/a	n/a	n/a	n/a
304373	REC_WORD	wordpools/wasnorm_wordpool.txt	LTP067	ltpFR	16	2	n/a	AUTHOR	61	n/a	n/a	n/a	n/a	n/a	n/a	n/a
313353	REC_WORD	wordpools/wasnorm_wordpool.txt	LTP067	ltpFR	16	2	0	SOFTBALL	1343	n/a	0	n/a	n/a	n/a	n/a	n/a
320340	WORD	wordpools/wasnorm_wordpool.txt	LTP067	ltpFR	16	3	1	RACK	1154	n/a	0	1	0.412841796875	0.57763671875	lower	../fonts/amplitud.ttf
324277	WORD	wordpools/wasnorm_wordpool.txt	LTP067	ltpFR	16	3	1	SATURN	1236	n/a	0	1	0.412841796875	0.57763671875	lower	../fonts/amplitud.ttf
328106	WORD	wordpools/wasnorm_wordpool.txt	LTP067	ltpFR	16	3	1	RECEIPT	1173	n/a	0	1	0.412841796875	0.57763671875	lower	../fonts/amplitud.ttf
331917	WORD	wordpools/wasnorm_wordpool.txt	LTP067	ltpFR	16	3	0	REGISTER	1180	n/a	1	0	0.5869140625	0.422607421875	upper	../fonts/zerothre.ttf
335904	WORD	wordpools/wasnorm_wordpool.txt	LTP067	ltpFR	16	3	0	LILY	821	n/a	0	0	0.5869140625	0.422607421875	upper	../fonts/zerothre.ttf
339941	WORD	wordpools/wasnorm_wordpool.txt	LTP067	ltpFR	16	3	1	ZIPPER	1636	n/a	0	1	0.412841796875	0.57763671875	lower	../fonts/amplitud.ttf
343795	WORD	wordpools/wasnorm_wordpool.txt	LTP067	ltpFR	16	3	1	DOCTOR	478	n/a	1	1	0.412841796875	0.57763671875	lower	../fonts/amplitud.ttf
347923	WORD	wordpools/wasnorm_wordpool.txt	LTP067	ltpFR	16	3	1	BLOSSOM	138	n/a	0	1	0.412841796875	0.57763671875	lower	../fonts/amplitud.ttf
352061	WORD	wordpools/wasnorm_wordpool.txt	LTP067	ltpFR	16	3	0	CHICK	296	n/a	1	0	0.5869140625	0.422607421875	upper	../fonts/zerothre.ttf
356065	WORD	wordpools/wasnorm_wordpool.txt	LTP067	ltpFR	16	3	0	DRESSER	496	n/a	1	0	0.5869140625	0.422607421875	upper	../fonts/zerothre.ttf
360035	WORD	wordpools/wasnorm_wordpool.txt	LTP067	ltpFR	16	3	0	COUSIN	392	n/a	1	0	0.5869140625	0.422607421875	upper	../fonts/zerothre.ttf
364039	WORD	wordpools/wasnorm_wordpool.txt	LTP067	ltpFR	16	3	0	STRANGER	1389	n/a	1	0	0.5869140625	0.422607421875	upper	../fonts/zerothre.ttf
368234	WORD	wordpools/wasnorm_wordpool.txt	LTP067	ltpFR	16	3	0	MECHANIC	884	n/a	1	0	0.5869140625	0.422607421875	upper	../fonts/zerothre.ttf
372412	WORD	wordpools/wasnorm_wordpool.txt	LTP067	ltpFR	16	3	0	RADIATOR	1156	n/a	1	0	0.5869140625	0.422607421875	upper	../fonts/zerothre.ttf
376591	WORD	wordpools/wasnorm_wordpool.txt	LTP067	ltpFR	16	3	1	POTTERY	1116	n/a	0	1	0.412841796875	0.57763671875	lower	../fonts/amplitud.ttf
380785	WORD	wordpools/wasnorm_wordpool.txt	LTP067	ltpFR	16	3	1	GLOBE	641	n/a	0	1	0.412841796875	0.57763671875	lower	../fonts/amplitud.ttf
386630	REC_START	n/a	LTP067	ltpFR	16	3	n/a	n/a	n/a	n/a	n/a	n/a	n/a	n/a	n/a	n/a
387020	REC_WORD	wordpools/wasnorm_wordpool.txt	LTP067	ltpFR	16	3	1	GLOBE	641	n/a	0	n/a	n/a	n/a	n/a	n/a
388156	REC_WORD	wordpools/wasnorm_wordpool.txt	LTP067	ltpFR	16	3	0	COUSIN	392	n/a	1	n/a	n/a	n/a	n/a	n/a
388785	REC_WORD	wordpools/wasnorm_wordpool.txt	LTP067	ltpFR	16	3	0	STRANGER	1389	n/a	1	n/a	n/a	n/a	n/a	n/a
389962	REC_WORD	wordpools/wasnorm_wordpool.txt	LTP067	ltpFR	16	3	0	MECHANIC	884	n/a	1	n/a	n/a	n/a	n/a	n/a
391294	REC_WORD	wordpools/wasnorm_wordpool.txt	LTP067	ltpFR	16	3	0	RADIATOR	1156	n/a	1	n/a	n/a	n/a	n/a	n/a
393579	REC_WORD	wordpools/wasnorm_wordpool.txt	LTP067	ltpFR	16	3	0	MECHANIC	884	n/a	1	n/a	n/a	n/a	n/a	n/a
403112	REC_WORD	wordpools/wasnorm_wordpool.txt	LTP067	ltpFR	16	3	1	CANDIDATE	228	n/a	1	n/a	n/a	n/a	n/a	n/a
404719	REC_WORD	wordpools/wasnorm_wordpool.txt	LTP067	ltpFR	16	3	0	CHICK	296	n/a	1	n/a	n/a	n/a	n/a	n/a
407518	REC_WORD	wordpools/wasnorm_wordpool.txt	LTP067	ltpFR	16	3	1	SATURN	1236	n/a	0	n/a	n/a	n/a	n/a	n/a
408144	REC_WORD	wordpools/wasnorm_wordpool.txt	LTP067	ltpFR	16	3	1	RECEIPT	1173	n/a	0	n/a	n/a	n/a	n/a	n/a
411463	REC_WORD	wordpools/wasnorm_wordpool.txt	LTP067	ltpFR	16	3	1	BLOSSOM	138	n/a	0	n/a	n/a	n/a	n/a	n/a
412336	REC_WORD	wordpools/wasnorm_wordpool.txt	LTP067	ltpFR	16	3	0	LILY	821	n/a	0	n/a	n/a	n/a	n/a	n/a
413020	REC_WORD	wordpools/wasnorm_wordpool.txt	LTP067	ltpFR	16	3	1	DOCTOR	478	n/a	1	n/a	n/a	n/a	n/a	n/a
417117	REC_WORD	wordpools/wasnorm_wordpool.txt	LTP067	ltpFR	16	3	0	LILY	821	n/a	0	n/a	n/a	n/a	n/a	n/a
420383	REC_WORD	wordpools/wasnorm_wordpool.txt	LTP067	ltpFR	16	3	n/a	JUG	762	n/a	n/a	n/a	n/a	n/a	n/a	n/a
429253	REC_WORD	wordpools/wasnorm_wordpool.txt	LTP067	ltpFR	16	3	1	SATURN	1236	n/a	0	n/a	n/a	n/a	n/a	n/a
430585	REC_WORD	wordpools/wasnorm_wordpool.txt	LTP067	ltpFR	16	3	1	SATURN	1236	n/a	0	n/a	n/a	n/a	n/a	n/a
435289	REC_WORD	wordpools/wasnorm_wordpool.txt	LTP067	ltpFR	16	3	1	SATURN	1236	n/a	0	n/a	n/a	n/a	n/a	n/a
436012	REC_WORD	wordpools/wasnorm_wordpool.txt	LTP067	ltpFR	16	3	1	RECEIPT	1173	n/a	0	n/a	n/a	n/a	n/a	n/a
441779	REC_WORD	wordpools/wasnorm_wordpool.txt	LTP067	ltpFR	16	3	n/a	CHEST	295	n/a	n/a	n/a	n/a	n/a	n/a	n/a
456077	REC_WORD	wordpools/wasnorm_wordpool.txt	LTP067	ltpFR	16	3	0	REGISTER	1180	n/a	1	n/a	n/a	n/a	n/a	n/a
464072	WORD	wordpools/wasnorm_wordpool.txt	LTP067	ltpFR	16	4	1	LIZARD	834	n/a	1	1	0.412841796875	0.57763671875	lower	../fonts/amplitud.ttf
468209	WORD	wordpools/wasnorm_wordpool.txt	LTP067	ltpFR	16	4	1	WALRUS	1585	n/a	1	1	0.412841796875	0.57763671875	lower	../fonts/amplitud.ttf
472371	WORD	wordpools/wasnorm_wordpool.txt	LTP067	ltpFR	16	4	1	OTTER	986	n/a	1	1	0.412841796875	0.57763671875	lower	../fonts/amplitud.ttf
476516	WORD	wordpools/wasnorm_wordpool.txt	LTP067	ltpFR	16	4	1	CHARCOAL	281	n/a	0	1	0.412841796875	0.57763671875	lower	../fonts/amplitud.ttf
480578	WORD	wordpools/wasnorm_wordpool.txt	LTP067	ltpFR	16	4	1	STOVE	1388	n/a	0	1	0.412841796875	0.57763671875	lower	../fonts/amplitud.ttf
484432	WORD	wordpools/wasnorm_wordpool.txt	LTP067	ltpFR	16	4	1	CHOCOLATE	306	n/a	0	1	0.412841796875	0.57763671875	lower	../fonts/amplitud.ttf
488269	WORD	wordpools/wasnorm_wordpool.txt	LTP067	ltpFR	16	4	1	LUMBER	848	n/a	0	1	0.412841796875	0.57763671875	lower	../fonts/amplitud.ttf
492447	WORD	wordpools/wasnorm_wordpool.txt	LTP067	ltpFR	16	4	1	SWAMP	1416	n/a	0	1	0.412841796875	0.57763671875	lower	../fonts/amplitud.ttf
496334	WORD	wordpools/wasnorm_wordpool.txt	LTP067	ltpFR	16	4	1	PIRATE	1074	n/a	1	1	0.412841796875	0.57763671875	lower	../fonts/amplitud.ttf
500496	WORD	wordpools/wasnorm_wordpool.txt	LTP067	ltpFR	16	4	1	FIREPLACE	570	n/a	0	1	0.412841796875	0.57763671875	lower	../fonts/amplitud.ttf
504350	WORD	wordpools/wasnorm_wordpool.txt	LTP067	ltpFR	16	4	1	KIWI	781	n/a	0	1	0.412841796875	0.57763671875	lower	../fonts/amplitud.ttf
508553	WORD	wordpools/wasnorm_wordpool.txt	LTP067	ltpFR	16	4	1	VEGETABLE	1552	n/a	0	1	0.412841796875	0.57763671875	lower	../fonts/amplitud.ttf
512756	WORD	wordpools/wasnorm_wordpool.txt	LTP067	ltpFR	16	4	1	PISTOL	1075	n/a	0	1	0.412841796875	0.57763671875	lower	../fonts/amplitud.ttf
516661	WORD	wordpools/wasnorm_wordpool.txt	LTP067	ltpFR	16	4	1	CHEST	295	n/a	0	1	0.412841796875	0.57763671875	lower	../fonts/amplitud.ttf
520573	WORD	wordpools/wasnorm_wordpool.txt	LTP067	ltpFR	16	4	1	UMBRELLA	1534	n/a	0	1	0.412841796875	0.57763671875	lower	../fonts/amplitud.ttf
524451	WORD	wordpools/wasnorm_wordpool.txt	LTP067	ltpFR	16	4	1	COBRA	336	n/a	1	1	0.412841796875	0.57763671875	lower	../fonts/amplitud.ttf
530245	REC_START	n/a	LTP067	ltpFR	16	4	n/a	n/a	n/a	n/a	n/a	n/a	n/a	n/a	n/a	n/a
530393	REC_WORD	wordpools/wasnorm_wordpool.txt	LTP067	ltpFR	16	4	1	COBRA	336	n/a	1	n/a	n/a	n/a	n/a	n/a
530924	REC_WORD	wordpools/wasnorm_wordpool.txt	LTP067	ltpFR	16	4	1	CHEST	295	n/a	0	n/a	n/a	n/a	n/a	n/a
531461	REC_WORD	wordpools/wasnorm_wordpool.txt	LTP067	ltpFR	16	4	1	PISTOL	1075	n/a	0	n/a	n/a	n/a	n/a	n/a
532101	REC_WORD	wordpools/wasnorm_wordpool.txt	LTP067	ltpFR	16	4	1	KIWI	781	n/a	0	n/a	n/a	n/a	n/a	n/a
533288	REC_WORD	wordpools/wasnorm_wordpool.txt	LTP067	ltpFR	16	4	1	VEGETABLE	1552	n/a	0	n/a	n/a	n/a	n/a	n/a
535676	REC_WORD	wordpools/wasnorm_wordpool.txt	LTP067	ltpFR	16	4	1	STOVE	1388	n/a	0	n/a	n/a	n/a	n/a	n/a
536321	REC_WORD	wordpools/wasnorm_wordpool.txt	LTP067	ltpFR	16	4	1	CHARCOAL	281	n/a	0	n/a	n/a	n/a	n/a	n/a
536965	REC_WORD	wordpools/wasnorm_wordpool.txt	LTP067	ltpFR	16	4	1	OTTER	986	n/a	1	n/a	n/a	n/a	n/a	n/a
537478	REC_WORD	wordpools/wasnorm_wordpool.txt	LTP067	ltpFR	16	4	1	WALRUS	1585	n/a	1	n/a	n/a	n/a	n/a	n/a
540309	REC_WORD	wordpools/wasnorm_wordpool.txt	LTP067	ltpFR	16	4	1	WALRUS	1585	n/a	1	n/a	n/a	n/a	n/a	n/a
544537	REC_WORD	wordpools/wasnorm_wordpool.txt	LTP067	ltpFR	16	4	n/a	BARBEQUE	-1	n/a	n/a	n/a	n/a	n/a	n/a	n/a
552574	REC_WORD	wordpools/wasnorm_wordpool.txt	LTP067	ltpFR	16	4	1	UMBRELLA	1534	n/a	0	n/a	n/a	n/a	n/a	n/a
555173	REC_WORD	wordpools/wasnorm_wordpool.txt	LTP067	ltpFR	16	4	n/a	BRAIN	165	n/a	n/a	n/a	n/a	n/a	n/a	n/a
576142	REC_WORD	wordpools/wasnorm_wordpool.txt	LTP067	ltpFR	16	4	1	OTTER	986	n/a	1	n/a	n/a	n/a	n/a	n/a
583633	REC_WORD	wordpools/wasnorm_wordpool.txt	LTP067	ltpFR	16	4	1	CHEST	295	n/a	0	n/a	n/a	n/a	n/a	n/a
588467	REC_WORD	wordpools/wasnorm_wordpool.txt	LTP067	ltpFR	16	4	1	VEGETABLE	1552	n/a	0	n/a	n/a	n/a	n/a	n/a
607828	WORD	wordpools/wasnorm_wordpool.txt	LTP067	ltpFR	16	5	0	ASIA	46	n/a	1	0	0.5869140625	0.422607421875	upper	../fonts/zerothre.ttf
611700	WORD	wordpools/wasnorm_wordpool.txt	LTP067	ltpFR	16	5	0	VALVE	1546	n/a	0	0	0.5869140625	0.422607421875	upper	../fonts/zerothre.ttf
615810	WORD	wordpools/wasnorm_wordpool.txt	LTP067	ltpFR	16	5	0	LEMON	810	n/a	0	0	0.5869140625	0.422607421875	upper	../fonts/zerothre.ttf
619789	WORD	wordpools/wasnorm_wordpool.txt	LTP067	ltpFR	16	5	0	SLIME	1327	n/a	0	0	0.5869140625	0.422607421875	upper	../fonts/zerothre.ttf
623884	WORD	wordpools/wasnorm_wordpool.txt	LTP067	ltpFR	16	5	0	AFRICA	9	n/a	1	0	0.5869140625	0.422607421875	upper	../fonts/zerothre.ttf
627763	WORD	wordpools/wasnorm_wordpool.txt	LTP067	ltpFR	16	5	0	RECIPE	1175	n/a	0	0	0.5869140625	0.422607421875	upper	../fonts/zerothre.ttf
631808	WORD	wordpools/wasnorm_wordpool.txt	LTP067	ltpFR	16	5	0	REFRIGERATOR	1179	n/a	1	0	0.5869140625	0.422607421875	upper	../fonts/zerothre.ttf
635762	WORD	wordpools/wasnorm_wordpool.txt	LTP067	ltpFR	16	5	0	TART	1436	n/a	0	0	0.5869140625	0.422607421875	upper	../fonts/zerothre.ttf
639592	WORD	wordpools/wasnorm_wordpool.txt	LTP067	ltpFR	16	5	0	STEP	1377	n/a	0	0	0.5869140625	0.422607421875	upper	../fonts/zerothre.ttf
643421	WORD	wordpools/wasnorm_wordpool.txt	LTP067	ltpFR	16	5	0	TRASH	1497	n/a	1	0	0.5869140625	0.422607421875	upper	../fonts/zerothre.ttf
647541	WORD	wordpools/wasnorm_wordpool.txt	LTP067	ltpFR	16	5	0	SIGNATURE	1306	n/a	0	0	0.5869140625	0.422607421875	upper	../fonts/zerothre.ttf
651645	WORD	wordpools/wasnorm_wordpool.txt	LTP067	ltpFR	16	5	0	YARD	1630	n/a	1	0	0.5869140625	0.422607421875	upper	../fonts/zerothre.ttf
655772	WORD	wordpools/wasnorm_wordpool.txt	LTP067	ltpFR	16	5	0	LANDSCAPE	799	n/a	1	0	0.5869140625	0.422607421875	upper	../fonts/zerothre.ttf
659710	WORD	wordpools/wasnorm_wordpool.txt	LTP067	ltpFR	16	5	0	WATERFALL	1595	n/a	1	0	0.5869140625	0.422607421875	upper	../fonts/zerothre.ttf
663531	WORD	wordpools/wasnorm_wordpool.txt	LTP067	ltpFR	16	5	0	SPOON	1357	n/a	0	0	0.5869140625	0.422607421875	upper	../fonts/zerothre.ttf
667376	WORD	wordpools/wasnorm_wordpool.txt	LTP067	ltpFR	16	5	0	SUPERMARKET	1409	n/a	1	0	0.5869140625	0.422607421875	upper	../fonts/zerothre.ttf
673195	REC_START	n/a	LTP067	ltpFR	16	5	n/a	n/a	n/a	n/a	n/a	n/a	n/a	n/a	n/a	n/a
673270	REC_WORD	wordpools/wasnorm_wordpool.txt	LTP067	ltpFR	16	5	0	SUPERMARKET	1409	n/a	1	n/a	n/a	n/a	n/a	n/a
674128	REC_WORD	wordpools/wasnorm_wordpool.txt	LTP067	ltpFR	16	5	0	VALVE	1546	n/a	0	n/a	n/a	n/a	n/a	n/a
674548	REC_WORD	wordpools/wasnorm_wordpool.txt	LTP067	ltpFR	16	5	0	AFRICA	9	n/a	1	n/a	n/a	n/a	n/a	n/a
675108	REC_WORD	wordpools/wasnorm_wordpool.txt	LTP067	ltpFR	16	5	0	ASIA	46	n/a	1	n/a	n/a	n/a	n/a	n/a
675562	REC_WORD	wordpools/wasnorm_wordpool.txt	LTP067	ltpFR	16	5	0	LEMON	810	n/a	0	n/a	n/a	n/a	n/a	n/a
676118	REC_WORD	wordpools/wasnorm_wordpool.txt	LTP067	ltpFR	16	5	0	TART	1436	n/a	0	n/a	n/a	n/a	n/a	n/a
676673	REC_WORD	wordpools/wasnorm_wordpool.txt	LTP067	ltpFR	16	5	0	STEP	1377	n/a	0	n/a	n/a	n/a	n/a	n/a
687023	REC_WORD	wordpools/wasnorm_wordpool.txt	LTP067	ltpFR	16	5	0	REFRIGERATOR	1179	n/a	1	n/a	n/a	n/a	n/a	n/a
688550	REC_WORD	wordpools/wasnorm_wordpool.txt	LTP067	ltpFR	16	5	0	VALVE	1546	n/a	0	n/a	n/a	n/a	n/a	n/a
689622	REC_WORD	wordpools/wasnorm_wordpool.txt	LTP067	ltpFR	16	5	0	TART	1436	n/a	0	n/a	n/a	n/a	n/a	n/a
690895	REC_WORD	wordpools/wasnorm_wordpool.txt	LTP067	ltpFR	16	5	0	SPOON	1357	n/a	0	n/a	n/a	n/a	n/a	n/a
695110	REC_WORD	wordpools/wasnorm_wordpool.txt	LTP067	ltpFR	16	5	0	YARD	1630	n/a	1	n/a	n/a	n/a	n/a	n/a
697220	REC_WORD	wordpools/wasnorm_wordpool.txt	LTP067	ltpFR	16	5	n/a	RED	-1	n/a	n/a	n/a	n/a	n/a	n/a	n/a
701621	REC_WORD	wordpools/wasnorm_wordpool.txt	LTP067	ltpFR	16	5	n/a	WINE	1613	n/a	n/a	n/a	n/a	n/a	n/a	n/a
705646	REC_WORD	wordpools/wasnorm_wordpool.txt	LTP067	ltpFR	16	5	n/a	COPY	-1	n/a	n/a	n/a	n/a	n/a	n/a	n/a
708180	REC_WORD	wordpools/wasnorm_wordpool.txt	LTP067	ltpFR	16	5	n/a	PET	-1	n/a	n/a	n/a	n/a	n/a	n/a	n/a
715194	REC_WORD	wordpools/wasnorm_wordpool.txt	LTP067	ltpFR	16	5	n/a	FOX	598	n/a	n/a	n/a	n/a	n/a	n/a	n/a
730150	REC_WORD	wordpools/wasnorm_wordpool.txt	LTP067	ltpFR	16	5	1	WALRUS	1585	n/a	1	n/a	n/a	n/a	n/a	n/a
734555	REC_WORD	wordpools/wasnorm_wordpool.txt	LTP067	ltpFR	16	5	n/a	ANTELOPE	27	n/a	n/a	n/a	n/a	n/a	n/a	n/a
750679	WORD	wordpools/wasnorm_wordpool.txt	LTP067	ltpFR	16	6	0	CRATER	400	n/a	1	0	0.5869140625	0.422607421875	upper	../fonts/zerothre.ttf
754599	WORD	wordpools/wasnorm_wordpool.txt	LTP067	ltpFR	16	6	0	PLATE	1086	n/a	1	0	0.5869140625	0.422607421875	upper	../fonts/zerothre.ttf
758453	WORD	wordpools/wasnorm_wordpool.txt	LTP067	ltpFR	16	6	0	BED	110	n/a	n/a	0	0.5869140625	0.422607421875	upper	../fonts/zerothre.ttf
761475	SLOW_MSG	n/a	LTP067	ltpFR	16	6	n/a	n/a	n/a	n/a	n/a	n/a	n/a	n/a	n/a	n/a
763813	WORD	wordpools/wasnorm_wordpool.txt	LTP067	ltpFR	16	6	0	LOFT	840	n/a	1	0	0.5869140625	0.422607421875	upper	../fonts/zerothre.ttf
767726	WORD	wordpools/wasnorm_wordpool.txt	LTP067	ltpFR	16	6	0	SACK	1220	n/a	1	0	0.5869140625	0.422607421875	upper	../fonts/zerothre.ttf
771546	WORD	wordpools/wasnorm_wordpool.txt	LTP067	ltpFR	16	6	0	CARTON	251	n/a	1	0	0.5869140625	0.422607421875	upper	../fonts/zerothre.ttf
775708	WORD	wordpools/wasnorm_wordpool.txt	LTP067	ltpFR	16	6	0	STEW	1380	n/a	0	0	0.5869140625	0.422607421875	upper	../fonts/zerothre.ttf
779687	WORD	wordpools/wasnorm_wordpool.txt	LTP067	ltpFR	16	6	0	SHEARS	1276	n/a	0	0	0.5869140625	0.422607421875	upper	../fonts/zerothre.ttf
783557	WORD	wordpools/wasnorm_wordpool.txt	LTP067	ltpFR	16	6	0	GOOSE	649	n/a	1	0	0.5869140625	0.422607421875	upper	../fonts/zerothre.ttf
787461	WORD	wordpools/wasnorm_wordpool.txt	LTP067	ltpFR	16	6	0	PORTRAIT	1111	n/a	1	0	0.5869140625	0.422607421875	upper	../fonts/zerothre.ttf
791431	WORD	wordpools/wasnorm_wordpool.txt	LTP067	ltpFR	16	6	0	JET	756	n/a	0	0	0.5869140625	0.422607421875	upper	../fonts/zerothre.ttf
795435	WORD	wordpools/wasnorm_wordpool.txt	LTP067	ltpFR	16	6	0	WAREHOUSE	1588	n/a	1	0	0.5869140625	0.422607421875	upper	../fonts/zerothre.ttf
799605	WORD	wordpools/wasnorm_wordpool.txt	LTP067	ltpFR	16	6	0	COOK	372	n/a	1	0	0.5869140625	0.422607421875	upper	../fonts/zerothre.ttf
803667	WORD	wordpools/wasnorm_wordpool.txt	LTP067	ltpFR	16	6	0	BOUILLON	154	n/a	1	0	0.5869140625	0.422607421875	upper	../fonts/zerothre.ttf
807637	WORD	wordpools/wasnorm_wordpool.txt	LTP067	ltpFR	16	6	0	RAISIN	1163	n/a	0	0	0.5869140625	0.422607421875	upper	../fonts/zerothre.ttf
811599	WORD	wordpools/wasnorm_wordpool.txt	LTP067	ltpFR	16	6	0	STRAWBERRY	1391	n/a	0	0	0.5869140625	0.422607421875	upper	../fonts/zerothre.ttf
817402	REC_START	n/a	LTP067	ltpFR	16	6	n/a	n/a	n/a	n/a	n/a	n/a	n/a	n/a	n/a	n/a
817688	REC_WORD	wordpools/wasnorm_wordpool.txt	LTP067	ltpFR	16	6	0	RAISIN	1163	n/a	0	n/a	n/a	n/a	n/a	n/a
818180	REC_WORD	wordpools/wasnorm_wordpool.txt	LTP067	ltpFR	16	6	0	STRAWBERRY	1391	n/a	0	n/a	n/a	n/a	n/a	n/a
819243	REC_WORD	wordpools/wasnorm_wordpool.txt	LTP067	ltpFR	16	6	0	SHEARS	1276	n/a	0	n/a	n/a	n/a	n/a	n/a
820061	REC_WORD	wordpools/wasnorm_wordpool.txt	LTP067	ltpFR	16	6	0	WAREHOUSE	1588	n/a	1	n/a	n/a	n/a	n/a	n/a
821393	REC_WORD	wordpools/wasnorm_wordpool.txt	LTP067	ltpFR	16	6	0	JET	756	n/a	0	n/a	n/a	n/a	n/a	n/a
826052	REC_WORD	wordpools/wasnorm_wordpool.txt	LTP067	ltpFR	16	6	n/a	FOLDER	588	n/a	n/a	n/a	n/a	n/a	n/a	n/a
827045	REC_WORD	wordpools/wasnorm_wordpool.txt	LTP067	ltpFR	16	6	n/a	FORUM	-1	n/a	n/a	n/a	n/a	n/a	n/a	n/a
847848	REC_WORD	wordpools/wasnorm_wordpool.txt	LTP067	ltpFR	16	6	0	RAISIN	1163	n/a	0	n/a	n/a	n/a	n/a	n/a
850292	REC_WORD	wordpools/wasnorm_wordpool.txt	LTP067	ltpFR	16	6	0	PORTRAIT	1111	n/a	1	n/a	n/a	n/a	n/a	n/a
853500	REC_WORD	wordpools/wasnorm_wordpool.txt	LTP067	ltpFR	16	6	0	LANDSCAPE	799	n/a	1	n/a	n/a	n/a	n/a	n/a
859471	REC_WORD	wordpools/wasnorm_wordpool.txt	LTP067	ltpFR	16	6	1	CHEST	295	n/a	0	n/a	n/a	n/a	n/a	n/a
861521	REC_WORD	wordpools/wasnorm_wordpool.txt	LTP067	ltpFR	16	6	1	WALRUS	1585	n/a	1	n/a	n/a	n/a	n/a	n/a
862235	REC_WORD_VV	wordpools/wasnorm_wordpool.txt	LTP067	ltpFR	16	6	n/a	<>	-1	n/a	n/a	n/a	n/a	n/a	n/a	n/a
868920	REC_WORD	wordpools/wasnorm_wordpool.txt	LTP067	ltpFR	16	6	0	YARD	1630	n/a	1	n/a	n/a	n/a	n/a	n/a
871504	REC_WORD	wordpools/wasnorm_wordpool.txt	LTP067	ltpFR	16	6	n/a	PORCUPINE	1107	n/a	n/a	n/a	n/a	n/a	n/a	n/a
887470	REC_WORD	wordpools/wasnorm_wordpool.txt	LTP067	ltpFR	16	6	n/a	ZEBRA	1635	n/a	n/a	n/a	n/a	n/a	n/a	n/a
889183	REC_WORD_VV	wordpools/wasnorm_wordpool.txt	LTP067	ltpFR	16	6	n/a	<>	-1	n/a	n/a	n/a	n/a	n/a	n/a	n/a
894760	WORD	wordpools/wasnorm_wordpool.txt	LTP067	ltpFR	16	7	0	CHECKERS	285	n/a	0	0	0.5869140625	0.422607421875	upper	../fonts/zerothre.ttf
898614	WORD	wordpools/wasnorm_wordpool.txt	LTP067	ltpFR	16	7	0	PALM	1007	n/a	1	0	0.5869140625	0.422607421875	upper	../fonts/zerothre.ttf
902643	WORD	wordpools/wasnorm_wordpool.txt	LTP067	ltpFR	16	7	0	ROOT	1210	n/a	0	0	0.5869140625	0.422607421875	upper	../fonts/zerothre.ttf
906688	WORD	wordpools/wasnorm_wordpool.txt	LTP067	ltpFR	16	7	0	TOWEL	1489	n/a	0	0	0.5869140625	0.422607421875	upper	../fonts/zerothre.ttf
910849	WORD	wordpools/wasnorm_wordpool.txt	LTP067	ltpFR	16	7	0	FARM	552	n/a	1	0	0.5869140625	0.422607421875	upper	../fonts/zerothre.ttf
915029	WORD	wordpools/wasnorm_wordpool.txt	LTP067	ltpFR	16	7	0	POLITICIAN	1099	n/a	1	0	0.5869140625	0.422607421875	upper	../fonts/zerothre.ttf
919041	WORD	wordpools/wasnorm_wordpool.txt	LTP067	ltpFR	16	7	0	CUFF	423	n/a	0	0	0.5869140625	0.422607421875	upper	../fonts/zerothre.ttf
922918	WORD	wordpools/wasnorm_wordpool.txt	LTP067	ltpFR	16	7	0	TERMINAL	1450	n/a	1	0	0.5869140625	0.422607421875	upper	../fonts/zerothre.ttf
926764	WORD	wordpools/wasnorm_wordpool.txt	LTP067	ltpFR	16	7	0	BLACKBOARD	133	n/a	1	0	0.5869140625	0.422607421875	upper	../fonts/zerothre.ttf
930817	WORD	wordpools/wasnorm_wordpool.txt	LTP067	ltpFR	16	7	0	JOURNAL	760	n/a	0	0	0.5869140625	0.422607421875	upper	../fonts/zerothre.ttf
934821	WORD	wordpools/wasnorm_wordpool.txt	LTP067	ltpFR	16	7	0	LETTER	813	n/a	0	0	0.5869140625	0.422607421875	upper	../fonts/zerothre.ttf
938709	WORD	wordpools/wasnorm_wordpool.txt	LTP067	ltpFR	16	7	0	JUGGLER	763	n/a	1	0	0.5869140625	0.422607421875	upper	../fonts/zerothre.ttf
942903	WORD	wordpools/wasnorm_wordpool.txt	LTP067	ltpFR	16	7	0	ENGINE	535	n/a	1	0	0.5869140625	0.422607421875	upper	../fonts/zerothre.ttf
947041	WORD	wordpools/wasnorm_wordpool.txt	LTP067	ltpFR	16	7	0	PISTON	1076	n/a	1	0	0.5869140625	0.422607421875	upper	../fonts/zerothre.ttf
951111	WORD	wordpools/wasnorm_wordpool.txt	LTP067	ltpFR	16	7	0	PRESIDENT	1121	n/a	1	0	0.5869140625	0.422607421875	upper	../fonts/zerothre.ttf
954981	WORD	wordpools/wasnorm_wordpool.txt	LTP067	ltpFR	16	7	0	LAUNDRY	803	n/a	1	0	0.5869140625	0.422607421875	upper	../fonts/zerothre.ttf
960609	REC_START	n/a	LTP067	ltpFR	16	7	n/a	n/a	n/a	n/a	n/a	n/a	n/a	n/a	n/a	n/a
960871	REC_WORD	wordpools/wasnorm_wordpool.txt	LTP067	ltpFR	16	7	0	LAUNDRY	803	n/a	1	n/a	n/a	n/a	n/a	n/a
961567	REC_WORD	wordpools/wasnorm_wordpool.txt	LTP067	ltpFR	16	7	0	PRESIDENT	1121	n/a	1	n/a	n/a	n/a	n/a	n/a
962225	REC_WORD	wordpools/wasnorm_wordpool.txt	LTP067	ltpFR	16	7	0	POLITICIAN	1099	n/a	1	n/a	n/a	n/a	n/a	n/a
964246	REC_WORD	wordpools/wasnorm_wordpool.txt	LTP067	ltpFR	16	7	0	TERMINAL	1450	n/a	1	n/a	n/a	n/a	n/a	n/a
964834	REC_WORD	wordpools/wasnorm_wordpool.txt	LTP067	ltpFR	16	7	n/a	AIRPORT	13	n/a	n/a	n/a	n/a	n/a	n/a	n/a
969603	REC_WORD	wordpools/wasnorm_wordpool.txt	LTP067	ltpFR	16	7	0	PALM	1007	n/a	1	n/a	n/a	n/a	n/a	n/a
970261	REC_WORD	wordpools/wasnorm_wordpool.txt	LTP067	ltpFR	16	7	0	FARM	552	n/a	1	n/a	n/a	n/a	n/a	n/a
977454	REC_WORD	wordpools/wasnorm_wordpool.txt	LTP067	ltpFR	16	7	0	PALM	1007	n/a	1	n/a	n/a	n/a	n/a	n/a
978034	REC_WORD	wordpools/wasnorm_wordpool.txt	LTP067	ltpFR	16	7	0	FARM	552	n/a	1	n/a	n/a	n/a	n/a	n/a
980194	REC_WORD	wordpools/wasnorm_wordpool.txt	LTP067	ltpFR	16	7	n/a	FROG	608	n/a	n/a	n/a	n/a	n/a	n/a	n/a
993262	REC_WORD	wordpools/wasnorm_wordpool.txt	LTP067	ltpFR	16	7	0	PALM	1007	n/a	1	n/a	n/a	n/a	n/a	n/a
1015061	REC_WORD	wordpools/wasnorm_wordpool.txt	LTP067	ltpFR	16	7	n/a	PORCUPINE	1107	n/a	n/a	n/a	n/a	n/a	n/a	n/a
1021458	REC_WORD	wordpools/wasnorm_wordpool.txt	LTP067	ltpFR	16	7	1	COBRA	336	n/a	1	n/a	n/a	n/a	n/a	n/a
1038568	WORD	wordpools/wasnorm_wordpool.txt	LTP067	ltpFR	16	8	-1	CAP	236	n/a	-1	1	1.0	1.0	upper	../fonts/Verdana.ttf
1042580	WORD	wordpools/wasnorm_wordpool.txt	LTP067	ltpFR	16	8	-1	TILE	1468	n/a	-1	1	1.0	1.0	upper	../fonts/Verdana.ttf
1046508	WORD	wordpools/wasnorm_wordpool.txt	LTP067	ltpFR	16	8	-1	SHOULDER	1294	n/a	-1	1	1.0	1.0	upper	../fonts/Verdana.ttf
1050437	WORD	wordpools/wasnorm_wordpool.txt	LTP067	ltpFR	16	8	-1	GLOVE	642	n/a	-1	1	1.0	1.0	upper	../fonts/Verdana.ttf
1054358	WORD	wordpools/wasnorm_wordpool.txt	LTP067	ltpFR	16	8	-1	VICTOR	1563	n/a	-1	1	1.0	1.0	upper	../fonts/Verdana.ttf
1058469	WORD	wordpools/wasnorm_wordpool.txt	LTP067	ltpFR	16	8	-1	WINNER	1615	n/a	-1	1	1.0	1.0	upper	../fonts/Verdana.ttf
1062664	WORD	wordpools/wasnorm_wordpool.txt	LTP067	ltpFR	16	8	-1	COB	334	n/a	-1	1	1.0	1.0	upper	../fonts/Verdana.ttf
1066735	WORD	wordpools/wasnorm_wordpool.txt	LTP067	ltpFR	16	8	-1	PRIEST	1122	n/a	-1	1	1.0	1.0	upper	../fonts/Verdana.ttf
1070754	WORD	wordpools/wasnorm_wordpool.txt	LTP067	ltpFR	16	8	-1	VOLLEYBALL	1576	n/a	-1	1	1.0	1.0	upper	../fonts/Verdana.ttf
1074734	WORD	wordpools/wasnorm_wordpool.txt	LTP067	ltpFR	16	8	-1	BARN	89	n/a	-1	1	1.0	1.0	upper	../fonts/Verdana.ttf
1078662	WORD	wordpools/wasnorm_wordpool.txt	LTP067	ltpFR	16	8	-1	CRIMINAL	409	n/a	-1	1	1.0	1.0	upper	../fonts/Verdana.ttf
1082666	WORD	wordpools/wasnorm_wordpool.txt	LTP067	ltpFR	16	8	-1	CEILING	265	n/a	-1	1	1.0	1.0	upper	../fonts/Verdana.ttf
1086537	WORD	wordpools/wasnorm_wordpool.txt	LTP067	ltpFR	16	8	-1	STORE	1387	n/a	-1	1	1.0	1.0	upper	../fonts/Verdana.ttf
1090357	WORD	wordpools/wasnorm_wordpool.txt	LTP067	ltpFR	16	8	-1	ROBBER	1197	n/a	-1	1	1.0	1.0	upper	../fonts/Verdana.ttf
1094436	WORD	wordpools/wasnorm_wordpool.txt	LTP067	ltpFR	16	8	-1	SPIDER	1351	n/a	-1	1	1.0	1.0	upper	../fonts/Verdana.ttf
1098256	WORD	wordpools/wasnorm_wordpool.txt	LTP067	ltpFR	16	8	-1	SWATTER	1418	n/a	-1	1	1.0	1.0	upper	../fonts/Verdana.ttf
1103933	REC_START	n/a	LTP067	ltpFR	16	8	n/a	n/a	n/a	n/a	n/a	n/a	n/a	n/a	n/a	n/a
1104220	REC_WORD	wordpools/wasnorm_wordpool.txt	LTP067	ltpFR	16	8	-1	SWATTER	1418	n/a	-1	n/a	n/a	n/a	n/a	n/a
1105093	REC_WORD	wordpools/wasnorm_wordpool.txt	LTP067	ltpFR	16	8	-1	BARN	89	n/a	-1	n/a	n/a	n/a	n/a	n/a
1105815	REC_WORD	wordpools/wasnorm_wordpool.txt	LTP067	ltpFR	16	8	-1	VOLLEYBALL	1576	n/a	-1	n/a	n/a	n/a	n/a	n/a
1110349	REC_WORD	wordpools/wasnorm_wordpool.txt	LTP067	ltpFR	16	8	-1	CAP	236	n/a	-1	n/a	n/a	n/a	n/a	n/a
1112512	REC_WORD	wordpools/wasnorm_wordpool.txt	LTP067	ltpFR	16	8	-1	TILE	1468	n/a	-1	n/a	n/a	n/a	n/a	n/a
1113037	REC_WORD	wordpools/wasnorm_wordpool.txt	LTP067	ltpFR	16	8	-1	CEILING	265	n/a	-1	n/a	n/a	n/a	n/a	n/a
1115496	REC_WORD	wordpools/wasnorm_wordpool.txt	LTP067	ltpFR	16	8	-1	VOLLEYBALL	1576	n/a	-1	n/a	n/a	n/a	n/a	n/a
1134134	REC_WORD	wordpools/wasnorm_wordpool.txt	LTP067	ltpFR	16	8	-1	SHOULDER	1294	n/a	-1	n/a	n/a	n/a	n/a	n/a
1134977	REC_WORD	wordpools/wasnorm_wordpool.txt	LTP067	ltpFR	16	8	-1	GLOVE	642	n/a	-1	n/a	n/a	n/a	n/a	n/a
1136150	REC_WORD	wordpools/wasnorm_wordpool.txt	LTP067	ltpFR	16	8	-1	VOLLEYBALL	1576	n/a	-1	n/a	n/a	n/a	n/a	n/a
1140440	REC_WORD	wordpools/wasnorm_wordpool.txt	LTP067	ltpFR	16	8	-1	PRIEST	1122	n/a	-1	n/a	n/a	n/a	n/a	n/a
1144600	REC_WORD	wordpools/wasnorm_wordpool.txt	LTP067	ltpFR	16	8	n/a	PADDLE	1000	n/a	n/a	n/a	n/a	n/a	n/a	n/a
1148526	REC_WORD	wordpools/wasnorm_wordpool.txt	LTP067	ltpFR	16	8	-1	VICTOR	1563	n/a	-1	n/a	n/a	n/a	n/a	n/a
1152188	REC_WORD	wordpools/wasnorm_wordpool.txt	LTP067	ltpFR	16	8	-1	CAP	236	n/a	-1	n/a	n/a	n/a	n/a	n/a
1154094	REC_WORD	wordpools/wasnorm_wordpool.txt	LTP067	ltpFR	16	8	-1	SHOULDER	1294	n/a	-1	n/a	n/a	n/a	n/a	n/a
1155486	REC_WORD	wordpools/wasnorm_wordpool.txt	LTP067	ltpFR	16	8	-1	GLOVE	642	n/a	-1	n/a	n/a	n/a	n/a	n/a
1161178	REC_WORD	wordpools/wasnorm_wordpool.txt	LTP067	ltpFR	16	8	n/a	POCKET	1093	n/a	n/a	n/a	n/a	n/a	n/a	n/a
1181326	WORD	wordpools/wasnorm_wordpool.txt	LTP067	ltpFR	16	9	1	POPE	1105	n/a	1	1	0.412841796875	0.57763671875	lower	../fonts/amplitud.ttf
1185404	WORD	wordpools/wasnorm_wordpool.txt	LTP067	ltpFR	16	9	1	AMBULANCE	19	n/a	0	1	0.412841796875	0.57763671875	lower	../fonts/amplitud.ttf
1189300	WORD	wordpools/wasnorm_wordpool.txt	LTP067	ltpFR	16	9	1	FLUTE	585	n/a	0	1	0.412841796875	0.57763671875	lower	../fonts/amplitud.ttf
1193420	WORD	wordpools/wasnorm_wordpool.txt	LTP067	ltpFR	16	9	1	PASSAGE	1019	n/a	0	1	0.412841796875	0.57763671875	lower	../fonts/amplitud.ttf
1197399	WORD	wordpools/wasnorm_wordpool.txt	LTP067	ltpFR	16	9	1	KNOB	787	n/a	0	1	0.412841796875	0.57763671875	lower	../fonts/amplitud.ttf
1201253	WORD	wordpools/wasnorm_wordpool.txt	LTP067	ltpFR	16	9	1	VIOLA	1570	n/a	1	1	0.412841796875	0.57763671875	lower	../fonts/amplitud.ttf
1205406	WORD	wordpools/wasnorm_wordpool.txt	LTP067	ltpFR	16	9	1	ELM	527	n/a	0	1	0.412841796875	0.57763671875	lower	../fonts/amplitud.ttf
1209418	WORD	wordpools/wasnorm_wordpool.txt	LTP067	ltpFR	16	9	1	SAW	1239	n/a	0	1	0.412841796875	0.57763671875	lower	../fonts/amplitud.ttf
1213563	WORD	wordpools/wasnorm_wordpool.txt	LTP067	ltpFR	16	9	1	SIDING	1304	n/a	0	1	0.412841796875	0.57763671875	lower	../fonts/amplitud.ttf
1217567	WORD	wordpools/wasnorm_wordpool.txt	LTP067	ltpFR	16	9	1	FLASHLIGHT	575	n/a	0	1	0.412841796875	0.57763671875	lower	../fonts/amplitud.ttf
1221595	WORD	wordpools/wasnorm_wordpool.txt	LTP067	ltpFR	16	9	1	ANCESTOR	20	n/a	1	1	0.412841796875	0.57763671875	lower	../fonts/amplitud.ttf
1225716	WORD	wordpools/wasnorm_wordpool.txt	LTP067	ltpFR	16	9	1	BUILDER	190	n/a	0	1	0.412841796875	0.57763671875	lower	../fonts/amplitud.ttf
1229893	WORD	wordpools/wasnorm_wordpool.txt	LTP067	ltpFR	16	9	1	NURSE	963	n/a	1	1	0.412841796875	0.57763671875	lower	../fonts/amplitud.ttf
1234013	WORD	wordpools/wasnorm_wordpool.txt	LTP067	ltpFR	16	9	1	AUTHOR	61	n/a	1	1	0.412841796875	0.57763671875	lower	../fonts/amplitud.ttf
1237867	WORD	wordpools/wasnorm_wordpool.txt	LTP067	ltpFR	16	9	1	ALMANAC	17	n/a	0	1	0.412841796875	0.57763671875	lower	../fonts/amplitud.ttf
1241979	WORD	wordpools/wasnorm_wordpool.txt	LTP067	ltpFR	16	9	1	BLUEPRINT	142	n/a	0	1	0.412841796875	0.57763671875	lower	../fonts/amplitud.ttf
1247749	REC_START	n/a	LTP067	ltpFR	16	9	n/a	n/a	n/a	n/a	n/a	n/a	n/a	n/a	n/a	n/a
1247912	REC_WORD	wordpools/wasnorm_wordpool.txt	LTP067	ltpFR	16	9	1	BUILDER	190	n/a	0	n/a	n/a	n/a	n/a	n/a
1248412	REC_WORD	wordpools/wasnorm_wordpool.txt	LTP067	ltpFR	16	9	1	BLUEPRINT	142	n/a	0	n/a	n/a	n/a	n/a	n/a
1250263	REC_WORD	wordpools/wasnorm_wordpool.txt	LTP067	ltpFR	16	9	1	NURSE	963	n/a	1	n/a	n/a	n/a	n/a	n/a
1252513	REC_WORD	wordpools/wasnorm_wordpool.txt	LTP067	ltpFR	16	9	0	COUSIN	392	n/a	1	n/a	n/a	n/a	n/a	n/a
1257048	REC_WORD	wordpools/wasnorm_wordpool.txt	LTP067	ltpFR	16	9	1	ELM	527	n/a	0	n/a	n/a	n/a	n/a	n/a
1257547	REC_WORD	wordpools/wasnorm_wordpool.txt	LTP067	ltpFR	16	9	1	SAW	1239	n/a	0	n/a	n/a	n/a	n/a	n/a
1259083	REC_WORD	wordpools/wasnorm_wordpool.txt	LTP067	ltpFR	16	9	1	SIDING	1304	n/a	0	n/a	n/a	n/a	n/a	n/a
1261348	REC_WORD	wordpools/wasnorm_wordpool.txt	LTP067	ltpFR	16	9	1	SAW	1239	n/a	0	n/a	n/a	n/a	n/a	n/a
1269419	REC_WORD	wordpools/wasnorm_wordpool.txt	LTP067	ltpFR	16	9	1	ELM	527	n/a	0	n/a	n/a	n/a	n/a	n/a
1280340	REC_WORD	wordpools/wasnorm_wordpool.txt	LTP067	ltpFR	16	9	1	FLASHLIGHT	575	n/a	0	n/a	n/a	n/a	n/a	n/a
1282644	REC_WORD	wordpools/wasnorm_wordpool.txt	LTP067	ltpFR	16	9	1	ELM	527	n/a	0	n/a	n/a	n/a	n/a	n/a
1297745	REC_WORD	wordpools/wasnorm_wordpool.txt	LTP067	ltpFR	16	9	n/a	COPY	-1	n/a	n/a	n/a	n/a	n/a	n/a	n/a
1300688	REC_WORD	wordpools/wasnorm_wordpool.txt	LTP067	ltpFR	16	9	1	BLUEPRINT	142	n/a	0	n/a	n/a	n/a	n/a	n/a
1305517	REC_WORD	wordpools/wasnorm_wordpool.txt	LTP067	ltpFR	16	9	0	LETTER	813	n/a	0	n/a	n/a	n/a	n/a	n/a
1306436	REC_WORD	wordpools/wasnorm_wordpool.txt	LTP067	ltpFR	16	9	0	JOURNAL	760	n/a	0	n/a	n/a	n/a	n/a	n/a
1325149	WORD	wordpools/wasnorm_wordpool.txt	LTP067	ltpFR	16	10	0	COCOON	339	n/a	2	0	0.5869140625	0.422607421875	upper	../fonts/zerothre.ttf
1326813	KEY_MSG	n/a	LTP067	ltpFR	16	10	n/a	n/a	n/a	n/a	n/a	n/a	n/a	n/a	n/a	n/a
1329286	WORD	wordpools/wasnorm_wordpool.txt	LTP067	ltpFR	16	10	0	SALMON	1227	n/a	1	0	0.5869140625	0.422607421875	upper	../fonts/zerothre.ttf
1333282	WORD	wordpools/wasnorm_wordpool.txt	LTP067	ltpFR	16	10	0	FINGERNAIL	568	n/a	0	0	0.5869140625	0.422607421875	upper	../fonts/zerothre.ttf
1337468	WORD	wordpools/wasnorm_wordpool.txt	LTP067	ltpFR	16	10	1	SHOE	1288	n/a	0	1	0.412841796875	0.57763671875	lower	../fonts/amplitud.ttf
1341630	WORD	wordpools/wasnorm_wordpool.txt	LTP067	ltpFR	16	10	1	ONION	977	n/a	0	1	0.412841796875	0.57763671875	lower	../fonts/amplitud.ttf
1345492	WORD	wordpools/wasnorm_wordpool.txt	LTP067	ltpFR	16	10	1	BABY	64	n/a	1	1	0.412841796875	0.57763671875	lower	../fonts/amplitud.ttf
1349446	WORD	wordpools/wasnorm_wordpool.txt	LTP067	ltpFR	16	10	1	SPICE	1350	n/a	0	1	0.412841796875	0.57763671875	lower	../fonts/amplitud.ttf
1353466	WORD	wordpools/wasnorm_wordpool.txt	LTP067	ltpFR	16	10	0	HERB	704	n/a	0	0	0.5869140625	0.422607421875	upper	../fonts/zerothre.ttf
1357637	WORD	wordpools/wasnorm_wordpool.txt	LTP067	ltpFR	16	10	0	RAILROAD	1162	n/a	1	0	0.5869140625	0.422607421875	upper	../fonts/zerothre.ttf
1361682	WORD	wordpools/wasnorm_wordpool.txt	LTP067	ltpFR	16	10	1	TROUT	1511	n/a	1	1	0.412841796875	0.57763671875	lower	../fonts/amplitud.ttf
1365627	WORD	wordpools/wasnorm_wordpool.txt	LTP067	ltpFR	16	10	1	METEOR	889	n/a	0	1	0.412841796875	0.57763671875	lower	../fonts/amplitud.ttf
1369706	WORD	wordpools/wasnorm_wordpool.txt	LTP067	ltpFR	16	10	1	HAWK	692	n/a	1	1	0.412841796875	0.57763671875	lower	../fonts/amplitud.ttf
1373883	WORD	wordpools/wasnorm_wordpool.txt	LTP067	ltpFR	16	10	1	WART	1590	n/a	0	1	0.412841796875	0.57763671875	lower	../fonts/amplitud.ttf
1377887	WORD	wordpools/wasnorm_wordpool.txt	LTP067	ltpFR	16	10	0	UNICORN	1538	n/a	1	0	0.5869140625	0.422607421875	upper	../fonts/zerothre.ttf
1381857	WORD	wordpools/wasnorm_wordpool.txt	LTP067	ltpFR	16	10	0	ATMOSPHERE	54	n/a	1	0	0.5869140625	0.422607421875	upper	../fonts/zerothre.ttf
1385786	WORD	wordpools/wasnorm_wordpool.txt	LTP067	ltpFR	16	10	0	ROACH	1195	n/a	0	0	0.5869140625	0.422607421875	upper	../fonts/zerothre.ttf
1391564	REC_START	n/a	LTP067	ltpFR	16	10	n/a	n/a	n/a	n/a	n/a	n/a	n/a	n/a	n/a	n/a
1392011	REC_WORD	wordpools/wasnorm_wordpool.txt	LTP067	ltpFR	16	10	0	ROACH	1195	n/a	0	n/a	n/a	n/a	n/a	n/a
1392419	REC_WORD	wordpools/wasnorm_wordpool.txt	LTP067	ltpFR	16	10	0	ATMOSPHERE	54	n/a	1	n/a	n/a	n/a	n/a	n/a
1393360	REC_WORD	wordpools/wasnorm_wordpool.txt	LTP067	ltpFR	16	10	1	METEOR	889	n/a	0	n/a	n/a	n/a	n/a	n/a
1411743	REC_WORD	wordpools/wasnorm_wordpool.txt	LTP067	ltpFR	16	10	1	SPICE	1350	n/a	0	n/a	n/a	n/a	n/a	n/a
1412369	REC_WORD	wordpools/wasnorm_wordpool.txt	LTP067	ltpFR	16	10	1	ONION	977	n/a	0	n/a	n/a	n/a	n/a	n/a
1412756	REC_WORD	wordpools/wasnorm_wordpool.txt	LTP067	ltpFR	16	10	1	SHOE	1288	n/a	0	n/a	n/a	n/a	n/a	n/a
1413200	REC_WORD	wordpools/wasnorm_wordpool.txt	LTP067	ltpFR	16	10	1	BABY	64	n/a	1	n/a	n/a	n/a	n/a	n/a
1419406	REC_WORD	wordpools/wasnorm_wordpool.txt	LTP067	ltpFR	16	10	1	BABY	64	n/a	1	n/a	n/a	n/a	n/a	n/a
1421830	REC_WORD	wordpools/wasnorm_wordpool.txt	LTP067	ltpFR	16	10	1	ONION	977	n/a	0	n/a	n/a	n/a	n/a	n/a
1430676	REC_WORD	wordpools/wasnorm_wordpool.txt	LTP067	ltpFR	16	10	1	METEOR	889	n/a	0	n/a	n/a	n/a	n/a	n/a
1445267	REC_WORD_VV	wordpools/wasnorm_wordpool.txt	LTP067	ltpFR	16	10	n/a	<>	-1	n/a	n/a	n/a	n/a	n/a	n/a	n/a
1446883	REC_WORD	wordpools/wasnorm_wordpool.txt	LTP067	ltpFR	16	10	n/a	VIOLIN	1571	n/a	n/a	n/a	n/a	n/a	n/a	n/a
1460872	REC_WORD	wordpools/wasnorm_wordpool.txt	LTP067	ltpFR	16	10	n/a	PTERODACTYL	-1	n/a	n/a	n/a	n/a	n/a	n/a	n/a
1482416	WORD	wordpools/wasnorm_wordpool.txt	LTP067	ltpFR	16	11	1	BEAN	105	n/a	0	1	0.412841796875	0.57763671875	lower	../fonts/amplitud.ttf
1486461	WORD	wordpools/wasnorm_wordpool.txt	LTP067	ltpFR	16	11	1	POWDER	1117	n/a	0	1	0.412841796875	0.57763671875	lower	../fonts/amplitud.ttf
1490390	WORD	wordpools/wasnorm_wordpool.txt	LTP067	ltpFR	16	11	1	MAMMAL	861	n/a	1	1	0.412841796875	0.57763671875	lower	../fonts/amplitud.ttf
1494593	WORD	wordpools/wasnorm_wordpool.txt	LTP067	ltpFR	16	11	1	CHIPMUNK	304	n/a	1	1	0.412841796875	0.57763671875	lower	../fonts/amplitud.ttf
1498555	WORD	wordpools/wasnorm_wordpool.txt	LTP067	ltpFR	16	11	0	PRAIRIE	1118	n/a	1	0	0.5869140625	0.422607421875	upper	../fonts/zerothre.ttf
1502534	WORD	wordpools/wasnorm_wordpool.txt	LTP067	ltpFR	16	11	0	MAILMAN	858	n/a	1	0	0.5869140625	0.422607421875	upper	../fonts/zerothre.ttf
1506421	WORD	wordpools/wasnorm_wordpool.txt	LTP067	ltpFR	16	11	0	DEPARTMENT	449	n/a	1	0	0.5869140625	0.422607421875	upper	../fonts/zerothre.ttf
1510416	WORD	wordpools/wasnorm_wordpool.txt	LTP067	ltpFR	16	11	0	CREEK	404	n/a	1	0	0.5869140625	0.422607421875	upper	../fonts/zerothre.ttf
1514587	WORD	wordpools/wasnorm_wordpool.txt	LTP067	ltpFR	16	11	1	SHRIMP	1297	n/a	1	1	0.412841796875	0.57763671875	lower	../fonts/amplitud.ttf
1518557	WORD	wordpools/wasnorm_wordpool.txt	LTP067	ltpFR	16	11	1	NURSERY	964	n/a	0	1	0.412841796875	0.57763671875	lower	../fonts/amplitud.ttf
1522669	WORD	wordpools/wasnorm_wordpool.txt	LTP067	ltpFR	16	11	1	BULB	192	n/a	0	1	0.412841796875	0.57763671875	lower	../fonts/amplitud.ttf
1526564	WORD	wordpools/wasnorm_wordpool.txt	LTP067	ltpFR	16	11	1	TRAY	1498	n/a	0	1	0.412841796875	0.57763671875	lower	../fonts/amplitud.ttf
1530526	WORD	wordpools/wasnorm_wordpool.txt	LTP067	ltpFR	16	11	0	SNORKEL	1336	n/a	0	0	0.5869140625	0.422607421875	upper	../fonts/zerothre.ttf
1534547	WORD	wordpools/wasnorm_wordpool.txt	LTP067	ltpFR	16	11	0	GUEST	669	n/a	1	0	0.5869140625	0.422607421875	upper	../fonts/zerothre.ttf
1538608	WORD	wordpools/wasnorm_wordpool.txt	LTP067	ltpFR	16	11	0	VISITOR	1573	n/a	1	0	0.5869140625	0.422607421875	upper	../fonts/zerothre.ttf
1542537	WORD	wordpools/wasnorm_wordpool.txt	LTP067	ltpFR	16	11	0	PENNY	1045	n/a	0	0	0.5869140625	0.422607421875	upper	../fonts/zerothre.ttf
1548215	REC_START	n/a	LTP067	ltpFR	16	11	n/a	n/a	n/a	n/a	n/a	n/a	n/a	n/a	n/a	n/a
1548764	REC_WORD	wordpools/wasnorm_wordpool.txt	LTP067	ltpFR	16	11	0	PENNY	1045	n/a	0	n/a	n/a	n/a	n/a	n/a
1549500	REC_WORD	wordpools/wasnorm_wordpool.txt	LTP067	ltpFR	16	11	1	SHRIMP	1297	n/a	1	n/a	n/a	n/a	n/a	n/a
1550390	REC_WORD	wordpools/wasnorm_wordpool.txt	LTP067	ltpFR	16	11	1	TRAY	1498	n/a	0	n/a	n/a	n/a	n/a	n/a
1552988	REC_WORD	wordpools/wasnorm_wordpool.txt	LTP067	ltpFR	16	11	n/a	SCHOOL	1248	n/a	n/a	n/a	n/a	n/a	n/a	n/a
1553988	REC_WORD_VV	wordpools/wasnorm_wordpool.txt	LTP067	ltpFR	16	11	n/a	<>	-1	n/a	n/a	n/a	n/a	n/a	n/a	n/a
1561375	REC_WORD	wordpools/wasnorm_wordpool.txt	LTP067	ltpFR	16	11	1	NURSERY	964	n/a	0	n/a	n/a	n/a	n/a	n/a
1571407	REC_WORD	wordpools/wasnorm_wordpool.txt	LTP067	ltpFR	16	11	n/a	FISH	571	n/a	n/a	n/a	n/a	n/a	n/a	n/a
1585475	REC_WORD	wordpools/wasnorm_wordpool.txt	LTP067	ltpFR	16	11	0	MAILMAN	858	n/a	1	n/a	n/a	n/a	n/a	n/a
1586154	REC_WORD	wordpools/wasnorm_wordpool.txt	LTP067	ltpFR	16	11	0	DEPARTMENT	449	n/a	1	n/a	n/a	n/a	n/a	n/a
1586992	REC_WORD	wordpools/wasnorm_wordpool.txt	LTP067	ltpFR	16	11	0	CREEK	404	n/a	1	n/a	n/a	n/a	n/a	n/a
1587834	REC_WORD	wordpools/wasnorm_wordpool.txt	LTP067	ltpFR	16	11	0	PRAIRIE	1118	n/a	1	n/a	n/a	n/a	n/a	n/a
1591995	REC_WORD	wordpools/wasnorm_wordpool.txt	LTP067	ltpFR	16	11	0	PRAIRIE	1118	n/a	1	n/a	n/a	n/a	n/a	n/a
1593272	REC_WORD	wordpools/wasnorm_wordpool.txt	LTP067	ltpFR	16	11	0	CREEK	404	n/a	1	n/a	n/a	n/a	n/a	n/a
1601905	REC_WORD	wordpools/wasnorm_wordpool.txt	LTP067	ltpFR	16	11	n/a	CAT	257	n/a	n/a	n/a	n/a	n/a	n/a	n/a
1602290	REC_WORD	wordpools/wasnorm_wordpool.txt	LTP067	ltpFR	16	11	n/a	FISH	571	n/a	n/a	n/a	n/a	n/a	n/a	n/a
1607946	REC_WORD	wordpools/wasnorm_wordpool.txt	LTP067	ltpFR	16	11	0	PRAIRIE	1118	n/a	1	n/a	n/a	n/a	n/a	n/a
1614978	REC_WORD	wordpools/wasnorm_wordpool.txt	LTP067	ltpFR	16	11	0	MAILMAN	858	n/a	1	n/a	n/a	n/a	n/a	n/a
1626031	WORD	wordpools/wasnorm_wordpool.txt	LTP067	ltpFR	16	12	0	SAGE	1222	n/a	0	0	0.5869140625	0.422607421875	upper	../fonts/zerothre.ttf
1630193	WORD	wordpools/wasnorm_wordpool.txt	LTP067	ltpFR	16	12	0	WINDSHIELD	1612	n/a	1	0	0.5869140625	0.422607421875	upper	../fonts/zerothre.ttf
1634305	WORD	wordpools/wasnorm_wordpool.txt	LTP067	ltpFR	16	12	0	MAID	856	n/a	1	0	0.5869140625	0.422607421875	upper	../fonts/zerothre.ttf
1638134	WORD	wordpools/wasnorm_wordpool.txt	LTP067	ltpFR	16	12	1	DESK	452	n/a	0	1	0.412841796875	0.57763671875	lower	../fonts/amplitud.ttf
1641945	WORD	wordpools/wasnorm_wordpool.txt	LTP067	ltpFR	16	12	1	SECRETARY	1265	n/a	1	1	0.412841796875	0.57763671875	lower	../fonts/amplitud.ttf
1645757	WORD	wordpools/wasnorm_wordpool.txt	LTP067	ltpFR	16	12	1	TOMB	1477	n/a	0	1	0.412841796875	0.57763671875	lower	../fonts/amplitud.ttf
1649869	WORD	wordpools/wasnorm_wordpool.txt	LTP067	ltpFR	16	12	1	PICKLE	1059	n/a	0	1	0.412841796875	0.57763671875	lower	../fonts/amplitud.ttf
1654040	WORD	wordpools/wasnorm_wordpool.txt	LTP067	ltpFR	16	12	1	CORN	381	n/a	0	1	0.412841796875	0.57763671875	lower	../fonts/amplitud.ttf
1657935	WORD	wordpools/wasnorm_wordpool.txt	LTP067	ltpFR	16	12	0	SALT	1229	n/a	0	0	0.5869140625	0.422607421875	upper	../fonts/zerothre.ttf
1661780	WORD	wordpools/wasnorm_wordpool.txt	LTP067	ltpFR	16	12	0	CAMEL	223	n/a	1	0	0.5869140625	0.422607421875	upper	../fonts/zerothre.ttf
1665660	WORD	wordpools/wasnorm_wordpool.txt	LTP067	ltpFR	16	12	0	ATHLETE	52	n/a	1	0	0.5869140625	0.422607421875	upper	../fonts/zerothre.ttf
1669788	WORD	wordpools/wasnorm_wordpool.txt	LTP067	ltpFR	16	12	0	MUFFIN	929	n/a	0	0	0.5869140625	0.422607421875	upper	../fonts/zerothre.ttf
1673750	WORD	wordpools/wasnorm_wordpool.txt	LTP067	ltpFR	16	12	0	OUTLAW	989	n/a	1	0	0.5869140625	0.422607421875	upper	../fonts/zerothre.ttf
1677721	WORD	wordpools/wasnorm_wordpool.txt	LTP067	ltpFR	16	12	1	THIEF	1456	n/a	1	1	0.412841796875	0.57763671875	lower	../fonts/amplitud.ttf
1681641	WORD	wordpools/wasnorm_wordpool.txt	LTP067	ltpFR	16	12	1	WAITER	1580	n/a	1	1	0.412841796875	0.57763671875	lower	../fonts/amplitud.ttf
1685687	WORD	wordpools/wasnorm_wordpool.txt	LTP067	ltpFR	16	12	1	WEED	1599	n/a	0	1	0.412841796875	0.57763671875	lower	../fonts/amplitud.ttf
1691397	REC_START	n/a	LTP067	ltpFR	16	12	n/a	n/a	n/a	n/a	n/a	n/a	n/a	n/a	n/a	n/a
1691747	REC_WORD	wordpools/wasnorm_wordpool.txt	LTP067	ltpFR	16	12	1	WEED	1599	n/a	0	n/a	n/a	n/a	n/a	n/a
1692569	REC_WORD	wordpools/wasnorm_wordpool.txt	LTP067	ltpFR	16	12	1	THIEF	1456	n/a	1	n/a	n/a	n/a	n/a	n/a
1693887	REC_WORD	wordpools/wasnorm_wordpool.txt	LTP067	ltpFR	16	12	1	WAITER	1580	n/a	1	n/a	n/a	n/a	n/a	n/a
1695238	REC_WORD	wordpools/wasnorm_wordpool.txt	LTP067	ltpFR	16	12	0	SAGE	1222	n/a	0	n/a	n/a	n/a	n/a	n/a
1696196	REC_WORD	wordpools/wasnorm_wordpool.txt	LTP067	ltpFR	16	12	1	SECRETARY	1265	n/a	1	n/a	n/a	n/a	n/a	n/a
1697692	REC_WORD	wordpools/wasnorm_wordpool.txt	LTP067	ltpFR	16	12	0	MAID	856	n/a	1	n/a	n/a	n/a	n/a	n/a
1700272	REC_WORD	wordpools/wasnorm_wordpool.txt	LTP067	ltpFR	16	12	1	DESK	452	n/a	0	n/a	n/a	n/a	n/a	n/a
1713581	REC_WORD	wordpools/wasnorm_wordpool.txt	LTP067	ltpFR	16	12	0	SAGE	1222	n/a	0	n/a	n/a	n/a	n/a	n/a
1724142	REC_WORD	wordpools/wasnorm_wordpool.txt	LTP067	ltpFR	16	12	n/a	ANTELOPE	27	n/a	n/a	n/a	n/a	n/a	n/a	n/a
1747375	REC_WORD	wordpools/wasnorm_wordpool.txt	LTP067	ltpFR	16	12	n/a	COPY	-1	n/a	n/a	n/a	n/a	n/a	n/a	n/a
1756279	REC_WORD	wordpools/wasnorm_wordpool.txt	LTP067	ltpFR	16	12	n/a	MOUNTAIN	924	n/a	n/a	n/a	n/a	n/a	n/a	n/a
1761891	REC_WORD	wordpools/wasnorm_wordpool.txt	LTP067	ltpFR	16	12	1	WRITER	1627	n/a	1	n/a	n/a	n/a	n/a	n/a
1765309	REC_WORD_VV	wordpools/wasnorm_wordpool.txt	LTP067	ltpFR	16	12	n/a	<>	-1	n/a	n/a	n/a	n/a	n/a	n/a	n/a
1766982	REST_REWET	n/a	LTP067	ltpFR	16	12	n/a	n/a	n/a	n/a	n/a	n/a	n/a	n/a	n/a	n/a
2144126	WORD	wordpools/wasnorm_wordpool.txt	LTP067	ltpFR	16	13	1	GUARDIAN	668	n/a	1	1	0.412841796875	0.57763671875	lower	../fonts/amplitud.ttf
2148047	WORD	wordpools/wasnorm_wordpool.txt	LTP067	ltpFR	16	13	1	WAGON	1578	n/a	0	1	0.412841796875	0.57763671875	lower	../fonts/amplitud.ttf
2152059	WORD	wordpools/wasnorm_wordpool.txt	LTP067	ltpFR	16	13	1	CLAMP	316	n/a	0	1	0.412841796875	0.57763671875	lower	../fonts/amplitud.ttf
2156195	WORD	wordpools/wasnorm_wordpool.txt	LTP067	ltpFR	16	13	1	RACCOON	1153	n/a	1	1	0.412841796875	0.57763671875	lower	../fonts/amplitud.ttf
2160274	WORD	wordpools/wasnorm_wordpool.txt	LTP067	ltpFR	16	13	1	PERFUME	1049	n/a	0	1	0.412841796875	0.57763671875	lower	../fonts/amplitud.ttf
2164386	WORD	wordpools/wasnorm_wordpool.txt	LTP067	ltpFR	16	13	1	MOTHER	921	n/a	1	1	0.412841796875	0.57763671875	lower	../fonts/amplitud.ttf
2168331	WORD	wordpools/wasnorm_wordpool.txt	LTP067	ltpFR	16	13	1	DAM	436	n/a	0	1	0.412841796875	0.57763671875	lower	../fonts/amplitud.ttf
2172285	WORD	wordpools/wasnorm_wordpool.txt	LTP067	ltpFR	16	13	1	STRAW	1390	n/a	0	1	0.412841796875	0.57763671875	lower	../fonts/amplitud.ttf
2176447	WORD	wordpools/wasnorm_wordpool.txt	LTP067	ltpFR	16	13	1	SCOTCH	1251	n/a	0	1	0.412841796875	0.57763671875	lower	../fonts/amplitud.ttf
2180400	WORD	wordpools/wasnorm_wordpool.txt	LTP067	ltpFR	16	13	1	COAT	333	n/a	0	1	0.412841796875	0.57763671875	lower	../fonts/amplitud.ttf
2184487	WORD	wordpools/wasnorm_wordpool.txt	LTP067	ltpFR	16	13	1	PROFESSOR	1131	n/a	1	1	0.412841796875	0.57763671875	lower	../fonts/amplitud.ttf
2188657	WORD	wordpools/wasnorm_wordpool.txt	LTP067	ltpFR	16	13	1	PUPIL	1143	n/a	1	1	0.412841796875	0.57763671875	lower	../fonts/amplitud.ttf
2192719	WORD	wordpools/wasnorm_wordpool.txt	LTP067	ltpFR	16	13	1	BURGLAR	200	n/a	1	1	0.412841796875	0.57763671875	lower	../fonts/amplitud.ttf
2196573	WORD	wordpools/wasnorm_wordpool.txt	LTP067	ltpFR	16	13	1	HEDGE	699	n/a	0	1	0.412841796875	0.57763671875	lower	../fonts/amplitud.ttf
2200385	WORD	wordpools/wasnorm_wordpool.txt	LTP067	ltpFR	16	13	1	TENT	1449	n/a	0	1	0.412841796875	0.57763671875	lower	../fonts/amplitud.ttf
2204489	WORD	wordpools/wasnorm_wordpool.txt	LTP067	ltpFR	16	13	1	SPONGE	1355	n/a	0	1	0.412841796875	0.57763671875	lower	../fonts/amplitud.ttf
2210216	REC_START	n/a	LTP067	ltpFR	16	13	n/a	n/a	n/a	n/a	n/a	n/a	n/a	n/a	n/a	n/a
2210331	REC_WORD	wordpools/wasnorm_wordpool.txt	LTP067	ltpFR	16	13	1	SPONGE	1355	n/a	0	n/a	n/a	n/a	n/a	n/a
2211268	REC_WORD	wordpools/wasnorm_wordpool.txt	LTP067	ltpFR	16	13	1	TENT	1449	n/a	0	n/a	n/a	n/a	n/a	n/a
2211977	REC_WORD	wordpools/wasnorm_wordpool.txt	LTP067	ltpFR	16	13	1	HEDGE	699	n/a	0	n/a	n/a	n/a	n/a	n/a
2212820	REC_WORD	wordpools/wasnorm_wordpool.txt	LTP067	ltpFR	16	13	1	BURGLAR	200	n/a	1	n/a	n/a	n/a	n/a	n/a
2213548	REC_WORD	wordpools/wasnorm_wordpool.txt	LTP067	ltpFR	16	13	1	PUPIL	1143	n/a	1	n/a	n/a	n/a	n/a	n/a
2214381	REC_WORD	wordpools/wasnorm_wordpool.txt	LTP067	ltpFR	16	13	1	COAT	333	n/a	0	n/a	n/a	n/a	n/a	n/a
2215140	REC_WORD	wordpools/wasnorm_wordpool.txt	LTP067	ltpFR	16	13	1	PROFESSOR	1131	n/a	1	n/a	n/a	n/a	n/a	n/a
2216611	REC_WORD	wordpools/wasnorm_wordpool.txt	LTP067	ltpFR	16	13	n/a	LABORATORY	-1	n/a	n/a	n/a	n/a	n/a	n/a	n/a
2223663	REC_WORD	wordpools/wasnorm_wordpool.txt	LTP067	ltpFR	16	13	1	RACCOON	1153	n/a	1	n/a	n/a	n/a	n/a	n/a
2224703	REC_WORD	wordpools/wasnorm_wordpool.txt	LTP067	ltpFR	16	13	1	PERFUME	1049	n/a	0	n/a	n/a	n/a	n/a	n/a
2225885	REC_WORD	wordpools/wasnorm_wordpool.txt	LTP067	ltpFR	16	13	1	CLAMP	316	n/a	0	n/a	n/a	n/a	n/a	n/a
2227212	REC_WORD	wordpools/wasnorm_wordpool.txt	LTP067	ltpFR	16	13	1	GUARDIAN	668	n/a	1	n/a	n/a	n/a	n/a	n/a
2228255	REC_WORD	wordpools/wasnorm_wordpool.txt	LTP067	ltpFR	16	13	1	WAGON	1578	n/a	0	n/a	n/a	n/a	n/a	n/a
2233588	REC_WORD	wordpools/wasnorm_wordpool.txt	LTP067	ltpFR	16	13	1	BURGLAR	200	n/a	1	n/a	n/a	n/a	n/a	n/a
2248025	REC_WORD	wordpools/wasnorm_wordpool.txt	LTP067	ltpFR	16	13	1	RACCOON	1153	n/a	1	n/a	n/a	n/a	n/a	n/a
2252111	REC_WORD	wordpools/wasnorm_wordpool.txt	LTP067	ltpFR	16	13	1	PUPIL	1143	n/a	1	n/a	n/a	n/a	n/a	n/a
2263690	REC_WORD	wordpools/wasnorm_wordpool.txt	LTP067	ltpFR	16	13	n/a	MOOSE	915	n/a	n/a	n/a	n/a	n/a	n/a	n/a
2276411	REC_WORD_VV	wordpools/wasnorm_wordpool.txt	LTP067	ltpFR	16	13	n/a	<>	-1	n/a	n/a	n/a	n/a	n/a	n/a	n/a
2287874	WORD	wordpools/wasnorm_wordpool.txt	LTP067	ltpFR	16	14	-1	CASHEW	253	n/a	-1	1	1.0	1.0	upper	../fonts/Verdana.ttf
2291712	WORD	wordpools/wasnorm_wordpool.txt	LTP067	ltpFR	16	14	-1	ORANGE	980	n/a	-1	1	1.0	1.0	upper	../fonts/Verdana.ttf
2295865	WORD	wordpools/wasnorm_wordpool.txt	LTP067	ltpFR	16	14	-1	CARPENTER	246	n/a	-1	1	1.0	1.0	upper	../fonts/Verdana.ttf
2299802	WORD	wordpools/wasnorm_wordpool.txt	LTP067	ltpFR	16	14	-1	PUBLISHER	1137	n/a	-1	1	1.0	1.0	upper	../fonts/Verdana.ttf
2303698	WORD	wordpools/wasnorm_wordpool.txt	LTP067	ltpFR	16	14	-1	NOVEL	960	n/a	-1	1	1.0	1.0	upper	../fonts/Verdana.ttf
2307585	WORD	wordpools/wasnorm_wordpool.txt	LTP067	ltpFR	16	14	-1	LASER	801	n/a	-1	1	1.0	1.0	upper	../fonts/Verdana.ttf
2311481	WORD	wordpools/wasnorm_wordpool.txt	LTP067	ltpFR	16	14	-1	UTENSIL	1542	n/a	-1	1	1.0	1.0	upper	../fonts/Verdana.ttf
2315543	WORD	wordpools/wasnorm_wordpool.txt	LTP067	ltpFR	16	14	-1	PECAN	1036	n/a	-1	1	1.0	1.0	upper	../fonts/Verdana.ttf
2319588	WORD	wordpools/wasnorm_wordpool.txt	LTP067	ltpFR	16	14	-1	MACHINE	852	n/a	-1	1	1.0	1.0	upper	../fonts/Verdana.ttf
2323725	WORD	wordpools/wasnorm_wordpool.txt	LTP067	ltpFR	16	14	-1	BOOTH	151	n/a	-1	1	1.0	1.0	upper	../fonts/Verdana.ttf
2327910	WORD	wordpools/wasnorm_wordpool.txt	LTP067	ltpFR	16	14	-1	CHEERLEADER	288	n/a	-1	1	1.0	1.0	upper	../fonts/Verdana.ttf
2332107	WORD	wordpools/wasnorm_wordpool.txt	LTP067	ltpFR	16	14	-1	TRENCH	1503	n/a	-1	1	1.0	1.0	upper	../fonts/Verdana.ttf
2336260	WORD	wordpools/wasnorm_wordpool.txt	LTP067	ltpFR	16	14	-1	GENTLEMAN	631	n/a	-1	1	1.0	1.0	upper	../fonts/Verdana.ttf
2340139	WORD	wordpools/wasnorm_wordpool.txt	LTP067	ltpFR	16	14	-1	CHERRY	293	n/a	-1	1	1.0	1.0	upper	../fonts/Verdana.ttf
2343975	WORD	wordpools/wasnorm_wordpool.txt	LTP067	ltpFR	16	14	-1	CONCRETE	361	n/a	-1	1	1.0	1.0	upper	../fonts/Verdana.ttf
2347787	WORD	wordpools/wasnorm_wordpool.txt	LTP067	ltpFR	16	14	-1	SIDEWALK	1303	n/a	-1	1	1.0	1.0	upper	../fonts/Verdana.ttf
2353607	REC_START	n/a	LTP067	ltpFR	16	14	n/a	n/a	n/a	n/a	n/a	n/a	n/a	n/a	n/a	n/a
2353612	REC_WORD	wordpools/wasnorm_wordpool.txt	LTP067	ltpFR	16	14	-1	CARPENTER	246	n/a	-1	n/a	n/a	n/a	n/a	n/a
2354475	REC_WORD	wordpools/wasnorm_wordpool.txt	LTP067	ltpFR	16	14	-1	CARPENTER	246	n/a	-1	n/a	n/a	n/a	n/a	n/a
2354980	REC_WORD	wordpools/wasnorm_wordpool.txt	LTP067	ltpFR	16	14	-1	MACHINE	852	n/a	-1	n/a	n/a	n/a	n/a	n/a
2355762	REC_WORD	wordpools/wasnorm_wordpool.txt	LTP067	ltpFR	16	14	-1	BOOTH	151	n/a	-1	n/a	n/a	n/a	n/a	n/a
2357089	REC_WORD	wordpools/wasnorm_wordpool.txt	LTP067	ltpFR	16	14	-1	CONCRETE	361	n/a	-1	n/a	n/a	n/a	n/a	n/a
2357867	REC_WORD	wordpools/wasnorm_wordpool.txt	LTP067	ltpFR	16	14	-1	SIDEWALK	1303	n/a	-1	n/a	n/a	n/a	n/a	n/a
2358825	REC_WORD	wordpools/wasnorm_wordpool.txt	LTP067	ltpFR	16	14	-1	CHERRY	293	n/a	-1	n/a	n/a	n/a	n/a	n/a
2359833	REC_WORD	wordpools/wasnorm_wordpool.txt	LTP067	ltpFR	16	14	-1	ORANGE	980	n/a	-1	n/a	n/a	n/a	n/a	n/a
2360353	REC_WORD	wordpools/wasnorm_wordpool.txt	LTP067	ltpFR	16	14	-1	CASHEW	253	n/a	-1	n/a	n/a	n/a	n/a	n/a
2364073	REC_WORD	wordpools/wasnorm_wordpool.txt	LTP067	ltpFR	16	14	-1	CASHEW	253	n/a	-1	n/a	n/a	n/a	n/a	n/a
2366582	REC_WORD	wordpools/wasnorm_wordpool.txt	LTP067	ltpFR	16	14	-1	CARPENTER	246	n/a	-1	n/a	n/a	n/a	n/a	n/a
2368278	REC_WORD	wordpools/wasnorm_wordpool.txt	LTP067	ltpFR	16	14	-1	MACHINE	852	n/a	-1	n/a	n/a	n/a	n/a	n/a
2371281	REC_WORD	wordpools/wasnorm_wordpool.txt	LTP067	ltpFR	16	14	-1	PECAN	1036	n/a	-1	n/a	n/a	n/a	n/a	n/a
2382481	REC_WORD	wordpools/wasnorm_wordpool.txt	LTP067	ltpFR	16	14	-1	CHEERLEADER	288	n/a	-1	n/a	n/a	n/a	n/a	n/a
2386462	REC_WORD	wordpools/wasnorm_wordpool.txt	LTP067	ltpFR	16	14	-1	CASHEW	253	n/a	-1	n/a	n/a	n/a	n/a	n/a
2397178	REC_WORD	wordpools/wasnorm_wordpool.txt	LTP067	ltpFR	16	14	-1	BOOTH	151	n/a	-1	n/a	n/a	n/a	n/a	n/a
2415703	REC_WORD	wordpools/wasnorm_wordpool.txt	LTP067	ltpFR	16	14	n/a	FOOD	-1	n/a	n/a	n/a	n/a	n/a	n/a	n/a
2432065	WORD	wordpools/wasnorm_wordpool.txt	LTP067	ltpFR	16	15	-1	LION	827	n/a	-1	1	1.0	1.0	upper	../fonts/Verdana.ttf
2436243	WORD	wordpools/wasnorm_wordpool.txt	LTP067	ltpFR	16	15	-1	COLLAR	345	n/a	-1	1	1.0	1.0	upper	../fonts/Verdana.ttf
2440189	WORD	wordpools/wasnorm_wordpool.txt	LTP067	ltpFR	16	15	-1	BRAIN	165	n/a	-1	1	1.0	1.0	upper	../fonts/Verdana.ttf
2444034	WORD	wordpools/wasnorm_wordpool.txt	LTP067	ltpFR	16	15	-1	SICKLE	1302	n/a	-1	1	1.0	1.0	upper	../fonts/Verdana.ttf
2448146	WORD	wordpools/wasnorm_wordpool.txt	LTP067	ltpFR	16	15	-1	SLEIGH	1325	n/a	-1	1	1.0	1.0	upper	../fonts/Verdana.ttf
2451982	WORD	wordpools/wasnorm_wordpool.txt	LTP067	ltpFR	16	15	-1	BUILDING	191	n/a	-1	1	1.0	1.0	upper	../fonts/Verdana.ttf
2455853	WORD	wordpools/wasnorm_wordpool.txt	LTP067	ltpFR	16	15	-1	PELICAN	1039	n/a	-1	1	1.0	1.0	upper	../fonts/Verdana.ttf
2459740	WORD	wordpools/wasnorm_wordpool.txt	LTP067	ltpFR	16	15	-1	ORNAMENT	985	n/a	-1	1	1.0	1.0	upper	../fonts/Verdana.ttf
2463877	WORD	wordpools/wasnorm_wordpool.txt	LTP067	ltpFR	16	15	-1	POLE	1097	n/a	-1	1	1.0	1.0	upper	../fonts/Verdana.ttf
2467855	WORD	wordpools/wasnorm_wordpool.txt	LTP067	ltpFR	16	15	-1	WILDERNESS	1610	n/a	-1	1	1.0	1.0	upper	../fonts/Verdana.ttf
2471718	WORD	wordpools/wasnorm_wordpool.txt	LTP067	ltpFR	16	15	-1	REINDEER	1181	n/a	-1	1	1.0	1.0	upper	../fonts/Verdana.ttf
2475730	WORD	wordpools/wasnorm_wordpool.txt	LTP067	ltpFR	16	15	-1	PORCUPINE	1107	n/a	-1	1	1.0	1.0	upper	../fonts/Verdana.ttf
2479933	WORD	wordpools/wasnorm_wordpool.txt	LTP067	ltpFR	16	15	-1	THIMBLE	1458	n/a	-1	1	1.0	1.0	upper	../fonts/Verdana.ttf
2483845	WORD	wordpools/wasnorm_wordpool.txt	LTP067	ltpFR	16	15	-1	FLEA	577	n/a	-1	1	1.0	1.0	upper	../fonts/Verdana.ttf
2487840	WORD	wordpools/wasnorm_wordpool.txt	LTP067	ltpFR	16	15	-1	DEPUTY	450	n/a	-1	1	1.0	1.0	upper	../fonts/Verdana.ttf
2491935	WORD	wordpools/wasnorm_wordpool.txt	LTP067	ltpFR	16	15	-1	SHERIFF	1284	n/a	-1	1	1.0	1.0	upper	../fonts/Verdana.ttf
2497754	REC_START	n/a	LTP067	ltpFR	16	15	n/a	n/a	n/a	n/a	n/a	n/a	n/a	n/a	n/a	n/a
2497984	REC_WORD	wordpools/wasnorm_wordpool.txt	LTP067	ltpFR	16	15	-1	DEPUTY	450	n/a	-1	n/a	n/a	n/a	n/a	n/a
2498479	REC_WORD	wordpools/wasnorm_wordpool.txt	LTP067	ltpFR	16	15	-1	SHERIFF	1284	n/a	-1	n/a	n/a	n/a	n/a	n/a
2499255	REC_WORD	wordpools/wasnorm_wordpool.txt	LTP067	ltpFR	16	15	-1	SLEIGH	1325	n/a	-1	n/a	n/a	n/a	n/a	n/a
2500014	REC_WORD	wordpools/wasnorm_wordpool.txt	LTP067	ltpFR	16	15	-1	ORNAMENT	985	n/a	-1	n/a	n/a	n/a	n/a	n/a
2500582	REC_WORD	wordpools/wasnorm_wordpool.txt	LTP067	ltpFR	16	15	-1	REINDEER	1181	n/a	-1	n/a	n/a	n/a	n/a	n/a
2501291	REC_WORD	wordpools/wasnorm_wordpool.txt	LTP067	ltpFR	16	15	-1	SICKLE	1302	n/a	-1	n/a	n/a	n/a	n/a	n/a
2502573	REC_WORD	wordpools/wasnorm_wordpool.txt	LTP067	ltpFR	16	15	-1	POLE	1097	n/a	-1	n/a	n/a	n/a	n/a	n/a
2503156	REC_WORD	wordpools/wasnorm_wordpool.txt	LTP067	ltpFR	16	15	-1	FLEA	577	n/a	-1	n/a	n/a	n/a	n/a	n/a
2503990	REC_WORD	wordpools/wasnorm_wordpool.txt	LTP067	ltpFR	16	15	-1	COLLAR	345	n/a	-1	n/a	n/a	n/a	n/a	n/a
2504872	REC_WORD	wordpools/wasnorm_wordpool.txt	LTP067	ltpFR	16	15	-1	LION	827	n/a	-1	n/a	n/a	n/a	n/a	n/a
2506674	REC_WORD	wordpools/wasnorm_wordpool.txt	LTP067	ltpFR	16	15	-1	WILDERNESS	1610	n/a	-1	n/a	n/a	n/a	n/a	n/a
2508968	REC_WORD	wordpools/wasnorm_wordpool.txt	LTP067	ltpFR	16	15	-1	FLEA	577	n/a	-1	n/a	n/a	n/a	n/a	n/a
2512851	REC_WORD	wordpools/wasnorm_wordpool.txt	LTP067	ltpFR	16	15	-1	PORCUPINE	1107	n/a	-1	n/a	n/a	n/a	n/a	n/a
2515434	REC_WORD	wordpools/wasnorm_wordpool.txt	LTP067	ltpFR	16	15	-1	REINDEER	1181	n/a	-1	n/a	n/a	n/a	n/a	n/a
2525158	REC_WORD	wordpools/wasnorm_wordpool.txt	LTP067	ltpFR	16	15	-1	SICKLE	1302	n/a	-1	n/a	n/a	n/a	n/a	n/a
2525960	REC_WORD	wordpools/wasnorm_wordpool.txt	LTP067	ltpFR	16	15	-1	BRAIN	165	n/a	-1	n/a	n/a	n/a	n/a	n/a
2533546	REC_WORD	wordpools/wasnorm_wordpool.txt	LTP067	ltpFR	16	15	-1	REINDEER	1181	n/a	-1	n/a	n/a	n/a	n/a	n/a
2535877	REC_WORD	wordpools/wasnorm_wordpool.txt	LTP067	ltpFR	16	15	-1	BUILDING	191	n/a	-1	n/a	n/a	n/a	n/a	n/a
2538337	REC_WORD	wordpools/wasnorm_wordpool.txt	LTP067	ltpFR	16	15	-1	SLEIGH	1325	n/a	-1	n/a	n/a	n/a	n/a	n/a
2540866	REC_WORD	wordpools/wasnorm_wordpool.txt	LTP067	ltpFR	16	15	-1	ORNAMENT	985	n/a	-1	n/a	n/a	n/a	n/a	n/a
2549621	REC_WORD	wordpools/wasnorm_wordpool.txt	LTP067	ltpFR	16	15	-1	LION	827	n/a	-1	n/a	n/a	n/a	n/a	n/a
2575289	WORD	wordpools/wasnorm_wordpool.txt	LTP067	ltpFR	16	16	-1	PLUTO	1092	n/a	-1	1	1.0	1.0	upper	../fonts/Verdana.ttf
2579143	WORD	wordpools/wasnorm_wordpool.txt	LTP067	ltpFR	16	16	-1	FOLLOWER	589	n/a	-1	1	1.0	1.0	upper	../fonts/Verdana.ttf
2583330	WORD	wordpools/wasnorm_wordpool.txt	LTP067	ltpFR	16	16	-1	RULER	1216	n/a	-1	1	1.0	1.0	upper	../fonts/Verdana.ttf
2587458	WORD	wordpools/wasnorm_wordpool.txt	LTP067	ltpFR	16	16	-1	BULLETIN	195	n/a	-1	1	1.0	1.0	upper	../fonts/Verdana.ttf
2591495	WORD	wordpools/wasnorm_wordpool.txt	LTP067	ltpFR	16	16	-1	FUNGUS	614	n/a	-1	1	1.0	1.0	upper	../fonts/Verdana.ttf
2595690	WORD	wordpools/wasnorm_wordpool.txt	LTP067	ltpFR	16	16	-1	BUCKET	184	n/a	-1	1	1.0	1.0	upper	../fonts/Verdana.ttf
2599552	WORD	wordpools/wasnorm_wordpool.txt	LTP067	ltpFR	16	16	-1	ARENA	37	n/a	-1	1	1.0	1.0	upper	../fonts/Verdana.ttf
2603398	WORD	wordpools/wasnorm_wordpool.txt	LTP067	ltpFR	16	16	-1	WINE	1613	n/a	-1	1	1.0	1.0	upper	../fonts/Verdana.ttf
2607243	WORD	wordpools/wasnorm_wordpool.txt	LTP067	ltpFR	16	16	-1	CELLAR	267	n/a	-1	1	1.0	1.0	upper	../fonts/Verdana.ttf
2611122	WORD	wordpools/wasnorm_wordpool.txt	LTP067	ltpFR	16	16	-1	TANGERINE	1431	n/a	-1	1	1.0	1.0	upper	../fonts/Verdana.ttf
2615168	WORD	wordpools/wasnorm_wordpool.txt	LTP067	ltpFR	16	16	-1	BANANA	77	n/a	-1	1	1.0	1.0	upper	../fonts/Verdana.ttf
2619213	WORD	wordpools/wasnorm_wordpool.txt	LTP067	ltpFR	16	16	-1	NEPTUNE	943	n/a	-1	1	1.0	1.0	upper	../fonts/Verdana.ttf
2623150	WORD	wordpools/wasnorm_wordpool.txt	LTP067	ltpFR	16	16	-1	PARSLEY	1016	n/a	-1	1	1.0	1.0	upper	../fonts/Verdana.ttf
2627087	WORD	wordpools/wasnorm_wordpool.txt	LTP067	ltpFR	16	16	-1	FLY	586	n/a	-1	1	1.0	1.0	upper	../fonts/Verdana.ttf
2631232	WORD	wordpools/wasnorm_wordpool.txt	LTP067	ltpFR	16	16	-1	GALAXY	617	n/a	-1	1	1.0	1.0	upper	../fonts/Verdana.ttf
2635202	WORD	wordpools/wasnorm_wordpool.txt	LTP067	ltpFR	16	16	-1	BOARD	143	n/a	-1	1	1.0	1.0	upper	../fonts/Verdana.ttf
2641246	REC_START	n/a	LTP067	ltpFR	16	16	n/a	n/a	n/a	n/a	n/a	n/a	n/a	n/a	n/a	n/a
2641603	REC_WORD	wordpools/wasnorm_wordpool.txt	LTP067	ltpFR	16	16	-1	BOARD	143	n/a	-1	n/a	n/a	n/a	n/a	n/a
2642204	REC_WORD	wordpools/wasnorm_wordpool.txt	LTP067	ltpFR	16	16	-1	FLY	586	n/a	-1	n/a	n/a	n/a	n/a	n/a
2643151	REC_WORD	wordpools/wasnorm_wordpool.txt	LTP067	ltpFR	16	16	-1	GALAXY	617	n/a	-1	n/a	n/a	n/a	n/a	n/a
2643940	REC_WORD	wordpools/wasnorm_wordpool.txt	LTP067	ltpFR	16	16	-1	PLUTO	1092	n/a	-1	n/a	n/a	n/a	n/a	n/a
2645057	REC_WORD	wordpools/wasnorm_wordpool.txt	LTP067	ltpFR	16	16	-1	NEPTUNE	943	n/a	-1	n/a	n/a	n/a	n/a	n/a
2646075	REC_WORD	wordpools/wasnorm_wordpool.txt	LTP067	ltpFR	16	16	-1	BULLETIN	195	n/a	-1	n/a	n/a	n/a	n/a	n/a
2646908	REC_WORD	wordpools/wasnorm_wordpool.txt	LTP067	ltpFR	16	16	-1	FOLLOWER	589	n/a	-1	n/a	n/a	n/a	n/a	n/a
2648534	REC_WORD	wordpools/wasnorm_wordpool.txt	LTP067	ltpFR	16	16	-1	RULER	1216	n/a	-1	n/a	n/a	n/a	n/a	n/a
2654890	REC_WORD	wordpools/wasnorm_wordpool.txt	LTP067	ltpFR	16	16	-1	TANGERINE	1431	n/a	-1	n/a	n/a	n/a	n/a	n/a
2656257	REC_WORD	wordpools/wasnorm_wordpool.txt	LTP067	ltpFR	16	16	-1	PLUTO	1092	n/a	-1	n/a	n/a	n/a	n/a	n/a
2665805	REC_WORD	wordpools/wasnorm_wordpool.txt	LTP067	ltpFR	16	16	-1	WINE	1613	n/a	-1	n/a	n/a	n/a	n/a	n/a
2666648	REC_WORD	wordpools/wasnorm_wordpool.txt	LTP067	ltpFR	16	16	-1	CELLAR	267	n/a	-1	n/a	n/a	n/a	n/a	n/a
2668918	REC_WORD	wordpools/wasnorm_wordpool.txt	LTP067	ltpFR	16	16	n/a	CARROT	249	n/a	n/a	n/a	n/a	n/a	n/a	n/a
2669442	REC_WORD	wordpools/wasnorm_wordpool.txt	LTP067	ltpFR	16	16	-1	GALAXY	617	n/a	-1	n/a	n/a	n/a	n/a	n/a
2675847	REC_WORD	wordpools/wasnorm_wordpool.txt	LTP067	ltpFR	16	16	-1	FLY	586	n/a	-1	n/a	n/a	n/a	n/a	n/a
2681429	REC_WORD	wordpools/wasnorm_wordpool.txt	LTP067	ltpFR	16	16	-1	CHERRY	293	n/a	-1	n/a	n/a	n/a	n/a	n/a
2698388	REC_WORD	wordpools/wasnorm_wordpool.txt	LTP067	ltpFR	16	16	n/a	CACTUS	215	n/a	n/a	n/a	n/a	n/a	n/a	n/a
2699847	REC_WORD_VV	wordpools/wasnorm_wordpool.txt	LTP067	ltpFR	16	16	n/a	<>	-1	n/a	n/a	n/a	n/a	n/a	n/a	n/a
2726920	REC_START	n/a	LTP067	ltpFR	16	n/a	n/a	n/a	n/a	n/a	n/a	n/a	n/a	n/a	n/a	n/a
2727344	FFR_REC_WORD	wordpools/wasnorm_wordpool.txt	LTP067	ltpFR	16	n/a	-1	GALAXY	617	n/a	-1	n/a	n/a	n/a	n/a	n/a
2728276	FFR_REC_WORD	wordpools/wasnorm_wordpool.txt	LTP067	ltpFR	16	n/a	-1	PLUTO	1092	n/a	-1	n/a	n/a	n/a	n/a	n/a
2729760	FFR_REC_WORD	wordpools/wasnorm_wordpool.txt	LTP067	ltpFR	16	n/a	-1	NEPTUNE	943	n/a	-1	n/a	n/a	n/a	n/a	n/a
2733176	FFR_REC_WORD	wordpools/wasnorm_wordpool.txt	LTP067	ltpFR	16	n/a	-1	RULER	1216	n/a	-1	n/a	n/a	n/a	n/a	n/a
2733754	FFR_REC_WORD	wordpools/wasnorm_wordpool.txt	LTP067	ltpFR	16	n/a	-1	BULLETIN	195	n/a	-1	n/a	n/a	n/a	n/a	n/a
2735146	FFR_REC_WORD	wordpools/wasnorm_wordpool.txt	LTP067	ltpFR	16	n/a	-1	FOLLOWER	589	n/a	-1	n/a	n/a	n/a	n/a	n/a
2735880	FFR_REC_WORD	wordpools/wasnorm_wordpool.txt	LTP067	ltpFR	16	n/a	-1	TANGERINE	1431	n/a	-1	n/a	n/a	n/a	n/a	n/a
2736610	FFR_REC_WORD	wordpools/wasnorm_wordpool.txt	LTP067	ltpFR	16	n/a	-1	WINE	1613	n/a	-1	n/a	n/a	n/a	n/a	n/a
2737131	FFR_REC_WORD	wordpools/wasnorm_wordpool.txt	LTP067	ltpFR	16	n/a	-1	CELLAR	267	n/a	-1	n/a	n/a	n/a	n/a	n/a
2739333	FFR_REC_WORD	wordpools/wasnorm_wordpool.txt	LTP067	ltpFR	16	n/a	-1	FLY	586	n/a	-1	n/a	n/a	n/a	n/a	n/a
2740409	FFR_REC_WORD	wordpools/wasnorm_wordpool.txt	LTP067	ltpFR	16	n/a	-1	BOARD	143	n/a	-1	n/a	n/a	n/a	n/a	n/a
2741843	FFR_REC_WORD	wordpools/wasnorm_wordpool.txt	LTP067	ltpFR	16	n/a	-1	FLEA	577	n/a	-1	n/a	n/a	n/a	n/a	n/a
2742368	FFR_REC_WORD	wordpools/wasnorm_wordpool.txt	LTP067	ltpFR	16	n/a	-1	LION	827	n/a	-1	n/a	n/a	n/a	n/a	n/a
2742981	FFR_REC_WORD	wordpools/wasnorm_wordpool.txt	LTP067	ltpFR	16	n/a	-1	COLLAR	345	n/a	-1	n/a	n/a	n/a	n/a	n/a
2744106	FFR_REC_WORD	wordpools/wasnorm_wordpool.txt	LTP067	ltpFR	16	n/a	-1	BRAIN	165	n/a	-1	n/a	n/a	n/a	n/a	n/a
2744924	FFR_REC_WORD	wordpools/wasnorm_wordpool.txt	LTP067	ltpFR	16	n/a	n/a	FARMER	553	n/a	n/a	n/a	n/a	n/a	n/a	n/a
2746869	FFR_REC_WORD	wordpools/wasnorm_wordpool.txt	LTP067	ltpFR	16	n/a	-1	DEPUTY	450	n/a	-1	n/a	n/a	n/a	n/a	n/a
2747211	FFR_REC_WORD	wordpools/wasnorm_wordpool.txt	LTP067	ltpFR	16	n/a	-1	SHERIFF	1284	n/a	-1	n/a	n/a	n/a	n/a	n/a
2748467	FFR_REC_WORD	wordpools/wasnorm_wordpool.txt	LTP067	ltpFR	16	n/a	-1	SICKLE	1302	n/a	-1	n/a	n/a	n/a	n/a	n/a
2749276	FFR_REC_WORD	wordpools/wasnorm_wordpool.txt	LTP067	ltpFR	16	n/a	-1	POLE	1097	n/a	-1	n/a	n/a	n/a	n/a	n/a
2751679	FFR_REC_WORD	wordpools/wasnorm_wordpool.txt	LTP067	ltpFR	16	n/a	-1	WILDERNESS	1610	n/a	-1	n/a	n/a	n/a	n/a	n/a
2754801	FFR_REC_WORD	wordpools/wasnorm_wordpool.txt	LTP067	ltpFR	16	n/a	-1	SLEIGH	1325	n/a	-1	n/a	n/a	n/a	n/a	n/a
2755565	FFR_REC_WORD	wordpools/wasnorm_wordpool.txt	LTP067	ltpFR	16	n/a	-1	BUILDING	191	n/a	-1	n/a	n/a	n/a	n/a	n/a
2756063	FFR_REC_WORD_VV	wordpools/wasnorm_wordpool.txt	LTP067	ltpFR	16	n/a	n/a	<>	-1	n/a	n/a	n/a	n/a	n/a	n/a	n/a
2756692	FFR_REC_WORD	wordpools/wasnorm_wordpool.txt	LTP067	ltpFR	16	n/a	-1	REINDEER	1181	n/a	-1	n/a	n/a	n/a	n/a	n/a
2766326	FFR_REC_WORD	wordpools/wasnorm_wordpool.txt	LTP067	ltpFR	16	n/a	1	WALRUS	1585	n/a	1	n/a	n/a	n/a	n/a	n/a
2766925	FFR_REC_WORD	wordpools/wasnorm_wordpool.txt	LTP067	ltpFR	16	n/a	1	OTTER	986	n/a	1	n/a	n/a	n/a	n/a	n/a
2769034	FFR_REC_WORD	wordpools/wasnorm_wordpool.txt	LTP067	ltpFR	16	n/a	1	STOVE	1388	n/a	0	n/a	n/a	n/a	n/a	n/a
2769857	FFR_REC_WORD	wordpools/wasnorm_wordpool.txt	LTP067	ltpFR	16	n/a	1	CHARCOAL	281	n/a	0	n/a	n/a	n/a	n/a	n/a
2772806	FFR_REC_WORD	wordpools/wasnorm_wordpool.txt	LTP067	ltpFR	16	n/a	-1	PORCUPINE	1107	n/a	-1	n/a	n/a	n/a	n/a	n/a
2776866	FFR_REC_WORD	wordpools/wasnorm_wordpool.txt	LTP067	ltpFR	16	n/a	1	ANTEATER	26	n/a	1	n/a	n/a	n/a	n/a	n/a
2781051	FFR_REC_WORD	wordpools/wasnorm_wordpool.txt	LTP067	ltpFR	16	n/a	0	HORSE	719	n/a	1	n/a	n/a	n/a	n/a	n/a
2783272	FFR_REC_WORD	wordpools/wasnorm_wordpool.txt	LTP067	ltpFR	16	n/a	1	WAGON	1578	n/a	0	n/a	n/a	n/a	n/a	n/a
2783915	FFR_REC_WORD	wordpools/wasnorm_wordpool.txt	LTP067	ltpFR	16	n/a	1	GUARDIAN	668	n/a	1	n/a	n/a	n/a	n/a	n/a
2785936	FFR_REC_WORD	wordpools/wasnorm_wordpool.txt	LTP067	ltpFR	16	n/a	1	CLAMP	316	n/a	0	n/a	n/a	n/a	n/a	n/a
2788295	FFR_REC_WORD	wordpools/wasnorm_wordpool.txt	LTP067	ltpFR	16	n/a	1	RACCOON	1153	n/a	1	n/a	n/a	n/a	n/a	n/a
2796427	FFR_REC_WORD	wordpools/wasnorm_wordpool.txt	LTP067	ltpFR	16	n/a	-1	CHERRY	293	n/a	-1	n/a	n/a	n/a	n/a	n/a
2797295	FFR_REC_WORD	wordpools/wasnorm_wordpool.txt	LTP067	ltpFR	16	n/a	0	STRAWBERRY	1391	n/a	0	n/a	n/a	n/a	n/a	n/a
2798178	FFR_REC_WORD	wordpools/wasnorm_wordpool.txt	LTP067	ltpFR	16	n/a	-1	BANANA	77	n/a	-1	n/a	n/a	n/a	n/a	n/a
2802264	FFR_REC_WORD	wordpools/wasnorm_wordpool.txt	LTP067	ltpFR	16	n/a	n/a	GROCERY	664	n/a	n/a	n/a	n/a	n/a	n/a	n/a
2802796	FFR_REC_WORD	wordpools/wasnorm_wordpool.txt	LTP067	ltpFR	16	n/a	0	SUPPER	1411	n/a	0	n/a	n/a	n/a	n/a	n/a
2803378	FFR_REC_WORD	wordpools/wasnorm_wordpool.txt	LTP067	ltpFR	16	n/a	1	VEGETABLE	1552	n/a	0	n/a	n/a	n/a	n/a	n/a
2807821	FFR_REC_WORD	wordpools/wasnorm_wordpool.txt	LTP067	ltpFR	16	n/a	n/a	CUSTOMER	430	n/a	n/a	n/a	n/a	n/a	n/a	n/a
2814635	FFR_REC_WORD	wordpools/wasnorm_wordpool.txt	LTP067	ltpFR	16	n/a	n/a	OPERA	978	n/a	n/a	n/a	n/a	n/a	n/a	n/a
2816556	FFR_REC_WORD	wordpools/wasnorm_wordpool.txt	LTP067	ltpFR	16	n/a	-1	CHEERLEADER	288	n/a	-1	n/a	n/a	n/a	n/a	n/a
2819709	FFR_REC_WORD	wordpools/wasnorm_wordpool.txt	LTP067	ltpFR	16	n/a	1	CHEST	295	n/a	0	n/a	n/a	n/a	n/a	n/a
2824114	FFR_REC_WORD	wordpools/wasnorm_wordpool.txt	LTP067	ltpFR	16	n/a	1	SECRETARY	1265	n/a	1	n/a	n/a	n/a	n/a	n/a
2825047	FFR_REC_WORD	wordpools/wasnorm_wordpool.txt	LTP067	ltpFR	16	n/a	0	MAID	856	n/a	1	n/a	n/a	n/a	n/a	n/a
2826957	FFR_REC_WORD	wordpools/wasnorm_wordpool.txt	LTP067	ltpFR	16	n/a	0	SAGE	1222	n/a	0	n/a	n/a	n/a	n/a	n/a
2829976	FFR_REC_WORD	wordpools/wasnorm_wordpool.txt	LTP067	ltpFR	16	n/a	-1	PARSLEY	1016	n/a	-1	n/a	n/a	n/a	n/a	n/a
2834899	FFR_REC_WORD	wordpools/wasnorm_wordpool.txt	LTP067	ltpFR	16	n/a	-1	CASHEW	253	n/a	-1	n/a	n/a	n/a	n/a	n/a
2836012	FFR_REC_WORD	wordpools/wasnorm_wordpool.txt	LTP067	ltpFR	16	n/a	n/a	PEANUT	1032	n/a	n/a	n/a	n/a	n/a	n/a	n/a
2838067	FFR_REC_WORD	wordpools/wasnorm_wordpool.txt	LTP067	ltpFR	16	n/a	-1	CASHEW	253	n/a	-1	n/a	n/a	n/a	n/a	n/a
2838691	FFR_REC_WORD	wordpools/wasnorm_wordpool.txt	LTP067	ltpFR	16	n/a	n/a	WALNUT	1584	n/a	n/a	n/a	n/a	n/a	n/a	n/a
2840417	FFR_REC_WORD	wordpools/wasnorm_wordpool.txt	LTP067	ltpFR	16	n/a	-1	CARPENTER	246	n/a	-1	n/a	n/a	n/a	n/a	n/a
2840946	FFR_REC_WORD	wordpools/wasnorm_wordpool.txt	LTP067	ltpFR	16	n/a	-1	BUILDING	191	n/a	-1	n/a	n/a	n/a	n/a	n/a
2841345	FFR_REC_WORD	wordpools/wasnorm_wordpool.txt	LTP067	ltpFR	16	n/a	-1	BOOTH	151	n/a	-1	n/a	n/a	n/a	n/a	n/a
2843669	FFR_REC_WORD	wordpools/wasnorm_wordpool.txt	LTP067	ltpFR	16	n/a	-1	CONCRETE	361	n/a	-1	n/a	n/a	n/a	n/a	n/a
2844222	FFR_REC_WORD	wordpools/wasnorm_wordpool.txt	LTP067	ltpFR	16	n/a	-1	SIDEWALK	1303	n/a	-1	n/a	n/a	n/a	n/a	n/a
2847780	FFR_REC_WORD	wordpools/wasnorm_wordpool.txt	LTP067	ltpFR	16	n/a	0	YARD	1630	n/a	1	n/a	n/a	n/a	n/a	n/a
2848951	FFR_REC_WORD	wordpools/wasnorm_wordpool.txt	LTP067	ltpFR	16	n/a	0	LANDSCAPE	799	n/a	1	n/a	n/a	n/a	n/a	n/a
2877888	FFR_REC_WORD	wordpools/wasnorm_wordpool.txt	LTP067	ltpFR	16	n/a	n/a	HOUSE	725	n/a	n/a	n/a	n/a	n/a	n/a	n/a
2878873	FFR_REC_WORD	wordpools/wasnorm_wordpool.txt	LTP067	ltpFR	16	n/a	1	SIDING	1304	n/a	0	n/a	n/a	n/a	n/a	n/a
2879487	FFR_REC_WORD	wordpools/wasnorm_wordpool.txt	LTP067	ltpFR	16	n/a	1	ELM	527	n/a	0	n/a	n/a	n/a	n/a	n/a
2889869	FFR_REC_WORD	wordpools/wasnorm_wordpool.txt	LTP067	ltpFR	16	n/a	n/a	BUS	201	n/a	n/a	n/a	n/a	n/a	n/a	n/a
2897956	FFR_REC_WORD	wordpools/wasnorm_wordpool.txt	LTP067	ltpFR	16	n/a	1	SPICE	1350	n/a	0	n/a	n/a	n/a	n/a	n/a
2898615	FFR_REC_WORD	wordpools/wasnorm_wordpool.txt	LTP067	ltpFR	16	n/a	1	BABY	64	n/a	1	n/a	n/a	n/a	n/a	n/a
2898968	FFR_REC_WORD	wordpools/wasnorm_wordpool.txt	LTP067	ltpFR	16	n/a	1	ONION	977	n/a	0	n/a	n/a	n/a	n/a	n/a
2899403	FFR_REC_WORD	wordpools/wasnorm_wordpool.txt	LTP067	ltpFR	16	n/a	1	SHOE	1288	n/a	0	n/a	n/a	n/a	n/a	n/a
2900630	FFR_REC_WORD	wordpools/wasnorm_wordpool.txt	LTP067	ltpFR	16	n/a	n/a	[???]	-1	n/a	n/a	n/a	n/a	n/a	n/a	n/a
2903434	FFR_REC_WORD	wordpools/wasnorm_wordpool.txt	LTP067	ltpFR	16	n/a	0	HORSE	719	n/a	1	n/a	n/a	n/a	n/a	n/a
2903900	FFR_REC_WORD	wordpools/wasnorm_wordpool.txt	LTP067	ltpFR	16	n/a	n/a	MULE	931	n/a	n/a	n/a	n/a	n/a	n/a	n/a
2907255	FFR_REC_WORD	wordpools/wasnorm_wordpool.txt	LTP067	ltpFR	16	n/a	n/a	LEATHER	-1	n/a	n/a	n/a	n/a	n/a	n/a	n/a
2909324	FFR_REC_WORD	wordpools/wasnorm_wordpool.txt	LTP067	ltpFR	16	n/a	n/a	CUSTOMER	430	n/a	n/a	n/a	n/a	n/a	n/a	n/a
2911370	FFR_REC_WORD_VV	wordpools/wasnorm_wordpool.txt	LTP067	ltpFR	16	n/a	n/a	<>	-1	n/a	n/a	n/a	n/a	n/a	n/a	n/a
2914802	FFR_REC_WORD	wordpools/wasnorm_wordpool.txt	LTP067	ltpFR	16	n/a	n/a	UMPIRE	1535	n/a	n/a	n/a	n/a	n/a	n/a	n/a
2920724	FFR_REC_WORD	wordpools/wasnorm_wordpool.txt	LTP067	ltpFR	16	n/a	1	CHIPMUNK	304	n/a	1	n/a	n/a	n/a	n/a	n/a
2921652	FFR_REC_WORD	wordpools/wasnorm_wordpool.txt	LTP067	ltpFR	16	n/a	1	MAMMAL	861	n/a	1	n/a	n/a	n/a	n/a	n/a
2953145	FFR_REC_WORD	wordpools/wasnorm_wordpool.txt	LTP067	ltpFR	16	n/a	1	VAN	1548	n/a	0	n/a	n/a	n/a	n/a	n/a
2953704	FFR_REC_WORD	wordpools/wasnorm_wordpool.txt	LTP067	ltpFR	16	n/a	0	POLITICIAN	1099	n/a	1	n/a	n/a	n/a	n/a	n/a
2954597	FFR_REC_WORD	wordpools/wasnorm_wordpool.txt	LTP067	ltpFR	16	n/a	1	CANDIDATE	228	n/a	1	n/a	n/a	n/a	n/a	n/a
2955101	FFR_REC_WORD	wordpools/wasnorm_wordpool.txt	LTP067	ltpFR	16	n/a	0	TERMINAL	1450	n/a	1	n/a	n/a	n/a	n/a	n/a
2956583	FFR_REC_WORD	wordpools/wasnorm_wordpool.txt	LTP067	ltpFR	16	n/a	0	MASCARA	875	n/a	0	n/a	n/a	n/a	n/a	n/a
2958528	FFR_REC_WORD	wordpools/wasnorm_wordpool.txt	LTP067	ltpFR	16	n/a	0	ALLEY	15	n/a	1	n/a	n/a	n/a	n/a	n/a
2968236	FFR_REC_WORD	wordpools/wasnorm_wordpool.txt	LTP067	ltpFR	16	n/a	0	PRESIDENT	1121	n/a	1	n/a	n/a	n/a	n/a	n/a
2994382	FFR_REC_WORD	wordpools/wasnorm_wordpool.txt	LTP067	ltpFR	16	n/a	1	PROFESSOR	1131	n/a	1	n/a	n/a	n/a	n/a	n/a
2995090	FFR_REC_WORD	wordpools/wasnorm_wordpool.txt	LTP067	ltpFR	16	n/a	1	PUPIL	1143	n/a	1	n/a	n/a	n/a	n/a	n/a
2995764	FFR_REC_WORD	wordpools/wasnorm_wordpool.txt	LTP067	ltpFR	16	n/a	n/a	LAB	-1	n/a	n/a	n/a	n/a	n/a	n/a	n/a
2996722	FFR_REC_WORD	wordpools/wasnorm_wordpool.txt	LTP067	ltpFR	16	n/a	1	COAT	333	n/a	0	n/a	n/a	n/a	n/a	n/a
3020083	FFR_REC_WORD	wordpools/wasnorm_wordpool.txt	LTP067	ltpFR	16	n/a	1	METEOR	889	n/a	0	n/a	n/a	n/a	n/a	n/a
3021176	FFR_REC_WORD	wordpools/wasnorm_wordpool.txt	LTP067	ltpFR	16	n/a	0	ATMOSPHERE	54	n/a	1	n/a	n/a	n/a	n/a	n/a
3022298	FFR_REC_WORD	wordpools/wasnorm_wordpool.txt	LTP067	ltpFR	16	n/a	0	CRATER	400	n/a	1	n/a	n/a	n/a	n/a	n/a
3024384	FFR_REC_WORD	wordpools/wasnorm_wordpool.txt	LTP067	ltpFR	16	n/a	1	HAWK	692	n/a	1	n/a	n/a	n/a	n/a	n/a
3049394	REC_START	n/a	LTP067	ltpFR	16	1	n/a	n/a	n/a	n/a	n/a	n/a	n/a	n/a	n/a	n/a
3049427	RECOG_TARGET	n/a	LTP067	ltpFR	16	1	-1	SIDEWALK	1303	5	-1	n/a	n/a	n/a	n/a	n/a
3050536	RECOG_RESP	n/a	LTP067	ltpFR	16	1	-1	SIDEWALK	1303	n/a	-1	n/a	n/a	n/a	n/a	n/a
3051314	RECOG_CONF	n/a	LTP067	ltpFR	16	1	-1	SIDEWALK	1303	5	-1	n/a	n/a	n/a	n/a	n/a
3052747	RECOG_LURE	n/a	LTP067	ltpFR	16	1	n/a	FLORIDA	582	5	n/a	n/a	n/a	n/a	n/a	n/a
3053420	RECOG_RESP	n/a	LTP067	ltpFR	16	1	n/a	FLORIDA	582	n/a	n/a	n/a	n/a	n/a	n/a	n/a
3053919	RECOG_CONF	n/a	LTP067	ltpFR	16	1	n/a	FLORIDA	582	5	n/a	n/a	n/a	n/a	n/a	n/a
3055362	RECOG_TARGET	n/a	LTP067	ltpFR	16	1	-1	SLEIGH	1325	5	-1	n/a	n/a	n/a	n/a	n/a
3056064	RECOG_RESP	n/a	LTP067	ltpFR	16	1	-1	SLEIGH	1325	n/a	-1	n/a	n/a	n/a	n/a	n/a
3056602	RECOG_CONF	n/a	LTP067	ltpFR	16	1	-1	SLEIGH	1325	5	-1	n/a	n/a	n/a	n/a	n/a
3058267	RECOG_LURE	n/a	LTP067	ltpFR	16	1	n/a	ENVELOPE	537	2	n/a	n/a	n/a	n/a	n/a	n/a
3059246	RECOG_RESP	n/a	LTP067	ltpFR	16	1	n/a	ENVELOPE	537	n/a	n/a	n/a	n/a	n/a	n/a	n/a
3059885	RECOG_CONF	n/a	LTP067	ltpFR	16	1	n/a	ENVELOPE	537	2	n/a	n/a	n/a	n/a	n/a	n/a
3061430	RECOG_TARGET	n/a	LTP067	ltpFR	16	1	0	DEPARTMENT	449	5	1	n/a	n/a	n/a	n/a	n/a
3062015	RECOG_RESP	n/a	LTP067	ltpFR	16	1	0	DEPARTMENT	449	n/a	1	n/a	n/a	n/a	n/a	n/a
3062569	RECOG_CONF	n/a	LTP067	ltpFR	16	1	0	DEPARTMENT	449	5	1	n/a	n/a	n/a	n/a	n/a
3064026	RECOG_LURE	n/a	LTP067	ltpFR	16	1	n/a	SEASHORE	1263	4	n/a	n/a	n/a	n/a	n/a	n/a
3064809	RECOG_RESP	n/a	LTP067	ltpFR	16	1	n/a	SEASHORE	1263	n/a	n/a	n/a	n/a	n/a	n/a	n/a
3065303	RECOG_CONF	n/a	LTP067	ltpFR	16	1	n/a	SEASHORE	1263	4	n/a	n/a	n/a	n/a	n/a	n/a
3066707	RECOG_TARGET	n/a	LTP067	ltpFR	16	1	-1	SPIDER	1351	5	-1	n/a	n/a	n/a	n/a	n/a
3067268	RECOG_RESP	n/a	LTP067	ltpFR	16	1	-1	SPIDER	1351	n/a	-1	n/a	n/a	n/a	n/a	n/a
3067767	RECOG_CONF	n/a	LTP067	ltpFR	16	1	-1	SPIDER	1351	5	-1	n/a	n/a	n/a	n/a	n/a
3069187	RECOG_TARGET	n/a	LTP067	ltpFR	16	1	0	STEP	1377	5	0	n/a	n/a	n/a	n/a	n/a
3069777	RECOG_RESP	n/a	LTP067	ltpFR	16	1	0	STEP	1377	n/a	0	n/a	n/a	n/a	n/a	n/a
3070251	RECOG_CONF	n/a	LTP067	ltpFR	16	1	0	STEP	1377	5	0	n/a	n/a	n/a	n/a	n/a
3071651	RECOG_TARGET	n/a	LTP067	ltpFR	16	1	1	ALMANAC	17	5	0	n/a	n/a	n/a	n/a	n/a
3072092	RECOG_RESP	n/a	LTP067	ltpFR	16	1	1	ALMANAC	17	n/a	0	n/a	n/a	n/a	n/a	n/a
3072546	RECOG_CONF	n/a	LTP067	ltpFR	16	1	1	ALMANAC	17	5	0	n/a	n/a	n/a	n/a	n/a
3073839	RECOG_LURE	n/a	LTP067	ltpFR	16	1	n/a	HELICOPTER	701	5	n/a	n/a	n/a	n/a	n/a	n/a
3074272	RECOG_RESP_VV	n/a	LTP067	ltpFR	16	1	n/a	HELICOPTER	701	n/a	n/a	n/a	n/a	n/a	n/a	n/a
3074661	RECOG_RESP	n/a	LTP067	ltpFR	16	1	n/a	HELICOPTER	701	n/a	n/a	n/a	n/a	n/a	n/a	n/a
3075100	RECOG_CONF	n/a	LTP067	ltpFR	16	1	n/a	HELICOPTER	701	5	n/a	n/a	n/a	n/a	n/a	n/a
3076678	RECOG_TARGET	n/a	LTP067	ltpFR	16	1	0	SNORKEL	1336	4	0	n/a	n/a	n/a	n/a	n/a
3077430	RECOG_RESP	n/a	LTP067	ltpFR	16	1	0	SNORKEL	1336	n/a	0	n/a	n/a	n/a	n/a	n/a
3077924	RECOG_CONF	n/a	LTP067	ltpFR	16	1	0	SNORKEL	1336	4	0	n/a	n/a	n/a	n/a	n/a
3079292	RECOG_LURE	n/a	LTP067	ltpFR	16	1	n/a	SCALLOP	1242	5	n/a	n/a	n/a	n/a	n/a	n/a
3080171	RECOG_RESP	n/a	LTP067	ltpFR	16	1	n/a	SCALLOP	1242	n/a	n/a	n/a	n/a	n/a	n/a	n/a
3080618	RECOG_CONF	n/a	LTP067	ltpFR	16	1	n/a	SCALLOP	1242	5	n/a	n/a	n/a	n/a	n/a	n/a
3082055	RECOG_LURE	n/a	LTP067	ltpFR	16	1	n/a	INSTRUCTOR	741	1	n/a	n/a	n/a	n/a	n/a	n/a
3083122	RECOG_RESP	n/a	LTP067	ltpFR	16	1	n/a	INSTRUCTOR	741	n/a	n/a	n/a	n/a	n/a	n/a	n/a
3083701	RECOG_CONF	n/a	LTP067	ltpFR	16	1	n/a	INSTRUCTOR	741	1	n/a	n/a	n/a	n/a	n/a	n/a
3085093	RECOG_TARGET	n/a	LTP067	ltpFR	16	1	1	RACCOON	1153	5	1	n/a	n/a	n/a	n/a	n/a
3085791	RECOG_RESP	n/a	LTP067	ltpFR	16	1	1	RACCOON	1153	n/a	1	n/a	n/a	n/a	n/a	n/a
3086225	RECOG_CONF	n/a	LTP067	ltpFR	16	1	1	RACCOON	1153	5	1	n/a	n/a	n/a	n/a	n/a
3087682	RECOG_LURE	n/a	LTP067	ltpFR	16	1	n/a	MOP	916	4	n/a	n/a	n/a	n/a	n/a	n/a
3088285	RECOG_RESP	n/a	LTP067	ltpFR	16	1	n/a	MOP	916	n/a	n/a	n/a	n/a	n/a	n/a	n/a
3088779	RECOG_CONF	n/a	LTP067	ltpFR	16	1	n/a	MOP	916	4	n/a	n/a	n/a	n/a	n/a	n/a
3090146	RECOG_LURE	n/a	LTP067	ltpFR	16	1	n/a	CROW	414	2	n/a	n/a	n/a	n/a	n/a	n/a
3090775	RECOG_RESP	n/a	LTP067	ltpFR	16	1	n/a	CROW	414	n/a	n/a	n/a	n/a	n/a	n/a	n/a
3091294	RECOG_CONF	n/a	LTP067	ltpFR	16	1	n/a	CROW	414	2	n/a	n/a	n/a	n/a	n/a	n/a
3092735	RECOG_TARGET	n/a	LTP067	ltpFR	16	1	1	THIEF	1456	5	1	n/a	n/a	n/a	n/a	n/a
3093259	RECOG_RESP	n/a	LTP067	ltpFR	16	1	1	THIEF	1456	n/a	1	n/a	n/a	n/a	n/a	n/a
3093718	RECOG_CONF	n/a	LTP067	ltpFR	16	1	1	THIEF	1456	5	1	n/a	n/a	n/a	n/a	n/a
3095140	RECOG_LURE	n/a	LTP067	ltpFR	16	1	n/a	GATE	625	5	n/a	n/a	n/a	n/a	n/a	n/a
3095956	RECOG_RESP	n/a	LTP067	ltpFR	16	1	n/a	GATE	625	n/a	n/a	n/a	n/a	n/a	n/a	n/a
3096305	RECOG_CONF	n/a	LTP067	ltpFR	16	1	n/a	GATE	625	5	n/a	n/a	n/a	n/a	n/a	n/a
3097794	RECOG_TARGET	n/a	LTP067	ltpFR	16	1	0	LAUNDRY	803	5	1	n/a	n/a	n/a	n/a	n/a
3098472	RECOG_RESP	n/a	LTP067	ltpFR	16	1	0	LAUNDRY	803	n/a	1	n/a	n/a	n/a	n/a	n/a
3098946	RECOG_CONF	n/a	LTP067	ltpFR	16	1	0	LAUNDRY	803	5	1	n/a	n/a	n/a	n/a	n/a
3100184	RECOG_LURE	n/a	LTP067	ltpFR	16	1	n/a	POCKET	1093	3	n/a	n/a	n/a	n/a	n/a	n/a
3100632	RECOG_RESP	n/a	LTP067	ltpFR	16	1	n/a	POCKET	1093	n/a	n/a	n/a	n/a	n/a	n/a	n/a
3101201	RECOG_CONF	n/a	LTP067	ltpFR	16	1	n/a	POCKET	1093	3	n/a	n/a	n/a	n/a	n/a	n/a
3104049	REC_START	n/a	LTP067	ltpFR	16	2	n/a	n/a	n/a	n/a	n/a	n/a	n/a	n/a	n/a	n/a
3104080	RECOG_LURE	n/a	LTP067	ltpFR	16	2	n/a	HOSE	720	1	n/a	n/a	n/a	n/a	n/a	n/a
3105002	RECOG_RESP	n/a	LTP067	ltpFR	16	2	n/a	HOSE	720	n/a	n/a	n/a	n/a	n/a	n/a	n/a
3105600	RECOG_CONF	n/a	LTP067	ltpFR	16	2	n/a	HOSE	720	1	n/a	n/a	n/a	n/a	n/a	n/a
3106950	RECOG_TARGET	n/a	LTP067	ltpFR	16	2	-1	ORNAMENT	985	5	-1	n/a	n/a	n/a	n/a	n/a
3107606	RECOG_RESP	n/a	LTP067	ltpFR	16	2	-1	ORNAMENT	985	n/a	-1	n/a	n/a	n/a	n/a	n/a
3108085	RECOG_CONF	n/a	LTP067	ltpFR	16	2	-1	ORNAMENT	985	5	-1	n/a	n/a	n/a	n/a	n/a
3109365	RECOG_TARGET	n/a	LTP067	ltpFR	16	2	0	RAISIN	1163	5	0	n/a	n/a	n/a	n/a	n/a
3109816	RECOG_RESP	n/a	LTP067	ltpFR	16	2	0	RAISIN	1163	n/a	0	n/a	n/a	n/a	n/a	n/a
3110164	RECOG_CONF	n/a	LTP067	ltpFR	16	2	0	RAISIN	1163	5	0	n/a	n/a	n/a	n/a	n/a
3111504	RECOG_LURE	n/a	LTP067	ltpFR	16	2	n/a	DRAWER	493	1	n/a	n/a	n/a	n/a	n/a	n/a
3113792	RECOG_RESP	n/a	LTP067	ltpFR	16	2	n/a	DRAWER	493	n/a	n/a	n/a	n/a	n/a	n/a	n/a
3114349	RECOG_CONF	n/a	LTP067	ltpFR	16	2	n/a	DRAWER	493	1	n/a	n/a	n/a	n/a	n/a	n/a
3115757	RECOG_LURE	n/a	LTP067	ltpFR	16	2	n/a	ANKLE	24	4	n/a	n/a	n/a	n/a	n/a	n/a
3116406	RECOG_RESP	n/a	LTP067	ltpFR	16	2	n/a	ANKLE	24	n/a	n/a	n/a	n/a	n/a	n/a	n/a
3116847	RECOG_CONF	n/a	LTP067	ltpFR	16	2	n/a	ANKLE	24	4	n/a	n/a	n/a	n/a	n/a	n/a
3118280	RECOG_LURE	n/a	LTP067	ltpFR	16	2	n/a	PILOT	1070	3	n/a	n/a	n/a	n/a	n/a	n/a
3118935	RECOG_RESP	n/a	LTP067	ltpFR	16	2	n/a	PILOT	1070	n/a	n/a	n/a	n/a	n/a	n/a	n/a
3119399	RECOG_CONF	n/a	LTP067	ltpFR	16	2	n/a	PILOT	1070	3	n/a	n/a	n/a	n/a	n/a	n/a
3120751	RECOG_TARGET	n/a	LTP067	ltpFR	16	2	0	ACROBAT	4	5	1	n/a	n/a	n/a	n/a	n/a
3121714	RECOG_RESP	n/a	LTP067	ltpFR	16	2	0	ACROBAT	4	n/a	1	n/a	n/a	n/a	n/a	n/a
3122155	RECOG_CONF	n/a	LTP067	ltpFR	16	2	0	ACROBAT	4	5	1	n/a	n/a	n/a	n/a	n/a
3123615	RECOG_TARGET	n/a	LTP067	ltpFR	16	2	-1	ROBBER	1197	5	-1	n/a	n/a	n/a	n/a	n/a
3123969	RECOG_RESP	n/a	LTP067	ltpFR	16	2	-1	ROBBER	1197	n/a	-1	n/a	n/a	n/a	n/a	n/a
3124487	RECOG_CONF	n/a	LTP067	ltpFR	16	2	-1	ROBBER	1197	5	-1	n/a	n/a	n/a	n/a	n/a
3125828	RECOG_TARGET	n/a	LTP067	ltpFR	16	2	1	SCOTCH	1251	5	0	n/a	n/a	n/a	n/a	n/a
3126428	RECOG_RESP	n/a	LTP067	ltpFR	16	2	1	SCOTCH	1251	n/a	0	n/a	n/a	n/a	n/a	n/a
3126874	RECOG_CONF	n/a	LTP067	ltpFR	16	2	1	SCOTCH	1251	5	0	n/a	n/a	n/a	n/a	n/a
3128110	RECOG_LURE	n/a	LTP067	ltpFR	16	2	n/a	ROBOT	1200	4	n/a	n/a	n/a	n/a	n/a	n/a
3128778	RECOG_RESP	n/a	LTP067	ltpFR	16	2	n/a	ROBOT	1200	n/a	n/a	n/a	n/a	n/a	n/a	n/a
3129173	RECOG_CONF	n/a	LTP067	ltpFR	16	2	n/a	ROBOT	1200	4	n/a	n/a	n/a	n/a	n/a	n/a
3130590	RECOG_LURE	n/a	LTP067	ltpFR	16	2	n/a	WAND	1586	2	n/a	n/a	n/a	n/a	n/a	n/a
3131127	RECOG_RESP_VV	n/a	LTP067	ltpFR	16	2	n/a	WAND	1586	n/a	n/a	n/a	n/a	n/a	n/a	n/a
3131791	RECOG_RESP	n/a	LTP067	ltpFR	16	2	n/a	WAND	1586	n/a	n/a	n/a	n/a	n/a	n/a	n/a
3132559	RECOG_CONF	n/a	LTP067	ltpFR	16	2	n/a	WAND	1586	2	n/a	n/a	n/a	n/a	n/a	n/a
3133802	RECOG_TARGET	n/a	LTP067	ltpFR	16	2	1	GROCERIES	663	5	0	n/a	n/a	n/a	n/a	n/a
3134500	RECOG_RESP	n/a	LTP067	ltpFR	16	2	1	GROCERIES	663	n/a	0	n/a	n/a	n/a	n/a	n/a
3134969	RECOG_CONF	n/a	LTP067	ltpFR	16	2	1	GROCERIES	663	5	0	n/a	n/a	n/a	n/a	n/a
3136226	RECOG_TARGET	n/a	LTP067	ltpFR	16	2	1	DAM	436	5	0	n/a	n/a	n/a	n/a	n/a
3136705	RECOG_RESP	n/a	LTP067	ltpFR	16	2	1	DAM	436	n/a	0	n/a	n/a	n/a	n/a	n/a
3137244	RECOG_CONF	n/a	LTP067	ltpFR	16	2	1	DAM	436	5	0	n/a	n/a	n/a	n/a	n/a
3138581	RECOG_TARGET	n/a	LTP067	ltpFR	16	2	0	PATRIOT	1026	5	1	n/a	n/a	n/a	n/a	n/a
3139064	RECOG_RESP_VV	n/a	LTP067	ltpFR	16	2	0	PATRIOT	1026	n/a	1	n/a	n/a	n/a	n/a	n/a
3139443	RECOG_RESP	n/a	LTP067	ltpFR	16	2	0	PATRIOT	1026	n/a	1	n/a	n/a	n/a	n/a	n/a
3139902	RECOG_CONF	n/a	LTP067	ltpFR	16	2	0	PATRIOT	1026	5	1	n/a	n/a	n/a	n/a	n/a
3141436	RECOG_TARGET	n/a	LTP067	ltpFR	16	2	0	TERMINAL	1450	5	1	n/a	n/a	n/a	n/a	n/a
3142057	RECOG_RESP	n/a	LTP067	ltpFR	16	2	0	TERMINAL	1450	n/a	1	n/a	n/a	n/a	n/a	n/a
3142536	RECOG_CONF	n/a	LTP067	ltpFR	16	2	0	TERMINAL	1450	5	1	n/a	n/a	n/a	n/a	n/a
3143940	RECOG_LURE	n/a	LTP067	ltpFR	16	2	n/a	RECEPTIONIST	1174	4	n/a	n/a	n/a	n/a	n/a	n/a
3144502	RECOG_RESP	n/a	LTP067	ltpFR	16	2	n/a	RECEPTIONIST	1174	n/a	n/a	n/a	n/a	n/a	n/a	n/a
3145061	RECOG_CONF	n/a	LTP067	ltpFR	16	2	n/a	RECEPTIONIST	1174	4	n/a	n/a	n/a	n/a	n/a	n/a
3146422	RECOG_TARGET	n/a	LTP067	ltpFR	16	2	1	BURGLAR	200	5	1	n/a	n/a	n/a	n/a	n/a
3147076	RECOG_RESP	n/a	LTP067	ltpFR	16	2	1	BURGLAR	200	n/a	1	n/a	n/a	n/a	n/a	n/a
3147535	RECOG_CONF	n/a	LTP067	ltpFR	16	2	1	BURGLAR	200	5	1	n/a	n/a	n/a	n/a	n/a
3148951	RECOG_LURE	n/a	LTP067	ltpFR	16	2	n/a	GORILLA	650	5	n/a	n/a	n/a	n/a	n/a	n/a
3149730	RECOG_RESP	n/a	LTP067	ltpFR	16	2	n/a	GORILLA	650	n/a	n/a	n/a	n/a	n/a	n/a	n/a
3150149	RECOG_CONF	n/a	LTP067	ltpFR	16	2	n/a	GORILLA	650	5	n/a	n/a	n/a	n/a	n/a	n/a
3151691	RECOG_LURE	n/a	LTP067	ltpFR	16	2	n/a	JUDGE	761	1	n/a	n/a	n/a	n/a	n/a	n/a
3152908	RECOG_RESP	n/a	LTP067	ltpFR	16	2	n/a	JUDGE	761	n/a	n/a	n/a	n/a	n/a	n/a	n/a
3153671	RECOG_CONF	n/a	LTP067	ltpFR	16	2	n/a	JUDGE	761	1	n/a	n/a	n/a	n/a	n/a	n/a
3155095	RECOG_TARGET	n/a	LTP067	ltpFR	16	2	0	SACK	1220	4	1	n/a	n/a	n/a	n/a	n/a
3155946	RECOG_RESP	n/a	LTP067	ltpFR	16	2	0	SACK	1220	n/a	1	n/a	n/a	n/a	n/a	n/a
3156485	RECOG_CONF	n/a	LTP067	ltpFR	16	2	0	SACK	1220	4	1	n/a	n/a	n/a	n/a	n/a
3159552	REC_START	n/a	LTP067	ltpFR	16	3	n/a	n/a	n/a	n/a	n/a	n/a	n/a	n/a	n/a	n/a
3159581	RECOG_TARGET	n/a	LTP067	ltpFR	16	3	-1	BRAIN	165	5	-1	n/a	n/a	n/a	n/a	n/a
3160155	RECOG_RESP	n/a	LTP067	ltpFR	16	3	-1	BRAIN	165	n/a	-1	n/a	n/a	n/a	n/a	n/a
3160654	RECOG_CONF	n/a	LTP067	ltpFR	16	3	-1	BRAIN	165	5	-1	n/a	n/a	n/a	n/a	n/a
3162037	RECOG_LURE	n/a	LTP067	ltpFR	16	3	n/a	MAN	862	1	n/a	n/a	n/a	n/a	n/a	n/a
3162595	RECOG_RESP	n/a	LTP067	ltpFR	16	3	n/a	MAN	862	n/a	n/a	n/a	n/a	n/a	n/a	n/a
3163318	RECOG_CONF	n/a	LTP067	ltpFR	16	3	n/a	MAN	862	1	n/a	n/a	n/a	n/a	n/a	n/a
3164725	RECOG_TARGET	n/a	LTP067	ltpFR	16	3	1	VEGETABLE	1552	5	0	n/a	n/a	n/a	n/a	n/a
3165289	RECOG_RESP	n/a	LTP067	ltpFR	16	3	1	VEGETABLE	1552	n/a	0	n/a	n/a	n/a	n/a	n/a
3165803	RECOG_CONF	n/a	LTP067	ltpFR	16	3	1	VEGETABLE	1552	5	0	n/a	n/a	n/a	n/a	n/a
3167156	RECOG_TARGET	n/a	LTP067	ltpFR	16	3	1	KIWI	781	5	0	n/a	n/a	n/a	n/a	n/a
3167758	RECOG_RESP	n/a	LTP067	ltpFR	16	3	1	KIWI	781	n/a	0	n/a	n/a	n/a	n/a	n/a
3168247	RECOG_CONF	n/a	LTP067	ltpFR	16	3	1	KIWI	781	5	0	n/a	n/a	n/a	n/a	n/a
3169636	RECOG_LURE	n/a	LTP067	ltpFR	16	3	n/a	HAM	678	4	n/a	n/a	n/a	n/a	n/a	n/a
3170442	RECOG_RESP	n/a	LTP067	ltpFR	16	3	n/a	HAM	678	n/a	n/a	n/a	n/a	n/a	n/a	n/a
3170991	RECOG_CONF	n/a	LTP067	ltpFR	16	3	n/a	HAM	678	4	n/a	n/a	n/a	n/a	n/a	n/a
3172508	RECOG_LURE	n/a	LTP067	ltpFR	16	3	n/a	CLOVE	329	1	n/a	n/a	n/a	n/a	n/a	n/a
3173819	RECOG_RESP	n/a	LTP067	ltpFR	16	3	n/a	CLOVE	329	n/a	n/a	n/a	n/a	n/a	n/a	n/a
3174443	RECOG_CONF	n/a	LTP067	ltpFR	16	3	n/a	CLOVE	329	1	n/a	n/a	n/a	n/a	n/a	n/a
3175903	RECOG_TARGET	n/a	LTP067	ltpFR	16	3	0	ROUGE	1213	5	1	n/a	n/a	n/a	n/a	n/a
3176663	RECOG_RESP	n/a	LTP067	ltpFR	16	3	0	ROUGE	1213	n/a	1	n/a	n/a	n/a	n/a	n/a
3177157	RECOG_CONF	n/a	LTP067	ltpFR	16	3	0	ROUGE	1213	5	1	n/a	n/a	n/a	n/a	n/a
3178509	RECOG_TARGET	n/a	LTP067	ltpFR	16	3	-1	BUILDING	191	5	-1	n/a	n/a	n/a	n/a	n/a
3179252	RECOG_RESP	n/a	LTP067	ltpFR	16	3	-1	BUILDING	191	n/a	-1	n/a	n/a	n/a	n/a	n/a
3179751	RECOG_CONF	n/a	LTP067	ltpFR	16	3	-1	BUILDING	191	5	-1	n/a	n/a	n/a	n/a	n/a
3181248	RECOG_LURE	n/a	LTP067	ltpFR	16	3	n/a	PEBBLE	1035	5	n/a	n/a	n/a	n/a	n/a	n/a
3181826	RECOG_RESP	n/a	LTP067	ltpFR	16	3	n/a	PEBBLE	1035	n/a	n/a	n/a	n/a	n/a	n/a	n/a
3182325	RECOG_CONF	n/a	LTP067	ltpFR	16	3	n/a	PEBBLE	1035	5	n/a	n/a	n/a	n/a	n/a	n/a
3183769	RECOG_LURE	n/a	LTP067	ltpFR	16	3	n/a	JELLO	754	5	n/a	n/a	n/a	n/a	n/a	n/a
3184246	RECOG_RESP	n/a	LTP067	ltpFR	16	3	n/a	JELLO	754	n/a	n/a	n/a	n/a	n/a	n/a	n/a
3184700	RECOG_CONF	n/a	LTP067	ltpFR	16	3	n/a	JELLO	754	5	n/a	n/a	n/a	n/a	n/a	n/a
3186067	RECOG_TARGET	n/a	LTP067	ltpFR	16	3	0	MUFFIN	929	5	0	n/a	n/a	n/a	n/a	n/a
3186585	RECOG_RESP	n/a	LTP067	ltpFR	16	3	0	MUFFIN	929	n/a	0	n/a	n/a	n/a	n/a	n/a
3187114	RECOG_CONF	n/a	LTP067	ltpFR	16	3	0	MUFFIN	929	5	0	n/a	n/a	n/a	n/a	n/a
3188506	RECOG_LURE	n/a	LTP067	ltpFR	16	3	n/a	BASEBALL	93	1	n/a	n/a	n/a	n/a	n/a	n/a
3189484	RECOG_RESP	n/a	LTP067	ltpFR	16	3	n/a	BASEBALL	93	n/a	n/a	n/a	n/a	n/a	n/a	n/a
3190028	RECOG_CONF	n/a	LTP067	ltpFR	16	3	n/a	BASEBALL	93	1	n/a	n/a	n/a	n/a	n/a	n/a
3191453	RECOG_TARGET	n/a	LTP067	ltpFR	16	3	1	HIGHWAY	707	1	0	n/a	n/a	n/a	n/a	n/a
3192203	RECOG_RESP	n/a	LTP067	ltpFR	16	3	1	HIGHWAY	707	n/a	0	n/a	n/a	n/a	n/a	n/a
3192821	RECOG_CONF	n/a	LTP067	ltpFR	16	3	1	HIGHWAY	707	1	0	n/a	n/a	n/a	n/a	n/a
3194341	RECOG_LURE	n/a	LTP067	ltpFR	16	3	n/a	MEDAL	885	3	n/a	n/a	n/a	n/a	n/a	n/a
3195116	RECOG_RESP	n/a	LTP067	ltpFR	16	3	n/a	MEDAL	885	n/a	n/a	n/a	n/a	n/a	n/a	n/a
3195695	RECOG_CONF	n/a	LTP067	ltpFR	16	3	n/a	MEDAL	885	3	n/a	n/a	n/a	n/a	n/a	n/a
3197063	RECOG_LURE	n/a	LTP067	ltpFR	16	3	n/a	BUYER	208	1	n/a	n/a	n/a	n/a	n/a	n/a
3198149	RECOG_RESP	n/a	LTP067	ltpFR	16	3	n/a	BUYER	208	n/a	n/a	n/a	n/a	n/a	n/a	n/a
3198578	RECOG_CONF	n/a	LTP067	ltpFR	16	3	n/a	BUYER	208	1	n/a	n/a	n/a	n/a	n/a	n/a
3200093	RECOG_LURE	n/a	LTP067	ltpFR	16	3	n/a	CONTINENT	367	1	n/a	n/a	n/a	n/a	n/a	n/a
3201332	RECOG_RESP	n/a	LTP067	ltpFR	16	3	n/a	CONTINENT	367	n/a	n/a	n/a	n/a	n/a	n/a	n/a
3201841	RECOG_CONF	n/a	LTP067	ltpFR	16	3	n/a	CONTINENT	367	1	n/a	n/a	n/a	n/a	n/a	n/a
3203305	RECOG_LURE	n/a	LTP067	ltpFR	16	3	n/a	JUVENILE	767	3	n/a	n/a	n/a	n/a	n/a	n/a
3203936	RECOG_RESP	n/a	LTP067	ltpFR	16	3	n/a	JUVENILE	767	n/a	n/a	n/a	n/a	n/a	n/a	n/a
3204485	RECOG_CONF	n/a	LTP067	ltpFR	16	3	n/a	JUVENILE	767	3	n/a	n/a	n/a	n/a	n/a	n/a
3205843	RECOG_LURE	n/a	LTP067	ltpFR	16	3	n/a	PLAID	1080	1	n/a	n/a	n/a	n/a	n/a	n/a
3206580	RECOG_RESP	n/a	LTP067	ltpFR	16	3	n/a	PLAID	1080	n/a	n/a	n/a	n/a	n/a	n/a	n/a
3207099	RECOG_CONF	n/a	LTP067	ltpFR	16	3	n/a	PLAID	1080	1	n/a	n/a	n/a	n/a	n/a	n/a
3208533	RECOG_LURE	n/a	LTP067	ltpFR	16	3	n/a	HALL	677	1	n/a	n/a	n/a	n/a	n/a	n/a
3209209	RECOG_RESP	n/a	LTP067	ltpFR	16	3	n/a	HALL	677	n/a	n/a	n/a	n/a	n/a	n/a	n/a
3209713	RECOG_CONF	n/a	LTP067	ltpFR	16	3	n/a	HALL	677	1	n/a	n/a	n/a	n/a	n/a	n/a
3211155	RECOG_LURE	n/a	LTP067	ltpFR	16	3	n/a	LIST	830	1	n/a	n/a	n/a	n/a	n/a	n/a
3211838	RECOG_RESP	n/a	LTP067	ltpFR	16	3	n/a	LIST	830	n/a	n/a	n/a	n/a	n/a	n/a	n/a
3212357	RECOG_CONF	n/a	LTP067	ltpFR	16	3	n/a	LIST	830	1	n/a	n/a	n/a	n/a	n/a	n/a
3215182	REC_START	n/a	LTP067	ltpFR	16	4	n/a	n/a	n/a	n/a	n/a	n/a	n/a	n/a	n/a	n/a
3215208	RECOG_LURE	n/a	LTP067	ltpFR	16	4	n/a	ROPE	1211	1	n/a	n/a	n/a	n/a	n/a	n/a
3216025	RECOG_RESP	n/a	LTP067	ltpFR	16	4	n/a	ROPE	1211	n/a	n/a	n/a	n/a	n/a	n/a	n/a
3216554	RECOG_CONF	n/a	LTP067	ltpFR	16	4	n/a	ROPE	1211	1	n/a	n/a	n/a	n/a	n/a	n/a
3217946	RECOG_TARGET	n/a	LTP067	ltpFR	16	4	-1	REINDEER	1181	5	-1	n/a	n/a	n/a	n/a	n/a
3218644	RECOG_RESP	n/a	LTP067	ltpFR	16	4	-1	REINDEER	1181	n/a	-1	n/a	n/a	n/a	n/a	n/a
3219160	RECOG_CONF	n/a	LTP067	ltpFR	16	4	-1	REINDEER	1181	5	-1	n/a	n/a	n/a	n/a	n/a
3220552	RECOG_LURE	n/a	LTP067	ltpFR	16	4	n/a	SINK	1309	1	n/a	n/a	n/a	n/a	n/a	n/a
3222081	RECOG_RESP	n/a	LTP067	ltpFR	16	4	n/a	SINK	1309	n/a	n/a	n/a	n/a	n/a	n/a	n/a
3222680	RECOG_CONF	n/a	LTP067	ltpFR	16	4	n/a	SINK	1309	1	n/a	n/a	n/a	n/a	n/a	n/a
3224397	RECOG_TARGET	n/a	LTP067	ltpFR	16	4	1	TENT	1449	5	0	n/a	n/a	n/a	n/a	n/a
3225224	RECOG_RESP	n/a	LTP067	ltpFR	16	4	1	TENT	1449	n/a	0	n/a	n/a	n/a	n/a	n/a
3225707	RECOG_CONF	n/a	LTP067	ltpFR	16	4	1	TENT	1449	5	0	n/a	n/a	n/a	n/a	n/a
3227094	RECOG_LURE	n/a	LTP067	ltpFR	16	4	n/a	GRAVEL	659	4	n/a	n/a	n/a	n/a	n/a	n/a
3227748	RECOG_RESP	n/a	LTP067	ltpFR	16	4	n/a	GRAVEL	659	n/a	n/a	n/a	n/a	n/a	n/a	n/a
3228375	RECOG_CONF	n/a	LTP067	ltpFR	16	4	n/a	GRAVEL	659	4	n/a	n/a	n/a	n/a	n/a	n/a
3229666	RECOG_LURE	n/a	LTP067	ltpFR	16	4	n/a	BACKBONE	66	5	n/a	n/a	n/a	n/a	n/a	n/a
3230233	RECOG_RESP	n/a	LTP067	ltpFR	16	4	n/a	BACKBONE	66	n/a	n/a	n/a	n/a	n/a	n/a	n/a
3230672	RECOG_CONF	n/a	LTP067	ltpFR	16	4	n/a	BACKBONE	66	5	n/a	n/a	n/a	n/a	n/a	n/a
3232155	RECOG_LURE	n/a	LTP067	ltpFR	16	4	n/a	FLOOR	581	4	n/a	n/a	n/a	n/a	n/a	n/a
3232807	RECOG_RESP_VV	n/a	LTP067	ltpFR	16	4	n/a	FLOOR	581	n/a	n/a	n/a	n/a	n/a	n/a	n/a
3233236	RECOG_RESP	n/a	LTP067	ltpFR	16	4	n/a	FLOOR	581	n/a	n/a	n/a	n/a	n/a	n/a	n/a
3233770	RECOG_CONF	n/a	LTP067	ltpFR	16	4	n/a	FLOOR	581	4	n/a	n/a	n/a	n/a	n/a	n/a
3235343	RECOG_TARGET	n/a	LTP067	ltpFR	16	4	0	JUGGLER	763	1	1	n/a	n/a	n/a	n/a	n/a
3236923	RECOG_RESP	n/a	LTP067	ltpFR	16	4	0	JUGGLER	763	n/a	1	n/a	n/a	n/a	n/a	n/a
3237648	RECOG_CONF	n/a	LTP067	ltpFR	16	4	0	JUGGLER	763	1	1	n/a	n/a	n/a	n/a	n/a
3238946	RECOG_LURE	n/a	LTP067	ltpFR	16	4	n/a	MOB	904	1	n/a	n/a	n/a	n/a	n/a	n/a
3239611	RECOG_RESP	n/a	LTP067	ltpFR	16	4	n/a	MOB	904	n/a	n/a	n/a	n/a	n/a	n/a	n/a
3240230	RECOG_CONF	n/a	LTP067	ltpFR	16	4	n/a	MOB	904	1	n/a	n/a	n/a	n/a	n/a	n/a
3241611	RECOG_TARGET	n/a	LTP067	ltpFR	16	4	0	FARM	552	5	1	n/a	n/a	n/a	n/a	n/a
3242195	RECOG_RESP	n/a	LTP067	ltpFR	16	4	0	FARM	552	n/a	1	n/a	n/a	n/a	n/a	n/a
3242714	RECOG_CONF	n/a	LTP067	ltpFR	16	4	0	FARM	552	5	1	n/a	n/a	n/a	n/a	n/a
3244258	RECOG_TARGET	n/a	LTP067	ltpFR	16	4	1	POWDER	1117	5	0	n/a	n/a	n/a	n/a	n/a
3244780	RECOG_RESP	n/a	LTP067	ltpFR	16	4	1	POWDER	1117	n/a	0	n/a	n/a	n/a	n/a	n/a
3245328	RECOG_CONF	n/a	LTP067	ltpFR	16	4	1	POWDER	1117	5	0	n/a	n/a	n/a	n/a	n/a
3246862	RECOG_LURE	n/a	LTP067	ltpFR	16	4	n/a	GROCERY	664	5	n/a	n/a	n/a	n/a	n/a	n/a
3247214	RECOG_RESP	n/a	LTP067	ltpFR	16	4	n/a	GROCERY	664	n/a	n/a	n/a	n/a	n/a	n/a	n/a
3247783	RECOG_CONF	n/a	LTP067	ltpFR	16	4	n/a	GROCERY	664	5	n/a	n/a	n/a	n/a	n/a	n/a
3249202	RECOG_LURE	n/a	LTP067	ltpFR	16	4	n/a	CAB	209	1	n/a	n/a	n/a	n/a	n/a	n/a
3251060	RECOG_RESP	n/a	LTP067	ltpFR	16	4	n/a	CAB	209	n/a	n/a	n/a	n/a	n/a	n/a	n/a
3251704	RECOG_CONF	n/a	LTP067	ltpFR	16	4	n/a	CAB	209	1	n/a	n/a	n/a	n/a	n/a	n/a
3253205	RECOG_TARGET	n/a	LTP067	ltpFR	16	4	-1	BARN	89	5	-1	n/a	n/a	n/a	n/a	n/a
3254123	RECOG_RESP	n/a	LTP067	ltpFR	16	4	-1	BARN	89	n/a	-1	n/a	n/a	n/a	n/a	n/a
3254657	RECOG_CONF	n/a	LTP067	ltpFR	16	4	-1	BARN	89	5	-1	n/a	n/a	n/a	n/a	n/a
3256160	RECOG_TARGET	n/a	LTP067	ltpFR	16	4	0	RECIPE	1175	5	0	n/a	n/a	n/a	n/a	n/a
3256762	RECOG_RESP	n/a	LTP067	ltpFR	16	4	0	RECIPE	1175	n/a	0	n/a	n/a	n/a	n/a	n/a
3257311	RECOG_CONF	n/a	LTP067	ltpFR	16	4	0	RECIPE	1175	5	0	n/a	n/a	n/a	n/a	n/a
3258806	RECOG_TARGET	n/a	LTP067	ltpFR	16	4	1	MESSAGE	888	1	0	n/a	n/a	n/a	n/a	n/a
3259192	RECOG_RESP	n/a	LTP067	ltpFR	16	4	1	MESSAGE	888	n/a	0	n/a	n/a	n/a	n/a	n/a
3259796	RECOG_CONF	n/a	LTP067	ltpFR	16	4	1	MESSAGE	888	1	0	n/a	n/a	n/a	n/a	n/a
3261354	RECOG_LURE	n/a	LTP067	ltpFR	16	4	n/a	ATTORNEY	58	4	n/a	n/a	n/a	n/a	n/a	n/a
3261916	RECOG_RESP	n/a	LTP067	ltpFR	16	4	n/a	ATTORNEY	58	n/a	n/a	n/a	n/a	n/a	n/a	n/a
3262499	RECOG_CONF	n/a	LTP067	ltpFR	16	4	n/a	ATTORNEY	58	4	n/a	n/a	n/a	n/a	n/a	n/a
3263867	RECOG_LURE	n/a	LTP067	ltpFR	16	4	n/a	MAP	865	1	n/a	n/a	n/a	n/a	n/a	n/a
3264649	RECOG_RESP	n/a	LTP067	ltpFR	16	4	n/a	MAP	865	n/a	n/a	n/a	n/a	n/a	n/a	n/a
3265303	RECOG_CONF	n/a	LTP067	ltpFR	16	4	n/a	MAP	865	1	n/a	n/a	n/a	n/a	n/a	n/a
3266739	RECOG_TARGET	n/a	LTP067	ltpFR	16	4	1	FLUTE	585	5	0	n/a	n/a	n/a	n/a	n/a
3267308	RECOG_RESP	n/a	LTP067	ltpFR	16	4	1	FLUTE	585	n/a	0	n/a	n/a	n/a	n/a	n/a
3267837	RECOG_CONF	n/a	LTP067	ltpFR	16	4	1	FLUTE	585	5	0	n/a	n/a	n/a	n/a	n/a
3269303	RECOG_LURE	n/a	LTP067	ltpFR	16	4	n/a	ESCALATOR	539	5	n/a	n/a	n/a	n/a	n/a	n/a
3269917	RECOG_RESP	n/a	LTP067	ltpFR	16	4	n/a	ESCALATOR	539	n/a	n/a	n/a	n/a	n/a	n/a	n/a
3270401	RECOG_CONF	n/a	LTP067	ltpFR	16	4	n/a	ESCALATOR	539	5	n/a	n/a	n/a	n/a	n/a	n/a
3273454	REC_START	n/a	LTP067	ltpFR	16	5	n/a	n/a	n/a	n/a	n/a	n/a	n/a	n/a	n/a	n/a
3273482	RECOG_LURE	n/a	LTP067	ltpFR	16	5	n/a	PICTURE	1061	1	n/a	n/a	n/a	n/a	n/a	n/a
3273953	RECOG_RESP	n/a	LTP067	ltpFR	16	5	n/a	PICTURE	1061	n/a	n/a	n/a	n/a	n/a	n/a	n/a
3274596	RECOG_CONF	n/a	LTP067	ltpFR	16	5	n/a	PICTURE	1061	1	n/a	n/a	n/a	n/a	n/a	n/a
3276079	RECOG_LURE	n/a	LTP067	ltpFR	16	5	n/a	BOUQUET	157	4	n/a	n/a	n/a	n/a	n/a	n/a
3276582	RECOG_RESP_VV	n/a	LTP067	ltpFR	16	5	n/a	BOUQUET	157	n/a	n/a	n/a	n/a	n/a	n/a	n/a
3277579	RECOG_RESP	n/a	LTP067	ltpFR	16	5	n/a	BOUQUET	157	n/a	n/a	n/a	n/a	n/a	n/a	n/a
3278118	RECOG_CONF	n/a	LTP067	ltpFR	16	5	n/a	BOUQUET	157	4	n/a	n/a	n/a	n/a	n/a	n/a
3279533	RECOG_LURE	n/a	LTP067	ltpFR	16	5	n/a	SHORE	1291	1	n/a	n/a	n/a	n/a	n/a	n/a
3280024	RECOG_RESP	n/a	LTP067	ltpFR	16	5	n/a	SHORE	1291	n/a	n/a	n/a	n/a	n/a	n/a	n/a
3280603	RECOG_CONF	n/a	LTP067	ltpFR	16	5	n/a	SHORE	1291	1	n/a	n/a	n/a	n/a	n/a	n/a
3282055	RECOG_LURE	n/a	LTP067	ltpFR	16	5	n/a	FARMER	553	5	n/a	n/a	n/a	n/a	n/a	n/a
3282578	RECOG_RESP	n/a	LTP067	ltpFR	16	5	n/a	FARMER	553	n/a	n/a	n/a	n/a	n/a	n/a	n/a
3283057	RECOG_CONF	n/a	LTP067	ltpFR	16	5	n/a	FARMER	553	5	n/a	n/a	n/a	n/a	n/a	n/a
3284519	RECOG_TARGET	n/a	LTP067	ltpFR	16	5	1	WAGON	1578	5	0	n/a	n/a	n/a	n/a	n/a
3285082	RECOG_RESP	n/a	LTP067	ltpFR	16	5	1	WAGON	1578	n/a	0	n/a	n/a	n/a	n/a	n/a
3285601	RECOG_CONF	n/a	LTP067	ltpFR	16	5	1	WAGON	1578	5	0	n/a	n/a	n/a	n/a	n/a
3287066	RECOG_TARGET	n/a	LTP067	ltpFR	16	5	-1	VOLLEYBALL	1576	5	-1	n/a	n/a	n/a	n/a	n/a
3287761	RECOG_RESP	n/a	LTP067	ltpFR	16	5	-1	VOLLEYBALL	1576	n/a	-1	n/a	n/a	n/a	n/a	n/a
3288305	RECOG_CONF	n/a	LTP067	ltpFR	16	5	-1	VOLLEYBALL	1576	5	-1	n/a	n/a	n/a	n/a	n/a
3289770	RECOG_TARGET	n/a	LTP067	ltpFR	16	5	0	SUPPER	1411	5	0	n/a	n/a	n/a	n/a	n/a
3290186	RECOG_RESP	n/a	LTP067	ltpFR	16	5	0	SUPPER	1411	n/a	0	n/a	n/a	n/a	n/a	n/a
3290750	RECOG_CONF	n/a	LTP067	ltpFR	16	5	0	SUPPER	1411	5	0	n/a	n/a	n/a	n/a	n/a
3292218	RECOG_TARGET	n/a	LTP067	ltpFR	16	5	0	PLATE	1086	5	1	n/a	n/a	n/a	n/a	n/a
3292605	RECOG_RESP	n/a	LTP067	ltpFR	16	5	0	PLATE	1086	n/a	1	n/a	n/a	n/a	n/a	n/a
3293543	RECOG_CONF	n/a	LTP067	ltpFR	16	5	0	PLATE	1086	5	1	n/a	n/a	n/a	n/a	n/a
3295065	RECOG_TARGET	n/a	LTP067	ltpFR	16	5	-1	PORCUPINE	1107	5	-1	n/a	n/a	n/a	n/a	n/a
3295693	RECOG_RESP	n/a	LTP067	ltpFR	16	5	-1	PORCUPINE	1107	n/a	-1	n/a	n/a	n/a	n/a	n/a
3296217	RECOG_CONF	n/a	LTP067	ltpFR	16	5	-1	PORCUPINE	1107	5	-1	n/a	n/a	n/a	n/a	n/a
3297579	RECOG_TARGET	n/a	LTP067	ltpFR	16	5	-1	THIMBLE	1458	5	-1	n/a	n/a	n/a	n/a	n/a
3298078	RECOG_RESP	n/a	LTP067	ltpFR	16	5	-1	THIMBLE	1458	n/a	-1	n/a	n/a	n/a	n/a	n/a
3298602	RECOG_CONF	n/a	LTP067	ltpFR	16	5	-1	THIMBLE	1458	5	-1	n/a	n/a	n/a	n/a	n/a
3300034	RECOG_TARGET	n/a	LTP067	ltpFR	16	5	1	FLASHLIGHT	575	5	0	n/a	n/a	n/a	n/a	n/a
3300408	RECOG_RESP	n/a	LTP067	ltpFR	16	5	1	FLASHLIGHT	575	n/a	0	n/a	n/a	n/a	n/a	n/a
3300886	RECOG_CONF	n/a	LTP067	ltpFR	16	5	1	FLASHLIGHT	575	5	0	n/a	n/a	n/a	n/a	n/a
3302340	RECOG_TARGET	n/a	LTP067	ltpFR	16	5	0	BLACKBOARD	133	5	1	n/a	n/a	n/a	n/a	n/a
3303022	RECOG_RESP	n/a	LTP067	ltpFR	16	5	0	BLACKBOARD	133	n/a	1	n/a	n/a	n/a	n/a	n/a
3303560	RECOG_CONF	n/a	LTP067	ltpFR	16	5	0	BLACKBOARD	133	5	1	n/a	n/a	n/a	n/a	n/a
3305078	RECOG_LURE	n/a	LTP067	ltpFR	16	5	n/a	DRIVEWAY	500	1	n/a	n/a	n/a	n/a	n/a	n/a
3305745	RECOG_RESP	n/a	LTP067	ltpFR	16	5	n/a	DRIVEWAY	500	n/a	n/a	n/a	n/a	n/a	n/a	n/a
3306244	RECOG_CONF	n/a	LTP067	ltpFR	16	5	n/a	DRIVEWAY	500	1	n/a	n/a	n/a	n/a	n/a	n/a
3307642	RECOG_TARGET	n/a	LTP067	ltpFR	16	5	-1	BOARD	143	5	-1	n/a	n/a	n/a	n/a	n/a
3307940	RECOG_RESP	n/a	LTP067	ltpFR	16	5	-1	BOARD	143	n/a	-1	n/a	n/a	n/a	n/a	n/a
3308469	RECOG_CONF	n/a	LTP067	ltpFR	16	5	-1	BOARD	143	5	-1	n/a	n/a	n/a	n/a	n/a
3309897	RECOG_TARGET	n/a	LTP067	ltpFR	16	5	1	PROFESSOR	1131	5	1	n/a	n/a	n/a	n/a	n/a
3310365	RECOG_RESP	n/a	LTP067	ltpFR	16	5	1	PROFESSOR	1131	n/a	1	n/a	n/a	n/a	n/a	n/a
3310954	RECOG_CONF	n/a	LTP067	ltpFR	16	5	1	PROFESSOR	1131	5	1	n/a	n/a	n/a	n/a	n/a
3312370	RECOG_TARGET	n/a	LTP067	ltpFR	16	5	1	POPE	1105	5	1	n/a	n/a	n/a	n/a	n/a
3313428	RECOG_RESP	n/a	LTP067	ltpFR	16	5	1	POPE	1105	n/a	1	n/a	n/a	n/a	n/a	n/a
3313937	RECOG_CONF	n/a	LTP067	ltpFR	16	5	1	POPE	1105	5	1	n/a	n/a	n/a	n/a	n/a
3315383	RECOG_LURE	n/a	LTP067	ltpFR	16	5	n/a	ULCER	1533	5	n/a	n/a	n/a	n/a	n/a	n/a
3315977	RECOG_RESP	n/a	LTP067	ltpFR	16	5	n/a	ULCER	1533	n/a	n/a	n/a	n/a	n/a	n/a	n/a
