onset	duration	trial_type	sample	stim_file	subject	experiment	session	trial	item_name	item_num	list	answer	test_x	test_y	test_z
206.0478515625	n/a	SESS_START	421986	n/a	LTP391	ltpFR2	4	n/a	n/a	n/a	n/a	n/a	0	0	0
218.45947265625	n/a	START	447405	n/a	LTP391	ltpFR2	4	n/a	n/a	n/a	-1	n/a	n/a	n/a	n/a
218.4814453125	n/a	PROB	447450	n/a	LTP391	ltpFR2	4	n/a	n/a	n/a	-1	14	5	3	6
221.24755859375	n/a	PROB	453115	n/a	LTP391	ltpFR2	4	n/a	n/a	n/a	-1	15	5	7	3
222.6591796875	n/a	PROB	456006	n/a	LTP391	ltpFR2	4	n/a	n/a	n/a	-1	15	1	7	7
224.11328125	n/a	PROB	458984	n/a	LTP391	ltpFR2	4	n/a	n/a	n/a	-1	18	3	9	6
225.89208984375	n/a	PROB	462627	n/a	LTP391	ltpFR2	4	n/a	n/a	n/a	-1	22	7	8	7
228.3583984375	n/a	PROB	467678	n/a	LTP391	ltpFR2	4	n/a	n/a	n/a	-1	16	1	9	6
229.71826171875	n/a	STOP	470463	n/a	LTP391	ltpFR2	4	n/a	n/a	n/a	-1	n/a	n/a	n/a	n/a
265.4404296875	n/a	DISTRACTOR	543622	n/a	LTP391	ltpFR2	4	1	n/a	n/a	n/a	n/a	0	0	0
265.4404296875	n/a	START	543622	n/a	LTP391	ltpFR2	4	n/a	n/a	n/a	1	n/a	n/a	n/a	n/a
265.45703125	n/a	PROB	543656	n/a	LTP391	ltpFR2	4	n/a	n/a	n/a	1	15	7	1	7
266.80224609375	n/a	PROB	546411	n/a	LTP391	ltpFR2	4	n/a	n/a	n/a	1	13	1	3	9
269.05712890625	n/a	PROB	551029	n/a	LTP391	ltpFR2	4	n/a	n/a	n/a	1	8	4	1	3
272.68505859375	n/a	PROB	558459	n/a	LTP391	ltpFR2	4	n/a	n/a	n/a	1	19	9	5	5
274.3310546875	n/a	PROB	561830	n/a	LTP391	ltpFR2	4	n/a	n/a	n/a	1	19	5	8	6
276.23583984375	n/a	PROB	565731	n/a	LTP391	ltpFR2	4	n/a	n/a	n/a	1	14	7	5	2
278.36572265625	n/a	PROB	570093	n/a	LTP391	ltpFR2	4	n/a	n/a	n/a	1	13	4	2	7
281.140625	n/a	PROB	575776	n/a	LTP391	ltpFR2	4	n/a	n/a	n/a	1	15	2	9	4
283.07763671875	n/a	PROB	579743	n/a	LTP391	ltpFR2	4	n/a	n/a	n/a	1	16	2	6	8
284.80859375	n/a	PROB	583288	n/a	LTP391	ltpFR2	4	n/a	n/a	n/a	1	6	1	4	1
286.060546875	n/a	PROB	585852	n/a	LTP391	ltpFR2	4	n/a	n/a	n/a	1	19	5	7	7
287.3408203125	n/a	PROB	588474	n/a	LTP391	ltpFR2	4	n/a	n/a	n/a	1	5	8	5	2
288.57470703125	n/a	STOP	591001	n/a	LTP391	ltpFR2	4	n/a	n/a	n/a	1	n/a	n/a	n/a	n/a
290.5908203125	n/a	WORD	595130	wordpools/wasnorm_wordpool_576.txt	LTP391	ltpFR2	4	1	ORANGE	980	n/a	n/a	0	0	0
293.08837890625	n/a	WORD	600245	wordpools/wasnorm_wordpool_576.txt	LTP391	ltpFR2	4	1	HORSE	719	n/a	n/a	0	0	0
295.6962890625	n/a	WORD	605586	wordpools/wasnorm_wordpool_576.txt	LTP391	ltpFR2	4	1	ROBBER	1197	n/a	n/a	0	0	0
298.353515625	n/a	WORD	611028	wordpools/wasnorm_wordpool_576.txt	LTP391	ltpFR2	4	1	CASKET	255	n/a	n/a	0	0	0
300.92529296875	n/a	WORD	616295	wordpools/wasnorm_wordpool_576.txt	LTP391	ltpFR2	4	1	LACE	792	n/a	n/a	0	0	0
303.45849609375	n/a	WORD	621483	wordpools/wasnorm_wordpool_576.txt	LTP391	ltpFR2	4	1	LAKE	796	n/a	n/a	0	0	0
305.97216796875	n/a	WORD	626631	wordpools/wasnorm_wordpool_576.txt	LTP391	ltpFR2	4	1	COUCH	386	n/a	n/a	0	0	0
308.52197265625	n/a	WORD	631853	wordpools/wasnorm_wordpool_576.txt	LTP391	ltpFR2	4	1	ZEBRA	1635	n/a	n/a	0	0	0
311.01904296875	n/a	WORD	636967	wordpools/wasnorm_wordpool_576.txt	LTP391	ltpFR2	4	1	KETCHUP	771	n/a	n/a	0	0	0
313.5849609375	n/a	WORD	642222	wordpools/wasnorm_wordpool_576.txt	LTP391	ltpFR2	4	1	THIEF	1456	n/a	n/a	0	0	0
316.2587890625	n/a	WORD	647698	wordpools/wasnorm_wordpool_576.txt	LTP391	ltpFR2	4	1	RATTLE	1170	n/a	n/a	0	0	0
318.94873046875	n/a	WORD	653207	wordpools/wasnorm_wordpool_576.txt	LTP391	ltpFR2	4	1	FRIEND	606	n/a	n/a	0	0	0
321.37255859375	n/a	WORD	658171	wordpools/wasnorm_wordpool_576.txt	LTP391	ltpFR2	4	1	LOVER	846	n/a	n/a	0	0	0
323.82080078125	n/a	WORD	663185	wordpools/wasnorm_wordpool_576.txt	LTP391	ltpFR2	4	1	CIGAR	308	n/a	n/a	0	0	0
326.54443359375	n/a	WORD	668763	wordpools/wasnorm_wordpool_576.txt	LTP391	ltpFR2	4	1	MAILMAN	858	n/a	n/a	0	0	0
329.1435546875	n/a	WORD	674086	wordpools/wasnorm_wordpool_576.txt	LTP391	ltpFR2	4	1	COD	340	n/a	n/a	0	0	0
331.6083984375	n/a	WORD	679134	wordpools/wasnorm_wordpool_576.txt	LTP391	ltpFR2	4	1	CANAL	226	n/a	n/a	0	0	0
334.37451171875	n/a	WORD	684799	wordpools/wasnorm_wordpool_576.txt	LTP391	ltpFR2	4	1	SWAMP	1416	n/a	n/a	0	0	0
337.140625	n/a	WORD	690464	wordpools/wasnorm_wordpool_576.txt	LTP391	ltpFR2	4	1	STAMP	1370	n/a	n/a	0	0	0
339.83740234375	n/a	WORD	695987	wordpools/wasnorm_wordpool_576.txt	LTP391	ltpFR2	4	1	OFFICE	972	n/a	n/a	0	0	0
342.42041015625	n/a	WORD	701277	wordpools/wasnorm_wordpool_576.txt	LTP391	ltpFR2	4	1	TRIBE	1505	n/a	n/a	0	0	0
345.04296875	n/a	WORD	706648	wordpools/wasnorm_wordpool_576.txt	LTP391	ltpFR2	4	1	SUSPECT	1415	n/a	n/a	0	0	0
347.68505859375	n/a	WORD	712059	wordpools/wasnorm_wordpool_576.txt	LTP391	ltpFR2	4	1	SHIRT	1287	n/a	n/a	0	0	0
350.13330078125	n/a	WORD	717073	wordpools/wasnorm_wordpool_576.txt	LTP391	ltpFR2	4	1	CASHEW	253	n/a	n/a	0	0	0
351.73681640625	n/a	START	720357	n/a	LTP391	ltpFR2	4	n/a	n/a	n/a	2	n/a	n/a	n/a	n/a
352.7412109375	n/a	DISTRACTOR	722414	n/a	LTP391	ltpFR2	4	1	n/a	n/a	n/a	n/a	0	0	0
352.748046875	n/a	PROB	722428	n/a	LTP391	ltpFR2	4	n/a	n/a	n/a	2	12	4	1	7
355.296875	n/a	PROB	727648	n/a	LTP391	ltpFR2	4	n/a	n/a	n/a	2	14	5	5	4
357.31005859375	n/a	PROB	731771	n/a	LTP391	ltpFR2	4	n/a	n/a	n/a	2	15	7	3	5
358.888671875	n/a	PROB	735004	n/a	LTP391	ltpFR2	4	n/a	n/a	n/a	2	18	5	8	5
360.24267578125	n/a	PROB	737777	n/a	LTP391	ltpFR2	4	n/a	n/a	n/a	2	10	1	3	6
361.763671875	n/a	PROB	740892	n/a	LTP391	ltpFR2	4	n/a	n/a	n/a	2	23	6	8	9
364.14453125	n/a	PROB	745768	n/a	LTP391	ltpFR2	4	n/a	n/a	n/a	2	21	8	8	5
366.35986328125	n/a	PROB	750305	n/a	LTP391	ltpFR2	4	n/a	n/a	n/a	2	18	8	8	2
367.96240234375	n/a	PROB	753587	n/a	LTP391	ltpFR2	4	n/a	n/a	n/a	2	20	4	9	7
369.9267578125	n/a	PROB	757610	n/a	LTP391	ltpFR2	4	n/a	n/a	n/a	2	21	8	8	5
372.45947265625	n/a	PROB	762797	n/a	LTP391	ltpFR2	4	n/a	n/a	n/a	2	19	3	7	9
373.71240234375	n/a	PROB	765363	n/a	LTP391	ltpFR2	4	n/a	n/a	n/a	2	18	4	9	5
375.11962890625	n/a	STOP	768245	n/a	LTP391	ltpFR2	4	n/a	n/a	n/a	2	n/a	n/a	n/a	n/a
377.4892578125	n/a	REC_START	773098	n/a	LTP391	ltpFR2	4	1	n/a	n/a	n/a	n/a	0	0	0
378.203125	n/a	REC_WORD	774560	wordpools/wasnorm_wordpool_576.txt	LTP391	ltpFR2	4	1	ORANGE	980	n/a	n/a	0	0	0
378.896484375	n/a	REC_WORD	775980	wordpools/wasnorm_wordpool_576.txt	LTP391	ltpFR2	4	1	HORSE	719	n/a	n/a	0	0	0
379.59423828125	n/a	REC_WORD	777409	wordpools/wasnorm_wordpool_576.txt	LTP391	ltpFR2	4	1	SWAMP	1416	n/a	n/a	0	0	0
380.4892578125	n/a	REC_WORD	779242	wordpools/wasnorm_wordpool_576.txt	LTP391	ltpFR2	4	1	LAKE	796	n/a	n/a	0	0	0
381.17724609375	n/a	REC_WORD	780651	wordpools/wasnorm_wordpool_576.txt	LTP391	ltpFR2	4	1	CANAL	226	n/a	n/a	0	0	0
382.05419921875	n/a	REC_WORD	782447	wordpools/wasnorm_wordpool_576.txt	LTP391	ltpFR2	4	1	RATTLE	1170	n/a	n/a	0	0	0
382.71337890625	n/a	REC_WORD	783797	wordpools/wasnorm_wordpool_576.txt	LTP391	ltpFR2	4	1	CASKET	255	n/a	n/a	0	0	0
383.43212890625	n/a	REC_WORD	785269	wordpools/wasnorm_wordpool_576.txt	LTP391	ltpFR2	4	1	LACE	792	n/a	n/a	0	0	0
384.4052734375	n/a	REC_WORD	787262	wordpools/wasnorm_wordpool_576.txt	LTP391	ltpFR2	4	1	ROBBER	1197	n/a	n/a	0	0	0
385.01416015625	n/a	REC_WORD	788509	wordpools/wasnorm_wordpool_576.txt	LTP391	ltpFR2	4	1	THIEF	1456	n/a	n/a	0	0	0
385.59130859375	n/a	REC_WORD	789691	wordpools/wasnorm_wordpool_576.txt	LTP391	ltpFR2	4	1	SUSPECT	1415	n/a	n/a	0	0	0
387.01025390625	n/a	REC_WORD	792597	wordpools/wasnorm_wordpool_576.txt	LTP391	ltpFR2	4	1	SHIRT	1287	n/a	n/a	0	0	0
388.77099609375	n/a	REC_WORD	796203	wordpools/wasnorm_wordpool_576.txt	LTP391	ltpFR2	4	1	COD	340	n/a	n/a	0	0	0
392.087890625	n/a	REC_WORD	802996	wordpools/wasnorm_wordpool_576.txt	LTP391	ltpFR2	4	1	MAILMAN	858	n/a	n/a	0	0	0
392.671875	n/a	REC_WORD	804192	wordpools/wasnorm_wordpool_576.txt	LTP391	ltpFR2	4	1	STAMP	1370	n/a	n/a	0	0	0
402.177734375	n/a	REC_WORD	823660	wordpools/wasnorm_wordpool_576.txt	LTP391	ltpFR2	4	1	CASHEW	253	n/a	n/a	0	0	0
409.603515625	n/a	REC_WORD	838868	wordpools/wasnorm_wordpool_576.txt	LTP391	ltpFR2	4	1	FRIEND	606	n/a	n/a	0	0	0
410.24755859375	n/a	REC_WORD	840187	wordpools/wasnorm_wordpool_576.txt	LTP391	ltpFR2	4	1	LOVER	846	n/a	n/a	0	0	0
424.9013671875	n/a	REC_WORD	870198	wordpools/wasnorm_wordpool_576.txt	LTP391	ltpFR2	4	1	ZEBRA	1635	n/a	n/a	0	0	0
428.30517578125	n/a	REC_WORD	877169	wordpools/wasnorm_wordpool_576.txt	LTP391	ltpFR2	4	1	COD	340	n/a	n/a	0	0	0
467.9208984375	n/a	WORD	958302	wordpools/wasnorm_wordpool_576.txt	LTP391	ltpFR2	4	2	PADDING	999	n/a	n/a	0	0	0
470.537109375	n/a	WORD	963660	wordpools/wasnorm_wordpool_576.txt	LTP391	ltpFR2	4	2	GROUND	666	n/a	n/a	0	0	0
473.302734375	n/a	WORD	969324	wordpools/wasnorm_wordpool_576.txt	LTP391	ltpFR2	4	2	LEOPARD	812	n/a	n/a	0	0	0
475.99267578125	n/a	WORD	974833	wordpools/wasnorm_wordpool_576.txt	LTP391	ltpFR2	4	2	CASHIER	254	n/a	n/a	0	0	0
478.55859375	n/a	WORD	980088	wordpools/wasnorm_wordpool_576.txt	LTP391	ltpFR2	4	2	POSSUM	1112	n/a	n/a	0	0	0
481.15771484375	n/a	WORD	985411	wordpools/wasnorm_wordpool_576.txt	LTP391	ltpFR2	4	2	FOX	598	n/a	n/a	0	0	0
483.5966796875	n/a	WORD	990406	wordpools/wasnorm_wordpool_576.txt	LTP391	ltpFR2	4	2	WIDOW	1608	n/a	n/a	0	0	0
486.25439453125	n/a	WORD	995849	wordpools/wasnorm_wordpool_576.txt	LTP391	ltpFR2	4	2	NOMAD	955	n/a	n/a	0	0	0
488.83544921875	n/a	WORD	1001135	wordpools/wasnorm_wordpool_576.txt	LTP391	ltpFR2	4	2	CLAMP	316	n/a	n/a	0	0	0
491.36767578125	n/a	WORD	1006321	wordpools/wasnorm_wordpool_576.txt	LTP391	ltpFR2	4	2	XEROX	1628	n/a	n/a	0	0	0
493.88232421875	n/a	WORD	1011471	wordpools/wasnorm_wordpool_576.txt	LTP391	ltpFR2	4	2	CRICKET	408	n/a	n/a	0	0	0
496.6572265625	n/a	WORD	1017154	wordpools/wasnorm_wordpool_576.txt	LTP391	ltpFR2	4	2	NURSE	963	n/a	n/a	0	0	0
499.3974609375	n/a	WORD	1022766	wordpools/wasnorm_wordpool_576.txt	LTP391	ltpFR2	4	2	TRENCH	1503	n/a	n/a	0	0	0
502.1630859375	n/a	WORD	1028430	wordpools/wasnorm_wordpool_576.txt	LTP391	ltpFR2	4	2	SHORTCAKE	1292	n/a	n/a	0	0	0
504.9033203125	n/a	WORD	1034042	wordpools/wasnorm_wordpool_576.txt	LTP391	ltpFR2	4	2	LIZARD	834	n/a	n/a	0	0	0
507.65283203125	n/a	WORD	1039673	wordpools/wasnorm_wordpool_576.txt	LTP391	ltpFR2	4	2	BUG	187	n/a	n/a	0	0	0
510.22705078125	n/a	WORD	1044945	wordpools/wasnorm_wordpool_576.txt	LTP391	ltpFR2	4	2	SCISSORS	1250	n/a	n/a	0	0	0
512.68310546875	n/a	WORD	1049975	wordpools/wasnorm_wordpool_576.txt	LTP391	ltpFR2	4	2	HOSTESS	723	n/a	n/a	0	0	0
515.28173828125	n/a	WORD	1055297	wordpools/wasnorm_wordpool_576.txt	LTP391	ltpFR2	4	2	RACKET	1155	n/a	n/a	0	0	0
517.87060546875	n/a	WORD	1060599	wordpools/wasnorm_wordpool_576.txt	LTP391	ltpFR2	4	2	TUTU	1524	n/a	n/a	0	0	0
520.40380859375	n/a	WORD	1065787	wordpools/wasnorm_wordpool_576.txt	LTP391	ltpFR2	4	2	DANCER	437	n/a	n/a	0	0	0
523.16064453125	n/a	WORD	1071433	wordpools/wasnorm_wordpool_576.txt	LTP391	ltpFR2	4	2	BANQUET	86	n/a	n/a	0	0	0
525.8095703125	n/a	WORD	1076858	wordpools/wasnorm_wordpool_576.txt	LTP391	ltpFR2	4	2	ICING	732	n/a	n/a	0	0	0
528.50048828125	n/a	WORD	1082369	wordpools/wasnorm_wordpool_576.txt	LTP391	ltpFR2	4	2	FOREHEAD	592	n/a	n/a	0	0	0
530.1044921875	n/a	START	1085654	n/a	LTP391	ltpFR2	4	n/a	n/a	n/a	3	n/a	n/a	n/a	n/a
531.265625	n/a	DISTRACTOR	1088032	n/a	LTP391	ltpFR2	4	2	n/a	n/a	n/a	n/a	0	0	0
531.2744140625	n/a	PROB	1088050	n/a	LTP391	ltpFR2	4	n/a	n/a	n/a	3	19	8	9	2
533.78125	n/a	PROB	1093184	n/a	LTP391	ltpFR2	4	n/a	n/a	n/a	3	15	5	8	2
535.08349609375	n/a	PROB	1095851	n/a	LTP391	ltpFR2	4	n/a	n/a	n/a	3	16	9	6	1
536.521484375	n/a	PROB	1098796	n/a	LTP391	ltpFR2	4	n/a	n/a	n/a	3	14	6	6	2
538.96044921875	n/a	PROB	1103791	n/a	LTP391	ltpFR2	4	n/a	n/a	n/a	3	20	3	9	8
541.1591796875	n/a	PROB	1108294	n/a	LTP391	ltpFR2	4	n/a	n/a	n/a	3	17	5	4	8
542.73828125	n/a	PROB	1111528	n/a	LTP391	ltpFR2	4	n/a	n/a	n/a	3	19	1	9	9
543.98193359375	n/a	PROB	1114075	n/a	LTP391	ltpFR2	4	n/a	n/a	n/a	3	13	7	3	3
545.5458984375	n/a	PROB	1117278	n/a	LTP391	ltpFR2	4	n/a	n/a	n/a	3	8	2	5	1
547.22509765625	n/a	PROB	1120717	n/a	LTP391	ltpFR2	4	n/a	n/a	n/a	3	25	9	7	9
549.037109375	n/a	PROB	1124428	n/a	LTP391	ltpFR2	4	n/a	n/a	n/a	3	16	8	1	7
551.453125	n/a	PROB	1129376	n/a	LTP391	ltpFR2	4	n/a	n/a	n/a	3	17	9	3	5
553.0078125	n/a	STOP	1132560	n/a	LTP391	ltpFR2	4	n/a	n/a	n/a	3	n/a	n/a	n/a	n/a
556.02294921875	n/a	REC_START	1138735	n/a	LTP391	ltpFR2	4	2	n/a	n/a	n/a	n/a	0	0	0
556.93798828125	n/a	REC_WORD	1140609	wordpools/wasnorm_wordpool_576.txt	LTP391	ltpFR2	4	2	PADDING	999	n/a	n/a	0	0	0
558.03173828125	n/a	REC_WORD	1142849	wordpools/wasnorm_wordpool_576.txt	LTP391	ltpFR2	4	2	LEOPARD	812	n/a	n/a	0	0	0
559.78759765625	n/a	REC_WORD	1146445	wordpools/wasnorm_wordpool_576.txt	LTP391	ltpFR2	4	2	GROUND	666	n/a	n/a	0	0	0
563.220703125	n/a	REC_WORD	1153476	wordpools/wasnorm_wordpool_576.txt	LTP391	ltpFR2	4	2	LIZARD	834	n/a	n/a	0	0	0
565.5556640625	n/a	REC_WORD	1158258	wordpools/wasnorm_wordpool_576.txt	LTP391	ltpFR2	4	2	TUTU	1524	n/a	n/a	0	0	0
566.32568359375	n/a	REC_WORD	1159835	wordpools/wasnorm_wordpool_576.txt	LTP391	ltpFR2	4	2	DANCER	437	n/a	n/a	0	0	0
567.0234375	n/a	REC_WORD	1161264	wordpools/wasnorm_wordpool_576.txt	LTP391	ltpFR2	4	2	BANQUET	86	n/a	n/a	0	0	0
568.92431640625	n/a	REC_WORD	1165157	wordpools/wasnorm_wordpool_576.txt	LTP391	ltpFR2	4	2	SHORTCAKE	1292	n/a	n/a	0	0	0
569.7392578125	n/a	REC_WORD	1166826	wordpools/wasnorm_wordpool_576.txt	LTP391	ltpFR2	4	2	ICING	732	n/a	n/a	0	0	0
571.33837890625	n/a	REC_WORD	1170101	wordpools/wasnorm_wordpool_576.txt	LTP391	ltpFR2	4	2	NURSE	963	n/a	n/a	0	0	0
572.83740234375	n/a	REC_WORD	1173171	wordpools/wasnorm_wordpool_576.txt	LTP391	ltpFR2	4	2	HOSTESS	723	n/a	n/a	0	0	0
573.54638671875	n/a	REC_WORD	1174623	wordpools/wasnorm_wordpool_576.txt	LTP391	ltpFR2	4	2	CASHIER	254	n/a	n/a	0	0	0
574.53515625	n/a	REC_WORD	1176648	wordpools/wasnorm_wordpool_576.txt	LTP391	ltpFR2	4	2	WIDOW	1608	n/a	n/a	0	0	0
576.353515625	n/a	REC_WORD	1180372	wordpools/wasnorm_wordpool_576.txt	LTP391	ltpFR2	4	2	SCISSORS	1250	n/a	n/a	0	0	0
577.28515625	n/a	REC_WORD	1182280	wordpools/wasnorm_wordpool_576.txt	LTP391	ltpFR2	4	2	RACKET	1155	n/a	n/a	0	0	0
592.513671875	n/a	REC_WORD	1213468	wordpools/wasnorm_wordpool_576.txt	LTP391	ltpFR2	4	2	FOREHEAD	592	n/a	n/a	0	0	0
599.61669921875	n/a	REC_WORD	1228015	wordpools/wasnorm_wordpool_576.txt	LTP391	ltpFR2	4	2	CRICKET	408	n/a	n/a	0	0	0
611.46435546875	n/a	REC_WORD	1252279	wordpools/wasnorm_wordpool_576.txt	LTP391	ltpFR2	4	2	CLAMP	316	n/a	n/a	0	0	0
622.93896484375	n/a	REC_WORD	1275779	wordpools/wasnorm_wordpool_576.txt	LTP391	ltpFR2	4	2	NOMAD	955	n/a	n/a	0	0	0
646.45654296875	n/a	WORD	1323943	wordpools/wasnorm_wordpool_576.txt	LTP391	ltpFR2	4	3	SUMMIT	1405	n/a	n/a	0	0	0
649.11328125	n/a	WORD	1329384	wordpools/wasnorm_wordpool_576.txt	LTP391	ltpFR2	4	3	HIKER	708	n/a	n/a	0	0	0
651.7705078125	n/a	WORD	1334826	wordpools/wasnorm_wordpool_576.txt	LTP391	ltpFR2	4	3	BATHTUB	100	n/a	n/a	0	0	0
654.5361328125	n/a	WORD	1340490	wordpools/wasnorm_wordpool_576.txt	LTP391	ltpFR2	4	3	PILOT	1070	n/a	n/a	0	0	0
657.16845703125	n/a	WORD	1345881	wordpools/wasnorm_wordpool_576.txt	LTP391	ltpFR2	4	3	NAPKIN	937	n/a	n/a	0	0	0
659.6923828125	n/a	WORD	1351050	wordpools/wasnorm_wordpool_576.txt	LTP391	ltpFR2	4	3	HOOD	714	n/a	n/a	0	0	0
662.39892578125	n/a	WORD	1356593	wordpools/wasnorm_wordpool_576.txt	LTP391	ltpFR2	4	3	PEDAL	1037	n/a	n/a	0	0	0
664.89599609375	n/a	WORD	1361707	wordpools/wasnorm_wordpool_576.txt	LTP391	ltpFR2	4	3	FLIPPER	580	n/a	n/a	0	0	0
667.32080078125	n/a	WORD	1366673	wordpools/wasnorm_wordpool_576.txt	LTP391	ltpFR2	4	3	PROTON	1132	n/a	n/a	0	0	0
670.0771484375	n/a	WORD	1372318	wordpools/wasnorm_wordpool_576.txt	LTP391	ltpFR2	4	3	CRAB	397	n/a	n/a	0	0	0
672.65087890625	n/a	WORD	1377589	wordpools/wasnorm_wordpool_576.txt	LTP391	ltpFR2	4	3	TART	1436	n/a	n/a	0	0	0
675.25	n/a	WORD	1382912	wordpools/wasnorm_wordpool_576.txt	LTP391	ltpFR2	4	3	BURGLAR	200	n/a	n/a	0	0	0
677.93994140625	n/a	WORD	1388421	wordpools/wasnorm_wordpool_576.txt	LTP391	ltpFR2	4	3	PLUTO	1092	n/a	n/a	0	0	0
680.36376953125	n/a	WORD	1393385	wordpools/wasnorm_wordpool_576.txt	LTP391	ltpFR2	4	3	MARS	873	n/a	n/a	0	0	0
683.07861328125	n/a	WORD	1398945	wordpools/wasnorm_wordpool_576.txt	LTP391	ltpFR2	4	3	GALLON	618	n/a	n/a	0	0	0
685.76953125	n/a	WORD	1404456	wordpools/wasnorm_wordpool_576.txt	LTP391	ltpFR2	4	3	BUBBLE	183	n/a	n/a	0	0	0
688.37646484375	n/a	WORD	1409795	wordpools/wasnorm_wordpool_576.txt	LTP391	ltpFR2	4	3	ATOM	55	n/a	n/a	0	0	0
690.87451171875	n/a	WORD	1414911	wordpools/wasnorm_wordpool_576.txt	LTP391	ltpFR2	4	3	SKILLET	1317	n/a	n/a	0	0	0
693.50732421875	n/a	WORD	1420303	wordpools/wasnorm_wordpool_576.txt	LTP391	ltpFR2	4	3	MILK	895	n/a	n/a	0	0	0
696.05419921875	n/a	WORD	1425519	wordpools/wasnorm_wordpool_576.txt	LTP391	ltpFR2	4	3	LAGOON	795	n/a	n/a	0	0	0
698.662109375	n/a	WORD	1430860	wordpools/wasnorm_wordpool_576.txt	LTP391	ltpFR2	4	3	CONVICT	371	n/a	n/a	0	0	0
701.26904296875	n/a	WORD	1436199	wordpools/wasnorm_wordpool_576.txt	LTP391	ltpFR2	4	3	SCARECROW	1245	n/a	n/a	0	0	0
703.73388671875	n/a	WORD	1441247	wordpools/wasnorm_wordpool_576.txt	LTP391	ltpFR2	4	3	MISSILE	900	n/a	n/a	0	0	0
706.19921875	n/a	WORD	1446296	wordpools/wasnorm_wordpool_576.txt	LTP391	ltpFR2	4	3	REBEL	1172	n/a	n/a	0	0	0
707.8037109375	n/a	START	1449582	n/a	LTP391	ltpFR2	4	n/a	n/a	n/a	4	n/a	n/a	n/a	n/a
708.9951171875	n/a	DISTRACTOR	1452022	n/a	LTP391	ltpFR2	4	3	n/a	n/a	n/a	n/a	0	0	0
708.9970703125	n/a	PROB	1452026	n/a	LTP391	ltpFR2	4	n/a	n/a	n/a	4	14	5	2	7
710.90283203125	n/a	PROB	1455929	n/a	LTP391	ltpFR2	4	n/a	n/a	n/a	4	13	2	3	8
712.4580078125	n/a	PROB	1459114	n/a	LTP391	ltpFR2	4	n/a	n/a	n/a	4	17	5	8	4
714.5126953125	n/a	PROB	1463322	n/a	LTP391	ltpFR2	4	n/a	n/a	n/a	4	19	4	8	7
716.626953125	n/a	PROB	1467652	n/a	LTP391	ltpFR2	4	n/a	n/a	n/a	4	9	5	1	3
718.12255859375	n/a	PROB	1470715	n/a	LTP391	ltpFR2	4	n/a	n/a	n/a	4	9	2	1	6
719.65185546875	n/a	PROB	1473847	n/a	LTP391	ltpFR2	4	n/a	n/a	n/a	4	19	9	6	4
721.08740234375	n/a	PROB	1476787	n/a	LTP391	ltpFR2	4	n/a	n/a	n/a	4	16	7	6	3
722.5927734375	n/a	PROB	1479870	n/a	LTP391	ltpFR2	4	n/a	n/a	n/a	4	11	3	6	2
724.48974609375	n/a	PROB	1483755	n/a	LTP391	ltpFR2	4	n/a	n/a	n/a	4	16	7	3	6
725.75146484375	n/a	PROB	1486339	n/a	LTP391	ltpFR2	4	n/a	n/a	n/a	4	16	8	6	2
727.49755859375	n/a	PROB	1489915	n/a	LTP391	ltpFR2	4	n/a	n/a	n/a	4	22	7	9	6
730.04541015625	n/a	PROB	1495133	n/a	LTP391	ltpFR2	4	n/a	n/a	n/a	4	17	4	5	8
731.6494140625	n/a	STOP	1498418	n/a	LTP391	ltpFR2	4	n/a	n/a	n/a	4	n/a	n/a	n/a	n/a
733.6142578125	n/a	REC_START	1502442	n/a	LTP391	ltpFR2	4	3	n/a	n/a	n/a	n/a	0	0	0
734.09912109375	n/a	REC_WORD	1503435	wordpools/wasnorm_wordpool_576.txt	LTP391	ltpFR2	4	3	BURGLAR	200	n/a	n/a	0	0	0
734.736328125	n/a	REC_WORD	1504740	wordpools/wasnorm_wordpool_576.txt	LTP391	ltpFR2	4	3	CONVICT	371	n/a	n/a	0	0	0
736.08935546875	n/a	REC_WORD	1507511	wordpools/wasnorm_wordpool_576.txt	LTP391	ltpFR2	4	3	REBEL	1172	n/a	n/a	0	0	0
738.05029296875	n/a	REC_WORD	1511527	wordpools/wasnorm_wordpool_576.txt	LTP391	ltpFR2	4	3	SUMMIT	1405	n/a	n/a	0	0	0
738.63818359375	n/a	REC_WORD	1512731	wordpools/wasnorm_wordpool_576.txt	LTP391	ltpFR2	4	3	HIKER	708	n/a	n/a	0	0	0
739.80615234375	n/a	REC_WORD	1515123	wordpools/wasnorm_wordpool_576.txt	LTP391	ltpFR2	4	3	HOOD	714	n/a	n/a	0	0	0
741.92626953125	n/a	REC_WORD	1519465	wordpools/wasnorm_wordpool_576.txt	LTP391	ltpFR2	4	3	BATHTUB	100	n/a	n/a	0	0	0
743.05517578125	n/a	REC_WORD	1521777	wordpools/wasnorm_wordpool_576.txt	LTP391	ltpFR2	4	3	BUBBLE	183	n/a	n/a	0	0	0
744.197265625	n/a	REC_WORD	1524116	wordpools/wasnorm_wordpool_576.txt	LTP391	ltpFR2	4	3	GALLON	618	n/a	n/a	0	0	0
745.1630859375	n/a	REC_WORD	1526094	wordpools/wasnorm_wordpool_576.txt	LTP391	ltpFR2	4	3	LAGOON	795	n/a	n/a	0	0	0
748.4228515625	n/a	REC_WORD	1532770	wordpools/wasnorm_wordpool_576.txt	LTP391	ltpFR2	4	3	MISSILE	900	n/a	n/a	0	0	0
749.27001953125	n/a	REC_WORD	1534505	wordpools/wasnorm_wordpool_576.txt	LTP391	ltpFR2	4	3	PEDAL	1037	n/a	n/a	0	0	0
751.0419921875	n/a	REC_WORD	1538134	wordpools/wasnorm_wordpool_576.txt	LTP391	ltpFR2	4	3	PILOT	1070	n/a	n/a	0	0	0
774.7373046875	n/a	REC_WORD	1586662	wordpools/wasnorm_wordpool_576.txt	LTP391	ltpFR2	4	3	CRAB	397	n/a	n/a	0	0	0
775.39404296875	n/a	REC_WORD	1588007	wordpools/wasnorm_wordpool_576.txt	LTP391	ltpFR2	4	3	FLIPPER	580	n/a	n/a	0	0	0
795.005859375	n/a	REC_WORD	1628172	wordpools/wasnorm_wordpool_576.txt	LTP391	ltpFR2	4	3	MILK	895	n/a	n/a	0	0	0
795.53759765625	n/a	REC_WORD	1629261	wordpools/wasnorm_wordpool_576.txt	LTP391	ltpFR2	4	3	SKILLET	1317	n/a	n/a	0	0	0
824.06298828125	n/a	WORD	1687681	wordpools/wasnorm_wordpool_576.txt	LTP391	ltpFR2	4	4	SMOG	1330	n/a	n/a	0	0	0
826.64501953125	n/a	WORD	1692969	wordpools/wasnorm_wordpool_576.txt	LTP391	ltpFR2	4	4	OZONE	996	n/a	n/a	0	0	0
829.083984375	n/a	WORD	1697964	wordpools/wasnorm_wordpool_576.txt	LTP391	ltpFR2	4	4	CARROT	249	n/a	n/a	0	0	0
831.52490234375	n/a	WORD	1702963	wordpools/wasnorm_wordpool_576.txt	LTP391	ltpFR2	4	4	WINDOW	1611	n/a	n/a	0	0	0
833.99755859375	n/a	WORD	1708027	wordpools/wasnorm_wordpool_576.txt	LTP391	ltpFR2	4	4	EAGLE	512	n/a	n/a	0	0	0
836.69775390625	n/a	WORD	1713557	wordpools/wasnorm_wordpool_576.txt	LTP391	ltpFR2	4	4	KEEPER	769	n/a	n/a	0	0	0
839.220703125	n/a	WORD	1718724	wordpools/wasnorm_wordpool_576.txt	LTP391	ltpFR2	4	4	SHELF	1280	n/a	n/a	0	0	0
841.9013671875	n/a	WORD	1724214	wordpools/wasnorm_wordpool_576.txt	LTP391	ltpFR2	4	4	FRUIT	610	n/a	n/a	0	0	0
844.4345703125	n/a	WORD	1729402	wordpools/wasnorm_wordpool_576.txt	LTP391	ltpFR2	4	4	LETTUCE	814	n/a	n/a	0	0	0
847.2001953125	n/a	WORD	1735066	wordpools/wasnorm_wordpool_576.txt	LTP391	ltpFR2	4	4	CABBAGE	210	n/a	n/a	0	0	0
849.8984375	n/a	WORD	1740592	wordpools/wasnorm_wordpool_576.txt	LTP391	ltpFR2	4	4	RABBIT	1152	n/a	n/a	0	0	0
852.4892578125	n/a	WORD	1745898	wordpools/wasnorm_wordpool_576.txt	LTP391	ltpFR2	4	4	JAPAN	749	n/a	n/a	0	0	0
855.18798828125	n/a	WORD	1751425	wordpools/wasnorm_wordpool_576.txt	LTP391	ltpFR2	4	4	GRAPE	654	n/a	n/a	0	0	0
857.6611328125	n/a	WORD	1756490	wordpools/wasnorm_wordpool_576.txt	LTP391	ltpFR2	4	4	FLASHLIGHT	575	n/a	n/a	0	0	0
860.26025390625	n/a	WORD	1761813	wordpools/wasnorm_wordpool_576.txt	LTP391	ltpFR2	4	4	MATCH	878	n/a	n/a	0	0	0
862.89111328125	n/a	WORD	1767201	wordpools/wasnorm_wordpool_576.txt	LTP391	ltpFR2	4	4	EGYPT	519	n/a	n/a	0	0	0
865.4990234375	n/a	WORD	1772542	wordpools/wasnorm_wordpool_576.txt	LTP391	ltpFR2	4	4	BOX	159	n/a	n/a	0	0	0
867.970703125	n/a	WORD	1777604	wordpools/wasnorm_wordpool_576.txt	LTP391	ltpFR2	4	4	MASK	876	n/a	n/a	0	0	0
870.77978515625	n/a	WORD	1783357	wordpools/wasnorm_wordpool_576.txt	LTP391	ltpFR2	4	4	DAUGHTER	442	n/a	n/a	0	0	0
873.3115234375	n/a	WORD	1788542	wordpools/wasnorm_wordpool_576.txt	LTP391	ltpFR2	4	4	TWEEZERS	1526	n/a	n/a	0	0	0
875.767578125	n/a	WORD	1793572	wordpools/wasnorm_wordpool_576.txt	LTP391	ltpFR2	4	4	UNCLE	1536	n/a	n/a	0	0	0
878.36669921875	n/a	WORD	1798895	wordpools/wasnorm_wordpool_576.txt	LTP391	ltpFR2	4	4	AIRPORT	13	n/a	n/a	0	0	0
881.03173828125	n/a	WORD	1804353	wordpools/wasnorm_wordpool_576.txt	LTP391	ltpFR2	4	4	COUNTY	389	n/a	n/a	0	0	0
883.6552734375	n/a	WORD	1809726	wordpools/wasnorm_wordpool_576.txt	LTP391	ltpFR2	4	4	COOK	372	n/a	n/a	0	0	0
885.26025390625	n/a	START	1813013	n/a	LTP391	ltpFR2	4	n/a	n/a	n/a	5	n/a	n/a	n/a	n/a
886.3134765625	n/a	DISTRACTOR	1815170	n/a	LTP391	ltpFR2	4	4	n/a	n/a	n/a	n/a	0	0	0
886.3212890625	n/a	PROB	1815186	n/a	LTP391	ltpFR2	4	n/a	n/a	n/a	5	13	4	3	6
888.7861328125	n/a	PROB	1820234	n/a	LTP391	ltpFR2	4	n/a	n/a	n/a	5	14	1	8	5
890.28125	n/a	PROB	1823296	n/a	LTP391	ltpFR2	4	n/a	n/a	n/a	5	12	1	8	3
892.2451171875	n/a	PROB	1827318	n/a	LTP391	ltpFR2	4	n/a	n/a	n/a	5	13	5	7	1
894.04931640625	n/a	PROB	1831013	n/a	LTP391	ltpFR2	4	n/a	n/a	n/a	5	19	5	9	5
895.31201171875	n/a	PROB	1833599	n/a	LTP391	ltpFR2	4	n/a	n/a	n/a	5	12	5	1	6
897.05712890625	n/a	PROB	1837173	n/a	LTP391	ltpFR2	4	n/a	n/a	n/a	5	12	3	2	7
899.1298828125	n/a	PROB	1841418	n/a	LTP391	ltpFR2	4	n/a	n/a	n/a	5	17	9	4	4
903.19091796875	n/a	PROB	1849735	n/a	LTP391	ltpFR2	4	n/a	n/a	n/a	5	17	8	3	6
904.927734375	n/a	PROB	1853292	n/a	LTP391	ltpFR2	4	n/a	n/a	n/a	5	17	8	6	3
906.4169921875	n/a	PROB	1856342	n/a	LTP391	ltpFR2	4	n/a	n/a	n/a	5	22	6	9	7
908.291015625	n/a	STOP	1860180	n/a	LTP391	ltpFR2	4	n/a	n/a	n/a	5	n/a	n/a	n/a	n/a
911.095703125	n/a	REC_START	1865924	n/a	LTP391	ltpFR2	4	4	n/a	n/a	n/a	n/a	0	0	0
911.78076171875	n/a	REC_WORD	1867327	wordpools/wasnorm_wordpool_576.txt	LTP391	ltpFR2	4	4	DAUGHTER	442	n/a	n/a	0	0	0
912.45849609375	n/a	REC_WORD	1868715	wordpools/wasnorm_wordpool_576.txt	LTP391	ltpFR2	4	4	UNCLE	1536	n/a	n/a	0	0	0
913.04150390625	n/a	REC_WORD	1869909	wordpools/wasnorm_wordpool_576.txt	LTP391	ltpFR2	4	4	COUNTRY	388	n/a	n/a	0	0	0
913.7265625	n/a	REC_WORD	1871312	wordpools/wasnorm_wordpool_576.txt	LTP391	ltpFR2	4	4	EGYPT	519	n/a	n/a	0	0	0
914.177734375	n/a	REC_WORD	1872236	wordpools/wasnorm_wordpool_576.txt	LTP391	ltpFR2	4	4	JAPAN	749	n/a	n/a	0	0	0
916.41357421875	n/a	REC_WORD	1876815	wordpools/wasnorm_wordpool_576.txt	LTP391	ltpFR2	4	4	SMOG	1330	n/a	n/a	0	0	0
917.2646484375	n/a	REC_WORD	1878558	wordpools/wasnorm_wordpool_576.txt	LTP391	ltpFR2	4	4	OZONE	996	n/a	n/a	0	0	0
920.08935546875	n/a	REC_WORD	1884343	wordpools/wasnorm_wordpool_576.txt	LTP391	ltpFR2	4	4	KEEPER	769	n/a	n/a	0	0	0
926.9013671875	n/a	REC_WORD	1898294	wordpools/wasnorm_wordpool_576.txt	LTP391	ltpFR2	4	4	FRUIT	610	n/a	n/a	0	0	0
927.6044921875	n/a	REC_WORD	1899734	wordpools/wasnorm_wordpool_576.txt	LTP391	ltpFR2	4	4	GRAPE	654	n/a	n/a	0	0	0
928.16748046875	n/a	REC_WORD	1900887	wordpools/wasnorm_wordpool_576.txt	LTP391	ltpFR2	4	4	RABBIT	1152	n/a	n/a	0	0	0
928.984375	n/a	REC_WORD	1902560	wordpools/wasnorm_wordpool_576.txt	LTP391	ltpFR2	4	4	CARROT	249	n/a	n/a	0	0	0
929.75048828125	n/a	REC_WORD	1904129	wordpools/wasnorm_wordpool_576.txt	LTP391	ltpFR2	4	4	CABBAGE	210	n/a	n/a	0	0	0
930.34912109375	n/a	REC_WORD	1905355	wordpools/wasnorm_wordpool_576.txt	LTP391	ltpFR2	4	4	LETTUCE	814	n/a	n/a	0	0	0
937.13134765625	n/a	REC_WORD	1919245	wordpools/wasnorm_wordpool_576.txt	LTP391	ltpFR2	4	4	WINDOW	1611	n/a	n/a	0	0	0
949.583984375	n/a	REC_WORD	1944748	wordpools/wasnorm_wordpool_576.txt	LTP391	ltpFR2	4	4	AIRPORT	13	n/a	n/a	0	0	0
964.49951171875	n/a	REC_WORD	1975295	wordpools/wasnorm_wordpool_576.txt	LTP391	ltpFR2	4	4	GRAPE	654	n/a	n/a	0	0	0
1001.5283203125	n/a	WORD	2051130	wordpools/wasnorm_wordpool_576.txt	LTP391	ltpFR2	4	5	ISLAND	745	n/a	n/a	0	0	0
1004.2275390625	n/a	WORD	2056658	wordpools/wasnorm_wordpool_576.txt	LTP391	ltpFR2	4	5	FEMALE	559	n/a	n/a	0	0	0
1006.76708984375	n/a	WORD	2061859	wordpools/wasnorm_wordpool_576.txt	LTP391	ltpFR2	4	5	SPARROW	1347	n/a	n/a	0	0	0
1009.42431640625	n/a	WORD	2067301	wordpools/wasnorm_wordpool_576.txt	LTP391	ltpFR2	4	5	PATROL	1027	n/a	n/a	0	0	0
1012.240234375	n/a	WORD	2073068	wordpools/wasnorm_wordpool_576.txt	LTP391	ltpFR2	4	5	WAITRESS	1581	n/a	n/a	0	0	0
1014.9970703125	n/a	WORD	2078714	wordpools/wasnorm_wordpool_576.txt	LTP391	ltpFR2	4	5	DRESS	495	n/a	n/a	0	0	0
1017.56298828125	n/a	WORD	2083969	wordpools/wasnorm_wordpool_576.txt	LTP391	ltpFR2	4	5	SPOOL	1356	n/a	n/a	0	0	0
1020.34521484375	n/a	WORD	2089667	wordpools/wasnorm_wordpool_576.txt	LTP391	ltpFR2	4	5	PRINCESS	1125	n/a	n/a	0	0	0
1022.99267578125	n/a	WORD	2095089	wordpools/wasnorm_wordpool_576.txt	LTP391	ltpFR2	4	5	PASTRY	1022	n/a	n/a	0	0	0
1025.53369140625	n/a	WORD	2100293	wordpools/wasnorm_wordpool_576.txt	LTP391	ltpFR2	4	5	PISTOL	1075	n/a	n/a	0	0	0
1028.166015625	n/a	WORD	2105684	wordpools/wasnorm_wordpool_576.txt	LTP391	ltpFR2	4	5	GANGSTER	620	n/a	n/a	0	0	0
1030.6396484375	n/a	WORD	2110750	wordpools/wasnorm_wordpool_576.txt	LTP391	ltpFR2	4	5	JELLY	755	n/a	n/a	0	0	0
1033.4384765625	n/a	WORD	2116482	wordpools/wasnorm_wordpool_576.txt	LTP391	ltpFR2	4	5	WHISTLE	1606	n/a	n/a	0	0	0
1036.02734375	n/a	WORD	2121784	wordpools/wasnorm_wordpool_576.txt	LTP391	ltpFR2	4	5	OUTFIT	988	n/a	n/a	0	0	0
1038.5185546875	n/a	WORD	2126886	wordpools/wasnorm_wordpool_576.txt	LTP391	ltpFR2	4	5	CANDY	230	n/a	n/a	0	0	0
1041.13427734375	n/a	WORD	2132243	wordpools/wasnorm_wordpool_576.txt	LTP391	ltpFR2	4	5	TURNIP	1521	n/a	n/a	0	0	0
1043.71630859375	n/a	WORD	2137531	wordpools/wasnorm_wordpool_576.txt	LTP391	ltpFR2	4	5	TUBA	1515	n/a	n/a	0	0	0
1046.30615234375	n/a	WORD	2142835	wordpools/wasnorm_wordpool_576.txt	LTP391	ltpFR2	4	5	TOASTER	1472	n/a	n/a	0	0	0
1049.08837890625	n/a	WORD	2148533	wordpools/wasnorm_wordpool_576.txt	LTP391	ltpFR2	4	5	MUFFIN	929	n/a	n/a	0	0	0
1051.67041015625	n/a	WORD	2153821	wordpools/wasnorm_wordpool_576.txt	LTP391	ltpFR2	4	5	PACKAGE	997	n/a	n/a	0	0	0
1054.15234375	n/a	WORD	2158904	wordpools/wasnorm_wordpool_576.txt	LTP391	ltpFR2	4	5	CRITIC	410	n/a	n/a	0	0	0
1056.8251953125	n/a	WORD	2164378	wordpools/wasnorm_wordpool_576.txt	LTP391	ltpFR2	4	5	CROWN	415	n/a	n/a	0	0	0
1059.5498046875	n/a	WORD	2169958	wordpools/wasnorm_wordpool_576.txt	LTP391	ltpFR2	4	5	SERVER	1272	n/a	n/a	0	0	0
1062.0810546875	n/a	WORD	2175142	wordpools/wasnorm_wordpool_576.txt	LTP391	ltpFR2	4	5	GARLIC	624	n/a	n/a	0	0	0
1063.68603515625	n/a	START	2178429	n/a	LTP391	ltpFR2	4	n/a	n/a	n/a	6	n/a	n/a	n/a	n/a
1064.8828125	n/a	DISTRACTOR	2180880	n/a	LTP391	ltpFR2	4	5	n/a	n/a	n/a	n/a	0	0	0
1064.8876953125	n/a	PROB	2180890	n/a	LTP391	ltpFR2	4	n/a	n/a	n/a	6	16	4	4	8
1066.70263671875	n/a	PROB	2184607	n/a	LTP391	ltpFR2	4	n/a	n/a	n/a	6	11	4	3	4
1068.431640625	n/a	PROB	2188148	n/a	LTP391	ltpFR2	4	n/a	n/a	n/a	6	8	5	1	2
1069.9765625	n/a	PROB	2191312	n/a	LTP391	ltpFR2	4	n/a	n/a	n/a	6	16	2	9	5
1072.1005859375	n/a	PROB	2195662	n/a	LTP391	ltpFR2	4	n/a	n/a	n/a	6	16	7	4	5
1074.33056640625	n/a	PROB	2200229	n/a	LTP391	ltpFR2	4	n/a	n/a	n/a	6	22	8	6	6
1076.33642578125	n/a	PROB	2204337	n/a	LTP391	ltpFR2	4	n/a	n/a	n/a	6	16	9	6	1
1078.056640625	n/a	PROB	2207860	n/a	LTP391	ltpFR2	4	n/a	n/a	n/a	6	13	2	6	5
1079.82861328125	n/a	PROB	2211489	n/a	LTP391	ltpFR2	4	n/a	n/a	n/a	6	10	5	2	3
1081.283203125	n/a	PROB	2214468	n/a	LTP391	ltpFR2	4	n/a	n/a	n/a	6	14	7	3	4
1082.603515625	n/a	PROB	2217172	n/a	LTP391	ltpFR2	4	n/a	n/a	n/a	6	8	2	5	1
1084.45849609375	n/a	PROB	2220971	n/a	LTP391	ltpFR2	4	n/a	n/a	n/a	6	13	9	3	1
1086.88330078125	n/a	STOP	2225937	n/a	LTP391	ltpFR2	4	n/a	n/a	n/a	6	n/a	n/a	n/a	n/a
1089.4130859375	n/a	REC_START	2231118	n/a	LTP391	ltpFR2	4	5	n/a	n/a	n/a	n/a	0	0	0
1090.4140625	n/a	REC_WORD	2233168	wordpools/wasnorm_wordpool_576.txt	LTP391	ltpFR2	4	5	WAITRESS	1581	n/a	n/a	0	0	0
1091.14794921875	n/a	REC_WORD	2234671	wordpools/wasnorm_wordpool_576.txt	LTP391	ltpFR2	4	5	FEMALE	559	n/a	n/a	0	0	0
1092.0361328125	n/a	REC_WORD	2236490	wordpools/wasnorm_wordpool_576.txt	LTP391	ltpFR2	4	5	PRINCESS	1125	n/a	n/a	0	0	0
1092.6259765625	n/a	REC_WORD	2237698	wordpools/wasnorm_wordpool_576.txt	LTP391	ltpFR2	4	5	CROWN	415	n/a	n/a	0	0	0
1093.47314453125	n/a	REC_WORD	2239433	wordpools/wasnorm_wordpool_576.txt	LTP391	ltpFR2	4	5	SERVER	1272	n/a	n/a	0	0	0
1095.01904296875	n/a	REC_WORD	2242599	wordpools/wasnorm_wordpool_576.txt	LTP391	ltpFR2	4	5	PASTRY	1022	n/a	n/a	0	0	0
1095.73583984375	n/a	REC_WORD	2244067	wordpools/wasnorm_wordpool_576.txt	LTP391	ltpFR2	4	5	JELLY	755	n/a	n/a	0	0	0
1096.30615234375	n/a	REC_WORD	2245235	wordpools/wasnorm_wordpool_576.txt	LTP391	ltpFR2	4	5	MUFFIN	929	n/a	n/a	0	0	0
1097.10400390625	n/a	REC_WORD	2246869	wordpools/wasnorm_wordpool_576.txt	LTP391	ltpFR2	4	5	CANDY	230	n/a	n/a	0	0	0
1097.8349609375	n/a	REC_WORD	2248366	wordpools/wasnorm_wordpool_576.txt	LTP391	ltpFR2	4	5	TURNIP	1521	n/a	n/a	0	0	0
1098.48876953125	n/a	REC_WORD	2249705	wordpools/wasnorm_wordpool_576.txt	LTP391	ltpFR2	4	5	GARLIC	624	n/a	n/a	0	0	0
1099.94677734375	n/a	REC_WORD	2252691	wordpools/wasnorm_wordpool_576.txt	LTP391	ltpFR2	4	5	CRITIC	410	n/a	n/a	0	0	0
1102.11376953125	n/a	REC_WORD	2257129	wordpools/wasnorm_wordpool_576.txt	LTP391	ltpFR2	4	5	ISLAND	745	n/a	n/a	0	0	0
1102.763671875	n/a	REC_WORD	2258460	wordpools/wasnorm_wordpool_576.txt	LTP391	ltpFR2	4	5	TUBA	1515	n/a	n/a	0	0	0
1108.3486328125	n/a	REC_WORD	2269898	wordpools/wasnorm_wordpool_576.txt	LTP391	ltpFR2	4	5	DRESS	495	n/a	n/a	0	0	0
1109.0625	n/a	REC_WORD	2271360	wordpools/wasnorm_wordpool_576.txt	LTP391	ltpFR2	4	5	OUTFIT	988	n/a	n/a	0	0	0
1148.3388671875	n/a	REC_WORD	2351798	wordpools/wasnorm_wordpool_576.txt	LTP391	ltpFR2	4	5	SPARROW	1347	n/a	n/a	0	0	0
1179.85302734375	n/a	WORD	2416339	wordpools/wasnorm_wordpool_576.txt	LTP391	ltpFR2	4	6	BOARD	143	n/a	n/a	0	0	0
1182.56201171875	n/a	WORD	2421887	wordpools/wasnorm_wordpool_576.txt	LTP391	ltpFR2	4	6	NOTEBOOK	959	n/a	n/a	0	0	0
1185.0419921875	n/a	WORD	2426966	wordpools/wasnorm_wordpool_576.txt	LTP391	ltpFR2	4	6	PUDDING	1139	n/a	n/a	0	0	0
1187.54150390625	n/a	WORD	2432085	wordpools/wasnorm_wordpool_576.txt	LTP391	ltpFR2	4	6	BUGGY	188	n/a	n/a	0	0	0
1190.005859375	n/a	WORD	2437132	wordpools/wasnorm_wordpool_576.txt	LTP391	ltpFR2	4	6	KLEENEX	782	n/a	n/a	0	0	0
1192.78076171875	n/a	WORD	2442815	wordpools/wasnorm_wordpool_576.txt	LTP391	ltpFR2	4	6	PASSAGE	1019	n/a	n/a	0	0	0
1195.3876953125	n/a	WORD	2448154	wordpools/wasnorm_wordpool_576.txt	LTP391	ltpFR2	4	6	CLOUD	328	n/a	n/a	0	0	0
1198.17822265625	n/a	WORD	2453869	wordpools/wasnorm_wordpool_576.txt	LTP391	ltpFR2	4	6	HAWK	692	n/a	n/a	0	0	0
1200.83447265625	n/a	WORD	2459309	wordpools/wasnorm_wordpool_576.txt	LTP391	ltpFR2	4	6	DENIM	446	n/a	n/a	0	0	0
1203.39208984375	n/a	WORD	2464547	wordpools/wasnorm_wordpool_576.txt	LTP391	ltpFR2	4	6	ZIPPER	1636	n/a	n/a	0	0	0
1206.0234375	n/a	WORD	2469936	wordpools/wasnorm_wordpool_576.txt	LTP391	ltpFR2	4	6	SWITCH	1422	n/a	n/a	0	0	0
1208.67333984375	n/a	WORD	2475363	wordpools/wasnorm_wordpool_576.txt	LTP391	ltpFR2	4	6	LAMP	798	n/a	n/a	0	0	0
1211.13818359375	n/a	WORD	2480411	wordpools/wasnorm_wordpool_576.txt	LTP391	ltpFR2	4	6	LODGE	839	n/a	n/a	0	0	0
1213.794921875	n/a	WORD	2485852	wordpools/wasnorm_wordpool_576.txt	LTP391	ltpFR2	4	6	SPOON	1357	n/a	n/a	0	0	0
1216.5439453125	n/a	WORD	2491482	wordpools/wasnorm_wordpool_576.txt	LTP391	ltpFR2	4	6	COOKBOOK	373	n/a	n/a	0	0	0
1219.2587890625	n/a	WORD	2497042	wordpools/wasnorm_wordpool_576.txt	LTP391	ltpFR2	4	6	PENGUIN	1044	n/a	n/a	0	0	0
1221.98193359375	n/a	WORD	2502619	wordpools/wasnorm_wordpool_576.txt	LTP391	ltpFR2	4	6	GUITAR	670	n/a	n/a	0	0	0
1224.44775390625	n/a	WORD	2507669	wordpools/wasnorm_wordpool_576.txt	LTP391	ltpFR2	4	6	SKIRT	1319	n/a	n/a	0	0	0
1227.0966796875	n/a	WORD	2513094	wordpools/wasnorm_wordpool_576.txt	LTP391	ltpFR2	4	6	DANDRUFF	439	n/a	n/a	0	0	0
1229.54443359375	n/a	WORD	2518107	wordpools/wasnorm_wordpool_576.txt	LTP391	ltpFR2	4	6	STICKER	1382	n/a	n/a	0	0	0
1232.2275390625	n/a	WORD	2523602	wordpools/wasnorm_wordpool_576.txt	LTP391	ltpFR2	4	6	TABLET	1427	n/a	n/a	0	0	0
1234.91650390625	n/a	WORD	2529109	wordpools/wasnorm_wordpool_576.txt	LTP391	ltpFR2	4	6	CURTAIN	427	n/a	n/a	0	0	0
1237.4072265625	n/a	WORD	2534210	wordpools/wasnorm_wordpool_576.txt	LTP391	ltpFR2	4	6	CAPTIVE	240	n/a	n/a	0	0	0
1240.00537109375	n/a	WORD	2539531	wordpools/wasnorm_wordpool_576.txt	LTP391	ltpFR2	4	6	BANJO	82	n/a	n/a	0	0	0
1241.611328125	n/a	START	2542820	n/a	LTP391	ltpFR2	4	n/a	n/a	n/a	7	n/a	n/a	n/a	n/a
1242.74609375	n/a	DISTRACTOR	2545144	n/a	LTP391	ltpFR2	4	6	n/a	n/a	n/a	n/a	0	0	0
1242.75537109375	n/a	PROB	2545163	n/a	LTP391	ltpFR2	4	n/a	n/a	n/a	7	23	8	9	6
1247.64306640625	n/a	PROB	2555173	n/a	LTP391	ltpFR2	4	n/a	n/a	n/a	7	20	9	4	7
1250.958984375	n/a	PROB	2561964	n/a	LTP391	ltpFR2	4	n/a	n/a	n/a	7	12	7	1	4
1252.4228515625	n/a	PROB	2564962	n/a	LTP391	ltpFR2	4	n/a	n/a	n/a	7	9	4	1	4
1253.64306640625	n/a	PROB	2567461	n/a	LTP391	ltpFR2	4	n/a	n/a	n/a	7	8	1	3	4
1255.01220703125	n/a	PROB	2570265	n/a	LTP391	ltpFR2	4	n/a	n/a	n/a	7	12	2	7	3
1256.2998046875	n/a	PROB	2572902	n/a	LTP391	ltpFR2	4	n/a	n/a	n/a	7	19	8	6	5
1257.93603515625	n/a	PROB	2576253	n/a	LTP391	ltpFR2	4	n/a	n/a	n/a	7	17	6	2	9
1260.07568359375	n/a	PROB	2580635	n/a	LTP391	ltpFR2	4	n/a	n/a	n/a	7	9	4	3	2
1262.390625	n/a	PROB	2585376	n/a	LTP391	ltpFR2	4	n/a	n/a	n/a	7	18	7	5	6
1264.02001953125	n/a	PROB	2588713	n/a	LTP391	ltpFR2	4	n/a	n/a	n/a	7	15	7	5	3
1265.52490234375	n/a	STOP	2591795	n/a	LTP391	ltpFR2	4	n/a	n/a	n/a	7	n/a	n/a	n/a	n/a
1267.44677734375	n/a	REC_START	2595731	n/a	LTP391	ltpFR2	4	6	n/a	n/a	n/a	n/a	0	0	0
1267.8828125	n/a	REC_WORD	2596624	wordpools/wasnorm_wordpool_576.txt	LTP391	ltpFR2	4	6	BOARD	143	n/a	n/a	0	0	0
1268.45654296875	n/a	REC_WORD	2597799	wordpools/wasnorm_wordpool_576.txt	LTP391	ltpFR2	4	6	NOTEBOOK	959	n/a	n/a	0	0	0
1269.4326171875	n/a	REC_WORD	2599798	wordpools/wasnorm_wordpool_576.txt	LTP391	ltpFR2	4	6	COOKBOOK	373	n/a	n/a	0	0	0
1270.74267578125	n/a	REC_WORD	2602481	wordpools/wasnorm_wordpool_576.txt	LTP391	ltpFR2	4	6	PUDDING	1139	n/a	n/a	0	0	0
1271.23046875	n/a	REC_WORD	2603480	wordpools/wasnorm_wordpool_576.txt	LTP391	ltpFR2	4	6	SPOON	1357	n/a	n/a	0	0	0
1271.8984375	n/a	REC_WORD	2604848	wordpools/wasnorm_wordpool_576.txt	LTP391	ltpFR2	4	6	STICKER	1382	n/a	n/a	0	0	0
1280.1982421875	n/a	REC_WORD	2621846	wordpools/wasnorm_wordpool_576.txt	LTP391	ltpFR2	4	6	SKIRT	1319	n/a	n/a	0	0	0
1280.986328125	n/a	REC_WORD	2623460	wordpools/wasnorm_wordpool_576.txt	LTP391	ltpFR2	4	6	DENIM	446	n/a	n/a	0	0	0
1281.34619140625	n/a	REC_WORD	2624197	wordpools/wasnorm_wordpool_576.txt	LTP391	ltpFR2	4	6	ZIPPER	1636	n/a	n/a	0	0	0
1281.900390625	n/a	REC_WORD	2625332	wordpools/wasnorm_wordpool_576.txt	LTP391	ltpFR2	4	6	KLEENEX	782	n/a	n/a	0	0	0
1283.982421875	n/a	REC_WORD	2629596	wordpools/wasnorm_wordpool_576.txt	LTP391	ltpFR2	4	6	HAWK	692	n/a	n/a	0	0	0
1284.5771484375	n/a	REC_WORD	2630814	wordpools/wasnorm_wordpool_576.txt	LTP391	ltpFR2	4	6	CLOUD	328	n/a	n/a	0	0	0
1285.748046875	n/a	REC_WORD	2633212	wordpools/wasnorm_wordpool_576.txt	LTP391	ltpFR2	4	6	PENGUIN	1044	n/a	n/a	0	0	0
1297.36474609375	n/a	REC_WORD	2657003	wordpools/wasnorm_wordpool_576.txt	LTP391	ltpFR2	4	6	ROBBER	1197	n/a	n/a	0	0	0
1357.86962890625	n/a	DISTRACTOR	2780917	n/a	LTP391	ltpFR2	4	7	n/a	n/a	n/a	n/a	0	0	0
1357.87060546875	n/a	START	2780919	n/a	LTP391	ltpFR2	4	n/a	n/a	n/a	8	n/a	n/a	n/a	n/a
1357.88623046875	n/a	PROB	2780951	n/a	LTP391	ltpFR2	4	n/a	n/a	n/a	8	18	8	1	9
1359.70947265625	n/a	PROB	2784685	n/a	LTP391	ltpFR2	4	n/a	n/a	n/a	8	15	7	7	1
1360.8525390625	n/a	PROB	2787026	n/a	LTP391	ltpFR2	4	n/a	n/a	n/a	8	15	6	6	3
1362.24951171875	n/a	PROB	2789887	n/a	LTP391	ltpFR2	4	n/a	n/a	n/a	8	13	9	1	3
1364.6220703125	n/a	PROB	2794746	n/a	LTP391	ltpFR2	4	n/a	n/a	n/a	8	14	8	5	1
1366.3349609375	n/a	PROB	2798254	n/a	LTP391	ltpFR2	4	n/a	n/a	n/a	8	9	4	1	4
1367.5380859375	n/a	PROB	2800718	n/a	LTP391	ltpFR2	4	n/a	n/a	n/a	8	4	1	2	1
1368.83203125	n/a	PROB	2803368	n/a	LTP391	ltpFR2	4	n/a	n/a	n/a	8	18	5	4	9
1370.76318359375	n/a	PROB	2807323	n/a	LTP391	ltpFR2	4	n/a	n/a	n/a	8	16	6	3	7
1372.1337890625	n/a	PROB	2810130	n/a	LTP391	ltpFR2	4	n/a	n/a	n/a	8	13	1	4	8
1374.130859375	n/a	PROB	2814220	n/a	LTP391	ltpFR2	4	n/a	n/a	n/a	8	12	1	6	5
1375.509765625	n/a	PROB	2817044	n/a	LTP391	ltpFR2	4	n/a	n/a	n/a	8	8	4	1	3
1377.2138671875	n/a	PROB	2820534	n/a	LTP391	ltpFR2	4	n/a	n/a	n/a	8	18	2	9	7
1381.86962890625	n/a	STOP	2830069	n/a	LTP391	ltpFR2	4	n/a	n/a	n/a	8	n/a	n/a	n/a	n/a
1383.07080078125	n/a	WORD	2832529	wordpools/wasnorm_wordpool_576.txt	LTP391	ltpFR2	4	7	MOTEL	919	n/a	n/a	0	0	0
1385.5869140625	n/a	WORD	2837682	wordpools/wasnorm_wordpool_576.txt	LTP391	ltpFR2	4	7	PORK	1108	n/a	n/a	0	0	0
1388.0927734375	n/a	WORD	2842814	wordpools/wasnorm_wordpool_576.txt	LTP391	ltpFR2	4	7	POSTAGE	1113	n/a	n/a	0	0	0
1390.69140625	n/a	WORD	2848136	wordpools/wasnorm_wordpool_576.txt	LTP391	ltpFR2	4	7	ULCER	1533	n/a	n/a	0	0	0
1393.3486328125	n/a	WORD	2853578	wordpools/wasnorm_wordpool_576.txt	LTP391	ltpFR2	4	7	CUPBOARD	425	n/a	n/a	0	0	0
1395.9462890625	n/a	WORD	2858898	wordpools/wasnorm_wordpool_576.txt	LTP391	ltpFR2	4	7	STAPLE	1371	n/a	n/a	0	0	0
1398.37841796875	n/a	WORD	2863879	wordpools/wasnorm_wordpool_576.txt	LTP391	ltpFR2	4	7	PADDLE	1000	n/a	n/a	0	0	0
1401.01806640625	n/a	WORD	2869285	wordpools/wasnorm_wordpool_576.txt	LTP391	ltpFR2	4	7	STAR	1373	n/a	n/a	0	0	0
1403.7509765625	n/a	WORD	2874882	wordpools/wasnorm_wordpool_576.txt	LTP391	ltpFR2	4	7	SPACE	1345	n/a	n/a	0	0	0
1406.21630859375	n/a	WORD	2879931	wordpools/wasnorm_wordpool_576.txt	LTP391	ltpFR2	4	7	CRIB	407	n/a	n/a	0	0	0
1408.6982421875	n/a	WORD	2885014	wordpools/wasnorm_wordpool_576.txt	LTP391	ltpFR2	4	7	SEAGULL	1261	n/a	n/a	0	0	0
1411.337890625	n/a	WORD	2890420	wordpools/wasnorm_wordpool_576.txt	LTP391	ltpFR2	4	7	PUPIL	1143	n/a	n/a	0	0	0
1413.7607421875	n/a	WORD	2895382	wordpools/wasnorm_wordpool_576.txt	LTP391	ltpFR2	4	7	STUDENT	1395	n/a	n/a	0	0	0
1416.47705078125	n/a	WORD	2900945	wordpools/wasnorm_wordpool_576.txt	LTP391	ltpFR2	4	7	ITEM	746	n/a	n/a	0	0	0
1419.02392578125	n/a	WORD	2906161	wordpools/wasnorm_wordpool_576.txt	LTP391	ltpFR2	4	7	BABY	64	n/a	n/a	0	0	0
1421.49853515625	n/a	WORD	2911229	wordpools/wasnorm_wordpool_576.txt	LTP391	ltpFR2	4	7	LILY	821	n/a	n/a	0	0	0
1424.1806640625	n/a	WORD	2916722	wordpools/wasnorm_wordpool_576.txt	LTP391	ltpFR2	4	7	SEAFOOD	1260	n/a	n/a	0	0	0
1426.6875	n/a	WORD	2921856	wordpools/wasnorm_wordpool_576.txt	LTP391	ltpFR2	4	7	VIRUS	1572	n/a	n/a	0	0	0
1429.25244140625	n/a	WORD	2927109	wordpools/wasnorm_wordpool_576.txt	LTP391	ltpFR2	4	7	RIFLE	1192	n/a	n/a	0	0	0
1431.83349609375	n/a	WORD	2932395	wordpools/wasnorm_wordpool_576.txt	LTP391	ltpFR2	4	7	MAILBOX	857	n/a	n/a	0	0	0
1434.3994140625	n/a	WORD	2937650	wordpools/wasnorm_wordpool_576.txt	LTP391	ltpFR2	4	7	TOURIST	1488	n/a	n/a	0	0	0
1437.03955078125	n/a	WORD	2943057	wordpools/wasnorm_wordpool_576.txt	LTP391	ltpFR2	4	7	HARP	689	n/a	n/a	0	0	0
1439.5634765625	n/a	WORD	2948226	wordpools/wasnorm_wordpool_576.txt	LTP391	ltpFR2	4	7	BROOK	177	n/a	n/a	0	0	0
1442.18701171875	n/a	WORD	2953599	wordpools/wasnorm_wordpool_576.txt	LTP391	ltpFR2	4	7	DRINK	498	n/a	n/a	0	0	0
1443.791015625	n/a	START	2956884	n/a	LTP391	ltpFR2	4	n/a	n/a	n/a	9	n/a	n/a	n/a	n/a
1444.92333984375	n/a	DISTRACTOR	2959203	n/a	LTP391	ltpFR2	4	7	n/a	n/a	n/a	n/a	0	0	0
1444.92724609375	n/a	PROB	2959211	n/a	LTP391	ltpFR2	4	n/a	n/a	n/a	9	21	5	9	7
1447.2001953125	n/a	PROB	2963866	n/a	LTP391	ltpFR2	4	n/a	n/a	n/a	9	5	3	1	1
1448.4453125	n/a	PROB	2966416	n/a	LTP391	ltpFR2	4	n/a	n/a	n/a	9	13	5	3	5
1449.89013671875	n/a	PROB	2969375	n/a	LTP391	ltpFR2	4	n/a	n/a	n/a	9	19	8	1	8
1451.3369140625	n/a	PROB	2972338	n/a	LTP391	ltpFR2	4	n/a	n/a	n/a	9	10	2	5	3
1453.23291015625	n/a	PROB	2976221	n/a	LTP391	ltpFR2	4	n/a	n/a	n/a	9	16	6	1	9
1454.9697265625	n/a	PROB	2979778	n/a	LTP391	ltpFR2	4	n/a	n/a	n/a	9	11	1	2	9
1456.2158203125	n/a	PROB	2982330	n/a	LTP391	ltpFR2	4	n/a	n/a	n/a	9	11	4	4	3
1458.32177734375	n/a	PROB	2986643	n/a	LTP391	ltpFR2	4	n/a	n/a	n/a	9	9	2	4	3
1460.5185546875	n/a	PROB	2991142	n/a	LTP391	ltpFR2	4	n/a	n/a	n/a	9	7	2	1	4
1463.57763671875	n/a	PROB	2997407	n/a	LTP391	ltpFR2	4	n/a	n/a	n/a	9	20	9	3	8
1467.79052734375	n/a	STOP	3006035	n/a	LTP391	ltpFR2	4	n/a	n/a	n/a	9	n/a	n/a	n/a	n/a
1469.62744140625	n/a	REC_START	3009797	n/a	LTP391	ltpFR2	4	7	n/a	n/a	n/a	n/a	0	0	0
1470.693359375	n/a	REC_WORD	3011980	wordpools/wasnorm_wordpool_576.txt	LTP391	ltpFR2	4	7	ULCER	1533	n/a	n/a	0	0	0
1471.404296875	n/a	REC_WORD	3013436	wordpools/wasnorm_wordpool_576.txt	LTP391	ltpFR2	4	7	VIRUS	1572	n/a	n/a	0	0	0
1472.47265625	n/a	REC_WORD	3015624	wordpools/wasnorm_wordpool_576.txt	LTP391	ltpFR2	4	7	MOTEL	919	n/a	n/a	0	0	0
1473.982421875	n/a	REC_WORD	3018716	wordpools/wasnorm_wordpool_576.txt	LTP391	ltpFR2	4	7	CRIB	407	n/a	n/a	0	0	0
1474.7783203125	n/a	REC_WORD	3020346	wordpools/wasnorm_wordpool_576.txt	LTP391	ltpFR2	4	7	BABY	64	n/a	n/a	0	0	0
1475.90625	n/a	REC_WORD	3022656	wordpools/wasnorm_wordpool_576.txt	LTP391	ltpFR2	4	7	TOURIST	1488	n/a	n/a	0	0	0
1476.6591796875	n/a	REC_WORD	3024198	wordpools/wasnorm_wordpool_576.txt	LTP391	ltpFR2	4	7	BROOK	177	n/a	n/a	0	0	0
1477.21533203125	n/a	REC_WORD	3025337	wordpools/wasnorm_wordpool_576.txt	LTP391	ltpFR2	4	7	DRINK	498	n/a	n/a	0	0	0
1478.30908203125	n/a	REC_WORD	3027577	wordpools/wasnorm_wordpool_576.txt	LTP391	ltpFR2	4	7	STAR	1373	n/a	n/a	0	0	0
1478.951171875	n/a	REC_WORD	3028892	wordpools/wasnorm_wordpool_576.txt	LTP391	ltpFR2	4	7	SPACE	1345	n/a	n/a	0	0	0
1479.6572265625	n/a	REC_WORD	3030338	wordpools/wasnorm_wordpool_576.txt	LTP391	ltpFR2	4	7	PUPIL	1143	n/a	n/a	0	0	0
1480.1162109375	n/a	REC_WORD	3031278	wordpools/wasnorm_wordpool_576.txt	LTP391	ltpFR2	4	7	STUDENT	1395	n/a	n/a	0	0	0
1483.22021484375	n/a	REC_WORD	3037635	wordpools/wasnorm_wordpool_576.txt	LTP391	ltpFR2	4	7	SEAGULL	1261	n/a	n/a	0	0	0
1483.8740234375	n/a	REC_WORD	3038974	wordpools/wasnorm_wordpool_576.txt	LTP391	ltpFR2	4	7	SEAFOOD	1260	n/a	n/a	0	0	0
1486.94189453125	n/a	REC_WORD	3045257	wordpools/wasnorm_wordpool_576.txt	LTP391	ltpFR2	4	7	PORK	1108	n/a	n/a	0	0	0
1528.3359375	n/a	REC_WORD	3130032	wordpools/wasnorm_wordpool_576.txt	LTP391	ltpFR2	4	7	CUPBOARD	425	n/a	n/a	0	0	0
1528.89990234375	n/a	REC_WORD	3131187	wordpools/wasnorm_wordpool_576.txt	LTP391	ltpFR2	4	7	PADDLE	1000	n/a	n/a	0	0	0
1530.73388671875	n/a	REC_WORD	3134943	wordpools/wasnorm_wordpool_576.txt	LTP391	ltpFR2	4	7	ITEM	746	n/a	n/a	0	0	0
1560.05029296875	n/a	DISTRACTOR	3194983	n/a	LTP391	ltpFR2	4	8	n/a	n/a	n/a	n/a	0	0	0
1560.05029296875	n/a	START	3194983	n/a	LTP391	ltpFR2	4	n/a	n/a	n/a	10	n/a	n/a	n/a	n/a
1560.0673828125	n/a	PROB	3195018	n/a	LTP391	ltpFR2	4	n/a	n/a	n/a	10	14	2	9	3
1562.2822265625	n/a	PROB	3199554	n/a	LTP391	ltpFR2	4	n/a	n/a	n/a	10	14	2	3	9
1563.9443359375	n/a	PROB	3202958	n/a	LTP391	ltpFR2	4	n/a	n/a	n/a	10	17	3	9	5
1567.05224609375	n/a	PROB	3209323	n/a	LTP391	ltpFR2	4	n/a	n/a	n/a	10	12	6	4	2
1569.1337890625	n/a	PROB	3213586	n/a	LTP391	ltpFR2	4	n/a	n/a	n/a	10	11	2	4	5
1571.255859375	n/a	PROB	3217932	n/a	LTP391	ltpFR2	4	n/a	n/a	n/a	10	18	5	7	6
1573.06005859375	n/a	PROB	3221627	n/a	LTP391	ltpFR2	4	n/a	n/a	n/a	10	15	2	9	4
1574.53173828125	n/a	PROB	3224641	n/a	LTP391	ltpFR2	4	n/a	n/a	n/a	10	12	4	2	6
1576.4619140625	n/a	PROB	3228594	n/a	LTP391	ltpFR2	4	n/a	n/a	n/a	10	10	7	2	1
1577.85595703125	n/a	PROB	3231449	n/a	LTP391	ltpFR2	4	n/a	n/a	n/a	10	9	3	4	2
1579.8525390625	n/a	PROB	3235538	n/a	LTP391	ltpFR2	4	n/a	n/a	n/a	10	19	3	8	8
1582.12646484375	n/a	PROB	3240195	n/a	LTP391	ltpFR2	4	n/a	n/a	n/a	10	19	8	3	8
1583.56640625	n/a	STOP	3243144	n/a	LTP391	ltpFR2	4	n/a	n/a	n/a	10	n/a	n/a	n/a	n/a
1585.15966796875	n/a	WORD	3246407	wordpools/wasnorm_wordpool_576.txt	LTP391	ltpFR2	4	8	FOOTBALL	591	n/a	n/a	0	0	0
1587.95751953125	n/a	WORD	3252137	wordpools/wasnorm_wordpool_576.txt	LTP391	ltpFR2	4	8	HUMAN	726	n/a	n/a	0	0	0
1590.66650390625	n/a	WORD	3257685	wordpools/wasnorm_wordpool_576.txt	LTP391	ltpFR2	4	8	BRIEFCASE	175	n/a	n/a	0	0	0
1593.33154296875	n/a	WORD	3263143	wordpools/wasnorm_wordpool_576.txt	LTP391	ltpFR2	4	8	TROUT	1511	n/a	n/a	0	0	0
1596.05419921875	n/a	WORD	3268719	wordpools/wasnorm_wordpool_576.txt	LTP391	ltpFR2	4	8	POCKET	1093	n/a	n/a	0	0	0
1598.47802734375	n/a	WORD	3273683	wordpools/wasnorm_wordpool_576.txt	LTP391	ltpFR2	4	8	BRAKE	166	n/a	n/a	0	0	0
1601.236328125	n/a	WORD	3279332	wordpools/wasnorm_wordpool_576.txt	LTP391	ltpFR2	4	8	PUDDLE	1140	n/a	n/a	0	0	0
1603.875	n/a	WORD	3284736	wordpools/wasnorm_wordpool_576.txt	LTP391	ltpFR2	4	8	PLAID	1080	n/a	n/a	0	0	0
1606.3408203125	n/a	WORD	3289786	wordpools/wasnorm_wordpool_576.txt	LTP391	ltpFR2	4	8	PEPPER	1047	n/a	n/a	0	0	0
1608.98095703125	n/a	WORD	3295193	wordpools/wasnorm_wordpool_576.txt	LTP391	ltpFR2	4	8	SOFTBALL	1343	n/a	n/a	0	0	0
1611.61376953125	n/a	WORD	3300585	wordpools/wasnorm_wordpool_576.txt	LTP391	ltpFR2	4	8	FREEZER	604	n/a	n/a	0	0	0
1614.25390625	n/a	WORD	3305992	wordpools/wasnorm_wordpool_576.txt	LTP391	ltpFR2	4	8	EUROPE	541	n/a	n/a	0	0	0
1616.77783203125	n/a	WORD	3311161	wordpools/wasnorm_wordpool_576.txt	LTP391	ltpFR2	4	8	ASIA	46	n/a	n/a	0	0	0
1619.37548828125	n/a	WORD	3316481	wordpools/wasnorm_wordpool_576.txt	LTP391	ltpFR2	4	8	INMATE	738	n/a	n/a	0	0	0
1621.83154296875	n/a	WORD	3321511	wordpools/wasnorm_wordpool_576.txt	LTP391	ltpFR2	4	8	MARKER	870	n/a	n/a	0	0	0
1624.44775390625	n/a	WORD	3326869	wordpools/wasnorm_wordpool_576.txt	LTP391	ltpFR2	4	8	FRAGRANCE	599	n/a	n/a	0	0	0
1627.0537109375	n/a	WORD	3332206	wordpools/wasnorm_wordpool_576.txt	LTP391	ltpFR2	4	8	ONION	977	n/a	n/a	0	0	0
1629.57861328125	n/a	WORD	3337377	wordpools/wasnorm_wordpool_576.txt	LTP391	ltpFR2	4	8	CATTLE	261	n/a	n/a	0	0	0
1632.38525390625	n/a	WORD	3343125	wordpools/wasnorm_wordpool_576.txt	LTP391	ltpFR2	4	8	BUTCHER	203	n/a	n/a	0	0	0
1635.16845703125	n/a	WORD	3348825	wordpools/wasnorm_wordpool_576.txt	LTP391	ltpFR2	4	8	SALMON	1227	n/a	n/a	0	0	0
1637.6494140625	n/a	WORD	3353906	wordpools/wasnorm_wordpool_576.txt	LTP391	ltpFR2	4	8	BOYFRIEND	162	n/a	n/a	0	0	0
1640.34033203125	n/a	WORD	3359417	wordpools/wasnorm_wordpool_576.txt	LTP391	ltpFR2	4	8	PARSLEY	1016	n/a	n/a	0	0	0
1642.7880859375	n/a	WORD	3364430	wordpools/wasnorm_wordpool_576.txt	LTP391	ltpFR2	4	8	POWDER	1117	n/a	n/a	0	0	0
1645.2109375	n/a	WORD	3369392	wordpools/wasnorm_wordpool_576.txt	LTP391	ltpFR2	4	8	MARROW	872	n/a	n/a	0	0	0
1646.81494140625	n/a	START	3372677	n/a	LTP391	ltpFR2	4	n/a	n/a	n/a	11	n/a	n/a	n/a	n/a
1647.68994140625	n/a	DISTRACTOR	3374469	n/a	LTP391	ltpFR2	4	8	n/a	n/a	n/a	n/a	0	0	0
1647.69287109375	n/a	PROB	3374475	n/a	LTP391	ltpFR2	4	n/a	n/a	n/a	11	12	6	2	4
1649.2138671875	n/a	PROB	3377590	n/a	LTP391	ltpFR2	4	n/a	n/a	n/a	11	19	9	1	9
1651.1767578125	n/a	PROB	3381610	n/a	LTP391	ltpFR2	4	n/a	n/a	n/a	11	18	8	9	1
1653.3076171875	n/a	PROB	3385974	n/a	LTP391	ltpFR2	4	n/a	n/a	n/a	11	18	4	6	8
1654.52783203125	n/a	PROB	3388473	n/a	LTP391	ltpFR2	4	n/a	n/a	n/a	11	18	8	6	4
1655.71484375	n/a	PROB	3390904	n/a	LTP391	ltpFR2	4	n/a	n/a	n/a	11	13	6	5	2
1658.2626953125	n/a	PROB	3396122	n/a	LTP391	ltpFR2	4	n/a	n/a	n/a	11	22	6	7	9
1660.33447265625	n/a	PROB	3400365	n/a	LTP391	ltpFR2	4	n/a	n/a	n/a	11	9	3	1	5
1661.8544921875	n/a	PROB	3403478	n/a	LTP391	ltpFR2	4	n/a	n/a	n/a	11	13	7	2	4
1663.46875	n/a	PROB	3406784	n/a	LTP391	ltpFR2	4	n/a	n/a	n/a	11	13	7	5	1
1664.75537109375	n/a	PROB	3409419	n/a	LTP391	ltpFR2	4	n/a	n/a	n/a	11	14	3	8	3
1666.45166015625	n/a	PROB	3412893	n/a	LTP391	ltpFR2	4	n/a	n/a	n/a	11	15	7	1	7
1667.66259765625	n/a	PROB	3415373	n/a	LTP391	ltpFR2	4	n/a	n/a	n/a	11	8	1	5	2
1670.814453125	n/a	STOP	3421828	n/a	LTP391	ltpFR2	4	n/a	n/a	n/a	11	n/a	n/a	n/a	n/a
1672.64453125	n/a	REC_START	3425576	n/a	LTP391	ltpFR2	4	8	n/a	n/a	n/a	n/a	0	0	0
1674.42626953125	n/a	REC_WORD	3429225	wordpools/wasnorm_wordpool_576.txt	LTP391	ltpFR2	4	8	CATTLE	261	n/a	n/a	0	0	0
1675.533203125	n/a	REC_WORD	3431492	wordpools/wasnorm_wordpool_576.txt	LTP391	ltpFR2	4	8	TROUT	1511	n/a	n/a	0	0	0
1676.6103515625	n/a	REC_WORD	3433698	wordpools/wasnorm_wordpool_576.txt	LTP391	ltpFR2	4	8	SEA	1259	n/a	n/a	0	0	0
1679.3701171875	n/a	REC_WORD	3439350	wordpools/wasnorm_wordpool_576.txt	LTP391	ltpFR2	4	8	SALMON	1227	n/a	n/a	0	0	0
1680.67431640625	n/a	REC_WORD	3442021	wordpools/wasnorm_wordpool_576.txt	LTP391	ltpFR2	4	8	PARSLEY	1016	n/a	n/a	0	0	0
1681.42529296875	n/a	REC_WORD	3443559	wordpools/wasnorm_wordpool_576.txt	LTP391	ltpFR2	4	8	ONION	977	n/a	n/a	0	0	0
1682.04931640625	n/a	REC_WORD	3444837	wordpools/wasnorm_wordpool_576.txt	LTP391	ltpFR2	4	8	POWDER	1117	n/a	n/a	0	0	0
1682.76123046875	n/a	REC_WORD	3446295	wordpools/wasnorm_wordpool_576.txt	LTP391	ltpFR2	4	8	PEPPER	1047	n/a	n/a	0	0	0
1683.578125	n/a	REC_WORD	3447968	wordpools/wasnorm_wordpool_576.txt	LTP391	ltpFR2	4	8	PUDDLE	1140	n/a	n/a	0	0	0
1685.22412109375	n/a	REC_WORD	3451339	wordpools/wasnorm_wordpool_576.txt	LTP391	ltpFR2	4	8	FRAGRANCE	599	n/a	n/a	0	0	0
1686.087890625	n/a	REC_WORD	3453108	wordpools/wasnorm_wordpool_576.txt	LTP391	ltpFR2	4	8	EUROPE	541	n/a	n/a	0	0	0
1686.67724609375	n/a	REC_WORD	3454315	wordpools/wasnorm_wordpool_576.txt	LTP391	ltpFR2	4	8	ASIA	46	n/a	n/a	0	0	0
1687.72216796875	n/a	REC_WORD	3456455	wordpools/wasnorm_wordpool_576.txt	LTP391	ltpFR2	4	8	BRIEFCASE	175	n/a	n/a	0	0	0
1688.40087890625	n/a	REC_WORD	3457845	wordpools/wasnorm_wordpool_576.txt	LTP391	ltpFR2	4	8	POCKET	1093	n/a	n/a	0	0	0
1688.98486328125	n/a	REC_WORD	3459041	wordpools/wasnorm_wordpool_576.txt	LTP391	ltpFR2	4	8	MARKER	870	n/a	n/a	0	0	0
1690.01611328125	n/a	REC_WORD	3461153	wordpools/wasnorm_wordpool_576.txt	LTP391	ltpFR2	4	8	FOOTBALL	591	n/a	n/a	0	0	0
1690.6220703125	n/a	REC_WORD	3462394	wordpools/wasnorm_wordpool_576.txt	LTP391	ltpFR2	4	8	SOFTBALL	1343	n/a	n/a	0	0	0
1692.3046875	n/a	REC_WORD	3465840	wordpools/wasnorm_wordpool_576.txt	LTP391	ltpFR2	4	8	HUMAN	726	n/a	n/a	0	0	0
1693.091796875	n/a	REC_WORD	3467452	wordpools/wasnorm_wordpool_576.txt	LTP391	ltpFR2	4	8	FREEZER	604	n/a	n/a	0	0	0
1701.95751953125	n/a	REC_WORD	3485609	wordpools/wasnorm_wordpool_576.txt	LTP391	ltpFR2	4	8	MARROW	872	n/a	n/a	0	0	0
1707.87939453125	n/a	REC_WORD	3497737	wordpools/wasnorm_wordpool_576.txt	LTP391	ltpFR2	4	8	BOYFRIEND	162	n/a	n/a	0	0	0
1709.84033203125	n/a	REC_WORD	3501753	wordpools/wasnorm_wordpool_576.txt	LTP391	ltpFR2	4	8	BUTCHER	203	n/a	n/a	0	0	0
1718.77294921875	n/a	REC_WORD	3520047	wordpools/wasnorm_wordpool_576.txt	LTP391	ltpFR2	4	8	PLAID	1080	n/a	n/a	0	0	0
1749.16357421875	n/a	REST_REWET	3582287	n/a	LTP391	ltpFR2	4	8	n/a	n/a	n/a	n/a	0	0	0
1825.21630859375	n/a	WORD	3738043	wordpools/wasnorm_wordpool_576.txt	LTP391	ltpFR2	4	9	PLAYGROUND	1087	n/a	n/a	0	0	0
1827.96435546875	n/a	WORD	3743671	wordpools/wasnorm_wordpool_576.txt	LTP391	ltpFR2	4	9	LUGGAGE	847	n/a	n/a	0	0	0
1830.50537109375	n/a	WORD	3748875	wordpools/wasnorm_wordpool_576.txt	LTP391	ltpFR2	4	9	COFFEE	341	n/a	n/a	0	0	0
1833.2451171875	n/a	WORD	3754486	wordpools/wasnorm_wordpool_576.txt	LTP391	ltpFR2	4	9	SAUSAGE	1238	n/a	n/a	0	0	0
1835.744140625	n/a	WORD	3759604	wordpools/wasnorm_wordpool_576.txt	LTP391	ltpFR2	4	9	BELLY	119	n/a	n/a	0	0	0
1838.4013671875	n/a	WORD	3765046	wordpools/wasnorm_wordpool_576.txt	LTP391	ltpFR2	4	9	CLOCK	325	n/a	n/a	0	0	0
1840.865234375	n/a	WORD	3770092	wordpools/wasnorm_wordpool_576.txt	LTP391	ltpFR2	4	9	BADGE	68	n/a	n/a	0	0	0
1843.623046875	n/a	WORD	3775740	wordpools/wasnorm_wordpool_576.txt	LTP391	ltpFR2	4	9	AGENT	10	n/a	n/a	0	0	0
1846.1298828125	n/a	WORD	3780874	wordpools/wasnorm_wordpool_576.txt	LTP391	ltpFR2	4	9	PANTHER	1009	n/a	n/a	0	0	0
1848.77880859375	n/a	WORD	3786299	wordpools/wasnorm_wordpool_576.txt	LTP391	ltpFR2	4	9	DOUGHNUT	490	n/a	n/a	0	0	0
1851.19384765625	n/a	WORD	3791245	wordpools/wasnorm_wordpool_576.txt	LTP391	ltpFR2	4	9	TWIG	1527	n/a	n/a	0	0	0
1853.958984375	n/a	WORD	3796908	wordpools/wasnorm_wordpool_576.txt	LTP391	ltpFR2	4	9	COCOON	339	n/a	n/a	0	0	0
1856.75048828125	n/a	WORD	3802625	wordpools/wasnorm_wordpool_576.txt	LTP391	ltpFR2	4	9	COLLEGE	346	n/a	n/a	0	0	0
1859.482421875	n/a	WORD	3808220	wordpools/wasnorm_wordpool_576.txt	LTP391	ltpFR2	4	9	MEDAL	885	n/a	n/a	0	0	0
1862.12255859375	n/a	WORD	3813627	wordpools/wasnorm_wordpool_576.txt	LTP391	ltpFR2	4	9	TYPIST	1532	n/a	n/a	0	0	0
1864.771484375	n/a	WORD	3819052	wordpools/wasnorm_wordpool_576.txt	LTP391	ltpFR2	4	9	TRUCK	1512	n/a	n/a	0	0	0
1867.54541015625	n/a	WORD	3824733	wordpools/wasnorm_wordpool_576.txt	LTP391	ltpFR2	4	9	VALVE	1546	n/a	n/a	0	0	0
1870.1611328125	n/a	WORD	3830090	wordpools/wasnorm_wordpool_576.txt	LTP391	ltpFR2	4	9	SIDEWALK	1303	n/a	n/a	0	0	0
1872.60009765625	n/a	WORD	3835085	wordpools/wasnorm_wordpool_576.txt	LTP391	ltpFR2	4	9	AWARD	63	n/a	n/a	0	0	0
1875.19921875	n/a	WORD	3840408	wordpools/wasnorm_wordpool_576.txt	LTP391	ltpFR2	4	9	AIRPLANE	12	n/a	n/a	0	0	0
1877.9052734375	n/a	WORD	3845950	wordpools/wasnorm_wordpool_576.txt	LTP391	ltpFR2	4	9	MILDEW	893	n/a	n/a	0	0	0
1880.34619140625	n/a	WORD	3850949	wordpools/wasnorm_wordpool_576.txt	LTP391	ltpFR2	4	9	KIDNEY	776	n/a	n/a	0	0	0
1882.9189453125	n/a	WORD	3856218	wordpools/wasnorm_wordpool_576.txt	LTP391	ltpFR2	4	9	LUMBER	848	n/a	n/a	0	0	0
1885.44287109375	n/a	WORD	3861387	wordpools/wasnorm_wordpool_576.txt	LTP391	ltpFR2	4	9	SUNRISE	1407	n/a	n/a	0	0	0
1887.046875	n/a	START	3864672	n/a	LTP391	ltpFR2	4	n/a	n/a	n/a	12	n/a	n/a	n/a	n/a
1887.916015625	n/a	DISTRACTOR	3866452	n/a	LTP391	ltpFR2	4	9	n/a	n/a	n/a	n/a	0	0	0
1887.923828125	n/a	PROB	3866468	n/a	LTP391	ltpFR2	4	n/a	n/a	n/a	12	16	8	3	5
1889.72998046875	n/a	PROB	3870167	n/a	LTP391	ltpFR2	4	n/a	n/a	n/a	12	17	6	6	5
1892.4365234375	n/a	PROB	3875710	n/a	LTP391	ltpFR2	4	n/a	n/a	n/a	12	16	3	6	7
1894.06591796875	n/a	PROB	3879047	n/a	LTP391	ltpFR2	4	n/a	n/a	n/a	12	17	7	5	5
1896.99755859375	n/a	PROB	3885051	n/a	LTP391	ltpFR2	4	n/a	n/a	n/a	12	17	7	8	2
1898.28564453125	n/a	PROB	3887689	n/a	LTP391	ltpFR2	4	n/a	n/a	n/a	12	24	9	9	6
1900.91650390625	n/a	PROB	3893077	n/a	LTP391	ltpFR2	4	n/a	n/a	n/a	12	7	4	2	1
1902.67236328125	n/a	PROB	3896673	n/a	LTP391	ltpFR2	4	n/a	n/a	n/a	12	20	5	7	8
1904.79443359375	n/a	PROB	3901019	n/a	LTP391	ltpFR2	4	n/a	n/a	n/a	12	13	3	2	8
1906.42431640625	n/a	PROB	3904357	n/a	LTP391	ltpFR2	4	n/a	n/a	n/a	12	15	3	8	4
1908.01025390625	n/a	PROB	3907605	n/a	LTP391	ltpFR2	4	n/a	n/a	n/a	12	7	4	1	2
1910.0380859375	n/a	STOP	3911758	n/a	LTP391	ltpFR2	4	n/a	n/a	n/a	12	n/a	n/a	n/a	n/a
1912.8330078125	n/a	REC_START	3917482	n/a	LTP391	ltpFR2	4	9	n/a	n/a	n/a	n/a	0	0	0
1913.59912109375	n/a	REC_WORD	3919051	wordpools/wasnorm_wordpool_576.txt	LTP391	ltpFR2	4	9	LUGGAGE	847	n/a	n/a	0	0	0
1914.40234375	n/a	REC_WORD	3920696	wordpools/wasnorm_wordpool_576.txt	LTP391	ltpFR2	4	9	AIRPORT	13	n/a	n/a	0	0	0
1915.17041015625	n/a	REC_WORD	3922269	wordpools/wasnorm_wordpool_576.txt	LTP391	ltpFR2	4	9	AGENT	10	n/a	n/a	0	0	0
1915.8759765625	n/a	REC_WORD	3923714	wordpools/wasnorm_wordpool_576.txt	LTP391	ltpFR2	4	9	BADGE	68	n/a	n/a	0	0	0
1916.47802734375	n/a	REC_WORD	3924947	wordpools/wasnorm_wordpool_576.txt	LTP391	ltpFR2	4	9	AWARD	63	n/a	n/a	0	0	0
1917.1708984375	n/a	REC_WORD	3926366	wordpools/wasnorm_wordpool_576.txt	LTP391	ltpFR2	4	9	MEDAL	885	n/a	n/a	0	0	0
1917.93896484375	n/a	REC_WORD	3927939	wordpools/wasnorm_wordpool_576.txt	LTP391	ltpFR2	4	9	COLLEGE	346	n/a	n/a	0	0	0
1918.64599609375	n/a	REC_WORD	3929387	wordpools/wasnorm_wordpool_576.txt	LTP391	ltpFR2	4	9	MILDEW	893	n/a	n/a	0	0	0
1920.55322265625	n/a	REC_WORD	3933293	wordpools/wasnorm_wordpool_576.txt	LTP391	ltpFR2	4	9	SUNRISE	1407	n/a	n/a	0	0	0
1937.8408203125	n/a	REC_WORD	3968698	wordpools/wasnorm_wordpool_576.txt	LTP391	ltpFR2	4	9	AIRPLANE	12	n/a	n/a	0	0	0
1941.974609375	n/a	REC_WORD	3977164	wordpools/wasnorm_wordpool_576.txt	LTP391	ltpFR2	4	9	PANTHER	1009	n/a	n/a	0	0	0
1973.23486328125	n/a	REC_WORD	4041185	wordpools/wasnorm_wordpool_576.txt	LTP391	ltpFR2	4	9	PLAYGROUND	1087	n/a	n/a	0	0	0
1973.9775390625	n/a	REC_WORD	4042706	wordpools/wasnorm_wordpool_576.txt	LTP391	ltpFR2	4	9	TWIG	1527	n/a	n/a	0	0	0
1974.54248046875	n/a	REC_WORD	4043863	wordpools/wasnorm_wordpool_576.txt	LTP391	ltpFR2	4	9	COCOON	339	n/a	n/a	0	0	0
2003.26611328125	n/a	WORD	4102689	wordpools/wasnorm_wordpool_576.txt	LTP391	ltpFR2	4	10	BEAKER	104	n/a	n/a	0	0	0
2006.06494140625	n/a	WORD	4108421	wordpools/wasnorm_wordpool_576.txt	LTP391	ltpFR2	4	10	HAMPER	682	n/a	n/a	0	0	0
2008.6796875	n/a	WORD	4113776	wordpools/wasnorm_wordpool_576.txt	LTP391	ltpFR2	4	10	SISTER	1312	n/a	n/a	0	0	0
2011.25390625	n/a	WORD	4119048	wordpools/wasnorm_wordpool_576.txt	LTP391	ltpFR2	4	10	FRAME	600	n/a	n/a	0	0	0
2013.77685546875	n/a	WORD	4124215	wordpools/wasnorm_wordpool_576.txt	LTP391	ltpFR2	4	10	PORTRAIT	1111	n/a	n/a	0	0	0
2016.392578125	n/a	WORD	4129572	wordpools/wasnorm_wordpool_576.txt	LTP391	ltpFR2	4	10	PLAZA	1088	n/a	n/a	0	0	0
2019.107421875	n/a	WORD	4135132	wordpools/wasnorm_wordpool_576.txt	LTP391	ltpFR2	4	10	VIKING	1565	n/a	n/a	0	0	0
2021.62255859375	n/a	WORD	4140283	wordpools/wasnorm_wordpool_576.txt	LTP391	ltpFR2	4	10	RAFT	1159	n/a	n/a	0	0	0
2024.22119140625	n/a	WORD	4145605	wordpools/wasnorm_wordpool_576.txt	LTP391	ltpFR2	4	10	CORAL	378	n/a	n/a	0	0	0
2026.96923828125	n/a	WORD	4151233	wordpools/wasnorm_wordpool_576.txt	LTP391	ltpFR2	4	10	COSTUME	383	n/a	n/a	0	0	0
2029.50244140625	n/a	WORD	4156421	wordpools/wasnorm_wordpool_576.txt	LTP391	ltpFR2	4	10	IDOL	733	n/a	n/a	0	0	0
2032.1669921875	n/a	WORD	4161878	wordpools/wasnorm_wordpool_576.txt	LTP391	ltpFR2	4	10	CHIPMUNK	304	n/a	n/a	0	0	0
2034.83203125	n/a	WORD	4167336	wordpools/wasnorm_wordpool_576.txt	LTP391	ltpFR2	4	10	MAPLE	866	n/a	n/a	0	0	0
2037.4482421875	n/a	WORD	4172694	wordpools/wasnorm_wordpool_576.txt	LTP391	ltpFR2	4	10	CHEMIST	292	n/a	n/a	0	0	0
2040.19677734375	n/a	WORD	4178323	wordpools/wasnorm_wordpool_576.txt	LTP391	ltpFR2	4	10	TORTOISE	1486	n/a	n/a	0	0	0
2042.828125	n/a	WORD	4183712	wordpools/wasnorm_wordpool_576.txt	LTP391	ltpFR2	4	10	FLOWER	584	n/a	n/a	0	0	0
2045.28564453125	n/a	WORD	4188745	wordpools/wasnorm_wordpool_576.txt	LTP391	ltpFR2	4	10	BROTHER	179	n/a	n/a	0	0	0
2048.02587890625	n/a	WORD	4194357	wordpools/wasnorm_wordpool_576.txt	LTP391	ltpFR2	4	10	GARDEN	623	n/a	n/a	0	0	0
2050.55859375	n/a	WORD	4199544	wordpools/wasnorm_wordpool_576.txt	LTP391	ltpFR2	4	10	PUPPY	1144	n/a	n/a	0	0	0
2053.357421875	n/a	WORD	4205276	wordpools/wasnorm_wordpool_576.txt	LTP391	ltpFR2	4	10	FLASK	576	n/a	n/a	0	0	0
2055.94677734375	n/a	WORD	4210579	wordpools/wasnorm_wordpool_576.txt	LTP391	ltpFR2	4	10	WORKER	1621	n/a	n/a	0	0	0
2058.73046875	n/a	WORD	4216280	wordpools/wasnorm_wordpool_576.txt	LTP391	ltpFR2	4	10	PREACHER	1119	n/a	n/a	0	0	0
2061.29541015625	n/a	WORD	4221533	wordpools/wasnorm_wordpool_576.txt	LTP391	ltpFR2	4	10	VELVET	1555	n/a	n/a	0	0	0
2063.8671875	n/a	WORD	4226800	wordpools/wasnorm_wordpool_576.txt	LTP391	ltpFR2	4	10	EMPIRE	530	n/a	n/a	0	0	0
2065.47314453125	n/a	START	4230089	n/a	LTP391	ltpFR2	4	n/a	n/a	n/a	13	n/a	n/a	n/a	n/a
2066.50830078125	n/a	DISTRACTOR	4232209	n/a	LTP391	ltpFR2	4	10	n/a	n/a	n/a	n/a	0	0	0
2066.51708984375	n/a	PROB	4232227	n/a	LTP391	ltpFR2	4	n/a	n/a	n/a	13	11	2	3	6
2068.55615234375	n/a	PROB	4236403	n/a	LTP391	ltpFR2	4	n/a	n/a	n/a	13	16	7	6	3
2070.16943359375	n/a	PROB	4239707	n/a	LTP391	ltpFR2	4	n/a	n/a	n/a	13	16	6	3	7
2071.2802734375	n/a	PROB	4241982	n/a	LTP391	ltpFR2	4	n/a	n/a	n/a	13	16	5	9	2
2073.2099609375	n/a	PROB	4245934	n/a	LTP391	ltpFR2	4	n/a	n/a	n/a	13	11	2	8	1
2075.27392578125	n/a	PROB	4250161	n/a	LTP391	ltpFR2	4	n/a	n/a	n/a	13	18	8	1	9
2077.26318359375	n/a	PROB	4254235	n/a	LTP391	ltpFR2	4	n/a	n/a	n/a	13	18	5	9	4
2079.10888671875	n/a	PROB	4258015	n/a	LTP391	ltpFR2	4	n/a	n/a	n/a	13	14	9	1	4
2080.47119140625	n/a	PROB	4260805	n/a	LTP391	ltpFR2	4	n/a	n/a	n/a	13	13	8	4	1
2082.0498046875	n/a	PROB	4264038	n/a	LTP391	ltpFR2	4	n/a	n/a	n/a	13	26	9	8	9
2084.19775390625	n/a	PROB	4268437	n/a	LTP391	ltpFR2	4	n/a	n/a	n/a	13	10	1	3	6
2085.40087890625	n/a	PROB	4270901	n/a	LTP391	ltpFR2	4	n/a	n/a	n/a	13	15	5	3	7
2086.6708984375	n/a	PROB	4273502	n/a	LTP391	ltpFR2	4	n/a	n/a	n/a	13	20	9	8	3
2088.7529296875	n/a	STOP	4277766	n/a	LTP391	ltpFR2	4	n/a	n/a	n/a	13	n/a	n/a	n/a	n/a
2091.30859375	n/a	REC_START	4283000	n/a	LTP391	ltpFR2	4	10	n/a	n/a	n/a	n/a	0	0	0
2091.87744140625	n/a	REC_WORD	4284165	wordpools/wasnorm_wordpool_576.txt	LTP391	ltpFR2	4	10	BEAKER	104	n/a	n/a	0	0	0
2092.431640625	n/a	REC_WORD	4285300	wordpools/wasnorm_wordpool_576.txt	LTP391	ltpFR2	4	10	HAMPER	682	n/a	n/a	0	0	0
2093.04345703125	n/a	REC_WORD	4286553	wordpools/wasnorm_wordpool_576.txt	LTP391	ltpFR2	4	10	SISTER	1312	n/a	n/a	0	0	0
2093.82958984375	n/a	REC_WORD	4288163	wordpools/wasnorm_wordpool_576.txt	LTP391	ltpFR2	4	10	BROTHER	179	n/a	n/a	0	0	0
2095.0595703125	n/a	REC_WORD	4290682	wordpools/wasnorm_wordpool_576.txt	LTP391	ltpFR2	4	10	CHEMIST	292	n/a	n/a	0	0	0
2096.09765625	n/a	REC_WORD	4292808	wordpools/wasnorm_wordpool_576.txt	LTP391	ltpFR2	4	10	EMPIRE	530	n/a	n/a	0	0	0
2096.814453125	n/a	REC_WORD	4294276	wordpools/wasnorm_wordpool_576.txt	LTP391	ltpFR2	4	10	VELVET	1555	n/a	n/a	0	0	0
2098.1513671875	n/a	REC_WORD	4297014	wordpools/wasnorm_wordpool_576.txt	LTP391	ltpFR2	4	10	TORTOISE	1486	n/a	n/a	0	0	0
2098.87255859375	n/a	REC_WORD	4298491	wordpools/wasnorm_wordpool_576.txt	LTP391	ltpFR2	4	10	CHIPMUNK	304	n/a	n/a	0	0	0
2099.53955078125	n/a	REC_WORD	4299857	wordpools/wasnorm_wordpool_576.txt	LTP391	ltpFR2	4	10	MAPLE	866	n/a	n/a	0	0	0
2100.20556640625	n/a	REC_WORD	4301221	wordpools/wasnorm_wordpool_576.txt	LTP391	ltpFR2	4	10	GARDEN	623	n/a	n/a	0	0	0
2100.69140625	n/a	REC_WORD	4302216	wordpools/wasnorm_wordpool_576.txt	LTP391	ltpFR2	4	10	FLOWER	584	n/a	n/a	0	0	0
2101.4873046875	n/a	REC_WORD	4303846	wordpools/wasnorm_wordpool_576.txt	LTP391	ltpFR2	4	10	PUPPY	1144	n/a	n/a	0	0	0
2160.34814453125	n/a	REC_WORD	4424393	wordpools/wasnorm_wordpool_576.txt	LTP391	ltpFR2	4	10	VIKING	1565	n/a	n/a	0	0	0
2161.009765625	n/a	REC_WORD	4425748	wordpools/wasnorm_wordpool_576.txt	LTP391	ltpFR2	4	10	RAFT	1159	n/a	n/a	0	0	0
2163.76171875	n/a	REC_WORD	4431384	wordpools/wasnorm_wordpool_576.txt	LTP391	ltpFR2	4	10	CORAL	378	n/a	n/a	0	0	0
2164.544921875	n/a	REC_WORD	4432988	wordpools/wasnorm_wordpool_576.txt	LTP391	ltpFR2	4	10	PORTRAIT	1111	n/a	n/a	0	0	0
2165.0419921875	n/a	REC_WORD	4434006	wordpools/wasnorm_wordpool_576.txt	LTP391	ltpFR2	4	10	FRAME	600	n/a	n/a	0	0	0
2181.74951171875	n/a	WORD	4468223	wordpools/wasnorm_wordpool_576.txt	LTP391	ltpFR2	4	11	VICTIM	1562	n/a	n/a	0	0	0
2184.49853515625	n/a	WORD	4473853	wordpools/wasnorm_wordpool_576.txt	LTP391	ltpFR2	4	11	OUTLAW	989	n/a	n/a	0	0	0
2187.01220703125	n/a	WORD	4479001	wordpools/wasnorm_wordpool_576.txt	LTP391	ltpFR2	4	11	HERO	706	n/a	n/a	0	0	0
2189.56201171875	n/a	WORD	4484223	wordpools/wasnorm_wordpool_576.txt	LTP391	ltpFR2	4	11	LIVER	833	n/a	n/a	0	0	0
2192.34423828125	n/a	WORD	4489921	wordpools/wasnorm_wordpool_576.txt	LTP391	ltpFR2	4	11	PERFUME	1049	n/a	n/a	0	0	0
2194.8251953125	n/a	WORD	4495002	wordpools/wasnorm_wordpool_576.txt	LTP391	ltpFR2	4	11	SODA	1341	n/a	n/a	0	0	0
2197.5	n/a	WORD	4500480	wordpools/wasnorm_wordpool_576.txt	LTP391	ltpFR2	4	11	TURTLE	1522	n/a	n/a	0	0	0
2200.23193359375	n/a	WORD	4506075	wordpools/wasnorm_wordpool_576.txt	LTP391	ltpFR2	4	11	BEAVER	109	n/a	n/a	0	0	0
2203.03076171875	n/a	WORD	4511807	wordpools/wasnorm_wordpool_576.txt	LTP391	ltpFR2	4	11	MONSTER	912	n/a	n/a	0	0	0
2205.82958984375	n/a	WORD	4517539	wordpools/wasnorm_wordpool_576.txt	LTP391	ltpFR2	4	11	LEADER	807	n/a	n/a	0	0	0
2208.5126953125	n/a	WORD	4523034	wordpools/wasnorm_wordpool_576.txt	LTP391	ltpFR2	4	11	TREAT	1501	n/a	n/a	0	0	0
2211.08544921875	n/a	WORD	4528303	wordpools/wasnorm_wordpool_576.txt	LTP391	ltpFR2	4	11	SPOUSE	1358	n/a	n/a	0	0	0
2213.58447265625	n/a	WORD	4533421	wordpools/wasnorm_wordpool_576.txt	LTP391	ltpFR2	4	11	SILK	1307	n/a	n/a	0	0	0
2216.099609375	n/a	WORD	4538572	wordpools/wasnorm_wordpool_576.txt	LTP391	ltpFR2	4	11	HONEY	713	n/a	n/a	0	0	0
2218.54736328125	n/a	WORD	4543585	wordpools/wasnorm_wordpool_576.txt	LTP391	ltpFR2	4	11	SCRIBBLE	1256	n/a	n/a	0	0	0
2221.1884765625	n/a	WORD	4548994	wordpools/wasnorm_wordpool_576.txt	LTP391	ltpFR2	4	11	HEART	697	n/a	n/a	0	0	0
2223.80224609375	n/a	WORD	4554347	wordpools/wasnorm_wordpool_576.txt	LTP391	ltpFR2	4	11	GOBLIN	645	n/a	n/a	0	0	0
2226.39306640625	n/a	WORD	4559653	wordpools/wasnorm_wordpool_576.txt	LTP391	ltpFR2	4	11	PLIERS	1089	n/a	n/a	0	0	0
2229.1591796875	n/a	WORD	4565318	wordpools/wasnorm_wordpool_576.txt	LTP391	ltpFR2	4	11	WIFE	1609	n/a	n/a	0	0	0
2231.68212890625	n/a	WORD	4570485	wordpools/wasnorm_wordpool_576.txt	LTP391	ltpFR2	4	11	BLADE	134	n/a	n/a	0	0	0
2234.15625	n/a	WORD	4575552	wordpools/wasnorm_wordpool_576.txt	LTP391	ltpFR2	4	11	SUBWAY	1400	n/a	n/a	0	0	0
2236.6708984375	n/a	WORD	4580702	wordpools/wasnorm_wordpool_576.txt	LTP391	ltpFR2	4	11	LUNCH	849	n/a	n/a	0	0	0
2239.3701171875	n/a	WORD	4586230	wordpools/wasnorm_wordpool_576.txt	LTP391	ltpFR2	4	11	DINER	467	n/a	n/a	0	0	0
2241.97607421875	n/a	WORD	4591567	wordpools/wasnorm_wordpool_576.txt	LTP391	ltpFR2	4	11	COIN	343	n/a	n/a	0	0	0
2243.58203125	n/a	START	4594856	n/a	LTP391	ltpFR2	4	n/a	n/a	n/a	14	n/a	n/a	n/a	n/a
2244.57275390625	n/a	DISTRACTOR	4596885	n/a	LTP391	ltpFR2	4	11	n/a	n/a	n/a	n/a	0	0	0
2244.57568359375	n/a	PROB	4596891	n/a	LTP391	ltpFR2	4	n/a	n/a	n/a	14	15	7	5	3
2246.01171875	n/a	PROB	4599832	n/a	LTP391	ltpFR2	4	n/a	n/a	n/a	14	4	1	1	2
2247.1318359375	n/a	PROB	4602126	n/a	LTP391	ltpFR2	4	n/a	n/a	n/a	14	19	9	2	8
2248.5107421875	n/a	PROB	4604950	n/a	LTP391	ltpFR2	4	n/a	n/a	n/a	14	11	1	5	5
2249.65576171875	n/a	PROB	4607295	n/a	LTP391	ltpFR2	4	n/a	n/a	n/a	14	16	1	7	8
2251.69482421875	n/a	PROB	4611471	n/a	LTP391	ltpFR2	4	n/a	n/a	n/a	14	12	6	5	1
2253.03076171875	n/a	PROB	4614207	n/a	LTP391	ltpFR2	4	n/a	n/a	n/a	14	14	3	7	4
2254.24267578125	n/a	PROB	4616689	n/a	LTP391	ltpFR2	4	n/a	n/a	n/a	14	14	3	5	6
2256.064453125	n/a	PROB	4620420	n/a	LTP391	ltpFR2	4	n/a	n/a	n/a	14	12	3	7	2
2258.4375	n/a	PROB	4625280	n/a	LTP391	ltpFR2	4	n/a	n/a	n/a	14	10	4	5	1
2261.6123046875	n/a	PROB	4631782	n/a	LTP391	ltpFR2	4	n/a	n/a	n/a	14	17	5	3	9
2264.9873046875	n/a	PROB	4638694	n/a	LTP391	ltpFR2	4	n/a	n/a	n/a	14	13	5	5	3
2266.537109375	n/a	STOP	4641868	n/a	LTP391	ltpFR2	4	n/a	n/a	n/a	14	n/a	n/a	n/a	n/a
2269.484375	n/a	REC_START	4647904	n/a	LTP391	ltpFR2	4	11	n/a	n/a	n/a	n/a	0	0	0
2270.5771484375	n/a	REC_WORD	4650142	wordpools/wasnorm_wordpool_576.txt	LTP391	ltpFR2	4	11	VICTIM	1562	n/a	n/a	0	0	0
2271.65087890625	n/a	REC_WORD	4652341	wordpools/wasnorm_wordpool_576.txt	LTP391	ltpFR2	4	11	OUTLAW	989	n/a	n/a	0	0	0
2272.48193359375	n/a	REC_WORD	4654043	wordpools/wasnorm_wordpool_576.txt	LTP391	ltpFR2	4	11	MONSTER	912	n/a	n/a	0	0	0
2273.2158203125	n/a	REC_WORD	4655546	wordpools/wasnorm_wordpool_576.txt	LTP391	ltpFR2	4	11	GOBLIN	645	n/a	n/a	0	0	0
2273.86181640625	n/a	REC_WORD	4656869	wordpools/wasnorm_wordpool_576.txt	LTP391	ltpFR2	4	11	LEADER	807	n/a	n/a	0	0	0
2274.39501953125	n/a	REC_WORD	4657961	wordpools/wasnorm_wordpool_576.txt	LTP391	ltpFR2	4	11	HERO	706	n/a	n/a	0	0	0
2274.990234375	n/a	REC_WORD	4659180	wordpools/wasnorm_wordpool_576.txt	LTP391	ltpFR2	4	11	SPOUSE	1358	n/a	n/a	0	0	0
2275.876953125	n/a	REC_WORD	4660996	wordpools/wasnorm_wordpool_576.txt	LTP391	ltpFR2	4	11	WIFE	1609	n/a	n/a	0	0	0
2276.55908203125	n/a	REC_WORD	4662393	wordpools/wasnorm_wordpool_576.txt	LTP391	ltpFR2	4	11	PERFUME	1049	n/a	n/a	0	0	0
2277.1259765625	n/a	REC_WORD	4663554	wordpools/wasnorm_wordpool_576.txt	LTP391	ltpFR2	4	11	HONEY	713	n/a	n/a	0	0	0
2278.287109375	n/a	REC_WORD	4665932	wordpools/wasnorm_wordpool_576.txt	LTP391	ltpFR2	4	11	LIVER	833	n/a	n/a	0	0	0
2278.86669921875	n/a	REC_WORD	4667119	wordpools/wasnorm_wordpool_576.txt	LTP391	ltpFR2	4	11	HEART	697	n/a	n/a	0	0	0
2279.5107421875	n/a	REC_WORD	4668438	wordpools/wasnorm_wordpool_576.txt	LTP391	ltpFR2	4	11	PLIERS	1089	n/a	n/a	0	0	0
2285.01953125	n/a	REC_WORD	4679720	wordpools/wasnorm_wordpool_576.txt	LTP391	ltpFR2	4	11	DINER	467	n/a	n/a	0	0	0
2285.61181640625	n/a	REC_WORD	4680933	wordpools/wasnorm_wordpool_576.txt	LTP391	ltpFR2	4	11	LUNCH	849	n/a	n/a	0	0	0
2288.99951171875	n/a	REC_WORD	4687871	wordpools/wasnorm_wordpool_576.txt	LTP391	ltpFR2	4	11	BEAVER	109	n/a	n/a	0	0	0
2290.70849609375	n/a	REC_WORD	4691371	wordpools/wasnorm_wordpool_576.txt	LTP391	ltpFR2	4	11	TURTLE	1522	n/a	n/a	0	0	0
2304.25634765625	n/a	REC_WORD	4719117	wordpools/wasnorm_wordpool_576.txt	LTP391	ltpFR2	4	11	SODA	1341	n/a	n/a	0	0	0
2304.92431640625	n/a	REC_WORD	4720485	wordpools/wasnorm_wordpool_576.txt	LTP391	ltpFR2	4	11	TREAT	1501	n/a	n/a	0	0	0
2331.4404296875	n/a	REC_WORD	4774790	wordpools/wasnorm_wordpool_576.txt	LTP391	ltpFR2	4	11	SUBWAY	1400	n/a	n/a	0	0	0
2332.20166015625	n/a	REC_WORD	4776349	wordpools/wasnorm_wordpool_576.txt	LTP391	ltpFR2	4	11	COIN	343	n/a	n/a	0	0	0
2338.49462890625	n/a	REC_WORD	4789237	wordpools/wasnorm_wordpool_576.txt	LTP391	ltpFR2	4	11	BLADE	134	n/a	n/a	0	0	0
2359.90673828125	n/a	DISTRACTOR	4833089	n/a	LTP391	ltpFR2	4	12	n/a	n/a	n/a	n/a	0	0	0
2359.90673828125	n/a	START	4833089	n/a	LTP391	ltpFR2	4	n/a	n/a	n/a	15	n/a	n/a	n/a	n/a
2359.923828125	n/a	PROB	4833124	n/a	LTP391	ltpFR2	4	n/a	n/a	n/a	15	17	7	2	8
2361.53662109375	n/a	PROB	4836427	n/a	LTP391	ltpFR2	4	n/a	n/a	n/a	15	13	8	3	2
2362.91455078125	n/a	PROB	4839249	n/a	LTP391	ltpFR2	4	n/a	n/a	n/a	15	18	7	2	9
2364.95361328125	n/a	PROB	4843425	n/a	LTP391	ltpFR2	4	n/a	n/a	n/a	15	20	8	9	3
2367.73681640625	n/a	PROB	4849125	n/a	LTP391	ltpFR2	4	n/a	n/a	n/a	15	23	8	8	7
2371.41357421875	n/a	PROB	4856655	n/a	LTP391	ltpFR2	4	n/a	n/a	n/a	15	20	8	5	7
2375.4404296875	n/a	PROB	4864902	n/a	LTP391	ltpFR2	4	n/a	n/a	n/a	15	24	9	7	8
2378.482421875	n/a	PROB	4871132	n/a	LTP391	ltpFR2	4	n/a	n/a	n/a	15	16	7	6	2
2380.67138671875	n/a	PROB	4875615	n/a	LTP391	ltpFR2	4	n/a	n/a	n/a	15	20	6	9	5
2383.41748046875	n/a	STOP	4881239	n/a	LTP391	ltpFR2	4	n/a	n/a	n/a	15	n/a	n/a	n/a	n/a
2385.06640625	n/a	WORD	4884616	wordpools/wasnorm_wordpool_576.txt	LTP391	ltpFR2	4	12	GYMNAST	675	n/a	n/a	0	0	0
2387.83935546875	n/a	WORD	4890295	wordpools/wasnorm_wordpool_576.txt	LTP391	ltpFR2	4	12	SUNSET	1408	n/a	n/a	0	0	0
2390.27197265625	n/a	WORD	4895277	wordpools/wasnorm_wordpool_576.txt	LTP391	ltpFR2	4	12	CITRUS	313	n/a	n/a	0	0	0
2392.9111328125	n/a	WORD	4900682	wordpools/wasnorm_wordpool_576.txt	LTP391	ltpFR2	4	12	PAPER	1011	n/a	n/a	0	0	0
2395.544921875	n/a	WORD	4906076	wordpools/wasnorm_wordpool_576.txt	LTP391	ltpFR2	4	12	CHURCH	307	n/a	n/a	0	0	0
2397.9580078125	n/a	WORD	4911018	wordpools/wasnorm_wordpool_576.txt	LTP391	ltpFR2	4	12	CROSS	413	n/a	n/a	0	0	0
2400.3740234375	n/a	WORD	4915966	wordpools/wasnorm_wordpool_576.txt	LTP391	ltpFR2	4	12	QUEEN	1149	n/a	n/a	0	0	0
2403.12255859375	n/a	WORD	4921595	wordpools/wasnorm_wordpool_576.txt	LTP391	ltpFR2	4	12	PIZZA	1079	n/a	n/a	0	0	0
2405.8037109375	n/a	WORD	4927086	wordpools/wasnorm_wordpool_576.txt	LTP391	ltpFR2	4	12	PASTA	1021	n/a	n/a	0	0	0
2408.24462890625	n/a	WORD	4932085	wordpools/wasnorm_wordpool_576.txt	LTP391	ltpFR2	4	12	ROD	1203	n/a	n/a	0	0	0
2410.79248046875	n/a	WORD	4937303	wordpools/wasnorm_wordpool_576.txt	LTP391	ltpFR2	4	12	SURVEY	1414	n/a	n/a	0	0	0
2413.40869140625	n/a	WORD	4942661	wordpools/wasnorm_wordpool_576.txt	LTP391	ltpFR2	4	12	TOMBSTONE	1478	n/a	n/a	0	0	0
2416.19140625	n/a	WORD	4948360	wordpools/wasnorm_wordpool_576.txt	LTP391	ltpFR2	4	12	PARROT	1015	n/a	n/a	0	0	0
2418.7734375	n/a	WORD	4953648	wordpools/wasnorm_wordpool_576.txt	LTP391	ltpFR2	4	12	COURSE	390	n/a	n/a	0	0	0
2421.22119140625	n/a	WORD	4958661	wordpools/wasnorm_wordpool_576.txt	LTP391	ltpFR2	4	12	DONOR	485	n/a	n/a	0	0	0
2423.736328125	n/a	WORD	4963812	wordpools/wasnorm_wordpool_576.txt	LTP391	ltpFR2	4	12	OINTMENT	974	n/a	n/a	0	0	0
2426.39306640625	n/a	WORD	4969253	wordpools/wasnorm_wordpool_576.txt	LTP391	ltpFR2	4	12	PICTURE	1061	n/a	n/a	0	0	0
2428.84033203125	n/a	WORD	4974265	wordpools/wasnorm_wordpool_576.txt	LTP391	ltpFR2	4	12	RECORD	1176	n/a	n/a	0	0	0
2431.5400390625	n/a	WORD	4979794	wordpools/wasnorm_wordpool_576.txt	LTP391	ltpFR2	4	12	MARSH	874	n/a	n/a	0	0	0
2434.34814453125	n/a	WORD	4985545	wordpools/wasnorm_wordpool_576.txt	LTP391	ltpFR2	4	12	COWBOY	395	n/a	n/a	0	0	0
2436.8701171875	n/a	WORD	4990710	wordpools/wasnorm_wordpool_576.txt	LTP391	ltpFR2	4	12	JUGGLER	763	n/a	n/a	0	0	0
2439.32763671875	n/a	WORD	4995743	wordpools/wasnorm_wordpool_576.txt	LTP391	ltpFR2	4	12	LIGHTNING	820	n/a	n/a	0	0	0
2441.8837890625	n/a	WORD	5000978	wordpools/wasnorm_wordpool_576.txt	LTP391	ltpFR2	4	12	BRANCH	168	n/a	n/a	0	0	0
2444.44970703125	n/a	WORD	5006233	wordpools/wasnorm_wordpool_576.txt	LTP391	ltpFR2	4	12	GRIZZLY	662	n/a	n/a	0	0	0
2446.0546875	n/a	START	5009520	n/a	LTP391	ltpFR2	4	n/a	n/a	n/a	16	n/a	n/a	n/a	n/a
2446.892578125	n/a	DISTRACTOR	5011236	n/a	LTP391	ltpFR2	4	12	n/a	n/a	n/a	n/a	0	0	0
2446.896484375	n/a	PROB	5011244	n/a	LTP391	ltpFR2	4	n/a	n/a	n/a	16	14	5	6	3
2449.23779296875	n/a	PROB	5016039	n/a	LTP391	ltpFR2	4	n/a	n/a	n/a	16	23	8	9	6
2452.12060546875	n/a	PROB	5021943	n/a	LTP391	ltpFR2	4	n/a	n/a	n/a	16	8	5	2	1
2453.2646484375	n/a	PROB	5024286	n/a	LTP391	ltpFR2	4	n/a	n/a	n/a	16	15	2	6	7
2456.064453125	n/a	PROB	5030020	n/a	LTP391	ltpFR2	4	n/a	n/a	n/a	16	9	5	1	3
2457.6015625	n/a	PROB	5033168	n/a	LTP391	ltpFR2	4	n/a	n/a	n/a	16	18	4	9	5
2459.0634765625	n/a	PROB	5036162	n/a	LTP391	ltpFR2	4	n/a	n/a	n/a	16	11	1	7	3
2460.25048828125	n/a	PROB	5038593	n/a	LTP391	ltpFR2	4	n/a	n/a	n/a	16	17	4	6	7
2461.8203125	n/a	PROB	5041808	n/a	LTP391	ltpFR2	4	n/a	n/a	n/a	16	13	3	4	6
2463.958984375	n/a	PROB	5046188	n/a	LTP391	ltpFR2	4	n/a	n/a	n/a	16	17	3	8	6
2465.92236328125	n/a	PROB	5050209	n/a	LTP391	ltpFR2	4	n/a	n/a	n/a	16	15	1	9	5
2467.251953125	n/a	PROB	5052932	n/a	LTP391	ltpFR2	4	n/a	n/a	n/a	16	19	4	9	6
2468.56201171875	n/a	STOP	5055615	n/a	LTP391	ltpFR2	4	n/a	n/a	n/a	16	n/a	n/a	n/a	n/a
2471.8310546875	n/a	REC_START	5062310	n/a	LTP391	ltpFR2	4	12	n/a	n/a	n/a	n/a	0	0	0
2472.837890625	n/a	REC_WORD	5064372	wordpools/wasnorm_wordpool_576.txt	LTP391	ltpFR2	4	12	CHURCH	307	n/a	n/a	0	0	0
2473.52197265625	n/a	REC_WORD	5065773	wordpools/wasnorm_wordpool_576.txt	LTP391	ltpFR2	4	12	CROSS	413	n/a	n/a	0	0	0
2475.15869140625	n/a	REC_WORD	5069125	wordpools/wasnorm_wordpool_576.txt	LTP391	ltpFR2	4	12	BRANCH	168	n/a	n/a	0	0	0
2475.77490234375	n/a	REC_WORD	5070387	wordpools/wasnorm_wordpool_576.txt	LTP391	ltpFR2	4	12	LIGHTNING	820	n/a	n/a	0	0	0
2478.1787109375	n/a	REC_WORD	5075310	wordpools/wasnorm_wordpool_576.txt	LTP391	ltpFR2	4	12	ROD	1203	n/a	n/a	0	0	0
2478.85986328125	n/a	REC_WORD	5076705	wordpools/wasnorm_wordpool_576.txt	LTP391	ltpFR2	4	12	GYMNAST	675	n/a	n/a	0	0	0
2526.42578125	n/a	REC_WORD	5174120	wordpools/wasnorm_wordpool_576.txt	LTP391	ltpFR2	4	12	CITRUS	313	n/a	n/a	0	0	0
2534.29345703125	n/a	REC_WORD	5190233	wordpools/wasnorm_wordpool_576.txt	LTP391	ltpFR2	4	12	PIZZA	1079	n/a	n/a	0	0	0
2534.78955078125	n/a	REC_WORD	5191249	wordpools/wasnorm_wordpool_576.txt	LTP391	ltpFR2	4	12	PASTA	1021	n/a	n/a	0	0	0
2538.7275390625	n/a	REC_WORD	5199314	wordpools/wasnorm_wordpool_576.txt	LTP391	ltpFR2	4	12	SUNSET	1408	n/a	n/a	0	0	0
2562.255859375	n/a	DISTRACTOR	5247500	n/a	LTP391	ltpFR2	4	13	n/a	n/a	n/a	n/a	0	0	0
2562.255859375	n/a	START	5247500	n/a	LTP391	ltpFR2	4	n/a	n/a	n/a	17	n/a	n/a	n/a	n/a
2562.2724609375	n/a	PROB	5247534	n/a	LTP391	ltpFR2	4	n/a	n/a	n/a	17	14	6	6	2
2563.81689453125	n/a	PROB	5250697	n/a	LTP391	ltpFR2	4	n/a	n/a	n/a	17	10	7	1	2
2565.21337890625	n/a	PROB	5253557	n/a	LTP391	ltpFR2	4	n/a	n/a	n/a	17	17	4	6	7
2566.55078125	n/a	PROB	5256296	n/a	LTP391	ltpFR2	4	n/a	n/a	n/a	17	8	1	1	6
2567.7197265625	n/a	PROB	5258690	n/a	LTP391	ltpFR2	4	n/a	n/a	n/a	17	19	9	5	5
2568.87255859375	n/a	PROB	5261051	n/a	LTP391	ltpFR2	4	n/a	n/a	n/a	17	15	1	9	5
2570.21826171875	n/a	PROB	5263807	n/a	LTP391	ltpFR2	4	n/a	n/a	n/a	17	6	2	2	2
2571.4296875	n/a	PROB	5266288	n/a	LTP391	ltpFR2	4	n/a	n/a	n/a	17	23	8	9	6
2575.0302734375	n/a	PROB	5273662	n/a	LTP391	ltpFR2	4	n/a	n/a	n/a	17	19	3	7	9
2576.4013671875	n/a	PROB	5276470	n/a	LTP391	ltpFR2	4	n/a	n/a	n/a	17	14	4	4	6
2578.09716796875	n/a	PROB	5279943	n/a	LTP391	ltpFR2	4	n/a	n/a	n/a	17	19	5	8	6
2579.943359375	n/a	PROB	5283724	n/a	LTP391	ltpFR2	4	n/a	n/a	n/a	17	13	3	7	3
2581.197265625	n/a	PROB	5286292	n/a	LTP391	ltpFR2	4	n/a	n/a	n/a	17	19	4	9	6
2582.59326171875	n/a	PROB	5289151	n/a	LTP391	ltpFR2	4	n/a	n/a	n/a	17	16	1	9	6
2584.9541015625	n/a	STOP	5293986	n/a	LTP391	ltpFR2	4	n/a	n/a	n/a	17	n/a	n/a	n/a	n/a
2587.3642578125	n/a	WORD	5298922	wordpools/wasnorm_wordpool_576.txt	LTP391	ltpFR2	4	13	HAND	683	n/a	n/a	0	0	0
2589.7861328125	n/a	WORD	5303882	wordpools/wasnorm_wordpool_576.txt	LTP391	ltpFR2	4	13	PRINCE	1124	n/a	n/a	0	0	0
2592.376953125	n/a	WORD	5309188	wordpools/wasnorm_wordpool_576.txt	LTP391	ltpFR2	4	13	ORCHID	982	n/a	n/a	0	0	0
2595.05078125	n/a	WORD	5314664	wordpools/wasnorm_wordpool_576.txt	LTP391	ltpFR2	4	13	DRESSER	496	n/a	n/a	0	0	0
2597.798828125	n/a	WORD	5320292	wordpools/wasnorm_wordpool_576.txt	LTP391	ltpFR2	4	13	WASHER	1592	n/a	n/a	0	0	0
2600.390625	n/a	WORD	5325600	wordpools/wasnorm_wordpool_576.txt	LTP391	ltpFR2	4	13	FRANCE	601	n/a	n/a	0	0	0
2603.16455078125	n/a	WORD	5331281	wordpools/wasnorm_wordpool_576.txt	LTP391	ltpFR2	4	13	MOP	916	n/a	n/a	0	0	0
2605.86279296875	n/a	WORD	5336807	wordpools/wasnorm_wordpool_576.txt	LTP391	ltpFR2	4	13	BARLEY	88	n/a	n/a	0	0	0
2608.32861328125	n/a	WORD	5341857	wordpools/wasnorm_wordpool_576.txt	LTP391	ltpFR2	4	13	BOUQUET	157	n/a	n/a	0	0	0
2610.83447265625	n/a	WORD	5346989	wordpools/wasnorm_wordpool_576.txt	LTP391	ltpFR2	4	13	DRAGON	492	n/a	n/a	0	0	0
2613.58447265625	n/a	WORD	5352621	wordpools/wasnorm_wordpool_576.txt	LTP391	ltpFR2	4	13	PEBBLE	1035	n/a	n/a	0	0	0
2616.17431640625	n/a	WORD	5357925	wordpools/wasnorm_wordpool_576.txt	LTP391	ltpFR2	4	13	BIKE	125	n/a	n/a	0	0	0
2618.63916015625	n/a	WORD	5362973	wordpools/wasnorm_wordpool_576.txt	LTP391	ltpFR2	4	13	BINDER	127	n/a	n/a	0	0	0
2621.05419921875	n/a	WORD	5367919	wordpools/wasnorm_wordpool_576.txt	LTP391	ltpFR2	4	13	SALT	1229	n/a	n/a	0	0	0
2623.51904296875	n/a	WORD	5372967	wordpools/wasnorm_wordpool_576.txt	LTP391	ltpFR2	4	13	FIREPLACE	570	n/a	n/a	0	0	0
2626.19189453125	n/a	WORD	5378441	wordpools/wasnorm_wordpool_576.txt	LTP391	ltpFR2	4	13	VALLEY	1545	n/a	n/a	0	0	0
2628.8818359375	n/a	WORD	5383950	wordpools/wasnorm_wordpool_576.txt	LTP391	ltpFR2	4	13	SLOPE	1328	n/a	n/a	0	0	0
2631.39013671875	n/a	WORD	5389087	wordpools/wasnorm_wordpool_576.txt	LTP391	ltpFR2	4	13	EXPERT	543	n/a	n/a	0	0	0
2634.07177734375	n/a	WORD	5394579	wordpools/wasnorm_wordpool_576.txt	LTP391	ltpFR2	4	13	TWISTER	1530	n/a	n/a	0	0	0
2636.5947265625	n/a	WORD	5399746	wordpools/wasnorm_wordpool_576.txt	LTP391	ltpFR2	4	13	CARRIAGE	248	n/a	n/a	0	0	0
2639.3525390625	n/a	WORD	5405394	wordpools/wasnorm_wordpool_576.txt	LTP391	ltpFR2	4	13	LAPEL	800	n/a	n/a	0	0	0
2642.04150390625	n/a	WORD	5410901	wordpools/wasnorm_wordpool_576.txt	LTP391	ltpFR2	4	13	CONCERT	360	n/a	n/a	0	0	0
2644.7333984375	n/a	WORD	5416414	wordpools/wasnorm_wordpool_576.txt	LTP391	ltpFR2	4	13	POET	1095	n/a	n/a	0	0	0
2647.53271484375	n/a	WORD	5422147	wordpools/wasnorm_wordpool_576.txt	LTP391	ltpFR2	4	13	WASP	1593	n/a	n/a	0	0	0
2649.1376953125	n/a	START	5425434	n/a	LTP391	ltpFR2	4	n/a	n/a	n/a	18	n/a	n/a	n/a	n/a
2649.99658203125	n/a	DISTRACTOR	5427193	n/a	LTP391	ltpFR2	4	13	n/a	n/a	n/a	n/a	0	0	0
2650.00537109375	n/a	PROB	5427211	n/a	LTP391	ltpFR2	4	n/a	n/a	n/a	18	17	6	9	2
2652.0693359375	n/a	PROB	5431438	n/a	LTP391	ltpFR2	4	n/a	n/a	n/a	18	17	7	9	1
2653.982421875	n/a	PROB	5435356	n/a	LTP391	ltpFR2	4	n/a	n/a	n/a	18	10	7	1	2
2655.2861328125	n/a	PROB	5438026	n/a	LTP391	ltpFR2	4	n/a	n/a	n/a	18	8	2	4	2
2659.08837890625	n/a	PROB	5445813	n/a	LTP391	ltpFR2	4	n/a	n/a	n/a	18	8	3	4	1
2660.72607421875	n/a	PROB	5449167	n/a	LTP391	ltpFR2	4	n/a	n/a	n/a	18	14	4	8	2
2662.52294921875	n/a	PROB	5452847	n/a	LTP391	ltpFR2	4	n/a	n/a	n/a	18	9	2	6	1
2663.85009765625	n/a	PROB	5455565	n/a	LTP391	ltpFR2	4	n/a	n/a	n/a	18	17	1	9	7
2665.14599609375	n/a	PROB	5458219	n/a	LTP391	ltpFR2	4	n/a	n/a	n/a	18	14	5	8	1
2667.30224609375	n/a	PROB	5462635	n/a	LTP391	ltpFR2	4	n/a	n/a	n/a	18	23	9	6	7
2671.11181640625	n/a	PROB	5470437	n/a	LTP391	ltpFR2	4	n/a	n/a	n/a	18	12	6	2	4
2672.8818359375	n/a	STOP	5474062	n/a	LTP391	ltpFR2	4	n/a	n/a	n/a	18	n/a	n/a	n/a	n/a
2674.921875	n/a	REC_START	5478240	n/a	LTP391	ltpFR2	4	13	n/a	n/a	n/a	n/a	0	0	0
2676.4345703125	n/a	REC_WORD	5481338	wordpools/wasnorm_wordpool_576.txt	LTP391	ltpFR2	4	13	PRINCE	1124	n/a	n/a	0	0	0
2677.921875	n/a	REC_WORD	5484384	wordpools/wasnorm_wordpool_576.txt	LTP391	ltpFR2	4	13	LAPEL	800	n/a	n/a	0	0	0
2678.98291015625	n/a	REC_WORD	5486557	wordpools/wasnorm_wordpool_576.txt	LTP391	ltpFR2	4	13	WASHER	1592	n/a	n/a	0	0	0
2679.69873046875	n/a	REC_WORD	5488023	wordpools/wasnorm_wordpool_576.txt	LTP391	ltpFR2	4	13	DRESSER	496	n/a	n/a	0	0	0
2680.62744140625	n/a	REC_WORD	5489925	wordpools/wasnorm_wordpool_576.txt	LTP391	ltpFR2	4	13	MOP	916	n/a	n/a	0	0	0
2682.1005859375	n/a	REC_WORD	5492942	wordpools/wasnorm_wordpool_576.txt	LTP391	ltpFR2	4	13	CARRIAGE	248	n/a	n/a	0	0	0
2682.8505859375	n/a	REC_WORD	5494478	wordpools/wasnorm_wordpool_576.txt	LTP391	ltpFR2	4	13	CONCERT	360	n/a	n/a	0	0	0
2683.56640625	n/a	REC_WORD	5495944	wordpools/wasnorm_wordpool_576.txt	LTP391	ltpFR2	4	13	POET	1095	n/a	n/a	0	0	0
2684.71337890625	n/a	REC_WORD	5498293	wordpools/wasnorm_wordpool_576.txt	LTP391	ltpFR2	4	13	BIKE	125	n/a	n/a	0	0	0
2685.232421875	n/a	REC_WORD	5499356	wordpools/wasnorm_wordpool_576.txt	LTP391	ltpFR2	4	13	SLOPE	1328	n/a	n/a	0	0	0
2686.1435546875	n/a	REC_WORD	5501222	wordpools/wasnorm_wordpool_576.txt	LTP391	ltpFR2	4	13	EXPERT	543	n/a	n/a	0	0	0
2686.7734375	n/a	REC_WORD	5502512	wordpools/wasnorm_wordpool_576.txt	LTP391	ltpFR2	4	13	VALLEY	1545	n/a	n/a	0	0	0
2699.83935546875	n/a	REC_WORD	5529271	wordpools/wasnorm_wordpool_576.txt	LTP391	ltpFR2	4	13	HAND	683	n/a	n/a	0	0	0
2729.20166015625	n/a	REC_WORD	5589405	wordpools/wasnorm_wordpool_576.txt	LTP391	ltpFR2	4	13	WASP	1593	n/a	n/a	0	0	0
2741.416015625	n/a	REC_WORD	5614420	wordpools/wasnorm_wordpool_576.txt	LTP391	ltpFR2	4	13	PEBBLE	1035	n/a	n/a	0	0	0
2742.26611328125	n/a	REC_WORD	5616161	wordpools/wasnorm_wordpool_576.txt	LTP391	ltpFR2	4	13	DRAGON	492	n/a	n/a	0	0	0
2765.35546875	n/a	WORD	5663448	wordpools/wasnorm_wordpool_576.txt	LTP391	ltpFR2	4	14	HUSBAND	728	n/a	n/a	0	0	0
2767.84423828125	n/a	WORD	5668545	wordpools/wasnorm_wordpool_576.txt	LTP391	ltpFR2	4	14	EYELASH	546	n/a	n/a	0	0	0
2770.3681640625	n/a	WORD	5673714	wordpools/wasnorm_wordpool_576.txt	LTP391	ltpFR2	4	14	PIGEON	1065	n/a	n/a	0	0	0
2773.109375	n/a	WORD	5679328	wordpools/wasnorm_wordpool_576.txt	LTP391	ltpFR2	4	14	MATTRESS	879	n/a	n/a	0	0	0
2775.865234375	n/a	WORD	5684972	wordpools/wasnorm_wordpool_576.txt	LTP391	ltpFR2	4	14	GHETTO	633	n/a	n/a	0	0	0
2778.3310546875	n/a	WORD	5690022	wordpools/wasnorm_wordpool_576.txt	LTP391	ltpFR2	4	14	SERVANT	1271	n/a	n/a	0	0	0
2781.06396484375	n/a	WORD	5695619	wordpools/wasnorm_wordpool_576.txt	LTP391	ltpFR2	4	14	CABIN	211	n/a	n/a	0	0	0
2783.86181640625	n/a	WORD	5701349	wordpools/wasnorm_wordpool_576.txt	LTP391	ltpFR2	4	14	BLUEPRINT	142	n/a	n/a	0	0	0
2786.4111328125	n/a	WORD	5706570	wordpools/wasnorm_wordpool_576.txt	LTP391	ltpFR2	4	14	GIRL	637	n/a	n/a	0	0	0
2789.02587890625	n/a	WORD	5711925	wordpools/wasnorm_wordpool_576.txt	LTP391	ltpFR2	4	14	SEAL	1262	n/a	n/a	0	0	0
2791.64990234375	n/a	WORD	5717299	wordpools/wasnorm_wordpool_576.txt	LTP391	ltpFR2	4	14	SHARK	1275	n/a	n/a	0	0	0
2794.181640625	n/a	WORD	5722484	wordpools/wasnorm_wordpool_576.txt	LTP391	ltpFR2	4	14	VAGRANT	1544	n/a	n/a	0	0	0
2796.9716796875	n/a	WORD	5728198	wordpools/wasnorm_wordpool_576.txt	LTP391	ltpFR2	4	14	LABEL	790	n/a	n/a	0	0	0
2799.57958984375	n/a	WORD	5733539	wordpools/wasnorm_wordpool_576.txt	LTP391	ltpFR2	4	14	FLUTE	585	n/a	n/a	0	0	0
2802.103515625	n/a	WORD	5738708	wordpools/wasnorm_wordpool_576.txt	LTP391	ltpFR2	4	14	PIANO	1057	n/a	n/a	0	0	0
2804.66064453125	n/a	WORD	5743945	wordpools/wasnorm_wordpool_576.txt	LTP391	ltpFR2	4	14	CATCHER	258	n/a	n/a	0	0	0
2807.20849609375	n/a	WORD	5749163	wordpools/wasnorm_wordpool_576.txt	LTP391	ltpFR2	4	14	HOOK	715	n/a	n/a	0	0	0
2809.70654296875	n/a	WORD	5754279	wordpools/wasnorm_wordpool_576.txt	LTP391	ltpFR2	4	14	DRUG	501	n/a	n/a	0	0	0
2812.48046875	n/a	WORD	5759960	wordpools/wasnorm_wordpool_576.txt	LTP391	ltpFR2	4	14	HOUND	724	n/a	n/a	0	0	0
2814.92822265625	n/a	WORD	5764973	wordpools/wasnorm_wordpool_576.txt	LTP391	ltpFR2	4	14	MACHINE	852	n/a	n/a	0	0	0
2817.6533203125	n/a	WORD	5770554	wordpools/wasnorm_wordpool_576.txt	LTP391	ltpFR2	4	14	PARTNER	1017	n/a	n/a	0	0	0
2820.38525390625	n/a	WORD	5776149	wordpools/wasnorm_wordpool_576.txt	LTP391	ltpFR2	4	14	THRONE	1461	n/a	n/a	0	0	0
2822.85693359375	n/a	WORD	5781211	wordpools/wasnorm_wordpool_576.txt	LTP391	ltpFR2	4	14	STALLION	1369	n/a	n/a	0	0	0
2825.2900390625	n/a	WORD	5786194	wordpools/wasnorm_wordpool_576.txt	LTP391	ltpFR2	4	14	FILM	565	n/a	n/a	0	0	0
2826.89404296875	n/a	START	5789479	n/a	LTP391	ltpFR2	4	n/a	n/a	n/a	19	n/a	n/a	n/a	n/a
2827.8037109375	n/a	DISTRACTOR	5791342	n/a	LTP391	ltpFR2	4	14	n/a	n/a	n/a	n/a	0	0	0
2827.81201171875	n/a	PROB	5791359	n/a	LTP391	ltpFR2	4	n/a	n/a	n/a	19	22	9	6	7
2831.0810546875	n/a	PROB	5798054	n/a	LTP391	ltpFR2	4	n/a	n/a	n/a	19	18	6	4	8
2832.2919921875	n/a	PROB	5800534	n/a	LTP391	ltpFR2	4	n/a	n/a	n/a	19	8	2	2	4
2833.8369140625	n/a	PROB	5803698	n/a	LTP391	ltpFR2	4	n/a	n/a	n/a	19	15	9	1	5
2834.91455078125	n/a	PROB	5805905	n/a	LTP391	ltpFR2	4	n/a	n/a	n/a	19	21	8	9	4
2838.7255859375	n/a	PROB	5813710	n/a	LTP391	ltpFR2	4	n/a	n/a	n/a	19	8	2	1	5
2839.86962890625	n/a	PROB	5816053	n/a	LTP391	ltpFR2	4	n/a	n/a	n/a	19	16	2	6	8
2841.5498046875	n/a	PROB	5819494	n/a	LTP391	ltpFR2	4	n/a	n/a	n/a	19	17	7	1	9
2843.28759765625	n/a	PROB	5823053	n/a	LTP391	ltpFR2	4	n/a	n/a	n/a	19	8	5	2	1
2844.42431640625	n/a	PROB	5825381	n/a	LTP391	ltpFR2	4	n/a	n/a	n/a	19	17	5	6	6
2846.0625	n/a	PROB	5828736	n/a	LTP391	ltpFR2	4	n/a	n/a	n/a	19	18	9	5	4
2847.44921875	n/a	PROB	5831576	n/a	LTP391	ltpFR2	4	n/a	n/a	n/a	19	13	3	7	3
2848.67724609375	n/a	PROB	5834091	n/a	LTP391	ltpFR2	4	n/a	n/a	n/a	19	9	2	5	2
2850.611328125	n/a	STOP	5838052	n/a	LTP391	ltpFR2	4	n/a	n/a	n/a	19	n/a	n/a	n/a	n/a
2852.73046875	n/a	REC_START	5842392	n/a	LTP391	ltpFR2	4	14	n/a	n/a	n/a	n/a	0	0	0
2853.5751953125	n/a	REC_WORD	5844122	wordpools/wasnorm_wordpool_576.txt	LTP391	ltpFR2	4	14	HUSBAND	728	n/a	n/a	0	0	0
2854.2900390625	n/a	REC_WORD	5845586	wordpools/wasnorm_wordpool_576.txt	LTP391	ltpFR2	4	14	PARTNER	1017	n/a	n/a	0	0	0
2855.01806640625	n/a	REC_WORD	5847077	wordpools/wasnorm_wordpool_576.txt	LTP391	ltpFR2	4	14	GIRL	637	n/a	n/a	0	0	0
2856.72216796875	n/a	REC_WORD	5850567	wordpools/wasnorm_wordpool_576.txt	LTP391	ltpFR2	4	14	THRONE	1461	n/a	n/a	0	0	0
2858.5810546875	n/a	REC_WORD	5854374	wordpools/wasnorm_wordpool_576.txt	LTP391	ltpFR2	4	14	STALLION	1369	n/a	n/a	0	0	0
2859.52392578125	n/a	REC_WORD	5856305	wordpools/wasnorm_wordpool_576.txt	LTP391	ltpFR2	4	14	SHARK	1275	n/a	n/a	0	0	0
2860.1611328125	n/a	REC_WORD	5857610	wordpools/wasnorm_wordpool_576.txt	LTP391	ltpFR2	4	14	SEAL	1262	n/a	n/a	0	0	0
2863.76123046875	n/a	REC_WORD	5864983	wordpools/wasnorm_wordpool_576.txt	LTP391	ltpFR2	4	14	FILM	565	n/a	n/a	0	0	0
2864.8720703125	n/a	REC_WORD	5867258	wordpools/wasnorm_wordpool_576.txt	LTP391	ltpFR2	4	14	GHETTO	633	n/a	n/a	0	0	0
2865.49609375	n/a	REC_WORD	5868536	wordpools/wasnorm_wordpool_576.txt	LTP391	ltpFR2	4	14	MATTRESS	879	n/a	n/a	0	0	0
2867.52392578125	n/a	REC_WORD	5872689	wordpools/wasnorm_wordpool_576.txt	LTP391	ltpFR2	4	14	DRUG	501	n/a	n/a	0	0	0
2869.32275390625	n/a	REC_WORD	5876373	wordpools/wasnorm_wordpool_576.txt	LTP391	ltpFR2	4	14	MACHINE	852	n/a	n/a	0	0	0
2870.7587890625	n/a	REC_WORD	5879314	wordpools/wasnorm_wordpool_576.txt	LTP391	ltpFR2	4	14	HOOK	715	n/a	n/a	0	0	0
2871.53857421875	n/a	REC_WORD	5880911	wordpools/wasnorm_wordpool_576.txt	LTP391	ltpFR2	4	14	CATCHER	258	n/a	n/a	0	0	0
2872.11962890625	n/a	REC_WORD	5882101	wordpools/wasnorm_wordpool_576.txt	LTP391	ltpFR2	4	14	HOUND	724	n/a	n/a	0	0	0
2890.8173828125	n/a	REC_WORD	5920394	wordpools/wasnorm_wordpool_576.txt	LTP391	ltpFR2	4	14	EYELASH	546	n/a	n/a	0	0	0
2943.15380859375	n/a	DISTRACTOR	6027579	n/a	LTP391	ltpFR2	4	15	n/a	n/a	n/a	n/a	0	0	0
2943.15380859375	n/a	START	6027579	n/a	LTP391	ltpFR2	4	n/a	n/a	n/a	20	n/a	n/a	n/a	n/a
2943.1708984375	n/a	PROB	6027614	n/a	LTP391	ltpFR2	4	n/a	n/a	n/a	20	19	7	4	8
2945.60302734375	n/a	PROB	6032595	n/a	LTP391	ltpFR2	4	n/a	n/a	n/a	20	10	4	2	4
2948.06689453125	n/a	PROB	6037641	n/a	LTP391	ltpFR2	4	n/a	n/a	n/a	20	19	7	7	5
2950.2978515625	n/a	PROB	6042210	n/a	LTP391	ltpFR2	4	n/a	n/a	n/a	20	14	8	3	3
2951.94384765625	n/a	PROB	6045581	n/a	LTP391	ltpFR2	4	n/a	n/a	n/a	20	15	1	6	8
2953.34765625	n/a	PROB	6048456	n/a	LTP391	ltpFR2	4	n/a	n/a	n/a	20	12	5	3	4
2955.86181640625	n/a	PROB	6053605	n/a	LTP391	ltpFR2	4	n/a	n/a	n/a	20	11	7	1	3
2957.12451171875	n/a	PROB	6056191	n/a	LTP391	ltpFR2	4	n/a	n/a	n/a	20	12	1	3	8
2958.37841796875	n/a	PROB	6058759	n/a	LTP391	ltpFR2	4	n/a	n/a	n/a	20	20	5	9	6
2960.80859375	n/a	PROB	6063736	n/a	LTP391	ltpFR2	4	n/a	n/a	n/a	20	17	8	5	4
2962.689453125	n/a	PROB	6067588	n/a	LTP391	ltpFR2	4	n/a	n/a	n/a	20	11	2	1	9
2964.025390625	n/a	PROB	6070324	n/a	LTP391	ltpFR2	4	n/a	n/a	n/a	20	16	3	8	5
2966.5166015625	n/a	STOP	6075426	n/a	LTP391	ltpFR2	4	n/a	n/a	n/a	20	n/a	n/a	n/a	n/a
2968.22119140625	n/a	WORD	6078917	wordpools/wasnorm_wordpool_576.txt	LTP391	ltpFR2	4	15	STONE	1385	n/a	n/a	0	0	0
2970.97705078125	n/a	WORD	6084561	wordpools/wasnorm_wordpool_576.txt	LTP391	ltpFR2	4	15	STOMACH	1384	n/a	n/a	0	0	0
2973.50244140625	n/a	WORD	6089733	wordpools/wasnorm_wordpool_576.txt	LTP391	ltpFR2	4	15	MEAT	883	n/a	n/a	0	0	0
2976.125	n/a	WORD	6095104	wordpools/wasnorm_wordpool_576.txt	LTP391	ltpFR2	4	15	ROBOT	1200	n/a	n/a	0	0	0
2978.76611328125	n/a	WORD	6100513	wordpools/wasnorm_wordpool_576.txt	LTP391	ltpFR2	4	15	RIVER	1194	n/a	n/a	0	0	0
2981.3642578125	n/a	WORD	6105834	wordpools/wasnorm_wordpool_576.txt	LTP391	ltpFR2	4	15	UMPIRE	1535	n/a	n/a	0	0	0
2984.05517578125	n/a	WORD	6111345	wordpools/wasnorm_wordpool_576.txt	LTP391	ltpFR2	4	15	CELLAR	267	n/a	n/a	0	0	0
2986.51171875	n/a	WORD	6116376	wordpools/wasnorm_wordpool_576.txt	LTP391	ltpFR2	4	15	BRANDY	169	n/a	n/a	0	0	0
2989.0087890625	n/a	WORD	6121490	wordpools/wasnorm_wordpool_576.txt	LTP391	ltpFR2	4	15	ARMY	39	n/a	n/a	0	0	0
2991.474609375	n/a	WORD	6126540	wordpools/wasnorm_wordpool_576.txt	LTP391	ltpFR2	4	15	GRAVE	658	n/a	n/a	0	0	0
2994.28271484375	n/a	WORD	6132291	wordpools/wasnorm_wordpool_576.txt	LTP391	ltpFR2	4	15	INFANT	737	n/a	n/a	0	0	0
2997.00439453125	n/a	WORD	6137865	wordpools/wasnorm_wordpool_576.txt	LTP391	ltpFR2	4	15	NEUTRON	947	n/a	n/a	0	0	0
2999.45458984375	n/a	WORD	6142883	wordpools/wasnorm_wordpool_576.txt	LTP391	ltpFR2	4	15	DIVER	476	n/a	n/a	0	0	0
3002.24560546875	n/a	WORD	6148599	wordpools/wasnorm_wordpool_576.txt	LTP391	ltpFR2	4	15	FINGER	567	n/a	n/a	0	0	0
3004.84228515625	n/a	WORD	6153917	wordpools/wasnorm_wordpool_576.txt	LTP391	ltpFR2	4	15	BEAST	108	n/a	n/a	0	0	0
3007.576171875	n/a	WORD	6159516	wordpools/wasnorm_wordpool_576.txt	LTP391	ltpFR2	4	15	MAMMAL	861	n/a	n/a	0	0	0
3010.16650390625	n/a	WORD	6164821	wordpools/wasnorm_wordpool_576.txt	LTP391	ltpFR2	4	15	BEEF	113	n/a	n/a	0	0	0
3012.89697265625	n/a	WORD	6170413	wordpools/wasnorm_wordpool_576.txt	LTP391	ltpFR2	4	15	PLATE	1086	n/a	n/a	0	0	0
3015.63916015625	n/a	WORD	6176029	wordpools/wasnorm_wordpool_576.txt	LTP391	ltpFR2	4	15	SPONGE	1355	n/a	n/a	0	0	0
3018.0791015625	n/a	WORD	6181026	wordpools/wasnorm_wordpool_576.txt	LTP391	ltpFR2	4	15	DRIVER	499	n/a	n/a	0	0	0
3020.626953125	n/a	WORD	6186244	wordpools/wasnorm_wordpool_576.txt	LTP391	ltpFR2	4	15	BUNNY	198	n/a	n/a	0	0	0
3023.201171875	n/a	WORD	6191516	wordpools/wasnorm_wordpool_576.txt	LTP391	ltpFR2	4	15	DOLPHIN	483	n/a	n/a	0	0	0
3025.82373046875	n/a	WORD	6196887	wordpools/wasnorm_wordpool_576.txt	LTP391	ltpFR2	4	15	LEG	809	n/a	n/a	0	0	0
3028.4990234375	n/a	WORD	6202366	wordpools/wasnorm_wordpool_576.txt	LTP391	ltpFR2	4	15	ELBOW	520	n/a	n/a	0	0	0
3030.1025390625	n/a	START	6205650	n/a	LTP391	ltpFR2	4	n/a	n/a	n/a	21	n/a	n/a	n/a	n/a
3030.9697265625	n/a	DISTRACTOR	6207426	n/a	LTP391	ltpFR2	4	15	n/a	n/a	n/a	n/a	0	0	0
3030.978515625	n/a	PROB	6207444	n/a	LTP391	ltpFR2	4	n/a	n/a	n/a	21	16	9	5	2
3033.03466796875	n/a	PROB	6211655	n/a	LTP391	ltpFR2	4	n/a	n/a	n/a	21	15	8	3	4
3034.83984375	n/a	PROB	6215352	n/a	LTP391	ltpFR2	4	n/a	n/a	n/a	21	19	8	8	3
3036.5615234375	n/a	PROB	6218878	n/a	LTP391	ltpFR2	4	n/a	n/a	n/a	21	19	9	8	2
3038.232421875	n/a	PROB	6222300	n/a	LTP391	ltpFR2	4	n/a	n/a	n/a	21	18	8	9	1
3039.46044921875	n/a	PROB	6224815	n/a	LTP391	ltpFR2	4	n/a	n/a	n/a	21	21	8	7	6
3041.5166015625	n/a	PROB	6229026	n/a	LTP391	ltpFR2	4	n/a	n/a	n/a	21	17	1	7	9
3042.86962890625	n/a	PROB	6231797	n/a	LTP391	ltpFR2	4	n/a	n/a	n/a	21	10	4	2	4
3044.5322265625	n/a	PROB	6235202	n/a	LTP391	ltpFR2	4	n/a	n/a	n/a	21	15	3	9	3
3046.73828125	n/a	PROB	6239720	n/a	LTP391	ltpFR2	4	n/a	n/a	n/a	21	12	5	6	1
3048.109375	n/a	PROB	6242528	n/a	LTP391	ltpFR2	4	n/a	n/a	n/a	21	22	7	7	8
3050.3310546875	n/a	PROB	6247078	n/a	LTP391	ltpFR2	4	n/a	n/a	n/a	21	19	6	6	7
3054.10205078125	n/a	STOP	6254801	n/a	LTP391	ltpFR2	4	n/a	n/a	n/a	21	n/a	n/a	n/a	n/a
3055.98828125	n/a	REC_START	6258664	n/a	LTP391	ltpFR2	4	15	n/a	n/a	n/a	n/a	0	0	0
3057.77685546875	n/a	REC_WORD	6262327	wordpools/wasnorm_wordpool_576.txt	LTP391	ltpFR2	4	15	LEG	809	n/a	n/a	0	0	0
3058.34228515625	n/a	REC_WORD	6263485	wordpools/wasnorm_wordpool_576.txt	LTP391	ltpFR2	4	15	ELBOW	520	n/a	n/a	0	0	0
3058.8359375	n/a	REC_WORD	6264496	wordpools/wasnorm_wordpool_576.txt	LTP391	ltpFR2	4	15	FINGER	567	n/a	n/a	0	0	0
3059.90185546875	n/a	REC_WORD	6266679	wordpools/wasnorm_wordpool_576.txt	LTP391	ltpFR2	4	15	STONE	1385	n/a	n/a	0	0	0
3060.6259765625	n/a	REC_WORD	6268162	wordpools/wasnorm_wordpool_576.txt	LTP391	ltpFR2	4	15	STOMACH	1384	n/a	n/a	0	0	0
3063.81201171875	n/a	REC_WORD	6274687	wordpools/wasnorm_wordpool_576.txt	LTP391	ltpFR2	4	15	INFANT	737	n/a	n/a	0	0	0
3066.20166015625	n/a	REC_WORD	6279581	wordpools/wasnorm_wordpool_576.txt	LTP391	ltpFR2	4	15	BEAST	108	n/a	n/a	0	0	0
3067.15771484375	n/a	REC_WORD	6281539	wordpools/wasnorm_wordpool_576.txt	LTP391	ltpFR2	4	15	MEAT	883	n/a	n/a	0	0	0
3068.548828125	n/a	REC_WORD	6284388	wordpools/wasnorm_wordpool_576.txt	LTP391	ltpFR2	4	15	MAMMAL	861	n/a	n/a	0	0	0
3071.8076171875	n/a	REC_WORD	6291062	wordpools/wasnorm_wordpool_576.txt	LTP391	ltpFR2	4	15	DOLPHIN	483	n/a	n/a	0	0	0
3073.37060546875	n/a	REC_WORD	6294263	wordpools/wasnorm_wordpool_576.txt	LTP391	ltpFR2	4	15	DIVER	476	n/a	n/a	0	0	0
3074.08349609375	n/a	REC_WORD	6295723	wordpools/wasnorm_wordpool_576.txt	LTP391	ltpFR2	4	15	DRIVER	499	n/a	n/a	0	0	0
3130.6123046875	n/a	REC_WORD	6411494	wordpools/wasnorm_wordpool_576.txt	LTP391	ltpFR2	4	15	RIVER	1194	n/a	n/a	0	0	0
3146.43798828125	n/a	DISTRACTOR	6443905	n/a	LTP391	ltpFR2	4	16	n/a	n/a	n/a	n/a	0	0	0
3146.43798828125	n/a	START	6443905	n/a	LTP391	ltpFR2	4	n/a	n/a	n/a	22	n/a	n/a	n/a	n/a
3146.45361328125	n/a	PROB	6443937	n/a	LTP391	ltpFR2	4	n/a	n/a	n/a	22	19	3	9	7
3148.69384765625	n/a	PROB	6448525	n/a	LTP391	ltpFR2	4	n/a	n/a	n/a	22	11	1	4	6
3149.86279296875	n/a	PROB	6450919	n/a	LTP391	ltpFR2	4	n/a	n/a	n/a	22	12	1	4	7
3151.60986328125	n/a	PROB	6454497	n/a	LTP391	ltpFR2	4	n/a	n/a	n/a	22	12	2	6	4
3152.6787109375	n/a	PROB	6456686	n/a	LTP391	ltpFR2	4	n/a	n/a	n/a	22	6	1	3	2
3154.8505859375	n/a	PROB	6461134	n/a	LTP391	ltpFR2	4	n/a	n/a	n/a	22	16	1	9	6
3156.0205078125	n/a	PROB	6463530	n/a	LTP391	ltpFR2	4	n/a	n/a	n/a	22	10	1	4	5
3157.54248046875	n/a	PROB	6466647	n/a	LTP391	ltpFR2	4	n/a	n/a	n/a	22	113	3	1	9
3159.138671875	n/a	PROB	6469916	n/a	LTP391	ltpFR2	4	n/a	n/a	n/a	22	19	9	5	5
3161.310546875	n/a	PROB	6474364	n/a	LTP391	ltpFR2	4	n/a	n/a	n/a	22	13	3	7	3
3163.3076171875	n/a	PROB	6478454	n/a	LTP391	ltpFR2	4	n/a	n/a	n/a	22	23	9	8	6
3166.58349609375	n/a	PROB	6485163	n/a	LTP391	ltpFR2	4	n/a	n/a	n/a	22	15	2	5	8
3170.43701171875	n/a	STOP	6493055	n/a	LTP391	ltpFR2	4	n/a	n/a	n/a	22	n/a	n/a	n/a	n/a
3171.537109375	n/a	WORD	6495308	wordpools/wasnorm_wordpool_576.txt	LTP391	ltpFR2	4	16	COMPASS	358	n/a	n/a	0	0	0
3174.2529296875	n/a	WORD	6500870	wordpools/wasnorm_wordpool_576.txt	LTP391	ltpFR2	4	16	OUTDOORS	987	n/a	n/a	0	0	0
3176.8759765625	n/a	WORD	6506242	wordpools/wasnorm_wordpool_576.txt	LTP391	ltpFR2	4	16	DRAWING	494	n/a	n/a	0	0	0
3179.47607421875	n/a	WORD	6511567	wordpools/wasnorm_wordpool_576.txt	LTP391	ltpFR2	4	16	ACTOR	5	n/a	n/a	0	0	0
3182.23291015625	n/a	WORD	6517213	wordpools/wasnorm_wordpool_576.txt	LTP391	ltpFR2	4	16	PECAN	1036	n/a	n/a	0	0	0
3185.013671875	n/a	WORD	6522908	wordpools/wasnorm_wordpool_576.txt	LTP391	ltpFR2	4	16	CRAYON	401	n/a	n/a	0	0	0
3187.78857421875	n/a	WORD	6528591	wordpools/wasnorm_wordpool_576.txt	LTP391	ltpFR2	4	16	CRUTCH	417	n/a	n/a	0	0	0
3190.40478515625	n/a	WORD	6533949	wordpools/wasnorm_wordpool_576.txt	LTP391	ltpFR2	4	16	FOOT	590	n/a	n/a	0	0	0
3193.02783203125	n/a	WORD	6539321	wordpools/wasnorm_wordpool_576.txt	LTP391	ltpFR2	4	16	SCULPTURE	1258	n/a	n/a	0	0	0
3195.7763671875	n/a	WORD	6544950	wordpools/wasnorm_wordpool_576.txt	LTP391	ltpFR2	4	16	PLASTER	1085	n/a	n/a	0	0	0
3198.45166015625	n/a	WORD	6550429	wordpools/wasnorm_wordpool_576.txt	LTP391	ltpFR2	4	16	CHEST	295	n/a	n/a	0	0	0
3201.07421875	n/a	WORD	6555800	wordpools/wasnorm_wordpool_576.txt	LTP391	ltpFR2	4	16	HEADBAND	696	n/a	n/a	0	0	0
3203.78955078125	n/a	WORD	6561361	wordpools/wasnorm_wordpool_576.txt	LTP391	ltpFR2	4	16	PAIL	1002	n/a	n/a	0	0	0
3206.439453125	n/a	WORD	6566788	wordpools/wasnorm_wordpool_576.txt	LTP391	ltpFR2	4	16	PERCH	1048	n/a	n/a	0	0	0
3209.0791015625	n/a	WORD	6572194	wordpools/wasnorm_wordpool_576.txt	LTP391	ltpFR2	4	16	ROBIN	1199	n/a	n/a	0	0	0
3211.80224609375	n/a	WORD	6577771	wordpools/wasnorm_wordpool_576.txt	LTP391	ltpFR2	4	16	SWORD	1423	n/a	n/a	0	0	0
3214.42724609375	n/a	WORD	6583147	wordpools/wasnorm_wordpool_576.txt	LTP391	ltpFR2	4	16	CYCLONE	431	n/a	n/a	0	0	0
3216.93310546875	n/a	WORD	6588279	wordpools/wasnorm_wordpool_576.txt	LTP391	ltpFR2	4	16	PEANUT	1032	n/a	n/a	0	0	0
3219.74072265625	n/a	WORD	6594029	wordpools/wasnorm_wordpool_576.txt	LTP391	ltpFR2	4	16	HORNET	718	n/a	n/a	0	0	0
3222.23974609375	n/a	WORD	6599147	wordpools/wasnorm_wordpool_576.txt	LTP391	ltpFR2	4	16	CAFE	216	n/a	n/a	0	0	0
3224.794921875	n/a	WORD	6604380	wordpools/wasnorm_wordpool_576.txt	LTP391	ltpFR2	4	16	IGLOO	734	n/a	n/a	0	0	0
3227.310546875	n/a	WORD	6609532	wordpools/wasnorm_wordpool_576.txt	LTP391	ltpFR2	4	16	APRON	35	n/a	n/a	0	0	0
3229.8505859375	n/a	WORD	6614734	wordpools/wasnorm_wordpool_576.txt	LTP391	ltpFR2	4	16	ANKLE	24	n/a	n/a	0	0	0
3232.6416015625	n/a	WORD	6620450	wordpools/wasnorm_wordpool_576.txt	LTP391	ltpFR2	4	16	SIBLING	1301	n/a	n/a	0	0	0
3234.24658203125	n/a	START	6623737	n/a	LTP391	ltpFR2	4	n/a	n/a	n/a	23	n/a	n/a	n/a	n/a
3235.2255859375	n/a	DISTRACTOR	6625742	n/a	LTP391	ltpFR2	4	16	n/a	n/a	n/a	n/a	0	0	0
3235.232421875	n/a	PROB	6625756	n/a	LTP391	ltpFR2	4	n/a	n/a	n/a	23	12	6	4	2
