mstime	trial_type	stim_file	subject	experiment	session	trial	item_name	item_num	list	answer	test_x	test_y	test_z
0	SESS_START	n/a	LTP326	ltpFR2	0	n/a	n/a	n/a	n/a	n/a	0	0	0
71925	START	n/a	LTP326	ltpFR2	0	n/a	n/a	n/a	-1	n/a	n/a	n/a	n/a
71940	PROB	n/a	LTP326	ltpFR2	0	n/a	n/a	n/a	-1	13	2	2	9
77047	PROB	n/a	LTP326	ltpFR2	0	n/a	n/a	n/a	-1	13	1	9	3
79262	PROB	n/a	LTP326	ltpFR2	0	n/a	n/a	n/a	-1	18	8	4	6
83925	STOP	n/a	LTP326	ltpFR2	0	n/a	n/a	n/a	-1	n/a	n/a	n/a	n/a
183754	DISTRACTOR	n/a	LTP326	ltpFR2	0	1	n/a	n/a	n/a	n/a	0	0	0
183754	START	n/a	LTP326	ltpFR2	0	n/a	n/a	n/a	1	n/a	n/a	n/a	n/a
183768	PROB	n/a	LTP326	ltpFR2	0	n/a	n/a	n/a	1	17	7	8	2
187621	PROB	n/a	LTP326	ltpFR2	0	n/a	n/a	n/a	1	10	1	8	1
189766	PROB	n/a	LTP326	ltpFR2	0	n/a	n/a	n/a	1	14	2	7	5
192406	PROB	n/a	LTP326	ltpFR2	0	n/a	n/a	n/a	1	18	9	6	3
195511	PROB	n/a	LTP326	ltpFR2	0	n/a	n/a	n/a	1	17	6	4	7
197427	PROB	n/a	LTP326	ltpFR2	0	n/a	n/a	n/a	1	16	1	7	8
199764	PROB	n/a	LTP326	ltpFR2	0	n/a	n/a	n/a	1	16	8	1	7
201718	PROB	n/a	LTP326	ltpFR2	0	n/a	n/a	n/a	1	9	5	1	5
207754	STOP	n/a	LTP326	ltpFR2	0	n/a	n/a	n/a	1	n/a	n/a	n/a	n/a
208767	WORD	wordpools/wasnorm_wordpool_576.txt	LTP326	ltpFR2	0	1	PRIMATE	1123	n/a	n/a	0	0	0
211192	WORD	wordpools/wasnorm_wordpool_576.txt	LTP326	ltpFR2	0	1	KETCHUP	771	n/a	n/a	0	0	0
213795	WORD	wordpools/wasnorm_wordpool_576.txt	LTP326	ltpFR2	0	1	PADDLE	1000	n/a	n/a	0	0	0
216472	WORD	wordpools/wasnorm_wordpool_576.txt	LTP326	ltpFR2	0	1	FRANCE	601	n/a	n/a	0	0	0
219198	WORD	wordpools/wasnorm_wordpool_576.txt	LTP326	ltpFR2	0	1	BRAKE	166	n/a	n/a	0	0	0
221634	WORD	wordpools/wasnorm_wordpool_576.txt	LTP326	ltpFR2	0	1	PISTON	1076	n/a	n/a	0	0	0
224345	WORD	wordpools/wasnorm_wordpool_576.txt	LTP326	ltpFR2	0	1	CHIPMUNK	304	n/a	n/a	0	0	0
226921	WORD	wordpools/wasnorm_wordpool_576.txt	LTP326	ltpFR2	0	1	CATCHER	258	n/a	n/a	0	0	0
229532	WORD	wordpools/wasnorm_wordpool_576.txt	LTP326	ltpFR2	0	1	UMPIRE	1535	n/a	n/a	0	0	0
232033	WORD	wordpools/wasnorm_wordpool_576.txt	LTP326	ltpFR2	0	1	MAPLE	866	n/a	n/a	0	0	0
234729	WORD	wordpools/wasnorm_wordpool_576.txt	LTP326	ltpFR2	0	1	MUSTARD	935	n/a	n/a	0	0	0
237480	WORD	wordpools/wasnorm_wordpool_576.txt	LTP326	ltpFR2	0	1	NOMAD	955	n/a	n/a	0	0	0
239906	WORD	wordpools/wasnorm_wordpool_576.txt	LTP326	ltpFR2	0	1	FLUTE	585	n/a	n/a	0	0	0
242342	WORD	wordpools/wasnorm_wordpool_576.txt	LTP326	ltpFR2	0	1	WHISTLE	1606	n/a	n/a	0	0	0
245087	WORD	wordpools/wasnorm_wordpool_576.txt	LTP326	ltpFR2	0	1	PIZZA	1079	n/a	n/a	0	0	0
247824	WORD	wordpools/wasnorm_wordpool_576.txt	LTP326	ltpFR2	0	1	BLUEPRINT	142	n/a	n/a	0	0	0
250347	WORD	wordpools/wasnorm_wordpool_576.txt	LTP326	ltpFR2	0	1	PIMPLE	1071	n/a	n/a	0	0	0
252943	WORD	wordpools/wasnorm_wordpool_576.txt	LTP326	ltpFR2	0	1	FLIPPER	580	n/a	n/a	0	0	0
255378	WORD	wordpools/wasnorm_wordpool_576.txt	LTP326	ltpFR2	0	1	CRICKET	408	n/a	n/a	0	0	0
258131	WORD	wordpools/wasnorm_wordpool_576.txt	LTP326	ltpFR2	0	1	PLASTER	1085	n/a	n/a	0	0	0
260774	WORD	wordpools/wasnorm_wordpool_576.txt	LTP326	ltpFR2	0	1	COBRA	336	n/a	n/a	0	0	0
263518	WORD	wordpools/wasnorm_wordpool_576.txt	LTP326	ltpFR2	0	1	BATHTUB	100	n/a	n/a	0	0	0
266210	WORD	wordpools/wasnorm_wordpool_576.txt	LTP326	ltpFR2	0	1	TABLE	1426	n/a	n/a	0	0	0
268807	WORD	wordpools/wasnorm_wordpool_576.txt	LTP326	ltpFR2	0	1	CROWN	415	n/a	n/a	0	0	0
270414	START	n/a	LTP326	ltpFR2	0	n/a	n/a	n/a	2	n/a	n/a	n/a	n/a
271292	DISTRACTOR	n/a	LTP326	ltpFR2	0	1	n/a	n/a	n/a	n/a	0	0	0
271308	PROB	n/a	LTP326	ltpFR2	0	n/a	n/a	n/a	2	22	7	7	8
276511	PROB	n/a	LTP326	ltpFR2	0	n/a	n/a	n/a	2	5	3	1	1
278344	PROB	n/a	LTP326	ltpFR2	0	n/a	n/a	n/a	2	17	3	7	7
280265	PROB	n/a	LTP326	ltpFR2	0	n/a	n/a	n/a	2	12	5	4	3
286569	PROB	n/a	LTP326	ltpFR2	0	n/a	n/a	n/a	2	14	4	5	5
289120	PROB	n/a	LTP326	ltpFR2	0	n/a	n/a	n/a	2	21	5	9	7
292935	STOP	n/a	LTP326	ltpFR2	0	n/a	n/a	n/a	2	n/a	n/a	n/a	n/a
296260	REC_START	n/a	LTP326	ltpFR2	0	1	n/a	n/a	n/a	n/a	0	0	0
297807	REC_WORD	wordpools/wasnorm_wordpool_576.txt	LTP326	ltpFR2	0	1	CRICKET	408	n/a	n/a	0	0	0
299063	REC_WORD	wordpools/wasnorm_wordpool_576.txt	LTP326	ltpFR2	0	1	PRIMATE	1123	n/a	n/a	0	0	0
301479	REC_WORD	wordpools/wasnorm_wordpool_576.txt	LTP326	ltpFR2	0	1	CHIPMUNK	304	n/a	n/a	0	0	0
303087	REC_WORD	wordpools/wasnorm_wordpool_576.txt	LTP326	ltpFR2	0	1	TABLE	1426	n/a	n/a	0	0	0
304191	REC_WORD	wordpools/wasnorm_wordpool_576.txt	LTP326	ltpFR2	0	1	CROWN	415	n/a	n/a	0	0	0
306294	REC_WORD	wordpools/wasnorm_wordpool_576.txt	LTP326	ltpFR2	0	1	BATHTUB	100	n/a	n/a	0	0	0
315726	REC_WORD	wordpools/wasnorm_wordpool_576.txt	LTP326	ltpFR2	0	1	BLUEPRINT	142	n/a	n/a	0	0	0
318854	REC_WORD	wordpools/wasnorm_wordpool_576.txt	LTP326	ltpFR2	0	1	PIMPLE	1071	n/a	n/a	0	0	0
322989	REC_WORD	wordpools/wasnorm_wordpool_576.txt	LTP326	ltpFR2	0	1	KETCHUP	771	n/a	n/a	0	0	0
369151	REC_WORD	wordpools/wasnorm_wordpool_576.txt	LTP326	ltpFR2	0	1	CRICKET	408	n/a	n/a	0	0	0
401297	DISTRACTOR	n/a	LTP326	ltpFR2	0	2	n/a	n/a	n/a	n/a	0	0	0
401297	START	n/a	LTP326	ltpFR2	0	n/a	n/a	n/a	3	n/a	n/a	n/a	n/a
401310	PROB	n/a	LTP326	ltpFR2	0	n/a	n/a	n/a	3	18	3	6	9
403880	PROB	n/a	LTP326	ltpFR2	0	n/a	n/a	n/a	3	21	7	9	5
406331	PROB	n/a	LTP326	ltpFR2	0	n/a	n/a	n/a	3	11	1	8	2
408070	PROB	n/a	LTP326	ltpFR2	0	n/a	n/a	n/a	3	13	1	9	3
410105	PROB	n/a	LTP326	ltpFR2	0	n/a	n/a	n/a	3	19	8	7	4
413252	PROB	n/a	LTP326	ltpFR2	0	n/a	n/a	n/a	3	13	4	2	7
415656	PROB	n/a	LTP326	ltpFR2	0	n/a	n/a	n/a	3	13	4	7	2
418314	PROB	n/a	LTP326	ltpFR2	0	n/a	n/a	n/a	3	12	2	9	1
421132	PROB	n/a	LTP326	ltpFR2	0	n/a	n/a	n/a	3	9	4	2	3
425297	STOP	n/a	LTP326	ltpFR2	0	n/a	n/a	n/a	3	n/a	n/a	n/a	n/a
426315	WORD	wordpools/wasnorm_wordpool_576.txt	LTP326	ltpFR2	0	2	OUTDOORS	987	n/a	n/a	0	0	0
428956	WORD	wordpools/wasnorm_wordpool_576.txt	LTP326	ltpFR2	0	2	CLOCK	325	n/a	n/a	0	0	0
431653	WORD	wordpools/wasnorm_wordpool_576.txt	LTP326	ltpFR2	0	2	OYSTER	995	n/a	n/a	0	0	0
434121	WORD	wordpools/wasnorm_wordpool_576.txt	LTP326	ltpFR2	0	2	CASHEW	253	n/a	n/a	0	0	0
436808	WORD	wordpools/wasnorm_wordpool_576.txt	LTP326	ltpFR2	0	2	LOFT	840	n/a	n/a	0	0	0
439266	WORD	wordpools/wasnorm_wordpool_576.txt	LTP326	ltpFR2	0	2	HATCHET	691	n/a	n/a	0	0	0
441983	WORD	wordpools/wasnorm_wordpool_576.txt	LTP326	ltpFR2	0	2	TRUCK	1512	n/a	n/a	0	0	0
444586	WORD	wordpools/wasnorm_wordpool_576.txt	LTP326	ltpFR2	0	2	FRUIT	610	n/a	n/a	0	0	0
447271	WORD	wordpools/wasnorm_wordpool_576.txt	LTP326	ltpFR2	0	2	CARROT	249	n/a	n/a	0	0	0
449691	WORD	wordpools/wasnorm_wordpool_576.txt	LTP326	ltpFR2	0	2	LILY	821	n/a	n/a	0	0	0
452252	WORD	wordpools/wasnorm_wordpool_576.txt	LTP326	ltpFR2	0	2	SPOON	1357	n/a	n/a	0	0	0
454928	WORD	wordpools/wasnorm_wordpool_576.txt	LTP326	ltpFR2	0	2	WORLD	1622	n/a	n/a	0	0	0
457522	WORD	wordpools/wasnorm_wordpool_576.txt	LTP326	ltpFR2	0	2	EXPERT	543	n/a	n/a	0	0	0
460258	WORD	wordpools/wasnorm_wordpool_576.txt	LTP326	ltpFR2	0	2	TEACHER	1440	n/a	n/a	0	0	0
462694	WORD	wordpools/wasnorm_wordpool_576.txt	LTP326	ltpFR2	0	2	CARRIAGE	248	n/a	n/a	0	0	0
465261	WORD	wordpools/wasnorm_wordpool_576.txt	LTP326	ltpFR2	0	2	TOMBSTONE	1478	n/a	n/a	0	0	0
467689	WORD	wordpools/wasnorm_wordpool_576.txt	LTP326	ltpFR2	0	2	GARLIC	624	n/a	n/a	0	0	0
470232	WORD	wordpools/wasnorm_wordpool_576.txt	LTP326	ltpFR2	0	2	STOVE	1388	n/a	n/a	0	0	0
473018	WORD	wordpools/wasnorm_wordpool_576.txt	LTP326	ltpFR2	0	2	TOASTER	1472	n/a	n/a	0	0	0
475561	WORD	wordpools/wasnorm_wordpool_576.txt	LTP326	ltpFR2	0	2	IDOL	733	n/a	n/a	0	0	0
478105	WORD	wordpools/wasnorm_wordpool_576.txt	LTP326	ltpFR2	0	2	VALVE	1546	n/a	n/a	0	0	0
480667	WORD	wordpools/wasnorm_wordpool_576.txt	LTP326	ltpFR2	0	2	BANK	83	n/a	n/a	0	0	0
483302	WORD	wordpools/wasnorm_wordpool_576.txt	LTP326	ltpFR2	0	2	CHAPEL	280	n/a	n/a	0	0	0
485771	WORD	wordpools/wasnorm_wordpool_576.txt	LTP326	ltpFR2	0	2	INFANT	737	n/a	n/a	0	0	0
487379	START	n/a	LTP326	ltpFR2	0	n/a	n/a	n/a	4	n/a	n/a	n/a	n/a
488353	DISTRACTOR	n/a	LTP326	ltpFR2	0	2	n/a	n/a	n/a	n/a	0	0	0
488363	PROB	n/a	LTP326	ltpFR2	0	n/a	n/a	n/a	4	21	4	8	9
490872	PROB	n/a	LTP326	ltpFR2	0	n/a	n/a	n/a	4	14	6	8	2
493023	PROB	n/a	LTP326	ltpFR2	0	n/a	n/a	n/a	4	13	2	9	2
496812	PROB	n/a	LTP326	ltpFR2	0	n/a	n/a	n/a	4	1	5	5	2
498245	PROB	n/a	LTP326	ltpFR2	0	n/a	n/a	n/a	4	16	6	9	1
504050	PROB	n/a	LTP326	ltpFR2	0	n/a	n/a	n/a	4	19	6	8	5
506401	PROB	n/a	LTP326	ltpFR2	0	n/a	n/a	n/a	4	16	9	2	4
510151	STOP	n/a	LTP326	ltpFR2	0	n/a	n/a	n/a	4	n/a	n/a	n/a	n/a
513311	REC_START	n/a	LTP326	ltpFR2	0	2	n/a	n/a	n/a	n/a	0	0	0
514645	REC_WORD	wordpools/wasnorm_wordpool_576.txt	LTP326	ltpFR2	0	2	VALVE	1546	n/a	n/a	0	0	0
516409	REC_WORD	wordpools/wasnorm_wordpool_576.txt	LTP326	ltpFR2	0	2	BANK	83	n/a	n/a	0	0	0
518191	REC_WORD	wordpools/wasnorm_wordpool_576.txt	LTP326	ltpFR2	0	2	TRUCK	1512	n/a	n/a	0	0	0
519671	REC_WORD	wordpools/wasnorm_wordpool_576.txt	LTP326	ltpFR2	0	2	FRUIT	610	n/a	n/a	0	0	0
521935	REC_WORD	wordpools/wasnorm_wordpool_576.txt	LTP326	ltpFR2	0	2	CARROT	249	n/a	n/a	0	0	0
524137	REC_WORD	wordpools/wasnorm_wordpool_576.txt	LTP326	ltpFR2	0	2	IDOL	733	n/a	n/a	0	0	0
526185	REC_WORD	wordpools/wasnorm_wordpool_576.txt	LTP326	ltpFR2	0	2	EXPERT	543	n/a	n/a	0	0	0
528183	REC_WORD	wordpools/wasnorm_wordpool_576.txt	LTP326	ltpFR2	0	2	TEACHER	1440	n/a	n/a	0	0	0
530409	REC_WORD	wordpools/wasnorm_wordpool_576.txt	LTP326	ltpFR2	0	2	LOFT	840	n/a	n/a	0	0	0
533556	REC_WORD	wordpools/wasnorm_wordpool_576.txt	LTP326	ltpFR2	0	2	CROWN	415	n/a	n/a	0	0	0
536423	REC_WORD	wordpools/wasnorm_wordpool_576.txt	LTP326	ltpFR2	0	2	CASHEW	253	n/a	n/a	0	0	0
541486	REC_WORD	wordpools/wasnorm_wordpool_576.txt	LTP326	ltpFR2	0	2	OUTDOORS	987	n/a	n/a	0	0	0
556988	REC_WORD	wordpools/wasnorm_wordpool_576.txt	LTP326	ltpFR2	0	2	CHAPEL	280	n/a	n/a	0	0	0
559001	REC_WORD	wordpools/wasnorm_wordpool_576.txt	LTP326	ltpFR2	0	2	CARRIAGE	248	n/a	n/a	0	0	0
563893	REC_WORD	wordpools/wasnorm_wordpool_576.txt	LTP326	ltpFR2	0	2	WORLD	1622	n/a	n/a	0	0	0
582722	REC_WORD	wordpools/wasnorm_wordpool_576.txt	LTP326	ltpFR2	0	2	INFANT	737	n/a	n/a	0	0	0
603786	WORD	wordpools/wasnorm_wordpool_576.txt	LTP326	ltpFR2	0	3	POET	1095	n/a	n/a	0	0	0
606302	WORD	wordpools/wasnorm_wordpool_576.txt	LTP326	ltpFR2	0	3	REBEL	1172	n/a	n/a	0	0	0
608938	WORD	wordpools/wasnorm_wordpool_576.txt	LTP326	ltpFR2	0	3	MONEY	908	n/a	n/a	0	0	0
611674	WORD	wordpools/wasnorm_wordpool_576.txt	LTP326	ltpFR2	0	3	HANDBAG	684	n/a	n/a	0	0	0
614342	WORD	wordpools/wasnorm_wordpool_576.txt	LTP326	ltpFR2	0	3	LIPSTICK	829	n/a	n/a	0	0	0
616877	WORD	wordpools/wasnorm_wordpool_576.txt	LTP326	ltpFR2	0	3	EYELASH	546	n/a	n/a	0	0	0
619612	WORD	wordpools/wasnorm_wordpool_576.txt	LTP326	ltpFR2	0	3	FLAG	573	n/a	n/a	0	0	0
622182	WORD	wordpools/wasnorm_wordpool_576.txt	LTP326	ltpFR2	0	3	BISON	131	n/a	n/a	0	0	0
624633	WORD	wordpools/wasnorm_wordpool_576.txt	LTP326	ltpFR2	0	3	SLUG	1329	n/a	n/a	0	0	0
627235	WORD	wordpools/wasnorm_wordpool_576.txt	LTP326	ltpFR2	0	3	JUDGE	761	n/a	n/a	0	0	0
629738	WORD	wordpools/wasnorm_wordpool_576.txt	LTP326	ltpFR2	0	3	GAVEL	627	n/a	n/a	0	0	0
632573	WORD	wordpools/wasnorm_wordpool_576.txt	LTP326	ltpFR2	0	3	CYCLONE	431	n/a	n/a	0	0	0
635057	WORD	wordpools/wasnorm_wordpool_576.txt	LTP326	ltpFR2	0	3	PANTHER	1009	n/a	n/a	0	0	0
637509	WORD	wordpools/wasnorm_wordpool_576.txt	LTP326	ltpFR2	0	3	BUCKET	184	n/a	n/a	0	0	0
640346	WORD	wordpools/wasnorm_wordpool_576.txt	LTP326	ltpFR2	0	3	POCKET	1093	n/a	n/a	0	0	0
643114	WORD	wordpools/wasnorm_wordpool_576.txt	LTP326	ltpFR2	0	3	BEAVER	109	n/a	n/a	0	0	0
645754	WORD	wordpools/wasnorm_wordpool_576.txt	LTP326	ltpFR2	0	3	CANDY	230	n/a	n/a	0	0	0
648184	WORD	wordpools/wasnorm_wordpool_576.txt	LTP326	ltpFR2	0	3	DRAWING	494	n/a	n/a	0	0	0
650771	WORD	wordpools/wasnorm_wordpool_576.txt	LTP326	ltpFR2	0	3	CATTLE	261	n/a	n/a	0	0	0
653593	WORD	wordpools/wasnorm_wordpool_576.txt	LTP326	ltpFR2	0	3	BEEF	113	n/a	n/a	0	0	0
656358	WORD	wordpools/wasnorm_wordpool_576.txt	LTP326	ltpFR2	0	3	TART	1436	n/a	n/a	0	0	0
658943	WORD	wordpools/wasnorm_wordpool_576.txt	LTP326	ltpFR2	0	3	BLOCKADE	137	n/a	n/a	0	0	0
661478	WORD	wordpools/wasnorm_wordpool_576.txt	LTP326	ltpFR2	0	3	CHEST	295	n/a	n/a	0	0	0
664080	WORD	wordpools/wasnorm_wordpool_576.txt	LTP326	ltpFR2	0	3	SALAD	1224	n/a	n/a	0	0	0
665688	START	n/a	LTP326	ltpFR2	0	n/a	n/a	n/a	5	n/a	n/a	n/a	n/a
666607	DISTRACTOR	n/a	LTP326	ltpFR2	0	3	n/a	n/a	n/a	n/a	0	0	0
666616	PROB	n/a	LTP326	ltpFR2	0	n/a	n/a	n/a	5	8	4	3	1
670038	PROB	n/a	LTP326	ltpFR2	0	n/a	n/a	n/a	5	15	6	3	6
672090	PROB	n/a	LTP326	ltpFR2	0	n/a	n/a	n/a	5	16	9	4	4
674611	PROB	n/a	LTP326	ltpFR2	0	n/a	n/a	n/a	5	20	8	4	8
678929	PROB	n/a	LTP326	ltpFR2	0	n/a	n/a	n/a	5	12	5	1	6
680597	PROB	n/a	LTP326	ltpFR2	0	n/a	n/a	n/a	5	8	2	2	4
682331	PROB	n/a	LTP326	ltpFR2	0	n/a	n/a	n/a	5	1	2	5	6
685100	PROB	n/a	LTP326	ltpFR2	0	n/a	n/a	n/a	5	13	6	5	2
688463	STOP	n/a	LTP326	ltpFR2	0	n/a	n/a	n/a	5	n/a	n/a	n/a	n/a
691626	REC_START	n/a	LTP326	ltpFR2	0	3	n/a	n/a	n/a	n/a	0	0	0
695307	REC_WORD	wordpools/wasnorm_wordpool_576.txt	LTP326	ltpFR2	0	3	BISON	131	n/a	n/a	0	0	0
696821	REC_WORD	wordpools/wasnorm_wordpool_576.txt	LTP326	ltpFR2	0	3	SLUG	1329	n/a	n/a	0	0	0
699439	REC_WORD	wordpools/wasnorm_wordpool_576.txt	LTP326	ltpFR2	0	3	BEEF	113	n/a	n/a	0	0	0
701133	REC_WORD	wordpools/wasnorm_wordpool_576.txt	LTP326	ltpFR2	0	3	CATTLE	261	n/a	n/a	0	0	0
706657	REC_WORD	wordpools/wasnorm_wordpool_576.txt	LTP326	ltpFR2	0	3	HANDBAG	684	n/a	n/a	0	0	0
708209	REC_WORD	wordpools/wasnorm_wordpool_576.txt	LTP326	ltpFR2	0	3	LIPSTICK	829	n/a	n/a	0	0	0
710198	REC_WORD	wordpools/wasnorm_wordpool_576.txt	LTP326	ltpFR2	0	3	EYELASH	546	n/a	n/a	0	0	0
715745	REC_WORD	wordpools/wasnorm_wordpool_576.txt	LTP326	ltpFR2	0	3	CASH	252	n/a	n/a	0	0	0
725575	REC_WORD	wordpools/wasnorm_wordpool_576.txt	LTP326	ltpFR2	0	3	JUDGE	761	n/a	n/a	0	0	0
727186	REC_WORD	wordpools/wasnorm_wordpool_576.txt	LTP326	ltpFR2	0	3	GAVEL	627	n/a	n/a	0	0	0
729542	REC_WORD	wordpools/wasnorm_wordpool_576.txt	LTP326	ltpFR2	0	3	CHEST	295	n/a	n/a	0	0	0
751011	REC_WORD	wordpools/wasnorm_wordpool_576.txt	LTP326	ltpFR2	0	3	POET	1095	n/a	n/a	0	0	0
752512	REC_WORD	wordpools/wasnorm_wordpool_576.txt	LTP326	ltpFR2	0	3	REBEL	1172	n/a	n/a	0	0	0
782084	DISTRACTOR	n/a	LTP326	ltpFR2	0	4	n/a	n/a	n/a	n/a	0	0	0
782084	START	n/a	LTP326	ltpFR2	0	n/a	n/a	n/a	6	n/a	n/a	n/a	n/a
782098	PROB	n/a	LTP326	ltpFR2	0	n/a	n/a	n/a	6	11	3	2	6
784533	PROB	n/a	LTP326	ltpFR2	0	n/a	n/a	n/a	6	19	8	9	2
787151	PROB	n/a	LTP326	ltpFR2	0	n/a	n/a	n/a	6	17	7	8	2
789420	PROB	n/a	LTP326	ltpFR2	0	n/a	n/a	n/a	6	17	8	6	3
791772	PROB	n/a	LTP326	ltpFR2	0	n/a	n/a	n/a	6	7	1	1	5
793957	PROB	n/a	LTP326	ltpFR2	0	n/a	n/a	n/a	6	15	2	7	6
795859	PROB	n/a	LTP326	ltpFR2	0	n/a	n/a	n/a	6	8	5	2	1
797794	PROB	n/a	LTP326	ltpFR2	0	n/a	n/a	n/a	6	14	5	3	5
800784	PROB	n/a	LTP326	ltpFR2	0	n/a	n/a	n/a	6	11	2	8	1
802748	PROB	n/a	LTP326	ltpFR2	0	n/a	n/a	n/a	6	16	4	6	6
804559	STOP	n/a	LTP326	ltpFR2	0	n/a	n/a	n/a	6	n/a	n/a	n/a	n/a
807287	WORD	wordpools/wasnorm_wordpool_576.txt	LTP326	ltpFR2	0	4	LEOPARD	812	n/a	n/a	0	0	0
809891	WORD	wordpools/wasnorm_wordpool_576.txt	LTP326	ltpFR2	0	4	POSSUM	1112	n/a	n/a	0	0	0
812392	WORD	wordpools/wasnorm_wordpool_576.txt	LTP326	ltpFR2	0	4	ICEBERG	731	n/a	n/a	0	0	0
814978	WORD	wordpools/wasnorm_wordpool_576.txt	LTP326	ltpFR2	0	4	ONION	977	n/a	n/a	0	0	0
817765	WORD	wordpools/wasnorm_wordpool_576.txt	LTP326	ltpFR2	0	4	SHORTS	1293	n/a	n/a	0	0	0
820216	WORD	wordpools/wasnorm_wordpool_576.txt	LTP326	ltpFR2	0	4	BOYFRIEND	162	n/a	n/a	0	0	0
822934	WORD	wordpools/wasnorm_wordpool_576.txt	LTP326	ltpFR2	0	4	FRIEND	606	n/a	n/a	0	0	0
825636	WORD	wordpools/wasnorm_wordpool_576.txt	LTP326	ltpFR2	0	4	PUPPY	1144	n/a	n/a	0	0	0
828155	WORD	wordpools/wasnorm_wordpool_576.txt	LTP326	ltpFR2	0	4	PORTRAIT	1111	n/a	n/a	0	0	0
830858	WORD	wordpools/wasnorm_wordpool_576.txt	LTP326	ltpFR2	0	4	TRENCH	1503	n/a	n/a	0	0	0
833392	WORD	wordpools/wasnorm_wordpool_576.txt	LTP326	ltpFR2	0	4	WHISKERS	1605	n/a	n/a	0	0	0
835944	WORD	wordpools/wasnorm_wordpool_576.txt	LTP326	ltpFR2	0	4	STONE	1385	n/a	n/a	0	0	0
838748	WORD	wordpools/wasnorm_wordpool_576.txt	LTP326	ltpFR2	0	4	SPHINX	1349	n/a	n/a	0	0	0
841498	WORD	wordpools/wasnorm_wordpool_576.txt	LTP326	ltpFR2	0	4	GRAVE	658	n/a	n/a	0	0	0
843983	WORD	wordpools/wasnorm_wordpool_576.txt	LTP326	ltpFR2	0	4	SCULPTURE	1258	n/a	n/a	0	0	0
846452	WORD	wordpools/wasnorm_wordpool_576.txt	LTP326	ltpFR2	0	4	PEDAL	1037	n/a	n/a	0	0	0
849171	WORD	wordpools/wasnorm_wordpool_576.txt	LTP326	ltpFR2	0	4	FUNGUS	614	n/a	n/a	0	0	0
851741	WORD	wordpools/wasnorm_wordpool_576.txt	LTP326	ltpFR2	0	4	HOUND	724	n/a	n/a	0	0	0
854526	WORD	wordpools/wasnorm_wordpool_576.txt	LTP326	ltpFR2	0	4	JEANS	752	n/a	n/a	0	0	0
857311	WORD	wordpools/wasnorm_wordpool_576.txt	LTP326	ltpFR2	0	4	SKILLET	1317	n/a	n/a	0	0	0
859747	WORD	wordpools/wasnorm_wordpool_576.txt	LTP326	ltpFR2	0	4	YOLK	1633	n/a	n/a	0	0	0
862331	WORD	wordpools/wasnorm_wordpool_576.txt	LTP326	ltpFR2	0	4	CORAL	378	n/a	n/a	0	0	0
864868	WORD	wordpools/wasnorm_wordpool_576.txt	LTP326	ltpFR2	0	4	PIANO	1057	n/a	n/a	0	0	0
867554	WORD	wordpools/wasnorm_wordpool_576.txt	LTP326	ltpFR2	0	4	MOP	916	n/a	n/a	0	0	0
869170	START	n/a	LTP326	ltpFR2	0	n/a	n/a	n/a	7	n/a	n/a	n/a	n/a
870113	DISTRACTOR	n/a	LTP326	ltpFR2	0	4	n/a	n/a	n/a	n/a	0	0	0
870121	PROB	n/a	LTP326	ltpFR2	0	n/a	n/a	n/a	7	13	5	6	2
872570	PROB	n/a	LTP326	ltpFR2	0	n/a	n/a	n/a	7	1	5	7	1
876860	PROB	n/a	LTP326	ltpFR2	0	n/a	n/a	n/a	7	1	4	9	5
880309	PROB	n/a	LTP326	ltpFR2	0	n/a	n/a	n/a	7	10	1	7	2
882944	PROB	n/a	LTP326	ltpFR2	0	n/a	n/a	n/a	7	20	8	5	7
888816	PROB	n/a	LTP326	ltpFR2	0	n/a	n/a	n/a	7	19	4	6	9
893170	STOP	n/a	LTP326	ltpFR2	0	n/a	n/a	n/a	7	n/a	n/a	n/a	n/a
894953	REC_START	n/a	LTP326	ltpFR2	0	4	n/a	n/a	n/a	n/a	0	0	0
896776	REC_WORD	wordpools/wasnorm_wordpool_576.txt	LTP326	ltpFR2	0	4	BOYFRIEND	162	n/a	n/a	0	0	0
898361	REC_WORD	wordpools/wasnorm_wordpool_576.txt	LTP326	ltpFR2	0	4	FRIEND	606	n/a	n/a	0	0	0
900401	REC_WORD	wordpools/wasnorm_wordpool_576.txt	LTP326	ltpFR2	0	4	DOG	480	n/a	n/a	0	0	0
902006	REC_WORD	wordpools/wasnorm_wordpool_576.txt	LTP326	ltpFR2	0	4	HOUND	724	n/a	n/a	0	0	0
903754	REC_WORD	wordpools/wasnorm_wordpool_576.txt	LTP326	ltpFR2	0	4	WHISKERS	1605	n/a	n/a	0	0	0
904754	REC_WORD_VV	wordpools/wasnorm_wordpool_576.txt	LTP326	ltpFR2	0	4	<>	-1	n/a	n/a	0	0	0
905614	REC_WORD	wordpools/wasnorm_wordpool_576.txt	LTP326	ltpFR2	0	4	SHORTS	1293	n/a	n/a	0	0	0
906614	REC_WORD_VV	wordpools/wasnorm_wordpool_576.txt	LTP326	ltpFR2	0	4	<>	-1	n/a	n/a	0	0	0
908380	REC_WORD	wordpools/wasnorm_wordpool_576.txt	LTP326	ltpFR2	0	4	JEANS	752	n/a	n/a	0	0	0
909385	REC_WORD_VV	wordpools/wasnorm_wordpool_576.txt	LTP326	ltpFR2	0	4	<>	-1	n/a	n/a	0	0	0
910428	REC_WORD	wordpools/wasnorm_wordpool_576.txt	LTP326	ltpFR2	0	4	PANTS	1010	n/a	n/a	0	0	0
911428	REC_WORD_VV	wordpools/wasnorm_wordpool_576.txt	LTP326	ltpFR2	0	4	<>	-1	n/a	n/a	0	0	0
916501	REC_WORD	wordpools/wasnorm_wordpool_576.txt	LTP326	ltpFR2	0	4	LEOPARD	812	n/a	n/a	0	0	0
918611	REC_WORD	wordpools/wasnorm_wordpool_576.txt	LTP326	ltpFR2	0	4	POSSUM	1112	n/a	n/a	0	0	0
920584	REC_WORD	wordpools/wasnorm_wordpool_576.txt	LTP326	ltpFR2	0	4	SPHINX	1349	n/a	n/a	0	0	0
921584	REC_WORD_VV	wordpools/wasnorm_wordpool_576.txt	LTP326	ltpFR2	0	4	<>	-1	n/a	n/a	0	0	0
928244	REC_WORD	wordpools/wasnorm_wordpool_576.txt	LTP326	ltpFR2	0	4	PORTRAIT	1111	n/a	n/a	0	0	0
929244	REC_WORD_VV	wordpools/wasnorm_wordpool_576.txt	LTP326	ltpFR2	0	4	<>	-1	n/a	n/a	0	0	0
930034	REC_WORD	wordpools/wasnorm_wordpool_576.txt	LTP326	ltpFR2	0	4	TRENCH	1503	n/a	n/a	0	0	0
935605	REC_WORD	wordpools/wasnorm_wordpool_576.txt	LTP326	ltpFR2	0	4	GRAVE	658	n/a	n/a	0	0	0
936605	REC_WORD_VV	wordpools/wasnorm_wordpool_576.txt	LTP326	ltpFR2	0	4	<>	-1	n/a	n/a	0	0	0
940754	REC_WORD	wordpools/wasnorm_wordpool_576.txt	LTP326	ltpFR2	0	4	SCULPTURE	1258	n/a	n/a	0	0	0
941754	REC_WORD_VV	wordpools/wasnorm_wordpool_576.txt	LTP326	ltpFR2	0	4	<>	-1	n/a	n/a	0	0	0
950104	REC_WORD	wordpools/wasnorm_wordpool_576.txt	LTP326	ltpFR2	0	4	CORAL	378	n/a	n/a	0	0	0
966098	REC_WORD	wordpools/wasnorm_wordpool_576.txt	LTP326	ltpFR2	0	4	PORTRAIT	1111	n/a	n/a	0	0	0
985386	DISTRACTOR	n/a	LTP326	ltpFR2	0	5	n/a	n/a	n/a	n/a	0	0	0
985386	START	n/a	LTP326	ltpFR2	0	n/a	n/a	n/a	8	n/a	n/a	n/a	n/a
985399	PROB	n/a	LTP326	ltpFR2	0	n/a	n/a	n/a	8	15	5	6	4
987968	PROB	n/a	LTP326	ltpFR2	0	n/a	n/a	n/a	8	19	5	8	6
993824	PROB	n/a	LTP326	ltpFR2	0	n/a	n/a	n/a	8	9	1	1	7
995543	PROB	n/a	LTP326	ltpFR2	0	n/a	n/a	n/a	8	21	7	6	8
998363	PROB	n/a	LTP326	ltpFR2	0	n/a	n/a	n/a	8	16	4	7	5
1001381	PROB	n/a	LTP326	ltpFR2	0	n/a	n/a	n/a	8	19	8	6	5
1003948	PROB	n/a	LTP326	ltpFR2	0	n/a	n/a	n/a	8	10	4	5	1
1009386	STOP	n/a	LTP326	ltpFR2	0	n/a	n/a	n/a	8	n/a	n/a	n/a	n/a
1010506	WORD	wordpools/wasnorm_wordpool_576.txt	LTP326	ltpFR2	0	5	GRILL	661	n/a	n/a	0	0	0
1013143	WORD	wordpools/wasnorm_wordpool_576.txt	LTP326	ltpFR2	0	5	ROCKET	1202	n/a	n/a	0	0	0
1015666	WORD	wordpools/wasnorm_wordpool_576.txt	LTP326	ltpFR2	0	5	CHEMIST	292	n/a	n/a	0	0	0
1018464	WORD	wordpools/wasnorm_wordpool_576.txt	LTP326	ltpFR2	0	5	FLEET	578	n/a	n/a	0	0	0
1021149	WORD	wordpools/wasnorm_wordpool_576.txt	LTP326	ltpFR2	0	5	HAND	683	n/a	n/a	0	0	0
1023835	WORD	wordpools/wasnorm_wordpool_576.txt	LTP326	ltpFR2	0	5	STUDENT	1395	n/a	n/a	0	0	0
1026521	WORD	wordpools/wasnorm_wordpool_576.txt	LTP326	ltpFR2	0	5	BLACKBOARD	133	n/a	n/a	0	0	0
1029206	WORD	wordpools/wasnorm_wordpool_576.txt	LTP326	ltpFR2	0	5	SERVANT	1271	n/a	n/a	0	0	0
1032024	WORD	wordpools/wasnorm_wordpool_576.txt	LTP326	ltpFR2	0	5	SHIRT	1287	n/a	n/a	0	0	0
1034678	WORD	wordpools/wasnorm_wordpool_576.txt	LTP326	ltpFR2	0	5	NOTEBOOK	959	n/a	n/a	0	0	0
1037128	WORD	wordpools/wasnorm_wordpool_576.txt	LTP326	ltpFR2	0	5	STATUE	1374	n/a	n/a	0	0	0
1039615	WORD	wordpools/wasnorm_wordpool_576.txt	LTP326	ltpFR2	0	5	COCKTAIL	338	n/a	n/a	0	0	0
1042217	WORD	wordpools/wasnorm_wordpool_576.txt	LTP326	ltpFR2	0	5	DRINK	498	n/a	n/a	0	0	0
1044770	WORD	wordpools/wasnorm_wordpool_576.txt	LTP326	ltpFR2	0	5	WIFE	1609	n/a	n/a	0	0	0
1047405	WORD	wordpools/wasnorm_wordpool_576.txt	LTP326	ltpFR2	0	5	HOOD	714	n/a	n/a	0	0	0
1049940	WORD	wordpools/wasnorm_wordpool_576.txt	LTP326	ltpFR2	0	5	LAPEL	800	n/a	n/a	0	0	0
1052743	WORD	wordpools/wasnorm_wordpool_576.txt	LTP326	ltpFR2	0	5	CHILD	299	n/a	n/a	0	0	0
1055378	WORD	wordpools/wasnorm_wordpool_576.txt	LTP326	ltpFR2	0	5	SEAFOOD	1260	n/a	n/a	0	0	0
1057946	WORD	wordpools/wasnorm_wordpool_576.txt	LTP326	ltpFR2	0	5	OUTFIT	988	n/a	n/a	0	0	0
1060515	WORD	wordpools/wasnorm_wordpool_576.txt	LTP326	ltpFR2	0	5	CRIB	407	n/a	n/a	0	0	0
1063068	WORD	wordpools/wasnorm_wordpool_576.txt	LTP326	ltpFR2	0	5	CHURCH	307	n/a	n/a	0	0	0
1065836	WORD	wordpools/wasnorm_wordpool_576.txt	LTP326	ltpFR2	0	5	CUPBOARD	425	n/a	n/a	0	0	0
1068321	WORD	wordpools/wasnorm_wordpool_576.txt	LTP326	ltpFR2	0	5	THREAD	1460	n/a	n/a	0	0	0
1070757	WORD	wordpools/wasnorm_wordpool_576.txt	LTP326	ltpFR2	0	5	SPACE	1345	n/a	n/a	0	0	0
1072375	START	n/a	LTP326	ltpFR2	0	n/a	n/a	n/a	9	n/a	n/a	n/a	n/a
1073178	DISTRACTOR	n/a	LTP326	ltpFR2	0	5	n/a	n/a	n/a	n/a	0	0	0
1073192	PROB	n/a	LTP326	ltpFR2	0	n/a	n/a	n/a	9	18	4	6	8
1075408	PROB	n/a	LTP326	ltpFR2	0	n/a	n/a	n/a	9	25	9	7	7
1081831	PROB	n/a	LTP326	ltpFR2	0	n/a	n/a	n/a	9	14	3	7	4
1083752	PROB	n/a	LTP326	ltpFR2	0	n/a	n/a	n/a	9	22	6	7	9
1087621	PROB	n/a	LTP326	ltpFR2	0	n/a	n/a	n/a	9	11	5	4	2
1089606	PROB	n/a	LTP326	ltpFR2	0	n/a	n/a	n/a	9	10	2	5	3
1091656	PROB	n/a	LTP326	ltpFR2	0	n/a	n/a	n/a	9	19	8	8	3
1096375	STOP	n/a	LTP326	ltpFR2	0	n/a	n/a	n/a	9	n/a	n/a	n/a	n/a
1098180	REC_START	n/a	LTP326	ltpFR2	0	5	n/a	n/a	n/a	n/a	0	0	0
1100694	REC_WORD	wordpools/wasnorm_wordpool_576.txt	LTP326	ltpFR2	0	5	CHURCH	307	n/a	n/a	0	0	0
1105520	REC_WORD	wordpools/wasnorm_wordpool_576.txt	LTP326	ltpFR2	0	5	STUDENT	1395	n/a	n/a	0	0	0
1106520	REC_WORD_VV	wordpools/wasnorm_wordpool_576.txt	LTP326	ltpFR2	0	5	<>	-1	n/a	n/a	0	0	0
1107401	REC_WORD	wordpools/wasnorm_wordpool_576.txt	LTP326	ltpFR2	0	5	BLACKBOARD	133	n/a	n/a	0	0	0
1109311	REC_WORD	wordpools/wasnorm_wordpool_576.txt	LTP326	ltpFR2	0	5	HAND	683	n/a	n/a	0	0	0
1111583	REC_WORD	wordpools/wasnorm_wordpool_576.txt	LTP326	ltpFR2	0	5	WIFE	1609	n/a	n/a	0	0	0
1113875	REC_WORD	wordpools/wasnorm_wordpool_576.txt	LTP326	ltpFR2	0	5	DRINK	498	n/a	n/a	0	0	0
1115785	REC_WORD	wordpools/wasnorm_wordpool_576.txt	LTP326	ltpFR2	0	5	COCKTAIL	338	n/a	n/a	0	0	0
1138876	REC_WORD	wordpools/wasnorm_wordpool_576.txt	LTP326	ltpFR2	0	5	CUPBOARD	425	n/a	n/a	0	0	0
1154539	REC_WORD	wordpools/wasnorm_wordpool_576.txt	LTP326	ltpFR2	0	5	OUTFIT	988	n/a	n/a	0	0	0
1162149	REC_WORD	wordpools/wasnorm_wordpool_576.txt	LTP326	ltpFR2	0	5	SHIRT	1287	n/a	n/a	0	0	0
1163639	REC_WORD	wordpools/wasnorm_wordpool_576.txt	LTP326	ltpFR2	0	5	SERVANT	1271	n/a	n/a	0	0	0
1164639	REC_WORD_VV	wordpools/wasnorm_wordpool_576.txt	LTP326	ltpFR2	0	5	<>	-1	n/a	n/a	0	0	0
1209870	WORD	wordpools/wasnorm_wordpool_576.txt	LTP326	ltpFR2	0	6	ANKLE	24	n/a	n/a	0	0	0
1212624	WORD	wordpools/wasnorm_wordpool_576.txt	LTP326	ltpFR2	0	6	PREACHER	1119	n/a	n/a	0	0	0
1215060	WORD	wordpools/wasnorm_wordpool_576.txt	LTP326	ltpFR2	0	6	FRAME	600	n/a	n/a	0	0	0
1217578	WORD	wordpools/wasnorm_wordpool_576.txt	LTP326	ltpFR2	0	6	SWAMP	1416	n/a	n/a	0	0	0
1219998	WORD	wordpools/wasnorm_wordpool_576.txt	LTP326	ltpFR2	0	6	BRANDY	169	n/a	n/a	0	0	0
1222449	WORD	wordpools/wasnorm_wordpool_576.txt	LTP326	ltpFR2	0	6	SIBLING	1301	n/a	n/a	0	0	0
1224885	WORD	wordpools/wasnorm_wordpool_576.txt	LTP326	ltpFR2	0	6	BROTHER	179	n/a	n/a	0	0	0
1227420	WORD	wordpools/wasnorm_wordpool_576.txt	LTP326	ltpFR2	0	6	PRINCE	1124	n/a	n/a	0	0	0
1229873	WORD	wordpools/wasnorm_wordpool_576.txt	LTP326	ltpFR2	0	6	BUTCHER	203	n/a	n/a	0	0	0
1232391	WORD	wordpools/wasnorm_wordpool_576.txt	LTP326	ltpFR2	0	6	VIKING	1565	n/a	n/a	0	0	0
1235110	WORD	wordpools/wasnorm_wordpool_576.txt	LTP326	ltpFR2	0	6	STICKER	1382	n/a	n/a	0	0	0
1237863	WORD	wordpools/wasnorm_wordpool_576.txt	LTP326	ltpFR2	0	6	GARBAGE	622	n/a	n/a	0	0	0
1240598	WORD	wordpools/wasnorm_wordpool_576.txt	LTP326	ltpFR2	0	6	GANGSTER	620	n/a	n/a	0	0	0
1243133	WORD	wordpools/wasnorm_wordpool_576.txt	LTP326	ltpFR2	0	6	BULLET	194	n/a	n/a	0	0	0
1245803	WORD	wordpools/wasnorm_wordpool_576.txt	LTP326	ltpFR2	0	6	FIREPLACE	570	n/a	n/a	0	0	0
1248487	WORD	wordpools/wasnorm_wordpool_576.txt	LTP326	ltpFR2	0	6	FOREST	593	n/a	n/a	0	0	0
1251090	WORD	wordpools/wasnorm_wordpool_576.txt	LTP326	ltpFR2	0	6	LAMP	798	n/a	n/a	0	0	0
1253843	WORD	wordpools/wasnorm_wordpool_576.txt	LTP326	ltpFR2	0	6	GIRL	637	n/a	n/a	0	0	0
1256477	WORD	wordpools/wasnorm_wordpool_576.txt	LTP326	ltpFR2	0	6	GYMNAST	675	n/a	n/a	0	0	0
1259014	WORD	wordpools/wasnorm_wordpool_576.txt	LTP326	ltpFR2	0	6	DENIM	446	n/a	n/a	0	0	0
1261670	WORD	wordpools/wasnorm_wordpool_576.txt	LTP326	ltpFR2	0	6	SALT	1229	n/a	n/a	0	0	0
1264485	WORD	wordpools/wasnorm_wordpool_576.txt	LTP326	ltpFR2	0	6	FIDDLE	561	n/a	n/a	0	0	0
1267203	WORD	wordpools/wasnorm_wordpool_576.txt	LTP326	ltpFR2	0	6	ZIPPER	1636	n/a	n/a	0	0	0
1269741	WORD	wordpools/wasnorm_wordpool_576.txt	LTP326	ltpFR2	0	6	RAFT	1159	n/a	n/a	0	0	0
1271357	START	n/a	LTP326	ltpFR2	0	n/a	n/a	n/a	10	n/a	n/a	n/a	n/a
1272394	DISTRACTOR	n/a	LTP326	ltpFR2	0	6	n/a	n/a	n/a	n/a	0	0	0
1272408	PROB	n/a	LTP326	ltpFR2	0	n/a	n/a	n/a	10	11	2	1	8
1274792	PROB	n/a	LTP326	ltpFR2	0	n/a	n/a	n/a	10	17	5	6	6
1278026	PROB	n/a	LTP326	ltpFR2	0	n/a	n/a	n/a	10	19	8	4	7
1279812	PROB	n/a	LTP326	ltpFR2	0	n/a	n/a	n/a	10	21	6	7	9
1283698	PROB	n/a	LTP326	ltpFR2	0	n/a	n/a	n/a	10	20	5	7	8
1287367	PROB	n/a	LTP326	ltpFR2	0	n/a	n/a	n/a	10	15	1	8	6
1289721	PROB	n/a	LTP326	ltpFR2	0	n/a	n/a	n/a	10	20	4	7	9
1292806	PROB	n/a	LTP326	ltpFR2	0	n/a	n/a	n/a	10	7	1	4	2
1294856	STOP	n/a	LTP326	ltpFR2	0	n/a	n/a	n/a	10	n/a	n/a	n/a	n/a
1297229	REC_START	n/a	LTP326	ltpFR2	0	6	n/a	n/a	n/a	n/a	0	0	0
1299127	REC_WORD	wordpools/wasnorm_wordpool_576.txt	LTP326	ltpFR2	0	6	ANKLE	24	n/a	n/a	0	0	0
1300776	REC_WORD	wordpools/wasnorm_wordpool_576.txt	LTP326	ltpFR2	0	6	PREACHER	1119	n/a	n/a	0	0	0
1310540	REC_WORD	wordpools/wasnorm_wordpool_576.txt	LTP326	ltpFR2	0	6	BUTCHER	203	n/a	n/a	0	0	0
1313234	REC_WORD	wordpools/wasnorm_wordpool_576.txt	LTP326	ltpFR2	0	6	GANGSTER	620	n/a	n/a	0	0	0
1314239	REC_WORD_VV	wordpools/wasnorm_wordpool_576.txt	LTP326	ltpFR2	0	6	<>	-1	n/a	n/a	0	0	0
1314987	REC_WORD	wordpools/wasnorm_wordpool_576.txt	LTP326	ltpFR2	0	6	GARBAGE	622	n/a	n/a	0	0	0
1317022	REC_WORD	wordpools/wasnorm_wordpool_576.txt	LTP326	ltpFR2	0	6	BULLET	194	n/a	n/a	0	0	0
1319037	REC_WORD	wordpools/wasnorm_wordpool_576.txt	LTP326	ltpFR2	0	6	FIREPLACE	570	n/a	n/a	0	0	0
1320037	REC_WORD_VV	wordpools/wasnorm_wordpool_576.txt	LTP326	ltpFR2	0	6	<>	-1	n/a	n/a	0	0	0
1321188	REC_WORD	wordpools/wasnorm_wordpool_576.txt	LTP326	ltpFR2	0	6	FOREST	593	n/a	n/a	0	0	0
1322188	REC_WORD_VV	wordpools/wasnorm_wordpool_576.txt	LTP326	ltpFR2	0	6	<>	-1	n/a	n/a	0	0	0
1323350	REC_WORD	wordpools/wasnorm_wordpool_576.txt	LTP326	ltpFR2	0	6	LAMP	798	n/a	n/a	0	0	0
1332702	REC_WORD	wordpools/wasnorm_wordpool_576.txt	LTP326	ltpFR2	0	6	GIRL	637	n/a	n/a	0	0	0
1336466	REC_WORD	wordpools/wasnorm_wordpool_576.txt	LTP326	ltpFR2	0	6	GYMNAST	675	n/a	n/a	0	0	0
1338819	REC_WORD	wordpools/wasnorm_wordpool_576.txt	LTP326	ltpFR2	0	6	DENIM	446	n/a	n/a	0	0	0
1342904	REC_WORD	wordpools/wasnorm_wordpool_576.txt	LTP326	ltpFR2	0	6	FIDDLE	561	n/a	n/a	0	0	0
1344937	REC_WORD	wordpools/wasnorm_wordpool_576.txt	LTP326	ltpFR2	0	6	ZIPPER	1636	n/a	n/a	0	0	0
1371269	REC_WORD	wordpools/wasnorm_wordpool_576.txt	LTP326	ltpFR2	0	6	STATUE	1374	n/a	n/a	0	0	0
1387685	WORD	wordpools/wasnorm_wordpool_576.txt	LTP326	ltpFR2	0	7	DANCER	437	n/a	n/a	0	0	0
1390422	WORD	wordpools/wasnorm_wordpool_576.txt	LTP326	ltpFR2	0	7	SHOVEL	1295	n/a	n/a	0	0	0
1393136	WORD	wordpools/wasnorm_wordpool_576.txt	LTP326	ltpFR2	0	7	DAISY	435	n/a	n/a	0	0	0
1395840	WORD	wordpools/wasnorm_wordpool_576.txt	LTP326	ltpFR2	0	7	HEDGE	699	n/a	n/a	0	0	0
1398412	WORD	wordpools/wasnorm_wordpool_576.txt	LTP326	ltpFR2	0	7	ROOSTER	1209	n/a	n/a	0	0	0
1401231	WORD	wordpools/wasnorm_wordpool_576.txt	LTP326	ltpFR2	0	7	TURKEY	1520	n/a	n/a	0	0	0
1403811	WORD	wordpools/wasnorm_wordpool_576.txt	LTP326	ltpFR2	0	7	SUSPECT	1415	n/a	n/a	0	0	0
1406262	WORD	wordpools/wasnorm_wordpool_576.txt	LTP326	ltpFR2	0	7	BOUQUET	157	n/a	n/a	0	0	0
1408799	WORD	wordpools/wasnorm_wordpool_576.txt	LTP326	ltpFR2	0	7	CLAMP	316	n/a	n/a	0	0	0
1411234	WORD	wordpools/wasnorm_wordpool_576.txt	LTP326	ltpFR2	0	7	MEAT	883	n/a	n/a	0	0	0
1414001	WORD	wordpools/wasnorm_wordpool_576.txt	LTP326	ltpFR2	0	7	SPOOL	1356	n/a	n/a	0	0	0
1416712	WORD	wordpools/wasnorm_wordpool_576.txt	LTP326	ltpFR2	0	7	YARN	1631	n/a	n/a	0	0	0
1419255	WORD	wordpools/wasnorm_wordpool_576.txt	LTP326	ltpFR2	0	7	DOUGHNUT	490	n/a	n/a	0	0	0
1421692	WORD	wordpools/wasnorm_wordpool_576.txt	LTP326	ltpFR2	0	7	VELVET	1555	n/a	n/a	0	0	0
1424317	WORD	wordpools/wasnorm_wordpool_576.txt	LTP326	ltpFR2	0	7	BEAST	108	n/a	n/a	0	0	0
1427045	WORD	wordpools/wasnorm_wordpool_576.txt	LTP326	ltpFR2	0	7	INMATE	738	n/a	n/a	0	0	0
1429471	WORD	wordpools/wasnorm_wordpool_576.txt	LTP326	ltpFR2	0	7	PROTON	1132	n/a	n/a	0	0	0
1431907	WORD	wordpools/wasnorm_wordpool_576.txt	LTP326	ltpFR2	0	7	STAPLE	1371	n/a	n/a	0	0	0
1434584	WORD	wordpools/wasnorm_wordpool_576.txt	LTP326	ltpFR2	0	7	COFFEE	341	n/a	n/a	0	0	0
1437278	WORD	wordpools/wasnorm_wordpool_576.txt	LTP326	ltpFR2	0	7	EAGLE	512	n/a	n/a	0	0	0
1439756	WORD	wordpools/wasnorm_wordpool_576.txt	LTP326	ltpFR2	0	7	SANDWICH	1232	n/a	n/a	0	0	0
1442340	WORD	wordpools/wasnorm_wordpool_576.txt	LTP326	ltpFR2	0	7	COMET	353	n/a	n/a	0	0	0
1444952	WORD	wordpools/wasnorm_wordpool_576.txt	LTP326	ltpFR2	0	7	HARP	689	n/a	n/a	0	0	0
1447386	WORD	wordpools/wasnorm_wordpool_576.txt	LTP326	ltpFR2	0	7	CIGAR	308	n/a	n/a	0	0	0
1448996	START	n/a	LTP326	ltpFR2	0	n/a	n/a	n/a	11	n/a	n/a	n/a	n/a
1450037	DISTRACTOR	n/a	LTP326	ltpFR2	0	7	n/a	n/a	n/a	n/a	0	0	0
1450046	PROB	n/a	LTP326	ltpFR2	0	n/a	n/a	n/a	11	21	9	9	3
1454109	PROB	n/a	LTP326	ltpFR2	0	n/a	n/a	n/a	11	16	6	3	7
1456258	PROB	n/a	LTP326	ltpFR2	0	n/a	n/a	n/a	11	19	5	5	9
1457875	PROB	n/a	LTP326	ltpFR2	0	n/a	n/a	n/a	11	14	3	7	4
1459345	PROB	n/a	LTP326	ltpFR2	0	n/a	n/a	n/a	11	6	7	3	6
1460848	PROB	n/a	LTP326	ltpFR2	0	n/a	n/a	n/a	11	1	6	9	6
1464315	PROB	n/a	LTP326	ltpFR2	0	n/a	n/a	n/a	11	1	1	3	8
1472996	STOP	n/a	LTP326	ltpFR2	0	n/a	n/a	n/a	11	n/a	n/a	n/a	n/a
1474875	REC_START	n/a	LTP326	ltpFR2	0	7	n/a	n/a	n/a	n/a	0	0	0
1482537	REC_WORD	wordpools/wasnorm_wordpool_576.txt	LTP326	ltpFR2	0	7	DANCER	437	n/a	n/a	0	0	0
1483537	REC_WORD_VV	wordpools/wasnorm_wordpool_576.txt	LTP326	ltpFR2	0	7	<>	-1	n/a	n/a	0	0	0
1488080	REC_WORD	wordpools/wasnorm_wordpool_576.txt	LTP326	ltpFR2	0	7	TURKEY	1520	n/a	n/a	0	0	0
1489879	REC_WORD	wordpools/wasnorm_wordpool_576.txt	LTP326	ltpFR2	0	7	ROOSTER	1209	n/a	n/a	0	0	0
1491870	REC_WORD	wordpools/wasnorm_wordpool_576.txt	LTP326	ltpFR2	0	7	DAISY	435	n/a	n/a	0	0	0
1495794	REC_WORD	wordpools/wasnorm_wordpool_576.txt	LTP326	ltpFR2	0	7	BOUQUET	157	n/a	n/a	0	0	0
1498166	REC_WORD	wordpools/wasnorm_wordpool_576.txt	LTP326	ltpFR2	0	7	HEDGE	699	n/a	n/a	0	0	0
1501104	REC_WORD	wordpools/wasnorm_wordpool_576.txt	LTP326	ltpFR2	0	7	CLAMP	316	n/a	n/a	0	0	0
1503173	REC_WORD	wordpools/wasnorm_wordpool_576.txt	LTP326	ltpFR2	0	7	SPOOL	1356	n/a	n/a	0	0	0
1504174	REC_WORD_VV	wordpools/wasnorm_wordpool_576.txt	LTP326	ltpFR2	0	7	<>	-1	n/a	n/a	0	0	0
1505127	REC_WORD	wordpools/wasnorm_wordpool_576.txt	LTP326	ltpFR2	0	7	YARN	1631	n/a	n/a	0	0	0
1507582	REC_WORD	wordpools/wasnorm_wordpool_576.txt	LTP326	ltpFR2	0	7	DOUGHNUT	490	n/a	n/a	0	0	0
1509425	REC_WORD	wordpools/wasnorm_wordpool_576.txt	LTP326	ltpFR2	0	7	COFFEE	341	n/a	n/a	0	0	0
1511270	REC_WORD	wordpools/wasnorm_wordpool_576.txt	LTP326	ltpFR2	0	7	SANDWICH	1232	n/a	n/a	0	0	0
1512270	REC_WORD_VV	wordpools/wasnorm_wordpool_576.txt	LTP326	ltpFR2	0	7	<>	-1	n/a	n/a	0	0	0
1529674	REC_WORD	wordpools/wasnorm_wordpool_576.txt	LTP326	ltpFR2	0	7	CIGAR	308	n/a	n/a	0	0	0
1545287	REC_WORD	wordpools/wasnorm_wordpool_576.txt	LTP326	ltpFR2	0	7	EAGLE	512	n/a	n/a	0	0	0
1565351	WORD	wordpools/wasnorm_wordpool_576.txt	LTP326	ltpFR2	0	8	TILE	1468	n/a	n/a	0	0	0
1567836	WORD	wordpools/wasnorm_wordpool_576.txt	LTP326	ltpFR2	0	8	SEAGULL	1261	n/a	n/a	0	0	0
1570504	WORD	wordpools/wasnorm_wordpool_576.txt	LTP326	ltpFR2	0	8	RUST	1219	n/a	n/a	0	0	0
1572990	WORD	wordpools/wasnorm_wordpool_576.txt	LTP326	ltpFR2	0	8	DRIVER	499	n/a	n/a	0	0	0
1575442	WORD	wordpools/wasnorm_wordpool_576.txt	LTP326	ltpFR2	0	8	MUFFIN	929	n/a	n/a	0	0	0
1578243	WORD	wordpools/wasnorm_wordpool_576.txt	LTP326	ltpFR2	0	8	CHAUFFEUR	283	n/a	n/a	0	0	0
1580764	WORD	wordpools/wasnorm_wordpool_576.txt	LTP326	ltpFR2	0	8	RACKET	1155	n/a	n/a	0	0	0
1583566	WORD	wordpools/wasnorm_wordpool_576.txt	LTP326	ltpFR2	0	8	HAWK	692	n/a	n/a	0	0	0
1586303	WORD	wordpools/wasnorm_wordpool_576.txt	LTP326	ltpFR2	0	8	ARMY	39	n/a	n/a	0	0	0
1589085	WORD	wordpools/wasnorm_wordpool_576.txt	LTP326	ltpFR2	0	8	MARKER	870	n/a	n/a	0	0	0
1591772	WORD	wordpools/wasnorm_wordpool_576.txt	LTP326	ltpFR2	0	8	AGENT	10	n/a	n/a	0	0	0
1594375	WORD	wordpools/wasnorm_wordpool_576.txt	LTP326	ltpFR2	0	8	TROUT	1511	n/a	n/a	0	0	0
1597025	WORD	wordpools/wasnorm_wordpool_576.txt	LTP326	ltpFR2	0	8	SHOULDER	1294	n/a	n/a	0	0	0
1599812	WORD	wordpools/wasnorm_wordpool_576.txt	LTP326	ltpFR2	0	8	FOOT	590	n/a	n/a	0	0	0
1602629	WORD	wordpools/wasnorm_wordpool_576.txt	LTP326	ltpFR2	0	8	BELLY	119	n/a	n/a	0	0	0
1605368	WORD	wordpools/wasnorm_wordpool_576.txt	LTP326	ltpFR2	0	8	BRICK	172	n/a	n/a	0	0	0
1607854	WORD	wordpools/wasnorm_wordpool_576.txt	LTP326	ltpFR2	0	8	DASHBOARD	441	n/a	n/a	0	0	0
1610318	WORD	wordpools/wasnorm_wordpool_576.txt	LTP326	ltpFR2	0	8	ELBOW	520	n/a	n/a	0	0	0
1613021	WORD	wordpools/wasnorm_wordpool_576.txt	LTP326	ltpFR2	0	8	CRUTCH	417	n/a	n/a	0	0	0
1615605	WORD	wordpools/wasnorm_wordpool_576.txt	LTP326	ltpFR2	0	8	BREAST	171	n/a	n/a	0	0	0
1618224	WORD	wordpools/wasnorm_wordpool_576.txt	LTP326	ltpFR2	0	8	PUDDLE	1140	n/a	n/a	0	0	0
1620711	WORD	wordpools/wasnorm_wordpool_576.txt	LTP326	ltpFR2	0	8	BROOK	177	n/a	n/a	0	0	0
1623478	WORD	wordpools/wasnorm_wordpool_576.txt	LTP326	ltpFR2	0	8	JOURNAL	760	n/a	n/a	0	0	0
1626118	WORD	wordpools/wasnorm_wordpool_576.txt	LTP326	ltpFR2	0	8	MISTER	901	n/a	n/a	0	0	0
1627733	START	n/a	LTP326	ltpFR2	0	n/a	n/a	n/a	12	n/a	n/a	n/a	n/a
1628748	DISTRACTOR	n/a	LTP326	ltpFR2	0	8	n/a	n/a	n/a	n/a	0	0	0
1628756	PROB	n/a	LTP326	ltpFR2	0	n/a	n/a	n/a	12	16	8	3	5
1632239	PROB	n/a	LTP326	ltpFR2	0	n/a	n/a	n/a	12	12	2	8	2
1635167	PROB	n/a	LTP326	ltpFR2	0	n/a	n/a	n/a	12	15	9	4	2
1640363	PROB	n/a	LTP326	ltpFR2	0	n/a	n/a	n/a	12	15	5	2	8
1642646	PROB	n/a	LTP326	ltpFR2	0	n/a	n/a	n/a	12	12	6	4	2
1644230	PROB	n/a	LTP326	ltpFR2	0	n/a	n/a	n/a	12	17	6	8	3
1646568	PROB	n/a	LTP326	ltpFR2	0	n/a	n/a	n/a	12	17	5	6	6
1650887	STOP	n/a	LTP326	ltpFR2	0	n/a	n/a	n/a	12	n/a	n/a	n/a	n/a
1653489	REC_START	n/a	LTP326	ltpFR2	0	8	n/a	n/a	n/a	n/a	0	0	0
1655659	REC_WORD	wordpools/wasnorm_wordpool_576.txt	LTP326	ltpFR2	0	8	FOOT	590	n/a	n/a	0	0	0
1657108	REC_WORD	wordpools/wasnorm_wordpool_576.txt	LTP326	ltpFR2	0	8	SHOULDER	1294	n/a	n/a	0	0	0
1659423	REC_WORD	wordpools/wasnorm_wordpool_576.txt	LTP326	ltpFR2	0	8	ELBOW	520	n/a	n/a	0	0	0
1661431	REC_WORD	wordpools/wasnorm_wordpool_576.txt	LTP326	ltpFR2	0	8	BREAST	171	n/a	n/a	0	0	0
1663472	REC_WORD	wordpools/wasnorm_wordpool_576.txt	LTP326	ltpFR2	0	8	DASHBOARD	441	n/a	n/a	0	0	0
1664472	REC_WORD_VV	wordpools/wasnorm_wordpool_576.txt	LTP326	ltpFR2	0	8	<>	-1	n/a	n/a	0	0	0
1665306	REC_WORD	wordpools/wasnorm_wordpool_576.txt	LTP326	ltpFR2	0	8	CHAUFFEUR	283	n/a	n/a	0	0	0
1666306	REC_WORD_VV	wordpools/wasnorm_wordpool_576.txt	LTP326	ltpFR2	0	8	<>	-1	n/a	n/a	0	0	0
1667728	REC_WORD	wordpools/wasnorm_wordpool_576.txt	LTP326	ltpFR2	0	8	DRIVER	499	n/a	n/a	0	0	0
1668728	REC_WORD_VV	wordpools/wasnorm_wordpool_576.txt	LTP326	ltpFR2	0	8	<>	-1	n/a	n/a	0	0	0
1689761	REC_WORD	wordpools/wasnorm_wordpool_576.txt	LTP326	ltpFR2	0	8	ARMY	39	n/a	n/a	0	0	0
1691639	REC_WORD	wordpools/wasnorm_wordpool_576.txt	LTP326	ltpFR2	0	8	MARKER	870	n/a	n/a	0	0	0
1694078	REC_WORD	wordpools/wasnorm_wordpool_576.txt	LTP326	ltpFR2	0	8	AGENT	10	n/a	n/a	0	0	0
1699544	REC_WORD	wordpools/wasnorm_wordpool_576.txt	LTP326	ltpFR2	0	8	HAWK	692	n/a	n/a	0	0	0
1704988	REC_WORD	wordpools/wasnorm_wordpool_576.txt	LTP326	ltpFR2	0	8	ANKLE	24	n/a	n/a	0	0	0
1712920	REC_WORD	wordpools/wasnorm_wordpool_576.txt	LTP326	ltpFR2	0	8	TILE	1468	n/a	n/a	0	0	0
1730022	REST_REWET	n/a	LTP326	ltpFR2	0	8	n/a	n/a	n/a	n/a	0	0	0
2076343	WORD	wordpools/wasnorm_wordpool_576.txt	LTP326	ltpFR2	0	9	ULCER	1533	n/a	n/a	0	0	0
2078925	WORD	wordpools/wasnorm_wordpool_576.txt	LTP326	ltpFR2	0	9	TABLET	1427	n/a	n/a	0	0	0
2081628	WORD	wordpools/wasnorm_wordpool_576.txt	LTP326	ltpFR2	0	9	SPARROW	1347	n/a	n/a	0	0	0
2084246	WORD	wordpools/wasnorm_wordpool_576.txt	LTP326	ltpFR2	0	9	JURY	766	n/a	n/a	0	0	0
2086800	WORD	wordpools/wasnorm_wordpool_576.txt	LTP326	ltpFR2	0	9	SPOUSE	1358	n/a	n/a	0	0	0
2089487	WORD	wordpools/wasnorm_wordpool_576.txt	LTP326	ltpFR2	0	9	ITEM	746	n/a	n/a	0	0	0
2092173	WORD	wordpools/wasnorm_wordpool_576.txt	LTP326	ltpFR2	0	9	GLOBE	641	n/a	n/a	0	0	0
2094620	WORD	wordpools/wasnorm_wordpool_576.txt	LTP326	ltpFR2	0	9	SALMON	1227	n/a	n/a	0	0	0
2097372	WORD	wordpools/wasnorm_wordpool_576.txt	LTP326	ltpFR2	0	9	BLOUSE	139	n/a	n/a	0	0	0
2099825	WORD	wordpools/wasnorm_wordpool_576.txt	LTP326	ltpFR2	0	9	APRON	35	n/a	n/a	0	0	0
2102281	WORD	wordpools/wasnorm_wordpool_576.txt	LTP326	ltpFR2	0	9	FLOWER	584	n/a	n/a	0	0	0
2104863	WORD	wordpools/wasnorm_wordpool_576.txt	LTP326	ltpFR2	0	9	WITNESS	1618	n/a	n/a	0	0	0
2107363	WORD	wordpools/wasnorm_wordpool_576.txt	LTP326	ltpFR2	0	9	LODGE	839	n/a	n/a	0	0	0
2109954	WORD	wordpools/wasnorm_wordpool_576.txt	LTP326	ltpFR2	0	9	SWIMMER	1420	n/a	n/a	0	0	0
2112617	WORD	wordpools/wasnorm_wordpool_576.txt	LTP326	ltpFR2	0	9	SCRIBBLE	1256	n/a	n/a	0	0	0
2115154	WORD	wordpools/wasnorm_wordpool_576.txt	LTP326	ltpFR2	0	9	SCARF	1246	n/a	n/a	0	0	0
2117806	WORD	wordpools/wasnorm_wordpool_576.txt	LTP326	ltpFR2	0	9	FOREHEAD	592	n/a	n/a	0	0	0
2120513	WORD	wordpools/wasnorm_wordpool_576.txt	LTP326	ltpFR2	0	9	ORCHID	982	n/a	n/a	0	0	0
2123327	WORD	wordpools/wasnorm_wordpool_576.txt	LTP326	ltpFR2	0	9	MARS	873	n/a	n/a	0	0	0
2125778	WORD	wordpools/wasnorm_wordpool_576.txt	LTP326	ltpFR2	0	9	HEART	697	n/a	n/a	0	0	0
2128563	WORD	wordpools/wasnorm_wordpool_576.txt	LTP326	ltpFR2	0	9	TRANSPLANT	1496	n/a	n/a	0	0	0
2131132	WORD	wordpools/wasnorm_wordpool_576.txt	LTP326	ltpFR2	0	9	TORTOISE	1486	n/a	n/a	0	0	0
2133550	WORD	wordpools/wasnorm_wordpool_576.txt	LTP326	ltpFR2	0	9	PASTA	1021	n/a	n/a	0	0	0
2136285	WORD	wordpools/wasnorm_wordpool_576.txt	LTP326	ltpFR2	0	9	DRESS	495	n/a	n/a	0	0	0
2137895	START	n/a	LTP326	ltpFR2	0	n/a	n/a	n/a	13	n/a	n/a	n/a	n/a
2138865	DISTRACTOR	n/a	LTP326	ltpFR2	0	9	n/a	n/a	n/a	n/a	0	0	0
2138872	PROB	n/a	LTP326	ltpFR2	0	n/a	n/a	n/a	13	10	5	1	4
2141145	PROB	n/a	LTP326	ltpFR2	0	n/a	n/a	n/a	13	17	7	3	7
2142812	PROB	n/a	LTP326	ltpFR2	0	n/a	n/a	n/a	13	17	7	2	8
2144897	PROB	n/a	LTP326	ltpFR2	0	n/a	n/a	n/a	13	12	4	4	4
2147149	PROB	n/a	LTP326	ltpFR2	0	n/a	n/a	n/a	13	8	2	4	4
2148788	PROB	n/a	LTP326	ltpFR2	0	n/a	n/a	n/a	13	12	5	3	5
2152953	PROB	n/a	LTP326	ltpFR2	0	n/a	n/a	n/a	13	20	8	9	3
2155473	PROB	n/a	LTP326	ltpFR2	0	n/a	n/a	n/a	13	21	9	9	3
2158141	PROB	n/a	LTP326	ltpFR2	0	n/a	n/a	n/a	13	15	5	8	2
2161736	STOP	n/a	LTP326	ltpFR2	0	n/a	n/a	n/a	13	n/a	n/a	n/a	n/a
2163646	REC_START	n/a	LTP326	ltpFR2	0	9	n/a	n/a	n/a	n/a	0	0	0
2164673	REC_WORD	wordpools/wasnorm_wordpool_576.txt	LTP326	ltpFR2	0	9	DRESS	495	n/a	n/a	0	0	0
2167020	REC_WORD	wordpools/wasnorm_wordpool_576.txt	LTP326	ltpFR2	0	9	ITEM	746	n/a	n/a	0	0	0
2168857	REC_WORD	wordpools/wasnorm_wordpool_576.txt	LTP326	ltpFR2	0	9	SCARF	1246	n/a	n/a	0	0	0
2171147	REC_WORD	wordpools/wasnorm_wordpool_576.txt	LTP326	ltpFR2	0	9	FOREHEAD	592	n/a	n/a	0	0	0
2172147	REC_WORD_VV	wordpools/wasnorm_wordpool_576.txt	LTP326	ltpFR2	0	9	<>	-1	n/a	n/a	0	0	0
2178083	REC_WORD	wordpools/wasnorm_wordpool_576.txt	LTP326	ltpFR2	0	9	MARS	873	n/a	n/a	0	0	0
2184993	REC_WORD	wordpools/wasnorm_wordpool_576.txt	LTP326	ltpFR2	0	9	GLOBE	641	n/a	n/a	0	0	0
2200440	REC_WORD	wordpools/wasnorm_wordpool_576.txt	LTP326	ltpFR2	0	9	ORCHID	982	n/a	n/a	0	0	0
2234096	REC_WORD	wordpools/wasnorm_wordpool_576.txt	LTP326	ltpFR2	0	9	WITNESS	1618	n/a	n/a	0	0	0
2254092	DISTRACTOR	n/a	LTP326	ltpFR2	0	10	n/a	n/a	n/a	n/a	0	0	0
2254092	START	n/a	LTP326	ltpFR2	0	n/a	n/a	n/a	14	n/a	n/a	n/a	n/a
2254104	PROB	n/a	LTP326	ltpFR2	0	n/a	n/a	n/a	14	14	8	5	1
2258624	PROB	n/a	LTP326	ltpFR2	0	n/a	n/a	n/a	14	19	6	6	7
2261445	PROB	n/a	LTP326	ltpFR2	0	n/a	n/a	n/a	14	17	4	6	7
2263479	PROB	n/a	LTP326	ltpFR2	0	n/a	n/a	n/a	14	6	1	1	4
2265200	PROB	n/a	LTP326	ltpFR2	0	n/a	n/a	n/a	14	18	6	6	6
2267932	PROB	n/a	LTP326	ltpFR2	0	n/a	n/a	n/a	14	16	8	3	5
2270319	PROB	n/a	LTP326	ltpFR2	0	n/a	n/a	n/a	14	15	9	5	1
2272170	PROB	n/a	LTP326	ltpFR2	0	n/a	n/a	n/a	14	20	4	7	9
2275392	PROB	n/a	LTP326	ltpFR2	0	n/a	n/a	n/a	14	8	4	2	2
2277063	STOP	n/a	LTP326	ltpFR2	0	n/a	n/a	n/a	14	n/a	n/a	n/a	n/a
2279312	WORD	wordpools/wasnorm_wordpool_576.txt	LTP326	ltpFR2	0	10	BURGLAR	200	n/a	n/a	0	0	0
2281865	WORD	wordpools/wasnorm_wordpool_576.txt	LTP326	ltpFR2	0	10	CLOUD	328	n/a	n/a	0	0	0
2284382	WORD	wordpools/wasnorm_wordpool_576.txt	LTP326	ltpFR2	0	10	POWDER	1117	n/a	n/a	0	0	0
2287067	WORD	wordpools/wasnorm_wordpool_576.txt	LTP326	ltpFR2	0	10	PEACH	1031	n/a	n/a	0	0	0
2289787	WORD	wordpools/wasnorm_wordpool_576.txt	LTP326	ltpFR2	0	10	IGLOO	734	n/a	n/a	0	0	0
2292589	WORD	wordpools/wasnorm_wordpool_576.txt	LTP326	ltpFR2	0	10	MARINE	869	n/a	n/a	0	0	0
2295140	WORD	wordpools/wasnorm_wordpool_576.txt	LTP326	ltpFR2	0	10	ISLAND	745	n/a	n/a	0	0	0
2297726	WORD	wordpools/wasnorm_wordpool_576.txt	LTP326	ltpFR2	0	10	MISSILE	900	n/a	n/a	0	0	0
2300245	WORD	wordpools/wasnorm_wordpool_576.txt	LTP326	ltpFR2	0	10	RATTLE	1170	n/a	n/a	0	0	0
2303063	WORD	wordpools/wasnorm_wordpool_576.txt	LTP326	ltpFR2	0	10	DIME	466	n/a	n/a	0	0	0
2305800	WORD	wordpools/wasnorm_wordpool_576.txt	LTP326	ltpFR2	0	10	LIGHTNING	820	n/a	n/a	0	0	0
2308567	WORD	wordpools/wasnorm_wordpool_576.txt	LTP326	ltpFR2	0	10	DRAGON	492	n/a	n/a	0	0	0
2311319	WORD	wordpools/wasnorm_wordpool_576.txt	LTP326	ltpFR2	0	10	CASHIER	254	n/a	n/a	0	0	0
2314138	WORD	wordpools/wasnorm_wordpool_576.txt	LTP326	ltpFR2	0	10	TOURIST	1488	n/a	n/a	0	0	0
2316940	WORD	wordpools/wasnorm_wordpool_576.txt	LTP326	ltpFR2	0	10	TURNIP	1521	n/a	n/a	0	0	0
2319426	WORD	wordpools/wasnorm_wordpool_576.txt	LTP326	ltpFR2	0	10	JELLY	755	n/a	n/a	0	0	0
2322030	WORD	wordpools/wasnorm_wordpool_576.txt	LTP326	ltpFR2	0	10	PISTOL	1075	n/a	n/a	0	0	0
2324612	WORD	wordpools/wasnorm_wordpool_576.txt	LTP326	ltpFR2	0	10	HORSE	719	n/a	n/a	0	0	0
2327282	WORD	wordpools/wasnorm_wordpool_576.txt	LTP326	ltpFR2	0	10	STALLION	1369	n/a	n/a	0	0	0
2329788	WORD	wordpools/wasnorm_wordpool_576.txt	LTP326	ltpFR2	0	10	HUSBAND	728	n/a	n/a	0	0	0
2332356	WORD	wordpools/wasnorm_wordpool_576.txt	LTP326	ltpFR2	0	10	GHETTO	633	n/a	n/a	0	0	0
2335037	WORD	wordpools/wasnorm_wordpool_576.txt	LTP326	ltpFR2	0	10	CONVICT	371	n/a	n/a	0	0	0
2337674	WORD	wordpools/wasnorm_wordpool_576.txt	LTP326	ltpFR2	0	10	CITRUS	313	n/a	n/a	0	0	0
2340212	WORD	wordpools/wasnorm_wordpool_576.txt	LTP326	ltpFR2	0	10	BEAKER	104	n/a	n/a	0	0	0
2341827	START	n/a	LTP326	ltpFR2	0	n/a	n/a	n/a	15	n/a	n/a	n/a	n/a
2342746	DISTRACTOR	n/a	LTP326	ltpFR2	0	10	n/a	n/a	n/a	n/a	0	0	0
2342761	PROB	n/a	LTP326	ltpFR2	0	n/a	n/a	n/a	15	18	5	9	4
2345631	PROB	n/a	LTP326	ltpFR2	0	n/a	n/a	n/a	15	21	8	9	4
2348216	PROB	n/a	LTP326	ltpFR2	0	n/a	n/a	n/a	15	16	1	9	6
2350001	PROB	n/a	LTP326	ltpFR2	0	n/a	n/a	n/a	15	19	7	3	9
2351270	PROB	n/a	LTP326	ltpFR2	0	n/a	n/a	n/a	15	18	8	5	7
2353954	PROB	n/a	LTP326	ltpFR2	0	n/a	n/a	n/a	15	12	2	2	8
2356692	PROB	n/a	LTP326	ltpFR2	0	n/a	n/a	n/a	15	9	3	4	2
2358410	PROB	n/a	LTP326	ltpFR2	0	n/a	n/a	n/a	15	15	6	4	5
2359795	PROB	n/a	LTP326	ltpFR2	0	n/a	n/a	n/a	15	17	2	6	9
2364351	STOP	n/a	LTP326	ltpFR2	0	n/a	n/a	n/a	15	n/a	n/a	n/a	n/a
2367717	REC_START	n/a	LTP326	ltpFR2	0	10	n/a	n/a	n/a	n/a	0	0	0
2370851	REC_WORD	wordpools/wasnorm_wordpool_576.txt	LTP326	ltpFR2	0	10	BURGLAR	200	n/a	n/a	0	0	0
2373836	REC_WORD	wordpools/wasnorm_wordpool_576.txt	LTP326	ltpFR2	0	10	CONVICT	371	n/a	n/a	0	0	0
2374836	REC_WORD_VV	wordpools/wasnorm_wordpool_576.txt	LTP326	ltpFR2	0	10	<>	-1	n/a	n/a	0	0	0
2375772	REC_WORD	wordpools/wasnorm_wordpool_576.txt	LTP326	ltpFR2	0	10	CASHIER	254	n/a	n/a	0	0	0
2378735	REC_WORD	wordpools/wasnorm_wordpool_576.txt	LTP326	ltpFR2	0	10	DIME	466	n/a	n/a	0	0	0
2383083	REC_WORD	wordpools/wasnorm_wordpool_576.txt	LTP326	ltpFR2	0	10	PEACH	1031	n/a	n/a	0	0	0
2385386	REC_WORD	wordpools/wasnorm_wordpool_576.txt	LTP326	ltpFR2	0	10	JELLY	755	n/a	n/a	0	0	0
2387965	REC_WORD	wordpools/wasnorm_wordpool_576.txt	LTP326	ltpFR2	0	10	CITRUS	313	n/a	n/a	0	0	0
2388965	REC_WORD_VV	wordpools/wasnorm_wordpool_576.txt	LTP326	ltpFR2	0	10	<>	-1	n/a	n/a	0	0	0
2393629	REC_WORD	wordpools/wasnorm_wordpool_576.txt	LTP326	ltpFR2	0	10	POWDER	1117	n/a	n/a	0	0	0
2396163	REC_WORD	wordpools/wasnorm_wordpool_576.txt	LTP326	ltpFR2	0	10	LIGHTNING	820	n/a	n/a	0	0	0
2401468	REC_WORD	wordpools/wasnorm_wordpool_576.txt	LTP326	ltpFR2	0	10	CLOUD	328	n/a	n/a	0	0	0
2408181	REC_WORD	wordpools/wasnorm_wordpool_576.txt	LTP326	ltpFR2	0	10	RATTLE	1170	n/a	n/a	0	0	0
2410524	REC_WORD	wordpools/wasnorm_wordpool_576.txt	LTP326	ltpFR2	0	10	ISLAND	745	n/a	n/a	0	0	0
2433304	REC_WORD	wordpools/wasnorm_wordpool_576.txt	LTP326	ltpFR2	0	10	HUSBAND	728	n/a	n/a	0	0	0
2458161	DISTRACTOR	n/a	LTP326	ltpFR2	0	11	n/a	n/a	n/a	n/a	0	0	0
2458162	START	n/a	LTP326	ltpFR2	0	n/a	n/a	n/a	16	n/a	n/a	n/a	n/a
2458174	PROB	n/a	LTP326	ltpFR2	0	n/a	n/a	n/a	16	13	1	4	8
2461394	PROB	n/a	LTP326	ltpFR2	0	n/a	n/a	n/a	16	17	2	8	7
2462763	PROB	n/a	LTP326	ltpFR2	0	n/a	n/a	n/a	16	14	3	3	8
2466299	PROB	n/a	LTP326	ltpFR2	0	n/a	n/a	n/a	16	21	9	4	8
2468901	PROB	n/a	LTP326	ltpFR2	0	n/a	n/a	n/a	16	10	1	4	5
2472386	PROB	n/a	LTP326	ltpFR2	0	n/a	n/a	n/a	16	26	9	8	9
2477678	PROB	n/a	LTP326	ltpFR2	0	n/a	n/a	n/a	16	23	8	7	8
2482047	STOP	n/a	LTP326	ltpFR2	0	n/a	n/a	n/a	16	n/a	n/a	n/a	n/a
2483114	WORD	wordpools/wasnorm_wordpool_576.txt	LTP326	ltpFR2	0	11	ASIA	46	n/a	n/a	0	0	0
2485670	WORD	wordpools/wasnorm_wordpool_576.txt	LTP326	ltpFR2	0	11	STAMP	1370	n/a	n/a	0	0	0
2488270	WORD	wordpools/wasnorm_wordpool_576.txt	LTP326	ltpFR2	0	11	SISTER	1312	n/a	n/a	0	0	0
2490988	WORD	wordpools/wasnorm_wordpool_576.txt	LTP326	ltpFR2	0	11	MATTRESS	879	n/a	n/a	0	0	0
2493557	WORD	wordpools/wasnorm_wordpool_576.txt	LTP326	ltpFR2	0	11	VALLEY	1545	n/a	n/a	0	0	0
2496109	WORD	wordpools/wasnorm_wordpool_576.txt	LTP326	ltpFR2	0	11	SUMMIT	1405	n/a	n/a	0	0	0
2498644	WORD	wordpools/wasnorm_wordpool_576.txt	LTP326	ltpFR2	0	11	BOX	159	n/a	n/a	0	0	0
2501130	WORD	wordpools/wasnorm_wordpool_576.txt	LTP326	ltpFR2	0	11	VICTIM	1562	n/a	n/a	0	0	0
2503700	WORD	wordpools/wasnorm_wordpool_576.txt	LTP326	ltpFR2	0	11	WIDOW	1608	n/a	n/a	0	0	0
2506183	WORD	wordpools/wasnorm_wordpool_576.txt	LTP326	ltpFR2	0	11	SEAL	1262	n/a	n/a	0	0	0
2508753	WORD	wordpools/wasnorm_wordpool_576.txt	LTP326	ltpFR2	0	11	EUROPE	541	n/a	n/a	0	0	0
2511388	WORD	wordpools/wasnorm_wordpool_576.txt	LTP326	ltpFR2	0	11	PASSAGE	1019	n/a	n/a	0	0	0
2513891	WORD	wordpools/wasnorm_wordpool_576.txt	LTP326	ltpFR2	0	11	PERCH	1048	n/a	n/a	0	0	0
2516525	WORD	wordpools/wasnorm_wordpool_576.txt	LTP326	ltpFR2	0	11	STREAM	1392	n/a	n/a	0	0	0
2519294	WORD	wordpools/wasnorm_wordpool_576.txt	LTP326	ltpFR2	0	11	LAKE	796	n/a	n/a	0	0	0
2522047	WORD	wordpools/wasnorm_wordpool_576.txt	LTP326	ltpFR2	0	11	CREVICE	405	n/a	n/a	0	0	0
2524699	WORD	wordpools/wasnorm_wordpool_576.txt	LTP326	ltpFR2	0	11	LUGGAGE	847	n/a	n/a	0	0	0
2527184	WORD	wordpools/wasnorm_wordpool_576.txt	LTP326	ltpFR2	0	11	KIDNEY	776	n/a	n/a	0	0	0
2529619	WORD	wordpools/wasnorm_wordpool_576.txt	LTP326	ltpFR2	0	11	QUEEN	1149	n/a	n/a	0	0	0
2532121	WORD	wordpools/wasnorm_wordpool_576.txt	LTP326	ltpFR2	0	11	MAILBOX	857	n/a	n/a	0	0	0
2534774	WORD	wordpools/wasnorm_wordpool_576.txt	LTP326	ltpFR2	0	11	SUBWAY	1400	n/a	n/a	0	0	0
2537542	WORD	wordpools/wasnorm_wordpool_576.txt	LTP326	ltpFR2	0	11	CASKET	255	n/a	n/a	0	0	0
2540178	WORD	wordpools/wasnorm_wordpool_576.txt	LTP326	ltpFR2	0	11	COLONEL	348	n/a	n/a	0	0	0
2542846	WORD	wordpools/wasnorm_wordpool_576.txt	LTP326	ltpFR2	0	11	GRAVEL	659	n/a	n/a	0	0	0
2544464	START	n/a	LTP326	ltpFR2	0	n/a	n/a	n/a	17	n/a	n/a	n/a	n/a
2545278	DISTRACTOR	n/a	LTP326	ltpFR2	0	11	n/a	n/a	n/a	n/a	0	0	0
2545298	PROB	n/a	LTP326	ltpFR2	0	n/a	n/a	n/a	17	19	5	6	8
2549452	PROB	n/a	LTP326	ltpFR2	0	n/a	n/a	n/a	17	21	5	9	7
2552119	PROB	n/a	LTP326	ltpFR2	0	n/a	n/a	n/a	17	16	8	2	6
2553986	PROB	n/a	LTP326	ltpFR2	0	n/a	n/a	n/a	17	17	8	7	2
2556036	PROB	n/a	LTP326	ltpFR2	0	n/a	n/a	n/a	17	16	2	6	8
2558388	PROB	n/a	LTP326	ltpFR2	0	n/a	n/a	n/a	17	15	2	4	9
2560240	PROB	n/a	LTP326	ltpFR2	0	n/a	n/a	n/a	17	9	3	3	4
2562696	PROB	n/a	LTP326	ltpFR2	0	n/a	n/a	n/a	17	27	8	8	9
2568464	STOP	n/a	LTP326	ltpFR2	0	n/a	n/a	n/a	17	n/a	n/a	n/a	n/a
2570265	REC_START	n/a	LTP326	ltpFR2	0	11	n/a	n/a	n/a	n/a	0	0	0
2572182	REC_WORD	wordpools/wasnorm_wordpool_576.txt	LTP326	ltpFR2	0	11	SISTER	1312	n/a	n/a	0	0	0
2573786	REC_WORD	wordpools/wasnorm_wordpool_576.txt	LTP326	ltpFR2	0	11	WIDOW	1608	n/a	n/a	0	0	0
2575506	REC_WORD	wordpools/wasnorm_wordpool_576.txt	LTP326	ltpFR2	0	11	VICTIM	1562	n/a	n/a	0	0	0
2582431	REC_WORD	wordpools/wasnorm_wordpool_576.txt	LTP326	ltpFR2	0	11	ASIA	46	n/a	n/a	0	0	0
2584171	REC_WORD	wordpools/wasnorm_wordpool_576.txt	LTP326	ltpFR2	0	11	EUROPE	541	n/a	n/a	0	0	0
2586143	REC_WORD	wordpools/wasnorm_wordpool_576.txt	LTP326	ltpFR2	0	11	PASSAGE	1019	n/a	n/a	0	0	0
2587850	REC_WORD	wordpools/wasnorm_wordpool_576.txt	LTP326	ltpFR2	0	11	STAMP	1370	n/a	n/a	0	0	0
2589748	REC_WORD	wordpools/wasnorm_wordpool_576.txt	LTP326	ltpFR2	0	11	SEAL	1262	n/a	n/a	0	0	0
2598343	REC_WORD	wordpools/wasnorm_wordpool_576.txt	LTP326	ltpFR2	0	11	MAILBOX	857	n/a	n/a	0	0	0
2599343	REC_WORD_VV	wordpools/wasnorm_wordpool_576.txt	LTP326	ltpFR2	0	11	<>	-1	n/a	n/a	0	0	0
2600250	REC_WORD	wordpools/wasnorm_wordpool_576.txt	LTP326	ltpFR2	0	11	SUMMIT	1405	n/a	n/a	0	0	0
2602079	REC_WORD	wordpools/wasnorm_wordpool_576.txt	LTP326	ltpFR2	0	11	BOX	159	n/a	n/a	0	0	0
2622820	REC_WORD	wordpools/wasnorm_wordpool_576.txt	LTP326	ltpFR2	0	11	STREAM	1392	n/a	n/a	0	0	0
2623820	REC_WORD_VV	wordpools/wasnorm_wordpool_576.txt	LTP326	ltpFR2	0	11	<>	-1	n/a	n/a	0	0	0
2624788	REC_WORD	wordpools/wasnorm_wordpool_576.txt	LTP326	ltpFR2	0	11	LAKE	796	n/a	n/a	0	0	0
2631688	REC_WORD	wordpools/wasnorm_wordpool_576.txt	LTP326	ltpFR2	0	11	GRAVEL	659	n/a	n/a	0	0	0
2660687	DISTRACTOR	n/a	LTP326	ltpFR2	0	12	n/a	n/a	n/a	n/a	0	0	0
2660687	START	n/a	LTP326	ltpFR2	0	n/a	n/a	n/a	18	n/a	n/a	n/a	n/a
2660704	PROB	n/a	LTP326	ltpFR2	0	n/a	n/a	n/a	18	16	4	3	9
2663079	PROB	n/a	LTP326	ltpFR2	0	n/a	n/a	n/a	18	15	5	6	4
2664697	PROB	n/a	LTP326	ltpFR2	0	n/a	n/a	n/a	18	17	2	7	8
2667365	PROB	n/a	LTP326	ltpFR2	0	n/a	n/a	n/a	18	17	6	6	5
2669801	PROB	n/a	LTP326	ltpFR2	0	n/a	n/a	n/a	18	11	1	9	1
2671168	PROB	n/a	LTP326	ltpFR2	0	n/a	n/a	n/a	18	19	7	3	9
2672773	PROB	n/a	LTP326	ltpFR2	0	n/a	n/a	n/a	18	17	5	3	9
2674608	PROB	n/a	LTP326	ltpFR2	0	n/a	n/a	n/a	18	16	1	8	7
2676858	PROB	n/a	LTP326	ltpFR2	0	n/a	n/a	n/a	18	19	9	6	4
2679595	PROB	n/a	LTP326	ltpFR2	0	n/a	n/a	n/a	18	10	2	6	2
2684680	STOP	n/a	LTP326	ltpFR2	0	n/a	n/a	n/a	18	n/a	n/a	n/a	n/a
2685717	WORD	wordpools/wasnorm_wordpool_576.txt	LTP326	ltpFR2	0	12	PLAZA	1088	n/a	n/a	0	0	0
2688368	WORD	wordpools/wasnorm_wordpool_576.txt	LTP326	ltpFR2	0	12	CABIN	211	n/a	n/a	0	0	0
2690887	WORD	wordpools/wasnorm_wordpool_576.txt	LTP326	ltpFR2	0	12	FIREMAN	569	n/a	n/a	0	0	0
2693489	WORD	wordpools/wasnorm_wordpool_576.txt	LTP326	ltpFR2	0	12	COUSIN	392	n/a	n/a	0	0	0
2696025	WORD	wordpools/wasnorm_wordpool_576.txt	LTP326	ltpFR2	0	12	PERFUME	1049	n/a	n/a	0	0	0
2698661	WORD	wordpools/wasnorm_wordpool_576.txt	LTP326	ltpFR2	0	12	LEG	809	n/a	n/a	0	0	0
2701247	WORD	wordpools/wasnorm_wordpool_576.txt	LTP326	ltpFR2	0	12	RECEIPT	1173	n/a	n/a	0	0	0
2703715	WORD	wordpools/wasnorm_wordpool_576.txt	LTP326	ltpFR2	0	12	WAGON	1578	n/a	n/a	0	0	0
2706271	WORD	wordpools/wasnorm_wordpool_576.txt	LTP326	ltpFR2	0	12	PARSLEY	1016	n/a	n/a	0	0	0
2708952	WORD	wordpools/wasnorm_wordpool_576.txt	LTP326	ltpFR2	0	12	POLICE	1098	n/a	n/a	0	0	0
2711539	WORD	wordpools/wasnorm_wordpool_576.txt	LTP326	ltpFR2	0	12	LADY	794	n/a	n/a	0	0	0
2714043	WORD	wordpools/wasnorm_wordpool_576.txt	LTP326	ltpFR2	0	12	TUBA	1515	n/a	n/a	0	0	0
2716844	WORD	wordpools/wasnorm_wordpool_576.txt	LTP326	ltpFR2	0	12	SLOPE	1328	n/a	n/a	0	0	0
2719461	WORD	wordpools/wasnorm_wordpool_576.txt	LTP326	ltpFR2	0	12	TAXI	1438	n/a	n/a	0	0	0
2722082	WORD	wordpools/wasnorm_wordpool_576.txt	LTP326	ltpFR2	0	12	FLASHLIGHT	575	n/a	n/a	0	0	0
2724750	WORD	wordpools/wasnorm_wordpool_576.txt	LTP326	ltpFR2	0	12	ACTOR	5	n/a	n/a	0	0	0
2727285	WORD	wordpools/wasnorm_wordpool_576.txt	LTP326	ltpFR2	0	12	BUBBLE	183	n/a	n/a	0	0	0
2729919	WORD	wordpools/wasnorm_wordpool_576.txt	LTP326	ltpFR2	0	12	SHORTCAKE	1292	n/a	n/a	0	0	0
2732572	WORD	wordpools/wasnorm_wordpool_576.txt	LTP326	ltpFR2	0	12	PASTRY	1022	n/a	n/a	0	0	0
2735325	WORD	wordpools/wasnorm_wordpool_576.txt	LTP326	ltpFR2	0	12	OUTLAW	989	n/a	n/a	0	0	0
2738127	WORD	wordpools/wasnorm_wordpool_576.txt	LTP326	ltpFR2	0	12	THIEF	1456	n/a	n/a	0	0	0
2740747	WORD	wordpools/wasnorm_wordpool_576.txt	LTP326	ltpFR2	0	12	HEADBAND	696	n/a	n/a	0	0	0
2743431	WORD	wordpools/wasnorm_wordpool_576.txt	LTP326	ltpFR2	0	12	FRAGRANCE	599	n/a	n/a	0	0	0
2746017	WORD	wordpools/wasnorm_wordpool_576.txt	LTP326	ltpFR2	0	12	COD	340	n/a	n/a	0	0	0
2747635	START	n/a	LTP326	ltpFR2	0	n/a	n/a	n/a	19	n/a	n/a	n/a	n/a
2748684	DISTRACTOR	n/a	LTP326	ltpFR2	0	12	n/a	n/a	n/a	n/a	0	0	0
2748704	PROB	n/a	LTP326	ltpFR2	0	n/a	n/a	n/a	19	14	2	5	7
2750934	PROB	n/a	LTP326	ltpFR2	0	n/a	n/a	n/a	19	21	3	6	3
2753153	PROB	n/a	LTP326	ltpFR2	0	n/a	n/a	n/a	19	17	2	9	6
2756522	PROB	n/a	LTP326	ltpFR2	0	n/a	n/a	n/a	19	20	9	6	5
2758745	PROB	n/a	LTP326	ltpFR2	0	n/a	n/a	n/a	19	14	6	5	3
2760711	PROB	n/a	LTP326	ltpFR2	0	n/a	n/a	n/a	19	12	2	6	4
2763462	PROB	n/a	LTP326	ltpFR2	0	n/a	n/a	n/a	19	13	5	6	2
2766347	PROB	n/a	LTP326	ltpFR2	0	n/a	n/a	n/a	19	16	9	6	1
2771635	STOP	n/a	LTP326	ltpFR2	0	n/a	n/a	n/a	19	n/a	n/a	n/a	n/a
2773539	REC_START	n/a	LTP326	ltpFR2	0	12	n/a	n/a	n/a	n/a	0	0	0
2777015	REC_WORD	wordpools/wasnorm_wordpool_576.txt	LTP326	ltpFR2	0	12	POLICE	1098	n/a	n/a	0	0	0
2781709	REC_WORD	wordpools/wasnorm_wordpool_576.txt	LTP326	ltpFR2	0	12	COD	340	n/a	n/a	0	0	0
2800190	REC_WORD	wordpools/wasnorm_wordpool_576.txt	LTP326	ltpFR2	0	12	LEG	809	n/a	n/a	0	0	0
2804307	REC_WORD	wordpools/wasnorm_wordpool_576.txt	LTP326	ltpFR2	0	12	PARFUME	-1	n/a	n/a	0	0	0
2806469	REC_WORD	wordpools/wasnorm_wordpool_576.txt	LTP326	ltpFR2	0	12	FRAGRANCE	599	n/a	n/a	0	0	0
2807469	REC_WORD_VV	wordpools/wasnorm_wordpool_576.txt	LTP326	ltpFR2	0	12	<>	-1	n/a	n/a	0	0	0
2820013	REC_WORD	wordpools/wasnorm_wordpool_576.txt	LTP326	ltpFR2	0	12	OUTLAW	989	n/a	n/a	0	0	0
2828656	REC_WORD	wordpools/wasnorm_wordpool_576.txt	LTP326	ltpFR2	0	12	HEADBAND	696	n/a	n/a	0	0	0
2863980	WORD	wordpools/wasnorm_wordpool_576.txt	LTP326	ltpFR2	0	13	BANJO	82	n/a	n/a	0	0	0
2866802	WORD	wordpools/wasnorm_wordpool_576.txt	LTP326	ltpFR2	0	13	OMELET	976	n/a	n/a	0	0	0
2869394	WORD	wordpools/wasnorm_wordpool_576.txt	LTP326	ltpFR2	0	13	LETTUCE	814	n/a	n/a	0	0	0
2872021	WORD	wordpools/wasnorm_wordpool_576.txt	LTP326	ltpFR2	0	13	LIVER	833	n/a	n/a	0	0	0
2874724	WORD	wordpools/wasnorm_wordpool_576.txt	LTP326	ltpFR2	0	13	MESSAGE	888	n/a	n/a	0	0	0
2877518	WORD	wordpools/wasnorm_wordpool_576.txt	LTP326	ltpFR2	0	13	TWISTER	1530	n/a	n/a	0	0	0
2880295	WORD	wordpools/wasnorm_wordpool_576.txt	LTP326	ltpFR2	0	13	ARM	38	n/a	n/a	0	0	0
2882848	WORD	wordpools/wasnorm_wordpool_576.txt	LTP326	ltpFR2	0	13	RELISH	1183	n/a	n/a	0	0	0
2885632	WORD	wordpools/wasnorm_wordpool_576.txt	LTP326	ltpFR2	0	13	COCOON	339	n/a	n/a	0	0	0
2888059	WORD	wordpools/wasnorm_wordpool_576.txt	LTP326	ltpFR2	0	13	KNIFE	785	n/a	n/a	0	0	0
2890561	WORD	wordpools/wasnorm_wordpool_576.txt	LTP326	ltpFR2	0	13	RAZOR	1171	n/a	n/a	0	0	0
2893173	WORD	wordpools/wasnorm_wordpool_576.txt	LTP326	ltpFR2	0	13	FILM	565	n/a	n/a	0	0	0
2895958	WORD	wordpools/wasnorm_wordpool_576.txt	LTP326	ltpFR2	0	13	MATCH	878	n/a	n/a	0	0	0
2898550	WORD	wordpools/wasnorm_wordpool_576.txt	LTP326	ltpFR2	0	13	FINGER	567	n/a	n/a	0	0	0
2901163	WORD	wordpools/wasnorm_wordpool_576.txt	LTP326	ltpFR2	0	13	JUNGLE	764	n/a	n/a	0	0	0
2903855	WORD	wordpools/wasnorm_wordpool_576.txt	LTP326	ltpFR2	0	13	SIDEWALK	1303	n/a	n/a	0	0	0
2906566	WORD	wordpools/wasnorm_wordpool_576.txt	LTP326	ltpFR2	0	13	ANTLER	29	n/a	n/a	0	0	0
2909369	WORD	wordpools/wasnorm_wordpool_576.txt	LTP326	ltpFR2	0	13	MUMMY	932	n/a	n/a	0	0	0
2912155	WORD	wordpools/wasnorm_wordpool_576.txt	LTP326	ltpFR2	0	13	TEMPLE	1448	n/a	n/a	0	0	0
2914896	WORD	wordpools/wasnorm_wordpool_576.txt	LTP326	ltpFR2	0	13	LEADER	807	n/a	n/a	0	0	0
2917682	WORD	wordpools/wasnorm_wordpool_576.txt	LTP326	ltpFR2	0	13	RECORD	1176	n/a	n/a	0	0	0
2920128	WORD	wordpools/wasnorm_wordpool_576.txt	LTP326	ltpFR2	0	13	TUTU	1524	n/a	n/a	0	0	0
2922596	WORD	wordpools/wasnorm_wordpool_576.txt	LTP326	ltpFR2	0	13	DINER	467	n/a	n/a	0	0	0
2925104	WORD	wordpools/wasnorm_wordpool_576.txt	LTP326	ltpFR2	0	13	HIGHWAY	707	n/a	n/a	0	0	0
2926719	START	n/a	LTP326	ltpFR2	0	n/a	n/a	n/a	20	n/a	n/a	n/a	n/a
2927629	DISTRACTOR	n/a	LTP326	ltpFR2	0	13	n/a	n/a	n/a	n/a	0	0	0
2927639	PROB	n/a	LTP326	ltpFR2	0	n/a	n/a	n/a	20	19	6	7	6
2930103	PROB	n/a	LTP326	ltpFR2	0	n/a	n/a	n/a	20	6	2	2	2
2931584	PROB	n/a	LTP326	ltpFR2	0	n/a	n/a	n/a	20	20	7	8	5
2934838	PROB	n/a	LTP326	ltpFR2	0	n/a	n/a	n/a	20	17	5	7	5
2937289	PROB	n/a	LTP326	ltpFR2	0	n/a	n/a	n/a	20	8	3	2	3
2941212	PROB	n/a	LTP326	ltpFR2	0	n/a	n/a	n/a	20	15	6	4	5
2942611	PROB	n/a	LTP326	ltpFR2	0	n/a	n/a	n/a	20	16	4	3	9
2944562	PROB	n/a	LTP326	ltpFR2	0	n/a	n/a	n/a	20	12	6	4	2
2945931	PROB	n/a	LTP326	ltpFR2	0	n/a	n/a	n/a	20	17	3	7	7
2947349	PROB	n/a	LTP326	ltpFR2	0	n/a	n/a	n/a	20	15	1	6	8
2949271	STOP	n/a	LTP326	ltpFR2	0	n/a	n/a	n/a	20	n/a	n/a	n/a	n/a
2952672	REC_START	n/a	LTP326	ltpFR2	0	13	n/a	n/a	n/a	n/a	0	0	0
2956975	REC_WORD	wordpools/wasnorm_wordpool_576.txt	LTP326	ltpFR2	0	13	BANJO	82	n/a	n/a	0	0	0
2961020	REC_WORD	wordpools/wasnorm_wordpool_576.txt	LTP326	ltpFR2	0	13	OMELET	976	n/a	n/a	0	0	0
2963562	REC_WORD	wordpools/wasnorm_wordpool_576.txt	LTP326	ltpFR2	0	13	RAZOR	1171	n/a	n/a	0	0	0
2965135	REC_WORD	wordpools/wasnorm_wordpool_576.txt	LTP326	ltpFR2	0	13	KNIFE	785	n/a	n/a	0	0	0
3043147	WORD	wordpools/wasnorm_wordpool_576.txt	LTP326	ltpFR2	0	14	ACTRESS	6	n/a	n/a	0	0	0
3045683	WORD	wordpools/wasnorm_wordpool_576.txt	LTP326	ltpFR2	0	14	GUITAR	670	n/a	n/a	0	0	0
3048117	WORD	wordpools/wasnorm_wordpool_576.txt	LTP326	ltpFR2	0	14	PECAN	1036	n/a	n/a	0	0	0
3050566	WORD	wordpools/wasnorm_wordpool_576.txt	LTP326	ltpFR2	0	14	SCARECROW	1245	n/a	n/a	0	0	0
3053301	WORD	wordpools/wasnorm_wordpool_576.txt	LTP326	ltpFR2	0	14	QUARTER	1148	n/a	n/a	0	0	0
3055921	WORD	wordpools/wasnorm_wordpool_576.txt	LTP326	ltpFR2	0	14	CONTRACT	368	n/a	n/a	0	0	0
3058555	WORD	wordpools/wasnorm_wordpool_576.txt	LTP326	ltpFR2	0	14	BANKER	84	n/a	n/a	0	0	0
3061275	WORD	wordpools/wasnorm_wordpool_576.txt	LTP326	ltpFR2	0	14	LADDER	793	n/a	n/a	0	0	0
3064077	WORD	wordpools/wasnorm_wordpool_576.txt	LTP326	ltpFR2	0	14	PEANUT	1032	n/a	n/a	0	0	0
3066896	WORD	wordpools/wasnorm_wordpool_576.txt	LTP326	ltpFR2	0	14	TRIBE	1505	n/a	n/a	0	0	0
3069398	WORD	wordpools/wasnorm_wordpool_576.txt	LTP326	ltpFR2	0	14	SHRUB	1299	n/a	n/a	0	0	0
3072132	WORD	wordpools/wasnorm_wordpool_576.txt	LTP326	ltpFR2	0	14	TWEEZERS	1526	n/a	n/a	0	0	0
3074819	WORD	wordpools/wasnorm_wordpool_576.txt	LTP326	ltpFR2	0	14	CRITIC	410	n/a	n/a	0	0	0
3077403	WORD	wordpools/wasnorm_wordpool_576.txt	LTP326	ltpFR2	0	14	QUAIL	1147	n/a	n/a	0	0	0
3080061	WORD	wordpools/wasnorm_wordpool_576.txt	LTP326	ltpFR2	0	14	AUTHOR	61	n/a	n/a	0	0	0
3082563	WORD	wordpools/wasnorm_wordpool_576.txt	LTP326	ltpFR2	0	14	NEUTRON	947	n/a	n/a	0	0	0
3085226	WORD	wordpools/wasnorm_wordpool_576.txt	LTP326	ltpFR2	0	14	PLUTO	1092	n/a	n/a	0	0	0
3087944	WORD	wordpools/wasnorm_wordpool_576.txt	LTP326	ltpFR2	0	14	VENUS	1557	n/a	n/a	0	0	0
3090682	WORD	wordpools/wasnorm_wordpool_576.txt	LTP326	ltpFR2	0	14	EMPIRE	530	n/a	n/a	0	0	0
3093350	WORD	wordpools/wasnorm_wordpool_576.txt	LTP326	ltpFR2	0	14	DUST	508	n/a	n/a	0	0	0
3096017	WORD	wordpools/wasnorm_wordpool_576.txt	LTP326	ltpFR2	0	14	MARSH	874	n/a	n/a	0	0	0
3098452	WORD	wordpools/wasnorm_wordpool_576.txt	LTP326	ltpFR2	0	14	PUDDING	1139	n/a	n/a	0	0	0
3100878	WORD	wordpools/wasnorm_wordpool_576.txt	LTP326	ltpFR2	0	14	LION	827	n/a	n/a	0	0	0
3103430	WORD	wordpools/wasnorm_wordpool_576.txt	LTP326	ltpFR2	0	14	FRECKLE	602	n/a	n/a	0	0	0
3105042	START	n/a	LTP326	ltpFR2	0	n/a	n/a	n/a	21	n/a	n/a	n/a	n/a
3106197	DISTRACTOR	n/a	LTP326	ltpFR2	0	14	n/a	n/a	n/a	n/a	0	0	0
3106209	PROB	n/a	LTP326	ltpFR2	0	n/a	n/a	n/a	21	13	2	8	3
3108216	PROB	n/a	LTP326	ltpFR2	0	n/a	n/a	n/a	21	15	2	6	7
3110401	PROB	n/a	LTP326	ltpFR2	0	n/a	n/a	n/a	21	22	6	9	7
3115421	PROB	n/a	LTP326	ltpFR2	0	n/a	n/a	n/a	21	16	2	6	8
3121359	PROB	n/a	LTP326	ltpFR2	0	n/a	n/a	n/a	21	17	1	9	7
3122711	PROB	n/a	LTP326	ltpFR2	0	n/a	n/a	n/a	21	7	1	2	4
3124445	PROB	n/a	LTP326	ltpFR2	0	n/a	n/a	n/a	21	17	8	2	7
3125798	PROB	n/a	LTP326	ltpFR2	0	n/a	n/a	n/a	21	7	2	3	2
3127464	PROB	n/a	LTP326	ltpFR2	0	n/a	n/a	n/a	21	1	8	2	8
3128760	STOP	n/a	LTP326	ltpFR2	0	n/a	n/a	n/a	21	n/a	n/a	n/a	n/a
3130884	REC_START	n/a	LTP326	ltpFR2	0	14	n/a	n/a	n/a	n/a	0	0	0
3132121	REC_WORD	wordpools/wasnorm_wordpool_576.txt	LTP326	ltpFR2	0	14	DUST	508	n/a	n/a	0	0	0
3133883	REC_WORD	wordpools/wasnorm_wordpool_576.txt	LTP326	ltpFR2	0	14	MARSH	874	n/a	n/a	0	0	0
3136362	REC_WORD	wordpools/wasnorm_wordpool_576.txt	LTP326	ltpFR2	0	14	PLUTO	1092	n/a	n/a	0	0	0
3138281	REC_WORD	wordpools/wasnorm_wordpool_576.txt	LTP326	ltpFR2	0	14	VENUS	1557	n/a	n/a	0	0	0
3139281	REC_WORD_VV	wordpools/wasnorm_wordpool_576.txt	LTP326	ltpFR2	0	14	<>	-1	n/a	n/a	0	0	0
3159088	REC_WORD	wordpools/wasnorm_wordpool_576.txt	LTP326	ltpFR2	0	14	ACTRESS	6	n/a	n/a	0	0	0
3160088	REC_WORD_VV	wordpools/wasnorm_wordpool_576.txt	LTP326	ltpFR2	0	14	<>	-1	n/a	n/a	0	0	0
3183155	REC_WORD	wordpools/wasnorm_wordpool_576.txt	LTP326	ltpFR2	0	14	QUAIL	1147	n/a	n/a	0	0	0
3185326	REC_WORD	wordpools/wasnorm_wordpool_576.txt	LTP326	ltpFR2	0	14	NEUTRON	947	n/a	n/a	0	0	0
3186326	REC_WORD_VV	wordpools/wasnorm_wordpool_576.txt	LTP326	ltpFR2	0	14	<>	-1	n/a	n/a	0	0	0
3205248	REC_WORD	wordpools/wasnorm_wordpool_576.txt	LTP326	ltpFR2	0	14	QUARTER	1148	n/a	n/a	0	0	0
3259727	DISTRACTOR	n/a	LTP326	ltpFR2	0	15	n/a	n/a	n/a	n/a	0	0	0
3259727	START	n/a	LTP326	ltpFR2	0	n/a	n/a	n/a	22	n/a	n/a	n/a	n/a
3259744	PROB	n/a	LTP326	ltpFR2	0	n/a	n/a	n/a	22	15	3	7	5
3261395	PROB	n/a	LTP326	ltpFR2	0	n/a	n/a	n/a	22	18	7	8	3
3264662	PROB	n/a	LTP326	ltpFR2	0	n/a	n/a	n/a	22	9	3	1	5
3266748	PROB	n/a	LTP326	ltpFR2	0	n/a	n/a	n/a	22	16	2	7	7
3268832	PROB	n/a	LTP326	ltpFR2	0	n/a	n/a	n/a	22	20	7	9	4
3270964	PROB	n/a	LTP326	ltpFR2	0	n/a	n/a	n/a	22	13	7	2	4
3273501	PROB	n/a	LTP326	ltpFR2	0	n/a	n/a	n/a	22	6	3	1	2
3276102	PROB	n/a	LTP326	ltpFR2	0	n/a	n/a	n/a	22	21	4	9	9
3278805	PROB	n/a	LTP326	ltpFR2	0	n/a	n/a	n/a	22	12	4	4	8
3283727	STOP	n/a	LTP326	ltpFR2	0	n/a	n/a	n/a	22	n/a	n/a	n/a	n/a
3284928	WORD	wordpools/wasnorm_wordpool_576.txt	LTP326	ltpFR2	0	15	CAFE	216	n/a	n/a	0	0	0
3287514	WORD	wordpools/wasnorm_wordpool_576.txt	LTP326	ltpFR2	0	15	SNACK	1331	n/a	n/a	0	0	0
3289999	WORD	wordpools/wasnorm_wordpool_576.txt	LTP326	ltpFR2	0	15	MAILMAN	858	n/a	n/a	0	0	0
3292819	WORD	wordpools/wasnorm_wordpool_576.txt	LTP326	ltpFR2	0	15	PIGMENT	1066	n/a	n/a	0	0	0
3295319	WORD	wordpools/wasnorm_wordpool_576.txt	LTP326	ltpFR2	0	15	XEROX	1628	n/a	n/a	0	0	0
3298039	WORD	wordpools/wasnorm_wordpool_576.txt	LTP326	ltpFR2	0	15	SUPPER	1411	n/a	n/a	0	0	0
3300846	WORD	wordpools/wasnorm_wordpool_576.txt	LTP326	ltpFR2	0	15	LAGOON	795	n/a	n/a	0	0	0
3303359	WORD	wordpools/wasnorm_wordpool_576.txt	LTP326	ltpFR2	0	15	SLIDE	1326	n/a	n/a	0	0	0
3305877	WORD	wordpools/wasnorm_wordpool_576.txt	LTP326	ltpFR2	0	15	FLESH	579	n/a	n/a	0	0	0
3308551	WORD	wordpools/wasnorm_wordpool_576.txt	LTP326	ltpFR2	0	15	DRESSER	496	n/a	n/a	0	0	0
3311265	WORD	wordpools/wasnorm_wordpool_576.txt	LTP326	ltpFR2	0	15	PERMIT	1051	n/a	n/a	0	0	0
3313955	WORD	wordpools/wasnorm_wordpool_576.txt	LTP326	ltpFR2	0	15	HONEY	713	n/a	n/a	0	0	0
3316441	WORD	wordpools/wasnorm_wordpool_576.txt	LTP326	ltpFR2	0	15	SKIRT	1319	n/a	n/a	0	0	0
3319054	WORD	wordpools/wasnorm_wordpool_576.txt	LTP326	ltpFR2	0	15	GIFT	635	n/a	n/a	0	0	0
3321691	WORD	wordpools/wasnorm_wordpool_576.txt	LTP326	ltpFR2	0	15	STAKE	1368	n/a	n/a	0	0	0
3324431	WORD	wordpools/wasnorm_wordpool_576.txt	LTP326	ltpFR2	0	15	PENGUIN	1044	n/a	n/a	0	0	0
3326867	WORD	wordpools/wasnorm_wordpool_576.txt	LTP326	ltpFR2	0	15	MONSTER	912	n/a	n/a	0	0	0
3329430	WORD	wordpools/wasnorm_wordpool_576.txt	LTP326	ltpFR2	0	15	BUREAU	199	n/a	n/a	0	0	0
3331855	WORD	wordpools/wasnorm_wordpool_576.txt	LTP326	ltpFR2	0	15	DANDRUFF	439	n/a	n/a	0	0	0
3334322	WORD	wordpools/wasnorm_wordpool_576.txt	LTP326	ltpFR2	0	15	CLIMBER	323	n/a	n/a	0	0	0
3336842	WORD	wordpools/wasnorm_wordpool_576.txt	LTP326	ltpFR2	0	15	CRATER	400	n/a	n/a	0	0	0
3339294	WORD	wordpools/wasnorm_wordpool_576.txt	LTP326	ltpFR2	0	15	SKETCH	1315	n/a	n/a	0	0	0
3341763	WORD	wordpools/wasnorm_wordpool_576.txt	LTP326	ltpFR2	0	15	CRAYON	401	n/a	n/a	0	0	0
3344540	WORD	wordpools/wasnorm_wordpool_576.txt	LTP326	ltpFR2	0	15	POPCORN	1104	n/a	n/a	0	0	0
3346150	START	n/a	LTP326	ltpFR2	0	n/a	n/a	n/a	23	n/a	n/a	n/a	n/a
3347223	DISTRACTOR	n/a	LTP326	ltpFR2	0	15	n/a	n/a	n/a	n/a	0	0	0
3347233	PROB	n/a	LTP326	ltpFR2	0	n/a	n/a	n/a	23	15	6	6	3
3351333	PROB	n/a	LTP326	ltpFR2	0	n/a	n/a	n/a	23	20	6	6	8
3354019	PROB	n/a	LTP326	ltpFR2	0	n/a	n/a	n/a	23	18	7	9	2
3355872	PROB	n/a	LTP326	ltpFR2	0	n/a	n/a	n/a	23	16	6	3	7
3358006	PROB	n/a	LTP326	ltpFR2	0	n/a	n/a	n/a	23	13	1	3	9
3359841	PROB	n/a	LTP326	ltpFR2	0	n/a	n/a	n/a	23	17	7	6	4
3362576	PROB	n/a	LTP326	ltpFR2	0	n/a	n/a	n/a	23	12	2	2	8
3364428	PROB	n/a	LTP326	ltpFR2	0	n/a	n/a	n/a	23	11	1	5	5
3366213	PROB	n/a	LTP326	ltpFR2	0	n/a	n/a	n/a	23	16	4	8	4
3367899	PROB	n/a	LTP326	ltpFR2	0	n/a	n/a	n/a	23	9	2	4	5
3369872	STOP	n/a	LTP326	ltpFR2	0	n/a	n/a	n/a	23	n/a	n/a	n/a	n/a
3371935	REC_START	n/a	LTP326	ltpFR2	0	15	n/a	n/a	n/a	n/a	0	0	0
3372946	REC_WORD	wordpools/wasnorm_wordpool_576.txt	LTP326	ltpFR2	0	15	CRATER	400	n/a	n/a	0	0	0
3377056	REC_WORD	wordpools/wasnorm_wordpool_576.txt	LTP326	ltpFR2	0	15	POPCORN	1104	n/a	n/a	0	0	0
3379907	REC_WORD	wordpools/wasnorm_wordpool_576.txt	LTP326	ltpFR2	0	15	SUPPER	1411	n/a	n/a	0	0	0
3384168	REC_WORD	wordpools/wasnorm_wordpool_576.txt	LTP326	ltpFR2	0	15	MAILMAN	858	n/a	n/a	0	0	0
3386837	REC_WORD	wordpools/wasnorm_wordpool_576.txt	LTP326	ltpFR2	0	15	PERMIT	1051	n/a	n/a	0	0	0
3444760	REC_WORD	wordpools/wasnorm_wordpool_576.txt	LTP326	ltpFR2	0	15	LAGOON	795	n/a	n/a	0	0	0
3462380	DISTRACTOR	n/a	LTP326	ltpFR2	0	16	n/a	n/a	n/a	n/a	0	0	0
3462380	START	n/a	LTP326	ltpFR2	0	n/a	n/a	n/a	24	n/a	n/a	n/a	n/a
3462393	PROB	n/a	LTP326	ltpFR2	0	n/a	n/a	n/a	24	8	4	2	2
3464314	PROB	n/a	LTP326	ltpFR2	0	n/a	n/a	n/a	24	10	6	3	1
3466364	PROB	n/a	LTP326	ltpFR2	0	n/a	n/a	n/a	24	20	9	7	4
3468547	PROB	n/a	LTP326	ltpFR2	0	n/a	n/a	n/a	24	1	3	5	5
3470837	PROB	n/a	LTP326	ltpFR2	0	n/a	n/a	n/a	24	17	7	8	2
3473757	PROB	n/a	LTP326	ltpFR2	0	n/a	n/a	n/a	24	15	5	7	4
3476773	PROB	n/a	LTP326	ltpFR2	0	n/a	n/a	n/a	24	13	3	9	1
3479074	PROB	n/a	LTP326	ltpFR2	0	n/a	n/a	n/a	24	17	7	1	9
3486380	STOP	n/a	LTP326	ltpFR2	0	n/a	n/a	n/a	24	n/a	n/a	n/a	n/a
3487433	WORD	wordpools/wasnorm_wordpool_576.txt	LTP326	ltpFR2	0	16	SNAKE	1333	n/a	n/a	0	0	0
3490168	WORD	wordpools/wasnorm_wordpool_576.txt	LTP326	ltpFR2	0	16	COURSE	390	n/a	n/a	0	0	0
3492838	WORD	wordpools/wasnorm_wordpool_576.txt	LTP326	ltpFR2	0	16	CLOTHES	327	n/a	n/a	0	0	0
3495406	WORD	wordpools/wasnorm_wordpool_576.txt	LTP326	ltpFR2	0	16	COSTUME	383	n/a	n/a	0	0	0
3497891	WORD	wordpools/wasnorm_wordpool_576.txt	LTP326	ltpFR2	0	16	YACHT	1629	n/a	n/a	0	0	0
3500660	WORD	wordpools/wasnorm_wordpool_576.txt	LTP326	ltpFR2	0	16	CAMEL	223	n/a	n/a	0	0	0
3503312	WORD	wordpools/wasnorm_wordpool_576.txt	LTP326	ltpFR2	0	16	TURTLE	1522	n/a	n/a	0	0	0
3505997	WORD	wordpools/wasnorm_wordpool_576.txt	LTP326	ltpFR2	0	16	TUNNEL	1519	n/a	n/a	0	0	0
3508700	WORD	wordpools/wasnorm_wordpool_576.txt	LTP326	ltpFR2	0	16	SUNSET	1408	n/a	n/a	0	0	0
3511150	WORD	wordpools/wasnorm_wordpool_576.txt	LTP326	ltpFR2	0	16	DONOR	485	n/a	n/a	0	0	0
3513970	WORD	wordpools/wasnorm_wordpool_576.txt	LTP326	ltpFR2	0	16	SHELF	1280	n/a	n/a	0	0	0
3516571	WORD	wordpools/wasnorm_wordpool_576.txt	LTP326	ltpFR2	0	16	BINDER	127	n/a	n/a	0	0	0
3519293	WORD	wordpools/wasnorm_wordpool_576.txt	LTP326	ltpFR2	0	16	COWBOY	395	n/a	n/a	0	0	0
3521893	WORD	wordpools/wasnorm_wordpool_576.txt	LTP326	ltpFR2	0	16	LASER	801	n/a	n/a	0	0	0
3524645	WORD	wordpools/wasnorm_wordpool_576.txt	LTP326	ltpFR2	0	16	SUNRISE	1407	n/a	n/a	0	0	0
3527099	WORD	wordpools/wasnorm_wordpool_576.txt	LTP326	ltpFR2	0	16	VAGRANT	1544	n/a	n/a	0	0	0
3529732	WORD	wordpools/wasnorm_wordpool_576.txt	LTP326	ltpFR2	0	16	HERO	706	n/a	n/a	0	0	0
3532567	WORD	wordpools/wasnorm_wordpool_576.txt	LTP326	ltpFR2	0	16	GROUND	666	n/a	n/a	0	0	0
3535035	WORD	wordpools/wasnorm_wordpool_576.txt	LTP326	ltpFR2	0	16	SMOG	1330	n/a	n/a	0	0	0
3537793	WORD	wordpools/wasnorm_wordpool_576.txt	LTP326	ltpFR2	0	16	LONDON	843	n/a	n/a	0	0	0
3540223	WORD	wordpools/wasnorm_wordpool_576.txt	LTP326	ltpFR2	0	16	CEILING	265	n/a	n/a	0	0	0
3542742	WORD	wordpools/wasnorm_wordpool_576.txt	LTP326	ltpFR2	0	16	RIFLE	1192	n/a	n/a	0	0	0
3545361	WORD	wordpools/wasnorm_wordpool_576.txt	LTP326	ltpFR2	0	16	BASEMENT	94	n/a	n/a	0	0	0
3547962	WORD	wordpools/wasnorm_wordpool_576.txt	LTP326	ltpFR2	0	16	MARROW	872	n/a	n/a	0	0	0
3549569	START	n/a	LTP326	ltpFR2	0	n/a	n/a	n/a	25	n/a	n/a	n/a	n/a
3550684	DISTRACTOR	n/a	LTP326	ltpFR2	0	16	n/a	n/a	n/a	n/a	0	0	0
3550698	PROB	n/a	LTP326	ltpFR2	0	n/a	n/a	n/a	25	19	8	2	9
3552897	PROB	n/a	LTP326	ltpFR2	0	n/a	n/a	n/a	25	9	1	6	2
3554648	PROB	n/a	LTP326	ltpFR2	0	n/a	n/a	n/a	25	22	9	8	5
3558984	PROB	n/a	LTP326	ltpFR2	0	n/a	n/a	n/a	25	11	1	8	2
3560959	PROB	n/a	LTP326	ltpFR2	0	n/a	n/a	n/a	25	19	9	3	7
3562794	PROB	n/a	LTP326	ltpFR2	0	n/a	n/a	n/a	25	13	2	6	5
3565495	PROB	n/a	LTP326	ltpFR2	0	n/a	n/a	n/a	25	19	9	5	5
3567897	PROB	n/a	LTP326	ltpFR2	0	n/a	n/a	n/a	25	20	4	9	7
3570768	PROB	n/a	LTP326	ltpFR2	0	n/a	n/a	n/a	25	12	2	4	6
3572207	STOP	n/a	LTP326	ltpFR2	0	n/a	n/a	n/a	25	n/a	n/a	n/a	n/a
3575423	REC_START	n/a	LTP326	ltpFR2	0	16	n/a	n/a	n/a	n/a	0	0	0
3578862	REC_WORD	wordpools/wasnorm_wordpool_576.txt	LTP326	ltpFR2	0	16	COWBOY	395	n/a	n/a	0	0	0
3580779	REC_WORD	wordpools/wasnorm_wordpool_576.txt	LTP326	ltpFR2	0	16	HERO	706	n/a	n/a	0	0	0
3597049	REC_WORD	wordpools/wasnorm_wordpool_576.txt	LTP326	ltpFR2	0	16	SHELF	1280	n/a	n/a	0	0	0
3613931	REC_WORD	wordpools/wasnorm_wordpool_576.txt	LTP326	ltpFR2	0	16	MARROW	872	n/a	n/a	0	0	0
3640780	REC_WORD	wordpools/wasnorm_wordpool_576.txt	LTP326	ltpFR2	0	16	SNAKE	1333	n/a	n/a	0	0	0
3651953	REST_REWET	n/a	LTP326	ltpFR2	0	16	n/a	n/a	n/a	n/a	0	0	0
3976206	DISTRACTOR	n/a	LTP326	ltpFR2	0	17	n/a	n/a	n/a	n/a	0	0	0
3976207	START	n/a	LTP326	ltpFR2	0	n/a	n/a	n/a	26	n/a	n/a	n/a	n/a
3976220	PROB	n/a	LTP326	ltpFR2	0	n/a	n/a	n/a	26	12	5	1	6
3977855	PROB	n/a	LTP326	ltpFR2	0	n/a	n/a	n/a	26	6	3	2	1
3979609	PROB	n/a	LTP326	ltpFR2	0	n/a	n/a	n/a	26	91	9	2	8
3983243	PROB	n/a	LTP326	ltpFR2	0	n/a	n/a	n/a	26	18	8	4	6
3985364	PROB	n/a	LTP326	ltpFR2	0	n/a	n/a	n/a	26	8	2	3	3
3988900	PROB	n/a	LTP326	ltpFR2	0	n/a	n/a	n/a	26	17	7	8	2
3991298	PROB	n/a	LTP326	ltpFR2	0	n/a	n/a	n/a	26	6	9	4	5
3994055	PROB	n/a	LTP326	ltpFR2	0	n/a	n/a	n/a	26	16	2	8	6
3996001	PROB	n/a	LTP326	ltpFR2	0	n/a	n/a	n/a	26	17	4	4	9
4000191	STOP	n/a	LTP326	ltpFR2	0	n/a	n/a	n/a	26	n/a	n/a	n/a	n/a
4001408	WORD	wordpools/wasnorm_wordpool_576.txt	LTP326	ltpFR2	0	17	SCALPEL	1243	n/a	n/a	0	0	0
4004077	WORD	wordpools/wasnorm_wordpool_576.txt	LTP326	ltpFR2	0	17	REPORT	1184	n/a	n/a	0	0	0
4006713	WORD	wordpools/wasnorm_wordpool_576.txt	LTP326	ltpFR2	0	17	TREAT	1501	n/a	n/a	0	0	0
4009430	WORD	wordpools/wasnorm_wordpool_576.txt	LTP326	ltpFR2	0	17	SADDLE	1221	n/a	n/a	0	0	0
4011916	WORD	wordpools/wasnorm_wordpool_576.txt	LTP326	ltpFR2	0	17	DONKEY	484	n/a	n/a	0	0	0
4014418	WORD	wordpools/wasnorm_wordpool_576.txt	LTP326	ltpFR2	0	17	WORKER	1621	n/a	n/a	0	0	0
4016969	WORD	wordpools/wasnorm_wordpool_576.txt	LTP326	ltpFR2	0	17	MARKET	871	n/a	n/a	0	0	0
4019389	WORD	wordpools/wasnorm_wordpool_576.txt	LTP326	ltpFR2	0	17	RABBIT	1152	n/a	n/a	0	0	0
4022158	WORD	wordpools/wasnorm_wordpool_576.txt	LTP326	ltpFR2	0	17	BUNNY	198	n/a	n/a	0	0	0
4024892	WORD	wordpools/wasnorm_wordpool_576.txt	LTP326	ltpFR2	0	17	SLIME	1327	n/a	n/a	0	0	0
4027494	WORD	wordpools/wasnorm_wordpool_576.txt	LTP326	ltpFR2	0	17	WINDOW	1611	n/a	n/a	0	0	0
4030051	WORD	wordpools/wasnorm_wordpool_576.txt	LTP326	ltpFR2	0	17	MILK	895	n/a	n/a	0	0	0
4032771	WORD	wordpools/wasnorm_wordpool_576.txt	LTP326	ltpFR2	0	17	NIGHTGOWN	953	n/a	n/a	0	0	0
4035406	WORD	wordpools/wasnorm_wordpool_576.txt	LTP326	ltpFR2	0	17	PLAYGROUND	1087	n/a	n/a	0	0	0
4037969	WORD	wordpools/wasnorm_wordpool_576.txt	LTP326	ltpFR2	0	17	APPLE	33	n/a	n/a	0	0	0
4040459	WORD	wordpools/wasnorm_wordpool_576.txt	LTP326	ltpFR2	0	17	BRANCH	168	n/a	n/a	0	0	0
4043040	WORD	wordpools/wasnorm_wordpool_576.txt	LTP326	ltpFR2	0	17	LACE	792	n/a	n/a	0	0	0
4045625	WORD	wordpools/wasnorm_wordpool_576.txt	LTP326	ltpFR2	0	17	BADGE	68	n/a	n/a	0	0	0
4048294	WORD	wordpools/wasnorm_wordpool_576.txt	LTP326	ltpFR2	0	17	LUMBER	848	n/a	n/a	0	0	0
4051080	WORD	wordpools/wasnorm_wordpool_576.txt	LTP326	ltpFR2	0	17	MILDEW	893	n/a	n/a	0	0	0
4053648	WORD	wordpools/wasnorm_wordpool_576.txt	LTP326	ltpFR2	0	17	ORANGE	980	n/a	n/a	0	0	0
4056150	WORD	wordpools/wasnorm_wordpool_576.txt	LTP326	ltpFR2	0	17	SILK	1307	n/a	n/a	0	0	0
4058693	WORD	wordpools/wasnorm_wordpool_576.txt	LTP326	ltpFR2	0	17	WASP	1593	n/a	n/a	0	0	0
4061343	WORD	wordpools/wasnorm_wordpool_576.txt	LTP326	ltpFR2	0	17	MACHINE	852	n/a	n/a	0	0	0
4062956	START	n/a	LTP326	ltpFR2	0	n/a	n/a	n/a	27	n/a	n/a	n/a	n/a
4063819	DISTRACTOR	n/a	LTP326	ltpFR2	0	17	n/a	n/a	n/a	n/a	0	0	0
4063830	PROB	n/a	LTP326	ltpFR2	0	n/a	n/a	n/a	27	21	8	9	8
4069849	PROB	n/a	LTP326	ltpFR2	0	n/a	n/a	n/a	27	19	9	3	7
4072334	PROB	n/a	LTP326	ltpFR2	0	n/a	n/a	n/a	27	16	6	3	7
4074806	PROB	n/a	LTP326	ltpFR2	0	n/a	n/a	n/a	27	13	6	4	3
4076405	PROB	n/a	LTP326	ltpFR2	0	n/a	n/a	n/a	27	15	5	2	8
4078404	PROB	n/a	LTP326	ltpFR2	0	n/a	n/a	n/a	27	21	7	9	5
4081808	PROB	n/a	LTP326	ltpFR2	0	n/a	n/a	n/a	27	18	8	4	6
4084493	PROB	n/a	LTP326	ltpFR2	0	n/a	n/a	n/a	27	13	1	4	8
4086295	STOP	n/a	LTP326	ltpFR2	0	n/a	n/a	n/a	27	n/a	n/a	n/a	n/a
4088831	REC_START	n/a	LTP326	ltpFR2	0	17	n/a	n/a	n/a	n/a	0	0	0
4091205	REC_WORD	wordpools/wasnorm_wordpool_576.txt	LTP326	ltpFR2	0	17	BUNNY	198	n/a	n/a	0	0	0
4092529	REC_WORD	wordpools/wasnorm_wordpool_576.txt	LTP326	ltpFR2	0	17	RABBIT	1152	n/a	n/a	0	0	0
4094532	REC_WORD	wordpools/wasnorm_wordpool_576.txt	LTP326	ltpFR2	0	17	DONKEY	484	n/a	n/a	0	0	0
4095849	REC_WORD	wordpools/wasnorm_wordpool_576.txt	LTP326	ltpFR2	0	17	SADDLE	1221	n/a	n/a	0	0	0
4097539	REC_WORD	wordpools/wasnorm_wordpool_576.txt	LTP326	ltpFR2	0	17	WORKER	1621	n/a	n/a	0	0	0
4099147	REC_WORD	wordpools/wasnorm_wordpool_576.txt	LTP326	ltpFR2	0	17	SILK	1307	n/a	n/a	0	0	0
4100874	REC_WORD	wordpools/wasnorm_wordpool_576.txt	LTP326	ltpFR2	0	17	NIGHTGOWN	953	n/a	n/a	0	0	0
4101874	REC_WORD_VV	wordpools/wasnorm_wordpool_576.txt	LTP326	ltpFR2	0	17	<>	-1	n/a	n/a	0	0	0
4103596	REC_WORD	wordpools/wasnorm_wordpool_576.txt	LTP326	ltpFR2	0	17	APPLE	33	n/a	n/a	0	0	0
4105388	REC_WORD	wordpools/wasnorm_wordpool_576.txt	LTP326	ltpFR2	0	17	ORANGE	980	n/a	n/a	0	0	0
4107826	REC_WORD	wordpools/wasnorm_wordpool_576.txt	LTP326	ltpFR2	0	17	WINDOW	1611	n/a	n/a	0	0	0
4109591	REC_WORD	wordpools/wasnorm_wordpool_576.txt	LTP326	ltpFR2	0	17	SLIME	1327	n/a	n/a	0	0	0
4110591	REC_WORD_VV	wordpools/wasnorm_wordpool_576.txt	LTP326	ltpFR2	0	17	<>	-1	n/a	n/a	0	0	0
4111667	REC_WORD	wordpools/wasnorm_wordpool_576.txt	LTP326	ltpFR2	0	17	MILDEW	893	n/a	n/a	0	0	0
4112667	REC_WORD_VV	wordpools/wasnorm_wordpool_576.txt	LTP326	ltpFR2	0	17	<>	-1	n/a	n/a	0	0	0
4113738	REC_WORD	wordpools/wasnorm_wordpool_576.txt	LTP326	ltpFR2	0	17	LUMBER	848	n/a	n/a	0	0	0
4114738	REC_WORD_VV	wordpools/wasnorm_wordpool_576.txt	LTP326	ltpFR2	0	17	<>	-1	n/a	n/a	0	0	0
4115986	REC_WORD	wordpools/wasnorm_wordpool_576.txt	LTP326	ltpFR2	0	17	BADGE	68	n/a	n/a	0	0	0
4143366	REC_WORD	wordpools/wasnorm_wordpool_576.txt	LTP326	ltpFR2	0	17	PLAYGROUND	1087	n/a	n/a	0	0	0
4144366	REC_WORD_VV	wordpools/wasnorm_wordpool_576.txt	LTP326	ltpFR2	0	17	<>	-1	n/a	n/a	0	0	0
4147137	REC_WORD	wordpools/wasnorm_wordpool_576.txt	LTP326	ltpFR2	0	17	MARKET	871	n/a	n/a	0	0	0
4162404	REC_WORD	wordpools/wasnorm_wordpool_576.txt	LTP326	ltpFR2	0	17	SCALPEL	1243	n/a	n/a	0	0	0
4179307	WORD	wordpools/wasnorm_wordpool_576.txt	LTP326	ltpFR2	0	18	BANQUET	86	n/a	n/a	0	0	0
4182128	WORD	wordpools/wasnorm_wordpool_576.txt	LTP326	ltpFR2	0	18	GARDEN	623	n/a	n/a	0	0	0
4184914	WORD	wordpools/wasnorm_wordpool_576.txt	LTP326	ltpFR2	0	18	DOLPHIN	483	n/a	n/a	0	0	0
4187499	WORD	wordpools/wasnorm_wordpool_576.txt	LTP326	ltpFR2	0	18	PARENT	1013	n/a	n/a	0	0	0
4189984	WORD	wordpools/wasnorm_wordpool_576.txt	LTP326	ltpFR2	0	18	CROSS	413	n/a	n/a	0	0	0
4192805	WORD	wordpools/wasnorm_wordpool_576.txt	LTP326	ltpFR2	0	18	GRAPE	654	n/a	n/a	0	0	0
4195555	WORD	wordpools/wasnorm_wordpool_576.txt	LTP326	ltpFR2	0	18	OX	994	n/a	n/a	0	0	0
4198258	WORD	wordpools/wasnorm_wordpool_576.txt	LTP326	ltpFR2	0	18	AIRPORT	13	n/a	n/a	0	0	0
4200710	WORD	wordpools/wasnorm_wordpool_576.txt	LTP326	ltpFR2	0	18	CANYON	235	n/a	n/a	0	0	0
4203295	WORD	wordpools/wasnorm_wordpool_576.txt	LTP326	ltpFR2	0	18	AWARD	63	n/a	n/a	0	0	0
4206080	WORD	wordpools/wasnorm_wordpool_576.txt	LTP326	ltpFR2	0	18	CHAMPAGNE	278	n/a	n/a	0	0	0
4208916	WORD	wordpools/wasnorm_wordpool_576.txt	LTP326	ltpFR2	0	18	SCOTCH	1251	n/a	n/a	0	0	0
4211519	WORD	wordpools/wasnorm_wordpool_576.txt	LTP326	ltpFR2	0	18	PAIL	1002	n/a	n/a	0	0	0
4213971	WORD	wordpools/wasnorm_wordpool_576.txt	LTP326	ltpFR2	0	18	STAR	1373	n/a	n/a	0	0	0
4216656	WORD	wordpools/wasnorm_wordpool_576.txt	LTP326	ltpFR2	0	18	OZONE	996	n/a	n/a	0	0	0
4219274	WORD	wordpools/wasnorm_wordpool_576.txt	LTP326	ltpFR2	0	18	HIKER	708	n/a	n/a	0	0	0
4222060	WORD	wordpools/wasnorm_wordpool_576.txt	LTP326	ltpFR2	0	18	COUNTY	389	n/a	n/a	0	0	0
4224697	WORD	wordpools/wasnorm_wordpool_576.txt	LTP326	ltpFR2	0	18	MAMMAL	861	n/a	n/a	0	0	0
4227181	WORD	wordpools/wasnorm_wordpool_576.txt	LTP326	ltpFR2	0	18	RADISH	1158	n/a	n/a	0	0	0
4229915	WORD	wordpools/wasnorm_wordpool_576.txt	LTP326	ltpFR2	0	18	HOSTESS	723	n/a	n/a	0	0	0
4232635	WORD	wordpools/wasnorm_wordpool_576.txt	LTP326	ltpFR2	0	18	WAITER	1580	n/a	n/a	0	0	0
4235286	WORD	wordpools/wasnorm_wordpool_576.txt	LTP326	ltpFR2	0	18	COOKBOOK	373	n/a	n/a	0	0	0
4238055	WORD	wordpools/wasnorm_wordpool_576.txt	LTP326	ltpFR2	0	18	PILOT	1070	n/a	n/a	0	0	0
4240774	WORD	wordpools/wasnorm_wordpool_576.txt	LTP326	ltpFR2	0	18	THRONE	1461	n/a	n/a	0	0	0
4242392	START	n/a	LTP326	ltpFR2	0	n/a	n/a	n/a	28	n/a	n/a	n/a	n/a
4243484	DISTRACTOR	n/a	LTP326	ltpFR2	0	18	n/a	n/a	n/a	n/a	0	0	0
4243493	PROB	n/a	LTP326	ltpFR2	0	n/a	n/a	n/a	28	13	1	4	8
4245941	PROB	n/a	LTP326	ltpFR2	0	n/a	n/a	n/a	28	17	6	4	7
4247930	PROB	n/a	LTP326	ltpFR2	0	n/a	n/a	n/a	28	12	2	7	4
4249612	PROB	n/a	LTP326	ltpFR2	0	n/a	n/a	n/a	28	10	2	2	6
4251999	PROB	n/a	LTP326	ltpFR2	0	n/a	n/a	n/a	28	13	3	4	6
4253915	PROB	n/a	LTP326	ltpFR2	0	n/a	n/a	n/a	28	14	5	4	5
4255733	PROB	n/a	LTP326	ltpFR2	0	n/a	n/a	n/a	28	13	4	6	3
4257217	PROB	n/a	LTP326	ltpFR2	0	n/a	n/a	n/a	28	13	4	8	1
4258803	PROB	n/a	LTP326	ltpFR2	0	n/a	n/a	n/a	28	6	4	1	2
4260259	PROB	n/a	LTP326	ltpFR2	0	n/a	n/a	n/a	28	14	2	8	4
4264639	PROB	n/a	LTP326	ltpFR2	0	n/a	n/a	n/a	28	4	2	1	2
4265943	STOP	n/a	LTP326	ltpFR2	0	n/a	n/a	n/a	28	n/a	n/a	n/a	n/a
4268192	REC_START	n/a	LTP326	ltpFR2	0	18	n/a	n/a	n/a	n/a	0	0	0
4269102	REC_WORD	wordpools/wasnorm_wordpool_576.txt	LTP326	ltpFR2	0	18	BANQUET	86	n/a	n/a	0	0	0
4270928	REC_WORD	wordpools/wasnorm_wordpool_576.txt	LTP326	ltpFR2	0	18	PARENT	1013	n/a	n/a	0	0	0
4272500	REC_WORD	wordpools/wasnorm_wordpool_576.txt	LTP326	ltpFR2	0	18	HIKER	708	n/a	n/a	0	0	0
4275379	REC_WORD	wordpools/wasnorm_wordpool_576.txt	LTP326	ltpFR2	0	18	PILOT	1070	n/a	n/a	0	0	0
4278432	REC_WORD	wordpools/wasnorm_wordpool_576.txt	LTP326	ltpFR2	0	18	WAITRESS	1581	n/a	n/a	0	0	0
4279955	REC_WORD	wordpools/wasnorm_wordpool_576.txt	LTP326	ltpFR2	0	18	HOSTESS	723	n/a	n/a	0	0	0
4280955	REC_WORD_VV	wordpools/wasnorm_wordpool_576.txt	LTP326	ltpFR2	0	18	<>	-1	n/a	n/a	0	0	0
4282154	REC_WORD	wordpools/wasnorm_wordpool_576.txt	LTP326	ltpFR2	0	18	WAITER	1580	n/a	n/a	0	0	0
4286038	REC_WORD	wordpools/wasnorm_wordpool_576.txt	LTP326	ltpFR2	0	18	CHAMPAGNE	278	n/a	n/a	0	0	0
4287847	REC_WORD	wordpools/wasnorm_wordpool_576.txt	LTP326	ltpFR2	0	18	SCOTCH	1251	n/a	n/a	0	0	0
4288847	REC_WORD_VV	wordpools/wasnorm_wordpool_576.txt	LTP326	ltpFR2	0	18	<>	-1	n/a	n/a	0	0	0
4290336	REC_WORD	wordpools/wasnorm_wordpool_576.txt	LTP326	ltpFR2	0	18	MAMMAL	861	n/a	n/a	0	0	0
4298207	REC_WORD	wordpools/wasnorm_wordpool_576.txt	LTP326	ltpFR2	0	18	GARDEN	623	n/a	n/a	0	0	0
4315274	REC_WORD	wordpools/wasnorm_wordpool_576.txt	LTP326	ltpFR2	0	18	AWARD	63	n/a	n/a	0	0	0
4422362	DISTRACTOR	n/a	LTP326	ltpFR2	0	19	n/a	n/a	n/a	n/a	0	0	0
4422362	START	n/a	LTP326	ltpFR2	0	n/a	n/a	n/a	29	n/a	n/a	n/a	n/a
4422374	PROB	n/a	LTP326	ltpFR2	0	n/a	n/a	n/a	29	17	7	9	1
4424678	PROB	n/a	LTP326	ltpFR2	0	n/a	n/a	n/a	29	14	5	7	2
4427112	PROB	n/a	LTP326	ltpFR2	0	n/a	n/a	n/a	29	16	8	5	3
4429147	PROB	n/a	LTP326	ltpFR2	0	n/a	n/a	n/a	29	4	1	1	2
4430531	PROB	n/a	LTP326	ltpFR2	0	n/a	n/a	n/a	29	14	6	3	5
4433099	PROB	n/a	LTP326	ltpFR2	0	n/a	n/a	n/a	29	10	3	3	4
4435673	PROB	n/a	LTP326	ltpFR2	0	n/a	n/a	n/a	29	18	8	1	9
4437253	PROB	n/a	LTP326	ltpFR2	0	n/a	n/a	n/a	29	12	2	6	4
4439355	PROB	n/a	LTP326	ltpFR2	0	n/a	n/a	n/a	29	17	8	8	1
4442311	PROB	n/a	LTP326	ltpFR2	0	n/a	n/a	n/a	29	6	2	2	4
4443827	PROB	n/a	LTP326	ltpFR2	0	n/a	n/a	n/a	29	13	4	3	6
4446295	STOP	n/a	LTP326	ltpFR2	0	n/a	n/a	n/a	29	n/a	n/a	n/a	n/a
4447298	WORD	wordpools/wasnorm_wordpool_576.txt	LTP326	ltpFR2	0	19	TERMITE	1451	n/a	n/a	0	0	0
4450084	WORD	wordpools/wasnorm_wordpool_576.txt	LTP326	ltpFR2	0	19	PICTURE	1061	n/a	n/a	0	0	0
4452669	WORD	wordpools/wasnorm_wordpool_576.txt	LTP326	ltpFR2	0	19	CAPTIVE	240	n/a	n/a	0	0	0
4455437	WORD	wordpools/wasnorm_wordpool_576.txt	LTP326	ltpFR2	0	19	PEPPER	1047	n/a	n/a	0	0	0
4457939	WORD	wordpools/wasnorm_wordpool_576.txt	LTP326	ltpFR2	0	19	SAUSAGE	1238	n/a	n/a	0	0	0
4460575	WORD	wordpools/wasnorm_wordpool_576.txt	LTP326	ltpFR2	0	19	WASHER	1592	n/a	n/a	0	0	0
4463343	WORD	wordpools/wasnorm_wordpool_576.txt	LTP326	ltpFR2	0	19	HAMPER	682	n/a	n/a	0	0	0
4466062	WORD	wordpools/wasnorm_wordpool_576.txt	LTP326	ltpFR2	0	19	SPIDER	1351	n/a	n/a	0	0	0
4468615	WORD	wordpools/wasnorm_wordpool_576.txt	LTP326	ltpFR2	0	19	COLLEGE	346	n/a	n/a	0	0	0
4471068	WORD	wordpools/wasnorm_wordpool_576.txt	LTP326	ltpFR2	0	19	ROBIN	1199	n/a	n/a	0	0	0
4473819	WORD	wordpools/wasnorm_wordpool_576.txt	LTP326	ltpFR2	0	19	PACKAGE	997	n/a	n/a	0	0	0
4476588	WORD	wordpools/wasnorm_wordpool_576.txt	LTP326	ltpFR2	0	19	CRAB	397	n/a	n/a	0	0	0
4479141	WORD	wordpools/wasnorm_wordpool_576.txt	LTP326	ltpFR2	0	19	BARREL	91	n/a	n/a	0	0	0
4481974	WORD	wordpools/wasnorm_wordpool_576.txt	LTP326	ltpFR2	0	19	DENTIST	447	n/a	n/a	0	0	0
4484678	WORD	wordpools/wasnorm_wordpool_576.txt	LTP326	ltpFR2	0	19	DRILL	497	n/a	n/a	0	0	0
4487445	WORD	wordpools/wasnorm_wordpool_576.txt	LTP326	ltpFR2	0	19	GALLON	618	n/a	n/a	0	0	0
4490200	WORD	wordpools/wasnorm_wordpool_576.txt	LTP326	ltpFR2	0	19	POSTAGE	1113	n/a	n/a	0	0	0
4492750	WORD	wordpools/wasnorm_wordpool_576.txt	LTP326	ltpFR2	0	19	OFFICE	972	n/a	n/a	0	0	0
4495217	WORD	wordpools/wasnorm_wordpool_576.txt	LTP326	ltpFR2	0	19	PORK	1108	n/a	n/a	0	0	0
4497707	WORD	wordpools/wasnorm_wordpool_576.txt	LTP326	ltpFR2	0	19	LABEL	790	n/a	n/a	0	0	0
4500142	WORD	wordpools/wasnorm_wordpool_576.txt	LTP326	ltpFR2	0	19	BLENDER	136	n/a	n/a	0	0	0
4502709	WORD	wordpools/wasnorm_wordpool_576.txt	LTP326	ltpFR2	0	19	PARTNER	1017	n/a	n/a	0	0	0
4505363	WORD	wordpools/wasnorm_wordpool_576.txt	LTP326	ltpFR2	0	19	WARDROBE	1587	n/a	n/a	0	0	0
4507977	WORD	wordpools/wasnorm_wordpool_576.txt	LTP326	ltpFR2	0	19	GAZELLE	628	n/a	n/a	0	0	0
4509584	START	n/a	LTP326	ltpFR2	0	n/a	n/a	n/a	30	n/a	n/a	n/a	n/a
4510519	DISTRACTOR	n/a	LTP326	ltpFR2	0	19	n/a	n/a	n/a	n/a	0	0	0
4510530	PROB	n/a	LTP326	ltpFR2	0	n/a	n/a	n/a	30	16	8	7	1
4513396	PROB	n/a	LTP326	ltpFR2	0	n/a	n/a	n/a	30	19	2	8	9
4515738	PROB	n/a	LTP326	ltpFR2	0	n/a	n/a	n/a	30	13	1	6	6
4517887	PROB	n/a	LTP326	ltpFR2	0	n/a	n/a	n/a	30	21	9	2	9
4521185	PROB	n/a	LTP326	ltpFR2	0	n/a	n/a	n/a	30	21	7	5	6
4523493	PROB	n/a	LTP326	ltpFR2	0	n/a	n/a	n/a	30	19	8	3	8
4526913	PROB	n/a	LTP326	ltpFR2	0	n/a	n/a	n/a	30	18	7	7	4
4529716	PROB	n/a	LTP326	ltpFR2	0	n/a	n/a	n/a	30	18	7	4	7
4532752	STOP	n/a	LTP326	ltpFR2	0	n/a	n/a	n/a	30	n/a	n/a	n/a	n/a
4535505	REC_START	n/a	LTP326	ltpFR2	0	19	n/a	n/a	n/a	n/a	0	0	0
4536926	REC_WORD	wordpools/wasnorm_wordpool_576.txt	LTP326	ltpFR2	0	19	COLLEGE	346	n/a	n/a	0	0	0
4538825	REC_WORD	wordpools/wasnorm_wordpool_576.txt	LTP326	ltpFR2	0	19	PARTNER	1017	n/a	n/a	0	0	0
4540863	REC_WORD	wordpools/wasnorm_wordpool_576.txt	LTP326	ltpFR2	0	19	WARDROBE	1587	n/a	n/a	0	0	0
4541863	REC_WORD_VV	wordpools/wasnorm_wordpool_576.txt	LTP326	ltpFR2	0	19	<>	-1	n/a	n/a	0	0	0
4555650	REC_WORD	wordpools/wasnorm_wordpool_576.txt	LTP326	ltpFR2	0	19	SHALLOW	-1	n/a	n/a	0	0	0
4610017	REC_WORD_VV	wordpools/wasnorm_wordpool_576.txt	LTP326	ltpFR2	0	19	<>	-1	n/a	n/a	0	0	0
4625978	WORD	wordpools/wasnorm_wordpool_576.txt	LTP326	ltpFR2	0	20	COMPASS	358	n/a	n/a	0	0	0
4628419	WORD	wordpools/wasnorm_wordpool_576.txt	LTP326	ltpFR2	0	20	GLOVE	642	n/a	n/a	0	0	0
4630868	WORD	wordpools/wasnorm_wordpool_576.txt	LTP326	ltpFR2	0	20	ROD	1203	n/a	n/a	0	0	0
4633636	WORD	wordpools/wasnorm_wordpool_576.txt	LTP326	ltpFR2	0	20	BUG	187	n/a	n/a	0	0	0
4636342	WORD	wordpools/wasnorm_wordpool_576.txt	LTP326	ltpFR2	0	20	WRIST	1626	n/a	n/a	0	0	0
4639061	WORD	wordpools/wasnorm_wordpool_576.txt	LTP326	ltpFR2	0	20	LAVA	804	n/a	n/a	0	0	0
4641527	WORD	wordpools/wasnorm_wordpool_576.txt	LTP326	ltpFR2	0	20	COUCH	386	n/a	n/a	0	0	0
4644313	WORD	wordpools/wasnorm_wordpool_576.txt	LTP326	ltpFR2	0	20	HORNET	718	n/a	n/a	0	0	0
4646799	WORD	wordpools/wasnorm_wordpool_576.txt	LTP326	ltpFR2	0	20	FEMALE	559	n/a	n/a	0	0	0
4649583	WORD	wordpools/wasnorm_wordpool_576.txt	LTP326	ltpFR2	0	20	GRIZZLY	662	n/a	n/a	0	0	0
4652019	WORD	wordpools/wasnorm_wordpool_576.txt	LTP326	ltpFR2	0	20	PEBBLE	1035	n/a	n/a	0	0	0
4654470	WORD	wordpools/wasnorm_wordpool_576.txt	LTP326	ltpFR2	0	20	FLASK	576	n/a	n/a	0	0	0
4657272	WORD	wordpools/wasnorm_wordpool_576.txt	LTP326	ltpFR2	0	20	CURTAIN	427	n/a	n/a	0	0	0
4660059	WORD	wordpools/wasnorm_wordpool_576.txt	LTP326	ltpFR2	0	20	WRENCH	1625	n/a	n/a	0	0	0
4662862	WORD	wordpools/wasnorm_wordpool_576.txt	LTP326	ltpFR2	0	20	PLIERS	1089	n/a	n/a	0	0	0
4665479	WORD	wordpools/wasnorm_wordpool_576.txt	LTP326	ltpFR2	0	20	WAITRESS	1581	n/a	n/a	0	0	0
4668249	WORD	wordpools/wasnorm_wordpool_576.txt	LTP326	ltpFR2	0	20	GREASE	660	n/a	n/a	0	0	0
4670869	WORD	wordpools/wasnorm_wordpool_576.txt	LTP326	ltpFR2	0	20	RIVER	1194	n/a	n/a	0	0	0
4673319	WORD	wordpools/wasnorm_wordpool_576.txt	LTP326	ltpFR2	0	20	STOMACH	1384	n/a	n/a	0	0	0
4675789	WORD	wordpools/wasnorm_wordpool_576.txt	LTP326	ltpFR2	0	20	PLAID	1080	n/a	n/a	0	0	0
4678590	WORD	wordpools/wasnorm_wordpool_576.txt	LTP326	ltpFR2	0	20	ZEBRA	1635	n/a	n/a	0	0	0
4681143	WORD	wordpools/wasnorm_wordpool_576.txt	LTP326	ltpFR2	0	20	PATROL	1027	n/a	n/a	0	0	0
4683729	WORD	wordpools/wasnorm_wordpool_576.txt	LTP326	ltpFR2	0	20	GUARD	667	n/a	n/a	0	0	0
4686163	WORD	wordpools/wasnorm_wordpool_576.txt	LTP326	ltpFR2	0	20	SERVER	1272	n/a	n/a	0	0	0
4687783	START	n/a	LTP326	ltpFR2	0	n/a	n/a	n/a	31	n/a	n/a	n/a	n/a
4688717	DISTRACTOR	n/a	LTP326	ltpFR2	0	20	n/a	n/a	n/a	n/a	0	0	0
4688734	PROB	n/a	LTP326	ltpFR2	0	n/a	n/a	n/a	31	18	4	6	8
4690330	PROB	n/a	LTP326	ltpFR2	0	n/a	n/a	n/a	31	17	6	3	8
4692532	PROB	n/a	LTP326	ltpFR2	0	n/a	n/a	n/a	31	20	7	6	7
4694769	PROB	n/a	LTP326	ltpFR2	0	n/a	n/a	n/a	31	20	8	7	5
4696902	PROB	n/a	LTP326	ltpFR2	0	n/a	n/a	n/a	31	20	7	8	7
4700125	PROB	n/a	LTP326	ltpFR2	0	n/a	n/a	n/a	31	19	7	7	5
4702676	PROB	n/a	LTP326	ltpFR2	0	n/a	n/a	n/a	31	20	5	6	9
4705093	PROB	n/a	LTP326	ltpFR2	0	n/a	n/a	n/a	31	10	2	1	7
4707027	PROB	n/a	LTP326	ltpFR2	0	n/a	n/a	n/a	31	18	8	6	4
4711783	STOP	n/a	LTP326	ltpFR2	0	n/a	n/a	n/a	31	n/a	n/a	n/a	n/a
4713569	REC_START	n/a	LTP326	ltpFR2	0	20	n/a	n/a	n/a	n/a	0	0	0
4714487	REC_WORD	wordpools/wasnorm_wordpool_576.txt	LTP326	ltpFR2	0	20	COMPASS	358	n/a	n/a	0	0	0
4716110	REC_WORD	wordpools/wasnorm_wordpool_576.txt	LTP326	ltpFR2	0	20	GLOVE	642	n/a	n/a	0	0	0
4718703	REC_WORD	wordpools/wasnorm_wordpool_576.txt	LTP326	ltpFR2	0	20	WRIST	1626	n/a	n/a	0	0	0
4722226	REC_WORD	wordpools/wasnorm_wordpool_576.txt	LTP326	ltpFR2	0	20	ROD	1203	n/a	n/a	0	0	0
4724091	REC_WORD	wordpools/wasnorm_wordpool_576.txt	LTP326	ltpFR2	0	20	BUG	187	n/a	n/a	0	0	0
4730214	REC_WORD	wordpools/wasnorm_wordpool_576.txt	LTP326	ltpFR2	0	20	COUCH	386	n/a	n/a	0	0	0
4731819	REC_WORD	wordpools/wasnorm_wordpool_576.txt	LTP326	ltpFR2	0	20	HORNET	718	n/a	n/a	0	0	0
4849697	WORD	wordpools/wasnorm_wordpool_576.txt	LTP326	ltpFR2	0	21	JELLO	754	n/a	n/a	0	0	0
4852285	WORD	wordpools/wasnorm_wordpool_576.txt	LTP326	ltpFR2	0	21	CUSTARD	429	n/a	n/a	0	0	0
4855104	WORD	wordpools/wasnorm_wordpool_576.txt	LTP326	ltpFR2	0	21	SWORD	1423	n/a	n/a	0	0	0
4857573	WORD	wordpools/wasnorm_wordpool_576.txt	LTP326	ltpFR2	0	21	ATOM	55	n/a	n/a	0	0	0
4860113	WORD	wordpools/wasnorm_wordpool_576.txt	LTP326	ltpFR2	0	21	NAPKIN	937	n/a	n/a	0	0	0
4862666	WORD	wordpools/wasnorm_wordpool_576.txt	LTP326	ltpFR2	0	21	NURSE	963	n/a	n/a	0	0	0
4865295	WORD	wordpools/wasnorm_wordpool_576.txt	LTP326	ltpFR2	0	21	CABBAGE	210	n/a	n/a	0	0	0
4868048	WORD	wordpools/wasnorm_wordpool_576.txt	LTP326	ltpFR2	0	21	BARLEY	88	n/a	n/a	0	0	0
4870550	WORD	wordpools/wasnorm_wordpool_576.txt	LTP326	ltpFR2	0	21	TRACTOR	1493	n/a	n/a	0	0	0
4873103	WORD	wordpools/wasnorm_wordpool_576.txt	LTP326	ltpFR2	0	21	PAPER	1011	n/a	n/a	0	0	0
4875692	WORD	wordpools/wasnorm_wordpool_576.txt	LTP326	ltpFR2	0	21	BLADE	134	n/a	n/a	0	0	0
4878223	WORD	wordpools/wasnorm_wordpool_576.txt	LTP326	ltpFR2	0	21	CONCERT	360	n/a	n/a	0	0	0
4880844	WORD	wordpools/wasnorm_wordpool_576.txt	LTP326	ltpFR2	0	21	BABY	64	n/a	n/a	0	0	0
4883577	WORD	wordpools/wasnorm_wordpool_576.txt	LTP326	ltpFR2	0	21	SHERIFF	1284	n/a	n/a	0	0	0
4886330	WORD	wordpools/wasnorm_wordpool_576.txt	LTP326	ltpFR2	0	21	FOOTBALL	591	n/a	n/a	0	0	0
4888899	WORD	wordpools/wasnorm_wordpool_576.txt	LTP326	ltpFR2	0	21	SOFTBALL	1343	n/a	n/a	0	0	0
4891518	WORD	wordpools/wasnorm_wordpool_576.txt	LTP326	ltpFR2	0	21	SNAIL	1332	n/a	n/a	0	0	0
4894053	WORD	wordpools/wasnorm_wordpool_576.txt	LTP326	ltpFR2	0	21	KLEENEX	782	n/a	n/a	0	0	0
4896722	WORD	wordpools/wasnorm_wordpool_576.txt	LTP326	ltpFR2	0	21	JUGGLER	763	n/a	n/a	0	0	0
4899374	WORD	wordpools/wasnorm_wordpool_576.txt	LTP326	ltpFR2	0	21	DORM	488	n/a	n/a	0	0	0
4901827	WORD	wordpools/wasnorm_wordpool_576.txt	LTP326	ltpFR2	0	21	TYPIST	1532	n/a	n/a	0	0	0
4904512	WORD	wordpools/wasnorm_wordpool_576.txt	LTP326	ltpFR2	0	21	ROBBER	1197	n/a	n/a	0	0	0
4906998	WORD	wordpools/wasnorm_wordpool_576.txt	LTP326	ltpFR2	0	21	CELLAR	267	n/a	n/a	0	0	0
4909450	WORD	wordpools/wasnorm_wordpool_576.txt	LTP326	ltpFR2	0	21	OINTMENT	974	n/a	n/a	0	0	0
4911068	START	n/a	LTP326	ltpFR2	0	n/a	n/a	n/a	32	n/a	n/a	n/a	n/a
4912129	DISTRACTOR	n/a	LTP326	ltpFR2	0	21	n/a	n/a	n/a	n/a	0	0	0
4912135	PROB	n/a	LTP326	ltpFR2	0	n/a	n/a	n/a	32	12	5	3	5
4917486	PROB	n/a	LTP326	ltpFR2	0	n/a	n/a	n/a	32	20	7	9	4
4920373	PROB	n/a	LTP326	ltpFR2	0	n/a	n/a	n/a	32	17	4	6	7
4921989	PROB	n/a	LTP326	ltpFR2	0	n/a	n/a	n/a	32	9	6	2	1
4924208	PROB	n/a	LTP326	ltpFR2	0	n/a	n/a	n/a	32	17	4	4	9
4926443	PROB	n/a	LTP326	ltpFR2	0	n/a	n/a	n/a	32	21	5	7	9
4929299	PROB	n/a	LTP326	ltpFR2	0	n/a	n/a	n/a	32	17	1	8	8
4931381	PROB	n/a	LTP326	ltpFR2	0	n/a	n/a	n/a	32	13	7	3	3
4935068	STOP	n/a	LTP326	ltpFR2	0	n/a	n/a	n/a	32	n/a	n/a	n/a	n/a
4936923	REC_START	n/a	LTP326	ltpFR2	0	21	n/a	n/a	n/a	n/a	0	0	0
4940214	REC_WORD	wordpools/wasnorm_wordpool_576.txt	LTP326	ltpFR2	0	21	BABY	64	n/a	n/a	0	0	0
4941992	REC_WORD	wordpools/wasnorm_wordpool_576.txt	LTP326	ltpFR2	0	21	CONCERT	360	n/a	n/a	0	0	0
4943993	REC_WORD	wordpools/wasnorm_wordpool_576.txt	LTP326	ltpFR2	0	21	SHERIFF	1284	n/a	n/a	0	0	0
4944993	REC_WORD_VV	wordpools/wasnorm_wordpool_576.txt	LTP326	ltpFR2	0	21	<>	-1	n/a	n/a	0	0	0
4946238	REC_WORD	wordpools/wasnorm_wordpool_576.txt	LTP326	ltpFR2	0	21	CELLAR	267	n/a	n/a	0	0	0
4947243	REC_WORD_VV	wordpools/wasnorm_wordpool_576.txt	LTP326	ltpFR2	0	21	<>	-1	n/a	n/a	0	0	0
4948492	REC_WORD	wordpools/wasnorm_wordpool_576.txt	LTP326	ltpFR2	0	21	FOOTBALL	591	n/a	n/a	0	0	0
4949492	REC_WORD_VV	wordpools/wasnorm_wordpool_576.txt	LTP326	ltpFR2	0	21	<>	-1	n/a	n/a	0	0	0
4950746	REC_WORD	wordpools/wasnorm_wordpool_576.txt	LTP326	ltpFR2	0	21	SOFTBALL	1343	n/a	n/a	0	0	0
4951746	REC_WORD_VV	wordpools/wasnorm_wordpool_576.txt	LTP326	ltpFR2	0	21	<>	-1	n/a	n/a	0	0	0
4953512	REC_WORD	wordpools/wasnorm_wordpool_576.txt	LTP326	ltpFR2	0	21	SNAIL	1332	n/a	n/a	0	0	0
4955808	REC_WORD	wordpools/wasnorm_wordpool_576.txt	LTP326	ltpFR2	0	21	JELLO	754	n/a	n/a	0	0	0
4957764	REC_WORD	wordpools/wasnorm_wordpool_576.txt	LTP326	ltpFR2	0	21	ATOM	55	n/a	n/a	0	0	0
4959793	REC_WORD	wordpools/wasnorm_wordpool_576.txt	LTP326	ltpFR2	0	21	NURSE	963	n/a	n/a	0	0	0
4961701	REC_WORD	wordpools/wasnorm_wordpool_576.txt	LTP326	ltpFR2	0	21	NAPKIN	937	n/a	n/a	0	0	0
4963933	REC_WORD	wordpools/wasnorm_wordpool_576.txt	LTP326	ltpFR2	0	21	KLEENEX	782	n/a	n/a	0	0	0
5027360	WORD	wordpools/wasnorm_wordpool_576.txt	LTP326	ltpFR2	0	22	ROBOT	1200	n/a	n/a	0	0	0
5030092	WORD	wordpools/wasnorm_wordpool_576.txt	LTP326	ltpFR2	0	22	BRIEFCASE	175	n/a	n/a	0	0	0
5032551	WORD	wordpools/wasnorm_wordpool_576.txt	LTP326	ltpFR2	0	22	LUNCH	849	n/a	n/a	0	0	0
5035063	WORD	wordpools/wasnorm_wordpool_576.txt	LTP326	ltpFR2	0	22	SODA	1341	n/a	n/a	0	0	0
5037539	WORD	wordpools/wasnorm_wordpool_576.txt	LTP326	ltpFR2	0	22	HOOK	715	n/a	n/a	0	0	0
5040242	WORD	wordpools/wasnorm_wordpool_576.txt	LTP326	ltpFR2	0	22	SHARK	1275	n/a	n/a	0	0	0
5042770	WORD	wordpools/wasnorm_wordpool_576.txt	LTP326	ltpFR2	0	22	KNAPSACK	783	n/a	n/a	0	0	0
5045362	WORD	wordpools/wasnorm_wordpool_576.txt	LTP326	ltpFR2	0	22	PATIENT	1024	n/a	n/a	0	0	0
5047840	WORD	wordpools/wasnorm_wordpool_576.txt	LTP326	ltpFR2	0	22	SPONGE	1355	n/a	n/a	0	0	0
5050316	WORD	wordpools/wasnorm_wordpool_576.txt	LTP326	ltpFR2	0	22	TWIG	1527	n/a	n/a	0	0	0
5052876	WORD	wordpools/wasnorm_wordpool_576.txt	LTP326	ltpFR2	0	22	UNCLE	1536	n/a	n/a	0	0	0
5055570	WORD	wordpools/wasnorm_wordpool_576.txt	LTP326	ltpFR2	0	22	FARMER	553	n/a	n/a	0	0	0
5058197	WORD	wordpools/wasnorm_wordpool_576.txt	LTP326	ltpFR2	0	22	PRINCESS	1125	n/a	n/a	0	0	0
5060766	WORD	wordpools/wasnorm_wordpool_576.txt	LTP326	ltpFR2	0	22	PALACE	1006	n/a	n/a	0	0	0
5063544	WORD	wordpools/wasnorm_wordpool_576.txt	LTP326	ltpFR2	0	22	PADDING	999	n/a	n/a	0	0	0
5066203	WORD	wordpools/wasnorm_wordpool_576.txt	LTP326	ltpFR2	0	22	CANAL	226	n/a	n/a	0	0	0
5068832	WORD	wordpools/wasnorm_wordpool_576.txt	LTP326	ltpFR2	0	22	MOTEL	919	n/a	n/a	0	0	0
5071407	WORD	wordpools/wasnorm_wordpool_576.txt	LTP326	ltpFR2	0	22	COIN	343	n/a	n/a	0	0	0
5074169	WORD	wordpools/wasnorm_wordpool_576.txt	LTP326	ltpFR2	0	22	SUITCASE	1403	n/a	n/a	0	0	0
5076611	WORD	wordpools/wasnorm_wordpool_576.txt	LTP326	ltpFR2	0	22	PUPIL	1143	n/a	n/a	0	0	0
5079213	WORD	wordpools/wasnorm_wordpool_576.txt	LTP326	ltpFR2	0	22	SWITCH	1422	n/a	n/a	0	0	0
5081867	WORD	wordpools/wasnorm_wordpool_576.txt	LTP326	ltpFR2	0	22	COOK	372	n/a	n/a	0	0	0
5084301	WORD	wordpools/wasnorm_wordpool_576.txt	LTP326	ltpFR2	0	22	SURVEY	1414	n/a	n/a	0	0	0
5086880	WORD	wordpools/wasnorm_wordpool_576.txt	LTP326	ltpFR2	0	22	BRACES	164	n/a	n/a	0	0	0
5088488	START	n/a	LTP326	ltpFR2	0	n/a	n/a	n/a	33	n/a	n/a	n/a	n/a
5089453	DISTRACTOR	n/a	LTP326	ltpFR2	0	22	n/a	n/a	n/a	n/a	0	0	0
5089466	PROB	n/a	LTP326	ltpFR2	0	n/a	n/a	n/a	33	18	6	6	6
5091414	PROB	n/a	LTP326	ltpFR2	0	n/a	n/a	n/a	33	6	1	2	3
5092736	PROB	n/a	LTP326	ltpFR2	0	n/a	n/a	n/a	33	15	3	7	5
5094050	PROB	n/a	LTP326	ltpFR2	0	n/a	n/a	n/a	33	10	3	6	1
5096902	PROB	n/a	LTP326	ltpFR2	0	n/a	n/a	n/a	33	18	8	1	9
5098637	PROB	n/a	LTP326	ltpFR2	0	n/a	n/a	n/a	33	9	2	4	5
5100471	PROB	n/a	LTP326	ltpFR2	0	n/a	n/a	n/a	33	13	5	4	4
5103292	PROB	n/a	LTP326	ltpFR2	0	n/a	n/a	n/a	33	12	3	9	2
5105560	PROB	n/a	LTP326	ltpFR2	0	n/a	n/a	n/a	33	14	4	1	9
5108044	PROB	n/a	LTP326	ltpFR2	0	n/a	n/a	n/a	33	14	6	5	3
5112487	STOP	n/a	LTP326	ltpFR2	0	n/a	n/a	n/a	33	n/a	n/a	n/a	n/a
5114400	REC_START	n/a	LTP326	ltpFR2	0	22	n/a	n/a	n/a	n/a	0	0	0
5115914	REC_WORD	wordpools/wasnorm_wordpool_576.txt	LTP326	ltpFR2	0	22	LUNCH	849	n/a	n/a	0	0	0
5117584	REC_WORD	wordpools/wasnorm_wordpool_576.txt	LTP326	ltpFR2	0	22	KNAPSACK	783	n/a	n/a	0	0	0
5118584	REC_WORD_VV	wordpools/wasnorm_wordpool_576.txt	LTP326	ltpFR2	0	22	<>	-1	n/a	n/a	0	0	0
5119434	REC_WORD	wordpools/wasnorm_wordpool_576.txt	LTP326	ltpFR2	0	22	HOOK	715	n/a	n/a	0	0	0
5121222	REC_WORD	wordpools/wasnorm_wordpool_576.txt	LTP326	ltpFR2	0	22	PUPIL	1143	n/a	n/a	0	0	0
5123334	REC_WORD	wordpools/wasnorm_wordpool_576.txt	LTP326	ltpFR2	0	22	BRACES	164	n/a	n/a	0	0	0
5124334	REC_WORD_VV	wordpools/wasnorm_wordpool_576.txt	LTP326	ltpFR2	0	22	<>	-1	n/a	n/a	0	0	0
5125317	REC_WORD	wordpools/wasnorm_wordpool_576.txt	LTP326	ltpFR2	0	22	SPONGE	1355	n/a	n/a	0	0	0
5126317	REC_WORD_VV	wordpools/wasnorm_wordpool_576.txt	LTP326	ltpFR2	0	22	<>	-1	n/a	n/a	0	0	0
5127688	REC_WORD	wordpools/wasnorm_wordpool_576.txt	LTP326	ltpFR2	0	22	PATIENT	1024	n/a	n/a	0	0	0
5129835	REC_WORD	wordpools/wasnorm_wordpool_576.txt	LTP326	ltpFR2	0	22	TWIG	1527	n/a	n/a	0	0	0
5131891	REC_WORD	wordpools/wasnorm_wordpool_576.txt	LTP326	ltpFR2	0	22	UNCLE	1536	n/a	n/a	0	0	0
5133491	REC_WORD	wordpools/wasnorm_wordpool_576.txt	LTP326	ltpFR2	0	22	FARMER	553	n/a	n/a	0	0	0
5134491	REC_WORD_VV	wordpools/wasnorm_wordpool_576.txt	LTP326	ltpFR2	0	22	<>	-1	n/a	n/a	0	0	0
5148909	REC_WORD	wordpools/wasnorm_wordpool_576.txt	LTP326	ltpFR2	0	22	COOK	372	n/a	n/a	0	0	0
5204862	WORD	wordpools/wasnorm_wordpool_576.txt	LTP326	ltpFR2	0	23	FOX	598	n/a	n/a	0	0	0
5207395	WORD	wordpools/wasnorm_wordpool_576.txt	LTP326	ltpFR2	0	23	BOARD	143	n/a	n/a	0	0	0
5209863	WORD	wordpools/wasnorm_wordpool_576.txt	LTP326	ltpFR2	0	23	PICNIC	1060	n/a	n/a	0	0	0
5212398	WORD	wordpools/wasnorm_wordpool_576.txt	LTP326	ltpFR2	0	23	PLATE	1086	n/a	n/a	0	0	0
5215100	WORD	wordpools/wasnorm_wordpool_576.txt	LTP326	ltpFR2	0	23	LIZARD	834	n/a	n/a	0	0	0
5217618	WORD	wordpools/wasnorm_wordpool_576.txt	LTP326	ltpFR2	0	23	BACKBONE	66	n/a	n/a	0	0	0
5220187	WORD	wordpools/wasnorm_wordpool_576.txt	LTP326	ltpFR2	0	23	FREEZER	604	n/a	n/a	0	0	0
5222973	WORD	wordpools/wasnorm_wordpool_576.txt	LTP326	ltpFR2	0	23	BUGGY	188	n/a	n/a	0	0	0
