onset	duration	trial_type	sample	stim_file	subject	experiment	session	trial	task	item_name	item_num	recog_resp	recog_conf	resp	answer	test_x	test_y	test_z	color_r	color_g	color_b	case	font
219.256	n/a	SESS_START	109628	n/a	LTP236	ltpFR	12	n/a	n/a	n/a	n/a	1	3	n/a	n/a	0	0	0	n/a	n/a	n/a	n/a	n/a
248.03	n/a	START	124015	n/a	LTP236	ltpFR	12	n/a	n/a	n/a	n/a	n/a	n/a	n/a	n/a	n/a	n/a	n/a	n/a	n/a	n/a	n/a	n/a
248.08	n/a	PROB	124040	n/a	LTP236	ltpFR	12	n/a	n/a	n/a	n/a	n/a	n/a	n/a	18	5	8	5	n/a	n/a	n/a	n/a	n/a
250.004	n/a	PROB	125002	n/a	LTP236	ltpFR	12	n/a	n/a	n/a	n/a	n/a	n/a	n/a	15	6	4	5	n/a	n/a	n/a	n/a	n/a
251.058	n/a	PROB	125529	n/a	LTP236	ltpFR	12	n/a	n/a	n/a	n/a	n/a	n/a	n/a	14	5	8	1	n/a	n/a	n/a	n/a	n/a
252.18	n/a	PROB	126090	n/a	LTP236	ltpFR	12	n/a	n/a	n/a	n/a	n/a	n/a	n/a	19	3	8	8	n/a	n/a	n/a	n/a	n/a
253.684	n/a	PROB	126842	n/a	LTP236	ltpFR	12	n/a	n/a	n/a	n/a	n/a	n/a	n/a	13	5	4	4	n/a	n/a	n/a	n/a	n/a
254.956	n/a	PROB	127478	n/a	LTP236	ltpFR	12	n/a	n/a	n/a	n/a	n/a	n/a	n/a	18	5	8	4	n/a	n/a	n/a	n/a	n/a
256.748	n/a	PROB	128374	n/a	LTP236	ltpFR	12	n/a	n/a	n/a	n/a	n/a	n/a	n/a	18	9	1	8	n/a	n/a	n/a	n/a	n/a
257.848	n/a	PROB	128924	n/a	LTP236	ltpFR	12	n/a	n/a	n/a	n/a	n/a	n/a	n/a	10	2	4	4	n/a	n/a	n/a	n/a	n/a
259.122	n/a	PROB	129561	n/a	LTP236	ltpFR	12	n/a	n/a	n/a	n/a	n/a	n/a	n/a	18	9	8	1	n/a	n/a	n/a	n/a	n/a
260.462	n/a	PROB	130231	n/a	LTP236	ltpFR	12	n/a	n/a	n/a	n/a	n/a	n/a	n/a	18	3	9	6	n/a	n/a	n/a	n/a	n/a
262.486	n/a	PROB	131243	n/a	LTP236	ltpFR	12	n/a	n/a	n/a	n/a	n/a	n/a	n/a	12	5	2	5	n/a	n/a	n/a	n/a	n/a
263.586	n/a	PROB	131793	n/a	LTP236	ltpFR	12	n/a	n/a	n/a	n/a	n/a	n/a	n/a	17	6	8	3	n/a	n/a	n/a	n/a	n/a
264.706	n/a	PROB	132353	n/a	LTP236	ltpFR	12	n/a	n/a	n/a	n/a	n/a	n/a	n/a	16	7	2	7	n/a	n/a	n/a	n/a	n/a
265.862	n/a	PROB	132931	n/a	LTP236	ltpFR	12	n/a	n/a	n/a	n/a	n/a	n/a	n/a	14	7	4	3	n/a	n/a	n/a	n/a	n/a
267.112	n/a	STOP	133556	n/a	LTP236	ltpFR	12	n/a	n/a	n/a	n/a	n/a	n/a	n/a	n/a	n/a	n/a	n/a	n/a	n/a	n/a	n/a	n/a
287.816	n/a	START	143908	n/a	LTP236	ltpFR	12	n/a	n/a	n/a	n/a	n/a	n/a	n/a	n/a	n/a	n/a	n/a	n/a	n/a	n/a	n/a	n/a
289.322	n/a	PROB	144661	n/a	LTP236	ltpFR	12	n/a	n/a	n/a	n/a	n/a	n/a	n/a	17	9	2	6	n/a	n/a	n/a	n/a	n/a
291.346	n/a	PROB	145673	n/a	LTP236	ltpFR	12	n/a	n/a	n/a	n/a	n/a	n/a	n/a	19	5	8	6	n/a	n/a	n/a	n/a	n/a
292.584	n/a	PROB	146292	n/a	LTP236	ltpFR	12	n/a	n/a	n/a	n/a	n/a	n/a	n/a	14	5	2	7	n/a	n/a	n/a	n/a	n/a
293.94	n/a	PROB	146970	n/a	LTP236	ltpFR	12	n/a	n/a	n/a	n/a	n/a	n/a	n/a	19	3	8	8	n/a	n/a	n/a	n/a	n/a
294.946	n/a	STOP	147473	n/a	LTP236	ltpFR	12	n/a	n/a	n/a	n/a	n/a	n/a	n/a	n/a	n/a	n/a	n/a	n/a	n/a	n/a	n/a	n/a
296.68	n/a	WORD	148340	wordpools/wasnorm_wordpool_less_exclusions.txt	LTP236	ltpFR	12	1	0	INSECT	740	1	n/a	0	n/a	0	0	0	0.57763671875	0.412841796875	1	upper	amplitud.ttf
299.696	n/a	START	149848	n/a	LTP236	ltpFR	12	n/a	n/a	n/a	n/a	n/a	n/a	n/a	n/a	n/a	n/a	n/a	n/a	n/a	n/a	n/a	n/a
300.548	n/a	PROB	150274	n/a	LTP236	ltpFR	12	n/a	n/a	n/a	n/a	n/a	n/a	n/a	9	1	5	3	n/a	n/a	n/a	n/a	n/a
301.902	n/a	PROB	150951	n/a	LTP236	ltpFR	12	n/a	n/a	n/a	n/a	n/a	n/a	n/a	20	3	8	9	n/a	n/a	n/a	n/a	n/a
304.226	n/a	PROB	152113	n/a	LTP236	ltpFR	12	n/a	n/a	n/a	n/a	n/a	n/a	n/a	23	8	9	6	n/a	n/a	n/a	n/a	n/a
307.058	n/a	STOP	153529	n/a	LTP236	ltpFR	12	n/a	n/a	n/a	n/a	n/a	n/a	n/a	n/a	n/a	n/a	n/a	n/a	n/a	n/a	n/a	n/a
308.878	n/a	WORD	154439	wordpools/wasnorm_wordpool_less_exclusions.txt	LTP236	ltpFR	12	1	0	FORT	595	n/a	n/a	1	n/a	0	0	0	0.57763671875	0.412841796875	1	upper	amplitud.ttf
311.89	n/a	START	155945	n/a	LTP236	ltpFR	12	n/a	n/a	n/a	n/a	n/a	n/a	n/a	n/a	n/a	n/a	n/a	n/a	n/a	n/a	n/a	n/a
312.962	n/a	PROB	156481	n/a	LTP236	ltpFR	12	n/a	n/a	n/a	n/a	n/a	n/a	n/a	15	9	4	2	n/a	n/a	n/a	n/a	n/a
314.386	n/a	PROB	157193	n/a	LTP236	ltpFR	12	n/a	n/a	n/a	n/a	n/a	n/a	n/a	16	8	5	3	n/a	n/a	n/a	n/a	n/a
316.04	n/a	PROB	158020	n/a	LTP236	ltpFR	12	n/a	n/a	n/a	n/a	n/a	n/a	n/a	8	2	3	3	n/a	n/a	n/a	n/a	n/a
317.276	n/a	PROB	158638	n/a	LTP236	ltpFR	12	n/a	n/a	n/a	n/a	n/a	n/a	n/a	15	6	3	6	n/a	n/a	n/a	n/a	n/a
318.346	n/a	PROB	159173	n/a	LTP236	ltpFR	12	n/a	n/a	n/a	n/a	n/a	n/a	n/a	14	6	6	2	n/a	n/a	n/a	n/a	n/a
319.484	n/a	STOP	159742	n/a	LTP236	ltpFR	12	n/a	n/a	n/a	n/a	n/a	n/a	n/a	n/a	n/a	n/a	n/a	n/a	n/a	n/a	n/a	n/a
320.958	n/a	WORD	160479	wordpools/wasnorm_wordpool_less_exclusions.txt	LTP236	ltpFR	12	1	0	NEST	945	n/a	n/a	0	n/a	0	0	0	0.57763671875	0.412841796875	1	upper	amplitud.ttf
323.97	n/a	START	161985	n/a	LTP236	ltpFR	12	n/a	n/a	n/a	n/a	n/a	n/a	n/a	n/a	n/a	n/a	n/a	n/a	n/a	n/a	n/a	n/a
324.84	n/a	PROB	162420	n/a	LTP236	ltpFR	12	n/a	n/a	n/a	n/a	n/a	n/a	n/a	13	4	8	1	n/a	n/a	n/a	n/a	n/a
326.142	n/a	PROB	163071	n/a	LTP236	ltpFR	12	n/a	n/a	n/a	n/a	n/a	n/a	n/a	13	1	7	5	n/a	n/a	n/a	n/a	n/a
327.264	n/a	PROB	163632	n/a	LTP236	ltpFR	12	n/a	n/a	n/a	n/a	n/a	n/a	n/a	7	3	3	1	n/a	n/a	n/a	n/a	n/a
328.35	n/a	PROB	164175	n/a	LTP236	ltpFR	12	n/a	n/a	n/a	n/a	n/a	n/a	n/a	19	9	3	7	n/a	n/a	n/a	n/a	n/a
329.606	n/a	PROB	164803	n/a	LTP236	ltpFR	12	n/a	n/a	n/a	n/a	n/a	n/a	n/a	12	2	7	3	n/a	n/a	n/a	n/a	n/a
330.596	n/a	STOP	165298	n/a	LTP236	ltpFR	12	n/a	n/a	n/a	n/a	n/a	n/a	n/a	n/a	n/a	n/a	n/a	n/a	n/a	n/a	n/a	n/a
332.904	n/a	WORD	166452	wordpools/wasnorm_wordpool_less_exclusions.txt	LTP236	ltpFR	12	1	0	CARDINAL	244	n/a	n/a	1	n/a	0	0	0	0.57763671875	0.412841796875	1	upper	amplitud.ttf
335.916	n/a	START	167958	n/a	LTP236	ltpFR	12	n/a	n/a	n/a	n/a	n/a	n/a	n/a	n/a	n/a	n/a	n/a	n/a	n/a	n/a	n/a	n/a
337.034	n/a	PROB	168517	n/a	LTP236	ltpFR	12	n/a	n/a	n/a	n/a	n/a	n/a	n/a	8	2	5	1	n/a	n/a	n/a	n/a	n/a
338.238	n/a	PROB	169119	n/a	LTP236	ltpFR	12	n/a	n/a	n/a	n/a	n/a	n/a	n/a	14	3	4	7	n/a	n/a	n/a	n/a	n/a
339.948	n/a	PROB	169974	n/a	LTP236	ltpFR	12	n/a	n/a	n/a	n/a	n/a	n/a	n/a	21	5	8	8	n/a	n/a	n/a	n/a	n/a
341.368	n/a	PROB	170684	n/a	LTP236	ltpFR	12	n/a	n/a	n/a	n/a	n/a	n/a	n/a	14	3	6	5	n/a	n/a	n/a	n/a	n/a
342.428	n/a	STOP	171214	n/a	LTP236	ltpFR	12	n/a	n/a	n/a	n/a	n/a	n/a	n/a	n/a	n/a	n/a	n/a	n/a	n/a	n/a	n/a	n/a
344.766	n/a	WORD	172383	wordpools/wasnorm_wordpool_less_exclusions.txt	LTP236	ltpFR	12	1	0	MARINE	869	n/a	n/a	1	n/a	0	0	0	0.57763671875	0.412841796875	1	upper	amplitud.ttf
347.778	n/a	START	173889	n/a	LTP236	ltpFR	12	n/a	n/a	n/a	n/a	n/a	n/a	n/a	n/a	n/a	n/a	n/a	n/a	n/a	n/a	n/a	n/a
348.71	n/a	PROB	174355	n/a	LTP236	ltpFR	12	n/a	n/a	n/a	n/a	n/a	n/a	n/a	14	8	5	1	n/a	n/a	n/a	n/a	n/a
349.816	n/a	PROB	174908	n/a	LTP236	ltpFR	12	n/a	n/a	n/a	n/a	n/a	n/a	n/a	15	3	6	6	n/a	n/a	n/a	n/a	n/a
350.87	n/a	PROB	175435	n/a	LTP236	ltpFR	12	n/a	n/a	n/a	n/a	n/a	n/a	n/a	8	4	1	3	n/a	n/a	n/a	n/a	n/a
351.928	n/a	PROB	175964	n/a	LTP236	ltpFR	12	n/a	n/a	n/a	n/a	n/a	n/a	n/a	19	2	8	9	n/a	n/a	n/a	n/a	n/a
353.798	n/a	PROB	176899	n/a	LTP236	ltpFR	12	n/a	n/a	n/a	n/a	n/a	n/a	n/a	19	7	9	3	n/a	n/a	n/a	n/a	n/a
354.844	n/a	STOP	177422	n/a	LTP236	ltpFR	12	n/a	n/a	n/a	n/a	n/a	n/a	n/a	n/a	n/a	n/a	n/a	n/a	n/a	n/a	n/a	n/a
356.796	n/a	WORD	178398	wordpools/wasnorm_wordpool_less_exclusions.txt	LTP236	ltpFR	12	1	0	WARRIOR	1589	n/a	n/a	1	n/a	0	0	0	0.57763671875	0.412841796875	1	upper	amplitud.ttf
359.808	n/a	START	179904	n/a	LTP236	ltpFR	12	n/a	n/a	n/a	n/a	n/a	n/a	n/a	n/a	n/a	n/a	n/a	n/a	n/a	n/a	n/a	n/a
360.728	n/a	PROB	180364	n/a	LTP236	ltpFR	12	n/a	n/a	n/a	n/a	n/a	n/a	n/a	11	7	2	2	n/a	n/a	n/a	n/a	n/a
362.028	n/a	PROB	181014	n/a	LTP236	ltpFR	12	n/a	n/a	n/a	n/a	n/a	n/a	n/a	15	5	6	4	n/a	n/a	n/a	n/a	n/a
363.956	n/a	PROB	181978	n/a	LTP236	ltpFR	12	n/a	n/a	n/a	n/a	n/a	n/a	n/a	13	3	8	2	n/a	n/a	n/a	n/a	n/a
365.09	n/a	PROB	182545	n/a	LTP236	ltpFR	12	n/a	n/a	n/a	n/a	n/a	n/a	n/a	22	8	5	9	n/a	n/a	n/a	n/a	n/a
366.286	n/a	STOP	183143	n/a	LTP236	ltpFR	12	n/a	n/a	n/a	n/a	n/a	n/a	n/a	n/a	n/a	n/a	n/a	n/a	n/a	n/a	n/a	n/a
368.792	n/a	WORD	184396	wordpools/wasnorm_wordpool_less_exclusions.txt	LTP236	ltpFR	12	1	0	BOXER	160	n/a	n/a	1	n/a	0	0	0	0.57763671875	0.412841796875	1	upper	amplitud.ttf
371.804	n/a	START	185902	n/a	LTP236	ltpFR	12	n/a	n/a	n/a	n/a	n/a	n/a	n/a	n/a	n/a	n/a	n/a	n/a	n/a	n/a	n/a	n/a
372.706	n/a	PROB	186353	n/a	LTP236	ltpFR	12	n/a	n/a	n/a	n/a	n/a	n/a	n/a	9	4	1	4	n/a	n/a	n/a	n/a	n/a
374.16	n/a	PROB	187080	n/a	LTP236	ltpFR	12	n/a	n/a	n/a	n/a	n/a	n/a	n/a	18	5	8	5	n/a	n/a	n/a	n/a	n/a
375.248	n/a	PROB	187624	n/a	LTP236	ltpFR	12	n/a	n/a	n/a	n/a	n/a	n/a	n/a	8	1	1	6	n/a	n/a	n/a	n/a	n/a
376.322	n/a	PROB	188161	n/a	LTP236	ltpFR	12	n/a	n/a	n/a	n/a	n/a	n/a	n/a	11	1	9	1	n/a	n/a	n/a	n/a	n/a
377.438	n/a	PROB	188719	n/a	LTP236	ltpFR	12	n/a	n/a	n/a	n/a	n/a	n/a	n/a	9	1	5	3	n/a	n/a	n/a	n/a	n/a
378.582	n/a	STOP	189291	n/a	LTP236	ltpFR	12	n/a	n/a	n/a	n/a	n/a	n/a	n/a	n/a	n/a	n/a	n/a	n/a	n/a	n/a	n/a	n/a
380.686	n/a	WORD	190343	wordpools/wasnorm_wordpool_less_exclusions.txt	LTP236	ltpFR	12	1	0	SWATTER	1418	n/a	n/a	1	n/a	0	0	0	0.57763671875	0.412841796875	1	upper	amplitud.ttf
383.698	n/a	START	191849	n/a	LTP236	ltpFR	12	n/a	n/a	n/a	n/a	n/a	n/a	n/a	n/a	n/a	n/a	n/a	n/a	n/a	n/a	n/a	n/a
384.866	n/a	PROB	192433	n/a	LTP236	ltpFR	12	n/a	n/a	n/a	n/a	n/a	n/a	n/a	13	7	3	3	n/a	n/a	n/a	n/a	n/a
386.054	n/a	PROB	193027	n/a	LTP236	ltpFR	12	n/a	n/a	n/a	n/a	n/a	n/a	n/a	24	6	9	9	n/a	n/a	n/a	n/a	n/a
387.494	n/a	PROB	193747	n/a	LTP236	ltpFR	12	n/a	n/a	n/a	n/a	n/a	n/a	n/a	12	4	5	3	n/a	n/a	n/a	n/a	n/a
388.632	n/a	PROB	194316	n/a	LTP236	ltpFR	12	n/a	n/a	n/a	n/a	n/a	n/a	n/a	17	7	4	6	n/a	n/a	n/a	n/a	n/a
389.786	n/a	PROB	194893	n/a	LTP236	ltpFR	12	n/a	n/a	n/a	n/a	n/a	n/a	n/a	12	4	6	2	n/a	n/a	n/a	n/a	n/a
390.686	n/a	STOP	195343	n/a	LTP236	ltpFR	12	n/a	n/a	n/a	n/a	n/a	n/a	n/a	n/a	n/a	n/a	n/a	n/a	n/a	n/a	n/a	n/a
392.534	n/a	WORD	196267	wordpools/wasnorm_wordpool_less_exclusions.txt	LTP236	ltpFR	12	1	0	MAJOR	859	n/a	n/a	1	n/a	0	0	0	0.57763671875	0.412841796875	1	upper	amplitud.ttf
395.546	n/a	START	197773	n/a	LTP236	ltpFR	12	n/a	n/a	n/a	n/a	n/a	n/a	n/a	n/a	n/a	n/a	n/a	n/a	n/a	n/a	n/a	n/a
396.412	n/a	PROB	198206	n/a	LTP236	ltpFR	12	n/a	n/a	n/a	n/a	n/a	n/a	n/a	17	6	2	9	n/a	n/a	n/a	n/a	n/a
398.202	n/a	PROB	199101	n/a	LTP236	ltpFR	12	n/a	n/a	n/a	n/a	n/a	n/a	n/a	14	2	3	9	n/a	n/a	n/a	n/a	n/a
399.322	n/a	PROB	199661	n/a	LTP236	ltpFR	12	n/a	n/a	n/a	n/a	n/a	n/a	n/a	17	6	3	8	n/a	n/a	n/a	n/a	n/a
402.918	n/a	STOP	201459	n/a	LTP236	ltpFR	12	n/a	n/a	n/a	n/a	n/a	n/a	n/a	n/a	n/a	n/a	n/a	n/a	n/a	n/a	n/a	n/a
404.728	n/a	WORD	202364	wordpools/wasnorm_wordpool_less_exclusions.txt	LTP236	ltpFR	12	1	0	PAW	1029	n/a	n/a	0	n/a	0	0	0	0.57763671875	0.412841796875	1	upper	amplitud.ttf
407.742	n/a	START	203871	n/a	LTP236	ltpFR	12	n/a	n/a	n/a	n/a	n/a	n/a	n/a	n/a	n/a	n/a	n/a	n/a	n/a	n/a	n/a	n/a
408.728	n/a	PROB	204364	n/a	LTP236	ltpFR	12	n/a	n/a	n/a	n/a	n/a	n/a	n/a	20	5	6	9	n/a	n/a	n/a	n/a	n/a
410.482	n/a	PROB	205241	n/a	LTP236	ltpFR	12	n/a	n/a	n/a	n/a	n/a	n/a	n/a	17	9	7	1	n/a	n/a	n/a	n/a	n/a
411.57	n/a	PROB	205785	n/a	LTP236	ltpFR	12	n/a	n/a	n/a	n/a	n/a	n/a	n/a	11	7	3	1	n/a	n/a	n/a	n/a	n/a
412.522	n/a	PROB	206261	n/a	LTP236	ltpFR	12	n/a	n/a	n/a	n/a	n/a	n/a	n/a	14	5	2	7	n/a	n/a	n/a	n/a	n/a
413.594	n/a	PROB	206797	n/a	LTP236	ltpFR	12	n/a	n/a	n/a	n/a	n/a	n/a	n/a	8	2	3	3	n/a	n/a	n/a	n/a	n/a
414.552	n/a	STOP	207276	n/a	LTP236	ltpFR	12	n/a	n/a	n/a	n/a	n/a	n/a	n/a	n/a	n/a	n/a	n/a	n/a	n/a	n/a	n/a	n/a
416.674	n/a	WORD	208337	wordpools/wasnorm_wordpool_less_exclusions.txt	LTP236	ltpFR	12	1	0	DRESS	495	n/a	n/a	1	n/a	0	0	0	0.57763671875	0.412841796875	1	upper	amplitud.ttf
419.686	n/a	START	209843	n/a	LTP236	ltpFR	12	n/a	n/a	n/a	n/a	n/a	n/a	n/a	n/a	n/a	n/a	n/a	n/a	n/a	n/a	n/a	n/a
420.57	n/a	PROB	210285	n/a	LTP236	ltpFR	12	n/a	n/a	n/a	n/a	n/a	n/a	n/a	11	2	7	2	n/a	n/a	n/a	n/a	n/a
421.908	n/a	PROB	210954	n/a	LTP236	ltpFR	12	n/a	n/a	n/a	n/a	n/a	n/a	n/a	10	5	4	1	n/a	n/a	n/a	n/a	n/a
422.994	n/a	PROB	211497	n/a	LTP236	ltpFR	12	n/a	n/a	n/a	n/a	n/a	n/a	n/a	17	7	6	4	n/a	n/a	n/a	n/a	n/a
424.2	n/a	PROB	212100	n/a	LTP236	ltpFR	12	n/a	n/a	n/a	n/a	n/a	n/a	n/a	15	7	2	6	n/a	n/a	n/a	n/a	n/a
425.64	n/a	PROB	212820	n/a	LTP236	ltpFR	12	n/a	n/a	n/a	n/a	n/a	n/a	n/a	10	3	6	1	n/a	n/a	n/a	n/a	n/a
426.602	n/a	STOP	213301	n/a	LTP236	ltpFR	12	n/a	n/a	n/a	n/a	n/a	n/a	n/a	n/a	n/a	n/a	n/a	n/a	n/a	n/a	n/a	n/a
428.55	n/a	WORD	214275	wordpools/wasnorm_wordpool_less_exclusions.txt	LTP236	ltpFR	12	1	0	SHRIMP	1297	n/a	n/a	0	n/a	0	0	0	0.57763671875	0.412841796875	1	upper	amplitud.ttf
431.566	n/a	START	215783	n/a	LTP236	ltpFR	12	n/a	n/a	n/a	n/a	n/a	n/a	n/a	n/a	n/a	n/a	n/a	n/a	n/a	n/a	n/a	n/a
432.502	n/a	PROB	216251	n/a	LTP236	ltpFR	12	n/a	n/a	n/a	n/a	n/a	n/a	n/a	16	4	9	3	n/a	n/a	n/a	n/a	n/a
433.77	n/a	PROB	216885	n/a	LTP236	ltpFR	12	n/a	n/a	n/a	n/a	n/a	n/a	n/a	19	6	7	6	n/a	n/a	n/a	n/a	n/a
436.43	n/a	PROB	218215	n/a	LTP236	ltpFR	12	n/a	n/a	n/a	n/a	n/a	n/a	n/a	19	4	6	9	n/a	n/a	n/a	n/a	n/a
437.502	n/a	PROB	218751	n/a	LTP236	ltpFR	12	n/a	n/a	n/a	n/a	n/a	n/a	n/a	14	8	3	3	n/a	n/a	n/a	n/a	n/a
438.92	n/a	STOP	219460	n/a	LTP236	ltpFR	12	n/a	n/a	n/a	n/a	n/a	n/a	n/a	n/a	n/a	n/a	n/a	n/a	n/a	n/a	n/a	n/a
440.45	n/a	WORD	220225	wordpools/wasnorm_wordpool_less_exclusions.txt	LTP236	ltpFR	12	1	0	CREEK	404	n/a	n/a	1	n/a	0	0	0	0.57763671875	0.412841796875	1	upper	amplitud.ttf
443.462	n/a	START	221731	n/a	LTP236	ltpFR	12	n/a	n/a	n/a	n/a	n/a	n/a	n/a	n/a	n/a	n/a	n/a	n/a	n/a	n/a	n/a	n/a
444.648	n/a	PROB	222324	n/a	LTP236	ltpFR	12	n/a	n/a	n/a	n/a	n/a	n/a	n/a	9	2	5	2	n/a	n/a	n/a	n/a	n/a
445.934	n/a	PROB	222967	n/a	LTP236	ltpFR	12	n/a	n/a	n/a	n/a	n/a	n/a	n/a	18	9	2	7	n/a	n/a	n/a	n/a	n/a
447.074	n/a	PROB	223537	n/a	LTP236	ltpFR	12	n/a	n/a	n/a	n/a	n/a	n/a	n/a	12	1	8	3	n/a	n/a	n/a	n/a	n/a
448.142	n/a	PROB	224071	n/a	LTP236	ltpFR	12	n/a	n/a	n/a	n/a	n/a	n/a	n/a	17	4	3	8	n/a	n/a	n/a	n/a	n/a
449.65	n/a	PROB	224825	n/a	LTP236	ltpFR	12	n/a	n/a	n/a	n/a	n/a	n/a	n/a	16	8	2	6	n/a	n/a	n/a	n/a	n/a
451.338	n/a	STOP	225669	n/a	LTP236	ltpFR	12	n/a	n/a	n/a	n/a	n/a	n/a	n/a	n/a	n/a	n/a	n/a	n/a	n/a	n/a	n/a	n/a
452.346	n/a	WORD	226173	wordpools/wasnorm_wordpool_less_exclusions.txt	LTP236	ltpFR	12	1	0	MERMAID	887	n/a	n/a	1	n/a	0	0	0	0.57763671875	0.412841796875	1	upper	amplitud.ttf
455.358	n/a	START	227679	n/a	LTP236	ltpFR	12	n/a	n/a	n/a	n/a	n/a	n/a	n/a	n/a	n/a	n/a	n/a	n/a	n/a	n/a	n/a	n/a
456.49	n/a	PROB	228245	n/a	LTP236	ltpFR	12	n/a	n/a	n/a	n/a	n/a	n/a	n/a	14	4	2	8	n/a	n/a	n/a	n/a	n/a
458.548	n/a	PROB	229274	n/a	LTP236	ltpFR	12	n/a	n/a	n/a	n/a	n/a	n/a	n/a	10	2	6	2	n/a	n/a	n/a	n/a	n/a
459.686	n/a	PROB	229843	n/a	LTP236	ltpFR	12	n/a	n/a	n/a	n/a	n/a	n/a	n/a	22	9	5	8	n/a	n/a	n/a	n/a	n/a
460.99	n/a	PROB	230495	n/a	LTP236	ltpFR	12	n/a	n/a	n/a	n/a	n/a	n/a	n/a	14	5	7	2	n/a	n/a	n/a	n/a	n/a
461.97	n/a	STOP	230985	n/a	LTP236	ltpFR	12	n/a	n/a	n/a	n/a	n/a	n/a	n/a	n/a	n/a	n/a	n/a	n/a	n/a	n/a	n/a	n/a
464.238	n/a	WORD	232119	wordpools/wasnorm_wordpool_less_exclusions.txt	LTP236	ltpFR	12	1	0	SPACE	1345	n/a	n/a	1	n/a	0	0	0	0.57763671875	0.412841796875	1	upper	amplitud.ttf
467.254	n/a	START	233627	n/a	LTP236	ltpFR	12	n/a	n/a	n/a	n/a	n/a	n/a	n/a	n/a	n/a	n/a	n/a	n/a	n/a	n/a	n/a	n/a
468.274	n/a	PROB	234137	n/a	LTP236	ltpFR	12	n/a	n/a	n/a	n/a	n/a	n/a	n/a	13	2	7	3	n/a	n/a	n/a	n/a	n/a
469.524	n/a	PROB	234762	n/a	LTP236	ltpFR	12	n/a	n/a	n/a	n/a	n/a	n/a	n/a	13	3	1	9	n/a	n/a	n/a	n/a	n/a
472.086	n/a	PROB	236043	n/a	LTP236	ltpFR	12	n/a	n/a	n/a	n/a	n/a	n/a	n/a	18	8	7	3	n/a	n/a	n/a	n/a	n/a
473.208	n/a	PROB	236604	n/a	LTP236	ltpFR	12	n/a	n/a	n/a	n/a	n/a	n/a	n/a	17	3	5	9	n/a	n/a	n/a	n/a	n/a
474.62	n/a	STOP	237310	n/a	LTP236	ltpFR	12	n/a	n/a	n/a	n/a	n/a	n/a	n/a	n/a	n/a	n/a	n/a	n/a	n/a	n/a	n/a	n/a
476.438	n/a	WORD	238219	wordpools/wasnorm_wordpool_less_exclusions.txt	LTP236	ltpFR	12	1	0	WHALE	1601	n/a	n/a	1	n/a	0	0	0	0.57763671875	0.412841796875	1	upper	amplitud.ttf
479.45	n/a	START	239725	n/a	LTP236	ltpFR	12	n/a	n/a	n/a	n/a	n/a	n/a	n/a	n/a	n/a	n/a	n/a	n/a	n/a	n/a	n/a	n/a
480.386	n/a	PROB	240193	n/a	LTP236	ltpFR	12	n/a	n/a	n/a	n/a	n/a	n/a	n/a	15	3	6	6	n/a	n/a	n/a	n/a	n/a
483.894	n/a	PROB	241947	n/a	LTP236	ltpFR	12	n/a	n/a	n/a	n/a	n/a	n/a	n/a	21	7	6	8	n/a	n/a	n/a	n/a	n/a
485.302	n/a	PROB	242651	n/a	LTP236	ltpFR	12	n/a	n/a	n/a	n/a	n/a	n/a	n/a	15	2	9	4	n/a	n/a	n/a	n/a	n/a
486.892	n/a	STOP	243446	n/a	LTP236	ltpFR	12	n/a	n/a	n/a	n/a	n/a	n/a	n/a	n/a	n/a	n/a	n/a	n/a	n/a	n/a	n/a	n/a
489.372	n/a	REC_START	244686	n/a	LTP236	ltpFR	12	1	n/a	n/a	n/a	n/a	n/a	n/a	n/a	0	0	0	n/a	n/a	n/a	n/a	n/a
491.306	n/a	REC_WORD	245653	wordpools/wasnorm_wordpool_less_exclusions.txt	LTP236	ltpFR	12	1	0	CREEK	404	n/a	n/a	1	n/a	0	0	0	n/a	n/a	n/a	n/a	n/a
492.214	n/a	REC_WORD	246107	wordpools/wasnorm_wordpool_less_exclusions.txt	LTP236	ltpFR	12	1	0	WHALE	1601	n/a	n/a	1	n/a	0	0	0	n/a	n/a	n/a	n/a	n/a
493.162	n/a	REC_WORD	246581	wordpools/wasnorm_wordpool_less_exclusions.txt	LTP236	ltpFR	12	1	0	MERMAID	887	n/a	n/a	1	n/a	0	0	0	n/a	n/a	n/a	n/a	n/a
496.426	n/a	REC_WORD	248213	wordpools/wasnorm_wordpool_less_exclusions.txt	LTP236	ltpFR	12	1	0	INSECT	740	n/a	n/a	0	n/a	0	0	0	n/a	n/a	n/a	n/a	n/a
497.188	n/a	REC_WORD	248594	wordpools/wasnorm_wordpool_less_exclusions.txt	LTP236	ltpFR	12	1	0	FORT	595	n/a	n/a	1	n/a	0	0	0	n/a	n/a	n/a	n/a	n/a
498.196	n/a	REC_WORD	249098	wordpools/wasnorm_wordpool_less_exclusions.txt	LTP236	ltpFR	12	1	0	NEST	945	n/a	n/a	0	n/a	0	0	0	n/a	n/a	n/a	n/a	n/a
503.132	n/a	REC_WORD	251566	wordpools/wasnorm_wordpool_less_exclusions.txt	LTP236	ltpFR	12	1	0	MARINE	869	n/a	n/a	1	n/a	0	0	0	n/a	n/a	n/a	n/a	n/a
504.218	n/a	REC_WORD	252109	wordpools/wasnorm_wordpool_less_exclusions.txt	LTP236	ltpFR	12	1	0	WARRIOR	1589	n/a	n/a	1	n/a	0	0	0	n/a	n/a	n/a	n/a	n/a
505.052	n/a	REC_WORD	252526	wordpools/wasnorm_wordpool_less_exclusions.txt	LTP236	ltpFR	12	1	0	BOXER	160	n/a	n/a	1	n/a	0	0	0	n/a	n/a	n/a	n/a	n/a
519.39	n/a	REC_WORD	259695	wordpools/wasnorm_wordpool_less_exclusions.txt	LTP236	ltpFR	12	1	0	CARDINAL	244	n/a	n/a	1	n/a	0	0	0	n/a	n/a	n/a	n/a	n/a
567.686	n/a	WORD	283843	wordpools/wasnorm_wordpool_less_exclusions.txt	LTP236	ltpFR	12	2	0	COLESLAW	344	n/a	n/a	0	n/a	0	0	0	0.57763671875	0.412841796875	1	upper	amplitud.ttf
571.696	n/a	WORD	285848	wordpools/wasnorm_wordpool_less_exclusions.txt	LTP236	ltpFR	12	2	0	TURKEY	1520	n/a	n/a	0	n/a	0	0	0	0.57763671875	0.412841796875	1	upper	amplitud.ttf
575.896	n/a	WORD	287948	wordpools/wasnorm_wordpool_less_exclusions.txt	LTP236	ltpFR	12	2	0	BLACKBERRY	132	n/a	n/a	0	n/a	0	0	0	0.57763671875	0.412841796875	1	upper	amplitud.ttf
579.794	n/a	WORD	289897	wordpools/wasnorm_wordpool_less_exclusions.txt	LTP236	ltpFR	12	2	0	BADGE	68	n/a	n/a	0	n/a	0	0	0	0.57763671875	0.412841796875	1	upper	amplitud.ttf
583.948	n/a	WORD	291974	wordpools/wasnorm_wordpool_less_exclusions.txt	LTP236	ltpFR	12	2	1	DOG	480	n/a	n/a	1	n/a	0	0	0	0.422607421875	0.5869140625	0	lower	zerothre.ttf
588.062	n/a	WORD	294031	wordpools/wasnorm_wordpool_less_exclusions.txt	LTP236	ltpFR	12	2	1	FIREPLACE	570	n/a	n/a	0	n/a	0	0	0	0.422607421875	0.5869140625	0	lower	zerothre.ttf
591.994	n/a	WORD	295997	wordpools/wasnorm_wordpool_less_exclusions.txt	LTP236	ltpFR	12	2	1	CAFETERIA	217	n/a	n/a	0	n/a	0	0	0	0.422607421875	0.5869140625	0	lower	zerothre.ttf
595.888	n/a	WORD	297944	wordpools/wasnorm_wordpool_less_exclusions.txt	LTP236	ltpFR	12	2	1	KITTEN	780	n/a	n/a	1	n/a	0	0	0	0.422607421875	0.5869140625	0	lower	zerothre.ttf
600.022	n/a	WORD	300011	wordpools/wasnorm_wordpool_less_exclusions.txt	LTP236	ltpFR	12	2	0	SHACK	1273	n/a	n/a	1	n/a	0	0	0	0.57763671875	0.412841796875	1	upper	amplitud.ttf
603.99	n/a	WORD	301995	wordpools/wasnorm_wordpool_less_exclusions.txt	LTP236	ltpFR	12	2	0	PALM	1007	n/a	n/a	0	n/a	0	0	0	0.57763671875	0.412841796875	1	upper	amplitud.ttf
608.156	n/a	WORD	304078	wordpools/wasnorm_wordpool_less_exclusions.txt	LTP236	ltpFR	12	2	1	RUG	1215	n/a	n/a	0	n/a	0	0	0	0.422607421875	0.5869140625	0	lower	zerothre.ttf
612.322	n/a	WORD	306161	wordpools/wasnorm_wordpool_less_exclusions.txt	LTP236	ltpFR	12	2	1	MAT	877	n/a	n/a	0	n/a	0	0	0	0.422607421875	0.5869140625	0	lower	zerothre.ttf
616.188	n/a	WORD	308094	wordpools/wasnorm_wordpool_less_exclusions.txt	LTP236	ltpFR	12	2	1	SAUSAGE	1238	n/a	n/a	0	n/a	0	0	0	0.422607421875	0.5869140625	0	lower	zerothre.ttf
620.086	n/a	WORD	310043	wordpools/wasnorm_wordpool_less_exclusions.txt	LTP236	ltpFR	12	2	1	GARLIC	624	n/a	n/a	0	n/a	0	0	0	0.422607421875	0.5869140625	0	lower	zerothre.ttf
624.218	n/a	WORD	312109	wordpools/wasnorm_wordpool_less_exclusions.txt	LTP236	ltpFR	12	2	0	FOX	598	n/a	n/a	1	n/a	0	0	0	0.57763671875	0.412841796875	1	upper	amplitud.ttf
628.364	n/a	WORD	314182	wordpools/wasnorm_wordpool_less_exclusions.txt	LTP236	ltpFR	12	2	0	ANIMAL	23	n/a	n/a	1	n/a	0	0	0	0.57763671875	0.412841796875	1	upper	amplitud.ttf
631.38	n/a	START	315690	n/a	LTP236	ltpFR	12	n/a	n/a	n/a	n/a	n/a	n/a	n/a	n/a	n/a	n/a	n/a	n/a	n/a	n/a	n/a	n/a
632.316	n/a	PROB	316158	n/a	LTP236	ltpFR	12	n/a	n/a	n/a	n/a	n/a	n/a	n/a	10	3	2	5	n/a	n/a	n/a	n/a	n/a
634.004	n/a	PROB	317002	n/a	LTP236	ltpFR	12	n/a	n/a	n/a	n/a	n/a	n/a	n/a	27	9	9	9	n/a	n/a	n/a	n/a	n/a
635.708	n/a	PROB	317854	n/a	LTP236	ltpFR	12	n/a	n/a	n/a	n/a	n/a	n/a	n/a	9	5	1	3	n/a	n/a	n/a	n/a	n/a
636.732	n/a	PROB	318366	n/a	LTP236	ltpFR	12	n/a	n/a	n/a	n/a	n/a	n/a	n/a	13	1	7	5	n/a	n/a	n/a	n/a	n/a
638.06	n/a	STOP	319030	n/a	LTP236	ltpFR	12	n/a	n/a	n/a	n/a	n/a	n/a	n/a	n/a	n/a	n/a	n/a	n/a	n/a	n/a	n/a	n/a
641.302	n/a	REC_START	320651	n/a	LTP236	ltpFR	12	2	n/a	n/a	n/a	n/a	n/a	n/a	n/a	0	0	0	n/a	n/a	n/a	n/a	n/a
643.626	n/a	REC_WORD	321813	wordpools/wasnorm_wordpool_less_exclusions.txt	LTP236	ltpFR	12	2	0	ANIMAL	23	n/a	n/a	1	n/a	0	0	0	n/a	n/a	n/a	n/a	n/a
644.434	n/a	REC_WORD	322217	wordpools/wasnorm_wordpool_less_exclusions.txt	LTP236	ltpFR	12	2	0	FOX	598	n/a	n/a	1	n/a	0	0	0	n/a	n/a	n/a	n/a	n/a
645.232	n/a	REC_WORD	322616	wordpools/wasnorm_wordpool_less_exclusions.txt	LTP236	ltpFR	12	2	1	SAUSAGE	1238	n/a	n/a	0	n/a	0	0	0	n/a	n/a	n/a	n/a	n/a
646.056	n/a	REC_WORD	323028	wordpools/wasnorm_wordpool_less_exclusions.txt	LTP236	ltpFR	12	2	1	GARLIC	624	n/a	n/a	0	n/a	0	0	0	n/a	n/a	n/a	n/a	n/a
646.878	n/a	REC_WORD	323439	wordpools/wasnorm_wordpool_less_exclusions.txt	LTP236	ltpFR	12	2	1	MAT	877	n/a	n/a	0	n/a	0	0	0	n/a	n/a	n/a	n/a	n/a
647.796	n/a	REC_WORD	323898	wordpools/wasnorm_wordpool_less_exclusions.txt	LTP236	ltpFR	12	2	1	RUG	1215	n/a	n/a	0	n/a	0	0	0	n/a	n/a	n/a	n/a	n/a
651.962	n/a	REC_WORD	325981	wordpools/wasnorm_wordpool_less_exclusions.txt	LTP236	ltpFR	12	2	1	CAFETERIA	217	n/a	n/a	0	n/a	0	0	0	n/a	n/a	n/a	n/a	n/a
662.45	n/a	REC_WORD	331225	wordpools/wasnorm_wordpool_less_exclusions.txt	LTP236	ltpFR	12	2	0	BLACKBERRY	132	n/a	n/a	0	n/a	0	0	0	n/a	n/a	n/a	n/a	n/a
663.418	n/a	REC_WORD	331709	wordpools/wasnorm_wordpool_less_exclusions.txt	LTP236	ltpFR	12	2	0	TURKEY	1520	n/a	n/a	0	n/a	0	0	0	n/a	n/a	n/a	n/a	n/a
664.206	n/a	REC_WORD	332103	wordpools/wasnorm_wordpool_less_exclusions.txt	LTP236	ltpFR	12	2	0	COLESLAW	344	n/a	n/a	0	n/a	0	0	0	n/a	n/a	n/a	n/a	n/a
672.492	n/a	REC_WORD	336246	wordpools/wasnorm_wordpool_less_exclusions.txt	LTP236	ltpFR	12	2	1	DOG	480	n/a	n/a	1	n/a	0	0	0	n/a	n/a	n/a	n/a	n/a
673.34	n/a	REC_WORD	336670	wordpools/wasnorm_wordpool_less_exclusions.txt	LTP236	ltpFR	12	2	1	KITTEN	780	n/a	n/a	1	n/a	0	0	0	n/a	n/a	n/a	n/a	n/a
689.06	n/a	REC_WORD	344530	wordpools/wasnorm_wordpool_less_exclusions.txt	LTP236	ltpFR	12	2	1	FIREPLACE	570	n/a	n/a	0	n/a	0	0	0	n/a	n/a	n/a	n/a	n/a
690.06	n/a	REC_WORD_VV	345030	wordpools/wasnorm_wordpool_less_exclusions.txt	LTP236	ltpFR	12	2	n/a	<>	-1	n/a	n/a	n/a	n/a	0	0	0	n/a	n/a	n/a	n/a	n/a
704.356	n/a	REC_WORD	352178	wordpools/wasnorm_wordpool_less_exclusions.txt	LTP236	ltpFR	12	2	0	PALM	1007	n/a	n/a	0	n/a	0	0	0	n/a	n/a	n/a	n/a	n/a
720.47	n/a	WORD	360235	wordpools/wasnorm_wordpool_less_exclusions.txt	LTP236	ltpFR	12	3	1	VALLEY	1545	n/a	n/a	0	n/a	0	0	0	0.422607421875	0.5869140625	0	lower	zerothre.ttf
724.586	n/a	WORD	362293	wordpools/wasnorm_wordpool_less_exclusions.txt	LTP236	ltpFR	12	3	1	RAZOR	1171	n/a	n/a	0	n/a	0	0	0	0.422607421875	0.5869140625	0	lower	zerothre.ttf
728.666	n/a	WORD	364333	wordpools/wasnorm_wordpool_less_exclusions.txt	LTP236	ltpFR	12	3	1	SWIMMER	1420	n/a	n/a	1	n/a	0	0	0	0.422607421875	0.5869140625	0	lower	zerothre.ttf
732.55	n/a	WORD	366275	wordpools/wasnorm_wordpool_less_exclusions.txt	LTP236	ltpFR	12	3	0	CLIMBER	323	n/a	n/a	1	n/a	0	0	0	0.57763671875	0.412841796875	1	upper	amplitud.ttf
736.482	n/a	WORD	368241	wordpools/wasnorm_wordpool_less_exclusions.txt	LTP236	ltpFR	12	3	0	WAREHOUSE	1588	n/a	n/a	1	n/a	0	0	0	0.57763671875	0.412841796875	1	upper	amplitud.ttf
740.53	n/a	WORD	370265	wordpools/wasnorm_wordpool_less_exclusions.txt	LTP236	ltpFR	12	3	0	UMBRELLA	1534	n/a	n/a	0	n/a	0	0	0	0.57763671875	0.412841796875	1	upper	amplitud.ttf
744.494	n/a	WORD	372247	wordpools/wasnorm_wordpool_less_exclusions.txt	LTP236	ltpFR	12	3	0	ROBIN	1199	n/a	n/a	1	n/a	0	0	0	0.57763671875	0.412841796875	1	upper	amplitud.ttf
748.576	n/a	WORD	374288	wordpools/wasnorm_wordpool_less_exclusions.txt	LTP236	ltpFR	12	3	1	PENGUIN	1044	n/a	n/a	1	n/a	0	0	0	0.422607421875	0.5869140625	0	lower	zerothre.ttf
752.442	n/a	WORD	376221	wordpools/wasnorm_wordpool_less_exclusions.txt	LTP236	ltpFR	12	3	1	CELERY	266	n/a	n/a	0	n/a	0	0	0	0.422607421875	0.5869140625	0	lower	zerothre.ttf
756.32	n/a	WORD	378160	wordpools/wasnorm_wordpool_less_exclusions.txt	LTP236	ltpFR	12	3	0	CORN	381	n/a	n/a	0	n/a	0	0	0	0.57763671875	0.412841796875	1	upper	amplitud.ttf
760.356	n/a	WORD	380178	wordpools/wasnorm_wordpool_less_exclusions.txt	LTP236	ltpFR	12	3	0	TWISTER	1530	n/a	n/a	0	n/a	0	0	0	0.57763671875	0.412841796875	1	upper	amplitud.ttf
764.354	n/a	WORD	382177	wordpools/wasnorm_wordpool_less_exclusions.txt	LTP236	ltpFR	12	3	0	SNAKE	1333	n/a	n/a	0	n/a	0	0	0	0.57763671875	0.412841796875	1	upper	amplitud.ttf
768.202	n/a	WORD	384101	wordpools/wasnorm_wordpool_less_exclusions.txt	LTP236	ltpFR	12	3	0	MATCH	878	n/a	n/a	0	n/a	0	0	0	0.57763671875	0.412841796875	1	upper	amplitud.ttf
772.202	n/a	WORD	386101	wordpools/wasnorm_wordpool_less_exclusions.txt	LTP236	ltpFR	12	3	1	TUXEDO	1525	n/a	n/a	0	n/a	0	0	0	0.422607421875	0.5869140625	0	lower	zerothre.ttf
776.418	n/a	WORD	388209	wordpools/wasnorm_wordpool_less_exclusions.txt	LTP236	ltpFR	12	3	1	MINER	896	n/a	n/a	1	n/a	0	0	0	0.422607421875	0.5869140625	0	lower	zerothre.ttf
780.516	n/a	WORD	390258	wordpools/wasnorm_wordpool_less_exclusions.txt	LTP236	ltpFR	12	3	1	SEA	1259	n/a	n/a	0	n/a	0	0	0	0.422607421875	0.5869140625	0	lower	zerothre.ttf
783.528	n/a	START	391764	n/a	LTP236	ltpFR	12	n/a	n/a	n/a	n/a	n/a	n/a	n/a	n/a	n/a	n/a	n/a	n/a	n/a	n/a	n/a	n/a
784.344	n/a	PROB	392172	n/a	LTP236	ltpFR	12	n/a	n/a	n/a	n/a	n/a	n/a	n/a	19	5	9	5	n/a	n/a	n/a	n/a	n/a
786.852	n/a	PROB	393426	n/a	LTP236	ltpFR	12	n/a	n/a	n/a	n/a	n/a	n/a	n/a	18	8	3	7	n/a	n/a	n/a	n/a	n/a
787.974	n/a	PROB	393987	n/a	LTP236	ltpFR	12	n/a	n/a	n/a	n/a	n/a	n/a	n/a	15	3	4	8	n/a	n/a	n/a	n/a	n/a
789.718	n/a	PROB	394859	n/a	LTP236	ltpFR	12	n/a	n/a	n/a	n/a	n/a	n/a	n/a	7	3	1	3	n/a	n/a	n/a	n/a	n/a
791.22	n/a	PROB	395610	n/a	LTP236	ltpFR	12	n/a	n/a	n/a	n/a	n/a	n/a	n/a	10	5	2	3	n/a	n/a	n/a	n/a	n/a
792.462	n/a	PROB	396231	n/a	LTP236	ltpFR	12	n/a	n/a	n/a	n/a	n/a	n/a	n/a	16	6	1	9	n/a	n/a	n/a	n/a	n/a
793.916	n/a	PROB	396958	n/a	LTP236	ltpFR	12	n/a	n/a	n/a	n/a	n/a	n/a	n/a	8	2	5	1	n/a	n/a	n/a	n/a	n/a
794.916	n/a	PROB	397458	n/a	LTP236	ltpFR	12	n/a	n/a	n/a	n/a	n/a	n/a	n/a	19	9	2	8	n/a	n/a	n/a	n/a	n/a
796.038	n/a	PROB	398019	n/a	LTP236	ltpFR	12	n/a	n/a	n/a	n/a	n/a	n/a	n/a	13	5	5	3	n/a	n/a	n/a	n/a	n/a
797.028	n/a	PROB	398514	n/a	LTP236	ltpFR	12	n/a	n/a	n/a	n/a	n/a	n/a	n/a	20	7	7	6	n/a	n/a	n/a	n/a	n/a
798.244	n/a	STOP	399122	n/a	LTP236	ltpFR	12	n/a	n/a	n/a	n/a	n/a	n/a	n/a	n/a	n/a	n/a	n/a	n/a	n/a	n/a	n/a	n/a
801.33	n/a	REC_START	400665	n/a	LTP236	ltpFR	12	3	n/a	n/a	n/a	n/a	n/a	n/a	n/a	0	0	0	n/a	n/a	n/a	n/a	n/a
802.47	n/a	REC_WORD	401235	wordpools/wasnorm_wordpool_less_exclusions.txt	LTP236	ltpFR	12	3	1	SEA	1259	n/a	n/a	0	n/a	0	0	0	n/a	n/a	n/a	n/a	n/a
803.424	n/a	REC_WORD	401712	wordpools/wasnorm_wordpool_less_exclusions.txt	LTP236	ltpFR	12	3	1	SWIMMER	1420	n/a	n/a	1	n/a	0	0	0	n/a	n/a	n/a	n/a	n/a
804.482	n/a	REC_WORD	402241	wordpools/wasnorm_wordpool_less_exclusions.txt	LTP236	ltpFR	12	3	1	RAZOR	1171	n/a	n/a	0	n/a	0	0	0	n/a	n/a	n/a	n/a	n/a
805.444	n/a	REC_WORD	402722	wordpools/wasnorm_wordpool_less_exclusions.txt	LTP236	ltpFR	12	3	1	VALLEY	1545	n/a	n/a	0	n/a	0	0	0	n/a	n/a	n/a	n/a	n/a
810.294	n/a	REC_WORD	405147	wordpools/wasnorm_wordpool_less_exclusions.txt	LTP236	ltpFR	12	3	0	CLIMBER	323	n/a	n/a	1	n/a	0	0	0	n/a	n/a	n/a	n/a	n/a
811.19	n/a	REC_WORD	405595	wordpools/wasnorm_wordpool_less_exclusions.txt	LTP236	ltpFR	12	3	0	SHACK	1273	n/a	n/a	1	n/a	0	0	0	n/a	n/a	n/a	n/a	n/a
812.988	n/a	REC_WORD	406494	wordpools/wasnorm_wordpool_less_exclusions.txt	LTP236	ltpFR	12	3	0	MATCH	878	n/a	n/a	0	n/a	0	0	0	n/a	n/a	n/a	n/a	n/a
814.396	n/a	REC_WORD	407198	wordpools/wasnorm_wordpool_less_exclusions.txt	LTP236	ltpFR	12	3	0	UMBRELLA	1534	n/a	n/a	0	n/a	0	0	0	n/a	n/a	n/a	n/a	n/a
815.948	n/a	REC_WORD	407974	wordpools/wasnorm_wordpool_less_exclusions.txt	LTP236	ltpFR	12	3	1	PENGUIN	1044	n/a	n/a	1	n/a	0	0	0	n/a	n/a	n/a	n/a	n/a
816.89	n/a	REC_WORD	408445	wordpools/wasnorm_wordpool_less_exclusions.txt	LTP236	ltpFR	12	3	1	TUXEDO	1525	n/a	n/a	0	n/a	0	0	0	n/a	n/a	n/a	n/a	n/a
818.64	n/a	REC_WORD	409320	wordpools/wasnorm_wordpool_less_exclusions.txt	LTP236	ltpFR	12	3	0	SNAKE	1333	n/a	n/a	0	n/a	0	0	0	n/a	n/a	n/a	n/a	n/a
853.448	n/a	REC_WORD	426724	wordpools/wasnorm_wordpool_less_exclusions.txt	LTP236	ltpFR	12	3	1	MINER	896	n/a	n/a	1	n/a	0	0	0	n/a	n/a	n/a	n/a	n/a
879.76	n/a	WORD	439880	wordpools/wasnorm_wordpool_less_exclusions.txt	LTP236	ltpFR	12	4	1	EMPLOYEE	531	n/a	n/a	1	n/a	0	0	0	0.422607421875	0.5869140625	0	lower	zerothre.ttf
883.806	n/a	WORD	441903	wordpools/wasnorm_wordpool_less_exclusions.txt	LTP236	ltpFR	12	4	1	EMPLOYER	532	n/a	n/a	1	n/a	0	0	0	0.422607421875	0.5869140625	0	lower	zerothre.ttf
887.708	n/a	WORD	443854	wordpools/wasnorm_wordpool_less_exclusions.txt	LTP236	ltpFR	12	4	1	SWORD	1423	n/a	n/a	0	n/a	0	0	0	0.422607421875	0.5869140625	0	lower	zerothre.ttf
891.806	n/a	WORD	445903	wordpools/wasnorm_wordpool_less_exclusions.txt	LTP236	ltpFR	12	4	1	STEAM	1375	n/a	n/a	0	n/a	0	0	0	0.422607421875	0.5869140625	0	lower	zerothre.ttf
895.64	n/a	WORD	447820	wordpools/wasnorm_wordpool_less_exclusions.txt	LTP236	ltpFR	12	4	0	POT	1114	n/a	n/a	0	n/a	0	0	0	0.57763671875	0.412841796875	1	upper	amplitud.ttf
899.85	n/a	WORD	449925	wordpools/wasnorm_wordpool_less_exclusions.txt	LTP236	ltpFR	12	4	0	BEAR	106	n/a	n/a	1	n/a	0	0	0	0.57763671875	0.412841796875	1	upper	amplitud.ttf
903.686	n/a	WORD	451843	wordpools/wasnorm_wordpool_less_exclusions.txt	LTP236	ltpFR	12	4	0	REGISTER	1180	n/a	n/a	1	n/a	0	0	0	0.57763671875	0.412841796875	1	upper	amplitud.ttf
907.902	n/a	WORD	453951	wordpools/wasnorm_wordpool_less_exclusions.txt	LTP236	ltpFR	12	4	0	LUNG	850	n/a	n/a	1	n/a	0	0	0	0.57763671875	0.412841796875	1	upper	amplitud.ttf
911.968	n/a	WORD	455984	wordpools/wasnorm_wordpool_less_exclusions.txt	LTP236	ltpFR	12	4	1	BARN	89	n/a	n/a	0	n/a	0	0	0	0.422607421875	0.5869140625	0	lower	zerothre.ttf
915.832	n/a	WORD	457916	wordpools/wasnorm_wordpool_less_exclusions.txt	LTP236	ltpFR	12	4	1	CATTLE	261	n/a	n/a	1	n/a	0	0	0	0.422607421875	0.5869140625	0	lower	zerothre.ttf
919.664	n/a	WORD	459832	wordpools/wasnorm_wordpool_less_exclusions.txt	LTP236	ltpFR	12	4	1	JEWEL	757	n/a	n/a	0	n/a	0	0	0	0.422607421875	0.5869140625	0	lower	zerothre.ttf
923.58	n/a	WORD	461790	wordpools/wasnorm_wordpool_less_exclusions.txt	LTP236	ltpFR	12	4	1	HEEL	700	n/a	n/a	0	n/a	0	0	0	0.422607421875	0.5869140625	0	lower	zerothre.ttf
927.778	n/a	WORD	463889	wordpools/wasnorm_wordpool_less_exclusions.txt	LTP236	ltpFR	12	4	0	OZONE	996	n/a	n/a	1	n/a	0	0	0	0.57763671875	0.412841796875	1	upper	amplitud.ttf
931.81	n/a	WORD	465905	wordpools/wasnorm_wordpool_less_exclusions.txt	LTP236	ltpFR	12	4	0	SPOON	1357	n/a	n/a	0	n/a	0	0	0	0.57763671875	0.412841796875	1	upper	amplitud.ttf
935.774	n/a	WORD	467887	wordpools/wasnorm_wordpool_less_exclusions.txt	LTP236	ltpFR	12	4	0	DIAMOND	458	n/a	n/a	0	n/a	0	0	0	0.57763671875	0.412841796875	1	upper	amplitud.ttf
939.79	n/a	WORD	469895	wordpools/wasnorm_wordpool_less_exclusions.txt	LTP236	ltpFR	12	4	0	FRUIT	610	n/a	n/a	0	n/a	0	0	0	0.57763671875	0.412841796875	1	upper	amplitud.ttf
945.832	n/a	REC_START	472916	n/a	LTP236	ltpFR	12	4	n/a	n/a	n/a	n/a	n/a	n/a	n/a	0	0	0	n/a	n/a	n/a	n/a	n/a
947.208	n/a	REC_WORD	473604	wordpools/wasnorm_wordpool_less_exclusions.txt	LTP236	ltpFR	12	4	0	FRUIT	610	n/a	n/a	0	n/a	0	0	0	n/a	n/a	n/a	n/a	n/a
948.17	n/a	REC_WORD	474085	wordpools/wasnorm_wordpool_less_exclusions.txt	LTP236	ltpFR	12	4	0	DIAMOND	458	n/a	n/a	0	n/a	0	0	0	n/a	n/a	n/a	n/a	n/a
948.854	n/a	REC_WORD	474427	wordpools/wasnorm_wordpool_less_exclusions.txt	LTP236	ltpFR	12	4	1	JEWEL	757	n/a	n/a	0	n/a	0	0	0	n/a	n/a	n/a	n/a	n/a
949.532	n/a	REC_WORD	474766	wordpools/wasnorm_wordpool_less_exclusions.txt	LTP236	ltpFR	12	4	0	OZONE	996	n/a	n/a	1	n/a	0	0	0	n/a	n/a	n/a	n/a	n/a
950.206	n/a	REC_WORD	475103	wordpools/wasnorm_wordpool_less_exclusions.txt	LTP236	ltpFR	12	4	0	SPOON	1357	n/a	n/a	0	n/a	0	0	0	n/a	n/a	n/a	n/a	n/a
951.434	n/a	REC_WORD	475717	wordpools/wasnorm_wordpool_less_exclusions.txt	LTP236	ltpFR	12	4	1	HEEL	700	n/a	n/a	0	n/a	0	0	0	n/a	n/a	n/a	n/a	n/a
953.21	n/a	REC_WORD	476605	wordpools/wasnorm_wordpool_less_exclusions.txt	LTP236	ltpFR	12	4	1	BARN	89	n/a	n/a	0	n/a	0	0	0	n/a	n/a	n/a	n/a	n/a
953.982	n/a	REC_WORD	476991	wordpools/wasnorm_wordpool_less_exclusions.txt	LTP236	ltpFR	12	4	1	CATTLE	261	n/a	n/a	1	n/a	0	0	0	n/a	n/a	n/a	n/a	n/a
966.202	n/a	REC_WORD	483101	wordpools/wasnorm_wordpool_less_exclusions.txt	LTP236	ltpFR	12	4	1	EMPLOYER	532	n/a	n/a	1	n/a	0	0	0	n/a	n/a	n/a	n/a	n/a
967.084	n/a	REC_WORD	483542	wordpools/wasnorm_wordpool_less_exclusions.txt	LTP236	ltpFR	12	4	1	EMPLOYEE	531	n/a	n/a	1	n/a	0	0	0	n/a	n/a	n/a	n/a	n/a
968.61	n/a	REC_WORD	484305	wordpools/wasnorm_wordpool_less_exclusions.txt	LTP236	ltpFR	12	4	0	REGISTER	1180	n/a	n/a	1	n/a	0	0	0	n/a	n/a	n/a	n/a	n/a
970.576	n/a	REC_WORD	485288	wordpools/wasnorm_wordpool_less_exclusions.txt	LTP236	ltpFR	12	4	0	BEAR	106	n/a	n/a	1	n/a	0	0	0	n/a	n/a	n/a	n/a	n/a
977.084	n/a	REC_WORD_VV	488542	wordpools/wasnorm_wordpool_less_exclusions.txt	LTP236	ltpFR	12	4	n/a	<>	-1	n/a	n/a	n/a	n/a	0	0	0	n/a	n/a	n/a	n/a	n/a
979.616	n/a	REC_WORD	489808	wordpools/wasnorm_wordpool_less_exclusions.txt	LTP236	ltpFR	12	4	0	FRUIT	610	n/a	n/a	0	n/a	0	0	0	n/a	n/a	n/a	n/a	n/a
1022.926	n/a	START	511463	n/a	LTP236	ltpFR	12	n/a	n/a	n/a	n/a	n/a	n/a	n/a	n/a	n/a	n/a	n/a	n/a	n/a	n/a	n/a	n/a
1024.432	n/a	PROB	512216	n/a	LTP236	ltpFR	12	n/a	n/a	n/a	n/a	n/a	n/a	n/a	25	7	9	9	n/a	n/a	n/a	n/a	n/a
1026.522	n/a	PROB	513261	n/a	LTP236	ltpFR	12	n/a	n/a	n/a	n/a	n/a	n/a	n/a	16	6	5	5	n/a	n/a	n/a	n/a	n/a
1027.74	n/a	PROB	513870	n/a	LTP236	ltpFR	12	n/a	n/a	n/a	n/a	n/a	n/a	n/a	13	4	4	5	n/a	n/a	n/a	n/a	n/a
1028.826	n/a	PROB	514413	n/a	LTP236	ltpFR	12	n/a	n/a	n/a	n/a	n/a	n/a	n/a	14	3	8	3	n/a	n/a	n/a	n/a	n/a
1029.776	n/a	STOP	514888	n/a	LTP236	ltpFR	12	n/a	n/a	n/a	n/a	n/a	n/a	n/a	n/a	n/a	n/a	n/a	n/a	n/a	n/a	n/a	n/a
1032.106	n/a	WORD	516053	wordpools/wasnorm_wordpool_less_exclusions.txt	LTP236	ltpFR	12	5	0	CROWN	415	n/a	n/a	2	n/a	0	0	0	0.57763671875	0.412841796875	1	upper	amplitud.ttf
1034.47	n/a	KEY_MSG	517235	n/a	LTP236	ltpFR	12	5	n/a	n/a	n/a	n/a	n/a	n/a	n/a	0	0	0	n/a	n/a	n/a	n/a	n/a
1035.992	n/a	START	517996	n/a	LTP236	ltpFR	12	n/a	n/a	n/a	n/a	n/a	n/a	n/a	n/a	n/a	n/a	n/a	n/a	n/a	n/a	n/a	n/a
1037.008	n/a	PROB	518504	n/a	LTP236	ltpFR	12	n/a	n/a	n/a	n/a	n/a	n/a	n/a	15	3	8	4	n/a	n/a	n/a	n/a	n/a
1038.602	n/a	PROB	519301	n/a	LTP236	ltpFR	12	n/a	n/a	n/a	n/a	n/a	n/a	n/a	12	4	7	1	n/a	n/a	n/a	n/a	n/a
1039.686	n/a	PROB	519843	n/a	LTP236	ltpFR	12	n/a	n/a	n/a	n/a	n/a	n/a	n/a	19	8	8	3	n/a	n/a	n/a	n/a	n/a
1040.772	n/a	PROB	520386	n/a	LTP236	ltpFR	12	n/a	n/a	n/a	n/a	n/a	n/a	n/a	14	2	9	2	n/a	n/a	n/a	n/a	n/a
1043.992	n/a	STOP	521996	n/a	LTP236	ltpFR	12	n/a	n/a	n/a	n/a	n/a	n/a	n/a	n/a	n/a	n/a	n/a	n/a	n/a	n/a	n/a	n/a
1044.908	n/a	WORD	522454	wordpools/wasnorm_wordpool_less_exclusions.txt	LTP236	ltpFR	12	5	0	CHIPMUNK	304	n/a	n/a	0	n/a	0	0	0	0.57763671875	0.412841796875	1	upper	amplitud.ttf
1047.92	n/a	START	523960	n/a	LTP236	ltpFR	12	n/a	n/a	n/a	n/a	n/a	n/a	n/a	n/a	n/a	n/a	n/a	n/a	n/a	n/a	n/a	n/a
1049.024	n/a	PROB	524512	n/a	LTP236	ltpFR	12	n/a	n/a	n/a	n/a	n/a	n/a	n/a	7	1	1	5	n/a	n/a	n/a	n/a	n/a
1050.426	n/a	PROB	525213	n/a	LTP236	ltpFR	12	n/a	n/a	n/a	n/a	n/a	n/a	n/a	12	3	2	7	n/a	n/a	n/a	n/a	n/a
1051.764	n/a	PROB	525882	n/a	LTP236	ltpFR	12	n/a	n/a	n/a	n/a	n/a	n/a	n/a	19	6	8	5	n/a	n/a	n/a	n/a	n/a
1052.884	n/a	PROB	526442	n/a	LTP236	ltpFR	12	n/a	n/a	n/a	n/a	n/a	n/a	n/a	15	1	6	8	n/a	n/a	n/a	n/a	n/a
1054.09	n/a	PROB	527045	n/a	LTP236	ltpFR	12	n/a	n/a	n/a	n/a	n/a	n/a	n/a	19	5	8	6	n/a	n/a	n/a	n/a	n/a
1055.138	n/a	STOP	527569	n/a	LTP236	ltpFR	12	n/a	n/a	n/a	n/a	n/a	n/a	n/a	n/a	n/a	n/a	n/a	n/a	n/a	n/a	n/a	n/a
1056.834	n/a	WORD	528417	wordpools/wasnorm_wordpool_less_exclusions.txt	LTP236	ltpFR	12	5	0	FLIPPER	580	n/a	n/a	0	n/a	0	0	0	0.57763671875	0.412841796875	1	upper	amplitud.ttf
1059.85	n/a	START	529925	n/a	LTP236	ltpFR	12	n/a	n/a	n/a	n/a	n/a	n/a	n/a	n/a	n/a	n/a	n/a	n/a	n/a	n/a	n/a	n/a
1060.786	n/a	PROB	530393	n/a	LTP236	ltpFR	12	n/a	n/a	n/a	n/a	n/a	n/a	n/a	11	1	2	8	n/a	n/a	n/a	n/a	n/a
1062.108	n/a	PROB	531054	n/a	LTP236	ltpFR	12	n/a	n/a	n/a	n/a	n/a	n/a	n/a	10	1	5	4	n/a	n/a	n/a	n/a	n/a
1063.714	n/a	PROB	531857	n/a	LTP236	ltpFR	12	n/a	n/a	n/a	n/a	n/a	n/a	n/a	18	6	4	8	n/a	n/a	n/a	n/a	n/a
1066.006	n/a	PROB	533003	n/a	LTP236	ltpFR	12	n/a	n/a	n/a	n/a	n/a	n/a	n/a	10	1	6	3	n/a	n/a	n/a	n/a	n/a
1067.066	n/a	STOP	533533	n/a	LTP236	ltpFR	12	n/a	n/a	n/a	n/a	n/a	n/a	n/a	n/a	n/a	n/a	n/a	n/a	n/a	n/a	n/a	n/a
1069.068	n/a	WORD	534534	wordpools/wasnorm_wordpool_less_exclusions.txt	LTP236	ltpFR	12	5	0	SAUCER	1237	n/a	n/a	0	n/a	0	0	0	0.57763671875	0.412841796875	1	upper	amplitud.ttf
1072.08	n/a	START	536040	n/a	LTP236	ltpFR	12	n/a	n/a	n/a	n/a	n/a	n/a	n/a	n/a	n/a	n/a	n/a	n/a	n/a	n/a	n/a	n/a
1073.214	n/a	PROB	536607	n/a	LTP236	ltpFR	12	n/a	n/a	n/a	n/a	n/a	n/a	n/a	11	4	3	4	n/a	n/a	n/a	n/a	n/a
1074.904	n/a	PROB	537452	n/a	LTP236	ltpFR	12	n/a	n/a	n/a	n/a	n/a	n/a	n/a	13	7	1	5	n/a	n/a	n/a	n/a	n/a
1075.894	n/a	PROB	537947	n/a	LTP236	ltpFR	12	n/a	n/a	n/a	n/a	n/a	n/a	n/a	18	1	9	8	n/a	n/a	n/a	n/a	n/a
1077.028	n/a	PROB	538514	n/a	LTP236	ltpFR	12	n/a	n/a	n/a	n/a	n/a	n/a	n/a	12	9	1	2	n/a	n/a	n/a	n/a	n/a
1080.08	n/a	STOP	540040	n/a	LTP236	ltpFR	12	n/a	n/a	n/a	n/a	n/a	n/a	n/a	n/a	n/a	n/a	n/a	n/a	n/a	n/a	n/a	n/a
1081.244	n/a	WORD	540622	wordpools/wasnorm_wordpool_less_exclusions.txt	LTP236	ltpFR	12	5	0	ENGINE	535	n/a	n/a	0	n/a	0	0	0	0.57763671875	0.412841796875	1	upper	amplitud.ttf
1084.26	n/a	START	542130	n/a	LTP236	ltpFR	12	n/a	n/a	n/a	n/a	n/a	n/a	n/a	n/a	n/a	n/a	n/a	n/a	n/a	n/a	n/a	n/a
1085.398	n/a	PROB	542699	n/a	LTP236	ltpFR	12	n/a	n/a	n/a	n/a	n/a	n/a	n/a	19	4	9	6	n/a	n/a	n/a	n/a	n/a
1086.864	n/a	PROB	543432	n/a	LTP236	ltpFR	12	n/a	n/a	n/a	n/a	n/a	n/a	n/a	12	2	4	6	n/a	n/a	n/a	n/a	n/a
1087.99	n/a	PROB	543995	n/a	LTP236	ltpFR	12	n/a	n/a	n/a	n/a	n/a	n/a	n/a	13	4	8	1	n/a	n/a	n/a	n/a	n/a
1089.278	n/a	PROB	544639	n/a	LTP236	ltpFR	12	n/a	n/a	n/a	n/a	n/a	n/a	n/a	17	8	3	6	n/a	n/a	n/a	n/a	n/a
1090.462	n/a	PROB	545231	n/a	LTP236	ltpFR	12	n/a	n/a	n/a	n/a	n/a	n/a	n/a	18	7	9	2	n/a	n/a	n/a	n/a	n/a
1091.54	n/a	STOP	545770	n/a	LTP236	ltpFR	12	n/a	n/a	n/a	n/a	n/a	n/a	n/a	n/a	n/a	n/a	n/a	n/a	n/a	n/a	n/a	n/a
1093.362	n/a	WORD	546681	wordpools/wasnorm_wordpool_less_exclusions.txt	LTP236	ltpFR	12	5	0	GROUND	666	n/a	n/a	1	n/a	0	0	0	0.57763671875	0.412841796875	1	upper	amplitud.ttf
1096.374	n/a	START	548187	n/a	LTP236	ltpFR	12	n/a	n/a	n/a	n/a	n/a	n/a	n/a	n/a	n/a	n/a	n/a	n/a	n/a	n/a	n/a	n/a
1097.31	n/a	PROB	548655	n/a	LTP236	ltpFR	12	n/a	n/a	n/a	n/a	n/a	n/a	n/a	16	7	4	5	n/a	n/a	n/a	n/a	n/a
1098.56	n/a	PROB	549280	n/a	LTP236	ltpFR	12	n/a	n/a	n/a	n/a	n/a	n/a	n/a	9	1	2	6	n/a	n/a	n/a	n/a	n/a
1099.548	n/a	PROB	549774	n/a	LTP236	ltpFR	12	n/a	n/a	n/a	n/a	n/a	n/a	n/a	10	6	3	1	n/a	n/a	n/a	n/a	n/a
1100.618	n/a	PROB	550309	n/a	LTP236	ltpFR	12	n/a	n/a	n/a	n/a	n/a	n/a	n/a	15	6	7	2	n/a	n/a	n/a	n/a	n/a
1101.89	n/a	PROB	550945	n/a	LTP236	ltpFR	12	n/a	n/a	n/a	n/a	n/a	n/a	n/a	15	6	4	5	n/a	n/a	n/a	n/a	n/a
1102.846	n/a	PROB	551423	n/a	LTP236	ltpFR	12	n/a	n/a	n/a	n/a	n/a	n/a	n/a	19	2	9	8	n/a	n/a	n/a	n/a	n/a
1103.908	n/a	STOP	551954	n/a	LTP236	ltpFR	12	n/a	n/a	n/a	n/a	n/a	n/a	n/a	n/a	n/a	n/a	n/a	n/a	n/a	n/a	n/a	n/a
1105.29	n/a	WORD	552645	wordpools/wasnorm_wordpool_less_exclusions.txt	LTP236	ltpFR	12	5	0	KITCHEN	778	n/a	n/a	1	n/a	0	0	0	0.57763671875	0.412841796875	1	upper	amplitud.ttf
1108.302	n/a	START	554151	n/a	LTP236	ltpFR	12	n/a	n/a	n/a	n/a	n/a	n/a	n/a	n/a	n/a	n/a	n/a	n/a	n/a	n/a	n/a	n/a
1109.256	n/a	PROB	554628	n/a	LTP236	ltpFR	12	n/a	n/a	n/a	n/a	n/a	n/a	n/a	16	3	5	8	n/a	n/a	n/a	n/a	n/a
1110.54	n/a	PROB	555270	n/a	LTP236	ltpFR	12	n/a	n/a	n/a	n/a	n/a	n/a	n/a	12	8	2	2	n/a	n/a	n/a	n/a	n/a
1111.832	n/a	PROB	555916	n/a	LTP236	ltpFR	12	n/a	n/a	n/a	n/a	n/a	n/a	n/a	23	7	8	8	n/a	n/a	n/a	n/a	n/a
1113.586	n/a	PROB	556793	n/a	LTP236	ltpFR	12	n/a	n/a	n/a	n/a	n/a	n/a	n/a	15	1	8	6	n/a	n/a	n/a	n/a	n/a
1114.622	n/a	PROB	557311	n/a	LTP236	ltpFR	12	n/a	n/a	n/a	n/a	n/a	n/a	n/a	12	1	4	7	n/a	n/a	n/a	n/a	n/a
1115.748	n/a	STOP	557874	n/a	LTP236	ltpFR	12	n/a	n/a	n/a	n/a	n/a	n/a	n/a	n/a	n/a	n/a	n/a	n/a	n/a	n/a	n/a	n/a
1117.236	n/a	WORD	558618	wordpools/wasnorm_wordpool_less_exclusions.txt	LTP236	ltpFR	12	5	0	BLUEBERRY	140	n/a	n/a	0	n/a	0	0	0	0.57763671875	0.412841796875	1	upper	amplitud.ttf
1120.248	n/a	START	560124	n/a	LTP236	ltpFR	12	n/a	n/a	n/a	n/a	n/a	n/a	n/a	n/a	n/a	n/a	n/a	n/a	n/a	n/a	n/a	n/a
1121.116	n/a	PROB	560558	n/a	LTP236	ltpFR	12	n/a	n/a	n/a	n/a	n/a	n/a	n/a	18	4	8	6	n/a	n/a	n/a	n/a	n/a
1123.12	n/a	PROB	561560	n/a	LTP236	ltpFR	12	n/a	n/a	n/a	n/a	n/a	n/a	n/a	14	4	1	9	n/a	n/a	n/a	n/a	n/a
1125.38	n/a	PROB	562690	n/a	LTP236	ltpFR	12	n/a	n/a	n/a	n/a	n/a	n/a	n/a	19	6	4	9	n/a	n/a	n/a	n/a	n/a
1126.384	n/a	PROB	563192	n/a	LTP236	ltpFR	12	n/a	n/a	n/a	n/a	n/a	n/a	n/a	19	8	4	7	n/a	n/a	n/a	n/a	n/a
1127.59	n/a	STOP	563795	n/a	LTP236	ltpFR	12	n/a	n/a	n/a	n/a	n/a	n/a	n/a	n/a	n/a	n/a	n/a	n/a	n/a	n/a	n/a	n/a
1129.382	n/a	WORD	564691	wordpools/wasnorm_wordpool_less_exclusions.txt	LTP236	ltpFR	12	5	0	BERRY	122	n/a	n/a	0	n/a	0	0	0	0.57763671875	0.412841796875	1	upper	amplitud.ttf
1132.394	n/a	START	566197	n/a	LTP236	ltpFR	12	n/a	n/a	n/a	n/a	n/a	n/a	n/a	n/a	n/a	n/a	n/a	n/a	n/a	n/a	n/a	n/a
1133.382	n/a	PROB	566691	n/a	LTP236	ltpFR	12	n/a	n/a	n/a	n/a	n/a	n/a	n/a	15	5	1	9	n/a	n/a	n/a	n/a	n/a
1135.032	n/a	PROB	567516	n/a	LTP236	ltpFR	12	n/a	n/a	n/a	n/a	n/a	n/a	n/a	15	1	5	9	n/a	n/a	n/a	n/a	n/a
1137.108	n/a	PROB	568554	n/a	LTP236	ltpFR	12	n/a	n/a	n/a	n/a	n/a	n/a	n/a	12	6	4	2	n/a	n/a	n/a	n/a	n/a
1138.048	n/a	PROB	569024	n/a	LTP236	ltpFR	12	n/a	n/a	n/a	n/a	n/a	n/a	n/a	17	9	7	1	n/a	n/a	n/a	n/a	n/a
1139.046	n/a	STOP	569523	n/a	LTP236	ltpFR	12	n/a	n/a	n/a	n/a	n/a	n/a	n/a	n/a	n/a	n/a	n/a	n/a	n/a	n/a	n/a	n/a
1141.528	n/a	WORD	570764	wordpools/wasnorm_wordpool_less_exclusions.txt	LTP236	ltpFR	12	5	0	DWARF	510	n/a	n/a	1	n/a	0	0	0	0.57763671875	0.412841796875	1	upper	amplitud.ttf
1144.54	n/a	START	572270	n/a	LTP236	ltpFR	12	n/a	n/a	n/a	n/a	n/a	n/a	n/a	n/a	n/a	n/a	n/a	n/a	n/a	n/a	n/a	n/a
1145.372	n/a	PROB	572686	n/a	LTP236	ltpFR	12	n/a	n/a	n/a	n/a	n/a	n/a	n/a	21	4	9	8	n/a	n/a	n/a	n/a	n/a
1147.196	n/a	PROB	573598	n/a	LTP236	ltpFR	12	n/a	n/a	n/a	n/a	n/a	n/a	n/a	19	4	6	9	n/a	n/a	n/a	n/a	n/a
1148.722	n/a	PROB	574361	n/a	LTP236	ltpFR	12	n/a	n/a	n/a	n/a	n/a	n/a	n/a	12	5	1	6	n/a	n/a	n/a	n/a	n/a
1149.74	n/a	PROB	574870	n/a	LTP236	ltpFR	12	n/a	n/a	n/a	n/a	n/a	n/a	n/a	14	3	2	9	n/a	n/a	n/a	n/a	n/a
1150.93	n/a	PROB	575465	n/a	LTP236	ltpFR	12	n/a	n/a	n/a	n/a	n/a	n/a	n/a	3	1	1	1	n/a	n/a	n/a	n/a	n/a
1151.886	n/a	STOP	575943	n/a	LTP236	ltpFR	12	n/a	n/a	n/a	n/a	n/a	n/a	n/a	n/a	n/a	n/a	n/a	n/a	n/a	n/a	n/a	n/a
1153.672	n/a	WORD	576836	wordpools/wasnorm_wordpool_less_exclusions.txt	LTP236	ltpFR	12	5	0	FEAST	556	n/a	n/a	1	n/a	0	0	0	0.57763671875	0.412841796875	1	upper	amplitud.ttf
1156.686	n/a	START	578343	n/a	LTP236	ltpFR	12	n/a	n/a	n/a	n/a	n/a	n/a	n/a	n/a	n/a	n/a	n/a	n/a	n/a	n/a	n/a	n/a
1157.57	n/a	PROB	578785	n/a	LTP236	ltpFR	12	n/a	n/a	n/a	n/a	n/a	n/a	n/a	17	5	9	3	n/a	n/a	n/a	n/a	n/a
1159.124	n/a	PROB	579562	n/a	LTP236	ltpFR	12	n/a	n/a	n/a	n/a	n/a	n/a	n/a	7	2	2	3	n/a	n/a	n/a	n/a	n/a
1160.178	n/a	PROB	580089	n/a	LTP236	ltpFR	12	n/a	n/a	n/a	n/a	n/a	n/a	n/a	13	6	1	6	n/a	n/a	n/a	n/a	n/a
1161.636	n/a	PROB	580818	n/a	LTP236	ltpFR	12	n/a	n/a	n/a	n/a	n/a	n/a	n/a	15	9	4	2	n/a	n/a	n/a	n/a	n/a
1162.772	n/a	PROB	581386	n/a	LTP236	ltpFR	12	n/a	n/a	n/a	n/a	n/a	n/a	n/a	11	8	1	2	n/a	n/a	n/a	n/a	n/a
1164.142	n/a	STOP	582071	n/a	LTP236	ltpFR	12	n/a	n/a	n/a	n/a	n/a	n/a	n/a	n/a	n/a	n/a	n/a	n/a	n/a	n/a	n/a	n/a
1165.62	n/a	WORD	582810	wordpools/wasnorm_wordpool_less_exclusions.txt	LTP236	ltpFR	12	5	0	KING	777	n/a	n/a	1	n/a	0	0	0	0.57763671875	0.412841796875	1	upper	amplitud.ttf
1168.634	n/a	START	584317	n/a	LTP236	ltpFR	12	n/a	n/a	n/a	n/a	n/a	n/a	n/a	n/a	n/a	n/a	n/a	n/a	n/a	n/a	n/a	n/a
1169.67	n/a	PROB	584835	n/a	LTP236	ltpFR	12	n/a	n/a	n/a	n/a	n/a	n/a	n/a	12	8	1	3	n/a	n/a	n/a	n/a	n/a
1170.936	n/a	PROB	585468	n/a	LTP236	ltpFR	12	n/a	n/a	n/a	n/a	n/a	n/a	n/a	18	4	8	6	n/a	n/a	n/a	n/a	n/a
1172.058	n/a	PROB	586029	n/a	LTP236	ltpFR	12	n/a	n/a	n/a	n/a	n/a	n/a	n/a	12	3	6	3	n/a	n/a	n/a	n/a	n/a
1173.066	n/a	PROB	586533	n/a	LTP236	ltpFR	12	n/a	n/a	n/a	n/a	n/a	n/a	n/a	15	8	6	1	n/a	n/a	n/a	n/a	n/a
1174.132	n/a	PROB	587066	n/a	LTP236	ltpFR	12	n/a	n/a	n/a	n/a	n/a	n/a	n/a	9	2	1	6	n/a	n/a	n/a	n/a	n/a
1176.608	n/a	STOP	588304	n/a	LTP236	ltpFR	12	n/a	n/a	n/a	n/a	n/a	n/a	n/a	n/a	n/a	n/a	n/a	n/a	n/a	n/a	n/a	n/a
1177.8	n/a	WORD	588900	wordpools/wasnorm_wordpool_less_exclusions.txt	LTP236	ltpFR	12	5	0	WHISTLE	1606	n/a	n/a	0	n/a	0	0	0	0.57763671875	0.412841796875	1	upper	amplitud.ttf
1180.812	n/a	START	590406	n/a	LTP236	ltpFR	12	n/a	n/a	n/a	n/a	n/a	n/a	n/a	n/a	n/a	n/a	n/a	n/a	n/a	n/a	n/a	n/a
1181.998	n/a	PROB	590999	n/a	LTP236	ltpFR	12	n/a	n/a	n/a	n/a	n/a	n/a	n/a	13	1	3	9	n/a	n/a	n/a	n/a	n/a
1183.456	n/a	PROB	591728	n/a	LTP236	ltpFR	12	n/a	n/a	n/a	n/a	n/a	n/a	n/a	17	6	4	7	n/a	n/a	n/a	n/a	n/a
1184.756	n/a	PROB	592378	n/a	LTP236	ltpFR	12	n/a	n/a	n/a	n/a	n/a	n/a	n/a	14	3	9	2	n/a	n/a	n/a	n/a	n/a
1186.484	n/a	PROB	593242	n/a	LTP236	ltpFR	12	n/a	n/a	n/a	n/a	n/a	n/a	n/a	23	9	8	6	n/a	n/a	n/a	n/a	n/a
1187.992	n/a	STOP	593996	n/a	LTP236	ltpFR	12	n/a	n/a	n/a	n/a	n/a	n/a	n/a	n/a	n/a	n/a	n/a	n/a	n/a	n/a	n/a	n/a
1189.692	n/a	WORD	594846	wordpools/wasnorm_wordpool_less_exclusions.txt	LTP236	ltpFR	12	5	0	VIKING	1565	n/a	n/a	1	n/a	0	0	0	0.57763671875	0.412841796875	1	upper	amplitud.ttf
1192.708	n/a	START	596354	n/a	LTP236	ltpFR	12	n/a	n/a	n/a	n/a	n/a	n/a	n/a	n/a	n/a	n/a	n/a	n/a	n/a	n/a	n/a	n/a
1193.578	n/a	PROB	596789	n/a	LTP236	ltpFR	12	n/a	n/a	n/a	n/a	n/a	n/a	n/a	16	9	6	1	n/a	n/a	n/a	n/a	n/a
1195.132	n/a	PROB	597566	n/a	LTP236	ltpFR	12	n/a	n/a	n/a	n/a	n/a	n/a	n/a	18	7	2	9	n/a	n/a	n/a	n/a	n/a
1198.158	n/a	PROB	599079	n/a	LTP236	ltpFR	12	n/a	n/a	n/a	n/a	n/a	n/a	n/a	18	9	4	5	n/a	n/a	n/a	n/a	n/a
1199.226	n/a	STOP	599613	n/a	LTP236	ltpFR	12	n/a	n/a	n/a	n/a	n/a	n/a	n/a	n/a	n/a	n/a	n/a	n/a	n/a	n/a	n/a	n/a
1201.824	n/a	WORD	600912	wordpools/wasnorm_wordpool_less_exclusions.txt	LTP236	ltpFR	12	5	0	RIB	1188	n/a	n/a	0	n/a	0	0	0	0.57763671875	0.412841796875	1	upper	amplitud.ttf
1204.836	n/a	START	602418	n/a	LTP236	ltpFR	12	n/a	n/a	n/a	n/a	n/a	n/a	n/a	n/a	n/a	n/a	n/a	n/a	n/a	n/a	n/a	n/a
1205.854	n/a	PROB	602927	n/a	LTP236	ltpFR	12	n/a	n/a	n/a	n/a	n/a	n/a	n/a	15	4	9	2	n/a	n/a	n/a	n/a	n/a
1207.378	n/a	PROB	603689	n/a	LTP236	ltpFR	12	n/a	n/a	n/a	n/a	n/a	n/a	n/a	12	4	4	4	n/a	n/a	n/a	n/a	n/a
1209.738	n/a	PROB	604869	n/a	LTP236	ltpFR	12	n/a	n/a	n/a	n/a	n/a	n/a	n/a	8	4	3	1	n/a	n/a	n/a	n/a	n/a
1210.776	n/a	PROB	605388	n/a	LTP236	ltpFR	12	n/a	n/a	n/a	n/a	n/a	n/a	n/a	12	3	1	8	n/a	n/a	n/a	n/a	n/a
1212.026	n/a	STOP	606013	n/a	LTP236	ltpFR	12	n/a	n/a	n/a	n/a	n/a	n/a	n/a	n/a	n/a	n/a	n/a	n/a	n/a	n/a	n/a	n/a
1213.672	n/a	WORD	606836	wordpools/wasnorm_wordpool_less_exclusions.txt	LTP236	ltpFR	12	5	0	DINER	467	n/a	n/a	1	n/a	0	0	0	0.57763671875	0.412841796875	1	upper	amplitud.ttf
1216.682	n/a	START	608341	n/a	LTP236	ltpFR	12	n/a	n/a	n/a	n/a	n/a	n/a	n/a	n/a	n/a	n/a	n/a	n/a	n/a	n/a	n/a	n/a
1217.82	n/a	PROB	608910	n/a	LTP236	ltpFR	12	n/a	n/a	n/a	n/a	n/a	n/a	n/a	15	6	6	3	n/a	n/a	n/a	n/a	n/a
1219.12	n/a	PROB	609560	n/a	LTP236	ltpFR	12	n/a	n/a	n/a	n/a	n/a	n/a	n/a	16	3	9	4	n/a	n/a	n/a	n/a	n/a
1220.426	n/a	PROB	610213	n/a	LTP236	ltpFR	12	n/a	n/a	n/a	n/a	n/a	n/a	n/a	17	9	3	5	n/a	n/a	n/a	n/a	n/a
1222.404	n/a	PROB	611202	n/a	LTP236	ltpFR	12	n/a	n/a	n/a	n/a	n/a	n/a	n/a	19	4	7	8	n/a	n/a	n/a	n/a	n/a
1223.786	n/a	STOP	611893	n/a	LTP236	ltpFR	12	n/a	n/a	n/a	n/a	n/a	n/a	n/a	n/a	n/a	n/a	n/a	n/a	n/a	n/a	n/a	n/a
1226.606	n/a	REC_START	613303	n/a	LTP236	ltpFR	12	5	n/a	n/a	n/a	n/a	n/a	n/a	n/a	0	0	0	n/a	n/a	n/a	n/a	n/a
1228.212	n/a	REC_WORD	614106	wordpools/wasnorm_wordpool_less_exclusions.txt	LTP236	ltpFR	12	5	0	RIB	1188	n/a	n/a	0	n/a	0	0	0	n/a	n/a	n/a	n/a	n/a
1228.866	n/a	REC_WORD	614433	wordpools/wasnorm_wordpool_less_exclusions.txt	LTP236	ltpFR	12	5	0	FEAST	556	n/a	n/a	1	n/a	0	0	0	n/a	n/a	n/a	n/a	n/a
1229.734	n/a	REC_WORD	614867	wordpools/wasnorm_wordpool_less_exclusions.txt	LTP236	ltpFR	12	5	0	DINER	467	n/a	n/a	1	n/a	0	0	0	n/a	n/a	n/a	n/a	n/a
1230.352	n/a	REC_WORD	615176	wordpools/wasnorm_wordpool_less_exclusions.txt	LTP236	ltpFR	12	5	0	VIKING	1565	n/a	n/a	1	n/a	0	0	0	n/a	n/a	n/a	n/a	n/a
1232.292	n/a	REC_WORD	616146	wordpools/wasnorm_wordpool_less_exclusions.txt	LTP236	ltpFR	12	5	0	WHISTLE	1606	n/a	n/a	0	n/a	0	0	0	n/a	n/a	n/a	n/a	n/a
1233.04	n/a	REC_WORD	616520	wordpools/wasnorm_wordpool_less_exclusions.txt	LTP236	ltpFR	12	5	0	KING	777	n/a	n/a	1	n/a	0	0	0	n/a	n/a	n/a	n/a	n/a
1234.686	n/a	REC_WORD	617343	wordpools/wasnorm_wordpool_less_exclusions.txt	LTP236	ltpFR	12	5	0	DWARF	510	n/a	n/a	1	n/a	0	0	0	n/a	n/a	n/a	n/a	n/a
1236.922	n/a	REC_WORD	618461	wordpools/wasnorm_wordpool_less_exclusions.txt	LTP236	ltpFR	12	5	0	SAUCER	1237	n/a	n/a	0	n/a	0	0	0	n/a	n/a	n/a	n/a	n/a
1281.672	n/a	REC_WORD	640836	wordpools/wasnorm_wordpool_less_exclusions.txt	LTP236	ltpFR	12	5	0	BERRY	122	n/a	n/a	0	n/a	0	0	0	n/a	n/a	n/a	n/a	n/a
1286.118	n/a	REC_WORD	643059	wordpools/wasnorm_wordpool_less_exclusions.txt	LTP236	ltpFR	12	5	0	BLUEBERRY	140	n/a	n/a	0	n/a	0	0	0	n/a	n/a	n/a	n/a	n/a
1305.154	n/a	WORD	652577	wordpools/wasnorm_wordpool_less_exclusions.txt	LTP236	ltpFR	12	6	1	BARLEY	88	n/a	n/a	0	n/a	0	0	0	0.422607421875	0.5869140625	0	lower	zerothre.ttf
1308.984	n/a	WORD	654492	wordpools/wasnorm_wordpool_less_exclusions.txt	LTP236	ltpFR	12	6	1	FLOWER	584	n/a	n/a	0	n/a	0	0	0	0.422607421875	0.5869140625	0	lower	zerothre.ttf
1312.932	n/a	WORD	656466	wordpools/wasnorm_wordpool_less_exclusions.txt	LTP236	ltpFR	12	6	0	KEYBOARD	774	n/a	n/a	1	n/a	0	0	0	0.57763671875	0.412841796875	1	upper	amplitud.ttf
1316.88	n/a	WORD	658440	wordpools/wasnorm_wordpool_less_exclusions.txt	LTP236	ltpFR	12	6	0	STEREO	1378	n/a	n/a	1	n/a	0	0	0	0.57763671875	0.412841796875	1	upper	amplitud.ttf
1320.93	n/a	WORD	660465	wordpools/wasnorm_wordpool_less_exclusions.txt	LTP236	ltpFR	12	6	0	LIVER	833	n/a	n/a	1	n/a	0	0	0	0.57763671875	0.412841796875	1	upper	amplitud.ttf
1325.112	n/a	WORD	662556	wordpools/wasnorm_wordpool_less_exclusions.txt	LTP236	ltpFR	12	6	0	DIME	466	n/a	n/a	0	n/a	0	0	0	0.57763671875	0.412841796875	1	upper	amplitud.ttf
1329.028	n/a	WORD	664514	wordpools/wasnorm_wordpool_less_exclusions.txt	LTP236	ltpFR	12	6	1	SHED	1277	n/a	n/a	0	n/a	0	0	0	0.422607421875	0.5869140625	0	lower	zerothre.ttf
1333.176	n/a	WORD	666588	wordpools/wasnorm_wordpool_less_exclusions.txt	LTP236	ltpFR	12	6	1	BRUNETTE	181	n/a	n/a	1	n/a	0	0	0	0.422607421875	0.5869140625	0	lower	zerothre.ttf
1337.108	n/a	WORD	668554	wordpools/wasnorm_wordpool_less_exclusions.txt	LTP236	ltpFR	12	6	1	CUSTOMER	430	n/a	n/a	1	n/a	0	0	0	0.422607421875	0.5869140625	0	lower	zerothre.ttf
1341.158	n/a	WORD	670579	wordpools/wasnorm_wordpool_less_exclusions.txt	LTP236	ltpFR	12	6	0	CACTUS	215	n/a	n/a	1	n/a	0	0	0	0.57763671875	0.412841796875	1	upper	amplitud.ttf
1345.102	n/a	WORD	672551	wordpools/wasnorm_wordpool_less_exclusions.txt	LTP236	ltpFR	12	6	0	SUPERMARKET	1409	n/a	n/a	1	n/a	0	0	0	0.57763671875	0.412841796875	1	upper	amplitud.ttf
1349.1	n/a	WORD	674550	wordpools/wasnorm_wordpool_less_exclusions.txt	LTP236	ltpFR	12	6	0	CABLE	213	n/a	n/a	0	n/a	0	0	0	0.57763671875	0.412841796875	1	upper	amplitud.ttf
1353.12	n/a	WORD	676560	wordpools/wasnorm_wordpool_less_exclusions.txt	LTP236	ltpFR	12	6	0	BAIT	70	n/a	n/a	0	n/a	0	0	0	0.57763671875	0.412841796875	1	upper	amplitud.ttf
1357.184	n/a	WORD	678592	wordpools/wasnorm_wordpool_less_exclusions.txt	LTP236	ltpFR	12	6	1	FISH	571	n/a	n/a	0	n/a	0	0	0	0.422607421875	0.5869140625	0	lower	zerothre.ttf
1361.37	n/a	WORD	680685	wordpools/wasnorm_wordpool_less_exclusions.txt	LTP236	ltpFR	12	6	1	QUARTER	1148	n/a	n/a	0	n/a	0	0	0	0.422607421875	0.5869140625	0	lower	zerothre.ttf
1365.43	n/a	WORD	682715	wordpools/wasnorm_wordpool_less_exclusions.txt	LTP236	ltpFR	12	6	1	OWL	992	n/a	n/a	1	n/a	0	0	0	0.422607421875	0.5869140625	0	lower	zerothre.ttf
1368.446	n/a	START	684223	n/a	LTP236	ltpFR	12	n/a	n/a	n/a	n/a	n/a	n/a	n/a	n/a	n/a	n/a	n/a	n/a	n/a	n/a	n/a	n/a
1369.566	n/a	PROB	684783	n/a	LTP236	ltpFR	12	n/a	n/a	n/a	n/a	n/a	n/a	n/a	17	7	2	8	n/a	n/a	n/a	n/a	n/a
1372.478	n/a	PROB	686239	n/a	LTP236	ltpFR	12	n/a	n/a	n/a	n/a	n/a	n/a	n/a	15	6	4	5	n/a	n/a	n/a	n/a	n/a
1373.512	n/a	PROB	686756	n/a	LTP236	ltpFR	12	n/a	n/a	n/a	n/a	n/a	n/a	n/a	13	3	6	4	n/a	n/a	n/a	n/a	n/a
1374.598	n/a	PROB	687299	n/a	LTP236	ltpFR	12	n/a	n/a	n/a	n/a	n/a	n/a	n/a	19	9	9	1	n/a	n/a	n/a	n/a	n/a
1375.714	n/a	STOP	687857	n/a	LTP236	ltpFR	12	n/a	n/a	n/a	n/a	n/a	n/a	n/a	n/a	n/a	n/a	n/a	n/a	n/a	n/a	n/a	n/a
1378.318	n/a	REC_START	689159	n/a	LTP236	ltpFR	12	6	n/a	n/a	n/a	n/a	n/a	n/a	n/a	0	0	0	n/a	n/a	n/a	n/a	n/a
1379.6	n/a	REC_WORD	689800	wordpools/wasnorm_wordpool_less_exclusions.txt	LTP236	ltpFR	12	6	1	QUARTER	1148	n/a	n/a	0	n/a	0	0	0	n/a	n/a	n/a	n/a	n/a
1380.568	n/a	REC_WORD	690284	wordpools/wasnorm_wordpool_less_exclusions.txt	LTP236	ltpFR	12	6	0	BAIT	70	n/a	n/a	0	n/a	0	0	0	n/a	n/a	n/a	n/a	n/a
1381.25	n/a	REC_WORD	690625	wordpools/wasnorm_wordpool_less_exclusions.txt	LTP236	ltpFR	12	6	1	FISH	571	n/a	n/a	0	n/a	0	0	0	n/a	n/a	n/a	n/a	n/a
1382.198	n/a	REC_WORD	691099	wordpools/wasnorm_wordpool_less_exclusions.txt	LTP236	ltpFR	12	6	1	OWL	992	n/a	n/a	1	n/a	0	0	0	n/a	n/a	n/a	n/a	n/a
1383.854	n/a	REC_WORD	691927	wordpools/wasnorm_wordpool_less_exclusions.txt	LTP236	ltpFR	12	6	0	DIME	466	n/a	n/a	0	n/a	0	0	0	n/a	n/a	n/a	n/a	n/a
1387.106	n/a	REC_WORD	693553	wordpools/wasnorm_wordpool_less_exclusions.txt	LTP236	ltpFR	12	6	0	SUPERMARKET	1409	n/a	n/a	1	n/a	0	0	0	n/a	n/a	n/a	n/a	n/a
1388.106	n/a	REC_WORD_VV	694053	wordpools/wasnorm_wordpool_less_exclusions.txt	LTP236	ltpFR	12	6	n/a	<>	-1	n/a	n/a	n/a	n/a	0	0	0	n/a	n/a	n/a	n/a	n/a
1390.23	n/a	REC_WORD	695115	wordpools/wasnorm_wordpool_less_exclusions.txt	LTP236	ltpFR	12	6	1	BRUNETTE	181	n/a	n/a	1	n/a	0	0	0	n/a	n/a	n/a	n/a	n/a
1398.114	n/a	REC_WORD	699057	wordpools/wasnorm_wordpool_less_exclusions.txt	LTP236	ltpFR	12	6	0	CACTUS	215	n/a	n/a	1	n/a	0	0	0	n/a	n/a	n/a	n/a	n/a
1409.278	n/a	REC_WORD	704639	wordpools/wasnorm_wordpool_less_exclusions.txt	LTP236	ltpFR	12	6	0	KEYBOARD	774	n/a	n/a	1	n/a	0	0	0	n/a	n/a	n/a	n/a	n/a
1413.722	n/a	REC_WORD	706861	wordpools/wasnorm_wordpool_less_exclusions.txt	LTP236	ltpFR	12	6	1	BARLEY	88	n/a	n/a	0	n/a	0	0	0	n/a	n/a	n/a	n/a	n/a
1414.36	n/a	REC_WORD	707180	wordpools/wasnorm_wordpool_less_exclusions.txt	LTP236	ltpFR	12	6	1	FLOWER	584	n/a	n/a	0	n/a	0	0	0	n/a	n/a	n/a	n/a	n/a
1455.06	n/a	START	727530	n/a	LTP236	ltpFR	12	n/a	n/a	n/a	n/a	n/a	n/a	n/a	n/a	n/a	n/a	n/a	n/a	n/a	n/a	n/a	n/a
1456.566	n/a	PROB	728283	n/a	LTP236	ltpFR	12	n/a	n/a	n/a	n/a	n/a	n/a	n/a	10	4	5	1	n/a	n/a	n/a	n/a	n/a
1458.268	n/a	PROB	729134	n/a	LTP236	ltpFR	12	n/a	n/a	n/a	n/a	n/a	n/a	n/a	12	5	5	2	n/a	n/a	n/a	n/a	n/a
1459.406	n/a	PROB	729703	n/a	LTP236	ltpFR	12	n/a	n/a	n/a	n/a	n/a	n/a	n/a	11	2	1	8	n/a	n/a	n/a	n/a	n/a
1460.51	n/a	PROB	730255	n/a	LTP236	ltpFR	12	n/a	n/a	n/a	n/a	n/a	n/a	n/a	19	7	7	5	n/a	n/a	n/a	n/a	n/a
1461.748	n/a	PROB	730874	n/a	LTP236	ltpFR	12	n/a	n/a	n/a	n/a	n/a	n/a	n/a	20	5	6	9	n/a	n/a	n/a	n/a	n/a
1463.052	n/a	PROB	731526	n/a	LTP236	ltpFR	12	n/a	n/a	n/a	n/a	n/a	n/a	n/a	13	1	6	6	n/a	n/a	n/a	n/a	n/a
1465.746	n/a	PROB	732873	n/a	LTP236	ltpFR	12	n/a	n/a	n/a	n/a	n/a	n/a	n/a	16	5	3	8	n/a	n/a	n/a	n/a	n/a
1466.866	n/a	PROB	733433	n/a	LTP236	ltpFR	12	n/a	n/a	n/a	n/a	n/a	n/a	n/a	9	1	4	4	n/a	n/a	n/a	n/a	n/a
1468.26	n/a	PROB	734130	n/a	LTP236	ltpFR	12	n/a	n/a	n/a	n/a	n/a	n/a	n/a	16	1	6	9	n/a	n/a	n/a	n/a	n/a
1469.504	n/a	STOP	734752	n/a	LTP236	ltpFR	12	n/a	n/a	n/a	n/a	n/a	n/a	n/a	n/a	n/a	n/a	n/a	n/a	n/a	n/a	n/a	n/a
1472.006	n/a	WORD	736003	wordpools/wasnorm_wordpool_less_exclusions.txt	LTP236	ltpFR	12	7	0	PLUM	1090	n/a	n/a	0	n/a	0	0	0	0.57763671875	0.412841796875	1	upper	amplitud.ttf
1475.02	n/a	START	737510	n/a	LTP236	ltpFR	12	n/a	n/a	n/a	n/a	n/a	n/a	n/a	n/a	n/a	n/a	n/a	n/a	n/a	n/a	n/a	n/a
1476.056	n/a	PROB	738028	n/a	LTP236	ltpFR	12	n/a	n/a	n/a	n/a	n/a	n/a	n/a	16	5	8	3	n/a	n/a	n/a	n/a	n/a
1477.746	n/a	PROB	738873	n/a	LTP236	ltpFR	12	n/a	n/a	n/a	n/a	n/a	n/a	n/a	16	6	5	5	n/a	n/a	n/a	n/a	n/a
1478.9	n/a	PROB	739450	n/a	LTP236	ltpFR	12	n/a	n/a	n/a	n/a	n/a	n/a	n/a	15	5	2	8	n/a	n/a	n/a	n/a	n/a
1480.374	n/a	PROB	740187	n/a	LTP236	ltpFR	12	n/a	n/a	n/a	n/a	n/a	n/a	n/a	15	4	6	5	n/a	n/a	n/a	n/a	n/a
1481.44	n/a	PROB	740720	n/a	LTP236	ltpFR	12	n/a	n/a	n/a	n/a	n/a	n/a	n/a	11	4	3	4	n/a	n/a	n/a	n/a	n/a
1482.578	n/a	PROB	741289	n/a	LTP236	ltpFR	12	n/a	n/a	n/a	n/a	n/a	n/a	n/a	22	8	5	9	n/a	n/a	n/a	n/a	n/a
1483.898	n/a	PROB	741949	n/a	LTP236	ltpFR	12	n/a	n/a	n/a	n/a	n/a	n/a	n/a	10	3	5	2	n/a	n/a	n/a	n/a	n/a
1485.002	n/a	PROB	742501	n/a	LTP236	ltpFR	12	n/a	n/a	n/a	n/a	n/a	n/a	n/a	12	5	2	5	n/a	n/a	n/a	n/a	n/a
1486.526	n/a	PROB	743263	n/a	LTP236	ltpFR	12	n/a	n/a	n/a	n/a	n/a	n/a	n/a	19	8	9	2	n/a	n/a	n/a	n/a	n/a
1488.384	n/a	PROB	744192	n/a	LTP236	ltpFR	12	n/a	n/a	n/a	n/a	n/a	n/a	n/a	17	6	4	7	n/a	n/a	n/a	n/a	n/a
1490.384	n/a	STOP	745192	n/a	LTP236	ltpFR	12	n/a	n/a	n/a	n/a	n/a	n/a	n/a	n/a	n/a	n/a	n/a	n/a	n/a	n/a	n/a	n/a
1492.182	n/a	WORD	746091	wordpools/wasnorm_wordpool_less_exclusions.txt	LTP236	ltpFR	12	7	0	TURTLE	1522	n/a	n/a	0	n/a	0	0	0	0.57763671875	0.412841796875	1	upper	amplitud.ttf
1495.196	n/a	START	747598	n/a	LTP236	ltpFR	12	n/a	n/a	n/a	n/a	n/a	n/a	n/a	n/a	n/a	n/a	n/a	n/a	n/a	n/a	n/a	n/a
1496.23	n/a	PROB	748115	n/a	LTP236	ltpFR	12	n/a	n/a	n/a	n/a	n/a	n/a	n/a	8	3	1	4	n/a	n/a	n/a	n/a	n/a
1497.568	n/a	PROB	748784	n/a	LTP236	ltpFR	12	n/a	n/a	n/a	n/a	n/a	n/a	n/a	16	6	1	9	n/a	n/a	n/a	n/a	n/a
1498.924	n/a	PROB	749462	n/a	LTP236	ltpFR	12	n/a	n/a	n/a	n/a	n/a	n/a	n/a	14	3	4	7	n/a	n/a	n/a	n/a	n/a
1500.648	n/a	PROB	750324	n/a	LTP236	ltpFR	12	n/a	n/a	n/a	n/a	n/a	n/a	n/a	13	3	4	6	n/a	n/a	n/a	n/a	n/a
1502.22	n/a	PROB	751110	n/a	LTP236	ltpFR	12	n/a	n/a	n/a	n/a	n/a	n/a	n/a	22	7	7	8	n/a	n/a	n/a	n/a	n/a
1503.574	n/a	PROB	751787	n/a	LTP236	ltpFR	12	n/a	n/a	n/a	n/a	n/a	n/a	n/a	17	3	9	5	n/a	n/a	n/a	n/a	n/a
1505.15	n/a	PROB	752575	n/a	LTP236	ltpFR	12	n/a	n/a	n/a	n/a	n/a	n/a	n/a	8	1	1	6	n/a	n/a	n/a	n/a	n/a
1506.286	n/a	PROB	753143	n/a	LTP236	ltpFR	12	n/a	n/a	n/a	n/a	n/a	n/a	n/a	13	5	5	3	n/a	n/a	n/a	n/a	n/a
1507.306	n/a	PROB	753653	n/a	LTP236	ltpFR	12	n/a	n/a	n/a	n/a	n/a	n/a	n/a	8	6	1	1	n/a	n/a	n/a	n/a	n/a
1508.23	n/a	PROB	754115	n/a	LTP236	ltpFR	12	n/a	n/a	n/a	n/a	n/a	n/a	n/a	16	2	8	6	n/a	n/a	n/a	n/a	n/a
1509.35	n/a	PROB	754675	n/a	LTP236	ltpFR	12	n/a	n/a	n/a	n/a	n/a	n/a	n/a	12	2	3	7	n/a	n/a	n/a	n/a	n/a
1510.722	n/a	STOP	755361	n/a	LTP236	ltpFR	12	n/a	n/a	n/a	n/a	n/a	n/a	n/a	n/a	n/a	n/a	n/a	n/a	n/a	n/a	n/a	n/a
1512.362	n/a	WORD	756181	wordpools/wasnorm_wordpool_less_exclusions.txt	LTP236	ltpFR	12	7	1	BRAKE	166	n/a	n/a	0	n/a	0	0	0	0.422607421875	0.5869140625	0	lower	zerothre.ttf
1515.374	n/a	START	757687	n/a	LTP236	ltpFR	12	n/a	n/a	n/a	n/a	n/a	n/a	n/a	n/a	n/a	n/a	n/a	n/a	n/a	n/a	n/a	n/a
1516.24	n/a	PROB	758120	n/a	LTP236	ltpFR	12	n/a	n/a	n/a	n/a	n/a	n/a	n/a	16	4	8	4	n/a	n/a	n/a	n/a	n/a
1517.528	n/a	PROB	758764	n/a	LTP236	ltpFR	12	n/a	n/a	n/a	n/a	n/a	n/a	n/a	14	9	1	4	n/a	n/a	n/a	n/a	n/a
1518.932	n/a	PROB	759466	n/a	LTP236	ltpFR	12	n/a	n/a	n/a	n/a	n/a	n/a	n/a	21	7	8	6	n/a	n/a	n/a	n/a	n/a
1520.31	n/a	PROB	760155	n/a	LTP236	ltpFR	12	n/a	n/a	n/a	n/a	n/a	n/a	n/a	12	7	2	3	n/a	n/a	n/a	n/a	n/a
1521.998	n/a	PROB	760999	n/a	LTP236	ltpFR	12	n/a	n/a	n/a	n/a	n/a	n/a	n/a	12	3	6	3	n/a	n/a	n/a	n/a	n/a
1523.068	n/a	PROB	761534	n/a	LTP236	ltpFR	12	n/a	n/a	n/a	n/a	n/a	n/a	n/a	19	7	4	8	n/a	n/a	n/a	n/a	n/a
1524.27	n/a	PROB	762135	n/a	LTP236	ltpFR	12	n/a	n/a	n/a	n/a	n/a	n/a	n/a	8	2	3	3	n/a	n/a	n/a	n/a	n/a
1525.88	n/a	PROB	762940	n/a	LTP236	ltpFR	12	n/a	n/a	n/a	n/a	n/a	n/a	n/a	19	6	7	6	n/a	n/a	n/a	n/a	n/a
1527.096	n/a	PROB	763548	n/a	LTP236	ltpFR	12	n/a	n/a	n/a	n/a	n/a	n/a	n/a	7	2	1	4	n/a	n/a	n/a	n/a	n/a
1528.204	n/a	PROB	764102	n/a	LTP236	ltpFR	12	n/a	n/a	n/a	n/a	n/a	n/a	n/a	17	5	5	7	n/a	n/a	n/a	n/a	n/a
1529.824	n/a	PROB	764912	n/a	LTP236	ltpFR	12	n/a	n/a	n/a	n/a	n/a	n/a	n/a	16	2	8	6	n/a	n/a	n/a	n/a	n/a
1530.818	n/a	STOP	765409	n/a	LTP236	ltpFR	12	n/a	n/a	n/a	n/a	n/a	n/a	n/a	n/a	n/a	n/a	n/a	n/a	n/a	n/a	n/a	n/a
1532.238	n/a	WORD	766119	wordpools/wasnorm_wordpool_less_exclusions.txt	LTP236	ltpFR	12	7	1	JEEP	753	n/a	n/a	1	n/a	0	0	0	0.422607421875	0.5869140625	0	lower	zerothre.ttf
1535.25	n/a	START	767625	n/a	LTP236	ltpFR	12	n/a	n/a	n/a	n/a	n/a	n/a	n/a	n/a	n/a	n/a	n/a	n/a	n/a	n/a	n/a	n/a
1536.434	n/a	PROB	768217	n/a	LTP236	ltpFR	12	n/a	n/a	n/a	n/a	n/a	n/a	n/a	7	2	3	2	n/a	n/a	n/a	n/a	n/a
1537.754	n/a	PROB	768877	n/a	LTP236	ltpFR	12	n/a	n/a	n/a	n/a	n/a	n/a	n/a	12	9	1	2	n/a	n/a	n/a	n/a	n/a
1538.758	n/a	PROB	769379	n/a	LTP236	ltpFR	12	n/a	n/a	n/a	n/a	n/a	n/a	n/a	9	4	3	2	n/a	n/a	n/a	n/a	n/a
1539.862	n/a	PROB	769931	n/a	LTP236	ltpFR	12	n/a	n/a	n/a	n/a	n/a	n/a	n/a	10	1	1	8	n/a	n/a	n/a	n/a	n/a
1540.984	n/a	PROB	770492	n/a	LTP236	ltpFR	12	n/a	n/a	n/a	n/a	n/a	n/a	n/a	18	7	5	6	n/a	n/a	n/a	n/a	n/a
1542.678	n/a	PROB	771339	n/a	LTP236	ltpFR	12	n/a	n/a	n/a	n/a	n/a	n/a	n/a	19	8	4	7	n/a	n/a	n/a	n/a	n/a
1545.936	n/a	PROB	772968	n/a	LTP236	ltpFR	12	n/a	n/a	n/a	n/a	n/a	n/a	n/a	15	8	1	6	n/a	n/a	n/a	n/a	n/a
1547.358	n/a	PROB	773679	n/a	LTP236	ltpFR	12	n/a	n/a	n/a	n/a	n/a	n/a	n/a	12	6	5	1	n/a	n/a	n/a	n/a	n/a
1548.464	n/a	PROB	774232	n/a	LTP236	ltpFR	12	n/a	n/a	n/a	n/a	n/a	n/a	n/a	17	6	7	4	n/a	n/a	n/a	n/a	n/a
1551.252	n/a	STOP	775626	n/a	LTP236	ltpFR	12	n/a	n/a	n/a	n/a	n/a	n/a	n/a	n/a	n/a	n/a	n/a	n/a	n/a	n/a	n/a	n/a
1552.244	n/a	WORD	776122	wordpools/wasnorm_wordpool_less_exclusions.txt	LTP236	ltpFR	12	7	1	ANTLER	29	n/a	n/a	1	n/a	0	0	0	0.422607421875	0.5869140625	0	lower	zerothre.ttf
1555.26	n/a	START	777630	n/a	LTP236	ltpFR	12	n/a	n/a	n/a	n/a	n/a	n/a	n/a	n/a	n/a	n/a	n/a	n/a	n/a	n/a	n/a	n/a
1556.162	n/a	PROB	778081	n/a	LTP236	ltpFR	12	n/a	n/a	n/a	n/a	n/a	n/a	n/a	12	8	1	3	n/a	n/a	n/a	n/a	n/a
1557.582	n/a	PROB	778791	n/a	LTP236	ltpFR	12	n/a	n/a	n/a	n/a	n/a	n/a	n/a	22	7	8	7	n/a	n/a	n/a	n/a	n/a
1559.492	n/a	PROB	779746	n/a	LTP236	ltpFR	12	n/a	n/a	n/a	n/a	n/a	n/a	n/a	12	8	2	2	n/a	n/a	n/a	n/a	n/a
1560.592	n/a	PROB	780296	n/a	LTP236	ltpFR	12	n/a	n/a	n/a	n/a	n/a	n/a	n/a	16	1	8	7	n/a	n/a	n/a	n/a	n/a
1561.712	n/a	PROB	780856	n/a	LTP236	ltpFR	12	n/a	n/a	n/a	n/a	n/a	n/a	n/a	20	9	8	3	n/a	n/a	n/a	n/a	n/a
1563.604	n/a	PROB	781802	n/a	LTP236	ltpFR	12	n/a	n/a	n/a	n/a	n/a	n/a	n/a	18	3	8	7	n/a	n/a	n/a	n/a	n/a
1565.062	n/a	PROB	782531	n/a	LTP236	ltpFR	12	n/a	n/a	n/a	n/a	n/a	n/a	n/a	14	6	1	7	n/a	n/a	n/a	n/a	n/a
1566.448	n/a	PROB	783224	n/a	LTP236	ltpFR	12	n/a	n/a	n/a	n/a	n/a	n/a	n/a	13	7	5	1	n/a	n/a	n/a	n/a	n/a
1567.658	n/a	PROB	783829	n/a	LTP236	ltpFR	12	n/a	n/a	n/a	n/a	n/a	n/a	n/a	10	3	4	3	n/a	n/a	n/a	n/a	n/a
1571.26	n/a	STOP	785630	n/a	LTP236	ltpFR	12	n/a	n/a	n/a	n/a	n/a	n/a	n/a	n/a	n/a	n/a	n/a	n/a	n/a	n/a	n/a	n/a
1572.408	n/a	WORD	786204	wordpools/wasnorm_wordpool_less_exclusions.txt	LTP236	ltpFR	12	7	1	RAM	1165	n/a	n/a	1	n/a	0	0	0	0.422607421875	0.5869140625	0	lower	zerothre.ttf
1575.42	n/a	START	787710	n/a	LTP236	ltpFR	12	n/a	n/a	n/a	n/a	n/a	n/a	n/a	n/a	n/a	n/a	n/a	n/a	n/a	n/a	n/a	n/a
1576.486	n/a	PROB	788243	n/a	LTP236	ltpFR	12	n/a	n/a	n/a	n/a	n/a	n/a	n/a	8	4	1	3	n/a	n/a	n/a	n/a	n/a
1578.142	n/a	PROB	789071	n/a	LTP236	ltpFR	12	n/a	n/a	n/a	n/a	n/a	n/a	n/a	8	1	1	6	n/a	n/a	n/a	n/a	n/a
1579.146	n/a	PROB	789573	n/a	LTP236	ltpFR	12	n/a	n/a	n/a	n/a	n/a	n/a	n/a	19	2	8	9	n/a	n/a	n/a	n/a	n/a
1580.2	n/a	PROB	790100	n/a	LTP236	ltpFR	12	n/a	n/a	n/a	n/a	n/a	n/a	n/a	16	6	9	1	n/a	n/a	n/a	n/a	n/a
1581.258	n/a	PROB	790629	n/a	LTP236	ltpFR	12	n/a	n/a	n/a	n/a	n/a	n/a	n/a	20	3	8	9	n/a	n/a	n/a	n/a	n/a
1582.53	n/a	PROB	791265	n/a	LTP236	ltpFR	12	n/a	n/a	n/a	n/a	n/a	n/a	n/a	14	3	3	8	n/a	n/a	n/a	n/a	n/a
1584.032	n/a	PROB	792016	n/a	LTP236	ltpFR	12	n/a	n/a	n/a	n/a	n/a	n/a	n/a	16	7	8	1	n/a	n/a	n/a	n/a	n/a
1585.018	n/a	PROB	792509	n/a	LTP236	ltpFR	12	n/a	n/a	n/a	n/a	n/a	n/a	n/a	15	2	9	4	n/a	n/a	n/a	n/a	n/a
1586.178	n/a	PROB	793089	n/a	LTP236	ltpFR	12	n/a	n/a	n/a	n/a	n/a	n/a	n/a	12	3	8	1	n/a	n/a	n/a	n/a	n/a
1587.16	n/a	PROB	793580	n/a	LTP236	ltpFR	12	n/a	n/a	n/a	n/a	n/a	n/a	n/a	12	6	1	5	n/a	n/a	n/a	n/a	n/a
1588.55	n/a	PROB	794275	n/a	LTP236	ltpFR	12	n/a	n/a	n/a	n/a	n/a	n/a	n/a	17	4	7	6	n/a	n/a	n/a	n/a	n/a
1590.454	n/a	STOP	795227	n/a	LTP236	ltpFR	12	n/a	n/a	n/a	n/a	n/a	n/a	n/a	n/a	n/a	n/a	n/a	n/a	n/a	n/a	n/a	n/a
1592.318	n/a	WORD	796159	wordpools/wasnorm_wordpool_less_exclusions.txt	LTP236	ltpFR	12	7	0	PAINTER	1004	n/a	n/a	1	n/a	0	0	0	0.57763671875	0.412841796875	1	upper	amplitud.ttf
1595.33	n/a	START	797665	n/a	LTP236	ltpFR	12	n/a	n/a	n/a	n/a	n/a	n/a	n/a	n/a	n/a	n/a	n/a	n/a	n/a	n/a	n/a	n/a
1596.23	n/a	PROB	798115	n/a	LTP236	ltpFR	12	n/a	n/a	n/a	n/a	n/a	n/a	n/a	18	4	9	5	n/a	n/a	n/a	n/a	n/a
1598.202	n/a	PROB	799101	n/a	LTP236	ltpFR	12	n/a	n/a	n/a	n/a	n/a	n/a	n/a	22	9	9	4	n/a	n/a	n/a	n/a	n/a
1599.412	n/a	PROB	799706	n/a	LTP236	ltpFR	12	n/a	n/a	n/a	n/a	n/a	n/a	n/a	17	8	4	5	n/a	n/a	n/a	n/a	n/a
1600.98	n/a	PROB	800490	n/a	LTP236	ltpFR	12	n/a	n/a	n/a	n/a	n/a	n/a	n/a	4	2	1	1	n/a	n/a	n/a	n/a	n/a
1602.368	n/a	PROB	801184	n/a	LTP236	ltpFR	12	n/a	n/a	n/a	n/a	n/a	n/a	n/a	14	1	6	7	n/a	n/a	n/a	n/a	n/a
1603.958	n/a	PROB	801979	n/a	LTP236	ltpFR	12	n/a	n/a	n/a	n/a	n/a	n/a	n/a	15	2	9	4	n/a	n/a	n/a	n/a	n/a
1605.094	n/a	PROB	802547	n/a	LTP236	ltpFR	12	n/a	n/a	n/a	n/a	n/a	n/a	n/a	21	5	7	9	n/a	n/a	n/a	n/a	n/a
1606.756	n/a	PROB	803378	n/a	LTP236	ltpFR	12	n/a	n/a	n/a	n/a	n/a	n/a	n/a	22	7	8	7	n/a	n/a	n/a	n/a	n/a
1608.442	n/a	PROB	804221	n/a	LTP236	ltpFR	12	n/a	n/a	n/a	n/a	n/a	n/a	n/a	11	1	3	7	n/a	n/a	n/a	n/a	n/a
1609.714	n/a	PROB	804857	n/a	LTP236	ltpFR	12	n/a	n/a	n/a	n/a	n/a	n/a	n/a	16	6	1	9	n/a	n/a	n/a	n/a	n/a
1610.934	n/a	STOP	805467	n/a	LTP236	ltpFR	12	n/a	n/a	n/a	n/a	n/a	n/a	n/a	n/a	n/a	n/a	n/a	n/a	n/a	n/a	n/a	n/a
1612.21	n/a	WORD	806105	wordpools/wasnorm_wordpool_less_exclusions.txt	LTP236	ltpFR	12	7	0	VISITOR	1573	n/a	n/a	1	n/a	0	0	0	0.57763671875	0.412841796875	1	upper	amplitud.ttf
1615.222	n/a	START	807611	n/a	LTP236	ltpFR	12	n/a	n/a	n/a	n/a	n/a	n/a	n/a	n/a	n/a	n/a	n/a	n/a	n/a	n/a	n/a	n/a
1616.342	n/a	PROB	808171	n/a	LTP236	ltpFR	12	n/a	n/a	n/a	n/a	n/a	n/a	n/a	17	2	7	8	n/a	n/a	n/a	n/a	n/a
1617.864	n/a	PROB	808932	n/a	LTP236	ltpFR	12	n/a	n/a	n/a	n/a	n/a	n/a	n/a	19	8	3	8	n/a	n/a	n/a	n/a	n/a
1619.334	n/a	PROB	809667	n/a	LTP236	ltpFR	12	n/a	n/a	n/a	n/a	n/a	n/a	n/a	21	9	7	5	n/a	n/a	n/a	n/a	n/a
1620.676	n/a	PROB	810338	n/a	LTP236	ltpFR	12	n/a	n/a	n/a	n/a	n/a	n/a	n/a	8	6	1	1	n/a	n/a	n/a	n/a	n/a
1621.626	n/a	PROB	810813	n/a	LTP236	ltpFR	12	n/a	n/a	n/a	n/a	n/a	n/a	n/a	10	3	1	6	n/a	n/a	n/a	n/a	n/a
1622.946	n/a	PROB	811473	n/a	LTP236	ltpFR	12	n/a	n/a	n/a	n/a	n/a	n/a	n/a	13	5	6	2	n/a	n/a	n/a	n/a	n/a
1623.97	n/a	PROB	811985	n/a	LTP236	ltpFR	12	n/a	n/a	n/a	n/a	n/a	n/a	n/a	9	4	3	2	n/a	n/a	n/a	n/a	n/a
1625.026	n/a	PROB	812513	n/a	LTP236	ltpFR	12	n/a	n/a	n/a	n/a	n/a	n/a	n/a	24	8	9	7	n/a	n/a	n/a	n/a	n/a
1626.812	n/a	PROB	813406	n/a	LTP236	ltpFR	12	n/a	n/a	n/a	n/a	n/a	n/a	n/a	10	3	1	6	n/a	n/a	n/a	n/a	n/a
1628.604	n/a	PROB	814302	n/a	LTP236	ltpFR	12	n/a	n/a	n/a	n/a	n/a	n/a	n/a	15	7	7	1	n/a	n/a	n/a	n/a	n/a
1629.64	n/a	PROB	814820	n/a	LTP236	ltpFR	12	n/a	n/a	n/a	n/a	n/a	n/a	n/a	16	4	5	7	n/a	n/a	n/a	n/a	n/a
1630.752	n/a	STOP	815376	n/a	LTP236	ltpFR	12	n/a	n/a	n/a	n/a	n/a	n/a	n/a	n/a	n/a	n/a	n/a	n/a	n/a	n/a	n/a	n/a
1632.086	n/a	WORD	816043	wordpools/wasnorm_wordpool_less_exclusions.txt	LTP236	ltpFR	12	7	0	GUEST	669	n/a	n/a	1	n/a	0	0	0	0.57763671875	0.412841796875	1	upper	amplitud.ttf
1635.098	n/a	START	817549	n/a	LTP236	ltpFR	12	n/a	n/a	n/a	n/a	n/a	n/a	n/a	n/a	n/a	n/a	n/a	n/a	n/a	n/a	n/a	n/a
1636.232	n/a	PROB	818116	n/a	LTP236	ltpFR	12	n/a	n/a	n/a	n/a	n/a	n/a	n/a	13	3	9	1	n/a	n/a	n/a	n/a	n/a
1637.67	n/a	PROB	818835	n/a	LTP236	ltpFR	12	n/a	n/a	n/a	n/a	n/a	n/a	n/a	15	4	9	2	n/a	n/a	n/a	n/a	n/a
1638.824	n/a	PROB	819412	n/a	LTP236	ltpFR	12	n/a	n/a	n/a	n/a	n/a	n/a	n/a	13	3	2	8	n/a	n/a	n/a	n/a	n/a
1640.196	n/a	PROB	820098	n/a	LTP236	ltpFR	12	n/a	n/a	n/a	n/a	n/a	n/a	n/a	9	1	7	1	n/a	n/a	n/a	n/a	n/a
1641.182	n/a	PROB	820591	n/a	LTP236	ltpFR	12	n/a	n/a	n/a	n/a	n/a	n/a	n/a	9	5	2	2	n/a	n/a	n/a	n/a	n/a
1643.598	n/a	PROB	821799	n/a	LTP236	ltpFR	12	n/a	n/a	n/a	n/a	n/a	n/a	n/a	11	6	1	4	n/a	n/a	n/a	n/a	n/a
1646.388	n/a	PROB	823194	n/a	LTP236	ltpFR	12	n/a	n/a	n/a	n/a	n/a	n/a	n/a	19	8	4	7	n/a	n/a	n/a	n/a	n/a
1648.076	n/a	PROB	824038	n/a	LTP236	ltpFR	12	n/a	n/a	n/a	n/a	n/a	n/a	n/a	20	6	6	8	n/a	n/a	n/a	n/a	n/a
1649.516	n/a	PROB	824758	n/a	LTP236	ltpFR	12	n/a	n/a	n/a	n/a	n/a	n/a	n/a	13	4	5	4	n/a	n/a	n/a	n/a	n/a
1650.872	n/a	STOP	825436	n/a	LTP236	ltpFR	12	n/a	n/a	n/a	n/a	n/a	n/a	n/a	n/a	n/a	n/a	n/a	n/a	n/a	n/a	n/a	n/a
1652.126	n/a	WORD	826063	wordpools/wasnorm_wordpool_less_exclusions.txt	LTP236	ltpFR	12	7	1	ANTELOPE	27	n/a	n/a	1	n/a	0	0	0	0.422607421875	0.5869140625	0	lower	zerothre.ttf
1655.14	n/a	START	827570	n/a	LTP236	ltpFR	12	n/a	n/a	n/a	n/a	n/a	n/a	n/a	n/a	n/a	n/a	n/a	n/a	n/a	n/a	n/a	n/a
1655.956	n/a	PROB	827978	n/a	LTP236	ltpFR	12	n/a	n/a	n/a	n/a	n/a	n/a	n/a	17	9	5	4	n/a	n/a	n/a	n/a	n/a
1658.198	n/a	PROB	829099	n/a	LTP236	ltpFR	12	n/a	n/a	n/a	n/a	n/a	n/a	n/a	9	7	1	1	n/a	n/a	n/a	n/a	n/a
1659.672	n/a	PROB	829836	n/a	LTP236	ltpFR	12	n/a	n/a	n/a	n/a	n/a	n/a	n/a	17	6	3	8	n/a	n/a	n/a	n/a	n/a
1660.874	n/a	PROB	830437	n/a	LTP236	ltpFR	12	n/a	n/a	n/a	n/a	n/a	n/a	n/a	21	6	8	7	n/a	n/a	n/a	n/a	n/a
1662.616	n/a	PROB	831308	n/a	LTP236	ltpFR	12	n/a	n/a	n/a	n/a	n/a	n/a	n/a	10	7	2	1	n/a	n/a	n/a	n/a	n/a
1663.836	n/a	PROB	831918	n/a	LTP236	ltpFR	12	n/a	n/a	n/a	n/a	n/a	n/a	n/a	20	8	8	4	n/a	n/a	n/a	n/a	n/a
1665.71	n/a	PROB	832855	n/a	LTP236	ltpFR	12	n/a	n/a	n/a	n/a	n/a	n/a	n/a	15	2	4	9	n/a	n/a	n/a	n/a	n/a
1666.886	n/a	PROB	833443	n/a	LTP236	ltpFR	12	n/a	n/a	n/a	n/a	n/a	n/a	n/a	19	9	3	7	n/a	n/a	n/a	n/a	n/a
1668.456	n/a	PROB	834228	n/a	LTP236	ltpFR	12	n/a	n/a	n/a	n/a	n/a	n/a	n/a	17	6	4	7	n/a	n/a	n/a	n/a	n/a
1670.474	n/a	STOP	835237	n/a	LTP236	ltpFR	12	n/a	n/a	n/a	n/a	n/a	n/a	n/a	n/a	n/a	n/a	n/a	n/a	n/a	n/a	n/a	n/a
1671.988	n/a	WORD	835994	wordpools/wasnorm_wordpool_less_exclusions.txt	LTP236	ltpFR	12	7	1	SHELL	1281	n/a	n/a	0	n/a	0	0	0	0.422607421875	0.5869140625	0	lower	zerothre.ttf
1675.0	n/a	START	837500	n/a	LTP236	ltpFR	12	n/a	n/a	n/a	n/a	n/a	n/a	n/a	n/a	n/a	n/a	n/a	n/a	n/a	n/a	n/a	n/a
1676.184	n/a	PROB	838092	n/a	LTP236	ltpFR	12	n/a	n/a	n/a	n/a	n/a	n/a	n/a	14	1	4	9	n/a	n/a	n/a	n/a	n/a
1677.944	n/a	PROB	838972	n/a	LTP236	ltpFR	12	n/a	n/a	n/a	n/a	n/a	n/a	n/a	16	7	7	2	n/a	n/a	n/a	n/a	n/a
1679.83	n/a	PROB	839915	n/a	LTP236	ltpFR	12	n/a	n/a	n/a	n/a	n/a	n/a	n/a	11	1	7	3	n/a	n/a	n/a	n/a	n/a
1681.186	n/a	PROB	840593	n/a	LTP236	ltpFR	12	n/a	n/a	n/a	n/a	n/a	n/a	n/a	16	6	2	8	n/a	n/a	n/a	n/a	n/a
1682.592	n/a	PROB	841296	n/a	LTP236	ltpFR	12	n/a	n/a	n/a	n/a	n/a	n/a	n/a	13	2	7	4	n/a	n/a	n/a	n/a	n/a
1683.88	n/a	PROB	841940	n/a	LTP236	ltpFR	12	n/a	n/a	n/a	n/a	n/a	n/a	n/a	13	2	7	4	n/a	n/a	n/a	n/a	n/a
1684.984	n/a	PROB	842492	n/a	LTP236	ltpFR	12	n/a	n/a	n/a	n/a	n/a	n/a	n/a	11	4	1	6	n/a	n/a	n/a	n/a	n/a
1686.808	n/a	PROB	843404	n/a	LTP236	ltpFR	12	n/a	n/a	n/a	n/a	n/a	n/a	n/a	12	1	5	6	n/a	n/a	n/a	n/a	n/a
1688.046	n/a	PROB	844023	n/a	LTP236	ltpFR	12	n/a	n/a	n/a	n/a	n/a	n/a	n/a	12	4	5	3	n/a	n/a	n/a	n/a	n/a
1689.166	n/a	PROB	844583	n/a	LTP236	ltpFR	12	n/a	n/a	n/a	n/a	n/a	n/a	n/a	21	6	6	9	n/a	n/a	n/a	n/a	n/a
1690.476	n/a	STOP	845238	n/a	LTP236	ltpFR	12	n/a	n/a	n/a	n/a	n/a	n/a	n/a	n/a	n/a	n/a	n/a	n/a	n/a	n/a	n/a	n/a
1692.098	n/a	WORD	846049	wordpools/wasnorm_wordpool_less_exclusions.txt	LTP236	ltpFR	12	7	1	CLAY	320	n/a	n/a	0	n/a	0	0	0	0.422607421875	0.5869140625	0	lower	zerothre.ttf
1695.11	n/a	START	847555	n/a	LTP236	ltpFR	12	n/a	n/a	n/a	n/a	n/a	n/a	n/a	n/a	n/a	n/a	n/a	n/a	n/a	n/a	n/a	n/a
1696.214	n/a	PROB	848107	n/a	LTP236	ltpFR	12	n/a	n/a	n/a	n/a	n/a	n/a	n/a	11	2	8	1	n/a	n/a	n/a	n/a	n/a
1698.0	n/a	PROB	849000	n/a	LTP236	ltpFR	12	n/a	n/a	n/a	n/a	n/a	n/a	n/a	20	7	7	6	n/a	n/a	n/a	n/a	n/a
1700.158	n/a	PROB	850079	n/a	LTP236	ltpFR	12	n/a	n/a	n/a	n/a	n/a	n/a	n/a	4	1	2	1	n/a	n/a	n/a	n/a	n/a
1701.298	n/a	PROB	850649	n/a	LTP236	ltpFR	12	n/a	n/a	n/a	n/a	n/a	n/a	n/a	17	6	2	9	n/a	n/a	n/a	n/a	n/a
1702.902	n/a	PROB	851451	n/a	LTP236	ltpFR	12	n/a	n/a	n/a	n/a	n/a	n/a	n/a	19	9	6	4	n/a	n/a	n/a	n/a	n/a
1704.108	n/a	PROB	852054	n/a	LTP236	ltpFR	12	n/a	n/a	n/a	n/a	n/a	n/a	n/a	20	6	3	7	n/a	n/a	n/a	n/a	n/a
1705.584	n/a	PROB	852792	n/a	LTP236	ltpFR	12	n/a	n/a	n/a	n/a	n/a	n/a	n/a	11	3	5	3	n/a	n/a	n/a	n/a	n/a
1707.508	n/a	PROB	853754	n/a	LTP236	ltpFR	12	n/a	n/a	n/a	n/a	n/a	n/a	n/a	18	8	3	7	n/a	n/a	n/a	n/a	n/a
1709.092	n/a	PROB	854546	n/a	LTP236	ltpFR	12	n/a	n/a	n/a	n/a	n/a	n/a	n/a	22	5	9	8	n/a	n/a	n/a	n/a	n/a
1710.444	n/a	STOP	855222	n/a	LTP236	ltpFR	12	n/a	n/a	n/a	n/a	n/a	n/a	n/a	n/a	n/a	n/a	n/a	n/a	n/a	n/a	n/a	n/a
1712.192	n/a	WORD	856096	wordpools/wasnorm_wordpool_less_exclusions.txt	LTP236	ltpFR	12	7	1	PUMPKIN	1142	n/a	n/a	0	n/a	0	0	0	0.422607421875	0.5869140625	0	lower	zerothre.ttf
1715.204	n/a	START	857602	n/a	LTP236	ltpFR	12	n/a	n/a	n/a	n/a	n/a	n/a	n/a	n/a	n/a	n/a	n/a	n/a	n/a	n/a	n/a	n/a
1716.124	n/a	PROB	858062	n/a	LTP236	ltpFR	12	n/a	n/a	n/a	n/a	n/a	n/a	n/a	21	8	5	8	n/a	n/a	n/a	n/a	n/a
1717.476	n/a	PROB	858738	n/a	LTP236	ltpFR	12	n/a	n/a	n/a	n/a	n/a	n/a	n/a	23	8	7	8	n/a	n/a	n/a	n/a	n/a
1718.746	n/a	PROB	859373	n/a	LTP236	ltpFR	12	n/a	n/a	n/a	n/a	n/a	n/a	n/a	17	3	5	9	n/a	n/a	n/a	n/a	n/a
1719.984	n/a	PROB	859992	n/a	LTP236	ltpFR	12	n/a	n/a	n/a	n/a	n/a	n/a	n/a	11	1	9	1	n/a	n/a	n/a	n/a	n/a
1720.922	n/a	PROB	860461	n/a	LTP236	ltpFR	12	n/a	n/a	n/a	n/a	n/a	n/a	n/a	13	3	5	5	n/a	n/a	n/a	n/a	n/a
1722.076	n/a	PROB	861038	n/a	LTP236	ltpFR	12	n/a	n/a	n/a	n/a	n/a	n/a	n/a	14	4	7	3	n/a	n/a	n/a	n/a	n/a
1723.8	n/a	PROB	861900	n/a	LTP236	ltpFR	12	n/a	n/a	n/a	n/a	n/a	n/a	n/a	17	7	5	5	n/a	n/a	n/a	n/a	n/a
1725.124	n/a	PROB	862562	n/a	LTP236	ltpFR	12	n/a	n/a	n/a	n/a	n/a	n/a	n/a	11	2	3	6	n/a	n/a	n/a	n/a	n/a
1726.192	n/a	PROB	863096	n/a	LTP236	ltpFR	12	n/a	n/a	n/a	n/a	n/a	n/a	n/a	10	2	6	2	n/a	n/a	n/a	n/a	n/a
1727.414	n/a	PROB	863707	n/a	LTP236	ltpFR	12	n/a	n/a	n/a	n/a	n/a	n/a	n/a	12	1	4	7	n/a	n/a	n/a	n/a	n/a
1728.484	n/a	PROB	864242	n/a	LTP236	ltpFR	12	n/a	n/a	n/a	n/a	n/a	n/a	n/a	18	1	8	9	n/a	n/a	n/a	n/a	n/a
1730.068	n/a	STOP	865034	n/a	LTP236	ltpFR	12	n/a	n/a	n/a	n/a	n/a	n/a	n/a	n/a	n/a	n/a	n/a	n/a	n/a	n/a	n/a	n/a
1732.1	n/a	WORD	866050	wordpools/wasnorm_wordpool_less_exclusions.txt	LTP236	ltpFR	12	7	0	BULL	193	n/a	n/a	0	n/a	0	0	0	0.57763671875	0.412841796875	1	upper	amplitud.ttf
1735.112	n/a	START	867556	n/a	LTP236	ltpFR	12	n/a	n/a	n/a	n/a	n/a	n/a	n/a	n/a	n/a	n/a	n/a	n/a	n/a	n/a	n/a	n/a
1736.25	n/a	PROB	868125	n/a	LTP236	ltpFR	12	n/a	n/a	n/a	n/a	n/a	n/a	n/a	14	7	3	4	n/a	n/a	n/a	n/a	n/a
1737.768	n/a	PROB	868884	n/a	LTP236	ltpFR	12	n/a	n/a	n/a	n/a	n/a	n/a	n/a	14	8	4	2	n/a	n/a	n/a	n/a	n/a
1738.958	n/a	PROB	869479	n/a	LTP236	ltpFR	12	n/a	n/a	n/a	n/a	n/a	n/a	n/a	22	5	8	9	n/a	n/a	n/a	n/a	n/a
1740.28	n/a	PROB	870140	n/a	LTP236	ltpFR	12	n/a	n/a	n/a	n/a	n/a	n/a	n/a	11	5	2	4	n/a	n/a	n/a	n/a	n/a
1741.468	n/a	PROB	870734	n/a	LTP236	ltpFR	12	n/a	n/a	n/a	n/a	n/a	n/a	n/a	17	6	7	4	n/a	n/a	n/a	n/a	n/a
1742.788	n/a	PROB	871394	n/a	LTP236	ltpFR	12	n/a	n/a	n/a	n/a	n/a	n/a	n/a	8	1	4	3	n/a	n/a	n/a	n/a	n/a
1743.86	n/a	PROB	871930	n/a	LTP236	ltpFR	12	n/a	n/a	n/a	n/a	n/a	n/a	n/a	18	3	6	9	n/a	n/a	n/a	n/a	n/a
1744.968	n/a	PROB	872484	n/a	LTP236	ltpFR	12	n/a	n/a	n/a	n/a	n/a	n/a	n/a	16	1	9	6	n/a	n/a	n/a	n/a	n/a
1746.018	n/a	PROB	873009	n/a	LTP236	ltpFR	12	n/a	n/a	n/a	n/a	n/a	n/a	n/a	16	1	7	8	n/a	n/a	n/a	n/a	n/a
1747.154	n/a	PROB	873577	n/a	LTP236	ltpFR	12	n/a	n/a	n/a	n/a	n/a	n/a	n/a	13	2	5	6	n/a	n/a	n/a	n/a	n/a
1750.198	n/a	STOP	875099	n/a	LTP236	ltpFR	12	n/a	n/a	n/a	n/a	n/a	n/a	n/a	n/a	n/a	n/a	n/a	n/a	n/a	n/a	n/a	n/a
1751.994	n/a	WORD	875997	wordpools/wasnorm_wordpool_less_exclusions.txt	LTP236	ltpFR	12	7	0	DEPUTY	450	n/a	n/a	1	n/a	0	0	0	0.57763671875	0.412841796875	1	upper	amplitud.ttf
1755.006	n/a	START	877503	n/a	LTP236	ltpFR	12	n/a	n/a	n/a	n/a	n/a	n/a	n/a	n/a	n/a	n/a	n/a	n/a	n/a	n/a	n/a	n/a
1755.958	n/a	PROB	877979	n/a	LTP236	ltpFR	12	n/a	n/a	n/a	n/a	n/a	n/a	n/a	20	5	6	9	n/a	n/a	n/a	n/a	n/a
1757.728	n/a	PROB	878864	n/a	LTP236	ltpFR	12	n/a	n/a	n/a	n/a	n/a	n/a	n/a	13	7	3	3	n/a	n/a	n/a	n/a	n/a
1760.154	n/a	PROB	880077	n/a	LTP236	ltpFR	12	n/a	n/a	n/a	n/a	n/a	n/a	n/a	15	3	6	6	n/a	n/a	n/a	n/a	n/a
1761.394	n/a	PROB	880697	n/a	LTP236	ltpFR	12	n/a	n/a	n/a	n/a	n/a	n/a	n/a	13	1	6	6	n/a	n/a	n/a	n/a	n/a
1763.016	n/a	PROB	881508	n/a	LTP236	ltpFR	12	n/a	n/a	n/a	n/a	n/a	n/a	n/a	12	6	3	3	n/a	n/a	n/a	n/a	n/a
1764.17	n/a	PROB	882085	n/a	LTP236	ltpFR	12	n/a	n/a	n/a	n/a	n/a	n/a	n/a	16	1	8	7	n/a	n/a	n/a	n/a	n/a
1765.342	n/a	PROB	882671	n/a	LTP236	ltpFR	12	n/a	n/a	n/a	n/a	n/a	n/a	n/a	15	4	8	3	n/a	n/a	n/a	n/a	n/a
1766.484	n/a	PROB	883242	n/a	LTP236	ltpFR	12	n/a	n/a	n/a	n/a	n/a	n/a	n/a	7	4	2	1	n/a	n/a	n/a	n/a	n/a
1767.668	n/a	PROB	883834	n/a	LTP236	ltpFR	12	n/a	n/a	n/a	n/a	n/a	n/a	n/a	15	3	5	7	n/a	n/a	n/a	n/a	n/a
1769.16	n/a	PROB	884580	n/a	LTP236	ltpFR	12	n/a	n/a	n/a	n/a	n/a	n/a	n/a	18	6	7	5	n/a	n/a	n/a	n/a	n/a
1770.198	n/a	STOP	885099	n/a	LTP236	ltpFR	12	n/a	n/a	n/a	n/a	n/a	n/a	n/a	n/a	n/a	n/a	n/a	n/a	n/a	n/a	n/a	n/a
1772.07	n/a	WORD	886035	wordpools/wasnorm_wordpool_less_exclusions.txt	LTP236	ltpFR	12	7	0	INTESTINE	742	n/a	n/a	0	n/a	0	0	0	0.57763671875	0.412841796875	1	upper	amplitud.ttf
1775.082	n/a	START	887541	n/a	LTP236	ltpFR	12	n/a	n/a	n/a	n/a	n/a	n/a	n/a	n/a	n/a	n/a	n/a	n/a	n/a	n/a	n/a	n/a
1776.268	n/a	PROB	888134	n/a	LTP236	ltpFR	12	n/a	n/a	n/a	n/a	n/a	n/a	n/a	17	5	4	8	n/a	n/a	n/a	n/a	n/a
1778.276	n/a	PROB	889138	n/a	LTP236	ltpFR	12	n/a	n/a	n/a	n/a	n/a	n/a	n/a	16	1	6	9	n/a	n/a	n/a	n/a	n/a
1779.646	n/a	PROB	889823	n/a	LTP236	ltpFR	12	n/a	n/a	n/a	n/a	n/a	n/a	n/a	12	4	1	7	n/a	n/a	n/a	n/a	n/a
1780.9	n/a	PROB	890450	n/a	LTP236	ltpFR	12	n/a	n/a	n/a	n/a	n/a	n/a	n/a	17	4	7	5	n/a	n/a	n/a	n/a	n/a
1782.138	n/a	PROB	891069	n/a	LTP236	ltpFR	12	n/a	n/a	n/a	n/a	n/a	n/a	n/a	17	4	5	8	n/a	n/a	n/a	n/a	n/a
1784.012	n/a	PROB	892006	n/a	LTP236	ltpFR	12	n/a	n/a	n/a	n/a	n/a	n/a	n/a	19	9	1	9	n/a	n/a	n/a	n/a	n/a
1785.486	n/a	PROB	892743	n/a	LTP236	ltpFR	12	n/a	n/a	n/a	n/a	n/a	n/a	n/a	17	6	5	6	n/a	n/a	n/a	n/a	n/a
1786.624	n/a	PROB	893312	n/a	LTP236	ltpFR	12	n/a	n/a	n/a	n/a	n/a	n/a	n/a	11	2	4	5	n/a	n/a	n/a	n/a	n/a
1787.66	n/a	PROB	893830	n/a	LTP236	ltpFR	12	n/a	n/a	n/a	n/a	n/a	n/a	n/a	14	2	5	7	n/a	n/a	n/a	n/a	n/a
1791.082	n/a	STOP	895541	n/a	LTP236	ltpFR	12	n/a	n/a	n/a	n/a	n/a	n/a	n/a	n/a	n/a	n/a	n/a	n/a	n/a	n/a	n/a	n/a
1792.884	n/a	REC_START	896442	n/a	LTP236	ltpFR	12	7	n/a	n/a	n/a	n/a	n/a	n/a	n/a	0	0	0	n/a	n/a	n/a	n/a	n/a
1794.53	n/a	REC_WORD	897265	wordpools/wasnorm_wordpool_less_exclusions.txt	LTP236	ltpFR	12	7	0	DEPUTY	450	n/a	n/a	1	n/a	0	0	0	n/a	n/a	n/a	n/a	n/a
1795.574	n/a	REC_WORD	897787	wordpools/wasnorm_wordpool_less_exclusions.txt	LTP236	ltpFR	12	7	0	INTESTINE	742	n/a	n/a	0	n/a	0	0	0	n/a	n/a	n/a	n/a	n/a
1796.574	n/a	REC_WORD_VV	898287	wordpools/wasnorm_wordpool_less_exclusions.txt	LTP236	ltpFR	12	7	n/a	<>	-1	n/a	n/a	n/a	n/a	0	0	0	n/a	n/a	n/a	n/a	n/a
1801.834	n/a	REC_WORD	900917	wordpools/wasnorm_wordpool_less_exclusions.txt	LTP236	ltpFR	12	7	n/a	BOWL	158	n/a	n/a	n/a	n/a	0	0	0	n/a	n/a	n/a	n/a	n/a
1811.532	n/a	REC_WORD	905766	wordpools/wasnorm_wordpool_less_exclusions.txt	LTP236	ltpFR	12	7	n/a	BREAK	-1	n/a	n/a	n/a	n/a	0	0	0	n/a	n/a	n/a	n/a	n/a
1812.714	n/a	REC_WORD	906357	wordpools/wasnorm_wordpool_less_exclusions.txt	LTP236	ltpFR	12	7	1	JEEP	753	n/a	n/a	1	n/a	0	0	0	n/a	n/a	n/a	n/a	n/a
1814.19	n/a	REC_WORD	907095	wordpools/wasnorm_wordpool_less_exclusions.txt	LTP236	ltpFR	12	7	1	ANTELOPE	27	n/a	n/a	1	n/a	0	0	0	n/a	n/a	n/a	n/a	n/a
1824.938	n/a	REC_WORD	912469	wordpools/wasnorm_wordpool_less_exclusions.txt	LTP236	ltpFR	12	7	n/a	GAZELLE	628	n/a	n/a	n/a	n/a	0	0	0	n/a	n/a	n/a	n/a	n/a
1828.056	n/a	REC_WORD	914028	wordpools/wasnorm_wordpool_less_exclusions.txt	LTP236	ltpFR	12	7	1	RAM	1165	n/a	n/a	1	n/a	0	0	0	n/a	n/a	n/a	n/a	n/a
1870.364	n/a	START	935182	n/a	LTP236	ltpFR	12	n/a	n/a	n/a	n/a	n/a	n/a	n/a	n/a	n/a	n/a	n/a	n/a	n/a	n/a	n/a	n/a
1871.882	n/a	PROB	935941	n/a	LTP236	ltpFR	12	n/a	n/a	n/a	n/a	n/a	n/a	n/a	20	8	3	9	n/a	n/a	n/a	n/a	n/a
1873.706	n/a	PROB	936853	n/a	LTP236	ltpFR	12	n/a	n/a	n/a	n/a	n/a	n/a	n/a	13	3	3	7	n/a	n/a	n/a	n/a	n/a
1874.844	n/a	PROB	937422	n/a	LTP236	ltpFR	12	n/a	n/a	n/a	n/a	n/a	n/a	n/a	21	6	6	9	n/a	n/a	n/a	n/a	n/a
1876.232	n/a	PROB	938116	n/a	LTP236	ltpFR	12	n/a	n/a	n/a	n/a	n/a	n/a	n/a	8	3	2	3	n/a	n/a	n/a	n/a	n/a
1877.262	n/a	STOP	938631	n/a	LTP236	ltpFR	12	n/a	n/a	n/a	n/a	n/a	n/a	n/a	n/a	n/a	n/a	n/a	n/a	n/a	n/a	n/a	n/a
1879.226	n/a	WORD	939613	wordpools/wasnorm_wordpool_less_exclusions.txt	LTP236	ltpFR	12	8	1	PUCK	1138	n/a	n/a	0	n/a	0	0	0	0.422607421875	0.5869140625	0	lower	zerothre.ttf
1882.242	n/a	START	941121	n/a	LTP236	ltpFR	12	n/a	n/a	n/a	n/a	n/a	n/a	n/a	n/a	n/a	n/a	n/a	n/a	n/a	n/a	n/a	n/a
1883.346	n/a	PROB	941673	n/a	LTP236	ltpFR	12	n/a	n/a	n/a	n/a	n/a	n/a	n/a	7	1	3	2	n/a	n/a	n/a	n/a	n/a
1884.652	n/a	PROB	942326	n/a	LTP236	ltpFR	12	n/a	n/a	n/a	n/a	n/a	n/a	n/a	12	4	6	2	n/a	n/a	n/a	n/a	n/a
1885.602	n/a	PROB	942801	n/a	LTP236	ltpFR	12	n/a	n/a	n/a	n/a	n/a	n/a	n/a	16	3	6	5	n/a	n/a	n/a	n/a	n/a
1887.478	n/a	PROB	943739	n/a	LTP236	ltpFR	12	n/a	n/a	n/a	n/a	n/a	n/a	n/a	16	6	8	2	n/a	n/a	n/a	n/a	n/a
1889.542	n/a	STOP	944771	n/a	LTP236	ltpFR	12	n/a	n/a	n/a	n/a	n/a	n/a	n/a	n/a	n/a	n/a	n/a	n/a	n/a	n/a	n/a	n/a
1891.328	n/a	WORD	945664	wordpools/wasnorm_wordpool_less_exclusions.txt	LTP236	ltpFR	12	8	1	GRADUATE	653	n/a	n/a	1	n/a	0	0	0	0.422607421875	0.5869140625	0	lower	zerothre.ttf
1894.34	n/a	START	947170	n/a	LTP236	ltpFR	12	n/a	n/a	n/a	n/a	n/a	n/a	n/a	n/a	n/a	n/a	n/a	n/a	n/a	n/a	n/a	n/a
1895.276	n/a	PROB	947638	n/a	LTP236	ltpFR	12	n/a	n/a	n/a	n/a	n/a	n/a	n/a	18	9	1	8	n/a	n/a	n/a	n/a	n/a
1896.714	n/a	PROB	948357	n/a	LTP236	ltpFR	12	n/a	n/a	n/a	n/a	n/a	n/a	n/a	18	9	4	5	n/a	n/a	n/a	n/a	n/a
1898.166	n/a	PROB	949083	n/a	LTP236	ltpFR	12	n/a	n/a	n/a	n/a	n/a	n/a	n/a	14	3	4	7	n/a	n/a	n/a	n/a	n/a
1899.856	n/a	PROB	949928	n/a	LTP236	ltpFR	12	n/a	n/a	n/a	n/a	n/a	n/a	n/a	17	6	8	3	n/a	n/a	n/a	n/a	n/a
1900.966	n/a	STOP	950483	n/a	LTP236	ltpFR	12	n/a	n/a	n/a	n/a	n/a	n/a	n/a	n/a	n/a	n/a	n/a	n/a	n/a	n/a	n/a	n/a
1903.402	n/a	WORD	951701	wordpools/wasnorm_wordpool_less_exclusions.txt	LTP236	ltpFR	12	8	1	PERISCOPE	1050	n/a	n/a	1	n/a	0	0	0	0.422607421875	0.5869140625	0	lower	zerothre.ttf
1906.418	n/a	START	953209	n/a	LTP236	ltpFR	12	n/a	n/a	n/a	n/a	n/a	n/a	n/a	n/a	n/a	n/a	n/a	n/a	n/a	n/a	n/a	n/a
1907.422	n/a	PROB	953711	n/a	LTP236	ltpFR	12	n/a	n/a	n/a	n/a	n/a	n/a	n/a	13	5	5	3	n/a	n/a	n/a	n/a	n/a
1908.592	n/a	PROB	954296	n/a	LTP236	ltpFR	12	n/a	n/a	n/a	n/a	n/a	n/a	n/a	11	1	2	8	n/a	n/a	n/a	n/a	n/a
1909.682	n/a	PROB	954841	n/a	LTP236	ltpFR	12	n/a	n/a	n/a	n/a	n/a	n/a	n/a	12	4	5	2	n/a	n/a	n/a	n/a	n/a
1910.864	n/a	PROB	955432	n/a	LTP236	ltpFR	12	n/a	n/a	n/a	n/a	n/a	n/a	n/a	15	6	2	7	n/a	n/a	n/a	n/a	n/a
1912.152	n/a	PROB	956076	n/a	LTP236	ltpFR	12	n/a	n/a	n/a	n/a	n/a	n/a	n/a	4	2	1	1	n/a	n/a	n/a	n/a	n/a
1913.312	n/a	STOP	956656	n/a	LTP236	ltpFR	12	n/a	n/a	n/a	n/a	n/a	n/a	n/a	n/a	n/a	n/a	n/a	n/a	n/a	n/a	n/a	n/a
1915.604	n/a	WORD	957802	wordpools/wasnorm_wordpool_less_exclusions.txt	LTP236	ltpFR	12	8	1	CAFE	216	n/a	n/a	0	n/a	0	0	0	0.422607421875	0.5869140625	0	lower	zerothre.ttf
1918.616	n/a	START	959308	n/a	LTP236	ltpFR	12	n/a	n/a	n/a	n/a	n/a	n/a	n/a	n/a	n/a	n/a	n/a	n/a	n/a	n/a	n/a	n/a
1919.636	n/a	PROB	959818	n/a	LTP236	ltpFR	12	n/a	n/a	n/a	n/a	n/a	n/a	n/a	16	4	5	7	n/a	n/a	n/a	n/a	n/a
1921.388	n/a	PROB	960694	n/a	LTP236	ltpFR	12	n/a	n/a	n/a	n/a	n/a	n/a	n/a	17	7	7	3	n/a	n/a	n/a	n/a	n/a
1922.442	n/a	PROB	961221	n/a	LTP236	ltpFR	12	n/a	n/a	n/a	n/a	n/a	n/a	n/a	25	7	9	9	n/a	n/a	n/a	n/a	n/a
1923.964	n/a	PROB	961982	n/a	LTP236	ltpFR	12	n/a	n/a	n/a	n/a	n/a	n/a	n/a	15	8	6	1	n/a	n/a	n/a	n/a	n/a
1925.034	n/a	PROB	962517	n/a	LTP236	ltpFR	12	n/a	n/a	n/a	n/a	n/a	n/a	n/a	9	4	1	4	n/a	n/a	n/a	n/a	n/a
1926.384	n/a	STOP	963192	n/a	LTP236	ltpFR	12	n/a	n/a	n/a	n/a	n/a	n/a	n/a	n/a	n/a	n/a	n/a	n/a	n/a	n/a	n/a	n/a
1927.512	n/a	WORD	963756	wordpools/wasnorm_wordpool_less_exclusions.txt	LTP236	ltpFR	12	8	1	RADIATOR	1156	n/a	n/a	0	n/a	0	0	0	0.422607421875	0.5869140625	0	lower	zerothre.ttf
1930.528	n/a	START	965264	n/a	LTP236	ltpFR	12	n/a	n/a	n/a	n/a	n/a	n/a	n/a	n/a	n/a	n/a	n/a	n/a	n/a	n/a	n/a	n/a
1931.548	n/a	PROB	965774	n/a	LTP236	ltpFR	12	n/a	n/a	n/a	n/a	n/a	n/a	n/a	19	2	9	8	n/a	n/a	n/a	n/a	n/a
1935.914	n/a	PROB	967957	n/a	LTP236	ltpFR	12	n/a	n/a	n/a	n/a	n/a	n/a	n/a	12	3	1	8	n/a	n/a	n/a	n/a	n/a
1937.408	n/a	STOP	968704	n/a	LTP236	ltpFR	12	n/a	n/a	n/a	n/a	n/a	n/a	n/a	n/a	n/a	n/a	n/a	n/a	n/a	n/a	n/a	n/a
1939.474	n/a	WORD	969737	wordpools/wasnorm_wordpool_less_exclusions.txt	LTP236	ltpFR	12	8	1	SALESMAN	1225	n/a	n/a	1	n/a	0	0	0	0.422607421875	0.5869140625	0	lower	zerothre.ttf
1942.49	n/a	START	971245	n/a	LTP236	ltpFR	12	n/a	n/a	n/a	n/a	n/a	n/a	n/a	n/a	n/a	n/a	n/a	n/a	n/a	n/a	n/a	n/a
1943.622	n/a	PROB	971811	n/a	LTP236	ltpFR	12	n/a	n/a	n/a	n/a	n/a	n/a	n/a	22	8	8	6	n/a	n/a	n/a	n/a	n/a
1945.466	n/a	PROB	972733	n/a	LTP236	ltpFR	12	n/a	n/a	n/a	n/a	n/a	n/a	n/a	14	4	3	7	n/a	n/a	n/a	n/a	n/a
1946.652	n/a	PROB	973326	n/a	LTP236	ltpFR	12	n/a	n/a	n/a	n/a	n/a	n/a	n/a	9	2	1	6	n/a	n/a	n/a	n/a	n/a
1948.312	n/a	PROB	974156	n/a	LTP236	ltpFR	12	n/a	n/a	n/a	n/a	n/a	n/a	n/a	21	8	6	7	n/a	n/a	n/a	n/a	n/a
1950.056	n/a	STOP	975028	n/a	LTP236	ltpFR	12	n/a	n/a	n/a	n/a	n/a	n/a	n/a	n/a	n/a	n/a	n/a	n/a	n/a	n/a	n/a	n/a
1951.57	n/a	WORD	975785	wordpools/wasnorm_wordpool_less_exclusions.txt	LTP236	ltpFR	12	8	1	THRONE	1461	n/a	n/a	0	n/a	0	0	0	0.422607421875	0.5869140625	0	lower	zerothre.ttf
1954.586	n/a	START	977293	n/a	LTP236	ltpFR	12	n/a	n/a	n/a	n/a	n/a	n/a	n/a	n/a	n/a	n/a	n/a	n/a	n/a	n/a	n/a	n/a
1955.406	n/a	PROB	977703	n/a	LTP236	ltpFR	12	n/a	n/a	n/a	n/a	n/a	n/a	n/a	19	3	9	7	n/a	n/a	n/a	n/a	n/a
1957.16	n/a	PROB	978580	n/a	LTP236	ltpFR	12	n/a	n/a	n/a	n/a	n/a	n/a	n/a	14	9	2	3	n/a	n/a	n/a	n/a	n/a
1958.412	n/a	PROB	979206	n/a	LTP236	ltpFR	12	n/a	n/a	n/a	n/a	n/a	n/a	n/a	19	5	8	6	n/a	n/a	n/a	n/a	n/a
1959.554	n/a	PROB	979777	n/a	LTP236	ltpFR	12	n/a	n/a	n/a	n/a	n/a	n/a	n/a	16	5	3	8	n/a	n/a	n/a	n/a	n/a
1961.442	n/a	STOP	980721	n/a	LTP236	ltpFR	12	n/a	n/a	n/a	n/a	n/a	n/a	n/a	n/a	n/a	n/a	n/a	n/a	n/a	n/a	n/a	n/a
1963.782	n/a	WORD	981891	wordpools/wasnorm_wordpool_less_exclusions.txt	LTP236	ltpFR	12	8	1	MONARCH	906	n/a	n/a	0	n/a	0	0	0	0.422607421875	0.5869140625	0	lower	zerothre.ttf
1966.8	n/a	START	983400	n/a	LTP236	ltpFR	12	n/a	n/a	n/a	n/a	n/a	n/a	n/a	n/a	n/a	n/a	n/a	n/a	n/a	n/a	n/a	n/a
1967.752	n/a	PROB	983876	n/a	LTP236	ltpFR	12	n/a	n/a	n/a	n/a	n/a	n/a	n/a	10	1	7	2	n/a	n/a	n/a	n/a	n/a
1969.288	n/a	PROB	984644	n/a	LTP236	ltpFR	12	n/a	n/a	n/a	n/a	n/a	n/a	n/a	11	4	6	1	n/a	n/a	n/a	n/a	n/a
1970.208	n/a	PROB	985104	n/a	LTP236	ltpFR	12	n/a	n/a	n/a	n/a	n/a	n/a	n/a	18	4	6	8	n/a	n/a	n/a	n/a	n/a
1971.55	n/a	PROB	985775	n/a	LTP236	ltpFR	12	n/a	n/a	n/a	n/a	n/a	n/a	n/a	9	4	2	3	n/a	n/a	n/a	n/a	n/a
1972.654	n/a	PROB	986327	n/a	LTP236	ltpFR	12	n/a	n/a	n/a	n/a	n/a	n/a	n/a	8	1	5	2	n/a	n/a	n/a	n/a	n/a
1973.706	n/a	STOP	986853	n/a	LTP236	ltpFR	12	n/a	n/a	n/a	n/a	n/a	n/a	n/a	n/a	n/a	n/a	n/a	n/a	n/a	n/a	n/a	n/a
1975.866	n/a	WORD	987933	wordpools/wasnorm_wordpool_less_exclusions.txt	LTP236	ltpFR	12	8	1	PADDLE	1000	n/a	n/a	0	n/a	0	0	0	0.422607421875	0.5869140625	0	lower	zerothre.ttf
1978.878	n/a	START	989439	n/a	LTP236	ltpFR	12	n/a	n/a	n/a	n/a	n/a	n/a	n/a	n/a	n/a	n/a	n/a	n/a	n/a	n/a	n/a	n/a
1979.964	n/a	PROB	989982	n/a	LTP236	ltpFR	12	n/a	n/a	n/a	n/a	n/a	n/a	n/a	15	5	3	7	n/a	n/a	n/a	n/a	n/a
1983.496	n/a	PROB	991748	n/a	LTP236	ltpFR	12	n/a	n/a	n/a	n/a	n/a	n/a	n/a	21	6	8	7	n/a	n/a	n/a	n/a	n/a
1984.728	n/a	PROB	992364	n/a	LTP236	ltpFR	12	n/a	n/a	n/a	n/a	n/a	n/a	n/a	11	2	1	8	n/a	n/a	n/a	n/a	n/a
1985.676	n/a	STOP	992838	n/a	LTP236	ltpFR	12	n/a	n/a	n/a	n/a	n/a	n/a	n/a	n/a	n/a	n/a	n/a	n/a	n/a	n/a	n/a	n/a
1987.758	n/a	WORD	993879	wordpools/wasnorm_wordpool_less_exclusions.txt	LTP236	ltpFR	12	8	1	PENCIL	1042	n/a	n/a	0	n/a	0	0	0	0.422607421875	0.5869140625	0	lower	zerothre.ttf
1990.774	n/a	START	995387	n/a	LTP236	ltpFR	12	n/a	n/a	n/a	n/a	n/a	n/a	n/a	n/a	n/a	n/a	n/a	n/a	n/a	n/a	n/a	n/a
1991.724	n/a	PROB	995862	n/a	LTP236	ltpFR	12	n/a	n/a	n/a	n/a	n/a	n/a	n/a	21	8	6	7	n/a	n/a	n/a	n/a	n/a
1992.964	n/a	PROB	996482	n/a	LTP236	ltpFR	12	n/a	n/a	n/a	n/a	n/a	n/a	n/a	21	6	6	9	n/a	n/a	n/a	n/a	n/a
1994.384	n/a	PROB	997192	n/a	LTP236	ltpFR	12	n/a	n/a	n/a	n/a	n/a	n/a	n/a	14	6	2	6	n/a	n/a	n/a	n/a	n/a
1996.96	n/a	PROB	998480	n/a	LTP236	ltpFR	12	n/a	n/a	n/a	n/a	n/a	n/a	n/a	12	5	4	3	n/a	n/a	n/a	n/a	n/a
1997.9	n/a	STOP	998950	n/a	LTP236	ltpFR	12	n/a	n/a	n/a	n/a	n/a	n/a	n/a	n/a	n/a	n/a	n/a	n/a	n/a	n/a	n/a	n/a
1999.808	n/a	WORD	999904	wordpools/wasnorm_wordpool_less_exclusions.txt	LTP236	ltpFR	12	8	1	BOARD	143	n/a	n/a	0	n/a	0	0	0	0.422607421875	0.5869140625	0	lower	zerothre.ttf
2002.818	n/a	START	1001409	n/a	LTP236	ltpFR	12	n/a	n/a	n/a	n/a	n/a	n/a	n/a	n/a	n/a	n/a	n/a	n/a	n/a	n/a	n/a	n/a
2003.94	n/a	PROB	1001970	n/a	LTP236	ltpFR	12	n/a	n/a	n/a	n/a	n/a	n/a	n/a	15	7	6	2	n/a	n/a	n/a	n/a	n/a
2005.578	n/a	PROB	1002789	n/a	LTP236	ltpFR	12	n/a	n/a	n/a	n/a	n/a	n/a	n/a	12	7	3	2	n/a	n/a	n/a	n/a	n/a
2006.568	n/a	PROB	1003284	n/a	LTP236	ltpFR	12	n/a	n/a	n/a	n/a	n/a	n/a	n/a	7	3	1	3	n/a	n/a	n/a	n/a	n/a
2007.934	n/a	PROB	1003967	n/a	LTP236	ltpFR	12	n/a	n/a	n/a	n/a	n/a	n/a	n/a	22	9	8	5	n/a	n/a	n/a	n/a	n/a
2009.274	n/a	PROB	1004637	n/a	LTP236	ltpFR	12	n/a	n/a	n/a	n/a	n/a	n/a	n/a	21	8	6	7	n/a	n/a	n/a	n/a	n/a
2010.5	n/a	STOP	1005250	n/a	LTP236	ltpFR	12	n/a	n/a	n/a	n/a	n/a	n/a	n/a	n/a	n/a	n/a	n/a	n/a	n/a	n/a	n/a	n/a
2011.75	n/a	WORD	1005875	wordpools/wasnorm_wordpool_less_exclusions.txt	LTP236	ltpFR	12	8	1	MAILBOX	857	n/a	n/a	0	n/a	0	0	0	0.422607421875	0.5869140625	0	lower	zerothre.ttf
2014.766	n/a	START	1007383	n/a	LTP236	ltpFR	12	n/a	n/a	n/a	n/a	n/a	n/a	n/a	n/a	n/a	n/a	n/a	n/a	n/a	n/a	n/a	n/a
2015.702	n/a	PROB	1007851	n/a	LTP236	ltpFR	12	n/a	n/a	n/a	n/a	n/a	n/a	n/a	24	7	8	9	n/a	n/a	n/a	n/a	n/a
2017.588	n/a	PROB	1008794	n/a	LTP236	ltpFR	12	n/a	n/a	n/a	n/a	n/a	n/a	n/a	15	2	6	7	n/a	n/a	n/a	n/a	n/a
2018.96	n/a	PROB	1009480	n/a	LTP236	ltpFR	12	n/a	n/a	n/a	n/a	n/a	n/a	n/a	6	1	4	1	n/a	n/a	n/a	n/a	n/a
2019.984	n/a	PROB	1009992	n/a	LTP236	ltpFR	12	n/a	n/a	n/a	n/a	n/a	n/a	n/a	11	1	8	2	n/a	n/a	n/a	n/a	n/a
2021.318	n/a	STOP	1010659	n/a	LTP236	ltpFR	12	n/a	n/a	n/a	n/a	n/a	n/a	n/a	n/a	n/a	n/a	n/a	n/a	n/a	n/a	n/a	n/a
2023.934	n/a	WORD	1011967	wordpools/wasnorm_wordpool_less_exclusions.txt	LTP236	ltpFR	12	8	1	SPRINKLE	1359	n/a	n/a	0	n/a	0	0	0	0.422607421875	0.5869140625	0	lower	zerothre.ttf
2026.946	n/a	START	1013473	n/a	LTP236	ltpFR	12	n/a	n/a	n/a	n/a	n/a	n/a	n/a	n/a	n/a	n/a	n/a	n/a	n/a	n/a	n/a	n/a
2028.082	n/a	PROB	1014041	n/a	LTP236	ltpFR	12	n/a	n/a	n/a	n/a	n/a	n/a	n/a	20	6	7	7	n/a	n/a	n/a	n/a	n/a
2029.802	n/a	PROB	1014901	n/a	LTP236	ltpFR	12	n/a	n/a	n/a	n/a	n/a	n/a	n/a	20	8	7	5	n/a	n/a	n/a	n/a	n/a
2032.098	n/a	PROB	1016049	n/a	LTP236	ltpFR	12	n/a	n/a	n/a	n/a	n/a	n/a	n/a	9	2	3	4	n/a	n/a	n/a	n/a	n/a
2034.946	n/a	STOP	1017473	n/a	LTP236	ltpFR	12	n/a	n/a	n/a	n/a	n/a	n/a	n/a	n/a	n/a	n/a	n/a	n/a	n/a	n/a	n/a	n/a
2035.946	n/a	WORD	1017973	wordpools/wasnorm_wordpool_less_exclusions.txt	LTP236	ltpFR	12	8	1	ACTRESS	6	n/a	n/a	1	n/a	0	0	0	0.422607421875	0.5869140625	0	lower	zerothre.ttf
2038.958	n/a	START	1019479	n/a	LTP236	ltpFR	12	n/a	n/a	n/a	n/a	n/a	n/a	n/a	n/a	n/a	n/a	n/a	n/a	n/a	n/a	n/a	n/a
2040.074	n/a	PROB	1020037	n/a	LTP236	ltpFR	12	n/a	n/a	n/a	n/a	n/a	n/a	n/a	12	6	3	3	n/a	n/a	n/a	n/a	n/a
2041.434	n/a	PROB	1020717	n/a	LTP236	ltpFR	12	n/a	n/a	n/a	n/a	n/a	n/a	n/a	11	2	8	1	n/a	n/a	n/a	n/a	n/a
2042.384	n/a	PROB	1021192	n/a	LTP236	ltpFR	12	n/a	n/a	n/a	n/a	n/a	n/a	n/a	6	2	1	3	n/a	n/a	n/a	n/a	n/a
2043.372	n/a	PROB	1021686	n/a	LTP236	ltpFR	12	n/a	n/a	n/a	n/a	n/a	n/a	n/a	23	9	7	7	n/a	n/a	n/a	n/a	n/a
2045.21	n/a	PROB	1022605	n/a	LTP236	ltpFR	12	n/a	n/a	n/a	n/a	n/a	n/a	n/a	11	2	3	6	n/a	n/a	n/a	n/a	n/a
2046.302	n/a	STOP	1023151	n/a	LTP236	ltpFR	12	n/a	n/a	n/a	n/a	n/a	n/a	n/a	n/a	n/a	n/a	n/a	n/a	n/a	n/a	n/a	n/a
2047.824	n/a	WORD	1023912	wordpools/wasnorm_wordpool_less_exclusions.txt	LTP236	ltpFR	12	8	1	PIRATE	1074	n/a	n/a	1	n/a	0	0	0	0.422607421875	0.5869140625	0	lower	zerothre.ttf
2050.836	n/a	START	1025418	n/a	LTP236	ltpFR	12	n/a	n/a	n/a	n/a	n/a	n/a	n/a	n/a	n/a	n/a	n/a	n/a	n/a	n/a	n/a	n/a
2051.674	n/a	PROB	1025837	n/a	LTP236	ltpFR	12	n/a	n/a	n/a	n/a	n/a	n/a	n/a	15	1	5	9	n/a	n/a	n/a	n/a	n/a
2053.258	n/a	PROB	1026629	n/a	LTP236	ltpFR	12	n/a	n/a	n/a	n/a	n/a	n/a	n/a	13	2	5	6	n/a	n/a	n/a	n/a	n/a
2054.734	n/a	PROB	1027367	n/a	LTP236	ltpFR	12	n/a	n/a	n/a	n/a	n/a	n/a	n/a	13	3	6	4	n/a	n/a	n/a	n/a	n/a
2055.968	n/a	PROB	1027984	n/a	LTP236	ltpFR	12	n/a	n/a	n/a	n/a	n/a	n/a	n/a	14	8	3	3	n/a	n/a	n/a	n/a	n/a
2058.836	n/a	STOP	1029418	n/a	LTP236	ltpFR	12	n/a	n/a	n/a	n/a	n/a	n/a	n/a	n/a	n/a	n/a	n/a	n/a	n/a	n/a	n/a	n/a
2059.886	n/a	WORD	1029943	wordpools/wasnorm_wordpool_less_exclusions.txt	LTP236	ltpFR	12	8	1	SURF	1412	n/a	n/a	0	n/a	0	0	0	0.422607421875	0.5869140625	0	lower	zerothre.ttf
2062.9	n/a	START	1031450	n/a	LTP236	ltpFR	12	n/a	n/a	n/a	n/a	n/a	n/a	n/a	n/a	n/a	n/a	n/a	n/a	n/a	n/a	n/a	n/a
2063.92	n/a	PROB	1031960	n/a	LTP236	ltpFR	12	n/a	n/a	n/a	n/a	n/a	n/a	n/a	14	6	6	2	n/a	n/a	n/a	n/a	n/a
2065.238	n/a	PROB	1032619	n/a	LTP236	ltpFR	12	n/a	n/a	n/a	n/a	n/a	n/a	n/a	15	6	1	8	n/a	n/a	n/a	n/a	n/a
2067.178	n/a	PROB	1033589	n/a	LTP236	ltpFR	12	n/a	n/a	n/a	n/a	n/a	n/a	n/a	13	5	3	5	n/a	n/a	n/a	n/a	n/a
2068.6	n/a	PROB	1034300	n/a	LTP236	ltpFR	12	n/a	n/a	n/a	n/a	n/a	n/a	n/a	19	6	6	7	n/a	n/a	n/a	n/a	n/a
2070.022	n/a	STOP	1035011	n/a	LTP236	ltpFR	12	n/a	n/a	n/a	n/a	n/a	n/a	n/a	n/a	n/a	n/a	n/a	n/a	n/a	n/a	n/a	n/a
2072.67	n/a	REC_START	1036335	n/a	LTP236	ltpFR	12	8	n/a	n/a	n/a	n/a	n/a	n/a	n/a	0	0	0	n/a	n/a	n/a	n/a	n/a
2074.362	n/a	REC_WORD	1037181	wordpools/wasnorm_wordpool_less_exclusions.txt	LTP236	ltpFR	12	8	1	SURF	1412	n/a	n/a	0	n/a	0	0	0	n/a	n/a	n/a	n/a	n/a
2075.284	n/a	REC_WORD	1037642	wordpools/wasnorm_wordpool_less_exclusions.txt	LTP236	ltpFR	12	8	1	PIRATE	1074	n/a	n/a	1	n/a	0	0	0	n/a	n/a	n/a	n/a	n/a
2076.816	n/a	REC_WORD	1038408	wordpools/wasnorm_wordpool_less_exclusions.txt	LTP236	ltpFR	12	8	1	ACTRESS	6	n/a	n/a	1	n/a	0	0	0	n/a	n/a	n/a	n/a	n/a
2077.816	n/a	REC_WORD_VV	1038908	wordpools/wasnorm_wordpool_less_exclusions.txt	LTP236	ltpFR	12	8	n/a	<>	-1	n/a	n/a	n/a	n/a	0	0	0	n/a	n/a	n/a	n/a	n/a
2081.472	n/a	REC_WORD	1040736	wordpools/wasnorm_wordpool_less_exclusions.txt	LTP236	ltpFR	12	8	1	PENCIL	1042	n/a	n/a	0	n/a	0	0	0	n/a	n/a	n/a	n/a	n/a
2082.698	n/a	REC_WORD	1041349	wordpools/wasnorm_wordpool_less_exclusions.txt	LTP236	ltpFR	12	8	1	PADDLE	1000	n/a	n/a	0	n/a	0	0	0	n/a	n/a	n/a	n/a	n/a
2086.21	n/a	REC_WORD	1043105	wordpools/wasnorm_wordpool_less_exclusions.txt	LTP236	ltpFR	12	8	1	MONARCH	906	n/a	n/a	0	n/a	0	0	0	n/a	n/a	n/a	n/a	n/a
2120.056	n/a	REC_WORD	1060028	wordpools/wasnorm_wordpool_less_exclusions.txt	LTP236	ltpFR	12	8	1	THRONE	1461	n/a	n/a	0	n/a	0	0	0	n/a	n/a	n/a	n/a	n/a
2151.354	n/a	WORD	1075677	wordpools/wasnorm_wordpool_less_exclusions.txt	LTP236	ltpFR	12	9	0	JAW	751	n/a	n/a	0	n/a	0	0	0	0.57763671875	0.412841796875	1	upper	amplitud.ttf
2155.42	n/a	WORD	1077710	wordpools/wasnorm_wordpool_less_exclusions.txt	LTP236	ltpFR	12	9	0	LIZARD	834	n/a	n/a	0	n/a	0	0	0	0.57763671875	0.412841796875	1	upper	amplitud.ttf
2159.602	n/a	WORD	1079801	wordpools/wasnorm_wordpool_less_exclusions.txt	LTP236	ltpFR	12	9	0	SERPENT	1270	n/a	n/a	0	n/a	0	0	0	0.57763671875	0.412841796875	1	upper	amplitud.ttf
2163.652	n/a	WORD	1081826	wordpools/wasnorm_wordpool_less_exclusions.txt	LTP236	ltpFR	12	9	0	SCRIBBLE	1256	n/a	n/a	0	n/a	0	0	0	0.57763671875	0.412841796875	1	upper	amplitud.ttf
2167.65	n/a	WORD	1083825	wordpools/wasnorm_wordpool_less_exclusions.txt	LTP236	ltpFR	12	9	1	TECHNICIAN	1443	n/a	n/a	1	n/a	0	0	0	0.422607421875	0.5869140625	0	lower	zerothre.ttf
2171.648	n/a	WORD	1085824	wordpools/wasnorm_wordpool_less_exclusions.txt	LTP236	ltpFR	12	9	1	CONDUCTOR	362	n/a	n/a	1	n/a	0	0	0	0.422607421875	0.5869140625	0	lower	zerothre.ttf
2175.796	n/a	WORD	1087898	wordpools/wasnorm_wordpool_less_exclusions.txt	LTP236	ltpFR	12	9	1	OBOE	969	n/a	n/a	0	n/a	0	0	0	0.422607421875	0.5869140625	0	lower	zerothre.ttf
2179.878	n/a	WORD	1089939	wordpools/wasnorm_wordpool_less_exclusions.txt	LTP236	ltpFR	12	9	1	CREVICE	405	n/a	n/a	0	n/a	0	0	0	0.422607421875	0.5869140625	0	lower	zerothre.ttf
2184.028	n/a	WORD	1092014	wordpools/wasnorm_wordpool_less_exclusions.txt	LTP236	ltpFR	12	9	1	EAR	513	n/a	n/a	0	n/a	0	0	0	0.422607421875	0.5869140625	0	lower	zerothre.ttf
2188.01	n/a	WORD	1094005	wordpools/wasnorm_wordpool_less_exclusions.txt	LTP236	ltpFR	12	9	1	TENT	1449	n/a	n/a	1	n/a	0	0	0	0.422607421875	0.5869140625	0	lower	zerothre.ttf
2191.958	n/a	WORD	1095979	wordpools/wasnorm_wordpool_less_exclusions.txt	LTP236	ltpFR	12	9	0	BANJO	82	n/a	n/a	1	n/a	0	0	0	0.57763671875	0.412841796875	1	upper	amplitud.ttf
2195.906	n/a	WORD	1097953	wordpools/wasnorm_wordpool_less_exclusions.txt	LTP236	ltpFR	12	9	0	TIE	1466	n/a	n/a	0	n/a	0	0	0	0.57763671875	0.412841796875	1	upper	amplitud.ttf
2199.856	n/a	WORD	1099928	wordpools/wasnorm_wordpool_less_exclusions.txt	LTP236	ltpFR	12	9	0	BANDANNA	80	n/a	n/a	1	n/a	0	0	0	0.57763671875	0.412841796875	1	upper	amplitud.ttf
2203.954	n/a	WORD	1101977	wordpools/wasnorm_wordpool_less_exclusions.txt	LTP236	ltpFR	12	9	0	EYE	545	n/a	n/a	0	n/a	0	0	0	0.57763671875	0.412841796875	1	upper	amplitud.ttf
2208.17	n/a	WORD	1104085	wordpools/wasnorm_wordpool_less_exclusions.txt	LTP236	ltpFR	12	9	1	LOG	841	n/a	n/a	0	n/a	0	0	0	0.422607421875	0.5869140625	0	lower	zerothre.ttf
2212.316	n/a	WORD	1106158	wordpools/wasnorm_wordpool_less_exclusions.txt	LTP236	ltpFR	12	9	1	TRUMPET	1513	n/a	n/a	0	n/a	0	0	0	0.422607421875	0.5869140625	0	lower	zerothre.ttf
2215.332	n/a	START	1107666	n/a	LTP236	ltpFR	12	n/a	n/a	n/a	n/a	n/a	n/a	n/a	n/a	n/a	n/a	n/a	n/a	n/a	n/a	n/a	n/a
2216.386	n/a	PROB	1108193	n/a	LTP236	ltpFR	12	n/a	n/a	n/a	n/a	n/a	n/a	n/a	11	4	4	3	n/a	n/a	n/a	n/a	n/a
2217.958	n/a	PROB	1108979	n/a	LTP236	ltpFR	12	n/a	n/a	n/a	n/a	n/a	n/a	n/a	13	8	3	2	n/a	n/a	n/a	n/a	n/a
2223.332	n/a	STOP	1111666	n/a	LTP236	ltpFR	12	n/a	n/a	n/a	n/a	n/a	n/a	n/a	n/a	n/a	n/a	n/a	n/a	n/a	n/a	n/a	n/a
2225.136	n/a	REC_START	1112568	n/a	LTP236	ltpFR	12	9	n/a	n/a	n/a	n/a	n/a	n/a	n/a	0	0	0	n/a	n/a	n/a	n/a	n/a
2226.518	n/a	REC_WORD	1113259	wordpools/wasnorm_wordpool_less_exclusions.txt	LTP236	ltpFR	12	9	1	TRUMPET	1513	n/a	n/a	0	n/a	0	0	0	n/a	n/a	n/a	n/a	n/a
2228.552	n/a	REC_WORD	1114276	wordpools/wasnorm_wordpool_less_exclusions.txt	LTP236	ltpFR	12	9	1	OBOE	969	n/a	n/a	0	n/a	0	0	0	n/a	n/a	n/a	n/a	n/a
2230.064	n/a	REC_WORD	1115032	wordpools/wasnorm_wordpool_less_exclusions.txt	LTP236	ltpFR	12	9	0	BANJO	82	n/a	n/a	1	n/a	0	0	0	n/a	n/a	n/a	n/a	n/a
2233.028	n/a	REC_WORD	1116514	wordpools/wasnorm_wordpool_less_exclusions.txt	LTP236	ltpFR	12	9	1	CREVICE	405	n/a	n/a	0	n/a	0	0	0	n/a	n/a	n/a	n/a	n/a
2238.056	n/a	REC_WORD	1119028	wordpools/wasnorm_wordpool_less_exclusions.txt	LTP236	ltpFR	12	9	0	LIZARD	834	n/a	n/a	0	n/a	0	0	0	n/a	n/a	n/a	n/a	n/a
2239.752	n/a	REC_WORD	1119876	wordpools/wasnorm_wordpool_less_exclusions.txt	LTP236	ltpFR	12	9	0	SERPENT	1270	n/a	n/a	0	n/a	0	0	0	n/a	n/a	n/a	n/a	n/a
2267.59	n/a	REC_WORD	1133795	wordpools/wasnorm_wordpool_less_exclusions.txt	LTP236	ltpFR	12	9	0	TIE	1466	n/a	n/a	0	n/a	0	0	0	n/a	n/a	n/a	n/a	n/a
2302.348	n/a	START	1151174	n/a	LTP236	ltpFR	12	n/a	n/a	n/a	n/a	n/a	n/a	n/a	n/a	n/a	n/a	n/a	n/a	n/a	n/a	n/a	n/a
2303.866	n/a	PROB	1151933	n/a	LTP236	ltpFR	12	n/a	n/a	n/a	n/a	n/a	n/a	n/a	18	6	5	7	n/a	n/a	n/a	n/a	n/a
2305.54	n/a	PROB	1152770	n/a	LTP236	ltpFR	12	n/a	n/a	n/a	n/a	n/a	n/a	n/a	21	8	9	4	n/a	n/a	n/a	n/a	n/a
2307.128	n/a	PROB	1153564	n/a	LTP236	ltpFR	12	n/a	n/a	n/a	n/a	n/a	n/a	n/a	16	1	8	7	n/a	n/a	n/a	n/a	n/a
2308.634	n/a	PROB	1154317	n/a	LTP236	ltpFR	12	n/a	n/a	n/a	n/a	n/a	n/a	n/a	21	6	7	8	n/a	n/a	n/a	n/a	n/a
2309.926	n/a	PROB	1154963	n/a	LTP236	ltpFR	12	n/a	n/a	n/a	n/a	n/a	n/a	n/a	22	6	8	8	n/a	n/a	n/a	n/a	n/a
2311.566	n/a	PROB	1155783	n/a	LTP236	ltpFR	12	n/a	n/a	n/a	n/a	n/a	n/a	n/a	6	2	1	3	n/a	n/a	n/a	n/a	n/a
2312.55	n/a	PROB	1156275	n/a	LTP236	ltpFR	12	n/a	n/a	n/a	n/a	n/a	n/a	n/a	20	9	3	8	n/a	n/a	n/a	n/a	n/a
2314.29	n/a	PROB	1157145	n/a	LTP236	ltpFR	12	n/a	n/a	n/a	n/a	n/a	n/a	n/a	14	7	6	1	n/a	n/a	n/a	n/a	n/a
2315.344	n/a	PROB	1157672	n/a	LTP236	ltpFR	12	n/a	n/a	n/a	n/a	n/a	n/a	n/a	19	9	7	3	n/a	n/a	n/a	n/a	n/a
2316.498	n/a	PROB	1158249	n/a	LTP236	ltpFR	12	n/a	n/a	n/a	n/a	n/a	n/a	n/a	12	6	2	4	n/a	n/a	n/a	n/a	n/a
