mstime	trial_type	stim_file	subject	experiment	session	trial	item_name	item_num	list	answer	test_x	test_y	test_z
0	SESS_START	n/a	LTP354	ltpFR2	15	n/a	n/a	n/a	n/a	n/a	0	0	0
13247	START	n/a	LTP354	ltpFR2	15	n/a	n/a	n/a	-1	n/a	n/a	n/a	n/a
25247	STOP	n/a	LTP354	ltpFR2	15	n/a	n/a	n/a	-1	n/a	n/a	n/a	n/a
62386	DISTRACTOR	n/a	LTP354	ltpFR2	15	1	n/a	n/a	n/a	n/a	0	0	0
62387	START	n/a	LTP354	ltpFR2	15	n/a	n/a	n/a	1	n/a	n/a	n/a	n/a
62403	PROB	n/a	LTP354	ltpFR2	15	n/a	n/a	n/a	1	15	4	7	4
63918	PROB	n/a	LTP354	ltpFR2	15	n/a	n/a	n/a	1	24	9	6	9
65718	PROB	n/a	LTP354	ltpFR2	15	n/a	n/a	n/a	1	11	3	4	4
67033	PROB	n/a	LTP354	ltpFR2	15	n/a	n/a	n/a	1	9	1	7	1
68066	PROB	n/a	LTP354	ltpFR2	15	n/a	n/a	n/a	1	16	5	4	7
70281	PROB	n/a	LTP354	ltpFR2	15	n/a	n/a	n/a	1	19	1	9	9
71682	PROB	n/a	LTP354	ltpFR2	15	n/a	n/a	n/a	1	6	3	1	2
72698	PROB	n/a	LTP354	ltpFR2	15	n/a	n/a	n/a	1	16	9	5	2
73880	PROB	n/a	LTP354	ltpFR2	15	n/a	n/a	n/a	1	16	9	4	3
75413	PROB	n/a	LTP354	ltpFR2	15	n/a	n/a	n/a	1	19	8	4	7
76729	PROB	n/a	LTP354	ltpFR2	15	n/a	n/a	n/a	1	22	9	4	9
77928	PROB	n/a	LTP354	ltpFR2	15	n/a	n/a	n/a	1	13	4	7	2
79361	PROB	n/a	LTP354	ltpFR2	15	n/a	n/a	n/a	1	15	6	8	1
81043	PROB	n/a	LTP354	ltpFR2	15	n/a	n/a	n/a	1	11	2	1	8
82042	PROB	n/a	LTP354	ltpFR2	15	n/a	n/a	n/a	1	19	5	8	6
83192	PROB	n/a	LTP354	ltpFR2	15	n/a	n/a	n/a	1	15	3	7	5
84158	PROB	n/a	LTP354	ltpFR2	15	n/a	n/a	n/a	1	10	4	2	4
85257	STOP	n/a	LTP354	ltpFR2	15	n/a	n/a	n/a	1	n/a	n/a	n/a	n/a
87357	WORD	wordpools/wasnorm_wordpool_576.txt	LTP354	ltpFR2	15	1	IDOL	733	n/a	n/a	0	0	0
89888	WORD	wordpools/wasnorm_wordpool_576.txt	LTP354	ltpFR2	15	1	HOOK	715	n/a	n/a	0	0	0
92571	WORD	wordpools/wasnorm_wordpool_576.txt	LTP354	ltpFR2	15	1	THREAD	1460	n/a	n/a	0	0	0
95152	WORD	wordpools/wasnorm_wordpool_576.txt	LTP354	ltpFR2	15	1	CHAUFFEUR	283	n/a	n/a	0	0	0
97851	WORD	wordpools/wasnorm_wordpool_576.txt	LTP354	ltpFR2	15	1	FIREMAN	569	n/a	n/a	0	0	0
100351	WORD	wordpools/wasnorm_wordpool_576.txt	LTP354	ltpFR2	15	1	WIDOW	1608	n/a	n/a	0	0	0
102915	WORD	wordpools/wasnorm_wordpool_576.txt	LTP354	ltpFR2	15	1	MAMMAL	861	n/a	n/a	0	0	0
105465	WORD	wordpools/wasnorm_wordpool_576.txt	LTP354	ltpFR2	15	1	OFFICE	972	n/a	n/a	0	0	0
108196	WORD	wordpools/wasnorm_wordpool_576.txt	LTP354	ltpFR2	15	1	WORKER	1621	n/a	n/a	0	0	0
110629	WORD	wordpools/wasnorm_wordpool_576.txt	LTP354	ltpFR2	15	1	DENTIST	447	n/a	n/a	0	0	0
113210	WORD	wordpools/wasnorm_wordpool_576.txt	LTP354	ltpFR2	15	1	CROSS	413	n/a	n/a	0	0	0
115660	WORD	wordpools/wasnorm_wordpool_576.txt	LTP354	ltpFR2	15	1	ASIA	46	n/a	n/a	0	0	0
118124	WORD	wordpools/wasnorm_wordpool_576.txt	LTP354	ltpFR2	15	1	CABIN	211	n/a	n/a	0	0	0
120873	WORD	wordpools/wasnorm_wordpool_576.txt	LTP354	ltpFR2	15	1	PEDAL	1037	n/a	n/a	0	0	0
123489	WORD	wordpools/wasnorm_wordpool_576.txt	LTP354	ltpFR2	15	1	BIKE	125	n/a	n/a	0	0	0
126070	WORD	wordpools/wasnorm_wordpool_576.txt	LTP354	ltpFR2	15	1	TRENCH	1503	n/a	n/a	0	0	0
128537	WORD	wordpools/wasnorm_wordpool_576.txt	LTP354	ltpFR2	15	1	FRECKLE	602	n/a	n/a	0	0	0
131001	WORD	wordpools/wasnorm_wordpool_576.txt	LTP354	ltpFR2	15	1	GLOVE	642	n/a	n/a	0	0	0
133734	WORD	wordpools/wasnorm_wordpool_576.txt	LTP354	ltpFR2	15	1	LODGE	839	n/a	n/a	0	0	0
136182	WORD	wordpools/wasnorm_wordpool_576.txt	LTP354	ltpFR2	15	1	BEAKER	104	n/a	n/a	0	0	0
138781	WORD	wordpools/wasnorm_wordpool_576.txt	LTP354	ltpFR2	15	1	TREAT	1501	n/a	n/a	0	0	0
141480	WORD	wordpools/wasnorm_wordpool_576.txt	LTP354	ltpFR2	15	1	STONE	1385	n/a	n/a	0	0	0
143995	WORD	wordpools/wasnorm_wordpool_576.txt	LTP354	ltpFR2	15	1	FIREPLACE	570	n/a	n/a	0	0	0
146810	WORD	wordpools/wasnorm_wordpool_576.txt	LTP354	ltpFR2	15	1	FRIEND	606	n/a	n/a	0	0	0
148427	START	n/a	LTP354	ltpFR2	15	n/a	n/a	n/a	2	n/a	n/a	n/a	n/a
149580	DISTRACTOR	n/a	LTP354	ltpFR2	15	1	n/a	n/a	n/a	n/a	0	0	0
149593	PROB	n/a	LTP354	ltpFR2	15	n/a	n/a	n/a	2	12	1	3	8
151191	PROB	n/a	LTP354	ltpFR2	15	n/a	n/a	n/a	2	11	9	1	1
152325	PROB	n/a	LTP354	ltpFR2	15	n/a	n/a	n/a	2	15	8	5	2
153441	PROB	n/a	LTP354	ltpFR2	15	n/a	n/a	n/a	2	5	1	3	1
154724	PROB	n/a	LTP354	ltpFR2	15	n/a	n/a	n/a	2	18	4	7	7
156323	PROB	n/a	LTP354	ltpFR2	15	n/a	n/a	n/a	2	20	9	2	9
157473	PROB	n/a	LTP354	ltpFR2	15	n/a	n/a	n/a	2	18	7	3	8
158405	PROB	n/a	LTP354	ltpFR2	15	n/a	n/a	n/a	2	20	4	9	7
160504	PROB	n/a	LTP354	ltpFR2	15	n/a	n/a	n/a	2	27	9	9	9
161604	PROB	n/a	LTP354	ltpFR2	15	n/a	n/a	n/a	2	12	8	3	1
162537	PROB	n/a	LTP354	ltpFR2	15	n/a	n/a	n/a	2	4	2	1	1
163303	PROB	n/a	LTP354	ltpFR2	15	n/a	n/a	n/a	2	16	8	1	7
164268	PROB	n/a	LTP354	ltpFR2	15	n/a	n/a	n/a	2	10	1	4	5
167000	PROB	n/a	LTP354	ltpFR2	15	n/a	n/a	n/a	2	15	2	6	7
168183	PROB	n/a	LTP354	ltpFR2	15	n/a	n/a	n/a	2	8	2	4	2
169733	PROB	n/a	LTP354	ltpFR2	15	n/a	n/a	n/a	2	14	1	8	5
171009	STOP	n/a	LTP354	ltpFR2	15	n/a	n/a	n/a	2	n/a	n/a	n/a	n/a
174264	REC_START	n/a	LTP354	ltpFR2	15	1	n/a	n/a	n/a	n/a	0	0	0
177948	REC_WORD	wordpools/wasnorm_wordpool_576.txt	LTP354	ltpFR2	15	1	IDOL	733	n/a	n/a	0	0	0
179909	REC_WORD	wordpools/wasnorm_wordpool_576.txt	LTP354	ltpFR2	15	1	BEAKER	104	n/a	n/a	0	0	0
182107	REC_WORD	wordpools/wasnorm_wordpool_576.txt	LTP354	ltpFR2	15	1	CHAUFFEUR	283	n/a	n/a	0	0	0
183521	REC_WORD	wordpools/wasnorm_wordpool_576.txt	LTP354	ltpFR2	15	1	LODGE	839	n/a	n/a	0	0	0
185413	REC_WORD	wordpools/wasnorm_wordpool_576.txt	LTP354	ltpFR2	15	1	THREAD	1460	n/a	n/a	0	0	0
264703	DISTRACTOR	n/a	LTP354	ltpFR2	15	2	n/a	n/a	n/a	n/a	0	0	0
264703	START	n/a	LTP354	ltpFR2	15	n/a	n/a	n/a	3	n/a	n/a	n/a	n/a
264719	PROB	n/a	LTP354	ltpFR2	15	n/a	n/a	n/a	3	9	3	2	4
266884	PROB	n/a	LTP354	ltpFR2	15	n/a	n/a	n/a	3	11	3	5	3
268584	PROB	n/a	LTP354	ltpFR2	15	n/a	n/a	n/a	3	20	9	7	4
270882	PROB	n/a	LTP354	ltpFR2	15	n/a	n/a	n/a	3	22	8	9	5
272781	PROB	n/a	LTP354	ltpFR2	15	n/a	n/a	n/a	3	16	6	9	1
273864	PROB	n/a	LTP354	ltpFR2	15	n/a	n/a	n/a	3	21	7	5	9
275464	PROB	n/a	LTP354	ltpFR2	15	n/a	n/a	n/a	3	20	7	8	5
277446	PROB	n/a	LTP354	ltpFR2	15	n/a	n/a	n/a	3	12	2	6	4
278512	PROB	n/a	LTP354	ltpFR2	15	n/a	n/a	n/a	3	10	3	5	2
279595	PROB	n/a	LTP354	ltpFR2	15	n/a	n/a	n/a	3	14	3	6	5
280944	PROB	n/a	LTP354	ltpFR2	15	n/a	n/a	n/a	3	13	6	5	2
282126	PROB	n/a	LTP354	ltpFR2	15	n/a	n/a	n/a	3	1	9	5	4
283792	PROB	n/a	LTP354	ltpFR2	15	n/a	n/a	n/a	3	14	2	3	9
286124	PROB	n/a	LTP354	ltpFR2	15	n/a	n/a	n/a	3	11	2	1	8
288702	STOP	n/a	LTP354	ltpFR2	15	n/a	n/a	n/a	3	n/a	n/a	n/a	n/a
289889	WORD	wordpools/wasnorm_wordpool_576.txt	LTP354	ltpFR2	15	2	CRAYON	401	n/a	n/a	0	0	0
292539	WORD	wordpools/wasnorm_wordpool_576.txt	LTP354	ltpFR2	15	2	PASTRY	1022	n/a	n/a	0	0	0
294970	WORD	wordpools/wasnorm_wordpool_576.txt	LTP354	ltpFR2	15	2	SIDEWALK	1303	n/a	n/a	0	0	0
297586	WORD	wordpools/wasnorm_wordpool_576.txt	LTP354	ltpFR2	15	2	GUITAR	670	n/a	n/a	0	0	0
300352	WORD	wordpools/wasnorm_wordpool_576.txt	LTP354	ltpFR2	15	2	BALLOON	75	n/a	n/a	0	0	0
302866	WORD	wordpools/wasnorm_wordpool_576.txt	LTP354	ltpFR2	15	2	PLUTO	1092	n/a	n/a	0	0	0
305449	WORD	wordpools/wasnorm_wordpool_576.txt	LTP354	ltpFR2	15	2	PLAZA	1088	n/a	n/a	0	0	0
308197	WORD	wordpools/wasnorm_wordpool_576.txt	LTP354	ltpFR2	15	2	UNCLE	1536	n/a	n/a	0	0	0
310630	WORD	wordpools/wasnorm_wordpool_576.txt	LTP354	ltpFR2	15	2	TUTU	1524	n/a	n/a	0	0	0
313294	WORD	wordpools/wasnorm_wordpool_576.txt	LTP354	ltpFR2	15	2	REBEL	1172	n/a	n/a	0	0	0
315860	WORD	wordpools/wasnorm_wordpool_576.txt	LTP354	ltpFR2	15	2	ICING	732	n/a	n/a	0	0	0
318376	WORD	wordpools/wasnorm_wordpool_576.txt	LTP354	ltpFR2	15	2	NOMAD	955	n/a	n/a	0	0	0
321157	WORD	wordpools/wasnorm_wordpool_576.txt	LTP354	ltpFR2	15	2	PLATE	1086	n/a	n/a	0	0	0
323590	WORD	wordpools/wasnorm_wordpool_576.txt	LTP354	ltpFR2	15	2	POSTAGE	1113	n/a	n/a	0	0	0
326088	WORD	wordpools/wasnorm_wordpool_576.txt	LTP354	ltpFR2	15	2	STAMP	1370	n/a	n/a	0	0	0
328786	WORD	wordpools/wasnorm_wordpool_576.txt	LTP354	ltpFR2	15	2	SCARF	1246	n/a	n/a	0	0	0
331235	WORD	wordpools/wasnorm_wordpool_576.txt	LTP354	ltpFR2	15	2	ICEBERG	731	n/a	n/a	0	0	0
334001	WORD	wordpools/wasnorm_wordpool_576.txt	LTP354	ltpFR2	15	2	BLOCKADE	137	n/a	n/a	0	0	0
336667	WORD	wordpools/wasnorm_wordpool_576.txt	LTP354	ltpFR2	15	2	BRICK	172	n/a	n/a	0	0	0
339366	WORD	wordpools/wasnorm_wordpool_576.txt	LTP354	ltpFR2	15	2	LUNCH	849	n/a	n/a	0	0	0
341997	WORD	wordpools/wasnorm_wordpool_576.txt	LTP354	ltpFR2	15	2	GARBAGE	622	n/a	n/a	0	0	0
344430	WORD	wordpools/wasnorm_wordpool_576.txt	LTP354	ltpFR2	15	2	WHISTLE	1606	n/a	n/a	0	0	0
347227	WORD	wordpools/wasnorm_wordpool_576.txt	LTP354	ltpFR2	15	2	COOK	372	n/a	n/a	0	0	0
349843	WORD	wordpools/wasnorm_wordpool_576.txt	LTP354	ltpFR2	15	2	SHIRT	1287	n/a	n/a	0	0	0
351460	START	n/a	LTP354	ltpFR2	15	n/a	n/a	n/a	4	n/a	n/a	n/a	n/a
352634	DISTRACTOR	n/a	LTP354	ltpFR2	15	2	n/a	n/a	n/a	n/a	0	0	0
352642	PROB	n/a	LTP354	ltpFR2	15	n/a	n/a	n/a	4	18	8	3	7
354224	PROB	n/a	LTP354	ltpFR2	15	n/a	n/a	n/a	4	14	4	2	8
355641	PROB	n/a	LTP354	ltpFR2	15	n/a	n/a	n/a	4	10	3	3	4
357206	PROB	n/a	LTP354	ltpFR2	15	n/a	n/a	n/a	4	21	9	3	9
358356	PROB	n/a	LTP354	ltpFR2	15	n/a	n/a	n/a	4	14	7	5	2
359771	PROB	n/a	LTP354	ltpFR2	15	n/a	n/a	n/a	4	11	1	8	2
361588	PROB	n/a	LTP354	ltpFR2	15	n/a	n/a	n/a	4	21	4	8	9
363019	PROB	n/a	LTP354	ltpFR2	15	n/a	n/a	n/a	4	16	6	1	9
364303	PROB	n/a	LTP354	ltpFR2	15	n/a	n/a	n/a	4	8	1	4	3
365285	PROB	n/a	LTP354	ltpFR2	15	n/a	n/a	n/a	4	16	2	6	8
366285	PROB	n/a	LTP354	ltpFR2	15	n/a	n/a	n/a	4	23	7	8	8
368900	PROB	n/a	LTP354	ltpFR2	15	n/a	n/a	n/a	4	14	4	8	2
370367	PROB	n/a	LTP354	ltpFR2	15	n/a	n/a	n/a	4	18	8	3	7
371350	PROB	n/a	LTP354	ltpFR2	15	n/a	n/a	n/a	4	15	1	7	7
372282	PROB	n/a	LTP354	ltpFR2	15	n/a	n/a	n/a	4	18	3	6	9
375459	STOP	n/a	LTP354	ltpFR2	15	n/a	n/a	n/a	4	n/a	n/a	n/a	n/a
377364	REC_START	n/a	LTP354	ltpFR2	15	2	n/a	n/a	n/a	n/a	0	0	0
379042	REC_WORD	wordpools/wasnorm_wordpool_576.txt	LTP354	ltpFR2	15	2	CRAYON	401	n/a	n/a	0	0	0
380312	REC_WORD	wordpools/wasnorm_wordpool_576.txt	LTP354	ltpFR2	15	2	WHISTLE	1606	n/a	n/a	0	0	0
380985	REC_WORD	wordpools/wasnorm_wordpool_576.txt	LTP354	ltpFR2	15	2	COOK	372	n/a	n/a	0	0	0
381729	REC_WORD	wordpools/wasnorm_wordpool_576.txt	LTP354	ltpFR2	15	2	GARBAGE	622	n/a	n/a	0	0	0
383234	REC_WORD	wordpools/wasnorm_wordpool_576.txt	LTP354	ltpFR2	15	2	LUNCH	849	n/a	n/a	0	0	0
385071	REC_WORD	wordpools/wasnorm_wordpool_576.txt	LTP354	ltpFR2	15	2	SHIRT	1287	n/a	n/a	0	0	0
387535	REC_WORD	wordpools/wasnorm_wordpool_576.txt	LTP354	ltpFR2	15	2	UNCLE	1536	n/a	n/a	0	0	0
388673	REC_WORD	wordpools/wasnorm_wordpool_576.txt	LTP354	ltpFR2	15	2	TUTU	1524	n/a	n/a	0	0	0
393875	REC_WORD	wordpools/wasnorm_wordpool_576.txt	LTP354	ltpFR2	15	2	GUITAR	670	n/a	n/a	0	0	0
467818	WORD	wordpools/wasnorm_wordpool_576.txt	LTP354	ltpFR2	15	3	ZEBRA	1635	n/a	n/a	0	0	0
470417	WORD	wordpools/wasnorm_wordpool_576.txt	LTP354	ltpFR2	15	3	CREATURE	403	n/a	n/a	0	0	0
473098	WORD	wordpools/wasnorm_wordpool_576.txt	LTP354	ltpFR2	15	3	COLONEL	348	n/a	n/a	0	0	0
475681	WORD	wordpools/wasnorm_wordpool_576.txt	LTP354	ltpFR2	15	3	CATCHER	258	n/a	n/a	0	0	0
478296	WORD	wordpools/wasnorm_wordpool_576.txt	LTP354	ltpFR2	15	3	AUTHOR	61	n/a	n/a	0	0	0
480861	WORD	wordpools/wasnorm_wordpool_576.txt	LTP354	ltpFR2	15	3	SHELF	1280	n/a	n/a	0	0	0
483644	WORD	wordpools/wasnorm_wordpool_576.txt	LTP354	ltpFR2	15	3	CAPTIVE	240	n/a	n/a	0	0	0
486125	WORD	wordpools/wasnorm_wordpool_576.txt	LTP354	ltpFR2	15	3	YOLK	1633	n/a	n/a	0	0	0
488641	WORD	wordpools/wasnorm_wordpool_576.txt	LTP354	ltpFR2	15	3	FOOT	590	n/a	n/a	0	0	0
491440	WORD	wordpools/wasnorm_wordpool_576.txt	LTP354	ltpFR2	15	3	PARTNER	1017	n/a	n/a	0	0	0
494154	WORD	wordpools/wasnorm_wordpool_576.txt	LTP354	ltpFR2	15	3	DRESSER	496	n/a	n/a	0	0	0
496903	WORD	wordpools/wasnorm_wordpool_576.txt	LTP354	ltpFR2	15	3	LADDER	793	n/a	n/a	0	0	0
499619	WORD	wordpools/wasnorm_wordpool_576.txt	LTP354	ltpFR2	15	3	SPONGE	1355	n/a	n/a	0	0	0
502150	WORD	wordpools/wasnorm_wordpool_576.txt	LTP354	ltpFR2	15	3	TRANSPLANT	1496	n/a	n/a	0	0	0
504667	WORD	wordpools/wasnorm_wordpool_576.txt	LTP354	ltpFR2	15	3	SLIDE	1326	n/a	n/a	0	0	0
507399	WORD	wordpools/wasnorm_wordpool_576.txt	LTP354	ltpFR2	15	3	GREASE	660	n/a	n/a	0	0	0
510030	WORD	wordpools/wasnorm_wordpool_576.txt	LTP354	ltpFR2	15	3	CLAMP	316	n/a	n/a	0	0	0
512513	WORD	wordpools/wasnorm_wordpool_576.txt	LTP354	ltpFR2	15	3	KETCHUP	771	n/a	n/a	0	0	0
515127	WORD	wordpools/wasnorm_wordpool_576.txt	LTP354	ltpFR2	15	3	SCARECROW	1245	n/a	n/a	0	0	0
517627	WORD	wordpools/wasnorm_wordpool_576.txt	LTP354	ltpFR2	15	3	LOVER	846	n/a	n/a	0	0	0
520442	WORD	wordpools/wasnorm_wordpool_576.txt	LTP354	ltpFR2	15	3	ANKLE	24	n/a	n/a	0	0	0
522957	WORD	wordpools/wasnorm_wordpool_576.txt	LTP354	ltpFR2	15	3	SUSPECT	1415	n/a	n/a	0	0	0
525690	WORD	wordpools/wasnorm_wordpool_576.txt	LTP354	ltpFR2	15	3	RACKET	1155	n/a	n/a	0	0	0
528187	WORD	wordpools/wasnorm_wordpool_576.txt	LTP354	ltpFR2	15	3	CIGAR	308	n/a	n/a	0	0	0
529804	START	n/a	LTP354	ltpFR2	15	n/a	n/a	n/a	5	n/a	n/a	n/a	n/a
530805	DISTRACTOR	n/a	LTP354	ltpFR2	15	3	n/a	n/a	n/a	n/a	0	0	0
530819	PROB	n/a	LTP354	ltpFR2	15	n/a	n/a	n/a	5	5	2	2	1
532353	PROB	n/a	LTP354	ltpFR2	15	n/a	n/a	n/a	5	15	8	3	4
533868	PROB	n/a	LTP354	ltpFR2	15	n/a	n/a	n/a	5	18	3	8	7
535017	PROB	n/a	LTP354	ltpFR2	15	n/a	n/a	n/a	5	21	8	9	4
536651	PROB	n/a	LTP354	ltpFR2	15	n/a	n/a	n/a	5	17	8	2	7
537667	PROB	n/a	LTP354	ltpFR2	15	n/a	n/a	n/a	5	17	4	5	8
539865	PROB	n/a	LTP354	ltpFR2	15	n/a	n/a	n/a	5	12	7	1	4
541214	PROB	n/a	LTP354	ltpFR2	15	n/a	n/a	n/a	5	20	4	7	9
543398	PROB	n/a	LTP354	ltpFR2	15	n/a	n/a	n/a	5	17	5	9	3
544779	PROB	n/a	LTP354	ltpFR2	15	n/a	n/a	n/a	5	12	1	3	8
545762	PROB	n/a	LTP354	ltpFR2	15	n/a	n/a	n/a	5	21	9	3	9
546828	PROB	n/a	LTP354	ltpFR2	15	n/a	n/a	n/a	5	13	8	4	1
547894	PROB	n/a	LTP354	ltpFR2	15	n/a	n/a	n/a	5	23	6	9	8
550860	PROB	n/a	LTP354	ltpFR2	15	n/a	n/a	n/a	5	12	2	2	8
553804	STOP	n/a	LTP354	ltpFR2	15	n/a	n/a	n/a	5	n/a	n/a	n/a	n/a
555625	REC_START	n/a	LTP354	ltpFR2	15	3	n/a	n/a	n/a	n/a	0	0	0
560307	REC_WORD	wordpools/wasnorm_wordpool_576.txt	LTP354	ltpFR2	15	3	ZEBRA	1635	n/a	n/a	0	0	0
562909	REC_WORD	wordpools/wasnorm_wordpool_576.txt	LTP354	ltpFR2	15	3	CREATURE	403	n/a	n/a	0	0	0
564458	REC_WORD	wordpools/wasnorm_wordpool_576.txt	LTP354	ltpFR2	15	3	TRANSPLANT	1496	n/a	n/a	0	0	0
568605	REC_WORD	wordpools/wasnorm_wordpool_576.txt	LTP354	ltpFR2	15	3	AUTHOR	61	n/a	n/a	0	0	0
597758	REC_WORD	wordpools/wasnorm_wordpool_576.txt	LTP354	ltpFR2	15	3	ANKLE	24	n/a	n/a	0	0	0
603520	REC_WORD	wordpools/wasnorm_wordpool_576.txt	LTP354	ltpFR2	15	3	SCARECROW	1245	n/a	n/a	0	0	0
628205	REC_WORD	wordpools/wasnorm_wordpool_576.txt	LTP354	ltpFR2	15	3	BOX	159	n/a	n/a	0	0	0
646062	DISTRACTOR	n/a	LTP354	ltpFR2	15	4	n/a	n/a	n/a	n/a	0	0	0
646062	START	n/a	LTP354	ltpFR2	15	n/a	n/a	n/a	6	n/a	n/a	n/a	n/a
646079	PROB	n/a	LTP354	ltpFR2	15	n/a	n/a	n/a	6	16	5	7	4
648562	PROB	n/a	LTP354	ltpFR2	15	n/a	n/a	n/a	6	14	4	3	7
649711	PROB	n/a	LTP354	ltpFR2	15	n/a	n/a	n/a	6	6	1	2	3
650743	PROB	n/a	LTP354	ltpFR2	15	n/a	n/a	n/a	6	20	9	6	5
652343	PROB	n/a	LTP354	ltpFR2	15	n/a	n/a	n/a	6	18	2	9	7
653825	PROB	n/a	LTP354	ltpFR2	15	n/a	n/a	n/a	6	17	2	7	8
656141	PROB	n/a	LTP354	ltpFR2	15	n/a	n/a	n/a	6	14	5	4	5
658123	PROB	n/a	LTP354	ltpFR2	15	n/a	n/a	n/a	6	12	6	4	2
659039	PROB	n/a	LTP354	ltpFR2	15	n/a	n/a	n/a	6	13	3	2	8
659989	PROB	n/a	LTP354	ltpFR2	15	n/a	n/a	n/a	6	8	4	3	1
660888	PROB	n/a	LTP354	ltpFR2	15	n/a	n/a	n/a	6	18	3	6	9
661904	PROB	n/a	LTP354	ltpFR2	15	n/a	n/a	n/a	6	18	2	9	7
663853	PROB	n/a	LTP354	ltpFR2	15	n/a	n/a	n/a	6	15	4	5	6
665069	PROB	n/a	LTP354	ltpFR2	15	n/a	n/a	n/a	6	24	8	8	8
666002	PROB	n/a	LTP354	ltpFR2	15	n/a	n/a	n/a	6	14	1	5	8
667653	PROB	n/a	LTP354	ltpFR2	15	n/a	n/a	n/a	6	25	8	9	8
669225	STOP	n/a	LTP354	ltpFR2	15	n/a	n/a	n/a	6	n/a	n/a	n/a	n/a
671250	WORD	wordpools/wasnorm_wordpool_576.txt	LTP354	ltpFR2	15	4	VALLEY	1545	n/a	n/a	0	0	0
673700	WORD	wordpools/wasnorm_wordpool_576.txt	LTP354	ltpFR2	15	4	NAPKIN	937	n/a	n/a	0	0	0
676247	WORD	wordpools/wasnorm_wordpool_576.txt	LTP354	ltpFR2	15	4	COUSIN	392	n/a	n/a	0	0	0
678963	WORD	wordpools/wasnorm_wordpool_576.txt	LTP354	ltpFR2	15	4	ROOSTER	1209	n/a	n/a	0	0	0
681646	WORD	wordpools/wasnorm_wordpool_576.txt	LTP354	ltpFR2	15	4	BREAST	171	n/a	n/a	0	0	0
684127	WORD	wordpools/wasnorm_wordpool_576.txt	LTP354	ltpFR2	15	4	JELLO	754	n/a	n/a	0	0	0
686892	WORD	wordpools/wasnorm_wordpool_576.txt	LTP354	ltpFR2	15	4	HONEY	713	n/a	n/a	0	0	0
689425	WORD	wordpools/wasnorm_wordpool_576.txt	LTP354	ltpFR2	15	4	LUGGAGE	847	n/a	n/a	0	0	0
692223	WORD	wordpools/wasnorm_wordpool_576.txt	LTP354	ltpFR2	15	4	POET	1095	n/a	n/a	0	0	0
694771	WORD	wordpools/wasnorm_wordpool_576.txt	LTP354	ltpFR2	15	4	BUNNY	198	n/a	n/a	0	0	0
697538	WORD	wordpools/wasnorm_wordpool_576.txt	LTP354	ltpFR2	15	4	DRUG	501	n/a	n/a	0	0	0
700002	WORD	wordpools/wasnorm_wordpool_576.txt	LTP354	ltpFR2	15	4	PUPIL	1143	n/a	n/a	0	0	0
702485	WORD	wordpools/wasnorm_wordpool_576.txt	LTP354	ltpFR2	15	4	WASP	1593	n/a	n/a	0	0	0
705183	WORD	wordpools/wasnorm_wordpool_576.txt	LTP354	ltpFR2	15	4	PAPER	1011	n/a	n/a	0	0	0
707616	WORD	wordpools/wasnorm_wordpool_576.txt	LTP354	ltpFR2	15	4	ACTOR	5	n/a	n/a	0	0	0
710097	WORD	wordpools/wasnorm_wordpool_576.txt	LTP354	ltpFR2	15	4	CAFE	216	n/a	n/a	0	0	0
712530	WORD	wordpools/wasnorm_wordpool_576.txt	LTP354	ltpFR2	15	4	KITCHEN	778	n/a	n/a	0	0	0
715061	WORD	wordpools/wasnorm_wordpool_576.txt	LTP354	ltpFR2	15	4	DRAWING	494	n/a	n/a	0	0	0
717511	WORD	wordpools/wasnorm_wordpool_576.txt	LTP354	ltpFR2	15	4	JUGGLER	763	n/a	n/a	0	0	0
720059	WORD	wordpools/wasnorm_wordpool_576.txt	LTP354	ltpFR2	15	4	SHERIFF	1284	n/a	n/a	0	0	0
722874	WORD	wordpools/wasnorm_wordpool_576.txt	LTP354	ltpFR2	15	4	GUARD	667	n/a	n/a	0	0	0
725524	WORD	wordpools/wasnorm_wordpool_576.txt	LTP354	ltpFR2	15	4	STATUE	1374	n/a	n/a	0	0	0
728205	WORD	wordpools/wasnorm_wordpool_576.txt	LTP354	ltpFR2	15	4	CHURCH	307	n/a	n/a	0	0	0
730770	WORD	wordpools/wasnorm_wordpool_576.txt	LTP354	ltpFR2	15	4	CRUTCH	417	n/a	n/a	0	0	0
732387	START	n/a	LTP354	ltpFR2	15	n/a	n/a	n/a	7	n/a	n/a	n/a	n/a
733333	DISTRACTOR	n/a	LTP354	ltpFR2	15	4	n/a	n/a	n/a	n/a	0	0	0
733337	PROB	n/a	LTP354	ltpFR2	15	n/a	n/a	n/a	7	19	3	9	7
735135	PROB	n/a	LTP354	ltpFR2	15	n/a	n/a	n/a	7	14	2	5	7
736468	PROB	n/a	LTP354	ltpFR2	15	n/a	n/a	n/a	7	16	5	4	7
738250	PROB	n/a	LTP354	ltpFR2	15	n/a	n/a	n/a	7	17	3	9	5
740099	PROB	n/a	LTP354	ltpFR2	15	n/a	n/a	n/a	7	9	1	2	6
741015	PROB	n/a	LTP354	ltpFR2	15	n/a	n/a	n/a	7	10	5	2	3
741998	PROB	n/a	LTP354	ltpFR2	15	n/a	n/a	n/a	7	18	8	2	8
744064	PROB	n/a	LTP354	ltpFR2	15	n/a	n/a	n/a	7	13	2	6	5
745630	PROB	n/a	LTP354	ltpFR2	15	n/a	n/a	n/a	7	18	9	6	3
746580	PROB	n/a	LTP354	ltpFR2	15	n/a	n/a	n/a	7	23	8	6	9
748262	PROB	n/a	LTP354	ltpFR2	15	n/a	n/a	n/a	7	15	1	9	5
749228	PROB	n/a	LTP354	ltpFR2	15	n/a	n/a	n/a	7	20	8	5	7
750794	PROB	n/a	LTP354	ltpFR2	15	n/a	n/a	n/a	7	16	8	5	3
751960	PROB	n/a	LTP354	ltpFR2	15	n/a	n/a	n/a	7	21	9	6	6
753360	PROB	n/a	LTP354	ltpFR2	15	n/a	n/a	n/a	7	6	2	1	3
754825	PROB	n/a	LTP354	ltpFR2	15	n/a	n/a	n/a	7	14	2	8	4
755953	STOP	n/a	LTP354	ltpFR2	15	n/a	n/a	n/a	7	n/a	n/a	n/a	n/a
758308	REC_START	n/a	LTP354	ltpFR2	15	4	n/a	n/a	n/a	n/a	0	0	0
759163	REC_WORD	wordpools/wasnorm_wordpool_576.txt	LTP354	ltpFR2	15	4	HONEY	713	n/a	n/a	0	0	0
760141	REC_WORD	wordpools/wasnorm_wordpool_576.txt	LTP354	ltpFR2	15	4	WASP	1593	n/a	n/a	0	0	0
761048	REC_WORD	wordpools/wasnorm_wordpool_576.txt	LTP354	ltpFR2	15	4	ACTOR	5	n/a	n/a	0	0	0
762308	REC_WORD	wordpools/wasnorm_wordpool_576.txt	LTP354	ltpFR2	15	4	PAPER	1011	n/a	n/a	0	0	0
763333	REC_WORD	wordpools/wasnorm_wordpool_576.txt	LTP354	ltpFR2	15	4	DRUG	501	n/a	n/a	0	0	0
765987	REC_WORD	wordpools/wasnorm_wordpool_576.txt	LTP354	ltpFR2	15	4	SIBLING	1301	n/a	n/a	0	0	0
767790	REC_WORD	wordpools/wasnorm_wordpool_576.txt	LTP354	ltpFR2	15	4	DRESSER	496	n/a	n/a	0	0	0
778265	REC_WORD	wordpools/wasnorm_wordpool_576.txt	LTP354	ltpFR2	15	4	COUSIN	392	n/a	n/a	0	0	0
779556	REC_WORD	wordpools/wasnorm_wordpool_576.txt	LTP354	ltpFR2	15	4	VALLEY	1545	n/a	n/a	0	0	0
781929	REC_WORD	wordpools/wasnorm_wordpool_576.txt	LTP354	ltpFR2	15	4	ROOSTER	1209	n/a	n/a	0	0	0
783378	REC_WORD	wordpools/wasnorm_wordpool_576.txt	LTP354	ltpFR2	15	4	BREAST	171	n/a	n/a	0	0	0
784888	REC_WORD	wordpools/wasnorm_wordpool_576.txt	LTP354	ltpFR2	15	4	NAPKIN	937	n/a	n/a	0	0	0
788060	REC_WORD	wordpools/wasnorm_wordpool_576.txt	LTP354	ltpFR2	15	4	PUPIL	1143	n/a	n/a	0	0	0
795504	REC_WORD	wordpools/wasnorm_wordpool_576.txt	LTP354	ltpFR2	15	4	LOVER	846	n/a	n/a	0	0	0
800254	REC_WORD	wordpools/wasnorm_wordpool_576.txt	LTP354	ltpFR2	15	4	BUNNY	198	n/a	n/a	0	0	0
810374	REC_WORD_VV	wordpools/wasnorm_wordpool_576.txt	LTP354	ltpFR2	15	4	<>	-1	n/a	n/a	0	0	0
811379	REC_WORD	wordpools/wasnorm_wordpool_576.txt	LTP354	ltpFR2	15	4	CAFE	216	n/a	n/a	0	0	0
818176	REC_WORD	wordpools/wasnorm_wordpool_576.txt	LTP354	ltpFR2	15	4	KITCHEN	778	n/a	n/a	0	0	0
823857	REC_WORD	wordpools/wasnorm_wordpool_576.txt	LTP354	ltpFR2	15	4	SUITCASE	1403	n/a	n/a	0	0	0
825276	REC_WORD	wordpools/wasnorm_wordpool_576.txt	LTP354	ltpFR2	15	4	LUGGAGE	847	n/a	n/a	0	0	0
848762	DISTRACTOR	n/a	LTP354	ltpFR2	15	5	n/a	n/a	n/a	n/a	0	0	0
848762	START	n/a	LTP354	ltpFR2	15	n/a	n/a	n/a	8	n/a	n/a	n/a	n/a
848778	PROB	n/a	LTP354	ltpFR2	15	n/a	n/a	n/a	8	17	3	7	7
851361	PROB	n/a	LTP354	ltpFR2	15	n/a	n/a	n/a	8	12	5	4	3
853494	PROB	n/a	LTP354	ltpFR2	15	n/a	n/a	n/a	8	19	4	7	8
855192	PROB	n/a	LTP354	ltpFR2	15	n/a	n/a	n/a	8	17	8	5	4
858057	PROB	n/a	LTP354	ltpFR2	15	n/a	n/a	n/a	8	12	6	1	5
860772	PROB	n/a	LTP354	ltpFR2	15	n/a	n/a	n/a	8	8	2	3	3
862122	PROB	n/a	LTP354	ltpFR2	15	n/a	n/a	n/a	8	10	2	6	2
863422	PROB	n/a	LTP354	ltpFR2	15	n/a	n/a	n/a	8	6	2	2	2
864254	PROB	n/a	LTP354	ltpFR2	15	n/a	n/a	n/a	8	18	5	9	4
866186	PROB	n/a	LTP354	ltpFR2	15	n/a	n/a	n/a	8	14	6	6	2
868852	PROB	n/a	LTP354	ltpFR2	15	n/a	n/a	n/a	8	13	3	9	1
870168	PROB	n/a	LTP354	ltpFR2	15	n/a	n/a	n/a	8	17	6	5	6
872338	STOP	n/a	LTP354	ltpFR2	15	n/a	n/a	n/a	8	n/a	n/a	n/a	n/a
873849	WORD	wordpools/wasnorm_wordpool_576.txt	LTP354	ltpFR2	15	5	BEEF	113	n/a	n/a	0	0	0
876399	WORD	wordpools/wasnorm_wordpool_576.txt	LTP354	ltpFR2	15	5	VELVET	1555	n/a	n/a	0	0	0
878963	WORD	wordpools/wasnorm_wordpool_576.txt	LTP354	ltpFR2	15	5	POLICE	1098	n/a	n/a	0	0	0
881696	WORD	wordpools/wasnorm_wordpool_576.txt	LTP354	ltpFR2	15	5	RUST	1219	n/a	n/a	0	0	0
884495	WORD	wordpools/wasnorm_wordpool_576.txt	LTP354	ltpFR2	15	5	PERFUME	1049	n/a	n/a	0	0	0
886943	WORD	wordpools/wasnorm_wordpool_576.txt	LTP354	ltpFR2	15	5	CONVICT	371	n/a	n/a	0	0	0
889392	WORD	wordpools/wasnorm_wordpool_576.txt	LTP354	ltpFR2	15	5	WAITER	1580	n/a	n/a	0	0	0
891957	WORD	wordpools/wasnorm_wordpool_576.txt	LTP354	ltpFR2	15	5	GARDEN	623	n/a	n/a	0	0	0
894490	WORD	wordpools/wasnorm_wordpool_576.txt	LTP354	ltpFR2	15	5	ORCHID	982	n/a	n/a	0	0	0
897088	WORD	wordpools/wasnorm_wordpool_576.txt	LTP354	ltpFR2	15	5	PADDING	999	n/a	n/a	0	0	0
899770	WORD	wordpools/wasnorm_wordpool_576.txt	LTP354	ltpFR2	15	5	CATTLE	261	n/a	n/a	0	0	0
902303	WORD	wordpools/wasnorm_wordpool_576.txt	LTP354	ltpFR2	15	5	SERVANT	1271	n/a	n/a	0	0	0
905017	WORD	wordpools/wasnorm_wordpool_576.txt	LTP354	ltpFR2	15	5	CRICKET	408	n/a	n/a	0	0	0
907483	WORD	wordpools/wasnorm_wordpool_576.txt	LTP354	ltpFR2	15	5	LUMBER	848	n/a	n/a	0	0	0
910015	WORD	wordpools/wasnorm_wordpool_576.txt	LTP354	ltpFR2	15	5	DORM	488	n/a	n/a	0	0	0
912681	WORD	wordpools/wasnorm_wordpool_576.txt	LTP354	ltpFR2	15	5	BINDER	127	n/a	n/a	0	0	0
915496	WORD	wordpools/wasnorm_wordpool_576.txt	LTP354	ltpFR2	15	5	HAMPER	682	n/a	n/a	0	0	0
917994	WORD	wordpools/wasnorm_wordpool_576.txt	LTP354	ltpFR2	15	5	COSTUME	383	n/a	n/a	0	0	0
920494	WORD	wordpools/wasnorm_wordpool_576.txt	LTP354	ltpFR2	15	5	MEAT	883	n/a	n/a	0	0	0
923075	WORD	wordpools/wasnorm_wordpool_576.txt	LTP354	ltpFR2	15	5	SUITCASE	1403	n/a	n/a	0	0	0
925823	WORD	wordpools/wasnorm_wordpool_576.txt	LTP354	ltpFR2	15	5	TABLET	1427	n/a	n/a	0	0	0
928423	WORD	wordpools/wasnorm_wordpool_576.txt	LTP354	ltpFR2	15	5	CREVICE	405	n/a	n/a	0	0	0
930921	WORD	wordpools/wasnorm_wordpool_576.txt	LTP354	ltpFR2	15	5	QUARTER	1148	n/a	n/a	0	0	0
933471	WORD	wordpools/wasnorm_wordpool_576.txt	LTP354	ltpFR2	15	5	TORTOISE	1486	n/a	n/a	0	0	0
935086	START	n/a	LTP354	ltpFR2	15	n/a	n/a	n/a	9	n/a	n/a	n/a	n/a
936051	DISTRACTOR	n/a	LTP354	ltpFR2	15	5	n/a	n/a	n/a	n/a	0	0	0
936068	PROB	n/a	LTP354	ltpFR2	15	n/a	n/a	n/a	9	12	5	1	6
937469	PROB	n/a	LTP354	ltpFR2	15	n/a	n/a	n/a	9	15	2	8	5
938385	PROB	n/a	LTP354	ltpFR2	15	n/a	n/a	n/a	9	17	4	4	9
940033	PROB	n/a	LTP354	ltpFR2	15	n/a	n/a	n/a	9	13	4	8	1
941333	PROB	n/a	LTP354	ltpFR2	15	n/a	n/a	n/a	9	19	3	7	9
942399	PROB	n/a	LTP354	ltpFR2	15	n/a	n/a	n/a	9	12	7	4	1
944064	PROB	n/a	LTP354	ltpFR2	15	n/a	n/a	n/a	9	15	9	1	5
945014	PROB	n/a	LTP354	ltpFR2	15	n/a	n/a	n/a	9	19	9	3	7
946030	PROB	n/a	LTP354	ltpFR2	15	n/a	n/a	n/a	9	16	8	2	6
947046	PROB	n/a	LTP354	ltpFR2	15	n/a	n/a	n/a	9	16	8	2	6
947879	PROB	n/a	LTP354	ltpFR2	15	n/a	n/a	n/a	9	14	7	6	1
949029	PROB	n/a	LTP354	ltpFR2	15	n/a	n/a	n/a	9	5	1	3	1
949895	PROB	n/a	LTP354	ltpFR2	15	n/a	n/a	n/a	9	17	9	3	5
951345	PROB	n/a	LTP354	ltpFR2	15	n/a	n/a	n/a	9	18	6	7	5
952678	PROB	n/a	LTP354	ltpFR2	15	n/a	n/a	n/a	9	22	4	9	9
953809	PROB	n/a	LTP354	ltpFR2	15	n/a	n/a	n/a	9	14	5	7	2
955443	PROB	n/a	LTP354	ltpFR2	15	n/a	n/a	n/a	9	13	1	8	4
956526	PROB	n/a	LTP354	ltpFR2	15	n/a	n/a	n/a	9	11	5	1	5
957425	PROB	n/a	LTP354	ltpFR2	15	n/a	n/a	n/a	9	23	6	8	9
958610	STOP	n/a	LTP354	ltpFR2	15	n/a	n/a	n/a	9	n/a	n/a	n/a	n/a
961007	REC_START	n/a	LTP354	ltpFR2	15	5	n/a	n/a	n/a	n/a	0	0	0
963948	REC_WORD	wordpools/wasnorm_wordpool_576.txt	LTP354	ltpFR2	15	5	DORM	488	n/a	n/a	0	0	0
965599	REC_WORD	wordpools/wasnorm_wordpool_576.txt	LTP354	ltpFR2	15	5	TABLET	1427	n/a	n/a	0	0	0
966479	REC_WORD	wordpools/wasnorm_wordpool_576.txt	LTP354	ltpFR2	15	5	CREVICE	405	n/a	n/a	0	0	0
967812	REC_WORD	wordpools/wasnorm_wordpool_576.txt	LTP354	ltpFR2	15	5	BINDER	127	n/a	n/a	0	0	0
968981	REC_WORD	wordpools/wasnorm_wordpool_576.txt	LTP354	ltpFR2	15	5	HAMPER	682	n/a	n/a	0	0	0
986216	REC_WORD	wordpools/wasnorm_wordpool_576.txt	LTP354	ltpFR2	15	5	SUITCASE	1403	n/a	n/a	0	0	0
992037	REC_WORD	wordpools/wasnorm_wordpool_576.txt	LTP354	ltpFR2	15	5	MEAT	883	n/a	n/a	0	0	0
993485	REC_WORD	wordpools/wasnorm_wordpool_576.txt	LTP354	ltpFR2	15	5	BEEF	113	n/a	n/a	0	0	0
1010210	REC_WORD	wordpools/wasnorm_wordpool_576.txt	LTP354	ltpFR2	15	5	GARDEN	623	n/a	n/a	0	0	0
1011607	REC_WORD	wordpools/wasnorm_wordpool_576.txt	LTP354	ltpFR2	15	5	WAITER	1580	n/a	n/a	0	0	0
1031490	REC_WORD	wordpools/wasnorm_wordpool_576.txt	LTP354	ltpFR2	15	5	PAPER	1011	n/a	n/a	0	0	0
1051462	DISTRACTOR	n/a	LTP354	ltpFR2	15	6	n/a	n/a	n/a	n/a	0	0	0
1051462	START	n/a	LTP354	ltpFR2	15	n/a	n/a	n/a	10	n/a	n/a	n/a	n/a
1051479	PROB	n/a	LTP354	ltpFR2	15	n/a	n/a	n/a	10	12	1	8	3
1052711	PROB	n/a	LTP354	ltpFR2	15	n/a	n/a	n/a	10	19	7	9	3
1053810	PROB	n/a	LTP354	ltpFR2	15	n/a	n/a	n/a	10	20	9	8	3
1055443	PROB	n/a	LTP354	ltpFR2	15	n/a	n/a	n/a	10	12	7	1	4
1056343	PROB	n/a	LTP354	ltpFR2	15	n/a	n/a	n/a	10	18	2	8	8
1058074	PROB	n/a	LTP354	ltpFR2	15	n/a	n/a	n/a	10	14	4	6	4
1059107	PROB	n/a	LTP354	ltpFR2	15	n/a	n/a	n/a	10	11	7	2	2
1060474	PROB	n/a	LTP354	ltpFR2	15	n/a	n/a	n/a	10	14	7	5	2
1061490	PROB	n/a	LTP354	ltpFR2	15	n/a	n/a	n/a	10	23	7	7	9
1063122	PROB	n/a	LTP354	ltpFR2	15	n/a	n/a	n/a	10	14	1	9	4
1064138	PROB	n/a	LTP354	ltpFR2	15	n/a	n/a	n/a	10	9	2	1	6
1065121	PROB	n/a	LTP354	ltpFR2	15	n/a	n/a	n/a	10	23	9	8	6
1066321	PROB	n/a	LTP354	ltpFR2	15	n/a	n/a	n/a	10	8	2	5	1
1067404	PROB	n/a	LTP354	ltpFR2	15	n/a	n/a	n/a	10	18	2	7	9
1068487	PROB	n/a	LTP354	ltpFR2	15	n/a	n/a	n/a	10	9	5	1	3
1071118	PROB	n/a	LTP354	ltpFR2	15	n/a	n/a	n/a	10	12	5	3	4
1073668	PROB	n/a	LTP354	ltpFR2	15	n/a	n/a	n/a	10	7	1	4	2
1074674	STOP	n/a	LTP354	ltpFR2	15	n/a	n/a	n/a	10	n/a	n/a	n/a	n/a
1076383	WORD	wordpools/wasnorm_wordpool_576.txt	LTP354	ltpFR2	15	6	HEDGE	699	n/a	n/a	0	0	0
1078847	WORD	wordpools/wasnorm_wordpool_576.txt	LTP354	ltpFR2	15	6	PATIENT	1024	n/a	n/a	0	0	0
1081347	WORD	wordpools/wasnorm_wordpool_576.txt	LTP354	ltpFR2	15	6	BLACKBOARD	133	n/a	n/a	0	0	0
1083945	WORD	wordpools/wasnorm_wordpool_576.txt	LTP354	ltpFR2	15	6	BRANDY	169	n/a	n/a	0	0	0
1086561	WORD	wordpools/wasnorm_wordpool_576.txt	LTP354	ltpFR2	15	6	FLASK	576	n/a	n/a	0	0	0
1089126	WORD	wordpools/wasnorm_wordpool_576.txt	LTP354	ltpFR2	15	6	BEAST	108	n/a	n/a	0	0	0
1091559	WORD	wordpools/wasnorm_wordpool_576.txt	LTP354	ltpFR2	15	6	WRIST	1626	n/a	n/a	0	0	0
1094240	WORD	wordpools/wasnorm_wordpool_576.txt	LTP354	ltpFR2	15	6	MARKET	871	n/a	n/a	0	0	0
1096755	WORD	wordpools/wasnorm_wordpool_576.txt	LTP354	ltpFR2	15	6	COTTAGE	384	n/a	n/a	0	0	0
1099355	WORD	wordpools/wasnorm_wordpool_576.txt	LTP354	ltpFR2	15	6	MOP	916	n/a	n/a	0	0	0
1102069	WORD	wordpools/wasnorm_wordpool_576.txt	LTP354	ltpFR2	15	6	WAITRESS	1581	n/a	n/a	0	0	0
1104885	WORD	wordpools/wasnorm_wordpool_576.txt	LTP354	ltpFR2	15	6	PECAN	1036	n/a	n/a	0	0	0
1107351	WORD	wordpools/wasnorm_wordpool_576.txt	LTP354	ltpFR2	15	6	HORNET	718	n/a	n/a	0	0	0
1109815	WORD	wordpools/wasnorm_wordpool_576.txt	LTP354	ltpFR2	15	6	LADY	794	n/a	n/a	0	0	0
1112515	WORD	wordpools/wasnorm_wordpool_576.txt	LTP354	ltpFR2	15	6	GYMNAST	675	n/a	n/a	0	0	0
1115146	WORD	wordpools/wasnorm_wordpool_576.txt	LTP354	ltpFR2	15	6	ARM	38	n/a	n/a	0	0	0
1117679	WORD	wordpools/wasnorm_wordpool_576.txt	LTP354	ltpFR2	15	6	QUEEN	1149	n/a	n/a	0	0	0
1120311	WORD	wordpools/wasnorm_wordpool_576.txt	LTP354	ltpFR2	15	6	LONDON	843	n/a	n/a	0	0	0
1123059	WORD	wordpools/wasnorm_wordpool_576.txt	LTP354	ltpFR2	15	6	ROBOT	1200	n/a	n/a	0	0	0
1125658	WORD	wordpools/wasnorm_wordpool_576.txt	LTP354	ltpFR2	15	6	MACHINE	852	n/a	n/a	0	0	0
1128173	WORD	wordpools/wasnorm_wordpool_576.txt	LTP354	ltpFR2	15	6	COUNTRY	388	n/a	n/a	0	0	0
1130739	WORD	wordpools/wasnorm_wordpool_576.txt	LTP354	ltpFR2	15	6	NOTEBOOK	959	n/a	n/a	0	0	0
1133287	WORD	wordpools/wasnorm_wordpool_576.txt	LTP354	ltpFR2	15	6	ELBOW	520	n/a	n/a	0	0	0
1135986	WORD	wordpools/wasnorm_wordpool_576.txt	LTP354	ltpFR2	15	6	COUNTY	389	n/a	n/a	0	0	0
1137603	START	n/a	LTP354	ltpFR2	15	n/a	n/a	n/a	11	n/a	n/a	n/a	n/a
1138680	DISTRACTOR	n/a	LTP354	ltpFR2	15	6	n/a	n/a	n/a	n/a	0	0	0
1138685	PROB	n/a	LTP354	ltpFR2	15	n/a	n/a	n/a	11	17	7	3	7
1140750	PROB	n/a	LTP354	ltpFR2	15	n/a	n/a	n/a	11	6	1	3	2
1141684	PROB	n/a	LTP354	ltpFR2	15	n/a	n/a	n/a	11	14	6	2	6
1142782	PROB	n/a	LTP354	ltpFR2	15	n/a	n/a	n/a	11	9	2	1	6
1143782	PROB	n/a	LTP354	ltpFR2	15	n/a	n/a	n/a	11	15	4	5	6
1145214	PROB	n/a	LTP354	ltpFR2	15	n/a	n/a	n/a	11	12	3	8	1
1146164	PROB	n/a	LTP354	ltpFR2	15	n/a	n/a	n/a	11	10	4	2	4
1148714	PROB	n/a	LTP354	ltpFR2	15	n/a	n/a	n/a	11	11	3	4	4
1150380	PROB	n/a	LTP354	ltpFR2	15	n/a	n/a	n/a	11	15	7	4	4
1152362	PROB	n/a	LTP354	ltpFR2	15	n/a	n/a	n/a	11	18	5	5	8
1153395	PROB	n/a	LTP354	ltpFR2	15	n/a	n/a	n/a	11	17	5	6	6
1155460	PROB	n/a	LTP354	ltpFR2	15	n/a	n/a	n/a	11	13	2	2	9
1156809	PROB	n/a	LTP354	ltpFR2	15	n/a	n/a	n/a	11	21	8	5	8
1157925	PROB	n/a	LTP354	ltpFR2	15	n/a	n/a	n/a	11	12	6	5	1
1158858	PROB	n/a	LTP354	ltpFR2	15	n/a	n/a	n/a	11	18	9	3	6
1159957	PROB	n/a	LTP354	ltpFR2	15	n/a	n/a	n/a	11	10	4	1	5
1161017	STOP	n/a	LTP354	ltpFR2	15	n/a	n/a	n/a	11	n/a	n/a	n/a	n/a
1163440	REC_START	n/a	LTP354	ltpFR2	15	6	n/a	n/a	n/a	n/a	0	0	0
1166670	REC_WORD	wordpools/wasnorm_wordpool_576.txt	LTP354	ltpFR2	15	6	COUNTY	389	n/a	n/a	0	0	0
1167973	REC_WORD	wordpools/wasnorm_wordpool_576.txt	LTP354	ltpFR2	15	6	LONDON	843	n/a	n/a	0	0	0
1170039	REC_WORD	wordpools/wasnorm_wordpool_576.txt	LTP354	ltpFR2	15	6	ELBOW	520	n/a	n/a	0	0	0
1173875	REC_WORD	wordpools/wasnorm_wordpool_576.txt	LTP354	ltpFR2	15	6	FLASK	576	n/a	n/a	0	0	0
1177493	REC_WORD	wordpools/wasnorm_wordpool_576.txt	LTP354	ltpFR2	15	6	MACHINE	852	n/a	n/a	0	0	0
1189424	REC_WORD	wordpools/wasnorm_wordpool_576.txt	LTP354	ltpFR2	15	6	ORCHID	982	n/a	n/a	0	0	0
1194707	REC_WORD	wordpools/wasnorm_wordpool_576.txt	LTP354	ltpFR2	15	6	BANKER	84	n/a	n/a	0	0	0
1202479	REC_WORD	wordpools/wasnorm_wordpool_576.txt	LTP354	ltpFR2	15	6	LONDON	843	n/a	n/a	0	0	0
1204296	REC_WORD	wordpools/wasnorm_wordpool_576.txt	LTP354	ltpFR2	15	6	JAPAN	749	n/a	n/a	0	0	0
1253894	DISTRACTOR	n/a	LTP354	ltpFR2	15	7	n/a	n/a	n/a	n/a	0	0	0
1253894	START	n/a	LTP354	ltpFR2	15	n/a	n/a	n/a	12	n/a	n/a	n/a	n/a
1253910	PROB	n/a	LTP354	ltpFR2	15	n/a	n/a	n/a	12	17	6	8	3
1256892	PROB	n/a	LTP354	ltpFR2	15	n/a	n/a	n/a	12	8	1	3	4
1258925	PROB	n/a	LTP354	ltpFR2	15	n/a	n/a	n/a	12	13	2	3	8
1260442	PROB	n/a	LTP354	ltpFR2	15	n/a	n/a	n/a	12	22	8	7	7
1261574	PROB	n/a	LTP354	ltpFR2	15	n/a	n/a	n/a	12	12	8	1	3
1263507	PROB	n/a	LTP354	ltpFR2	15	n/a	n/a	n/a	12	17	8	7	2
1266204	PROB	n/a	LTP354	ltpFR2	15	n/a	n/a	n/a	12	16	7	6	3
1267970	PROB	n/a	LTP354	ltpFR2	15	n/a	n/a	n/a	12	16	3	9	4
1270819	PROB	n/a	LTP354	ltpFR2	15	n/a	n/a	n/a	12	16	4	7	5
1272218	PROB	n/a	LTP354	ltpFR2	15	n/a	n/a	n/a	12	19	7	9	3
1273685	PROB	n/a	LTP354	ltpFR2	15	n/a	n/a	n/a	12	13	6	1	6
1274750	PROB	n/a	LTP354	ltpFR2	15	n/a	n/a	n/a	12	7	3	2	2
1276618	STOP	n/a	LTP354	ltpFR2	15	n/a	n/a	n/a	12	n/a	n/a	n/a	n/a
1279065	WORD	wordpools/wasnorm_wordpool_576.txt	LTP354	ltpFR2	15	7	TRACTOR	1493	n/a	n/a	0	0	0
1281731	WORD	wordpools/wasnorm_wordpool_576.txt	LTP354	ltpFR2	15	7	MONEY	908	n/a	n/a	0	0	0
1284346	WORD	wordpools/wasnorm_wordpool_576.txt	LTP354	ltpFR2	15	7	TEACHER	1440	n/a	n/a	0	0	0
1287061	WORD	wordpools/wasnorm_wordpool_576.txt	LTP354	ltpFR2	15	7	CONTRACT	368	n/a	n/a	0	0	0
1289577	WORD	wordpools/wasnorm_wordpool_576.txt	LTP354	ltpFR2	15	7	CELLAR	267	n/a	n/a	0	0	0
1292008	WORD	wordpools/wasnorm_wordpool_576.txt	LTP354	ltpFR2	15	7	POISON	1096	n/a	n/a	0	0	0
1294558	WORD	wordpools/wasnorm_wordpool_576.txt	LTP354	ltpFR2	15	7	VENUS	1557	n/a	n/a	0	0	0
1297072	WORD	wordpools/wasnorm_wordpool_576.txt	LTP354	ltpFR2	15	7	CRATER	400	n/a	n/a	0	0	0
1299838	WORD	wordpools/wasnorm_wordpool_576.txt	LTP354	ltpFR2	15	7	FLEET	578	n/a	n/a	0	0	0
1302587	WORD	wordpools/wasnorm_wordpool_576.txt	LTP354	ltpFR2	15	7	TOURIST	1488	n/a	n/a	0	0	0
1305052	WORD	wordpools/wasnorm_wordpool_576.txt	LTP354	ltpFR2	15	7	MOTEL	919	n/a	n/a	0	0	0
1307635	WORD	wordpools/wasnorm_wordpool_576.txt	LTP354	ltpFR2	15	7	ULCER	1533	n/a	n/a	0	0	0
1310083	WORD	wordpools/wasnorm_wordpool_576.txt	LTP354	ltpFR2	15	7	POPCORN	1104	n/a	n/a	0	0	0
1312516	WORD	wordpools/wasnorm_wordpool_576.txt	LTP354	ltpFR2	15	7	CRITIC	410	n/a	n/a	0	0	0
1315014	WORD	wordpools/wasnorm_wordpool_576.txt	LTP354	ltpFR2	15	7	TUNNEL	1519	n/a	n/a	0	0	0
1317580	WORD	wordpools/wasnorm_wordpool_576.txt	LTP354	ltpFR2	15	7	TWEEZERS	1526	n/a	n/a	0	0	0
1320011	WORD	wordpools/wasnorm_wordpool_576.txt	LTP354	ltpFR2	15	7	DIME	466	n/a	n/a	0	0	0
1322743	WORD	wordpools/wasnorm_wordpool_576.txt	LTP354	ltpFR2	15	7	TUBA	1515	n/a	n/a	0	0	0
1325175	WORD	wordpools/wasnorm_wordpool_576.txt	LTP354	ltpFR2	15	7	RECORD	1176	n/a	n/a	0	0	0
1327790	WORD	wordpools/wasnorm_wordpool_576.txt	LTP354	ltpFR2	15	7	HEART	697	n/a	n/a	0	0	0
1330273	WORD	wordpools/wasnorm_wordpool_576.txt	LTP354	ltpFR2	15	7	PEACH	1031	n/a	n/a	0	0	0
1333021	WORD	wordpools/wasnorm_wordpool_576.txt	LTP354	ltpFR2	15	7	BELLY	119	n/a	n/a	0	0	0
1335638	WORD	wordpools/wasnorm_wordpool_576.txt	LTP354	ltpFR2	15	7	SURVEY	1414	n/a	n/a	0	0	0
1338320	WORD	wordpools/wasnorm_wordpool_576.txt	LTP354	ltpFR2	15	7	CHAPEL	280	n/a	n/a	0	0	0
1339935	START	n/a	LTP354	ltpFR2	15	n/a	n/a	n/a	13	n/a	n/a	n/a	n/a
1340797	DISTRACTOR	n/a	LTP354	ltpFR2	15	7	n/a	n/a	n/a	n/a	0	0	0
1340801	PROB	n/a	LTP354	ltpFR2	15	n/a	n/a	n/a	13	22	6	8	8
1343500	PROB	n/a	LTP354	ltpFR2	15	n/a	n/a	n/a	13	18	6	5	7
1344865	PROB	n/a	LTP354	ltpFR2	15	n/a	n/a	n/a	13	12	1	5	6
1345832	PROB	n/a	LTP354	ltpFR2	15	n/a	n/a	n/a	13	21	7	6	8
1347098	PROB	n/a	LTP354	ltpFR2	15	n/a	n/a	n/a	13	13	3	4	6
1348164	PROB	n/a	LTP354	ltpFR2	15	n/a	n/a	n/a	13	17	8	4	5
1349447	PROB	n/a	LTP354	ltpFR2	15	n/a	n/a	n/a	13	15	7	2	6
1351129	PROB	n/a	LTP354	ltpFR2	15	n/a	n/a	n/a	13	17	8	2	7
1352145	PROB	n/a	LTP354	ltpFR2	15	n/a	n/a	n/a	13	11	3	6	2
1355244	PROB	n/a	LTP354	ltpFR2	15	n/a	n/a	n/a	13	20	8	9	3
1357043	PROB	n/a	LTP354	ltpFR2	15	n/a	n/a	n/a	13	8	4	3	1
1358192	PROB	n/a	LTP354	ltpFR2	15	n/a	n/a	n/a	13	8	1	5	2
1360559	PROB	n/a	LTP354	ltpFR2	15	n/a	n/a	n/a	13	18	9	2	7
1362402	STOP	n/a	LTP354	ltpFR2	15	n/a	n/a	n/a	13	n/a	n/a	n/a	n/a
1365723	REC_START	n/a	LTP354	ltpFR2	15	7	n/a	n/a	n/a	n/a	0	0	0
1370327	REC_WORD	wordpools/wasnorm_wordpool_576.txt	LTP354	ltpFR2	15	7	CANYON	235	n/a	n/a	0	0	0
1372528	REC_WORD	wordpools/wasnorm_wordpool_576.txt	LTP354	ltpFR2	15	7	BELLY	119	n/a	n/a	0	0	0
1375695	REC_WORD	wordpools/wasnorm_wordpool_576.txt	LTP354	ltpFR2	15	7	CHAPEL	280	n/a	n/a	0	0	0
1405485	REC_WORD	wordpools/wasnorm_wordpool_576.txt	LTP354	ltpFR2	15	7	MONEY	908	n/a	n/a	0	0	0
1406029	REC_WORD	wordpools/wasnorm_wordpool_576.txt	LTP354	ltpFR2	15	7	TRACTOR	1493	n/a	n/a	0	0	0
1418249	REC_WORD	wordpools/wasnorm_wordpool_576.txt	LTP354	ltpFR2	15	7	LUMBER	848	n/a	n/a	0	0	0
1430694	REC_WORD	wordpools/wasnorm_wordpool_576.txt	LTP354	ltpFR2	15	7	TROUT	1511	n/a	n/a	0	0	0
1456193	WORD	wordpools/wasnorm_wordpool_576.txt	LTP354	ltpFR2	15	8	RAFT	1159	n/a	n/a	0	0	0
1458643	WORD	wordpools/wasnorm_wordpool_576.txt	LTP354	ltpFR2	15	8	TERMITE	1451	n/a	n/a	0	0	0
1461408	WORD	wordpools/wasnorm_wordpool_576.txt	LTP354	ltpFR2	15	8	FOREST	593	n/a	n/a	0	0	0
1463956	WORD	wordpools/wasnorm_wordpool_576.txt	LTP354	ltpFR2	15	8	DENIM	446	n/a	n/a	0	0	0
1466589	WORD	wordpools/wasnorm_wordpool_576.txt	LTP354	ltpFR2	15	8	WORLD	1622	n/a	n/a	0	0	0
1469187	WORD	wordpools/wasnorm_wordpool_576.txt	LTP354	ltpFR2	15	8	MARS	873	n/a	n/a	0	0	0
1471836	WORD	wordpools/wasnorm_wordpool_576.txt	LTP354	ltpFR2	15	8	SWAMP	1416	n/a	n/a	0	0	0
1474369	WORD	wordpools/wasnorm_wordpool_576.txt	LTP354	ltpFR2	15	8	MARSH	874	n/a	n/a	0	0	0
1477066	WORD	wordpools/wasnorm_wordpool_576.txt	LTP354	ltpFR2	15	8	MAILBOX	857	n/a	n/a	0	0	0
1479716	WORD	wordpools/wasnorm_wordpool_576.txt	LTP354	ltpFR2	15	8	INMATE	738	n/a	n/a	0	0	0
1482197	WORD	wordpools/wasnorm_wordpool_576.txt	LTP354	ltpFR2	15	8	TWIG	1527	n/a	n/a	0	0	0
1484714	WORD	wordpools/wasnorm_wordpool_576.txt	LTP354	ltpFR2	15	8	SUBWAY	1400	n/a	n/a	0	0	0
1487446	WORD	wordpools/wasnorm_wordpool_576.txt	LTP354	ltpFR2	15	8	LACE	792	n/a	n/a	0	0	0
1489993	WORD	wordpools/wasnorm_wordpool_576.txt	LTP354	ltpFR2	15	8	HOUND	724	n/a	n/a	0	0	0
1492742	WORD	wordpools/wasnorm_wordpool_576.txt	LTP354	ltpFR2	15	8	BATHTUB	100	n/a	n/a	0	0	0
1495425	WORD	wordpools/wasnorm_wordpool_576.txt	LTP354	ltpFR2	15	8	PATROL	1027	n/a	n/a	0	0	0
1497939	WORD	wordpools/wasnorm_wordpool_576.txt	LTP354	ltpFR2	15	8	AGENT	10	n/a	n/a	0	0	0
1500439	WORD	wordpools/wasnorm_wordpool_576.txt	LTP354	ltpFR2	15	8	FLESH	579	n/a	n/a	0	0	0
1502920	WORD	wordpools/wasnorm_wordpool_576.txt	LTP354	ltpFR2	15	8	VIKING	1565	n/a	n/a	0	0	0
1505620	WORD	wordpools/wasnorm_wordpool_576.txt	LTP354	ltpFR2	15	8	TRIBE	1505	n/a	n/a	0	0	0
1508385	WORD	wordpools/wasnorm_wordpool_576.txt	LTP354	ltpFR2	15	8	FOREHEAD	592	n/a	n/a	0	0	0
1510983	WORD	wordpools/wasnorm_wordpool_576.txt	LTP354	ltpFR2	15	8	PEBBLE	1035	n/a	n/a	0	0	0
1513716	WORD	wordpools/wasnorm_wordpool_576.txt	LTP354	ltpFR2	15	8	BLUEPRINT	142	n/a	n/a	0	0	0
1516264	WORD	wordpools/wasnorm_wordpool_576.txt	LTP354	ltpFR2	15	8	OUTDOORS	987	n/a	n/a	0	0	0
1517880	START	n/a	LTP354	ltpFR2	15	n/a	n/a	n/a	14	n/a	n/a	n/a	n/a
1518993	DISTRACTOR	n/a	LTP354	ltpFR2	15	8	n/a	n/a	n/a	n/a	0	0	0
1518996	PROB	n/a	LTP354	ltpFR2	15	n/a	n/a	n/a	14	15	8	6	1
1521312	PROB	n/a	LTP354	ltpFR2	15	n/a	n/a	n/a	14	8	2	2	4
1522461	PROB	n/a	LTP354	ltpFR2	15	n/a	n/a	n/a	14	17	6	3	8
1525093	PROB	n/a	LTP354	ltpFR2	15	n/a	n/a	n/a	14	6	3	1	2
1526593	PROB	n/a	LTP354	ltpFR2	15	n/a	n/a	n/a	14	17	7	4	6
1528258	PROB	n/a	LTP354	ltpFR2	15	n/a	n/a	n/a	14	21	8	6	7
1530724	PROB	n/a	LTP354	ltpFR2	15	n/a	n/a	n/a	14	9	6	1	2
1531789	PROB	n/a	LTP354	ltpFR2	15	n/a	n/a	n/a	14	15	7	1	7
1533005	PROB	n/a	LTP354	ltpFR2	15	n/a	n/a	n/a	14	18	8	7	3
1533988	PROB	n/a	LTP354	ltpFR2	15	n/a	n/a	n/a	14	18	7	3	8
1534904	PROB	n/a	LTP354	ltpFR2	15	n/a	n/a	n/a	14	13	7	2	4
1536588	PROB	n/a	LTP354	ltpFR2	15	n/a	n/a	n/a	14	14	5	2	7
1538103	PROB	n/a	LTP354	ltpFR2	15	n/a	n/a	n/a	14	25	9	9	7
1539570	PROB	n/a	LTP354	ltpFR2	15	n/a	n/a	n/a	14	17	5	4	8
1541554	STOP	n/a	LTP354	ltpFR2	15	n/a	n/a	n/a	14	n/a	n/a	n/a	n/a
1543801	REC_START	n/a	LTP354	ltpFR2	15	8	n/a	n/a	n/a	n/a	0	0	0
1544744	REC_WORD	wordpools/wasnorm_wordpool_576.txt	LTP354	ltpFR2	15	8	RAFT	1159	n/a	n/a	0	0	0
1545973	REC_WORD	wordpools/wasnorm_wordpool_576.txt	LTP354	ltpFR2	15	8	MAILBOX	857	n/a	n/a	0	0	0
1547079	REC_WORD	wordpools/wasnorm_wordpool_576.txt	LTP354	ltpFR2	15	8	INMATE	738	n/a	n/a	0	0	0
1550682	REC_WORD	wordpools/wasnorm_wordpool_576.txt	LTP354	ltpFR2	15	8	FOREST	593	n/a	n/a	0	0	0
1553346	REC_WORD	wordpools/wasnorm_wordpool_576.txt	LTP354	ltpFR2	15	8	TRIBE	1505	n/a	n/a	0	0	0
1554089	REC_WORD	wordpools/wasnorm_wordpool_576.txt	LTP354	ltpFR2	15	8	FOREHEAD	592	n/a	n/a	0	0	0
1555750	REC_WORD	wordpools/wasnorm_wordpool_576.txt	LTP354	ltpFR2	15	8	SWAMP	1416	n/a	n/a	0	0	0
1557747	REC_WORD	wordpools/wasnorm_wordpool_576.txt	LTP354	ltpFR2	15	8	MARSH	874	n/a	n/a	0	0	0
1560428	REC_WORD	wordpools/wasnorm_wordpool_576.txt	LTP354	ltpFR2	15	8	OUTDOORS	987	n/a	n/a	0	0	0
1586583	REC_WORD	wordpools/wasnorm_wordpool_576.txt	LTP354	ltpFR2	15	8	BATHTUB	100	n/a	n/a	0	0	0
1587801	REC_WORD	wordpools/wasnorm_wordpool_576.txt	LTP354	ltpFR2	15	8	HOUND	724	n/a	n/a	0	0	0
1588691	REC_WORD	wordpools/wasnorm_wordpool_576.txt	LTP354	ltpFR2	15	8	LACE	792	n/a	n/a	0	0	0
1596559	REC_WORD	wordpools/wasnorm_wordpool_576.txt	LTP354	ltpFR2	15	8	TWIG	1527	n/a	n/a	0	0	0
1606081	REC_WORD	wordpools/wasnorm_wordpool_576.txt	LTP354	ltpFR2	15	8	WASP	1593	n/a	n/a	0	0	0
1620346	REST_REWET	n/a	LTP354	ltpFR2	15	8	n/a	n/a	n/a	n/a	0	0	0
1805820	WORD	wordpools/wasnorm_wordpool_576.txt	LTP354	ltpFR2	15	9	PIGMENT	1066	n/a	n/a	0	0	0
1808320	WORD	wordpools/wasnorm_wordpool_576.txt	LTP354	ltpFR2	15	9	FILM	565	n/a	n/a	0	0	0
1810834	WORD	wordpools/wasnorm_wordpool_576.txt	LTP354	ltpFR2	15	9	SHOVEL	1295	n/a	n/a	0	0	0
1813450	WORD	wordpools/wasnorm_wordpool_576.txt	LTP354	ltpFR2	15	9	CLIMBER	323	n/a	n/a	0	0	0
1816231	WORD	wordpools/wasnorm_wordpool_576.txt	LTP354	ltpFR2	15	9	PANTHER	1009	n/a	n/a	0	0	0
1819013	WORD	wordpools/wasnorm_wordpool_576.txt	LTP354	ltpFR2	15	9	TURKEY	1520	n/a	n/a	0	0	0
1821795	WORD	wordpools/wasnorm_wordpool_576.txt	LTP354	ltpFR2	15	9	PERCH	1048	n/a	n/a	0	0	0
1824628	WORD	wordpools/wasnorm_wordpool_576.txt	LTP354	ltpFR2	15	9	POSSUM	1112	n/a	n/a	0	0	0
1827360	WORD	wordpools/wasnorm_wordpool_576.txt	LTP354	ltpFR2	15	9	SHRUB	1299	n/a	n/a	0	0	0
1830041	WORD	wordpools/wasnorm_wordpool_576.txt	LTP354	ltpFR2	15	9	PRINCESS	1125	n/a	n/a	0	0	0
1832756	WORD	wordpools/wasnorm_wordpool_576.txt	LTP354	ltpFR2	15	9	MUFFIN	929	n/a	n/a	0	0	0
1835306	WORD	wordpools/wasnorm_wordpool_576.txt	LTP354	ltpFR2	15	9	JELLY	755	n/a	n/a	0	0	0
1837987	WORD	wordpools/wasnorm_wordpool_576.txt	LTP354	ltpFR2	15	9	SHELTER	1282	n/a	n/a	0	0	0
1840520	WORD	wordpools/wasnorm_wordpool_576.txt	LTP354	ltpFR2	15	9	KEEPER	769	n/a	n/a	0	0	0
1843018	WORD	wordpools/wasnorm_wordpool_576.txt	LTP354	ltpFR2	15	9	SLUG	1329	n/a	n/a	0	0	0
1845833	WORD	wordpools/wasnorm_wordpool_576.txt	LTP354	ltpFR2	15	9	MISTER	901	n/a	n/a	0	0	0
1848416	WORD	wordpools/wasnorm_wordpool_576.txt	LTP354	ltpFR2	15	9	LASER	801	n/a	n/a	0	0	0
1851114	WORD	wordpools/wasnorm_wordpool_576.txt	LTP354	ltpFR2	15	9	LAMP	798	n/a	n/a	0	0	0
1853896	WORD	wordpools/wasnorm_wordpool_576.txt	LTP354	ltpFR2	15	9	PICTURE	1061	n/a	n/a	0	0	0
1856446	WORD	wordpools/wasnorm_wordpool_576.txt	LTP354	ltpFR2	15	9	CARRIAGE	248	n/a	n/a	0	0	0
1859077	WORD	wordpools/wasnorm_wordpool_576.txt	LTP354	ltpFR2	15	9	SALT	1229	n/a	n/a	0	0	0
1861875	WORD	wordpools/wasnorm_wordpool_576.txt	LTP354	ltpFR2	15	9	ONION	977	n/a	n/a	0	0	0
1864592	WORD	wordpools/wasnorm_wordpool_576.txt	LTP354	ltpFR2	15	9	CANYON	235	n/a	n/a	0	0	0
1867073	WORD	wordpools/wasnorm_wordpool_576.txt	LTP354	ltpFR2	15	9	BADGE	68	n/a	n/a	0	0	0
1868690	START	n/a	LTP354	ltpFR2	15	n/a	n/a	n/a	15	n/a	n/a	n/a	n/a
1869809	DISTRACTOR	n/a	LTP354	ltpFR2	15	9	n/a	n/a	n/a	n/a	0	0	0
1869821	PROB	n/a	LTP354	ltpFR2	15	n/a	n/a	n/a	15	24	7	9	8
1871738	PROB	n/a	LTP354	ltpFR2	15	n/a	n/a	n/a	15	18	8	4	6
1872803	PROB	n/a	LTP354	ltpFR2	15	n/a	n/a	n/a	15	19	9	9	1
1873886	PROB	n/a	LTP354	ltpFR2	15	n/a	n/a	n/a	15	16	7	4	5
1875736	PROB	n/a	LTP354	ltpFR2	15	n/a	n/a	n/a	15	12	1	3	8
1876686	PROB	n/a	LTP354	ltpFR2	15	n/a	n/a	n/a	15	13	1	3	9
1877851	PROB	n/a	LTP354	ltpFR2	15	n/a	n/a	n/a	15	19	6	9	4
1878950	PROB	n/a	LTP354	ltpFR2	15	n/a	n/a	n/a	15	23	8	6	9
1880766	PROB	n/a	LTP354	ltpFR2	15	n/a	n/a	n/a	15	21	9	5	7
1883416	PROB	n/a	LTP354	ltpFR2	15	n/a	n/a	n/a	15	13	6	4	3
1884415	PROB	n/a	LTP354	ltpFR2	15	n/a	n/a	n/a	15	8	2	4	2
1885498	PROB	n/a	LTP354	ltpFR2	15	n/a	n/a	n/a	15	15	7	3	5
1886431	PROB	n/a	LTP354	ltpFR2	15	n/a	n/a	n/a	15	15	4	7	4
1887812	PROB	n/a	LTP354	ltpFR2	15	n/a	n/a	n/a	15	16	5	3	8
1888995	PROB	n/a	LTP354	ltpFR2	15	n/a	n/a	n/a	15	14	4	5	5
1890145	PROB	n/a	LTP354	ltpFR2	15	n/a	n/a	n/a	15	19	9	9	1
1891111	PROB	n/a	LTP354	ltpFR2	15	n/a	n/a	n/a	15	13	5	3	5
1892169	STOP	n/a	LTP354	ltpFR2	15	n/a	n/a	n/a	15	n/a	n/a	n/a	n/a
1894627	REC_START	n/a	LTP354	ltpFR2	15	9	n/a	n/a	n/a	n/a	0	0	0
1895624	REC_WORD	wordpools/wasnorm_wordpool_576.txt	LTP354	ltpFR2	15	9	CANYON	235	n/a	n/a	0	0	0
1897125	REC_WORD	wordpools/wasnorm_wordpool_576.txt	LTP354	ltpFR2	15	9	PIGMENT	1066	n/a	n/a	0	0	0
1899124	REC_WORD	wordpools/wasnorm_wordpool_576.txt	LTP354	ltpFR2	15	9	FILM	565	n/a	n/a	0	0	0
1900342	REC_WORD	wordpools/wasnorm_wordpool_576.txt	LTP354	ltpFR2	15	9	MISTER	901	n/a	n/a	0	0	0
1901177	REC_WORD	wordpools/wasnorm_wordpool_576.txt	LTP354	ltpFR2	15	9	KEEPER	769	n/a	n/a	0	0	0
1904919	REC_WORD	wordpools/wasnorm_wordpool_576.txt	LTP354	ltpFR2	15	9	SHRUB	1299	n/a	n/a	0	0	0
1907452	REC_WORD	wordpools/wasnorm_wordpool_576.txt	LTP354	ltpFR2	15	9	SLUG	1329	n/a	n/a	0	0	0
1926606	REC_WORD	wordpools/wasnorm_wordpool_576.txt	LTP354	ltpFR2	15	9	BUCKET	184	n/a	n/a	0	0	0
1933386	REC_WORD	wordpools/wasnorm_wordpool_576.txt	LTP354	ltpFR2	15	9	PRINCESS	1125	n/a	n/a	0	0	0
1934386	REC_WORD_VV	wordpools/wasnorm_wordpool_576.txt	LTP354	ltpFR2	15	9	<>	-1	n/a	n/a	0	0	0
1947148	REC_WORD	wordpools/wasnorm_wordpool_576.txt	LTP354	ltpFR2	15	9	CARRIAGE	248	n/a	n/a	0	0	0
1967715	REC_WORD	wordpools/wasnorm_wordpool_576.txt	LTP354	ltpFR2	15	9	PICTURE	1061	n/a	n/a	0	0	0
1985064	DISTRACTOR	n/a	LTP354	ltpFR2	15	10	n/a	n/a	n/a	n/a	0	0	0
1985064	START	n/a	LTP354	ltpFR2	15	n/a	n/a	n/a	16	n/a	n/a	n/a	n/a
1985081	PROB	n/a	LTP354	ltpFR2	15	n/a	n/a	n/a	16	12	7	3	2
1987481	PROB	n/a	LTP354	ltpFR2	15	n/a	n/a	n/a	16	8	1	6	1
1988680	PROB	n/a	LTP354	ltpFR2	15	n/a	n/a	n/a	16	18	3	9	6
1989928	PROB	n/a	LTP354	ltpFR2	15	n/a	n/a	n/a	16	10	1	5	4
1991911	PROB	n/a	LTP354	ltpFR2	15	n/a	n/a	n/a	16	20	7	4	9
1993210	PROB	n/a	LTP354	ltpFR2	15	n/a	n/a	n/a	16	19	5	6	8
1994909	PROB	n/a	LTP354	ltpFR2	15	n/a	n/a	n/a	16	21	7	9	5
1996343	PROB	n/a	LTP354	ltpFR2	15	n/a	n/a	n/a	16	14	3	4	7
1997426	PROB	n/a	LTP354	ltpFR2	15	n/a	n/a	n/a	16	17	7	9	1
1998841	PROB	n/a	LTP354	ltpFR2	15	n/a	n/a	n/a	16	15	5	1	9
1999824	PROB	n/a	LTP354	ltpFR2	15	n/a	n/a	n/a	16	16	5	3	8
2001307	PROB	n/a	LTP354	ltpFR2	15	n/a	n/a	n/a	16	17	9	2	6
2002573	PROB	n/a	LTP354	ltpFR2	15	n/a	n/a	n/a	16	11	6	2	3
2004705	PROB	n/a	LTP354	ltpFR2	15	n/a	n/a	n/a	16	15	3	3	9
2005887	PROB	n/a	LTP354	ltpFR2	15	n/a	n/a	n/a	16	14	4	2	8
2006820	PROB	n/a	LTP354	ltpFR2	15	n/a	n/a	n/a	16	14	6	1	7
2007809	STOP	n/a	LTP354	ltpFR2	15	n/a	n/a	n/a	16	n/a	n/a	n/a	n/a
2009952	WORD	wordpools/wasnorm_wordpool_576.txt	LTP354	ltpFR2	15	10	AIRPLANE	12	n/a	n/a	0	0	0
2012435	WORD	wordpools/wasnorm_wordpool_576.txt	LTP354	ltpFR2	15	10	CHEST	295	n/a	n/a	0	0	0
2015066	WORD	wordpools/wasnorm_wordpool_576.txt	LTP354	ltpFR2	15	10	BODY	145	n/a	n/a	0	0	0
2017865	WORD	wordpools/wasnorm_wordpool_576.txt	LTP354	ltpFR2	15	10	GAVEL	627	n/a	n/a	0	0	0
2020364	WORD	wordpools/wasnorm_wordpool_576.txt	LTP354	ltpFR2	15	10	RIVER	1194	n/a	n/a	0	0	0
2023079	WORD	wordpools/wasnorm_wordpool_576.txt	LTP354	ltpFR2	15	10	ANTLER	29	n/a	n/a	0	0	0
2025761	WORD	wordpools/wasnorm_wordpool_576.txt	LTP354	ltpFR2	15	10	FRIAR	605	n/a	n/a	0	0	0
2028560	WORD	wordpools/wasnorm_wordpool_576.txt	LTP354	ltpFR2	15	10	PEPPER	1047	n/a	n/a	0	0	0
2030991	WORD	wordpools/wasnorm_wordpool_576.txt	LTP354	ltpFR2	15	10	OYSTER	995	n/a	n/a	0	0	0
2033757	WORD	wordpools/wasnorm_wordpool_576.txt	LTP354	ltpFR2	15	10	MISSILE	900	n/a	n/a	0	0	0
2036573	WORD	wordpools/wasnorm_wordpool_576.txt	LTP354	ltpFR2	15	10	PIMPLE	1071	n/a	n/a	0	0	0
2039204	WORD	wordpools/wasnorm_wordpool_576.txt	LTP354	ltpFR2	15	10	TYPIST	1532	n/a	n/a	0	0	0
2041737	WORD	wordpools/wasnorm_wordpool_576.txt	LTP354	ltpFR2	15	10	GAZELLE	628	n/a	n/a	0	0	0
2044235	WORD	wordpools/wasnorm_wordpool_576.txt	LTP354	ltpFR2	15	10	SEAFOOD	1260	n/a	n/a	0	0	0
2046850	WORD	wordpools/wasnorm_wordpool_576.txt	LTP354	ltpFR2	15	10	WARDROBE	1587	n/a	n/a	0	0	0
2049317	WORD	wordpools/wasnorm_wordpool_576.txt	LTP354	ltpFR2	15	10	SKIRT	1319	n/a	n/a	0	0	0
2051964	WORD	wordpools/wasnorm_wordpool_576.txt	LTP354	ltpFR2	15	10	FRAME	600	n/a	n/a	0	0	0
2054647	WORD	wordpools/wasnorm_wordpool_576.txt	LTP354	ltpFR2	15	10	SPARROW	1347	n/a	n/a	0	0	0
2057212	WORD	wordpools/wasnorm_wordpool_576.txt	LTP354	ltpFR2	15	10	PARROT	1015	n/a	n/a	0	0	0
2059994	WORD	wordpools/wasnorm_wordpool_576.txt	LTP354	ltpFR2	15	10	SPIDER	1351	n/a	n/a	0	0	0
2062593	WORD	wordpools/wasnorm_wordpool_576.txt	LTP354	ltpFR2	15	10	PORTRAIT	1111	n/a	n/a	0	0	0
2065375	WORD	wordpools/wasnorm_wordpool_576.txt	LTP354	ltpFR2	15	10	BARLEY	88	n/a	n/a	0	0	0
2068140	WORD	wordpools/wasnorm_wordpool_576.txt	LTP354	ltpFR2	15	10	VALVE	1546	n/a	n/a	0	0	0
2070872	WORD	wordpools/wasnorm_wordpool_576.txt	LTP354	ltpFR2	15	10	OUTLAW	989	n/a	n/a	0	0	0
2072489	START	n/a	LTP354	ltpFR2	15	n/a	n/a	n/a	17	n/a	n/a	n/a	n/a
2073450	DISTRACTOR	n/a	LTP354	ltpFR2	15	10	n/a	n/a	n/a	n/a	0	0	0
2073455	PROB	n/a	LTP354	ltpFR2	15	n/a	n/a	n/a	17	14	9	1	4
2075354	PROB	n/a	LTP354	ltpFR2	15	n/a	n/a	n/a	17	14	2	3	9
2078435	PROB	n/a	LTP354	ltpFR2	15	n/a	n/a	n/a	17	19	9	9	1
2079485	PROB	n/a	LTP354	ltpFR2	15	n/a	n/a	n/a	17	16	2	5	9
2081250	PROB	n/a	LTP354	ltpFR2	15	n/a	n/a	n/a	17	13	3	2	8
2082400	PROB	n/a	LTP354	ltpFR2	15	n/a	n/a	n/a	17	14	8	2	4
2083466	PROB	n/a	LTP354	ltpFR2	15	n/a	n/a	n/a	17	9	5	1	3
2085332	PROB	n/a	LTP354	ltpFR2	15	n/a	n/a	n/a	17	17	7	6	4
2086365	PROB	n/a	LTP354	ltpFR2	15	n/a	n/a	n/a	17	16	1	9	6
2087348	PROB	n/a	LTP354	ltpFR2	15	n/a	n/a	n/a	17	19	3	9	7
2089146	PROB	n/a	LTP354	ltpFR2	15	n/a	n/a	n/a	17	20	8	9	3
2090679	PROB	n/a	LTP354	ltpFR2	15	n/a	n/a	n/a	17	16	6	6	4
2091778	PROB	n/a	LTP354	ltpFR2	15	n/a	n/a	n/a	17	11	2	6	3
2093361	PROB	n/a	LTP354	ltpFR2	15	n/a	n/a	n/a	17	19	8	7	4
2095137	STOP	n/a	LTP354	ltpFR2	15	n/a	n/a	n/a	17	n/a	n/a	n/a	n/a
2098326	REC_START	n/a	LTP354	ltpFR2	15	10	n/a	n/a	n/a	n/a	0	0	0
2099283	REC_WORD	wordpools/wasnorm_wordpool_576.txt	LTP354	ltpFR2	15	10	VALVE	1546	n/a	n/a	0	0	0
2100013	REC_WORD	wordpools/wasnorm_wordpool_576.txt	LTP354	ltpFR2	15	10	OUTLAW	989	n/a	n/a	0	0	0
2102657	REC_WORD	wordpools/wasnorm_wordpool_576.txt	LTP354	ltpFR2	15	10	BODY	145	n/a	n/a	0	0	0
2106670	REC_WORD	wordpools/wasnorm_wordpool_576.txt	LTP354	ltpFR2	15	10	PICTURE	1061	n/a	n/a	0	0	0
2110210	REC_WORD	wordpools/wasnorm_wordpool_576.txt	LTP354	ltpFR2	15	10	FRAME	600	n/a	n/a	0	0	0
2117698	REC_WORD	wordpools/wasnorm_wordpool_576.txt	LTP354	ltpFR2	15	10	SPARROW	1347	n/a	n/a	0	0	0
2119215	REC_WORD	wordpools/wasnorm_wordpool_576.txt	LTP354	ltpFR2	15	10	PARROT	1015	n/a	n/a	0	0	0
2120099	REC_WORD	wordpools/wasnorm_wordpool_576.txt	LTP354	ltpFR2	15	10	GAZELLE	628	n/a	n/a	0	0	0
2121273	REC_WORD	wordpools/wasnorm_wordpool_576.txt	LTP354	ltpFR2	15	10	ANTLER	29	n/a	n/a	0	0	0
2147860	REC_WORD	wordpools/wasnorm_wordpool_576.txt	LTP354	ltpFR2	15	10	FRIAR	605	n/a	n/a	0	0	0
2151848	REC_WORD	wordpools/wasnorm_wordpool_576.txt	LTP354	ltpFR2	15	10	GAVEL	627	n/a	n/a	0	0	0
2154225	REC_WORD	wordpools/wasnorm_wordpool_576.txt	LTP354	ltpFR2	15	10	RIVER	1194	n/a	n/a	0	0	0
2166258	REC_WORD	wordpools/wasnorm_wordpool_576.txt	LTP354	ltpFR2	15	10	CHEST	295	n/a	n/a	0	0	0
2188796	WORD	wordpools/wasnorm_wordpool_576.txt	LTP354	ltpFR2	15	11	FINGER	567	n/a	n/a	0	0	0
2191496	WORD	wordpools/wasnorm_wordpool_576.txt	LTP354	ltpFR2	15	11	TROUT	1511	n/a	n/a	0	0	0
2194094	WORD	wordpools/wasnorm_wordpool_576.txt	LTP354	ltpFR2	15	11	FLIPPER	580	n/a	n/a	0	0	0
2196627	WORD	wordpools/wasnorm_wordpool_576.txt	LTP354	ltpFR2	15	11	MARKER	870	n/a	n/a	0	0	0
2199225	WORD	wordpools/wasnorm_wordpool_576.txt	LTP354	ltpFR2	15	11	BRANCH	168	n/a	n/a	0	0	0
2201708	WORD	wordpools/wasnorm_wordpool_576.txt	LTP354	ltpFR2	15	11	LAKE	796	n/a	n/a	0	0	0
2204490	WORD	wordpools/wasnorm_wordpool_576.txt	LTP354	ltpFR2	15	11	MESSAGE	888	n/a	n/a	0	0	0
2206954	WORD	wordpools/wasnorm_wordpool_576.txt	LTP354	ltpFR2	15	11	GRAVE	658	n/a	n/a	0	0	0
2209654	WORD	wordpools/wasnorm_wordpool_576.txt	LTP354	ltpFR2	15	11	CHIPMUNK	304	n/a	n/a	0	0	0
2212135	WORD	wordpools/wasnorm_wordpool_576.txt	LTP354	ltpFR2	15	11	CANDY	230	n/a	n/a	0	0	0
2214767	WORD	wordpools/wasnorm_wordpool_576.txt	LTP354	ltpFR2	15	11	STICKER	1382	n/a	n/a	0	0	0
2217366	WORD	wordpools/wasnorm_wordpool_576.txt	LTP354	ltpFR2	15	11	STUDENT	1395	n/a	n/a	0	0	0
2220164	WORD	wordpools/wasnorm_wordpool_576.txt	LTP354	ltpFR2	15	11	BOARD	143	n/a	n/a	0	0	0
2222597	WORD	wordpools/wasnorm_wordpool_576.txt	LTP354	ltpFR2	15	11	FLUTE	585	n/a	n/a	0	0	0
2225195	WORD	wordpools/wasnorm_wordpool_576.txt	LTP354	ltpFR2	15	11	HAND	683	n/a	n/a	0	0	0
2227728	WORD	wordpools/wasnorm_wordpool_576.txt	LTP354	ltpFR2	15	11	VICTIM	1562	n/a	n/a	0	0	0
2230242	WORD	wordpools/wasnorm_wordpool_576.txt	LTP354	ltpFR2	15	11	HOOD	714	n/a	n/a	0	0	0
2232991	WORD	wordpools/wasnorm_wordpool_576.txt	LTP354	ltpFR2	15	11	DANCER	437	n/a	n/a	0	0	0
2235707	WORD	wordpools/wasnorm_wordpool_576.txt	LTP354	ltpFR2	15	11	WHISKERS	1605	n/a	n/a	0	0	0
2238323	WORD	wordpools/wasnorm_wordpool_576.txt	LTP354	ltpFR2	15	11	RATTLE	1170	n/a	n/a	0	0	0
2241120	WORD	wordpools/wasnorm_wordpool_576.txt	LTP354	ltpFR2	15	11	LIZARD	834	n/a	n/a	0	0	0
2243553	WORD	wordpools/wasnorm_wordpool_576.txt	LTP354	ltpFR2	15	11	COBRA	336	n/a	n/a	0	0	0
2246369	WORD	wordpools/wasnorm_wordpool_576.txt	LTP354	ltpFR2	15	11	DUSTPAN	509	n/a	n/a	0	0	0
2249016	WORD	wordpools/wasnorm_wordpool_576.txt	LTP354	ltpFR2	15	11	BISON	131	n/a	n/a	0	0	0
2250634	START	n/a	LTP354	ltpFR2	15	n/a	n/a	n/a	18	n/a	n/a	n/a	n/a
2251802	DISTRACTOR	n/a	LTP354	ltpFR2	15	11	n/a	n/a	n/a	n/a	0	0	0
2251815	PROB	n/a	LTP354	ltpFR2	15	n/a	n/a	n/a	18	8	1	3	4
2253332	PROB	n/a	LTP354	ltpFR2	15	n/a	n/a	n/a	18	12	4	4	4
2254631	PROB	n/a	LTP354	ltpFR2	15	n/a	n/a	n/a	18	18	4	5	9
2255846	PROB	n/a	LTP354	ltpFR2	15	n/a	n/a	n/a	18	11	1	3	7
2256829	PROB	n/a	LTP354	ltpFR2	15	n/a	n/a	n/a	18	11	8	2	1
2257812	PROB	n/a	LTP354	ltpFR2	15	n/a	n/a	n/a	18	22	8	9	5
2260777	PROB	n/a	LTP354	ltpFR2	15	n/a	n/a	n/a	18	15	6	4	5
2261678	PROB	n/a	LTP354	ltpFR2	15	n/a	n/a	n/a	18	19	9	1	9
2263059	PROB	n/a	LTP354	ltpFR2	15	n/a	n/a	n/a	18	15	1	8	6
2264593	PROB	n/a	LTP354	ltpFR2	15	n/a	n/a	n/a	18	16	5	7	4
2265808	PROB	n/a	LTP354	ltpFR2	15	n/a	n/a	n/a	18	14	5	2	7
2266908	PROB	n/a	LTP354	ltpFR2	15	n/a	n/a	n/a	18	22	8	5	9
2268873	PROB	n/a	LTP354	ltpFR2	15	n/a	n/a	n/a	18	18	2	7	9
2269973	PROB	n/a	LTP354	ltpFR2	15	n/a	n/a	n/a	18	21	7	9	5
2271289	PROB	n/a	LTP354	ltpFR2	15	n/a	n/a	n/a	18	16	3	9	4
2274633	STOP	n/a	LTP354	ltpFR2	15	n/a	n/a	n/a	18	n/a	n/a	n/a	n/a
2276504	REC_START	n/a	LTP354	ltpFR2	15	11	n/a	n/a	n/a	n/a	0	0	0
2278277	REC_WORD	wordpools/wasnorm_wordpool_576.txt	LTP354	ltpFR2	15	11	FINGER	567	n/a	n/a	0	0	0
2279185	REC_WORD	wordpools/wasnorm_wordpool_576.txt	LTP354	ltpFR2	15	11	TROUT	1511	n/a	n/a	0	0	0
2280337	REC_WORD	wordpools/wasnorm_wordpool_576.txt	LTP354	ltpFR2	15	11	LAKE	796	n/a	n/a	0	0	0
2281216	REC_WORD	wordpools/wasnorm_wordpool_576.txt	LTP354	ltpFR2	15	11	FLIPPER	580	n/a	n/a	0	0	0
2282985	REC_WORD	wordpools/wasnorm_wordpool_576.txt	LTP354	ltpFR2	15	11	DUSTPAN	509	n/a	n/a	0	0	0
2295081	REC_WORD	wordpools/wasnorm_wordpool_576.txt	LTP354	ltpFR2	15	11	WAGON	1578	n/a	n/a	0	0	0
2302268	REC_WORD	wordpools/wasnorm_wordpool_576.txt	LTP354	ltpFR2	15	11	MARKET	871	n/a	n/a	0	0	0
2303268	REC_WORD_VV	wordpools/wasnorm_wordpool_576.txt	LTP354	ltpFR2	15	11	<>	-1	n/a	n/a	0	0	0
2349600	REC_WORD	wordpools/wasnorm_wordpool_576.txt	LTP354	ltpFR2	15	11	CANYON	235	n/a	n/a	0	0	0
2366941	DISTRACTOR	n/a	LTP354	ltpFR2	15	12	n/a	n/a	n/a	n/a	0	0	0
2366941	START	n/a	LTP354	ltpFR2	15	n/a	n/a	n/a	19	n/a	n/a	n/a	n/a
2366958	PROB	n/a	LTP354	ltpFR2	15	n/a	n/a	n/a	19	8	2	2	4
2368241	PROB	n/a	LTP354	ltpFR2	15	n/a	n/a	n/a	19	7	2	3	2
2370040	PROB	n/a	LTP354	ltpFR2	15	n/a	n/a	n/a	19	17	9	5	3
2372955	PROB	n/a	LTP354	ltpFR2	15	n/a	n/a	n/a	19	10	3	5	2
2374438	PROB	n/a	LTP354	ltpFR2	15	n/a	n/a	n/a	19	14	6	7	1
2375338	PROB	n/a	LTP354	ltpFR2	15	n/a	n/a	n/a	19	15	5	7	3
2376253	PROB	n/a	LTP354	ltpFR2	15	n/a	n/a	n/a	19	21	4	9	8
2377554	PROB	n/a	LTP354	ltpFR2	15	n/a	n/a	n/a	19	15	6	3	6
2378620	PROB	n/a	LTP354	ltpFR2	15	n/a	n/a	n/a	19	17	6	5	6
2379768	PROB	n/a	LTP354	ltpFR2	15	n/a	n/a	n/a	19	19	7	9	3
2382117	PROB	n/a	LTP354	ltpFR2	15	n/a	n/a	n/a	19	9	2	5	2
2383451	PROB	n/a	LTP354	ltpFR2	15	n/a	n/a	n/a	19	4	1	1	2
2384334	PROB	n/a	LTP354	ltpFR2	15	n/a	n/a	n/a	19	15	2	7	6
2386482	PROB	n/a	LTP354	ltpFR2	15	n/a	n/a	n/a	19	13	3	2	8
2387881	PROB	n/a	LTP354	ltpFR2	15	n/a	n/a	n/a	19	12	6	5	1
2388814	PROB	n/a	LTP354	ltpFR2	15	n/a	n/a	n/a	19	12	2	2	8
2389801	STOP	n/a	LTP354	ltpFR2	15	n/a	n/a	n/a	19	n/a	n/a	n/a	n/a
2392045	WORD	wordpools/wasnorm_wordpool_576.txt	LTP354	ltpFR2	15	12	SCISSORS	1250	n/a	n/a	0	0	0
2394528	WORD	wordpools/wasnorm_wordpool_576.txt	LTP354	ltpFR2	15	12	PUDDLE	1140	n/a	n/a	0	0	0
2397226	WORD	wordpools/wasnorm_wordpool_576.txt	LTP354	ltpFR2	15	12	SIBLING	1301	n/a	n/a	0	0	0
2400041	WORD	wordpools/wasnorm_wordpool_576.txt	LTP354	ltpFR2	15	12	TAXI	1438	n/a	n/a	0	0	0
2402525	WORD	wordpools/wasnorm_wordpool_576.txt	LTP354	ltpFR2	15	12	JEANS	752	n/a	n/a	0	0	0
2405122	WORD	wordpools/wasnorm_wordpool_576.txt	LTP354	ltpFR2	15	12	PARSLEY	1016	n/a	n/a	0	0	0
2407655	WORD	wordpools/wasnorm_wordpool_576.txt	LTP354	ltpFR2	15	12	GRILL	661	n/a	n/a	0	0	0
2410270	WORD	wordpools/wasnorm_wordpool_576.txt	LTP354	ltpFR2	15	12	BANQUET	86	n/a	n/a	0	0	0
2412768	WORD	wordpools/wasnorm_wordpool_576.txt	LTP354	ltpFR2	15	12	BEAVER	109	n/a	n/a	0	0	0
2415418	WORD	wordpools/wasnorm_wordpool_576.txt	LTP354	ltpFR2	15	12	FUNGUS	614	n/a	n/a	0	0	0
2417999	WORD	wordpools/wasnorm_wordpool_576.txt	LTP354	ltpFR2	15	12	EUROPE	541	n/a	n/a	0	0	0
2420666	WORD	wordpools/wasnorm_wordpool_576.txt	LTP354	ltpFR2	15	12	FRANCE	601	n/a	n/a	0	0	0
2423197	WORD	wordpools/wasnorm_wordpool_576.txt	LTP354	ltpFR2	15	12	MOTOR	922	n/a	n/a	0	0	0
2426012	WORD	wordpools/wasnorm_wordpool_576.txt	LTP354	ltpFR2	15	12	SKILLET	1317	n/a	n/a	0	0	0
2428794	WORD	wordpools/wasnorm_wordpool_576.txt	LTP354	ltpFR2	15	12	GARLIC	624	n/a	n/a	0	0	0
2431460	WORD	wordpools/wasnorm_wordpool_576.txt	LTP354	ltpFR2	15	12	DOUGHNUT	490	n/a	n/a	0	0	0
2434125	WORD	wordpools/wasnorm_wordpool_576.txt	LTP354	ltpFR2	15	12	ZIPPER	1636	n/a	n/a	0	0	0
2436823	WORD	wordpools/wasnorm_wordpool_576.txt	LTP354	ltpFR2	15	12	FRAGRANCE	599	n/a	n/a	0	0	0
2439390	WORD	wordpools/wasnorm_wordpool_576.txt	LTP354	ltpFR2	15	12	ROBBER	1197	n/a	n/a	0	0	0
2442004	WORD	wordpools/wasnorm_wordpool_576.txt	LTP354	ltpFR2	15	12	WIFE	1609	n/a	n/a	0	0	0
2444520	WORD	wordpools/wasnorm_wordpool_576.txt	LTP354	ltpFR2	15	12	ATLAS	53	n/a	n/a	0	0	0
2447168	WORD	wordpools/wasnorm_wordpool_576.txt	LTP354	ltpFR2	15	12	PASSAGE	1019	n/a	n/a	0	0	0
2449883	WORD	wordpools/wasnorm_wordpool_576.txt	LTP354	ltpFR2	15	12	BROTHER	179	n/a	n/a	0	0	0
2452333	WORD	wordpools/wasnorm_wordpool_576.txt	LTP354	ltpFR2	15	12	COD	340	n/a	n/a	0	0	0
2453948	START	n/a	LTP354	ltpFR2	15	n/a	n/a	n/a	20	n/a	n/a	n/a	n/a
2455070	DISTRACTOR	n/a	LTP354	ltpFR2	15	12	n/a	n/a	n/a	n/a	0	0	0
2455081	PROB	n/a	LTP354	ltpFR2	15	n/a	n/a	n/a	20	11	5	2	4
2456714	PROB	n/a	LTP354	ltpFR2	15	n/a	n/a	n/a	20	15	7	4	4
2458680	PROB	n/a	LTP354	ltpFR2	15	n/a	n/a	n/a	20	19	8	6	5
2460162	PROB	n/a	LTP354	ltpFR2	15	n/a	n/a	n/a	20	13	4	7	2
2461927	PROB	n/a	LTP354	ltpFR2	15	n/a	n/a	n/a	20	20	9	5	6
2463760	PROB	n/a	LTP354	ltpFR2	15	n/a	n/a	n/a	20	10	4	2	4
2464793	PROB	n/a	LTP354	ltpFR2	15	n/a	n/a	n/a	20	12	8	3	1
2465660	PROB	n/a	LTP354	ltpFR2	15	n/a	n/a	n/a	20	19	4	9	6
2467309	PROB	n/a	LTP354	ltpFR2	15	n/a	n/a	n/a	20	6	3	1	2
2468191	PROB	n/a	LTP354	ltpFR2	15	n/a	n/a	n/a	20	19	6	4	9
2469124	PROB	n/a	LTP354	ltpFR2	15	n/a	n/a	n/a	20	23	9	6	8
2470691	PROB	n/a	LTP354	ltpFR2	15	n/a	n/a	n/a	20	19	3	7	9
2471707	PROB	n/a	LTP354	ltpFR2	15	n/a	n/a	n/a	20	9	2	4	3
2472955	PROB	n/a	LTP354	ltpFR2	15	n/a	n/a	n/a	20	21	8	8	5
2474021	PROB	n/a	LTP354	ltpFR2	15	n/a	n/a	n/a	20	10	7	2	1
2475104	PROB	n/a	LTP354	ltpFR2	15	n/a	n/a	n/a	20	22	9	4	9
2476220	PROB	n/a	LTP354	ltpFR2	15	n/a	n/a	n/a	20	16	3	9	4
2477394	STOP	n/a	LTP354	ltpFR2	15	n/a	n/a	n/a	20	n/a	n/a	n/a	n/a
2479703	REC_START	n/a	LTP354	ltpFR2	15	12	n/a	n/a	n/a	n/a	0	0	0
2482636	REC_WORD	wordpools/wasnorm_wordpool_576.txt	LTP354	ltpFR2	15	12	COD	340	n/a	n/a	0	0	0
2483504	REC_WORD	wordpools/wasnorm_wordpool_576.txt	LTP354	ltpFR2	15	12	ZIPPER	1636	n/a	n/a	0	0	0
2484402	REC_WORD	wordpools/wasnorm_wordpool_576.txt	LTP354	ltpFR2	15	12	BROTHER	179	n/a	n/a	0	0	0
2485037	REC_WORD	wordpools/wasnorm_wordpool_576.txt	LTP354	ltpFR2	15	12	SIBLING	1301	n/a	n/a	0	0	0
2485809	REC_WORD	wordpools/wasnorm_wordpool_576.txt	LTP354	ltpFR2	15	12	SISTER	1312	n/a	n/a	0	0	0
2487595	REC_WORD	wordpools/wasnorm_wordpool_576.txt	LTP354	ltpFR2	15	12	WIFE	1609	n/a	n/a	0	0	0
2490942	REC_WORD	wordpools/wasnorm_wordpool_576.txt	LTP354	ltpFR2	15	12	PARSLEY	1016	n/a	n/a	0	0	0
2492229	REC_WORD	wordpools/wasnorm_wordpool_576.txt	LTP354	ltpFR2	15	12	GRILL	661	n/a	n/a	0	0	0
2503150	REC_WORD	wordpools/wasnorm_wordpool_576.txt	LTP354	ltpFR2	15	12	TYPIST	1532	n/a	n/a	0	0	0
2519635	REC_WORD	wordpools/wasnorm_wordpool_576.txt	LTP354	ltpFR2	15	12	ATLAS	53	n/a	n/a	0	0	0
2520485	REC_WORD	wordpools/wasnorm_wordpool_576.txt	LTP354	ltpFR2	15	12	EUROPE	541	n/a	n/a	0	0	0
2521557	REC_WORD	wordpools/wasnorm_wordpool_576.txt	LTP354	ltpFR2	15	12	FRANCE	601	n/a	n/a	0	0	0
2535060	REC_WORD	wordpools/wasnorm_wordpool_576.txt	LTP354	ltpFR2	15	12	FRAGRANCE	599	n/a	n/a	0	0	0
2537855	REC_WORD	wordpools/wasnorm_wordpool_576.txt	LTP354	ltpFR2	15	12	JEANS	752	n/a	n/a	0	0	0
2544659	REC_WORD	wordpools/wasnorm_wordpool_576.txt	LTP354	ltpFR2	15	12	TAXI	1438	n/a	n/a	0	0	0
2545794	REC_WORD	wordpools/wasnorm_wordpool_576.txt	LTP354	ltpFR2	15	12	PUDDLE	1140	n/a	n/a	0	0	0
2570174	WORD	wordpools/wasnorm_wordpool_576.txt	LTP354	ltpFR2	15	13	DONOR	485	n/a	n/a	0	0	0
2572922	WORD	wordpools/wasnorm_wordpool_576.txt	LTP354	ltpFR2	15	13	STAKE	1368	n/a	n/a	0	0	0
2575655	WORD	wordpools/wasnorm_wordpool_576.txt	LTP354	ltpFR2	15	13	FLAG	573	n/a	n/a	0	0	0
2578203	WORD	wordpools/wasnorm_wordpool_576.txt	LTP354	ltpFR2	15	13	CUSTARD	429	n/a	n/a	0	0	0
2580985	WORD	wordpools/wasnorm_wordpool_576.txt	LTP354	ltpFR2	15	13	BLENDER	136	n/a	n/a	0	0	0
2583767	WORD	wordpools/wasnorm_wordpool_576.txt	LTP354	ltpFR2	15	13	NOVEL	960	n/a	n/a	0	0	0
2586249	WORD	wordpools/wasnorm_wordpool_576.txt	LTP354	ltpFR2	15	13	HOSTESS	723	n/a	n/a	0	0	0
2588964	WORD	wordpools/wasnorm_wordpool_576.txt	LTP354	ltpFR2	15	13	PIANO	1057	n/a	n/a	0	0	0
2591564	WORD	wordpools/wasnorm_wordpool_576.txt	LTP354	ltpFR2	15	13	BUG	187	n/a	n/a	0	0	0
2594178	WORD	wordpools/wasnorm_wordpool_576.txt	LTP354	ltpFR2	15	13	COCOON	339	n/a	n/a	0	0	0
2596695	WORD	wordpools/wasnorm_wordpool_576.txt	LTP354	ltpFR2	15	13	KIDNEY	776	n/a	n/a	0	0	0
2599410	WORD	wordpools/wasnorm_wordpool_576.txt	LTP354	ltpFR2	15	13	LIVER	833	n/a	n/a	0	0	0
2601941	WORD	wordpools/wasnorm_wordpool_576.txt	LTP354	ltpFR2	15	13	PISTOL	1075	n/a	n/a	0	0	0
2604391	WORD	wordpools/wasnorm_wordpool_576.txt	LTP354	ltpFR2	15	13	XEROX	1628	n/a	n/a	0	0	0
2606872	WORD	wordpools/wasnorm_wordpool_576.txt	LTP354	ltpFR2	15	13	JUNGLE	764	n/a	n/a	0	0	0
2609472	WORD	wordpools/wasnorm_wordpool_576.txt	LTP354	ltpFR2	15	13	YARN	1631	n/a	n/a	0	0	0
2612103	WORD	wordpools/wasnorm_wordpool_576.txt	LTP354	ltpFR2	15	13	GANGSTER	620	n/a	n/a	0	0	0
2614785	WORD	wordpools/wasnorm_wordpool_576.txt	LTP354	ltpFR2	15	13	BASEMENT	94	n/a	n/a	0	0	0
2617484	WORD	wordpools/wasnorm_wordpool_576.txt	LTP354	ltpFR2	15	13	PASTA	1021	n/a	n/a	0	0	0
2619966	WORD	wordpools/wasnorm_wordpool_576.txt	LTP354	ltpFR2	15	13	PRIMATE	1123	n/a	n/a	0	0	0
2622499	WORD	wordpools/wasnorm_wordpool_576.txt	LTP354	ltpFR2	15	13	STAPLE	1371	n/a	n/a	0	0	0
2624930	WORD	wordpools/wasnorm_wordpool_576.txt	LTP354	ltpFR2	15	13	SNAKE	1333	n/a	n/a	0	0	0
2627546	WORD	wordpools/wasnorm_wordpool_576.txt	LTP354	ltpFR2	15	13	FRUIT	610	n/a	n/a	0	0	0
2630227	WORD	wordpools/wasnorm_wordpool_576.txt	LTP354	ltpFR2	15	13	SANDWICH	1232	n/a	n/a	0	0	0
2631843	START	n/a	LTP354	ltpFR2	15	n/a	n/a	n/a	21	n/a	n/a	n/a	n/a
2632897	DISTRACTOR	n/a	LTP354	ltpFR2	15	13	n/a	n/a	n/a	n/a	0	0	0
2632909	PROB	n/a	LTP354	ltpFR2	15	n/a	n/a	n/a	21	12	7	2	3
2637024	PROB	n/a	LTP354	ltpFR2	15	n/a	n/a	n/a	21	23	9	6	8
2639023	PROB	n/a	LTP354	ltpFR2	15	n/a	n/a	n/a	21	19	9	1	9
2640106	PROB	n/a	LTP354	ltpFR2	15	n/a	n/a	n/a	21	11	4	6	1
2640988	PROB	n/a	LTP354	ltpFR2	15	n/a	n/a	n/a	21	14	4	2	8
2642455	PROB	n/a	LTP354	ltpFR2	15	n/a	n/a	n/a	21	19	7	5	7
2643555	PROB	n/a	LTP354	ltpFR2	15	n/a	n/a	n/a	21	17	8	7	2
2647420	PROB	n/a	LTP354	ltpFR2	15	n/a	n/a	n/a	21	19	2	9	8
2648751	PROB	n/a	LTP354	ltpFR2	15	n/a	n/a	n/a	21	17	9	4	4
2650184	PROB	n/a	LTP354	ltpFR2	15	n/a	n/a	n/a	21	13	4	6	3
2651267	PROB	n/a	LTP354	ltpFR2	15	n/a	n/a	n/a	21	13	1	8	4
2652634	PROB	n/a	LTP354	ltpFR2	15	n/a	n/a	n/a	21	15	1	5	9
2653716	PROB	n/a	LTP354	ltpFR2	15	n/a	n/a	n/a	21	15	1	7	7
2654738	STOP	n/a	LTP354	ltpFR2	15	n/a	n/a	n/a	21	n/a	n/a	n/a	n/a
2657715	REC_START	n/a	LTP354	ltpFR2	15	13	n/a	n/a	n/a	n/a	0	0	0
2659423	REC_WORD	wordpools/wasnorm_wordpool_576.txt	LTP354	ltpFR2	15	13	PRIMATE	1123	n/a	n/a	0	0	0
2661775	REC_WORD	wordpools/wasnorm_wordpool_576.txt	LTP354	ltpFR2	15	13	STAPLE	1371	n/a	n/a	0	0	0
2662753	REC_WORD	wordpools/wasnorm_wordpool_576.txt	LTP354	ltpFR2	15	13	STAKE	1368	n/a	n/a	0	0	0
2665626	REC_WORD	wordpools/wasnorm_wordpool_576.txt	LTP354	ltpFR2	15	13	SANDWICH	1232	n/a	n/a	0	0	0
2666626	REC_WORD_VV	wordpools/wasnorm_wordpool_576.txt	LTP354	ltpFR2	15	13	<>	-1	n/a	n/a	0	0	0
2667813	REC_WORD	wordpools/wasnorm_wordpool_576.txt	LTP354	ltpFR2	15	13	HOSTESS	723	n/a	n/a	0	0	0
2681675	REC_WORD	wordpools/wasnorm_wordpool_576.txt	LTP354	ltpFR2	15	13	JELLY	755	n/a	n/a	0	0	0
2682675	REC_WORD_VV	wordpools/wasnorm_wordpool_576.txt	LTP354	ltpFR2	15	13	<>	-1	n/a	n/a	0	0	0
2693679	REC_WORD	wordpools/wasnorm_wordpool_576.txt	LTP354	ltpFR2	15	13	LABEL	790	n/a	n/a	0	0	0
2748185	WORD	wordpools/wasnorm_wordpool_576.txt	LTP354	ltpFR2	15	14	WAGON	1578	n/a	n/a	0	0	0
2750735	WORD	wordpools/wasnorm_wordpool_576.txt	LTP354	ltpFR2	15	14	BUGGY	188	n/a	n/a	0	0	0
2753283	WORD	wordpools/wasnorm_wordpool_576.txt	LTP354	ltpFR2	15	14	MEDAL	885	n/a	n/a	0	0	0
2756081	WORD	wordpools/wasnorm_wordpool_576.txt	LTP354	ltpFR2	15	14	SUNSET	1408	n/a	n/a	0	0	0
2758614	WORD	wordpools/wasnorm_wordpool_576.txt	LTP354	ltpFR2	15	14	SLOPE	1328	n/a	n/a	0	0	0
2761313	WORD	wordpools/wasnorm_wordpool_576.txt	LTP354	ltpFR2	15	14	WOMAN	1620	n/a	n/a	0	0	0
2764061	WORD	wordpools/wasnorm_wordpool_576.txt	LTP354	ltpFR2	15	14	ORANGE	980	n/a	n/a	0	0	0
2766560	WORD	wordpools/wasnorm_wordpool_576.txt	LTP354	ltpFR2	15	14	BUBBLE	183	n/a	n/a	0	0	0
2769191	WORD	wordpools/wasnorm_wordpool_576.txt	LTP354	ltpFR2	15	14	HAWK	692	n/a	n/a	0	0	0
2771625	WORD	wordpools/wasnorm_wordpool_576.txt	LTP354	ltpFR2	15	14	OINTMENT	974	n/a	n/a	0	0	0
2774256	WORD	wordpools/wasnorm_wordpool_576.txt	LTP354	ltpFR2	15	14	COIN	343	n/a	n/a	0	0	0
2776739	WORD	wordpools/wasnorm_wordpool_576.txt	LTP354	ltpFR2	15	14	UMPIRE	1535	n/a	n/a	0	0	0
2779537	WORD	wordpools/wasnorm_wordpool_576.txt	LTP354	ltpFR2	15	14	BOYFRIEND	162	n/a	n/a	0	0	0
2781985	WORD	wordpools/wasnorm_wordpool_576.txt	LTP354	ltpFR2	15	14	CURTAIN	427	n/a	n/a	0	0	0
2784518	WORD	wordpools/wasnorm_wordpool_576.txt	LTP354	ltpFR2	15	14	CASKET	255	n/a	n/a	0	0	0
2787166	WORD	wordpools/wasnorm_wordpool_576.txt	LTP354	ltpFR2	15	14	TABLE	1426	n/a	n/a	0	0	0
2789748	WORD	wordpools/wasnorm_wordpool_576.txt	LTP354	ltpFR2	15	14	MILDEW	893	n/a	n/a	0	0	0
2792280	WORD	wordpools/wasnorm_wordpool_576.txt	LTP354	ltpFR2	15	14	AWARD	63	n/a	n/a	0	0	0
2795029	WORD	wordpools/wasnorm_wordpool_576.txt	LTP354	ltpFR2	15	14	RAZOR	1171	n/a	n/a	0	0	0
2797844	WORD	wordpools/wasnorm_wordpool_576.txt	LTP354	ltpFR2	15	14	CARROT	249	n/a	n/a	0	0	0
2800344	WORD	wordpools/wasnorm_wordpool_576.txt	LTP354	ltpFR2	15	14	RABBIT	1152	n/a	n/a	0	0	0
2803025	WORD	wordpools/wasnorm_wordpool_576.txt	LTP354	ltpFR2	15	14	FEMALE	559	n/a	n/a	0	0	0
2805757	WORD	wordpools/wasnorm_wordpool_576.txt	LTP354	ltpFR2	15	14	POCKET	1093	n/a	n/a	0	0	0
2808373	WORD	wordpools/wasnorm_wordpool_576.txt	LTP354	ltpFR2	15	14	LAPEL	800	n/a	n/a	0	0	0
2809988	START	n/a	LTP354	ltpFR2	15	n/a	n/a	n/a	22	n/a	n/a	n/a	n/a
2810892	DISTRACTOR	n/a	LTP354	ltpFR2	15	14	n/a	n/a	n/a	n/a	0	0	0
2810904	PROB	n/a	LTP354	ltpFR2	15	n/a	n/a	n/a	22	18	7	2	9
2812504	PROB	n/a	LTP354	ltpFR2	15	n/a	n/a	n/a	22	16	2	8	6
2813571	PROB	n/a	LTP354	ltpFR2	15	n/a	n/a	n/a	22	9	4	4	1
2814537	PROB	n/a	LTP354	ltpFR2	15	n/a	n/a	n/a	22	12	3	1	8
2815503	PROB	n/a	LTP354	ltpFR2	15	n/a	n/a	n/a	22	16	5	3	8
2816519	PROB	n/a	LTP354	ltpFR2	15	n/a	n/a	n/a	22	6	2	3	1
2817618	PROB	n/a	LTP354	ltpFR2	15	n/a	n/a	n/a	22	17	5	7	5
2819017	PROB	n/a	LTP354	ltpFR2	15	n/a	n/a	n/a	22	15	7	7	1
2820116	PROB	n/a	LTP354	ltpFR2	15	n/a	n/a	n/a	22	20	8	3	9
2821099	PROB	n/a	LTP354	ltpFR2	15	n/a	n/a	n/a	22	14	6	5	3
2822182	PROB	n/a	LTP354	ltpFR2	15	n/a	n/a	n/a	22	19	4	9	6
2823316	PROB	n/a	LTP354	ltpFR2	15	n/a	n/a	n/a	22	12	3	6	3
2824732	PROB	n/a	LTP354	ltpFR2	15	n/a	n/a	n/a	22	11	2	2	7
2825797	PROB	n/a	LTP354	ltpFR2	15	n/a	n/a	n/a	22	14	8	2	4
2827330	PROB	n/a	LTP354	ltpFR2	15	n/a	n/a	n/a	22	16	8	6	2
2828496	PROB	n/a	LTP354	ltpFR2	15	n/a	n/a	n/a	22	8	1	6	1
2829396	PROB	n/a	LTP354	ltpFR2	15	n/a	n/a	n/a	22	18	2	9	7
2830612	PROB	n/a	LTP354	ltpFR2	15	n/a	n/a	n/a	22	16	1	9	6
2831744	PROB	n/a	LTP354	ltpFR2	15	n/a	n/a	n/a	22	12	3	3	6
2832793	STOP	n/a	LTP354	ltpFR2	15	n/a	n/a	n/a	22	n/a	n/a	n/a	n/a
2835742	REC_START	n/a	LTP354	ltpFR2	15	14	n/a	n/a	n/a	n/a	0	0	0
2855321	REC_WORD	wordpools/wasnorm_wordpool_576.txt	LTP354	ltpFR2	15	14	LAPEL	800	n/a	n/a	0	0	0
2859029	REC_WORD	wordpools/wasnorm_wordpool_576.txt	LTP354	ltpFR2	15	14	FEMALE	559	n/a	n/a	0	0	0
2861705	REC_WORD	wordpools/wasnorm_wordpool_576.txt	LTP354	ltpFR2	15	14	WOMAN	1620	n/a	n/a	0	0	0
2862955	REC_WORD	wordpools/wasnorm_wordpool_576.txt	LTP354	ltpFR2	15	14	BOYFRIEND	162	n/a	n/a	0	0	0
2864168	REC_WORD	wordpools/wasnorm_wordpool_576.txt	LTP354	ltpFR2	15	14	ORANGE	980	n/a	n/a	0	0	0
2865985	REC_WORD	wordpools/wasnorm_wordpool_576.txt	LTP354	ltpFR2	15	14	WAGON	1578	n/a	n/a	0	0	0
2867012	REC_WORD	wordpools/wasnorm_wordpool_576.txt	LTP354	ltpFR2	15	14	BUGGY	188	n/a	n/a	0	0	0
2868668	REC_WORD	wordpools/wasnorm_wordpool_576.txt	LTP354	ltpFR2	15	14	SUNSET	1408	n/a	n/a	0	0	0
2870022	REC_WORD	wordpools/wasnorm_wordpool_576.txt	LTP354	ltpFR2	15	14	SLOPE	1328	n/a	n/a	0	0	0
2874350	REC_WORD	wordpools/wasnorm_wordpool_576.txt	LTP354	ltpFR2	15	14	CURTAIN	427	n/a	n/a	0	0	0
2877274	REC_WORD	wordpools/wasnorm_wordpool_576.txt	LTP354	ltpFR2	15	14	RAZOR	1171	n/a	n/a	0	0	0
2926197	WORD	wordpools/wasnorm_wordpool_576.txt	LTP354	ltpFR2	15	15	TILE	1468	n/a	n/a	0	0	0
2928630	WORD	wordpools/wasnorm_wordpool_576.txt	LTP354	ltpFR2	15	15	CABBAGE	210	n/a	n/a	0	0	0
2931395	WORD	wordpools/wasnorm_wordpool_576.txt	LTP354	ltpFR2	15	15	BRIEFCASE	175	n/a	n/a	0	0	0
2934193	WORD	wordpools/wasnorm_wordpool_576.txt	LTP354	ltpFR2	15	15	BUTCHER	203	n/a	n/a	0	0	0
2936709	WORD	wordpools/wasnorm_wordpool_576.txt	LTP354	ltpFR2	15	15	CHEMIST	292	n/a	n/a	0	0	0
2939458	WORD	wordpools/wasnorm_wordpool_576.txt	LTP354	ltpFR2	15	15	PROTON	1132	n/a	n/a	0	0	0
2941906	WORD	wordpools/wasnorm_wordpool_576.txt	LTP354	ltpFR2	15	15	LAGOON	795	n/a	n/a	0	0	0
2944456	WORD	wordpools/wasnorm_wordpool_576.txt	LTP354	ltpFR2	15	15	DIVER	476	n/a	n/a	0	0	0
2947003	WORD	wordpools/wasnorm_wordpool_576.txt	LTP354	ltpFR2	15	15	PACKAGE	997	n/a	n/a	0	0	0
2949570	WORD	wordpools/wasnorm_wordpool_576.txt	LTP354	ltpFR2	15	15	SUNRISE	1407	n/a	n/a	0	0	0
2952368	WORD	wordpools/wasnorm_wordpool_576.txt	LTP354	ltpFR2	15	15	HIKER	708	n/a	n/a	0	0	0
2954883	WORD	wordpools/wasnorm_wordpool_576.txt	LTP354	ltpFR2	15	15	SUMMIT	1405	n/a	n/a	0	0	0
2957332	WORD	wordpools/wasnorm_wordpool_576.txt	LTP354	ltpFR2	15	15	BLOUSE	139	n/a	n/a	0	0	0
2960047	WORD	wordpools/wasnorm_wordpool_576.txt	LTP354	ltpFR2	15	15	TART	1436	n/a	n/a	0	0	0
2962829	WORD	wordpools/wasnorm_wordpool_576.txt	LTP354	ltpFR2	15	15	SALAD	1224	n/a	n/a	0	0	0
2965662	WORD	wordpools/wasnorm_wordpool_576.txt	LTP354	ltpFR2	15	15	JOURNAL	760	n/a	n/a	0	0	0
2968410	WORD	wordpools/wasnorm_wordpool_576.txt	LTP354	ltpFR2	15	15	BRACES	164	n/a	n/a	0	0	0
2970841	WORD	wordpools/wasnorm_wordpool_576.txt	LTP354	ltpFR2	15	15	GRAVEL	659	n/a	n/a	0	0	0
2973341	WORD	wordpools/wasnorm_wordpool_576.txt	LTP354	ltpFR2	15	15	BURGLAR	200	n/a	n/a	0	0	0
2976039	WORD	wordpools/wasnorm_wordpool_576.txt	LTP354	ltpFR2	15	15	REPORT	1184	n/a	n/a	0	0	0
2978605	WORD	wordpools/wasnorm_wordpool_576.txt	LTP354	ltpFR2	15	15	SPOUSE	1358	n/a	n/a	0	0	0
2981286	WORD	wordpools/wasnorm_wordpool_576.txt	LTP354	ltpFR2	15	15	COLLEGE	346	n/a	n/a	0	0	0
2983852	WORD	wordpools/wasnorm_wordpool_576.txt	LTP354	ltpFR2	15	15	SISTER	1312	n/a	n/a	0	0	0
2986501	WORD	wordpools/wasnorm_wordpool_576.txt	LTP354	ltpFR2	15	15	THRONE	1461	n/a	n/a	0	0	0
2988116	START	n/a	LTP354	ltpFR2	15	n/a	n/a	n/a	23	n/a	n/a	n/a	n/a
2989145	DISTRACTOR	n/a	LTP354	ltpFR2	15	15	n/a	n/a	n/a	n/a	0	0	0
2989149	PROB	n/a	LTP354	ltpFR2	15	n/a	n/a	n/a	23	10	6	2	2
2990798	PROB	n/a	LTP354	ltpFR2	15	n/a	n/a	n/a	23	13	6	3	4
2993515	PROB	n/a	LTP354	ltpFR2	15	n/a	n/a	n/a	23	11	5	5	1
2994381	PROB	n/a	LTP354	ltpFR2	15	n/a	n/a	n/a	23	15	3	4	8
2995397	PROB	n/a	LTP354	ltpFR2	15	n/a	n/a	n/a	23	9	1	4	4
2996363	PROB	n/a	LTP354	ltpFR2	15	n/a	n/a	n/a	23	18	8	8	2
2997496	PROB	n/a	LTP354	ltpFR2	15	n/a	n/a	n/a	23	14	9	4	1
2998612	PROB	n/a	LTP354	ltpFR2	15	n/a	n/a	n/a	23	18	9	5	4
2999777	PROB	n/a	LTP354	ltpFR2	15	n/a	n/a	n/a	23	6	1	4	1
3000793	PROB	n/a	LTP354	ltpFR2	15	n/a	n/a	n/a	23	18	9	1	8
3001793	PROB	n/a	LTP354	ltpFR2	15	n/a	n/a	n/a	23	18	6	9	3
3002809	PROB	n/a	LTP354	ltpFR2	15	n/a	n/a	n/a	23	15	5	8	2
3004008	PROB	n/a	LTP354	ltpFR2	15	n/a	n/a	n/a	23	17	2	6	9
3005725	PROB	n/a	LTP354	ltpFR2	15	n/a	n/a	n/a	23	16	2	6	8
3007273	PROB	n/a	LTP354	ltpFR2	15	n/a	n/a	n/a	23	23	7	9	7
3008823	PROB	n/a	LTP354	ltpFR2	15	n/a	n/a	n/a	23	22	9	7	6
3011057	STOP	n/a	LTP354	ltpFR2	15	n/a	n/a	n/a	23	n/a	n/a	n/a	n/a
3013988	REC_START	n/a	LTP354	ltpFR2	15	15	n/a	n/a	n/a	n/a	0	0	0
3014661	REC_WORD	wordpools/wasnorm_wordpool_576.txt	LTP354	ltpFR2	15	15	COLLEGE	346	n/a	n/a	0	0	0
3015257	REC_WORD	wordpools/wasnorm_wordpool_576.txt	LTP354	ltpFR2	15	15	SISTER	1312	n/a	n/a	0	0	0
3015909	REC_WORD	wordpools/wasnorm_wordpool_576.txt	LTP354	ltpFR2	15	15	THRONE	1461	n/a	n/a	0	0	0
3021008	REC_WORD	wordpools/wasnorm_wordpool_576.txt	LTP354	ltpFR2	15	15	TILE	1468	n/a	n/a	0	0	0
3022469	REC_WORD	wordpools/wasnorm_wordpool_576.txt	LTP354	ltpFR2	15	15	CABBAGE	210	n/a	n/a	0	0	0
3025563	REC_WORD	wordpools/wasnorm_wordpool_576.txt	LTP354	ltpFR2	15	15	LAGOON	795	n/a	n/a	0	0	0
3026628	REC_WORD	wordpools/wasnorm_wordpool_576.txt	LTP354	ltpFR2	15	15	DIVER	476	n/a	n/a	0	0	0
3063694	REC_WORD	wordpools/wasnorm_wordpool_576.txt	LTP354	ltpFR2	15	15	GRAVEL	659	n/a	n/a	0	0	0
3065109	REC_WORD	wordpools/wasnorm_wordpool_576.txt	LTP354	ltpFR2	15	15	JOURNAL	760	n/a	n/a	0	0	0
3070395	REC_WORD	wordpools/wasnorm_wordpool_576.txt	LTP354	ltpFR2	15	15	HIKER	708	n/a	n/a	0	0	0
3071341	REC_WORD	wordpools/wasnorm_wordpool_576.txt	LTP354	ltpFR2	15	15	PACKAGE	997	n/a	n/a	0	0	0
3072844	REC_WORD	wordpools/wasnorm_wordpool_576.txt	LTP354	ltpFR2	15	15	BLOUSE	139	n/a	n/a	0	0	0
3082553	REC_WORD	wordpools/wasnorm_wordpool_576.txt	LTP354	ltpFR2	15	15	SUMMIT	1405	n/a	n/a	0	0	0
3084861	REC_WORD	wordpools/wasnorm_wordpool_576.txt	LTP354	ltpFR2	15	15	SUNRISE	1407	n/a	n/a	0	0	0
3104426	DISTRACTOR	n/a	LTP354	ltpFR2	15	16	n/a	n/a	n/a	n/a	0	0	0
3104426	START	n/a	LTP354	ltpFR2	15	n/a	n/a	n/a	24	n/a	n/a	n/a	n/a
3104443	PROB	n/a	LTP354	ltpFR2	15	n/a	n/a	n/a	24	9	1	2	6
3106475	PROB	n/a	LTP354	ltpFR2	15	n/a	n/a	n/a	24	20	9	7	4
3108441	PROB	n/a	LTP354	ltpFR2	15	n/a	n/a	n/a	24	9	1	5	3
3110106	PROB	n/a	LTP354	ltpFR2	15	n/a	n/a	n/a	24	23	9	6	8
3111523	PROB	n/a	LTP354	ltpFR2	15	n/a	n/a	n/a	24	15	7	6	2
3113405	PROB	n/a	LTP354	ltpFR2	15	n/a	n/a	n/a	24	18	7	3	8
3115153	PROB	n/a	LTP354	ltpFR2	15	n/a	n/a	n/a	24	18	8	9	1
3116420	PROB	n/a	LTP354	ltpFR2	15	n/a	n/a	n/a	24	10	3	5	2
3117935	PROB	n/a	LTP354	ltpFR2	15	n/a	n/a	n/a	24	18	7	6	5
3119751	PROB	n/a	LTP354	ltpFR2	15	n/a	n/a	n/a	24	20	6	7	7
3120718	PROB	n/a	LTP354	ltpFR2	15	n/a	n/a	n/a	24	19	6	9	4
3122033	PROB	n/a	LTP354	ltpFR2	15	n/a	n/a	n/a	24	12	9	2	1
3123350	PROB	n/a	LTP354	ltpFR2	15	n/a	n/a	n/a	24	14	3	9	2
3124798	PROB	n/a	LTP354	ltpFR2	15	n/a	n/a	n/a	24	15	5	8	1
3126148	PROB	n/a	LTP354	ltpFR2	15	n/a	n/a	n/a	24	10	2	2	6
3127450	STOP	n/a	LTP354	ltpFR2	15	n/a	n/a	n/a	24	n/a	n/a	n/a	n/a
3129464	WORD	wordpools/wasnorm_wordpool_576.txt	LTP354	ltpFR2	15	16	BOX	159	n/a	n/a	0	0	0
3132161	WORD	wordpools/wasnorm_wordpool_576.txt	LTP354	ltpFR2	15	16	STAR	1373	n/a	n/a	0	0	0
3134777	WORD	wordpools/wasnorm_wordpool_576.txt	LTP354	ltpFR2	15	16	COMET	353	n/a	n/a	0	0	0
3137326	WORD	wordpools/wasnorm_wordpool_576.txt	LTP354	ltpFR2	15	16	GIRL	637	n/a	n/a	0	0	0
3140091	WORD	wordpools/wasnorm_wordpool_576.txt	LTP354	ltpFR2	15	16	CAMEL	223	n/a	n/a	0	0	0
3142690	WORD	wordpools/wasnorm_wordpool_576.txt	LTP354	ltpFR2	15	16	SCALLOP	1242	n/a	n/a	0	0	0
3145372	WORD	wordpools/wasnorm_wordpool_576.txt	LTP354	ltpFR2	15	16	MATTRESS	879	n/a	n/a	0	0	0
3147887	WORD	wordpools/wasnorm_wordpool_576.txt	LTP354	ltpFR2	15	16	HUMAN	726	n/a	n/a	0	0	0
3150703	WORD	wordpools/wasnorm_wordpool_576.txt	LTP354	ltpFR2	15	16	APPLE	33	n/a	n/a	0	0	0
3153352	WORD	wordpools/wasnorm_wordpool_576.txt	LTP354	ltpFR2	15	16	MUSTARD	935	n/a	n/a	0	0	0
3156083	WORD	wordpools/wasnorm_wordpool_576.txt	LTP354	ltpFR2	15	16	KNAPSACK	783	n/a	n/a	0	0	0
3158516	WORD	wordpools/wasnorm_wordpool_576.txt	LTP354	ltpFR2	15	16	AIRPORT	13	n/a	n/a	0	0	0
3161064	WORD	wordpools/wasnorm_wordpool_576.txt	LTP354	ltpFR2	15	16	POWDER	1117	n/a	n/a	0	0	0
3163547	WORD	wordpools/wasnorm_wordpool_576.txt	LTP354	ltpFR2	15	16	SCRIBBLE	1256	n/a	n/a	0	0	0
3166011	WORD	wordpools/wasnorm_wordpool_576.txt	LTP354	ltpFR2	15	16	NEUTRON	947	n/a	n/a	0	0	0
3168628	WORD	wordpools/wasnorm_wordpool_576.txt	LTP354	ltpFR2	15	16	SPHINX	1349	n/a	n/a	0	0	0
3171209	WORD	wordpools/wasnorm_wordpool_576.txt	LTP354	ltpFR2	15	16	SHORTCAKE	1292	n/a	n/a	0	0	0
3173841	WORD	wordpools/wasnorm_wordpool_576.txt	LTP354	ltpFR2	15	16	KLEENEX	782	n/a	n/a	0	0	0
3176273	WORD	wordpools/wasnorm_wordpool_576.txt	LTP354	ltpFR2	15	16	IGLOO	734	n/a	n/a	0	0	0
3179071	WORD	wordpools/wasnorm_wordpool_576.txt	LTP354	ltpFR2	15	16	INFANT	737	n/a	n/a	0	0	0
3181604	WORD	wordpools/wasnorm_wordpool_576.txt	LTP354	ltpFR2	15	16	PERMIT	1051	n/a	n/a	0	0	0
3184185	WORD	wordpools/wasnorm_wordpool_576.txt	LTP354	ltpFR2	15	16	RIFLE	1192	n/a	n/a	0	0	0
3186767	WORD	wordpools/wasnorm_wordpool_576.txt	LTP354	ltpFR2	15	16	PISTON	1076	n/a	n/a	0	0	0
3189351	WORD	wordpools/wasnorm_wordpool_576.txt	LTP354	ltpFR2	15	16	ROBIN	1199	n/a	n/a	0	0	0
3190966	START	n/a	LTP354	ltpFR2	15	n/a	n/a	n/a	25	n/a	n/a	n/a	n/a
3191819	DISTRACTOR	n/a	LTP354	ltpFR2	15	16	n/a	n/a	n/a	n/a	0	0	0
3191832	PROB	n/a	LTP354	ltpFR2	15	n/a	n/a	n/a	25	17	8	7	2
3194548	PROB	n/a	LTP354	ltpFR2	15	n/a	n/a	n/a	25	14	9	1	4
3196179	PROB	n/a	LTP354	ltpFR2	15	n/a	n/a	n/a	25	16	4	6	6
3197212	PROB	n/a	LTP354	ltpFR2	15	n/a	n/a	n/a	25	11	8	1	2
3199278	PROB	n/a	LTP354	ltpFR2	15	n/a	n/a	n/a	25	20	8	5	7
3200678	PROB	n/a	LTP354	ltpFR2	15	n/a	n/a	n/a	25	12	1	6	5
3201611	PROB	n/a	LTP354	ltpFR2	15	n/a	n/a	n/a	25	13	6	6	1
3202477	PROB	n/a	LTP354	ltpFR2	15	n/a	n/a	n/a	25	14	3	5	6
3204410	PROB	n/a	LTP354	ltpFR2	15	n/a	n/a	n/a	25	16	7	3	6
3205359	PROB	n/a	LTP354	ltpFR2	15	n/a	n/a	n/a	25	18	7	4	7
3206459	PROB	n/a	LTP354	ltpFR2	15	n/a	n/a	n/a	25	10	3	1	6
3207658	PROB	n/a	LTP354	ltpFR2	15	n/a	n/a	n/a	25	19	6	5	8
3210156	PROB	n/a	LTP354	ltpFR2	15	n/a	n/a	n/a	25	13	2	2	7
3211540	PROB	n/a	LTP354	ltpFR2	15	n/a	n/a	n/a	25	15	8	4	3
3213418	STOP	n/a	LTP354	ltpFR2	15	n/a	n/a	n/a	25	n/a	n/a	n/a	n/a
3216886	REC_START	n/a	LTP354	ltpFR2	15	16	n/a	n/a	n/a	n/a	0	0	0
3220019	REC_WORD	wordpools/wasnorm_wordpool_576.txt	LTP354	ltpFR2	15	16	PISTON	1076	n/a	n/a	0	0	0
3221162	REC_WORD	wordpools/wasnorm_wordpool_576.txt	LTP354	ltpFR2	15	16	SCALLOP	1242	n/a	n/a	0	0	0
3224644	REC_WORD	wordpools/wasnorm_wordpool_576.txt	LTP354	ltpFR2	15	16	GIRL	637	n/a	n/a	0	0	0
3225649	REC_WORD	wordpools/wasnorm_wordpool_576.txt	LTP354	ltpFR2	15	16	CAMEL	223	n/a	n/a	0	0	0
3241293	REC_WORD	wordpools/wasnorm_wordpool_576.txt	LTP354	ltpFR2	15	16	MATTRESS	879	n/a	n/a	0	0	0
3245495	REC_WORD	wordpools/wasnorm_wordpool_576.txt	LTP354	ltpFR2	15	16	CABIN	211	n/a	n/a	0	0	0
3260766	REC_WORD	wordpools/wasnorm_wordpool_576.txt	LTP354	ltpFR2	15	16	CANYON	235	n/a	n/a	0	0	0
3275628	REC_WORD	wordpools/wasnorm_wordpool_576.txt	LTP354	ltpFR2	15	16	TURTLE	1522	n/a	n/a	0	0	0
3293432	REST_REWET	n/a	LTP354	ltpFR2	15	16	n/a	n/a	n/a	n/a	0	0	0
3637144	DISTRACTOR	n/a	LTP354	ltpFR2	15	17	n/a	n/a	n/a	n/a	0	0	0
3637144	START	n/a	LTP354	ltpFR2	15	n/a	n/a	n/a	26	n/a	n/a	n/a	n/a
3637161	PROB	n/a	LTP354	ltpFR2	15	n/a	n/a	n/a	26	14	6	1	7
3638544	PROB	n/a	LTP354	ltpFR2	15	n/a	n/a	n/a	26	16	2	5	9
3641775	PROB	n/a	LTP354	ltpFR2	15	n/a	n/a	n/a	26	22	9	7	6
3643442	PROB	n/a	LTP354	ltpFR2	15	n/a	n/a	n/a	26	14	1	9	4
3644391	PROB	n/a	LTP354	ltpFR2	15	n/a	n/a	n/a	26	12	1	2	9
3645324	PROB	n/a	LTP354	ltpFR2	15	n/a	n/a	n/a	26	16	4	6	6
3646674	PROB	n/a	LTP354	ltpFR2	15	n/a	n/a	n/a	26	20	9	5	6
3648172	PROB	n/a	LTP354	ltpFR2	15	n/a	n/a	n/a	26	16	8	5	3
3650355	PROB	n/a	LTP354	ltpFR2	15	n/a	n/a	n/a	26	18	8	2	8
3652003	PROB	n/a	LTP354	ltpFR2	15	n/a	n/a	n/a	26	14	9	3	2
3653353	PROB	n/a	LTP354	ltpFR2	15	n/a	n/a	n/a	26	10	7	1	2
3654386	PROB	n/a	LTP354	ltpFR2	15	n/a	n/a	n/a	26	9	6	2	1
3655336	PROB	n/a	LTP354	ltpFR2	15	n/a	n/a	n/a	26	13	3	7	3
3656218	PROB	n/a	LTP354	ltpFR2	15	n/a	n/a	n/a	26	16	4	3	9
3658183	PROB	n/a	LTP354	ltpFR2	15	n/a	n/a	n/a	26	6	2	3	1
3659216	PROB	n/a	LTP354	ltpFR2	15	n/a	n/a	n/a	26	9	2	5	2
3660330	STOP	n/a	LTP354	ltpFR2	15	n/a	n/a	n/a	26	n/a	n/a	n/a	n/a
3662048	WORD	wordpools/wasnorm_wordpool_576.txt	LTP354	ltpFR2	15	17	DONKEY	484	n/a	n/a	0	0	0
3664531	WORD	wordpools/wasnorm_wordpool_576.txt	LTP354	ltpFR2	15	17	SHARK	1275	n/a	n/a	0	0	0
3667062	WORD	wordpools/wasnorm_wordpool_576.txt	LTP354	ltpFR2	15	17	LILY	821	n/a	n/a	0	0	0
3669612	WORD	wordpools/wasnorm_wordpool_576.txt	LTP354	ltpFR2	15	17	THIEF	1456	n/a	n/a	0	0	0
3672361	WORD	wordpools/wasnorm_wordpool_576.txt	LTP354	ltpFR2	15	17	SKETCH	1315	n/a	n/a	0	0	0
3674942	WORD	wordpools/wasnorm_wordpool_576.txt	LTP354	ltpFR2	15	17	TURNIP	1521	n/a	n/a	0	0	0
3677658	WORD	wordpools/wasnorm_wordpool_576.txt	LTP354	ltpFR2	15	17	RECEIPT	1173	n/a	n/a	0	0	0
3680272	WORD	wordpools/wasnorm_wordpool_576.txt	LTP354	ltpFR2	15	17	COWBOY	395	n/a	n/a	0	0	0
3682938	WORD	wordpools/wasnorm_wordpool_576.txt	LTP354	ltpFR2	15	17	SCULPTURE	1258	n/a	n/a	0	0	0
3685404	WORD	wordpools/wasnorm_wordpool_576.txt	LTP354	ltpFR2	15	17	STREAM	1392	n/a	n/a	0	0	0
3687835	WORD	wordpools/wasnorm_wordpool_576.txt	LTP354	ltpFR2	15	17	BROOK	177	n/a	n/a	0	0	0
3690618	WORD	wordpools/wasnorm_wordpool_576.txt	LTP354	ltpFR2	15	17	BANKER	84	n/a	n/a	0	0	0
3693199	WORD	wordpools/wasnorm_wordpool_576.txt	LTP354	ltpFR2	15	17	ATOM	55	n/a	n/a	0	0	0
3695915	WORD	wordpools/wasnorm_wordpool_576.txt	LTP354	ltpFR2	15	17	HARP	689	n/a	n/a	0	0	0
3698498	WORD	wordpools/wasnorm_wordpool_576.txt	LTP354	ltpFR2	15	17	TROMBONE	1508	n/a	n/a	0	0	0
3700962	WORD	wordpools/wasnorm_wordpool_576.txt	LTP354	ltpFR2	15	17	COMPASS	358	n/a	n/a	0	0	0
3703595	WORD	wordpools/wasnorm_wordpool_576.txt	LTP354	ltpFR2	15	17	GROUND	666	n/a	n/a	0	0	0
3706076	WORD	wordpools/wasnorm_wordpool_576.txt	LTP354	ltpFR2	15	17	DUST	508	n/a	n/a	0	0	0
3708758	WORD	wordpools/wasnorm_wordpool_576.txt	LTP354	ltpFR2	15	17	BRAKE	166	n/a	n/a	0	0	0
3711190	WORD	wordpools/wasnorm_wordpool_576.txt	LTP354	ltpFR2	15	17	EXPERT	543	n/a	n/a	0	0	0
3713789	WORD	wordpools/wasnorm_wordpool_576.txt	LTP354	ltpFR2	15	17	HELMET	702	n/a	n/a	0	0	0
3716505	WORD	wordpools/wasnorm_wordpool_576.txt	LTP354	ltpFR2	15	17	BABY	64	n/a	n/a	0	0	0
3719087	WORD	wordpools/wasnorm_wordpool_576.txt	LTP354	ltpFR2	15	17	PARENT	1013	n/a	n/a	0	0	0
3721670	WORD	wordpools/wasnorm_wordpool_576.txt	LTP354	ltpFR2	15	17	OUTFIT	988	n/a	n/a	0	0	0
3723285	START	n/a	LTP354	ltpFR2	15	n/a	n/a	n/a	27	n/a	n/a	n/a	n/a
3724229	DISTRACTOR	n/a	LTP354	ltpFR2	15	17	n/a	n/a	n/a	n/a	0	0	0
3724234	PROB	n/a	LTP354	ltpFR2	15	n/a	n/a	n/a	27	16	7	1	8
3726266	PROB	n/a	LTP354	ltpFR2	15	n/a	n/a	n/a	27	15	5	3	7
3727283	PROB	n/a	LTP354	ltpFR2	15	n/a	n/a	n/a	27	20	5	9	6
3733296	PROB	n/a	LTP354	ltpFR2	15	n/a	n/a	n/a	27	22	8	9	4
3735229	PROB	n/a	LTP354	ltpFR2	15	n/a	n/a	n/a	27	21	4	8	9
3738511	PROB	n/a	LTP354	ltpFR2	15	n/a	n/a	n/a	27	26	8	9	9
3740527	PROB	n/a	LTP354	ltpFR2	15	n/a	n/a	n/a	27	23	7	8	8
3742543	PROB	n/a	LTP354	ltpFR2	15	n/a	n/a	n/a	27	16	9	6	1
3743525	PROB	n/a	LTP354	ltpFR2	15	n/a	n/a	n/a	27	15	3	9	3
3745007	PROB	n/a	LTP354	ltpFR2	15	n/a	n/a	n/a	27	9	6	2	1
3745953	STOP	n/a	LTP354	ltpFR2	15	n/a	n/a	n/a	27	n/a	n/a	n/a	n/a
3749056	REC_START	n/a	LTP354	ltpFR2	15	17	n/a	n/a	n/a	n/a	0	0	0
3750223	REC_WORD	wordpools/wasnorm_wordpool_576.txt	LTP354	ltpFR2	15	17	HELMET	702	n/a	n/a	0	0	0
3751413	REC_WORD	wordpools/wasnorm_wordpool_576.txt	LTP354	ltpFR2	15	17	BABY	64	n/a	n/a	0	0	0
3753085	REC_WORD	wordpools/wasnorm_wordpool_576.txt	LTP354	ltpFR2	15	17	PARENT	1013	n/a	n/a	0	0	0
3754316	REC_WORD	wordpools/wasnorm_wordpool_576.txt	LTP354	ltpFR2	15	17	TROMBONE	1508	n/a	n/a	0	0	0
3756958	REC_WORD	wordpools/wasnorm_wordpool_576.txt	LTP354	ltpFR2	15	17	LILY	821	n/a	n/a	0	0	0
3757809	REC_WORD	wordpools/wasnorm_wordpool_576.txt	LTP354	ltpFR2	15	17	COWBOY	395	n/a	n/a	0	0	0
3758839	REC_WORD	wordpools/wasnorm_wordpool_576.txt	LTP354	ltpFR2	15	17	STREAM	1392	n/a	n/a	0	0	0
3760105	REC_WORD	wordpools/wasnorm_wordpool_576.txt	LTP354	ltpFR2	15	17	BANKER	84	n/a	n/a	0	0	0
3763830	REC_WORD	wordpools/wasnorm_wordpool_576.txt	LTP354	ltpFR2	15	17	BROOK	177	n/a	n/a	0	0	0
3768183	REC_WORD	wordpools/wasnorm_wordpool_576.txt	LTP354	ltpFR2	15	17	ATOM	55	n/a	n/a	0	0	0
3770062	REC_WORD	wordpools/wasnorm_wordpool_576.txt	LTP354	ltpFR2	15	17	NEUTRON	947	n/a	n/a	0	0	0
3776392	REC_WORD	wordpools/wasnorm_wordpool_576.txt	LTP354	ltpFR2	15	17	HARP	689	n/a	n/a	0	0	0
3793729	REC_WORD	wordpools/wasnorm_wordpool_576.txt	LTP354	ltpFR2	15	17	DONKEY	484	n/a	n/a	0	0	0
3795483	REC_WORD	wordpools/wasnorm_wordpool_576.txt	LTP354	ltpFR2	15	17	SHARK	1275	n/a	n/a	0	0	0
3810641	REC_WORD	wordpools/wasnorm_wordpool_576.txt	LTP354	ltpFR2	15	17	SCULPTURE	1258	n/a	n/a	0	0	0
3839528	WORD	wordpools/wasnorm_wordpool_576.txt	LTP354	ltpFR2	15	18	SEAGULL	1261	n/a	n/a	0	0	0
3842192	WORD	wordpools/wasnorm_wordpool_576.txt	LTP354	ltpFR2	15	18	LEOPARD	812	n/a	n/a	0	0	0
3844874	WORD	wordpools/wasnorm_wordpool_576.txt	LTP354	ltpFR2	15	18	SCOTCH	1251	n/a	n/a	0	0	0
3847590	WORD	wordpools/wasnorm_wordpool_576.txt	LTP354	ltpFR2	15	18	PAIL	1002	n/a	n/a	0	0	0
3850306	WORD	wordpools/wasnorm_wordpool_576.txt	LTP354	ltpFR2	15	18	NECKLACE	940	n/a	n/a	0	0	0
3852770	WORD	wordpools/wasnorm_wordpool_576.txt	LTP354	ltpFR2	15	18	WINDOW	1611	n/a	n/a	0	0	0
3855252	WORD	wordpools/wasnorm_wordpool_576.txt	LTP354	ltpFR2	15	18	ITEM	746	n/a	n/a	0	0	0
3857834	WORD	wordpools/wasnorm_wordpool_576.txt	LTP354	ltpFR2	15	18	HORSE	719	n/a	n/a	0	0	0
3860317	WORD	wordpools/wasnorm_wordpool_576.txt	LTP354	ltpFR2	15	18	GALLON	618	n/a	n/a	0	0	0
3862998	WORD	wordpools/wasnorm_wordpool_576.txt	LTP354	ltpFR2	15	18	MILK	895	n/a	n/a	0	0	0
3865548	WORD	wordpools/wasnorm_wordpool_576.txt	LTP354	ltpFR2	15	18	SNAIL	1332	n/a	n/a	0	0	0
3868296	WORD	wordpools/wasnorm_wordpool_576.txt	LTP354	ltpFR2	15	18	SEAL	1262	n/a	n/a	0	0	0
3871061	WORD	wordpools/wasnorm_wordpool_576.txt	LTP354	ltpFR2	15	18	OX	994	n/a	n/a	0	0	0
3873511	WORD	wordpools/wasnorm_wordpool_576.txt	LTP354	ltpFR2	15	18	PLAID	1080	n/a	n/a	0	0	0
3876326	WORD	wordpools/wasnorm_wordpool_576.txt	LTP354	ltpFR2	15	18	GRIZZLY	662	n/a	n/a	0	0	0
3879124	WORD	wordpools/wasnorm_wordpool_576.txt	LTP354	ltpFR2	15	18	BANK	83	n/a	n/a	0	0	0
3881806	WORD	wordpools/wasnorm_wordpool_576.txt	LTP354	ltpFR2	15	18	CASHIER	254	n/a	n/a	0	0	0
3884439	WORD	wordpools/wasnorm_wordpool_576.txt	LTP354	ltpFR2	15	18	HEADBAND	696	n/a	n/a	0	0	0
3886937	WORD	wordpools/wasnorm_wordpool_576.txt	LTP354	ltpFR2	15	18	LION	827	n/a	n/a	0	0	0
3889503	WORD	wordpools/wasnorm_wordpool_576.txt	LTP354	ltpFR2	15	18	FREEZER	604	n/a	n/a	0	0	0
3892034	WORD	wordpools/wasnorm_wordpool_576.txt	LTP354	ltpFR2	15	18	DRILL	497	n/a	n/a	0	0	0
3894517	WORD	wordpools/wasnorm_wordpool_576.txt	LTP354	ltpFR2	15	18	MATCH	878	n/a	n/a	0	0	0
3897182	WORD	wordpools/wasnorm_wordpool_576.txt	LTP354	ltpFR2	15	18	MAILMAN	858	n/a	n/a	0	0	0
3899913	WORD	wordpools/wasnorm_wordpool_576.txt	LTP354	ltpFR2	15	18	STOVE	1388	n/a	n/a	0	0	0
3901531	START	n/a	LTP354	ltpFR2	15	n/a	n/a	n/a	28	n/a	n/a	n/a	n/a
3902374	DISTRACTOR	n/a	LTP354	ltpFR2	15	18	n/a	n/a	n/a	n/a	0	0	0
3902380	PROB	n/a	LTP354	ltpFR2	15	n/a	n/a	n/a	28	6	1	1	4
3904161	PROB	n/a	LTP354	ltpFR2	15	n/a	n/a	n/a	28	17	6	7	4
3906495	PROB	n/a	LTP354	ltpFR2	15	n/a	n/a	n/a	28	7	3	1	3
3907627	PROB	n/a	LTP354	ltpFR2	15	n/a	n/a	n/a	28	12	3	3	6
3908710	PROB	n/a	LTP354	ltpFR2	15	n/a	n/a	n/a	28	15	7	3	5
3909759	PROB	n/a	LTP354	ltpFR2	15	n/a	n/a	n/a	28	17	3	6	8
3911841	PROB	n/a	LTP354	ltpFR2	15	n/a	n/a	n/a	28	14	4	7	3
3913174	PROB	n/a	LTP354	ltpFR2	15	n/a	n/a	n/a	28	15	9	2	4
3915056	PROB	n/a	LTP354	ltpFR2	15	n/a	n/a	n/a	28	8	1	6	1
3915906	PROB	n/a	LTP354	ltpFR2	15	n/a	n/a	n/a	28	13	3	8	2
3916938	PROB	n/a	LTP354	ltpFR2	15	n/a	n/a	n/a	28	14	3	9	2
3918605	PROB	n/a	LTP354	ltpFR2	15	n/a	n/a	n/a	28	21	6	9	6
3919787	PROB	n/a	LTP354	ltpFR2	15	n/a	n/a	n/a	28	12	2	7	3
3921103	PROB	n/a	LTP354	ltpFR2	15	n/a	n/a	n/a	28	12	1	9	2
3922086	PROB	n/a	LTP354	ltpFR2	15	n/a	n/a	n/a	28	25	9	8	8
3923636	PROB	n/a	LTP354	ltpFR2	15	n/a	n/a	n/a	28	14	1	5	8
3924722	STOP	n/a	LTP354	ltpFR2	15	n/a	n/a	n/a	28	n/a	n/a	n/a	n/a
3927468	REC_START	n/a	LTP354	ltpFR2	15	18	n/a	n/a	n/a	n/a	0	0	0
3930699	REC_WORD	wordpools/wasnorm_wordpool_576.txt	LTP354	ltpFR2	15	18	STOVE	1388	n/a	n/a	0	0	0
3934581	REC_WORD	wordpools/wasnorm_wordpool_576.txt	LTP354	ltpFR2	15	18	LION	827	n/a	n/a	0	0	0
3935407	REC_WORD	wordpools/wasnorm_wordpool_576.txt	LTP354	ltpFR2	15	18	HEADBAND	696	n/a	n/a	0	0	0
3936028	REC_WORD	wordpools/wasnorm_wordpool_576.txt	LTP354	ltpFR2	15	18	FREEZER	604	n/a	n/a	0	0	0
3937301	REC_WORD	wordpools/wasnorm_wordpool_576.txt	LTP354	ltpFR2	15	18	LEOPARD	812	n/a	n/a	0	0	0
3939343	REC_WORD	wordpools/wasnorm_wordpool_576.txt	LTP354	ltpFR2	15	18	SEAGULL	1261	n/a	n/a	0	0	0
3959453	REC_WORD	wordpools/wasnorm_wordpool_576.txt	LTP354	ltpFR2	15	18	THIEF	1456	n/a	n/a	0	0	0
3979054	REC_WORD	wordpools/wasnorm_wordpool_576.txt	LTP354	ltpFR2	15	18	MAILMAN	858	n/a	n/a	0	0	0
3981655	REC_WORD	wordpools/wasnorm_wordpool_576.txt	LTP354	ltpFR2	15	18	MAILBOX	857	n/a	n/a	0	0	0
3990146	REC_WORD	wordpools/wasnorm_wordpool_576.txt	LTP354	ltpFR2	15	18	HORSE	719	n/a	n/a	0	0	0
3990777	REC_WORD	wordpools/wasnorm_wordpool_576.txt	LTP354	ltpFR2	15	18	ITEM	746	n/a	n/a	0	0	0
3993112	REC_WORD	wordpools/wasnorm_wordpool_576.txt	LTP354	ltpFR2	15	18	MATCH	878	n/a	n/a	0	0	0
4001536	REC_WORD	wordpools/wasnorm_wordpool_576.txt	LTP354	ltpFR2	15	18	PAIL	1002	n/a	n/a	0	0	0
4017921	WORD	wordpools/wasnorm_wordpool_576.txt	LTP354	ltpFR2	15	19	ROD	1203	n/a	n/a	0	0	0
4020555	WORD	wordpools/wasnorm_wordpool_576.txt	LTP354	ltpFR2	15	19	WASHER	1592	n/a	n/a	0	0	0
4023086	WORD	wordpools/wasnorm_wordpool_576.txt	LTP354	ltpFR2	15	19	BUREAU	199	n/a	n/a	0	0	0
4025635	WORD	wordpools/wasnorm_wordpool_576.txt	LTP354	ltpFR2	15	19	SAUSAGE	1238	n/a	n/a	0	0	0
4028183	WORD	wordpools/wasnorm_wordpool_576.txt	LTP354	ltpFR2	15	19	PLAYGROUND	1087	n/a	n/a	0	0	0
4030882	WORD	wordpools/wasnorm_wordpool_576.txt	LTP354	ltpFR2	15	19	PADDLE	1000	n/a	n/a	0	0	0
4033665	WORD	wordpools/wasnorm_wordpool_576.txt	LTP354	ltpFR2	15	19	DOLPHIN	483	n/a	n/a	0	0	0
4036146	WORD	wordpools/wasnorm_wordpool_576.txt	LTP354	ltpFR2	15	19	DANDRUFF	439	n/a	n/a	0	0	0
4038778	WORD	wordpools/wasnorm_wordpool_576.txt	LTP354	ltpFR2	15	19	TOMBSTONE	1478	n/a	n/a	0	0	0
4041527	WORD	wordpools/wasnorm_wordpool_576.txt	LTP354	ltpFR2	15	19	HIGHWAY	707	n/a	n/a	0	0	0
4044208	WORD	wordpools/wasnorm_wordpool_576.txt	LTP354	ltpFR2	15	19	COURSE	390	n/a	n/a	0	0	0
4046940	WORD	wordpools/wasnorm_wordpool_576.txt	LTP354	ltpFR2	15	19	BUCKET	184	n/a	n/a	0	0	0
4049640	WORD	wordpools/wasnorm_wordpool_576.txt	LTP354	ltpFR2	15	19	SWIMMER	1420	n/a	n/a	0	0	0
4052339	WORD	wordpools/wasnorm_wordpool_576.txt	LTP354	ltpFR2	15	19	DAUGHTER	442	n/a	n/a	0	0	0
4055153	WORD	wordpools/wasnorm_wordpool_576.txt	LTP354	ltpFR2	15	19	YACHT	1629	n/a	n/a	0	0	0
4057686	WORD	wordpools/wasnorm_wordpool_576.txt	LTP354	ltpFR2	15	19	PIZZA	1079	n/a	n/a	0	0	0
4060217	WORD	wordpools/wasnorm_wordpool_576.txt	LTP354	ltpFR2	15	19	PILOT	1070	n/a	n/a	0	0	0
4062933	WORD	wordpools/wasnorm_wordpool_576.txt	LTP354	ltpFR2	15	19	RELISH	1183	n/a	n/a	0	0	0
4065732	WORD	wordpools/wasnorm_wordpool_576.txt	LTP354	ltpFR2	15	19	SILK	1307	n/a	n/a	0	0	0
4068247	WORD	wordpools/wasnorm_wordpool_576.txt	LTP354	ltpFR2	15	19	WRENCH	1625	n/a	n/a	0	0	0
4070978	WORD	wordpools/wasnorm_wordpool_576.txt	LTP354	ltpFR2	15	19	HATCHET	691	n/a	n/a	0	0	0
4073794	WORD	wordpools/wasnorm_wordpool_576.txt	LTP354	ltpFR2	15	19	OMELET	976	n/a	n/a	0	0	0
4076443	WORD	wordpools/wasnorm_wordpool_576.txt	LTP354	ltpFR2	15	19	GIFT	635	n/a	n/a	0	0	0
4078958	WORD	wordpools/wasnorm_wordpool_576.txt	LTP354	ltpFR2	15	19	COFFEE	341	n/a	n/a	0	0	0
4080575	START	n/a	LTP354	ltpFR2	15	n/a	n/a	n/a	29	n/a	n/a	n/a	n/a
4081644	DISTRACTOR	n/a	LTP354	ltpFR2	15	19	n/a	n/a	n/a	n/a	0	0	0
4081657	PROB	n/a	LTP354	ltpFR2	15	n/a	n/a	n/a	29	12	3	6	3
4083457	PROB	n/a	LTP354	ltpFR2	15	n/a	n/a	n/a	29	11	2	1	8
4084489	PROB	n/a	LTP354	ltpFR2	15	n/a	n/a	n/a	29	10	5	3	2
4086254	PROB	n/a	LTP354	ltpFR2	15	n/a	n/a	n/a	29	14	8	3	3
4089003	PROB	n/a	LTP354	ltpFR2	15	n/a	n/a	n/a	29	13	9	3	1
4090186	PROB	n/a	LTP354	ltpFR2	15	n/a	n/a	n/a	29	14	5	1	8
4091303	PROB	n/a	LTP354	ltpFR2	15	n/a	n/a	n/a	29	19	7	8	4
4093618	PROB	n/a	LTP354	ltpFR2	15	n/a	n/a	n/a	29	15	6	8	1
4095150	PROB	n/a	LTP354	ltpFR2	15	n/a	n/a	n/a	29	13	1	4	9
4096350	PROB	n/a	LTP354	ltpFR2	15	n/a	n/a	n/a	29	17	3	7	7
4097700	PROB	n/a	LTP354	ltpFR2	15	n/a	n/a	n/a	29	14	7	3	4
4099582	PROB	n/a	LTP354	ltpFR2	15	n/a	n/a	n/a	29	19	1	9	9
4100665	PROB	n/a	LTP354	ltpFR2	15	n/a	n/a	n/a	29	11	4	4	3
4101747	PROB	n/a	LTP354	ltpFR2	15	n/a	n/a	n/a	29	13	4	3	6
4102896	PROB	n/a	LTP354	ltpFR2	15	n/a	n/a	n/a	29	17	9	7	1
4104314	STOP	n/a	LTP354	ltpFR2	15	n/a	n/a	n/a	29	n/a	n/a	n/a	n/a
4106329	REC_START	n/a	LTP354	ltpFR2	15	19	n/a	n/a	n/a	n/a	0	0	0
4107162	REC_WORD	wordpools/wasnorm_wordpool_576.txt	LTP354	ltpFR2	15	19	SAUSAGE	1238	n/a	n/a	0	0	0
4108162	REC_WORD_VV	wordpools/wasnorm_wordpool_576.txt	LTP354	ltpFR2	15	19	<>	-1	n/a	n/a	0	0	0
4108790	REC_WORD	wordpools/wasnorm_wordpool_576.txt	LTP354	ltpFR2	15	19	PLAYGROUND	1087	n/a	n/a	0	0	0
4110971	REC_WORD	wordpools/wasnorm_wordpool_576.txt	LTP354	ltpFR2	15	19	OMELET	976	n/a	n/a	0	0	0
4112784	REC_WORD	wordpools/wasnorm_wordpool_576.txt	LTP354	ltpFR2	15	19	GIFT	635	n/a	n/a	0	0	0
4115558	REC_WORD	wordpools/wasnorm_wordpool_576.txt	LTP354	ltpFR2	15	19	PADDLE	1000	n/a	n/a	0	0	0
4196783	WORD	wordpools/wasnorm_wordpool_576.txt	LTP354	ltpFR2	15	20	LAVA	804	n/a	n/a	0	0	0
4199281	WORD	wordpools/wasnorm_wordpool_576.txt	LTP354	ltpFR2	15	20	ISLAND	745	n/a	n/a	0	0	0
4201997	WORD	wordpools/wasnorm_wordpool_576.txt	LTP354	ltpFR2	15	20	MARROW	872	n/a	n/a	0	0	0
4204596	WORD	wordpools/wasnorm_wordpool_576.txt	LTP354	ltpFR2	15	20	COOKBOOK	373	n/a	n/a	0	0	0
4207061	WORD	wordpools/wasnorm_wordpool_576.txt	LTP354	ltpFR2	15	20	PICNIC	1060	n/a	n/a	0	0	0
4209860	WORD	wordpools/wasnorm_wordpool_576.txt	LTP354	ltpFR2	15	20	PEANUT	1032	n/a	n/a	0	0	0
4212426	WORD	wordpools/wasnorm_wordpool_576.txt	LTP354	ltpFR2	15	20	CYCLONE	431	n/a	n/a	0	0	0
4214974	WORD	wordpools/wasnorm_wordpool_576.txt	LTP354	ltpFR2	15	20	BARREL	91	n/a	n/a	0	0	0
4217473	WORD	wordpools/wasnorm_wordpool_576.txt	LTP354	ltpFR2	15	20	TOASTER	1472	n/a	n/a	0	0	0
4220138	WORD	wordpools/wasnorm_wordpool_576.txt	LTP354	ltpFR2	15	20	GLASS	639	n/a	n/a	0	0	0
4222853	WORD	wordpools/wasnorm_wordpool_576.txt	LTP354	ltpFR2	15	20	TWISTER	1530	n/a	n/a	0	0	0
4225403	WORD	wordpools/wasnorm_wordpool_576.txt	LTP354	ltpFR2	15	20	BANJO	82	n/a	n/a	0	0	0
4228200	WORD	wordpools/wasnorm_wordpool_576.txt	LTP354	ltpFR2	15	20	SOFTBALL	1343	n/a	n/a	0	0	0
4230899	WORD	wordpools/wasnorm_wordpool_576.txt	LTP354	ltpFR2	15	20	HANDBAG	684	n/a	n/a	0	0	0
4233582	WORD	wordpools/wasnorm_wordpool_576.txt	LTP354	ltpFR2	15	20	SPACE	1345	n/a	n/a	0	0	0
4236063	WORD	wordpools/wasnorm_wordpool_576.txt	LTP354	ltpFR2	15	20	PRINCE	1124	n/a	n/a	0	0	0
4238680	WORD	wordpools/wasnorm_wordpool_576.txt	LTP354	ltpFR2	15	20	DASHBOARD	441	n/a	n/a	0	0	0
4241111	WORD	wordpools/wasnorm_wordpool_576.txt	LTP354	ltpFR2	15	20	MAPLE	866	n/a	n/a	0	0	0
4243594	WORD	wordpools/wasnorm_wordpool_576.txt	LTP354	ltpFR2	15	20	CHAMPAGNE	278	n/a	n/a	0	0	0
4246025	WORD	wordpools/wasnorm_wordpool_576.txt	LTP354	ltpFR2	15	20	SPOOL	1356	n/a	n/a	0	0	0
4248840	WORD	wordpools/wasnorm_wordpool_576.txt	LTP354	ltpFR2	15	20	TEMPLE	1448	n/a	n/a	0	0	0
4251523	WORD	wordpools/wasnorm_wordpool_576.txt	LTP354	ltpFR2	15	20	MUMMY	932	n/a	n/a	0	0	0
4254121	WORD	wordpools/wasnorm_wordpool_576.txt	LTP354	ltpFR2	15	20	CORAL	378	n/a	n/a	0	0	0
4256671	WORD	wordpools/wasnorm_wordpool_576.txt	LTP354	ltpFR2	15	20	FIDDLE	561	n/a	n/a	0	0	0
4258286	START	n/a	LTP354	ltpFR2	15	n/a	n/a	n/a	30	n/a	n/a	n/a	n/a
4259239	DISTRACTOR	n/a	LTP354	ltpFR2	15	20	n/a	n/a	n/a	n/a	0	0	0
4259252	PROB	n/a	LTP354	ltpFR2	15	n/a	n/a	n/a	30	19	7	6	6
4261034	PROB	n/a	LTP354	ltpFR2	15	n/a	n/a	n/a	30	13	5	1	7
4262184	PROB	n/a	LTP354	ltpFR2	15	n/a	n/a	n/a	30	3	1	1	1
4263000	PROB	n/a	LTP354	ltpFR2	15	n/a	n/a	n/a	30	10	1	3	6
4264066	PROB	n/a	LTP354	ltpFR2	15	n/a	n/a	n/a	30	12	2	5	5
4265182	PROB	n/a	LTP354	ltpFR2	15	n/a	n/a	n/a	30	17	5	7	5
4266332	PROB	n/a	LTP354	ltpFR2	15	n/a	n/a	n/a	30	16	6	4	6
4267399	PROB	n/a	LTP354	ltpFR2	15	n/a	n/a	n/a	30	16	3	5	8
4268997	PROB	n/a	LTP354	ltpFR2	15	n/a	n/a	n/a	30	12	1	5	6
4269913	PROB	n/a	LTP354	ltpFR2	15	n/a	n/a	n/a	30	16	3	4	9
4271296	PROB	n/a	LTP354	ltpFR2	15	n/a	n/a	n/a	30	12	3	3	6
4272413	PROB	n/a	LTP354	ltpFR2	15	n/a	n/a	n/a	30	23	9	6	8
4274612	PROB	n/a	LTP354	ltpFR2	15	n/a	n/a	n/a	30	24	8	9	7
4275728	PROB	n/a	LTP354	ltpFR2	15	n/a	n/a	n/a	30	14	4	5	5
4277809	PROB	n/a	LTP354	ltpFR2	15	n/a	n/a	n/a	30	18	8	5	5
4279343	PROB	n/a	LTP354	ltpFR2	15	n/a	n/a	n/a	30	13	5	7	1
4280642	PROB	n/a	LTP354	ltpFR2	15	n/a	n/a	n/a	30	14	7	5	2
4282241	STOP	n/a	LTP354	ltpFR2	15	n/a	n/a	n/a	30	n/a	n/a	n/a	n/a
4284073	REC_START	n/a	LTP354	ltpFR2	15	20	n/a	n/a	n/a	n/a	0	0	0
4285445	REC_WORD	wordpools/wasnorm_wordpool_576.txt	LTP354	ltpFR2	15	20	CORAL	378	n/a	n/a	0	0	0
4288117	REC_WORD	wordpools/wasnorm_wordpool_576.txt	LTP354	ltpFR2	15	20	FIDDLE	561	n/a	n/a	0	0	0
4294055	REC_WORD	wordpools/wasnorm_wordpool_576.txt	LTP354	ltpFR2	15	20	HANDBAG	684	n/a	n/a	0	0	0
4374512	DISTRACTOR	n/a	LTP354	ltpFR2	15	21	n/a	n/a	n/a	n/a	0	0	0
4374512	START	n/a	LTP354	ltpFR2	15	n/a	n/a	n/a	31	n/a	n/a	n/a	n/a
4374529	PROB	n/a	LTP354	ltpFR2	15	n/a	n/a	n/a	31	7	3	1	3
4376177	PROB	n/a	LTP354	ltpFR2	15	n/a	n/a	n/a	31	15	4	5	6
4377511	PROB	n/a	LTP354	ltpFR2	15	n/a	n/a	n/a	31	16	6	2	8
4380692	PROB	n/a	LTP354	ltpFR2	15	n/a	n/a	n/a	31	22	7	7	8
4382191	PROB	n/a	LTP354	ltpFR2	15	n/a	n/a	n/a	31	17	6	9	2
4384073	PROB	n/a	LTP354	ltpFR2	15	n/a	n/a	n/a	31	14	3	5	6
4385806	PROB	n/a	LTP354	ltpFR2	15	n/a	n/a	n/a	31	10	1	7	2
4387022	PROB	n/a	LTP354	ltpFR2	15	n/a	n/a	n/a	31	12	3	2	7
4388038	PROB	n/a	LTP354	ltpFR2	15	n/a	n/a	n/a	31	15	9	5	1
4389254	PROB	n/a	LTP354	ltpFR2	15	n/a	n/a	n/a	31	18	9	1	8
4390304	PROB	n/a	LTP354	ltpFR2	15	n/a	n/a	n/a	31	13	4	4	5
4391986	PROB	n/a	LTP354	ltpFR2	15	n/a	n/a	n/a	31	22	7	8	7
4393636	PROB	n/a	LTP354	ltpFR2	15	n/a	n/a	n/a	31	13	1	5	7
4394818	PROB	n/a	LTP354	ltpFR2	15	n/a	n/a	n/a	31	13	4	1	8
4396117	PROB	n/a	LTP354	ltpFR2	15	n/a	n/a	n/a	31	17	3	7	7
4397025	STOP	n/a	LTP354	ltpFR2	15	n/a	n/a	n/a	31	n/a	n/a	n/a	n/a
4399600	WORD	wordpools/wasnorm_wordpool_576.txt	LTP354	ltpFR2	15	21	CONCERT	360	n/a	n/a	0	0	0
4402097	WORD	wordpools/wasnorm_wordpool_576.txt	LTP354	ltpFR2	15	21	SADDLE	1221	n/a	n/a	0	0	0
4404631	WORD	wordpools/wasnorm_wordpool_576.txt	LTP354	ltpFR2	15	21	CLOCK	325	n/a	n/a	0	0	0
4407162	WORD	wordpools/wasnorm_wordpool_576.txt	LTP354	ltpFR2	15	21	ARMY	39	n/a	n/a	0	0	0
4409628	WORD	wordpools/wasnorm_wordpool_576.txt	LTP354	ltpFR2	15	21	BOUQUET	157	n/a	n/a	0	0	0
