onset	duration	trial_type	sample	stim_file	subject	experiment	session	trial	task	item_name	item_num	recog_resp	recog_conf	resp	color_r	color_g	color_b	case	font
246.382	n/a	SESS_START	123191	n/a	LTP081	ltpFR	15	n/a	n/a	n/a	n/a	1	5	n/a	n/a	n/a	n/a	n/a	n/a
343.204	n/a	WORD	171602	wordpools/wasnorm_wordpool.txt	LTP081	ltpFR	15	1	0	DRUM	502	1	n/a	1	0.57763671875	0.412841796875	1	lower	amplitud.ttf
347.112	n/a	WORD	173556	wordpools/wasnorm_wordpool.txt	LTP081	ltpFR	15	1	0	CREW	406	n/a	n/a	1	0.57763671875	0.412841796875	1	lower	amplitud.ttf
350.98	n/a	WORD	175490	wordpools/wasnorm_wordpool.txt	LTP081	ltpFR	15	1	0	SENATOR	1268	n/a	n/a	1	0.57763671875	0.412841796875	1	lower	amplitud.ttf
354.87	n/a	WORD	177435	wordpools/wasnorm_wordpool.txt	LTP081	ltpFR	15	1	1	TAVERN	1437	n/a	n/a	0	0.422607421875	0.5869140625	0	upper	zerothre.ttf
358.928	n/a	WORD	179464	wordpools/wasnorm_wordpool.txt	LTP081	ltpFR	15	1	1	HERD	705	n/a	n/a	1	0.422607421875	0.5869140625	0	upper	zerothre.ttf
362.996	n/a	WORD	181498	wordpools/wasnorm_wordpool.txt	LTP081	ltpFR	15	1	1	COW	393	n/a	n/a	1	0.422607421875	0.5869140625	0	upper	zerothre.ttf
366.838	n/a	WORD	183419	wordpools/wasnorm_wordpool.txt	LTP081	ltpFR	15	1	1	CELLO	268	n/a	n/a	0	0.422607421875	0.5869140625	0	upper	zerothre.ttf
370.846	n/a	WORD	185423	wordpools/wasnorm_wordpool.txt	LTP081	ltpFR	15	1	1	MOTEL	919	n/a	n/a	0	0.422607421875	0.5869140625	0	upper	zerothre.ttf
374.77	n/a	WORD	187385	wordpools/wasnorm_wordpool.txt	LTP081	ltpFR	15	1	0	SNACK	1331	n/a	n/a	0	0.57763671875	0.412841796875	1	lower	amplitud.ttf
378.828	n/a	WORD	189414	wordpools/wasnorm_wordpool.txt	LTP081	ltpFR	15	1	0	GROCERY	664	n/a	n/a	1	0.57763671875	0.412841796875	1	lower	amplitud.ttf
382.888	n/a	WORD	191444	wordpools/wasnorm_wordpool.txt	LTP081	ltpFR	15	1	0	TRIGGER	1507	n/a	n/a	0	0.57763671875	0.412841796875	1	lower	amplitud.ttf
387.07	n/a	WORD	193535	wordpools/wasnorm_wordpool.txt	LTP081	ltpFR	15	1	1	SCOTCH	1251	n/a	n/a	0	0.422607421875	0.5869140625	0	upper	zerothre.ttf
391.078	n/a	WORD	195539	wordpools/wasnorm_wordpool.txt	LTP081	ltpFR	15	1	1	TREAD	1499	n/a	n/a	0	0.422607421875	0.5869140625	0	upper	zerothre.ttf
394.962	n/a	WORD	197481	wordpools/wasnorm_wordpool.txt	LTP081	ltpFR	15	1	1	STAPLE	1371	n/a	n/a	0	0.422607421875	0.5869140625	0	upper	zerothre.ttf
399.036	n/a	WORD	199518	wordpools/wasnorm_wordpool.txt	LTP081	ltpFR	15	1	0	EDITOR	516	n/a	n/a	1	0.57763671875	0.412841796875	1	lower	amplitud.ttf
402.87	n/a	WORD	201435	wordpools/wasnorm_wordpool.txt	LTP081	ltpFR	15	1	0	NIGHTGOWN	953	n/a	n/a	0	0.57763671875	0.412841796875	1	lower	amplitud.ttf
408.486	n/a	REC_START	204243	n/a	LTP081	ltpFR	15	1	n/a	n/a	n/a	n/a	n/a	n/a	n/a	n/a	n/a	n/a	n/a
410.166	n/a	REC_WORD	205083	wordpools/wasnorm_wordpool.txt	LTP081	ltpFR	15	1	0	EDITOR	516	n/a	n/a	1	n/a	n/a	n/a	n/a	n/a
411.15	n/a	REC_WORD	205575	wordpools/wasnorm_wordpool.txt	LTP081	ltpFR	15	1	1	TAVERN	1437	n/a	n/a	0	n/a	n/a	n/a	n/a	n/a
414.87	n/a	REC_WORD	207435	wordpools/wasnorm_wordpool.txt	LTP081	ltpFR	15	1	0	NIGHTGOWN	953	n/a	n/a	0	n/a	n/a	n/a	n/a	n/a
418.278	n/a	REC_WORD	209139	wordpools/wasnorm_wordpool.txt	LTP081	ltpFR	15	1	0	SENATOR	1268	n/a	n/a	1	n/a	n/a	n/a	n/a	n/a
422.42	n/a	REC_WORD	211210	wordpools/wasnorm_wordpool.txt	LTP081	ltpFR	15	1	1	MOTEL	919	n/a	n/a	0	n/a	n/a	n/a	n/a	n/a
426.416	n/a	REC_WORD	213208	wordpools/wasnorm_wordpool.txt	LTP081	ltpFR	15	1	1	TREAD	1499	n/a	n/a	0	n/a	n/a	n/a	n/a	n/a
427.372	n/a	REC_WORD	213686	wordpools/wasnorm_wordpool.txt	LTP081	ltpFR	15	1	1	STAPLE	1371	n/a	n/a	0	n/a	n/a	n/a	n/a	n/a
442.1	n/a	REC_WORD	221050	wordpools/wasnorm_wordpool.txt	LTP081	ltpFR	15	1	0	GROCERY	664	n/a	n/a	1	n/a	n/a	n/a	n/a	n/a
444.37	n/a	REC_WORD	222185	wordpools/wasnorm_wordpool.txt	LTP081	ltpFR	15	1	1	SCOTCH	1251	n/a	n/a	0	n/a	n/a	n/a	n/a	n/a
446.486	n/a	REC_WORD	223243	wordpools/wasnorm_wordpool.txt	LTP081	ltpFR	15	1	0	CREW	406	n/a	n/a	1	n/a	n/a	n/a	n/a	n/a
447.812	n/a	REC_WORD	223906	wordpools/wasnorm_wordpool.txt	LTP081	ltpFR	15	1	1	CELLO	268	n/a	n/a	0	n/a	n/a	n/a	n/a	n/a
449.056	n/a	REC_WORD	224528	wordpools/wasnorm_wordpool.txt	LTP081	ltpFR	15	1	0	DRUM	502	n/a	n/a	1	n/a	n/a	n/a	n/a	n/a
462.002	n/a	REC_WORD	231001	wordpools/wasnorm_wordpool.txt	LTP081	ltpFR	15	1	1	COW	393	n/a	n/a	1	n/a	n/a	n/a	n/a	n/a
463.044	n/a	REC_WORD	231522	wordpools/wasnorm_wordpool.txt	LTP081	ltpFR	15	1	1	HERD	705	n/a	n/a	1	n/a	n/a	n/a	n/a	n/a
490.976	n/a	WORD	245488	wordpools/wasnorm_wordpool.txt	LTP081	ltpFR	15	2	1	BISCUIT	130	n/a	n/a	0	0.422607421875	0.5869140625	0	upper	zerothre.ttf
494.8	n/a	WORD	247400	wordpools/wasnorm_wordpool.txt	LTP081	ltpFR	15	2	1	WRIST	1626	n/a	n/a	0	0.422607421875	0.5869140625	0	upper	zerothre.ttf
498.808	n/a	WORD	249404	wordpools/wasnorm_wordpool.txt	LTP081	ltpFR	15	2	1	CONCERT	360	n/a	n/a	0	0.422607421875	0.5869140625	0	upper	zerothre.ttf
502.65	n/a	WORD	251325	wordpools/wasnorm_wordpool.txt	LTP081	ltpFR	15	2	1	PUMPKIN	1142	n/a	n/a	1	0.422607421875	0.5869140625	0	upper	zerothre.ttf
506.55	n/a	WORD	253275	wordpools/wasnorm_wordpool.txt	LTP081	ltpFR	15	2	0	SPONGE	1355	n/a	n/a	0	0.57763671875	0.412841796875	1	lower	amplitud.ttf
510.634	n/a	WORD	255317	wordpools/wasnorm_wordpool.txt	LTP081	ltpFR	15	2	0	LAKE	796	n/a	n/a	1	0.57763671875	0.412841796875	1	lower	amplitud.ttf
514.584	n/a	WORD	257292	wordpools/wasnorm_wordpool.txt	LTP081	ltpFR	15	2	0	ANIMAL	23	n/a	n/a	1	0.57763671875	0.412841796875	1	lower	amplitud.ttf
518.516	n/a	WORD	259258	wordpools/wasnorm_wordpool.txt	LTP081	ltpFR	15	2	1	GOLD	647	n/a	n/a	0	0.422607421875	0.5869140625	0	upper	zerothre.ttf
522.666	n/a	WORD	261333	wordpools/wasnorm_wordpool.txt	LTP081	ltpFR	15	2	1	CANARY	227	n/a	n/a	1	0.422607421875	0.5869140625	0	upper	zerothre.ttf
526.498	n/a	WORD	263249	wordpools/wasnorm_wordpool.txt	LTP081	ltpFR	15	2	0	EAGLE	512	n/a	n/a	1	0.57763671875	0.412841796875	1	lower	amplitud.ttf
530.616	n/a	WORD	265308	wordpools/wasnorm_wordpool.txt	LTP081	ltpFR	15	2	0	CHIPMUNK	304	n/a	n/a	1	0.57763671875	0.412841796875	1	lower	amplitud.ttf
534.456	n/a	WORD	267228	wordpools/wasnorm_wordpool.txt	LTP081	ltpFR	15	2	0	ANKLE	24	n/a	n/a	0	0.57763671875	0.412841796875	1	lower	amplitud.ttf
538.532	n/a	WORD	269266	wordpools/wasnorm_wordpool.txt	LTP081	ltpFR	15	2	0	SCALLOP	1242	n/a	n/a	0	0.57763671875	0.412841796875	1	lower	amplitud.ttf
542.374	n/a	WORD	271187	wordpools/wasnorm_wordpool.txt	LTP081	ltpFR	15	2	0	MEAT	883	n/a	n/a	0	0.57763671875	0.412841796875	1	lower	amplitud.ttf
546.466	n/a	WORD	273233	wordpools/wasnorm_wordpool.txt	LTP081	ltpFR	15	2	1	GUARDIAN	668	n/a	n/a	1	0.422607421875	0.5869140625	0	upper	zerothre.ttf
550.39	n/a	WORD	275195	wordpools/wasnorm_wordpool.txt	LTP081	ltpFR	15	2	1	BASSINET	97	n/a	n/a	0	0.422607421875	0.5869140625	0	upper	zerothre.ttf
556.374	n/a	REC_START	278187	n/a	LTP081	ltpFR	15	2	n/a	n/a	n/a	n/a	n/a	n/a	n/a	n/a	n/a	n/a	n/a
557.556	n/a	REC_WORD	278778	wordpools/wasnorm_wordpool.txt	LTP081	ltpFR	15	2	1	BASSINET	97	n/a	n/a	0	n/a	n/a	n/a	n/a	n/a
559.392	n/a	REC_WORD	279696	wordpools/wasnorm_wordpool.txt	LTP081	ltpFR	15	2	n/a	GARDEN	623	n/a	n/a	n/a	n/a	n/a	n/a	n/a	n/a
564.48	n/a	REC_WORD	282240	wordpools/wasnorm_wordpool.txt	LTP081	ltpFR	15	2	n/a	SNAKE	1333	n/a	n/a	n/a	n/a	n/a	n/a	n/a	n/a
570.148	n/a	REC_WORD	285074	wordpools/wasnorm_wordpool.txt	LTP081	ltpFR	15	2	n/a	ELBOW	520	n/a	n/a	n/a	n/a	n/a	n/a	n/a	n/a
572.682	n/a	REC_WORD	286341	wordpools/wasnorm_wordpool.txt	LTP081	ltpFR	15	2	1	WRIST	1626	n/a	n/a	0	n/a	n/a	n/a	n/a	n/a
573.92	n/a	REC_WORD	286960	wordpools/wasnorm_wordpool.txt	LTP081	ltpFR	15	2	0	ANKLE	24	n/a	n/a	0	n/a	n/a	n/a	n/a	n/a
579.348	n/a	REC_WORD	289674	wordpools/wasnorm_wordpool.txt	LTP081	ltpFR	15	2	0	ANIMAL	23	n/a	n/a	1	n/a	n/a	n/a	n/a	n/a
580.858	n/a	REC_WORD	290429	wordpools/wasnorm_wordpool.txt	LTP081	ltpFR	15	2	1	CANARY	227	n/a	n/a	1	n/a	n/a	n/a	n/a	n/a
582.53	n/a	REC_WORD	291265	wordpools/wasnorm_wordpool.txt	LTP081	ltpFR	15	2	0	CHIPMUNK	304	n/a	n/a	1	n/a	n/a	n/a	n/a	n/a
583.942	n/a	REC_WORD	291971	wordpools/wasnorm_wordpool.txt	LTP081	ltpFR	15	2	0	SCALLOP	1242	n/a	n/a	0	n/a	n/a	n/a	n/a	n/a
611.586	n/a	REC_WORD	305793	wordpools/wasnorm_wordpool.txt	LTP081	ltpFR	15	2	0	EAGLE	512	n/a	n/a	1	n/a	n/a	n/a	n/a	n/a
637.346	n/a	WORD	318673	wordpools/wasnorm_wordpool.txt	LTP081	ltpFR	15	3	1	PICNIC	1060	n/a	n/a	0	0.422607421875	0.5869140625	0	upper	zerothre.ttf
641.396	n/a	WORD	320698	wordpools/wasnorm_wordpool.txt	LTP081	ltpFR	15	3	1	HIKER	708	n/a	n/a	1	0.422607421875	0.5869140625	0	upper	zerothre.ttf
645.606	n/a	WORD	322803	wordpools/wasnorm_wordpool.txt	LTP081	ltpFR	15	3	1	COYOTE	396	n/a	n/a	1	0.422607421875	0.5869140625	0	upper	zerothre.ttf
649.722	n/a	WORD	324861	wordpools/wasnorm_wordpool.txt	LTP081	ltpFR	15	3	1	OTTER	986	n/a	n/a	1	0.422607421875	0.5869140625	0	upper	zerothre.ttf
653.746	n/a	WORD	326873	wordpools/wasnorm_wordpool.txt	LTP081	ltpFR	15	3	1	CHAMPION	279	n/a	n/a	1	0.422607421875	0.5869140625	0	upper	zerothre.ttf
657.772	n/a	WORD	328886	wordpools/wasnorm_wordpool.txt	LTP081	ltpFR	15	3	1	CHALK	276	n/a	n/a	0	0.422607421875	0.5869140625	0	upper	zerothre.ttf
661.72	n/a	WORD	330860	wordpools/wasnorm_wordpool.txt	LTP081	ltpFR	15	3	1	WEB	1598	n/a	n/a	0	0.422607421875	0.5869140625	0	upper	zerothre.ttf
665.838	n/a	WORD	332919	wordpools/wasnorm_wordpool.txt	LTP081	ltpFR	15	3	1	CHEST	295	n/a	n/a	0	0.422607421875	0.5869140625	0	upper	zerothre.ttf
669.912	n/a	WORD	334956	wordpools/wasnorm_wordpool.txt	LTP081	ltpFR	15	3	1	BANQUET	86	n/a	n/a	0	0.422607421875	0.5869140625	0	upper	zerothre.ttf
674.038	n/a	WORD	337019	wordpools/wasnorm_wordpool.txt	LTP081	ltpFR	15	3	1	KNAPSACK	783	n/a	n/a	0	0.422607421875	0.5869140625	0	upper	zerothre.ttf
677.97	n/a	WORD	338985	wordpools/wasnorm_wordpool.txt	LTP081	ltpFR	15	3	1	WIRE	1616	n/a	n/a	0	0.422607421875	0.5869140625	0	upper	zerothre.ttf
681.996	n/a	WORD	340998	wordpools/wasnorm_wordpool.txt	LTP081	ltpFR	15	3	1	BIBLE	124	n/a	n/a	0	0.422607421875	0.5869140625	0	upper	zerothre.ttf
686.154	n/a	WORD	343077	wordpools/wasnorm_wordpool.txt	LTP081	ltpFR	15	3	1	CHAPEL	280	n/a	n/a	0	0.422607421875	0.5869140625	0	upper	zerothre.ttf
690.02	n/a	WORD	345010	wordpools/wasnorm_wordpool.txt	LTP081	ltpFR	15	3	1	AWARD	63	n/a	n/a	0	0.422607421875	0.5869140625	0	upper	zerothre.ttf
693.888	n/a	WORD	346944	wordpools/wasnorm_wordpool.txt	LTP081	ltpFR	15	3	1	ASSOCIATE	49	n/a	n/a	1	0.422607421875	0.5869140625	0	upper	zerothre.ttf
697.786	n/a	WORD	348893	wordpools/wasnorm_wordpool.txt	LTP081	ltpFR	15	3	1	COMPANION	357	n/a	n/a	1	0.422607421875	0.5869140625	0	upper	zerothre.ttf
703.504	n/a	REC_START	351752	n/a	LTP081	ltpFR	15	3	n/a	n/a	n/a	n/a	n/a	n/a	n/a	n/a	n/a	n/a	n/a
704.376	n/a	REC_WORD	352188	wordpools/wasnorm_wordpool.txt	LTP081	ltpFR	15	3	1	COMPANION	357	n/a	n/a	1	n/a	n/a	n/a	n/a	n/a
705.664	n/a	REC_WORD	352832	wordpools/wasnorm_wordpool.txt	LTP081	ltpFR	15	3	1	CHAMPION	279	n/a	n/a	1	n/a	n/a	n/a	n/a	n/a
707.0	n/a	REC_WORD	353500	wordpools/wasnorm_wordpool.txt	LTP081	ltpFR	15	3	1	AWARD	63	n/a	n/a	0	n/a	n/a	n/a	n/a	n/a
708.842	n/a	REC_WORD	354421	wordpools/wasnorm_wordpool.txt	LTP081	ltpFR	15	3	1	GOLD	647	n/a	n/a	0	n/a	n/a	n/a	n/a	n/a
712.198	n/a	REC_WORD	356099	wordpools/wasnorm_wordpool.txt	LTP081	ltpFR	15	3	1	HIKER	708	n/a	n/a	1	n/a	n/a	n/a	n/a	n/a
713.236	n/a	REC_WORD	356618	wordpools/wasnorm_wordpool.txt	LTP081	ltpFR	15	3	1	WIRE	1616	n/a	n/a	0	n/a	n/a	n/a	n/a	n/a
732.468	n/a	REC_WORD	366234	wordpools/wasnorm_wordpool.txt	LTP081	ltpFR	15	3	1	CHAPEL	280	n/a	n/a	0	n/a	n/a	n/a	n/a	n/a
734.764	n/a	REC_WORD	367382	wordpools/wasnorm_wordpool.txt	LTP081	ltpFR	15	3	1	BIBLE	124	n/a	n/a	0	n/a	n/a	n/a	n/a	n/a
736.884	n/a	REC_WORD	368442	wordpools/wasnorm_wordpool.txt	LTP081	ltpFR	15	3	n/a	CHURCH	307	n/a	n/a	n/a	n/a	n/a	n/a	n/a	n/a
783.618	n/a	WORD	391809	wordpools/wasnorm_wordpool.txt	LTP081	ltpFR	15	4	-1	IDOL	733	n/a	n/a	-1	1.0	1.0	1	upper	Verdana.ttf
787.76	n/a	WORD	393880	wordpools/wasnorm_wordpool.txt	LTP081	ltpFR	15	4	-1	WASHCLOTH	1591	n/a	n/a	-1	1.0	1.0	1	upper	Verdana.ttf
791.902	n/a	WORD	395951	wordpools/wasnorm_wordpool.txt	LTP081	ltpFR	15	4	-1	CRAYON	401	n/a	n/a	-1	1.0	1.0	1	upper	Verdana.ttf
795.952	n/a	WORD	397976	wordpools/wasnorm_wordpool.txt	LTP081	ltpFR	15	4	-1	TANGERINE	1431	n/a	n/a	-1	1.0	1.0	1	upper	Verdana.ttf
799.818	n/a	WORD	399909	wordpools/wasnorm_wordpool.txt	LTP081	ltpFR	15	4	-1	LOBSTER	837	n/a	n/a	-1	1.0	1.0	1	upper	Verdana.ttf
803.834	n/a	WORD	401917	wordpools/wasnorm_wordpool.txt	LTP081	ltpFR	15	4	-1	CLAM	315	n/a	n/a	-1	1.0	1.0	1	upper	Verdana.ttf
807.992	n/a	WORD	403996	wordpools/wasnorm_wordpool.txt	LTP081	ltpFR	15	4	-1	BULL	193	n/a	n/a	-1	1.0	1.0	1	upper	Verdana.ttf
811.81	n/a	WORD	405905	wordpools/wasnorm_wordpool.txt	LTP081	ltpFR	15	4	-1	RAM	1165	n/a	n/a	-1	1.0	1.0	1	upper	Verdana.ttf
815.934	n/a	WORD	407967	wordpools/wasnorm_wordpool.txt	LTP081	ltpFR	15	4	-1	RADIATOR	1156	n/a	n/a	-1	1.0	1.0	1	upper	Verdana.ttf
820.118	n/a	WORD	410059	wordpools/wasnorm_wordpool.txt	LTP081	ltpFR	15	4	-1	ORNAMENT	985	n/a	n/a	-1	1.0	1.0	1	upper	Verdana.ttf
824.084	n/a	WORD	412042	wordpools/wasnorm_wordpool.txt	LTP081	ltpFR	15	4	-1	CATHEDRAL	260	n/a	n/a	-1	1.0	1.0	1	upper	Verdana.ttf
828.042	n/a	WORD	414021	wordpools/wasnorm_wordpool.txt	LTP081	ltpFR	15	4	-1	SOAP	1337	n/a	n/a	-1	1.0	1.0	1	upper	Verdana.ttf
832.092	n/a	WORD	416046	wordpools/wasnorm_wordpool.txt	LTP081	ltpFR	15	4	-1	BUGGY	188	n/a	n/a	-1	1.0	1.0	1	upper	Verdana.ttf
836.066	n/a	WORD	418033	wordpools/wasnorm_wordpool.txt	LTP081	ltpFR	15	4	-1	DOCUMENT	479	n/a	n/a	-1	1.0	1.0	1	upper	Verdana.ttf
840.008	n/a	WORD	420004	wordpools/wasnorm_wordpool.txt	LTP081	ltpFR	15	4	-1	ESSAY	540	n/a	n/a	-1	1.0	1.0	1	upper	Verdana.ttf
844.034	n/a	WORD	422017	wordpools/wasnorm_wordpool.txt	LTP081	ltpFR	15	4	-1	CACTUS	215	n/a	n/a	-1	1.0	1.0	1	upper	Verdana.ttf
849.75	n/a	REC_START	424875	n/a	LTP081	ltpFR	15	4	n/a	n/a	n/a	n/a	n/a	n/a	n/a	n/a	n/a	n/a	n/a
851.068	n/a	REC_WORD	425534	wordpools/wasnorm_wordpool.txt	LTP081	ltpFR	15	4	-1	DOCUMENT	479	n/a	n/a	-1	n/a	n/a	n/a	n/a	n/a
852.43	n/a	REC_WORD	426215	wordpools/wasnorm_wordpool.txt	LTP081	ltpFR	15	4	-1	ESSAY	540	n/a	n/a	-1	n/a	n/a	n/a	n/a	n/a
853.646	n/a	REC_WORD	426823	wordpools/wasnorm_wordpool.txt	LTP081	ltpFR	15	4	-1	CACTUS	215	n/a	n/a	-1	n/a	n/a	n/a	n/a	n/a
856.43	n/a	REC_WORD	428215	wordpools/wasnorm_wordpool.txt	LTP081	ltpFR	15	4	n/a	DESERT	-1	n/a	n/a	n/a	n/a	n/a	n/a	n/a	n/a
859.444	n/a	REC_WORD	429722	wordpools/wasnorm_wordpool.txt	LTP081	ltpFR	15	4	-1	BUGGY	188	n/a	n/a	-1	n/a	n/a	n/a	n/a	n/a
863.016	n/a	REC_WORD	431508	wordpools/wasnorm_wordpool.txt	LTP081	ltpFR	15	4	-1	ORNAMENT	985	n/a	n/a	-1	n/a	n/a	n/a	n/a	n/a
872.086	n/a	REC_WORD	436043	wordpools/wasnorm_wordpool.txt	LTP081	ltpFR	15	4	-1	IDOL	733	n/a	n/a	-1	n/a	n/a	n/a	n/a	n/a
880.168	n/a	REC_WORD	440084	wordpools/wasnorm_wordpool.txt	LTP081	ltpFR	15	4	-1	TANGERINE	1431	n/a	n/a	-1	n/a	n/a	n/a	n/a	n/a
883.59	n/a	REC_WORD	441795	wordpools/wasnorm_wordpool.txt	LTP081	ltpFR	15	4	-1	WASHCLOTH	1591	n/a	n/a	-1	n/a	n/a	n/a	n/a	n/a
885.106	n/a	REC_WORD	442553	wordpools/wasnorm_wordpool.txt	LTP081	ltpFR	15	4	-1	CRAYON	401	n/a	n/a	-1	n/a	n/a	n/a	n/a	n/a
898.192	n/a	REC_WORD	449096	wordpools/wasnorm_wordpool.txt	LTP081	ltpFR	15	4	0	MEAT	883	n/a	n/a	0	n/a	n/a	n/a	n/a	n/a
930.874	n/a	WORD	465437	wordpools/wasnorm_wordpool.txt	LTP081	ltpFR	15	5	-1	BARN	89	n/a	n/a	-1	1.0	1.0	1	upper	Verdana.ttf
934.698	n/a	WORD	467349	wordpools/wasnorm_wordpool.txt	LTP081	ltpFR	15	5	-1	CREEK	404	n/a	n/a	-1	1.0	1.0	1	upper	Verdana.ttf
938.864	n/a	WORD	469432	wordpools/wasnorm_wordpool.txt	LTP081	ltpFR	15	5	-1	BOX	159	n/a	n/a	-1	1.0	1.0	1	upper	Verdana.ttf
942.906	n/a	WORD	471453	wordpools/wasnorm_wordpool.txt	LTP081	ltpFR	15	5	-1	STABLE	1363	n/a	n/a	-1	1.0	1.0	1	upper	Verdana.ttf
946.94	n/a	WORD	473470	wordpools/wasnorm_wordpool.txt	LTP081	ltpFR	15	5	-1	LINEN	825	n/a	n/a	-1	1.0	1.0	1	upper	Verdana.ttf
951.106	n/a	WORD	475553	wordpools/wasnorm_wordpool.txt	LTP081	ltpFR	15	5	-1	FOUNTAIN	597	n/a	n/a	-1	1.0	1.0	1	upper	Verdana.ttf
955.206	n/a	WORD	477603	wordpools/wasnorm_wordpool.txt	LTP081	ltpFR	15	5	-1	CLAMP	316	n/a	n/a	-1	1.0	1.0	1	upper	Verdana.ttf
959.114	n/a	WORD	479557	wordpools/wasnorm_wordpool.txt	LTP081	ltpFR	15	5	-1	GREASE	660	n/a	n/a	-1	1.0	1.0	1	upper	Verdana.ttf
963.154	n/a	WORD	481577	wordpools/wasnorm_wordpool.txt	LTP081	ltpFR	15	5	-1	PATIENT	1024	n/a	n/a	-1	1.0	1.0	1	upper	Verdana.ttf
967.006	n/a	WORD	483503	wordpools/wasnorm_wordpool.txt	LTP081	ltpFR	15	5	-1	PROFESSOR	1131	n/a	n/a	-1	1.0	1.0	1	upper	Verdana.ttf
971.088	n/a	WORD	485544	wordpools/wasnorm_wordpool.txt	LTP081	ltpFR	15	5	-1	INSTRUCTOR	741	n/a	n/a	-1	1.0	1.0	1	upper	Verdana.ttf
975.014	n/a	WORD	487507	wordpools/wasnorm_wordpool.txt	LTP081	ltpFR	15	5	-1	MONK	910	n/a	n/a	-1	1.0	1.0	1	upper	Verdana.ttf
978.854	n/a	WORD	489427	wordpools/wasnorm_wordpool.txt	LTP081	ltpFR	15	5	-1	TEMPLE	1448	n/a	n/a	-1	1.0	1.0	1	upper	Verdana.ttf
982.68	n/a	WORD	491340	wordpools/wasnorm_wordpool.txt	LTP081	ltpFR	15	5	-1	BALLOT	76	n/a	n/a	-1	1.0	1.0	1	upper	Verdana.ttf
986.538	n/a	WORD	493269	wordpools/wasnorm_wordpool.txt	LTP081	ltpFR	15	5	-1	SHED	1277	n/a	n/a	-1	1.0	1.0	1	upper	Verdana.ttf
990.496	n/a	WORD	495248	wordpools/wasnorm_wordpool.txt	LTP081	ltpFR	15	5	-1	VICTIM	1562	n/a	n/a	-1	1.0	1.0	1	upper	Verdana.ttf
996.404	n/a	REC_START	498202	n/a	LTP081	ltpFR	15	5	n/a	n/a	n/a	n/a	n/a	n/a	n/a	n/a	n/a	n/a	n/a
997.436	n/a	REC_WORD	498718	wordpools/wasnorm_wordpool.txt	LTP081	ltpFR	15	5	-1	VICTIM	1562	n/a	n/a	-1	n/a	n/a	n/a	n/a	n/a
998.474	n/a	REC_WORD	499237	wordpools/wasnorm_wordpool.txt	LTP081	ltpFR	15	5	-1	SHED	1277	n/a	n/a	-1	n/a	n/a	n/a	n/a	n/a
1000.466	n/a	REC_WORD	500233	wordpools/wasnorm_wordpool.txt	LTP081	ltpFR	15	5	-1	BARN	89	n/a	n/a	-1	n/a	n/a	n/a	n/a	n/a
1005.464	n/a	REC_WORD	502732	wordpools/wasnorm_wordpool.txt	LTP081	ltpFR	15	5	-1	STABLE	1363	n/a	n/a	-1	n/a	n/a	n/a	n/a	n/a
1007.49	n/a	REC_WORD	503745	wordpools/wasnorm_wordpool.txt	LTP081	ltpFR	15	5	n/a	FARM	552	n/a	n/a	n/a	n/a	n/a	n/a	n/a	n/a
1035.422	n/a	REC_WORD	517711	wordpools/wasnorm_wordpool.txt	LTP081	ltpFR	15	5	1	STAPLE	1371	n/a	n/a	0	n/a	n/a	n/a	n/a	n/a
1064.492	n/a	REC_WORD	532246	wordpools/wasnorm_wordpool.txt	LTP081	ltpFR	15	5	-1	GREASE	660	n/a	n/a	-1	n/a	n/a	n/a	n/a	n/a
1079.594	n/a	WORD	539797	wordpools/wasnorm_wordpool.txt	LTP081	ltpFR	15	6	1	TREE	1502	n/a	n/a	0	0.422607421875	0.5869140625	0	upper	zerothre.ttf
1083.594	n/a	WORD	541797	wordpools/wasnorm_wordpool.txt	LTP081	ltpFR	15	6	1	POLYESTER	1100	n/a	n/a	0	0.422607421875	0.5869140625	0	upper	zerothre.ttf
1087.476	n/a	WORD	543738	wordpools/wasnorm_wordpool.txt	LTP081	ltpFR	15	6	1	CITIZEN	312	n/a	n/a	1	0.422607421875	0.5869140625	0	upper	zerothre.ttf
1091.402	n/a	WORD	545701	wordpools/wasnorm_wordpool.txt	LTP081	ltpFR	15	6	1	VEIN	1554	n/a	n/a	0	0.422607421875	0.5869140625	0	upper	zerothre.ttf
1095.268	n/a	WORD	547634	wordpools/wasnorm_wordpool.txt	LTP081	ltpFR	15	6	1	WARDROBE	1587	n/a	n/a	0	0.422607421875	0.5869140625	0	upper	zerothre.ttf
1099.144	n/a	WORD	549572	wordpools/wasnorm_wordpool.txt	LTP081	ltpFR	15	6	1	SLACKS	1323	n/a	n/a	0	0.422607421875	0.5869140625	0	upper	zerothre.ttf
1103.134	n/a	WORD	551567	wordpools/wasnorm_wordpool.txt	LTP081	ltpFR	15	6	1	JUDGE	761	n/a	n/a	1	0.422607421875	0.5869140625	0	upper	zerothre.ttf
1107.152	n/a	WORD	553576	wordpools/wasnorm_wordpool.txt	LTP081	ltpFR	15	6	1	CRIMINAL	409	n/a	n/a	1	0.422607421875	0.5869140625	0	upper	zerothre.ttf
1111.126	n/a	WORD	555563	wordpools/wasnorm_wordpool.txt	LTP081	ltpFR	15	6	1	CIGARETTE	309	n/a	n/a	0	0.422607421875	0.5869140625	0	upper	zerothre.ttf
1115.268	n/a	WORD	557634	wordpools/wasnorm_wordpool.txt	LTP081	ltpFR	15	6	1	ASH	44	n/a	n/a	0	0.422607421875	0.5869140625	0	upper	zerothre.ttf
1119.416	n/a	WORD	559708	wordpools/wasnorm_wordpool.txt	LTP081	ltpFR	15	6	1	TONGUE	1479	n/a	n/a	0	0.422607421875	0.5869140625	0	upper	zerothre.ttf
1123.266	n/a	WORD	561633	wordpools/wasnorm_wordpool.txt	LTP081	ltpFR	15	6	1	JACKET	747	n/a	n/a	0	0.422607421875	0.5869140625	0	upper	zerothre.ttf
1127.45	n/a	WORD	563725	wordpools/wasnorm_wordpool.txt	LTP081	ltpFR	15	6	1	COLLAR	345	n/a	n/a	0	0.422607421875	0.5869140625	0	upper	zerothre.ttf
1131.342	n/a	WORD	565671	wordpools/wasnorm_wordpool.txt	LTP081	ltpFR	15	6	1	LAUNDRY	803	n/a	n/a	0	0.422607421875	0.5869140625	0	upper	zerothre.ttf
1135.416	n/a	WORD	567708	wordpools/wasnorm_wordpool.txt	LTP081	ltpFR	15	6	1	STOCKING	1383	n/a	n/a	0	0.422607421875	0.5869140625	0	upper	zerothre.ttf
1139.384	n/a	WORD	569692	wordpools/wasnorm_wordpool.txt	LTP081	ltpFR	15	6	1	WORM	1623	n/a	n/a	1	0.422607421875	0.5869140625	0	upper	zerothre.ttf
1145.416	n/a	REC_START	572708	n/a	LTP081	ltpFR	15	6	n/a	n/a	n/a	n/a	n/a	n/a	n/a	n/a	n/a	n/a	n/a
1146.51	n/a	REC_WORD	573255	wordpools/wasnorm_wordpool.txt	LTP081	ltpFR	15	6	1	JACKET	747	n/a	n/a	0	n/a	n/a	n/a	n/a	n/a
1147.418	n/a	REC_WORD	573709	wordpools/wasnorm_wordpool.txt	LTP081	ltpFR	15	6	1	COLLAR	345	n/a	n/a	0	n/a	n/a	n/a	n/a	n/a
1148.34	n/a	REC_WORD	574170	wordpools/wasnorm_wordpool.txt	LTP081	ltpFR	15	6	1	STOCKING	1383	n/a	n/a	0	n/a	n/a	n/a	n/a	n/a
1149.522	n/a	REC_WORD	574761	wordpools/wasnorm_wordpool.txt	LTP081	ltpFR	15	6	1	WORM	1623	n/a	n/a	1	n/a	n/a	n/a	n/a	n/a
1151.662	n/a	REC_WORD	575831	wordpools/wasnorm_wordpool.txt	LTP081	ltpFR	15	6	1	LAUNDRY	803	n/a	n/a	0	n/a	n/a	n/a	n/a	n/a
1159.162	n/a	REC_WORD	579581	wordpools/wasnorm_wordpool.txt	LTP081	ltpFR	15	6	1	TREE	1502	n/a	n/a	0	n/a	n/a	n/a	n/a	n/a
1160.284	n/a	REC_WORD	580142	wordpools/wasnorm_wordpool.txt	LTP081	ltpFR	15	6	1	POLYESTER	1100	n/a	n/a	0	n/a	n/a	n/a	n/a	n/a
1162.408	n/a	REC_WORD	581204	wordpools/wasnorm_wordpool.txt	LTP081	ltpFR	15	6	1	SLACKS	1323	n/a	n/a	0	n/a	n/a	n/a	n/a	n/a
1164.38	n/a	REC_WORD	582190	wordpools/wasnorm_wordpool.txt	LTP081	ltpFR	15	6	1	WARDROBE	1587	n/a	n/a	0	n/a	n/a	n/a	n/a	n/a
1167.612	n/a	REC_WORD	583806	wordpools/wasnorm_wordpool.txt	LTP081	ltpFR	15	6	1	VEIN	1554	n/a	n/a	0	n/a	n/a	n/a	n/a	n/a
1192.912	n/a	REC_WORD	596456	wordpools/wasnorm_wordpool.txt	LTP081	ltpFR	15	6	1	CRIMINAL	409	n/a	n/a	1	n/a	n/a	n/a	n/a	n/a
1194.588	n/a	REC_WORD	597294	wordpools/wasnorm_wordpool.txt	LTP081	ltpFR	15	6	1	CIGARETTE	309	n/a	n/a	0	n/a	n/a	n/a	n/a	n/a
1195.696	n/a	REC_WORD	597848	wordpools/wasnorm_wordpool.txt	LTP081	ltpFR	15	6	1	ASH	44	n/a	n/a	0	n/a	n/a	n/a	n/a	n/a
1198.504	n/a	REC_WORD	599252	wordpools/wasnorm_wordpool.txt	LTP081	ltpFR	15	6	1	JUDGE	761	n/a	n/a	1	n/a	n/a	n/a	n/a	n/a
1227.8	n/a	WORD	613900	wordpools/wasnorm_wordpool.txt	LTP081	ltpFR	15	7	1	YARN	1631	n/a	n/a	0	0.422607421875	0.5869140625	0	upper	zerothre.ttf
1231.674	n/a	WORD	615837	wordpools/wasnorm_wordpool.txt	LTP081	ltpFR	15	7	1	THREAD	1460	n/a	n/a	0	0.422607421875	0.5869140625	0	upper	zerothre.ttf
1235.59	n/a	WORD	617795	wordpools/wasnorm_wordpool.txt	LTP081	ltpFR	15	7	1	SALMON	1227	n/a	n/a	1	0.422607421875	0.5869140625	0	upper	zerothre.ttf
1239.59	n/a	WORD	619795	wordpools/wasnorm_wordpool.txt	LTP081	ltpFR	15	7	1	WATER	1594	n/a	n/a	0	0.422607421875	0.5869140625	0	upper	zerothre.ttf
1243.556	n/a	WORD	621778	wordpools/wasnorm_wordpool.txt	LTP081	ltpFR	15	7	1	GLOVE	642	n/a	n/a	0	0.422607421875	0.5869140625	0	upper	zerothre.ttf
1247.456	n/a	WORD	623728	wordpools/wasnorm_wordpool.txt	LTP081	ltpFR	15	7	1	POOL	1103	n/a	n/a	0	0.422607421875	0.5869140625	0	upper	zerothre.ttf
1251.632	n/a	WORD	625816	wordpools/wasnorm_wordpool.txt	LTP081	ltpFR	15	7	1	RAFT	1159	n/a	n/a	0	0.422607421875	0.5869140625	0	upper	zerothre.ttf
1255.538	n/a	WORD	627769	wordpools/wasnorm_wordpool.txt	LTP081	ltpFR	15	7	1	PLANE	1081	n/a	n/a	0	0.422607421875	0.5869140625	0	upper	zerothre.ttf
1259.496	n/a	WORD	629748	wordpools/wasnorm_wordpool.txt	LTP081	ltpFR	15	7	1	AUTHOR	61	n/a	n/a	1	0.422607421875	0.5869140625	0	upper	zerothre.ttf
1263.53	n/a	WORD	631765	wordpools/wasnorm_wordpool.txt	LTP081	ltpFR	15	7	1	FILM	565	n/a	n/a	0	0.422607421875	0.5869140625	0	upper	zerothre.ttf
1267.472	n/a	WORD	633736	wordpools/wasnorm_wordpool.txt	LTP081	ltpFR	15	7	1	VET	1560	n/a	n/a	1	0.422607421875	0.5869140625	0	upper	zerothre.ttf
1271.514	n/a	WORD	635757	wordpools/wasnorm_wordpool.txt	LTP081	ltpFR	15	7	1	SAW	1239	n/a	n/a	0	0.422607421875	0.5869140625	0	upper	zerothre.ttf
1275.346	n/a	WORD	637673	wordpools/wasnorm_wordpool.txt	LTP081	ltpFR	15	7	1	FIST	572	n/a	n/a	0	0.422607421875	0.5869140625	0	upper	zerothre.ttf
1279.188	n/a	WORD	639594	wordpools/wasnorm_wordpool.txt	LTP081	ltpFR	15	7	1	PRODUCER	1129	n/a	n/a	1	0.422607421875	0.5869140625	0	upper	zerothre.ttf
1283.222	n/a	WORD	641611	wordpools/wasnorm_wordpool.txt	LTP081	ltpFR	15	7	1	KING	777	n/a	n/a	1	0.422607421875	0.5869140625	0	upper	zerothre.ttf
1287.256	n/a	WORD	643628	wordpools/wasnorm_wordpool.txt	LTP081	ltpFR	15	7	1	TOENAIL	1474	n/a	n/a	0	0.422607421875	0.5869140625	0	upper	zerothre.ttf
1292.972	n/a	REC_START	646486	n/a	LTP081	ltpFR	15	7	n/a	n/a	n/a	n/a	n/a	n/a	n/a	n/a	n/a	n/a	n/a
1293.97	n/a	REC_WORD	646985	wordpools/wasnorm_wordpool.txt	LTP081	ltpFR	15	7	1	TOENAIL	1474	n/a	n/a	0	n/a	n/a	n/a	n/a	n/a
1295.222	n/a	REC_WORD	647611	wordpools/wasnorm_wordpool.txt	LTP081	ltpFR	15	7	1	VET	1560	n/a	n/a	1	n/a	n/a	n/a	n/a	n/a
1296.264	n/a	REC_WORD	648132	wordpools/wasnorm_wordpool.txt	LTP081	ltpFR	15	7	1	SAW	1239	n/a	n/a	0	n/a	n/a	n/a	n/a	n/a
1305.942	n/a	REC_WORD	652971	wordpools/wasnorm_wordpool.txt	LTP081	ltpFR	15	7	n/a	NAIL	936	n/a	n/a	n/a	n/a	n/a	n/a	n/a	n/a
1339.568	n/a	REC_WORD	669784	wordpools/wasnorm_wordpool.txt	LTP081	ltpFR	15	7	1	PLANE	1081	n/a	n/a	0	n/a	n/a	n/a	n/a	n/a
1348.48	n/a	REC_WORD	674240	wordpools/wasnorm_wordpool.txt	LTP081	ltpFR	15	7	1	GLOVE	642	n/a	n/a	0	n/a	n/a	n/a	n/a	n/a
1388.02	n/a	WORD	694010	wordpools/wasnorm_wordpool.txt	LTP081	ltpFR	15	8	0	SWATTER	1418	n/a	n/a	0	0.57763671875	0.412841796875	1	lower	amplitud.ttf
1392.178	n/a	WORD	696089	wordpools/wasnorm_wordpool.txt	LTP081	ltpFR	15	8	0	TERMINAL	1450	n/a	n/a	1	0.57763671875	0.412841796875	1	lower	amplitud.ttf
1396.17	n/a	WORD	698085	wordpools/wasnorm_wordpool.txt	LTP081	ltpFR	15	8	0	CREVICE	405	n/a	n/a	0	0.57763671875	0.412841796875	1	lower	amplitud.ttf
1400.17	n/a	WORD	700085	wordpools/wasnorm_wordpool.txt	LTP081	ltpFR	15	8	1	RAZOR	1171	n/a	n/a	0	0.422607421875	0.5869140625	0	upper	zerothre.ttf
1404.094	n/a	WORD	702047	wordpools/wasnorm_wordpool.txt	LTP081	ltpFR	15	8	1	TRUMPET	1513	n/a	n/a	0	0.422607421875	0.5869140625	0	upper	zerothre.ttf
1408.262	n/a	WORD	704131	wordpools/wasnorm_wordpool.txt	LTP081	ltpFR	15	8	1	SAUSAGE	1238	n/a	n/a	0	0.422607421875	0.5869140625	0	upper	zerothre.ttf
1412.36	n/a	WORD	706180	wordpools/wasnorm_wordpool.txt	LTP081	ltpFR	15	8	1	SOFTBALL	1343	n/a	n/a	0	0.422607421875	0.5869140625	0	upper	zerothre.ttf
1416.244	n/a	WORD	708122	wordpools/wasnorm_wordpool.txt	LTP081	ltpFR	15	8	0	CATCHER	258	n/a	n/a	1	0.57763671875	0.412841796875	1	lower	amplitud.ttf
1420.218	n/a	WORD	710109	wordpools/wasnorm_wordpool.txt	LTP081	ltpFR	15	8	0	PLATE	1086	n/a	n/a	0	0.57763671875	0.412841796875	1	lower	amplitud.ttf
1424.176	n/a	WORD	712088	wordpools/wasnorm_wordpool.txt	LTP081	ltpFR	15	8	0	GANG	619	n/a	n/a	1	0.57763671875	0.412841796875	1	lower	amplitud.ttf
1428.086	n/a	WORD	714043	wordpools/wasnorm_wordpool.txt	LTP081	ltpFR	15	8	0	BLOUSE	139	n/a	n/a	0	0.57763671875	0.412841796875	1	lower	amplitud.ttf
1431.986	n/a	WORD	715993	wordpools/wasnorm_wordpool.txt	LTP081	ltpFR	15	8	0	BABY	64	n/a	n/a	1	0.57763671875	0.412841796875	1	lower	amplitud.ttf
1436.186	n/a	WORD	718093	wordpools/wasnorm_wordpool.txt	LTP081	ltpFR	15	8	1	ADULT	8	n/a	n/a	1	0.422607421875	0.5869140625	0	upper	zerothre.ttf
1440.226	n/a	WORD	720113	wordpools/wasnorm_wordpool.txt	LTP081	ltpFR	15	8	1	DAGGER	434	n/a	n/a	0	0.422607421875	0.5869140625	0	upper	zerothre.ttf
1444.226	n/a	WORD	722113	wordpools/wasnorm_wordpool.txt	LTP081	ltpFR	15	8	1	MULE	931	n/a	n/a	1	0.422607421875	0.5869140625	0	upper	zerothre.ttf
1448.342	n/a	WORD	724171	wordpools/wasnorm_wordpool.txt	LTP081	ltpFR	15	8	1	PIG	1064	n/a	n/a	1	0.422607421875	0.5869140625	0	upper	zerothre.ttf
1453.968	n/a	REC_START	726984	n/a	LTP081	ltpFR	15	8	n/a	n/a	n/a	n/a	n/a	n/a	n/a	n/a	n/a	n/a	n/a
1454.936	n/a	REC_WORD	727468	wordpools/wasnorm_wordpool.txt	LTP081	ltpFR	15	8	1	PIG	1064	n/a	n/a	1	n/a	n/a	n/a	n/a	n/a
1455.86	n/a	REC_WORD	727930	wordpools/wasnorm_wordpool.txt	LTP081	ltpFR	15	8	1	MULE	931	n/a	n/a	1	n/a	n/a	n/a	n/a	n/a
1457.046	n/a	REC_WORD	728523	wordpools/wasnorm_wordpool.txt	LTP081	ltpFR	15	8	0	BABY	64	n/a	n/a	1	n/a	n/a	n/a	n/a	n/a
1458.808	n/a	REC_WORD	729404	wordpools/wasnorm_wordpool.txt	LTP081	ltpFR	15	8	-1	BOX	159	n/a	n/a	-1	n/a	n/a	n/a	n/a	n/a
1461.6	n/a	REC_WORD	730800	wordpools/wasnorm_wordpool.txt	LTP081	ltpFR	15	8	1	DAGGER	434	n/a	n/a	0	n/a	n/a	n/a	n/a	n/a
1468.302	n/a	REC_WORD	734151	wordpools/wasnorm_wordpool.txt	LTP081	ltpFR	15	8	0	CREVICE	405	n/a	n/a	0	n/a	n/a	n/a	n/a	n/a
1473.166	n/a	REC_WORD	736583	wordpools/wasnorm_wordpool.txt	LTP081	ltpFR	15	8	n/a	BUG	187	n/a	n/a	n/a	n/a	n/a	n/a	n/a	n/a
1476.932	n/a	REC_WORD	738466	wordpools/wasnorm_wordpool.txt	LTP081	ltpFR	15	8	0	TERMINAL	1450	n/a	n/a	1	n/a	n/a	n/a	n/a	n/a
1479.886	n/a	REC_WORD	739943	wordpools/wasnorm_wordpool.txt	LTP081	ltpFR	15	8	0	GANG	619	n/a	n/a	1	n/a	n/a	n/a	n/a	n/a
1486.94	n/a	REC_WORD	743470	wordpools/wasnorm_wordpool.txt	LTP081	ltpFR	15	8	n/a	WOLF	1619	n/a	n/a	n/a	n/a	n/a	n/a	n/a	n/a
1501.552	n/a	REC_WORD	750776	wordpools/wasnorm_wordpool.txt	LTP081	ltpFR	15	8	1	THREAD	1460	n/a	n/a	0	n/a	n/a	n/a	n/a	n/a
1518.2	n/a	REC_WORD	759100	wordpools/wasnorm_wordpool.txt	LTP081	ltpFR	15	8	1	YARN	1631	n/a	n/a	0	n/a	n/a	n/a	n/a	n/a
1543.966	n/a	WORD	771983	wordpools/wasnorm_wordpool.txt	LTP081	ltpFR	15	9	1	AUDIENCE	59	n/a	n/a	1	0.422607421875	0.5869140625	0	upper	zerothre.ttf
1548.066	n/a	WORD	774033	wordpools/wasnorm_wordpool.txt	LTP081	ltpFR	15	9	1	COOKBOOK	373	n/a	n/a	0	0.422607421875	0.5869140625	0	upper	zerothre.ttf
1551.974	n/a	WORD	775987	wordpools/wasnorm_wordpool.txt	LTP081	ltpFR	15	9	0	SIBLING	1301	n/a	n/a	0	0.57763671875	0.412841796875	1	lower	amplitud.ttf
1556.066	n/a	WORD	778033	wordpools/wasnorm_wordpool.txt	LTP081	ltpFR	15	9	0	BROTHER	179	n/a	n/a	1	0.57763671875	0.412841796875	1	lower	amplitud.ttf
1559.924	n/a	WORD	779962	wordpools/wasnorm_wordpool.txt	LTP081	ltpFR	15	9	0	TANK	1432	n/a	n/a	1	0.57763671875	0.412841796875	1	lower	amplitud.ttf
1564.064	n/a	WORD	782032	wordpools/wasnorm_wordpool.txt	LTP081	ltpFR	15	9	0	FIN	566	n/a	n/a	0	0.57763671875	0.412841796875	1	lower	amplitud.ttf
1568.166	n/a	WORD	784083	wordpools/wasnorm_wordpool.txt	LTP081	ltpFR	15	9	1	PIT	1077	n/a	n/a	3	0.422607421875	0.5869140625	0	upper	zerothre.ttf
1569.758	n/a	KEY_MSG	784879	n/a	LTP081	ltpFR	15	9	n/a	n/a	n/a	n/a	n/a	n/a	n/a	n/a	n/a	n/a	n/a
1572.464	n/a	WORD	786232	wordpools/wasnorm_wordpool.txt	LTP081	ltpFR	15	9	1	CITRUS	313	n/a	n/a	0	0.422607421875	0.5869140625	0	upper	zerothre.ttf
1576.606	n/a	WORD	788303	wordpools/wasnorm_wordpool.txt	LTP081	ltpFR	15	9	1	WILDERNESS	1610	n/a	n/a	0	0.422607421875	0.5869140625	0	upper	zerothre.ttf
1580.682	n/a	WORD	790341	wordpools/wasnorm_wordpool.txt	LTP081	ltpFR	15	9	1	SOCIETY	1338	n/a	n/a	0	0.422607421875	0.5869140625	0	upper	zerothre.ttf
1584.864	n/a	WORD	792432	wordpools/wasnorm_wordpool.txt	LTP081	ltpFR	15	9	1	ZUCCHINI	1638	n/a	n/a	0	0.422607421875	0.5869140625	0	upper	zerothre.ttf
1588.816	n/a	WORD	794408	wordpools/wasnorm_wordpool.txt	LTP081	ltpFR	15	9	1	WAITRESS	1581	n/a	n/a	1	0.422607421875	0.5869140625	0	upper	zerothre.ttf
1592.656	n/a	WORD	796328	wordpools/wasnorm_wordpool.txt	LTP081	ltpFR	15	9	0	GIRAFFE	636	n/a	n/a	1	0.57763671875	0.412841796875	1	lower	amplitud.ttf
1596.732	n/a	WORD	798366	wordpools/wasnorm_wordpool.txt	LTP081	ltpFR	15	9	0	CRATER	400	n/a	n/a	1	0.57763671875	0.412841796875	1	lower	amplitud.ttf
1600.79	n/a	WORD	800395	wordpools/wasnorm_wordpool.txt	LTP081	ltpFR	15	9	0	SALAD	1224	n/a	n/a	0	0.57763671875	0.412841796875	1	lower	amplitud.ttf
1604.622	n/a	WORD	802311	wordpools/wasnorm_wordpool.txt	LTP081	ltpFR	15	9	0	SEED	1266	n/a	n/a	0	0.57763671875	0.412841796875	1	lower	amplitud.ttf
1610.572	n/a	REC_START	805286	n/a	LTP081	ltpFR	15	9	n/a	n/a	n/a	n/a	n/a	n/a	n/a	n/a	n/a	n/a	n/a
1611.774	n/a	REC_WORD	805887	wordpools/wasnorm_wordpool.txt	LTP081	ltpFR	15	9	1	ZUCCHINI	1638	n/a	n/a	0	n/a	n/a	n/a	n/a	n/a
1613.236	n/a	REC_WORD	806618	wordpools/wasnorm_wordpool.txt	LTP081	ltpFR	15	9	1	WAITRESS	1581	n/a	n/a	1	n/a	n/a	n/a	n/a	n/a
1614.258	n/a	REC_WORD	807129	wordpools/wasnorm_wordpool.txt	LTP081	ltpFR	15	9	0	SALAD	1224	n/a	n/a	0	n/a	n/a	n/a	n/a	n/a
1617.856	n/a	REC_WORD	808928	wordpools/wasnorm_wordpool.txt	LTP081	ltpFR	15	9	0	TANK	1432	n/a	n/a	1	n/a	n/a	n/a	n/a	n/a
1619.162	n/a	REC_WORD	809581	wordpools/wasnorm_wordpool.txt	LTP081	ltpFR	15	9	0	FIN	566	n/a	n/a	0	n/a	n/a	n/a	n/a	n/a
1622.12	n/a	REC_WORD	811060	wordpools/wasnorm_wordpool.txt	LTP081	ltpFR	15	9	0	SWATTER	1418	n/a	n/a	0	n/a	n/a	n/a	n/a	n/a
1634.37	n/a	REC_WORD	817185	wordpools/wasnorm_wordpool.txt	LTP081	ltpFR	15	9	1	PIT	1077	n/a	n/a	3	n/a	n/a	n/a	n/a	n/a
1638.06	n/a	REC_WORD	819030	wordpools/wasnorm_wordpool.txt	LTP081	ltpFR	15	9	1	WILDERNESS	1610	n/a	n/a	0	n/a	n/a	n/a	n/a	n/a
1652.08	n/a	REC_WORD	826040	wordpools/wasnorm_wordpool.txt	LTP081	ltpFR	15	9	0	SEED	1266	n/a	n/a	0	n/a	n/a	n/a	n/a	n/a
1656.012	n/a	REC_WORD	828006	wordpools/wasnorm_wordpool.txt	LTP081	ltpFR	15	9	1	LAUNDRY	803	n/a	n/a	0	n/a	n/a	n/a	n/a	n/a
1668.008	n/a	REC_WORD	834004	wordpools/wasnorm_wordpool.txt	LTP081	ltpFR	15	9	0	CREVICE	405	n/a	n/a	0	n/a	n/a	n/a	n/a	n/a
1708.436	n/a	WORD	854218	wordpools/wasnorm_wordpool.txt	LTP081	ltpFR	15	10	1	REPTILE	1185	n/a	n/a	1	0.422607421875	0.5869140625	0	upper	zerothre.ttf
1712.544	n/a	WORD	856272	wordpools/wasnorm_wordpool.txt	LTP081	ltpFR	15	10	1	FUGITIVE	612	n/a	n/a	1	0.422607421875	0.5869140625	0	upper	zerothre.ttf
1716.712	n/a	WORD	858356	wordpools/wasnorm_wordpool.txt	LTP081	ltpFR	15	10	1	CUSTOMER	430	n/a	n/a	1	0.422607421875	0.5869140625	0	upper	zerothre.ttf
1720.92	n/a	WORD	860460	wordpools/wasnorm_wordpool.txt	LTP081	ltpFR	15	10	0	EGYPT	519	n/a	n/a	1	0.57763671875	0.412841796875	1	lower	amplitud.ttf
1724.944	n/a	WORD	862472	wordpools/wasnorm_wordpool.txt	LTP081	ltpFR	15	10	0	TRIANGLE	1504	n/a	n/a	0	0.57763671875	0.412841796875	1	lower	amplitud.ttf
1728.794	n/a	WORD	864397	wordpools/wasnorm_wordpool.txt	LTP081	ltpFR	15	10	0	BOULDER	155	n/a	n/a	1	0.57763671875	0.412841796875	1	lower	amplitud.ttf
1732.936	n/a	WORD	866468	wordpools/wasnorm_wordpool.txt	LTP081	ltpFR	15	10	1	RECEPTIONIST	1174	n/a	n/a	1	0.422607421875	0.5869140625	0	upper	zerothre.ttf
1736.994	n/a	WORD	868497	wordpools/wasnorm_wordpool.txt	LTP081	ltpFR	15	10	1	MONGOOSE	909	n/a	n/a	1	0.422607421875	0.5869140625	0	upper	zerothre.ttf
1741.094	n/a	WORD	870547	wordpools/wasnorm_wordpool.txt	LTP081	ltpFR	15	10	1	FARMER	553	n/a	n/a	1	0.422607421875	0.5869140625	0	upper	zerothre.ttf
1745.26	n/a	WORD	872630	wordpools/wasnorm_wordpool.txt	LTP081	ltpFR	15	10	0	BANANA	77	n/a	n/a	0	0.57763671875	0.412841796875	1	lower	amplitud.ttf
1749.086	n/a	WORD	874543	wordpools/wasnorm_wordpool.txt	LTP081	ltpFR	15	10	0	VINE	1568	n/a	n/a	0	0.57763671875	0.412841796875	1	lower	amplitud.ttf
1753.252	n/a	WORD	876626	wordpools/wasnorm_wordpool.txt	LTP081	ltpFR	15	10	0	HAM	678	n/a	n/a	0	0.57763671875	0.412841796875	1	lower	amplitud.ttf
1757.118	n/a	WORD	878559	wordpools/wasnorm_wordpool.txt	LTP081	ltpFR	15	10	0	THIEF	1456	n/a	n/a	1	0.57763671875	0.412841796875	1	lower	amplitud.ttf
1761.252	n/a	WORD	880626	wordpools/wasnorm_wordpool.txt	LTP081	ltpFR	15	10	0	CHILD	299	n/a	n/a	1	0.57763671875	0.412841796875	1	lower	amplitud.ttf
1765.392	n/a	WORD	882696	wordpools/wasnorm_wordpool.txt	LTP081	ltpFR	15	10	1	CONTAINER	366	n/a	n/a	0	0.422607421875	0.5869140625	0	upper	zerothre.ttf
1769.226	n/a	WORD	884613	wordpools/wasnorm_wordpool.txt	LTP081	ltpFR	15	10	1	SERVER	1272	n/a	n/a	1	0.422607421875	0.5869140625	0	upper	zerothre.ttf
1775.186	n/a	REC_START	887593	n/a	LTP081	ltpFR	15	10	n/a	n/a	n/a	n/a	n/a	n/a	n/a	n/a	n/a	n/a	n/a
1775.898	n/a	REC_WORD	887949	wordpools/wasnorm_wordpool.txt	LTP081	ltpFR	15	10	1	SERVER	1272	n/a	n/a	1	n/a	n/a	n/a	n/a	n/a
1777.012	n/a	REC_WORD	888506	wordpools/wasnorm_wordpool.txt	LTP081	ltpFR	15	10	0	CHILD	299	n/a	n/a	1	n/a	n/a	n/a	n/a	n/a
1782.618	n/a	REC_WORD	891309	wordpools/wasnorm_wordpool.txt	LTP081	ltpFR	15	10	0	BROTHER	179	n/a	n/a	1	n/a	n/a	n/a	n/a	n/a
1784.844	n/a	REC_WORD	892422	wordpools/wasnorm_wordpool.txt	LTP081	ltpFR	15	10	0	SIBLING	1301	n/a	n/a	0	n/a	n/a	n/a	n/a	n/a
1789.872	n/a	REC_WORD	894936	wordpools/wasnorm_wordpool.txt	LTP081	ltpFR	15	10	0	HAM	678	n/a	n/a	0	n/a	n/a	n/a	n/a	n/a
1800.774	n/a	REC_WORD	900387	wordpools/wasnorm_wordpool.txt	LTP081	ltpFR	15	10	1	RECEPTIONIST	1174	n/a	n/a	1	n/a	n/a	n/a	n/a	n/a
1803.318	n/a	REC_WORD	901659	wordpools/wasnorm_wordpool.txt	LTP081	ltpFR	15	10	1	MONGOOSE	909	n/a	n/a	1	n/a	n/a	n/a	n/a	n/a
1806.022	n/a	REC_WORD	903011	wordpools/wasnorm_wordpool.txt	LTP081	ltpFR	15	10	n/a	CLARINET	317	n/a	n/a	n/a	n/a	n/a	n/a	n/a	n/a
1814.264	n/a	REC_WORD	907132	wordpools/wasnorm_wordpool.txt	LTP081	ltpFR	15	10	1	FARMER	553	n/a	n/a	1	n/a	n/a	n/a	n/a	n/a
1815.97	n/a	REC_WORD	907985	wordpools/wasnorm_wordpool.txt	LTP081	ltpFR	15	10	-1	BARN	89	n/a	n/a	-1	n/a	n/a	n/a	n/a	n/a
1821.602	n/a	REC_WORD	910801	wordpools/wasnorm_wordpool.txt	LTP081	ltpFR	15	10	0	SWATTER	1418	n/a	n/a	0	n/a	n/a	n/a	n/a	n/a
1831.81	n/a	REC_WORD	915905	wordpools/wasnorm_wordpool.txt	LTP081	ltpFR	15	10	0	THIEF	1456	n/a	n/a	1	n/a	n/a	n/a	n/a	n/a
1835.058	n/a	REC_WORD	917529	wordpools/wasnorm_wordpool.txt	LTP081	ltpFR	15	10	n/a	FINE	-1	n/a	n/a	n/a	n/a	n/a	n/a	n/a	n/a
1837.252	n/a	REC_WORD	918626	wordpools/wasnorm_wordpool.txt	LTP081	ltpFR	15	10	n/a	GRAPE	654	n/a	n/a	n/a	n/a	n/a	n/a	n/a	n/a
1841.748	n/a	REC_WORD	920874	wordpools/wasnorm_wordpool.txt	LTP081	ltpFR	15	10	n/a	PYRAMID	-1	n/a	n/a	n/a	n/a	n/a	n/a	n/a	n/a
1844.874	n/a	REC_WORD	922437	wordpools/wasnorm_wordpool.txt	LTP081	ltpFR	15	10	0	EGYPT	519	n/a	n/a	1	n/a	n/a	n/a	n/a	n/a
1846.442	n/a	REC_WORD	923221	wordpools/wasnorm_wordpool.txt	LTP081	ltpFR	15	10	0	TRIANGLE	1504	n/a	n/a	0	n/a	n/a	n/a	n/a	n/a
1847.968	n/a	REC_WORD	923984	wordpools/wasnorm_wordpool.txt	LTP081	ltpFR	15	10	0	BOULDER	155	n/a	n/a	1	n/a	n/a	n/a	n/a	n/a
1868.766	n/a	WORD	934383	wordpools/wasnorm_wordpool.txt	LTP081	ltpFR	15	11	0	COUGAR	387	n/a	n/a	1	0.57763671875	0.412841796875	1	lower	amplitud.ttf
1872.65	n/a	WORD	936325	wordpools/wasnorm_wordpool.txt	LTP081	ltpFR	15	11	0	PARENT	1013	n/a	n/a	1	0.57763671875	0.412841796875	1	lower	amplitud.ttf
1876.582	n/a	WORD	938291	wordpools/wasnorm_wordpool.txt	LTP081	ltpFR	15	11	1	JUVENILE	767	n/a	n/a	1	0.422607421875	0.5869140625	0	upper	zerothre.ttf
1880.674	n/a	WORD	940337	wordpools/wasnorm_wordpool.txt	LTP081	ltpFR	15	11	1	UTENSIL	1542	n/a	n/a	0	0.422607421875	0.5869140625	0	upper	zerothre.ttf
1884.666	n/a	WORD	942333	wordpools/wasnorm_wordpool.txt	LTP081	ltpFR	15	11	1	BLUEJAY	141	n/a	n/a	1	0.422607421875	0.5869140625	0	upper	zerothre.ttf
1888.682	n/a	WORD	944341	wordpools/wasnorm_wordpool.txt	LTP081	ltpFR	15	11	1	CYLINDER	432	n/a	n/a	0	0.422607421875	0.5869140625	0	upper	zerothre.ttf
1892.882	n/a	WORD	946441	wordpools/wasnorm_wordpool.txt	LTP081	ltpFR	15	11	0	PAD	998	n/a	n/a	0	0.57763671875	0.412841796875	1	lower	amplitud.ttf
1896.89	n/a	WORD	948445	wordpools/wasnorm_wordpool.txt	LTP081	ltpFR	15	11	0	SHEET	1279	n/a	n/a	1	0.57763671875	0.412841796875	1	lower	amplitud.ttf
1900.94	n/a	WORD	950470	wordpools/wasnorm_wordpool.txt	LTP081	ltpFR	15	11	0	GARAGE	621	n/a	n/a	1	0.57763671875	0.412841796875	1	lower	amplitud.ttf
1904.806	n/a	WORD	952403	wordpools/wasnorm_wordpool.txt	LTP081	ltpFR	15	11	1	TOOL	1480	n/a	n/a	0	0.422607421875	0.5869140625	0	upper	zerothre.ttf
1908.99	n/a	WORD	954495	wordpools/wasnorm_wordpool.txt	LTP081	ltpFR	15	11	1	BANDANNA	80	n/a	n/a	0	0.422607421875	0.5869140625	0	upper	zerothre.ttf
1912.916	n/a	WORD	956458	wordpools/wasnorm_wordpool.txt	LTP081	ltpFR	15	11	1	PARROT	1015	n/a	n/a	1	0.422607421875	0.5869140625	0	upper	zerothre.ttf
1916.932	n/a	WORD	958466	wordpools/wasnorm_wordpool.txt	LTP081	ltpFR	15	11	1	PECAN	1036	n/a	n/a	1	0.422607421875	0.5869140625	0	upper	zerothre.ttf
1921.04	n/a	WORD	960520	wordpools/wasnorm_wordpool.txt	LTP081	ltpFR	15	11	0	TOMBSTONE	1478	n/a	n/a	1	0.57763671875	0.412841796875	1	lower	amplitud.ttf
1925.08	n/a	WORD	962540	wordpools/wasnorm_wordpool.txt	LTP081	ltpFR	15	11	0	POCKETBOOK	1094	n/a	n/a	1	0.57763671875	0.412841796875	1	lower	amplitud.ttf
1928.948	n/a	WORD	964474	wordpools/wasnorm_wordpool.txt	LTP081	ltpFR	15	11	0	CAPITAL	238	n/a	n/a	1	0.57763671875	0.412841796875	1	lower	amplitud.ttf
1934.774	n/a	REC_START	967387	n/a	LTP081	ltpFR	15	11	n/a	n/a	n/a	n/a	n/a	n/a	n/a	n/a	n/a	n/a	n/a
1935.406	n/a	REC_WORD	967703	wordpools/wasnorm_wordpool.txt	LTP081	ltpFR	15	11	0	CAPITAL	238	n/a	n/a	1	n/a	n/a	n/a	n/a	n/a
1936.57	n/a	REC_WORD	968285	wordpools/wasnorm_wordpool.txt	LTP081	ltpFR	15	11	0	TOMBSTONE	1478	n/a	n/a	1	n/a	n/a	n/a	n/a	n/a
1937.952	n/a	REC_WORD	968976	wordpools/wasnorm_wordpool.txt	LTP081	ltpFR	15	11	0	POCKETBOOK	1094	n/a	n/a	1	n/a	n/a	n/a	n/a	n/a
1939.956	n/a	REC_WORD	969978	wordpools/wasnorm_wordpool.txt	LTP081	ltpFR	15	11	1	PECAN	1036	n/a	n/a	1	n/a	n/a	n/a	n/a	n/a
1942.012	n/a	REC_WORD	971006	wordpools/wasnorm_wordpool.txt	LTP081	ltpFR	15	11	1	BLUEJAY	141	n/a	n/a	1	n/a	n/a	n/a	n/a	n/a
1945.694	n/a	REC_WORD	972847	wordpools/wasnorm_wordpool.txt	LTP081	ltpFR	15	11	1	CANARY	227	n/a	n/a	1	n/a	n/a	n/a	n/a	n/a
1958.536	n/a	REC_WORD	979268	wordpools/wasnorm_wordpool.txt	LTP081	ltpFR	15	11	1	TOOL	1480	n/a	n/a	0	n/a	n/a	n/a	n/a	n/a
1965.14	n/a	REC_WORD	982570	wordpools/wasnorm_wordpool.txt	LTP081	ltpFR	15	11	0	COUGAR	387	n/a	n/a	1	n/a	n/a	n/a	n/a	n/a
1966.852	n/a	REC_WORD	983426	wordpools/wasnorm_wordpool.txt	LTP081	ltpFR	15	11	0	PARENT	1013	n/a	n/a	1	n/a	n/a	n/a	n/a	n/a
1968.294	n/a	REC_WORD	984147	wordpools/wasnorm_wordpool.txt	LTP081	ltpFR	15	11	1	JUVENILE	767	n/a	n/a	1	n/a	n/a	n/a	n/a	n/a
1970.868	n/a	REC_WORD	985434	wordpools/wasnorm_wordpool.txt	LTP081	ltpFR	15	11	1	UTENSIL	1542	n/a	n/a	0	n/a	n/a	n/a	n/a	n/a
1985.496	n/a	REC_WORD	992748	wordpools/wasnorm_wordpool.txt	LTP081	ltpFR	15	11	1	THREAD	1460	n/a	n/a	0	n/a	n/a	n/a	n/a	n/a
2023.02	n/a	WORD	1011510	wordpools/wasnorm_wordpool.txt	LTP081	ltpFR	15	12	0	LILY	821	n/a	n/a	0	0.57763671875	0.412841796875	1	lower	amplitud.ttf
2026.87	n/a	WORD	1013435	wordpools/wasnorm_wordpool.txt	LTP081	ltpFR	15	12	0	SURVEY	1414	n/a	n/a	1	0.57763671875	0.412841796875	1	lower	amplitud.ttf
2030.862	n/a	WORD	1015431	wordpools/wasnorm_wordpool.txt	LTP081	ltpFR	15	12	0	PACKAGE	997	n/a	n/a	1	0.57763671875	0.412841796875	1	lower	amplitud.ttf
2035.012	n/a	WORD	1017506	wordpools/wasnorm_wordpool.txt	LTP081	ltpFR	15	12	0	GIFT	635	n/a	n/a	1	0.57763671875	0.412841796875	1	lower	amplitud.ttf
2038.936	n/a	WORD	1019468	wordpools/wasnorm_wordpool.txt	LTP081	ltpFR	15	12	0	GARDEN	623	n/a	n/a	1	0.57763671875	0.412841796875	1	lower	amplitud.ttf
2042.836	n/a	WORD	1021418	wordpools/wasnorm_wordpool.txt	LTP081	ltpFR	15	12	0	PORCH	1106	n/a	n/a	1	0.57763671875	0.412841796875	1	lower	amplitud.ttf
2047.044	n/a	WORD	1023522	wordpools/wasnorm_wordpool.txt	LTP081	ltpFR	15	12	0	DRAWING	494	n/a	n/a	1	0.57763671875	0.412841796875	1	lower	amplitud.ttf
2050.96	n/a	WORD	1025480	wordpools/wasnorm_wordpool.txt	LTP081	ltpFR	15	12	0	LACE	792	n/a	n/a	0	0.57763671875	0.412841796875	1	lower	amplitud.ttf
2054.962	n/a	WORD	1027481	wordpools/wasnorm_wordpool.txt	LTP081	ltpFR	15	12	0	HIGHWAY	707	n/a	n/a	1	0.57763671875	0.412841796875	1	lower	amplitud.ttf
2058.944	n/a	WORD	1029472	wordpools/wasnorm_wordpool.txt	LTP081	ltpFR	15	12	0	LUMBER	848	n/a	n/a	1	0.57763671875	0.412841796875	1	lower	amplitud.ttf
2062.852	n/a	WORD	1031426	wordpools/wasnorm_wordpool.txt	LTP081	ltpFR	15	12	0	FORT	595	n/a	n/a	1	0.57763671875	0.412841796875	1	lower	amplitud.ttf
2066.778	n/a	WORD	1033389	wordpools/wasnorm_wordpool.txt	LTP081	ltpFR	15	12	0	DIAGRAM	456	n/a	n/a	1	0.57763671875	0.412841796875	1	lower	amplitud.ttf
2070.776	n/a	WORD	1035388	wordpools/wasnorm_wordpool.txt	LTP081	ltpFR	15	12	0	SILK	1307	n/a	n/a	0	0.57763671875	0.412841796875	1	lower	amplitud.ttf
2074.636	n/a	WORD	1037318	wordpools/wasnorm_wordpool.txt	LTP081	ltpFR	15	12	0	LUNCH	849	n/a	n/a	0	0.57763671875	0.412841796875	1	lower	amplitud.ttf
2078.778	n/a	WORD	1039389	wordpools/wasnorm_wordpool.txt	LTP081	ltpFR	15	12	0	RICE	1190	n/a	n/a	0	0.57763671875	0.412841796875	1	lower	amplitud.ttf
2082.828	n/a	WORD	1041414	wordpools/wasnorm_wordpool.txt	LTP081	ltpFR	15	12	0	HUT	729	n/a	n/a	1	0.57763671875	0.412841796875	1	lower	amplitud.ttf
2088.868	n/a	REC_START	1044434	n/a	LTP081	ltpFR	15	12	n/a	n/a	n/a	n/a	n/a	n/a	n/a	n/a	n/a	n/a	n/a
2089.466	n/a	REC_WORD	1044733	wordpools/wasnorm_wordpool.txt	LTP081	ltpFR	15	12	0	RICE	1190	n/a	n/a	0	n/a	n/a	n/a	n/a	n/a
2090.56	n/a	REC_WORD	1045280	wordpools/wasnorm_wordpool.txt	LTP081	ltpFR	15	12	0	HUT	729	n/a	n/a	1	n/a	n/a	n/a	n/a	n/a
2091.672	n/a	REC_WORD	1045836	wordpools/wasnorm_wordpool.txt	LTP081	ltpFR	15	12	0	HIGHWAY	707	n/a	n/a	1	n/a	n/a	n/a	n/a	n/a
2093.394	n/a	REC_WORD	1046697	wordpools/wasnorm_wordpool.txt	LTP081	ltpFR	15	12	0	LACE	792	n/a	n/a	0	n/a	n/a	n/a	n/a	n/a
2095.06	n/a	REC_WORD	1047530	wordpools/wasnorm_wordpool.txt	LTP081	ltpFR	15	12	0	SILK	1307	n/a	n/a	0	n/a	n/a	n/a	n/a	n/a
2099.076	n/a	REC_WORD	1049538	wordpools/wasnorm_wordpool.txt	LTP081	ltpFR	15	12	0	SEED	1266	n/a	n/a	0	n/a	n/a	n/a	n/a	n/a
2103.316	n/a	REC_WORD	1051658	wordpools/wasnorm_wordpool.txt	LTP081	ltpFR	15	12	0	GARDEN	623	n/a	n/a	1	n/a	n/a	n/a	n/a	n/a
2104.788	n/a	REC_WORD	1052394	wordpools/wasnorm_wordpool.txt	LTP081	ltpFR	15	12	0	PORCH	1106	n/a	n/a	1	n/a	n/a	n/a	n/a	n/a
2113.076	n/a	REC_WORD	1056538	wordpools/wasnorm_wordpool.txt	LTP081	ltpFR	15	12	0	GIFT	635	n/a	n/a	1	n/a	n/a	n/a	n/a	n/a
2114.522	n/a	REC_WORD	1057261	wordpools/wasnorm_wordpool.txt	LTP081	ltpFR	15	12	n/a	DRYER	503	n/a	n/a	n/a	n/a	n/a	n/a	n/a	n/a
2116.772	n/a	REC_WORD	1058386	wordpools/wasnorm_wordpool.txt	LTP081	ltpFR	15	12	0	DIAGRAM	456	n/a	n/a	1	n/a	n/a	n/a	n/a	n/a
2164.508	n/a	REST_REWET	1082254	n/a	LTP081	ltpFR	15	12	n/a	n/a	n/a	n/a	n/a	n/a	n/a	n/a	n/a	n/a	n/a
2690.27	n/a	WORD	1345135	wordpools/wasnorm_wordpool.txt	LTP081	ltpFR	15	13	0	LIME	823	n/a	n/a	0	0.57763671875	0.412841796875	1	lower	amplitud.ttf
2694.476	n/a	WORD	1347238	wordpools/wasnorm_wordpool.txt	LTP081	ltpFR	15	13	0	WHEEL	1603	n/a	n/a	0	0.57763671875	0.412841796875	1	lower	amplitud.ttf
2698.528	n/a	WORD	1349264	wordpools/wasnorm_wordpool.txt	LTP081	ltpFR	15	13	0	BUGLE	189	n/a	n/a	1	0.57763671875	0.412841796875	1	lower	amplitud.ttf
2702.494	n/a	WORD	1351247	wordpools/wasnorm_wordpool.txt	LTP081	ltpFR	15	13	0	PASTRY	1022	n/a	n/a	0	0.57763671875	0.412841796875	1	lower	amplitud.ttf
2706.368	n/a	WORD	1353184	wordpools/wasnorm_wordpool.txt	LTP081	ltpFR	15	13	0	SAUCER	1237	n/a	n/a	0	0.57763671875	0.412841796875	1	lower	amplitud.ttf
2710.41	n/a	WORD	1355205	wordpools/wasnorm_wordpool.txt	LTP081	ltpFR	15	13	0	SACK	1220	n/a	n/a	1	0.57763671875	0.412841796875	1	lower	amplitud.ttf
2714.568	n/a	WORD	1357284	wordpools/wasnorm_wordpool.txt	LTP081	ltpFR	15	13	0	TRUCK	1512	n/a	n/a	1	0.57763671875	0.412841796875	1	lower	amplitud.ttf
2718.578	n/a	WORD	1359289	wordpools/wasnorm_wordpool.txt	LTP081	ltpFR	15	13	0	WOLF	1619	n/a	n/a	1	0.57763671875	0.412841796875	1	lower	amplitud.ttf
2722.476	n/a	WORD	1361238	wordpools/wasnorm_wordpool.txt	LTP081	ltpFR	15	13	0	BARK	87	n/a	n/a	0	0.57763671875	0.412841796875	1	lower	amplitud.ttf
2726.368	n/a	WORD	1363184	wordpools/wasnorm_wordpool.txt	LTP081	ltpFR	15	13	0	TUBA	1515	n/a	n/a	1	0.57763671875	0.412841796875	1	lower	amplitud.ttf
2730.186	n/a	WORD	1365093	wordpools/wasnorm_wordpool.txt	LTP081	ltpFR	15	13	0	KEYBOARD	774	n/a	n/a	0	0.57763671875	0.412841796875	1	lower	amplitud.ttf
2734.002	n/a	WORD	1367001	wordpools/wasnorm_wordpool.txt	LTP081	ltpFR	15	13	0	OVEN	991	n/a	n/a	1	0.57763671875	0.412841796875	1	lower	amplitud.ttf
2738.11	n/a	WORD	1369055	wordpools/wasnorm_wordpool.txt	LTP081	ltpFR	15	13	0	ASTRONAUT	51	n/a	n/a	1	0.57763671875	0.412841796875	1	lower	amplitud.ttf
2742.16	n/a	WORD	1371080	wordpools/wasnorm_wordpool.txt	LTP081	ltpFR	15	13	0	TREAT	1501	n/a	n/a	0	0.57763671875	0.412841796875	1	lower	amplitud.ttf
2746.218	n/a	WORD	1373109	wordpools/wasnorm_wordpool.txt	LTP081	ltpFR	15	13	0	TOAST	1471	n/a	n/a	1	0.57763671875	0.412841796875	1	lower	amplitud.ttf
2750.194	n/a	WORD	1375097	wordpools/wasnorm_wordpool.txt	LTP081	ltpFR	15	13	0	METEOR	889	n/a	n/a	1	0.57763671875	0.412841796875	1	lower	amplitud.ttf
2756.078	n/a	REC_START	1378039	n/a	LTP081	ltpFR	15	13	n/a	n/a	n/a	n/a	n/a	n/a	n/a	n/a	n/a	n/a	n/a
2756.726	n/a	REC_WORD	1378363	wordpools/wasnorm_wordpool.txt	LTP081	ltpFR	15	13	0	METEOR	889	n/a	n/a	1	n/a	n/a	n/a	n/a	n/a
2757.924	n/a	REC_WORD	1378962	wordpools/wasnorm_wordpool.txt	LTP081	ltpFR	15	13	0	ASTRONAUT	51	n/a	n/a	1	n/a	n/a	n/a	n/a	n/a
2760.074	n/a	REC_WORD	1380037	wordpools/wasnorm_wordpool.txt	LTP081	ltpFR	15	13	0	LIME	823	n/a	n/a	0	n/a	n/a	n/a	n/a	n/a
2761.69	n/a	REC_WORD	1380845	wordpools/wasnorm_wordpool.txt	LTP081	ltpFR	15	13	0	KEYBOARD	774	n/a	n/a	0	n/a	n/a	n/a	n/a	n/a
2769.642	n/a	REC_WORD	1384821	wordpools/wasnorm_wordpool.txt	LTP081	ltpFR	15	13	0	TRUCK	1512	n/a	n/a	1	n/a	n/a	n/a	n/a	n/a
2770.66	n/a	REC_WORD	1385330	wordpools/wasnorm_wordpool.txt	LTP081	ltpFR	15	13	0	WHEEL	1603	n/a	n/a	0	n/a	n/a	n/a	n/a	n/a
2772.266	n/a	REC_WORD	1386133	wordpools/wasnorm_wordpool.txt	LTP081	ltpFR	15	13	0	WOLF	1619	n/a	n/a	1	n/a	n/a	n/a	n/a	n/a
2782.628	n/a	REC_WORD	1391314	wordpools/wasnorm_wordpool.txt	LTP081	ltpFR	15	13	0	BUGLE	189	n/a	n/a	1	n/a	n/a	n/a	n/a	n/a
2786.5	n/a	REC_WORD	1393250	wordpools/wasnorm_wordpool.txt	LTP081	ltpFR	15	13	1	PECAN	1036	n/a	n/a	1	n/a	n/a	n/a	n/a	n/a
2793.37	n/a	REC_WORD	1396685	wordpools/wasnorm_wordpool.txt	LTP081	ltpFR	15	13	0	TREAT	1501	n/a	n/a	0	n/a	n/a	n/a	n/a	n/a
2798.484	n/a	REC_WORD	1399242	wordpools/wasnorm_wordpool.txt	LTP081	ltpFR	15	13	0	BARK	87	n/a	n/a	0	n/a	n/a	n/a	n/a	n/a
2799.742	n/a	REC_WORD	1399871	wordpools/wasnorm_wordpool.txt	LTP081	ltpFR	15	13	0	TOAST	1471	n/a	n/a	1	n/a	n/a	n/a	n/a	n/a
2827.184	n/a	REC_WORD	1413592	wordpools/wasnorm_wordpool.txt	LTP081	ltpFR	15	13	0	OVEN	991	n/a	n/a	1	n/a	n/a	n/a	n/a	n/a
2845.624	n/a	WORD	1422812	wordpools/wasnorm_wordpool.txt	LTP081	ltpFR	15	14	0	LENS	811	n/a	n/a	0	0.57763671875	0.412841796875	1	lower	amplitud.ttf
2849.832	n/a	WORD	1424916	wordpools/wasnorm_wordpool.txt	LTP081	ltpFR	15	14	0	BRANDY	169	n/a	n/a	0	0.57763671875	0.412841796875	1	lower	amplitud.ttf
2853.682	n/a	WORD	1426841	wordpools/wasnorm_wordpool.txt	LTP081	ltpFR	15	14	0	SOCKET	1340	n/a	n/a	1	0.57763671875	0.412841796875	1	lower	amplitud.ttf
2857.556	n/a	WORD	1428778	wordpools/wasnorm_wordpool.txt	LTP081	ltpFR	15	14	0	STY	1397	n/a	n/a	1	0.57763671875	0.412841796875	1	lower	amplitud.ttf
2861.59	n/a	WORD	1430795	wordpools/wasnorm_wordpool.txt	LTP081	ltpFR	15	14	0	PREACHER	1119	n/a	n/a	1	0.57763671875	0.412841796875	1	lower	amplitud.ttf
2865.724	n/a	WORD	1432862	wordpools/wasnorm_wordpool.txt	LTP081	ltpFR	15	14	0	DUMP	505	n/a	n/a	1	0.57763671875	0.412841796875	1	lower	amplitud.ttf
2869.648	n/a	WORD	1434824	wordpools/wasnorm_wordpool.txt	LTP081	ltpFR	15	14	0	WRITER	1627	n/a	n/a	1	0.57763671875	0.412841796875	1	lower	amplitud.ttf
2873.598	n/a	WORD	1436799	wordpools/wasnorm_wordpool.txt	LTP081	ltpFR	15	14	0	PAGE	1001	n/a	n/a	0	0.57763671875	0.412841796875	1	lower	amplitud.ttf
2877.732	n/a	WORD	1438866	wordpools/wasnorm_wordpool.txt	LTP081	ltpFR	15	14	0	BATH	98	n/a	n/a	1	0.57763671875	0.412841796875	1	lower	amplitud.ttf
2881.916	n/a	WORD	1440958	wordpools/wasnorm_wordpool.txt	LTP081	ltpFR	15	14	0	SUN	1406	n/a	n/a	1	0.57763671875	0.412841796875	1	lower	amplitud.ttf
2885.906	n/a	WORD	1442953	wordpools/wasnorm_wordpool.txt	LTP081	ltpFR	15	14	0	BATHTUB	100	n/a	n/a	1	0.57763671875	0.412841796875	1	lower	amplitud.ttf
2889.932	n/a	WORD	1444966	wordpools/wasnorm_wordpool.txt	LTP081	ltpFR	15	14	0	UNIFORM	1539	n/a	n/a	1	0.57763671875	0.412841796875	1	lower	amplitud.ttf
2894.014	n/a	WORD	1447007	wordpools/wasnorm_wordpool.txt	LTP081	ltpFR	15	14	0	LIEUTENANT	818	n/a	n/a	1	0.57763671875	0.412841796875	1	lower	amplitud.ttf
2898.098	n/a	WORD	1449049	wordpools/wasnorm_wordpool.txt	LTP081	ltpFR	15	14	0	CHEMICAL	291	n/a	n/a	0	0.57763671875	0.412841796875	1	lower	amplitud.ttf
2901.998	n/a	WORD	1450999	wordpools/wasnorm_wordpool.txt	LTP081	ltpFR	15	14	0	SHOWER	1296	n/a	n/a	1	0.57763671875	0.412841796875	1	lower	amplitud.ttf
2906.114	n/a	WORD	1453057	wordpools/wasnorm_wordpool.txt	LTP081	ltpFR	15	14	0	RAG	1160	n/a	n/a	0	0.57763671875	0.412841796875	1	lower	amplitud.ttf
2912.032	n/a	REC_START	1456016	n/a	LTP081	ltpFR	15	14	n/a	n/a	n/a	n/a	n/a	n/a	n/a	n/a	n/a	n/a	n/a
2912.614	n/a	REC_WORD	1456307	wordpools/wasnorm_wordpool.txt	LTP081	ltpFR	15	14	0	RAG	1160	n/a	n/a	0	n/a	n/a	n/a	n/a	n/a
2913.578	n/a	REC_WORD	1456789	wordpools/wasnorm_wordpool.txt	LTP081	ltpFR	15	14	0	CHEMICAL	291	n/a	n/a	0	n/a	n/a	n/a	n/a	n/a
2914.806	n/a	REC_WORD	1457403	wordpools/wasnorm_wordpool.txt	LTP081	ltpFR	15	14	-1	WASHCLOTH	1591	n/a	n/a	-1	n/a	n/a	n/a	n/a	n/a
2917.584	n/a	REC_WORD	1458792	wordpools/wasnorm_wordpool.txt	LTP081	ltpFR	15	14	0	BRANDY	169	n/a	n/a	0	n/a	n/a	n/a	n/a	n/a
2920.148	n/a	REC_WORD	1460074	wordpools/wasnorm_wordpool.txt	LTP081	ltpFR	15	14	n/a	WINE	1613	n/a	n/a	n/a	n/a	n/a	n/a	n/a	n/a
2925.486	n/a	REC_WORD	1462743	wordpools/wasnorm_wordpool.txt	LTP081	ltpFR	15	14	0	SHOWER	1296	n/a	n/a	1	n/a	n/a	n/a	n/a	n/a
2927.876	n/a	REC_WORD	1463938	wordpools/wasnorm_wordpool.txt	LTP081	ltpFR	15	14	0	BATH	98	n/a	n/a	1	n/a	n/a	n/a	n/a	n/a
2929.128	n/a	REC_WORD	1464564	wordpools/wasnorm_wordpool.txt	LTP081	ltpFR	15	14	0	BATHTUB	100	n/a	n/a	1	n/a	n/a	n/a	n/a	n/a
2940.0	n/a	REC_WORD	1470000	wordpools/wasnorm_wordpool.txt	LTP081	ltpFR	15	14	0	PREACHER	1119	n/a	n/a	1	n/a	n/a	n/a	n/a	n/a
2944.704	n/a	REC_WORD	1472352	wordpools/wasnorm_wordpool.txt	LTP081	ltpFR	15	14	n/a	PLAYGROUND	1087	n/a	n/a	n/a	n/a	n/a	n/a	n/a	n/a
2961.398	n/a	REC_WORD	1480699	wordpools/wasnorm_wordpool.txt	LTP081	ltpFR	15	14	1	CHALK	276	n/a	n/a	0	n/a	n/a	n/a	n/a	n/a
2977.8	n/a	REC_WORD	1488900	wordpools/wasnorm_wordpool.txt	LTP081	ltpFR	15	14	0	LIEUTENANT	818	n/a	n/a	1	n/a	n/a	n/a	n/a	n/a
2978.848	n/a	REC_WORD	1489424	wordpools/wasnorm_wordpool.txt	LTP081	ltpFR	15	14	0	UNIFORM	1539	n/a	n/a	1	n/a	n/a	n/a	n/a	n/a
3011.536	n/a	WORD	1505768	wordpools/wasnorm_wordpool.txt	LTP081	ltpFR	15	15	-1	EUROPE	541	n/a	n/a	-1	1.0	1.0	1	upper	Verdana.ttf
3015.67	n/a	WORD	1507835	wordpools/wasnorm_wordpool.txt	LTP081	ltpFR	15	15	-1	LONDON	843	n/a	n/a	-1	1.0	1.0	1	upper	Verdana.ttf
3019.838	n/a	WORD	1509919	wordpools/wasnorm_wordpool.txt	LTP081	ltpFR	15	15	-1	BUCKLE	185	n/a	n/a	-1	1.0	1.0	1	upper	Verdana.ttf
3023.82	n/a	WORD	1511910	wordpools/wasnorm_wordpool.txt	LTP081	ltpFR	15	15	-1	RIBBON	1189	n/a	n/a	-1	1.0	1.0	1	upper	Verdana.ttf
3027.662	n/a	WORD	1513831	wordpools/wasnorm_wordpool.txt	LTP081	ltpFR	15	15	-1	AUTOMOBILE	62	n/a	n/a	-1	1.0	1.0	1	upper	Verdana.ttf
3031.728	n/a	WORD	1515864	wordpools/wasnorm_wordpool.txt	LTP081	ltpFR	15	15	-1	MARROW	872	n/a	n/a	-1	1.0	1.0	1	upper	Verdana.ttf
3035.902	n/a	WORD	1517951	wordpools/wasnorm_wordpool.txt	LTP081	ltpFR	15	15	-1	PUDDLE	1140	n/a	n/a	-1	1.0	1.0	1	upper	Verdana.ttf
3040.028	n/a	WORD	1520014	wordpools/wasnorm_wordpool.txt	LTP081	ltpFR	15	15	-1	BLENDER	136	n/a	n/a	-1	1.0	1.0	1	upper	Verdana.ttf
3043.886	n/a	WORD	1521943	wordpools/wasnorm_wordpool.txt	LTP081	ltpFR	15	15	-1	SEASHORE	1263	n/a	n/a	-1	1.0	1.0	1	upper	Verdana.ttf
3047.952	n/a	WORD	1523976	wordpools/wasnorm_wordpool.txt	LTP081	ltpFR	15	15	-1	BACK	65	n/a	n/a	-1	1.0	1.0	1	upper	Verdana.ttf
3051.902	n/a	WORD	1525951	wordpools/wasnorm_wordpool.txt	LTP081	ltpFR	15	15	-1	SNORKEL	1336	n/a	n/a	-1	1.0	1.0	1	upper	Verdana.ttf
3056.01	n/a	WORD	1528005	wordpools/wasnorm_wordpool.txt	LTP081	ltpFR	15	15	-1	BARTENDER	92	n/a	n/a	-1	1.0	1.0	1	upper	Verdana.ttf
3060.002	n/a	WORD	1530001	wordpools/wasnorm_wordpool.txt	LTP081	ltpFR	15	15	-1	AIRCRAFT	11	n/a	n/a	-1	1.0	1.0	1	upper	Verdana.ttf
3064.17	n/a	WORD	1532085	wordpools/wasnorm_wordpool.txt	LTP081	ltpFR	15	15	-1	TWIN	1528	n/a	n/a	-1	1.0	1.0	1	upper	Verdana.ttf
3068.236	n/a	WORD	1534118	wordpools/wasnorm_wordpool.txt	LTP081	ltpFR	15	15	-1	DOCTOR	478	n/a	n/a	-1	1.0	1.0	1	upper	Verdana.ttf
3072.136	n/a	WORD	1536068	wordpools/wasnorm_wordpool.txt	LTP081	ltpFR	15	15	-1	HOSPITAL	721	n/a	n/a	-1	1.0	1.0	1	upper	Verdana.ttf
3077.936	n/a	REC_START	1538968	n/a	LTP081	ltpFR	15	15	n/a	n/a	n/a	n/a	n/a	n/a	n/a	n/a	n/a	n/a	n/a
3079.448	n/a	REC_WORD	1539724	wordpools/wasnorm_wordpool.txt	LTP081	ltpFR	15	15	-1	BARTENDER	92	n/a	n/a	-1	n/a	n/a	n/a	n/a	n/a
3080.536	n/a	REC_WORD	1540268	wordpools/wasnorm_wordpool.txt	LTP081	ltpFR	15	15	-1	HOSPITAL	721	n/a	n/a	-1	n/a	n/a	n/a	n/a	n/a
3081.498	n/a	REC_WORD	1540749	wordpools/wasnorm_wordpool.txt	LTP081	ltpFR	15	15	-1	DOCTOR	478	n/a	n/a	-1	n/a	n/a	n/a	n/a	n/a
3082.58	n/a	REC_WORD	1541290	wordpools/wasnorm_wordpool.txt	LTP081	ltpFR	15	15	-1	TWIN	1528	n/a	n/a	-1	n/a	n/a	n/a	n/a	n/a
3104.242	n/a	REC_WORD	1552121	wordpools/wasnorm_wordpool.txt	LTP081	ltpFR	15	15	-1	EUROPE	541	n/a	n/a	-1	n/a	n/a	n/a	n/a	n/a
3105.46	n/a	REC_WORD	1552730	wordpools/wasnorm_wordpool.txt	LTP081	ltpFR	15	15	-1	LONDON	843	n/a	n/a	-1	n/a	n/a	n/a	n/a	n/a
3107.136	n/a	REC_WORD	1553568	wordpools/wasnorm_wordpool.txt	LTP081	ltpFR	15	15	-1	RIBBON	1189	n/a	n/a	-1	n/a	n/a	n/a	n/a	n/a
3109.46	n/a	REC_WORD	1554730	wordpools/wasnorm_wordpool.txt	LTP081	ltpFR	15	15	-1	BUCKLE	185	n/a	n/a	-1	n/a	n/a	n/a	n/a	n/a
3111.896	n/a	REC_WORD	1555948	wordpools/wasnorm_wordpool.txt	LTP081	ltpFR	15	15	n/a	SEAT	1264	n/a	n/a	n/a	n/a	n/a	n/a	n/a	n/a
3112.29	n/a	REC_WORD	1556145	wordpools/wasnorm_wordpool.txt	LTP081	ltpFR	15	15	n/a	BELT	120	n/a	n/a	n/a	n/a	n/a	n/a	n/a	n/a
3118.442	n/a	REC_WORD	1559221	wordpools/wasnorm_wordpool.txt	LTP081	ltpFR	15	15	-1	AUTOMOBILE	62	n/a	n/a	-1	n/a	n/a	n/a	n/a	n/a
3129.66	n/a	REC_WORD	1564830	wordpools/wasnorm_wordpool.txt	LTP081	ltpFR	15	15	-1	PUDDLE	1140	n/a	n/a	-1	n/a	n/a	n/a	n/a	n/a
3165.692	n/a	WORD	1582846	wordpools/wasnorm_wordpool.txt	LTP081	ltpFR	15	16	-1	FURNITURE	616	n/a	n/a	-1	1.0	1.0	1	upper	Verdana.ttf
3169.54	n/a	WORD	1584770	wordpools/wasnorm_wordpool.txt	LTP081	ltpFR	15	16	-1	FAMILY	550	n/a	n/a	-1	1.0	1.0	1	upper	Verdana.ttf
3173.598	n/a	WORD	1586799	wordpools/wasnorm_wordpool.txt	LTP081	ltpFR	15	16	-1	KLEENEX	782	n/a	n/a	-1	1.0	1.0	1	upper	Verdana.ttf
3177.724	n/a	WORD	1588862	wordpools/wasnorm_wordpool.txt	LTP081	ltpFR	15	16	-1	CLOCK	325	n/a	n/a	-1	1.0	1.0	1	upper	Verdana.ttf
3181.692	n/a	WORD	1590846	wordpools/wasnorm_wordpool.txt	LTP081	ltpFR	15	16	-1	PORTRAIT	1111	n/a	n/a	-1	1.0	1.0	1	upper	Verdana.ttf
3185.59	n/a	WORD	1592795	wordpools/wasnorm_wordpool.txt	LTP081	ltpFR	15	16	-1	ATTIRE	57	n/a	n/a	-1	1.0	1.0	1	upper	Verdana.ttf
3189.498	n/a	WORD	1594749	wordpools/wasnorm_wordpool.txt	LTP081	ltpFR	15	16	-1	DRESSER	496	n/a	n/a	-1	1.0	1.0	1	upper	Verdana.ttf
3193.514	n/a	WORD	1596757	wordpools/wasnorm_wordpool.txt	LTP081	ltpFR	15	16	-1	SHINGLE	1285	n/a	n/a	-1	1.0	1.0	1	upper	Verdana.ttf
3197.39	n/a	WORD	1598695	wordpools/wasnorm_wordpool.txt	LTP081	ltpFR	15	16	-1	PLASTER	1085	n/a	n/a	-1	1.0	1.0	1	upper	Verdana.ttf
3201.382	n/a	WORD	1600691	wordpools/wasnorm_wordpool.txt	LTP081	ltpFR	15	16	-1	STETHOSCOPE	1379	n/a	n/a	-1	1.0	1.0	1	upper	Verdana.ttf
3205.324	n/a	WORD	1602662	wordpools/wasnorm_wordpool.txt	LTP081	ltpFR	15	16	-1	OBOE	969	n/a	n/a	-1	1.0	1.0	1	upper	Verdana.ttf
3209.248	n/a	WORD	1604624	wordpools/wasnorm_wordpool.txt	LTP081	ltpFR	15	16	-1	BOULEVARD	156	n/a	n/a	-1	1.0	1.0	1	upper	Verdana.ttf
3213.074	n/a	WORD	1606537	wordpools/wasnorm_wordpool.txt	LTP081	ltpFR	15	16	-1	TOASTER	1472	n/a	n/a	-1	1.0	1.0	1	upper	Verdana.ttf
3216.922	n/a	WORD	1608461	wordpools/wasnorm_wordpool.txt	LTP081	ltpFR	15	16	-1	RADIO	1157	n/a	n/a	-1	1.0	1.0	1	upper	Verdana.ttf
3220.758	n/a	WORD	1610379	wordpools/wasnorm_wordpool.txt	LTP081	ltpFR	15	16	-1	PICTURE	1061	n/a	n/a	-1	1.0	1.0	1	upper	Verdana.ttf
3224.898	n/a	WORD	1612449	wordpools/wasnorm_wordpool.txt	LTP081	ltpFR	15	16	-1	BRIDGE	174	n/a	n/a	-1	1.0	1.0	1	upper	Verdana.ttf
3230.472	n/a	REC_START	1615236	n/a	LTP081	ltpFR	15	16	n/a	n/a	n/a	n/a	n/a	n/a	n/a	n/a	n/a	n/a	n/a
3231.31	n/a	REC_WORD	1615655	wordpools/wasnorm_wordpool.txt	LTP081	ltpFR	15	16	-1	PICTURE	1061	n/a	n/a	-1	n/a	n/a	n/a	n/a	n/a
3232.398	n/a	REC_WORD	1616199	wordpools/wasnorm_wordpool.txt	LTP081	ltpFR	15	16	-1	BRIDGE	174	n/a	n/a	-1	n/a	n/a	n/a	n/a	n/a
3233.326	n/a	REC_WORD	1616663	wordpools/wasnorm_wordpool.txt	LTP081	ltpFR	15	16	-1	OBOE	969	n/a	n/a	-1	n/a	n/a	n/a	n/a	n/a
3234.304	n/a	REC_WORD	1617152	wordpools/wasnorm_wordpool.txt	LTP081	ltpFR	15	16	-1	STETHOSCOPE	1379	n/a	n/a	-1	n/a	n/a	n/a	n/a	n/a
3237.132	n/a	REC_WORD	1618566	wordpools/wasnorm_wordpool.txt	LTP081	ltpFR	15	16	-1	DOCTOR	478	n/a	n/a	-1	n/a	n/a	n/a	n/a	n/a
3244.042	n/a	REC_WORD	1622021	wordpools/wasnorm_wordpool.txt	LTP081	ltpFR	15	16	-1	FURNITURE	616	n/a	n/a	-1	n/a	n/a	n/a	n/a	n/a
3245.164	n/a	REC_WORD	1622582	wordpools/wasnorm_wordpool.txt	LTP081	ltpFR	15	16	-1	FAMILY	550	n/a	n/a	-1	n/a	n/a	n/a	n/a	n/a
3247.24	n/a	REC_WORD	1623620	wordpools/wasnorm_wordpool.txt	LTP081	ltpFR	15	16	-1	PICTURE	1061	n/a	n/a	-1	n/a	n/a	n/a	n/a	n/a
3253.596	n/a	REC_WORD	1626798	wordpools/wasnorm_wordpool.txt	LTP081	ltpFR	15	16	-1	KLEENEX	782	n/a	n/a	-1	n/a	n/a	n/a	n/a	n/a
3287.83	n/a	REC_WORD	1643915	wordpools/wasnorm_wordpool.txt	LTP081	ltpFR	15	16	0	HUT	729	n/a	n/a	1	n/a	n/a	n/a	n/a	n/a
3332.378	n/a	REC_START	1666189	n/a	LTP081	ltpFR	15	n/a	n/a	n/a	n/a	n/a	n/a	n/a	n/a	n/a	n/a	n/a	n/a
3333.102	n/a	FFR_REC_WORD	1666551	wordpools/wasnorm_wordpool.txt	LTP081	ltpFR	15	n/a	-1	OBOE	969	n/a	n/a	-1	n/a	n/a	n/a	n/a	n/a
3334.014	n/a	FFR_REC_WORD	1667007	wordpools/wasnorm_wordpool.txt	LTP081	ltpFR	15	n/a	-1	DOCTOR	478	n/a	n/a	-1	n/a	n/a	n/a	n/a	n/a
3334.882	n/a	FFR_REC_WORD	1667441	wordpools/wasnorm_wordpool.txt	LTP081	ltpFR	15	n/a	-1	STETHOSCOPE	1379	n/a	n/a	-1	n/a	n/a	n/a	n/a	n/a
3338.96	n/a	FFR_REC_WORD	1669480	wordpools/wasnorm_wordpool.txt	LTP081	ltpFR	15	n/a	-1	HOSPITAL	721	n/a	n/a	-1	n/a	n/a	n/a	n/a	n/a
3339.812	n/a	FFR_REC_WORD	1669906	wordpools/wasnorm_wordpool.txt	LTP081	ltpFR	15	n/a	-1	TWIN	1528	n/a	n/a	-1	n/a	n/a	n/a	n/a	n/a
3342.486	n/a	FFR_REC_WORD	1671243	wordpools/wasnorm_wordpool.txt	LTP081	ltpFR	15	n/a	1	PECAN	1036	n/a	n/a	1	n/a	n/a	n/a	n/a	n/a
3343.628	n/a	FFR_REC_WORD	1671814	wordpools/wasnorm_wordpool.txt	LTP081	ltpFR	15	n/a	1	CANARY	227	n/a	n/a	1	n/a	n/a	n/a	n/a	n/a
3344.726	n/a	FFR_REC_WORD	1672363	wordpools/wasnorm_wordpool.txt	LTP081	ltpFR	15	n/a	1	BLUEJAY	141	n/a	n/a	1	n/a	n/a	n/a	n/a	n/a
3346.328	n/a	FFR_REC_WORD	1673164	wordpools/wasnorm_wordpool.txt	LTP081	ltpFR	15	n/a	1	BLUEJAY	141	n/a	n/a	1	n/a	n/a	n/a	n/a	n/a
3350.224	n/a	FFR_REC_WORD	1675112	wordpools/wasnorm_wordpool.txt	LTP081	ltpFR	15	n/a	0	COUGAR	387	n/a	n/a	1	n/a	n/a	n/a	n/a	n/a
3351.182	n/a	FFR_REC_WORD	1675591	wordpools/wasnorm_wordpool.txt	LTP081	ltpFR	15	n/a	0	PARENT	1013	n/a	n/a	1	n/a	n/a	n/a	n/a	n/a
3353.686	n/a	FFR_REC_WORD	1676843	wordpools/wasnorm_wordpool.txt	LTP081	ltpFR	15	n/a	1	JUVENILE	767	n/a	n/a	1	n/a	n/a	n/a	n/a	n/a
3355.762	n/a	FFR_REC_WORD	1677881	wordpools/wasnorm_wordpool.txt	LTP081	ltpFR	15	n/a	1	JUDGE	761	n/a	n/a	1	n/a	n/a	n/a	n/a	n/a
3357.168	n/a	FFR_REC_WORD	1678584	wordpools/wasnorm_wordpool.txt	LTP081	ltpFR	15	n/a	1	CRIMINAL	409	n/a	n/a	1	n/a	n/a	n/a	n/a	n/a
3358.09	n/a	FFR_REC_WORD	1679045	wordpools/wasnorm_wordpool.txt	LTP081	ltpFR	15	n/a	1	ASH	44	n/a	n/a	0	n/a	n/a	n/a	n/a	n/a
3359.882	n/a	FFR_REC_WORD	1679941	wordpools/wasnorm_wordpool.txt	LTP081	ltpFR	15	n/a	1	CIGARETTE	309	n/a	n/a	0	n/a	n/a	n/a	n/a	n/a
3367.734	n/a	FFR_REC_WORD	1683867	wordpools/wasnorm_wordpool.txt	LTP081	ltpFR	15	n/a	0	CREVICE	405	n/a	n/a	0	n/a	n/a	n/a	n/a	n/a
3369.112	n/a	FFR_REC_WORD	1684556	wordpools/wasnorm_wordpool.txt	LTP081	ltpFR	15	n/a	0	SWATTER	1418	n/a	n/a	0	n/a	n/a	n/a	n/a	n/a
3376.57	n/a	FFR_REC_WORD	1688285	wordpools/wasnorm_wordpool.txt	LTP081	ltpFR	15	n/a	0	ASTRONAUT	51	n/a	n/a	1	n/a	n/a	n/a	n/a	n/a
3378.37	n/a	FFR_REC_WORD	1689185	wordpools/wasnorm_wordpool.txt	LTP081	ltpFR	15	n/a	1	WRIST	1626	n/a	n/a	0	n/a	n/a	n/a	n/a	n/a
3379.16	n/a	FFR_REC_WORD	1689580	wordpools/wasnorm_wordpool.txt	LTP081	ltpFR	15	n/a	0	ANKLE	24	n/a	n/a	0	n/a	n/a	n/a	n/a	n/a
3381.534	n/a	FFR_REC_WORD	1690767	wordpools/wasnorm_wordpool.txt	LTP081	ltpFR	15	n/a	0	TRIANGLE	1504	n/a	n/a	0	n/a	n/a	n/a	n/a	n/a
3382.722	n/a	FFR_REC_WORD	1691361	wordpools/wasnorm_wordpool.txt	LTP081	ltpFR	15	n/a	0	EGYPT	519	n/a	n/a	1	n/a	n/a	n/a	n/a	n/a
3384.348	n/a	FFR_REC_WORD	1692174	wordpools/wasnorm_wordpool.txt	LTP081	ltpFR	15	n/a	-1	EUROPE	541	n/a	n/a	-1	n/a	n/a	n/a	n/a	n/a
3385.056	n/a	FFR_REC_WORD	1692528	wordpools/wasnorm_wordpool.txt	LTP081	ltpFR	15	n/a	-1	LONDON	843	n/a	n/a	-1	n/a	n/a	n/a	n/a	n/a
3388.03	n/a	FFR_REC_WORD	1694015	wordpools/wasnorm_wordpool.txt	LTP081	ltpFR	15	n/a	-1	AUTOMOBILE	62	n/a	n/a	-1	n/a	n/a	n/a	n/a	n/a
3394.416	n/a	FFR_REC_WORD	1697208	wordpools/wasnorm_wordpool.txt	LTP081	ltpFR	15	n/a	0	EDITOR	516	n/a	n/a	1	n/a	n/a	n/a	n/a	n/a
3395.798	n/a	FFR_REC_WORD	1697899	wordpools/wasnorm_wordpool.txt	LTP081	ltpFR	15	n/a	1	RECEPTIONIST	1174	n/a	n/a	1	n/a	n/a	n/a	n/a	n/a
3401.35	n/a	FFR_REC_WORD	1700675	wordpools/wasnorm_wordpool.txt	LTP081	ltpFR	15	n/a	1	MONGOOSE	909	n/a	n/a	1	n/a	n/a	n/a	n/a	n/a
3408.564	n/a	FFR_REC_WORD	1704282	wordpools/wasnorm_wordpool.txt	LTP081	ltpFR	15	n/a	-1	IDOL	733	n/a	n/a	-1	n/a	n/a	n/a	n/a	n/a
3411.548	n/a	FFR_REC_WORD	1705774	wordpools/wasnorm_wordpool.txt	LTP081	ltpFR	15	n/a	1	UTENSIL	1542	n/a	n/a	0	n/a	n/a	n/a	n/a	n/a
3419.214	n/a	FFR_REC_WORD	1709607	wordpools/wasnorm_wordpool.txt	LTP081	ltpFR	15	n/a	-1	PUDDLE	1140	n/a	n/a	-1	n/a	n/a	n/a	n/a	n/a
3421.79	n/a	FFR_REC_WORD	1710895	wordpools/wasnorm_wordpool.txt	LTP081	ltpFR	15	n/a	0	TOAST	1471	n/a	n/a	1	n/a	n/a	n/a	n/a	n/a
3426.38	n/a	FFR_REC_WORD	1713190	wordpools/wasnorm_wordpool.txt	LTP081	ltpFR	15	n/a	0	BRANDY	169	n/a	n/a	0	n/a	n/a	n/a	n/a	n/a
3430.98	n/a	FFR_REC_WORD	1715490	wordpools/wasnorm_wordpool.txt	LTP081	ltpFR	15	n/a	0	CREW	406	n/a	n/a	1	n/a	n/a	n/a	n/a	n/a
3432.86	n/a	FFR_REC_WORD	1716430	wordpools/wasnorm_wordpool.txt	LTP081	ltpFR	15	n/a	0	NIGHTGOWN	953	n/a	n/a	0	n/a	n/a	n/a	n/a	n/a
3434.242	n/a	FFR_REC_WORD	1717121	wordpools/wasnorm_wordpool.txt	LTP081	ltpFR	15	n/a	1	TAVERN	1437	n/a	n/a	0	n/a	n/a	n/a	n/a	n/a
3445.772	n/a	FFR_REC_WORD	1722886	wordpools/wasnorm_wordpool.txt	LTP081	ltpFR	15	n/a	1	SCOTCH	1251	n/a	n/a	0	n/a	n/a	n/a	n/a	n/a
3454.088	n/a	FFR_REC_WORD	1727044	wordpools/wasnorm_wordpool.txt	LTP081	ltpFR	15	n/a	0	SENATOR	1268	n/a	n/a	1	n/a	n/a	n/a	n/a	n/a
3458.064	n/a	FFR_REC_WORD	1729032	wordpools/wasnorm_wordpool.txt	LTP081	ltpFR	15	n/a	1	MOTEL	919	n/a	n/a	0	n/a	n/a	n/a	n/a	n/a
3478.748	n/a	FFR_REC_WORD	1739374	wordpools/wasnorm_wordpool.txt	LTP081	ltpFR	15	n/a	0	PREACHER	1119	n/a	n/a	1	n/a	n/a	n/a	n/a	n/a
3483.896	n/a	FFR_REC_WORD	1741948	wordpools/wasnorm_wordpool.txt	LTP081	ltpFR	15	n/a	1	TONGUE	1479	n/a	n/a	0	n/a	n/a	n/a	n/a	n/a
3497.446	n/a	FFR_REC_WORD	1748723	wordpools/wasnorm_wordpool.txt	LTP081	ltpFR	15	n/a	1	PIT	1077	n/a	n/a	3	n/a	n/a	n/a	n/a	n/a
3523.554	n/a	FFR_REC_WORD	1761777	wordpools/wasnorm_wordpool.txt	LTP081	ltpFR	15	n/a	1	CELLO	268	n/a	n/a	0	n/a	n/a	n/a	n/a	n/a
3524.576	n/a	FFR_REC_WORD	1762288	wordpools/wasnorm_wordpool.txt	LTP081	ltpFR	15	n/a	0	DRUM	502	n/a	n/a	1	n/a	n/a	n/a	n/a	n/a
3527.594	n/a	FFR_REC_WORD	1763797	wordpools/wasnorm_wordpool.txt	LTP081	ltpFR	15	n/a	0	TUBA	1515	n/a	n/a	1	n/a	n/a	n/a	n/a	n/a
3530.846	n/a	FFR_REC_WORD	1765423	wordpools/wasnorm_wordpool.txt	LTP081	ltpFR	15	n/a	0	SCALLOP	1242	n/a	n/a	0	n/a	n/a	n/a	n/a	n/a
3560.388	n/a	FFR_REC_WORD	1780194	wordpools/wasnorm_wordpool.txt	LTP081	ltpFR	15	n/a	-1	CACTUS	215	n/a	n/a	-1	n/a	n/a	n/a	n/a	n/a
3565.5	n/a	FFR_REC_WORD	1782750	wordpools/wasnorm_wordpool.txt	LTP081	ltpFR	15	n/a	-1	OBOE	969	n/a	n/a	-1	n/a	n/a	n/a	n/a	n/a
3574.41	n/a	FFR_REC_WORD	1787205	wordpools/wasnorm_wordpool.txt	LTP081	ltpFR	15	n/a	0	SEED	1266	n/a	n/a	0	n/a	n/a	n/a	n/a	n/a
3576.89	n/a	FFR_REC_WORD	1788445	wordpools/wasnorm_wordpool.txt	LTP081	ltpFR	15	n/a	0	SILK	1307	n/a	n/a	0	n/a	n/a	n/a	n/a	n/a
3578.066	n/a	FFR_REC_WORD	1789033	wordpools/wasnorm_wordpool.txt	LTP081	ltpFR	15	n/a	0	LACE	792	n/a	n/a	0	n/a	n/a	n/a	n/a	n/a
3579.644	n/a	FFR_REC_WORD	1789822	wordpools/wasnorm_wordpool.txt	LTP081	ltpFR	15	n/a	1	POLYESTER	1100	n/a	n/a	0	n/a	n/a	n/a	n/a	n/a
3580.886	n/a	FFR_REC_WORD	1790443	wordpools/wasnorm_wordpool.txt	LTP081	ltpFR	15	n/a	1	SLACKS	1323	n/a	n/a	0	n/a	n/a	n/a	n/a	n/a
3582.932	n/a	FFR_REC_WORD	1791466	wordpools/wasnorm_wordpool.txt	LTP081	ltpFR	15	n/a	-1	ATTIRE	57	n/a	n/a	-1	n/a	n/a	n/a	n/a	n/a
3585.422	n/a	FFR_REC_WORD	1792711	wordpools/wasnorm_wordpool.txt	LTP081	ltpFR	15	n/a	1	WARDROBE	1587	n/a	n/a	0	n/a	n/a	n/a	n/a	n/a
3606.45	n/a	FFR_REC_WORD	1803225	wordpools/wasnorm_wordpool.txt	LTP081	ltpFR	15	n/a	0	LAKE	796	n/a	n/a	1	n/a	n/a	n/a	n/a	n/a
3655.646	n/a	REC_START	1827823	n/a	LTP081	ltpFR	15	1	n/a	n/a	n/a	n/a	n/a	n/a	n/a	n/a	n/a	n/a	n/a
3655.678	n/a	RECOG_TARGET	1827839	n/a	LTP081	ltpFR	15	1	1	TAVERN	1437	1	5	0	n/a	n/a	n/a	n/a	n/a
3656.722	n/a	RECOG_RESP	1828361	n/a	LTP081	ltpFR	15	1	1	TAVERN	1437	1	n/a	0	n/a	n/a	n/a	n/a	n/a
3657.606	n/a	RECOG_CONF	1828803	n/a	LTP081	ltpFR	15	1	1	TAVERN	1437	n/a	5	0	n/a	n/a	n/a	n/a	n/a
3659.212	n/a	RECOG_LURE	1829606	n/a	LTP081	ltpFR	15	1	n/a	CALCULATOR	220	0	3	n/a	n/a	n/a	n/a	n/a	n/a
3659.97	n/a	RECOG_RESP	1829985	n/a	LTP081	ltpFR	15	1	n/a	CALCULATOR	220	0	n/a	n/a	n/a	n/a	n/a	n/a	n/a
3660.698	n/a	RECOG_CONF	1830349	n/a	LTP081	ltpFR	15	1	n/a	CALCULATOR	220	n/a	3	n/a	n/a	n/a	n/a	n/a	n/a
3662.046	n/a	RECOG_LURE	1831023	n/a	LTP081	ltpFR	15	1	n/a	NEEDLE	941	0	4	n/a	n/a	n/a	n/a	n/a	n/a
3662.864	n/a	RECOG_RESP	1831432	n/a	LTP081	ltpFR	15	1	n/a	NEEDLE	941	0	n/a	n/a	n/a	n/a	n/a	n/a	n/a
3663.352	n/a	RECOG_CONF	1831676	n/a	LTP081	ltpFR	15	1	n/a	NEEDLE	941	n/a	4	n/a	n/a	n/a	n/a	n/a	n/a
3664.788	n/a	RECOG_TARGET	1832394	n/a	LTP081	ltpFR	15	1	-1	HOSPITAL	721	1	5	-1	n/a	n/a	n/a	n/a	n/a
3665.658	n/a	RECOG_RESP	1832829	n/a	LTP081	ltpFR	15	1	-1	HOSPITAL	721	1	n/a	-1	n/a	n/a	n/a	n/a	n/a
3666.168	n/a	RECOG_CONF	1833084	n/a	LTP081	ltpFR	15	1	-1	HOSPITAL	721	n/a	5	-1	n/a	n/a	n/a	n/a	n/a
3667.62	n/a	RECOG_TARGET	1833810	n/a	LTP081	ltpFR	15	1	1	THREAD	1460	1	5	0	n/a	n/a	n/a	n/a	n/a
3668.322	n/a	RECOG_RESP	1834161	n/a	LTP081	ltpFR	15	1	1	THREAD	1460	1	n/a	0	n/a	n/a	n/a	n/a	n/a
3668.832	n/a	RECOG_CONF	1834416	n/a	LTP081	ltpFR	15	1	1	THREAD	1460	n/a	5	0	n/a	n/a	n/a	n/a	n/a
3670.196	n/a	RECOG_TARGET	1835098	n/a	LTP081	ltpFR	15	1	-1	DOCTOR	478	1	5	-1	n/a	n/a	n/a	n/a	n/a
3670.708	n/a	RECOG_RESP	1835354	n/a	LTP081	ltpFR	15	1	-1	DOCTOR	478	1	n/a	-1	n/a	n/a	n/a	n/a	n/a
3671.196	n/a	RECOG_CONF	1835598	n/a	LTP081	ltpFR	15	1	-1	DOCTOR	478	n/a	5	-1	n/a	n/a	n/a	n/a	n/a
3672.57	n/a	RECOG_LURE	1836285	n/a	LTP081	ltpFR	15	1	n/a	POTATO	1115	0	3	n/a	n/a	n/a	n/a	n/a	n/a
3673.172	n/a	RECOG_RESP	1836586	n/a	LTP081	ltpFR	15	1	n/a	POTATO	1115	0	n/a	n/a	n/a	n/a	n/a	n/a	n/a
3673.68	n/a	RECOG_CONF	1836840	n/a	LTP081	ltpFR	15	1	n/a	POTATO	1115	n/a	3	n/a	n/a	n/a	n/a	n/a	n/a
3675.094	n/a	RECOG_TARGET	1837547	n/a	LTP081	ltpFR	15	1	1	TREE	1502	1	4	0	n/a	n/a	n/a	n/a	n/a
3675.756	n/a	RECOG_RESP	1837878	n/a	LTP081	ltpFR	15	1	1	TREE	1502	1	n/a	0	n/a	n/a	n/a	n/a	n/a
3676.384	n/a	RECOG_CONF	1838192	n/a	LTP081	ltpFR	15	1	1	TREE	1502	n/a	4	0	n/a	n/a	n/a	n/a	n/a
3677.694	n/a	RECOG_TARGET	1838847	n/a	LTP081	ltpFR	15	1	1	AUDIENCE	59	1	5	1	n/a	n/a	n/a	n/a	n/a
3678.38	n/a	RECOG_RESP	1839190	n/a	LTP081	ltpFR	15	1	1	AUDIENCE	59	1	n/a	1	n/a	n/a	n/a	n/a	n/a
3678.858	n/a	RECOG_CONF	1839429	n/a	LTP081	ltpFR	15	1	1	AUDIENCE	59	n/a	5	1	n/a	n/a	n/a	n/a	n/a
3680.228	n/a	RECOG_TARGET	1840114	n/a	LTP081	ltpFR	15	1	-1	PUDDLE	1140	1	5	-1	n/a	n/a	n/a	n/a	n/a
3680.754	n/a	RECOG_RESP	1840377	n/a	LTP081	ltpFR	15	1	-1	PUDDLE	1140	1	n/a	-1	n/a	n/a	n/a	n/a	n/a
3681.244	n/a	RECOG_CONF	1840622	n/a	LTP081	ltpFR	15	1	-1	PUDDLE	1140	n/a	5	-1	n/a	n/a	n/a	n/a	n/a
3682.56	n/a	RECOG_TARGET	1841280	n/a	LTP081	ltpFR	15	1	-1	TANGERINE	1431	1	5	-1	n/a	n/a	n/a	n/a	n/a
3683.11	n/a	RECOG_RESP	1841555	n/a	LTP081	ltpFR	15	1	-1	TANGERINE	1431	1	n/a	-1	n/a	n/a	n/a	n/a	n/a
3683.608	n/a	RECOG_CONF	1841804	n/a	LTP081	ltpFR	15	1	-1	TANGERINE	1431	n/a	5	-1	n/a	n/a	n/a	n/a	n/a
3685.054	n/a	RECOG_TARGET	1842527	n/a	LTP081	ltpFR	15	1	-1	ESSAY	540	1	4	-1	n/a	n/a	n/a	n/a	n/a
3685.574	n/a	RECOG_RESP	1842787	n/a	LTP081	ltpFR	15	1	-1	ESSAY	540	1	n/a	-1	n/a	n/a	n/a	n/a	n/a
3686.084	n/a	RECOG_CONF	1843042	n/a	LTP081	ltpFR	15	1	-1	ESSAY	540	n/a	4	-1	n/a	n/a	n/a	n/a	n/a
3687.478	n/a	RECOG_TARGET	1843739	n/a	LTP081	ltpFR	15	1	1	SERVER	1272	1	5	1	n/a	n/a	n/a	n/a	n/a
3687.968	n/a	RECOG_RESP	1843984	n/a	LTP081	ltpFR	15	1	1	SERVER	1272	1	n/a	1	n/a	n/a	n/a	n/a	n/a
3688.498	n/a	RECOG_CONF	1844249	n/a	LTP081	ltpFR	15	1	1	SERVER	1272	n/a	5	1	n/a	n/a	n/a	n/a	n/a
3689.82	n/a	RECOG_TARGET	1844910	n/a	LTP081	ltpFR	15	1	1	TRUMPET	1513	0	3	0	n/a	n/a	n/a	n/a	n/a
3690.298	n/a	RECOG_RESP_VV	1845149	n/a	LTP081	ltpFR	15	1	1	TRUMPET	1513	1	n/a	0	n/a	n/a	n/a	n/a	n/a
3691.63	n/a	RECOG_RESP	1845815	n/a	LTP081	ltpFR	15	1	1	TRUMPET	1513	0	n/a	0	n/a	n/a	n/a	n/a	n/a
3692.21	n/a	RECOG_CONF	1846105	n/a	LTP081	ltpFR	15	1	1	TRUMPET	1513	n/a	3	0	n/a	n/a	n/a	n/a	n/a
3693.694	n/a	RECOG_LURE	1846847	n/a	LTP081	ltpFR	15	1	n/a	SHRINE	1298	0	4	n/a	n/a	n/a	n/a	n/a	n/a
3694.494	n/a	RECOG_RESP	1847247	n/a	LTP081	ltpFR	15	1	n/a	SHRINE	1298	0	n/a	n/a	n/a	n/a	n/a	n/a	n/a
3694.958	n/a	RECOG_CONF	1847479	n/a	LTP081	ltpFR	15	1	n/a	SHRINE	1298	n/a	4	n/a	n/a	n/a	n/a	n/a	n/a
3696.294	n/a	RECOG_TARGET	1848147	n/a	LTP081	ltpFR	15	1	-1	ATTIRE	57	1	5	-1	n/a	n/a	n/a	n/a	n/a
3697.178	n/a	RECOG_RESP	1848589	n/a	LTP081	ltpFR	15	1	-1	ATTIRE	57	1	n/a	-1	n/a	n/a	n/a	n/a	n/a
3697.646	n/a	RECOG_CONF	1848823	n/a	LTP081	ltpFR	15	1	-1	ATTIRE	57	n/a	5	-1	n/a	n/a	n/a	n/a	n/a
3699.01	n/a	RECOG_LURE	1849505	n/a	LTP081	ltpFR	15	1	n/a	HAMMOCK	681	0	4	n/a	n/a	n/a	n/a	n/a	n/a
3699.652	n/a	RECOG_RESP	1849826	n/a	LTP081	ltpFR	15	1	n/a	HAMMOCK	681	0	n/a	n/a	n/a	n/a	n/a	n/a	n/a
3700.136	n/a	RECOG_CONF	1850068	n/a	LTP081	ltpFR	15	1	n/a	HAMMOCK	681	n/a	4	n/a	n/a	n/a	n/a	n/a	n/a
3701.386	n/a	RECOG_TARGET	1850693	n/a	LTP081	ltpFR	15	1	0	CHILD	299	1	3	1	n/a	n/a	n/a	n/a	n/a
3702.072	n/a	RECOG_RESP	1851036	n/a	LTP081	ltpFR	15	1	0	CHILD	299	1	n/a	1	n/a	n/a	n/a	n/a	n/a
3702.586	n/a	RECOG_CONF	1851293	n/a	LTP081	ltpFR	15	1	0	CHILD	299	n/a	3	1	n/a	n/a	n/a	n/a	n/a
3703.936	n/a	RECOG_TARGET	1851968	n/a	LTP081	ltpFR	15	1	0	DUMP	505	1	5	1	n/a	n/a	n/a	n/a	n/a
3704.562	n/a	RECOG_RESP	1852281	n/a	LTP081	ltpFR	15	1	0	DUMP	505	1	n/a	1	n/a	n/a	n/a	n/a	n/a
3704.992	n/a	RECOG_CONF	1852496	n/a	LTP081	ltpFR	15	1	0	DUMP	505	n/a	5	1	n/a	n/a	n/a	n/a	n/a
3706.426	n/a	RECOG_TARGET	1853213	n/a	LTP081	ltpFR	15	1	1	WORM	1623	1	5	1	n/a	n/a	n/a	n/a	n/a
3706.922	n/a	RECOG_RESP	1853461	n/a	LTP081	ltpFR	15	1	1	WORM	1623	1	n/a	1	n/a	n/a	n/a	n/a	n/a
3707.366	n/a	RECOG_CONF	1853683	n/a	LTP081	ltpFR	15	1	1	WORM	1623	n/a	5	1	n/a	n/a	n/a	n/a	n/a
3710.386	n/a	REC_START	1855193	n/a	LTP081	ltpFR	15	2	n/a	n/a	n/a	n/a	n/a	n/a	n/a	n/a	n/a	n/a	n/a
3710.418	n/a	RECOG_LURE	1855209	n/a	LTP081	ltpFR	15	2	n/a	CRICKET	408	0	3	n/a	n/a	n/a	n/a	n/a	n/a
3711.418	n/a	RECOG_RESP	1855709	n/a	LTP081	ltpFR	15	2	n/a	CRICKET	408	0	n/a	n/a	n/a	n/a	n/a	n/a	n/a
3711.906	n/a	RECOG_CONF	1855953	n/a	LTP081	ltpFR	15	2	n/a	CRICKET	408	n/a	3	n/a	n/a	n/a	n/a	n/a	n/a
3713.27	n/a	RECOG_LURE	1856635	n/a	LTP081	ltpFR	15	2	n/a	PANTHER	1009	0	4	n/a	n/a	n/a	n/a	n/a	n/a
3714.046	n/a	RECOG_RESP	1857023	n/a	LTP081	ltpFR	15	2	n/a	PANTHER	1009	0	n/a	n/a	n/a	n/a	n/a	n/a	n/a
3714.54	n/a	RECOG_CONF	1857270	n/a	LTP081	ltpFR	15	2	n/a	PANTHER	1009	n/a	4	n/a	n/a	n/a	n/a	n/a	n/a
3715.836	n/a	RECOG_TARGET	1857918	n/a	LTP081	ltpFR	15	2	0	BOULDER	155	1	5	1	n/a	n/a	n/a	n/a	n/a
3716.562	n/a	RECOG_RESP	1858281	n/a	LTP081	ltpFR	15	2	0	BOULDER	155	1	n/a	1	n/a	n/a	n/a	n/a	n/a
3716.946	n/a	RECOG_CONF	1858473	n/a	LTP081	ltpFR	15	2	0	BOULDER	155	n/a	5	1	n/a	n/a	n/a	n/a	n/a
3718.318	n/a	RECOG_TARGET	1859159	n/a	LTP081	ltpFR	15	2	0	TUBA	1515	1	5	1	n/a	n/a	n/a	n/a	n/a
3718.802	n/a	RECOG_RESP	1859401	n/a	LTP081	ltpFR	15	2	0	TUBA	1515	1	n/a	1	n/a	n/a	n/a	n/a	n/a
3719.23	n/a	RECOG_CONF	1859615	n/a	LTP081	ltpFR	15	2	0	TUBA	1515	n/a	5	1	n/a	n/a	n/a	n/a	n/a
3720.686	n/a	RECOG_TARGET	1860343	n/a	LTP081	ltpFR	15	2	0	ASTRONAUT	51	1	5	1	n/a	n/a	n/a	n/a	n/a
3721.162	n/a	RECOG_RESP	1860581	n/a	LTP081	ltpFR	15	2	0	ASTRONAUT	51	1	n/a	1	n/a	n/a	n/a	n/a	n/a
3721.626	n/a	RECOG_CONF	1860813	n/a	LTP081	ltpFR	15	2	0	ASTRONAUT	51	n/a	5	1	n/a	n/a	n/a	n/a	n/a
3723.086	n/a	RECOG_TARGET	1861543	n/a	LTP081	ltpFR	15	2	-1	LINEN	825	1	5	-1	n/a	n/a	n/a	n/a	n/a
3723.532	n/a	RECOG_RESP	1861766	n/a	LTP081	ltpFR	15	2	-1	LINEN	825	1	n/a	-1	n/a	n/a	n/a	n/a	n/a
3723.97	n/a	RECOG_CONF	1861985	n/a	LTP081	ltpFR	15	2	-1	LINEN	825	n/a	5	-1	n/a	n/a	n/a	n/a	n/a
3725.544	n/a	RECOG_LURE	1862772	n/a	LTP081	ltpFR	15	2	n/a	HAMBURGER	679	0	4	n/a	n/a	n/a	n/a	n/a	n/a
3726.266	n/a	RECOG_RESP	1863133	n/a	LTP081	ltpFR	15	2	n/a	HAMBURGER	679	0	n/a	n/a	n/a	n/a	n/a	n/a	n/a
3726.776	n/a	RECOG_CONF	1863388	n/a	LTP081	ltpFR	15	2	n/a	HAMBURGER	679	n/a	4	n/a	n/a	n/a	n/a	n/a	n/a
3728.194	n/a	RECOG_TARGET	1864097	n/a	LTP081	ltpFR	15	2	0	PAGE	1001	1	5	0	n/a	n/a	n/a	n/a	n/a
3728.834	n/a	RECOG_RESP	1864417	n/a	LTP081	ltpFR	15	2	0	PAGE	1001	1	n/a	0	n/a	n/a	n/a	n/a	n/a
3729.268	n/a	RECOG_CONF	1864634	n/a	LTP081	ltpFR	15	2	0	PAGE	1001	n/a	5	0	n/a	n/a	n/a	n/a	n/a
3730.76	n/a	RECOG_TARGET	1865380	n/a	LTP081	ltpFR	15	2	-1	EUROPE	541	1	5	-1	n/a	n/a	n/a	n/a	n/a
3731.234	n/a	RECOG_RESP	1865617	n/a	LTP081	ltpFR	15	2	-1	EUROPE	541	1	n/a	-1	n/a	n/a	n/a	n/a	n/a
3731.662	n/a	RECOG_CONF	1865831	n/a	LTP081	ltpFR	15	2	-1	EUROPE	541	n/a	5	-1	n/a	n/a	n/a	n/a	n/a
3733.102	n/a	RECOG_TARGET	1866551	n/a	LTP081	ltpFR	15	2	1	JACKET	747	0	3	0	n/a	n/a	n/a	n/a	n/a
3734.078	n/a	RECOG_RESP	1867039	n/a	LTP081	ltpFR	15	2	1	JACKET	747	0	n/a	0	n/a	n/a	n/a	n/a	n/a
3734.666	n/a	RECOG_CONF	1867333	n/a	LTP081	ltpFR	15	2	1	JACKET	747	n/a	3	0	n/a	n/a	n/a	n/a	n/a
3736.102	n/a	RECOG_TARGET	1868051	n/a	LTP081	ltpFR	15	2	-1	IDOL	733	1	5	-1	n/a	n/a	n/a	n/a	n/a
3736.672	n/a	RECOG_RESP	1868336	n/a	LTP081	ltpFR	15	2	-1	IDOL	733	1	n/a	-1	n/a	n/a	n/a	n/a	n/a
3737.13	n/a	RECOG_CONF	1868565	n/a	LTP081	ltpFR	15	2	-1	IDOL	733	n/a	5	-1	n/a	n/a	n/a	n/a	n/a
3738.558	n/a	RECOG_LURE	1869279	n/a	LTP081	ltpFR	15	2	n/a	FRIEND	606	0	4	n/a	n/a	n/a	n/a	n/a	n/a
3739.526	n/a	RECOG_RESP	1869763	n/a	LTP081	ltpFR	15	2	n/a	FRIEND	606	0	n/a	n/a	n/a	n/a	n/a	n/a	n/a
3740.036	n/a	RECOG_CONF	1870018	n/a	LTP081	ltpFR	15	2	n/a	FRIEND	606	n/a	4	n/a	n/a	n/a	n/a	n/a	n/a
3741.352	n/a	RECOG_TARGET	1870676	n/a	LTP081	ltpFR	15	2	0	DRAWING	494	1	4	1	n/a	n/a	n/a	n/a	n/a
3742.814	n/a	RECOG_RESP	1871407	n/a	LTP081	ltpFR	15	2	0	DRAWING	494	1	n/a	1	n/a	n/a	n/a	n/a	n/a
3743.368	n/a	RECOG_CONF	1871684	n/a	LTP081	ltpFR	15	2	0	DRAWING	494	n/a	4	1	n/a	n/a	n/a	n/a	n/a
3744.728	n/a	RECOG_TARGET	1872364	n/a	LTP081	ltpFR	15	2	1	COOKBOOK	373	1	5	0	n/a	n/a	n/a	n/a	n/a
3745.372	n/a	RECOG_RESP	1872686	n/a	LTP081	ltpFR	15	2	1	COOKBOOK	373	1	n/a	0	n/a	n/a	n/a	n/a	n/a
3745.832	n/a	RECOG_CONF	1872916	n/a	LTP081	ltpFR	15	2	1	COOKBOOK	373	n/a	5	0	n/a	n/a	n/a	n/a	n/a
3747.194	n/a	RECOG_TARGET	1873597	n/a	LTP081	ltpFR	15	2	1	PARROT	1015	1	5	1	n/a	n/a	n/a	n/a	n/a
3747.668	n/a	RECOG_RESP	1873834	n/a	LTP081	ltpFR	15	2	1	PARROT	1015	1	n/a	1	n/a	n/a	n/a	n/a	n/a
3748.126	n/a	RECOG_CONF	1874063	n/a	LTP081	ltpFR	15	2	1	PARROT	1015	n/a	5	1	n/a	n/a	n/a	n/a	n/a
3749.458	n/a	RECOG_TARGET	1874729	n/a	LTP081	ltpFR	15	2	1	SOFTBALL	1343	1	4	0	n/a	n/a	n/a	n/a	n/a
3750.002	n/a	RECOG_RESP	1875001	n/a	LTP081	ltpFR	15	2	1	SOFTBALL	1343	1	n/a	0	n/a	n/a	n/a	n/a	n/a
3750.512	n/a	RECOG_CONF	1875256	n/a	LTP081	ltpFR	15	2	1	SOFTBALL	1343	n/a	4	0	n/a	n/a	n/a	n/a	n/a
3751.776	n/a	RECOG_LURE	1875888	n/a	LTP081	ltpFR	15	2	n/a	RASPBERRY	1168	1	5	n/a	n/a	n/a	n/a	n/a	n/a
3752.502	n/a	RECOG_RESP	1876251	n/a	LTP081	ltpFR	15	2	n/a	RASPBERRY	1168	1	n/a	n/a	n/a	n/a	n/a	n/a	n/a
3752.948	n/a	RECOG_CONF	1876474	n/a	LTP081	ltpFR	15	2	n/a	RASPBERRY	1168	n/a	5	n/a	n/a	n/a	n/a	n/a	n/a
3754.334	n/a	RECOG_LURE	1877167	n/a	LTP081	ltpFR	15	2	n/a	MOUSE	925	0	4	n/a	n/a	n/a	n/a	n/a	n/a
3755.066	n/a	RECOG_RESP	1877533	n/a	LTP081	ltpFR	15	2	n/a	MOUSE	925	0	n/a	n/a	n/a	n/a	n/a	n/a	n/a
3755.604	n/a	RECOG_CONF	1877802	n/a	LTP081	ltpFR	15	2	n/a	MOUSE	925	n/a	4	n/a	n/a	n/a	n/a	n/a	n/a
3756.952	n/a	RECOG_TARGET	1878476	n/a	LTP081	ltpFR	15	2	1	YARN	1631	1	5	0	n/a	n/a	n/a	n/a	n/a
3757.57	n/a	RECOG_RESP	1878785	n/a	LTP081	ltpFR	15	2	1	YARN	1631	1	n/a	0	n/a	n/a	n/a	n/a	n/a
3758.014	n/a	RECOG_CONF	1879007	n/a	LTP081	ltpFR	15	2	1	YARN	1631	n/a	5	0	n/a	n/a	n/a	n/a	n/a
3759.326	n/a	RECOG_LURE	1879663	n/a	LTP081	ltpFR	15	2	n/a	FAN	551	0	2	n/a	n/a	n/a	n/a	n/a	n/a
3760.564	n/a	RECOG_RESP	1880282	n/a	LTP081	ltpFR	15	2	n/a	FAN	551	0	n/a	n/a	n/a	n/a	n/a	n/a	n/a
3761.186	n/a	RECOG_CONF	1880593	n/a	LTP081	ltpFR	15	2	n/a	FAN	551	n/a	2	n/a	n/a	n/a	n/a	n/a	n/a
3764.192	n/a	REC_START	1882096	n/a	LTP081	ltpFR	15	3	n/a	n/a	n/a	n/a	n/a	n/a	n/a	n/a	n/a	n/a	n/a
3764.226	n/a	RECOG_TARGET	1882113	n/a	LTP081	ltpFR	15	3	1	POLYESTER	1100	1	5	0	n/a	n/a	n/a	n/a	n/a
3765.484	n/a	RECOG_RESP	1882742	n/a	LTP081	ltpFR	15	3	1	POLYESTER	1100	1	n/a	0	n/a	n/a	n/a	n/a	n/a
3765.944	n/a	RECOG_CONF	1882972	n/a	LTP081	ltpFR	15	3	1	POLYESTER	1100	n/a	5	0	n/a	n/a	n/a	n/a	n/a
3767.376	n/a	RECOG_TARGET	1883688	n/a	LTP081	ltpFR	15	3	0	SCALLOP	1242	1	5	0	n/a	n/a	n/a	n/a	n/a
3767.958	n/a	RECOG_RESP	1883979	n/a	LTP081	ltpFR	15	3	0	SCALLOP	1242	1	n/a	0	n/a	n/a	n/a	n/a	n/a
3768.418	n/a	RECOG_CONF	1884209	n/a	LTP081	ltpFR	15	3	0	SCALLOP	1242	n/a	5	0	n/a	n/a	n/a	n/a	n/a
3769.81	n/a	RECOG_TARGET	1884905	n/a	LTP081	ltpFR	15	3	1	REPTILE	1185	1	5	1	n/a	n/a	n/a	n/a	n/a
3770.474	n/a	RECOG_RESP	1885237	n/a	LTP081	ltpFR	15	3	1	REPTILE	1185	1	n/a	1	n/a	n/a	n/a	n/a	n/a
3770.922	n/a	RECOG_CONF	1885461	n/a	LTP081	ltpFR	15	3	1	REPTILE	1185	n/a	5	1	n/a	n/a	n/a	n/a	n/a
3772.36	n/a	RECOG_LURE	1886180	n/a	LTP081	ltpFR	15	3	n/a	STATUE	1374	0	4	n/a	n/a	n/a	n/a	n/a	n/a
3773.176	n/a	RECOG_RESP	1886588	n/a	LTP081	ltpFR	15	3	n/a	STATUE	1374	0	n/a	n/a	n/a	n/a	n/a	n/a	n/a
3773.688	n/a	RECOG_CONF	1886844	n/a	LTP081	ltpFR	15	3	n/a	STATUE	1374	n/a	4	n/a	n/a	n/a	n/a	n/a	n/a
3774.86	n/a	RECOG_TARGET	1887430	n/a	LTP081	ltpFR	15	3	1	TONGUE	1479	1	5	0	n/a	n/a	n/a	n/a	n/a
3775.482	n/a	RECOG_RESP	1887741	n/a	LTP081	ltpFR	15	3	1	TONGUE	1479	1	n/a	0	n/a	n/a	n/a	n/a	n/a
3775.97	n/a	RECOG_CONF	1887985	n/a	LTP081	ltpFR	15	3	1	TONGUE	1479	n/a	5	0	n/a	n/a	n/a	n/a	n/a
3777.358	n/a	RECOG_LURE	1888679	n/a	LTP081	ltpFR	15	3	n/a	GOOSE	649	0	3	n/a	n/a	n/a	n/a	n/a	n/a
3778.226	n/a	RECOG_RESP	1889113	n/a	LTP081	ltpFR	15	3	n/a	GOOSE	649	0	n/a	n/a	n/a	n/a	n/a	n/a	n/a
3778.744	n/a	RECOG_CONF	1889372	n/a	LTP081	ltpFR	15	3	n/a	GOOSE	649	n/a	3	n/a	n/a	n/a	n/a	n/a	n/a
3780.142	n/a	RECOG_TARGET	1890071	n/a	LTP081	ltpFR	15	3	-1	PORTRAIT	1111	1	4	-1	n/a	n/a	n/a	n/a	n/a
3780.82	n/a	RECOG_RESP	1890410	n/a	LTP081	ltpFR	15	3	-1	PORTRAIT	1111	1	n/a	-1	n/a	n/a	n/a	n/a	n/a
3781.278	n/a	RECOG_CONF	1890639	n/a	LTP081	ltpFR	15	3	-1	PORTRAIT	1111	n/a	4	-1	n/a	n/a	n/a	n/a	n/a
3782.584	n/a	RECOG_TARGET	1891292	n/a	LTP081	ltpFR	15	3	-1	VICTIM	1562	0	4	-1	n/a	n/a	n/a	n/a	n/a
3783.42	n/a	RECOG_RESP	1891710	n/a	LTP081	ltpFR	15	3	-1	VICTIM	1562	0	n/a	-1	n/a	n/a	n/a	n/a	n/a
3783.982	n/a	RECOG_CONF	1891991	n/a	LTP081	ltpFR	15	3	-1	VICTIM	1562	n/a	4	-1	n/a	n/a	n/a	n/a	n/a
3785.35	n/a	RECOG_TARGET	1892675	n/a	LTP081	ltpFR	15	3	0	TRIGGER	1507	1	5	0	n/a	n/a	n/a	n/a	n/a
3787.002	n/a	RECOG_RESP	1893501	n/a	LTP081	ltpFR	15	3	0	TRIGGER	1507	1	n/a	0	n/a	n/a	n/a	n/a	n/a
3787.516	n/a	RECOG_CONF	1893758	n/a	LTP081	ltpFR	15	3	0	TRIGGER	1507	n/a	5	0	n/a	n/a	n/a	n/a	n/a
3788.976	n/a	RECOG_LURE	1894488	n/a	LTP081	ltpFR	15	3	n/a	FREEZER	604	1	3	n/a	n/a	n/a	n/a	n/a	n/a
3789.74	n/a	RECOG_RESP	1894870	n/a	LTP081	ltpFR	15	3	n/a	FREEZER	604	1	n/a	n/a	n/a	n/a	n/a	n/a	n/a
3790.318	n/a	RECOG_CONF	1895159	n/a	LTP081	ltpFR	15	3	n/a	FREEZER	604	n/a	3	n/a	n/a	n/a	n/a	n/a	n/a
3791.776	n/a	RECOG_TARGET	1895888	n/a	LTP081	ltpFR	15	3	1	RAFT	1159	1	4	0	n/a	n/a	n/a	n/a	n/a
3793.432	n/a	RECOG_RESP	1896716	n/a	LTP081	ltpFR	15	3	1	RAFT	1159	1	n/a	0	n/a	n/a	n/a	n/a	n/a
3793.91	n/a	RECOG_CONF	1896955	n/a	LTP081	ltpFR	15	3	1	RAFT	1159	n/a	4	0	n/a	n/a	n/a	n/a	n/a
3795.292	n/a	RECOG_TARGET	1897646	n/a	LTP081	ltpFR	15	3	0	WRITER	1627	1	3	1	n/a	n/a	n/a	n/a	n/a
3796.03	n/a	RECOG_RESP	1898015	n/a	LTP081	ltpFR	15	3	0	WRITER	1627	1	n/a	1	n/a	n/a	n/a	n/a	n/a
3796.634	n/a	RECOG_CONF	1898317	n/a	LTP081	ltpFR	15	3	0	WRITER	1627	n/a	3	1	n/a	n/a	n/a	n/a	n/a
3797.908	n/a	RECOG_TARGET	1898954	n/a	LTP081	ltpFR	15	3	-1	SNORKEL	1336	1	4	-1	n/a	n/a	n/a	n/a	n/a
3798.47	n/a	RECOG_RESP	1899235	n/a	LTP081	ltpFR	15	3	-1	SNORKEL	1336	1	n/a	-1	n/a	n/a	n/a	n/a	n/a
3798.91	n/a	RECOG_CONF	1899455	n/a	LTP081	ltpFR	15	3	-1	SNORKEL	1336	n/a	4	-1	n/a	n/a	n/a	n/a	n/a
3800.284	n/a	RECOG_LURE	1900142	n/a	LTP081	ltpFR	15	3	n/a	CLIPPERS	324	0	4	n/a	n/a	n/a	n/a	n/a	n/a
3800.964	n/a	RECOG_RESP	1900482	n/a	LTP081	ltpFR	15	3	n/a	CLIPPERS	324	0	n/a	n/a	n/a	n/a	n/a	n/a	n/a
3801.428	n/a	RECOG_CONF	1900714	n/a	LTP081	ltpFR	15	3	n/a	CLIPPERS	324	n/a	4	n/a	n/a	n/a	n/a	n/a	n/a
3802.784	n/a	RECOG_TARGET	1901392	n/a	LTP081	ltpFR	15	3	0	SENATOR	1268	1	5	1	n/a	n/a	n/a	n/a	n/a
3803.72	n/a	RECOG_RESP	1901860	n/a	LTP081	ltpFR	15	3	0	SENATOR	1268	1	n/a	1	n/a	n/a	n/a	n/a	n/a
3804.178	n/a	RECOG_CONF	1902089	n/a	LTP081	ltpFR	15	3	0	SENATOR	1268	n/a	5	1	n/a	n/a	n/a	n/a	n/a
3805.566	n/a	RECOG_TARGET	1902783	n/a	LTP081	ltpFR	15	3	0	LENS	811	1	5	0	n/a	n/a	n/a	n/a	n/a
3806.094	n/a	RECOG_RESP	1903047	n/a	LTP081	ltpFR	15	3	0	LENS	811	1	n/a	0	n/a	n/a	n/a	n/a	n/a
3806.564	n/a	RECOG_CONF	1903282	n/a	LTP081	ltpFR	15	3	0	LENS	811	n/a	5	0	n/a	n/a	n/a	n/a	n/a
3807.892	n/a	RECOG_LURE	1903946	n/a	LTP081	ltpFR	15	3	n/a	SKYSCRAPER	1322	0	4	n/a	n/a	n/a	n/a	n/a	n/a
3808.614	n/a	RECOG_RESP	1904307	n/a	LTP081	ltpFR	15	3	n/a	SKYSCRAPER	1322	0	n/a	n/a	n/a	n/a	n/a	n/a	n/a
3809.13	n/a	RECOG_CONF	1904565	n/a	LTP081	ltpFR	15	3	n/a	SKYSCRAPER	1322	n/a	4	n/a	n/a	n/a	n/a	n/a	n/a
3810.384	n/a	RECOG_TARGET	1905192	n/a	LTP081	ltpFR	15	3	-1	RADIATOR	1156	1	5	-1	n/a	n/a	n/a	n/a	n/a
3811.792	n/a	RECOG_RESP	1905896	n/a	LTP081	ltpFR	15	3	-1	RADIATOR	1156	1	n/a	-1	n/a	n/a	n/a	n/a	n/a
3812.38	n/a	RECOG_CONF	1906190	n/a	LTP081	ltpFR	15	3	-1	RADIATOR	1156	n/a	5	-1	n/a	n/a	n/a	n/a	n/a
3813.866	n/a	RECOG_LURE	1906933	n/a	LTP081	ltpFR	15	3	n/a	BEAST	108	0	2	n/a	n/a	n/a	n/a	n/a	n/a
3815.442	n/a	RECOG_RESP	1907721	n/a	LTP081	ltpFR	15	3	n/a	BEAST	108	0	n/a	n/a	n/a	n/a	n/a	n/a	n/a
3816.022	n/a	RECOG_CONF	1908011	n/a	LTP081	ltpFR	15	3	n/a	BEAST	108	n/a	2	n/a	n/a	n/a	n/a	n/a	n/a
3817.466	n/a	RECOG_TARGET	1908733	n/a	LTP081	ltpFR	15	3	1	OTTER	986	0	4	1	n/a	n/a	n/a	n/a	n/a
3818.176	n/a	RECOG_RESP	1909088	n/a	LTP081	ltpFR	15	3	1	OTTER	986	0	n/a	1	n/a	n/a	n/a	n/a	n/a
3818.688	n/a	RECOG_CONF	1909344	n/a	LTP081	ltpFR	15	3	1	OTTER	986	n/a	4	1	n/a	n/a	n/a	n/a	n/a
3821.918	n/a	REC_START	1910959	n/a	LTP081	ltpFR	15	4	n/a	n/a	n/a	n/a	n/a	n/a	n/a	n/a	n/a	n/a	n/a
3821.958	n/a	RECOG_TARGET	1910979	n/a	LTP081	ltpFR	15	4	0	HIGHWAY	707	1	4	1	n/a	n/a	n/a	n/a	n/a
3822.552	n/a	RECOG_RESP	1911276	n/a	LTP081	ltpFR	15	4	0	HIGHWAY	707	1	n/a	1	n/a	n/a	n/a	n/a	n/a
3823.05	n/a	RECOG_CONF	1911525	n/a	LTP081	ltpFR	15	4	0	HIGHWAY	707	n/a	4	1	n/a	n/a	n/a	n/a	n/a
3824.49	n/a	RECOG_TARGET	1912245	n/a	LTP081	ltpFR	15	4	1	CITIZEN	312	1	5	1	n/a	n/a	n/a	n/a	n/a
3825.096	n/a	RECOG_RESP	1912548	n/a	LTP081	ltpFR	15	4	1	CITIZEN	312	1	n/a	1	n/a	n/a	n/a	n/a	n/a
3825.556	n/a	RECOG_CONF	1912778	n/a	LTP081	ltpFR	15	4	1	CITIZEN	312	n/a	5	1	n/a	n/a	n/a	n/a	n/a
3826.992	n/a	RECOG_TARGET	1913496	n/a	LTP081	ltpFR	15	4	0	EDITOR	516	1	5	1	n/a	n/a	n/a	n/a	n/a
3827.49	n/a	RECOG_RESP	1913745	n/a	LTP081	ltpFR	15	4	0	EDITOR	516	1	n/a	1	n/a	n/a	n/a	n/a	n/a
3827.91	n/a	RECOG_CONF	1913955	n/a	LTP081	ltpFR	15	4	0	EDITOR	516	n/a	5	1	n/a	n/a	n/a	n/a	n/a
3829.474	n/a	RECOG_TARGET	1914737	n/a	LTP081	ltpFR	15	4	0	SWATTER	1418	1	5	0	n/a	n/a	n/a	n/a	n/a
3830.114	n/a	RECOG_RESP	1915057	n/a	LTP081	ltpFR	15	4	0	SWATTER	1418	1	n/a	0	n/a	n/a	n/a	n/a	n/a
3830.534	n/a	RECOG_CONF	1915267	n/a	LTP081	ltpFR	15	4	0	SWATTER	1418	n/a	5	0	n/a	n/a	n/a	n/a	n/a
3832.024	n/a	RECOG_TARGET	1916012	n/a	LTP081	ltpFR	15	4	0	CREVICE	405	1	5	0	n/a	n/a	n/a	n/a	n/a
3832.58	n/a	RECOG_RESP	1916290	n/a	LTP081	ltpFR	15	4	0	CREVICE	405	1	n/a	0	n/a	n/a	n/a	n/a	n/a
3833.038	n/a	RECOG_CONF	1916519	n/a	LTP081	ltpFR	15	4	0	CREVICE	405	n/a	5	0	n/a	n/a	n/a	n/a	n/a
3834.598	n/a	RECOG_TARGET	1917299	n/a	LTP081	ltpFR	15	4	1	GUARDIAN	668	1	5	1	n/a	n/a	n/a	n/a	n/a
3835.282	n/a	RECOG_RESP	1917641	n/a	LTP081	ltpFR	15	4	1	GUARDIAN	668	1	n/a	1	n/a	n/a	n/a	n/a	n/a
3835.732	n/a	RECOG_CONF	1917866	n/a	LTP081	ltpFR	15	4	1	GUARDIAN	668	n/a	5	1	n/a	n/a	n/a	n/a	n/a
3837.182	n/a	RECOG_TARGET	1918591	n/a	LTP081	ltpFR	15	4	0	SOCKET	1340	1	5	1	n/a	n/a	n/a	n/a	n/a
3837.788	n/a	RECOG_RESP	1918894	n/a	LTP081	ltpFR	15	4	0	SOCKET	1340	1	n/a	1	n/a	n/a	n/a	n/a	n/a
3838.216	n/a	RECOG_CONF	1919108	n/a	LTP081	ltpFR	15	4	0	SOCKET	1340	n/a	5	1	n/a	n/a	n/a	n/a	n/a
3839.808	n/a	RECOG_TARGET	1919904	n/a	LTP081	ltpFR	15	4	-1	STABLE	1363	1	5	-1	n/a	n/a	n/a	n/a	n/a
3840.412	n/a	RECOG_RESP	1920206	n/a	LTP081	ltpFR	15	4	-1	STABLE	1363	1	n/a	-1	n/a	n/a	n/a	n/a	n/a
3840.98	n/a	RECOG_CONF	1920490	n/a	LTP081	ltpFR	15	4	-1	STABLE	1363	n/a	5	-1	n/a	n/a	n/a	n/a	n/a
3842.448	n/a	RECOG_TARGET	1921224	n/a	LTP081	ltpFR	15	4	0	GARDEN	623	1	5	1	n/a	n/a	n/a	n/a	n/a
3843.096	n/a	RECOG_RESP	1921548	n/a	LTP081	ltpFR	15	4	0	GARDEN	623	1	n/a	1	n/a	n/a	n/a	n/a	n/a
3843.694	n/a	RECOG_CONF	1921847	n/a	LTP081	ltpFR	15	4	0	GARDEN	623	n/a	5	1	n/a	n/a	n/a	n/a	n/a
3845.158	n/a	RECOG_TARGET	1922579	n/a	LTP081	ltpFR	15	4	0	UNIFORM	1539	1	5	1	n/a	n/a	n/a	n/a	n/a
3845.78	n/a	RECOG_RESP	1922890	n/a	LTP081	ltpFR	15	4	0	UNIFORM	1539	1	n/a	1	n/a	n/a	n/a	n/a	n/a
3846.278	n/a	RECOG_CONF	1923139	n/a	LTP081	ltpFR	15	4	0	UNIFORM	1539	n/a	5	1	n/a	n/a	n/a	n/a	n/a
3847.832	n/a	RECOG_LURE	1923916	n/a	LTP081	ltpFR	15	4	n/a	BOOK	149	0	2	n/a	n/a	n/a	n/a	n/a	n/a
3848.784	n/a	RECOG_RESP	1924392	n/a	LTP081	ltpFR	15	4	n/a	BOOK	149	0	n/a	n/a	n/a	n/a	n/a	n/a	n/a
3849.332	n/a	RECOG_CONF	1924666	n/a	LTP081	ltpFR	15	4	n/a	BOOK	149	n/a	2	n/a	n/a	n/a	n/a	n/a	n/a
3850.774	n/a	RECOG_LURE	1925387	n/a	LTP081	ltpFR	15	4	n/a	BEDROOM	111	0	4	n/a	n/a	n/a	n/a	n/a	n/a
3851.596	n/a	RECOG_RESP	1925798	n/a	LTP081	ltpFR	15	4	n/a	BEDROOM	111	0	n/a	n/a	n/a	n/a	n/a	n/a	n/a
3852.13	n/a	RECOG_CONF	1926065	n/a	LTP081	ltpFR	15	4	n/a	BEDROOM	111	n/a	4	n/a	n/a	n/a	n/a	n/a	n/a
3853.498	n/a	RECOG_TARGET	1926749	n/a	LTP081	ltpFR	15	4	0	PREACHER	1119	1	5	1	n/a	n/a	n/a	n/a	n/a
3854.142	n/a	RECOG_RESP	1927071	n/a	LTP081	ltpFR	15	4	0	PREACHER	1119	1	n/a	1	n/a	n/a	n/a	n/a	n/a
3854.64	n/a	RECOG_CONF	1927320	n/a	LTP081	ltpFR	15	4	0	PREACHER	1119	n/a	5	1	n/a	n/a	n/a	n/a	n/a
3856.032	n/a	RECOG_TARGET	1928016	n/a	LTP081	ltpFR	15	4	1	JUVENILE	767	1	5	1	n/a	n/a	n/a	n/a	n/a
3856.636	n/a	RECOG_RESP	1928318	n/a	LTP081	ltpFR	15	4	1	JUVENILE	767	1	n/a	1	n/a	n/a	n/a	n/a	n/a
3857.114	n/a	RECOG_CONF	1928557	n/a	LTP081	ltpFR	15	4	1	JUVENILE	767	n/a	5	1	n/a	n/a	n/a	n/a	n/a
3858.614	n/a	RECOG_TARGET	1929307	n/a	LTP081	ltpFR	15	4	1	BISCUIT	130	1	5	0	n/a	n/a	n/a	n/a	n/a
3859.22	n/a	RECOG_RESP	1929610	n/a	LTP081	ltpFR	15	4	1	BISCUIT	130	1	n/a	0	n/a	n/a	n/a	n/a	n/a
3859.688	n/a	RECOG_CONF	1929844	n/a	LTP081	ltpFR	15	4	1	BISCUIT	130	n/a	5	0	n/a	n/a	n/a	n/a	n/a
3861.132	n/a	RECOG_TARGET	1930566	n/a	LTP081	ltpFR	15	4	0	SAUCER	1237	1	5	0	n/a	n/a	n/a	n/a	n/a
3861.768	n/a	RECOG_RESP	1930884	n/a	LTP081	ltpFR	15	4	0	SAUCER	1237	1	n/a	0	n/a	n/a	n/a	n/a	n/a
3862.324	n/a	RECOG_CONF	1931162	n/a	LTP081	ltpFR	15	4	0	SAUCER	1237	n/a	5	0	n/a	n/a	n/a	n/a	n/a
3863.766	n/a	RECOG_TARGET	1931883	n/a	LTP081	ltpFR	15	4	-1	SHED	1277	0	2	-1	n/a	n/a	n/a	n/a	n/a
3864.568	n/a	RECOG_RESP	1932284	n/a	LTP081	ltpFR	15	4	-1	SHED	1277	0	n/a	-1	n/a	n/a	n/a	n/a	n/a
3865.068	n/a	RECOG_CONF	1932534	n/a	LTP081	ltpFR	15	4	-1	SHED	1277	n/a	2	-1	n/a	n/a	n/a	n/a	n/a
3866.572	n/a	RECOG_TARGET	1933286	n/a	LTP081	ltpFR	15	4	1	TREAD	1499	1	2	0	n/a	n/a	n/a	n/a	n/a
3867.272	n/a	RECOG_RESP	1933636	n/a	LTP081	ltpFR	15	4	1	TREAD	1499	1	n/a	0	n/a	n/a	n/a	n/a	n/a
3867.99	n/a	RECOG_CONF	1933995	n/a	LTP081	ltpFR	15	4	1	TREAD	1499	n/a	2	0	n/a	n/a	n/a	n/a	n/a
3869.422	n/a	RECOG_TARGET	1934711	n/a	LTP081	ltpFR	15	4	1	CHAMPION	279	1	5	1	n/a	n/a	n/a	n/a	n/a
3870.036	n/a	RECOG_RESP	1935018	n/a	LTP081	ltpFR	15	4	1	CHAMPION	279	1	n/a	1	n/a	n/a	n/a	n/a	n/a
3870.554	n/a	RECOG_CONF	1935277	n/a	LTP081	ltpFR	15	4	1	CHAMPION	279	n/a	5	1	n/a	n/a	n/a	n/a	n/a
3871.982	n/a	RECOG_TARGET	1935991	n/a	LTP081	ltpFR	15	4	0	ANKLE	24	1	5	0	n/a	n/a	n/a	n/a	n/a
3872.52	n/a	RECOG_RESP	1936260	n/a	LTP081	ltpFR	15	4	0	ANKLE	24	1	n/a	0	n/a	n/a	n/a	n/a	n/a
3873.09	n/a	RECOG_CONF	1936545	n/a	LTP081	ltpFR	15	4	0	ANKLE	24	n/a	5	0	n/a	n/a	n/a	n/a	n/a
3876.108	n/a	REC_START	1938054	n/a	LTP081	ltpFR	15	5	n/a	n/a	n/a	n/a	n/a	n/a	n/a	n/a	n/a	n/a	n/a
3876.14	n/a	RECOG_TARGET	1938070	n/a	LTP081	ltpFR	15	5	0	TRUCK	1512	1	5	1	n/a	n/a	n/a	n/a	n/a
3876.602	n/a	RECOG_RESP	1938301	n/a	LTP081	ltpFR	15	5	0	TRUCK	1512	1	n/a	1	n/a	n/a	n/a	n/a	n/a
3877.09	n/a	RECOG_CONF	1938545	n/a	LTP081	ltpFR	15	5	0	TRUCK	1512	n/a	5	1	n/a	n/a	n/a	n/a	n/a
3878.572	n/a	RECOG_TARGET	1939286	n/a	LTP081	ltpFR	15	5	0	ANIMAL	23	1	5	1	n/a	n/a	n/a	n/a	n/a
3879.116	n/a	RECOG_RESP	1939558	n/a	LTP081	ltpFR	15	5	0	ANIMAL	23	1	n/a	1	n/a	n/a	n/a	n/a	n/a
3879.624	n/a	RECOG_CONF	1939812	n/a	LTP081	ltpFR	15	5	0	ANIMAL	23	n/a	5	1	n/a	n/a	n/a	n/a	n/a
3881.106	n/a	RECOG_LURE	1940553	n/a	LTP081	ltpFR	15	5	n/a	GODDESS	646	0	5	n/a	n/a	n/a	n/a	n/a	n/a
3881.774	n/a	RECOG_RESP	1940887	n/a	LTP081	ltpFR	15	5	n/a	GODDESS	646	0	n/a	n/a	n/a	n/a	n/a	n/a	n/a
3882.216	n/a	RECOG_CONF	1941108	n/a	LTP081	ltpFR	15	5	n/a	GODDESS	646	n/a	5	n/a	n/a	n/a	n/a	n/a	n/a
3883.706	n/a	RECOG_TARGET	1941853	n/a	LTP081	ltpFR	15	5	1	MONGOOSE	909	1	5	1	n/a	n/a	n/a	n/a	n/a
3884.664	n/a	RECOG_RESP	1942332	n/a	LTP081	ltpFR	15	5	1	MONGOOSE	909	1	n/a	1	n/a	n/a	n/a	n/a	n/a
3885.292	n/a	RECOG_CONF	1942646	n/a	LTP081	ltpFR	15	5	1	MONGOOSE	909	n/a	5	1	n/a	n/a	n/a	n/a	n/a
3886.79	n/a	RECOG_LURE	1943395	n/a	LTP081	ltpFR	15	5	n/a	HATCHET	691	0	4	n/a	n/a	n/a	n/a	n/a	n/a
3887.532	n/a	RECOG_RESP	1943766	n/a	LTP081	ltpFR	15	5	n/a	HATCHET	691	0	n/a	n/a	n/a	n/a	n/a	n/a	n/a
3888.026	n/a	RECOG_CONF	1944013	n/a	LTP081	ltpFR	15	5	n/a	HATCHET	691	n/a	4	n/a	n/a	n/a	n/a	n/a	n/a
3889.356	n/a	RECOG_TARGET	1944678	n/a	LTP081	ltpFR	15	5	0	LIEUTENANT	818	1	5	1	n/a	n/a	n/a	n/a	n/a
3889.972	n/a	RECOG_RESP	1944986	n/a	LTP081	ltpFR	15	5	0	LIEUTENANT	818	1	n/a	1	n/a	n/a	n/a	n/a	n/a
3890.45	n/a	RECOG_CONF	1945225	n/a	LTP081	ltpFR	15	5	0	LIEUTENANT	818	n/a	5	1	n/a	n/a	n/a	n/a	n/a
3891.948	n/a	RECOG_TARGET	1945974	n/a	LTP081	ltpFR	15	5	0	THIEF	1456	1	5	1	n/a	n/a	n/a	n/a	n/a
3892.456	n/a	RECOG_RESP	1946228	n/a	LTP081	ltpFR	15	5	0	THIEF	1456	1	n/a	1	n/a	n/a	n/a	n/a	n/a
3892.966	n/a	RECOG_CONF	1946483	n/a	LTP081	ltpFR	15	5	0	THIEF	1456	n/a	5	1	n/a	n/a	n/a	n/a	n/a
3894.364	n/a	RECOG_TARGET	1947182	n/a	LTP081	ltpFR	15	5	-1	LOBSTER	837	1	4	-1	n/a	n/a	n/a	n/a	n/a
3894.93	n/a	RECOG_RESP	1947465	n/a	LTP081	ltpFR	15	5	-1	LOBSTER	837	1	n/a	-1	n/a	n/a	n/a	n/a	n/a
3895.878	n/a	RECOG_CONF	1947939	n/a	LTP081	ltpFR	15	5	-1	LOBSTER	837	n/a	4	-1	n/a	n/a	n/a	n/a	n/a
3897.34	n/a	RECOG_TARGET	1948670	n/a	LTP081	ltpFR	15	5	-1	RIBBON	1189	1	5	-1	n/a	n/a	n/a	n/a	n/a
3897.824	n/a	RECOG_RESP	1948912	n/a	LTP081	ltpFR	15	5	-1	RIBBON	1189	1	n/a	-1	n/a	n/a	n/a	n/a	n/a
3898.292	n/a	RECOG_CONF	1949146	n/a	LTP081	ltpFR	15	5	-1	RIBBON	1189	n/a	5	-1	n/a	n/a	n/a	n/a	n/a
3899.622	n/a	RECOG_TARGET	1949811	n/a	LTP081	ltpFR	15	5	-1	CATHEDRAL	260	0	4	-1	n/a	n/a	n/a	n/a	n/a
3900.568	n/a	RECOG_RESP	1950284	n/a	LTP081	ltpFR	15	5	-1	CATHEDRAL	260	0	n/a	-1	n/a	n/a	n/a	n/a	n/a
3900.962	n/a	RECOG_CONF	1950481	n/a	LTP081	ltpFR	15	5	-1	CATHEDRAL	260	n/a	4	-1	n/a	n/a	n/a	n/a	n/a
3902.414	n/a	RECOG_TARGET	1951207	n/a	LTP081	ltpFR	15	5	1	BLUEJAY	141	1	2	1	n/a	n/a	n/a	n/a	n/a
3903.108	n/a	RECOG_RESP	1951554	n/a	LTP081	ltpFR	15	5	1	BLUEJAY	141	1	n/a	1	n/a	n/a	n/a	n/a	n/a
3903.692	n/a	RECOG_CONF	1951846	n/a	LTP081	ltpFR	15	5	1	BLUEJAY	141	n/a	2	1	n/a	n/a	n/a	n/a	n/a
3905.098	n/a	RECOG_TARGET	1952549	n/a	LTP081	ltpFR	15	5	0	VINE	1568	1	5	0	n/a	n/a	n/a	n/a	n/a
3905.628	n/a	RECOG_RESP	1952814	n/a	LTP081	ltpFR	15	5	0	VINE	1568	1	n/a	0	n/a	n/a	n/a	n/a	n/a
3906.106	n/a	RECOG_CONF	1953053	n/a	LTP081	ltpFR	15	5	0	VINE	1568	n/a	5	0	n/a	n/a	n/a	n/a	n/a
3907.488	n/a	RECOG_LURE	1953744	n/a	LTP081	ltpFR	15	5	n/a	CHIME	300	0	4	n/a	n/a	n/a	n/a	n/a	n/a
3908.162	n/a	RECOG_RESP	1954081	n/a	LTP081	ltpFR	15	5	n/a	CHIME	300	0	n/a	n/a	n/a	n/a	n/a	n/a	n/a
3908.696	n/a	RECOG_CONF	1954348	n/a	LTP081	ltpFR	15	5	n/a	CHIME	300	n/a	4	n/a	n/a	n/a	n/a	n/a	n/a
3909.93	n/a	RECOG_TARGET	1954965	n/a	LTP081	ltpFR	15	5	0	CREW	406	1	5	1	n/a	n/a	n/a	n/a	n/a
3910.646	n/a	RECOG_RESP	1955323	n/a	LTP081	ltpFR	15	5	0	CREW	406	1	n/a	1	n/a	n/a	n/a	n/a	n/a
3911.094	n/a	RECOG_CONF	1955547	n/a	LTP081	ltpFR	15	5	0	CREW	406	n/a	5	1	n/a	n/a	n/a	n/a	n/a
3912.404	n/a	RECOG_LURE	1956202	n/a	LTP081	ltpFR	15	5	n/a	BOARD	143	0	2	n/a	n/a	n/a	n/a	n/a	n/a
3913.32	n/a	RECOG_RESP	1956660	n/a	LTP081	ltpFR	15	5	n/a	BOARD	143	0	n/a	n/a	n/a	n/a	n/a	n/a	n/a
3913.878	n/a	RECOG_CONF	1956939	n/a	LTP081	ltpFR	15	5	n/a	BOARD	143	n/a	2	n/a	n/a	n/a	n/a	n/a	n/a
3915.298	n/a	RECOG_TARGET	1957649	n/a	LTP081	ltpFR	15	5	0	KEYBOARD	774	1	5	0	n/a	n/a	n/a	n/a	n/a
3916.024	n/a	RECOG_RESP	1958012	n/a	LTP081	ltpFR	15	5	0	KEYBOARD	774	1	n/a	0	n/a	n/a	n/a	n/a	n/a
3916.512	n/a	RECOG_CONF	1958256	n/a	LTP081	ltpFR	15	5	0	KEYBOARD	774	n/a	5	0	n/a	n/a	n/a	n/a	n/a
3917.872	n/a	RECOG_TARGET	1958936	n/a	LTP081	ltpFR	15	5	0	COUGAR	387	1	5	1	n/a	n/a	n/a	n/a	n/a
3918.434	n/a	RECOG_RESP	1959217	n/a	LTP081	ltpFR	15	5	0	COUGAR	387	1	n/a	1	n/a	n/a	n/a	n/a	n/a
3918.888	n/a	RECOG_CONF	1959444	n/a	LTP081	ltpFR	15	5	0	COUGAR	387	n/a	5	1	n/a	n/a	n/a	n/a	n/a
3920.272	n/a	RECOG_TARGET	1960136	n/a	LTP081	ltpFR	15	5	0	TREAT	1501	1	5	0	n/a	n/a	n/a	n/a	n/a
3920.942	n/a	RECOG_RESP	1960471	n/a	LTP081	ltpFR	15	5	0	TREAT	1501	1	n/a	0	n/a	n/a	n/a	n/a	n/a
3921.422	n/a	RECOG_CONF	1960711	n/a	LTP081	ltpFR	15	5	0	TREAT	1501	n/a	5	0	n/a	n/a	n/a	n/a	n/a
3922.83	n/a	RECOG_LURE	1961415	n/a	LTP081	ltpFR	15	5	n/a	TAR	1435	0	5	n/a	n/a	n/a	n/a	n/a	n/a
3923.488	n/a	RECOG_RESP	1961744	n/a	LTP081	ltpFR	15	5	n/a	TAR	1435	0	n/a	n/a	n/a	n/a	n/a	n/a	n/a
3923.952	n/a	RECOG_CONF	1961976	n/a	LTP081	ltpFR	15	5	n/a	TAR	1435	n/a	5	n/a	n/a	n/a	n/a	n/a	n/a
3925.322	n/a	RECOG_TARGET	1962661	n/a	LTP081	ltpFR	15	5	1	PIT	1077	1	5	3	n/a	n/a	n/a	n/a	n/a
3926.016	n/a	RECOG_RESP	1963008	n/a	LTP081	ltpFR	15	5	1	PIT	1077	1	n/a	3	n/a	n/a	n/a	n/a	n/a
3926.51	n/a	RECOG_CONF	1963255	n/a	LTP081	ltpFR	15	5	1	PIT	1077	n/a	5	3	n/a	n/a	n/a	n/a	n/a
3929.414	n/a	REC_START	1964707	n/a	LTP081	ltpFR	15	6	n/a	n/a	n/a	n/a	n/a	n/a	n/a	n/a	n/a	n/a	n/a
3929.446	n/a	RECOG_TARGET	1964723	n/a	LTP081	ltpFR	15	6	1	ASH	44	1	5	0	n/a	n/a	n/a	n/a	n/a
3930.018	n/a	RECOG_RESP	1965009	n/a	LTP081	ltpFR	15	6	1	ASH	44	1	n/a	0	n/a	n/a	n/a	n/a	n/a
3930.486	n/a	RECOG_CONF	1965243	n/a	LTP081	ltpFR	15	6	1	ASH	44	n/a	5	0	n/a	n/a	n/a	n/a	n/a
3931.872	n/a	RECOG_TARGET	1965936	n/a	LTP081	ltpFR	15	6	0	GIFT	635	1	5	1	n/a	n/a	n/a	n/a	n/a
3932.392	n/a	RECOG_RESP	1966196	n/a	LTP081	ltpFR	15	6	0	GIFT	635	1	n/a	1	n/a	n/a	n/a	n/a	n/a
3932.822	n/a	RECOG_CONF	1966411	n/a	LTP081	ltpFR	15	6	0	GIFT	635	n/a	5	1	n/a	n/a	n/a	n/a	n/a
3934.18	n/a	RECOG_TARGET	1967090	n/a	LTP081	ltpFR	15	6	1	TOOL	1480	1	5	0	n/a	n/a	n/a	n/a	n/a
3934.708	n/a	RECOG_RESP	1967354	n/a	LTP081	ltpFR	15	6	1	TOOL	1480	1	n/a	0	n/a	n/a	n/a	n/a	n/a
3935.166	n/a	RECOG_CONF	1967583	n/a	LTP081	ltpFR	15	6	1	TOOL	1480	n/a	5	0	n/a	n/a	n/a	n/a	n/a
3936.538	n/a	RECOG_TARGET	1968269	n/a	LTP081	ltpFR	15	6	-1	BOX	159	1	2	-1	n/a	n/a	n/a	n/a	n/a
3937.002	n/a	RECOG_RESP	1968501	n/a	LTP081	ltpFR	15	6	-1	BOX	159	1	n/a	-1	n/a	n/a	n/a	n/a	n/a
3938.25	n/a	RECOG_CONF	1969125	n/a	LTP081	ltpFR	15	6	-1	BOX	159	n/a	2	-1	n/a	n/a	n/a	n/a	n/a
3939.612	n/a	RECOG_TARGET	1969806	n/a	LTP081	ltpFR	15	6	1	WAITRESS	1581	1	5	1	n/a	n/a	n/a	n/a	n/a
3940.154	n/a	RECOG_RESP	1970077	n/a	LTP081	ltpFR	15	6	1	WAITRESS	1581	1	n/a	1	n/a	n/a	n/a	n/a	n/a
3940.624	n/a	RECOG_CONF	1970312	n/a	LTP081	ltpFR	15	6	1	WAITRESS	1581	n/a	5	1	n/a	n/a	n/a	n/a	n/a
3941.922	n/a	RECOG_TARGET	1970961	n/a	LTP081	ltpFR	15	6	0	POCKETBOOK	1094	1	5	1	n/a	n/a	n/a	n/a	n/a
3942.794	n/a	RECOG_RESP	1971397	n/a	LTP081	ltpFR	15	6	0	POCKETBOOK	1094	1	n/a	1	n/a	n/a	n/a	n/a	n/a
3943.308	n/a	RECOG_CONF	1971654	n/a	LTP081	ltpFR	15	6	0	POCKETBOOK	1094	n/a	5	1	n/a	n/a	n/a	n/a	n/a
3944.73	n/a	RECOG_TARGET	1972365	n/a	LTP081	ltpFR	15	6	-1	CLAM	315	1	5	-1	n/a	n/a	n/a	n/a	n/a
3945.28	n/a	RECOG_RESP	1972640	n/a	LTP081	ltpFR	15	6	-1	CLAM	315	1	n/a	-1	n/a	n/a	n/a	n/a	n/a
