onset	duration	trial_type	sample	stim_file	subject	experiment	session	trial	item_name	item_num	list	answer	test_x	test_y	test_z
-0.002	n/a	SESS_START	-1	n/a	LTP317	ltpFR2	12	n/a	n/a	n/a	n/a	n/a	0	0	0
207.9	n/a	SESS_START	103950	n/a	LTP317	ltpFR2	12	n/a	n/a	n/a	n/a	n/a	0	0	0
225.184	n/a	START	112592	n/a	LTP317	ltpFR2	12	n/a	n/a	n/a	-1	n/a	n/a	n/a	n/a
225.198	n/a	PROB	112599	n/a	LTP317	ltpFR2	12	n/a	n/a	n/a	-1	14	7	6	1
227.2	n/a	PROB	113600	n/a	LTP317	ltpFR2	12	n/a	n/a	n/a	-1	16	5	4	7
228.918	n/a	PROB	114459	n/a	LTP317	ltpFR2	12	n/a	n/a	n/a	-1	22	8	7	7
230.654	n/a	PROB	115327	n/a	LTP317	ltpFR2	12	n/a	n/a	n/a	-1	16	9	5	2
233.006	n/a	PROB	116503	n/a	LTP317	ltpFR2	12	n/a	n/a	n/a	-1	8	5	2	1
234.624	n/a	PROB	117312	n/a	LTP317	ltpFR2	12	n/a	n/a	n/a	-1	17	4	7	6
236.03	n/a	STOP	118015	n/a	LTP317	ltpFR2	12	n/a	n/a	n/a	-1	n/a	n/a	n/a	n/a
267.984	n/a	DISTRACTOR	133992	n/a	LTP317	ltpFR2	12	1	n/a	n/a	n/a	n/a	0	0	0
267.984	n/a	START	133992	n/a	LTP317	ltpFR2	12	n/a	n/a	n/a	1	n/a	n/a	n/a	n/a
268.002	n/a	PROB	134001	n/a	LTP317	ltpFR2	12	n/a	n/a	n/a	1	16	1	6	9
270.254	n/a	PROB	135127	n/a	LTP317	ltpFR2	12	n/a	n/a	n/a	1	14	3	7	4
271.504	n/a	PROB	135752	n/a	LTP317	ltpFR2	12	n/a	n/a	n/a	1	19	7	3	9
272.656	n/a	PROB	136328	n/a	LTP317	ltpFR2	12	n/a	n/a	n/a	1	19	8	6	5
274.508	n/a	PROB	137254	n/a	LTP317	ltpFR2	12	n/a	n/a	n/a	1	20	7	7	6
275.76	n/a	PROB	137880	n/a	LTP317	ltpFR2	12	n/a	n/a	n/a	1	17	5	4	8
277.56	n/a	PROB	138780	n/a	LTP317	ltpFR2	12	n/a	n/a	n/a	1	16	9	3	4
278.762	n/a	PROB	139381	n/a	LTP317	ltpFR2	12	n/a	n/a	n/a	1	17	6	7	4
280.128	n/a	PROB	140064	n/a	LTP317	ltpFR2	12	n/a	n/a	n/a	1	14	8	4	2
281.596	n/a	PROB	140798	n/a	LTP317	ltpFR2	12	n/a	n/a	n/a	1	16	6	9	1
284.482	n/a	PROB	142241	n/a	LTP317	ltpFR2	12	n/a	n/a	n/a	1	17	2	6	9
285.932	n/a	PROB	142966	n/a	LTP317	ltpFR2	12	n/a	n/a	n/a	1	16	4	5	7
287.368	n/a	PROB	143684	n/a	LTP317	ltpFR2	12	n/a	n/a	n/a	1	16	7	7	2
288.72	n/a	PROB	144360	n/a	LTP317	ltpFR2	12	n/a	n/a	n/a	1	18	3	8	7
290.236	n/a	PROB	145118	n/a	LTP317	ltpFR2	12	n/a	n/a	n/a	1	10	5	3	2
291.51	n/a	STOP	145755	n/a	LTP317	ltpFR2	12	n/a	n/a	n/a	1	n/a	n/a	n/a	n/a
292.888	n/a	WORD	146444	wordpools/wasnorm_wordpool_576.txt	LTP317	ltpFR2	12	1	PLAYGROUND	1087	n/a	n/a	0	0	0
295.358	n/a	WORD	147679	wordpools/wasnorm_wordpool_576.txt	LTP317	ltpFR2	12	1	CASHEW	253	n/a	n/a	0	0	0
298.044	n/a	WORD	149022	wordpools/wasnorm_wordpool_576.txt	LTP317	ltpFR2	12	1	CORAL	378	n/a	n/a	0	0	0
300.864	n/a	WORD	150432	wordpools/wasnorm_wordpool_576.txt	LTP317	ltpFR2	12	1	PEPPER	1047	n/a	n/a	0	0	0
303.664	n/a	WORD	151832	wordpools/wasnorm_wordpool_576.txt	LTP317	ltpFR2	12	1	FRIAR	605	n/a	n/a	0	0	0
306.118	n/a	WORD	153059	wordpools/wasnorm_wordpool_576.txt	LTP317	ltpFR2	12	1	CHURCH	307	n/a	n/a	0	0	0
308.686	n/a	WORD	154343	wordpools/wasnorm_wordpool_576.txt	LTP317	ltpFR2	12	1	ROCKET	1202	n/a	n/a	0	0	0
311.488	n/a	WORD	155744	wordpools/wasnorm_wordpool_576.txt	LTP317	ltpFR2	12	1	QUEEN	1149	n/a	n/a	0	0	0
314.008	n/a	WORD	157004	wordpools/wasnorm_wordpool_576.txt	LTP317	ltpFR2	12	1	OINTMENT	974	n/a	n/a	0	0	0
316.71	n/a	WORD	158355	wordpools/wasnorm_wordpool_576.txt	LTP317	ltpFR2	12	1	PARSLEY	1016	n/a	n/a	0	0	0
319.428	n/a	WORD	159714	wordpools/wasnorm_wordpool_576.txt	LTP317	ltpFR2	12	1	LABEL	790	n/a	n/a	0	0	0
322.064	n/a	WORD	161032	wordpools/wasnorm_wordpool_576.txt	LTP317	ltpFR2	12	1	MAILMAN	858	n/a	n/a	0	0	0
324.616	n/a	WORD	162308	wordpools/wasnorm_wordpool_576.txt	LTP317	ltpFR2	12	1	PREACHER	1119	n/a	n/a	0	0	0
327.268	n/a	WORD	163634	wordpools/wasnorm_wordpool_576.txt	LTP317	ltpFR2	12	1	CLOCK	325	n/a	n/a	0	0	0
330.004	n/a	WORD	165002	wordpools/wasnorm_wordpool_576.txt	LTP317	ltpFR2	12	1	MEAT	883	n/a	n/a	0	0	0
332.556	n/a	WORD	166278	wordpools/wasnorm_wordpool_576.txt	LTP317	ltpFR2	12	1	YARN	1631	n/a	n/a	0	0	0
335.142	n/a	WORD	167571	wordpools/wasnorm_wordpool_576.txt	LTP317	ltpFR2	12	1	ATOM	55	n/a	n/a	0	0	0
337.678	n/a	WORD	168839	wordpools/wasnorm_wordpool_576.txt	LTP317	ltpFR2	12	1	DENIM	446	n/a	n/a	0	0	0
340.162	n/a	WORD	170081	wordpools/wasnorm_wordpool_576.txt	LTP317	ltpFR2	12	1	DRESS	495	n/a	n/a	0	0	0
342.716	n/a	WORD	171358	wordpools/wasnorm_wordpool_576.txt	LTP317	ltpFR2	12	1	AIRPORT	13	n/a	n/a	0	0	0
345.4	n/a	WORD	172700	wordpools/wasnorm_wordpool_576.txt	LTP317	ltpFR2	12	1	POISON	1096	n/a	n/a	0	0	0
348.086	n/a	WORD	174043	wordpools/wasnorm_wordpool_576.txt	LTP317	ltpFR2	12	1	SLIDE	1326	n/a	n/a	0	0	0
350.654	n/a	WORD	175327	wordpools/wasnorm_wordpool_576.txt	LTP317	ltpFR2	12	1	ITEM	746	n/a	n/a	0	0	0
353.256	n/a	WORD	176628	wordpools/wasnorm_wordpool_576.txt	LTP317	ltpFR2	12	1	BEEF	113	n/a	n/a	0	0	0
354.876	n/a	START	177438	n/a	LTP317	ltpFR2	12	n/a	n/a	n/a	2	n/a	n/a	n/a	n/a
355.782	n/a	DISTRACTOR	177891	n/a	LTP317	ltpFR2	12	1	n/a	n/a	n/a	n/a	0	0	0
355.794	n/a	PROB	177897	n/a	LTP317	ltpFR2	12	n/a	n/a	n/a	2	12	5	5	2
357.544	n/a	PROB	178772	n/a	LTP317	ltpFR2	12	n/a	n/a	n/a	2	16	4	7	5
359.196	n/a	PROB	179598	n/a	LTP317	ltpFR2	12	n/a	n/a	n/a	2	18	1	9	8
360.53	n/a	PROB	180265	n/a	LTP317	ltpFR2	12	n/a	n/a	n/a	2	19	6	6	7
361.716	n/a	PROB	180858	n/a	LTP317	ltpFR2	12	n/a	n/a	n/a	2	24	7	8	9
363.35	n/a	PROB	181675	n/a	LTP317	ltpFR2	12	n/a	n/a	n/a	2	8	1	5	2
365.35	n/a	PROB	182675	n/a	LTP317	ltpFR2	12	n/a	n/a	n/a	2	20	4	8	8
367.352	n/a	PROB	183676	n/a	LTP317	ltpFR2	12	n/a	n/a	n/a	2	6	1	3	2
368.688	n/a	PROB	184344	n/a	LTP317	ltpFR2	12	n/a	n/a	n/a	2	7	3	1	3
371.188	n/a	PROB	185594	n/a	LTP317	ltpFR2	12	n/a	n/a	n/a	2	14	9	3	2
372.44	n/a	PROB	186220	n/a	LTP317	ltpFR2	12	n/a	n/a	n/a	2	11	2	7	2
375.092	n/a	PROB	187546	n/a	LTP317	ltpFR2	12	n/a	n/a	n/a	2	19	1	9	9
376.728	n/a	PROB	188364	n/a	LTP317	ltpFR2	12	n/a	n/a	n/a	2	14	5	4	5
378.064	n/a	STOP	189032	n/a	LTP317	ltpFR2	12	n/a	n/a	n/a	2	n/a	n/a	n/a	n/a
380.748	n/a	REC_START	190374	n/a	LTP317	ltpFR2	12	1	n/a	n/a	n/a	n/a	0	0	0
385.144	n/a	REC_WORD	192572	wordpools/wasnorm_wordpool_576.txt	LTP317	ltpFR2	12	1	PLAYGROUND	1087	n/a	n/a	0	0	0
386.678	n/a	REC_WORD	193339	wordpools/wasnorm_wordpool_576.txt	LTP317	ltpFR2	12	1	CASHEW	253	n/a	n/a	0	0	0
390.32	n/a	REC_WORD	195160	wordpools/wasnorm_wordpool_576.txt	LTP317	ltpFR2	12	1	CORAL	378	n/a	n/a	0	0	0
391.134	n/a	REC_WORD	195567	wordpools/wasnorm_wordpool_576.txt	LTP317	ltpFR2	12	1	OINTMENT	974	n/a	n/a	0	0	0
391.936	n/a	REC_WORD	195968	wordpools/wasnorm_wordpool_576.txt	LTP317	ltpFR2	12	1	CHURCH	307	n/a	n/a	0	0	0
392.514	n/a	REC_WORD	196257	wordpools/wasnorm_wordpool_576.txt	LTP317	ltpFR2	12	1	ROCKET	1202	n/a	n/a	0	0	0
393.174	n/a	REC_WORD	196587	wordpools/wasnorm_wordpool_576.txt	LTP317	ltpFR2	12	1	PREACHER	1119	n/a	n/a	0	0	0
395.614	n/a	REC_WORD	197807	wordpools/wasnorm_wordpool_576.txt	LTP317	ltpFR2	12	1	DENIM	446	n/a	n/a	0	0	0
396.378	n/a	REC_WORD	198189	wordpools/wasnorm_wordpool_576.txt	LTP317	ltpFR2	12	1	YARN	1631	n/a	n/a	0	0	0
399.82	n/a	REC_WORD	199910	wordpools/wasnorm_wordpool_576.txt	LTP317	ltpFR2	12	1	MEAT	883	n/a	n/a	0	0	0
400.548	n/a	REC_WORD	200274	wordpools/wasnorm_wordpool_576.txt	LTP317	ltpFR2	12	1	CLOCK	325	n/a	n/a	0	0	0
401.434	n/a	REC_WORD	200717	wordpools/wasnorm_wordpool_576.txt	LTP317	ltpFR2	12	1	BEEF	113	n/a	n/a	0	0	0
414.45	n/a	REC_WORD	207225	wordpools/wasnorm_wordpool_576.txt	LTP317	ltpFR2	12	1	OINTMENT	974	n/a	n/a	0	0	0
471.324	n/a	DISTRACTOR	235662	n/a	LTP317	ltpFR2	12	2	n/a	n/a	n/a	n/a	0	0	0
471.324	n/a	START	235662	n/a	LTP317	ltpFR2	12	n/a	n/a	n/a	3	n/a	n/a	n/a	n/a
471.34	n/a	PROB	235670	n/a	LTP317	ltpFR2	12	n/a	n/a	n/a	3	14	2	7	5
473.592	n/a	PROB	236796	n/a	LTP317	ltpFR2	12	n/a	n/a	n/a	3	18	3	7	8
475.226	n/a	PROB	237613	n/a	LTP317	ltpFR2	12	n/a	n/a	n/a	3	15	6	2	7
476.528	n/a	PROB	238264	n/a	LTP317	ltpFR2	12	n/a	n/a	n/a	3	17	3	6	8
478.096	n/a	PROB	239048	n/a	LTP317	ltpFR2	12	n/a	n/a	n/a	3	16	6	4	6
479.446	n/a	PROB	239723	n/a	LTP317	ltpFR2	12	n/a	n/a	n/a	3	18	4	6	8
481.566	n/a	PROB	240783	n/a	LTP317	ltpFR2	12	n/a	n/a	n/a	3	16	6	8	2
483.066	n/a	PROB	241533	n/a	LTP317	ltpFR2	12	n/a	n/a	n/a	3	24	9	9	6
487.086	n/a	PROB	243543	n/a	LTP317	ltpFR2	12	n/a	n/a	n/a	3	11	2	1	8
488.722	n/a	PROB	244361	n/a	LTP317	ltpFR2	12	n/a	n/a	n/a	3	16	4	8	4
490.322	n/a	PROB	245161	n/a	LTP317	ltpFR2	12	n/a	n/a	n/a	3	16	4	7	5
491.89	n/a	PROB	245945	n/a	LTP317	ltpFR2	12	n/a	n/a	n/a	3	13	1	6	6
493.81	n/a	PROB	246905	n/a	LTP317	ltpFR2	12	n/a	n/a	n/a	3	16	6	8	2
495.178	n/a	STOP	247589	n/a	LTP317	ltpFR2	12	n/a	n/a	n/a	3	n/a	n/a	n/a	n/a
496.278	n/a	WORD	248139	wordpools/wasnorm_wordpool_576.txt	LTP317	ltpFR2	12	2	AWARD	63	n/a	n/a	0	0	0
498.864	n/a	WORD	249432	wordpools/wasnorm_wordpool_576.txt	LTP317	ltpFR2	12	2	KEEPER	769	n/a	n/a	0	0	0
501.414	n/a	WORD	250707	wordpools/wasnorm_wordpool_576.txt	LTP317	ltpFR2	12	2	DAUGHTER	442	n/a	n/a	0	0	0
504.134	n/a	WORD	252067	wordpools/wasnorm_wordpool_576.txt	LTP317	ltpFR2	12	2	PACKAGE	997	n/a	n/a	0	0	0
506.804	n/a	WORD	253402	wordpools/wasnorm_wordpool_576.txt	LTP317	ltpFR2	12	2	UMPIRE	1535	n/a	n/a	0	0	0
509.456	n/a	WORD	254728	wordpools/wasnorm_wordpool_576.txt	LTP317	ltpFR2	12	2	SOFTBALL	1343	n/a	n/a	0	0	0
511.974	n/a	WORD	255987	wordpools/wasnorm_wordpool_576.txt	LTP317	ltpFR2	12	2	KETCHUP	771	n/a	n/a	0	0	0
514.794	n/a	WORD	257397	wordpools/wasnorm_wordpool_576.txt	LTP317	ltpFR2	12	2	MOTOR	922	n/a	n/a	0	0	0
517.312	n/a	WORD	258656	wordpools/wasnorm_wordpool_576.txt	LTP317	ltpFR2	12	2	COTTAGE	384	n/a	n/a	0	0	0
519.832	n/a	WORD	259916	wordpools/wasnorm_wordpool_576.txt	LTP317	ltpFR2	12	2	AUTHOR	61	n/a	n/a	0	0	0
522.484	n/a	WORD	261242	wordpools/wasnorm_wordpool_576.txt	LTP317	ltpFR2	12	2	PAPER	1011	n/a	n/a	0	0	0
525.268	n/a	WORD	262634	wordpools/wasnorm_wordpool_576.txt	LTP317	ltpFR2	12	2	SPONGE	1355	n/a	n/a	0	0	0
527.954	n/a	WORD	263977	wordpools/wasnorm_wordpool_576.txt	LTP317	ltpFR2	12	2	STAMP	1370	n/a	n/a	0	0	0
530.59	n/a	WORD	265295	wordpools/wasnorm_wordpool_576.txt	LTP317	ltpFR2	12	2	FLEET	578	n/a	n/a	0	0	0
533.326	n/a	WORD	266663	wordpools/wasnorm_wordpool_576.txt	LTP317	ltpFR2	12	2	MARROW	872	n/a	n/a	0	0	0
535.778	n/a	WORD	267889	wordpools/wasnorm_wordpool_576.txt	LTP317	ltpFR2	12	2	REPORT	1184	n/a	n/a	0	0	0
538.412	n/a	WORD	269206	wordpools/wasnorm_wordpool_576.txt	LTP317	ltpFR2	12	2	BARREL	91	n/a	n/a	0	0	0
540.914	n/a	WORD	270457	wordpools/wasnorm_wordpool_576.txt	LTP317	ltpFR2	12	2	LASER	801	n/a	n/a	0	0	0
543.55	n/a	WORD	271775	wordpools/wasnorm_wordpool_576.txt	LTP317	ltpFR2	12	2	ANKLE	24	n/a	n/a	0	0	0
546.302	n/a	WORD	273151	wordpools/wasnorm_wordpool_576.txt	LTP317	ltpFR2	12	2	PUDDLE	1140	n/a	n/a	0	0	0
549.056	n/a	WORD	274528	wordpools/wasnorm_wordpool_576.txt	LTP317	ltpFR2	12	2	ATLAS	53	n/a	n/a	0	0	0
551.874	n/a	WORD	275937	wordpools/wasnorm_wordpool_576.txt	LTP317	ltpFR2	12	2	THREAD	1460	n/a	n/a	0	0	0
554.576	n/a	WORD	277288	wordpools/wasnorm_wordpool_576.txt	LTP317	ltpFR2	12	2	SURVEY	1414	n/a	n/a	0	0	0
557.296	n/a	WORD	278648	wordpools/wasnorm_wordpool_576.txt	LTP317	ltpFR2	12	2	CATTLE	261	n/a	n/a	0	0	0
558.914	n/a	START	279457	n/a	LTP317	ltpFR2	12	n/a	n/a	n/a	4	n/a	n/a	n/a	n/a
559.802	n/a	DISTRACTOR	279901	n/a	LTP317	ltpFR2	12	2	n/a	n/a	n/a	n/a	0	0	0
559.816	n/a	PROB	279908	n/a	LTP317	ltpFR2	12	n/a	n/a	n/a	4	16	7	5	4
561.45	n/a	PROB	280725	n/a	LTP317	ltpFR2	12	n/a	n/a	n/a	4	15	6	6	3
563.118	n/a	PROB	281559	n/a	LTP317	ltpFR2	12	n/a	n/a	n/a	4	13	2	8	3
564.486	n/a	PROB	282243	n/a	LTP317	ltpFR2	12	n/a	n/a	n/a	4	15	5	4	6
566.104	n/a	PROB	283052	n/a	LTP317	ltpFR2	12	n/a	n/a	n/a	4	21	7	8	6
567.904	n/a	PROB	283952	n/a	LTP317	ltpFR2	12	n/a	n/a	n/a	4	13	2	5	6
569.758	n/a	PROB	284879	n/a	LTP317	ltpFR2	12	n/a	n/a	n/a	4	11	7	2	2
571.258	n/a	PROB	285629	n/a	LTP317	ltpFR2	12	n/a	n/a	n/a	4	13	4	6	3
572.458	n/a	PROB	286229	n/a	LTP317	ltpFR2	12	n/a	n/a	n/a	4	10	4	1	5
573.894	n/a	PROB	286947	n/a	LTP317	ltpFR2	12	n/a	n/a	n/a	4	11	3	5	3
575.746	n/a	PROB	287873	n/a	LTP317	ltpFR2	12	n/a	n/a	n/a	4	22	9	8	5
578.364	n/a	PROB	289182	n/a	LTP317	ltpFR2	12	n/a	n/a	n/a	4	14	3	8	3
579.898	n/a	PROB	289949	n/a	LTP317	ltpFR2	12	n/a	n/a	n/a	4	24	6	9	9
581.538	n/a	STOP	290769	n/a	LTP317	ltpFR2	12	n/a	n/a	n/a	4	n/a	n/a	n/a	n/a
584.72	n/a	REC_START	292360	n/a	LTP317	ltpFR2	12	2	n/a	n/a	n/a	n/a	0	0	0
589.338	n/a	REC_WORD	294669	wordpools/wasnorm_wordpool_576.txt	LTP317	ltpFR2	12	2	AWARD	63	n/a	n/a	0	0	0
597.404	n/a	REC_WORD	298702	wordpools/wasnorm_wordpool_576.txt	LTP317	ltpFR2	12	2	DAUGHTER	442	n/a	n/a	0	0	0
600.082	n/a	REC_WORD	300041	wordpools/wasnorm_wordpool_576.txt	LTP317	ltpFR2	12	2	KEEPER	769	n/a	n/a	0	0	0
602.462	n/a	REC_WORD	301231	wordpools/wasnorm_wordpool_576.txt	LTP317	ltpFR2	12	2	PACKAGE	997	n/a	n/a	0	0	0
605.798	n/a	REC_WORD	302899	wordpools/wasnorm_wordpool_576.txt	LTP317	ltpFR2	12	2	SOFTBALL	1343	n/a	n/a	0	0	0
607.764	n/a	REC_WORD	303882	wordpools/wasnorm_wordpool_576.txt	LTP317	ltpFR2	12	2	UMPIRE	1535	n/a	n/a	0	0	0
610.518	n/a	REC_WORD	305259	wordpools/wasnorm_wordpool_576.txt	LTP317	ltpFR2	12	2	REPORT	1184	n/a	n/a	0	0	0
612.444	n/a	REC_WORD	306222	wordpools/wasnorm_wordpool_576.txt	LTP317	ltpFR2	12	2	SURVEY	1414	n/a	n/a	0	0	0
614.328	n/a	REC_WORD	307164	wordpools/wasnorm_wordpool_576.txt	LTP317	ltpFR2	12	2	CATTLE	261	n/a	n/a	0	0	0
675.378	n/a	WORD	337689	wordpools/wasnorm_wordpool_576.txt	LTP317	ltpFR2	12	3	LUNCH	849	n/a	n/a	0	0	0
677.964	n/a	WORD	338982	wordpools/wasnorm_wordpool_576.txt	LTP317	ltpFR2	12	3	HIKER	708	n/a	n/a	0	0	0
680.734	n/a	WORD	340367	wordpools/wasnorm_wordpool_576.txt	LTP317	ltpFR2	12	3	JELLO	754	n/a	n/a	0	0	0
683.352	n/a	WORD	341676	wordpools/wasnorm_wordpool_576.txt	LTP317	ltpFR2	12	3	GIFT	635	n/a	n/a	0	0	0
686.038	n/a	WORD	343019	wordpools/wasnorm_wordpool_576.txt	LTP317	ltpFR2	12	3	MATTRESS	879	n/a	n/a	0	0	0
688.792	n/a	WORD	344396	wordpools/wasnorm_wordpool_576.txt	LTP317	ltpFR2	12	3	ROBOT	1200	n/a	n/a	0	0	0
691.292	n/a	WORD	345646	wordpools/wasnorm_wordpool_576.txt	LTP317	ltpFR2	12	3	MACHINE	852	n/a	n/a	0	0	0
693.978	n/a	WORD	346989	wordpools/wasnorm_wordpool_576.txt	LTP317	ltpFR2	12	3	FLASHLIGHT	575	n/a	n/a	0	0	0
696.814	n/a	WORD	348407	wordpools/wasnorm_wordpool_576.txt	LTP317	ltpFR2	12	3	MOP	916	n/a	n/a	0	0	0
699.366	n/a	WORD	349683	wordpools/wasnorm_wordpool_576.txt	LTP317	ltpFR2	12	3	TAXI	1438	n/a	n/a	0	0	0
702.118	n/a	WORD	351059	wordpools/wasnorm_wordpool_576.txt	LTP317	ltpFR2	12	3	SUBWAY	1400	n/a	n/a	0	0	0
704.636	n/a	WORD	352318	wordpools/wasnorm_wordpool_576.txt	LTP317	ltpFR2	12	3	MAMMAL	861	n/a	n/a	0	0	0
707.088	n/a	WORD	353544	wordpools/wasnorm_wordpool_576.txt	LTP317	ltpFR2	12	3	BALLOON	75	n/a	n/a	0	0	0
709.708	n/a	WORD	354854	wordpools/wasnorm_wordpool_576.txt	LTP317	ltpFR2	12	3	OZONE	996	n/a	n/a	0	0	0
712.26	n/a	WORD	356130	wordpools/wasnorm_wordpool_576.txt	LTP317	ltpFR2	12	3	ACTRESS	6	n/a	n/a	0	0	0
714.812	n/a	WORD	357406	wordpools/wasnorm_wordpool_576.txt	LTP317	ltpFR2	12	3	BOX	159	n/a	n/a	0	0	0
717.348	n/a	WORD	358674	wordpools/wasnorm_wordpool_576.txt	LTP317	ltpFR2	12	3	SEAFOOD	1260	n/a	n/a	0	0	0
719.882	n/a	WORD	359941	wordpools/wasnorm_wordpool_576.txt	LTP317	ltpFR2	12	3	GLOBE	641	n/a	n/a	0	0	0
722.452	n/a	WORD	361226	wordpools/wasnorm_wordpool_576.txt	LTP317	ltpFR2	12	3	HONEY	713	n/a	n/a	0	0	0
725.254	n/a	WORD	362627	wordpools/wasnorm_wordpool_576.txt	LTP317	ltpFR2	12	3	YOLK	1633	n/a	n/a	0	0	0
727.69	n/a	WORD	363845	wordpools/wasnorm_wordpool_576.txt	LTP317	ltpFR2	12	3	SPIDER	1351	n/a	n/a	0	0	0
730.492	n/a	WORD	365246	wordpools/wasnorm_wordpool_576.txt	LTP317	ltpFR2	12	3	LIPSTICK	829	n/a	n/a	0	0	0
732.928	n/a	WORD	366464	wordpools/wasnorm_wordpool_576.txt	LTP317	ltpFR2	12	3	DUSTPAN	509	n/a	n/a	0	0	0
735.596	n/a	WORD	367798	wordpools/wasnorm_wordpool_576.txt	LTP317	ltpFR2	12	3	BUTCHER	203	n/a	n/a	0	0	0
737.214	n/a	START	368607	n/a	LTP317	ltpFR2	12	n/a	n/a	n/a	5	n/a	n/a	n/a	n/a
738.324	n/a	DISTRACTOR	369162	n/a	LTP317	ltpFR2	12	3	n/a	n/a	n/a	n/a	0	0	0
738.332	n/a	PROB	369166	n/a	LTP317	ltpFR2	12	n/a	n/a	n/a	5	12	2	9	1
740.084	n/a	PROB	370042	n/a	LTP317	ltpFR2	12	n/a	n/a	n/a	5	10	2	1	7
741.952	n/a	PROB	370976	n/a	LTP317	ltpFR2	12	n/a	n/a	n/a	5	19	2	8	9
743.436	n/a	PROB	371718	n/a	LTP317	ltpFR2	12	n/a	n/a	n/a	5	13	7	1	5
746.756	n/a	PROB	373378	n/a	LTP317	ltpFR2	12	n/a	n/a	n/a	5	17	3	9	5
748.374	n/a	PROB	374187	n/a	LTP317	ltpFR2	12	n/a	n/a	n/a	5	15	2	4	9
749.624	n/a	PROB	374812	n/a	LTP317	ltpFR2	12	n/a	n/a	n/a	5	15	9	1	5
750.81	n/a	PROB	375405	n/a	LTP317	ltpFR2	12	n/a	n/a	n/a	5	12	6	4	2
752.31	n/a	PROB	376155	n/a	LTP317	ltpFR2	12	n/a	n/a	n/a	5	15	1	7	7
753.444	n/a	PROB	376722	n/a	LTP317	ltpFR2	12	n/a	n/a	n/a	5	14	8	3	3
754.928	n/a	PROB	377464	n/a	LTP317	ltpFR2	12	n/a	n/a	n/a	5	15	1	8	6
756.296	n/a	PROB	378148	n/a	LTP317	ltpFR2	12	n/a	n/a	n/a	5	16	4	5	7
757.732	n/a	PROB	378866	n/a	LTP317	ltpFR2	12	n/a	n/a	n/a	5	17	4	9	4
759.718	n/a	STOP	379859	n/a	LTP317	ltpFR2	12	n/a	n/a	n/a	5	n/a	n/a	n/a	n/a
763.02	n/a	REC_START	381510	n/a	LTP317	ltpFR2	12	3	n/a	n/a	n/a	n/a	0	0	0
772.026	n/a	REC_WORD	386013	wordpools/wasnorm_wordpool_576.txt	LTP317	ltpFR2	12	3	LUNCH	849	n/a	n/a	0	0	0
776.89	n/a	REC_WORD	388445	wordpools/wasnorm_wordpool_576.txt	LTP317	ltpFR2	12	3	JELLO	754	n/a	n/a	0	0	0
778.156	n/a	REC_WORD	389078	wordpools/wasnorm_wordpool_576.txt	LTP317	ltpFR2	12	3	GIFT	635	n/a	n/a	0	0	0
779.348	n/a	REC_WORD	389674	wordpools/wasnorm_wordpool_576.txt	LTP317	ltpFR2	12	3	MATTRESS	879	n/a	n/a	0	0	0
783.868	n/a	REC_WORD	391934	wordpools/wasnorm_wordpool_576.txt	LTP317	ltpFR2	12	3	BUTCHER	203	n/a	n/a	0	0	0
797.228	n/a	REC_WORD	398614	wordpools/wasnorm_wordpool_576.txt	LTP317	ltpFR2	12	3	KETCHUP	771	n/a	n/a	0	0	0
798.228	n/a	REC_WORD_VV	399114	wordpools/wasnorm_wordpool_576.txt	LTP317	ltpFR2	12	3	<>	-1	n/a	n/a	0	0	0
853.664	n/a	WORD	426832	wordpools/wasnorm_wordpool_576.txt	LTP317	ltpFR2	12	4	GAVEL	627	n/a	n/a	0	0	0
856.332	n/a	WORD	428166	wordpools/wasnorm_wordpool_576.txt	LTP317	ltpFR2	12	4	KIDNEY	776	n/a	n/a	0	0	0
859.15	n/a	WORD	429575	wordpools/wasnorm_wordpool_576.txt	LTP317	ltpFR2	12	4	BURGLAR	200	n/a	n/a	0	0	0
861.72	n/a	WORD	430860	wordpools/wasnorm_wordpool_576.txt	LTP317	ltpFR2	12	4	WITNESS	1618	n/a	n/a	0	0	0
864.438	n/a	WORD	432219	wordpools/wasnorm_wordpool_576.txt	LTP317	ltpFR2	12	4	TRUCK	1512	n/a	n/a	0	0	0
867.092	n/a	WORD	433546	wordpools/wasnorm_wordpool_576.txt	LTP317	ltpFR2	12	4	RUST	1219	n/a	n/a	0	0	0
869.926	n/a	WORD	434963	wordpools/wasnorm_wordpool_576.txt	LTP317	ltpFR2	12	4	POLICE	1098	n/a	n/a	0	0	0
872.478	n/a	WORD	436239	wordpools/wasnorm_wordpool_576.txt	LTP317	ltpFR2	12	4	HERO	706	n/a	n/a	0	0	0
874.996	n/a	WORD	437498	wordpools/wasnorm_wordpool_576.txt	LTP317	ltpFR2	12	4	TERMITE	1451	n/a	n/a	0	0	0
877.45	n/a	WORD	438725	wordpools/wasnorm_wordpool_576.txt	LTP317	ltpFR2	12	4	HEDGE	699	n/a	n/a	0	0	0
879.918	n/a	WORD	439959	wordpools/wasnorm_wordpool_576.txt	LTP317	ltpFR2	12	4	DONKEY	484	n/a	n/a	0	0	0
882.704	n/a	WORD	441352	wordpools/wasnorm_wordpool_576.txt	LTP317	ltpFR2	12	4	DANCER	437	n/a	n/a	0	0	0
885.44	n/a	WORD	442720	wordpools/wasnorm_wordpool_576.txt	LTP317	ltpFR2	12	4	CAMEL	223	n/a	n/a	0	0	0
888.192	n/a	WORD	444096	wordpools/wasnorm_wordpool_576.txt	LTP317	ltpFR2	12	4	LOFT	840	n/a	n/a	0	0	0
890.894	n/a	WORD	445447	wordpools/wasnorm_wordpool_576.txt	LTP317	ltpFR2	12	4	IDOL	733	n/a	n/a	0	0	0
893.396	n/a	WORD	446698	wordpools/wasnorm_wordpool_576.txt	LTP317	ltpFR2	12	4	CUSTARD	429	n/a	n/a	0	0	0
895.966	n/a	WORD	447983	wordpools/wasnorm_wordpool_576.txt	LTP317	ltpFR2	12	4	EAGLE	512	n/a	n/a	0	0	0
898.45	n/a	WORD	449225	wordpools/wasnorm_wordpool_576.txt	LTP317	ltpFR2	12	4	RIFLE	1192	n/a	n/a	0	0	0
900.92	n/a	WORD	450460	wordpools/wasnorm_wordpool_576.txt	LTP317	ltpFR2	12	4	PISTOL	1075	n/a	n/a	0	0	0
903.588	n/a	WORD	451794	wordpools/wasnorm_wordpool_576.txt	LTP317	ltpFR2	12	4	PORK	1108	n/a	n/a	0	0	0
906.04	n/a	WORD	453020	wordpools/wasnorm_wordpool_576.txt	LTP317	ltpFR2	12	4	LIVER	833	n/a	n/a	0	0	0
908.728	n/a	WORD	454364	wordpools/wasnorm_wordpool_576.txt	LTP317	ltpFR2	12	4	WASHER	1592	n/a	n/a	0	0	0
911.362	n/a	WORD	455681	wordpools/wasnorm_wordpool_576.txt	LTP317	ltpFR2	12	4	STATUE	1374	n/a	n/a	0	0	0
913.996	n/a	WORD	456998	wordpools/wasnorm_wordpool_576.txt	LTP317	ltpFR2	12	4	OUTLAW	989	n/a	n/a	0	0	0
915.614	n/a	START	457807	n/a	LTP317	ltpFR2	12	n/a	n/a	n/a	6	n/a	n/a	n/a	n/a
916.576	n/a	DISTRACTOR	458288	n/a	LTP317	ltpFR2	12	4	n/a	n/a	n/a	n/a	0	0	0
916.598	n/a	PROB	458299	n/a	LTP317	ltpFR2	12	n/a	n/a	n/a	6	15	3	7	5
917.934	n/a	PROB	458967	n/a	LTP317	ltpFR2	12	n/a	n/a	n/a	6	9	3	3	3
918.968	n/a	PROB	459484	n/a	LTP317	ltpFR2	12	n/a	n/a	n/a	6	17	3	9	5
920.502	n/a	PROB	460251	n/a	LTP317	ltpFR2	12	n/a	n/a	n/a	6	25	9	7	9
924.138	n/a	PROB	462069	n/a	LTP317	ltpFR2	12	n/a	n/a	n/a	6	8	1	2	5
925.758	n/a	PROB	462879	n/a	LTP317	ltpFR2	12	n/a	n/a	n/a	6	14	3	2	9
928.426	n/a	PROB	464213	n/a	LTP317	ltpFR2	12	n/a	n/a	n/a	6	7	2	1	4
930.294	n/a	PROB	465147	n/a	LTP317	ltpFR2	12	n/a	n/a	n/a	6	21	9	8	4
931.83	n/a	PROB	465915	n/a	LTP317	ltpFR2	12	n/a	n/a	n/a	6	20	9	6	5
934.614	n/a	PROB	467307	n/a	LTP317	ltpFR2	12	n/a	n/a	n/a	6	19	5	9	5
936.3	n/a	PROB	468150	n/a	LTP317	ltpFR2	12	n/a	n/a	n/a	6	15	3	5	7
937.6	n/a	PROB	468800	n/a	LTP317	ltpFR2	12	n/a	n/a	n/a	6	19	7	7	4
938.72	n/a	STOP	469360	n/a	LTP317	ltpFR2	12	n/a	n/a	n/a	6	n/a	n/a	n/a	n/a
941.488	n/a	REC_START	470744	n/a	LTP317	ltpFR2	12	4	n/a	n/a	n/a	n/a	0	0	0
946.846	n/a	REC_WORD	473423	wordpools/wasnorm_wordpool_576.txt	LTP317	ltpFR2	12	4	STATUE	1374	n/a	n/a	0	0	0
947.87	n/a	REC_WORD	473935	wordpools/wasnorm_wordpool_576.txt	LTP317	ltpFR2	12	4	OUTLAW	989	n/a	n/a	0	0	0
949.38	n/a	REC_WORD	474690	wordpools/wasnorm_wordpool_576.txt	LTP317	ltpFR2	12	4	POLICE	1098	n/a	n/a	0	0	0
950.068	n/a	REC_WORD	475034	wordpools/wasnorm_wordpool_576.txt	LTP317	ltpFR2	12	4	HERO	706	n/a	n/a	0	0	0
951.356	n/a	REC_WORD	475678	wordpools/wasnorm_wordpool_576.txt	LTP317	ltpFR2	12	4	GAVEL	627	n/a	n/a	0	0	0
952.782	n/a	REC_WORD	476391	wordpools/wasnorm_wordpool_576.txt	LTP317	ltpFR2	12	4	KIDNEY	776	n/a	n/a	0	0	0
960.038	n/a	REC_WORD	480019	wordpools/wasnorm_wordpool_576.txt	LTP317	ltpFR2	12	4	BURGLAR	200	n/a	n/a	0	0	0
961.51	n/a	REC_WORD	480755	wordpools/wasnorm_wordpool_576.txt	LTP317	ltpFR2	12	4	WITNESS	1618	n/a	n/a	0	0	0
966.156	n/a	REC_WORD	483078	wordpools/wasnorm_wordpool_576.txt	LTP317	ltpFR2	12	4	OUTLAW	989	n/a	n/a	0	0	0
977.256	n/a	REC_WORD	488628	wordpools/wasnorm_wordpool_576.txt	LTP317	ltpFR2	12	4	CUSTARD	429	n/a	n/a	0	0	0
978.256	n/a	REC_WORD_VV	489128	wordpools/wasnorm_wordpool_576.txt	LTP317	ltpFR2	12	4	<>	-1	n/a	n/a	0	0	0
980.606	n/a	REC_WORD	490303	wordpools/wasnorm_wordpool_576.txt	LTP317	ltpFR2	12	4	RIFLE	1192	n/a	n/a	0	0	0
981.734	n/a	REC_WORD	490867	wordpools/wasnorm_wordpool_576.txt	LTP317	ltpFR2	12	4	PISTOL	1075	n/a	n/a	0	0	0
1031.946	n/a	DISTRACTOR	515973	n/a	LTP317	ltpFR2	12	5	n/a	n/a	n/a	n/a	0	0	0
1031.946	n/a	START	515973	n/a	LTP317	ltpFR2	12	n/a	n/a	n/a	7	n/a	n/a	n/a	n/a
1031.964	n/a	PROB	515982	n/a	LTP317	ltpFR2	12	n/a	n/a	n/a	7	14	5	2	7
1033.75	n/a	PROB	516875	n/a	LTP317	ltpFR2	12	n/a	n/a	n/a	7	18	9	2	7
1036.484	n/a	PROB	518242	n/a	LTP317	ltpFR2	12	n/a	n/a	n/a	7	11	4	4	3
1037.918	n/a	PROB	518959	n/a	LTP317	ltpFR2	12	n/a	n/a	n/a	7	12	8	2	2
1039.57	n/a	PROB	519785	n/a	LTP317	ltpFR2	12	n/a	n/a	n/a	7	13	1	5	7
1041.104	n/a	PROB	520552	n/a	LTP317	ltpFR2	12	n/a	n/a	n/a	7	21	7	8	6
1042.656	n/a	PROB	521328	n/a	LTP317	ltpFR2	12	n/a	n/a	n/a	7	16	7	7	2
1043.956	n/a	PROB	521978	n/a	LTP317	ltpFR2	12	n/a	n/a	n/a	7	13	1	5	7
1045.474	n/a	PROB	522737	n/a	LTP317	ltpFR2	12	n/a	n/a	n/a	7	11	2	6	3
1046.81	n/a	PROB	523405	n/a	LTP317	ltpFR2	12	n/a	n/a	n/a	7	9	3	2	4
1048.978	n/a	PROB	524489	n/a	LTP317	ltpFR2	12	n/a	n/a	n/a	7	19	8	5	6
1050.78	n/a	PROB	525390	n/a	LTP317	ltpFR2	12	n/a	n/a	n/a	7	14	6	6	2
1052.18	n/a	PROB	526090	n/a	LTP317	ltpFR2	12	n/a	n/a	n/a	7	16	4	9	3
1055.826	n/a	STOP	527913	n/a	LTP317	ltpFR2	12	n/a	n/a	n/a	7	n/a	n/a	n/a	n/a
1057.118	n/a	WORD	528559	wordpools/wasnorm_wordpool_576.txt	LTP317	ltpFR2	12	5	LAMP	798	n/a	n/a	0	0	0
1059.772	n/a	WORD	529886	wordpools/wasnorm_wordpool_576.txt	LTP317	ltpFR2	12	5	MATCH	878	n/a	n/a	0	0	0
1062.456	n/a	WORD	531228	wordpools/wasnorm_wordpool_576.txt	LTP317	ltpFR2	12	5	LUGGAGE	847	n/a	n/a	0	0	0
1064.942	n/a	WORD	532471	wordpools/wasnorm_wordpool_576.txt	LTP317	ltpFR2	12	5	COFFEE	341	n/a	n/a	0	0	0
1067.476	n/a	WORD	533738	wordpools/wasnorm_wordpool_576.txt	LTP317	ltpFR2	12	5	QUARTER	1148	n/a	n/a	0	0	0
1070.28	n/a	WORD	535140	wordpools/wasnorm_wordpool_576.txt	LTP317	ltpFR2	12	5	POCKET	1093	n/a	n/a	0	0	0
1072.732	n/a	WORD	536366	wordpools/wasnorm_wordpool_576.txt	LTP317	ltpFR2	12	5	PECAN	1036	n/a	n/a	0	0	0
1075.184	n/a	WORD	537592	wordpools/wasnorm_wordpool_576.txt	LTP317	ltpFR2	12	5	HELMET	702	n/a	n/a	0	0	0
1077.902	n/a	WORD	538951	wordpools/wasnorm_wordpool_576.txt	LTP317	ltpFR2	12	5	VAGRANT	1544	n/a	n/a	0	0	0
1080.538	n/a	WORD	540269	wordpools/wasnorm_wordpool_576.txt	LTP317	ltpFR2	12	5	GRIZZLY	662	n/a	n/a	0	0	0
1083.356	n/a	WORD	541678	wordpools/wasnorm_wordpool_576.txt	LTP317	ltpFR2	12	5	SCARECROW	1245	n/a	n/a	0	0	0
1085.826	n/a	WORD	542913	wordpools/wasnorm_wordpool_576.txt	LTP317	ltpFR2	12	5	MAILBOX	857	n/a	n/a	0	0	0
1088.578	n/a	WORD	544289	wordpools/wasnorm_wordpool_576.txt	LTP317	ltpFR2	12	5	CARRIAGE	248	n/a	n/a	0	0	0
1091.08	n/a	WORD	545540	wordpools/wasnorm_wordpool_576.txt	LTP317	ltpFR2	12	5	BIKE	125	n/a	n/a	0	0	0
1093.832	n/a	WORD	546916	wordpools/wasnorm_wordpool_576.txt	LTP317	ltpFR2	12	5	GHETTO	633	n/a	n/a	0	0	0
1096.468	n/a	WORD	548234	wordpools/wasnorm_wordpool_576.txt	LTP317	ltpFR2	12	5	BEAST	108	n/a	n/a	0	0	0
1099.186	n/a	WORD	549593	wordpools/wasnorm_wordpool_576.txt	LTP317	ltpFR2	12	5	TOURIST	1488	n/a	n/a	0	0	0
1101.988	n/a	WORD	550994	wordpools/wasnorm_wordpool_576.txt	LTP317	ltpFR2	12	5	WRENCH	1625	n/a	n/a	0	0	0
1104.726	n/a	WORD	552363	wordpools/wasnorm_wordpool_576.txt	LTP317	ltpFR2	12	5	PLIERS	1089	n/a	n/a	0	0	0
1107.46	n/a	WORD	553730	wordpools/wasnorm_wordpool_576.txt	LTP317	ltpFR2	12	5	BACON	67	n/a	n/a	0	0	0
1110.296	n/a	WORD	555148	wordpools/wasnorm_wordpool_576.txt	LTP317	ltpFR2	12	5	PARENT	1013	n/a	n/a	0	0	0
1112.85	n/a	WORD	556425	wordpools/wasnorm_wordpool_576.txt	LTP317	ltpFR2	12	5	JEANS	752	n/a	n/a	0	0	0
1115.568	n/a	WORD	557784	wordpools/wasnorm_wordpool_576.txt	LTP317	ltpFR2	12	5	SWIMMER	1420	n/a	n/a	0	0	0
1118.37	n/a	WORD	559185	wordpools/wasnorm_wordpool_576.txt	LTP317	ltpFR2	12	5	POSTAGE	1113	n/a	n/a	0	0	0
1119.988	n/a	START	559994	n/a	LTP317	ltpFR2	12	n/a	n/a	n/a	8	n/a	n/a	n/a	n/a
1121.178	n/a	DISTRACTOR	560589	n/a	LTP317	ltpFR2	12	5	n/a	n/a	n/a	n/a	0	0	0
1121.206	n/a	PROB	560603	n/a	LTP317	ltpFR2	12	n/a	n/a	n/a	8	15	4	5	6
1125.108	n/a	PROB	562554	n/a	LTP317	ltpFR2	12	n/a	n/a	n/a	8	15	5	8	2
1127.026	n/a	PROB	563513	n/a	LTP317	ltpFR2	12	n/a	n/a	n/a	8	22	6	7	9
1130.798	n/a	PROB	565399	n/a	LTP317	ltpFR2	12	n/a	n/a	n/a	8	17	8	4	5
1132.248	n/a	PROB	566124	n/a	LTP317	ltpFR2	12	n/a	n/a	n/a	8	13	3	9	1
1134.382	n/a	PROB	567191	n/a	LTP317	ltpFR2	12	n/a	n/a	n/a	8	12	3	8	1
1136.936	n/a	PROB	568468	n/a	LTP317	ltpFR2	12	n/a	n/a	n/a	8	22	7	7	8
1138.436	n/a	PROB	569218	n/a	LTP317	ltpFR2	12	n/a	n/a	n/a	8	22	8	8	6
1139.988	n/a	PROB	569994	n/a	LTP317	ltpFR2	12	n/a	n/a	n/a	8	12	4	4	4
1141.072	n/a	PROB	570536	n/a	LTP317	ltpFR2	12	n/a	n/a	n/a	8	8	3	3	2
1143.154	n/a	STOP	571577	n/a	LTP317	ltpFR2	12	n/a	n/a	n/a	8	n/a	n/a	n/a	n/a
1145.778	n/a	REC_START	572889	n/a	LTP317	ltpFR2	12	5	n/a	n/a	n/a	n/a	0	0	0
1151.13	n/a	REC_WORD	575565	wordpools/wasnorm_wordpool_576.txt	LTP317	ltpFR2	12	5	LAMP	798	n/a	n/a	0	0	0
1152.234	n/a	REC_WORD	576117	wordpools/wasnorm_wordpool_576.txt	LTP317	ltpFR2	12	5	MATCH	878	n/a	n/a	0	0	0
1153.452	n/a	REC_WORD	576726	wordpools/wasnorm_wordpool_576.txt	LTP317	ltpFR2	12	5	LUGGAGE	847	n/a	n/a	0	0	0
1158.468	n/a	REC_WORD	579234	wordpools/wasnorm_wordpool_576.txt	LTP317	ltpFR2	12	5	COFFEE	341	n/a	n/a	0	0	0
1161.47	n/a	REC_WORD	580735	wordpools/wasnorm_wordpool_576.txt	LTP317	ltpFR2	12	5	GRIZZLY	662	n/a	n/a	0	0	0
1163.25	n/a	REC_WORD	581625	wordpools/wasnorm_wordpool_576.txt	LTP317	ltpFR2	12	5	TOURIST	1488	n/a	n/a	0	0	0
1164.268	n/a	REC_WORD	582134	wordpools/wasnorm_wordpool_576.txt	LTP317	ltpFR2	12	5	SCARECROW	1245	n/a	n/a	0	0	0
1165.816	n/a	REC_WORD	582908	wordpools/wasnorm_wordpool_576.txt	LTP317	ltpFR2	12	5	CARRIAGE	248	n/a	n/a	0	0	0
1167.06	n/a	REC_WORD	583530	wordpools/wasnorm_wordpool_576.txt	LTP317	ltpFR2	12	5	MAILBOX	857	n/a	n/a	0	0	0
1236.22	n/a	DISTRACTOR	618110	n/a	LTP317	ltpFR2	12	6	n/a	n/a	n/a	n/a	0	0	0
1236.22	n/a	START	618110	n/a	LTP317	ltpFR2	12	n/a	n/a	n/a	9	n/a	n/a	n/a	n/a
1236.236	n/a	PROB	618118	n/a	LTP317	ltpFR2	12	n/a	n/a	n/a	9	17	7	3	7
1238.388	n/a	PROB	619194	n/a	LTP317	ltpFR2	12	n/a	n/a	n/a	9	7	1	1	5
1239.674	n/a	PROB	619837	n/a	LTP317	ltpFR2	12	n/a	n/a	n/a	9	13	2	3	8
1241.358	n/a	PROB	620679	n/a	LTP317	ltpFR2	12	n/a	n/a	n/a	9	11	9	1	1
1242.526	n/a	PROB	621263	n/a	LTP317	ltpFR2	12	n/a	n/a	n/a	9	19	5	9	5
1243.81	n/a	PROB	621905	n/a	LTP317	ltpFR2	12	n/a	n/a	n/a	9	17	1	9	7
1245.244	n/a	PROB	622622	n/a	LTP317	ltpFR2	12	n/a	n/a	n/a	9	13	8	2	3
1246.796	n/a	PROB	623398	n/a	LTP317	ltpFR2	12	n/a	n/a	n/a	9	16	2	8	6
1248.412	n/a	PROB	624206	n/a	LTP317	ltpFR2	12	n/a	n/a	n/a	9	17	6	4	7
1249.764	n/a	PROB	624882	n/a	LTP317	ltpFR2	12	n/a	n/a	n/a	9	11	2	8	1
1251.366	n/a	PROB	625683	n/a	LTP317	ltpFR2	12	n/a	n/a	n/a	9	17	8	1	8
1253.0	n/a	PROB	626500	n/a	LTP317	ltpFR2	12	n/a	n/a	n/a	9	8	2	2	4
1254.786	n/a	PROB	627393	n/a	LTP317	ltpFR2	12	n/a	n/a	n/a	9	19	9	5	5
1256.636	n/a	PROB	628318	n/a	LTP317	ltpFR2	12	n/a	n/a	n/a	9	14	4	9	1
1258.668	n/a	STOP	629334	n/a	LTP317	ltpFR2	12	n/a	n/a	n/a	9	n/a	n/a	n/a	n/a
1261.308	n/a	WORD	630654	wordpools/wasnorm_wordpool_576.txt	LTP317	ltpFR2	12	6	PADDLE	1000	n/a	n/a	0	0	0
1263.942	n/a	WORD	631971	wordpools/wasnorm_wordpool_576.txt	LTP317	ltpFR2	12	6	GRAVEL	659	n/a	n/a	0	0	0
1266.696	n/a	WORD	633348	wordpools/wasnorm_wordpool_576.txt	LTP317	ltpFR2	12	6	FLUTE	585	n/a	n/a	0	0	0
1269.414	n/a	WORD	634707	wordpools/wasnorm_wordpool_576.txt	LTP317	ltpFR2	12	6	CROWN	415	n/a	n/a	0	0	0
1272.066	n/a	WORD	636033	wordpools/wasnorm_wordpool_576.txt	LTP317	ltpFR2	12	6	RATTLE	1170	n/a	n/a	0	0	0
1274.82	n/a	WORD	637410	wordpools/wasnorm_wordpool_576.txt	LTP317	ltpFR2	12	6	QUAIL	1147	n/a	n/a	0	0	0
1277.438	n/a	WORD	638719	wordpools/wasnorm_wordpool_576.txt	LTP317	ltpFR2	12	6	BLADE	134	n/a	n/a	0	0	0
1280.156	n/a	WORD	640078	wordpools/wasnorm_wordpool_576.txt	LTP317	ltpFR2	12	6	BISON	131	n/a	n/a	0	0	0
1282.76	n/a	WORD	641380	wordpools/wasnorm_wordpool_576.txt	LTP317	ltpFR2	12	6	BOYFRIEND	162	n/a	n/a	0	0	0
1285.444	n/a	WORD	642722	wordpools/wasnorm_wordpool_576.txt	LTP317	ltpFR2	12	6	BADGE	68	n/a	n/a	0	0	0
1288.048	n/a	WORD	644024	wordpools/wasnorm_wordpool_576.txt	LTP317	ltpFR2	12	6	HARP	689	n/a	n/a	0	0	0
1290.666	n/a	WORD	645333	wordpools/wasnorm_wordpool_576.txt	LTP317	ltpFR2	12	6	SAUSAGE	1238	n/a	n/a	0	0	0
1293.35	n/a	WORD	646675	wordpools/wasnorm_wordpool_576.txt	LTP317	ltpFR2	12	6	PALACE	1006	n/a	n/a	0	0	0
1295.936	n/a	WORD	647968	wordpools/wasnorm_wordpool_576.txt	LTP317	ltpFR2	12	6	ROBIN	1199	n/a	n/a	0	0	0
1298.538	n/a	WORD	649269	wordpools/wasnorm_wordpool_576.txt	LTP317	ltpFR2	12	6	TURKEY	1520	n/a	n/a	0	0	0
1301.024	n/a	WORD	650512	wordpools/wasnorm_wordpool_576.txt	LTP317	ltpFR2	12	6	JAPAN	749	n/a	n/a	0	0	0
1303.66	n/a	WORD	651830	wordpools/wasnorm_wordpool_576.txt	LTP317	ltpFR2	12	6	CANAL	226	n/a	n/a	0	0	0
1306.228	n/a	WORD	653114	wordpools/wasnorm_wordpool_576.txt	LTP317	ltpFR2	12	6	RAFT	1159	n/a	n/a	0	0	0
1308.848	n/a	WORD	654424	wordpools/wasnorm_wordpool_576.txt	LTP317	ltpFR2	12	6	SHORTS	1293	n/a	n/a	0	0	0
1311.668	n/a	WORD	655834	wordpools/wasnorm_wordpool_576.txt	LTP317	ltpFR2	12	6	LAPEL	800	n/a	n/a	0	0	0
1314.302	n/a	WORD	657151	wordpools/wasnorm_wordpool_576.txt	LTP317	ltpFR2	12	6	EUROPE	541	n/a	n/a	0	0	0
1317.122	n/a	WORD	658561	wordpools/wasnorm_wordpool_576.txt	LTP317	ltpFR2	12	6	WASP	1593	n/a	n/a	0	0	0
1319.708	n/a	WORD	659854	wordpools/wasnorm_wordpool_576.txt	LTP317	ltpFR2	12	6	TOMBSTONE	1478	n/a	n/a	0	0	0
1322.31	n/a	WORD	661155	wordpools/wasnorm_wordpool_576.txt	LTP317	ltpFR2	12	6	PLASTER	1085	n/a	n/a	0	0	0
1323.928	n/a	START	661964	n/a	LTP317	ltpFR2	12	n/a	n/a	n/a	10	n/a	n/a	n/a	n/a
1324.996	n/a	DISTRACTOR	662498	n/a	LTP317	ltpFR2	12	6	n/a	n/a	n/a	n/a	0	0	0
1325.012	n/a	PROB	662506	n/a	LTP317	ltpFR2	12	n/a	n/a	n/a	10	17	9	7	1
1327.398	n/a	PROB	663699	n/a	LTP317	ltpFR2	12	n/a	n/a	n/a	10	9	6	2	1
1329.85	n/a	PROB	664925	n/a	LTP317	ltpFR2	12	n/a	n/a	n/a	10	14	6	1	7
1332.002	n/a	PROB	666001	n/a	LTP317	ltpFR2	12	n/a	n/a	n/a	10	21	9	3	9
1335.12	n/a	PROB	667560	n/a	LTP317	ltpFR2	12	n/a	n/a	n/a	10	15	2	5	8
1336.438	n/a	PROB	668219	n/a	LTP317	ltpFR2	12	n/a	n/a	n/a	10	11	1	9	1
1337.656	n/a	PROB	668828	n/a	LTP317	ltpFR2	12	n/a	n/a	n/a	10	13	2	6	5
1339.006	n/a	PROB	669503	n/a	LTP317	ltpFR2	12	n/a	n/a	n/a	10	20	9	2	9
1340.924	n/a	PROB	670462	n/a	LTP317	ltpFR2	12	n/a	n/a	n/a	10	22	9	7	6
1344.078	n/a	PROB	672039	n/a	LTP317	ltpFR2	12	n/a	n/a	n/a	10	16	7	5	4
1345.362	n/a	PROB	672681	n/a	LTP317	ltpFR2	12	n/a	n/a	n/a	10	11	8	1	2
1347.052	n/a	STOP	673526	n/a	LTP317	ltpFR2	12	n/a	n/a	n/a	10	n/a	n/a	n/a	n/a
1349.716	n/a	REC_START	674858	n/a	LTP317	ltpFR2	12	6	n/a	n/a	n/a	n/a	0	0	0
1351.412	n/a	REC_WORD	675706	wordpools/wasnorm_wordpool_576.txt	LTP317	ltpFR2	12	6	PADDLE	1000	n/a	n/a	0	0	0
1352.918	n/a	REC_WORD	676459	wordpools/wasnorm_wordpool_576.txt	LTP317	ltpFR2	12	6	GRAVEL	659	n/a	n/a	0	0	0
1355.218	n/a	REC_WORD	677609	wordpools/wasnorm_wordpool_576.txt	LTP317	ltpFR2	12	6	FLUTE	585	n/a	n/a	0	0	0
1356.712	n/a	REC_WORD	678356	wordpools/wasnorm_wordpool_576.txt	LTP317	ltpFR2	12	6	CROWN	415	n/a	n/a	0	0	0
1361.928	n/a	REC_WORD	680964	wordpools/wasnorm_wordpool_576.txt	LTP317	ltpFR2	12	6	JAPAN	749	n/a	n/a	0	0	0
1363.378	n/a	REC_WORD	681689	wordpools/wasnorm_wordpool_576.txt	LTP317	ltpFR2	12	6	EUROPE	541	n/a	n/a	0	0	0
1365.194	n/a	REC_WORD	682597	wordpools/wasnorm_wordpool_576.txt	LTP317	ltpFR2	12	6	PALACE	1006	n/a	n/a	0	0	0
1369.644	n/a	REC_WORD	684822	wordpools/wasnorm_wordpool_576.txt	LTP317	ltpFR2	12	6	SAUSAGE	1238	n/a	n/a	0	0	0
1370.644	n/a	REC_WORD_VV	685322	wordpools/wasnorm_wordpool_576.txt	LTP317	ltpFR2	12	6	<>	-1	n/a	n/a	0	0	0
1372.064	n/a	REC_WORD	686032	wordpools/wasnorm_wordpool_576.txt	LTP317	ltpFR2	12	6	BISON	131	n/a	n/a	0	0	0
1373.544	n/a	REC_WORD	686772	wordpools/wasnorm_wordpool_576.txt	LTP317	ltpFR2	12	6	BOYFRIEND	162	n/a	n/a	0	0	0
1378.708	n/a	REC_WORD	689354	wordpools/wasnorm_wordpool_576.txt	LTP317	ltpFR2	12	6	BARREL	91	n/a	n/a	0	0	0
1384.382	n/a	REC_WORD	692191	wordpools/wasnorm_wordpool_576.txt	LTP317	ltpFR2	12	6	RATTLE	1170	n/a	n/a	0	0	0
1388.062	n/a	REC_WORD	694031	wordpools/wasnorm_wordpool_576.txt	LTP317	ltpFR2	12	6	QUAIL	1147	n/a	n/a	0	0	0
1402.84	n/a	REC_WORD	701420	wordpools/wasnorm_wordpool_576.txt	LTP317	ltpFR2	12	6	PLASTER	1085	n/a	n/a	0	0	0
1404.1	n/a	REC_WORD	702050	wordpools/wasnorm_wordpool_576.txt	LTP317	ltpFR2	12	6	TOMBSTONE	1478	n/a	n/a	0	0	0
1440.178	n/a	WORD	720089	wordpools/wasnorm_wordpool_576.txt	LTP317	ltpFR2	12	7	HORSE	719	n/a	n/a	0	0	0
1442.88	n/a	WORD	721440	wordpools/wasnorm_wordpool_576.txt	LTP317	ltpFR2	12	7	RADISH	1158	n/a	n/a	0	0	0
1445.316	n/a	WORD	722658	wordpools/wasnorm_wordpool_576.txt	LTP317	ltpFR2	12	7	ACTOR	5	n/a	n/a	0	0	0
1447.984	n/a	WORD	723992	wordpools/wasnorm_wordpool_576.txt	LTP317	ltpFR2	12	7	GUITAR	670	n/a	n/a	0	0	0
1450.636	n/a	WORD	725318	wordpools/wasnorm_wordpool_576.txt	LTP317	ltpFR2	12	7	MARSH	874	n/a	n/a	0	0	0
1453.222	n/a	WORD	726611	wordpools/wasnorm_wordpool_576.txt	LTP317	ltpFR2	12	7	TWISTER	1530	n/a	n/a	0	0	0
1455.808	n/a	WORD	727904	wordpools/wasnorm_wordpool_576.txt	LTP317	ltpFR2	12	7	CONCERT	360	n/a	n/a	0	0	0
1458.544	n/a	WORD	729272	wordpools/wasnorm_wordpool_576.txt	LTP317	ltpFR2	12	7	PIGEON	1065	n/a	n/a	0	0	0
1461.176	n/a	WORD	730588	wordpools/wasnorm_wordpool_576.txt	LTP317	ltpFR2	12	7	GRILL	661	n/a	n/a	0	0	0
1463.73	n/a	WORD	731865	wordpools/wasnorm_wordpool_576.txt	LTP317	ltpFR2	12	7	CLOTHES	327	n/a	n/a	0	0	0
1466.364	n/a	WORD	733182	wordpools/wasnorm_wordpool_576.txt	LTP317	ltpFR2	12	7	SHORTCAKE	1292	n/a	n/a	0	0	0
1469.016	n/a	WORD	734508	wordpools/wasnorm_wordpool_576.txt	LTP317	ltpFR2	12	7	COUNTY	389	n/a	n/a	0	0	0
1471.654	n/a	WORD	735827	wordpools/wasnorm_wordpool_576.txt	LTP317	ltpFR2	12	7	CHAMPAGNE	278	n/a	n/a	0	0	0
1474.17	n/a	WORD	737085	wordpools/wasnorm_wordpool_576.txt	LTP317	ltpFR2	12	7	DRINK	498	n/a	n/a	0	0	0
1476.676	n/a	WORD	738338	wordpools/wasnorm_wordpool_576.txt	LTP317	ltpFR2	12	7	ARMY	39	n/a	n/a	0	0	0
1479.174	n/a	WORD	739587	wordpools/wasnorm_wordpool_576.txt	LTP317	ltpFR2	12	7	SWAMP	1416	n/a	n/a	0	0	0
1481.864	n/a	WORD	740932	wordpools/wasnorm_wordpool_576.txt	LTP317	ltpFR2	12	7	WORLD	1622	n/a	n/a	0	0	0
1484.516	n/a	WORD	742258	wordpools/wasnorm_wordpool_576.txt	LTP317	ltpFR2	12	7	POPCORN	1104	n/a	n/a	0	0	0
1487.018	n/a	WORD	743509	wordpools/wasnorm_wordpool_576.txt	LTP317	ltpFR2	12	7	COCOON	339	n/a	n/a	0	0	0
1489.532	n/a	WORD	744766	wordpools/wasnorm_wordpool_576.txt	LTP317	ltpFR2	12	7	EGYPT	519	n/a	n/a	0	0	0
1492.168	n/a	WORD	746084	wordpools/wasnorm_wordpool_576.txt	LTP317	ltpFR2	12	7	SUITCASE	1403	n/a	n/a	0	0	0
1494.942	n/a	WORD	747471	wordpools/wasnorm_wordpool_576.txt	LTP317	ltpFR2	12	7	SPOOL	1356	n/a	n/a	0	0	0
1497.476	n/a	WORD	748738	wordpools/wasnorm_wordpool_576.txt	LTP317	ltpFR2	12	7	ICING	732	n/a	n/a	0	0	0
1500.224	n/a	WORD	750112	wordpools/wasnorm_wordpool_576.txt	LTP317	ltpFR2	12	7	HATCHET	691	n/a	n/a	0	0	0
1501.832	n/a	START	750916	n/a	LTP317	ltpFR2	12	n/a	n/a	n/a	11	n/a	n/a	n/a	n/a
1502.668	n/a	DISTRACTOR	751334	n/a	LTP317	ltpFR2	12	7	n/a	n/a	n/a	n/a	0	0	0
1502.678	n/a	PROB	751339	n/a	LTP317	ltpFR2	12	n/a	n/a	n/a	11	15	4	3	8
1506.646	n/a	PROB	753323	n/a	LTP317	ltpFR2	12	n/a	n/a	n/a	11	8	2	2	4
1508.296	n/a	PROB	754148	n/a	LTP317	ltpFR2	12	n/a	n/a	n/a	11	13	8	3	2
1510.182	n/a	PROB	755091	n/a	LTP317	ltpFR2	12	n/a	n/a	n/a	11	15	8	3	4
1512.598	n/a	PROB	756299	n/a	LTP317	ltpFR2	12	n/a	n/a	n/a	11	11	3	4	4
1514.736	n/a	PROB	757368	n/a	LTP317	ltpFR2	12	n/a	n/a	n/a	11	16	6	2	8
1516.202	n/a	PROB	758101	n/a	LTP317	ltpFR2	12	n/a	n/a	n/a	11	14	3	7	4
1517.454	n/a	PROB	758727	n/a	LTP317	ltpFR2	12	n/a	n/a	n/a	11	14	7	4	3
1519.038	n/a	PROB	759519	n/a	LTP317	ltpFR2	12	n/a	n/a	n/a	11	11	2	8	1
1520.424	n/a	PROB	760212	n/a	LTP317	ltpFR2	12	n/a	n/a	n/a	11	12	2	3	7
1522.524	n/a	PROB	761262	n/a	LTP317	ltpFR2	12	n/a	n/a	n/a	11	18	7	4	7
1524.754	n/a	STOP	762377	n/a	LTP317	ltpFR2	12	n/a	n/a	n/a	11	n/a	n/a	n/a	n/a
1527.746	n/a	REC_START	763873	n/a	LTP317	ltpFR2	12	7	n/a	n/a	n/a	n/a	0	0	0
1530.732	n/a	REC_WORD	765366	wordpools/wasnorm_wordpool_576.txt	LTP317	ltpFR2	12	7	HORSE	719	n/a	n/a	0	0	0
1531.738	n/a	REC_WORD	765869	wordpools/wasnorm_wordpool_576.txt	LTP317	ltpFR2	12	7	RADISH	1158	n/a	n/a	0	0	0
1537.23	n/a	REC_WORD	768615	wordpools/wasnorm_wordpool_576.txt	LTP317	ltpFR2	12	7	ARMY	39	n/a	n/a	0	0	0
1537.876	n/a	REC_WORD	768938	wordpools/wasnorm_wordpool_576.txt	LTP317	ltpFR2	12	7	SWAMP	1416	n/a	n/a	0	0	0
1539.07	n/a	REC_WORD	769535	wordpools/wasnorm_wordpool_576.txt	LTP317	ltpFR2	12	7	WORLD	1622	n/a	n/a	0	0	0
1618.164	n/a	DISTRACTOR	809082	n/a	LTP317	ltpFR2	12	8	n/a	n/a	n/a	n/a	0	0	0
1618.164	n/a	START	809082	n/a	LTP317	ltpFR2	12	n/a	n/a	n/a	12	n/a	n/a	n/a	n/a
1618.18	n/a	PROB	809090	n/a	LTP317	ltpFR2	12	n/a	n/a	n/a	12	12	4	2	6
1620.53	n/a	PROB	810265	n/a	LTP317	ltpFR2	12	n/a	n/a	n/a	12	18	9	4	5
1622.386	n/a	PROB	811193	n/a	LTP317	ltpFR2	12	n/a	n/a	n/a	12	17	7	6	4
1624.118	n/a	PROB	812059	n/a	LTP317	ltpFR2	12	n/a	n/a	n/a	12	16	2	9	5
1627.402	n/a	PROB	813701	n/a	LTP317	ltpFR2	12	n/a	n/a	n/a	12	17	2	9	6
1629.29	n/a	PROB	814645	n/a	LTP317	ltpFR2	12	n/a	n/a	n/a	12	10	1	2	7
1631.044	n/a	PROB	815522	n/a	LTP317	ltpFR2	12	n/a	n/a	n/a	12	22	7	9	6
1633.526	n/a	PROB	816763	n/a	LTP317	ltpFR2	12	n/a	n/a	n/a	12	19	9	1	9
1635.162	n/a	PROB	817581	n/a	LTP317	ltpFR2	12	n/a	n/a	n/a	12	19	7	4	8
1636.546	n/a	PROB	818273	n/a	LTP317	ltpFR2	12	n/a	n/a	n/a	12	19	8	7	4
1638.33	n/a	PROB	819165	n/a	LTP317	ltpFR2	12	n/a	n/a	n/a	12	15	3	8	4
1639.832	n/a	PROB	819916	n/a	LTP317	ltpFR2	12	n/a	n/a	n/a	12	18	6	8	4
1641.482	n/a	STOP	820741	n/a	LTP317	ltpFR2	12	n/a	n/a	n/a	12	n/a	n/a	n/a	n/a
1643.336	n/a	WORD	821668	wordpools/wasnorm_wordpool_576.txt	LTP317	ltpFR2	12	8	KITCHEN	778	n/a	n/a	0	0	0
1646.036	n/a	WORD	823018	wordpools/wasnorm_wordpool_576.txt	LTP317	ltpFR2	12	8	PATIENT	1024	n/a	n/a	0	0	0
1648.456	n/a	WORD	824228	wordpools/wasnorm_wordpool_576.txt	LTP317	ltpFR2	12	8	GAZELLE	628	n/a	n/a	0	0	0
1651.158	n/a	WORD	825579	wordpools/wasnorm_wordpool_576.txt	LTP317	ltpFR2	12	8	BEAVER	109	n/a	n/a	0	0	0
1653.678	n/a	WORD	826839	wordpools/wasnorm_wordpool_576.txt	LTP317	ltpFR2	12	8	SALAD	1224	n/a	n/a	0	0	0
1656.378	n/a	WORD	828189	wordpools/wasnorm_wordpool_576.txt	LTP317	ltpFR2	12	8	COD	340	n/a	n/a	0	0	0
1658.98	n/a	WORD	829490	wordpools/wasnorm_wordpool_576.txt	LTP317	ltpFR2	12	8	THRONE	1461	n/a	n/a	0	0	0
1661.568	n/a	WORD	830784	wordpools/wasnorm_wordpool_576.txt	LTP317	ltpFR2	12	8	SKIRT	1319	n/a	n/a	0	0	0
1664.302	n/a	WORD	832151	wordpools/wasnorm_wordpool_576.txt	LTP317	ltpFR2	12	8	NECKLACE	940	n/a	n/a	0	0	0
1667.022	n/a	WORD	833511	wordpools/wasnorm_wordpool_576.txt	LTP317	ltpFR2	12	8	PLATE	1086	n/a	n/a	0	0	0
1669.824	n/a	WORD	834912	wordpools/wasnorm_wordpool_576.txt	LTP317	ltpFR2	12	8	VIKING	1565	n/a	n/a	0	0	0
1672.324	n/a	WORD	836162	wordpools/wasnorm_wordpool_576.txt	LTP317	ltpFR2	12	8	APRON	35	n/a	n/a	0	0	0
1674.994	n/a	WORD	837497	wordpools/wasnorm_wordpool_576.txt	LTP317	ltpFR2	12	8	FRECKLE	602	n/a	n/a	0	0	0
1677.698	n/a	WORD	838849	wordpools/wasnorm_wordpool_576.txt	LTP317	ltpFR2	12	8	PORTRAIT	1111	n/a	n/a	0	0	0
1680.348	n/a	WORD	840174	wordpools/wasnorm_wordpool_576.txt	LTP317	ltpFR2	12	8	PIMPLE	1071	n/a	n/a	0	0	0
1682.866	n/a	WORD	841433	wordpools/wasnorm_wordpool_576.txt	LTP317	ltpFR2	12	8	CELLAR	267	n/a	n/a	0	0	0
1685.654	n/a	WORD	842827	wordpools/wasnorm_wordpool_576.txt	LTP317	ltpFR2	12	8	POWDER	1117	n/a	n/a	0	0	0
1688.104	n/a	WORD	844052	wordpools/wasnorm_wordpool_576.txt	LTP317	ltpFR2	12	8	JUGGLER	763	n/a	n/a	0	0	0
1690.808	n/a	WORD	845404	wordpools/wasnorm_wordpool_576.txt	LTP317	ltpFR2	12	8	GYMNAST	675	n/a	n/a	0	0	0
1693.508	n/a	WORD	846754	wordpools/wasnorm_wordpool_576.txt	LTP317	ltpFR2	12	8	NOVEL	960	n/a	n/a	0	0	0
1695.978	n/a	WORD	847989	wordpools/wasnorm_wordpool_576.txt	LTP317	ltpFR2	12	8	PRINCE	1124	n/a	n/a	0	0	0
1698.748	n/a	WORD	849374	wordpools/wasnorm_wordpool_576.txt	LTP317	ltpFR2	12	8	PERMIT	1051	n/a	n/a	0	0	0
1701.332	n/a	WORD	850666	wordpools/wasnorm_wordpool_576.txt	LTP317	ltpFR2	12	8	STICKER	1382	n/a	n/a	0	0	0
1703.768	n/a	WORD	851884	wordpools/wasnorm_wordpool_576.txt	LTP317	ltpFR2	12	8	CRUTCH	417	n/a	n/a	0	0	0
1705.386	n/a	START	852693	n/a	LTP317	ltpFR2	12	n/a	n/a	n/a	13	n/a	n/a	n/a	n/a
1706.246	n/a	DISTRACTOR	853123	n/a	LTP317	ltpFR2	12	8	n/a	n/a	n/a	n/a	0	0	0
1706.252	n/a	PROB	853126	n/a	LTP317	ltpFR2	12	n/a	n/a	n/a	13	17	8	4	5
1708.17	n/a	PROB	854085	n/a	LTP317	ltpFR2	12	n/a	n/a	n/a	13	8	2	3	3
1709.956	n/a	PROB	854978	n/a	LTP317	ltpFR2	12	n/a	n/a	n/a	13	24	8	8	8
1712.44	n/a	PROB	856220	n/a	LTP317	ltpFR2	12	n/a	n/a	n/a	13	24	8	7	9
1715.124	n/a	PROB	857562	n/a	LTP317	ltpFR2	12	n/a	n/a	n/a	13	16	2	6	8
1716.66	n/a	PROB	858330	n/a	LTP317	ltpFR2	12	n/a	n/a	n/a	13	15	3	5	7
1718.126	n/a	PROB	859063	n/a	LTP317	ltpFR2	12	n/a	n/a	n/a	13	19	5	9	5
1719.844	n/a	PROB	859922	n/a	LTP317	ltpFR2	12	n/a	n/a	n/a	13	21	5	9	7
1722.364	n/a	PROB	861182	n/a	LTP317	ltpFR2	12	n/a	n/a	n/a	13	16	6	6	4
1723.768	n/a	PROB	861884	n/a	LTP317	ltpFR2	12	n/a	n/a	n/a	13	22	9	9	8
1725.866	n/a	PROB	862933	n/a	LTP317	ltpFR2	12	n/a	n/a	n/a	13	13	3	2	8
1727.892	n/a	STOP	863946	n/a	LTP317	ltpFR2	12	n/a	n/a	n/a	13	n/a	n/a	n/a	n/a
1731.29	n/a	REC_START	865645	n/a	LTP317	ltpFR2	12	8	n/a	n/a	n/a	n/a	0	0	0
1733.86	n/a	REC_WORD	866930	wordpools/wasnorm_wordpool_576.txt	LTP317	ltpFR2	12	8	KITCHEN	778	n/a	n/a	0	0	0
1735.064	n/a	REC_WORD	867532	wordpools/wasnorm_wordpool_576.txt	LTP317	ltpFR2	12	8	PATIENT	1024	n/a	n/a	0	0	0
1736.354	n/a	REC_WORD	868177	wordpools/wasnorm_wordpool_576.txt	LTP317	ltpFR2	12	8	BEAVER	109	n/a	n/a	0	0	0
1737.6	n/a	REC_WORD	868800	wordpools/wasnorm_wordpool_576.txt	LTP317	ltpFR2	12	8	GAZELLE	628	n/a	n/a	0	0	0
1738.548	n/a	REC_WORD	869274	wordpools/wasnorm_wordpool_576.txt	LTP317	ltpFR2	12	8	SALAD	1224	n/a	n/a	0	0	0
1739.582	n/a	REC_WORD	869791	wordpools/wasnorm_wordpool_576.txt	LTP317	ltpFR2	12	8	COD	340	n/a	n/a	0	0	0
1807.816	n/a	REST_REWET	903908	n/a	LTP317	ltpFR2	12	8	n/a	n/a	n/a	n/a	0	0	0
1953.446	n/a	WORD	976723	wordpools/wasnorm_wordpool_576.txt	LTP317	ltpFR2	12	9	MOTEL	919	n/a	n/a	0	0	0
1955.896	n/a	WORD	977948	wordpools/wasnorm_wordpool_576.txt	LTP317	ltpFR2	12	9	PICTURE	1061	n/a	n/a	0	0	0
1958.4	n/a	WORD	979200	wordpools/wasnorm_wordpool_576.txt	LTP317	ltpFR2	12	9	RECORD	1176	n/a	n/a	0	0	0
1960.984	n/a	WORD	980492	wordpools/wasnorm_wordpool_576.txt	LTP317	ltpFR2	12	9	SADDLE	1221	n/a	n/a	0	0	0
1963.786	n/a	WORD	981893	wordpools/wasnorm_wordpool_576.txt	LTP317	ltpFR2	12	9	SCOTCH	1251	n/a	n/a	0	0	0
1966.576	n/a	WORD	983288	wordpools/wasnorm_wordpool_576.txt	LTP317	ltpFR2	12	9	GARLIC	624	n/a	n/a	0	0	0
1969.258	n/a	WORD	984629	wordpools/wasnorm_wordpool_576.txt	LTP317	ltpFR2	12	9	WRIST	1626	n/a	n/a	0	0	0
1971.992	n/a	WORD	985996	wordpools/wasnorm_wordpool_576.txt	LTP317	ltpFR2	12	9	FLOWER	584	n/a	n/a	0	0	0
1974.582	n/a	WORD	987291	wordpools/wasnorm_wordpool_576.txt	LTP317	ltpFR2	12	9	BARLEY	88	n/a	n/a	0	0	0
1977.368	n/a	WORD	988684	wordpools/wasnorm_wordpool_576.txt	LTP317	ltpFR2	12	9	DONOR	485	n/a	n/a	0	0	0
1979.982	n/a	WORD	989991	wordpools/wasnorm_wordpool_576.txt	LTP317	ltpFR2	12	9	TABLE	1426	n/a	n/a	0	0	0
1982.422	n/a	WORD	991211	wordpools/wasnorm_wordpool_576.txt	LTP317	ltpFR2	12	9	FOREST	593	n/a	n/a	0	0	0
1985.086	n/a	WORD	992543	wordpools/wasnorm_wordpool_576.txt	LTP317	ltpFR2	12	9	HEART	697	n/a	n/a	0	0	0
1987.738	n/a	WORD	993869	wordpools/wasnorm_wordpool_576.txt	LTP317	ltpFR2	12	9	PERFUME	1049	n/a	n/a	0	0	0
1990.306	n/a	WORD	995153	wordpools/wasnorm_wordpool_576.txt	LTP317	ltpFR2	12	9	FRAGRANCE	599	n/a	n/a	0	0	0
1992.998	n/a	WORD	996499	wordpools/wasnorm_wordpool_576.txt	LTP317	ltpFR2	12	9	BABY	64	n/a	n/a	0	0	0
1995.6	n/a	WORD	997800	wordpools/wasnorm_wordpool_576.txt	LTP317	ltpFR2	12	9	DOLPHIN	483	n/a	n/a	0	0	0
1998.13	n/a	WORD	999065	wordpools/wasnorm_wordpool_576.txt	LTP317	ltpFR2	12	9	JELLY	755	n/a	n/a	0	0	0
2000.616	n/a	WORD	1000308	wordpools/wasnorm_wordpool_576.txt	LTP317	ltpFR2	12	9	TRANSPLANT	1496	n/a	n/a	0	0	0
2003.408	n/a	WORD	1001704	wordpools/wasnorm_wordpool_576.txt	LTP317	ltpFR2	12	9	ARM	38	n/a	n/a	0	0	0
2006.008	n/a	WORD	1003004	wordpools/wasnorm_wordpool_576.txt	LTP317	ltpFR2	12	9	GLOVE	642	n/a	n/a	0	0	0
2008.554	n/a	WORD	1004277	wordpools/wasnorm_wordpool_576.txt	LTP317	ltpFR2	12	9	PIANO	1057	n/a	n/a	0	0	0
2010.99	n/a	WORD	1005495	wordpools/wasnorm_wordpool_576.txt	LTP317	ltpFR2	12	9	HUSBAND	728	n/a	n/a	0	0	0
2013.408	n/a	WORD	1006704	wordpools/wasnorm_wordpool_576.txt	LTP317	ltpFR2	12	9	HAWK	692	n/a	n/a	0	0	0
2015.016	n/a	START	1007508	n/a	LTP317	ltpFR2	12	n/a	n/a	n/a	14	n/a	n/a	n/a	n/a
2016.176	n/a	DISTRACTOR	1008088	n/a	LTP317	ltpFR2	12	9	n/a	n/a	n/a	n/a	0	0	0
2016.184	n/a	PROB	1008092	n/a	LTP317	ltpFR2	12	n/a	n/a	n/a	14	19	6	4	9
2017.744	n/a	PROB	1008872	n/a	LTP317	ltpFR2	12	n/a	n/a	n/a	14	19	6	9	4
2020.63	n/a	PROB	1010315	n/a	LTP317	ltpFR2	12	n/a	n/a	n/a	14	11	2	6	3
2023.266	n/a	PROB	1011633	n/a	LTP317	ltpFR2	12	n/a	n/a	n/a	14	17	1	8	8
2024.8	n/a	PROB	1012400	n/a	LTP317	ltpFR2	12	n/a	n/a	n/a	14	11	1	9	1
2026.252	n/a	PROB	1013126	n/a	LTP317	ltpFR2	12	n/a	n/a	n/a	14	14	5	5	4
2027.452	n/a	PROB	1013726	n/a	LTP317	ltpFR2	12	n/a	n/a	n/a	14	21	9	7	5
2030.222	n/a	PROB	1015111	n/a	LTP317	ltpFR2	12	n/a	n/a	n/a	14	23	9	6	8
2033.09	n/a	PROB	1016545	n/a	LTP317	ltpFR2	12	n/a	n/a	n/a	14	11	8	4	9
2035.158	n/a	PROB	1017579	n/a	LTP317	ltpFR2	12	n/a	n/a	n/a	14	11	9	1	1
2036.66	n/a	PROB	1018330	n/a	LTP317	ltpFR2	12	n/a	n/a	n/a	14	14	3	3	8
2038.354	n/a	STOP	1019177	n/a	LTP317	ltpFR2	12	n/a	n/a	n/a	14	n/a	n/a	n/a	n/a
2040.932	n/a	REC_START	1020466	n/a	LTP317	ltpFR2	12	9	n/a	n/a	n/a	n/a	0	0	0
2042.71	n/a	REC_WORD	1021355	wordpools/wasnorm_wordpool_576.txt	LTP317	ltpFR2	12	9	MOTEL	919	n/a	n/a	0	0	0
2043.548	n/a	REC_WORD	1021774	wordpools/wasnorm_wordpool_576.txt	LTP317	ltpFR2	12	9	PICTURE	1061	n/a	n/a	0	0	0
2046.356	n/a	REC_WORD	1023178	wordpools/wasnorm_wordpool_576.txt	LTP317	ltpFR2	12	9	RECORD	1176	n/a	n/a	0	0	0
2047.354	n/a	REC_WORD_VV	1023677	wordpools/wasnorm_wordpool_576.txt	LTP317	ltpFR2	12	9	<>	-1	n/a	n/a	0	0	0
2050.264	n/a	REC_WORD	1025132	wordpools/wasnorm_wordpool_576.txt	LTP317	ltpFR2	12	9	SCOTCH	1251	n/a	n/a	0	0	0
2051.35	n/a	REC_WORD	1025675	wordpools/wasnorm_wordpool_576.txt	LTP317	ltpFR2	12	9	BARLEY	88	n/a	n/a	0	0	0
2052.576	n/a	REC_WORD	1026288	wordpools/wasnorm_wordpool_576.txt	LTP317	ltpFR2	12	9	HAWK	692	n/a	n/a	0	0	0
2053.62	n/a	REC_WORD	1026810	wordpools/wasnorm_wordpool_576.txt	LTP317	ltpFR2	12	9	PIANO	1057	n/a	n/a	0	0	0
2054.434	n/a	REC_WORD	1027217	wordpools/wasnorm_wordpool_576.txt	LTP317	ltpFR2	12	9	HUSBAND	728	n/a	n/a	0	0	0
2131.4	n/a	WORD	1065700	wordpools/wasnorm_wordpool_576.txt	LTP317	ltpFR2	12	10	BUG	187	n/a	n/a	0	0	0
2134.002	n/a	WORD	1067001	wordpools/wasnorm_wordpool_576.txt	LTP317	ltpFR2	12	10	PUDDING	1139	n/a	n/a	0	0	0
2136.788	n/a	WORD	1068394	wordpools/wasnorm_wordpool_576.txt	LTP317	ltpFR2	12	10	DENTIST	447	n/a	n/a	0	0	0
2139.372	n/a	WORD	1069686	wordpools/wasnorm_wordpool_576.txt	LTP317	ltpFR2	12	10	SUNSET	1408	n/a	n/a	0	0	0
2141.924	n/a	WORD	1070962	wordpools/wasnorm_wordpool_576.txt	LTP317	ltpFR2	12	10	LETTUCE	814	n/a	n/a	0	0	0
2144.578	n/a	WORD	1072289	wordpools/wasnorm_wordpool_576.txt	LTP317	ltpFR2	12	10	SLIME	1327	n/a	n/a	0	0	0
2147.162	n/a	WORD	1073581	wordpools/wasnorm_wordpool_576.txt	LTP317	ltpFR2	12	10	PEANUT	1032	n/a	n/a	0	0	0
2149.632	n/a	WORD	1074816	wordpools/wasnorm_wordpool_576.txt	LTP317	ltpFR2	12	10	DRESSER	496	n/a	n/a	0	0	0
2152.15	n/a	WORD	1076075	wordpools/wasnorm_wordpool_576.txt	LTP317	ltpFR2	12	10	SHELF	1280	n/a	n/a	0	0	0
2154.736	n/a	WORD	1077368	wordpools/wasnorm_wordpool_576.txt	LTP317	ltpFR2	12	10	SHRUB	1299	n/a	n/a	0	0	0
2157.238	n/a	WORD	1078619	wordpools/wasnorm_wordpool_576.txt	LTP317	ltpFR2	12	10	SCALPEL	1243	n/a	n/a	0	0	0
2159.99	n/a	WORD	1079995	wordpools/wasnorm_wordpool_576.txt	LTP317	ltpFR2	12	10	PAIL	1002	n/a	n/a	0	0	0
2162.492	n/a	WORD	1081246	wordpools/wasnorm_wordpool_576.txt	LTP317	ltpFR2	12	10	DIVER	476	n/a	n/a	0	0	0
2165.278	n/a	WORD	1082639	wordpools/wasnorm_wordpool_576.txt	LTP317	ltpFR2	12	10	MONSTER	912	n/a	n/a	0	0	0
2167.88	n/a	WORD	1083940	wordpools/wasnorm_wordpool_576.txt	LTP317	ltpFR2	12	10	SALT	1229	n/a	n/a	0	0	0
2170.448	n/a	WORD	1085224	wordpools/wasnorm_wordpool_576.txt	LTP317	ltpFR2	12	10	PASTRY	1022	n/a	n/a	0	0	0
2173.2	n/a	WORD	1086600	wordpools/wasnorm_wordpool_576.txt	LTP317	ltpFR2	12	10	ROOSTER	1209	n/a	n/a	0	0	0
2175.968	n/a	WORD	1087984	wordpools/wasnorm_wordpool_576.txt	LTP317	ltpFR2	12	10	BUREAU	199	n/a	n/a	0	0	0
2178.672	n/a	WORD	1089336	wordpools/wasnorm_wordpool_576.txt	LTP317	ltpFR2	12	10	COURSE	390	n/a	n/a	0	0	0
2181.406	n/a	WORD	1090703	wordpools/wasnorm_wordpool_576.txt	LTP317	ltpFR2	12	10	COUCH	386	n/a	n/a	0	0	0
2184.208	n/a	WORD	1092104	wordpools/wasnorm_wordpool_576.txt	LTP317	ltpFR2	12	10	BREAST	171	n/a	n/a	0	0	0
2186.928	n/a	WORD	1093464	wordpools/wasnorm_wordpool_576.txt	LTP317	ltpFR2	12	10	BASEMENT	94	n/a	n/a	0	0	0
2189.73	n/a	WORD	1094865	wordpools/wasnorm_wordpool_576.txt	LTP317	ltpFR2	12	10	SHELTER	1282	n/a	n/a	0	0	0
2192.248	n/a	WORD	1096124	wordpools/wasnorm_wordpool_576.txt	LTP317	ltpFR2	12	10	CHEST	295	n/a	n/a	0	0	0
2193.854	n/a	START	1096927	n/a	LTP317	ltpFR2	12	n/a	n/a	n/a	15	n/a	n/a	n/a	n/a
2195.048	n/a	DISTRACTOR	1097524	n/a	LTP317	ltpFR2	12	10	n/a	n/a	n/a	n/a	0	0	0
2195.052	n/a	PROB	1097526	n/a	LTP317	ltpFR2	12	n/a	n/a	n/a	15	15	5	1	9
2196.566	n/a	PROB	1098283	n/a	LTP317	ltpFR2	12	n/a	n/a	n/a	15	16	7	3	6
2197.67	n/a	PROB	1098835	n/a	LTP317	ltpFR2	12	n/a	n/a	n/a	15	12	4	1	7
2198.92	n/a	PROB	1099460	n/a	LTP317	ltpFR2	12	n/a	n/a	n/a	15	8	2	1	5
2200.236	n/a	PROB	1100118	n/a	LTP317	ltpFR2	12	n/a	n/a	n/a	15	10	4	5	1
2201.74	n/a	PROB	1100870	n/a	LTP317	ltpFR2	12	n/a	n/a	n/a	15	1	3	4	9
2203.124	n/a	PROB	1101562	n/a	LTP317	ltpFR2	12	n/a	n/a	n/a	15	21	9	8	4
2206.41	n/a	PROB	1103205	n/a	LTP317	ltpFR2	12	n/a	n/a	n/a	15	11	1	6	4
2207.76	n/a	PROB	1103880	n/a	LTP317	ltpFR2	12	n/a	n/a	n/a	15	1	6	3	3
2209.694	n/a	PROB	1104847	n/a	LTP317	ltpFR2	12	n/a	n/a	n/a	15	19	5	5	9
2212.08	n/a	PROB	1106040	n/a	LTP317	ltpFR2	12	n/a	n/a	n/a	15	23	5	7	8
2216.892	n/a	STOP	1108446	n/a	LTP317	ltpFR2	12	n/a	n/a	n/a	15	n/a	n/a	n/a	n/a
2219.736	n/a	REC_START	1109868	n/a	LTP317	ltpFR2	12	10	n/a	n/a	n/a	n/a	0	0	0
2222.132	n/a	REC_WORD_VV	1111066	wordpools/wasnorm_wordpool_576.txt	LTP317	ltpFR2	12	10	<>	-1	n/a	n/a	0	0	0
2223.132	n/a	REC_WORD_VV	1111566	wordpools/wasnorm_wordpool_576.txt	LTP317	ltpFR2	12	10	<>	-1	n/a	n/a	0	0	0
2224.132	n/a	REC_WORD_VV	1112066	wordpools/wasnorm_wordpool_576.txt	LTP317	ltpFR2	12	10	<>	-1	n/a	n/a	0	0	0
2225.576	n/a	REC_WORD	1112788	wordpools/wasnorm_wordpool_576.txt	LTP317	ltpFR2	12	10	BUG	187	n/a	n/a	0	0	0
2226.33	n/a	REC_WORD	1113165	wordpools/wasnorm_wordpool_576.txt	LTP317	ltpFR2	12	10	PUDDING	1139	n/a	n/a	0	0	0
2238.65	n/a	REC_WORD	1119325	wordpools/wasnorm_wordpool_576.txt	LTP317	ltpFR2	12	10	PASTRY	1022	n/a	n/a	0	0	0
2240.32	n/a	REC_WORD	1120160	wordpools/wasnorm_wordpool_576.txt	LTP317	ltpFR2	12	10	BUREAU	199	n/a	n/a	0	0	0
2267.14	n/a	REC_WORD	1133570	wordpools/wasnorm_wordpool_576.txt	LTP317	ltpFR2	12	10	COURSE	390	n/a	n/a	0	0	0
2268.48	n/a	REC_WORD	1134240	wordpools/wasnorm_wordpool_576.txt	LTP317	ltpFR2	12	10	COUCH	386	n/a	n/a	0	0	0
2310.172	n/a	WORD	1155086	wordpools/wasnorm_wordpool_576.txt	LTP317	ltpFR2	12	11	PANTHER	1009	n/a	n/a	0	0	0
2312.87	n/a	WORD	1156435	wordpools/wasnorm_wordpool_576.txt	LTP317	ltpFR2	12	11	WARDROBE	1587	n/a	n/a	0	0	0
2315.322	n/a	WORD	1157661	wordpools/wasnorm_wordpool_576.txt	LTP317	ltpFR2	12	11	SIBLING	1301	n/a	n/a	0	0	0
2317.858	n/a	WORD	1158929	wordpools/wasnorm_wordpool_576.txt	LTP317	ltpFR2	12	11	MONEY	908	n/a	n/a	0	0	0
2320.514	n/a	WORD	1160257	wordpools/wasnorm_wordpool_576.txt	LTP317	ltpFR2	12	11	BRIEFCASE	175	n/a	n/a	0	0	0
2323.012	n/a	WORD	1161506	wordpools/wasnorm_wordpool_576.txt	LTP317	ltpFR2	12	11	EYELASH	546	n/a	n/a	0	0	0
2325.564	n/a	WORD	1162782	wordpools/wasnorm_wordpool_576.txt	LTP317	ltpFR2	12	11	SPACE	1345	n/a	n/a	0	0	0
2328.204	n/a	WORD	1164102	wordpools/wasnorm_wordpool_576.txt	LTP317	ltpFR2	12	11	MARS	873	n/a	n/a	0	0	0
2330.692	n/a	WORD	1165346	wordpools/wasnorm_wordpool_576.txt	LTP317	ltpFR2	12	11	PENGUIN	1044	n/a	n/a	0	0	0
2333.438	n/a	WORD	1166719	wordpools/wasnorm_wordpool_576.txt	LTP317	ltpFR2	12	11	PARROT	1015	n/a	n/a	0	0	0
2335.974	n/a	WORD	1167987	wordpools/wasnorm_wordpool_576.txt	LTP317	ltpFR2	12	11	BLACKBOARD	133	n/a	n/a	0	0	0
2338.794	n/a	WORD	1169397	wordpools/wasnorm_wordpool_576.txt	LTP317	ltpFR2	12	11	SEAL	1262	n/a	n/a	0	0	0
2341.41	n/a	WORD	1170705	wordpools/wasnorm_wordpool_576.txt	LTP317	ltpFR2	12	11	POSSUM	1112	n/a	n/a	0	0	0
2344.096	n/a	WORD	1172048	wordpools/wasnorm_wordpool_576.txt	LTP317	ltpFR2	12	11	BOARD	143	n/a	n/a	0	0	0
2346.516	n/a	WORD	1173258	wordpools/wasnorm_wordpool_576.txt	LTP317	ltpFR2	12	11	PUPPY	1144	n/a	n/a	0	0	0
2349.118	n/a	WORD	1174559	wordpools/wasnorm_wordpool_576.txt	LTP317	ltpFR2	12	11	CATCHER	258	n/a	n/a	0	0	0
2351.906	n/a	WORD	1175953	wordpools/wasnorm_wordpool_576.txt	LTP317	ltpFR2	12	11	BLOCKADE	137	n/a	n/a	0	0	0
2354.408	n/a	WORD	1177204	wordpools/wasnorm_wordpool_576.txt	LTP317	ltpFR2	12	11	LEG	809	n/a	n/a	0	0	0
2356.924	n/a	WORD	1178462	wordpools/wasnorm_wordpool_576.txt	LTP317	ltpFR2	12	11	WINDOW	1611	n/a	n/a	0	0	0
2359.392	n/a	WORD	1179696	wordpools/wasnorm_wordpool_576.txt	LTP317	ltpFR2	12	11	STALLION	1369	n/a	n/a	0	0	0
2362.148	n/a	WORD	1181074	wordpools/wasnorm_wordpool_576.txt	LTP317	ltpFR2	12	11	CAFE	216	n/a	n/a	0	0	0
2364.964	n/a	WORD	1182482	wordpools/wasnorm_wordpool_576.txt	LTP317	ltpFR2	12	11	COLLEGE	346	n/a	n/a	0	0	0
2367.618	n/a	WORD	1183809	wordpools/wasnorm_wordpool_576.txt	LTP317	ltpFR2	12	11	AGENT	10	n/a	n/a	0	0	0
2370.352	n/a	WORD	1185176	wordpools/wasnorm_wordpool_576.txt	LTP317	ltpFR2	12	11	NURSE	963	n/a	n/a	0	0	0
2371.97	n/a	START	1185985	n/a	LTP317	ltpFR2	12	n/a	n/a	n/a	16	n/a	n/a	n/a	n/a
2372.854	n/a	DISTRACTOR	1186427	n/a	LTP317	ltpFR2	12	11	n/a	n/a	n/a	n/a	0	0	0
2372.872	n/a	PROB	1186436	n/a	LTP317	ltpFR2	12	n/a	n/a	n/a	16	17	7	6	4
2374.974	n/a	PROB	1187487	n/a	LTP317	ltpFR2	12	n/a	n/a	n/a	16	9	2	2	5
2376.808	n/a	PROB	1188404	n/a	LTP317	ltpFR2	12	n/a	n/a	n/a	16	17	3	9	5
2378.228	n/a	PROB	1189114	n/a	LTP317	ltpFR2	12	n/a	n/a	n/a	16	12	8	1	3
2379.63	n/a	PROB	1189815	n/a	LTP317	ltpFR2	12	n/a	n/a	n/a	16	17	6	7	4
2383.396	n/a	PROB	1191698	n/a	LTP317	ltpFR2	12	n/a	n/a	n/a	16	15	9	3	3
2385.182	n/a	PROB	1192591	n/a	LTP317	ltpFR2	12	n/a	n/a	n/a	16	19	7	3	9
2386.7	n/a	PROB	1193350	n/a	LTP317	ltpFR2	12	n/a	n/a	n/a	16	15	1	8	6
2388.284	n/a	PROB	1194142	n/a	LTP317	ltpFR2	12	n/a	n/a	n/a	16	20	8	4	8
2390.202	n/a	PROB	1195101	n/a	LTP317	ltpFR2	12	n/a	n/a	n/a	16	17	3	8	6
2391.686	n/a	PROB	1195843	n/a	LTP317	ltpFR2	12	n/a	n/a	n/a	16	7	2	3	2
2393.572	n/a	PROB	1196786	n/a	LTP317	ltpFR2	12	n/a	n/a	n/a	16	13	2	2	9
2395.392	n/a	STOP	1197696	n/a	LTP317	ltpFR2	12	n/a	n/a	n/a	16	n/a	n/a	n/a	n/a
2397.842	n/a	REC_START	1198921	n/a	LTP317	ltpFR2	12	11	n/a	n/a	n/a	n/a	0	0	0
2399.302	n/a	REC_WORD	1199651	wordpools/wasnorm_wordpool_576.txt	LTP317	ltpFR2	12	11	PANTHER	1009	n/a	n/a	0	0	0
2400.258	n/a	REC_WORD	1200129	wordpools/wasnorm_wordpool_576.txt	LTP317	ltpFR2	12	11	WARDROBE	1587	n/a	n/a	0	0	0
2401.264	n/a	REC_WORD	1200632	wordpools/wasnorm_wordpool_576.txt	LTP317	ltpFR2	12	11	SIBLING	1301	n/a	n/a	0	0	0
2402.174	n/a	REC_WORD	1201087	wordpools/wasnorm_wordpool_576.txt	LTP317	ltpFR2	12	11	MONEY	908	n/a	n/a	0	0	0
2405.854	n/a	REC_WORD	1202927	wordpools/wasnorm_wordpool_576.txt	LTP317	ltpFR2	12	11	HORSE	719	n/a	n/a	0	0	0
2406.876	n/a	REC_WORD_VV	1203438	wordpools/wasnorm_wordpool_576.txt	LTP317	ltpFR2	12	11	<>	-1	n/a	n/a	0	0	0
2407.148	n/a	REC_WORD	1203574	wordpools/wasnorm_wordpool_576.txt	LTP317	ltpFR2	12	11	STALLION	1369	n/a	n/a	0	0	0
2408.148	n/a	REC_WORD_VV	1204074	wordpools/wasnorm_wordpool_576.txt	LTP317	ltpFR2	12	11	<>	-1	n/a	n/a	0	0	0
2409.014	n/a	REC_WORD	1204507	wordpools/wasnorm_wordpool_576.txt	LTP317	ltpFR2	12	11	COLLEGE	346	n/a	n/a	0	0	0
2410.18	n/a	REC_WORD	1205090	wordpools/wasnorm_wordpool_576.txt	LTP317	ltpFR2	12	11	NURSE	963	n/a	n/a	0	0	0
2410.984	n/a	REC_WORD	1205492	wordpools/wasnorm_wordpool_576.txt	LTP317	ltpFR2	12	11	AGENT	10	n/a	n/a	0	0	0
2418.9	n/a	REC_WORD	1209450	wordpools/wasnorm_wordpool_576.txt	LTP317	ltpFR2	12	11	PUPPY	1144	n/a	n/a	0	0	0
2488.278	n/a	WORD	1244139	wordpools/wasnorm_wordpool_576.txt	LTP317	ltpFR2	12	12	LILY	821	n/a	n/a	0	0	0
2490.798	n/a	WORD	1245399	wordpools/wasnorm_wordpool_576.txt	LTP317	ltpFR2	12	12	GUARD	667	n/a	n/a	0	0	0
2493.274	n/a	WORD	1246637	wordpools/wasnorm_wordpool_576.txt	LTP317	ltpFR2	12	12	CAPTIVE	240	n/a	n/a	0	0	0
2496.002	n/a	WORD	1248001	wordpools/wasnorm_wordpool_576.txt	LTP317	ltpFR2	12	12	TILE	1468	n/a	n/a	0	0	0
2498.706	n/a	WORD	1249353	wordpools/wasnorm_wordpool_576.txt	LTP317	ltpFR2	12	12	INMATE	738	n/a	n/a	0	0	0
2501.314	n/a	WORD	1250657	wordpools/wasnorm_wordpool_576.txt	LTP317	ltpFR2	12	12	TREAT	1501	n/a	n/a	0	0	0
2503.742	n/a	WORD	1251871	wordpools/wasnorm_wordpool_576.txt	LTP317	ltpFR2	12	12	PERCH	1048	n/a	n/a	0	0	0
2506.268	n/a	WORD	1253134	wordpools/wasnorm_wordpool_576.txt	LTP317	ltpFR2	12	12	COBRA	336	n/a	n/a	0	0	0
2508.996	n/a	WORD	1254498	wordpools/wasnorm_wordpool_576.txt	LTP317	ltpFR2	12	12	LAVA	804	n/a	n/a	0	0	0
2511.514	n/a	WORD	1255757	wordpools/wasnorm_wordpool_576.txt	LTP317	ltpFR2	12	12	LONDON	843	n/a	n/a	0	0	0
2514.016	n/a	WORD	1257008	wordpools/wasnorm_wordpool_576.txt	LTP317	ltpFR2	12	12	PISTON	1076	n/a	n/a	0	0	0
2516.51	n/a	WORD	1258255	wordpools/wasnorm_wordpool_576.txt	LTP317	ltpFR2	12	12	WAGON	1578	n/a	n/a	0	0	0
2519.028	n/a	WORD	1259514	wordpools/wasnorm_wordpool_576.txt	LTP317	ltpFR2	12	12	HOOD	714	n/a	n/a	0	0	0
2521.538	n/a	WORD	1260769	wordpools/wasnorm_wordpool_576.txt	LTP317	ltpFR2	12	12	CRATER	400	n/a	n/a	0	0	0
2524.224	n/a	WORD	1262112	wordpools/wasnorm_wordpool_576.txt	LTP317	ltpFR2	12	12	COLONEL	348	n/a	n/a	0	0	0
2526.886	n/a	WORD	1263443	wordpools/wasnorm_wordpool_576.txt	LTP317	ltpFR2	12	12	FIDDLE	561	n/a	n/a	0	0	0
2529.404	n/a	WORD	1264702	wordpools/wasnorm_wordpool_576.txt	LTP317	ltpFR2	12	12	CONVICT	371	n/a	n/a	0	0	0
2532.014	n/a	WORD	1266007	wordpools/wasnorm_wordpool_576.txt	LTP317	ltpFR2	12	12	VENUS	1557	n/a	n/a	0	0	0
2534.574	n/a	WORD	1267287	wordpools/wasnorm_wordpool_576.txt	LTP317	ltpFR2	12	12	PLUTO	1092	n/a	n/a	0	0	0
2537.194	n/a	WORD	1268597	wordpools/wasnorm_wordpool_576.txt	LTP317	ltpFR2	12	12	CABBAGE	210	n/a	n/a	0	0	0
2539.754	n/a	WORD	1269877	wordpools/wasnorm_wordpool_576.txt	LTP317	ltpFR2	12	12	PASTA	1021	n/a	n/a	0	0	0
2542.348	n/a	WORD	1271174	wordpools/wasnorm_wordpool_576.txt	LTP317	ltpFR2	12	12	SUMMIT	1405	n/a	n/a	0	0	0
2545.118	n/a	WORD	1272559	wordpools/wasnorm_wordpool_576.txt	LTP317	ltpFR2	12	12	RABBIT	1152	n/a	n/a	0	0	0
2547.892	n/a	WORD	1273946	wordpools/wasnorm_wordpool_576.txt	LTP317	ltpFR2	12	12	FRANCE	601	n/a	n/a	0	0	0
2549.506	n/a	START	1274753	n/a	LTP317	ltpFR2	12	n/a	n/a	n/a	17	n/a	n/a	n/a	n/a
2550.622	n/a	DISTRACTOR	1275311	n/a	LTP317	ltpFR2	12	12	n/a	n/a	n/a	n/a	0	0	0
2550.63	n/a	PROB	1275315	n/a	LTP317	ltpFR2	12	n/a	n/a	n/a	17	18	9	1	8
2552.512	n/a	PROB	1276256	n/a	LTP317	ltpFR2	12	n/a	n/a	n/a	17	16	7	6	3
2553.88	n/a	PROB	1276940	n/a	LTP317	ltpFR2	12	n/a	n/a	n/a	17	17	2	6	9
2558.432	n/a	PROB	1279216	n/a	LTP317	ltpFR2	12	n/a	n/a	n/a	17	18	2	9	7
2560.234	n/a	PROB	1280117	n/a	LTP317	ltpFR2	12	n/a	n/a	n/a	17	5	1	3	1
2561.318	n/a	PROB	1280659	n/a	LTP317	ltpFR2	12	n/a	n/a	n/a	17	15	5	5	5
2562.286	n/a	PROB	1281143	n/a	LTP317	ltpFR2	12	n/a	n/a	n/a	17	18	9	6	3
2564.104	n/a	PROB	1282052	n/a	LTP317	ltpFR2	12	n/a	n/a	n/a	17	8	5	1	2
2565.84	n/a	PROB	1282920	n/a	LTP317	ltpFR2	12	n/a	n/a	n/a	17	9	1	2	6
2567.406	n/a	PROB	1283703	n/a	LTP317	ltpFR2	12	n/a	n/a	n/a	17	14	5	4	5
2568.678	n/a	PROB	1284339	n/a	LTP317	ltpFR2	12	n/a	n/a	n/a	17	17	6	7	4
2569.924	n/a	PROB	1284962	n/a	LTP317	ltpFR2	12	n/a	n/a	n/a	17	13	7	3	3
2573.5	n/a	STOP	1286750	n/a	LTP317	ltpFR2	12	n/a	n/a	n/a	17	n/a	n/a	n/a	n/a
2575.248	n/a	REC_START	1287624	n/a	LTP317	ltpFR2	12	12	n/a	n/a	n/a	n/a	0	0	0
2578.994	n/a	REC_WORD	1289497	wordpools/wasnorm_wordpool_576.txt	LTP317	ltpFR2	12	12	LILY	821	n/a	n/a	0	0	0
2580.614	n/a	REC_WORD	1290307	wordpools/wasnorm_wordpool_576.txt	LTP317	ltpFR2	12	12	GUARD	667	n/a	n/a	0	0	0
2584.516	n/a	REC_WORD	1292258	wordpools/wasnorm_wordpool_576.txt	LTP317	ltpFR2	12	12	LONDON	843	n/a	n/a	0	0	0
2585.606	n/a	REC_WORD	1292803	wordpools/wasnorm_wordpool_576.txt	LTP317	ltpFR2	12	12	PISTON	1076	n/a	n/a	0	0	0
2586.552	n/a	REC_WORD	1293276	wordpools/wasnorm_wordpool_576.txt	LTP317	ltpFR2	12	12	WAGON	1578	n/a	n/a	0	0	0
2590.236	n/a	REC_WORD	1295118	wordpools/wasnorm_wordpool_576.txt	LTP317	ltpFR2	12	12	FRANCE	601	n/a	n/a	0	0	0
2591.236	n/a	REC_WORD_VV	1295618	wordpools/wasnorm_wordpool_576.txt	LTP317	ltpFR2	12	12	<>	-1	n/a	n/a	0	0	0
2592.476	n/a	REC_WORD	1296238	wordpools/wasnorm_wordpool_576.txt	LTP317	ltpFR2	12	12	RABBIT	1152	n/a	n/a	0	0	0
2594.004	n/a	REC_WORD	1297002	wordpools/wasnorm_wordpool_576.txt	LTP317	ltpFR2	12	12	CABBAGE	210	n/a	n/a	0	0	0
2665.688	n/a	DISTRACTOR	1332844	n/a	LTP317	ltpFR2	12	13	n/a	n/a	n/a	n/a	0	0	0
2665.688	n/a	START	1332844	n/a	LTP317	ltpFR2	12	n/a	n/a	n/a	18	n/a	n/a	n/a	n/a
2665.702	n/a	PROB	1332851	n/a	LTP317	ltpFR2	12	n/a	n/a	n/a	18	6	1	3	2
2666.834	n/a	PROB	1333417	n/a	LTP317	ltpFR2	12	n/a	n/a	n/a	18	9	3	4	2
2669.336	n/a	PROB	1334668	n/a	LTP317	ltpFR2	12	n/a	n/a	n/a	18	18	6	7	5
2670.756	n/a	PROB	1335378	n/a	LTP317	ltpFR2	12	n/a	n/a	n/a	18	9	2	1	6
2672.156	n/a	PROB	1336078	n/a	LTP317	ltpFR2	12	n/a	n/a	n/a	18	14	1	9	4
2673.456	n/a	PROB	1336728	n/a	LTP317	ltpFR2	12	n/a	n/a	n/a	18	10	4	1	5
2675.04	n/a	PROB	1337520	n/a	LTP317	ltpFR2	12	n/a	n/a	n/a	18	15	3	9	3
2676.71	n/a	PROB	1338355	n/a	LTP317	ltpFR2	12	n/a	n/a	n/a	18	12	5	5	2
2677.892	n/a	PROB	1338946	n/a	LTP317	ltpFR2	12	n/a	n/a	n/a	18	17	6	9	2
2679.51	n/a	PROB	1339755	n/a	LTP317	ltpFR2	12	n/a	n/a	n/a	18	20	3	8	9
2681.046	n/a	PROB	1340523	n/a	LTP317	ltpFR2	12	n/a	n/a	n/a	18	20	6	6	8
2682.414	n/a	PROB	1341207	n/a	LTP317	ltpFR2	12	n/a	n/a	n/a	18	12	7	3	2
2683.632	n/a	PROB	1341816	n/a	LTP317	ltpFR2	12	n/a	n/a	n/a	18	11	1	2	8
2685.216	n/a	PROB	1342608	n/a	LTP317	ltpFR2	12	n/a	n/a	n/a	18	15	3	9	3
2686.5	n/a	PROB	1343250	n/a	LTP317	ltpFR2	12	n/a	n/a	n/a	18	9	1	6	2
2689.688	n/a	STOP	1344844	n/a	LTP317	ltpFR2	12	n/a	n/a	n/a	18	n/a	n/a	n/a	n/a
2690.874	n/a	WORD	1345437	wordpools/wasnorm_wordpool_576.txt	LTP317	ltpFR2	12	13	FREEZER	604	n/a	n/a	0	0	0
2693.572	n/a	WORD	1346786	wordpools/wasnorm_wordpool_576.txt	LTP317	ltpFR2	12	13	REBEL	1172	n/a	n/a	0	0	0
2696.176	n/a	WORD	1348088	wordpools/wasnorm_wordpool_576.txt	LTP317	ltpFR2	12	13	APPLE	33	n/a	n/a	0	0	0
2698.86	n/a	WORD	1349430	wordpools/wasnorm_wordpool_576.txt	LTP317	ltpFR2	12	13	WORKER	1621	n/a	n/a	0	0	0
2701.618	n/a	WORD	1350809	wordpools/wasnorm_wordpool_576.txt	LTP317	ltpFR2	12	13	MARKER	870	n/a	n/a	0	0	0
2704.282	n/a	WORD	1352141	wordpools/wasnorm_wordpool_576.txt	LTP317	ltpFR2	12	13	SERVANT	1271	n/a	n/a	0	0	0
2706.834	n/a	WORD	1353417	wordpools/wasnorm_wordpool_576.txt	LTP317	ltpFR2	12	13	SERVER	1272	n/a	n/a	0	0	0
2709.626	n/a	WORD	1354813	wordpools/wasnorm_wordpool_576.txt	LTP317	ltpFR2	12	13	CRAYON	401	n/a	n/a	0	0	0
2712.344	n/a	WORD	1356172	wordpools/wasnorm_wordpool_576.txt	LTP317	ltpFR2	12	13	PIGMENT	1066	n/a	n/a	0	0	0
2714.872	n/a	WORD	1357436	wordpools/wasnorm_wordpool_576.txt	LTP317	ltpFR2	12	13	DUST	508	n/a	n/a	0	0	0
2717.608	n/a	WORD	1358804	wordpools/wasnorm_wordpool_576.txt	LTP317	ltpFR2	12	13	BANKER	84	n/a	n/a	0	0	0
2720.25	n/a	WORD	1360125	wordpools/wasnorm_wordpool_576.txt	LTP317	ltpFR2	12	13	NEUTRON	947	n/a	n/a	0	0	0
2722.944	n/a	WORD	1361472	wordpools/wasnorm_wordpool_576.txt	LTP317	ltpFR2	12	13	LACE	792	n/a	n/a	0	0	0
2725.748	n/a	WORD	1362874	wordpools/wasnorm_wordpool_576.txt	LTP317	ltpFR2	12	13	DIME	466	n/a	n/a	0	0	0
2728.3	n/a	WORD	1364150	wordpools/wasnorm_wordpool_576.txt	LTP317	ltpFR2	12	13	CHAUFFEUR	283	n/a	n/a	0	0	0
2730.824	n/a	WORD	1365412	wordpools/wasnorm_wordpool_576.txt	LTP317	ltpFR2	12	13	CANDY	230	n/a	n/a	0	0	0
2733.622	n/a	WORD	1366811	wordpools/wasnorm_wordpool_576.txt	LTP317	ltpFR2	12	13	PADDING	999	n/a	n/a	0	0	0
2736.28	n/a	WORD	1368140	wordpools/wasnorm_wordpool_576.txt	LTP317	ltpFR2	12	13	SLOPE	1328	n/a	n/a	0	0	0
2738.726	n/a	WORD	1369363	wordpools/wasnorm_wordpool_576.txt	LTP317	ltpFR2	12	13	LODGE	839	n/a	n/a	0	0	0
2741.276	n/a	WORD	1370638	wordpools/wasnorm_wordpool_576.txt	LTP317	ltpFR2	12	13	TUNNEL	1519	n/a	n/a	0	0	0
2743.928	n/a	WORD	1371964	wordpools/wasnorm_wordpool_576.txt	LTP317	ltpFR2	12	13	BINDER	127	n/a	n/a	0	0	0
2746.666	n/a	WORD	1373333	wordpools/wasnorm_wordpool_576.txt	LTP317	ltpFR2	12	13	GIRL	637	n/a	n/a	0	0	0
2749.424	n/a	WORD	1374712	wordpools/wasnorm_wordpool_576.txt	LTP317	ltpFR2	12	13	PASSAGE	1019	n/a	n/a	0	0	0
2751.97	n/a	WORD	1375985	wordpools/wasnorm_wordpool_576.txt	LTP317	ltpFR2	12	13	TYPIST	1532	n/a	n/a	0	0	0
2753.578	n/a	START	1376789	n/a	LTP317	ltpFR2	12	n/a	n/a	n/a	19	n/a	n/a	n/a	n/a
2754.536	n/a	DISTRACTOR	1377268	n/a	LTP317	ltpFR2	12	13	n/a	n/a	n/a	n/a	0	0	0
2754.546	n/a	PROB	1377273	n/a	LTP317	ltpFR2	12	n/a	n/a	n/a	19	16	5	2	9
2756.188	n/a	PROB	1378094	n/a	LTP317	ltpFR2	12	n/a	n/a	n/a	19	19	8	3	8
2758.572	n/a	PROB	1379286	n/a	LTP317	ltpFR2	12	n/a	n/a	n/a	19	22	6	9	7
2761.792	n/a	PROB	1380896	n/a	LTP317	ltpFR2	12	n/a	n/a	n/a	19	19	9	2	8
2764.194	n/a	PROB	1382097	n/a	LTP317	ltpFR2	12	n/a	n/a	n/a	19	7	1	1	5
2765.378	n/a	PROB	1382689	n/a	LTP317	ltpFR2	12	n/a	n/a	n/a	19	14	3	6	5
2766.948	n/a	PROB	1383474	n/a	LTP317	ltpFR2	12	n/a	n/a	n/a	19	14	6	6	2
2770.916	n/a	PROB	1385458	n/a	LTP317	ltpFR2	12	n/a	n/a	n/a	19	26	9	9	8
2774.35	n/a	PROB	1387175	n/a	LTP317	ltpFR2	12	n/a	n/a	n/a	19	15	5	3	7
2775.586	n/a	PROB	1387793	n/a	LTP317	ltpFR2	12	n/a	n/a	n/a	19	12	5	2	5
2776.926	n/a	STOP	1388463	n/a	LTP317	ltpFR2	12	n/a	n/a	n/a	19	n/a	n/a	n/a	n/a
2779.456	n/a	REC_START	1389728	n/a	LTP317	ltpFR2	12	13	n/a	n/a	n/a	n/a	0	0	0
2789.0	n/a	REC_WORD	1394500	wordpools/wasnorm_wordpool_576.txt	LTP317	ltpFR2	12	13	FREEZER	604	n/a	n/a	0	0	0
2790.0	n/a	REC_WORD_VV	1395000	wordpools/wasnorm_wordpool_576.txt	LTP317	ltpFR2	12	13	<>	-1	n/a	n/a	0	0	0
2791.268	n/a	REC_WORD	1395634	wordpools/wasnorm_wordpool_576.txt	LTP317	ltpFR2	12	13	REBEL	1172	n/a	n/a	0	0	0
2792.76	n/a	REC_WORD	1396380	wordpools/wasnorm_wordpool_576.txt	LTP317	ltpFR2	12	13	APPLE	33	n/a	n/a	0	0	0
2793.766	n/a	REC_WORD	1396883	wordpools/wasnorm_wordpool_576.txt	LTP317	ltpFR2	12	13	WORKER	1621	n/a	n/a	0	0	0
2807.772	n/a	REC_WORD	1403886	wordpools/wasnorm_wordpool_576.txt	LTP317	ltpFR2	12	13	NEUTRON	947	n/a	n/a	0	0	0
2808.772	n/a	REC_WORD_VV	1404386	wordpools/wasnorm_wordpool_576.txt	LTP317	ltpFR2	12	13	<>	-1	n/a	n/a	0	0	0
2810.774	n/a	REC_WORD	1405387	wordpools/wasnorm_wordpool_576.txt	LTP317	ltpFR2	12	13	BANKER	84	n/a	n/a	0	0	0
2869.928	n/a	WORD	1434964	wordpools/wasnorm_wordpool_576.txt	LTP317	ltpFR2	12	14	DASHBOARD	441	n/a	n/a	0	0	0
2872.73	n/a	WORD	1436365	wordpools/wasnorm_wordpool_576.txt	LTP317	ltpFR2	12	14	VALVE	1546	n/a	n/a	0	0	0
2875.166	n/a	WORD	1437583	wordpools/wasnorm_wordpool_576.txt	LTP317	ltpFR2	12	14	CLAMP	316	n/a	n/a	0	0	0
2877.918	n/a	WORD	1438959	wordpools/wasnorm_wordpool_576.txt	LTP317	ltpFR2	12	14	CABIN	211	n/a	n/a	0	0	0
2880.736	n/a	WORD	1440368	wordpools/wasnorm_wordpool_576.txt	LTP317	ltpFR2	12	14	ISLAND	745	n/a	n/a	0	0	0
2883.338	n/a	WORD	1441669	wordpools/wasnorm_wordpool_576.txt	LTP317	ltpFR2	12	14	KLEENEX	782	n/a	n/a	0	0	0
2885.94	n/a	WORD	1442970	wordpools/wasnorm_wordpool_576.txt	LTP317	ltpFR2	12	14	LOVER	846	n/a	n/a	0	0	0
2888.574	n/a	WORD	1444287	wordpools/wasnorm_wordpool_576.txt	LTP317	ltpFR2	12	14	THIEF	1456	n/a	n/a	0	0	0
2891.026	n/a	WORD	1445513	wordpools/wasnorm_wordpool_576.txt	LTP317	ltpFR2	12	14	FRAME	600	n/a	n/a	0	0	0
2893.846	n/a	WORD	1446923	wordpools/wasnorm_wordpool_576.txt	LTP317	ltpFR2	12	14	MISTER	901	n/a	n/a	0	0	0
2896.564	n/a	WORD	1448282	wordpools/wasnorm_wordpool_576.txt	LTP317	ltpFR2	12	14	BANJO	82	n/a	n/a	0	0	0
2899.05	n/a	WORD	1449525	wordpools/wasnorm_wordpool_576.txt	LTP317	ltpFR2	12	14	SPARROW	1347	n/a	n/a	0	0	0
2901.836	n/a	WORD	1450918	wordpools/wasnorm_wordpool_576.txt	LTP317	ltpFR2	12	14	WHISKERS	1605	n/a	n/a	0	0	0
2904.404	n/a	WORD	1452202	wordpools/wasnorm_wordpool_576.txt	LTP317	ltpFR2	12	14	TWEEZERS	1526	n/a	n/a	0	0	0
2907.206	n/a	WORD	1453603	wordpools/wasnorm_wordpool_576.txt	LTP317	ltpFR2	12	14	WIFE	1609	n/a	n/a	0	0	0
2909.792	n/a	WORD	1454896	wordpools/wasnorm_wordpool_576.txt	LTP317	ltpFR2	12	14	GARDEN	623	n/a	n/a	0	0	0
2912.494	n/a	WORD	1456247	wordpools/wasnorm_wordpool_576.txt	LTP317	ltpFR2	12	14	ROBBER	1197	n/a	n/a	0	0	0
2915.196	n/a	WORD	1457598	wordpools/wasnorm_wordpool_576.txt	LTP317	ltpFR2	12	14	ELBOW	520	n/a	n/a	0	0	0
2917.682	n/a	WORD	1458841	wordpools/wasnorm_wordpool_576.txt	LTP317	ltpFR2	12	14	FOREHEAD	592	n/a	n/a	0	0	0
2920.3	n/a	WORD	1460150	wordpools/wasnorm_wordpool_576.txt	LTP317	ltpFR2	12	14	SALMON	1227	n/a	n/a	0	0	0
2923.052	n/a	WORD	1461526	wordpools/wasnorm_wordpool_576.txt	LTP317	ltpFR2	12	14	NOMAD	955	n/a	n/a	0	0	0
2925.622	n/a	WORD	1462811	wordpools/wasnorm_wordpool_576.txt	LTP317	ltpFR2	12	14	UNCLE	1536	n/a	n/a	0	0	0
2928.106	n/a	WORD	1464053	wordpools/wasnorm_wordpool_576.txt	LTP317	ltpFR2	12	14	HOUND	724	n/a	n/a	0	0	0
2930.608	n/a	WORD	1465304	wordpools/wasnorm_wordpool_576.txt	LTP317	ltpFR2	12	14	OX	994	n/a	n/a	0	0	0
2932.214	n/a	START	1466107	n/a	LTP317	ltpFR2	12	n/a	n/a	n/a	20	n/a	n/a	n/a	n/a
2933.224	n/a	DISTRACTOR	1466612	n/a	LTP317	ltpFR2	12	14	n/a	n/a	n/a	n/a	0	0	0
2933.23	n/a	PROB	1466615	n/a	LTP317	ltpFR2	12	n/a	n/a	n/a	20	20	4	7	9
2935.694	n/a	PROB	1467847	n/a	LTP317	ltpFR2	12	n/a	n/a	n/a	20	16	3	5	8
2937.546	n/a	PROB	1468773	n/a	LTP317	ltpFR2	12	n/a	n/a	n/a	20	18	2	9	7
2939.08	n/a	PROB	1469540	n/a	LTP317	ltpFR2	12	n/a	n/a	n/a	20	21	6	6	9
2941.048	n/a	PROB	1470524	n/a	LTP317	ltpFR2	12	n/a	n/a	n/a	20	9	5	2	2
2942.95	n/a	PROB	1471475	n/a	LTP317	ltpFR2	12	n/a	n/a	n/a	20	7	3	1	3
2944.752	n/a	PROB	1472376	n/a	LTP317	ltpFR2	12	n/a	n/a	n/a	20	13	9	1	3
2946.452	n/a	PROB	1473226	n/a	LTP317	ltpFR2	12	n/a	n/a	n/a	20	24	9	6	9
2949.69	n/a	PROB	1474845	n/a	LTP317	ltpFR2	12	n/a	n/a	n/a	20	20	8	3	9
2951.408	n/a	PROB	1475704	n/a	LTP317	ltpFR2	12	n/a	n/a	n/a	20	17	6	6	5
2956.214	n/a	STOP	1478107	n/a	LTP317	ltpFR2	12	n/a	n/a	n/a	20	n/a	n/a	n/a	n/a
2958.13	n/a	REC_START	1479065	n/a	LTP317	ltpFR2	12	14	n/a	n/a	n/a	n/a	0	0	0
2963.342	n/a	REC_WORD	1481671	wordpools/wasnorm_wordpool_576.txt	LTP317	ltpFR2	12	14	OX	994	n/a	n/a	0	0	0
2964.408	n/a	REC_WORD	1482204	wordpools/wasnorm_wordpool_576.txt	LTP317	ltpFR2	12	14	HOUND	724	n/a	n/a	0	0	0
2967.868	n/a	REC_WORD	1483934	wordpools/wasnorm_wordpool_576.txt	LTP317	ltpFR2	12	14	WIFE	1609	n/a	n/a	0	0	0
2968.508	n/a	REC_WORD	1484254	wordpools/wasnorm_wordpool_576.txt	LTP317	ltpFR2	12	14	GARDEN	623	n/a	n/a	0	0	0
2969.574	n/a	REC_WORD	1484787	wordpools/wasnorm_wordpool_576.txt	LTP317	ltpFR2	12	14	TWEEZERS	1526	n/a	n/a	0	0	0
2970.388	n/a	REC_WORD	1485194	wordpools/wasnorm_wordpool_576.txt	LTP317	ltpFR2	12	14	WHISKERS	1605	n/a	n/a	0	0	0
2979.236	n/a	REC_WORD	1489618	wordpools/wasnorm_wordpool_576.txt	LTP317	ltpFR2	12	14	DASHBOARD	441	n/a	n/a	0	0	0
2980.302	n/a	REC_WORD	1490151	wordpools/wasnorm_wordpool_576.txt	LTP317	ltpFR2	12	14	VALVE	1546	n/a	n/a	0	0	0
2983.008	n/a	REC_WORD	1491504	wordpools/wasnorm_wordpool_576.txt	LTP317	ltpFR2	12	14	CLAMP	316	n/a	n/a	0	0	0
2984.222	n/a	REC_WORD	1492111	wordpools/wasnorm_wordpool_576.txt	LTP317	ltpFR2	12	14	CABIN	211	n/a	n/a	0	0	0
3048.546	n/a	DISTRACTOR	1524273	n/a	LTP317	ltpFR2	12	15	n/a	n/a	n/a	n/a	0	0	0
3048.546	n/a	START	1524273	n/a	LTP317	ltpFR2	12	n/a	n/a	n/a	21	n/a	n/a	n/a	n/a
3048.562	n/a	PROB	1524281	n/a	LTP317	ltpFR2	12	n/a	n/a	n/a	21	12	2	2	8
3052.738	n/a	PROB	1526369	n/a	LTP317	ltpFR2	12	n/a	n/a	n/a	21	21	9	6	6
3054.522	n/a	PROB	1527261	n/a	LTP317	ltpFR2	12	n/a	n/a	n/a	21	19	2	9	8
3056.222	n/a	PROB	1528111	n/a	LTP317	ltpFR2	12	n/a	n/a	n/a	21	10	3	1	6
3058.758	n/a	PROB	1529379	n/a	LTP317	ltpFR2	12	n/a	n/a	n/a	21	16	9	2	5
3060.628	n/a	PROB	1530314	n/a	LTP317	ltpFR2	12	n/a	n/a	n/a	21	15	4	4	7
3062.028	n/a	PROB	1531014	n/a	LTP317	ltpFR2	12	n/a	n/a	n/a	21	12	5	6	1
3064.278	n/a	PROB	1532139	n/a	LTP317	ltpFR2	12	n/a	n/a	n/a	21	13	3	4	6
3065.93	n/a	PROB	1532965	n/a	LTP317	ltpFR2	12	n/a	n/a	n/a	21	15	8	3	4
3067.326	n/a	PROB	1533663	n/a	LTP317	ltpFR2	12	n/a	n/a	n/a	21	16	8	4	2
3068.878	n/a	PROB	1534439	n/a	LTP317	ltpFR2	12	n/a	n/a	n/a	21	15	8	4	3
3072.544	n/a	STOP	1536272	n/a	LTP317	ltpFR2	12	n/a	n/a	n/a	21	n/a	n/a	n/a	n/a
3073.382	n/a	WORD	1536691	wordpools/wasnorm_wordpool_576.txt	LTP317	ltpFR2	12	15	OMELET	976	n/a	n/a	0	0	0
3075.804	n/a	WORD	1537902	wordpools/wasnorm_wordpool_576.txt	LTP317	ltpFR2	12	15	YACHT	1629	n/a	n/a	0	0	0
3078.37	n/a	WORD	1539185	wordpools/wasnorm_wordpool_576.txt	LTP317	ltpFR2	12	15	SKETCH	1315	n/a	n/a	0	0	0
3081.158	n/a	WORD	1540579	wordpools/wasnorm_wordpool_576.txt	LTP317	ltpFR2	12	15	VIRUS	1572	n/a	n/a	0	0	0
3083.644	n/a	WORD	1541822	wordpools/wasnorm_wordpool_576.txt	LTP317	ltpFR2	12	15	DRIVER	499	n/a	n/a	0	0	0
3086.362	n/a	WORD	1543181	wordpools/wasnorm_wordpool_576.txt	LTP317	ltpFR2	12	15	TRIBE	1505	n/a	n/a	0	0	0
3089.064	n/a	WORD	1544532	wordpools/wasnorm_wordpool_576.txt	LTP317	ltpFR2	12	15	MUSTARD	935	n/a	n/a	0	0	0
3091.566	n/a	WORD	1545783	wordpools/wasnorm_wordpool_576.txt	LTP317	ltpFR2	12	15	STAPLE	1371	n/a	n/a	0	0	0
3094.068	n/a	WORD	1547034	wordpools/wasnorm_wordpool_576.txt	LTP317	ltpFR2	12	15	LIGHTNING	820	n/a	n/a	0	0	0
3096.77	n/a	WORD	1548385	wordpools/wasnorm_wordpool_576.txt	LTP317	ltpFR2	12	15	CLOUD	328	n/a	n/a	0	0	0
3099.522	n/a	WORD	1549761	wordpools/wasnorm_wordpool_576.txt	LTP317	ltpFR2	12	15	SHOULDER	1294	n/a	n/a	0	0	0
3102.258	n/a	WORD	1551129	wordpools/wasnorm_wordpool_576.txt	LTP317	ltpFR2	12	15	BODY	145	n/a	n/a	0	0	0
3104.942	n/a	WORD	1552471	wordpools/wasnorm_wordpool_576.txt	LTP317	ltpFR2	12	15	PEDAL	1037	n/a	n/a	0	0	0
3107.446	n/a	WORD	1553723	wordpools/wasnorm_wordpool_576.txt	LTP317	ltpFR2	12	15	STOMACH	1384	n/a	n/a	0	0	0
3109.914	n/a	WORD	1554957	wordpools/wasnorm_wordpool_576.txt	LTP317	ltpFR2	12	15	BELLY	119	n/a	n/a	0	0	0
3112.432	n/a	WORD	1556216	wordpools/wasnorm_wordpool_576.txt	LTP317	ltpFR2	12	15	CASHIER	254	n/a	n/a	0	0	0
3114.918	n/a	WORD	1557459	wordpools/wasnorm_wordpool_576.txt	LTP317	ltpFR2	12	15	SNAKE	1333	n/a	n/a	0	0	0
3117.52	n/a	WORD	1558760	wordpools/wasnorm_wordpool_576.txt	LTP317	ltpFR2	12	15	SHERIFF	1284	n/a	n/a	0	0	0
3120.122	n/a	WORD	1560061	wordpools/wasnorm_wordpool_576.txt	LTP317	ltpFR2	12	15	COWBOY	395	n/a	n/a	0	0	0
3122.874	n/a	WORD	1561437	wordpools/wasnorm_wordpool_576.txt	LTP317	ltpFR2	12	15	MILDEW	893	n/a	n/a	0	0	0
3125.51	n/a	WORD	1562755	wordpools/wasnorm_wordpool_576.txt	LTP317	ltpFR2	12	15	NIGHTGOWN	953	n/a	n/a	0	0	0
3128.078	n/a	WORD	1564039	wordpools/wasnorm_wordpool_576.txt	LTP317	ltpFR2	12	15	PEACH	1031	n/a	n/a	0	0	0
3130.814	n/a	WORD	1565407	wordpools/wasnorm_wordpool_576.txt	LTP317	ltpFR2	12	15	CRICKET	408	n/a	n/a	0	0	0
3133.416	n/a	WORD	1566708	wordpools/wasnorm_wordpool_576.txt	LTP317	ltpFR2	12	15	PATROL	1027	n/a	n/a	0	0	0
3135.036	n/a	START	1567518	n/a	LTP317	ltpFR2	12	n/a	n/a	n/a	22	n/a	n/a	n/a	n/a
3136.17	n/a	DISTRACTOR	1568085	n/a	LTP317	ltpFR2	12	15	n/a	n/a	n/a	n/a	0	0	0
3136.186	n/a	PROB	1568093	n/a	LTP317	ltpFR2	12	n/a	n/a	n/a	22	18	5	6	7
3137.852	n/a	PROB	1568926	n/a	LTP317	ltpFR2	12	n/a	n/a	n/a	22	15	7	2	6
3139.202	n/a	PROB	1569601	n/a	LTP317	ltpFR2	12	n/a	n/a	n/a	22	12	2	4	6
3140.588	n/a	PROB	1570294	n/a	LTP317	ltpFR2	12	n/a	n/a	n/a	22	13	4	2	7
3144.006	n/a	PROB	1572003	n/a	LTP317	ltpFR2	12	n/a	n/a	n/a	22	13	3	3	7
3146.858	n/a	PROB	1573429	n/a	LTP317	ltpFR2	12	n/a	n/a	n/a	22	15	6	6	3
3148.128	n/a	PROB	1574064	n/a	LTP317	ltpFR2	12	n/a	n/a	n/a	22	15	7	1	7
3149.494	n/a	PROB	1574747	n/a	LTP317	ltpFR2	12	n/a	n/a	n/a	22	19	5	8	6
3151.028	n/a	PROB	1575514	n/a	LTP317	ltpFR2	12	n/a	n/a	n/a	22	13	6	3	4
3153.164	n/a	PROB	1576582	n/a	LTP317	ltpFR2	12	n/a	n/a	n/a	22	18	9	4	5
3155.0	n/a	PROB	1577500	n/a	LTP317	ltpFR2	12	n/a	n/a	n/a	22	13	4	4	5
3158.126	n/a	STOP	1579063	n/a	LTP317	ltpFR2	12	n/a	n/a	n/a	22	n/a	n/a	n/a	n/a
3160.886	n/a	REC_START	1580443	n/a	LTP317	ltpFR2	12	15	n/a	n/a	n/a	n/a	0	0	0
3164.028	n/a	REC_WORD	1582014	wordpools/wasnorm_wordpool_576.txt	LTP317	ltpFR2	12	15	YACHT	1629	n/a	n/a	0	0	0
3164.798	n/a	REC_WORD	1582399	wordpools/wasnorm_wordpool_576.txt	LTP317	ltpFR2	12	15	OMELET	976	n/a	n/a	0	0	0
3166.268	n/a	REC_WORD	1583134	wordpools/wasnorm_wordpool_576.txt	LTP317	ltpFR2	12	15	SKETCH	1315	n/a	n/a	0	0	0
3167.268	n/a	REC_WORD_VV	1583634	wordpools/wasnorm_wordpool_576.txt	LTP317	ltpFR2	12	15	<>	-1	n/a	n/a	0	0	0
3167.66	n/a	REC_WORD	1583830	wordpools/wasnorm_wordpool_576.txt	LTP317	ltpFR2	12	15	VIRUS	1572	n/a	n/a	0	0	0
3170.112	n/a	REC_WORD	1585056	wordpools/wasnorm_wordpool_576.txt	LTP317	ltpFR2	12	15	STOMACH	1384	n/a	n/a	0	0	0
3171.13	n/a	REC_WORD	1585565	wordpools/wasnorm_wordpool_576.txt	LTP317	ltpFR2	12	15	DELI	-1	n/a	n/a	0	0	0
3186.672	n/a	REC_WORD	1593336	wordpools/wasnorm_wordpool_576.txt	LTP317	ltpFR2	12	15	NIGHTGOWN	953	n/a	n/a	0	0	0
3251.308	n/a	DISTRACTOR	1625654	n/a	LTP317	ltpFR2	12	16	n/a	n/a	n/a	n/a	0	0	0
3251.308	n/a	START	1625654	n/a	LTP317	ltpFR2	12	n/a	n/a	n/a	23	n/a	n/a	n/a	n/a
3251.324	n/a	PROB	1625662	n/a	LTP317	ltpFR2	12	n/a	n/a	n/a	23	17	6	4	7
3252.826	n/a	PROB	1626413	n/a	LTP317	ltpFR2	12	n/a	n/a	n/a	23	17	6	6	5
3254.61	n/a	PROB	1627305	n/a	LTP317	ltpFR2	12	n/a	n/a	n/a	23	10	8	1	1
3255.878	n/a	PROB	1627939	n/a	LTP317	ltpFR2	12	n/a	n/a	n/a	23	1	7	6	5
3258.08	n/a	PROB	1629040	n/a	LTP317	ltpFR2	12	n/a	n/a	n/a	23	11	4	1	6
3260.8	n/a	PROB	1630400	n/a	LTP317	ltpFR2	12	n/a	n/a	n/a	23	25	9	7	9
3263.718	n/a	PROB	1631859	n/a	LTP317	ltpFR2	12	n/a	n/a	n/a	23	25	7	8	7
3265.918	n/a	PROB	1632959	n/a	LTP317	ltpFR2	12	n/a	n/a	n/a	23	18	2	8	8
3268.17	n/a	PROB	1634085	n/a	LTP317	ltpFR2	12	n/a	n/a	n/a	23	14	2	6	6
3270.09	n/a	PROB	1635045	n/a	LTP317	ltpFR2	12	n/a	n/a	n/a	23	21	4	9	8
3272.206	n/a	PROB	1636103	n/a	LTP317	ltpFR2	12	n/a	n/a	n/a	23	10	4	2	4
3273.784	n/a	STOP	1636892	n/a	LTP317	ltpFR2	12	n/a	n/a	n/a	23	n/a	n/a	n/a	n/a
3276.372	n/a	WORD	1638186	wordpools/wasnorm_wordpool_576.txt	LTP317	ltpFR2	12	16	PLAID	1080	n/a	n/a	0	0	0
3278.808	n/a	WORD	1639404	wordpools/wasnorm_wordpool_576.txt	LTP317	ltpFR2	12	16	WOMAN	1620	n/a	n/a	0	0	0
3281.51	n/a	WORD	1640755	wordpools/wasnorm_wordpool_576.txt	LTP317	ltpFR2	12	16	SMOG	1330	n/a	n/a	0	0	0
3284.178	n/a	WORD	1642089	wordpools/wasnorm_wordpool_576.txt	LTP317	ltpFR2	12	16	CHAPEL	280	n/a	n/a	0	0	0
3286.716	n/a	WORD	1643358	wordpools/wasnorm_wordpool_576.txt	LTP317	ltpFR2	12	16	FLESH	579	n/a	n/a	0	0	0
3289.216	n/a	WORD	1644608	wordpools/wasnorm_wordpool_576.txt	LTP317	ltpFR2	12	16	KNAPSACK	783	n/a	n/a	0	0	0
3291.968	n/a	WORD	1645984	wordpools/wasnorm_wordpool_576.txt	LTP317	ltpFR2	12	16	TUBA	1515	n/a	n/a	0	0	0
3294.604	n/a	WORD	1647302	wordpools/wasnorm_wordpool_576.txt	LTP317	ltpFR2	12	16	LADY	794	n/a	n/a	0	0	0
3297.178	n/a	WORD	1648589	wordpools/wasnorm_wordpool_576.txt	LTP317	ltpFR2	12	16	ORANGE	980	n/a	n/a	0	0	0
3299.692	n/a	WORD	1649846	wordpools/wasnorm_wordpool_576.txt	LTP317	ltpFR2	12	16	CARROT	249	n/a	n/a	0	0	0
3302.494	n/a	WORD	1651247	wordpools/wasnorm_wordpool_576.txt	LTP317	ltpFR2	12	16	MARKET	871	n/a	n/a	0	0	0
3305.302	n/a	WORD	1652651	wordpools/wasnorm_wordpool_576.txt	LTP317	ltpFR2	12	16	COOK	372	n/a	n/a	0	0	0
3308.05	n/a	WORD	1654025	wordpools/wasnorm_wordpool_576.txt	LTP317	ltpFR2	12	16	HANDBAG	684	n/a	n/a	0	0	0
3310.786	n/a	WORD	1655393	wordpools/wasnorm_wordpool_576.txt	LTP317	ltpFR2	12	16	WHISTLE	1606	n/a	n/a	0	0	0
3313.286	n/a	WORD	1656643	wordpools/wasnorm_wordpool_576.txt	LTP317	ltpFR2	12	16	PRINCESS	1125	n/a	n/a	0	0	0
3315.972	n/a	WORD	1657986	wordpools/wasnorm_wordpool_576.txt	LTP317	ltpFR2	12	16	MESSAGE	888	n/a	n/a	0	0	0
3318.474	n/a	WORD	1659237	wordpools/wasnorm_wordpool_576.txt	LTP317	ltpFR2	12	16	PEBBLE	1035	n/a	n/a	0	0	0
3321.026	n/a	WORD	1660513	wordpools/wasnorm_wordpool_576.txt	LTP317	ltpFR2	12	16	TEACHER	1440	n/a	n/a	0	0	0
3323.746	n/a	WORD	1661873	wordpools/wasnorm_wordpool_576.txt	LTP317	ltpFR2	12	16	STUDENT	1395	n/a	n/a	0	0	0
3326.414	n/a	WORD	1663207	wordpools/wasnorm_wordpool_576.txt	LTP317	ltpFR2	12	16	COUNTRY	388	n/a	n/a	0	0	0
3329.084	n/a	WORD	1664542	wordpools/wasnorm_wordpool_576.txt	LTP317	ltpFR2	12	16	FOOTBALL	591	n/a	n/a	0	0	0
3331.586	n/a	WORD	1665793	wordpools/wasnorm_wordpool_576.txt	LTP317	ltpFR2	12	16	HORNET	718	n/a	n/a	0	0	0
3334.288	n/a	WORD	1667144	wordpools/wasnorm_wordpool_576.txt	LTP317	ltpFR2	12	16	CYCLONE	431	n/a	n/a	0	0	0
3336.806	n/a	WORD	1668403	wordpools/wasnorm_wordpool_576.txt	LTP317	ltpFR2	12	16	PUPIL	1143	n/a	n/a	0	0	0
3338.426	n/a	START	1669213	n/a	LTP317	ltpFR2	12	n/a	n/a	n/a	24	n/a	n/a	n/a	n/a
3339.424	n/a	DISTRACTOR	1669712	n/a	LTP317	ltpFR2	12	16	n/a	n/a	n/a	n/a	0	0	0
3339.442	n/a	PROB	1669721	n/a	LTP317	ltpFR2	12	n/a	n/a	n/a	24	11	7	1	3
3342.28	n/a	PROB	1671140	n/a	LTP317	ltpFR2	12	n/a	n/a	n/a	24	12	4	2	6
3343.546	n/a	PROB	1671773	n/a	LTP317	ltpFR2	12	n/a	n/a	n/a	24	17	3	7	7
3345.032	n/a	PROB	1672516	n/a	LTP317	ltpFR2	12	n/a	n/a	n/a	24	19	7	9	3
3347.25	n/a	PROB	1673625	n/a	LTP317	ltpFR2	12	n/a	n/a	n/a	24	20	5	6	9
3349.084	n/a	PROB	1674542	n/a	LTP317	ltpFR2	12	n/a	n/a	n/a	24	5	1	3	1
3350.184	n/a	PROB	1675092	n/a	LTP317	ltpFR2	12	n/a	n/a	n/a	24	10	1	1	8
3352.638	n/a	PROB	1676319	n/a	LTP317	ltpFR2	12	n/a	n/a	n/a	24	11	1	2	8
3354.036	n/a	PROB	1677018	n/a	LTP317	ltpFR2	12	n/a	n/a	n/a	24	11	4	6	1
3355.556	n/a	PROB	1677778	n/a	LTP317	ltpFR2	12	n/a	n/a	n/a	24	14	4	9	1
3357.242	n/a	PROB	1678621	n/a	LTP317	ltpFR2	12	n/a	n/a	n/a	24	22	8	9	5
3360.91	n/a	PROB	1680455	n/a	LTP317	ltpFR2	12	n/a	n/a	n/a	24	15	4	5	6
3362.274	n/a	STOP	1681137	n/a	LTP317	ltpFR2	12	n/a	n/a	n/a	24	n/a	n/a	n/a	n/a
3364.196	n/a	REC_START	1682098	n/a	LTP317	ltpFR2	12	16	n/a	n/a	n/a	n/a	0	0	0
3381.856	n/a	REC_WORD	1690928	wordpools/wasnorm_wordpool_576.txt	LTP317	ltpFR2	12	16	CHAPEL	280	n/a	n/a	0	0	0
3383.364	n/a	REC_WORD	1691682	wordpools/wasnorm_wordpool_576.txt	LTP317	ltpFR2	12	16	WOMAN	1620	n/a	n/a	0	0	0
3384.392	n/a	REC_WORD	1692196	wordpools/wasnorm_wordpool_576.txt	LTP317	ltpFR2	12	16	LADY	794	n/a	n/a	0	0	0
3385.678	n/a	REC_WORD	1692839	wordpools/wasnorm_wordpool_576.txt	LTP317	ltpFR2	12	16	SMOG	1330	n/a	n/a	0	0	0
3386.678	n/a	REC_WORD_VV	1693339	wordpools/wasnorm_wordpool_576.txt	LTP317	ltpFR2	12	16	<>	-1	n/a	n/a	0	0	0
3390.058	n/a	REC_WORD	1695029	wordpools/wasnorm_wordpool_576.txt	LTP317	ltpFR2	12	16	ORANGE	980	n/a	n/a	0	0	0
3390.626	n/a	REC_WORD	1695313	wordpools/wasnorm_wordpool_576.txt	LTP317	ltpFR2	12	16	CARROT	249	n/a	n/a	0	0	0
3391.322	n/a	REC_WORD	1695661	wordpools/wasnorm_wordpool_576.txt	LTP317	ltpFR2	12	16	STUDENT	1395	n/a	n/a	0	0	0
3392.064	n/a	REC_WORD	1696032	wordpools/wasnorm_wordpool_576.txt	LTP317	ltpFR2	12	16	TEACHER	1440	n/a	n/a	0	0	0
3392.626	n/a	REC_WORD	1696313	wordpools/wasnorm_wordpool_576.txt	LTP317	ltpFR2	12	16	PUPIL	1143	n/a	n/a	0	0	0
3440.724	n/a	REST_REWET	1720362	n/a	LTP317	ltpFR2	12	16	n/a	n/a	n/a	n/a	0	0	0
3637.594	n/a	WORD	1818797	wordpools/wasnorm_wordpool_576.txt	LTP317	ltpFR2	12	17	CASKET	255	n/a	n/a	0	0	0
3640.112	n/a	WORD	1820056	wordpools/wasnorm_wordpool_576.txt	LTP317	ltpFR2	12	17	COMPASS	358	n/a	n/a	0	0	0
3642.85	n/a	WORD	1821425	wordpools/wasnorm_wordpool_576.txt	LTP317	ltpFR2	12	17	BULLET	194	n/a	n/a	0	0	0
3645.666	n/a	WORD	1822833	wordpools/wasnorm_wordpool_576.txt	LTP317	ltpFR2	12	17	CANYON	235	n/a	n/a	0	0	0
3648.318	n/a	WORD	1824159	wordpools/wasnorm_wordpool_576.txt	LTP317	ltpFR2	12	17	DAISY	435	n/a	n/a	0	0	0
3651.068	n/a	WORD	1825534	wordpools/wasnorm_wordpool_576.txt	LTP317	ltpFR2	12	17	ORCHID	982	n/a	n/a	0	0	0
3653.588	n/a	WORD	1826794	wordpools/wasnorm_wordpool_576.txt	LTP317	ltpFR2	12	17	SPHINX	1349	n/a	n/a	0	0	0
3656.258	n/a	WORD	1828129	wordpools/wasnorm_wordpool_576.txt	LTP317	ltpFR2	12	17	MARINE	869	n/a	n/a	0	0	0
3658.776	n/a	WORD	1829388	wordpools/wasnorm_wordpool_576.txt	LTP317	ltpFR2	12	17	OFFICE	972	n/a	n/a	0	0	0
3661.55	n/a	WORD	1830775	wordpools/wasnorm_wordpool_576.txt	LTP317	ltpFR2	12	17	PARTNER	1017	n/a	n/a	0	0	0
3664.312	n/a	WORD	1832156	wordpools/wasnorm_wordpool_576.txt	LTP317	ltpFR2	12	17	FRIEND	606	n/a	n/a	0	0	0
3666.882	n/a	WORD	1833441	wordpools/wasnorm_wordpool_576.txt	LTP317	ltpFR2	12	17	TRENCH	1503	n/a	n/a	0	0	0
3669.418	n/a	WORD	1834709	wordpools/wasnorm_wordpool_576.txt	LTP317	ltpFR2	12	17	BLOUSE	139	n/a	n/a	0	0	0
3672.204	n/a	WORD	1836102	wordpools/wasnorm_wordpool_576.txt	LTP317	ltpFR2	12	17	GRAVE	658	n/a	n/a	0	0	0
3674.672	n/a	WORD	1837336	wordpools/wasnorm_wordpool_576.txt	LTP317	ltpFR2	12	17	TABLET	1427	n/a	n/a	0	0	0
3677.224	n/a	WORD	1838612	wordpools/wasnorm_wordpool_576.txt	LTP317	ltpFR2	12	17	DRUG	501	n/a	n/a	0	0	0
3679.81	n/a	WORD	1839905	wordpools/wasnorm_wordpool_576.txt	LTP317	ltpFR2	12	17	GANGSTER	620	n/a	n/a	0	0	0
3682.3	n/a	WORD	1841150	wordpools/wasnorm_wordpool_576.txt	LTP317	ltpFR2	12	17	BUBBLE	183	n/a	n/a	0	0	0
3684.864	n/a	WORD	1842432	wordpools/wasnorm_wordpool_576.txt	LTP317	ltpFR2	12	17	VELVET	1555	n/a	n/a	0	0	0
3687.314	n/a	WORD	1843657	wordpools/wasnorm_wordpool_576.txt	LTP317	ltpFR2	12	17	GLASS	639	n/a	n/a	0	0	0
3689.938	n/a	WORD	1844969	wordpools/wasnorm_wordpool_576.txt	LTP317	ltpFR2	12	17	FINGER	567	n/a	n/a	0	0	0
3692.694	n/a	WORD	1846347	wordpools/wasnorm_wordpool_576.txt	LTP317	ltpFR2	12	17	CEILING	265	n/a	n/a	0	0	0
3695.138	n/a	WORD	1847569	wordpools/wasnorm_wordpool_576.txt	LTP317	ltpFR2	12	17	DOUGHNUT	490	n/a	n/a	0	0	0
3697.714	n/a	WORD	1848857	wordpools/wasnorm_wordpool_576.txt	LTP317	ltpFR2	12	17	STREAM	1392	n/a	n/a	0	0	0
3699.326	n/a	START	1849663	n/a	LTP317	ltpFR2	12	n/a	n/a	n/a	25	n/a	n/a	n/a	n/a
3700.366	n/a	DISTRACTOR	1850183	n/a	LTP317	ltpFR2	12	17	n/a	n/a	n/a	n/a	0	0	0
3700.374	n/a	PROB	1850187	n/a	LTP317	ltpFR2	12	n/a	n/a	n/a	25	20	9	9	2
3702.092	n/a	PROB	1851046	n/a	LTP317	ltpFR2	12	n/a	n/a	n/a	25	14	4	1	9
3704.078	n/a	PROB	1852039	n/a	LTP317	ltpFR2	12	n/a	n/a	n/a	25	17	5	8	4
3706.244	n/a	PROB	1853122	n/a	LTP317	ltpFR2	12	n/a	n/a	n/a	25	18	8	6	4
3707.812	n/a	PROB	1853906	n/a	LTP317	ltpFR2	12	n/a	n/a	n/a	25	8	5	1	2
3709.482	n/a	PROB	1854741	n/a	LTP317	ltpFR2	12	n/a	n/a	n/a	25	19	3	7	9
3710.668	n/a	PROB	1855334	n/a	LTP317	ltpFR2	12	n/a	n/a	n/a	25	6	1	1	4
3712.016	n/a	PROB	1856008	n/a	LTP317	ltpFR2	12	n/a	n/a	n/a	25	16	7	5	4
3713.468	n/a	PROB	1856734	n/a	LTP317	ltpFR2	12	n/a	n/a	n/a	25	19	8	9	2
3714.852	n/a	PROB	1857426	n/a	LTP317	ltpFR2	12	n/a	n/a	n/a	25	21	9	6	6
3716.838	n/a	PROB	1858419	n/a	LTP317	ltpFR2	12	n/a	n/a	n/a	25	17	7	7	3
3718.638	n/a	PROB	1859319	n/a	LTP317	ltpFR2	12	n/a	n/a	n/a	25	15	1	8	6
3719.992	n/a	PROB	1859996	n/a	LTP317	ltpFR2	12	n/a	n/a	n/a	25	13	1	9	3
3721.506	n/a	PROB	1860753	n/a	LTP317	ltpFR2	12	n/a	n/a	n/a	25	18	6	9	3
3723.296	n/a	STOP	1861648	n/a	LTP317	ltpFR2	12	n/a	n/a	n/a	25	n/a	n/a	n/a	n/a
3725.246	n/a	REC_START	1862623	n/a	LTP317	ltpFR2	12	17	n/a	n/a	n/a	n/a	0	0	0
3727.348	n/a	REC_WORD	1863674	wordpools/wasnorm_wordpool_576.txt	LTP317	ltpFR2	12	17	CASKET	255	n/a	n/a	0	0	0
3728.64	n/a	REC_WORD	1864320	wordpools/wasnorm_wordpool_576.txt	LTP317	ltpFR2	12	17	BULLET	194	n/a	n/a	0	0	0
3729.146	n/a	REC_WORD	1864573	wordpools/wasnorm_wordpool_576.txt	LTP317	ltpFR2	12	17	CANYON	235	n/a	n/a	0	0	0
3730.308	n/a	REC_WORD	1865154	wordpools/wasnorm_wordpool_576.txt	LTP317	ltpFR2	12	17	COMPASS	358	n/a	n/a	0	0	0
3731.308	n/a	REC_WORD_VV	1865654	wordpools/wasnorm_wordpool_576.txt	LTP317	ltpFR2	12	17	<>	-1	n/a	n/a	0	0	0
3732.394	n/a	REC_WORD	1866197	wordpools/wasnorm_wordpool_576.txt	LTP317	ltpFR2	12	17	GRAVE	658	n/a	n/a	0	0	0
3732.972	n/a	REC_WORD	1866486	wordpools/wasnorm_wordpool_576.txt	LTP317	ltpFR2	12	17	SPHINX	1349	n/a	n/a	0	0	0
3738.426	n/a	REC_WORD	1869213	wordpools/wasnorm_wordpool_576.txt	LTP317	ltpFR2	12	17	OFFICE	972	n/a	n/a	0	0	0
3739.282	n/a	REC_WORD	1869641	wordpools/wasnorm_wordpool_576.txt	LTP317	ltpFR2	12	17	PARTNER	1017	n/a	n/a	0	0	0
3740.084	n/a	REC_WORD	1870042	wordpools/wasnorm_wordpool_576.txt	LTP317	ltpFR2	12	17	FRIEND	606	n/a	n/a	0	0	0
3744.356	n/a	REC_WORD	1872178	wordpools/wasnorm_wordpool_576.txt	LTP317	ltpFR2	12	17	VELVET	1555	n/a	n/a	0	0	0
3745.356	n/a	REC_WORD_VV	1872678	wordpools/wasnorm_wordpool_576.txt	LTP317	ltpFR2	12	17	<>	-1	n/a	n/a	0	0	0
3745.83	n/a	REC_WORD	1872915	wordpools/wasnorm_wordpool_576.txt	LTP317	ltpFR2	12	17	GLASS	639	n/a	n/a	0	0	0
3746.838	n/a	REC_WORD	1873419	wordpools/wasnorm_wordpool_576.txt	LTP317	ltpFR2	12	17	FINGER	567	n/a	n/a	0	0	0
3815.698	n/a	WORD	1907849	wordpools/wasnorm_wordpool_576.txt	LTP317	ltpFR2	12	18	DINER	467	n/a	n/a	0	0	0
3818.366	n/a	WORD	1909183	wordpools/wasnorm_wordpool_576.txt	LTP317	ltpFR2	12	18	WAITER	1580	n/a	n/a	0	0	0
3820.934	n/a	WORD	1910467	wordpools/wasnorm_wordpool_576.txt	LTP317	ltpFR2	12	18	OYSTER	995	n/a	n/a	0	0	0
3823.37	n/a	WORD	1911685	wordpools/wasnorm_wordpool_576.txt	LTP317	ltpFR2	12	18	SODA	1341	n/a	n/a	0	0	0
3826.072	n/a	WORD	1913036	wordpools/wasnorm_wordpool_576.txt	LTP317	ltpFR2	12	18	TART	1436	n/a	n/a	0	0	0
3828.506	n/a	WORD	1914253	wordpools/wasnorm_wordpool_576.txt	LTP317	ltpFR2	12	18	SCALLOP	1242	n/a	n/a	0	0	0
3831.092	n/a	WORD	1915546	wordpools/wasnorm_wordpool_576.txt	LTP317	ltpFR2	12	18	DRAWING	494	n/a	n/a	0	0	0
3833.68	n/a	WORD	1916840	wordpools/wasnorm_wordpool_576.txt	LTP317	ltpFR2	12	18	BLUEPRINT	142	n/a	n/a	0	0	0
3836.414	n/a	WORD	1918207	wordpools/wasnorm_wordpool_576.txt	LTP317	ltpFR2	12	18	ONION	977	n/a	n/a	0	0	0
3838.934	n/a	WORD	1919467	wordpools/wasnorm_wordpool_576.txt	LTP317	ltpFR2	12	18	CREATURE	403	n/a	n/a	0	0	0
3841.586	n/a	WORD	1920793	wordpools/wasnorm_wordpool_576.txt	LTP317	ltpFR2	12	18	LIZARD	834	n/a	n/a	0	0	0
3844.27	n/a	WORD	1922135	wordpools/wasnorm_wordpool_576.txt	LTP317	ltpFR2	12	18	GARBAGE	622	n/a	n/a	0	0	0
3846.806	n/a	WORD	1923403	wordpools/wasnorm_wordpool_576.txt	LTP317	ltpFR2	12	18	SCRIBBLE	1256	n/a	n/a	0	0	0
3849.358	n/a	WORD	1924679	wordpools/wasnorm_wordpool_576.txt	LTP317	ltpFR2	12	18	TUTU	1524	n/a	n/a	0	0	0
3852.044	n/a	WORD	1926022	wordpools/wasnorm_wordpool_576.txt	LTP317	ltpFR2	12	18	COIN	343	n/a	n/a	0	0	0
3854.612	n/a	WORD	1927306	wordpools/wasnorm_wordpool_576.txt	LTP317	ltpFR2	12	18	LUMBER	848	n/a	n/a	0	0	0
3857.296	n/a	WORD	1928648	wordpools/wasnorm_wordpool_576.txt	LTP317	ltpFR2	12	18	CREVICE	405	n/a	n/a	0	0	0
3860.048	n/a	WORD	1930024	wordpools/wasnorm_wordpool_576.txt	LTP317	ltpFR2	12	18	KNIFE	785	n/a	n/a	0	0	0
3862.468	n/a	WORD	1931234	wordpools/wasnorm_wordpool_576.txt	LTP317	ltpFR2	12	18	SPOON	1357	n/a	n/a	0	0	0
3865.22	n/a	WORD	1932610	wordpools/wasnorm_wordpool_576.txt	LTP317	ltpFR2	12	18	VALLEY	1545	n/a	n/a	0	0	0
3867.822	n/a	WORD	1933911	wordpools/wasnorm_wordpool_576.txt	LTP317	ltpFR2	12	18	PLAZA	1088	n/a	n/a	0	0	0
3870.508	n/a	WORD	1935254	wordpools/wasnorm_wordpool_576.txt	LTP317	ltpFR2	12	18	FOX	598	n/a	n/a	0	0	0
3873.308	n/a	WORD	1936654	wordpools/wasnorm_wordpool_576.txt	LTP317	ltpFR2	12	18	EXPERT	543	n/a	n/a	0	0	0
3875.862	n/a	WORD	1937931	wordpools/wasnorm_wordpool_576.txt	LTP317	ltpFR2	12	18	ZIPPER	1636	n/a	n/a	0	0	0
3877.466	n/a	START	1938733	n/a	LTP317	ltpFR2	12	n/a	n/a	n/a	26	n/a	n/a	n/a	n/a
3878.316	n/a	DISTRACTOR	1939158	n/a	LTP317	ltpFR2	12	18	n/a	n/a	n/a	n/a	0	0	0
3878.33	n/a	PROB	1939165	n/a	LTP317	ltpFR2	12	n/a	n/a	n/a	26	10	4	2	4
3881.048	n/a	PROB	1940524	n/a	LTP317	ltpFR2	12	n/a	n/a	n/a	26	15	5	3	7
3882.3	n/a	PROB	1941150	n/a	LTP317	ltpFR2	12	n/a	n/a	n/a	26	17	8	4	5
3884.168	n/a	PROB	1942084	n/a	LTP317	ltpFR2	12	n/a	n/a	n/a	26	18	2	8	8
3885.988	n/a	PROB	1942994	n/a	LTP317	ltpFR2	12	n/a	n/a	n/a	26	23	7	7	9
3888.672	n/a	PROB	1944336	n/a	LTP317	ltpFR2	12	n/a	n/a	n/a	26	19	7	7	5
3890.706	n/a	PROB	1945353	n/a	LTP317	ltpFR2	12	n/a	n/a	n/a	26	10	3	3	4
3892.924	n/a	PROB	1946462	n/a	LTP317	ltpFR2	12	n/a	n/a	n/a	26	18	5	4	9
3894.36	n/a	PROB	1947180	n/a	LTP317	ltpFR2	12	n/a	n/a	n/a	26	17	7	5	5
3896.226	n/a	PROB	1948113	n/a	LTP317	ltpFR2	12	n/a	n/a	n/a	26	19	8	6	5
3898.33	n/a	PROB	1949165	n/a	LTP317	ltpFR2	12	n/a	n/a	n/a	26	16	5	4	7
3901.464	n/a	STOP	1950732	n/a	LTP317	ltpFR2	12	n/a	n/a	n/a	26	n/a	n/a	n/a	n/a
3903.4	n/a	REC_START	1951700	n/a	LTP317	ltpFR2	12	18	n/a	n/a	n/a	n/a	0	0	0
3906.006	n/a	REC_WORD	1953003	wordpools/wasnorm_wordpool_576.txt	LTP317	ltpFR2	12	18	DINER	467	n/a	n/a	0	0	0
3906.98	n/a	REC_WORD	1953490	wordpools/wasnorm_wordpool_576.txt	LTP317	ltpFR2	12	18	WAITER	1580	n/a	n/a	0	0	0
3907.982	n/a	REC_WORD	1953991	wordpools/wasnorm_wordpool_576.txt	LTP317	ltpFR2	12	18	OYSTER	995	n/a	n/a	0	0	0
3908.58	n/a	REC_WORD	1954290	wordpools/wasnorm_wordpool_576.txt	LTP317	ltpFR2	12	18	SCALLOP	1242	n/a	n/a	0	0	0
3909.232	n/a	REC_WORD	1954616	wordpools/wasnorm_wordpool_576.txt	LTP317	ltpFR2	12	18	SODA	1341	n/a	n/a	0	0	0
3924.426	n/a	REC_WORD	1962213	wordpools/wasnorm_wordpool_576.txt	LTP317	ltpFR2	12	18	TUTU	1524	n/a	n/a	0	0	0
3993.836	n/a	WORD	1996918	wordpools/wasnorm_wordpool_576.txt	LTP317	ltpFR2	12	19	TROMBONE	1508	n/a	n/a	0	0	0
3996.522	n/a	WORD	1998261	wordpools/wasnorm_wordpool_576.txt	LTP317	ltpFR2	12	19	BRACES	164	n/a	n/a	0	0	0
3999.324	n/a	WORD	1999662	wordpools/wasnorm_wordpool_576.txt	LTP317	ltpFR2	12	19	BUCKET	184	n/a	n/a	0	0	0
4002.144	n/a	WORD	2001072	wordpools/wasnorm_wordpool_576.txt	LTP317	ltpFR2	12	19	LAGOON	795	n/a	n/a	0	0	0
4004.578	n/a	WORD	2002289	wordpools/wasnorm_wordpool_576.txt	LTP317	ltpFR2	12	19	GROUND	666	n/a	n/a	0	0	0
4007.008	n/a	WORD	2003504	wordpools/wasnorm_wordpool_576.txt	LTP317	ltpFR2	12	19	COSTUME	383	n/a	n/a	0	0	0
4009.796	n/a	WORD	2004898	wordpools/wasnorm_wordpool_576.txt	LTP317	ltpFR2	12	19	OUTDOORS	987	n/a	n/a	0	0	0
4012.598	n/a	WORD	2006299	wordpools/wasnorm_wordpool_576.txt	LTP317	ltpFR2	12	19	AIRPLANE	12	n/a	n/a	0	0	0
4015.1	n/a	WORD	2007550	wordpools/wasnorm_wordpool_576.txt	LTP317	ltpFR2	12	19	CIGAR	308	n/a	n/a	0	0	0
4017.868	n/a	WORD	2008934	wordpools/wasnorm_wordpool_576.txt	LTP317	ltpFR2	12	19	TORTOISE	1486	n/a	n/a	0	0	0
4020.622	n/a	WORD	2010311	wordpools/wasnorm_wordpool_576.txt	LTP317	ltpFR2	12	19	ASIA	46	n/a	n/a	0	0	0
4023.042	n/a	WORD	2011521	wordpools/wasnorm_wordpool_576.txt	LTP317	ltpFR2	12	19	HIGHWAY	707	n/a	n/a	0	0	0
4025.51	n/a	WORD	2012755	wordpools/wasnorm_wordpool_576.txt	LTP317	ltpFR2	12	19	STONE	1385	n/a	n/a	0	0	0
4028.194	n/a	WORD	2014097	wordpools/wasnorm_wordpool_576.txt	LTP317	ltpFR2	12	19	FLAG	573	n/a	n/a	0	0	0
4030.816	n/a	WORD	2015408	wordpools/wasnorm_wordpool_576.txt	LTP317	ltpFR2	12	19	EMPIRE	530	n/a	n/a	0	0	0
4033.248	n/a	WORD	2016624	wordpools/wasnorm_wordpool_576.txt	LTP317	ltpFR2	12	19	FUNGUS	614	n/a	n/a	0	0	0
4035.8	n/a	WORD	2017900	wordpools/wasnorm_wordpool_576.txt	LTP317	ltpFR2	12	19	TURNIP	1521	n/a	n/a	0	0	0
4038.586	n/a	WORD	2019293	wordpools/wasnorm_wordpool_576.txt	LTP317	ltpFR2	12	19	FOOT	590	n/a	n/a	0	0	0
4041.072	n/a	WORD	2020536	wordpools/wasnorm_wordpool_576.txt	LTP317	ltpFR2	12	19	MEDAL	885	n/a	n/a	0	0	0
4043.758	n/a	WORD	2021879	wordpools/wasnorm_wordpool_576.txt	LTP317	ltpFR2	12	19	RUG	1215	n/a	n/a	0	0	0
4046.558	n/a	WORD	2023279	wordpools/wasnorm_wordpool_576.txt	LTP317	ltpFR2	12	19	SIDEWALK	1303	n/a	n/a	0	0	0
4049.014	n/a	WORD	2024507	wordpools/wasnorm_wordpool_576.txt	LTP317	ltpFR2	12	19	DRILL	497	n/a	n/a	0	0	0
4051.6	n/a	WORD	2025800	wordpools/wasnorm_wordpool_576.txt	LTP317	ltpFR2	12	19	SCISSORS	1250	n/a	n/a	0	0	0
4054.382	n/a	WORD	2027191	wordpools/wasnorm_wordpool_576.txt	LTP317	ltpFR2	12	19	HEADBAND	696	n/a	n/a	0	0	0
4056.002	n/a	START	2028001	n/a	LTP317	ltpFR2	12	n/a	n/a	n/a	27	n/a	n/a	n/a	n/a
4057.102	n/a	DISTRACTOR	2028551	n/a	LTP317	ltpFR2	12	19	n/a	n/a	n/a	n/a	0	0	0
4057.118	n/a	PROB	2028559	n/a	LTP317	ltpFR2	12	n/a	n/a	n/a	27	14	7	4	3
4059.12	n/a	PROB	2029560	n/a	LTP317	ltpFR2	12	n/a	n/a	n/a	27	19	8	8	3
4060.59	n/a	PROB	2030295	n/a	LTP317	ltpFR2	12	n/a	n/a	n/a	27	19	6	7	6
4062.24	n/a	PROB	2031120	n/a	LTP317	ltpFR2	12	n/a	n/a	n/a	27	12	7	2	3
4063.642	n/a	PROB	2031821	n/a	LTP317	ltpFR2	12	n/a	n/a	n/a	27	15	1	8	6
4065.274	n/a	PROB	2032637	n/a	LTP317	ltpFR2	12	n/a	n/a	n/a	27	8	1	3	4
4066.958	n/a	PROB	2033479	n/a	LTP317	ltpFR2	12	n/a	n/a	n/a	27	9	1	6	2
4068.478	n/a	PROB	2034239	n/a	LTP317	ltpFR2	12	n/a	n/a	n/a	27	16	5	7	4
4070.114	n/a	PROB	2035057	n/a	LTP317	ltpFR2	12	n/a	n/a	n/a	27	15	6	8	1
4071.948	n/a	PROB	2035974	n/a	LTP317	ltpFR2	12	n/a	n/a	n/a	27	17	6	6	5
4074.716	n/a	PROB	2037358	n/a	LTP317	ltpFR2	12	n/a	n/a	n/a	27	15	9	2	4
4075.932	n/a	PROB	2037966	n/a	LTP317	ltpFR2	12	n/a	n/a	n/a	27	10	5	1	4
4077.484	n/a	PROB	2038742	n/a	LTP317	ltpFR2	12	n/a	n/a	n/a	27	12	1	2	9
4079.054	n/a	STOP	2039527	n/a	LTP317	ltpFR2	12	n/a	n/a	n/a	27	n/a	n/a	n/a	n/a
4081.774	n/a	REC_START	2040887	n/a	LTP317	ltpFR2	12	19	n/a	n/a	n/a	n/a	0	0	0
4083.74	n/a	REC_WORD	2041870	wordpools/wasnorm_wordpool_576.txt	LTP317	ltpFR2	12	19	TROMBONE	1508	n/a	n/a	0	0	0
4084.792	n/a	REC_WORD	2042396	wordpools/wasnorm_wordpool_576.txt	LTP317	ltpFR2	12	19	BRACES	164	n/a	n/a	0	0	0
4085.596	n/a	REC_WORD	2042798	wordpools/wasnorm_wordpool_576.txt	LTP317	ltpFR2	12	19	BUCKET	184	n/a	n/a	0	0	0
4086.154	n/a	REC_WORD	2043077	wordpools/wasnorm_wordpool_576.txt	LTP317	ltpFR2	12	19	LAGOON	795	n/a	n/a	0	0	0
4094.128	n/a	REC_WORD	2047064	wordpools/wasnorm_wordpool_576.txt	LTP317	ltpFR2	12	19	ASIA	46	n/a	n/a	0	0	0
4094.862	n/a	REC_WORD	2047431	wordpools/wasnorm_wordpool_576.txt	LTP317	ltpFR2	12	19	HIGHWAY	707	n/a	n/a	0	0	0
4095.456	n/a	REC_WORD	2047728	wordpools/wasnorm_wordpool_576.txt	LTP317	ltpFR2	12	19	STONE	1385	n/a	n/a	0	0	0
4096.136	n/a	REC_WORD	2048068	wordpools/wasnorm_wordpool_576.txt	LTP317	ltpFR2	12	19	FLAG	573	n/a	n/a	0	0	0
4096.794	n/a	REC_WORD	2048397	wordpools/wasnorm_wordpool_576.txt	LTP317	ltpFR2	12	19	EMPIRE	530	n/a	n/a	0	0	0
4172.208	n/a	WORD	2086104	wordpools/wasnorm_wordpool_576.txt	LTP317	ltpFR2	12	20	GOBLIN	645	n/a	n/a	0	0	0
4174.652	n/a	WORD	2087326	wordpools/wasnorm_wordpool_576.txt	LTP317	ltpFR2	12	20	MAPLE	866	n/a	n/a	0	0	0
4177.246	n/a	WORD	2088623	wordpools/wasnorm_wordpool_576.txt	LTP317	ltpFR2	12	20	SILK	1307	n/a	n/a	0	0	0
4179.882	n/a	WORD	2089941	wordpools/wasnorm_wordpool_576.txt	LTP317	ltpFR2	12	20	PROTON	1132	n/a	n/a	0	0	0
4182.49	n/a	WORD	2091245	wordpools/wasnorm_wordpool_576.txt	LTP317	ltpFR2	12	20	HUMAN	726	n/a	n/a	0	0	0
4185.11	n/a	WORD	2092555	wordpools/wasnorm_wordpool_576.txt	LTP317	ltpFR2	12	20	NAPKIN	937	n/a	n/a	0	0	0
4187.612	n/a	WORD	2093806	wordpools/wasnorm_wordpool_576.txt	LTP317	ltpFR2	12	20	CRITIC	410	n/a	n/a	0	0	0
4190.34	n/a	WORD	2095170	wordpools/wasnorm_wordpool_576.txt	LTP317	ltpFR2	12	20	FRUIT	610	n/a	n/a	0	0	0
4193.0	n/a	WORD	2096500	wordpools/wasnorm_wordpool_576.txt	LTP317	ltpFR2	12	20	GREASE	660	n/a	n/a	0	0	0
4195.586	n/a	WORD	2097793	wordpools/wasnorm_wordpool_576.txt	LTP317	ltpFR2	12	20	BUGGY	188	n/a	n/a	0	0	0
