onset	duration	trial_type	sample	stim_file	subject	experiment	session	trial	task	item_name	item_num	recog_conf	resp	color_b	color_g	color_r	case	font
238.216	n/a	SESS_START	119108	n/a	LTP119	ltpFR	6	n/a	n/a	n/a	n/a	5	n/a	n/a	n/a	n/a	n/a	n/a
275.588	n/a	WORD	137794	wordpools/wasnorm_wordpool.txt	LTP119	ltpFR	6	1	0	HUMAN	726	n/a	1	1	0.412841796875	0.57763671875	lower	../fonts/amplitud.ttf
279.408	n/a	WORD	139704	wordpools/wasnorm_wordpool.txt	LTP119	ltpFR	6	1	0	PERFUME	1049	n/a	0	1	0.412841796875	0.57763671875	lower	../fonts/amplitud.ttf
283.47	n/a	WORD	141735	wordpools/wasnorm_wordpool.txt	LTP119	ltpFR	6	1	1	SALMON	1227	n/a	1	0	0.5869140625	0.422607421875	upper	../fonts/zerothre.ttf
287.35	n/a	WORD	143675	wordpools/wasnorm_wordpool.txt	LTP119	ltpFR	6	1	1	INN	739	n/a	0	0	0.5869140625	0.422607421875	upper	../fonts/zerothre.ttf
291.428	n/a	WORD	145714	wordpools/wasnorm_wordpool.txt	LTP119	ltpFR	6	1	1	CHECKERS	285	n/a	0	0	0.5869140625	0.422607421875	upper	../fonts/zerothre.ttf
295.298	n/a	WORD	147649	wordpools/wasnorm_wordpool.txt	LTP119	ltpFR	6	1	1	CHAMPAGNE	278	n/a	0	0	0.5869140625	0.422607421875	upper	../fonts/zerothre.ttf
299.476	n/a	WORD	149738	wordpools/wasnorm_wordpool.txt	LTP119	ltpFR	6	1	1	ANT	25	n/a	1	0	0.5869140625	0.422607421875	upper	../fonts/zerothre.ttf
303.514	n/a	WORD	151757	wordpools/wasnorm_wordpool.txt	LTP119	ltpFR	6	1	0	CLIMBER	323	n/a	1	1	0.412841796875	0.57763671875	lower	../fonts/amplitud.ttf
307.402	n/a	WORD	153701	wordpools/wasnorm_wordpool.txt	LTP119	ltpFR	6	1	0	LODGE	839	n/a	1	1	0.412841796875	0.57763671875	lower	../fonts/amplitud.ttf
311.33	n/a	WORD	155665	wordpools/wasnorm_wordpool.txt	LTP119	ltpFR	6	1	0	CITIZEN	312	n/a	1	1	0.412841796875	0.57763671875	lower	../fonts/amplitud.ttf
315.484	n/a	WORD	157742	wordpools/wasnorm_wordpool.txt	LTP119	ltpFR	6	1	0	TAG	1429	n/a	0	1	0.412841796875	0.57763671875	lower	../fonts/amplitud.ttf
319.47	n/a	WORD	159735	wordpools/wasnorm_wordpool.txt	LTP119	ltpFR	6	1	1	PASTRY	1022	n/a	0	0	0.5869140625	0.422607421875	upper	../fonts/zerothre.ttf
323.624	n/a	WORD	161812	wordpools/wasnorm_wordpool.txt	LTP119	ltpFR	6	1	1	SKUNK	1321	n/a	1	0	0.5869140625	0.422607421875	upper	../fonts/zerothre.ttf
327.736	n/a	WORD	163868	wordpools/wasnorm_wordpool.txt	LTP119	ltpFR	6	1	1	INCENSE	735	n/a	0	0	0.5869140625	0.422607421875	upper	../fonts/zerothre.ttf
331.914	n/a	WORD	165957	wordpools/wasnorm_wordpool.txt	LTP119	ltpFR	6	1	0	HANDKERCHIEF	686	n/a	0	1	0.412841796875	0.57763671875	lower	../fonts/amplitud.ttf
335.876	n/a	WORD	167938	wordpools/wasnorm_wordpool.txt	LTP119	ltpFR	6	1	0	NAPKIN	937	n/a	0	1	0.412841796875	0.57763671875	lower	../fonts/amplitud.ttf
341.77	n/a	REC_START	170885	n/a	LTP119	ltpFR	6	1	n/a	n/a	n/a	n/a	n/a	n/a	n/a	n/a	n/a	n/a
342.384	n/a	REC_WORD	171192	wordpools/wasnorm_wordpool.txt	LTP119	ltpFR	6	1	0	NAPKIN	937	n/a	0	n/a	n/a	n/a	n/a	n/a
343.158	n/a	REC_WORD	171579	wordpools/wasnorm_wordpool.txt	LTP119	ltpFR	6	1	0	HANDKERCHIEF	686	n/a	0	n/a	n/a	n/a	n/a	n/a
344.066	n/a	REC_WORD	172033	wordpools/wasnorm_wordpool.txt	LTP119	ltpFR	6	1	1	ANT	25	n/a	1	n/a	n/a	n/a	n/a	n/a
344.758	n/a	REC_WORD	172379	wordpools/wasnorm_wordpool.txt	LTP119	ltpFR	6	1	1	SALMON	1227	n/a	1	n/a	n/a	n/a	n/a	n/a
345.746	n/a	REC_WORD	172873	wordpools/wasnorm_wordpool.txt	LTP119	ltpFR	6	1	1	INN	739	n/a	0	n/a	n/a	n/a	n/a	n/a
346.554	n/a	REC_WORD	173277	wordpools/wasnorm_wordpool.txt	LTP119	ltpFR	6	1	1	CHECKERS	285	n/a	0	n/a	n/a	n/a	n/a	n/a
347.402	n/a	REC_WORD	173701	wordpools/wasnorm_wordpool.txt	LTP119	ltpFR	6	1	0	CLIMBER	323	n/a	1	n/a	n/a	n/a	n/a	n/a
348.39	n/a	REC_WORD	174195	wordpools/wasnorm_wordpool.txt	LTP119	ltpFR	6	1	0	LODGE	839	n/a	1	n/a	n/a	n/a	n/a	n/a
349.688	n/a	REC_WORD	174844	wordpools/wasnorm_wordpool.txt	LTP119	ltpFR	6	1	0	HUMAN	726	n/a	1	n/a	n/a	n/a	n/a	n/a
350.536	n/a	REC_WORD	175268	wordpools/wasnorm_wordpool.txt	LTP119	ltpFR	6	1	0	CITIZEN	312	n/a	1	n/a	n/a	n/a	n/a	n/a
353.1	n/a	REC_WORD	176550	wordpools/wasnorm_wordpool.txt	LTP119	ltpFR	6	1	1	PASTRY	1022	n/a	0	n/a	n/a	n/a	n/a	n/a
355.668	n/a	REC_WORD	177834	wordpools/wasnorm_wordpool.txt	LTP119	ltpFR	6	1	0	PERFUME	1049	n/a	0	n/a	n/a	n/a	n/a	n/a
358.008	n/a	REC_WORD	179004	wordpools/wasnorm_wordpool.txt	LTP119	ltpFR	6	1	0	TAG	1429	n/a	0	n/a	n/a	n/a	n/a	n/a
441.03	n/a	WORD	220515	wordpools/wasnorm_wordpool.txt	LTP119	ltpFR	6	2	1	EMERALD	528	n/a	0	0	0.5869140625	0.422607421875	upper	../fonts/zerothre.ttf
445.16	n/a	WORD	222580	wordpools/wasnorm_wordpool.txt	LTP119	ltpFR	6	2	1	SPINACH	1352	n/a	0	0	0.5869140625	0.422607421875	upper	../fonts/zerothre.ttf
449.306	n/a	WORD	224653	wordpools/wasnorm_wordpool.txt	LTP119	ltpFR	6	2	1	BOWL	158	n/a	0	0	0.5869140625	0.422607421875	upper	../fonts/zerothre.ttf
453.134	n/a	WORD	226567	wordpools/wasnorm_wordpool.txt	LTP119	ltpFR	6	2	0	CHAIRPERSON	275	n/a	1	1	0.412841796875	0.57763671875	lower	../fonts/amplitud.ttf
457.196	n/a	WORD	228598	wordpools/wasnorm_wordpool.txt	LTP119	ltpFR	6	2	0	CHAMPION	279	n/a	1	1	0.412841796875	0.57763671875	lower	../fonts/amplitud.ttf
461.166	n/a	WORD	230583	wordpools/wasnorm_wordpool.txt	LTP119	ltpFR	6	2	0	ROOT	1210	n/a	0	1	0.412841796875	0.57763671875	lower	../fonts/amplitud.ttf
465.354	n/a	WORD	232677	wordpools/wasnorm_wordpool.txt	LTP119	ltpFR	6	2	0	WORKER	1621	n/a	1	1	0.412841796875	0.57763671875	lower	../fonts/amplitud.ttf
469.274	n/a	WORD	234637	wordpools/wasnorm_wordpool.txt	LTP119	ltpFR	6	2	1	WRITER	1627	n/a	0	0	0.5869140625	0.422607421875	upper	../fonts/zerothre.ttf
473.128	n/a	WORD	236564	wordpools/wasnorm_wordpool.txt	LTP119	ltpFR	6	2	1	LABYRINTH	791	n/a	0	0	0.5869140625	0.422607421875	upper	../fonts/zerothre.ttf
477.156	n/a	WORD	238578	wordpools/wasnorm_wordpool.txt	LTP119	ltpFR	6	2	1	COUNTRY	388	n/a	0	0	0.5869140625	0.422607421875	upper	../fonts/zerothre.ttf
481.094	n/a	WORD	240547	wordpools/wasnorm_wordpool.txt	LTP119	ltpFR	6	2	0	FAUCET	555	n/a	0	1	0.412841796875	0.57763671875	lower	../fonts/amplitud.ttf
485.196	n/a	WORD	242598	wordpools/wasnorm_wordpool.txt	LTP119	ltpFR	6	2	0	DAM	436	n/a	1	1	0.412841796875	0.57763671875	lower	../fonts/amplitud.ttf
489.158	n/a	WORD	244579	wordpools/wasnorm_wordpool.txt	LTP119	ltpFR	6	2	0	LEAF	808	n/a	0	1	0.412841796875	0.57763671875	lower	../fonts/amplitud.ttf
493.346	n/a	WORD	246673	wordpools/wasnorm_wordpool.txt	LTP119	ltpFR	6	2	0	TEAPOT	1442	n/a	0	1	0.412841796875	0.57763671875	lower	../fonts/amplitud.ttf
497.316	n/a	WORD	248658	wordpools/wasnorm_wordpool.txt	LTP119	ltpFR	6	2	1	CARTON	251	n/a	0	0	0.5869140625	0.422607421875	upper	../fonts/zerothre.ttf
501.27	n/a	WORD	250635	wordpools/wasnorm_wordpool.txt	LTP119	ltpFR	6	2	1	BREAST	171	n/a	0	0	0.5869140625	0.422607421875	upper	../fonts/zerothre.ttf
506.83	n/a	REC_START	253415	n/a	LTP119	ltpFR	6	2	n/a	n/a	n/a	n/a	n/a	n/a	n/a	n/a	n/a	n/a
507.918	n/a	REC_WORD	253959	wordpools/wasnorm_wordpool.txt	LTP119	ltpFR	6	2	0	CHAIRPERSON	275	n/a	1	n/a	n/a	n/a	n/a	n/a
508.97	n/a	REC_WORD	254485	wordpools/wasnorm_wordpool.txt	LTP119	ltpFR	6	2	1	CARTON	251	n/a	0	n/a	n/a	n/a	n/a	n/a
510.712	n/a	REC_WORD	255356	wordpools/wasnorm_wordpool.txt	LTP119	ltpFR	6	2	1	BREAST	171	n/a	0	n/a	n/a	n/a	n/a	n/a
511.58	n/a	REC_WORD	255790	wordpools/wasnorm_wordpool.txt	LTP119	ltpFR	6	2	0	TEAPOT	1442	n/a	0	n/a	n/a	n/a	n/a	n/a
513.17	n/a	REC_WORD	256585	wordpools/wasnorm_wordpool.txt	LTP119	ltpFR	6	2	1	BOWL	158	n/a	0	n/a	n/a	n/a	n/a	n/a
515.82	n/a	REC_WORD	257910	wordpools/wasnorm_wordpool.txt	LTP119	ltpFR	6	2	0	LEAF	808	n/a	0	n/a	n/a	n/a	n/a	n/a
532.138	n/a	REC_WORD	266069	wordpools/wasnorm_wordpool.txt	LTP119	ltpFR	6	2	1	COUNTRY	388	n/a	0	n/a	n/a	n/a	n/a	n/a
535.476	n/a	REC_WORD	267738	wordpools/wasnorm_wordpool.txt	LTP119	ltpFR	6	2	1	SPINACH	1352	n/a	0	n/a	n/a	n/a	n/a	n/a
547.768	n/a	REC_WORD	273884	wordpools/wasnorm_wordpool.txt	LTP119	ltpFR	6	2	0	ROOT	1210	n/a	0	n/a	n/a	n/a	n/a	n/a
555.686	n/a	REC_WORD	277843	wordpools/wasnorm_wordpool.txt	LTP119	ltpFR	6	2	0	FAUCET	555	n/a	0	n/a	n/a	n/a	n/a	n/a
603.886	n/a	WORD	301943	wordpools/wasnorm_wordpool.txt	LTP119	ltpFR	6	3	0	FRAGRANCE	599	n/a	0	1	0.412841796875	0.57763671875	lower	../fonts/amplitud.ttf
608.064	n/a	WORD	304032	wordpools/wasnorm_wordpool.txt	LTP119	ltpFR	6	3	0	ONION	977	n/a	0	1	0.412841796875	0.57763671875	lower	../fonts/amplitud.ttf
611.986	n/a	WORD	305993	wordpools/wasnorm_wordpool.txt	LTP119	ltpFR	6	3	0	NIECE	952	n/a	1	1	0.412841796875	0.57763671875	lower	../fonts/amplitud.ttf
616.006	n/a	WORD	308003	wordpools/wasnorm_wordpool.txt	LTP119	ltpFR	6	3	0	SPHINX	1349	n/a	1	1	0.412841796875	0.57763671875	lower	../fonts/amplitud.ttf
619.868	n/a	WORD	309934	wordpools/wasnorm_wordpool.txt	LTP119	ltpFR	6	3	0	QUAIL	1147	n/a	0	1	0.412841796875	0.57763671875	lower	../fonts/amplitud.ttf
623.946	n/a	WORD	311973	wordpools/wasnorm_wordpool.txt	LTP119	ltpFR	6	3	0	VACUUM	1543	n/a	1	1	0.412841796875	0.57763671875	lower	../fonts/amplitud.ttf
627.808	n/a	WORD	313904	wordpools/wasnorm_wordpool.txt	LTP119	ltpFR	6	3	0	LIPSTICK	829	n/a	0	1	0.412841796875	0.57763671875	lower	../fonts/amplitud.ttf
631.67	n/a	WORD	315835	wordpools/wasnorm_wordpool.txt	LTP119	ltpFR	6	3	0	CHIEF	298	n/a	1	1	0.412841796875	0.57763671875	lower	../fonts/amplitud.ttf
635.6	n/a	WORD	317800	wordpools/wasnorm_wordpool.txt	LTP119	ltpFR	6	3	0	BAG	69	n/a	0	1	0.412841796875	0.57763671875	lower	../fonts/amplitud.ttf
639.596	n/a	WORD	319798	wordpools/wasnorm_wordpool.txt	LTP119	ltpFR	6	3	0	SACK	1220	n/a	0	1	0.412841796875	0.57763671875	lower	../fonts/amplitud.ttf
643.74	n/a	WORD	321870	wordpools/wasnorm_wordpool.txt	LTP119	ltpFR	6	3	0	GLOBE	641	n/a	1	1	0.412841796875	0.57763671875	lower	../fonts/amplitud.ttf
647.876	n/a	WORD	323938	wordpools/wasnorm_wordpool.txt	LTP119	ltpFR	6	3	0	JUPITER	765	n/a	1	1	0.412841796875	0.57763671875	lower	../fonts/amplitud.ttf
651.69	n/a	WORD	325845	wordpools/wasnorm_wordpool.txt	LTP119	ltpFR	6	3	0	ROUGE	1213	n/a	1	1	0.412841796875	0.57763671875	lower	../fonts/amplitud.ttf
655.536	n/a	WORD	327768	wordpools/wasnorm_wordpool.txt	LTP119	ltpFR	6	3	0	MOSS	918	n/a	0	1	0.412841796875	0.57763671875	lower	../fonts/amplitud.ttf
659.73	n/a	WORD	329865	wordpools/wasnorm_wordpool.txt	LTP119	ltpFR	6	3	0	BUBBLE	183	n/a	0	1	0.412841796875	0.57763671875	lower	../fonts/amplitud.ttf
663.552	n/a	WORD	331776	wordpools/wasnorm_wordpool.txt	LTP119	ltpFR	6	3	0	COMMANDER	354	n/a	1	1	0.412841796875	0.57763671875	lower	../fonts/amplitud.ttf
669.518	n/a	REC_START	334759	n/a	LTP119	ltpFR	6	3	n/a	n/a	n/a	n/a	n/a	n/a	n/a	n/a	n/a	n/a
670.086	n/a	REC_WORD	335043	wordpools/wasnorm_wordpool.txt	LTP119	ltpFR	6	3	0	COMMANDER	354	n/a	1	n/a	n/a	n/a	n/a	n/a
670.9	n/a	REC_WORD	335450	wordpools/wasnorm_wordpool.txt	LTP119	ltpFR	6	3	0	MOSS	918	n/a	0	n/a	n/a	n/a	n/a	n/a
671.698	n/a	REC_WORD	335849	wordpools/wasnorm_wordpool.txt	LTP119	ltpFR	6	3	0	BUBBLE	183	n/a	0	n/a	n/a	n/a	n/a	n/a
672.592	n/a	REC_WORD	336296	wordpools/wasnorm_wordpool.txt	LTP119	ltpFR	6	3	0	ROUGE	1213	n/a	1	n/a	n/a	n/a	n/a	n/a
673.524	n/a	REC_WORD	336762	wordpools/wasnorm_wordpool.txt	LTP119	ltpFR	6	3	0	LIPSTICK	829	n/a	0	n/a	n/a	n/a	n/a	n/a
675.564	n/a	REC_WORD	337782	wordpools/wasnorm_wordpool.txt	LTP119	ltpFR	6	3	0	GLOBE	641	n/a	1	n/a	n/a	n/a	n/a	n/a
676.398	n/a	REC_WORD	338199	wordpools/wasnorm_wordpool.txt	LTP119	ltpFR	6	3	0	JUPITER	765	n/a	1	n/a	n/a	n/a	n/a	n/a
678.038	n/a	REC_WORD	339019	wordpools/wasnorm_wordpool.txt	LTP119	ltpFR	6	3	0	NIECE	952	n/a	1	n/a	n/a	n/a	n/a	n/a
678.906	n/a	REC_WORD_VV	339453	wordpools/wasnorm_wordpool.txt	LTP119	ltpFR	6	3	n/a	<>	-1	n/a	n/a	n/a	n/a	n/a	n/a	n/a
694.87	n/a	REC_WORD	347435	wordpools/wasnorm_wordpool.txt	LTP119	ltpFR	6	3	0	FRAGRANCE	599	n/a	0	n/a	n/a	n/a	n/a	n/a
708.53	n/a	REC_WORD	354265	wordpools/wasnorm_wordpool.txt	LTP119	ltpFR	6	3	0	SPHINX	1349	n/a	1	n/a	n/a	n/a	n/a	n/a
711.474	n/a	REC_WORD	355737	wordpools/wasnorm_wordpool.txt	LTP119	ltpFR	6	3	1	SKUNK	1321	n/a	1	n/a	n/a	n/a	n/a	n/a
765.766	n/a	WORD	382883	wordpools/wasnorm_wordpool.txt	LTP119	ltpFR	6	4	0	RUST	1219	n/a	0	1	0.412841796875	0.57763671875	lower	../fonts/amplitud.ttf
769.97	n/a	WORD	384985	wordpools/wasnorm_wordpool.txt	LTP119	ltpFR	6	4	0	NICKEL	950	n/a	0	1	0.412841796875	0.57763671875	lower	../fonts/amplitud.ttf
773.956	n/a	WORD	386978	wordpools/wasnorm_wordpool.txt	LTP119	ltpFR	6	4	0	DOLLAR	482	n/a	0	1	0.412841796875	0.57763671875	lower	../fonts/amplitud.ttf
778.044	n/a	WORD	389022	wordpools/wasnorm_wordpool.txt	LTP119	ltpFR	6	4	0	KNIFE	785	n/a	0	1	0.412841796875	0.57763671875	lower	../fonts/amplitud.ttf
782.056	n/a	WORD	391028	wordpools/wasnorm_wordpool.txt	LTP119	ltpFR	6	4	0	PAINTING	1005	n/a	1	1	0.412841796875	0.57763671875	lower	../fonts/amplitud.ttf
786.252	n/a	WORD	393126	wordpools/wasnorm_wordpool.txt	LTP119	ltpFR	6	4	0	JEEP	753	n/a	1	1	0.412841796875	0.57763671875	lower	../fonts/amplitud.ttf
790.346	n/a	WORD	395173	wordpools/wasnorm_wordpool.txt	LTP119	ltpFR	6	4	0	VEAL	1551	n/a	1	1	0.412841796875	0.57763671875	lower	../fonts/amplitud.ttf
794.176	n/a	WORD	397088	wordpools/wasnorm_wordpool.txt	LTP119	ltpFR	6	4	0	LAMB	797	n/a	1	1	0.412841796875	0.57763671875	lower	../fonts/amplitud.ttf
798.346	n/a	WORD	399173	wordpools/wasnorm_wordpool.txt	LTP119	ltpFR	6	4	0	COPIER	377	n/a	1	1	0.412841796875	0.57763671875	lower	../fonts/amplitud.ttf
802.308	n/a	WORD	401154	wordpools/wasnorm_wordpool.txt	LTP119	ltpFR	6	4	0	NEWSSTAND	949	n/a	1	1	0.412841796875	0.57763671875	lower	../fonts/amplitud.ttf
806.346	n/a	WORD	403173	wordpools/wasnorm_wordpool.txt	LTP119	ltpFR	6	4	0	HOSPITAL	721	n/a	1	1	0.412841796875	0.57763671875	lower	../fonts/amplitud.ttf
810.324	n/a	WORD	405162	wordpools/wasnorm_wordpool.txt	LTP119	ltpFR	6	4	0	CROSS	413	n/a	0	1	0.412841796875	0.57763671875	lower	../fonts/amplitud.ttf
814.494	n/a	WORD	407247	wordpools/wasnorm_wordpool.txt	LTP119	ltpFR	6	4	0	STATUE	1374	n/a	1	1	0.412841796875	0.57763671875	lower	../fonts/amplitud.ttf
818.606	n/a	WORD	409303	wordpools/wasnorm_wordpool.txt	LTP119	ltpFR	6	4	0	STONE	1385	n/a	1	1	0.412841796875	0.57763671875	lower	../fonts/amplitud.ttf
822.434	n/a	WORD	411217	wordpools/wasnorm_wordpool.txt	LTP119	ltpFR	6	4	0	UNIFORM	1539	n/a	1	1	0.412841796875	0.57763671875	lower	../fonts/amplitud.ttf
826.54	n/a	WORD	413270	wordpools/wasnorm_wordpool.txt	LTP119	ltpFR	6	4	0	POPE	1105	n/a	1	1	0.412841796875	0.57763671875	lower	../fonts/amplitud.ttf
832.274	n/a	REC_START	416137	n/a	LTP119	ltpFR	6	4	n/a	n/a	n/a	n/a	n/a	n/a	n/a	n/a	n/a	n/a
832.986	n/a	REC_WORD	416493	wordpools/wasnorm_wordpool.txt	LTP119	ltpFR	6	4	0	POPE	1105	n/a	1	n/a	n/a	n/a	n/a	n/a
833.5	n/a	REC_WORD	416750	wordpools/wasnorm_wordpool.txt	LTP119	ltpFR	6	4	0	NEWSSTAND	949	n/a	1	n/a	n/a	n/a	n/a	n/a
834.158	n/a	REC_WORD	417079	wordpools/wasnorm_wordpool.txt	LTP119	ltpFR	6	4	0	STATUE	1374	n/a	1	n/a	n/a	n/a	n/a	n/a
835.122	n/a	REC_WORD	417561	wordpools/wasnorm_wordpool.txt	LTP119	ltpFR	6	4	0	CROSS	413	n/a	0	n/a	n/a	n/a	n/a	n/a
837.062	n/a	REC_WORD	418531	wordpools/wasnorm_wordpool.txt	LTP119	ltpFR	6	4	0	STONE	1385	n/a	1	n/a	n/a	n/a	n/a	n/a
839.342	n/a	REC_WORD	419671	wordpools/wasnorm_wordpool.txt	LTP119	ltpFR	6	4	0	JEEP	753	n/a	1	n/a	n/a	n/a	n/a	n/a
845.642	n/a	REC_WORD	422821	wordpools/wasnorm_wordpool.txt	LTP119	ltpFR	6	4	0	DOLLAR	482	n/a	0	n/a	n/a	n/a	n/a	n/a
846.804	n/a	REC_WORD	423402	wordpools/wasnorm_wordpool.txt	LTP119	ltpFR	6	4	0	NICKEL	950	n/a	0	n/a	n/a	n/a	n/a	n/a
848.7	n/a	REC_WORD	424350	wordpools/wasnorm_wordpool.txt	LTP119	ltpFR	6	4	0	RUST	1219	n/a	0	n/a	n/a	n/a	n/a	n/a
860.738	n/a	REC_WORD	430369	wordpools/wasnorm_wordpool.txt	LTP119	ltpFR	6	4	0	COPIER	377	n/a	1	n/a	n/a	n/a	n/a	n/a
866.75	n/a	REC_WORD	433375	wordpools/wasnorm_wordpool.txt	LTP119	ltpFR	6	4	0	UNIFORM	1539	n/a	1	n/a	n/a	n/a	n/a	n/a
925.4	n/a	WORD	462700	wordpools/wasnorm_wordpool.txt	LTP119	ltpFR	6	5	0	HAY	693	n/a	0	1	0.412841796875	0.57763671875	lower	../fonts/amplitud.ttf
929.262	n/a	WORD	464631	wordpools/wasnorm_wordpool.txt	LTP119	ltpFR	6	5	0	STALLION	1369	n/a	1	1	0.412841796875	0.57763671875	lower	../fonts/amplitud.ttf
933.232	n/a	WORD	466616	wordpools/wasnorm_wordpool.txt	LTP119	ltpFR	6	5	1	BALL	73	n/a	0	0	0.5869140625	0.422607421875	upper	../fonts/zerothre.ttf
937.386	n/a	WORD	468693	wordpools/wasnorm_wordpool.txt	LTP119	ltpFR	6	5	1	SNAKE	1333	n/a	0	0	0.5869140625	0.422607421875	upper	../fonts/zerothre.ttf
941.29	n/a	WORD	470645	wordpools/wasnorm_wordpool.txt	LTP119	ltpFR	6	5	1	CHEST	295	n/a	0	0	0.5869140625	0.422607421875	upper	../fonts/zerothre.ttf
945.236	n/a	WORD	472618	wordpools/wasnorm_wordpool.txt	LTP119	ltpFR	6	5	1	ARTICLE	42	n/a	0	0	0.5869140625	0.422607421875	upper	../fonts/zerothre.ttf
949.274	n/a	WORD	474637	wordpools/wasnorm_wordpool.txt	LTP119	ltpFR	6	5	0	BASKET	95	n/a	1	1	0.412841796875	0.57763671875	lower	../fonts/amplitud.ttf
953.394	n/a	WORD	476697	wordpools/wasnorm_wordpool.txt	LTP119	ltpFR	6	5	0	SERPENT	1270	n/a	1	1	0.412841796875	0.57763671875	lower	../fonts/amplitud.ttf
957.298	n/a	WORD	478649	wordpools/wasnorm_wordpool.txt	LTP119	ltpFR	6	5	0	EARTH	515	n/a	1	1	0.412841796875	0.57763671875	lower	../fonts/amplitud.ttf
961.434	n/a	WORD	480717	wordpools/wasnorm_wordpool.txt	LTP119	ltpFR	6	5	0	STAR	1373	n/a	0	1	0.412841796875	0.57763671875	lower	../fonts/amplitud.ttf
965.33	n/a	WORD	482665	wordpools/wasnorm_wordpool.txt	LTP119	ltpFR	6	5	1	ZOO	1637	n/a	1	0	0.5869140625	0.422607421875	upper	../fonts/zerothre.ttf
969.192	n/a	WORD	484596	wordpools/wasnorm_wordpool.txt	LTP119	ltpFR	6	5	1	PARTNER	1017	n/a	0	0	0.5869140625	0.422607421875	upper	../fonts/zerothre.ttf
973.262	n/a	WORD	486631	wordpools/wasnorm_wordpool.txt	LTP119	ltpFR	6	5	1	INFANT	737	n/a	1	0	0.5869140625	0.422607421875	upper	../fonts/zerothre.ttf
977.456	n/a	WORD	488728	wordpools/wasnorm_wordpool.txt	LTP119	ltpFR	6	5	1	CHILD	299	n/a	1	0	0.5869140625	0.422607421875	upper	../fonts/zerothre.ttf
981.594	n/a	WORD	490797	wordpools/wasnorm_wordpool.txt	LTP119	ltpFR	6	5	0	DESK	452	n/a	1	1	0.412841796875	0.57763671875	lower	../fonts/amplitud.ttf
985.706	n/a	WORD	492853	wordpools/wasnorm_wordpool.txt	LTP119	ltpFR	6	5	0	COB	334	n/a	0	1	0.412841796875	0.57763671875	lower	../fonts/amplitud.ttf
991.55	n/a	REC_START	495775	n/a	LTP119	ltpFR	6	5	n/a	n/a	n/a	n/a	n/a	n/a	n/a	n/a	n/a	n/a
992.054	n/a	REC_WORD	496027	wordpools/wasnorm_wordpool.txt	LTP119	ltpFR	6	5	0	COB	334	n/a	0	n/a	n/a	n/a	n/a	n/a
992.852	n/a	REC_WORD	496426	wordpools/wasnorm_wordpool.txt	LTP119	ltpFR	6	5	0	DESK	452	n/a	1	n/a	n/a	n/a	n/a	n/a
993.48	n/a	REC_WORD	496740	wordpools/wasnorm_wordpool.txt	LTP119	ltpFR	6	5	0	STALLION	1369	n/a	1	n/a	n/a	n/a	n/a	n/a
994.608	n/a	REC_WORD	497304	wordpools/wasnorm_wordpool.txt	LTP119	ltpFR	6	5	0	HAY	693	n/a	0	n/a	n/a	n/a	n/a	n/a
997.552	n/a	REC_WORD	498776	wordpools/wasnorm_wordpool.txt	LTP119	ltpFR	6	5	0	STAR	1373	n/a	0	n/a	n/a	n/a	n/a	n/a
998.754	n/a	REC_WORD	499377	wordpools/wasnorm_wordpool.txt	LTP119	ltpFR	6	5	0	EARTH	515	n/a	1	n/a	n/a	n/a	n/a	n/a
1001.728	n/a	REC_WORD	500864	wordpools/wasnorm_wordpool.txt	LTP119	ltpFR	6	5	1	ARTICLE	42	n/a	0	n/a	n/a	n/a	n/a	n/a
1003.648	n/a	REC_WORD	501824	wordpools/wasnorm_wordpool.txt	LTP119	ltpFR	6	5	1	BALL	73	n/a	0	n/a	n/a	n/a	n/a	n/a
1008.378	n/a	REC_WORD	504189	wordpools/wasnorm_wordpool.txt	LTP119	ltpFR	6	5	1	CHILD	299	n/a	1	n/a	n/a	n/a	n/a	n/a
1009.384	n/a	REC_WORD	504692	wordpools/wasnorm_wordpool.txt	LTP119	ltpFR	6	5	1	INFANT	737	n/a	1	n/a	n/a	n/a	n/a	n/a
1010.408	n/a	REC_WORD	505204	wordpools/wasnorm_wordpool.txt	LTP119	ltpFR	6	5	1	PARTNER	1017	n/a	0	n/a	n/a	n/a	n/a	n/a
1019.018	n/a	REC_WORD	509509	wordpools/wasnorm_wordpool.txt	LTP119	ltpFR	6	5	1	CHEST	295	n/a	0	n/a	n/a	n/a	n/a	n/a
1035.652	n/a	REC_WORD	517826	wordpools/wasnorm_wordpool.txt	LTP119	ltpFR	6	5	0	SERPENT	1270	n/a	1	n/a	n/a	n/a	n/a	n/a
1052.768	n/a	REC_WORD	526384	wordpools/wasnorm_wordpool.txt	LTP119	ltpFR	6	5	0	DESK	452	n/a	1	n/a	n/a	n/a	n/a	n/a
1104.094	n/a	WORD	552047	wordpools/wasnorm_wordpool.txt	LTP119	ltpFR	6	6	-1	ZEBRA	1635	n/a	-1	1	1.0	1.0	upper	../fonts/Verdana.ttf
1108.298	n/a	WORD	554149	wordpools/wasnorm_wordpool.txt	LTP119	ltpFR	6	6	-1	BEAST	108	n/a	-1	1	1.0	1.0	upper	../fonts/Verdana.ttf
1112.344	n/a	WORD	556172	wordpools/wasnorm_wordpool.txt	LTP119	ltpFR	6	6	-1	FLANNEL	574	n/a	-1	1	1.0	1.0	upper	../fonts/Verdana.ttf
1116.256	n/a	WORD	558128	wordpools/wasnorm_wordpool.txt	LTP119	ltpFR	6	6	-1	FLOWER	584	n/a	-1	1	1.0	1.0	upper	../fonts/Verdana.ttf
1120.218	n/a	WORD	560109	wordpools/wasnorm_wordpool.txt	LTP119	ltpFR	6	6	-1	SEA	1259	n/a	-1	1	1.0	1.0	upper	../fonts/Verdana.ttf
1124.396	n/a	WORD	562198	wordpools/wasnorm_wordpool.txt	LTP119	ltpFR	6	6	-1	SHORTCAKE	1292	n/a	-1	1	1.0	1.0	upper	../fonts/Verdana.ttf
1128.284	n/a	WORD	564142	wordpools/wasnorm_wordpool.txt	LTP119	ltpFR	6	6	-1	VEST	1559	n/a	-1	1	1.0	1.0	upper	../fonts/Verdana.ttf
1132.496	n/a	WORD	566248	wordpools/wasnorm_wordpool.txt	LTP119	ltpFR	6	6	-1	TOAST	1471	n/a	-1	1	1.0	1.0	upper	../fonts/Verdana.ttf
1136.458	n/a	WORD	568229	wordpools/wasnorm_wordpool.txt	LTP119	ltpFR	6	6	-1	BISCUIT	130	n/a	-1	1	1.0	1.0	upper	../fonts/Verdana.ttf
1140.52	n/a	WORD	570260	wordpools/wasnorm_wordpool.txt	LTP119	ltpFR	6	6	-1	CAPITAL	238	n/a	-1	1	1.0	1.0	upper	../fonts/Verdana.ttf
1144.398	n/a	WORD	572199	wordpools/wasnorm_wordpool.txt	LTP119	ltpFR	6	6	-1	STAFF	1365	n/a	-1	1	1.0	1.0	upper	../fonts/Verdana.ttf
1148.36	n/a	WORD	574180	wordpools/wasnorm_wordpool.txt	LTP119	ltpFR	6	6	-1	CAULIFLOWER	262	n/a	-1	1	1.0	1.0	upper	../fonts/Verdana.ttf
1152.172	n/a	WORD	576086	wordpools/wasnorm_wordpool.txt	LTP119	ltpFR	6	6	-1	BOOK	149	n/a	-1	1	1.0	1.0	upper	../fonts/Verdana.ttf
1156.002	n/a	WORD	578001	wordpools/wasnorm_wordpool.txt	LTP119	ltpFR	6	6	-1	DIVER	476	n/a	-1	1	1.0	1.0	upper	../fonts/Verdana.ttf
1160.072	n/a	WORD	580036	wordpools/wasnorm_wordpool.txt	LTP119	ltpFR	6	6	-1	POLYESTER	1100	n/a	-1	1	1.0	1.0	upper	../fonts/Verdana.ttf
1164.16	n/a	WORD	582080	wordpools/wasnorm_wordpool.txt	LTP119	ltpFR	6	6	-1	PADDING	999	n/a	-1	1	1.0	1.0	upper	../fonts/Verdana.ttf
1169.862	n/a	REC_START	584931	n/a	LTP119	ltpFR	6	6	n/a	n/a	n/a	n/a	n/a	n/a	n/a	n/a	n/a	n/a
1170.564	n/a	REC_WORD	585282	wordpools/wasnorm_wordpool.txt	LTP119	ltpFR	6	6	-1	PADDING	999	n/a	-1	n/a	n/a	n/a	n/a	n/a
1171.438	n/a	REC_WORD	585719	wordpools/wasnorm_wordpool.txt	LTP119	ltpFR	6	6	-1	POLYESTER	1100	n/a	-1	n/a	n/a	n/a	n/a	n/a
1172.69	n/a	REC_WORD	586345	wordpools/wasnorm_wordpool.txt	LTP119	ltpFR	6	6	-1	FLANNEL	574	n/a	-1	n/a	n/a	n/a	n/a	n/a
1176.028	n/a	REC_WORD	588014	wordpools/wasnorm_wordpool.txt	LTP119	ltpFR	6	6	-1	ZEBRA	1635	n/a	-1	n/a	n/a	n/a	n/a	n/a
1179.24	n/a	REC_WORD	589620	wordpools/wasnorm_wordpool.txt	LTP119	ltpFR	6	6	-1	DIVER	476	n/a	-1	n/a	n/a	n/a	n/a	n/a
1180.996	n/a	REC_WORD	590498	wordpools/wasnorm_wordpool.txt	LTP119	ltpFR	6	6	-1	BOOK	149	n/a	-1	n/a	n/a	n/a	n/a	n/a
1203.406	n/a	REC_WORD	601703	wordpools/wasnorm_wordpool.txt	LTP119	ltpFR	6	6	-1	FLOWER	584	n/a	-1	n/a	n/a	n/a	n/a	n/a
1204.654	n/a	REC_WORD	602327	wordpools/wasnorm_wordpool.txt	LTP119	ltpFR	6	6	-1	CAULIFLOWER	262	n/a	-1	n/a	n/a	n/a	n/a	n/a
1275.948	n/a	WORD	637974	wordpools/wasnorm_wordpool.txt	LTP119	ltpFR	6	7	-1	PIT	1077	n/a	-1	1	1.0	1.0	upper	../fonts/Verdana.ttf
1279.818	n/a	WORD	639909	wordpools/wasnorm_wordpool.txt	LTP119	ltpFR	6	7	-1	HEN	703	n/a	-1	1	1.0	1.0	upper	../fonts/Verdana.ttf
1283.856	n/a	WORD	641928	wordpools/wasnorm_wordpool.txt	LTP119	ltpFR	6	7	-1	DRINK	498	n/a	-1	1	1.0	1.0	upper	../fonts/Verdana.ttf
1288.076	n/a	WORD	644038	wordpools/wasnorm_wordpool.txt	LTP119	ltpFR	6	7	-1	SALOON	1228	n/a	-1	1	1.0	1.0	upper	../fonts/Verdana.ttf
1291.896	n/a	WORD	645948	wordpools/wasnorm_wordpool.txt	LTP119	ltpFR	6	7	-1	WEED	1599	n/a	-1	1	1.0	1.0	upper	../fonts/Verdana.ttf
1295.758	n/a	WORD	647879	wordpools/wasnorm_wordpool.txt	LTP119	ltpFR	6	7	-1	CAPTIVE	240	n/a	-1	1	1.0	1.0	upper	../fonts/Verdana.ttf
1299.786	n/a	WORD	649893	wordpools/wasnorm_wordpool.txt	LTP119	ltpFR	6	7	-1	OZONE	996	n/a	-1	1	1.0	1.0	upper	../fonts/Verdana.ttf
1303.824	n/a	WORD	651912	wordpools/wasnorm_wordpool.txt	LTP119	ltpFR	6	7	-1	SHOWER	1296	n/a	-1	1	1.0	1.0	upper	../fonts/Verdana.ttf
1307.72	n/a	WORD	653860	wordpools/wasnorm_wordpool.txt	LTP119	ltpFR	6	7	-1	DUST	508	n/a	-1	1	1.0	1.0	upper	../fonts/Verdana.ttf
1311.748	n/a	WORD	655874	wordpools/wasnorm_wordpool.txt	LTP119	ltpFR	6	7	-1	CONVICT	371	n/a	-1	1	1.0	1.0	upper	../fonts/Verdana.ttf
1315.676	n/a	WORD	657838	wordpools/wasnorm_wordpool.txt	LTP119	ltpFR	6	7	-1	TRUCK	1512	n/a	-1	1	1.0	1.0	upper	../fonts/Verdana.ttf
1319.864	n/a	WORD	659932	wordpools/wasnorm_wordpool.txt	LTP119	ltpFR	6	7	-1	CARAVAN	242	n/a	-1	1	1.0	1.0	upper	../fonts/Verdana.ttf
1324.018	n/a	WORD	662009	wordpools/wasnorm_wordpool.txt	LTP119	ltpFR	6	7	-1	BUTTON	207	n/a	-1	1	1.0	1.0	upper	../fonts/Verdana.ttf
1328.004	n/a	WORD	664002	wordpools/wasnorm_wordpool.txt	LTP119	ltpFR	6	7	-1	THERMOMETER	1453	n/a	-1	1	1.0	1.0	upper	../fonts/Verdana.ttf
1331.992	n/a	WORD	665996	wordpools/wasnorm_wordpool.txt	LTP119	ltpFR	6	7	-1	YOKE	1632	n/a	-1	1	1.0	1.0	upper	../fonts/Verdana.ttf
1336.144	n/a	WORD	668072	wordpools/wasnorm_wordpool.txt	LTP119	ltpFR	6	7	-1	GLOVE	642	n/a	-1	1	1.0	1.0	upper	../fonts/Verdana.ttf
1341.748	n/a	REC_START	670874	n/a	LTP119	ltpFR	6	7	n/a	n/a	n/a	n/a	n/a	n/a	n/a	n/a	n/a	n/a
1342.226	n/a	REC_WORD	671113	wordpools/wasnorm_wordpool.txt	LTP119	ltpFR	6	7	-1	YOKE	1632	n/a	-1	n/a	n/a	n/a	n/a	n/a
1343.204	n/a	REC_WORD	671602	wordpools/wasnorm_wordpool.txt	LTP119	ltpFR	6	7	-1	GLOVE	642	n/a	-1	n/a	n/a	n/a	n/a	n/a
1344.196	n/a	REC_WORD	672098	wordpools/wasnorm_wordpool.txt	LTP119	ltpFR	6	7	-1	CARAVAN	242	n/a	-1	n/a	n/a	n/a	n/a	n/a
1345.28	n/a	REC_WORD	672640	wordpools/wasnorm_wordpool.txt	LTP119	ltpFR	6	7	-1	TRUCK	1512	n/a	-1	n/a	n/a	n/a	n/a	n/a
1347.464	n/a	REC_WORD	673732	wordpools/wasnorm_wordpool.txt	LTP119	ltpFR	6	7	-1	PIT	1077	n/a	-1	n/a	n/a	n/a	n/a	n/a
1349.454	n/a	REC_WORD	674727	wordpools/wasnorm_wordpool.txt	LTP119	ltpFR	6	7	-1	OZONE	996	n/a	-1	n/a	n/a	n/a	n/a	n/a
1351.584	n/a	REC_WORD	675792	wordpools/wasnorm_wordpool.txt	LTP119	ltpFR	6	7	-1	CONVICT	371	n/a	-1	n/a	n/a	n/a	n/a	n/a
1374.15	n/a	REC_WORD	687075	wordpools/wasnorm_wordpool.txt	LTP119	ltpFR	6	7	-1	BUTTON	207	n/a	-1	n/a	n/a	n/a	n/a	n/a
1385.28	n/a	REC_WORD	692640	wordpools/wasnorm_wordpool.txt	LTP119	ltpFR	6	7	-1	THERMOMETER	1453	n/a	-1	n/a	n/a	n/a	n/a	n/a
1428.022	n/a	WORD	714011	wordpools/wasnorm_wordpool.txt	LTP119	ltpFR	6	8	1	FARMER	553	n/a	1	0	0.5869140625	0.422607421875	upper	../fonts/zerothre.ttf
1432.226	n/a	WORD	716113	wordpools/wasnorm_wordpool.txt	LTP119	ltpFR	6	8	1	FLORIDA	582	n/a	0	0	0.5869140625	0.422607421875	upper	../fonts/zerothre.ttf
1436.412	n/a	WORD	718206	wordpools/wasnorm_wordpool.txt	LTP119	ltpFR	6	8	1	MICROWAVE	892	n/a	0	0	0.5869140625	0.422607421875	upper	../fonts/zerothre.ttf
1440.618	n/a	WORD	720309	wordpools/wasnorm_wordpool.txt	LTP119	ltpFR	6	8	1	SKULL	1320	n/a	0	0	0.5869140625	0.422607421875	upper	../fonts/zerothre.ttf
1444.478	n/a	WORD	722239	wordpools/wasnorm_wordpool.txt	LTP119	ltpFR	6	8	1	FOREHEAD	592	n/a	0	0	0.5869140625	0.422607421875	upper	../fonts/zerothre.ttf
1448.366	n/a	WORD	724183	wordpools/wasnorm_wordpool.txt	LTP119	ltpFR	6	8	1	FLOUR	583	n/a	0	0	0.5869140625	0.422607421875	upper	../fonts/zerothre.ttf
1452.496	n/a	WORD	726248	wordpools/wasnorm_wordpool.txt	LTP119	ltpFR	6	8	1	RADISH	1158	n/a	1	0	0.5869140625	0.422607421875	upper	../fonts/zerothre.ttf
1456.524	n/a	WORD	728262	wordpools/wasnorm_wordpool.txt	LTP119	ltpFR	6	8	1	OUTFIT	988	n/a	0	0	0.5869140625	0.422607421875	upper	../fonts/zerothre.ttf
1460.51	n/a	WORD	730255	wordpools/wasnorm_wordpool.txt	LTP119	ltpFR	6	8	1	SKIRT	1319	n/a	0	0	0.5869140625	0.422607421875	upper	../fonts/zerothre.ttf
1464.348	n/a	WORD	732174	wordpools/wasnorm_wordpool.txt	LTP119	ltpFR	6	8	1	MOSQUITO	917	n/a	1	0	0.5869140625	0.422607421875	upper	../fonts/zerothre.ttf
1468.502	n/a	WORD	734251	wordpools/wasnorm_wordpool.txt	LTP119	ltpFR	6	8	1	SPIDER	1351	n/a	1	0	0.5869140625	0.422607421875	upper	../fonts/zerothre.ttf
1472.63	n/a	WORD	736315	wordpools/wasnorm_wordpool.txt	LTP119	ltpFR	6	8	1	HAND	683	n/a	0	0	0.5869140625	0.422607421875	upper	../fonts/zerothre.ttf
1476.61	n/a	WORD	738305	wordpools/wasnorm_wordpool.txt	LTP119	ltpFR	6	8	1	THIMBLE	1458	n/a	0	0	0.5869140625	0.422607421875	upper	../fonts/zerothre.ttf
1480.704	n/a	WORD	740352	wordpools/wasnorm_wordpool.txt	LTP119	ltpFR	6	8	1	CHICK	296	n/a	1	0	0.5869140625	0.422607421875	upper	../fonts/zerothre.ttf
1484.666	n/a	WORD	742333	wordpools/wasnorm_wordpool.txt	LTP119	ltpFR	6	8	1	SECRETARY	1265	n/a	1	0	0.5869140625	0.422607421875	upper	../fonts/zerothre.ttf
1488.512	n/a	WORD	744256	wordpools/wasnorm_wordpool.txt	LTP119	ltpFR	6	8	1	FINGER	567	n/a	0	0	0.5869140625	0.422607421875	upper	../fonts/zerothre.ttf
1494.19	n/a	REC_START	747095	n/a	LTP119	ltpFR	6	8	n/a	n/a	n/a	n/a	n/a	n/a	n/a	n/a	n/a	n/a
1494.678	n/a	REC_WORD	747339	wordpools/wasnorm_wordpool.txt	LTP119	ltpFR	6	8	1	FINGER	567	n/a	0	n/a	n/a	n/a	n/a	n/a
1495.296	n/a	REC_WORD	747648	wordpools/wasnorm_wordpool.txt	LTP119	ltpFR	6	8	1	SECRETARY	1265	n/a	1	n/a	n/a	n/a	n/a	n/a
1496.174	n/a	REC_WORD	748087	wordpools/wasnorm_wordpool.txt	LTP119	ltpFR	6	8	1	FARMER	553	n/a	1	n/a	n/a	n/a	n/a	n/a
1497.048	n/a	REC_WORD	748524	wordpools/wasnorm_wordpool.txt	LTP119	ltpFR	6	8	1	FLORIDA	582	n/a	0	n/a	n/a	n/a	n/a	n/a
1497.732	n/a	REC_WORD	748866	wordpools/wasnorm_wordpool.txt	LTP119	ltpFR	6	8	1	SKULL	1320	n/a	0	n/a	n/a	n/a	n/a	n/a
1498.864	n/a	REC_WORD	749432	wordpools/wasnorm_wordpool.txt	LTP119	ltpFR	6	8	1	FOREHEAD	592	n/a	0	n/a	n/a	n/a	n/a	n/a
1501.956	n/a	REC_WORD	750978	wordpools/wasnorm_wordpool.txt	LTP119	ltpFR	6	8	1	SKULL	1320	n/a	0	n/a	n/a	n/a	n/a	n/a
1502.956	n/a	REC_WORD_VV	751478	wordpools/wasnorm_wordpool.txt	LTP119	ltpFR	6	8	n/a	<>	-1	n/a	n/a	n/a	n/a	n/a	n/a	n/a
1508.632	n/a	REC_WORD	754316	wordpools/wasnorm_wordpool.txt	LTP119	ltpFR	6	8	1	FLOUR	583	n/a	0	n/a	n/a	n/a	n/a	n/a
1526.202	n/a	REC_WORD	763101	wordpools/wasnorm_wordpool.txt	LTP119	ltpFR	6	8	1	RADISH	1158	n/a	1	n/a	n/a	n/a	n/a	n/a
1537.792	n/a	REC_WORD	768896	wordpools/wasnorm_wordpool.txt	LTP119	ltpFR	6	8	1	HAND	683	n/a	0	n/a	n/a	n/a	n/a	n/a
1550.108	n/a	REC_WORD	775054	wordpools/wasnorm_wordpool.txt	LTP119	ltpFR	6	8	1	THIMBLE	1458	n/a	0	n/a	n/a	n/a	n/a	n/a
1585.018	n/a	WORD	792509	wordpools/wasnorm_wordpool.txt	LTP119	ltpFR	6	9	1	GOWN	652	n/a	0	0	0.5869140625	0.422607421875	upper	../fonts/zerothre.ttf
1589.204	n/a	WORD	794602	wordpools/wasnorm_wordpool.txt	LTP119	ltpFR	6	9	1	LAPEL	800	n/a	0	0	0.5869140625	0.422607421875	upper	../fonts/zerothre.ttf
1593.074	n/a	WORD	796537	wordpools/wasnorm_wordpool.txt	LTP119	ltpFR	6	9	1	ROOF	1205	n/a	0	0	0.5869140625	0.422607421875	upper	../fonts/zerothre.ttf
1597.178	n/a	WORD	798589	wordpools/wasnorm_wordpool.txt	LTP119	ltpFR	6	9	1	LID	817	n/a	0	0	0.5869140625	0.422607421875	upper	../fonts/zerothre.ttf
1601.158	n/a	WORD	800579	wordpools/wasnorm_wordpool.txt	LTP119	ltpFR	6	9	1	TREE	1502	n/a	0	0	0.5869140625	0.422607421875	upper	../fonts/zerothre.ttf
1605.21	n/a	WORD	802605	wordpools/wasnorm_wordpool.txt	LTP119	ltpFR	6	9	1	SEED	1266	n/a	1	0	0.5869140625	0.422607421875	upper	../fonts/zerothre.ttf
1609.214	n/a	WORD	804607	wordpools/wasnorm_wordpool.txt	LTP119	ltpFR	6	9	1	SINK	1309	n/a	0	0	0.5869140625	0.422607421875	upper	../fonts/zerothre.ttf
1613.386	n/a	WORD	806693	wordpools/wasnorm_wordpool.txt	LTP119	ltpFR	6	9	1	CHERRY	293	n/a	1	0	0.5869140625	0.422607421875	upper	../fonts/zerothre.ttf
1617.398	n/a	WORD	808699	wordpools/wasnorm_wordpool.txt	LTP119	ltpFR	6	9	1	GRASSHOPPER	656	n/a	1	0	0.5869140625	0.422607421875	upper	../fonts/zerothre.ttf
1621.484	n/a	WORD	810742	wordpools/wasnorm_wordpool.txt	LTP119	ltpFR	6	9	1	WHALE	1601	n/a	1	0	0.5869140625	0.422607421875	upper	../fonts/zerothre.ttf
1625.48	n/a	WORD	812740	wordpools/wasnorm_wordpool.txt	LTP119	ltpFR	6	9	1	TROUT	1511	n/a	1	0	0.5869140625	0.422607421875	upper	../fonts/zerothre.ttf
1629.308	n/a	WORD	814654	wordpools/wasnorm_wordpool.txt	LTP119	ltpFR	6	9	1	PUDDLE	1140	n/a	0	0	0.5869140625	0.422607421875	upper	../fonts/zerothre.ttf
1633.188	n/a	WORD	816594	wordpools/wasnorm_wordpool.txt	LTP119	ltpFR	6	9	1	WIFE	1609	n/a	1	0	0.5869140625	0.422607421875	upper	../fonts/zerothre.ttf
1637.308	n/a	WORD	818654	wordpools/wasnorm_wordpool.txt	LTP119	ltpFR	6	9	1	CHEESE	289	n/a	0	0	0.5869140625	0.422607421875	upper	../fonts/zerothre.ttf
1641.478	n/a	WORD	820739	wordpools/wasnorm_wordpool.txt	LTP119	ltpFR	6	9	1	ACORN	3	n/a	1	0	0.5869140625	0.422607421875	upper	../fonts/zerothre.ttf
1645.616	n/a	WORD	822808	wordpools/wasnorm_wordpool.txt	LTP119	ltpFR	6	9	1	GRILL	661	n/a	0	0	0.5869140625	0.422607421875	upper	../fonts/zerothre.ttf
1651.326	n/a	REC_START	825663	n/a	LTP119	ltpFR	6	9	n/a	n/a	n/a	n/a	n/a	n/a	n/a	n/a	n/a	n/a
1651.904	n/a	REC_WORD	825952	wordpools/wasnorm_wordpool.txt	LTP119	ltpFR	6	9	1	GRILL	661	n/a	0	n/a	n/a	n/a	n/a	n/a
1652.852	n/a	REC_WORD	826426	wordpools/wasnorm_wordpool.txt	LTP119	ltpFR	6	9	1	WIFE	1609	n/a	1	n/a	n/a	n/a	n/a	n/a
1653.774	n/a	REC_WORD	826887	wordpools/wasnorm_wordpool.txt	LTP119	ltpFR	6	9	1	TREE	1502	n/a	0	n/a	n/a	n/a	n/a	n/a
1654.738	n/a	REC_WORD	827369	wordpools/wasnorm_wordpool.txt	LTP119	ltpFR	6	9	1	SEED	1266	n/a	1	n/a	n/a	n/a	n/a	n/a
1655.85	n/a	REC_WORD	827925	wordpools/wasnorm_wordpool.txt	LTP119	ltpFR	6	9	1	ACORN	3	n/a	1	n/a	n/a	n/a	n/a	n/a
1657.062	n/a	REC_WORD	828531	wordpools/wasnorm_wordpool.txt	LTP119	ltpFR	6	9	1	GOWN	652	n/a	0	n/a	n/a	n/a	n/a	n/a
1698.15	n/a	REC_WORD	849075	wordpools/wasnorm_wordpool.txt	LTP119	ltpFR	6	9	1	WHALE	1601	n/a	1	n/a	n/a	n/a	n/a	n/a
1699.068	n/a	REC_WORD	849534	wordpools/wasnorm_wordpool.txt	LTP119	ltpFR	6	9	1	TROUT	1511	n/a	1	n/a	n/a	n/a	n/a	n/a
1715.92	n/a	REC_WORD	857960	wordpools/wasnorm_wordpool.txt	LTP119	ltpFR	6	9	1	LAPEL	800	n/a	0	n/a	n/a	n/a	n/a	n/a
1725.542	n/a	REC_WORD	862771	wordpools/wasnorm_wordpool.txt	LTP119	ltpFR	6	9	1	PUDDLE	1140	n/a	0	n/a	n/a	n/a	n/a	n/a
1744.61	n/a	WORD	872305	wordpools/wasnorm_wordpool.txt	LTP119	ltpFR	6	10	1	BEAVER	109	n/a	1	0	0.5869140625	0.422607421875	upper	../fonts/zerothre.ttf
1748.654	n/a	WORD	874327	wordpools/wasnorm_wordpool.txt	LTP119	ltpFR	6	10	1	RAM	1165	n/a	1	0	0.5869140625	0.422607421875	upper	../fonts/zerothre.ttf
1752.65	n/a	WORD	876325	wordpools/wasnorm_wordpool.txt	LTP119	ltpFR	6	10	1	JAPAN	749	n/a	0	0	0.5869140625	0.422607421875	upper	../fonts/zerothre.ttf
1756.58	n/a	WORD	878290	wordpools/wasnorm_wordpool.txt	LTP119	ltpFR	6	10	1	SILVERWARE	1308	n/a	0	0	0.5869140625	0.422607421875	upper	../fonts/zerothre.ttf
1760.608	n/a	WORD	880304	wordpools/wasnorm_wordpool.txt	LTP119	ltpFR	6	10	0	THORN	1459	n/a	0	1	0.412841796875	0.57763671875	lower	../fonts/amplitud.ttf
1764.678	n/a	WORD	882339	wordpools/wasnorm_wordpool.txt	LTP119	ltpFR	6	10	0	MAID	856	n/a	1	1	0.412841796875	0.57763671875	lower	../fonts/amplitud.ttf
1768.714	n/a	WORD	884357	wordpools/wasnorm_wordpool.txt	LTP119	ltpFR	6	10	0	SHELTER	1282	n/a	1	1	0.412841796875	0.57763671875	lower	../fonts/amplitud.ttf
1772.868	n/a	WORD	886434	wordpools/wasnorm_wordpool.txt	LTP119	ltpFR	6	10	1	BARK	87	n/a	0	0	0.5869140625	0.422607421875	upper	../fonts/zerothre.ttf
1776.864	n/a	WORD	888432	wordpools/wasnorm_wordpool.txt	LTP119	ltpFR	6	10	1	VET	1560	n/a	0	0	0.5869140625	0.422607421875	upper	../fonts/zerothre.ttf
1780.776	n/a	WORD	890388	wordpools/wasnorm_wordpool.txt	LTP119	ltpFR	6	10	1	THICKET	1455	n/a	0	0	0.5869140625	0.422607421875	upper	../fonts/zerothre.ttf
1784.638	n/a	WORD	892319	wordpools/wasnorm_wordpool.txt	LTP119	ltpFR	6	10	1	PRODUCER	1129	n/a	0	0	0.5869140625	0.422607421875	upper	../fonts/zerothre.ttf
1788.842	n/a	WORD	894421	wordpools/wasnorm_wordpool.txt	LTP119	ltpFR	6	10	0	CASKET	255	n/a	1	1	0.412841796875	0.57763671875	lower	../fonts/amplitud.ttf
1792.896	n/a	WORD	896448	wordpools/wasnorm_wordpool.txt	LTP119	ltpFR	6	10	0	WRIST	1626	n/a	0	1	0.412841796875	0.57763671875	lower	../fonts/amplitud.ttf
1796.974	n/a	WORD	898487	wordpools/wasnorm_wordpool.txt	LTP119	ltpFR	6	10	0	POTATO	1115	n/a	0	1	0.412841796875	0.57763671875	lower	../fonts/amplitud.ttf
1801.044	n/a	WORD	900522	wordpools/wasnorm_wordpool.txt	LTP119	ltpFR	6	10	0	SERVANT	1271	n/a	1	1	0.412841796875	0.57763671875	lower	../fonts/amplitud.ttf
1805.19	n/a	WORD	902595	wordpools/wasnorm_wordpool.txt	LTP119	ltpFR	6	10	0	BLOSSOM	138	n/a	0	1	0.412841796875	0.57763671875	lower	../fonts/amplitud.ttf
1811.084	n/a	REC_START	905542	n/a	LTP119	ltpFR	6	10	n/a	n/a	n/a	n/a	n/a	n/a	n/a	n/a	n/a	n/a
1811.508	n/a	REC_WORD	905754	wordpools/wasnorm_wordpool.txt	LTP119	ltpFR	6	10	0	BLOSSOM	138	n/a	0	n/a	n/a	n/a	n/a	n/a
1812.63	n/a	REC_WORD	906315	wordpools/wasnorm_wordpool.txt	LTP119	ltpFR	6	10	0	SERVANT	1271	n/a	1	n/a	n/a	n/a	n/a	n/a
1816.038	n/a	REC_WORD	908019	wordpools/wasnorm_wordpool.txt	LTP119	ltpFR	6	10	1	RAM	1165	n/a	1	n/a	n/a	n/a	n/a	n/a
1817.734	n/a	REC_WORD	908867	wordpools/wasnorm_wordpool.txt	LTP119	ltpFR	6	10	1	BEAVER	109	n/a	1	n/a	n/a	n/a	n/a	n/a
1820.312	n/a	REC_WORD	910156	wordpools/wasnorm_wordpool.txt	LTP119	ltpFR	6	10	0	THORN	1459	n/a	0	n/a	n/a	n/a	n/a	n/a
1821.774	n/a	REC_WORD	910887	wordpools/wasnorm_wordpool.txt	LTP119	ltpFR	6	10	1	THICKET	1455	n/a	0	n/a	n/a	n/a	n/a	n/a
1841.814	n/a	REC_WORD	920907	wordpools/wasnorm_wordpool.txt	LTP119	ltpFR	6	10	0	MAID	856	n/a	1	n/a	n/a	n/a	n/a	n/a
1856.8	n/a	REC_WORD	928400	wordpools/wasnorm_wordpool.txt	LTP119	ltpFR	6	10	0	BLOSSOM	138	n/a	0	n/a	n/a	n/a	n/a	n/a
1879.28	n/a	REC_WORD	939640	wordpools/wasnorm_wordpool.txt	LTP119	ltpFR	6	10	0	WRIST	1626	n/a	0	n/a	n/a	n/a	n/a	n/a
1884.028	n/a	REC_WORD	942014	wordpools/wasnorm_wordpool.txt	LTP119	ltpFR	6	10	1	JAPAN	749	n/a	0	n/a	n/a	n/a	n/a	n/a
1900.714	n/a	WORD	950357	wordpools/wasnorm_wordpool.txt	LTP119	ltpFR	6	11	-1	CANE	231	n/a	-1	1	1.0	1.0	upper	../fonts/Verdana.ttf
1904.908	n/a	WORD	952454	wordpools/wasnorm_wordpool.txt	LTP119	ltpFR	6	11	-1	PIMPLE	1071	n/a	-1	1	1.0	1.0	upper	../fonts/Verdana.ttf
1909.112	n/a	WORD	954556	wordpools/wasnorm_wordpool.txt	LTP119	ltpFR	6	11	-1	MONARCH	906	n/a	-1	1	1.0	1.0	upper	../fonts/Verdana.ttf
1913.308	n/a	WORD	956654	wordpools/wasnorm_wordpool.txt	LTP119	ltpFR	6	11	-1	STOVE	1388	n/a	-1	1	1.0	1.0	upper	../fonts/Verdana.ttf
1917.144	n/a	WORD	958572	wordpools/wasnorm_wordpool.txt	LTP119	ltpFR	6	11	-1	POT	1114	n/a	-1	1	1.0	1.0	upper	../fonts/Verdana.ttf
1921.332	n/a	WORD	960666	wordpools/wasnorm_wordpool.txt	LTP119	ltpFR	6	11	-1	GIRAFFE	636	n/a	-1	1	1.0	1.0	upper	../fonts/Verdana.ttf
1925.352	n/a	WORD	962676	wordpools/wasnorm_wordpool.txt	LTP119	ltpFR	6	11	-1	BEE	112	n/a	-1	1	1.0	1.0	upper	../fonts/Verdana.ttf
1929.496	n/a	WORD	964748	wordpools/wasnorm_wordpool.txt	LTP119	ltpFR	6	11	-1	HONEY	713	n/a	-1	1	1.0	1.0	upper	../fonts/Verdana.ttf
1933.594	n/a	WORD	966797	wordpools/wasnorm_wordpool.txt	LTP119	ltpFR	6	11	-1	MONEY	908	n/a	-1	1	1.0	1.0	upper	../fonts/Verdana.ttf
1937.72	n/a	WORD	968860	wordpools/wasnorm_wordpool.txt	LTP119	ltpFR	6	11	-1	EMPEROR	529	n/a	-1	1	1.0	1.0	upper	../fonts/Verdana.ttf
1941.816	n/a	WORD	970908	wordpools/wasnorm_wordpool.txt	LTP119	ltpFR	6	11	-1	SUGAR	1401	n/a	-1	1	1.0	1.0	upper	../fonts/Verdana.ttf
1945.82	n/a	WORD	972910	wordpools/wasnorm_wordpool.txt	LTP119	ltpFR	6	11	-1	DONKEY	484	n/a	-1	1	1.0	1.0	upper	../fonts/Verdana.ttf
1949.642	n/a	WORD	974821	wordpools/wasnorm_wordpool.txt	LTP119	ltpFR	6	11	-1	DINNER	468	n/a	-1	1	1.0	1.0	upper	../fonts/Verdana.ttf
1953.612	n/a	WORD	976806	wordpools/wasnorm_wordpool.txt	LTP119	ltpFR	6	11	-1	ROOSTER	1209	n/a	-1	1	1.0	1.0	upper	../fonts/Verdana.ttf
1957.79	n/a	WORD	978895	wordpools/wasnorm_wordpool.txt	LTP119	ltpFR	6	11	-1	MONK	910	n/a	-1	1	1.0	1.0	upper	../fonts/Verdana.ttf
1961.818	n/a	WORD	980909	wordpools/wasnorm_wordpool.txt	LTP119	ltpFR	6	11	-1	PICK	1058	n/a	-1	1	1.0	1.0	upper	../fonts/Verdana.ttf
1967.53	n/a	REC_START	983765	n/a	LTP119	ltpFR	6	11	n/a	n/a	n/a	n/a	n/a	n/a	n/a	n/a	n/a	n/a
1968.008	n/a	REC_WORD	984004	wordpools/wasnorm_wordpool.txt	LTP119	ltpFR	6	11	-1	PICK	1058	n/a	-1	n/a	n/a	n/a	n/a	n/a
1968.812	n/a	REC_WORD	984406	wordpools/wasnorm_wordpool.txt	LTP119	ltpFR	6	11	-1	EMPEROR	529	n/a	-1	n/a	n/a	n/a	n/a	n/a
1970.274	n/a	REC_WORD	985137	wordpools/wasnorm_wordpool.txt	LTP119	ltpFR	6	11	-1	MONARCH	906	n/a	-1	n/a	n/a	n/a	n/a	n/a
1971.416	n/a	REC_WORD	985708	wordpools/wasnorm_wordpool.txt	LTP119	ltpFR	6	11	-1	MONK	910	n/a	-1	n/a	n/a	n/a	n/a	n/a
1972.492	n/a	REC_WORD	986246	wordpools/wasnorm_wordpool.txt	LTP119	ltpFR	6	11	-1	MONEY	908	n/a	-1	n/a	n/a	n/a	n/a	n/a
1973.57	n/a	REC_WORD	986785	wordpools/wasnorm_wordpool.txt	LTP119	ltpFR	6	11	-1	BEE	112	n/a	-1	n/a	n/a	n/a	n/a	n/a
1974.644	n/a	REC_WORD	987322	wordpools/wasnorm_wordpool.txt	LTP119	ltpFR	6	11	-1	HONEY	713	n/a	-1	n/a	n/a	n/a	n/a	n/a
1976.754	n/a	REC_WORD	988377	wordpools/wasnorm_wordpool.txt	LTP119	ltpFR	6	11	-1	PIMPLE	1071	n/a	-1	n/a	n/a	n/a	n/a	n/a
1977.78	n/a	REC_WORD	988890	wordpools/wasnorm_wordpool.txt	LTP119	ltpFR	6	11	-1	SUGAR	1401	n/a	-1	n/a	n/a	n/a	n/a	n/a
1978.848	n/a	REC_WORD	989424	wordpools/wasnorm_wordpool.txt	LTP119	ltpFR	6	11	-1	CANE	231	n/a	-1	n/a	n/a	n/a	n/a	n/a
1983.648	n/a	REC_WORD	991824	wordpools/wasnorm_wordpool.txt	LTP119	ltpFR	6	11	-1	GIRAFFE	636	n/a	-1	n/a	n/a	n/a	n/a	n/a
2066.266	n/a	WORD	1033133	wordpools/wasnorm_wordpool.txt	LTP119	ltpFR	6	12	0	TIE	1466	n/a	0	1	0.412841796875	0.57763671875	lower	../fonts/amplitud.ttf
2070.128	n/a	WORD	1035064	wordpools/wasnorm_wordpool.txt	LTP119	ltpFR	6	12	0	KEYBOARD	774	n/a	1	1	0.412841796875	0.57763671875	lower	../fonts/amplitud.ttf
2074.28	n/a	WORD	1037140	wordpools/wasnorm_wordpool.txt	LTP119	ltpFR	6	12	0	SURGEON	1413	n/a	1	1	0.412841796875	0.57763671875	lower	../fonts/amplitud.ttf
2078.268	n/a	WORD	1039134	wordpools/wasnorm_wordpool.txt	LTP119	ltpFR	6	12	0	TRUMPET	1513	n/a	0	1	0.412841796875	0.57763671875	lower	../fonts/amplitud.ttf
2082.138	n/a	WORD	1041069	wordpools/wasnorm_wordpool.txt	LTP119	ltpFR	6	12	0	TROMBONE	1508	n/a	0	1	0.412841796875	0.57763671875	lower	../fonts/amplitud.ttf
2086.108	n/a	WORD	1043054	wordpools/wasnorm_wordpool.txt	LTP119	ltpFR	6	12	1	ANTENNA	28	n/a	0	0	0.5869140625	0.422607421875	upper	../fonts/zerothre.ttf
2090.204	n/a	WORD	1045102	wordpools/wasnorm_wordpool.txt	LTP119	ltpFR	6	12	1	TUBE	1516	n/a	0	0	0.5869140625	0.422607421875	upper	../fonts/zerothre.ttf
2094.174	n/a	WORD	1047087	wordpools/wasnorm_wordpool.txt	LTP119	ltpFR	6	12	1	POLICE	1098	n/a	1	0	0.5869140625	0.422607421875	upper	../fonts/zerothre.ttf
2098.352	n/a	WORD	1049176	wordpools/wasnorm_wordpool.txt	LTP119	ltpFR	6	12	0	PRISON	1127	n/a	1	1	0.412841796875	0.57763671875	lower	../fonts/amplitud.ttf
2102.566	n/a	WORD	1051283	wordpools/wasnorm_wordpool.txt	LTP119	ltpFR	6	12	0	STEP	1377	n/a	0	1	0.412841796875	0.57763671875	lower	../fonts/amplitud.ttf
2106.378	n/a	WORD	1053189	wordpools/wasnorm_wordpool.txt	LTP119	ltpFR	6	12	0	ANIMAL	23	n/a	0	1	0.412841796875	0.57763671875	lower	../fonts/amplitud.ttf
2110.256	n/a	WORD	1055128	wordpools/wasnorm_wordpool.txt	LTP119	ltpFR	6	12	1	PIGEON	1065	n/a	2	0	0.5869140625	0.422607421875	upper	../fonts/zerothre.ttf
2111.08	n/a	KEY_MSG	1055540	n/a	LTP119	ltpFR	6	12	n/a	n/a	n/a	n/a	n/a	n/a	n/a	n/a	n/a	n/a
2114.286	n/a	WORD	1057143	wordpools/wasnorm_wordpool.txt	LTP119	ltpFR	6	12	1	BALLOT	76	n/a	0	0	0.5869140625	0.422607421875	upper	../fonts/zerothre.ttf
2118.132	n/a	WORD	1059066	wordpools/wasnorm_wordpool.txt	LTP119	ltpFR	6	12	1	MONGOOSE	909	n/a	1	0	0.5869140625	0.422607421875	upper	../fonts/zerothre.ttf
2122.094	n/a	WORD	1061047	wordpools/wasnorm_wordpool.txt	LTP119	ltpFR	6	12	1	NURSE	963	n/a	1	0	0.5869140625	0.422607421875	upper	../fonts/zerothre.ttf
2126.222	n/a	WORD	1063111	wordpools/wasnorm_wordpool.txt	LTP119	ltpFR	6	12	1	RECEPTIONIST	1174	n/a	1	0	0.5869140625	0.422607421875	upper	../fonts/zerothre.ttf
2132.016	n/a	REC_START	1066008	n/a	LTP119	ltpFR	6	12	n/a	n/a	n/a	n/a	n/a	n/a	n/a	n/a	n/a	n/a
2132.778	n/a	REC_WORD	1066389	wordpools/wasnorm_wordpool.txt	LTP119	ltpFR	6	12	1	NURSE	963	n/a	1	n/a	n/a	n/a	n/a	n/a
2133.388	n/a	REC_WORD	1066694	wordpools/wasnorm_wordpool.txt	LTP119	ltpFR	6	12	1	RECEPTIONIST	1174	n/a	1	n/a	n/a	n/a	n/a	n/a
2134.42	n/a	REC_WORD	1067210	wordpools/wasnorm_wordpool.txt	LTP119	ltpFR	6	12	1	POLICE	1098	n/a	1	n/a	n/a	n/a	n/a	n/a
2135.228	n/a	REC_WORD	1067614	wordpools/wasnorm_wordpool.txt	LTP119	ltpFR	6	12	0	SURGEON	1413	n/a	1	n/a	n/a	n/a	n/a	n/a
2136.24	n/a	REC_WORD	1068120	wordpools/wasnorm_wordpool.txt	LTP119	ltpFR	6	12	1	PIGEON	1065	n/a	2	n/a	n/a	n/a	n/a	n/a
2137.148	n/a	REC_WORD	1068574	wordpools/wasnorm_wordpool.txt	LTP119	ltpFR	6	12	1	MONGOOSE	909	n/a	1	n/a	n/a	n/a	n/a	n/a
2138.102	n/a	REC_WORD	1069051	wordpools/wasnorm_wordpool.txt	LTP119	ltpFR	6	12	0	TIE	1466	n/a	0	n/a	n/a	n/a	n/a	n/a
2140.496	n/a	REC_WORD	1070248	wordpools/wasnorm_wordpool.txt	LTP119	ltpFR	6	12	0	KEYBOARD	774	n/a	1	n/a	n/a	n/a	n/a	n/a
2141.34	n/a	REC_WORD	1070670	wordpools/wasnorm_wordpool.txt	LTP119	ltpFR	6	12	0	TRUMPET	1513	n/a	0	n/a	n/a	n/a	n/a	n/a
2142.128	n/a	REC_WORD	1071064	wordpools/wasnorm_wordpool.txt	LTP119	ltpFR	6	12	0	TROMBONE	1508	n/a	0	n/a	n/a	n/a	n/a	n/a
2162.196	n/a	REC_WORD	1081098	wordpools/wasnorm_wordpool.txt	LTP119	ltpFR	6	12	0	PRISON	1127	n/a	1	n/a	n/a	n/a	n/a	n/a
2178.31	n/a	REC_WORD	1089155	wordpools/wasnorm_wordpool.txt	LTP119	ltpFR	6	12	0	ANIMAL	23	n/a	0	n/a	n/a	n/a	n/a	n/a
2207.604	n/a	REST_REWET	1103802	n/a	LTP119	ltpFR	6	12	n/a	n/a	n/a	n/a	n/a	n/a	n/a	n/a	n/a	n/a
2848.576	n/a	WORD	1424288	wordpools/wasnorm_wordpool.txt	LTP119	ltpFR	6	13	1	DISHWASHER	475	n/a	0	0	0.5869140625	0.422607421875	upper	../fonts/zerothre.ttf
2852.496	n/a	WORD	1426248	wordpools/wasnorm_wordpool.txt	LTP119	ltpFR	6	13	1	MUFFIN	929	n/a	0	0	0.5869140625	0.422607421875	upper	../fonts/zerothre.ttf
2856.626	n/a	WORD	1428313	wordpools/wasnorm_wordpool.txt	LTP119	ltpFR	6	13	1	BRIEFCASE	175	n/a	0	0	0.5869140625	0.422607421875	upper	../fonts/zerothre.ttf
2860.588	n/a	WORD	1430294	wordpools/wasnorm_wordpool.txt	LTP119	ltpFR	6	13	1	PRIEST	1122	n/a	1	0	0.5869140625	0.422607421875	upper	../fonts/zerothre.ttf
2864.576	n/a	WORD	1432288	wordpools/wasnorm_wordpool.txt	LTP119	ltpFR	6	13	1	MOVIE	927	n/a	1	0	0.5869140625	0.422607421875	upper	../fonts/zerothre.ttf
2868.52	n/a	WORD	1434260	wordpools/wasnorm_wordpool.txt	LTP119	ltpFR	6	13	1	COD	340	n/a	1	0	0.5869140625	0.422607421875	upper	../fonts/zerothre.ttf
2872.332	n/a	WORD	1436166	wordpools/wasnorm_wordpool.txt	LTP119	ltpFR	6	13	1	PREACHER	1119	n/a	0	0	0.5869140625	0.422607421875	upper	../fonts/zerothre.ttf
2876.244	n/a	WORD	1438122	wordpools/wasnorm_wordpool.txt	LTP119	ltpFR	6	13	1	LAGOON	795	n/a	0	0	0.5869140625	0.422607421875	upper	../fonts/zerothre.ttf
2880.29	n/a	WORD	1440145	wordpools/wasnorm_wordpool.txt	LTP119	ltpFR	6	13	1	HAIL	676	n/a	0	0	0.5869140625	0.422607421875	upper	../fonts/zerothre.ttf
2884.118	n/a	WORD	1442059	wordpools/wasnorm_wordpool.txt	LTP119	ltpFR	6	13	1	ACTRESS	6	n/a	1	0	0.5869140625	0.422607421875	upper	../fonts/zerothre.ttf
2887.98	n/a	WORD	1443990	wordpools/wasnorm_wordpool.txt	LTP119	ltpFR	6	13	1	BANDIT	81	n/a	1	0	0.5869140625	0.422607421875	upper	../fonts/zerothre.ttf
2891.868	n/a	WORD	1445934	wordpools/wasnorm_wordpool.txt	LTP119	ltpFR	6	13	1	MACHINE	852	n/a	0	0	0.5869140625	0.422607421875	upper	../fonts/zerothre.ttf
2895.946	n/a	WORD	1447973	wordpools/wasnorm_wordpool.txt	LTP119	ltpFR	6	13	1	COMPUTER	359	n/a	0	0	0.5869140625	0.422607421875	upper	../fonts/zerothre.ttf
2899.858	n/a	WORD	1449929	wordpools/wasnorm_wordpool.txt	LTP119	ltpFR	6	13	1	HANDBAG	684	n/a	0	0	0.5869140625	0.422607421875	upper	../fonts/zerothre.ttf
2903.704	n/a	WORD	1451852	wordpools/wasnorm_wordpool.txt	LTP119	ltpFR	6	13	1	LAUNDRY	803	n/a	0	0	0.5869140625	0.422607421875	upper	../fonts/zerothre.ttf
2907.566	n/a	WORD	1453783	wordpools/wasnorm_wordpool.txt	LTP119	ltpFR	6	13	1	RACK	1154	n/a	0	0	0.5869140625	0.422607421875	upper	../fonts/zerothre.ttf
2913.468	n/a	REC_START	1456734	n/a	LTP119	ltpFR	6	13	n/a	n/a	n/a	n/a	n/a	n/a	n/a	n/a	n/a	n/a
2914.12	n/a	REC_WORD	1457060	wordpools/wasnorm_wordpool.txt	LTP119	ltpFR	6	13	1	RACK	1154	n/a	0	n/a	n/a	n/a	n/a	n/a
2914.834	n/a	REC_WORD	1457417	wordpools/wasnorm_wordpool.txt	LTP119	ltpFR	6	13	1	LAUNDRY	803	n/a	0	n/a	n/a	n/a	n/a	n/a
2915.518	n/a	REC_WORD	1457759	wordpools/wasnorm_wordpool.txt	LTP119	ltpFR	6	13	1	MACHINE	852	n/a	0	n/a	n/a	n/a	n/a	n/a
2916.216	n/a	REC_WORD	1458108	wordpools/wasnorm_wordpool.txt	LTP119	ltpFR	6	13	1	COMPUTER	359	n/a	0	n/a	n/a	n/a	n/a	n/a
2917.144	n/a	REC_WORD	1458572	wordpools/wasnorm_wordpool.txt	LTP119	ltpFR	6	13	1	DISHWASHER	475	n/a	0	n/a	n/a	n/a	n/a	n/a
2917.968	n/a	REC_WORD	1458984	wordpools/wasnorm_wordpool.txt	LTP119	ltpFR	6	13	1	BRIEFCASE	175	n/a	0	n/a	n/a	n/a	n/a	n/a
2922.298	n/a	REC_WORD	1461149	wordpools/wasnorm_wordpool.txt	LTP119	ltpFR	6	13	1	PRIEST	1122	n/a	1	n/a	n/a	n/a	n/a	n/a
2923.664	n/a	REC_WORD	1461832	wordpools/wasnorm_wordpool.txt	LTP119	ltpFR	6	13	1	PREACHER	1119	n/a	0	n/a	n/a	n/a	n/a	n/a
2933.308	n/a	REC_WORD	1466654	wordpools/wasnorm_wordpool.txt	LTP119	ltpFR	6	13	1	HANDBAG	684	n/a	0	n/a	n/a	n/a	n/a	n/a
2941.772	n/a	REC_WORD	1470886	wordpools/wasnorm_wordpool.txt	LTP119	ltpFR	6	13	1	ACTRESS	6	n/a	1	n/a	n/a	n/a	n/a	n/a
2943.134	n/a	REC_WORD	1471567	wordpools/wasnorm_wordpool.txt	LTP119	ltpFR	6	13	1	MOVIE	927	n/a	1	n/a	n/a	n/a	n/a	n/a
2996.388	n/a	WORD	1498194	wordpools/wasnorm_wordpool.txt	LTP119	ltpFR	6	14	0	PAINT	1003	n/a	0	1	0.412841796875	0.57763671875	lower	../fonts/amplitud.ttf
3000.526	n/a	WORD	1500263	wordpools/wasnorm_wordpool.txt	LTP119	ltpFR	6	14	0	VEGETABLE	1552	n/a	0	1	0.412841796875	0.57763671875	lower	../fonts/amplitud.ttf
3004.396	n/a	WORD	1502198	wordpools/wasnorm_wordpool.txt	LTP119	ltpFR	6	14	0	GAVEL	627	n/a	0	1	0.412841796875	0.57763671875	lower	../fonts/amplitud.ttf
3008.384	n/a	WORD	1504192	wordpools/wasnorm_wordpool.txt	LTP119	ltpFR	6	14	0	BAKER	71	n/a	1	1	0.412841796875	0.57763671875	lower	../fonts/amplitud.ttf
3012.528	n/a	WORD	1506264	wordpools/wasnorm_wordpool.txt	LTP119	ltpFR	6	14	0	LOAF	835	n/a	0	1	0.412841796875	0.57763671875	lower	../fonts/amplitud.ttf
3016.648	n/a	WORD	1508324	wordpools/wasnorm_wordpool.txt	LTP119	ltpFR	6	14	0	ROOM	1206	n/a	1	1	0.412841796875	0.57763671875	lower	../fonts/amplitud.ttf
3020.844	n/a	WORD	1510422	wordpools/wasnorm_wordpool.txt	LTP119	ltpFR	6	14	0	FREEWAY	603	n/a	1	1	0.412841796875	0.57763671875	lower	../fonts/amplitud.ttf
3024.906	n/a	WORD	1512453	wordpools/wasnorm_wordpool.txt	LTP119	ltpFR	6	14	0	FLIPPER	580	n/a	0	1	0.412841796875	0.57763671875	lower	../fonts/amplitud.ttf
3028.884	n/a	WORD	1514442	wordpools/wasnorm_wordpool.txt	LTP119	ltpFR	6	14	0	MOAT	903	n/a	1	1	0.412841796875	0.57763671875	lower	../fonts/amplitud.ttf
3032.806	n/a	WORD	1516403	wordpools/wasnorm_wordpool.txt	LTP119	ltpFR	6	14	0	OCEAN	970	n/a	1	1	0.412841796875	0.57763671875	lower	../fonts/amplitud.ttf
3036.818	n/a	WORD	1518409	wordpools/wasnorm_wordpool.txt	LTP119	ltpFR	6	14	0	TUNA	1518	n/a	0	1	0.412841796875	0.57763671875	lower	../fonts/amplitud.ttf
3040.888	n/a	WORD	1520444	wordpools/wasnorm_wordpool.txt	LTP119	ltpFR	6	14	0	WITNESS	1618	n/a	1	1	0.412841796875	0.57763671875	lower	../fonts/amplitud.ttf
3044.758	n/a	WORD	1522379	wordpools/wasnorm_wordpool.txt	LTP119	ltpFR	6	14	0	VILLAGE	1566	n/a	1	1	0.412841796875	0.57763671875	lower	../fonts/amplitud.ttf
3048.588	n/a	WORD	1524294	wordpools/wasnorm_wordpool.txt	LTP119	ltpFR	6	14	0	STUDENT	1395	n/a	0	1	0.412841796875	0.57763671875	lower	../fonts/amplitud.ttf
3052.674	n/a	WORD	1526337	wordpools/wasnorm_wordpool.txt	LTP119	ltpFR	6	14	0	CHIPMUNK	304	n/a	0	1	0.412841796875	0.57763671875	lower	../fonts/amplitud.ttf
3056.736	n/a	WORD	1528368	wordpools/wasnorm_wordpool.txt	LTP119	ltpFR	6	14	0	NUT	965	n/a	0	1	0.412841796875	0.57763671875	lower	../fonts/amplitud.ttf
3062.564	n/a	REC_START	1531282	n/a	LTP119	ltpFR	6	14	n/a	n/a	n/a	n/a	n/a	n/a	n/a	n/a	n/a	n/a
3063.218	n/a	REC_WORD	1531609	wordpools/wasnorm_wordpool.txt	LTP119	ltpFR	6	14	0	CHIPMUNK	304	n/a	0	n/a	n/a	n/a	n/a	n/a
3064.056	n/a	REC_WORD	1532028	wordpools/wasnorm_wordpool.txt	LTP119	ltpFR	6	14	0	NUT	965	n/a	0	n/a	n/a	n/a	n/a	n/a
3064.868	n/a	REC_WORD	1532434	wordpools/wasnorm_wordpool.txt	LTP119	ltpFR	6	14	0	LOAF	835	n/a	0	n/a	n/a	n/a	n/a	n/a
3065.992	n/a	REC_WORD	1532996	wordpools/wasnorm_wordpool.txt	LTP119	ltpFR	6	14	0	BAKER	71	n/a	1	n/a	n/a	n/a	n/a	n/a
3096.128	n/a	REC_WORD	1548064	wordpools/wasnorm_wordpool.txt	LTP119	ltpFR	6	14	n/a	GROOM	665	n/a	n/a	n/a	n/a	n/a	n/a	n/a
3118.268	n/a	REC_WORD	1559134	wordpools/wasnorm_wordpool.txt	LTP119	ltpFR	6	14	n/a	FORTRESS	-1	n/a	n/a	n/a	n/a	n/a	n/a	n/a
3145.376	n/a	WORD	1572688	wordpools/wasnorm_wordpool.txt	LTP119	ltpFR	6	15	-1	CONCERT	360	n/a	-1	1	1.0	1.0	upper	../fonts/Verdana.ttf
3149.206	n/a	WORD	1574603	wordpools/wasnorm_wordpool.txt	LTP119	ltpFR	6	15	-1	CORPORATION	382	n/a	-1	1	1.0	1.0	upper	../fonts/Verdana.ttf
3153.042	n/a	WORD	1576521	wordpools/wasnorm_wordpool.txt	LTP119	ltpFR	6	15	-1	ROCK	1201	n/a	-1	1	1.0	1.0	upper	../fonts/Verdana.ttf
3156.872	n/a	WORD	1578436	wordpools/wasnorm_wordpool.txt	LTP119	ltpFR	6	15	-1	MICROPHONE	890	n/a	-1	1	1.0	1.0	upper	../fonts/Verdana.ttf
3160.684	n/a	WORD	1580342	wordpools/wasnorm_wordpool.txt	LTP119	ltpFR	6	15	-1	VAULT	1550	n/a	-1	1	1.0	1.0	upper	../fonts/Verdana.ttf
3164.538	n/a	WORD	1582269	wordpools/wasnorm_wordpool.txt	LTP119	ltpFR	6	15	-1	PARSLEY	1016	n/a	-1	1	1.0	1.0	upper	../fonts/Verdana.ttf
3168.608	n/a	WORD	1584304	wordpools/wasnorm_wordpool.txt	LTP119	ltpFR	6	15	-1	GARDEN	623	n/a	-1	1	1.0	1.0	upper	../fonts/Verdana.ttf
3172.752	n/a	WORD	1586376	wordpools/wasnorm_wordpool.txt	LTP119	ltpFR	6	15	-1	FLUTE	585	n/a	-1	1	1.0	1.0	upper	../fonts/Verdana.ttf
3176.756	n/a	WORD	1588378	wordpools/wasnorm_wordpool.txt	LTP119	ltpFR	6	15	-1	TAPE	1433	n/a	-1	1	1.0	1.0	upper	../fonts/Verdana.ttf
3180.818	n/a	WORD	1590409	wordpools/wasnorm_wordpool.txt	LTP119	ltpFR	6	15	-1	CHIMNEY	301	n/a	-1	1	1.0	1.0	upper	../fonts/Verdana.ttf
3184.756	n/a	WORD	1592378	wordpools/wasnorm_wordpool.txt	LTP119	ltpFR	6	15	-1	MAPLE	866	n/a	-1	1	1.0	1.0	upper	../fonts/Verdana.ttf
3188.834	n/a	WORD	1594417	wordpools/wasnorm_wordpool.txt	LTP119	ltpFR	6	15	-1	LITTER	832	n/a	-1	1	1.0	1.0	upper	../fonts/Verdana.ttf
3192.888	n/a	WORD	1596444	wordpools/wasnorm_wordpool.txt	LTP119	ltpFR	6	15	-1	ASH	44	n/a	-1	1	1.0	1.0	upper	../fonts/Verdana.ttf
3197.024	n/a	WORD	1598512	wordpools/wasnorm_wordpool.txt	LTP119	ltpFR	6	15	-1	WIRE	1616	n/a	-1	1	1.0	1.0	upper	../fonts/Verdana.ttf
3201.07	n/a	WORD	1600535	wordpools/wasnorm_wordpool.txt	LTP119	ltpFR	6	15	-1	STADIUM	1364	n/a	-1	1	1.0	1.0	upper	../fonts/Verdana.ttf
3204.908	n/a	WORD	1602454	wordpools/wasnorm_wordpool.txt	LTP119	ltpFR	6	15	-1	PUCK	1138	n/a	-1	1	1.0	1.0	upper	../fonts/Verdana.ttf
3210.744	n/a	REC_START	1605372	n/a	LTP119	ltpFR	6	15	n/a	n/a	n/a	n/a	n/a	n/a	n/a	n/a	n/a	n/a
3211.208	n/a	REC_WORD	1605604	wordpools/wasnorm_wordpool.txt	LTP119	ltpFR	6	15	-1	PUCK	1138	n/a	-1	n/a	n/a	n/a	n/a	n/a
3211.686	n/a	REC_WORD	1605843	wordpools/wasnorm_wordpool.txt	LTP119	ltpFR	6	15	-1	STADIUM	1364	n/a	-1	n/a	n/a	n/a	n/a	n/a
3212.708	n/a	REC_WORD	1606354	wordpools/wasnorm_wordpool.txt	LTP119	ltpFR	6	15	-1	CONCERT	360	n/a	-1	n/a	n/a	n/a	n/a	n/a
3213.582	n/a	REC_WORD	1606791	wordpools/wasnorm_wordpool.txt	LTP119	ltpFR	6	15	-1	ROCK	1201	n/a	-1	n/a	n/a	n/a	n/a	n/a
3214.3	n/a	REC_WORD	1607150	wordpools/wasnorm_wordpool.txt	LTP119	ltpFR	6	15	-1	MICROPHONE	890	n/a	-1	n/a	n/a	n/a	n/a	n/a
3215.044	n/a	REC_WORD	1607522	wordpools/wasnorm_wordpool.txt	LTP119	ltpFR	6	15	-1	FLUTE	585	n/a	-1	n/a	n/a	n/a	n/a	n/a
3216.086	n/a	REC_WORD	1608043	wordpools/wasnorm_wordpool.txt	LTP119	ltpFR	6	15	-1	CORPORATION	382	n/a	-1	n/a	n/a	n/a	n/a	n/a
3217.838	n/a	REC_WORD	1608919	wordpools/wasnorm_wordpool.txt	LTP119	ltpFR	6	15	-1	VAULT	1550	n/a	-1	n/a	n/a	n/a	n/a	n/a
3218.516	n/a	REC_WORD	1609258	wordpools/wasnorm_wordpool.txt	LTP119	ltpFR	6	15	-1	PARSLEY	1016	n/a	-1	n/a	n/a	n/a	n/a	n/a
3219.418	n/a	REC_WORD	1609709	wordpools/wasnorm_wordpool.txt	LTP119	ltpFR	6	15	-1	GARDEN	623	n/a	-1	n/a	n/a	n/a	n/a	n/a
3221.06	n/a	REC_WORD	1610530	wordpools/wasnorm_wordpool.txt	LTP119	ltpFR	6	15	-1	WIRE	1616	n/a	-1	n/a	n/a	n/a	n/a	n/a
3227.974	n/a	REC_WORD	1613987	wordpools/wasnorm_wordpool.txt	LTP119	ltpFR	6	15	-1	ASH	44	n/a	-1	n/a	n/a	n/a	n/a	n/a
3309.688	n/a	WORD	1654844	wordpools/wasnorm_wordpool.txt	LTP119	ltpFR	6	16	1	LION	827	n/a	1	0	0.5869140625	0.422607421875	upper	../fonts/zerothre.ttf
3313.774	n/a	WORD	1656887	wordpools/wasnorm_wordpool.txt	LTP119	ltpFR	6	16	1	OYSTER	995	n/a	1	0	0.5869140625	0.422607421875	upper	../fonts/zerothre.ttf
3317.844	n/a	WORD	1658922	wordpools/wasnorm_wordpool.txt	LTP119	ltpFR	6	16	1	COW	393	n/a	1	0	0.5869140625	0.422607421875	upper	../fonts/zerothre.ttf
3321.65	n/a	WORD	1660825	wordpools/wasnorm_wordpool.txt	LTP119	ltpFR	6	16	0	COUGAR	387	n/a	3	1	0.412841796875	0.57763671875	lower	../fonts/amplitud.ttf
3322.514	n/a	KEY_MSG	1661257	n/a	LTP119	ltpFR	6	16	n/a	n/a	n/a	n/a	n/a	n/a	n/a	n/a	n/a	n/a
3325.686	n/a	WORD	1662843	wordpools/wasnorm_wordpool.txt	LTP119	ltpFR	6	16	0	CLAM	315	n/a	0	1	0.412841796875	0.57763671875	lower	../fonts/amplitud.ttf
3329.522	n/a	WORD	1664761	wordpools/wasnorm_wordpool.txt	LTP119	ltpFR	6	16	1	ASTRONAUT	51	n/a	1	0	0.5869140625	0.422607421875	upper	../fonts/zerothre.ttf
3333.694	n/a	WORD	1666847	wordpools/wasnorm_wordpool.txt	LTP119	ltpFR	6	16	1	MOON	914	n/a	0	0	0.5869140625	0.422607421875	upper	../fonts/zerothre.ttf
3337.538	n/a	WORD	1668769	wordpools/wasnorm_wordpool.txt	LTP119	ltpFR	6	16	1	COIN	343	n/a	0	0	0.5869140625	0.422607421875	upper	../fonts/zerothre.ttf
3341.526	n/a	WORD	1670763	wordpools/wasnorm_wordpool.txt	LTP119	ltpFR	6	16	0	ENGINEER	536	n/a	1	1	0.412841796875	0.57763671875	lower	../fonts/amplitud.ttf
3345.504	n/a	WORD	1672752	wordpools/wasnorm_wordpool.txt	LTP119	ltpFR	6	16	0	TOMBSTONE	1478	n/a	1	1	0.412841796875	0.57763671875	lower	../fonts/amplitud.ttf
3349.576	n/a	WORD	1674788	wordpools/wasnorm_wordpool.txt	LTP119	ltpFR	6	16	0	OUTDOORS	987	n/a	1	1	0.412841796875	0.57763671875	lower	../fonts/amplitud.ttf
3353.446	n/a	WORD	1676723	wordpools/wasnorm_wordpool.txt	LTP119	ltpFR	6	16	0	GENTLEMAN	631	n/a	1	1	0.412841796875	0.57763671875	lower	../fonts/amplitud.ttf
3357.44	n/a	WORD	1678720	wordpools/wasnorm_wordpool.txt	LTP119	ltpFR	6	16	0	COLT	349	n/a	0	1	0.412841796875	0.57763671875	lower	../fonts/amplitud.ttf
3361.596	n/a	WORD	1680798	wordpools/wasnorm_wordpool.txt	LTP119	ltpFR	6	16	0	STOCKING	1383	n/a	0	1	0.412841796875	0.57763671875	lower	../fonts/amplitud.ttf
3365.682	n/a	WORD	1682841	wordpools/wasnorm_wordpool.txt	LTP119	ltpFR	6	16	1	FLY	586	n/a	1	0	0.5869140625	0.422607421875	upper	../fonts/zerothre.ttf
3369.494	n/a	WORD	1684747	wordpools/wasnorm_wordpool.txt	LTP119	ltpFR	6	16	1	HELICOPTER	701	n/a	0	0	0.5869140625	0.422607421875	upper	../fonts/zerothre.ttf
3375.196	n/a	REC_START	1687598	n/a	LTP119	ltpFR	6	16	n/a	n/a	n/a	n/a	n/a	n/a	n/a	n/a	n/a	n/a
3375.57	n/a	REC_WORD	1687785	wordpools/wasnorm_wordpool.txt	LTP119	ltpFR	6	16	1	HELICOPTER	701	n/a	0	n/a	n/a	n/a	n/a	n/a
3376.478	n/a	REC_WORD	1688239	wordpools/wasnorm_wordpool.txt	LTP119	ltpFR	6	16	1	ASTRONAUT	51	n/a	1	n/a	n/a	n/a	n/a	n/a
3377.352	n/a	REC_WORD	1688676	wordpools/wasnorm_wordpool.txt	LTP119	ltpFR	6	16	1	COIN	343	n/a	0	n/a	n/a	n/a	n/a	n/a
3378.31	n/a	REC_WORD	1689155	wordpools/wasnorm_wordpool.txt	LTP119	ltpFR	6	16	1	MOON	914	n/a	0	n/a	n/a	n/a	n/a	n/a
3379.292	n/a	REC_WORD	1689646	wordpools/wasnorm_wordpool.txt	LTP119	ltpFR	6	16	1	COW	393	n/a	1	n/a	n/a	n/a	n/a	n/a
3380.274	n/a	REC_WORD	1690137	wordpools/wasnorm_wordpool.txt	LTP119	ltpFR	6	16	0	CLAM	315	n/a	0	n/a	n/a	n/a	n/a	n/a
3381.486	n/a	REC_WORD	1690743	wordpools/wasnorm_wordpool.txt	LTP119	ltpFR	6	16	0	COLT	349	n/a	0	n/a	n/a	n/a	n/a	n/a
3387.698	n/a	REC_WORD	1693849	wordpools/wasnorm_wordpool.txt	LTP119	ltpFR	6	16	0	COUGAR	387	n/a	3	n/a	n/a	n/a	n/a	n/a
3399.886	n/a	REC_WORD	1699943	wordpools/wasnorm_wordpool.txt	LTP119	ltpFR	6	16	0	ENGINEER	536	n/a	1	n/a	n/a	n/a	n/a	n/a
3404.664	n/a	REC_WORD	1702332	wordpools/wasnorm_wordpool.txt	LTP119	ltpFR	6	16	0	STOCKING	1383	n/a	0	n/a	n/a	n/a	n/a	n/a
3445.018	n/a	REC_WORD	1722509	wordpools/wasnorm_wordpool.txt	LTP119	ltpFR	6	16	0	TOMBSTONE	1478	n/a	1	n/a	n/a	n/a	n/a	n/a
3473.7	n/a	REC_START	1736850	n/a	LTP119	ltpFR	6	n/a	n/a	n/a	n/a	n/a	n/a	n/a	n/a	n/a	n/a	n/a
3474.224	n/a	FFR_REC_WORD	1737112	wordpools/wasnorm_wordpool.txt	LTP119	ltpFR	6	n/a	1	HELICOPTER	701	n/a	0	n/a	n/a	n/a	n/a	n/a
3475.326	n/a	FFR_REC_WORD	1737663	wordpools/wasnorm_wordpool.txt	LTP119	ltpFR	6	n/a	1	COIN	343	n/a	0	n/a	n/a	n/a	n/a	n/a
3476.308	n/a	FFR_REC_WORD	1738154	wordpools/wasnorm_wordpool.txt	LTP119	ltpFR	6	n/a	1	ASTRONAUT	51	n/a	1	n/a	n/a	n/a	n/a	n/a
3477.606	n/a	FFR_REC_WORD	1738803	wordpools/wasnorm_wordpool.txt	LTP119	ltpFR	6	n/a	1	MOON	914	n/a	0	n/a	n/a	n/a	n/a	n/a
3478.912	n/a	FFR_REC_WORD	1739456	wordpools/wasnorm_wordpool.txt	LTP119	ltpFR	6	n/a	0	QUAIL	1147	n/a	0	n/a	n/a	n/a	n/a	n/a
3480.608	n/a	FFR_REC_WORD	1740304	wordpools/wasnorm_wordpool.txt	LTP119	ltpFR	6	n/a	1	COW	393	n/a	1	n/a	n/a	n/a	n/a	n/a
3481.632	n/a	FFR_REC_WORD	1740816	wordpools/wasnorm_wordpool.txt	LTP119	ltpFR	6	n/a	0	CLAM	315	n/a	0	n/a	n/a	n/a	n/a	n/a
3482.914	n/a	FFR_REC_WORD	1741457	wordpools/wasnorm_wordpool.txt	LTP119	ltpFR	6	n/a	0	COUGAR	387	n/a	3	n/a	n/a	n/a	n/a	n/a
3484.23	n/a	FFR_REC_WORD	1742115	wordpools/wasnorm_wordpool.txt	LTP119	ltpFR	6	n/a	0	COLT	349	n/a	0	n/a	n/a	n/a	n/a	n/a
3486.694	n/a	FFR_REC_WORD	1743347	wordpools/wasnorm_wordpool.txt	LTP119	ltpFR	6	n/a	1	RECEPTIONIST	1174	n/a	1	n/a	n/a	n/a	n/a	n/a
3488.012	n/a	FFR_REC_WORD	1744006	wordpools/wasnorm_wordpool.txt	LTP119	ltpFR	6	n/a	1	SECRETARY	1265	n/a	1	n/a	n/a	n/a	n/a	n/a
3503.172	n/a	FFR_REC_WORD	1751586	wordpools/wasnorm_wordpool.txt	LTP119	ltpFR	6	n/a	1	MOON	914	n/a	0	n/a	n/a	n/a	n/a	n/a
3504.964	n/a	FFR_REC_WORD	1752482	wordpools/wasnorm_wordpool.txt	LTP119	ltpFR	6	n/a	1	ASTRONAUT	51	n/a	1	n/a	n/a	n/a	n/a	n/a
3505.98	n/a	FFR_REC_WORD	1752990	wordpools/wasnorm_wordpool.txt	LTP119	ltpFR	6	n/a	0	JUPITER	765	n/a	1	n/a	n/a	n/a	n/a	n/a
3507.204	n/a	FFR_REC_WORD	1753602	wordpools/wasnorm_wordpool.txt	LTP119	ltpFR	6	n/a	0	EARTH	515	n/a	1	n/a	n/a	n/a	n/a	n/a
3508.176	n/a	FFR_REC_WORD	1754088	wordpools/wasnorm_wordpool.txt	LTP119	ltpFR	6	n/a	1	LAGOON	795	n/a	0	n/a	n/a	n/a	n/a	n/a
3514.786	n/a	FFR_REC_WORD	1757393	wordpools/wasnorm_wordpool.txt	LTP119	ltpFR	6	n/a	1	DISHWASHER	475	n/a	0	n/a	n/a	n/a	n/a	n/a
3515.844	n/a	FFR_REC_WORD	1757922	wordpools/wasnorm_wordpool.txt	LTP119	ltpFR	6	n/a	1	MACHINE	852	n/a	0	n/a	n/a	n/a	n/a	n/a
3517.0	n/a	FFR_REC_WORD	1758500	wordpools/wasnorm_wordpool.txt	LTP119	ltpFR	6	n/a	0	ENGINEER	536	n/a	1	n/a	n/a	n/a	n/a	n/a
3520.338	n/a	FFR_REC_WORD	1760169	wordpools/wasnorm_wordpool.txt	LTP119	ltpFR	6	n/a	1	PRIEST	1122	n/a	1	n/a	n/a	n/a	n/a	n/a
3521.51	n/a	FFR_REC_WORD	1760755	wordpools/wasnorm_wordpool.txt	LTP119	ltpFR	6	n/a	1	PREACHER	1119	n/a	0	n/a	n/a	n/a	n/a	n/a
3524.824	n/a	FFR_REC_WORD	1762412	wordpools/wasnorm_wordpool.txt	LTP119	ltpFR	6	n/a	-1	WEED	1599	n/a	-1	n/a	n/a	n/a	n/a	n/a
3543.946	n/a	FFR_REC_WORD	1771973	wordpools/wasnorm_wordpool.txt	LTP119	ltpFR	6	n/a	1	COIN	343	n/a	0	n/a	n/a	n/a	n/a	n/a
3551.478	n/a	FFR_REC_WORD	1775739	wordpools/wasnorm_wordpool.txt	LTP119	ltpFR	6	n/a	-1	CONCERT	360	n/a	-1	n/a	n/a	n/a	n/a	n/a
3553.384	n/a	FFR_REC_WORD	1776692	wordpools/wasnorm_wordpool.txt	LTP119	ltpFR	6	n/a	-1	ROCK	1201	n/a	-1	n/a	n/a	n/a	n/a	n/a
3554.476	n/a	FFR_REC_WORD	1777238	wordpools/wasnorm_wordpool.txt	LTP119	ltpFR	6	n/a	-1	FLUTE	585	n/a	-1	n/a	n/a	n/a	n/a	n/a
3555.544	n/a	FFR_REC_WORD	1777772	wordpools/wasnorm_wordpool.txt	LTP119	ltpFR	6	n/a	0	TRUMPET	1513	n/a	0	n/a	n/a	n/a	n/a	n/a
3556.826	n/a	FFR_REC_WORD	1778413	wordpools/wasnorm_wordpool.txt	LTP119	ltpFR	6	n/a	0	TROMBONE	1508	n/a	0	n/a	n/a	n/a	n/a	n/a
3559.774	n/a	FFR_REC_WORD	1779887	wordpools/wasnorm_wordpool.txt	LTP119	ltpFR	6	n/a	-1	MICROPHONE	890	n/a	-1	n/a	n/a	n/a	n/a	n/a
3563.586	n/a	FFR_REC_WORD	1781793	wordpools/wasnorm_wordpool.txt	LTP119	ltpFR	6	n/a	0	FRAGRANCE	599	n/a	0	n/a	n/a	n/a	n/a	n/a
3564.704	n/a	FFR_REC_WORD	1782352	wordpools/wasnorm_wordpool.txt	LTP119	ltpFR	6	n/a	0	PERFUME	1049	n/a	0	n/a	n/a	n/a	n/a	n/a
3571.234	n/a	FFR_REC_WORD	1785617	wordpools/wasnorm_wordpool.txt	LTP119	ltpFR	6	n/a	-1	BUTTON	207	n/a	-1	n/a	n/a	n/a	n/a	n/a
3583.84	n/a	FFR_REC_WORD	1791920	wordpools/wasnorm_wordpool.txt	LTP119	ltpFR	6	n/a	1	INFANT	737	n/a	1	n/a	n/a	n/a	n/a	n/a
3584.902	n/a	FFR_REC_WORD	1792451	wordpools/wasnorm_wordpool.txt	LTP119	ltpFR	6	n/a	1	CHILD	299	n/a	1	n/a	n/a	n/a	n/a	n/a
3590.83	n/a	FFR_REC_WORD	1795415	wordpools/wasnorm_wordpool.txt	LTP119	ltpFR	6	n/a	-1	SEA	1259	n/a	-1	n/a	n/a	n/a	n/a	n/a
3598.082	n/a	FFR_REC_WORD	1799041	wordpools/wasnorm_wordpool.txt	LTP119	ltpFR	6	n/a	0	BAKER	71	n/a	1	n/a	n/a	n/a	n/a	n/a
3599.794	n/a	FFR_REC_WORD	1799897	wordpools/wasnorm_wordpool.txt	LTP119	ltpFR	6	n/a	0	LOAF	835	n/a	0	n/a	n/a	n/a	n/a	n/a
3601.624	n/a	FFR_REC_WORD	1800812	wordpools/wasnorm_wordpool.txt	LTP119	ltpFR	6	n/a	-1	PARSLEY	1016	n/a	-1	n/a	n/a	n/a	n/a	n/a
3603.012	n/a	FFR_REC_WORD	1801506	wordpools/wasnorm_wordpool.txt	LTP119	ltpFR	6	n/a	-1	GARDEN	623	n/a	-1	n/a	n/a	n/a	n/a	n/a
3615.474	n/a	FFR_REC_WORD	1807737	wordpools/wasnorm_wordpool.txt	LTP119	ltpFR	6	n/a	0	CLAM	315	n/a	0	n/a	n/a	n/a	n/a	n/a
3617.42	n/a	FFR_REC_WORD	1808710	wordpools/wasnorm_wordpool.txt	LTP119	ltpFR	6	n/a	1	COW	393	n/a	1	n/a	n/a	n/a	n/a	n/a
3636.706	n/a	FFR_REC_WORD	1818353	wordpools/wasnorm_wordpool.txt	LTP119	ltpFR	6	n/a	0	LODGE	839	n/a	1	n/a	n/a	n/a	n/a	n/a
3638.356	n/a	FFR_REC_WORD	1819178	wordpools/wasnorm_wordpool.txt	LTP119	ltpFR	6	n/a	n/a	FORTRESS	-1	n/a	n/a	n/a	n/a	n/a	n/a	n/a
3669.466	n/a	FFR_REC_WORD	1834733	wordpools/wasnorm_wordpool.txt	LTP119	ltpFR	6	n/a	0	TEAPOT	1442	n/a	0	n/a	n/a	n/a	n/a	n/a
3671.122	n/a	FFR_REC_WORD	1835561	wordpools/wasnorm_wordpool.txt	LTP119	ltpFR	6	n/a	1	TREE	1502	n/a	0	n/a	n/a	n/a	n/a	n/a
3672.016	n/a	FFR_REC_WORD	1836008	wordpools/wasnorm_wordpool.txt	LTP119	ltpFR	6	n/a	0	ROOT	1210	n/a	0	n/a	n/a	n/a	n/a	n/a
3672.804	n/a	FFR_REC_WORD	1836402	wordpools/wasnorm_wordpool.txt	LTP119	ltpFR	6	n/a	1	RADISH	1158	n/a	1	n/a	n/a	n/a	n/a	n/a
3678.366	n/a	FFR_REC_WORD	1839183	wordpools/wasnorm_wordpool.txt	LTP119	ltpFR	6	n/a	0	TIE	1466	n/a	0	n/a	n/a	n/a	n/a	n/a
3680.62	n/a	FFR_REC_WORD	1840310	wordpools/wasnorm_wordpool.txt	LTP119	ltpFR	6	n/a	-1	FLANNEL	574	n/a	-1	n/a	n/a	n/a	n/a	n/a
3681.758	n/a	FFR_REC_WORD	1840879	wordpools/wasnorm_wordpool.txt	LTP119	ltpFR	6	n/a	-1	POLYESTER	1100	n/a	-1	n/a	n/a	n/a	n/a	n/a
3690.198	n/a	FFR_REC_WORD	1845099	wordpools/wasnorm_wordpool.txt	LTP119	ltpFR	6	n/a	-1	ZEBRA	1635	n/a	-1	n/a	n/a	n/a	n/a	n/a
3705.146	n/a	FFR_REC_WORD	1852573	wordpools/wasnorm_wordpool.txt	LTP119	ltpFR	6	n/a	1	ARTICLE	42	n/a	0	n/a	n/a	n/a	n/a	n/a
3716.914	n/a	FFR_REC_WORD	1858457	wordpools/wasnorm_wordpool.txt	LTP119	ltpFR	6	n/a	-1	OZONE	996	n/a	-1	n/a	n/a	n/a	n/a	n/a
3727.046	n/a	FFR_REC_WORD	1863523	wordpools/wasnorm_wordpool.txt	LTP119	ltpFR	6	n/a	1	FLY	586	n/a	1	n/a	n/a	n/a	n/a	n/a
3727.8	n/a	FFR_REC_WORD	1863900	wordpools/wasnorm_wordpool.txt	LTP119	ltpFR	6	n/a	1	MOSQUITO	917	n/a	1	n/a	n/a	n/a	n/a	n/a
3728.648	n/a	FFR_REC_WORD	1864324	wordpools/wasnorm_wordpool.txt	LTP119	ltpFR	6	n/a	1	SPIDER	1351	n/a	1	n/a	n/a	n/a	n/a	n/a
3734.854	n/a	FFR_REC_WORD	1867427	wordpools/wasnorm_wordpool.txt	LTP119	ltpFR	6	n/a	1	SKUNK	1321	n/a	1	n/a	n/a	n/a	n/a	n/a
3761.174	n/a	FFR_REC_WORD	1880587	wordpools/wasnorm_wordpool.txt	LTP119	ltpFR	6	n/a	0	ANIMAL	23	n/a	0	n/a	n/a	n/a	n/a	n/a
3770.982	n/a	FFR_REC_WORD	1885491	wordpools/wasnorm_wordpool.txt	LTP119	ltpFR	6	n/a	-1	MONK	910	n/a	-1	n/a	n/a	n/a	n/a	n/a
3771.676	n/a	FFR_REC_WORD	1885838	wordpools/wasnorm_wordpool.txt	LTP119	ltpFR	6	n/a	-1	MONARCH	906	n/a	-1	n/a	n/a	n/a	n/a	n/a
3772.438	n/a	FFR_REC_WORD	1886219	wordpools/wasnorm_wordpool.txt	LTP119	ltpFR	6	n/a	-1	EMPEROR	529	n/a	-1	n/a	n/a	n/a	n/a	n/a
3800.442	n/a	REC_START	1900221	n/a	LTP119	ltpFR	6	1	n/a	n/a	n/a	n/a	n/a	n/a	n/a	n/a	n/a	n/a
3800.466	n/a	RECOG_TARGET	1900233	n/a	LTP119	ltpFR	6	1	1	ZOO	1637	4	1	n/a	n/a	n/a	n/a	n/a
3802.108	n/a	RECOG_RESP	1901054	n/a	LTP119	ltpFR	6	1	1	ZOO	1637	n/a	1	n/a	n/a	n/a	n/a	n/a
3803.52	n/a	RECOG_CONF	1901760	n/a	LTP119	ltpFR	6	1	1	ZOO	1637	4	1	n/a	n/a	n/a	n/a	n/a
3805.11	n/a	RECOG_TARGET	1902555	n/a	LTP119	ltpFR	6	1	1	CHEST	295	5	0	n/a	n/a	n/a	n/a	n/a
3805.73	n/a	RECOG_RESP	1902865	n/a	LTP119	ltpFR	6	1	1	CHEST	295	n/a	0	n/a	n/a	n/a	n/a	n/a
3806.432	n/a	RECOG_CONF	1903216	n/a	LTP119	ltpFR	6	1	1	CHEST	295	5	0	n/a	n/a	n/a	n/a	n/a
3807.858	n/a	RECOG_TARGET	1903929	n/a	LTP119	ltpFR	6	1	1	CHILD	299	5	1	n/a	n/a	n/a	n/a	n/a
3808.404	n/a	RECOG_RESP	1904202	n/a	LTP119	ltpFR	6	1	1	CHILD	299	n/a	1	n/a	n/a	n/a	n/a	n/a
3809.176	n/a	RECOG_CONF	1904588	n/a	LTP119	ltpFR	6	1	1	CHILD	299	5	1	n/a	n/a	n/a	n/a	n/a
3810.58	n/a	RECOG_TARGET	1905290	n/a	LTP119	ltpFR	6	1	0	STALLION	1369	5	1	n/a	n/a	n/a	n/a	n/a
3811.176	n/a	RECOG_RESP	1905588	n/a	LTP119	ltpFR	6	1	0	STALLION	1369	n/a	1	n/a	n/a	n/a	n/a	n/a
3811.86	n/a	RECOG_CONF	1905930	n/a	LTP119	ltpFR	6	1	0	STALLION	1369	5	1	n/a	n/a	n/a	n/a	n/a
3813.276	n/a	RECOG_TARGET	1906638	n/a	LTP119	ltpFR	6	1	1	INCENSE	735	5	0	n/a	n/a	n/a	n/a	n/a
3813.956	n/a	RECOG_RESP	1906978	n/a	LTP119	ltpFR	6	1	1	INCENSE	735	n/a	0	n/a	n/a	n/a	n/a	n/a
3814.574	n/a	RECOG_CONF	1907287	n/a	LTP119	ltpFR	6	1	1	INCENSE	735	5	0	n/a	n/a	n/a	n/a	n/a
3816.114	n/a	RECOG_TARGET	1908057	n/a	LTP119	ltpFR	6	1	0	VEAL	1551	5	1	n/a	n/a	n/a	n/a	n/a
3816.62	n/a	RECOG_RESP	1908310	n/a	LTP119	ltpFR	6	1	0	VEAL	1551	n/a	1	n/a	n/a	n/a	n/a	n/a
3817.268	n/a	RECOG_CONF	1908634	n/a	LTP119	ltpFR	6	1	0	VEAL	1551	5	1	n/a	n/a	n/a	n/a	n/a
3818.63	n/a	RECOG_TARGET	1909315	n/a	LTP119	ltpFR	6	1	1	SALMON	1227	4	1	n/a	n/a	n/a	n/a	n/a
3819.164	n/a	RECOG_RESP	1909582	n/a	LTP119	ltpFR	6	1	1	SALMON	1227	n/a	1	n/a	n/a	n/a	n/a	n/a
3819.742	n/a	RECOG_CONF	1909871	n/a	LTP119	ltpFR	6	1	1	SALMON	1227	4	1	n/a	n/a	n/a	n/a	n/a
3821.216	n/a	RECOG_TARGET	1910608	n/a	LTP119	ltpFR	6	1	1	SILVERWARE	1308	5	0	n/a	n/a	n/a	n/a	n/a
3821.802	n/a	RECOG_RESP	1910901	n/a	LTP119	ltpFR	6	1	1	SILVERWARE	1308	n/a	0	n/a	n/a	n/a	n/a	n/a
3822.406	n/a	RECOG_CONF	1911203	n/a	LTP119	ltpFR	6	1	1	SILVERWARE	1308	5	0	n/a	n/a	n/a	n/a	n/a
3823.864	n/a	RECOG_TARGET	1911932	n/a	LTP119	ltpFR	6	1	-1	SEA	1259	5	-1	n/a	n/a	n/a	n/a	n/a
3824.352	n/a	RECOG_RESP	1912176	n/a	LTP119	ltpFR	6	1	-1	SEA	1259	n/a	-1	n/a	n/a	n/a	n/a	n/a
3824.96	n/a	RECOG_CONF	1912480	n/a	LTP119	ltpFR	6	1	-1	SEA	1259	5	-1	n/a	n/a	n/a	n/a	n/a
3826.394	n/a	RECOG_TARGET	1913197	n/a	LTP119	ltpFR	6	1	1	ANT	25	2	1	n/a	n/a	n/a	n/a	n/a
3826.846	n/a	RECOG_RESP	1913423	n/a	LTP119	ltpFR	6	1	1	ANT	25	n/a	1	n/a	n/a	n/a	n/a	n/a
3827.764	n/a	RECOG_CONF	1913882	n/a	LTP119	ltpFR	6	1	1	ANT	25	2	1	n/a	n/a	n/a	n/a	n/a
3829.142	n/a	RECOG_TARGET	1914571	n/a	LTP119	ltpFR	6	1	-1	PADDING	999	5	-1	n/a	n/a	n/a	n/a	n/a
3829.994	n/a	RECOG_RESP	1914997	n/a	LTP119	ltpFR	6	1	-1	PADDING	999	n/a	-1	n/a	n/a	n/a	n/a	n/a
3830.588	n/a	RECOG_CONF	1915294	n/a	LTP119	ltpFR	6	1	-1	PADDING	999	5	-1	n/a	n/a	n/a	n/a	n/a
3832.046	n/a	RECOG_LURE	1916023	n/a	LTP119	ltpFR	6	1	n/a	UMBRELLA	1534	1	n/a	n/a	n/a	n/a	n/a	n/a
3833.566	n/a	RECOG_RESP	1916783	n/a	LTP119	ltpFR	6	1	n/a	UMBRELLA	1534	n/a	n/a	n/a	n/a	n/a	n/a	n/a
3834.37	n/a	RECOG_CONF	1917185	n/a	LTP119	ltpFR	6	1	n/a	UMBRELLA	1534	1	n/a	n/a	n/a	n/a	n/a	n/a
3835.85	n/a	RECOG_TARGET	1917925	n/a	LTP119	ltpFR	6	1	0	OCEAN	970	4	1	n/a	n/a	n/a	n/a	n/a
3836.804	n/a	RECOG_RESP	1918402	n/a	LTP119	ltpFR	6	1	0	OCEAN	970	n/a	1	n/a	n/a	n/a	n/a	n/a
3838.09	n/a	RECOG_CONF	1919045	n/a	LTP119	ltpFR	6	1	0	OCEAN	970	4	1	n/a	n/a	n/a	n/a	n/a
3839.47	n/a	RECOG_TARGET	1919735	n/a	LTP119	ltpFR	6	1	0	QUAIL	1147	5	0	n/a	n/a	n/a	n/a	n/a
3840.016	n/a	RECOG_RESP	1920008	n/a	LTP119	ltpFR	6	1	0	QUAIL	1147	n/a	0	n/a	n/a	n/a	n/a	n/a
3840.624	n/a	RECOG_CONF	1920312	n/a	LTP119	ltpFR	6	1	0	QUAIL	1147	5	0	n/a	n/a	n/a	n/a	n/a
3842.052	n/a	RECOG_TARGET	1921026	n/a	LTP119	ltpFR	6	1	1	POLICE	1098	5	1	n/a	n/a	n/a	n/a	n/a
3842.616	n/a	RECOG_RESP	1921308	n/a	LTP119	ltpFR	6	1	1	POLICE	1098	n/a	1	n/a	n/a	n/a	n/a	n/a
3843.26	n/a	RECOG_CONF	1921630	n/a	LTP119	ltpFR	6	1	1	POLICE	1098	5	1	n/a	n/a	n/a	n/a	n/a
3844.682	n/a	RECOG_TARGET	1922341	n/a	LTP119	ltpFR	6	1	1	GOWN	652	5	0	n/a	n/a	n/a	n/a	n/a
3845.134	n/a	RECOG_RESP	1922567	n/a	LTP119	ltpFR	6	1	1	GOWN	652	n/a	0	n/a	n/a	n/a	n/a	n/a
3845.734	n/a	RECOG_CONF	1922867	n/a	LTP119	ltpFR	6	1	1	GOWN	652	5	0	n/a	n/a	n/a	n/a	n/a
3847.204	n/a	RECOG_LURE	1923602	n/a	LTP119	ltpFR	6	1	n/a	CREVICE	405	5	n/a	n/a	n/a	n/a	n/a	n/a
3847.818	n/a	RECOG_RESP	1923909	n/a	LTP119	ltpFR	6	1	n/a	CREVICE	405	n/a	n/a	n/a	n/a	n/a	n/a	n/a
3848.498	n/a	RECOG_CONF	1924249	n/a	LTP119	ltpFR	6	1	n/a	CREVICE	405	5	n/a	n/a	n/a	n/a	n/a	n/a
3849.992	n/a	RECOG_TARGET	1924996	n/a	LTP119	ltpFR	6	1	1	COW	393	5	1	n/a	n/a	n/a	n/a	n/a
3850.372	n/a	RECOG_RESP	1925186	n/a	LTP119	ltpFR	6	1	1	COW	393	n/a	1	n/a	n/a	n/a	n/a	n/a
3850.932	n/a	RECOG_CONF	1925466	n/a	LTP119	ltpFR	6	1	1	COW	393	5	1	n/a	n/a	n/a	n/a	n/a
3852.356	n/a	RECOG_LURE	1926178	n/a	LTP119	ltpFR	6	1	n/a	PIANO	1057	5	n/a	n/a	n/a	n/a	n/a	n/a
3853.222	n/a	RECOG_RESP	1926611	n/a	LTP119	ltpFR	6	1	n/a	PIANO	1057	n/a	n/a	n/a	n/a	n/a	n/a	n/a
3853.934	n/a	RECOG_CONF	1926967	n/a	LTP119	ltpFR	6	1	n/a	PIANO	1057	5	n/a	n/a	n/a	n/a	n/a	n/a
3855.418	n/a	RECOG_TARGET	1927709	n/a	LTP119	ltpFR	6	1	0	SACK	1220	4	0	n/a	n/a	n/a	n/a	n/a
3856.0	n/a	RECOG_RESP	1928000	n/a	LTP119	ltpFR	6	1	0	SACK	1220	n/a	0	n/a	n/a	n/a	n/a	n/a
3856.628	n/a	RECOG_CONF	1928314	n/a	LTP119	ltpFR	6	1	0	SACK	1220	4	0	n/a	n/a	n/a	n/a	n/a
3860.028	n/a	REC_START	1930014	n/a	LTP119	ltpFR	6	2	n/a	n/a	n/a	n/a	n/a	n/a	n/a	n/a	n/a	n/a
3860.056	n/a	RECOG_LURE	1930028	n/a	LTP119	ltpFR	6	2	n/a	MOB	904	5	n/a	n/a	n/a	n/a	n/a	n/a
3860.75	n/a	RECOG_RESP	1930375	n/a	LTP119	ltpFR	6	2	n/a	MOB	904	n/a	n/a	n/a	n/a	n/a	n/a	n/a
3861.4	n/a	RECOG_CONF	1930700	n/a	LTP119	ltpFR	6	2	n/a	MOB	904	5	n/a	n/a	n/a	n/a	n/a	n/a
3862.918	n/a	RECOG_LURE	1931459	n/a	LTP119	ltpFR	6	2	n/a	SCARECROW	1245	5	n/a	n/a	n/a	n/a	n/a	n/a
3863.614	n/a	RECOG_RESP	1931807	n/a	LTP119	ltpFR	6	2	n/a	SCARECROW	1245	n/a	n/a	n/a	n/a	n/a	n/a	n/a
3864.272	n/a	RECOG_CONF	1932136	n/a	LTP119	ltpFR	6	2	n/a	SCARECROW	1245	5	n/a	n/a	n/a	n/a	n/a	n/a
3865.658	n/a	RECOG_LURE	1932829	n/a	LTP119	ltpFR	6	2	n/a	KANGAROO	768	5	n/a	n/a	n/a	n/a	n/a	n/a
3866.19	n/a	RECOG_RESP	1933095	n/a	LTP119	ltpFR	6	2	n/a	KANGAROO	768	n/a	n/a	n/a	n/a	n/a	n/a	n/a
3866.818	n/a	RECOG_CONF	1933409	n/a	LTP119	ltpFR	6	2	n/a	KANGAROO	768	5	n/a	n/a	n/a	n/a	n/a	n/a
3868.246	n/a	RECOG_LURE	1934123	n/a	LTP119	ltpFR	6	2	n/a	JELLY	755	4	n/a	n/a	n/a	n/a	n/a	n/a
3868.788	n/a	RECOG_RESP	1934394	n/a	LTP119	ltpFR	6	2	n/a	JELLY	755	n/a	n/a	n/a	n/a	n/a	n/a	n/a
3869.452	n/a	RECOG_CONF	1934726	n/a	LTP119	ltpFR	6	2	n/a	JELLY	755	4	n/a	n/a	n/a	n/a	n/a	n/a
3870.844	n/a	RECOG_TARGET	1935422	n/a	LTP119	ltpFR	6	2	0	WORKER	1621	4	1	n/a	n/a	n/a	n/a	n/a
3871.358	n/a	RECOG_RESP_VV	1935679	n/a	LTP119	ltpFR	6	2	0	WORKER	1621	n/a	1	n/a	n/a	n/a	n/a	n/a
3872.42	n/a	RECOG_RESP	1936210	n/a	LTP119	ltpFR	6	2	0	WORKER	1621	n/a	1	n/a	n/a	n/a	n/a	n/a
3873.264	n/a	RECOG_CONF	1936632	n/a	LTP119	ltpFR	6	2	0	WORKER	1621	4	1	n/a	n/a	n/a	n/a	n/a
3874.714	n/a	RECOG_TARGET	1937357	n/a	LTP119	ltpFR	6	2	1	MICROWAVE	892	5	0	n/a	n/a	n/a	n/a	n/a
3875.174	n/a	RECOG_RESP	1937587	n/a	LTP119	ltpFR	6	2	1	MICROWAVE	892	n/a	0	n/a	n/a	n/a	n/a	n/a
3875.888	n/a	RECOG_CONF	1937944	n/a	LTP119	ltpFR	6	2	1	MICROWAVE	892	5	0	n/a	n/a	n/a	n/a	n/a
3877.394	n/a	RECOG_TARGET	1938697	n/a	LTP119	ltpFR	6	2	1	BRIEFCASE	175	5	0	n/a	n/a	n/a	n/a	n/a
3877.928	n/a	RECOG_RESP	1938964	n/a	LTP119	ltpFR	6	2	1	BRIEFCASE	175	n/a	0	n/a	n/a	n/a	n/a	n/a
3878.502	n/a	RECOG_CONF	1939251	n/a	LTP119	ltpFR	6	2	1	BRIEFCASE	175	5	0	n/a	n/a	n/a	n/a	n/a
3880.008	n/a	RECOG_LURE	1940004	n/a	LTP119	ltpFR	6	2	n/a	REINDEER	1181	5	n/a	n/a	n/a	n/a	n/a	n/a
3880.616	n/a	RECOG_RESP	1940308	n/a	LTP119	ltpFR	6	2	n/a	REINDEER	1181	n/a	n/a	n/a	n/a	n/a	n/a	n/a
3881.226	n/a	RECOG_CONF	1940613	n/a	LTP119	ltpFR	6	2	n/a	REINDEER	1181	5	n/a	n/a	n/a	n/a	n/a	n/a
3882.754	n/a	RECOG_TARGET	1941377	n/a	LTP119	ltpFR	6	2	-1	LITTER	832	5	-1	n/a	n/a	n/a	n/a	n/a
3883.684	n/a	RECOG_RESP	1941842	n/a	LTP119	ltpFR	6	2	-1	LITTER	832	n/a	-1	n/a	n/a	n/a	n/a	n/a
3884.408	n/a	RECOG_CONF	1942204	n/a	LTP119	ltpFR	6	2	-1	LITTER	832	5	-1	n/a	n/a	n/a	n/a	n/a
3885.884	n/a	RECOG_TARGET	1942942	n/a	LTP119	ltpFR	6	2	-1	WIRE	1616	5	-1	n/a	n/a	n/a	n/a	n/a
3886.428	n/a	RECOG_RESP	1943214	n/a	LTP119	ltpFR	6	2	-1	WIRE	1616	n/a	-1	n/a	n/a	n/a	n/a	n/a
3887.092	n/a	RECOG_CONF	1943546	n/a	LTP119	ltpFR	6	2	-1	WIRE	1616	5	-1	n/a	n/a	n/a	n/a	n/a
3888.608	n/a	RECOG_TARGET	1944304	n/a	LTP119	ltpFR	6	2	-1	DRINK	498	1	-1	n/a	n/a	n/a	n/a	n/a
3889.466	n/a	RECOG_RESP	1944733	n/a	LTP119	ltpFR	6	2	-1	DRINK	498	n/a	-1	n/a	n/a	n/a	n/a	n/a
3890.464	n/a	RECOG_CONF	1945232	n/a	LTP119	ltpFR	6	2	-1	DRINK	498	1	-1	n/a	n/a	n/a	n/a	n/a
3891.96	n/a	RECOG_TARGET	1945980	n/a	LTP119	ltpFR	6	2	1	GRILL	661	4	0	n/a	n/a	n/a	n/a	n/a
3892.47	n/a	RECOG_RESP	1946235	n/a	LTP119	ltpFR	6	2	1	GRILL	661	n/a	0	n/a	n/a	n/a	n/a	n/a
3893.776	n/a	RECOG_CONF	1946888	n/a	LTP119	ltpFR	6	2	1	GRILL	661	4	0	n/a	n/a	n/a	n/a	n/a
3895.332	n/a	RECOG_TARGET	1947666	n/a	LTP119	ltpFR	6	2	1	TROUT	1511	4	1	n/a	n/a	n/a	n/a	n/a
3896.66	n/a	RECOG_RESP	1948330	n/a	LTP119	ltpFR	6	2	1	TROUT	1511	n/a	1	n/a	n/a	n/a	n/a	n/a
3897.298	n/a	RECOG_CONF	1948649	n/a	LTP119	ltpFR	6	2	1	TROUT	1511	4	1	n/a	n/a	n/a	n/a	n/a
3898.912	n/a	RECOG_TARGET	1949456	n/a	LTP119	ltpFR	6	2	0	SURGEON	1413	1	1	n/a	n/a	n/a	n/a	n/a
3900.082	n/a	RECOG_RESP	1950041	n/a	LTP119	ltpFR	6	2	0	SURGEON	1413	n/a	1	n/a	n/a	n/a	n/a	n/a
3900.9	n/a	RECOG_CONF	1950450	n/a	LTP119	ltpFR	6	2	0	SURGEON	1413	1	1	n/a	n/a	n/a	n/a	n/a
3902.316	n/a	RECOG_LURE	1951158	n/a	LTP119	ltpFR	6	2	n/a	ELEPHANT	523	4	n/a	n/a	n/a	n/a	n/a	n/a
3903.076	n/a	RECOG_RESP	1951538	n/a	LTP119	ltpFR	6	2	n/a	ELEPHANT	523	n/a	n/a	n/a	n/a	n/a	n/a	n/a
3903.864	n/a	RECOG_CONF	1951932	n/a	LTP119	ltpFR	6	2	n/a	ELEPHANT	523	4	n/a	n/a	n/a	n/a	n/a	n/a
3905.328	n/a	RECOG_TARGET	1952664	n/a	LTP119	ltpFR	6	2	-1	CORPORATION	382	5	-1	n/a	n/a	n/a	n/a	n/a
3905.9	n/a	RECOG_RESP	1952950	n/a	LTP119	ltpFR	6	2	-1	CORPORATION	382	n/a	-1	n/a	n/a	n/a	n/a	n/a
3906.418	n/a	RECOG_CONF	1953209	n/a	LTP119	ltpFR	6	2	-1	CORPORATION	382	5	-1	n/a	n/a	n/a	n/a	n/a
3907.908	n/a	RECOG_TARGET	1953954	n/a	LTP119	ltpFR	6	2	-1	BEE	112	5	-1	n/a	n/a	n/a	n/a	n/a
3908.388	n/a	RECOG_RESP	1954194	n/a	LTP119	ltpFR	6	2	-1	BEE	112	n/a	-1	n/a	n/a	n/a	n/a	n/a
3909.022	n/a	RECOG_CONF	1954511	n/a	LTP119	ltpFR	6	2	-1	BEE	112	5	-1	n/a	n/a	n/a	n/a	n/a
3910.34	n/a	RECOG_TARGET	1955170	n/a	LTP119	ltpFR	6	2	1	THICKET	1455	5	0	n/a	n/a	n/a	n/a	n/a
3910.818	n/a	RECOG_RESP	1955409	n/a	LTP119	ltpFR	6	2	1	THICKET	1455	n/a	0	n/a	n/a	n/a	n/a	n/a
3911.376	n/a	RECOG_CONF	1955688	n/a	LTP119	ltpFR	6	2	1	THICKET	1455	5	0	n/a	n/a	n/a	n/a	n/a
3912.654	n/a	RECOG_TARGET	1956327	n/a	LTP119	ltpFR	6	2	-1	GIRAFFE	636	5	-1	n/a	n/a	n/a	n/a	n/a
3913.162	n/a	RECOG_RESP	1956581	n/a	LTP119	ltpFR	6	2	-1	GIRAFFE	636	n/a	-1	n/a	n/a	n/a	n/a	n/a
3913.722	n/a	RECOG_CONF	1956861	n/a	LTP119	ltpFR	6	2	-1	GIRAFFE	636	5	-1	n/a	n/a	n/a	n/a	n/a
3915.058	n/a	RECOG_TARGET	1957529	n/a	LTP119	ltpFR	6	2	1	COIN	343	5	0	n/a	n/a	n/a	n/a	n/a
3915.458	n/a	RECOG_RESP	1957729	n/a	LTP119	ltpFR	6	2	1	COIN	343	n/a	0	n/a	n/a	n/a	n/a	n/a
3915.906	n/a	RECOG_CONF	1957953	n/a	LTP119	ltpFR	6	2	1	COIN	343	5	0	n/a	n/a	n/a	n/a	n/a
3922.966	n/a	REC_START	1961483	n/a	LTP119	ltpFR	6	3	n/a	n/a	n/a	n/a	n/a	n/a	n/a	n/a	n/a	n/a
3922.992	n/a	RECOG_TARGET	1961496	n/a	LTP119	ltpFR	6	3	0	VACUUM	1543	4	1	n/a	n/a	n/a	n/a	n/a
3923.7	n/a	RECOG_RESP_VV	1961850	n/a	LTP119	ltpFR	6	3	0	VACUUM	1543	n/a	1	n/a	n/a	n/a	n/a	n/a
3924.178	n/a	RECOG_RESP	1962089	n/a	LTP119	ltpFR	6	3	0	VACUUM	1543	n/a	1	n/a	n/a	n/a	n/a	n/a
3924.946	n/a	RECOG_CONF	1962473	n/a	LTP119	ltpFR	6	3	0	VACUUM	1543	4	1	n/a	n/a	n/a	n/a	n/a
3926.396	n/a	RECOG_TARGET	1963198	n/a	LTP119	ltpFR	6	3	0	FAUCET	555	5	0	n/a	n/a	n/a	n/a	n/a
3926.898	n/a	RECOG_RESP	1963449	n/a	LTP119	ltpFR	6	3	0	FAUCET	555	n/a	0	n/a	n/a	n/a	n/a	n/a
3927.432	n/a	RECOG_CONF	1963716	n/a	LTP119	ltpFR	6	3	0	FAUCET	555	5	0	n/a	n/a	n/a	n/a	n/a
3928.884	n/a	RECOG_TARGET	1964442	n/a	LTP119	ltpFR	6	3	1	MOVIE	927	5	1	n/a	n/a	n/a	n/a	n/a
3929.286	n/a	RECOG_RESP	1964643	n/a	LTP119	ltpFR	6	3	1	MOVIE	927	n/a	1	n/a	n/a	n/a	n/a	n/a
3929.856	n/a	RECOG_CONF	1964928	n/a	LTP119	ltpFR	6	3	1	MOVIE	927	5	1	n/a	n/a	n/a	n/a	n/a
3931.232	n/a	RECOG_LURE	1965616	n/a	LTP119	ltpFR	6	3	n/a	LADY	794	5	n/a	n/a	n/a	n/a	n/a	n/a
3932.02	n/a	RECOG_RESP	1966010	n/a	LTP119	ltpFR	6	3	n/a	LADY	794	n/a	n/a	n/a	n/a	n/a	n/a	n/a
3932.68	n/a	RECOG_CONF	1966340	n/a	LTP119	ltpFR	6	3	n/a	LADY	794	5	n/a	n/a	n/a	n/a	n/a	n/a
3934.112	n/a	RECOG_TARGET	1967056	n/a	LTP119	ltpFR	6	3	0	NAPKIN	937	2	0	n/a	n/a	n/a	n/a	n/a
3934.988	n/a	RECOG_RESP	1967494	n/a	LTP119	ltpFR	6	3	0	NAPKIN	937	n/a	0	n/a	n/a	n/a	n/a	n/a
3935.942	n/a	RECOG_CONF	1967971	n/a	LTP119	ltpFR	6	3	0	NAPKIN	937	2	0	n/a	n/a	n/a	n/a	n/a
3937.392	n/a	RECOG_TARGET	1968696	n/a	LTP119	ltpFR	6	3	-1	ZEBRA	1635	5	-1	n/a	n/a	n/a	n/a	n/a
3937.842	n/a	RECOG_RESP	1968921	n/a	LTP119	ltpFR	6	3	-1	ZEBRA	1635	n/a	-1	n/a	n/a	n/a	n/a	n/a
3938.336	n/a	RECOG_CONF	1969168	n/a	LTP119	ltpFR	6	3	-1	ZEBRA	1635	5	-1	n/a	n/a	n/a	n/a	n/a
3939.748	n/a	RECOG_TARGET	1969874	n/a	LTP119	ltpFR	6	3	1	PARTNER	1017	4	0	n/a	n/a	n/a	n/a	n/a
3940.332	n/a	RECOG_RESP	1970166	n/a	LTP119	ltpFR	6	3	1	PARTNER	1017	n/a	0	n/a	n/a	n/a	n/a	n/a
3941.13	n/a	RECOG_CONF	1970565	n/a	LTP119	ltpFR	6	3	1	PARTNER	1017	4	0	n/a	n/a	n/a	n/a	n/a
3942.66	n/a	RECOG_TARGET	1971330	n/a	LTP119	ltpFR	6	3	0	COPIER	377	1	1	n/a	n/a	n/a	n/a	n/a
3943.2	n/a	RECOG_RESP	1971600	n/a	LTP119	ltpFR	6	3	0	COPIER	377	n/a	1	n/a	n/a	n/a	n/a	n/a
3944.074	n/a	RECOG_CONF	1972037	n/a	LTP119	ltpFR	6	3	0	COPIER	377	1	1	n/a	n/a	n/a	n/a	n/a
3945.474	n/a	RECOG_LURE	1972737	n/a	LTP119	ltpFR	6	3	n/a	IRON	744	4	n/a	n/a	n/a	n/a	n/a	n/a
3945.904	n/a	RECOG_RESP_VV	1972952	n/a	LTP119	ltpFR	6	3	n/a	IRON	744	n/a	n/a	n/a	n/a	n/a	n/a	n/a
3946.502	n/a	RECOG_RESP	1973251	n/a	LTP119	ltpFR	6	3	n/a	IRON	744	n/a	n/a	n/a	n/a	n/a	n/a	n/a
3947.266	n/a	RECOG_CONF	1973633	n/a	LTP119	ltpFR	6	3	n/a	IRON	744	4	n/a	n/a	n/a	n/a	n/a	n/a
3948.678	n/a	RECOG_TARGET	1974339	n/a	LTP119	ltpFR	6	3	1	BREAST	171	5	0	n/a	n/a	n/a	n/a	n/a
3949.238	n/a	RECOG_RESP	1974619	n/a	LTP119	ltpFR	6	3	1	BREAST	171	n/a	0	n/a	n/a	n/a	n/a	n/a
3949.842	n/a	RECOG_CONF	1974921	n/a	LTP119	ltpFR	6	3	1	BREAST	171	5	0	n/a	n/a	n/a	n/a	n/a
3951.152	n/a	RECOG_TARGET	1975576	n/a	LTP119	ltpFR	6	3	1	FLORIDA	582	5	0	n/a	n/a	n/a	n/a	n/a
3951.662	n/a	RECOG_RESP	1975831	n/a	LTP119	ltpFR	6	3	1	FLORIDA	582	n/a	0	n/a	n/a	n/a	n/a	n/a
3952.166	n/a	RECOG_CONF	1976083	n/a	LTP119	ltpFR	6	3	1	FLORIDA	582	5	0	n/a	n/a	n/a	n/a	n/a
3953.482	n/a	RECOG_TARGET	1976741	n/a	LTP119	ltpFR	6	3	0	POPE	1105	1	1	n/a	n/a	n/a	n/a	n/a
3954.022	n/a	RECOG_RESP	1977011	n/a	LTP119	ltpFR	6	3	0	POPE	1105	n/a	1	n/a	n/a	n/a	n/a	n/a
3955.17	n/a	RECOG_CONF	1977585	n/a	LTP119	ltpFR	6	3	0	POPE	1105	1	1	n/a	n/a	n/a	n/a	n/a
3956.572	n/a	RECOG_TARGET	1978286	n/a	LTP119	ltpFR	6	3	0	JUPITER	765	5	1	n/a	n/a	n/a	n/a	n/a
3957.104	n/a	RECOG_RESP	1978552	n/a	LTP119	ltpFR	6	3	0	JUPITER	765	n/a	1	n/a	n/a	n/a	n/a	n/a
3957.744	n/a	RECOG_CONF	1978872	n/a	LTP119	ltpFR	6	3	0	JUPITER	765	5	1	n/a	n/a	n/a	n/a	n/a
3959.1	n/a	RECOG_TARGET	1979550	n/a	LTP119	ltpFR	6	3	1	CHEESE	289	4	0	n/a	n/a	n/a	n/a	n/a
3960.068	n/a	RECOG_RESP	1980034	n/a	LTP119	ltpFR	6	3	1	CHEESE	289	n/a	0	n/a	n/a	n/a	n/a	n/a
3960.966	n/a	RECOG_CONF	1980483	n/a	LTP119	ltpFR	6	3	1	CHEESE	289	4	0	n/a	n/a	n/a	n/a	n/a
3962.33	n/a	RECOG_TARGET	1981165	n/a	LTP119	ltpFR	6	3	0	FREEWAY	603	5	1	n/a	n/a	n/a	n/a	n/a
3962.992	n/a	RECOG_RESP	1981496	n/a	LTP119	ltpFR	6	3	0	FREEWAY	603	n/a	1	n/a	n/a	n/a	n/a	n/a
3963.66	n/a	RECOG_CONF	1981830	n/a	LTP119	ltpFR	6	3	0	FREEWAY	603	5	1	n/a	n/a	n/a	n/a	n/a
3965.118	n/a	RECOG_TARGET	1982559	n/a	LTP119	ltpFR	6	3	1	CARTON	251	5	0	n/a	n/a	n/a	n/a	n/a
3965.93	n/a	RECOG_RESP	1982965	n/a	LTP119	ltpFR	6	3	1	CARTON	251	n/a	0	n/a	n/a	n/a	n/a	n/a
3966.474	n/a	RECOG_CONF	1983237	n/a	LTP119	ltpFR	6	3	1	CARTON	251	5	0	n/a	n/a	n/a	n/a	n/a
3967.982	n/a	RECOG_TARGET	1983991	n/a	LTP119	ltpFR	6	3	1	BOWL	158	5	0	n/a	n/a	n/a	n/a	n/a
3968.474	n/a	RECOG_RESP	1984237	n/a	LTP119	ltpFR	6	3	1	BOWL	158	n/a	0	n/a	n/a	n/a	n/a	n/a
3968.924	n/a	RECOG_CONF	1984462	n/a	LTP119	ltpFR	6	3	1	BOWL	158	5	0	n/a	n/a	n/a	n/a	n/a
3970.38	n/a	RECOG_TARGET	1985190	n/a	LTP119	ltpFR	6	3	0	STONE	1385	5	1	n/a	n/a	n/a	n/a	n/a
3971.048	n/a	RECOG_RESP	1985524	n/a	LTP119	ltpFR	6	3	0	STONE	1385	n/a	1	n/a	n/a	n/a	n/a	n/a
3971.532	n/a	RECOG_CONF	1985766	n/a	LTP119	ltpFR	6	3	0	STONE	1385	5	1	n/a	n/a	n/a	n/a	n/a
3972.992	n/a	RECOG_TARGET	1986496	n/a	LTP119	ltpFR	6	3	-1	HONEY	713	5	-1	n/a	n/a	n/a	n/a	n/a
3973.408	n/a	RECOG_RESP	1986704	n/a	LTP119	ltpFR	6	3	-1	HONEY	713	n/a	-1	n/a	n/a	n/a	n/a	n/a
3973.996	n/a	RECOG_CONF	1986998	n/a	LTP119	ltpFR	6	3	-1	HONEY	713	5	-1	n/a	n/a	n/a	n/a	n/a
3975.398	n/a	RECOG_TARGET	1987699	n/a	LTP119	ltpFR	6	3	0	ROOT	1210	5	0	n/a	n/a	n/a	n/a	n/a
3975.922	n/a	RECOG_RESP	1987961	n/a	LTP119	ltpFR	6	3	0	ROOT	1210	n/a	0	n/a	n/a	n/a	n/a	n/a
3976.52	n/a	RECOG_CONF	1988260	n/a	LTP119	ltpFR	6	3	0	ROOT	1210	5	0	n/a	n/a	n/a	n/a	n/a
3991.76	n/a	REC_START	1995880	n/a	LTP119	ltpFR	6	4	n/a	n/a	n/a	n/a	n/a	n/a	n/a	n/a	n/a	n/a
3991.788	n/a	RECOG_TARGET	1995894	n/a	LTP119	ltpFR	6	4	-1	BISCUIT	130	4	-1	n/a	n/a	n/a	n/a	n/a
3992.732	n/a	RECOG_RESP	1996366	n/a	LTP119	ltpFR	6	4	-1	BISCUIT	130	n/a	-1	n/a	n/a	n/a	n/a	n/a
3993.35	n/a	RECOG_CONF	1996675	n/a	LTP119	ltpFR	6	4	-1	BISCUIT	130	4	-1	n/a	n/a	n/a	n/a	n/a
3994.868	n/a	RECOG_TARGET	1997434	n/a	LTP119	ltpFR	6	4	1	SNAKE	1333	1	0	n/a	n/a	n/a	n/a	n/a
3995.556	n/a	RECOG_RESP	1997778	n/a	LTP119	ltpFR	6	4	1	SNAKE	1333	n/a	0	n/a	n/a	n/a	n/a	n/a
3996.234	n/a	RECOG_CONF	1998117	n/a	LTP119	ltpFR	6	4	1	SNAKE	1333	1	0	n/a	n/a	n/a	n/a	n/a
3997.59	n/a	RECOG_TARGET	1998795	n/a	LTP119	ltpFR	6	4	0	FLIPPER	580	2	0	n/a	n/a	n/a	n/a	n/a
3998.06	n/a	RECOG_RESP	1999030	n/a	LTP119	ltpFR	6	4	0	FLIPPER	580	n/a	0	n/a	n/a	n/a	n/a	n/a
3998.868	n/a	RECOG_CONF	1999434	n/a	LTP119	ltpFR	6	4	0	FLIPPER	580	2	0	n/a	n/a	n/a	n/a	n/a
4000.262	n/a	RECOG_TARGET	2000131	n/a	LTP119	ltpFR	6	4	1	PRIEST	1122	4	1	n/a	n/a	n/a	n/a	n/a
4000.764	n/a	RECOG_RESP	2000382	n/a	LTP119	ltpFR	6	4	1	PRIEST	1122	n/a	1	n/a	n/a	n/a	n/a	n/a
4001.342	n/a	RECOG_CONF	2000671	n/a	LTP119	ltpFR	6	4	1	PRIEST	1122	4	1	n/a	n/a	n/a	n/a	n/a
4002.792	n/a	RECOG_TARGET	2001396	n/a	LTP119	ltpFR	6	4	-1	ASH	44	5	-1	n/a	n/a	n/a	n/a	n/a
4003.264	n/a	RECOG_RESP	2001632	n/a	LTP119	ltpFR	6	4	-1	ASH	44	n/a	-1	n/a	n/a	n/a	n/a	n/a
4003.768	n/a	RECOG_CONF	2001884	n/a	LTP119	ltpFR	6	4	-1	ASH	44	5	-1	n/a	n/a	n/a	n/a	n/a
4005.238	n/a	RECOG_LURE	2002619	n/a	LTP119	ltpFR	6	4	n/a	MOWER	928	5	n/a	n/a	n/a	n/a	n/a	n/a
4006.146	n/a	RECOG_RESP	2003073	n/a	LTP119	ltpFR	6	4	n/a	MOWER	928	n/a	n/a	n/a	n/a	n/a	n/a	n/a
4006.69	n/a	RECOG_CONF	2003345	n/a	LTP119	ltpFR	6	4	n/a	MOWER	928	5	n/a	n/a	n/a	n/a	n/a	n/a
4008.11	n/a	RECOG_TARGET	2004055	n/a	LTP119	ltpFR	6	4	0	ENGINEER	536	5	1	n/a	n/a	n/a	n/a	n/a
4008.602	n/a	RECOG_RESP	2004301	n/a	LTP119	ltpFR	6	4	0	ENGINEER	536	n/a	1	n/a	n/a	n/a	n/a	n/a
4009.164	n/a	RECOG_CONF	2004582	n/a	LTP119	ltpFR	6	4	0	ENGINEER	536	5	1	n/a	n/a	n/a	n/a	n/a
4010.416	n/a	RECOG_TARGET	2005208	n/a	LTP119	ltpFR	6	4	-1	MICROPHONE	890	5	-1	n/a	n/a	n/a	n/a	n/a
4010.866	n/a	RECOG_RESP	2005433	n/a	LTP119	ltpFR	6	4	-1	MICROPHONE	890	n/a	-1	n/a	n/a	n/a	n/a	n/a
4011.4	n/a	RECOG_CONF	2005700	n/a	LTP119	ltpFR	6	4	-1	MICROPHONE	890	5	-1	n/a	n/a	n/a	n/a	n/a
4012.68	n/a	RECOG_LURE	2006340	n/a	LTP119	ltpFR	6	4	n/a	PIG	1064	4	n/a	n/a	n/a	n/a	n/a	n/a
4013.514	n/a	RECOG_RESP	2006757	n/a	LTP119	ltpFR	6	4	n/a	PIG	1064	n/a	n/a	n/a	n/a	n/a	n/a	n/a
4014.074	n/a	RECOG_CONF	2007037	n/a	LTP119	ltpFR	6	4	n/a	PIG	1064	4	n/a	n/a	n/a	n/a	n/a	n/a
4015.468	n/a	RECOG_TARGET	2007734	n/a	LTP119	ltpFR	6	4	1	SECRETARY	1265	5	1	n/a	n/a	n/a	n/a	n/a
4016.05	n/a	RECOG_RESP	2008025	n/a	LTP119	ltpFR	6	4	1	SECRETARY	1265	n/a	1	n/a	n/a	n/a	n/a	n/a
4016.588	n/a	RECOG_CONF	2008294	n/a	LTP119	ltpFR	6	4	1	SECRETARY	1265	5	1	n/a	n/a	n/a	n/a	n/a
4018.058	n/a	RECOG_TARGET	2009029	n/a	LTP119	ltpFR	6	4	-1	DONKEY	484	4	-1	n/a	n/a	n/a	n/a	n/a
4018.454	n/a	RECOG_RESP	2009227	n/a	LTP119	ltpFR	6	4	-1	DONKEY	484	n/a	-1	n/a	n/a	n/a	n/a	n/a
4019.332	n/a	RECOG_CONF	2009666	n/a	LTP119	ltpFR	6	4	-1	DONKEY	484	4	-1	n/a	n/a	n/a	n/a	n/a
4020.838	n/a	RECOG_TARGET	2010419	n/a	LTP119	ltpFR	6	4	-1	VEST	1559	5	-1	n/a	n/a	n/a	n/a	n/a
4021.368	n/a	RECOG_RESP	2010684	n/a	LTP119	ltpFR	6	4	-1	VEST	1559	n/a	-1	n/a	n/a	n/a	n/a	n/a
4021.916	n/a	RECOG_CONF	2010958	n/a	LTP119	ltpFR	6	4	-1	VEST	1559	5	-1	n/a	n/a	n/a	n/a	n/a
4023.36	n/a	RECOG_TARGET	2011680	n/a	LTP119	ltpFR	6	4	-1	TRUCK	1512	5	-1	n/a	n/a	n/a	n/a	n/a
4023.846	n/a	RECOG_RESP	2011923	n/a	LTP119	ltpFR	6	4	-1	TRUCK	1512	n/a	-1	n/a	n/a	n/a	n/a	n/a
4024.38	n/a	RECOG_CONF	2012190	n/a	LTP119	ltpFR	6	4	-1	TRUCK	1512	5	-1	n/a	n/a	n/a	n/a	n/a
4025.832	n/a	RECOG_TARGET	2012916	n/a	LTP119	ltpFR	6	4	1	BALLOT	76	5	0	n/a	n/a	n/a	n/a	n/a
4026.914	n/a	RECOG_RESP	2013457	n/a	LTP119	ltpFR	6	4	1	BALLOT	76	n/a	0	n/a	n/a	n/a	n/a	n/a
4027.552	n/a	RECOG_CONF	2013776	n/a	LTP119	ltpFR	6	4	1	BALLOT	76	5	0	n/a	n/a	n/a	n/a	n/a
4029.07	n/a	RECOG_TARGET	2014535	n/a	LTP119	ltpFR	6	4	1	ACTRESS	6	5	1	n/a	n/a	n/a	n/a	n/a
4029.618	n/a	RECOG_RESP	2014809	n/a	LTP119	ltpFR	6	4	1	ACTRESS	6	n/a	1	n/a	n/a	n/a	n/a	n/a
4030.168	n/a	RECOG_CONF	2015084	n/a	LTP119	ltpFR	6	4	1	ACTRESS	6	5	1	n/a	n/a	n/a	n/a	n/a
4031.534	n/a	RECOG_TARGET	2015767	n/a	LTP119	ltpFR	6	4	-1	MONK	910	5	-1	n/a	n/a	n/a	n/a	n/a
4032.072	n/a	RECOG_RESP	2016036	n/a	LTP119	ltpFR	6	4	-1	MONK	910	n/a	-1	n/a	n/a	n/a	n/a	n/a
4032.662	n/a	RECOG_CONF	2016331	n/a	LTP119	ltpFR	6	4	-1	MONK	910	5	-1	n/a	n/a	n/a	n/a	n/a
4034.048	n/a	RECOG_TARGET	2017024	n/a	LTP119	ltpFR	6	4	-1	PARSLEY	1016	5	-1	n/a	n/a	n/a	n/a	n/a
4034.558	n/a	RECOG_RESP	2017279	n/a	LTP119	ltpFR	6	4	-1	PARSLEY	1016	n/a	-1	n/a	n/a	n/a	n/a	n/a
4035.096	n/a	RECOG_CONF	2017548	n/a	LTP119	ltpFR	6	4	-1	PARSLEY	1016	5	-1	n/a	n/a	n/a	n/a	n/a
4036.428	n/a	RECOG_LURE	2018214	n/a	LTP119	ltpFR	6	4	n/a	PANTS	1010	1	n/a	n/a	n/a	n/a	n/a	n/a
4036.918	n/a	RECOG_RESP	2018459	n/a	LTP119	ltpFR	6	4	n/a	PANTS	1010	n/a	n/a	n/a	n/a	n/a	n/a	n/a
4037.632	n/a	RECOG_CONF	2018816	n/a	LTP119	ltpFR	6	4	n/a	PANTS	1010	1	n/a	n/a	n/a	n/a	n/a	n/a
4039.108	n/a	RECOG_LURE	2019554	n/a	LTP119	ltpFR	6	4	n/a	DETECTIVE	454	5	n/a	n/a	n/a	n/a	n/a	n/a
4040.52	n/a	RECOG_RESP	2020260	n/a	LTP119	ltpFR	6	4	n/a	DETECTIVE	454	n/a	n/a	n/a	n/a	n/a	n/a	n/a
4041.392	n/a	RECOG_CONF	2020696	n/a	LTP119	ltpFR	6	4	n/a	DETECTIVE	454	5	n/a	n/a	n/a	n/a	n/a	n/a
4042.804	n/a	RECOG_TARGET	2021402	n/a	LTP119	ltpFR	6	4	0	TROMBONE	1508	5	0	n/a	n/a	n/a	n/a	n/a
4043.358	n/a	RECOG_RESP	2021679	n/a	LTP119	ltpFR	6	4	0	TROMBONE	1508	n/a	0	n/a	n/a	n/a	n/a	n/a
4043.906	n/a	RECOG_CONF	2021953	n/a	LTP119	ltpFR	6	4	0	TROMBONE	1508	5	0	n/a	n/a	n/a	n/a	n/a
4067.894	n/a	REC_START	2033947	n/a	LTP119	ltpFR	6	5	n/a	n/a	n/a	n/a	n/a	n/a	n/a	n/a	n/a	n/a
4067.926	n/a	RECOG_TARGET	2033963	n/a	LTP119	ltpFR	6	5	0	STOCKING	1383	4	0	n/a	n/a	n/a	n/a	n/a
4068.506	n/a	RECOG_RESP	2034253	n/a	LTP119	ltpFR	6	5	0	STOCKING	1383	n/a	0	n/a	n/a	n/a	n/a	n/a
4069.316	n/a	RECOG_CONF	2034658	n/a	LTP119	ltpFR	6	5	0	STOCKING	1383	4	0	n/a	n/a	n/a	n/a	n/a
4070.582	n/a	RECOG_LURE	2035291	n/a	LTP119	ltpFR	6	5	n/a	PUPPY	1144	5	n/a	n/a	n/a	n/a	n/a	n/a
4071.166	n/a	RECOG_RESP	2035583	n/a	LTP119	ltpFR	6	5	n/a	PUPPY	1144	n/a	n/a	n/a	n/a	n/a	n/a	n/a
4071.74	n/a	RECOG_CONF	2035870	n/a	LTP119	ltpFR	6	5	n/a	PUPPY	1144	5	n/a	n/a	n/a	n/a	n/a	n/a
4073.02	n/a	RECOG_TARGET	2036510	n/a	LTP119	ltpFR	6	5	1	BARK	87	5	0	n/a	n/a	n/a	n/a	n/a
4073.746	n/a	RECOG_RESP	2036873	n/a	LTP119	ltpFR	6	5	1	BARK	87	n/a	0	n/a	n/a	n/a	n/a	n/a
4074.264	n/a	RECOG_CONF	2037132	n/a	LTP119	ltpFR	6	5	1	BARK	87	5	0	n/a	n/a	n/a	n/a	n/a
4075.85	n/a	RECOG_TARGET	2037925	n/a	LTP119	ltpFR	6	5	1	SPIDER	1351	5	1	n/a	n/a	n/a	n/a	n/a
4076.244	n/a	RECOG_RESP	2038122	n/a	LTP119	ltpFR	6	5	1	SPIDER	1351	n/a	1	n/a	n/a	n/a	n/a	n/a
4076.658	n/a	RECOG_CONF	2038329	n/a	LTP119	ltpFR	6	5	1	SPIDER	1351	5	1	n/a	n/a	n/a	n/a	n/a
4078.156	n/a	RECOG_TARGET	2039078	n/a	LTP119	ltpFR	6	5	0	WRIST	1626	5	0	n/a	n/a	n/a	n/a	n/a
4078.58	n/a	RECOG_RESP	2039290	n/a	LTP119	ltpFR	6	5	0	WRIST	1626	n/a	0	n/a	n/a	n/a	n/a	n/a
4079.014	n/a	RECOG_CONF	2039507	n/a	LTP119	ltpFR	6	5	0	WRIST	1626	5	0	n/a	n/a	n/a	n/a	n/a
4080.52	n/a	RECOG_LURE	2040260	n/a	LTP119	ltpFR	6	5	n/a	TOY	1492	5	n/a	n/a	n/a	n/a	n/a	n/a
4081.138	n/a	RECOG_RESP	2040569	n/a	LTP119	ltpFR	6	5	n/a	TOY	1492	n/a	n/a	n/a	n/a	n/a	n/a	n/a
4081.896	n/a	RECOG_CONF	2040948	n/a	LTP119	ltpFR	6	5	n/a	TOY	1492	5	n/a	n/a	n/a	n/a	n/a	n/a
4083.19	n/a	RECOG_TARGET	2041595	n/a	LTP119	ltpFR	6	5	1	SPINACH	1352	5	0	n/a	n/a	n/a	n/a	n/a
4083.578	n/a	RECOG_RESP	2041789	n/a	LTP119	ltpFR	6	5	1	SPINACH	1352	n/a	0	n/a	n/a	n/a	n/a	n/a
4084.142	n/a	RECOG_CONF	2042071	n/a	LTP119	ltpFR	6	5	1	SPINACH	1352	5	0	n/a	n/a	n/a	n/a	n/a
4085.598	n/a	RECOG_TARGET	2042799	n/a	LTP119	ltpFR	6	5	1	MONGOOSE	909	5	1	n/a	n/a	n/a	n/a	n/a
4085.988	n/a	RECOG_RESP	2042994	n/a	LTP119	ltpFR	6	5	1	MONGOOSE	909	n/a	1	n/a	n/a	n/a	n/a	n/a
4086.496	n/a	RECOG_CONF	2043248	n/a	LTP119	ltpFR	6	5	1	MONGOOSE	909	5	1	n/a	n/a	n/a	n/a	n/a
4087.794	n/a	RECOG_LURE	2043897	n/a	LTP119	ltpFR	6	5	n/a	MASK	876	4	n/a	n/a	n/a	n/a	n/a	n/a
4088.238	n/a	RECOG_RESP_VV	2044119	n/a	LTP119	ltpFR	6	5	n/a	MASK	876	n/a	n/a	n/a	n/a	n/a	n/a	n/a
4088.706	n/a	RECOG_RESP	2044353	n/a	LTP119	ltpFR	6	5	n/a	MASK	876	n/a	n/a	n/a	n/a	n/a	n/a	n/a
4089.35	n/a	RECOG_CONF	2044675	n/a	LTP119	ltpFR	6	5	n/a	MASK	876	4	n/a	n/a	n/a	n/a	n/a	n/a
4090.89	n/a	RECOG_TARGET	2045445	n/a	LTP119	ltpFR	6	5	1	COMPUTER	359	5	0	n/a	n/a	n/a	n/a	n/a
4091.26	n/a	RECOG_RESP	2045630	n/a	LTP119	ltpFR	6	5	1	COMPUTER	359	n/a	0	n/a	n/a	n/a	n/a	n/a
4091.764	n/a	RECOG_CONF	2045882	n/a	LTP119	ltpFR	6	5	1	COMPUTER	359	5	0	n/a	n/a	n/a	n/a	n/a
4093.238	n/a	RECOG_TARGET	2046619	n/a	LTP119	ltpFR	6	5	0	DESK	452	2	1	n/a	n/a	n/a	n/a	n/a
4093.72	n/a	RECOG_RESP	2046860	n/a	LTP119	ltpFR	6	5	0	DESK	452	n/a	1	n/a	n/a	n/a	n/a	n/a
4094.568	n/a	RECOG_CONF	2047284	n/a	LTP119	ltpFR	6	5	0	DESK	452	2	1	n/a	n/a	n/a	n/a	n/a
4095.968	n/a	RECOG_TARGET	2047984	n/a	LTP119	ltpFR	6	5	0	BLOSSOM	138	5	0	n/a	n/a	n/a	n/a	n/a
4096.378	n/a	RECOG_RESP	2048189	n/a	LTP119	ltpFR	6	5	0	BLOSSOM	138	n/a	0	n/a	n/a	n/a	n/a	n/a
4096.922	n/a	RECOG_CONF	2048461	n/a	LTP119	ltpFR	6	5	0	BLOSSOM	138	5	0	n/a	n/a	n/a	n/a	n/a
4098.424	n/a	RECOG_TARGET	2049212	n/a	LTP119	ltpFR	6	5	-1	FLOWER	584	5	-1	n/a	n/a	n/a	n/a	n/a
4098.804	n/a	RECOG_RESP	2049402	n/a	LTP119	ltpFR	6	5	-1	FLOWER	584	n/a	-1	n/a	n/a	n/a	n/a	n/a
4099.268	n/a	RECOG_CONF	2049634	n/a	LTP119	ltpFR	6	5	-1	FLOWER	584	5	-1	n/a	n/a	n/a	n/a	n/a
4100.82	n/a	RECOG_TARGET	2050410	n/a	LTP119	ltpFR	6	5	0	NIECE	952	5	1	n/a	n/a	n/a	n/a	n/a
4101.358	n/a	RECOG_RESP	2050679	n/a	LTP119	ltpFR	6	5	0	NIECE	952	n/a	1	n/a	n/a	n/a	n/a	n/a
4102.19	n/a	RECOG_CONF	2051095	n/a	LTP119	ltpFR	6	5	0	NIECE	952	5	1	n/a	n/a	n/a	n/a	n/a
4103.602	n/a	RECOG_TARGET	2051801	n/a	LTP119	ltpFR	6	5	-1	POT	1114	1	-1	n/a	n/a	n/a	n/a	n/a
4104.286	n/a	RECOG_RESP	2052143	n/a	LTP119	ltpFR	6	5	-1	POT	1114	n/a	-1	n/a	n/a	n/a	n/a	n/a
4105.772	n/a	RECOG_CONF	2052886	n/a	LTP119	ltpFR	6	5	-1	POT	1114	1	-1	n/a	n/a	n/a	n/a	n/a
4107.038	n/a	RECOG_TARGET	2053519	n/a	LTP119	ltpFR	6	5	1	SINK	1309	4	0	n/a	n/a	n/a	n/a	n/a
4108.416	n/a	RECOG_RESP	2054208	n/a	LTP119	ltpFR	6	5	1	SINK	1309	n/a	0	n/a	n/a	n/a	n/a	n/a
4109.244	n/a	RECOG_CONF	2054622	n/a	LTP119	ltpFR	6	5	1	SINK	1309	4	0	n/a	n/a	n/a	n/a	n/a
4110.618	n/a	RECOG_TARGET	2055309	n/a	LTP119	ltpFR	6	5	1	ANTENNA	28	5	0	n/a	n/a	n/a	n/a	n/a
4111.11	n/a	RECOG_RESP	2055555	n/a	LTP119	ltpFR	6	5	1	ANTENNA	28	n/a	0	n/a	n/a	n/a	n/a	n/a
4111.698	n/a	RECOG_CONF	2055849	n/a	LTP119	ltpFR	6	5	1	ANTENNA	28	5	0	n/a	n/a	n/a	n/a	n/a
4113.24	n/a	RECOG_TARGET	2056620	n/a	LTP119	ltpFR	6	5	-1	ROOSTER	1209	5	-1	n/a	n/a	n/a	n/a	n/a
4113.73	n/a	RECOG_RESP	2056865	n/a	LTP119	ltpFR	6	5	-1	ROOSTER	1209	n/a	-1	n/a	n/a	n/a	n/a	n/a
4114.312	n/a	RECOG_CONF	2057156	n/a	LTP119	ltpFR	6	5	-1	ROOSTER	1209	5	-1	n/a	n/a	n/a	n/a	n/a
4115.82	n/a	RECOG_TARGET	2057910	n/a	LTP119	ltpFR	6	5	-1	PUCK	1138	5	-1	n/a	n/a	n/a	n/a	n/a
4116.37	n/a	RECOG_RESP	2058185	n/a	LTP119	ltpFR	6	5	-1	PUCK	1138	n/a	-1	n/a	n/a	n/a	n/a	n/a
4116.908	n/a	RECOG_CONF	2058454	n/a	LTP119	ltpFR	6	5	-1	PUCK	1138	5	-1	n/a	n/a	n/a	n/a	n/a
4118.302	n/a	RECOG_TARGET	2059151	n/a	LTP119	ltpFR	6	5	-1	FLUTE	585	5	-1	n/a	n/a	n/a	n/a	n/a
4118.724	n/a	RECOG_RESP	2059362	n/a	LTP119	ltpFR	6	5	-1	FLUTE	585	n/a	-1	n/a	n/a	n/a	n/a	n/a
4119.212	n/a	RECOG_CONF	2059606	n/a	LTP119	ltpFR	6	5	-1	FLUTE	585	5	-1	n/a	n/a	n/a	n/a	n/a
4127.528	n/a	REC_START	2063764	n/a	LTP119	ltpFR	6	6	n/a	n/a	n/a	n/a	n/a	n/a	n/a	n/a	n/a	n/a
4127.558	n/a	RECOG_TARGET	2063779	n/a	LTP119	ltpFR	6	6	0	CHAIRPERSON	275	5	1	n/a	n/a	n/a	n/a	n/a
4128.14	n/a	RECOG_RESP	2064070	n/a	LTP119	ltpFR	6	6	0	CHAIRPERSON	275	n/a	1	n/a	n/a	n/a	n/a	n/a
4128.81	n/a	RECOG_CONF	2064405	n/a	LTP119	ltpFR	6	6	0	CHAIRPERSON	275	5	1	n/a	n/a	n/a	n/a	n/a
4130.246	n/a	RECOG_TARGET	2065123	n/a	LTP119	ltpFR	6	6	0	STUDENT	1395	4	0	n/a	n/a	n/a	n/a	n/a
4130.7	n/a	RECOG_RESP_VV	2065350	n/a	LTP119	ltpFR	6	6	0	STUDENT	1395	n/a	0	n/a	n/a	n/a	n/a	n/a
4131.18	n/a	RECOG_RESP	2065590	n/a	LTP119	ltpFR	6	6	0	STUDENT	1395	n/a	0	n/a	n/a	n/a	n/a	n/a
4131.782	n/a	RECOG_CONF	2065891	n/a	LTP119	ltpFR	6	6	0	STUDENT	1395	4	0	n/a	n/a	n/a	n/a	n/a
4133.268	n/a	RECOG_TARGET	2066634	n/a	LTP119	ltpFR	6	6	0	SERVANT	1271	5	1	n/a	n/a	n/a	n/a	n/a
4133.912	n/a	RECOG_RESP	2066956	n/a	LTP119	ltpFR	6	6	0	SERVANT	1271	n/a	1	n/a	n/a	n/a	n/a	n/a
4134.656	n/a	RECOG_CONF	2067328	n/a	LTP119	ltpFR	6	6	0	SERVANT	1271	5	1	n/a	n/a	n/a	n/a	n/a
4135.98	n/a	RECOG_LURE	2067990	n/a	LTP119	ltpFR	6	6	n/a	DWARF	510	5	n/a	n/a	n/a	n/a	n/a	n/a
4136.566	n/a	RECOG_RESP	2068283	n/a	LTP119	ltpFR	6	6	n/a	DWARF	510	n/a	n/a	n/a	n/a	n/a	n/a	n/a
4137.13	n/a	RECOG_CONF	2068565	n/a	LTP119	ltpFR	6	6	n/a	DWARF	510	5	n/a	n/a	n/a	n/a	n/a	n/a
4138.586	n/a	RECOG_TARGET	2069293	n/a	LTP119	ltpFR	6	6	-1	DUST	508	5	-1	n/a	n/a	n/a	n/a	n/a
4138.916	n/a	RECOG_RESP	2069458	n/a	LTP119	ltpFR	6	6	-1	DUST	508	n/a	-1	n/a	n/a	n/a	n/a	n/a
4139.536	n/a	RECOG_CONF	2069768	n/a	LTP119	ltpFR	6	6	-1	DUST	508	5	-1	n/a	n/a	n/a	n/a	n/a
4141.042	n/a	RECOG_TARGET	2070521	n/a	LTP119	ltpFR	6	6	-1	STOVE	1388	4	-1	n/a	n/a	n/a	n/a	n/a
4141.4	n/a	RECOG_RESP	2070700	n/a	LTP119	ltpFR	6	6	-1	STOVE	1388	n/a	-1	n/a	n/a	n/a	n/a	n/a
4142.01	n/a	RECOG_CONF	2071005	n/a	LTP119	ltpFR	6	6	-1	STOVE	1388	4	-1	n/a	n/a	n/a	n/a	n/a
4143.422	n/a	RECOG_TARGET	2071711	n/a	LTP119	ltpFR	6	6	0	SPHINX	1349	5	1	n/a	n/a	n/a	n/a	n/a
4143.92	n/a	RECOG_RESP	2071960	n/a	LTP119	ltpFR	6	6	0	SPHINX	1349	n/a	1	n/a	n/a	n/a	n/a	n/a
4144.454	n/a	RECOG_CONF	2072227	n/a	LTP119	ltpFR	6	6	0	SPHINX	1349	5	1	n/a	n/a	n/a	n/a	n/a
4145.886	n/a	RECOG_TARGET	2072943	n/a	LTP119	ltpFR	6	6	-1	BUTTON	207	5	-1	n/a	n/a	n/a	n/a	n/a
4146.37	n/a	RECOG_RESP	2073185	n/a	LTP119	ltpFR	6	6	-1	BUTTON	207	n/a	-1	n/a	n/a	n/a	n/a	n/a
4146.908	n/a	RECOG_CONF	2073454	n/a	LTP119	ltpFR	6	6	-1	BUTTON	207	5	-1	n/a	n/a	n/a	n/a	n/a
4148.266	n/a	RECOG_LURE	2074133	n/a	LTP119	ltpFR	6	6	n/a	CIRCUS	311	4	n/a	n/a	n/a	n/a	n/a	n/a
4149.154	n/a	RECOG_RESP	2074577	n/a	LTP119	ltpFR	6	6	n/a	CIRCUS	311	n/a	n/a	n/a	n/a	n/a	n/a	n/a
4149.782	n/a	RECOG_CONF	2074891	n/a	LTP119	ltpFR	6	6	n/a	CIRCUS	311	4	n/a	n/a	n/a	n/a	n/a	n/a
4151.196	n/a	RECOG_TARGET	2075598	n/a	LTP119	ltpFR	6	6	-1	YOKE	1632	5	-1	n/a	n/a	n/a	n/a	n/a
4151.628	n/a	RECOG_RESP	2075814	n/a	LTP119	ltpFR	6	6	-1	YOKE	1632	n/a	-1	n/a	n/a	n/a	n/a	n/a
4152.276	n/a	RECOG_CONF	2076138	n/a	LTP119	ltpFR	6	6	-1	YOKE	1632	5	-1	n/a	n/a	n/a	n/a	n/a
4153.784	n/a	RECOG_TARGET	2076892	n/a	LTP119	ltpFR	6	6	1	FLOUR	583	5	0	n/a	n/a	n/a	n/a	n/a
4154.202	n/a	RECOG_RESP	2077101	n/a	LTP119	ltpFR	6	6	1	FLOUR	583	n/a	0	n/a	n/a	n/a	n/a	n/a
4154.7	n/a	RECOG_CONF	2077350	n/a	LTP119	ltpFR	6	6	1	FLOUR	583	5	0	n/a	n/a	n/a	n/a	n/a
4156.208	n/a	RECOG_TARGET	2078104	n/a	LTP119	ltpFR	6	6	-1	STADIUM	1364	5	-1	n/a	n/a	n/a	n/a	n/a
4156.816	n/a	RECOG_RESP	2078408	n/a	LTP119	ltpFR	6	6	-1	STADIUM	1364	n/a	-1	n/a	n/a	n/a	n/a	n/a
4157.534	n/a	RECOG_CONF	2078767	n/a	LTP119	ltpFR	6	6	-1	STADIUM	1364	5	-1	n/a	n/a	n/a	n/a	n/a
4158.962	n/a	RECOG_TARGET	2079481	n/a	LTP119	ltpFR	6	6	1	HAIL	676	5	0	n/a	n/a	n/a	n/a	n/a
4159.42	n/a	RECOG_RESP	2079710	n/a	LTP119	ltpFR	6	6	1	HAIL	676	n/a	0	n/a	n/a	n/a	n/a	n/a
4159.978	n/a	RECOG_CONF	2079989	n/a	LTP119	ltpFR	6	6	1	HAIL	676	5	0	n/a	n/a	n/a	n/a	n/a
4161.376	n/a	RECOG_TARGET	2080688	n/a	LTP119	ltpFR	6	6	1	VET	1560	1	0	n/a	n/a	n/a	n/a	n/a
4161.9	n/a	RECOG_RESP	2080950	n/a	LTP119	ltpFR	6	6	1	VET	1560	n/a	0	n/a	n/a	n/a	n/a	n/a
4162.672	n/a	RECOG_CONF	2081336	n/a	LTP119	ltpFR	6	6	1	VET	1560	1	0	n/a	n/a	n/a	n/a	n/a
4164.114	n/a	RECOG_TARGET	2082057	n/a	LTP119	ltpFR	6	6	-1	SALOON	1228	5	-1	n/a	n/a	n/a	n/a	n/a
4164.528	n/a	RECOG_RESP	2082264	n/a	LTP119	ltpFR	6	6	-1	SALOON	1228	n/a	-1	n/a	n/a	n/a	n/a	n/a
