onset	duration	trial_type	sample	stim_file	subject	experiment	session	trial	item_name	item_num	list	answer	test_x	test_y	test_z
255.08	n/a	SESS_START	127540	n/a	LTP305	ltpFR2	4	n/a	n/a	n/a	n/a	n/a	0	0	0
273.03	n/a	START	136515	n/a	LTP305	ltpFR2	4	n/a	n/a	n/a	-1	n/a	n/a	n/a	n/a
273.044	n/a	PROB	136522	n/a	LTP305	ltpFR2	4	n/a	n/a	n/a	-1	24	8	9	7
275.796	n/a	PROB	137898	n/a	LTP305	ltpFR2	4	n/a	n/a	n/a	-1	17	6	7	4
278.298	n/a	PROB	139149	n/a	LTP305	ltpFR2	4	n/a	n/a	n/a	-1	15	3	9	3
279.766	n/a	PROB	139883	n/a	LTP305	ltpFR2	4	n/a	n/a	n/a	-1	17	9	2	6
282.918	n/a	PROB	141459	n/a	LTP305	ltpFR2	4	n/a	n/a	n/a	-1	14	4	8	2
284.556	n/a	STOP	142278	n/a	LTP305	ltpFR2	4	n/a	n/a	n/a	-1	n/a	n/a	n/a	n/a
317.176	n/a	WORD	158588	wordpools/wasnorm_wordpool_576.txt	LTP305	ltpFR2	4	1	POCKET	1093	n/a	n/a	0	0	0
319.964	n/a	WORD	159982	wordpools/wasnorm_wordpool_576.txt	LTP305	ltpFR2	4	1	WAITRESS	1581	n/a	n/a	0	0	0
322.724	n/a	WORD	161362	wordpools/wasnorm_wordpool_576.txt	LTP305	ltpFR2	4	1	MISSILE	900	n/a	n/a	0	0	0
325.258	n/a	WORD	162629	wordpools/wasnorm_wordpool_576.txt	LTP305	ltpFR2	4	1	FRAME	600	n/a	n/a	0	0	0
327.728	n/a	WORD	163864	wordpools/wasnorm_wordpool_576.txt	LTP305	ltpFR2	4	1	LOFT	840	n/a	n/a	0	0	0
330.188	n/a	WORD	165094	wordpools/wasnorm_wordpool_576.txt	LTP305	ltpFR2	4	1	BURGLAR	200	n/a	n/a	0	0	0
332.7	n/a	WORD	166350	wordpools/wasnorm_wordpool_576.txt	LTP305	ltpFR2	4	1	SCULPTURE	1258	n/a	n/a	0	0	0
335.426	n/a	WORD	167713	wordpools/wasnorm_wordpool_576.txt	LTP305	ltpFR2	4	1	THIEF	1456	n/a	n/a	0	0	0
338.012	n/a	WORD	169006	wordpools/wasnorm_wordpool_576.txt	LTP305	ltpFR2	4	1	SUSPECT	1415	n/a	n/a	0	0	0
340.79	n/a	WORD	170395	wordpools/wasnorm_wordpool_576.txt	LTP305	ltpFR2	4	1	TROUT	1511	n/a	n/a	0	0	0
343.498	n/a	WORD	171749	wordpools/wasnorm_wordpool_576.txt	LTP305	ltpFR2	4	1	HAND	683	n/a	n/a	0	0	0
346.21	n/a	WORD	173105	wordpools/wasnorm_wordpool_576.txt	LTP305	ltpFR2	4	1	FEMALE	559	n/a	n/a	0	0	0
348.704	n/a	WORD	174352	wordpools/wasnorm_wordpool_576.txt	LTP305	ltpFR2	4	1	CARRIAGE	248	n/a	n/a	0	0	0
351.348	n/a	WORD	175674	wordpools/wasnorm_wordpool_576.txt	LTP305	ltpFR2	4	1	RATTLE	1170	n/a	n/a	0	0	0
353.792	n/a	WORD	176896	wordpools/wasnorm_wordpool_576.txt	LTP305	ltpFR2	4	1	PICTURE	1061	n/a	n/a	0	0	0
356.234	n/a	WORD	178117	wordpools/wasnorm_wordpool_576.txt	LTP305	ltpFR2	4	1	SPOON	1357	n/a	n/a	0	0	0
358.654	n/a	WORD	179327	wordpools/wasnorm_wordpool_576.txt	LTP305	ltpFR2	4	1	EMPIRE	530	n/a	n/a	0	0	0
361.304	n/a	WORD	180652	wordpools/wasnorm_wordpool_576.txt	LTP305	ltpFR2	4	1	SURVEY	1414	n/a	n/a	0	0	0
364.032	n/a	WORD	182016	wordpools/wasnorm_wordpool_576.txt	LTP305	ltpFR2	4	1	GRAPE	654	n/a	n/a	0	0	0
366.81	n/a	WORD	183405	wordpools/wasnorm_wordpool_576.txt	LTP305	ltpFR2	4	1	SKETCH	1315	n/a	n/a	0	0	0
369.268	n/a	WORD	184634	wordpools/wasnorm_wordpool_576.txt	LTP305	ltpFR2	4	1	BROTHER	179	n/a	n/a	0	0	0
372.022	n/a	WORD	186011	wordpools/wasnorm_wordpool_576.txt	LTP305	ltpFR2	4	1	SIBLING	1301	n/a	n/a	0	0	0
374.658	n/a	WORD	187329	wordpools/wasnorm_wordpool_576.txt	LTP305	ltpFR2	4	1	DASHBOARD	441	n/a	n/a	0	0	0
377.27	n/a	WORD	188635	wordpools/wasnorm_wordpool_576.txt	LTP305	ltpFR2	4	1	PAPER	1011	n/a	n/a	0	0	0
378.876	n/a	START	189438	n/a	LTP305	ltpFR2	4	n/a	n/a	n/a	1	n/a	n/a	n/a	n/a
379.764	n/a	DISTRACTOR	189882	n/a	LTP305	ltpFR2	4	1	n/a	n/a	n/a	n/a	0	0	0
379.772	n/a	PROB	189886	n/a	LTP305	ltpFR2	4	n/a	n/a	n/a	1	12	2	2	8
381.696	n/a	PROB	190848	n/a	LTP305	ltpFR2	4	n/a	n/a	n/a	1	10	3	3	4
383.582	n/a	PROB	191791	n/a	LTP305	ltpFR2	4	n/a	n/a	n/a	1	9	4	1	4
385.332	n/a	PROB	192666	n/a	LTP305	ltpFR2	4	n/a	n/a	n/a	1	20	5	8	7
386.932	n/a	PROB	193466	n/a	LTP305	ltpFR2	4	n/a	n/a	n/a	1	23	9	5	9
388.802	n/a	PROB	194401	n/a	LTP305	ltpFR2	4	n/a	n/a	n/a	1	15	4	7	4
390.354	n/a	PROB	195177	n/a	LTP305	ltpFR2	4	n/a	n/a	n/a	1	16	9	2	6
392.102	n/a	PROB	196051	n/a	LTP305	ltpFR2	4	n/a	n/a	n/a	1	8	4	1	3
394.288	n/a	PROB	197144	n/a	LTP305	ltpFR2	4	n/a	n/a	n/a	1	20	2	9	9
395.822	n/a	PROB	197911	n/a	LTP305	ltpFR2	4	n/a	n/a	n/a	1	13	5	3	5
397.474	n/a	PROB	198737	n/a	LTP305	ltpFR2	4	n/a	n/a	n/a	1	8	2	4	2
399.042	n/a	PROB	199521	n/a	LTP305	ltpFR2	4	n/a	n/a	n/a	1	26	9	8	9
401.726	n/a	STOP	200863	n/a	LTP305	ltpFR2	4	n/a	n/a	n/a	1	n/a	n/a	n/a	n/a
404.764	n/a	REC_START	202382	n/a	LTP305	ltpFR2	4	1	n/a	n/a	n/a	n/a	0	0	0
406.898	n/a	REC_WORD	203449	wordpools/wasnorm_wordpool_576.txt	LTP305	ltpFR2	4	1	WAITRESS	1581	n/a	n/a	0	0	0
407.874	n/a	REC_WORD	203937	wordpools/wasnorm_wordpool_576.txt	LTP305	ltpFR2	4	1	POCKET	1093	n/a	n/a	0	0	0
409.294	n/a	REC_WORD	204647	wordpools/wasnorm_wordpool_576.txt	LTP305	ltpFR2	4	1	BOTTLE	153	n/a	n/a	0	0	0
410.716	n/a	REC_WORD	205358	wordpools/wasnorm_wordpool_576.txt	LTP305	ltpFR2	4	1	EMPIRE	530	n/a	n/a	0	0	0
413.628	n/a	REC_WORD	206814	wordpools/wasnorm_wordpool_576.txt	LTP305	ltpFR2	4	1	PICTURE	1061	n/a	n/a	0	0	0
417.444	n/a	REC_WORD	208722	wordpools/wasnorm_wordpool_576.txt	LTP305	ltpFR2	4	1	MISSILE	900	n/a	n/a	0	0	0
470.7	n/a	REC_WORD	235350	wordpools/wasnorm_wordpool_576.txt	LTP305	ltpFR2	4	1	EMPIRE	530	n/a	n/a	0	0	0
479.572	n/a	REC_WORD_VV	239786	wordpools/wasnorm_wordpool_576.txt	LTP305	ltpFR2	4	1	<>	-1	n/a	n/a	0	0	0
495.202	n/a	DISTRACTOR	247601	n/a	LTP305	ltpFR2	4	2	n/a	n/a	n/a	n/a	0	0	0
495.202	n/a	START	247601	n/a	LTP305	ltpFR2	4	n/a	n/a	n/a	2	n/a	n/a	n/a	n/a
495.216	n/a	PROB	247608	n/a	LTP305	ltpFR2	4	n/a	n/a	n/a	2	17	7	2	8
497.3	n/a	PROB	248650	n/a	LTP305	ltpFR2	4	n/a	n/a	n/a	2	17	8	5	4
498.968	n/a	PROB	249484	n/a	LTP305	ltpFR2	4	n/a	n/a	n/a	2	14	8	5	1
500.538	n/a	PROB	250269	n/a	LTP305	ltpFR2	4	n/a	n/a	n/a	2	18	5	6	7
502.104	n/a	PROB	251052	n/a	LTP305	ltpFR2	4	n/a	n/a	n/a	2	17	9	1	7
504.34	n/a	PROB	252170	n/a	LTP305	ltpFR2	4	n/a	n/a	n/a	2	14	2	4	8
506.51	n/a	PROB	253255	n/a	LTP305	ltpFR2	4	n/a	n/a	n/a	2	23	8	7	8
508.31	n/a	PROB	254155	n/a	LTP305	ltpFR2	4	n/a	n/a	n/a	2	26	9	7	8
510.078	n/a	PROB	255039	n/a	LTP305	ltpFR2	4	n/a	n/a	n/a	2	15	8	2	5
512.764	n/a	PROB	256382	n/a	LTP305	ltpFR2	4	n/a	n/a	n/a	2	10	1	3	6
514.716	n/a	PROB	257358	n/a	LTP305	ltpFR2	4	n/a	n/a	n/a	2	8	4	1	3
516.3	n/a	PROB	258150	n/a	LTP305	ltpFR2	4	n/a	n/a	n/a	2	17	6	2	9
518.664	n/a	STOP	259332	n/a	LTP305	ltpFR2	4	n/a	n/a	n/a	2	n/a	n/a	n/a	n/a
520.286	n/a	WORD	260143	wordpools/wasnorm_wordpool_576.txt	LTP305	ltpFR2	4	2	WHISKERS	1605	n/a	n/a	0	0	0
522.722	n/a	WORD	261361	wordpools/wasnorm_wordpool_576.txt	LTP305	ltpFR2	4	2	BRICK	172	n/a	n/a	0	0	0
525.206	n/a	WORD	262603	wordpools/wasnorm_wordpool_576.txt	LTP305	ltpFR2	4	2	OUTDOORS	987	n/a	n/a	0	0	0
527.644	n/a	WORD	263822	wordpools/wasnorm_wordpool_576.txt	LTP305	ltpFR2	4	2	DRAWING	494	n/a	n/a	0	0	0
530.312	n/a	WORD	265156	wordpools/wasnorm_wordpool_576.txt	LTP305	ltpFR2	4	2	AIRPORT	13	n/a	n/a	0	0	0
532.812	n/a	WORD	266406	wordpools/wasnorm_wordpool_576.txt	LTP305	ltpFR2	4	2	DONOR	485	n/a	n/a	0	0	0
535.364	n/a	WORD	267682	wordpools/wasnorm_wordpool_576.txt	LTP305	ltpFR2	4	2	HEART	697	n/a	n/a	0	0	0
537.856	n/a	WORD	268928	wordpools/wasnorm_wordpool_576.txt	LTP305	ltpFR2	4	2	PLIERS	1089	n/a	n/a	0	0	0
540.286	n/a	WORD	270143	wordpools/wasnorm_wordpool_576.txt	LTP305	ltpFR2	4	2	DRILL	497	n/a	n/a	0	0	0
542.938	n/a	WORD	271469	wordpools/wasnorm_wordpool_576.txt	LTP305	ltpFR2	4	2	RABBIT	1152	n/a	n/a	0	0	0
545.59	n/a	WORD	272795	wordpools/wasnorm_wordpool_576.txt	LTP305	ltpFR2	4	2	OX	994	n/a	n/a	0	0	0
548.308	n/a	WORD	274154	wordpools/wasnorm_wordpool_576.txt	LTP305	ltpFR2	4	2	PARSLEY	1016	n/a	n/a	0	0	0
551.0	n/a	WORD	275500	wordpools/wasnorm_wordpool_576.txt	LTP305	ltpFR2	4	2	PUPIL	1143	n/a	n/a	0	0	0
553.78	n/a	WORD	276890	wordpools/wasnorm_wordpool_576.txt	LTP305	ltpFR2	4	2	COUCH	386	n/a	n/a	0	0	0
556.574	n/a	WORD	278287	wordpools/wasnorm_wordpool_576.txt	LTP305	ltpFR2	4	2	PACKAGE	997	n/a	n/a	0	0	0
559.208	n/a	WORD	279604	wordpools/wasnorm_wordpool_576.txt	LTP305	ltpFR2	4	2	PUDDING	1139	n/a	n/a	0	0	0
561.794	n/a	WORD	280897	wordpools/wasnorm_wordpool_576.txt	LTP305	ltpFR2	4	2	PASTRY	1022	n/a	n/a	0	0	0
564.322	n/a	WORD	282161	wordpools/wasnorm_wordpool_576.txt	LTP305	ltpFR2	4	2	TURTLE	1522	n/a	n/a	0	0	0
566.814	n/a	WORD	283407	wordpools/wasnorm_wordpool_576.txt	LTP305	ltpFR2	4	2	ITEM	746	n/a	n/a	0	0	0
569.232	n/a	WORD	284616	wordpools/wasnorm_wordpool_576.txt	LTP305	ltpFR2	4	2	RIVER	1194	n/a	n/a	0	0	0
571.926	n/a	WORD	285963	wordpools/wasnorm_wordpool_576.txt	LTP305	ltpFR2	4	2	PILOT	1070	n/a	n/a	0	0	0
574.512	n/a	WORD	287256	wordpools/wasnorm_wordpool_576.txt	LTP305	ltpFR2	4	2	HORSE	719	n/a	n/a	0	0	0
576.988	n/a	WORD	288494	wordpools/wasnorm_wordpool_576.txt	LTP305	ltpFR2	4	2	ATOM	55	n/a	n/a	0	0	0
579.514	n/a	WORD	289757	wordpools/wasnorm_wordpool_576.txt	LTP305	ltpFR2	4	2	ROBIN	1199	n/a	n/a	0	0	0
581.124	n/a	START	290562	n/a	LTP305	ltpFR2	4	n/a	n/a	n/a	3	n/a	n/a	n/a	n/a
582.27	n/a	DISTRACTOR	291135	n/a	LTP305	ltpFR2	4	2	n/a	n/a	n/a	n/a	0	0	0
582.276	n/a	PROB	291138	n/a	LTP305	ltpFR2	4	n/a	n/a	n/a	3	11	2	4	3
584.87	n/a	PROB	292435	n/a	LTP305	ltpFR2	4	n/a	n/a	n/a	3	21	7	8	6
587.604	n/a	PROB	293802	n/a	LTP305	ltpFR2	4	n/a	n/a	n/a	3	14	5	4	5
589.508	n/a	PROB	294754	n/a	LTP305	ltpFR2	4	n/a	n/a	n/a	3	12	3	2	7
591.224	n/a	PROB	295612	n/a	LTP305	ltpFR2	4	n/a	n/a	n/a	3	18	6	5	7
593.042	n/a	PROB	296521	n/a	LTP305	ltpFR2	4	n/a	n/a	n/a	3	7	3	2	2
594.51	n/a	PROB	297255	n/a	LTP305	ltpFR2	4	n/a	n/a	n/a	3	21	7	5	9
596.696	n/a	PROB	298348	n/a	LTP305	ltpFR2	4	n/a	n/a	n/a	3	14	4	6	4
598.414	n/a	PROB	299207	n/a	LTP305	ltpFR2	4	n/a	n/a	n/a	3	19	5	6	8
600.382	n/a	PROB	300191	n/a	LTP305	ltpFR2	4	n/a	n/a	n/a	3	16	7	3	6
602.116	n/a	PROB	301058	n/a	LTP305	ltpFR2	4	n/a	n/a	n/a	3	23	8	8	7
603.594	n/a	STOP	301797	n/a	LTP305	ltpFR2	4	n/a	n/a	n/a	3	n/a	n/a	n/a	n/a
607.036	n/a	REC_START	303518	n/a	LTP305	ltpFR2	4	2	n/a	n/a	n/a	n/a	0	0	0
611.51	n/a	REC_WORD	305755	wordpools/wasnorm_wordpool_576.txt	LTP305	ltpFR2	4	2	PILOT	1070	n/a	n/a	0	0	0
614.532	n/a	REC_WORD	307266	wordpools/wasnorm_wordpool_576.txt	LTP305	ltpFR2	4	2	APRON	35	n/a	n/a	0	0	0
697.51	n/a	WORD	348755	wordpools/wasnorm_wordpool_576.txt	LTP305	ltpFR2	4	3	COURSE	390	n/a	n/a	0	0	0
699.994	n/a	WORD	349997	wordpools/wasnorm_wordpool_576.txt	LTP305	ltpFR2	4	3	SUNRISE	1407	n/a	n/a	0	0	0
702.546	n/a	WORD	351273	wordpools/wasnorm_wordpool_576.txt	LTP305	ltpFR2	4	3	JURY	766	n/a	n/a	0	0	0
705.314	n/a	WORD	352657	wordpools/wasnorm_wordpool_576.txt	LTP305	ltpFR2	4	3	ISLAND	745	n/a	n/a	0	0	0
708.134	n/a	WORD	354067	wordpools/wasnorm_wordpool_576.txt	LTP305	ltpFR2	4	3	SERVER	1272	n/a	n/a	0	0	0
710.918	n/a	WORD	355459	wordpools/wasnorm_wordpool_576.txt	LTP305	ltpFR2	4	3	LILY	821	n/a	n/a	0	0	0
713.504	n/a	WORD	356752	wordpools/wasnorm_wordpool_576.txt	LTP305	ltpFR2	4	3	COLLEGE	346	n/a	n/a	0	0	0
716.106	n/a	WORD	358053	wordpools/wasnorm_wordpool_576.txt	LTP305	ltpFR2	4	3	CONTRACT	368	n/a	n/a	0	0	0
718.824	n/a	WORD	359412	wordpools/wasnorm_wordpool_576.txt	LTP305	ltpFR2	4	3	PAIL	1002	n/a	n/a	0	0	0
721.394	n/a	WORD	360697	wordpools/wasnorm_wordpool_576.txt	LTP305	ltpFR2	4	3	DAISY	435	n/a	n/a	0	0	0
723.83	n/a	WORD	361915	wordpools/wasnorm_wordpool_576.txt	LTP305	ltpFR2	4	3	MATTRESS	879	n/a	n/a	0	0	0
726.38	n/a	WORD	363190	wordpools/wasnorm_wordpool_576.txt	LTP305	ltpFR2	4	3	JELLO	754	n/a	n/a	0	0	0
729.016	n/a	WORD	364508	wordpools/wasnorm_wordpool_576.txt	LTP305	ltpFR2	4	3	LAMP	798	n/a	n/a	0	0	0
731.434	n/a	WORD	365717	wordpools/wasnorm_wordpool_576.txt	LTP305	ltpFR2	4	3	LASER	801	n/a	n/a	0	0	0
733.872	n/a	WORD	366936	wordpools/wasnorm_wordpool_576.txt	LTP305	ltpFR2	4	3	LAVA	804	n/a	n/a	0	0	0
736.338	n/a	WORD	368169	wordpools/wasnorm_wordpool_576.txt	LTP305	ltpFR2	4	3	KEEPER	769	n/a	n/a	0	0	0
739.124	n/a	WORD	369562	wordpools/wasnorm_wordpool_576.txt	LTP305	ltpFR2	4	3	PERFUME	1049	n/a	n/a	0	0	0
741.61	n/a	WORD	370805	wordpools/wasnorm_wordpool_576.txt	LTP305	ltpFR2	4	3	MILDEW	893	n/a	n/a	0	0	0
744.212	n/a	WORD	372106	wordpools/wasnorm_wordpool_576.txt	LTP305	ltpFR2	4	3	POSTAGE	1113	n/a	n/a	0	0	0
746.732	n/a	WORD	373366	wordpools/wasnorm_wordpool_576.txt	LTP305	ltpFR2	4	3	FARMER	553	n/a	n/a	0	0	0
749.316	n/a	WORD	374658	wordpools/wasnorm_wordpool_576.txt	LTP305	ltpFR2	4	3	TRACTOR	1493	n/a	n/a	0	0	0
752.068	n/a	WORD	376034	wordpools/wasnorm_wordpool_576.txt	LTP305	ltpFR2	4	3	WASP	1593	n/a	n/a	0	0	0
754.486	n/a	WORD	377243	wordpools/wasnorm_wordpool_576.txt	LTP305	ltpFR2	4	3	GIFT	635	n/a	n/a	0	0	0
757.108	n/a	WORD	378554	wordpools/wasnorm_wordpool_576.txt	LTP305	ltpFR2	4	3	PICNIC	1060	n/a	n/a	0	0	0
758.71	n/a	START	379355	n/a	LTP305	ltpFR2	4	n/a	n/a	n/a	4	n/a	n/a	n/a	n/a
759.636	n/a	DISTRACTOR	379818	n/a	LTP305	ltpFR2	4	3	n/a	n/a	n/a	n/a	0	0	0
759.64	n/a	PROB	379820	n/a	LTP305	ltpFR2	4	n/a	n/a	n/a	4	17	5	9	3
761.89	n/a	PROB	380945	n/a	LTP305	ltpFR2	4	n/a	n/a	n/a	4	11	5	2	4
764.242	n/a	PROB	382121	n/a	LTP305	ltpFR2	4	n/a	n/a	n/a	4	14	3	2	9
766.294	n/a	PROB	383147	n/a	LTP305	ltpFR2	4	n/a	n/a	n/a	4	16	4	4	8
768.446	n/a	PROB	384223	n/a	LTP305	ltpFR2	4	n/a	n/a	n/a	4	18	7	5	7
770.166	n/a	PROB	385083	n/a	LTP305	ltpFR2	4	n/a	n/a	n/a	4	19	9	1	9
772.932	n/a	PROB	386466	n/a	LTP305	ltpFR2	4	n/a	n/a	n/a	4	12	3	3	6
774.634	n/a	PROB	387317	n/a	LTP305	ltpFR2	4	n/a	n/a	n/a	4	12	5	3	4
776.218	n/a	PROB	388109	n/a	LTP305	ltpFR2	4	n/a	n/a	n/a	4	14	7	6	1
778.438	n/a	PROB	389219	n/a	LTP305	ltpFR2	4	n/a	n/a	n/a	4	20	9	4	7
780.122	n/a	PROB	390061	n/a	LTP305	ltpFR2	4	n/a	n/a	n/a	4	20	9	5	6
781.532	n/a	STOP	390766	n/a	LTP305	ltpFR2	4	n/a	n/a	n/a	4	n/a	n/a	n/a	n/a
784.56	n/a	REC_START	392280	n/a	LTP305	ltpFR2	4	3	n/a	n/a	n/a	n/a	0	0	0
786.06	n/a	REC_WORD	393030	wordpools/wasnorm_wordpool_576.txt	LTP305	ltpFR2	4	3	WASP	1593	n/a	n/a	0	0	0
787.752	n/a	REC_WORD	393876	wordpools/wasnorm_wordpool_576.txt	LTP305	ltpFR2	4	3	KEEPER	769	n/a	n/a	0	0	0
789.4	n/a	REC_WORD	394700	wordpools/wasnorm_wordpool_576.txt	LTP305	ltpFR2	4	3	PERFUME	1049	n/a	n/a	0	0	0
874.98	n/a	WORD	437490	wordpools/wasnorm_wordpool_576.txt	LTP305	ltpFR2	4	4	GIRL	637	n/a	n/a	0	0	0
877.51	n/a	WORD	438755	wordpools/wasnorm_wordpool_576.txt	LTP305	ltpFR2	4	4	EAGLE	512	n/a	n/a	0	0	0
880.062	n/a	WORD	440031	wordpools/wasnorm_wordpool_576.txt	LTP305	ltpFR2	4	4	SWIMMER	1420	n/a	n/a	0	0	0
882.498	n/a	WORD	441249	wordpools/wasnorm_wordpool_576.txt	LTP305	ltpFR2	4	4	SPOUSE	1358	n/a	n/a	0	0	0
884.918	n/a	WORD	442459	wordpools/wasnorm_wordpool_576.txt	LTP305	ltpFR2	4	4	PATROL	1027	n/a	n/a	0	0	0
887.502	n/a	WORD	443751	wordpools/wasnorm_wordpool_576.txt	LTP305	ltpFR2	4	4	SHERIFF	1284	n/a	n/a	0	0	0
890.288	n/a	WORD	445144	wordpools/wasnorm_wordpool_576.txt	LTP305	ltpFR2	4	4	ORANGE	980	n/a	n/a	0	0	0
892.892	n/a	WORD	446446	wordpools/wasnorm_wordpool_576.txt	LTP305	ltpFR2	4	4	STUDENT	1395	n/a	n/a	0	0	0
895.542	n/a	WORD	447771	wordpools/wasnorm_wordpool_576.txt	LTP305	ltpFR2	4	4	SUNSET	1408	n/a	n/a	0	0	0
898.296	n/a	WORD	449148	wordpools/wasnorm_wordpool_576.txt	LTP305	ltpFR2	4	4	BACON	67	n/a	n/a	0	0	0
900.996	n/a	WORD	450498	wordpools/wasnorm_wordpool_576.txt	LTP305	ltpFR2	4	4	YOLK	1633	n/a	n/a	0	0	0
903.484	n/a	WORD	451742	wordpools/wasnorm_wordpool_576.txt	LTP305	ltpFR2	4	4	DIVER	476	n/a	n/a	0	0	0
905.968	n/a	WORD	452984	wordpools/wasnorm_wordpool_576.txt	LTP305	ltpFR2	4	4	SHORTS	1293	n/a	n/a	0	0	0
908.654	n/a	WORD	454327	wordpools/wasnorm_wordpool_576.txt	LTP305	ltpFR2	4	4	SMOG	1330	n/a	n/a	0	0	0
911.19	n/a	WORD	455595	wordpools/wasnorm_wordpool_576.txt	LTP305	ltpFR2	4	4	BLACKBOARD	133	n/a	n/a	0	0	0
913.658	n/a	WORD	456829	wordpools/wasnorm_wordpool_576.txt	LTP305	ltpFR2	4	4	RAFT	1159	n/a	n/a	0	0	0
916.11	n/a	WORD	458055	wordpools/wasnorm_wordpool_576.txt	LTP305	ltpFR2	4	4	JUGGLER	763	n/a	n/a	0	0	0
918.764	n/a	WORD	459382	wordpools/wasnorm_wordpool_576.txt	LTP305	ltpFR2	4	4	POWDER	1117	n/a	n/a	0	0	0
921.198	n/a	WORD	460599	wordpools/wasnorm_wordpool_576.txt	LTP305	ltpFR2	4	4	EXPERT	543	n/a	n/a	0	0	0
923.734	n/a	WORD	461867	wordpools/wasnorm_wordpool_576.txt	LTP305	ltpFR2	4	4	SHOVEL	1295	n/a	n/a	0	0	0
926.186	n/a	WORD	463093	wordpools/wasnorm_wordpool_576.txt	LTP305	ltpFR2	4	4	SWAMP	1416	n/a	n/a	0	0	0
928.706	n/a	WORD	464353	wordpools/wasnorm_wordpool_576.txt	LTP305	ltpFR2	4	4	FRECKLE	602	n/a	n/a	0	0	0
931.204	n/a	WORD	465602	wordpools/wasnorm_wordpool_576.txt	LTP305	ltpFR2	4	4	COUNTY	389	n/a	n/a	0	0	0
933.94	n/a	WORD	466970	wordpools/wasnorm_wordpool_576.txt	LTP305	ltpFR2	4	4	OFFICE	972	n/a	n/a	0	0	0
935.544	n/a	START	467772	n/a	LTP305	ltpFR2	4	n/a	n/a	n/a	5	n/a	n/a	n/a	n/a
936.732	n/a	DISTRACTOR	468366	n/a	LTP305	ltpFR2	4	4	n/a	n/a	n/a	n/a	0	0	0
936.746	n/a	PROB	468373	n/a	LTP305	ltpFR2	4	n/a	n/a	n/a	5	10	1	7	2
938.914	n/a	PROB	469457	n/a	LTP305	ltpFR2	4	n/a	n/a	n/a	5	13	3	2	8
940.346	n/a	PROB	470173	n/a	LTP305	ltpFR2	4	n/a	n/a	n/a	5	16	8	5	3
942.198	n/a	PROB	471099	n/a	LTP305	ltpFR2	4	n/a	n/a	n/a	5	6	2	2	2
943.514	n/a	PROB	471757	n/a	LTP305	ltpFR2	4	n/a	n/a	n/a	5	7	4	2	1
945.15	n/a	PROB	472575	n/a	LTP305	ltpFR2	4	n/a	n/a	n/a	5	16	7	2	7
947.302	n/a	PROB	473651	n/a	LTP305	ltpFR2	4	n/a	n/a	n/a	5	15	6	5	4
949.17	n/a	PROB	474585	n/a	LTP305	ltpFR2	4	n/a	n/a	n/a	5	13	4	3	6
951.156	n/a	PROB	475578	n/a	LTP305	ltpFR2	4	n/a	n/a	n/a	5	9	1	7	1
952.59	n/a	PROB	476295	n/a	LTP305	ltpFR2	4	n/a	n/a	n/a	5	19	9	4	6
954.192	n/a	PROB	477096	n/a	LTP305	ltpFR2	4	n/a	n/a	n/a	5	19	8	2	9
955.908	n/a	PROB	477954	n/a	LTP305	ltpFR2	4	n/a	n/a	n/a	5	15	4	5	6
957.744	n/a	PROB	478872	n/a	LTP305	ltpFR2	4	n/a	n/a	n/a	5	6	2	3	1
959.214	n/a	STOP	479607	n/a	LTP305	ltpFR2	4	n/a	n/a	n/a	5	n/a	n/a	n/a	n/a
961.348	n/a	REC_START	480674	n/a	LTP305	ltpFR2	4	4	n/a	n/a	n/a	n/a	0	0	0
965.444	n/a	REC_WORD	482722	wordpools/wasnorm_wordpool_576.txt	LTP305	ltpFR2	4	4	GIRL	637	n/a	n/a	0	0	0
967.4	n/a	REC_WORD	483700	wordpools/wasnorm_wordpool_576.txt	LTP305	ltpFR2	4	4	EAGLE	512	n/a	n/a	0	0	0
969.32	n/a	REC_WORD	484660	wordpools/wasnorm_wordpool_576.txt	LTP305	ltpFR2	4	4	SPOUSE	1358	n/a	n/a	0	0	0
1051.76	n/a	DISTRACTOR	525880	n/a	LTP305	ltpFR2	4	5	n/a	n/a	n/a	n/a	0	0	0
1051.76	n/a	START	525880	n/a	LTP305	ltpFR2	4	n/a	n/a	n/a	6	n/a	n/a	n/a	n/a
1051.778	n/a	PROB	525889	n/a	LTP305	ltpFR2	4	n/a	n/a	n/a	6	17	9	4	4
1054.336	n/a	PROB	527168	n/a	LTP305	ltpFR2	4	n/a	n/a	n/a	6	6	1	3	2
1055.47	n/a	PROB	527735	n/a	LTP305	ltpFR2	4	n/a	n/a	n/a	6	23	6	9	8
1057.188	n/a	PROB	528594	n/a	LTP305	ltpFR2	4	n/a	n/a	n/a	6	9	4	3	2
1059.224	n/a	PROB	529612	n/a	LTP305	ltpFR2	4	n/a	n/a	n/a	6	16	6	9	1
1060.708	n/a	PROB	530354	n/a	LTP305	ltpFR2	4	n/a	n/a	n/a	6	24	9	8	7
1063.942	n/a	PROB	531971	n/a	LTP305	ltpFR2	4	n/a	n/a	n/a	6	16	4	5	7
1067.812	n/a	PROB	533906	n/a	LTP305	ltpFR2	4	n/a	n/a	n/a	6	19	4	9	6
1070.698	n/a	PROB	535349	n/a	LTP305	ltpFR2	4	n/a	n/a	n/a	6	19	8	7	4
1072.166	n/a	PROB	536083	n/a	LTP305	ltpFR2	4	n/a	n/a	n/a	6	9	2	5	2
1074.52	n/a	STOP	537260	n/a	LTP305	ltpFR2	4	n/a	n/a	n/a	6	n/a	n/a	n/a	n/a
1076.596	n/a	WORD	538298	wordpools/wasnorm_wordpool_576.txt	LTP305	ltpFR2	4	5	RELISH	1183	n/a	n/a	0	0	0
1079.182	n/a	WORD	539591	wordpools/wasnorm_wordpool_576.txt	LTP305	ltpFR2	4	5	FLASHLIGHT	575	n/a	n/a	0	0	0
1081.924	n/a	WORD	540962	wordpools/wasnorm_wordpool_576.txt	LTP305	ltpFR2	4	5	SHIRT	1287	n/a	n/a	0	0	0
1084.402	n/a	WORD	542201	wordpools/wasnorm_wordpool_576.txt	LTP305	ltpFR2	4	5	TRIBE	1505	n/a	n/a	0	0	0
1087.028	n/a	WORD	543514	wordpools/wasnorm_wordpool_576.txt	LTP305	ltpFR2	4	5	SNAIL	1332	n/a	n/a	0	0	0
1089.53	n/a	WORD	544765	wordpools/wasnorm_wordpool_576.txt	LTP305	ltpFR2	4	5	SALAD	1224	n/a	n/a	0	0	0
1092.266	n/a	WORD	546133	wordpools/wasnorm_wordpool_576.txt	LTP305	ltpFR2	4	5	BASEMENT	94	n/a	n/a	0	0	0
1094.818	n/a	WORD	547409	wordpools/wasnorm_wordpool_576.txt	LTP305	ltpFR2	4	5	LEADER	807	n/a	n/a	0	0	0
1097.432	n/a	WORD	548716	wordpools/wasnorm_wordpool_576.txt	LTP305	ltpFR2	4	5	CHIPMUNK	304	n/a	n/a	0	0	0
1100.216	n/a	WORD	550108	wordpools/wasnorm_wordpool_576.txt	LTP305	ltpFR2	4	5	DENIM	446	n/a	n/a	0	0	0
1102.908	n/a	WORD	551454	wordpools/wasnorm_wordpool_576.txt	LTP305	ltpFR2	4	5	MARKER	870	n/a	n/a	0	0	0
1105.41	n/a	WORD	552705	wordpools/wasnorm_wordpool_576.txt	LTP305	ltpFR2	4	5	HATCHET	691	n/a	n/a	0	0	0
1108.022	n/a	WORD	554011	wordpools/wasnorm_wordpool_576.txt	LTP305	ltpFR2	4	5	BIKE	125	n/a	n/a	0	0	0
1110.508	n/a	WORD	555254	wordpools/wasnorm_wordpool_576.txt	LTP305	ltpFR2	4	5	HELMET	702	n/a	n/a	0	0	0
1113.142	n/a	WORD	556571	wordpools/wasnorm_wordpool_576.txt	LTP305	ltpFR2	4	5	ANTLER	29	n/a	n/a	0	0	0
1115.796	n/a	WORD	557898	wordpools/wasnorm_wordpool_576.txt	LTP305	ltpFR2	4	5	ANKLE	24	n/a	n/a	0	0	0
1118.348	n/a	WORD	559174	wordpools/wasnorm_wordpool_576.txt	LTP305	ltpFR2	4	5	MARROW	872	n/a	n/a	0	0	0
1120.9	n/a	WORD	560450	wordpools/wasnorm_wordpool_576.txt	LTP305	ltpFR2	4	5	RECEIPT	1173	n/a	n/a	0	0	0
1123.624	n/a	WORD	561812	wordpools/wasnorm_wordpool_576.txt	LTP305	ltpFR2	4	5	PIGMENT	1066	n/a	n/a	0	0	0
1126.238	n/a	WORD	563119	wordpools/wasnorm_wordpool_576.txt	LTP305	ltpFR2	4	5	NURSE	963	n/a	n/a	0	0	0
1128.708	n/a	WORD	564354	wordpools/wasnorm_wordpool_576.txt	LTP305	ltpFR2	4	5	DINER	467	n/a	n/a	0	0	0
1131.242	n/a	WORD	565621	wordpools/wasnorm_wordpool_576.txt	LTP305	ltpFR2	4	5	GRILL	661	n/a	n/a	0	0	0
1134.032	n/a	WORD	567016	wordpools/wasnorm_wordpool_576.txt	LTP305	ltpFR2	4	5	EYELASH	546	n/a	n/a	0	0	0
1136.648	n/a	WORD	568324	wordpools/wasnorm_wordpool_576.txt	LTP305	ltpFR2	4	5	FOREHEAD	592	n/a	n/a	0	0	0
1138.252	n/a	START	569126	n/a	LTP305	ltpFR2	4	n/a	n/a	n/a	7	n/a	n/a	n/a	n/a
1139.168	n/a	DISTRACTOR	569584	n/a	LTP305	ltpFR2	4	5	n/a	n/a	n/a	n/a	0	0	0
1139.182	n/a	PROB	569591	n/a	LTP305	ltpFR2	4	n/a	n/a	n/a	7	22	8	9	5
1141.284	n/a	PROB	570642	n/a	LTP305	ltpFR2	4	n/a	n/a	n/a	7	17	6	2	9
1143.604	n/a	PROB	571802	n/a	LTP305	ltpFR2	4	n/a	n/a	n/a	7	15	3	4	8
1145.238	n/a	PROB	572619	n/a	LTP305	ltpFR2	4	n/a	n/a	n/a	7	13	9	1	3
1147.106	n/a	PROB	573553	n/a	LTP305	ltpFR2	4	n/a	n/a	n/a	7	20	6	9	5
1149.826	n/a	PROB	574913	n/a	LTP305	ltpFR2	4	n/a	n/a	n/a	7	13	3	3	7
1151.192	n/a	PROB	575596	n/a	LTP305	ltpFR2	4	n/a	n/a	n/a	7	25	8	9	8
1153.094	n/a	PROB	576547	n/a	LTP305	ltpFR2	4	n/a	n/a	n/a	7	16	7	5	4
1155.078	n/a	PROB	577539	n/a	LTP305	ltpFR2	4	n/a	n/a	n/a	7	12	5	5	2
1157.246	n/a	PROB	578623	n/a	LTP305	ltpFR2	4	n/a	n/a	n/a	7	14	6	2	6
1159.432	n/a	PROB	579716	n/a	LTP305	ltpFR2	4	n/a	n/a	n/a	7	16	2	7	7
1160.818	n/a	STOP	580409	n/a	LTP305	ltpFR2	4	n/a	n/a	n/a	7	n/a	n/a	n/a	n/a
1164.188	n/a	REC_START	582094	n/a	LTP305	ltpFR2	4	5	n/a	n/a	n/a	n/a	0	0	0
1165.436	n/a	REC_WORD	582718	wordpools/wasnorm_wordpool_576.txt	LTP305	ltpFR2	4	5	ANKLE	24	n/a	n/a	0	0	0
1166.83	n/a	REC_WORD	583415	wordpools/wasnorm_wordpool_576.txt	LTP305	ltpFR2	4	5	DINER	467	n/a	n/a	0	0	0
1168.356	n/a	REC_WORD	584178	wordpools/wasnorm_wordpool_576.txt	LTP305	ltpFR2	4	5	PIGMENT	1066	n/a	n/a	0	0	0
1170.13	n/a	REC_WORD	585065	wordpools/wasnorm_wordpool_576.txt	LTP305	ltpFR2	4	5	GRILL	661	n/a	n/a	0	0	0
1254.61	n/a	WORD	627305	wordpools/wasnorm_wordpool_576.txt	LTP305	ltpFR2	4	6	SCARECROW	1245	n/a	n/a	0	0	0
1257.076	n/a	WORD	628538	wordpools/wasnorm_wordpool_576.txt	LTP305	ltpFR2	4	6	PRIMATE	1123	n/a	n/a	0	0	0
1259.548	n/a	WORD	629774	wordpools/wasnorm_wordpool_576.txt	LTP305	ltpFR2	4	6	VIKING	1565	n/a	n/a	0	0	0
1262.048	n/a	WORD	631024	wordpools/wasnorm_wordpool_576.txt	LTP305	ltpFR2	4	6	CABIN	211	n/a	n/a	0	0	0
1264.75	n/a	WORD	632375	wordpools/wasnorm_wordpool_576.txt	LTP305	ltpFR2	4	6	MUFFIN	929	n/a	n/a	0	0	0
1267.508	n/a	WORD	633754	wordpools/wasnorm_wordpool_576.txt	LTP305	ltpFR2	4	6	SIDEWALK	1303	n/a	n/a	0	0	0
1270.17	n/a	WORD	635085	wordpools/wasnorm_wordpool_576.txt	LTP305	ltpFR2	4	6	NIGHTGOWN	953	n/a	n/a	0	0	0
1272.774	n/a	WORD	636387	wordpools/wasnorm_wordpool_576.txt	LTP305	ltpFR2	4	6	DRIVER	499	n/a	n/a	0	0	0
1275.458	n/a	WORD	637729	wordpools/wasnorm_wordpool_576.txt	LTP305	ltpFR2	4	6	PEDAL	1037	n/a	n/a	0	0	0
1278.178	n/a	WORD	639089	wordpools/wasnorm_wordpool_576.txt	LTP305	ltpFR2	4	6	HEDGE	699	n/a	n/a	0	0	0
1280.714	n/a	WORD	640357	wordpools/wasnorm_wordpool_576.txt	LTP305	ltpFR2	4	6	SHRUB	1299	n/a	n/a	0	0	0
1283.298	n/a	WORD	641649	wordpools/wasnorm_wordpool_576.txt	LTP305	ltpFR2	4	6	HUMAN	726	n/a	n/a	0	0	0
1285.884	n/a	WORD	642942	wordpools/wasnorm_wordpool_576.txt	LTP305	ltpFR2	4	6	FRIEND	606	n/a	n/a	0	0	0
1288.368	n/a	WORD	644184	wordpools/wasnorm_wordpool_576.txt	LTP305	ltpFR2	4	6	HERO	706	n/a	n/a	0	0	0
1290.82	n/a	WORD	645410	wordpools/wasnorm_wordpool_576.txt	LTP305	ltpFR2	4	6	CYCLONE	431	n/a	n/a	0	0	0
1293.632	n/a	WORD	646816	wordpools/wasnorm_wordpool_576.txt	LTP305	ltpFR2	4	6	TWISTER	1530	n/a	n/a	0	0	0
1296.108	n/a	WORD	648054	wordpools/wasnorm_wordpool_576.txt	LTP305	ltpFR2	4	6	MARKET	871	n/a	n/a	0	0	0
1298.768	n/a	WORD	649384	wordpools/wasnorm_wordpool_576.txt	LTP305	ltpFR2	4	6	LUNCH	849	n/a	n/a	0	0	0
1301.564	n/a	WORD	650782	wordpools/wasnorm_wordpool_576.txt	LTP305	ltpFR2	4	6	LOVER	846	n/a	n/a	0	0	0
1304.124	n/a	WORD	652062	wordpools/wasnorm_wordpool_576.txt	LTP305	ltpFR2	4	6	BREAST	171	n/a	n/a	0	0	0
1306.668	n/a	WORD	653334	wordpools/wasnorm_wordpool_576.txt	LTP305	ltpFR2	4	6	BARLEY	88	n/a	n/a	0	0	0
1309.26	n/a	WORD	654630	wordpools/wasnorm_wordpool_576.txt	LTP305	ltpFR2	4	6	CUSTARD	429	n/a	n/a	0	0	0
1312.014	n/a	WORD	656007	wordpools/wasnorm_wordpool_576.txt	LTP305	ltpFR2	4	6	BRANCH	168	n/a	n/a	0	0	0
1314.724	n/a	WORD	657362	wordpools/wasnorm_wordpool_576.txt	LTP305	ltpFR2	4	6	ROBBER	1197	n/a	n/a	0	0	0
1316.332	n/a	START	658166	n/a	LTP305	ltpFR2	4	n/a	n/a	n/a	8	n/a	n/a	n/a	n/a
1317.29	n/a	DISTRACTOR	658645	n/a	LTP305	ltpFR2	4	6	n/a	n/a	n/a	n/a	0	0	0
1317.3	n/a	PROB	658650	n/a	LTP305	ltpFR2	4	n/a	n/a	n/a	8	21	8	8	5
1320.31	n/a	PROB	660155	n/a	LTP305	ltpFR2	4	n/a	n/a	n/a	8	15	5	5	5
1321.696	n/a	PROB	660848	n/a	LTP305	ltpFR2	4	n/a	n/a	n/a	8	12	2	8	2
1323.494	n/a	PROB	661747	n/a	LTP305	ltpFR2	4	n/a	n/a	n/a	8	12	5	2	5
1325.414	n/a	PROB	662707	n/a	LTP305	ltpFR2	4	n/a	n/a	n/a	8	16	2	7	7
1327.148	n/a	PROB	663574	n/a	LTP305	ltpFR2	4	n/a	n/a	n/a	8	18	3	8	7
1330.702	n/a	PROB	665351	n/a	LTP305	ltpFR2	4	n/a	n/a	n/a	8	24	8	8	8
1332.402	n/a	PROB	666201	n/a	LTP305	ltpFR2	4	n/a	n/a	n/a	8	20	7	9	4
1334.202	n/a	PROB	667101	n/a	LTP305	ltpFR2	4	n/a	n/a	n/a	8	8	2	3	3
1336.388	n/a	PROB	668194	n/a	LTP305	ltpFR2	4	n/a	n/a	n/a	8	17	4	9	4
1338.868	n/a	STOP	669434	n/a	LTP305	ltpFR2	4	n/a	n/a	n/a	8	n/a	n/a	n/a	n/a
1342.092	n/a	REC_START	671046	n/a	LTP305	ltpFR2	4	6	n/a	n/a	n/a	n/a	0	0	0
1343.092	n/a	REC_WORD	671546	wordpools/wasnorm_wordpool_576.txt	LTP305	ltpFR2	4	6	VIKING	1565	n/a	n/a	0	0	0
1344.306	n/a	REC_WORD	672153	wordpools/wasnorm_wordpool_576.txt	LTP305	ltpFR2	4	6	CABIN	211	n/a	n/a	0	0	0
1345.402	n/a	REC_WORD	672701	wordpools/wasnorm_wordpool_576.txt	LTP305	ltpFR2	4	6	MUFFIN	929	n/a	n/a	0	0	0
1346.506	n/a	REC_WORD	673253	wordpools/wasnorm_wordpool_576.txt	LTP305	ltpFR2	4	6	SCARECROW	1245	n/a	n/a	0	0	0
1432.55	n/a	DISTRACTOR	716275	n/a	LTP305	ltpFR2	4	7	n/a	n/a	n/a	n/a	0	0	0
1432.55	n/a	START	716275	n/a	LTP305	ltpFR2	4	n/a	n/a	n/a	9	n/a	n/a	n/a	n/a
1432.564	n/a	PROB	716282	n/a	LTP305	ltpFR2	4	n/a	n/a	n/a	9	17	6	4	7
1435.6	n/a	PROB	717800	n/a	LTP305	ltpFR2	4	n/a	n/a	n/a	9	17	4	6	7
1437.502	n/a	PROB	718751	n/a	LTP305	ltpFR2	4	n/a	n/a	n/a	9	12	5	5	2
1439.952	n/a	PROB	719976	n/a	LTP305	ltpFR2	4	n/a	n/a	n/a	9	12	2	5	5
1441.238	n/a	PROB	720619	n/a	LTP305	ltpFR2	4	n/a	n/a	n/a	9	21	9	9	3
1442.988	n/a	PROB	721494	n/a	LTP305	ltpFR2	4	n/a	n/a	n/a	9	20	5	9	6
1444.658	n/a	PROB	722329	n/a	LTP305	ltpFR2	4	n/a	n/a	n/a	9	8	6	1	1
1445.96	n/a	PROB	722980	n/a	LTP305	ltpFR2	4	n/a	n/a	n/a	9	10	4	3	3
1448.36	n/a	PROB	724180	n/a	LTP305	ltpFR2	4	n/a	n/a	n/a	9	12	6	5	1
1449.826	n/a	PROB	724913	n/a	LTP305	ltpFR2	4	n/a	n/a	n/a	9	10	8	1	1
1451.144	n/a	PROB	725572	n/a	LTP305	ltpFR2	4	n/a	n/a	n/a	9	14	3	3	8
1453.18	n/a	PROB	726590	n/a	LTP305	ltpFR2	4	n/a	n/a	n/a	9	13	6	2	5
1456.55	n/a	STOP	728275	n/a	LTP305	ltpFR2	4	n/a	n/a	n/a	9	n/a	n/a	n/a	n/a
1457.586	n/a	WORD	728793	wordpools/wasnorm_wordpool_576.txt	LTP305	ltpFR2	4	7	COCOON	339	n/a	n/a	0	0	0
1460.12	n/a	WORD	730060	wordpools/wasnorm_wordpool_576.txt	LTP305	ltpFR2	4	7	LADY	794	n/a	n/a	0	0	0
1462.672	n/a	WORD	731336	wordpools/wasnorm_wordpool_576.txt	LTP305	ltpFR2	4	7	DRESSER	496	n/a	n/a	0	0	0
1465.156	n/a	WORD	732578	wordpools/wasnorm_wordpool_576.txt	LTP305	ltpFR2	4	7	COSTUME	383	n/a	n/a	0	0	0
1467.746	n/a	WORD	733873	wordpools/wasnorm_wordpool_576.txt	LTP305	ltpFR2	4	7	PARENT	1013	n/a	n/a	0	0	0
1470.176	n/a	WORD	735088	wordpools/wasnorm_wordpool_576.txt	LTP305	ltpFR2	4	7	LIZARD	834	n/a	n/a	0	0	0
1472.596	n/a	WORD	736298	wordpools/wasnorm_wordpool_576.txt	LTP305	ltpFR2	4	7	SHELF	1280	n/a	n/a	0	0	0
1475.298	n/a	WORD	737649	wordpools/wasnorm_wordpool_576.txt	LTP305	ltpFR2	4	7	CABBAGE	210	n/a	n/a	0	0	0
1478.086	n/a	WORD	739043	wordpools/wasnorm_wordpool_576.txt	LTP305	ltpFR2	4	7	KNAPSACK	783	n/a	n/a	0	0	0
1480.884	n/a	WORD	740442	wordpools/wasnorm_wordpool_576.txt	LTP305	ltpFR2	4	7	CLAMP	316	n/a	n/a	0	0	0
1483.588	n/a	WORD	741794	wordpools/wasnorm_wordpool_576.txt	LTP305	ltpFR2	4	7	COUSIN	392	n/a	n/a	0	0	0
1486.106	n/a	WORD	743053	wordpools/wasnorm_wordpool_576.txt	LTP305	ltpFR2	4	7	REBEL	1172	n/a	n/a	0	0	0
1488.664	n/a	WORD	744332	wordpools/wasnorm_wordpool_576.txt	LTP305	ltpFR2	4	7	ARMY	39	n/a	n/a	0	0	0
1491.11	n/a	WORD	745555	wordpools/wasnorm_wordpool_576.txt	LTP305	ltpFR2	4	7	APPLE	33	n/a	n/a	0	0	0
1493.748	n/a	WORD	746874	wordpools/wasnorm_wordpool_576.txt	LTP305	ltpFR2	4	7	JOURNAL	760	n/a	n/a	0	0	0
1496.502	n/a	WORD	748251	wordpools/wasnorm_wordpool_576.txt	LTP305	ltpFR2	4	7	CRIB	407	n/a	n/a	0	0	0
1499.006	n/a	WORD	749503	wordpools/wasnorm_wordpool_576.txt	LTP305	ltpFR2	4	7	INFANT	737	n/a	n/a	0	0	0
1501.484	n/a	WORD	750742	wordpools/wasnorm_wordpool_576.txt	LTP305	ltpFR2	4	7	JELLY	755	n/a	n/a	0	0	0
1504.07	n/a	WORD	752035	wordpools/wasnorm_wordpool_576.txt	LTP305	ltpFR2	4	7	CRICKET	408	n/a	n/a	0	0	0
1506.522	n/a	WORD	753261	wordpools/wasnorm_wordpool_576.txt	LTP305	ltpFR2	4	7	FLEET	578	n/a	n/a	0	0	0
1509.074	n/a	WORD	754537	wordpools/wasnorm_wordpool_576.txt	LTP305	ltpFR2	4	7	PISTON	1076	n/a	n/a	0	0	0
1511.692	n/a	WORD	755846	wordpools/wasnorm_wordpool_576.txt	LTP305	ltpFR2	4	7	WRIST	1626	n/a	n/a	0	0	0
1514.394	n/a	WORD	757197	wordpools/wasnorm_wordpool_576.txt	LTP305	ltpFR2	4	7	STAR	1373	n/a	n/a	0	0	0
1516.868	n/a	WORD	758434	wordpools/wasnorm_wordpool_576.txt	LTP305	ltpFR2	4	7	IDOL	733	n/a	n/a	0	0	0
1518.482	n/a	START	759241	n/a	LTP305	ltpFR2	4	n/a	n/a	n/a	10	n/a	n/a	n/a	n/a
1519.298	n/a	DISTRACTOR	759649	n/a	LTP305	ltpFR2	4	7	n/a	n/a	n/a	n/a	0	0	0
1519.306	n/a	PROB	759653	n/a	LTP305	ltpFR2	4	n/a	n/a	n/a	10	12	1	2	9
1521.634	n/a	PROB	760817	n/a	LTP305	ltpFR2	4	n/a	n/a	n/a	10	12	4	4	4
1523.002	n/a	PROB	761501	n/a	LTP305	ltpFR2	4	n/a	n/a	n/a	10	25	9	9	7
1524.62	n/a	PROB	762310	n/a	LTP305	ltpFR2	4	n/a	n/a	n/a	10	18	3	8	7
1527.236	n/a	PROB	763618	n/a	LTP305	ltpFR2	4	n/a	n/a	n/a	10	16	9	5	2
1529.156	n/a	PROB	764578	n/a	LTP305	ltpFR2	4	n/a	n/a	n/a	10	13	3	1	9
1530.558	n/a	PROB	765279	n/a	LTP305	ltpFR2	4	n/a	n/a	n/a	10	10	4	1	5
1532.29	n/a	PROB	766145	n/a	LTP305	ltpFR2	4	n/a	n/a	n/a	10	21	6	9	6
1534.228	n/a	PROB	767114	n/a	LTP305	ltpFR2	4	n/a	n/a	n/a	10	23	9	9	5
1535.894	n/a	PROB	767947	n/a	LTP305	ltpFR2	4	n/a	n/a	n/a	10	11	3	1	7
1537.43	n/a	PROB	768715	n/a	LTP305	ltpFR2	4	n/a	n/a	n/a	10	22	8	9	5
1542.482	n/a	STOP	771241	n/a	LTP305	ltpFR2	4	n/a	n/a	n/a	10	n/a	n/a	n/a	n/a
1544.252	n/a	REC_START	772126	n/a	LTP305	ltpFR2	4	7	n/a	n/a	n/a	n/a	0	0	0
1558.688	n/a	REC_WORD	779344	wordpools/wasnorm_wordpool_576.txt	LTP305	ltpFR2	4	7	IDOL	733	n/a	n/a	0	0	0
1559.864	n/a	REC_WORD	779932	wordpools/wasnorm_wordpool_576.txt	LTP305	ltpFR2	4	7	STAR	1373	n/a	n/a	0	0	0
1562.354	n/a	REC_WORD	781177	wordpools/wasnorm_wordpool_576.txt	LTP305	ltpFR2	4	7	PISTOL	1075	n/a	n/a	0	0	0
1604.414	n/a	REC_WORD	802207	wordpools/wasnorm_wordpool_576.txt	LTP305	ltpFR2	4	7	COUSIN	392	n/a	n/a	0	0	0
1605.65	n/a	REC_WORD	802825	wordpools/wasnorm_wordpool_576.txt	LTP305	ltpFR2	4	7	PARENT	1013	n/a	n/a	0	0	0
1610.998	n/a	REC_WORD	805499	wordpools/wasnorm_wordpool_576.txt	LTP305	ltpFR2	4	7	CLAMP	316	n/a	n/a	0	0	0
1634.686	n/a	WORD	817343	wordpools/wasnorm_wordpool_576.txt	LTP305	ltpFR2	4	8	SHARK	1275	n/a	n/a	0	0	0
1637.22	n/a	WORD	818610	wordpools/wasnorm_wordpool_576.txt	LTP305	ltpFR2	4	8	FLIPPER	580	n/a	n/a	0	0	0
1639.774	n/a	WORD	819887	wordpools/wasnorm_wordpool_576.txt	LTP305	ltpFR2	4	8	SCALLOP	1242	n/a	n/a	0	0	0
1642.46	n/a	WORD	821230	wordpools/wasnorm_wordpool_576.txt	LTP305	ltpFR2	4	8	INMATE	738	n/a	n/a	0	0	0
1644.912	n/a	WORD	822456	wordpools/wasnorm_wordpool_576.txt	LTP305	ltpFR2	4	8	OINTMENT	974	n/a	n/a	0	0	0
1647.498	n/a	WORD	823749	wordpools/wasnorm_wordpool_576.txt	LTP305	ltpFR2	4	8	SCRIBBLE	1256	n/a	n/a	0	0	0
1649.932	n/a	WORD	824966	wordpools/wasnorm_wordpool_576.txt	LTP305	ltpFR2	4	8	BANKER	84	n/a	n/a	0	0	0
1652.486	n/a	WORD	826243	wordpools/wasnorm_wordpool_576.txt	LTP305	ltpFR2	4	8	COIN	343	n/a	n/a	0	0	0
1655.138	n/a	WORD	827569	wordpools/wasnorm_wordpool_576.txt	LTP305	ltpFR2	4	8	QUARTER	1148	n/a	n/a	0	0	0
1657.84	n/a	WORD	828920	wordpools/wasnorm_wordpool_576.txt	LTP305	ltpFR2	4	8	WORLD	1622	n/a	n/a	0	0	0
1660.626	n/a	WORD	830313	wordpools/wasnorm_wordpool_576.txt	LTP305	ltpFR2	4	8	SALMON	1227	n/a	n/a	0	0	0
1663.378	n/a	WORD	831689	wordpools/wasnorm_wordpool_576.txt	LTP305	ltpFR2	4	8	HORNET	718	n/a	n/a	0	0	0
1666.046	n/a	WORD	833023	wordpools/wasnorm_wordpool_576.txt	LTP305	ltpFR2	4	8	CRAB	397	n/a	n/a	0	0	0
1668.532	n/a	WORD	834266	wordpools/wasnorm_wordpool_576.txt	LTP305	ltpFR2	4	8	TRANSPLANT	1496	n/a	n/a	0	0	0
1670.966	n/a	WORD	835483	wordpools/wasnorm_wordpool_576.txt	LTP305	ltpFR2	4	8	TYPIST	1532	n/a	n/a	0	0	0
1673.452	n/a	WORD	836726	wordpools/wasnorm_wordpool_576.txt	LTP305	ltpFR2	4	8	BADGE	68	n/a	n/a	0	0	0
1675.972	n/a	WORD	837986	wordpools/wasnorm_wordpool_576.txt	LTP305	ltpFR2	4	8	SALT	1229	n/a	n/a	0	0	0
1678.574	n/a	WORD	839287	wordpools/wasnorm_wordpool_576.txt	LTP305	ltpFR2	4	8	PARTNER	1017	n/a	n/a	0	0	0
1681.174	n/a	WORD	840587	wordpools/wasnorm_wordpool_576.txt	LTP305	ltpFR2	4	8	COMET	353	n/a	n/a	0	0	0
1683.678	n/a	WORD	841839	wordpools/wasnorm_wordpool_576.txt	LTP305	ltpFR2	4	8	ICEBERG	731	n/a	n/a	0	0	0
1686.112	n/a	WORD	843056	wordpools/wasnorm_wordpool_576.txt	LTP305	ltpFR2	4	8	NAPKIN	937	n/a	n/a	0	0	0
1688.864	n/a	WORD	844432	wordpools/wasnorm_wordpool_576.txt	LTP305	ltpFR2	4	8	BRIEFCASE	175	n/a	n/a	0	0	0
1691.416	n/a	WORD	845708	wordpools/wasnorm_wordpool_576.txt	LTP305	ltpFR2	4	8	POLICE	1098	n/a	n/a	0	0	0
1694.134	n/a	WORD	847067	wordpools/wasnorm_wordpool_576.txt	LTP305	ltpFR2	4	8	BLENDER	136	n/a	n/a	0	0	0
1695.74	n/a	START	847870	n/a	LTP305	ltpFR2	4	n/a	n/a	n/a	11	n/a	n/a	n/a	n/a
1696.608	n/a	DISTRACTOR	848304	n/a	LTP305	ltpFR2	4	8	n/a	n/a	n/a	n/a	0	0	0
1696.62	n/a	PROB	848310	n/a	LTP305	ltpFR2	4	n/a	n/a	n/a	11	14	5	7	2
1698.904	n/a	PROB	849452	n/a	LTP305	ltpFR2	4	n/a	n/a	n/a	11	13	5	1	7
1700.89	n/a	PROB	850445	n/a	LTP305	ltpFR2	4	n/a	n/a	n/a	11	19	8	7	4
1702.456	n/a	PROB	851228	n/a	LTP305	ltpFR2	4	n/a	n/a	n/a	11	15	2	4	9
1704.494	n/a	PROB	852247	n/a	LTP305	ltpFR2	4	n/a	n/a	n/a	11	17	3	9	5
1707.512	n/a	PROB	853756	n/a	LTP305	ltpFR2	4	n/a	n/a	n/a	11	20	6	5	9
1710.264	n/a	PROB	855132	n/a	LTP305	ltpFR2	4	n/a	n/a	n/a	11	16	4	7	5
1712.164	n/a	PROB	856082	n/a	LTP305	ltpFR2	4	n/a	n/a	n/a	11	19	3	9	7
1715.018	n/a	PROB	857509	n/a	LTP305	ltpFR2	4	n/a	n/a	n/a	11	19	8	7	4
1716.668	n/a	PROB	858334	n/a	LTP305	ltpFR2	4	n/a	n/a	n/a	11	7	2	1	4
1718.972	n/a	STOP	859486	n/a	LTP305	ltpFR2	4	n/a	n/a	n/a	11	n/a	n/a	n/a	n/a
1721.542	n/a	REC_START	860771	n/a	LTP305	ltpFR2	4	8	n/a	n/a	n/a	n/a	0	0	0
1722.048	n/a	REC_WORD	861024	wordpools/wasnorm_wordpool_576.txt	LTP305	ltpFR2	4	8	SHARK	1275	n/a	n/a	0	0	0
1723.108	n/a	REC_WORD	861554	wordpools/wasnorm_wordpool_576.txt	LTP305	ltpFR2	4	8	FLIPPER	580	n/a	n/a	0	0	0
1723.984	n/a	REC_WORD	861992	wordpools/wasnorm_wordpool_576.txt	LTP305	ltpFR2	4	8	SCALLOP	1242	n/a	n/a	0	0	0
1725.476	n/a	REC_WORD	862738	wordpools/wasnorm_wordpool_576.txt	LTP305	ltpFR2	4	8	INMATE	738	n/a	n/a	0	0	0
1726.658	n/a	REC_WORD	863329	wordpools/wasnorm_wordpool_576.txt	LTP305	ltpFR2	4	8	OINTMENT	974	n/a	n/a	0	0	0
1727.64	n/a	REC_WORD	863820	wordpools/wasnorm_wordpool_576.txt	LTP305	ltpFR2	4	8	NAPKIN	937	n/a	n/a	0	0	0
1729.32	n/a	REC_WORD	864660	wordpools/wasnorm_wordpool_576.txt	LTP305	ltpFR2	4	8	BANKER	84	n/a	n/a	0	0	0
1730.378	n/a	REC_WORD	865189	wordpools/wasnorm_wordpool_576.txt	LTP305	ltpFR2	4	8	COIN	343	n/a	n/a	0	0	0
1731.538	n/a	REC_WORD	865769	wordpools/wasnorm_wordpool_576.txt	LTP305	ltpFR2	4	8	QUARTER	1148	n/a	n/a	0	0	0
1733.014	n/a	REC_WORD	866507	wordpools/wasnorm_wordpool_576.txt	LTP305	ltpFR2	4	8	BRIEFCASE	175	n/a	n/a	0	0	0
1735.082	n/a	REC_WORD	867541	wordpools/wasnorm_wordpool_576.txt	LTP305	ltpFR2	4	8	ICEBERG	731	n/a	n/a	0	0	0
1741.164	n/a	REC_WORD	870582	wordpools/wasnorm_wordpool_576.txt	LTP305	ltpFR2	4	8	CABBAGE	210	n/a	n/a	0	0	0
1746.418	n/a	REC_WORD	873209	wordpools/wasnorm_wordpool_576.txt	LTP305	ltpFR2	4	8	SALMON	1227	n/a	n/a	0	0	0
1747.808	n/a	REC_WORD	873904	wordpools/wasnorm_wordpool_576.txt	LTP305	ltpFR2	4	8	WORLD	1622	n/a	n/a	0	0	0
1798.066	n/a	REST_REWET	899033	n/a	LTP305	ltpFR2	4	8	n/a	n/a	n/a	n/a	0	0	0
2142.484	n/a	WORD	1071242	wordpools/wasnorm_wordpool_576.txt	LTP305	ltpFR2	4	9	YARN	1631	n/a	n/a	0	0	0
2144.936	n/a	WORD	1072468	wordpools/wasnorm_wordpool_576.txt	LTP305	ltpFR2	4	9	PLAZA	1088	n/a	n/a	0	0	0
2147.738	n/a	WORD	1073869	wordpools/wasnorm_wordpool_576.txt	LTP305	ltpFR2	4	9	NECKLACE	940	n/a	n/a	0	0	0
2150.19	n/a	WORD	1075095	wordpools/wasnorm_wordpool_576.txt	LTP305	ltpFR2	4	9	TOURIST	1488	n/a	n/a	0	0	0
2152.776	n/a	WORD	1076388	wordpools/wasnorm_wordpool_576.txt	LTP305	ltpFR2	4	9	SNAKE	1333	n/a	n/a	0	0	0
2155.494	n/a	WORD	1077747	wordpools/wasnorm_wordpool_576.txt	LTP305	ltpFR2	4	9	UNCLE	1536	n/a	n/a	0	0	0
2158.296	n/a	WORD	1079148	wordpools/wasnorm_wordpool_576.txt	LTP305	ltpFR2	4	9	LETTUCE	814	n/a	n/a	0	0	0
2160.982	n/a	WORD	1080491	wordpools/wasnorm_wordpool_576.txt	LTP305	ltpFR2	4	9	RADISH	1158	n/a	n/a	0	0	0
2163.452	n/a	WORD	1081726	wordpools/wasnorm_wordpool_576.txt	LTP305	ltpFR2	4	9	RECORD	1176	n/a	n/a	0	0	0
2166.02	n/a	WORD	1083010	wordpools/wasnorm_wordpool_576.txt	LTP305	ltpFR2	4	9	OYSTER	995	n/a	n/a	0	0	0
2168.756	n/a	WORD	1084378	wordpools/wasnorm_wordpool_576.txt	LTP305	ltpFR2	4	9	LONDON	843	n/a	n/a	0	0	0
2171.24	n/a	WORD	1085620	wordpools/wasnorm_wordpool_576.txt	LTP305	ltpFR2	4	9	SPOOL	1356	n/a	n/a	0	0	0
2173.96	n/a	WORD	1086980	wordpools/wasnorm_wordpool_576.txt	LTP305	ltpFR2	4	9	FOX	598	n/a	n/a	0	0	0
2176.646	n/a	WORD	1088323	wordpools/wasnorm_wordpool_576.txt	LTP305	ltpFR2	4	9	MONSTER	912	n/a	n/a	0	0	0
2179.078	n/a	WORD	1089539	wordpools/wasnorm_wordpool_576.txt	LTP305	ltpFR2	4	9	DOLPHIN	483	n/a	n/a	0	0	0
2181.816	n/a	WORD	1090908	wordpools/wasnorm_wordpool_576.txt	LTP305	ltpFR2	4	9	CORAL	378	n/a	n/a	0	0	0
2184.466	n/a	WORD	1092233	wordpools/wasnorm_wordpool_576.txt	LTP305	ltpFR2	4	9	PERCH	1048	n/a	n/a	0	0	0
2187.252	n/a	WORD	1093626	wordpools/wasnorm_wordpool_576.txt	LTP305	ltpFR2	4	9	CUPBOARD	425	n/a	n/a	0	0	0
2189.974	n/a	WORD	1094987	wordpools/wasnorm_wordpool_576.txt	LTP305	ltpFR2	4	9	BACKBONE	66	n/a	n/a	0	0	0
2192.742	n/a	WORD	1096371	wordpools/wasnorm_wordpool_576.txt	LTP305	ltpFR2	4	9	GARLIC	624	n/a	n/a	0	0	0
2195.226	n/a	WORD	1097613	wordpools/wasnorm_wordpool_576.txt	LTP305	ltpFR2	4	9	FRAGRANCE	599	n/a	n/a	0	0	0
2197.778	n/a	WORD	1098889	wordpools/wasnorm_wordpool_576.txt	LTP305	ltpFR2	4	9	DRESS	495	n/a	n/a	0	0	0
2200.43	n/a	WORD	1100215	wordpools/wasnorm_wordpool_576.txt	LTP305	ltpFR2	4	9	TREAT	1501	n/a	n/a	0	0	0
2203.232	n/a	WORD	1101616	wordpools/wasnorm_wordpool_576.txt	LTP305	ltpFR2	4	9	PLASTER	1085	n/a	n/a	0	0	0
2204.838	n/a	START	1102419	n/a	LTP305	ltpFR2	4	n/a	n/a	n/a	12	n/a	n/a	n/a	n/a
2205.782	n/a	DISTRACTOR	1102891	n/a	LTP305	ltpFR2	4	9	n/a	n/a	n/a	n/a	0	0	0
2205.788	n/a	PROB	1102894	n/a	LTP305	ltpFR2	4	n/a	n/a	n/a	12	13	3	2	8
2208.368	n/a	PROB	1104184	n/a	LTP305	ltpFR2	4	n/a	n/a	n/a	12	22	6	8	8
2210.136	n/a	PROB	1105068	n/a	LTP305	ltpFR2	4	n/a	n/a	n/a	12	10	2	7	1
2211.954	n/a	PROB	1105977	n/a	LTP305	ltpFR2	4	n/a	n/a	n/a	12	15	2	8	5
2214.924	n/a	PROB	1107462	n/a	LTP305	ltpFR2	4	n/a	n/a	n/a	12	18	4	9	5
2216.992	n/a	PROB	1108496	n/a	LTP305	ltpFR2	4	n/a	n/a	n/a	12	20	8	8	4
2218.776	n/a	PROB	1109388	n/a	LTP305	ltpFR2	4	n/a	n/a	n/a	12	15	6	7	2
2220.512	n/a	PROB	1110256	n/a	LTP305	ltpFR2	4	n/a	n/a	n/a	12	11	4	1	6
2222.312	n/a	PROB	1111156	n/a	LTP305	ltpFR2	4	n/a	n/a	n/a	12	23	8	6	9
2223.814	n/a	PROB	1111907	n/a	LTP305	ltpFR2	4	n/a	n/a	n/a	12	27	9	9	9
2225.966	n/a	PROB	1112983	n/a	LTP305	ltpFR2	4	n/a	n/a	n/a	12	13	1	4	8
2227.812	n/a	STOP	1113906	n/a	LTP305	ltpFR2	4	n/a	n/a	n/a	12	n/a	n/a	n/a	n/a
2230.688	n/a	REC_START	1115344	n/a	LTP305	ltpFR2	4	9	n/a	n/a	n/a	n/a	0	0	0
2238.454	n/a	REC_WORD	1119227	wordpools/wasnorm_wordpool_576.txt	LTP305	ltpFR2	4	9	YARN	1631	n/a	n/a	0	0	0
2240.108	n/a	REC_WORD	1120054	wordpools/wasnorm_wordpool_576.txt	LTP305	ltpFR2	4	9	SPOOL	1356	n/a	n/a	0	0	0
2241.988	n/a	REC_WORD	1120994	wordpools/wasnorm_wordpool_576.txt	LTP305	ltpFR2	4	9	PLAZA	1088	n/a	n/a	0	0	0
2243.362	n/a	REC_WORD	1121681	wordpools/wasnorm_wordpool_576.txt	LTP305	ltpFR2	4	9	TOURIST	1488	n/a	n/a	0	0	0
2245.3	n/a	REC_WORD	1122650	wordpools/wasnorm_wordpool_576.txt	LTP305	ltpFR2	4	9	NECKLACE	940	n/a	n/a	0	0	0
2247.13	n/a	REC_WORD	1123565	wordpools/wasnorm_wordpool_576.txt	LTP305	ltpFR2	4	9	MONSTER	912	n/a	n/a	0	0	0
2248.484	n/a	REC_WORD	1124242	wordpools/wasnorm_wordpool_576.txt	LTP305	ltpFR2	4	9	DOLPHIN	483	n/a	n/a	0	0	0
2321.102	n/a	DISTRACTOR	1160551	n/a	LTP305	ltpFR2	4	10	n/a	n/a	n/a	n/a	0	0	0
2321.102	n/a	START	1160551	n/a	LTP305	ltpFR2	4	n/a	n/a	n/a	13	n/a	n/a	n/a	n/a
2321.12	n/a	PROB	1160560	n/a	LTP305	ltpFR2	4	n/a	n/a	n/a	13	19	7	6	6
2323.642	n/a	PROB	1161821	n/a	LTP305	ltpFR2	4	n/a	n/a	n/a	13	15	1	6	8
2325.11	n/a	PROB	1162555	n/a	LTP305	ltpFR2	4	n/a	n/a	n/a	13	17	6	6	5
2326.844	n/a	PROB	1163422	n/a	LTP305	ltpFR2	4	n/a	n/a	n/a	13	14	7	3	4
2328.398	n/a	PROB	1164199	n/a	LTP305	ltpFR2	4	n/a	n/a	n/a	13	14	3	8	3
2330.348	n/a	PROB	1165174	n/a	LTP305	ltpFR2	4	n/a	n/a	n/a	13	14	1	6	7
2332.182	n/a	PROB	1166091	n/a	LTP305	ltpFR2	4	n/a	n/a	n/a	13	19	4	7	8
2333.868	n/a	PROB	1166934	n/a	LTP305	ltpFR2	4	n/a	n/a	n/a	13	17	7	5	5
2335.296	n/a	PROB	1167648	n/a	LTP305	ltpFR2	4	n/a	n/a	n/a	13	10	2	1	7
2337.432	n/a	PROB	1168716	n/a	LTP305	ltpFR2	4	n/a	n/a	n/a	13	10	5	2	3
2339.122	n/a	PROB	1169561	n/a	LTP305	ltpFR2	4	n/a	n/a	n/a	13	12	6	1	5
2341.07	n/a	PROB	1170535	n/a	LTP305	ltpFR2	4	n/a	n/a	n/a	13	19	2	9	8
2343.59	n/a	STOP	1171795	n/a	LTP305	ltpFR2	4	n/a	n/a	n/a	13	n/a	n/a	n/a	n/a
2346.258	n/a	WORD	1173129	wordpools/wasnorm_wordpool_576.txt	LTP305	ltpFR2	4	10	COD	340	n/a	n/a	0	0	0
2348.91	n/a	WORD	1174455	wordpools/wasnorm_wordpool_576.txt	LTP305	ltpFR2	4	10	BANK	83	n/a	n/a	0	0	0
2351.562	n/a	WORD	1175781	wordpools/wasnorm_wordpool_576.txt	LTP305	ltpFR2	4	10	PISTOL	1075	n/a	n/a	0	0	0
2354.13	n/a	WORD	1177065	wordpools/wasnorm_wordpool_576.txt	LTP305	ltpFR2	4	10	ONION	977	n/a	n/a	0	0	0
2356.752	n/a	WORD	1178376	wordpools/wasnorm_wordpool_576.txt	LTP305	ltpFR2	4	10	WIDOW	1608	n/a	n/a	0	0	0
2359.4	n/a	WORD	1179700	wordpools/wasnorm_wordpool_576.txt	LTP305	ltpFR2	4	10	THREAD	1460	n/a	n/a	0	0	0
2362.12	n/a	WORD	1181060	wordpools/wasnorm_wordpool_576.txt	LTP305	ltpFR2	4	10	AIRPLANE	12	n/a	n/a	0	0	0
2364.608	n/a	WORD	1182304	wordpools/wasnorm_wordpool_576.txt	LTP305	ltpFR2	4	10	CONCERT	360	n/a	n/a	0	0	0
2367.092	n/a	WORD	1183546	wordpools/wasnorm_wordpool_576.txt	LTP305	ltpFR2	4	10	STAPLE	1371	n/a	n/a	0	0	0
2369.696	n/a	WORD	1184848	wordpools/wasnorm_wordpool_576.txt	LTP305	ltpFR2	4	10	NEUTRON	947	n/a	n/a	0	0	0
2372.48	n/a	WORD	1186240	wordpools/wasnorm_wordpool_576.txt	LTP305	ltpFR2	4	10	HOOK	715	n/a	n/a	0	0	0
2375.166	n/a	WORD	1187583	wordpools/wasnorm_wordpool_576.txt	LTP305	ltpFR2	4	10	SWORD	1423	n/a	n/a	0	0	0
2377.718	n/a	WORD	1188859	wordpools/wasnorm_wordpool_576.txt	LTP305	ltpFR2	4	10	BLADE	134	n/a	n/a	0	0	0
2380.538	n/a	WORD	1190269	wordpools/wasnorm_wordpool_576.txt	LTP305	ltpFR2	4	10	JAPAN	749	n/a	n/a	0	0	0
2383.256	n/a	WORD	1191628	wordpools/wasnorm_wordpool_576.txt	LTP305	ltpFR2	4	10	DANCER	437	n/a	n/a	0	0	0
2385.858	n/a	WORD	1192929	wordpools/wasnorm_wordpool_576.txt	LTP305	ltpFR2	4	10	FOOTBALL	591	n/a	n/a	0	0	0
2388.308	n/a	WORD	1194154	wordpools/wasnorm_wordpool_576.txt	LTP305	ltpFR2	4	10	SCISSORS	1250	n/a	n/a	0	0	0
2391.062	n/a	WORD	1195531	wordpools/wasnorm_wordpool_576.txt	LTP305	ltpFR2	4	10	RAZOR	1171	n/a	n/a	0	0	0
2393.83	n/a	WORD	1196915	wordpools/wasnorm_wordpool_576.txt	LTP305	ltpFR2	4	10	TUTU	1524	n/a	n/a	0	0	0
2396.482	n/a	WORD	1198241	wordpools/wasnorm_wordpool_576.txt	LTP305	ltpFR2	4	10	SKIRT	1319	n/a	n/a	0	0	0
2398.934	n/a	WORD	1199467	wordpools/wasnorm_wordpool_576.txt	LTP305	ltpFR2	4	10	CASHIER	254	n/a	n/a	0	0	0
2401.722	n/a	WORD	1200861	wordpools/wasnorm_wordpool_576.txt	LTP305	ltpFR2	4	10	BARREL	91	n/a	n/a	0	0	0
2404.524	n/a	WORD	1202262	wordpools/wasnorm_wordpool_576.txt	LTP305	ltpFR2	4	10	BRACES	164	n/a	n/a	0	0	0
2407.024	n/a	WORD	1203512	wordpools/wasnorm_wordpool_576.txt	LTP305	ltpFR2	4	10	OZONE	996	n/a	n/a	0	0	0
2408.626	n/a	START	1204313	n/a	LTP305	ltpFR2	4	n/a	n/a	n/a	14	n/a	n/a	n/a	n/a
2409.584	n/a	DISTRACTOR	1204792	n/a	LTP305	ltpFR2	4	10	n/a	n/a	n/a	n/a	0	0	0
2409.594	n/a	PROB	1204797	n/a	LTP305	ltpFR2	4	n/a	n/a	n/a	14	5	3	1	1
2411.36	n/a	PROB	1205680	n/a	LTP305	ltpFR2	4	n/a	n/a	n/a	14	12	3	8	1
2413.512	n/a	PROB	1206756	n/a	LTP305	ltpFR2	4	n/a	n/a	n/a	14	12	3	7	2
2415.43	n/a	PROB	1207715	n/a	LTP305	ltpFR2	4	n/a	n/a	n/a	14	10	1	1	8
2416.78	n/a	PROB	1208390	n/a	LTP305	ltpFR2	4	n/a	n/a	n/a	14	13	6	4	3
2418.666	n/a	PROB	1209333	n/a	LTP305	ltpFR2	4	n/a	n/a	n/a	14	16	3	4	9
2420.984	n/a	PROB	1210492	n/a	LTP305	ltpFR2	4	n/a	n/a	n/a	14	21	6	6	9
2422.636	n/a	PROB	1211318	n/a	LTP305	ltpFR2	4	n/a	n/a	n/a	14	14	5	5	4
2424.354	n/a	PROB	1212177	n/a	LTP305	ltpFR2	4	n/a	n/a	n/a	14	15	5	9	1
2425.872	n/a	PROB	1212936	n/a	LTP305	ltpFR2	4	n/a	n/a	n/a	14	12	8	3	1
2427.122	n/a	PROB	1213561	n/a	LTP305	ltpFR2	4	n/a	n/a	n/a	14	17	7	2	8
2428.924	n/a	PROB	1214462	n/a	LTP305	ltpFR2	4	n/a	n/a	n/a	14	16	4	5	7
2430.692	n/a	PROB	1215346	n/a	LTP305	ltpFR2	4	n/a	n/a	n/a	14	15	9	1	5
2432.528	n/a	STOP	1216264	n/a	LTP305	ltpFR2	4	n/a	n/a	n/a	14	n/a	n/a	n/a	n/a
2434.478	n/a	REC_START	1217239	n/a	LTP305	ltpFR2	4	10	n/a	n/a	n/a	n/a	0	0	0
2442.316	n/a	REC_WORD	1221158	wordpools/wasnorm_wordpool_576.txt	LTP305	ltpFR2	4	10	SKIRT	1319	n/a	n/a	0	0	0
2443.97	n/a	REC_WORD	1221985	wordpools/wasnorm_wordpool_576.txt	LTP305	ltpFR2	4	10	TUTU	1524	n/a	n/a	0	0	0
2445.122	n/a	REC_WORD	1222561	wordpools/wasnorm_wordpool_576.txt	LTP305	ltpFR2	4	10	SWORD	1423	n/a	n/a	0	0	0
2446.67	n/a	REC_WORD	1223335	wordpools/wasnorm_wordpool_576.txt	LTP305	ltpFR2	4	10	BLADE	134	n/a	n/a	0	0	0
2524.9	n/a	DISTRACTOR	1262450	n/a	LTP305	ltpFR2	4	11	n/a	n/a	n/a	n/a	0	0	0
2524.9	n/a	START	1262450	n/a	LTP305	ltpFR2	4	n/a	n/a	n/a	15	n/a	n/a	n/a	n/a
2524.916	n/a	PROB	1262458	n/a	LTP305	ltpFR2	4	n/a	n/a	n/a	15	18	8	4	6
2527.032	n/a	PROB	1263516	n/a	LTP305	ltpFR2	4	n/a	n/a	n/a	15	22	7	9	6
2529.552	n/a	PROB	1264776	n/a	LTP305	ltpFR2	4	n/a	n/a	n/a	15	12	2	7	3
2530.902	n/a	PROB	1265451	n/a	LTP305	ltpFR2	4	n/a	n/a	n/a	15	8	1	1	6
2532.37	n/a	PROB	1266185	n/a	LTP305	ltpFR2	4	n/a	n/a	n/a	15	11	5	4	2
2533.888	n/a	PROB	1266944	n/a	LTP305	ltpFR2	4	n/a	n/a	n/a	15	6	2	2	2
2535.14	n/a	PROB	1267570	n/a	LTP305	ltpFR2	4	n/a	n/a	n/a	15	9	6	2	1
2536.574	n/a	PROB	1268287	n/a	LTP305	ltpFR2	4	n/a	n/a	n/a	15	14	5	8	1
2538.392	n/a	PROB	1269196	n/a	LTP305	ltpFR2	4	n/a	n/a	n/a	15	9	5	1	3
2540.778	n/a	PROB	1270389	n/a	LTP305	ltpFR2	4	n/a	n/a	n/a	15	15	9	2	4
2542.446	n/a	PROB	1271223	n/a	LTP305	ltpFR2	4	n/a	n/a	n/a	15	20	3	9	8
2544.164	n/a	PROB	1272082	n/a	LTP305	ltpFR2	4	n/a	n/a	n/a	15	12	2	8	2
2545.666	n/a	PROB	1272833	n/a	LTP305	ltpFR2	4	n/a	n/a	n/a	15	17	3	6	8
2548.9	n/a	STOP	1274450	n/a	LTP305	ltpFR2	4	n/a	n/a	n/a	15	n/a	n/a	n/a	n/a
2550.08	n/a	WORD	1275040	wordpools/wasnorm_wordpool_576.txt	LTP305	ltpFR2	4	11	BISON	131	n/a	n/a	0	0	0
2552.498	n/a	WORD	1276249	wordpools/wasnorm_wordpool_576.txt	LTP305	ltpFR2	4	11	MAMMAL	861	n/a	n/a	0	0	0
2554.956	n/a	WORD	1277478	wordpools/wasnorm_wordpool_576.txt	LTP305	ltpFR2	4	11	FLESH	579	n/a	n/a	0	0	0
2557.538	n/a	WORD	1278769	wordpools/wasnorm_wordpool_576.txt	LTP305	ltpFR2	4	11	ROOSTER	1209	n/a	n/a	0	0	0
2560.256	n/a	WORD	1280128	wordpools/wasnorm_wordpool_576.txt	LTP305	ltpFR2	4	11	SPARROW	1347	n/a	n/a	0	0	0
2562.692	n/a	WORD	1281346	wordpools/wasnorm_wordpool_576.txt	LTP305	ltpFR2	4	11	PIZZA	1079	n/a	n/a	0	0	0
2565.142	n/a	WORD	1282571	wordpools/wasnorm_wordpool_576.txt	LTP305	ltpFR2	4	11	NOTEBOOK	959	n/a	n/a	0	0	0
2567.76	n/a	WORD	1283880	wordpools/wasnorm_wordpool_576.txt	LTP305	ltpFR2	4	11	MEAT	883	n/a	n/a	0	0	0
2570.3	n/a	WORD	1285150	wordpools/wasnorm_wordpool_576.txt	LTP305	ltpFR2	4	11	LUMBER	848	n/a	n/a	0	0	0
2573.066	n/a	WORD	1286533	wordpools/wasnorm_wordpool_576.txt	LTP305	ltpFR2	4	11	STAMP	1370	n/a	n/a	0	0	0
2575.702	n/a	WORD	1287851	wordpools/wasnorm_wordpool_576.txt	LTP305	ltpFR2	4	11	FRIAR	605	n/a	n/a	0	0	0
2578.32	n/a	WORD	1289160	wordpools/wasnorm_wordpool_576.txt	LTP305	ltpFR2	4	11	MUMMY	932	n/a	n/a	0	0	0
2581.09	n/a	WORD	1290545	wordpools/wasnorm_wordpool_576.txt	LTP305	ltpFR2	4	11	CHAUFFEUR	283	n/a	n/a	0	0	0
2583.676	n/a	WORD	1291838	wordpools/wasnorm_wordpool_576.txt	LTP305	ltpFR2	4	11	BUGGY	188	n/a	n/a	0	0	0
2586.126	n/a	WORD	1293063	wordpools/wasnorm_wordpool_576.txt	LTP305	ltpFR2	4	11	CHEST	295	n/a	n/a	0	0	0
2588.614	n/a	WORD	1294307	wordpools/wasnorm_wordpool_576.txt	LTP305	ltpFR2	4	11	VENUS	1557	n/a	n/a	0	0	0
2591.048	n/a	WORD	1295524	wordpools/wasnorm_wordpool_576.txt	LTP305	ltpFR2	4	11	PEPPER	1047	n/a	n/a	0	0	0
2593.768	n/a	WORD	1296884	wordpools/wasnorm_wordpool_576.txt	LTP305	ltpFR2	4	11	OUTFIT	988	n/a	n/a	0	0	0
2596.302	n/a	WORD	1298151	wordpools/wasnorm_wordpool_576.txt	LTP305	ltpFR2	4	11	WARDROBE	1587	n/a	n/a	0	0	0
2598.956	n/a	WORD	1299478	wordpools/wasnorm_wordpool_576.txt	LTP305	ltpFR2	4	11	HARP	689	n/a	n/a	0	0	0
2601.576	n/a	WORD	1300788	wordpools/wasnorm_wordpool_576.txt	LTP305	ltpFR2	4	11	TEMPLE	1448	n/a	n/a	0	0	0
2604.076	n/a	WORD	1302038	wordpools/wasnorm_wordpool_576.txt	LTP305	ltpFR2	4	11	MAILBOX	857	n/a	n/a	0	0	0
2606.614	n/a	WORD	1303307	wordpools/wasnorm_wordpool_576.txt	LTP305	ltpFR2	4	11	GYMNAST	675	n/a	n/a	0	0	0
2609.262	n/a	WORD	1304631	wordpools/wasnorm_wordpool_576.txt	LTP305	ltpFR2	4	11	MOP	916	n/a	n/a	0	0	0
2610.866	n/a	START	1305433	n/a	LTP305	ltpFR2	4	n/a	n/a	n/a	16	n/a	n/a	n/a	n/a
2611.888	n/a	DISTRACTOR	1305944	n/a	LTP305	ltpFR2	4	11	n/a	n/a	n/a	n/a	0	0	0
2611.898	n/a	PROB	1305949	n/a	LTP305	ltpFR2	4	n/a	n/a	n/a	16	16	3	4	9
2613.968	n/a	PROB	1306984	n/a	LTP305	ltpFR2	4	n/a	n/a	n/a	16	18	8	3	7
2615.652	n/a	PROB	1307826	n/a	LTP305	ltpFR2	4	n/a	n/a	n/a	16	17	1	9	7
2617.304	n/a	PROB	1308652	n/a	LTP305	ltpFR2	4	n/a	n/a	n/a	16	22	8	6	8
2619.406	n/a	PROB	1309703	n/a	LTP305	ltpFR2	4	n/a	n/a	n/a	16	14	1	5	8
2621.24	n/a	PROB	1310620	n/a	LTP305	ltpFR2	4	n/a	n/a	n/a	16	5	1	3	1
2622.476	n/a	PROB	1311238	n/a	LTP305	ltpFR2	4	n/a	n/a	n/a	16	18	8	5	5
2624.042	n/a	PROB	1312021	n/a	LTP305	ltpFR2	4	n/a	n/a	n/a	16	12	5	6	1
2625.828	n/a	PROB	1312914	n/a	LTP305	ltpFR2	4	n/a	n/a	n/a	16	15	6	6	3
2627.428	n/a	PROB	1313714	n/a	LTP305	ltpFR2	4	n/a	n/a	n/a	16	6	1	3	2
2628.846	n/a	PROB	1314423	n/a	LTP305	ltpFR2	4	n/a	n/a	n/a	16	7	2	4	1
2630.814	n/a	PROB	1315407	n/a	LTP305	ltpFR2	4	n/a	n/a	n/a	16	18	6	5	7
2632.6	n/a	PROB	1316300	n/a	LTP305	ltpFR2	4	n/a	n/a	n/a	16	11	3	6	2
2634.66	n/a	STOP	1317330	n/a	LTP305	ltpFR2	4	n/a	n/a	n/a	16	n/a	n/a	n/a	n/a
2636.654	n/a	REC_START	1318327	n/a	LTP305	ltpFR2	4	11	n/a	n/a	n/a	n/a	0	0	0
2637.882	n/a	REC_WORD	1318941	wordpools/wasnorm_wordpool_576.txt	LTP305	ltpFR2	4	11	BISON	131	n/a	n/a	0	0	0
2638.764	n/a	REC_WORD	1319382	wordpools/wasnorm_wordpool_576.txt	LTP305	ltpFR2	4	11	MAMMAL	861	n/a	n/a	0	0	0
2639.762	n/a	REC_WORD	1319881	wordpools/wasnorm_wordpool_576.txt	LTP305	ltpFR2	4	11	FLESH	579	n/a	n/a	0	0	0
2641.662	n/a	REC_WORD	1320831	wordpools/wasnorm_wordpool_576.txt	LTP305	ltpFR2	4	11	PEPPER	1047	n/a	n/a	0	0	0
2643.026	n/a	REC_WORD	1321513	wordpools/wasnorm_wordpool_576.txt	LTP305	ltpFR2	4	11	VENUS	1557	n/a	n/a	0	0	0
2727.074	n/a	DISTRACTOR	1363537	n/a	LTP305	ltpFR2	4	12	n/a	n/a	n/a	n/a	0	0	0
2727.074	n/a	START	1363537	n/a	LTP305	ltpFR2	4	n/a	n/a	n/a	17	n/a	n/a	n/a	n/a
2727.09	n/a	PROB	1363545	n/a	LTP305	ltpFR2	4	n/a	n/a	n/a	17	21	4	8	9
2729.976	n/a	PROB	1364988	n/a	LTP305	ltpFR2	4	n/a	n/a	n/a	17	9	4	4	1
2731.412	n/a	PROB	1365706	n/a	LTP305	ltpFR2	4	n/a	n/a	n/a	17	14	4	1	9
2733.194	n/a	PROB	1366597	n/a	LTP305	ltpFR2	4	n/a	n/a	n/a	17	13	1	4	8
2734.812	n/a	PROB	1367406	n/a	LTP305	ltpFR2	4	n/a	n/a	n/a	17	12	1	6	5
2736.13	n/a	PROB	1368065	n/a	LTP305	ltpFR2	4	n/a	n/a	n/a	17	11	2	1	8
2737.43	n/a	PROB	1368715	n/a	LTP305	ltpFR2	4	n/a	n/a	n/a	17	21	9	4	8
2739.15	n/a	PROB	1369575	n/a	LTP305	ltpFR2	4	n/a	n/a	n/a	17	13	1	9	3
2740.602	n/a	PROB	1370301	n/a	LTP305	ltpFR2	4	n/a	n/a	n/a	17	12	5	3	4
2742.068	n/a	PROB	1371034	n/a	LTP305	ltpFR2	4	n/a	n/a	n/a	17	19	4	9	6
2743.984	n/a	PROB	1371992	n/a	LTP305	ltpFR2	4	n/a	n/a	n/a	17	19	4	6	9
2745.972	n/a	PROB	1372986	n/a	LTP305	ltpFR2	4	n/a	n/a	n/a	17	7	1	5	1
2747.322	n/a	PROB	1373661	n/a	LTP305	ltpFR2	4	n/a	n/a	n/a	17	18	4	8	6
2751.072	n/a	STOP	1375536	n/a	LTP305	ltpFR2	4	n/a	n/a	n/a	17	n/a	n/a	n/a	n/a
2752.226	n/a	WORD	1376113	wordpools/wasnorm_wordpool_576.txt	LTP305	ltpFR2	4	12	SCARF	1246	n/a	n/a	0	0	0
2754.77	n/a	WORD	1377385	wordpools/wasnorm_wordpool_576.txt	LTP305	ltpFR2	4	12	BALLOON	75	n/a	n/a	0	0	0
2757.564	n/a	WORD	1378782	wordpools/wasnorm_wordpool_576.txt	LTP305	ltpFR2	4	12	SODA	1341	n/a	n/a	0	0	0
2760.242	n/a	WORD	1380121	wordpools/wasnorm_wordpool_576.txt	LTP305	ltpFR2	4	12	COFFEE	341	n/a	n/a	0	0	0
2762.884	n/a	WORD	1381442	wordpools/wasnorm_wordpool_576.txt	LTP305	ltpFR2	4	12	ACTOR	5	n/a	n/a	0	0	0
2765.48	n/a	WORD	1382740	wordpools/wasnorm_wordpool_576.txt	LTP305	ltpFR2	4	12	LABEL	790	n/a	n/a	0	0	0
2768.232	n/a	WORD	1384116	wordpools/wasnorm_wordpool_576.txt	LTP305	ltpFR2	4	12	FUNGUS	614	n/a	n/a	0	0	0
2770.99	n/a	WORD	1385495	wordpools/wasnorm_wordpool_576.txt	LTP305	ltpFR2	4	12	BANJO	82	n/a	n/a	0	0	0
2773.654	n/a	WORD	1386827	wordpools/wasnorm_wordpool_576.txt	LTP305	ltpFR2	4	12	PEBBLE	1035	n/a	n/a	0	0	0
2776.078	n/a	WORD	1388039	wordpools/wasnorm_wordpool_576.txt	LTP305	ltpFR2	4	12	STONE	1385	n/a	n/a	0	0	0
2778.726	n/a	WORD	1389363	wordpools/wasnorm_wordpool_576.txt	LTP305	ltpFR2	4	12	LAPEL	800	n/a	n/a	0	0	0
2781.4	n/a	WORD	1390700	wordpools/wasnorm_wordpool_576.txt	LTP305	ltpFR2	4	12	BUBBLE	183	n/a	n/a	0	0	0
2783.846	n/a	WORD	1391923	wordpools/wasnorm_wordpool_576.txt	LTP305	ltpFR2	4	12	DRUG	501	n/a	n/a	0	0	0
2786.648	n/a	WORD	1393324	wordpools/wasnorm_wordpool_576.txt	LTP305	ltpFR2	4	12	ELBOW	520	n/a	n/a	0	0	0
2789.338	n/a	WORD	1394669	wordpools/wasnorm_wordpool_576.txt	LTP305	ltpFR2	4	12	HOOD	714	n/a	n/a	0	0	0
2791.756	n/a	WORD	1395878	wordpools/wasnorm_wordpool_576.txt	LTP305	ltpFR2	4	12	FRUIT	610	n/a	n/a	0	0	0
2794.37	n/a	WORD	1397185	wordpools/wasnorm_wordpool_576.txt	LTP305	ltpFR2	4	12	TILE	1468	n/a	n/a	0	0	0
2797.038	n/a	WORD	1398519	wordpools/wasnorm_wordpool_576.txt	LTP305	ltpFR2	4	12	BUG	187	n/a	n/a	0	0	0
2799.592	n/a	WORD	1399796	wordpools/wasnorm_wordpool_576.txt	LTP305	ltpFR2	4	12	FIREPLACE	570	n/a	n/a	0	0	0
2802.248	n/a	WORD	1401124	wordpools/wasnorm_wordpool_576.txt	LTP305	ltpFR2	4	12	PATIENT	1024	n/a	n/a	0	0	0
2804.95	n/a	WORD	1402475	wordpools/wasnorm_wordpool_576.txt	LTP305	ltpFR2	4	12	TRENCH	1503	n/a	n/a	0	0	0
2807.398	n/a	WORD	1403699	wordpools/wasnorm_wordpool_576.txt	LTP305	ltpFR2	4	12	ACTRESS	6	n/a	n/a	0	0	0
2809.884	n/a	WORD	1404942	wordpools/wasnorm_wordpool_576.txt	LTP305	ltpFR2	4	12	PEACH	1031	n/a	n/a	0	0	0
2812.42	n/a	WORD	1406210	wordpools/wasnorm_wordpool_576.txt	LTP305	ltpFR2	4	12	FOREST	593	n/a	n/a	0	0	0
2814.024	n/a	START	1407012	n/a	LTP305	ltpFR2	4	n/a	n/a	n/a	18	n/a	n/a	n/a	n/a
2814.952	n/a	DISTRACTOR	1407476	n/a	LTP305	ltpFR2	4	12	n/a	n/a	n/a	n/a	0	0	0
2814.954	n/a	PROB	1407477	n/a	LTP305	ltpFR2	4	n/a	n/a	n/a	18	15	3	9	3
2817.34	n/a	PROB	1408670	n/a	LTP305	ltpFR2	4	n/a	n/a	n/a	18	20	5	9	6
2818.828	n/a	PROB	1409414	n/a	LTP305	ltpFR2	4	n/a	n/a	n/a	18	20	6	5	9
2820.698	n/a	PROB	1410349	n/a	LTP305	ltpFR2	4	n/a	n/a	n/a	18	23	9	9	5
2822.712	n/a	PROB	1411356	n/a	LTP305	ltpFR2	4	n/a	n/a	n/a	18	18	7	3	8
2824.378	n/a	PROB	1412189	n/a	LTP305	ltpFR2	4	n/a	n/a	n/a	18	9	4	4	1
2825.818	n/a	PROB	1412909	n/a	LTP305	ltpFR2	4	n/a	n/a	n/a	18	20	9	6	5
2827.432	n/a	PROB	1413716	n/a	LTP305	ltpFR2	4	n/a	n/a	n/a	18	19	7	7	5
2829.616	n/a	PROB	1414808	n/a	LTP305	ltpFR2	4	n/a	n/a	n/a	18	16	1	9	6
2831.122	n/a	PROB	1415561	n/a	LTP305	ltpFR2	4	n/a	n/a	n/a	18	11	2	5	4
2833.002	n/a	PROB	1416501	n/a	LTP305	ltpFR2	4	n/a	n/a	n/a	18	4	2	1	1
2834.27	n/a	PROB	1417135	n/a	LTP305	ltpFR2	4	n/a	n/a	n/a	18	17	5	8	4
2837.966	n/a	STOP	1418983	n/a	LTP305	ltpFR2	4	n/a	n/a	n/a	18	n/a	n/a	n/a	n/a
2839.812	n/a	REC_START	1419906	n/a	LTP305	ltpFR2	4	12	n/a	n/a	n/a	n/a	0	0	0
2840.636	n/a	REC_WORD	1420318	wordpools/wasnorm_wordpool_576.txt	LTP305	ltpFR2	4	12	LAPEL	800	n/a	n/a	0	0	0
2841.704	n/a	REC_WORD	1420852	wordpools/wasnorm_wordpool_576.txt	LTP305	ltpFR2	4	12	BALLOON	75	n/a	n/a	0	0	0
2842.684	n/a	REC_WORD	1421342	wordpools/wasnorm_wordpool_576.txt	LTP305	ltpFR2	4	12	SCARF	1246	n/a	n/a	0	0	0
2846.93	n/a	REC_WORD	1423465	wordpools/wasnorm_wordpool_576.txt	LTP305	ltpFR2	4	12	ACTOR	5	n/a	n/a	0	0	0
2847.958	n/a	REC_WORD	1423979	wordpools/wasnorm_wordpool_576.txt	LTP305	ltpFR2	4	12	FUNGUS	614	n/a	n/a	0	0	0
2930.248	n/a	WORD	1465124	wordpools/wasnorm_wordpool_576.txt	LTP305	ltpFR2	4	13	DUST	508	n/a	n/a	0	0	0
2932.884	n/a	WORD	1466442	wordpools/wasnorm_wordpool_576.txt	LTP305	ltpFR2	4	13	GRAVEL	659	n/a	n/a	0	0	0
2935.554	n/a	WORD	1467777	wordpools/wasnorm_wordpool_576.txt	LTP305	ltpFR2	4	13	CLOTHES	327	n/a	n/a	0	0	0
2938.322	n/a	WORD	1469161	wordpools/wasnorm_wordpool_576.txt	LTP305	ltpFR2	4	13	WASHER	1592	n/a	n/a	0	0	0
2940.84	n/a	WORD	1470420	wordpools/wasnorm_wordpool_576.txt	LTP305	ltpFR2	4	13	STREAM	1392	n/a	n/a	0	0	0
2943.544	n/a	WORD	1471772	wordpools/wasnorm_wordpool_576.txt	LTP305	ltpFR2	4	13	HEADBAND	696	n/a	n/a	0	0	0
2946.316	n/a	WORD	1473158	wordpools/wasnorm_wordpool_576.txt	LTP305	ltpFR2	4	13	TRUCK	1512	n/a	n/a	0	0	0
2948.798	n/a	WORD	1474399	wordpools/wasnorm_wordpool_576.txt	LTP305	ltpFR2	4	13	SUBWAY	1400	n/a	n/a	0	0	0
2951.534	n/a	WORD	1475767	wordpools/wasnorm_wordpool_576.txt	LTP305	ltpFR2	4	13	CHAMPAGNE	278	n/a	n/a	0	0	0
2954.234	n/a	WORD	1477117	wordpools/wasnorm_wordpool_576.txt	LTP305	ltpFR2	4	13	SNACK	1331	n/a	n/a	0	0	0
2956.804	n/a	WORD	1478402	wordpools/wasnorm_wordpool_576.txt	LTP305	ltpFR2	4	13	LAKE	796	n/a	n/a	0	0	0
2959.288	n/a	WORD	1479644	wordpools/wasnorm_wordpool_576.txt	LTP305	ltpFR2	4	13	SEAFOOD	1260	n/a	n/a	0	0	0
2962.09	n/a	WORD	1481045	wordpools/wasnorm_wordpool_576.txt	LTP305	ltpFR2	4	13	BANQUET	86	n/a	n/a	0	0	0
2964.676	n/a	WORD	1482338	wordpools/wasnorm_wordpool_576.txt	LTP305	ltpFR2	4	13	BEAKER	104	n/a	n/a	0	0	0
2967.2	n/a	WORD	1483600	wordpools/wasnorm_wordpool_576.txt	LTP305	ltpFR2	4	13	CAMEL	223	n/a	n/a	0	0	0
2969.946	n/a	WORD	1484973	wordpools/wasnorm_wordpool_576.txt	LTP305	ltpFR2	4	13	HIGHWAY	707	n/a	n/a	0	0	0
2972.414	n/a	WORD	1486207	wordpools/wasnorm_wordpool_576.txt	LTP305	ltpFR2	4	13	BUCKET	184	n/a	n/a	0	0	0
2974.984	n/a	WORD	1487492	wordpools/wasnorm_wordpool_576.txt	LTP305	ltpFR2	4	13	BODY	145	n/a	n/a	0	0	0
2977.602	n/a	WORD	1488801	wordpools/wasnorm_wordpool_576.txt	LTP305	ltpFR2	4	13	KIDNEY	776	n/a	n/a	0	0	0
2980.062	n/a	WORD	1490031	wordpools/wasnorm_wordpool_576.txt	LTP305	ltpFR2	4	13	OUTLAW	989	n/a	n/a	0	0	0
2982.872	n/a	WORD	1491436	wordpools/wasnorm_wordpool_576.txt	LTP305	ltpFR2	4	13	MARINE	869	n/a	n/a	0	0	0
2985.366	n/a	WORD	1492683	wordpools/wasnorm_wordpool_576.txt	LTP305	ltpFR2	4	13	BABY	64	n/a	n/a	0	0	0
2987.918	n/a	WORD	1493959	wordpools/wasnorm_wordpool_576.txt	LTP305	ltpFR2	4	13	SANDWICH	1232	n/a	n/a	0	0	0
2990.722	n/a	WORD	1495361	wordpools/wasnorm_wordpool_576.txt	LTP305	ltpFR2	4	13	TROMBONE	1508	n/a	n/a	0	0	0
2992.332	n/a	START	1496166	n/a	LTP305	ltpFR2	4	n/a	n/a	n/a	19	n/a	n/a	n/a	n/a
2993.378	n/a	DISTRACTOR	1496689	n/a	LTP305	ltpFR2	4	13	n/a	n/a	n/a	n/a	0	0	0
2993.382	n/a	PROB	1496691	n/a	LTP305	ltpFR2	4	n/a	n/a	n/a	19	16	4	3	9
2995.65	n/a	PROB	1497825	n/a	LTP305	ltpFR2	4	n/a	n/a	n/a	19	20	9	4	7
2997.184	n/a	PROB	1498592	n/a	LTP305	ltpFR2	4	n/a	n/a	n/a	19	17	4	4	9
2999.902	n/a	PROB	1499951	n/a	LTP305	ltpFR2	4	n/a	n/a	n/a	19	14	2	8	4
3001.722	n/a	PROB	1500861	n/a	LTP305	ltpFR2	4	n/a	n/a	n/a	19	19	9	5	5
3003.338	n/a	PROB	1501669	n/a	LTP305	ltpFR2	4	n/a	n/a	n/a	19	10	4	3	3
3005.058	n/a	PROB	1502529	n/a	LTP305	ltpFR2	4	n/a	n/a	n/a	19	14	3	8	3
3007.308	n/a	PROB	1503654	n/a	LTP305	ltpFR2	4	n/a	n/a	n/a	19	8	4	1	3
3008.86	n/a	PROB	1504430	n/a	LTP305	ltpFR2	4	n/a	n/a	n/a	19	16	5	9	2
3010.76	n/a	PROB	1505380	n/a	LTP305	ltpFR2	4	n/a	n/a	n/a	19	23	6	8	9
3012.63	n/a	PROB	1506315	n/a	LTP305	ltpFR2	4	n/a	n/a	n/a	19	7	2	1	4
3014.63	n/a	PROB	1507315	n/a	LTP305	ltpFR2	4	n/a	n/a	n/a	19	7	5	1	1
3015.866	n/a	STOP	1507933	n/a	LTP305	ltpFR2	4	n/a	n/a	n/a	19	n/a	n/a	n/a	n/a
3018.134	n/a	REC_START	1509067	n/a	LTP305	ltpFR2	4	13	n/a	n/a	n/a	n/a	0	0	0
3018.668	n/a	REC_WORD	1509334	wordpools/wasnorm_wordpool_576.txt	LTP305	ltpFR2	4	13	TROMBONE	1508	n/a	n/a	0	0	0
3019.742	n/a	REC_WORD	1509871	wordpools/wasnorm_wordpool_576.txt	LTP305	ltpFR2	4	13	SANDWICH	1232	n/a	n/a	0	0	0
3020.914	n/a	REC_WORD	1510457	wordpools/wasnorm_wordpool_576.txt	LTP305	ltpFR2	4	13	HEADBAND	696	n/a	n/a	0	0	0
3022.156	n/a	REC_WORD	1511078	wordpools/wasnorm_wordpool_576.txt	LTP305	ltpFR2	4	13	GRAVEL	659	n/a	n/a	0	0	0
3023.172	n/a	REC_WORD	1511586	wordpools/wasnorm_wordpool_576.txt	LTP305	ltpFR2	4	13	TRUCK	1512	n/a	n/a	0	0	0
3026.016	n/a	REC_WORD	1513008	wordpools/wasnorm_wordpool_576.txt	LTP305	ltpFR2	4	13	WASHER	1592	n/a	n/a	0	0	0
3026.886	n/a	REC_WORD	1513443	wordpools/wasnorm_wordpool_576.txt	LTP305	ltpFR2	4	13	STREAM	1392	n/a	n/a	0	0	0
3028.454	n/a	REC_WORD	1514227	wordpools/wasnorm_wordpool_576.txt	LTP305	ltpFR2	4	13	DUST	508	n/a	n/a	0	0	0
3082.408	n/a	REC_WORD	1541204	wordpools/wasnorm_wordpool_576.txt	LTP305	ltpFR2	4	13	BABY	64	n/a	n/a	0	0	0
3108.606	n/a	WORD	1554303	wordpools/wasnorm_wordpool_576.txt	LTP305	ltpFR2	4	14	CONVICT	371	n/a	n/a	0	0	0
3111.222	n/a	WORD	1555611	wordpools/wasnorm_wordpool_576.txt	LTP305	ltpFR2	4	14	CASHEW	253	n/a	n/a	0	0	0
3114.026	n/a	WORD	1557013	wordpools/wasnorm_wordpool_576.txt	LTP305	ltpFR2	4	14	PECAN	1036	n/a	n/a	0	0	0
3116.612	n/a	WORD	1558306	wordpools/wasnorm_wordpool_576.txt	LTP305	ltpFR2	4	14	CLOUD	328	n/a	n/a	0	0	0
3119.262	n/a	WORD	1559631	wordpools/wasnorm_wordpool_576.txt	LTP305	ltpFR2	4	14	PERMIT	1051	n/a	n/a	0	0	0
3121.748	n/a	WORD	1560874	wordpools/wasnorm_wordpool_576.txt	LTP305	ltpFR2	4	14	VELVET	1555	n/a	n/a	0	0	0
3124.332	n/a	WORD	1562166	wordpools/wasnorm_wordpool_576.txt	LTP305	ltpFR2	4	14	POET	1095	n/a	n/a	0	0	0
3127.102	n/a	WORD	1563551	wordpools/wasnorm_wordpool_576.txt	LTP305	ltpFR2	4	14	BRANDY	169	n/a	n/a	0	0	0
3129.572	n/a	WORD	1564786	wordpools/wasnorm_wordpool_576.txt	LTP305	ltpFR2	4	14	MATCH	878	n/a	n/a	0	0	0
3132.006	n/a	WORD	1566003	wordpools/wasnorm_wordpool_576.txt	LTP305	ltpFR2	4	14	DOUGHNUT	490	n/a	n/a	0	0	0
3134.776	n/a	WORD	1567388	wordpools/wasnorm_wordpool_576.txt	LTP305	ltpFR2	4	14	PUPPY	1144	n/a	n/a	0	0	0
3137.21	n/a	WORD	1568605	wordpools/wasnorm_wordpool_576.txt	LTP305	ltpFR2	4	14	BROOK	177	n/a	n/a	0	0	0
3139.962	n/a	WORD	1569981	wordpools/wasnorm_wordpool_576.txt	LTP305	ltpFR2	4	14	BATHTUB	100	n/a	n/a	0	0	0
3142.648	n/a	WORD	1571324	wordpools/wasnorm_wordpool_576.txt	LTP305	ltpFR2	4	14	PADDING	999	n/a	n/a	0	0	0
3145.448	n/a	WORD	1572724	wordpools/wasnorm_wordpool_576.txt	LTP305	ltpFR2	4	14	BULLET	194	n/a	n/a	0	0	0
3147.918	n/a	WORD	1573959	wordpools/wasnorm_wordpool_576.txt	LTP305	ltpFR2	4	14	REPORT	1184	n/a	n/a	0	0	0
3150.638	n/a	WORD	1575319	wordpools/wasnorm_wordpool_576.txt	LTP305	ltpFR2	4	14	HAWK	692	n/a	n/a	0	0	0
3153.274	n/a	WORD	1576637	wordpools/wasnorm_wordpool_576.txt	LTP305	ltpFR2	4	14	TURKEY	1520	n/a	n/a	0	0	0
3156.074	n/a	WORD	1578037	wordpools/wasnorm_wordpool_576.txt	LTP305	ltpFR2	4	14	MILK	895	n/a	n/a	0	0	0
3158.728	n/a	WORD	1579364	wordpools/wasnorm_wordpool_576.txt	LTP305	ltpFR2	4	14	GANGSTER	620	n/a	n/a	0	0	0
3161.278	n/a	WORD	1580639	wordpools/wasnorm_wordpool_576.txt	LTP305	ltpFR2	4	14	BRAKE	166	n/a	n/a	0	0	0
3163.964	n/a	WORD	1581982	wordpools/wasnorm_wordpool_576.txt	LTP305	ltpFR2	4	14	ROBOT	1200	n/a	n/a	0	0	0
3166.62	n/a	WORD	1583310	wordpools/wasnorm_wordpool_576.txt	LTP305	ltpFR2	4	14	SWITCH	1422	n/a	n/a	0	0	0
3169.436	n/a	WORD	1584718	wordpools/wasnorm_wordpool_576.txt	LTP305	ltpFR2	4	14	CRUTCH	417	n/a	n/a	0	0	0
3171.042	n/a	START	1585521	n/a	LTP305	ltpFR2	4	n/a	n/a	n/a	20	n/a	n/a	n/a	n/a
3172.148	n/a	DISTRACTOR	1586074	n/a	LTP305	ltpFR2	4	14	n/a	n/a	n/a	n/a	0	0	0
3172.154	n/a	PROB	1586077	n/a	LTP305	ltpFR2	4	n/a	n/a	n/a	20	12	7	4	1
3174.508	n/a	PROB	1587254	n/a	LTP305	ltpFR2	4	n/a	n/a	n/a	20	22	6	9	7
3176.458	n/a	PROB	1588229	n/a	LTP305	ltpFR2	4	n/a	n/a	n/a	20	15	8	4	3
3178.008	n/a	PROB	1589004	n/a	LTP305	ltpFR2	4	n/a	n/a	n/a	20	9	7	1	1
3179.344	n/a	PROB	1589672	n/a	LTP305	ltpFR2	4	n/a	n/a	n/a	20	19	8	6	5
3180.994	n/a	PROB	1590497	n/a	LTP305	ltpFR2	4	n/a	n/a	n/a	20	15	3	6	6
3182.612	n/a	PROB	1591306	n/a	LTP305	ltpFR2	4	n/a	n/a	n/a	20	15	5	1	9
3184.078	n/a	PROB	1592039	n/a	LTP305	ltpFR2	4	n/a	n/a	n/a	20	17	8	3	6
3186.564	n/a	PROB	1593282	n/a	LTP305	ltpFR2	4	n/a	n/a	n/a	20	15	1	9	5
3189.416	n/a	PROB	1594708	n/a	LTP305	ltpFR2	4	n/a	n/a	n/a	20	18	8	4	6
3191.052	n/a	PROB	1595526	n/a	LTP305	ltpFR2	4	n/a	n/a	n/a	20	12	8	3	1
3192.652	n/a	PROB	1596326	n/a	LTP305	ltpFR2	4	n/a	n/a	n/a	20	20	7	5	8
3194.748	n/a	STOP	1597374	n/a	LTP305	ltpFR2	4	n/a	n/a	n/a	20	n/a	n/a	n/a	n/a
3196.94	n/a	REC_START	1598470	n/a	LTP305	ltpFR2	4	14	n/a	n/a	n/a	n/a	0	0	0
3231.162	n/a	REC_WORD	1615581	wordpools/wasnorm_wordpool_576.txt	LTP305	ltpFR2	4	14	PECAN	1036	n/a	n/a	0	0	0
3232.404	n/a	REC_WORD	1616202	wordpools/wasnorm_wordpool_576.txt	LTP305	ltpFR2	4	14	CASHEW	253	n/a	n/a	0	0	0
3246.242	n/a	REC_WORD	1623121	wordpools/wasnorm_wordpool_576.txt	LTP305	ltpFR2	4	14	PUPPY	1144	n/a	n/a	0	0	0
3256.062	n/a	REC_WORD	1628031	wordpools/wasnorm_wordpool_576.txt	LTP305	ltpFR2	4	14	PADDING	999	n/a	n/a	0	0	0
3287.374	n/a	WORD	1643687	wordpools/wasnorm_wordpool_576.txt	LTP305	ltpFR2	4	15	COOKBOOK	373	n/a	n/a	0	0	0
3290.09	n/a	WORD	1645045	wordpools/wasnorm_wordpool_576.txt	LTP305	ltpFR2	4	15	SKILLET	1317	n/a	n/a	0	0	0
3292.826	n/a	WORD	1646413	wordpools/wasnorm_wordpool_576.txt	LTP305	ltpFR2	4	15	MASK	876	n/a	n/a	0	0	0
3295.58	n/a	WORD	1647790	wordpools/wasnorm_wordpool_576.txt	LTP305	ltpFR2	4	15	GOBLIN	645	n/a	n/a	0	0	0
3298.298	n/a	WORD	1649149	wordpools/wasnorm_wordpool_576.txt	LTP305	ltpFR2	4	15	GHETTO	633	n/a	n/a	0	0	0
3300.766	n/a	WORD	1650383	wordpools/wasnorm_wordpool_576.txt	LTP305	ltpFR2	4	15	NOMAD	955	n/a	n/a	0	0	0
3303.252	n/a	WORD	1651626	wordpools/wasnorm_wordpool_576.txt	LTP305	ltpFR2	4	15	TUNNEL	1519	n/a	n/a	0	0	0
3306.022	n/a	WORD	1653011	wordpools/wasnorm_wordpool_576.txt	LTP305	ltpFR2	4	15	GROUND	666	n/a	n/a	0	0	0
3308.544	n/a	WORD	1654272	wordpools/wasnorm_wordpool_576.txt	LTP305	ltpFR2	4	15	PRINCESS	1125	n/a	n/a	0	0	0
3311.226	n/a	WORD	1655613	wordpools/wasnorm_wordpool_576.txt	LTP305	ltpFR2	4	15	CROWN	415	n/a	n/a	0	0	0
3313.796	n/a	WORD	1656898	wordpools/wasnorm_wordpool_576.txt	LTP305	ltpFR2	4	15	CRATER	400	n/a	n/a	0	0	0
3316.598	n/a	WORD	1658299	wordpools/wasnorm_wordpool_576.txt	LTP305	ltpFR2	4	15	SUPPER	1411	n/a	n/a	0	0	0
3319.284	n/a	WORD	1659642	wordpools/wasnorm_wordpool_576.txt	LTP305	ltpFR2	4	15	GAVEL	627	n/a	n/a	0	0	0
3321.984	n/a	WORD	1660992	wordpools/wasnorm_wordpool_576.txt	LTP305	ltpFR2	4	15	JUNGLE	764	n/a	n/a	0	0	0
3324.42	n/a	WORD	1662210	wordpools/wasnorm_wordpool_576.txt	LTP305	ltpFR2	4	15	HIKER	708	n/a	n/a	0	0	0
3327.072	n/a	WORD	1663536	wordpools/wasnorm_wordpool_576.txt	LTP305	ltpFR2	4	15	GRIZZLY	662	n/a	n/a	0	0	0
3329.508	n/a	WORD	1664754	wordpools/wasnorm_wordpool_576.txt	LTP305	ltpFR2	4	15	KITCHEN	778	n/a	n/a	0	0	0
3331.994	n/a	WORD	1665997	wordpools/wasnorm_wordpool_576.txt	LTP305	ltpFR2	4	15	CHAPEL	280	n/a	n/a	0	0	0
3334.614	n/a	WORD	1667307	wordpools/wasnorm_wordpool_576.txt	LTP305	ltpFR2	4	15	SLOPE	1328	n/a	n/a	0	0	0
3337.282	n/a	WORD	1668641	wordpools/wasnorm_wordpool_576.txt	LTP305	ltpFR2	4	15	STOVE	1388	n/a	n/a	0	0	0
3339.718	n/a	WORD	1669859	wordpools/wasnorm_wordpool_576.txt	LTP305	ltpFR2	4	15	JUDGE	761	n/a	n/a	0	0	0
3342.152	n/a	WORD	1671076	wordpools/wasnorm_wordpool_576.txt	LTP305	ltpFR2	4	15	CLIMBER	323	n/a	n/a	0	0	0
3344.588	n/a	WORD	1672294	wordpools/wasnorm_wordpool_576.txt	LTP305	ltpFR2	4	15	CANYON	235	n/a	n/a	0	0	0
3347.308	n/a	WORD	1673654	wordpools/wasnorm_wordpool_576.txt	LTP305	ltpFR2	4	15	WRENCH	1625	n/a	n/a	0	0	0
3348.926	n/a	START	1674463	n/a	LTP305	ltpFR2	4	n/a	n/a	n/a	21	n/a	n/a	n/a	n/a
3350.06	n/a	DISTRACTOR	1675030	n/a	LTP305	ltpFR2	4	15	n/a	n/a	n/a	n/a	0	0	0
3350.076	n/a	PROB	1675038	n/a	LTP305	ltpFR2	4	n/a	n/a	n/a	21	16	3	4	9
3352.612	n/a	PROB	1676306	n/a	LTP305	ltpFR2	4	n/a	n/a	n/a	21	9	2	6	1
3354.746	n/a	PROB	1677373	n/a	LTP305	ltpFR2	4	n/a	n/a	n/a	21	15	5	6	4
3356.246	n/a	PROB	1678123	n/a	LTP305	ltpFR2	4	n/a	n/a	n/a	21	11	4	5	2
3357.716	n/a	PROB	1678858	n/a	LTP305	ltpFR2	4	n/a	n/a	n/a	21	18	3	6	9
3359.6	n/a	PROB	1679800	n/a	LTP305	ltpFR2	4	n/a	n/a	n/a	21	14	8	3	3
3361.934	n/a	PROB	1680967	n/a	LTP305	ltpFR2	4	n/a	n/a	n/a	21	9	1	4	4
3363.902	n/a	PROB	1681951	n/a	LTP305	ltpFR2	4	n/a	n/a	n/a	21	11	9	1	1
3365.336	n/a	PROB	1682668	n/a	LTP305	ltpFR2	4	n/a	n/a	n/a	21	10	1	5	4
3367.524	n/a	PROB	1683762	n/a	LTP305	ltpFR2	4	n/a	n/a	n/a	21	16	3	9	4
3370.224	n/a	PROB	1685112	n/a	LTP305	ltpFR2	4	n/a	n/a	n/a	21	9	1	3	5
3372.088	n/a	STOP	1686044	n/a	LTP305	ltpFR2	4	n/a	n/a	n/a	21	n/a	n/a	n/a	n/a
3374.812	n/a	REC_START	1687406	n/a	LTP305	ltpFR2	4	15	n/a	n/a	n/a	n/a	0	0	0
3375.696	n/a	REC_WORD	1687848	wordpools/wasnorm_wordpool_576.txt	LTP305	ltpFR2	4	15	CRATER	400	n/a	n/a	0	0	0
3376.798	n/a	REC_WORD	1688399	wordpools/wasnorm_wordpool_576.txt	LTP305	ltpFR2	4	15	CANYON	235	n/a	n/a	0	0	0
3377.894	n/a	REC_WORD	1688947	wordpools/wasnorm_wordpool_576.txt	LTP305	ltpFR2	4	15	KITCHEN	778	n/a	n/a	0	0	0
3378.786	n/a	REC_WORD	1689393	wordpools/wasnorm_wordpool_576.txt	LTP305	ltpFR2	4	15	COOKBOOK	373	n/a	n/a	0	0	0
3380.018	n/a	REC_WORD	1690009	wordpools/wasnorm_wordpool_576.txt	LTP305	ltpFR2	4	15	SKILLET	1317	n/a	n/a	0	0	0
3382.428	n/a	REC_WORD	1691214	wordpools/wasnorm_wordpool_576.txt	LTP305	ltpFR2	4	15	GOBLIN	645	n/a	n/a	0	0	0
3383.336	n/a	REC_WORD	1691668	wordpools/wasnorm_wordpool_576.txt	LTP305	ltpFR2	4	15	MASK	876	n/a	n/a	0	0	0
3386.676	n/a	REC_WORD	1693338	wordpools/wasnorm_wordpool_576.txt	LTP305	ltpFR2	4	15	WRENCH	1625	n/a	n/a	0	0	0
3388.472	n/a	REC_WORD	1694236	wordpools/wasnorm_wordpool_576.txt	LTP305	ltpFR2	4	15	GHETTO	633	n/a	n/a	0	0	0
3389.426	n/a	REC_WORD	1694713	wordpools/wasnorm_wordpool_576.txt	LTP305	ltpFR2	4	15	JUNGLE	764	n/a	n/a	0	0	0
3391.764	n/a	REC_WORD	1695882	wordpools/wasnorm_wordpool_576.txt	LTP305	ltpFR2	4	15	HIKER	708	n/a	n/a	0	0	0
3392.878	n/a	REC_WORD	1696439	wordpools/wasnorm_wordpool_576.txt	LTP305	ltpFR2	4	15	CLIMBER	323	n/a	n/a	0	0	0
3393.856	n/a	REC_WORD	1696928	wordpools/wasnorm_wordpool_576.txt	LTP305	ltpFR2	4	15	SLOPE	1328	n/a	n/a	0	0	0
3395.962	n/a	REC_WORD	1697981	wordpools/wasnorm_wordpool_576.txt	LTP305	ltpFR2	4	15	CHAPEL	280	n/a	n/a	0	0	0
3407.532	n/a	REC_WORD	1703766	wordpools/wasnorm_wordpool_576.txt	LTP305	ltpFR2	4	15	GAVEL	627	n/a	n/a	0	0	0
3408.504	n/a	REC_WORD	1704252	wordpools/wasnorm_wordpool_576.txt	LTP305	ltpFR2	4	15	JUDGE	761	n/a	n/a	0	0	0
3465.232	n/a	DISTRACTOR	1732616	n/a	LTP305	ltpFR2	4	16	n/a	n/a	n/a	n/a	0	0	0
3465.232	n/a	START	1732616	n/a	LTP305	ltpFR2	4	n/a	n/a	n/a	22	n/a	n/a	n/a	n/a
3465.248	n/a	PROB	1732624	n/a	LTP305	ltpFR2	4	n/a	n/a	n/a	22	14	4	8	2
3467.084	n/a	PROB	1733542	n/a	LTP305	ltpFR2	4	n/a	n/a	n/a	22	12	2	4	6
3468.968	n/a	PROB	1734484	n/a	LTP305	ltpFR2	4	n/a	n/a	n/a	22	16	9	3	4
3470.402	n/a	PROB	1735201	n/a	LTP305	ltpFR2	4	n/a	n/a	n/a	22	6	3	2	1
3471.936	n/a	PROB	1735968	n/a	LTP305	ltpFR2	4	n/a	n/a	n/a	22	17	2	4	9
3474.406	n/a	PROB	1737203	n/a	LTP305	ltpFR2	4	n/a	n/a	n/a	22	17	6	8	3
3476.056	n/a	PROB	1738028	n/a	LTP305	ltpFR2	4	n/a	n/a	n/a	22	8	2	2	4
3477.592	n/a	PROB	1738796	n/a	LTP305	ltpFR2	4	n/a	n/a	n/a	22	18	8	7	3
3479.06	n/a	PROB	1739530	n/a	LTP305	ltpFR2	4	n/a	n/a	n/a	22	11	6	3	2
3480.41	n/a	PROB	1740205	n/a	LTP305	ltpFR2	4	n/a	n/a	n/a	22	17	1	8	8
3483.296	n/a	PROB	1741648	n/a	LTP305	ltpFR2	4	n/a	n/a	n/a	22	13	3	7	3
3484.714	n/a	PROB	1742357	n/a	LTP305	ltpFR2	4	n/a	n/a	n/a	22	13	8	1	4
3486.216	n/a	PROB	1743108	n/a	LTP305	ltpFR2	4	n/a	n/a	n/a	22	17	7	8	2
3487.708	n/a	STOP	1743854	n/a	LTP305	ltpFR2	4	n/a	n/a	n/a	22	n/a	n/a	n/a	n/a
3490.062	n/a	WORD	1745031	wordpools/wasnorm_wordpool_576.txt	LTP305	ltpFR2	4	16	CATCHER	258	n/a	n/a	0	0	0
3492.804	n/a	WORD	1746402	wordpools/wasnorm_wordpool_576.txt	LTP305	ltpFR2	4	16	ICING	732	n/a	n/a	0	0	0
3495.616	n/a	WORD	1747808	wordpools/wasnorm_wordpool_576.txt	LTP305	ltpFR2	4	16	SHORTCAKE	1292	n/a	n/a	0	0	0
3498.04	n/a	WORD	1749020	wordpools/wasnorm_wordpool_576.txt	LTP305	ltpFR2	4	16	SUITCASE	1403	n/a	n/a	0	0	0
3500.57	n/a	WORD	1750285	wordpools/wasnorm_wordpool_576.txt	LTP305	ltpFR2	4	16	SCOTCH	1251	n/a	n/a	0	0	0
3503.354	n/a	WORD	1751677	wordpools/wasnorm_wordpool_576.txt	LTP305	ltpFR2	4	16	CAFE	216	n/a	n/a	0	0	0
3505.864	n/a	WORD	1752932	wordpools/wasnorm_wordpool_576.txt	LTP305	ltpFR2	4	16	SHELTER	1282	n/a	n/a	0	0	0
3508.326	n/a	WORD	1754163	wordpools/wasnorm_wordpool_576.txt	LTP305	ltpFR2	4	16	TABLET	1427	n/a	n/a	0	0	0
3510.744	n/a	WORD	1755372	wordpools/wasnorm_wordpool_576.txt	LTP305	ltpFR2	4	16	SISTER	1312	n/a	n/a	0	0	0
3513.498	n/a	WORD	1756749	wordpools/wasnorm_wordpool_576.txt	LTP305	ltpFR2	4	16	HUSBAND	728	n/a	n/a	0	0	0
3515.988	n/a	WORD	1757994	wordpools/wasnorm_wordpool_576.txt	LTP305	ltpFR2	4	16	PREACHER	1119	n/a	n/a	0	0	0
3518.552	n/a	WORD	1759276	wordpools/wasnorm_wordpool_576.txt	LTP305	ltpFR2	4	16	CHURCH	307	n/a	n/a	0	0	0
3521.004	n/a	WORD	1760502	wordpools/wasnorm_wordpool_576.txt	LTP305	ltpFR2	4	16	WINDOW	1611	n/a	n/a	0	0	0
3523.678	n/a	WORD	1761839	wordpools/wasnorm_wordpool_576.txt	LTP305	ltpFR2	4	16	CELLAR	267	n/a	n/a	0	0	0
3526.158	n/a	WORD	1763079	wordpools/wasnorm_wordpool_576.txt	LTP305	ltpFR2	4	16	WAITER	1580	n/a	n/a	0	0	0
3528.662	n/a	WORD	1764331	wordpools/wasnorm_wordpool_576.txt	LTP305	ltpFR2	4	16	BUREAU	199	n/a	n/a	0	0	0
3531.314	n/a	WORD	1765657	wordpools/wasnorm_wordpool_576.txt	LTP305	ltpFR2	4	16	CEILING	265	n/a	n/a	0	0	0
3533.932	n/a	WORD	1766966	wordpools/wasnorm_wordpool_576.txt	LTP305	ltpFR2	4	16	PADDLE	1000	n/a	n/a	0	0	0
3536.454	n/a	WORD	1768227	wordpools/wasnorm_wordpool_576.txt	LTP305	ltpFR2	4	16	LIPSTICK	829	n/a	n/a	0	0	0
3539.236	n/a	WORD	1769618	wordpools/wasnorm_wordpool_576.txt	LTP305	ltpFR2	4	16	BINDER	127	n/a	n/a	0	0	0
3541.97	n/a	WORD	1770985	wordpools/wasnorm_wordpool_576.txt	LTP305	ltpFR2	4	16	BLOUSE	139	n/a	n/a	0	0	0
3544.512	n/a	WORD	1772256	wordpools/wasnorm_wordpool_576.txt	LTP305	ltpFR2	4	16	HOSTESS	723	n/a	n/a	0	0	0
3546.992	n/a	WORD	1773496	wordpools/wasnorm_wordpool_576.txt	LTP305	ltpFR2	4	16	LUGGAGE	847	n/a	n/a	0	0	0
3549.596	n/a	WORD	1774798	wordpools/wasnorm_wordpool_576.txt	LTP305	ltpFR2	4	16	HOUND	724	n/a	n/a	0	0	0
3551.198	n/a	START	1775599	n/a	LTP305	ltpFR2	4	n/a	n/a	n/a	23	n/a	n/a	n/a	n/a
3552.13	n/a	DISTRACTOR	1776065	n/a	LTP305	ltpFR2	4	16	n/a	n/a	n/a	n/a	0	0	0
3552.132	n/a	PROB	1776066	n/a	LTP305	ltpFR2	4	n/a	n/a	n/a	23	17	8	7	2
3554.67	n/a	PROB	1777335	n/a	LTP305	ltpFR2	4	n/a	n/a	n/a	23	18	2	9	7
3557.368	n/a	PROB	1778684	n/a	LTP305	ltpFR2	4	n/a	n/a	n/a	23	15	2	8	5
3559.336	n/a	PROB	1779668	n/a	LTP305	ltpFR2	4	n/a	n/a	n/a	23	14	3	8	3
3561.304	n/a	PROB	1780652	n/a	LTP305	ltpFR2	4	n/a	n/a	n/a	23	9	1	5	3
3563.892	n/a	PROB	1781946	n/a	LTP305	ltpFR2	4	n/a	n/a	n/a	23	13	1	7	5
3565.374	n/a	PROB	1782687	n/a	LTP305	ltpFR2	4	n/a	n/a	n/a	23	9	3	5	1
3566.876	n/a	PROB	1783438	n/a	LTP305	ltpFR2	4	n/a	n/a	n/a	23	17	8	2	7
3569.026	n/a	PROB	1784513	n/a	LTP305	ltpFR2	4	n/a	n/a	n/a	23	17	2	8	7
3571.048	n/a	PROB	1785524	n/a	LTP305	ltpFR2	4	n/a	n/a	n/a	23	12	6	1	5
3572.982	n/a	PROB	1786491	n/a	LTP305	ltpFR2	4	n/a	n/a	n/a	23	21	8	7	6
3574.492	n/a	STOP	1787246	n/a	LTP305	ltpFR2	4	n/a	n/a	n/a	23	n/a	n/a	n/a	n/a
3577.036	n/a	REC_START	1788518	n/a	LTP305	ltpFR2	4	16	n/a	n/a	n/a	n/a	0	0	0
3578.006	n/a	REC_WORD	1789003	wordpools/wasnorm_wordpool_576.txt	LTP305	ltpFR2	4	16	CATCHER	258	n/a	n/a	0	0	0
3579.16	n/a	REC_WORD	1789580	wordpools/wasnorm_wordpool_576.txt	LTP305	ltpFR2	4	16	ICING	732	n/a	n/a	0	0	0
3580.096	n/a	REC_WORD	1790048	wordpools/wasnorm_wordpool_576.txt	LTP305	ltpFR2	4	16	SHORTCAKE	1292	n/a	n/a	0	0	0
3581.448	n/a	REC_WORD	1790724	wordpools/wasnorm_wordpool_576.txt	LTP305	ltpFR2	4	16	BUREAU	199	n/a	n/a	0	0	0
3582.424	n/a	REC_WORD	1791212	wordpools/wasnorm_wordpool_576.txt	LTP305	ltpFR2	4	16	BINDER	127	n/a	n/a	0	0	0
3583.734	n/a	REC_WORD	1791867	wordpools/wasnorm_wordpool_576.txt	LTP305	ltpFR2	4	16	LIPSTICK	829	n/a	n/a	0	0	0
3584.68	n/a	REC_WORD	1792340	wordpools/wasnorm_wordpool_576.txt	LTP305	ltpFR2	4	16	BLOUSE	139	n/a	n/a	0	0	0
3595.574	n/a	REC_WORD	1797787	wordpools/wasnorm_wordpool_576.txt	LTP305	ltpFR2	4	16	WAITER	1580	n/a	n/a	0	0	0
3598.512	n/a	REC_WORD	1799256	wordpools/wasnorm_wordpool_576.txt	LTP305	ltpFR2	4	16	WAITRESS	1581	n/a	n/a	0	0	0
3600.17	n/a	REC_WORD	1800085	wordpools/wasnorm_wordpool_576.txt	LTP305	ltpFR2	4	16	SERVER	1272	n/a	n/a	0	0	0
3602.382	n/a	REC_WORD	1801191	wordpools/wasnorm_wordpool_576.txt	LTP305	ltpFR2	4	16	CELLAR	267	n/a	n/a	0	0	0
3603.718	n/a	REC_WORD	1801859	wordpools/wasnorm_wordpool_576.txt	LTP305	ltpFR2	4	16	CAFE	216	n/a	n/a	0	0	0
3605.376	n/a	REC_WORD	1802688	wordpools/wasnorm_wordpool_576.txt	LTP305	ltpFR2	4	16	CEILING	265	n/a	n/a	0	0	0
3610.742	n/a	REC_WORD	1805371	wordpools/wasnorm_wordpool_576.txt	LTP305	ltpFR2	4	16	PREACHER	1119	n/a	n/a	0	0	0
3612.938	n/a	REC_WORD	1806469	wordpools/wasnorm_wordpool_576.txt	LTP305	ltpFR2	4	16	CHURCH	307	n/a	n/a	0	0	0
3653.562	n/a	REST_REWET	1826781	n/a	LTP305	ltpFR2	4	16	n/a	n/a	n/a	n/a	0	0	0
4157.672	n/a	WORD	2078836	wordpools/wasnorm_wordpool_576.txt	LTP305	ltpFR2	4	17	CLAM	315	n/a	n/a	0	0	0
4160.224	n/a	WORD	2080112	wordpools/wasnorm_wordpool_576.txt	LTP305	ltpFR2	4	17	TORTOISE	1486	n/a	n/a	0	0	0
4162.65	n/a	WORD	2081325	wordpools/wasnorm_wordpool_576.txt	LTP305	ltpFR2	4	17	MAILMAN	858	n/a	n/a	0	0	0
4165.194	n/a	WORD	2082597	wordpools/wasnorm_wordpool_576.txt	LTP305	ltpFR2	4	17	CITRUS	313	n/a	n/a	0	0	0
4167.98	n/a	WORD	2083990	wordpools/wasnorm_wordpool_576.txt	LTP305	ltpFR2	4	17	MARSH	874	n/a	n/a	0	0	0
4170.55	n/a	WORD	2085275	wordpools/wasnorm_wordpool_576.txt	LTP305	ltpFR2	4	17	SPONGE	1355	n/a	n/a	0	0	0
4173.124	n/a	WORD	2086562	wordpools/wasnorm_wordpool_576.txt	LTP305	ltpFR2	4	17	SLUG	1329	n/a	n/a	0	0	0
4175.854	n/a	WORD	2087927	wordpools/wasnorm_wordpool_576.txt	LTP305	ltpFR2	4	17	MEDAL	885	n/a	n/a	0	0	0
4178.404	n/a	WORD	2089202	wordpools/wasnorm_wordpool_576.txt	LTP305	ltpFR2	4	17	PLAYGROUND	1087	n/a	n/a	0	0	0
4181.174	n/a	WORD	2090587	wordpools/wasnorm_wordpool_576.txt	LTP305	ltpFR2	4	17	BOARD	143	n/a	n/a	0	0	0
4183.726	n/a	WORD	2091863	wordpools/wasnorm_wordpool_576.txt	LTP305	ltpFR2	4	17	TART	1436	n/a	n/a	0	0	0
4186.194	n/a	WORD	2093097	wordpools/wasnorm_wordpool_576.txt	LTP305	ltpFR2	4	17	ARM	38	n/a	n/a	0	0	0
4188.764	n/a	WORD	2094382	wordpools/wasnorm_wordpool_576.txt	LTP305	ltpFR2	4	17	BEAST	108	n/a	n/a	0	0	0
4191.382	n/a	WORD	2095691	wordpools/wasnorm_wordpool_576.txt	LTP305	ltpFR2	4	17	BEAVER	109	n/a	n/a	0	0	0
4193.808	n/a	WORD	2096904	wordpools/wasnorm_wordpool_576.txt	LTP305	ltpFR2	4	17	RIFLE	1192	n/a	n/a	0	0	0
4196.378	n/a	WORD	2098189	wordpools/wasnorm_wordpool_576.txt	LTP305	ltpFR2	4	17	BLOCKADE	137	n/a	n/a	0	0	0
4199.186	n/a	WORD	2099593	wordpools/wasnorm_wordpool_576.txt	LTP305	ltpFR2	4	17	YACHT	1629	n/a	n/a	0	0	0
4201.682	n/a	WORD	2100841	wordpools/wasnorm_wordpool_576.txt	LTP305	ltpFR2	4	17	JEANS	752	n/a	n/a	0	0	0
4204.216	n/a	WORD	2102108	wordpools/wasnorm_wordpool_576.txt	LTP305	ltpFR2	4	17	FILM	565	n/a	n/a	0	0	0
4206.66	n/a	WORD	2103330	wordpools/wasnorm_wordpool_576.txt	LTP305	ltpFR2	4	17	CREVICE	405	n/a	n/a	0	0	0
4209.396	n/a	WORD	2104698	wordpools/wasnorm_wordpool_576.txt	LTP305	ltpFR2	4	17	MOTOR	922	n/a	n/a	0	0	0
4211.93	n/a	WORD	2105965	wordpools/wasnorm_wordpool_576.txt	LTP305	ltpFR2	4	17	AWARD	63	n/a	n/a	0	0	0
4214.534	n/a	WORD	2107267	wordpools/wasnorm_wordpool_576.txt	LTP305	ltpFR2	4	17	RACKET	1155	n/a	n/a	0	0	0
4217.294	n/a	WORD	2108647	wordpools/wasnorm_wordpool_576.txt	LTP305	ltpFR2	4	17	CARROT	249	n/a	n/a	0	0	0
4218.904	n/a	START	2109452	n/a	LTP305	ltpFR2	4	n/a	n/a	n/a	24	n/a	n/a	n/a	n/a
4219.926	n/a	DISTRACTOR	2109963	n/a	LTP305	ltpFR2	4	17	n/a	n/a	n/a	n/a	0	0	0
4219.93	n/a	PROB	2109965	n/a	LTP305	ltpFR2	4	n/a	n/a	n/a	24	18	7	3	8
4223.038	n/a	PROB	2111519	n/a	LTP305	ltpFR2	4	n/a	n/a	n/a	24	18	7	9	2
4224.69	n/a	PROB	2112345	n/a	LTP305	ltpFR2	4	n/a	n/a	n/a	24	10	2	5	3
4226.774	n/a	PROB	2113387	n/a	LTP305	ltpFR2	4	n/a	n/a	n/a	24	13	5	3	5
4228.378	n/a	PROB	2114189	n/a	LTP305	ltpFR2	4	n/a	n/a	n/a	24	13	3	3	7
4231.328	n/a	PROB	2115664	n/a	LTP305	ltpFR2	4	n/a	n/a	n/a	24	16	6	1	9
4232.78	n/a	PROB	2116390	n/a	LTP305	ltpFR2	4	n/a	n/a	n/a	24	18	9	3	6
4234.6	n/a	PROB	2117300	n/a	LTP305	ltpFR2	4	n/a	n/a	n/a	24	9	1	2	6
4236.434	n/a	PROB	2118217	n/a	LTP305	ltpFR2	4	n/a	n/a	n/a	24	11	4	6	1
4238.068	n/a	PROB	2119034	n/a	LTP305	ltpFR2	4	n/a	n/a	n/a	24	13	4	6	3
4240.654	n/a	PROB	2120327	n/a	LTP305	ltpFR2	4	n/a	n/a	n/a	24	8	2	1	5
4242.286	n/a	STOP	2121143	n/a	LTP305	ltpFR2	4	n/a	n/a	n/a	24	n/a	n/a	n/a	n/a
4244.772	n/a	REC_START	2122386	n/a	LTP305	ltpFR2	4	17	n/a	n/a	n/a	n/a	0	0	0
4245.732	n/a	REC_WORD	2122866	wordpools/wasnorm_wordpool_576.txt	LTP305	ltpFR2	4	17	CARROT	249	n/a	n/a	0	0	0
4265.542	n/a	REC_WORD	2132771	wordpools/wasnorm_wordpool_576.txt	LTP305	ltpFR2	4	17	PLAYGROUND	1087	n/a	n/a	0	0	0
4335.226	n/a	DISTRACTOR	2167613	n/a	LTP305	ltpFR2	4	18	n/a	n/a	n/a	n/a	0	0	0
4335.226	n/a	START	2167613	n/a	LTP305	ltpFR2	4	n/a	n/a	n/a	25	n/a	n/a	n/a	n/a
4335.244	n/a	PROB	2167622	n/a	LTP305	ltpFR2	4	n/a	n/a	n/a	25	21	3	9	9
4337.644	n/a	PROB	2168822	n/a	LTP305	ltpFR2	4	n/a	n/a	n/a	25	10	1	1	8
4339.164	n/a	PROB	2169582	n/a	LTP305	ltpFR2	4	n/a	n/a	n/a	25	9	2	6	1
4341.114	n/a	PROB	2170557	n/a	LTP305	ltpFR2	4	n/a	n/a	n/a	25	11	2	7	2
4342.6	n/a	PROB	2171300	n/a	LTP305	ltpFR2	4	n/a	n/a	n/a	25	9	1	4	4
4344.05	n/a	PROB	2172025	n/a	LTP305	ltpFR2	4	n/a	n/a	n/a	25	16	2	9	5
4346.368	n/a	PROB	2173184	n/a	LTP305	ltpFR2	4	n/a	n/a	n/a	25	15	3	8	4
4347.718	n/a	PROB	2173859	n/a	LTP305	ltpFR2	4	n/a	n/a	n/a	25	11	1	1	9
4349.672	n/a	PROB	2174836	n/a	LTP305	ltpFR2	4	n/a	n/a	n/a	25	18	3	9	6
4351.788	n/a	PROB	2175894	n/a	LTP305	ltpFR2	4	n/a	n/a	n/a	25	14	1	4	9
4353.406	n/a	PROB	2176703	n/a	LTP305	ltpFR2	4	n/a	n/a	n/a	25	9	5	2	2
4355.058	n/a	PROB	2177529	n/a	LTP305	ltpFR2	4	n/a	n/a	n/a	25	11	2	5	4
4356.444	n/a	PROB	2178222	n/a	LTP305	ltpFR2	4	n/a	n/a	n/a	25	14	3	7	4
4358.04	n/a	STOP	2179020	n/a	LTP305	ltpFR2	4	n/a	n/a	n/a	25	n/a	n/a	n/a	n/a
4360.364	n/a	WORD	2180182	wordpools/wasnorm_wordpool_576.txt	LTP305	ltpFR2	4	18	MAPLE	866	n/a	n/a	0	0	0
4362.9	n/a	WORD	2181450	wordpools/wasnorm_wordpool_576.txt	LTP305	ltpFR2	4	18	WAGON	1578	n/a	n/a	0	0	0
4365.522	n/a	WORD	2182761	wordpools/wasnorm_wordpool_576.txt	LTP305	ltpFR2	4	18	GLOBE	641	n/a	n/a	0	0	0
4367.986	n/a	WORD	2183993	wordpools/wasnorm_wordpool_576.txt	LTP305	ltpFR2	4	18	TOMBSTONE	1478	n/a	n/a	0	0	0
4370.622	n/a	WORD	2185311	wordpools/wasnorm_wordpool_576.txt	LTP305	ltpFR2	4	18	FREEZER	604	n/a	n/a	0	0	0
4373.424	n/a	WORD	2186712	wordpools/wasnorm_wordpool_576.txt	LTP305	ltpFR2	4	18	LEG	809	n/a	n/a	0	0	0
4375.842	n/a	WORD	2187921	wordpools/wasnorm_wordpool_576.txt	LTP305	ltpFR2	4	18	CREATURE	403	n/a	n/a	0	0	0
4378.646	n/a	WORD	2189323	wordpools/wasnorm_wordpool_576.txt	LTP305	ltpFR2	4	18	ZEBRA	1635	n/a	n/a	0	0	0
4381.262	n/a	WORD	2190631	wordpools/wasnorm_wordpool_576.txt	LTP305	ltpFR2	4	18	COLONEL	348	n/a	n/a	0	0	0
4383.902	n/a	WORD	2191951	wordpools/wasnorm_wordpool_576.txt	LTP305	ltpFR2	4	18	GUARD	667	n/a	n/a	0	0	0
4386.552	n/a	WORD	2193276	wordpools/wasnorm_wordpool_576.txt	LTP305	ltpFR2	4	18	PLUTO	1092	n/a	n/a	0	0	0
4388.968	n/a	WORD	2194484	wordpools/wasnorm_wordpool_576.txt	LTP305	ltpFR2	4	18	MARS	873	n/a	n/a	0	0	0
4391.688	n/a	WORD	2195844	wordpools/wasnorm_wordpool_576.txt	LTP305	ltpFR2	4	18	SPACE	1345	n/a	n/a	0	0	0
4394.122	n/a	WORD	2197061	wordpools/wasnorm_wordpool_576.txt	LTP305	ltpFR2	4	18	ZIPPER	1636	n/a	n/a	0	0	0
4396.848	n/a	WORD	2198424	wordpools/wasnorm_wordpool_576.txt	LTP305	ltpFR2	4	18	TAXI	1438	n/a	n/a	0	0	0
4399.612	n/a	WORD	2199806	wordpools/wasnorm_wordpool_576.txt	LTP305	ltpFR2	4	18	VICTIM	1562	n/a	n/a	0	0	0
4402.218	n/a	WORD	2201109	wordpools/wasnorm_wordpool_576.txt	LTP305	ltpFR2	4	18	ROCKET	1202	n/a	n/a	0	0	0
4404.982	n/a	WORD	2202491	wordpools/wasnorm_wordpool_576.txt	LTP305	ltpFR2	4	18	CROSS	413	n/a	n/a	0	0	0
4407.534	n/a	WORD	2203767	wordpools/wasnorm_wordpool_576.txt	LTP305	ltpFR2	4	18	BUNNY	198	n/a	n/a	0	0	0
4410.252	n/a	WORD	2205126	wordpools/wasnorm_wordpool_576.txt	LTP305	ltpFR2	4	18	FLOWER	584	n/a	n/a	0	0	0
4412.972	n/a	WORD	2206486	wordpools/wasnorm_wordpool_576.txt	LTP305	ltpFR2	4	18	DENTIST	447	n/a	n/a	0	0	0
4415.692	n/a	WORD	2207846	wordpools/wasnorm_wordpool_576.txt	LTP305	ltpFR2	4	18	SHOULDER	1294	n/a	n/a	0	0	0
4418.476	n/a	WORD	2209238	wordpools/wasnorm_wordpool_576.txt	LTP305	ltpFR2	4	18	ATLAS	53	n/a	n/a	0	0	0
4421.078	n/a	WORD	2210539	wordpools/wasnorm_wordpool_576.txt	LTP305	ltpFR2	4	18	COOK	372	n/a	n/a	0	0	0
4422.688	n/a	START	2211344	n/a	LTP305	ltpFR2	4	n/a	n/a	n/a	26	n/a	n/a	n/a	n/a
4423.496	n/a	DISTRACTOR	2211748	n/a	LTP305	ltpFR2	4	18	n/a	n/a	n/a	n/a	0	0	0
4423.504	n/a	PROB	2211752	n/a	LTP305	ltpFR2	4	n/a	n/a	n/a	26	15	7	7	1
4425.696	n/a	PROB	2212848	n/a	LTP305	ltpFR2	4	n/a	n/a	n/a	26	25	8	8	9
4428.182	n/a	PROB	2214091	n/a	LTP305	ltpFR2	4	n/a	n/a	n/a	26	10	6	2	2
4429.716	n/a	PROB	2214858	n/a	LTP305	ltpFR2	4	n/a	n/a	n/a	26	12	3	3	6
4431.3	n/a	PROB	2215650	n/a	LTP305	ltpFR2	4	n/a	n/a	n/a	26	17	2	9	6
4433.168	n/a	PROB	2216584	n/a	LTP305	ltpFR2	4	n/a	n/a	n/a	26	16	4	3	9
4434.822	n/a	PROB	2217411	n/a	LTP305	ltpFR2	4	n/a	n/a	n/a	26	12	2	8	2
4436.722	n/a	PROB	2218361	n/a	LTP305	ltpFR2	4	n/a	n/a	n/a	26	13	7	3	3
4438.61	n/a	PROB	2219305	n/a	LTP305	ltpFR2	4	n/a	n/a	n/a	26	16	1	6	9
4440.042	n/a	PROB	2220021	n/a	LTP305	ltpFR2	4	n/a	n/a	n/a	26	14	3	4	7
4441.86	n/a	PROB	2220930	n/a	LTP305	ltpFR2	4	n/a	n/a	n/a	26	12	7	2	3
4443.644	n/a	PROB	2221822	n/a	LTP305	ltpFR2	4	n/a	n/a	n/a	26	17	7	3	7
4445.532	n/a	STOP	2222766	n/a	LTP305	ltpFR2	4	n/a	n/a	n/a	26	n/a	n/a	n/a	n/a
4448.566	n/a	REC_START	2224283	n/a	LTP305	ltpFR2	4	18	n/a	n/a	n/a	n/a	0	0	0
4450.902	n/a	REC_WORD	2225451	wordpools/wasnorm_wordpool_576.txt	LTP305	ltpFR2	4	18	MAPLE	866	n/a	n/a	0	0	0
4452.178	n/a	REC_WORD	2226089	wordpools/wasnorm_wordpool_576.txt	LTP305	ltpFR2	4	18	WAGON	1578	n/a	n/a	0	0	0
4539.002	n/a	DISTRACTOR	2269501	n/a	LTP305	ltpFR2	4	19	n/a	n/a	n/a	n/a	0	0	0
4539.002	n/a	START	2269501	n/a	LTP305	ltpFR2	4	n/a	n/a	n/a	27	n/a	n/a	n/a	n/a
4539.018	n/a	PROB	2269509	n/a	LTP305	ltpFR2	4	n/a	n/a	n/a	27	12	5	5	2
4540.954	n/a	PROB	2270477	n/a	LTP305	ltpFR2	4	n/a	n/a	n/a	27	20	9	4	7
4542.57	n/a	PROB	2271285	n/a	LTP305	ltpFR2	4	n/a	n/a	n/a	27	14	3	7	4
4544.29	n/a	PROB	2272145	n/a	LTP305	ltpFR2	4	n/a	n/a	n/a	27	15	7	5	3
4546.108	n/a	PROB	2273054	n/a	LTP305	ltpFR2	4	n/a	n/a	n/a	27	15	4	8	3
4548.158	n/a	PROB	2274079	n/a	LTP305	ltpFR2	4	n/a	n/a	n/a	27	12	8	3	1
4549.744	n/a	PROB	2274872	n/a	LTP305	ltpFR2	4	n/a	n/a	n/a	27	13	5	7	1
4551.164	n/a	PROB	2275582	n/a	LTP305	ltpFR2	4	n/a	n/a	n/a	27	23	9	7	7
4552.978	n/a	PROB	2276489	n/a	LTP305	ltpFR2	4	n/a	n/a	n/a	27	16	6	5	5
4554.296	n/a	PROB	2277148	n/a	LTP305	ltpFR2	4	n/a	n/a	n/a	27	8	5	2	1
4555.916	n/a	PROB	2277958	n/a	LTP305	ltpFR2	4	n/a	n/a	n/a	27	15	8	3	4
4558.166	n/a	PROB	2279083	n/a	LTP305	ltpFR2	4	n/a	n/a	n/a	27	5	1	3	1
4559.35	n/a	PROB	2279675	n/a	LTP305	ltpFR2	4	n/a	n/a	n/a	27	13	5	7	1
4560.918	n/a	PROB	2280459	n/a	LTP305	ltpFR2	4	n/a	n/a	n/a	27	18	8	7	3
4562.74	n/a	STOP	2281370	n/a	LTP305	ltpFR2	4	n/a	n/a	n/a	27	n/a	n/a	n/a	n/a
4564.088	n/a	WORD	2282044	wordpools/wasnorm_wordpool_576.txt	LTP305	ltpFR2	4	19	TWEEZERS	1526	n/a	n/a	0	0	0
4566.626	n/a	WORD	2283313	wordpools/wasnorm_wordpool_576.txt	LTP305	ltpFR2	4	19	TEACHER	1440	n/a	n/a	0	0	0
4569.326	n/a	WORD	2284663	wordpools/wasnorm_wordpool_576.txt	LTP305	ltpFR2	4	19	NOVEL	960	n/a	n/a	0	0	0
4571.862	n/a	WORD	2285931	wordpools/wasnorm_wordpool_576.txt	LTP305	ltpFR2	4	19	CLOCK	325	n/a	n/a	0	0	0
4574.682	n/a	WORD	2287341	wordpools/wasnorm_wordpool_576.txt	LTP305	ltpFR2	4	19	COCKTAIL	338	n/a	n/a	0	0	0
4577.448	n/a	WORD	2288724	wordpools/wasnorm_wordpool_576.txt	LTP305	ltpFR2	4	19	THRONE	1461	n/a	n/a	0	0	0
4580.018	n/a	WORD	2290009	wordpools/wasnorm_wordpool_576.txt	LTP305	ltpFR2	4	19	MACHINE	852	n/a	n/a	0	0	0
4582.704	n/a	WORD	2291352	wordpools/wasnorm_wordpool_576.txt	LTP305	ltpFR2	4	19	MOTEL	919	n/a	n/a	0	0	0
4585.356	n/a	WORD	2292678	wordpools/wasnorm_wordpool_576.txt	LTP305	ltpFR2	4	19	DORM	488	n/a	n/a	0	0	0
4588.024	n/a	WORD	2294012	wordpools/wasnorm_wordpool_576.txt	LTP305	ltpFR2	4	19	PLATE	1086	n/a	n/a	0	0	0
4590.626	n/a	WORD	2295313	wordpools/wasnorm_wordpool_576.txt	LTP305	ltpFR2	4	19	DONKEY	484	n/a	n/a	0	0	0
4593.38	n/a	WORD	2296690	wordpools/wasnorm_wordpool_576.txt	LTP305	ltpFR2	4	19	BEEF	113	n/a	n/a	0	0	0
4595.814	n/a	WORD	2297907	wordpools/wasnorm_wordpool_576.txt	LTP305	ltpFR2	4	19	GLOVE	642	n/a	n/a	0	0	0
4598.586	n/a	WORD	2299293	wordpools/wasnorm_wordpool_576.txt	LTP305	ltpFR2	4	19	FINGER	567	n/a	n/a	0	0	0
4601.016	n/a	WORD	2300508	wordpools/wasnorm_wordpool_576.txt	LTP305	ltpFR2	4	19	BLUEPRINT	142	n/a	n/a	0	0	0
4603.538	n/a	WORD	2301769	wordpools/wasnorm_wordpool_576.txt	LTP305	ltpFR2	4	19	SEAGULL	1261	n/a	n/a	0	0	0
4605.988	n/a	WORD	2302994	wordpools/wasnorm_wordpool_576.txt	LTP305	ltpFR2	4	19	CATTLE	261	n/a	n/a	0	0	0
4608.64	n/a	WORD	2304320	wordpools/wasnorm_wordpool_576.txt	LTP305	ltpFR2	4	19	AGENT	10	n/a	n/a	0	0	0
4611.242	n/a	WORD	2305621	wordpools/wasnorm_wordpool_576.txt	LTP305	ltpFR2	4	19	STALLION	1369	n/a	n/a	0	0	0
4613.696	n/a	WORD	2306848	wordpools/wasnorm_wordpool_576.txt	LTP305	ltpFR2	4	19	QUEEN	1149	n/a	n/a	0	0	0
4616.368	n/a	WORD	2308184	wordpools/wasnorm_wordpool_576.txt	LTP305	ltpFR2	4	19	DANDRUFF	439	n/a	n/a	0	0	0
4619.132	n/a	WORD	2309566	wordpools/wasnorm_wordpool_576.txt	LTP305	ltpFR2	4	19	COMPASS	358	n/a	n/a	0	0	0
4621.934	n/a	WORD	2310967	wordpools/wasnorm_wordpool_576.txt	LTP305	ltpFR2	4	19	VALVE	1546	n/a	n/a	0	0	0
4624.686	n/a	WORD	2312343	wordpools/wasnorm_wordpool_576.txt	LTP305	ltpFR2	4	19	FIREMAN	569	n/a	n/a	0	0	0
4626.292	n/a	START	2313146	n/a	LTP305	ltpFR2	4	n/a	n/a	n/a	28	n/a	n/a	n/a	n/a
4627.394	n/a	DISTRACTOR	2313697	n/a	LTP305	ltpFR2	4	19	n/a	n/a	n/a	n/a	0	0	0
4627.406	n/a	PROB	2313703	n/a	LTP305	ltpFR2	4	n/a	n/a	n/a	28	16	8	4	4
4629.54	n/a	PROB	2314770	n/a	LTP305	ltpFR2	4	n/a	n/a	n/a	28	13	5	5	3
4630.842	n/a	PROB	2315421	n/a	LTP305	ltpFR2	4	n/a	n/a	n/a	28	12	2	1	9
4632.376	n/a	PROB	2316188	n/a	LTP305	ltpFR2	4	n/a	n/a	n/a	28	18	9	1	8
4634.478	n/a	PROB	2317239	n/a	LTP305	ltpFR2	4	n/a	n/a	n/a	28	19	6	7	6
4636.546	n/a	PROB	2318273	n/a	LTP305	ltpFR2	4	n/a	n/a	n/a	28	11	7	3	1
4637.746	n/a	PROB	2318873	n/a	LTP305	ltpFR2	4	n/a	n/a	n/a	28	14	4	2	8
4640.38	n/a	PROB	2320190	n/a	LTP305	ltpFR2	4	n/a	n/a	n/a	28	19	6	9	4
4642.382	n/a	PROB	2321191	n/a	LTP305	ltpFR2	4	n/a	n/a	n/a	28	5	2	2	1
4643.518	n/a	PROB	2321759	n/a	LTP305	ltpFR2	4	n/a	n/a	n/a	28	23	9	6	8
4645.384	n/a	PROB	2322692	n/a	LTP305	ltpFR2	4	n/a	n/a	n/a	28	15	3	3	9
4646.836	n/a	PROB	2323418	n/a	LTP305	ltpFR2	4	n/a	n/a	n/a	28	12	3	4	5
4648.522	n/a	PROB	2324261	n/a	LTP305	ltpFR2	4	n/a	n/a	n/a	28	13	3	2	8
4649.702	n/a	STOP	2324851	n/a	LTP305	ltpFR2	4	n/a	n/a	n/a	28	n/a	n/a	n/a	n/a
4652.192	n/a	REC_START	2326096	n/a	LTP305	ltpFR2	4	19	n/a	n/a	n/a	n/a	0	0	0
4654.338	n/a	REC_WORD	2327169	wordpools/wasnorm_wordpool_576.txt	LTP305	ltpFR2	4	19	NOVEL	960	n/a	n/a	0	0	0
4664.986	n/a	REC_WORD	2332493	wordpools/wasnorm_wordpool_576.txt	LTP305	ltpFR2	4	19	DORM	488	n/a	n/a	0	0	0
4666.282	n/a	REC_WORD	2333141	wordpools/wasnorm_wordpool_576.txt	LTP305	ltpFR2	4	19	DONKEY	484	n/a	n/a	0	0	0
4667.41	n/a	REC_WORD	2333705	wordpools/wasnorm_wordpool_576.txt	LTP305	ltpFR2	4	19	PLATE	1086	n/a	n/a	0	0	0
4668.592	n/a	REC_WORD	2334296	wordpools/wasnorm_wordpool_576.txt	LTP305	ltpFR2	4	19	MOTEL	919	n/a	n/a	0	0	0
4742.624	n/a	DISTRACTOR	2371312	n/a	LTP305	ltpFR2	4	20	n/a	n/a	n/a	n/a	0	0	0
4742.624	n/a	START	2371312	n/a	LTP305	ltpFR2	4	n/a	n/a	n/a	29	n/a	n/a	n/a	n/a
4742.642	n/a	PROB	2371321	n/a	LTP305	ltpFR2	4	n/a	n/a	n/a	29	16	6	4	6
4747.214	n/a	PROB	2373607	n/a	LTP305	ltpFR2	4	n/a	n/a	n/a	29	19	5	9	5
4749.218	n/a	PROB	2374609	n/a	LTP305	ltpFR2	4	n/a	n/a	n/a	29	15	1	9	5
4750.784	n/a	PROB	2375392	n/a	LTP305	ltpFR2	4	n/a	n/a	n/a	29	17	7	5	5
4752.464	n/a	PROB	2376232	n/a	LTP305	ltpFR2	4	n/a	n/a	n/a	29	15	6	6	3
4754.032	n/a	PROB	2377016	n/a	LTP305	ltpFR2	4	n/a	n/a	n/a	29	17	4	9	4
4756.608	n/a	PROB	2378304	n/a	LTP305	ltpFR2	4	n/a	n/a	n/a	29	14	4	5	5
4758.22	n/a	PROB	2379110	n/a	LTP305	ltpFR2	4	n/a	n/a	n/a	29	11	2	3	6
4760.222	n/a	PROB	2380111	n/a	LTP305	ltpFR2	4	n/a	n/a	n/a	29	28	4	8	3
4762.742	n/a	PROB	2381371	n/a	LTP305	ltpFR2	4	n/a	n/a	n/a	29	10	4	2	4
4764.926	n/a	PROB	2382463	n/a	LTP305	ltpFR2	4	n/a	n/a	n/a	29	21	9	6	6
4766.352	n/a	STOP	2383176	n/a	LTP305	ltpFR2	4	n/a	n/a	n/a	29	n/a	n/a	n/a	n/a
4767.778	n/a	WORD	2383889	wordpools/wasnorm_wordpool_576.txt	LTP305	ltpFR2	4	20	TURNIP	1521	n/a	n/a	0	0	0
4770.23	n/a	WORD	2385115	wordpools/wasnorm_wordpool_576.txt	LTP305	ltpFR2	4	20	SADDLE	1221	n/a	n/a	0	0	0
4772.798	n/a	WORD	2386399	wordpools/wasnorm_wordpool_576.txt	LTP305	ltpFR2	4	20	FLASK	576	n/a	n/a	0	0	0
4775.384	n/a	WORD	2387692	wordpools/wasnorm_wordpool_576.txt	LTP305	ltpFR2	4	20	HANDBAG	684	n/a	n/a	0	0	0
4777.854	n/a	WORD	2388927	wordpools/wasnorm_wordpool_576.txt	LTP305	ltpFR2	4	20	EGYPT	519	n/a	n/a	0	0	0
4780.474	n/a	WORD	2390237	wordpools/wasnorm_wordpool_576.txt	LTP305	ltpFR2	4	20	STATUE	1374	n/a	n/a	0	0	0
4783.208	n/a	WORD	2391604	wordpools/wasnorm_wordpool_576.txt	LTP305	ltpFR2	4	20	CRITIC	410	n/a	n/a	0	0	0
4785.678	n/a	WORD	2392839	wordpools/wasnorm_wordpool_576.txt	LTP305	ltpFR2	4	20	POPCORN	1104	n/a	n/a	0	0	0
4788.212	n/a	WORD	2394106	wordpools/wasnorm_wordpool_576.txt	LTP305	ltpFR2	4	20	BOYFRIEND	162	n/a	n/a	0	0	0
4790.664	n/a	WORD	2395332	wordpools/wasnorm_wordpool_576.txt	LTP305	ltpFR2	4	20	FOOT	590	n/a	n/a	0	0	0
4793.468	n/a	WORD	2396734	wordpools/wasnorm_wordpool_576.txt	LTP305	ltpFR2	4	20	GALLON	618	n/a	n/a	0	0	0
4796.152	n/a	WORD	2398076	wordpools/wasnorm_wordpool_576.txt	LTP305	ltpFR2	4	20	CURTAIN	427	n/a	n/a	0	0	0
4798.804	n/a	WORD	2399402	wordpools/wasnorm_wordpool_576.txt	LTP305	ltpFR2	4	20	GLASS	639	n/a	n/a	0	0	0
4801.39	n/a	WORD	2400695	wordpools/wasnorm_wordpool_576.txt	LTP305	ltpFR2	4	20	KETCHUP	771	n/a	n/a	0	0	0
4803.876	n/a	WORD	2401938	wordpools/wasnorm_wordpool_576.txt	LTP305	ltpFR2	4	20	FLUTE	585	n/a	n/a	0	0	0
4806.48	n/a	WORD	2403240	wordpools/wasnorm_wordpool_576.txt	LTP305	ltpFR2	4	20	PROTON	1132	n/a	n/a	0	0	0
4809.296	n/a	WORD	2404648	wordpools/wasnorm_wordpool_576.txt	LTP305	ltpFR2	4	20	COWBOY	395	n/a	n/a	0	0	0
4811.982	n/a	WORD	2405991	wordpools/wasnorm_wordpool_576.txt	LTP305	ltpFR2	4	20	SERVANT	1271	n/a	n/a	0	0	0
4814.486	n/a	WORD	2407243	wordpools/wasnorm_wordpool_576.txt	LTP305	ltpFR2	4	20	ROD	1203	n/a	n/a	0	0	0
4817.102	n/a	WORD	2408551	wordpools/wasnorm_wordpool_576.txt	LTP305	ltpFR2	4	20	CHEMIST	292	n/a	n/a	0	0	0
4819.754	n/a	WORD	2409877	wordpools/wasnorm_wordpool_576.txt	LTP305	ltpFR2	4	20	LODGE	839	n/a	n/a	0	0	0
4822.406	n/a	WORD	2411203	wordpools/wasnorm_wordpool_576.txt	LTP305	ltpFR2	4	20	STOMACH	1384	n/a	n/a	0	0	0
4824.858	n/a	WORD	2412429	wordpools/wasnorm_wordpool_576.txt	LTP305	ltpFR2	4	20	HONEY	713	n/a	n/a	0	0	0
4827.394	n/a	WORD	2413697	wordpools/wasnorm_wordpool_576.txt	LTP305	ltpFR2	4	20	MUSTARD	935	n/a	n/a	0	0	0
4829.012	n/a	START	2414506	n/a	LTP305	ltpFR2	4	n/a	n/a	n/a	30	n/a	n/a	n/a	n/a
4829.898	n/a	DISTRACTOR	2414949	n/a	LTP305	ltpFR2	4	20	n/a	n/a	n/a	n/a	0	0	0
4829.912	n/a	PROB	2414956	n/a	LTP305	ltpFR2	4	n/a	n/a	n/a	30	18	7	7	4
4832.396	n/a	PROB	2416198	n/a	LTP305	ltpFR2	4	n/a	n/a	n/a	30	12	3	4	5
4834.148	n/a	PROB	2417074	n/a	LTP305	ltpFR2	4	n/a	n/a	n/a	30	7	3	3	1
4835.95	n/a	PROB	2417975	n/a	LTP305	ltpFR2	4	n/a	n/a	n/a	30	9	1	2	6
4837.504	n/a	PROB	2418752	n/a	LTP305	ltpFR2	4	n/a	n/a	n/a	30	8	5	1	2
4840.07	n/a	PROB	2420035	n/a	LTP305	ltpFR2	4	n/a	n/a	n/a	30	9	1	7	1
4841.322	n/a	PROB	2420661	n/a	LTP305	ltpFR2	4	n/a	n/a	n/a	30	15	6	3	6
4843.506	n/a	PROB	2421753	n/a	LTP305	ltpFR2	4	n/a	n/a	n/a	30	13	3	3	7
4845.024	n/a	PROB	2422512	n/a	LTP305	ltpFR2	4	n/a	n/a	n/a	30	22	9	9	4
4847.276	n/a	PROB	2423638	n/a	LTP305	ltpFR2	4	n/a	n/a	n/a	30	15	6	3	6
4849.696	n/a	PROB	2424848	n/a	LTP305	ltpFR2	4	n/a	n/a	n/a	30	14	4	8	2
4853.012	n/a	STOP	2426506	n/a	LTP305	ltpFR2	4	n/a	n/a	n/a	30	n/a	n/a	n/a	n/a
4854.9	n/a	REC_START	2427450	n/a	LTP305	ltpFR2	4	20	n/a	n/a	n/a	n/a	0	0	0
4854.9	n/a	REC_WORD_VV	2427450	wordpools/wasnorm_wordpool_576.txt	LTP305	ltpFR2	4	20	<>	-1	n/a	n/a	0	0	0
4945.336	n/a	WORD	2472668	wordpools/wasnorm_wordpool_576.txt	LTP305	ltpFR2	4	21	RUG	1215	n/a	n/a	0	0	0
4948.122	n/a	WORD	2474061	wordpools/wasnorm_wordpool_576.txt	LTP305	ltpFR2	4	21	LIGHTNING	820	n/a	n/a	0	0	0
4950.832	n/a	WORD	2475416	wordpools/wasnorm_wordpool_576.txt	LTP305	ltpFR2	4	21	STAKE	1368	n/a	n/a	0	0	0
4953.386	n/a	WORD	2476693	wordpools/wasnorm_wordpool_576.txt	LTP305	ltpFR2	4	21	WOMAN	1620	n/a	n/a	0	0	0
4956.172	n/a	WORD	2478086	wordpools/wasnorm_wordpool_576.txt	LTP305	ltpFR2	4	21	FRANCE	601	n/a	n/a	0	0	0
4958.812	n/a	WORD	2479406	wordpools/wasnorm_wordpool_576.txt	LTP305	ltpFR2	4	21	FLAG	573	n/a	n/a	0	0	0
4961.544	n/a	WORD	2480772	wordpools/wasnorm_wordpool_576.txt	LTP305	ltpFR2	4	21	EUROPE	541	n/a	n/a	0	0	0
4963.968	n/a	WORD	2481984	wordpools/wasnorm_wordpool_576.txt	LTP305	ltpFR2	4	21	COBRA	336	n/a	n/a	0	0	0
4966.654	n/a	WORD	2483327	wordpools/wasnorm_wordpool_576.txt	LTP305	ltpFR2	4	21	WHISTLE	1606	n/a	n/a	0	0	0
4969.422	n/a	WORD	2484711	wordpools/wasnorm_wordpool_576.txt	LTP305	ltpFR2	4	21	TUBA	1515	n/a	n/a	0	0	0
4972.152	n/a	WORD	2486076	wordpools/wasnorm_wordpool_576.txt	LTP305	ltpFR2	4	21	CHILD	299	n/a	n/a	0	0	0
4974.854	n/a	WORD	2487427	wordpools/wasnorm_wordpool_576.txt	LTP305	ltpFR2	4	21	DAUGHTER	442	n/a	n/a	0	0	0
4977.372	n/a	WORD	2488686	wordpools/wasnorm_wordpool_576.txt	LTP305	ltpFR2	4	21	LIVER	833	n/a	n/a	0	0	0
4979.826	n/a	WORD	2489913	wordpools/wasnorm_wordpool_576.txt	LTP305	ltpFR2	4	21	POISON	1096	n/a	n/a	0	0	0
4982.262	n/a	WORD	2491131	wordpools/wasnorm_wordpool_576.txt	LTP305	ltpFR2	4	21	SOFTBALL	1343	n/a	n/a	0	0	0
4984.764	n/a	WORD	2492382	wordpools/wasnorm_wordpool_576.txt	LTP305	ltpFR2	4	21	PASSAGE	1019	n/a	n/a	0	0	0
4987.418	n/a	WORD	2493709	wordpools/wasnorm_wordpool_576.txt	LTP305	ltpFR2	4	21	COUNTRY	388	n/a	n/a	0	0	0
4989.97	n/a	WORD	2494985	wordpools/wasnorm_wordpool_576.txt	LTP305	ltpFR2	4	21	SLIME	1327	n/a	n/a	0	0	0
4992.752	n/a	WORD	2496376	wordpools/wasnorm_wordpool_576.txt	LTP305	ltpFR2	4	21	PIANO	1057	n/a	n/a	0	0	0
4995.492	n/a	WORD	2497746	wordpools/wasnorm_wordpool_576.txt	LTP305	ltpFR2	4	21	PALACE	1006	n/a	n/a	0	0	0
4998.308	n/a	WORD	2499154	wordpools/wasnorm_wordpool_576.txt	LTP305	ltpFR2	4	21	PRINCE	1124	n/a	n/a	0	0	0
5000.728	n/a	WORD	2500364	wordpools/wasnorm_wordpool_576.txt	LTP305	ltpFR2	4	21	DIME	466	n/a	n/a	0	0	0
5003.382	n/a	WORD	2501691	wordpools/wasnorm_wordpool_576.txt	LTP305	ltpFR2	4	21	MONEY	908	n/a	n/a	0	0	0
5006.198	n/a	WORD	2503099	wordpools/wasnorm_wordpool_576.txt	LTP305	ltpFR2	4	21	LACE	792	n/a	n/a	0	0	0
5007.8	n/a	START	2503900	n/a	LTP305	ltpFR2	4	n/a	n/a	n/a	31	n/a	n/a	n/a	n/a
5008.948	n/a	DISTRACTOR	2504474	n/a	LTP305	ltpFR2	4	21	n/a	n/a	n/a	n/a	0	0	0
5008.952	n/a	PROB	2504476	n/a	LTP305	ltpFR2	4	n/a	n/a	n/a	31	20	9	5	6
5011.218	n/a	PROB	2505609	n/a	LTP305	ltpFR2	4	n/a	n/a	n/a	31	23	8	8	7
5013.054	n/a	PROB	2506527	n/a	LTP305	ltpFR2	4	n/a	n/a	n/a	31	9	4	2	3
5014.936	n/a	PROB	2507468	n/a	LTP305	ltpFR2	4	n/a	n/a	n/a	31	19	9	1	9
5016.626	n/a	PROB	2508313	n/a	LTP305	ltpFR2	4	n/a	n/a	n/a	31	12	2	2	8
5017.924	n/a	PROB	2508962	n/a	LTP305	ltpFR2	4	n/a	n/a	n/a	31	23	8	7	8
5019.592	n/a	PROB	2509796	n/a	LTP305	ltpFR2	4	n/a	n/a	n/a	31	15	5	5	5
5020.878	n/a	PROB	2510439	n/a	LTP305	ltpFR2	4	n/a	n/a	n/a	31	22	9	9	4
5022.528	n/a	PROB	2511264	n/a	LTP305	ltpFR2	4	n/a	n/a	n/a	31	14	9	3	2
5024.08	n/a	PROB	2512040	n/a	LTP305	ltpFR2	4	n/a	n/a	n/a	31	9	6	1	2
5026.1	n/a	PROB	2513050	n/a	LTP305	ltpFR2	4	n/a	n/a	n/a	31	11	9	1	1
5027.416	n/a	PROB	2513708	n/a	LTP305	ltpFR2	4	n/a	n/a	n/a	31	25	9	7	9
5029.236	n/a	PROB	2514618	n/a	LTP305	ltpFR2	4	n/a	n/a	n/a	31	11	4	2	5
