onset	duration	trial_type	sample	stim_file	subject	experiment	session	trial	item_name	item_num	list	answer	test_x	test_y	test_z
245.84	n/a	SESS_START	122920	n/a	LTP115	ltpFR2	12	n/a	n/a	n/a	n/a	n/a	0	0	0
284.16	n/a	START	142080	n/a	LTP115	ltpFR2	12	n/a	n/a	n/a	-1	n/a	n/a	n/a	n/a
284.21	n/a	PROB	142105	n/a	LTP115	ltpFR2	12	n/a	n/a	n/a	-1	16	8	5	3
285.85	n/a	PROB	142925	n/a	LTP115	ltpFR2	12	n/a	n/a	n/a	-1	11	3	6	2
287.756	n/a	PROB	143878	n/a	LTP115	ltpFR2	12	n/a	n/a	n/a	-1	13	8	1	4
289.398	n/a	PROB	144699	n/a	LTP115	ltpFR2	12	n/a	n/a	n/a	-1	10	3	4	3
290.702	n/a	PROB	145351	n/a	LTP115	ltpFR2	12	n/a	n/a	n/a	-1	17	5	4	8
292.742	n/a	PROB	146371	n/a	LTP115	ltpFR2	12	n/a	n/a	n/a	-1	19	9	4	6
294.266	n/a	PROB	147133	n/a	LTP115	ltpFR2	12	n/a	n/a	n/a	-1	18	8	6	4
295.828	n/a	STOP	147914	n/a	LTP115	ltpFR2	12	n/a	n/a	n/a	-1	n/a	n/a	n/a	n/a
359.598	n/a	WORD	179799	wordpools/wasnorm_wordpool_576.txt	LTP115	ltpFR2	12	1	LOVER	846	n/a	n/a	0	0	0
362.36	n/a	WORD	181180	wordpools/wasnorm_wordpool_576.txt	LTP115	ltpFR2	12	1	LACE	792	n/a	n/a	0	0	0
365.166	n/a	WORD	182583	wordpools/wasnorm_wordpool_576.txt	LTP115	ltpFR2	12	1	LIVER	833	n/a	n/a	0	0	0
367.98	n/a	WORD	183990	wordpools/wasnorm_wordpool_576.txt	LTP115	ltpFR2	12	1	MASK	876	n/a	n/a	0	0	0
370.574	n/a	WORD	185287	wordpools/wasnorm_wordpool_576.txt	LTP115	ltpFR2	12	1	FRECKLE	602	n/a	n/a	0	0	0
373.028	n/a	WORD	186514	wordpools/wasnorm_wordpool_576.txt	LTP115	ltpFR2	12	1	RELISH	1183	n/a	n/a	0	0	0
375.654	n/a	WORD	187827	wordpools/wasnorm_wordpool_576.txt	LTP115	ltpFR2	12	1	WINDOW	1611	n/a	n/a	0	0	0
378.218	n/a	WORD	189109	wordpools/wasnorm_wordpool_576.txt	LTP115	ltpFR2	12	1	CORAL	378	n/a	n/a	0	0	0
380.758	n/a	WORD	190379	wordpools/wasnorm_wordpool_576.txt	LTP115	ltpFR2	12	1	CHIPMUNK	304	n/a	n/a	0	0	0
383.59	n/a	WORD	191795	wordpools/wasnorm_wordpool_576.txt	LTP115	ltpFR2	12	1	CRAYON	401	n/a	n/a	0	0	0
386.25	n/a	WORD	193125	wordpools/wasnorm_wordpool_576.txt	LTP115	ltpFR2	12	1	LABEL	790	n/a	n/a	0	0	0
389.06	n/a	WORD	194530	wordpools/wasnorm_wordpool_576.txt	LTP115	ltpFR2	12	1	CHEST	295	n/a	n/a	0	0	0
391.57	n/a	WORD	195785	wordpools/wasnorm_wordpool_576.txt	LTP115	ltpFR2	12	1	LOFT	840	n/a	n/a	0	0	0
394.146	n/a	WORD	197073	wordpools/wasnorm_wordpool_576.txt	LTP115	ltpFR2	12	1	MATTRESS	879	n/a	n/a	0	0	0
396.924	n/a	WORD	198462	wordpools/wasnorm_wordpool_576.txt	LTP115	ltpFR2	12	1	SADDLE	1221	n/a	n/a	0	0	0
399.368	n/a	WORD	199684	wordpools/wasnorm_wordpool_576.txt	LTP115	ltpFR2	12	1	HOOD	714	n/a	n/a	0	0	0
401.844	n/a	WORD	200922	wordpools/wasnorm_wordpool_576.txt	LTP115	ltpFR2	12	1	BANKER	84	n/a	n/a	0	0	0
404.32	n/a	WORD	202160	wordpools/wasnorm_wordpool_576.txt	LTP115	ltpFR2	12	1	GAZELLE	628	n/a	n/a	0	0	0
406.878	n/a	WORD	203439	wordpools/wasnorm_wordpool_576.txt	LTP115	ltpFR2	12	1	CROSS	413	n/a	n/a	0	0	0
409.652	n/a	WORD	204826	wordpools/wasnorm_wordpool_576.txt	LTP115	ltpFR2	12	1	FLESH	579	n/a	n/a	0	0	0
412.368	n/a	WORD	206184	wordpools/wasnorm_wordpool_576.txt	LTP115	ltpFR2	12	1	DRESS	495	n/a	n/a	0	0	0
415.026	n/a	WORD	207513	wordpools/wasnorm_wordpool_576.txt	LTP115	ltpFR2	12	1	CHAUFFEUR	283	n/a	n/a	0	0	0
417.532	n/a	WORD	208766	wordpools/wasnorm_wordpool_576.txt	LTP115	ltpFR2	12	1	LIZARD	834	n/a	n/a	0	0	0
420.146	n/a	WORD	210073	wordpools/wasnorm_wordpool_576.txt	LTP115	ltpFR2	12	1	CLOTHES	327	n/a	n/a	0	0	0
421.752	n/a	START	210876	n/a	LTP115	ltpFR2	12	n/a	n/a	n/a	1	n/a	n/a	n/a	n/a
422.73	n/a	DISTRACTOR	211365	n/a	LTP115	ltpFR2	12	1	n/a	n/a	n/a	n/a	0	0	0
422.74	n/a	PROB	211370	n/a	LTP115	ltpFR2	12	n/a	n/a	n/a	1	16	3	6	7
424.212	n/a	PROB	212106	n/a	LTP115	ltpFR2	12	n/a	n/a	n/a	1	18	5	4	9
426.554	n/a	PROB	213277	n/a	LTP115	ltpFR2	12	n/a	n/a	n/a	1	15	4	8	3
428.16	n/a	PROB	214080	n/a	LTP115	ltpFR2	12	n/a	n/a	n/a	1	9	1	5	3
429.666	n/a	PROB	214833	n/a	LTP115	ltpFR2	12	n/a	n/a	n/a	1	18	5	4	9
431.808	n/a	PROB	215904	n/a	LTP115	ltpFR2	12	n/a	n/a	n/a	1	19	7	7	5
433.38	n/a	PROB	216690	n/a	LTP115	ltpFR2	12	n/a	n/a	n/a	1	17	4	5	8
435.422	n/a	PROB	217711	n/a	LTP115	ltpFR2	12	n/a	n/a	n/a	1	14	4	7	3
436.842	n/a	PROB	218421	n/a	LTP115	ltpFR2	12	n/a	n/a	n/a	1	12	6	5	1
437.914	n/a	PROB	218957	n/a	LTP115	ltpFR2	12	n/a	n/a	n/a	1	20	6	7	7
439.266	n/a	PROB	219633	n/a	LTP115	ltpFR2	12	n/a	n/a	n/a	1	14	4	6	4
441.624	n/a	PROB	220812	n/a	LTP115	ltpFR2	12	n/a	n/a	n/a	1	10	3	6	1
442.662	n/a	PROB	221331	n/a	LTP115	ltpFR2	12	n/a	n/a	n/a	1	16	9	3	4
444.218	n/a	PROB	222109	n/a	LTP115	ltpFR2	12	n/a	n/a	n/a	1	7	1	1	5
445.188	n/a	STOP	222594	n/a	LTP115	ltpFR2	12	n/a	n/a	n/a	1	n/a	n/a	n/a	n/a
447.698	n/a	REC_START	223849	n/a	LTP115	ltpFR2	12	1	n/a	n/a	n/a	n/a	0	0	0
448.938	n/a	REC_WORD	224469	wordpools/wasnorm_wordpool_576.txt	LTP115	ltpFR2	12	1	LOVER	846	n/a	n/a	0	0	0
450.006	n/a	REC_WORD_VV	225003	wordpools/wasnorm_wordpool_576.txt	LTP115	ltpFR2	12	1	<>	-1	n/a	n/a	0	0	0
450.456	n/a	REC_WORD	225228	wordpools/wasnorm_wordpool_576.txt	LTP115	ltpFR2	12	1	LACE	792	n/a	n/a	0	0	0
451.634	n/a	REC_WORD	225817	wordpools/wasnorm_wordpool_576.txt	LTP115	ltpFR2	12	1	LIVER	833	n/a	n/a	0	0	0
452.806	n/a	REC_WORD	226403	wordpools/wasnorm_wordpool_576.txt	LTP115	ltpFR2	12	1	WINDOW	1611	n/a	n/a	0	0	0
453.458	n/a	REC_WORD	226729	wordpools/wasnorm_wordpool_576.txt	LTP115	ltpFR2	12	1	CHIPMUNK	304	n/a	n/a	0	0	0
454.458	n/a	REC_WORD_VV	227229	wordpools/wasnorm_wordpool_576.txt	LTP115	ltpFR2	12	1	<>	-1	n/a	n/a	0	0	0
454.864	n/a	REC_WORD	227432	wordpools/wasnorm_wordpool_576.txt	LTP115	ltpFR2	12	1	LIZARD	834	n/a	n/a	0	0	0
455.612	n/a	REC_WORD	227806	wordpools/wasnorm_wordpool_576.txt	LTP115	ltpFR2	12	1	DRESS	495	n/a	n/a	0	0	0
456.252	n/a	REC_WORD	228126	wordpools/wasnorm_wordpool_576.txt	LTP115	ltpFR2	12	1	CORAL	378	n/a	n/a	0	0	0
457.33	n/a	REC_WORD	228665	wordpools/wasnorm_wordpool_576.txt	LTP115	ltpFR2	12	1	CRAYON	401	n/a	n/a	0	0	0
458.54	n/a	REC_WORD	229270	wordpools/wasnorm_wordpool_576.txt	LTP115	ltpFR2	12	1	WINDOW	1611	n/a	n/a	0	0	0
459.758	n/a	REC_WORD	229879	wordpools/wasnorm_wordpool_576.txt	LTP115	ltpFR2	12	1	CHAUFFEUR	283	n/a	n/a	0	0	0
460.672	n/a	REC_WORD	230336	wordpools/wasnorm_wordpool_576.txt	LTP115	ltpFR2	12	1	GAZELLE	628	n/a	n/a	0	0	0
461.462	n/a	REC_WORD	230731	wordpools/wasnorm_wordpool_576.txt	LTP115	ltpFR2	12	1	SADDLE	1221	n/a	n/a	0	0	0
462.842	n/a	REC_WORD	231421	wordpools/wasnorm_wordpool_576.txt	LTP115	ltpFR2	12	1	MASK	876	n/a	n/a	0	0	0
463.862	n/a	REC_WORD	231931	wordpools/wasnorm_wordpool_576.txt	LTP115	ltpFR2	12	1	HOOD	714	n/a	n/a	0	0	0
465.506	n/a	REC_WORD	232753	wordpools/wasnorm_wordpool_576.txt	LTP115	ltpFR2	12	1	FRECKLE	602	n/a	n/a	0	0	0
467.598	n/a	REC_WORD	233799	wordpools/wasnorm_wordpool_576.txt	LTP115	ltpFR2	12	1	RELISH	1183	n/a	n/a	0	0	0
468.6	n/a	REC_WORD	234300	wordpools/wasnorm_wordpool_576.txt	LTP115	ltpFR2	12	1	CHEST	295	n/a	n/a	0	0	0
469.768	n/a	REC_WORD	234884	wordpools/wasnorm_wordpool_576.txt	LTP115	ltpFR2	12	1	BANKER	84	n/a	n/a	0	0	0
470.76	n/a	REC_WORD	235380	wordpools/wasnorm_wordpool_576.txt	LTP115	ltpFR2	12	1	CROSS	413	n/a	n/a	0	0	0
471.92	n/a	REC_WORD	235960	wordpools/wasnorm_wordpool_576.txt	LTP115	ltpFR2	12	1	FLESH	579	n/a	n/a	0	0	0
475.77	n/a	REC_WORD	237885	wordpools/wasnorm_wordpool_576.txt	LTP115	ltpFR2	12	1	MATTRESS	879	n/a	n/a	0	0	0
488.994	n/a	REC_WORD	244497	wordpools/wasnorm_wordpool_576.txt	LTP115	ltpFR2	12	1	LOFT	840	n/a	n/a	0	0	0
489.772	n/a	REC_WORD	244886	wordpools/wasnorm_wordpool_576.txt	LTP115	ltpFR2	12	1	CLOTHES	327	n/a	n/a	0	0	0
491.756	n/a	REC_WORD	245878	wordpools/wasnorm_wordpool_576.txt	LTP115	ltpFR2	12	1	DRESS	495	n/a	n/a	0	0	0
538.782	n/a	WORD	269391	wordpools/wasnorm_wordpool_576.txt	LTP115	ltpFR2	12	2	GOBLIN	645	n/a	n/a	0	0	0
541.556	n/a	WORD	270778	wordpools/wasnorm_wordpool_576.txt	LTP115	ltpFR2	12	2	PRIMATE	1123	n/a	n/a	0	0	0
544.236	n/a	WORD	272118	wordpools/wasnorm_wordpool_576.txt	LTP115	ltpFR2	12	2	MEDAL	885	n/a	n/a	0	0	0
546.746	n/a	WORD	273373	wordpools/wasnorm_wordpool_576.txt	LTP115	ltpFR2	12	2	SHELF	1280	n/a	n/a	0	0	0
549.39	n/a	WORD	274695	wordpools/wasnorm_wordpool_576.txt	LTP115	ltpFR2	12	2	SUITCASE	1403	n/a	n/a	0	0	0
552.1	n/a	WORD	276050	wordpools/wasnorm_wordpool_576.txt	LTP115	ltpFR2	12	2	MUSTARD	935	n/a	n/a	0	0	0
554.56	n/a	WORD	277280	wordpools/wasnorm_wordpool_576.txt	LTP115	ltpFR2	12	2	HORSE	719	n/a	n/a	0	0	0
557.17	n/a	WORD	278585	wordpools/wasnorm_wordpool_576.txt	LTP115	ltpFR2	12	2	PERCH	1048	n/a	n/a	0	0	0
559.808	n/a	WORD	279904	wordpools/wasnorm_wordpool_576.txt	LTP115	ltpFR2	12	2	OUTDOORS	987	n/a	n/a	0	0	0
562.286	n/a	WORD	281143	wordpools/wasnorm_wordpool_576.txt	LTP115	ltpFR2	12	2	COLONEL	348	n/a	n/a	0	0	0
564.866	n/a	WORD	282433	wordpools/wasnorm_wordpool_576.txt	LTP115	ltpFR2	12	2	JOURNAL	760	n/a	n/a	0	0	0
567.626	n/a	WORD	283813	wordpools/wasnorm_wordpool_576.txt	LTP115	ltpFR2	12	2	FIDDLE	561	n/a	n/a	0	0	0
570.422	n/a	WORD	285211	wordpools/wasnorm_wordpool_576.txt	LTP115	ltpFR2	12	2	WARDROBE	1587	n/a	n/a	0	0	0
572.896	n/a	WORD	286448	wordpools/wasnorm_wordpool_576.txt	LTP115	ltpFR2	12	2	COSTUME	383	n/a	n/a	0	0	0
575.54	n/a	WORD	287770	wordpools/wasnorm_wordpool_576.txt	LTP115	ltpFR2	12	2	TWIG	1527	n/a	n/a	0	0	0
578.25	n/a	WORD	289125	wordpools/wasnorm_wordpool_576.txt	LTP115	ltpFR2	12	2	GRIZZLY	662	n/a	n/a	0	0	0
580.81	n/a	WORD	290405	wordpools/wasnorm_wordpool_576.txt	LTP115	ltpFR2	12	2	CIGAR	308	n/a	n/a	0	0	0
583.286	n/a	WORD	291643	wordpools/wasnorm_wordpool_576.txt	LTP115	ltpFR2	12	2	CAMEL	223	n/a	n/a	0	0	0
585.88	n/a	WORD	292940	wordpools/wasnorm_wordpool_576.txt	LTP115	ltpFR2	12	2	BADGE	68	n/a	n/a	0	0	0
588.54	n/a	WORD	294270	wordpools/wasnorm_wordpool_576.txt	LTP115	ltpFR2	12	2	LUGGAGE	847	n/a	n/a	0	0	0
591.268	n/a	WORD	295634	wordpools/wasnorm_wordpool_576.txt	LTP115	ltpFR2	12	2	ISLAND	745	n/a	n/a	0	0	0
594.006	n/a	WORD	297003	wordpools/wasnorm_wordpool_576.txt	LTP115	ltpFR2	12	2	DRUG	501	n/a	n/a	0	0	0
596.666	n/a	WORD	298333	wordpools/wasnorm_wordpool_576.txt	LTP115	ltpFR2	12	2	IDOL	733	n/a	n/a	0	0	0
599.482	n/a	WORD	299741	wordpools/wasnorm_wordpool_576.txt	LTP115	ltpFR2	12	2	MEAT	883	n/a	n/a	0	0	0
601.088	n/a	START	300544	n/a	LTP115	ltpFR2	12	n/a	n/a	n/a	2	n/a	n/a	n/a	n/a
602.248	n/a	DISTRACTOR	301124	n/a	LTP115	ltpFR2	12	2	n/a	n/a	n/a	n/a	0	0	0
602.258	n/a	PROB	301129	n/a	LTP115	ltpFR2	12	n/a	n/a	n/a	2	23	9	6	8
604.212	n/a	PROB	302106	n/a	LTP115	ltpFR2	12	n/a	n/a	n/a	2	17	9	6	2
605.834	n/a	PROB	302917	n/a	LTP115	ltpFR2	12	n/a	n/a	n/a	2	9	1	2	6
606.84	n/a	PROB	303420	n/a	LTP115	ltpFR2	12	n/a	n/a	n/a	2	18	7	3	8
608.026	n/a	PROB	304013	n/a	LTP115	ltpFR2	12	n/a	n/a	n/a	2	12	9	1	2
609.434	n/a	PROB	304717	n/a	LTP115	ltpFR2	12	n/a	n/a	n/a	2	11	5	5	1
610.654	n/a	PROB	305327	n/a	LTP115	ltpFR2	12	n/a	n/a	n/a	2	14	4	2	8
612.064	n/a	PROB	306032	n/a	LTP115	ltpFR2	12	n/a	n/a	n/a	2	13	4	8	1
613.782	n/a	PROB	306891	n/a	LTP115	ltpFR2	12	n/a	n/a	n/a	2	14	8	3	3
615.17	n/a	PROB	307585	n/a	LTP115	ltpFR2	12	n/a	n/a	n/a	2	11	9	1	1
616.242	n/a	PROB	308121	n/a	LTP115	ltpFR2	12	n/a	n/a	n/a	2	26	8	7	9
618.55	n/a	PROB	309275	n/a	LTP115	ltpFR2	12	n/a	n/a	n/a	2	18	7	9	2
620.442	n/a	PROB	310221	n/a	LTP115	ltpFR2	12	n/a	n/a	n/a	2	10	3	3	4
621.646	n/a	PROB	310823	n/a	LTP115	ltpFR2	12	n/a	n/a	n/a	2	16	9	5	2
622.934	n/a	PROB	311467	n/a	LTP115	ltpFR2	12	n/a	n/a	n/a	2	11	1	6	4
623.99	n/a	STOP	311995	n/a	LTP115	ltpFR2	12	n/a	n/a	n/a	2	n/a	n/a	n/a	n/a
626.884	n/a	REC_START	313442	n/a	LTP115	ltpFR2	12	2	n/a	n/a	n/a	n/a	0	0	0
627.99	n/a	REC_WORD	313995	wordpools/wasnorm_wordpool_576.txt	LTP115	ltpFR2	12	2	GOBLIN	645	n/a	n/a	0	0	0
628.788	n/a	REC_WORD	314394	wordpools/wasnorm_wordpool_576.txt	LTP115	ltpFR2	12	2	PRIMATE	1123	n/a	n/a	0	0	0
629.918	n/a	REC_WORD	314959	wordpools/wasnorm_wordpool_576.txt	LTP115	ltpFR2	12	2	GRIZZLY	662	n/a	n/a	0	0	0
630.908	n/a	REC_WORD	315454	wordpools/wasnorm_wordpool_576.txt	LTP115	ltpFR2	12	2	HORSE	719	n/a	n/a	0	0	0
631.964	n/a	REC_WORD	315982	wordpools/wasnorm_wordpool_576.txt	LTP115	ltpFR2	12	2	SHELF	1280	n/a	n/a	0	0	0
632.868	n/a	REC_WORD	316434	wordpools/wasnorm_wordpool_576.txt	LTP115	ltpFR2	12	2	COLONEL	348	n/a	n/a	0	0	0
633.598	n/a	REC_WORD	316799	wordpools/wasnorm_wordpool_576.txt	LTP115	ltpFR2	12	2	MUSTARD	935	n/a	n/a	0	0	0
635.192	n/a	REC_WORD	317596	wordpools/wasnorm_wordpool_576.txt	LTP115	ltpFR2	12	2	COSTUME	383	n/a	n/a	0	0	0
636.094	n/a	REC_WORD	318047	wordpools/wasnorm_wordpool_576.txt	LTP115	ltpFR2	12	2	WARDROBE	1587	n/a	n/a	0	0	0
636.844	n/a	REC_WORD	318422	wordpools/wasnorm_wordpool_576.txt	LTP115	ltpFR2	12	2	SUITCASE	1403	n/a	n/a	0	0	0
637.658	n/a	REC_WORD	318829	wordpools/wasnorm_wordpool_576.txt	LTP115	ltpFR2	12	2	LUGGAGE	847	n/a	n/a	0	0	0
638.612	n/a	REC_WORD	319306	wordpools/wasnorm_wordpool_576.txt	LTP115	ltpFR2	12	2	PERCH	1048	n/a	n/a	0	0	0
639.23	n/a	REC_WORD	319615	wordpools/wasnorm_wordpool_576.txt	LTP115	ltpFR2	12	2	TWIG	1527	n/a	n/a	0	0	0
639.952	n/a	REC_WORD	319976	wordpools/wasnorm_wordpool_576.txt	LTP115	ltpFR2	12	2	JOURNAL	760	n/a	n/a	0	0	0
642.848	n/a	REC_WORD	321424	wordpools/wasnorm_wordpool_576.txt	LTP115	ltpFR2	12	2	MEAT	883	n/a	n/a	0	0	0
647.732	n/a	REC_WORD	323866	wordpools/wasnorm_wordpool_576.txt	LTP115	ltpFR2	12	2	IDOL	733	n/a	n/a	0	0	0
648.548	n/a	REC_WORD	324274	wordpools/wasnorm_wordpool_576.txt	LTP115	ltpFR2	12	2	ISLAND	745	n/a	n/a	0	0	0
650.156	n/a	REC_WORD	325078	wordpools/wasnorm_wordpool_576.txt	LTP115	ltpFR2	12	2	DRUG	501	n/a	n/a	0	0	0
655.19	n/a	REC_WORD	327595	wordpools/wasnorm_wordpool_576.txt	LTP115	ltpFR2	12	2	CAMEL	223	n/a	n/a	0	0	0
657.666	n/a	REC_WORD	328833	wordpools/wasnorm_wordpool_576.txt	LTP115	ltpFR2	12	2	BADGE	68	n/a	n/a	0	0	0
658.41	n/a	REC_WORD	329205	wordpools/wasnorm_wordpool_576.txt	LTP115	ltpFR2	12	2	MEDAL	885	n/a	n/a	0	0	0
660.92	n/a	REC_WORD_VV	330460	wordpools/wasnorm_wordpool_576.txt	LTP115	ltpFR2	12	2	<>	-1	n/a	n/a	0	0	0
717.918	n/a	WORD	358959	wordpools/wasnorm_wordpool_576.txt	LTP115	ltpFR2	12	3	HONEY	713	n/a	n/a	0	0	0
720.344	n/a	WORD	360172	wordpools/wasnorm_wordpool_576.txt	LTP115	ltpFR2	12	3	POCKET	1093	n/a	n/a	0	0	0
723.004	n/a	WORD	361502	wordpools/wasnorm_wordpool_576.txt	LTP115	ltpFR2	12	3	HANDBAG	684	n/a	n/a	0	0	0
725.694	n/a	WORD	362847	wordpools/wasnorm_wordpool_576.txt	LTP115	ltpFR2	12	3	WASP	1593	n/a	n/a	0	0	0
728.51	n/a	WORD	364255	wordpools/wasnorm_wordpool_576.txt	LTP115	ltpFR2	12	3	SHORTS	1293	n/a	n/a	0	0	0
731.046	n/a	WORD	365523	wordpools/wasnorm_wordpool_576.txt	LTP115	ltpFR2	12	3	GLOBE	641	n/a	n/a	0	0	0
733.778	n/a	WORD	366889	wordpools/wasnorm_wordpool_576.txt	LTP115	ltpFR2	12	3	LEG	809	n/a	n/a	0	0	0
736.338	n/a	WORD	368169	wordpools/wasnorm_wordpool_576.txt	LTP115	ltpFR2	12	3	BLOCKADE	137	n/a	n/a	0	0	0
739.098	n/a	WORD	369549	wordpools/wasnorm_wordpool_576.txt	LTP115	ltpFR2	12	3	ICING	732	n/a	n/a	0	0	0
741.792	n/a	WORD	370896	wordpools/wasnorm_wordpool_576.txt	LTP115	ltpFR2	12	3	STAR	1373	n/a	n/a	0	0	0
744.252	n/a	WORD	372126	wordpools/wasnorm_wordpool_576.txt	LTP115	ltpFR2	12	3	LION	827	n/a	n/a	0	0	0
746.894	n/a	WORD	373447	wordpools/wasnorm_wordpool_576.txt	LTP115	ltpFR2	12	3	CHAPEL	280	n/a	n/a	0	0	0
749.406	n/a	WORD	374703	wordpools/wasnorm_wordpool_576.txt	LTP115	ltpFR2	12	3	TORTOISE	1486	n/a	n/a	0	0	0
751.864	n/a	WORD	375932	wordpools/wasnorm_wordpool_576.txt	LTP115	ltpFR2	12	3	SNAIL	1332	n/a	n/a	0	0	0
754.658	n/a	WORD	377329	wordpools/wasnorm_wordpool_576.txt	LTP115	ltpFR2	12	3	SALT	1229	n/a	n/a	0	0	0
757.252	n/a	WORD	378626	wordpools/wasnorm_wordpool_576.txt	LTP115	ltpFR2	12	3	DANDRUFF	439	n/a	n/a	0	0	0
759.678	n/a	WORD	379839	wordpools/wasnorm_wordpool_576.txt	LTP115	ltpFR2	12	3	MILK	895	n/a	n/a	0	0	0
762.49	n/a	WORD	381245	wordpools/wasnorm_wordpool_576.txt	LTP115	ltpFR2	12	3	GUITAR	670	n/a	n/a	0	0	0
765.228	n/a	WORD	382614	wordpools/wasnorm_wordpool_576.txt	LTP115	ltpFR2	12	3	BINDER	127	n/a	n/a	0	0	0
767.724	n/a	WORD	383862	wordpools/wasnorm_wordpool_576.txt	LTP115	ltpFR2	12	3	CUPBOARD	425	n/a	n/a	0	0	0
770.234	n/a	WORD	385117	wordpools/wasnorm_wordpool_576.txt	LTP115	ltpFR2	12	3	GROUND	666	n/a	n/a	0	0	0
772.978	n/a	WORD	386489	wordpools/wasnorm_wordpool_576.txt	LTP115	ltpFR2	12	3	LAPEL	800	n/a	n/a	0	0	0
775.538	n/a	WORD	387769	wordpools/wasnorm_wordpool_576.txt	LTP115	ltpFR2	12	3	APRON	35	n/a	n/a	0	0	0
778.194	n/a	WORD	389097	wordpools/wasnorm_wordpool_576.txt	LTP115	ltpFR2	12	3	EMPIRE	530	n/a	n/a	0	0	0
779.804	n/a	START	389902	n/a	LTP115	ltpFR2	12	n/a	n/a	n/a	3	n/a	n/a	n/a	n/a
780.968	n/a	DISTRACTOR	390484	n/a	LTP115	ltpFR2	12	3	n/a	n/a	n/a	n/a	0	0	0
780.976	n/a	PROB	390488	n/a	LTP115	ltpFR2	12	n/a	n/a	n/a	3	11	4	5	2
783.134	n/a	PROB	391567	n/a	LTP115	ltpFR2	12	n/a	n/a	n/a	3	23	8	5	9
784.718	n/a	PROB	392359	n/a	LTP115	ltpFR2	12	n/a	n/a	n/a	3	18	8	7	3
785.96	n/a	PROB	392980	n/a	LTP115	ltpFR2	12	n/a	n/a	n/a	3	22	4	9	9
787.346	n/a	PROB	393673	n/a	LTP115	ltpFR2	12	n/a	n/a	n/a	3	19	6	7	6
789.688	n/a	PROB	394844	n/a	LTP115	ltpFR2	12	n/a	n/a	n/a	3	19	8	3	8
791.16	n/a	PROB	395580	n/a	LTP115	ltpFR2	12	n/a	n/a	n/a	3	18	1	8	9
792.666	n/a	PROB	396333	n/a	LTP115	ltpFR2	12	n/a	n/a	n/a	3	12	3	1	8
794.238	n/a	PROB	397119	n/a	LTP115	ltpFR2	12	n/a	n/a	n/a	3	9	3	4	2
795.778	n/a	PROB	397889	n/a	LTP115	ltpFR2	12	n/a	n/a	n/a	3	14	4	7	3
798.136	n/a	PROB	399068	n/a	LTP115	ltpFR2	12	n/a	n/a	n/a	3	18	8	1	9
799.676	n/a	PROB	399838	n/a	LTP115	ltpFR2	12	n/a	n/a	n/a	3	25	8	9	8
802.186	n/a	PROB	401093	n/a	LTP115	ltpFR2	12	n/a	n/a	n/a	3	18	4	7	7
803.568	n/a	STOP	401784	n/a	LTP115	ltpFR2	12	n/a	n/a	n/a	3	n/a	n/a	n/a	n/a
805.566	n/a	REC_START	402783	n/a	LTP115	ltpFR2	12	3	n/a	n/a	n/a	n/a	0	0	0
808.502	n/a	REC_WORD	404251	wordpools/wasnorm_wordpool_576.txt	LTP115	ltpFR2	12	3	LAPEL	800	n/a	n/a	0	0	0
809.18	n/a	REC_WORD	404590	wordpools/wasnorm_wordpool_576.txt	LTP115	ltpFR2	12	3	STAR	1373	n/a	n/a	0	0	0
809.962	n/a	REC_WORD	404981	wordpools/wasnorm_wordpool_576.txt	LTP115	ltpFR2	12	3	EMPIRE	530	n/a	n/a	0	0	0
810.598	n/a	REC_WORD	405299	wordpools/wasnorm_wordpool_576.txt	LTP115	ltpFR2	12	3	GLOBE	641	n/a	n/a	0	0	0
811.204	n/a	REC_WORD	405602	wordpools/wasnorm_wordpool_576.txt	LTP115	ltpFR2	12	3	BLOCKADE	137	n/a	n/a	0	0	0
812.084	n/a	REC_WORD	406042	wordpools/wasnorm_wordpool_576.txt	LTP115	ltpFR2	12	3	GROUND	666	n/a	n/a	0	0	0
813.366	n/a	REC_WORD	406683	wordpools/wasnorm_wordpool_576.txt	LTP115	ltpFR2	12	3	POCKET	1093	n/a	n/a	0	0	0
813.956	n/a	REC_WORD	406978	wordpools/wasnorm_wordpool_576.txt	LTP115	ltpFR2	12	3	HANDBAG	684	n/a	n/a	0	0	0
814.726	n/a	REC_WORD	407363	wordpools/wasnorm_wordpool_576.txt	LTP115	ltpFR2	12	3	SHORTS	1293	n/a	n/a	0	0	0
816.186	n/a	REC_WORD	408093	wordpools/wasnorm_wordpool_576.txt	LTP115	ltpFR2	12	3	LEG	809	n/a	n/a	0	0	0
817.424	n/a	REC_WORD	408712	wordpools/wasnorm_wordpool_576.txt	LTP115	ltpFR2	12	3	HONEY	713	n/a	n/a	0	0	0
818.866	n/a	REC_WORD	409433	wordpools/wasnorm_wordpool_576.txt	LTP115	ltpFR2	12	3	SALT	1229	n/a	n/a	0	0	0
823.13	n/a	REC_WORD	411565	wordpools/wasnorm_wordpool_576.txt	LTP115	ltpFR2	12	3	ICING	732	n/a	n/a	0	0	0
824.122	n/a	REC_WORD	412061	wordpools/wasnorm_wordpool_576.txt	LTP115	ltpFR2	12	3	DANDRUFF	439	n/a	n/a	0	0	0
825.384	n/a	REC_WORD	412692	wordpools/wasnorm_wordpool_576.txt	LTP115	ltpFR2	12	3	LION	827	n/a	n/a	0	0	0
826.238	n/a	REC_WORD	413119	wordpools/wasnorm_wordpool_576.txt	LTP115	ltpFR2	12	3	CHAPEL	280	n/a	n/a	0	0	0
827.686	n/a	REC_WORD	413843	wordpools/wasnorm_wordpool_576.txt	LTP115	ltpFR2	12	3	TORTOISE	1486	n/a	n/a	0	0	0
829.952	n/a	REC_WORD	414976	wordpools/wasnorm_wordpool_576.txt	LTP115	ltpFR2	12	3	SNAIL	1332	n/a	n/a	0	0	0
843.01	n/a	REC_WORD	421505	wordpools/wasnorm_wordpool_576.txt	LTP115	ltpFR2	12	3	WASP	1593	n/a	n/a	0	0	0
844.19	n/a	REC_WORD_VV	422095	wordpools/wasnorm_wordpool_576.txt	LTP115	ltpFR2	12	3	<>	-1	n/a	n/a	0	0	0
896.634	n/a	WORD	448317	wordpools/wasnorm_wordpool_576.txt	LTP115	ltpFR2	12	4	SHARK	1275	n/a	n/a	0	0	0
899.428	n/a	WORD	449714	wordpools/wasnorm_wordpool_576.txt	LTP115	ltpFR2	12	4	DRIVER	499	n/a	n/a	0	0	0
902.05	n/a	WORD	451025	wordpools/wasnorm_wordpool_576.txt	LTP115	ltpFR2	12	4	TAXI	1438	n/a	n/a	0	0	0
904.664	n/a	WORD	452332	wordpools/wasnorm_wordpool_576.txt	LTP115	ltpFR2	12	4	RAFT	1159	n/a	n/a	0	0	0
907.46	n/a	WORD	453730	wordpools/wasnorm_wordpool_576.txt	LTP115	ltpFR2	12	4	SPOON	1357	n/a	n/a	0	0	0
910.266	n/a	WORD	455133	wordpools/wasnorm_wordpool_576.txt	LTP115	ltpFR2	12	4	PADDLE	1000	n/a	n/a	0	0	0
913.06	n/a	WORD	456530	wordpools/wasnorm_wordpool_576.txt	LTP115	ltpFR2	12	4	QUEEN	1149	n/a	n/a	0	0	0
915.706	n/a	WORD	457853	wordpools/wasnorm_wordpool_576.txt	LTP115	ltpFR2	12	4	SHOULDER	1294	n/a	n/a	0	0	0
918.318	n/a	WORD	459159	wordpools/wasnorm_wordpool_576.txt	LTP115	ltpFR2	12	4	PORK	1108	n/a	n/a	0	0	0
921.128	n/a	WORD	460564	wordpools/wasnorm_wordpool_576.txt	LTP115	ltpFR2	12	4	HOSTESS	723	n/a	n/a	0	0	0
923.704	n/a	WORD	461852	wordpools/wasnorm_wordpool_576.txt	LTP115	ltpFR2	12	4	WIDOW	1608	n/a	n/a	0	0	0
926.214	n/a	WORD	463107	wordpools/wasnorm_wordpool_576.txt	LTP115	ltpFR2	12	4	WORLD	1622	n/a	n/a	0	0	0
928.824	n/a	WORD	464412	wordpools/wasnorm_wordpool_576.txt	LTP115	ltpFR2	12	4	BARREL	91	n/a	n/a	0	0	0
931.468	n/a	WORD	465734	wordpools/wasnorm_wordpool_576.txt	LTP115	ltpFR2	12	4	JUNGLE	764	n/a	n/a	0	0	0
934.194	n/a	WORD	467097	wordpools/wasnorm_wordpool_576.txt	LTP115	ltpFR2	12	4	RADISH	1158	n/a	n/a	0	0	0
936.738	n/a	WORD	468369	wordpools/wasnorm_wordpool_576.txt	LTP115	ltpFR2	12	4	BEAVER	109	n/a	n/a	0	0	0
939.516	n/a	WORD	469758	wordpools/wasnorm_wordpool_576.txt	LTP115	ltpFR2	12	4	LEOPARD	812	n/a	n/a	0	0	0
942.058	n/a	WORD	471029	wordpools/wasnorm_wordpool_576.txt	LTP115	ltpFR2	12	4	VIKING	1565	n/a	n/a	0	0	0
944.6	n/a	WORD	472300	wordpools/wasnorm_wordpool_576.txt	LTP115	ltpFR2	12	4	CAPTIVE	240	n/a	n/a	0	0	0
947.274	n/a	WORD	473637	wordpools/wasnorm_wordpool_576.txt	LTP115	ltpFR2	12	4	DINER	467	n/a	n/a	0	0	0
950.084	n/a	WORD	475042	wordpools/wasnorm_wordpool_576.txt	LTP115	ltpFR2	12	4	BUGGY	188	n/a	n/a	0	0	0
952.516	n/a	WORD	476258	wordpools/wasnorm_wordpool_576.txt	LTP115	ltpFR2	12	4	TROUT	1511	n/a	n/a	0	0	0
954.974	n/a	WORD	477487	wordpools/wasnorm_wordpool_576.txt	LTP115	ltpFR2	12	4	DAISY	435	n/a	n/a	0	0	0
957.584	n/a	WORD	478792	wordpools/wasnorm_wordpool_576.txt	LTP115	ltpFR2	12	4	PROTON	1132	n/a	n/a	0	0	0
959.19	n/a	START	479595	n/a	LTP115	ltpFR2	12	n/a	n/a	n/a	4	n/a	n/a	n/a	n/a
960.084	n/a	DISTRACTOR	480042	n/a	LTP115	ltpFR2	12	4	n/a	n/a	n/a	n/a	0	0	0
960.092	n/a	PROB	480046	n/a	LTP115	ltpFR2	12	n/a	n/a	n/a	4	13	6	1	6
961.484	n/a	PROB	480742	n/a	LTP115	ltpFR2	12	n/a	n/a	n/a	4	13	4	2	7
963.05	n/a	PROB	481525	n/a	LTP115	ltpFR2	12	n/a	n/a	n/a	4	19	7	3	9
964.176	n/a	PROB	482088	n/a	LTP115	ltpFR2	12	n/a	n/a	n/a	4	18	8	7	3
965.46	n/a	PROB	482730	n/a	LTP115	ltpFR2	12	n/a	n/a	n/a	4	23	8	8	7
967.752	n/a	PROB	483876	n/a	LTP115	ltpFR2	12	n/a	n/a	n/a	4	3	1	1	1
968.656	n/a	PROB	484328	n/a	LTP115	ltpFR2	12	n/a	n/a	n/a	4	16	1	6	9
970.346	n/a	PROB	485173	n/a	LTP115	ltpFR2	12	n/a	n/a	n/a	4	6	3	2	1
971.22	n/a	PROB	485610	n/a	LTP115	ltpFR2	12	n/a	n/a	n/a	4	11	5	5	1
972.404	n/a	PROB	486202	n/a	LTP115	ltpFR2	12	n/a	n/a	n/a	4	15	9	1	5
973.942	n/a	PROB	486971	n/a	LTP115	ltpFR2	12	n/a	n/a	n/a	4	9	2	5	2
975.18	n/a	PROB	487590	n/a	LTP115	ltpFR2	12	n/a	n/a	n/a	4	16	9	1	6
976.908	n/a	PROB	488454	n/a	LTP115	ltpFR2	12	n/a	n/a	n/a	4	16	7	4	5
978.33	n/a	PROB	489165	n/a	LTP115	ltpFR2	12	n/a	n/a	n/a	4	17	5	5	7
979.464	n/a	PROB	489732	n/a	LTP115	ltpFR2	12	n/a	n/a	n/a	4	18	8	6	4
980.886	n/a	PROB	490443	n/a	LTP115	ltpFR2	12	n/a	n/a	n/a	4	15	8	6	1
982.626	n/a	STOP	491313	n/a	LTP115	ltpFR2	12	n/a	n/a	n/a	4	n/a	n/a	n/a	n/a
985.068	n/a	REC_START	492534	n/a	LTP115	ltpFR2	12	4	n/a	n/a	n/a	n/a	0	0	0
985.968	n/a	REC_WORD	492984	wordpools/wasnorm_wordpool_576.txt	LTP115	ltpFR2	12	4	DAISY	435	n/a	n/a	0	0	0
986.546	n/a	REC_WORD	493273	wordpools/wasnorm_wordpool_576.txt	LTP115	ltpFR2	12	4	RADISH	1158	n/a	n/a	0	0	0
987.256	n/a	REC_WORD	493628	wordpools/wasnorm_wordpool_576.txt	LTP115	ltpFR2	12	4	CAPTIVE	240	n/a	n/a	0	0	0
987.812	n/a	REC_WORD	493906	wordpools/wasnorm_wordpool_576.txt	LTP115	ltpFR2	12	4	VIKING	1565	n/a	n/a	0	0	0
988.55	n/a	REC_WORD	494275	wordpools/wasnorm_wordpool_576.txt	LTP115	ltpFR2	12	4	QUEEN	1149	n/a	n/a	0	0	0
989.31	n/a	REC_WORD	494655	wordpools/wasnorm_wordpool_576.txt	LTP115	ltpFR2	12	4	WORLD	1622	n/a	n/a	0	0	0
989.99	n/a	REC_WORD	494995	wordpools/wasnorm_wordpool_576.txt	LTP115	ltpFR2	12	4	PROTON	1132	n/a	n/a	0	0	0
992.126	n/a	REC_WORD	496063	wordpools/wasnorm_wordpool_576.txt	LTP115	ltpFR2	12	4	JUNGLE	764	n/a	n/a	0	0	0
994.096	n/a	REC_WORD	497048	wordpools/wasnorm_wordpool_576.txt	LTP115	ltpFR2	12	4	TAXI	1438	n/a	n/a	0	0	0
994.956	n/a	REC_WORD	497478	wordpools/wasnorm_wordpool_576.txt	LTP115	ltpFR2	12	4	DRIVER	499	n/a	n/a	0	0	0
995.884	n/a	REC_WORD	497942	wordpools/wasnorm_wordpool_576.txt	LTP115	ltpFR2	12	4	BUGGY	188	n/a	n/a	0	0	0
996.972	n/a	REC_WORD	498486	wordpools/wasnorm_wordpool_576.txt	LTP115	ltpFR2	12	4	SHARK	1275	n/a	n/a	0	0	0
997.75	n/a	REC_WORD	498875	wordpools/wasnorm_wordpool_576.txt	LTP115	ltpFR2	12	4	TROUT	1511	n/a	n/a	0	0	0
998.71	n/a	REC_WORD	499355	wordpools/wasnorm_wordpool_576.txt	LTP115	ltpFR2	12	4	BEAVER	109	n/a	n/a	0	0	0
999.948	n/a	REC_WORD	499974	wordpools/wasnorm_wordpool_576.txt	LTP115	ltpFR2	12	4	PORK	1108	n/a	n/a	0	0	0
1000.588	n/a	REC_WORD	500294	wordpools/wasnorm_wordpool_576.txt	LTP115	ltpFR2	12	4	RAFT	1159	n/a	n/a	0	0	0
1001.538	n/a	REC_WORD	500769	wordpools/wasnorm_wordpool_576.txt	LTP115	ltpFR2	12	4	BARREL	91	n/a	n/a	0	0	0
1002.646	n/a	REC_WORD	501323	wordpools/wasnorm_wordpool_576.txt	LTP115	ltpFR2	12	4	SPOON	1357	n/a	n/a	0	0	0
1003.534	n/a	REC_WORD	501767	wordpools/wasnorm_wordpool_576.txt	LTP115	ltpFR2	12	4	PADDLE	1000	n/a	n/a	0	0	0
1004.256	n/a	REC_WORD	502128	wordpools/wasnorm_wordpool_576.txt	LTP115	ltpFR2	12	4	QUEEN	1149	n/a	n/a	0	0	0
1005.002	n/a	REC_WORD	502501	wordpools/wasnorm_wordpool_576.txt	LTP115	ltpFR2	12	4	WIDOW	1608	n/a	n/a	0	0	0
1005.578	n/a	REC_WORD	502789	wordpools/wasnorm_wordpool_576.txt	LTP115	ltpFR2	12	4	HOSTESS	723	n/a	n/a	0	0	0
1006.578	n/a	REC_WORD_VV	503289	wordpools/wasnorm_wordpool_576.txt	LTP115	ltpFR2	12	4	<>	-1	n/a	n/a	0	0	0
1011.966	n/a	REC_WORD	505983	wordpools/wasnorm_wordpool_576.txt	LTP115	ltpFR2	12	4	DINER	467	n/a	n/a	0	0	0
1013.198	n/a	REC_WORD	506599	wordpools/wasnorm_wordpool_576.txt	LTP115	ltpFR2	12	4	PORK	1108	n/a	n/a	0	0	0
1037.366	n/a	REC_WORD	518683	wordpools/wasnorm_wordpool_576.txt	LTP115	ltpFR2	12	4	LEOPARD	812	n/a	n/a	0	0	0
1076.104	n/a	WORD	538052	wordpools/wasnorm_wordpool_576.txt	LTP115	ltpFR2	12	5	SIDEWALK	1303	n/a	n/a	0	0	0
1078.864	n/a	WORD	539432	wordpools/wasnorm_wordpool_576.txt	LTP115	ltpFR2	12	5	VALVE	1546	n/a	n/a	0	0	0
1081.654	n/a	WORD	540827	wordpools/wasnorm_wordpool_576.txt	LTP115	ltpFR2	12	5	PEANUT	1032	n/a	n/a	0	0	0
1084.284	n/a	WORD	542142	wordpools/wasnorm_wordpool_576.txt	LTP115	ltpFR2	12	5	WASHER	1592	n/a	n/a	0	0	0
1087.008	n/a	WORD	543504	wordpools/wasnorm_wordpool_576.txt	LTP115	ltpFR2	12	5	TRUCK	1512	n/a	n/a	0	0	0
1089.75	n/a	WORD	544875	wordpools/wasnorm_wordpool_576.txt	LTP115	ltpFR2	12	5	HORNET	718	n/a	n/a	0	0	0
1092.362	n/a	WORD	546181	wordpools/wasnorm_wordpool_576.txt	LTP115	ltpFR2	12	5	CONVICT	371	n/a	n/a	0	0	0
1094.792	n/a	WORD	547396	wordpools/wasnorm_wordpool_576.txt	LTP115	ltpFR2	12	5	WRIST	1626	n/a	n/a	0	0	0
1097.296	n/a	WORD	548648	wordpools/wasnorm_wordpool_576.txt	LTP115	ltpFR2	12	5	CHURCH	307	n/a	n/a	0	0	0
1099.778	n/a	WORD	549889	wordpools/wasnorm_wordpool_576.txt	LTP115	ltpFR2	12	5	SPOOL	1356	n/a	n/a	0	0	0
1102.506	n/a	WORD	551253	wordpools/wasnorm_wordpool_576.txt	LTP115	ltpFR2	12	5	THREAD	1460	n/a	n/a	0	0	0
1105.042	n/a	WORD	552521	wordpools/wasnorm_wordpool_576.txt	LTP115	ltpFR2	12	5	BOYFRIEND	162	n/a	n/a	0	0	0
1107.69	n/a	WORD	553845	wordpools/wasnorm_wordpool_576.txt	LTP115	ltpFR2	12	5	OINTMENT	974	n/a	n/a	0	0	0
1110.15	n/a	WORD	555075	wordpools/wasnorm_wordpool_576.txt	LTP115	ltpFR2	12	5	GYMNAST	675	n/a	n/a	0	0	0
1112.74	n/a	WORD	556370	wordpools/wasnorm_wordpool_576.txt	LTP115	ltpFR2	12	5	FOOTBALL	591	n/a	n/a	0	0	0
1115.422	n/a	WORD	557711	wordpools/wasnorm_wordpool_576.txt	LTP115	ltpFR2	12	5	CANAL	226	n/a	n/a	0	0	0
1117.996	n/a	WORD	558998	wordpools/wasnorm_wordpool_576.txt	LTP115	ltpFR2	12	5	GRILL	661	n/a	n/a	0	0	0
1120.42	n/a	WORD	560210	wordpools/wasnorm_wordpool_576.txt	LTP115	ltpFR2	12	5	HUSBAND	728	n/a	n/a	0	0	0
1123.028	n/a	WORD	561514	wordpools/wasnorm_wordpool_576.txt	LTP115	ltpFR2	12	5	MOP	916	n/a	n/a	0	0	0
1125.742	n/a	WORD	562871	wordpools/wasnorm_wordpool_576.txt	LTP115	ltpFR2	12	5	CEILING	265	n/a	n/a	0	0	0
1128.37	n/a	WORD	564185	wordpools/wasnorm_wordpool_576.txt	LTP115	ltpFR2	12	5	RUST	1219	n/a	n/a	0	0	0
1130.876	n/a	WORD	565438	wordpools/wasnorm_wordpool_576.txt	LTP115	ltpFR2	12	5	BURGLAR	200	n/a	n/a	0	0	0
1133.556	n/a	WORD	566778	wordpools/wasnorm_wordpool_576.txt	LTP115	ltpFR2	12	5	WAGON	1578	n/a	n/a	0	0	0
1136.132	n/a	WORD	568066	wordpools/wasnorm_wordpool_576.txt	LTP115	ltpFR2	12	5	HAMPER	682	n/a	n/a	0	0	0
1137.74	n/a	START	568870	n/a	LTP115	ltpFR2	12	n/a	n/a	n/a	5	n/a	n/a	n/a	n/a
1138.868	n/a	DISTRACTOR	569434	n/a	LTP115	ltpFR2	12	5	n/a	n/a	n/a	n/a	0	0	0
1138.876	n/a	PROB	569438	n/a	LTP115	ltpFR2	12	n/a	n/a	n/a	5	16	9	6	1
1140.298	n/a	PROB	570149	n/a	LTP115	ltpFR2	12	n/a	n/a	n/a	5	5	3	1	1
1141.77	n/a	PROB	570885	n/a	LTP115	ltpFR2	12	n/a	n/a	n/a	5	13	4	5	4
1143.288	n/a	PROB	571644	n/a	LTP115	ltpFR2	12	n/a	n/a	n/a	5	24	9	7	8
1145.866	n/a	PROB	572933	n/a	LTP115	ltpFR2	12	n/a	n/a	n/a	5	17	8	4	5
1148.092	n/a	PROB	574046	n/a	LTP115	ltpFR2	12	n/a	n/a	n/a	5	9	2	2	5
1149.514	n/a	PROB	574757	n/a	LTP115	ltpFR2	12	n/a	n/a	n/a	5	10	1	7	2
1151.372	n/a	PROB	575686	n/a	LTP115	ltpFR2	12	n/a	n/a	n/a	5	21	6	8	7
1153.68	n/a	PROB	576840	n/a	LTP115	ltpFR2	12	n/a	n/a	n/a	5	13	9	3	1
1155.268	n/a	PROB	577634	n/a	LTP115	ltpFR2	12	n/a	n/a	n/a	5	14	8	2	4
1157.348	n/a	PROB	578674	n/a	LTP115	ltpFR2	12	n/a	n/a	n/a	5	12	2	9	1
1159.572	n/a	PROB	579786	n/a	LTP115	ltpFR2	12	n/a	n/a	n/a	5	18	7	4	7
1161.154	n/a	STOP	580577	n/a	LTP115	ltpFR2	12	n/a	n/a	n/a	5	n/a	n/a	n/a	n/a
1163.534	n/a	REC_START	581767	n/a	LTP115	ltpFR2	12	5	n/a	n/a	n/a	n/a	0	0	0
1165.784	n/a	REC_WORD	582892	wordpools/wasnorm_wordpool_576.txt	LTP115	ltpFR2	12	5	WAGON	1578	n/a	n/a	0	0	0
1171.81	n/a	REC_WORD	585905	wordpools/wasnorm_wordpool_576.txt	LTP115	ltpFR2	12	5	SIDEWALK	1303	n/a	n/a	0	0	0
1172.828	n/a	REC_WORD	586414	wordpools/wasnorm_wordpool_576.txt	LTP115	ltpFR2	12	5	PEANUT	1032	n/a	n/a	0	0	0
1173.384	n/a	REC_WORD	586692	wordpools/wasnorm_wordpool_576.txt	LTP115	ltpFR2	12	5	VALVE	1546	n/a	n/a	0	0	0
1174.22	n/a	REC_WORD	587110	wordpools/wasnorm_wordpool_576.txt	LTP115	ltpFR2	12	5	TRUCK	1512	n/a	n/a	0	0	0
1175.7	n/a	REC_WORD	587850	wordpools/wasnorm_wordpool_576.txt	LTP115	ltpFR2	12	5	HORNET	718	n/a	n/a	0	0	0
1177.576	n/a	REC_WORD	588788	wordpools/wasnorm_wordpool_576.txt	LTP115	ltpFR2	12	5	CONVICT	371	n/a	n/a	0	0	0
1178.364	n/a	REC_WORD	589182	wordpools/wasnorm_wordpool_576.txt	LTP115	ltpFR2	12	5	MOP	916	n/a	n/a	0	0	0
1178.828	n/a	REC_WORD	589414	wordpools/wasnorm_wordpool_576.txt	LTP115	ltpFR2	12	5	CEILING	265	n/a	n/a	0	0	0
1179.786	n/a	REC_WORD	589893	wordpools/wasnorm_wordpool_576.txt	LTP115	ltpFR2	12	5	RUST	1219	n/a	n/a	0	0	0
1180.69	n/a	REC_WORD	590345	wordpools/wasnorm_wordpool_576.txt	LTP115	ltpFR2	12	5	BURGLAR	200	n/a	n/a	0	0	0
1182.59	n/a	REC_WORD	591295	wordpools/wasnorm_wordpool_576.txt	LTP115	ltpFR2	12	5	CHURCH	307	n/a	n/a	0	0	0
1184.438	n/a	REC_WORD	592219	wordpools/wasnorm_wordpool_576.txt	LTP115	ltpFR2	12	5	WRIST	1626	n/a	n/a	0	0	0
1187.102	n/a	REC_WORD	593551	wordpools/wasnorm_wordpool_576.txt	LTP115	ltpFR2	12	5	BOYFRIEND	162	n/a	n/a	0	0	0
1187.788	n/a	REC_WORD	593894	wordpools/wasnorm_wordpool_576.txt	LTP115	ltpFR2	12	5	HUSBAND	728	n/a	n/a	0	0	0
1189.814	n/a	REC_WORD	594907	wordpools/wasnorm_wordpool_576.txt	LTP115	ltpFR2	12	5	SPOOL	1356	n/a	n/a	0	0	0
1191.582	n/a	REC_WORD	595791	wordpools/wasnorm_wordpool_576.txt	LTP115	ltpFR2	12	5	THREAD	1460	n/a	n/a	0	0	0
1197.356	n/a	REC_WORD	598678	wordpools/wasnorm_wordpool_576.txt	LTP115	ltpFR2	12	5	MOP	916	n/a	n/a	0	0	0
1197.736	n/a	REC_WORD	598868	wordpools/wasnorm_wordpool_576.txt	LTP115	ltpFR2	12	5	CEILING	265	n/a	n/a	0	0	0
1199.514	n/a	REC_WORD_VV	599757	wordpools/wasnorm_wordpool_576.txt	LTP115	ltpFR2	12	5	<>	-1	n/a	n/a	0	0	0
1206.12	n/a	REC_WORD	603060	wordpools/wasnorm_wordpool_576.txt	LTP115	ltpFR2	12	5	CHEERLEADER	288	n/a	n/a	0	0	0
1254.586	n/a	WORD	627293	wordpools/wasnorm_wordpool_576.txt	LTP115	ltpFR2	12	6	HEART	697	n/a	n/a	0	0	0
1257.364	n/a	WORD	628682	wordpools/wasnorm_wordpool_576.txt	LTP115	ltpFR2	12	6	CRICKET	408	n/a	n/a	0	0	0
1260.174	n/a	WORD	630087	wordpools/wasnorm_wordpool_576.txt	LTP115	ltpFR2	12	6	COCOON	339	n/a	n/a	0	0	0
1262.78	n/a	WORD	631390	wordpools/wasnorm_wordpool_576.txt	LTP115	ltpFR2	12	6	CREVICE	405	n/a	n/a	0	0	0
1265.324	n/a	WORD	632662	wordpools/wasnorm_wordpool_576.txt	LTP115	ltpFR2	12	6	OUTLAW	989	n/a	n/a	0	0	0
1267.82	n/a	WORD	633910	wordpools/wasnorm_wordpool_576.txt	LTP115	ltpFR2	12	6	THIEF	1456	n/a	n/a	0	0	0
1270.33	n/a	WORD	635165	wordpools/wasnorm_wordpool_576.txt	LTP115	ltpFR2	12	6	FLOWER	584	n/a	n/a	0	0	0
1272.938	n/a	WORD	636469	wordpools/wasnorm_wordpool_576.txt	LTP115	ltpFR2	12	6	DANCER	437	n/a	n/a	0	0	0
1275.746	n/a	WORD	637873	wordpools/wasnorm_wordpool_576.txt	LTP115	ltpFR2	12	6	JAPAN	749	n/a	n/a	0	0	0
1278.21	n/a	WORD	639105	wordpools/wasnorm_wordpool_576.txt	LTP115	ltpFR2	12	6	PALACE	1006	n/a	n/a	0	0	0
1280.982	n/a	WORD	640491	wordpools/wasnorm_wordpool_576.txt	LTP115	ltpFR2	12	6	GRAVEL	659	n/a	n/a	0	0	0
1283.414	n/a	WORD	641707	wordpools/wasnorm_wordpool_576.txt	LTP115	ltpFR2	12	6	ITEM	746	n/a	n/a	0	0	0
1285.988	n/a	WORD	642994	wordpools/wasnorm_wordpool_576.txt	LTP115	ltpFR2	12	6	MUMMY	932	n/a	n/a	0	0	0
1288.516	n/a	WORD	644258	wordpools/wasnorm_wordpool_576.txt	LTP115	ltpFR2	12	6	TURTLE	1522	n/a	n/a	0	0	0
1291.226	n/a	WORD	645613	wordpools/wasnorm_wordpool_576.txt	LTP115	ltpFR2	12	6	PIMPLE	1071	n/a	n/a	0	0	0
1293.714	n/a	WORD	646857	wordpools/wasnorm_wordpool_576.txt	LTP115	ltpFR2	12	6	WAITRESS	1581	n/a	n/a	0	0	0
1296.312	n/a	WORD	648156	wordpools/wasnorm_wordpool_576.txt	LTP115	ltpFR2	12	6	CASHEW	253	n/a	n/a	0	0	0
1298.822	n/a	WORD	649411	wordpools/wasnorm_wordpool_576.txt	LTP115	ltpFR2	12	6	SLOPE	1328	n/a	n/a	0	0	0
1301.55	n/a	WORD	650775	wordpools/wasnorm_wordpool_576.txt	LTP115	ltpFR2	12	6	SODA	1341	n/a	n/a	0	0	0
1304.288	n/a	WORD	652144	wordpools/wasnorm_wordpool_576.txt	LTP115	ltpFR2	12	6	SERVER	1272	n/a	n/a	0	0	0
1307.02	n/a	WORD	653510	wordpools/wasnorm_wordpool_576.txt	LTP115	ltpFR2	12	6	RABBIT	1152	n/a	n/a	0	0	0
1309.596	n/a	WORD	654798	wordpools/wasnorm_wordpool_576.txt	LTP115	ltpFR2	12	6	CELLAR	267	n/a	n/a	0	0	0
1312.352	n/a	WORD	656176	wordpools/wasnorm_wordpool_576.txt	LTP115	ltpFR2	12	6	RUG	1215	n/a	n/a	0	0	0
1314.832	n/a	WORD	657416	wordpools/wasnorm_wordpool_576.txt	LTP115	ltpFR2	12	6	CLOUD	328	n/a	n/a	0	0	0
1316.44	n/a	START	658220	n/a	LTP115	ltpFR2	12	n/a	n/a	n/a	6	n/a	n/a	n/a	n/a
1317.608	n/a	DISTRACTOR	658804	n/a	LTP115	ltpFR2	12	6	n/a	n/a	n/a	n/a	0	0	0
1317.626	n/a	PROB	658813	n/a	LTP115	ltpFR2	12	n/a	n/a	n/a	6	16	6	7	3
1318.944	n/a	PROB	659472	n/a	LTP115	ltpFR2	12	n/a	n/a	n/a	6	18	4	6	8
1320.638	n/a	PROB	660319	n/a	LTP115	ltpFR2	12	n/a	n/a	n/a	6	10	1	6	3
1321.838	n/a	PROB	660919	n/a	LTP115	ltpFR2	12	n/a	n/a	n/a	6	13	7	2	4
1324.4	n/a	PROB	662200	n/a	LTP115	ltpFR2	12	n/a	n/a	n/a	6	26	9	9	8
1326.924	n/a	PROB	663462	n/a	LTP115	ltpFR2	12	n/a	n/a	n/a	6	18	8	4	6
1328.296	n/a	PROB	664148	n/a	LTP115	ltpFR2	12	n/a	n/a	n/a	6	15	6	8	1
1329.772	n/a	PROB	664886	n/a	LTP115	ltpFR2	12	n/a	n/a	n/a	6	11	2	7	2
1331.414	n/a	PROB	665707	n/a	LTP115	ltpFR2	12	n/a	n/a	n/a	6	15	5	7	3
1332.75	n/a	PROB	666375	n/a	LTP115	ltpFR2	12	n/a	n/a	n/a	6	16	4	3	9
1334.726	n/a	PROB	667363	n/a	LTP115	ltpFR2	12	n/a	n/a	n/a	6	8	3	1	4
1336.014	n/a	PROB	668007	n/a	LTP115	ltpFR2	12	n/a	n/a	n/a	6	23	8	9	6
1337.95	n/a	PROB	668975	n/a	LTP115	ltpFR2	12	n/a	n/a	n/a	6	12	8	2	2
1339.244	n/a	STOP	669622	n/a	LTP115	ltpFR2	12	n/a	n/a	n/a	6	n/a	n/a	n/a	n/a
1342.336	n/a	REC_START	671168	n/a	LTP115	ltpFR2	12	6	n/a	n/a	n/a	n/a	0	0	0
1344.07	n/a	REC_WORD	672035	wordpools/wasnorm_wordpool_576.txt	LTP115	ltpFR2	12	6	TURTLE	1522	n/a	n/a	0	0	0
1345.05	n/a	REC_WORD	672525	wordpools/wasnorm_wordpool_576.txt	LTP115	ltpFR2	12	6	RABBIT	1152	n/a	n/a	0	0	0
1346.444	n/a	REC_WORD	673222	wordpools/wasnorm_wordpool_576.txt	LTP115	ltpFR2	12	6	PALACE	1006	n/a	n/a	0	0	0
1347.182	n/a	REC_WORD	673591	wordpools/wasnorm_wordpool_576.txt	LTP115	ltpFR2	12	6	JAPAN	749	n/a	n/a	0	0	0
1348.186	n/a	REC_WORD_VV	674093	wordpools/wasnorm_wordpool_576.txt	LTP115	ltpFR2	12	6	<>	-1	n/a	n/a	0	0	0
1349.412	n/a	REC_WORD	674706	wordpools/wasnorm_wordpool_576.txt	LTP115	ltpFR2	12	6	DANCER	437	n/a	n/a	0	0	0
1350.096	n/a	REC_WORD	675048	wordpools/wasnorm_wordpool_576.txt	LTP115	ltpFR2	12	6	FLOWER	584	n/a	n/a	0	0	0
1353.082	n/a	REC_WORD	676541	wordpools/wasnorm_wordpool_576.txt	LTP115	ltpFR2	12	6	ITEM	746	n/a	n/a	0	0	0
1353.778	n/a	REC_WORD	676889	wordpools/wasnorm_wordpool_576.txt	LTP115	ltpFR2	12	6	MUMMY	932	n/a	n/a	0	0	0
1357.156	n/a	REC_WORD	678578	wordpools/wasnorm_wordpool_576.txt	LTP115	ltpFR2	12	6	OUTLAW	989	n/a	n/a	0	0	0
1362.536	n/a	REC_WORD	681268	wordpools/wasnorm_wordpool_576.txt	LTP115	ltpFR2	12	6	CONVICT	371	n/a	n/a	0	0	0
1369.724	n/a	REC_WORD	684862	wordpools/wasnorm_wordpool_576.txt	LTP115	ltpFR2	12	6	WAITRESS	1581	n/a	n/a	0	0	0
1370.488	n/a	REC_WORD	685244	wordpools/wasnorm_wordpool_576.txt	LTP115	ltpFR2	12	6	SERVER	1272	n/a	n/a	0	0	0
1384.6	n/a	REC_WORD	692300	wordpools/wasnorm_wordpool_576.txt	LTP115	ltpFR2	12	6	HEART	697	n/a	n/a	0	0	0
1385.36	n/a	REC_WORD	692680	wordpools/wasnorm_wordpool_576.txt	LTP115	ltpFR2	12	6	COCOON	339	n/a	n/a	0	0	0
1386.872	n/a	REC_WORD	693436	wordpools/wasnorm_wordpool_576.txt	LTP115	ltpFR2	12	6	CREVICE	405	n/a	n/a	0	0	0
1387.802	n/a	REC_WORD	693901	wordpools/wasnorm_wordpool_576.txt	LTP115	ltpFR2	12	6	CRICKET	408	n/a	n/a	0	0	0
1389.546	n/a	REC_WORD	694773	wordpools/wasnorm_wordpool_576.txt	LTP115	ltpFR2	12	6	PIMPLE	1071	n/a	n/a	0	0	0
1433.37	n/a	DISTRACTOR	716685	n/a	LTP115	ltpFR2	12	7	n/a	n/a	n/a	n/a	0	0	0
1433.37	n/a	START	716685	n/a	LTP115	ltpFR2	12	n/a	n/a	n/a	7	n/a	n/a	n/a	n/a
1433.42	n/a	PROB	716710	n/a	LTP115	ltpFR2	12	n/a	n/a	n/a	7	10	3	2	5
1436.428	n/a	PROB	718214	n/a	LTP115	ltpFR2	12	n/a	n/a	n/a	7	15	3	7	5
1438.818	n/a	PROB	719409	n/a	LTP115	ltpFR2	12	n/a	n/a	n/a	7	20	9	8	3
1441.38	n/a	PROB	720690	n/a	LTP115	ltpFR2	12	n/a	n/a	n/a	7	14	2	3	9
1442.834	n/a	PROB	721417	n/a	LTP115	ltpFR2	12	n/a	n/a	n/a	7	13	3	4	6
1444.306	n/a	PROB	722153	n/a	LTP115	ltpFR2	12	n/a	n/a	n/a	7	13	4	3	6
1445.882	n/a	PROB	722941	n/a	LTP115	ltpFR2	12	n/a	n/a	n/a	7	12	3	3	6
1447.804	n/a	PROB	723902	n/a	LTP115	ltpFR2	12	n/a	n/a	n/a	7	15	1	9	5
1449.108	n/a	PROB	724554	n/a	LTP115	ltpFR2	12	n/a	n/a	n/a	7	17	9	1	7
1450.532	n/a	PROB	725266	n/a	LTP115	ltpFR2	12	n/a	n/a	n/a	7	13	3	5	5
1451.718	n/a	PROB	725859	n/a	LTP115	ltpFR2	12	n/a	n/a	n/a	7	12	5	5	2
1453.056	n/a	PROB	726528	n/a	LTP115	ltpFR2	12	n/a	n/a	n/a	7	17	2	6	9
1457.372	n/a	STOP	728686	n/a	LTP115	ltpFR2	12	n/a	n/a	n/a	7	n/a	n/a	n/a	n/a
1458.544	n/a	WORD	729272	wordpools/wasnorm_wordpool_576.txt	LTP115	ltpFR2	12	7	SCOTCH	1251	n/a	n/a	0	0	0
1461.054	n/a	WORD	730527	wordpools/wasnorm_wordpool_576.txt	LTP115	ltpFR2	12	7	GLOVE	642	n/a	n/a	0	0	0
1463.784	n/a	WORD	731892	wordpools/wasnorm_wordpool_576.txt	LTP115	ltpFR2	12	7	ROBIN	1199	n/a	n/a	0	0	0
1466.48	n/a	WORD	733240	wordpools/wasnorm_wordpool_576.txt	LTP115	ltpFR2	12	7	COUNTRY	388	n/a	n/a	0	0	0
1469.29	n/a	WORD	734645	wordpools/wasnorm_wordpool_576.txt	LTP115	ltpFR2	12	7	FLUTE	585	n/a	n/a	0	0	0
1471.9	n/a	WORD	735950	wordpools/wasnorm_wordpool_576.txt	LTP115	ltpFR2	12	7	GRAVE	658	n/a	n/a	0	0	0
1474.51	n/a	WORD	737255	wordpools/wasnorm_wordpool_576.txt	LTP115	ltpFR2	12	7	SCALPEL	1243	n/a	n/a	0	0	0
1477.232	n/a	WORD	738616	wordpools/wasnorm_wordpool_576.txt	LTP115	ltpFR2	12	7	PORTRAIT	1111	n/a	n/a	0	0	0
1479.892	n/a	WORD	739946	wordpools/wasnorm_wordpool_576.txt	LTP115	ltpFR2	12	7	TOURIST	1488	n/a	n/a	0	0	0
1482.636	n/a	WORD	741318	wordpools/wasnorm_wordpool_576.txt	LTP115	ltpFR2	12	7	PACKAGE	997	n/a	n/a	0	0	0
1485.234	n/a	WORD	742617	wordpools/wasnorm_wordpool_576.txt	LTP115	ltpFR2	12	7	PUPPY	1144	n/a	n/a	0	0	0
1487.71	n/a	WORD	743855	wordpools/wasnorm_wordpool_576.txt	LTP115	ltpFR2	12	7	ROD	1203	n/a	n/a	0	0	0
1490.132	n/a	WORD	745066	wordpools/wasnorm_wordpool_576.txt	LTP115	ltpFR2	12	7	KNAPSACK	783	n/a	n/a	0	0	0
1492.624	n/a	WORD	746312	wordpools/wasnorm_wordpool_576.txt	LTP115	ltpFR2	12	7	FARMER	553	n/a	n/a	0	0	0
1495.222	n/a	WORD	747611	wordpools/wasnorm_wordpool_576.txt	LTP115	ltpFR2	12	7	CATTLE	261	n/a	n/a	0	0	0
1497.798	n/a	WORD	748899	wordpools/wasnorm_wordpool_576.txt	LTP115	ltpFR2	12	7	CAFE	216	n/a	n/a	0	0	0
1500.376	n/a	WORD	750188	wordpools/wasnorm_wordpool_576.txt	LTP115	ltpFR2	12	7	COUNTY	389	n/a	n/a	0	0	0
1503.002	n/a	WORD	751501	wordpools/wasnorm_wordpool_576.txt	LTP115	ltpFR2	12	7	LONDON	843	n/a	n/a	0	0	0
1505.546	n/a	WORD	752773	wordpools/wasnorm_wordpool_576.txt	LTP115	ltpFR2	12	7	BASEMENT	94	n/a	n/a	0	0	0
1508.352	n/a	WORD	754176	wordpools/wasnorm_wordpool_576.txt	LTP115	ltpFR2	12	7	GARLIC	624	n/a	n/a	0	0	0
1511.1	n/a	WORD	755550	wordpools/wasnorm_wordpool_576.txt	LTP115	ltpFR2	12	7	NURSE	963	n/a	n/a	0	0	0
1513.894	n/a	WORD	756947	wordpools/wasnorm_wordpool_576.txt	LTP115	ltpFR2	12	7	BREAST	171	n/a	n/a	0	0	0
1516.616	n/a	WORD	758308	wordpools/wasnorm_wordpool_576.txt	LTP115	ltpFR2	12	7	PUDDING	1139	n/a	n/a	0	0	0
1519.41	n/a	WORD	759705	wordpools/wasnorm_wordpool_576.txt	LTP115	ltpFR2	12	7	JELLO	754	n/a	n/a	0	0	0
1521.022	n/a	START	760511	n/a	LTP115	ltpFR2	12	n/a	n/a	n/a	8	n/a	n/a	n/a	n/a
1521.862	n/a	DISTRACTOR	760931	n/a	LTP115	ltpFR2	12	7	n/a	n/a	n/a	n/a	0	0	0
1521.874	n/a	PROB	760937	n/a	LTP115	ltpFR2	12	n/a	n/a	n/a	8	11	1	9	1
1523.86	n/a	PROB	761930	n/a	LTP115	ltpFR2	12	n/a	n/a	n/a	8	16	7	8	1
1526.202	n/a	PROB	763101	n/a	LTP115	ltpFR2	12	n/a	n/a	n/a	8	21	7	7	7
1527.358	n/a	PROB	763679	n/a	LTP115	ltpFR2	12	n/a	n/a	n/a	8	22	7	9	6
1530.758	n/a	PROB	765379	n/a	LTP115	ltpFR2	12	n/a	n/a	n/a	8	13	2	5	6
1532.192	n/a	PROB	766096	n/a	LTP115	ltpFR2	12	n/a	n/a	n/a	8	12	2	4	6
1533.314	n/a	PROB	766657	n/a	LTP115	ltpFR2	12	n/a	n/a	n/a	8	17	7	7	3
1535.036	n/a	PROB	767518	n/a	LTP115	ltpFR2	12	n/a	n/a	n/a	8	16	7	2	7
1536.944	n/a	PROB	768472	n/a	LTP115	ltpFR2	12	n/a	n/a	n/a	8	15	3	3	9
1538.198	n/a	PROB	769099	n/a	LTP115	ltpFR2	12	n/a	n/a	n/a	8	16	9	6	1
1539.442	n/a	PROB	769721	n/a	LTP115	ltpFR2	12	n/a	n/a	n/a	8	17	3	7	7
1541.01	n/a	PROB	770505	n/a	LTP115	ltpFR2	12	n/a	n/a	n/a	8	12	6	1	5
1542.098	n/a	PROB	771049	n/a	LTP115	ltpFR2	12	n/a	n/a	n/a	8	14	6	2	6
1543.688	n/a	STOP	771844	n/a	LTP115	ltpFR2	12	n/a	n/a	n/a	8	n/a	n/a	n/a	n/a
1546.916	n/a	REC_START	773458	n/a	LTP115	ltpFR2	12	7	n/a	n/a	n/a	n/a	0	0	0
1548.132	n/a	REC_WORD	774066	wordpools/wasnorm_wordpool_576.txt	LTP115	ltpFR2	12	7	BASEMENT	94	n/a	n/a	0	0	0
1548.836	n/a	REC_WORD	774418	wordpools/wasnorm_wordpool_576.txt	LTP115	ltpFR2	12	7	NURSE	963	n/a	n/a	0	0	0
1551.036	n/a	REC_WORD	775518	wordpools/wasnorm_wordpool_576.txt	LTP115	ltpFR2	12	7	GARLIC	624	n/a	n/a	0	0	0
1552.208	n/a	REC_WORD	776104	wordpools/wasnorm_wordpool_576.txt	LTP115	ltpFR2	12	7	BREAST	171	n/a	n/a	0	0	0
1582.374	n/a	REC_WORD	791187	wordpools/wasnorm_wordpool_576.txt	LTP115	ltpFR2	12	7	ROD	1203	n/a	n/a	0	0	0
1582.824	n/a	REC_WORD	791412	wordpools/wasnorm_wordpool_576.txt	LTP115	ltpFR2	12	7	FARMER	553	n/a	n/a	0	0	0
1584.206	n/a	REC_WORD_VV	792103	wordpools/wasnorm_wordpool_576.txt	LTP115	ltpFR2	12	7	<>	-1	n/a	n/a	0	0	0
1585.376	n/a	REC_WORD	792688	wordpools/wasnorm_wordpool_576.txt	LTP115	ltpFR2	12	7	CATTLE	261	n/a	n/a	0	0	0
1587.104	n/a	REC_WORD_VV	793552	wordpools/wasnorm_wordpool_576.txt	LTP115	ltpFR2	12	7	<>	-1	n/a	n/a	0	0	0
1637.968	n/a	WORD	818984	wordpools/wasnorm_wordpool_576.txt	LTP115	ltpFR2	12	8	GALLON	618	n/a	n/a	0	0	0
1640.694	n/a	WORD	820347	wordpools/wasnorm_wordpool_576.txt	LTP115	ltpFR2	12	8	FLEET	578	n/a	n/a	0	0	0
1643.12	n/a	WORD	821560	wordpools/wasnorm_wordpool_576.txt	LTP115	ltpFR2	12	8	DONOR	485	n/a	n/a	0	0	0
1645.73	n/a	WORD	822865	wordpools/wasnorm_wordpool_576.txt	LTP115	ltpFR2	12	8	FEMALE	559	n/a	n/a	0	0	0
1648.172	n/a	WORD	824086	wordpools/wasnorm_wordpool_576.txt	LTP115	ltpFR2	12	8	TART	1436	n/a	n/a	0	0	0
1650.966	n/a	WORD	825483	wordpools/wasnorm_wordpool_576.txt	LTP115	ltpFR2	12	8	TRANSPLANT	1496	n/a	n/a	0	0	0
1653.496	n/a	WORD	826748	wordpools/wasnorm_wordpool_576.txt	LTP115	ltpFR2	12	8	ZIPPER	1636	n/a	n/a	0	0	0
1656.238	n/a	WORD	828119	wordpools/wasnorm_wordpool_576.txt	LTP115	ltpFR2	12	8	ORANGE	980	n/a	n/a	0	0	0
1658.664	n/a	WORD	829332	wordpools/wasnorm_wordpool_576.txt	LTP115	ltpFR2	12	8	SILK	1307	n/a	n/a	0	0	0
1661.442	n/a	WORD	830721	wordpools/wasnorm_wordpool_576.txt	LTP115	ltpFR2	12	8	COD	340	n/a	n/a	0	0	0
1664.164	n/a	WORD	832082	wordpools/wasnorm_wordpool_576.txt	LTP115	ltpFR2	12	8	HOOK	715	n/a	n/a	0	0	0
1666.906	n/a	WORD	833453	wordpools/wasnorm_wordpool_576.txt	LTP115	ltpFR2	12	8	DENTIST	447	n/a	n/a	0	0	0
1669.388	n/a	WORD	834694	wordpools/wasnorm_wordpool_576.txt	LTP115	ltpFR2	12	8	DRILL	497	n/a	n/a	0	0	0
1672.014	n/a	WORD	836007	wordpools/wasnorm_wordpool_576.txt	LTP115	ltpFR2	12	8	SUNRISE	1407	n/a	n/a	0	0	0
1674.554	n/a	WORD	837277	wordpools/wasnorm_wordpool_576.txt	LTP115	ltpFR2	12	8	SEAGULL	1261	n/a	n/a	0	0	0
1677.134	n/a	WORD	838567	wordpools/wasnorm_wordpool_576.txt	LTP115	ltpFR2	12	8	JEANS	752	n/a	n/a	0	0	0
1679.728	n/a	WORD	839864	wordpools/wasnorm_wordpool_576.txt	LTP115	ltpFR2	12	8	SHIRT	1287	n/a	n/a	0	0	0
1682.438	n/a	WORD	841219	wordpools/wasnorm_wordpool_576.txt	LTP115	ltpFR2	12	8	SISTER	1312	n/a	n/a	0	0	0
1685.182	n/a	WORD	842591	wordpools/wasnorm_wordpool_576.txt	LTP115	ltpFR2	12	8	CHEMIST	292	n/a	n/a	0	0	0
1687.774	n/a	WORD	843887	wordpools/wasnorm_wordpool_576.txt	LTP115	ltpFR2	12	8	WOMAN	1620	n/a	n/a	0	0	0
1690.246	n/a	WORD	845123	wordpools/wasnorm_wordpool_576.txt	LTP115	ltpFR2	12	8	BIKE	125	n/a	n/a	0	0	0
1692.912	n/a	WORD	846456	wordpools/wasnorm_wordpool_576.txt	LTP115	ltpFR2	12	8	EYELASH	546	n/a	n/a	0	0	0
1695.718	n/a	WORD	847859	wordpools/wasnorm_wordpool_576.txt	LTP115	ltpFR2	12	8	PUDDLE	1140	n/a	n/a	0	0	0
1698.282	n/a	WORD	849141	wordpools/wasnorm_wordpool_576.txt	LTP115	ltpFR2	12	8	SNAKE	1333	n/a	n/a	0	0	0
1699.888	n/a	START	849944	n/a	LTP115	ltpFR2	12	n/a	n/a	n/a	9	n/a	n/a	n/a	n/a
1700.724	n/a	DISTRACTOR	850362	n/a	LTP115	ltpFR2	12	8	n/a	n/a	n/a	n/a	0	0	0
1700.74	n/a	PROB	850370	n/a	LTP115	ltpFR2	12	n/a	n/a	n/a	9	17	3	8	6
1702.594	n/a	PROB	851297	n/a	LTP115	ltpFR2	12	n/a	n/a	n/a	9	11	2	6	3
1704.356	n/a	PROB	852178	n/a	LTP115	ltpFR2	12	n/a	n/a	n/a	9	14	1	6	7
1706.074	n/a	PROB	853037	n/a	LTP115	ltpFR2	12	n/a	n/a	n/a	9	17	6	2	9
1707.73	n/a	PROB	853865	n/a	LTP115	ltpFR2	12	n/a	n/a	n/a	9	10	5	1	4
1708.772	n/a	PROB	854386	n/a	LTP115	ltpFR2	12	n/a	n/a	n/a	9	21	8	9	4
1711.294	n/a	PROB	855647	n/a	LTP115	ltpFR2	12	n/a	n/a	n/a	9	17	5	8	4
1713.268	n/a	PROB	856634	n/a	LTP115	ltpFR2	12	n/a	n/a	n/a	9	9	1	7	1
1714.338	n/a	PROB	857169	n/a	LTP115	ltpFR2	12	n/a	n/a	n/a	9	17	3	9	5
1716.43	n/a	PROB	858215	n/a	LTP115	ltpFR2	12	n/a	n/a	n/a	9	21	7	8	6
1718.472	n/a	PROB	859236	n/a	LTP115	ltpFR2	12	n/a	n/a	n/a	9	8	1	3	4
1719.646	n/a	PROB	859823	n/a	LTP115	ltpFR2	12	n/a	n/a	n/a	9	15	9	1	5
1721.666	n/a	PROB	860833	n/a	LTP115	ltpFR2	12	n/a	n/a	n/a	9	14	2	6	6
1723.458	n/a	STOP	861729	n/a	LTP115	ltpFR2	12	n/a	n/a	n/a	9	n/a	n/a	n/a	n/a
1725.666	n/a	REC_START	862833	n/a	LTP115	ltpFR2	12	8	n/a	n/a	n/a	n/a	0	0	0
1727.752	n/a	REC_WORD	863876	wordpools/wasnorm_wordpool_576.txt	LTP115	ltpFR2	12	8	SNAKE	1333	n/a	n/a	0	0	0
1728.648	n/a	REC_WORD	864324	wordpools/wasnorm_wordpool_576.txt	LTP115	ltpFR2	12	8	PUDDLE	1140	n/a	n/a	0	0	0
1729.222	n/a	REC_WORD	864611	wordpools/wasnorm_wordpool_576.txt	LTP115	ltpFR2	12	8	BIKE	125	n/a	n/a	0	0	0
1729.996	n/a	REC_WORD	864998	wordpools/wasnorm_wordpool_576.txt	LTP115	ltpFR2	12	8	FEMALE	559	n/a	n/a	0	0	0
1732.058	n/a	REC_WORD	866029	wordpools/wasnorm_wordpool_576.txt	LTP115	ltpFR2	12	8	SISTER	1312	n/a	n/a	0	0	0
1735.006	n/a	REC_WORD	867503	wordpools/wasnorm_wordpool_576.txt	LTP115	ltpFR2	12	8	JEANS	752	n/a	n/a	0	0	0
1735.764	n/a	REC_WORD	867882	wordpools/wasnorm_wordpool_576.txt	LTP115	ltpFR2	12	8	ZIPPER	1636	n/a	n/a	0	0	0
1736.892	n/a	REC_WORD	868446	wordpools/wasnorm_wordpool_576.txt	LTP115	ltpFR2	12	8	SHIRT	1287	n/a	n/a	0	0	0
1739.54	n/a	REC_WORD	869770	wordpools/wasnorm_wordpool_576.txt	LTP115	ltpFR2	12	8	WOMAN	1620	n/a	n/a	0	0	0
1741.768	n/a	REC_WORD	870884	wordpools/wasnorm_wordpool_576.txt	LTP115	ltpFR2	12	8	FLEET	578	n/a	n/a	0	0	0
1743.196	n/a	REC_WORD	871598	wordpools/wasnorm_wordpool_576.txt	LTP115	ltpFR2	12	8	EYELASH	546	n/a	n/a	0	0	0
1745.51	n/a	REC_WORD	872755	wordpools/wasnorm_wordpool_576.txt	LTP115	ltpFR2	12	8	GALLON	618	n/a	n/a	0	0	0
1758.368	n/a	REC_WORD	879184	wordpools/wasnorm_wordpool_576.txt	LTP115	ltpFR2	12	8	DRILL	497	n/a	n/a	0	0	0
1759.762	n/a	REC_WORD	879881	wordpools/wasnorm_wordpool_576.txt	LTP115	ltpFR2	12	8	DENTIST	447	n/a	n/a	0	0	0
1761.034	n/a	REC_WORD	880517	wordpools/wasnorm_wordpool_576.txt	LTP115	ltpFR2	12	8	HOOK	715	n/a	n/a	0	0	0
1762.116	n/a	REC_WORD	881058	wordpools/wasnorm_wordpool_576.txt	LTP115	ltpFR2	12	8	COD	340	n/a	n/a	0	0	0
1802.444	n/a	REST_REWET	901222	n/a	LTP115	ltpFR2	12	8	n/a	n/a	n/a	n/a	0	0	0
2178.852	n/a	DISTRACTOR	1089426	n/a	LTP115	ltpFR2	12	9	n/a	n/a	n/a	n/a	0	0	0
2178.852	n/a	START	1089426	n/a	LTP115	ltpFR2	12	n/a	n/a	n/a	10	n/a	n/a	n/a	n/a
2178.902	n/a	PROB	1089451	n/a	LTP115	ltpFR2	12	n/a	n/a	n/a	10	16	4	9	3
2181.34	n/a	PROB	1090670	n/a	LTP115	ltpFR2	12	n/a	n/a	n/a	10	17	6	3	7
2182.534	n/a	PROB	1091267	n/a	LTP115	ltpFR2	12	n/a	n/a	n/a	10	16	7	2	7
2185.992	n/a	PROB	1092996	n/a	LTP115	ltpFR2	12	n/a	n/a	n/a	10	22	8	6	8
2188.002	n/a	PROB	1094001	n/a	LTP115	ltpFR2	12	n/a	n/a	n/a	10	19	9	9	5
2189.472	n/a	PROB	1094736	n/a	LTP115	ltpFR2	12	n/a	n/a	n/a	10	14	4	8	2
2191.228	n/a	PROB	1095614	n/a	LTP115	ltpFR2	12	n/a	n/a	n/a	10	7	1	3	3
2192.282	n/a	PROB	1096141	n/a	LTP115	ltpFR2	12	n/a	n/a	n/a	10	20	4	7	9
2194.022	n/a	PROB	1097011	n/a	LTP115	ltpFR2	12	n/a	n/a	n/a	10	12	3	3	6
2195.232	n/a	PROB	1097616	n/a	LTP115	ltpFR2	12	n/a	n/a	n/a	10	7	2	3	2
2196.582	n/a	PROB	1098291	n/a	LTP115	ltpFR2	12	n/a	n/a	n/a	10	9	1	5	3
2197.854	n/a	PROB	1098927	n/a	LTP115	ltpFR2	12	n/a	n/a	n/a	10	11	9	1	1
2198.974	n/a	PROB	1099487	n/a	LTP115	ltpFR2	12	n/a	n/a	n/a	10	25	9	9	7
2200.898	n/a	PROB	1100449	n/a	LTP115	ltpFR2	12	n/a	n/a	n/a	10	19	9	3	7
2202.138	n/a	STOP	1101069	n/a	LTP115	ltpFR2	12	n/a	n/a	n/a	10	n/a	n/a	n/a	n/a
2203.914	n/a	WORD	1101957	wordpools/wasnorm_wordpool_576.txt	LTP115	ltpFR2	12	9	CROWN	415	n/a	n/a	0	0	0
2206.558	n/a	WORD	1103279	wordpools/wasnorm_wordpool_576.txt	LTP115	ltpFR2	12	9	VAGRANT	1544	n/a	n/a	0	0	0
2209.028	n/a	WORD	1104514	wordpools/wasnorm_wordpool_576.txt	LTP115	ltpFR2	12	9	WIFE	1609	n/a	n/a	0	0	0
2211.74	n/a	WORD	1105870	wordpools/wasnorm_wordpool_576.txt	LTP115	ltpFR2	12	9	NIGHTGOWN	953	n/a	n/a	0	0	0
2214.32	n/a	WORD	1107160	wordpools/wasnorm_wordpool_576.txt	LTP115	ltpFR2	12	9	MOTOR	922	n/a	n/a	0	0	0
2216.898	n/a	WORD	1108449	wordpools/wasnorm_wordpool_576.txt	LTP115	ltpFR2	12	9	DASHBOARD	441	n/a	n/a	0	0	0
2219.492	n/a	WORD	1109746	wordpools/wasnorm_wordpool_576.txt	LTP115	ltpFR2	12	9	CRATER	400	n/a	n/a	0	0	0
2222.028	n/a	WORD	1111014	wordpools/wasnorm_wordpool_576.txt	LTP115	ltpFR2	12	9	SUNSET	1408	n/a	n/a	0	0	0
2224.76	n/a	WORD	1112380	wordpools/wasnorm_wordpool_576.txt	LTP115	ltpFR2	12	9	SPOUSE	1358	n/a	n/a	0	0	0
2227.572	n/a	WORD	1113786	wordpools/wasnorm_wordpool_576.txt	LTP115	ltpFR2	12	9	SOFTBALL	1343	n/a	n/a	0	0	0
2230.232	n/a	WORD	1115116	wordpools/wasnorm_wordpool_576.txt	LTP115	ltpFR2	12	9	RACKET	1155	n/a	n/a	0	0	0
2233.004	n/a	WORD	1116502	wordpools/wasnorm_wordpool_576.txt	LTP115	ltpFR2	12	9	LETTUCE	814	n/a	n/a	0	0	0
2235.57	n/a	WORD	1117785	wordpools/wasnorm_wordpool_576.txt	LTP115	ltpFR2	12	9	FLASHLIGHT	575	n/a	n/a	0	0	0
2238.224	n/a	WORD	1119112	wordpools/wasnorm_wordpool_576.txt	LTP115	ltpFR2	12	9	JELLY	755	n/a	n/a	0	0	0
2240.906	n/a	WORD	1120453	wordpools/wasnorm_wordpool_576.txt	LTP115	ltpFR2	12	9	SLIME	1327	n/a	n/a	0	0	0
2243.546	n/a	WORD	1121773	wordpools/wasnorm_wordpool_576.txt	LTP115	ltpFR2	12	9	BULLET	194	n/a	n/a	0	0	0
2246.024	n/a	WORD	1123012	wordpools/wasnorm_wordpool_576.txt	LTP115	ltpFR2	12	9	BUNNY	198	n/a	n/a	0	0	0
2248.518	n/a	WORD	1124259	wordpools/wasnorm_wordpool_576.txt	LTP115	ltpFR2	12	9	BLACKBOARD	133	n/a	n/a	0	0	0
2250.96	n/a	WORD	1125480	wordpools/wasnorm_wordpool_576.txt	LTP115	ltpFR2	12	9	SKIRT	1319	n/a	n/a	0	0	0
2253.768	n/a	WORD	1126884	wordpools/wasnorm_wordpool_576.txt	LTP115	ltpFR2	12	9	SWIMMER	1420	n/a	n/a	0	0	0
2256.214	n/a	WORD	1128107	wordpools/wasnorm_wordpool_576.txt	LTP115	ltpFR2	12	9	FILM	565	n/a	n/a	0	0	0
2258.958	n/a	WORD	1129479	wordpools/wasnorm_wordpool_576.txt	LTP115	ltpFR2	12	9	LASER	801	n/a	n/a	0	0	0
2261.68	n/a	WORD	1130840	wordpools/wasnorm_wordpool_576.txt	LTP115	ltpFR2	12	9	COMPASS	358	n/a	n/a	0	0	0
2264.21	n/a	WORD	1132105	wordpools/wasnorm_wordpool_576.txt	LTP115	ltpFR2	12	9	BOARD	143	n/a	n/a	0	0	0
2265.818	n/a	START	1132909	n/a	LTP115	ltpFR2	12	n/a	n/a	n/a	11	n/a	n/a	n/a	n/a
2266.692	n/a	DISTRACTOR	1133346	n/a	LTP115	ltpFR2	12	9	n/a	n/a	n/a	n/a	0	0	0
2266.704	n/a	PROB	1133352	n/a	LTP115	ltpFR2	12	n/a	n/a	n/a	11	6	3	2	1
2268.458	n/a	PROB	1134229	n/a	LTP115	ltpFR2	12	n/a	n/a	n/a	11	16	5	2	9
2270.08	n/a	PROB	1135040	n/a	LTP115	ltpFR2	12	n/a	n/a	n/a	11	17	5	4	8
2271.586	n/a	PROB	1135793	n/a	LTP115	ltpFR2	12	n/a	n/a	n/a	11	16	5	6	5
2272.944	n/a	PROB	1136472	n/a	LTP115	ltpFR2	12	n/a	n/a	n/a	11	13	5	5	3
2274.094	n/a	PROB	1137047	n/a	LTP115	ltpFR2	12	n/a	n/a	n/a	11	12	1	6	5
2275.802	n/a	PROB	1137901	n/a	LTP115	ltpFR2	12	n/a	n/a	n/a	11	18	7	7	4
2277.21	n/a	PROB	1138605	n/a	LTP115	ltpFR2	12	n/a	n/a	n/a	11	22	9	8	5
2278.73	n/a	PROB	1139365	n/a	LTP115	ltpFR2	12	n/a	n/a	n/a	11	15	6	1	8
2280.386	n/a	PROB	1140193	n/a	LTP115	ltpFR2	12	n/a	n/a	n/a	11	7	2	1	4
2281.69	n/a	PROB	1140845	n/a	LTP115	ltpFR2	12	n/a	n/a	n/a	11	12	7	2	3
2289.82	n/a	STOP	1144910	n/a	LTP115	ltpFR2	12	n/a	n/a	n/a	11	n/a	n/a	n/a	n/a
2291.684	n/a	REC_START	1145842	n/a	LTP115	ltpFR2	12	9	n/a	n/a	n/a	n/a	0	0	0
2293.748	n/a	REC_WORD	1146874	wordpools/wasnorm_wordpool_576.txt	LTP115	ltpFR2	12	9	VAGRANT	1544	n/a	n/a	0	0	0
2294.418	n/a	REC_WORD	1147209	wordpools/wasnorm_wordpool_576.txt	LTP115	ltpFR2	12	9	CROWN	415	n/a	n/a	0	0	0
2295.2	n/a	REC_WORD	1147600	wordpools/wasnorm_wordpool_576.txt	LTP115	ltpFR2	12	9	WIFE	1609	n/a	n/a	0	0	0
2295.87	n/a	REC_WORD	1147935	wordpools/wasnorm_wordpool_576.txt	LTP115	ltpFR2	12	9	SPOUSE	1358	n/a	n/a	0	0	0
2296.912	n/a	REC_WORD	1148456	wordpools/wasnorm_wordpool_576.txt	LTP115	ltpFR2	12	9	NIGHTGOWN	953	n/a	n/a	0	0	0
2299.054	n/a	REC_WORD_VV	1149527	wordpools/wasnorm_wordpool_576.txt	LTP115	ltpFR2	12	9	<>	-1	n/a	n/a	0	0	0
2299.942	n/a	REC_WORD	1149971	wordpools/wasnorm_wordpool_576.txt	LTP115	ltpFR2	12	9	CRATER	400	n/a	n/a	0	0	0
2301.79	n/a	REC_WORD	1150895	wordpools/wasnorm_wordpool_576.txt	LTP115	ltpFR2	12	9	LASER	801	n/a	n/a	0	0	0
2302.348	n/a	REC_WORD	1151174	wordpools/wasnorm_wordpool_576.txt	LTP115	ltpFR2	12	9	BLACKBOARD	133	n/a	n/a	0	0	0
2303.018	n/a	REC_WORD	1151509	wordpools/wasnorm_wordpool_576.txt	LTP115	ltpFR2	12	9	COMPASS	358	n/a	n/a	0	0	0
2303.782	n/a	REC_WORD	1151891	wordpools/wasnorm_wordpool_576.txt	LTP115	ltpFR2	12	9	SLIME	1327	n/a	n/a	0	0	0
2304.536	n/a	REC_WORD	1152268	wordpools/wasnorm_wordpool_576.txt	LTP115	ltpFR2	12	9	SOFTBALL	1343	n/a	n/a	0	0	0
2305.484	n/a	REC_WORD	1152742	wordpools/wasnorm_wordpool_576.txt	LTP115	ltpFR2	12	9	RACKET	1155	n/a	n/a	0	0	0
2307.186	n/a	REC_WORD	1153593	wordpools/wasnorm_wordpool_576.txt	LTP115	ltpFR2	12	9	JELLY	755	n/a	n/a	0	0	0
2309.256	n/a	REC_WORD	1154628	wordpools/wasnorm_wordpool_576.txt	LTP115	ltpFR2	12	9	BOARD	143	n/a	n/a	0	0	0
2316.77	n/a	REC_WORD	1158385	wordpools/wasnorm_wordpool_576.txt	LTP115	ltpFR2	12	9	BUNNY	198	n/a	n/a	0	0	0
2317.56	n/a	REC_WORD	1158780	wordpools/wasnorm_wordpool_576.txt	LTP115	ltpFR2	12	9	BULLET	194	n/a	n/a	0	0	0
2320.704	n/a	REC_WORD	1160352	wordpools/wasnorm_wordpool_576.txt	LTP115	ltpFR2	12	9	SWIMMER	1420	n/a	n/a	0	0	0
2321.456	n/a	REC_WORD	1160728	wordpools/wasnorm_wordpool_576.txt	LTP115	ltpFR2	12	9	SKIRT	1319	n/a	n/a	0	0	0
2354.56	n/a	REC_WORD_VV	1177280	wordpools/wasnorm_wordpool_576.txt	LTP115	ltpFR2	12	9	<>	-1	n/a	n/a	0	0	0
2355.56	n/a	REC_WORD_VV	1177780	wordpools/wasnorm_wordpool_576.txt	LTP115	ltpFR2	12	9	<>	-1	n/a	n/a	0	0	0
2356.768	n/a	REC_WORD_VV	1178384	wordpools/wasnorm_wordpool_576.txt	LTP115	ltpFR2	12	9	<>	-1	n/a	n/a	0	0	0
2357.768	n/a	REC_WORD_VV	1178884	wordpools/wasnorm_wordpool_576.txt	LTP115	ltpFR2	12	9	<>	-1	n/a	n/a	0	0	0
2361.822	n/a	REC_WORD	1180911	wordpools/wasnorm_wordpool_576.txt	LTP115	ltpFR2	12	9	CAR	241	n/a	n/a	0	0	0
2365.112	n/a	REC_WORD	1182556	wordpools/wasnorm_wordpool_576.txt	LTP115	ltpFR2	12	9	JEEP	753	n/a	n/a	0	0	0
2365.86	n/a	REC_WORD_VV	1182930	wordpools/wasnorm_wordpool_576.txt	LTP115	ltpFR2	12	9	<>	-1	n/a	n/a	0	0	0
2382.714	n/a	WORD	1191357	wordpools/wasnorm_wordpool_576.txt	LTP115	ltpFR2	12	10	YOLK	1633	n/a	n/a	0	0	0
2385.392	n/a	WORD	1192696	wordpools/wasnorm_wordpool_576.txt	LTP115	ltpFR2	12	10	COCKTAIL	338	n/a	n/a	0	0	0
2388.064	n/a	WORD	1194032	wordpools/wasnorm_wordpool_576.txt	LTP115	ltpFR2	12	10	EAGLE	512	n/a	n/a	0	0	0
2390.61	n/a	WORD	1195305	wordpools/wasnorm_wordpool_576.txt	LTP115	ltpFR2	12	10	PRINCE	1124	n/a	n/a	0	0	0
2393.054	n/a	WORD	1196527	wordpools/wasnorm_wordpool_576.txt	LTP115	ltpFR2	12	10	FRIAR	605	n/a	n/a	0	0	0
2395.776	n/a	WORD	1197888	wordpools/wasnorm_wordpool_576.txt	LTP115	ltpFR2	12	10	BUG	187	n/a	n/a	0	0	0
2398.29	n/a	WORD	1199145	wordpools/wasnorm_wordpool_576.txt	LTP115	ltpFR2	12	10	KETCHUP	771	n/a	n/a	0	0	0
2400.884	n/a	WORD	1200442	wordpools/wasnorm_wordpool_576.txt	LTP115	ltpFR2	12	10	ANKLE	24	n/a	n/a	0	0	0
2403.544	n/a	WORD	1201772	wordpools/wasnorm_wordpool_576.txt	LTP115	ltpFR2	12	10	FOOT	590	n/a	n/a	0	0	0
2405.986	n/a	WORD	1202993	wordpools/wasnorm_wordpool_576.txt	LTP115	ltpFR2	12	10	SKILLET	1317	n/a	n/a	0	0	0
2408.598	n/a	WORD	1204299	wordpools/wasnorm_wordpool_576.txt	LTP115	ltpFR2	12	10	DOUGHNUT	490	n/a	n/a	0	0	0
2411.222	n/a	WORD	1205611	wordpools/wasnorm_wordpool_576.txt	LTP115	ltpFR2	12	10	KEEPER	769	n/a	n/a	0	0	0
2414.0	n/a	WORD	1207000	wordpools/wasnorm_wordpool_576.txt	LTP115	ltpFR2	12	10	LADY	794	n/a	n/a	0	0	0
2416.46	n/a	WORD	1208230	wordpools/wasnorm_wordpool_576.txt	LTP115	ltpFR2	12	10	BRAKE	166	n/a	n/a	0	0	0
2419.166	n/a	WORD	1209583	wordpools/wasnorm_wordpool_576.txt	LTP115	ltpFR2	12	10	DOLPHIN	483	n/a	n/a	0	0	0
2421.926	n/a	WORD	1210963	wordpools/wasnorm_wordpool_576.txt	LTP115	ltpFR2	12	10	MAMMAL	861	n/a	n/a	0	0	0
2424.692	n/a	WORD	1212346	wordpools/wasnorm_wordpool_576.txt	LTP115	ltpFR2	12	10	STAKE	1368	n/a	n/a	0	0	0
2427.314	n/a	WORD	1213657	wordpools/wasnorm_wordpool_576.txt	LTP115	ltpFR2	12	10	FIREPLACE	570	n/a	n/a	0	0	0
2429.944	n/a	WORD	1214972	wordpools/wasnorm_wordpool_576.txt	LTP115	ltpFR2	12	10	BROTHER	179	n/a	n/a	0	0	0
2432.404	n/a	WORD	1216202	wordpools/wasnorm_wordpool_576.txt	LTP115	ltpFR2	12	10	PARENT	1013	n/a	n/a	0	0	0
2434.876	n/a	WORD	1217438	wordpools/wasnorm_wordpool_576.txt	LTP115	ltpFR2	12	10	SHRUB	1299	n/a	n/a	0	0	0
2437.608	n/a	WORD	1218804	wordpools/wasnorm_wordpool_576.txt	LTP115	ltpFR2	12	10	POSSUM	1112	n/a	n/a	0	0	0
2440.118	n/a	WORD	1220059	wordpools/wasnorm_wordpool_576.txt	LTP115	ltpFR2	12	10	BUREAU	199	n/a	n/a	0	0	0
2442.722	n/a	WORD	1221361	wordpools/wasnorm_wordpool_576.txt	LTP115	ltpFR2	12	10	COTTAGE	384	n/a	n/a	0	0	0
2444.334	n/a	START	1222167	n/a	LTP115	ltpFR2	12	n/a	n/a	n/a	12	n/a	n/a	n/a	n/a
2445.47	n/a	DISTRACTOR	1222735	n/a	LTP115	ltpFR2	12	10	n/a	n/a	n/a	n/a	0	0	0
2445.484	n/a	PROB	1222742	n/a	LTP115	ltpFR2	12	n/a	n/a	n/a	12	23	9	5	9
2447.508	n/a	PROB	1223754	n/a	LTP115	ltpFR2	12	n/a	n/a	n/a	12	14	5	7	2
2449.92	n/a	PROB	1224960	n/a	LTP115	ltpFR2	12	n/a	n/a	n/a	12	12	7	4	1
2451.49	n/a	PROB	1225745	n/a	LTP115	ltpFR2	12	n/a	n/a	n/a	12	21	6	7	8
2453.502	n/a	PROB	1226751	n/a	LTP115	ltpFR2	12	n/a	n/a	n/a	12	9	1	1	7
2454.618	n/a	PROB	1227309	n/a	LTP115	ltpFR2	12	n/a	n/a	n/a	12	19	8	6	5
2456.71	n/a	PROB	1228355	n/a	LTP115	ltpFR2	12	n/a	n/a	n/a	12	14	3	7	4
2457.852	n/a	PROB	1228926	n/a	LTP115	ltpFR2	12	n/a	n/a	n/a	12	22	6	7	9
2460.908	n/a	PROB	1230454	n/a	LTP115	ltpFR2	12	n/a	n/a	n/a	12	10	1	7	2
2462.068	n/a	PROB	1231034	n/a	LTP115	ltpFR2	12	n/a	n/a	n/a	12	21	7	9	5
2465.108	n/a	PROB	1232554	n/a	LTP115	ltpFR2	12	n/a	n/a	n/a	12	20	8	5	7
2467.112	n/a	STOP	1233556	n/a	LTP115	ltpFR2	12	n/a	n/a	n/a	12	n/a	n/a	n/a	n/a
2470.194	n/a	REC_START	1235097	n/a	LTP115	ltpFR2	12	10	n/a	n/a	n/a	n/a	0	0	0
2470.96	n/a	REC_WORD	1235480	wordpools/wasnorm_wordpool_576.txt	LTP115	ltpFR2	12	10	SKILLET	1317	n/a	n/a	0	0	0
2471.852	n/a	REC_WORD	1235926	wordpools/wasnorm_wordpool_576.txt	LTP115	ltpFR2	12	10	DOUGHNUT	490	n/a	n/a	0	0	0
2472.386	n/a	REC_WORD	1236193	wordpools/wasnorm_wordpool_576.txt	LTP115	ltpFR2	12	10	PRINCE	1124	n/a	n/a	0	0	0
2473.07	n/a	REC_WORD	1236535	wordpools/wasnorm_wordpool_576.txt	LTP115	ltpFR2	12	10	BROTHER	179	n/a	n/a	0	0	0
2473.868	n/a	REC_WORD	1236934	wordpools/wasnorm_wordpool_576.txt	LTP115	ltpFR2	12	10	FRIAR	605	n/a	n/a	0	0	0
2474.868	n/a	REC_WORD_VV	1237434	wordpools/wasnorm_wordpool_576.txt	LTP115	ltpFR2	12	10	<>	-1	n/a	n/a	0	0	0
2475.998	n/a	REC_WORD	1237999	wordpools/wasnorm_wordpool_576.txt	LTP115	ltpFR2	12	10	PARENT	1013	n/a	n/a	0	0	0
2476.8	n/a	REC_WORD	1238400	wordpools/wasnorm_wordpool_576.txt	LTP115	ltpFR2	12	10	FIREPLACE	570	n/a	n/a	0	0	0
2477.8	n/a	REC_WORD_VV	1238900	wordpools/wasnorm_wordpool_576.txt	LTP115	ltpFR2	12	10	<>	-1	n/a	n/a	0	0	0
2484.778	n/a	REC_WORD	1242389	wordpools/wasnorm_wordpool_576.txt	LTP115	ltpFR2	12	10	BUG	187	n/a	n/a	0	0	0
2486.828	n/a	REC_WORD	1243414	wordpools/wasnorm_wordpool_576.txt	LTP115	ltpFR2	12	10	YOLK	1633	n/a	n/a	0	0	0
2487.99	n/a	REC_WORD	1243995	wordpools/wasnorm_wordpool_576.txt	LTP115	ltpFR2	12	10	EAGLE	512	n/a	n/a	0	0	0
2489.43	n/a	REC_WORD	1244715	wordpools/wasnorm_wordpool_576.txt	LTP115	ltpFR2	12	10	COCKTAIL	338	n/a	n/a	0	0	0
2490.828	n/a	REC_WORD	1245414	wordpools/wasnorm_wordpool_576.txt	LTP115	ltpFR2	12	10	KEEPER	769	n/a	n/a	0	0	0
2495.08	n/a	REC_WORD	1247540	wordpools/wasnorm_wordpool_576.txt	LTP115	ltpFR2	12	10	FOOT	590	n/a	n/a	0	0	0
2495.5	n/a	REC_WORD	1247750	wordpools/wasnorm_wordpool_576.txt	LTP115	ltpFR2	12	10	ANKLE	24	n/a	n/a	0	0	0
2506.074	n/a	REC_WORD	1253037	wordpools/wasnorm_wordpool_576.txt	LTP115	ltpFR2	12	10	COTTAGE	384	n/a	n/a	0	0	0
2520.04	n/a	REC_WORD	1260020	wordpools/wasnorm_wordpool_576.txt	LTP115	ltpFR2	12	10	PRINCE	1124	n/a	n/a	0	0	0
2531.98	n/a	REC_WORD	1265990	wordpools/wasnorm_wordpool_576.txt	LTP115	ltpFR2	12	10	DOLPHIN	483	n/a	n/a	0	0	0
2532.394	n/a	REC_WORD	1266197	wordpools/wasnorm_wordpool_576.txt	LTP115	ltpFR2	12	10	MAMMAL	861	n/a	n/a	0	0	0
2561.212	n/a	DISTRACTOR	1280606	n/a	LTP115	ltpFR2	12	11	n/a	n/a	n/a	n/a	0	0	0
2561.214	n/a	START	1280607	n/a	LTP115	ltpFR2	12	n/a	n/a	n/a	13	n/a	n/a	n/a	n/a
2561.264	n/a	PROB	1280632	n/a	LTP115	ltpFR2	12	n/a	n/a	n/a	13	12	6	1	5
2562.448	n/a	PROB	1281224	n/a	LTP115	ltpFR2	12	n/a	n/a	n/a	13	14	5	4	5
2563.802	n/a	PROB	1281901	n/a	LTP115	ltpFR2	12	n/a	n/a	n/a	13	20	6	9	5
2567.602	n/a	PROB	1283801	n/a	LTP115	ltpFR2	12	n/a	n/a	n/a	13	22	8	6	8
2570.9	n/a	PROB	1285450	n/a	LTP115	ltpFR2	12	n/a	n/a	n/a	13	16	7	2	7
2573.104	n/a	PROB	1286552	n/a	LTP115	ltpFR2	12	n/a	n/a	n/a	13	9	2	5	2
2574.242	n/a	PROB	1287121	n/a	LTP115	ltpFR2	12	n/a	n/a	n/a	13	17	4	9	4
2576.002	n/a	PROB	1288001	n/a	LTP115	ltpFR2	12	n/a	n/a	n/a	13	18	1	9	8
2579.344	n/a	PROB	1289672	n/a	LTP115	ltpFR2	12	n/a	n/a	n/a	13	17	3	7	7
2580.884	n/a	PROB	1290442	n/a	LTP115	ltpFR2	12	n/a	n/a	n/a	13	16	6	1	9
2582.996	n/a	PROB	1291498	n/a	LTP115	ltpFR2	12	n/a	n/a	n/a	13	8	1	6	1
2583.862	n/a	STOP	1291931	n/a	LTP115	ltpFR2	12	n/a	n/a	n/a	13	n/a	n/a	n/a	n/a
2586.188	n/a	WORD	1293094	wordpools/wasnorm_wordpool_576.txt	LTP115	ltpFR2	12	11	MONEY	908	n/a	n/a	0	0	0
2588.818	n/a	WORD	1294409	wordpools/wasnorm_wordpool_576.txt	LTP115	ltpFR2	12	11	CRUTCH	417	n/a	n/a	0	0	0
2591.514	n/a	WORD	1295757	wordpools/wasnorm_wordpool_576.txt	LTP115	ltpFR2	12	11	STOVE	1388	n/a	n/a	0	0	0
2593.95	n/a	WORD	1296975	wordpools/wasnorm_wordpool_576.txt	LTP115	ltpFR2	12	11	PECAN	1036	n/a	n/a	0	0	0
2596.732	n/a	WORD	1298366	wordpools/wasnorm_wordpool_576.txt	LTP115	ltpFR2	12	11	WITNESS	1618	n/a	n/a	0	0	0
2599.494	n/a	WORD	1299747	wordpools/wasnorm_wordpool_576.txt	LTP115	ltpFR2	12	11	GAVEL	627	n/a	n/a	0	0	0
2602.286	n/a	WORD	1301143	wordpools/wasnorm_wordpool_576.txt	LTP115	ltpFR2	12	11	TWISTER	1530	n/a	n/a	0	0	0
2605.064	n/a	WORD	1302532	wordpools/wasnorm_wordpool_576.txt	LTP115	ltpFR2	12	11	PADDING	999	n/a	n/a	0	0	0
2607.504	n/a	WORD	1303752	wordpools/wasnorm_wordpool_576.txt	LTP115	ltpFR2	12	11	MISSILE	900	n/a	n/a	0	0	0
2610.15	n/a	WORD	1305075	wordpools/wasnorm_wordpool_576.txt	LTP115	ltpFR2	12	11	MOTEL	919	n/a	n/a	0	0	0
2612.894	n/a	WORD	1306447	wordpools/wasnorm_wordpool_576.txt	LTP115	ltpFR2	12	11	PASSAGE	1019	n/a	n/a	0	0	0
2615.6	n/a	WORD	1307800	wordpools/wasnorm_wordpool_576.txt	LTP115	ltpFR2	12	11	PLAYGROUND	1087	n/a	n/a	0	0	0
2618.146	n/a	WORD	1309073	wordpools/wasnorm_wordpool_576.txt	LTP115	ltpFR2	12	11	SUMMIT	1405	n/a	n/a	0	0	0
2620.608	n/a	WORD	1310304	wordpools/wasnorm_wordpool_576.txt	LTP115	ltpFR2	12	11	VALLEY	1545	n/a	n/a	0	0	0
2623.384	n/a	WORD	1311692	wordpools/wasnorm_wordpool_576.txt	LTP115	ltpFR2	12	11	CONTRACT	368	n/a	n/a	0	0	0
2625.826	n/a	WORD	1312913	wordpools/wasnorm_wordpool_576.txt	LTP115	ltpFR2	12	11	CYCLONE	431	n/a	n/a	0	0	0
2628.538	n/a	WORD	1314269	wordpools/wasnorm_wordpool_576.txt	LTP115	ltpFR2	12	11	CURTAIN	427	n/a	n/a	0	0	0
2631.03	n/a	WORD	1315515	wordpools/wasnorm_wordpool_576.txt	LTP115	ltpFR2	12	11	NOMAD	955	n/a	n/a	0	0	0
2633.64	n/a	WORD	1316820	wordpools/wasnorm_wordpool_576.txt	LTP115	ltpFR2	12	11	MESSAGE	888	n/a	n/a	0	0	0
2636.144	n/a	WORD	1318072	wordpools/wasnorm_wordpool_576.txt	LTP115	ltpFR2	12	11	YACHT	1629	n/a	n/a	0	0	0
2638.772	n/a	WORD	1319386	wordpools/wasnorm_wordpool_576.txt	LTP115	ltpFR2	12	11	BANQUET	86	n/a	n/a	0	0	0
2641.484	n/a	WORD	1320742	wordpools/wasnorm_wordpool_576.txt	LTP115	ltpFR2	12	11	DIME	466	n/a	n/a	0	0	0
2643.996	n/a	WORD	1321998	wordpools/wasnorm_wordpool_576.txt	LTP115	ltpFR2	12	11	MISTER	901	n/a	n/a	0	0	0
2646.774	n/a	WORD	1323387	wordpools/wasnorm_wordpool_576.txt	LTP115	ltpFR2	12	11	AIRPLANE	12	n/a	n/a	0	0	0
2648.38	n/a	START	1324190	n/a	LTP115	ltpFR2	12	n/a	n/a	n/a	14	n/a	n/a	n/a	n/a
2649.468	n/a	DISTRACTOR	1324734	n/a	LTP115	ltpFR2	12	11	n/a	n/a	n/a	n/a	0	0	0
2649.484	n/a	PROB	1324742	n/a	LTP115	ltpFR2	12	n/a	n/a	n/a	14	17	8	4	5
2652.24	n/a	PROB	1326120	n/a	LTP115	ltpFR2	12	n/a	n/a	n/a	14	19	8	2	9
2653.846	n/a	PROB	1326923	n/a	LTP115	ltpFR2	12	n/a	n/a	n/a	14	19	5	7	7
2655.302	n/a	PROB	1327651	n/a	LTP115	ltpFR2	12	n/a	n/a	n/a	14	14	3	2	9
2656.728	n/a	PROB	1328364	n/a	LTP115	ltpFR2	12	n/a	n/a	n/a	14	13	7	4	2
2658.318	n/a	PROB	1329159	n/a	LTP115	ltpFR2	12	n/a	n/a	n/a	14	10	1	7	2
2659.438	n/a	PROB	1329719	n/a	LTP115	ltpFR2	12	n/a	n/a	n/a	14	18	7	4	7
2660.756	n/a	PROB	1330378	n/a	LTP115	ltpFR2	12	n/a	n/a	n/a	14	10	8	1	1
2661.71	n/a	PROB	1330855	n/a	LTP115	ltpFR2	12	n/a	n/a	n/a	14	4	1	2	1
2662.646	n/a	PROB	1331323	n/a	LTP115	ltpFR2	12	n/a	n/a	n/a	14	12	3	1	8
2663.784	n/a	PROB	1331892	n/a	LTP115	ltpFR2	12	n/a	n/a	n/a	14	12	8	2	2
2664.972	n/a	PROB	1332486	n/a	LTP115	ltpFR2	12	n/a	n/a	n/a	14	21	7	6	8
2666.83	n/a	PROB	1333415	n/a	LTP115	ltpFR2	12	n/a	n/a	n/a	14	16	2	6	8
2670.494	n/a	PROB	1335247	n/a	LTP115	ltpFR2	12	n/a	n/a	n/a	14	6	2	3	1
2671.396	n/a	STOP	1335698	n/a	LTP115	ltpFR2	12	n/a	n/a	n/a	14	n/a	n/a	n/a	n/a
2674.224	n/a	REC_START	1337112	n/a	LTP115	ltpFR2	12	11	n/a	n/a	n/a	n/a	0	0	0
2675.188	n/a	REC_WORD	1337594	wordpools/wasnorm_wordpool_576.txt	LTP115	ltpFR2	12	11	MONEY	908	n/a	n/a	0	0	0
2675.65	n/a	REC_WORD	1337825	wordpools/wasnorm_wordpool_576.txt	LTP115	ltpFR2	12	11	STOVE	1388	n/a	n/a	0	0	0
2676.41	n/a	REC_WORD	1338205	wordpools/wasnorm_wordpool_576.txt	LTP115	ltpFR2	12	11	PECAN	1036	n/a	n/a	0	0	0
2677.156	n/a	REC_WORD	1338578	wordpools/wasnorm_wordpool_576.txt	LTP115	ltpFR2	12	11	TWISTER	1530	n/a	n/a	0	0	0
2680.208	n/a	REC_WORD	1340104	wordpools/wasnorm_wordpool_576.txt	LTP115	ltpFR2	12	11	PADDING	999	n/a	n/a	0	0	0
2681.574	n/a	REC_WORD	1340787	wordpools/wasnorm_wordpool_576.txt	LTP115	ltpFR2	12	11	MISSILE	900	n/a	n/a	0	0	0
2682.354	n/a	REC_WORD	1341177	wordpools/wasnorm_wordpool_576.txt	LTP115	ltpFR2	12	11	PLAYGROUND	1087	n/a	n/a	0	0	0
2683.332	n/a	REC_WORD	1341666	wordpools/wasnorm_wordpool_576.txt	LTP115	ltpFR2	12	11	CURTAIN	427	n/a	n/a	0	0	0
2683.784	n/a	REC_WORD	1341892	wordpools/wasnorm_wordpool_576.txt	LTP115	ltpFR2	12	11	MOTEL	919	n/a	n/a	0	0	0
2685.672	n/a	REC_WORD	1342836	wordpools/wasnorm_wordpool_576.txt	LTP115	ltpFR2	12	11	CONTRACT	368	n/a	n/a	0	0	0
2686.672	n/a	REC_WORD_VV	1343336	wordpools/wasnorm_wordpool_576.txt	LTP115	ltpFR2	12	11	<>	-1	n/a	n/a	0	0	0
2688.212	n/a	REC_WORD_VV	1344106	wordpools/wasnorm_wordpool_576.txt	LTP115	ltpFR2	12	11	<>	-1	n/a	n/a	0	0	0
2689.168	n/a	REC_WORD	1344584	wordpools/wasnorm_wordpool_576.txt	LTP115	ltpFR2	12	11	CONTRACTOR	369	n/a	n/a	0	0	0
2690.574	n/a	REC_WORD	1345287	wordpools/wasnorm_wordpool_576.txt	LTP115	ltpFR2	12	11	CYCLONE	431	n/a	n/a	0	0	0
2692.528	n/a	REC_WORD	1346264	wordpools/wasnorm_wordpool_576.txt	LTP115	ltpFR2	12	11	SUMMIT	1405	n/a	n/a	0	0	0
2693.212	n/a	REC_WORD	1346606	wordpools/wasnorm_wordpool_576.txt	LTP115	ltpFR2	12	11	VALLEY	1545	n/a	n/a	0	0	0
2694.964	n/a	REC_WORD	1347482	wordpools/wasnorm_wordpool_576.txt	LTP115	ltpFR2	12	11	DIME	466	n/a	n/a	0	0	0
2695.458	n/a	REC_WORD	1347729	wordpools/wasnorm_wordpool_576.txt	LTP115	ltpFR2	12	11	MISTER	901	n/a	n/a	0	0	0
2696.094	n/a	REC_WORD	1348047	wordpools/wasnorm_wordpool_576.txt	LTP115	ltpFR2	12	11	AIRPLANE	12	n/a	n/a	0	0	0
2696.792	n/a	REC_WORD	1348396	wordpools/wasnorm_wordpool_576.txt	LTP115	ltpFR2	12	11	YACHT	1629	n/a	n/a	0	0	0
2697.96	n/a	REC_WORD	1348980	wordpools/wasnorm_wordpool_576.txt	LTP115	ltpFR2	12	11	BANQUET	86	n/a	n/a	0	0	0
2705.968	n/a	REC_WORD	1352984	wordpools/wasnorm_wordpool_576.txt	LTP115	ltpFR2	12	11	MESSAGE	888	n/a	n/a	0	0	0
2738.984	n/a	REC_WORD	1369492	wordpools/wasnorm_wordpool_576.txt	LTP115	ltpFR2	12	11	CRUTCH	417	n/a	n/a	0	0	0
2765.26	n/a	DISTRACTOR	1382630	n/a	LTP115	ltpFR2	12	12	n/a	n/a	n/a	n/a	0	0	0
2765.26	n/a	START	1382630	n/a	LTP115	ltpFR2	12	n/a	n/a	n/a	15	n/a	n/a	n/a	n/a
2765.31	n/a	PROB	1382655	n/a	LTP115	ltpFR2	12	n/a	n/a	n/a	15	10	2	2	6
2766.766	n/a	PROB	1383383	n/a	LTP115	ltpFR2	12	n/a	n/a	n/a	15	23	9	5	9
2768.89	n/a	PROB	1384445	n/a	LTP115	ltpFR2	12	n/a	n/a	n/a	15	11	7	2	2
2770.51	n/a	PROB	1385255	n/a	LTP115	ltpFR2	12	n/a	n/a	n/a	15	1	5	6	2
2771.932	n/a	PROB	1385966	n/a	LTP115	ltpFR2	12	n/a	n/a	n/a	15	15	8	4	3
2773.872	n/a	PROB	1386936	n/a	LTP115	ltpFR2	12	n/a	n/a	n/a	15	18	8	3	7
2775.428	n/a	PROB	1387714	n/a	LTP115	ltpFR2	12	n/a	n/a	n/a	15	19	3	8	8
2777.958	n/a	PROB	1388979	n/a	LTP115	ltpFR2	12	n/a	n/a	n/a	15	15	9	1	5
2779.828	n/a	PROB	1389914	n/a	LTP115	ltpFR2	12	n/a	n/a	n/a	15	18	6	9	3
2783.262	n/a	PROB	1391631	n/a	LTP115	ltpFR2	12	n/a	n/a	n/a	15	10	5	1	4
2784.546	n/a	PROB	1392273	n/a	LTP115	ltpFR2	12	n/a	n/a	n/a	15	15	5	2	8
2785.934	n/a	PROB	1392967	n/a	LTP115	ltpFR2	12	n/a	n/a	n/a	15	22	9	8	5
2787.574	n/a	PROB	1393787	n/a	LTP115	ltpFR2	12	n/a	n/a	n/a	15	16	9	4	3
2789.018	n/a	STOP	1394509	n/a	LTP115	ltpFR2	12	n/a	n/a	n/a	15	n/a	n/a	n/a	n/a
2790.372	n/a	WORD	1395186	wordpools/wasnorm_wordpool_576.txt	LTP115	ltpFR2	12	12	GREASE	660	n/a	n/a	0	0	0
2793.116	n/a	WORD	1396558	wordpools/wasnorm_wordpool_576.txt	LTP115	ltpFR2	12	12	FRAGRANCE	599	n/a	n/a	0	0	0
2795.91	n/a	WORD	1397955	wordpools/wasnorm_wordpool_576.txt	LTP115	ltpFR2	12	12	ATOM	55	n/a	n/a	0	0	0
2798.42	n/a	WORD	1399210	wordpools/wasnorm_wordpool_576.txt	LTP115	ltpFR2	12	12	TURNIP	1521	n/a	n/a	0	0	0
2800.862	n/a	WORD	1400431	wordpools/wasnorm_wordpool_576.txt	LTP115	ltpFR2	12	12	SHORTCAKE	1292	n/a	n/a	0	0	0
2803.304	n/a	WORD	1401652	wordpools/wasnorm_wordpool_576.txt	LTP115	ltpFR2	12	12	PERMIT	1051	n/a	n/a	0	0	0
2805.78	n/a	WORD	1402890	wordpools/wasnorm_wordpool_576.txt	LTP115	ltpFR2	12	12	BRIEFCASE	175	n/a	n/a	0	0	0
2808.442	n/a	WORD	1404221	wordpools/wasnorm_wordpool_576.txt	LTP115	ltpFR2	12	12	PIANO	1057	n/a	n/a	0	0	0
2811.08	n/a	WORD	1405540	wordpools/wasnorm_wordpool_576.txt	LTP115	ltpFR2	12	12	SALAD	1224	n/a	n/a	0	0	0
2813.712	n/a	WORD	1406856	wordpools/wasnorm_wordpool_576.txt	LTP115	ltpFR2	12	12	NOTEBOOK	959	n/a	n/a	0	0	0
2816.284	n/a	WORD	1408142	wordpools/wasnorm_wordpool_576.txt	LTP115	ltpFR2	12	12	BABY	64	n/a	n/a	0	0	0
2818.898	n/a	WORD	1409449	wordpools/wasnorm_wordpool_576.txt	LTP115	ltpFR2	12	12	SHOVEL	1295	n/a	n/a	0	0	0
2821.676	n/a	WORD	1410838	wordpools/wasnorm_wordpool_576.txt	LTP115	ltpFR2	12	12	TRENCH	1503	n/a	n/a	0	0	0
2824.096	n/a	WORD	1412048	wordpools/wasnorm_wordpool_576.txt	LTP115	ltpFR2	12	12	PANTHER	1009	n/a	n/a	0	0	0
2826.69	n/a	WORD	1413345	wordpools/wasnorm_wordpool_576.txt	LTP115	ltpFR2	12	12	BALLOON	75	n/a	n/a	0	0	0
2829.12	n/a	WORD	1414560	wordpools/wasnorm_wordpool_576.txt	LTP115	ltpFR2	12	12	TUBA	1515	n/a	n/a	0	0	0
2831.78	n/a	WORD	1415890	wordpools/wasnorm_wordpool_576.txt	LTP115	ltpFR2	12	12	POISON	1096	n/a	n/a	0	0	0
2834.542	n/a	WORD	1417271	wordpools/wasnorm_wordpool_576.txt	LTP115	ltpFR2	12	12	BRANCH	168	n/a	n/a	0	0	0
2837.084	n/a	WORD	1418542	wordpools/wasnorm_wordpool_576.txt	LTP115	ltpFR2	12	12	SAUSAGE	1238	n/a	n/a	0	0	0
2839.69	n/a	WORD	1419845	wordpools/wasnorm_wordpool_576.txt	LTP115	ltpFR2	12	12	BEAKER	104	n/a	n/a	0	0	0
2842.22	n/a	WORD	1421110	wordpools/wasnorm_wordpool_576.txt	LTP115	ltpFR2	12	12	CRAB	397	n/a	n/a	0	0	0
2845.014	n/a	WORD	1422507	wordpools/wasnorm_wordpool_576.txt	LTP115	ltpFR2	12	12	DIVER	476	n/a	n/a	0	0	0
2847.642	n/a	WORD	1423821	wordpools/wasnorm_wordpool_576.txt	LTP115	ltpFR2	12	12	STREAM	1392	n/a	n/a	0	0	0
2850.318	n/a	WORD	1425159	wordpools/wasnorm_wordpool_576.txt	LTP115	ltpFR2	12	12	REPORT	1184	n/a	n/a	0	0	0
2851.924	n/a	START	1425962	n/a	LTP115	ltpFR2	12	n/a	n/a	n/a	16	n/a	n/a	n/a	n/a
2852.832	n/a	DISTRACTOR	1426416	n/a	LTP115	ltpFR2	12	12	n/a	n/a	n/a	n/a	0	0	0
2852.844	n/a	PROB	1426422	n/a	LTP115	ltpFR2	12	n/a	n/a	n/a	16	23	9	7	7
2854.882	n/a	PROB	1427441	n/a	LTP115	ltpFR2	12	n/a	n/a	n/a	16	12	5	3	4
2857.144	n/a	PROB	1428572	n/a	LTP115	ltpFR2	12	n/a	n/a	n/a	16	17	9	3	5
2860.486	n/a	PROB	1430243	n/a	LTP115	ltpFR2	12	n/a	n/a	n/a	16	12	3	7	2
2861.64	n/a	PROB	1430820	n/a	LTP115	ltpFR2	12	n/a	n/a	n/a	16	13	4	5	4
2863.736	n/a	PROB	1431868	n/a	LTP115	ltpFR2	12	n/a	n/a	n/a	16	16	6	9	1
2864.752	n/a	PROB	1432376	n/a	LTP115	ltpFR2	12	n/a	n/a	n/a	16	12	8	2	2
2865.84	n/a	PROB	1432920	n/a	LTP115	ltpFR2	12	n/a	n/a	n/a	16	12	2	4	6
2866.944	n/a	PROB	1433472	n/a	LTP115	ltpFR2	12	n/a	n/a	n/a	16	11	1	3	7
2868.116	n/a	PROB	1434058	n/a	LTP115	ltpFR2	12	n/a	n/a	n/a	16	14	2	8	4
2869.622	n/a	PROB	1434811	n/a	LTP115	ltpFR2	12	n/a	n/a	n/a	16	9	1	1	7
2870.542	n/a	PROB	1435271	n/a	LTP115	ltpFR2	12	n/a	n/a	n/a	16	23	7	9	8
2872.55	n/a	PROB	1436275	n/a	LTP115	ltpFR2	12	n/a	n/a	n/a	16	16	1	7	8
2875.726	n/a	STOP	1437863	n/a	LTP115	ltpFR2	12	n/a	n/a	n/a	16	n/a	n/a	n/a	n/a
2877.87	n/a	REC_START	1438935	n/a	LTP115	ltpFR2	12	12	n/a	n/a	n/a	n/a	0	0	0
2880.396	n/a	REC_WORD	1440198	wordpools/wasnorm_wordpool_576.txt	LTP115	ltpFR2	12	12	ATOM	55	n/a	n/a	0	0	0
2881.12	n/a	REC_WORD	1440560	wordpools/wasnorm_wordpool_576.txt	LTP115	ltpFR2	12	12	BEAKER	104	n/a	n/a	0	0	0
2882.374	n/a	REC_WORD	1441187	wordpools/wasnorm_wordpool_576.txt	LTP115	ltpFR2	12	12	BRIEFCASE	175	n/a	n/a	0	0	0
2883.374	n/a	REC_WORD_VV	1441687	wordpools/wasnorm_wordpool_576.txt	LTP115	ltpFR2	12	12	<>	-1	n/a	n/a	0	0	0
2884.38	n/a	REC_WORD	1442190	wordpools/wasnorm_wordpool_576.txt	LTP115	ltpFR2	12	12	REPORT	1184	n/a	n/a	0	0	0
2885.694	n/a	REC_WORD	1442847	wordpools/wasnorm_wordpool_576.txt	LTP115	ltpFR2	12	12	SWIMMER	1420	n/a	n/a	0	0	0
2887.014	n/a	REC_WORD	1443507	wordpools/wasnorm_wordpool_576.txt	LTP115	ltpFR2	12	12	TRENCH	1503	n/a	n/a	0	0	0
2887.668	n/a	REC_WORD	1443834	wordpools/wasnorm_wordpool_576.txt	LTP115	ltpFR2	12	12	SHOVEL	1295	n/a	n/a	0	0	0
2888.566	n/a	REC_WORD	1444283	wordpools/wasnorm_wordpool_576.txt	LTP115	ltpFR2	12	12	POISON	1096	n/a	n/a	0	0	0
2895.768	n/a	REC_WORD	1447884	wordpools/wasnorm_wordpool_576.txt	LTP115	ltpFR2	12	12	GREASE	660	n/a	n/a	0	0	0
2896.392	n/a	REC_WORD	1448196	wordpools/wasnorm_wordpool_576.txt	LTP115	ltpFR2	12	12	FRAGRANCE	599	n/a	n/a	0	0	0
2897.276	n/a	REC_WORD	1448638	wordpools/wasnorm_wordpool_576.txt	LTP115	ltpFR2	12	12	TURNIP	1521	n/a	n/a	0	0	0
2897.836	n/a	REC_WORD	1448918	wordpools/wasnorm_wordpool_576.txt	LTP115	ltpFR2	12	12	SALAD	1224	n/a	n/a	0	0	0
2968.922	n/a	WORD	1484461	wordpools/wasnorm_wordpool_576.txt	LTP115	ltpFR2	12	13	GHETTO	633	n/a	n/a	0	0	0
2971.38	n/a	WORD	1485690	wordpools/wasnorm_wordpool_576.txt	LTP115	ltpFR2	12	13	SNACK	1331	n/a	n/a	0	0	0
2973.924	n/a	WORD	1486962	wordpools/wasnorm_wordpool_576.txt	LTP115	ltpFR2	12	13	PASTRY	1022	n/a	n/a	0	0	0
2976.35	n/a	WORD	1488175	wordpools/wasnorm_wordpool_576.txt	LTP115	ltpFR2	12	13	TWEEZERS	1526	n/a	n/a	0	0	0
2979.06	n/a	WORD	1489530	wordpools/wasnorm_wordpool_576.txt	LTP115	ltpFR2	12	13	YARN	1631	n/a	n/a	0	0	0
2981.77	n/a	WORD	1490885	wordpools/wasnorm_wordpool_576.txt	LTP115	ltpFR2	12	13	DRINK	498	n/a	n/a	0	0	0
2984.208	n/a	WORD	1492104	wordpools/wasnorm_wordpool_576.txt	LTP115	ltpFR2	12	13	PAIL	1002	n/a	n/a	0	0	0
2986.97	n/a	WORD	1493485	wordpools/wasnorm_wordpool_576.txt	LTP115	ltpFR2	12	13	MILDEW	893	n/a	n/a	0	0	0
2989.73	n/a	WORD	1494865	wordpools/wasnorm_wordpool_576.txt	LTP115	ltpFR2	12	13	BACON	67	n/a	n/a	0	0	0
2992.344	n/a	WORD	1496172	wordpools/wasnorm_wordpool_576.txt	LTP115	ltpFR2	12	13	FOREST	593	n/a	n/a	0	0	0
2995.134	n/a	WORD	1497567	wordpools/wasnorm_wordpool_576.txt	LTP115	ltpFR2	12	13	BARLEY	88	n/a	n/a	0	0	0
2997.912	n/a	WORD	1498956	wordpools/wasnorm_wordpool_576.txt	LTP115	ltpFR2	12	13	PLAZA	1088	n/a	n/a	0	0	0
3000.342	n/a	WORD	1500171	wordpools/wasnorm_wordpool_576.txt	LTP115	ltpFR2	12	13	KNIFE	785	n/a	n/a	0	0	0
3003.152	n/a	WORD	1501576	wordpools/wasnorm_wordpool_576.txt	LTP115	ltpFR2	12	13	CREATURE	403	n/a	n/a	0	0	0
3005.862	n/a	WORD	1502931	wordpools/wasnorm_wordpool_576.txt	LTP115	ltpFR2	12	13	OFFICE	972	n/a	n/a	0	0	0
3008.406	n/a	WORD	1504203	wordpools/wasnorm_wordpool_576.txt	LTP115	ltpFR2	12	13	TYPIST	1532	n/a	n/a	0	0	0
3010.844	n/a	WORD	1505422	wordpools/wasnorm_wordpool_576.txt	LTP115	ltpFR2	12	13	TRACTOR	1493	n/a	n/a	0	0	0
3013.476	n/a	WORD	1506738	wordpools/wasnorm_wordpool_576.txt	LTP115	ltpFR2	12	13	AUTHOR	61	n/a	n/a	0	0	0
3016.086	n/a	WORD	1508043	wordpools/wasnorm_wordpool_576.txt	LTP115	ltpFR2	12	13	PLATE	1086	n/a	n/a	0	0	0
3018.83	n/a	WORD	1509415	wordpools/wasnorm_wordpool_576.txt	LTP115	ltpFR2	12	13	AGENT	10	n/a	n/a	0	0	0
3021.574	n/a	WORD	1510787	wordpools/wasnorm_wordpool_576.txt	LTP115	ltpFR2	12	13	POLICE	1098	n/a	n/a	0	0	0
3024.396	n/a	WORD	1512198	wordpools/wasnorm_wordpool_576.txt	LTP115	ltpFR2	12	13	LIPSTICK	829	n/a	n/a	0	0	0
3026.96	n/a	WORD	1513480	wordpools/wasnorm_wordpool_576.txt	LTP115	ltpFR2	12	13	OX	994	n/a	n/a	0	0	0
3029.638	n/a	WORD	1514819	wordpools/wasnorm_wordpool_576.txt	LTP115	ltpFR2	12	13	HEDGE	699	n/a	n/a	0	0	0
3031.242	n/a	START	1515621	n/a	LTP115	ltpFR2	12	n/a	n/a	n/a	17	n/a	n/a	n/a	n/a
3032.302	n/a	DISTRACTOR	1516151	n/a	LTP115	ltpFR2	12	13	n/a	n/a	n/a	n/a	0	0	0
3032.314	n/a	PROB	1516157	n/a	LTP115	ltpFR2	12	n/a	n/a	n/a	17	12	2	2	8
3033.632	n/a	PROB	1516816	n/a	LTP115	ltpFR2	12	n/a	n/a	n/a	17	18	9	1	8
3035.12	n/a	PROB	1517560	n/a	LTP115	ltpFR2	12	n/a	n/a	n/a	17	14	6	5	3
3037.898	n/a	PROB	1518949	n/a	LTP115	ltpFR2	12	n/a	n/a	n/a	17	10	1	6	3
3039.256	n/a	PROB	1519628	n/a	LTP115	ltpFR2	12	n/a	n/a	n/a	17	22	9	9	4
3040.826	n/a	PROB	1520413	n/a	LTP115	ltpFR2	12	n/a	n/a	n/a	17	19	3	7	9
3042.046	n/a	PROB	1521023	n/a	LTP115	ltpFR2	12	n/a	n/a	n/a	17	11	1	8	2
3043.356	n/a	PROB	1521678	n/a	LTP115	ltpFR2	12	n/a	n/a	n/a	17	19	7	8	4
3045.66	n/a	PROB	1522830	n/a	LTP115	ltpFR2	12	n/a	n/a	n/a	17	6	3	2	1
3046.598	n/a	PROB	1523299	n/a	LTP115	ltpFR2	12	n/a	n/a	n/a	17	10	1	5	4
3047.668	n/a	PROB	1523834	n/a	LTP115	ltpFR2	12	n/a	n/a	n/a	17	17	6	9	2
3049.358	n/a	PROB	1524679	n/a	LTP115	ltpFR2	12	n/a	n/a	n/a	17	23	6	9	8
3051.148	n/a	PROB	1525574	n/a	LTP115	ltpFR2	12	n/a	n/a	n/a	17	14	2	3	9
3052.606	n/a	PROB	1526303	n/a	LTP115	ltpFR2	12	n/a	n/a	n/a	17	15	8	6	1
3054.578	n/a	STOP	1527289	n/a	LTP115	ltpFR2	12	n/a	n/a	n/a	17	n/a	n/a	n/a	n/a
3057.122	n/a	REC_START	1528561	n/a	LTP115	ltpFR2	12	13	n/a	n/a	n/a	n/a	0	0	0
3059.526	n/a	REC_WORD	1529763	wordpools/wasnorm_wordpool_576.txt	LTP115	ltpFR2	12	13	HEDGE	699	n/a	n/a	0	0	0
3061.36	n/a	REC_WORD	1530680	wordpools/wasnorm_wordpool_576.txt	LTP115	ltpFR2	12	13	TYPIST	1532	n/a	n/a	0	0	0
3062.12	n/a	REC_WORD	1531060	wordpools/wasnorm_wordpool_576.txt	LTP115	ltpFR2	12	13	LIPSTICK	829	n/a	n/a	0	0	0
3063.068	n/a	REC_WORD	1531534	wordpools/wasnorm_wordpool_576.txt	LTP115	ltpFR2	12	13	OFFICE	972	n/a	n/a	0	0	0
3063.964	n/a	REC_WORD	1531982	wordpools/wasnorm_wordpool_576.txt	LTP115	ltpFR2	12	13	AGENT	10	n/a	n/a	0	0	0
3070.594	n/a	REC_WORD	1535297	wordpools/wasnorm_wordpool_576.txt	LTP115	ltpFR2	12	13	NOVEL	960	n/a	n/a	0	0	0
3071.81	n/a	REC_WORD	1535905	wordpools/wasnorm_wordpool_576.txt	LTP115	ltpFR2	12	13	WRITER	1627	n/a	n/a	0	0	0
3080.952	n/a	REC_WORD	1540476	wordpools/wasnorm_wordpool_576.txt	LTP115	ltpFR2	12	13	PAIL	1002	n/a	n/a	0	0	0
3081.46	n/a	REC_WORD	1540730	wordpools/wasnorm_wordpool_576.txt	LTP115	ltpFR2	12	13	MILDEW	893	n/a	n/a	0	0	0
3082.856	n/a	REC_WORD	1541428	wordpools/wasnorm_wordpool_576.txt	LTP115	ltpFR2	12	13	GHETTO	633	n/a	n/a	0	0	0
3083.296	n/a	REC_WORD	1541648	wordpools/wasnorm_wordpool_576.txt	LTP115	ltpFR2	12	13	SNACK	1331	n/a	n/a	0	0	0
3084.276	n/a	REC_WORD	1542138	wordpools/wasnorm_wordpool_576.txt	LTP115	ltpFR2	12	13	PASTRY	1022	n/a	n/a	0	0	0
3084.972	n/a	REC_WORD	1542486	wordpools/wasnorm_wordpool_576.txt	LTP115	ltpFR2	12	13	KNIFE	785	n/a	n/a	0	0	0
3085.688	n/a	REC_WORD	1542844	wordpools/wasnorm_wordpool_576.txt	LTP115	ltpFR2	12	13	BACON	67	n/a	n/a	0	0	0
3086.538	n/a	REC_WORD	1543269	wordpools/wasnorm_wordpool_576.txt	LTP115	ltpFR2	12	13	TWEEZERS	1526	n/a	n/a	0	0	0
3087.398	n/a	REC_WORD	1543699	wordpools/wasnorm_wordpool_576.txt	LTP115	ltpFR2	12	13	YARN	1631	n/a	n/a	0	0	0
3091.104	n/a	REC_WORD	1545552	wordpools/wasnorm_wordpool_576.txt	LTP115	ltpFR2	12	13	BARLEY	88	n/a	n/a	0	0	0
3092.698	n/a	REC_WORD	1546349	wordpools/wasnorm_wordpool_576.txt	LTP115	ltpFR2	12	13	TRACTOR	1493	n/a	n/a	0	0	0
3093.578	n/a	REC_WORD	1546789	wordpools/wasnorm_wordpool_576.txt	LTP115	ltpFR2	12	13	OX	994	n/a	n/a	0	0	0
3095.846	n/a	REC_WORD	1547923	wordpools/wasnorm_wordpool_576.txt	LTP115	ltpFR2	12	13	FOREST	593	n/a	n/a	0	0	0
3101.234	n/a	REC_WORD	1550617	wordpools/wasnorm_wordpool_576.txt	LTP115	ltpFR2	12	13	POLICE	1098	n/a	n/a	0	0	0
3148.19	n/a	DISTRACTOR	1574095	n/a	LTP115	ltpFR2	12	14	n/a	n/a	n/a	n/a	0	0	0
3148.19	n/a	START	1574095	n/a	LTP115	ltpFR2	12	n/a	n/a	n/a	18	n/a	n/a	n/a	n/a
3148.24	n/a	PROB	1574120	n/a	LTP115	ltpFR2	12	n/a	n/a	n/a	18	19	7	4	8
3150.416	n/a	PROB	1575208	n/a	LTP115	ltpFR2	12	n/a	n/a	n/a	18	25	7	9	9
3153.656	n/a	PROB	1576828	n/a	LTP115	ltpFR2	12	n/a	n/a	n/a	18	19	7	4	8
3155.714	n/a	PROB	1577857	n/a	LTP115	ltpFR2	12	n/a	n/a	n/a	18	14	6	4	4
3157.12	n/a	PROB	1578560	n/a	LTP115	ltpFR2	12	n/a	n/a	n/a	18	10	1	8	1
3158.056	n/a	PROB	1579028	n/a	LTP115	ltpFR2	12	n/a	n/a	n/a	18	12	5	1	6
3159.132	n/a	PROB	1579566	n/a	LTP115	ltpFR2	12	n/a	n/a	n/a	18	20	8	4	8
3162.21	n/a	PROB	1581105	n/a	LTP115	ltpFR2	12	n/a	n/a	n/a	18	7	1	3	3
3163.26	n/a	PROB	1581630	n/a	LTP115	ltpFR2	12	n/a	n/a	n/a	18	10	3	2	5
3164.538	n/a	PROB	1582269	n/a	LTP115	ltpFR2	12	n/a	n/a	n/a	18	12	1	2	9
3166.122	n/a	PROB	1583061	n/a	LTP115	ltpFR2	12	n/a	n/a	n/a	18	13	7	3	3
3167.498	n/a	PROB	1583749	n/a	LTP115	ltpFR2	12	n/a	n/a	n/a	18	9	2	3	4
3169.388	n/a	PROB	1584694	n/a	LTP115	ltpFR2	12	n/a	n/a	n/a	18	4	1	2	1
3170.304	n/a	PROB	1585152	n/a	LTP115	ltpFR2	12	n/a	n/a	n/a	18	13	4	6	3
3171.318	n/a	STOP	1585659	n/a	LTP115	ltpFR2	12	n/a	n/a	n/a	18	n/a	n/a	n/a	n/a
3173.302	n/a	WORD	1586651	wordpools/wasnorm_wordpool_576.txt	LTP115	ltpFR2	12	14	DENIM	446	n/a	n/a	0	0	0
3175.996	n/a	WORD	1587998	wordpools/wasnorm_wordpool_576.txt	LTP115	ltpFR2	12	14	BLOUSE	139	n/a	n/a	0	0	0
3178.602	n/a	WORD	1589301	wordpools/wasnorm_wordpool_576.txt	LTP115	ltpFR2	12	14	DRAGON	492	n/a	n/a	0	0	0
3181.06	n/a	WORD	1590530	wordpools/wasnorm_wordpool_576.txt	LTP115	ltpFR2	12	14	HAND	683	n/a	n/a	0	0	0
3183.688	n/a	WORD	1591844	wordpools/wasnorm_wordpool_576.txt	LTP115	ltpFR2	12	14	BEEF	113	n/a	n/a	0	0	0
3186.236	n/a	WORD	1593118	wordpools/wasnorm_wordpool_576.txt	LTP115	ltpFR2	12	14	MONSTER	912	n/a	n/a	0	0	0
3188.846	n/a	WORD	1594423	wordpools/wasnorm_wordpool_576.txt	LTP115	ltpFR2	12	14	STAMP	1370	n/a	n/a	0	0	0
3191.54	n/a	WORD	1595770	wordpools/wasnorm_wordpool_576.txt	LTP115	ltpFR2	12	14	CRITIC	410	n/a	n/a	0	0	0
3193.994	n/a	WORD	1596997	wordpools/wasnorm_wordpool_576.txt	LTP115	ltpFR2	12	14	PLIERS	1089	n/a	n/a	0	0	0
3196.72	n/a	WORD	1598360	wordpools/wasnorm_wordpool_576.txt	LTP115	ltpFR2	12	14	WRENCH	1625	n/a	n/a	0	0	0
3199.364	n/a	WORD	1599682	wordpools/wasnorm_wordpool_576.txt	LTP115	ltpFR2	12	14	RAZOR	1171	n/a	n/a	0	0	0
3201.874	n/a	WORD	1600937	wordpools/wasnorm_wordpool_576.txt	LTP115	ltpFR2	12	14	GUARD	667	n/a	n/a	0	0	0
3204.456	n/a	WORD	1602228	wordpools/wasnorm_wordpool_576.txt	LTP115	ltpFR2	12	14	OUTFIT	988	n/a	n/a	0	0	0
3207.198	n/a	WORD	1603599	wordpools/wasnorm_wordpool_576.txt	LTP115	ltpFR2	12	14	DUSTPAN	509	n/a	n/a	0	0	0
3209.86	n/a	WORD	1604930	wordpools/wasnorm_wordpool_576.txt	LTP115	ltpFR2	12	14	MATCH	878	n/a	n/a	0	0	0
3212.65	n/a	WORD	1606325	wordpools/wasnorm_wordpool_576.txt	LTP115	ltpFR2	12	14	FRUIT	610	n/a	n/a	0	0	0
3215.246	n/a	WORD	1607623	wordpools/wasnorm_wordpool_576.txt	LTP115	ltpFR2	12	14	CARROT	249	n/a	n/a	0	0	0
3217.722	n/a	WORD	1608861	wordpools/wasnorm_wordpool_576.txt	LTP115	ltpFR2	12	14	SPONGE	1355	n/a	n/a	0	0	0
3220.366	n/a	WORD	1610183	wordpools/wasnorm_wordpool_576.txt	LTP115	ltpFR2	12	14	FIREMAN	569	n/a	n/a	0	0	0
3223.06	n/a	WORD	1611530	wordpools/wasnorm_wordpool_576.txt	LTP115	ltpFR2	12	14	PARROT	1015	n/a	n/a	0	0	0
3225.736	n/a	WORD	1612868	wordpools/wasnorm_wordpool_576.txt	LTP115	ltpFR2	12	14	GLASS	639	n/a	n/a	0	0	0
3228.358	n/a	WORD	1614179	wordpools/wasnorm_wordpool_576.txt	LTP115	ltpFR2	12	14	BLADE	134	n/a	n/a	0	0	0
3230.872	n/a	WORD	1615436	wordpools/wasnorm_wordpool_576.txt	LTP115	ltpFR2	12	14	ARM	38	n/a	n/a	0	0	0
3233.618	n/a	WORD	1616809	wordpools/wasnorm_wordpool_576.txt	LTP115	ltpFR2	12	14	INFANT	737	n/a	n/a	0	0	0
3235.236	n/a	START	1617618	n/a	LTP115	ltpFR2	12	n/a	n/a	n/a	19	n/a	n/a	n/a	n/a
3236.05	n/a	DISTRACTOR	1618025	n/a	LTP115	ltpFR2	12	14	n/a	n/a	n/a	n/a	0	0	0
3236.058	n/a	PROB	1618029	n/a	LTP115	ltpFR2	12	n/a	n/a	n/a	19	23	8	9	6
3238.882	n/a	PROB	1619441	n/a	LTP115	ltpFR2	12	n/a	n/a	n/a	19	15	8	3	4
3240.238	n/a	PROB	1620119	n/a	LTP115	ltpFR2	12	n/a	n/a	n/a	19	17	8	4	5
3242.078	n/a	PROB	1621039	n/a	LTP115	ltpFR2	12	n/a	n/a	n/a	19	10	1	8	1
3243.016	n/a	PROB	1621508	n/a	LTP115	ltpFR2	12	n/a	n/a	n/a	19	12	1	9	2
3244.392	n/a	PROB	1622196	n/a	LTP115	ltpFR2	12	n/a	n/a	n/a	19	17	9	5	3
3245.976	n/a	PROB	1622988	n/a	LTP115	ltpFR2	12	n/a	n/a	n/a	19	10	3	5	2
3250.214	n/a	PROB	1625107	n/a	LTP115	ltpFR2	12	n/a	n/a	n/a	19	22	9	9	4
3252.752	n/a	PROB	1626376	n/a	LTP115	ltpFR2	12	n/a	n/a	n/a	19	18	5	9	4
3254.46	n/a	PROB	1627230	n/a	LTP115	ltpFR2	12	n/a	n/a	n/a	19	9	3	4	2
3255.75	n/a	PROB	1627875	n/a	LTP115	ltpFR2	12	n/a	n/a	n/a	19	19	6	7	6
3258.948	n/a	STOP	1629474	n/a	LTP115	ltpFR2	12	n/a	n/a	n/a	19	n/a	n/a	n/a	n/a
3261.04	n/a	REC_START	1630520	n/a	LTP115	ltpFR2	12	14	n/a	n/a	n/a	n/a	0	0	0
3262.46	n/a	REC_WORD	1631230	wordpools/wasnorm_wordpool_576.txt	LTP115	ltpFR2	12	14	DRAGON	492	n/a	n/a	0	0	0
3263.668	n/a	REC_WORD_VV	1631834	wordpools/wasnorm_wordpool_576.txt	LTP115	ltpFR2	12	14	<>	-1	n/a	n/a	0	0	0
3266.864	n/a	REC_WORD	1633432	wordpools/wasnorm_wordpool_576.txt	LTP115	ltpFR2	12	14	PARROT	1015	n/a	n/a	0	0	0
3269.922	n/a	REC_WORD	1634961	wordpools/wasnorm_wordpool_576.txt	LTP115	ltpFR2	12	14	BLOUSE	139	n/a	n/a	0	0	0
3271.296	n/a	REC_WORD	1635648	wordpools/wasnorm_wordpool_576.txt	LTP115	ltpFR2	12	14	DENIM	446	n/a	n/a	0	0	0
3272.344	n/a	REC_WORD	1636172	wordpools/wasnorm_wordpool_576.txt	LTP115	ltpFR2	12	14	OUTFIT	988	n/a	n/a	0	0	0
3274.556	n/a	REC_WORD	1637278	wordpools/wasnorm_wordpool_576.txt	LTP115	ltpFR2	12	14	CARROT	249	n/a	n/a	0	0	0
3275.194	n/a	REC_WORD	1637597	wordpools/wasnorm_wordpool_576.txt	LTP115	ltpFR2	12	14	FRUIT	610	n/a	n/a	0	0	0
3276.196	n/a	REC_WORD	1638098	wordpools/wasnorm_wordpool_576.txt	LTP115	ltpFR2	12	14	BEEF	113	n/a	n/a	0	0	0
3280.152	n/a	REC_WORD	1640076	wordpools/wasnorm_wordpool_576.txt	LTP115	ltpFR2	12	14	INFANT	737	n/a	n/a	0	0	0
3282.042	n/a	REC_WORD	1641021	wordpools/wasnorm_wordpool_576.txt	LTP115	ltpFR2	12	14	GUARD	667	n/a	n/a	0	0	0
3282.894	n/a	REC_WORD	1641447	wordpools/wasnorm_wordpool_576.txt	LTP115	ltpFR2	12	14	ARM	38	n/a	n/a	0	0	0
3284.014	n/a	REC_WORD	1642007	wordpools/wasnorm_wordpool_576.txt	LTP115	ltpFR2	12	14	FIREMAN	569	n/a	n/a	0	0	0
3285.014	n/a	REC_WORD_VV	1642507	wordpools/wasnorm_wordpool_576.txt	LTP115	ltpFR2	12	14	<>	-1	n/a	n/a	0	0	0
3286.188	n/a	REC_WORD	1643094	wordpools/wasnorm_wordpool_576.txt	LTP115	ltpFR2	12	14	RAZOR	1171	n/a	n/a	0	0	0
3287.164	n/a	REC_WORD	1643582	wordpools/wasnorm_wordpool_576.txt	LTP115	ltpFR2	12	14	BLADE	134	n/a	n/a	0	0	0
3288.792	n/a	REC_WORD	1644396	wordpools/wasnorm_wordpool_576.txt	LTP115	ltpFR2	12	14	PLIERS	1089	n/a	n/a	0	0	0
3289.774	n/a	REC_WORD	1644887	wordpools/wasnorm_wordpool_576.txt	LTP115	ltpFR2	12	14	WRENCH	1625	n/a	n/a	0	0	0
3291.802	n/a	REC_WORD	1645901	wordpools/wasnorm_wordpool_576.txt	LTP115	ltpFR2	12	14	MONSTER	912	n/a	n/a	0	0	0
3292.802	n/a	REC_WORD_VV	1646401	wordpools/wasnorm_wordpool_576.txt	LTP115	ltpFR2	12	14	<>	-1	n/a	n/a	0	0	0
3314.5	n/a	REC_WORD	1657250	wordpools/wasnorm_wordpool_576.txt	LTP115	ltpFR2	12	14	MATCH	878	n/a	n/a	0	0	0
3316.724	n/a	REC_WORD	1658362	wordpools/wasnorm_wordpool_576.txt	LTP115	ltpFR2	12	14	SPONGE	1355	n/a	n/a	0	0	0
3318.816	n/a	REC_WORD	1659408	wordpools/wasnorm_wordpool_576.txt	LTP115	ltpFR2	12	14	DUSTPAN	509	n/a	n/a	0	0	0
3352.07	n/a	DISTRACTOR	1676035	n/a	LTP115	ltpFR2	12	15	n/a	n/a	n/a	n/a	0	0	0
3352.07	n/a	START	1676035	n/a	LTP115	ltpFR2	12	n/a	n/a	n/a	20	n/a	n/a	n/a	n/a
3352.12	n/a	PROB	1676060	n/a	LTP115	ltpFR2	12	n/a	n/a	n/a	20	11	4	5	2
3354.09	n/a	PROB	1677045	n/a	LTP115	ltpFR2	12	n/a	n/a	n/a	20	18	8	6	4
3355.546	n/a	PROB	1677773	n/a	LTP115	ltpFR2	12	n/a	n/a	n/a	20	12	2	2	8
3357.034	n/a	PROB	1678517	n/a	LTP115	ltpFR2	12	n/a	n/a	n/a	20	22	8	5	9
3358.828	n/a	PROB	1679414	n/a	LTP115	ltpFR2	12	n/a	n/a	n/a	20	9	1	4	4
3360.084	n/a	PROB	1680042	n/a	LTP115	ltpFR2	12	n/a	n/a	n/a	20	25	8	8	9
3361.652	n/a	PROB	1680826	n/a	LTP115	ltpFR2	12	n/a	n/a	n/a	20	12	3	4	5
3363.124	n/a	PROB	1681562	n/a	LTP115	ltpFR2	12	n/a	n/a	n/a	20	15	2	5	8
3364.914	n/a	PROB	1682457	n/a	LTP115	ltpFR2	12	n/a	n/a	n/a	20	19	5	9	5
3366.186	n/a	PROB	1683093	n/a	LTP115	ltpFR2	12	n/a	n/a	n/a	20	16	8	2	6
3368.026	n/a	PROB	1684013	n/a	LTP115	ltpFR2	12	n/a	n/a	n/a	20	19	6	5	8
3369.654	n/a	PROB	1684827	n/a	LTP115	ltpFR2	12	n/a	n/a	n/a	20	9	2	5	2
3370.958	n/a	PROB	1685479	n/a	LTP115	ltpFR2	12	n/a	n/a	n/a	20	14	2	4	8
3373.486	n/a	PROB	1686743	n/a	LTP115	ltpFR2	12	n/a	n/a	n/a	20	27	9	9	9
3375.434	n/a	STOP	1687717	n/a	LTP115	ltpFR2	12	n/a	n/a	n/a	20	n/a	n/a	n/a	n/a
3377.01	n/a	WORD	1688505	wordpools/wasnorm_wordpool_576.txt	LTP115	ltpFR2	12	15	CATCHER	258	n/a	n/a	0	0	0
3379.826	n/a	WORD	1689913	wordpools/wasnorm_wordpool_576.txt	LTP115	ltpFR2	12	15	PIGMENT	1066	n/a	n/a	0	0	0
3382.47	n/a	WORD	1691235	wordpools/wasnorm_wordpool_576.txt	LTP115	ltpFR2	12	15	DRAWING	494	n/a	n/a	0	0	0
3385.062	n/a	WORD	1692531	wordpools/wasnorm_wordpool_576.txt	LTP115	ltpFR2	12	15	FUNGUS	614	n/a	n/a	0	0	0
3387.572	n/a	WORD	1693786	wordpools/wasnorm_wordpool_576.txt	LTP115	ltpFR2	12	15	SWAMP	1416	n/a	n/a	0	0	0
3390.182	n/a	WORD	1695091	wordpools/wasnorm_wordpool_576.txt	LTP115	ltpFR2	12	15	LADDER	793	n/a	n/a	0	0	0
3392.788	n/a	WORD	1696394	wordpools/wasnorm_wordpool_576.txt	LTP115	ltpFR2	12	15	PISTON	1076	n/a	n/a	0	0	0
3395.57	n/a	WORD	1697785	wordpools/wasnorm_wordpool_576.txt	LTP115	ltpFR2	12	15	SCULPTURE	1258	n/a	n/a	0	0	0
3398.158	n/a	WORD	1699079	wordpools/wasnorm_wordpool_576.txt	LTP115	ltpFR2	12	15	HELMET	702	n/a	n/a	0	0	0
3400.956	n/a	WORD	1700478	wordpools/wasnorm_wordpool_576.txt	LTP115	ltpFR2	12	15	PEDAL	1037	n/a	n/a	0	0	0
3403.432	n/a	WORD	1701716	wordpools/wasnorm_wordpool_576.txt	LTP115	ltpFR2	12	15	COIN	343	n/a	n/a	0	0	0
3405.858	n/a	WORD	1702929	wordpools/wasnorm_wordpool_576.txt	LTP115	ltpFR2	12	15	RATTLE	1170	n/a	n/a	0	0	0
3408.436	n/a	WORD	1704218	wordpools/wasnorm_wordpool_576.txt	LTP115	ltpFR2	12	15	REBEL	1172	n/a	n/a	0	0	0
3411.228	n/a	WORD	1705614	wordpools/wasnorm_wordpool_576.txt	LTP115	ltpFR2	12	15	BELLY	119	n/a	n/a	0	0	0
3414.04	n/a	WORD	1707020	wordpools/wasnorm_wordpool_576.txt	LTP115	ltpFR2	12	15	MARKER	870	n/a	n/a	0	0	0
3416.512	n/a	WORD	1708256	wordpools/wasnorm_wordpool_576.txt	LTP115	ltpFR2	12	15	TRIBE	1505	n/a	n/a	0	0	0
3418.974	n/a	WORD	1709487	wordpools/wasnorm_wordpool_576.txt	LTP115	ltpFR2	12	15	COFFEE	341	n/a	n/a	0	0	0
3421.486	n/a	WORD	1710743	wordpools/wasnorm_wordpool_576.txt	LTP115	ltpFR2	12	15	PLAID	1080	n/a	n/a	0	0	0
3423.94	n/a	WORD	1711970	wordpools/wasnorm_wordpool_576.txt	LTP115	ltpFR2	12	15	STOMACH	1384	n/a	n/a	0	0	0
3426.606	n/a	WORD	1713303	wordpools/wasnorm_wordpool_576.txt	LTP115	ltpFR2	12	15	BANK	83	n/a	n/a	0	0	0
3429.164	n/a	WORD	1714582	wordpools/wasnorm_wordpool_576.txt	LTP115	ltpFR2	12	15	PISTOL	1075	n/a	n/a	0	0	0
3431.79	n/a	WORD	1715895	wordpools/wasnorm_wordpool_576.txt	LTP115	ltpFR2	12	15	PRINCESS	1125	n/a	n/a	0	0	0
3434.316	n/a	WORD	1717158	wordpools/wasnorm_wordpool_576.txt	LTP115	ltpFR2	12	15	THRONE	1461	n/a	n/a	0	0	0
3436.96	n/a	WORD	1718480	wordpools/wasnorm_wordpool_576.txt	LTP115	ltpFR2	12	15	COUSIN	392	n/a	n/a	0	0	0
3438.568	n/a	START	1719284	n/a	LTP115	ltpFR2	12	n/a	n/a	n/a	21	n/a	n/a	n/a	n/a
3439.424	n/a	DISTRACTOR	1719712	n/a	LTP115	ltpFR2	12	15	n/a	n/a	n/a	n/a	0	0	0
3439.438	n/a	PROB	1719719	n/a	LTP115	ltpFR2	12	n/a	n/a	n/a	21	14	2	9	3
3441.356	n/a	PROB	1720678	n/a	LTP115	ltpFR2	12	n/a	n/a	n/a	21	14	3	5	6
3443.514	n/a	PROB	1721757	n/a	LTP115	ltpFR2	12	n/a	n/a	n/a	21	19	7	8	4
3445.794	n/a	PROB	1722897	n/a	LTP115	ltpFR2	12	n/a	n/a	n/a	21	16	1	7	8
3447.768	n/a	PROB	1723884	n/a	LTP115	ltpFR2	12	n/a	n/a	n/a	21	17	7	8	2
3448.906	n/a	PROB	1724453	n/a	LTP115	ltpFR2	12	n/a	n/a	n/a	21	10	5	1	3
3451.378	n/a	PROB	1725689	n/a	LTP115	ltpFR2	12	n/a	n/a	n/a	21	17	8	6	3
3455.062	n/a	PROB	1727531	n/a	LTP115	ltpFR2	12	n/a	n/a	n/a	21	13	5	1	7
3456.414	n/a	PROB	1728207	n/a	LTP115	ltpFR2	12	n/a	n/a	n/a	21	10	2	5	3
3458.438	n/a	PROB	1729219	n/a	LTP115	ltpFR2	12	n/a	n/a	n/a	21	7	3	1	3
3459.498	n/a	PROB	1729749	n/a	LTP115	ltpFR2	12	n/a	n/a	n/a	21	15	3	4	8
3461.31	n/a	STOP	1730655	n/a	LTP115	ltpFR2	12	n/a	n/a	n/a	21	n/a	n/a	n/a	n/a
3464.48	n/a	REC_START	1732240	n/a	LTP115	ltpFR2	12	15	n/a	n/a	n/a	n/a	0	0	0
3465.31	n/a	REC_WORD	1732655	wordpools/wasnorm_wordpool_576.txt	LTP115	ltpFR2	12	15	PISTOL	1075	n/a	n/a	0	0	0
3465.972	n/a	REC_WORD	1732986	wordpools/wasnorm_wordpool_576.txt	LTP115	ltpFR2	12	15	PISTON	1076	n/a	n/a	0	0	0
3466.558	n/a	REC_WORD	1733279	wordpools/wasnorm_wordpool_576.txt	LTP115	ltpFR2	12	15	SWAMP	1416	n/a	n/a	0	0	0
3467.862	n/a	REC_WORD	1733931	wordpools/wasnorm_wordpool_576.txt	LTP115	ltpFR2	12	15	FUNGUS	614	n/a	n/a	0	0	0
3468.688	n/a	REC_WORD	1734344	wordpools/wasnorm_wordpool_576.txt	LTP115	ltpFR2	12	15	PIGMENT	1066	n/a	n/a	0	0	0
3469.432	n/a	REC_WORD_VV	1734716	wordpools/wasnorm_wordpool_576.txt	LTP115	ltpFR2	12	15	<>	-1	n/a	n/a	0	0	0
3470.06	n/a	REC_WORD	1735030	wordpools/wasnorm_wordpool_576.txt	LTP115	ltpFR2	12	15	CATCHER	258	n/a	n/a	0	0	0
3471.454	n/a	REC_WORD	1735727	wordpools/wasnorm_wordpool_576.txt	LTP115	ltpFR2	12	15	COUSIN	392	n/a	n/a	0	0	0
3471.998	n/a	REC_WORD	1735999	wordpools/wasnorm_wordpool_576.txt	LTP115	ltpFR2	12	15	STATUE	1374	n/a	n/a	0	0	0
3472.88	n/a	REC_WORD	1736440	wordpools/wasnorm_wordpool_576.txt	LTP115	ltpFR2	12	15	TRIBE	1505	n/a	n/a	0	0	0
3473.678	n/a	REC_WORD	1736839	wordpools/wasnorm_wordpool_576.txt	LTP115	ltpFR2	12	15	PRINCESS	1125	n/a	n/a	0	0	0
3475.068	n/a	REC_WORD	1737534	wordpools/wasnorm_wordpool_576.txt	LTP115	ltpFR2	12	15	HELMET	702	n/a	n/a	0	0	0
3475.842	n/a	REC_WORD	1737921	wordpools/wasnorm_wordpool_576.txt	LTP115	ltpFR2	12	15	COIN	343	n/a	n/a	0	0	0
3476.608	n/a	REC_WORD	1738304	wordpools/wasnorm_wordpool_576.txt	LTP115	ltpFR2	12	15	BELLY	119	n/a	n/a	0	0	0
3477.046	n/a	REC_WORD	1738523	wordpools/wasnorm_wordpool_576.txt	LTP115	ltpFR2	12	15	STOMACH	1384	n/a	n/a	0	0	0
3477.894	n/a	REC_WORD	1738947	wordpools/wasnorm_wordpool_576.txt	LTP115	ltpFR2	12	15	MARKER	870	n/a	n/a	0	0	0
3478.994	n/a	REC_WORD	1739497	wordpools/wasnorm_wordpool_576.txt	LTP115	ltpFR2	12	15	PLAID	1080	n/a	n/a	0	0	0
3482.196	n/a	REC_WORD	1741098	wordpools/wasnorm_wordpool_576.txt	LTP115	ltpFR2	12	15	REBEL	1172	n/a	n/a	0	0	0
3485.232	n/a	REC_WORD	1742616	wordpools/wasnorm_wordpool_576.txt	LTP115	ltpFR2	12	15	BANK	83	n/a	n/a	0	0	0
3488.194	n/a	REC_WORD_VV	1744097	wordpools/wasnorm_wordpool_576.txt	LTP115	ltpFR2	12	15	<>	-1	n/a	n/a	0	0	0
3489.194	n/a	REC_WORD_VV	1744597	wordpools/wasnorm_wordpool_576.txt	LTP115	ltpFR2	12	15	<>	-1	n/a	n/a	0	0	0
3515.308	n/a	REC_WORD	1757654	wordpools/wasnorm_wordpool_576.txt	LTP115	ltpFR2	12	15	LADDER	793	n/a	n/a	0	0	0
3530.176	n/a	REC_WORD	1765088	wordpools/wasnorm_wordpool_576.txt	LTP115	ltpFR2	12	15	THRONE	1461	n/a	n/a	0	0	0
3555.514	n/a	DISTRACTOR	1777757	n/a	LTP115	ltpFR2	12	16	n/a	n/a	n/a	n/a	0	0	0
3555.514	n/a	START	1777757	n/a	LTP115	ltpFR2	12	n/a	n/a	n/a	22	n/a	n/a	n/a	n/a
3555.564	n/a	PROB	1777782	n/a	LTP115	ltpFR2	12	n/a	n/a	n/a	22	17	2	8	7
3557.768	n/a	PROB	1778884	n/a	LTP115	ltpFR2	12	n/a	n/a	n/a	22	12	1	4	7
3558.926	n/a	PROB	1779463	n/a	LTP115	ltpFR2	12	n/a	n/a	n/a	22	13	6	3	4
3561.002	n/a	PROB	1780501	n/a	LTP115	ltpFR2	12	n/a	n/a	n/a	22	9	7	1	1
3562.072	n/a	PROB	1781036	n/a	LTP115	ltpFR2	12	n/a	n/a	n/a	22	17	6	8	3
3564.394	n/a	PROB	1782197	n/a	LTP115	ltpFR2	12	n/a	n/a	n/a	22	13	9	2	2
3566.624	n/a	PROB	1783312	n/a	LTP115	ltpFR2	12	n/a	n/a	n/a	22	9	1	3	5
3568.81	n/a	PROB	1784405	n/a	LTP115	ltpFR2	12	n/a	n/a	n/a	22	9	1	1	7
3569.78	n/a	PROB	1784890	n/a	LTP115	ltpFR2	12	n/a	n/a	n/a	22	17	4	4	9
3571.642	n/a	PROB	1785821	n/a	LTP115	ltpFR2	12	n/a	n/a	n/a	22	17	7	3	7
3572.942	n/a	PROB	1786471	n/a	LTP115	ltpFR2	12	n/a	n/a	n/a	22	13	4	8	1
3575.138	n/a	PROB	1787569	n/a	LTP115	ltpFR2	12	n/a	n/a	n/a	22	11	5	4	2
3576.892	n/a	PROB	1788446	n/a	LTP115	ltpFR2	12	n/a	n/a	n/a	22	19	1	9	9
3578.076	n/a	STOP	1789038	n/a	LTP115	ltpFR2	12	n/a	n/a	n/a	22	n/a	n/a	n/a	n/a
3580.544	n/a	WORD	1790272	wordpools/wasnorm_wordpool_576.txt	LTP115	ltpFR2	12	16	BUTCHER	203	n/a	n/a	0	0	0
3583.236	n/a	WORD	1791618	wordpools/wasnorm_wordpool_576.txt	LTP115	ltpFR2	12	16	TOMBSTONE	1478	n/a	n/a	0	0	0
3585.912	n/a	WORD	1792956	wordpools/wasnorm_wordpool_576.txt	LTP115	ltpFR2	12	16	SLUG	1329	n/a	n/a	0	0	0
3588.434	n/a	WORD	1794217	wordpools/wasnorm_wordpool_576.txt	LTP115	ltpFR2	12	16	UMPIRE	1535	n/a	n/a	0	0	0
3590.982	n/a	WORD	1795491	wordpools/wasnorm_wordpool_576.txt	LTP115	ltpFR2	12	16	PEBBLE	1035	n/a	n/a	0	0	0
3593.676	n/a	WORD	1796838	wordpools/wasnorm_wordpool_576.txt	LTP115	ltpFR2	12	16	NECKLACE	940	n/a	n/a	0	0	0
3596.454	n/a	WORD	1798227	wordpools/wasnorm_wordpool_576.txt	LTP115	ltpFR2	12	16	SWORD	1423	n/a	n/a	0	0	0
3599.264	n/a	WORD	1799632	wordpools/wasnorm_wordpool_576.txt	LTP115	ltpFR2	12	16	HATCHET	691	n/a	n/a	0	0	0
3601.904	n/a	WORD	1800952	wordpools/wasnorm_wordpool_576.txt	LTP115	ltpFR2	12	16	VENUS	1557	n/a	n/a	0	0	0
3604.568	n/a	WORD	1802284	wordpools/wasnorm_wordpool_576.txt	LTP115	ltpFR2	12	16	MARS	873	n/a	n/a	0	0	0
3607.14	n/a	WORD	1803570	wordpools/wasnorm_wordpool_576.txt	LTP115	ltpFR2	12	16	SURVEY	1414	n/a	n/a	0	0	0
3609.72	n/a	WORD	1804860	wordpools/wasnorm_wordpool_576.txt	LTP115	ltpFR2	12	16	PIZZA	1079	n/a	n/a	0	0	0
3612.164	n/a	WORD	1806082	wordpools/wasnorm_wordpool_576.txt	LTP115	ltpFR2	12	16	HIKER	708	n/a	n/a	0	0	0
3614.752	n/a	WORD	1807376	wordpools/wasnorm_wordpool_576.txt	LTP115	ltpFR2	12	16	HIGHWAY	707	n/a	n/a	0	0	0
3617.316	n/a	WORD	1808658	wordpools/wasnorm_wordpool_576.txt	LTP115	ltpFR2	12	16	PLUTO	1092	n/a	n/a	0	0	0
3619.922	n/a	WORD	1809961	wordpools/wasnorm_wordpool_576.txt	LTP115	ltpFR2	12	16	CUSTARD	429	n/a	n/a	0	0	0
3622.57	n/a	WORD	1811285	wordpools/wasnorm_wordpool_576.txt	LTP115	ltpFR2	12	16	JUGGLER	763	n/a	n/a	0	0	0
3625.028	n/a	WORD	1812514	wordpools/wasnorm_wordpool_576.txt	LTP115	ltpFR2	12	16	SEAFOOD	1260	n/a	n/a	0	0	0
3627.822	n/a	WORD	1813911	wordpools/wasnorm_wordpool_576.txt	LTP115	ltpFR2	12	16	HOUND	724	n/a	n/a	0	0	0
