mstime	trial_type	stim_file	subject	experiment	session	trial	item_name	item_num	list	answer	test_x	test_y	test_z
0	SESS_START	n/a	LTP250	ltpFR2	14	n/a	n/a	n/a	n/a	n/a	0	0	0
12697	START	n/a	LTP250	ltpFR2	14	n/a	n/a	n/a	-1	n/a	n/a	n/a	n/a
12729	PROB	n/a	LTP250	ltpFR2	14	n/a	n/a	n/a	-1	13	6	4	3
14296	PROB	n/a	LTP250	ltpFR2	14	n/a	n/a	n/a	-1	10	1	4	5
15665	PROB	n/a	LTP250	ltpFR2	14	n/a	n/a	n/a	-1	14	1	5	8
17983	PROB	n/a	LTP250	ltpFR2	14	n/a	n/a	n/a	-1	8	1	3	4
19585	PROB	n/a	LTP250	ltpFR2	14	n/a	n/a	n/a	-1	10	3	3	4
21035	PROB	n/a	LTP250	ltpFR2	14	n/a	n/a	n/a	-1	11	2	4	5
23317	STOP	n/a	LTP250	ltpFR2	14	n/a	n/a	n/a	-1	n/a	n/a	n/a	n/a
55132	DISTRACTOR	n/a	LTP250	ltpFR2	14	1	n/a	n/a	n/a	n/a	0	0	0
55132	START	n/a	LTP250	ltpFR2	14	n/a	n/a	n/a	1	n/a	n/a	n/a	n/a
55165	PROB	n/a	LTP250	ltpFR2	14	n/a	n/a	n/a	1	17	6	5	6
58034	PROB	n/a	LTP250	ltpFR2	14	n/a	n/a	n/a	1	20	6	5	9
60637	PROB	n/a	LTP250	ltpFR2	14	n/a	n/a	n/a	1	17	2	8	7
62405	PROB	n/a	LTP250	ltpFR2	14	n/a	n/a	n/a	1	10	4	2	4
64223	PROB	n/a	LTP250	ltpFR2	14	n/a	n/a	n/a	1	13	8	4	1
66041	PROB	n/a	LTP250	ltpFR2	14	n/a	n/a	n/a	1	22	9	8	5
68276	PROB	n/a	LTP250	ltpFR2	14	n/a	n/a	n/a	1	22	9	4	9
71246	PROB	n/a	LTP250	ltpFR2	14	n/a	n/a	n/a	1	15	4	9	2
74415	PROB	n/a	LTP250	ltpFR2	14	n/a	n/a	n/a	1	12	7	2	3
76267	PROB	n/a	LTP250	ltpFR2	14	n/a	n/a	n/a	1	16	6	8	2
77632	STOP	n/a	LTP250	ltpFR2	14	n/a	n/a	n/a	1	n/a	n/a	n/a	n/a
80053	WORD	wordpools/wasnorm_wordpool_576.txt	LTP250	ltpFR2	14	1	COUCH	386	n/a	n/a	0	0	0
82572	WORD	wordpools/wasnorm_wordpool_576.txt	LTP250	ltpFR2	14	1	DRESSER	496	n/a	n/a	0	0	0
85408	WORD	wordpools/wasnorm_wordpool_576.txt	LTP250	ltpFR2	14	1	PLUTO	1092	n/a	n/a	0	0	0
88210	WORD	wordpools/wasnorm_wordpool_576.txt	LTP250	ltpFR2	14	1	INMATE	738	n/a	n/a	0	0	0
91030	WORD	wordpools/wasnorm_wordpool_576.txt	LTP250	ltpFR2	14	1	DIVER	476	n/a	n/a	0	0	0
93633	WORD	wordpools/wasnorm_wordpool_576.txt	LTP250	ltpFR2	14	1	SLIDE	1326	n/a	n/a	0	0	0
96284	WORD	wordpools/wasnorm_wordpool_576.txt	LTP250	ltpFR2	14	1	ONION	977	n/a	n/a	0	0	0
98854	WORD	wordpools/wasnorm_wordpool_576.txt	LTP250	ltpFR2	14	1	GROUND	666	n/a	n/a	0	0	0
101372	WORD	wordpools/wasnorm_wordpool_576.txt	LTP250	ltpFR2	14	1	APRON	35	n/a	n/a	0	0	0
103892	WORD	wordpools/wasnorm_wordpool_576.txt	LTP250	ltpFR2	14	1	LABEL	790	n/a	n/a	0	0	0
106460	WORD	wordpools/wasnorm_wordpool_576.txt	LTP250	ltpFR2	14	1	OZONE	996	n/a	n/a	0	0	0
108913	WORD	wordpools/wasnorm_wordpool_576.txt	LTP250	ltpFR2	14	1	SHERIFF	1284	n/a	n/a	0	0	0
111364	WORD	wordpools/wasnorm_wordpool_576.txt	LTP250	ltpFR2	14	1	POLICE	1098	n/a	n/a	0	0	0
113901	WORD	wordpools/wasnorm_wordpool_576.txt	LTP250	ltpFR2	14	1	HAMPER	682	n/a	n/a	0	0	0
116703	WORD	wordpools/wasnorm_wordpool_576.txt	LTP250	ltpFR2	14	1	BUNNY	198	n/a	n/a	0	0	0
119304	WORD	wordpools/wasnorm_wordpool_576.txt	LTP250	ltpFR2	14	1	FRANCE	601	n/a	n/a	0	0	0
121774	WORD	wordpools/wasnorm_wordpool_576.txt	LTP250	ltpFR2	14	1	SUNRISE	1407	n/a	n/a	0	0	0
124275	WORD	wordpools/wasnorm_wordpool_576.txt	LTP250	ltpFR2	14	1	RUG	1215	n/a	n/a	0	0	0
126762	WORD	wordpools/wasnorm_wordpool_576.txt	LTP250	ltpFR2	14	1	SERVANT	1271	n/a	n/a	0	0	0
129230	WORD	wordpools/wasnorm_wordpool_576.txt	LTP250	ltpFR2	14	1	PLAYGROUND	1087	n/a	n/a	0	0	0
131733	WORD	wordpools/wasnorm_wordpool_576.txt	LTP250	ltpFR2	14	1	CLOTHES	327	n/a	n/a	0	0	0
134484	WORD	wordpools/wasnorm_wordpool_576.txt	LTP250	ltpFR2	14	1	GRAPE	654	n/a	n/a	0	0	0
137136	WORD	wordpools/wasnorm_wordpool_576.txt	LTP250	ltpFR2	14	1	BODY	145	n/a	n/a	0	0	0
139873	WORD	wordpools/wasnorm_wordpool_576.txt	LTP250	ltpFR2	14	1	MOP	916	n/a	n/a	0	0	0
141490	START	n/a	LTP250	ltpFR2	14	n/a	n/a	n/a	2	n/a	n/a	n/a	n/a
142490	DISTRACTOR	n/a	LTP250	ltpFR2	14	1	n/a	n/a	n/a	n/a	0	0	0
142508	PROB	n/a	LTP250	ltpFR2	14	n/a	n/a	n/a	2	8	2	5	1
146044	PROB	n/a	LTP250	ltpFR2	14	n/a	n/a	n/a	2	19	9	4	6
147797	PROB	n/a	LTP250	ltpFR2	14	n/a	n/a	n/a	2	22	9	8	5
152467	PROB	n/a	LTP250	ltpFR2	14	n/a	n/a	n/a	2	16	1	7	8
154051	PROB	n/a	LTP250	ltpFR2	14	n/a	n/a	n/a	2	7	2	3	2
156170	PROB	n/a	LTP250	ltpFR2	14	n/a	n/a	n/a	2	21	9	8	4
158840	PROB	n/a	LTP250	ltpFR2	14	n/a	n/a	n/a	2	19	1	9	9
160557	PROB	n/a	LTP250	ltpFR2	14	n/a	n/a	n/a	2	15	2	9	4
163042	PROB	n/a	LTP250	ltpFR2	14	n/a	n/a	n/a	2	12	1	5	6
164410	STOP	n/a	LTP250	ltpFR2	14	n/a	n/a	n/a	2	n/a	n/a	n/a	n/a
167313	REC_START	n/a	LTP250	ltpFR2	14	1	n/a	n/a	n/a	n/a	0	0	0
168421	REC_WORD	wordpools/wasnorm_wordpool_576.txt	LTP250	ltpFR2	14	1	BODY	145	n/a	n/a	0	0	0
169058	REC_WORD	wordpools/wasnorm_wordpool_576.txt	LTP250	ltpFR2	14	1	APRON	35	n/a	n/a	0	0	0
169667	REC_WORD	wordpools/wasnorm_wordpool_576.txt	LTP250	ltpFR2	14	1	CLOTHES	327	n/a	n/a	0	0	0
170425	REC_WORD	wordpools/wasnorm_wordpool_576.txt	LTP250	ltpFR2	14	1	SERVANT	1271	n/a	n/a	0	0	0
172108	REC_WORD	wordpools/wasnorm_wordpool_576.txt	LTP250	ltpFR2	14	1	MOP	916	n/a	n/a	0	0	0
172927	REC_WORD	wordpools/wasnorm_wordpool_576.txt	LTP250	ltpFR2	14	1	FLOOR	581	n/a	n/a	0	0	0
173536	REC_WORD	wordpools/wasnorm_wordpool_576.txt	LTP250	ltpFR2	14	1	RUG	1215	n/a	n/a	0	0	0
174841	REC_WORD	wordpools/wasnorm_wordpool_576.txt	LTP250	ltpFR2	14	1	COUCH	386	n/a	n/a	0	0	0
175640	REC_WORD	wordpools/wasnorm_wordpool_576.txt	LTP250	ltpFR2	14	1	DRESSER	496	n/a	n/a	0	0	0
176279	REC_WORD	wordpools/wasnorm_wordpool_576.txt	LTP250	ltpFR2	14	1	PLUTO	1092	n/a	n/a	0	0	0
176877	REC_WORD	wordpools/wasnorm_wordpool_576.txt	LTP250	ltpFR2	14	1	FRANCE	601	n/a	n/a	0	0	0
177716	REC_WORD	wordpools/wasnorm_wordpool_576.txt	LTP250	ltpFR2	14	1	GROUND	666	n/a	n/a	0	0	0
182284	REC_WORD	wordpools/wasnorm_wordpool_576.txt	LTP250	ltpFR2	14	1	ONION	977	n/a	n/a	0	0	0
182937	REC_WORD	wordpools/wasnorm_wordpool_576.txt	LTP250	ltpFR2	14	1	GRAPE	654	n/a	n/a	0	0	0
257759	DISTRACTOR	n/a	LTP250	ltpFR2	14	2	n/a	n/a	n/a	n/a	0	0	0
257759	START	n/a	LTP250	ltpFR2	14	n/a	n/a	n/a	3	n/a	n/a	n/a	n/a
257776	PROB	n/a	LTP250	ltpFR2	14	n/a	n/a	n/a	3	7	2	2	3
259628	PROB	n/a	LTP250	ltpFR2	14	n/a	n/a	n/a	3	13	5	8	1
261696	PROB	n/a	LTP250	ltpFR2	14	n/a	n/a	n/a	3	13	4	2	7
264899	PROB	n/a	LTP250	ltpFR2	14	n/a	n/a	n/a	3	16	2	7	7
266650	PROB	n/a	LTP250	ltpFR2	14	n/a	n/a	n/a	3	16	2	8	6
268619	PROB	n/a	LTP250	ltpFR2	14	n/a	n/a	n/a	3	9	2	6	1
270569	PROB	n/a	LTP250	ltpFR2	14	n/a	n/a	n/a	3	15	2	9	4
272538	PROB	n/a	LTP250	ltpFR2	14	n/a	n/a	n/a	3	10	1	7	2
275842	PROB	n/a	LTP250	ltpFR2	14	n/a	n/a	n/a	3	10	3	1	6
281759	STOP	n/a	LTP250	ltpFR2	14	n/a	n/a	n/a	3	n/a	n/a	n/a	n/a
282915	WORD	wordpools/wasnorm_wordpool_576.txt	LTP250	ltpFR2	14	2	CREATURE	403	n/a	n/a	0	0	0
285566	WORD	wordpools/wasnorm_wordpool_576.txt	LTP250	ltpFR2	14	2	TRIBE	1505	n/a	n/a	0	0	0
288185	WORD	wordpools/wasnorm_wordpool_576.txt	LTP250	ltpFR2	14	2	CONCERT	360	n/a	n/a	0	0	0
290688	WORD	wordpools/wasnorm_wordpool_576.txt	LTP250	ltpFR2	14	2	TEMPLE	1448	n/a	n/a	0	0	0
293139	WORD	wordpools/wasnorm_wordpool_576.txt	LTP250	ltpFR2	14	2	OFFICE	972	n/a	n/a	0	0	0
295626	WORD	wordpools/wasnorm_wordpool_576.txt	LTP250	ltpFR2	14	2	CRITIC	410	n/a	n/a	0	0	0
298461	WORD	wordpools/wasnorm_wordpool_576.txt	LTP250	ltpFR2	14	2	RIFLE	1192	n/a	n/a	0	0	0
301280	WORD	wordpools/wasnorm_wordpool_576.txt	LTP250	ltpFR2	14	2	EXPERT	543	n/a	n/a	0	0	0
303783	WORD	wordpools/wasnorm_wordpool_576.txt	LTP250	ltpFR2	14	2	CLIMBER	323	n/a	n/a	0	0	0
306451	WORD	wordpools/wasnorm_wordpool_576.txt	LTP250	ltpFR2	14	2	PISTOL	1075	n/a	n/a	0	0	0
309220	WORD	wordpools/wasnorm_wordpool_576.txt	LTP250	ltpFR2	14	2	ZEBRA	1635	n/a	n/a	0	0	0
312039	WORD	wordpools/wasnorm_wordpool_576.txt	LTP250	ltpFR2	14	2	OUTDOORS	987	n/a	n/a	0	0	0
314524	WORD	wordpools/wasnorm_wordpool_576.txt	LTP250	ltpFR2	14	2	UMPIRE	1535	n/a	n/a	0	0	0
316977	WORD	wordpools/wasnorm_wordpool_576.txt	LTP250	ltpFR2	14	2	GLOVE	642	n/a	n/a	0	0	0
319630	WORD	wordpools/wasnorm_wordpool_576.txt	LTP250	ltpFR2	14	2	BACON	67	n/a	n/a	0	0	0
322415	WORD	wordpools/wasnorm_wordpool_576.txt	LTP250	ltpFR2	14	2	SPHINX	1349	n/a	n/a	0	0	0
325234	WORD	wordpools/wasnorm_wordpool_576.txt	LTP250	ltpFR2	14	2	ATOM	55	n/a	n/a	0	0	0
327754	WORD	wordpools/wasnorm_wordpool_576.txt	LTP250	ltpFR2	14	2	NEUTRON	947	n/a	n/a	0	0	0
330388	WORD	wordpools/wasnorm_wordpool_576.txt	LTP250	ltpFR2	14	2	SWITCH	1422	n/a	n/a	0	0	0
333174	WORD	wordpools/wasnorm_wordpool_576.txt	LTP250	ltpFR2	14	2	MARSH	874	n/a	n/a	0	0	0
335878	WORD	wordpools/wasnorm_wordpool_576.txt	LTP250	ltpFR2	14	2	VICTIM	1562	n/a	n/a	0	0	0
338613	WORD	wordpools/wasnorm_wordpool_576.txt	LTP250	ltpFR2	14	2	OUTFIT	988	n/a	n/a	0	0	0
341448	WORD	wordpools/wasnorm_wordpool_576.txt	LTP250	ltpFR2	14	2	DRESS	495	n/a	n/a	0	0	0
344234	WORD	wordpools/wasnorm_wordpool_576.txt	LTP250	ltpFR2	14	2	BUGGY	188	n/a	n/a	0	0	0
345853	START	n/a	LTP250	ltpFR2	14	n/a	n/a	n/a	4	n/a	n/a	n/a	n/a
346812	DISTRACTOR	n/a	LTP250	ltpFR2	14	2	n/a	n/a	n/a	n/a	0	0	0
346837	PROB	n/a	LTP250	ltpFR2	14	n/a	n/a	n/a	4	8	1	3	4
350022	PROB	n/a	LTP250	ltpFR2	14	n/a	n/a	n/a	4	11	6	1	4
351490	PROB	n/a	LTP250	ltpFR2	14	n/a	n/a	n/a	4	14	3	4	7
353342	PROB	n/a	LTP250	ltpFR2	14	n/a	n/a	n/a	4	16	3	8	5
355994	PROB	n/a	LTP250	ltpFR2	14	n/a	n/a	n/a	4	14	5	5	4
357613	PROB	n/a	LTP250	ltpFR2	14	n/a	n/a	n/a	4	17	1	9	7
359230	PROB	n/a	LTP250	ltpFR2	14	n/a	n/a	n/a	4	12	1	7	5
363467	PROB	n/a	LTP250	ltpFR2	14	n/a	n/a	n/a	4	23	9	6	8
366503	PROB	n/a	LTP250	ltpFR2	14	n/a	n/a	n/a	4	12	6	2	4
369354	STOP	n/a	LTP250	ltpFR2	14	n/a	n/a	n/a	4	n/a	n/a	n/a	n/a
371793	REC_START	n/a	LTP250	ltpFR2	14	2	n/a	n/a	n/a	n/a	0	0	0
373821	REC_WORD	wordpools/wasnorm_wordpool_576.txt	LTP250	ltpFR2	14	2	CRITIC	410	n/a	n/a	0	0	0
374484	REC_WORD	wordpools/wasnorm_wordpool_576.txt	LTP250	ltpFR2	14	2	VICTIM	1562	n/a	n/a	0	0	0
375282	REC_WORD	wordpools/wasnorm_wordpool_576.txt	LTP250	ltpFR2	14	2	MARSH	874	n/a	n/a	0	0	0
376097	REC_WORD	wordpools/wasnorm_wordpool_576.txt	LTP250	ltpFR2	14	2	TEMPLE	1448	n/a	n/a	0	0	0
376805	REC_WORD	wordpools/wasnorm_wordpool_576.txt	LTP250	ltpFR2	14	2	BUGGY	188	n/a	n/a	0	0	0
377455	REC_WORD	wordpools/wasnorm_wordpool_576.txt	LTP250	ltpFR2	14	2	DRESS	495	n/a	n/a	0	0	0
378165	REC_WORD	wordpools/wasnorm_wordpool_576.txt	LTP250	ltpFR2	14	2	OUTFIT	988	n/a	n/a	0	0	0
379638	REC_WORD	wordpools/wasnorm_wordpool_576.txt	LTP250	ltpFR2	14	2	ATOM	55	n/a	n/a	0	0	0
380435	REC_WORD	wordpools/wasnorm_wordpool_576.txt	LTP250	ltpFR2	14	2	NEUTRON	947	n/a	n/a	0	0	0
386244	REC_WORD	wordpools/wasnorm_wordpool_576.txt	LTP250	ltpFR2	14	2	CONVICT	371	n/a	n/a	0	0	0
387319	REC_WORD	wordpools/wasnorm_wordpool_576.txt	LTP250	ltpFR2	14	2	CLIMBER	323	n/a	n/a	0	0	0
390140	REC_WORD	wordpools/wasnorm_wordpool_576.txt	LTP250	ltpFR2	14	2	PLAYGROUND	1087	n/a	n/a	0	0	0
390993	REC_WORD	wordpools/wasnorm_wordpool_576.txt	LTP250	ltpFR2	14	2	SLIDE	1326	n/a	n/a	0	0	0
462253	WORD	wordpools/wasnorm_wordpool_576.txt	LTP250	ltpFR2	14	3	BADGE	68	n/a	n/a	0	0	0
464740	WORD	wordpools/wasnorm_wordpool_576.txt	LTP250	ltpFR2	14	3	CANAL	226	n/a	n/a	0	0	0
467441	WORD	wordpools/wasnorm_wordpool_576.txt	LTP250	ltpFR2	14	3	HATCHET	691	n/a	n/a	0	0	0
470193	WORD	wordpools/wasnorm_wordpool_576.txt	LTP250	ltpFR2	14	3	STONE	1385	n/a	n/a	0	0	0
472713	WORD	wordpools/wasnorm_wordpool_576.txt	LTP250	ltpFR2	14	3	BRANCH	168	n/a	n/a	0	0	0
475415	WORD	wordpools/wasnorm_wordpool_576.txt	LTP250	ltpFR2	14	3	NIGHTGOWN	953	n/a	n/a	0	0	0
477918	WORD	wordpools/wasnorm_wordpool_576.txt	LTP250	ltpFR2	14	3	PEBBLE	1035	n/a	n/a	0	0	0
480637	WORD	wordpools/wasnorm_wordpool_576.txt	LTP250	ltpFR2	14	3	HEART	697	n/a	n/a	0	0	0
483288	WORD	wordpools/wasnorm_wordpool_576.txt	LTP250	ltpFR2	14	3	PARROT	1015	n/a	n/a	0	0	0
486074	WORD	wordpools/wasnorm_wordpool_576.txt	LTP250	ltpFR2	14	3	BACKBONE	66	n/a	n/a	0	0	0
488727	WORD	wordpools/wasnorm_wordpool_576.txt	LTP250	ltpFR2	14	3	LUMBER	848	n/a	n/a	0	0	0
491445	WORD	wordpools/wasnorm_wordpool_576.txt	LTP250	ltpFR2	14	3	RABBIT	1152	n/a	n/a	0	0	0
494131	WORD	wordpools/wasnorm_wordpool_576.txt	LTP250	ltpFR2	14	3	CLAMP	316	n/a	n/a	0	0	0
496935	WORD	wordpools/wasnorm_wordpool_576.txt	LTP250	ltpFR2	14	3	LEADER	807	n/a	n/a	0	0	0
499386	WORD	wordpools/wasnorm_wordpool_576.txt	LTP250	ltpFR2	14	3	WORKER	1621	n/a	n/a	0	0	0
502071	WORD	wordpools/wasnorm_wordpool_576.txt	LTP250	ltpFR2	14	3	HEADBAND	696	n/a	n/a	0	0	0
504891	WORD	wordpools/wasnorm_wordpool_576.txt	LTP250	ltpFR2	14	3	BUBBLE	183	n/a	n/a	0	0	0
507644	WORD	wordpools/wasnorm_wordpool_576.txt	LTP250	ltpFR2	14	3	BATHTUB	100	n/a	n/a	0	0	0
510445	WORD	wordpools/wasnorm_wordpool_576.txt	LTP250	ltpFR2	14	3	KITCHEN	778	n/a	n/a	0	0	0
513248	WORD	wordpools/wasnorm_wordpool_576.txt	LTP250	ltpFR2	14	3	COOK	372	n/a	n/a	0	0	0
515983	WORD	wordpools/wasnorm_wordpool_576.txt	LTP250	ltpFR2	14	3	CREVICE	405	n/a	n/a	0	0	0
518452	WORD	wordpools/wasnorm_wordpool_576.txt	LTP250	ltpFR2	14	3	SHELF	1280	n/a	n/a	0	0	0
521205	WORD	wordpools/wasnorm_wordpool_576.txt	LTP250	ltpFR2	14	3	BASEMENT	94	n/a	n/a	0	0	0
523875	WORD	wordpools/wasnorm_wordpool_576.txt	LTP250	ltpFR2	14	3	TORTOISE	1486	n/a	n/a	0	0	0
525492	START	n/a	LTP250	ltpFR2	14	n/a	n/a	n/a	5	n/a	n/a	n/a	n/a
526471	DISTRACTOR	n/a	LTP250	ltpFR2	14	3	n/a	n/a	n/a	n/a	0	0	0
526493	PROB	n/a	LTP250	ltpFR2	14	n/a	n/a	n/a	5	13	8	3	2
528862	PROB	n/a	LTP250	ltpFR2	14	n/a	n/a	n/a	5	10	3	2	5
530664	PROB	n/a	LTP250	ltpFR2	14	n/a	n/a	n/a	5	19	6	8	5
533465	PROB	n/a	LTP250	ltpFR2	14	n/a	n/a	n/a	5	19	5	6	8
536636	PROB	n/a	LTP250	ltpFR2	14	n/a	n/a	n/a	5	12	8	3	1
538136	PROB	n/a	LTP250	ltpFR2	14	n/a	n/a	n/a	5	22	7	6	9
544575	PROB	n/a	LTP250	ltpFR2	14	n/a	n/a	n/a	5	15	7	5	3
546778	PROB	n/a	LTP250	ltpFR2	14	n/a	n/a	n/a	5	17	7	1	9
548362	STOP	n/a	LTP250	ltpFR2	14	n/a	n/a	n/a	5	n/a	n/a	n/a	n/a
551315	REC_START	n/a	LTP250	ltpFR2	14	3	n/a	n/a	n/a	n/a	0	0	0
552066	REC_WORD	wordpools/wasnorm_wordpool_576.txt	LTP250	ltpFR2	14	3	BATHTUB	100	n/a	n/a	0	0	0
552976	REC_WORD	wordpools/wasnorm_wordpool_576.txt	LTP250	ltpFR2	14	3	TORTOISE	1486	n/a	n/a	0	0	0
553954	REC_WORD	wordpools/wasnorm_wordpool_576.txt	LTP250	ltpFR2	14	3	SHELF	1280	n/a	n/a	0	0	0
556355	REC_WORD	wordpools/wasnorm_wordpool_576.txt	LTP250	ltpFR2	14	3	PEBBLE	1035	n/a	n/a	0	0	0
557025	REC_WORD	wordpools/wasnorm_wordpool_576.txt	LTP250	ltpFR2	14	3	HEART	697	n/a	n/a	0	0	0
557791	REC_WORD	wordpools/wasnorm_wordpool_576.txt	LTP250	ltpFR2	14	3	BACKBONE	66	n/a	n/a	0	0	0
558525	REC_WORD	wordpools/wasnorm_wordpool_576.txt	LTP250	ltpFR2	14	3	LUMBER	848	n/a	n/a	0	0	0
560500	REC_WORD	wordpools/wasnorm_wordpool_576.txt	LTP250	ltpFR2	14	3	BUNNY	198	n/a	n/a	0	0	0
641944	DISTRACTOR	n/a	LTP250	ltpFR2	14	4	n/a	n/a	n/a	n/a	0	0	0
641944	START	n/a	LTP250	ltpFR2	14	n/a	n/a	n/a	6	n/a	n/a	n/a	n/a
641977	PROB	n/a	LTP250	ltpFR2	14	n/a	n/a	n/a	6	9	5	2	2
644028	PROB	n/a	LTP250	ltpFR2	14	n/a	n/a	n/a	6	10	3	1	6
645547	PROB	n/a	LTP250	ltpFR2	14	n/a	n/a	n/a	6	14	4	2	8
646998	PROB	n/a	LTP250	ltpFR2	14	n/a	n/a	n/a	6	18	4	5	9
648967	PROB	n/a	LTP250	ltpFR2	14	n/a	n/a	n/a	6	15	3	3	9
650969	PROB	n/a	LTP250	ltpFR2	14	n/a	n/a	n/a	6	14	8	3	3
654087	PROB	n/a	LTP250	ltpFR2	14	n/a	n/a	n/a	6	7	1	1	5
656039	PROB	n/a	LTP250	ltpFR2	14	n/a	n/a	n/a	6	13	5	3	5
657925	PROB	n/a	LTP250	ltpFR2	14	n/a	n/a	n/a	6	15	7	7	1
659509	PROB	n/a	LTP250	ltpFR2	14	n/a	n/a	n/a	6	8	5	1	2
661745	PROB	n/a	LTP250	ltpFR2	14	n/a	n/a	n/a	6	24	8	8	8
665944	STOP	n/a	LTP250	ltpFR2	14	n/a	n/a	n/a	6	n/a	n/a	n/a	n/a
666766	WORD	wordpools/wasnorm_wordpool_576.txt	LTP250	ltpFR2	14	4	FREEZER	604	n/a	n/a	0	0	0
669267	WORD	wordpools/wasnorm_wordpool_576.txt	LTP250	ltpFR2	14	4	BURGLAR	200	n/a	n/a	0	0	0
671986	WORD	wordpools/wasnorm_wordpool_576.txt	LTP250	ltpFR2	14	4	SUSPECT	1415	n/a	n/a	0	0	0
674773	WORD	wordpools/wasnorm_wordpool_576.txt	LTP250	ltpFR2	14	4	SNAIL	1332	n/a	n/a	0	0	0
677241	WORD	wordpools/wasnorm_wordpool_576.txt	LTP250	ltpFR2	14	4	MASK	876	n/a	n/a	0	0	0
679927	WORD	wordpools/wasnorm_wordpool_576.txt	LTP250	ltpFR2	14	4	TROUT	1511	n/a	n/a	0	0	0
682713	WORD	wordpools/wasnorm_wordpool_576.txt	LTP250	ltpFR2	14	4	CHURCH	307	n/a	n/a	0	0	0
685248	WORD	wordpools/wasnorm_wordpool_576.txt	LTP250	ltpFR2	14	4	FOREHEAD	592	n/a	n/a	0	0	0
688033	WORD	wordpools/wasnorm_wordpool_576.txt	LTP250	ltpFR2	14	4	GUARD	667	n/a	n/a	0	0	0
690587	WORD	wordpools/wasnorm_wordpool_576.txt	LTP250	ltpFR2	14	4	BANJO	82	n/a	n/a	0	0	0
693088	WORD	wordpools/wasnorm_wordpool_576.txt	LTP250	ltpFR2	14	4	FIREMAN	569	n/a	n/a	0	0	0
695891	WORD	wordpools/wasnorm_wordpool_576.txt	LTP250	ltpFR2	14	4	COSTUME	383	n/a	n/a	0	0	0
698509	WORD	wordpools/wasnorm_wordpool_576.txt	LTP250	ltpFR2	14	4	PIMPLE	1071	n/a	n/a	0	0	0
701162	WORD	wordpools/wasnorm_wordpool_576.txt	LTP250	ltpFR2	14	4	FINGER	567	n/a	n/a	0	0	0
703915	WORD	wordpools/wasnorm_wordpool_576.txt	LTP250	ltpFR2	14	4	DRAGON	492	n/a	n/a	0	0	0
706433	WORD	wordpools/wasnorm_wordpool_576.txt	LTP250	ltpFR2	14	4	PERMIT	1051	n/a	n/a	0	0	0
709169	WORD	wordpools/wasnorm_wordpool_576.txt	LTP250	ltpFR2	14	4	GRIZZLY	662	n/a	n/a	0	0	0
711655	WORD	wordpools/wasnorm_wordpool_576.txt	LTP250	ltpFR2	14	4	CRAB	397	n/a	n/a	0	0	0
714356	WORD	wordpools/wasnorm_wordpool_576.txt	LTP250	ltpFR2	14	4	CELLAR	267	n/a	n/a	0	0	0
717159	WORD	wordpools/wasnorm_wordpool_576.txt	LTP250	ltpFR2	14	4	COUNTRY	388	n/a	n/a	0	0	0
719812	WORD	wordpools/wasnorm_wordpool_576.txt	LTP250	ltpFR2	14	4	PERFUME	1049	n/a	n/a	0	0	0
722297	WORD	wordpools/wasnorm_wordpool_576.txt	LTP250	ltpFR2	14	4	FRAGRANCE	599	n/a	n/a	0	0	0
724900	WORD	wordpools/wasnorm_wordpool_576.txt	LTP250	ltpFR2	14	4	FILM	565	n/a	n/a	0	0	0
727401	WORD	wordpools/wasnorm_wordpool_576.txt	LTP250	ltpFR2	14	4	INFANT	737	n/a	n/a	0	0	0
729019	START	n/a	LTP250	ltpFR2	14	n/a	n/a	n/a	7	n/a	n/a	n/a	n/a
730215	DISTRACTOR	n/a	LTP250	ltpFR2	14	4	n/a	n/a	n/a	n/a	0	0	0
730237	PROB	n/a	LTP250	ltpFR2	14	n/a	n/a	n/a	7	13	5	6	2
734341	PROB	n/a	LTP250	ltpFR2	14	n/a	n/a	n/a	7	13	3	5	5
735893	PROB	n/a	LTP250	ltpFR2	14	n/a	n/a	n/a	7	8	5	1	2
737878	PROB	n/a	LTP250	ltpFR2	14	n/a	n/a	n/a	7	20	6	5	9
740079	PROB	n/a	LTP250	ltpFR2	14	n/a	n/a	n/a	7	11	2	4	5
747986	PROB	n/a	LTP250	ltpFR2	14	n/a	n/a	n/a	7	20	5	8	7
750404	PROB	n/a	LTP250	ltpFR2	14	n/a	n/a	n/a	7	20	7	6	7
752466	STOP	n/a	LTP250	ltpFR2	14	n/a	n/a	n/a	7	n/a	n/a	n/a	n/a
754893	REC_START	n/a	LTP250	ltpFR2	14	4	n/a	n/a	n/a	n/a	0	0	0
758708	REC_WORD	wordpools/wasnorm_wordpool_576.txt	LTP250	ltpFR2	14	4	INFANT	737	n/a	n/a	0	0	0
759397	REC_WORD	wordpools/wasnorm_wordpool_576.txt	LTP250	ltpFR2	14	4	FRAGRANT	-1	n/a	n/a	0	0	0
760231	REC_WORD	wordpools/wasnorm_wordpool_576.txt	LTP250	ltpFR2	14	4	FIELD	562	n/a	n/a	0	0	0
767014	REC_WORD	wordpools/wasnorm_wordpool_576.txt	LTP250	ltpFR2	14	4	CHURCH	307	n/a	n/a	0	0	0
771128	REC_WORD	wordpools/wasnorm_wordpool_576.txt	LTP250	ltpFR2	14	4	GROUND	666	n/a	n/a	0	0	0
845537	DISTRACTOR	n/a	LTP250	ltpFR2	14	5	n/a	n/a	n/a	n/a	0	0	0
845538	START	n/a	LTP250	ltpFR2	14	n/a	n/a	n/a	8	n/a	n/a	n/a	n/a
845571	PROB	n/a	LTP250	ltpFR2	14	n/a	n/a	n/a	8	20	9	5	6
848106	PROB	n/a	LTP250	ltpFR2	14	n/a	n/a	n/a	8	16	2	5	9
851026	PROB	n/a	LTP250	ltpFR2	14	n/a	n/a	n/a	8	11	2	8	1
852678	PROB	n/a	LTP250	ltpFR2	14	n/a	n/a	n/a	8	19	9	9	1
869538	STOP	n/a	LTP250	ltpFR2	14	n/a	n/a	n/a	8	n/a	n/a	n/a	n/a
870610	WORD	wordpools/wasnorm_wordpool_576.txt	LTP250	ltpFR2	14	5	IDOL	733	n/a	n/a	0	0	0
873262	WORD	wordpools/wasnorm_wordpool_576.txt	LTP250	ltpFR2	14	5	TRACTOR	1493	n/a	n/a	0	0	0
876031	WORD	wordpools/wasnorm_wordpool_576.txt	LTP250	ltpFR2	14	5	SCRIBBLE	1256	n/a	n/a	0	0	0
878734	WORD	wordpools/wasnorm_wordpool_576.txt	LTP250	ltpFR2	14	5	MOTEL	919	n/a	n/a	0	0	0
881352	WORD	wordpools/wasnorm_wordpool_576.txt	LTP250	ltpFR2	14	5	SPOOL	1356	n/a	n/a	0	0	0
883955	WORD	wordpools/wasnorm_wordpool_576.txt	LTP250	ltpFR2	14	5	SLOPE	1328	n/a	n/a	0	0	0
886440	WORD	wordpools/wasnorm_wordpool_576.txt	LTP250	ltpFR2	14	5	WARDROBE	1587	n/a	n/a	0	0	0
888992	WORD	wordpools/wasnorm_wordpool_576.txt	LTP250	ltpFR2	14	5	COCKTAIL	338	n/a	n/a	0	0	0
891629	WORD	wordpools/wasnorm_wordpool_576.txt	LTP250	ltpFR2	14	5	FLASK	576	n/a	n/a	0	0	0
894397	WORD	wordpools/wasnorm_wordpool_576.txt	LTP250	ltpFR2	14	5	HERO	706	n/a	n/a	0	0	0
897032	WORD	wordpools/wasnorm_wordpool_576.txt	LTP250	ltpFR2	14	5	POISON	1096	n/a	n/a	0	0	0
899451	WORD	wordpools/wasnorm_wordpool_576.txt	LTP250	ltpFR2	14	5	SNAKE	1333	n/a	n/a	0	0	0
901970	WORD	wordpools/wasnorm_wordpool_576.txt	LTP250	ltpFR2	14	5	LASER	801	n/a	n/a	0	0	0
904422	WORD	wordpools/wasnorm_wordpool_576.txt	LTP250	ltpFR2	14	5	STAPLE	1371	n/a	n/a	0	0	0
906991	WORD	wordpools/wasnorm_wordpool_576.txt	LTP250	ltpFR2	14	5	DAUGHTER	442	n/a	n/a	0	0	0
909510	WORD	wordpools/wasnorm_wordpool_576.txt	LTP250	ltpFR2	14	5	BIKE	125	n/a	n/a	0	0	0
912312	WORD	wordpools/wasnorm_wordpool_576.txt	LTP250	ltpFR2	14	5	LEG	809	n/a	n/a	0	0	0
915015	WORD	wordpools/wasnorm_wordpool_576.txt	LTP250	ltpFR2	14	5	SISTER	1312	n/a	n/a	0	0	0
917533	WORD	wordpools/wasnorm_wordpool_576.txt	LTP250	ltpFR2	14	5	WASHER	1592	n/a	n/a	0	0	0
920169	WORD	wordpools/wasnorm_wordpool_576.txt	LTP250	ltpFR2	14	5	CATTLE	261	n/a	n/a	0	0	0
922889	WORD	wordpools/wasnorm_wordpool_576.txt	LTP250	ltpFR2	14	5	MISTER	901	n/a	n/a	0	0	0
925708	WORD	wordpools/wasnorm_wordpool_576.txt	LTP250	ltpFR2	14	5	JELLY	755	n/a	n/a	0	0	0
928477	WORD	wordpools/wasnorm_wordpool_576.txt	LTP250	ltpFR2	14	5	CEILING	265	n/a	n/a	0	0	0
930995	WORD	wordpools/wasnorm_wordpool_576.txt	LTP250	ltpFR2	14	5	ARM	38	n/a	n/a	0	0	0
932614	START	n/a	LTP250	ltpFR2	14	n/a	n/a	n/a	9	n/a	n/a	n/a	n/a
933517	DISTRACTOR	n/a	LTP250	ltpFR2	14	5	n/a	n/a	n/a	n/a	0	0	0
933531	PROB	n/a	LTP250	ltpFR2	14	n/a	n/a	n/a	9	19	8	3	8
936283	PROB	n/a	LTP250	ltpFR2	14	n/a	n/a	n/a	9	17	4	5	8
939754	PROB	n/a	LTP250	ltpFR2	14	n/a	n/a	n/a	9	14	9	2	3
942238	PROB	n/a	LTP250	ltpFR2	14	n/a	n/a	n/a	9	17	6	8	3
945158	PROB	n/a	LTP250	ltpFR2	14	n/a	n/a	n/a	9	21	6	9	6
947627	PROB	n/a	LTP250	ltpFR2	14	n/a	n/a	n/a	9	21	9	3	9
950747	PROB	n/a	LTP250	ltpFR2	14	n/a	n/a	n/a	9	15	2	7	6
953065	PROB	n/a	LTP250	ltpFR2	14	n/a	n/a	n/a	9	21	8	5	8
955210	STOP	n/a	LTP250	ltpFR2	14	n/a	n/a	n/a	9	n/a	n/a	n/a	n/a
958536	REC_START	n/a	LTP250	ltpFR2	14	5	n/a	n/a	n/a	n/a	0	0	0
959386	REC_WORD	wordpools/wasnorm_wordpool_576.txt	LTP250	ltpFR2	14	5	CEILING	265	n/a	n/a	0	0	0
960111	REC_WORD	wordpools/wasnorm_wordpool_576.txt	LTP250	ltpFR2	14	5	ARM	38	n/a	n/a	0	0	0
960712	REC_WORD	wordpools/wasnorm_wordpool_576.txt	LTP250	ltpFR2	14	5	JELLY	755	n/a	n/a	0	0	0
961382	REC_WORD	wordpools/wasnorm_wordpool_576.txt	LTP250	ltpFR2	14	5	LEG	809	n/a	n/a	0	0	0
963909	REC_WORD	wordpools/wasnorm_wordpool_576.txt	LTP250	ltpFR2	14	5	CYCLE	-1	n/a	n/a	0	0	0
975823	REC_WORD	wordpools/wasnorm_wordpool_576.txt	LTP250	ltpFR2	14	5	GORILLA	650	n/a	n/a	0	0	0
1049165	DISTRACTOR	n/a	LTP250	ltpFR2	14	6	n/a	n/a	n/a	n/a	0	0	0
1049165	START	n/a	LTP250	ltpFR2	14	n/a	n/a	n/a	10	n/a	n/a	n/a	n/a
1049198	PROB	n/a	LTP250	ltpFR2	14	n/a	n/a	n/a	10	16	5	9	2
1052886	PROB	n/a	LTP250	ltpFR2	14	n/a	n/a	n/a	10	11	2	7	2
1055320	PROB	n/a	LTP250	ltpFR2	14	n/a	n/a	n/a	10	15	6	8	1
1058641	PROB	n/a	LTP250	ltpFR2	14	n/a	n/a	n/a	10	9	2	1	6
1060659	PROB	n/a	LTP250	ltpFR2	14	n/a	n/a	n/a	10	14	8	5	1
1067331	PROB	n/a	LTP250	ltpFR2	14	n/a	n/a	n/a	10	17	5	9	3
1073165	STOP	n/a	LTP250	ltpFR2	14	n/a	n/a	n/a	10	n/a	n/a	n/a	n/a
1074070	WORD	wordpools/wasnorm_wordpool_576.txt	LTP250	ltpFR2	14	6	WRIST	1626	n/a	n/a	0	0	0
1076723	WORD	wordpools/wasnorm_wordpool_576.txt	LTP250	ltpFR2	14	6	MOTOR	922	n/a	n/a	0	0	0
1079291	WORD	wordpools/wasnorm_wordpool_576.txt	LTP250	ltpFR2	14	6	SLUG	1329	n/a	n/a	0	0	0
1081778	WORD	wordpools/wasnorm_wordpool_576.txt	LTP250	ltpFR2	14	6	LIZARD	834	n/a	n/a	0	0	0
1084479	WORD	wordpools/wasnorm_wordpool_576.txt	LTP250	ltpFR2	14	6	CHAPEL	280	n/a	n/a	0	0	0
1087281	WORD	wordpools/wasnorm_wordpool_576.txt	LTP250	ltpFR2	14	6	BANQUET	86	n/a	n/a	0	0	0
1089951	WORD	wordpools/wasnorm_wordpool_576.txt	LTP250	ltpFR2	14	6	WAITRESS	1581	n/a	n/a	0	0	0
1092536	WORD	wordpools/wasnorm_wordpool_576.txt	LTP250	ltpFR2	14	6	BOX	159	n/a	n/a	0	0	0
1095222	WORD	wordpools/wasnorm_wordpool_576.txt	LTP250	ltpFR2	14	6	HANDBAG	684	n/a	n/a	0	0	0
1097842	WORD	wordpools/wasnorm_wordpool_576.txt	LTP250	ltpFR2	14	6	CAMEL	223	n/a	n/a	0	0	0
1100526	WORD	wordpools/wasnorm_wordpool_576.txt	LTP250	ltpFR2	14	6	CIGAR	308	n/a	n/a	0	0	0
1103095	WORD	wordpools/wasnorm_wordpool_576.txt	LTP250	ltpFR2	14	6	WAGON	1578	n/a	n/a	0	0	0
1105547	WORD	wordpools/wasnorm_wordpool_576.txt	LTP250	ltpFR2	14	6	LOVER	846	n/a	n/a	0	0	0
1108166	WORD	wordpools/wasnorm_wordpool_576.txt	LTP250	ltpFR2	14	6	DASHBOARD	441	n/a	n/a	0	0	0
1110603	WORD	wordpools/wasnorm_wordpool_576.txt	LTP250	ltpFR2	14	6	ITEM	746	n/a	n/a	0	0	0
1113404	WORD	wordpools/wasnorm_wordpool_576.txt	LTP250	ltpFR2	14	6	HOOD	714	n/a	n/a	0	0	0
1116140	WORD	wordpools/wasnorm_wordpool_576.txt	LTP250	ltpFR2	14	6	PARTNER	1017	n/a	n/a	0	0	0
1118593	WORD	wordpools/wasnorm_wordpool_576.txt	LTP250	ltpFR2	14	6	CONTRACT	368	n/a	n/a	0	0	0
1121178	WORD	wordpools/wasnorm_wordpool_576.txt	LTP250	ltpFR2	14	6	SADDLE	1221	n/a	n/a	0	0	0
1123814	WORD	wordpools/wasnorm_wordpool_576.txt	LTP250	ltpFR2	14	6	SPOUSE	1358	n/a	n/a	0	0	0
1126650	WORD	wordpools/wasnorm_wordpool_576.txt	LTP250	ltpFR2	14	6	BEAVER	109	n/a	n/a	0	0	0
1129251	WORD	wordpools/wasnorm_wordpool_576.txt	LTP250	ltpFR2	14	6	CHEMIST	292	n/a	n/a	0	0	0
1131888	WORD	wordpools/wasnorm_wordpool_576.txt	LTP250	ltpFR2	14	6	SUITCASE	1403	n/a	n/a	0	0	0
1134657	WORD	wordpools/wasnorm_wordpool_576.txt	LTP250	ltpFR2	14	6	UNCLE	1536	n/a	n/a	0	0	0
1136274	START	n/a	LTP250	ltpFR2	14	n/a	n/a	n/a	11	n/a	n/a	n/a	n/a
1137468	DISTRACTOR	n/a	LTP250	ltpFR2	14	6	n/a	n/a	n/a	n/a	0	0	0
1137475	PROB	n/a	LTP250	ltpFR2	14	n/a	n/a	n/a	11	13	2	6	5
1140762	PROB	n/a	LTP250	ltpFR2	14	n/a	n/a	n/a	11	5	1	3	1
1142296	PROB	n/a	LTP250	ltpFR2	14	n/a	n/a	n/a	11	12	2	3	7
1143899	PROB	n/a	LTP250	ltpFR2	14	n/a	n/a	n/a	11	16	8	4	4
1146250	PROB	n/a	LTP250	ltpFR2	14	n/a	n/a	n/a	11	16	6	1	9
1148134	PROB	n/a	LTP250	ltpFR2	14	n/a	n/a	n/a	11	14	4	5	5
1149720	PROB	n/a	LTP250	ltpFR2	14	n/a	n/a	n/a	11	9	2	6	1
1151705	PROB	n/a	LTP250	ltpFR2	14	n/a	n/a	n/a	11	22	6	9	7
1153640	PROB	n/a	LTP250	ltpFR2	14	n/a	n/a	n/a	11	9	3	5	1
1155975	PROB	n/a	LTP250	ltpFR2	14	n/a	n/a	n/a	11	17	8	4	5
1160273	STOP	n/a	LTP250	ltpFR2	14	n/a	n/a	n/a	11	n/a	n/a	n/a	n/a
1162048	REC_START	n/a	LTP250	ltpFR2	14	6	n/a	n/a	n/a	n/a	0	0	0
1162849	REC_WORD	wordpools/wasnorm_wordpool_576.txt	LTP250	ltpFR2	14	6	CONVICT	371	n/a	n/a	0	0	0
1163580	REC_WORD	wordpools/wasnorm_wordpool_576.txt	LTP250	ltpFR2	14	6	SPOUSE	1358	n/a	n/a	0	0	0
1164479	REC_WORD	wordpools/wasnorm_wordpool_576.txt	LTP250	ltpFR2	14	6	BEAVER	109	n/a	n/a	0	0	0
1165245	REC_WORD	wordpools/wasnorm_wordpool_576.txt	LTP250	ltpFR2	14	6	UNCLE	1536	n/a	n/a	0	0	0
1166549	REC_WORD	wordpools/wasnorm_wordpool_576.txt	LTP250	ltpFR2	14	6	CHEMIST	292	n/a	n/a	0	0	0
1175411	REC_WORD	wordpools/wasnorm_wordpool_576.txt	LTP250	ltpFR2	14	6	RANCH	1166	n/a	n/a	0	0	0
1180876	REC_WORD	wordpools/wasnorm_wordpool_576.txt	LTP250	ltpFR2	14	6	LOVER	846	n/a	n/a	0	0	0
1252610	WORD	wordpools/wasnorm_wordpool_576.txt	LTP250	ltpFR2	14	7	RAZOR	1171	n/a	n/a	0	0	0
1255211	WORD	wordpools/wasnorm_wordpool_576.txt	LTP250	ltpFR2	14	7	IGLOO	734	n/a	n/a	0	0	0
1257731	WORD	wordpools/wasnorm_wordpool_576.txt	LTP250	ltpFR2	14	7	KLEENEX	782	n/a	n/a	0	0	0
1260399	WORD	wordpools/wasnorm_wordpool_576.txt	LTP250	ltpFR2	14	7	CONVICT	371	n/a	n/a	0	0	0
1262936	WORD	wordpools/wasnorm_wordpool_576.txt	LTP250	ltpFR2	14	7	KNIFE	785	n/a	n/a	0	0	0
1265738	WORD	wordpools/wasnorm_wordpool_576.txt	LTP250	ltpFR2	14	7	SHOVEL	1295	n/a	n/a	0	0	0
1268306	WORD	wordpools/wasnorm_wordpool_576.txt	LTP250	ltpFR2	14	7	FARMER	553	n/a	n/a	0	0	0
1270893	WORD	wordpools/wasnorm_wordpool_576.txt	LTP250	ltpFR2	14	7	FLAG	573	n/a	n/a	0	0	0
1273327	WORD	wordpools/wasnorm_wordpool_576.txt	LTP250	ltpFR2	14	7	MISSILE	900	n/a	n/a	0	0	0
1275947	WORD	wordpools/wasnorm_wordpool_576.txt	LTP250	ltpFR2	14	7	CATCHER	258	n/a	n/a	0	0	0
1278599	WORD	wordpools/wasnorm_wordpool_576.txt	LTP250	ltpFR2	14	7	REBEL	1172	n/a	n/a	0	0	0
1281417	WORD	wordpools/wasnorm_wordpool_576.txt	LTP250	ltpFR2	14	7	HONEY	713	n/a	n/a	0	0	0
1283986	WORD	wordpools/wasnorm_wordpool_576.txt	LTP250	ltpFR2	14	7	COIN	343	n/a	n/a	0	0	0
1286756	WORD	wordpools/wasnorm_wordpool_576.txt	LTP250	ltpFR2	14	7	CAPTIVE	240	n/a	n/a	0	0	0
1289241	WORD	wordpools/wasnorm_wordpool_576.txt	LTP250	ltpFR2	14	7	WAITER	1580	n/a	n/a	0	0	0
1291777	WORD	wordpools/wasnorm_wordpool_576.txt	LTP250	ltpFR2	14	7	COOKBOOK	373	n/a	n/a	0	0	0
1294345	WORD	wordpools/wasnorm_wordpool_576.txt	LTP250	ltpFR2	14	7	TUTU	1524	n/a	n/a	0	0	0
1296798	WORD	wordpools/wasnorm_wordpool_576.txt	LTP250	ltpFR2	14	7	TRENCH	1503	n/a	n/a	0	0	0
1299550	WORD	wordpools/wasnorm_wordpool_576.txt	LTP250	ltpFR2	14	7	WHISTLE	1606	n/a	n/a	0	0	0
1302119	WORD	wordpools/wasnorm_wordpool_576.txt	LTP250	ltpFR2	14	7	MARKET	871	n/a	n/a	0	0	0
1304739	WORD	wordpools/wasnorm_wordpool_576.txt	LTP250	ltpFR2	14	7	TREAT	1501	n/a	n/a	0	0	0
1307390	WORD	wordpools/wasnorm_wordpool_576.txt	LTP250	ltpFR2	14	7	CANDY	230	n/a	n/a	0	0	0
1310026	WORD	wordpools/wasnorm_wordpool_576.txt	LTP250	ltpFR2	14	7	ROCKET	1202	n/a	n/a	0	0	0
1312712	WORD	wordpools/wasnorm_wordpool_576.txt	LTP250	ltpFR2	14	7	PUDDLE	1140	n/a	n/a	0	0	0
1314330	START	n/a	LTP250	ltpFR2	14	n/a	n/a	n/a	12	n/a	n/a	n/a	n/a
1315497	DISTRACTOR	n/a	LTP250	ltpFR2	14	7	n/a	n/a	n/a	n/a	0	0	0
1315514	PROB	n/a	LTP250	ltpFR2	14	n/a	n/a	n/a	12	15	7	2	6
1318818	PROB	n/a	LTP250	ltpFR2	14	n/a	n/a	n/a	12	15	9	5	1
1320385	PROB	n/a	LTP250	ltpFR2	14	n/a	n/a	n/a	12	22	6	9	7
1323287	PROB	n/a	LTP250	ltpFR2	14	n/a	n/a	n/a	12	14	4	2	8
1324873	PROB	n/a	LTP250	ltpFR2	14	n/a	n/a	n/a	12	6	1	3	2
1327124	PROB	n/a	LTP250	ltpFR2	14	n/a	n/a	n/a	12	17	9	4	4
1330210	PROB	n/a	LTP250	ltpFR2	14	n/a	n/a	n/a	12	18	8	5	5
1332162	PROB	n/a	LTP250	ltpFR2	14	n/a	n/a	n/a	12	16	3	7	6
1333814	PROB	n/a	LTP250	ltpFR2	14	n/a	n/a	n/a	12	11	2	2	7
1338330	STOP	n/a	LTP250	ltpFR2	14	n/a	n/a	n/a	12	n/a	n/a	n/a	n/a
1340220	REC_START	n/a	LTP250	ltpFR2	14	7	n/a	n/a	n/a	n/a	0	0	0
1342586	REC_WORD	wordpools/wasnorm_wordpool_576.txt	LTP250	ltpFR2	14	7	WHISTLE	1606	n/a	n/a	0	0	0
1343168	REC_WORD	wordpools/wasnorm_wordpool_576.txt	LTP250	ltpFR2	14	7	TRENCH	1503	n/a	n/a	0	0	0
1348348	REC_WORD	wordpools/wasnorm_wordpool_576.txt	LTP250	ltpFR2	14	7	CAPTIVE	240	n/a	n/a	0	0	0
1351158	REC_WORD	wordpools/wasnorm_wordpool_576.txt	LTP250	ltpFR2	14	7	TREAT	1501	n/a	n/a	0	0	0
1430682	WORD	wordpools/wasnorm_wordpool_576.txt	LTP250	ltpFR2	14	8	SCARECROW	1245	n/a	n/a	0	0	0
1433266	WORD	wordpools/wasnorm_wordpool_576.txt	LTP250	ltpFR2	14	8	TWIG	1527	n/a	n/a	0	0	0
1435853	WORD	wordpools/wasnorm_wordpool_576.txt	LTP250	ltpFR2	14	8	PRIMATE	1123	n/a	n/a	0	0	0
1438639	WORD	wordpools/wasnorm_wordpool_576.txt	LTP250	ltpFR2	14	8	SCOTCH	1251	n/a	n/a	0	0	0
1441090	WORD	wordpools/wasnorm_wordpool_576.txt	LTP250	ltpFR2	14	8	ORANGE	980	n/a	n/a	0	0	0
1443827	WORD	wordpools/wasnorm_wordpool_576.txt	LTP250	ltpFR2	14	8	PASTA	1021	n/a	n/a	0	0	0
1446311	WORD	wordpools/wasnorm_wordpool_576.txt	LTP250	ltpFR2	14	8	CROWN	415	n/a	n/a	0	0	0
1449064	WORD	wordpools/wasnorm_wordpool_576.txt	LTP250	ltpFR2	14	8	COD	340	n/a	n/a	0	0	0
1451784	WORD	wordpools/wasnorm_wordpool_576.txt	LTP250	ltpFR2	14	8	BINDER	127	n/a	n/a	0	0	0
1454318	WORD	wordpools/wasnorm_wordpool_576.txt	LTP250	ltpFR2	14	8	REPORT	1184	n/a	n/a	0	0	0
1456971	WORD	wordpools/wasnorm_wordpool_576.txt	LTP250	ltpFR2	14	8	CASHIER	254	n/a	n/a	0	0	0
1459506	WORD	wordpools/wasnorm_wordpool_576.txt	LTP250	ltpFR2	14	8	BANKER	84	n/a	n/a	0	0	0
1462125	WORD	wordpools/wasnorm_wordpool_576.txt	LTP250	ltpFR2	14	8	COMPASS	358	n/a	n/a	0	0	0
1464928	WORD	wordpools/wasnorm_wordpool_576.txt	LTP250	ltpFR2	14	8	FOREST	593	n/a	n/a	0	0	0
1467430	WORD	wordpools/wasnorm_wordpool_576.txt	LTP250	ltpFR2	14	8	RELISH	1183	n/a	n/a	0	0	0
1470032	WORD	wordpools/wasnorm_wordpool_576.txt	LTP250	ltpFR2	14	8	PEPPER	1047	n/a	n/a	0	0	0
1472585	WORD	wordpools/wasnorm_wordpool_576.txt	LTP250	ltpFR2	14	8	LIVER	833	n/a	n/a	0	0	0
1475420	WORD	wordpools/wasnorm_wordpool_576.txt	LTP250	ltpFR2	14	8	STUDENT	1395	n/a	n/a	0	0	0
1478172	WORD	wordpools/wasnorm_wordpool_576.txt	LTP250	ltpFR2	14	8	WIFE	1609	n/a	n/a	0	0	0
1480942	WORD	wordpools/wasnorm_wordpool_576.txt	LTP250	ltpFR2	14	8	GANGSTER	620	n/a	n/a	0	0	0
1483645	WORD	wordpools/wasnorm_wordpool_576.txt	LTP250	ltpFR2	14	8	BULLET	194	n/a	n/a	0	0	0
1486129	WORD	wordpools/wasnorm_wordpool_576.txt	LTP250	ltpFR2	14	8	HUSBAND	728	n/a	n/a	0	0	0
1488682	WORD	wordpools/wasnorm_wordpool_576.txt	LTP250	ltpFR2	14	8	COLLEGE	346	n/a	n/a	0	0	0
1491184	WORD	wordpools/wasnorm_wordpool_576.txt	LTP250	ltpFR2	14	8	SANDWICH	1232	n/a	n/a	0	0	0
1492803	START	n/a	LTP250	ltpFR2	14	n/a	n/a	n/a	13	n/a	n/a	n/a	n/a
1493832	DISTRACTOR	n/a	LTP250	ltpFR2	14	8	n/a	n/a	n/a	n/a	0	0	0
1493854	PROB	n/a	LTP250	ltpFR2	14	n/a	n/a	n/a	13	12	4	3	5
1496706	PROB	n/a	LTP250	ltpFR2	14	n/a	n/a	n/a	13	22	7	7	8
1498758	PROB	n/a	LTP250	ltpFR2	14	n/a	n/a	n/a	13	10	3	5	2
1500826	PROB	n/a	LTP250	ltpFR2	14	n/a	n/a	n/a	13	11	6	3	2
1503127	PROB	n/a	LTP250	ltpFR2	14	n/a	n/a	n/a	13	18	8	4	6
1504846	PROB	n/a	LTP250	ltpFR2	14	n/a	n/a	n/a	13	17	9	3	5
1507047	PROB	n/a	LTP250	ltpFR2	14	n/a	n/a	n/a	13	15	8	5	2
1509884	PROB	n/a	LTP250	ltpFR2	14	n/a	n/a	n/a	13	5	3	1	1
1511001	PROB	n/a	LTP250	ltpFR2	14	n/a	n/a	n/a	13	18	7	3	8
1512703	PROB	n/a	LTP250	ltpFR2	14	n/a	n/a	n/a	13	20	6	9	7
1515721	STOP	n/a	LTP250	ltpFR2	14	n/a	n/a	n/a	13	n/a	n/a	n/a	n/a
1518692	REC_START	n/a	LTP250	ltpFR2	14	8	n/a	n/a	n/a	n/a	0	0	0
1519921	REC_WORD	wordpools/wasnorm_wordpool_576.txt	LTP250	ltpFR2	14	8	BINDER	127	n/a	n/a	0	0	0
1520433	REC_WORD	wordpools/wasnorm_wordpool_576.txt	LTP250	ltpFR2	14	8	STUDENT	1395	n/a	n/a	0	0	0
1521057	REC_WORD	wordpools/wasnorm_wordpool_576.txt	LTP250	ltpFR2	14	8	COLLEGE	346	n/a	n/a	0	0	0
1521590	REC_WORD	wordpools/wasnorm_wordpool_576.txt	LTP250	ltpFR2	14	8	REPORT	1184	n/a	n/a	0	0	0
1522492	REC_WORD	wordpools/wasnorm_wordpool_576.txt	LTP250	ltpFR2	14	8	BANKER	84	n/a	n/a	0	0	0
1524608	REC_WORD	wordpools/wasnorm_wordpool_576.txt	LTP250	ltpFR2	14	8	HUSBAND	728	n/a	n/a	0	0	0
1525331	REC_WORD	wordpools/wasnorm_wordpool_576.txt	LTP250	ltpFR2	14	8	WIFE	1609	n/a	n/a	0	0	0
1526237	REC_WORD	wordpools/wasnorm_wordpool_576.txt	LTP250	ltpFR2	14	8	LIVER	833	n/a	n/a	0	0	0
1526754	REC_WORD	wordpools/wasnorm_wordpool_576.txt	LTP250	ltpFR2	14	8	PEPPER	1047	n/a	n/a	0	0	0
1527476	REC_WORD	wordpools/wasnorm_wordpool_576.txt	LTP250	ltpFR2	14	8	RELISH	1183	n/a	n/a	0	0	0
1528115	REC_WORD	wordpools/wasnorm_wordpool_576.txt	LTP250	ltpFR2	14	8	SANDWICH	1232	n/a	n/a	0	0	0
1529685	REC_WORD	wordpools/wasnorm_wordpool_576.txt	LTP250	ltpFR2	14	8	SCARECROW	1245	n/a	n/a	0	0	0
1530851	REC_WORD	wordpools/wasnorm_wordpool_576.txt	LTP250	ltpFR2	14	8	TWIG	1527	n/a	n/a	0	0	0
1531434	REC_WORD	wordpools/wasnorm_wordpool_576.txt	LTP250	ltpFR2	14	8	FOREST	593	n/a	n/a	0	0	0
1595258	REST_REWET	n/a	LTP250	ltpFR2	14	8	n/a	n/a	n/a	n/a	0	0	0
1885210	DISTRACTOR	n/a	LTP250	ltpFR2	14	9	n/a	n/a	n/a	n/a	0	0	0
1885211	START	n/a	LTP250	ltpFR2	14	n/a	n/a	n/a	14	n/a	n/a	n/a	n/a
1885227	PROB	n/a	LTP250	ltpFR2	14	n/a	n/a	n/a	14	16	6	7	3
1887212	PROB	n/a	LTP250	ltpFR2	14	n/a	n/a	n/a	14	22	9	6	7
1890365	PROB	n/a	LTP250	ltpFR2	14	n/a	n/a	n/a	14	13	2	3	8
1891967	PROB	n/a	LTP250	ltpFR2	14	n/a	n/a	n/a	14	12	7	2	3
1894452	PROB	n/a	LTP250	ltpFR2	14	n/a	n/a	n/a	14	18	7	6	3
1897338	PROB	n/a	LTP250	ltpFR2	14	n/a	n/a	n/a	14	23	8	6	9
1900842	PROB	n/a	LTP250	ltpFR2	14	n/a	n/a	n/a	14	15	6	1	8
1904144	PROB	n/a	LTP250	ltpFR2	14	n/a	n/a	n/a	14	11	2	8	1
1906162	PROB	n/a	LTP250	ltpFR2	14	n/a	n/a	n/a	14	17	7	5	5
1907984	STOP	n/a	LTP250	ltpFR2	14	n/a	n/a	n/a	14	n/a	n/a	n/a	n/a
1910232	WORD	wordpools/wasnorm_wordpool_576.txt	LTP250	ltpFR2	14	9	BEAKER	104	n/a	n/a	0	0	0
1913035	WORD	wordpools/wasnorm_wordpool_576.txt	LTP250	ltpFR2	14	9	JUGGLER	763	n/a	n/a	0	0	0
1915838	WORD	wordpools/wasnorm_wordpool_576.txt	LTP250	ltpFR2	14	9	RACKET	1155	n/a	n/a	0	0	0
1918339	WORD	wordpools/wasnorm_wordpool_576.txt	LTP250	ltpFR2	14	9	GUITAR	670	n/a	n/a	0	0	0
1921158	WORD	wordpools/wasnorm_wordpool_576.txt	LTP250	ltpFR2	14	9	SERVER	1272	n/a	n/a	0	0	0
1923762	WORD	wordpools/wasnorm_wordpool_576.txt	LTP250	ltpFR2	14	9	CARROT	249	n/a	n/a	0	0	0
1926446	WORD	wordpools/wasnorm_wordpool_576.txt	LTP250	ltpFR2	14	9	VIRUS	1572	n/a	n/a	0	0	0
1928950	WORD	wordpools/wasnorm_wordpool_576.txt	LTP250	ltpFR2	14	9	DRAWING	494	n/a	n/a	0	0	0
1931534	WORD	wordpools/wasnorm_wordpool_576.txt	LTP250	ltpFR2	14	9	HIGHWAY	707	n/a	n/a	0	0	0
1934036	WORD	wordpools/wasnorm_wordpool_576.txt	LTP250	ltpFR2	14	9	PATROL	1027	n/a	n/a	0	0	0
1936840	WORD	wordpools/wasnorm_wordpool_576.txt	LTP250	ltpFR2	14	9	FRECKLE	602	n/a	n/a	0	0	0
1939609	WORD	wordpools/wasnorm_wordpool_576.txt	LTP250	ltpFR2	14	9	TUBA	1515	n/a	n/a	0	0	0
1942043	WORD	wordpools/wasnorm_wordpool_576.txt	LTP250	ltpFR2	14	9	BOARD	143	n/a	n/a	0	0	0
1944495	WORD	wordpools/wasnorm_wordpool_576.txt	LTP250	ltpFR2	14	9	BLACKBOARD	133	n/a	n/a	0	0	0
1947164	WORD	wordpools/wasnorm_wordpool_576.txt	LTP250	ltpFR2	14	9	DOLPHIN	483	n/a	n/a	0	0	0
1949868	WORD	wordpools/wasnorm_wordpool_576.txt	LTP250	ltpFR2	14	9	PATIENT	1024	n/a	n/a	0	0	0
1952469	WORD	wordpools/wasnorm_wordpool_576.txt	LTP250	ltpFR2	14	9	LADY	794	n/a	n/a	0	0	0
1955288	WORD	wordpools/wasnorm_wordpool_576.txt	LTP250	ltpFR2	14	9	RUST	1219	n/a	n/a	0	0	0
1957925	WORD	wordpools/wasnorm_wordpool_576.txt	LTP250	ltpFR2	14	9	BARREL	91	n/a	n/a	0	0	0
1960744	WORD	wordpools/wasnorm_wordpool_576.txt	LTP250	ltpFR2	14	9	LUNCH	849	n/a	n/a	0	0	0
1963278	WORD	wordpools/wasnorm_wordpool_576.txt	LTP250	ltpFR2	14	9	SPOON	1357	n/a	n/a	0	0	0
1965915	WORD	wordpools/wasnorm_wordpool_576.txt	LTP250	ltpFR2	14	9	LIPSTICK	829	n/a	n/a	0	0	0
1968618	WORD	wordpools/wasnorm_wordpool_576.txt	LTP250	ltpFR2	14	9	SHARK	1275	n/a	n/a	0	0	0
1971119	WORD	wordpools/wasnorm_wordpool_576.txt	LTP250	ltpFR2	14	9	AWARD	63	n/a	n/a	0	0	0
1972739	START	n/a	LTP250	ltpFR2	14	n/a	n/a	n/a	15	n/a	n/a	n/a	n/a
1973817	DISTRACTOR	n/a	LTP250	ltpFR2	14	9	n/a	n/a	n/a	n/a	0	0	0
1973839	PROB	n/a	LTP250	ltpFR2	14	n/a	n/a	n/a	15	13	4	1	8
1976256	PROB	n/a	LTP250	ltpFR2	14	n/a	n/a	n/a	15	16	5	9	2
1979176	PROB	n/a	LTP250	ltpFR2	14	n/a	n/a	n/a	15	8	1	3	4
1980928	PROB	n/a	LTP250	ltpFR2	14	n/a	n/a	n/a	15	19	8	6	5
1982796	PROB	n/a	LTP250	ltpFR2	14	n/a	n/a	n/a	15	13	4	5	4
1986617	PROB	n/a	LTP250	ltpFR2	14	n/a	n/a	n/a	15	22	8	5	9
1990269	PROB	n/a	LTP250	ltpFR2	14	n/a	n/a	n/a	15	11	3	2	6
1992805	PROB	n/a	LTP250	ltpFR2	14	n/a	n/a	n/a	15	7	3	2	2
1995661	STOP	n/a	LTP250	ltpFR2	14	n/a	n/a	n/a	15	n/a	n/a	n/a	n/a
1998678	REC_START	n/a	LTP250	ltpFR2	14	9	n/a	n/a	n/a	n/a	0	0	0
1999258	REC_WORD	wordpools/wasnorm_wordpool_576.txt	LTP250	ltpFR2	14	9	LUNCH	849	n/a	n/a	0	0	0
1999782	REC_WORD	wordpools/wasnorm_wordpool_576.txt	LTP250	ltpFR2	14	9	SPOON	1357	n/a	n/a	0	0	0
2000380	REC_WORD	wordpools/wasnorm_wordpool_576.txt	LTP250	ltpFR2	14	9	LIPSTICK	829	n/a	n/a	0	0	0
2001225	REC_WORD	wordpools/wasnorm_wordpool_576.txt	LTP250	ltpFR2	14	9	BEAKER	104	n/a	n/a	0	0	0
2053846	REC_WORD	wordpools/wasnorm_wordpool_576.txt	LTP250	ltpFR2	14	9	GARAGE	621	n/a	n/a	0	0	0
2089338	WORD	wordpools/wasnorm_wordpool_576.txt	LTP250	ltpFR2	14	10	TABLE	1426	n/a	n/a	0	0	0
2092158	WORD	wordpools/wasnorm_wordpool_576.txt	LTP250	ltpFR2	14	10	COLONEL	348	n/a	n/a	0	0	0
2094944	WORD	wordpools/wasnorm_wordpool_576.txt	LTP250	ltpFR2	14	10	MARINE	869	n/a	n/a	0	0	0
2097545	WORD	wordpools/wasnorm_wordpool_576.txt	LTP250	ltpFR2	14	10	BREAST	171	n/a	n/a	0	0	0
2100148	WORD	wordpools/wasnorm_wordpool_576.txt	LTP250	ltpFR2	14	10	JOURNAL	760	n/a	n/a	0	0	0
2102851	WORD	wordpools/wasnorm_wordpool_576.txt	LTP250	ltpFR2	14	10	SKETCH	1315	n/a	n/a	0	0	0
2105402	WORD	wordpools/wasnorm_wordpool_576.txt	LTP250	ltpFR2	14	10	POSSUM	1112	n/a	n/a	0	0	0
2108121	WORD	wordpools/wasnorm_wordpool_576.txt	LTP250	ltpFR2	14	10	SCULPTURE	1258	n/a	n/a	0	0	0
2110741	WORD	wordpools/wasnorm_wordpool_576.txt	LTP250	ltpFR2	14	10	RADISH	1158	n/a	n/a	0	0	0
2113176	WORD	wordpools/wasnorm_wordpool_576.txt	LTP250	ltpFR2	14	10	LEOPARD	812	n/a	n/a	0	0	0
2115629	WORD	wordpools/wasnorm_wordpool_576.txt	LTP250	ltpFR2	14	10	ORCHID	982	n/a	n/a	0	0	0
2118380	WORD	wordpools/wasnorm_wordpool_576.txt	LTP250	ltpFR2	14	10	VIKING	1565	n/a	n/a	0	0	0
2120950	WORD	wordpools/wasnorm_wordpool_576.txt	LTP250	ltpFR2	14	10	QUEEN	1149	n/a	n/a	0	0	0
2123703	WORD	wordpools/wasnorm_wordpool_576.txt	LTP250	ltpFR2	14	10	CUPBOARD	425	n/a	n/a	0	0	0
2126521	WORD	wordpools/wasnorm_wordpool_576.txt	LTP250	ltpFR2	14	10	OUTLAW	989	n/a	n/a	0	0	0
2129207	WORD	wordpools/wasnorm_wordpool_576.txt	LTP250	ltpFR2	14	10	THIEF	1456	n/a	n/a	0	0	0
2131693	WORD	wordpools/wasnorm_wordpool_576.txt	LTP250	ltpFR2	14	10	GAZELLE	628	n/a	n/a	0	0	0
2134444	WORD	wordpools/wasnorm_wordpool_576.txt	LTP250	ltpFR2	14	10	COURSE	390	n/a	n/a	0	0	0
2136897	WORD	wordpools/wasnorm_wordpool_576.txt	LTP250	ltpFR2	14	10	PANTHER	1009	n/a	n/a	0	0	0
2139465	WORD	wordpools/wasnorm_wordpool_576.txt	LTP250	ltpFR2	14	10	PORK	1108	n/a	n/a	0	0	0
2142151	WORD	wordpools/wasnorm_wordpool_576.txt	LTP250	ltpFR2	14	10	PAIL	1002	n/a	n/a	0	0	0
2144804	WORD	wordpools/wasnorm_wordpool_576.txt	LTP250	ltpFR2	14	10	VELVET	1555	n/a	n/a	0	0	0
2147489	WORD	wordpools/wasnorm_wordpool_576.txt	LTP250	ltpFR2	14	10	PERCH	1048	n/a	n/a	0	0	0
2150041	WORD	wordpools/wasnorm_wordpool_576.txt	LTP250	ltpFR2	14	10	FRUIT	610	n/a	n/a	0	0	0
2151661	START	n/a	LTP250	ltpFR2	14	n/a	n/a	n/a	16	n/a	n/a	n/a	n/a
2152676	DISTRACTOR	n/a	LTP250	ltpFR2	14	10	n/a	n/a	n/a	n/a	0	0	0
2152695	PROB	n/a	LTP250	ltpFR2	14	n/a	n/a	n/a	16	17	4	8	5
2156080	PROB	n/a	LTP250	ltpFR2	14	n/a	n/a	n/a	16	15	9	2	4
2159266	PROB	n/a	LTP250	ltpFR2	14	n/a	n/a	n/a	16	21	8	9	4
2162485	PROB	n/a	LTP250	ltpFR2	14	n/a	n/a	n/a	16	14	3	2	9
2165572	PROB	n/a	LTP250	ltpFR2	14	n/a	n/a	n/a	16	7	2	3	2
2167523	PROB	n/a	LTP250	ltpFR2	14	n/a	n/a	n/a	16	15	5	8	2
2169141	PROB	n/a	LTP250	ltpFR2	14	n/a	n/a	n/a	16	19	1	9	9
2170777	PROB	n/a	LTP250	ltpFR2	14	n/a	n/a	n/a	16	12	1	5	6
2175660	STOP	n/a	LTP250	ltpFR2	14	n/a	n/a	n/a	16	n/a	n/a	n/a	n/a
2177582	REC_START	n/a	LTP250	ltpFR2	14	10	n/a	n/a	n/a	n/a	0	0	0
2178821	REC_WORD	wordpools/wasnorm_wordpool_576.txt	LTP250	ltpFR2	14	10	PERCH	1048	n/a	n/a	0	0	0
2184389	REC_WORD	wordpools/wasnorm_wordpool_576.txt	LTP250	ltpFR2	14	10	GOLD	647	n/a	n/a	0	0	0
2185060	REC_WORD	wordpools/wasnorm_wordpool_576.txt	LTP250	ltpFR2	14	10	BRANCH	168	n/a	n/a	0	0	0
2268228	WORD	wordpools/wasnorm_wordpool_576.txt	LTP250	ltpFR2	14	11	COWBOY	395	n/a	n/a	0	0	0
2270831	WORD	wordpools/wasnorm_wordpool_576.txt	LTP250	ltpFR2	14	11	PROTON	1132	n/a	n/a	0	0	0
2273482	WORD	wordpools/wasnorm_wordpool_576.txt	LTP250	ltpFR2	14	11	DANCER	437	n/a	n/a	0	0	0
2276018	WORD	wordpools/wasnorm_wordpool_576.txt	LTP250	ltpFR2	14	11	WHISKERS	1605	n/a	n/a	0	0	0
2278470	WORD	wordpools/wasnorm_wordpool_576.txt	LTP250	ltpFR2	14	11	SHORTS	1293	n/a	n/a	0	0	0
2281139	WORD	wordpools/wasnorm_wordpool_576.txt	LTP250	ltpFR2	14	11	YARN	1631	n/a	n/a	0	0	0
2283826	WORD	wordpools/wasnorm_wordpool_576.txt	LTP250	ltpFR2	14	11	SPONGE	1355	n/a	n/a	0	0	0
2286410	WORD	wordpools/wasnorm_wordpool_576.txt	LTP250	ltpFR2	14	11	RIVER	1194	n/a	n/a	0	0	0
2289096	WORD	wordpools/wasnorm_wordpool_576.txt	LTP250	ltpFR2	14	11	OYSTER	995	n/a	n/a	0	0	0
2291749	WORD	wordpools/wasnorm_wordpool_576.txt	LTP250	ltpFR2	14	11	SKIRT	1319	n/a	n/a	0	0	0
2294484	WORD	wordpools/wasnorm_wordpool_576.txt	LTP250	ltpFR2	14	11	STOMACH	1384	n/a	n/a	0	0	0
2297153	WORD	wordpools/wasnorm_wordpool_576.txt	LTP250	ltpFR2	14	11	BELLY	119	n/a	n/a	0	0	0
2299890	WORD	wordpools/wasnorm_wordpool_576.txt	LTP250	ltpFR2	14	11	EUROPE	541	n/a	n/a	0	0	0
2302357	WORD	wordpools/wasnorm_wordpool_576.txt	LTP250	ltpFR2	14	11	CROSS	413	n/a	n/a	0	0	0
2305193	WORD	wordpools/wasnorm_wordpool_576.txt	LTP250	ltpFR2	14	11	FLEET	578	n/a	n/a	0	0	0
2307930	WORD	wordpools/wasnorm_wordpool_576.txt	LTP250	ltpFR2	14	11	LADDER	793	n/a	n/a	0	0	0
2310531	WORD	wordpools/wasnorm_wordpool_576.txt	LTP250	ltpFR2	14	11	SEAFOOD	1260	n/a	n/a	0	0	0
2313183	WORD	wordpools/wasnorm_wordpool_576.txt	LTP250	ltpFR2	14	11	SUMMIT	1405	n/a	n/a	0	0	0
2315670	WORD	wordpools/wasnorm_wordpool_576.txt	LTP250	ltpFR2	14	11	PEDAL	1037	n/a	n/a	0	0	0
2318388	WORD	wordpools/wasnorm_wordpool_576.txt	LTP250	ltpFR2	14	11	DENIM	446	n/a	n/a	0	0	0
2321074	WORD	wordpools/wasnorm_wordpool_576.txt	LTP250	ltpFR2	14	11	ARMY	39	n/a	n/a	0	0	0
2323844	WORD	wordpools/wasnorm_wordpool_576.txt	LTP250	ltpFR2	14	11	BARLEY	88	n/a	n/a	0	0	0
2326395	WORD	wordpools/wasnorm_wordpool_576.txt	LTP250	ltpFR2	14	11	WOMAN	1620	n/a	n/a	0	0	0
2329014	WORD	wordpools/wasnorm_wordpool_576.txt	LTP250	ltpFR2	14	11	LION	827	n/a	n/a	0	0	0
2330633	START	n/a	LTP250	ltpFR2	14	n/a	n/a	n/a	17	n/a	n/a	n/a	n/a
2331539	DISTRACTOR	n/a	LTP250	ltpFR2	14	11	n/a	n/a	n/a	n/a	0	0	0
2331566	PROB	n/a	LTP250	ltpFR2	14	n/a	n/a	n/a	17	14	7	1	6
2333869	PROB	n/a	LTP250	ltpFR2	14	n/a	n/a	n/a	17	9	4	3	2
2336622	PROB	n/a	LTP250	ltpFR2	14	n/a	n/a	n/a	17	14	9	3	2
2338657	PROB	n/a	LTP250	ltpFR2	14	n/a	n/a	n/a	17	22	9	7	6
2341125	PROB	n/a	LTP250	ltpFR2	14	n/a	n/a	n/a	17	19	9	1	9
2342894	PROB	n/a	LTP250	ltpFR2	14	n/a	n/a	n/a	17	11	3	1	7
2344829	PROB	n/a	LTP250	ltpFR2	14	n/a	n/a	n/a	17	9	1	6	2
2346964	PROB	n/a	LTP250	ltpFR2	14	n/a	n/a	n/a	17	11	7	4	2
2349600	PROB	n/a	LTP250	ltpFR2	14	n/a	n/a	n/a	17	19	7	9	3
2351567	PROB	n/a	LTP250	ltpFR2	14	n/a	n/a	n/a	17	11	4	4	3
2354130	STOP	n/a	LTP250	ltpFR2	14	n/a	n/a	n/a	17	n/a	n/a	n/a	n/a
2356455	REC_START	n/a	LTP250	ltpFR2	14	11	n/a	n/a	n/a	n/a	0	0	0
2357418	REC_WORD	wordpools/wasnorm_wordpool_576.txt	LTP250	ltpFR2	14	11	BARLEY	88	n/a	n/a	0	0	0
2358012	REC_WORD	wordpools/wasnorm_wordpool_576.txt	LTP250	ltpFR2	14	11	WOMAN	1620	n/a	n/a	0	0	0
2358582	REC_WORD	wordpools/wasnorm_wordpool_576.txt	LTP250	ltpFR2	14	11	LION	827	n/a	n/a	0	0	0
2446935	WORD	wordpools/wasnorm_wordpool_576.txt	LTP250	ltpFR2	14	12	PORTRAIT	1111	n/a	n/a	0	0	0
2449603	WORD	wordpools/wasnorm_wordpool_576.txt	LTP250	ltpFR2	14	12	BLOCKADE	137	n/a	n/a	0	0	0
2452422	WORD	wordpools/wasnorm_wordpool_576.txt	LTP250	ltpFR2	14	12	SHRUB	1299	n/a	n/a	0	0	0
2455224	WORD	wordpools/wasnorm_wordpool_576.txt	LTP250	ltpFR2	14	12	LACE	792	n/a	n/a	0	0	0
2457727	WORD	wordpools/wasnorm_wordpool_576.txt	LTP250	ltpFR2	14	12	TURNIP	1521	n/a	n/a	0	0	0
2460328	WORD	wordpools/wasnorm_wordpool_576.txt	LTP250	ltpFR2	14	12	PLATE	1086	n/a	n/a	0	0	0
2463048	WORD	wordpools/wasnorm_wordpool_576.txt	LTP250	ltpFR2	14	12	ACTRESS	6	n/a	n/a	0	0	0
2465768	WORD	wordpools/wasnorm_wordpool_576.txt	LTP250	ltpFR2	14	12	DRILL	497	n/a	n/a	0	0	0
2468486	WORD	wordpools/wasnorm_wordpool_576.txt	LTP250	ltpFR2	14	12	LETTUCE	814	n/a	n/a	0	0	0
2470971	WORD	wordpools/wasnorm_wordpool_576.txt	LTP250	ltpFR2	14	12	SAUSAGE	1238	n/a	n/a	0	0	0
2473608	WORD	wordpools/wasnorm_wordpool_576.txt	LTP250	ltpFR2	14	12	CHIPMUNK	304	n/a	n/a	0	0	0
2476126	WORD	wordpools/wasnorm_wordpool_576.txt	LTP250	ltpFR2	14	12	BLOUSE	139	n/a	n/a	0	0	0
2478862	WORD	wordpools/wasnorm_wordpool_576.txt	LTP250	ltpFR2	14	12	TERMITE	1451	n/a	n/a	0	0	0
2481397	WORD	wordpools/wasnorm_wordpool_576.txt	LTP250	ltpFR2	14	12	CAFE	216	n/a	n/a	0	0	0
2484066	WORD	wordpools/wasnorm_wordpool_576.txt	LTP250	ltpFR2	14	12	PIGEON	1065	n/a	n/a	0	0	0
2486602	WORD	wordpools/wasnorm_wordpool_576.txt	LTP250	ltpFR2	14	12	YACHT	1629	n/a	n/a	0	0	0
2489304	WORD	wordpools/wasnorm_wordpool_576.txt	LTP250	ltpFR2	14	12	PADDLE	1000	n/a	n/a	0	0	0
2491973	WORD	wordpools/wasnorm_wordpool_576.txt	LTP250	ltpFR2	14	12	JAPAN	749	n/a	n/a	0	0	0
2494626	WORD	wordpools/wasnorm_wordpool_576.txt	LTP250	ltpFR2	14	12	JEANS	752	n/a	n/a	0	0	0
2497127	WORD	wordpools/wasnorm_wordpool_576.txt	LTP250	ltpFR2	14	12	TOMBSTONE	1478	n/a	n/a	0	0	0
2499814	WORD	wordpools/wasnorm_wordpool_576.txt	LTP250	ltpFR2	14	12	PIZZA	1079	n/a	n/a	0	0	0
2502348	WORD	wordpools/wasnorm_wordpool_576.txt	LTP250	ltpFR2	14	12	FEMALE	559	n/a	n/a	0	0	0
2505168	WORD	wordpools/wasnorm_wordpool_576.txt	LTP250	ltpFR2	14	12	POPCORN	1104	n/a	n/a	0	0	0
2507921	WORD	wordpools/wasnorm_wordpool_576.txt	LTP250	ltpFR2	14	12	CABBAGE	210	n/a	n/a	0	0	0
2509539	START	n/a	LTP250	ltpFR2	14	n/a	n/a	n/a	18	n/a	n/a	n/a	n/a
2510512	DISTRACTOR	n/a	LTP250	ltpFR2	14	12	n/a	n/a	n/a	n/a	0	0	0
2510539	PROB	n/a	LTP250	ltpFR2	14	n/a	n/a	n/a	18	15	2	6	7
2513391	PROB	n/a	LTP250	ltpFR2	14	n/a	n/a	n/a	18	12	3	7	2
2514794	PROB	n/a	LTP250	ltpFR2	14	n/a	n/a	n/a	18	9	4	3	2
2516812	PROB	n/a	LTP250	ltpFR2	14	n/a	n/a	n/a	18	9	1	5	2
2519113	PROB	n/a	LTP250	ltpFR2	14	n/a	n/a	n/a	18	14	8	4	2
2521999	PROB	n/a	LTP250	ltpFR2	14	n/a	n/a	n/a	18	18	8	1	9
2524067	PROB	n/a	LTP250	ltpFR2	14	n/a	n/a	n/a	18	15	9	3	3
2526019	PROB	n/a	LTP250	ltpFR2	14	n/a	n/a	n/a	18	23	9	9	5
2531592	PROB	n/a	LTP250	ltpFR2	14	n/a	n/a	n/a	18	12	4	1	7
2533473	STOP	n/a	LTP250	ltpFR2	14	n/a	n/a	n/a	18	n/a	n/a	n/a	n/a
2535461	REC_START	n/a	LTP250	ltpFR2	14	12	n/a	n/a	n/a	n/a	0	0	0
2535989	REC_WORD	wordpools/wasnorm_wordpool_576.txt	LTP250	ltpFR2	14	12	PIGEON	1065	n/a	n/a	0	0	0
2536613	REC_WORD	wordpools/wasnorm_wordpool_576.txt	LTP250	ltpFR2	14	12	FEMALE	559	n/a	n/a	0	0	0
2537986	REC_WORD	wordpools/wasnorm_wordpool_576.txt	LTP250	ltpFR2	14	12	CABBAGE	210	n/a	n/a	0	0	0
2540162	REC_WORD	wordpools/wasnorm_wordpool_576.txt	LTP250	ltpFR2	14	12	PIZZA	1079	n/a	n/a	0	0	0
2541031	REC_WORD	wordpools/wasnorm_wordpool_576.txt	LTP250	ltpFR2	14	12	LETTUCE	814	n/a	n/a	0	0	0
2580086	REC_WORD	wordpools/wasnorm_wordpool_576.txt	LTP250	ltpFR2	14	12	CAFE	216	n/a	n/a	0	0	0
2625941	WORD	wordpools/wasnorm_wordpool_576.txt	LTP250	ltpFR2	14	13	PARENT	1013	n/a	n/a	0	0	0
2628676	WORD	wordpools/wasnorm_wordpool_576.txt	LTP250	ltpFR2	14	13	BLENDER	136	n/a	n/a	0	0	0
2631177	WORD	wordpools/wasnorm_wordpool_576.txt	LTP250	ltpFR2	14	13	TWEEZERS	1526	n/a	n/a	0	0	0
2633931	WORD	wordpools/wasnorm_wordpool_576.txt	LTP250	ltpFR2	14	13	LODGE	839	n/a	n/a	0	0	0
2636750	WORD	wordpools/wasnorm_wordpool_576.txt	LTP250	ltpFR2	14	13	LAMP	798	n/a	n/a	0	0	0
2639485	WORD	wordpools/wasnorm_wordpool_576.txt	LTP250	ltpFR2	14	13	COFFEE	341	n/a	n/a	0	0	0
2642304	WORD	wordpools/wasnorm_wordpool_576.txt	LTP250	ltpFR2	14	13	PLASTER	1085	n/a	n/a	0	0	0
2644857	WORD	wordpools/wasnorm_wordpool_576.txt	LTP250	ltpFR2	14	13	DENTIST	447	n/a	n/a	0	0	0
2647676	WORD	wordpools/wasnorm_wordpool_576.txt	LTP250	ltpFR2	14	13	SWIMMER	1420	n/a	n/a	0	0	0
2650411	WORD	wordpools/wasnorm_wordpool_576.txt	LTP250	ltpFR2	14	13	AIRPLANE	12	n/a	n/a	0	0	0
2653163	WORD	wordpools/wasnorm_wordpool_576.txt	LTP250	ltpFR2	14	13	POCKET	1093	n/a	n/a	0	0	0
2655800	WORD	wordpools/wasnorm_wordpool_576.txt	LTP250	ltpFR2	14	13	XEROX	1628	n/a	n/a	0	0	0
2658418	WORD	wordpools/wasnorm_wordpool_576.txt	LTP250	ltpFR2	14	13	PUDDING	1139	n/a	n/a	0	0	0
2661020	WORD	wordpools/wasnorm_wordpool_576.txt	LTP250	ltpFR2	14	13	WRENCH	1625	n/a	n/a	0	0	0
2663522	WORD	wordpools/wasnorm_wordpool_576.txt	LTP250	ltpFR2	14	13	STAR	1373	n/a	n/a	0	0	0
2666191	WORD	wordpools/wasnorm_wordpool_576.txt	LTP250	ltpFR2	14	13	COMET	353	n/a	n/a	0	0	0
2668861	WORD	wordpools/wasnorm_wordpool_576.txt	LTP250	ltpFR2	14	13	SEAGULL	1261	n/a	n/a	0	0	0
2671630	WORD	wordpools/wasnorm_wordpool_576.txt	LTP250	ltpFR2	14	13	ROD	1203	n/a	n/a	0	0	0
2674098	WORD	wordpools/wasnorm_wordpool_576.txt	LTP250	ltpFR2	14	13	CURTAIN	427	n/a	n/a	0	0	0
2676618	WORD	wordpools/wasnorm_wordpool_576.txt	LTP250	ltpFR2	14	13	LIGHTNING	820	n/a	n/a	0	0	0
2679153	WORD	wordpools/wasnorm_wordpool_576.txt	LTP250	ltpFR2	14	13	JELLO	754	n/a	n/a	0	0	0
2681889	WORD	wordpools/wasnorm_wordpool_576.txt	LTP250	ltpFR2	14	13	PAPER	1011	n/a	n/a	0	0	0
2684642	WORD	wordpools/wasnorm_wordpool_576.txt	LTP250	ltpFR2	14	13	TABLET	1427	n/a	n/a	0	0	0
2687376	WORD	wordpools/wasnorm_wordpool_576.txt	LTP250	ltpFR2	14	13	QUARTER	1148	n/a	n/a	0	0	0
2688995	START	n/a	LTP250	ltpFR2	14	n/a	n/a	n/a	19	n/a	n/a	n/a	n/a
2689819	DISTRACTOR	n/a	LTP250	ltpFR2	14	13	n/a	n/a	n/a	n/a	0	0	0
2689830	PROB	n/a	LTP250	ltpFR2	14	n/a	n/a	n/a	19	10	3	5	2
2691580	PROB	n/a	LTP250	ltpFR2	14	n/a	n/a	n/a	19	15	6	3	6
2693348	PROB	n/a	LTP250	ltpFR2	14	n/a	n/a	n/a	19	15	3	6	6
2695367	PROB	n/a	LTP250	ltpFR2	14	n/a	n/a	n/a	19	13	6	2	5
2698721	PROB	n/a	LTP250	ltpFR2	14	n/a	n/a	n/a	19	10	6	2	2
2700488	PROB	n/a	LTP250	ltpFR2	14	n/a	n/a	n/a	19	9	2	2	5
2702273	PROB	n/a	LTP250	ltpFR2	14	n/a	n/a	n/a	19	17	1	9	7
2703775	PROB	n/a	LTP250	ltpFR2	14	n/a	n/a	n/a	19	22	7	8	9
2706093	PROB	n/a	LTP250	ltpFR2	14	n/a	n/a	n/a	19	12	5	6	1
2707645	PROB	n/a	LTP250	ltpFR2	14	n/a	n/a	n/a	19	15	6	8	1
2712995	STOP	n/a	LTP250	ltpFR2	14	n/a	n/a	n/a	19	n/a	n/a	n/a	n/a
2714919	REC_START	n/a	LTP250	ltpFR2	14	13	n/a	n/a	n/a	n/a	0	0	0
2715513	REC_WORD	wordpools/wasnorm_wordpool_576.txt	LTP250	ltpFR2	14	13	COMET	353	n/a	n/a	0	0	0
2716063	REC_WORD	wordpools/wasnorm_wordpool_576.txt	LTP250	ltpFR2	14	13	SEAGULL	1261	n/a	n/a	0	0	0
2717692	REC_WORD	wordpools/wasnorm_wordpool_576.txt	LTP250	ltpFR2	14	13	LIGHTNING	820	n/a	n/a	0	0	0
2718487	REC_WORD	wordpools/wasnorm_wordpool_576.txt	LTP250	ltpFR2	14	13	CURTAIN	427	n/a	n/a	0	0	0
2719230	REC_WORD	wordpools/wasnorm_wordpool_576.txt	LTP250	ltpFR2	14	13	ROD	1203	n/a	n/a	0	0	0
2719971	REC_WORD	wordpools/wasnorm_wordpool_576.txt	LTP250	ltpFR2	14	13	JELLO	754	n/a	n/a	0	0	0
2720713	REC_WORD	wordpools/wasnorm_wordpool_576.txt	LTP250	ltpFR2	14	13	TABLET	1427	n/a	n/a	0	0	0
2721603	REC_WORD	wordpools/wasnorm_wordpool_576.txt	LTP250	ltpFR2	14	13	PAPER	1011	n/a	n/a	0	0	0
2723173	REC_WORD	wordpools/wasnorm_wordpool_576.txt	LTP250	ltpFR2	14	13	QUARTER	1148	n/a	n/a	0	0	0
2805579	WORD	wordpools/wasnorm_wordpool_576.txt	LTP250	ltpFR2	14	14	HORSE	719	n/a	n/a	0	0	0
2808032	WORD	wordpools/wasnorm_wordpool_576.txt	LTP250	ltpFR2	14	14	GAVEL	627	n/a	n/a	0	0	0
2810785	WORD	wordpools/wasnorm_wordpool_576.txt	LTP250	ltpFR2	14	14	PICTURE	1061	n/a	n/a	0	0	0
2813570	WORD	wordpools/wasnorm_wordpool_576.txt	LTP250	ltpFR2	14	14	RECORD	1176	n/a	n/a	0	0	0
2816189	WORD	wordpools/wasnorm_wordpool_576.txt	LTP250	ltpFR2	14	14	PIGMENT	1066	n/a	n/a	0	0	0
2818742	WORD	wordpools/wasnorm_wordpool_576.txt	LTP250	ltpFR2	14	14	GHETTO	633	n/a	n/a	0	0	0
2821443	WORD	wordpools/wasnorm_wordpool_576.txt	LTP250	ltpFR2	14	14	FOOT	590	n/a	n/a	0	0	0
2824146	WORD	wordpools/wasnorm_wordpool_576.txt	LTP250	ltpFR2	14	14	HEDGE	699	n/a	n/a	0	0	0
2826882	WORD	wordpools/wasnorm_wordpool_576.txt	LTP250	ltpFR2	14	14	PLAID	1080	n/a	n/a	0	0	0
2829484	WORD	wordpools/wasnorm_wordpool_576.txt	LTP250	ltpFR2	14	14	RECEIPT	1173	n/a	n/a	0	0	0
2832169	WORD	wordpools/wasnorm_wordpool_576.txt	LTP250	ltpFR2	14	14	VAGRANT	1544	n/a	n/a	0	0	0
2834739	WORD	wordpools/wasnorm_wordpool_576.txt	LTP250	ltpFR2	14	14	HOUND	724	n/a	n/a	0	0	0
2837441	WORD	wordpools/wasnorm_wordpool_576.txt	LTP250	ltpFR2	14	14	FRAME	600	n/a	n/a	0	0	0
2839944	WORD	wordpools/wasnorm_wordpool_576.txt	LTP250	ltpFR2	14	14	WASP	1593	n/a	n/a	0	0	0
2842545	WORD	wordpools/wasnorm_wordpool_576.txt	LTP250	ltpFR2	14	14	TWISTER	1530	n/a	n/a	0	0	0
2845181	WORD	wordpools/wasnorm_wordpool_576.txt	LTP250	ltpFR2	14	14	HELMET	702	n/a	n/a	0	0	0
2847884	WORD	wordpools/wasnorm_wordpool_576.txt	LTP250	ltpFR2	14	14	FOOTBALL	591	n/a	n/a	0	0	0
2850452	WORD	wordpools/wasnorm_wordpool_576.txt	LTP250	ltpFR2	14	14	TART	1436	n/a	n/a	0	0	0
2852987	WORD	wordpools/wasnorm_wordpool_576.txt	LTP250	ltpFR2	14	14	PUPPY	1144	n/a	n/a	0	0	0
2855624	WORD	wordpools/wasnorm_wordpool_576.txt	LTP250	ltpFR2	14	14	PEACH	1031	n/a	n/a	0	0	0
2858159	WORD	wordpools/wasnorm_wordpool_576.txt	LTP250	ltpFR2	14	14	SCALPEL	1243	n/a	n/a	0	0	0
2860695	WORD	wordpools/wasnorm_wordpool_576.txt	LTP250	ltpFR2	14	14	EAGLE	512	n/a	n/a	0	0	0
2863313	WORD	wordpools/wasnorm_wordpool_576.txt	LTP250	ltpFR2	14	14	QUAIL	1147	n/a	n/a	0	0	0
2866099	WORD	wordpools/wasnorm_wordpool_576.txt	LTP250	ltpFR2	14	14	ZIPPER	1636	n/a	n/a	0	0	0
2867718	START	n/a	LTP250	ltpFR2	14	n/a	n/a	n/a	20	n/a	n/a	n/a	n/a
2868845	DISTRACTOR	n/a	LTP250	ltpFR2	14	14	n/a	n/a	n/a	n/a	0	0	0
2868852	PROB	n/a	LTP250	ltpFR2	14	n/a	n/a	n/a	20	22	9	5	7
2871120	PROB	n/a	LTP250	ltpFR2	14	n/a	n/a	n/a	20	15	8	1	6
2873455	PROB	n/a	LTP250	ltpFR2	14	n/a	n/a	n/a	20	23	8	5	9
2875742	PROB	n/a	LTP250	ltpFR2	14	n/a	n/a	n/a	20	12	9	1	2
2877459	PROB	n/a	LTP250	ltpFR2	14	n/a	n/a	n/a	20	14	3	6	5
2879561	PROB	n/a	LTP250	ltpFR2	14	n/a	n/a	n/a	20	19	5	9	5
2881045	PROB	n/a	LTP250	ltpFR2	14	n/a	n/a	n/a	20	18	9	8	1
2882948	PROB	n/a	LTP250	ltpFR2	14	n/a	n/a	n/a	20	15	4	7	4
2885199	PROB	n/a	LTP250	ltpFR2	14	n/a	n/a	n/a	20	11	5	3	3
2886618	PROB	n/a	LTP250	ltpFR2	14	n/a	n/a	n/a	20	15	6	5	4
2888218	PROB	n/a	LTP250	ltpFR2	14	n/a	n/a	n/a	20	13	3	9	1
2891718	STOP	n/a	LTP250	ltpFR2	14	n/a	n/a	n/a	20	n/a	n/a	n/a	n/a
2893674	REC_START	n/a	LTP250	ltpFR2	14	14	n/a	n/a	n/a	n/a	0	0	0
2894300	REC_WORD	wordpools/wasnorm_wordpool_576.txt	LTP250	ltpFR2	14	14	PEACH	1031	n/a	n/a	0	0	0
2894894	REC_WORD	wordpools/wasnorm_wordpool_576.txt	LTP250	ltpFR2	14	14	TART	1436	n/a	n/a	0	0	0
2895450	REC_WORD	wordpools/wasnorm_wordpool_576.txt	LTP250	ltpFR2	14	14	PUPPY	1144	n/a	n/a	0	0	0
2896093	REC_WORD	wordpools/wasnorm_wordpool_576.txt	LTP250	ltpFR2	14	14	SCALPEL	1243	n/a	n/a	0	0	0
2899293	REC_WORD	wordpools/wasnorm_wordpool_576.txt	LTP250	ltpFR2	14	14	ZIPPER	1636	n/a	n/a	0	0	0
2900094	REC_WORD	wordpools/wasnorm_wordpool_576.txt	LTP250	ltpFR2	14	14	QUAIL	1147	n/a	n/a	0	0	0
2901000	REC_WORD	wordpools/wasnorm_wordpool_576.txt	LTP250	ltpFR2	14	14	EAGLE	512	n/a	n/a	0	0	0
2984302	DISTRACTOR	n/a	LTP250	ltpFR2	14	15	n/a	n/a	n/a	n/a	0	0	0
2984302	START	n/a	LTP250	ltpFR2	14	n/a	n/a	n/a	21	n/a	n/a	n/a	n/a
2984335	PROB	n/a	LTP250	ltpFR2	14	n/a	n/a	n/a	21	7	1	2	4
2986053	PROB	n/a	LTP250	ltpFR2	14	n/a	n/a	n/a	21	12	1	9	2
2987305	PROB	n/a	LTP250	ltpFR2	14	n/a	n/a	n/a	21	20	7	8	5
2989741	PROB	n/a	LTP250	ltpFR2	14	n/a	n/a	n/a	21	14	2	3	9
2995245	PROB	n/a	LTP250	ltpFR2	14	n/a	n/a	n/a	21	16	6	8	2
2996947	PROB	n/a	LTP250	ltpFR2	14	n/a	n/a	n/a	21	19	9	2	8
2998381	PROB	n/a	LTP250	ltpFR2	14	n/a	n/a	n/a	21	13	1	7	5
3000934	PROB	n/a	LTP250	ltpFR2	14	n/a	n/a	n/a	21	15	3	5	7
3002953	PROB	n/a	LTP250	ltpFR2	14	n/a	n/a	n/a	21	13	3	6	4
3004453	PROB	n/a	LTP250	ltpFR2	14	n/a	n/a	n/a	21	17	6	2	9
3006773	STOP	n/a	LTP250	ltpFR2	14	n/a	n/a	n/a	21	n/a	n/a	n/a	n/a
3009441	WORD	wordpools/wasnorm_wordpool_576.txt	LTP250	ltpFR2	14	15	SLIME	1327	n/a	n/a	0	0	0
3012076	WORD	wordpools/wasnorm_wordpool_576.txt	LTP250	ltpFR2	14	15	MILDEW	893	n/a	n/a	0	0	0
3014679	WORD	wordpools/wasnorm_wordpool_576.txt	LTP250	ltpFR2	14	15	MUFFIN	929	n/a	n/a	0	0	0
3017231	WORD	wordpools/wasnorm_wordpool_576.txt	LTP250	ltpFR2	14	15	CORAL	378	n/a	n/a	0	0	0
3019801	WORD	wordpools/wasnorm_wordpool_576.txt	LTP250	ltpFR2	14	15	WORLD	1622	n/a	n/a	0	0	0
3022535	WORD	wordpools/wasnorm_wordpool_576.txt	LTP250	ltpFR2	14	15	ICING	732	n/a	n/a	0	0	0
3025354	WORD	wordpools/wasnorm_wordpool_576.txt	LTP250	ltpFR2	14	15	SODA	1341	n/a	n/a	0	0	0
3027824	WORD	wordpools/wasnorm_wordpool_576.txt	LTP250	ltpFR2	14	15	TOASTER	1472	n/a	n/a	0	0	0
3030610	WORD	wordpools/wasnorm_wordpool_576.txt	LTP250	ltpFR2	14	15	PARSLEY	1016	n/a	n/a	0	0	0
3033145	WORD	wordpools/wasnorm_wordpool_576.txt	LTP250	ltpFR2	14	15	SHIRT	1287	n/a	n/a	0	0	0
3035664	WORD	wordpools/wasnorm_wordpool_576.txt	LTP250	ltpFR2	14	15	HOOK	715	n/a	n/a	0	0	0
3038149	WORD	wordpools/wasnorm_wordpool_576.txt	LTP250	ltpFR2	14	15	FUNGUS	614	n/a	n/a	0	0	0
3040886	WORD	wordpools/wasnorm_wordpool_576.txt	LTP250	ltpFR2	14	15	DONOR	485	n/a	n/a	0	0	0
3043353	WORD	wordpools/wasnorm_wordpool_576.txt	LTP250	ltpFR2	14	15	TURTLE	1522	n/a	n/a	0	0	0
3046056	WORD	wordpools/wasnorm_wordpool_576.txt	LTP250	ltpFR2	14	15	CLAM	315	n/a	n/a	0	0	0
3048692	WORD	wordpools/wasnorm_wordpool_576.txt	LTP250	ltpFR2	14	15	STAKE	1368	n/a	n/a	0	0	0
3051511	WORD	wordpools/wasnorm_wordpool_576.txt	LTP250	ltpFR2	14	15	LOFT	840	n/a	n/a	0	0	0
3054296	WORD	wordpools/wasnorm_wordpool_576.txt	LTP250	ltpFR2	14	15	SALAD	1224	n/a	n/a	0	0	0
3056816	WORD	wordpools/wasnorm_wordpool_576.txt	LTP250	ltpFR2	14	15	BOUQUET	157	n/a	n/a	0	0	0
3059501	WORD	wordpools/wasnorm_wordpool_576.txt	LTP250	ltpFR2	14	15	BRANDY	169	n/a	n/a	0	0	0
3062220	WORD	wordpools/wasnorm_wordpool_576.txt	LTP250	ltpFR2	14	15	THREAD	1460	n/a	n/a	0	0	0
3064656	WORD	wordpools/wasnorm_wordpool_576.txt	LTP250	ltpFR2	14	15	MONSTER	912	n/a	n/a	0	0	0
3067458	WORD	wordpools/wasnorm_wordpool_576.txt	LTP250	ltpFR2	14	15	BROOK	177	n/a	n/a	0	0	0
3069894	WORD	wordpools/wasnorm_wordpool_576.txt	LTP250	ltpFR2	14	15	SMOG	1330	n/a	n/a	0	0	0
3071512	START	n/a	LTP250	ltpFR2	14	n/a	n/a	n/a	22	n/a	n/a	n/a	n/a
3072691	DISTRACTOR	n/a	LTP250	ltpFR2	14	15	n/a	n/a	n/a	n/a	0	0	0
3072697	PROB	n/a	LTP250	ltpFR2	14	n/a	n/a	n/a	22	12	3	5	4
3075448	PROB	n/a	LTP250	ltpFR2	14	n/a	n/a	n/a	22	17	3	9	5
3078652	PROB	n/a	LTP250	ltpFR2	14	n/a	n/a	n/a	22	7	2	1	4
3080937	PROB	n/a	LTP250	ltpFR2	14	n/a	n/a	n/a	22	16	7	3	6
3082538	PROB	n/a	LTP250	ltpFR2	14	n/a	n/a	n/a	22	14	2	7	5
3084840	PROB	n/a	LTP250	ltpFR2	14	n/a	n/a	n/a	22	18	3	9	6
3088644	PROB	n/a	LTP250	ltpFR2	14	n/a	n/a	n/a	22	22	8	7	6
3090378	PROB	n/a	LTP250	ltpFR2	14	n/a	n/a	n/a	22	22	2	9	6
3091596	PROB	n/a	LTP250	ltpFR2	14	n/a	n/a	n/a	22	18	7	7	4
3095504	STOP	n/a	LTP250	ltpFR2	14	n/a	n/a	n/a	22	n/a	n/a	n/a	n/a
3097351	REC_START	n/a	LTP250	ltpFR2	14	15	n/a	n/a	n/a	n/a	0	0	0
3098332	REC_WORD	wordpools/wasnorm_wordpool_576.txt	LTP250	ltpFR2	14	15	BROOK	177	n/a	n/a	0	0	0
3098992	REC_WORD	wordpools/wasnorm_wordpool_576.txt	LTP250	ltpFR2	14	15	SMOG	1330	n/a	n/a	0	0	0
3102344	REC_WORD	wordpools/wasnorm_wordpool_576.txt	LTP250	ltpFR2	14	15	WATER	1594	n/a	n/a	0	0	0
3187947	DISTRACTOR	n/a	LTP250	ltpFR2	14	16	n/a	n/a	n/a	n/a	0	0	0
3187947	START	n/a	LTP250	ltpFR2	14	n/a	n/a	n/a	23	n/a	n/a	n/a	n/a
3187980	PROB	n/a	LTP250	ltpFR2	14	n/a	n/a	n/a	23	9	3	3	3
3189966	PROB	n/a	LTP250	ltpFR2	14	n/a	n/a	n/a	23	6	1	2	3
3191483	PROB	n/a	LTP250	ltpFR2	14	n/a	n/a	n/a	23	15	3	7	5
3193067	PROB	n/a	LTP250	ltpFR2	14	n/a	n/a	n/a	23	14	5	2	7
3195219	PROB	n/a	LTP250	ltpFR2	14	n/a	n/a	n/a	23	8	3	3	2
3197187	PROB	n/a	LTP250	ltpFR2	14	n/a	n/a	n/a	23	8	3	4	1
3199523	PROB	n/a	LTP250	ltpFR2	14	n/a	n/a	n/a	23	11	6	3	2
3201893	PROB	n/a	LTP250	ltpFR2	14	n/a	n/a	n/a	23	13	1	4	8
3203493	PROB	n/a	LTP250	ltpFR2	14	n/a	n/a	n/a	23	18	5	4	9
3211947	STOP	n/a	LTP250	ltpFR2	14	n/a	n/a	n/a	23	n/a	n/a	n/a	n/a
3213051	WORD	wordpools/wasnorm_wordpool_576.txt	LTP250	ltpFR2	14	16	STALLION	1369	n/a	n/a	0	0	0
3215888	WORD	wordpools/wasnorm_wordpool_576.txt	LTP250	ltpFR2	14	16	HAND	683	n/a	n/a	0	0	0
3218489	WORD	wordpools/wasnorm_wordpool_576.txt	LTP250	ltpFR2	14	16	POSTAGE	1113	n/a	n/a	0	0	0
3220992	WORD	wordpools/wasnorm_wordpool_576.txt	LTP250	ltpFR2	14	16	NOTEBOOK	959	n/a	n/a	0	0	0
3223762	WORD	wordpools/wasnorm_wordpool_576.txt	LTP250	ltpFR2	14	16	CLOCK	325	n/a	n/a	0	0	0
3226463	WORD	wordpools/wasnorm_wordpool_576.txt	LTP250	ltpFR2	14	16	ROBOT	1200	n/a	n/a	0	0	0
3229165	WORD	wordpools/wasnorm_wordpool_576.txt	LTP250	ltpFR2	14	16	TEACHER	1440	n/a	n/a	0	0	0
3231752	WORD	wordpools/wasnorm_wordpool_576.txt	LTP250	ltpFR2	14	16	GIRL	637	n/a	n/a	0	0	0
3234270	WORD	wordpools/wasnorm_wordpool_576.txt	LTP250	ltpFR2	14	16	FRIEND	606	n/a	n/a	0	0	0
3237022	WORD	wordpools/wasnorm_wordpool_576.txt	LTP250	ltpFR2	14	16	BOYFRIEND	162	n/a	n/a	0	0	0
3239659	WORD	wordpools/wasnorm_wordpool_576.txt	LTP250	ltpFR2	14	16	FIDDLE	561	n/a	n/a	0	0	0
3242444	WORD	wordpools/wasnorm_wordpool_576.txt	LTP250	ltpFR2	14	16	HARP	689	n/a	n/a	0	0	0
3245229	WORD	wordpools/wasnorm_wordpool_576.txt	LTP250	ltpFR2	14	16	HOSTESS	723	n/a	n/a	0	0	0
3248065	WORD	wordpools/wasnorm_wordpool_576.txt	LTP250	ltpFR2	14	16	PICNIC	1060	n/a	n/a	0	0	0
3250618	WORD	wordpools/wasnorm_wordpool_576.txt	LTP250	ltpFR2	14	16	SHORTCAKE	1292	n/a	n/a	0	0	0
3253070	WORD	wordpools/wasnorm_wordpool_576.txt	LTP250	ltpFR2	14	16	GOBLIN	645	n/a	n/a	0	0	0
3255538	WORD	wordpools/wasnorm_wordpool_576.txt	LTP250	ltpFR2	14	16	GARBAGE	622	n/a	n/a	0	0	0
3258374	WORD	wordpools/wasnorm_wordpool_576.txt	LTP250	ltpFR2	14	16	SURVEY	1414	n/a	n/a	0	0	0
3261077	WORD	wordpools/wasnorm_wordpool_576.txt	LTP250	ltpFR2	14	16	TUNNEL	1519	n/a	n/a	0	0	0
3263646	WORD	wordpools/wasnorm_wordpool_576.txt	LTP250	ltpFR2	14	16	ELBOW	520	n/a	n/a	0	0	0
3266414	WORD	wordpools/wasnorm_wordpool_576.txt	LTP250	ltpFR2	14	16	STAMP	1370	n/a	n/a	0	0	0
3268951	WORD	wordpools/wasnorm_wordpool_576.txt	LTP250	ltpFR2	14	16	SCALLOP	1242	n/a	n/a	0	0	0
3271603	WORD	wordpools/wasnorm_wordpool_576.txt	LTP250	ltpFR2	14	16	PECAN	1036	n/a	n/a	0	0	0
3274121	WORD	wordpools/wasnorm_wordpool_576.txt	LTP250	ltpFR2	14	16	NAPKIN	937	n/a	n/a	0	0	0
3275740	START	n/a	LTP250	ltpFR2	14	n/a	n/a	n/a	24	n/a	n/a	n/a	n/a
3276700	DISTRACTOR	n/a	LTP250	ltpFR2	14	16	n/a	n/a	n/a	n/a	0	0	0
3276724	PROB	n/a	LTP250	ltpFR2	14	n/a	n/a	n/a	24	10	5	4	1
3278776	PROB	n/a	LTP250	ltpFR2	14	n/a	n/a	n/a	24	11	3	2	6
3281528	PROB	n/a	LTP250	ltpFR2	14	n/a	n/a	n/a	24	13	3	5	5
3282846	PROB	n/a	LTP250	ltpFR2	14	n/a	n/a	n/a	24	17	8	3	6
3285414	PROB	n/a	LTP250	ltpFR2	14	n/a	n/a	n/a	24	13	1	5	7
3287500	PROB	n/a	LTP250	ltpFR2	14	n/a	n/a	n/a	24	15	1	5	9
3290419	PROB	n/a	LTP250	ltpFR2	14	n/a	n/a	n/a	24	18	9	8	1
3292722	PROB	n/a	LTP250	ltpFR2	14	n/a	n/a	n/a	24	18	9	1	8
3299740	STOP	n/a	LTP250	ltpFR2	14	n/a	n/a	n/a	24	n/a	n/a	n/a	n/a
3301647	REC_START	n/a	LTP250	ltpFR2	14	16	n/a	n/a	n/a	n/a	0	0	0
3302509	REC_WORD	wordpools/wasnorm_wordpool_576.txt	LTP250	ltpFR2	14	16	SURVEY	1414	n/a	n/a	0	0	0
3303277	REC_WORD	wordpools/wasnorm_wordpool_576.txt	LTP250	ltpFR2	14	16	SCALLOP	1242	n/a	n/a	0	0	0
3305425	REC_WORD	wordpools/wasnorm_wordpool_576.txt	LTP250	ltpFR2	14	16	TEACHER	1440	n/a	n/a	0	0	0
3306077	REC_WORD	wordpools/wasnorm_wordpool_576.txt	LTP250	ltpFR2	14	16	GIRL	637	n/a	n/a	0	0	0
3306630	REC_WORD	wordpools/wasnorm_wordpool_576.txt	LTP250	ltpFR2	14	16	BOYFRIEND	162	n/a	n/a	0	0	0
3307452	REC_WORD	wordpools/wasnorm_wordpool_576.txt	LTP250	ltpFR2	14	16	ROBOT	1200	n/a	n/a	0	0	0
3378195	REST_REWET	n/a	LTP250	ltpFR2	14	16	n/a	n/a	n/a	n/a	0	0	0
3559220	DISTRACTOR	n/a	LTP250	ltpFR2	14	17	n/a	n/a	n/a	n/a	0	0	0
3559220	START	n/a	LTP250	ltpFR2	14	n/a	n/a	n/a	25	n/a	n/a	n/a	n/a
3559236	PROB	n/a	LTP250	ltpFR2	14	n/a	n/a	n/a	25	19	7	5	7
3561121	PROB	n/a	LTP250	ltpFR2	14	n/a	n/a	n/a	25	17	8	9	8
3564057	PROB	n/a	LTP250	ltpFR2	14	n/a	n/a	n/a	25	4	1	1	2
3566076	PROB	n/a	LTP250	ltpFR2	14	n/a	n/a	n/a	25	17	8	1	8
3571163	PROB	n/a	LTP250	ltpFR2	14	n/a	n/a	n/a	25	9	4	4	1
3574366	PROB	n/a	LTP250	ltpFR2	14	n/a	n/a	n/a	25	18	6	6	6
3578186	PROB	n/a	LTP250	ltpFR2	14	n/a	n/a	n/a	25	19	8	9	2
3580238	PROB	n/a	LTP250	ltpFR2	14	n/a	n/a	n/a	25	14	4	7	3
3581900	STOP	n/a	LTP250	ltpFR2	14	n/a	n/a	n/a	25	n/a	n/a	n/a	n/a
3584058	WORD	wordpools/wasnorm_wordpool_576.txt	LTP250	ltpFR2	14	17	ULCER	1533	n/a	n/a	0	0	0
3586644	WORD	wordpools/wasnorm_wordpool_576.txt	LTP250	ltpFR2	14	17	BEAST	108	n/a	n/a	0	0	0
3589413	WORD	wordpools/wasnorm_wordpool_576.txt	LTP250	ltpFR2	14	17	FOX	598	n/a	n/a	0	0	0
3592115	WORD	wordpools/wasnorm_wordpool_576.txt	LTP250	ltpFR2	14	17	DANDRUFF	439	n/a	n/a	0	0	0
3594702	WORD	wordpools/wasnorm_wordpool_576.txt	LTP250	ltpFR2	14	17	COUSIN	392	n/a	n/a	0	0	0
3597186	WORD	wordpools/wasnorm_wordpool_576.txt	LTP250	ltpFR2	14	17	GRAVE	658	n/a	n/a	0	0	0
3599723	WORD	wordpools/wasnorm_wordpool_576.txt	LTP250	ltpFR2	14	17	CASKET	255	n/a	n/a	0	0	0
3602507	WORD	wordpools/wasnorm_wordpool_576.txt	LTP250	ltpFR2	14	17	FLOWER	584	n/a	n/a	0	0	0
3605327	WORD	wordpools/wasnorm_wordpool_576.txt	LTP250	ltpFR2	14	17	FLIPPER	580	n/a	n/a	0	0	0
3607896	WORD	wordpools/wasnorm_wordpool_576.txt	LTP250	ltpFR2	14	17	PLIERS	1089	n/a	n/a	0	0	0
3610649	WORD	wordpools/wasnorm_wordpool_576.txt	LTP250	ltpFR2	14	17	SKILLET	1317	n/a	n/a	0	0	0
3613417	WORD	wordpools/wasnorm_wordpool_576.txt	LTP250	ltpFR2	14	17	BRICK	172	n/a	n/a	0	0	0
3616186	WORD	wordpools/wasnorm_wordpool_576.txt	LTP250	ltpFR2	14	17	FLESH	579	n/a	n/a	0	0	0
3618789	WORD	wordpools/wasnorm_wordpool_576.txt	LTP250	ltpFR2	14	17	SALMON	1227	n/a	n/a	0	0	0
3621474	WORD	wordpools/wasnorm_wordpool_576.txt	LTP250	ltpFR2	14	17	SPIDER	1351	n/a	n/a	0	0	0
3624126	WORD	wordpools/wasnorm_wordpool_576.txt	LTP250	ltpFR2	14	17	SPACE	1345	n/a	n/a	0	0	0
3626946	WORD	wordpools/wasnorm_wordpool_576.txt	LTP250	ltpFR2	14	17	ANKLE	24	n/a	n/a	0	0	0
3629481	WORD	wordpools/wasnorm_wordpool_576.txt	LTP250	ltpFR2	14	17	DUSTPAN	509	n/a	n/a	0	0	0
3632183	WORD	wordpools/wasnorm_wordpool_576.txt	LTP250	ltpFR2	14	17	TILE	1468	n/a	n/a	0	0	0
3634753	WORD	wordpools/wasnorm_wordpool_576.txt	LTP250	ltpFR2	14	17	CRATER	400	n/a	n/a	0	0	0
3637204	WORD	wordpools/wasnorm_wordpool_576.txt	LTP250	ltpFR2	14	17	DAISY	435	n/a	n/a	0	0	0
3640040	WORD	wordpools/wasnorm_wordpool_576.txt	LTP250	ltpFR2	14	17	HUMAN	726	n/a	n/a	0	0	0
3642593	WORD	wordpools/wasnorm_wordpool_576.txt	LTP250	ltpFR2	14	17	PEANUT	1032	n/a	n/a	0	0	0
3645178	WORD	wordpools/wasnorm_wordpool_576.txt	LTP250	ltpFR2	14	17	KETCHUP	771	n/a	n/a	0	0	0
3646797	START	n/a	LTP250	ltpFR2	14	n/a	n/a	n/a	26	n/a	n/a	n/a	n/a
3647913	DISTRACTOR	n/a	LTP250	ltpFR2	14	17	n/a	n/a	n/a	n/a	0	0	0
3647931	PROB	n/a	LTP250	ltpFR2	14	n/a	n/a	n/a	26	14	4	7	3
3650499	PROB	n/a	LTP250	ltpFR2	14	n/a	n/a	n/a	26	20	4	7	9
3654970	PROB	n/a	LTP250	ltpFR2	14	n/a	n/a	n/a	26	21	7	7	7
3656706	PROB	n/a	LTP250	ltpFR2	14	n/a	n/a	n/a	26	16	5	2	9
3658857	PROB	n/a	LTP250	ltpFR2	14	n/a	n/a	n/a	26	17	5	9	3
3663277	PROB	n/a	LTP250	ltpFR2	14	n/a	n/a	n/a	26	22	7	7	8
3665129	PROB	n/a	LTP250	ltpFR2	14	n/a	n/a	n/a	26	20	7	9	4
3669928	STOP	n/a	LTP250	ltpFR2	14	n/a	n/a	n/a	26	n/a	n/a	n/a	n/a
3672737	REC_START	n/a	LTP250	ltpFR2	14	17	n/a	n/a	n/a	n/a	0	0	0
3677557	REC_WORD	wordpools/wasnorm_wordpool_576.txt	LTP250	ltpFR2	14	17	CASKET	255	n/a	n/a	0	0	0
3678290	REC_WORD	wordpools/wasnorm_wordpool_576.txt	LTP250	ltpFR2	14	17	COUSIN	392	n/a	n/a	0	0	0
3678899	REC_WORD	wordpools/wasnorm_wordpool_576.txt	LTP250	ltpFR2	14	17	FLESH	579	n/a	n/a	0	0	0
3681860	REC_WORD	wordpools/wasnorm_wordpool_576.txt	LTP250	ltpFR2	14	17	GRAVE	658	n/a	n/a	0	0	0
3682803	REC_WORD	wordpools/wasnorm_wordpool_576.txt	LTP250	ltpFR2	14	17	PLIERS	1089	n/a	n/a	0	0	0
3683570	REC_WORD	wordpools/wasnorm_wordpool_576.txt	LTP250	ltpFR2	14	17	FLOWER	584	n/a	n/a	0	0	0
3684396	REC_WORD	wordpools/wasnorm_wordpool_576.txt	LTP250	ltpFR2	14	17	DAISY	435	n/a	n/a	0	0	0
3685740	REC_WORD	wordpools/wasnorm_wordpool_576.txt	LTP250	ltpFR2	14	17	KETCHUP	771	n/a	n/a	0	0	0
3686473	REC_WORD	wordpools/wasnorm_wordpool_576.txt	LTP250	ltpFR2	14	17	PEANUT	1032	n/a	n/a	0	0	0
3688277	REC_WORD	wordpools/wasnorm_wordpool_576.txt	LTP250	ltpFR2	14	17	FOX	598	n/a	n/a	0	0	0
3689079	REC_WORD	wordpools/wasnorm_wordpool_576.txt	LTP250	ltpFR2	14	17	BEAST	108	n/a	n/a	0	0	0
3763398	WORD	wordpools/wasnorm_wordpool_576.txt	LTP250	ltpFR2	14	18	DRINK	498	n/a	n/a	0	0	0
3766083	WORD	wordpools/wasnorm_wordpool_576.txt	LTP250	ltpFR2	14	18	GALLON	618	n/a	n/a	0	0	0
3768535	WORD	wordpools/wasnorm_wordpool_576.txt	LTP250	ltpFR2	14	18	HIKER	708	n/a	n/a	0	0	0
3771071	WORD	wordpools/wasnorm_wordpool_576.txt	LTP250	ltpFR2	14	18	JURY	766	n/a	n/a	0	0	0
3773540	WORD	wordpools/wasnorm_wordpool_576.txt	LTP250	ltpFR2	14	18	FIREPLACE	570	n/a	n/a	0	0	0
3776175	WORD	wordpools/wasnorm_wordpool_576.txt	LTP250	ltpFR2	14	18	JUDGE	761	n/a	n/a	0	0	0
3778829	WORD	wordpools/wasnorm_wordpool_576.txt	LTP250	ltpFR2	14	18	WINDOW	1611	n/a	n/a	0	0	0
3781330	WORD	wordpools/wasnorm_wordpool_576.txt	LTP250	ltpFR2	14	18	FLASHLIGHT	575	n/a	n/a	0	0	0
3784065	WORD	wordpools/wasnorm_wordpool_576.txt	LTP250	ltpFR2	14	18	MACHINE	852	n/a	n/a	0	0	0
3786719	WORD	wordpools/wasnorm_wordpool_576.txt	LTP250	ltpFR2	14	18	LAGOON	795	n/a	n/a	0	0	0
3789487	WORD	wordpools/wasnorm_wordpool_576.txt	LTP250	ltpFR2	14	18	ISLAND	745	n/a	n/a	0	0	0
3791957	WORD	wordpools/wasnorm_wordpool_576.txt	LTP250	ltpFR2	14	18	COBRA	336	n/a	n/a	0	0	0
3794475	WORD	wordpools/wasnorm_wordpool_576.txt	LTP250	ltpFR2	14	18	PUPIL	1143	n/a	n/a	0	0	0
3797010	WORD	wordpools/wasnorm_wordpool_576.txt	LTP250	ltpFR2	14	18	COCOON	339	n/a	n/a	0	0	0
3799764	WORD	wordpools/wasnorm_wordpool_576.txt	LTP250	ltpFR2	14	18	CITRUS	313	n/a	n/a	0	0	0
3802365	WORD	wordpools/wasnorm_wordpool_576.txt	LTP250	ltpFR2	14	18	BRIEFCASE	175	n/a	n/a	0	0	0
3805017	WORD	wordpools/wasnorm_wordpool_576.txt	LTP250	ltpFR2	14	18	PREACHER	1119	n/a	n/a	0	0	0
3807604	WORD	wordpools/wasnorm_wordpool_576.txt	LTP250	ltpFR2	14	18	FRIAR	605	n/a	n/a	0	0	0
3810205	WORD	wordpools/wasnorm_wordpool_576.txt	LTP250	ltpFR2	14	18	HAWK	692	n/a	n/a	0	0	0
3812942	WORD	wordpools/wasnorm_wordpool_576.txt	LTP250	ltpFR2	14	18	SUNSET	1408	n/a	n/a	0	0	0
3815644	WORD	wordpools/wasnorm_wordpool_576.txt	LTP250	ltpFR2	14	18	BUG	187	n/a	n/a	0	0	0
3818245	WORD	wordpools/wasnorm_wordpool_576.txt	LTP250	ltpFR2	14	18	SWAMP	1416	n/a	n/a	0	0	0
3820849	WORD	wordpools/wasnorm_wordpool_576.txt	LTP250	ltpFR2	14	18	CHILD	299	n/a	n/a	0	0	0
3823467	WORD	wordpools/wasnorm_wordpool_576.txt	LTP250	ltpFR2	14	18	CANYON	235	n/a	n/a	0	0	0
3825085	START	n/a	LTP250	ltpFR2	14	n/a	n/a	n/a	27	n/a	n/a	n/a	n/a
3826077	DISTRACTOR	n/a	LTP250	ltpFR2	14	18	n/a	n/a	n/a	n/a	0	0	0
3826086	PROB	n/a	LTP250	ltpFR2	14	n/a	n/a	n/a	27	17	1	9	7
3828387	PROB	n/a	LTP250	ltpFR2	14	n/a	n/a	n/a	27	18	4	8	6
3831608	PROB	n/a	LTP250	ltpFR2	14	n/a	n/a	n/a	27	22	7	6	9
3837312	PROB	n/a	LTP250	ltpFR2	14	n/a	n/a	n/a	27	19	4	9	6
3839765	PROB	n/a	LTP250	ltpFR2	14	n/a	n/a	n/a	27	15	5	4	6
3841115	PROB	n/a	LTP250	ltpFR2	14	n/a	n/a	n/a	27	7	1	3	3
3842768	PROB	n/a	LTP250	ltpFR2	14	n/a	n/a	n/a	27	12	2	1	9
3844769	PROB	n/a	LTP250	ltpFR2	14	n/a	n/a	n/a	27	16	7	6	3
3849085	STOP	n/a	LTP250	ltpFR2	14	n/a	n/a	n/a	27	n/a	n/a	n/a	n/a
3850892	REC_START	n/a	LTP250	ltpFR2	14	18	n/a	n/a	n/a	n/a	0	0	0
3858391	REC_WORD	wordpools/wasnorm_wordpool_576.txt	LTP250	ltpFR2	14	18	FRIAR	605	n/a	n/a	0	0	0
3859605	REC_WORD	wordpools/wasnorm_wordpool_576.txt	LTP250	ltpFR2	14	18	FRIED	-1	n/a	n/a	0	0	0
3865191	REC_WORD	wordpools/wasnorm_wordpool_576.txt	LTP250	ltpFR2	14	18	GANGSTER	620	n/a	n/a	0	0	0
3866015	REC_WORD	wordpools/wasnorm_wordpool_576.txt	LTP250	ltpFR2	14	18	BROOK	177	n/a	n/a	0	0	0
3941519	DISTRACTOR	n/a	LTP250	ltpFR2	14	19	n/a	n/a	n/a	n/a	0	0	0
3941520	START	n/a	LTP250	ltpFR2	14	n/a	n/a	n/a	28	n/a	n/a	n/a	n/a
3941553	PROB	n/a	LTP250	ltpFR2	14	n/a	n/a	n/a	28	17	7	8	2
3943421	PROB	n/a	LTP250	ltpFR2	14	n/a	n/a	n/a	28	16	4	9	3
3946708	PROB	n/a	LTP250	ltpFR2	14	n/a	n/a	n/a	28	15	4	6	5
3948710	PROB	n/a	LTP250	ltpFR2	14	n/a	n/a	n/a	28	19	8	5	6
3952329	PROB	n/a	LTP250	ltpFR2	14	n/a	n/a	n/a	28	19	6	7	6
3955315	PROB	n/a	LTP250	ltpFR2	14	n/a	n/a	n/a	28	8	6	1	1
3956634	PROB	n/a	LTP250	ltpFR2	14	n/a	n/a	n/a	28	14	8	3	3
3959368	PROB	n/a	LTP250	ltpFR2	14	n/a	n/a	n/a	28	18	6	7	2
3965520	STOP	n/a	LTP250	ltpFR2	14	n/a	n/a	n/a	28	n/a	n/a	n/a	n/a
3966726	WORD	wordpools/wasnorm_wordpool_576.txt	LTP250	ltpFR2	14	19	SHOULDER	1294	n/a	n/a	0	0	0
3969410	WORD	wordpools/wasnorm_wordpool_576.txt	LTP250	ltpFR2	14	19	CUSTARD	429	n/a	n/a	0	0	0
3972063	WORD	wordpools/wasnorm_wordpool_576.txt	LTP250	ltpFR2	14	19	MUSTARD	935	n/a	n/a	0	0	0
3974548	WORD	wordpools/wasnorm_wordpool_576.txt	LTP250	ltpFR2	14	19	GRILL	661	n/a	n/a	0	0	0
3977334	WORD	wordpools/wasnorm_wordpool_576.txt	LTP250	ltpFR2	14	19	MARROW	872	n/a	n/a	0	0	0
3979986	WORD	wordpools/wasnorm_wordpool_576.txt	LTP250	ltpFR2	14	19	BUTCHER	203	n/a	n/a	0	0	0
3982555	WORD	wordpools/wasnorm_wordpool_576.txt	LTP250	ltpFR2	14	19	AGENT	10	n/a	n/a	0	0	0
3985207	WORD	wordpools/wasnorm_wordpool_576.txt	LTP250	ltpFR2	14	19	BUREAU	199	n/a	n/a	0	0	0
3987928	WORD	wordpools/wasnorm_wordpool_576.txt	LTP250	ltpFR2	14	19	CHAMPAGNE	278	n/a	n/a	0	0	0
3990630	WORD	wordpools/wasnorm_wordpool_576.txt	LTP250	ltpFR2	14	19	GARDEN	623	n/a	n/a	0	0	0
3993381	WORD	wordpools/wasnorm_wordpool_576.txt	LTP250	ltpFR2	14	19	EYELASH	546	n/a	n/a	0	0	0
3995918	WORD	wordpools/wasnorm_wordpool_576.txt	LTP250	ltpFR2	14	19	PISTON	1076	n/a	n/a	0	0	0
3998503	WORD	wordpools/wasnorm_wordpool_576.txt	LTP250	ltpFR2	14	19	TRUCK	1512	n/a	n/a	0	0	0
4001105	WORD	wordpools/wasnorm_wordpool_576.txt	LTP250	ltpFR2	14	19	MILK	895	n/a	n/a	0	0	0
4003573	WORD	wordpools/wasnorm_wordpool_576.txt	LTP250	ltpFR2	14	19	MARKER	870	n/a	n/a	0	0	0
4006176	WORD	wordpools/wasnorm_wordpool_576.txt	LTP250	ltpFR2	14	19	CABIN	211	n/a	n/a	0	0	0
4008712	WORD	wordpools/wasnorm_wordpool_576.txt	LTP250	ltpFR2	14	19	CRAYON	401	n/a	n/a	0	0	0
4011397	WORD	wordpools/wasnorm_wordpool_576.txt	LTP250	ltpFR2	14	19	CRUTCH	417	n/a	n/a	0	0	0
4014200	WORD	wordpools/wasnorm_wordpool_576.txt	LTP250	ltpFR2	14	19	BLUEPRINT	142	n/a	n/a	0	0	0
4016703	WORD	wordpools/wasnorm_wordpool_576.txt	LTP250	ltpFR2	14	19	MEAT	883	n/a	n/a	0	0	0
4019387	WORD	wordpools/wasnorm_wordpool_576.txt	LTP250	ltpFR2	14	19	CHEST	295	n/a	n/a	0	0	0
4021840	WORD	wordpools/wasnorm_wordpool_576.txt	LTP250	ltpFR2	14	19	DUST	508	n/a	n/a	0	0	0
4024492	WORD	wordpools/wasnorm_wordpool_576.txt	LTP250	ltpFR2	14	19	CYCLONE	431	n/a	n/a	0	0	0
4027111	WORD	wordpools/wasnorm_wordpool_576.txt	LTP250	ltpFR2	14	19	GLASS	639	n/a	n/a	0	0	0
4028713	START	n/a	LTP250	ltpFR2	14	n/a	n/a	n/a	29	n/a	n/a	n/a	n/a
4029709	DISTRACTOR	n/a	LTP250	ltpFR2	14	19	n/a	n/a	n/a	n/a	0	0	0
4029714	PROB	n/a	LTP250	ltpFR2	14	n/a	n/a	n/a	29	10	2	3	5
4038220	PROB	n/a	LTP250	ltpFR2	14	n/a	n/a	n/a	29	10	1	1	8
4040807	PROB	n/a	LTP250	ltpFR2	14	n/a	n/a	n/a	29	14	5	2	7
4043175	PROB	n/a	LTP250	ltpFR2	14	n/a	n/a	n/a	29	20	6	9	5
4045493	PROB	n/a	LTP250	ltpFR2	14	n/a	n/a	n/a	29	19	5	5	9
4046862	PROB	n/a	LTP250	ltpFR2	14	n/a	n/a	n/a	29	15	4	2	9
4048814	PROB	n/a	LTP250	ltpFR2	14	n/a	n/a	n/a	29	16	2	9	5
4051767	STOP	n/a	LTP250	ltpFR2	14	n/a	n/a	n/a	29	n/a	n/a	n/a	n/a
4054653	REC_START	n/a	LTP250	ltpFR2	14	19	n/a	n/a	n/a	n/a	0	0	0
4058131	REC_WORD	wordpools/wasnorm_wordpool_576.txt	LTP250	ltpFR2	14	19	CUSTARD	429	n/a	n/a	0	0	0
4059371	REC_WORD	wordpools/wasnorm_wordpool_576.txt	LTP250	ltpFR2	14	19	CHAMPAGNE	278	n/a	n/a	0	0	0
4061119	REC_WORD	wordpools/wasnorm_wordpool_576.txt	LTP250	ltpFR2	14	19	GARDEN	623	n/a	n/a	0	0	0
4068681	REC_WORD	wordpools/wasnorm_wordpool_576.txt	LTP250	ltpFR2	14	19	BUTCHER	203	n/a	n/a	0	0	0
4145180	WORD	wordpools/wasnorm_wordpool_576.txt	LTP250	ltpFR2	14	20	SWORD	1423	n/a	n/a	0	0	0
4147633	WORD	wordpools/wasnorm_wordpool_576.txt	LTP250	ltpFR2	14	20	PRINCESS	1125	n/a	n/a	0	0	0
4150201	WORD	wordpools/wasnorm_wordpool_576.txt	LTP250	ltpFR2	14	20	BANK	83	n/a	n/a	0	0	0
4152905	WORD	wordpools/wasnorm_wordpool_576.txt	LTP250	ltpFR2	14	20	BLADE	134	n/a	n/a	0	0	0
4155439	WORD	wordpools/wasnorm_wordpool_576.txt	LTP250	ltpFR2	14	20	SCISSORS	1250	n/a	n/a	0	0	0
4157991	WORD	wordpools/wasnorm_wordpool_576.txt	LTP250	ltpFR2	14	20	AUTHOR	61	n/a	n/a	0	0	0
4160628	WORD	wordpools/wasnorm_wordpool_576.txt	LTP250	ltpFR2	14	20	POET	1095	n/a	n/a	0	0	0
4163146	WORD	wordpools/wasnorm_wordpool_576.txt	LTP250	ltpFR2	14	20	NOVEL	960	n/a	n/a	0	0	0
4165899	WORD	wordpools/wasnorm_wordpool_576.txt	LTP250	ltpFR2	14	20	MONEY	908	n/a	n/a	0	0	0
4168668	WORD	wordpools/wasnorm_wordpool_576.txt	LTP250	ltpFR2	14	20	STICKER	1382	n/a	n/a	0	0	0
4171487	WORD	wordpools/wasnorm_wordpool_576.txt	LTP250	ltpFR2	14	20	WIDOW	1608	n/a	n/a	0	0	0
4173956	WORD	wordpools/wasnorm_wordpool_576.txt	LTP250	ltpFR2	14	20	RAFT	1159	n/a	n/a	0	0	0
4176625	WORD	wordpools/wasnorm_wordpool_576.txt	LTP250	ltpFR2	14	20	NOMAD	955	n/a	n/a	0	0	0
4179227	WORD	wordpools/wasnorm_wordpool_576.txt	LTP250	ltpFR2	14	20	OINTMENT	974	n/a	n/a	0	0	0
4182046	WORD	wordpools/wasnorm_wordpool_576.txt	LTP250	ltpFR2	14	20	JUNGLE	764	n/a	n/a	0	0	0
4184514	WORD	wordpools/wasnorm_wordpool_576.txt	LTP250	ltpFR2	14	20	EGYPT	519	n/a	n/a	0	0	0
4187284	WORD	wordpools/wasnorm_wordpool_576.txt	LTP250	ltpFR2	14	20	MUMMY	932	n/a	n/a	0	0	0
4189753	WORD	wordpools/wasnorm_wordpool_576.txt	LTP250	ltpFR2	14	20	MATCH	878	n/a	n/a	0	0	0
4192205	WORD	wordpools/wasnorm_wordpool_576.txt	LTP250	ltpFR2	14	20	THRONE	1461	n/a	n/a	0	0	0
4195007	WORD	wordpools/wasnorm_wordpool_576.txt	LTP250	ltpFR2	14	20	HORNET	718	n/a	n/a	0	0	0
4197559	WORD	wordpools/wasnorm_wordpool_576.txt	LTP250	ltpFR2	14	20	PRINCE	1124	n/a	n/a	0	0	0
4200011	WORD	wordpools/wasnorm_wordpool_576.txt	LTP250	ltpFR2	14	20	CLOUD	328	n/a	n/a	0	0	0
4202715	WORD	wordpools/wasnorm_wordpool_576.txt	LTP250	ltpFR2	14	20	ACTOR	5	n/a	n/a	0	0	0
4205433	WORD	wordpools/wasnorm_wordpool_576.txt	LTP250	ltpFR2	14	20	BRAKE	166	n/a	n/a	0	0	0
4207051	START	n/a	LTP250	ltpFR2	14	n/a	n/a	n/a	30	n/a	n/a	n/a	n/a
4207896	DISTRACTOR	n/a	LTP250	ltpFR2	14	20	n/a	n/a	n/a	n/a	0	0	0
4207919	PROB	n/a	LTP250	ltpFR2	14	n/a	n/a	n/a	30	12	9	2	1
4212522	PROB	n/a	LTP250	ltpFR2	14	n/a	n/a	n/a	30	9	3	2	4
4215225	PROB	n/a	LTP250	ltpFR2	14	n/a	n/a	n/a	30	19	9	5	5
4216594	PROB	n/a	LTP250	ltpFR2	14	n/a	n/a	n/a	30	21	8	8	5
4219963	PROB	n/a	LTP250	ltpFR2	14	n/a	n/a	n/a	30	22	7	8	9
4222981	PROB	n/a	LTP250	ltpFR2	14	n/a	n/a	n/a	30	18	3	6	9
4225918	PROB	n/a	LTP250	ltpFR2	14	n/a	n/a	n/a	30	14	7	2	5
4229742	STOP	n/a	LTP250	ltpFR2	14	n/a	n/a	n/a	30	n/a	n/a	n/a	n/a
4232991	REC_START	n/a	LTP250	ltpFR2	14	20	n/a	n/a	n/a	n/a	0	0	0
4259050	REC_WORD	wordpools/wasnorm_wordpool_576.txt	LTP250	ltpFR2	14	20	ROCKET	1202	n/a	n/a	0	0	0
4323452	WORD	wordpools/wasnorm_wordpool_576.txt	LTP250	ltpFR2	14	21	CASHEW	253	n/a	n/a	0	0	0
4326071	WORD	wordpools/wasnorm_wordpool_576.txt	LTP250	ltpFR2	14	21	MAILMAN	858	n/a	n/a	0	0	0
4328891	WORD	wordpools/wasnorm_wordpool_576.txt	LTP250	ltpFR2	14	21	STATUE	1374	n/a	n/a	0	0	0
4331594	WORD	wordpools/wasnorm_wordpool_576.txt	LTP250	ltpFR2	14	21	ICEBERG	731	n/a	n/a	0	0	0
4334312	WORD	wordpools/wasnorm_wordpool_576.txt	LTP250	ltpFR2	14	21	GLOBE	641	n/a	n/a	0	0	0
4337114	WORD	wordpools/wasnorm_wordpool_576.txt	LTP250	ltpFR2	14	21	SEAL	1262	n/a	n/a	0	0	0
4339667	WORD	wordpools/wasnorm_wordpool_576.txt	LTP250	ltpFR2	14	21	DIME	466	n/a	n/a	0	0	0
4342452	WORD	wordpools/wasnorm_wordpool_576.txt	LTP250	ltpFR2	14	21	OMELET	976	n/a	n/a	0	0	0
4345038	WORD	wordpools/wasnorm_wordpool_576.txt	LTP250	ltpFR2	14	21	SIBLING	1301	n/a	n/a	0	0	0
4347774	WORD	wordpools/wasnorm_wordpool_576.txt	LTP250	ltpFR2	14	21	GIFT	635	n/a	n/a	0	0	0
4350359	WORD	wordpools/wasnorm_wordpool_576.txt	LTP250	ltpFR2	14	21	LAPEL	800	n/a	n/a	0	0	0
4352879	WORD	wordpools/wasnorm_wordpool_576.txt	LTP250	ltpFR2	14	21	LILY	821	n/a	n/a	0	0	0
4355547	WORD	wordpools/wasnorm_wordpool_576.txt	LTP250	ltpFR2	14	21	BABY	64	n/a	n/a	0	0	0
4358099	WORD	wordpools/wasnorm_wordpool_576.txt	LTP250	ltpFR2	14	21	DONKEY	484	n/a	n/a	0	0	0
4360551	WORD	wordpools/wasnorm_wordpool_576.txt	LTP250	ltpFR2	14	21	LUGGAGE	847	n/a	n/a	0	0	0
4363320	WORD	wordpools/wasnorm_wordpool_576.txt	LTP250	ltpFR2	14	21	TOURIST	1488	n/a	n/a	0	0	0
4365957	WORD	wordpools/wasnorm_wordpool_576.txt	LTP250	ltpFR2	14	21	PASSAGE	1019	n/a	n/a	0	0	0
4368726	WORD	wordpools/wasnorm_wordpool_576.txt	LTP250	ltpFR2	14	21	KNAPSACK	783	n/a	n/a	0	0	0
4371477	WORD	wordpools/wasnorm_wordpool_576.txt	LTP250	ltpFR2	14	21	BROTHER	179	n/a	n/a	0	0	0
4374163	WORD	wordpools/wasnorm_wordpool_576.txt	LTP250	ltpFR2	14	21	PLAZA	1088	n/a	n/a	0	0	0
4376950	WORD	wordpools/wasnorm_wordpool_576.txt	LTP250	ltpFR2	14	21	FLUTE	585	n/a	n/a	0	0	0
4379518	WORD	wordpools/wasnorm_wordpool_576.txt	LTP250	ltpFR2	14	21	PIANO	1057	n/a	n/a	0	0	0
4382020	WORD	wordpools/wasnorm_wordpool_576.txt	LTP250	ltpFR2	14	21	ASIA	46	n/a	n/a	0	0	0
4384740	WORD	wordpools/wasnorm_wordpool_576.txt	LTP250	ltpFR2	14	21	CRIB	407	n/a	n/a	0	0	0
4386357	START	n/a	LTP250	ltpFR2	14	n/a	n/a	n/a	31	n/a	n/a	n/a	n/a
4387311	DISTRACTOR	n/a	LTP250	ltpFR2	14	21	n/a	n/a	n/a	n/a	0	0	0
4387325	PROB	n/a	LTP250	ltpFR2	14	n/a	n/a	n/a	31	10	1	3	6
4389076	PROB	n/a	LTP250	ltpFR2	14	n/a	n/a	n/a	31	9	1	3	5
4391278	PROB	n/a	LTP250	ltpFR2	14	n/a	n/a	n/a	31	16	6	9	1
4392697	PROB	n/a	LTP250	ltpFR2	14	n/a	n/a	n/a	31	14	2	8	4
4394498	PROB	n/a	LTP250	ltpFR2	14	n/a	n/a	n/a	31	19	5	5	9
4395750	PROB	n/a	LTP250	ltpFR2	14	n/a	n/a	n/a	31	19	6	8	5
4400103	PROB	n/a	LTP250	ltpFR2	14	n/a	n/a	n/a	31	6	3	1	2
4401872	PROB	n/a	LTP250	ltpFR2	14	n/a	n/a	n/a	31	9	1	5	3
4404724	PROB	n/a	LTP250	ltpFR2	14	n/a	n/a	n/a	31	10	5	4	1
4406458	PROB	n/a	LTP250	ltpFR2	14	n/a	n/a	n/a	31	18	7	5	6
4408941	STOP	n/a	LTP250	ltpFR2	14	n/a	n/a	n/a	31	n/a	n/a	n/a	n/a
4412230	REC_START	n/a	LTP250	ltpFR2	14	21	n/a	n/a	n/a	n/a	0	0	0
4413808	REC_WORD	wordpools/wasnorm_wordpool_576.txt	LTP250	ltpFR2	14	21	TOURIST	1488	n/a	n/a	0	0	0
4414506	REC_WORD	wordpools/wasnorm_wordpool_576.txt	LTP250	ltpFR2	14	21	PLAZA	1088	n/a	n/a	0	0	0
4415176	REC_WORD	wordpools/wasnorm_wordpool_576.txt	LTP250	ltpFR2	14	21	KNAPSACK	783	n/a	n/a	0	0	0
4502893	WORD	wordpools/wasnorm_wordpool_576.txt	LTP250	ltpFR2	14	22	SILK	1307	n/a	n/a	0	0	0
4505544	WORD	wordpools/wasnorm_wordpool_576.txt	LTP250	ltpFR2	14	22	WITNESS	1618	n/a	n/a	0	0	0
4508130	WORD	wordpools/wasnorm_wordpool_576.txt	LTP250	ltpFR2	14	22	BRACES	164	n/a	n/a	0	0	0
4510933	WORD	wordpools/wasnorm_wordpool_576.txt	LTP250	ltpFR2	14	22	STOVE	1388	n/a	n/a	0	0	0
4513501	WORD	wordpools/wasnorm_wordpool_576.txt	LTP250	ltpFR2	14	22	BISON	131	n/a	n/a	0	0	0
4516104	WORD	wordpools/wasnorm_wordpool_576.txt	LTP250	ltpFR2	14	22	OX	994	n/a	n/a	0	0	0
4518740	WORD	wordpools/wasnorm_wordpool_576.txt	LTP250	ltpFR2	14	22	SHELTER	1282	n/a	n/a	0	0	0
4521258	WORD	wordpools/wasnorm_wordpool_576.txt	LTP250	ltpFR2	14	22	PASTRY	1022	n/a	n/a	0	0	0
4523845	WORD	wordpools/wasnorm_wordpool_576.txt	LTP250	ltpFR2	14	22	PALACE	1006	n/a	n/a	0	0	0
4526279	WORD	wordpools/wasnorm_wordpool_576.txt	LTP250	ltpFR2	14	22	DRIVER	499	n/a	n/a	0	0	0
4528715	WORD	wordpools/wasnorm_wordpool_576.txt	LTP250	ltpFR2	14	22	TROMBONE	1508	n/a	n/a	0	0	0
4531484	WORD	wordpools/wasnorm_wordpool_576.txt	LTP250	ltpFR2	14	22	APPLE	33	n/a	n/a	0	0	0
4533953	WORD	wordpools/wasnorm_wordpool_576.txt	LTP250	ltpFR2	14	22	NECKLACE	940	n/a	n/a	0	0	0
4536606	WORD	wordpools/wasnorm_wordpool_576.txt	LTP250	ltpFR2	14	22	PENGUIN	1044	n/a	n/a	0	0	0
4539374	WORD	wordpools/wasnorm_wordpool_576.txt	LTP250	ltpFR2	14	22	MAMMAL	861	n/a	n/a	0	0	0
4541860	WORD	wordpools/wasnorm_wordpool_576.txt	LTP250	ltpFR2	14	22	DINER	467	n/a	n/a	0	0	0
4544328	WORD	wordpools/wasnorm_wordpool_576.txt	LTP250	ltpFR2	14	22	TURKEY	1520	n/a	n/a	0	0	0
4546848	WORD	wordpools/wasnorm_wordpool_576.txt	LTP250	ltpFR2	14	22	SUBWAY	1400	n/a	n/a	0	0	0
4549634	WORD	wordpools/wasnorm_wordpool_576.txt	LTP250	ltpFR2	14	22	ROBIN	1199	n/a	n/a	0	0	0
4552085	WORD	wordpools/wasnorm_wordpool_576.txt	LTP250	ltpFR2	14	22	KEEPER	769	n/a	n/a	0	0	0
4554588	WORD	wordpools/wasnorm_wordpool_576.txt	LTP250	ltpFR2	14	22	POWDER	1117	n/a	n/a	0	0	0
4557339	WORD	wordpools/wasnorm_wordpool_576.txt	LTP250	ltpFR2	14	22	RATTLE	1170	n/a	n/a	0	0	0
4559926	WORD	wordpools/wasnorm_wordpool_576.txt	LTP250	ltpFR2	14	22	SPARROW	1347	n/a	n/a	0	0	0
4562427	WORD	wordpools/wasnorm_wordpool_576.txt	LTP250	ltpFR2	14	22	MESSAGE	888	n/a	n/a	0	0	0
4564046	START	n/a	LTP250	ltpFR2	14	n/a	n/a	n/a	32	n/a	n/a	n/a	n/a
4565114	DISTRACTOR	n/a	LTP250	ltpFR2	14	22	n/a	n/a	n/a	n/a	0	0	0
4565130	PROB	n/a	LTP250	ltpFR2	14	n/a	n/a	n/a	32	18	4	8	6
4567065	PROB	n/a	LTP250	ltpFR2	14	n/a	n/a	n/a	32	12	5	2	5
4568516	PROB	n/a	LTP250	ltpFR2	14	n/a	n/a	n/a	32	13	5	1	7
4570719	PROB	n/a	LTP250	ltpFR2	14	n/a	n/a	n/a	32	13	6	1	6
4572152	PROB	n/a	LTP250	ltpFR2	14	n/a	n/a	n/a	32	17	9	5	3
4574939	PROB	n/a	LTP250	ltpFR2	14	n/a	n/a	n/a	32	18	8	9	1
4577808	PROB	n/a	LTP250	ltpFR2	14	n/a	n/a	n/a	32	8	2	1	5
4580661	PROB	n/a	LTP250	ltpFR2	14	n/a	n/a	n/a	32	16	8	4	4
4583062	PROB	n/a	LTP250	ltpFR2	14	n/a	n/a	n/a	32	17	4	4	9
4588046	STOP	n/a	LTP250	ltpFR2	14	n/a	n/a	n/a	32	n/a	n/a	n/a	n/a
4590018	REC_START	n/a	LTP250	ltpFR2	14	22	n/a	n/a	n/a	n/a	0	0	0
4591326	REC_WORD	wordpools/wasnorm_wordpool_576.txt	LTP250	ltpFR2	14	22	KEEPER	769	n/a	n/a	0	0	0
4592153	REC_WORD	wordpools/wasnorm_wordpool_576.txt	LTP250	ltpFR2	14	22	RATTLE	1170	n/a	n/a	0	0	0
4680648	DISTRACTOR	n/a	LTP250	ltpFR2	14	23	n/a	n/a	n/a	n/a	0	0	0
4680648	START	n/a	LTP250	ltpFR2	14	n/a	n/a	n/a	33	n/a	n/a	n/a	n/a
4680681	PROB	n/a	LTP250	ltpFR2	14	n/a	n/a	n/a	33	14	9	7	6
4687269	PROB	n/a	LTP250	ltpFR2	14	n/a	n/a	n/a	33	18	5	9	4
4689606	PROB	n/a	LTP250	ltpFR2	14	n/a	n/a	n/a	33	16	3	7	6
4691156	PROB	n/a	LTP250	ltpFR2	14	n/a	n/a	n/a	33	15	2	8	5
4692507	PROB	n/a	LTP250	ltpFR2	14	n/a	n/a	n/a	33	16	4	3	9
4697078	PROB	n/a	LTP250	ltpFR2	14	n/a	n/a	n/a	33	18	7	7	4
4698864	PROB	n/a	LTP250	ltpFR2	14	n/a	n/a	n/a	33	19	9	7	3
4700816	PROB	n/a	LTP250	ltpFR2	14	n/a	n/a	n/a	33	22	6	9	7
4703176	STOP	n/a	LTP250	ltpFR2	14	n/a	n/a	n/a	33	n/a	n/a	n/a	n/a
4705653	WORD	wordpools/wasnorm_wordpool_576.txt	LTP250	ltpFR2	14	23	SCARF	1246	n/a	n/a	0	0	0
4708221	WORD	wordpools/wasnorm_wordpool_576.txt	LTP250	ltpFR2	14	23	MEDAL	885	n/a	n/a	0	0	0
4711023	WORD	wordpools/wasnorm_wordpool_576.txt	LTP250	ltpFR2	14	23	BALLOON	75	n/a	n/a	0	0	0
4713777	WORD	wordpools/wasnorm_wordpool_576.txt	LTP250	ltpFR2	14	23	LAVA	804	n/a	n/a	0	0	0
4716428	WORD	wordpools/wasnorm_wordpool_576.txt	LTP250	ltpFR2	14	23	LONDON	843	n/a	n/a	0	0	0
4719247	WORD	wordpools/wasnorm_wordpool_576.txt	LTP250	ltpFR2	14	23	CARRIAGE	248	n/a	n/a	0	0	0
4721867	WORD	wordpools/wasnorm_wordpool_576.txt	LTP250	ltpFR2	14	23	COTTAGE	384	n/a	n/a	0	0	0
4724636	WORD	wordpools/wasnorm_wordpool_576.txt	LTP250	ltpFR2	14	23	COUNTY	389	n/a	n/a	0	0	0
4727388	WORD	wordpools/wasnorm_wordpool_576.txt	LTP250	ltpFR2	14	23	SUPPER	1411	n/a	n/a	0	0	0
4730023	WORD	wordpools/wasnorm_wordpool_576.txt	LTP250	ltpFR2	14	23	SNACK	1331	n/a	n/a	0	0	0
4732542	WORD	wordpools/wasnorm_wordpool_576.txt	LTP250	ltpFR2	14	23	CHAUFFEUR	283	n/a	n/a	0	0	0
4735194	WORD	wordpools/wasnorm_wordpool_576.txt	LTP250	ltpFR2	14	23	NURSE	963	n/a	n/a	0	0	0
4737898	WORD	wordpools/wasnorm_wordpool_576.txt	LTP250	ltpFR2	14	23	DRUG	501	n/a	n/a	0	0	0
4740399	WORD	wordpools/wasnorm_wordpool_576.txt	LTP250	ltpFR2	14	23	MARS	873	n/a	n/a	0	0	0
4742969	WORD	wordpools/wasnorm_wordpool_576.txt	LTP250	ltpFR2	14	23	DORM	488	n/a	n/a	0	0	0
4745788	WORD	wordpools/wasnorm_wordpool_576.txt	LTP250	ltpFR2	14	23	TAXI	1438	n/a	n/a	0	0	0
4748322	WORD	wordpools/wasnorm_wordpool_576.txt	LTP250	ltpFR2	14	23	TRANSPLANT	1496	n/a	n/a	0	0	0
4750842	WORD	wordpools/wasnorm_wordpool_576.txt	LTP250	ltpFR2	14	23	MAILBOX	857	n/a	n/a	0	0	0
4753410	WORD	wordpools/wasnorm_wordpool_576.txt	LTP250	ltpFR2	14	23	PACKAGE	997	n/a	n/a	0	0	0
4756046	WORD	wordpools/wasnorm_wordpool_576.txt	LTP250	ltpFR2	14	23	GYMNAST	675	n/a	n/a	0	0	0
4758699	WORD	wordpools/wasnorm_wordpool_576.txt	LTP250	ltpFR2	14	23	BEEF	113	n/a	n/a	0	0	0
4761501	WORD	wordpools/wasnorm_wordpool_576.txt	LTP250	ltpFR2	14	23	KIDNEY	776	n/a	n/a	0	0	0
4764103	WORD	wordpools/wasnorm_wordpool_576.txt	LTP250	ltpFR2	14	23	VALVE	1546	n/a	n/a	0	0	0
4766756	WORD	wordpools/wasnorm_wordpool_576.txt	LTP250	ltpFR2	14	23	YOLK	1633	n/a	n/a	0	0	0
4768374	START	n/a	LTP250	ltpFR2	14	n/a	n/a	n/a	34	n/a	n/a	n/a	n/a
4769480	DISTRACTOR	n/a	LTP250	ltpFR2	14	23	n/a	n/a	n/a	n/a	0	0	0
4769491	PROB	n/a	LTP250	ltpFR2	14	n/a	n/a	n/a	34	17	3	9	5
4773696	PROB	n/a	LTP250	ltpFR2	14	n/a	n/a	n/a	34	8	1	1	6
4774963	PROB	n/a	LTP250	ltpFR2	14	n/a	n/a	n/a	34	19	5	8	6
4778115	PROB	n/a	LTP250	ltpFR2	14	n/a	n/a	n/a	34	13	4	4	5
4783570	PROB	n/a	LTP250	ltpFR2	14	n/a	n/a	n/a	34	10	1	3	6
4785188	PROB	n/a	LTP250	ltpFR2	14	n/a	n/a	n/a	34	13	8	2	3
4786774	PROB	n/a	LTP250	ltpFR2	14	n/a	n/a	n/a	34	16	2	5	9
4789693	PROB	n/a	LTP250	ltpFR2	14	n/a	n/a	n/a	34	8	1	3	4
4791236	STOP	n/a	LTP250	ltpFR2	14	n/a	n/a	n/a	34	n/a	n/a	n/a	n/a
4794263	REC_START	n/a	LTP250	ltpFR2	14	23	n/a	n/a	n/a	n/a	0	0	0
4795107	REC_WORD	wordpools/wasnorm_wordpool_576.txt	LTP250	ltpFR2	14	23	GYMNAST	675	n/a	n/a	0	0	0
4795742	REC_WORD	wordpools/wasnorm_wordpool_576.txt	LTP250	ltpFR2	14	23	YOLK	1633	n/a	n/a	0	0	0
4796278	REC_WORD	wordpools/wasnorm_wordpool_576.txt	LTP250	ltpFR2	14	23	LEADER	807	n/a	n/a	0	0	0
4800299	REC_WORD	wordpools/wasnorm_wordpool_576.txt	LTP250	ltpFR2	14	23	CASHEW	253	n/a	n/a	0	0	0
4884893	DISTRACTOR	n/a	LTP250	ltpFR2	14	24	n/a	n/a	n/a	n/a	0	0	0
4884893	START	n/a	LTP250	ltpFR2	14	n/a	n/a	n/a	35	n/a	n/a	n/a	n/a
4884926	PROB	n/a	LTP250	ltpFR2	14	n/a	n/a	n/a	35	9	1	4	4
4886711	PROB	n/a	LTP250	ltpFR2	14	n/a	n/a	n/a	35	17	5	2	6
4889914	PROB	n/a	LTP250	ltpFR2	14	n/a	n/a	n/a	35	24	8	8	8
4892398	PROB	n/a	LTP250	ltpFR2	14	n/a	n/a	n/a	35	11	6	2	3
4894818	PROB	n/a	LTP250	ltpFR2	14	n/a	n/a	n/a	35	11	7	3	1
4897452	PROB	n/a	LTP250	ltpFR2	14	n/a	n/a	n/a	35	12	8	3	3
4899839	PROB	n/a	LTP250	ltpFR2	14	n/a	n/a	n/a	35	16	1	9	6
4901573	PROB	n/a	LTP250	ltpFR2	14	n/a	n/a	n/a	35	4	2	1	1
4902974	PROB	n/a	LTP250	ltpFR2	14	n/a	n/a	n/a	35	9	1	2	6
4906477	PROB	n/a	LTP250	ltpFR2	14	n/a	n/a	n/a	35	12	2	3	7
4908825	STOP	n/a	LTP250	ltpFR2	14	n/a	n/a	n/a	35	n/a	n/a	n/a	n/a
4910063	WORD	wordpools/wasnorm_wordpool_576.txt	LTP250	ltpFR2	14	24	TYPIST	1532	n/a	n/a	0	0	0
4912700	WORD	wordpools/wasnorm_wordpool_576.txt	LTP250	ltpFR2	14	24	MAPLE	866	n/a	n/a	0	0	0
4915335	WORD	wordpools/wasnorm_wordpool_576.txt	LTP250	ltpFR2	14	24	EMPIRE	530	n/a	n/a	0	0	0
4917905	WORD	wordpools/wasnorm_wordpool_576.txt	LTP250	ltpFR2	14	24	PILOT	1070	n/a	n/a	0	0	0
4920573	WORD	wordpools/wasnorm_wordpool_576.txt	LTP250	ltpFR2	14	24	VENUS	1557	n/a	n/a	0	0	0
4923042	WORD	wordpools/wasnorm_wordpool_576.txt	LTP250	ltpFR2	14	24	ROBBER	1197	n/a	n/a	0	0	0
4925878	WORD	wordpools/wasnorm_wordpool_576.txt	LTP250	ltpFR2	14	24	DOUGHNUT	490	n/a	n/a	0	0	0
4928647	WORD	wordpools/wasnorm_wordpool_576.txt	LTP250	ltpFR2	14	24	ROOSTER	1209	n/a	n/a	0	0	0
4931349	WORD	wordpools/wasnorm_wordpool_576.txt	LTP250	ltpFR2	14	24	ANTLER	29	n/a	n/a	0	0	0
4933835	WORD	wordpools/wasnorm_wordpool_576.txt	LTP250	ltpFR2	14	24	GRAVEL	659	n/a	n/a	0	0	0
4936286	WORD	wordpools/wasnorm_wordpool_576.txt	LTP250	ltpFR2	14	24	VALLEY	1545	n/a	n/a	0	0	0
4938856	WORD	wordpools/wasnorm_wordpool_576.txt	LTP250	ltpFR2	14	24	AIRPORT	13	n/a	n/a	0	0	0
4941558	WORD	wordpools/wasnorm_wordpool_576.txt	LTP250	ltpFR2	14	24	SIDEWALK	1303	n/a	n/a	0	0	0
4944260	WORD	wordpools/wasnorm_wordpool_576.txt	LTP250	ltpFR2	14	24	MATTRESS	879	n/a	n/a	0	0	0
4946880	WORD	wordpools/wasnorm_wordpool_576.txt	LTP250	ltpFR2	14	24	LAKE	796	n/a	n/a	0	0	0
4949581	WORD	wordpools/wasnorm_wordpool_576.txt	LTP250	ltpFR2	14	24	BUCKET	184	n/a	n/a	0	0	0
4952050	WORD	wordpools/wasnorm_wordpool_576.txt	LTP250	ltpFR2	14	24	GREASE	660	n/a	n/a	0	0	0
4954536	WORD	wordpools/wasnorm_wordpool_576.txt	LTP250	ltpFR2	14	24	ATLAS	53	n/a	n/a	0	0	0
4957055	WORD	wordpools/wasnorm_wordpool_576.txt	LTP250	ltpFR2	14	24	STREAM	1392	n/a	n/a	0	0	0
4959841	WORD	wordpools/wasnorm_wordpool_576.txt	LTP250	ltpFR2	14	24	SOFTBALL	1343	n/a	n/a	0	0	0
4962459	WORD	wordpools/wasnorm_wordpool_576.txt	LTP250	ltpFR2	14	24	CRICKET	408	n/a	n/a	0	0	0
4965128	WORD	wordpools/wasnorm_wordpool_576.txt	LTP250	ltpFR2	14	24	SALT	1229	n/a	n/a	0	0	0
4967648	WORD	wordpools/wasnorm_wordpool_576.txt	LTP250	ltpFR2	14	24	GARLIC	624	n/a	n/a	0	0	0
4970399	WORD	wordpools/wasnorm_wordpool_576.txt	LTP250	ltpFR2	14	24	PADDING	999	n/a	n/a	0	0	0
4972018	START	n/a	LTP250	ltpFR2	14	n/a	n/a	n/a	36	n/a	n/a	n/a	n/a
4973057	DISTRACTOR	n/a	LTP250	ltpFR2	14	24	n/a	n/a	n/a	n/a	0	0	0
4973085	PROB	n/a	LTP250	ltpFR2	14	n/a	n/a	n/a	36	12	7	3	2
4975688	PROB	n/a	LTP250	ltpFR2	14	n/a	n/a	n/a	36	18	9	5	4
4979692	PROB	n/a	LTP250	ltpFR2	14	n/a	n/a	n/a	36	13	8	4	1
4982043	PROB	n/a	LTP250	ltpFR2	14	n/a	n/a	n/a	36	17	7	8	2
4984228	PROB	n/a	LTP250	ltpFR2	14	n/a	n/a	n/a	36	18	8	9	1
4986146	PROB	n/a	LTP250	ltpFR2	14	n/a	n/a	n/a	36	10	1	3	6
4987998	PROB	n/a	LTP250	ltpFR2	14	n/a	n/a	n/a	36	20	5	9	7
4990500	PROB	n/a	LTP250	ltpFR2	14	n/a	n/a	n/a	36	7	4	1	2
4995621	STOP	n/a	LTP250	ltpFR2	14	n/a	n/a	n/a	36	n/a	n/a	n/a	n/a
4997791	REC_START	n/a	LTP250	ltpFR2	14	24	n/a	n/a	n/a	n/a	0	0	0
4998659	REC_WORD	wordpools/wasnorm_wordpool_576.txt	LTP250	ltpFR2	14	24	GARLIC	624	n/a	n/a	0	0	0
4999255	REC_WORD	wordpools/wasnorm_wordpool_576.txt	LTP250	ltpFR2	14	24	STREAM	1392	n/a	n/a	0	0	0
4999947	REC_WORD	wordpools/wasnorm_wordpool_576.txt	LTP250	ltpFR2	14	24	ATLAS	53	n/a	n/a	0	0	0
5000815	REC_WORD	wordpools/wasnorm_wordpool_576.txt	LTP250	ltpFR2	14	24	SALT	1229	n/a	n/a	0	0	0
5002175	REC_WORD	wordpools/wasnorm_wordpool_576.txt	LTP250	ltpFR2	14	24	PADDING	999	n/a	n/a	0	0	0
5076560	SESS_END	n/a	LTP250	ltpFR2	14	24	n/a	n/a	n/a	n/a	0	0	0
