onset	duration	trial_type	sample	stim_file	subject	experiment	session	trial	item_name	item_num	list	answer	test_x	test_y	test_z
-0.002	n/a	SESS_START	-1	n/a	LTP293	ltpFR2	5	n/a	n/a	n/a	n/a	n/a	0	0	0
222.786	n/a	SESS_START	111393	n/a	LTP293	ltpFR2	5	n/a	n/a	n/a	n/a	n/a	0	0	0
235.934	n/a	START	117967	n/a	LTP293	ltpFR2	5	n/a	n/a	n/a	-1	n/a	n/a	n/a	n/a
235.966	n/a	PROB	117983	n/a	LTP293	ltpFR2	5	n/a	n/a	n/a	-1	19	5	6	8
237.832	n/a	PROB	118916	n/a	LTP293	ltpFR2	5	n/a	n/a	n/a	-1	18	6	9	3
238.968	n/a	PROB	119484	n/a	LTP293	ltpFR2	5	n/a	n/a	n/a	-1	14	2	8	4
240.068	n/a	PROB	120034	n/a	LTP293	ltpFR2	5	n/a	n/a	n/a	-1	20	8	4	8
241.252	n/a	PROB	120626	n/a	LTP293	ltpFR2	5	n/a	n/a	n/a	-1	13	2	2	9
242.838	n/a	PROB	121419	n/a	LTP293	ltpFR2	5	n/a	n/a	n/a	-1	19	6	8	5
244.238	n/a	PROB	122119	n/a	LTP293	ltpFR2	5	n/a	n/a	n/a	-1	14	7	2	5
245.372	n/a	PROB	122686	n/a	LTP293	ltpFR2	5	n/a	n/a	n/a	-1	17	6	7	4
246.818	n/a	STOP	123409	n/a	LTP293	ltpFR2	5	n/a	n/a	n/a	-1	n/a	n/a	n/a	n/a
282.122	n/a	DISTRACTOR	141061	n/a	LTP293	ltpFR2	5	1	n/a	n/a	n/a	n/a	0	0	0
282.122	n/a	START	141061	n/a	LTP293	ltpFR2	5	n/a	n/a	n/a	1	n/a	n/a	n/a	n/a
282.154	n/a	PROB	141077	n/a	LTP293	ltpFR2	5	n/a	n/a	n/a	1	13	1	7	5
283.404	n/a	PROB	141702	n/a	LTP293	ltpFR2	5	n/a	n/a	n/a	1	16	4	7	5
284.822	n/a	PROB	142411	n/a	LTP293	ltpFR2	5	n/a	n/a	n/a	1	23	9	8	6
286.558	n/a	PROB	143279	n/a	LTP293	ltpFR2	5	n/a	n/a	n/a	1	16	6	6	4
287.708	n/a	PROB	143854	n/a	LTP293	ltpFR2	5	n/a	n/a	n/a	1	13	5	1	7
288.944	n/a	PROB	144472	n/a	LTP293	ltpFR2	5	n/a	n/a	n/a	1	22	9	6	7
290.144	n/a	PROB	145072	n/a	LTP293	ltpFR2	5	n/a	n/a	n/a	1	12	3	7	2
291.212	n/a	PROB	145606	n/a	LTP293	ltpFR2	5	n/a	n/a	n/a	1	16	7	3	6
292.23	n/a	PROB	146115	n/a	LTP293	ltpFR2	5	n/a	n/a	n/a	1	13	2	3	8
293.446	n/a	PROB	146723	n/a	LTP293	ltpFR2	5	n/a	n/a	n/a	1	19	1	9	9
294.882	n/a	PROB	147441	n/a	LTP293	ltpFR2	5	n/a	n/a	n/a	1	20	6	5	9
297.068	n/a	PROB	148534	n/a	LTP293	ltpFR2	5	n/a	n/a	n/a	1	10	7	2	1
298.368	n/a	PROB	149184	n/a	LTP293	ltpFR2	5	n/a	n/a	n/a	1	15	5	1	9
299.568	n/a	PROB	149784	n/a	LTP293	ltpFR2	5	n/a	n/a	n/a	1	15	3	9	3
300.854	n/a	PROB	150427	n/a	LTP293	ltpFR2	5	n/a	n/a	n/a	1	18	2	7	9
301.838	n/a	PROB	150919	n/a	LTP293	ltpFR2	5	n/a	n/a	n/a	1	15	1	7	7
302.872	n/a	PROB	151436	n/a	LTP293	ltpFR2	5	n/a	n/a	n/a	1	14	3	4	7
303.94	n/a	PROB	151970	n/a	LTP293	ltpFR2	5	n/a	n/a	n/a	1	16	6	8	2
305.116	n/a	STOP	152558	n/a	LTP293	ltpFR2	5	n/a	n/a	n/a	1	n/a	n/a	n/a	n/a
307.308	n/a	WORD	153654	wordpools/wasnorm_wordpool_576.txt	LTP293	ltpFR2	5	1	AUTHOR	61	n/a	n/a	0	0	0
310.078	n/a	WORD	155039	wordpools/wasnorm_wordpool_576.txt	LTP293	ltpFR2	5	1	JOURNAL	760	n/a	n/a	0	0	0
312.612	n/a	WORD	156306	wordpools/wasnorm_wordpool_576.txt	LTP293	ltpFR2	5	1	VIKING	1565	n/a	n/a	0	0	0
315.448	n/a	WORD	157724	wordpools/wasnorm_wordpool_576.txt	LTP293	ltpFR2	5	1	CRAB	397	n/a	n/a	0	0	0
318.268	n/a	WORD	159134	wordpools/wasnorm_wordpool_576.txt	LTP293	ltpFR2	5	1	YACHT	1629	n/a	n/a	0	0	0
320.852	n/a	WORD	160426	wordpools/wasnorm_wordpool_576.txt	LTP293	ltpFR2	5	1	CASKET	255	n/a	n/a	0	0	0
323.304	n/a	WORD	161652	wordpools/wasnorm_wordpool_576.txt	LTP293	ltpFR2	5	1	PARTNER	1017	n/a	n/a	0	0	0
325.758	n/a	WORD	162879	wordpools/wasnorm_wordpool_576.txt	LTP293	ltpFR2	5	1	SHELTER	1282	n/a	n/a	0	0	0
328.192	n/a	WORD	164096	wordpools/wasnorm_wordpool_576.txt	LTP293	ltpFR2	5	1	KEEPER	769	n/a	n/a	0	0	0
330.962	n/a	WORD	165481	wordpools/wasnorm_wordpool_576.txt	LTP293	ltpFR2	5	1	RAFT	1159	n/a	n/a	0	0	0
333.78	n/a	WORD	166890	wordpools/wasnorm_wordpool_576.txt	LTP293	ltpFR2	5	1	SCALPEL	1243	n/a	n/a	0	0	0
336.266	n/a	WORD	168133	wordpools/wasnorm_wordpool_576.txt	LTP293	ltpFR2	5	1	SERVER	1272	n/a	n/a	0	0	0
338.886	n/a	WORD	169443	wordpools/wasnorm_wordpool_576.txt	LTP293	ltpFR2	5	1	EMPIRE	530	n/a	n/a	0	0	0
341.704	n/a	WORD	170852	wordpools/wasnorm_wordpool_576.txt	LTP293	ltpFR2	5	1	PADDLE	1000	n/a	n/a	0	0	0
344.306	n/a	WORD	172153	wordpools/wasnorm_wordpool_576.txt	LTP293	ltpFR2	5	1	FUNGUS	614	n/a	n/a	0	0	0
347.126	n/a	WORD	173563	wordpools/wasnorm_wordpool_576.txt	LTP293	ltpFR2	5	1	TOASTER	1472	n/a	n/a	0	0	0
349.644	n/a	WORD	174822	wordpools/wasnorm_wordpool_576.txt	LTP293	ltpFR2	5	1	SUITCASE	1403	n/a	n/a	0	0	0
352.18	n/a	WORD	176090	wordpools/wasnorm_wordpool_576.txt	LTP293	ltpFR2	5	1	CHEST	295	n/a	n/a	0	0	0
354.882	n/a	WORD	177441	wordpools/wasnorm_wordpool_576.txt	LTP293	ltpFR2	5	1	PALACE	1006	n/a	n/a	0	0	0
357.652	n/a	WORD	178826	wordpools/wasnorm_wordpool_576.txt	LTP293	ltpFR2	5	1	PATIENT	1024	n/a	n/a	0	0	0
360.386	n/a	WORD	180193	wordpools/wasnorm_wordpool_576.txt	LTP293	ltpFR2	5	1	GROUND	666	n/a	n/a	0	0	0
362.838	n/a	WORD	181419	wordpools/wasnorm_wordpool_576.txt	LTP293	ltpFR2	5	1	COFFEE	341	n/a	n/a	0	0	0
365.64	n/a	WORD	182820	wordpools/wasnorm_wordpool_576.txt	LTP293	ltpFR2	5	1	CASHIER	254	n/a	n/a	0	0	0
368.444	n/a	WORD	184222	wordpools/wasnorm_wordpool_576.txt	LTP293	ltpFR2	5	1	FLAG	573	n/a	n/a	0	0	0
370.062	n/a	START	185031	n/a	LTP293	ltpFR2	5	n/a	n/a	n/a	2	n/a	n/a	n/a	n/a
371.024	n/a	DISTRACTOR	185512	n/a	LTP293	ltpFR2	5	1	n/a	n/a	n/a	n/a	0	0	0
371.03	n/a	PROB	185515	n/a	LTP293	ltpFR2	5	n/a	n/a	n/a	2	18	6	4	8
372.396	n/a	PROB	186198	n/a	LTP293	ltpFR2	5	n/a	n/a	n/a	2	13	2	2	9
373.782	n/a	PROB	186891	n/a	LTP293	ltpFR2	5	n/a	n/a	n/a	2	17	1	8	8
374.984	n/a	PROB	187492	n/a	LTP293	ltpFR2	5	n/a	n/a	n/a	2	10	5	3	2
376.684	n/a	PROB	188342	n/a	LTP293	ltpFR2	5	n/a	n/a	n/a	2	24	9	7	9
378.836	n/a	PROB	189418	n/a	LTP293	ltpFR2	5	n/a	n/a	n/a	2	24	8	8	8
379.87	n/a	PROB	189935	n/a	LTP293	ltpFR2	5	n/a	n/a	n/a	2	13	7	4	2
381.172	n/a	PROB	190586	n/a	LTP293	ltpFR2	5	n/a	n/a	n/a	2	15	4	3	8
382.172	n/a	PROB	191086	n/a	LTP293	ltpFR2	5	n/a	n/a	n/a	2	11	5	3	3
383.424	n/a	PROB	191712	n/a	LTP293	ltpFR2	5	n/a	n/a	n/a	2	18	6	6	6
385.624	n/a	PROB	192812	n/a	LTP293	ltpFR2	5	n/a	n/a	n/a	2	21	5	9	7
387.376	n/a	PROB	193688	n/a	LTP293	ltpFR2	5	n/a	n/a	n/a	2	19	7	7	5
388.644	n/a	PROB	194322	n/a	LTP293	ltpFR2	5	n/a	n/a	n/a	2	12	5	4	3
390.03	n/a	PROB	195015	n/a	LTP293	ltpFR2	5	n/a	n/a	n/a	2	13	5	2	6
391.396	n/a	PROB	195698	n/a	LTP293	ltpFR2	5	n/a	n/a	n/a	2	19	8	4	7
392.854	n/a	STOP	196427	n/a	LTP293	ltpFR2	5	n/a	n/a	n/a	2	n/a	n/a	n/a	n/a
395.868	n/a	REC_START	197934	n/a	LTP293	ltpFR2	5	1	n/a	n/a	n/a	n/a	0	0	0
396.66	n/a	REC_WORD	198330	wordpools/wasnorm_wordpool_576.txt	LTP293	ltpFR2	5	1	AUTHOR	61	n/a	n/a	0	0	0
397.726	n/a	REC_WORD	198863	wordpools/wasnorm_wordpool_576.txt	LTP293	ltpFR2	5	1	JOURNAL	760	n/a	n/a	0	0	0
398.684	n/a	REC_WORD	199342	wordpools/wasnorm_wordpool_576.txt	LTP293	ltpFR2	5	1	CASKET	255	n/a	n/a	0	0	0
400.474	n/a	REC_WORD	200237	wordpools/wasnorm_wordpool_576.txt	LTP293	ltpFR2	5	1	TOASTER	1472	n/a	n/a	0	0	0
401.498	n/a	REC_WORD	200749	wordpools/wasnorm_wordpool_576.txt	LTP293	ltpFR2	5	1	RAFT	1159	n/a	n/a	0	0	0
402.334	n/a	REC_WORD	201167	wordpools/wasnorm_wordpool_576.txt	LTP293	ltpFR2	5	1	PADDLE	1000	n/a	n/a	0	0	0
403.418	n/a	REC_WORD	201709	wordpools/wasnorm_wordpool_576.txt	LTP293	ltpFR2	5	1	GROUND	666	n/a	n/a	0	0	0
404.79	n/a	REC_WORD	202395	wordpools/wasnorm_wordpool_576.txt	LTP293	ltpFR2	5	1	COFFEE	341	n/a	n/a	0	0	0
409.028	n/a	REC_WORD	204514	wordpools/wasnorm_wordpool_576.txt	LTP293	ltpFR2	5	1	SHELTER	1282	n/a	n/a	0	0	0
414.536	n/a	REC_WORD	207268	wordpools/wasnorm_wordpool_576.txt	LTP293	ltpFR2	5	1	EMPIRE	530	n/a	n/a	0	0	0
415.496	n/a	REC_WORD	207748	wordpools/wasnorm_wordpool_576.txt	LTP293	ltpFR2	5	1	PALACE	1006	n/a	n/a	0	0	0
420.828	n/a	REC_WORD	210414	wordpools/wasnorm_wordpool_576.txt	LTP293	ltpFR2	5	1	VIKING	1565	n/a	n/a	0	0	0
423.9	n/a	REC_WORD	211950	wordpools/wasnorm_wordpool_576.txt	LTP293	ltpFR2	5	1	LUGGAGE	847	n/a	n/a	0	0	0
425.57	n/a	REC_WORD	212785	wordpools/wasnorm_wordpool_576.txt	LTP293	ltpFR2	5	1	SUITCASE	1403	n/a	n/a	0	0	0
430.35	n/a	REC_WORD	215175	wordpools/wasnorm_wordpool_576.txt	LTP293	ltpFR2	5	1	TRUNK	-1	n/a	n/a	0	0	0
462.28	n/a	REC_WORD	231140	wordpools/wasnorm_wordpool_576.txt	LTP293	ltpFR2	5	1	CASHIER	254	n/a	n/a	0	0	0
463.738	n/a	REC_WORD	231869	wordpools/wasnorm_wordpool_576.txt	LTP293	ltpFR2	5	1	CRAB	397	n/a	n/a	0	0	0
465.764	n/a	REC_WORD	232882	wordpools/wasnorm_wordpool_576.txt	LTP293	ltpFR2	5	1	WAITER	1580	n/a	n/a	0	0	0
486.51	n/a	WORD	243255	wordpools/wasnorm_wordpool_576.txt	LTP293	ltpFR2	5	2	AIRPLANE	12	n/a	n/a	0	0	0
488.98	n/a	WORD	244490	wordpools/wasnorm_wordpool_576.txt	LTP293	ltpFR2	5	2	LUMBER	848	n/a	n/a	0	0	0
491.782	n/a	WORD	245891	wordpools/wasnorm_wordpool_576.txt	LTP293	ltpFR2	5	2	AIRPORT	13	n/a	n/a	0	0	0
494.268	n/a	WORD	247134	wordpools/wasnorm_wordpool_576.txt	LTP293	ltpFR2	5	2	OFFICE	972	n/a	n/a	0	0	0
496.854	n/a	WORD	248427	wordpools/wasnorm_wordpool_576.txt	LTP293	ltpFR2	5	2	NIGHTGOWN	953	n/a	n/a	0	0	0
499.306	n/a	WORD	249653	wordpools/wasnorm_wordpool_576.txt	LTP293	ltpFR2	5	2	POSTAGE	1113	n/a	n/a	0	0	0
501.976	n/a	WORD	250988	wordpools/wasnorm_wordpool_576.txt	LTP293	ltpFR2	5	2	COWBOY	395	n/a	n/a	0	0	0
504.576	n/a	WORD	252288	wordpools/wasnorm_wordpool_576.txt	LTP293	ltpFR2	5	2	DORM	488	n/a	n/a	0	0	0
507.112	n/a	WORD	253556	wordpools/wasnorm_wordpool_576.txt	LTP293	ltpFR2	5	2	TWISTER	1530	n/a	n/a	0	0	0
509.83	n/a	WORD	254915	wordpools/wasnorm_wordpool_576.txt	LTP293	ltpFR2	5	2	JUGGLER	763	n/a	n/a	0	0	0
512.4	n/a	WORD	256200	wordpools/wasnorm_wordpool_576.txt	LTP293	ltpFR2	5	2	BASEMENT	94	n/a	n/a	0	0	0
515.168	n/a	WORD	257584	wordpools/wasnorm_wordpool_576.txt	LTP293	ltpFR2	5	2	PLUTO	1092	n/a	n/a	0	0	0
517.938	n/a	WORD	258969	wordpools/wasnorm_wordpool_576.txt	LTP293	ltpFR2	5	2	HEDGE	699	n/a	n/a	0	0	0
520.74	n/a	WORD	260370	wordpools/wasnorm_wordpool_576.txt	LTP293	ltpFR2	5	2	TWIG	1527	n/a	n/a	0	0	0
523.176	n/a	WORD	261588	wordpools/wasnorm_wordpool_576.txt	LTP293	ltpFR2	5	2	BROOK	177	n/a	n/a	0	0	0
525.694	n/a	WORD	262847	wordpools/wasnorm_wordpool_576.txt	LTP293	ltpFR2	5	2	KIDNEY	776	n/a	n/a	0	0	0
528.28	n/a	WORD	264140	wordpools/wasnorm_wordpool_576.txt	LTP293	ltpFR2	5	2	PLAID	1080	n/a	n/a	0	0	0
531.116	n/a	WORD	265558	wordpools/wasnorm_wordpool_576.txt	LTP293	ltpFR2	5	2	TABLE	1426	n/a	n/a	0	0	0
533.568	n/a	WORD	266784	wordpools/wasnorm_wordpool_576.txt	LTP293	ltpFR2	5	2	COUCH	386	n/a	n/a	0	0	0
536.088	n/a	WORD	268044	wordpools/wasnorm_wordpool_576.txt	LTP293	ltpFR2	5	2	STAKE	1368	n/a	n/a	0	0	0
538.838	n/a	WORD	269419	wordpools/wasnorm_wordpool_576.txt	LTP293	ltpFR2	5	2	DAUGHTER	442	n/a	n/a	0	0	0
541.308	n/a	WORD	270654	wordpools/wasnorm_wordpool_576.txt	LTP293	ltpFR2	5	2	HUSBAND	728	n/a	n/a	0	0	0
544.078	n/a	WORD	272039	wordpools/wasnorm_wordpool_576.txt	LTP293	ltpFR2	5	2	WIDOW	1608	n/a	n/a	0	0	0
546.896	n/a	WORD	273448	wordpools/wasnorm_wordpool_576.txt	LTP293	ltpFR2	5	2	TYPIST	1532	n/a	n/a	0	0	0
548.514	n/a	START	274257	n/a	LTP293	ltpFR2	5	n/a	n/a	n/a	3	n/a	n/a	n/a	n/a
549.404	n/a	DISTRACTOR	274702	n/a	LTP293	ltpFR2	5	2	n/a	n/a	n/a	n/a	0	0	0
549.432	n/a	PROB	274716	n/a	LTP293	ltpFR2	5	n/a	n/a	n/a	3	21	5	9	7
552.318	n/a	PROB	276159	n/a	LTP293	ltpFR2	5	n/a	n/a	n/a	3	9	6	1	2
553.55	n/a	PROB	276775	n/a	LTP293	ltpFR2	5	n/a	n/a	n/a	3	12	8	1	3
555.136	n/a	PROB	277568	n/a	LTP293	ltpFR2	5	n/a	n/a	n/a	3	24	8	8	8
556.154	n/a	PROB	278077	n/a	LTP293	ltpFR2	5	n/a	n/a	n/a	3	21	5	7	9
557.62	n/a	PROB	278810	n/a	LTP293	ltpFR2	5	n/a	n/a	n/a	3	14	5	5	4
558.654	n/a	PROB	279327	n/a	LTP293	ltpFR2	5	n/a	n/a	n/a	3	19	8	3	8
559.99	n/a	PROB	279995	n/a	LTP293	ltpFR2	5	n/a	n/a	n/a	3	14	5	3	6
561.508	n/a	PROB	280754	n/a	LTP293	ltpFR2	5	n/a	n/a	n/a	3	7	4	1	2
562.642	n/a	PROB	281321	n/a	LTP293	ltpFR2	5	n/a	n/a	n/a	3	23	7	7	9
563.626	n/a	PROB	281813	n/a	LTP293	ltpFR2	5	n/a	n/a	n/a	3	7	3	3	1
564.744	n/a	PROB	282372	n/a	LTP293	ltpFR2	5	n/a	n/a	n/a	3	17	9	5	3
566.778	n/a	PROB	283389	n/a	LTP293	ltpFR2	5	n/a	n/a	n/a	3	14	6	4	4
568.048	n/a	PROB	284024	n/a	LTP293	ltpFR2	5	n/a	n/a	n/a	3	10	2	5	3
569.132	n/a	PROB	284566	n/a	LTP293	ltpFR2	5	n/a	n/a	n/a	3	9	1	6	2
570.766	n/a	PROB	285383	n/a	LTP293	ltpFR2	5	n/a	n/a	n/a	3	11	7	1	3
571.792	n/a	STOP	285896	n/a	LTP293	ltpFR2	5	n/a	n/a	n/a	3	n/a	n/a	n/a	n/a
574.42	n/a	REC_START	287210	n/a	LTP293	ltpFR2	5	2	n/a	n/a	n/a	n/a	0	0	0
575.052	n/a	REC_WORD	287526	wordpools/wasnorm_wordpool_576.txt	LTP293	ltpFR2	5	2	TYPIST	1532	n/a	n/a	0	0	0
576.132	n/a	REC_WORD	288066	wordpools/wasnorm_wordpool_576.txt	LTP293	ltpFR2	5	2	OFFICE	972	n/a	n/a	0	0	0
577.35	n/a	REC_WORD	288675	wordpools/wasnorm_wordpool_576.txt	LTP293	ltpFR2	5	2	SHRUB	1299	n/a	n/a	0	0	0
578.552	n/a	REC_WORD	289276	wordpools/wasnorm_wordpool_576.txt	LTP293	ltpFR2	5	2	AIRPLANE	12	n/a	n/a	0	0	0
579.792	n/a	REC_WORD	289896	wordpools/wasnorm_wordpool_576.txt	LTP293	ltpFR2	5	2	AIRPORT	13	n/a	n/a	0	0	0
581.21	n/a	REC_WORD	290605	wordpools/wasnorm_wordpool_576.txt	LTP293	ltpFR2	5	2	TABLE	1426	n/a	n/a	0	0	0
582.444	n/a	REC_WORD	291222	wordpools/wasnorm_wordpool_576.txt	LTP293	ltpFR2	5	2	STAKE	1368	n/a	n/a	0	0	0
583.92	n/a	REC_WORD	291960	wordpools/wasnorm_wordpool_576.txt	LTP293	ltpFR2	5	2	COUCH	386	n/a	n/a	0	0	0
585.21	n/a	REC_WORD	292605	wordpools/wasnorm_wordpool_576.txt	LTP293	ltpFR2	5	2	DAUGHTER	442	n/a	n/a	0	0	0
586.444	n/a	REC_WORD	293222	wordpools/wasnorm_wordpool_576.txt	LTP293	ltpFR2	5	2	PLAID	1080	n/a	n/a	0	0	0
587.684	n/a	REC_WORD	293842	wordpools/wasnorm_wordpool_576.txt	LTP293	ltpFR2	5	2	NIGHTGOWN	953	n/a	n/a	0	0	0
604.234	n/a	REC_WORD	302117	wordpools/wasnorm_wordpool_576.txt	LTP293	ltpFR2	5	2	DORM	488	n/a	n/a	0	0	0
613.07	n/a	REC_WORD	306535	wordpools/wasnorm_wordpool_576.txt	LTP293	ltpFR2	5	2	COWBOY	395	n/a	n/a	0	0	0
664.914	n/a	DISTRACTOR	332457	n/a	LTP293	ltpFR2	5	3	n/a	n/a	n/a	n/a	0	0	0
664.914	n/a	START	332457	n/a	LTP293	ltpFR2	5	n/a	n/a	n/a	4	n/a	n/a	n/a	n/a
664.93	n/a	PROB	332465	n/a	LTP293	ltpFR2	5	n/a	n/a	n/a	4	16	9	4	3
666.03	n/a	PROB	333015	n/a	LTP293	ltpFR2	5	n/a	n/a	n/a	4	25	9	9	7
667.432	n/a	PROB	333716	n/a	LTP293	ltpFR2	5	n/a	n/a	n/a	4	18	6	5	7
669.266	n/a	PROB	334633	n/a	LTP293	ltpFR2	5	n/a	n/a	n/a	4	17	4	5	8
670.468	n/a	PROB	335234	n/a	LTP293	ltpFR2	5	n/a	n/a	n/a	4	21	5	7	9
672.686	n/a	PROB	336343	n/a	LTP293	ltpFR2	5	n/a	n/a	n/a	4	16	7	1	8
673.704	n/a	PROB	336852	n/a	LTP293	ltpFR2	5	n/a	n/a	n/a	4	20	3	9	8
675.088	n/a	PROB	337544	n/a	LTP293	ltpFR2	5	n/a	n/a	n/a	4	18	7	7	4
676.222	n/a	PROB	338111	n/a	LTP293	ltpFR2	5	n/a	n/a	n/a	4	15	1	7	7
677.256	n/a	PROB	338628	n/a	LTP293	ltpFR2	5	n/a	n/a	n/a	4	16	3	7	6
678.524	n/a	PROB	339262	n/a	LTP293	ltpFR2	5	n/a	n/a	n/a	4	6	2	2	2
679.542	n/a	PROB	339771	n/a	LTP293	ltpFR2	5	n/a	n/a	n/a	4	19	8	7	4
680.91	n/a	PROB	340455	n/a	LTP293	ltpFR2	5	n/a	n/a	n/a	4	11	3	1	7
682.094	n/a	PROB	341047	n/a	LTP293	ltpFR2	5	n/a	n/a	n/a	4	13	5	4	4
683.996	n/a	PROB	341998	n/a	LTP293	ltpFR2	5	n/a	n/a	n/a	4	19	4	8	7
685.68	n/a	PROB	342840	n/a	LTP293	ltpFR2	5	n/a	n/a	n/a	4	14	8	3	3
688.89	n/a	STOP	344445	n/a	LTP293	ltpFR2	5	n/a	n/a	n/a	4	n/a	n/a	n/a	n/a
689.818	n/a	WORD	344909	wordpools/wasnorm_wordpool_576.txt	LTP293	ltpFR2	5	3	FIDDLE	561	n/a	n/a	0	0	0
692.42	n/a	WORD	346210	wordpools/wasnorm_wordpool_576.txt	LTP293	ltpFR2	5	3	BATHTUB	100	n/a	n/a	0	0	0
694.972	n/a	WORD	347486	wordpools/wasnorm_wordpool_576.txt	LTP293	ltpFR2	5	3	TROUT	1511	n/a	n/a	0	0	0
697.774	n/a	WORD	348887	wordpools/wasnorm_wordpool_576.txt	LTP293	ltpFR2	5	3	CURTAIN	427	n/a	n/a	0	0	0
700.276	n/a	WORD	350138	wordpools/wasnorm_wordpool_576.txt	LTP293	ltpFR2	5	3	TORTOISE	1486	n/a	n/a	0	0	0
702.728	n/a	WORD	351364	wordpools/wasnorm_wordpool_576.txt	LTP293	ltpFR2	5	3	STOMACH	1384	n/a	n/a	0	0	0
705.364	n/a	WORD	352682	wordpools/wasnorm_wordpool_576.txt	LTP293	ltpFR2	5	3	CRICKET	408	n/a	n/a	0	0	0
707.816	n/a	WORD	353908	wordpools/wasnorm_wordpool_576.txt	LTP293	ltpFR2	5	3	SLUG	1329	n/a	n/a	0	0	0
710.468	n/a	WORD	355234	wordpools/wasnorm_wordpool_576.txt	LTP293	ltpFR2	5	3	PILOT	1070	n/a	n/a	0	0	0
713.088	n/a	WORD	356544	wordpools/wasnorm_wordpool_576.txt	LTP293	ltpFR2	5	3	SMOG	1330	n/a	n/a	0	0	0
715.706	n/a	WORD	357853	wordpools/wasnorm_wordpool_576.txt	LTP293	ltpFR2	5	3	CLOUD	328	n/a	n/a	0	0	0
718.29	n/a	WORD	359145	wordpools/wasnorm_wordpool_576.txt	LTP293	ltpFR2	5	3	BOUQUET	157	n/a	n/a	0	0	0
721.078	n/a	WORD	360539	wordpools/wasnorm_wordpool_576.txt	LTP293	ltpFR2	5	3	POPCORN	1104	n/a	n/a	0	0	0
723.63	n/a	WORD	361815	wordpools/wasnorm_wordpool_576.txt	LTP293	ltpFR2	5	3	CRITIC	410	n/a	n/a	0	0	0
726.414	n/a	WORD	363207	wordpools/wasnorm_wordpool_576.txt	LTP293	ltpFR2	5	3	MILDEW	893	n/a	n/a	0	0	0
729.018	n/a	WORD	364509	wordpools/wasnorm_wordpool_576.txt	LTP293	ltpFR2	5	3	SHORTCAKE	1292	n/a	n/a	0	0	0
731.57	n/a	WORD	365785	wordpools/wasnorm_wordpool_576.txt	LTP293	ltpFR2	5	3	LIVER	833	n/a	n/a	0	0	0
734.322	n/a	WORD	367161	wordpools/wasnorm_wordpool_576.txt	LTP293	ltpFR2	5	3	SLIME	1327	n/a	n/a	0	0	0
736.84	n/a	WORD	368420	wordpools/wasnorm_wordpool_576.txt	LTP293	ltpFR2	5	3	MAMMAL	861	n/a	n/a	0	0	0
739.342	n/a	WORD	369671	wordpools/wasnorm_wordpool_576.txt	LTP293	ltpFR2	5	3	CABBAGE	210	n/a	n/a	0	0	0
741.812	n/a	WORD	370906	wordpools/wasnorm_wordpool_576.txt	LTP293	ltpFR2	5	3	SNAIL	1332	n/a	n/a	0	0	0
744.464	n/a	WORD	372232	wordpools/wasnorm_wordpool_576.txt	LTP293	ltpFR2	5	3	DRAWING	494	n/a	n/a	0	0	0
747.216	n/a	WORD	373608	wordpools/wasnorm_wordpool_576.txt	LTP293	ltpFR2	5	3	BOYFRIEND	162	n/a	n/a	0	0	0
749.718	n/a	WORD	374859	wordpools/wasnorm_wordpool_576.txt	LTP293	ltpFR2	5	3	STATUE	1374	n/a	n/a	0	0	0
751.336	n/a	START	375668	n/a	LTP293	ltpFR2	5	n/a	n/a	n/a	5	n/a	n/a	n/a	n/a
752.396	n/a	DISTRACTOR	376198	n/a	LTP293	ltpFR2	5	3	n/a	n/a	n/a	n/a	0	0	0
752.42	n/a	PROB	376210	n/a	LTP293	ltpFR2	5	n/a	n/a	n/a	5	14	6	3	5
754.254	n/a	PROB	377127	n/a	LTP293	ltpFR2	5	n/a	n/a	n/a	5	20	4	9	7
755.44	n/a	PROB	377720	n/a	LTP293	ltpFR2	5	n/a	n/a	n/a	5	22	9	4	9
756.69	n/a	PROB	378345	n/a	LTP293	ltpFR2	5	n/a	n/a	n/a	5	16	4	3	9
757.658	n/a	PROB	378829	n/a	LTP293	ltpFR2	5	n/a	n/a	n/a	5	13	4	3	6
759.11	n/a	PROB	379555	n/a	LTP293	ltpFR2	5	n/a	n/a	n/a	5	22	6	9	7
760.46	n/a	PROB	380230	n/a	LTP293	ltpFR2	5	n/a	n/a	n/a	5	17	5	6	6
761.662	n/a	PROB	380831	n/a	LTP293	ltpFR2	5	n/a	n/a	n/a	5	21	8	6	7
764.148	n/a	PROB	382074	n/a	LTP293	ltpFR2	5	n/a	n/a	n/a	5	14	8	1	5
765.364	n/a	PROB	382682	n/a	LTP293	ltpFR2	5	n/a	n/a	n/a	5	18	2	9	7
766.666	n/a	PROB	383333	n/a	LTP293	ltpFR2	5	n/a	n/a	n/a	5	16	3	7	6
767.7	n/a	PROB	383850	n/a	LTP293	ltpFR2	5	n/a	n/a	n/a	5	8	4	1	2
768.85	n/a	PROB	384425	n/a	LTP293	ltpFR2	5	n/a	n/a	n/a	5	24	9	7	8
771.336	n/a	PROB	385668	n/a	LTP293	ltpFR2	5	n/a	n/a	n/a	5	13	8	1	4
772.588	n/a	PROB	386294	n/a	LTP293	ltpFR2	5	n/a	n/a	n/a	5	21	6	7	8
773.94	n/a	STOP	386970	n/a	LTP293	ltpFR2	5	n/a	n/a	n/a	5	n/a	n/a	n/a	n/a
777.158	n/a	REC_START	388579	n/a	LTP293	ltpFR2	5	3	n/a	n/a	n/a	n/a	0	0	0
778.114	n/a	REC_WORD	389057	wordpools/wasnorm_wordpool_576.txt	LTP293	ltpFR2	5	3	CABBAGE	210	n/a	n/a	0	0	0
779.16	n/a	REC_WORD	389580	wordpools/wasnorm_wordpool_576.txt	LTP293	ltpFR2	5	3	DRAWING	494	n/a	n/a	0	0	0
780.256	n/a	REC_WORD	390128	wordpools/wasnorm_wordpool_576.txt	LTP293	ltpFR2	5	3	BOYFRIEND	162	n/a	n/a	0	0	0
781.37	n/a	REC_WORD	390685	wordpools/wasnorm_wordpool_576.txt	LTP293	ltpFR2	5	3	CRITIC	410	n/a	n/a	0	0	0
782.488	n/a	REC_WORD	391244	wordpools/wasnorm_wordpool_576.txt	LTP293	ltpFR2	5	3	PILOT	1070	n/a	n/a	0	0	0
783.666	n/a	REC_WORD	391833	wordpools/wasnorm_wordpool_576.txt	LTP293	ltpFR2	5	3	BATHTUB	100	n/a	n/a	0	0	0
784.836	n/a	REC_WORD	392418	wordpools/wasnorm_wordpool_576.txt	LTP293	ltpFR2	5	3	MILDEW	893	n/a	n/a	0	0	0
786.058	n/a	REC_WORD	393029	wordpools/wasnorm_wordpool_576.txt	LTP293	ltpFR2	5	3	FIDDLER	-1	n/a	n/a	0	0	0
787.968	n/a	REC_WORD	393984	wordpools/wasnorm_wordpool_576.txt	LTP293	ltpFR2	5	3	SLUG	1329	n/a	n/a	0	0	0
789.034	n/a	REC_WORD	394517	wordpools/wasnorm_wordpool_576.txt	LTP293	ltpFR2	5	3	SNAIL	1332	n/a	n/a	0	0	0
790.284	n/a	REC_WORD	395142	wordpools/wasnorm_wordpool_576.txt	LTP293	ltpFR2	5	3	SLIME	1327	n/a	n/a	0	0	0
791.472	n/a	REC_WORD	395736	wordpools/wasnorm_wordpool_576.txt	LTP293	ltpFR2	5	3	CRICKET	408	n/a	n/a	0	0	0
792.612	n/a	REC_WORD	396306	wordpools/wasnorm_wordpool_576.txt	LTP293	ltpFR2	5	3	MAMMAL	861	n/a	n/a	0	0	0
800.668	n/a	REC_WORD	400334	wordpools/wasnorm_wordpool_576.txt	LTP293	ltpFR2	5	3	CLOUD	328	n/a	n/a	0	0	0
803.082	n/a	REC_WORD	401541	wordpools/wasnorm_wordpool_576.txt	LTP293	ltpFR2	5	3	SMOG	1330	n/a	n/a	0	0	0
807.186	n/a	REC_WORD	403593	wordpools/wasnorm_wordpool_576.txt	LTP293	ltpFR2	5	3	SHORTCAKE	1292	n/a	n/a	0	0	0
808.65	n/a	REC_WORD	404325	wordpools/wasnorm_wordpool_576.txt	LTP293	ltpFR2	5	3	LIVER	833	n/a	n/a	0	0	0
846.524	n/a	REC_WORD	423262	wordpools/wasnorm_wordpool_576.txt	LTP293	ltpFR2	5	3	BELLY	119	n/a	n/a	0	0	0
848.058	n/a	REC_WORD	424029	wordpools/wasnorm_wordpool_576.txt	LTP293	ltpFR2	5	3	STOMACH	1384	n/a	n/a	0	0	0
867.602	n/a	DISTRACTOR	433801	n/a	LTP293	ltpFR2	5	4	n/a	n/a	n/a	n/a	0	0	0
867.602	n/a	START	433801	n/a	LTP293	ltpFR2	5	n/a	n/a	n/a	6	n/a	n/a	n/a	n/a
867.618	n/a	PROB	433809	n/a	LTP293	ltpFR2	5	n/a	n/a	n/a	6	5	2	1	2
868.72	n/a	PROB	434360	n/a	LTP293	ltpFR2	5	n/a	n/a	n/a	6	14	2	5	7
870.038	n/a	PROB	435019	n/a	LTP293	ltpFR2	5	n/a	n/a	n/a	6	20	6	7	7
871.638	n/a	PROB	435819	n/a	LTP293	ltpFR2	5	n/a	n/a	n/a	6	13	3	6	4
872.772	n/a	PROB	436386	n/a	LTP293	ltpFR2	5	n/a	n/a	n/a	6	27	9	9	9
874.824	n/a	PROB	437412	n/a	LTP293	ltpFR2	5	n/a	n/a	n/a	6	12	2	3	7
875.876	n/a	PROB	437938	n/a	LTP293	ltpFR2	5	n/a	n/a	n/a	6	11	7	3	1
876.96	n/a	PROB	438480	n/a	LTP293	ltpFR2	5	n/a	n/a	n/a	6	10	2	6	2
878.21	n/a	PROB	439105	n/a	LTP293	ltpFR2	5	n/a	n/a	n/a	6	7	1	2	4
879.328	n/a	PROB	439664	n/a	LTP293	ltpFR2	5	n/a	n/a	n/a	6	15	9	2	4
880.546	n/a	PROB	440273	n/a	LTP293	ltpFR2	5	n/a	n/a	n/a	6	14	3	8	3
881.948	n/a	PROB	440974	n/a	LTP293	ltpFR2	5	n/a	n/a	n/a	6	16	5	7	6
884.516	n/a	PROB	442258	n/a	LTP293	ltpFR2	5	n/a	n/a	n/a	6	11	6	2	3
885.65	n/a	PROB	442825	n/a	LTP293	ltpFR2	5	n/a	n/a	n/a	6	12	3	1	8
887.136	n/a	PROB	443568	n/a	LTP293	ltpFR2	5	n/a	n/a	n/a	6	8	4	2	2
888.27	n/a	PROB	444135	n/a	LTP293	ltpFR2	5	n/a	n/a	n/a	6	9	1	4	4
889.336	n/a	PROB	444668	n/a	LTP293	ltpFR2	5	n/a	n/a	n/a	6	13	5	1	7
890.366	n/a	STOP	445183	n/a	LTP293	ltpFR2	5	n/a	n/a	n/a	6	n/a	n/a	n/a	n/a
892.672	n/a	WORD	446336	wordpools/wasnorm_wordpool_576.txt	LTP293	ltpFR2	5	4	TREAT	1501	n/a	n/a	0	0	0
895.174	n/a	WORD	447587	wordpools/wasnorm_wordpool_576.txt	LTP293	ltpFR2	5	4	CHILD	299	n/a	n/a	0	0	0
897.726	n/a	WORD	448863	wordpools/wasnorm_wordpool_576.txt	LTP293	ltpFR2	5	4	BANK	83	n/a	n/a	0	0	0
900.196	n/a	WORD	450098	wordpools/wasnorm_wordpool_576.txt	LTP293	ltpFR2	5	4	CHAUFFEUR	283	n/a	n/a	0	0	0
902.832	n/a	WORD	451416	wordpools/wasnorm_wordpool_576.txt	LTP293	ltpFR2	5	4	LILY	821	n/a	n/a	0	0	0
905.516	n/a	WORD	452758	wordpools/wasnorm_wordpool_576.txt	LTP293	ltpFR2	5	4	FRAGRANCE	599	n/a	n/a	0	0	0
907.97	n/a	WORD	453985	wordpools/wasnorm_wordpool_576.txt	LTP293	ltpFR2	5	4	WHISTLE	1606	n/a	n/a	0	0	0
910.622	n/a	WORD	455311	wordpools/wasnorm_wordpool_576.txt	LTP293	ltpFR2	5	4	FLASK	576	n/a	n/a	0	0	0
913.39	n/a	WORD	456695	wordpools/wasnorm_wordpool_576.txt	LTP293	ltpFR2	5	4	SCOTCH	1251	n/a	n/a	0	0	0
915.976	n/a	WORD	457988	wordpools/wasnorm_wordpool_576.txt	LTP293	ltpFR2	5	4	BUCKET	184	n/a	n/a	0	0	0
918.594	n/a	WORD	459297	wordpools/wasnorm_wordpool_576.txt	LTP293	ltpFR2	5	4	GRAVE	658	n/a	n/a	0	0	0
921.33	n/a	WORD	460665	wordpools/wasnorm_wordpool_576.txt	LTP293	ltpFR2	5	4	MARKET	871	n/a	n/a	0	0	0
923.832	n/a	WORD	461916	wordpools/wasnorm_wordpool_576.txt	LTP293	ltpFR2	5	4	TART	1436	n/a	n/a	0	0	0
926.502	n/a	WORD	463251	wordpools/wasnorm_wordpool_576.txt	LTP293	ltpFR2	5	4	HAWK	692	n/a	n/a	0	0	0
929.088	n/a	WORD	464544	wordpools/wasnorm_wordpool_576.txt	LTP293	ltpFR2	5	4	ROBIN	1199	n/a	n/a	0	0	0
931.924	n/a	WORD	465962	wordpools/wasnorm_wordpool_576.txt	LTP293	ltpFR2	5	4	GRILL	661	n/a	n/a	0	0	0
934.676	n/a	WORD	467338	wordpools/wasnorm_wordpool_576.txt	LTP293	ltpFR2	5	4	HORNET	718	n/a	n/a	0	0	0
937.362	n/a	WORD	468681	wordpools/wasnorm_wordpool_576.txt	LTP293	ltpFR2	5	4	PORK	1108	n/a	n/a	0	0	0
940.146	n/a	WORD	470073	wordpools/wasnorm_wordpool_576.txt	LTP293	ltpFR2	5	4	PORTRAIT	1111	n/a	n/a	0	0	0
942.782	n/a	WORD	471391	wordpools/wasnorm_wordpool_576.txt	LTP293	ltpFR2	5	4	RIVER	1194	n/a	n/a	0	0	0
945.55	n/a	WORD	472775	wordpools/wasnorm_wordpool_576.txt	LTP293	ltpFR2	5	4	PERMIT	1051	n/a	n/a	0	0	0
948.32	n/a	WORD	474160	wordpools/wasnorm_wordpool_576.txt	LTP293	ltpFR2	5	4	STICKER	1382	n/a	n/a	0	0	0
950.924	n/a	WORD	475462	wordpools/wasnorm_wordpool_576.txt	LTP293	ltpFR2	5	4	PANTHER	1009	n/a	n/a	0	0	0
953.424	n/a	WORD	476712	wordpools/wasnorm_wordpool_576.txt	LTP293	ltpFR2	5	4	MONSTER	912	n/a	n/a	0	0	0
955.044	n/a	START	477522	n/a	LTP293	ltpFR2	5	n/a	n/a	n/a	7	n/a	n/a	n/a	n/a
955.912	n/a	DISTRACTOR	477956	n/a	LTP293	ltpFR2	5	4	n/a	n/a	n/a	n/a	0	0	0
955.928	n/a	PROB	477964	n/a	LTP293	ltpFR2	5	n/a	n/a	n/a	7	24	9	7	8
958.08	n/a	PROB	479040	n/a	LTP293	ltpFR2	5	n/a	n/a	n/a	7	16	6	6	4
959.262	n/a	PROB	479631	n/a	LTP293	ltpFR2	5	n/a	n/a	n/a	7	13	2	4	7
960.564	n/a	PROB	480282	n/a	LTP293	ltpFR2	5	n/a	n/a	n/a	7	12	2	4	6
961.648	n/a	PROB	480824	n/a	LTP293	ltpFR2	5	n/a	n/a	n/a	7	15	3	6	6
963.466	n/a	PROB	481733	n/a	LTP293	ltpFR2	5	n/a	n/a	n/a	7	19	7	4	8
965.052	n/a	PROB	482526	n/a	LTP293	ltpFR2	5	n/a	n/a	n/a	7	8	3	3	2
966.502	n/a	PROB	483251	n/a	LTP293	ltpFR2	5	n/a	n/a	n/a	7	18	3	7	8
967.604	n/a	PROB	483802	n/a	LTP293	ltpFR2	5	n/a	n/a	n/a	7	10	5	2	3
968.888	n/a	PROB	484444	n/a	LTP293	ltpFR2	5	n/a	n/a	n/a	7	13	3	5	5
969.872	n/a	PROB	484936	n/a	LTP293	ltpFR2	5	n/a	n/a	n/a	7	21	6	8	7
972.058	n/a	PROB	486029	n/a	LTP293	ltpFR2	5	n/a	n/a	n/a	7	9	5	3	1
973.174	n/a	PROB	486587	n/a	LTP293	ltpFR2	5	n/a	n/a	n/a	7	24	6	9	7
976.062	n/a	PROB	488031	n/a	LTP293	ltpFR2	5	n/a	n/a	n/a	7	10	3	3	4
977.8	n/a	STOP	488900	n/a	LTP293	ltpFR2	5	n/a	n/a	n/a	7	n/a	n/a	n/a	n/a
980.848	n/a	REC_START	490424	n/a	LTP293	ltpFR2	5	4	n/a	n/a	n/a	n/a	0	0	0
981.316	n/a	REC_WORD	490658	wordpools/wasnorm_wordpool_576.txt	LTP293	ltpFR2	5	4	BANK	83	n/a	n/a	0	0	0
982.298	n/a	REC_WORD	491149	wordpools/wasnorm_wordpool_576.txt	LTP293	ltpFR2	5	4	CHILD	299	n/a	n/a	0	0	0
983.348	n/a	REC_WORD	491674	wordpools/wasnorm_wordpool_576.txt	LTP293	ltpFR2	5	4	TREAT	1501	n/a	n/a	0	0	0
984.464	n/a	REC_WORD	492232	wordpools/wasnorm_wordpool_576.txt	LTP293	ltpFR2	5	4	TART	1436	n/a	n/a	0	0	0
985.514	n/a	REC_WORD	492757	wordpools/wasnorm_wordpool_576.txt	LTP293	ltpFR2	5	4	STICKER	1382	n/a	n/a	0	0	0
987.186	n/a	REC_WORD	493593	wordpools/wasnorm_wordpool_576.txt	LTP293	ltpFR2	5	4	FLASK	576	n/a	n/a	0	0	0
988.158	n/a	REC_WORD	494079	wordpools/wasnorm_wordpool_576.txt	LTP293	ltpFR2	5	4	SCOTCH	1251	n/a	n/a	0	0	0
989.538	n/a	REC_WORD	494769	wordpools/wasnorm_wordpool_576.txt	LTP293	ltpFR2	5	4	BUCKET	184	n/a	n/a	0	0	0
991.094	n/a	REC_WORD	495547	wordpools/wasnorm_wordpool_576.txt	LTP293	ltpFR2	5	4	GRILL	661	n/a	n/a	0	0	0
992.196	n/a	REC_WORD	496098	wordpools/wasnorm_wordpool_576.txt	LTP293	ltpFR2	5	4	PORK	1108	n/a	n/a	0	0	0
994.116	n/a	REC_WORD	497058	wordpools/wasnorm_wordpool_576.txt	LTP293	ltpFR2	5	4	ROBIN	1199	n/a	n/a	0	0	0
998.648	n/a	REC_WORD	499324	wordpools/wasnorm_wordpool_576.txt	LTP293	ltpFR2	5	4	LILY	821	n/a	n/a	0	0	0
1011.416	n/a	REC_WORD	505708	wordpools/wasnorm_wordpool_576.txt	LTP293	ltpFR2	5	4	RIVER	1194	n/a	n/a	0	0	0
1015.64	n/a	REC_WORD	507820	wordpools/wasnorm_wordpool_576.txt	LTP293	ltpFR2	5	4	PERMIT	1051	n/a	n/a	0	0	0
1023.362	n/a	REC_WORD	511681	wordpools/wasnorm_wordpool_576.txt	LTP293	ltpFR2	5	4	PANTHER	1009	n/a	n/a	0	0	0
1025.45	n/a	REC_WORD	512725	wordpools/wasnorm_wordpool_576.txt	LTP293	ltpFR2	5	4	MONSTER	912	n/a	n/a	0	0	0
1071.324	n/a	WORD	535662	wordpools/wasnorm_wordpool_576.txt	LTP293	ltpFR2	5	5	FRUIT	610	n/a	n/a	0	0	0
1074.078	n/a	WORD	537039	wordpools/wasnorm_wordpool_576.txt	LTP293	ltpFR2	5	5	SUNSET	1408	n/a	n/a	0	0	0
1076.746	n/a	WORD	538373	wordpools/wasnorm_wordpool_576.txt	LTP293	ltpFR2	5	5	SPARROW	1347	n/a	n/a	0	0	0
1079.382	n/a	WORD	539691	wordpools/wasnorm_wordpool_576.txt	LTP293	ltpFR2	5	5	BEEF	113	n/a	n/a	0	0	0
1082.018	n/a	WORD	541009	wordpools/wasnorm_wordpool_576.txt	LTP293	ltpFR2	5	5	SUNRISE	1407	n/a	n/a	0	0	0
1084.686	n/a	WORD	542343	wordpools/wasnorm_wordpool_576.txt	LTP293	ltpFR2	5	5	DIVER	476	n/a	n/a	0	0	0
1087.288	n/a	WORD	543644	wordpools/wasnorm_wordpool_576.txt	LTP293	ltpFR2	5	5	RADISH	1158	n/a	n/a	0	0	0
1089.79	n/a	WORD	544895	wordpools/wasnorm_wordpool_576.txt	LTP293	ltpFR2	5	5	SALAD	1224	n/a	n/a	0	0	0
1092.56	n/a	WORD	546280	wordpools/wasnorm_wordpool_576.txt	LTP293	ltpFR2	5	5	PLATE	1086	n/a	n/a	0	0	0
1095.378	n/a	WORD	547689	wordpools/wasnorm_wordpool_576.txt	LTP293	ltpFR2	5	5	SWORD	1423	n/a	n/a	0	0	0
1098.032	n/a	WORD	549016	wordpools/wasnorm_wordpool_576.txt	LTP293	ltpFR2	5	5	HUMAN	726	n/a	n/a	0	0	0
1100.682	n/a	WORD	550341	wordpools/wasnorm_wordpool_576.txt	LTP293	ltpFR2	5	5	BLENDER	136	n/a	n/a	0	0	0
1103.12	n/a	WORD	551560	wordpools/wasnorm_wordpool_576.txt	LTP293	ltpFR2	5	5	TAXI	1438	n/a	n/a	0	0	0
1105.888	n/a	WORD	552944	wordpools/wasnorm_wordpool_576.txt	LTP293	ltpFR2	5	5	GALLON	618	n/a	n/a	0	0	0
1108.656	n/a	WORD	554328	wordpools/wasnorm_wordpool_576.txt	LTP293	ltpFR2	5	5	SLIDE	1326	n/a	n/a	0	0	0
1111.142	n/a	WORD	555571	wordpools/wasnorm_wordpool_576.txt	LTP293	ltpFR2	5	5	FLESH	579	n/a	n/a	0	0	0
1113.778	n/a	WORD	556889	wordpools/wasnorm_wordpool_576.txt	LTP293	ltpFR2	5	5	DUST	508	n/a	n/a	0	0	0
1116.28	n/a	WORD	558140	wordpools/wasnorm_wordpool_576.txt	LTP293	ltpFR2	5	5	PIANO	1057	n/a	n/a	0	0	0
1118.832	n/a	WORD	559416	wordpools/wasnorm_wordpool_576.txt	LTP293	ltpFR2	5	5	MOTOR	922	n/a	n/a	0	0	0
1121.318	n/a	WORD	560659	wordpools/wasnorm_wordpool_576.txt	LTP293	ltpFR2	5	5	INFANT	737	n/a	n/a	0	0	0
1124.038	n/a	WORD	562019	wordpools/wasnorm_wordpool_576.txt	LTP293	ltpFR2	5	5	FOOT	590	n/a	n/a	0	0	0
1126.656	n/a	WORD	563328	wordpools/wasnorm_wordpool_576.txt	LTP293	ltpFR2	5	5	GANGSTER	620	n/a	n/a	0	0	0
1129.092	n/a	WORD	564546	wordpools/wasnorm_wordpool_576.txt	LTP293	ltpFR2	5	5	REPORT	1184	n/a	n/a	0	0	0
1131.744	n/a	WORD	565872	wordpools/wasnorm_wordpool_576.txt	LTP293	ltpFR2	5	5	BRIEFCASE	175	n/a	n/a	0	0	0
1133.36	n/a	START	566680	n/a	LTP293	ltpFR2	5	n/a	n/a	n/a	8	n/a	n/a	n/a	n/a
1134.338	n/a	DISTRACTOR	567169	n/a	LTP293	ltpFR2	5	5	n/a	n/a	n/a	n/a	0	0	0
1134.362	n/a	PROB	567181	n/a	LTP293	ltpFR2	5	n/a	n/a	n/a	8	10	5	3	2
1136.846	n/a	PROB	568423	n/a	LTP293	ltpFR2	5	n/a	n/a	n/a	8	13	4	7	2
1138.414	n/a	PROB	569207	n/a	LTP293	ltpFR2	5	n/a	n/a	n/a	8	10	1	3	6
1139.598	n/a	PROB	569799	n/a	LTP293	ltpFR2	5	n/a	n/a	n/a	8	15	6	1	8
1140.734	n/a	PROB	570367	n/a	LTP293	ltpFR2	5	n/a	n/a	n/a	8	11	3	3	5
1141.768	n/a	PROB	570884	n/a	LTP293	ltpFR2	5	n/a	n/a	n/a	8	12	9	2	1
1142.986	n/a	PROB	571493	n/a	LTP293	ltpFR2	5	n/a	n/a	n/a	8	20	3	9	8
1144.354	n/a	PROB	572177	n/a	LTP293	ltpFR2	5	n/a	n/a	n/a	8	27	9	9	9
1145.738	n/a	PROB	572869	n/a	LTP293	ltpFR2	5	n/a	n/a	n/a	8	8	4	3	1
1146.94	n/a	PROB	573470	n/a	LTP293	ltpFR2	5	n/a	n/a	n/a	8	18	5	6	7
1148.958	n/a	PROB	574479	n/a	LTP293	ltpFR2	5	n/a	n/a	n/a	8	13	9	1	3
1149.96	n/a	PROB	574980	n/a	LTP293	ltpFR2	5	n/a	n/a	n/a	8	16	6	4	6
1150.976	n/a	PROB	575488	n/a	LTP293	ltpFR2	5	n/a	n/a	n/a	8	11	8	2	1
1151.978	n/a	PROB	575989	n/a	LTP293	ltpFR2	5	n/a	n/a	n/a	8	16	8	3	5
1153.494	n/a	PROB	576747	n/a	LTP293	ltpFR2	5	n/a	n/a	n/a	8	7	3	2	2
1155.23	n/a	PROB	577615	n/a	LTP293	ltpFR2	5	n/a	n/a	n/a	8	15	1	5	9
1156.338	n/a	STOP	578169	n/a	LTP293	ltpFR2	5	n/a	n/a	n/a	8	n/a	n/a	n/a	n/a
1159.15	n/a	REC_START	579575	n/a	LTP293	ltpFR2	5	5	n/a	n/a	n/a	n/a	0	0	0
1159.532	n/a	REC_WORD	579766	wordpools/wasnorm_wordpool_576.txt	LTP293	ltpFR2	5	5	REPORT	1184	n/a	n/a	0	0	0
1160.58	n/a	REC_WORD	580290	wordpools/wasnorm_wordpool_576.txt	LTP293	ltpFR2	5	5	BRIEFCASE	175	n/a	n/a	0	0	0
1161.66	n/a	REC_WORD	580830	wordpools/wasnorm_wordpool_576.txt	LTP293	ltpFR2	5	5	GANGSTER	620	n/a	n/a	0	0	0
1162.88	n/a	REC_WORD	581440	wordpools/wasnorm_wordpool_576.txt	LTP293	ltpFR2	5	5	MOTOR	922	n/a	n/a	0	0	0
1163.936	n/a	REC_WORD	581968	wordpools/wasnorm_wordpool_576.txt	LTP293	ltpFR2	5	5	TAXI	1438	n/a	n/a	0	0	0
1165.238	n/a	REC_WORD	582619	wordpools/wasnorm_wordpool_576.txt	LTP293	ltpFR2	5	5	DUST	508	n/a	n/a	0	0	0
1166.184	n/a	REC_WORD	583092	wordpools/wasnorm_wordpool_576.txt	LTP293	ltpFR2	5	5	SALAD	1224	n/a	n/a	0	0	0
1167.31	n/a	REC_WORD	583655	wordpools/wasnorm_wordpool_576.txt	LTP293	ltpFR2	5	5	PLATE	1086	n/a	n/a	0	0	0
1169.402	n/a	REC_WORD	584701	wordpools/wasnorm_wordpool_576.txt	LTP293	ltpFR2	5	5	FLESH	579	n/a	n/a	0	0	0
1171.478	n/a	REC_WORD	585739	wordpools/wasnorm_wordpool_576.txt	LTP293	ltpFR2	5	5	BEEF	113	n/a	n/a	0	0	0
1173.546	n/a	REC_WORD	586773	wordpools/wasnorm_wordpool_576.txt	LTP293	ltpFR2	5	5	RADISH	1158	n/a	n/a	0	0	0
1174.586	n/a	REC_WORD	587293	wordpools/wasnorm_wordpool_576.txt	LTP293	ltpFR2	5	5	DIVER	476	n/a	n/a	0	0	0
1176.652	n/a	REC_WORD	588326	wordpools/wasnorm_wordpool_576.txt	LTP293	ltpFR2	5	5	SWORD	1423	n/a	n/a	0	0	0
1178.214	n/a	REC_WORD	589107	wordpools/wasnorm_wordpool_576.txt	LTP293	ltpFR2	5	5	SUNRISE	1407	n/a	n/a	0	0	0
1179.2	n/a	REC_WORD	589600	wordpools/wasnorm_wordpool_576.txt	LTP293	ltpFR2	5	5	SUNSET	1408	n/a	n/a	0	0	0
1185.128	n/a	REC_WORD	592564	wordpools/wasnorm_wordpool_576.txt	LTP293	ltpFR2	5	5	HUMAN	726	n/a	n/a	0	0	0
1187.614	n/a	REC_WORD	593807	wordpools/wasnorm_wordpool_576.txt	LTP293	ltpFR2	5	5	BLENDER	136	n/a	n/a	0	0	0
1188.918	n/a	REC_WORD	594459	wordpools/wasnorm_wordpool_576.txt	LTP293	ltpFR2	5	5	GALLON	618	n/a	n/a	0	0	0
1249.81	n/a	WORD	624905	wordpools/wasnorm_wordpool_576.txt	LTP293	ltpFR2	5	6	NOMAD	955	n/a	n/a	0	0	0
1252.578	n/a	WORD	626289	wordpools/wasnorm_wordpool_576.txt	LTP293	ltpFR2	5	6	ACTOR	5	n/a	n/a	0	0	0
1255.198	n/a	WORD	627599	wordpools/wasnorm_wordpool_576.txt	LTP293	ltpFR2	5	6	ACTRESS	6	n/a	n/a	0	0	0
1258.0	n/a	WORD	629000	wordpools/wasnorm_wordpool_576.txt	LTP293	ltpFR2	5	6	PARSLEY	1016	n/a	n/a	0	0	0
1260.568	n/a	WORD	630284	wordpools/wasnorm_wordpool_576.txt	LTP293	ltpFR2	5	6	MARKER	870	n/a	n/a	0	0	0
1263.372	n/a	WORD	631686	wordpools/wasnorm_wordpool_576.txt	LTP293	ltpFR2	5	6	FRECKLE	602	n/a	n/a	0	0	0
1265.824	n/a	WORD	632912	wordpools/wasnorm_wordpool_576.txt	LTP293	ltpFR2	5	6	CONCERT	360	n/a	n/a	0	0	0
1268.526	n/a	WORD	634263	wordpools/wasnorm_wordpool_576.txt	LTP293	ltpFR2	5	6	GIRL	637	n/a	n/a	0	0	0
1271.03	n/a	WORD	635515	wordpools/wasnorm_wordpool_576.txt	LTP293	ltpFR2	5	6	INMATE	738	n/a	n/a	0	0	0
1273.53	n/a	WORD	636765	wordpools/wasnorm_wordpool_576.txt	LTP293	ltpFR2	5	6	BACON	67	n/a	n/a	0	0	0
1276.15	n/a	WORD	638075	wordpools/wasnorm_wordpool_576.txt	LTP293	ltpFR2	5	6	SURVEY	1414	n/a	n/a	0	0	0
1278.984	n/a	WORD	639492	wordpools/wasnorm_wordpool_576.txt	LTP293	ltpFR2	5	6	ISLAND	745	n/a	n/a	0	0	0
1281.502	n/a	WORD	640751	wordpools/wasnorm_wordpool_576.txt	LTP293	ltpFR2	5	6	CONTRACT	368	n/a	n/a	0	0	0
1284.056	n/a	WORD	642028	wordpools/wasnorm_wordpool_576.txt	LTP293	ltpFR2	5	6	BEAKER	104	n/a	n/a	0	0	0
1286.49	n/a	WORD	643245	wordpools/wasnorm_wordpool_576.txt	LTP293	ltpFR2	5	6	BACKBONE	66	n/a	n/a	0	0	0
1289.226	n/a	WORD	644613	wordpools/wasnorm_wordpool_576.txt	LTP293	ltpFR2	5	6	CELLAR	267	n/a	n/a	0	0	0
1291.962	n/a	WORD	645981	wordpools/wasnorm_wordpool_576.txt	LTP293	ltpFR2	5	6	TILE	1468	n/a	n/a	0	0	0
1294.732	n/a	WORD	647366	wordpools/wasnorm_wordpool_576.txt	LTP293	ltpFR2	5	6	SALMON	1227	n/a	n/a	0	0	0
1297.25	n/a	WORD	648625	wordpools/wasnorm_wordpool_576.txt	LTP293	ltpFR2	5	6	FLIPPER	580	n/a	n/a	0	0	0
1299.836	n/a	WORD	649918	wordpools/wasnorm_wordpool_576.txt	LTP293	ltpFR2	5	6	PLAYGROUND	1087	n/a	n/a	0	0	0
1302.304	n/a	WORD	651152	wordpools/wasnorm_wordpool_576.txt	LTP293	ltpFR2	5	6	CHEMIST	292	n/a	n/a	0	0	0
1304.974	n/a	WORD	652487	wordpools/wasnorm_wordpool_576.txt	LTP293	ltpFR2	5	6	CABIN	211	n/a	n/a	0	0	0
1307.676	n/a	WORD	653838	wordpools/wasnorm_wordpool_576.txt	LTP293	ltpFR2	5	6	OUTLAW	989	n/a	n/a	0	0	0
1310.112	n/a	WORD	655056	wordpools/wasnorm_wordpool_576.txt	LTP293	ltpFR2	5	6	SCISSORS	1250	n/a	n/a	0	0	0
1311.73	n/a	START	655865	n/a	LTP293	ltpFR2	5	n/a	n/a	n/a	9	n/a	n/a	n/a	n/a
1312.806	n/a	DISTRACTOR	656403	n/a	LTP293	ltpFR2	5	6	n/a	n/a	n/a	n/a	0	0	0
1312.814	n/a	PROB	656407	n/a	LTP293	ltpFR2	5	n/a	n/a	n/a	9	20	6	8	6
1314.016	n/a	PROB	657008	n/a	LTP293	ltpFR2	5	n/a	n/a	n/a	9	13	6	6	1
1315.1	n/a	PROB	657550	n/a	LTP293	ltpFR2	5	n/a	n/a	n/a	9	14	7	3	4
1316.084	n/a	PROB	658042	n/a	LTP293	ltpFR2	5	n/a	n/a	n/a	9	10	5	1	4
1317.168	n/a	PROB	658584	n/a	LTP293	ltpFR2	5	n/a	n/a	n/a	9	25	8	9	8
1318.618	n/a	PROB	659309	n/a	LTP293	ltpFR2	5	n/a	n/a	n/a	9	9	4	1	4
1319.87	n/a	PROB	659935	n/a	LTP293	ltpFR2	5	n/a	n/a	n/a	9	15	8	5	2
1321.254	n/a	PROB	660627	n/a	LTP293	ltpFR2	5	n/a	n/a	n/a	9	15	8	4	3
1322.322	n/a	PROB	661161	n/a	LTP293	ltpFR2	5	n/a	n/a	n/a	9	16	3	9	4
1323.356	n/a	PROB	661678	n/a	LTP293	ltpFR2	5	n/a	n/a	n/a	9	5	1	3	1
1324.206	n/a	PROB	662103	n/a	LTP293	ltpFR2	5	n/a	n/a	n/a	9	12	3	2	7
1325.29	n/a	PROB	662645	n/a	LTP293	ltpFR2	5	n/a	n/a	n/a	9	6	3	2	1
1326.692	n/a	PROB	663346	n/a	LTP293	ltpFR2	5	n/a	n/a	n/a	9	8	2	3	3
1327.876	n/a	PROB	663938	n/a	LTP293	ltpFR2	5	n/a	n/a	n/a	9	10	3	2	5
1328.994	n/a	PROB	664497	n/a	LTP293	ltpFR2	5	n/a	n/a	n/a	9	17	5	6	6
1330.412	n/a	PROB	665206	n/a	LTP293	ltpFR2	5	n/a	n/a	n/a	9	26	8	9	9
1331.696	n/a	PROB	665848	n/a	LTP293	ltpFR2	5	n/a	n/a	n/a	9	13	2	3	8
1332.83	n/a	PROB	666415	n/a	LTP293	ltpFR2	5	n/a	n/a	n/a	9	12	3	5	4
1335.728	n/a	STOP	667864	n/a	LTP293	ltpFR2	5	n/a	n/a	n/a	9	n/a	n/a	n/a	n/a
1337.668	n/a	REC_START	668834	n/a	LTP293	ltpFR2	5	6	n/a	n/a	n/a	n/a	0	0	0
1338.812	n/a	REC_WORD	669406	wordpools/wasnorm_wordpool_576.txt	LTP293	ltpFR2	5	6	CHEMIST	292	n/a	n/a	0	0	0
1339.874	n/a	REC_WORD	669937	wordpools/wasnorm_wordpool_576.txt	LTP293	ltpFR2	5	6	BEAKER	104	n/a	n/a	0	0	0
1341.348	n/a	REC_WORD	670674	wordpools/wasnorm_wordpool_576.txt	LTP293	ltpFR2	5	6	INMATE	738	n/a	n/a	0	0	0
1342.346	n/a	REC_WORD	671173	wordpools/wasnorm_wordpool_576.txt	LTP293	ltpFR2	5	6	OUTLAW	989	n/a	n/a	0	0	0
1343.678	n/a	REC_WORD	671839	wordpools/wasnorm_wordpool_576.txt	LTP293	ltpFR2	5	6	NOMAD	955	n/a	n/a	0	0	0
1344.812	n/a	REC_WORD	672406	wordpools/wasnorm_wordpool_576.txt	LTP293	ltpFR2	5	6	CABIN	211	n/a	n/a	0	0	0
1347.096	n/a	REC_WORD	673548	wordpools/wasnorm_wordpool_576.txt	LTP293	ltpFR2	5	6	CONCERT	360	n/a	n/a	0	0	0
1348.096	n/a	REC_WORD	674048	wordpools/wasnorm_wordpool_576.txt	LTP293	ltpFR2	5	6	PLAYGROUND	1087	n/a	n/a	0	0	0
1349.34	n/a	REC_WORD	674670	wordpools/wasnorm_wordpool_576.txt	LTP293	ltpFR2	5	6	TILE	1468	n/a	n/a	0	0	0
1350.352	n/a	REC_WORD	675176	wordpools/wasnorm_wordpool_576.txt	LTP293	ltpFR2	5	6	CELLAR	267	n/a	n/a	0	0	0
1351.61	n/a	REC_WORD	675805	wordpools/wasnorm_wordpool_576.txt	LTP293	ltpFR2	5	6	BACON	67	n/a	n/a	0	0	0
1352.656	n/a	REC_WORD	676328	wordpools/wasnorm_wordpool_576.txt	LTP293	ltpFR2	5	6	FLIPPER	580	n/a	n/a	0	0	0
1354.824	n/a	REC_WORD	677412	wordpools/wasnorm_wordpool_576.txt	LTP293	ltpFR2	5	6	PARSLEY	1016	n/a	n/a	0	0	0
1357.648	n/a	REC_WORD	678824	wordpools/wasnorm_wordpool_576.txt	LTP293	ltpFR2	5	6	GIRL	637	n/a	n/a	0	0	0
1428.612	n/a	WORD	714306	wordpools/wasnorm_wordpool_576.txt	LTP293	ltpFR2	5	7	COIN	343	n/a	n/a	0	0	0
1431.048	n/a	WORD	715524	wordpools/wasnorm_wordpool_576.txt	LTP293	ltpFR2	5	7	COUNTRY	388	n/a	n/a	0	0	0
1433.632	n/a	WORD	716816	wordpools/wasnorm_wordpool_576.txt	LTP293	ltpFR2	5	7	THREAD	1460	n/a	n/a	0	0	0
1436.402	n/a	WORD	718201	wordpools/wasnorm_wordpool_576.txt	LTP293	ltpFR2	5	7	ASIA	46	n/a	n/a	0	0	0
1438.922	n/a	WORD	719461	wordpools/wasnorm_wordpool_576.txt	LTP293	ltpFR2	5	7	TRIBE	1505	n/a	n/a	0	0	0
1441.39	n/a	WORD	720695	wordpools/wasnorm_wordpool_576.txt	LTP293	ltpFR2	5	7	LAGOON	795	n/a	n/a	0	0	0
1443.976	n/a	WORD	721988	wordpools/wasnorm_wordpool_576.txt	LTP293	ltpFR2	5	7	STONE	1385	n/a	n/a	0	0	0
1446.794	n/a	WORD	723397	wordpools/wasnorm_wordpool_576.txt	LTP293	ltpFR2	5	7	PEACH	1031	n/a	n/a	0	0	0
1449.362	n/a	WORD	724681	wordpools/wasnorm_wordpool_576.txt	LTP293	ltpFR2	5	7	HAMPER	682	n/a	n/a	0	0	0
1451.932	n/a	WORD	725966	wordpools/wasnorm_wordpool_576.txt	LTP293	ltpFR2	5	7	SCARF	1246	n/a	n/a	0	0	0
1454.734	n/a	WORD	727367	wordpools/wasnorm_wordpool_576.txt	LTP293	ltpFR2	5	7	CRAYON	401	n/a	n/a	0	0	0
1457.32	n/a	WORD	728660	wordpools/wasnorm_wordpool_576.txt	LTP293	ltpFR2	5	7	RIFLE	1192	n/a	n/a	0	0	0
1460.006	n/a	WORD	730003	wordpools/wasnorm_wordpool_576.txt	LTP293	ltpFR2	5	7	STAPLE	1371	n/a	n/a	0	0	0
1462.458	n/a	WORD	731229	wordpools/wasnorm_wordpool_576.txt	LTP293	ltpFR2	5	7	HELMET	702	n/a	n/a	0	0	0
1465.194	n/a	WORD	732597	wordpools/wasnorm_wordpool_576.txt	LTP293	ltpFR2	5	7	PEBBLE	1035	n/a	n/a	0	0	0
1467.746	n/a	WORD	733873	wordpools/wasnorm_wordpool_576.txt	LTP293	ltpFR2	5	7	LONDON	843	n/a	n/a	0	0	0
1470.23	n/a	WORD	735115	wordpools/wasnorm_wordpool_576.txt	LTP293	ltpFR2	5	7	PEPPER	1047	n/a	n/a	0	0	0
1473.0	n/a	WORD	736500	wordpools/wasnorm_wordpool_576.txt	LTP293	ltpFR2	5	7	SALT	1229	n/a	n/a	0	0	0
1475.502	n/a	WORD	737751	wordpools/wasnorm_wordpool_576.txt	LTP293	ltpFR2	5	7	BRACES	164	n/a	n/a	0	0	0
1478.186	n/a	WORD	739093	wordpools/wasnorm_wordpool_576.txt	LTP293	ltpFR2	5	7	FIREPLACE	570	n/a	n/a	0	0	0
1480.84	n/a	WORD	740420	wordpools/wasnorm_wordpool_576.txt	LTP293	ltpFR2	5	7	SEAFOOD	1260	n/a	n/a	0	0	0
1483.642	n/a	WORD	741821	wordpools/wasnorm_wordpool_576.txt	LTP293	ltpFR2	5	7	BURGLAR	200	n/a	n/a	0	0	0
1486.36	n/a	WORD	743180	wordpools/wasnorm_wordpool_576.txt	LTP293	ltpFR2	5	7	BRICK	172	n/a	n/a	0	0	0
1489.114	n/a	WORD	744557	wordpools/wasnorm_wordpool_576.txt	LTP293	ltpFR2	5	7	ANTLER	29	n/a	n/a	0	0	0
1490.732	n/a	START	745366	n/a	LTP293	ltpFR2	5	n/a	n/a	n/a	10	n/a	n/a	n/a	n/a
1491.6	n/a	DISTRACTOR	745800	n/a	LTP293	ltpFR2	5	7	n/a	n/a	n/a	n/a	0	0	0
1491.632	n/a	PROB	745816	n/a	LTP293	ltpFR2	5	n/a	n/a	n/a	10	6	1	1	4
1492.866	n/a	PROB	746433	n/a	LTP293	ltpFR2	5	n/a	n/a	n/a	10	8	1	4	3
1493.952	n/a	PROB	746976	n/a	LTP293	ltpFR2	5	n/a	n/a	n/a	10	18	3	6	9
1495.002	n/a	PROB	747501	n/a	LTP293	ltpFR2	5	n/a	n/a	n/a	10	16	1	9	6
1496.036	n/a	PROB	748018	n/a	LTP293	ltpFR2	5	n/a	n/a	n/a	10	18	6	6	6
1497.204	n/a	PROB	748602	n/a	LTP293	ltpFR2	5	n/a	n/a	n/a	10	19	9	5	5
1500.106	n/a	PROB	750053	n/a	LTP293	ltpFR2	5	n/a	n/a	n/a	10	19	8	3	5
1501.808	n/a	PROB	750904	n/a	LTP293	ltpFR2	5	n/a	n/a	n/a	10	14	4	4	6
1503.076	n/a	PROB	751538	n/a	LTP293	ltpFR2	5	n/a	n/a	n/a	10	15	2	6	7
1505.062	n/a	PROB	752531	n/a	LTP293	ltpFR2	5	n/a	n/a	n/a	10	16	6	9	2
1506.228	n/a	PROB	753114	n/a	LTP293	ltpFR2	5	n/a	n/a	n/a	10	24	8	7	9
1508.246	n/a	PROB	754123	n/a	LTP293	ltpFR2	5	n/a	n/a	n/a	10	18	2	7	9
1509.314	n/a	PROB	754657	n/a	LTP293	ltpFR2	5	n/a	n/a	n/a	10	19	5	5	9
1510.382	n/a	PROB	755191	n/a	LTP293	ltpFR2	5	n/a	n/a	n/a	10	25	7	9	9
1514.706	n/a	STOP	757353	n/a	LTP293	ltpFR2	5	n/a	n/a	n/a	10	n/a	n/a	n/a	n/a
1516.704	n/a	REC_START	758352	n/a	LTP293	ltpFR2	5	7	n/a	n/a	n/a	n/a	0	0	0
1517.058	n/a	REC_WORD	758529	wordpools/wasnorm_wordpool_576.txt	LTP293	ltpFR2	5	7	ANTLER	29	n/a	n/a	0	0	0
1518.024	n/a	REC_WORD	759012	wordpools/wasnorm_wordpool_576.txt	LTP293	ltpFR2	5	7	BRICK	172	n/a	n/a	0	0	0
1519.484	n/a	REC_WORD	759742	wordpools/wasnorm_wordpool_576.txt	LTP293	ltpFR2	5	7	COIN	343	n/a	n/a	0	0	0
1522.31	n/a	REC_WORD	761155	wordpools/wasnorm_wordpool_576.txt	LTP293	ltpFR2	5	7	HAMPER	682	n/a	n/a	0	0	0
1524.794	n/a	REC_WORD	762397	wordpools/wasnorm_wordpool_576.txt	LTP293	ltpFR2	5	7	THREAD	1460	n/a	n/a	0	0	0
1526.124	n/a	REC_WORD	763062	wordpools/wasnorm_wordpool_576.txt	LTP293	ltpFR2	5	7	COUNTRY	388	n/a	n/a	0	0	0
1564.0	n/a	REC_WORD	782000	wordpools/wasnorm_wordpool_576.txt	LTP293	ltpFR2	5	7	SALT	1229	n/a	n/a	0	0	0
1564.992	n/a	REC_WORD	782496	wordpools/wasnorm_wordpool_576.txt	LTP293	ltpFR2	5	7	PEPPER	1047	n/a	n/a	0	0	0
1607.164	n/a	WORD	803582	wordpools/wasnorm_wordpool_576.txt	LTP293	ltpFR2	5	8	VENUS	1557	n/a	n/a	0	0	0
1609.918	n/a	WORD	804959	wordpools/wasnorm_wordpool_576.txt	LTP293	ltpFR2	5	8	HORSE	719	n/a	n/a	0	0	0
1612.568	n/a	WORD	806284	wordpools/wasnorm_wordpool_576.txt	LTP293	ltpFR2	5	8	XEROX	1628	n/a	n/a	0	0	0
1615.304	n/a	WORD	807652	wordpools/wasnorm_wordpool_576.txt	LTP293	ltpFR2	5	8	ROBOT	1200	n/a	n/a	0	0	0
1617.806	n/a	WORD	808903	wordpools/wasnorm_wordpool_576.txt	LTP293	ltpFR2	5	8	PIGMENT	1066	n/a	n/a	0	0	0
1620.374	n/a	WORD	810187	wordpools/wasnorm_wordpool_576.txt	LTP293	ltpFR2	5	8	BREAST	171	n/a	n/a	0	0	0
1623.11	n/a	WORD	811555	wordpools/wasnorm_wordpool_576.txt	LTP293	ltpFR2	5	8	PUPPY	1144	n/a	n/a	0	0	0
1625.628	n/a	WORD	812814	wordpools/wasnorm_wordpool_576.txt	LTP293	ltpFR2	5	8	FOX	598	n/a	n/a	0	0	0
1628.414	n/a	WORD	814207	wordpools/wasnorm_wordpool_576.txt	LTP293	ltpFR2	5	8	PIGEON	1065	n/a	n/a	0	0	0
1631.168	n/a	WORD	815584	wordpools/wasnorm_wordpool_576.txt	LTP293	ltpFR2	5	8	SIBLING	1301	n/a	n/a	0	0	0
1633.988	n/a	WORD	816994	wordpools/wasnorm_wordpool_576.txt	LTP293	ltpFR2	5	8	MARROW	872	n/a	n/a	0	0	0
1636.622	n/a	WORD	818311	wordpools/wasnorm_wordpool_576.txt	LTP293	ltpFR2	5	8	GHETTO	633	n/a	n/a	0	0	0
1639.208	n/a	WORD	819604	wordpools/wasnorm_wordpool_576.txt	LTP293	ltpFR2	5	8	DONOR	485	n/a	n/a	0	0	0
1641.826	n/a	WORD	820913	wordpools/wasnorm_wordpool_576.txt	LTP293	ltpFR2	5	8	HEART	697	n/a	n/a	0	0	0
1644.462	n/a	WORD	822231	wordpools/wasnorm_wordpool_576.txt	LTP293	ltpFR2	5	8	MATCH	878	n/a	n/a	0	0	0
1647.18	n/a	WORD	823590	wordpools/wasnorm_wordpool_576.txt	LTP293	ltpFR2	5	8	CATTLE	261	n/a	n/a	0	0	0
1649.816	n/a	WORD	824908	wordpools/wasnorm_wordpool_576.txt	LTP293	ltpFR2	5	8	CLOCK	325	n/a	n/a	0	0	0
1652.386	n/a	WORD	826193	wordpools/wasnorm_wordpool_576.txt	LTP293	ltpFR2	5	8	SUPPER	1411	n/a	n/a	0	0	0
1654.906	n/a	WORD	827453	wordpools/wasnorm_wordpool_576.txt	LTP293	ltpFR2	5	8	WASHER	1592	n/a	n/a	0	0	0
1657.69	n/a	WORD	828845	wordpools/wasnorm_wordpool_576.txt	LTP293	ltpFR2	5	8	BROTHER	179	n/a	n/a	0	0	0
1660.242	n/a	WORD	830121	wordpools/wasnorm_wordpool_576.txt	LTP293	ltpFR2	5	8	JURY	766	n/a	n/a	0	0	0
1662.928	n/a	WORD	831464	wordpools/wasnorm_wordpool_576.txt	LTP293	ltpFR2	5	8	SILK	1307	n/a	n/a	0	0	0
1665.48	n/a	WORD	832740	wordpools/wasnorm_wordpool_576.txt	LTP293	ltpFR2	5	8	LAVA	804	n/a	n/a	0	0	0
1668.248	n/a	WORD	834124	wordpools/wasnorm_wordpool_576.txt	LTP293	ltpFR2	5	8	FOREHEAD	592	n/a	n/a	0	0	0
1669.866	n/a	START	834933	n/a	LTP293	ltpFR2	5	n/a	n/a	n/a	11	n/a	n/a	n/a	n/a
1670.962	n/a	DISTRACTOR	835481	n/a	LTP293	ltpFR2	5	8	n/a	n/a	n/a	n/a	0	0	0
1670.986	n/a	PROB	835493	n/a	LTP293	ltpFR2	5	n/a	n/a	n/a	11	16	5	4	7
1672.568	n/a	PROB	836284	n/a	LTP293	ltpFR2	5	n/a	n/a	n/a	11	12	4	7	1
1674.906	n/a	PROB	837453	n/a	LTP293	ltpFR2	5	n/a	n/a	n/a	11	19	7	8	4
1676.588	n/a	PROB	838294	n/a	LTP293	ltpFR2	5	n/a	n/a	n/a	11	13	5	6	2
1678.29	n/a	PROB	839145	n/a	LTP293	ltpFR2	5	n/a	n/a	n/a	11	18	5	4	9
1679.358	n/a	PROB	839679	n/a	LTP293	ltpFR2	5	n/a	n/a	n/a	11	15	5	3	7
1680.376	n/a	PROB	840188	n/a	LTP293	ltpFR2	5	n/a	n/a	n/a	11	11	4	5	2
1681.426	n/a	PROB	840713	n/a	LTP293	ltpFR2	5	n/a	n/a	n/a	11	11	4	6	1
1682.694	n/a	PROB	841347	n/a	LTP293	ltpFR2	5	n/a	n/a	n/a	11	18	4	7	7
1683.862	n/a	PROB	841931	n/a	LTP293	ltpFR2	5	n/a	n/a	n/a	11	12	2	9	1
1685.83	n/a	PROB	842915	n/a	LTP293	ltpFR2	5	n/a	n/a	n/a	11	14	7	3	4
1686.882	n/a	PROB	843441	n/a	LTP293	ltpFR2	5	n/a	n/a	n/a	11	21	8	4	9
1687.934	n/a	PROB	843967	n/a	LTP293	ltpFR2	5	n/a	n/a	n/a	11	16	6	1	9
1689.134	n/a	PROB	844567	n/a	LTP293	ltpFR2	5	n/a	n/a	n/a	11	10	1	3	6
1690.552	n/a	PROB	845276	n/a	LTP293	ltpFR2	5	n/a	n/a	n/a	11	15	2	4	9
1692.02	n/a	PROB	846010	n/a	LTP293	ltpFR2	5	n/a	n/a	n/a	11	15	3	5	7
1693.604	n/a	STOP	846802	n/a	LTP293	ltpFR2	5	n/a	n/a	n/a	11	n/a	n/a	n/a	n/a
1695.656	n/a	REC_START	847828	n/a	LTP293	ltpFR2	5	8	n/a	n/a	n/a	n/a	0	0	0
1696.07	n/a	REC_WORD	848035	wordpools/wasnorm_wordpool_576.txt	LTP293	ltpFR2	5	8	SILK	1307	n/a	n/a	0	0	0
1697.114	n/a	REC_WORD	848557	wordpools/wasnorm_wordpool_576.txt	LTP293	ltpFR2	5	8	LAVA	804	n/a	n/a	0	0	0
1698.35	n/a	REC_WORD	849175	wordpools/wasnorm_wordpool_576.txt	LTP293	ltpFR2	5	8	FOREHEAD	592	n/a	n/a	0	0	0
1699.38	n/a	REC_WORD	849690	wordpools/wasnorm_wordpool_576.txt	LTP293	ltpFR2	5	8	JURY	766	n/a	n/a	0	0	0
1700.582	n/a	REC_WORD	850291	wordpools/wasnorm_wordpool_576.txt	LTP293	ltpFR2	5	8	CATTLE	261	n/a	n/a	0	0	0
1701.852	n/a	REC_WORD	850926	wordpools/wasnorm_wordpool_576.txt	LTP293	ltpFR2	5	8	HORSE	719	n/a	n/a	0	0	0
1703.06	n/a	REC_WORD	851530	wordpools/wasnorm_wordpool_576.txt	LTP293	ltpFR2	5	8	VENUS	1557	n/a	n/a	0	0	0
1706.864	n/a	REC_WORD	853432	wordpools/wasnorm_wordpool_576.txt	LTP293	ltpFR2	5	8	PUPPY	1144	n/a	n/a	0	0	0
1707.954	n/a	REC_WORD	853977	wordpools/wasnorm_wordpool_576.txt	LTP293	ltpFR2	5	8	FOX	598	n/a	n/a	0	0	0
1709.92	n/a	REC_WORD	854960	wordpools/wasnorm_wordpool_576.txt	LTP293	ltpFR2	5	8	PIGEON	1065	n/a	n/a	0	0	0
1719.62	n/a	REC_WORD	859810	wordpools/wasnorm_wordpool_576.txt	LTP293	ltpFR2	5	8	WASHER	1592	n/a	n/a	0	0	0
1772.186	n/a	REST_REWET	886093	n/a	LTP293	ltpFR2	5	8	n/a	n/a	n/a	n/a	0	0	0
1974.576	n/a	DISTRACTOR	987288	n/a	LTP293	ltpFR2	5	9	n/a	n/a	n/a	n/a	0	0	0
1974.576	n/a	START	987288	n/a	LTP293	ltpFR2	5	n/a	n/a	n/a	12	n/a	n/a	n/a	n/a
1974.61	n/a	PROB	987305	n/a	LTP293	ltpFR2	5	n/a	n/a	n/a	12	15	7	6	2
1976.71	n/a	PROB	988355	n/a	LTP293	ltpFR2	5	n/a	n/a	n/a	12	20	6	8	6
1978.948	n/a	PROB	989474	n/a	LTP293	ltpFR2	5	n/a	n/a	n/a	12	21	9	6	6
1980.48	n/a	PROB	990240	n/a	LTP293	ltpFR2	5	n/a	n/a	n/a	12	17	9	2	6
1981.95	n/a	PROB	990975	n/a	LTP293	ltpFR2	5	n/a	n/a	n/a	12	14	5	1	8
1983.05	n/a	PROB	991525	n/a	LTP293	ltpFR2	5	n/a	n/a	n/a	12	7	2	3	2
1985.268	n/a	PROB	992634	n/a	LTP293	ltpFR2	5	n/a	n/a	n/a	12	21	5	8	8
1986.452	n/a	PROB	993226	n/a	LTP293	ltpFR2	5	n/a	n/a	n/a	12	13	9	3	1
1987.536	n/a	PROB	993768	n/a	LTP293	ltpFR2	5	n/a	n/a	n/a	12	7	1	2	4
1988.704	n/a	PROB	994352	n/a	LTP293	ltpFR2	5	n/a	n/a	n/a	12	19	6	9	4
1990.74	n/a	PROB	995370	n/a	LTP293	ltpFR2	5	n/a	n/a	n/a	12	11	7	3	1
1992.792	n/a	PROB	996396	n/a	LTP293	ltpFR2	5	n/a	n/a	n/a	12	7	4	1	2
1993.976	n/a	PROB	996988	n/a	LTP293	ltpFR2	5	n/a	n/a	n/a	12	16	5	4	7
1995.328	n/a	PROB	997664	n/a	LTP293	ltpFR2	5	n/a	n/a	n/a	12	21	8	4	9
1996.562	n/a	PROB	998281	n/a	LTP293	ltpFR2	5	n/a	n/a	n/a	12	12	1	6	5
1997.658	n/a	STOP	998829	n/a	LTP293	ltpFR2	5	n/a	n/a	n/a	12	n/a	n/a	n/a	n/a
1999.748	n/a	WORD	999874	wordpools/wasnorm_wordpool_576.txt	LTP293	ltpFR2	5	9	AWARD	63	n/a	n/a	0	0	0
2002.398	n/a	WORD	1001199	wordpools/wasnorm_wordpool_576.txt	LTP293	ltpFR2	5	9	NURSE	963	n/a	n/a	0	0	0
2005.218	n/a	WORD	1002609	wordpools/wasnorm_wordpool_576.txt	LTP293	ltpFR2	5	9	GREASE	660	n/a	n/a	0	0	0
2007.704	n/a	WORD	1003852	wordpools/wasnorm_wordpool_576.txt	LTP293	ltpFR2	5	9	PISTON	1076	n/a	n/a	0	0	0
2010.406	n/a	WORD	1005203	wordpools/wasnorm_wordpool_576.txt	LTP293	ltpFR2	5	9	KNIFE	785	n/a	n/a	0	0	0
2013.01	n/a	WORD	1006505	wordpools/wasnorm_wordpool_576.txt	LTP293	ltpFR2	5	9	TUNNEL	1519	n/a	n/a	0	0	0
2015.478	n/a	WORD	1007739	wordpools/wasnorm_wordpool_576.txt	LTP293	ltpFR2	5	9	GARBAGE	622	n/a	n/a	0	0	0
2018.014	n/a	WORD	1009007	wordpools/wasnorm_wordpool_576.txt	LTP293	ltpFR2	5	9	PLIERS	1089	n/a	n/a	0	0	0
2020.816	n/a	WORD	1010408	wordpools/wasnorm_wordpool_576.txt	LTP293	ltpFR2	5	9	PISTOL	1075	n/a	n/a	0	0	0
2023.3	n/a	WORD	1011650	wordpools/wasnorm_wordpool_576.txt	LTP293	ltpFR2	5	9	SHORTS	1293	n/a	n/a	0	0	0
2026.054	n/a	WORD	1013027	wordpools/wasnorm_wordpool_576.txt	LTP293	ltpFR2	5	9	LASER	801	n/a	n/a	0	0	0
2028.756	n/a	WORD	1014378	wordpools/wasnorm_wordpool_576.txt	LTP293	ltpFR2	5	9	JELLY	755	n/a	n/a	0	0	0
2031.492	n/a	WORD	1015746	wordpools/wasnorm_wordpool_576.txt	LTP293	ltpFR2	5	9	GOBLIN	645	n/a	n/a	0	0	0
2034.16	n/a	WORD	1017080	wordpools/wasnorm_wordpool_576.txt	LTP293	ltpFR2	5	9	BLOUSE	139	n/a	n/a	0	0	0
2036.812	n/a	WORD	1018406	wordpools/wasnorm_wordpool_576.txt	LTP293	ltpFR2	5	9	MARINE	869	n/a	n/a	0	0	0
2039.548	n/a	WORD	1019774	wordpools/wasnorm_wordpool_576.txt	LTP293	ltpFR2	5	9	CRIB	407	n/a	n/a	0	0	0
2042.166	n/a	WORD	1021083	wordpools/wasnorm_wordpool_576.txt	LTP293	ltpFR2	5	9	CANAL	226	n/a	n/a	0	0	0
2044.936	n/a	WORD	1022468	wordpools/wasnorm_wordpool_576.txt	LTP293	ltpFR2	5	9	HOOK	715	n/a	n/a	0	0	0
2047.706	n/a	WORD	1023853	wordpools/wasnorm_wordpool_576.txt	LTP293	ltpFR2	5	9	SADDLE	1221	n/a	n/a	0	0	0
2050.172	n/a	WORD	1025086	wordpools/wasnorm_wordpool_576.txt	LTP293	ltpFR2	5	9	STALLION	1369	n/a	n/a	0	0	0
2052.858	n/a	WORD	1026429	wordpools/wasnorm_wordpool_576.txt	LTP293	ltpFR2	5	9	HATCHET	691	n/a	n/a	0	0	0
2055.544	n/a	WORD	1027772	wordpools/wasnorm_wordpool_576.txt	LTP293	ltpFR2	5	9	MAILBOX	857	n/a	n/a	0	0	0
2058.23	n/a	WORD	1029115	wordpools/wasnorm_wordpool_576.txt	LTP293	ltpFR2	5	9	GIFT	635	n/a	n/a	0	0	0
2060.748	n/a	WORD	1030374	wordpools/wasnorm_wordpool_576.txt	LTP293	ltpFR2	5	9	KETCHUP	771	n/a	n/a	0	0	0
2062.368	n/a	START	1031184	n/a	LTP293	ltpFR2	5	n/a	n/a	n/a	13	n/a	n/a	n/a	n/a
2063.416	n/a	DISTRACTOR	1031708	n/a	LTP293	ltpFR2	5	9	n/a	n/a	n/a	n/a	0	0	0
2063.434	n/a	PROB	1031717	n/a	LTP293	ltpFR2	5	n/a	n/a	n/a	13	14	4	8	2
2064.636	n/a	PROB	1032318	n/a	LTP293	ltpFR2	5	n/a	n/a	n/a	13	20	7	5	8
2065.954	n/a	PROB	1032977	n/a	LTP293	ltpFR2	5	n/a	n/a	n/a	13	16	9	1	6
2066.972	n/a	PROB	1033486	n/a	LTP293	ltpFR2	5	n/a	n/a	n/a	13	14	2	5	7
2068.138	n/a	PROB	1034069	n/a	LTP293	ltpFR2	5	n/a	n/a	n/a	13	17	7	8	2
2069.456	n/a	PROB	1034728	n/a	LTP293	ltpFR2	5	n/a	n/a	n/a	13	10	2	2	6
2070.508	n/a	PROB	1035254	n/a	LTP293	ltpFR2	5	n/a	n/a	n/a	13	10	5	2	3
2071.792	n/a	PROB	1035896	n/a	LTP293	ltpFR2	5	n/a	n/a	n/a	13	8	1	4	3
2072.894	n/a	PROB	1036447	n/a	LTP293	ltpFR2	5	n/a	n/a	n/a	13	18	5	6	7
2074.728	n/a	PROB	1037364	n/a	LTP293	ltpFR2	5	n/a	n/a	n/a	13	13	9	2	2
2076.196	n/a	PROB	1038098	n/a	LTP293	ltpFR2	5	n/a	n/a	n/a	13	8	2	2	4
2077.064	n/a	PROB	1038532	n/a	LTP293	ltpFR2	5	n/a	n/a	n/a	13	21	7	9	4
2078.198	n/a	PROB	1039099	n/a	LTP293	ltpFR2	5	n/a	n/a	n/a	13	20	6	9	5
2079.466	n/a	PROB	1039733	n/a	LTP293	ltpFR2	5	n/a	n/a	n/a	13	9	3	1	5
2080.682	n/a	PROB	1040341	n/a	LTP293	ltpFR2	5	n/a	n/a	n/a	13	9	6	1	2
2081.902	n/a	PROB	1040951	n/a	LTP293	ltpFR2	5	n/a	n/a	n/a	13	8	5	2	1
2082.902	n/a	PROB	1041451	n/a	LTP293	ltpFR2	5	n/a	n/a	n/a	13	18	5	7	6
2084.236	n/a	PROB	1042118	n/a	LTP293	ltpFR2	5	n/a	n/a	n/a	13	23	5	9	9
2085.404	n/a	STOP	1042702	n/a	LTP293	ltpFR2	5	n/a	n/a	n/a	13	n/a	n/a	n/a	n/a
2088.156	n/a	REC_START	1044078	n/a	LTP293	ltpFR2	5	9	n/a	n/a	n/a	n/a	0	0	0
2088.798	n/a	REC_WORD	1044399	wordpools/wasnorm_wordpool_576.txt	LTP293	ltpFR2	5	9	STALLION	1369	n/a	n/a	0	0	0
2090.012	n/a	REC_WORD	1045006	wordpools/wasnorm_wordpool_576.txt	LTP293	ltpFR2	5	9	SADDLE	1221	n/a	n/a	0	0	0
2091.692	n/a	REC_WORD	1045846	wordpools/wasnorm_wordpool_576.txt	LTP293	ltpFR2	5	9	GIFT	635	n/a	n/a	0	0	0
2099.526	n/a	REC_WORD	1049763	wordpools/wasnorm_wordpool_576.txt	LTP293	ltpFR2	5	9	MARINE	869	n/a	n/a	0	0	0
2101.914	n/a	REC_WORD	1050957	wordpools/wasnorm_wordpool_576.txt	LTP293	ltpFR2	5	9	CANAL	226	n/a	n/a	0	0	0
2103.302	n/a	REC_WORD	1051651	wordpools/wasnorm_wordpool_576.txt	LTP293	ltpFR2	5	9	TUNNEL	1519	n/a	n/a	0	0	0
2104.576	n/a	REC_WORD	1052288	wordpools/wasnorm_wordpool_576.txt	LTP293	ltpFR2	5	9	PLIERS	1089	n/a	n/a	0	0	0
2105.808	n/a	REC_WORD	1052904	wordpools/wasnorm_wordpool_576.txt	LTP293	ltpFR2	5	9	GARBAGE	622	n/a	n/a	0	0	0
2107.01	n/a	REC_WORD	1053505	wordpools/wasnorm_wordpool_576.txt	LTP293	ltpFR2	5	9	GREASE	660	n/a	n/a	0	0	0
2113.392	n/a	REC_WORD	1056696	wordpools/wasnorm_wordpool_576.txt	LTP293	ltpFR2	5	9	AWARD	63	n/a	n/a	0	0	0
2116.678	n/a	REC_WORD	1058339	wordpools/wasnorm_wordpool_576.txt	LTP293	ltpFR2	5	9	JELLY	755	n/a	n/a	0	0	0
2138.078	n/a	REC_WORD	1069039	wordpools/wasnorm_wordpool_576.txt	LTP293	ltpFR2	5	9	KETCHUP	771	n/a	n/a	0	0	0
2178.782	n/a	DISTRACTOR	1089391	n/a	LTP293	ltpFR2	5	10	n/a	n/a	n/a	n/a	0	0	0
2178.784	n/a	START	1089392	n/a	LTP293	ltpFR2	5	n/a	n/a	n/a	14	n/a	n/a	n/a	n/a
2178.816	n/a	PROB	1089408	n/a	LTP293	ltpFR2	5	n/a	n/a	n/a	14	11	6	4	1
2179.918	n/a	PROB	1089959	n/a	LTP293	ltpFR2	5	n/a	n/a	n/a	14	18	8	3	7
2181.168	n/a	PROB	1090584	n/a	LTP293	ltpFR2	5	n/a	n/a	n/a	14	24	6	9	9
2182.47	n/a	PROB	1091235	n/a	LTP293	ltpFR2	5	n/a	n/a	n/a	14	13	5	7	1
2183.82	n/a	PROB	1091910	n/a	LTP293	ltpFR2	5	n/a	n/a	n/a	14	11	4	5	1
2184.838	n/a	PROB	1092419	n/a	LTP293	ltpFR2	5	n/a	n/a	n/a	14	15	3	6	6
2186.774	n/a	PROB	1093387	n/a	LTP293	ltpFR2	5	n/a	n/a	n/a	14	23	8	9	6
2187.858	n/a	PROB	1093929	n/a	LTP293	ltpFR2	5	n/a	n/a	n/a	14	20	5	6	9
2188.992	n/a	PROB	1094496	n/a	LTP293	ltpFR2	5	n/a	n/a	n/a	14	20	7	6	7
2190.56	n/a	PROB	1095280	n/a	LTP293	ltpFR2	5	n/a	n/a	n/a	14	10	6	1	3
2191.978	n/a	PROB	1095989	n/a	LTP293	ltpFR2	5	n/a	n/a	n/a	14	20	5	7	8
2194.43	n/a	PROB	1097215	n/a	LTP293	ltpFR2	5	n/a	n/a	n/a	14	16	5	2	9
2196.098	n/a	PROB	1098049	n/a	LTP293	ltpFR2	5	n/a	n/a	n/a	14	7	1	3	3
2197.382	n/a	PROB	1098691	n/a	LTP293	ltpFR2	5	n/a	n/a	n/a	14	11	1	5	5
2198.298	n/a	PROB	1099149	n/a	LTP293	ltpFR2	5	n/a	n/a	n/a	14	9	3	5	1
2199.45	n/a	PROB	1099725	n/a	LTP293	ltpFR2	5	n/a	n/a	n/a	14	15	8	2	5
2200.718	n/a	PROB	1100359	n/a	LTP293	ltpFR2	5	n/a	n/a	n/a	14	10	1	6	3
2202.022	n/a	STOP	1101011	n/a	LTP293	ltpFR2	5	n/a	n/a	n/a	14	n/a	n/a	n/a	n/a
2203.77	n/a	WORD	1101885	wordpools/wasnorm_wordpool_576.txt	LTP293	ltpFR2	5	10	ANKLE	24	n/a	n/a	0	0	0
2206.422	n/a	WORD	1103211	wordpools/wasnorm_wordpool_576.txt	LTP293	ltpFR2	5	10	LACE	792	n/a	n/a	0	0	0
2208.992	n/a	WORD	1104496	wordpools/wasnorm_wordpool_576.txt	LTP293	ltpFR2	5	10	SHIRT	1287	n/a	n/a	0	0	0
2211.526	n/a	WORD	1105763	wordpools/wasnorm_wordpool_576.txt	LTP293	ltpFR2	5	10	UMPIRE	1535	n/a	n/a	0	0	0
2214.262	n/a	WORD	1107131	wordpools/wasnorm_wordpool_576.txt	LTP293	ltpFR2	5	10	DRESS	495	n/a	n/a	0	0	0
2216.916	n/a	WORD	1108458	wordpools/wasnorm_wordpool_576.txt	LTP293	ltpFR2	5	10	BUREAU	199	n/a	n/a	0	0	0
2219.4	n/a	WORD	1109700	wordpools/wasnorm_wordpool_576.txt	LTP293	ltpFR2	5	10	HAND	683	n/a	n/a	0	0	0
2221.954	n/a	WORD	1110977	wordpools/wasnorm_wordpool_576.txt	LTP293	ltpFR2	5	10	FRIAR	605	n/a	n/a	0	0	0
2224.472	n/a	WORD	1112236	wordpools/wasnorm_wordpool_576.txt	LTP293	ltpFR2	5	10	TEMPLE	1448	n/a	n/a	0	0	0
2227.158	n/a	WORD	1113579	wordpools/wasnorm_wordpool_576.txt	LTP293	ltpFR2	5	10	SCARECROW	1245	n/a	n/a	0	0	0
2229.978	n/a	WORD	1114989	wordpools/wasnorm_wordpool_576.txt	LTP293	ltpFR2	5	10	DOLPHIN	483	n/a	n/a	0	0	0
2232.546	n/a	WORD	1116273	wordpools/wasnorm_wordpool_576.txt	LTP293	ltpFR2	5	10	CLAMP	316	n/a	n/a	0	0	0
2235.032	n/a	WORD	1117516	wordpools/wasnorm_wordpool_576.txt	LTP293	ltpFR2	5	10	DASHBOARD	441	n/a	n/a	0	0	0
2237.866	n/a	WORD	1118933	wordpools/wasnorm_wordpool_576.txt	LTP293	ltpFR2	5	10	BARLEY	88	n/a	n/a	0	0	0
2240.386	n/a	WORD	1120193	wordpools/wasnorm_wordpool_576.txt	LTP293	ltpFR2	5	10	SLOPE	1328	n/a	n/a	0	0	0
2243.004	n/a	WORD	1121502	wordpools/wasnorm_wordpool_576.txt	LTP293	ltpFR2	5	10	SHOULDER	1294	n/a	n/a	0	0	0
2245.64	n/a	WORD	1122820	wordpools/wasnorm_wordpool_576.txt	LTP293	ltpFR2	5	10	SWAMP	1416	n/a	n/a	0	0	0
2248.458	n/a	WORD	1124229	wordpools/wasnorm_wordpool_576.txt	LTP293	ltpFR2	5	10	GRAPE	654	n/a	n/a	0	0	0
2251.112	n/a	WORD	1125556	wordpools/wasnorm_wordpool_576.txt	LTP293	ltpFR2	5	10	BRANCH	168	n/a	n/a	0	0	0
2253.762	n/a	WORD	1126881	wordpools/wasnorm_wordpool_576.txt	LTP293	ltpFR2	5	10	CONVICT	371	n/a	n/a	0	0	0
2256.416	n/a	WORD	1128208	wordpools/wasnorm_wordpool_576.txt	LTP293	ltpFR2	5	10	SUSPECT	1415	n/a	n/a	0	0	0
2258.934	n/a	WORD	1129467	wordpools/wasnorm_wordpool_576.txt	LTP293	ltpFR2	5	10	BUBBLE	183	n/a	n/a	0	0	0
2261.67	n/a	WORD	1130835	wordpools/wasnorm_wordpool_576.txt	LTP293	ltpFR2	5	10	BLACKBOARD	133	n/a	n/a	0	0	0
2264.438	n/a	WORD	1132219	wordpools/wasnorm_wordpool_576.txt	LTP293	ltpFR2	5	10	SKIRT	1319	n/a	n/a	0	0	0
2266.042	n/a	START	1133021	n/a	LTP293	ltpFR2	5	n/a	n/a	n/a	15	n/a	n/a	n/a	n/a
2267.13	n/a	DISTRACTOR	1133565	n/a	LTP293	ltpFR2	5	10	n/a	n/a	n/a	n/a	0	0	0
2267.142	n/a	PROB	1133571	n/a	LTP293	ltpFR2	5	n/a	n/a	n/a	15	15	5	4	6
2268.242	n/a	PROB	1134121	n/a	LTP293	ltpFR2	5	n/a	n/a	n/a	15	9	3	2	4
2269.978	n/a	PROB	1134989	n/a	LTP293	ltpFR2	5	n/a	n/a	n/a	15	25	9	8	8
2271.144	n/a	PROB	1135572	n/a	LTP293	ltpFR2	5	n/a	n/a	n/a	15	18	4	5	9
2272.114	n/a	PROB	1136057	n/a	LTP293	ltpFR2	5	n/a	n/a	n/a	15	12	6	5	1
2273.164	n/a	PROB	1136582	n/a	LTP293	ltpFR2	5	n/a	n/a	n/a	15	10	4	2	4
2274.314	n/a	PROB	1137157	n/a	LTP293	ltpFR2	5	n/a	n/a	n/a	15	15	5	5	5
2275.132	n/a	PROB	1137566	n/a	LTP293	ltpFR2	5	n/a	n/a	n/a	15	11	4	1	6
2276.232	n/a	PROB	1138116	n/a	LTP293	ltpFR2	5	n/a	n/a	n/a	15	17	7	5	5
2277.25	n/a	PROB	1138625	n/a	LTP293	ltpFR2	5	n/a	n/a	n/a	15	16	8	7	1
2278.468	n/a	PROB	1139234	n/a	LTP293	ltpFR2	5	n/a	n/a	n/a	15	9	6	2	1
2279.618	n/a	PROB	1139809	n/a	LTP293	ltpFR2	5	n/a	n/a	n/a	15	15	6	1	8
2280.804	n/a	PROB	1140402	n/a	LTP293	ltpFR2	5	n/a	n/a	n/a	15	10	2	5	3
2282.056	n/a	PROB	1141028	n/a	LTP293	ltpFR2	5	n/a	n/a	n/a	15	13	6	2	5
2283.172	n/a	PROB	1141586	n/a	LTP293	ltpFR2	5	n/a	n/a	n/a	15	17	7	8	2
2284.44	n/a	PROB	1142220	n/a	LTP293	ltpFR2	5	n/a	n/a	n/a	15	10	1	3	6
2286.874	n/a	PROB	1143437	n/a	LTP293	ltpFR2	5	n/a	n/a	n/a	15	15	2	4	9
2288.06	n/a	PROB	1144030	n/a	LTP293	ltpFR2	5	n/a	n/a	n/a	15	11	1	6	4
2289.168	n/a	STOP	1144584	n/a	LTP293	ltpFR2	5	n/a	n/a	n/a	15	n/a	n/a	n/a	n/a
2291.914	n/a	REC_START	1145957	n/a	LTP293	ltpFR2	5	10	n/a	n/a	n/a	n/a	0	0	0
2292.992	n/a	REC_WORD	1146496	wordpools/wasnorm_wordpool_576.txt	LTP293	ltpFR2	5	10	CONVICT	371	n/a	n/a	0	0	0
2293.908	n/a	REC_WORD	1146954	wordpools/wasnorm_wordpool_576.txt	LTP293	ltpFR2	5	10	SUSPECT	1415	n/a	n/a	0	0	0
2295.314	n/a	REC_WORD	1147657	wordpools/wasnorm_wordpool_576.txt	LTP293	ltpFR2	5	10	UMPIRE	1535	n/a	n/a	0	0	0
2296.55	n/a	REC_WORD	1148275	wordpools/wasnorm_wordpool_576.txt	LTP293	ltpFR2	5	10	DRESS	495	n/a	n/a	0	0	0
2297.466	n/a	REC_WORD	1148733	wordpools/wasnorm_wordpool_576.txt	LTP293	ltpFR2	5	10	SKIRT	1319	n/a	n/a	0	0	0
2298.636	n/a	REC_WORD	1149318	wordpools/wasnorm_wordpool_576.txt	LTP293	ltpFR2	5	10	BUBBLE	183	n/a	n/a	0	0	0
2299.72	n/a	REC_WORD	1149860	wordpools/wasnorm_wordpool_576.txt	LTP293	ltpFR2	5	10	BLACKBOARD	133	n/a	n/a	0	0	0
2301.912	n/a	REC_WORD	1150956	wordpools/wasnorm_wordpool_576.txt	LTP293	ltpFR2	5	10	ANKLE	24	n/a	n/a	0	0	0
2302.76	n/a	REC_WORD	1151380	wordpools/wasnorm_wordpool_576.txt	LTP293	ltpFR2	5	10	SHOULDER	1294	n/a	n/a	0	0	0
2303.98	n/a	REC_WORD	1151990	wordpools/wasnorm_wordpool_576.txt	LTP293	ltpFR2	5	10	HAND	683	n/a	n/a	0	0	0
2304.976	n/a	REC_WORD	1152488	wordpools/wasnorm_wordpool_576.txt	LTP293	ltpFR2	5	10	SHIRT	1287	n/a	n/a	0	0	0
2308.694	n/a	REC_WORD	1154347	wordpools/wasnorm_wordpool_576.txt	LTP293	ltpFR2	5	10	BRANCH	168	n/a	n/a	0	0	0
2309.578	n/a	REC_WORD	1154789	wordpools/wasnorm_wordpool_576.txt	LTP293	ltpFR2	5	10	SWAMP	1416	n/a	n/a	0	0	0
2320.422	n/a	REC_WORD	1160211	wordpools/wasnorm_wordpool_576.txt	LTP293	ltpFR2	5	10	DASHBOARD	441	n/a	n/a	0	0	0
2382.556	n/a	WORD	1191278	wordpools/wasnorm_wordpool_576.txt	LTP293	ltpFR2	5	11	APRON	35	n/a	n/a	0	0	0
2385.358	n/a	WORD	1192679	wordpools/wasnorm_wordpool_576.txt	LTP293	ltpFR2	5	11	GARLIC	624	n/a	n/a	0	0	0
2387.878	n/a	WORD	1193939	wordpools/wasnorm_wordpool_576.txt	LTP293	ltpFR2	5	11	PUPIL	1143	n/a	n/a	0	0	0
2390.546	n/a	WORD	1195273	wordpools/wasnorm_wordpool_576.txt	LTP293	ltpFR2	5	11	EAGLE	512	n/a	n/a	0	0	0
2392.998	n/a	WORD	1196499	wordpools/wasnorm_wordpool_576.txt	LTP293	ltpFR2	5	11	KNAPSACK	783	n/a	n/a	0	0	0
2395.634	n/a	WORD	1197817	wordpools/wasnorm_wordpool_576.txt	LTP293	ltpFR2	5	11	MEAT	883	n/a	n/a	0	0	0
2398.104	n/a	WORD	1199052	wordpools/wasnorm_wordpool_576.txt	LTP293	ltpFR2	5	11	BISON	131	n/a	n/a	0	0	0
2400.538	n/a	WORD	1200269	wordpools/wasnorm_wordpool_576.txt	LTP293	ltpFR2	5	11	MUFFIN	929	n/a	n/a	0	0	0
2403.374	n/a	WORD	1201687	wordpools/wasnorm_wordpool_576.txt	LTP293	ltpFR2	5	11	TUTU	1524	n/a	n/a	0	0	0
2405.926	n/a	WORD	1202963	wordpools/wasnorm_wordpool_576.txt	LTP293	ltpFR2	5	11	JEANS	752	n/a	n/a	0	0	0
2408.578	n/a	WORD	1204289	wordpools/wasnorm_wordpool_576.txt	LTP293	ltpFR2	5	11	ZIPPER	1636	n/a	n/a	0	0	0
2411.398	n/a	WORD	1205699	wordpools/wasnorm_wordpool_576.txt	LTP293	ltpFR2	5	11	TROMBONE	1508	n/a	n/a	0	0	0
2413.934	n/a	WORD	1206967	wordpools/wasnorm_wordpool_576.txt	LTP293	ltpFR2	5	11	VAGRANT	1544	n/a	n/a	0	0	0
2416.484	n/a	WORD	1208242	wordpools/wasnorm_wordpool_576.txt	LTP293	ltpFR2	5	11	TURKEY	1520	n/a	n/a	0	0	0
2419.038	n/a	WORD	1209519	wordpools/wasnorm_wordpool_576.txt	LTP293	ltpFR2	5	11	COCOON	339	n/a	n/a	0	0	0
2421.522	n/a	WORD	1210761	wordpools/wasnorm_wordpool_576.txt	LTP293	ltpFR2	5	11	OMELET	976	n/a	n/a	0	0	0
2424.326	n/a	WORD	1212163	wordpools/wasnorm_wordpool_576.txt	LTP293	ltpFR2	5	11	BARREL	91	n/a	n/a	0	0	0
2427.112	n/a	WORD	1213556	wordpools/wasnorm_wordpool_576.txt	LTP293	ltpFR2	5	11	CHAMPAGNE	278	n/a	n/a	0	0	0
2429.78	n/a	WORD	1214890	wordpools/wasnorm_wordpool_576.txt	LTP293	ltpFR2	5	11	MATTRESS	879	n/a	n/a	0	0	0
2432.282	n/a	WORD	1216141	wordpools/wasnorm_wordpool_576.txt	LTP293	ltpFR2	5	11	ATOM	55	n/a	n/a	0	0	0
2435.002	n/a	WORD	1217501	wordpools/wasnorm_wordpool_576.txt	LTP293	ltpFR2	5	11	MISSILE	900	n/a	n/a	0	0	0
2437.518	n/a	WORD	1218759	wordpools/wasnorm_wordpool_576.txt	LTP293	ltpFR2	5	11	GUITAR	670	n/a	n/a	0	0	0
2440.204	n/a	WORD	1220102	wordpools/wasnorm_wordpool_576.txt	LTP293	ltpFR2	5	11	BEAST	108	n/a	n/a	0	0	0
2442.74	n/a	WORD	1221370	wordpools/wasnorm_wordpool_576.txt	LTP293	ltpFR2	5	11	PENGUIN	1044	n/a	n/a	0	0	0
2444.358	n/a	START	1222179	n/a	LTP293	ltpFR2	5	n/a	n/a	n/a	16	n/a	n/a	n/a	n/a
2445.462	n/a	DISTRACTOR	1222731	n/a	LTP293	ltpFR2	5	11	n/a	n/a	n/a	n/a	0	0	0
2445.492	n/a	PROB	1222746	n/a	LTP293	ltpFR2	5	n/a	n/a	n/a	16	18	8	9	1
2447.044	n/a	PROB	1223522	n/a	LTP293	ltpFR2	5	n/a	n/a	n/a	16	7	3	3	1
2448.462	n/a	PROB	1224231	n/a	LTP293	ltpFR2	5	n/a	n/a	n/a	16	13	5	2	6
2449.53	n/a	PROB	1224765	n/a	LTP293	ltpFR2	5	n/a	n/a	n/a	16	15	8	6	1
2450.63	n/a	PROB	1225315	n/a	LTP293	ltpFR2	5	n/a	n/a	n/a	16	18	3	7	8
2451.664	n/a	PROB	1225832	n/a	LTP293	ltpFR2	5	n/a	n/a	n/a	16	12	1	2	9
2452.832	n/a	PROB	1226416	n/a	LTP293	ltpFR2	5	n/a	n/a	n/a	16	14	2	8	4
2454.134	n/a	PROB	1227067	n/a	LTP293	ltpFR2	5	n/a	n/a	n/a	16	18	7	7	4
2455.15	n/a	PROB	1227575	n/a	LTP293	ltpFR2	5	n/a	n/a	n/a	16	21	3	9	9
2456.552	n/a	PROB	1228276	n/a	LTP293	ltpFR2	5	n/a	n/a	n/a	16	19	3	9	7
2457.836	n/a	PROB	1228918	n/a	LTP293	ltpFR2	5	n/a	n/a	n/a	16	5	1	3	1
2458.77	n/a	PROB	1229385	n/a	LTP293	ltpFR2	5	n/a	n/a	n/a	16	23	9	8	6
2460.04	n/a	PROB	1230020	n/a	LTP293	ltpFR2	5	n/a	n/a	n/a	16	12	2	1	9
2461.108	n/a	PROB	1230554	n/a	LTP293	ltpFR2	5	n/a	n/a	n/a	16	13	6	1	6
2462.308	n/a	PROB	1231154	n/a	LTP293	ltpFR2	5	n/a	n/a	n/a	16	19	2	9	8
2463.558	n/a	PROB	1231779	n/a	LTP293	ltpFR2	5	n/a	n/a	n/a	16	21	5	9	7
2465.844	n/a	PROB	1232922	n/a	LTP293	ltpFR2	5	n/a	n/a	n/a	16	9	2	5	2
2467.546	n/a	STOP	1233773	n/a	LTP293	ltpFR2	5	n/a	n/a	n/a	16	n/a	n/a	n/a	n/a
2470.264	n/a	REC_START	1235132	n/a	LTP293	ltpFR2	5	11	n/a	n/a	n/a	n/a	0	0	0
2470.924	n/a	REC_WORD	1235462	wordpools/wasnorm_wordpool_576.txt	LTP293	ltpFR2	5	11	BEAST	108	n/a	n/a	0	0	0
2471.862	n/a	REC_WORD	1235931	wordpools/wasnorm_wordpool_576.txt	LTP293	ltpFR2	5	11	PENGUIN	1044	n/a	n/a	0	0	0
2474.092	n/a	REC_WORD	1237046	wordpools/wasnorm_wordpool_576.txt	LTP293	ltpFR2	5	11	APRON	35	n/a	n/a	0	0	0
2475.13	n/a	REC_WORD	1237565	wordpools/wasnorm_wordpool_576.txt	LTP293	ltpFR2	5	11	JEANS	752	n/a	n/a	0	0	0
2475.942	n/a	REC_WORD	1237971	wordpools/wasnorm_wordpool_576.txt	LTP293	ltpFR2	5	11	ZIPPER	1636	n/a	n/a	0	0	0
2477.08	n/a	REC_WORD	1238540	wordpools/wasnorm_wordpool_576.txt	LTP293	ltpFR2	5	11	TUTU	1524	n/a	n/a	0	0	0
2478.356	n/a	REC_WORD	1239178	wordpools/wasnorm_wordpool_576.txt	LTP293	ltpFR2	5	11	PUPIL	1143	n/a	n/a	0	0	0
2479.428	n/a	REC_WORD	1239714	wordpools/wasnorm_wordpool_576.txt	LTP293	ltpFR2	5	11	VAGRANT	1544	n/a	n/a	0	0	0
2480.48	n/a	REC_WORD	1240240	wordpools/wasnorm_wordpool_576.txt	LTP293	ltpFR2	5	11	OMELET	976	n/a	n/a	0	0	0
2481.8	n/a	REC_WORD	1240900	wordpools/wasnorm_wordpool_576.txt	LTP293	ltpFR2	5	11	BARREL	91	n/a	n/a	0	0	0
2486.542	n/a	REC_WORD	1243271	wordpools/wasnorm_wordpool_576.txt	LTP293	ltpFR2	5	11	MISSILE	900	n/a	n/a	0	0	0
2498.59	n/a	REC_WORD	1249295	wordpools/wasnorm_wordpool_576.txt	LTP293	ltpFR2	5	11	TURKEY	1520	n/a	n/a	0	0	0
2525.212	n/a	REC_WORD	1262606	wordpools/wasnorm_wordpool_576.txt	LTP293	ltpFR2	5	11	ATOM	55	n/a	n/a	0	0	0
2540.622	n/a	REC_WORD	1270311	wordpools/wasnorm_wordpool_576.txt	LTP293	ltpFR2	5	11	COCOON	339	n/a	n/a	0	0	0
2560.724	n/a	WORD	1280362	wordpools/wasnorm_wordpool_576.txt	LTP293	ltpFR2	5	12	TWEEZERS	1526	n/a	n/a	0	0	0
2563.21	n/a	WORD	1281605	wordpools/wasnorm_wordpool_576.txt	LTP293	ltpFR2	5	12	CRUTCH	417	n/a	n/a	0	0	0
2565.862	n/a	WORD	1282931	wordpools/wasnorm_wordpool_576.txt	LTP293	ltpFR2	5	12	CHIPMUNK	304	n/a	n/a	0	0	0
2568.348	n/a	WORD	1284174	wordpools/wasnorm_wordpool_576.txt	LTP293	ltpFR2	5	12	PIMPLE	1071	n/a	n/a	0	0	0
2571.034	n/a	WORD	1285517	wordpools/wasnorm_wordpool_576.txt	LTP293	ltpFR2	5	12	BUGGY	188	n/a	n/a	0	0	0
2573.602	n/a	WORD	1286801	wordpools/wasnorm_wordpool_576.txt	LTP293	ltpFR2	5	12	COTTAGE	384	n/a	n/a	0	0	0
2576.22	n/a	WORD	1288110	wordpools/wasnorm_wordpool_576.txt	LTP293	ltpFR2	5	12	POLICE	1098	n/a	n/a	0	0	0
2578.756	n/a	WORD	1289378	wordpools/wasnorm_wordpool_576.txt	LTP293	ltpFR2	5	12	NOTEBOOK	959	n/a	n/a	0	0	0
2581.524	n/a	WORD	1290762	wordpools/wasnorm_wordpool_576.txt	LTP293	ltpFR2	5	12	MESSAGE	888	n/a	n/a	0	0	0
2584.012	n/a	WORD	1292006	wordpools/wasnorm_wordpool_576.txt	LTP293	ltpFR2	5	12	ORCHID	982	n/a	n/a	0	0	0
2586.762	n/a	WORD	1293381	wordpools/wasnorm_wordpool_576.txt	LTP293	ltpFR2	5	12	RATTLE	1170	n/a	n/a	0	0	0
2589.482	n/a	WORD	1294741	wordpools/wasnorm_wordpool_576.txt	LTP293	ltpFR2	5	12	GUARD	667	n/a	n/a	0	0	0
2592.234	n/a	WORD	1296117	wordpools/wasnorm_wordpool_576.txt	LTP293	ltpFR2	5	12	COOK	372	n/a	n/a	0	0	0
2594.852	n/a	WORD	1297426	wordpools/wasnorm_wordpool_576.txt	LTP293	ltpFR2	5	12	CUPBOARD	425	n/a	n/a	0	0	0
2597.556	n/a	WORD	1298778	wordpools/wasnorm_wordpool_576.txt	LTP293	ltpFR2	5	12	CARRIAGE	248	n/a	n/a	0	0	0
2600.174	n/a	WORD	1300087	wordpools/wasnorm_wordpool_576.txt	LTP293	ltpFR2	5	12	JUDGE	761	n/a	n/a	0	0	0
2602.944	n/a	WORD	1301472	wordpools/wasnorm_wordpool_576.txt	LTP293	ltpFR2	5	12	SERVANT	1271	n/a	n/a	0	0	0
2605.496	n/a	WORD	1302748	wordpools/wasnorm_wordpool_576.txt	LTP293	ltpFR2	5	12	DRINK	498	n/a	n/a	0	0	0
2607.982	n/a	WORD	1303991	wordpools/wasnorm_wordpool_576.txt	LTP293	ltpFR2	5	12	SEAL	1262	n/a	n/a	0	0	0
2610.634	n/a	WORD	1305317	wordpools/wasnorm_wordpool_576.txt	LTP293	ltpFR2	5	12	VIRUS	1572	n/a	n/a	0	0	0
2613.336	n/a	WORD	1306668	wordpools/wasnorm_wordpool_576.txt	LTP293	ltpFR2	5	12	CAMEL	223	n/a	n/a	0	0	0
2615.804	n/a	WORD	1307902	wordpools/wasnorm_wordpool_576.txt	LTP293	ltpFR2	5	12	CIGAR	308	n/a	n/a	0	0	0
2618.606	n/a	WORD	1309303	wordpools/wasnorm_wordpool_576.txt	LTP293	ltpFR2	5	12	POET	1095	n/a	n/a	0	0	0
2621.176	n/a	WORD	1310588	wordpools/wasnorm_wordpool_576.txt	LTP293	ltpFR2	5	12	FOOTBALL	591	n/a	n/a	0	0	0
2622.794	n/a	START	1311397	n/a	LTP293	ltpFR2	5	n/a	n/a	n/a	17	n/a	n/a	n/a	n/a
2623.67	n/a	DISTRACTOR	1311835	n/a	LTP293	ltpFR2	5	12	n/a	n/a	n/a	n/a	0	0	0
2623.694	n/a	PROB	1311847	n/a	LTP293	ltpFR2	5	n/a	n/a	n/a	17	11	1	3	7
2624.762	n/a	PROB	1312381	n/a	LTP293	ltpFR2	5	n/a	n/a	n/a	17	17	5	7	5
2626.014	n/a	PROB	1313007	n/a	LTP293	ltpFR2	5	n/a	n/a	n/a	17	20	3	8	9
2626.998	n/a	PROB	1313499	n/a	LTP293	ltpFR2	5	n/a	n/a	n/a	17	19	3	7	9
2628.116	n/a	PROB	1314058	n/a	LTP293	ltpFR2	5	n/a	n/a	n/a	17	13	4	8	1
2629.166	n/a	PROB	1314583	n/a	LTP293	ltpFR2	5	n/a	n/a	n/a	17	25	8	7	8
2632.168	n/a	PROB	1316084	n/a	LTP293	ltpFR2	5	n/a	n/a	n/a	17	19	8	2	9
2633.318	n/a	PROB	1316659	n/a	LTP293	ltpFR2	5	n/a	n/a	n/a	17	8	3	1	4
2634.236	n/a	PROB	1317118	n/a	LTP293	ltpFR2	5	n/a	n/a	n/a	17	21	8	5	8
2635.938	n/a	PROB	1317969	n/a	LTP293	ltpFR2	5	n/a	n/a	n/a	17	18	4	5	9
2636.856	n/a	PROB	1318428	n/a	LTP293	ltpFR2	5	n/a	n/a	n/a	17	11	6	3	2
2638.108	n/a	PROB	1319054	n/a	LTP293	ltpFR2	5	n/a	n/a	n/a	17	9	1	7	1
2639.108	n/a	PROB	1319554	n/a	LTP293	ltpFR2	5	n/a	n/a	n/a	17	11	6	1	4
2640.442	n/a	PROB	1320221	n/a	LTP293	ltpFR2	5	n/a	n/a	n/a	17	22	5	8	9
2642.594	n/a	PROB	1321297	n/a	LTP293	ltpFR2	5	n/a	n/a	n/a	17	14	3	5	6
2643.896	n/a	PROB	1321948	n/a	LTP293	ltpFR2	5	n/a	n/a	n/a	17	13	1	6	6
2645.064	n/a	PROB	1322532	n/a	LTP293	ltpFR2	5	n/a	n/a	n/a	17	18	9	8	1
2646.078	n/a	STOP	1323039	n/a	LTP293	ltpFR2	5	n/a	n/a	n/a	17	n/a	n/a	n/a	n/a
2648.766	n/a	REC_START	1324383	n/a	LTP293	ltpFR2	5	12	n/a	n/a	n/a	n/a	0	0	0
2649.868	n/a	REC_WORD	1324934	wordpools/wasnorm_wordpool_576.txt	LTP293	ltpFR2	5	12	CAMEL	223	n/a	n/a	0	0	0
2651.1	n/a	REC_WORD	1325550	wordpools/wasnorm_wordpool_576.txt	LTP293	ltpFR2	5	12	BUGGY	188	n/a	n/a	0	0	0
2654.148	n/a	REC_WORD	1327074	wordpools/wasnorm_wordpool_576.txt	LTP293	ltpFR2	5	12	POLICE	1098	n/a	n/a	0	0	0
2655.48	n/a	REC_WORD	1327740	wordpools/wasnorm_wordpool_576.txt	LTP293	ltpFR2	5	12	GUARD	667	n/a	n/a	0	0	0
2657.312	n/a	REC_WORD	1328656	wordpools/wasnorm_wordpool_576.txt	LTP293	ltpFR2	5	12	TWEEZERS	1526	n/a	n/a	0	0	0
2658.588	n/a	REC_WORD	1329294	wordpools/wasnorm_wordpool_576.txt	LTP293	ltpFR2	5	12	PIMPLE	1071	n/a	n/a	0	0	0
2660.616	n/a	REC_WORD	1330308	wordpools/wasnorm_wordpool_576.txt	LTP293	ltpFR2	5	12	CHIPMUNK	304	n/a	n/a	0	0	0
2671.126	n/a	REC_WORD	1335563	wordpools/wasnorm_wordpool_576.txt	LTP293	ltpFR2	5	12	VIRUS	1572	n/a	n/a	0	0	0
2686.224	n/a	REC_WORD	1343112	wordpools/wasnorm_wordpool_576.txt	LTP293	ltpFR2	5	12	MESSAGE	888	n/a	n/a	0	0	0
2687.42	n/a	REC_WORD	1343710	wordpools/wasnorm_wordpool_576.txt	LTP293	ltpFR2	5	12	NOTEBOOK	959	n/a	n/a	0	0	0
2739.342	n/a	WORD	1369671	wordpools/wasnorm_wordpool_576.txt	LTP293	ltpFR2	5	13	SODA	1341	n/a	n/a	0	0	0
2741.98	n/a	WORD	1370990	wordpools/wasnorm_wordpool_576.txt	LTP293	ltpFR2	5	13	PLAZA	1088	n/a	n/a	0	0	0
2744.714	n/a	WORD	1372357	wordpools/wasnorm_wordpool_576.txt	LTP293	ltpFR2	5	13	APPLE	33	n/a	n/a	0	0	0
2747.382	n/a	WORD	1373691	wordpools/wasnorm_wordpool_576.txt	LTP293	ltpFR2	5	13	FLOWER	584	n/a	n/a	0	0	0
2749.802	n/a	WORD	1374901	wordpools/wasnorm_wordpool_576.txt	LTP293	ltpFR2	5	13	PREACHER	1119	n/a	n/a	0	0	0
2752.354	n/a	WORD	1376177	wordpools/wasnorm_wordpool_576.txt	LTP293	ltpFR2	5	13	PECAN	1036	n/a	n/a	0	0	0
2754.94	n/a	WORD	1377470	wordpools/wasnorm_wordpool_576.txt	LTP293	ltpFR2	5	13	ITEM	746	n/a	n/a	0	0	0
2757.458	n/a	WORD	1378729	wordpools/wasnorm_wordpool_576.txt	LTP293	ltpFR2	5	13	WRIST	1626	n/a	n/a	0	0	0
2760.044	n/a	WORD	1380022	wordpools/wasnorm_wordpool_576.txt	LTP293	ltpFR2	5	13	BANQUET	86	n/a	n/a	0	0	0
2762.78	n/a	WORD	1381390	wordpools/wasnorm_wordpool_576.txt	LTP293	ltpFR2	5	13	RELISH	1183	n/a	n/a	0	0	0
2765.482	n/a	WORD	1382741	wordpools/wasnorm_wordpool_576.txt	LTP293	ltpFR2	5	13	DAISY	435	n/a	n/a	0	0	0
2768.184	n/a	WORD	1384092	wordpools/wasnorm_wordpool_576.txt	LTP293	ltpFR2	5	13	WRENCH	1625	n/a	n/a	0	0	0
2770.854	n/a	WORD	1385427	wordpools/wasnorm_wordpool_576.txt	LTP293	ltpFR2	5	13	CHAPEL	280	n/a	n/a	0	0	0
2773.588	n/a	WORD	1386794	wordpools/wasnorm_wordpool_576.txt	LTP293	ltpFR2	5	13	GARDEN	623	n/a	n/a	0	0	0
2776.306	n/a	WORD	1388153	wordpools/wasnorm_wordpool_576.txt	LTP293	ltpFR2	5	13	SCALLOP	1242	n/a	n/a	0	0	0
2779.126	n/a	WORD	1389563	wordpools/wasnorm_wordpool_576.txt	LTP293	ltpFR2	5	13	TUBA	1515	n/a	n/a	0	0	0
2781.946	n/a	WORD	1390973	wordpools/wasnorm_wordpool_576.txt	LTP293	ltpFR2	5	13	ROOSTER	1209	n/a	n/a	0	0	0
2784.648	n/a	WORD	1392324	wordpools/wasnorm_wordpool_576.txt	LTP293	ltpFR2	5	13	YOLK	1633	n/a	n/a	0	0	0
2787.316	n/a	WORD	1393658	wordpools/wasnorm_wordpool_576.txt	LTP293	ltpFR2	5	13	FRAME	600	n/a	n/a	0	0	0
2789.986	n/a	WORD	1394993	wordpools/wasnorm_wordpool_576.txt	LTP293	ltpFR2	5	13	JELLO	754	n/a	n/a	0	0	0
2792.722	n/a	WORD	1396361	wordpools/wasnorm_wordpool_576.txt	LTP293	ltpFR2	5	13	FINGER	567	n/a	n/a	0	0	0
2795.456	n/a	WORD	1397728	wordpools/wasnorm_wordpool_576.txt	LTP293	ltpFR2	5	13	BLADE	134	n/a	n/a	0	0	0
2797.894	n/a	WORD	1398947	wordpools/wasnorm_wordpool_576.txt	LTP293	ltpFR2	5	13	RAZOR	1171	n/a	n/a	0	0	0
2800.528	n/a	WORD	1400264	wordpools/wasnorm_wordpool_576.txt	LTP293	ltpFR2	5	13	GRAVEL	659	n/a	n/a	0	0	0
2802.146	n/a	START	1401073	n/a	LTP293	ltpFR2	5	n/a	n/a	n/a	18	n/a	n/a	n/a	n/a
2803.286	n/a	DISTRACTOR	1401643	n/a	LTP293	ltpFR2	5	13	n/a	n/a	n/a	n/a	0	0	0
2803.296	n/a	PROB	1401648	n/a	LTP293	ltpFR2	5	n/a	n/a	n/a	18	14	3	3	8
2804.832	n/a	PROB	1402416	n/a	LTP293	ltpFR2	5	n/a	n/a	n/a	18	8	3	4	1
2806.282	n/a	PROB	1403141	n/a	LTP293	ltpFR2	5	n/a	n/a	n/a	18	18	8	6	4
2807.418	n/a	PROB	1403709	n/a	LTP293	ltpFR2	5	n/a	n/a	n/a	18	9	2	5	2
2809.054	n/a	PROB	1404527	n/a	LTP293	ltpFR2	5	n/a	n/a	n/a	18	5	3	1	1
2809.954	n/a	PROB	1404977	n/a	LTP293	ltpFR2	5	n/a	n/a	n/a	18	8	1	4	3
2811.27	n/a	PROB	1405635	n/a	LTP293	ltpFR2	5	n/a	n/a	n/a	18	21	6	9	6
2812.588	n/a	PROB	1406294	n/a	LTP293	ltpFR2	5	n/a	n/a	n/a	18	20	3	8	9
2813.89	n/a	PROB	1406945	n/a	LTP293	ltpFR2	5	n/a	n/a	n/a	18	21	5	9	7
2815.274	n/a	PROB	1407637	n/a	LTP293	ltpFR2	5	n/a	n/a	n/a	18	12	4	7	1
2816.476	n/a	PROB	1408238	n/a	LTP293	ltpFR2	5	n/a	n/a	n/a	18	13	5	6	2
2817.692	n/a	PROB	1408846	n/a	LTP293	ltpFR2	5	n/a	n/a	n/a	18	12	1	9	2
2818.728	n/a	PROB	1409364	n/a	LTP293	ltpFR2	5	n/a	n/a	n/a	18	14	7	6	1
2819.896	n/a	PROB	1409948	n/a	LTP293	ltpFR2	5	n/a	n/a	n/a	18	19	3	9	7
2821.446	n/a	PROB	1410723	n/a	LTP293	ltpFR2	5	n/a	n/a	n/a	18	7	4	1	2
2822.78	n/a	PROB	1411390	n/a	LTP293	ltpFR2	5	n/a	n/a	n/a	18	6	2	1	3
2823.814	n/a	PROB	1411907	n/a	LTP293	ltpFR2	5	n/a	n/a	n/a	18	12	3	6	3
2824.946	n/a	STOP	1412473	n/a	LTP293	ltpFR2	5	n/a	n/a	n/a	18	n/a	n/a	n/a	n/a
2828.102	n/a	REC_START	1414051	n/a	LTP293	ltpFR2	5	13	n/a	n/a	n/a	n/a	0	0	0
2828.586	n/a	REC_WORD	1414293	wordpools/wasnorm_wordpool_576.txt	LTP293	ltpFR2	5	13	RAZOR	1171	n/a	n/a	0	0	0
2829.668	n/a	REC_WORD	1414834	wordpools/wasnorm_wordpool_576.txt	LTP293	ltpFR2	5	13	BLADE	134	n/a	n/a	0	0	0
2831.36	n/a	REC_WORD	1415680	wordpools/wasnorm_wordpool_576.txt	LTP293	ltpFR2	5	13	PLAZA	1088	n/a	n/a	0	0	0
2832.762	n/a	REC_WORD	1416381	wordpools/wasnorm_wordpool_576.txt	LTP293	ltpFR2	5	13	GRAVEL	659	n/a	n/a	0	0	0
2833.976	n/a	REC_WORD	1416988	wordpools/wasnorm_wordpool_576.txt	LTP293	ltpFR2	5	13	APPLE	33	n/a	n/a	0	0	0
2835.384	n/a	REC_WORD	1417692	wordpools/wasnorm_wordpool_576.txt	LTP293	ltpFR2	5	13	BANQUET	86	n/a	n/a	0	0	0
2836.546	n/a	REC_WORD	1418273	wordpools/wasnorm_wordpool_576.txt	LTP293	ltpFR2	5	13	FLOWER	584	n/a	n/a	0	0	0
2837.872	n/a	REC_WORD	1418936	wordpools/wasnorm_wordpool_576.txt	LTP293	ltpFR2	5	13	DAISY	435	n/a	n/a	0	0	0
2851.114	n/a	REC_WORD	1425557	wordpools/wasnorm_wordpool_576.txt	LTP293	ltpFR2	5	13	RELISH	1183	n/a	n/a	0	0	0
2918.746	n/a	WORD	1459373	wordpools/wasnorm_wordpool_576.txt	LTP293	ltpFR2	5	14	CRATER	400	n/a	n/a	0	0	0
2921.514	n/a	WORD	1460757	wordpools/wasnorm_wordpool_576.txt	LTP293	ltpFR2	5	14	CREATURE	403	n/a	n/a	0	0	0
2924.1	n/a	WORD	1462050	wordpools/wasnorm_wordpool_576.txt	LTP293	ltpFR2	5	14	PACKAGE	997	n/a	n/a	0	0	0
2926.92	n/a	WORD	1463460	wordpools/wasnorm_wordpool_576.txt	LTP293	ltpFR2	5	14	EGYPT	519	n/a	n/a	0	0	0
2929.588	n/a	WORD	1464794	wordpools/wasnorm_wordpool_576.txt	LTP293	ltpFR2	5	14	RECORD	1176	n/a	n/a	0	0	0
2932.372	n/a	WORD	1466186	wordpools/wasnorm_wordpool_576.txt	LTP293	ltpFR2	5	14	HARP	689	n/a	n/a	0	0	0
2935.076	n/a	WORD	1467538	wordpools/wasnorm_wordpool_576.txt	LTP293	ltpFR2	5	14	WORLD	1622	n/a	n/a	0	0	0
2937.56	n/a	WORD	1468780	wordpools/wasnorm_wordpool_576.txt	LTP293	ltpFR2	5	14	SWIMMER	1420	n/a	n/a	0	0	0
2940.396	n/a	WORD	1470198	wordpools/wasnorm_wordpool_576.txt	LTP293	ltpFR2	5	14	DINER	467	n/a	n/a	0	0	0
2942.95	n/a	WORD	1471475	wordpools/wasnorm_wordpool_576.txt	LTP293	ltpFR2	5	14	CYCLONE	431	n/a	n/a	0	0	0
2945.768	n/a	WORD	1472884	wordpools/wasnorm_wordpool_576.txt	LTP293	ltpFR2	5	14	SAUSAGE	1238	n/a	n/a	0	0	0
2948.304	n/a	WORD	1474152	wordpools/wasnorm_wordpool_576.txt	LTP293	ltpFR2	5	14	PASTA	1021	n/a	n/a	0	0	0
2951.14	n/a	WORD	1475570	wordpools/wasnorm_wordpool_576.txt	LTP293	ltpFR2	5	14	SIDEWALK	1303	n/a	n/a	0	0	0
2953.658	n/a	WORD	1476829	wordpools/wasnorm_wordpool_576.txt	LTP293	ltpFR2	5	14	OINTMENT	974	n/a	n/a	0	0	0
2956.344	n/a	WORD	1478172	wordpools/wasnorm_wordpool_576.txt	LTP293	ltpFR2	5	14	MAILMAN	858	n/a	n/a	0	0	0
2959.114	n/a	WORD	1479557	wordpools/wasnorm_wordpool_576.txt	LTP293	ltpFR2	5	14	COMPASS	358	n/a	n/a	0	0	0
2961.598	n/a	WORD	1480799	wordpools/wasnorm_wordpool_576.txt	LTP293	ltpFR2	5	14	PUDDING	1139	n/a	n/a	0	0	0
2964.2	n/a	WORD	1482100	wordpools/wasnorm_wordpool_576.txt	LTP293	ltpFR2	5	14	VALLEY	1545	n/a	n/a	0	0	0
2967.02	n/a	WORD	1483510	wordpools/wasnorm_wordpool_576.txt	LTP293	ltpFR2	5	14	DENTIST	447	n/a	n/a	0	0	0
2969.688	n/a	WORD	1484844	wordpools/wasnorm_wordpool_576.txt	LTP293	ltpFR2	5	14	DRILL	497	n/a	n/a	0	0	0
2972.224	n/a	WORD	1486112	wordpools/wasnorm_wordpool_576.txt	LTP293	ltpFR2	5	14	WOMAN	1620	n/a	n/a	0	0	0
2974.642	n/a	WORD	1487321	wordpools/wasnorm_wordpool_576.txt	LTP293	ltpFR2	5	14	POSSUM	1112	n/a	n/a	0	0	0
2977.278	n/a	WORD	1488639	wordpools/wasnorm_wordpool_576.txt	LTP293	ltpFR2	5	14	FRANCE	601	n/a	n/a	0	0	0
2979.764	n/a	WORD	1489882	wordpools/wasnorm_wordpool_576.txt	LTP293	ltpFR2	5	14	GAVEL	627	n/a	n/a	0	0	0
2981.364	n/a	START	1490682	n/a	LTP293	ltpFR2	5	n/a	n/a	n/a	19	n/a	n/a	n/a	n/a
2982.342	n/a	DISTRACTOR	1491171	n/a	LTP293	ltpFR2	5	14	n/a	n/a	n/a	n/a	0	0	0
2982.366	n/a	PROB	1491183	n/a	LTP293	ltpFR2	5	n/a	n/a	n/a	19	15	2	6	7
2983.666	n/a	PROB	1491833	n/a	LTP293	ltpFR2	5	n/a	n/a	n/a	19	14	6	1	7
2984.768	n/a	PROB	1492384	n/a	LTP293	ltpFR2	5	n/a	n/a	n/a	19	11	1	6	4
2986.036	n/a	PROB	1493018	n/a	LTP293	ltpFR2	5	n/a	n/a	n/a	19	8	1	2	5
2988.104	n/a	PROB	1494052	n/a	LTP293	ltpFR2	5	n/a	n/a	n/a	19	14	4	4	6
2989.338	n/a	PROB	1494669	n/a	LTP293	ltpFR2	5	n/a	n/a	n/a	19	14	6	2	7
2990.94	n/a	PROB	1495470	n/a	LTP293	ltpFR2	5	n/a	n/a	n/a	19	9	6	2	1
2992.308	n/a	PROB	1496154	n/a	LTP293	ltpFR2	5	n/a	n/a	n/a	19	12	5	5	2
2993.226	n/a	PROB	1496613	n/a	LTP293	ltpFR2	5	n/a	n/a	n/a	19	15	5	3	7
2994.844	n/a	PROB	1497422	n/a	LTP293	ltpFR2	5	n/a	n/a	n/a	19	19	8	3	8
2997.346	n/a	PROB	1498673	n/a	LTP293	ltpFR2	5	n/a	n/a	n/a	19	15	1	5	9
2998.496	n/a	PROB	1499248	n/a	LTP293	ltpFR2	5	n/a	n/a	n/a	19	14	7	2	5
2999.698	n/a	PROB	1499849	n/a	LTP293	ltpFR2	5	n/a	n/a	n/a	19	11	3	7	1
3000.714	n/a	PROB	1500357	n/a	LTP293	ltpFR2	5	n/a	n/a	n/a	19	14	9	3	2
3002.034	n/a	PROB	1501017	n/a	LTP293	ltpFR2	5	n/a	n/a	n/a	19	12	1	2	9
3003.116	n/a	PROB	1501558	n/a	LTP293	ltpFR2	5	n/a	n/a	n/a	19	23	6	9	8
3004.558	n/a	STOP	1502279	n/a	LTP293	ltpFR2	5	n/a	n/a	n/a	19	n/a	n/a	n/a	n/a
3007.188	n/a	REC_START	1503594	n/a	LTP293	ltpFR2	5	14	n/a	n/a	n/a	n/a	0	0	0
3007.594	n/a	REC_WORD	1503797	wordpools/wasnorm_wordpool_576.txt	LTP293	ltpFR2	5	14	CRATER	400	n/a	n/a	0	0	0
3008.612	n/a	REC_WORD	1504306	wordpools/wasnorm_wordpool_576.txt	LTP293	ltpFR2	5	14	CREATURE	403	n/a	n/a	0	0	0
3009.798	n/a	REC_WORD	1504899	wordpools/wasnorm_wordpool_576.txt	LTP293	ltpFR2	5	14	DINER	467	n/a	n/a	0	0	0
3010.93	n/a	REC_WORD	1505465	wordpools/wasnorm_wordpool_576.txt	LTP293	ltpFR2	5	14	SAUSAGE	1238	n/a	n/a	0	0	0
3012.086	n/a	REC_WORD	1506043	wordpools/wasnorm_wordpool_576.txt	LTP293	ltpFR2	5	14	PASTA	1021	n/a	n/a	0	0	0
3013.326	n/a	REC_WORD	1506663	wordpools/wasnorm_wordpool_576.txt	LTP293	ltpFR2	5	14	PACKAGE	997	n/a	n/a	0	0	0
3014.47	n/a	REC_WORD	1507235	wordpools/wasnorm_wordpool_576.txt	LTP293	ltpFR2	5	14	MAILMAN	858	n/a	n/a	0	0	0
3015.636	n/a	REC_WORD	1507818	wordpools/wasnorm_wordpool_576.txt	LTP293	ltpFR2	5	14	COMPASS	358	n/a	n/a	0	0	0
3016.898	n/a	REC_WORD	1508449	wordpools/wasnorm_wordpool_576.txt	LTP293	ltpFR2	5	14	WORLD	1622	n/a	n/a	0	0	0
3018.822	n/a	REC_WORD	1509411	wordpools/wasnorm_wordpool_576.txt	LTP293	ltpFR2	5	14	POSSUM	1112	n/a	n/a	0	0	0
3097.814	n/a	WORD	1548907	wordpools/wasnorm_wordpool_576.txt	LTP293	ltpFR2	5	15	UNCLE	1536	n/a	n/a	0	0	0
3100.45	n/a	WORD	1550225	wordpools/wasnorm_wordpool_576.txt	LTP293	ltpFR2	5	15	KITCHEN	778	n/a	n/a	0	0	0
3102.902	n/a	WORD	1551451	wordpools/wasnorm_wordpool_576.txt	LTP293	ltpFR2	5	15	ROBBER	1197	n/a	n/a	0	0	0
3105.688	n/a	WORD	1552844	wordpools/wasnorm_wordpool_576.txt	LTP293	ltpFR2	5	15	PEANUT	1032	n/a	n/a	0	0	0
3108.14	n/a	WORD	1554070	wordpools/wasnorm_wordpool_576.txt	LTP293	ltpFR2	5	15	OYSTER	995	n/a	n/a	0	0	0
3110.608	n/a	WORD	1555304	wordpools/wasnorm_wordpool_576.txt	LTP293	ltpFR2	5	15	FARMER	553	n/a	n/a	0	0	0
3113.444	n/a	WORD	1556722	wordpools/wasnorm_wordpool_576.txt	LTP293	ltpFR2	5	15	FLEET	578	n/a	n/a	0	0	0
3116.246	n/a	WORD	1558123	wordpools/wasnorm_wordpool_576.txt	LTP293	ltpFR2	5	15	BOARD	143	n/a	n/a	0	0	0
3118.764	n/a	WORD	1559382	wordpools/wasnorm_wordpool_576.txt	LTP293	ltpFR2	5	15	PRINCE	1124	n/a	n/a	0	0	0
3121.584	n/a	WORD	1560792	wordpools/wasnorm_wordpool_576.txt	LTP293	ltpFR2	5	15	DOUGHNUT	490	n/a	n/a	0	0	0
3124.12	n/a	WORD	1562060	wordpools/wasnorm_wordpool_576.txt	LTP293	ltpFR2	5	15	HOUND	724	n/a	n/a	0	0	0
3126.738	n/a	WORD	1563369	wordpools/wasnorm_wordpool_576.txt	LTP293	ltpFR2	5	15	CLAM	315	n/a	n/a	0	0	0
3129.24	n/a	WORD	1564620	wordpools/wasnorm_wordpool_576.txt	LTP293	ltpFR2	5	15	TEACHER	1440	n/a	n/a	0	0	0
3132.078	n/a	WORD	1566039	wordpools/wasnorm_wordpool_576.txt	LTP293	ltpFR2	5	15	COLLEGE	346	n/a	n/a	0	0	0
3134.512	n/a	WORD	1567256	wordpools/wasnorm_wordpool_576.txt	LTP293	ltpFR2	5	15	CREVICE	405	n/a	n/a	0	0	0
3137.314	n/a	WORD	1568657	wordpools/wasnorm_wordpool_576.txt	LTP293	ltpFR2	5	15	COUNTY	389	n/a	n/a	0	0	0
3140.034	n/a	WORD	1570017	wordpools/wasnorm_wordpool_576.txt	LTP293	ltpFR2	5	15	MACHINE	852	n/a	n/a	0	0	0
3142.786	n/a	WORD	1571393	wordpools/wasnorm_wordpool_576.txt	LTP293	ltpFR2	5	15	MUMMY	932	n/a	n/a	0	0	0
3145.522	n/a	WORD	1572761	wordpools/wasnorm_wordpool_576.txt	LTP293	ltpFR2	5	15	SPHINX	1349	n/a	n/a	0	0	0
3148.208	n/a	WORD	1574104	wordpools/wasnorm_wordpool_576.txt	LTP293	ltpFR2	5	15	THIEF	1456	n/a	n/a	0	0	0
3150.81	n/a	WORD	1575405	wordpools/wasnorm_wordpool_576.txt	LTP293	ltpFR2	5	15	CAFE	216	n/a	n/a	0	0	0
3153.646	n/a	WORD	1576823	wordpools/wasnorm_wordpool_576.txt	LTP293	ltpFR2	5	15	OUTFIT	988	n/a	n/a	0	0	0
3156.164	n/a	WORD	1578082	wordpools/wasnorm_wordpool_576.txt	LTP293	ltpFR2	5	15	RABBIT	1152	n/a	n/a	0	0	0
3158.9	n/a	WORD	1579450	wordpools/wasnorm_wordpool_576.txt	LTP293	ltpFR2	5	15	LETTUCE	814	n/a	n/a	0	0	0
3160.516	n/a	START	1580258	n/a	LTP293	ltpFR2	5	n/a	n/a	n/a	20	n/a	n/a	n/a	n/a
3161.386	n/a	DISTRACTOR	1580693	n/a	LTP293	ltpFR2	5	15	n/a	n/a	n/a	n/a	0	0	0
3161.4	n/a	PROB	1580700	n/a	LTP293	ltpFR2	5	n/a	n/a	n/a	20	17	6	6	5
3163.37	n/a	PROB	1581685	n/a	LTP293	ltpFR2	5	n/a	n/a	n/a	20	14	4	5	5
3164.42	n/a	PROB	1582210	n/a	LTP293	ltpFR2	5	n/a	n/a	n/a	20	11	3	7	1
3165.354	n/a	PROB	1582677	n/a	LTP293	ltpFR2	5	n/a	n/a	n/a	20	19	6	9	4
3166.622	n/a	PROB	1583311	n/a	LTP293	ltpFR2	5	n/a	n/a	n/a	20	17	9	4	4
3168.356	n/a	PROB	1584178	n/a	LTP293	ltpFR2	5	n/a	n/a	n/a	20	22	5	8	9
3171.492	n/a	PROB	1585746	n/a	LTP293	ltpFR2	5	n/a	n/a	n/a	20	18	3	7	8
3172.478	n/a	PROB	1586239	n/a	LTP293	ltpFR2	5	n/a	n/a	n/a	20	20	7	4	9
3173.762	n/a	PROB	1586881	n/a	LTP293	ltpFR2	5	n/a	n/a	n/a	20	20	2	9	9
3175.014	n/a	PROB	1587507	n/a	LTP293	ltpFR2	5	n/a	n/a	n/a	20	18	9	5	4
3176.082	n/a	PROB	1588041	n/a	LTP293	ltpFR2	5	n/a	n/a	n/a	20	9	1	5	3
3177.398	n/a	PROB	1588699	n/a	LTP293	ltpFR2	5	n/a	n/a	n/a	20	10	5	3	2
3178.616	n/a	PROB	1589308	n/a	LTP293	ltpFR2	5	n/a	n/a	n/a	20	14	8	3	3
3179.734	n/a	PROB	1589867	n/a	LTP293	ltpFR2	5	n/a	n/a	n/a	20	16	6	3	7
3181.434	n/a	PROB	1590717	n/a	LTP293	ltpFR2	5	n/a	n/a	n/a	20	25	7	9	9
3182.72	n/a	PROB	1591360	n/a	LTP293	ltpFR2	5	n/a	n/a	n/a	20	10	1	3	6
3184.082	n/a	STOP	1592041	n/a	LTP293	ltpFR2	5	n/a	n/a	n/a	20	n/a	n/a	n/a	n/a
3186.406	n/a	REC_START	1593203	n/a	LTP293	ltpFR2	5	15	n/a	n/a	n/a	n/a	0	0	0
3187.246	n/a	REC_WORD	1593623	wordpools/wasnorm_wordpool_576.txt	LTP293	ltpFR2	5	15	COUNTY	389	n/a	n/a	0	0	0
3188.386	n/a	REC_WORD	1594193	wordpools/wasnorm_wordpool_576.txt	LTP293	ltpFR2	5	15	COLLEGE	346	n/a	n/a	0	0	0
3190.42	n/a	REC_WORD	1595210	wordpools/wasnorm_wordpool_576.txt	LTP293	ltpFR2	5	15	TEACHER	1440	n/a	n/a	0	0	0
3191.59	n/a	REC_WORD	1595795	wordpools/wasnorm_wordpool_576.txt	LTP293	ltpFR2	5	15	UNCLE	1536	n/a	n/a	0	0	0
3192.914	n/a	REC_WORD	1596457	wordpools/wasnorm_wordpool_576.txt	LTP293	ltpFR2	5	15	THIEF	1456	n/a	n/a	0	0	0
3194.326	n/a	REC_WORD	1597163	wordpools/wasnorm_wordpool_576.txt	LTP293	ltpFR2	5	15	BURGLAR	200	n/a	n/a	0	0	0
3195.716	n/a	REC_WORD	1597858	wordpools/wasnorm_wordpool_576.txt	LTP293	ltpFR2	5	15	OYSTER	995	n/a	n/a	0	0	0
3198.08	n/a	REC_WORD	1599040	wordpools/wasnorm_wordpool_576.txt	LTP293	ltpFR2	5	15	CLAM	315	n/a	n/a	0	0	0
3200.308	n/a	REC_WORD	1600154	wordpools/wasnorm_wordpool_576.txt	LTP293	ltpFR2	5	15	KITCHEN	778	n/a	n/a	0	0	0
3202.308	n/a	REC_WORD	1601154	wordpools/wasnorm_wordpool_576.txt	LTP293	ltpFR2	5	15	OUTFIT	988	n/a	n/a	0	0	0
3203.58	n/a	REC_WORD	1601790	wordpools/wasnorm_wordpool_576.txt	LTP293	ltpFR2	5	15	CREVICE	405	n/a	n/a	0	0	0
3216.12	n/a	REC_WORD	1608060	wordpools/wasnorm_wordpool_576.txt	LTP293	ltpFR2	5	15	BOARD	143	n/a	n/a	0	0	0
3276.868	n/a	WORD	1638434	wordpools/wasnorm_wordpool_576.txt	LTP293	ltpFR2	5	16	BUNNY	198	n/a	n/a	0	0	0
3279.518	n/a	WORD	1639759	wordpools/wasnorm_wordpool_576.txt	LTP293	ltpFR2	5	16	GYMNAST	675	n/a	n/a	0	0	0
3282.104	n/a	WORD	1641052	wordpools/wasnorm_wordpool_576.txt	LTP293	ltpFR2	5	16	WHISKERS	1605	n/a	n/a	0	0	0
3284.64	n/a	WORD	1642320	wordpools/wasnorm_wordpool_576.txt	LTP293	ltpFR2	5	16	SCULPTURE	1258	n/a	n/a	0	0	0
3287.358	n/a	WORD	1643679	wordpools/wasnorm_wordpool_576.txt	LTP293	ltpFR2	5	16	COOKBOOK	373	n/a	n/a	0	0	0
3290.178	n/a	WORD	1645089	wordpools/wasnorm_wordpool_576.txt	LTP293	ltpFR2	5	16	ICING	732	n/a	n/a	0	0	0
3292.882	n/a	WORD	1646441	wordpools/wasnorm_wordpool_576.txt	LTP293	ltpFR2	5	16	SKILLET	1317	n/a	n/a	0	0	0
3295.332	n/a	WORD	1647666	wordpools/wasnorm_wordpool_576.txt	LTP293	ltpFR2	5	16	STUDENT	1395	n/a	n/a	0	0	0
3297.784	n/a	WORD	1648892	wordpools/wasnorm_wordpool_576.txt	LTP293	ltpFR2	5	16	STOVE	1388	n/a	n/a	0	0	0
3300.604	n/a	WORD	1650302	wordpools/wasnorm_wordpool_576.txt	LTP293	ltpFR2	5	16	DRESSER	496	n/a	n/a	0	0	0
3303.372	n/a	WORD	1651686	wordpools/wasnorm_wordpool_576.txt	LTP293	ltpFR2	5	16	WARDROBE	1587	n/a	n/a	0	0	0
3306.208	n/a	WORD	1653104	wordpools/wasnorm_wordpool_576.txt	LTP293	ltpFR2	5	16	MILK	895	n/a	n/a	0	0	0
3308.66	n/a	WORD	1654330	wordpools/wasnorm_wordpool_576.txt	LTP293	ltpFR2	5	16	CEILING	265	n/a	n/a	0	0	0
3311.228	n/a	WORD	1655614	wordpools/wasnorm_wordpool_576.txt	LTP293	ltpFR2	5	16	CARROT	249	n/a	n/a	0	0	0
3313.698	n/a	WORD	1656849	wordpools/wasnorm_wordpool_576.txt	LTP293	ltpFR2	5	16	MUSTARD	935	n/a	n/a	0	0	0
3316.482	n/a	WORD	1658241	wordpools/wasnorm_wordpool_576.txt	LTP293	ltpFR2	5	16	WAITER	1580	n/a	n/a	0	0	0
3319.236	n/a	WORD	1659618	wordpools/wasnorm_wordpool_576.txt	LTP293	ltpFR2	5	16	ORANGE	980	n/a	n/a	0	0	0
3321.956	n/a	WORD	1660978	wordpools/wasnorm_wordpool_576.txt	LTP293	ltpFR2	5	16	BLOCKADE	137	n/a	n/a	0	0	0
3324.64	n/a	WORD	1662320	wordpools/wasnorm_wordpool_576.txt	LTP293	ltpFR2	5	16	PERFUME	1049	n/a	n/a	0	0	0
3327.226	n/a	WORD	1663613	wordpools/wasnorm_wordpool_576.txt	LTP293	ltpFR2	5	16	ONION	977	n/a	n/a	0	0	0
3330.046	n/a	WORD	1665023	wordpools/wasnorm_wordpool_576.txt	LTP293	ltpFR2	5	16	BADGE	68	n/a	n/a	0	0	0
3332.696	n/a	WORD	1666348	wordpools/wasnorm_wordpool_576.txt	LTP293	ltpFR2	5	16	REBEL	1172	n/a	n/a	0	0	0
3335.45	n/a	WORD	1667725	wordpools/wasnorm_wordpool_576.txt	LTP293	ltpFR2	5	16	ROD	1203	n/a	n/a	0	0	0
3338.184	n/a	WORD	1669092	wordpools/wasnorm_wordpool_576.txt	LTP293	ltpFR2	5	16	BUTCHER	203	n/a	n/a	0	0	0
3339.804	n/a	START	1669902	n/a	LTP293	ltpFR2	5	n/a	n/a	n/a	21	n/a	n/a	n/a	n/a
3340.606	n/a	DISTRACTOR	1670303	n/a	LTP293	ltpFR2	5	16	n/a	n/a	n/a	n/a	0	0	0
3340.62	n/a	PROB	1670310	n/a	LTP293	ltpFR2	5	n/a	n/a	n/a	21	18	9	2	7
3341.972	n/a	PROB	1670986	n/a	LTP293	ltpFR2	5	n/a	n/a	n/a	21	17	7	4	6
3343.172	n/a	PROB	1671586	n/a	LTP293	ltpFR2	5	n/a	n/a	n/a	21	15	6	2	7
3344.374	n/a	PROB	1672187	n/a	LTP293	ltpFR2	5	n/a	n/a	n/a	21	15	5	5	5
3345.242	n/a	PROB	1672621	n/a	LTP293	ltpFR2	5	n/a	n/a	n/a	21	12	5	3	4
3347.31	n/a	PROB	1673655	n/a	LTP293	ltpFR2	5	n/a	n/a	n/a	21	17	9	6	2
3350.58	n/a	PROB	1675290	n/a	LTP293	ltpFR2	5	n/a	n/a	n/a	21	20	9	9	2
3351.948	n/a	PROB	1675974	n/a	LTP293	ltpFR2	5	n/a	n/a	n/a	21	15	7	3	5
3353.032	n/a	PROB	1676516	n/a	LTP293	ltpFR2	5	n/a	n/a	n/a	21	9	1	3	5
3354.716	n/a	PROB	1677358	n/a	LTP293	ltpFR2	5	n/a	n/a	n/a	21	13	3	4	6
3355.934	n/a	PROB	1677967	n/a	LTP293	ltpFR2	5	n/a	n/a	n/a	21	12	3	2	7
3356.952	n/a	PROB	1678476	n/a	LTP293	ltpFR2	5	n/a	n/a	n/a	21	4	1	2	1
3357.936	n/a	PROB	1678968	n/a	LTP293	ltpFR2	5	n/a	n/a	n/a	21	8	5	1	2
3359.352	n/a	PROB	1679676	n/a	LTP293	ltpFR2	5	n/a	n/a	n/a	21	10	7	2	1
3360.436	n/a	PROB	1680218	n/a	LTP293	ltpFR2	5	n/a	n/a	n/a	21	7	2	1	4
3361.654	n/a	PROB	1680827	n/a	LTP293	ltpFR2	5	n/a	n/a	n/a	21	5	2	2	1
3362.372	n/a	STOP	1681186	n/a	LTP293	ltpFR2	5	n/a	n/a	n/a	21	n/a	n/a	n/a	n/a
3365.692	n/a	REC_START	1682846	n/a	LTP293	ltpFR2	5	16	n/a	n/a	n/a	n/a	0	0	0
3366.132	n/a	REC_WORD	1683066	wordpools/wasnorm_wordpool_576.txt	LTP293	ltpFR2	5	16	ROD	1203	n/a	n/a	0	0	0
3367.242	n/a	REC_WORD	1683621	wordpools/wasnorm_wordpool_576.txt	LTP293	ltpFR2	5	16	BUTCHER	203	n/a	n/a	0	0	0
3370.1	n/a	REC_WORD	1685050	wordpools/wasnorm_wordpool_576.txt	LTP293	ltpFR2	5	16	GYMNAST	675	n/a	n/a	0	0	0
3371.884	n/a	REC_WORD	1685942	wordpools/wasnorm_wordpool_576.txt	LTP293	ltpFR2	5	16	BUNNY	198	n/a	n/a	0	0	0
3373.576	n/a	REC_WORD	1686788	wordpools/wasnorm_wordpool_576.txt	LTP293	ltpFR2	5	16	CARROT	249	n/a	n/a	0	0	0
3374.932	n/a	REC_WORD	1687466	wordpools/wasnorm_wordpool_576.txt	LTP293	ltpFR2	5	16	LETTUCE	814	n/a	n/a	0	0	0
3379.35	n/a	REC_WORD	1689675	wordpools/wasnorm_wordpool_576.txt	LTP293	ltpFR2	5	16	MILK	895	n/a	n/a	0	0	0
3385.668	n/a	REC_WORD	1692834	wordpools/wasnorm_wordpool_576.txt	LTP293	ltpFR2	5	16	WAITER	1580	n/a	n/a	0	0	0
3402.45	n/a	REC_WORD	1701225	wordpools/wasnorm_wordpool_576.txt	LTP293	ltpFR2	5	16	ONION	977	n/a	n/a	0	0	0
3404.652	n/a	REC_WORD	1702326	wordpools/wasnorm_wordpool_576.txt	LTP293	ltpFR2	5	16	PERFUME	1049	n/a	n/a	0	0	0
3442.24	n/a	REST_REWET	1721120	n/a	LTP293	ltpFR2	5	16	n/a	n/a	n/a	n/a	0	0	0
3665.48	n/a	DISTRACTOR	1832740	n/a	LTP293	ltpFR2	5	17	n/a	n/a	n/a	n/a	0	0	0
3665.48	n/a	START	1832740	n/a	LTP293	ltpFR2	5	n/a	n/a	n/a	22	n/a	n/a	n/a	n/a
3665.514	n/a	PROB	1832757	n/a	LTP293	ltpFR2	5	n/a	n/a	n/a	22	17	1	9	7
3667.382	n/a	PROB	1833691	n/a	LTP293	ltpFR2	5	n/a	n/a	n/a	22	5	1	1	3
3668.216	n/a	PROB	1834108	n/a	LTP293	ltpFR2	5	n/a	n/a	n/a	22	14	1	8	5
3669.4	n/a	PROB	1834700	n/a	LTP293	ltpFR2	5	n/a	n/a	n/a	22	20	7	7	6
3670.986	n/a	PROB	1835493	n/a	LTP293	ltpFR2	5	n/a	n/a	n/a	22	15	5	4	6
3672.07	n/a	PROB	1836035	n/a	LTP293	ltpFR2	5	n/a	n/a	n/a	22	13	3	2	8
3673.236	n/a	PROB	1836618	n/a	LTP293	ltpFR2	5	n/a	n/a	n/a	22	5	3	1	1
3674.42	n/a	PROB	1837210	n/a	LTP293	ltpFR2	5	n/a	n/a	n/a	22	12	3	5	4
3676.172	n/a	PROB	1838086	n/a	LTP293	ltpFR2	5	n/a	n/a	n/a	22	11	3	1	7
3677.556	n/a	PROB	1838778	n/a	LTP293	ltpFR2	5	n/a	n/a	n/a	22	17	2	7	8
3679.092	n/a	PROB	1839546	n/a	LTP293	ltpFR2	5	n/a	n/a	n/a	22	18	8	9	1
3680.66	n/a	PROB	1840330	n/a	LTP293	ltpFR2	5	n/a	n/a	n/a	22	12	4	4	4
3682.078	n/a	PROB	1841039	n/a	LTP293	ltpFR2	5	n/a	n/a	n/a	22	13	1	8	4
3683.212	n/a	PROB	1841606	n/a	LTP293	ltpFR2	5	n/a	n/a	n/a	22	11	7	1	3
3684.312	n/a	PROB	1842156	n/a	LTP293	ltpFR2	5	n/a	n/a	n/a	22	18	5	4	9
3685.714	n/a	PROB	1842857	n/a	LTP293	ltpFR2	5	n/a	n/a	n/a	22	13	2	2	9
3687.132	n/a	PROB	1843566	n/a	LTP293	ltpFR2	5	n/a	n/a	n/a	22	10	6	1	3
3688.442	n/a	STOP	1844221	n/a	LTP293	ltpFR2	5	n/a	n/a	n/a	22	n/a	n/a	n/a	n/a
3690.602	n/a	WORD	1845301	wordpools/wasnorm_wordpool_576.txt	LTP293	ltpFR2	5	17	TURTLE	1522	n/a	n/a	0	0	0
3693.352	n/a	WORD	1846676	wordpools/wasnorm_wordpool_576.txt	LTP293	ltpFR2	5	17	STREAM	1392	n/a	n/a	0	0	0
3695.806	n/a	WORD	1847903	wordpools/wasnorm_wordpool_576.txt	LTP293	ltpFR2	5	17	CANYON	235	n/a	n/a	0	0	0
3698.574	n/a	WORD	1849287	wordpools/wasnorm_wordpool_576.txt	LTP293	ltpFR2	5	17	HIKER	708	n/a	n/a	0	0	0
3701.176	n/a	WORD	1850588	wordpools/wasnorm_wordpool_576.txt	LTP293	ltpFR2	5	17	MARSH	874	n/a	n/a	0	0	0
3703.88	n/a	WORD	1851940	wordpools/wasnorm_wordpool_576.txt	LTP293	ltpFR2	5	17	EYELASH	546	n/a	n/a	0	0	0
3706.548	n/a	WORD	1853274	wordpools/wasnorm_wordpool_576.txt	LTP293	ltpFR2	5	17	LIPSTICK	829	n/a	n/a	0	0	0
3709.316	n/a	WORD	1854658	wordpools/wasnorm_wordpool_576.txt	LTP293	ltpFR2	5	17	WORKER	1621	n/a	n/a	0	0	0
3711.886	n/a	WORD	1855943	wordpools/wasnorm_wordpool_576.txt	LTP293	ltpFR2	5	17	ZEBRA	1635	n/a	n/a	0	0	0
3714.622	n/a	WORD	1857311	wordpools/wasnorm_wordpool_576.txt	LTP293	ltpFR2	5	17	TRUCK	1512	n/a	n/a	0	0	0
3717.19	n/a	WORD	1858595	wordpools/wasnorm_wordpool_576.txt	LTP293	ltpFR2	5	17	COBRA	336	n/a	n/a	0	0	0
3719.86	n/a	WORD	1859930	wordpools/wasnorm_wordpool_576.txt	LTP293	ltpFR2	5	17	DANCER	437	n/a	n/a	0	0	0
3722.512	n/a	WORD	1861256	wordpools/wasnorm_wordpool_576.txt	LTP293	ltpFR2	5	17	SNAKE	1333	n/a	n/a	0	0	0
3725.18	n/a	WORD	1862590	wordpools/wasnorm_wordpool_576.txt	LTP293	ltpFR2	5	17	LIZARD	834	n/a	n/a	0	0	0
3727.968	n/a	WORD	1863984	wordpools/wasnorm_wordpool_576.txt	LTP293	ltpFR2	5	17	RACKET	1155	n/a	n/a	0	0	0
3730.652	n/a	WORD	1865326	wordpools/wasnorm_wordpool_576.txt	LTP293	ltpFR2	5	17	OX	994	n/a	n/a	0	0	0
3733.372	n/a	WORD	1866686	wordpools/wasnorm_wordpool_576.txt	LTP293	ltpFR2	5	17	CATCHER	258	n/a	n/a	0	0	0
3736.19	n/a	WORD	1868095	wordpools/wasnorm_wordpool_576.txt	LTP293	ltpFR2	5	17	QUEEN	1149	n/a	n/a	0	0	0
3738.944	n/a	WORD	1869472	wordpools/wasnorm_wordpool_576.txt	LTP293	ltpFR2	5	17	LEADER	807	n/a	n/a	0	0	0
3741.61	n/a	WORD	1870805	wordpools/wasnorm_wordpool_576.txt	LTP293	ltpFR2	5	17	FOREST	593	n/a	n/a	0	0	0
3744.13	n/a	WORD	1872065	wordpools/wasnorm_wordpool_576.txt	LTP293	ltpFR2	5	17	HEADBAND	696	n/a	n/a	0	0	0
3746.682	n/a	WORD	1873341	wordpools/wasnorm_wordpool_576.txt	LTP293	ltpFR2	5	17	TRANSPLANT	1496	n/a	n/a	0	0	0
3749.5	n/a	WORD	1874750	wordpools/wasnorm_wordpool_576.txt	LTP293	ltpFR2	5	17	THRONE	1461	n/a	n/a	0	0	0
3752.17	n/a	WORD	1876085	wordpools/wasnorm_wordpool_576.txt	LTP293	ltpFR2	5	17	YARN	1631	n/a	n/a	0	0	0
3753.788	n/a	START	1876894	n/a	LTP293	ltpFR2	5	n/a	n/a	n/a	23	n/a	n/a	n/a	n/a
3754.8	n/a	DISTRACTOR	1877400	n/a	LTP293	ltpFR2	5	17	n/a	n/a	n/a	n/a	0	0	0
3754.822	n/a	PROB	1877411	n/a	LTP293	ltpFR2	5	n/a	n/a	n/a	23	21	9	5	7
3756.124	n/a	PROB	1878062	n/a	LTP293	ltpFR2	5	n/a	n/a	n/a	23	17	5	3	9
3757.424	n/a	PROB	1878712	n/a	LTP293	ltpFR2	5	n/a	n/a	n/a	23	11	1	9	1
3758.408	n/a	PROB	1879204	n/a	LTP293	ltpFR2	5	n/a	n/a	n/a	23	17	7	7	3
3759.694	n/a	PROB	1879847	n/a	LTP293	ltpFR2	5	n/a	n/a	n/a	23	9	4	3	2
3762.462	n/a	PROB	1881231	n/a	LTP293	ltpFR2	5	n/a	n/a	n/a	23	5	3	1	1
3763.23	n/a	PROB	1881615	n/a	LTP293	ltpFR2	5	n/a	n/a	n/a	23	17	9	2	6
3764.78	n/a	PROB	1882390	n/a	LTP293	ltpFR2	5	n/a	n/a	n/a	23	11	3	4	4
3765.982	n/a	PROB	1882991	n/a	LTP293	ltpFR2	5	n/a	n/a	n/a	23	20	8	9	4
3767.534	n/a	PROB	1883767	n/a	LTP293	ltpFR2	5	n/a	n/a	n/a	23	12	2	8	2
3768.952	n/a	PROB	1884476	n/a	LTP293	ltpFR2	5	n/a	n/a	n/a	23	16	7	5	4
3769.986	n/a	PROB	1884993	n/a	LTP293	ltpFR2	5	n/a	n/a	n/a	23	21	8	5	8
3772.288	n/a	PROB	1886144	n/a	LTP293	ltpFR2	5	n/a	n/a	n/a	23	12	6	3	3
3773.656	n/a	PROB	1886828	n/a	LTP293	ltpFR2	5	n/a	n/a	n/a	23	12	6	1	5
3775.008	n/a	PROB	1887504	n/a	LTP293	ltpFR2	5	n/a	n/a	n/a	23	9	1	3	5
3776.208	n/a	PROB	1888104	n/a	LTP293	ltpFR2	5	n/a	n/a	n/a	23	6	2	2	2
3777.212	n/a	STOP	1888606	n/a	LTP293	ltpFR2	5	n/a	n/a	n/a	23	n/a	n/a	n/a	n/a
3779.694	n/a	REC_START	1889847	n/a	LTP293	ltpFR2	5	17	n/a	n/a	n/a	n/a	0	0	0
3780.452	n/a	REC_WORD	1890226	wordpools/wasnorm_wordpool_576.txt	LTP293	ltpFR2	5	17	YARN	1631	n/a	n/a	0	0	0
3781.292	n/a	REC_WORD	1890646	wordpools/wasnorm_wordpool_576.txt	LTP293	ltpFR2	5	17	THRONE	1461	n/a	n/a	0	0	0
3782.294	n/a	REC_WORD	1891147	wordpools/wasnorm_wordpool_576.txt	LTP293	ltpFR2	5	17	HEADBAND	696	n/a	n/a	0	0	0
3783.462	n/a	REC_WORD	1891731	wordpools/wasnorm_wordpool_576.txt	LTP293	ltpFR2	5	17	QUEEN	1149	n/a	n/a	0	0	0
3784.72	n/a	REC_WORD	1892360	wordpools/wasnorm_wordpool_576.txt	LTP293	ltpFR2	5	17	SNAKE	1333	n/a	n/a	0	0	0
3785.836	n/a	REC_WORD	1892918	wordpools/wasnorm_wordpool_576.txt	LTP293	ltpFR2	5	17	COBRA	336	n/a	n/a	0	0	0
3787.486	n/a	REC_WORD	1893743	wordpools/wasnorm_wordpool_576.txt	LTP293	ltpFR2	5	17	TURTLE	1522	n/a	n/a	0	0	0
3788.486	n/a	REC_WORD	1894243	wordpools/wasnorm_wordpool_576.txt	LTP293	ltpFR2	5	17	ZEBRA	1635	n/a	n/a	0	0	0
3789.596	n/a	REC_WORD	1894798	wordpools/wasnorm_wordpool_576.txt	LTP293	ltpFR2	5	17	HIKER	708	n/a	n/a	0	0	0
3791.692	n/a	REC_WORD	1895846	wordpools/wasnorm_wordpool_576.txt	LTP293	ltpFR2	5	17	CANYON	235	n/a	n/a	0	0	0
3792.73	n/a	REC_WORD	1896365	wordpools/wasnorm_wordpool_576.txt	LTP293	ltpFR2	5	17	STREAM	1392	n/a	n/a	0	0	0
3796.92	n/a	REC_WORD	1898460	wordpools/wasnorm_wordpool_576.txt	LTP293	ltpFR2	5	17	TURTLE	1522	n/a	n/a	0	0	0
3804.78	n/a	REC_WORD	1902390	wordpools/wasnorm_wordpool_576.txt	LTP293	ltpFR2	5	17	LIPSTICK	829	n/a	n/a	0	0	0
3834.622	n/a	REC_WORD	1917311	wordpools/wasnorm_wordpool_576.txt	LTP293	ltpFR2	5	17	OX	994	n/a	n/a	0	0	0
3835.556	n/a	REC_WORD	1917778	wordpools/wasnorm_wordpool_576.txt	LTP293	ltpFR2	5	17	LEADER	807	n/a	n/a	0	0	0
3870.32	n/a	DISTRACTOR	1935160	n/a	LTP293	ltpFR2	5	18	n/a	n/a	n/a	n/a	0	0	0
3870.322	n/a	START	1935161	n/a	LTP293	ltpFR2	5	n/a	n/a	n/a	24	n/a	n/a	n/a	n/a
3870.354	n/a	PROB	1935177	n/a	LTP293	ltpFR2	5	n/a	n/a	n/a	24	21	9	7	5
3871.706	n/a	PROB	1935853	n/a	LTP293	ltpFR2	5	n/a	n/a	n/a	24	15	3	9	3
3872.958	n/a	PROB	1936479	n/a	LTP293	ltpFR2	5	n/a	n/a	n/a	24	18	7	8	3
