onset	duration	trial_type	sample	stim_file	subject	experiment	session	trial	task	item_name	item_num	recog_resp	recog_conf	resp	color_r	color_g	color_b	case	font
259.222	n/a	SESS_START	129611	n/a	LTP190	ltpFR	6	n/a	n/a	n/a	n/a	1	5	n/a	n/a	n/a	n/a	n/a	n/a
345.444	n/a	WORD	172722	wordpools/wasnorm_wordpool_less_exclusions.txt	LTP190	ltpFR	6	1	0	ASSOCIATE	49	1	n/a	1	0.422607421875	0.5869140625	0	upper	zerothre.ttf
349.66	n/a	WORD	174830	wordpools/wasnorm_wordpool_less_exclusions.txt	LTP190	ltpFR	6	1	0	DRILL	497	n/a	n/a	1	0.422607421875	0.5869140625	0	upper	zerothre.ttf
353.636	n/a	WORD	176818	wordpools/wasnorm_wordpool_less_exclusions.txt	LTP190	ltpFR	6	1	1	CHISEL	305	n/a	n/a	0	0.57763671875	0.412841796875	1	lower	amplitud.ttf
357.656	n/a	WORD	178828	wordpools/wasnorm_wordpool_less_exclusions.txt	LTP190	ltpFR	6	1	1	SILK	1307	n/a	n/a	0	0.57763671875	0.412841796875	1	lower	amplitud.ttf
361.538	n/a	WORD	180769	wordpools/wasnorm_wordpool_less_exclusions.txt	LTP190	ltpFR	6	1	1	APPLICATION	34	n/a	n/a	0	0.57763671875	0.412841796875	1	lower	amplitud.ttf
365.638	n/a	WORD	182819	wordpools/wasnorm_wordpool_less_exclusions.txt	LTP190	ltpFR	6	1	1	REPTILE	1185	n/a	n/a	1	0.57763671875	0.412841796875	1	lower	amplitud.ttf
369.686	n/a	WORD	184843	wordpools/wasnorm_wordpool_less_exclusions.txt	LTP190	ltpFR	6	1	1	COLLEGE	346	n/a	n/a	0	0.57763671875	0.412841796875	1	lower	amplitud.ttf
373.902	n/a	WORD	186951	wordpools/wasnorm_wordpool_less_exclusions.txt	LTP190	ltpFR	6	1	1	OREGANO	983	n/a	n/a	0	0.57763671875	0.412841796875	1	lower	amplitud.ttf
378.084	n/a	WORD	189042	wordpools/wasnorm_wordpool_less_exclusions.txt	LTP190	ltpFR	6	1	0	WITNESS	1618	n/a	n/a	1	0.422607421875	0.5869140625	0	upper	zerothre.ttf
381.966	n/a	WORD	190983	wordpools/wasnorm_wordpool_less_exclusions.txt	LTP190	ltpFR	6	1	0	WORM	1623	n/a	n/a	0	0.422607421875	0.5869140625	0	upper	zerothre.ttf
385.84	n/a	WORD	192920	wordpools/wasnorm_wordpool_less_exclusions.txt	LTP190	ltpFR	6	1	1	DIME	466	n/a	n/a	0	0.57763671875	0.412841796875	1	lower	amplitud.ttf
389.996	n/a	WORD	194998	wordpools/wasnorm_wordpool_less_exclusions.txt	LTP190	ltpFR	6	1	1	GAVEL	627	n/a	n/a	0	0.57763671875	0.412841796875	1	lower	amplitud.ttf
394.078	n/a	WORD	197039	wordpools/wasnorm_wordpool_less_exclusions.txt	LTP190	ltpFR	6	1	0	VISITOR	1573	n/a	n/a	1	0.422607421875	0.5869140625	0	upper	zerothre.ttf
398.004	n/a	WORD	199002	wordpools/wasnorm_wordpool_less_exclusions.txt	LTP190	ltpFR	6	1	0	COMPANION	357	n/a	n/a	1	0.422607421875	0.5869140625	0	upper	zerothre.ttf
401.958	n/a	WORD	200979	wordpools/wasnorm_wordpool_less_exclusions.txt	LTP190	ltpFR	6	1	0	CREAM	402	n/a	n/a	0	0.422607421875	0.5869140625	0	upper	zerothre.ttf
406.058	n/a	WORD	203029	wordpools/wasnorm_wordpool_less_exclusions.txt	LTP190	ltpFR	6	1	0	CHOCOLATE	306	n/a	n/a	1	0.422607421875	0.5869140625	0	upper	zerothre.ttf
411.824	n/a	REC_START	205912	n/a	LTP190	ltpFR	6	1	n/a	n/a	n/a	n/a	n/a	n/a	n/a	n/a	n/a	n/a	n/a
413.29	n/a	REC_WORD	206645	wordpools/wasnorm_wordpool_less_exclusions.txt	LTP190	ltpFR	6	1	0	VISITOR	1573	n/a	n/a	1	n/a	n/a	n/a	n/a	n/a
414.194	n/a	REC_WORD	207097	wordpools/wasnorm_wordpool_less_exclusions.txt	LTP190	ltpFR	6	1	0	COMPANION	357	n/a	n/a	1	n/a	n/a	n/a	n/a	n/a
415.232	n/a	REC_WORD	207616	wordpools/wasnorm_wordpool_less_exclusions.txt	LTP190	ltpFR	6	1	0	CREAM	402	n/a	n/a	0	n/a	n/a	n/a	n/a	n/a
415.964	n/a	REC_WORD	207982	wordpools/wasnorm_wordpool_less_exclusions.txt	LTP190	ltpFR	6	1	0	ASSOCIATE	49	n/a	n/a	1	n/a	n/a	n/a	n/a	n/a
416.852	n/a	REC_WORD	208426	wordpools/wasnorm_wordpool_less_exclusions.txt	LTP190	ltpFR	6	1	1	SILK	1307	n/a	n/a	0	n/a	n/a	n/a	n/a	n/a
417.866	n/a	REC_WORD	208933	wordpools/wasnorm_wordpool_less_exclusions.txt	LTP190	ltpFR	6	1	1	REPTILE	1185	n/a	n/a	1	n/a	n/a	n/a	n/a	n/a
420.788	n/a	REC_WORD	210394	wordpools/wasnorm_wordpool_less_exclusions.txt	LTP190	ltpFR	6	1	0	CHOCOLATE	306	n/a	n/a	1	n/a	n/a	n/a	n/a	n/a
429.46	n/a	REC_WORD	214730	wordpools/wasnorm_wordpool_less_exclusions.txt	LTP190	ltpFR	6	1	0	WORM	1623	n/a	n/a	0	n/a	n/a	n/a	n/a	n/a
431.056	n/a	REC_WORD	215528	wordpools/wasnorm_wordpool_less_exclusions.txt	LTP190	ltpFR	6	1	1	GAVEL	627	n/a	n/a	0	n/a	n/a	n/a	n/a	n/a
435.326	n/a	REC_WORD	217663	wordpools/wasnorm_wordpool_less_exclusions.txt	LTP190	ltpFR	6	1	1	OREGANO	983	n/a	n/a	0	n/a	n/a	n/a	n/a	n/a
458.414	n/a	REC_WORD	229207	wordpools/wasnorm_wordpool_less_exclusions.txt	LTP190	ltpFR	6	1	0	COMPANION	357	n/a	n/a	1	n/a	n/a	n/a	n/a	n/a
501.44	n/a	WORD	250720	wordpools/wasnorm_wordpool_less_exclusions.txt	LTP190	ltpFR	6	2	1	LANDSCAPE	799	n/a	n/a	0	0.57763671875	0.412841796875	1	lower	amplitud.ttf
505.566	n/a	WORD	252783	wordpools/wasnorm_wordpool_less_exclusions.txt	LTP190	ltpFR	6	2	1	MARROW	872	n/a	n/a	1	0.57763671875	0.412841796875	1	lower	amplitud.ttf
509.614	n/a	WORD	254807	wordpools/wasnorm_wordpool_less_exclusions.txt	LTP190	ltpFR	6	2	1	FRIES	607	n/a	n/a	0	0.57763671875	0.412841796875	1	lower	amplitud.ttf
513.802	n/a	WORD	256901	wordpools/wasnorm_wordpool_less_exclusions.txt	LTP190	ltpFR	6	2	1	VEAL	1551	n/a	n/a	0	0.57763671875	0.412841796875	1	lower	amplitud.ttf
517.884	n/a	WORD	258942	wordpools/wasnorm_wordpool_less_exclusions.txt	LTP190	ltpFR	6	2	0	BULL	193	n/a	n/a	1	0.422607421875	0.5869140625	0	upper	zerothre.ttf
521.9	n/a	WORD	260950	wordpools/wasnorm_wordpool_less_exclusions.txt	LTP190	ltpFR	6	2	0	NICKEL	950	n/a	n/a	0	0.422607421875	0.5869140625	0	upper	zerothre.ttf
525.966	n/a	WORD	262983	wordpools/wasnorm_wordpool_less_exclusions.txt	LTP190	ltpFR	6	2	0	FIELD	562	n/a	n/a	1	0.422607421875	0.5869140625	0	upper	zerothre.ttf
530.108	n/a	WORD	265054	wordpools/wasnorm_wordpool_less_exclusions.txt	LTP190	ltpFR	6	2	0	KING	777	n/a	n/a	1	0.422607421875	0.5869140625	0	upper	zerothre.ttf
534.012	n/a	WORD	267006	wordpools/wasnorm_wordpool_less_exclusions.txt	LTP190	ltpFR	6	2	0	GROCERIES	663	n/a	n/a	1	0.422607421875	0.5869140625	0	upper	zerothre.ttf
537.878	n/a	WORD	268939	wordpools/wasnorm_wordpool_less_exclusions.txt	LTP190	ltpFR	6	2	0	FEAST	556	n/a	n/a	1	0.422607421875	0.5869140625	0	upper	zerothre.ttf
541.994	n/a	WORD	270997	wordpools/wasnorm_wordpool_less_exclusions.txt	LTP190	ltpFR	6	2	1	GRASSHOPPER	656	n/a	n/a	1	0.57763671875	0.412841796875	1	lower	amplitud.ttf
545.958	n/a	WORD	272979	wordpools/wasnorm_wordpool_less_exclusions.txt	LTP190	ltpFR	6	2	1	REGISTER	1180	n/a	n/a	0	0.57763671875	0.412841796875	1	lower	amplitud.ttf
550.002	n/a	WORD	275001	wordpools/wasnorm_wordpool_less_exclusions.txt	LTP190	ltpFR	6	2	1	OYSTER	995	n/a	n/a	n/a	0.57763671875	0.412841796875	1	lower	amplitud.ttf
553.052	n/a	SLOW_MSG	276526	n/a	LTP190	ltpFR	6	2	n/a	n/a	n/a	n/a	n/a	n/a	n/a	n/a	n/a	n/a	n/a
555.656	n/a	WORD	277828	wordpools/wasnorm_wordpool_less_exclusions.txt	LTP190	ltpFR	6	2	1	MARSH	874	n/a	n/a	1	0.57763671875	0.412841796875	1	lower	amplitud.ttf
559.63	n/a	WORD	279815	wordpools/wasnorm_wordpool_less_exclusions.txt	LTP190	ltpFR	6	2	0	CUE	422	n/a	n/a	1	0.422607421875	0.5869140625	0	upper	zerothre.ttf
563.538	n/a	WORD	281769	wordpools/wasnorm_wordpool_less_exclusions.txt	LTP190	ltpFR	6	2	0	SPIDER	1351	n/a	n/a	0	0.422607421875	0.5869140625	0	upper	zerothre.ttf
569.284	n/a	REC_START	284642	n/a	LTP190	ltpFR	6	2	n/a	n/a	n/a	n/a	n/a	n/a	n/a	n/a	n/a	n/a	n/a
570.356	n/a	REC_WORD	285178	wordpools/wasnorm_wordpool_less_exclusions.txt	LTP190	ltpFR	6	2	0	SPIDER	1351	n/a	n/a	0	n/a	n/a	n/a	n/a	n/a
571.434	n/a	REC_WORD	285717	wordpools/wasnorm_wordpool_less_exclusions.txt	LTP190	ltpFR	6	2	0	CUE	422	n/a	n/a	1	n/a	n/a	n/a	n/a	n/a
572.496	n/a	REC_WORD	286248	wordpools/wasnorm_wordpool_less_exclusions.txt	LTP190	ltpFR	6	2	1	OYSTER	995	n/a	n/a	n/a	n/a	n/a	n/a	n/a	n/a
575.254	n/a	REC_WORD	287627	wordpools/wasnorm_wordpool_less_exclusions.txt	LTP190	ltpFR	6	2	1	GRASSHOPPER	656	n/a	n/a	1	n/a	n/a	n/a	n/a	n/a
577.71	n/a	REC_WORD	288855	wordpools/wasnorm_wordpool_less_exclusions.txt	LTP190	ltpFR	6	2	0	FIELD	562	n/a	n/a	1	n/a	n/a	n/a	n/a	n/a
578.822	n/a	REC_WORD	289411	wordpools/wasnorm_wordpool_less_exclusions.txt	LTP190	ltpFR	6	2	1	LANDSCAPE	799	n/a	n/a	0	n/a	n/a	n/a	n/a	n/a
594.468	n/a	REC_WORD	297234	wordpools/wasnorm_wordpool_less_exclusions.txt	LTP190	ltpFR	6	2	0	SPIDER	1351	n/a	n/a	0	n/a	n/a	n/a	n/a	n/a
602.988	n/a	REC_WORD	301494	wordpools/wasnorm_wordpool_less_exclusions.txt	LTP190	ltpFR	6	2	1	MARROW	872	n/a	n/a	1	n/a	n/a	n/a	n/a	n/a
649.196	n/a	WORD	324598	wordpools/wasnorm_wordpool_less_exclusions.txt	LTP190	ltpFR	6	3	0	ANT	25	n/a	n/a	0	0.422607421875	0.5869140625	0	upper	zerothre.ttf
653.414	n/a	WORD	326707	wordpools/wasnorm_wordpool_less_exclusions.txt	LTP190	ltpFR	6	3	0	BEER	114	n/a	n/a	1	0.422607421875	0.5869140625	0	upper	zerothre.ttf
657.53	n/a	WORD	328765	wordpools/wasnorm_wordpool_less_exclusions.txt	LTP190	ltpFR	6	3	1	MARINE	869	n/a	n/a	1	0.57763671875	0.412841796875	1	lower	amplitud.ttf
661.646	n/a	WORD	330823	wordpools/wasnorm_wordpool_less_exclusions.txt	LTP190	ltpFR	6	3	1	SEAFOOD	1260	n/a	n/a	0	0.57763671875	0.412841796875	1	lower	amplitud.ttf
665.75	n/a	WORD	332875	wordpools/wasnorm_wordpool_less_exclusions.txt	LTP190	ltpFR	6	3	1	PILOT	1070	n/a	n/a	1	0.57763671875	0.412841796875	1	lower	amplitud.ttf
669.814	n/a	WORD	334907	wordpools/wasnorm_wordpool_less_exclusions.txt	LTP190	ltpFR	6	3	1	ROOF	1205	n/a	n/a	0	0.57763671875	0.412841796875	1	lower	amplitud.ttf
674.032	n/a	WORD	337016	wordpools/wasnorm_wordpool_less_exclusions.txt	LTP190	ltpFR	6	3	1	MILITARY	894	n/a	n/a	0	0.57763671875	0.412841796875	1	lower	amplitud.ttf
678.21	n/a	WORD	339105	wordpools/wasnorm_wordpool_less_exclusions.txt	LTP190	ltpFR	6	3	1	OCTOPUS	971	n/a	n/a	1	0.57763671875	0.412841796875	1	lower	amplitud.ttf
682.408	n/a	WORD	341204	wordpools/wasnorm_wordpool_less_exclusions.txt	LTP190	ltpFR	6	3	0	JELLY	755	n/a	n/a	1	0.422607421875	0.5869140625	0	upper	zerothre.ttf
686.396	n/a	WORD	343198	wordpools/wasnorm_wordpool_less_exclusions.txt	LTP190	ltpFR	6	3	0	CAFETERIA	217	n/a	n/a	1	0.422607421875	0.5869140625	0	upper	zerothre.ttf
690.624	n/a	WORD	345312	wordpools/wasnorm_wordpool_less_exclusions.txt	LTP190	ltpFR	6	3	0	PICNIC	1060	n/a	n/a	1	0.422607421875	0.5869140625	0	upper	zerothre.ttf
694.696	n/a	WORD	347348	wordpools/wasnorm_wordpool_less_exclusions.txt	LTP190	ltpFR	6	3	1	SERGEANT	1269	n/a	n/a	1	0.57763671875	0.412841796875	1	lower	amplitud.ttf
698.52	n/a	WORD	349260	wordpools/wasnorm_wordpool_less_exclusions.txt	LTP190	ltpFR	6	3	1	RUG	1215	n/a	n/a	0	0.57763671875	0.412841796875	1	lower	amplitud.ttf
702.574	n/a	WORD	351287	wordpools/wasnorm_wordpool_less_exclusions.txt	LTP190	ltpFR	6	3	0	LINT	826	n/a	n/a	0	0.422607421875	0.5869140625	0	upper	zerothre.ttf
706.756	n/a	WORD	353378	wordpools/wasnorm_wordpool_less_exclusions.txt	LTP190	ltpFR	6	3	0	CLOTHES	327	n/a	n/a	1	0.422607421875	0.5869140625	0	upper	zerothre.ttf
710.872	n/a	WORD	355436	wordpools/wasnorm_wordpool_less_exclusions.txt	LTP190	ltpFR	6	3	0	PIKE	1067	n/a	n/a	1	0.422607421875	0.5869140625	0	upper	zerothre.ttf
716.49	n/a	REC_START	358245	n/a	LTP190	ltpFR	6	3	n/a	n/a	n/a	n/a	n/a	n/a	n/a	n/a	n/a	n/a	n/a
717.438	n/a	REC_WORD	358719	wordpools/wasnorm_wordpool_less_exclusions.txt	LTP190	ltpFR	6	3	0	LINT	826	n/a	n/a	0	n/a	n/a	n/a	n/a	n/a
718.28	n/a	REC_WORD	359140	wordpools/wasnorm_wordpool_less_exclusions.txt	LTP190	ltpFR	6	3	0	CLOTHES	327	n/a	n/a	1	n/a	n/a	n/a	n/a	n/a
719.378	n/a	REC_WORD	359689	wordpools/wasnorm_wordpool_less_exclusions.txt	LTP190	ltpFR	6	3	0	PIKE	1067	n/a	n/a	1	n/a	n/a	n/a	n/a	n/a
721.798	n/a	REC_WORD	360899	wordpools/wasnorm_wordpool_less_exclusions.txt	LTP190	ltpFR	6	3	1	MILITARY	894	n/a	n/a	0	n/a	n/a	n/a	n/a	n/a
722.686	n/a	REC_WORD	361343	wordpools/wasnorm_wordpool_less_exclusions.txt	LTP190	ltpFR	6	3	1	SERGEANT	1269	n/a	n/a	1	n/a	n/a	n/a	n/a	n/a
723.782	n/a	REC_WORD	361891	wordpools/wasnorm_wordpool_less_exclusions.txt	LTP190	ltpFR	6	3	1	PILOT	1070	n/a	n/a	1	n/a	n/a	n/a	n/a	n/a
725.538	n/a	REC_WORD	362769	wordpools/wasnorm_wordpool_less_exclusions.txt	LTP190	ltpFR	6	3	1	MARINE	869	n/a	n/a	1	n/a	n/a	n/a	n/a	n/a
726.376	n/a	REC_WORD	363188	wordpools/wasnorm_wordpool_less_exclusions.txt	LTP190	ltpFR	6	3	1	SEAFOOD	1260	n/a	n/a	0	n/a	n/a	n/a	n/a	n/a
729.186	n/a	REC_WORD	364593	wordpools/wasnorm_wordpool_less_exclusions.txt	LTP190	ltpFR	6	3	0	JELLY	755	n/a	n/a	1	n/a	n/a	n/a	n/a	n/a
731.516	n/a	REC_WORD	365758	wordpools/wasnorm_wordpool_less_exclusions.txt	LTP190	ltpFR	6	3	1	OCTOPUS	971	n/a	n/a	1	n/a	n/a	n/a	n/a	n/a
814.654	n/a	WORD	407327	wordpools/wasnorm_wordpool_less_exclusions.txt	LTP190	ltpFR	6	4	-1	SIDEWALK	1303	n/a	n/a	-1	1.0	1.0	1	upper	Verdana.ttf
818.628	n/a	WORD	409314	wordpools/wasnorm_wordpool_less_exclusions.txt	LTP190	ltpFR	6	4	-1	PASTRY	1022	n/a	n/a	-1	1.0	1.0	1	upper	Verdana.ttf
822.85	n/a	WORD	411425	wordpools/wasnorm_wordpool_less_exclusions.txt	LTP190	ltpFR	6	4	-1	JELLO	754	n/a	n/a	-1	1.0	1.0	1	upper	Verdana.ttf
826.982	n/a	WORD	413491	wordpools/wasnorm_wordpool_less_exclusions.txt	LTP190	ltpFR	6	4	-1	GEM	629	n/a	n/a	-1	1.0	1.0	1	upper	Verdana.ttf
830.842	n/a	WORD	415421	wordpools/wasnorm_wordpool_less_exclusions.txt	LTP190	ltpFR	6	4	-1	FREEWAY	603	n/a	n/a	-1	1.0	1.0	1	upper	Verdana.ttf
835.046	n/a	WORD	417523	wordpools/wasnorm_wordpool_less_exclusions.txt	LTP190	ltpFR	6	4	-1	SCALE	1241	n/a	n/a	-1	1.0	1.0	1	upper	Verdana.ttf
839.038	n/a	WORD	419519	wordpools/wasnorm_wordpool_less_exclusions.txt	LTP190	ltpFR	6	4	-1	TUBA	1515	n/a	n/a	-1	1.0	1.0	1	upper	Verdana.ttf
843.106	n/a	WORD	421553	wordpools/wasnorm_wordpool_less_exclusions.txt	LTP190	ltpFR	6	4	-1	DONOR	485	n/a	n/a	-1	1.0	1.0	1	upper	Verdana.ttf
847.328	n/a	WORD	423664	wordpools/wasnorm_wordpool_less_exclusions.txt	LTP190	ltpFR	6	4	-1	APRON	35	n/a	n/a	-1	1.0	1.0	1	upper	Verdana.ttf
851.254	n/a	WORD	425627	wordpools/wasnorm_wordpool_less_exclusions.txt	LTP190	ltpFR	6	4	-1	DIAMOND	458	n/a	n/a	-1	1.0	1.0	1	upper	Verdana.ttf
855.174	n/a	WORD	427587	wordpools/wasnorm_wordpool_less_exclusions.txt	LTP190	ltpFR	6	4	-1	DORM	488	n/a	n/a	-1	1.0	1.0	1	upper	Verdana.ttf
859.122	n/a	WORD	429561	wordpools/wasnorm_wordpool_less_exclusions.txt	LTP190	ltpFR	6	4	-1	APARTMENT	30	n/a	n/a	-1	1.0	1.0	1	upper	Verdana.ttf
863.054	n/a	WORD	431527	wordpools/wasnorm_wordpool_less_exclusions.txt	LTP190	ltpFR	6	4	-1	NEWSSTAND	949	n/a	n/a	-1	1.0	1.0	1	upper	Verdana.ttf
867.012	n/a	WORD	433506	wordpools/wasnorm_wordpool_less_exclusions.txt	LTP190	ltpFR	6	4	-1	DICTATOR	462	n/a	n/a	-1	1.0	1.0	1	upper	Verdana.ttf
871.012	n/a	WORD	435506	wordpools/wasnorm_wordpool_less_exclusions.txt	LTP190	ltpFR	6	4	-1	ALMANAC	17	n/a	n/a	-1	1.0	1.0	1	upper	Verdana.ttf
875.228	n/a	WORD	437614	wordpools/wasnorm_wordpool_less_exclusions.txt	LTP190	ltpFR	6	4	-1	ENCYCLOPEDIA	533	n/a	n/a	-1	1.0	1.0	1	upper	Verdana.ttf
880.984	n/a	REC_START	440492	n/a	LTP190	ltpFR	6	4	n/a	n/a	n/a	n/a	n/a	n/a	n/a	n/a	n/a	n/a	n/a
883.926	n/a	REC_WORD	441963	wordpools/wasnorm_wordpool_less_exclusions.txt	LTP190	ltpFR	6	4	-1	ENCYCLOPEDIA	533	n/a	n/a	-1	n/a	n/a	n/a	n/a	n/a
885.404	n/a	REC_WORD	442702	wordpools/wasnorm_wordpool_less_exclusions.txt	LTP190	ltpFR	6	4	-1	ALMANAC	17	n/a	n/a	-1	n/a	n/a	n/a	n/a	n/a
886.854	n/a	REC_WORD	443427	wordpools/wasnorm_wordpool_less_exclusions.txt	LTP190	ltpFR	6	4	-1	DONOR	485	n/a	n/a	-1	n/a	n/a	n/a	n/a	n/a
888.84	n/a	REC_WORD	444420	wordpools/wasnorm_wordpool_less_exclusions.txt	LTP190	ltpFR	6	4	-1	DORM	488	n/a	n/a	-1	n/a	n/a	n/a	n/a	n/a
893.36	n/a	REC_WORD	446680	wordpools/wasnorm_wordpool_less_exclusions.txt	LTP190	ltpFR	6	4	-1	NEWSSTAND	949	n/a	n/a	-1	n/a	n/a	n/a	n/a	n/a
995.794	n/a	WORD	497897	wordpools/wasnorm_wordpool_less_exclusions.txt	LTP190	ltpFR	6	5	1	FEATHER	557	n/a	n/a	0	0.57763671875	0.412841796875	1	lower	amplitud.ttf
999.66	n/a	WORD	499830	wordpools/wasnorm_wordpool_less_exclusions.txt	LTP190	ltpFR	6	5	1	WINGS	1614	n/a	n/a	0	0.57763671875	0.412841796875	1	lower	amplitud.ttf
1003.658	n/a	WORD	501829	wordpools/wasnorm_wordpool_less_exclusions.txt	LTP190	ltpFR	6	5	1	SUBWAY	1400	n/a	n/a	0	0.57763671875	0.412841796875	1	lower	amplitud.ttf
1007.668	n/a	WORD	503834	wordpools/wasnorm_wordpool_less_exclusions.txt	LTP190	ltpFR	6	5	1	LIEUTENANT	818	n/a	n/a	1	0.57763671875	0.412841796875	1	lower	amplitud.ttf
1011.782	n/a	WORD	505891	wordpools/wasnorm_wordpool_less_exclusions.txt	LTP190	ltpFR	6	5	1	JEEP	753	n/a	n/a	0	0.57763671875	0.412841796875	1	lower	amplitud.ttf
1015.698	n/a	WORD	507849	wordpools/wasnorm_wordpool_less_exclusions.txt	LTP190	ltpFR	6	5	0	RUST	1219	n/a	n/a	0	0.422607421875	0.5869140625	0	upper	zerothre.ttf
1019.546	n/a	WORD	509773	wordpools/wasnorm_wordpool_less_exclusions.txt	LTP190	ltpFR	6	5	0	VICTOR	1563	n/a	n/a	1	0.422607421875	0.5869140625	0	upper	zerothre.ttf
1023.678	n/a	WORD	511839	wordpools/wasnorm_wordpool_less_exclusions.txt	LTP190	ltpFR	6	5	0	RACCOON	1153	n/a	n/a	0	0.422607421875	0.5869140625	0	upper	zerothre.ttf
1027.6	n/a	WORD	513800	wordpools/wasnorm_wordpool_less_exclusions.txt	LTP190	ltpFR	6	5	0	SEAL	1262	n/a	n/a	1	0.422607421875	0.5869140625	0	upper	zerothre.ttf
1031.482	n/a	WORD	515741	wordpools/wasnorm_wordpool_less_exclusions.txt	LTP190	ltpFR	6	5	1	TRAIN	1494	n/a	n/a	3	0.57763671875	0.412841796875	1	lower	amplitud.ttf
1032.92	n/a	KEY_MSG	516460	n/a	LTP190	ltpFR	6	5	n/a	n/a	n/a	n/a	n/a	n/a	n/a	n/a	n/a	n/a	n/a
1035.33	n/a	WORD	517665	wordpools/wasnorm_wordpool_less_exclusions.txt	LTP190	ltpFR	6	5	1	BANDANNA	80	n/a	n/a	0	0.57763671875	0.412841796875	1	lower	amplitud.ttf
1039.338	n/a	WORD	519669	wordpools/wasnorm_wordpool_less_exclusions.txt	LTP190	ltpFR	6	5	1	PAD	998	n/a	n/a	0	0.57763671875	0.412841796875	1	lower	amplitud.ttf
1043.444	n/a	WORD	521722	wordpools/wasnorm_wordpool_less_exclusions.txt	LTP190	ltpFR	6	5	0	SHOWER	1296	n/a	n/a	1	0.422607421875	0.5869140625	0	upper	zerothre.ttf
1047.56	n/a	WORD	523780	wordpools/wasnorm_wordpool_less_exclusions.txt	LTP190	ltpFR	6	5	0	ELM	527	n/a	n/a	1	0.422607421875	0.5869140625	0	upper	zerothre.ttf
1051.77	n/a	WORD	525885	wordpools/wasnorm_wordpool_less_exclusions.txt	LTP190	ltpFR	6	5	0	HOOD	714	n/a	n/a	1	0.422607421875	0.5869140625	0	upper	zerothre.ttf
1055.974	n/a	WORD	527987	wordpools/wasnorm_wordpool_less_exclusions.txt	LTP190	ltpFR	6	5	0	TIDE	1465	n/a	n/a	1	0.422607421875	0.5869140625	0	upper	zerothre.ttf
1061.624	n/a	REC_START	530812	n/a	LTP190	ltpFR	6	5	n/a	n/a	n/a	n/a	n/a	n/a	n/a	n/a	n/a	n/a	n/a
1064.852	n/a	REC_WORD	532426	wordpools/wasnorm_wordpool_less_exclusions.txt	LTP190	ltpFR	6	5	0	ELM	527	n/a	n/a	1	n/a	n/a	n/a	n/a	n/a
1065.546	n/a	REC_WORD	532773	wordpools/wasnorm_wordpool_less_exclusions.txt	LTP190	ltpFR	6	5	0	HOOD	714	n/a	n/a	1	n/a	n/a	n/a	n/a	n/a
1066.488	n/a	REC_WORD	533244	wordpools/wasnorm_wordpool_less_exclusions.txt	LTP190	ltpFR	6	5	0	TIDE	1465	n/a	n/a	1	n/a	n/a	n/a	n/a	n/a
1068.414	n/a	REC_WORD	534207	wordpools/wasnorm_wordpool_less_exclusions.txt	LTP190	ltpFR	6	5	1	LIEUTENANT	818	n/a	n/a	1	n/a	n/a	n/a	n/a	n/a
1070.116	n/a	REC_WORD	535058	wordpools/wasnorm_wordpool_less_exclusions.txt	LTP190	ltpFR	6	5	1	SUBWAY	1400	n/a	n/a	0	n/a	n/a	n/a	n/a	n/a
1071.422	n/a	REC_WORD	535711	wordpools/wasnorm_wordpool_less_exclusions.txt	LTP190	ltpFR	6	5	1	FEATHER	557	n/a	n/a	0	n/a	n/a	n/a	n/a	n/a
1072.52	n/a	REC_WORD	536260	wordpools/wasnorm_wordpool_less_exclusions.txt	LTP190	ltpFR	6	5	1	WINGS	1614	n/a	n/a	0	n/a	n/a	n/a	n/a	n/a
1087.412	n/a	REC_WORD	543706	wordpools/wasnorm_wordpool_less_exclusions.txt	LTP190	ltpFR	6	5	0	TIDE	1465	n/a	n/a	1	n/a	n/a	n/a	n/a	n/a
1100.832	n/a	REC_WORD	550416	wordpools/wasnorm_wordpool_less_exclusions.txt	LTP190	ltpFR	6	5	1	TRAIN	1494	n/a	n/a	3	n/a	n/a	n/a	n/a	n/a
1141.768	n/a	WORD	570884	wordpools/wasnorm_wordpool_less_exclusions.txt	LTP190	ltpFR	6	6	1	FIN	566	n/a	n/a	0	0.57763671875	0.412841796875	1	lower	amplitud.ttf
1145.928	n/a	WORD	572964	wordpools/wasnorm_wordpool_less_exclusions.txt	LTP190	ltpFR	6	6	1	SEED	1266	n/a	n/a	1	0.57763671875	0.412841796875	1	lower	amplitud.ttf
1150.152	n/a	WORD	575076	wordpools/wasnorm_wordpool_less_exclusions.txt	LTP190	ltpFR	6	6	1	RULER	1216	n/a	n/a	0	0.57763671875	0.412841796875	1	lower	amplitud.ttf
1154.368	n/a	WORD	577184	wordpools/wasnorm_wordpool_less_exclusions.txt	LTP190	ltpFR	6	6	1	MAILMAN	858	n/a	n/a	1	0.57763671875	0.412841796875	1	lower	amplitud.ttf
1158.516	n/a	WORD	579258	wordpools/wasnorm_wordpool_less_exclusions.txt	LTP190	ltpFR	6	6	1	SCREW	1254	n/a	n/a	0	0.57763671875	0.412841796875	1	lower	amplitud.ttf
1162.598	n/a	WORD	581299	wordpools/wasnorm_wordpool_less_exclusions.txt	LTP190	ltpFR	6	6	1	BALL	73	n/a	n/a	0	0.57763671875	0.412841796875	1	lower	amplitud.ttf
1166.642	n/a	WORD	583321	wordpools/wasnorm_wordpool_less_exclusions.txt	LTP190	ltpFR	6	6	1	TYPEWRITER	1531	n/a	n/a	0	0.57763671875	0.412841796875	1	lower	amplitud.ttf
1170.664	n/a	WORD	585332	wordpools/wasnorm_wordpool_less_exclusions.txt	LTP190	ltpFR	6	6	1	MARKER	870	n/a	n/a	0	0.57763671875	0.412841796875	1	lower	amplitud.ttf
1174.528	n/a	WORD	587264	wordpools/wasnorm_wordpool_less_exclusions.txt	LTP190	ltpFR	6	6	1	CROWN	415	n/a	n/a	0	0.57763671875	0.412841796875	1	lower	amplitud.ttf
1178.476	n/a	WORD	589238	wordpools/wasnorm_wordpool_less_exclusions.txt	LTP190	ltpFR	6	6	1	SIDING	1304	n/a	n/a	0	0.57763671875	0.412841796875	1	lower	amplitud.ttf
1182.318	n/a	WORD	591159	wordpools/wasnorm_wordpool_less_exclusions.txt	LTP190	ltpFR	6	6	1	CHAMPION	279	n/a	n/a	0	0.57763671875	0.412841796875	1	lower	amplitud.ttf
1186.458	n/a	WORD	593229	wordpools/wasnorm_wordpool_less_exclusions.txt	LTP190	ltpFR	6	6	1	EMPEROR	529	n/a	n/a	1	0.57763671875	0.412841796875	1	lower	amplitud.ttf
1190.674	n/a	WORD	595337	wordpools/wasnorm_wordpool_less_exclusions.txt	LTP190	ltpFR	6	6	1	BUSH	202	n/a	n/a	1	0.57763671875	0.412841796875	1	lower	amplitud.ttf
1194.566	n/a	WORD	597283	wordpools/wasnorm_wordpool_less_exclusions.txt	LTP190	ltpFR	6	6	1	COD	340	n/a	n/a	1	0.57763671875	0.412841796875	1	lower	amplitud.ttf
1198.786	n/a	WORD	599393	wordpools/wasnorm_wordpool_less_exclusions.txt	LTP190	ltpFR	6	6	1	BIRD	129	n/a	n/a	1	0.57763671875	0.412841796875	1	lower	amplitud.ttf
1202.768	n/a	WORD	601384	wordpools/wasnorm_wordpool_less_exclusions.txt	LTP190	ltpFR	6	6	1	PERCH	1048	n/a	n/a	0	0.57763671875	0.412841796875	1	lower	amplitud.ttf
1208.542	n/a	REC_START	604271	n/a	LTP190	ltpFR	6	6	n/a	n/a	n/a	n/a	n/a	n/a	n/a	n/a	n/a	n/a	n/a
1209.066	n/a	REC_WORD	604533	wordpools/wasnorm_wordpool_less_exclusions.txt	LTP190	ltpFR	6	6	1	RULER	1216	n/a	n/a	0	n/a	n/a	n/a	n/a	n/a
1209.68	n/a	REC_WORD	604840	wordpools/wasnorm_wordpool_less_exclusions.txt	LTP190	ltpFR	6	6	1	EMPEROR	529	n/a	n/a	1	n/a	n/a	n/a	n/a	n/a
1210.538	n/a	REC_WORD	605269	wordpools/wasnorm_wordpool_less_exclusions.txt	LTP190	ltpFR	6	6	1	BIRD	129	n/a	n/a	1	n/a	n/a	n/a	n/a	n/a
1211.302	n/a	REC_WORD	605651	wordpools/wasnorm_wordpool_less_exclusions.txt	LTP190	ltpFR	6	6	1	COD	340	n/a	n/a	1	n/a	n/a	n/a	n/a	n/a
1215.098	n/a	REC_WORD	607549	wordpools/wasnorm_wordpool_less_exclusions.txt	LTP190	ltpFR	6	6	1	PERCH	1048	n/a	n/a	0	n/a	n/a	n/a	n/a	n/a
1218.13	n/a	REC_WORD	609065	wordpools/wasnorm_wordpool_less_exclusions.txt	LTP190	ltpFR	6	6	1	CROWN	415	n/a	n/a	0	n/a	n/a	n/a	n/a	n/a
1292.822	n/a	WORD	646411	wordpools/wasnorm_wordpool_less_exclusions.txt	LTP190	ltpFR	6	7	0	BROOK	177	n/a	n/a	0	0.422607421875	0.5869140625	0	upper	zerothre.ttf
1296.744	n/a	WORD	648372	wordpools/wasnorm_wordpool_less_exclusions.txt	LTP190	ltpFR	6	7	0	AIRPORT	13	n/a	n/a	1	0.422607421875	0.5869140625	0	upper	zerothre.ttf
1300.854	n/a	WORD	650427	wordpools/wasnorm_wordpool_less_exclusions.txt	LTP190	ltpFR	6	7	0	DYNAMITE	511	n/a	n/a	1	0.422607421875	0.5869140625	0	upper	zerothre.ttf
1304.892	n/a	WORD	652446	wordpools/wasnorm_wordpool_less_exclusions.txt	LTP190	ltpFR	6	7	0	SIGN	1305	n/a	n/a	1	0.422607421875	0.5869140625	0	upper	zerothre.ttf
1309.074	n/a	WORD	654537	wordpools/wasnorm_wordpool_less_exclusions.txt	LTP190	ltpFR	6	7	0	ROBE	1198	n/a	n/a	1	0.422607421875	0.5869140625	0	upper	zerothre.ttf
1312.922	n/a	WORD	656461	wordpools/wasnorm_wordpool_less_exclusions.txt	LTP190	ltpFR	6	7	0	BATH	98	n/a	n/a	1	0.422607421875	0.5869140625	0	upper	zerothre.ttf
1316.866	n/a	WORD	658433	wordpools/wasnorm_wordpool_less_exclusions.txt	LTP190	ltpFR	6	7	0	INTESTINE	742	n/a	n/a	1	0.422607421875	0.5869140625	0	upper	zerothre.ttf
1320.764	n/a	WORD	660382	wordpools/wasnorm_wordpool_less_exclusions.txt	LTP190	ltpFR	6	7	0	ROCKET	1202	n/a	n/a	1	0.422607421875	0.5869140625	0	upper	zerothre.ttf
1324.834	n/a	WORD	662417	wordpools/wasnorm_wordpool_less_exclusions.txt	LTP190	ltpFR	6	7	0	SCREWDRIVER	1255	n/a	n/a	n/a	0.422607421875	0.5869140625	0	upper	zerothre.ttf
1327.88	n/a	SLOW_MSG	663940	n/a	LTP190	ltpFR	6	7	n/a	n/a	n/a	n/a	n/a	n/a	n/a	n/a	n/a	n/a	n/a
1330.222	n/a	WORD	665111	wordpools/wasnorm_wordpool_less_exclusions.txt	LTP190	ltpFR	6	7	0	UTENSIL	1542	n/a	n/a	0	0.422607421875	0.5869140625	0	upper	zerothre.ttf
1334.096	n/a	WORD	667048	wordpools/wasnorm_wordpool_less_exclusions.txt	LTP190	ltpFR	6	7	0	LOUNGE	845	n/a	n/a	1	0.422607421875	0.5869140625	0	upper	zerothre.ttf
1338.08	n/a	WORD	669040	wordpools/wasnorm_wordpool_less_exclusions.txt	LTP190	ltpFR	6	7	0	OAR	966	n/a	n/a	1	0.422607421875	0.5869140625	0	upper	zerothre.ttf
1341.95	n/a	WORD	670975	wordpools/wasnorm_wordpool_less_exclusions.txt	LTP190	ltpFR	6	7	0	CAR	241	n/a	n/a	1	0.422607421875	0.5869140625	0	upper	zerothre.ttf
1346.066	n/a	WORD	673033	wordpools/wasnorm_wordpool_less_exclusions.txt	LTP190	ltpFR	6	7	0	VEHICLE	1553	n/a	n/a	1	0.422607421875	0.5869140625	0	upper	zerothre.ttf
1350.158	n/a	WORD	675079	wordpools/wasnorm_wordpool_less_exclusions.txt	LTP190	ltpFR	6	7	0	BOTTLE	153	n/a	n/a	1	0.422607421875	0.5869140625	0	upper	zerothre.ttf
1354.316	n/a	WORD	677158	wordpools/wasnorm_wordpool_less_exclusions.txt	LTP190	ltpFR	6	7	0	HOSE	720	n/a	n/a	1	0.422607421875	0.5869140625	0	upper	zerothre.ttf
1360.08	n/a	REC_START	680040	n/a	LTP190	ltpFR	6	7	n/a	n/a	n/a	n/a	n/a	n/a	n/a	n/a	n/a	n/a	n/a
1365.288	n/a	REC_WORD	682644	wordpools/wasnorm_wordpool_less_exclusions.txt	LTP190	ltpFR	6	7	0	BOTTLE	153	n/a	n/a	1	n/a	n/a	n/a	n/a	n/a
1366.136	n/a	REC_WORD	683068	wordpools/wasnorm_wordpool_less_exclusions.txt	LTP190	ltpFR	6	7	0	HOSE	720	n/a	n/a	1	n/a	n/a	n/a	n/a	n/a
1367.772	n/a	REC_WORD	683886	wordpools/wasnorm_wordpool_less_exclusions.txt	LTP190	ltpFR	6	7	n/a	ROAD	1196	n/a	n/a	n/a	n/a	n/a	n/a	n/a	n/a
1368.676	n/a	REC_WORD	684338	wordpools/wasnorm_wordpool_less_exclusions.txt	LTP190	ltpFR	6	7	0	VEHICLE	1553	n/a	n/a	1	n/a	n/a	n/a	n/a	n/a
1369.848	n/a	REC_WORD	684924	wordpools/wasnorm_wordpool_less_exclusions.txt	LTP190	ltpFR	6	7	0	CAR	241	n/a	n/a	1	n/a	n/a	n/a	n/a	n/a
1371.904	n/a	REC_WORD	685952	wordpools/wasnorm_wordpool_less_exclusions.txt	LTP190	ltpFR	6	7	0	ROCKET	1202	n/a	n/a	1	n/a	n/a	n/a	n/a	n/a
1392.096	n/a	REC_WORD_VV	696048	wordpools/wasnorm_wordpool_less_exclusions.txt	LTP190	ltpFR	6	7	n/a	<>	-1	n/a	n/a	n/a	n/a	n/a	n/a	n/a	n/a
1393.096	n/a	REC_WORD_VV	696548	wordpools/wasnorm_wordpool_less_exclusions.txt	LTP190	ltpFR	6	7	n/a	<>	-1	n/a	n/a	n/a	n/a	n/a	n/a	n/a	n/a
1401.972	n/a	REC_WORD	700986	wordpools/wasnorm_wordpool_less_exclusions.txt	LTP190	ltpFR	6	7	0	ROBE	1198	n/a	n/a	1	n/a	n/a	n/a	n/a	n/a
1454.122	n/a	WORD	727061	wordpools/wasnorm_wordpool_less_exclusions.txt	LTP190	ltpFR	6	8	-1	BLUEBERRY	140	n/a	n/a	-1	1.0	1.0	1	upper	Verdana.ttf
1458.162	n/a	WORD	729081	wordpools/wasnorm_wordpool_less_exclusions.txt	LTP190	ltpFR	6	8	-1	NOVEL	960	n/a	n/a	-1	1.0	1.0	1	upper	Verdana.ttf
1462.204	n/a	WORD	731102	wordpools/wasnorm_wordpool_less_exclusions.txt	LTP190	ltpFR	6	8	-1	CORPORATION	382	n/a	n/a	-1	1.0	1.0	1	upper	Verdana.ttf
1466.174	n/a	WORD	733087	wordpools/wasnorm_wordpool_less_exclusions.txt	LTP190	ltpFR	6	8	-1	REFRIGERATOR	1179	n/a	n/a	-1	1.0	1.0	1	upper	Verdana.ttf
1470.286	n/a	WORD	735143	wordpools/wasnorm_wordpool_less_exclusions.txt	LTP190	ltpFR	6	8	-1	NEPTUNE	943	n/a	n/a	-1	1.0	1.0	1	upper	Verdana.ttf
1474.402	n/a	WORD	737201	wordpools/wasnorm_wordpool_less_exclusions.txt	LTP190	ltpFR	6	8	-1	FARM	552	n/a	n/a	-1	1.0	1.0	1	upper	Verdana.ttf
1478.534	n/a	WORD	739267	wordpools/wasnorm_wordpool_less_exclusions.txt	LTP190	ltpFR	6	8	-1	CAT	257	n/a	n/a	-1	1.0	1.0	1	upper	Verdana.ttf
1482.432	n/a	WORD	741216	wordpools/wasnorm_wordpool_less_exclusions.txt	LTP190	ltpFR	6	8	-1	MOON	914	n/a	n/a	-1	1.0	1.0	1	upper	Verdana.ttf
1486.454	n/a	WORD	743227	wordpools/wasnorm_wordpool_less_exclusions.txt	LTP190	ltpFR	6	8	-1	RANCH	1166	n/a	n/a	-1	1.0	1.0	1	upper	Verdana.ttf
1490.52	n/a	WORD	745260	wordpools/wasnorm_wordpool_less_exclusions.txt	LTP190	ltpFR	6	8	-1	CITRUS	313	n/a	n/a	-1	1.0	1.0	1	upper	Verdana.ttf
1494.36	n/a	WORD	747180	wordpools/wasnorm_wordpool_less_exclusions.txt	LTP190	ltpFR	6	8	-1	BERRY	122	n/a	n/a	-1	1.0	1.0	1	upper	Verdana.ttf
1498.482	n/a	WORD	749241	wordpools/wasnorm_wordpool_less_exclusions.txt	LTP190	ltpFR	6	8	-1	CUFF	423	n/a	n/a	-1	1.0	1.0	1	upper	Verdana.ttf
1502.458	n/a	WORD	751229	wordpools/wasnorm_wordpool_less_exclusions.txt	LTP190	ltpFR	6	8	-1	SLACKS	1323	n/a	n/a	-1	1.0	1.0	1	upper	Verdana.ttf
1506.542	n/a	WORD	753271	wordpools/wasnorm_wordpool_less_exclusions.txt	LTP190	ltpFR	6	8	-1	HAYSTACK	694	n/a	n/a	-1	1.0	1.0	1	upper	Verdana.ttf
1510.54	n/a	WORD	755270	wordpools/wasnorm_wordpool_less_exclusions.txt	LTP190	ltpFR	6	8	-1	COLT	349	n/a	n/a	-1	1.0	1.0	1	upper	Verdana.ttf
1514.688	n/a	WORD	757344	wordpools/wasnorm_wordpool_less_exclusions.txt	LTP190	ltpFR	6	8	-1	SHELF	1280	n/a	n/a	-1	1.0	1.0	1	upper	Verdana.ttf
1520.528	n/a	REC_START	760264	n/a	LTP190	ltpFR	6	8	n/a	n/a	n/a	n/a	n/a	n/a	n/a	n/a	n/a	n/a	n/a
1521.23	n/a	REC_WORD	760615	wordpools/wasnorm_wordpool_less_exclusions.txt	LTP190	ltpFR	6	8	-1	HAYSTACK	694	n/a	n/a	-1	n/a	n/a	n/a	n/a	n/a
1522.134	n/a	REC_WORD	761067	wordpools/wasnorm_wordpool_less_exclusions.txt	LTP190	ltpFR	6	8	-1	COLT	349	n/a	n/a	-1	n/a	n/a	n/a	n/a	n/a
1522.822	n/a	REC_WORD	761411	wordpools/wasnorm_wordpool_less_exclusions.txt	LTP190	ltpFR	6	8	-1	SHELF	1280	n/a	n/a	-1	n/a	n/a	n/a	n/a	n/a
1524.17	n/a	REC_WORD	762085	wordpools/wasnorm_wordpool_less_exclusions.txt	LTP190	ltpFR	6	8	-1	BERRY	122	n/a	n/a	-1	n/a	n/a	n/a	n/a	n/a
1525.212	n/a	REC_WORD	762606	wordpools/wasnorm_wordpool_less_exclusions.txt	LTP190	ltpFR	6	8	-1	BLUEBERRY	140	n/a	n/a	-1	n/a	n/a	n/a	n/a	n/a
1537.36	n/a	REC_WORD	768680	wordpools/wasnorm_wordpool_less_exclusions.txt	LTP190	ltpFR	6	8	-1	NEPTUNE	943	n/a	n/a	-1	n/a	n/a	n/a	n/a	n/a
1553.924	n/a	REC_WORD	776962	wordpools/wasnorm_wordpool_less_exclusions.txt	LTP190	ltpFR	6	8	-1	FARM	552	n/a	n/a	-1	n/a	n/a	n/a	n/a	n/a
1562.914	n/a	REC_WORD	781457	wordpools/wasnorm_wordpool_less_exclusions.txt	LTP190	ltpFR	6	8	-1	REFRIGERATOR	1179	n/a	n/a	-1	n/a	n/a	n/a	n/a	n/a
1599.912	n/a	WORD	799956	wordpools/wasnorm_wordpool_less_exclusions.txt	LTP190	ltpFR	6	9	0	FINGERNAIL	568	n/a	n/a	0	0.422607421875	0.5869140625	0	upper	zerothre.ttf
1603.778	n/a	WORD	801889	wordpools/wasnorm_wordpool_less_exclusions.txt	LTP190	ltpFR	6	9	0	SAW	1239	n/a	n/a	1	0.422607421875	0.5869140625	0	upper	zerothre.ttf
1607.666	n/a	WORD	803833	wordpools/wasnorm_wordpool_less_exclusions.txt	LTP190	ltpFR	6	9	0	CHERRY	293	n/a	n/a	0	0.422607421875	0.5869140625	0	upper	zerothre.ttf
1611.892	n/a	WORD	805946	wordpools/wasnorm_wordpool_less_exclusions.txt	LTP190	ltpFR	6	9	0	ROUGE	1213	n/a	n/a	0	0.422607421875	0.5869140625	0	upper	zerothre.ttf
1615.774	n/a	WORD	807887	wordpools/wasnorm_wordpool_less_exclusions.txt	LTP190	ltpFR	6	9	0	PARENT	1013	n/a	n/a	1	0.422607421875	0.5869140625	0	upper	zerothre.ttf
1619.98	n/a	WORD	809990	wordpools/wasnorm_wordpool_less_exclusions.txt	LTP190	ltpFR	6	9	0	KLEENEX	782	n/a	n/a	0	0.422607421875	0.5869140625	0	upper	zerothre.ttf
1623.872	n/a	WORD	811936	wordpools/wasnorm_wordpool_less_exclusions.txt	LTP190	ltpFR	6	9	0	LAWN	805	n/a	n/a	1	0.422607421875	0.5869140625	0	upper	zerothre.ttf
1627.926	n/a	WORD	813963	wordpools/wasnorm_wordpool_less_exclusions.txt	LTP190	ltpFR	6	9	0	CLARINET	317	n/a	n/a	0	0.422607421875	0.5869140625	0	upper	zerothre.ttf
1632.076	n/a	WORD	816038	wordpools/wasnorm_wordpool_less_exclusions.txt	LTP190	ltpFR	6	9	0	FIDDLE	561	n/a	n/a	0	0.422607421875	0.5869140625	0	upper	zerothre.ttf
1636.074	n/a	WORD	818037	wordpools/wasnorm_wordpool_less_exclusions.txt	LTP190	ltpFR	6	9	0	TOASTER	1472	n/a	n/a	0	0.422607421875	0.5869140625	0	upper	zerothre.ttf
1639.922	n/a	WORD	819961	wordpools/wasnorm_wordpool_less_exclusions.txt	LTP190	ltpFR	6	9	0	NET	946	n/a	n/a	0	0.422607421875	0.5869140625	0	upper	zerothre.ttf
1644.022	n/a	WORD	822011	wordpools/wasnorm_wordpool_less_exclusions.txt	LTP190	ltpFR	6	9	0	PAINTING	1005	n/a	n/a	1	0.422607421875	0.5869140625	0	upper	zerothre.ttf
1648.248	n/a	WORD	824124	wordpools/wasnorm_wordpool_less_exclusions.txt	LTP190	ltpFR	6	9	0	BEVERAGE	123	n/a	n/a	0	0.422607421875	0.5869140625	0	upper	zerothre.ttf
1652.146	n/a	WORD	826073	wordpools/wasnorm_wordpool_less_exclusions.txt	LTP190	ltpFR	6	9	0	DAUGHTER	442	n/a	n/a	1	0.422607421875	0.5869140625	0	upper	zerothre.ttf
1656.312	n/a	WORD	828156	wordpools/wasnorm_wordpool_less_exclusions.txt	LTP190	ltpFR	6	9	0	SCARF	1246	n/a	n/a	1	0.422607421875	0.5869140625	0	upper	zerothre.ttf
1660.262	n/a	WORD	830131	wordpools/wasnorm_wordpool_less_exclusions.txt	LTP190	ltpFR	6	9	0	MUSEUM	933	n/a	n/a	1	0.422607421875	0.5869140625	0	upper	zerothre.ttf
1666.006	n/a	REC_START	833003	n/a	LTP190	ltpFR	6	9	n/a	n/a	n/a	n/a	n/a	n/a	n/a	n/a	n/a	n/a	n/a
1666.478	n/a	REC_WORD	833239	wordpools/wasnorm_wordpool_less_exclusions.txt	LTP190	ltpFR	6	9	0	BEVERAGE	123	n/a	n/a	0	n/a	n/a	n/a	n/a	n/a
1667.282	n/a	REC_WORD	833641	wordpools/wasnorm_wordpool_less_exclusions.txt	LTP190	ltpFR	6	9	0	SCARF	1246	n/a	n/a	1	n/a	n/a	n/a	n/a	n/a
1668.216	n/a	REC_WORD	834108	wordpools/wasnorm_wordpool_less_exclusions.txt	LTP190	ltpFR	6	9	0	MUSEUM	933	n/a	n/a	1	n/a	n/a	n/a	n/a	n/a
1674.476	n/a	REC_WORD	837238	wordpools/wasnorm_wordpool_less_exclusions.txt	LTP190	ltpFR	6	9	0	DAUGHTER	442	n/a	n/a	1	n/a	n/a	n/a	n/a	n/a
1680.024	n/a	REC_WORD	840012	wordpools/wasnorm_wordpool_less_exclusions.txt	LTP190	ltpFR	6	9	0	TOASTER	1472	n/a	n/a	0	n/a	n/a	n/a	n/a	n/a
1752.532	n/a	WORD	876266	wordpools/wasnorm_wordpool_less_exclusions.txt	LTP190	ltpFR	6	10	0	TONGUE	1479	n/a	n/a	0	0.422607421875	0.5869140625	0	upper	zerothre.ttf
1756.58	n/a	WORD	878290	wordpools/wasnorm_wordpool_less_exclusions.txt	LTP190	ltpFR	6	10	0	MISTER	901	n/a	n/a	1	0.422607421875	0.5869140625	0	upper	zerothre.ttf
1760.784	n/a	WORD	880392	wordpools/wasnorm_wordpool_less_exclusions.txt	LTP190	ltpFR	6	10	0	GENTLEMAN	631	n/a	n/a	1	0.422607421875	0.5869140625	0	upper	zerothre.ttf
1764.95	n/a	WORD	882475	wordpools/wasnorm_wordpool_less_exclusions.txt	LTP190	ltpFR	6	10	0	MAN	862	n/a	n/a	0	0.422607421875	0.5869140625	0	upper	zerothre.ttf
1768.864	n/a	WORD	884432	wordpools/wasnorm_wordpool_less_exclusions.txt	LTP190	ltpFR	6	10	0	ASTRONAUT	51	n/a	n/a	1	0.422607421875	0.5869140625	0	upper	zerothre.ttf
1772.814	n/a	WORD	886407	wordpools/wasnorm_wordpool_less_exclusions.txt	LTP190	ltpFR	6	10	0	FOREST	593	n/a	n/a	1	0.422607421875	0.5869140625	0	upper	zerothre.ttf
1776.846	n/a	WORD	888423	wordpools/wasnorm_wordpool_less_exclusions.txt	LTP190	ltpFR	6	10	0	PAINT	1003	n/a	n/a	0	0.422607421875	0.5869140625	0	upper	zerothre.ttf
1780.794	n/a	WORD	890397	wordpools/wasnorm_wordpool_less_exclusions.txt	LTP190	ltpFR	6	10	0	COMMITTEE	355	n/a	n/a	n/a	0.422607421875	0.5869140625	0	upper	zerothre.ttf
1783.838	n/a	SLOW_MSG	891919	n/a	LTP190	ltpFR	6	10	n/a	n/a	n/a	n/a	n/a	n/a	n/a	n/a	n/a	n/a	n/a
1786.416	n/a	WORD	893208	wordpools/wasnorm_wordpool_less_exclusions.txt	LTP190	ltpFR	6	10	0	SAP	1233	n/a	n/a	0	0.422607421875	0.5869140625	0	upper	zerothre.ttf
1790.566	n/a	WORD	895283	wordpools/wasnorm_wordpool_less_exclusions.txt	LTP190	ltpFR	6	10	0	CREVICE	405	n/a	n/a	0	0.422607421875	0.5869140625	0	upper	zerothre.ttf
1794.632	n/a	WORD	897316	wordpools/wasnorm_wordpool_less_exclusions.txt	LTP190	ltpFR	6	10	0	CHAMBER	277	n/a	n/a	1	0.422607421875	0.5869140625	0	upper	zerothre.ttf
1798.574	n/a	WORD	899287	wordpools/wasnorm_wordpool_less_exclusions.txt	LTP190	ltpFR	6	10	0	SUITE	1404	n/a	n/a	1	0.422607421875	0.5869140625	0	upper	zerothre.ttf
1802.522	n/a	WORD	901261	wordpools/wasnorm_wordpool_less_exclusions.txt	LTP190	ltpFR	6	10	0	GUM	672	n/a	n/a	1	0.422607421875	0.5869140625	0	upper	zerothre.ttf
1806.61	n/a	WORD	903305	wordpools/wasnorm_wordpool_less_exclusions.txt	LTP190	ltpFR	6	10	0	TERMITE	1451	n/a	n/a	0	0.422607421875	0.5869140625	0	upper	zerothre.ttf
1810.742	n/a	WORD	905371	wordpools/wasnorm_wordpool_less_exclusions.txt	LTP190	ltpFR	6	10	0	CHIP	303	n/a	n/a	0	0.422607421875	0.5869140625	0	upper	zerothre.ttf
1814.602	n/a	WORD	907301	wordpools/wasnorm_wordpool_less_exclusions.txt	LTP190	ltpFR	6	10	0	CABINET	212	n/a	n/a	1	0.422607421875	0.5869140625	0	upper	zerothre.ttf
1820.558	n/a	REC_START	910279	n/a	LTP190	ltpFR	6	10	n/a	n/a	n/a	n/a	n/a	n/a	n/a	n/a	n/a	n/a	n/a
1821.18	n/a	REC_WORD	910590	wordpools/wasnorm_wordpool_less_exclusions.txt	LTP190	ltpFR	6	10	0	GUM	672	n/a	n/a	1	n/a	n/a	n/a	n/a	n/a
1821.834	n/a	REC_WORD	910917	wordpools/wasnorm_wordpool_less_exclusions.txt	LTP190	ltpFR	6	10	0	TERMITE	1451	n/a	n/a	0	n/a	n/a	n/a	n/a	n/a
1822.528	n/a	REC_WORD	911264	wordpools/wasnorm_wordpool_less_exclusions.txt	LTP190	ltpFR	6	10	0	CHIP	303	n/a	n/a	0	n/a	n/a	n/a	n/a	n/a
1823.302	n/a	REC_WORD	911651	wordpools/wasnorm_wordpool_less_exclusions.txt	LTP190	ltpFR	6	10	0	CABINET	212	n/a	n/a	1	n/a	n/a	n/a	n/a	n/a
1842.18	n/a	REC_WORD	921090	wordpools/wasnorm_wordpool_less_exclusions.txt	LTP190	ltpFR	6	10	0	MISTER	901	n/a	n/a	1	n/a	n/a	n/a	n/a	n/a
1899.526	n/a	WORD	949763	wordpools/wasnorm_wordpool_less_exclusions.txt	LTP190	ltpFR	6	11	1	BLOSSOM	138	n/a	n/a	1	0.57763671875	0.412841796875	1	lower	amplitud.ttf
1903.592	n/a	WORD	951796	wordpools/wasnorm_wordpool_less_exclusions.txt	LTP190	ltpFR	6	11	1	WRIST	1626	n/a	n/a	1	0.57763671875	0.412841796875	1	lower	amplitud.ttf
1907.764	n/a	WORD	953882	wordpools/wasnorm_wordpool_less_exclusions.txt	LTP190	ltpFR	6	11	1	CHAPEL	280	n/a	n/a	0	0.57763671875	0.412841796875	1	lower	amplitud.ttf
1911.678	n/a	WORD	955839	wordpools/wasnorm_wordpool_less_exclusions.txt	LTP190	ltpFR	6	11	0	HUMAN	726	n/a	n/a	1	0.422607421875	0.5869140625	0	upper	zerothre.ttf
1915.536	n/a	WORD	957768	wordpools/wasnorm_wordpool_less_exclusions.txt	LTP190	ltpFR	6	11	0	WRITER	1627	n/a	n/a	n/a	0.422607421875	0.5869140625	0	upper	zerothre.ttf
1918.588	n/a	SLOW_MSG	959294	n/a	LTP190	ltpFR	6	11	n/a	n/a	n/a	n/a	n/a	n/a	n/a	n/a	n/a	n/a	n/a
1921.214	n/a	WORD	960607	wordpools/wasnorm_wordpool_less_exclusions.txt	LTP190	ltpFR	6	11	0	PUB	1135	n/a	n/a	1	0.422607421875	0.5869140625	0	upper	zerothre.ttf
1925.364	n/a	WORD	962682	wordpools/wasnorm_wordpool_less_exclusions.txt	LTP190	ltpFR	6	11	0	BARREL	91	n/a	n/a	1	0.422607421875	0.5869140625	0	upper	zerothre.ttf
1929.228	n/a	WORD	964614	wordpools/wasnorm_wordpool_less_exclusions.txt	LTP190	ltpFR	6	11	1	DOUGH	489	n/a	n/a	0	0.57763671875	0.412841796875	1	lower	amplitud.ttf
1933.278	n/a	WORD	966639	wordpools/wasnorm_wordpool_less_exclusions.txt	LTP190	ltpFR	6	11	1	DIRECTOR	471	n/a	n/a	1	0.57763671875	0.412841796875	1	lower	amplitud.ttf
1937.392	n/a	WORD	968696	wordpools/wasnorm_wordpool_less_exclusions.txt	LTP190	ltpFR	6	11	0	CITIZEN	312	n/a	n/a	n/a	0.422607421875	0.5869140625	0	upper	zerothre.ttf
1940.438	n/a	SLOW_MSG	970219	n/a	LTP190	ltpFR	6	11	n/a	n/a	n/a	n/a	n/a	n/a	n/a	n/a	n/a	n/a	n/a
1943.064	n/a	WORD	971532	wordpools/wasnorm_wordpool_less_exclusions.txt	LTP190	ltpFR	6	11	0	CATTLE	261	n/a	n/a	1	0.422607421875	0.5869140625	0	upper	zerothre.ttf
1946.896	n/a	WORD	973448	wordpools/wasnorm_wordpool_less_exclusions.txt	LTP190	ltpFR	6	11	0	RIB	1188	n/a	n/a	1	0.422607421875	0.5869140625	0	upper	zerothre.ttf
1950.96	n/a	WORD	975480	wordpools/wasnorm_wordpool_less_exclusions.txt	LTP190	ltpFR	6	11	0	SAGE	1222	n/a	n/a	0	0.422607421875	0.5869140625	0	upper	zerothre.ttf
1954.902	n/a	WORD	977451	wordpools/wasnorm_wordpool_less_exclusions.txt	LTP190	ltpFR	6	11	1	SPICE	1350	n/a	n/a	n/a	0.57763671875	0.412841796875	1	lower	amplitud.ttf
1957.948	n/a	SLOW_MSG	978974	n/a	LTP190	ltpFR	6	11	n/a	n/a	n/a	n/a	n/a	n/a	n/a	n/a	n/a	n/a	n/a
1960.448	n/a	WORD	980224	wordpools/wasnorm_wordpool_less_exclusions.txt	LTP190	ltpFR	6	11	1	OATS	968	n/a	n/a	n/a	0.57763671875	0.412841796875	1	lower	amplitud.ttf
1963.494	n/a	SLOW_MSG	981747	n/a	LTP190	ltpFR	6	11	n/a	n/a	n/a	n/a	n/a	n/a	n/a	n/a	n/a	n/a	n/a
1966.186	n/a	WORD	983093	wordpools/wasnorm_wordpool_less_exclusions.txt	LTP190	ltpFR	6	11	1	PUBLICATION	1136	n/a	n/a	0	0.57763671875	0.412841796875	1	lower	amplitud.ttf
1971.984	n/a	REC_START	985992	n/a	LTP190	ltpFR	6	11	n/a	n/a	n/a	n/a	n/a	n/a	n/a	n/a	n/a	n/a	n/a
1972.662	n/a	REC_WORD	986331	wordpools/wasnorm_wordpool_less_exclusions.txt	LTP190	ltpFR	6	11	1	PUBLICATION	1136	n/a	n/a	0	n/a	n/a	n/a	n/a	n/a
1973.884	n/a	REC_WORD	986942	wordpools/wasnorm_wordpool_less_exclusions.txt	LTP190	ltpFR	6	11	1	OATS	968	n/a	n/a	n/a	n/a	n/a	n/a	n/a	n/a
1981.18	n/a	REC_WORD	990590	wordpools/wasnorm_wordpool_less_exclusions.txt	LTP190	ltpFR	6	11	1	WRIST	1626	n/a	n/a	1	n/a	n/a	n/a	n/a	n/a
2051.244	n/a	WORD	1025622	wordpools/wasnorm_wordpool_less_exclusions.txt	LTP190	ltpFR	6	12	-1	BARK	87	n/a	n/a	-1	1.0	1.0	1	upper	Verdana.ttf
2055.124	n/a	WORD	1027562	wordpools/wasnorm_wordpool_less_exclusions.txt	LTP190	ltpFR	6	12	-1	DUST	508	n/a	n/a	-1	1.0	1.0	1	upper	Verdana.ttf
2059.326	n/a	WORD	1029663	wordpools/wasnorm_wordpool_less_exclusions.txt	LTP190	ltpFR	6	12	-1	STEM	1376	n/a	n/a	-1	1.0	1.0	1	upper	Verdana.ttf
2063.508	n/a	WORD	1031754	wordpools/wasnorm_wordpool_less_exclusions.txt	LTP190	ltpFR	6	12	-1	ICE	730	n/a	n/a	-1	1.0	1.0	1	upper	Verdana.ttf
2067.356	n/a	WORD	1033678	wordpools/wasnorm_wordpool_less_exclusions.txt	LTP190	ltpFR	6	12	-1	SNORKEL	1336	n/a	n/a	-1	1.0	1.0	1	upper	Verdana.ttf
2071.288	n/a	WORD	1035644	wordpools/wasnorm_wordpool_less_exclusions.txt	LTP190	ltpFR	6	12	-1	FUGITIVE	612	n/a	n/a	-1	1.0	1.0	1	upper	Verdana.ttf
2075.32	n/a	WORD	1037660	wordpools/wasnorm_wordpool_less_exclusions.txt	LTP190	ltpFR	6	12	-1	BANDIT	81	n/a	n/a	-1	1.0	1.0	1	upper	Verdana.ttf
2079.47	n/a	WORD	1039735	wordpools/wasnorm_wordpool_less_exclusions.txt	LTP190	ltpFR	6	12	-1	DOG	480	n/a	n/a	-1	1.0	1.0	1	upper	Verdana.ttf
2083.452	n/a	WORD	1041726	wordpools/wasnorm_wordpool_less_exclusions.txt	LTP190	ltpFR	6	12	-1	PIANO	1057	n/a	n/a	-1	1.0	1.0	1	upper	Verdana.ttf
2087.668	n/a	WORD	1043834	wordpools/wasnorm_wordpool_less_exclusions.txt	LTP190	ltpFR	6	12	-1	GOWN	652	n/a	n/a	-1	1.0	1.0	1	upper	Verdana.ttf
2091.66	n/a	WORD	1045830	wordpools/wasnorm_wordpool_less_exclusions.txt	LTP190	ltpFR	6	12	-1	TWEEZERS	1526	n/a	n/a	-1	1.0	1.0	1	upper	Verdana.ttf
2095.698	n/a	WORD	1047849	wordpools/wasnorm_wordpool_less_exclusions.txt	LTP190	ltpFR	6	12	-1	DETERGENT	455	n/a	n/a	-1	1.0	1.0	1	upper	Verdana.ttf
2099.646	n/a	WORD	1049823	wordpools/wasnorm_wordpool_less_exclusions.txt	LTP190	ltpFR	6	12	-1	RESORT	1186	n/a	n/a	-1	1.0	1.0	1	upper	Verdana.ttf
2103.706	n/a	WORD	1051853	wordpools/wasnorm_wordpool_less_exclusions.txt	LTP190	ltpFR	6	12	-1	ELF	525	n/a	n/a	-1	1.0	1.0	1	upper	Verdana.ttf
2107.704	n/a	WORD	1053852	wordpools/wasnorm_wordpool_less_exclusions.txt	LTP190	ltpFR	6	12	-1	REINDEER	1181	n/a	n/a	-1	1.0	1.0	1	upper	Verdana.ttf
2111.758	n/a	WORD	1055879	wordpools/wasnorm_wordpool_less_exclusions.txt	LTP190	ltpFR	6	12	-1	TAPE	1433	n/a	n/a	-1	1.0	1.0	1	upper	Verdana.ttf
2117.676	n/a	REC_START	1058838	n/a	LTP190	ltpFR	6	12	n/a	n/a	n/a	n/a	n/a	n/a	n/a	n/a	n/a	n/a	n/a
2119.288	n/a	REC_WORD	1059644	wordpools/wasnorm_wordpool_less_exclusions.txt	LTP190	ltpFR	6	12	-1	REINDEER	1181	n/a	n/a	-1	n/a	n/a	n/a	n/a	n/a
2120.166	n/a	REC_WORD	1060083	wordpools/wasnorm_wordpool_less_exclusions.txt	LTP190	ltpFR	6	12	-1	TAPE	1433	n/a	n/a	-1	n/a	n/a	n/a	n/a	n/a
2122.49	n/a	REC_WORD	1061245	wordpools/wasnorm_wordpool_less_exclusions.txt	LTP190	ltpFR	6	12	n/a	COVER	-1	n/a	n/a	n/a	n/a	n/a	n/a	n/a	n/a
2193.304	n/a	REST_REWET	1096652	n/a	LTP190	ltpFR	6	12	n/a	n/a	n/a	n/a	n/a	n/a	n/a	n/a	n/a	n/a	n/a
2504.538	n/a	WORD	1252269	wordpools/wasnorm_wordpool_less_exclusions.txt	LTP190	ltpFR	6	13	1	LABEL	790	n/a	n/a	0	0.57763671875	0.412841796875	1	lower	amplitud.ttf
2508.642	n/a	WORD	1254321	wordpools/wasnorm_wordpool_less_exclusions.txt	LTP190	ltpFR	6	13	1	EWE	542	n/a	n/a	1	0.57763671875	0.412841796875	1	lower	amplitud.ttf
2512.858	n/a	WORD	1256429	wordpools/wasnorm_wordpool_less_exclusions.txt	LTP190	ltpFR	6	13	1	RAM	1165	n/a	n/a	1	0.57763671875	0.412841796875	1	lower	amplitud.ttf
2516.806	n/a	WORD	1258403	wordpools/wasnorm_wordpool_less_exclusions.txt	LTP190	ltpFR	6	13	1	NAVIGATOR	938	n/a	n/a	1	0.57763671875	0.412841796875	1	lower	amplitud.ttf
2520.982	n/a	WORD	1260491	wordpools/wasnorm_wordpool_less_exclusions.txt	LTP190	ltpFR	6	13	1	SCROLL	1257	n/a	n/a	0	0.57763671875	0.412841796875	1	lower	amplitud.ttf
2525.088	n/a	WORD	1262544	wordpools/wasnorm_wordpool_less_exclusions.txt	LTP190	ltpFR	6	13	1	REPORT	1184	n/a	n/a	0	0.57763671875	0.412841796875	1	lower	amplitud.ttf
2529.264	n/a	WORD	1264632	wordpools/wasnorm_wordpool_less_exclusions.txt	LTP190	ltpFR	6	13	1	CAMEL	223	n/a	n/a	1	0.57763671875	0.412841796875	1	lower	amplitud.ttf
2533.212	n/a	WORD	1266606	wordpools/wasnorm_wordpool_less_exclusions.txt	LTP190	ltpFR	6	13	1	FACTORY	548	n/a	n/a	0	0.57763671875	0.412841796875	1	lower	amplitud.ttf
2537.244	n/a	WORD	1268622	wordpools/wasnorm_wordpool_less_exclusions.txt	LTP190	ltpFR	6	13	1	FLY	586	n/a	n/a	1	0.57763671875	0.412841796875	1	lower	amplitud.ttf
2541.226	n/a	WORD	1270613	wordpools/wasnorm_wordpool_less_exclusions.txt	LTP190	ltpFR	6	13	1	TIE	1466	n/a	n/a	1	0.57763671875	0.412841796875	1	lower	amplitud.ttf
2545.4	n/a	WORD	1272700	wordpools/wasnorm_wordpool_less_exclusions.txt	LTP190	ltpFR	6	13	1	BELL	118	n/a	n/a	0	0.57763671875	0.412841796875	1	lower	amplitud.ttf
2549.23	n/a	WORD	1274615	wordpools/wasnorm_wordpool_less_exclusions.txt	LTP190	ltpFR	6	13	1	SUBURB	1399	n/a	n/a	0	0.57763671875	0.412841796875	1	lower	amplitud.ttf
2553.442	n/a	WORD	1276721	wordpools/wasnorm_wordpool_less_exclusions.txt	LTP190	ltpFR	6	13	1	GYMNAST	675	n/a	n/a	1	0.57763671875	0.412841796875	1	lower	amplitud.ttf
2557.562	n/a	WORD	1278781	wordpools/wasnorm_wordpool_less_exclusions.txt	LTP190	ltpFR	6	13	1	SHOELACE	1289	n/a	n/a	0	0.57763671875	0.412841796875	1	lower	amplitud.ttf
2561.696	n/a	WORD	1280848	wordpools/wasnorm_wordpool_less_exclusions.txt	LTP190	ltpFR	6	13	1	ENVELOPE	537	n/a	n/a	0	0.57763671875	0.412841796875	1	lower	amplitud.ttf
2565.56	n/a	WORD	1282780	wordpools/wasnorm_wordpool_less_exclusions.txt	LTP190	ltpFR	6	13	1	ANCHOR	21	n/a	n/a	0	0.57763671875	0.412841796875	1	lower	amplitud.ttf
2571.378	n/a	REC_START	1285689	n/a	LTP190	ltpFR	6	13	n/a	n/a	n/a	n/a	n/a	n/a	n/a	n/a	n/a	n/a	n/a
2572.684	n/a	REC_WORD	1286342	wordpools/wasnorm_wordpool_less_exclusions.txt	LTP190	ltpFR	6	13	1	ANCHOR	21	n/a	n/a	0	n/a	n/a	n/a	n/a	n/a
2573.318	n/a	REC_WORD	1286659	wordpools/wasnorm_wordpool_less_exclusions.txt	LTP190	ltpFR	6	13	1	SHOELACE	1289	n/a	n/a	0	n/a	n/a	n/a	n/a	n/a
2574.486	n/a	REC_WORD	1287243	wordpools/wasnorm_wordpool_less_exclusions.txt	LTP190	ltpFR	6	13	1	TIE	1466	n/a	n/a	1	n/a	n/a	n/a	n/a	n/a
2575.532	n/a	REC_WORD	1287766	wordpools/wasnorm_wordpool_less_exclusions.txt	LTP190	ltpFR	6	13	1	FLY	586	n/a	n/a	1	n/a	n/a	n/a	n/a	n/a
2584.378	n/a	REC_WORD	1292189	wordpools/wasnorm_wordpool_less_exclusions.txt	LTP190	ltpFR	6	13	1	ENVELOPE	537	n/a	n/a	0	n/a	n/a	n/a	n/a	n/a
2650.77	n/a	WORD	1325385	wordpools/wasnorm_wordpool_less_exclusions.txt	LTP190	ltpFR	6	14	-1	MARS	873	n/a	n/a	-1	1.0	1.0	1	upper	Verdana.ttf
2654.668	n/a	WORD	1327334	wordpools/wasnorm_wordpool_less_exclusions.txt	LTP190	ltpFR	6	14	-1	BRANCH	168	n/a	n/a	-1	1.0	1.0	1	upper	Verdana.ttf
2658.832	n/a	WORD	1329416	wordpools/wasnorm_wordpool_less_exclusions.txt	LTP190	ltpFR	6	14	-1	PASTA	1021	n/a	n/a	-1	1.0	1.0	1	upper	Verdana.ttf
2662.698	n/a	WORD	1331349	wordpools/wasnorm_wordpool_less_exclusions.txt	LTP190	ltpFR	6	14	-1	FRIAR	605	n/a	n/a	-1	1.0	1.0	1	upper	Verdana.ttf
2666.614	n/a	WORD	1333307	wordpools/wasnorm_wordpool_less_exclusions.txt	LTP190	ltpFR	6	14	-1	PRIEST	1122	n/a	n/a	-1	1.0	1.0	1	upper	Verdana.ttf
2670.478	n/a	WORD	1335239	wordpools/wasnorm_wordpool_less_exclusions.txt	LTP190	ltpFR	6	14	-1	PADDING	999	n/a	n/a	-1	1.0	1.0	1	upper	Verdana.ttf
2674.644	n/a	WORD	1337322	wordpools/wasnorm_wordpool_less_exclusions.txt	LTP190	ltpFR	6	14	-1	COUCH	386	n/a	n/a	-1	1.0	1.0	1	upper	Verdana.ttf
2678.692	n/a	WORD	1339346	wordpools/wasnorm_wordpool_less_exclusions.txt	LTP190	ltpFR	6	14	-1	PITCHFORK	1078	n/a	n/a	-1	1.0	1.0	1	upper	Verdana.ttf
2682.884	n/a	WORD	1341442	wordpools/wasnorm_wordpool_less_exclusions.txt	LTP190	ltpFR	6	14	-1	CART	250	n/a	n/a	-1	1.0	1.0	1	upper	Verdana.ttf
2687.056	n/a	WORD	1343528	wordpools/wasnorm_wordpool_less_exclusions.txt	LTP190	ltpFR	6	14	-1	SCAPEGOAT	1244	n/a	n/a	-1	1.0	1.0	1	upper	Verdana.ttf
2691.072	n/a	WORD	1345536	wordpools/wasnorm_wordpool_less_exclusions.txt	LTP190	ltpFR	6	14	-1	SUN	1406	n/a	n/a	-1	1.0	1.0	1	upper	Verdana.ttf
2694.92	n/a	WORD	1347460	wordpools/wasnorm_wordpool_less_exclusions.txt	LTP190	ltpFR	6	14	-1	CANOE	233	n/a	n/a	-1	1.0	1.0	1	upper	Verdana.ttf
2699.08	n/a	WORD	1349540	wordpools/wasnorm_wordpool_less_exclusions.txt	LTP190	ltpFR	6	14	-1	OZONE	996	n/a	n/a	-1	1.0	1.0	1	upper	Verdana.ttf
2703.028	n/a	WORD	1351514	wordpools/wasnorm_wordpool_less_exclusions.txt	LTP190	ltpFR	6	14	-1	SLEEVE	1324	n/a	n/a	-1	1.0	1.0	1	upper	Verdana.ttf
2707.094	n/a	WORD	1353547	wordpools/wasnorm_wordpool_less_exclusions.txt	LTP190	ltpFR	6	14	-1	ORNAMENT	985	n/a	n/a	-1	1.0	1.0	1	upper	Verdana.ttf
2711.192	n/a	WORD	1355596	wordpools/wasnorm_wordpool_less_exclusions.txt	LTP190	ltpFR	6	14	-1	PIRATE	1074	n/a	n/a	-1	1.0	1.0	1	upper	Verdana.ttf
2717.148	n/a	REC_START	1358574	n/a	LTP190	ltpFR	6	14	n/a	n/a	n/a	n/a	n/a	n/a	n/a	n/a	n/a	n/a	n/a
2717.742	n/a	REC_WORD	1358871	wordpools/wasnorm_wordpool_less_exclusions.txt	LTP190	ltpFR	6	14	-1	COUCH	386	n/a	n/a	-1	n/a	n/a	n/a	n/a	n/a
2718.19	n/a	REC_WORD	1359095	wordpools/wasnorm_wordpool_less_exclusions.txt	LTP190	ltpFR	6	14	-1	SUN	1406	n/a	n/a	-1	n/a	n/a	n/a	n/a	n/a
2719.0	n/a	REC_WORD	1359500	wordpools/wasnorm_wordpool_less_exclusions.txt	LTP190	ltpFR	6	14	-1	CANOE	233	n/a	n/a	-1	n/a	n/a	n/a	n/a	n/a
2721.864	n/a	REC_WORD	1360932	wordpools/wasnorm_wordpool_less_exclusions.txt	LTP190	ltpFR	6	14	-1	SLEEVE	1324	n/a	n/a	-1	n/a	n/a	n/a	n/a	n/a
2723.24	n/a	REC_WORD	1361620	wordpools/wasnorm_wordpool_less_exclusions.txt	LTP190	ltpFR	6	14	-1	PIRATE	1074	n/a	n/a	-1	n/a	n/a	n/a	n/a	n/a
2725.43	n/a	REC_WORD	1362715	wordpools/wasnorm_wordpool_less_exclusions.txt	LTP190	ltpFR	6	14	-1	OZONE	996	n/a	n/a	-1	n/a	n/a	n/a	n/a	n/a
2727.042	n/a	REC_WORD	1363521	wordpools/wasnorm_wordpool_less_exclusions.txt	LTP190	ltpFR	6	14	-1	ORNAMENT	985	n/a	n/a	-1	n/a	n/a	n/a	n/a	n/a
2730.094	n/a	REC_WORD	1365047	wordpools/wasnorm_wordpool_less_exclusions.txt	LTP190	ltpFR	6	14	-1	FRIAR	605	n/a	n/a	-1	n/a	n/a	n/a	n/a	n/a
2795.872	n/a	WORD	1397936	wordpools/wasnorm_wordpool_less_exclusions.txt	LTP190	ltpFR	6	15	1	LADDER	793	n/a	n/a	0	0.57763671875	0.412841796875	1	lower	amplitud.ttf
2799.816	n/a	WORD	1399908	wordpools/wasnorm_wordpool_less_exclusions.txt	LTP190	ltpFR	6	15	1	CANYON	235	n/a	n/a	0	0.57763671875	0.412841796875	1	lower	amplitud.ttf
2803.986	n/a	WORD	1401993	wordpools/wasnorm_wordpool_less_exclusions.txt	LTP190	ltpFR	6	15	1	PHOTO	1055	n/a	n/a	0	0.57763671875	0.412841796875	1	lower	amplitud.ttf
2807.812	n/a	WORD	1403906	wordpools/wasnorm_wordpool_less_exclusions.txt	LTP190	ltpFR	6	15	1	MONGOOSE	909	n/a	n/a	1	0.57763671875	0.412841796875	1	lower	amplitud.ttf
2811.96	n/a	WORD	1405980	wordpools/wasnorm_wordpool_less_exclusions.txt	LTP190	ltpFR	6	15	1	HARP	689	n/a	n/a	0	0.57763671875	0.412841796875	1	lower	amplitud.ttf
2816.11	n/a	WORD	1408055	wordpools/wasnorm_wordpool_less_exclusions.txt	LTP190	ltpFR	6	15	1	CONCERT	360	n/a	n/a	0	0.57763671875	0.412841796875	1	lower	amplitud.ttf
2819.964	n/a	WORD	1409982	wordpools/wasnorm_wordpool_less_exclusions.txt	LTP190	ltpFR	6	15	1	CHESS	294	n/a	n/a	0	0.57763671875	0.412841796875	1	lower	amplitud.ttf
2824.114	n/a	WORD	1412057	wordpools/wasnorm_wordpool_less_exclusions.txt	LTP190	ltpFR	6	15	1	BASEBALL	93	n/a	n/a	1	0.57763671875	0.412841796875	1	lower	amplitud.ttf
2828.324	n/a	WORD	1414162	wordpools/wasnorm_wordpool_less_exclusions.txt	LTP190	ltpFR	6	15	1	CUSTARD	429	n/a	n/a	0	0.57763671875	0.412841796875	1	lower	amplitud.ttf
2832.194	n/a	WORD	1416097	wordpools/wasnorm_wordpool_less_exclusions.txt	LTP190	ltpFR	6	15	1	FIREMAN	569	n/a	n/a	1	0.57763671875	0.412841796875	1	lower	amplitud.ttf
2836.338	n/a	WORD	1418169	wordpools/wasnorm_wordpool_less_exclusions.txt	LTP190	ltpFR	6	15	1	SHED	1277	n/a	n/a	0	0.57763671875	0.412841796875	1	lower	amplitud.ttf
2840.338	n/a	WORD	1420169	wordpools/wasnorm_wordpool_less_exclusions.txt	LTP190	ltpFR	6	15	1	FUDGE	611	n/a	n/a	0	0.57763671875	0.412841796875	1	lower	amplitud.ttf
2844.302	n/a	WORD	1422151	wordpools/wasnorm_wordpool_less_exclusions.txt	LTP190	ltpFR	6	15	1	ARMY	39	n/a	n/a	0	0.57763671875	0.412841796875	1	lower	amplitud.ttf
2848.418	n/a	WORD	1424209	wordpools/wasnorm_wordpool_less_exclusions.txt	LTP190	ltpFR	6	15	1	FRANCE	601	n/a	n/a	0	0.57763671875	0.412841796875	1	lower	amplitud.ttf
2852.366	n/a	WORD	1426183	wordpools/wasnorm_wordpool_less_exclusions.txt	LTP190	ltpFR	6	15	1	BUILDER	190	n/a	n/a	0	0.57763671875	0.412841796875	1	lower	amplitud.ttf
2856.572	n/a	WORD	1428286	wordpools/wasnorm_wordpool_less_exclusions.txt	LTP190	ltpFR	6	15	1	COLONEL	348	n/a	n/a	0	0.57763671875	0.412841796875	1	lower	amplitud.ttf
2862.622	n/a	REC_START	1431311	n/a	LTP190	ltpFR	6	15	n/a	n/a	n/a	n/a	n/a	n/a	n/a	n/a	n/a	n/a	n/a
2863.954	n/a	REC_WORD	1431977	wordpools/wasnorm_wordpool_less_exclusions.txt	LTP190	ltpFR	6	15	1	COLONEL	348	n/a	n/a	0	n/a	n/a	n/a	n/a	n/a
2864.578	n/a	REC_WORD	1432289	wordpools/wasnorm_wordpool_less_exclusions.txt	LTP190	ltpFR	6	15	1	FRANCE	601	n/a	n/a	0	n/a	n/a	n/a	n/a	n/a
2865.8	n/a	REC_WORD	1432900	wordpools/wasnorm_wordpool_less_exclusions.txt	LTP190	ltpFR	6	15	1	ARMY	39	n/a	n/a	0	n/a	n/a	n/a	n/a	n/a
2868.41	n/a	REC_WORD	1434205	wordpools/wasnorm_wordpool_less_exclusions.txt	LTP190	ltpFR	6	15	1	CANYON	235	n/a	n/a	0	n/a	n/a	n/a	n/a	n/a
2942.276	n/a	WORD	1471138	wordpools/wasnorm_wordpool_less_exclusions.txt	LTP190	ltpFR	6	16	0	FIREPLACE	570	n/a	n/a	1	0.422607421875	0.5869140625	0	upper	zerothre.ttf
2946.414	n/a	WORD	1473207	wordpools/wasnorm_wordpool_less_exclusions.txt	LTP190	ltpFR	6	16	0	NICOTINE	951	n/a	n/a	0	0.422607421875	0.5869140625	0	upper	zerothre.ttf
2950.592	n/a	WORD	1475296	wordpools/wasnorm_wordpool_less_exclusions.txt	LTP190	ltpFR	6	16	0	KNEE	784	n/a	n/a	0	0.422607421875	0.5869140625	0	upper	zerothre.ttf
2954.73	n/a	WORD	1477365	wordpools/wasnorm_wordpool_less_exclusions.txt	LTP190	ltpFR	6	16	0	PADDLE	1000	n/a	n/a	1	0.422607421875	0.5869140625	0	upper	zerothre.ttf
2958.638	n/a	WORD	1479319	wordpools/wasnorm_wordpool_less_exclusions.txt	LTP190	ltpFR	6	16	1	STREET	1393	n/a	n/a	0	0.57763671875	0.412841796875	1	lower	amplitud.ttf
2962.794	n/a	WORD	1481397	wordpools/wasnorm_wordpool_less_exclusions.txt	LTP190	ltpFR	6	16	1	FIG	563	n/a	n/a	1	0.57763671875	0.412841796875	1	lower	amplitud.ttf
2966.86	n/a	WORD	1483430	wordpools/wasnorm_wordpool_less_exclusions.txt	LTP190	ltpFR	6	16	1	OTTER	986	n/a	n/a	1	0.57763671875	0.412841796875	1	lower	amplitud.ttf
2971.07	n/a	WORD	1485535	wordpools/wasnorm_wordpool_less_exclusions.txt	LTP190	ltpFR	6	16	1	WATER	1594	n/a	n/a	0	0.57763671875	0.412841796875	1	lower	amplitud.ttf
2975.074	n/a	WORD	1487537	wordpools/wasnorm_wordpool_less_exclusions.txt	LTP190	ltpFR	6	16	0	CAPTAIN	239	n/a	n/a	1	0.422607421875	0.5869140625	0	upper	zerothre.ttf
2979.15	n/a	WORD	1489575	wordpools/wasnorm_wordpool_less_exclusions.txt	LTP190	ltpFR	6	16	0	PEDESTRIAN	1038	n/a	n/a	1	0.422607421875	0.5869140625	0	upper	zerothre.ttf
2983.266	n/a	WORD	1491633	wordpools/wasnorm_wordpool_less_exclusions.txt	LTP190	ltpFR	6	16	0	OUTLAW	989	n/a	n/a	1	0.422607421875	0.5869140625	0	upper	zerothre.ttf
2987.148	n/a	WORD	1493574	wordpools/wasnorm_wordpool_less_exclusions.txt	LTP190	ltpFR	6	16	0	PREACHER	1119	n/a	n/a	1	0.422607421875	0.5869140625	0	upper	zerothre.ttf
2991.252	n/a	WORD	1495626	wordpools/wasnorm_wordpool_less_exclusions.txt	LTP190	ltpFR	6	16	1	LOBBY	836	n/a	n/a	0	0.57763671875	0.412841796875	1	lower	amplitud.ttf
2995.244	n/a	WORD	1497622	wordpools/wasnorm_wordpool_less_exclusions.txt	LTP190	ltpFR	6	16	1	SHRUB	1299	n/a	n/a	1	0.57763671875	0.412841796875	1	lower	amplitud.ttf
2999.126	n/a	WORD	1499563	wordpools/wasnorm_wordpool_less_exclusions.txt	LTP190	ltpFR	6	16	1	LEAF	808	n/a	n/a	1	0.57763671875	0.412841796875	1	lower	amplitud.ttf
3003.024	n/a	WORD	1501512	wordpools/wasnorm_wordpool_less_exclusions.txt	LTP190	ltpFR	6	16	1	APPLE	33	n/a	n/a	1	0.57763671875	0.412841796875	1	lower	amplitud.ttf
3009.038	n/a	REC_START	1504519	n/a	LTP190	ltpFR	6	16	n/a	n/a	n/a	n/a	n/a	n/a	n/a	n/a	n/a	n/a	n/a
3010.024	n/a	REC_WORD	1505012	wordpools/wasnorm_wordpool_less_exclusions.txt	LTP190	ltpFR	6	16	1	LOBBY	836	n/a	n/a	0	n/a	n/a	n/a	n/a	n/a
3010.734	n/a	REC_WORD	1505367	wordpools/wasnorm_wordpool_less_exclusions.txt	LTP190	ltpFR	6	16	1	SHRUB	1299	n/a	n/a	1	n/a	n/a	n/a	n/a	n/a
3011.726	n/a	REC_WORD	1505863	wordpools/wasnorm_wordpool_less_exclusions.txt	LTP190	ltpFR	6	16	1	APPLE	33	n/a	n/a	1	n/a	n/a	n/a	n/a	n/a
3012.608	n/a	REC_WORD	1506304	wordpools/wasnorm_wordpool_less_exclusions.txt	LTP190	ltpFR	6	16	1	LEAF	808	n/a	n/a	1	n/a	n/a	n/a	n/a	n/a
3014.026	n/a	REC_WORD	1507013	wordpools/wasnorm_wordpool_less_exclusions.txt	LTP190	ltpFR	6	16	0	PEDESTRIAN	1038	n/a	n/a	1	n/a	n/a	n/a	n/a	n/a
3023.162	n/a	REC_WORD	1511581	wordpools/wasnorm_wordpool_less_exclusions.txt	LTP190	ltpFR	6	16	0	KNEE	784	n/a	n/a	0	n/a	n/a	n/a	n/a	n/a
3043.022	n/a	REC_WORD	1521511	wordpools/wasnorm_wordpool_less_exclusions.txt	LTP190	ltpFR	6	16	n/a	PRESIDENT	1121	n/a	n/a	n/a	n/a	n/a	n/a	n/a	n/a
3044.608	n/a	REC_WORD	1522304	wordpools/wasnorm_wordpool_less_exclusions.txt	LTP190	ltpFR	6	16	0	NICOTINE	951	n/a	n/a	0	n/a	n/a	n/a	n/a	n/a
3051.872	n/a	REC_WORD	1525936	wordpools/wasnorm_wordpool_less_exclusions.txt	LTP190	ltpFR	6	16	1	OTTER	986	n/a	n/a	1	n/a	n/a	n/a	n/a	n/a
3052.56	n/a	REC_WORD	1526280	wordpools/wasnorm_wordpool_less_exclusions.txt	LTP190	ltpFR	6	16	1	WATER	1594	n/a	n/a	0	n/a	n/a	n/a	n/a	n/a
3069.158	n/a	REC_WORD_VV	1534579	wordpools/wasnorm_wordpool_less_exclusions.txt	LTP190	ltpFR	6	16	n/a	<>	-1	n/a	n/a	n/a	n/a	n/a	n/a	n/a	n/a
3070.158	n/a	REC_WORD_VV	1535079	wordpools/wasnorm_wordpool_less_exclusions.txt	LTP190	ltpFR	6	16	n/a	<>	-1	n/a	n/a	n/a	n/a	n/a	n/a	n/a	n/a
3141.862	n/a	REC_START	1570931	n/a	LTP190	ltpFR	6	n/a	n/a	n/a	n/a	n/a	n/a	n/a	n/a	n/a	n/a	n/a	n/a
3145.4	n/a	FFR_REC_WORD	1572700	wordpools/wasnorm_wordpool_less_exclusions.txt	LTP190	ltpFR	6	n/a	1	ARMY	39	n/a	n/a	0	n/a	n/a	n/a	n/a	n/a
3146.308	n/a	FFR_REC_WORD	1573154	wordpools/wasnorm_wordpool_less_exclusions.txt	LTP190	ltpFR	6	n/a	1	COLONEL	348	n/a	n/a	0	n/a	n/a	n/a	n/a	n/a
3148.812	n/a	FFR_REC_WORD	1574406	wordpools/wasnorm_wordpool_less_exclusions.txt	LTP190	ltpFR	6	n/a	1	SERGEANT	1269	n/a	n/a	1	n/a	n/a	n/a	n/a	n/a
3149.808	n/a	FFR_REC_WORD	1574904	wordpools/wasnorm_wordpool_less_exclusions.txt	LTP190	ltpFR	6	n/a	1	LIEUTENANT	818	n/a	n/a	1	n/a	n/a	n/a	n/a	n/a
3152.348	n/a	FFR_REC_WORD	1576174	wordpools/wasnorm_wordpool_less_exclusions.txt	LTP190	ltpFR	6	n/a	1	MAILMAN	858	n/a	n/a	1	n/a	n/a	n/a	n/a	n/a
3155.716	n/a	FFR_REC_WORD	1577858	wordpools/wasnorm_wordpool_less_exclusions.txt	LTP190	ltpFR	6	n/a	1	OTTER	986	n/a	n/a	1	n/a	n/a	n/a	n/a	n/a
3156.764	n/a	FFR_REC_WORD	1578382	wordpools/wasnorm_wordpool_less_exclusions.txt	LTP190	ltpFR	6	n/a	1	WATER	1594	n/a	n/a	0	n/a	n/a	n/a	n/a	n/a
3163.154	n/a	FFR_REC_WORD	1581577	wordpools/wasnorm_wordpool_less_exclusions.txt	LTP190	ltpFR	6	n/a	0	KNEE	784	n/a	n/a	0	n/a	n/a	n/a	n/a	n/a
3181.974	n/a	FFR_REC_WORD	1590987	wordpools/wasnorm_wordpool_less_exclusions.txt	LTP190	ltpFR	6	n/a	0	TOASTER	1472	n/a	n/a	0	n/a	n/a	n/a	n/a	n/a
3196.79	n/a	FFR_REC_WORD	1598395	wordpools/wasnorm_wordpool_less_exclusions.txt	LTP190	ltpFR	6	n/a	1	VEAL	1551	n/a	n/a	0	n/a	n/a	n/a	n/a	n/a
3208.824	n/a	FFR_REC_WORD	1604412	wordpools/wasnorm_wordpool_less_exclusions.txt	LTP190	ltpFR	6	n/a	0	ASSOCIATE	49	n/a	n/a	1	n/a	n/a	n/a	n/a	n/a
3268.864	n/a	FFR_REC_WORD	1634432	wordpools/wasnorm_wordpool_less_exclusions.txt	LTP190	ltpFR	6	n/a	-1	FRIAR	605	n/a	n/a	-1	n/a	n/a	n/a	n/a	n/a
3271.086	n/a	FFR_REC_WORD	1635543	wordpools/wasnorm_wordpool_less_exclusions.txt	LTP190	ltpFR	6	n/a	1	LANDSCAPE	799	n/a	n/a	0	n/a	n/a	n/a	n/a	n/a
3271.958	n/a	FFR_REC_WORD	1635979	wordpools/wasnorm_wordpool_less_exclusions.txt	LTP190	ltpFR	6	n/a	0	FIELD	562	n/a	n/a	1	n/a	n/a	n/a	n/a	n/a
3334.026	n/a	FFR_REC_WORD	1667013	wordpools/wasnorm_wordpool_less_exclusions.txt	LTP190	ltpFR	6	n/a	1	SEAFOOD	1260	n/a	n/a	0	n/a	n/a	n/a	n/a	n/a
3335.278	n/a	FFR_REC_WORD	1667639	wordpools/wasnorm_wordpool_less_exclusions.txt	LTP190	ltpFR	6	n/a	1	MARINE	869	n/a	n/a	1	n/a	n/a	n/a	n/a	n/a
3339.588	n/a	FFR_REC_WORD	1669794	wordpools/wasnorm_wordpool_less_exclusions.txt	LTP190	ltpFR	6	n/a	0	JELLY	755	n/a	n/a	1	n/a	n/a	n/a	n/a	n/a
3340.526	n/a	FFR_REC_WORD	1670263	wordpools/wasnorm_wordpool_less_exclusions.txt	LTP190	ltpFR	6	n/a	-1	JELLO	754	n/a	n/a	-1	n/a	n/a	n/a	n/a	n/a
3343.638	n/a	FFR_REC_WORD	1671819	wordpools/wasnorm_wordpool_less_exclusions.txt	LTP190	ltpFR	6	n/a	1	OCTOPUS	971	n/a	n/a	1	n/a	n/a	n/a	n/a	n/a
3372.94	n/a	FFR_REC_WORD	1686470	wordpools/wasnorm_wordpool_less_exclusions.txt	LTP190	ltpFR	6	n/a	1	MARROW	872	n/a	n/a	1	n/a	n/a	n/a	n/a	n/a
3375.424	n/a	FFR_REC_WORD	1687712	wordpools/wasnorm_wordpool_less_exclusions.txt	LTP190	ltpFR	6	n/a	1	WRIST	1626	n/a	n/a	1	n/a	n/a	n/a	n/a	n/a
3469.532	n/a	REC_START	1734766	n/a	LTP190	ltpFR	6	1	n/a	n/a	n/a	n/a	n/a	n/a	n/a	n/a	n/a	n/a	n/a
3469.58	n/a	RECOG_TARGET	1734790	n/a	LTP190	ltpFR	6	1	0	AIRPORT	13	1	5	1	n/a	n/a	n/a	n/a	n/a
3471.856	n/a	RECOG_RESP	1735928	n/a	LTP190	ltpFR	6	1	0	AIRPORT	13	1	n/a	1	n/a	n/a	n/a	n/a	n/a
3472.61	n/a	RECOG_CONF	1736305	n/a	LTP190	ltpFR	6	1	0	AIRPORT	13	n/a	5	1	n/a	n/a	n/a	n/a	n/a
3474.41	n/a	RECOG_LURE	1737205	n/a	LTP190	ltpFR	6	1	n/a	CAVITY	264	0	2	n/a	n/a	n/a	n/a	n/a	n/a
3475.506	n/a	RECOG_RESP	1737753	n/a	LTP190	ltpFR	6	1	n/a	CAVITY	264	0	n/a	n/a	n/a	n/a	n/a	n/a	n/a
3476.104	n/a	RECOG_CONF	1738052	n/a	LTP190	ltpFR	6	1	n/a	CAVITY	264	n/a	2	n/a	n/a	n/a	n/a	n/a	n/a
3477.806	n/a	RECOG_TARGET	1738903	n/a	LTP190	ltpFR	6	1	-1	APRON	35	0	4	-1	n/a	n/a	n/a	n/a	n/a
3479.756	n/a	RECOG_RESP	1739878	n/a	LTP190	ltpFR	6	1	-1	APRON	35	0	n/a	-1	n/a	n/a	n/a	n/a	n/a
3480.234	n/a	RECOG_CONF	1740117	n/a	LTP190	ltpFR	6	1	-1	APRON	35	n/a	4	-1	n/a	n/a	n/a	n/a	n/a
3482.022	n/a	RECOG_TARGET	1741011	n/a	LTP190	ltpFR	6	1	0	HOSE	720	1	5	1	n/a	n/a	n/a	n/a	n/a
3482.778	n/a	RECOG_RESP	1741389	n/a	LTP190	ltpFR	6	1	0	HOSE	720	1	n/a	1	n/a	n/a	n/a	n/a	n/a
3483.296	n/a	RECOG_CONF	1741648	n/a	LTP190	ltpFR	6	1	0	HOSE	720	n/a	5	1	n/a	n/a	n/a	n/a	n/a
3484.956	n/a	RECOG_LURE	1742478	n/a	LTP190	ltpFR	6	1	n/a	FARMER	553	0	2	n/a	n/a	n/a	n/a	n/a	n/a
3485.696	n/a	RECOG_RESP	1742848	n/a	LTP190	ltpFR	6	1	n/a	FARMER	553	0	n/a	n/a	n/a	n/a	n/a	n/a	n/a
3486.174	n/a	RECOG_CONF	1743087	n/a	LTP190	ltpFR	6	1	n/a	FARMER	553	n/a	2	n/a	n/a	n/a	n/a	n/a	n/a
3487.75	n/a	RECOG_TARGET	1743875	n/a	LTP190	ltpFR	6	1	1	FEATHER	557	1	5	0	n/a	n/a	n/a	n/a	n/a
3488.416	n/a	RECOG_RESP	1744208	n/a	LTP190	ltpFR	6	1	1	FEATHER	557	1	n/a	0	n/a	n/a	n/a	n/a	n/a
3488.894	n/a	RECOG_CONF	1744447	n/a	LTP190	ltpFR	6	1	1	FEATHER	557	n/a	5	0	n/a	n/a	n/a	n/a	n/a
3490.378	n/a	RECOG_TARGET	1745189	n/a	LTP190	ltpFR	6	1	1	PHOTO	1055	1	5	0	n/a	n/a	n/a	n/a	n/a
3490.978	n/a	RECOG_RESP	1745489	n/a	LTP190	ltpFR	6	1	1	PHOTO	1055	1	n/a	0	n/a	n/a	n/a	n/a	n/a
3491.478	n/a	RECOG_CONF	1745739	n/a	LTP190	ltpFR	6	1	1	PHOTO	1055	n/a	5	0	n/a	n/a	n/a	n/a	n/a
3492.97	n/a	RECOG_TARGET	1746485	n/a	LTP190	ltpFR	6	1	-1	PADDING	999	0	2	-1	n/a	n/a	n/a	n/a	n/a
3493.7	n/a	RECOG_RESP	1746850	n/a	LTP190	ltpFR	6	1	-1	PADDING	999	0	n/a	-1	n/a	n/a	n/a	n/a	n/a
3494.252	n/a	RECOG_CONF	1747126	n/a	LTP190	ltpFR	6	1	-1	PADDING	999	n/a	2	-1	n/a	n/a	n/a	n/a	n/a
3495.748	n/a	RECOG_LURE	1747874	n/a	LTP190	ltpFR	6	1	n/a	STEREO	1378	0	5	n/a	n/a	n/a	n/a	n/a	n/a
3496.476	n/a	RECOG_RESP	1748238	n/a	LTP190	ltpFR	6	1	n/a	STEREO	1378	0	n/a	n/a	n/a	n/a	n/a	n/a	n/a
3496.892	n/a	RECOG_CONF	1748446	n/a	LTP190	ltpFR	6	1	n/a	STEREO	1378	n/a	5	n/a	n/a	n/a	n/a	n/a	n/a
3498.558	n/a	RECOG_TARGET	1749279	n/a	LTP190	ltpFR	6	1	1	LEAF	808	1	5	1	n/a	n/a	n/a	n/a	n/a
3499.158	n/a	RECOG_RESP	1749579	n/a	LTP190	ltpFR	6	1	1	LEAF	808	1	n/a	1	n/a	n/a	n/a	n/a	n/a
3499.65	n/a	RECOG_CONF	1749825	n/a	LTP190	ltpFR	6	1	1	LEAF	808	n/a	5	1	n/a	n/a	n/a	n/a	n/a
3501.144	n/a	RECOG_TARGET	1750572	n/a	LTP190	ltpFR	6	1	0	UTENSIL	1542	1	5	0	n/a	n/a	n/a	n/a	n/a
3501.736	n/a	RECOG_RESP	1750868	n/a	LTP190	ltpFR	6	1	0	UTENSIL	1542	1	n/a	0	n/a	n/a	n/a	n/a	n/a
3502.274	n/a	RECOG_CONF	1751137	n/a	LTP190	ltpFR	6	1	0	UTENSIL	1542	n/a	5	0	n/a	n/a	n/a	n/a	n/a
3503.678	n/a	RECOG_TARGET	1751839	n/a	LTP190	ltpFR	6	1	1	REGISTER	1180	1	5	0	n/a	n/a	n/a	n/a	n/a
3504.428	n/a	RECOG_RESP	1752214	n/a	LTP190	ltpFR	6	1	1	REGISTER	1180	1	n/a	0	n/a	n/a	n/a	n/a	n/a
3504.988	n/a	RECOG_CONF	1752494	n/a	LTP190	ltpFR	6	1	1	REGISTER	1180	n/a	5	0	n/a	n/a	n/a	n/a	n/a
3506.59	n/a	RECOG_LURE	1753295	n/a	LTP190	ltpFR	6	1	n/a	PRINCESS	1125	0	5	n/a	n/a	n/a	n/a	n/a	n/a
3507.32	n/a	RECOG_RESP	1753660	n/a	LTP190	ltpFR	6	1	n/a	PRINCESS	1125	0	n/a	n/a	n/a	n/a	n/a	n/a	n/a
3507.912	n/a	RECOG_CONF	1753956	n/a	LTP190	ltpFR	6	1	n/a	PRINCESS	1125	n/a	5	n/a	n/a	n/a	n/a	n/a	n/a
3509.466	n/a	RECOG_TARGET	1754733	n/a	LTP190	ltpFR	6	1	0	SHOWER	1296	1	5	1	n/a	n/a	n/a	n/a	n/a
3510.38	n/a	RECOG_RESP	1755190	n/a	LTP190	ltpFR	6	1	0	SHOWER	1296	1	n/a	1	n/a	n/a	n/a	n/a	n/a
3511.044	n/a	RECOG_CONF	1755522	n/a	LTP190	ltpFR	6	1	0	SHOWER	1296	n/a	5	1	n/a	n/a	n/a	n/a	n/a
3512.678	n/a	RECOG_TARGET	1756339	n/a	LTP190	ltpFR	6	1	0	COMMITTEE	355	0	5	n/a	n/a	n/a	n/a	n/a	n/a
3513.438	n/a	RECOG_RESP	1756719	n/a	LTP190	ltpFR	6	1	0	COMMITTEE	355	0	n/a	n/a	n/a	n/a	n/a	n/a	n/a
3514.018	n/a	RECOG_CONF	1757009	n/a	LTP190	ltpFR	6	1	0	COMMITTEE	355	n/a	5	n/a	n/a	n/a	n/a	n/a	n/a
3515.616	n/a	RECOG_LURE	1757808	n/a	LTP190	ltpFR	6	1	n/a	BLACKBOARD	133	0	2	n/a	n/a	n/a	n/a	n/a	n/a
3516.716	n/a	RECOG_RESP	1758358	n/a	LTP190	ltpFR	6	1	n/a	BLACKBOARD	133	0	n/a	n/a	n/a	n/a	n/a	n/a	n/a
3517.206	n/a	RECOG_CONF	1758603	n/a	LTP190	ltpFR	6	1	n/a	BLACKBOARD	133	n/a	2	n/a	n/a	n/a	n/a	n/a	n/a
3518.752	n/a	RECOG_TARGET	1759376	n/a	LTP190	ltpFR	6	1	-1	SIDEWALK	1303	1	5	-1	n/a	n/a	n/a	n/a	n/a
3519.456	n/a	RECOG_RESP	1759728	n/a	LTP190	ltpFR	6	1	-1	SIDEWALK	1303	1	n/a	-1	n/a	n/a	n/a	n/a	n/a
3519.934	n/a	RECOG_CONF	1759967	n/a	LTP190	ltpFR	6	1	-1	SIDEWALK	1303	n/a	5	-1	n/a	n/a	n/a	n/a	n/a
3521.456	n/a	RECOG_LURE	1760728	n/a	LTP190	ltpFR	6	1	n/a	ATMOSPHERE	54	0	1	n/a	n/a	n/a	n/a	n/a	n/a
3522.322	n/a	RECOG_RESP	1761161	n/a	LTP190	ltpFR	6	1	n/a	ATMOSPHERE	54	0	n/a	n/a	n/a	n/a	n/a	n/a	n/a
3522.906	n/a	RECOG_CONF	1761453	n/a	LTP190	ltpFR	6	1	n/a	ATMOSPHERE	54	n/a	1	n/a	n/a	n/a	n/a	n/a	n/a
3524.586	n/a	RECOG_LURE	1762293	n/a	LTP190	ltpFR	6	1	n/a	PRINCE	1124	0	2	n/a	n/a	n/a	n/a	n/a	n/a
3525.428	n/a	RECOG_RESP	1762714	n/a	LTP190	ltpFR	6	1	n/a	PRINCE	1124	0	n/a	n/a	n/a	n/a	n/a	n/a	n/a
3525.91	n/a	RECOG_CONF	1762955	n/a	LTP190	ltpFR	6	1	n/a	PRINCE	1124	n/a	2	n/a	n/a	n/a	n/a	n/a	n/a
3527.396	n/a	RECOG_TARGET	1763698	n/a	LTP190	ltpFR	6	1	0	ASSOCIATE	49	1	5	1	n/a	n/a	n/a	n/a	n/a
3528.078	n/a	RECOG_RESP	1764039	n/a	LTP190	ltpFR	6	1	0	ASSOCIATE	49	1	n/a	1	n/a	n/a	n/a	n/a	n/a
3528.556	n/a	RECOG_CONF	1764278	n/a	LTP190	ltpFR	6	1	0	ASSOCIATE	49	n/a	5	1	n/a	n/a	n/a	n/a	n/a
3531.872	n/a	REC_START	1765936	n/a	LTP190	ltpFR	6	2	n/a	n/a	n/a	n/a	n/a	n/a	n/a	n/a	n/a	n/a	n/a
3531.918	n/a	RECOG_TARGET	1765959	n/a	LTP190	ltpFR	6	2	1	MARSH	874	1	5	1	n/a	n/a	n/a	n/a	n/a
3532.982	n/a	RECOG_RESP	1766491	n/a	LTP190	ltpFR	6	2	1	MARSH	874	1	n/a	1	n/a	n/a	n/a	n/a	n/a
3533.66	n/a	RECOG_RESP_VV	1766830	n/a	LTP190	ltpFR	6	2	1	MARSH	874	n/a	5	1	n/a	n/a	n/a	n/a	n/a
3535.646	n/a	RECOG_CONF	1767823	n/a	LTP190	ltpFR	6	2	1	MARSH	874	n/a	5	1	n/a	n/a	n/a	n/a	n/a
3537.692	n/a	RECOG_TARGET	1768846	n/a	LTP190	ltpFR	6	2	0	GROCERIES	663	1	5	1	n/a	n/a	n/a	n/a	n/a
3538.584	n/a	RECOG_RESP	1769292	n/a	LTP190	ltpFR	6	2	0	GROCERIES	663	1	n/a	1	n/a	n/a	n/a	n/a	n/a
3539.062	n/a	RECOG_CONF	1769531	n/a	LTP190	ltpFR	6	2	0	GROCERIES	663	n/a	5	1	n/a	n/a	n/a	n/a	n/a
3540.72	n/a	RECOG_TARGET	1770360	n/a	LTP190	ltpFR	6	2	1	FIREMAN	569	1	5	1	n/a	n/a	n/a	n/a	n/a
3541.248	n/a	RECOG_RESP	1770624	n/a	LTP190	ltpFR	6	2	1	FIREMAN	569	1	n/a	1	n/a	n/a	n/a	n/a	n/a
3541.766	n/a	RECOG_CONF	1770883	n/a	LTP190	ltpFR	6	2	1	FIREMAN	569	n/a	5	1	n/a	n/a	n/a	n/a	n/a
3543.244	n/a	RECOG_LURE	1771622	n/a	LTP190	ltpFR	6	2	n/a	BULLY	196	0	2	n/a	n/a	n/a	n/a	n/a	n/a
3544.17	n/a	RECOG_RESP	1772085	n/a	LTP190	ltpFR	6	2	n/a	BULLY	196	0	n/a	n/a	n/a	n/a	n/a	n/a	n/a
3544.66	n/a	RECOG_CONF	1772330	n/a	LTP190	ltpFR	6	2	n/a	BULLY	196	n/a	2	n/a	n/a	n/a	n/a	n/a	n/a
3546.122	n/a	RECOG_TARGET	1773061	n/a	LTP190	ltpFR	6	2	-1	SLACKS	1323	0	4	-1	n/a	n/a	n/a	n/a	n/a
3546.828	n/a	RECOG_RESP	1773414	n/a	LTP190	ltpFR	6	2	-1	SLACKS	1323	0	n/a	-1	n/a	n/a	n/a	n/a	n/a
3547.394	n/a	RECOG_CONF	1773697	n/a	LTP190	ltpFR	6	2	-1	SLACKS	1323	n/a	4	-1	n/a	n/a	n/a	n/a	n/a
3548.944	n/a	RECOG_TARGET	1774472	n/a	LTP190	ltpFR	6	2	1	PAD	998	1	2	0	n/a	n/a	n/a	n/a	n/a
3550.046	n/a	RECOG_RESP	1775023	n/a	LTP190	ltpFR	6	2	1	PAD	998	1	n/a	0	n/a	n/a	n/a	n/a	n/a
3550.576	n/a	RECOG_CONF	1775288	n/a	LTP190	ltpFR	6	2	1	PAD	998	n/a	2	0	n/a	n/a	n/a	n/a	n/a
3552.178	n/a	RECOG_TARGET	1776089	n/a	LTP190	ltpFR	6	2	0	MISTER	901	1	5	1	n/a	n/a	n/a	n/a	n/a
3552.97	n/a	RECOG_RESP	1776485	n/a	LTP190	ltpFR	6	2	0	MISTER	901	1	n/a	1	n/a	n/a	n/a	n/a	n/a
3553.47	n/a	RECOG_CONF	1776735	n/a	LTP190	ltpFR	6	2	0	MISTER	901	n/a	5	1	n/a	n/a	n/a	n/a	n/a
3555.108	n/a	RECOG_LURE	1777554	n/a	LTP190	ltpFR	6	2	n/a	CASH	252	0	4	n/a	n/a	n/a	n/a	n/a	n/a
3555.898	n/a	RECOG_RESP	1777949	n/a	LTP190	ltpFR	6	2	n/a	CASH	252	0	n/a	n/a	n/a	n/a	n/a	n/a	n/a
3556.494	n/a	RECOG_CONF	1778247	n/a	LTP190	ltpFR	6	2	n/a	CASH	252	n/a	4	n/a	n/a	n/a	n/a	n/a	n/a
3558.118	n/a	RECOG_TARGET	1779059	n/a	LTP190	ltpFR	6	2	0	BULL	193	1	5	1	n/a	n/a	n/a	n/a	n/a
3558.834	n/a	RECOG_RESP	1779417	n/a	LTP190	ltpFR	6	2	0	BULL	193	1	n/a	1	n/a	n/a	n/a	n/a	n/a
3559.366	n/a	RECOG_CONF	1779683	n/a	LTP190	ltpFR	6	2	0	BULL	193	n/a	5	1	n/a	n/a	n/a	n/a	n/a
3561.056	n/a	RECOG_TARGET	1780528	n/a	LTP190	ltpFR	6	2	0	WORM	1623	1	5	0	n/a	n/a	n/a	n/a	n/a
3561.76	n/a	RECOG_RESP	1780880	n/a	LTP190	ltpFR	6	2	0	WORM	1623	1	n/a	0	n/a	n/a	n/a	n/a	n/a
3562.24	n/a	RECOG_CONF	1781120	n/a	LTP190	ltpFR	6	2	0	WORM	1623	n/a	5	0	n/a	n/a	n/a	n/a	n/a
3563.842	n/a	RECOG_TARGET	1781921	n/a	LTP190	ltpFR	6	2	-1	DUST	508	0	2	-1	n/a	n/a	n/a	n/a	n/a
3564.722	n/a	RECOG_RESP	1782361	n/a	LTP190	ltpFR	6	2	-1	DUST	508	0	n/a	-1	n/a	n/a	n/a	n/a	n/a
3565.182	n/a	RECOG_CONF	1782591	n/a	LTP190	ltpFR	6	2	-1	DUST	508	n/a	2	-1	n/a	n/a	n/a	n/a	n/a
3566.718	n/a	RECOG_LURE	1783359	n/a	LTP190	ltpFR	6	2	n/a	SKYSCRAPER	1322	0	4	n/a	n/a	n/a	n/a	n/a	n/a
3567.524	n/a	RECOG_RESP	1783762	n/a	LTP190	ltpFR	6	2	n/a	SKYSCRAPER	1322	0	n/a	n/a	n/a	n/a	n/a	n/a	n/a
3568.088	n/a	RECOG_CONF	1784044	n/a	LTP190	ltpFR	6	2	n/a	SKYSCRAPER	1322	n/a	4	n/a	n/a	n/a	n/a	n/a	n/a
3569.512	n/a	RECOG_LURE	1784756	n/a	LTP190	ltpFR	6	2	n/a	PORTRAIT	1111	0	2	n/a	n/a	n/a	n/a	n/a	n/a
3570.338	n/a	RECOG_RESP	1785169	n/a	LTP190	ltpFR	6	2	n/a	PORTRAIT	1111	0	n/a	n/a	n/a	n/a	n/a	n/a	n/a
3570.844	n/a	RECOG_CONF	1785422	n/a	LTP190	ltpFR	6	2	n/a	PORTRAIT	1111	n/a	2	n/a	n/a	n/a	n/a	n/a	n/a
3572.5	n/a	RECOG_LURE	1786250	n/a	LTP190	ltpFR	6	2	n/a	NOTEBOOK	959	0	3	n/a	n/a	n/a	n/a	n/a	n/a
3573.234	n/a	RECOG_RESP	1786617	n/a	LTP190	ltpFR	6	2	n/a	NOTEBOOK	959	0	n/a	n/a	n/a	n/a	n/a	n/a	n/a
3573.816	n/a	RECOG_CONF	1786908	n/a	LTP190	ltpFR	6	2	n/a	NOTEBOOK	959	n/a	3	n/a	n/a	n/a	n/a	n/a	n/a
3575.43	n/a	RECOG_LURE	1787715	n/a	LTP190	ltpFR	6	2	n/a	BEAN	105	0	2	n/a	n/a	n/a	n/a	n/a	n/a
3576.22	n/a	RECOG_RESP	1788110	n/a	LTP190	ltpFR	6	2	n/a	BEAN	105	0	n/a	n/a	n/a	n/a	n/a	n/a	n/a
3576.746	n/a	RECOG_CONF	1788373	n/a	LTP190	ltpFR	6	2	n/a	BEAN	105	n/a	2	n/a	n/a	n/a	n/a	n/a	n/a
3578.364	n/a	RECOG_TARGET	1789182	n/a	LTP190	ltpFR	6	2	0	SEAL	1262	1	5	1	n/a	n/a	n/a	n/a	n/a
3579.084	n/a	RECOG_RESP	1789542	n/a	LTP190	ltpFR	6	2	0	SEAL	1262	1	n/a	1	n/a	n/a	n/a	n/a	n/a
3579.672	n/a	RECOG_CONF	1789836	n/a	LTP190	ltpFR	6	2	0	SEAL	1262	n/a	5	1	n/a	n/a	n/a	n/a	n/a
3581.184	n/a	RECOG_TARGET	1790592	n/a	LTP190	ltpFR	6	2	-1	MOON	914	1	5	-1	n/a	n/a	n/a	n/a	n/a
3581.842	n/a	RECOG_RESP	1790921	n/a	LTP190	ltpFR	6	2	-1	MOON	914	1	n/a	-1	n/a	n/a	n/a	n/a	n/a
3582.336	n/a	RECOG_CONF	1791168	n/a	LTP190	ltpFR	6	2	-1	MOON	914	n/a	5	-1	n/a	n/a	n/a	n/a	n/a
3583.866	n/a	RECOG_TARGET	1791933	n/a	LTP190	ltpFR	6	2	1	CHAPEL	280	0	2	0	n/a	n/a	n/a	n/a	n/a
3584.502	n/a	RECOG_RESP	1792251	n/a	LTP190	ltpFR	6	2	1	CHAPEL	280	0	n/a	0	n/a	n/a	n/a	n/a	n/a
3584.986	n/a	RECOG_CONF	1792493	n/a	LTP190	ltpFR	6	2	1	CHAPEL	280	n/a	2	0	n/a	n/a	n/a	n/a	n/a
3586.878	n/a	RECOG_TARGET	1793439	n/a	LTP190	ltpFR	6	2	-1	REFRIGERATOR	1179	1	5	-1	n/a	n/a	n/a	n/a	n/a
3587.574	n/a	RECOG_RESP	1793787	n/a	LTP190	ltpFR	6	2	-1	REFRIGERATOR	1179	1	n/a	-1	n/a	n/a	n/a	n/a	n/a
3588.122	n/a	RECOG_CONF	1794061	n/a	LTP190	ltpFR	6	2	-1	REFRIGERATOR	1179	n/a	5	-1	n/a	n/a	n/a	n/a	n/a
3589.706	n/a	RECOG_LURE	1794853	n/a	LTP190	ltpFR	6	2	n/a	SHOE	1288	0	2	n/a	n/a	n/a	n/a	n/a	n/a
3590.566	n/a	RECOG_RESP	1795283	n/a	LTP190	ltpFR	6	2	n/a	SHOE	1288	0	n/a	n/a	n/a	n/a	n/a	n/a	n/a
3591.034	n/a	RECOG_CONF	1795517	n/a	LTP190	ltpFR	6	2	n/a	SHOE	1288	n/a	2	n/a	n/a	n/a	n/a	n/a	n/a
3594.322	n/a	REC_START	1797161	n/a	LTP190	ltpFR	6	3	n/a	n/a	n/a	n/a	n/a	n/a	n/a	n/a	n/a	n/a	n/a
3594.374	n/a	RECOG_LURE	1797187	n/a	LTP190	ltpFR	6	3	n/a	SHELL	1281	0	2	n/a	n/a	n/a	n/a	n/a	n/a
3595.214	n/a	RECOG_RESP	1797607	n/a	LTP190	ltpFR	6	3	n/a	SHELL	1281	0	n/a	n/a	n/a	n/a	n/a	n/a	n/a
3595.668	n/a	RECOG_CONF	1797834	n/a	LTP190	ltpFR	6	3	n/a	SHELL	1281	n/a	2	n/a	n/a	n/a	n/a	n/a	n/a
3597.252	n/a	RECOG_TARGET	1798626	n/a	LTP190	ltpFR	6	3	1	EMPEROR	529	1	5	1	n/a	n/a	n/a	n/a	n/a
3597.908	n/a	RECOG_RESP	1798954	n/a	LTP190	ltpFR	6	3	1	EMPEROR	529	1	n/a	1	n/a	n/a	n/a	n/a	n/a
3598.368	n/a	RECOG_CONF	1799184	n/a	LTP190	ltpFR	6	3	1	EMPEROR	529	n/a	5	1	n/a	n/a	n/a	n/a	n/a
3599.912	n/a	RECOG_LURE	1799956	n/a	LTP190	ltpFR	6	3	n/a	HERB	704	0	1	n/a	n/a	n/a	n/a	n/a	n/a
3600.814	n/a	RECOG_RESP	1800407	n/a	LTP190	ltpFR	6	3	n/a	HERB	704	0	n/a	n/a	n/a	n/a	n/a	n/a	n/a
3601.352	n/a	RECOG_CONF	1800676	n/a	LTP190	ltpFR	6	3	n/a	HERB	704	n/a	1	n/a	n/a	n/a	n/a	n/a	n/a
3603.05	n/a	RECOG_TARGET	1801525	n/a	LTP190	ltpFR	6	3	1	TIE	1466	1	5	1	n/a	n/a	n/a	n/a	n/a
3603.83	n/a	RECOG_RESP	1801915	n/a	LTP190	ltpFR	6	3	1	TIE	1466	1	n/a	1	n/a	n/a	n/a	n/a	n/a
3604.244	n/a	RECOG_CONF	1802122	n/a	LTP190	ltpFR	6	3	1	TIE	1466	n/a	5	1	n/a	n/a	n/a	n/a	n/a
3605.802	n/a	RECOG_TARGET	1802901	n/a	LTP190	ltpFR	6	3	-1	BERRY	122	1	5	-1	n/a	n/a	n/a	n/a	n/a
3606.508	n/a	RECOG_RESP	1803254	n/a	LTP190	ltpFR	6	3	-1	BERRY	122	1	n/a	-1	n/a	n/a	n/a	n/a	n/a
3607.028	n/a	RECOG_CONF	1803514	n/a	LTP190	ltpFR	6	3	-1	BERRY	122	n/a	5	-1	n/a	n/a	n/a	n/a	n/a
3608.438	n/a	RECOG_TARGET	1804219	n/a	LTP190	ltpFR	6	3	1	PILOT	1070	1	5	1	n/a	n/a	n/a	n/a	n/a
3609.226	n/a	RECOG_RESP	1804613	n/a	LTP190	ltpFR	6	3	1	PILOT	1070	1	n/a	1	n/a	n/a	n/a	n/a	n/a
3609.742	n/a	RECOG_CONF	1804871	n/a	LTP190	ltpFR	6	3	1	PILOT	1070	n/a	5	1	n/a	n/a	n/a	n/a	n/a
3611.384	n/a	RECOG_TARGET	1805692	n/a	LTP190	ltpFR	6	3	0	DYNAMITE	511	1	3	1	n/a	n/a	n/a	n/a	n/a
3612.292	n/a	RECOG_RESP	1806146	n/a	LTP190	ltpFR	6	3	0	DYNAMITE	511	1	n/a	1	n/a	n/a	n/a	n/a	n/a
3612.848	n/a	RECOG_CONF	1806424	n/a	LTP190	ltpFR	6	3	0	DYNAMITE	511	n/a	3	1	n/a	n/a	n/a	n/a	n/a
3614.518	n/a	RECOG_TARGET	1807259	n/a	LTP190	ltpFR	6	3	1	REPORT	1184	1	5	0	n/a	n/a	n/a	n/a	n/a
3615.434	n/a	RECOG_RESP	1807717	n/a	LTP190	ltpFR	6	3	1	REPORT	1184	1	n/a	0	n/a	n/a	n/a	n/a	n/a
3615.928	n/a	RECOG_CONF	1807964	n/a	LTP190	ltpFR	6	3	1	REPORT	1184	n/a	5	0	n/a	n/a	n/a	n/a	n/a
3617.63	n/a	RECOG_TARGET	1808815	n/a	LTP190	ltpFR	6	3	-1	CART	250	1	5	-1	n/a	n/a	n/a	n/a	n/a
3619.264	n/a	RECOG_RESP	1809632	n/a	LTP190	ltpFR	6	3	-1	CART	250	1	n/a	-1	n/a	n/a	n/a	n/a	n/a
3619.73	n/a	RECOG_CONF	1809865	n/a	LTP190	ltpFR	6	3	-1	CART	250	n/a	5	-1	n/a	n/a	n/a	n/a	n/a
3621.294	n/a	RECOG_TARGET	1810647	n/a	LTP190	ltpFR	6	3	0	SAW	1239	1	5	1	n/a	n/a	n/a	n/a	n/a
3621.912	n/a	RECOG_RESP	1810956	n/a	LTP190	ltpFR	6	3	0	SAW	1239	1	n/a	1	n/a	n/a	n/a	n/a	n/a
3622.384	n/a	RECOG_CONF	1811192	n/a	LTP190	ltpFR	6	3	0	SAW	1239	n/a	5	1	n/a	n/a	n/a	n/a	n/a
3623.87	n/a	RECOG_LURE	1811935	n/a	LTP190	ltpFR	6	3	n/a	COMB	351	0	2	n/a	n/a	n/a	n/a	n/a	n/a
3624.576	n/a	RECOG_RESP	1812288	n/a	LTP190	ltpFR	6	3	n/a	COMB	351	0	n/a	n/a	n/a	n/a	n/a	n/a	n/a
3625.022	n/a	RECOG_CONF	1812511	n/a	LTP190	ltpFR	6	3	n/a	COMB	351	n/a	2	n/a	n/a	n/a	n/a	n/a	n/a
3626.674	n/a	RECOG_TARGET	1813337	n/a	LTP190	ltpFR	6	3	1	BIRD	129	1	5	1	n/a	n/a	n/a	n/a	n/a
3627.338	n/a	RECOG_RESP	1813669	n/a	LTP190	ltpFR	6	3	1	BIRD	129	1	n/a	1	n/a	n/a	n/a	n/a	n/a
3627.772	n/a	RECOG_CONF	1813886	n/a	LTP190	ltpFR	6	3	1	BIRD	129	n/a	5	1	n/a	n/a	n/a	n/a	n/a
3629.324	n/a	RECOG_LURE	1814662	n/a	LTP190	ltpFR	6	3	n/a	FLOWER	584	0	2	n/a	n/a	n/a	n/a	n/a	n/a
3630.144	n/a	RECOG_RESP	1815072	n/a	LTP190	ltpFR	6	3	n/a	FLOWER	584	0	n/a	n/a	n/a	n/a	n/a	n/a	n/a
3630.572	n/a	RECOG_CONF	1815286	n/a	LTP190	ltpFR	6	3	n/a	FLOWER	584	n/a	2	n/a	n/a	n/a	n/a	n/a	n/a
3632.228	n/a	RECOG_TARGET	1816114	n/a	LTP190	ltpFR	6	3	1	LANDSCAPE	799	1	5	0	n/a	n/a	n/a	n/a	n/a
3632.832	n/a	RECOG_RESP	1816416	n/a	LTP190	ltpFR	6	3	1	LANDSCAPE	799	1	n/a	0	n/a	n/a	n/a	n/a	n/a
3633.27	n/a	RECOG_CONF	1816635	n/a	LTP190	ltpFR	6	3	1	LANDSCAPE	799	n/a	5	0	n/a	n/a	n/a	n/a	n/a
3634.856	n/a	RECOG_TARGET	1817428	n/a	LTP190	ltpFR	6	3	0	CAFETERIA	217	1	5	1	n/a	n/a	n/a	n/a	n/a
3635.508	n/a	RECOG_RESP	1817754	n/a	LTP190	ltpFR	6	3	0	CAFETERIA	217	1	n/a	1	n/a	n/a	n/a	n/a	n/a
3635.954	n/a	RECOG_CONF	1817977	n/a	LTP190	ltpFR	6	3	0	CAFETERIA	217	n/a	5	1	n/a	n/a	n/a	n/a	n/a
3637.674	n/a	RECOG_TARGET	1818837	n/a	LTP190	ltpFR	6	3	1	SUBWAY	1400	1	5	0	n/a	n/a	n/a	n/a	n/a
3638.346	n/a	RECOG_RESP	1819173	n/a	LTP190	ltpFR	6	3	1	SUBWAY	1400	1	n/a	0	n/a	n/a	n/a	n/a	n/a
3638.848	n/a	RECOG_CONF	1819424	n/a	LTP190	ltpFR	6	3	1	SUBWAY	1400	n/a	5	0	n/a	n/a	n/a	n/a	n/a
3640.702	n/a	RECOG_TARGET	1820351	n/a	LTP190	ltpFR	6	3	1	JEEP	753	1	5	0	n/a	n/a	n/a	n/a	n/a
3641.378	n/a	RECOG_RESP	1820689	n/a	LTP190	ltpFR	6	3	1	JEEP	753	1	n/a	0	n/a	n/a	n/a	n/a	n/a
3641.91	n/a	RECOG_CONF	1820955	n/a	LTP190	ltpFR	6	3	1	JEEP	753	n/a	5	0	n/a	n/a	n/a	n/a	n/a
3643.522	n/a	RECOG_TARGET	1821761	n/a	LTP190	ltpFR	6	3	-1	RANCH	1166	1	5	-1	n/a	n/a	n/a	n/a	n/a
3644.27	n/a	RECOG_RESP	1822135	n/a	LTP190	ltpFR	6	3	-1	RANCH	1166	1	n/a	-1	n/a	n/a	n/a	n/a	n/a
3644.864	n/a	RECOG_CONF	1822432	n/a	LTP190	ltpFR	6	3	-1	RANCH	1166	n/a	5	-1	n/a	n/a	n/a	n/a	n/a
3646.466	n/a	RECOG_TARGET	1823233	n/a	LTP190	ltpFR	6	3	0	WITNESS	1618	1	5	1	n/a	n/a	n/a	n/a	n/a
3647.102	n/a	RECOG_RESP	1823551	n/a	LTP190	ltpFR	6	3	0	WITNESS	1618	1	n/a	1	n/a	n/a	n/a	n/a	n/a
3647.648	n/a	RECOG_CONF	1823824	n/a	LTP190	ltpFR	6	3	0	WITNESS	1618	n/a	5	1	n/a	n/a	n/a	n/a	n/a
3649.284	n/a	RECOG_LURE	1824642	n/a	LTP190	ltpFR	6	3	n/a	COCOON	339	1	5	n/a	n/a	n/a	n/a	n/a	n/a
3650.06	n/a	RECOG_RESP	1825030	n/a	LTP190	ltpFR	6	3	n/a	COCOON	339	1	n/a	n/a	n/a	n/a	n/a	n/a	n/a
3650.512	n/a	RECOG_CONF	1825256	n/a	LTP190	ltpFR	6	3	n/a	COCOON	339	n/a	5	n/a	n/a	n/a	n/a	n/a	n/a
3657.71	n/a	REC_START	1828855	n/a	LTP190	ltpFR	6	4	n/a	n/a	n/a	n/a	n/a	n/a	n/a	n/a	n/a	n/a	n/a
3657.76	n/a	RECOG_TARGET	1828880	n/a	LTP190	ltpFR	6	4	0	FIELD	562	1	5	1	n/a	n/a	n/a	n/a	n/a
3658.73	n/a	RECOG_RESP	1829365	n/a	LTP190	ltpFR	6	4	0	FIELD	562	1	n/a	1	n/a	n/a	n/a	n/a	n/a
3659.22	n/a	RECOG_CONF	1829610	n/a	LTP190	ltpFR	6	4	0	FIELD	562	n/a	5	1	n/a	n/a	n/a	n/a	n/a
3660.762	n/a	RECOG_LURE	1830381	n/a	LTP190	ltpFR	6	4	n/a	NECKLACE	940	0	2	n/a	n/a	n/a	n/a	n/a	n/a
3661.806	n/a	RECOG_RESP	1830903	n/a	LTP190	ltpFR	6	4	n/a	NECKLACE	940	0	n/a	n/a	n/a	n/a	n/a	n/a	n/a
3662.234	n/a	RECOG_CONF	1831117	n/a	LTP190	ltpFR	6	4	n/a	NECKLACE	940	n/a	2	n/a	n/a	n/a	n/a	n/a	n/a
3663.922	n/a	RECOG_TARGET	1831961	n/a	LTP190	ltpFR	6	4	1	FLY	586	1	5	1	n/a	n/a	n/a	n/a	n/a
3664.562	n/a	RECOG_RESP	1832281	n/a	LTP190	ltpFR	6	4	1	FLY	586	1	n/a	1	n/a	n/a	n/a	n/a	n/a
3664.998	n/a	RECOG_CONF	1832499	n/a	LTP190	ltpFR	6	4	1	FLY	586	n/a	5	1	n/a	n/a	n/a	n/a	n/a
3666.644	n/a	RECOG_LURE	1833322	n/a	LTP190	ltpFR	6	4	n/a	TAVERN	1437	0	5	n/a	n/a	n/a	n/a	n/a	n/a
3667.354	n/a	RECOG_RESP	1833677	n/a	LTP190	ltpFR	6	4	n/a	TAVERN	1437	0	n/a	n/a	n/a	n/a	n/a	n/a	n/a
3667.882	n/a	RECOG_CONF	1833941	n/a	LTP190	ltpFR	6	4	n/a	TAVERN	1437	n/a	5	n/a	n/a	n/a	n/a	n/a	n/a
3669.506	n/a	RECOG_TARGET	1834753	n/a	LTP190	ltpFR	6	4	-1	SCAPEGOAT	1244	1	5	-1	n/a	n/a	n/a	n/a	n/a
3670.188	n/a	RECOG_RESP	1835094	n/a	LTP190	ltpFR	6	4	-1	SCAPEGOAT	1244	1	n/a	-1	n/a	n/a	n/a	n/a	n/a
3670.676	n/a	RECOG_CONF	1835338	n/a	LTP190	ltpFR	6	4	-1	SCAPEGOAT	1244	n/a	5	-1	n/a	n/a	n/a	n/a	n/a
3672.148	n/a	RECOG_TARGET	1836074	n/a	LTP190	ltpFR	6	4	1	GRASSHOPPER	656	1	5	1	n/a	n/a	n/a	n/a	n/a
3672.864	n/a	RECOG_RESP	1836432	n/a	LTP190	ltpFR	6	4	1	GRASSHOPPER	656	1	n/a	1	n/a	n/a	n/a	n/a	n/a
3673.38	n/a	RECOG_CONF	1836690	n/a	LTP190	ltpFR	6	4	1	GRASSHOPPER	656	n/a	5	1	n/a	n/a	n/a	n/a	n/a
3674.992	n/a	RECOG_TARGET	1837496	n/a	LTP190	ltpFR	6	4	-1	PASTA	1021	1	5	-1	n/a	n/a	n/a	n/a	n/a
3675.718	n/a	RECOG_RESP	1837859	n/a	LTP190	ltpFR	6	4	-1	PASTA	1021	1	n/a	-1	n/a	n/a	n/a	n/a	n/a
3676.184	n/a	RECOG_CONF	1838092	n/a	LTP190	ltpFR	6	4	-1	PASTA	1021	n/a	5	-1	n/a	n/a	n/a	n/a	n/a
3677.72	n/a	RECOG_LURE	1838860	n/a	LTP190	ltpFR	6	4	n/a	TRUCK	1512	0	5	n/a	n/a	n/a	n/a	n/a	n/a
3679.13	n/a	RECOG_RESP	1839565	n/a	LTP190	ltpFR	6	4	n/a	TRUCK	1512	0	n/a	n/a	n/a	n/a	n/a	n/a	n/a
3679.666	n/a	RECOG_CONF	1839833	n/a	LTP190	ltpFR	6	4	n/a	TRUCK	1512	n/a	5	n/a	n/a	n/a	n/a	n/a	n/a
3681.332	n/a	RECOG_TARGET	1840666	n/a	LTP190	ltpFR	6	4	-1	PIRATE	1074	1	5	-1	n/a	n/a	n/a	n/a	n/a
3682.71	n/a	RECOG_RESP	1841355	n/a	LTP190	ltpFR	6	4	-1	PIRATE	1074	1	n/a	-1	n/a	n/a	n/a	n/a	n/a
3683.178	n/a	RECOG_CONF	1841589	n/a	LTP190	ltpFR	6	4	-1	PIRATE	1074	n/a	5	-1	n/a	n/a	n/a	n/a	n/a
3684.862	n/a	RECOG_TARGET	1842431	n/a	LTP190	ltpFR	6	4	-1	ENCYCLOPEDIA	533	1	5	-1	n/a	n/a	n/a	n/a	n/a
3685.406	n/a	RECOG_RESP	1842703	n/a	LTP190	ltpFR	6	4	-1	ENCYCLOPEDIA	533	1	n/a	-1	n/a	n/a	n/a	n/a	n/a
3685.912	n/a	RECOG_CONF	1842956	n/a	LTP190	ltpFR	6	4	-1	ENCYCLOPEDIA	533	n/a	5	-1	n/a	n/a	n/a	n/a	n/a
3687.408	n/a	RECOG_TARGET	1843704	n/a	LTP190	ltpFR	6	4	-1	GOWN	652	1	5	-1	n/a	n/a	n/a	n/a	n/a
3688.134	n/a	RECOG_RESP	1844067	n/a	LTP190	ltpFR	6	4	-1	GOWN	652	1	n/a	-1	n/a	n/a	n/a	n/a	n/a
3688.606	n/a	RECOG_CONF	1844303	n/a	LTP190	ltpFR	6	4	-1	GOWN	652	n/a	5	-1	n/a	n/a	n/a	n/a	n/a
3690.066	n/a	RECOG_LURE	1845033	n/a	LTP190	ltpFR	6	4	n/a	IRON	744	0	2	n/a	n/a	n/a	n/a	n/a	n/a
3690.888	n/a	RECOG_RESP	1845444	n/a	LTP190	ltpFR	6	4	n/a	IRON	744	0	n/a	n/a	n/a	n/a	n/a	n/a	n/a
3691.332	n/a	RECOG_CONF	1845666	n/a	LTP190	ltpFR	6	4	n/a	IRON	744	n/a	2	n/a	n/a	n/a	n/a	n/a	n/a
3692.928	n/a	RECOG_TARGET	1846464	n/a	LTP190	ltpFR	6	4	1	WRIST	1626	1	5	1	n/a	n/a	n/a	n/a	n/a
3693.524	n/a	RECOG_RESP	1846762	n/a	LTP190	ltpFR	6	4	1	WRIST	1626	1	n/a	1	n/a	n/a	n/a	n/a	n/a
3694.01	n/a	RECOG_CONF	1847005	n/a	LTP190	ltpFR	6	4	1	WRIST	1626	n/a	5	1	n/a	n/a	n/a	n/a	n/a
3695.538	n/a	RECOG_TARGET	1847769	n/a	LTP190	ltpFR	6	4	0	PARENT	1013	1	5	1	n/a	n/a	n/a	n/a	n/a
3696.358	n/a	RECOG_RESP	1848179	n/a	LTP190	ltpFR	6	4	0	PARENT	1013	1	n/a	1	n/a	n/a	n/a	n/a	n/a
3696.828	n/a	RECOG_CONF	1848414	n/a	LTP190	ltpFR	6	4	0	PARENT	1013	n/a	5	1	n/a	n/a	n/a	n/a	n/a
3698.466	n/a	RECOG_TARGET	1849233	n/a	LTP190	ltpFR	6	4	0	PAINTING	1005	1	5	1	n/a	n/a	n/a	n/a	n/a
3699.336	n/a	RECOG_RESP_VV	1849668	n/a	LTP190	ltpFR	6	4	0	PAINTING	1005	1	n/a	1	n/a	n/a	n/a	n/a	n/a
3700.68	n/a	RECOG_RESP	1850340	n/a	LTP190	ltpFR	6	4	0	PAINTING	1005	1	n/a	1	n/a	n/a	n/a	n/a	n/a
3701.666	n/a	RECOG_CONF	1850833	n/a	LTP190	ltpFR	6	4	0	PAINTING	1005	n/a	5	1	n/a	n/a	n/a	n/a	n/a
3703.424	n/a	RECOG_TARGET	1851712	n/a	LTP190	ltpFR	6	4	0	CAPTAIN	239	1	5	1	n/a	n/a	n/a	n/a	n/a
3704.45	n/a	RECOG_RESP	1852225	n/a	LTP190	ltpFR	6	4	0	CAPTAIN	239	1	n/a	1	n/a	n/a	n/a	n/a	n/a
3705.038	n/a	RECOG_CONF	1852519	n/a	LTP190	ltpFR	6	4	0	CAPTAIN	239	n/a	5	1	n/a	n/a	n/a	n/a	n/a
3706.514	n/a	RECOG_TARGET	1853257	n/a	LTP190	ltpFR	6	4	1	APPLE	33	1	5	1	n/a	n/a	n/a	n/a	n/a
3707.166	n/a	RECOG_RESP	1853583	n/a	LTP190	ltpFR	6	4	1	APPLE	33	1	n/a	1	n/a	n/a	n/a	n/a	n/a
3707.704	n/a	RECOG_CONF	1853852	n/a	LTP190	ltpFR	6	4	1	APPLE	33	n/a	5	1	n/a	n/a	n/a	n/a	n/a
3709.34	n/a	RECOG_LURE	1854670	n/a	LTP190	ltpFR	6	4	n/a	PROTRACTOR	1133	0	4	n/a	n/a	n/a	n/a	n/a	n/a
3710.092	n/a	RECOG_RESP	1855046	n/a	LTP190	ltpFR	6	4	n/a	PROTRACTOR	1133	0	n/a	n/a	n/a	n/a	n/a	n/a	n/a
3710.906	n/a	RECOG_CONF	1855453	n/a	LTP190	ltpFR	6	4	n/a	PROTRACTOR	1133	n/a	4	n/a	n/a	n/a	n/a	n/a	n/a
3712.426	n/a	RECOG_TARGET	1856213	n/a	LTP190	ltpFR	6	4	1	CANYON	235	1	5	0	n/a	n/a	n/a	n/a	n/a
3713.042	n/a	RECOG_RESP	1856521	n/a	LTP190	ltpFR	6	4	1	CANYON	235	1	n/a	0	n/a	n/a	n/a	n/a	n/a
3713.87	n/a	RECOG_CONF	1856935	n/a	LTP190	ltpFR	6	4	1	CANYON	235	n/a	5	0	n/a	n/a	n/a	n/a	n/a
3715.47	n/a	RECOG_LURE	1857735	n/a	LTP190	ltpFR	6	4	n/a	MUMMY	932	0	5	n/a	n/a	n/a	n/a	n/a	n/a
3716.346	n/a	RECOG_RESP	1858173	n/a	LTP190	ltpFR	6	4	n/a	MUMMY	932	0	n/a	n/a	n/a	n/a	n/a	n/a	n/a
3716.862	n/a	RECOG_CONF	1858431	n/a	LTP190	ltpFR	6	4	n/a	MUMMY	932	n/a	5	n/a	n/a	n/a	n/a	n/a	n/a
3727.6	n/a	REC_START	1863800	n/a	LTP190	ltpFR	6	5	n/a	n/a	n/a	n/a	n/a	n/a	n/a	n/a	n/a	n/a	n/a
3727.65	n/a	RECOG_TARGET	1863825	n/a	LTP190	ltpFR	6	5	0	OUTLAW	989	1	5	1	n/a	n/a	n/a	n/a	n/a
3728.478	n/a	RECOG_RESP	1864239	n/a	LTP190	ltpFR	6	5	0	OUTLAW	989	1	n/a	1	n/a	n/a	n/a	n/a	n/a
3728.972	n/a	RECOG_CONF	1864486	n/a	LTP190	ltpFR	6	5	0	OUTLAW	989	n/a	5	1	n/a	n/a	n/a	n/a	n/a
3730.538	n/a	RECOG_LURE	1865269	n/a	LTP190	ltpFR	6	5	n/a	OVAL	990	0	5	n/a	n/a	n/a	n/a	n/a	n/a
3731.196	n/a	RECOG_RESP	1865598	n/a	LTP190	ltpFR	6	5	n/a	OVAL	990	0	n/a	n/a	n/a	n/a	n/a	n/a	n/a
3731.686	n/a	RECOG_CONF	1865843	n/a	LTP190	ltpFR	6	5	n/a	OVAL	990	n/a	5	n/a	n/a	n/a	n/a	n/a	n/a
3733.27	n/a	RECOG_TARGET	1866635	n/a	LTP190	ltpFR	6	5	0	ROUGE	1213	1	5	0	n/a	n/a	n/a	n/a	n/a
3733.958	n/a	RECOG_RESP	1866979	n/a	LTP190	ltpFR	6	5	0	ROUGE	1213	1	n/a	0	n/a	n/a	n/a	n/a	n/a
3734.41	n/a	RECOG_CONF	1867205	n/a	LTP190	ltpFR	6	5	0	ROUGE	1213	n/a	5	0	n/a	n/a	n/a	n/a	n/a
3735.992	n/a	RECOG_TARGET	1867996	n/a	LTP190	ltpFR	6	5	0	SUITE	1404	0	2	1	n/a	n/a	n/a	n/a	n/a
3736.672	n/a	RECOG_RESP	1868336	n/a	LTP190	ltpFR	6	5	0	SUITE	1404	0	n/a	1	n/a	n/a	n/a	n/a	n/a
3737.192	n/a	RECOG_CONF	1868596	n/a	LTP190	ltpFR	6	5	0	SUITE	1404	n/a	2	1	n/a	n/a	n/a	n/a	n/a
3738.804	n/a	RECOG_TARGET	1869402	n/a	LTP190	ltpFR	6	5	0	PICNIC	1060	1	5	1	n/a	n/a	n/a	n/a	n/a
3739.398	n/a	RECOG_RESP	1869699	n/a	LTP190	ltpFR	6	5	0	PICNIC	1060	1	n/a	1	n/a	n/a	n/a	n/a	n/a
3739.868	n/a	RECOG_CONF	1869934	n/a	LTP190	ltpFR	6	5	0	PICNIC	1060	n/a	5	1	n/a	n/a	n/a	n/a	n/a
3741.386	n/a	RECOG_TARGET	1870693	n/a	LTP190	ltpFR	6	5	1	BUSH	202	1	5	1	n/a	n/a	n/a	n/a	n/a
3741.9	n/a	RECOG_RESP	1870950	n/a	LTP190	ltpFR	6	5	1	BUSH	202	1	n/a	1	n/a	n/a	n/a	n/a	n/a
3742.412	n/a	RECOG_CONF	1871206	n/a	LTP190	ltpFR	6	5	1	BUSH	202	n/a	5	1	n/a	n/a	n/a	n/a	n/a
3743.972	n/a	RECOG_LURE	1871986	n/a	LTP190	ltpFR	6	5	n/a	CHAUFFEUR	283	0	2	n/a	n/a	n/a	n/a	n/a	n/a
3744.588	n/a	RECOG_RESP	1872294	n/a	LTP190	ltpFR	6	5	n/a	CHAUFFEUR	283	0	n/a	n/a	n/a	n/a	n/a	n/a	n/a
3745.536	n/a	RECOG_CONF	1872768	n/a	LTP190	ltpFR	6	5	n/a	CHAUFFEUR	283	n/a	2	n/a	n/a	n/a	n/a	n/a	n/a
3747.058	n/a	RECOG_LURE	1873529	n/a	LTP190	ltpFR	6	5	n/a	GOOSE	649	0	4	n/a	n/a	n/a	n/a	n/a	n/a
3747.85	n/a	RECOG_RESP	1873925	n/a	LTP190	ltpFR	6	5	n/a	GOOSE	649	0	n/a	n/a	n/a	n/a	n/a	n/a	n/a
3748.448	n/a	RECOG_CONF	1874224	n/a	LTP190	ltpFR	6	5	n/a	GOOSE	649	n/a	4	n/a	n/a	n/a	n/a	n/a	n/a
3750.08	n/a	RECOG_TARGET	1875040	n/a	LTP190	ltpFR	6	5	-1	DORM	488	1	5	-1	n/a	n/a	n/a	n/a	n/a
3750.626	n/a	RECOG_RESP	1875313	n/a	LTP190	ltpFR	6	5	-1	DORM	488	1	n/a	-1	n/a	n/a	n/a	n/a	n/a
3751.122	n/a	RECOG_CONF	1875561	n/a	LTP190	ltpFR	6	5	-1	DORM	488	n/a	5	-1	n/a	n/a	n/a	n/a	n/a
3752.696	n/a	RECOG_TARGET	1876348	n/a	LTP190	ltpFR	6	5	-1	FARM	552	1	5	-1	n/a	n/a	n/a	n/a	n/a
3753.136	n/a	RECOG_RESP	1876568	n/a	LTP190	ltpFR	6	5	-1	FARM	552	1	n/a	-1	n/a	n/a	n/a	n/a	n/a
3753.628	n/a	RECOG_CONF	1876814	n/a	LTP190	ltpFR	6	5	-1	FARM	552	n/a	5	-1	n/a	n/a	n/a	n/a	n/a
3755.132	n/a	RECOG_TARGET	1877566	n/a	LTP190	ltpFR	6	5	1	FUDGE	611	1	5	0	n/a	n/a	n/a	n/a	n/a
3755.726	n/a	RECOG_RESP	1877863	n/a	LTP190	ltpFR	6	5	1	FUDGE	611	1	n/a	0	n/a	n/a	n/a	n/a	n/a
3756.242	n/a	RECOG_CONF	1878121	n/a	LTP190	ltpFR	6	5	1	FUDGE	611	n/a	5	0	n/a	n/a	n/a	n/a	n/a
3757.76	n/a	RECOG_TARGET	1878880	n/a	LTP190	ltpFR	6	5	0	CHAMBER	277	1	5	1	n/a	n/a	n/a	n/a	n/a
3758.396	n/a	RECOG_RESP	1879198	n/a	LTP190	ltpFR	6	5	0	CHAMBER	277	1	n/a	1	n/a	n/a	n/a	n/a	n/a
3758.956	n/a	RECOG_CONF	1879478	n/a	LTP190	ltpFR	6	5	0	CHAMBER	277	n/a	5	1	n/a	n/a	n/a	n/a	n/a
3760.508	n/a	RECOG_TARGET	1880254	n/a	LTP190	ltpFR	6	5	1	SERGEANT	1269	1	5	1	n/a	n/a	n/a	n/a	n/a
3761.01	n/a	RECOG_RESP	1880505	n/a	LTP190	ltpFR	6	5	1	SERGEANT	1269	1	n/a	1	n/a	n/a	n/a	n/a	n/a
3761.514	n/a	RECOG_CONF	1880757	n/a	LTP190	ltpFR	6	5	1	SERGEANT	1269	n/a	5	1	n/a	n/a	n/a	n/a	n/a
3763.118	n/a	RECOG_TARGET	1881559	n/a	LTP190	ltpFR	6	5	1	DOUGH	489	1	5	0	n/a	n/a	n/a	n/a	n/a
3763.78	n/a	RECOG_RESP	1881890	n/a	LTP190	ltpFR	6	5	1	DOUGH	489	1	n/a	0	n/a	n/a	n/a	n/a	n/a
3764.334	n/a	RECOG_CONF	1882167	n/a	LTP190	ltpFR	6	5	1	DOUGH	489	n/a	5	0	n/a	n/a	n/a	n/a	n/a
3765.824	n/a	RECOG_LURE	1882912	n/a	LTP190	ltpFR	6	5	n/a	SEASHORE	1263	0	2	n/a	n/a	n/a	n/a	n/a	n/a
3766.376	n/a	RECOG_RESP_VV	1883188	n/a	LTP190	ltpFR	6	5	n/a	SEASHORE	1263	1	n/a	n/a	n/a	n/a	n/a	n/a	n/a
3767.174	n/a	RECOG_RESP	1883587	n/a	LTP190	ltpFR	6	5	n/a	SEASHORE	1263	0	n/a	n/a	n/a	n/a	n/a	n/a	n/a
3767.858	n/a	RECOG_CONF	1883929	n/a	LTP190	ltpFR	6	5	n/a	SEASHORE	1263	n/a	2	n/a	n/a	n/a	n/a	n/a	n/a
3769.538	n/a	RECOG_TARGET	1884769	n/a	LTP190	ltpFR	6	5	0	FINGERNAIL	568	1	5	0	n/a	n/a	n/a	n/a	n/a
3770.3	n/a	RECOG_RESP	1885150	n/a	LTP190	ltpFR	6	5	0	FINGERNAIL	568	1	n/a	0	n/a	n/a	n/a	n/a	n/a
3770.828	n/a	RECOG_CONF	1885414	n/a	LTP190	ltpFR	6	5	0	FINGERNAIL	568	n/a	5	0	n/a	n/a	n/a	n/a	n/a
3772.336	n/a	RECOG_LURE	1886168	n/a	LTP190	ltpFR	6	5	n/a	JURY	766	0	5	n/a	n/a	n/a	n/a	n/a	n/a
3773.076	n/a	RECOG_RESP	1886538	n/a	LTP190	ltpFR	6	5	n/a	JURY	766	0	n/a	n/a	n/a	n/a	n/a	n/a	n/a
3773.612	n/a	RECOG_CONF	1886806	n/a	LTP190	ltpFR	6	5	n/a	JURY	766	n/a	5	n/a	n/a	n/a	n/a	n/a	n/a
3775.274	n/a	RECOG_TARGET	1887637	n/a	LTP190	ltpFR	6	5	1	MARINE	869	1	5	1	n/a	n/a	n/a	n/a	n/a
3776.016	n/a	RECOG_RESP	1888008	n/a	LTP190	ltpFR	6	5	1	MARINE	869	1	n/a	1	n/a	n/a	n/a	n/a	n/a
3776.596	n/a	RECOG_CONF	1888298	n/a	LTP190	ltpFR	6	5	1	MARINE	869	n/a	5	1	n/a	n/a	n/a	n/a	n/a
3778.192	n/a	RECOG_TARGET	1889096	n/a	LTP190	ltpFR	6	5	1	BUILDER	190	0	5	0	n/a	n/a	n/a	n/a	n/a
3778.906	n/a	RECOG_RESP	1889453	n/a	LTP190	ltpFR	6	5	1	BUILDER	190	0	n/a	0	n/a	n/a	n/a	n/a	n/a
3779.46	n/a	RECOG_CONF	1889730	n/a	LTP190	ltpFR	6	5	1	BUILDER	190	n/a	5	0	n/a	n/a	n/a	n/a	n/a
3781.114	n/a	RECOG_TARGET	1890557	n/a	LTP190	ltpFR	6	5	1	REPTILE	1185	1	5	1	n/a	n/a	n/a	n/a	n/a
3781.752	n/a	RECOG_RESP	1890876	n/a	LTP190	ltpFR	6	5	1	REPTILE	1185	1	n/a	1	n/a	n/a	n/a	n/a	n/a
3782.264	n/a	RECOG_CONF	1891132	n/a	LTP190	ltpFR	6	5	1	REPTILE	1185	n/a	5	1	n/a	n/a	n/a	n/a	n/a
3785.858	n/a	REC_START	1892929	n/a	LTP190	ltpFR	6	6	n/a	n/a	n/a	n/a	n/a	n/a	n/a	n/a	n/a	n/a	n/a
3785.906	n/a	RECOG_TARGET	1892953	n/a	LTP190	ltpFR	6	6	0	SAGE	1222	1	5	0	n/a	n/a	n/a	n/a	n/a
3786.624	n/a	RECOG_RESP	1893312	n/a	LTP190	ltpFR	6	6	0	SAGE	1222	1	n/a	0	n/a	n/a	n/a	n/a	n/a
3787.15	n/a	RECOG_CONF	1893575	n/a	LTP190	ltpFR	6	6	0	SAGE	1222	n/a	5	0	n/a	n/a	n/a	n/a	n/a
3788.768	n/a	RECOG_TARGET	1894384	n/a	LTP190	ltpFR	6	6	0	CREAM	402	1	5	0	n/a	n/a	n/a	n/a	n/a
3789.438	n/a	RECOG_RESP	1894719	n/a	LTP190	ltpFR	6	6	0	CREAM	402	1	n/a	0	n/a	n/a	n/a	n/a	n/a
3789.904	n/a	RECOG_CONF	1894952	n/a	LTP190	ltpFR	6	6	0	CREAM	402	n/a	5	0	n/a	n/a	n/a	n/a	n/a
3791.512	n/a	RECOG_LURE	1895756	n/a	LTP190	ltpFR	6	6	n/a	ANTENNA	28	0	5	n/a	n/a	n/a	n/a	n/a	n/a
3792.178	n/a	RECOG_RESP	1896089	n/a	LTP190	ltpFR	6	6	n/a	ANTENNA	28	0	n/a	n/a	n/a	n/a	n/a	n/a	n/a
3792.678	n/a	RECOG_CONF	1896339	n/a	LTP190	ltpFR	6	6	n/a	ANTENNA	28	n/a	5	n/a	n/a	n/a	n/a	n/a	n/a
3794.186	n/a	RECOG_TARGET	1897093	n/a	LTP190	ltpFR	6	6	-1	NEWSSTAND	949	1	5	-1	n/a	n/a	n/a	n/a	n/a
3794.884	n/a	RECOG_RESP	1897442	n/a	LTP190	ltpFR	6	6	-1	NEWSSTAND	949	1	n/a	-1	n/a	n/a	n/a	n/a	n/a
3795.392	n/a	RECOG_CONF	1897696	n/a	LTP190	ltpFR	6	6	-1	NEWSSTAND	949	n/a	5	-1	n/a	n/a	n/a	n/a	n/a
3796.998	n/a	RECOG_TARGET	1898499	n/a	LTP190	ltpFR	6	6	1	MAILMAN	858	1	5	1	n/a	n/a	n/a	n/a	n/a
3797.642	n/a	RECOG_RESP	1898821	n/a	LTP190	ltpFR	6	6	1	MAILMAN	858	1	n/a	1	n/a	n/a	n/a	n/a	n/a
3798.156	n/a	RECOG_CONF	1899078	n/a	LTP190	ltpFR	6	6	1	MAILMAN	858	n/a	5	1	n/a	n/a	n/a	n/a	n/a
3799.708	n/a	RECOG_TARGET	1899854	n/a	LTP190	ltpFR	6	6	-1	TAPE	1433	1	5	-1	n/a	n/a	n/a	n/a	n/a
3800.336	n/a	RECOG_RESP	1900168	n/a	LTP190	ltpFR	6	6	-1	TAPE	1433	1	n/a	-1	n/a	n/a	n/a	n/a	n/a
3800.83	n/a	RECOG_CONF	1900415	n/a	LTP190	ltpFR	6	6	-1	TAPE	1433	n/a	5	-1	n/a	n/a	n/a	n/a	n/a
3802.47	n/a	RECOG_TARGET	1901235	n/a	LTP190	ltpFR	6	6	-1	BARK	87	1	5	-1	n/a	n/a	n/a	n/a	n/a
3803.24	n/a	RECOG_RESP	1901620	n/a	LTP190	ltpFR	6	6	-1	BARK	87	1	n/a	-1	n/a	n/a	n/a	n/a	n/a
3803.984	n/a	RECOG_CONF	1901992	n/a	LTP190	ltpFR	6	6	-1	BARK	87	n/a	5	-1	n/a	n/a	n/a	n/a	n/a
3805.766	n/a	RECOG_TARGET	1902883	n/a	LTP190	ltpFR	6	6	0	VICTOR	1563	1	4	1	n/a	n/a	n/a	n/a	n/a
3806.784	n/a	RECOG_RESP	1903392	n/a	LTP190	ltpFR	6	6	0	VICTOR	1563	1	n/a	1	n/a	n/a	n/a	n/a	n/a
3807.366	n/a	RECOG_CONF	1903683	n/a	LTP190	ltpFR	6	6	0	VICTOR	1563	n/a	4	1	n/a	n/a	n/a	n/a	n/a
3809.01	n/a	RECOG_LURE	1904505	n/a	LTP190	ltpFR	6	6	n/a	LASH	802	1	2	n/a	n/a	n/a	n/a	n/a	n/a
3809.948	n/a	RECOG_RESP	1904974	n/a	LTP190	ltpFR	6	6	n/a	LASH	802	1	n/a	n/a	n/a	n/a	n/a	n/a	n/a
3810.418	n/a	RECOG_CONF	1905209	n/a	LTP190	ltpFR	6	6	n/a	LASH	802	n/a	2	n/a	n/a	n/a	n/a	n/a	n/a
3811.954	n/a	RECOG_TARGET	1905977	n/a	LTP190	ltpFR	6	6	0	CLARINET	317	1	5	0	n/a	n/a	n/a	n/a	n/a
3812.73	n/a	RECOG_RESP	1906365	n/a	LTP190	ltpFR	6	6	0	CLARINET	317	1	n/a	0	n/a	n/a	n/a	n/a	n/a
3813.172	n/a	RECOG_CONF	1906586	n/a	LTP190	ltpFR	6	6	0	CLARINET	317	n/a	5	0	n/a	n/a	n/a	n/a	n/a
3814.876	n/a	RECOG_TARGET	1907438	n/a	LTP190	ltpFR	6	6	0	GUM	672	1	5	1	n/a	n/a	n/a	n/a	n/a
3815.464	n/a	RECOG_RESP	1907732	n/a	LTP190	ltpFR	6	6	0	GUM	672	1	n/a	1	n/a	n/a	n/a	n/a	n/a
3815.986	n/a	RECOG_CONF	1907993	n/a	LTP190	ltpFR	6	6	0	GUM	672	n/a	5	1	n/a	n/a	n/a	n/a	n/a
3817.57	n/a	RECOG_TARGET	1908785	n/a	LTP190	ltpFR	6	6	1	COLONEL	348	1	5	0	n/a	n/a	n/a	n/a	n/a
3818.334	n/a	RECOG_RESP	1909167	n/a	LTP190	ltpFR	6	6	1	COLONEL	348	1	n/a	0	n/a	n/a	n/a	n/a	n/a
3818.79	n/a	RECOG_CONF	1909395	n/a	LTP190	ltpFR	6	6	1	COLONEL	348	n/a	5	0	n/a	n/a	n/a	n/a	n/a
3820.406	n/a	RECOG_TARGET	1910203	n/a	LTP190	ltpFR	6	6	1	OATS	968	1	5	n/a	n/a	n/a	n/a	n/a	n/a
3821.028	n/a	RECOG_RESP	1910514	n/a	LTP190	ltpFR	6	6	1	OATS	968	1	n/a	n/a	n/a	n/a	n/a	n/a	n/a
3821.494	n/a	RECOG_CONF	1910747	n/a	LTP190	ltpFR	6	6	1	OATS	968	n/a	5	n/a	n/a	n/a	n/a	n/a	n/a
3823.03	n/a	RECOG_TARGET	1911515	n/a	LTP190	ltpFR	6	6	1	SUBURB	1399	1	5	0	n/a	n/a	n/a	n/a	n/a
3823.688	n/a	RECOG_RESP	1911844	n/a	LTP190	ltpFR	6	6	1	SUBURB	1399	1	n/a	0	n/a	n/a	n/a	n/a	n/a
3824.168	n/a	RECOG_CONF	1912084	n/a	LTP190	ltpFR	6	6	1	SUBURB	1399	n/a	5	0	n/a	n/a	n/a	n/a	n/a
3825.802	n/a	RECOG_TARGET	1912901	n/a	LTP190	ltpFR	6	6	-1	BANDIT	81	1	2	-1	n/a	n/a	n/a	n/a	n/a
3826.512	n/a	RECOG_RESP	1913256	n/a	LTP190	ltpFR	6	6	-1	BANDIT	81	1	n/a	-1	n/a	n/a	n/a	n/a	n/a
3827.054	n/a	RECOG_CONF	1913527	n/a	LTP190	ltpFR	6	6	-1	BANDIT	81	n/a	2	-1	n/a	n/a	n/a	n/a	n/a
3828.72	n/a	RECOG_TARGET	1914360	n/a	LTP190	ltpFR	6	6	1	BLOSSOM	138	1	5	1	n/a	n/a	n/a	n/a	n/a
3829.358	n/a	RECOG_RESP	1914679	n/a	LTP190	ltpFR	6	6	1	BLOSSOM	138	1	n/a	1	n/a	n/a	n/a	n/a	n/a
3829.826	n/a	RECOG_CONF	1914913	n/a	LTP190	ltpFR	6	6	1	BLOSSOM	138	n/a	5	1	n/a	n/a	n/a	n/a	n/a
3831.464	n/a	RECOG_TARGET	1915732	n/a	LTP190	ltpFR	6	6	0	HOOD	714	1	5	1	n/a	n/a	n/a	n/a	n/a
3832.072	n/a	RECOG_RESP	1916036	n/a	LTP190	ltpFR	6	6	0	HOOD	714	1	n/a	1	n/a	n/a	n/a	n/a	n/a
3832.59	n/a	RECOG_CONF	1916295	n/a	LTP190	ltpFR	6	6	0	HOOD	714	n/a	5	1	n/a	n/a	n/a	n/a	n/a
3834.172	n/a	RECOG_LURE	1917086	n/a	LTP190	ltpFR	6	6	n/a	CARTON	251	0	5	n/a	n/a	n/a	n/a	n/a	n/a
3835.078	n/a	RECOG_RESP	1917539	n/a	LTP190	ltpFR	6	6	n/a	CARTON	251	0	n/a	n/a	n/a	n/a	n/a	n/a	n/a
3835.592	n/a	RECOG_CONF	1917796	n/a	LTP190	ltpFR	6	6	n/a	CARTON	251	n/a	5	n/a	n/a	n/a	n/a	n/a	n/a
3837.178	n/a	RECOG_LURE	1918589	n/a	LTP190	ltpFR	6	6	n/a	VITAMIN	1574	0	2	n/a	n/a	n/a	n/a	n/a	n/a
3838.032	n/a	RECOG_RESP	1919016	n/a	LTP190	ltpFR	6	6	n/a	VITAMIN	1574	0	n/a	n/a	n/a	n/a	n/a	n/a	n/a
3838.512	n/a	RECOG_CONF	1919256	n/a	LTP190	ltpFR	6	6	n/a	VITAMIN	1574	n/a	2	n/a	n/a	n/a	n/a	n/a	n/a
3840.124	n/a	RECOG_LURE	1920062	n/a	LTP190	ltpFR	6	6	n/a	CRAB	397	0	4	n/a	n/a	n/a	n/a	n/a	n/a
3840.88	n/a	RECOG_RESP	1920440	n/a	LTP190	ltpFR	6	6	n/a	CRAB	397	0	n/a	n/a	n/a	n/a	n/a	n/a	n/a
3841.36	n/a	RECOG_CONF	1920680	n/a	LTP190	ltpFR	6	6	n/a	CRAB	397	n/a	4	n/a	n/a	n/a	n/a	n/a	n/a
3844.966	n/a	REC_START	1922483	n/a	LTP190	ltpFR	6	7	n/a	n/a	n/a	n/a	n/a	n/a	n/a	n/a	n/a	n/a	n/a
3845.014	n/a	RECOG_TARGET	1922507	n/a	LTP190	ltpFR	6	7	-1	ELF	525	0	2	-1	n/a	n/a	n/a	n/a	n/a
3846.178	n/a	RECOG_RESP	1923089	n/a	LTP190	ltpFR	6	7	-1	ELF	525	0	n/a	-1	n/a	n/a	n/a	n/a	n/a
3846.62	n/a	RECOG_CONF	1923310	n/a	LTP190	ltpFR	6	7	-1	ELF	525	n/a	2	-1	n/a	n/a	n/a	n/a	n/a
3848.176	n/a	RECOG_TARGET	1924088	n/a	LTP190	ltpFR	6	7	0	TIDE	1465	1	5	1	n/a	n/a	n/a	n/a	n/a
3848.802	n/a	RECOG_RESP	1924401	n/a	LTP190	ltpFR	6	7	0	TIDE	1465	1	n/a	1	n/a	n/a	n/a	n/a	n/a
3849.222	n/a	RECOG_CONF	1924611	n/a	LTP190	ltpFR	6	7	0	TIDE	1465	n/a	5	1	n/a	n/a	n/a	n/a	n/a
3851.842	n/a	RECOG_TARGET	1925921	n/a	LTP190	ltpFR	6	7	1	HARP	689	1	5	0	n/a	n/a	n/a	n/a	n/a
3852.888	n/a	RECOG_RESP	1926444	n/a	LTP190	ltpFR	6	7	1	HARP	689	1	n/a	0	n/a	n/a	n/a	n/a	n/a
3853.342	n/a	RECOG_CONF	1926671	n/a	LTP190	ltpFR	6	7	1	HARP	689	n/a	5	0	n/a	n/a	n/a	n/a	n/a
3855.002	n/a	RECOG_TARGET	1927501	n/a	LTP190	ltpFR	6	7	1	ANCHOR	21	1	5	0	n/a	n/a	n/a	n/a	n/a
3855.682	n/a	RECOG_RESP	1927841	n/a	LTP190	ltpFR	6	7	1	ANCHOR	21	1	n/a	0	n/a	n/a	n/a	n/a	n/a
3856.116	n/a	RECOG_CONF	1928058	n/a	LTP190	ltpFR	6	7	1	ANCHOR	21	n/a	5	0	n/a	n/a	n/a	n/a	n/a
3857.782	n/a	RECOG_TARGET	1928891	n/a	LTP190	ltpFR	6	7	-1	COLT	349	1	5	-1	n/a	n/a	n/a	n/a	n/a
3858.472	n/a	RECOG_RESP	1929236	n/a	LTP190	ltpFR	6	7	-1	COLT	349	1	n/a	-1	n/a	n/a	n/a	n/a	n/a
3858.94	n/a	RECOG_CONF	1929470	n/a	LTP190	ltpFR	6	7	-1	COLT	349	n/a	5	-1	n/a	n/a	n/a	n/a	n/a
3860.652	n/a	RECOG_TARGET	1930326	n/a	LTP190	ltpFR	6	7	0	CHOCOLATE	306	1	5	1	n/a	n/a	n/a	n/a	n/a
3861.348	n/a	RECOG_RESP	1930674	n/a	LTP190	ltpFR	6	7	0	CHOCOLATE	306	1	n/a	1	n/a	n/a	n/a	n/a	n/a
3861.824	n/a	RECOG_CONF	1930912	n/a	LTP190	ltpFR	6	7	0	CHOCOLATE	306	n/a	5	1	n/a	n/a	n/a	n/a	n/a
3863.352	n/a	RECOG_LURE	1931676	n/a	LTP190	ltpFR	6	7	n/a	SUNRISE	1407	0	2	n/a	n/a	n/a	n/a	n/a	n/a
3864.232	n/a	RECOG_RESP	1932116	n/a	LTP190	ltpFR	6	7	n/a	SUNRISE	1407	0	n/a	n/a	n/a	n/a	n/a	n/a	n/a
3864.618	n/a	RECOG_CONF	1932309	n/a	LTP190	ltpFR	6	7	n/a	SUNRISE	1407	n/a	2	n/a	n/a	n/a	n/a	n/a	n/a
3866.362	n/a	RECOG_TARGET	1933181	n/a	LTP190	ltpFR	6	7	-1	FRIAR	605	1	5	-1	n/a	n/a	n/a	n/a	n/a
3867.004	n/a	RECOG_RESP	1933502	n/a	LTP190	ltpFR	6	7	-1	FRIAR	605	1	n/a	-1	n/a	n/a	n/a	n/a	n/a
3867.452	n/a	RECOG_CONF	1933726	n/a	LTP190	ltpFR	6	7	-1	FRIAR	605	n/a	5	-1	n/a	n/a	n/a	n/a	n/a
3869.006	n/a	RECOG_TARGET	1934503	n/a	LTP190	ltpFR	6	7	-1	ICE	730	0	2	-1	n/a	n/a	n/a	n/a	n/a
3869.682	n/a	RECOG_RESP	1934841	n/a	LTP190	ltpFR	6	7	-1	ICE	730	0	n/a	-1	n/a	n/a	n/a	n/a	n/a
3870.16	n/a	RECOG_CONF	1935080	n/a	LTP190	ltpFR	6	7	-1	ICE	730	n/a	2	-1	n/a	n/a	n/a	n/a	n/a
3871.65	n/a	RECOG_TARGET	1935825	n/a	LTP190	ltpFR	6	7	-1	SLEEVE	1324	1	5	-1	n/a	n/a	n/a	n/a	n/a
3872.424	n/a	RECOG_RESP	1936212	n/a	LTP190	ltpFR	6	7	-1	SLEEVE	1324	1	n/a	-1	n/a	n/a	n/a	n/a	n/a
3872.898	n/a	RECOG_CONF	1936449	n/a	LTP190	ltpFR	6	7	-1	SLEEVE	1324	n/a	5	-1	n/a	n/a	n/a	n/a	n/a
3874.354	n/a	RECOG_TARGET	1937177	n/a	LTP190	ltpFR	6	7	0	CHIP	303	1	5	0	n/a	n/a	n/a	n/a	n/a
3874.97	n/a	RECOG_RESP	1937485	n/a	LTP190	ltpFR	6	7	0	CHIP	303	1	n/a	0	n/a	n/a	n/a	n/a	n/a
3875.502	n/a	RECOG_CONF	1937751	n/a	LTP190	ltpFR	6	7	0	CHIP	303	n/a	5	0	n/a	n/a	n/a	n/a	n/a
3877.272	n/a	RECOG_LURE	1938636	n/a	LTP190	ltpFR	6	7	n/a	INMATE	738	1	4	n/a	n/a	n/a	n/a	n/a	n/a
3878.03	n/a	RECOG_RESP	1939015	n/a	LTP190	ltpFR	6	7	n/a	INMATE	738	1	n/a	n/a	n/a	n/a	n/a	n/a	n/a
3878.606	n/a	RECOG_CONF	1939303	n/a	LTP190	ltpFR	6	7	n/a	INMATE	738	n/a	4	n/a	n/a	n/a	n/a	n/a	n/a
