mstime	trial_type	stim_file	subject	experiment	session	trial	task	item_name	item_num	recog_conf	resp	color_b	color_g	color_r	case	font
0	SESS_START	n/a	LTP066	ltpFR	15	n/a	n/a	n/a	n/a	4	n/a	n/a	n/a	n/a	n/a	n/a
96481	WORD	wordpools/wasnorm_wordpool.txt	LTP066	ltpFR	15	1	0	VOLUNTEER	1577	n/a	1	0	0.5869140625	0.422607421875	lower	../fonts/zerothre.ttf
100526	WORD	wordpools/wasnorm_wordpool.txt	LTP066	ltpFR	15	1	0	CANOE	233	n/a	1	0	0.5869140625	0.422607421875	lower	../fonts/zerothre.ttf
104563	WORD	wordpools/wasnorm_wordpool.txt	LTP066	ltpFR	15	1	1	COSTUME	383	n/a	0	1	0.412841796875	0.57763671875	upper	../fonts/amplitud.ttf
108600	WORD	wordpools/wasnorm_wordpool.txt	LTP066	ltpFR	15	1	1	LINT	826	n/a	0	1	0.412841796875	0.57763671875	upper	../fonts/amplitud.ttf
112761	WORD	wordpools/wasnorm_wordpool.txt	LTP066	ltpFR	15	1	1	CHIPMUNK	304	n/a	1	1	0.412841796875	0.57763671875	upper	../fonts/amplitud.ttf
116866	WORD	wordpools/wasnorm_wordpool.txt	LTP066	ltpFR	15	1	1	FRUIT	610	n/a	1	1	0.412841796875	0.57763671875	upper	../fonts/amplitud.ttf
120744	WORD	wordpools/wasnorm_wordpool.txt	LTP066	ltpFR	15	1	0	PATRIOT	1026	n/a	1	0	0.5869140625	0.422607421875	lower	../fonts/zerothre.ttf
124931	WORD	wordpools/wasnorm_wordpool.txt	LTP066	ltpFR	15	1	0	PAINTING	1005	n/a	1	0	0.5869140625	0.422607421875	lower	../fonts/zerothre.ttf
128784	WORD	wordpools/wasnorm_wordpool.txt	LTP066	ltpFR	15	1	0	PILOT	1070	n/a	1	0	0.5869140625	0.422607421875	lower	../fonts/zerothre.ttf
132864	WORD	wordpools/wasnorm_wordpool.txt	LTP066	ltpFR	15	1	0	AIRCRAFT	11	n/a	1	0	0.5869140625	0.422607421875	lower	../fonts/zerothre.ttf
136925	WORD	wordpools/wasnorm_wordpool.txt	LTP066	ltpFR	15	1	1	CARROT	249	n/a	1	1	0.412841796875	0.57763671875	upper	../fonts/amplitud.ttf
141021	WORD	wordpools/wasnorm_wordpool.txt	LTP066	ltpFR	15	1	1	SHORTCAKE	1292	n/a	0	1	0.412841796875	0.57763671875	upper	../fonts/amplitud.ttf
145182	WORD	wordpools/wasnorm_wordpool.txt	LTP066	ltpFR	15	1	1	LIZARD	834	n/a	1	1	0.412841796875	0.57763671875	upper	../fonts/amplitud.ttf
149394	WORD	wordpools/wasnorm_wordpool.txt	LTP066	ltpFR	15	1	1	CANVAS	234	n/a	0	1	0.412841796875	0.57763671875	upper	../fonts/amplitud.ttf
153498	WORD	wordpools/wasnorm_wordpool.txt	LTP066	ltpFR	15	1	0	KNAPSACK	783	n/a	1	0	0.5869140625	0.422607421875	lower	../fonts/zerothre.ttf
157543	WORD	wordpools/wasnorm_wordpool.txt	LTP066	ltpFR	15	1	0	PURSE	1145	n/a	0	0	0.5869140625	0.422607421875	lower	../fonts/zerothre.ttf
163112	REC_START	n/a	LTP066	ltpFR	15	1	n/a	n/a	n/a	n/a	n/a	n/a	n/a	n/a	n/a	n/a
165103	REC_WORD	wordpools/wasnorm_wordpool.txt	LTP066	ltpFR	15	1	0	CANOE	233	n/a	1	n/a	n/a	n/a	n/a	n/a
167901	REC_WORD	wordpools/wasnorm_wordpool.txt	LTP066	ltpFR	15	1	0	KNAPSACK	783	n/a	1	n/a	n/a	n/a	n/a	n/a
173019	REC_WORD	wordpools/wasnorm_wordpool.txt	LTP066	ltpFR	15	1	n/a	MONKEY	911	n/a	n/a	n/a	n/a	n/a	n/a	n/a
176636	REC_WORD	wordpools/wasnorm_wordpool.txt	LTP066	ltpFR	15	1	1	FRUIT	610	n/a	1	n/a	n/a	n/a	n/a	n/a
180697	REC_WORD	wordpools/wasnorm_wordpool.txt	LTP066	ltpFR	15	1	0	AIRCRAFT	11	n/a	1	n/a	n/a	n/a	n/a	n/a
217264	REC_WORD	wordpools/wasnorm_wordpool.txt	LTP066	ltpFR	15	1	1	COSTUME	383	n/a	0	n/a	n/a	n/a	n/a	n/a
219613	REC_WORD	wordpools/wasnorm_wordpool.txt	LTP066	ltpFR	15	1	1	LINT	826	n/a	0	n/a	n/a	n/a	n/a	n/a
225824	REC_WORD	wordpools/wasnorm_wordpool.txt	LTP066	ltpFR	15	1	1	CARROT	249	n/a	1	n/a	n/a	n/a	n/a	n/a
237548	REC_WORD	wordpools/wasnorm_wordpool.txt	LTP066	ltpFR	15	1	0	PILOT	1070	n/a	1	n/a	n/a	n/a	n/a	n/a
241620	WORD	wordpools/wasnorm_wordpool.txt	LTP066	ltpFR	15	2	1	FOUNTAIN	597	n/a	0	1	0.412841796875	0.57763671875	upper	../fonts/amplitud.ttf
245532	WORD	wordpools/wasnorm_wordpool.txt	LTP066	ltpFR	15	2	1	PUPIL	1143	n/a	1	1	0.412841796875	0.57763671875	upper	../fonts/amplitud.ttf
249477	WORD	wordpools/wasnorm_wordpool.txt	LTP066	ltpFR	15	2	1	TEA	1439	n/a	0	1	0.412841796875	0.57763671875	upper	../fonts/amplitud.ttf
253356	WORD	wordpools/wasnorm_wordpool.txt	LTP066	ltpFR	15	2	1	MAN	862	n/a	1	1	0.412841796875	0.57763671875	upper	../fonts/amplitud.ttf
257476	WORD	wordpools/wasnorm_wordpool.txt	LTP066	ltpFR	15	2	1	NOMAD	955	n/a	1	1	0.412841796875	0.57763671875	upper	../fonts/amplitud.ttf
261397	WORD	wordpools/wasnorm_wordpool.txt	LTP066	ltpFR	15	2	0	COFFEE	341	n/a	0	0	0.5869140625	0.422607421875	lower	../fonts/zerothre.ttf
265517	WORD	wordpools/wasnorm_wordpool.txt	LTP066	ltpFR	15	2	0	DIAMOND	458	n/a	0	0	0.5869140625	0.422607421875	lower	../fonts/zerothre.ttf
269637	WORD	wordpools/wasnorm_wordpool.txt	LTP066	ltpFR	15	2	0	KIDNEY	776	n/a	1	0	0.5869140625	0.422607421875	lower	../fonts/zerothre.ttf
273757	WORD	wordpools/wasnorm_wordpool.txt	LTP066	ltpFR	15	2	0	PALACE	1006	n/a	1	0	0.5869140625	0.422607421875	lower	../fonts/zerothre.ttf
277628	WORD	wordpools/wasnorm_wordpool.txt	LTP066	ltpFR	15	2	0	THRONE	1461	n/a	1	0	0.5869140625	0.422607421875	lower	../fonts/zerothre.ttf
281814	WORD	wordpools/wasnorm_wordpool.txt	LTP066	ltpFR	15	2	1	SERGEANT	1269	n/a	1	1	0.412841796875	0.57763671875	upper	../fonts/amplitud.ttf
285643	WORD	wordpools/wasnorm_wordpool.txt	LTP066	ltpFR	15	2	1	MINT	898	n/a	0	1	0.412841796875	0.57763671875	upper	../fonts/amplitud.ttf
289555	WORD	wordpools/wasnorm_wordpool.txt	LTP066	ltpFR	15	2	1	ASSISTANT	48	n/a	1	1	0.412841796875	0.57763671875	upper	../fonts/amplitud.ttf
293493	WORD	wordpools/wasnorm_wordpool.txt	LTP066	ltpFR	15	2	0	FOSSIL	596	n/a	1	0	0.5869140625	0.422607421875	lower	../fonts/zerothre.ttf
297321	WORD	wordpools/wasnorm_wordpool.txt	LTP066	ltpFR	15	2	0	OBOE	969	n/a	1	0	0.5869140625	0.422607421875	lower	../fonts/zerothre.ttf
301292	WORD	wordpools/wasnorm_wordpool.txt	LTP066	ltpFR	15	2	0	COOKIE	374	n/a	0	0	0.5869140625	0.422607421875	lower	../fonts/zerothre.ttf
307002	REC_START	n/a	LTP066	ltpFR	15	2	n/a	n/a	n/a	n/a	n/a	n/a	n/a	n/a	n/a	n/a
308530	REC_WORD	wordpools/wasnorm_wordpool.txt	LTP066	ltpFR	15	2	0	OBOE	969	n/a	1	n/a	n/a	n/a	n/a	n/a
309741	REC_WORD	wordpools/wasnorm_wordpool.txt	LTP066	ltpFR	15	2	0	COOKIE	374	n/a	0	n/a	n/a	n/a	n/a	n/a
326004	REC_WORD	wordpools/wasnorm_wordpool.txt	LTP066	ltpFR	15	2	0	KIDNEY	776	n/a	1	n/a	n/a	n/a	n/a	n/a
360530	REC_WORD	wordpools/wasnorm_wordpool.txt	LTP066	ltpFR	15	2	0	PALACE	1006	n/a	1	n/a	n/a	n/a	n/a	n/a
361277	REC_WORD	wordpools/wasnorm_wordpool.txt	LTP066	ltpFR	15	2	0	THRONE	1461	n/a	1	n/a	n/a	n/a	n/a	n/a
386118	WORD	wordpools/wasnorm_wordpool.txt	LTP066	ltpFR	15	3	1	NAVIGATOR	938	n/a	1	1	0.412841796875	0.57763671875	upper	../fonts/amplitud.ttf
389938	WORD	wordpools/wasnorm_wordpool.txt	LTP066	ltpFR	15	3	1	QUAIL	1147	n/a	1	1	0.412841796875	0.57763671875	upper	../fonts/amplitud.ttf
393958	WORD	wordpools/wasnorm_wordpool.txt	LTP066	ltpFR	15	3	1	SEAGULL	1261	n/a	1	1	0.412841796875	0.57763671875	upper	../fonts/amplitud.ttf
397804	WORD	wordpools/wasnorm_wordpool.txt	LTP066	ltpFR	15	3	0	PAIL	1002	n/a	1	0	0.5869140625	0.422607421875	lower	../fonts/zerothre.ttf
401683	WORD	wordpools/wasnorm_wordpool.txt	LTP066	ltpFR	15	3	0	COLOGNE	347	n/a	0	0	0.5869140625	0.422607421875	lower	../fonts/zerothre.ttf
405769	WORD	wordpools/wasnorm_wordpool.txt	LTP066	ltpFR	15	3	0	LAGOON	795	n/a	1	0	0.5869140625	0.422607421875	lower	../fonts/zerothre.ttf
409748	WORD	wordpools/wasnorm_wordpool.txt	LTP066	ltpFR	15	3	1	TEAM	1441	n/a	1	1	0.412841796875	0.57763671875	upper	../fonts/amplitud.ttf
413844	WORD	wordpools/wasnorm_wordpool.txt	LTP066	ltpFR	15	3	1	VOLLEYBALL	1576	n/a	0	1	0.412841796875	0.57763671875	upper	../fonts/amplitud.ttf
418047	WORD	wordpools/wasnorm_wordpool.txt	LTP066	ltpFR	15	3	1	KLEENEX	782	n/a	0	1	0.412841796875	0.57763671875	upper	../fonts/amplitud.ttf
421984	WORD	wordpools/wasnorm_wordpool.txt	LTP066	ltpFR	15	3	0	BUTTON	207	n/a	0	0	0.5869140625	0.422607421875	lower	../fonts/zerothre.ttf
426013	WORD	wordpools/wasnorm_wordpool.txt	LTP066	ltpFR	15	3	0	MERMAID	887	n/a	1	0	0.5869140625	0.422607421875	lower	../fonts/zerothre.ttf
430008	WORD	wordpools/wasnorm_wordpool.txt	LTP066	ltpFR	15	3	0	BOAT	144	n/a	1	0	0.5869140625	0.422607421875	lower	../fonts/zerothre.ttf
434045	WORD	wordpools/wasnorm_wordpool.txt	LTP066	ltpFR	15	3	0	TREAD	1499	n/a	1	0	0.5869140625	0.422607421875	lower	../fonts/zerothre.ttf
438049	WORD	wordpools/wasnorm_wordpool.txt	LTP066	ltpFR	15	3	0	BARTENDER	92	n/a	1	0	0.5869140625	0.422607421875	lower	../fonts/zerothre.ttf
441952	WORD	wordpools/wasnorm_wordpool.txt	LTP066	ltpFR	15	3	1	COBBLER	335	n/a	0	1	0.412841796875	0.57763671875	upper	../fonts/amplitud.ttf
445840	WORD	wordpools/wasnorm_wordpool.txt	LTP066	ltpFR	15	3	1	GRAPE	654	n/a	0	1	0.412841796875	0.57763671875	upper	../fonts/amplitud.ttf
451833	REC_START	n/a	LTP066	ltpFR	15	3	n/a	n/a	n/a	n/a	n/a	n/a	n/a	n/a	n/a	n/a
453158	REC_WORD	wordpools/wasnorm_wordpool.txt	LTP066	ltpFR	15	3	1	GRAPE	654	n/a	0	n/a	n/a	n/a	n/a	n/a
457046	REC_WORD	wordpools/wasnorm_wordpool.txt	LTP066	ltpFR	15	3	1	KLEENEX	782	n/a	0	n/a	n/a	n/a	n/a	n/a
459864	REC_WORD	wordpools/wasnorm_wordpool.txt	LTP066	ltpFR	15	3	1	NAVIGATOR	938	n/a	1	n/a	n/a	n/a	n/a	n/a
461735	REC_WORD	wordpools/wasnorm_wordpool.txt	LTP066	ltpFR	15	3	0	PAIL	1002	n/a	1	n/a	n/a	n/a	n/a	n/a
466619	REC_WORD	wordpools/wasnorm_wordpool.txt	LTP066	ltpFR	15	3	n/a	COMPASS	358	n/a	n/a	n/a	n/a	n/a	n/a	n/a
473279	REC_WORD	wordpools/wasnorm_wordpool.txt	LTP066	ltpFR	15	3	1	QUAIL	1147	n/a	1	n/a	n/a	n/a	n/a	n/a
531348	WORD	wordpools/wasnorm_wordpool.txt	LTP066	ltpFR	15	4	-1	FRIES	607	n/a	-1	1	1.0	1.0	upper	../fonts/Verdana.ttf
535410	WORD	wordpools/wasnorm_wordpool.txt	LTP066	ltpFR	15	4	-1	BEAN	105	n/a	-1	1	1.0	1.0	upper	../fonts/Verdana.ttf
539314	WORD	wordpools/wasnorm_wordpool.txt	LTP066	ltpFR	15	4	-1	NEPHEW	942	n/a	-1	1	1.0	1.0	upper	../fonts/Verdana.ttf
543500	WORD	wordpools/wasnorm_wordpool.txt	LTP066	ltpFR	15	4	-1	COUSIN	392	n/a	-1	1	1.0	1.0	upper	../fonts/Verdana.ttf
547388	WORD	wordpools/wasnorm_wordpool.txt	LTP066	ltpFR	15	4	-1	INFANT	737	n/a	-1	1	1.0	1.0	upper	../fonts/Verdana.ttf
551400	WORD	wordpools/wasnorm_wordpool.txt	LTP066	ltpFR	15	4	-1	DETECTIVE	454	n/a	-1	1	1.0	1.0	upper	../fonts/Verdana.ttf
555395	WORD	wordpools/wasnorm_wordpool.txt	LTP066	ltpFR	15	4	-1	SOCK	1339	n/a	-1	1	1.0	1.0	upper	../fonts/Verdana.ttf
559407	WORD	wordpools/wasnorm_wordpool.txt	LTP066	ltpFR	15	4	-1	FOOT	590	n/a	-1	1	1.0	1.0	upper	../fonts/Verdana.ttf
563594	WORD	wordpools/wasnorm_wordpool.txt	LTP066	ltpFR	15	4	-1	POCKETBOOK	1094	n/a	-1	1	1.0	1.0	upper	../fonts/Verdana.ttf
567796	WORD	wordpools/wasnorm_wordpool.txt	LTP066	ltpFR	15	4	-1	STEWARDESS	1381	n/a	-1	1	1.0	1.0	upper	../fonts/Verdana.ttf
571717	WORD	wordpools/wasnorm_wordpool.txt	LTP066	ltpFR	15	4	-1	SCREWDRIVER	1255	n/a	-1	1	1.0	1.0	upper	../fonts/Verdana.ttf
575904	WORD	wordpools/wasnorm_wordpool.txt	LTP066	ltpFR	15	4	-1	ZUCCHINI	1638	n/a	-1	1	1.0	1.0	upper	../fonts/Verdana.ttf
580066	WORD	wordpools/wasnorm_wordpool.txt	LTP066	ltpFR	15	4	-1	DIAPER	459	n/a	-1	1	1.0	1.0	upper	../fonts/Verdana.ttf
584136	WORD	wordpools/wasnorm_wordpool.txt	LTP066	ltpFR	15	4	-1	BUCKET	184	n/a	-1	1	1.0	1.0	upper	../fonts/Verdana.ttf
587990	WORD	wordpools/wasnorm_wordpool.txt	LTP066	ltpFR	15	4	-1	CORPORATION	382	n/a	-1	1	1.0	1.0	upper	../fonts/Verdana.ttf
591836	WORD	wordpools/wasnorm_wordpool.txt	LTP066	ltpFR	15	4	-1	MUSHROOM	934	n/a	-1	1	1.0	1.0	upper	../fonts/Verdana.ttf
597663	REC_START	n/a	LTP066	ltpFR	15	4	n/a	n/a	n/a	n/a	n/a	n/a	n/a	n/a	n/a	n/a
600516	REC_WORD	wordpools/wasnorm_wordpool.txt	LTP066	ltpFR	15	4	-1	FRIES	607	n/a	-1	n/a	n/a	n/a	n/a	n/a
604991	REC_WORD	wordpools/wasnorm_wordpool.txt	LTP066	ltpFR	15	4	-1	SCREWDRIVER	1255	n/a	-1	n/a	n/a	n/a	n/a	n/a
608717	REC_WORD	wordpools/wasnorm_wordpool.txt	LTP066	ltpFR	15	4	n/a	NOTEBOOK	959	n/a	n/a	n/a	n/a	n/a	n/a	n/a
611052	REC_WORD	wordpools/wasnorm_wordpool.txt	LTP066	ltpFR	15	4	-1	STEWARDESS	1381	n/a	-1	n/a	n/a	n/a	n/a	n/a
614689	REC_WORD	wordpools/wasnorm_wordpool.txt	LTP066	ltpFR	15	4	-1	BEAN	105	n/a	-1	n/a	n/a	n/a	n/a	n/a
616265	REC_WORD	wordpools/wasnorm_wordpool.txt	LTP066	ltpFR	15	4	-1	COUSIN	392	n/a	-1	n/a	n/a	n/a	n/a	n/a
618251	REC_WORD	wordpools/wasnorm_wordpool.txt	LTP066	ltpFR	15	4	-1	INFANT	737	n/a	-1	n/a	n/a	n/a	n/a	n/a
619513	REC_WORD	wordpools/wasnorm_wordpool.txt	LTP066	ltpFR	15	4	-1	NEPHEW	942	n/a	-1	n/a	n/a	n/a	n/a	n/a
635352	REC_WORD	wordpools/wasnorm_wordpool.txt	LTP066	ltpFR	15	4	-1	CORPORATION	382	n/a	-1	n/a	n/a	n/a	n/a	n/a
677660	WORD	wordpools/wasnorm_wordpool.txt	LTP066	ltpFR	15	5	0	TAR	1435	n/a	1	0	0.5869140625	0.422607421875	lower	../fonts/zerothre.ttf
681763	WORD	wordpools/wasnorm_wordpool.txt	LTP066	ltpFR	15	5	0	OMELET	976	n/a	1	0	0.5869140625	0.422607421875	lower	../fonts/zerothre.ttf
685618	WORD	wordpools/wasnorm_wordpool.txt	LTP066	ltpFR	15	5	0	GRASSHOPPER	656	n/a	0	0	0.5869140625	0.422607421875	lower	../fonts/zerothre.ttf
689546	WORD	wordpools/wasnorm_wordpool.txt	LTP066	ltpFR	15	5	0	BOTTLE	153	n/a	0	0	0.5869140625	0.422607421875	lower	../fonts/zerothre.ttf
693742	WORD	wordpools/wasnorm_wordpool.txt	LTP066	ltpFR	15	5	0	LOUNGE	845	n/a	1	0	0.5869140625	0.422607421875	lower	../fonts/zerothre.ttf
697870	WORD	wordpools/wasnorm_wordpool.txt	LTP066	ltpFR	15	5	0	CIGARETTE	309	n/a	0	0	0.5869140625	0.422607421875	lower	../fonts/zerothre.ttf
702073	WORD	wordpools/wasnorm_wordpool.txt	LTP066	ltpFR	15	5	0	BANKER	84	n/a	1	0	0.5869140625	0.422607421875	lower	../fonts/zerothre.ttf
705919	WORD	wordpools/wasnorm_wordpool.txt	LTP066	ltpFR	15	5	0	BALCONY	72	n/a	1	0	0.5869140625	0.422607421875	lower	../fonts/zerothre.ttf
709788	WORD	wordpools/wasnorm_wordpool.txt	LTP066	ltpFR	15	5	0	EMPLOYEE	531	n/a	1	0	0.5869140625	0.422607421875	lower	../fonts/zerothre.ttf
713901	WORD	wordpools/wasnorm_wordpool.txt	LTP066	ltpFR	15	5	0	LETTUCE	814	n/a	1	0	0.5869140625	0.422607421875	lower	../fonts/zerothre.ttf
717955	WORD	wordpools/wasnorm_wordpool.txt	LTP066	ltpFR	15	5	0	RADISH	1158	n/a	0	0	0.5869140625	0.422607421875	lower	../fonts/zerothre.ttf
722017	WORD	wordpools/wasnorm_wordpool.txt	LTP066	ltpFR	15	5	0	SPATULA	1348	n/a	0	0	0.5869140625	0.422607421875	lower	../fonts/zerothre.ttf
726204	WORD	wordpools/wasnorm_wordpool.txt	LTP066	ltpFR	15	5	0	BOSS	152	n/a	0	0	0.5869140625	0.422607421875	lower	../fonts/zerothre.ttf
730266	WORD	wordpools/wasnorm_wordpool.txt	LTP066	ltpFR	15	5	0	BANQUET	86	n/a	1	0	0.5869140625	0.422607421875	lower	../fonts/zerothre.ttf
734427	WORD	wordpools/wasnorm_wordpool.txt	LTP066	ltpFR	15	5	0	ROOST	1208	n/a	1	0	0.5869140625	0.422607421875	lower	../fonts/zerothre.ttf
738464	WORD	wordpools/wasnorm_wordpool.txt	LTP066	ltpFR	15	5	0	DUCK	504	n/a	1	0	0.5869140625	0.422607421875	lower	../fonts/zerothre.ttf
744558	REC_START	n/a	LTP066	ltpFR	15	5	n/a	n/a	n/a	n/a	n/a	n/a	n/a	n/a	n/a	n/a
745915	REC_WORD	wordpools/wasnorm_wordpool.txt	LTP066	ltpFR	15	5	0	ROOST	1208	n/a	1	n/a	n/a	n/a	n/a	n/a
747132	REC_WORD	wordpools/wasnorm_wordpool.txt	LTP066	ltpFR	15	5	0	DUCK	504	n/a	1	n/a	n/a	n/a	n/a	n/a
748484	REC_WORD	wordpools/wasnorm_wordpool.txt	LTP066	ltpFR	15	5	n/a	EMPLOYER	532	n/a	n/a	n/a	n/a	n/a	n/a	n/a
750325	REC_WORD	wordpools/wasnorm_wordpool.txt	LTP066	ltpFR	15	5	0	BANKER	84	n/a	1	n/a	n/a	n/a	n/a	n/a
751722	REC_WORD	wordpools/wasnorm_wordpool.txt	LTP066	ltpFR	15	5	0	BALCONY	72	n/a	1	n/a	n/a	n/a	n/a	n/a
752629	REC_WORD	wordpools/wasnorm_wordpool.txt	LTP066	ltpFR	15	5	0	CIGARETTE	309	n/a	0	n/a	n/a	n/a	n/a	n/a
754046	REC_WORD	wordpools/wasnorm_wordpool.txt	LTP066	ltpFR	15	5	0	BOSS	152	n/a	0	n/a	n/a	n/a	n/a	n/a
797832	REC_WORD	wordpools/wasnorm_wordpool.txt	LTP066	ltpFR	15	5	0	CIGARETTE	309	n/a	0	n/a	n/a	n/a	n/a	n/a
809311	REC_WORD	wordpools/wasnorm_wordpool.txt	LTP066	ltpFR	15	5	n/a	GUITAR	670	n/a	n/a	n/a	n/a	n/a	n/a	n/a
812708	REC_WORD	wordpools/wasnorm_wordpool.txt	LTP066	ltpFR	15	5	0	OMELET	976	n/a	1	n/a	n/a	n/a	n/a	n/a
813815	REC_WORD	wordpools/wasnorm_wordpool.txt	LTP066	ltpFR	15	5	0	GRASSHOPPER	656	n/a	0	n/a	n/a	n/a	n/a	n/a
823798	WORD	wordpools/wasnorm_wordpool.txt	LTP066	ltpFR	15	6	0	STREET	1393	n/a	1	0	0.5869140625	0.422607421875	lower	../fonts/zerothre.ttf
827685	WORD	wordpools/wasnorm_wordpool.txt	LTP066	ltpFR	15	6	0	RESTAURANT	1187	n/a	1	0	0.5869140625	0.422607421875	lower	../fonts/zerothre.ttf
831539	WORD	wordpools/wasnorm_wordpool.txt	LTP066	ltpFR	15	6	0	WAITER	1580	n/a	1	0	0.5869140625	0.422607421875	lower	../fonts/zerothre.ttf
835742	WORD	wordpools/wasnorm_wordpool.txt	LTP066	ltpFR	15	6	0	RIB	1188	n/a	0	0	0.5869140625	0.422607421875	lower	../fonts/zerothre.ttf
839829	WORD	wordpools/wasnorm_wordpool.txt	LTP066	ltpFR	15	6	1	WHEEL	1603	n/a	0	1	0.412841796875	0.57763671875	upper	../fonts/amplitud.ttf
843874	WORD	wordpools/wasnorm_wordpool.txt	LTP066	ltpFR	15	6	1	MITTEN	902	n/a	0	1	0.412841796875	0.57763671875	upper	../fonts/amplitud.ttf
847761	WORD	wordpools/wasnorm_wordpool.txt	LTP066	ltpFR	15	6	1	OCTOPUS	971	n/a	0	1	0.412841796875	0.57763671875	upper	../fonts/amplitud.ttf
851665	WORD	wordpools/wasnorm_wordpool.txt	LTP066	ltpFR	15	6	1	TANK	1432	n/a	0	1	0.412841796875	0.57763671875	upper	../fonts/amplitud.ttf
855852	WORD	wordpools/wasnorm_wordpool.txt	LTP066	ltpFR	15	6	1	POLYESTER	1100	n/a	0	1	0.412841796875	0.57763671875	upper	../fonts/amplitud.ttf
859847	WORD	wordpools/wasnorm_wordpool.txt	LTP066	ltpFR	15	6	0	GENERAL	630	n/a	1	0	0.5869140625	0.422607421875	lower	../fonts/zerothre.ttf
863884	WORD	wordpools/wasnorm_wordpool.txt	LTP066	ltpFR	15	6	0	MOUSE	925	n/a	1	0	0.5869140625	0.422607421875	lower	../fonts/zerothre.ttf
868013	WORD	wordpools/wasnorm_wordpool.txt	LTP066	ltpFR	15	6	0	VEST	1559	n/a	0	0	0.5869140625	0.422607421875	lower	../fonts/zerothre.ttf
871992	WORD	wordpools/wasnorm_wordpool.txt	LTP066	ltpFR	15	6	0	TOWEL	1489	n/a	1	0	0.5869140625	0.422607421875	lower	../fonts/zerothre.ttf
876087	WORD	wordpools/wasnorm_wordpool.txt	LTP066	ltpFR	15	6	1	SPONGE	1355	n/a	0	1	0.412841796875	0.57763671875	upper	../fonts/amplitud.ttf
880007	WORD	wordpools/wasnorm_wordpool.txt	LTP066	ltpFR	15	6	1	MILITARY	894	n/a	1	1	0.412841796875	0.57763671875	upper	../fonts/amplitud.ttf
884027	WORD	wordpools/wasnorm_wordpool.txt	LTP066	ltpFR	15	6	1	ROACH	1195	n/a	1	1	0.412841796875	0.57763671875	upper	../fonts/amplitud.ttf
889905	REC_START	n/a	LTP066	ltpFR	15	6	n/a	n/a	n/a	n/a	n/a	n/a	n/a	n/a	n/a	n/a
891157	REC_WORD	wordpools/wasnorm_wordpool.txt	LTP066	ltpFR	15	6	1	MILITARY	894	n/a	1	n/a	n/a	n/a	n/a	n/a
899074	REC_WORD	wordpools/wasnorm_wordpool.txt	LTP066	ltpFR	15	6	1	ROACH	1195	n/a	1	n/a	n/a	n/a	n/a	n/a
907440	REC_WORD	wordpools/wasnorm_wordpool.txt	LTP066	ltpFR	15	6	0	STREET	1393	n/a	1	n/a	n/a	n/a	n/a	n/a
910992	REC_WORD	wordpools/wasnorm_wordpool.txt	LTP066	ltpFR	15	6	n/a	SIDEWALK	1303	n/a	n/a	n/a	n/a	n/a	n/a	n/a
953829	REC_WORD	wordpools/wasnorm_wordpool.txt	LTP066	ltpFR	15	6	0	RIB	1188	n/a	0	n/a	n/a	n/a	n/a	n/a
961362	REC_WORD	wordpools/wasnorm_wordpool.txt	LTP066	ltpFR	15	6	1	WHEEL	1603	n/a	0	n/a	n/a	n/a	n/a	n/a
968021	WORD	wordpools/wasnorm_wordpool.txt	LTP066	ltpFR	15	7	0	DOOR	486	n/a	1	0	0.5869140625	0.422607421875	lower	../fonts/zerothre.ttf
972008	WORD	wordpools/wasnorm_wordpool.txt	LTP066	ltpFR	15	7	0	TURNIP	1521	n/a	0	0	0.5869140625	0.422607421875	lower	../fonts/zerothre.ttf
975912	WORD	wordpools/wasnorm_wordpool.txt	LTP066	ltpFR	15	7	0	PEAR	1033	n/a	0	0	0.5869140625	0.422607421875	lower	../fonts/zerothre.ttf
979924	WORD	wordpools/wasnorm_wordpool.txt	LTP066	ltpFR	15	7	0	BASKET	95	n/a	1	0	0.5869140625	0.422607421875	lower	../fonts/zerothre.ttf
983977	WORD	wordpools/wasnorm_wordpool.txt	LTP066	ltpFR	15	7	0	DRYER	503	n/a	0	0	0.5869140625	0.422607421875	lower	../fonts/zerothre.ttf
987931	WORD	wordpools/wasnorm_wordpool.txt	LTP066	ltpFR	15	7	0	BRUNETTE	181	n/a	1	0	0.5869140625	0.422607421875	lower	../fonts/zerothre.ttf
991968	WORD	wordpools/wasnorm_wordpool.txt	LTP066	ltpFR	15	7	0	GARDEN	623	n/a	1	0	0.5869140625	0.422607421875	lower	../fonts/zerothre.ttf
996063	WORD	wordpools/wasnorm_wordpool.txt	LTP066	ltpFR	15	7	0	SEED	1266	n/a	0	0	0.5869140625	0.422607421875	lower	../fonts/zerothre.ttf
1000050	WORD	wordpools/wasnorm_wordpool.txt	LTP066	ltpFR	15	7	0	MEADOW	881	n/a	1	0	0.5869140625	0.422607421875	lower	../fonts/zerothre.ttf
1003937	WORD	wordpools/wasnorm_wordpool.txt	LTP066	ltpFR	15	7	0	BUFFALO	186	n/a	1	0	0.5869140625	0.422607421875	lower	../fonts/zerothre.ttf
1007816	WORD	wordpools/wasnorm_wordpool.txt	LTP066	ltpFR	15	7	0	TICKET	1464	n/a	0	0	0.5869140625	0.422607421875	lower	../fonts/zerothre.ttf
1011678	WORD	wordpools/wasnorm_wordpool.txt	LTP066	ltpFR	15	7	0	THESAURUS	1454	n/a	1	0	0.5869140625	0.422607421875	lower	../fonts/zerothre.ttf
1015499	WORD	wordpools/wasnorm_wordpool.txt	LTP066	ltpFR	15	7	0	SICKLE	1302	n/a	1	0	0.5869140625	0.422607421875	lower	../fonts/zerothre.ttf
1019344	WORD	wordpools/wasnorm_wordpool.txt	LTP066	ltpFR	15	7	0	PREDATOR	1120	n/a	1	0	0.5869140625	0.422607421875	lower	../fonts/zerothre.ttf
1023548	WORD	wordpools/wasnorm_wordpool.txt	LTP066	ltpFR	15	7	0	KNOB	787	n/a	1	0	0.5869140625	0.422607421875	lower	../fonts/zerothre.ttf
1027610	WORD	wordpools/wasnorm_wordpool.txt	LTP066	ltpFR	15	7	0	SENATOR	1268	n/a	1	0	0.5869140625	0.422607421875	lower	../fonts/zerothre.ttf
1033221	REC_START	n/a	LTP066	ltpFR	15	7	n/a	n/a	n/a	n/a	n/a	n/a	n/a	n/a	n/a	n/a
1035630	REC_WORD	wordpools/wasnorm_wordpool.txt	LTP066	ltpFR	15	7	0	SENATOR	1268	n/a	1	n/a	n/a	n/a	n/a	n/a
1038110	REC_WORD	wordpools/wasnorm_wordpool.txt	LTP066	ltpFR	15	7	0	THESAURUS	1454	n/a	1	n/a	n/a	n/a	n/a	n/a
1042210	REC_WORD	wordpools/wasnorm_wordpool.txt	LTP066	ltpFR	15	7	0	DOOR	486	n/a	1	n/a	n/a	n/a	n/a	n/a
1048421	REC_WORD	wordpools/wasnorm_wordpool.txt	LTP066	ltpFR	15	7	0	TICKET	1464	n/a	0	n/a	n/a	n/a	n/a	n/a
1050751	REC_WORD	wordpools/wasnorm_wordpool.txt	LTP066	ltpFR	15	7	0	TURNIP	1521	n/a	0	n/a	n/a	n/a	n/a	n/a
1053659	REC_WORD	wordpools/wasnorm_wordpool.txt	LTP066	ltpFR	15	7	0	BASKET	95	n/a	1	n/a	n/a	n/a	n/a	n/a
1062215	REC_WORD	wordpools/wasnorm_wordpool.txt	LTP066	ltpFR	15	7	0	PEAR	1033	n/a	0	n/a	n/a	n/a	n/a	n/a
1111845	WORD	wordpools/wasnorm_wordpool.txt	LTP066	ltpFR	15	8	-1	STATUE	1374	n/a	-1	1	1.0	1.0	upper	../fonts/Verdana.ttf
1116040	WORD	wordpools/wasnorm_wordpool.txt	LTP066	ltpFR	15	8	-1	MUMMY	932	n/a	-1	1	1.0	1.0	upper	../fonts/Verdana.ttf
1119960	WORD	wordpools/wasnorm_wordpool.txt	LTP066	ltpFR	15	8	-1	STABLE	1363	n/a	-1	1	1.0	1.0	upper	../fonts/Verdana.ttf
1123881	WORD	wordpools/wasnorm_wordpool.txt	LTP066	ltpFR	15	8	-1	BACON	67	n/a	-1	1	1.0	1.0	upper	../fonts/Verdana.ttf
1127859	WORD	wordpools/wasnorm_wordpool.txt	LTP066	ltpFR	15	8	-1	SKI	1316	n/a	-1	1	1.0	1.0	upper	../fonts/Verdana.ttf
1131730	WORD	wordpools/wasnorm_wordpool.txt	LTP066	ltpFR	15	8	-1	WATERFALL	1595	n/a	-1	1	1.0	1.0	upper	../fonts/Verdana.ttf
1135550	WORD	wordpools/wasnorm_wordpool.txt	LTP066	ltpFR	15	8	-1	SADDLE	1221	n/a	-1	1	1.0	1.0	upper	../fonts/Verdana.ttf
1139687	WORD	wordpools/wasnorm_wordpool.txt	LTP066	ltpFR	15	8	-1	BANANA	77	n/a	-1	1	1.0	1.0	upper	../fonts/Verdana.ttf
1143757	WORD	wordpools/wasnorm_wordpool.txt	LTP066	ltpFR	15	8	-1	PORK	1108	n/a	-1	1	1.0	1.0	upper	../fonts/Verdana.ttf
1147952	WORD	wordpools/wasnorm_wordpool.txt	LTP066	ltpFR	15	8	-1	CLAY	320	n/a	-1	1	1.0	1.0	upper	../fonts/Verdana.ttf
1152056	WORD	wordpools/wasnorm_wordpool.txt	LTP066	ltpFR	15	8	-1	JUVENILE	767	n/a	-1	1	1.0	1.0	upper	../fonts/Verdana.ttf
1156218	WORD	wordpools/wasnorm_wordpool.txt	LTP066	ltpFR	15	8	-1	PUDDING	1139	n/a	-1	1	1.0	1.0	upper	../fonts/Verdana.ttf
1160122	WORD	wordpools/wasnorm_wordpool.txt	LTP066	ltpFR	15	8	-1	SECRETARY	1265	n/a	-1	1	1.0	1.0	upper	../fonts/Verdana.ttf
1163984	WORD	wordpools/wasnorm_wordpool.txt	LTP066	ltpFR	15	8	-1	JUNGLE	764	n/a	-1	1	1.0	1.0	upper	../fonts/Verdana.ttf
1168137	WORD	wordpools/wasnorm_wordpool.txt	LTP066	ltpFR	15	8	-1	FREEWAY	603	n/a	-1	1	1.0	1.0	upper	../fonts/Verdana.ttf
1172224	WORD	wordpools/wasnorm_wordpool.txt	LTP066	ltpFR	15	8	-1	GARAGE	621	n/a	-1	1	1.0	1.0	upper	../fonts/Verdana.ttf
1177926	REC_START	n/a	LTP066	ltpFR	15	8	n/a	n/a	n/a	n/a	n/a	n/a	n/a	n/a	n/a	n/a
1179846	REC_WORD	wordpools/wasnorm_wordpool.txt	LTP066	ltpFR	15	8	-1	JUVENILE	767	n/a	-1	n/a	n/a	n/a	n/a	n/a
1181457	REC_WORD	wordpools/wasnorm_wordpool.txt	LTP066	ltpFR	15	8	-1	FREEWAY	603	n/a	-1	n/a	n/a	n/a	n/a	n/a
1183114	REC_WORD	wordpools/wasnorm_wordpool.txt	LTP066	ltpFR	15	8	-1	STATUE	1374	n/a	-1	n/a	n/a	n/a	n/a	n/a
1186087	REC_WORD	wordpools/wasnorm_wordpool.txt	LTP066	ltpFR	15	8	-1	MUMMY	932	n/a	-1	n/a	n/a	n/a	n/a	n/a
1187599	REC_WORD	wordpools/wasnorm_wordpool.txt	LTP066	ltpFR	15	8	-1	BACON	67	n/a	-1	n/a	n/a	n/a	n/a	n/a
1188706	REC_WORD	wordpools/wasnorm_wordpool.txt	LTP066	ltpFR	15	8	-1	SKI	1316	n/a	-1	n/a	n/a	n/a	n/a	n/a
1190332	REC_WORD	wordpools/wasnorm_wordpool.txt	LTP066	ltpFR	15	8	-1	STABLE	1363	n/a	-1	n/a	n/a	n/a	n/a	n/a
1233080	REC_WORD	wordpools/wasnorm_wordpool.txt	LTP066	ltpFR	15	8	-1	PUDDING	1139	n/a	-1	n/a	n/a	n/a	n/a	n/a
1235719	REC_WORD	wordpools/wasnorm_wordpool.txt	LTP066	ltpFR	15	8	-1	SECRETARY	1265	n/a	-1	n/a	n/a	n/a	n/a	n/a
1256933	WORD	wordpools/wasnorm_wordpool.txt	LTP066	ltpFR	15	9	0	STRING	1394	n/a	0	0	0.5869140625	0.422607421875	lower	../fonts/zerothre.ttf
1260912	WORD	wordpools/wasnorm_wordpool.txt	LTP066	ltpFR	15	9	0	GUITAR	670	n/a	1	0	0.5869140625	0.422607421875	lower	../fonts/zerothre.ttf
1264916	WORD	wordpools/wasnorm_wordpool.txt	LTP066	ltpFR	15	9	0	COIN	343	n/a	0	0	0.5869140625	0.422607421875	lower	../fonts/zerothre.ttf
1268878	WORD	wordpools/wasnorm_wordpool.txt	LTP066	ltpFR	15	9	0	SNEAKER	1334	n/a	1	0	0.5869140625	0.422607421875	lower	../fonts/zerothre.ttf
1273048	WORD	wordpools/wasnorm_wordpool.txt	LTP066	ltpFR	15	9	0	SKETCH	1315	n/a	1	0	0.5869140625	0.422607421875	lower	../fonts/zerothre.ttf
1277143	WORD	wordpools/wasnorm_wordpool.txt	LTP066	ltpFR	15	9	0	STAPLE	1371	n/a	1	0	0.5869140625	0.422607421875	lower	../fonts/zerothre.ttf
1281047	WORD	wordpools/wasnorm_wordpool.txt	LTP066	ltpFR	15	9	0	FLIPPER	580	n/a	0	0	0.5869140625	0.422607421875	lower	../fonts/zerothre.ttf
1285167	WORD	wordpools/wasnorm_wordpool.txt	LTP066	ltpFR	15	9	0	CARPET	247	n/a	1	0	0.5869140625	0.422607421875	lower	../fonts/zerothre.ttf
1289321	WORD	wordpools/wasnorm_wordpool.txt	LTP066	ltpFR	15	9	0	SOCKET	1340	n/a	0	0	0.5869140625	0.422607421875	lower	../fonts/zerothre.ttf
1293374	WORD	wordpools/wasnorm_wordpool.txt	LTP066	ltpFR	15	9	0	COP	376	n/a	1	0	0.5869140625	0.422607421875	lower	../fonts/zerothre.ttf
1297544	WORD	wordpools/wasnorm_wordpool.txt	LTP066	ltpFR	15	9	0	BAIT	70	n/a	0	0	0.5869140625	0.422607421875	lower	../fonts/zerothre.ttf
1301406	WORD	wordpools/wasnorm_wordpool.txt	LTP066	ltpFR	15	9	0	ELK	526	n/a	1	0	0.5869140625	0.422607421875	lower	../fonts/zerothre.ttf
1305244	WORD	wordpools/wasnorm_wordpool.txt	LTP066	ltpFR	15	9	0	HANDCUFFS	685	n/a	0	0	0.5869140625	0.422607421875	lower	../fonts/zerothre.ttf
1309372	WORD	wordpools/wasnorm_wordpool.txt	LTP066	ltpFR	15	9	0	PATIENT	1024	n/a	1	0	0.5869140625	0.422607421875	lower	../fonts/zerothre.ttf
1313342	WORD	wordpools/wasnorm_wordpool.txt	LTP066	ltpFR	15	9	0	STETHOSCOPE	1379	n/a	0	0	0.5869140625	0.422607421875	lower	../fonts/zerothre.ttf
1317188	WORD	wordpools/wasnorm_wordpool.txt	LTP066	ltpFR	15	9	0	TUB	1514	n/a	1	0	0.5869140625	0.422607421875	lower	../fonts/zerothre.ttf
1322907	REC_START	n/a	LTP066	ltpFR	15	9	n/a	n/a	n/a	n/a	n/a	n/a	n/a	n/a	n/a	n/a
1324577	REC_WORD	wordpools/wasnorm_wordpool.txt	LTP066	ltpFR	15	9	0	STETHOSCOPE	1379	n/a	0	n/a	n/a	n/a	n/a	n/a
1326638	REC_WORD	wordpools/wasnorm_wordpool.txt	LTP066	ltpFR	15	9	0	HANDCUFFS	685	n/a	0	n/a	n/a	n/a	n/a	n/a
1337060	REC_WORD	wordpools/wasnorm_wordpool.txt	LTP066	ltpFR	15	9	0	STRING	1394	n/a	0	n/a	n/a	n/a	n/a	n/a
1338970	REC_WORD	wordpools/wasnorm_wordpool.txt	LTP066	ltpFR	15	9	0	GUITAR	670	n/a	1	n/a	n/a	n/a	n/a	n/a
1367370	REC_WORD	wordpools/wasnorm_wordpool.txt	LTP066	ltpFR	15	9	0	FLIPPER	580	n/a	0	n/a	n/a	n/a	n/a	n/a
1369006	REC_WORD	wordpools/wasnorm_wordpool.txt	LTP066	ltpFR	15	9	n/a	STAPLER	1372	n/a	n/a	n/a	n/a	n/a	n/a	n/a
1371890	REC_WORD	wordpools/wasnorm_wordpool.txt	LTP066	ltpFR	15	9	0	CARPET	247	n/a	1	n/a	n/a	n/a	n/a	n/a
1373552	REC_WORD	wordpools/wasnorm_wordpool.txt	LTP066	ltpFR	15	9	0	SOCKET	1340	n/a	0	n/a	n/a	n/a	n/a	n/a
1401964	WORD	wordpools/wasnorm_wordpool.txt	LTP066	ltpFR	15	10	0	INSECT	740	n/a	0	0	0.5869140625	0.422607421875	lower	../fonts/zerothre.ttf
1405951	WORD	wordpools/wasnorm_wordpool.txt	LTP066	ltpFR	15	10	0	RAG	1160	n/a	1	0	0.5869140625	0.422607421875	lower	../fonts/zerothre.ttf
1409821	WORD	wordpools/wasnorm_wordpool.txt	LTP066	ltpFR	15	10	1	COMET	353	n/a	0	1	0.412841796875	0.57763671875	upper	../fonts/amplitud.ttf
1413667	WORD	wordpools/wasnorm_wordpool.txt	LTP066	ltpFR	15	10	1	WORKER	1621	n/a	n/a	1	0.412841796875	0.57763671875	upper	../fonts/amplitud.ttf
1416688	SLOW_MSG	n/a	LTP066	ltpFR	15	10	n/a	n/a	n/a	n/a	n/a	n/a	n/a	n/a	n/a	n/a
1419152	WORD	wordpools/wasnorm_wordpool.txt	LTP066	ltpFR	15	10	1	BROOK	177	n/a	1	1	0.412841796875	0.57763671875	upper	../fonts/amplitud.ttf
1423131	WORD	wordpools/wasnorm_wordpool.txt	LTP066	ltpFR	15	10	1	DIVER	476	n/a	1	1	0.412841796875	0.57763671875	upper	../fonts/amplitud.ttf
1427209	WORD	wordpools/wasnorm_wordpool.txt	LTP066	ltpFR	15	10	0	OATMEAL	967	n/a	0	0	0.5869140625	0.422607421875	lower	../fonts/zerothre.ttf
1431213	WORD	wordpools/wasnorm_wordpool.txt	LTP066	ltpFR	15	10	0	TYPIST	1532	n/a	1	0	0.5869140625	0.422607421875	lower	../fonts/zerothre.ttf
1435358	WORD	wordpools/wasnorm_wordpool.txt	LTP066	ltpFR	15	10	0	PAPER	1011	n/a	0	0	0.5869140625	0.422607421875	lower	../fonts/zerothre.ttf
1439520	WORD	wordpools/wasnorm_wordpool.txt	LTP066	ltpFR	15	10	1	RICE	1190	n/a	0	1	0.412841796875	0.57763671875	upper	../fonts/amplitud.ttf
1443574	WORD	wordpools/wasnorm_wordpool.txt	LTP066	ltpFR	15	10	1	CONCRETE	361	n/a	0	1	0.412841796875	0.57763671875	upper	../fonts/amplitud.ttf
1447427	WORD	wordpools/wasnorm_wordpool.txt	LTP066	ltpFR	15	10	1	FLORIDA	582	n/a	n/a	1	0.412841796875	0.57763671875	upper	../fonts/amplitud.ttf
1450449	SLOW_MSG	n/a	LTP066	ltpFR	15	10	n/a	n/a	n/a	n/a	n/a	n/a	n/a	n/a	n/a	n/a
1452913	WORD	wordpools/wasnorm_wordpool.txt	LTP066	ltpFR	15	10	1	METEOR	889	n/a	0	1	0.412841796875	0.57763671875	upper	../fonts/amplitud.ttf
1457016	WORD	wordpools/wasnorm_wordpool.txt	LTP066	ltpFR	15	10	0	PLAYGROUND	1087	n/a	1	0	0.5869140625	0.422607421875	lower	../fonts/zerothre.ttf
1461136	WORD	wordpools/wasnorm_wordpool.txt	LTP066	ltpFR	15	10	0	TOY	1492	n/a	0	0	0.5869140625	0.422607421875	lower	../fonts/zerothre.ttf
1465257	WORD	wordpools/wasnorm_wordpool.txt	LTP066	ltpFR	15	10	0	PENNY	1045	n/a	0	0	0.5869140625	0.422607421875	lower	../fonts/zerothre.ttf
1471333	REC_START	n/a	LTP066	ltpFR	15	10	n/a	n/a	n/a	n/a	n/a	n/a	n/a	n/a	n/a	n/a
1474027	REC_WORD	wordpools/wasnorm_wordpool.txt	LTP066	ltpFR	15	10	0	PENNY	1045	n/a	0	n/a	n/a	n/a	n/a	n/a
1477324	REC_WORD	wordpools/wasnorm_wordpool.txt	LTP066	ltpFR	15	10	1	METEOR	889	n/a	0	n/a	n/a	n/a	n/a	n/a
1478152	REC_WORD	wordpools/wasnorm_wordpool.txt	LTP066	ltpFR	15	10	1	COMET	353	n/a	0	n/a	n/a	n/a	n/a	n/a
1499953	REC_WORD	wordpools/wasnorm_wordpool.txt	LTP066	ltpFR	15	10	1	DIVER	476	n/a	1	n/a	n/a	n/a	n/a	n/a
1508249	REC_WORD	wordpools/wasnorm_wordpool.txt	LTP066	ltpFR	15	10	0	TYPIST	1532	n/a	1	n/a	n/a	n/a	n/a	n/a
1509726	REC_WORD	wordpools/wasnorm_wordpool.txt	LTP066	ltpFR	15	10	0	PAPER	1011	n/a	0	n/a	n/a	n/a	n/a	n/a
1552147	WORD	wordpools/wasnorm_wordpool.txt	LTP066	ltpFR	15	11	1	WARRIOR	1589	n/a	1	1	0.412841796875	0.57763671875	upper	../fonts/amplitud.ttf
1556050	WORD	wordpools/wasnorm_wordpool.txt	LTP066	ltpFR	15	11	1	PUMPKIN	1142	n/a	0	1	0.412841796875	0.57763671875	upper	../fonts/amplitud.ttf
1560229	WORD	wordpools/wasnorm_wordpool.txt	LTP066	ltpFR	15	11	1	CHERRY	293	n/a	1	1	0.412841796875	0.57763671875	upper	../fonts/amplitud.ttf
1564274	WORD	wordpools/wasnorm_wordpool.txt	LTP066	ltpFR	15	11	1	TAXI	1438	n/a	0	1	0.412841796875	0.57763671875	upper	../fonts/amplitud.ttf
1568394	WORD	wordpools/wasnorm_wordpool.txt	LTP066	ltpFR	15	11	1	FIREMAN	569	n/a	1	1	0.412841796875	0.57763671875	upper	../fonts/amplitud.ttf
1572365	WORD	wordpools/wasnorm_wordpool.txt	LTP066	ltpFR	15	11	0	RAZOR	1171	n/a	0	0	0.5869140625	0.422607421875	lower	../fonts/zerothre.ttf
1576452	WORD	wordpools/wasnorm_wordpool.txt	LTP066	ltpFR	15	11	0	BUS	201	n/a	1	0	0.5869140625	0.422607421875	lower	../fonts/zerothre.ttf
1580464	WORD	wordpools/wasnorm_wordpool.txt	LTP066	ltpFR	15	11	0	COMPUTER	359	n/a	1	0	0.5869140625	0.422607421875	lower	../fonts/zerothre.ttf
1584592	WORD	wordpools/wasnorm_wordpool.txt	LTP066	ltpFR	15	11	1	ANT	25	n/a	0	1	0.412841796875	0.57763671875	upper	../fonts/amplitud.ttf
1588621	WORD	wordpools/wasnorm_wordpool.txt	LTP066	ltpFR	15	11	1	CLIMBER	323	n/a	1	1	0.412841796875	0.57763671875	upper	../fonts/amplitud.ttf
1592533	WORD	wordpools/wasnorm_wordpool.txt	LTP066	ltpFR	15	11	1	CONTAINER	366	n/a	0	1	0.412841796875	0.57763671875	upper	../fonts/amplitud.ttf
1596503	WORD	wordpools/wasnorm_wordpool.txt	LTP066	ltpFR	15	11	0	GAUZE	626	n/a	0	0	0.5869140625	0.422607421875	lower	../fonts/zerothre.ttf
1600440	WORD	wordpools/wasnorm_wordpool.txt	LTP066	ltpFR	15	11	0	CUSTARD	429	n/a	0	0	0.5869140625	0.422607421875	lower	../fonts/zerothre.ttf
1604327	WORD	wordpools/wasnorm_wordpool.txt	LTP066	ltpFR	15	11	0	STEM	1376	n/a	1	0	0.5869140625	0.422607421875	lower	../fonts/zerothre.ttf
1608431	WORD	wordpools/wasnorm_wordpool.txt	LTP066	ltpFR	15	11	0	MINER	896	n/a	1	0	0.5869140625	0.422607421875	lower	../fonts/zerothre.ttf
1612293	WORD	wordpools/wasnorm_wordpool.txt	LTP066	ltpFR	15	11	0	WIDOW	1608	n/a	1	0	0.5869140625	0.422607421875	lower	../fonts/zerothre.ttf
1618270	REC_START	n/a	LTP066	ltpFR	15	11	n/a	n/a	n/a	n/a	n/a	n/a	n/a	n/a	n/a	n/a
1620300	REC_WORD	wordpools/wasnorm_wordpool.txt	LTP066	ltpFR	15	11	0	GAUZE	626	n/a	0	n/a	n/a	n/a	n/a	n/a
1622006	REC_WORD	wordpools/wasnorm_wordpool.txt	LTP066	ltpFR	15	11	0	RAZOR	1171	n/a	0	n/a	n/a	n/a	n/a	n/a
1624666	REC_WORD	wordpools/wasnorm_wordpool.txt	LTP066	ltpFR	15	11	1	WARRIOR	1589	n/a	1	n/a	n/a	n/a	n/a	n/a
1625583	REC_WORD	wordpools/wasnorm_wordpool.txt	LTP066	ltpFR	15	11	1	PUMPKIN	1142	n/a	0	n/a	n/a	n/a	n/a	n/a
1626775	REC_WORD	wordpools/wasnorm_wordpool.txt	LTP066	ltpFR	15	11	1	CHERRY	293	n/a	1	n/a	n/a	n/a	n/a	n/a
1629893	REC_WORD	wordpools/wasnorm_wordpool.txt	LTP066	ltpFR	15	11	1	TAXI	1438	n/a	0	n/a	n/a	n/a	n/a	n/a
1633969	REC_WORD	wordpools/wasnorm_wordpool.txt	LTP066	ltpFR	15	11	1	FIREMAN	569	n/a	1	n/a	n/a	n/a	n/a	n/a
1645787	REC_WORD	wordpools/wasnorm_wordpool.txt	LTP066	ltpFR	15	11	0	RAZOR	1171	n/a	0	n/a	n/a	n/a	n/a	n/a
1656098	REC_WORD	wordpools/wasnorm_wordpool.txt	LTP066	ltpFR	15	11	0	COMPUTER	359	n/a	1	n/a	n/a	n/a	n/a	n/a
1658578	REC_WORD	wordpools/wasnorm_wordpool.txt	LTP066	ltpFR	15	11	1	ANT	25	n/a	0	n/a	n/a	n/a	n/a	n/a
1696636	WORD	wordpools/wasnorm_wordpool.txt	LTP066	ltpFR	15	12	1	SCENERY	1247	n/a	0	1	0.412841796875	0.57763671875	upper	../fonts/amplitud.ttf
1700457	WORD	wordpools/wasnorm_wordpool.txt	LTP066	ltpFR	15	12	1	BOULDER	155	n/a	0	1	0.412841796875	0.57763671875	upper	../fonts/amplitud.ttf
1704302	WORD	wordpools/wasnorm_wordpool.txt	LTP066	ltpFR	15	12	1	BAND	78	n/a	1	1	0.412841796875	0.57763671875	upper	../fonts/amplitud.ttf
1708339	WORD	wordpools/wasnorm_wordpool.txt	LTP066	ltpFR	15	12	1	STADIUM	1364	n/a	0	1	0.412841796875	0.57763671875	upper	../fonts/amplitud.ttf
1712543	WORD	wordpools/wasnorm_wordpool.txt	LTP066	ltpFR	15	12	1	RECIPE	1175	n/a	0	1	0.412841796875	0.57763671875	upper	../fonts/amplitud.ttf
1716555	WORD	wordpools/wasnorm_wordpool.txt	LTP066	ltpFR	15	12	1	DRIVEWAY	500	n/a	0	1	0.412841796875	0.57763671875	upper	../fonts/amplitud.ttf
1720658	WORD	wordpools/wasnorm_wordpool.txt	LTP066	ltpFR	15	12	1	MARINE	869	n/a	0	1	0.412841796875	0.57763671875	upper	../fonts/amplitud.ttf
1724728	WORD	wordpools/wasnorm_wordpool.txt	LTP066	ltpFR	15	12	1	STOVE	1388	n/a	0	1	0.412841796875	0.57763671875	upper	../fonts/amplitud.ttf
1728781	WORD	wordpools/wasnorm_wordpool.txt	LTP066	ltpFR	15	12	1	BURGLAR	200	n/a	1	1	0.412841796875	0.57763671875	upper	../fonts/amplitud.ttf
1732727	WORD	wordpools/wasnorm_wordpool.txt	LTP066	ltpFR	15	12	1	OUTLAW	989	n/a	1	1	0.412841796875	0.57763671875	upper	../fonts/amplitud.ttf
1736706	WORD	wordpools/wasnorm_wordpool.txt	LTP066	ltpFR	15	12	1	SHED	1277	n/a	0	1	0.412841796875	0.57763671875	upper	../fonts/amplitud.ttf
1740693	WORD	wordpools/wasnorm_wordpool.txt	LTP066	ltpFR	15	12	1	CAT	257	n/a	0	1	0.412841796875	0.57763671875	upper	../fonts/amplitud.ttf
1744896	WORD	wordpools/wasnorm_wordpool.txt	LTP066	ltpFR	15	12	1	CUCUMBER	421	n/a	1	1	0.412841796875	0.57763671875	upper	../fonts/amplitud.ttf
1748908	WORD	wordpools/wasnorm_wordpool.txt	LTP066	ltpFR	15	12	1	WINDSHIELD	1612	n/a	0	1	0.412841796875	0.57763671875	upper	../fonts/amplitud.ttf
1752786	WORD	wordpools/wasnorm_wordpool.txt	LTP066	ltpFR	15	12	1	CABIN	211	n/a	0	1	0.412841796875	0.57763671875	upper	../fonts/amplitud.ttf
1756708	WORD	wordpools/wasnorm_wordpool.txt	LTP066	ltpFR	15	12	1	FUNGUS	614	n/a	0	1	0.412841796875	0.57763671875	upper	../fonts/amplitud.ttf
1762618	REC_START	n/a	LTP066	ltpFR	15	12	n/a	n/a	n/a	n/a	n/a	n/a	n/a	n/a	n/a	n/a
1764573	REC_WORD	wordpools/wasnorm_wordpool.txt	LTP066	ltpFR	15	12	1	CABIN	211	n/a	0	n/a	n/a	n/a	n/a	n/a
1766983	REC_WORD	wordpools/wasnorm_wordpool.txt	LTP066	ltpFR	15	12	1	BOULDER	155	n/a	0	n/a	n/a	n/a	n/a	n/a
1770060	REC_WORD	wordpools/wasnorm_wordpool.txt	LTP066	ltpFR	15	12	1	STADIUM	1364	n/a	0	n/a	n/a	n/a	n/a	n/a
1771393	REC_WORD	wordpools/wasnorm_wordpool.txt	LTP066	ltpFR	15	12	1	BAND	78	n/a	1	n/a	n/a	n/a	n/a	n/a
1830344	REC_WORD	wordpools/wasnorm_wordpool.txt	LTP066	ltpFR	15	12	1	CUCUMBER	421	n/a	1	n/a	n/a	n/a	n/a	n/a
1838221	REST_REWET	n/a	LTP066	ltpFR	15	12	n/a	n/a	n/a	n/a	n/a	n/a	n/a	n/a	n/a	n/a
2262833	WORD	wordpools/wasnorm_wordpool.txt	LTP066	ltpFR	15	13	1	GLASSES	640	n/a	0	1	0.412841796875	0.57763671875	upper	../fonts/amplitud.ttf
2266761	WORD	wordpools/wasnorm_wordpool.txt	LTP066	ltpFR	15	13	1	MASCARA	875	n/a	0	1	0.412841796875	0.57763671875	upper	../fonts/amplitud.ttf
2270840	WORD	wordpools/wasnorm_wordpool.txt	LTP066	ltpFR	15	13	1	HIKER	708	n/a	1	1	0.412841796875	0.57763671875	upper	../fonts/amplitud.ttf
2274719	WORD	wordpools/wasnorm_wordpool.txt	LTP066	ltpFR	15	13	1	NET	946	n/a	0	1	0.412841796875	0.57763671875	upper	../fonts/amplitud.ttf
2278689	WORD	wordpools/wasnorm_wordpool.txt	LTP066	ltpFR	15	13	1	CATHEDRAL	260	n/a	0	1	0.412841796875	0.57763671875	upper	../fonts/amplitud.ttf
2282701	WORD	wordpools/wasnorm_wordpool.txt	LTP066	ltpFR	15	13	1	SIRLOIN	1311	n/a	0	1	0.412841796875	0.57763671875	upper	../fonts/amplitud.ttf
2286663	WORD	wordpools/wasnorm_wordpool.txt	LTP066	ltpFR	15	13	1	LASER	801	n/a	0	1	0.412841796875	0.57763671875	upper	../fonts/amplitud.ttf
2290559	WORD	wordpools/wasnorm_wordpool.txt	LTP066	ltpFR	15	13	1	SKULL	1320	n/a	0	1	0.412841796875	0.57763671875	upper	../fonts/amplitud.ttf
2294629	WORD	wordpools/wasnorm_wordpool.txt	LTP066	ltpFR	15	13	1	CHAPEL	280	n/a	0	1	0.412841796875	0.57763671875	upper	../fonts/amplitud.ttf
2298583	WORD	wordpools/wasnorm_wordpool.txt	LTP066	ltpFR	15	13	1	SCALLOP	1242	n/a	0	1	0.412841796875	0.57763671875	upper	../fonts/amplitud.ttf
2302636	WORD	wordpools/wasnorm_wordpool.txt	LTP066	ltpFR	15	13	1	EDITORIAL	517	n/a	0	1	0.412841796875	0.57763671875	upper	../fonts/amplitud.ttf
2306482	WORD	wordpools/wasnorm_wordpool.txt	LTP066	ltpFR	15	13	1	EDITOR	516	n/a	1	1	0.412841796875	0.57763671875	upper	../fonts/amplitud.ttf
2310560	WORD	wordpools/wasnorm_wordpool.txt	LTP066	ltpFR	15	13	1	SURF	1412	n/a	0	1	0.412841796875	0.57763671875	upper	../fonts/amplitud.ttf
2314414	WORD	wordpools/wasnorm_wordpool.txt	LTP066	ltpFR	15	13	1	SUPERMARKET	1409	n/a	0	1	0.412841796875	0.57763671875	upper	../fonts/amplitud.ttf
2318551	WORD	wordpools/wasnorm_wordpool.txt	LTP066	ltpFR	15	13	1	PRINCESS	1125	n/a	1	1	0.412841796875	0.57763671875	upper	../fonts/amplitud.ttf
2322755	WORD	wordpools/wasnorm_wordpool.txt	LTP066	ltpFR	15	13	1	BRIDE	173	n/a	1	1	0.412841796875	0.57763671875	upper	../fonts/amplitud.ttf
2328557	REC_START	n/a	LTP066	ltpFR	15	13	n/a	n/a	n/a	n/a	n/a	n/a	n/a	n/a	n/a	n/a
2330318	REC_WORD	wordpools/wasnorm_wordpool.txt	LTP066	ltpFR	15	13	1	PRINCESS	1125	n/a	1	n/a	n/a	n/a	n/a	n/a
2331799	REC_WORD	wordpools/wasnorm_wordpool.txt	LTP066	ltpFR	15	13	1	EDITORIAL	517	n/a	0	n/a	n/a	n/a	n/a	n/a
2334678	REC_WORD	wordpools/wasnorm_wordpool.txt	LTP066	ltpFR	15	13	1	SURF	1412	n/a	0	n/a	n/a	n/a	n/a	n/a
2337227	REC_WORD	wordpools/wasnorm_wordpool.txt	LTP066	ltpFR	15	13	1	SUPERMARKET	1409	n/a	0	n/a	n/a	n/a	n/a	n/a
2351415	REC_WORD	wordpools/wasnorm_wordpool.txt	LTP066	ltpFR	15	13	1	BRIDE	173	n/a	1	n/a	n/a	n/a	n/a	n/a
2380434	REC_WORD	wordpools/wasnorm_wordpool.txt	LTP066	ltpFR	15	13	1	GLASSES	640	n/a	0	n/a	n/a	n/a	n/a	n/a
2383262	REC_WORD	wordpools/wasnorm_wordpool.txt	LTP066	ltpFR	15	13	1	MASCARA	875	n/a	0	n/a	n/a	n/a	n/a	n/a
2386590	REC_WORD	wordpools/wasnorm_wordpool.txt	LTP066	ltpFR	15	13	1	HIKER	708	n/a	1	n/a	n/a	n/a	n/a	n/a
2389359	REC_WORD	wordpools/wasnorm_wordpool.txt	LTP066	ltpFR	15	13	1	NET	946	n/a	0	n/a	n/a	n/a	n/a	n/a
2390954	REC_WORD	wordpools/wasnorm_wordpool.txt	LTP066	ltpFR	15	13	1	CATHEDRAL	260	n/a	0	n/a	n/a	n/a	n/a	n/a
2408271	WORD	wordpools/wasnorm_wordpool.txt	LTP066	ltpFR	15	14	-1	TUBA	1515	n/a	-1	1	1.0	1.0	upper	../fonts/Verdana.ttf
2412183	WORD	wordpools/wasnorm_wordpool.txt	LTP066	ltpFR	15	14	-1	CELERY	266	n/a	-1	1	1.0	1.0	upper	../fonts/Verdana.ttf
2416179	WORD	wordpools/wasnorm_wordpool.txt	LTP066	ltpFR	15	14	-1	MANSION	864	n/a	-1	1	1.0	1.0	upper	../fonts/Verdana.ttf
2420207	WORD	wordpools/wasnorm_wordpool.txt	LTP066	ltpFR	15	14	-1	KEEPER	769	n/a	-1	1	1.0	1.0	upper	../fonts/Verdana.ttf
2424278	WORD	wordpools/wasnorm_wordpool.txt	LTP066	ltpFR	15	14	-1	CORN	381	n/a	-1	1	1.0	1.0	upper	../fonts/Verdana.ttf
2428373	WORD	wordpools/wasnorm_wordpool.txt	LTP066	ltpFR	15	14	-1	CHICK	296	n/a	-1	1	1.0	1.0	upper	../fonts/Verdana.ttf
2432426	WORD	wordpools/wasnorm_wordpool.txt	LTP066	ltpFR	15	14	-1	TUTU	1524	n/a	-1	1	1.0	1.0	upper	../fonts/Verdana.ttf
2436330	WORD	wordpools/wasnorm_wordpool.txt	LTP066	ltpFR	15	14	-1	VEAL	1551	n/a	-1	1	1.0	1.0	upper	../fonts/Verdana.ttf
2440425	WORD	wordpools/wasnorm_wordpool.txt	LTP066	ltpFR	15	14	-1	BINDER	127	n/a	-1	1	1.0	1.0	upper	../fonts/Verdana.ttf
2444387	WORD	wordpools/wasnorm_wordpool.txt	LTP066	ltpFR	15	14	-1	PEN	1041	n/a	-1	1	1.0	1.0	upper	../fonts/Verdana.ttf
2448558	WORD	wordpools/wasnorm_wordpool.txt	LTP066	ltpFR	15	14	-1	CHICKEN	297	n/a	-1	1	1.0	1.0	upper	../fonts/Verdana.ttf
2452744	WORD	wordpools/wasnorm_wordpool.txt	LTP066	ltpFR	15	14	-1	APRON	35	n/a	-1	1	1.0	1.0	upper	../fonts/Verdana.ttf
2456673	WORD	wordpools/wasnorm_wordpool.txt	LTP066	ltpFR	15	14	-1	OINTMENT	974	n/a	-1	1	1.0	1.0	upper	../fonts/Verdana.ttf
2460668	WORD	wordpools/wasnorm_wordpool.txt	LTP066	ltpFR	15	14	-1	PILL	1068	n/a	-1	1	1.0	1.0	upper	../fonts/Verdana.ttf
2464863	WORD	wordpools/wasnorm_wordpool.txt	LTP066	ltpFR	15	14	-1	WRITER	1627	n/a	-1	1	1.0	1.0	upper	../fonts/Verdana.ttf
2468834	WORD	wordpools/wasnorm_wordpool.txt	LTP066	ltpFR	15	14	-1	FELLOW	558	n/a	-1	1	1.0	1.0	upper	../fonts/Verdana.ttf
2474912	REC_START	n/a	LTP066	ltpFR	15	14	n/a	n/a	n/a	n/a	n/a	n/a	n/a	n/a	n/a	n/a
2476802	REC_WORD	wordpools/wasnorm_wordpool.txt	LTP066	ltpFR	15	14	-1	BINDER	127	n/a	-1	n/a	n/a	n/a	n/a	n/a
2478231	REC_WORD	wordpools/wasnorm_wordpool.txt	LTP066	ltpFR	15	14	-1	PEN	1041	n/a	-1	n/a	n/a	n/a	n/a	n/a
2487104	REC_WORD	wordpools/wasnorm_wordpool.txt	LTP066	ltpFR	15	14	1	RECIPE	1175	n/a	0	n/a	n/a	n/a	n/a	n/a
2495350	REC_WORD	wordpools/wasnorm_wordpool.txt	LTP066	ltpFR	15	14	-1	TUTU	1524	n/a	-1	n/a	n/a	n/a	n/a	n/a
2501691	REC_WORD	wordpools/wasnorm_wordpool.txt	LTP066	ltpFR	15	14	-1	TUBA	1515	n/a	-1	n/a	n/a	n/a	n/a	n/a
2502758	REC_WORD	wordpools/wasnorm_wordpool.txt	LTP066	ltpFR	15	14	-1	CELERY	266	n/a	-1	n/a	n/a	n/a	n/a	n/a
2504011	REC_WORD	wordpools/wasnorm_wordpool.txt	LTP066	ltpFR	15	14	-1	MANSION	864	n/a	-1	n/a	n/a	n/a	n/a	n/a
2555308	WORD	wordpools/wasnorm_wordpool.txt	LTP066	ltpFR	15	15	-1	OATS	968	n/a	-1	1	1.0	1.0	upper	../fonts/Verdana.ttf
2559486	WORD	wordpools/wasnorm_wordpool.txt	LTP066	ltpFR	15	15	-1	BEARD	107	n/a	-1	1	1.0	1.0	upper	../fonts/Verdana.ttf
2563365	WORD	wordpools/wasnorm_wordpool.txt	LTP066	ltpFR	15	15	-1	ANIMAL	23	n/a	-1	1	1.0	1.0	upper	../fonts/Verdana.ttf
2567352	WORD	wordpools/wasnorm_wordpool.txt	LTP066	ltpFR	15	15	-1	PAW	1029	n/a	-1	1	1.0	1.0	upper	../fonts/Verdana.ttf
2571447	WORD	wordpools/wasnorm_wordpool.txt	LTP066	ltpFR	15	15	-1	SHEEP	1278	n/a	-1	1	1.0	1.0	upper	../fonts/Verdana.ttf
2575584	WORD	wordpools/wasnorm_wordpool.txt	LTP066	ltpFR	15	15	-1	POT	1114	n/a	-1	1	1.0	1.0	upper	../fonts/Verdana.ttf
2579588	WORD	wordpools/wasnorm_wordpool.txt	LTP066	ltpFR	15	15	-1	COB	334	n/a	-1	1	1.0	1.0	upper	../fonts/Verdana.ttf
2583433	WORD	wordpools/wasnorm_wordpool.txt	LTP066	ltpFR	15	15	-1	LAMB	797	n/a	-1	1	1.0	1.0	upper	../fonts/Verdana.ttf
2587429	WORD	wordpools/wasnorm_wordpool.txt	LTP066	ltpFR	15	15	-1	BALLOT	76	n/a	-1	1	1.0	1.0	upper	../fonts/Verdana.ttf
2591324	WORD	wordpools/wasnorm_wordpool.txt	LTP066	ltpFR	15	15	-1	POPE	1105	n/a	-1	1	1.0	1.0	upper	../fonts/Verdana.ttf
2595336	WORD	wordpools/wasnorm_wordpool.txt	LTP066	ltpFR	15	15	-1	MONSTER	912	n/a	-1	1	1.0	1.0	upper	../fonts/Verdana.ttf
2599198	WORD	wordpools/wasnorm_wordpool.txt	LTP066	ltpFR	15	15	-1	TOASTER	1472	n/a	-1	1	1.0	1.0	upper	../fonts/Verdana.ttf
2603052	WORD	wordpools/wasnorm_wordpool.txt	LTP066	ltpFR	15	15	-1	MOSS	918	n/a	-1	1	1.0	1.0	upper	../fonts/Verdana.ttf
2607056	WORD	wordpools/wasnorm_wordpool.txt	LTP066	ltpFR	15	15	-1	LEAF	808	n/a	-1	1	1.0	1.0	upper	../fonts/Verdana.ttf
2611051	WORD	wordpools/wasnorm_wordpool.txt	LTP066	ltpFR	15	15	-1	TRAY	1498	n/a	-1	1	1.0	1.0	upper	../fonts/Verdana.ttf
2614988	WORD	wordpools/wasnorm_wordpool.txt	LTP066	ltpFR	15	15	-1	OVEN	991	n/a	-1	1	1.0	1.0	upper	../fonts/Verdana.ttf
2620700	REC_START	n/a	LTP066	ltpFR	15	15	n/a	n/a	n/a	n/a	n/a	n/a	n/a	n/a	n/a	n/a
2622276	REC_WORD	wordpools/wasnorm_wordpool.txt	LTP066	ltpFR	15	15	-1	MONSTER	912	n/a	-1	n/a	n/a	n/a	n/a	n/a
2623259	REC_WORD	wordpools/wasnorm_wordpool.txt	LTP066	ltpFR	15	15	-1	TOASTER	1472	n/a	-1	n/a	n/a	n/a	n/a	n/a
2624257	REC_WORD	wordpools/wasnorm_wordpool.txt	LTP066	ltpFR	15	15	-1	MOSS	918	n/a	-1	n/a	n/a	n/a	n/a	n/a
2632114	REC_WORD	wordpools/wasnorm_wordpool.txt	LTP066	ltpFR	15	15	-1	OATS	968	n/a	-1	n/a	n/a	n/a	n/a	n/a
2633536	REC_WORD	wordpools/wasnorm_wordpool.txt	LTP066	ltpFR	15	15	-1	BEARD	107	n/a	-1	n/a	n/a	n/a	n/a	n/a
2635636	REC_WORD	wordpools/wasnorm_wordpool.txt	LTP066	ltpFR	15	15	-1	ANIMAL	23	n/a	-1	n/a	n/a	n/a	n/a	n/a
2637985	REC_WORD	wordpools/wasnorm_wordpool.txt	LTP066	ltpFR	15	15	-1	PAW	1029	n/a	-1	n/a	n/a	n/a	n/a	n/a
2639427	REC_WORD	wordpools/wasnorm_wordpool.txt	LTP066	ltpFR	15	15	-1	SHEEP	1278	n/a	-1	n/a	n/a	n/a	n/a	n/a
2642376	REC_WORD	wordpools/wasnorm_wordpool.txt	LTP066	ltpFR	15	15	-1	POT	1114	n/a	-1	n/a	n/a	n/a	n/a	n/a
2644241	REC_WORD	wordpools/wasnorm_wordpool.txt	LTP066	ltpFR	15	15	-1	LAMB	797	n/a	-1	n/a	n/a	n/a	n/a	n/a
2646232	REC_WORD	wordpools/wasnorm_wordpool.txt	LTP066	ltpFR	15	15	-1	COB	334	n/a	-1	n/a	n/a	n/a	n/a	n/a
2699215	WORD	wordpools/wasnorm_wordpool.txt	LTP066	ltpFR	15	16	1	PLASTER	1085	n/a	0	1	0.412841796875	0.57763671875	upper	../fonts/amplitud.ttf
2703202	WORD	wordpools/wasnorm_wordpool.txt	LTP066	ltpFR	15	16	1	CATTLE	261	n/a	1	1	0.412841796875	0.57763671875	upper	../fonts/amplitud.ttf
2707097	WORD	wordpools/wasnorm_wordpool.txt	LTP066	ltpFR	15	16	1	WAGON	1578	n/a	0	1	0.412841796875	0.57763671875	upper	../fonts/amplitud.ttf
2711209	WORD	wordpools/wasnorm_wordpool.txt	LTP066	ltpFR	15	16	1	BRANDY	169	n/a	0	1	0.412841796875	0.57763671875	upper	../fonts/amplitud.ttf
2715038	WORD	wordpools/wasnorm_wordpool.txt	LTP066	ltpFR	15	16	1	BEEF	113	n/a	0	1	0.412841796875	0.57763671875	upper	../fonts/amplitud.ttf
2719050	WORD	wordpools/wasnorm_wordpool.txt	LTP066	ltpFR	15	16	1	ATTORNEY	58	n/a	1	1	0.412841796875	0.57763671875	upper	../fonts/amplitud.ttf
2722962	WORD	wordpools/wasnorm_wordpool.txt	LTP066	ltpFR	15	16	1	FORT	595	n/a	0	1	0.412841796875	0.57763671875	upper	../fonts/amplitud.ttf
2727065	WORD	wordpools/wasnorm_wordpool.txt	LTP066	ltpFR	15	16	1	PEPPER	1047	n/a	0	1	0.412841796875	0.57763671875	upper	../fonts/amplitud.ttf
2731077	WORD	wordpools/wasnorm_wordpool.txt	LTP066	ltpFR	15	16	1	JUDGE	761	n/a	1	1	0.412841796875	0.57763671875	upper	../fonts/amplitud.ttf
2735281	WORD	wordpools/wasnorm_wordpool.txt	LTP066	ltpFR	15	16	1	DOORBELL	487	n/a	0	1	0.412841796875	0.57763671875	upper	../fonts/amplitud.ttf
2739185	WORD	wordpools/wasnorm_wordpool.txt	LTP066	ltpFR	15	16	1	GEM	629	n/a	0	1	0.412841796875	0.57763671875	upper	../fonts/amplitud.ttf
2743130	WORD	wordpools/wasnorm_wordpool.txt	LTP066	ltpFR	15	16	1	SERVER	1272	n/a	1	1	0.412841796875	0.57763671875	upper	../fonts/amplitud.ttf
2747067	WORD	wordpools/wasnorm_wordpool.txt	LTP066	ltpFR	15	16	1	MAID	856	n/a	1	1	0.412841796875	0.57763671875	upper	../fonts/amplitud.ttf
2750929	WORD	wordpools/wasnorm_wordpool.txt	LTP066	ltpFR	15	16	1	DISH	474	n/a	0	1	0.412841796875	0.57763671875	upper	../fonts/amplitud.ttf
2755083	WORD	wordpools/wasnorm_wordpool.txt	LTP066	ltpFR	15	16	1	SANDWICH	1232	n/a	0	1	0.412841796875	0.57763671875	upper	../fonts/amplitud.ttf
2759253	WORD	wordpools/wasnorm_wordpool.txt	LTP066	ltpFR	15	16	1	TECHNICIAN	1443	n/a	1	1	0.412841796875	0.57763671875	upper	../fonts/amplitud.ttf
2764947	REC_START	n/a	LTP066	ltpFR	15	16	n/a	n/a	n/a	n/a	n/a	n/a	n/a	n/a	n/a	n/a
2766453	REC_WORD	wordpools/wasnorm_wordpool.txt	LTP066	ltpFR	15	16	1	SERVER	1272	n/a	1	n/a	n/a	n/a	n/a	n/a
2767730	REC_WORD	wordpools/wasnorm_wordpool.txt	LTP066	ltpFR	15	16	1	TECHNICIAN	1443	n/a	1	n/a	n/a	n/a	n/a	n/a
2769397	REC_WORD	wordpools/wasnorm_wordpool.txt	LTP066	ltpFR	15	16	1	PLASTER	1085	n/a	0	n/a	n/a	n/a	n/a	n/a
2772255	REC_WORD	wordpools/wasnorm_wordpool.txt	LTP066	ltpFR	15	16	n/a	KETTLE	772	n/a	n/a	n/a	n/a	n/a	n/a	n/a
2774066	REC_WORD	wordpools/wasnorm_wordpool.txt	LTP066	ltpFR	15	16	1	WAGON	1578	n/a	0	n/a	n/a	n/a	n/a	n/a
2776770	REC_WORD	wordpools/wasnorm_wordpool.txt	LTP066	ltpFR	15	16	1	BEEF	113	n/a	0	n/a	n/a	n/a	n/a	n/a
2779863	REC_WORD	wordpools/wasnorm_wordpool.txt	LTP066	ltpFR	15	16	1	ATTORNEY	58	n/a	1	n/a	n/a	n/a	n/a	n/a
2856857	REC_START	n/a	LTP066	ltpFR	15	1	n/a	n/a	n/a	n/a	n/a	n/a	n/a	n/a	n/a	n/a
2856889	RECOG_TARGET	n/a	LTP066	ltpFR	15	1	-1	BINDER	127	5	-1	n/a	n/a	n/a	n/a	n/a
2858458	RECOG_RESP	n/a	LTP066	ltpFR	15	1	-1	BINDER	127	n/a	-1	n/a	n/a	n/a	n/a	n/a
2859271	RECOG_CONF	n/a	LTP066	ltpFR	15	1	-1	BINDER	127	5	-1	n/a	n/a	n/a	n/a	n/a
2860809	RECOG_LURE	n/a	LTP066	ltpFR	15	1	n/a	MISTER	901	4	n/a	n/a	n/a	n/a	n/a	n/a
2861681	RECOG_RESP	n/a	LTP066	ltpFR	15	1	n/a	MISTER	901	n/a	n/a	n/a	n/a	n/a	n/a	n/a
2862129	RECOG_CONF	n/a	LTP066	ltpFR	15	1	n/a	MISTER	901	4	n/a	n/a	n/a	n/a	n/a	n/a
2863664	RECOG_LURE	n/a	LTP066	ltpFR	15	1	n/a	SHOELACE	1289	4	n/a	n/a	n/a	n/a	n/a	n/a
2864794	RECOG_RESP	n/a	LTP066	ltpFR	15	1	n/a	SHOELACE	1289	n/a	n/a	n/a	n/a	n/a	n/a	n/a
2865184	RECOG_CONF	n/a	LTP066	ltpFR	15	1	n/a	SHOELACE	1289	4	n/a	n/a	n/a	n/a	n/a	n/a
2866785	RECOG_LURE	n/a	LTP066	ltpFR	15	1	n/a	ERASER	538	5	n/a	n/a	n/a	n/a	n/a	n/a
2867518	RECOG_RESP	n/a	LTP066	ltpFR	15	1	n/a	ERASER	538	n/a	n/a	n/a	n/a	n/a	n/a	n/a
2867957	RECOG_CONF	n/a	LTP066	ltpFR	15	1	n/a	ERASER	538	5	n/a	n/a	n/a	n/a	n/a	n/a
2869407	RECOG_TARGET	n/a	LTP066	ltpFR	15	1	1	ROACH	1195	5	1	n/a	n/a	n/a	n/a	n/a
2870072	RECOG_RESP	n/a	LTP066	ltpFR	15	1	1	ROACH	1195	n/a	1	n/a	n/a	n/a	n/a	n/a
2870491	RECOG_CONF	n/a	LTP066	ltpFR	15	1	1	ROACH	1195	5	1	n/a	n/a	n/a	n/a	n/a
2871896	RECOG_LURE	n/a	LTP066	ltpFR	15	1	n/a	CRIB	407	4	n/a	n/a	n/a	n/a	n/a	n/a
2872736	RECOG_RESP	n/a	LTP066	ltpFR	15	1	n/a	CRIB	407	n/a	n/a	n/a	n/a	n/a	n/a	n/a
2873058	RECOG_CONF	n/a	LTP066	ltpFR	15	1	n/a	CRIB	407	4	n/a	n/a	n/a	n/a	n/a	n/a
2874576	RECOG_LURE	n/a	LTP066	ltpFR	15	1	n/a	POET	1095	4	n/a	n/a	n/a	n/a	n/a	n/a
2875410	RECOG_RESP	n/a	LTP066	ltpFR	15	1	n/a	POET	1095	n/a	n/a	n/a	n/a	n/a	n/a	n/a
2875727	RECOG_CONF	n/a	LTP066	ltpFR	15	1	n/a	POET	1095	4	n/a	n/a	n/a	n/a	n/a	n/a
2877115	RECOG_TARGET	n/a	LTP066	ltpFR	15	1	-1	BEAN	105	5	-1	n/a	n/a	n/a	n/a	n/a
2877824	RECOG_RESP	n/a	LTP066	ltpFR	15	1	-1	BEAN	105	n/a	-1	n/a	n/a	n/a	n/a	n/a
2878219	RECOG_CONF	n/a	LTP066	ltpFR	15	1	-1	BEAN	105	5	-1	n/a	n/a	n/a	n/a	n/a
2879537	RECOG_LURE	n/a	LTP066	ltpFR	15	1	n/a	PASTRY	1022	4	n/a	n/a	n/a	n/a	n/a	n/a
2880797	RECOG_RESP	n/a	LTP066	ltpFR	15	1	n/a	PASTRY	1022	n/a	n/a	n/a	n/a	n/a	n/a	n/a
2881226	RECOG_CONF	n/a	LTP066	ltpFR	15	1	n/a	PASTRY	1022	4	n/a	n/a	n/a	n/a	n/a	n/a
2882825	RECOG_TARGET	n/a	LTP066	ltpFR	15	1	-1	TUTU	1524	5	-1	n/a	n/a	n/a	n/a	n/a
2883481	RECOG_RESP	n/a	LTP066	ltpFR	15	1	-1	TUTU	1524	n/a	-1	n/a	n/a	n/a	n/a	n/a
2883886	RECOG_CONF	n/a	LTP066	ltpFR	15	1	-1	TUTU	1524	5	-1	n/a	n/a	n/a	n/a	n/a
2885281	RECOG_LURE	n/a	LTP066	ltpFR	15	1	n/a	CEMETERY	269	3	n/a	n/a	n/a	n/a	n/a	n/a
2886335	RECOG_RESP	n/a	LTP066	ltpFR	15	1	n/a	CEMETERY	269	n/a	n/a	n/a	n/a	n/a	n/a	n/a
2886899	RECOG_CONF	n/a	LTP066	ltpFR	15	1	n/a	CEMETERY	269	3	n/a	n/a	n/a	n/a	n/a	n/a
2888302	RECOG_TARGET	n/a	LTP066	ltpFR	15	1	-1	KEEPER	769	5	-1	n/a	n/a	n/a	n/a	n/a
2889168	RECOG_RESP	n/a	LTP066	ltpFR	15	1	-1	KEEPER	769	n/a	-1	n/a	n/a	n/a	n/a	n/a
2889568	RECOG_CONF	n/a	LTP066	ltpFR	15	1	-1	KEEPER	769	5	-1	n/a	n/a	n/a	n/a	n/a
2890916	RECOG_LURE	n/a	LTP066	ltpFR	15	1	n/a	BUILDER	190	4	n/a	n/a	n/a	n/a	n/a	n/a
2891912	RECOG_RESP	n/a	LTP066	ltpFR	15	1	n/a	BUILDER	190	n/a	n/a	n/a	n/a	n/a	n/a	n/a
2892255	RECOG_CONF	n/a	LTP066	ltpFR	15	1	n/a	BUILDER	190	4	n/a	n/a	n/a	n/a	n/a	n/a
2893778	RECOG_TARGET	n/a	LTP066	ltpFR	15	1	-1	PUDDING	1139	5	-1	n/a	n/a	n/a	n/a	n/a
2894781	RECOG_RESP	n/a	LTP066	ltpFR	15	1	-1	PUDDING	1139	n/a	-1	n/a	n/a	n/a	n/a	n/a
2895174	RECOG_CONF	n/a	LTP066	ltpFR	15	1	-1	PUDDING	1139	5	-1	n/a	n/a	n/a	n/a	n/a
2896609	RECOG_LURE	n/a	LTP066	ltpFR	15	1	n/a	MOTOR	922	3	n/a	n/a	n/a	n/a	n/a	n/a
2897455	RECOG_RESP	n/a	LTP066	ltpFR	15	1	n/a	MOTOR	922	n/a	n/a	n/a	n/a	n/a	n/a	n/a
2897837	RECOG_CONF	n/a	LTP066	ltpFR	15	1	n/a	MOTOR	922	3	n/a	n/a	n/a	n/a	n/a	n/a
2899306	RECOG_TARGET	n/a	LTP066	ltpFR	15	1	1	CABIN	211	4	0	n/a	n/a	n/a	n/a	n/a
2900353	RECOG_RESP	n/a	LTP066	ltpFR	15	1	1	CABIN	211	n/a	0	n/a	n/a	n/a	n/a	n/a
2900842	RECOG_CONF	n/a	LTP066	ltpFR	15	1	1	CABIN	211	4	0	n/a	n/a	n/a	n/a	n/a
2902161	RECOG_LURE	n/a	LTP066	ltpFR	15	1	n/a	ARTERY	41	5	n/a	n/a	n/a	n/a	n/a	n/a
2903391	RECOG_RESP	n/a	LTP066	ltpFR	15	1	n/a	ARTERY	41	n/a	n/a	n/a	n/a	n/a	n/a	n/a
2903728	RECOG_CONF	n/a	LTP066	ltpFR	15	1	n/a	ARTERY	41	5	n/a	n/a	n/a	n/a	n/a	n/a
2905191	RECOG_LURE	n/a	LTP066	ltpFR	15	1	n/a	ALMOND	18	4	n/a	n/a	n/a	n/a	n/a	n/a
2906020	RECOG_RESP	n/a	LTP066	ltpFR	15	1	n/a	ALMOND	18	n/a	n/a	n/a	n/a	n/a	n/a	n/a
2906312	RECOG_CONF	n/a	LTP066	ltpFR	15	1	n/a	ALMOND	18	4	n/a	n/a	n/a	n/a	n/a	n/a
2907795	RECOG_TARGET	n/a	LTP066	ltpFR	15	1	1	CHERRY	293	4	1	n/a	n/a	n/a	n/a	n/a
2909148	RECOG_RESP	n/a	LTP066	ltpFR	15	1	1	CHERRY	293	n/a	1	n/a	n/a	n/a	n/a	n/a
2909465	RECOG_CONF	n/a	LTP066	ltpFR	15	1	1	CHERRY	293	4	1	n/a	n/a	n/a	n/a	n/a
2910884	RECOG_TARGET	n/a	LTP066	ltpFR	15	1	0	TOY	1492	5	0	n/a	n/a	n/a	n/a	n/a
2911707	RECOG_RESP	n/a	LTP066	ltpFR	15	1	0	TOY	1492	n/a	0	n/a	n/a	n/a	n/a	n/a
2912083	RECOG_CONF	n/a	LTP066	ltpFR	15	1	0	TOY	1492	5	0	n/a	n/a	n/a	n/a	n/a
2915424	REC_START	n/a	LTP066	ltpFR	15	2	n/a	n/a	n/a	n/a	n/a	n/a	n/a	n/a	n/a	n/a
2915454	RECOG_TARGET	n/a	LTP066	ltpFR	15	2	0	BRUNETTE	181	5	1	n/a	n/a	n/a	n/a	n/a
2916287	RECOG_RESP	n/a	LTP066	ltpFR	15	2	0	BRUNETTE	181	n/a	1	n/a	n/a	n/a	n/a	n/a
2916661	RECOG_CONF	n/a	LTP066	ltpFR	15	2	0	BRUNETTE	181	5	1	n/a	n/a	n/a	n/a	n/a
2918084	RECOG_LURE	n/a	LTP066	ltpFR	15	2	n/a	WHISTLE	1606	4	n/a	n/a	n/a	n/a	n/a	n/a
2919130	RECOG_RESP	n/a	LTP066	ltpFR	15	2	n/a	WHISTLE	1606	n/a	n/a	n/a	n/a	n/a	n/a	n/a
2919439	RECOG_CONF	n/a	LTP066	ltpFR	15	2	n/a	WHISTLE	1606	4	n/a	n/a	n/a	n/a	n/a	n/a
2920947	RECOG_LURE	n/a	LTP066	ltpFR	15	2	n/a	ARTICLE	42	4	n/a	n/a	n/a	n/a	n/a	n/a
2921854	RECOG_RESP	n/a	LTP066	ltpFR	15	2	n/a	ARTICLE	42	n/a	n/a	n/a	n/a	n/a	n/a	n/a
2922168	RECOG_CONF	n/a	LTP066	ltpFR	15	2	n/a	ARTICLE	42	4	n/a	n/a	n/a	n/a	n/a	n/a
2923702	RECOG_LURE	n/a	LTP066	ltpFR	15	2	n/a	BACKBONE	66	4	n/a	n/a	n/a	n/a	n/a	n/a
2924817	RECOG_RESP	n/a	LTP066	ltpFR	15	2	n/a	BACKBONE	66	n/a	n/a	n/a	n/a	n/a	n/a	n/a
2925132	RECOG_CONF	n/a	LTP066	ltpFR	15	2	n/a	BACKBONE	66	4	n/a	n/a	n/a	n/a	n/a	n/a
2926624	RECOG_TARGET	n/a	LTP066	ltpFR	15	2	-1	TRAY	1498	4	-1	n/a	n/a	n/a	n/a	n/a
2927521	RECOG_RESP	n/a	LTP066	ltpFR	15	2	-1	TRAY	1498	n/a	-1	n/a	n/a	n/a	n/a	n/a
2927808	RECOG_CONF	n/a	LTP066	ltpFR	15	2	-1	TRAY	1498	4	-1	n/a	n/a	n/a	n/a	n/a
2929321	RECOG_LURE	n/a	LTP066	ltpFR	15	2	n/a	SHACK	1273	4	n/a	n/a	n/a	n/a	n/a	n/a
2930135	RECOG_RESP	n/a	LTP066	ltpFR	15	2	n/a	SHACK	1273	n/a	n/a	n/a	n/a	n/a	n/a	n/a
2930477	RECOG_CONF	n/a	LTP066	ltpFR	15	2	n/a	SHACK	1273	4	n/a	n/a	n/a	n/a	n/a	n/a
2931909	RECOG_LURE	n/a	LTP066	ltpFR	15	2	n/a	ATLAS	53	5	n/a	n/a	n/a	n/a	n/a	n/a
2932839	RECOG_RESP	n/a	LTP066	ltpFR	15	2	n/a	ATLAS	53	n/a	n/a	n/a	n/a	n/a	n/a	n/a
2933122	RECOG_CONF	n/a	LTP066	ltpFR	15	2	n/a	ATLAS	53	5	n/a	n/a	n/a	n/a	n/a	n/a
2934481	RECOG_LURE	n/a	LTP066	ltpFR	15	2	n/a	ESCALATOR	539	5	n/a	n/a	n/a	n/a	n/a	n/a
2935418	RECOG_RESP	n/a	LTP066	ltpFR	15	2	n/a	ESCALATOR	539	n/a	n/a	n/a	n/a	n/a	n/a	n/a
2935695	RECOG_CONF	n/a	LTP066	ltpFR	15	2	n/a	ESCALATOR	539	5	n/a	n/a	n/a	n/a	n/a	n/a
2937053	RECOG_TARGET	n/a	LTP066	ltpFR	15	2	0	BASKET	95	5	1	n/a	n/a	n/a	n/a	n/a
2937928	RECOG_RESP	n/a	LTP066	ltpFR	15	2	0	BASKET	95	n/a	1	n/a	n/a	n/a	n/a	n/a
2938278	RECOG_CONF	n/a	LTP066	ltpFR	15	2	0	BASKET	95	5	1	n/a	n/a	n/a	n/a	n/a
2939675	RECOG_LURE	n/a	LTP066	ltpFR	15	2	n/a	PRISONER	1128	5	n/a	n/a	n/a	n/a	n/a	n/a
2940711	RECOG_RESP	n/a	LTP066	ltpFR	15	2	n/a	PRISONER	1128	n/a	n/a	n/a	n/a	n/a	n/a	n/a
2940998	RECOG_CONF	n/a	LTP066	ltpFR	15	2	n/a	PRISONER	1128	5	n/a	n/a	n/a	n/a	n/a	n/a
2942572	RECOG_LURE	n/a	LTP066	ltpFR	15	2	n/a	SIDING	1304	5	n/a	n/a	n/a	n/a	n/a	n/a
2943345	RECOG_RESP	n/a	LTP066	ltpFR	15	2	n/a	SIDING	1304	n/a	n/a	n/a	n/a	n/a	n/a	n/a
2943598	RECOG_CONF	n/a	LTP066	ltpFR	15	2	n/a	SIDING	1304	5	n/a	n/a	n/a	n/a	n/a	n/a
2945019	RECOG_LURE	n/a	LTP066	ltpFR	15	2	n/a	WARDROBE	1587	5	n/a	n/a	n/a	n/a	n/a	n/a
2945870	RECOG_RESP	n/a	LTP066	ltpFR	15	2	n/a	WARDROBE	1587	n/a	n/a	n/a	n/a	n/a	n/a	n/a
2946141	RECOG_CONF	n/a	LTP066	ltpFR	15	2	n/a	WARDROBE	1587	5	n/a	n/a	n/a	n/a	n/a	n/a
2947674	RECOG_TARGET	n/a	LTP066	ltpFR	15	2	-1	JUNGLE	764	5	-1	n/a	n/a	n/a	n/a	n/a
2948369	RECOG_RESP	n/a	LTP066	ltpFR	15	2	-1	JUNGLE	764	n/a	-1	n/a	n/a	n/a	n/a	n/a
2948768	RECOG_CONF	n/a	LTP066	ltpFR	15	2	-1	JUNGLE	764	5	-1	n/a	n/a	n/a	n/a	n/a
2950105	RECOG_LURE	n/a	LTP066	ltpFR	15	2	n/a	PRINTER	1126	5	n/a	n/a	n/a	n/a	n/a	n/a
2951028	RECOG_RESP	n/a	LTP066	ltpFR	15	2	n/a	PRINTER	1126	n/a	n/a	n/a	n/a	n/a	n/a	n/a
2951401	RECOG_CONF	n/a	LTP066	ltpFR	15	2	n/a	PRINTER	1126	5	n/a	n/a	n/a	n/a	n/a	n/a
2952885	RECOG_LURE	n/a	LTP066	ltpFR	15	2	n/a	WASHER	1592	4	n/a	n/a	n/a	n/a	n/a	n/a
2956715	RECOG_RESP	n/a	LTP066	ltpFR	15	2	n/a	WASHER	1592	n/a	n/a	n/a	n/a	n/a	n/a	n/a
2957153	RECOG_CONF	n/a	LTP066	ltpFR	15	2	n/a	WASHER	1592	4	n/a	n/a	n/a	n/a	n/a	n/a
2958820	RECOG_TARGET	n/a	LTP066	ltpFR	15	2	1	GEM	629	5	0	n/a	n/a	n/a	n/a	n/a
2959563	RECOG_RESP	n/a	LTP066	ltpFR	15	2	1	GEM	629	n/a	0	n/a	n/a	n/a	n/a	n/a
2959974	RECOG_CONF	n/a	LTP066	ltpFR	15	2	1	GEM	629	5	0	n/a	n/a	n/a	n/a	n/a
2961275	RECOG_LURE	n/a	LTP066	ltpFR	15	2	n/a	MAT	877	4	n/a	n/a	n/a	n/a	n/a	n/a
2962133	RECOG_RESP	n/a	LTP066	ltpFR	15	2	n/a	MAT	877	n/a	n/a	n/a	n/a	n/a	n/a	n/a
2962831	RECOG_CONF	n/a	LTP066	ltpFR	15	2	n/a	MAT	877	4	n/a	n/a	n/a	n/a	n/a	n/a
2964430	RECOG_LURE	n/a	LTP066	ltpFR	15	2	n/a	GIFT	635	5	n/a	n/a	n/a	n/a	n/a	n/a
2965166	RECOG_RESP	n/a	LTP066	ltpFR	15	2	n/a	GIFT	635	n/a	n/a	n/a	n/a	n/a	n/a	n/a
2965482	RECOG_CONF	n/a	LTP066	ltpFR	15	2	n/a	GIFT	635	5	n/a	n/a	n/a	n/a	n/a	n/a
2966902	RECOG_LURE	n/a	LTP066	ltpFR	15	2	n/a	LOBBY	836	5	n/a	n/a	n/a	n/a	n/a	n/a
2967735	RECOG_RESP	n/a	LTP066	ltpFR	15	2	n/a	LOBBY	836	n/a	n/a	n/a	n/a	n/a	n/a	n/a
2968023	RECOG_CONF	n/a	LTP066	ltpFR	15	2	n/a	LOBBY	836	5	n/a	n/a	n/a	n/a	n/a	n/a
2969432	RECOG_LURE	n/a	LTP066	ltpFR	15	2	n/a	CHIMPANZEE	302	4	n/a	n/a	n/a	n/a	n/a	n/a
2970309	RECOG_RESP	n/a	LTP066	ltpFR	15	2	n/a	CHIMPANZEE	302	n/a	n/a	n/a	n/a	n/a	n/a	n/a
2970783	RECOG_CONF	n/a	LTP066	ltpFR	15	2	n/a	CHIMPANZEE	302	4	n/a	n/a	n/a	n/a	n/a	n/a
2979591	REC_START	n/a	LTP066	ltpFR	15	3	n/a	n/a	n/a	n/a	n/a	n/a	n/a	n/a	n/a	n/a
2979620	RECOG_TARGET	n/a	LTP066	ltpFR	15	3	1	QUAIL	1147	5	1	n/a	n/a	n/a	n/a	n/a
2980359	RECOG_RESP	n/a	LTP066	ltpFR	15	3	1	QUAIL	1147	n/a	1	n/a	n/a	n/a	n/a	n/a
2980783	RECOG_CONF	n/a	LTP066	ltpFR	15	3	1	QUAIL	1147	5	1	n/a	n/a	n/a	n/a	n/a
2982176	RECOG_LURE	n/a	LTP066	ltpFR	15	3	n/a	CARRIAGE	248	4	n/a	n/a	n/a	n/a	n/a	n/a
2983143	RECOG_RESP	n/a	LTP066	ltpFR	15	3	n/a	CARRIAGE	248	n/a	n/a	n/a	n/a	n/a	n/a	n/a
2983448	RECOG_CONF	n/a	LTP066	ltpFR	15	3	n/a	CARRIAGE	248	4	n/a	n/a	n/a	n/a	n/a	n/a
2984873	RECOG_TARGET	n/a	LTP066	ltpFR	15	3	0	PALACE	1006	4	1	n/a	n/a	n/a	n/a	n/a
2985627	RECOG_RESP	n/a	LTP066	ltpFR	15	3	0	PALACE	1006	n/a	1	n/a	n/a	n/a	n/a	n/a
2985993	RECOG_CONF	n/a	LTP066	ltpFR	15	3	0	PALACE	1006	4	1	n/a	n/a	n/a	n/a	n/a
2987320	RECOG_TARGET	n/a	LTP066	ltpFR	15	3	0	SENATOR	1268	4	1	n/a	n/a	n/a	n/a	n/a
2988161	RECOG_RESP	n/a	LTP066	ltpFR	15	3	0	SENATOR	1268	n/a	1	n/a	n/a	n/a	n/a	n/a
2988477	RECOG_CONF	n/a	LTP066	ltpFR	15	3	0	SENATOR	1268	4	1	n/a	n/a	n/a	n/a	n/a
2989942	RECOG_TARGET	n/a	LTP066	ltpFR	15	3	1	FIREMAN	569	5	1	n/a	n/a	n/a	n/a	n/a
2990850	RECOG_RESP	n/a	LTP066	ltpFR	15	3	1	FIREMAN	569	n/a	1	n/a	n/a	n/a	n/a	n/a
2991299	RECOG_CONF	n/a	LTP066	ltpFR	15	3	1	FIREMAN	569	5	1	n/a	n/a	n/a	n/a	n/a
2992762	RECOG_TARGET	n/a	LTP066	ltpFR	15	3	0	SOCKET	1340	5	0	n/a	n/a	n/a	n/a	n/a
2993634	RECOG_RESP	n/a	LTP066	ltpFR	15	3	0	SOCKET	1340	n/a	0	n/a	n/a	n/a	n/a	n/a
2994018	RECOG_CONF	n/a	LTP066	ltpFR	15	3	0	SOCKET	1340	5	0	n/a	n/a	n/a	n/a	n/a
2995285	RECOG_TARGET	n/a	LTP066	ltpFR	15	3	0	PILOT	1070	5	1	n/a	n/a	n/a	n/a	n/a
2996098	RECOG_RESP	n/a	LTP066	ltpFR	15	3	0	PILOT	1070	n/a	1	n/a	n/a	n/a	n/a	n/a
2996507	RECOG_CONF	n/a	LTP066	ltpFR	15	3	0	PILOT	1070	5	1	n/a	n/a	n/a	n/a	n/a
2997773	RECOG_LURE	n/a	LTP066	ltpFR	15	3	n/a	WIRE	1616	4	n/a	n/a	n/a	n/a	n/a	n/a
2998717	RECOG_RESP	n/a	LTP066	ltpFR	15	3	n/a	WIRE	1616	n/a	n/a	n/a	n/a	n/a	n/a	n/a
2999040	RECOG_CONF	n/a	LTP066	ltpFR	15	3	n/a	WIRE	1616	4	n/a	n/a	n/a	n/a	n/a	n/a
3000513	RECOG_TARGET	n/a	LTP066	ltpFR	15	3	0	SEED	1266	4	0	n/a	n/a	n/a	n/a	n/a
3003003	RECOG_RESP	n/a	LTP066	ltpFR	15	3	0	SEED	1266	n/a	0	n/a	n/a	n/a	n/a	n/a
3003491	RECOG_CONF	n/a	LTP066	ltpFR	15	3	0	SEED	1266	4	0	n/a	n/a	n/a	n/a	n/a
3004916	RECOG_LURE	n/a	LTP066	ltpFR	15	3	n/a	COLUMN	350	4	n/a	n/a	n/a	n/a	n/a	n/a
3006559	RECOG_RESP	n/a	LTP066	ltpFR	15	3	n/a	COLUMN	350	n/a	n/a	n/a	n/a	n/a	n/a	n/a
3006894	RECOG_CONF	n/a	LTP066	ltpFR	15	3	n/a	COLUMN	350	4	n/a	n/a	n/a	n/a	n/a	n/a
3008445	RECOG_LURE	n/a	LTP066	ltpFR	15	3	n/a	SODA	1341	4	n/a	n/a	n/a	n/a	n/a	n/a
3009169	RECOG_RESP	n/a	LTP066	ltpFR	15	3	n/a	SODA	1341	n/a	n/a	n/a	n/a	n/a	n/a	n/a
3009472	RECOG_CONF	n/a	LTP066	ltpFR	15	3	n/a	SODA	1341	4	n/a	n/a	n/a	n/a	n/a	n/a
3010884	RECOG_TARGET	n/a	LTP066	ltpFR	15	3	0	RADISH	1158	4	0	n/a	n/a	n/a	n/a	n/a
3011593	RECOG_RESP	n/a	LTP066	ltpFR	15	3	0	RADISH	1158	n/a	0	n/a	n/a	n/a	n/a	n/a
3011974	RECOG_CONF	n/a	LTP066	ltpFR	15	3	0	RADISH	1158	4	0	n/a	n/a	n/a	n/a	n/a
3013364	RECOG_TARGET	n/a	LTP066	ltpFR	15	3	-1	BALLOT	76	4	-1	n/a	n/a	n/a	n/a	n/a
3014122	RECOG_RESP	n/a	LTP066	ltpFR	15	3	-1	BALLOT	76	n/a	-1	n/a	n/a	n/a	n/a	n/a
3014511	RECOG_CONF	n/a	LTP066	ltpFR	15	3	-1	BALLOT	76	4	-1	n/a	n/a	n/a	n/a	n/a
3015845	RECOG_LURE	n/a	LTP066	ltpFR	15	3	n/a	TUSK	1523	5	n/a	n/a	n/a	n/a	n/a	n/a
3016642	RECOG_RESP	n/a	LTP066	ltpFR	15	3	n/a	TUSK	1523	n/a	n/a	n/a	n/a	n/a	n/a	n/a
3016949	RECOG_CONF	n/a	LTP066	ltpFR	15	3	n/a	TUSK	1523	5	n/a	n/a	n/a	n/a	n/a	n/a
3018683	RECOG_TARGET	n/a	LTP066	ltpFR	15	3	1	CUCUMBER	421	4	1	n/a	n/a	n/a	n/a	n/a
3019575	RECOG_RESP	n/a	LTP066	ltpFR	15	3	1	CUCUMBER	421	n/a	1	n/a	n/a	n/a	n/a	n/a
3019872	RECOG_CONF	n/a	LTP066	ltpFR	15	3	1	CUCUMBER	421	4	1	n/a	n/a	n/a	n/a	n/a
3021413	RECOG_LURE	n/a	LTP066	ltpFR	15	3	n/a	CANE	231	4	n/a	n/a	n/a	n/a	n/a	n/a
3022513	RECOG_RESP	n/a	LTP066	ltpFR	15	3	n/a	CANE	231	n/a	n/a	n/a	n/a	n/a	n/a	n/a
3022987	RECOG_CONF	n/a	LTP066	ltpFR	15	3	n/a	CANE	231	4	n/a	n/a	n/a	n/a	n/a	n/a
3024401	RECOG_TARGET	n/a	LTP066	ltpFR	15	3	0	SKETCH	1315	4	1	n/a	n/a	n/a	n/a	n/a
3025237	RECOG_RESP	n/a	LTP066	ltpFR	15	3	0	SKETCH	1315	n/a	1	n/a	n/a	n/a	n/a	n/a
3025519	RECOG_CONF	n/a	LTP066	ltpFR	15	3	0	SKETCH	1315	4	1	n/a	n/a	n/a	n/a	n/a
3026923	RECOG_LURE	n/a	LTP066	ltpFR	15	3	n/a	NURSE	963	4	n/a	n/a	n/a	n/a	n/a	n/a
3027681	RECOG_RESP	n/a	LTP066	ltpFR	15	3	n/a	NURSE	963	n/a	n/a	n/a	n/a	n/a	n/a	n/a
3028087	RECOG_CONF	n/a	LTP066	ltpFR	15	3	n/a	NURSE	963	4	n/a	n/a	n/a	n/a	n/a	n/a
3029429	RECOG_TARGET	n/a	LTP066	ltpFR	15	3	1	NOMAD	955	5	1	n/a	n/a	n/a	n/a	n/a
3030141	RECOG_RESP	n/a	LTP066	ltpFR	15	3	1	NOMAD	955	n/a	1	n/a	n/a	n/a	n/a	n/a
3030506	RECOG_CONF	n/a	LTP066	ltpFR	15	3	1	NOMAD	955	5	1	n/a	n/a	n/a	n/a	n/a
3031884	RECOG_LURE	n/a	LTP066	ltpFR	15	3	n/a	CEILING	265	4	n/a	n/a	n/a	n/a	n/a	n/a
3033259	RECOG_RESP	n/a	LTP066	ltpFR	15	3	n/a	CEILING	265	n/a	n/a	n/a	n/a	n/a	n/a	n/a
3033534	RECOG_CONF	n/a	LTP066	ltpFR	15	3	n/a	CEILING	265	4	n/a	n/a	n/a	n/a	n/a	n/a
3043984	REC_START	n/a	LTP066	ltpFR	15	4	n/a	n/a	n/a	n/a	n/a	n/a	n/a	n/a	n/a	n/a
3044012	RECOG_TARGET	n/a	LTP066	ltpFR	15	4	1	PRINCESS	1125	5	1	n/a	n/a	n/a	n/a	n/a
3044827	RECOG_RESP	n/a	LTP066	ltpFR	15	4	1	PRINCESS	1125	n/a	1	n/a	n/a	n/a	n/a	n/a
3045215	RECOG_CONF	n/a	LTP066	ltpFR	15	4	1	PRINCESS	1125	5	1	n/a	n/a	n/a	n/a	n/a
3046500	RECOG_TARGET	n/a	LTP066	ltpFR	15	4	1	BRANDY	169	5	0	n/a	n/a	n/a	n/a	n/a
3047137	RECOG_RESP	n/a	LTP066	ltpFR	15	4	1	BRANDY	169	n/a	0	n/a	n/a	n/a	n/a	n/a
3047509	RECOG_CONF	n/a	LTP066	ltpFR	15	4	1	BRANDY	169	5	0	n/a	n/a	n/a	n/a	n/a
3048814	RECOG_TARGET	n/a	LTP066	ltpFR	15	4	0	BOAT	144	4	1	n/a	n/a	n/a	n/a	n/a
3049556	RECOG_RESP	n/a	LTP066	ltpFR	15	4	0	BOAT	144	n/a	1	n/a	n/a	n/a	n/a	n/a
3049968	RECOG_CONF	n/a	LTP066	ltpFR	15	4	0	BOAT	144	4	1	n/a	n/a	n/a	n/a	n/a
3051237	RECOG_TARGET	n/a	LTP066	ltpFR	15	4	0	STAPLE	1371	5	1	n/a	n/a	n/a	n/a	n/a
3051911	RECOG_RESP	n/a	LTP066	ltpFR	15	4	0	STAPLE	1371	n/a	1	n/a	n/a	n/a	n/a	n/a
3052244	RECOG_CONF	n/a	LTP066	ltpFR	15	4	0	STAPLE	1371	5	1	n/a	n/a	n/a	n/a	n/a
3053559	RECOG_TARGET	n/a	LTP066	ltpFR	15	4	-1	PILL	1068	4	-1	n/a	n/a	n/a	n/a	n/a
3054225	RECOG_RESP	n/a	LTP066	ltpFR	15	4	-1	PILL	1068	n/a	-1	n/a	n/a	n/a	n/a	n/a
3054641	RECOG_CONF	n/a	LTP066	ltpFR	15	4	-1	PILL	1068	4	-1	n/a	n/a	n/a	n/a	n/a
3055906	RECOG_LURE	n/a	LTP066	ltpFR	15	4	n/a	COURT	391	4	n/a	n/a	n/a	n/a	n/a	n/a
3057049	RECOG_RESP	n/a	LTP066	ltpFR	15	4	n/a	COURT	391	n/a	n/a	n/a	n/a	n/a	n/a	n/a
3057498	RECOG_CONF	n/a	LTP066	ltpFR	15	4	n/a	COURT	391	4	n/a	n/a	n/a	n/a	n/a	n/a
3058919	RECOG_TARGET	n/a	LTP066	ltpFR	15	4	1	COBBLER	335	4	0	n/a	n/a	n/a	n/a	n/a
3059718	RECOG_RESP	n/a	LTP066	ltpFR	15	4	1	COBBLER	335	n/a	0	n/a	n/a	n/a	n/a	n/a
3060121	RECOG_CONF	n/a	LTP066	ltpFR	15	4	1	COBBLER	335	4	0	n/a	n/a	n/a	n/a	n/a
3061450	RECOG_LURE	n/a	LTP066	ltpFR	15	4	n/a	SNAIL	1332	4	n/a	n/a	n/a	n/a	n/a	n/a
3062317	RECOG_RESP	n/a	LTP066	ltpFR	15	4	n/a	SNAIL	1332	n/a	n/a	n/a	n/a	n/a	n/a	n/a
3062607	RECOG_CONF	n/a	LTP066	ltpFR	15	4	n/a	SNAIL	1332	4	n/a	n/a	n/a	n/a	n/a	n/a
3064122	RECOG_TARGET	n/a	LTP066	ltpFR	15	4	1	PUPIL	1143	4	1	n/a	n/a	n/a	n/a	n/a
3065280	RECOG_RESP	n/a	LTP066	ltpFR	15	4	1	PUPIL	1143	n/a	1	n/a	n/a	n/a	n/a	n/a
3065725	RECOG_CONF	n/a	LTP066	ltpFR	15	4	1	PUPIL	1143	4	1	n/a	n/a	n/a	n/a	n/a
3067126	RECOG_LURE	n/a	LTP066	ltpFR	15	4	n/a	CANDLE	229	4	n/a	n/a	n/a	n/a	n/a	n/a
3069835	RECOG_RESP	n/a	LTP066	ltpFR	15	4	n/a	CANDLE	229	n/a	n/a	n/a	n/a	n/a	n/a	n/a
3070141	RECOG_CONF	n/a	LTP066	ltpFR	15	4	n/a	CANDLE	229	4	n/a	n/a	n/a	n/a	n/a	n/a
3071496	RECOG_LURE	n/a	LTP066	ltpFR	15	4	n/a	ROUGE	1213	4	n/a	n/a	n/a	n/a	n/a	n/a
3072155	RECOG_RESP	n/a	LTP066	ltpFR	15	4	n/a	ROUGE	1213	n/a	n/a	n/a	n/a	n/a	n/a	n/a
3072457	RECOG_CONF	n/a	LTP066	ltpFR	15	4	n/a	ROUGE	1213	4	n/a	n/a	n/a	n/a	n/a	n/a
3073835	RECOG_LURE	n/a	LTP066	ltpFR	15	4	n/a	CHAUFFEUR	283	5	n/a	n/a	n/a	n/a	n/a	n/a
3074584	RECOG_RESP	n/a	LTP066	ltpFR	15	4	n/a	CHAUFFEUR	283	n/a	n/a	n/a	n/a	n/a	n/a	n/a
3074887	RECOG_CONF	n/a	LTP066	ltpFR	15	4	n/a	CHAUFFEUR	283	5	n/a	n/a	n/a	n/a	n/a	n/a
3076216	RECOG_TARGET	n/a	LTP066	ltpFR	15	4	0	STRING	1394	5	0	n/a	n/a	n/a	n/a	n/a
3076874	RECOG_RESP	n/a	LTP066	ltpFR	15	4	0	STRING	1394	n/a	0	n/a	n/a	n/a	n/a	n/a
3077219	RECOG_CONF	n/a	LTP066	ltpFR	15	4	0	STRING	1394	5	0	n/a	n/a	n/a	n/a	n/a
3078496	RECOG_LURE	n/a	LTP066	ltpFR	15	4	n/a	SUITCASE	1403	4	n/a	n/a	n/a	n/a	n/a	n/a
3079323	RECOG_RESP	n/a	LTP066	ltpFR	15	4	n/a	SUITCASE	1403	n/a	n/a	n/a	n/a	n/a	n/a	n/a
3079757	RECOG_CONF	n/a	LTP066	ltpFR	15	4	n/a	SUITCASE	1403	4	n/a	n/a	n/a	n/a	n/a	n/a
3081143	RECOG_LURE	n/a	LTP066	ltpFR	15	4	n/a	HORNET	718	4	n/a	n/a	n/a	n/a	n/a	n/a
3082741	RECOG_RESP	n/a	LTP066	ltpFR	15	4	n/a	HORNET	718	n/a	n/a	n/a	n/a	n/a	n/a	n/a
3083230	RECOG_CONF	n/a	LTP066	ltpFR	15	4	n/a	HORNET	718	4	n/a	n/a	n/a	n/a	n/a	n/a
3084697	RECOG_TARGET	n/a	LTP066	ltpFR	15	4	0	SICKLE	1302	4	1	n/a	n/a	n/a	n/a	n/a
3086752	RECOG_RESP	n/a	LTP066	ltpFR	15	4	0	SICKLE	1302	n/a	1	n/a	n/a	n/a	n/a	n/a
3087198	RECOG_CONF	n/a	LTP066	ltpFR	15	4	0	SICKLE	1302	4	1	n/a	n/a	n/a	n/a	n/a
3088618	RECOG_LURE	n/a	LTP066	ltpFR	15	4	n/a	ASHTRAY	45	5	n/a	n/a	n/a	n/a	n/a	n/a
3089276	RECOG_RESP	n/a	LTP066	ltpFR	15	4	n/a	ASHTRAY	45	n/a	n/a	n/a	n/a	n/a	n/a	n/a
3089598	RECOG_CONF	n/a	LTP066	ltpFR	15	4	n/a	ASHTRAY	45	5	n/a	n/a	n/a	n/a	n/a	n/a
3091048	RECOG_TARGET	n/a	LTP066	ltpFR	15	4	-1	OINTMENT	974	4	-1	n/a	n/a	n/a	n/a	n/a
3092494	RECOG_RESP	n/a	LTP066	ltpFR	15	4	-1	OINTMENT	974	n/a	-1	n/a	n/a	n/a	n/a	n/a
3092917	RECOG_CONF	n/a	LTP066	ltpFR	15	4	-1	OINTMENT	974	4	-1	n/a	n/a	n/a	n/a	n/a
3094403	RECOG_LURE	n/a	LTP066	ltpFR	15	4	n/a	TWIG	1527	4	n/a	n/a	n/a	n/a	n/a	n/a
3095432	RECOG_RESP	n/a	LTP066	ltpFR	15	4	n/a	TWIG	1527	n/a	n/a	n/a	n/a	n/a	n/a	n/a
3095742	RECOG_CONF	n/a	LTP066	ltpFR	15	4	n/a	TWIG	1527	4	n/a	n/a	n/a	n/a	n/a	n/a
3097100	RECOG_TARGET	n/a	LTP066	ltpFR	15	4	1	JUDGE	761	4	1	n/a	n/a	n/a	n/a	n/a
3098051	RECOG_RESP	n/a	LTP066	ltpFR	15	4	1	JUDGE	761	n/a	1	n/a	n/a	n/a	n/a	n/a
3098505	RECOG_CONF	n/a	LTP066	ltpFR	15	4	1	JUDGE	761	4	1	n/a	n/a	n/a	n/a	n/a
3101796	REC_START	n/a	LTP066	ltpFR	15	5	n/a	n/a	n/a	n/a	n/a	n/a	n/a	n/a	n/a	n/a
3101827	RECOG_TARGET	n/a	LTP066	ltpFR	15	5	1	BRIDE	173	4	1	n/a	n/a	n/a	n/a	n/a
3103627	RECOG_RESP	n/a	LTP066	ltpFR	15	5	1	BRIDE	173	n/a	1	n/a	n/a	n/a	n/a	n/a
3104250	RECOG_CONF	n/a	LTP066	ltpFR	15	5	1	BRIDE	173	4	1	n/a	n/a	n/a	n/a	n/a
3105706	RECOG_TARGET	n/a	LTP066	ltpFR	15	5	1	GRAPE	654	4	0	n/a	n/a	n/a	n/a	n/a
3106490	RECOG_RESP	n/a	LTP066	ltpFR	15	5	1	GRAPE	654	n/a	0	n/a	n/a	n/a	n/a	n/a
3106785	RECOG_CONF	n/a	LTP066	ltpFR	15	5	1	GRAPE	654	4	0	n/a	n/a	n/a	n/a	n/a
3108120	RECOG_TARGET	n/a	LTP066	ltpFR	15	5	0	DOOR	486	5	1	n/a	n/a	n/a	n/a	n/a
3108875	RECOG_RESP	n/a	LTP066	ltpFR	15	5	0	DOOR	486	n/a	1	n/a	n/a	n/a	n/a	n/a
3109218	RECOG_CONF	n/a	LTP066	ltpFR	15	5	0	DOOR	486	5	1	n/a	n/a	n/a	n/a	n/a
3110451	RECOG_LURE	n/a	LTP066	ltpFR	15	5	n/a	PILLOW	1069	5	n/a	n/a	n/a	n/a	n/a	n/a
3111155	RECOG_RESP	n/a	LTP066	ltpFR	15	5	n/a	PILLOW	1069	n/a	n/a	n/a	n/a	n/a	n/a	n/a
3111408	RECOG_CONF	n/a	LTP066	ltpFR	15	5	n/a	PILLOW	1069	5	n/a	n/a	n/a	n/a	n/a	n/a
3112856	RECOG_TARGET	n/a	LTP066	ltpFR	15	5	0	GAUZE	626	5	0	n/a	n/a	n/a	n/a	n/a
3113619	RECOG_RESP	n/a	LTP066	ltpFR	15	5	0	GAUZE	626	n/a	0	n/a	n/a	n/a	n/a	n/a
3113942	RECOG_CONF	n/a	LTP066	ltpFR	15	5	0	GAUZE	626	5	0	n/a	n/a	n/a	n/a	n/a
3115403	RECOG_LURE	n/a	LTP066	ltpFR	15	5	n/a	BALLERINA	74	5	n/a	n/a	n/a	n/a	n/a	n/a
3116108	RECOG_RESP	n/a	LTP066	ltpFR	15	5	n/a	BALLERINA	74	n/a	n/a	n/a	n/a	n/a	n/a	n/a
3116435	RECOG_CONF	n/a	LTP066	ltpFR	15	5	n/a	BALLERINA	74	5	n/a	n/a	n/a	n/a	n/a	n/a
3117850	RECOG_LURE	n/a	LTP066	ltpFR	15	5	n/a	THIGH	1457	5	n/a	n/a	n/a	n/a	n/a	n/a
3118568	RECOG_RESP	n/a	LTP066	ltpFR	15	5	n/a	THIGH	1457	n/a	n/a	n/a	n/a	n/a	n/a	n/a
3118801	RECOG_CONF	n/a	LTP066	ltpFR	15	5	n/a	THIGH	1457	5	n/a	n/a	n/a	n/a	n/a	n/a
3120264	RECOG_LURE	n/a	LTP066	ltpFR	15	5	n/a	VINE	1568	5	n/a	n/a	n/a	n/a	n/a	n/a
3121117	RECOG_RESP	n/a	LTP066	ltpFR	15	5	n/a	VINE	1568	n/a	n/a	n/a	n/a	n/a	n/a	n/a
3121352	RECOG_CONF	n/a	LTP066	ltpFR	15	5	n/a	VINE	1568	5	n/a	n/a	n/a	n/a	n/a	n/a
3122969	RECOG_LURE	n/a	LTP066	ltpFR	15	5	n/a	ASSOCIATE	49	5	n/a	n/a	n/a	n/a	n/a	n/a
3123851	RECOG_RESP	n/a	LTP066	ltpFR	15	5	n/a	ASSOCIATE	49	n/a	n/a	n/a	n/a	n/a	n/a	n/a
3124138	RECOG_CONF	n/a	LTP066	ltpFR	15	5	n/a	ASSOCIATE	49	5	n/a	n/a	n/a	n/a	n/a	n/a
3125608	RECOG_LURE	n/a	LTP066	ltpFR	15	5	n/a	TOENAIL	1474	5	n/a	n/a	n/a	n/a	n/a	n/a
3126425	RECOG_RESP	n/a	LTP066	ltpFR	15	5	n/a	TOENAIL	1474	n/a	n/a	n/a	n/a	n/a	n/a	n/a
3126720	RECOG_CONF	n/a	LTP066	ltpFR	15	5	n/a	TOENAIL	1474	5	n/a	n/a	n/a	n/a	n/a	n/a
3128130	RECOG_LURE	n/a	LTP066	ltpFR	15	5	n/a	ELEPHANT	523	5	n/a	n/a	n/a	n/a	n/a	n/a
3128844	RECOG_RESP	n/a	LTP066	ltpFR	15	5	n/a	ELEPHANT	523	n/a	n/a	n/a	n/a	n/a	n/a	n/a
3129117	RECOG_CONF	n/a	LTP066	ltpFR	15	5	n/a	ELEPHANT	523	5	n/a	n/a	n/a	n/a	n/a	n/a
3130594	RECOG_TARGET	n/a	LTP066	ltpFR	15	5	-1	GARAGE	621	5	-1	n/a	n/a	n/a	n/a	n/a
3131369	RECOG_RESP	n/a	LTP066	ltpFR	15	5	-1	GARAGE	621	n/a	-1	n/a	n/a	n/a	n/a	n/a
3131638	RECOG_CONF	n/a	LTP066	ltpFR	15	5	-1	GARAGE	621	5	-1	n/a	n/a	n/a	n/a	n/a
3133099	RECOG_TARGET	n/a	LTP066	ltpFR	15	5	-1	CORN	381	4	-1	n/a	n/a	n/a	n/a	n/a
3133873	RECOG_RESP	n/a	LTP066	ltpFR	15	5	-1	CORN	381	n/a	-1	n/a	n/a	n/a	n/a	n/a
3134300	RECOG_CONF	n/a	LTP066	ltpFR	15	5	-1	CORN	381	4	-1	n/a	n/a	n/a	n/a	n/a
3135688	RECOG_TARGET	n/a	LTP066	ltpFR	15	5	1	EDITOR	516	4	1	n/a	n/a	n/a	n/a	n/a
3136587	RECOG_RESP	n/a	LTP066	ltpFR	15	5	1	EDITOR	516	n/a	1	n/a	n/a	n/a	n/a	n/a
3136960	RECOG_CONF	n/a	LTP066	ltpFR	15	5	1	EDITOR	516	4	1	n/a	n/a	n/a	n/a	n/a
3138426	RECOG_LURE	n/a	LTP066	ltpFR	15	5	n/a	TRIGGER	1507	5	n/a	n/a	n/a	n/a	n/a	n/a
3139201	RECOG_RESP	n/a	LTP066	ltpFR	15	5	n/a	TRIGGER	1507	n/a	n/a	n/a	n/a	n/a	n/a	n/a
3139481	RECOG_CONF	n/a	LTP066	ltpFR	15	5	n/a	TRIGGER	1507	5	n/a	n/a	n/a	n/a	n/a	n/a
3140982	RECOG_LURE	n/a	LTP066	ltpFR	15	5	n/a	ZEBRA	1635	5	n/a	n/a	n/a	n/a	n/a	n/a
3141660	RECOG_RESP	n/a	LTP066	ltpFR	15	5	n/a	ZEBRA	1635	n/a	n/a	n/a	n/a	n/a	n/a	n/a
3141912	RECOG_CONF	n/a	LTP066	ltpFR	15	5	n/a	ZEBRA	1635	5	n/a	n/a	n/a	n/a	n/a	n/a
3143562	RECOG_TARGET	n/a	LTP066	ltpFR	15	5	1	BURGLAR	200	5	1	n/a	n/a	n/a	n/a	n/a
3144244	RECOG_RESP	n/a	LTP066	ltpFR	15	5	1	BURGLAR	200	n/a	1	n/a	n/a	n/a	n/a	n/a
3144617	RECOG_CONF	n/a	LTP066	ltpFR	15	5	1	BURGLAR	200	5	1	n/a	n/a	n/a	n/a	n/a
3146009	RECOG_TARGET	n/a	LTP066	ltpFR	15	5	0	TURNIP	1521	5	0	n/a	n/a	n/a	n/a	n/a
3146833	RECOG_RESP	n/a	LTP066	ltpFR	15	5	0	TURNIP	1521	n/a	0	n/a	n/a	n/a	n/a	n/a
3147176	RECOG_CONF	n/a	LTP066	ltpFR	15	5	0	TURNIP	1521	5	0	n/a	n/a	n/a	n/a	n/a
3148623	RECOG_LURE	n/a	LTP066	ltpFR	15	5	n/a	PANTS	1010	4	n/a	n/a	n/a	n/a	n/a	n/a
3149712	RECOG_RESP	n/a	LTP066	ltpFR	15	5	n/a	PANTS	1010	n/a	n/a	n/a	n/a	n/a	n/a	n/a
3150082	RECOG_CONF	n/a	LTP066	ltpFR	15	5	n/a	PANTS	1010	4	n/a	n/a	n/a	n/a	n/a	n/a
3151793	RECOG_LURE	n/a	LTP066	ltpFR	15	5	n/a	KITTEN	780	4	n/a	n/a	n/a	n/a	n/a	n/a
3152945	RECOG_RESP	n/a	LTP066	ltpFR	15	5	n/a	KITTEN	780	n/a	n/a	n/a	n/a	n/a	n/a	n/a
3153218	RECOG_CONF	n/a	LTP066	ltpFR	15	5	n/a	KITTEN	780	4	n/a	n/a	n/a	n/a	n/a	n/a
3162848	REC_START	n/a	LTP066	ltpFR	15	6	n/a	n/a	n/a	n/a	n/a	n/a	n/a	n/a	n/a	n/a
3162881	RECOG_TARGET	n/a	LTP066	ltpFR	15	6	0	GRASSHOPPER	656	4	0	n/a	n/a	n/a	n/a	n/a
3163546	RECOG_RESP	n/a	LTP066	ltpFR	15	6	0	GRASSHOPPER	656	n/a	0	n/a	n/a	n/a	n/a	n/a
3163982	RECOG_CONF	n/a	LTP066	ltpFR	15	6	0	GRASSHOPPER	656	4	0	n/a	n/a	n/a	n/a	n/a
3165403	RECOG_TARGET	n/a	LTP066	ltpFR	15	6	-1	TOASTER	1472	5	-1	n/a	n/a	n/a	n/a	n/a
3166130	RECOG_RESP	n/a	LTP066	ltpFR	15	6	-1	TOASTER	1472	n/a	-1	n/a	n/a	n/a	n/a	n/a
3166477	RECOG_CONF	n/a	LTP066	ltpFR	15	6	-1	TOASTER	1472	5	-1	n/a	n/a	n/a	n/a	n/a
3167950	RECOG_TARGET	n/a	LTP066	ltpFR	15	6	-1	APRON	35	5	-1	n/a	n/a	n/a	n/a	n/a
3168600	RECOG_RESP	n/a	LTP066	ltpFR	15	6	-1	APRON	35	n/a	-1	n/a	n/a	n/a	n/a	n/a
3168955	RECOG_CONF	n/a	LTP066	ltpFR	15	6	-1	APRON	35	5	-1	n/a	n/a	n/a	n/a	n/a
3170406	RECOG_TARGET	n/a	LTP066	ltpFR	15	6	0	AIRCRAFT	11	4	1	n/a	n/a	n/a	n/a	n/a
3171059	RECOG_RESP	n/a	LTP066	ltpFR	15	6	0	AIRCRAFT	11	n/a	1	n/a	n/a	n/a	n/a	n/a
3171452	RECOG_CONF	n/a	LTP066	ltpFR	15	6	0	AIRCRAFT	11	4	1	n/a	n/a	n/a	n/a	n/a
3172903	RECOG_LURE	n/a	LTP066	ltpFR	15	6	n/a	SURVEY	1414	5	n/a	n/a	n/a	n/a	n/a	n/a
3173668	RECOG_RESP	n/a	LTP066	ltpFR	15	6	n/a	SURVEY	1414	n/a	n/a	n/a	n/a	n/a	n/a	n/a
3173915	RECOG_CONF	n/a	LTP066	ltpFR	15	6	n/a	SURVEY	1414	5	n/a	n/a	n/a	n/a	n/a	n/a
3175541	RECOG_LURE	n/a	LTP066	ltpFR	15	6	n/a	SLUG	1329	5	n/a	n/a	n/a	n/a	n/a	n/a
3176192	RECOG_RESP	n/a	LTP066	ltpFR	15	6	n/a	SLUG	1329	n/a	n/a	n/a	n/a	n/a	n/a	n/a
3176427	RECOG_CONF	n/a	LTP066	ltpFR	15	6	n/a	SLUG	1329	5	n/a	n/a	n/a	n/a	n/a	n/a
3177997	RECOG_LURE	n/a	LTP066	ltpFR	15	6	n/a	GLACIER	638	5	n/a	n/a	n/a	n/a	n/a	n/a
3178812	RECOG_RESP	n/a	LTP066	ltpFR	15	6	n/a	GLACIER	638	n/a	n/a	n/a	n/a	n/a	n/a	n/a
3179074	RECOG_CONF	n/a	LTP066	ltpFR	15	6	n/a	GLACIER	638	5	n/a	n/a	n/a	n/a	n/a	n/a
3180627	RECOG_LURE	n/a	LTP066	ltpFR	15	6	n/a	CLOSET	326	4	n/a	n/a	n/a	n/a	n/a	n/a
3181590	RECOG_RESP	n/a	LTP066	ltpFR	15	6	n/a	CLOSET	326	n/a	n/a	n/a	n/a	n/a	n/a	n/a
3181955	RECOG_CONF	n/a	LTP066	ltpFR	15	6	n/a	CLOSET	326	4	n/a	n/a	n/a	n/a	n/a	n/a
3183341	RECOG_TARGET	n/a	LTP066	ltpFR	15	6	1	SANDWICH	1232	5	0	n/a	n/a	n/a	n/a	n/a
3183920	RECOG_RESP	n/a	LTP066	ltpFR	15	6	1	SANDWICH	1232	n/a	0	n/a	n/a	n/a	n/a	n/a
3184288	RECOG_CONF	n/a	LTP066	ltpFR	15	6	1	SANDWICH	1232	5	0	n/a	n/a	n/a	n/a	n/a
3185696	RECOG_LURE	n/a	LTP066	ltpFR	15	6	n/a	POWDER	1117	5	n/a	n/a	n/a	n/a	n/a	n/a
3186295	RECOG_RESP	n/a	LTP066	ltpFR	15	6	n/a	POWDER	1117	n/a	n/a	n/a	n/a	n/a	n/a	n/a
3186600	RECOG_CONF	n/a	LTP066	ltpFR	15	6	n/a	POWDER	1117	5	n/a	n/a	n/a	n/a	n/a	n/a
3188110	RECOG_LURE	n/a	LTP066	ltpFR	15	6	n/a	BRUSH	182	4	n/a	n/a	n/a	n/a	n/a	n/a
3188874	RECOG_RESP	n/a	LTP066	ltpFR	15	6	n/a	BRUSH	182	n/a	n/a	n/a	n/a	n/a	n/a	n/a
3189131	RECOG_CONF	n/a	LTP066	ltpFR	15	6	n/a	BRUSH	182	4	n/a	n/a	n/a	n/a	n/a	n/a
3190699	RECOG_TARGET	n/a	LTP066	ltpFR	15	6	0	TAR	1435	5	1	n/a	n/a	n/a	n/a	n/a
3191308	RECOG_RESP	n/a	LTP066	ltpFR	15	6	0	TAR	1435	n/a	1	n/a	n/a	n/a	n/a	n/a
3191716	RECOG_CONF	n/a	LTP066	ltpFR	15	6	0	TAR	1435	5	1	n/a	n/a	n/a	n/a	n/a
3193046	RECOG_TARGET	n/a	LTP066	ltpFR	15	6	0	TYPIST	1532	5	1	n/a	n/a	n/a	n/a	n/a
3193758	RECOG_RESP	n/a	LTP066	ltpFR	15	6	0	TYPIST	1532	n/a	1	n/a	n/a	n/a	n/a	n/a
3194128	RECOG_CONF	n/a	LTP066	ltpFR	15	6	0	TYPIST	1532	5	1	n/a	n/a	n/a	n/a	n/a
3195476	RECOG_LURE	n/a	LTP066	ltpFR	15	6	n/a	SALMON	1227	5	n/a	n/a	n/a	n/a	n/a	n/a
3196242	RECOG_RESP	n/a	LTP066	ltpFR	15	6	n/a	SALMON	1227	n/a	n/a	n/a	n/a	n/a	n/a	n/a
3196562	RECOG_CONF	n/a	LTP066	ltpFR	15	6	n/a	SALMON	1227	5	n/a	n/a	n/a	n/a	n/a	n/a
3198007	RECOG_LURE	n/a	LTP066	ltpFR	15	6	n/a	MEDAL	885	5	n/a	n/a	n/a	n/a	n/a	n/a
3198766	RECOG_RESP	n/a	LTP066	ltpFR	15	6	n/a	MEDAL	885	n/a	n/a	n/a	n/a	n/a	n/a	n/a
3199071	RECOG_CONF	n/a	LTP066	ltpFR	15	6	n/a	MEDAL	885	5	n/a	n/a	n/a	n/a	n/a	n/a
3200670	RECOG_LURE	n/a	LTP066	ltpFR	15	6	n/a	NIECE	952	5	n/a	n/a	n/a	n/a	n/a	n/a
3201839	RECOG_RESP	n/a	LTP066	ltpFR	15	6	n/a	NIECE	952	n/a	n/a	n/a	n/a	n/a	n/a	n/a
3202187	RECOG_CONF	n/a	LTP066	ltpFR	15	6	n/a	NIECE	952	5	n/a	n/a	n/a	n/a	n/a	n/a
3203782	RECOG_TARGET	n/a	LTP066	ltpFR	15	6	0	VEST	1559	5	0	n/a	n/a	n/a	n/a	n/a
3204548	RECOG_RESP	n/a	LTP066	ltpFR	15	6	0	VEST	1559	n/a	0	n/a	n/a	n/a	n/a	n/a
3204896	RECOG_CONF	n/a	LTP066	ltpFR	15	6	0	VEST	1559	5	0	n/a	n/a	n/a	n/a	n/a
3206430	RECOG_TARGET	n/a	LTP066	ltpFR	15	6	-1	POPE	1105	5	-1	n/a	n/a	n/a	n/a	n/a
3207042	RECOG_RESP	n/a	LTP066	ltpFR	15	6	-1	POPE	1105	n/a	-1	n/a	n/a	n/a	n/a	n/a
3207362	RECOG_CONF	n/a	LTP066	ltpFR	15	6	-1	POPE	1105	5	-1	n/a	n/a	n/a	n/a	n/a
3208828	RECOG_LURE	n/a	LTP066	ltpFR	15	6	n/a	TART	1436	5	n/a	n/a	n/a	n/a	n/a	n/a
3209622	RECOG_RESP	n/a	LTP066	ltpFR	15	6	n/a	TART	1436	n/a	n/a	n/a	n/a	n/a	n/a	n/a
3209891	RECOG_CONF	n/a	LTP066	ltpFR	15	6	n/a	TART	1436	5	n/a	n/a	n/a	n/a	n/a	n/a
3211483	RECOG_LURE	n/a	LTP066	ltpFR	15	6	n/a	REBEL	1172	5	n/a	n/a	n/a	n/a	n/a	n/a
3212191	RECOG_RESP	n/a	LTP066	ltpFR	15	6	n/a	REBEL	1172	n/a	n/a	n/a	n/a	n/a	n/a	n/a
3212453	RECOG_CONF	n/a	LTP066	ltpFR	15	6	n/a	REBEL	1172	5	n/a	n/a	n/a	n/a	n/a	n/a
3215760	REC_START	n/a	LTP066	ltpFR	15	7	n/a	n/a	n/a	n/a	n/a	n/a	n/a	n/a	n/a	n/a
3215785	RECOG_LURE	n/a	LTP066	ltpFR	15	7	n/a	CAFE	216	4	n/a	n/a	n/a	n/a	n/a	n/a
3216598	RECOG_RESP	n/a	LTP066	ltpFR	15	7	n/a	CAFE	216	n/a	n/a	n/a	n/a	n/a	n/a	n/a
3217016	RECOG_CONF	n/a	LTP066	ltpFR	15	7	n/a	CAFE	216	4	n/a	n/a	n/a	n/a	n/a	n/a
3218366	RECOG_LURE	n/a	LTP066	ltpFR	15	7	n/a	ICING	732	5	n/a	n/a	n/a	n/a	n/a	n/a
3219017	RECOG_RESP	n/a	LTP066	ltpFR	15	7	n/a	ICING	732	n/a	n/a	n/a	n/a	n/a	n/a	n/a
3219328	RECOG_CONF	n/a	LTP066	ltpFR	15	7	n/a	ICING	732	5	n/a	n/a	n/a	n/a	n/a	n/a
3220880	RECOG_LURE	n/a	LTP066	ltpFR	15	7	n/a	KEG	770	5	n/a	n/a	n/a	n/a	n/a	n/a
3221646	RECOG_RESP	n/a	LTP066	ltpFR	15	7	n/a	KEG	770	n/a	n/a	n/a	n/a	n/a	n/a	n/a
3221943	RECOG_CONF	n/a	LTP066	ltpFR	15	7	n/a	KEG	770	5	n/a	n/a	n/a	n/a	n/a	n/a
3223385	RECOG_LURE	n/a	LTP066	ltpFR	15	7	n/a	COWARD	394	4	n/a	n/a	n/a	n/a	n/a	n/a
3224440	RECOG_RESP	n/a	LTP066	ltpFR	15	7	n/a	COWARD	394	n/a	n/a	n/a	n/a	n/a	n/a	n/a
3224740	RECOG_CONF	n/a	LTP066	ltpFR	15	7	n/a	COWARD	394	4	n/a	n/a	n/a	n/a	n/a	n/a
3226324	RECOG_TARGET	n/a	LTP066	ltpFR	15	7	0	CARPET	247	5	1	n/a	n/a	n/a	n/a	n/a
3227274	RECOG_RESP	n/a	LTP066	ltpFR	15	7	0	CARPET	247	n/a	1	n/a	n/a	n/a	n/a	n/a
3227630	RECOG_CONF	n/a	LTP066	ltpFR	15	7	0	CARPET	247	5	1	n/a	n/a	n/a	n/a	n/a
3228987	RECOG_TARGET	n/a	LTP066	ltpFR	15	7	1	PUMPKIN	1142	5	0	n/a	n/a	n/a	n/a	n/a
3229763	RECOG_RESP	n/a	LTP066	ltpFR	15	7	1	PUMPKIN	1142	n/a	0	n/a	n/a	n/a	n/a	n/a
3230162	RECOG_CONF	n/a	LTP066	ltpFR	15	7	1	PUMPKIN	1142	5	0	n/a	n/a	n/a	n/a	n/a
3231368	RECOG_TARGET	n/a	LTP066	ltpFR	15	7	0	FOSSIL	596	5	1	n/a	n/a	n/a	n/a	n/a
3232108	RECOG_RESP	n/a	LTP066	ltpFR	15	7	0	FOSSIL	596	n/a	1	n/a	n/a	n/a	n/a	n/a
3232557	RECOG_CONF	n/a	LTP066	ltpFR	15	7	0	FOSSIL	596	5	1	n/a	n/a	n/a	n/a	n/a
3233931	RECOG_LURE	n/a	LTP066	ltpFR	15	7	n/a	VENT	1556	4	n/a	n/a	n/a	n/a	n/a	n/a
3235410	RECOG_RESP	n/a	LTP066	ltpFR	15	7	n/a	VENT	1556	n/a	n/a	n/a	n/a	n/a	n/a	n/a
3235909	RECOG_CONF	n/a	LTP066	ltpFR	15	7	n/a	VENT	1556	4	n/a	n/a	n/a	n/a	n/a	n/a
3237336	RECOG_LURE	n/a	LTP066	ltpFR	15	7	n/a	OFFICE	972	4	n/a	n/a	n/a	n/a	n/a	n/a
3238204	RECOG_RESP	n/a	LTP066	ltpFR	15	7	n/a	OFFICE	972	n/a	n/a	n/a	n/a	n/a	n/a	n/a
3238486	RECOG_CONF	n/a	LTP066	ltpFR	15	7	n/a	OFFICE	972	4	n/a	n/a	n/a	n/a	n/a	n/a
3239924	RECOG_LURE	n/a	LTP066	ltpFR	15	7	n/a	BRIEFCASE	175	4	n/a	n/a	n/a	n/a	n/a	n/a
3241157	RECOG_RESP	n/a	LTP066	ltpFR	15	7	n/a	BRIEFCASE	175	n/a	n/a	n/a	n/a	n/a	n/a	n/a
3241513	RECOG_CONF	n/a	LTP066	ltpFR	15	7	n/a	BRIEFCASE	175	4	n/a	n/a	n/a	n/a	n/a	n/a
3242988	RECOG_LURE	n/a	LTP066	ltpFR	15	7	n/a	EYELASH	546	5	n/a	n/a	n/a	n/a	n/a	n/a
3243706	RECOG_RESP	n/a	LTP066	ltpFR	15	7	n/a	EYELASH	546	n/a	n/a	n/a	n/a	n/a	n/a	n/a
3243965	RECOG_CONF	n/a	LTP066	ltpFR	15	7	n/a	EYELASH	546	5	n/a	n/a	n/a	n/a	n/a	n/a
3245435	RECOG_LURE	n/a	LTP066	ltpFR	15	7	n/a	HANDKERCHIEF	686	5	n/a	n/a	n/a	n/a	n/a	n/a
3246285	RECOG_RESP	n/a	LTP066	ltpFR	15	7	n/a	HANDKERCHIEF	686	n/a	n/a	n/a	n/a	n/a	n/a	n/a
3246570	RECOG_CONF	n/a	LTP066	ltpFR	15	7	n/a	HANDKERCHIEF	686	5	n/a	n/a	n/a	n/a	n/a	n/a
3248140	RECOG_LURE	n/a	LTP066	ltpFR	15	7	n/a	LID	817	4	n/a	n/a	n/a	n/a	n/a	n/a
3248929	RECOG_RESP	n/a	LTP066	ltpFR	15	7	n/a	LID	817	n/a	n/a	n/a	n/a	n/a	n/a	n/a
3249658	RECOG_CONF	n/a	LTP066	ltpFR	15	7	n/a	LID	817	4	n/a	n/a	n/a	n/a	n/a	n/a
3251186	RECOG_LURE	n/a	LTP066	ltpFR	15	7	n/a	XEROX	1628	5	n/a	n/a	n/a	n/a	n/a	n/a
3251948	RECOG_RESP	n/a	LTP066	ltpFR	15	7	n/a	XEROX	1628	n/a	n/a	n/a	n/a	n/a	n/a	n/a
3252323	RECOG_CONF	n/a	LTP066	ltpFR	15	7	n/a	XEROX	1628	5	n/a	n/a	n/a	n/a	n/a	n/a
3253633	RECOG_TARGET	n/a	LTP066	ltpFR	15	7	-1	TUBA	1515	5	-1	n/a	n/a	n/a	n/a	n/a
3254292	RECOG_RESP	n/a	LTP066	ltpFR	15	7	-1	TUBA	1515	n/a	-1	n/a	n/a	n/a	n/a	n/a
3254630	RECOG_CONF	n/a	LTP066	ltpFR	15	7	-1	TUBA	1515	5	-1	n/a	n/a	n/a	n/a	n/a
3256089	RECOG_LURE	n/a	LTP066	ltpFR	15	7	n/a	LIGHTNING	820	5	n/a	n/a	n/a	n/a	n/a	n/a
3256792	RECOG_RESP	n/a	LTP066	ltpFR	15	7	n/a	LIGHTNING	820	n/a	n/a	n/a	n/a	n/a	n/a	n/a
3257135	RECOG_CONF	n/a	LTP066	ltpFR	15	7	n/a	LIGHTNING	820	5	n/a	n/a	n/a	n/a	n/a	n/a
3258636	RECOG_LURE	n/a	LTP066	ltpFR	15	7	n/a	TROUT	1511	4	n/a	n/a	n/a	n/a	n/a	n/a
3259316	RECOG_RESP	n/a	LTP066	ltpFR	15	7	n/a	TROUT	1511	n/a	n/a	n/a	n/a	n/a	n/a	n/a
3259799	RECOG_CONF	n/a	LTP066	ltpFR	15	7	n/a	TROUT	1511	4	n/a	n/a	n/a	n/a	n/a	n/a
3261233	RECOG_LURE	n/a	LTP066	ltpFR	15	7	n/a	VIRUS	1572	5	n/a	n/a	n/a	n/a	n/a	n/a
3262000	RECOG_RESP	n/a	LTP066	ltpFR	15	7	n/a	VIRUS	1572	n/a	n/a	n/a	n/a	n/a	n/a	n/a
3262383	RECOG_CONF	n/a	LTP066	ltpFR	15	7	n/a	VIRUS	1572	5	n/a	n/a	n/a	n/a	n/a	n/a
3263863	RECOG_TARGET	n/a	LTP066	ltpFR	15	7	1	CARROT	249	4	1	n/a	n/a	n/a	n/a	n/a
3264938	RECOG_RESP	n/a	LTP066	ltpFR	15	7	1	CARROT	249	n/a	1	n/a	n/a	n/a	n/a	n/a
3265389	RECOG_CONF	n/a	LTP066	ltpFR	15	7	1	CARROT	249	4	1	n/a	n/a	n/a	n/a	n/a
3267243	RECOG_TARGET	n/a	LTP066	ltpFR	15	7	0	PREDATOR	1120	5	1	n/a	n/a	n/a	n/a	n/a
3268340	RECOG_RESP	n/a	LTP066	ltpFR	15	7	0	PREDATOR	1120	n/a	1	n/a	n/a	n/a	n/a	n/a
3268760	RECOG_CONF	n/a	LTP066	ltpFR	15	7	0	PREDATOR	1120	5	1	n/a	n/a	n/a	n/a	n/a
3271700	REC_START	n/a	LTP066	ltpFR	15	8	n/a	n/a	n/a	n/a	n/a	n/a	n/a	n/a	n/a	n/a
3271804	RECOG_TARGET	n/a	LTP066	ltpFR	15	8	0	CUSTARD	429	5	0	n/a	n/a	n/a	n/a	n/a
3272767	RECOG_RESP	n/a	LTP066	ltpFR	15	8	0	CUSTARD	429	n/a	0	n/a	n/a	n/a	n/a	n/a
3273145	RECOG_CONF	n/a	LTP066	ltpFR	15	8	0	CUSTARD	429	5	0	n/a	n/a	n/a	n/a	n/a
3274559	RECOG_LURE	n/a	LTP066	ltpFR	15	8	n/a	DINNER	468	4	n/a	n/a	n/a	n/a	n/a	n/a
3275097	RECOG_RESP	n/a	LTP066	ltpFR	15	8	n/a	DINNER	468	n/a	n/a	n/a	n/a	n/a	n/a	n/a
3275468	RECOG_CONF	n/a	LTP066	ltpFR	15	8	n/a	DINNER	468	4	n/a	n/a	n/a	n/a	n/a	n/a
3276848	RECOG_TARGET	n/a	LTP066	ltpFR	15	8	0	COLOGNE	347	5	0	n/a	n/a	n/a	n/a	n/a
3277751	RECOG_RESP	n/a	LTP066	ltpFR	15	8	0	COLOGNE	347	n/a	0	n/a	n/a	n/a	n/a	n/a
3278105	RECOG_CONF	n/a	LTP066	ltpFR	15	8	0	COLOGNE	347	5	0	n/a	n/a	n/a	n/a	n/a
3279487	RECOG_TARGET	n/a	LTP066	ltpFR	15	8	-1	SHEEP	1278	5	-1	n/a	n/a	n/a	n/a	n/a
3284625	RECOG_RESP	n/a	LTP066	ltpFR	15	8	-1	SHEEP	1278	n/a	-1	n/a	n/a	n/a	n/a	n/a
3284985	RECOG_CONF	n/a	LTP066	ltpFR	15	8	-1	SHEEP	1278	5	-1	n/a	n/a	n/a	n/a	n/a
3286503	RECOG_TARGET	n/a	LTP066	ltpFR	15	8	1	LASER	801	5	0	n/a	n/a	n/a	n/a	n/a
3287239	RECOG_RESP	n/a	LTP066	ltpFR	15	8	1	LASER	801	n/a	0	n/a	n/a	n/a	n/a	n/a
3287529	RECOG_CONF	n/a	LTP066	ltpFR	15	8	1	LASER	801	5	0	n/a	n/a	n/a	n/a	n/a
3289084	RECOG_LURE	n/a	LTP066	ltpFR	15	8	n/a	LOAF	835	4	n/a	n/a	n/a	n/a	n/a	n/a
3290133	RECOG_RESP	n/a	LTP066	ltpFR	15	8	n/a	LOAF	835	n/a	n/a	n/a	n/a	n/a	n/a	n/a
3290427	RECOG_CONF	n/a	LTP066	ltpFR	15	8	n/a	LOAF	835	4	n/a	n/a	n/a	n/a	n/a	n/a
3291922	RECOG_TARGET	n/a	LTP066	ltpFR	15	8	-1	DIAPER	459	4	-1	n/a	n/a	n/a	n/a	n/a
3292956	RECOG_RESP	n/a	LTP066	ltpFR	15	8	-1	DIAPER	459	n/a	-1	n/a	n/a	n/a	n/a	n/a
3293316	RECOG_CONF	n/a	LTP066	ltpFR	15	8	-1	DIAPER	459	4	-1	n/a	n/a	n/a	n/a	n/a
3294819	RECOG_LURE	n/a	LTP066	ltpFR	15	8	n/a	KITCHEN	778	4	n/a	n/a	n/a	n/a	n/a	n/a
3295526	RECOG_RESP	n/a	LTP066	ltpFR	15	8	n/a	KITCHEN	778	n/a	n/a	n/a	n/a	n/a	n/a	n/a
3295755	RECOG_CONF	n/a	LTP066	ltpFR	15	8	n/a	KITCHEN	778	4	n/a	n/a	n/a	n/a	n/a	n/a
3297208	RECOG_TARGET	n/a	LTP066	ltpFR	15	8	-1	FRIES	607	5	-1	n/a	n/a	n/a	n/a	n/a
3297825	RECOG_RESP	n/a	LTP066	ltpFR	15	8	-1	FRIES	607	n/a	-1	n/a	n/a	n/a	n/a	n/a
3298119	RECOG_CONF	n/a	LTP066	ltpFR	15	8	-1	FRIES	607	5	-1	n/a	n/a	n/a	n/a	n/a
3299513	RECOG_LURE	n/a	LTP066	ltpFR	15	8	n/a	HARP	689	5	n/a	n/a	n/a	n/a	n/a	n/a
3300295	RECOG_RESP	n/a	LTP066	ltpFR	15	8	n/a	HARP	689	n/a	n/a	n/a	n/a	n/a	n/a	n/a
3300567	RECOG_CONF	n/a	LTP066	ltpFR	15	8	n/a	HARP	689	5	n/a	n/a	n/a	n/a	n/a	n/a
3302035	RECOG_TARGET	n/a	LTP066	ltpFR	15	8	1	DOORBELL	487	4	0	n/a	n/a	n/a	n/a	n/a
3302854	RECOG_RESP	n/a	LTP066	ltpFR	15	8	1	DOORBELL	487	n/a	0	n/a	n/a	n/a	n/a	n/a
3303234	RECOG_CONF	n/a	LTP066	ltpFR	15	8	1	DOORBELL	487	4	0	n/a	n/a	n/a	n/a	n/a
3304665	RECOG_TARGET	n/a	LTP066	ltpFR	15	8	0	OBOE	969	4	1	n/a	n/a	n/a	n/a	n/a
3306166	RECOG_RESP	n/a	LTP066	ltpFR	15	8	0	OBOE	969	n/a	1	n/a	n/a	n/a	n/a	n/a
3306474	RECOG_CONF	n/a	LTP066	ltpFR	15	8	0	OBOE	969	4	1	n/a	n/a	n/a	n/a	n/a
3307987	RECOG_TARGET	n/a	LTP066	ltpFR	15	8	0	LAGOON	795	5	1	n/a	n/a	n/a	n/a	n/a
3309045	RECOG_RESP	n/a	LTP066	ltpFR	15	8	0	LAGOON	795	n/a	1	n/a	n/a	n/a	n/a	n/a
3309337	RECOG_CONF	n/a	LTP066	ltpFR	15	8	0	LAGOON	795	5	1	n/a	n/a	n/a	n/a	n/a
3311091	RECOG_LURE	n/a	LTP066	ltpFR	15	8	n/a	CABLE	213	5	n/a	n/a	n/a	n/a	n/a	n/a
3311913	RECOG_RESP	n/a	LTP066	ltpFR	15	8	n/a	CABLE	213	n/a	n/a	n/a	n/a	n/a	n/a	n/a
3312207	RECOG_CONF	n/a	LTP066	ltpFR	15	8	n/a	CABLE	213	5	n/a	n/a	n/a	n/a	n/a	n/a
3313688	RECOG_LURE	n/a	LTP066	ltpFR	15	8	n/a	LAPEL	800	4	n/a	n/a	n/a	n/a	n/a	n/a
3314732	RECOG_RESP	n/a	LTP066	ltpFR	15	8	n/a	LAPEL	800	n/a	n/a	n/a	n/a	n/a	n/a	n/a
3315010	RECOG_CONF	n/a	LTP066	ltpFR	15	8	n/a	LAPEL	800	4	n/a	n/a	n/a	n/a	n/a	n/a
3316502	RECOG_TARGET	n/a	LTP066	ltpFR	15	8	1	OUTLAW	989	4	1	n/a	n/a	n/a	n/a	n/a
3317650	RECOG_RESP	n/a	LTP066	ltpFR	15	8	1	OUTLAW	989	n/a	1	n/a	n/a	n/a	n/a	n/a
3318049	RECOG_CONF	n/a	LTP066	ltpFR	15	8	1	OUTLAW	989	4	1	n/a	n/a	n/a	n/a	n/a
3319906	RECOG_LURE	n/a	LTP066	ltpFR	15	8	n/a	PICNIC	1060	4	n/a	n/a	n/a	n/a	n/a	n/a
3320888	RECOG_RESP	n/a	LTP066	ltpFR	15	8	n/a	PICNIC	1060	n/a	n/a	n/a	n/a	n/a	n/a	n/a
3321180	RECOG_CONF	n/a	LTP066	ltpFR	15	8	n/a	PICNIC	1060	4	n/a	n/a	n/a	n/a	n/a	n/a
3322694	RECOG_TARGET	n/a	LTP066	ltpFR	15	8	-1	FREEWAY	603	4	-1	n/a	n/a	n/a	n/a	n/a
3324275	RECOG_RESP	n/a	LTP066	ltpFR	15	8	-1	FREEWAY	603	n/a	-1	n/a	n/a	n/a	n/a	n/a
3324764	RECOG_CONF	n/a	LTP066	ltpFR	15	8	-1	FREEWAY	603	4	-1	n/a	n/a	n/a	n/a	n/a
3326382	RECOG_TARGET	n/a	LTP066	ltpFR	15	8	0	BANKER	84	4	1	n/a	n/a	n/a	n/a	n/a
3327503	RECOG_RESP	n/a	LTP066	ltpFR	15	8	0	BANKER	84	n/a	1	n/a	n/a	n/a	n/a	n/a
3327932	RECOG_CONF	n/a	LTP066	ltpFR	15	8	0	BANKER	84	4	1	n/a	n/a	n/a	n/a	n/a
3329270	RECOG_TARGET	n/a	LTP066	ltpFR	15	8	0	EMPLOYEE	531	5	1	n/a	n/a	n/a	n/a	n/a
3330017	RECOG_RESP	n/a	LTP066	ltpFR	15	8	0	EMPLOYEE	531	n/a	1	n/a	n/a	n/a	n/a	n/a
3330377	RECOG_CONF	n/a	LTP066	ltpFR	15	8	0	EMPLOYEE	531	5	1	n/a	n/a	n/a	n/a	n/a
3339971	REC_START	n/a	LTP066	ltpFR	15	9	n/a	n/a	n/a	n/a	n/a	n/a	n/a	n/a	n/a	n/a
3339999	RECOG_LURE	n/a	LTP066	ltpFR	15	9	n/a	CLIPPERS	324	4	n/a	n/a	n/a	n/a	n/a	n/a
3340944	RECOG_RESP_VV	n/a	LTP066	ltpFR	15	9	n/a	CLIPPERS	324	n/a	n/a	n/a	n/a	n/a	n/a	n/a
3341886	RECOG_RESP	n/a	LTP066	ltpFR	15	9	n/a	CLIPPERS	324	n/a	n/a	n/a	n/a	n/a	n/a	n/a
3342225	RECOG_CONF	n/a	LTP066	ltpFR	15	9	n/a	CLIPPERS	324	4	n/a	n/a	n/a	n/a	n/a	n/a
3343828	RECOG_LURE	n/a	LTP066	ltpFR	15	9	n/a	CIRCUS	311	5	n/a	n/a	n/a	n/a	n/a	n/a
3344550	RECOG_RESP	n/a	LTP066	ltpFR	15	9	n/a	CIRCUS	311	n/a	n/a	n/a	n/a	n/a	n/a	n/a
3344853	RECOG_CONF	n/a	LTP066	ltpFR	15	9	n/a	CIRCUS	311	5	n/a	n/a	n/a	n/a	n/a	n/a
3346300	RECOG_TARGET	n/a	LTP066	ltpFR	15	9	0	TOWEL	1489	4	1	n/a	n/a	n/a	n/a	n/a
3347025	RECOG_RESP	n/a	LTP066	ltpFR	15	9	0	TOWEL	1489	n/a	1	n/a	n/a	n/a	n/a	n/a
3347385	RECOG_CONF	n/a	LTP066	ltpFR	15	9	0	TOWEL	1489	4	1	n/a	n/a	n/a	n/a	n/a
3348788	RECOG_LURE	n/a	LTP066	ltpFR	15	9	n/a	LILY	821	5	n/a	n/a	n/a	n/a	n/a	n/a
3349464	RECOG_RESP	n/a	LTP066	ltpFR	15	9	n/a	LILY	821	n/a	n/a	n/a	n/a	n/a	n/a	n/a
3349768	RECOG_CONF	n/a	LTP066	ltpFR	15	9	n/a	LILY	821	5	n/a	n/a	n/a	n/a	n/a	n/a
3351095	RECOG_LURE	n/a	LTP066	ltpFR	15	9	n/a	SENATE	1267	4	n/a	n/a	n/a	n/a	n/a	n/a
3351909	RECOG_RESP	n/a	LTP066	ltpFR	15	9	n/a	SENATE	1267	n/a	n/a	n/a	n/a	n/a	n/a	n/a
3352177	RECOG_CONF	n/a	LTP066	ltpFR	15	9	n/a	SENATE	1267	4	n/a	n/a	n/a	n/a	n/a	n/a
3353608	RECOG_TARGET	n/a	LTP066	ltpFR	15	9	1	COSTUME	383	5	0	n/a	n/a	n/a	n/a	n/a
3354418	RECOG_RESP	n/a	LTP066	ltpFR	15	9	1	COSTUME	383	n/a	0	n/a	n/a	n/a	n/a	n/a
3354761	RECOG_CONF	n/a	LTP066	ltpFR	15	9	1	COSTUME	383	5	0	n/a	n/a	n/a	n/a	n/a
3356263	RECOG_LURE	n/a	LTP066	ltpFR	15	9	n/a	EMPIRE	530	3	n/a	n/a	n/a	n/a	n/a	n/a
3357247	RECOG_RESP	n/a	LTP066	ltpFR	15	9	n/a	EMPIRE	530	n/a	n/a	n/a	n/a	n/a	n/a	n/a
3357612	RECOG_CONF	n/a	LTP066	ltpFR	15	9	n/a	EMPIRE	530	3	n/a	n/a	n/a	n/a	n/a	n/a
3358844	RECOG_LURE	n/a	LTP066	ltpFR	15	9	n/a	WALRUS	1585	5	n/a	n/a	n/a	n/a	n/a	n/a
3359751	RECOG_RESP	n/a	LTP066	ltpFR	15	9	n/a	WALRUS	1585	n/a	n/a	n/a	n/a	n/a	n/a	n/a
3360853	RECOG_CONF	n/a	LTP066	ltpFR	15	9	n/a	WALRUS	1585	5	n/a	n/a	n/a	n/a	n/a	n/a
3362232	RECOG_TARGET	n/a	LTP066	ltpFR	15	9	0	BUFFALO	186	3	1	n/a	n/a	n/a	n/a	n/a
3363393	RECOG_RESP	n/a	LTP066	ltpFR	15	9	0	BUFFALO	186	n/a	1	n/a	n/a	n/a	n/a	n/a
3363861	RECOG_CONF	n/a	LTP066	ltpFR	15	9	0	BUFFALO	186	3	1	n/a	n/a	n/a	n/a	n/a
3365378	RECOG_LURE	n/a	LTP066	ltpFR	15	9	n/a	BULLET	194	5	n/a	n/a	n/a	n/a	n/a	n/a
3366241	RECOG_RESP	n/a	LTP066	ltpFR	15	9	n/a	BULLET	194	n/a	n/a	n/a	n/a	n/a	n/a	n/a
3366551	RECOG_CONF	n/a	LTP066	ltpFR	15	9	n/a	BULLET	194	5	n/a	n/a	n/a	n/a	n/a	n/a
3368016	RECOG_TARGET	n/a	LTP066	ltpFR	15	9	-1	ZUCCHINI	1638	4	-1	n/a	n/a	n/a	n/a	n/a
3368885	RECOG_RESP	n/a	LTP066	ltpFR	15	9	-1	ZUCCHINI	1638	n/a	-1	n/a	n/a	n/a	n/a	n/a
3369210	RECOG_CONF	n/a	LTP066	ltpFR	15	9	-1	ZUCCHINI	1638	4	-1	n/a	n/a	n/a	n/a	n/a
3370663	RECOG_LURE	n/a	LTP066	ltpFR	15	9	n/a	CHAMBER	277	4	n/a	n/a	n/a	n/a	n/a	n/a
3371684	RECOG_RESP	n/a	LTP066	ltpFR	15	9	n/a	CHAMBER	277	n/a	n/a	n/a	n/a	n/a	n/a	n/a
3372079	RECOG_CONF	n/a	LTP066	ltpFR	15	9	n/a	CHAMBER	277	4	n/a	n/a	n/a	n/a	n/a	n/a
3373352	RECOG_TARGET	n/a	LTP066	ltpFR	15	9	0	THESAURUS	1454	5	1	n/a	n/a	n/a	n/a	n/a
3374328	RECOG_RESP	n/a	LTP066	ltpFR	15	9	0	THESAURUS	1454	n/a	1	n/a	n/a	n/a	n/a	n/a
3374747	RECOG_CONF	n/a	LTP066	ltpFR	15	9	0	THESAURUS	1454	5	1	n/a	n/a	n/a	n/a	n/a
3375999	RECOG_TARGET	n/a	LTP066	ltpFR	15	9	-1	BUCKET	184	5	-1	n/a	n/a	n/a	n/a	n/a
3376812	RECOG_RESP	n/a	LTP066	ltpFR	15	9	-1	BUCKET	184	n/a	-1	n/a	n/a	n/a	n/a	n/a
3377271	RECOG_CONF	n/a	LTP066	ltpFR	15	9	-1	BUCKET	184	5	-1	n/a	n/a	n/a	n/a	n/a
3378596	RECOG_LURE	n/a	LTP066	ltpFR	15	9	n/a	WOUND	1624	5	n/a	n/a	n/a	n/a	n/a	n/a
3379915	RECOG_RESP	n/a	LTP066	ltpFR	15	9	n/a	WOUND	1624	n/a	n/a	n/a	n/a	n/a	n/a	n/a
3380404	RECOG_CONF	n/a	LTP066	ltpFR	15	9	n/a	WOUND	1624	5	n/a	n/a	n/a	n/a	n/a	n/a
3382050	RECOG_LURE	n/a	LTP066	ltpFR	15	9	n/a	SCULPTURE	1258	5	n/a	n/a	n/a	n/a	n/a	n/a
3383028	RECOG_RESP	n/a	LTP066	ltpFR	15	9	n/a	SCULPTURE	1258	n/a	n/a	n/a	n/a	n/a	n/a	n/a
3383527	RECOG_CONF	n/a	LTP066	ltpFR	15	9	n/a	SCULPTURE	1258	5	n/a	n/a	n/a	n/a	n/a	n/a
3384872	RECOG_LURE	n/a	LTP066	ltpFR	15	9	n/a	THICKET	1455	4	n/a	n/a	n/a	n/a	n/a	n/a
3385842	RECOG_RESP	n/a	LTP066	ltpFR	15	9	n/a	THICKET	1455	n/a	n/a	n/a	n/a	n/a	n/a	n/a
3386258	RECOG_CONF	n/a	LTP066	ltpFR	15	9	n/a	THICKET	1455	4	n/a	n/a	n/a	n/a	n/a	n/a
3387560	RECOG_LURE	n/a	LTP066	ltpFR	15	9	n/a	GRAVEL	659	3	n/a	n/a	n/a	n/a	n/a	n/a
3389822	RECOG_RESP	n/a	LTP066	ltpFR	15	9	n/a	GRAVEL	659	n/a	n/a	n/a	n/a	n/a	n/a	n/a
3390391	RECOG_CONF	n/a	LTP066	ltpFR	15	9	n/a	GRAVEL	659	3	n/a	n/a	n/a	n/a	n/a	n/a
3391689	RECOG_TARGET	n/a	LTP066	ltpFR	15	9	-1	COUSIN	392	5	-1	n/a	n/a	n/a	n/a	n/a
3392476	RECOG_RESP	n/a	LTP066	ltpFR	15	9	-1	COUSIN	392	n/a	-1	n/a	n/a	n/a	n/a	n/a
3392935	RECOG_CONF	n/a	LTP066	ltpFR	15	9	-1	COUSIN	392	5	-1	n/a	n/a	n/a	n/a	n/a
3394277	RECOG_TARGET	n/a	LTP066	ltpFR	15	9	1	METEOR	889	5	0	n/a	n/a	n/a	n/a	n/a
3395036	RECOG_RESP	n/a	LTP066	ltpFR	15	9	1	METEOR	889	n/a	0	n/a	n/a	n/a	n/a	n/a
3395421	RECOG_CONF	n/a	LTP066	ltpFR	15	9	1	METEOR	889	5	0	n/a	n/a	n/a	n/a	n/a
3398707	REC_START	n/a	LTP066	ltpFR	15	10	n/a	n/a	n/a	n/a	n/a	n/a	n/a	n/a	n/a	n/a
3398739	RECOG_TARGET	n/a	LTP066	ltpFR	15	10	0	INSECT	740	5	0	n/a	n/a	n/a	n/a	n/a
3399705	RECOG_RESP	n/a	LTP066	ltpFR	15	10	0	INSECT	740	n/a	0	n/a	n/a	n/a	n/a	n/a
3400103	RECOG_CONF	n/a	LTP066	ltpFR	15	10	0	INSECT	740	5	0	n/a	n/a	n/a	n/a	n/a
3401544	RECOG_LURE	n/a	LTP066	ltpFR	15	10	n/a	KEY	773	4	n/a	n/a	n/a	n/a	n/a	n/a
3402533	RECOG_RESP	n/a	LTP066	ltpFR	15	10	n/a	KEY	773	n/a	n/a	n/a	n/a	n/a	n/a	n/a
3402874	RECOG_CONF	n/a	LTP066	ltpFR	15	10	n/a	KEY	773	4	n/a	n/a	n/a	n/a	n/a	n/a
3404441	RECOG_LURE	n/a	LTP066	ltpFR	15	10	n/a	DENIM	446	3	n/a	n/a	n/a	n/a	n/a	n/a
3405566	RECOG_RESP	n/a	LTP066	ltpFR	15	10	n/a	DENIM	446	n/a	n/a	n/a	n/a	n/a	n/a	n/a
3406225	RECOG_CONF	n/a	LTP066	ltpFR	15	10	n/a	DENIM	446	3	n/a	n/a	n/a	n/a	n/a	n/a
3407662	RECOG_TARGET	n/a	LTP066	ltpFR	15	10	0	STREET	1393	4	1	n/a	n/a	n/a	n/a	n/a
3408839	RECOG_RESP	n/a	LTP066	ltpFR	15	10	0	STREET	1393	n/a	1	n/a	n/a	n/a	n/a	n/a
3409407	RECOG_CONF	n/a	LTP066	ltpFR	15	10	0	STREET	1393	4	1	n/a	n/a	n/a	n/a	n/a
3410766	RECOG_TARGET	n/a	LTP066	ltpFR	15	10	0	DUCK	504	4	1	n/a	n/a	n/a	n/a	n/a
3411852	RECOG_RESP	n/a	LTP066	ltpFR	15	10	0	DUCK	504	n/a	1	n/a	n/a	n/a	n/a	n/a
3412245	RECOG_CONF	n/a	LTP066	ltpFR	15	10	0	DUCK	504	4	1	n/a	n/a	n/a	n/a	n/a
3413721	RECOG_LURE	n/a	LTP066	ltpFR	15	10	n/a	LACE	792	3	n/a	n/a	n/a	n/a	n/a	n/a
3415808	RECOG_RESP	n/a	LTP066	ltpFR	15	10	n/a	LACE	792	n/a	n/a	n/a	n/a	n/a	n/a	n/a
3416252	RECOG_CONF	n/a	LTP066	ltpFR	15	10	n/a	LACE	792	3	n/a	n/a	n/a	n/a	n/a	n/a
3417675	RECOG_TARGET	n/a	LTP066	ltpFR	15	10	1	FRUIT	610	5	1	n/a	n/a	n/a	n/a	n/a
3418826	RECOG_RESP	n/a	LTP066	ltpFR	15	10	1	FRUIT	610	n/a	1	n/a	n/a	n/a	n/a	n/a
3419192	RECOG_CONF	n/a	LTP066	ltpFR	15	10	1	FRUIT	610	5	1	n/a	n/a	n/a	n/a	n/a
3420580	RECOG_LURE	n/a	LTP066	ltpFR	15	10	n/a	JOINT	758	5	n/a	n/a	n/a	n/a	n/a	n/a
3421440	RECOG_RESP	n/a	LTP066	ltpFR	15	10	n/a	JOINT	758	n/a	n/a	n/a	n/a	n/a	n/a	n/a
3421748	RECOG_CONF	n/a	LTP066	ltpFR	15	10	n/a	JOINT	758	5	n/a	n/a	n/a	n/a	n/a	n/a
3423085	RECOG_LURE	n/a	LTP066	ltpFR	15	10	n/a	SWAN	1417	3	n/a	n/a	n/a	n/a	n/a	n/a
3423895	RECOG_RESP	n/a	LTP066	ltpFR	15	10	n/a	SWAN	1417	n/a	n/a	n/a	n/a	n/a	n/a	n/a
3424278	RECOG_CONF	n/a	LTP066	ltpFR	15	10	n/a	SWAN	1417	3	n/a	n/a	n/a	n/a	n/a	n/a
3425641	RECOG_TARGET	n/a	LTP066	ltpFR	15	10	-1	MOSS	918	5	-1	n/a	n/a	n/a	n/a	n/a
3426364	RECOG_RESP	n/a	LTP066	ltpFR	15	10	-1	MOSS	918	n/a	-1	n/a	n/a	n/a	n/a	n/a
3426732	RECOG_CONF	n/a	LTP066	ltpFR	15	10	-1	MOSS	918	5	-1	n/a	n/a	n/a	n/a	n/a
3428113	RECOG_LURE	n/a	LTP066	ltpFR	15	10	n/a	CARNIVAL	245	4	n/a	n/a	n/a	n/a	n/a	n/a
3429033	RECOG_RESP	n/a	LTP066	ltpFR	15	10	n/a	CARNIVAL	245	n/a	n/a	n/a	n/a	n/a	n/a	n/a
3429502	RECOG_CONF	n/a	LTP066	ltpFR	15	10	n/a	CARNIVAL	245	4	n/a	n/a	n/a	n/a	n/a	n/a
3430868	RECOG_LURE	n/a	LTP066	ltpFR	15	10	n/a	HOSE	720	4	n/a	n/a	n/a	n/a	n/a	n/a
3431926	RECOG_RESP	n/a	LTP066	ltpFR	15	10	n/a	HOSE	720	n/a	n/a	n/a	n/a	n/a	n/a	n/a
3432270	RECOG_CONF	n/a	LTP066	ltpFR	15	10	n/a	HOSE	720	4	n/a	n/a	n/a	n/a	n/a	n/a
3433756	RECOG_LURE	n/a	LTP066	ltpFR	15	10	n/a	MOB	904	5	n/a	n/a	n/a	n/a	n/a	n/a
3434630	RECOG_RESP	n/a	LTP066	ltpFR	15	10	n/a	MOB	904	n/a	n/a	n/a	n/a	n/a	n/a	n/a
3435109	RECOG_CONF	n/a	LTP066	ltpFR	15	10	n/a	MOB	904	5	n/a	n/a	n/a	n/a	n/a	n/a
3436420	RECOG_LURE	n/a	LTP066	ltpFR	15	10	n/a	SUIT	1402	5	n/a	n/a	n/a	n/a	n/a	n/a
3437479	RECOG_RESP	n/a	LTP066	ltpFR	15	10	n/a	SUIT	1402	n/a	n/a	n/a	n/a	n/a	n/a	n/a
3437790	RECOG_CONF	n/a	LTP066	ltpFR	15	10	n/a	SUIT	1402	5	n/a	n/a	n/a	n/a	n/a	n/a
3439167	RECOG_TARGET	n/a	LTP066	ltpFR	15	10	1	EDITORIAL	517	5	0	n/a	n/a	n/a	n/a	n/a
3440277	RECOG_RESP	n/a	LTP066	ltpFR	15	10	1	EDITORIAL	517	n/a	0	n/a	n/a	n/a	n/a	n/a
3440652	RECOG_CONF	n/a	LTP066	ltpFR	15	10	1	EDITORIAL	517	5	0	n/a	n/a	n/a	n/a	n/a
3442138	RECOG_TARGET	n/a	LTP066	ltpFR	15	10	-1	PORK	1108	4	-1	n/a	n/a	n/a	n/a	n/a
3442991	RECOG_RESP	n/a	LTP066	ltpFR	15	10	-1	PORK	1108	n/a	-1	n/a	n/a	n/a	n/a	n/a
3443411	RECOG_CONF	n/a	LTP066	ltpFR	15	10	-1	PORK	1108	4	-1	n/a	n/a	n/a	n/a	n/a
3444810	RECOG_LURE	n/a	LTP066	ltpFR	15	10	n/a	ULCER	1533	5	n/a	n/a	n/a	n/a	n/a	n/a
3445600	RECOG_RESP	n/a	LTP066	ltpFR	15	10	n/a	ULCER	1533	n/a	n/a	n/a	n/a	n/a	n/a	n/a
3445921	RECOG_CONF	n/a	LTP066	ltpFR	15	10	n/a	ULCER	1533	5	n/a	n/a	n/a	n/a	n/a	n/a
3447374	RECOG_TARGET	n/a	LTP066	ltpFR	15	10	-1	INFANT	737	3	-1	n/a	n/a	n/a	n/a	n/a
3448249	RECOG_RESP	n/a	LTP066	ltpFR	15	10	-1	INFANT	737	n/a	-1	n/a	n/a	n/a	n/a	n/a
3449402	RECOG_CONF	n/a	LTP066	ltpFR	15	10	-1	INFANT	737	3	-1	n/a	n/a	n/a	n/a	n/a
3450777	RECOG_TARGET	n/a	LTP066	ltpFR	15	10	-1	STEWARDESS	1381	3	-1	n/a	n/a	n/a	n/a	n/a
3453188	RECOG_RESP	n/a	LTP066	ltpFR	15	10	-1	STEWARDESS	1381	n/a	-1	n/a	n/a	n/a	n/a	n/a
3454695	RECOG_CONF	n/a	LTP066	ltpFR	15	10	-1	STEWARDESS	1381	3	-1	n/a	n/a	n/a	n/a	n/a
3456080	RECOG_TARGET	n/a	LTP066	ltpFR	15	10	0	ROOST	1208	5	1	n/a	n/a	n/a	n/a	n/a
3456910	RECOG_RESP	n/a	LTP066	ltpFR	15	10	0	ROOST	1208	n/a	1	n/a	n/a	n/a	n/a	n/a
3457283	RECOG_CONF	n/a	LTP066	ltpFR	15	10	0	ROOST	1208	5	1	n/a	n/a	n/a	n/a	n/a
3463777	REC_START	n/a	LTP066	ltpFR	15	11	n/a	n/a	n/a	n/a	n/a	n/a	n/a	n/a	n/a	n/a
3463805	RECOG_LURE	n/a	LTP066	ltpFR	15	11	n/a	SHOVEL	1295	3	n/a	n/a	n/a	n/a	n/a	n/a
3465204	RECOG_RESP	n/a	LTP066	ltpFR	15	11	n/a	SHOVEL	1295	n/a	n/a	n/a	n/a	n/a	n/a	n/a
3465659	RECOG_CONF	n/a	LTP066	ltpFR	15	11	n/a	SHOVEL	1295	3	n/a	n/a	n/a	n/a	n/a	n/a
