mstime	trial_type	stim_file	subject	experiment	session	trial	item_name	item_num	list	answer	test_x	test_y	test_z
0	SESS_START	n/a	LTP379	ltpFR2	9	n/a	n/a	n/a	n/a	n/a	0	0	0
13785	START	n/a	LTP379	ltpFR2	9	n/a	n/a	n/a	-1	n/a	n/a	n/a	n/a
13816	PROB	n/a	LTP379	ltpFR2	9	n/a	n/a	n/a	-1	14	6	2	6
15582	PROB	n/a	LTP379	ltpFR2	9	n/a	n/a	n/a	-1	15	4	9	2
17083	PROB	n/a	LTP379	ltpFR2	9	n/a	n/a	n/a	-1	13	2	5	6
18349	PROB	n/a	LTP379	ltpFR2	9	n/a	n/a	n/a	-1	12	5	2	5
19565	PROB	n/a	LTP379	ltpFR2	9	n/a	n/a	n/a	-1	8	2	3	3
20749	PROB	n/a	LTP379	ltpFR2	9	n/a	n/a	n/a	-1	10	1	8	1
22101	PROB	n/a	LTP379	ltpFR2	9	n/a	n/a	n/a	-1	19	4	7	8
23633	PROB	n/a	LTP379	ltpFR2	9	n/a	n/a	n/a	-1	14	7	1	6
25182	STOP	n/a	LTP379	ltpFR2	9	n/a	n/a	n/a	-1	n/a	n/a	n/a	n/a
61182	DISTRACTOR	n/a	LTP379	ltpFR2	9	1	n/a	n/a	n/a	n/a	0	0	0
61182	START	n/a	LTP379	ltpFR2	9	n/a	n/a	n/a	1	n/a	n/a	n/a	n/a
61199	PROB	n/a	LTP379	ltpFR2	9	n/a	n/a	n/a	1	6	1	1	4
62349	PROB	n/a	LTP379	ltpFR2	9	n/a	n/a	n/a	1	6	4	1	1
63299	PROB	n/a	LTP379	ltpFR2	9	n/a	n/a	n/a	1	19	8	8	3
64748	PROB	n/a	LTP379	ltpFR2	9	n/a	n/a	n/a	1	13	1	3	9
66032	PROB	n/a	LTP379	ltpFR2	9	n/a	n/a	n/a	1	20	8	6	6
68615	PROB	n/a	LTP379	ltpFR2	9	n/a	n/a	n/a	1	14	9	3	2
70182	PROB	n/a	LTP379	ltpFR2	9	n/a	n/a	n/a	1	15	9	1	5
71882	PROB	n/a	LTP379	ltpFR2	9	n/a	n/a	n/a	1	13	6	6	1
72965	PROB	n/a	LTP379	ltpFR2	9	n/a	n/a	n/a	1	17	8	5	4
74848	PROB	n/a	LTP379	ltpFR2	9	n/a	n/a	n/a	1	19	4	6	9
76998	PROB	n/a	LTP379	ltpFR2	9	n/a	n/a	n/a	1	16	8	2	6
79365	PROB	n/a	LTP379	ltpFR2	9	n/a	n/a	n/a	1	17	5	6	6
81265	PROB	n/a	LTP379	ltpFR2	9	n/a	n/a	n/a	1	16	8	2	6
82497	PROB	n/a	LTP379	ltpFR2	9	n/a	n/a	n/a	1	10	1	8	1
83480	PROB	n/a	LTP379	ltpFR2	9	n/a	n/a	n/a	1	19	9	4	6
84824	STOP	n/a	LTP379	ltpFR2	9	n/a	n/a	n/a	1	n/a	n/a	n/a	n/a
86365	WORD	wordpools/wasnorm_wordpool_576.txt	LTP379	ltpFR2	9	1	JURY	766	n/a	n/a	0	0	0
88832	WORD	wordpools/wasnorm_wordpool_576.txt	LTP379	ltpFR2	9	1	SKETCH	1315	n/a	n/a	0	0	0
91597	WORD	wordpools/wasnorm_wordpool_576.txt	LTP379	ltpFR2	9	1	ROBOT	1200	n/a	n/a	0	0	0
94315	WORD	wordpools/wasnorm_wordpool_576.txt	LTP379	ltpFR2	9	1	TYPIST	1532	n/a	n/a	0	0	0
96815	WORD	wordpools/wasnorm_wordpool_576.txt	LTP379	ltpFR2	9	1	OFFICE	972	n/a	n/a	0	0	0
99564	WORD	wordpools/wasnorm_wordpool_576.txt	LTP379	ltpFR2	9	1	BLOCKADE	137	n/a	n/a	0	0	0
102315	WORD	wordpools/wasnorm_wordpool_576.txt	LTP379	ltpFR2	9	1	REBEL	1172	n/a	n/a	0	0	0
105048	WORD	wordpools/wasnorm_wordpool_576.txt	LTP379	ltpFR2	9	1	SPHINX	1349	n/a	n/a	0	0	0
107764	WORD	wordpools/wasnorm_wordpool_576.txt	LTP379	ltpFR2	9	1	COURSE	390	n/a	n/a	0	0	0
110381	WORD	wordpools/wasnorm_wordpool_576.txt	LTP379	ltpFR2	9	1	LADDER	793	n/a	n/a	0	0	0
112898	WORD	wordpools/wasnorm_wordpool_576.txt	LTP379	ltpFR2	9	1	TUTU	1524	n/a	n/a	0	0	0
115480	WORD	wordpools/wasnorm_wordpool_576.txt	LTP379	ltpFR2	9	1	HIGHWAY	707	n/a	n/a	0	0	0
118148	WORD	wordpools/wasnorm_wordpool_576.txt	LTP379	ltpFR2	9	1	WASHER	1592	n/a	n/a	0	0	0
120664	WORD	wordpools/wasnorm_wordpool_576.txt	LTP379	ltpFR2	9	1	QUAIL	1147	n/a	n/a	0	0	0
123214	WORD	wordpools/wasnorm_wordpool_576.txt	LTP379	ltpFR2	9	1	MUMMY	932	n/a	n/a	0	0	0
125714	WORD	wordpools/wasnorm_wordpool_576.txt	LTP379	ltpFR2	9	1	POLICE	1098	n/a	n/a	0	0	0
128513	WORD	wordpools/wasnorm_wordpool_576.txt	LTP379	ltpFR2	9	1	HORNET	718	n/a	n/a	0	0	0
131014	WORD	wordpools/wasnorm_wordpool_576.txt	LTP379	ltpFR2	9	1	BRANCH	168	n/a	n/a	0	0	0
133781	WORD	wordpools/wasnorm_wordpool_576.txt	LTP379	ltpFR2	9	1	CABIN	211	n/a	n/a	0	0	0
136413	WORD	wordpools/wasnorm_wordpool_576.txt	LTP379	ltpFR2	9	1	DRUG	501	n/a	n/a	0	0	0
138864	WORD	wordpools/wasnorm_wordpool_576.txt	LTP379	ltpFR2	9	1	DUSTPAN	509	n/a	n/a	0	0	0
141580	WORD	wordpools/wasnorm_wordpool_576.txt	LTP379	ltpFR2	9	1	DUST	508	n/a	n/a	0	0	0
144081	WORD	wordpools/wasnorm_wordpool_576.txt	LTP379	ltpFR2	9	1	RACKET	1155	n/a	n/a	0	0	0
146513	WORD	wordpools/wasnorm_wordpool_576.txt	LTP379	ltpFR2	9	1	MUSTARD	935	n/a	n/a	0	0	0
148131	START	n/a	LTP379	ltpFR2	9	n/a	n/a	n/a	2	n/a	n/a	n/a	n/a
149045	DISTRACTOR	n/a	LTP379	ltpFR2	9	1	n/a	n/a	n/a	n/a	0	0	0
149047	PROB	n/a	LTP379	ltpFR2	9	n/a	n/a	n/a	2	17	4	5	8
151546	PROB	n/a	LTP379	ltpFR2	9	n/a	n/a	n/a	2	20	6	8	6
152880	PROB	n/a	LTP379	ltpFR2	9	n/a	n/a	n/a	2	5	1	2	2
153897	PROB	n/a	LTP379	ltpFR2	9	n/a	n/a	n/a	2	19	3	9	7
155347	PROB	n/a	LTP379	ltpFR2	9	n/a	n/a	n/a	2	16	4	7	5
157130	PROB	n/a	LTP379	ltpFR2	9	n/a	n/a	n/a	2	8	4	2	2
158780	PROB	n/a	LTP379	ltpFR2	9	n/a	n/a	n/a	2	19	9	3	7
160413	PROB	n/a	LTP379	ltpFR2	9	n/a	n/a	n/a	2	16	1	8	7
162647	PROB	n/a	LTP379	ltpFR2	9	n/a	n/a	n/a	2	18	5	7	6
164164	PROB	n/a	LTP379	ltpFR2	9	n/a	n/a	n/a	2	7	2	2	3
165847	PROB	n/a	LTP379	ltpFR2	9	n/a	n/a	n/a	2	21	7	8	6
167914	PROB	n/a	LTP379	ltpFR2	9	n/a	n/a	n/a	2	24	8	8	8
169363	PROB	n/a	LTP379	ltpFR2	9	n/a	n/a	n/a	2	16	6	1	9
170630	PROB	n/a	LTP379	ltpFR2	9	n/a	n/a	n/a	2	15	6	6	3
171835	STOP	n/a	LTP379	ltpFR2	9	n/a	n/a	n/a	2	n/a	n/a	n/a	n/a
173897	REC_START	n/a	LTP379	ltpFR2	9	1	n/a	n/a	n/a	n/a	0	0	0
180090	REC_WORD	wordpools/wasnorm_wordpool_576.txt	LTP379	ltpFR2	9	1	JURY	766	n/a	n/a	0	0	0
181195	REC_WORD	wordpools/wasnorm_wordpool_576.txt	LTP379	ltpFR2	9	1	SKETCH	1315	n/a	n/a	0	0	0
182691	REC_WORD	wordpools/wasnorm_wordpool_576.txt	LTP379	ltpFR2	9	1	ROBOT	1200	n/a	n/a	0	0	0
184050	REC_WORD	wordpools/wasnorm_wordpool_576.txt	LTP379	ltpFR2	9	1	TYPIST	1532	n/a	n/a	0	0	0
185319	REC_WORD	wordpools/wasnorm_wordpool_576.txt	LTP379	ltpFR2	9	1	OFFICE	972	n/a	n/a	0	0	0
186563	REC_WORD	wordpools/wasnorm_wordpool_576.txt	LTP379	ltpFR2	9	1	BLOCKADE	137	n/a	n/a	0	0	0
187786	REC_WORD	wordpools/wasnorm_wordpool_576.txt	LTP379	ltpFR2	9	1	REBEL	1172	n/a	n/a	0	0	0
189096	REC_WORD	wordpools/wasnorm_wordpool_576.txt	LTP379	ltpFR2	9	1	SPHINX	1349	n/a	n/a	0	0	0
194450	REC_WORD	wordpools/wasnorm_wordpool_576.txt	LTP379	ltpFR2	9	1	COURSE	390	n/a	n/a	0	0	0
195843	REC_WORD	wordpools/wasnorm_wordpool_576.txt	LTP379	ltpFR2	9	1	LADDER	793	n/a	n/a	0	0	0
197154	REC_WORD	wordpools/wasnorm_wordpool_576.txt	LTP379	ltpFR2	9	1	TUTU	1524	n/a	n/a	0	0	0
198259	REC_WORD	wordpools/wasnorm_wordpool_576.txt	LTP379	ltpFR2	9	1	HIGHWAY	707	n/a	n/a	0	0	0
199543	REC_WORD	wordpools/wasnorm_wordpool_576.txt	LTP379	ltpFR2	9	1	WASHER	1592	n/a	n/a	0	0	0
200809	REC_WORD	wordpools/wasnorm_wordpool_576.txt	LTP379	ltpFR2	9	1	QUAIL	1147	n/a	n/a	0	0	0
202164	REC_WORD	wordpools/wasnorm_wordpool_576.txt	LTP379	ltpFR2	9	1	MUMMY	932	n/a	n/a	0	0	0
203651	REC_WORD_VV	wordpools/wasnorm_wordpool_576.txt	LTP379	ltpFR2	9	1	<>	-1	n/a	n/a	0	0	0
205503	REC_WORD	wordpools/wasnorm_wordpool_576.txt	LTP379	ltpFR2	9	1	POLICE	1098	n/a	n/a	0	0	0
206640	REC_WORD	wordpools/wasnorm_wordpool_576.txt	LTP379	ltpFR2	9	1	HORNET	718	n/a	n/a	0	0	0
207970	REC_WORD	wordpools/wasnorm_wordpool_576.txt	LTP379	ltpFR2	9	1	BRANCH	168	n/a	n/a	0	0	0
209221	REC_WORD	wordpools/wasnorm_wordpool_576.txt	LTP379	ltpFR2	9	1	CABIN	211	n/a	n/a	0	0	0
210506	REC_WORD	wordpools/wasnorm_wordpool_576.txt	LTP379	ltpFR2	9	1	DRUG	501	n/a	n/a	0	0	0
211960	REC_WORD	wordpools/wasnorm_wordpool_576.txt	LTP379	ltpFR2	9	1	DUSTPAN	509	n/a	n/a	0	0	0
213277	REC_WORD	wordpools/wasnorm_wordpool_576.txt	LTP379	ltpFR2	9	1	DUST	508	n/a	n/a	0	0	0
214482	REC_WORD	wordpools/wasnorm_wordpool_576.txt	LTP379	ltpFR2	9	1	RACKET	1155	n/a	n/a	0	0	0
215629	REC_WORD	wordpools/wasnorm_wordpool_576.txt	LTP379	ltpFR2	9	1	MUSTARD	935	n/a	n/a	0	0	0
264362	WORD	wordpools/wasnorm_wordpool_576.txt	LTP379	ltpFR2	9	2	BOUQUET	157	n/a	n/a	0	0	0
266812	WORD	wordpools/wasnorm_wordpool_576.txt	LTP379	ltpFR2	9	2	TABLE	1426	n/a	n/a	0	0	0
269362	WORD	wordpools/wasnorm_wordpool_576.txt	LTP379	ltpFR2	9	2	PAIL	1002	n/a	n/a	0	0	0
271995	WORD	wordpools/wasnorm_wordpool_576.txt	LTP379	ltpFR2	9	2	PUPPY	1144	n/a	n/a	0	0	0
274778	WORD	wordpools/wasnorm_wordpool_576.txt	LTP379	ltpFR2	9	2	SIDEWALK	1303	n/a	n/a	0	0	0
277378	WORD	wordpools/wasnorm_wordpool_576.txt	LTP379	ltpFR2	9	2	PASSAGE	1019	n/a	n/a	0	0	0
279928	WORD	wordpools/wasnorm_wordpool_576.txt	LTP379	ltpFR2	9	2	DENTIST	447	n/a	n/a	0	0	0
282678	WORD	wordpools/wasnorm_wordpool_576.txt	LTP379	ltpFR2	9	2	HOOD	714	n/a	n/a	0	0	0
285362	WORD	wordpools/wasnorm_wordpool_576.txt	LTP379	ltpFR2	9	2	TRIBE	1505	n/a	n/a	0	0	0
287895	WORD	wordpools/wasnorm_wordpool_576.txt	LTP379	ltpFR2	9	2	CHURCH	307	n/a	n/a	0	0	0
290394	WORD	wordpools/wasnorm_wordpool_576.txt	LTP379	ltpFR2	9	2	PLATE	1086	n/a	n/a	0	0	0
293062	WORD	wordpools/wasnorm_wordpool_576.txt	LTP379	ltpFR2	9	2	UNCLE	1536	n/a	n/a	0	0	0
295828	WORD	wordpools/wasnorm_wordpool_576.txt	LTP379	ltpFR2	9	2	REPORT	1184	n/a	n/a	0	0	0
298278	WORD	wordpools/wasnorm_wordpool_576.txt	LTP379	ltpFR2	9	2	CONVICT	371	n/a	n/a	0	0	0
301045	WORD	wordpools/wasnorm_wordpool_576.txt	LTP379	ltpFR2	9	2	CHAUFFEUR	283	n/a	n/a	0	0	0
303560	WORD	wordpools/wasnorm_wordpool_576.txt	LTP379	ltpFR2	9	2	POET	1095	n/a	n/a	0	0	0
306311	WORD	wordpools/wasnorm_wordpool_576.txt	LTP379	ltpFR2	9	2	PADDING	999	n/a	n/a	0	0	0
308895	WORD	wordpools/wasnorm_wordpool_576.txt	LTP379	ltpFR2	9	2	AWARD	63	n/a	n/a	0	0	0
311361	WORD	wordpools/wasnorm_wordpool_576.txt	LTP379	ltpFR2	9	2	DIVER	476	n/a	n/a	0	0	0
313794	WORD	wordpools/wasnorm_wordpool_576.txt	LTP379	ltpFR2	9	2	SUMMIT	1405	n/a	n/a	0	0	0
316328	WORD	wordpools/wasnorm_wordpool_576.txt	LTP379	ltpFR2	9	2	CAPTIVE	240	n/a	n/a	0	0	0
318911	WORD	wordpools/wasnorm_wordpool_576.txt	LTP379	ltpFR2	9	2	SUSPECT	1415	n/a	n/a	0	0	0
321410	WORD	wordpools/wasnorm_wordpool_576.txt	LTP379	ltpFR2	9	2	BEEF	113	n/a	n/a	0	0	0
323878	WORD	wordpools/wasnorm_wordpool_576.txt	LTP379	ltpFR2	9	2	BUTCHER	203	n/a	n/a	0	0	0
325494	START	n/a	LTP379	ltpFR2	9	n/a	n/a	n/a	3	n/a	n/a	n/a	n/a
326611	DISTRACTOR	n/a	LTP379	ltpFR2	9	2	n/a	n/a	n/a	n/a	0	0	0
326628	PROB	n/a	LTP379	ltpFR2	9	n/a	n/a	n/a	3	12	7	4	1
329078	PROB	n/a	LTP379	ltpFR2	9	n/a	n/a	n/a	3	10	3	6	1
330460	PROB	n/a	LTP379	ltpFR2	9	n/a	n/a	n/a	3	6	1	4	1
331510	PROB	n/a	LTP379	ltpFR2	9	n/a	n/a	n/a	3	12	3	3	6
333577	PROB	n/a	LTP379	ltpFR2	9	n/a	n/a	n/a	3	11	2	3	6
335044	PROB	n/a	LTP379	ltpFR2	9	n/a	n/a	n/a	3	14	3	5	6
336644	PROB	n/a	LTP379	ltpFR2	9	n/a	n/a	n/a	3	17	9	6	2
338711	PROB	n/a	LTP379	ltpFR2	9	n/a	n/a	n/a	3	9	7	1	1
339794	PROB	n/a	LTP379	ltpFR2	9	n/a	n/a	n/a	3	13	1	9	3
340994	PROB	n/a	LTP379	ltpFR2	9	n/a	n/a	n/a	3	14	5	3	6
342426	PROB	n/a	LTP379	ltpFR2	9	n/a	n/a	n/a	3	13	7	2	4
343827	PROB	n/a	LTP379	ltpFR2	9	n/a	n/a	n/a	3	11	6	3	2
345443	PROB	n/a	LTP379	ltpFR2	9	n/a	n/a	n/a	3	23	7	9	7
349493	STOP	n/a	LTP379	ltpFR2	9	n/a	n/a	n/a	3	n/a	n/a	n/a	n/a
351394	REC_START	n/a	LTP379	ltpFR2	9	2	n/a	n/a	n/a	n/a	0	0	0
360442	REC_WORD	wordpools/wasnorm_wordpool_576.txt	LTP379	ltpFR2	9	2	BOUQUET	157	n/a	n/a	0	0	0
361676	REC_WORD	wordpools/wasnorm_wordpool_576.txt	LTP379	ltpFR2	9	2	TABLE	1426	n/a	n/a	0	0	0
363333	REC_WORD	wordpools/wasnorm_wordpool_576.txt	LTP379	ltpFR2	9	2	PAIL	1002	n/a	n/a	0	0	0
364785	REC_WORD	wordpools/wasnorm_wordpool_576.txt	LTP379	ltpFR2	9	2	PUPPY	1144	n/a	n/a	0	0	0
365964	REC_WORD	wordpools/wasnorm_wordpool_576.txt	LTP379	ltpFR2	9	2	SIDEWALK	1303	n/a	n/a	0	0	0
367282	REC_WORD	wordpools/wasnorm_wordpool_576.txt	LTP379	ltpFR2	9	2	PASSAGE	1019	n/a	n/a	0	0	0
369883	REC_WORD	wordpools/wasnorm_wordpool_576.txt	LTP379	ltpFR2	9	2	DENTIST	447	n/a	n/a	0	0	0
370739	REC_WORD	wordpools/wasnorm_wordpool_576.txt	LTP379	ltpFR2	9	2	HOOD	714	n/a	n/a	0	0	0
373185	REC_WORD	wordpools/wasnorm_wordpool_576.txt	LTP379	ltpFR2	9	2	TRIBE	1505	n/a	n/a	0	0	0
376790	REC_WORD	wordpools/wasnorm_wordpool_576.txt	LTP379	ltpFR2	9	2	CHURCH	307	n/a	n/a	0	0	0
377889	REC_WORD	wordpools/wasnorm_wordpool_576.txt	LTP379	ltpFR2	9	2	PLATE	1086	n/a	n/a	0	0	0
378992	REC_WORD	wordpools/wasnorm_wordpool_576.txt	LTP379	ltpFR2	9	2	UNCLE	1536	n/a	n/a	0	0	0
380149	REC_WORD	wordpools/wasnorm_wordpool_576.txt	LTP379	ltpFR2	9	2	REPORT	1184	n/a	n/a	0	0	0
381552	REC_WORD	wordpools/wasnorm_wordpool_576.txt	LTP379	ltpFR2	9	2	PADDING	999	n/a	n/a	0	0	0
382656	REC_WORD	wordpools/wasnorm_wordpool_576.txt	LTP379	ltpFR2	9	2	AWARD	63	n/a	n/a	0	0	0
384058	REC_WORD	wordpools/wasnorm_wordpool_576.txt	LTP379	ltpFR2	9	2	DIVER	476	n/a	n/a	0	0	0
385866	REC_WORD	wordpools/wasnorm_wordpool_576.txt	LTP379	ltpFR2	9	2	SUMMIT	1405	n/a	n/a	0	0	0
387606	REC_WORD	wordpools/wasnorm_wordpool_576.txt	LTP379	ltpFR2	9	2	CONVICT	371	n/a	n/a	0	0	0
390356	REC_WORD	wordpools/wasnorm_wordpool_576.txt	LTP379	ltpFR2	9	2	CHAUFFEUR	283	n/a	n/a	0	0	0
391862	REC_WORD	wordpools/wasnorm_wordpool_576.txt	LTP379	ltpFR2	9	2	POET	1095	n/a	n/a	0	0	0
396116	REC_WORD	wordpools/wasnorm_wordpool_576.txt	LTP379	ltpFR2	9	2	CAPTIVE	240	n/a	n/a	0	0	0
400521	REC_WORD	wordpools/wasnorm_wordpool_576.txt	LTP379	ltpFR2	9	2	BEEF	113	n/a	n/a	0	0	0
401766	REC_WORD	wordpools/wasnorm_wordpool_576.txt	LTP379	ltpFR2	9	2	BUTCHER	203	n/a	n/a	0	0	0
441826	DISTRACTOR	n/a	LTP379	ltpFR2	9	3	n/a	n/a	n/a	n/a	0	0	0
441826	START	n/a	LTP379	ltpFR2	9	n/a	n/a	n/a	4	n/a	n/a	n/a	n/a
441843	PROB	n/a	LTP379	ltpFR2	9	n/a	n/a	n/a	4	12	8	3	1
443608	PROB	n/a	LTP379	ltpFR2	9	n/a	n/a	n/a	4	8	4	1	3
445142	PROB	n/a	LTP379	ltpFR2	9	n/a	n/a	n/a	4	15	3	3	9
447441	PROB	n/a	LTP379	ltpFR2	9	n/a	n/a	n/a	4	14	3	6	5
450475	PROB	n/a	LTP379	ltpFR2	9	n/a	n/a	n/a	4	14	7	1	6
451826	PROB	n/a	LTP379	ltpFR2	9	n/a	n/a	n/a	4	18	7	9	2
453709	PROB	n/a	LTP379	ltpFR2	9	n/a	n/a	n/a	4	5	1	1	3
454726	PROB	n/a	LTP379	ltpFR2	9	n/a	n/a	n/a	4	17	6	4	7
456142	PROB	n/a	LTP379	ltpFR2	9	n/a	n/a	n/a	4	15	4	3	8
457676	PROB	n/a	LTP379	ltpFR2	9	n/a	n/a	n/a	4	14	2	8	4
458909	PROB	n/a	LTP379	ltpFR2	9	n/a	n/a	n/a	4	18	8	7	3
460326	PROB	n/a	LTP379	ltpFR2	9	n/a	n/a	n/a	4	5	2	2	1
461326	PROB	n/a	LTP379	ltpFR2	9	n/a	n/a	n/a	4	20	3	8	9
463491	PROB	n/a	LTP379	ltpFR2	9	n/a	n/a	n/a	4	18	9	6	3
465236	STOP	n/a	LTP379	ltpFR2	9	n/a	n/a	n/a	4	n/a	n/a	n/a	n/a
466742	WORD	wordpools/wasnorm_wordpool_576.txt	LTP379	ltpFR2	9	3	ISLAND	745	n/a	n/a	0	0	0
469408	WORD	wordpools/wasnorm_wordpool_576.txt	LTP379	ltpFR2	9	3	STREAM	1392	n/a	n/a	0	0	0
471925	WORD	wordpools/wasnorm_wordpool_576.txt	LTP379	ltpFR2	9	3	LACE	792	n/a	n/a	0	0	0
474441	WORD	wordpools/wasnorm_wordpool_576.txt	LTP379	ltpFR2	9	3	MARKET	871	n/a	n/a	0	0	0
477125	WORD	wordpools/wasnorm_wordpool_576.txt	LTP379	ltpFR2	9	3	BUBBLE	183	n/a	n/a	0	0	0
479742	WORD	wordpools/wasnorm_wordpool_576.txt	LTP379	ltpFR2	9	3	VENUS	1557	n/a	n/a	0	0	0
482524	WORD	wordpools/wasnorm_wordpool_576.txt	LTP379	ltpFR2	9	3	RELISH	1183	n/a	n/a	0	0	0
485208	WORD	wordpools/wasnorm_wordpool_576.txt	LTP379	ltpFR2	9	3	KETCHUP	771	n/a	n/a	0	0	0
487659	WORD	wordpools/wasnorm_wordpool_576.txt	LTP379	ltpFR2	9	3	PICNIC	1060	n/a	n/a	0	0	0
490457	WORD	wordpools/wasnorm_wordpool_576.txt	LTP379	ltpFR2	9	3	NIGHTGOWN	953	n/a	n/a	0	0	0
493175	WORD	wordpools/wasnorm_wordpool_576.txt	LTP379	ltpFR2	9	3	SKIRT	1319	n/a	n/a	0	0	0
495792	WORD	wordpools/wasnorm_wordpool_576.txt	LTP379	ltpFR2	9	3	FRANCE	601	n/a	n/a	0	0	0
498391	WORD	wordpools/wasnorm_wordpool_576.txt	LTP379	ltpFR2	9	3	PISTON	1076	n/a	n/a	0	0	0
500992	WORD	wordpools/wasnorm_wordpool_576.txt	LTP379	ltpFR2	9	3	DRESS	495	n/a	n/a	0	0	0
503541	WORD	wordpools/wasnorm_wordpool_576.txt	LTP379	ltpFR2	9	3	WITNESS	1618	n/a	n/a	0	0	0
505992	WORD	wordpools/wasnorm_wordpool_576.txt	LTP379	ltpFR2	9	3	NOVEL	960	n/a	n/a	0	0	0
508775	WORD	wordpools/wasnorm_wordpool_576.txt	LTP379	ltpFR2	9	3	JEANS	752	n/a	n/a	0	0	0
511208	WORD	wordpools/wasnorm_wordpool_576.txt	LTP379	ltpFR2	9	3	HOSTESS	723	n/a	n/a	0	0	0
513758	WORD	wordpools/wasnorm_wordpool_576.txt	LTP379	ltpFR2	9	3	FIREMAN	569	n/a	n/a	0	0	0
516490	WORD	wordpools/wasnorm_wordpool_576.txt	LTP379	ltpFR2	9	3	COBRA	336	n/a	n/a	0	0	0
519241	WORD	wordpools/wasnorm_wordpool_576.txt	LTP379	ltpFR2	9	3	WAITRESS	1581	n/a	n/a	0	0	0
521791	WORD	wordpools/wasnorm_wordpool_576.txt	LTP379	ltpFR2	9	3	PASTRY	1022	n/a	n/a	0	0	0
524607	WORD	wordpools/wasnorm_wordpool_576.txt	LTP379	ltpFR2	9	3	GUARD	667	n/a	n/a	0	0	0
527308	WORD	wordpools/wasnorm_wordpool_576.txt	LTP379	ltpFR2	9	3	BADGE	68	n/a	n/a	0	0	0
528925	START	n/a	LTP379	ltpFR2	9	n/a	n/a	n/a	5	n/a	n/a	n/a	n/a
529976	DISTRACTOR	n/a	LTP379	ltpFR2	9	3	n/a	n/a	n/a	n/a	0	0	0
529991	PROB	n/a	LTP379	ltpFR2	9	n/a	n/a	n/a	5	12	2	2	8
531891	PROB	n/a	LTP379	ltpFR2	9	n/a	n/a	n/a	5	20	9	5	6
535008	PROB	n/a	LTP379	ltpFR2	9	n/a	n/a	n/a	5	18	8	8	2
536724	PROB	n/a	LTP379	ltpFR2	9	n/a	n/a	n/a	5	18	7	4	7
538708	PROB	n/a	LTP379	ltpFR2	9	n/a	n/a	n/a	5	18	4	9	5
540324	PROB	n/a	LTP379	ltpFR2	9	n/a	n/a	n/a	5	18	5	4	9
541774	PROB	n/a	LTP379	ltpFR2	9	n/a	n/a	n/a	5	11	1	6	4
543041	PROB	n/a	LTP379	ltpFR2	9	n/a	n/a	n/a	5	15	3	9	3
544741	PROB	n/a	LTP379	ltpFR2	9	n/a	n/a	n/a	5	13	2	3	8
546590	PROB	n/a	LTP379	ltpFR2	9	n/a	n/a	n/a	5	14	2	6	6
548557	PROB	n/a	LTP379	ltpFR2	9	n/a	n/a	n/a	5	15	4	7	4
550274	PROB	n/a	LTP379	ltpFR2	9	n/a	n/a	n/a	5	21	7	7	7
551454	STOP	n/a	LTP379	ltpFR2	9	n/a	n/a	n/a	5	n/a	n/a	n/a	n/a
554841	REC_START	n/a	LTP379	ltpFR2	9	3	n/a	n/a	n/a	n/a	0	0	0
573754	REC_WORD_VV	wordpools/wasnorm_wordpool_576.txt	LTP379	ltpFR2	9	3	<>	-1	n/a	n/a	0	0	0
576322	REC_WORD	wordpools/wasnorm_wordpool_576.txt	LTP379	ltpFR2	9	3	ISLAND	745	n/a	n/a	0	0	0
577478	REC_WORD	wordpools/wasnorm_wordpool_576.txt	LTP379	ltpFR2	9	3	STREAM	1392	n/a	n/a	0	0	0
578848	REC_WORD	wordpools/wasnorm_wordpool_576.txt	LTP379	ltpFR2	9	3	LACE	792	n/a	n/a	0	0	0
580000	REC_WORD	wordpools/wasnorm_wordpool_576.txt	LTP379	ltpFR2	9	3	MARKET	871	n/a	n/a	0	0	0
581248	REC_WORD	wordpools/wasnorm_wordpool_576.txt	LTP379	ltpFR2	9	3	BUBBLE	183	n/a	n/a	0	0	0
582320	REC_WORD	wordpools/wasnorm_wordpool_576.txt	LTP379	ltpFR2	9	3	VENUS	1557	n/a	n/a	0	0	0
583895	REC_WORD	wordpools/wasnorm_wordpool_576.txt	LTP379	ltpFR2	9	3	RELISH	1183	n/a	n/a	0	0	0
585216	REC_WORD	wordpools/wasnorm_wordpool_576.txt	LTP379	ltpFR2	9	3	KETCHUP	771	n/a	n/a	0	0	0
588041	REC_WORD	wordpools/wasnorm_wordpool_576.txt	LTP379	ltpFR2	9	3	PICNIC	1060	n/a	n/a	0	0	0
589070	REC_WORD	wordpools/wasnorm_wordpool_576.txt	LTP379	ltpFR2	9	3	NIGHTGOWN	953	n/a	n/a	0	0	0
590221	REC_WORD	wordpools/wasnorm_wordpool_576.txt	LTP379	ltpFR2	9	3	SKIRT	1319	n/a	n/a	0	0	0
591491	REC_WORD	wordpools/wasnorm_wordpool_576.txt	LTP379	ltpFR2	9	3	FRANCE	601	n/a	n/a	0	0	0
592818	REC_WORD	wordpools/wasnorm_wordpool_576.txt	LTP379	ltpFR2	9	3	PISTON	1076	n/a	n/a	0	0	0
593996	REC_WORD	wordpools/wasnorm_wordpool_576.txt	LTP379	ltpFR2	9	3	DRESS	495	n/a	n/a	0	0	0
595396	REC_WORD	wordpools/wasnorm_wordpool_576.txt	LTP379	ltpFR2	9	3	WITNESS	1618	n/a	n/a	0	0	0
596650	REC_WORD	wordpools/wasnorm_wordpool_576.txt	LTP379	ltpFR2	9	3	NOVEL	960	n/a	n/a	0	0	0
598103	REC_WORD	wordpools/wasnorm_wordpool_576.txt	LTP379	ltpFR2	9	3	HOSTESS	723	n/a	n/a	0	0	0
600106	REC_WORD	wordpools/wasnorm_wordpool_576.txt	LTP379	ltpFR2	9	3	JEANS	752	n/a	n/a	0	0	0
607383	REC_WORD	wordpools/wasnorm_wordpool_576.txt	LTP379	ltpFR2	9	3	FIREMAN	569	n/a	n/a	0	0	0
608810	REC_WORD	wordpools/wasnorm_wordpool_576.txt	LTP379	ltpFR2	9	3	COBRA	336	n/a	n/a	0	0	0
610429	REC_WORD	wordpools/wasnorm_wordpool_576.txt	LTP379	ltpFR2	9	3	WAITRESS	1581	n/a	n/a	0	0	0
611780	REC_WORD	wordpools/wasnorm_wordpool_576.txt	LTP379	ltpFR2	9	3	PASTRY	1022	n/a	n/a	0	0	0
613139	REC_WORD	wordpools/wasnorm_wordpool_576.txt	LTP379	ltpFR2	9	3	GUARD	667	n/a	n/a	0	0	0
614356	REC_WORD	wordpools/wasnorm_wordpool_576.txt	LTP379	ltpFR2	9	3	BADGE	68	n/a	n/a	0	0	0
645273	DISTRACTOR	n/a	LTP379	ltpFR2	9	4	n/a	n/a	n/a	n/a	0	0	0
645273	START	n/a	LTP379	ltpFR2	9	n/a	n/a	n/a	6	n/a	n/a	n/a	n/a
645289	PROB	n/a	LTP379	ltpFR2	9	n/a	n/a	n/a	6	13	4	6	3
646789	PROB	n/a	LTP379	ltpFR2	9	n/a	n/a	n/a	6	22	9	6	7
649189	PROB	n/a	LTP379	ltpFR2	9	n/a	n/a	n/a	6	14	5	8	1
651239	PROB	n/a	LTP379	ltpFR2	9	n/a	n/a	n/a	6	14	7	2	5
653156	PROB	n/a	LTP379	ltpFR2	9	n/a	n/a	n/a	6	15	7	6	2
654673	PROB	n/a	LTP379	ltpFR2	9	n/a	n/a	n/a	6	13	2	2	9
656239	PROB	n/a	LTP379	ltpFR2	9	n/a	n/a	n/a	6	15	3	8	4
658689	PROB	n/a	LTP379	ltpFR2	9	n/a	n/a	n/a	6	18	5	9	4
660372	PROB	n/a	LTP379	ltpFR2	9	n/a	n/a	n/a	6	14	4	6	4
661538	PROB	n/a	LTP379	ltpFR2	9	n/a	n/a	n/a	6	14	1	8	5
663421	PROB	n/a	LTP379	ltpFR2	9	n/a	n/a	n/a	6	16	6	4	6
665471	PROB	n/a	LTP379	ltpFR2	9	n/a	n/a	n/a	6	22	8	7	7
667156	PROB	n/a	LTP379	ltpFR2	9	n/a	n/a	n/a	6	17	7	5	5
668682	STOP	n/a	LTP379	ltpFR2	9	n/a	n/a	n/a	6	n/a	n/a	n/a	n/a
670239	WORD	wordpools/wasnorm_wordpool_576.txt	LTP379	ltpFR2	9	4	SNAKE	1333	n/a	n/a	0	0	0
672806	WORD	wordpools/wasnorm_wordpool_576.txt	LTP379	ltpFR2	9	4	LOVER	846	n/a	n/a	0	0	0
675339	WORD	wordpools/wasnorm_wordpool_576.txt	LTP379	ltpFR2	9	4	BOYFRIEND	162	n/a	n/a	0	0	0
677789	WORD	wordpools/wasnorm_wordpool_576.txt	LTP379	ltpFR2	9	4	CLIMBER	323	n/a	n/a	0	0	0
680555	WORD	wordpools/wasnorm_wordpool_576.txt	LTP379	ltpFR2	9	4	MAILBOX	857	n/a	n/a	0	0	0
683322	WORD	wordpools/wasnorm_wordpool_576.txt	LTP379	ltpFR2	9	4	PACKAGE	997	n/a	n/a	0	0	0
686005	WORD	wordpools/wasnorm_wordpool_576.txt	LTP379	ltpFR2	9	4	PUPIL	1143	n/a	n/a	0	0	0
688571	WORD	wordpools/wasnorm_wordpool_576.txt	LTP379	ltpFR2	9	4	PEACH	1031	n/a	n/a	0	0	0
691155	WORD	wordpools/wasnorm_wordpool_576.txt	LTP379	ltpFR2	9	4	GRIZZLY	662	n/a	n/a	0	0	0
693955	WORD	wordpools/wasnorm_wordpool_576.txt	LTP379	ltpFR2	9	4	WARDROBE	1587	n/a	n/a	0	0	0
696504	WORD	wordpools/wasnorm_wordpool_576.txt	LTP379	ltpFR2	9	4	OYSTER	995	n/a	n/a	0	0	0
699256	WORD	wordpools/wasnorm_wordpool_576.txt	LTP379	ltpFR2	9	4	SILK	1307	n/a	n/a	0	0	0
701922	WORD	wordpools/wasnorm_wordpool_576.txt	LTP379	ltpFR2	9	4	SUITCASE	1403	n/a	n/a	0	0	0
704437	WORD	wordpools/wasnorm_wordpool_576.txt	LTP379	ltpFR2	9	4	PASTA	1021	n/a	n/a	0	0	0
706988	WORD	wordpools/wasnorm_wordpool_576.txt	LTP379	ltpFR2	9	4	TOASTER	1472	n/a	n/a	0	0	0
709805	WORD	wordpools/wasnorm_wordpool_576.txt	LTP379	ltpFR2	9	4	DRAGON	492	n/a	n/a	0	0	0
712537	WORD	wordpools/wasnorm_wordpool_576.txt	LTP379	ltpFR2	9	4	CURTAIN	427	n/a	n/a	0	0	0
715188	WORD	wordpools/wasnorm_wordpool_576.txt	LTP379	ltpFR2	9	4	GUITAR	670	n/a	n/a	0	0	0
717772	WORD	wordpools/wasnorm_wordpool_576.txt	LTP379	ltpFR2	9	4	WHISTLE	1606	n/a	n/a	0	0	0
720537	WORD	wordpools/wasnorm_wordpool_576.txt	LTP379	ltpFR2	9	4	DRILL	497	n/a	n/a	0	0	0
722955	WORD	wordpools/wasnorm_wordpool_576.txt	LTP379	ltpFR2	9	4	TRACTOR	1493	n/a	n/a	0	0	0
725437	WORD	wordpools/wasnorm_wordpool_576.txt	LTP379	ltpFR2	9	4	CLAM	315	n/a	n/a	0	0	0
728188	WORD	wordpools/wasnorm_wordpool_576.txt	LTP379	ltpFR2	9	4	NEUTRON	947	n/a	n/a	0	0	0
730971	WORD	wordpools/wasnorm_wordpool_576.txt	LTP379	ltpFR2	9	4	BEAST	108	n/a	n/a	0	0	0
732587	START	n/a	LTP379	ltpFR2	9	n/a	n/a	n/a	7	n/a	n/a	n/a	n/a
733777	DISTRACTOR	n/a	LTP379	ltpFR2	9	4	n/a	n/a	n/a	n/a	0	0	0
733788	PROB	n/a	LTP379	ltpFR2	9	n/a	n/a	n/a	7	11	1	5	5
735321	PROB	n/a	LTP379	ltpFR2	9	n/a	n/a	n/a	7	13	4	2	7
736855	PROB	n/a	LTP379	ltpFR2	9	n/a	n/a	n/a	7	12	1	7	4
738321	PROB	n/a	LTP379	ltpFR2	9	n/a	n/a	n/a	7	13	9	1	3
739503	PROB	n/a	LTP379	ltpFR2	9	n/a	n/a	n/a	7	10	3	3	4
740871	PROB	n/a	LTP379	ltpFR2	9	n/a	n/a	n/a	7	11	3	1	7
742321	PROB	n/a	LTP379	ltpFR2	9	n/a	n/a	n/a	7	11	8	2	1
743403	PROB	n/a	LTP379	ltpFR2	9	n/a	n/a	n/a	7	13	1	6	6
745838	PROB	n/a	LTP379	ltpFR2	9	n/a	n/a	n/a	7	14	3	8	1
747771	PROB	n/a	LTP379	ltpFR2	9	n/a	n/a	n/a	7	8	1	4	3
749738	PROB	n/a	LTP379	ltpFR2	9	n/a	n/a	n/a	7	13	6	4	3
750904	PROB	n/a	LTP379	ltpFR2	9	n/a	n/a	n/a	7	9	5	3	1
752121	PROB	n/a	LTP379	ltpFR2	9	n/a	n/a	n/a	7	19	6	8	5
754453	PROB	n/a	LTP379	ltpFR2	9	n/a	n/a	n/a	7	17	7	3	7
755877	STOP	n/a	LTP379	ltpFR2	9	n/a	n/a	n/a	7	n/a	n/a	n/a	n/a
758371	REC_START	n/a	LTP379	ltpFR2	9	4	n/a	n/a	n/a	n/a	0	0	0
763202	REC_WORD	wordpools/wasnorm_wordpool_576.txt	LTP379	ltpFR2	9	4	SNAKE	1333	n/a	n/a	0	0	0
764401	REC_WORD	wordpools/wasnorm_wordpool_576.txt	LTP379	ltpFR2	9	4	LOVER	846	n/a	n/a	0	0	0
765587	REC_WORD	wordpools/wasnorm_wordpool_576.txt	LTP379	ltpFR2	9	4	BOYFRIEND	162	n/a	n/a	0	0	0
766640	REC_WORD	wordpools/wasnorm_wordpool_576.txt	LTP379	ltpFR2	9	4	CLIMBER	323	n/a	n/a	0	0	0
767667	REC_WORD	wordpools/wasnorm_wordpool_576.txt	LTP379	ltpFR2	9	4	MAILBOX	857	n/a	n/a	0	0	0
768931	REC_WORD	wordpools/wasnorm_wordpool_576.txt	LTP379	ltpFR2	9	4	PACKAGE	997	n/a	n/a	0	0	0
770152	REC_WORD	wordpools/wasnorm_wordpool_576.txt	LTP379	ltpFR2	9	4	PUPIL	1143	n/a	n/a	0	0	0
771508	REC_WORD	wordpools/wasnorm_wordpool_576.txt	LTP379	ltpFR2	9	4	PEACH	1031	n/a	n/a	0	0	0
772971	REC_WORD	wordpools/wasnorm_wordpool_576.txt	LTP379	ltpFR2	9	4	GRIZZLY	662	n/a	n/a	0	0	0
774204	REC_WORD	wordpools/wasnorm_wordpool_576.txt	LTP379	ltpFR2	9	4	WARDROBE	1587	n/a	n/a	0	0	0
777070	REC_WORD	wordpools/wasnorm_wordpool_576.txt	LTP379	ltpFR2	9	4	OYSTER	995	n/a	n/a	0	0	0
778261	REC_WORD	wordpools/wasnorm_wordpool_576.txt	LTP379	ltpFR2	9	4	SILK	1307	n/a	n/a	0	0	0
780726	REC_WORD	wordpools/wasnorm_wordpool_576.txt	LTP379	ltpFR2	9	4	SUITCASE	1403	n/a	n/a	0	0	0
782738	REC_WORD	wordpools/wasnorm_wordpool_576.txt	LTP379	ltpFR2	9	4	PASTA	1021	n/a	n/a	0	0	0
784180	REC_WORD	wordpools/wasnorm_wordpool_576.txt	LTP379	ltpFR2	9	4	TOASTER	1472	n/a	n/a	0	0	0
785513	REC_WORD	wordpools/wasnorm_wordpool_576.txt	LTP379	ltpFR2	9	4	DRAGON	492	n/a	n/a	0	0	0
789235	REC_WORD	wordpools/wasnorm_wordpool_576.txt	LTP379	ltpFR2	9	4	CURTAIN	427	n/a	n/a	0	0	0
790399	REC_WORD	wordpools/wasnorm_wordpool_576.txt	LTP379	ltpFR2	9	4	GUITAR	670	n/a	n/a	0	0	0
791918	REC_WORD	wordpools/wasnorm_wordpool_576.txt	LTP379	ltpFR2	9	4	WHISTLE	1606	n/a	n/a	0	0	0
793258	REC_WORD	wordpools/wasnorm_wordpool_576.txt	LTP379	ltpFR2	9	4	DRILL	497	n/a	n/a	0	0	0
794426	REC_WORD	wordpools/wasnorm_wordpool_576.txt	LTP379	ltpFR2	9	4	TRACTOR	1493	n/a	n/a	0	0	0
795943	REC_WORD	wordpools/wasnorm_wordpool_576.txt	LTP379	ltpFR2	9	4	CLAM	315	n/a	n/a	0	0	0
797370	REC_WORD	wordpools/wasnorm_wordpool_576.txt	LTP379	ltpFR2	9	4	NEUTRON	947	n/a	n/a	0	0	0
798828	REC_WORD	wordpools/wasnorm_wordpool_576.txt	LTP379	ltpFR2	9	4	BEAST	108	n/a	n/a	0	0	0
848853	WORD	wordpools/wasnorm_wordpool_576.txt	LTP379	ltpFR2	9	5	SHORTCAKE	1292	n/a	n/a	0	0	0
851502	WORD	wordpools/wasnorm_wordpool_576.txt	LTP379	ltpFR2	9	5	CONTRACT	368	n/a	n/a	0	0	0
854003	WORD	wordpools/wasnorm_wordpool_576.txt	LTP379	ltpFR2	9	5	POWDER	1117	n/a	n/a	0	0	0
856602	WORD	wordpools/wasnorm_wordpool_576.txt	LTP379	ltpFR2	9	5	HUMAN	726	n/a	n/a	0	0	0
859103	WORD	wordpools/wasnorm_wordpool_576.txt	LTP379	ltpFR2	9	5	BLENDER	136	n/a	n/a	0	0	0
861636	WORD	wordpools/wasnorm_wordpool_576.txt	LTP379	ltpFR2	9	5	VIRUS	1572	n/a	n/a	0	0	0
864336	WORD	wordpools/wasnorm_wordpool_576.txt	LTP379	ltpFR2	9	5	LUNCH	849	n/a	n/a	0	0	0
867036	WORD	wordpools/wasnorm_wordpool_576.txt	LTP379	ltpFR2	9	5	LONDON	843	n/a	n/a	0	0	0
869585	WORD	wordpools/wasnorm_wordpool_576.txt	LTP379	ltpFR2	9	5	GHETTO	633	n/a	n/a	0	0	0
872152	WORD	wordpools/wasnorm_wordpool_576.txt	LTP379	ltpFR2	9	5	LAVA	804	n/a	n/a	0	0	0
874936	WORD	wordpools/wasnorm_wordpool_576.txt	LTP379	ltpFR2	9	5	COUNTRY	388	n/a	n/a	0	0	0
877385	WORD	wordpools/wasnorm_wordpool_576.txt	LTP379	ltpFR2	9	5	BULLET	194	n/a	n/a	0	0	0
879969	WORD	wordpools/wasnorm_wordpool_576.txt	LTP379	ltpFR2	9	5	STAPLE	1371	n/a	n/a	0	0	0
882752	WORD	wordpools/wasnorm_wordpool_576.txt	LTP379	ltpFR2	9	5	HIKER	708	n/a	n/a	0	0	0
885435	WORD	wordpools/wasnorm_wordpool_576.txt	LTP379	ltpFR2	9	5	CHAMPAGNE	278	n/a	n/a	0	0	0
888085	WORD	wordpools/wasnorm_wordpool_576.txt	LTP379	ltpFR2	9	5	STONE	1385	n/a	n/a	0	0	0
890719	WORD	wordpools/wasnorm_wordpool_576.txt	LTP379	ltpFR2	9	5	SPIDER	1351	n/a	n/a	0	0	0
893302	WORD	wordpools/wasnorm_wordpool_576.txt	LTP379	ltpFR2	9	5	TERMITE	1451	n/a	n/a	0	0	0
895785	WORD	wordpools/wasnorm_wordpool_576.txt	LTP379	ltpFR2	9	5	BANQUET	86	n/a	n/a	0	0	0
898451	WORD	wordpools/wasnorm_wordpool_576.txt	LTP379	ltpFR2	9	5	SHIRT	1287	n/a	n/a	0	0	0
901135	WORD	wordpools/wasnorm_wordpool_576.txt	LTP379	ltpFR2	9	5	SIBLING	1301	n/a	n/a	0	0	0
903902	WORD	wordpools/wasnorm_wordpool_576.txt	LTP379	ltpFR2	9	5	GROUND	666	n/a	n/a	0	0	0
906335	WORD	wordpools/wasnorm_wordpool_576.txt	LTP379	ltpFR2	9	5	QUARTER	1148	n/a	n/a	0	0	0
908852	WORD	wordpools/wasnorm_wordpool_576.txt	LTP379	ltpFR2	9	5	HANDBAG	684	n/a	n/a	0	0	0
910468	START	n/a	LTP379	ltpFR2	9	n/a	n/a	n/a	8	n/a	n/a	n/a	n/a
911548	DISTRACTOR	n/a	LTP379	ltpFR2	9	5	n/a	n/a	n/a	n/a	0	0	0
911551	PROB	n/a	LTP379	ltpFR2	9	n/a	n/a	n/a	8	19	1	9	9
913517	PROB	n/a	LTP379	ltpFR2	9	n/a	n/a	n/a	8	6	1	1	4
915202	PROB	n/a	LTP379	ltpFR2	9	n/a	n/a	n/a	8	9	1	2	6
916918	PROB	n/a	LTP379	ltpFR2	9	n/a	n/a	n/a	8	15	9	4	2
918534	PROB	n/a	LTP379	ltpFR2	9	n/a	n/a	n/a	8	21	9	6	6
920052	PROB	n/a	LTP379	ltpFR2	9	n/a	n/a	n/a	8	21	9	3	9
921685	PROB	n/a	LTP379	ltpFR2	9	n/a	n/a	n/a	8	17	9	7	1
923467	PROB	n/a	LTP379	ltpFR2	9	n/a	n/a	n/a	8	9	6	1	2
925534	PROB	n/a	LTP379	ltpFR2	9	n/a	n/a	n/a	8	15	3	5	7
926868	PROB	n/a	LTP379	ltpFR2	9	n/a	n/a	n/a	8	19	7	7	5
928368	PROB	n/a	LTP379	ltpFR2	9	n/a	n/a	n/a	8	21	4	8	9
930417	PROB	n/a	LTP379	ltpFR2	9	n/a	n/a	n/a	8	19	4	8	7
933858	STOP	n/a	LTP379	ltpFR2	9	n/a	n/a	n/a	8	n/a	n/a	n/a	n/a
936268	REC_START	n/a	LTP379	ltpFR2	9	5	n/a	n/a	n/a	n/a	0	0	0
962265	REC_WORD	wordpools/wasnorm_wordpool_576.txt	LTP379	ltpFR2	9	5	SHORTCAKE	1292	n/a	n/a	0	0	0
963461	REC_WORD	wordpools/wasnorm_wordpool_576.txt	LTP379	ltpFR2	9	5	CONTRACT	368	n/a	n/a	0	0	0
964625	REC_WORD	wordpools/wasnorm_wordpool_576.txt	LTP379	ltpFR2	9	5	POWDER	1117	n/a	n/a	0	0	0
965602	REC_WORD	wordpools/wasnorm_wordpool_576.txt	LTP379	ltpFR2	9	5	HUMAN	726	n/a	n/a	0	0	0
967026	REC_WORD	wordpools/wasnorm_wordpool_576.txt	LTP379	ltpFR2	9	5	BLENDER	136	n/a	n/a	0	0	0
968062	REC_WORD	wordpools/wasnorm_wordpool_576.txt	LTP379	ltpFR2	9	5	VIRUS	1572	n/a	n/a	0	0	0
969193	REC_WORD	wordpools/wasnorm_wordpool_576.txt	LTP379	ltpFR2	9	5	LUNCH	849	n/a	n/a	0	0	0
974217	REC_WORD	wordpools/wasnorm_wordpool_576.txt	LTP379	ltpFR2	9	5	LONDON	843	n/a	n/a	0	0	0
975598	REC_WORD	wordpools/wasnorm_wordpool_576.txt	LTP379	ltpFR2	9	5	GHETTO	633	n/a	n/a	0	0	0
976690	REC_WORD	wordpools/wasnorm_wordpool_576.txt	LTP379	ltpFR2	9	5	LAVA	804	n/a	n/a	0	0	0
981191	REC_WORD	wordpools/wasnorm_wordpool_576.txt	LTP379	ltpFR2	9	5	COUNTRY	388	n/a	n/a	0	0	0
982662	REC_WORD	wordpools/wasnorm_wordpool_576.txt	LTP379	ltpFR2	9	5	BULLET	194	n/a	n/a	0	0	0
983732	REC_WORD	wordpools/wasnorm_wordpool_576.txt	LTP379	ltpFR2	9	5	STAPLE	1371	n/a	n/a	0	0	0
985098	REC_WORD	wordpools/wasnorm_wordpool_576.txt	LTP379	ltpFR2	9	5	HIKER	708	n/a	n/a	0	0	0
986340	REC_WORD	wordpools/wasnorm_wordpool_576.txt	LTP379	ltpFR2	9	5	CHAMPAGNE	278	n/a	n/a	0	0	0
987908	REC_WORD	wordpools/wasnorm_wordpool_576.txt	LTP379	ltpFR2	9	5	STONE	1385	n/a	n/a	0	0	0
989156	REC_WORD	wordpools/wasnorm_wordpool_576.txt	LTP379	ltpFR2	9	5	SPIDER	1351	n/a	n/a	0	0	0
990650	REC_WORD	wordpools/wasnorm_wordpool_576.txt	LTP379	ltpFR2	9	5	TERMITE	1451	n/a	n/a	0	0	0
992301	REC_WORD	wordpools/wasnorm_wordpool_576.txt	LTP379	ltpFR2	9	5	BANQUET	86	n/a	n/a	0	0	0
993635	REC_WORD	wordpools/wasnorm_wordpool_576.txt	LTP379	ltpFR2	9	5	SHIRT	1287	n/a	n/a	0	0	0
994877	REC_WORD	wordpools/wasnorm_wordpool_576.txt	LTP379	ltpFR2	9	5	SIBLING	1301	n/a	n/a	0	0	0
996430	REC_WORD	wordpools/wasnorm_wordpool_576.txt	LTP379	ltpFR2	9	5	GROUND	666	n/a	n/a	0	0	0
997834	REC_WORD	wordpools/wasnorm_wordpool_576.txt	LTP379	ltpFR2	9	5	QUARTER	1148	n/a	n/a	0	0	0
998915	REC_WORD	wordpools/wasnorm_wordpool_576.txt	LTP379	ltpFR2	9	5	HANDBAG	684	n/a	n/a	0	0	0
1026717	DISTRACTOR	n/a	LTP379	ltpFR2	9	6	n/a	n/a	n/a	n/a	0	0	0
1026717	START	n/a	LTP379	ltpFR2	9	n/a	n/a	n/a	9	n/a	n/a	n/a	n/a
1026733	PROB	n/a	LTP379	ltpFR2	9	n/a	n/a	n/a	9	12	4	5	3
1028499	PROB	n/a	LTP379	ltpFR2	9	n/a	n/a	n/a	9	13	9	2	2
1030050	PROB	n/a	LTP379	ltpFR2	9	n/a	n/a	n/a	9	10	4	1	5
1031817	PROB	n/a	LTP379	ltpFR2	9	n/a	n/a	n/a	9	15	3	7	5
1032950	PROB	n/a	LTP379	ltpFR2	9	n/a	n/a	n/a	9	15	4	5	6
1034415	PROB	n/a	LTP379	ltpFR2	9	n/a	n/a	n/a	9	14	2	7	5
1036449	PROB	n/a	LTP379	ltpFR2	9	n/a	n/a	n/a	9	20	9	5	6
1038700	PROB	n/a	LTP379	ltpFR2	9	n/a	n/a	n/a	9	14	4	2	8
1040233	PROB	n/a	LTP379	ltpFR2	9	n/a	n/a	n/a	9	14	1	5	8
1042350	PROB	n/a	LTP379	ltpFR2	9	n/a	n/a	n/a	9	18	4	5	9
1044316	PROB	n/a	LTP379	ltpFR2	9	n/a	n/a	n/a	9	17	6	2	9
1046033	PROB	n/a	LTP379	ltpFR2	9	n/a	n/a	n/a	9	12	5	2	5
1047366	PROB	n/a	LTP379	ltpFR2	9	n/a	n/a	n/a	9	13	9	2	2
1050102	STOP	n/a	LTP379	ltpFR2	9	n/a	n/a	n/a	9	n/a	n/a	n/a	n/a
1051800	WORD	wordpools/wasnorm_wordpool_576.txt	LTP379	ltpFR2	9	6	STAMP	1370	n/a	n/a	0	0	0
1054415	WORD	wordpools/wasnorm_wordpool_576.txt	LTP379	ltpFR2	9	6	VICTIM	1562	n/a	n/a	0	0	0
1057116	WORD	wordpools/wasnorm_wordpool_576.txt	LTP379	ltpFR2	9	6	MARKER	870	n/a	n/a	0	0	0
1059749	WORD	wordpools/wasnorm_wordpool_576.txt	LTP379	ltpFR2	9	6	CRAYON	401	n/a	n/a	0	0	0
1062383	WORD	wordpools/wasnorm_wordpool_576.txt	LTP379	ltpFR2	9	6	BUREAU	199	n/a	n/a	0	0	0
1064999	WORD	wordpools/wasnorm_wordpool_576.txt	LTP379	ltpFR2	9	6	SWITCH	1422	n/a	n/a	0	0	0
1067598	WORD	wordpools/wasnorm_wordpool_576.txt	LTP379	ltpFR2	9	6	DORM	488	n/a	n/a	0	0	0
1070299	WORD	wordpools/wasnorm_wordpool_576.txt	LTP379	ltpFR2	9	6	MEDAL	885	n/a	n/a	0	0	0
1073066	WORD	wordpools/wasnorm_wordpool_576.txt	LTP379	ltpFR2	9	6	BABY	64	n/a	n/a	0	0	0
1075498	WORD	wordpools/wasnorm_wordpool_576.txt	LTP379	ltpFR2	9	6	PARENT	1013	n/a	n/a	0	0	0
1077932	WORD	wordpools/wasnorm_wordpool_576.txt	LTP379	ltpFR2	9	6	YOLK	1633	n/a	n/a	0	0	0
1080366	WORD	wordpools/wasnorm_wordpool_576.txt	LTP379	ltpFR2	9	6	FUNGUS	614	n/a	n/a	0	0	0
1082932	WORD	wordpools/wasnorm_wordpool_576.txt	LTP379	ltpFR2	9	6	HEART	697	n/a	n/a	0	0	0
1085515	WORD	wordpools/wasnorm_wordpool_576.txt	LTP379	ltpFR2	9	6	FRIAR	605	n/a	n/a	0	0	0
1088132	WORD	wordpools/wasnorm_wordpool_576.txt	LTP379	ltpFR2	9	6	HELMET	702	n/a	n/a	0	0	0
1090581	WORD	wordpools/wasnorm_wordpool_576.txt	LTP379	ltpFR2	9	6	TOMBSTONE	1478	n/a	n/a	0	0	0
1093016	WORD	wordpools/wasnorm_wordpool_576.txt	LTP379	ltpFR2	9	6	FOOTBALL	591	n/a	n/a	0	0	0
1095649	WORD	wordpools/wasnorm_wordpool_576.txt	LTP379	ltpFR2	9	6	FLAG	573	n/a	n/a	0	0	0
1098132	WORD	wordpools/wasnorm_wordpool_576.txt	LTP379	ltpFR2	9	6	PEDAL	1037	n/a	n/a	0	0	0
1100849	WORD	wordpools/wasnorm_wordpool_576.txt	LTP379	ltpFR2	9	6	SHELTER	1282	n/a	n/a	0	0	0
1103299	WORD	wordpools/wasnorm_wordpool_576.txt	LTP379	ltpFR2	9	6	BLADE	134	n/a	n/a	0	0	0
1106099	WORD	wordpools/wasnorm_wordpool_576.txt	LTP379	ltpFR2	9	6	SCALPEL	1243	n/a	n/a	0	0	0
1108782	WORD	wordpools/wasnorm_wordpool_576.txt	LTP379	ltpFR2	9	6	SAUSAGE	1238	n/a	n/a	0	0	0
1111498	WORD	wordpools/wasnorm_wordpool_576.txt	LTP379	ltpFR2	9	6	RIVER	1194	n/a	n/a	0	0	0
1113115	START	n/a	LTP379	ltpFR2	9	n/a	n/a	n/a	10	n/a	n/a	n/a	n/a
1113918	DISTRACTOR	n/a	LTP379	ltpFR2	9	6	n/a	n/a	n/a	n/a	0	0	0
1113932	PROB	n/a	LTP379	ltpFR2	9	n/a	n/a	n/a	10	16	5	4	7
1116632	PROB	n/a	LTP379	ltpFR2	9	n/a	n/a	n/a	10	19	7	9	3
1118481	PROB	n/a	LTP379	ltpFR2	9	n/a	n/a	n/a	10	14	9	2	3
1120098	PROB	n/a	LTP379	ltpFR2	9	n/a	n/a	n/a	10	11	3	6	2
1122198	PROB	n/a	LTP379	ltpFR2	9	n/a	n/a	n/a	10	18	9	3	6
1123915	PROB	n/a	LTP379	ltpFR2	9	n/a	n/a	n/a	10	6	1	1	4
1124932	PROB	n/a	LTP379	ltpFR2	9	n/a	n/a	n/a	10	22	6	7	9
1127932	PROB	n/a	LTP379	ltpFR2	9	n/a	n/a	n/a	10	11	2	5	4
1129848	PROB	n/a	LTP379	ltpFR2	9	n/a	n/a	n/a	10	20	4	8	8
1131382	PROB	n/a	LTP379	ltpFR2	9	n/a	n/a	n/a	10	9	1	3	5
1132632	PROB	n/a	LTP379	ltpFR2	9	n/a	n/a	n/a	10	23	7	8	8
1135032	PROB	n/a	LTP379	ltpFR2	9	n/a	n/a	n/a	10	11	6	3	2
1136352	STOP	n/a	LTP379	ltpFR2	9	n/a	n/a	n/a	10	n/a	n/a	n/a	n/a
1138899	REC_START	n/a	LTP379	ltpFR2	9	6	n/a	n/a	n/a	n/a	0	0	0
1146644	REC_WORD	wordpools/wasnorm_wordpool_576.txt	LTP379	ltpFR2	9	6	STAMP	1370	n/a	n/a	0	0	0
1148213	REC_WORD	wordpools/wasnorm_wordpool_576.txt	LTP379	ltpFR2	9	6	VICTIM	1562	n/a	n/a	0	0	0
1149483	REC_WORD	wordpools/wasnorm_wordpool_576.txt	LTP379	ltpFR2	9	6	MARKER	870	n/a	n/a	0	0	0
1150661	REC_WORD	wordpools/wasnorm_wordpool_576.txt	LTP379	ltpFR2	9	6	CRAYON	401	n/a	n/a	0	0	0
1152155	REC_WORD	wordpools/wasnorm_wordpool_576.txt	LTP379	ltpFR2	9	6	BUREAU	199	n/a	n/a	0	0	0
1154071	REC_WORD	wordpools/wasnorm_wordpool_576.txt	LTP379	ltpFR2	9	6	SWITCH	1422	n/a	n/a	0	0	0
1155971	REC_WORD	wordpools/wasnorm_wordpool_576.txt	LTP379	ltpFR2	9	6	DORM	488	n/a	n/a	0	0	0
1157016	REC_WORD	wordpools/wasnorm_wordpool_576.txt	LTP379	ltpFR2	9	6	MEDAL	885	n/a	n/a	0	0	0
1158308	REC_WORD	wordpools/wasnorm_wordpool_576.txt	LTP379	ltpFR2	9	6	BABY	64	n/a	n/a	0	0	0
1159525	REC_WORD	wordpools/wasnorm_wordpool_576.txt	LTP379	ltpFR2	9	6	PARENT	1013	n/a	n/a	0	0	0
1162101	REC_WORD	wordpools/wasnorm_wordpool_576.txt	LTP379	ltpFR2	9	6	YOLK	1633	n/a	n/a	0	0	0
1163208	REC_WORD	wordpools/wasnorm_wordpool_576.txt	LTP379	ltpFR2	9	6	FUNGUS	614	n/a	n/a	0	0	0
1164479	REC_WORD	wordpools/wasnorm_wordpool_576.txt	LTP379	ltpFR2	9	6	HEART	697	n/a	n/a	0	0	0
1166016	REC_WORD	wordpools/wasnorm_wordpool_576.txt	LTP379	ltpFR2	9	6	FRIAR	605	n/a	n/a	0	0	0
1168435	REC_WORD	wordpools/wasnorm_wordpool_576.txt	LTP379	ltpFR2	9	6	HELMET	702	n/a	n/a	0	0	0
1170497	REC_WORD	wordpools/wasnorm_wordpool_576.txt	LTP379	ltpFR2	9	6	TOMBSTONE	1478	n/a	n/a	0	0	0
1172339	REC_WORD	wordpools/wasnorm_wordpool_576.txt	LTP379	ltpFR2	9	6	FOOTBALL	591	n/a	n/a	0	0	0
1174461	REC_WORD	wordpools/wasnorm_wordpool_576.txt	LTP379	ltpFR2	9	6	FLAG	573	n/a	n/a	0	0	0
1176096	REC_WORD	wordpools/wasnorm_wordpool_576.txt	LTP379	ltpFR2	9	6	PEDAL	1037	n/a	n/a	0	0	0
1177810	REC_WORD	wordpools/wasnorm_wordpool_576.txt	LTP379	ltpFR2	9	6	SHELTER	1282	n/a	n/a	0	0	0
1183227	REC_WORD	wordpools/wasnorm_wordpool_576.txt	LTP379	ltpFR2	9	6	BLADE	134	n/a	n/a	0	0	0
1184778	REC_WORD	wordpools/wasnorm_wordpool_576.txt	LTP379	ltpFR2	9	6	SCALPEL	1243	n/a	n/a	0	0	0
1189415	REC_WORD	wordpools/wasnorm_wordpool_576.txt	LTP379	ltpFR2	9	6	SAUSAGE	1238	n/a	n/a	0	0	0
1190976	REC_WORD	wordpools/wasnorm_wordpool_576.txt	LTP379	ltpFR2	9	6	RIVER	1194	n/a	n/a	0	0	0
1229363	WORD	wordpools/wasnorm_wordpool_576.txt	LTP379	ltpFR2	9	7	COOKBOOK	373	n/a	n/a	0	0	0
1232130	WORD	wordpools/wasnorm_wordpool_576.txt	LTP379	ltpFR2	9	7	SCALLOP	1242	n/a	n/a	0	0	0
1234897	WORD	wordpools/wasnorm_wordpool_576.txt	LTP379	ltpFR2	9	7	GLOBE	641	n/a	n/a	0	0	0
1237697	WORD	wordpools/wasnorm_wordpool_576.txt	LTP379	ltpFR2	9	7	LEADER	807	n/a	n/a	0	0	0
1240297	WORD	wordpools/wasnorm_wordpool_576.txt	LTP379	ltpFR2	9	7	COOK	372	n/a	n/a	0	0	0
1242747	WORD	wordpools/wasnorm_wordpool_576.txt	LTP379	ltpFR2	9	7	CHAPEL	280	n/a	n/a	0	0	0
1245462	WORD	wordpools/wasnorm_wordpool_576.txt	LTP379	ltpFR2	9	7	CROWN	415	n/a	n/a	0	0	0
1248196	WORD	wordpools/wasnorm_wordpool_576.txt	LTP379	ltpFR2	9	7	PRINCESS	1125	n/a	n/a	0	0	0
1250930	WORD	wordpools/wasnorm_wordpool_576.txt	LTP379	ltpFR2	9	7	MAILMAN	858	n/a	n/a	0	0	0
1253680	WORD	wordpools/wasnorm_wordpool_576.txt	LTP379	ltpFR2	9	7	GYMNAST	675	n/a	n/a	0	0	0
1256246	WORD	wordpools/wasnorm_wordpool_576.txt	LTP379	ltpFR2	9	7	SHORTS	1293	n/a	n/a	0	0	0
1258730	WORD	wordpools/wasnorm_wordpool_576.txt	LTP379	ltpFR2	9	7	BISON	131	n/a	n/a	0	0	0
1261246	WORD	wordpools/wasnorm_wordpool_576.txt	LTP379	ltpFR2	9	7	PROTON	1132	n/a	n/a	0	0	0
1263863	WORD	wordpools/wasnorm_wordpool_576.txt	LTP379	ltpFR2	9	7	TEACHER	1440	n/a	n/a	0	0	0
1266479	WORD	wordpools/wasnorm_wordpool_576.txt	LTP379	ltpFR2	9	7	SERVANT	1271	n/a	n/a	0	0	0
1269129	WORD	wordpools/wasnorm_wordpool_576.txt	LTP379	ltpFR2	9	7	BLUEPRINT	142	n/a	n/a	0	0	0
1271696	WORD	wordpools/wasnorm_wordpool_576.txt	LTP379	ltpFR2	9	7	MACHINE	852	n/a	n/a	0	0	0
1274196	WORD	wordpools/wasnorm_wordpool_576.txt	LTP379	ltpFR2	9	7	ARMY	39	n/a	n/a	0	0	0
1276663	WORD	wordpools/wasnorm_wordpool_576.txt	LTP379	ltpFR2	9	7	FLEET	578	n/a	n/a	0	0	0
1279313	WORD	wordpools/wasnorm_wordpool_576.txt	LTP379	ltpFR2	9	7	GIRL	637	n/a	n/a	0	0	0
1281796	WORD	wordpools/wasnorm_wordpool_576.txt	LTP379	ltpFR2	9	7	MAMMAL	861	n/a	n/a	0	0	0
1284296	WORD	wordpools/wasnorm_wordpool_576.txt	LTP379	ltpFR2	9	7	CABBAGE	210	n/a	n/a	0	0	0
1286746	WORD	wordpools/wasnorm_wordpool_576.txt	LTP379	ltpFR2	9	7	SUPPER	1411	n/a	n/a	0	0	0
1289478	WORD	wordpools/wasnorm_wordpool_576.txt	LTP379	ltpFR2	9	7	CRAB	397	n/a	n/a	0	0	0
1291079	START	n/a	LTP379	ltpFR2	9	n/a	n/a	n/a	11	n/a	n/a	n/a	n/a
1291939	DISTRACTOR	n/a	LTP379	ltpFR2	9	7	n/a	n/a	n/a	n/a	0	0	0
1291946	PROB	n/a	LTP379	ltpFR2	9	n/a	n/a	n/a	11	20	7	8	5
1295229	PROB	n/a	LTP379	ltpFR2	9	n/a	n/a	n/a	11	7	4	1	2
1298478	PROB	n/a	LTP379	ltpFR2	9	n/a	n/a	n/a	11	13	2	6	5
1300511	PROB	n/a	LTP379	ltpFR2	9	n/a	n/a	n/a	11	16	9	1	6
1301746	PROB	n/a	LTP379	ltpFR2	9	n/a	n/a	n/a	11	13	5	3	5
1303062	PROB	n/a	LTP379	ltpFR2	9	n/a	n/a	n/a	11	9	5	2	2
1304362	PROB	n/a	LTP379	ltpFR2	9	n/a	n/a	n/a	11	17	5	6	6
1306112	PROB	n/a	LTP379	ltpFR2	9	n/a	n/a	n/a	11	5	1	2	2
1307162	PROB	n/a	LTP379	ltpFR2	9	n/a	n/a	n/a	11	14	5	1	8
1309012	PROB	n/a	LTP379	ltpFR2	9	n/a	n/a	n/a	11	12	3	3	6
1310594	PROB	n/a	LTP379	ltpFR2	9	n/a	n/a	n/a	11	13	4	3	6
1312279	PROB	n/a	LTP379	ltpFR2	9	n/a	n/a	n/a	11	19	7	8	4
1313758	STOP	n/a	LTP379	ltpFR2	9	n/a	n/a	n/a	11	n/a	n/a	n/a	n/a
1316913	REC_START	n/a	LTP379	ltpFR2	9	7	n/a	n/a	n/a	n/a	0	0	0
1322925	REC_WORD	wordpools/wasnorm_wordpool_576.txt	LTP379	ltpFR2	9	7	COOKBOOK	373	n/a	n/a	0	0	0
1324026	REC_WORD	wordpools/wasnorm_wordpool_576.txt	LTP379	ltpFR2	9	7	SCALLOP	1242	n/a	n/a	0	0	0
1325616	REC_WORD	wordpools/wasnorm_wordpool_576.txt	LTP379	ltpFR2	9	7	GLOBE	641	n/a	n/a	0	0	0
1326808	REC_WORD	wordpools/wasnorm_wordpool_576.txt	LTP379	ltpFR2	9	7	LEADER	807	n/a	n/a	0	0	0
1328224	REC_WORD	wordpools/wasnorm_wordpool_576.txt	LTP379	ltpFR2	9	7	COOK	372	n/a	n/a	0	0	0
1329529	REC_WORD	wordpools/wasnorm_wordpool_576.txt	LTP379	ltpFR2	9	7	CHAPEL	280	n/a	n/a	0	0	0
1331111	REC_WORD	wordpools/wasnorm_wordpool_576.txt	LTP379	ltpFR2	9	7	CROWN	415	n/a	n/a	0	0	0
1332531	REC_WORD	wordpools/wasnorm_wordpool_576.txt	LTP379	ltpFR2	9	7	PRINCESS	1125	n/a	n/a	0	0	0
1333891	REC_WORD	wordpools/wasnorm_wordpool_576.txt	LTP379	ltpFR2	9	7	MAILMAN	858	n/a	n/a	0	0	0
1335196	REC_WORD	wordpools/wasnorm_wordpool_576.txt	LTP379	ltpFR2	9	7	GYMNAST	675	n/a	n/a	0	0	0
1336577	REC_WORD	wordpools/wasnorm_wordpool_576.txt	LTP379	ltpFR2	9	7	SHORTS	1293	n/a	n/a	0	0	0
1339558	REC_WORD	wordpools/wasnorm_wordpool_576.txt	LTP379	ltpFR2	9	7	BISON	131	n/a	n/a	0	0	0
1340851	REC_WORD	wordpools/wasnorm_wordpool_576.txt	LTP379	ltpFR2	9	7	PROTON	1132	n/a	n/a	0	0	0
1346575	REC_WORD	wordpools/wasnorm_wordpool_576.txt	LTP379	ltpFR2	9	7	TEACHER	1440	n/a	n/a	0	0	0
1348049	REC_WORD	wordpools/wasnorm_wordpool_576.txt	LTP379	ltpFR2	9	7	SERVANT	1271	n/a	n/a	0	0	0
1349506	REC_WORD	wordpools/wasnorm_wordpool_576.txt	LTP379	ltpFR2	9	7	BLUEPRINT	142	n/a	n/a	0	0	0
1350647	REC_WORD	wordpools/wasnorm_wordpool_576.txt	LTP379	ltpFR2	9	7	MACHINE	852	n/a	n/a	0	0	0
1352307	REC_WORD	wordpools/wasnorm_wordpool_576.txt	LTP379	ltpFR2	9	7	ARMY	39	n/a	n/a	0	0	0
1353428	REC_WORD	wordpools/wasnorm_wordpool_576.txt	LTP379	ltpFR2	9	7	FLEET	578	n/a	n/a	0	0	0
1355029	REC_WORD	wordpools/wasnorm_wordpool_576.txt	LTP379	ltpFR2	9	7	GIRL	637	n/a	n/a	0	0	0
1363736	REC_WORD	wordpools/wasnorm_wordpool_576.txt	LTP379	ltpFR2	9	7	MAMMAL	861	n/a	n/a	0	0	0
1365056	REC_WORD	wordpools/wasnorm_wordpool_576.txt	LTP379	ltpFR2	9	7	CABBAGE	210	n/a	n/a	0	0	0
1366268	REC_WORD	wordpools/wasnorm_wordpool_576.txt	LTP379	ltpFR2	9	7	SUPPER	1411	n/a	n/a	0	0	0
1367700	REC_WORD	wordpools/wasnorm_wordpool_576.txt	LTP379	ltpFR2	9	7	CRAB	397	n/a	n/a	0	0	0
1407361	DISTRACTOR	n/a	LTP379	ltpFR2	9	8	n/a	n/a	n/a	n/a	0	0	0
1407361	START	n/a	LTP379	ltpFR2	9	n/a	n/a	n/a	12	n/a	n/a	n/a	n/a
1407377	PROB	n/a	LTP379	ltpFR2	9	n/a	n/a	n/a	12	10	4	3	3
1408861	PROB	n/a	LTP379	ltpFR2	9	n/a	n/a	n/a	12	22	7	7	8
1410559	PROB	n/a	LTP379	ltpFR2	9	n/a	n/a	n/a	12	11	4	1	6
1411877	PROB	n/a	LTP379	ltpFR2	9	n/a	n/a	n/a	12	17	1	9	7
1413227	PROB	n/a	LTP379	ltpFR2	9	n/a	n/a	n/a	12	12	8	2	2
1414710	PROB	n/a	LTP379	ltpFR2	9	n/a	n/a	n/a	12	13	4	8	1
1416160	PROB	n/a	LTP379	ltpFR2	9	n/a	n/a	n/a	12	4	1	1	2
1417360	PROB	n/a	LTP379	ltpFR2	9	n/a	n/a	n/a	12	17	1	8	8
1418794	PROB	n/a	LTP379	ltpFR2	9	n/a	n/a	n/a	12	12	4	4	4
1420010	PROB	n/a	LTP379	ltpFR2	9	n/a	n/a	n/a	12	11	1	6	4
1421244	PROB	n/a	LTP379	ltpFR2	9	n/a	n/a	n/a	12	17	6	9	2
1422977	PROB	n/a	LTP379	ltpFR2	9	n/a	n/a	n/a	12	16	4	4	8
1424727	PROB	n/a	LTP379	ltpFR2	9	n/a	n/a	n/a	12	16	5	2	9
1426144	PROB	n/a	LTP379	ltpFR2	9	n/a	n/a	n/a	12	20	6	6	8
1427777	PROB	n/a	LTP379	ltpFR2	9	n/a	n/a	n/a	12	18	6	9	3
1429677	PROB	n/a	LTP379	ltpFR2	9	n/a	n/a	n/a	12	11	3	7	1
1430713	STOP	n/a	LTP379	ltpFR2	9	n/a	n/a	n/a	12	n/a	n/a	n/a	n/a
1432559	WORD	wordpools/wasnorm_wordpool_576.txt	LTP379	ltpFR2	9	8	SCULPTURE	1258	n/a	n/a	0	0	0
1435210	WORD	wordpools/wasnorm_wordpool_576.txt	LTP379	ltpFR2	9	8	LADY	794	n/a	n/a	0	0	0
1437810	WORD	wordpools/wasnorm_wordpool_576.txt	LTP379	ltpFR2	9	8	STALLION	1369	n/a	n/a	0	0	0
1440542	WORD	wordpools/wasnorm_wordpool_576.txt	LTP379	ltpFR2	9	8	CRITIC	410	n/a	n/a	0	0	0
1443343	WORD	wordpools/wasnorm_wordpool_576.txt	LTP379	ltpFR2	9	8	COCKTAIL	338	n/a	n/a	0	0	0
1445827	WORD	wordpools/wasnorm_wordpool_576.txt	LTP379	ltpFR2	9	8	SCOTCH	1251	n/a	n/a	0	0	0
1448442	WORD	wordpools/wasnorm_wordpool_576.txt	LTP379	ltpFR2	9	8	ANKLE	24	n/a	n/a	0	0	0
1451127	WORD	wordpools/wasnorm_wordpool_576.txt	LTP379	ltpFR2	9	8	ELBOW	520	n/a	n/a	0	0	0
1453776	WORD	wordpools/wasnorm_wordpool_576.txt	LTP379	ltpFR2	9	8	PATROL	1027	n/a	n/a	0	0	0
1456260	WORD	wordpools/wasnorm_wordpool_576.txt	LTP379	ltpFR2	9	8	POPCORN	1104	n/a	n/a	0	0	0
1458910	WORD	wordpools/wasnorm_wordpool_576.txt	LTP379	ltpFR2	9	8	FRECKLE	602	n/a	n/a	0	0	0
1461409	WORD	wordpools/wasnorm_wordpool_576.txt	LTP379	ltpFR2	9	8	HEADBAND	696	n/a	n/a	0	0	0
1463843	WORD	wordpools/wasnorm_wordpool_576.txt	LTP379	ltpFR2	9	8	OX	994	n/a	n/a	0	0	0
1466425	WORD	wordpools/wasnorm_wordpool_576.txt	LTP379	ltpFR2	9	8	BUNNY	198	n/a	n/a	0	0	0
1468926	WORD	wordpools/wasnorm_wordpool_576.txt	LTP379	ltpFR2	9	8	PIANO	1057	n/a	n/a	0	0	0
1471459	WORD	wordpools/wasnorm_wordpool_576.txt	LTP379	ltpFR2	9	8	AUTHOR	61	n/a	n/a	0	0	0
1473893	WORD	wordpools/wasnorm_wordpool_576.txt	LTP379	ltpFR2	9	8	SNAIL	1332	n/a	n/a	0	0	0
1476376	WORD	wordpools/wasnorm_wordpool_576.txt	LTP379	ltpFR2	9	8	FRAME	600	n/a	n/a	0	0	0
1479009	WORD	wordpools/wasnorm_wordpool_576.txt	LTP379	ltpFR2	9	8	LASER	801	n/a	n/a	0	0	0
1481676	WORD	wordpools/wasnorm_wordpool_576.txt	LTP379	ltpFR2	9	8	CLAMP	316	n/a	n/a	0	0	0
1484276	WORD	wordpools/wasnorm_wordpool_576.txt	LTP379	ltpFR2	9	8	TREAT	1501	n/a	n/a	0	0	0
1486909	WORD	wordpools/wasnorm_wordpool_576.txt	LTP379	ltpFR2	9	8	ICING	732	n/a	n/a	0	0	0
1489608	WORD	wordpools/wasnorm_wordpool_576.txt	LTP379	ltpFR2	9	8	COWBOY	395	n/a	n/a	0	0	0
1492408	WORD	wordpools/wasnorm_wordpool_576.txt	LTP379	ltpFR2	9	8	CRICKET	408	n/a	n/a	0	0	0
1494009	START	n/a	LTP379	ltpFR2	9	n/a	n/a	n/a	13	n/a	n/a	n/a	n/a
1495087	DISTRACTOR	n/a	LTP379	ltpFR2	9	8	n/a	n/a	n/a	n/a	0	0	0
1495093	PROB	n/a	LTP379	ltpFR2	9	n/a	n/a	n/a	13	8	4	3	1
1498092	PROB	n/a	LTP379	ltpFR2	9	n/a	n/a	n/a	13	14	9	1	4
1499558	PROB	n/a	LTP379	ltpFR2	9	n/a	n/a	n/a	13	16	1	6	9
1501242	PROB	n/a	LTP379	ltpFR2	9	n/a	n/a	n/a	13	9	4	2	3
1504809	PROB	n/a	LTP379	ltpFR2	9	n/a	n/a	n/a	13	13	1	6	6
1506026	PROB	n/a	LTP379	ltpFR2	9	n/a	n/a	n/a	13	18	5	4	9
1507408	PROB	n/a	LTP379	ltpFR2	9	n/a	n/a	n/a	13	16	7	1	8
1508726	PROB	n/a	LTP379	ltpFR2	9	n/a	n/a	n/a	13	15	1	7	7
1509992	PROB	n/a	LTP379	ltpFR2	9	n/a	n/a	n/a	13	14	4	6	4
1511226	PROB	n/a	LTP379	ltpFR2	9	n/a	n/a	n/a	13	15	1	7	7
1512676	PROB	n/a	LTP379	ltpFR2	9	n/a	n/a	n/a	13	11	4	5	2
1514242	PROB	n/a	LTP379	ltpFR2	9	n/a	n/a	n/a	13	18	7	6	5
1516587	STOP	n/a	LTP379	ltpFR2	9	n/a	n/a	n/a	13	n/a	n/a	n/a	n/a
1519827	REC_START	n/a	LTP379	ltpFR2	9	8	n/a	n/a	n/a	n/a	0	0	0
1530625	REC_WORD_VV	wordpools/wasnorm_wordpool_576.txt	LTP379	ltpFR2	9	8	<>	-1	n/a	n/a	0	0	0
1543407	REC_WORD	wordpools/wasnorm_wordpool_576.txt	LTP379	ltpFR2	9	8	SCULPTURE	1258	n/a	n/a	0	0	0
1544824	REC_WORD	wordpools/wasnorm_wordpool_576.txt	LTP379	ltpFR2	9	8	LADY	794	n/a	n/a	0	0	0
1546256	REC_WORD	wordpools/wasnorm_wordpool_576.txt	LTP379	ltpFR2	9	8	STALLION	1369	n/a	n/a	0	0	0
1548225	REC_WORD	wordpools/wasnorm_wordpool_576.txt	LTP379	ltpFR2	9	8	CRITIC	410	n/a	n/a	0	0	0
1551991	REC_WORD	wordpools/wasnorm_wordpool_576.txt	LTP379	ltpFR2	9	8	COCKTAIL	338	n/a	n/a	0	0	0
1553294	REC_WORD	wordpools/wasnorm_wordpool_576.txt	LTP379	ltpFR2	9	8	SCOTCH	1251	n/a	n/a	0	0	0
1554906	REC_WORD	wordpools/wasnorm_wordpool_576.txt	LTP379	ltpFR2	9	8	ANKLE	24	n/a	n/a	0	0	0
1556633	REC_WORD	wordpools/wasnorm_wordpool_576.txt	LTP379	ltpFR2	9	8	ELBOW	520	n/a	n/a	0	0	0
1558224	REC_WORD	wordpools/wasnorm_wordpool_576.txt	LTP379	ltpFR2	9	8	PATROL	1027	n/a	n/a	0	0	0
1560028	REC_WORD	wordpools/wasnorm_wordpool_576.txt	LTP379	ltpFR2	9	8	POPCORN	1104	n/a	n/a	0	0	0
1561482	REC_WORD	wordpools/wasnorm_wordpool_576.txt	LTP379	ltpFR2	9	8	FRECKLE	602	n/a	n/a	0	0	0
1562735	REC_WORD	wordpools/wasnorm_wordpool_576.txt	LTP379	ltpFR2	9	8	HEADBAND	696	n/a	n/a	0	0	0
1569654	REC_WORD	wordpools/wasnorm_wordpool_576.txt	LTP379	ltpFR2	9	8	OX	994	n/a	n/a	0	0	0
1571896	REC_WORD	wordpools/wasnorm_wordpool_576.txt	LTP379	ltpFR2	9	8	BUNNY	198	n/a	n/a	0	0	0
1573379	REC_WORD	wordpools/wasnorm_wordpool_576.txt	LTP379	ltpFR2	9	8	PIANO	1057	n/a	n/a	0	0	0
1576114	REC_WORD	wordpools/wasnorm_wordpool_576.txt	LTP379	ltpFR2	9	8	AUTHOR	61	n/a	n/a	0	0	0
1577536	REC_WORD	wordpools/wasnorm_wordpool_576.txt	LTP379	ltpFR2	9	8	SNAIL	1332	n/a	n/a	0	0	0
1579237	REC_WORD	wordpools/wasnorm_wordpool_576.txt	LTP379	ltpFR2	9	8	FRAME	600	n/a	n/a	0	0	0
1581474	REC_WORD	wordpools/wasnorm_wordpool_576.txt	LTP379	ltpFR2	9	8	LASER	801	n/a	n/a	0	0	0
1583092	REC_WORD	wordpools/wasnorm_wordpool_576.txt	LTP379	ltpFR2	9	8	CLAMP	316	n/a	n/a	0	0	0
1584747	REC_WORD	wordpools/wasnorm_wordpool_576.txt	LTP379	ltpFR2	9	8	ICING	732	n/a	n/a	0	0	0
1586194	REC_WORD	wordpools/wasnorm_wordpool_576.txt	LTP379	ltpFR2	9	8	COWBOY	395	n/a	n/a	0	0	0
1587936	REC_WORD	wordpools/wasnorm_wordpool_576.txt	LTP379	ltpFR2	9	8	CRICKET	408	n/a	n/a	0	0	0
1596374	REST_REWET	n/a	LTP379	ltpFR2	9	8	n/a	n/a	n/a	n/a	0	0	0
1771788	WORD	wordpools/wasnorm_wordpool_576.txt	LTP379	ltpFR2	9	9	BEAVER	109	n/a	n/a	0	0	0
1774437	WORD	wordpools/wasnorm_wordpool_576.txt	LTP379	ltpFR2	9	9	NECKLACE	940	n/a	n/a	0	0	0
1777005	WORD	wordpools/wasnorm_wordpool_576.txt	LTP379	ltpFR2	9	9	TORTOISE	1486	n/a	n/a	0	0	0
1779570	WORD	wordpools/wasnorm_wordpool_576.txt	LTP379	ltpFR2	9	9	UMPIRE	1535	n/a	n/a	0	0	0
1782338	WORD	wordpools/wasnorm_wordpool_576.txt	LTP379	ltpFR2	9	9	SPOON	1357	n/a	n/a	0	0	0
1784771	WORD	wordpools/wasnorm_wordpool_576.txt	LTP379	ltpFR2	9	9	FLUTE	585	n/a	n/a	0	0	0
1787271	WORD	wordpools/wasnorm_wordpool_576.txt	LTP379	ltpFR2	9	9	TUBA	1515	n/a	n/a	0	0	0
1789721	WORD	wordpools/wasnorm_wordpool_576.txt	LTP379	ltpFR2	9	9	SHELF	1280	n/a	n/a	0	0	0
1792453	WORD	wordpools/wasnorm_wordpool_576.txt	LTP379	ltpFR2	9	9	BANKER	84	n/a	n/a	0	0	0
1795238	WORD	wordpools/wasnorm_wordpool_576.txt	LTP379	ltpFR2	9	9	NAPKIN	937	n/a	n/a	0	0	0
1797771	WORD	wordpools/wasnorm_wordpool_576.txt	LTP379	ltpFR2	9	9	KLEENEX	782	n/a	n/a	0	0	0
1800553	WORD	wordpools/wasnorm_wordpool_576.txt	LTP379	ltpFR2	9	9	BRACES	164	n/a	n/a	0	0	0
1803238	WORD	wordpools/wasnorm_wordpool_576.txt	LTP379	ltpFR2	9	9	COIN	343	n/a	n/a	0	0	0
1805888	WORD	wordpools/wasnorm_wordpool_576.txt	LTP379	ltpFR2	9	9	SOFTBALL	1343	n/a	n/a	0	0	0
1808371	WORD	wordpools/wasnorm_wordpool_576.txt	LTP379	ltpFR2	9	9	PORTRAIT	1111	n/a	n/a	0	0	0
1810837	WORD	wordpools/wasnorm_wordpool_576.txt	LTP379	ltpFR2	9	9	EYELASH	546	n/a	n/a	0	0	0
1813603	WORD	wordpools/wasnorm_wordpool_576.txt	LTP379	ltpFR2	9	9	JUNGLE	764	n/a	n/a	0	0	0
1816403	WORD	wordpools/wasnorm_wordpool_576.txt	LTP379	ltpFR2	9	9	BELLY	119	n/a	n/a	0	0	0
1819021	WORD	wordpools/wasnorm_wordpool_576.txt	LTP379	ltpFR2	9	9	APPLE	33	n/a	n/a	0	0	0
1821503	WORD	wordpools/wasnorm_wordpool_576.txt	LTP379	ltpFR2	9	9	LETTUCE	814	n/a	n/a	0	0	0
1824254	WORD	wordpools/wasnorm_wordpool_576.txt	LTP379	ltpFR2	9	9	SWORD	1423	n/a	n/a	0	0	0
1827021	WORD	wordpools/wasnorm_wordpool_576.txt	LTP379	ltpFR2	9	9	GRILL	661	n/a	n/a	0	0	0
1829804	WORD	wordpools/wasnorm_wordpool_576.txt	LTP379	ltpFR2	9	9	TABLET	1427	n/a	n/a	0	0	0
1832419	WORD	wordpools/wasnorm_wordpool_576.txt	LTP379	ltpFR2	9	9	VELVET	1555	n/a	n/a	0	0	0
1834021	START	n/a	LTP379	ltpFR2	9	n/a	n/a	n/a	14	n/a	n/a	n/a	n/a
1835077	DISTRACTOR	n/a	LTP379	ltpFR2	9	9	n/a	n/a	n/a	n/a	0	0	0
1835087	PROB	n/a	LTP379	ltpFR2	9	n/a	n/a	n/a	14	16	5	3	8
1838187	PROB	n/a	LTP379	ltpFR2	9	n/a	n/a	n/a	14	11	1	2	8
1839687	PROB	n/a	LTP379	ltpFR2	9	n/a	n/a	n/a	14	17	7	3	7
1841220	PROB	n/a	LTP379	ltpFR2	9	n/a	n/a	n/a	14	9	4	1	4
1842920	PROB	n/a	LTP379	ltpFR2	9	n/a	n/a	n/a	14	9	1	6	2
1844519	PROB	n/a	LTP379	ltpFR2	9	n/a	n/a	n/a	14	11	7	3	1
1845687	PROB	n/a	LTP379	ltpFR2	9	n/a	n/a	n/a	14	16	1	9	6
1846854	PROB	n/a	LTP379	ltpFR2	9	n/a	n/a	n/a	14	14	2	8	4
1848120	PROB	n/a	LTP379	ltpFR2	9	n/a	n/a	n/a	14	10	5	2	3
1849887	PROB	n/a	LTP379	ltpFR2	9	n/a	n/a	n/a	14	10	8	1	1
1851120	PROB	n/a	LTP379	ltpFR2	9	n/a	n/a	n/a	14	15	5	9	1
1852536	PROB	n/a	LTP379	ltpFR2	9	n/a	n/a	n/a	14	20	4	8	8
1854436	PROB	n/a	LTP379	ltpFR2	9	n/a	n/a	n/a	14	18	8	9	1
1855953	PROB	n/a	LTP379	ltpFR2	9	n/a	n/a	n/a	14	26	9	9	8
1857597	STOP	n/a	LTP379	ltpFR2	9	n/a	n/a	n/a	14	n/a	n/a	n/a	n/a
1859837	REC_START	n/a	LTP379	ltpFR2	9	9	n/a	n/a	n/a	n/a	0	0	0
1864296	REC_WORD	wordpools/wasnorm_wordpool_576.txt	LTP379	ltpFR2	9	9	NECKLACE	940	n/a	n/a	0	0	0
1865793	REC_WORD	wordpools/wasnorm_wordpool_576.txt	LTP379	ltpFR2	9	9	BEAVER	109	n/a	n/a	0	0	0
1867339	REC_WORD	wordpools/wasnorm_wordpool_576.txt	LTP379	ltpFR2	9	9	TORTOISE	1486	n/a	n/a	0	0	0
1869078	REC_WORD	wordpools/wasnorm_wordpool_576.txt	LTP379	ltpFR2	9	9	UMPIRE	1535	n/a	n/a	0	0	0
1871089	REC_WORD	wordpools/wasnorm_wordpool_576.txt	LTP379	ltpFR2	9	9	SPOON	1357	n/a	n/a	0	0	0
1872904	REC_WORD	wordpools/wasnorm_wordpool_576.txt	LTP379	ltpFR2	9	9	FLUTE	585	n/a	n/a	0	0	0
1874615	REC_WORD	wordpools/wasnorm_wordpool_576.txt	LTP379	ltpFR2	9	9	TUBA	1515	n/a	n/a	0	0	0
1876001	REC_WORD	wordpools/wasnorm_wordpool_576.txt	LTP379	ltpFR2	9	9	SHELF	1280	n/a	n/a	0	0	0
1877489	REC_WORD	wordpools/wasnorm_wordpool_576.txt	LTP379	ltpFR2	9	9	BANKER	84	n/a	n/a	0	0	0
1878651	REC_WORD	wordpools/wasnorm_wordpool_576.txt	LTP379	ltpFR2	9	9	NAPKIN	937	n/a	n/a	0	0	0
1881914	REC_WORD	wordpools/wasnorm_wordpool_576.txt	LTP379	ltpFR2	9	9	KLEENEX	782	n/a	n/a	0	0	0
1883449	REC_WORD	wordpools/wasnorm_wordpool_576.txt	LTP379	ltpFR2	9	9	BRACES	164	n/a	n/a	0	0	0
1885036	REC_WORD	wordpools/wasnorm_wordpool_576.txt	LTP379	ltpFR2	9	9	COIN	343	n/a	n/a	0	0	0
1889962	REC_WORD	wordpools/wasnorm_wordpool_576.txt	LTP379	ltpFR2	9	9	SOFTBALL	1343	n/a	n/a	0	0	0
1891589	REC_WORD	wordpools/wasnorm_wordpool_576.txt	LTP379	ltpFR2	9	9	PORTRAIT	1111	n/a	n/a	0	0	0
1892981	REC_WORD	wordpools/wasnorm_wordpool_576.txt	LTP379	ltpFR2	9	9	EYELASH	546	n/a	n/a	0	0	0
1894496	REC_WORD	wordpools/wasnorm_wordpool_576.txt	LTP379	ltpFR2	9	9	JUNGLE	764	n/a	n/a	0	0	0
1896108	REC_WORD	wordpools/wasnorm_wordpool_576.txt	LTP379	ltpFR2	9	9	BELLY	119	n/a	n/a	0	0	0
1897592	REC_WORD	wordpools/wasnorm_wordpool_576.txt	LTP379	ltpFR2	9	9	APPLE	33	n/a	n/a	0	0	0
1898782	REC_WORD	wordpools/wasnorm_wordpool_576.txt	LTP379	ltpFR2	9	9	LETTUCE	814	n/a	n/a	0	0	0
1900095	REC_WORD	wordpools/wasnorm_wordpool_576.txt	LTP379	ltpFR2	9	9	SWORD	1423	n/a	n/a	0	0	0
1901813	REC_WORD	wordpools/wasnorm_wordpool_576.txt	LTP379	ltpFR2	9	9	GRILL	661	n/a	n/a	0	0	0
1903521	REC_WORD	wordpools/wasnorm_wordpool_576.txt	LTP379	ltpFR2	9	9	TABLET	1427	n/a	n/a	0	0	0
1905146	REC_WORD	wordpools/wasnorm_wordpool_576.txt	LTP379	ltpFR2	9	9	VELVET	1555	n/a	n/a	0	0	0
1950269	DISTRACTOR	n/a	LTP379	ltpFR2	9	10	n/a	n/a	n/a	n/a	0	0	0
1950269	START	n/a	LTP379	ltpFR2	9	n/a	n/a	n/a	15	n/a	n/a	n/a	n/a
1950285	PROB	n/a	LTP379	ltpFR2	9	n/a	n/a	n/a	15	18	8	8	2
1952069	PROB	n/a	LTP379	ltpFR2	9	n/a	n/a	n/a	15	17	8	6	3
1954269	PROB	n/a	LTP379	ltpFR2	9	n/a	n/a	n/a	15	14	6	6	2
1955551	PROB	n/a	LTP379	ltpFR2	9	n/a	n/a	n/a	15	15	2	8	5
1956702	PROB	n/a	LTP379	ltpFR2	9	n/a	n/a	n/a	15	17	7	5	5
1958135	PROB	n/a	LTP379	ltpFR2	9	n/a	n/a	n/a	15	14	9	3	2
1959952	PROB	n/a	LTP379	ltpFR2	9	n/a	n/a	n/a	15	18	5	4	9
1961318	PROB	n/a	LTP379	ltpFR2	9	n/a	n/a	n/a	15	20	8	9	3
1963202	PROB	n/a	LTP379	ltpFR2	9	n/a	n/a	n/a	15	16	5	4	7
1964635	PROB	n/a	LTP379	ltpFR2	9	n/a	n/a	n/a	15	10	8	1	1
1965835	PROB	n/a	LTP379	ltpFR2	9	n/a	n/a	n/a	15	9	3	5	1
1967152	PROB	n/a	LTP379	ltpFR2	9	n/a	n/a	n/a	15	8	3	2	3
1968702	PROB	n/a	LTP379	ltpFR2	9	n/a	n/a	n/a	15	19	2	8	9
1970285	PROB	n/a	LTP379	ltpFR2	9	n/a	n/a	n/a	15	17	9	7	1
1972085	PROB	n/a	LTP379	ltpFR2	9	n/a	n/a	n/a	15	10	3	1	6
1974250	STOP	n/a	LTP379	ltpFR2	9	n/a	n/a	n/a	15	n/a	n/a	n/a	n/a
1975168	WORD	wordpools/wasnorm_wordpool_576.txt	LTP379	ltpFR2	9	10	MEAT	883	n/a	n/a	0	0	0
1977735	WORD	wordpools/wasnorm_wordpool_576.txt	LTP379	ltpFR2	9	10	COTTAGE	384	n/a	n/a	0	0	0
1980218	WORD	wordpools/wasnorm_wordpool_576.txt	LTP379	ltpFR2	9	10	WRENCH	1625	n/a	n/a	0	0	0
1982918	WORD	wordpools/wasnorm_wordpool_576.txt	LTP379	ltpFR2	9	10	DINER	467	n/a	n/a	0	0	0
1985651	WORD	wordpools/wasnorm_wordpool_576.txt	LTP379	ltpFR2	9	10	EAGLE	512	n/a	n/a	0	0	0
1988185	WORD	wordpools/wasnorm_wordpool_576.txt	LTP379	ltpFR2	9	10	ITEM	746	n/a	n/a	0	0	0
1990901	WORD	wordpools/wasnorm_wordpool_576.txt	LTP379	ltpFR2	9	10	TWIG	1527	n/a	n/a	0	0	0
1993417	WORD	wordpools/wasnorm_wordpool_576.txt	LTP379	ltpFR2	9	10	OUTDOORS	987	n/a	n/a	0	0	0
1995934	WORD	wordpools/wasnorm_wordpool_576.txt	LTP379	ltpFR2	9	10	PATIENT	1024	n/a	n/a	0	0	0
1998668	WORD	wordpools/wasnorm_wordpool_576.txt	LTP379	ltpFR2	9	10	NURSE	963	n/a	n/a	0	0	0
2001467	WORD	wordpools/wasnorm_wordpool_576.txt	LTP379	ltpFR2	9	10	PARROT	1015	n/a	n/a	0	0	0
2004168	WORD	wordpools/wasnorm_wordpool_576.txt	LTP379	ltpFR2	9	10	BACKBONE	66	n/a	n/a	0	0	0
2006651	WORD	wordpools/wasnorm_wordpool_576.txt	LTP379	ltpFR2	9	10	PLASTER	1085	n/a	n/a	0	0	0
2009368	WORD	wordpools/wasnorm_wordpool_576.txt	LTP379	ltpFR2	9	10	BLOUSE	139	n/a	n/a	0	0	0
2012151	WORD	wordpools/wasnorm_wordpool_576.txt	LTP379	ltpFR2	9	10	PANTHER	1009	n/a	n/a	0	0	0
2014668	WORD	wordpools/wasnorm_wordpool_576.txt	LTP379	ltpFR2	9	10	COCOON	339	n/a	n/a	0	0	0
2017118	WORD	wordpools/wasnorm_wordpool_576.txt	LTP379	ltpFR2	9	10	MISSILE	900	n/a	n/a	0	0	0
2019566	WORD	wordpools/wasnorm_wordpool_576.txt	LTP379	ltpFR2	9	10	ROCKET	1202	n/a	n/a	0	0	0
2022268	WORD	wordpools/wasnorm_wordpool_576.txt	LTP379	ltpFR2	9	10	RADISH	1158	n/a	n/a	0	0	0
2024867	WORD	wordpools/wasnorm_wordpool_576.txt	LTP379	ltpFR2	9	10	FLOWER	584	n/a	n/a	0	0	0
2027684	WORD	wordpools/wasnorm_wordpool_576.txt	LTP379	ltpFR2	9	10	LION	827	n/a	n/a	0	0	0
2030117	WORD	wordpools/wasnorm_wordpool_576.txt	LTP379	ltpFR2	9	10	PENGUIN	1044	n/a	n/a	0	0	0
2032767	WORD	wordpools/wasnorm_wordpool_576.txt	LTP379	ltpFR2	9	10	PIMPLE	1071	n/a	n/a	0	0	0
2035234	WORD	wordpools/wasnorm_wordpool_576.txt	LTP379	ltpFR2	9	10	BOX	159	n/a	n/a	0	0	0
2036851	START	n/a	LTP379	ltpFR2	9	n/a	n/a	n/a	16	n/a	n/a	n/a	n/a
2038021	DISTRACTOR	n/a	LTP379	ltpFR2	9	10	n/a	n/a	n/a	n/a	0	0	0
2038034	PROB	n/a	LTP379	ltpFR2	9	n/a	n/a	n/a	16	21	7	6	8
2043867	PROB	n/a	LTP379	ltpFR2	9	n/a	n/a	n/a	16	18	7	6	5
2046867	PROB	n/a	LTP379	ltpFR2	9	n/a	n/a	n/a	16	23	8	7	8
2048717	PROB	n/a	LTP379	ltpFR2	9	n/a	n/a	n/a	16	19	4	8	7
2050416	PROB	n/a	LTP379	ltpFR2	9	n/a	n/a	n/a	16	6	1	2	3
2051399	PROB	n/a	LTP379	ltpFR2	9	n/a	n/a	n/a	16	23	5	9	9
2052850	PROB	n/a	LTP379	ltpFR2	9	n/a	n/a	n/a	16	14	4	5	5
2054167	PROB	n/a	LTP379	ltpFR2	9	n/a	n/a	n/a	16	8	1	4	3
2055599	PROB	n/a	LTP379	ltpFR2	9	n/a	n/a	n/a	16	8	1	1	6
2056700	PROB	n/a	LTP379	ltpFR2	9	n/a	n/a	n/a	16	16	9	3	4
2058300	PROB	n/a	LTP379	ltpFR2	9	n/a	n/a	n/a	16	13	2	8	3
2059507	STOP	n/a	LTP379	ltpFR2	9	n/a	n/a	n/a	16	n/a	n/a	n/a	n/a
2062718	REC_START	n/a	LTP379	ltpFR2	9	10	n/a	n/a	n/a	n/a	0	0	0
2080286	REC_WORD_VV	wordpools/wasnorm_wordpool_576.txt	LTP379	ltpFR2	9	10	<>	-1	n/a	n/a	0	0	0
2091083	REC_WORD_VV	wordpools/wasnorm_wordpool_576.txt	LTP379	ltpFR2	9	10	<>	-1	n/a	n/a	0	0	0
2092486	REC_WORD	wordpools/wasnorm_wordpool_576.txt	LTP379	ltpFR2	9	10	MEAT	883	n/a	n/a	0	0	0
2093515	REC_WORD	wordpools/wasnorm_wordpool_576.txt	LTP379	ltpFR2	9	10	COTTAGE	384	n/a	n/a	0	0	0
2094793	REC_WORD	wordpools/wasnorm_wordpool_576.txt	LTP379	ltpFR2	9	10	WRENCH	1625	n/a	n/a	0	0	0
2099934	REC_WORD	wordpools/wasnorm_wordpool_576.txt	LTP379	ltpFR2	9	10	DINER	467	n/a	n/a	0	0	0
2111902	REC_WORD	wordpools/wasnorm_wordpool_576.txt	LTP379	ltpFR2	9	10	EAGLE	512	n/a	n/a	0	0	0
2112836	REC_WORD	wordpools/wasnorm_wordpool_576.txt	LTP379	ltpFR2	9	10	ITEM	746	n/a	n/a	0	0	0
2113783	REC_WORD	wordpools/wasnorm_wordpool_576.txt	LTP379	ltpFR2	9	10	TWIG	1527	n/a	n/a	0	0	0
2114792	REC_WORD	wordpools/wasnorm_wordpool_576.txt	LTP379	ltpFR2	9	10	OUTDOORS	987	n/a	n/a	0	0	0
2116036	REC_WORD	wordpools/wasnorm_wordpool_576.txt	LTP379	ltpFR2	9	10	PATIENT	1024	n/a	n/a	0	0	0
2117125	REC_WORD	wordpools/wasnorm_wordpool_576.txt	LTP379	ltpFR2	9	10	NURSE	963	n/a	n/a	0	0	0
2118337	REC_WORD	wordpools/wasnorm_wordpool_576.txt	LTP379	ltpFR2	9	10	PARROT	1015	n/a	n/a	0	0	0
2121758	REC_WORD	wordpools/wasnorm_wordpool_576.txt	LTP379	ltpFR2	9	10	BACKBONE	66	n/a	n/a	0	0	0
2123016	REC_WORD	wordpools/wasnorm_wordpool_576.txt	LTP379	ltpFR2	9	10	PLASTER	1085	n/a	n/a	0	0	0
2125871	REC_WORD	wordpools/wasnorm_wordpool_576.txt	LTP379	ltpFR2	9	10	BLOUSE	139	n/a	n/a	0	0	0
2126695	REC_WORD	wordpools/wasnorm_wordpool_576.txt	LTP379	ltpFR2	9	10	PANTHER	1009	n/a	n/a	0	0	0
2127527	REC_WORD	wordpools/wasnorm_wordpool_576.txt	LTP379	ltpFR2	9	10	COCOON	339	n/a	n/a	0	0	0
2128591	REC_WORD	wordpools/wasnorm_wordpool_576.txt	LTP379	ltpFR2	9	10	MISSILE	900	n/a	n/a	0	0	0
2129690	REC_WORD	wordpools/wasnorm_wordpool_576.txt	LTP379	ltpFR2	9	10	ROCKET	1202	n/a	n/a	0	0	0
2130730	REC_WORD	wordpools/wasnorm_wordpool_576.txt	LTP379	ltpFR2	9	10	RADISH	1158	n/a	n/a	0	0	0
2131639	REC_WORD	wordpools/wasnorm_wordpool_576.txt	LTP379	ltpFR2	9	10	FLOWER	584	n/a	n/a	0	0	0
2132802	REC_WORD	wordpools/wasnorm_wordpool_576.txt	LTP379	ltpFR2	9	10	LION	827	n/a	n/a	0	0	0
2134015	REC_WORD	wordpools/wasnorm_wordpool_576.txt	LTP379	ltpFR2	9	10	PENGUIN	1044	n/a	n/a	0	0	0
2135105	REC_WORD	wordpools/wasnorm_wordpool_576.txt	LTP379	ltpFR2	9	10	PIMPLE	1071	n/a	n/a	0	0	0
2136208	REC_WORD	wordpools/wasnorm_wordpool_576.txt	LTP379	ltpFR2	9	10	BOX	159	n/a	n/a	0	0	0
2153165	DISTRACTOR	n/a	LTP379	ltpFR2	9	11	n/a	n/a	n/a	n/a	0	0	0
2153166	START	n/a	LTP379	ltpFR2	9	n/a	n/a	n/a	17	n/a	n/a	n/a	n/a
2153182	PROB	n/a	LTP379	ltpFR2	9	n/a	n/a	n/a	17	11	4	3	4
2155149	PROB	n/a	LTP379	ltpFR2	9	n/a	n/a	n/a	17	18	9	7	2
2156531	PROB	n/a	LTP379	ltpFR2	9	n/a	n/a	n/a	17	12	4	1	7
2158299	PROB	n/a	LTP379	ltpFR2	9	n/a	n/a	n/a	17	16	4	9	3
2160015	PROB	n/a	LTP379	ltpFR2	9	n/a	n/a	n/a	17	10	5	4	1
2161865	PROB	n/a	LTP379	ltpFR2	9	n/a	n/a	n/a	17	17	7	6	4
2163365	PROB	n/a	LTP379	ltpFR2	9	n/a	n/a	n/a	17	9	6	1	2
2164898	PROB	n/a	LTP379	ltpFR2	9	n/a	n/a	n/a	17	14	4	8	2
2167932	PROB	n/a	LTP379	ltpFR2	9	n/a	n/a	n/a	17	13	1	6	6
2169348	PROB	n/a	LTP379	ltpFR2	9	n/a	n/a	n/a	17	6	3	1	2
2170414	PROB	n/a	LTP379	ltpFR2	9	n/a	n/a	n/a	17	10	8	1	1
2171632	PROB	n/a	LTP379	ltpFR2	9	n/a	n/a	n/a	17	18	5	8	5
2172948	PROB	n/a	LTP379	ltpFR2	9	n/a	n/a	n/a	17	17	1	7	9
2174698	PROB	n/a	LTP379	ltpFR2	9	n/a	n/a	n/a	17	18	9	7	2
2176352	STOP	n/a	LTP379	ltpFR2	9	n/a	n/a	n/a	17	n/a	n/a	n/a	n/a
2178115	WORD	wordpools/wasnorm_wordpool_576.txt	LTP379	ltpFR2	9	11	PARSLEY	1016	n/a	n/a	0	0	0
2180765	WORD	wordpools/wasnorm_wordpool_576.txt	LTP379	ltpFR2	9	11	YARN	1631	n/a	n/a	0	0	0
2183382	WORD	wordpools/wasnorm_wordpool_576.txt	LTP379	ltpFR2	9	11	CREATURE	403	n/a	n/a	0	0	0
2186115	WORD	wordpools/wasnorm_wordpool_576.txt	LTP379	ltpFR2	9	11	HUSBAND	728	n/a	n/a	0	0	0
2188831	WORD	wordpools/wasnorm_wordpool_576.txt	LTP379	ltpFR2	9	11	CRIB	407	n/a	n/a	0	0	0
2191514	WORD	wordpools/wasnorm_wordpool_576.txt	LTP379	ltpFR2	9	11	CHEST	295	n/a	n/a	0	0	0
2194281	WORD	wordpools/wasnorm_wordpool_576.txt	LTP379	ltpFR2	9	11	HONEY	713	n/a	n/a	0	0	0
2196765	WORD	wordpools/wasnorm_wordpool_576.txt	LTP379	ltpFR2	9	11	GOBLIN	645	n/a	n/a	0	0	0
2199331	WORD	wordpools/wasnorm_wordpool_576.txt	LTP379	ltpFR2	9	11	SEAGULL	1261	n/a	n/a	0	0	0
2201781	WORD	wordpools/wasnorm_wordpool_576.txt	LTP379	ltpFR2	9	11	LIPSTICK	829	n/a	n/a	0	0	0
2204497	WORD	wordpools/wasnorm_wordpool_576.txt	LTP379	ltpFR2	9	11	COSTUME	383	n/a	n/a	0	0	0
2206981	WORD	wordpools/wasnorm_wordpool_576.txt	LTP379	ltpFR2	9	11	CATCHER	258	n/a	n/a	0	0	0
2209463	WORD	wordpools/wasnorm_wordpool_576.txt	LTP379	ltpFR2	9	11	DONOR	485	n/a	n/a	0	0	0
2212031	WORD	wordpools/wasnorm_wordpool_576.txt	LTP379	ltpFR2	9	11	FILM	565	n/a	n/a	0	0	0
2214513	WORD	wordpools/wasnorm_wordpool_576.txt	LTP379	ltpFR2	9	11	ROD	1203	n/a	n/a	0	0	0
2217148	WORD	wordpools/wasnorm_wordpool_576.txt	LTP379	ltpFR2	9	11	CORAL	378	n/a	n/a	0	0	0
2219898	WORD	wordpools/wasnorm_wordpool_576.txt	LTP379	ltpFR2	9	11	SWIMMER	1420	n/a	n/a	0	0	0
2222364	WORD	wordpools/wasnorm_wordpool_576.txt	LTP379	ltpFR2	9	11	TWISTER	1530	n/a	n/a	0	0	0
2225148	WORD	wordpools/wasnorm_wordpool_576.txt	LTP379	ltpFR2	9	11	CLOTHES	327	n/a	n/a	0	0	0
2227914	WORD	wordpools/wasnorm_wordpool_576.txt	LTP379	ltpFR2	9	11	DRESSER	496	n/a	n/a	0	0	0
2230731	WORD	wordpools/wasnorm_wordpool_576.txt	LTP379	ltpFR2	9	11	MONSTER	912	n/a	n/a	0	0	0
2233183	WORD	wordpools/wasnorm_wordpool_576.txt	LTP379	ltpFR2	9	11	KIDNEY	776	n/a	n/a	0	0	0
2235881	WORD	wordpools/wasnorm_wordpool_576.txt	LTP379	ltpFR2	9	11	WASP	1593	n/a	n/a	0	0	0
2238530	WORD	wordpools/wasnorm_wordpool_576.txt	LTP379	ltpFR2	9	11	SEAL	1262	n/a	n/a	0	0	0
2240148	START	n/a	LTP379	ltpFR2	9	n/a	n/a	n/a	18	n/a	n/a	n/a	n/a
2240950	DISTRACTOR	n/a	LTP379	ltpFR2	9	11	n/a	n/a	n/a	n/a	0	0	0
2240964	PROB	n/a	LTP379	ltpFR2	9	n/a	n/a	n/a	18	9	2	1	6
2244647	PROB	n/a	LTP379	ltpFR2	9	n/a	n/a	n/a	18	14	6	4	4
2245981	PROB	n/a	LTP379	ltpFR2	9	n/a	n/a	n/a	18	19	6	7	6
2247747	PROB	n/a	LTP379	ltpFR2	9	n/a	n/a	n/a	18	10	6	1	3
2249513	PROB	n/a	LTP379	ltpFR2	9	n/a	n/a	n/a	18	14	3	3	8
2251097	PROB	n/a	LTP379	ltpFR2	9	n/a	n/a	n/a	18	16	1	7	8
2252380	PROB	n/a	LTP379	ltpFR2	9	n/a	n/a	n/a	18	19	3	8	8
2253914	PROB	n/a	LTP379	ltpFR2	9	n/a	n/a	n/a	18	11	3	7	1
2255180	PROB	n/a	LTP379	ltpFR2	9	n/a	n/a	n/a	18	11	5	1	5
2256513	PROB	n/a	LTP379	ltpFR2	9	n/a	n/a	n/a	18	18	8	5	5
2257830	PROB	n/a	LTP379	ltpFR2	9	n/a	n/a	n/a	18	5	1	1	3
2259630	PROB	n/a	LTP379	ltpFR2	9	n/a	n/a	n/a	18	11	1	3	7
2261047	PROB	n/a	LTP379	ltpFR2	9	n/a	n/a	n/a	18	19	8	4	7
2262762	STOP	n/a	LTP379	ltpFR2	9	n/a	n/a	n/a	18	n/a	n/a	n/a	n/a
2266048	REC_START	n/a	LTP379	ltpFR2	9	11	n/a	n/a	n/a	n/a	0	0	0
2272151	REC_WORD_VV	wordpools/wasnorm_wordpool_576.txt	LTP379	ltpFR2	9	11	<>	-1	n/a	n/a	0	0	0
2275893	REC_WORD	wordpools/wasnorm_wordpool_576.txt	LTP379	ltpFR2	9	11	PARSLEY	1016	n/a	n/a	0	0	0
2277223	REC_WORD	wordpools/wasnorm_wordpool_576.txt	LTP379	ltpFR2	9	11	YARN	1631	n/a	n/a	0	0	0
2278392	REC_WORD	wordpools/wasnorm_wordpool_576.txt	LTP379	ltpFR2	9	11	CREATURE	403	n/a	n/a	0	0	0
2279514	REC_WORD	wordpools/wasnorm_wordpool_576.txt	LTP379	ltpFR2	9	11	HUSBAND	728	n/a	n/a	0	0	0
2281064	REC_WORD	wordpools/wasnorm_wordpool_576.txt	LTP379	ltpFR2	9	11	CRIB	407	n/a	n/a	0	0	0
2284238	REC_WORD	wordpools/wasnorm_wordpool_576.txt	LTP379	ltpFR2	9	11	CHEST	295	n/a	n/a	0	0	0
2285486	REC_WORD	wordpools/wasnorm_wordpool_576.txt	LTP379	ltpFR2	9	11	HONEY	713	n/a	n/a	0	0	0
2287101	REC_WORD	wordpools/wasnorm_wordpool_576.txt	LTP379	ltpFR2	9	11	GOBLIN	645	n/a	n/a	0	0	0
2288501	REC_WORD	wordpools/wasnorm_wordpool_576.txt	LTP379	ltpFR2	9	11	SEAGULL	1261	n/a	n/a	0	0	0
2289856	REC_WORD	wordpools/wasnorm_wordpool_576.txt	LTP379	ltpFR2	9	11	LIPSTICK	829	n/a	n/a	0	0	0
2291569	REC_WORD	wordpools/wasnorm_wordpool_576.txt	LTP379	ltpFR2	9	11	COSTUME	383	n/a	n/a	0	0	0
2293098	REC_WORD	wordpools/wasnorm_wordpool_576.txt	LTP379	ltpFR2	9	11	CATCHER	258	n/a	n/a	0	0	0
2294641	REC_WORD	wordpools/wasnorm_wordpool_576.txt	LTP379	ltpFR2	9	11	DONOR	485	n/a	n/a	0	0	0
2295855	REC_WORD	wordpools/wasnorm_wordpool_576.txt	LTP379	ltpFR2	9	11	FILM	565	n/a	n/a	0	0	0
2299086	REC_WORD	wordpools/wasnorm_wordpool_576.txt	LTP379	ltpFR2	9	11	ROD	1203	n/a	n/a	0	0	0
2300480	REC_WORD	wordpools/wasnorm_wordpool_576.txt	LTP379	ltpFR2	9	11	CORAL	378	n/a	n/a	0	0	0
2301734	REC_WORD	wordpools/wasnorm_wordpool_576.txt	LTP379	ltpFR2	9	11	SWIMMER	1420	n/a	n/a	0	0	0
2305031	REC_WORD	wordpools/wasnorm_wordpool_576.txt	LTP379	ltpFR2	9	11	TWISTER	1530	n/a	n/a	0	0	0
2306558	REC_WORD	wordpools/wasnorm_wordpool_576.txt	LTP379	ltpFR2	9	11	CLOTHES	327	n/a	n/a	0	0	0
2308020	REC_WORD	wordpools/wasnorm_wordpool_576.txt	LTP379	ltpFR2	9	11	DRESSER	496	n/a	n/a	0	0	0
2309477	REC_WORD	wordpools/wasnorm_wordpool_576.txt	LTP379	ltpFR2	9	11	MONSTER	912	n/a	n/a	0	0	0
2316258	REC_WORD	wordpools/wasnorm_wordpool_576.txt	LTP379	ltpFR2	9	11	KIDNEY	776	n/a	n/a	0	0	0
2317635	REC_WORD	wordpools/wasnorm_wordpool_576.txt	LTP379	ltpFR2	9	11	WASP	1593	n/a	n/a	0	0	0
2319097	REC_WORD	wordpools/wasnorm_wordpool_576.txt	LTP379	ltpFR2	9	11	SEAL	1262	n/a	n/a	0	0	0
2356511	WORD	wordpools/wasnorm_wordpool_576.txt	LTP379	ltpFR2	9	12	TURKEY	1520	n/a	n/a	0	0	0
2358979	WORD	wordpools/wasnorm_wordpool_576.txt	LTP379	ltpFR2	9	12	CANYON	235	n/a	n/a	0	0	0
2361411	WORD	wordpools/wasnorm_wordpool_576.txt	LTP379	ltpFR2	9	12	DOUGHNUT	490	n/a	n/a	0	0	0
2363945	WORD	wordpools/wasnorm_wordpool_576.txt	LTP379	ltpFR2	9	12	PERFUME	1049	n/a	n/a	0	0	0
2366478	WORD	wordpools/wasnorm_wordpool_576.txt	LTP379	ltpFR2	9	12	CIGAR	308	n/a	n/a	0	0	0
2368962	WORD	wordpools/wasnorm_wordpool_576.txt	LTP379	ltpFR2	9	12	BRANDY	169	n/a	n/a	0	0	0
2371662	WORD	wordpools/wasnorm_wordpool_576.txt	LTP379	ltpFR2	9	12	ACTOR	5	n/a	n/a	0	0	0
2374129	WORD	wordpools/wasnorm_wordpool_576.txt	LTP379	ltpFR2	9	12	STOVE	1388	n/a	n/a	0	0	0
2376895	WORD	wordpools/wasnorm_wordpool_576.txt	LTP379	ltpFR2	9	12	SKILLET	1317	n/a	n/a	0	0	0
2379628	WORD	wordpools/wasnorm_wordpool_576.txt	LTP379	ltpFR2	9	12	CATTLE	261	n/a	n/a	0	0	0
2382345	WORD	wordpools/wasnorm_wordpool_576.txt	LTP379	ltpFR2	9	12	BREAST	171	n/a	n/a	0	0	0
2384828	WORD	wordpools/wasnorm_wordpool_576.txt	LTP379	ltpFR2	9	12	PORK	1108	n/a	n/a	0	0	0
2387645	WORD	wordpools/wasnorm_wordpool_576.txt	LTP379	ltpFR2	9	12	JELLO	754	n/a	n/a	0	0	0
2390078	WORD	wordpools/wasnorm_wordpool_576.txt	LTP379	ltpFR2	9	12	SLOPE	1328	n/a	n/a	0	0	0
2392828	WORD	wordpools/wasnorm_wordpool_576.txt	LTP379	ltpFR2	9	12	ROOSTER	1209	n/a	n/a	0	0	0
2395461	WORD	wordpools/wasnorm_wordpool_576.txt	LTP379	ltpFR2	9	12	PLAZA	1088	n/a	n/a	0	0	0
2398128	WORD	wordpools/wasnorm_wordpool_576.txt	LTP379	ltpFR2	9	12	SISTER	1312	n/a	n/a	0	0	0
2400711	WORD	wordpools/wasnorm_wordpool_576.txt	LTP379	ltpFR2	9	12	EMPIRE	530	n/a	n/a	0	0	0
2403228	WORD	wordpools/wasnorm_wordpool_576.txt	LTP379	ltpFR2	9	12	RIFLE	1192	n/a	n/a	0	0	0
2405728	WORD	wordpools/wasnorm_wordpool_576.txt	LTP379	ltpFR2	9	12	PISTOL	1075	n/a	n/a	0	0	0
2408161	WORD	wordpools/wasnorm_wordpool_576.txt	LTP379	ltpFR2	9	12	FOOT	590	n/a	n/a	0	0	0
2410845	WORD	wordpools/wasnorm_wordpool_576.txt	LTP379	ltpFR2	9	12	MILK	895	n/a	n/a	0	0	0
2413361	WORD	wordpools/wasnorm_wordpool_576.txt	LTP379	ltpFR2	9	12	EGYPT	519	n/a	n/a	0	0	0
2415945	WORD	wordpools/wasnorm_wordpool_576.txt	LTP379	ltpFR2	9	12	MILDEW	893	n/a	n/a	0	0	0
2417560	START	n/a	LTP379	ltpFR2	9	n/a	n/a	n/a	19	n/a	n/a	n/a	n/a
2418523	DISTRACTOR	n/a	LTP379	ltpFR2	9	12	n/a	n/a	n/a	n/a	0	0	0
2418527	PROB	n/a	LTP379	ltpFR2	9	n/a	n/a	n/a	19	15	9	4	2
2422894	PROB	n/a	LTP379	ltpFR2	9	n/a	n/a	n/a	19	19	6	5	8
2424311	PROB	n/a	LTP379	ltpFR2	9	n/a	n/a	n/a	19	13	1	7	5
2427228	PROB	n/a	LTP379	ltpFR2	9	n/a	n/a	n/a	19	16	3	4	9
2428678	PROB	n/a	LTP379	ltpFR2	9	n/a	n/a	n/a	19	10	8	1	1
2429844	PROB	n/a	LTP379	ltpFR2	9	n/a	n/a	n/a	19	19	9	4	6
2431761	PROB	n/a	LTP379	ltpFR2	9	n/a	n/a	n/a	19	23	8	8	7
2433610	PROB	n/a	LTP379	ltpFR2	9	n/a	n/a	n/a	19	15	6	6	3
2435094	PROB	n/a	LTP379	ltpFR2	9	n/a	n/a	n/a	19	16	2	7	7
2436861	PROB	n/a	LTP379	ltpFR2	9	n/a	n/a	n/a	19	12	1	9	2
2438077	PROB	n/a	LTP379	ltpFR2	9	n/a	n/a	n/a	19	13	5	1	7
2440848	STOP	n/a	LTP379	ltpFR2	9	n/a	n/a	n/a	19	n/a	n/a	n/a	n/a
2443510	REC_START	n/a	LTP379	ltpFR2	9	12	n/a	n/a	n/a	n/a	0	0	0
2446639	REC_WORD_VV	wordpools/wasnorm_wordpool_576.txt	LTP379	ltpFR2	9	12	<>	-1	n/a	n/a	0	0	0
2449395	REC_WORD	wordpools/wasnorm_wordpool_576.txt	LTP379	ltpFR2	9	12	TURKEY	1520	n/a	n/a	0	0	0
2450171	REC_WORD_VV	wordpools/wasnorm_wordpool_576.txt	LTP379	ltpFR2	9	12	<>	-1	n/a	n/a	0	0	0
2451379	REC_WORD	wordpools/wasnorm_wordpool_576.txt	LTP379	ltpFR2	9	12	CANYON	235	n/a	n/a	0	0	0
2453367	REC_WORD	wordpools/wasnorm_wordpool_576.txt	LTP379	ltpFR2	9	12	DOUGHNUT	490	n/a	n/a	0	0	0
2454735	REC_WORD	wordpools/wasnorm_wordpool_576.txt	LTP379	ltpFR2	9	12	PERFUME	1049	n/a	n/a	0	0	0
2456816	REC_WORD	wordpools/wasnorm_wordpool_576.txt	LTP379	ltpFR2	9	12	CIGAR	308	n/a	n/a	0	0	0
2458548	REC_WORD	wordpools/wasnorm_wordpool_576.txt	LTP379	ltpFR2	9	12	BRANDY	169	n/a	n/a	0	0	0
2460059	REC_WORD	wordpools/wasnorm_wordpool_576.txt	LTP379	ltpFR2	9	12	ACTOR	5	n/a	n/a	0	0	0
2463972	REC_WORD	wordpools/wasnorm_wordpool_576.txt	LTP379	ltpFR2	9	12	STOVE	1388	n/a	n/a	0	0	0
2465536	REC_WORD	wordpools/wasnorm_wordpool_576.txt	LTP379	ltpFR2	9	12	SKILLET	1317	n/a	n/a	0	0	0
2469347	REC_WORD	wordpools/wasnorm_wordpool_576.txt	LTP379	ltpFR2	9	12	CATTLE	261	n/a	n/a	0	0	0
2470649	REC_WORD	wordpools/wasnorm_wordpool_576.txt	LTP379	ltpFR2	9	12	BREAST	171	n/a	n/a	0	0	0
2471925	REC_WORD	wordpools/wasnorm_wordpool_576.txt	LTP379	ltpFR2	9	12	PORK	1108	n/a	n/a	0	0	0
2473374	REC_WORD	wordpools/wasnorm_wordpool_576.txt	LTP379	ltpFR2	9	12	JELLO	754	n/a	n/a	0	0	0
2474809	REC_WORD	wordpools/wasnorm_wordpool_576.txt	LTP379	ltpFR2	9	12	SLOPE	1328	n/a	n/a	0	0	0
2476200	REC_WORD	wordpools/wasnorm_wordpool_576.txt	LTP379	ltpFR2	9	12	ROOSTER	1209	n/a	n/a	0	0	0
2477698	REC_WORD	wordpools/wasnorm_wordpool_576.txt	LTP379	ltpFR2	9	12	PLAZA	1088	n/a	n/a	0	0	0
2479246	REC_WORD	wordpools/wasnorm_wordpool_576.txt	LTP379	ltpFR2	9	12	SISTER	1312	n/a	n/a	0	0	0
2483834	REC_WORD	wordpools/wasnorm_wordpool_576.txt	LTP379	ltpFR2	9	12	RIFLE	1192	n/a	n/a	0	0	0
2485592	REC_WORD	wordpools/wasnorm_wordpool_576.txt	LTP379	ltpFR2	9	12	PISTOL	1075	n/a	n/a	0	0	0
2486714	REC_WORD	wordpools/wasnorm_wordpool_576.txt	LTP379	ltpFR2	9	12	FOOT	590	n/a	n/a	0	0	0
2488071	REC_WORD	wordpools/wasnorm_wordpool_576.txt	LTP379	ltpFR2	9	12	MILK	895	n/a	n/a	0	0	0
2489457	REC_WORD	wordpools/wasnorm_wordpool_576.txt	LTP379	ltpFR2	9	12	EGYPT	519	n/a	n/a	0	0	0
2490698	REC_WORD	wordpools/wasnorm_wordpool_576.txt	LTP379	ltpFR2	9	12	MILDEW	893	n/a	n/a	0	0	0
2533943	DISTRACTOR	n/a	LTP379	ltpFR2	9	13	n/a	n/a	n/a	n/a	0	0	0
2533943	START	n/a	LTP379	ltpFR2	9	n/a	n/a	n/a	20	n/a	n/a	n/a	n/a
2533959	PROB	n/a	LTP379	ltpFR2	9	n/a	n/a	n/a	20	11	5	4	2
2537159	PROB	n/a	LTP379	ltpFR2	9	n/a	n/a	n/a	20	21	7	5	9
2539676	PROB	n/a	LTP379	ltpFR2	9	n/a	n/a	n/a	20	15	5	6	4
2542059	PROB	n/a	LTP379	ltpFR2	9	n/a	n/a	n/a	20	13	3	1	9
2543425	PROB	n/a	LTP379	ltpFR2	9	n/a	n/a	n/a	20	15	2	4	9
2545359	PROB	n/a	LTP379	ltpFR2	9	n/a	n/a	n/a	20	9	5	2	2
2547376	PROB	n/a	LTP379	ltpFR2	9	n/a	n/a	n/a	20	14	4	4	6
2548692	PROB	n/a	LTP379	ltpFR2	9	n/a	n/a	n/a	20	7	1	4	2
2550226	PROB	n/a	LTP379	ltpFR2	9	n/a	n/a	n/a	20	19	6	7	6
2551809	PROB	n/a	LTP379	ltpFR2	9	n/a	n/a	n/a	20	12	3	8	1
2553541	PROB	n/a	LTP379	ltpFR2	9	n/a	n/a	n/a	20	15	2	8	5
2554926	PROB	n/a	LTP379	ltpFR2	9	n/a	n/a	n/a	20	22	5	9	8
2557011	STOP	n/a	LTP379	ltpFR2	9	n/a	n/a	n/a	20	n/a	n/a	n/a	n/a
2559059	WORD	wordpools/wasnorm_wordpool_576.txt	LTP379	ltpFR2	9	13	MAPLE	866	n/a	n/a	0	0	0
2561842	WORD	wordpools/wasnorm_wordpool_576.txt	LTP379	ltpFR2	9	13	TUNNEL	1519	n/a	n/a	0	0	0
2564659	WORD	wordpools/wasnorm_wordpool_576.txt	LTP379	ltpFR2	9	13	MATCH	878	n/a	n/a	0	0	0
2567275	WORD	wordpools/wasnorm_wordpool_576.txt	LTP379	ltpFR2	9	13	CAMEL	223	n/a	n/a	0	0	0
2570092	WORD	wordpools/wasnorm_wordpool_576.txt	LTP379	ltpFR2	9	13	OINTMENT	974	n/a	n/a	0	0	0
2572659	WORD	wordpools/wasnorm_wordpool_576.txt	LTP379	ltpFR2	9	13	CANAL	226	n/a	n/a	0	0	0
2575309	WORD	wordpools/wasnorm_wordpool_576.txt	LTP379	ltpFR2	9	13	HARP	689	n/a	n/a	0	0	0
2577909	WORD	wordpools/wasnorm_wordpool_576.txt	LTP379	ltpFR2	9	13	CREVICE	405	n/a	n/a	0	0	0
2580541	WORD	wordpools/wasnorm_wordpool_576.txt	LTP379	ltpFR2	9	13	LEG	809	n/a	n/a	0	0	0
2583008	WORD	wordpools/wasnorm_wordpool_576.txt	LTP379	ltpFR2	9	13	CRUTCH	417	n/a	n/a	0	0	0
2585725	WORD	wordpools/wasnorm_wordpool_576.txt	LTP379	ltpFR2	9	13	COUNTY	389	n/a	n/a	0	0	0
2588325	WORD	wordpools/wasnorm_wordpool_576.txt	LTP379	ltpFR2	9	13	ASIA	46	n/a	n/a	0	0	0
2590758	WORD	wordpools/wasnorm_wordpool_576.txt	LTP379	ltpFR2	9	13	HAMPER	682	n/a	n/a	0	0	0
2593342	WORD	wordpools/wasnorm_wordpool_576.txt	LTP379	ltpFR2	9	13	FOREST	593	n/a	n/a	0	0	0
2596075	WORD	wordpools/wasnorm_wordpool_576.txt	LTP379	ltpFR2	9	13	SHERIFF	1284	n/a	n/a	0	0	0
2598541	WORD	wordpools/wasnorm_wordpool_576.txt	LTP379	ltpFR2	9	13	IDOL	733	n/a	n/a	0	0	0
2601025	WORD	wordpools/wasnorm_wordpool_576.txt	LTP379	ltpFR2	9	13	GARBAGE	622	n/a	n/a	0	0	0
2603758	WORD	wordpools/wasnorm_wordpool_576.txt	LTP379	ltpFR2	9	13	LIZARD	834	n/a	n/a	0	0	0
2606242	WORD	wordpools/wasnorm_wordpool_576.txt	LTP379	ltpFR2	9	13	ACTRESS	6	n/a	n/a	0	0	0
2608958	WORD	wordpools/wasnorm_wordpool_576.txt	LTP379	ltpFR2	9	13	OUTFIT	988	n/a	n/a	0	0	0
2611407	WORD	wordpools/wasnorm_wordpool_576.txt	LTP379	ltpFR2	9	13	RECEIPT	1173	n/a	n/a	0	0	0
2613908	WORD	wordpools/wasnorm_wordpool_576.txt	LTP379	ltpFR2	9	13	JAPAN	749	n/a	n/a	0	0	0
2616375	WORD	wordpools/wasnorm_wordpool_576.txt	LTP379	ltpFR2	9	13	EUROPE	541	n/a	n/a	0	0	0
2619175	WORD	wordpools/wasnorm_wordpool_576.txt	LTP379	ltpFR2	9	13	AIRPORT	13	n/a	n/a	0	0	0
2620791	START	n/a	LTP379	ltpFR2	9	n/a	n/a	n/a	21	n/a	n/a	n/a	n/a
2621859	DISTRACTOR	n/a	LTP379	ltpFR2	9	13	n/a	n/a	n/a	n/a	0	0	0
2621875	PROB	n/a	LTP379	ltpFR2	9	n/a	n/a	n/a	21	13	1	7	5
2624573	PROB	n/a	LTP379	ltpFR2	9	n/a	n/a	n/a	21	17	8	7	2
2626924	PROB	n/a	LTP379	ltpFR2	9	n/a	n/a	n/a	21	15	8	3	4
2628874	PROB	n/a	LTP379	ltpFR2	9	n/a	n/a	n/a	21	16	9	4	3
2630641	PROB	n/a	LTP379	ltpFR2	9	n/a	n/a	n/a	21	12	9	2	1
2632741	PROB	n/a	LTP379	ltpFR2	9	n/a	n/a	n/a	21	19	4	9	6
2634658	PROB	n/a	LTP379	ltpFR2	9	n/a	n/a	n/a	21	16	4	8	4
2636523	PROB	n/a	LTP379	ltpFR2	9	n/a	n/a	n/a	21	17	4	4	9
2638241	PROB	n/a	LTP379	ltpFR2	9	n/a	n/a	n/a	21	19	5	6	8
2639590	PROB	n/a	LTP379	ltpFR2	9	n/a	n/a	n/a	21	18	6	3	9
2640908	PROB	n/a	LTP379	ltpFR2	9	n/a	n/a	n/a	21	4	1	2	1
2642108	PROB	n/a	LTP379	ltpFR2	9	n/a	n/a	n/a	21	15	4	2	9
2643477	STOP	n/a	LTP379	ltpFR2	9	n/a	n/a	n/a	21	n/a	n/a	n/a	n/a
2646607	REC_START	n/a	LTP379	ltpFR2	9	13	n/a	n/a	n/a	n/a	0	0	0
2649812	REC_WORD_VV	wordpools/wasnorm_wordpool_576.txt	LTP379	ltpFR2	9	13	<>	-1	n/a	n/a	0	0	0
2654633	REC_WORD	wordpools/wasnorm_wordpool_576.txt	LTP379	ltpFR2	9	13	MAPLE	866	n/a	n/a	0	0	0
2655714	REC_WORD	wordpools/wasnorm_wordpool_576.txt	LTP379	ltpFR2	9	13	TUNNEL	1519	n/a	n/a	0	0	0
2656772	REC_WORD	wordpools/wasnorm_wordpool_576.txt	LTP379	ltpFR2	9	13	MATCH	878	n/a	n/a	0	0	0
2658028	REC_WORD	wordpools/wasnorm_wordpool_576.txt	LTP379	ltpFR2	9	13	CAMEL	223	n/a	n/a	0	0	0
2659618	REC_WORD	wordpools/wasnorm_wordpool_576.txt	LTP379	ltpFR2	9	13	OINTMENT	974	n/a	n/a	0	0	0
2660617	REC_WORD	wordpools/wasnorm_wordpool_576.txt	LTP379	ltpFR2	9	13	CANAL	226	n/a	n/a	0	0	0
2661817	REC_WORD	wordpools/wasnorm_wordpool_576.txt	LTP379	ltpFR2	9	13	HARP	689	n/a	n/a	0	0	0
2663172	REC_WORD	wordpools/wasnorm_wordpool_576.txt	LTP379	ltpFR2	9	13	CREVICE	405	n/a	n/a	0	0	0
2664374	REC_WORD	wordpools/wasnorm_wordpool_576.txt	LTP379	ltpFR2	9	13	LEG	809	n/a	n/a	0	0	0
2665625	REC_WORD	wordpools/wasnorm_wordpool_576.txt	LTP379	ltpFR2	9	13	CRUTCH	417	n/a	n/a	0	0	0
2668478	REC_WORD	wordpools/wasnorm_wordpool_576.txt	LTP379	ltpFR2	9	13	COUNTY	389	n/a	n/a	0	0	0
2669679	REC_WORD	wordpools/wasnorm_wordpool_576.txt	LTP379	ltpFR2	9	13	ASIA	46	n/a	n/a	0	0	0
2670796	REC_WORD	wordpools/wasnorm_wordpool_576.txt	LTP379	ltpFR2	9	13	HAMPER	682	n/a	n/a	0	0	0
2671934	REC_WORD	wordpools/wasnorm_wordpool_576.txt	LTP379	ltpFR2	9	13	FOREST	593	n/a	n/a	0	0	0
2673390	REC_WORD	wordpools/wasnorm_wordpool_576.txt	LTP379	ltpFR2	9	13	SHERIFF	1284	n/a	n/a	0	0	0
2674692	REC_WORD	wordpools/wasnorm_wordpool_576.txt	LTP379	ltpFR2	9	13	IDOL	733	n/a	n/a	0	0	0
2675923	REC_WORD	wordpools/wasnorm_wordpool_576.txt	LTP379	ltpFR2	9	13	GARBAGE	622	n/a	n/a	0	0	0
2677187	REC_WORD	wordpools/wasnorm_wordpool_576.txt	LTP379	ltpFR2	9	13	LIZARD	834	n/a	n/a	0	0	0
2681142	REC_WORD	wordpools/wasnorm_wordpool_576.txt	LTP379	ltpFR2	9	13	ACTRESS	6	n/a	n/a	0	0	0
2684251	REC_WORD	wordpools/wasnorm_wordpool_576.txt	LTP379	ltpFR2	9	13	OUTFIT	988	n/a	n/a	0	0	0
2685412	REC_WORD	wordpools/wasnorm_wordpool_576.txt	LTP379	ltpFR2	9	13	RECEIPT	1173	n/a	n/a	0	0	0
2687085	REC_WORD	wordpools/wasnorm_wordpool_576.txt	LTP379	ltpFR2	9	13	JAPAN	749	n/a	n/a	0	0	0
2691155	REC_WORD	wordpools/wasnorm_wordpool_576.txt	LTP379	ltpFR2	9	13	EUROPE	541	n/a	n/a	0	0	0
2692460	REC_WORD	wordpools/wasnorm_wordpool_576.txt	LTP379	ltpFR2	9	13	AIRPORT	13	n/a	n/a	0	0	0
2737073	WORD	wordpools/wasnorm_wordpool_576.txt	LTP379	ltpFR2	9	14	ICEBERG	731	n/a	n/a	0	0	0
2739623	WORD	wordpools/wasnorm_wordpool_576.txt	LTP379	ltpFR2	9	14	RECORD	1176	n/a	n/a	0	0	0
2742156	WORD	wordpools/wasnorm_wordpool_576.txt	LTP379	ltpFR2	9	14	TRANSPLANT	1496	n/a	n/a	0	0	0
2744623	WORD	wordpools/wasnorm_wordpool_576.txt	LTP379	ltpFR2	9	14	ROBBER	1197	n/a	n/a	0	0	0
2747339	WORD	wordpools/wasnorm_wordpool_576.txt	LTP379	ltpFR2	9	14	FRAGRANCE	599	n/a	n/a	0	0	0
2750073	WORD	wordpools/wasnorm_wordpool_576.txt	LTP379	ltpFR2	9	14	DENIM	446	n/a	n/a	0	0	0
2752605	WORD	wordpools/wasnorm_wordpool_576.txt	LTP379	ltpFR2	9	14	PLAID	1080	n/a	n/a	0	0	0
2755322	WORD	wordpools/wasnorm_wordpool_576.txt	LTP379	ltpFR2	9	14	SPACE	1345	n/a	n/a	0	0	0
2758022	WORD	wordpools/wasnorm_wordpool_576.txt	LTP379	ltpFR2	9	14	PADDLE	1000	n/a	n/a	0	0	0
2760656	WORD	wordpools/wasnorm_wordpool_576.txt	LTP379	ltpFR2	9	14	TAXI	1438	n/a	n/a	0	0	0
2763356	WORD	wordpools/wasnorm_wordpool_576.txt	LTP379	ltpFR2	9	14	SERVER	1272	n/a	n/a	0	0	0
2766072	WORD	wordpools/wasnorm_wordpool_576.txt	LTP379	ltpFR2	9	14	CUSTARD	429	n/a	n/a	0	0	0
2768772	WORD	wordpools/wasnorm_wordpool_576.txt	LTP379	ltpFR2	9	14	RUST	1219	n/a	n/a	0	0	0
2771588	WORD	wordpools/wasnorm_wordpool_576.txt	LTP379	ltpFR2	9	14	BANJO	82	n/a	n/a	0	0	0
2774256	WORD	wordpools/wasnorm_wordpool_576.txt	LTP379	ltpFR2	9	14	RAFT	1159	n/a	n/a	0	0	0
2777072	WORD	wordpools/wasnorm_wordpool_576.txt	LTP379	ltpFR2	9	14	BANK	83	n/a	n/a	0	0	0
2779855	WORD	wordpools/wasnorm_wordpool_576.txt	LTP379	ltpFR2	9	14	TART	1436	n/a	n/a	0	0	0
2782339	WORD	wordpools/wasnorm_wordpool_576.txt	LTP379	ltpFR2	9	14	BROOK	177	n/a	n/a	0	0	0
2785155	WORD	wordpools/wasnorm_wordpool_576.txt	LTP379	ltpFR2	9	14	GALLON	618	n/a	n/a	0	0	0
2787655	WORD	wordpools/wasnorm_wordpool_576.txt	LTP379	ltpFR2	9	14	BROTHER	179	n/a	n/a	0	0	0
2790421	WORD	wordpools/wasnorm_wordpool_576.txt	LTP379	ltpFR2	9	14	SHRUB	1299	n/a	n/a	0	0	0
2793139	WORD	wordpools/wasnorm_wordpool_576.txt	LTP379	ltpFR2	9	14	HEDGE	699	n/a	n/a	0	0	0
2795571	WORD	wordpools/wasnorm_wordpool_576.txt	LTP379	ltpFR2	9	14	WORKER	1621	n/a	n/a	0	0	0
2798172	WORD	wordpools/wasnorm_wordpool_576.txt	LTP379	ltpFR2	9	14	BOARD	143	n/a	n/a	0	0	0
2799789	START	n/a	LTP379	ltpFR2	9	n/a	n/a	n/a	22	n/a	n/a	n/a	n/a
2800698	DISTRACTOR	n/a	LTP379	ltpFR2	9	14	n/a	n/a	n/a	n/a	0	0	0
2800705	PROB	n/a	LTP379	ltpFR2	9	n/a	n/a	n/a	22	17	4	6	7
2802972	PROB	n/a	LTP379	ltpFR2	9	n/a	n/a	n/a	22	14	4	8	2
2804988	PROB	n/a	LTP379	ltpFR2	9	n/a	n/a	n/a	22	20	8	9	3
2806838	PROB	n/a	LTP379	ltpFR2	9	n/a	n/a	n/a	22	20	8	3	9
2809688	PROB	n/a	LTP379	ltpFR2	9	n/a	n/a	n/a	22	22	7	9	6
2812172	PROB	n/a	LTP379	ltpFR2	9	n/a	n/a	n/a	22	16	7	2	7
2815805	PROB	n/a	LTP379	ltpFR2	9	n/a	n/a	n/a	22	11	5	2	4
2817838	PROB	n/a	LTP379	ltpFR2	9	n/a	n/a	n/a	22	19	4	8	7
2819404	PROB	n/a	LTP379	ltpFR2	9	n/a	n/a	n/a	22	18	9	1	8
2820855	PROB	n/a	LTP379	ltpFR2	9	n/a	n/a	n/a	22	13	5	6	2
2822283	STOP	n/a	LTP379	ltpFR2	9	n/a	n/a	n/a	22	n/a	n/a	n/a	n/a
2825672	REC_START	n/a	LTP379	ltpFR2	9	14	n/a	n/a	n/a	n/a	0	0	0
2829337	REC_WORD	wordpools/wasnorm_wordpool_576.txt	LTP379	ltpFR2	9	14	ICEBERG	731	n/a	n/a	0	0	0
2831852	REC_WORD	wordpools/wasnorm_wordpool_576.txt	LTP379	ltpFR2	9	14	RECORD	1176	n/a	n/a	0	0	0
2832954	REC_WORD	wordpools/wasnorm_wordpool_576.txt	LTP379	ltpFR2	9	14	TRANSPLANT	1496	n/a	n/a	0	0	0
2834598	REC_WORD	wordpools/wasnorm_wordpool_576.txt	LTP379	ltpFR2	9	14	ROBBER	1197	n/a	n/a	0	0	0
2835787	REC_WORD	wordpools/wasnorm_wordpool_576.txt	LTP379	ltpFR2	9	14	FRAGRANCE	599	n/a	n/a	0	0	0
2837666	REC_WORD	wordpools/wasnorm_wordpool_576.txt	LTP379	ltpFR2	9	14	DENIM	446	n/a	n/a	0	0	0
2839151	REC_WORD	wordpools/wasnorm_wordpool_576.txt	LTP379	ltpFR2	9	14	PLAID	1080	n/a	n/a	0	0	0
2843008	REC_WORD	wordpools/wasnorm_wordpool_576.txt	LTP379	ltpFR2	9	14	SPACE	1345	n/a	n/a	0	0	0
2844982	REC_WORD	wordpools/wasnorm_wordpool_576.txt	LTP379	ltpFR2	9	14	PADDLE	1000	n/a	n/a	0	0	0
2846357	REC_WORD	wordpools/wasnorm_wordpool_576.txt	LTP379	ltpFR2	9	14	TAXI	1438	n/a	n/a	0	0	0
2848312	REC_WORD	wordpools/wasnorm_wordpool_576.txt	LTP379	ltpFR2	9	14	CUSTARD	429	n/a	n/a	0	0	0
2849718	REC_WORD_VV	wordpools/wasnorm_wordpool_576.txt	LTP379	ltpFR2	9	14	<>	-1	n/a	n/a	0	0	0
2856650	REC_WORD	wordpools/wasnorm_wordpool_576.txt	LTP379	ltpFR2	9	14	SERVER	1272	n/a	n/a	0	0	0
2859767	REC_WORD	wordpools/wasnorm_wordpool_576.txt	LTP379	ltpFR2	9	14	BANJO	82	n/a	n/a	0	0	0
2862190	REC_WORD	wordpools/wasnorm_wordpool_576.txt	LTP379	ltpFR2	9	14	RAFT	1159	n/a	n/a	0	0	0
2863760	REC_WORD	wordpools/wasnorm_wordpool_576.txt	LTP379	ltpFR2	9	14	BANK	83	n/a	n/a	0	0	0
2865280	REC_WORD	wordpools/wasnorm_wordpool_576.txt	LTP379	ltpFR2	9	14	TART	1436	n/a	n/a	0	0	0
2868418	REC_WORD	wordpools/wasnorm_wordpool_576.txt	LTP379	ltpFR2	9	14	BROOK	177	n/a	n/a	0	0	0
2869649	REC_WORD	wordpools/wasnorm_wordpool_576.txt	LTP379	ltpFR2	9	14	GALLON	618	n/a	n/a	0	0	0
2871062	REC_WORD	wordpools/wasnorm_wordpool_576.txt	LTP379	ltpFR2	9	14	BROTHER	179	n/a	n/a	0	0	0
2872417	REC_WORD	wordpools/wasnorm_wordpool_576.txt	LTP379	ltpFR2	9	14	SHRUB	1299	n/a	n/a	0	0	0
2873944	REC_WORD	wordpools/wasnorm_wordpool_576.txt	LTP379	ltpFR2	9	14	HEDGE	699	n/a	n/a	0	0	0
2875625	REC_WORD	wordpools/wasnorm_wordpool_576.txt	LTP379	ltpFR2	9	14	WORKER	1621	n/a	n/a	0	0	0
2916153	WORD	wordpools/wasnorm_wordpool_576.txt	LTP379	ltpFR2	9	15	FIREPLACE	570	n/a	n/a	0	0	0
2918703	WORD	wordpools/wasnorm_wordpool_576.txt	LTP379	ltpFR2	9	15	HATCHET	691	n/a	n/a	0	0	0
2921203	WORD	wordpools/wasnorm_wordpool_576.txt	LTP379	ltpFR2	9	15	SMOG	1330	n/a	n/a	0	0	0
2923820	WORD	wordpools/wasnorm_wordpool_576.txt	LTP379	ltpFR2	9	15	BASEMENT	94	n/a	n/a	0	0	0
2926585	WORD	wordpools/wasnorm_wordpool_576.txt	LTP379	ltpFR2	9	15	STATUE	1374	n/a	n/a	0	0	0
2929103	WORD	wordpools/wasnorm_wordpool_576.txt	LTP379	ltpFR2	9	15	SCISSORS	1250	n/a	n/a	0	0	0
2931803	WORD	wordpools/wasnorm_wordpool_576.txt	LTP379	ltpFR2	9	15	PARTNER	1017	n/a	n/a	0	0	0
2934402	WORD	wordpools/wasnorm_wordpool_576.txt	LTP379	ltpFR2	9	15	RAZOR	1171	n/a	n/a	0	0	0
2937003	WORD	wordpools/wasnorm_wordpool_576.txt	LTP379	ltpFR2	9	15	ORCHID	982	n/a	n/a	0	0	0
2939620	WORD	wordpools/wasnorm_wordpool_576.txt	LTP379	ltpFR2	9	15	FLASHLIGHT	575	n/a	n/a	0	0	0
2942236	WORD	wordpools/wasnorm_wordpool_576.txt	LTP379	ltpFR2	9	15	BUGGY	188	n/a	n/a	0	0	0
2944919	WORD	wordpools/wasnorm_wordpool_576.txt	LTP379	ltpFR2	9	15	MATTRESS	879	n/a	n/a	0	0	0
2947585	WORD	wordpools/wasnorm_wordpool_576.txt	LTP379	ltpFR2	9	15	COFFEE	341	n/a	n/a	0	0	0
2950119	WORD	wordpools/wasnorm_wordpool_576.txt	LTP379	ltpFR2	9	15	LUMBER	848	n/a	n/a	0	0	0
2952769	WORD	wordpools/wasnorm_wordpool_576.txt	LTP379	ltpFR2	9	15	LAMP	798	n/a	n/a	0	0	0
2955369	WORD	wordpools/wasnorm_wordpool_576.txt	LTP379	ltpFR2	9	15	CEILING	265	n/a	n/a	0	0	0
2958136	WORD	wordpools/wasnorm_wordpool_576.txt	LTP379	ltpFR2	9	15	LOFT	840	n/a	n/a	0	0	0
2960669	WORD	wordpools/wasnorm_wordpool_576.txt	LTP379	ltpFR2	9	15	COUCH	386	n/a	n/a	0	0	0
2963369	WORD	wordpools/wasnorm_wordpool_576.txt	LTP379	ltpFR2	9	15	COLLEGE	346	n/a	n/a	0	0	0
2966136	WORD	wordpools/wasnorm_wordpool_576.txt	LTP379	ltpFR2	9	15	NOTEBOOK	959	n/a	n/a	0	0	0
2968702	WORD	wordpools/wasnorm_wordpool_576.txt	LTP379	ltpFR2	9	15	THIEF	1456	n/a	n/a	0	0	0
2971418	WORD	wordpools/wasnorm_wordpool_576.txt	LTP379	ltpFR2	9	15	BURGLAR	200	n/a	n/a	0	0	0
2973919	WORD	wordpools/wasnorm_wordpool_576.txt	LTP379	ltpFR2	9	15	STAKE	1368	n/a	n/a	0	0	0
2976501	WORD	wordpools/wasnorm_wordpool_576.txt	LTP379	ltpFR2	9	15	INFANT	737	n/a	n/a	0	0	0
2978103	START	n/a	LTP379	ltpFR2	9	n/a	n/a	n/a	23	n/a	n/a	n/a	n/a
2979208	DISTRACTOR	n/a	LTP379	ltpFR2	9	15	n/a	n/a	n/a	n/a	0	0	0
2979219	PROB	n/a	LTP379	ltpFR2	9	n/a	n/a	n/a	23	13	8	2	3
2981302	PROB	n/a	LTP379	ltpFR2	9	n/a	n/a	n/a	23	23	7	7	9
2983585	PROB	n/a	LTP379	ltpFR2	9	n/a	n/a	n/a	23	16	9	4	3
2985135	PROB	n/a	LTP379	ltpFR2	9	n/a	n/a	n/a	23	15	1	7	7
2986385	PROB	n/a	LTP379	ltpFR2	9	n/a	n/a	n/a	23	12	4	5	3
2987835	PROB	n/a	LTP379	ltpFR2	9	n/a	n/a	n/a	23	13	5	6	2
2989135	PROB	n/a	LTP379	ltpFR2	9	n/a	n/a	n/a	23	17	1	8	8
2990518	PROB	n/a	LTP379	ltpFR2	9	n/a	n/a	n/a	23	10	4	3	3
2992119	PROB	n/a	LTP379	ltpFR2	9	n/a	n/a	n/a	23	13	4	3	6
2993752	PROB	n/a	LTP379	ltpFR2	9	n/a	n/a	n/a	23	18	7	2	9
2995085	PROB	n/a	LTP379	ltpFR2	9	n/a	n/a	n/a	23	24	8	8	8
2996352	PROB	n/a	LTP379	ltpFR2	9	n/a	n/a	n/a	23	15	6	3	6
2998702	PROB	n/a	LTP379	ltpFR2	9	n/a	n/a	n/a	23	7	1	5	1
2999952	PROB	n/a	LTP379	ltpFR2	9	n/a	n/a	n/a	23	17	7	5	5
3001305	STOP	n/a	LTP379	ltpFR2	9	n/a	n/a	n/a	23	n/a	n/a	n/a	n/a
3004002	REC_START	n/a	LTP379	ltpFR2	9	15	n/a	n/a	n/a	n/a	0	0	0
3007089	REC_WORD	wordpools/wasnorm_wordpool_576.txt	LTP379	ltpFR2	9	15	FIREPLACE	570	n/a	n/a	0	0	0
3008089	REC_WORD_VV	wordpools/wasnorm_wordpool_576.txt	LTP379	ltpFR2	9	15	<>	-1	n/a	n/a	0	0	0
3008588	REC_WORD	wordpools/wasnorm_wordpool_576.txt	LTP379	ltpFR2	9	15	HATCHET	691	n/a	n/a	0	0	0
3010572	REC_WORD	wordpools/wasnorm_wordpool_576.txt	LTP379	ltpFR2	9	15	SMOG	1330	n/a	n/a	0	0	0
3012366	REC_WORD	wordpools/wasnorm_wordpool_576.txt	LTP379	ltpFR2	9	15	BASEMENT	94	n/a	n/a	0	0	0
3014251	REC_WORD	wordpools/wasnorm_wordpool_576.txt	LTP379	ltpFR2	9	15	STATUE	1374	n/a	n/a	0	0	0
3015652	REC_WORD	wordpools/wasnorm_wordpool_576.txt	LTP379	ltpFR2	9	15	SCISSORS	1250	n/a	n/a	0	0	0
3017535	REC_WORD	wordpools/wasnorm_wordpool_576.txt	LTP379	ltpFR2	9	15	PARTNER	1017	n/a	n/a	0	0	0
3019359	REC_WORD	wordpools/wasnorm_wordpool_576.txt	LTP379	ltpFR2	9	15	RAZOR	1171	n/a	n/a	0	0	0
3020773	REC_WORD	wordpools/wasnorm_wordpool_576.txt	LTP379	ltpFR2	9	15	ORCHID	982	n/a	n/a	0	0	0
3021770	REC_WORD	wordpools/wasnorm_wordpool_576.txt	LTP379	ltpFR2	9	15	FLASHLIGHT	575	n/a	n/a	0	0	0
3023470	REC_WORD	wordpools/wasnorm_wordpool_576.txt	LTP379	ltpFR2	9	15	BUGGY	188	n/a	n/a	0	0	0
3024704	REC_WORD	wordpools/wasnorm_wordpool_576.txt	LTP379	ltpFR2	9	15	MATTRESS	879	n/a	n/a	0	0	0
3026057	REC_WORD	wordpools/wasnorm_wordpool_576.txt	LTP379	ltpFR2	9	15	COFFEE	341	n/a	n/a	0	0	0
3027313	REC_WORD	wordpools/wasnorm_wordpool_576.txt	LTP379	ltpFR2	9	15	LUMBER	848	n/a	n/a	0	0	0
3028505	REC_WORD	wordpools/wasnorm_wordpool_576.txt	LTP379	ltpFR2	9	15	LAMP	798	n/a	n/a	0	0	0
3030674	REC_WORD	wordpools/wasnorm_wordpool_576.txt	LTP379	ltpFR2	9	15	CEILING	265	n/a	n/a	0	0	0
3033100	REC_WORD	wordpools/wasnorm_wordpool_576.txt	LTP379	ltpFR2	9	15	LOFT	840	n/a	n/a	0	0	0
3034494	REC_WORD	wordpools/wasnorm_wordpool_576.txt	LTP379	ltpFR2	9	15	COUCH	386	n/a	n/a	0	0	0
3035837	REC_WORD	wordpools/wasnorm_wordpool_576.txt	LTP379	ltpFR2	9	15	COLLEGE	346	n/a	n/a	0	0	0
3037433	REC_WORD	wordpools/wasnorm_wordpool_576.txt	LTP379	ltpFR2	9	15	NOTEBOOK	959	n/a	n/a	0	0	0
3038788	REC_WORD	wordpools/wasnorm_wordpool_576.txt	LTP379	ltpFR2	9	15	THIEF	1456	n/a	n/a	0	0	0
3040253	REC_WORD	wordpools/wasnorm_wordpool_576.txt	LTP379	ltpFR2	9	15	BURGLAR	200	n/a	n/a	0	0	0
3041537	REC_WORD	wordpools/wasnorm_wordpool_576.txt	LTP379	ltpFR2	9	15	STAKE	1368	n/a	n/a	0	0	0
3043170	REC_WORD	wordpools/wasnorm_wordpool_576.txt	LTP379	ltpFR2	9	15	INFANT	737	n/a	n/a	0	0	0
3094449	DISTRACTOR	n/a	LTP379	ltpFR2	9	16	n/a	n/a	n/a	n/a	0	0	0
3094450	START	n/a	LTP379	ltpFR2	9	n/a	n/a	n/a	24	n/a	n/a	n/a	n/a
3094466	PROB	n/a	LTP379	ltpFR2	9	n/a	n/a	n/a	24	13	4	4	5
3096134	PROB	n/a	LTP379	ltpFR2	9	n/a	n/a	n/a	24	19	9	8	2
3098416	PROB	n/a	LTP379	ltpFR2	9	n/a	n/a	n/a	24	19	2	9	8
3099767	PROB	n/a	LTP379	ltpFR2	9	n/a	n/a	n/a	24	11	3	5	3
3101750	PROB	n/a	LTP379	ltpFR2	9	n/a	n/a	n/a	24	13	8	3	2
3103334	PROB	n/a	LTP379	ltpFR2	9	n/a	n/a	n/a	24	8	5	2	1
3104599	PROB	n/a	LTP379	ltpFR2	9	n/a	n/a	n/a	24	18	4	6	8
3105833	PROB	n/a	LTP379	ltpFR2	9	n/a	n/a	n/a	24	16	7	2	7
3107284	PROB	n/a	LTP379	ltpFR2	9	n/a	n/a	n/a	24	23	9	6	8
3109700	PROB	n/a	LTP379	ltpFR2	9	n/a	n/a	n/a	24	17	9	6	2
3111767	PROB	n/a	LTP379	ltpFR2	9	n/a	n/a	n/a	24	9	4	3	2
3114317	PROB	n/a	LTP379	ltpFR2	9	n/a	n/a	n/a	24	11	4	4	3
3115566	PROB	n/a	LTP379	ltpFR2	9	n/a	n/a	n/a	24	22	7	6	8
3117172	STOP	n/a	LTP379	ltpFR2	9	n/a	n/a	n/a	24	n/a	n/a	n/a	n/a
3119416	WORD	wordpools/wasnorm_wordpool_576.txt	LTP379	ltpFR2	9	16	FINGER	567	n/a	n/a	0	0	0
3122167	WORD	wordpools/wasnorm_wordpool_576.txt	LTP379	ltpFR2	9	16	GLOVE	642	n/a	n/a	0	0	0
3124950	WORD	wordpools/wasnorm_wordpool_576.txt	LTP379	ltpFR2	9	16	DIME	466	n/a	n/a	0	0	0
3127466	WORD	wordpools/wasnorm_wordpool_576.txt	LTP379	ltpFR2	9	16	SANDWICH	1232	n/a	n/a	0	0	0
3130033	WORD	wordpools/wasnorm_wordpool_576.txt	LTP379	ltpFR2	9	16	XEROX	1628	n/a	n/a	0	0	0
3132833	WORD	wordpools/wasnorm_wordpool_576.txt	LTP379	ltpFR2	9	16	PAPER	1011	n/a	n/a	0	0	0
3135616	WORD	wordpools/wasnorm_wordpool_576.txt	LTP379	ltpFR2	9	16	KEEPER	769	n/a	n/a	0	0	0
3138283	WORD	wordpools/wasnorm_wordpool_576.txt	LTP379	ltpFR2	9	16	ATLAS	53	n/a	n/a	0	0	0
3140850	WORD	wordpools/wasnorm_wordpool_576.txt	LTP379	ltpFR2	9	16	MESSAGE	888	n/a	n/a	0	0	0
3143432	WORD	wordpools/wasnorm_wordpool_576.txt	LTP379	ltpFR2	9	16	GREASE	660	n/a	n/a	0	0	0
3145966	WORD	wordpools/wasnorm_wordpool_576.txt	LTP379	ltpFR2	9	16	DASHBOARD	441	n/a	n/a	0	0	0
3148783	WORD	wordpools/wasnorm_wordpool_576.txt	LTP379	ltpFR2	9	16	CHILD	299	n/a	n/a	0	0	0
3151415	WORD	wordpools/wasnorm_wordpool_576.txt	LTP379	ltpFR2	9	16	ROBIN	1199	n/a	n/a	0	0	0
3153933	WORD	wordpools/wasnorm_wordpool_576.txt	LTP379	ltpFR2	9	16	HOOK	715	n/a	n/a	0	0	0
3156366	WORD	wordpools/wasnorm_wordpool_576.txt	LTP379	ltpFR2	9	16	SEAFOOD	1260	n/a	n/a	0	0	0
3158849	WORD	wordpools/wasnorm_wordpool_576.txt	LTP379	ltpFR2	9	16	BRAKE	166	n/a	n/a	0	0	0
3161532	WORD	wordpools/wasnorm_wordpool_576.txt	LTP379	ltpFR2	9	16	PIGEON	1065	n/a	n/a	0	0	0
3164149	WORD	wordpools/wasnorm_wordpool_576.txt	LTP379	ltpFR2	9	16	SUBWAY	1400	n/a	n/a	0	0	0
3166683	WORD	wordpools/wasnorm_wordpool_576.txt	LTP379	ltpFR2	9	16	MARROW	872	n/a	n/a	0	0	0
3169349	WORD	wordpools/wasnorm_wordpool_576.txt	LTP379	ltpFR2	9	16	ULCER	1533	n/a	n/a	0	0	0
3172166	WORD	wordpools/wasnorm_wordpool_576.txt	LTP379	ltpFR2	9	16	LABEL	790	n/a	n/a	0	0	0
3174982	WORD	wordpools/wasnorm_wordpool_576.txt	LTP379	ltpFR2	9	16	QUEEN	1149	n/a	n/a	0	0	0
3177682	WORD	wordpools/wasnorm_wordpool_576.txt	LTP379	ltpFR2	9	16	FRIEND	606	n/a	n/a	0	0	0
3180166	WORD	wordpools/wasnorm_wordpool_576.txt	LTP379	ltpFR2	9	16	MONEY	908	n/a	n/a	0	0	0
3181783	START	n/a	LTP379	ltpFR2	9	n/a	n/a	n/a	25	n/a	n/a	n/a	n/a
3182674	DISTRACTOR	n/a	LTP379	ltpFR2	9	16	n/a	n/a	n/a	n/a	0	0	0
3182682	PROB	n/a	LTP379	ltpFR2	9	n/a	n/a	n/a	25	14	3	3	8
3188448	PROB	n/a	LTP379	ltpFR2	9	n/a	n/a	n/a	25	12	2	6	4
3189816	PROB	n/a	LTP379	ltpFR2	9	n/a	n/a	n/a	25	9	1	3	5
3192366	PROB	n/a	LTP379	ltpFR2	9	n/a	n/a	n/a	25	17	9	4	4
3194182	PROB	n/a	LTP379	ltpFR2	9	n/a	n/a	n/a	25	22	7	6	9
3196099	PROB	n/a	LTP379	ltpFR2	9	n/a	n/a	n/a	25	21	9	6	6
3197414	PROB	n/a	LTP379	ltpFR2	9	n/a	n/a	n/a	25	12	3	4	5
3199299	PROB	n/a	LTP379	ltpFR2	9	n/a	n/a	n/a	25	23	7	8	8
3201065	PROB	n/a	LTP379	ltpFR2	9	n/a	n/a	n/a	25	21	8	7	6
3203099	PROB	n/a	LTP379	ltpFR2	9	n/a	n/a	n/a	25	7	4	2	1
3204271	STOP	n/a	LTP379	ltpFR2	9	n/a	n/a	n/a	25	n/a	n/a	n/a	n/a
3207682	REC_START	n/a	LTP379	ltpFR2	9	16	n/a	n/a	n/a	n/a	0	0	0
3212270	REC_WORD	wordpools/wasnorm_wordpool_576.txt	LTP379	ltpFR2	9	16	FINGER	567	n/a	n/a	0	0	0
3213515	REC_WORD	wordpools/wasnorm_wordpool_576.txt	LTP379	ltpFR2	9	16	GLOVE	642	n/a	n/a	0	0	0
3214898	REC_WORD	wordpools/wasnorm_wordpool_576.txt	LTP379	ltpFR2	9	16	DIME	466	n/a	n/a	0	0	0
3216032	REC_WORD	wordpools/wasnorm_wordpool_576.txt	LTP379	ltpFR2	9	16	SANDWICH	1232	n/a	n/a	0	0	0
3217513	REC_WORD	wordpools/wasnorm_wordpool_576.txt	LTP379	ltpFR2	9	16	XEROX	1628	n/a	n/a	0	0	0
3221848	REC_WORD	wordpools/wasnorm_wordpool_576.txt	LTP379	ltpFR2	9	16	PAPER	1011	n/a	n/a	0	0	0
3222977	REC_WORD	wordpools/wasnorm_wordpool_576.txt	LTP379	ltpFR2	9	16	KEEPER	769	n/a	n/a	0	0	0
3224389	REC_WORD	wordpools/wasnorm_wordpool_576.txt	LTP379	ltpFR2	9	16	ATLAS	53	n/a	n/a	0	0	0
3225651	REC_WORD	wordpools/wasnorm_wordpool_576.txt	LTP379	ltpFR2	9	16	MESSAGE	888	n/a	n/a	0	0	0
3227747	REC_WORD	wordpools/wasnorm_wordpool_576.txt	LTP379	ltpFR2	9	16	DASHBOARD	441	n/a	n/a	0	0	0
3229067	REC_WORD	wordpools/wasnorm_wordpool_576.txt	LTP379	ltpFR2	9	16	CHILD	299	n/a	n/a	0	0	0
3230352	REC_WORD	wordpools/wasnorm_wordpool_576.txt	LTP379	ltpFR2	9	16	ROBIN	1199	n/a	n/a	0	0	0
3231428	REC_WORD	wordpools/wasnorm_wordpool_576.txt	LTP379	ltpFR2	9	16	HOOK	715	n/a	n/a	0	0	0
3232677	REC_WORD	wordpools/wasnorm_wordpool_576.txt	LTP379	ltpFR2	9	16	SEAFOOD	1260	n/a	n/a	0	0	0
3234175	REC_WORD	wordpools/wasnorm_wordpool_576.txt	LTP379	ltpFR2	9	16	BRAKE	166	n/a	n/a	0	0	0
3235704	REC_WORD	wordpools/wasnorm_wordpool_576.txt	LTP379	ltpFR2	9	16	PIGEON	1065	n/a	n/a	0	0	0
3238895	REC_WORD	wordpools/wasnorm_wordpool_576.txt	LTP379	ltpFR2	9	16	SUBWAY	1400	n/a	n/a	0	0	0
3240274	REC_WORD	wordpools/wasnorm_wordpool_576.txt	LTP379	ltpFR2	9	16	MARROW	872	n/a	n/a	0	0	0
3241718	REC_WORD	wordpools/wasnorm_wordpool_576.txt	LTP379	ltpFR2	9	16	ULCER	1533	n/a	n/a	0	0	0
3243007	REC_WORD	wordpools/wasnorm_wordpool_576.txt	LTP379	ltpFR2	9	16	LABEL	790	n/a	n/a	0	0	0
3244464	REC_WORD	wordpools/wasnorm_wordpool_576.txt	LTP379	ltpFR2	9	16	QUEEN	1149	n/a	n/a	0	0	0
3245713	REC_WORD	wordpools/wasnorm_wordpool_576.txt	LTP379	ltpFR2	9	16	FRIEND	606	n/a	n/a	0	0	0
3247259	REC_WORD	wordpools/wasnorm_wordpool_576.txt	LTP379	ltpFR2	9	16	MONEY	908	n/a	n/a	0	0	0
3284231	REST_REWET	n/a	LTP379	ltpFR2	9	16	n/a	n/a	n/a	n/a	0	0	0
3360946	WORD	wordpools/wasnorm_wordpool_576.txt	LTP379	ltpFR2	9	17	AGENT	10	n/a	n/a	0	0	0
3363646	WORD	wordpools/wasnorm_wordpool_576.txt	LTP379	ltpFR2	9	17	ANTLER	29	n/a	n/a	0	0	0
3366246	WORD	wordpools/wasnorm_wordpool_576.txt	LTP379	ltpFR2	9	17	NOMAD	955	n/a	n/a	0	0	0
3368963	WORD	wordpools/wasnorm_wordpool_576.txt	LTP379	ltpFR2	9	17	WIDOW	1608	n/a	n/a	0	0	0
3371562	WORD	wordpools/wasnorm_wordpool_576.txt	LTP379	ltpFR2	9	17	TEMPLE	1448	n/a	n/a	0	0	0
3374363	WORD	wordpools/wasnorm_wordpool_576.txt	LTP379	ltpFR2	9	17	BUG	187	n/a	n/a	0	0	0
3377013	WORD	wordpools/wasnorm_wordpool_576.txt	LTP379	ltpFR2	9	17	SALT	1229	n/a	n/a	0	0	0
3379629	WORD	wordpools/wasnorm_wordpool_576.txt	LTP379	ltpFR2	9	17	PEPPER	1047	n/a	n/a	0	0	0
3382428	WORD	wordpools/wasnorm_wordpool_576.txt	LTP379	ltpFR2	9	17	PREACHER	1119	n/a	n/a	0	0	0
3385162	WORD	wordpools/wasnorm_wordpool_576.txt	LTP379	ltpFR2	9	17	BARREL	91	n/a	n/a	0	0	0
3387729	WORD	wordpools/wasnorm_wordpool_576.txt	LTP379	ltpFR2	9	17	LEOPARD	812	n/a	n/a	0	0	0
3390279	WORD	wordpools/wasnorm_wordpool_576.txt	LTP379	ltpFR2	9	17	GAVEL	627	n/a	n/a	0	0	0
3392896	WORD	wordpools/wasnorm_wordpool_576.txt	LTP379	ltpFR2	9	17	HERO	706	n/a	n/a	0	0	0
3395511	WORD	wordpools/wasnorm_wordpool_576.txt	LTP379	ltpFR2	9	17	KNIFE	785	n/a	n/a	0	0	0
3398246	WORD	wordpools/wasnorm_wordpool_576.txt	LTP379	ltpFR2	9	17	CAFE	216	n/a	n/a	0	0	0
3401029	WORD	wordpools/wasnorm_wordpool_576.txt	LTP379	ltpFR2	9	17	WAITER	1580	n/a	n/a	0	0	0
3403729	WORD	wordpools/wasnorm_wordpool_576.txt	LTP379	ltpFR2	9	17	CELLAR	267	n/a	n/a	0	0	0
3406478	WORD	wordpools/wasnorm_wordpool_576.txt	LTP379	ltpFR2	9	17	MISTER	901	n/a	n/a	0	0	0
3409095	WORD	wordpools/wasnorm_wordpool_576.txt	LTP379	ltpFR2	9	17	CHIPMUNK	304	n/a	n/a	0	0	0
3411762	WORD	wordpools/wasnorm_wordpool_576.txt	LTP379	ltpFR2	9	17	OZONE	996	n/a	n/a	0	0	0
3414312	WORD	wordpools/wasnorm_wordpool_576.txt	LTP379	ltpFR2	9	17	RUG	1215	n/a	n/a	0	0	0
3416895	WORD	wordpools/wasnorm_wordpool_576.txt	LTP379	ltpFR2	9	17	WOMAN	1620	n/a	n/a	0	0	0
3419428	WORD	wordpools/wasnorm_wordpool_576.txt	LTP379	ltpFR2	9	17	PUDDING	1139	n/a	n/a	0	0	0
3422229	WORD	wordpools/wasnorm_wordpool_576.txt	LTP379	ltpFR2	9	17	MARSH	874	n/a	n/a	0	0	0
3423845	START	n/a	LTP379	ltpFR2	9	n/a	n/a	n/a	26	n/a	n/a	n/a	n/a
3424816	DISTRACTOR	n/a	LTP379	ltpFR2	9	17	n/a	n/a	n/a	n/a	0	0	0
3424828	PROB	n/a	LTP379	ltpFR2	9	n/a	n/a	n/a	26	6	1	2	3
3426295	PROB	n/a	LTP379	ltpFR2	9	n/a	n/a	n/a	26	11	6	3	2
3428427	PROB	n/a	LTP379	ltpFR2	9	n/a	n/a	n/a	26	22	9	7	6
3430544	PROB	n/a	LTP379	ltpFR2	9	n/a	n/a	n/a	26	14	6	6	2
3431945	PROB	n/a	LTP379	ltpFR2	9	n/a	n/a	n/a	26	15	5	5	5
3433112	PROB	n/a	LTP379	ltpFR2	9	n/a	n/a	n/a	26	10	2	5	3
3434745	PROB	n/a	LTP379	ltpFR2	9	n/a	n/a	n/a	26	18	7	9	2
3436427	PROB	n/a	LTP379	ltpFR2	9	n/a	n/a	n/a	26	8	1	4	3
3438295	PROB	n/a	LTP379	ltpFR2	9	n/a	n/a	n/a	26	11	5	5	1
3439427	PROB	n/a	LTP379	ltpFR2	9	n/a	n/a	n/a	26	18	7	8	3
3442945	PROB	n/a	LTP379	ltpFR2	9	n/a	n/a	n/a	26	11	6	1	4
3444861	PROB	n/a	LTP379	ltpFR2	9	n/a	n/a	n/a	26	17	9	4	4
3446678	STOP	n/a	LTP379	ltpFR2	9	n/a	n/a	n/a	26	n/a	n/a	n/a	n/a
3449745	REC_START	n/a	LTP379	ltpFR2	9	17	n/a	n/a	n/a	n/a	0	0	0
