mstime	trial_type	stim_file	subject	experiment	session	trial	item_name	item_num	list	answer	test_x	test_y	test_z
0	SESS_START	n/a	LTP207	ltpFR2	9	n/a	n/a	n/a	n/a	n/a	0	0	0
14912	START	n/a	LTP207	ltpFR2	9	n/a	n/a	n/a	-1	n/a	n/a	n/a	n/a
14945	PROB	n/a	LTP207	ltpFR2	9	n/a	n/a	n/a	-1	13	1	5	7
17192	PROB	n/a	LTP207	ltpFR2	9	n/a	n/a	n/a	-1	26	9	8	9
19073	PROB	n/a	LTP207	ltpFR2	9	n/a	n/a	n/a	-1	14	5	7	2
20503	PROB	n/a	LTP207	ltpFR2	9	n/a	n/a	n/a	-1	16	2	6	8
22800	PROB	n/a	LTP207	ltpFR2	9	n/a	n/a	n/a	-1	16	2	5	9
24099	PROB	n/a	LTP207	ltpFR2	9	n/a	n/a	n/a	-1	13	1	4	9
25865	STOP	n/a	LTP207	ltpFR2	9	n/a	n/a	n/a	-1	n/a	n/a	n/a	n/a
62923	DISTRACTOR	n/a	LTP207	ltpFR2	9	1	n/a	n/a	n/a	n/a	0	0	0
62923	START	n/a	LTP207	ltpFR2	9	n/a	n/a	n/a	1	n/a	n/a	n/a	n/a
62956	PROB	n/a	LTP207	ltpFR2	9	n/a	n/a	n/a	1	17	4	8	5
65336	PROB	n/a	LTP207	ltpFR2	9	n/a	n/a	n/a	1	9	1	2	6
66917	PROB	n/a	LTP207	ltpFR2	9	n/a	n/a	n/a	1	919	4	9	6
70013	PROB	n/a	LTP207	ltpFR2	9	n/a	n/a	n/a	1	18	4	9	5
73391	PROB	n/a	LTP207	ltpFR2	9	n/a	n/a	n/a	1	15	9	4	2
74889	PROB	n/a	LTP207	ltpFR2	9	n/a	n/a	n/a	1	12	1	9	2
76037	PROB	n/a	LTP207	ltpFR2	9	n/a	n/a	n/a	1	15	2	5	8
77385	PROB	n/a	LTP207	ltpFR2	9	n/a	n/a	n/a	1	5	1	2	2
78350	PROB	n/a	LTP207	ltpFR2	9	n/a	n/a	n/a	1	10	4	2	4
79798	PROB	n/a	LTP207	ltpFR2	9	n/a	n/a	n/a	1	14	4	9	1
82294	PROB	n/a	LTP207	ltpFR2	9	n/a	n/a	n/a	1	7	2	4	3
83725	PROB	n/a	LTP207	ltpFR2	9	n/a	n/a	n/a	1	20	2	9	9
85665	STOP	n/a	LTP207	ltpFR2	9	n/a	n/a	n/a	1	n/a	n/a	n/a	n/a
88070	WORD	wordpools/wasnorm_wordpool_576.txt	LTP207	ltpFR2	9	1	DANCER	437	n/a	n/a	0	0	0
90615	WORD	wordpools/wasnorm_wordpool_576.txt	LTP207	ltpFR2	9	1	LADY	794	n/a	n/a	0	0	0
93079	WORD	wordpools/wasnorm_wordpool_576.txt	LTP207	ltpFR2	9	1	MARKET	871	n/a	n/a	0	0	0
95757	WORD	wordpools/wasnorm_wordpool_576.txt	LTP207	ltpFR2	9	1	PICNIC	1060	n/a	n/a	0	0	0
98320	WORD	wordpools/wasnorm_wordpool_576.txt	LTP207	ltpFR2	9	1	CRATER	400	n/a	n/a	0	0	0
100966	WORD	wordpools/wasnorm_wordpool_576.txt	LTP207	ltpFR2	9	1	PIMPLE	1071	n/a	n/a	0	0	0
103612	WORD	wordpools/wasnorm_wordpool_576.txt	LTP207	ltpFR2	9	1	PILOT	1070	n/a	n/a	0	0	0
106059	WORD	wordpools/wasnorm_wordpool_576.txt	LTP207	ltpFR2	9	1	PLIERS	1089	n/a	n/a	0	0	0
108705	WORD	wordpools/wasnorm_wordpool_576.txt	LTP207	ltpFR2	9	1	CEILING	265	n/a	n/a	0	0	0
111202	WORD	wordpools/wasnorm_wordpool_576.txt	LTP207	ltpFR2	9	1	PECAN	1036	n/a	n/a	0	0	0
113864	WORD	wordpools/wasnorm_wordpool_576.txt	LTP207	ltpFR2	9	1	CANDY	230	n/a	n/a	0	0	0
116626	WORD	wordpools/wasnorm_wordpool_576.txt	LTP207	ltpFR2	9	1	SEAL	1262	n/a	n/a	0	0	0
119056	WORD	wordpools/wasnorm_wordpool_576.txt	LTP207	ltpFR2	9	1	HAMPER	682	n/a	n/a	0	0	0
121835	WORD	wordpools/wasnorm_wordpool_576.txt	LTP207	ltpFR2	9	1	OUTFIT	988	n/a	n/a	0	0	0
124265	WORD	wordpools/wasnorm_wordpool_576.txt	LTP207	ltpFR2	9	1	BUREAU	199	n/a	n/a	0	0	0
126745	WORD	wordpools/wasnorm_wordpool_576.txt	LTP207	ltpFR2	9	1	TUTU	1524	n/a	n/a	0	0	0
129540	WORD	wordpools/wasnorm_wordpool_576.txt	LTP207	ltpFR2	9	1	BOARD	143	n/a	n/a	0	0	0
132303	WORD	wordpools/wasnorm_wordpool_576.txt	LTP207	ltpFR2	9	1	CAPTIVE	240	n/a	n/a	0	0	0
135083	WORD	wordpools/wasnorm_wordpool_576.txt	LTP207	ltpFR2	9	1	SPONGE	1355	n/a	n/a	0	0	0
137612	WORD	wordpools/wasnorm_wordpool_576.txt	LTP207	ltpFR2	9	1	CRITIC	410	n/a	n/a	0	0	0
140308	WORD	wordpools/wasnorm_wordpool_576.txt	LTP207	ltpFR2	9	1	TART	1436	n/a	n/a	0	0	0
142887	WORD	wordpools/wasnorm_wordpool_576.txt	LTP207	ltpFR2	9	1	ROCKET	1202	n/a	n/a	0	0	0
145367	WORD	wordpools/wasnorm_wordpool_576.txt	LTP207	ltpFR2	9	1	GANGSTER	620	n/a	n/a	0	0	0
148046	WORD	wordpools/wasnorm_wordpool_576.txt	LTP207	ltpFR2	9	1	LAKE	796	n/a	n/a	0	0	0
149661	START	n/a	LTP207	ltpFR2	9	n/a	n/a	n/a	2	n/a	n/a	n/a	n/a
150575	DISTRACTOR	n/a	LTP207	ltpFR2	9	1	n/a	n/a	n/a	n/a	0	0	0
150592	PROB	n/a	LTP207	ltpFR2	9	n/a	n/a	n/a	2	19	3	7	9
151924	PROB	n/a	LTP207	ltpFR2	9	n/a	n/a	n/a	2	14	4	3	7
153505	PROB	n/a	LTP207	ltpFR2	9	n/a	n/a	n/a	2	24	9	9	6
154869	PROB	n/a	LTP207	ltpFR2	9	n/a	n/a	n/a	2	20	9	8	3
156783	PROB	n/a	LTP207	ltpFR2	9	n/a	n/a	n/a	2	21	5	8	8
158281	PROB	n/a	LTP207	ltpFR2	9	n/a	n/a	n/a	2	22	6	8	9
160211	PROB	n/a	LTP207	ltpFR2	9	n/a	n/a	n/a	2	13	6	3	4
161909	PROB	n/a	LTP207	ltpFR2	9	n/a	n/a	n/a	2	24	9	7	8
163556	PROB	n/a	LTP207	ltpFR2	9	n/a	n/a	n/a	2	11	3	1	7
164688	PROB	n/a	LTP207	ltpFR2	9	n/a	n/a	n/a	2	13	3	2	8
166187	PROB	n/a	LTP207	ltpFR2	9	n/a	n/a	n/a	2	12	4	6	2
167351	PROB	n/a	LTP207	ltpFR2	9	n/a	n/a	n/a	2	23	9	5	9
168998	PROB	n/a	LTP207	ltpFR2	9	n/a	n/a	n/a	2	7	3	3	1
170246	PROB	n/a	LTP207	ltpFR2	9	n/a	n/a	n/a	2	17	8	3	6
171861	PROB	n/a	LTP207	ltpFR2	9	n/a	n/a	n/a	2	11	2	6	3
173146	STOP	n/a	LTP207	ltpFR2	9	n/a	n/a	n/a	2	n/a	n/a	n/a	n/a
175556	REC_START	n/a	LTP207	ltpFR2	9	1	n/a	n/a	n/a	n/a	0	0	0
177035	REC_WORD	wordpools/wasnorm_wordpool_576.txt	LTP207	ltpFR2	9	1	DANCER	437	n/a	n/a	0	0	0
178359	REC_WORD	wordpools/wasnorm_wordpool_576.txt	LTP207	ltpFR2	9	1	LADY	794	n/a	n/a	0	0	0
185022	REC_WORD	wordpools/wasnorm_wordpool_576.txt	LTP207	ltpFR2	9	1	MARKET	871	n/a	n/a	0	0	0
186325	REC_WORD	wordpools/wasnorm_wordpool_576.txt	LTP207	ltpFR2	9	1	PICNIC	1060	n/a	n/a	0	0	0
188328	REC_WORD	wordpools/wasnorm_wordpool_576.txt	LTP207	ltpFR2	9	1	CRATER	400	n/a	n/a	0	0	0
189955	REC_WORD	wordpools/wasnorm_wordpool_576.txt	LTP207	ltpFR2	9	1	PIMPLE	1071	n/a	n/a	0	0	0
199974	REC_WORD	wordpools/wasnorm_wordpool_576.txt	LTP207	ltpFR2	9	1	SPONGE	1355	n/a	n/a	0	0	0
266204	WORD	wordpools/wasnorm_wordpool_576.txt	LTP207	ltpFR2	9	2	SLOPE	1328	n/a	n/a	0	0	0
268932	WORD	wordpools/wasnorm_wordpool_576.txt	LTP207	ltpFR2	9	2	RELISH	1183	n/a	n/a	0	0	0
271512	WORD	wordpools/wasnorm_wordpool_576.txt	LTP207	ltpFR2	9	2	CAMEL	223	n/a	n/a	0	0	0
274241	WORD	wordpools/wasnorm_wordpool_576.txt	LTP207	ltpFR2	9	2	PEDAL	1037	n/a	n/a	0	0	0
276771	WORD	wordpools/wasnorm_wordpool_576.txt	LTP207	ltpFR2	9	2	BELLY	119	n/a	n/a	0	0	0
279483	WORD	wordpools/wasnorm_wordpool_576.txt	LTP207	ltpFR2	9	2	SEAGULL	1261	n/a	n/a	0	0	0
281913	WORD	wordpools/wasnorm_wordpool_576.txt	LTP207	ltpFR2	9	2	HIKER	708	n/a	n/a	0	0	0
284426	WORD	wordpools/wasnorm_wordpool_576.txt	LTP207	ltpFR2	9	2	LIVER	833	n/a	n/a	0	0	0
287238	WORD	wordpools/wasnorm_wordpool_576.txt	LTP207	ltpFR2	9	2	YOLK	1633	n/a	n/a	0	0	0
289784	WORD	wordpools/wasnorm_wordpool_576.txt	LTP207	ltpFR2	9	2	CHAUFFEUR	283	n/a	n/a	0	0	0
292297	WORD	wordpools/wasnorm_wordpool_576.txt	LTP207	ltpFR2	9	2	PERFUME	1049	n/a	n/a	0	0	0
294810	WORD	wordpools/wasnorm_wordpool_576.txt	LTP207	ltpFR2	9	2	LASER	801	n/a	n/a	0	0	0
297273	WORD	wordpools/wasnorm_wordpool_576.txt	LTP207	ltpFR2	9	2	SUMMIT	1405	n/a	n/a	0	0	0
300019	WORD	wordpools/wasnorm_wordpool_576.txt	LTP207	ltpFR2	9	2	KIDNEY	776	n/a	n/a	0	0	0
302515	WORD	wordpools/wasnorm_wordpool_576.txt	LTP207	ltpFR2	9	2	OMELET	976	n/a	n/a	0	0	0
305261	WORD	wordpools/wasnorm_wordpool_576.txt	LTP207	ltpFR2	9	2	BACON	67	n/a	n/a	0	0	0
307858	WORD	wordpools/wasnorm_wordpool_576.txt	LTP207	ltpFR2	9	2	POLICE	1098	n/a	n/a	0	0	0
310603	WORD	wordpools/wasnorm_wordpool_576.txt	LTP207	ltpFR2	9	2	ASIA	46	n/a	n/a	0	0	0
313134	WORD	wordpools/wasnorm_wordpool_576.txt	LTP207	ltpFR2	9	2	TAXI	1438	n/a	n/a	0	0	0
315629	WORD	wordpools/wasnorm_wordpool_576.txt	LTP207	ltpFR2	9	2	BRAKE	166	n/a	n/a	0	0	0
318392	WORD	wordpools/wasnorm_wordpool_576.txt	LTP207	ltpFR2	9	2	LIZARD	834	n/a	n/a	0	0	0
320971	WORD	wordpools/wasnorm_wordpool_576.txt	LTP207	ltpFR2	9	2	SLIDE	1326	n/a	n/a	0	0	0
323551	WORD	wordpools/wasnorm_wordpool_576.txt	LTP207	ltpFR2	9	2	POWDER	1117	n/a	n/a	0	0	0
326098	WORD	wordpools/wasnorm_wordpool_576.txt	LTP207	ltpFR2	9	2	CROSS	413	n/a	n/a	0	0	0
327711	START	n/a	LTP207	ltpFR2	9	n/a	n/a	n/a	3	n/a	n/a	n/a	n/a
328746	DISTRACTOR	n/a	LTP207	ltpFR2	9	2	n/a	n/a	n/a	n/a	0	0	0
328760	PROB	n/a	LTP207	ltpFR2	9	n/a	n/a	n/a	3	10	6	1	3
330224	PROB	n/a	LTP207	ltpFR2	9	n/a	n/a	n/a	3	11	5	2	4
331539	PROB	n/a	LTP207	ltpFR2	9	n/a	n/a	n/a	3	14	3	7	4
332837	PROB	n/a	LTP207	ltpFR2	9	n/a	n/a	n/a	3	12	3	5	4
334518	PROB	n/a	LTP207	ltpFR2	9	n/a	n/a	n/a	3	17	8	4	5
336847	PROB	n/a	LTP207	ltpFR2	9	n/a	n/a	n/a	3	15	5	1	9
338097	PROB	n/a	LTP207	ltpFR2	9	n/a	n/a	n/a	3	9	2	2	5
339344	PROB	n/a	LTP207	ltpFR2	9	n/a	n/a	n/a	3	15	7	1	7
340642	PROB	n/a	LTP207	ltpFR2	9	n/a	n/a	n/a	3	9	4	3	2
342107	PROB	n/a	LTP207	ltpFR2	9	n/a	n/a	n/a	3	21	3	9	9
343587	PROB	n/a	LTP207	ltpFR2	9	n/a	n/a	n/a	3	7	3	2	2
345302	PROB	n/a	LTP207	ltpFR2	9	n/a	n/a	n/a	3	8	3	3	2
346816	PROB	n/a	LTP207	ltpFR2	9	n/a	n/a	n/a	3	18	6	9	3
348713	PROB	n/a	LTP207	ltpFR2	9	n/a	n/a	n/a	3	12	2	5	5
350186	STOP	n/a	LTP207	ltpFR2	9	n/a	n/a	n/a	3	n/a	n/a	n/a	n/a
353473	REC_START	n/a	LTP207	ltpFR2	9	2	n/a	n/a	n/a	n/a	0	0	0
365833	REC_WORD	wordpools/wasnorm_wordpool_576.txt	LTP207	ltpFR2	9	2	BELLY	119	n/a	n/a	0	0	0
367024	REC_WORD	wordpools/wasnorm_wordpool_576.txt	LTP207	ltpFR2	9	2	PEDAL	1037	n/a	n/a	0	0	0
368686	REC_WORD	wordpools/wasnorm_wordpool_576.txt	LTP207	ltpFR2	9	2	SLOPE	1328	n/a	n/a	0	0	0
370378	REC_WORD	wordpools/wasnorm_wordpool_576.txt	LTP207	ltpFR2	9	2	CAMEL	223	n/a	n/a	0	0	0
372278	REC_WORD	wordpools/wasnorm_wordpool_576.txt	LTP207	ltpFR2	9	2	RELISH	1183	n/a	n/a	0	0	0
444155	WORD	wordpools/wasnorm_wordpool_576.txt	LTP207	ltpFR2	9	3	SEAFOOD	1260	n/a	n/a	0	0	0
446767	WORD	wordpools/wasnorm_wordpool_576.txt	LTP207	ltpFR2	9	3	LONDON	843	n/a	n/a	0	0	0
449496	WORD	wordpools/wasnorm_wordpool_576.txt	LTP207	ltpFR2	9	3	COUNTRY	388	n/a	n/a	0	0	0
452242	WORD	wordpools/wasnorm_wordpool_576.txt	LTP207	ltpFR2	9	3	STOVE	1388	n/a	n/a	0	0	0
454722	WORD	wordpools/wasnorm_wordpool_576.txt	LTP207	ltpFR2	9	3	JOURNAL	760	n/a	n/a	0	0	0
457169	WORD	wordpools/wasnorm_wordpool_576.txt	LTP207	ltpFR2	9	3	MUSTARD	935	n/a	n/a	0	0	0
459881	WORD	wordpools/wasnorm_wordpool_576.txt	LTP207	ltpFR2	9	3	OX	994	n/a	n/a	0	0	0
462310	WORD	wordpools/wasnorm_wordpool_576.txt	LTP207	ltpFR2	9	3	PLATE	1086	n/a	n/a	0	0	0
465006	WORD	wordpools/wasnorm_wordpool_576.txt	LTP207	ltpFR2	9	3	SHIRT	1287	n/a	n/a	0	0	0
467552	WORD	wordpools/wasnorm_wordpool_576.txt	LTP207	ltpFR2	9	3	BUBBLE	183	n/a	n/a	0	0	0
470332	WORD	wordpools/wasnorm_wordpool_576.txt	LTP207	ltpFR2	9	3	NECKLACE	940	n/a	n/a	0	0	0
472944	WORD	wordpools/wasnorm_wordpool_576.txt	LTP207	ltpFR2	9	3	PIGEON	1065	n/a	n/a	0	0	0
475540	WORD	wordpools/wasnorm_wordpool_576.txt	LTP207	ltpFR2	9	3	LUGGAGE	847	n/a	n/a	0	0	0
478003	WORD	wordpools/wasnorm_wordpool_576.txt	LTP207	ltpFR2	9	3	CYCLONE	431	n/a	n/a	0	0	0
480799	WORD	wordpools/wasnorm_wordpool_576.txt	LTP207	ltpFR2	9	3	SHARK	1275	n/a	n/a	0	0	0
483412	WORD	wordpools/wasnorm_wordpool_576.txt	LTP207	ltpFR2	9	3	SUITCASE	1403	n/a	n/a	0	0	0
486159	WORD	wordpools/wasnorm_wordpool_576.txt	LTP207	ltpFR2	9	3	DUSTPAN	509	n/a	n/a	0	0	0
488970	WORD	wordpools/wasnorm_wordpool_576.txt	LTP207	ltpFR2	9	3	MOP	916	n/a	n/a	0	0	0
491800	WORD	wordpools/wasnorm_wordpool_576.txt	LTP207	ltpFR2	9	3	MARROW	872	n/a	n/a	0	0	0
494529	WORD	wordpools/wasnorm_wordpool_576.txt	LTP207	ltpFR2	9	3	FIREMAN	569	n/a	n/a	0	0	0
496992	WORD	wordpools/wasnorm_wordpool_576.txt	LTP207	ltpFR2	9	3	CONVICT	371	n/a	n/a	0	0	0
499738	WORD	wordpools/wasnorm_wordpool_576.txt	LTP207	ltpFR2	9	3	GIRL	637	n/a	n/a	0	0	0
502534	WORD	wordpools/wasnorm_wordpool_576.txt	LTP207	ltpFR2	9	3	FRIEND	606	n/a	n/a	0	0	0
505279	WORD	wordpools/wasnorm_wordpool_576.txt	LTP207	ltpFR2	9	3	CATCHER	258	n/a	n/a	0	0	0
506894	START	n/a	LTP207	ltpFR2	9	n/a	n/a	n/a	4	n/a	n/a	n/a	n/a
507977	DISTRACTOR	n/a	LTP207	ltpFR2	9	3	n/a	n/a	n/a	n/a	0	0	0
507992	PROB	n/a	LTP207	ltpFR2	9	n/a	n/a	n/a	4	13	9	3	1
509208	PROB	n/a	LTP207	ltpFR2	9	n/a	n/a	n/a	4	14	3	5	6
510821	PROB	n/a	LTP207	ltpFR2	9	n/a	n/a	n/a	4	12	3	5	4
512785	PROB	n/a	LTP207	ltpFR2	9	n/a	n/a	n/a	4	17	4	9	4
514499	PROB	n/a	LTP207	ltpFR2	9	n/a	n/a	n/a	4	11	8	1	2
515614	PROB	n/a	LTP207	ltpFR2	9	n/a	n/a	n/a	4	14	4	2	8
516945	PROB	n/a	LTP207	ltpFR2	9	n/a	n/a	n/a	4	23	7	8	8
518277	PROB	n/a	LTP207	ltpFR2	9	n/a	n/a	n/a	4	9	3	5	1
520007	PROB	n/a	LTP207	ltpFR2	9	n/a	n/a	n/a	4	12	5	2	5
521173	PROB	n/a	LTP207	ltpFR2	9	n/a	n/a	n/a	4	12	5	5	2
522155	PROB	n/a	LTP207	ltpFR2	9	n/a	n/a	n/a	4	18	4	8	6
524418	PROB	n/a	LTP207	ltpFR2	9	n/a	n/a	n/a	4	19	9	7	3
526398	PROB	n/a	LTP207	ltpFR2	9	n/a	n/a	n/a	4	11	1	3	7
527513	PROB	n/a	LTP207	ltpFR2	9	n/a	n/a	n/a	4	15	6	6	3
528761	PROB	n/a	LTP207	ltpFR2	9	n/a	n/a	n/a	4	11	4	1	6
529785	STOP	n/a	LTP207	ltpFR2	9	n/a	n/a	n/a	4	n/a	n/a	n/a	n/a
532739	REC_START	n/a	LTP207	ltpFR2	9	3	n/a	n/a	n/a	n/a	0	0	0
534868	REC_WORD	wordpools/wasnorm_wordpool_576.txt	LTP207	ltpFR2	9	3	NECKLACE	940	n/a	n/a	0	0	0
623403	WORD	wordpools/wasnorm_wordpool_576.txt	LTP207	ltpFR2	9	4	ACTRESS	6	n/a	n/a	0	0	0
625966	WORD	wordpools/wasnorm_wordpool_576.txt	LTP207	ltpFR2	9	4	ACTOR	5	n/a	n/a	0	0	0
628679	WORD	wordpools/wasnorm_wordpool_576.txt	LTP207	ltpFR2	9	4	GIFT	635	n/a	n/a	0	0	0
631441	WORD	wordpools/wasnorm_wordpool_576.txt	LTP207	ltpFR2	9	4	COLONEL	348	n/a	n/a	0	0	0
634155	WORD	wordpools/wasnorm_wordpool_576.txt	LTP207	ltpFR2	9	4	SPOOL	1356	n/a	n/a	0	0	0
636816	WORD	wordpools/wasnorm_wordpool_576.txt	LTP207	ltpFR2	9	4	CHIPMUNK	304	n/a	n/a	0	0	0
639462	WORD	wordpools/wasnorm_wordpool_576.txt	LTP207	ltpFR2	9	4	SNAKE	1333	n/a	n/a	0	0	0
642042	WORD	wordpools/wasnorm_wordpool_576.txt	LTP207	ltpFR2	9	4	PASSAGE	1019	n/a	n/a	0	0	0
644621	WORD	wordpools/wasnorm_wordpool_576.txt	LTP207	ltpFR2	9	4	RACKET	1155	n/a	n/a	0	0	0
647334	WORD	wordpools/wasnorm_wordpool_576.txt	LTP207	ltpFR2	9	4	HEADBAND	696	n/a	n/a	0	0	0
649830	WORD	wordpools/wasnorm_wordpool_576.txt	LTP207	ltpFR2	9	4	SHRUB	1299	n/a	n/a	0	0	0
652526	WORD	wordpools/wasnorm_wordpool_576.txt	LTP207	ltpFR2	9	4	DOLPHIN	483	n/a	n/a	0	0	0
655355	WORD	wordpools/wasnorm_wordpool_576.txt	LTP207	ltpFR2	9	4	DANDRUFF	439	n/a	n/a	0	0	0
658069	WORD	wordpools/wasnorm_wordpool_576.txt	LTP207	ltpFR2	9	4	WIFE	1609	n/a	n/a	0	0	0
660781	WORD	wordpools/wasnorm_wordpool_576.txt	LTP207	ltpFR2	9	4	BANJO	82	n/a	n/a	0	0	0
663244	WORD	wordpools/wasnorm_wordpool_576.txt	LTP207	ltpFR2	9	4	RECORD	1176	n/a	n/a	0	0	0
666039	WORD	wordpools/wasnorm_wordpool_576.txt	LTP207	ltpFR2	9	4	EXPERT	543	n/a	n/a	0	0	0
668486	WORD	wordpools/wasnorm_wordpool_576.txt	LTP207	ltpFR2	9	4	NOVEL	960	n/a	n/a	0	0	0
671183	WORD	wordpools/wasnorm_wordpool_576.txt	LTP207	ltpFR2	9	4	LOVER	846	n/a	n/a	0	0	0
673844	WORD	wordpools/wasnorm_wordpool_576.txt	LTP207	ltpFR2	9	4	BEAVER	109	n/a	n/a	0	0	0
676324	WORD	wordpools/wasnorm_wordpool_576.txt	LTP207	ltpFR2	9	4	NOMAD	955	n/a	n/a	0	0	0
679003	WORD	wordpools/wasnorm_wordpool_576.txt	LTP207	ltpFR2	9	4	GRIZZLY	662	n/a	n/a	0	0	0
681733	WORD	wordpools/wasnorm_wordpool_576.txt	LTP207	ltpFR2	9	4	CARRIAGE	248	n/a	n/a	0	0	0
684296	WORD	wordpools/wasnorm_wordpool_576.txt	LTP207	ltpFR2	9	4	BARLEY	88	n/a	n/a	0	0	0
685910	START	n/a	LTP207	ltpFR2	9	n/a	n/a	n/a	5	n/a	n/a	n/a	n/a
687065	DISTRACTOR	n/a	LTP207	ltpFR2	9	4	n/a	n/a	n/a	n/a	0	0	0
687076	PROB	n/a	LTP207	ltpFR2	9	n/a	n/a	n/a	5	8	1	3	4
689288	PROB	n/a	LTP207	ltpFR2	9	n/a	n/a	n/a	5	14	5	1	8
691252	PROB	n/a	LTP207	ltpFR2	9	n/a	n/a	n/a	5	15	5	4	6
693981	PROB	n/a	LTP207	ltpFR2	9	n/a	n/a	n/a	5	12	2	6	2
695562	PROB	n/a	LTP207	ltpFR2	9	n/a	n/a	n/a	5	13	7	3	3
697259	PROB	n/a	LTP207	ltpFR2	9	n/a	n/a	n/a	5	15	7	4	4
698458	PROB	n/a	LTP207	ltpFR2	9	n/a	n/a	n/a	5	23	8	9	5
700255	PROB	n/a	LTP207	ltpFR2	9	n/a	n/a	n/a	5	7	1	1	5
701553	PROB	n/a	LTP207	ltpFR2	9	n/a	n/a	n/a	5	4	1	2	1
703883	PROB	n/a	LTP207	ltpFR2	9	n/a	n/a	n/a	5	17	8	4	5
705381	PROB	n/a	LTP207	ltpFR2	9	n/a	n/a	n/a	5	15	3	3	9
706363	PROB	n/a	LTP207	ltpFR2	9	n/a	n/a	n/a	5	8	2	3	3
707594	PROB	n/a	LTP207	ltpFR2	9	n/a	n/a	n/a	5	11	3	9	3
708737	STOP	n/a	LTP207	ltpFR2	9	n/a	n/a	n/a	5	n/a	n/a	n/a	n/a
711822	REC_START	n/a	LTP207	ltpFR2	9	4	n/a	n/a	n/a	n/a	0	0	0
716815	REC_WORD	wordpools/wasnorm_wordpool_576.txt	LTP207	ltpFR2	9	4	ACTOR	5	n/a	n/a	0	0	0
717876	REC_WORD	wordpools/wasnorm_wordpool_576.txt	LTP207	ltpFR2	9	4	ACTRESS	6	n/a	n/a	0	0	0
719465	REC_WORD	wordpools/wasnorm_wordpool_576.txt	LTP207	ltpFR2	9	4	GIFT	635	n/a	n/a	0	0	0
720959	REC_WORD	wordpools/wasnorm_wordpool_576.txt	LTP207	ltpFR2	9	4	COLONEL	348	n/a	n/a	0	0	0
730790	REC_WORD	wordpools/wasnorm_wordpool_576.txt	LTP207	ltpFR2	9	4	NOVEL	960	n/a	n/a	0	0	0
733490	REC_WORD	wordpools/wasnorm_wordpool_576.txt	LTP207	ltpFR2	9	4	WIFE	1609	n/a	n/a	0	0	0
769635	REC_WORD	wordpools/wasnorm_wordpool_576.txt	LTP207	ltpFR2	9	4	HEADBAND	696	n/a	n/a	0	0	0
802502	WORD	wordpools/wasnorm_wordpool_576.txt	LTP207	ltpFR2	9	5	BRACES	164	n/a	n/a	0	0	0
805032	WORD	wordpools/wasnorm_wordpool_576.txt	LTP207	ltpFR2	9	5	COTTAGE	384	n/a	n/a	0	0	0
807595	WORD	wordpools/wasnorm_wordpool_576.txt	LTP207	ltpFR2	9	5	PRINCESS	1125	n/a	n/a	0	0	0
810357	WORD	wordpools/wasnorm_wordpool_576.txt	LTP207	ltpFR2	9	5	SADDLE	1221	n/a	n/a	0	0	0
812820	WORD	wordpools/wasnorm_wordpool_576.txt	LTP207	ltpFR2	9	5	PARTNER	1017	n/a	n/a	0	0	0
815466	WORD	wordpools/wasnorm_wordpool_576.txt	LTP207	ltpFR2	9	5	BOYFRIEND	162	n/a	n/a	0	0	0
818080	WORD	wordpools/wasnorm_wordpool_576.txt	LTP207	ltpFR2	9	5	FREEZER	604	n/a	n/a	0	0	0
820808	WORD	wordpools/wasnorm_wordpool_576.txt	LTP207	ltpFR2	9	5	COIN	343	n/a	n/a	0	0	0
823604	WORD	wordpools/wasnorm_wordpool_576.txt	LTP207	ltpFR2	9	5	BLUEPRINT	142	n/a	n/a	0	0	0
826185	WORD	wordpools/wasnorm_wordpool_576.txt	LTP207	ltpFR2	9	5	FLUTE	585	n/a	n/a	0	0	0
828730	WORD	wordpools/wasnorm_wordpool_576.txt	LTP207	ltpFR2	9	5	ROBOT	1200	n/a	n/a	0	0	0
831194	WORD	wordpools/wasnorm_wordpool_576.txt	LTP207	ltpFR2	9	5	MESSAGE	888	n/a	n/a	0	0	0
833673	WORD	wordpools/wasnorm_wordpool_576.txt	LTP207	ltpFR2	9	5	PEANUT	1032	n/a	n/a	0	0	0
836418	WORD	wordpools/wasnorm_wordpool_576.txt	LTP207	ltpFR2	9	5	SODA	1341	n/a	n/a	0	0	0
839048	WORD	wordpools/wasnorm_wordpool_576.txt	LTP207	ltpFR2	9	5	WAITRESS	1581	n/a	n/a	0	0	0
841694	WORD	wordpools/wasnorm_wordpool_576.txt	LTP207	ltpFR2	9	5	SWAMP	1416	n/a	n/a	0	0	0
844208	WORD	wordpools/wasnorm_wordpool_576.txt	LTP207	ltpFR2	9	5	DRILL	497	n/a	n/a	0	0	0
846919	WORD	wordpools/wasnorm_wordpool_576.txt	LTP207	ltpFR2	9	5	CREVICE	405	n/a	n/a	0	0	0
849732	WORD	wordpools/wasnorm_wordpool_576.txt	LTP207	ltpFR2	9	5	ROOSTER	1209	n/a	n/a	0	0	0
852411	WORD	wordpools/wasnorm_wordpool_576.txt	LTP207	ltpFR2	9	5	SHELTER	1282	n/a	n/a	0	0	0
855075	WORD	wordpools/wasnorm_wordpool_576.txt	LTP207	ltpFR2	9	5	CABIN	211	n/a	n/a	0	0	0
857620	WORD	wordpools/wasnorm_wordpool_576.txt	LTP207	ltpFR2	9	5	TROMBONE	1508	n/a	n/a	0	0	0
860067	WORD	wordpools/wasnorm_wordpool_576.txt	LTP207	ltpFR2	9	5	COMPASS	358	n/a	n/a	0	0	0
862779	WORD	wordpools/wasnorm_wordpool_576.txt	LTP207	ltpFR2	9	5	PLUTO	1092	n/a	n/a	0	0	0
864394	START	n/a	LTP207	ltpFR2	9	n/a	n/a	n/a	6	n/a	n/a	n/a	n/a
865195	DISTRACTOR	n/a	LTP207	ltpFR2	9	5	n/a	n/a	n/a	n/a	0	0	0
865210	PROB	n/a	LTP207	ltpFR2	9	n/a	n/a	n/a	6	18	8	4	6
867572	PROB	n/a	LTP207	ltpFR2	9	n/a	n/a	n/a	6	9	6	2	1
870218	PROB	n/a	LTP207	ltpFR2	9	n/a	n/a	n/a	6	13	4	5	4
871849	PROB	n/a	LTP207	ltpFR2	9	n/a	n/a	n/a	6	16	1	9	6
874180	PROB	n/a	LTP207	ltpFR2	9	n/a	n/a	n/a	6	12	1	3	8
875443	PROB	n/a	LTP207	ltpFR2	9	n/a	n/a	n/a	6	13	2	2	9
876492	PROB	n/a	LTP207	ltpFR2	9	n/a	n/a	n/a	6	15	6	7	2
877823	PROB	n/a	LTP207	ltpFR2	9	n/a	n/a	n/a	6	15	3	6	6
879055	PROB	n/a	LTP207	ltpFR2	9	n/a	n/a	n/a	6	12	4	3	5
880802	PROB	n/a	LTP207	ltpFR2	9	n/a	n/a	n/a	6	14	7	2	5
882500	PROB	n/a	LTP207	ltpFR2	9	n/a	n/a	n/a	6	12	8	2	2
883598	PROB	n/a	LTP207	ltpFR2	9	n/a	n/a	n/a	6	5	2	2	1
884513	PROB	n/a	LTP207	ltpFR2	9	n/a	n/a	n/a	6	17	5	6	6
886195	PROB	n/a	LTP207	ltpFR2	9	n/a	n/a	n/a	6	13	9	1	3
887241	STOP	n/a	LTP207	ltpFR2	9	n/a	n/a	n/a	6	n/a	n/a	n/a	n/a
890239	REC_START	n/a	LTP207	ltpFR2	9	5	n/a	n/a	n/a	n/a	0	0	0
891574	REC_WORD	wordpools/wasnorm_wordpool_576.txt	LTP207	ltpFR2	9	5	WAITRESS	1581	n/a	n/a	0	0	0
892542	REC_WORD	wordpools/wasnorm_wordpool_576.txt	LTP207	ltpFR2	9	5	SWAMP	1416	n/a	n/a	0	0	0
894339	REC_WORD	wordpools/wasnorm_wordpool_576.txt	LTP207	ltpFR2	9	5	CREVICE	405	n/a	n/a	0	0	0
896359	REC_WORD	wordpools/wasnorm_wordpool_576.txt	LTP207	ltpFR2	9	5	DRILL	497	n/a	n/a	0	0	0
899510	REC_WORD	wordpools/wasnorm_wordpool_576.txt	LTP207	ltpFR2	9	5	CABIN	211	n/a	n/a	0	0	0
900863	REC_WORD	wordpools/wasnorm_wordpool_576.txt	LTP207	ltpFR2	9	5	SHELTER	1282	n/a	n/a	0	0	0
903361	REC_WORD	wordpools/wasnorm_wordpool_576.txt	LTP207	ltpFR2	9	5	TROMBONE	1508	n/a	n/a	0	0	0
906778	REC_WORD	wordpools/wasnorm_wordpool_576.txt	LTP207	ltpFR2	9	5	ROOSTER	1209	n/a	n/a	0	0	0
980886	DISTRACTOR	n/a	LTP207	ltpFR2	9	6	n/a	n/a	n/a	n/a	0	0	0
980886	START	n/a	LTP207	ltpFR2	9	n/a	n/a	n/a	7	n/a	n/a	n/a	n/a
980919	PROB	n/a	LTP207	ltpFR2	9	n/a	n/a	n/a	7	20	9	2	9
982284	PROB	n/a	LTP207	ltpFR2	9	n/a	n/a	n/a	7	14	5	4	5
983615	PROB	n/a	LTP207	ltpFR2	9	n/a	n/a	n/a	7	21	6	9	6
984980	PROB	n/a	LTP207	ltpFR2	9	n/a	n/a	n/a	7	19	3	7	9
986461	PROB	n/a	LTP207	ltpFR2	9	n/a	n/a	n/a	7	21	9	6	6
988375	PROB	n/a	LTP207	ltpFR2	9	n/a	n/a	n/a	7	21	7	7	7
991155	PROB	n/a	LTP207	ltpFR2	9	n/a	n/a	n/a	7	24	8	8	8
992585	PROB	n/a	LTP207	ltpFR2	9	n/a	n/a	n/a	7	11	7	3	1
993933	PROB	n/a	LTP207	ltpFR2	9	n/a	n/a	n/a	7	14	6	3	5
995681	PROB	n/a	LTP207	ltpFR2	9	n/a	n/a	n/a	7	18	2	8	8
997113	PROB	n/a	LTP207	ltpFR2	9	n/a	n/a	n/a	7	16	6	1	9
998327	PROB	n/a	LTP207	ltpFR2	9	n/a	n/a	n/a	7	14	2	9	3
999908	PROB	n/a	LTP207	ltpFR2	9	n/a	n/a	n/a	7	14	4	2	8
1001821	PROB	n/a	LTP207	ltpFR2	9	n/a	n/a	n/a	7	15	9	1	5
1003473	STOP	n/a	LTP207	ltpFR2	9	n/a	n/a	n/a	7	n/a	n/a	n/a	n/a
1005832	WORD	wordpools/wasnorm_wordpool_576.txt	LTP207	ltpFR2	9	6	TRIBE	1505	n/a	n/a	0	0	0
1008495	WORD	wordpools/wasnorm_wordpool_576.txt	LTP207	ltpFR2	9	6	EMPIRE	530	n/a	n/a	0	0	0
1011274	WORD	wordpools/wasnorm_wordpool_576.txt	LTP207	ltpFR2	9	6	PEPPER	1047	n/a	n/a	0	0	0
1013820	WORD	wordpools/wasnorm_wordpool_576.txt	LTP207	ltpFR2	9	6	COOKBOOK	373	n/a	n/a	0	0	0
1016283	WORD	wordpools/wasnorm_wordpool_576.txt	LTP207	ltpFR2	9	6	COOK	372	n/a	n/a	0	0	0
1019046	WORD	wordpools/wasnorm_wordpool_576.txt	LTP207	ltpFR2	9	6	CRAB	397	n/a	n/a	0	0	0
1021592	WORD	wordpools/wasnorm_wordpool_576.txt	LTP207	ltpFR2	9	6	QUARTER	1148	n/a	n/a	0	0	0
1024139	WORD	wordpools/wasnorm_wordpool_576.txt	LTP207	ltpFR2	9	6	PISTON	1076	n/a	n/a	0	0	0
1026718	WORD	wordpools/wasnorm_wordpool_576.txt	LTP207	ltpFR2	9	6	SCALPEL	1243	n/a	n/a	0	0	0
1029182	WORD	wordpools/wasnorm_wordpool_576.txt	LTP207	ltpFR2	9	6	PATIENT	1024	n/a	n/a	0	0	0
1031760	WORD	wordpools/wasnorm_wordpool_576.txt	LTP207	ltpFR2	9	6	MASK	876	n/a	n/a	0	0	0
1034207	WORD	wordpools/wasnorm_wordpool_576.txt	LTP207	ltpFR2	9	6	BURGLAR	200	n/a	n/a	0	0	0
1036936	WORD	wordpools/wasnorm_wordpool_576.txt	LTP207	ltpFR2	9	6	TURNIP	1521	n/a	n/a	0	0	0
1039382	WORD	wordpools/wasnorm_wordpool_576.txt	LTP207	ltpFR2	9	6	VELVET	1555	n/a	n/a	0	0	0
1041962	WORD	wordpools/wasnorm_wordpool_576.txt	LTP207	ltpFR2	9	6	LIPSTICK	829	n/a	n/a	0	0	0
1044508	WORD	wordpools/wasnorm_wordpool_576.txt	LTP207	ltpFR2	9	6	DRAGON	492	n/a	n/a	0	0	0
1047320	WORD	wordpools/wasnorm_wordpool_576.txt	LTP207	ltpFR2	9	6	PRINCE	1124	n/a	n/a	0	0	0
1050084	WORD	wordpools/wasnorm_wordpool_576.txt	LTP207	ltpFR2	9	6	INFANT	737	n/a	n/a	0	0	0
1052862	WORD	wordpools/wasnorm_wordpool_576.txt	LTP207	ltpFR2	9	6	VIRUS	1572	n/a	n/a	0	0	0
1055658	WORD	wordpools/wasnorm_wordpool_576.txt	LTP207	ltpFR2	9	6	CLAMP	316	n/a	n/a	0	0	0
1058221	WORD	wordpools/wasnorm_wordpool_576.txt	LTP207	ltpFR2	9	6	SCALLOP	1242	n/a	n/a	0	0	0
1060717	WORD	wordpools/wasnorm_wordpool_576.txt	LTP207	ltpFR2	9	6	PLAYGROUND	1087	n/a	n/a	0	0	0
1063380	WORD	wordpools/wasnorm_wordpool_576.txt	LTP207	ltpFR2	9	6	SLIME	1327	n/a	n/a	0	0	0
1065859	WORD	wordpools/wasnorm_wordpool_576.txt	LTP207	ltpFR2	9	6	SUSPECT	1415	n/a	n/a	0	0	0
1067474	START	n/a	LTP207	ltpFR2	9	n/a	n/a	n/a	8	n/a	n/a	n/a	n/a
1068349	DISTRACTOR	n/a	LTP207	ltpFR2	9	6	n/a	n/a	n/a	n/a	0	0	0
1068355	PROB	n/a	LTP207	ltpFR2	9	n/a	n/a	n/a	8	15	8	2	5
1069737	PROB	n/a	LTP207	ltpFR2	9	n/a	n/a	n/a	8	20	8	4	8
1071318	PROB	n/a	LTP207	ltpFR2	9	n/a	n/a	n/a	8	20	6	6	8
1072632	PROB	n/a	LTP207	ltpFR2	9	n/a	n/a	n/a	8	11	3	2	6
1074729	PROB	n/a	LTP207	ltpFR2	9	n/a	n/a	n/a	8	20	8	5	7
1076793	PROB	n/a	LTP207	ltpFR2	9	n/a	n/a	n/a	8	17	2	6	9
1079090	PROB	n/a	LTP207	ltpFR2	9	n/a	n/a	n/a	8	19	8	2	9
1081519	PROB	n/a	LTP207	ltpFR2	9	n/a	n/a	n/a	8	16	9	6	1
1082817	PROB	n/a	LTP207	ltpFR2	9	n/a	n/a	n/a	8	15	2	8	5
1084332	PROB	n/a	LTP207	ltpFR2	9	n/a	n/a	n/a	8	20	9	2	9
1085846	PROB	n/a	LTP207	ltpFR2	9	n/a	n/a	n/a	8	11	7	2	2
1087078	PROB	n/a	LTP207	ltpFR2	9	n/a	n/a	n/a	8	19	4	8	7
1088825	PROB	n/a	LTP207	ltpFR2	9	n/a	n/a	n/a	8	14	3	4	7
1090753	STOP	n/a	LTP207	ltpFR2	9	n/a	n/a	n/a	8	n/a	n/a	n/a	n/a
1093252	REC_START	n/a	LTP207	ltpFR2	9	6	n/a	n/a	n/a	n/a	0	0	0
1094608	REC_WORD	wordpools/wasnorm_wordpool_576.txt	LTP207	ltpFR2	9	6	TRIBE	1505	n/a	n/a	0	0	0
1096369	REC_WORD	wordpools/wasnorm_wordpool_576.txt	LTP207	ltpFR2	9	6	COOK	372	n/a	n/a	0	0	0
1098125	REC_WORD	wordpools/wasnorm_wordpool_576.txt	LTP207	ltpFR2	9	6	COOKBOOK	373	n/a	n/a	0	0	0
1108082	REC_WORD	wordpools/wasnorm_wordpool_576.txt	LTP207	ltpFR2	9	6	VELVET	1555	n/a	n/a	0	0	0
1157849	REC_WORD	wordpools/wasnorm_wordpool_576.txt	LTP207	ltpFR2	9	6	VENUS	1557	n/a	n/a	0	0	0
1183900	DISTRACTOR	n/a	LTP207	ltpFR2	9	7	n/a	n/a	n/a	n/a	0	0	0
1183900	START	n/a	LTP207	ltpFR2	9	n/a	n/a	n/a	9	n/a	n/a	n/a	n/a
1183933	PROB	n/a	LTP207	ltpFR2	9	n/a	n/a	n/a	9	14	5	1	8
1185264	PROB	n/a	LTP207	ltpFR2	9	n/a	n/a	n/a	9	12	1	4	7
1186462	PROB	n/a	LTP207	ltpFR2	9	n/a	n/a	n/a	9	15	1	6	8
1187777	PROB	n/a	LTP207	ltpFR2	9	n/a	n/a	n/a	9	21	9	5	7
1189143	PROB	n/a	LTP207	ltpFR2	9	n/a	n/a	n/a	9	19	7	6	6
1192637	PROB	n/a	LTP207	ltpFR2	9	n/a	n/a	n/a	9	17	8	1	8
1194051	PROB	n/a	LTP207	ltpFR2	9	n/a	n/a	n/a	9	23	9	5	9
1195532	PROB	n/a	LTP207	ltpFR2	9	n/a	n/a	n/a	9	14	7	5	2
1196897	PROB	n/a	LTP207	ltpFR2	9	n/a	n/a	n/a	9	15	5	8	2
1198495	PROB	n/a	LTP207	ltpFR2	9	n/a	n/a	n/a	9	11	1	3	7
1199709	PROB	n/a	LTP207	ltpFR2	9	n/a	n/a	n/a	9	17	9	2	6
1201240	PROB	n/a	LTP207	ltpFR2	9	n/a	n/a	n/a	9	19	5	5	9
1202439	PROB	n/a	LTP207	ltpFR2	9	n/a	n/a	n/a	9	24	9	7	8
1205301	PROB	n/a	LTP207	ltpFR2	9	n/a	n/a	n/a	9	20	9	6	5
1206641	STOP	n/a	LTP207	ltpFR2	9	n/a	n/a	n/a	9	n/a	n/a	n/a	n/a
1208846	WORD	wordpools/wasnorm_wordpool_576.txt	LTP207	ltpFR2	9	7	SHELF	1280	n/a	n/a	0	0	0
1211425	WORD	wordpools/wasnorm_wordpool_576.txt	LTP207	ltpFR2	9	7	VENUS	1557	n/a	n/a	0	0	0
1214122	WORD	wordpools/wasnorm_wordpool_576.txt	LTP207	ltpFR2	9	7	JELLY	755	n/a	n/a	0	0	0
1216751	WORD	wordpools/wasnorm_wordpool_576.txt	LTP207	ltpFR2	9	7	CONTRACT	368	n/a	n/a	0	0	0
1219546	WORD	wordpools/wasnorm_wordpool_576.txt	LTP207	ltpFR2	9	7	KLEENEX	782	n/a	n/a	0	0	0
1222009	WORD	wordpools/wasnorm_wordpool_576.txt	LTP207	ltpFR2	9	7	CRAYON	401	n/a	n/a	0	0	0
1224439	WORD	wordpools/wasnorm_wordpool_576.txt	LTP207	ltpFR2	9	7	CASHIER	254	n/a	n/a	0	0	0
1227235	WORD	wordpools/wasnorm_wordpool_576.txt	LTP207	ltpFR2	9	7	COSTUME	383	n/a	n/a	0	0	0
1229931	WORD	wordpools/wasnorm_wordpool_576.txt	LTP207	ltpFR2	9	7	TOASTER	1472	n/a	n/a	0	0	0
1232527	WORD	wordpools/wasnorm_wordpool_576.txt	LTP207	ltpFR2	9	7	BROOK	177	n/a	n/a	0	0	0
1235108	WORD	wordpools/wasnorm_wordpool_576.txt	LTP207	ltpFR2	9	7	CELLAR	267	n/a	n/a	0	0	0
1237719	WORD	wordpools/wasnorm_wordpool_576.txt	LTP207	ltpFR2	9	7	GAVEL	627	n/a	n/a	0	0	0
1240232	WORD	wordpools/wasnorm_wordpool_576.txt	LTP207	ltpFR2	9	7	WRENCH	1625	n/a	n/a	0	0	0
1242912	WORD	wordpools/wasnorm_wordpool_576.txt	LTP207	ltpFR2	9	7	MARS	873	n/a	n/a	0	0	0
1245724	WORD	wordpools/wasnorm_wordpool_576.txt	LTP207	ltpFR2	9	7	FEMALE	559	n/a	n/a	0	0	0
1248536	WORD	wordpools/wasnorm_wordpool_576.txt	LTP207	ltpFR2	9	7	WOMAN	1620	n/a	n/a	0	0	0
1251249	WORD	wordpools/wasnorm_wordpool_576.txt	LTP207	ltpFR2	9	7	WASHER	1592	n/a	n/a	0	0	0
1253895	WORD	wordpools/wasnorm_wordpool_576.txt	LTP207	ltpFR2	9	7	QUAIL	1147	n/a	n/a	0	0	0
1256325	WORD	wordpools/wasnorm_wordpool_576.txt	LTP207	ltpFR2	9	7	CUSTARD	429	n/a	n/a	0	0	0
1259105	WORD	wordpools/wasnorm_wordpool_576.txt	LTP207	ltpFR2	9	7	JELLO	754	n/a	n/a	0	0	0
1261850	WORD	wordpools/wasnorm_wordpool_576.txt	LTP207	ltpFR2	9	7	STREAM	1392	n/a	n/a	0	0	0
1264629	WORD	wordpools/wasnorm_wordpool_576.txt	LTP207	ltpFR2	9	7	HOSTESS	723	n/a	n/a	0	0	0
1267358	WORD	wordpools/wasnorm_wordpool_576.txt	LTP207	ltpFR2	9	7	LODGE	839	n/a	n/a	0	0	0
1269905	WORD	wordpools/wasnorm_wordpool_576.txt	LTP207	ltpFR2	9	7	GARDEN	623	n/a	n/a	0	0	0
1271519	START	n/a	LTP207	ltpFR2	9	n/a	n/a	n/a	10	n/a	n/a	n/a	n/a
1272462	DISTRACTOR	n/a	LTP207	ltpFR2	9	7	n/a	n/a	n/a	n/a	0	0	0
1272467	PROB	n/a	LTP207	ltpFR2	9	n/a	n/a	n/a	10	16	2	6	8
1273949	PROB	n/a	LTP207	ltpFR2	9	n/a	n/a	n/a	10	11	1	6	4
1275081	PROB	n/a	LTP207	ltpFR2	9	n/a	n/a	n/a	10	23	4	9	9
1276511	PROB	n/a	LTP207	ltpFR2	9	n/a	n/a	n/a	10	17	6	4	7
1278775	PROB	n/a	LTP207	ltpFR2	9	n/a	n/a	n/a	10	18	7	5	6
1280272	PROB	n/a	LTP207	ltpFR2	9	n/a	n/a	n/a	10	15	8	3	4
1281454	PROB	n/a	LTP207	ltpFR2	9	n/a	n/a	n/a	10	15	1	6	9
1283268	PROB	n/a	LTP207	ltpFR2	9	n/a	n/a	n/a	10	15	4	6	5
1286613	PROB	n/a	LTP207	ltpFR2	9	n/a	n/a	n/a	10	18	5	4	9
1288843	PROB	n/a	LTP207	ltpFR2	9	n/a	n/a	n/a	10	18	8	7	3
1290142	PROB	n/a	LTP207	ltpFR2	9	n/a	n/a	n/a	10	17	6	3	8
1291589	PROB	n/a	LTP207	ltpFR2	9	n/a	n/a	n/a	10	21	6	8	7
1293286	PROB	n/a	LTP207	ltpFR2	9	n/a	n/a	n/a	10	17	9	3	5
1294697	STOP	n/a	LTP207	ltpFR2	9	n/a	n/a	n/a	10	n/a	n/a	n/a	n/a
1297414	REC_START	n/a	LTP207	ltpFR2	9	7	n/a	n/a	n/a	n/a	0	0	0
1299302	REC_WORD	wordpools/wasnorm_wordpool_576.txt	LTP207	ltpFR2	9	7	SHELF	1280	n/a	n/a	0	0	0
1300431	REC_WORD	wordpools/wasnorm_wordpool_576.txt	LTP207	ltpFR2	9	7	VENUS	1557	n/a	n/a	0	0	0
1301705	REC_WORD	wordpools/wasnorm_wordpool_576.txt	LTP207	ltpFR2	9	7	JELLY	755	n/a	n/a	0	0	0
1304429	REC_WORD	wordpools/wasnorm_wordpool_576.txt	LTP207	ltpFR2	9	7	CASHIER	254	n/a	n/a	0	0	0
1305695	REC_WORD	wordpools/wasnorm_wordpool_576.txt	LTP207	ltpFR2	9	7	HOSTESS	723	n/a	n/a	0	0	0
1309313	REC_WORD	wordpools/wasnorm_wordpool_576.txt	LTP207	ltpFR2	9	7	COSTUME	383	n/a	n/a	0	0	0
1312123	REC_WORD	wordpools/wasnorm_wordpool_576.txt	LTP207	ltpFR2	9	7	BROOK	177	n/a	n/a	0	0	0
1313617	REC_WORD	wordpools/wasnorm_wordpool_576.txt	LTP207	ltpFR2	9	7	TOASTER	1472	n/a	n/a	0	0	0
1320521	REC_WORD	wordpools/wasnorm_wordpool_576.txt	LTP207	ltpFR2	9	7	CELLAR	267	n/a	n/a	0	0	0
1328310	REC_WORD	wordpools/wasnorm_wordpool_576.txt	LTP207	ltpFR2	9	7	FEMALE	559	n/a	n/a	0	0	0
1330286	REC_WORD	wordpools/wasnorm_wordpool_576.txt	LTP207	ltpFR2	9	7	WOMAN	1620	n/a	n/a	0	0	0
1336719	REC_WORD	wordpools/wasnorm_wordpool_576.txt	LTP207	ltpFR2	9	7	GAVEL	627	n/a	n/a	0	0	0
1339298	REC_WORD	wordpools/wasnorm_wordpool_576.txt	LTP207	ltpFR2	9	7	WRENCH	1625	n/a	n/a	0	0	0
1352592	REC_WORD	wordpools/wasnorm_wordpool_576.txt	LTP207	ltpFR2	9	7	LODGE	839	n/a	n/a	0	0	0
1365230	REC_WORD	wordpools/wasnorm_wordpool_576.txt	LTP207	ltpFR2	9	7	QUAIL	1147	n/a	n/a	0	0	0
1388079	WORD	wordpools/wasnorm_wordpool_576.txt	LTP207	ltpFR2	9	8	CLAM	315	n/a	n/a	0	0	0
1390641	WORD	wordpools/wasnorm_wordpool_576.txt	LTP207	ltpFR2	9	8	TREAT	1501	n/a	n/a	0	0	0
1393354	WORD	wordpools/wasnorm_wordpool_576.txt	LTP207	ltpFR2	9	8	RIFLE	1192	n/a	n/a	0	0	0
1396134	WORD	wordpools/wasnorm_wordpool_576.txt	LTP207	ltpFR2	9	8	SALT	1229	n/a	n/a	0	0	0
1398829	WORD	wordpools/wasnorm_wordpool_576.txt	LTP207	ltpFR2	9	8	ONION	977	n/a	n/a	0	0	0
1401525	WORD	wordpools/wasnorm_wordpool_576.txt	LTP207	ltpFR2	9	8	DRUG	501	n/a	n/a	0	0	0
1404072	WORD	wordpools/wasnorm_wordpool_576.txt	LTP207	ltpFR2	9	8	SHORTCAKE	1292	n/a	n/a	0	0	0
1406867	WORD	wordpools/wasnorm_wordpool_576.txt	LTP207	ltpFR2	9	8	BEEF	113	n/a	n/a	0	0	0
1409446	WORD	wordpools/wasnorm_wordpool_576.txt	LTP207	ltpFR2	9	8	POPCORN	1104	n/a	n/a	0	0	0
1411976	WORD	wordpools/wasnorm_wordpool_576.txt	LTP207	ltpFR2	9	8	PIZZA	1079	n/a	n/a	0	0	0
1414639	WORD	wordpools/wasnorm_wordpool_576.txt	LTP207	ltpFR2	9	8	JURY	766	n/a	n/a	0	0	0
1417285	WORD	wordpools/wasnorm_wordpool_576.txt	LTP207	ltpFR2	9	8	SERVER	1272	n/a	n/a	0	0	0
1419814	WORD	wordpools/wasnorm_wordpool_576.txt	LTP207	ltpFR2	9	8	ICEBERG	731	n/a	n/a	0	0	0
1422277	WORD	wordpools/wasnorm_wordpool_576.txt	LTP207	ltpFR2	9	8	SUPPER	1411	n/a	n/a	0	0	0
1424840	WORD	wordpools/wasnorm_wordpool_576.txt	LTP207	ltpFR2	9	8	THIEF	1456	n/a	n/a	0	0	0
1427619	WORD	wordpools/wasnorm_wordpool_576.txt	LTP207	ltpFR2	9	8	OUTLAW	989	n/a	n/a	0	0	0
1430083	WORD	wordpools/wasnorm_wordpool_576.txt	LTP207	ltpFR2	9	8	SANDWICH	1232	n/a	n/a	0	0	0
1432861	WORD	wordpools/wasnorm_wordpool_576.txt	LTP207	ltpFR2	9	8	DUST	508	n/a	n/a	0	0	0
1435391	WORD	wordpools/wasnorm_wordpool_576.txt	LTP207	ltpFR2	9	8	EUROPE	541	n/a	n/a	0	0	0
1437821	WORD	wordpools/wasnorm_wordpool_576.txt	LTP207	ltpFR2	9	8	ZIPPER	1636	n/a	n/a	0	0	0
1440267	WORD	wordpools/wasnorm_wordpool_576.txt	LTP207	ltpFR2	9	8	DRESS	495	n/a	n/a	0	0	0
1443063	WORD	wordpools/wasnorm_wordpool_576.txt	LTP207	ltpFR2	9	8	FUNGUS	614	n/a	n/a	0	0	0
1445775	WORD	wordpools/wasnorm_wordpool_576.txt	LTP207	ltpFR2	9	8	PRIMATE	1123	n/a	n/a	0	0	0
1448488	WORD	wordpools/wasnorm_wordpool_576.txt	LTP207	ltpFR2	9	8	FRANCE	601	n/a	n/a	0	0	0
1450103	START	n/a	LTP207	ltpFR2	9	n/a	n/a	n/a	11	n/a	n/a	n/a	n/a
1451060	DISTRACTOR	n/a	LTP207	ltpFR2	9	8	n/a	n/a	n/a	n/a	0	0	0
1451068	PROB	n/a	LTP207	ltpFR2	9	n/a	n/a	n/a	11	19	4	6	9
1453397	PROB	n/a	LTP207	ltpFR2	9	n/a	n/a	n/a	11	20	5	9	6
1454745	PROB	n/a	LTP207	ltpFR2	9	n/a	n/a	n/a	11	19	7	7	5
1456128	PROB	n/a	LTP207	ltpFR2	9	n/a	n/a	n/a	11	20	9	2	9
1457691	PROB	n/a	LTP207	ltpFR2	9	n/a	n/a	n/a	11	18	9	7	2
1458889	PROB	n/a	LTP207	ltpFR2	9	n/a	n/a	n/a	11	13	4	8	1
1460122	PROB	n/a	LTP207	ltpFR2	9	n/a	n/a	n/a	11	16	6	2	8
1461652	PROB	n/a	LTP207	ltpFR2	9	n/a	n/a	n/a	11	17	5	5	7
1463033	PROB	n/a	LTP207	ltpFR2	9	n/a	n/a	n/a	11	20	8	3	9
1464199	PROB	n/a	LTP207	ltpFR2	9	n/a	n/a	n/a	11	9	1	7	1
1465396	PROB	n/a	LTP207	ltpFR2	9	n/a	n/a	n/a	11	26	9	9	8
1466661	PROB	n/a	LTP207	ltpFR2	9	n/a	n/a	n/a	11	22	9	5	8
1468741	PROB	n/a	LTP207	ltpFR2	9	n/a	n/a	n/a	11	19	9	8	2
1470339	PROB	n/a	LTP207	ltpFR2	9	n/a	n/a	n/a	11	11	4	6	1
1474102	STOP	n/a	LTP207	ltpFR2	9	n/a	n/a	n/a	11	n/a	n/a	n/a	n/a
1476082	REC_START	n/a	LTP207	ltpFR2	9	8	n/a	n/a	n/a	n/a	0	0	0
1488918	REC_WORD	wordpools/wasnorm_wordpool_576.txt	LTP207	ltpFR2	9	8	SERVER	1272	n/a	n/a	0	0	0
1490728	REC_WORD	wordpools/wasnorm_wordpool_576.txt	LTP207	ltpFR2	9	8	WAITRESS	1581	n/a	n/a	0	0	0
1495765	REC_WORD	wordpools/wasnorm_wordpool_576.txt	LTP207	ltpFR2	9	8	DUST	508	n/a	n/a	0	0	0
1552716	REST_REWET	n/a	LTP207	ltpFR2	9	8	n/a	n/a	n/a	n/a	0	0	0
1864202	DISTRACTOR	n/a	LTP207	ltpFR2	9	9	n/a	n/a	n/a	n/a	0	0	0
1864202	START	n/a	LTP207	ltpFR2	9	n/a	n/a	n/a	12	n/a	n/a	n/a	n/a
1864234	PROB	n/a	LTP207	ltpFR2	9	n/a	n/a	n/a	12	16	8	7	1
1865832	PROB	n/a	LTP207	ltpFR2	9	n/a	n/a	n/a	12	20	4	7	9
1868129	PROB	n/a	LTP207	ltpFR2	9	n/a	n/a	n/a	12	16	6	6	4
1870475	PROB	n/a	LTP207	ltpFR2	9	n/a	n/a	n/a	12	15	9	4	2
1872173	PROB	n/a	LTP207	ltpFR2	9	n/a	n/a	n/a	12	12	5	2	5
1873404	PROB	n/a	LTP207	ltpFR2	9	n/a	n/a	n/a	12	16	6	6	4
1875001	PROB	n/a	LTP207	ltpFR2	9	n/a	n/a	n/a	12	20	8	8	4
1877747	PROB	n/a	LTP207	ltpFR2	9	n/a	n/a	n/a	12	12	4	2	5
1879129	PROB	n/a	LTP207	ltpFR2	9	n/a	n/a	n/a	12	22	8	6	8
1881442	PROB	n/a	LTP207	ltpFR2	9	n/a	n/a	n/a	12	21	4	8	9
1882773	PROB	n/a	LTP207	ltpFR2	9	n/a	n/a	n/a	12	9	2	3	4
1884404	PROB	n/a	LTP207	ltpFR2	9	n/a	n/a	n/a	12	20	9	4	7
1887689	STOP	n/a	LTP207	ltpFR2	9	n/a	n/a	n/a	12	n/a	n/a	n/a	n/a
1889098	WORD	wordpools/wasnorm_wordpool_576.txt	LTP207	ltpFR2	9	9	KNAPSACK	783	n/a	n/a	0	0	0
1891676	WORD	wordpools/wasnorm_wordpool_576.txt	LTP207	ltpFR2	9	9	GRILL	661	n/a	n/a	0	0	0
1894157	WORD	wordpools/wasnorm_wordpool_576.txt	LTP207	ltpFR2	9	9	ELBOW	520	n/a	n/a	0	0	0
1896785	WORD	wordpools/wasnorm_wordpool_576.txt	LTP207	ltpFR2	9	9	TABLET	1427	n/a	n/a	0	0	0
1899365	WORD	wordpools/wasnorm_wordpool_576.txt	LTP207	ltpFR2	9	9	REBEL	1172	n/a	n/a	0	0	0
1902178	WORD	wordpools/wasnorm_wordpool_576.txt	LTP207	ltpFR2	9	9	PENGUIN	1044	n/a	n/a	0	0	0
1904840	WORD	wordpools/wasnorm_wordpool_576.txt	LTP207	ltpFR2	9	9	POSSUM	1112	n/a	n/a	0	0	0
1907270	WORD	wordpools/wasnorm_wordpool_576.txt	LTP207	ltpFR2	9	9	COD	340	n/a	n/a	0	0	0
1910016	WORD	wordpools/wasnorm_wordpool_576.txt	LTP207	ltpFR2	9	9	YARN	1631	n/a	n/a	0	0	0
1912795	WORD	wordpools/wasnorm_wordpool_576.txt	LTP207	ltpFR2	9	9	AWARD	63	n/a	n/a	0	0	0
1915607	WORD	wordpools/wasnorm_wordpool_576.txt	LTP207	ltpFR2	9	9	PEACH	1031	n/a	n/a	0	0	0
1918353	WORD	wordpools/wasnorm_wordpool_576.txt	LTP207	ltpFR2	9	9	TILE	1468	n/a	n/a	0	0	0
1920849	WORD	wordpools/wasnorm_wordpool_576.txt	LTP207	ltpFR2	9	9	RUG	1215	n/a	n/a	0	0	0
1923312	WORD	wordpools/wasnorm_wordpool_576.txt	LTP207	ltpFR2	9	9	CRUTCH	417	n/a	n/a	0	0	0
1925842	WORD	wordpools/wasnorm_wordpool_576.txt	LTP207	ltpFR2	9	9	HAWK	692	n/a	n/a	0	0	0
1928621	WORD	wordpools/wasnorm_wordpool_576.txt	LTP207	ltpFR2	9	9	CLOCK	325	n/a	n/a	0	0	0
1931069	WORD	wordpools/wasnorm_wordpool_576.txt	LTP207	ltpFR2	9	9	SHOULDER	1294	n/a	n/a	0	0	0
1933797	WORD	wordpools/wasnorm_wordpool_576.txt	LTP207	ltpFR2	9	9	MUFFIN	929	n/a	n/a	0	0	0
1936243	WORD	wordpools/wasnorm_wordpool_576.txt	LTP207	ltpFR2	9	9	PORK	1108	n/a	n/a	0	0	0
1938956	WORD	wordpools/wasnorm_wordpool_576.txt	LTP207	ltpFR2	9	9	ITEM	746	n/a	n/a	0	0	0
1941619	WORD	wordpools/wasnorm_wordpool_576.txt	LTP207	ltpFR2	9	9	MISSILE	900	n/a	n/a	0	0	0
1944215	WORD	wordpools/wasnorm_wordpool_576.txt	LTP207	ltpFR2	9	9	BREAST	171	n/a	n/a	0	0	0
1946844	WORD	wordpools/wasnorm_wordpool_576.txt	LTP207	ltpFR2	9	9	WAITER	1580	n/a	n/a	0	0	0
1949607	WORD	wordpools/wasnorm_wordpool_576.txt	LTP207	ltpFR2	9	9	SNACK	1331	n/a	n/a	0	0	0
1951221	START	n/a	LTP207	ltpFR2	9	n/a	n/a	n/a	13	n/a	n/a	n/a	n/a
1952406	DISTRACTOR	n/a	LTP207	ltpFR2	9	9	n/a	n/a	n/a	n/a	0	0	0
1952419	PROB	n/a	LTP207	ltpFR2	9	n/a	n/a	n/a	13	10	6	2	2
1953834	PROB	n/a	LTP207	ltpFR2	9	n/a	n/a	n/a	13	13	4	4	5
1955415	PROB	n/a	LTP207	ltpFR2	9	n/a	n/a	n/a	13	20	7	7	6
1956879	PROB	n/a	LTP207	ltpFR2	9	n/a	n/a	n/a	13	9	3	1	5
1960224	PROB	n/a	LTP207	ltpFR2	9	n/a	n/a	n/a	13	25	8	8	9
1961722	PROB	n/a	LTP207	ltpFR2	9	n/a	n/a	n/a	13	18	9	2	7
1963036	PROB	n/a	LTP207	ltpFR2	9	n/a	n/a	n/a	13	20	3	8	9
1964301	PROB	n/a	LTP207	ltpFR2	9	n/a	n/a	n/a	13	7	4	1	2
1965649	PROB	n/a	LTP207	ltpFR2	9	n/a	n/a	n/a	13	19	7	3	9
1966914	PROB	n/a	LTP207	ltpFR2	9	n/a	n/a	n/a	13	20	9	2	9
1968113	PROB	n/a	LTP207	ltpFR2	9	n/a	n/a	n/a	13	14	3	8	3
1969593	PROB	n/a	LTP207	ltpFR2	9	n/a	n/a	n/a	13	12	2	3	7
1970958	PROB	n/a	LTP207	ltpFR2	9	n/a	n/a	n/a	13	16	4	5	7
1972273	PROB	n/a	LTP207	ltpFR2	9	n/a	n/a	n/a	13	12	5	5	2
1973271	PROB	n/a	LTP207	ltpFR2	9	n/a	n/a	n/a	13	21	5	9	7
1975106	STOP	n/a	LTP207	ltpFR2	9	n/a	n/a	n/a	13	n/a	n/a	n/a	n/a
1976999	REC_START	n/a	LTP207	ltpFR2	9	9	n/a	n/a	n/a	n/a	0	0	0
1978337	REC_WORD	wordpools/wasnorm_wordpool_576.txt	LTP207	ltpFR2	9	9	KNAPSACK	783	n/a	n/a	0	0	0
1985309	REC_WORD	wordpools/wasnorm_wordpool_576.txt	LTP207	ltpFR2	9	9	GRILL	661	n/a	n/a	0	0	0
1987667	REC_WORD	wordpools/wasnorm_wordpool_576.txt	LTP207	ltpFR2	9	9	ELBOW	520	n/a	n/a	0	0	0
1990797	REC_WORD	wordpools/wasnorm_wordpool_576.txt	LTP207	ltpFR2	9	9	AWARD	63	n/a	n/a	0	0	0
1994191	REC_WORD	wordpools/wasnorm_wordpool_576.txt	LTP207	ltpFR2	9	9	PEACH	1031	n/a	n/a	0	0	0
2011493	REC_WORD	wordpools/wasnorm_wordpool_576.txt	LTP207	ltpFR2	9	9	SNACK	1331	n/a	n/a	0	0	0
2039498	REC_WORD	wordpools/wasnorm_wordpool_576.txt	LTP207	ltpFR2	9	9	MEDAL	885	n/a	n/a	0	0	0
2067664	DISTRACTOR	n/a	LTP207	ltpFR2	9	10	n/a	n/a	n/a	n/a	0	0	0
2067664	START	n/a	LTP207	ltpFR2	9	n/a	n/a	n/a	14	n/a	n/a	n/a	n/a
2067697	PROB	n/a	LTP207	ltpFR2	9	n/a	n/a	n/a	14	17	1	9	7
2069361	PROB	n/a	LTP207	ltpFR2	9	n/a	n/a	n/a	14	17	8	3	6
2071541	PROB	n/a	LTP207	ltpFR2	9	n/a	n/a	n/a	14	17	5	4	8
2073073	PROB	n/a	LTP207	ltpFR2	9	n/a	n/a	n/a	14	10	4	1	5
2074870	PROB	n/a	LTP207	ltpFR2	9	n/a	n/a	n/a	14	23	7	7	9
2076152	PROB	n/a	LTP207	ltpFR2	9	n/a	n/a	n/a	14	14	6	1	7
2077416	PROB	n/a	LTP207	ltpFR2	9	n/a	n/a	n/a	14	21	8	9	4
2079413	PROB	n/a	LTP207	ltpFR2	9	n/a	n/a	n/a	14	19	9	5	5
2080777	PROB	n/a	LTP207	ltpFR2	9	n/a	n/a	n/a	14	8	3	3	2
2082342	PROB	n/a	LTP207	ltpFR2	9	n/a	n/a	n/a	14	14	5	8	1
2083839	PROB	n/a	LTP207	ltpFR2	9	n/a	n/a	n/a	14	14	7	1	6
2085304	PROB	n/a	LTP207	ltpFR2	9	n/a	n/a	n/a	14	20	7	6	7
2088000	PROB	n/a	LTP207	ltpFR2	9	n/a	n/a	n/a	14	13	7	4	2
2089448	PROB	n/a	LTP207	ltpFR2	9	n/a	n/a	n/a	14	24	9	6	9
2091441	STOP	n/a	LTP207	ltpFR2	9	n/a	n/a	n/a	14	n/a	n/a	n/a	n/a
2092826	WORD	wordpools/wasnorm_wordpool_576.txt	LTP207	ltpFR2	9	10	MILK	895	n/a	n/a	0	0	0
2095289	WORD	wordpools/wasnorm_wordpool_576.txt	LTP207	ltpFR2	9	10	HUMAN	726	n/a	n/a	0	0	0
2097752	WORD	wordpools/wasnorm_wordpool_576.txt	LTP207	ltpFR2	9	10	CREATURE	403	n/a	n/a	0	0	0
2100183	WORD	wordpools/wasnorm_wordpool_576.txt	LTP207	ltpFR2	9	10	TRACTOR	1493	n/a	n/a	0	0	0
2102711	WORD	wordpools/wasnorm_wordpool_576.txt	LTP207	ltpFR2	9	10	SHORTS	1293	n/a	n/a	0	0	0
2105457	WORD	wordpools/wasnorm_wordpool_576.txt	LTP207	ltpFR2	9	10	CITRUS	313	n/a	n/a	0	0	0
2108220	WORD	wordpools/wasnorm_wordpool_576.txt	LTP207	ltpFR2	9	10	SOFTBALL	1343	n/a	n/a	0	0	0
2110999	WORD	wordpools/wasnorm_wordpool_576.txt	LTP207	ltpFR2	9	10	WORLD	1622	n/a	n/a	0	0	0
2113695	WORD	wordpools/wasnorm_wordpool_576.txt	LTP207	ltpFR2	9	10	STAR	1373	n/a	n/a	0	0	0
2116224	WORD	wordpools/wasnorm_wordpool_576.txt	LTP207	ltpFR2	9	10	SKETCH	1315	n/a	n/a	0	0	0
2119004	WORD	wordpools/wasnorm_wordpool_576.txt	LTP207	ltpFR2	9	10	PADDING	999	n/a	n/a	0	0	0
2121566	WORD	wordpools/wasnorm_wordpool_576.txt	LTP207	ltpFR2	9	10	MARINE	869	n/a	n/a	0	0	0
2124312	WORD	wordpools/wasnorm_wordpool_576.txt	LTP207	ltpFR2	9	10	RAFT	1159	n/a	n/a	0	0	0
2126759	WORD	wordpools/wasnorm_wordpool_576.txt	LTP207	ltpFR2	9	10	DIVER	476	n/a	n/a	0	0	0
2129421	WORD	wordpools/wasnorm_wordpool_576.txt	LTP207	ltpFR2	9	10	CORAL	378	n/a	n/a	0	0	0
2132102	WORD	wordpools/wasnorm_wordpool_576.txt	LTP207	ltpFR2	9	10	POISON	1096	n/a	n/a	0	0	0
2134547	WORD	wordpools/wasnorm_wordpool_576.txt	LTP207	ltpFR2	9	10	PLAID	1080	n/a	n/a	0	0	0
2137128	WORD	wordpools/wasnorm_wordpool_576.txt	LTP207	ltpFR2	9	10	BLACKBOARD	133	n/a	n/a	0	0	0
2139939	WORD	wordpools/wasnorm_wordpool_576.txt	LTP207	ltpFR2	9	10	ATLAS	53	n/a	n/a	0	0	0
2142618	WORD	wordpools/wasnorm_wordpool_576.txt	LTP207	ltpFR2	9	10	CANAL	226	n/a	n/a	0	0	0
2145398	WORD	wordpools/wasnorm_wordpool_576.txt	LTP207	ltpFR2	9	10	LIGHTNING	820	n/a	n/a	0	0	0
2148010	WORD	wordpools/wasnorm_wordpool_576.txt	LTP207	ltpFR2	9	10	SCULPTURE	1258	n/a	n/a	0	0	0
2150473	WORD	wordpools/wasnorm_wordpool_576.txt	LTP207	ltpFR2	9	10	GARBAGE	622	n/a	n/a	0	0	0
2153120	WORD	wordpools/wasnorm_wordpool_576.txt	LTP207	ltpFR2	9	10	OINTMENT	974	n/a	n/a	0	0	0
2154734	START	n/a	LTP207	ltpFR2	9	n/a	n/a	n/a	15	n/a	n/a	n/a	n/a
2155818	DISTRACTOR	n/a	LTP207	ltpFR2	9	10	n/a	n/a	n/a	n/a	0	0	0
2155832	PROB	n/a	LTP207	ltpFR2	9	n/a	n/a	n/a	15	13	8	4	1
2157829	PROB	n/a	LTP207	ltpFR2	9	n/a	n/a	n/a	15	12	4	1	7
2159909	PROB	n/a	LTP207	ltpFR2	9	n/a	n/a	n/a	15	20	4	9	7
2161873	PROB	n/a	LTP207	ltpFR2	9	n/a	n/a	n/a	15	15	8	3	4
2163139	PROB	n/a	LTP207	ltpFR2	9	n/a	n/a	n/a	15	13	3	4	6
2164619	PROB	n/a	LTP207	ltpFR2	9	n/a	n/a	n/a	15	20	9	9	1
2165684	PROB	n/a	LTP207	ltpFR2	9	n/a	n/a	n/a	15	16	6	3	7
2169212	PROB	n/a	LTP207	ltpFR2	9	n/a	n/a	n/a	15	11	4	1	6
2170244	PROB	n/a	LTP207	ltpFR2	9	n/a	n/a	n/a	15	16	7	3	6
2171375	PROB	n/a	LTP207	ltpFR2	9	n/a	n/a	n/a	15	14	1	4	9
2172524	PROB	n/a	LTP207	ltpFR2	9	n/a	n/a	n/a	15	14	1	7	6
2174488	PROB	n/a	LTP207	ltpFR2	9	n/a	n/a	n/a	15	13	2	7	4
2176203	PROB	n/a	LTP207	ltpFR2	9	n/a	n/a	n/a	15	14	6	5	3
2177593	STOP	n/a	LTP207	ltpFR2	9	n/a	n/a	n/a	15	n/a	n/a	n/a	n/a
2180596	REC_START	n/a	LTP207	ltpFR2	9	10	n/a	n/a	n/a	n/a	0	0	0
2182325	REC_WORD	wordpools/wasnorm_wordpool_576.txt	LTP207	ltpFR2	9	10	CANAL	226	n/a	n/a	0	0	0
2183695	REC_WORD	wordpools/wasnorm_wordpool_576.txt	LTP207	ltpFR2	9	10	LIGHTNING	820	n/a	n/a	0	0	0
2187098	REC_WORD	wordpools/wasnorm_wordpool_576.txt	LTP207	ltpFR2	9	10	OINTMENT	974	n/a	n/a	0	0	0
2188504	REC_WORD	wordpools/wasnorm_wordpool_576.txt	LTP207	ltpFR2	9	10	SCULPTURE	1258	n/a	n/a	0	0	0
2190592	REC_WORD	wordpools/wasnorm_wordpool_576.txt	LTP207	ltpFR2	9	10	GARBAGE	622	n/a	n/a	0	0	0
2228037	REC_WORD	wordpools/wasnorm_wordpool_576.txt	LTP207	ltpFR2	9	10	CREATURE	403	n/a	n/a	0	0	0
2271226	DISTRACTOR	n/a	LTP207	ltpFR2	9	11	n/a	n/a	n/a	n/a	0	0	0
2271227	START	n/a	LTP207	ltpFR2	9	n/a	n/a	n/a	16	n/a	n/a	n/a	n/a
2271260	PROB	n/a	LTP207	ltpFR2	9	n/a	n/a	n/a	16	17	4	6	7
2273473	PROB	n/a	LTP207	ltpFR2	9	n/a	n/a	n/a	16	16	3	8	5
2274921	PROB	n/a	LTP207	ltpFR2	9	n/a	n/a	n/a	16	19	9	9	1
2276170	PROB	n/a	LTP207	ltpFR2	9	n/a	n/a	n/a	16	13	2	6	5
2277966	PROB	n/a	LTP207	ltpFR2	9	n/a	n/a	n/a	16	16	4	9	3
2279664	PROB	n/a	LTP207	ltpFR2	9	n/a	n/a	n/a	16	18	3	7	8
2280962	PROB	n/a	LTP207	ltpFR2	9	n/a	n/a	n/a	16	15	8	5	2
2282293	PROB	n/a	LTP207	ltpFR2	9	n/a	n/a	n/a	16	18	3	9	6
2284007	PROB	n/a	LTP207	ltpFR2	9	n/a	n/a	n/a	16	12	1	3	8
2285190	PROB	n/a	LTP207	ltpFR2	9	n/a	n/a	n/a	16	9	2	4	3
2286604	PROB	n/a	LTP207	ltpFR2	9	n/a	n/a	n/a	16	11	4	1	6
2287685	PROB	n/a	LTP207	ltpFR2	9	n/a	n/a	n/a	16	14	5	1	8
2290331	PROB	n/a	LTP207	ltpFR2	9	n/a	n/a	n/a	16	14	3	6	5
2291979	PROB	n/a	LTP207	ltpFR2	9	n/a	n/a	n/a	16	16	2	8	6
2293178	PROB	n/a	LTP207	ltpFR2	9	n/a	n/a	n/a	16	13	3	2	8
2294729	STOP	n/a	LTP207	ltpFR2	9	n/a	n/a	n/a	16	n/a	n/a	n/a	n/a
2296107	WORD	wordpools/wasnorm_wordpool_576.txt	LTP207	ltpFR2	9	11	COCOON	339	n/a	n/a	0	0	0
2298835	WORD	wordpools/wasnorm_wordpool_576.txt	LTP207	ltpFR2	9	11	VIKING	1565	n/a	n/a	0	0	0
2301282	WORD	wordpools/wasnorm_wordpool_576.txt	LTP207	ltpFR2	9	11	LION	827	n/a	n/a	0	0	0
2303794	WORD	wordpools/wasnorm_wordpool_576.txt	LTP207	ltpFR2	9	11	BEAST	108	n/a	n/a	0	0	0
2306574	WORD	wordpools/wasnorm_wordpool_576.txt	LTP207	ltpFR2	9	11	VAGRANT	1544	n/a	n/a	0	0	0
2309320	WORD	wordpools/wasnorm_wordpool_576.txt	LTP207	ltpFR2	9	11	BALLOON	75	n/a	n/a	0	0	0
2311849	WORD	wordpools/wasnorm_wordpool_576.txt	LTP207	ltpFR2	9	11	FIDDLE	561	n/a	n/a	0	0	0
2314562	WORD	wordpools/wasnorm_wordpool_576.txt	LTP207	ltpFR2	9	11	AGENT	10	n/a	n/a	0	0	0
2316991	WORD	wordpools/wasnorm_wordpool_576.txt	LTP207	ltpFR2	9	11	DIME	466	n/a	n/a	0	0	0
2319604	WORD	wordpools/wasnorm_wordpool_576.txt	LTP207	ltpFR2	9	11	VALLEY	1545	n/a	n/a	0	0	0
2322135	WORD	wordpools/wasnorm_wordpool_576.txt	LTP207	ltpFR2	9	11	YACHT	1629	n/a	n/a	0	0	0
2324813	WORD	wordpools/wasnorm_wordpool_576.txt	LTP207	ltpFR2	9	11	BIKE	125	n/a	n/a	0	0	0
2327609	WORD	wordpools/wasnorm_wordpool_576.txt	LTP207	ltpFR2	9	11	EYELASH	546	n/a	n/a	0	0	0
2330073	WORD	wordpools/wasnorm_wordpool_576.txt	LTP207	ltpFR2	9	11	CONCERT	360	n/a	n/a	0	0	0
2332668	WORD	wordpools/wasnorm_wordpool_576.txt	LTP207	ltpFR2	9	11	FOREHEAD	592	n/a	n/a	0	0	0
2335297	WORD	wordpools/wasnorm_wordpool_576.txt	LTP207	ltpFR2	9	11	PAPER	1011	n/a	n/a	0	0	0
2337943	WORD	wordpools/wasnorm_wordpool_576.txt	LTP207	ltpFR2	9	11	HEART	697	n/a	n/a	0	0	0
2340406	WORD	wordpools/wasnorm_wordpool_576.txt	LTP207	ltpFR2	9	11	MAPLE	866	n/a	n/a	0	0	0
2343137	WORD	wordpools/wasnorm_wordpool_576.txt	LTP207	ltpFR2	9	11	LUNCH	849	n/a	n/a	0	0	0
2345915	WORD	wordpools/wasnorm_wordpool_576.txt	LTP207	ltpFR2	9	11	SHERIFF	1284	n/a	n/a	0	0	0
2348395	WORD	wordpools/wasnorm_wordpool_576.txt	LTP207	ltpFR2	9	11	PORTRAIT	1111	n/a	n/a	0	0	0
2350991	WORD	wordpools/wasnorm_wordpool_576.txt	LTP207	ltpFR2	9	11	DRAWING	494	n/a	n/a	0	0	0
2353803	WORD	wordpools/wasnorm_wordpool_576.txt	LTP207	ltpFR2	9	11	PERCH	1048	n/a	n/a	0	0	0
2356449	WORD	wordpools/wasnorm_wordpool_576.txt	LTP207	ltpFR2	9	11	SLUG	1329	n/a	n/a	0	0	0
2358064	START	n/a	LTP207	ltpFR2	9	n/a	n/a	n/a	17	n/a	n/a	n/a	n/a
2359023	DISTRACTOR	n/a	LTP207	ltpFR2	9	11	n/a	n/a	n/a	n/a	0	0	0
2359029	PROB	n/a	LTP207	ltpFR2	9	n/a	n/a	n/a	17	18	9	1	8
2360560	PROB	n/a	LTP207	ltpFR2	9	n/a	n/a	n/a	17	19	6	6	7
2362208	PROB	n/a	LTP207	ltpFR2	9	n/a	n/a	n/a	17	20	9	8	3
2363855	PROB	n/a	LTP207	ltpFR2	9	n/a	n/a	n/a	17	9	5	3	1
2365303	PROB	n/a	LTP207	ltpFR2	9	n/a	n/a	n/a	17	13	7	2	4
2366784	PROB	n/a	LTP207	ltpFR2	9	n/a	n/a	n/a	17	18	6	9	3
2368631	PROB	n/a	LTP207	ltpFR2	9	n/a	n/a	n/a	17	15	3	7	5
2369779	PROB	n/a	LTP207	ltpFR2	9	n/a	n/a	n/a	17	16	8	5	3
2371044	PROB	n/a	LTP207	ltpFR2	9	n/a	n/a	n/a	17	13	7	4	2
2372592	PROB	n/a	LTP207	ltpFR2	9	n/a	n/a	n/a	17	20	7	9	4
2374040	PROB	n/a	LTP207	ltpFR2	9	n/a	n/a	n/a	17	17	9	4	4
2375554	PROB	n/a	LTP207	ltpFR2	9	n/a	n/a	n/a	17	19	7	5	7
2378550	PROB	n/a	LTP207	ltpFR2	9	n/a	n/a	n/a	17	12	8	2	2
2379781	PROB	n/a	LTP207	ltpFR2	9	n/a	n/a	n/a	17	13	8	5	1
2380713	STOP	n/a	LTP207	ltpFR2	9	n/a	n/a	n/a	17	n/a	n/a	n/a	n/a
2383909	REC_START	n/a	LTP207	ltpFR2	9	11	n/a	n/a	n/a	n/a	0	0	0
2400878	REC_WORD	wordpools/wasnorm_wordpool_576.txt	LTP207	ltpFR2	9	11	BEAST	108	n/a	n/a	0	0	0
2420049	REC_WORD	wordpools/wasnorm_wordpool_576.txt	LTP207	ltpFR2	9	11	PERCH	1048	n/a	n/a	0	0	0
2421579	REC_WORD	wordpools/wasnorm_wordpool_576.txt	LTP207	ltpFR2	9	11	SLUG	1329	n/a	n/a	0	0	0
2474589	WORD	wordpools/wasnorm_wordpool_576.txt	LTP207	ltpFR2	9	12	PANTHER	1009	n/a	n/a	0	0	0
2477137	WORD	wordpools/wasnorm_wordpool_576.txt	LTP207	ltpFR2	9	12	WHISKERS	1605	n/a	n/a	0	0	0
2479832	WORD	wordpools/wasnorm_wordpool_576.txt	LTP207	ltpFR2	9	12	DAISY	435	n/a	n/a	0	0	0
2482644	WORD	wordpools/wasnorm_wordpool_576.txt	LTP207	ltpFR2	9	12	TOMBSTONE	1478	n/a	n/a	0	0	0
2485357	WORD	wordpools/wasnorm_wordpool_576.txt	LTP207	ltpFR2	9	12	WRIST	1626	n/a	n/a	0	0	0
2487820	WORD	wordpools/wasnorm_wordpool_576.txt	LTP207	ltpFR2	9	12	COUCH	386	n/a	n/a	0	0	0
2490383	WORD	wordpools/wasnorm_wordpool_576.txt	LTP207	ltpFR2	9	12	CURTAIN	427	n/a	n/a	0	0	0
2492879	WORD	wordpools/wasnorm_wordpool_576.txt	LTP207	ltpFR2	9	12	FRAGRANCE	599	n/a	n/a	0	0	0
2495342	WORD	wordpools/wasnorm_wordpool_576.txt	LTP207	ltpFR2	9	12	XEROX	1628	n/a	n/a	0	0	0
2498072	WORD	wordpools/wasnorm_wordpool_576.txt	LTP207	ltpFR2	9	12	ORCHID	982	n/a	n/a	0	0	0
2500850	WORD	wordpools/wasnorm_wordpool_576.txt	LTP207	ltpFR2	9	12	HOOK	715	n/a	n/a	0	0	0
2503496	WORD	wordpools/wasnorm_wordpool_576.txt	LTP207	ltpFR2	9	12	SUBWAY	1400	n/a	n/a	0	0	0
2506143	WORD	wordpools/wasnorm_wordpool_576.txt	LTP207	ltpFR2	9	12	PASTRY	1022	n/a	n/a	0	0	0
2508822	WORD	wordpools/wasnorm_wordpool_576.txt	LTP207	ltpFR2	9	12	MILDEW	893	n/a	n/a	0	0	0
2511401	WORD	wordpools/wasnorm_wordpool_576.txt	LTP207	ltpFR2	9	12	TOURIST	1488	n/a	n/a	0	0	0
2514115	WORD	wordpools/wasnorm_wordpool_576.txt	LTP207	ltpFR2	9	12	RECEIPT	1173	n/a	n/a	0	0	0
2516643	WORD	wordpools/wasnorm_wordpool_576.txt	LTP207	ltpFR2	9	12	KETCHUP	771	n/a	n/a	0	0	0
2519306	WORD	wordpools/wasnorm_wordpool_576.txt	LTP207	ltpFR2	9	12	KNIFE	785	n/a	n/a	0	0	0
2521919	WORD	wordpools/wasnorm_wordpool_576.txt	LTP207	ltpFR2	9	12	GLOBE	641	n/a	n/a	0	0	0
2524498	WORD	wordpools/wasnorm_wordpool_576.txt	LTP207	ltpFR2	9	12	SUNSET	1408	n/a	n/a	0	0	0
2527061	WORD	wordpools/wasnorm_wordpool_576.txt	LTP207	ltpFR2	9	12	BANQUET	86	n/a	n/a	0	0	0
2529507	WORD	wordpools/wasnorm_wordpool_576.txt	LTP207	ltpFR2	9	12	WIDOW	1608	n/a	n/a	0	0	0
2532303	WORD	wordpools/wasnorm_wordpool_576.txt	LTP207	ltpFR2	9	12	FLEET	578	n/a	n/a	0	0	0
2534899	WORD	wordpools/wasnorm_wordpool_576.txt	LTP207	ltpFR2	9	12	ARMY	39	n/a	n/a	0	0	0
2536514	START	n/a	LTP207	ltpFR2	9	n/a	n/a	n/a	18	n/a	n/a	n/a	n/a
2537361	DISTRACTOR	n/a	LTP207	ltpFR2	9	12	n/a	n/a	n/a	n/a	0	0	0
2537362	PROB	n/a	LTP207	ltpFR2	9	n/a	n/a	n/a	18	17	8	2	7
2540209	PROB	n/a	LTP207	ltpFR2	9	n/a	n/a	n/a	18	11	1	5	5
2541307	PROB	n/a	LTP207	ltpFR2	9	n/a	n/a	n/a	18	15	5	5	5
2542372	PROB	n/a	LTP207	ltpFR2	9	n/a	n/a	n/a	18	14	2	7	5
2543869	PROB	n/a	LTP207	ltpFR2	9	n/a	n/a	n/a	18	17	4	6	7
2545334	PROB	n/a	LTP207	ltpFR2	9	n/a	n/a	n/a	18	10	1	2	7
2546782	PROB	n/a	LTP207	ltpFR2	9	n/a	n/a	n/a	18	11	5	3	3
2548114	PROB	n/a	LTP207	ltpFR2	9	n/a	n/a	n/a	18	15	5	5	5
2549146	PROB	n/a	LTP207	ltpFR2	9	n/a	n/a	n/a	18	17	7	7	3
2550759	PROB	n/a	LTP207	ltpFR2	9	n/a	n/a	n/a	18	17	6	3	8
2553255	PROB	n/a	LTP207	ltpFR2	9	n/a	n/a	n/a	18	11	2	7	2
2554736	PROB	n/a	LTP207	ltpFR2	9	n/a	n/a	n/a	18	17	4	4	9
2556202	PROB	n/a	LTP207	ltpFR2	9	n/a	n/a	n/a	18	22	4	9	9
2557932	PROB	n/a	LTP207	ltpFR2	9	n/a	n/a	n/a	18	12	3	1	8
2559481	STOP	n/a	LTP207	ltpFR2	9	n/a	n/a	n/a	18	n/a	n/a	n/a	n/a
2562292	REC_START	n/a	LTP207	ltpFR2	9	12	n/a	n/a	n/a	n/a	0	0	0
2563080	REC_WORD	wordpools/wasnorm_wordpool_576.txt	LTP207	ltpFR2	9	12	FLEET	578	n/a	n/a	0	0	0
2563965	REC_WORD	wordpools/wasnorm_wordpool_576.txt	LTP207	ltpFR2	9	12	ARMY	39	n/a	n/a	0	0	0
2565283	REC_WORD	wordpools/wasnorm_wordpool_576.txt	LTP207	ltpFR2	9	12	WIDOW	1608	n/a	n/a	0	0	0
2567430	REC_WORD	wordpools/wasnorm_wordpool_576.txt	LTP207	ltpFR2	9	12	BANQUET	86	n/a	n/a	0	0	0
2568657	REC_WORD	wordpools/wasnorm_wordpool_576.txt	LTP207	ltpFR2	9	12	SUNSET	1408	n/a	n/a	0	0	0
2570960	REC_WORD	wordpools/wasnorm_wordpool_576.txt	LTP207	ltpFR2	9	12	TOMBSTONE	1478	n/a	n/a	0	0	0
2572679	REC_WORD	wordpools/wasnorm_wordpool_576.txt	LTP207	ltpFR2	9	12	DAISY	435	n/a	n/a	0	0	0
2577886	REC_WORD	wordpools/wasnorm_wordpool_576.txt	LTP207	ltpFR2	9	12	WRIST	1626	n/a	n/a	0	0	0
2602937	REC_WORD	wordpools/wasnorm_wordpool_576.txt	LTP207	ltpFR2	9	12	SHERIFF	1284	n/a	n/a	0	0	0
2653023	DISTRACTOR	n/a	LTP207	ltpFR2	9	13	n/a	n/a	n/a	n/a	0	0	0
2653023	START	n/a	LTP207	ltpFR2	9	n/a	n/a	n/a	19	n/a	n/a	n/a	n/a
2653056	PROB	n/a	LTP207	ltpFR2	9	n/a	n/a	n/a	19	15	8	2	5
2654305	PROB	n/a	LTP207	ltpFR2	9	n/a	n/a	n/a	19	11	3	1	7
2655902	PROB	n/a	LTP207	ltpFR2	9	n/a	n/a	n/a	19	16	5	7	4
2658781	PROB	n/a	LTP207	ltpFR2	9	n/a	n/a	n/a	19	26	9	9	8
2661910	PROB	n/a	LTP207	ltpFR2	9	n/a	n/a	n/a	19	21	6	9	6
2663176	PROB	n/a	LTP207	ltpFR2	9	n/a	n/a	n/a	19	13	3	8	2
2664822	PROB	n/a	LTP207	ltpFR2	9	n/a	n/a	n/a	19	10	7	1	2
2666453	PROB	n/a	LTP207	ltpFR2	9	n/a	n/a	n/a	19	14	3	2	9
2668001	PROB	n/a	LTP207	ltpFR2	9	n/a	n/a	n/a	19	12	5	5	2
2668999	PROB	n/a	LTP207	ltpFR2	9	n/a	n/a	n/a	19	18	8	4	6
2671229	PROB	n/a	LTP207	ltpFR2	9	n/a	n/a	n/a	19	10	1	5	4
2673161	PROB	n/a	LTP207	ltpFR2	9	n/a	n/a	n/a	19	6	1	1	4
2674325	PROB	n/a	LTP207	ltpFR2	9	n/a	n/a	n/a	19	16	5	4	7
2676553	STOP	n/a	LTP207	ltpFR2	9	n/a	n/a	n/a	19	n/a	n/a	n/a	n/a
2678103	WORD	wordpools/wasnorm_wordpool_576.txt	LTP207	ltpFR2	9	13	DENTIST	447	n/a	n/a	0	0	0
2680732	WORD	wordpools/wasnorm_wordpool_576.txt	LTP207	ltpFR2	9	13	APPLE	33	n/a	n/a	0	0	0
2683361	WORD	wordpools/wasnorm_wordpool_576.txt	LTP207	ltpFR2	9	13	ULCER	1533	n/a	n/a	0	0	0
2686125	WORD	wordpools/wasnorm_wordpool_576.txt	LTP207	ltpFR2	9	13	PUPPY	1144	n/a	n/a	0	0	0
2688770	WORD	wordpools/wasnorm_wordpool_576.txt	LTP207	ltpFR2	9	13	CUPBOARD	425	n/a	n/a	0	0	0
2691532	WORD	wordpools/wasnorm_wordpool_576.txt	LTP207	ltpFR2	9	13	BABY	64	n/a	n/a	0	0	0
2694113	WORD	wordpools/wasnorm_wordpool_576.txt	LTP207	ltpFR2	9	13	CHILD	299	n/a	n/a	0	0	0
2696758	WORD	wordpools/wasnorm_wordpool_576.txt	LTP207	ltpFR2	9	13	VICTIM	1562	n/a	n/a	0	0	0
2699554	WORD	wordpools/wasnorm_wordpool_576.txt	LTP207	ltpFR2	9	13	DOUGHNUT	490	n/a	n/a	0	0	0
2702216	WORD	wordpools/wasnorm_wordpool_576.txt	LTP207	ltpFR2	9	13	PARROT	1015	n/a	n/a	0	0	0
2704713	WORD	wordpools/wasnorm_wordpool_576.txt	LTP207	ltpFR2	9	13	FOREST	593	n/a	n/a	0	0	0
2707193	WORD	wordpools/wasnorm_wordpool_576.txt	LTP207	ltpFR2	9	13	STOMACH	1384	n/a	n/a	0	0	0
2709872	WORD	wordpools/wasnorm_wordpool_576.txt	LTP207	ltpFR2	9	13	DRESSER	496	n/a	n/a	0	0	0
2712584	WORD	wordpools/wasnorm_wordpool_576.txt	LTP207	ltpFR2	9	13	WARDROBE	1587	n/a	n/a	0	0	0
2715330	WORD	wordpools/wasnorm_wordpool_576.txt	LTP207	ltpFR2	9	13	JUDGE	761	n/a	n/a	0	0	0
2717876	WORD	wordpools/wasnorm_wordpool_576.txt	LTP207	ltpFR2	9	13	MAILBOX	857	n/a	n/a	0	0	0
2720439	WORD	wordpools/wasnorm_wordpool_576.txt	LTP207	ltpFR2	9	13	MOTOR	922	n/a	n/a	0	0	0
2723235	WORD	wordpools/wasnorm_wordpool_576.txt	LTP207	ltpFR2	9	13	HOUND	724	n/a	n/a	0	0	0
2726014	WORD	wordpools/wasnorm_wordpool_576.txt	LTP207	ltpFR2	9	13	UNCLE	1536	n/a	n/a	0	0	0
2728444	WORD	wordpools/wasnorm_wordpool_576.txt	LTP207	ltpFR2	9	13	SKIRT	1319	n/a	n/a	0	0	0
2731023	WORD	wordpools/wasnorm_wordpool_576.txt	LTP207	ltpFR2	9	13	ANKLE	24	n/a	n/a	0	0	0
2733819	WORD	wordpools/wasnorm_wordpool_576.txt	LTP207	ltpFR2	9	13	SURVEY	1414	n/a	n/a	0	0	0
2736482	WORD	wordpools/wasnorm_wordpool_576.txt	LTP207	ltpFR2	9	13	DRIVER	499	n/a	n/a	0	0	0
2739061	WORD	wordpools/wasnorm_wordpool_576.txt	LTP207	ltpFR2	9	13	STICKER	1382	n/a	n/a	0	0	0
2740676	START	n/a	LTP207	ltpFR2	9	n/a	n/a	n/a	20	n/a	n/a	n/a	n/a
2741665	DISTRACTOR	n/a	LTP207	ltpFR2	9	13	n/a	n/a	n/a	n/a	0	0	0
2741674	PROB	n/a	LTP207	ltpFR2	9	n/a	n/a	n/a	20	20	9	5	6
2743005	PROB	n/a	LTP207	ltpFR2	9	n/a	n/a	n/a	20	19	6	4	9
2744370	PROB	n/a	LTP207	ltpFR2	9	n/a	n/a	n/a	20	17	4	8	5
2746767	PROB	n/a	LTP207	ltpFR2	9	n/a	n/a	n/a	20	9	6	1	2
2748015	PROB	n/a	LTP207	ltpFR2	9	n/a	n/a	n/a	20	21	6	6	9
2749246	PROB	n/a	LTP207	ltpFR2	9	n/a	n/a	n/a	20	13	9	1	4
2750378	PROB	n/a	LTP207	ltpFR2	9	n/a	n/a	n/a	20	16	9	4	3
2751942	PROB	n/a	LTP207	ltpFR2	9	n/a	n/a	n/a	20	11	1	5	5
2753007	PROB	n/a	LTP207	ltpFR2	9	n/a	n/a	n/a	20	21	9	7	5
2754638	PROB	n/a	LTP207	ltpFR2	9	n/a	n/a	n/a	20	10	3	1	6
2756003	PROB	n/a	LTP207	ltpFR2	9	n/a	n/a	n/a	20	12	1	8	3
2757800	PROB	n/a	LTP207	ltpFR2	9	n/a	n/a	n/a	20	25	8	9	8
2759264	PROB	n/a	LTP207	ltpFR2	9	n/a	n/a	n/a	20	19	8	5	7
2760779	PROB	n/a	LTP207	ltpFR2	9	n/a	n/a	n/a	20	13	4	2	7
2762859	PROB	n/a	LTP207	ltpFR2	9	n/a	n/a	n/a	20	16	3	5	8
2764617	STOP	n/a	LTP207	ltpFR2	9	n/a	n/a	n/a	20	n/a	n/a	n/a	n/a
2766471	REC_START	n/a	LTP207	ltpFR2	9	13	n/a	n/a	n/a	n/a	0	0	0
2768026	REC_WORD	wordpools/wasnorm_wordpool_576.txt	LTP207	ltpFR2	9	13	DOUGHNUT	490	n/a	n/a	0	0	0
2770740	REC_WORD	wordpools/wasnorm_wordpool_576.txt	LTP207	ltpFR2	9	13	CHILD	299	n/a	n/a	0	0	0
2772117	REC_WORD	wordpools/wasnorm_wordpool_576.txt	LTP207	ltpFR2	9	13	BABY	64	n/a	n/a	0	0	0
2773646	REC_WORD	wordpools/wasnorm_wordpool_576.txt	LTP207	ltpFR2	9	13	VICTIM	1562	n/a	n/a	0	0	0
2857119	WORD	wordpools/wasnorm_wordpool_576.txt	LTP207	ltpFR2	9	14	STAMP	1370	n/a	n/a	0	0	0
2859931	WORD	wordpools/wasnorm_wordpool_576.txt	LTP207	ltpFR2	9	14	TROUT	1511	n/a	n/a	0	0	0
2862544	WORD	wordpools/wasnorm_wordpool_576.txt	LTP207	ltpFR2	9	14	TEMPLE	1448	n/a	n/a	0	0	0
2865174	WORD	wordpools/wasnorm_wordpool_576.txt	LTP207	ltpFR2	9	14	GLASS	639	n/a	n/a	0	0	0
2867669	WORD	wordpools/wasnorm_wordpool_576.txt	LTP207	ltpFR2	9	14	MAILMAN	858	n/a	n/a	0	0	0
2870482	WORD	wordpools/wasnorm_wordpool_576.txt	LTP207	ltpFR2	9	14	LADDER	793	n/a	n/a	0	0	0
2873079	WORD	wordpools/wasnorm_wordpool_576.txt	LTP207	ltpFR2	9	14	ICING	732	n/a	n/a	0	0	0
2875641	WORD	wordpools/wasnorm_wordpool_576.txt	LTP207	ltpFR2	9	14	BISON	131	n/a	n/a	0	0	0
2878155	WORD	wordpools/wasnorm_wordpool_576.txt	LTP207	ltpFR2	9	14	DASHBOARD	441	n/a	n/a	0	0	0
2880750	WORD	wordpools/wasnorm_wordpool_576.txt	LTP207	ltpFR2	9	14	WAGON	1578	n/a	n/a	0	0	0
2883313	WORD	wordpools/wasnorm_wordpool_576.txt	LTP207	ltpFR2	9	14	LILY	821	n/a	n/a	0	0	0
2886025	WORD	wordpools/wasnorm_wordpool_576.txt	LTP207	ltpFR2	9	14	BOX	159	n/a	n/a	0	0	0
2888588	WORD	wordpools/wasnorm_wordpool_576.txt	LTP207	ltpFR2	9	14	STAPLE	1371	n/a	n/a	0	0	0
2891119	WORD	wordpools/wasnorm_wordpool_576.txt	LTP207	ltpFR2	9	14	GRAVE	658	n/a	n/a	0	0	0
2893947	WORD	wordpools/wasnorm_wordpool_576.txt	LTP207	ltpFR2	9	14	FLOWER	584	n/a	n/a	0	0	0
2896493	WORD	wordpools/wasnorm_wordpool_576.txt	LTP207	ltpFR2	9	14	MUMMY	932	n/a	n/a	0	0	0
2899207	WORD	wordpools/wasnorm_wordpool_576.txt	LTP207	ltpFR2	9	14	FOOT	590	n/a	n/a	0	0	0
2901968	WORD	wordpools/wasnorm_wordpool_576.txt	LTP207	ltpFR2	9	14	ROBIN	1199	n/a	n/a	0	0	0
2904631	WORD	wordpools/wasnorm_wordpool_576.txt	LTP207	ltpFR2	9	14	SPARROW	1347	n/a	n/a	0	0	0
2907443	WORD	wordpools/wasnorm_wordpool_576.txt	LTP207	ltpFR2	9	14	OFFICE	972	n/a	n/a	0	0	0
2910090	WORD	wordpools/wasnorm_wordpool_576.txt	LTP207	ltpFR2	9	14	PUPIL	1143	n/a	n/a	0	0	0
2912819	WORD	wordpools/wasnorm_wordpool_576.txt	LTP207	ltpFR2	9	14	FILM	565	n/a	n/a	0	0	0
2915614	WORD	wordpools/wasnorm_wordpool_576.txt	LTP207	ltpFR2	9	14	MISTER	901	n/a	n/a	0	0	0
2918095	WORD	wordpools/wasnorm_wordpool_576.txt	LTP207	ltpFR2	9	14	AUTHOR	61	n/a	n/a	0	0	0
2919709	START	n/a	LTP207	ltpFR2	9	n/a	n/a	n/a	21	n/a	n/a	n/a	n/a
2920598	DISTRACTOR	n/a	LTP207	ltpFR2	9	14	n/a	n/a	n/a	n/a	0	0	0
2920607	PROB	n/a	LTP207	ltpFR2	9	n/a	n/a	n/a	21	12	8	1	6
2922038	PROB	n/a	LTP207	ltpFR2	9	n/a	n/a	n/a	21	24	9	7	8
2925233	PROB	n/a	LTP207	ltpFR2	9	n/a	n/a	n/a	21	15	2	4	9
2926415	PROB	n/a	LTP207	ltpFR2	9	n/a	n/a	n/a	21	7	1	5	1
2927613	PROB	n/a	LTP207	ltpFR2	9	n/a	n/a	n/a	21	13	5	1	7
2930243	PROB	n/a	LTP207	ltpFR2	9	n/a	n/a	n/a	21	10	1	8	1
2931524	PROB	n/a	LTP207	ltpFR2	9	n/a	n/a	n/a	21	19	9	1	9
2932905	PROB	n/a	LTP207	ltpFR2	9	n/a	n/a	n/a	21	17	1	8	8
2934188	PROB	n/a	LTP207	ltpFR2	9	n/a	n/a	n/a	21	8	3	1	4
2935335	PROB	n/a	LTP207	ltpFR2	9	n/a	n/a	n/a	21	19	5	5	9
2936500	PROB	n/a	LTP207	ltpFR2	9	n/a	n/a	n/a	21	8	3	4	1
2937565	PROB	n/a	LTP207	ltpFR2	9	n/a	n/a	n/a	21	11	7	2	2
2938963	PROB	n/a	LTP207	ltpFR2	9	n/a	n/a	n/a	21	9	3	3	3
2941393	PROB	n/a	LTP207	ltpFR2	9	n/a	n/a	n/a	21	18	8	5	5
2942489	STOP	n/a	LTP207	ltpFR2	9	n/a	n/a	n/a	21	n/a	n/a	n/a	n/a
2945570	REC_START	n/a	LTP207	ltpFR2	9	14	n/a	n/a	n/a	n/a	0	0	0
2946736	REC_WORD	wordpools/wasnorm_wordpool_576.txt	LTP207	ltpFR2	9	14	MISTER	901	n/a	n/a	0	0	0
2954212	REC_WORD	wordpools/wasnorm_wordpool_576.txt	LTP207	ltpFR2	9	14	FILM	565	n/a	n/a	0	0	0
2956023	REC_WORD	wordpools/wasnorm_wordpool_576.txt	LTP207	ltpFR2	9	14	PUPIL	1143	n/a	n/a	0	0	0
2965132	REC_WORD	wordpools/wasnorm_wordpool_576.txt	LTP207	ltpFR2	9	14	ROBIN	1199	n/a	n/a	0	0	0
2967255	REC_WORD	wordpools/wasnorm_wordpool_576.txt	LTP207	ltpFR2	9	14	SPARROW	1347	n/a	n/a	0	0	0
3036268	WORD	wordpools/wasnorm_wordpool_576.txt	LTP207	ltpFR2	9	15	BACKBONE	66	n/a	n/a	0	0	0
3039014	WORD	wordpools/wasnorm_wordpool_576.txt	LTP207	ltpFR2	9	15	BATHTUB	100	n/a	n/a	0	0	0
3041793	WORD	wordpools/wasnorm_wordpool_576.txt	LTP207	ltpFR2	9	15	TABLE	1426	n/a	n/a	0	0	0
3044572	WORD	wordpools/wasnorm_wordpool_576.txt	LTP207	ltpFR2	9	15	TERMITE	1451	n/a	n/a	0	0	0
3047384	WORD	wordpools/wasnorm_wordpool_576.txt	LTP207	ltpFR2	9	15	BUG	187	n/a	n/a	0	0	0
3050014	WORD	wordpools/wasnorm_wordpool_576.txt	LTP207	ltpFR2	9	15	PISTOL	1075	n/a	n/a	0	0	0
3052444	WORD	wordpools/wasnorm_wordpool_576.txt	LTP207	ltpFR2	9	15	DONKEY	484	n/a	n/a	0	0	0
3054906	WORD	wordpools/wasnorm_wordpool_576.txt	LTP207	ltpFR2	9	15	CASKET	255	n/a	n/a	0	0	0
3057436	WORD	wordpools/wasnorm_wordpool_576.txt	LTP207	ltpFR2	9	15	COUSIN	392	n/a	n/a	0	0	0
3060066	WORD	wordpools/wasnorm_wordpool_576.txt	LTP207	ltpFR2	9	15	SISTER	1312	n/a	n/a	0	0	0
3062845	WORD	wordpools/wasnorm_wordpool_576.txt	LTP207	ltpFR2	9	15	OUTDOORS	987	n/a	n/a	0	0	0
3065308	WORD	wordpools/wasnorm_wordpool_576.txt	LTP207	ltpFR2	9	15	BARREL	91	n/a	n/a	0	0	0
3068105	WORD	wordpools/wasnorm_wordpool_576.txt	LTP207	ltpFR2	9	15	BUCKET	184	n/a	n/a	0	0	0
3070783	WORD	wordpools/wasnorm_wordpool_576.txt	LTP207	ltpFR2	9	15	HORSE	719	n/a	n/a	0	0	0
3073296	WORD	wordpools/wasnorm_wordpool_576.txt	LTP207	ltpFR2	9	15	LAMP	798	n/a	n/a	0	0	0
3076025	WORD	wordpools/wasnorm_wordpool_576.txt	LTP207	ltpFR2	9	15	PREACHER	1119	n/a	n/a	0	0	0
3078671	WORD	wordpools/wasnorm_wordpool_576.txt	LTP207	ltpFR2	9	15	LAGOON	795	n/a	n/a	0	0	0
3081467	WORD	wordpools/wasnorm_wordpool_576.txt	LTP207	ltpFR2	9	15	BUGGY	188	n/a	n/a	0	0	0
3084147	WORD	wordpools/wasnorm_wordpool_576.txt	LTP207	ltpFR2	9	15	ZEBRA	1635	n/a	n/a	0	0	0
3086676	WORD	wordpools/wasnorm_wordpool_576.txt	LTP207	ltpFR2	9	15	REPORT	1184	n/a	n/a	0	0	0
3089123	WORD	wordpools/wasnorm_wordpool_576.txt	LTP207	ltpFR2	9	15	SCARF	1246	n/a	n/a	0	0	0
3091935	WORD	wordpools/wasnorm_wordpool_576.txt	LTP207	ltpFR2	9	15	CHAPEL	280	n/a	n/a	0	0	0
3094680	WORD	wordpools/wasnorm_wordpool_576.txt	LTP207	ltpFR2	9	15	CHEST	295	n/a	n/a	0	0	0
3097293	WORD	wordpools/wasnorm_wordpool_576.txt	LTP207	ltpFR2	9	15	PAIL	1002	n/a	n/a	0	0	0
3098908	START	n/a	LTP207	ltpFR2	9	n/a	n/a	n/a	22	n/a	n/a	n/a	n/a
3100050	DISTRACTOR	n/a	LTP207	ltpFR2	9	15	n/a	n/a	n/a	n/a	0	0	0
3100056	PROB	n/a	LTP207	ltpFR2	9	n/a	n/a	n/a	22	19	8	9	2
3101886	PROB	n/a	LTP207	ltpFR2	9	n/a	n/a	n/a	22	15	4	8	3
3103301	PROB	n/a	LTP207	ltpFR2	9	n/a	n/a	n/a	22	19	9	7	3
3104516	PROB	n/a	LTP207	ltpFR2	9	n/a	n/a	n/a	22	13	6	1	6
3105581	PROB	n/a	LTP207	ltpFR2	9	n/a	n/a	n/a	22	13	3	9	1
3106779	PROB	n/a	LTP207	ltpFR2	9	n/a	n/a	n/a	22	15	3	3	9
3107877	PROB	n/a	LTP207	ltpFR2	9	n/a	n/a	n/a	22	10	1	7	2
3109059	PROB	n/a	LTP207	ltpFR2	9	n/a	n/a	n/a	22	14	5	1	8
3110840	PROB	n/a	LTP207	ltpFR2	9	n/a	n/a	n/a	22	17	6	7	4
3112554	PROB	n/a	LTP207	ltpFR2	9	n/a	n/a	n/a	22	15	6	8	1
3114169	PROB	n/a	LTP207	ltpFR2	9	n/a	n/a	n/a	22	12	7	4	1
3117280	PROB	n/a	LTP207	ltpFR2	9	n/a	n/a	n/a	22	8	3	1	5
3118345	PROB	n/a	LTP207	ltpFR2	9	n/a	n/a	n/a	22	22	7	8	7
3120775	PROB	n/a	LTP207	ltpFR2	9	n/a	n/a	n/a	22	9	1	6	2
3122017	STOP	n/a	LTP207	ltpFR2	9	n/a	n/a	n/a	22	n/a	n/a	n/a	n/a
3124839	REC_START	n/a	LTP207	ltpFR2	9	15	n/a	n/a	n/a	n/a	0	0	0
3126304	REC_WORD	wordpools/wasnorm_wordpool_576.txt	LTP207	ltpFR2	9	15	BACKBONE	66	n/a	n/a	0	0	0
3128004	REC_WORD	wordpools/wasnorm_wordpool_576.txt	LTP207	ltpFR2	9	15	BATHTUB	100	n/a	n/a	0	0	0
3133808	REC_WORD	wordpools/wasnorm_wordpool_576.txt	LTP207	ltpFR2	9	15	TABLE	1426	n/a	n/a	0	0	0
3136460	REC_WORD	wordpools/wasnorm_wordpool_576.txt	LTP207	ltpFR2	9	15	TERMITE	1451	n/a	n/a	0	0	0
3138065	REC_WORD	wordpools/wasnorm_wordpool_576.txt	LTP207	ltpFR2	9	15	BUG	187	n/a	n/a	0	0	0
3215483	WORD	wordpools/wasnorm_wordpool_576.txt	LTP207	ltpFR2	9	16	SUNRISE	1407	n/a	n/a	0	0	0
3218013	WORD	wordpools/wasnorm_wordpool_576.txt	LTP207	ltpFR2	9	16	BRANCH	168	n/a	n/a	0	0	0
3220592	WORD	wordpools/wasnorm_wordpool_576.txt	LTP207	ltpFR2	9	16	LUMBER	848	n/a	n/a	0	0	0
3223372	WORD	wordpools/wasnorm_wordpool_576.txt	LTP207	ltpFR2	9	16	CHURCH	307	n/a	n/a	0	0	0
3226168	WORD	wordpools/wasnorm_wordpool_576.txt	LTP207	ltpFR2	9	16	RADISH	1158	n/a	n/a	0	0	0
3228897	WORD	wordpools/wasnorm_wordpool_576.txt	LTP207	ltpFR2	9	16	RABBIT	1152	n/a	n/a	0	0	0
3231410	WORD	wordpools/wasnorm_wordpool_576.txt	LTP207	ltpFR2	9	16	DONOR	485	n/a	n/a	0	0	0
3233973	WORD	wordpools/wasnorm_wordpool_576.txt	LTP207	ltpFR2	9	16	BLENDER	136	n/a	n/a	0	0	0
3236702	WORD	wordpools/wasnorm_wordpool_576.txt	LTP207	ltpFR2	9	16	APRON	35	n/a	n/a	0	0	0
3239398	WORD	wordpools/wasnorm_wordpool_576.txt	LTP207	ltpFR2	9	16	KITCHEN	778	n/a	n/a	0	0	0
3241944	WORD	wordpools/wasnorm_wordpool_576.txt	LTP207	ltpFR2	9	16	SHOVEL	1295	n/a	n/a	0	0	0
3244540	WORD	wordpools/wasnorm_wordpool_576.txt	LTP207	ltpFR2	9	16	FARMER	553	n/a	n/a	0	0	0
3247269	WORD	wordpools/wasnorm_wordpool_576.txt	LTP207	ltpFR2	9	16	TURTLE	1522	n/a	n/a	0	0	0
3249816	WORD	wordpools/wasnorm_wordpool_576.txt	LTP207	ltpFR2	9	16	TORTOISE	1486	n/a	n/a	0	0	0
3252561	WORD	wordpools/wasnorm_wordpool_576.txt	LTP207	ltpFR2	9	16	CANYON	235	n/a	n/a	0	0	0
3255008	WORD	wordpools/wasnorm_wordpool_576.txt	LTP207	ltpFR2	9	16	TUNNEL	1519	n/a	n/a	0	0	0
3257671	WORD	wordpools/wasnorm_wordpool_576.txt	LTP207	ltpFR2	9	16	FRIAR	605	n/a	n/a	0	0	0
3260466	WORD	wordpools/wasnorm_wordpool_576.txt	LTP207	ltpFR2	9	16	SCRIBBLE	1256	n/a	n/a	0	0	0
3263097	WORD	wordpools/wasnorm_wordpool_576.txt	LTP207	ltpFR2	9	16	GRAVEL	659	n/a	n/a	0	0	0
3265642	WORD	wordpools/wasnorm_wordpool_576.txt	LTP207	ltpFR2	9	16	HONEY	713	n/a	n/a	0	0	0
3268123	WORD	wordpools/wasnorm_wordpool_576.txt	LTP207	ltpFR2	9	16	WORKER	1621	n/a	n/a	0	0	0
3270684	WORD	wordpools/wasnorm_wordpool_576.txt	LTP207	ltpFR2	9	16	GARLIC	624	n/a	n/a	0	0	0
3273497	WORD	wordpools/wasnorm_wordpool_576.txt	LTP207	ltpFR2	9	16	SPIDER	1351	n/a	n/a	0	0	0
3275976	WORD	wordpools/wasnorm_wordpool_576.txt	LTP207	ltpFR2	9	16	ATOM	55	n/a	n/a	0	0	0
3277591	START	n/a	LTP207	ltpFR2	9	n/a	n/a	n/a	23	n/a	n/a	n/a	n/a
3278701	DISTRACTOR	n/a	LTP207	ltpFR2	9	16	n/a	n/a	n/a	n/a	0	0	0
3278706	PROB	n/a	LTP207	ltpFR2	9	n/a	n/a	n/a	23	14	7	1	6
3280071	PROB	n/a	LTP207	ltpFR2	9	n/a	n/a	n/a	23	12	8	2	2
3281302	PROB	n/a	LTP207	ltpFR2	9	n/a	n/a	n/a	23	12	8	1	3
3285097	PROB	n/a	LTP207	ltpFR2	9	n/a	n/a	n/a	23	21	9	7	5
3286760	PROB	n/a	LTP207	ltpFR2	9	n/a	n/a	n/a	23	7	2	4	1
3288143	PROB	n/a	LTP207	ltpFR2	9	n/a	n/a	n/a	23	7	1	1	5
3289323	PROB	n/a	LTP207	ltpFR2	9	n/a	n/a	n/a	23	11	7	3	1
3290388	PROB	n/a	LTP207	ltpFR2	9	n/a	n/a	n/a	23	18	3	7	8
3293135	PROB	n/a	LTP207	ltpFR2	9	n/a	n/a	n/a	23	18	1	9	8
3295381	PROB	n/a	LTP207	ltpFR2	9	n/a	n/a	n/a	23	9	4	2	3
3297096	PROB	n/a	LTP207	ltpFR2	9	n/a	n/a	n/a	23	14	6	2	6
3299025	PROB	n/a	LTP207	ltpFR2	9	n/a	n/a	n/a	23	25	9	8	8
3300961	STOP	n/a	LTP207	ltpFR2	9	n/a	n/a	n/a	23	n/a	n/a	n/a	n/a
3303519	REC_START	n/a	LTP207	ltpFR2	9	16	n/a	n/a	n/a	n/a	0	0	0
3305510	REC_WORD	wordpools/wasnorm_wordpool_576.txt	LTP207	ltpFR2	9	16	TORTOISE	1486	n/a	n/a	0	0	0
3307227	REC_WORD	wordpools/wasnorm_wordpool_576.txt	LTP207	ltpFR2	9	16	CANYON	235	n/a	n/a	0	0	0
3308758	REC_WORD	wordpools/wasnorm_wordpool_576.txt	LTP207	ltpFR2	9	16	TUNNEL	1519	n/a	n/a	0	0	0
3310368	REC_WORD	wordpools/wasnorm_wordpool_576.txt	LTP207	ltpFR2	9	16	FRIAR	605	n/a	n/a	0	0	0
3313857	REC_WORD	wordpools/wasnorm_wordpool_576.txt	LTP207	ltpFR2	9	16	SCRIBBLE	1256	n/a	n/a	0	0	0
3316675	REC_WORD	wordpools/wasnorm_wordpool_576.txt	LTP207	ltpFR2	9	16	GRAVEL	659	n/a	n/a	0	0	0
3318456	REC_WORD	wordpools/wasnorm_wordpool_576.txt	LTP207	ltpFR2	9	16	HONEY	713	n/a	n/a	0	0	0
3320775	REC_WORD	wordpools/wasnorm_wordpool_576.txt	LTP207	ltpFR2	9	16	WORKER	1621	n/a	n/a	0	0	0
3368893	REC_WORD	wordpools/wasnorm_wordpool_576.txt	LTP207	ltpFR2	9	16	GARLIC	624	n/a	n/a	0	0	0
3380139	REST_REWET	n/a	LTP207	ltpFR2	9	16	n/a	n/a	n/a	n/a	0	0	0
3698097	DISTRACTOR	n/a	LTP207	ltpFR2	9	17	n/a	n/a	n/a	n/a	0	0	0
3698097	START	n/a	LTP207	ltpFR2	9	n/a	n/a	n/a	24	n/a	n/a	n/a	n/a
3698131	PROB	n/a	LTP207	ltpFR2	9	n/a	n/a	n/a	24	23	7	8	8
3699993	PROB	n/a	LTP207	ltpFR2	9	n/a	n/a	n/a	24	16	8	4	4
3701757	PROB	n/a	LTP207	ltpFR2	9	n/a	n/a	n/a	24	19	4	6	9
3703222	PROB	n/a	LTP207	ltpFR2	9	n/a	n/a	n/a	24	18	8	1	9
3704753	PROB	n/a	LTP207	ltpFR2	9	n/a	n/a	n/a	24	22	9	8	5
3706550	PROB	n/a	LTP207	ltpFR2	9	n/a	n/a	n/a	24	17	7	9	1
3708531	PROB	n/a	LTP207	ltpFR2	9	n/a	n/a	n/a	24	15	8	2	5
3709912	PROB	n/a	LTP207	ltpFR2	9	n/a	n/a	n/a	24	17	3	5	9
3711476	PROB	n/a	LTP207	ltpFR2	9	n/a	n/a	n/a	24	11	2	8	1
3712608	PROB	n/a	LTP207	ltpFR2	9	n/a	n/a	n/a	24	13	4	3	6
3714107	PROB	n/a	LTP207	ltpFR2	9	n/a	n/a	n/a	24	16	9	6	1
3715670	PROB	n/a	LTP207	ltpFR2	9	n/a	n/a	n/a	24	16	9	1	6
3716902	PROB	n/a	LTP207	ltpFR2	9	n/a	n/a	n/a	24	18	5	5	8
3718151	PROB	n/a	LTP207	ltpFR2	9	n/a	n/a	n/a	24	10	1	3	6
3720617	STOP	n/a	LTP207	ltpFR2	9	n/a	n/a	n/a	24	n/a	n/a	n/a	n/a
3722943	WORD	wordpools/wasnorm_wordpool_576.txt	LTP207	ltpFR2	9	17	BRICK	172	n/a	n/a	0	0	0
3725755	WORD	wordpools/wasnorm_wordpool_576.txt	LTP207	ltpFR2	9	17	SAUSAGE	1238	n/a	n/a	0	0	0
3728368	WORD	wordpools/wasnorm_wordpool_576.txt	LTP207	ltpFR2	9	17	COCKTAIL	338	n/a	n/a	0	0	0
3730947	WORD	wordpools/wasnorm_wordpool_576.txt	LTP207	ltpFR2	9	17	HORNET	718	n/a	n/a	0	0	0
3733427	WORD	wordpools/wasnorm_wordpool_576.txt	LTP207	ltpFR2	9	17	WASP	1593	n/a	n/a	0	0	0
3735890	WORD	wordpools/wasnorm_wordpool_576.txt	LTP207	ltpFR2	9	17	HANDBAG	684	n/a	n/a	0	0	0
3738702	WORD	wordpools/wasnorm_wordpool_576.txt	LTP207	ltpFR2	9	17	MONEY	908	n/a	n/a	0	0	0
3741200	WORD	wordpools/wasnorm_wordpool_576.txt	LTP207	ltpFR2	9	17	SIDEWALK	1303	n/a	n/a	0	0	0
3743761	WORD	wordpools/wasnorm_wordpool_576.txt	LTP207	ltpFR2	9	17	ANTLER	29	n/a	n/a	0	0	0
3746408	WORD	wordpools/wasnorm_wordpool_576.txt	LTP207	ltpFR2	9	17	COURSE	390	n/a	n/a	0	0	0
3749054	WORD	wordpools/wasnorm_wordpool_576.txt	LTP207	ltpFR2	9	17	MEAT	883	n/a	n/a	0	0	0
3751583	WORD	wordpools/wasnorm_wordpool_576.txt	LTP207	ltpFR2	9	17	TURKEY	1520	n/a	n/a	0	0	0
3754246	WORD	wordpools/wasnorm_wordpool_576.txt	LTP207	ltpFR2	9	17	BUTCHER	203	n/a	n/a	0	0	0
3756958	WORD	wordpools/wasnorm_wordpool_576.txt	LTP207	ltpFR2	9	17	CLOTHES	327	n/a	n/a	0	0	0
3759405	WORD	wordpools/wasnorm_wordpool_576.txt	LTP207	ltpFR2	9	17	THREAD	1460	n/a	n/a	0	0	0
3762152	WORD	wordpools/wasnorm_wordpool_576.txt	LTP207	ltpFR2	9	17	KEEPER	769	n/a	n/a	0	0	0
3764897	WORD	wordpools/wasnorm_wordpool_576.txt	LTP207	ltpFR2	9	17	PIGMENT	1066	n/a	n/a	0	0	0
3767692	WORD	wordpools/wasnorm_wordpool_576.txt	LTP207	ltpFR2	9	17	STATUE	1374	n/a	n/a	0	0	0
3770206	WORD	wordpools/wasnorm_wordpool_576.txt	LTP207	ltpFR2	9	17	TWEEZERS	1526	n/a	n/a	0	0	0
3772901	WORD	wordpools/wasnorm_wordpool_576.txt	LTP207	ltpFR2	9	17	GAZELLE	628	n/a	n/a	0	0	0
3775497	WORD	wordpools/wasnorm_wordpool_576.txt	LTP207	ltpFR2	9	17	SPHINX	1349	n/a	n/a	0	0	0
3777927	WORD	wordpools/wasnorm_wordpool_576.txt	LTP207	ltpFR2	9	17	SNAIL	1332	n/a	n/a	0	0	0
3780407	WORD	wordpools/wasnorm_wordpool_576.txt	LTP207	ltpFR2	9	17	TRENCH	1503	n/a	n/a	0	0	0
3782837	WORD	wordpools/wasnorm_wordpool_576.txt	LTP207	ltpFR2	9	17	MARSH	874	n/a	n/a	0	0	0
3784451	START	n/a	LTP207	ltpFR2	9	n/a	n/a	n/a	25	n/a	n/a	n/a	n/a
3785594	DISTRACTOR	n/a	LTP207	ltpFR2	9	17	n/a	n/a	n/a	n/a	0	0	0
3785599	PROB	n/a	LTP207	ltpFR2	9	n/a	n/a	n/a	25	22	9	7	6
3787746	PROB	n/a	LTP207	ltpFR2	9	n/a	n/a	n/a	25	15	6	8	1
3789145	PROB	n/a	LTP207	ltpFR2	9	n/a	n/a	n/a	25	18	9	1	8
3790325	PROB	n/a	LTP207	ltpFR2	9	n/a	n/a	n/a	25	10	5	2	3
3791956	PROB	n/a	LTP207	ltpFR2	9	n/a	n/a	n/a	25	10	6	1	3
3793437	PROB	n/a	LTP207	ltpFR2	9	n/a	n/a	n/a	25	13	1	9	3
3795285	PROB	n/a	LTP207	ltpFR2	9	n/a	n/a	n/a	25	15	6	5	4
3798413	PROB	n/a	LTP207	ltpFR2	9	n/a	n/a	n/a	25	12	1	8	3
3799578	PROB	n/a	LTP207	ltpFR2	9	n/a	n/a	n/a	25	14	4	6	4
3800909	PROB	n/a	LTP207	ltpFR2	9	n/a	n/a	n/a	25	17	2	8	7
3802142	PROB	n/a	LTP207	ltpFR2	9	n/a	n/a	n/a	25	14	8	3	3
3803888	PROB	n/a	LTP207	ltpFR2	9	n/a	n/a	n/a	25	7	1	5	1
3805969	PROB	n/a	LTP207	ltpFR2	9	n/a	n/a	n/a	25	18	5	4	9
3807401	STOP	n/a	LTP207	ltpFR2	9	n/a	n/a	n/a	25	n/a	n/a	n/a	n/a
3810329	REC_START	n/a	LTP207	ltpFR2	9	17	n/a	n/a	n/a	n/a	0	0	0
3811543	REC_WORD	wordpools/wasnorm_wordpool_576.txt	LTP207	ltpFR2	9	17	SPHINX	1349	n/a	n/a	0	0	0
3829047	REC_WORD	wordpools/wasnorm_wordpool_576.txt	LTP207	ltpFR2	9	17	TURKEY	1520	n/a	n/a	0	0	0
3832736	REC_WORD	wordpools/wasnorm_wordpool_576.txt	LTP207	ltpFR2	9	17	MEAT	883	n/a	n/a	0	0	0
3838191	REC_WORD	wordpools/wasnorm_wordpool_576.txt	LTP207	ltpFR2	9	17	KEEPER	769	n/a	n/a	0	0	0
3882923	REC_WORD	wordpools/wasnorm_wordpool_576.txt	LTP207	ltpFR2	9	17	SNAIL	1332	n/a	n/a	0	0	0
3901027	WORD	wordpools/wasnorm_wordpool_576.txt	LTP207	ltpFR2	9	18	WITNESS	1618	n/a	n/a	0	0	0
3903540	WORD	wordpools/wasnorm_wordpool_576.txt	LTP207	ltpFR2	9	18	PARSLEY	1016	n/a	n/a	0	0	0
3905986	WORD	wordpools/wasnorm_wordpool_576.txt	LTP207	ltpFR2	9	18	BLOCKADE	137	n/a	n/a	0	0	0
3908798	WORD	wordpools/wasnorm_wordpool_576.txt	LTP207	ltpFR2	9	18	RATTLE	1170	n/a	n/a	0	0	0
3911395	WORD	wordpools/wasnorm_wordpool_576.txt	LTP207	ltpFR2	9	18	ARM	38	n/a	n/a	0	0	0
3913891	WORD	wordpools/wasnorm_wordpool_576.txt	LTP207	ltpFR2	9	18	LEOPARD	812	n/a	n/a	0	0	0
3916603	WORD	wordpools/wasnorm_wordpool_576.txt	LTP207	ltpFR2	9	18	STALLION	1369	n/a	n/a	0	0	0
3919050	WORD	wordpools/wasnorm_wordpool_576.txt	LTP207	ltpFR2	9	18	COWBOY	395	n/a	n/a	0	0	0
3921696	WORD	wordpools/wasnorm_wordpool_576.txt	LTP207	ltpFR2	9	18	PASTA	1021	n/a	n/a	0	0	0
3924425	WORD	wordpools/wasnorm_wordpool_576.txt	LTP207	ltpFR2	9	18	RAZOR	1171	n/a	n/a	0	0	0
3927089	WORD	wordpools/wasnorm_wordpool_576.txt	LTP207	ltpFR2	9	18	BLADE	134	n/a	n/a	0	0	0
3929701	WORD	wordpools/wasnorm_wordpool_576.txt	LTP207	ltpFR2	9	18	FLASK	576	n/a	n/a	0	0	0
3932447	WORD	wordpools/wasnorm_wordpool_576.txt	LTP207	ltpFR2	9	18	COBRA	336	n/a	n/a	0	0	0
3935110	WORD	wordpools/wasnorm_wordpool_576.txt	LTP207	ltpFR2	9	18	FOX	598	n/a	n/a	0	0	0
3937872	WORD	wordpools/wasnorm_wordpool_576.txt	LTP207	ltpFR2	9	18	PERMIT	1051	n/a	n/a	0	0	0
3940301	WORD	wordpools/wasnorm_wordpool_576.txt	LTP207	ltpFR2	9	18	CHEMIST	292	n/a	n/a	0	0	0
3942814	WORD	wordpools/wasnorm_wordpool_576.txt	LTP207	ltpFR2	9	18	PALACE	1006	n/a	n/a	0	0	0
3945594	WORD	wordpools/wasnorm_wordpool_576.txt	LTP207	ltpFR2	9	18	MAMMAL	861	n/a	n/a	0	0	0
3948323	WORD	wordpools/wasnorm_wordpool_576.txt	LTP207	ltpFR2	9	18	BANKER	84	n/a	n/a	0	0	0
3950952	WORD	wordpools/wasnorm_wordpool_576.txt	LTP207	ltpFR2	9	18	MARKER	870	n/a	n/a	0	0	0
3953415	WORD	wordpools/wasnorm_wordpool_576.txt	LTP207	ltpFR2	9	18	NOTEBOOK	959	n/a	n/a	0	0	0
3955911	WORD	wordpools/wasnorm_wordpool_576.txt	LTP207	ltpFR2	9	18	QUEEN	1149	n/a	n/a	0	0	0
3958574	WORD	wordpools/wasnorm_wordpool_576.txt	LTP207	ltpFR2	9	18	EAGLE	512	n/a	n/a	0	0	0
3961054	WORD	wordpools/wasnorm_wordpool_576.txt	LTP207	ltpFR2	9	18	CASHEW	253	n/a	n/a	0	0	0
3962668	START	n/a	LTP207	ltpFR2	9	n/a	n/a	n/a	26	n/a	n/a	n/a	n/a
3963594	DISTRACTOR	n/a	LTP207	ltpFR2	9	18	n/a	n/a	n/a	n/a	0	0	0
3963600	PROB	n/a	LTP207	ltpFR2	9	n/a	n/a	n/a	26	15	4	3	8
3965099	PROB	n/a	LTP207	ltpFR2	9	n/a	n/a	n/a	26	16	8	7	1
3966296	PROB	n/a	LTP207	ltpFR2	9	n/a	n/a	n/a	26	19	7	5	7
3967860	PROB	n/a	LTP207	ltpFR2	9	n/a	n/a	n/a	26	10	4	4	2
3969159	PROB	n/a	LTP207	ltpFR2	9	n/a	n/a	n/a	26	13	3	6	4
3970357	PROB	n/a	LTP207	ltpFR2	9	n/a	n/a	n/a	26	8	1	6	1
3971405	PROB	n/a	LTP207	ltpFR2	9	n/a	n/a	n/a	26	16	6	2	8
3972953	PROB	n/a	LTP207	ltpFR2	9	n/a	n/a	n/a	26	8	1	1	6
3973968	PROB	n/a	LTP207	ltpFR2	9	n/a	n/a	n/a	26	14	3	8	3
3976031	PROB	n/a	LTP207	ltpFR2	9	n/a	n/a	n/a	26	14	3	6	5
3977712	PROB	n/a	LTP207	ltpFR2	9	n/a	n/a	n/a	26	16	6	3	7
3978994	PROB	n/a	LTP207	ltpFR2	9	n/a	n/a	n/a	26	20	9	3	8
3980591	PROB	n/a	LTP207	ltpFR2	9	n/a	n/a	n/a	26	12	6	1	5
3981740	PROB	n/a	LTP207	ltpFR2	9	n/a	n/a	n/a	26	16	3	6	7
3983271	PROB	n/a	LTP207	ltpFR2	9	n/a	n/a	n/a	26	18	9	5	4
3984602	PROB	n/a	LTP207	ltpFR2	9	n/a	n/a	n/a	26	14	4	2	8
3985753	STOP	n/a	LTP207	ltpFR2	9	n/a	n/a	n/a	26	n/a	n/a	n/a	n/a
3988613	REC_START	n/a	LTP207	ltpFR2	9	18	n/a	n/a	n/a	n/a	0	0	0
3989893	REC_WORD	wordpools/wasnorm_wordpool_576.txt	LTP207	ltpFR2	9	18	STALLION	1369	n/a	n/a	0	0	0
3990893	REC_WORD_VV	wordpools/wasnorm_wordpool_576.txt	LTP207	ltpFR2	9	18	<>	-1	n/a	n/a	0	0	0
3993297	REC_WORD	wordpools/wasnorm_wordpool_576.txt	LTP207	ltpFR2	9	18	LEOPARD	812	n/a	n/a	0	0	0
3996540	REC_WORD	wordpools/wasnorm_wordpool_576.txt	LTP207	ltpFR2	9	18	COWBOY	395	n/a	n/a	0	0	0
4001354	REC_WORD	wordpools/wasnorm_wordpool_576.txt	LTP207	ltpFR2	9	18	CHEMIST	292	n/a	n/a	0	0	0
4003129	REC_WORD	wordpools/wasnorm_wordpool_576.txt	LTP207	ltpFR2	9	18	PALACE	1006	n/a	n/a	0	0	0
4006686	REC_WORD	wordpools/wasnorm_wordpool_576.txt	LTP207	ltpFR2	9	18	NOTEBOOK	959	n/a	n/a	0	0	0
4019721	REC_WORD	wordpools/wasnorm_wordpool_576.txt	LTP207	ltpFR2	9	18	QUEEN	1149	n/a	n/a	0	0	0
4042609	REC_WORD	wordpools/wasnorm_wordpool_576.txt	LTP207	ltpFR2	9	18	RAZOR	1171	n/a	n/a	0	0	0
4133729	DISTRACTOR	n/a	LTP207	ltpFR2	9	19	n/a	n/a	n/a	n/a	0	0	0
4133730	START	n/a	LTP207	ltpFR2	9	n/a	n/a	n/a	27	n/a	n/a	n/a	n/a
4133763	PROB	n/a	LTP207	ltpFR2	9	n/a	n/a	n/a	27	19	9	2	8
4135676	PROB	n/a	LTP207	ltpFR2	9	n/a	n/a	n/a	27	15	7	7	1
4136891	PROB	n/a	LTP207	ltpFR2	9	n/a	n/a	n/a	27	6	2	3	1
4138207	PROB	n/a	LTP207	ltpFR2	9	n/a	n/a	n/a	27	12	6	4	2
4139238	PROB	n/a	LTP207	ltpFR2	9	n/a	n/a	n/a	27	12	3	1	8
4140303	PROB	n/a	LTP207	ltpFR2	9	n/a	n/a	n/a	27	23	7	9	7
4141568	PROB	n/a	LTP207	ltpFR2	9	n/a	n/a	n/a	27	21	5	7	9
4143183	PROB	n/a	LTP207	ltpFR2	9	n/a	n/a	n/a	27	9	5	3	1
4145029	PROB	n/a	LTP207	ltpFR2	9	n/a	n/a	n/a	27	16	2	8	6
4146261	PROB	n/a	LTP207	ltpFR2	9	n/a	n/a	n/a	27	16	6	4	6
4147575	PROB	n/a	LTP207	ltpFR2	9	n/a	n/a	n/a	27	13	1	8	4
4148957	PROB	n/a	LTP207	ltpFR2	9	n/a	n/a	n/a	27	13	2	8	3
4150521	PROB	n/a	LTP207	ltpFR2	9	n/a	n/a	n/a	27	13	6	6	1
4151802	PROB	n/a	LTP207	ltpFR2	9	n/a	n/a	n/a	27	13	3	1	9
4152917	PROB	n/a	LTP207	ltpFR2	9	n/a	n/a	n/a	27	16	4	4	8
4155198	PROB	n/a	LTP207	ltpFR2	9	n/a	n/a	n/a	27	16	4	8	4
4156729	STOP	n/a	LTP207	ltpFR2	9	n/a	n/a	n/a	27	n/a	n/a	n/a	n/a
4158725	WORD	wordpools/wasnorm_wordpool_576.txt	LTP207	ltpFR2	9	19	SALAD	1224	n/a	n/a	0	0	0
4161471	WORD	wordpools/wasnorm_wordpool_576.txt	LTP207	ltpFR2	9	19	LEADER	807	n/a	n/a	0	0	0
4164118	WORD	wordpools/wasnorm_wordpool_576.txt	LTP207	ltpFR2	9	19	FLIPPER	580	n/a	n/a	0	0	0
4166797	WORD	wordpools/wasnorm_wordpool_576.txt	LTP207	ltpFR2	9	19	SALMON	1227	n/a	n/a	0	0	0
4169343	WORD	wordpools/wasnorm_wordpool_576.txt	LTP207	ltpFR2	9	19	BADGE	68	n/a	n/a	0	0	0
4172156	WORD	wordpools/wasnorm_wordpool_576.txt	LTP207	ltpFR2	9	19	DORM	488	n/a	n/a	0	0	0
4174801	WORD	wordpools/wasnorm_wordpool_576.txt	LTP207	ltpFR2	9	19	PUDDING	1139	n/a	n/a	0	0	0
4177431	WORD	wordpools/wasnorm_wordpool_576.txt	LTP207	ltpFR2	9	19	SCISSORS	1250	n/a	n/a	0	0	0
4179994	WORD	wordpools/wasnorm_wordpool_576.txt	LTP207	ltpFR2	9	19	CRICKET	408	n/a	n/a	0	0	0
4182573	WORD	wordpools/wasnorm_wordpool_576.txt	LTP207	ltpFR2	9	19	WHISTLE	1606	n/a	n/a	0	0	0
4185336	WORD	wordpools/wasnorm_wordpool_576.txt	LTP207	ltpFR2	9	19	PATROL	1027	n/a	n/a	0	0	0
4187849	WORD	wordpools/wasnorm_wordpool_576.txt	LTP207	ltpFR2	9	19	SILK	1307	n/a	n/a	0	0	0
4190545	WORD	wordpools/wasnorm_wordpool_576.txt	LTP207	ltpFR2	9	19	MACHINE	852	n/a	n/a	0	0	0
4193008	WORD	wordpools/wasnorm_wordpool_576.txt	LTP207	ltpFR2	9	19	FOOTBALL	591	n/a	n/a	0	0	0
4195520	WORD	wordpools/wasnorm_wordpool_576.txt	LTP207	ltpFR2	9	19	PLASTER	1085	n/a	n/a	0	0	0
4198233	WORD	wordpools/wasnorm_wordpool_576.txt	LTP207	ltpFR2	9	19	LACE	792	n/a	n/a	0	0	0
4200663	WORD	wordpools/wasnorm_wordpool_576.txt	LTP207	ltpFR2	9	19	VALVE	1546	n/a	n/a	0	0	0
4203442	WORD	wordpools/wasnorm_wordpool_576.txt	LTP207	ltpFR2	9	19	STAKE	1368	n/a	n/a	0	0	0
4205972	WORD	wordpools/wasnorm_wordpool_576.txt	LTP207	ltpFR2	9	19	CARROT	249	n/a	n/a	0	0	0
4208551	WORD	wordpools/wasnorm_wordpool_576.txt	LTP207	ltpFR2	9	19	BUNNY	198	n/a	n/a	0	0	0
4211230	WORD	wordpools/wasnorm_wordpool_576.txt	LTP207	ltpFR2	9	19	TWISTER	1530	n/a	n/a	0	0	0
4213993	WORD	wordpools/wasnorm_wordpool_576.txt	LTP207	ltpFR2	9	19	LEG	809	n/a	n/a	0	0	0
4216589	WORD	wordpools/wasnorm_wordpool_576.txt	LTP207	ltpFR2	9	19	NIGHTGOWN	953	n/a	n/a	0	0	0
4219368	WORD	wordpools/wasnorm_wordpool_576.txt	LTP207	ltpFR2	9	19	NURSE	963	n/a	n/a	0	0	0
4220983	START	n/a	LTP207	ltpFR2	9	n/a	n/a	n/a	28	n/a	n/a	n/a	n/a
4222071	DISTRACTOR	n/a	LTP207	ltpFR2	9	19	n/a	n/a	n/a	n/a	0	0	0
4222082	PROB	n/a	LTP207	ltpFR2	9	n/a	n/a	n/a	28	19	8	4	7
4223678	PROB	n/a	LTP207	ltpFR2	9	n/a	n/a	n/a	28	12	2	6	4
4225309	PROB	n/a	LTP207	ltpFR2	9	n/a	n/a	n/a	28	17	1	9	7
4226574	PROB	n/a	LTP207	ltpFR2	9	n/a	n/a	n/a	28	20	5	7	8
4229287	PROB	n/a	LTP207	ltpFR2	9	n/a	n/a	n/a	28	10	5	2	3
4230868	PROB	n/a	LTP207	ltpFR2	9	n/a	n/a	n/a	28	17	2	6	9
4232167	PROB	n/a	LTP207	ltpFR2	9	n/a	n/a	n/a	28	14	4	4	6
4233514	PROB	n/a	LTP207	ltpFR2	9	n/a	n/a	n/a	28	16	2	6	8
4234645	PROB	n/a	LTP207	ltpFR2	9	n/a	n/a	n/a	28	15	5	1	9
4235777	PROB	n/a	LTP207	ltpFR2	9	n/a	n/a	n/a	28	12	7	3	2
4236825	PROB	n/a	LTP207	ltpFR2	9	n/a	n/a	n/a	28	15	9	3	3
4238174	PROB	n/a	LTP207	ltpFR2	9	n/a	n/a	n/a	28	3	1	1	1
4239090	PROB	n/a	LTP207	ltpFR2	9	n/a	n/a	n/a	28	18	6	5	7
4240270	PROB	n/a	LTP207	ltpFR2	9	n/a	n/a	n/a	28	14	2	3	9
4241319	PROB	n/a	LTP207	ltpFR2	9	n/a	n/a	n/a	28	7	2	4	1
4242783	PROB	n/a	LTP207	ltpFR2	9	n/a	n/a	n/a	28	10	3	3	4
4244049	STOP	n/a	LTP207	ltpFR2	9	n/a	n/a	n/a	28	n/a	n/a	n/a	n/a
4246944	REC_START	n/a	LTP207	ltpFR2	9	19	n/a	n/a	n/a	n/a	0	0	0
4251869	REC_WORD	wordpools/wasnorm_wordpool_576.txt	LTP207	ltpFR2	9	19	BUNNY	198	n/a	n/a	0	0	0
4337575	DISTRACTOR	n/a	LTP207	ltpFR2	9	20	n/a	n/a	n/a	n/a	0	0	0
4337575	START	n/a	LTP207	ltpFR2	9	n/a	n/a	n/a	29	n/a	n/a	n/a	n/a
4337608	PROB	n/a	LTP207	ltpFR2	9	n/a	n/a	n/a	29	23	8	6	9
4340288	PROB	n/a	LTP207	ltpFR2	9	n/a	n/a	n/a	29	10	3	6	1
4341968	PROB	n/a	LTP207	ltpFR2	9	n/a	n/a	n/a	29	8	2	5	1
4343168	PROB	n/a	LTP207	ltpFR2	9	n/a	n/a	n/a	29	14	4	4	6
4344581	PROB	n/a	LTP207	ltpFR2	9	n/a	n/a	n/a	29	7	1	2	4
4346012	PROB	n/a	LTP207	ltpFR2	9	n/a	n/a	n/a	29	5	1	2	2
4346994	PROB	n/a	LTP207	ltpFR2	9	n/a	n/a	n/a	29	9	4	4	1
4349424	PROB	n/a	LTP207	ltpFR2	9	n/a	n/a	n/a	29	11	1	4	6
4350639	PROB	n/a	LTP207	ltpFR2	9	n/a	n/a	n/a	29	19	2	9	8
4352353	PROB	n/a	LTP207	ltpFR2	9	n/a	n/a	n/a	29	12	4	2	6
4353884	PROB	n/a	LTP207	ltpFR2	9	n/a	n/a	n/a	29	14	6	5	3
4355698	PROB	n/a	LTP207	ltpFR2	9	n/a	n/a	n/a	29	12	5	5	2
4356696	PROB	n/a	LTP207	ltpFR2	9	n/a	n/a	n/a	29	15	6	8	1
4358162	PROB	n/a	LTP207	ltpFR2	9	n/a	n/a	n/a	29	16	3	4	9
4359376	PROB	n/a	LTP207	ltpFR2	9	n/a	n/a	n/a	29	16	5	3	8
4361274	STOP	n/a	LTP207	ltpFR2	9	n/a	n/a	n/a	29	n/a	n/a	n/a	n/a
4362671	WORD	wordpools/wasnorm_wordpool_576.txt	LTP207	ltpFR2	9	20	PACKAGE	997	n/a	n/a	0	0	0
4365168	WORD	wordpools/wasnorm_wordpool_576.txt	LTP207	ltpFR2	9	20	SCARECROW	1245	n/a	n/a	0	0	0
4367963	WORD	wordpools/wasnorm_wordpool_576.txt	LTP207	ltpFR2	9	20	BRIEFCASE	175	n/a	n/a	0	0	0
4370476	WORD	wordpools/wasnorm_wordpool_576.txt	LTP207	ltpFR2	9	20	PARENT	1013	n/a	n/a	0	0	0
4373073	WORD	wordpools/wasnorm_wordpool_576.txt	LTP207	ltpFR2	9	20	BROTHER	179	n/a	n/a	0	0	0
4375801	WORD	wordpools/wasnorm_wordpool_576.txt	LTP207	ltpFR2	9	20	BINDER	127	n/a	n/a	0	0	0
4378614	WORD	wordpools/wasnorm_wordpool_576.txt	LTP207	ltpFR2	9	20	SIBLING	1301	n/a	n/a	0	0	0
4381410	WORD	wordpools/wasnorm_wordpool_576.txt	LTP207	ltpFR2	9	20	GALLON	618	n/a	n/a	0	0	0
4383989	WORD	wordpools/wasnorm_wordpool_576.txt	LTP207	ltpFR2	9	20	FINGER	567	n/a	n/a	0	0	0
4386569	WORD	wordpools/wasnorm_wordpool_576.txt	LTP207	ltpFR2	9	20	PICTURE	1061	n/a	n/a	0	0	0
4389116	WORD	wordpools/wasnorm_wordpool_576.txt	LTP207	ltpFR2	9	20	PUDDLE	1140	n/a	n/a	0	0	0
4391628	WORD	wordpools/wasnorm_wordpool_576.txt	LTP207	ltpFR2	9	20	ROBBER	1197	n/a	n/a	0	0	0
4394191	WORD	wordpools/wasnorm_wordpool_576.txt	LTP207	ltpFR2	9	20	FRECKLE	602	n/a	n/a	0	0	0
4396853	WORD	wordpools/wasnorm_wordpool_576.txt	LTP207	ltpFR2	9	20	GUITAR	670	n/a	n/a	0	0	0
4399416	WORD	wordpools/wasnorm_wordpool_576.txt	LTP207	ltpFR2	9	20	DAUGHTER	442	n/a	n/a	0	0	0
4401896	WORD	wordpools/wasnorm_wordpool_576.txt	LTP207	ltpFR2	9	20	HOOD	714	n/a	n/a	0	0	0
4404359	WORD	wordpools/wasnorm_wordpool_576.txt	LTP207	ltpFR2	9	20	OYSTER	995	n/a	n/a	0	0	0
4407072	WORD	wordpools/wasnorm_wordpool_576.txt	LTP207	ltpFR2	9	20	POSTAGE	1113	n/a	n/a	0	0	0
4409767	WORD	wordpools/wasnorm_wordpool_576.txt	LTP207	ltpFR2	9	20	FRAME	600	n/a	n/a	0	0	0
4412230	WORD	wordpools/wasnorm_wordpool_576.txt	LTP207	ltpFR2	9	20	PLAZA	1088	n/a	n/a	0	0	0
4415009	WORD	wordpools/wasnorm_wordpool_576.txt	LTP207	ltpFR2	9	20	IDOL	733	n/a	n/a	0	0	0
4417755	WORD	wordpools/wasnorm_wordpool_576.txt	LTP207	ltpFR2	9	20	COMET	353	n/a	n/a	0	0	0
4420551	WORD	wordpools/wasnorm_wordpool_576.txt	LTP207	ltpFR2	9	20	SPOUSE	1358	n/a	n/a	0	0	0
4423064	WORD	wordpools/wasnorm_wordpool_576.txt	LTP207	ltpFR2	9	20	HUSBAND	728	n/a	n/a	0	0	0
4424679	START	n/a	LTP207	ltpFR2	9	n/a	n/a	n/a	30	n/a	n/a	n/a	n/a
4425552	DISTRACTOR	n/a	LTP207	ltpFR2	9	20	n/a	n/a	n/a	n/a	0	0	0
4425560	PROB	n/a	LTP207	ltpFR2	9	n/a	n/a	n/a	30	14	8	3	3
4427225	PROB	n/a	LTP207	ltpFR2	9	n/a	n/a	n/a	30	13	2	4	7
4430586	PROB	n/a	LTP207	ltpFR2	9	n/a	n/a	n/a	30	12	7	2	3
4432234	PROB	n/a	LTP207	ltpFR2	9	n/a	n/a	n/a	30	21	6	6	9
4433682	PROB	n/a	LTP207	ltpFR2	9	n/a	n/a	n/a	30	15	4	2	9
4434896	PROB	n/a	LTP207	ltpFR2	9	n/a	n/a	n/a	30	14	2	8	4
4436427	PROB	n/a	LTP207	ltpFR2	9	n/a	n/a	n/a	30	12	4	3	5
4438408	PROB	n/a	LTP207	ltpFR2	9	n/a	n/a	n/a	30	12	3	5	4
4440255	PROB	n/a	LTP207	ltpFR2	9	n/a	n/a	n/a	30	19	6	5	8
4442801	PROB	n/a	LTP207	ltpFR2	9	n/a	n/a	n/a	30	13	1	9	3
4444033	PROB	n/a	LTP207	ltpFR2	9	n/a	n/a	n/a	30	19	8	3	8
4445647	PROB	n/a	LTP207	ltpFR2	9	n/a	n/a	n/a	30	19	7	9	3
4448297	STOP	n/a	LTP207	ltpFR2	9	n/a	n/a	n/a	30	n/a	n/a	n/a	n/a
4450457	REC_START	n/a	LTP207	ltpFR2	9	20	n/a	n/a	n/a	n/a	0	0	0
4454073	REC_WORD	wordpools/wasnorm_wordpool_576.txt	LTP207	ltpFR2	9	20	GALLON	618	n/a	n/a	0	0	0
4455319	REC_WORD	wordpools/wasnorm_wordpool_576.txt	LTP207	ltpFR2	9	20	SIBLING	1301	n/a	n/a	0	0	0
4456987	REC_WORD	wordpools/wasnorm_wordpool_576.txt	LTP207	ltpFR2	9	20	PACKAGE	997	n/a	n/a	0	0	0
4458426	REC_WORD	wordpools/wasnorm_wordpool_576.txt	LTP207	ltpFR2	9	20	SCARECROW	1245	n/a	n/a	0	0	0
4459426	REC_WORD_VV	wordpools/wasnorm_wordpool_576.txt	LTP207	ltpFR2	9	20	<>	-1	n/a	n/a	0	0	0
4460780	REC_WORD	wordpools/wasnorm_wordpool_576.txt	LTP207	ltpFR2	9	20	BRIEFCASE	175	n/a	n/a	0	0	0
4461780	REC_WORD_VV	wordpools/wasnorm_wordpool_576.txt	LTP207	ltpFR2	9	20	<>	-1	n/a	n/a	0	0	0
4484309	REC_WORD	wordpools/wasnorm_wordpool_576.txt	LTP207	ltpFR2	9	20	BROTHER	179	n/a	n/a	0	0	0
4541205	DISTRACTOR	n/a	LTP207	ltpFR2	9	21	n/a	n/a	n/a	n/a	0	0	0
4541206	START	n/a	LTP207	ltpFR2	9	n/a	n/a	n/a	31	n/a	n/a	n/a	n/a
4541238	PROB	n/a	LTP207	ltpFR2	9	n/a	n/a	n/a	31	7	4	2	1
4542719	PROB	n/a	LTP207	ltpFR2	9	n/a	n/a	n/a	31	15	4	7	4
4544233	PROB	n/a	LTP207	ltpFR2	9	n/a	n/a	n/a	31	11	1	4	6
4546413	PROB	n/a	LTP207	ltpFR2	9	n/a	n/a	n/a	31	15	6	5	4
4547978	PROB	n/a	LTP207	ltpFR2	9	n/a	n/a	n/a	31	24	9	8	7
4549559	PROB	n/a	LTP207	ltpFR2	9	n/a	n/a	n/a	31	12	7	4	1
4550624	PROB	n/a	LTP207	ltpFR2	9	n/a	n/a	n/a	31	14	7	5	2
4552172	PROB	n/a	LTP207	ltpFR2	9	n/a	n/a	n/a	31	21	5	7	9
4553353	PROB	n/a	LTP207	ltpFR2	9	n/a	n/a	n/a	31	1	9	1	3
4554418	PROB	n/a	LTP207	ltpFR2	9	n/a	n/a	n/a	31	11	2	7	2
4556200	PROB	n/a	LTP207	ltpFR2	9	n/a	n/a	n/a	31	21	7	6	8
4557979	PROB	n/a	LTP207	ltpFR2	9	n/a	n/a	n/a	31	23	6	9	8
4559477	PROB	n/a	LTP207	ltpFR2	9	n/a	n/a	n/a	31	7	3	1	3
4560759	PROB	n/a	LTP207	ltpFR2	9	n/a	n/a	n/a	31	17	9	1	7
4562373	PROB	n/a	LTP207	ltpFR2	9	n/a	n/a	n/a	31	19	3	7	9
4563671	PROB	n/a	LTP207	ltpFR2	9	n/a	n/a	n/a	31	23	8	9	6
4565026	STOP	n/a	LTP207	ltpFR2	9	n/a	n/a	n/a	31	n/a	n/a	n/a	n/a
4566068	WORD	wordpools/wasnorm_wordpool_576.txt	LTP207	ltpFR2	9	21	PIANO	1057	n/a	n/a	0	0	0
4568614	WORD	wordpools/wasnorm_wordpool_576.txt	LTP207	ltpFR2	9	21	INMATE	738	n/a	n/a	0	0	0
4571161	WORD	wordpools/wasnorm_wordpool_576.txt	LTP207	ltpFR2	9	21	JUGGLER	763	n/a	n/a	0	0	0
4573789	WORD	wordpools/wasnorm_wordpool_576.txt	LTP207	ltpFR2	9	21	AIRPLANE	12	n/a	n/a	0	0	0
4576402	WORD	wordpools/wasnorm_wordpool_576.txt	LTP207	ltpFR2	9	21	SKILLET	1317	n/a	n/a	0	0	0
4579048	WORD	wordpools/wasnorm_wordpool_576.txt	LTP207	ltpFR2	9	21	CIGAR	308	n/a	n/a	0	0	0
4581761	WORD	wordpools/wasnorm_wordpool_576.txt	LTP207	ltpFR2	9	21	BODY	145	n/a	n/a	0	0	0
4584456	WORD	wordpools/wasnorm_wordpool_576.txt	LTP207	ltpFR2	9	21	CAFE	216	n/a	n/a	0	0	0
4586886	WORD	wordpools/wasnorm_wordpool_576.txt	LTP207	ltpFR2	9	21	ROD	1203	n/a	n/a	0	0	0
4589349	WORD	wordpools/wasnorm_wordpool_576.txt	LTP207	ltpFR2	9	21	BRANDY	169	n/a	n/a	0	0	0
4591995	WORD	wordpools/wasnorm_wordpool_576.txt	LTP207	ltpFR2	9	21	SCOTCH	1251	n/a	n/a	0	0	0
4594625	WORD	wordpools/wasnorm_wordpool_576.txt	LTP207	ltpFR2	9	21	MONSTER	912	n/a	n/a	0	0	0
4597155	WORD	wordpools/wasnorm_wordpool_576.txt	LTP207	ltpFR2	9	21	GOBLIN	645	n/a	n/a	0	0	0
4599917	WORD	wordpools/wasnorm_wordpool_576.txt	LTP207	ltpFR2	9	21	CATTLE	261	n/a	n/a	0	0	0
4602463	WORD	wordpools/wasnorm_wordpool_576.txt	LTP207	ltpFR2	9	21	NAPKIN	937	n/a	n/a	0	0	0
4604959	WORD	wordpools/wasnorm_wordpool_576.txt	LTP207	ltpFR2	9	21	COFFEE	341	n/a	n/a	0	0	0
4607589	WORD	wordpools/wasnorm_wordpool_576.txt	LTP207	ltpFR2	9	21	NEUTRON	947	n/a	n/a	0	0	0
4610218	WORD	wordpools/wasnorm_wordpool_576.txt	LTP207	ltpFR2	9	21	SPOON	1357	n/a	n/a	0	0	0
4612831	WORD	wordpools/wasnorm_wordpool_576.txt	LTP207	ltpFR2	9	21	TUBA	1515	n/a	n/a	0	0	0
4615643	WORD	wordpools/wasnorm_wordpool_576.txt	LTP207	ltpFR2	9	21	STUDENT	1395	n/a	n/a	0	0	0
4618223	WORD	wordpools/wasnorm_wordpool_576.txt	LTP207	ltpFR2	9	21	ISLAND	745	n/a	n/a	0	0	0
4620669	WORD	wordpools/wasnorm_wordpool_576.txt	LTP207	ltpFR2	9	21	LAVA	804	n/a	n/a	0	0	0
4623265	WORD	wordpools/wasnorm_wordpool_576.txt	LTP207	ltpFR2	9	21	BEAKER	104	n/a	n/a	0	0	0
4625911	WORD	wordpools/wasnorm_wordpool_576.txt	LTP207	ltpFR2	9	21	RIVER	1194	n/a	n/a	0	0	0
4627526	START	n/a	LTP207	ltpFR2	9	n/a	n/a	n/a	32	n/a	n/a	n/a	n/a
4628455	DISTRACTOR	n/a	LTP207	ltpFR2	9	21	n/a	n/a	n/a	n/a	0	0	0
4628457	PROB	n/a	LTP207	ltpFR2	9	n/a	n/a	n/a	32	7	3	1	3
4630106	PROB	n/a	LTP207	ltpFR2	9	n/a	n/a	n/a	32	25	9	8	8
4632103	PROB	n/a	LTP207	ltpFR2	9	n/a	n/a	n/a	32	14	4	2	8
4633683	PROB	n/a	LTP207	ltpFR2	9	n/a	n/a	n/a	32	17	7	4	6
4635314	PROB	n/a	LTP207	ltpFR2	9	n/a	n/a	n/a	32	16	5	2	9
4636446	PROB	n/a	LTP207	ltpFR2	9	n/a	n/a	n/a	32	14	4	6	4
4637744	PROB	n/a	LTP207	ltpFR2	9	n/a	n/a	n/a	32	18	4	6	8
4639541	PROB	n/a	LTP207	ltpFR2	9	n/a	n/a	n/a	32	13	5	1	7
4641505	PROB	n/a	LTP207	ltpFR2	9	n/a	n/a	n/a	32	14	2	6	6
4642952	PROB	n/a	LTP207	ltpFR2	9	n/a	n/a	n/a	32	17	7	9	1
4644334	PROB	n/a	LTP207	ltpFR2	9	n/a	n/a	n/a	32	16	8	3	5
4645549	PROB	n/a	LTP207	ltpFR2	9	n/a	n/a	n/a	32	15	5	8	2
4646947	PROB	n/a	LTP207	ltpFR2	9	n/a	n/a	n/a	32	133	6	6	1
4649226	PROB	n/a	LTP207	ltpFR2	9	n/a	n/a	n/a	32	20	8	5	7
4650642	STOP	n/a	LTP207	ltpFR2	9	n/a	n/a	n/a	32	n/a	n/a	n/a	n/a
4653288	REC_START	n/a	LTP207	ltpFR2	9	21	n/a	n/a	n/a	n/a	0	0	0
4689448	REC_WORD	wordpools/wasnorm_wordpool_576.txt	LTP207	ltpFR2	9	21	SPIDER	1351	n/a	n/a	0	0	0
4755119	DISTRACTOR	n/a	LTP207	ltpFR2	9	22	n/a	n/a	n/a	n/a	0	0	0
4755120	START	n/a	LTP207	ltpFR2	9	n/a	n/a	n/a	33	n/a	n/a	n/a	n/a
4755153	PROB	n/a	LTP207	ltpFR2	9	n/a	n/a	n/a	33	8	4	1	3
4756250	PROB	n/a	LTP207	ltpFR2	9	n/a	n/a	n/a	33	11	3	1	7
4757332	PROB	n/a	LTP207	ltpFR2	9	n/a	n/a	n/a	33	13	6	5	2
4758913	PROB	n/a	LTP207	ltpFR2	9	n/a	n/a	n/a	33	13	8	1	4
4760145	PROB	n/a	LTP207	ltpFR2	9	n/a	n/a	n/a	33	8	4	1	3
4762574	PROB	n/a	LTP207	ltpFR2	9	n/a	n/a	n/a	33	16	2	5	9
4763739	PROB	n/a	LTP207	ltpFR2	9	n/a	n/a	n/a	33	18	9	1	8
4765037	PROB	n/a	LTP207	ltpFR2	9	n/a	n/a	n/a	33	20	4	9	7
4768399	PROB	n/a	LTP207	ltpFR2	9	n/a	n/a	n/a	33	14	9	3	2
4769663	PROB	n/a	LTP207	ltpFR2	9	n/a	n/a	n/a	33	19	8	6	5
4771096	PROB	n/a	LTP207	ltpFR2	9	n/a	n/a	n/a	33	13	4	1	8
4772111	PROB	n/a	LTP207	ltpFR2	9	n/a	n/a	n/a	33	13	2	5	6
4773824	PROB	n/a	LTP207	ltpFR2	9	n/a	n/a	n/a	33	26	8	9	9
4775322	PROB	n/a	LTP207	ltpFR2	9	n/a	n/a	n/a	33	7	4	1	2
4776570	PROB	n/a	LTP207	ltpFR2	9	n/a	n/a	n/a	33	11	4	8	6
4777674	STOP	n/a	LTP207	ltpFR2	9	n/a	n/a	n/a	33	n/a	n/a	n/a	n/a
4780297	WORD	wordpools/wasnorm_wordpool_576.txt	LTP207	ltpFR2	9	22	TEACHER	1440	n/a	n/a	0	0	0
4783094	WORD	wordpools/wasnorm_wordpool_576.txt	LTP207	ltpFR2	9	22	HERO	706	n/a	n/a	0	0	0
4785839	WORD	wordpools/wasnorm_wordpool_576.txt	LTP207	ltpFR2	9	22	DENIM	446	n/a	n/a	0	0	0
4788519	WORD	wordpools/wasnorm_wordpool_576.txt	LTP207	ltpFR2	9	22	CLOUD	328	n/a	n/a	0	0	0
4791166	WORD	wordpools/wasnorm_wordpool_576.txt	LTP207	ltpFR2	9	22	LAPEL	800	n/a	n/a	0	0	0
4793644	WORD	wordpools/wasnorm_wordpool_576.txt	LTP207	ltpFR2	9	22	BLOUSE	139	n/a	n/a	0	0	0
4796307	WORD	wordpools/wasnorm_wordpool_576.txt	LTP207	ltpFR2	9	22	BOUQUET	157	n/a	n/a	0	0	0
4798986	WORD	wordpools/wasnorm_wordpool_576.txt	LTP207	ltpFR2	9	22	FIREPLACE	570	n/a	n/a	0	0	0
4801699	WORD	wordpools/wasnorm_wordpool_576.txt	LTP207	ltpFR2	9	22	MATCH	878	n/a	n/a	0	0	0
4804428	WORD	wordpools/wasnorm_wordpool_576.txt	LTP207	ltpFR2	9	22	OZONE	996	n/a	n/a	0	0	0
4806958	WORD	wordpools/wasnorm_wordpool_576.txt	LTP207	ltpFR2	9	22	GROUND	666	n/a	n/a	0	0	0
4809537	WORD	wordpools/wasnorm_wordpool_576.txt	LTP207	ltpFR2	9	22	MATTRESS	879	n/a	n/a	0	0	0
4812118	WORD	wordpools/wasnorm_wordpool_576.txt	LTP207	ltpFR2	9	22	GUARD	667	n/a	n/a	0	0	0
4814763	WORD	wordpools/wasnorm_wordpool_576.txt	LTP207	ltpFR2	9	22	SWORD	1423	n/a	n/a	0	0	0
4817309	WORD	wordpools/wasnorm_wordpool_576.txt	LTP207	ltpFR2	9	22	HARP	689	n/a	n/a	0	0	0
4820021	WORD	wordpools/wasnorm_wordpool_576.txt	LTP207	ltpFR2	9	22	BANK	83	n/a	n/a	0	0	0
4822734	WORD	wordpools/wasnorm_wordpool_576.txt	LTP207	ltpFR2	9	22	LOFT	840	n/a	n/a	0	0	0
4825347	WORD	wordpools/wasnorm_wordpool_576.txt	LTP207	ltpFR2	9	22	SERVANT	1271	n/a	n/a	0	0	0
4827993	WORD	wordpools/wasnorm_wordpool_576.txt	LTP207	ltpFR2	9	22	POET	1095	n/a	n/a	0	0	0
4830572	WORD	wordpools/wasnorm_wordpool_576.txt	LTP207	ltpFR2	9	22	COLLEGE	346	n/a	n/a	0	0	0
4833136	WORD	wordpools/wasnorm_wordpool_576.txt	LTP207	ltpFR2	9	22	JAPAN	749	n/a	n/a	0	0	0
4835781	WORD	wordpools/wasnorm_wordpool_576.txt	LTP207	ltpFR2	9	22	ORANGE	980	n/a	n/a	0	0	0
4838344	WORD	wordpools/wasnorm_wordpool_576.txt	LTP207	ltpFR2	9	22	SPACE	1345	n/a	n/a	0	0	0
4840990	WORD	wordpools/wasnorm_wordpool_576.txt	LTP207	ltpFR2	9	22	CRIB	407	n/a	n/a	0	0	0
4842605	START	n/a	LTP207	ltpFR2	9	n/a	n/a	n/a	34	n/a	n/a	n/a	n/a
4843491	DISTRACTOR	n/a	LTP207	ltpFR2	9	22	n/a	n/a	n/a	n/a	0	0	0
4843503	PROB	n/a	LTP207	ltpFR2	9	n/a	n/a	n/a	34	19	8	2	9
4845102	PROB	n/a	LTP207	ltpFR2	9	n/a	n/a	n/a	34	14	3	5	6
4846615	PROB	n/a	LTP207	ltpFR2	9	n/a	n/a	n/a	34	16	5	3	8
4848329	PROB	n/a	LTP207	ltpFR2	9	n/a	n/a	n/a	34	16	5	4	7
4849544	PROB	n/a	LTP207	ltpFR2	9	n/a	n/a	n/a	34	15	5	8	2
4850776	PROB	n/a	LTP207	ltpFR2	9	n/a	n/a	n/a	34	20	9	8	3
4853239	PROB	n/a	LTP207	ltpFR2	9	n/a	n/a	n/a	34	16	8	6	2
4854653	PROB	n/a	LTP207	ltpFR2	9	n/a	n/a	n/a	34	21	6	7	8
4856933	PROB	n/a	LTP207	ltpFR2	9	n/a	n/a	n/a	34	22	6	8	8
4858814	PROB	n/a	LTP207	ltpFR2	9	n/a	n/a	n/a	34	20	7	8	5
4860428	PROB	n/a	LTP207	ltpFR2	9	n/a	n/a	n/a	34	15	9	1	6
4861593	PROB	n/a	LTP207	ltpFR2	9	n/a	n/a	n/a	34	17	8	8	1
4863756	PROB	n/a	LTP207	ltpFR2	9	n/a	n/a	n/a	34	111	4	4	3
4866187	STOP	n/a	LTP207	ltpFR2	9	n/a	n/a	n/a	34	n/a	n/a	n/a	n/a
4868383	REC_START	n/a	LTP207	ltpFR2	9	22	n/a	n/a	n/a	n/a	0	0	0
4870469	REC_WORD	wordpools/wasnorm_wordpool_576.txt	LTP207	ltpFR2	9	22	OZONE	996	n/a	n/a	0	0	0
4872030	REC_WORD	wordpools/wasnorm_wordpool_576.txt	LTP207	ltpFR2	9	22	FIREPLACE	570	n/a	n/a	0	0	0
4873030	REC_WORD_VV	wordpools/wasnorm_wordpool_576.txt	LTP207	ltpFR2	9	22	<>	-1	n/a	n/a	0	0	0
4873905	REC_WORD	wordpools/wasnorm_wordpool_576.txt	LTP207	ltpFR2	9	22	MATCH	878	n/a	n/a	0	0	0
4884523	REC_WORD	wordpools/wasnorm_wordpool_576.txt	LTP207	ltpFR2	9	22	ORANGE	980	n/a	n/a	0	0	0
4899251	REC_WORD	wordpools/wasnorm_wordpool_576.txt	LTP207	ltpFR2	9	22	TEACHER	1440	n/a	n/a	0	0	0
4901197	REC_WORD	wordpools/wasnorm_wordpool_576.txt	LTP207	ltpFR2	9	22	HERO	706	n/a	n/a	0	0	0
4959047	WORD	wordpools/wasnorm_wordpool_576.txt	LTP207	ltpFR2	9	23	WINDOW	1611	n/a	n/a	0	0	0
4961793	WORD	wordpools/wasnorm_wordpool_576.txt	LTP207	ltpFR2	9	23	LABEL	790	n/a	n/a	0	0	0
4964339	WORD	wordpools/wasnorm_wordpool_576.txt	LTP207	ltpFR2	9	23	BASEMENT	94	n/a	n/a	0	0	0
4966786	WORD	wordpools/wasnorm_wordpool_576.txt	LTP207	ltpFR2	9	23	IGLOO	734	n/a	n/a	0	0	0
4969582	WORD	wordpools/wasnorm_wordpool_576.txt	LTP207	ltpFR2	9	23	MEDAL	885	n/a	n/a	0	0	0
4972394	WORD	wordpools/wasnorm_wordpool_576.txt	LTP207	ltpFR2	9	23	SWIMMER	1420	n/a	n/a	0	0	0
4974890	WORD	wordpools/wasnorm_wordpool_576.txt	LTP207	ltpFR2	9	23	RUST	1219	n/a	n/a	0	0	0
4977403	WORD	wordpools/wasnorm_wordpool_576.txt	LTP207	ltpFR2	9	23	TRANSPLANT	1496	n/a	n/a	0	0	0
4979900	WORD	wordpools/wasnorm_wordpool_576.txt	LTP207	ltpFR2	9	23	FLESH	579	n/a	n/a	0	0	0
4982629	WORD	wordpools/wasnorm_wordpool_576.txt	LTP207	ltpFR2	9	23	TYPIST	1532	n/a	n/a	0	0	0
4985109	WORD	wordpools/wasnorm_wordpool_576.txt	LTP207	ltpFR2	9	23	MOTEL	919	n/a	n/a	0	0	0
4987821	WORD	wordpools/wasnorm_wordpool_576.txt	LTP207	ltpFR2	9	23	THRONE	1461	n/a	n/a	0	0	0
4990484	WORD	wordpools/wasnorm_wordpool_576.txt	LTP207	ltpFR2	9	23	HELMET	702	n/a	n/a	0	0	0
4993081	WORD	wordpools/wasnorm_wordpool_576.txt	LTP207	ltpFR2	9	23	PADDLE	1000	n/a	n/a	0	0	0
4995543	WORD	wordpools/wasnorm_wordpool_576.txt	LTP207	ltpFR2	9	23	GHETTO	633	n/a	n/a	0	0	0
4998190	WORD	wordpools/wasnorm_wordpool_576.txt	LTP207	ltpFR2	9	23	AIRPORT	13	n/a	n/a	0	0	0
5000652	WORD	wordpools/wasnorm_wordpool_576.txt	LTP207	ltpFR2	9	23	CROWN	415	n/a	n/a	0	0	0
5003281	WORD	wordpools/wasnorm_wordpool_576.txt	LTP207	ltpFR2	9	23	GREASE	660	n/a	n/a	0	0	0
5006060	WORD	wordpools/wasnorm_wordpool_576.txt	LTP207	ltpFR2	9	23	CHAMPAGNE	278	n/a	n/a	0	0	0
5008823	WORD	wordpools/wasnorm_wordpool_576.txt	LTP207	ltpFR2	9	23	DRINK	498	n/a	n/a	0	0	0
5011353	WORD	wordpools/wasnorm_wordpool_576.txt	LTP207	ltpFR2	9	23	SWITCH	1422	n/a	n/a	0	0	0
5013932	WORD	wordpools/wasnorm_wordpool_576.txt	LTP207	ltpFR2	9	23	GYMNAST	675	n/a	n/a	0	0	0
5016711	WORD	wordpools/wasnorm_wordpool_576.txt	LTP207	ltpFR2	9	23	HEDGE	699	n/a	n/a	0	0	0
5019307	WORD	wordpools/wasnorm_wordpool_576.txt	LTP207	ltpFR2	9	23	TRUCK	1512	n/a	n/a	0	0	0
5020922	START	n/a	LTP207	ltpFR2	9	n/a	n/a	n/a	35	n/a	n/a	n/a	n/a
5021871	DISTRACTOR	n/a	LTP207	ltpFR2	9	23	n/a	n/a	n/a	n/a	0	0	0
5021887	PROB	n/a	LTP207	ltpFR2	9	n/a	n/a	n/a	35	16	4	9	3
5023534	PROB	n/a	LTP207	ltpFR2	9	n/a	n/a	n/a	35	14	6	6	2
5024799	PROB	n/a	LTP207	ltpFR2	9	n/a	n/a	n/a	35	11	9	1	1
5025914	PROB	n/a	LTP207	ltpFR2	9	n/a	n/a	n/a	35	6	4	1	1
5027080	PROB	n/a	LTP207	ltpFR2	9	n/a	n/a	n/a	35	22	7	9	6
5028893	PROB	n/a	LTP207	ltpFR2	9	n/a	n/a	n/a	35	11	2	3	6
5030308	PROB	n/a	LTP207	ltpFR2	9	n/a	n/a	n/a	35	24	8	9	7
5032371	PROB	n/a	LTP207	ltpFR2	9	n/a	n/a	n/a	35	16	7	5	4
5033919	PROB	n/a	LTP207	ltpFR2	9	n/a	n/a	n/a	35	22	6	9	7
5036183	PROB	n/a	LTP207	ltpFR2	9	n/a	n/a	n/a	35	15	3	7	5
5037630	PROB	n/a	LTP207	ltpFR2	9	n/a	n/a	n/a	35	14	1	7	6
5039278	PROB	n/a	LTP207	ltpFR2	9	n/a	n/a	n/a	35	17	3	6	8
5042240	PROB	n/a	LTP207	ltpFR2	9	n/a	n/a	n/a	35	17	8	4	5
5043674	STOP	n/a	LTP207	ltpFR2	9	n/a	n/a	n/a	35	n/a	n/a	n/a	n/a
5046700	REC_START	n/a	LTP207	ltpFR2	9	23	n/a	n/a	n/a	n/a	0	0	0
5050860	REC_WORD	wordpools/wasnorm_wordpool_576.txt	LTP207	ltpFR2	9	23	BASEMENT	94	n/a	n/a	0	0	0
5051810	REC_WORD	wordpools/wasnorm_wordpool_576.txt	LTP207	ltpFR2	9	23	WINDOW	1611	n/a	n/a	0	0	0
5052856	REC_WORD	wordpools/wasnorm_wordpool_576.txt	LTP207	ltpFR2	9	23	LABEL	790	n/a	n/a	0	0	0
5054392	REC_WORD	wordpools/wasnorm_wordpool_576.txt	LTP207	ltpFR2	9	23	IGLOO	734	n/a	n/a	0	0	0
5056291	REC_WORD	wordpools/wasnorm_wordpool_576.txt	LTP207	ltpFR2	9	23	MEDAL	885	n/a	n/a	0	0	0
