onset	duration	trial_type	sample	stim_file	subject	experiment	session	trial	task	item_name	item_num	recog_resp	recog_conf	resp	answer	test_x	test_y	test_z	color_r	color_g	color_b	case	font
276.64	n/a	SESS_START	69160	n/a	LTP251	ltpFR	9	n/a	n/a	n/a	n/a	1	1	n/a	n/a	0	0	0	n/a	n/a	n/a	n/a	n/a
304.372	n/a	START	76093	n/a	LTP251	ltpFR	9	n/a	n/a	n/a	n/a	n/a	n/a	n/a	n/a	n/a	n/a	n/a	n/a	n/a	n/a	n/a	n/a
304.42	n/a	PROB	76105	n/a	LTP251	ltpFR	9	n/a	n/a	n/a	n/a	n/a	n/a	n/a	13	3	2	5	n/a	n/a	n/a	n/a	n/a
306.912	n/a	PROB	76728	n/a	LTP251	ltpFR	9	n/a	n/a	n/a	n/a	n/a	n/a	n/a	13	2	4	7	n/a	n/a	n/a	n/a	n/a
309.536	n/a	PROB	77384	n/a	LTP251	ltpFR	9	n/a	n/a	n/a	n/a	n/a	n/a	n/a	15	9	4	1	n/a	n/a	n/a	n/a	n/a
312.032	n/a	PROB	78008	n/a	LTP251	ltpFR	9	n/a	n/a	n/a	n/a	n/a	n/a	n/a	21	8	9	4	n/a	n/a	n/a	n/a	n/a
314.576	n/a	PROB	78644	n/a	LTP251	ltpFR	9	n/a	n/a	n/a	n/a	n/a	n/a	n/a	15	7	6	2	n/a	n/a	n/a	n/a	n/a
316.2	n/a	PROB	79050	n/a	LTP251	ltpFR	9	n/a	n/a	n/a	n/a	n/a	n/a	n/a	13	3	4	6	n/a	n/a	n/a	n/a	n/a
318.12	n/a	PROB	79530	n/a	LTP251	ltpFR	9	n/a	n/a	n/a	n/a	n/a	n/a	n/a	9	4	4	1	n/a	n/a	n/a	n/a	n/a
319.36	n/a	PROB	79840	n/a	LTP251	ltpFR	9	n/a	n/a	n/a	n/a	n/a	n/a	n/a	16	8	1	7	n/a	n/a	n/a	n/a	n/a
320.8	n/a	PROB	80200	n/a	LTP251	ltpFR	9	n/a	n/a	n/a	n/a	n/a	n/a	n/a	9	4	4	1	n/a	n/a	n/a	n/a	n/a
322.02	n/a	PROB	80505	n/a	LTP251	ltpFR	9	n/a	n/a	n/a	n/a	n/a	n/a	n/a	17	1	9	8	n/a	n/a	n/a	n/a	n/a
323.576	n/a	STOP	80894	n/a	LTP251	ltpFR	9	n/a	n/a	n/a	n/a	n/a	n/a	n/a	n/a	n/a	n/a	n/a	n/a	n/a	n/a	n/a	n/a
347.756	n/a	START	86939	n/a	LTP251	ltpFR	9	n/a	n/a	n/a	n/a	n/a	n/a	n/a	n/a	n/a	n/a	n/a	n/a	n/a	n/a	n/a	n/a
349.26	n/a	PROB	87315	n/a	LTP251	ltpFR	9	n/a	n/a	n/a	n/a	n/a	n/a	n/a	16	6	9	1	n/a	n/a	n/a	n/a	n/a
351.184	n/a	PROB	87796	n/a	LTP251	ltpFR	9	n/a	n/a	n/a	n/a	n/a	n/a	n/a	13	9	1	2	n/a	n/a	n/a	n/a	n/a
352.856	n/a	PROB	88214	n/a	LTP251	ltpFR	9	n/a	n/a	n/a	n/a	n/a	n/a	n/a	4	2	2	1	n/a	n/a	n/a	n/a	n/a
354.98	n/a	STOP	88745	n/a	LTP251	ltpFR	9	n/a	n/a	n/a	n/a	n/a	n/a	n/a	n/a	n/a	n/a	n/a	n/a	n/a	n/a	n/a	n/a
356.62	n/a	WORD	89155	wordpools/wasnorm_wordpool_less_exclusions.txt	LTP251	ltpFR	9	1	0	TOWER	1490	0	1	1	n/a	0	0	0	0.422607421875	0.5869140625	0	lower	amplitud.ttf
359.632	n/a	START	89908	n/a	LTP251	ltpFR	9	n/a	n/a	n/a	n/a	n/a	n/a	n/a	n/a	n/a	n/a	n/a	n/a	n/a	n/a	n/a	n/a
360.452	n/a	PROB	90113	n/a	LTP251	ltpFR	9	n/a	n/a	n/a	n/a	n/a	n/a	n/a	19	7	3	9	n/a	n/a	n/a	n/a	n/a
362.424	n/a	PROB	90606	n/a	LTP251	ltpFR	9	n/a	n/a	n/a	n/a	n/a	n/a	n/a	17	3	7	7	n/a	n/a	n/a	n/a	n/a
364.352	n/a	PROB	91088	n/a	LTP251	ltpFR	9	n/a	n/a	n/a	n/a	n/a	n/a	n/a	13	1	8	4	n/a	n/a	n/a	n/a	n/a
365.672	n/a	PROB	91418	n/a	LTP251	ltpFR	9	n/a	n/a	n/a	n/a	n/a	n/a	n/a	8	6	1	1	n/a	n/a	n/a	n/a	n/a
366.924	n/a	STOP	91731	n/a	LTP251	ltpFR	9	n/a	n/a	n/a	n/a	n/a	n/a	n/a	n/a	n/a	n/a	n/a	n/a	n/a	n/a	n/a	n/a
368.852	n/a	WORD	92213	wordpools/wasnorm_wordpool_less_exclusions.txt	LTP251	ltpFR	9	1	0	LETTER	813	0	n/a	0	n/a	0	0	0	0.422607421875	0.5869140625	0	lower	amplitud.ttf
371.864	n/a	START	92966	n/a	LTP251	ltpFR	9	n/a	n/a	n/a	n/a	n/a	n/a	n/a	n/a	n/a	n/a	n/a	n/a	n/a	n/a	n/a	n/a
373.068	n/a	PROB	93267	n/a	LTP251	ltpFR	9	n/a	n/a	n/a	n/a	n/a	n/a	n/a	17	7	5	5	n/a	n/a	n/a	n/a	n/a
374.54	n/a	PROB	93635	n/a	LTP251	ltpFR	9	n/a	n/a	n/a	n/a	n/a	n/a	n/a	14	3	8	3	n/a	n/a	n/a	n/a	n/a
376.328	n/a	PROB	94082	n/a	LTP251	ltpFR	9	n/a	n/a	n/a	n/a	n/a	n/a	n/a	16	6	5	5	n/a	n/a	n/a	n/a	n/a
378.1	n/a	PROB	94525	n/a	LTP251	ltpFR	9	n/a	n/a	n/a	n/a	n/a	n/a	n/a	12	9	2	1	n/a	n/a	n/a	n/a	n/a
379.532	n/a	STOP	94883	n/a	LTP251	ltpFR	9	n/a	n/a	n/a	n/a	n/a	n/a	n/a	n/a	n/a	n/a	n/a	n/a	n/a	n/a	n/a	n/a
381.08	n/a	WORD	95270	wordpools/wasnorm_wordpool_less_exclusions.txt	LTP251	ltpFR	9	1	0	BASKET	95	n/a	n/a	1	n/a	0	0	0	0.422607421875	0.5869140625	0	lower	amplitud.ttf
384.092	n/a	START	96023	n/a	LTP251	ltpFR	9	n/a	n/a	n/a	n/a	n/a	n/a	n/a	n/a	n/a	n/a	n/a	n/a	n/a	n/a	n/a	n/a
385.08	n/a	PROB	96270	n/a	LTP251	ltpFR	9	n/a	n/a	n/a	n/a	n/a	n/a	n/a	15	7	5	3	n/a	n/a	n/a	n/a	n/a
386.684	n/a	PROB	96671	n/a	LTP251	ltpFR	9	n/a	n/a	n/a	n/a	n/a	n/a	n/a	22	6	7	9	n/a	n/a	n/a	n/a	n/a
389.176	n/a	PROB	97294	n/a	LTP251	ltpFR	9	n/a	n/a	n/a	n/a	n/a	n/a	n/a	16	5	9	2	n/a	n/a	n/a	n/a	n/a
391.78	n/a	STOP	97945	n/a	LTP251	ltpFR	9	n/a	n/a	n/a	n/a	n/a	n/a	n/a	n/a	n/a	n/a	n/a	n/a	n/a	n/a	n/a	n/a
392.944	n/a	WORD	98236	wordpools/wasnorm_wordpool_less_exclusions.txt	LTP251	ltpFR	9	1	1	COTTON	385	n/a	n/a	0	n/a	0	0	0	0.57763671875	0.412841796875	1	upper	zerothre.ttf
395.956	n/a	START	98989	n/a	LTP251	ltpFR	9	n/a	n/a	n/a	n/a	n/a	n/a	n/a	n/a	n/a	n/a	n/a	n/a	n/a	n/a	n/a	n/a
396.824	n/a	PROB	99206	n/a	LTP251	ltpFR	9	n/a	n/a	n/a	n/a	n/a	n/a	n/a	13	8	2	3	n/a	n/a	n/a	n/a	n/a
398.592	n/a	PROB	99648	n/a	LTP251	ltpFR	9	n/a	n/a	n/a	n/a	n/a	n/a	n/a	10	5	3	2	n/a	n/a	n/a	n/a	n/a
400.168	n/a	PROB	100042	n/a	LTP251	ltpFR	9	n/a	n/a	n/a	n/a	n/a	n/a	n/a	9	1	5	3	n/a	n/a	n/a	n/a	n/a
403.956	n/a	STOP	100989	n/a	LTP251	ltpFR	9	n/a	n/a	n/a	n/a	n/a	n/a	n/a	n/a	n/a	n/a	n/a	n/a	n/a	n/a	n/a	n/a
404.84	n/a	WORD	101210	wordpools/wasnorm_wordpool_less_exclusions.txt	LTP251	ltpFR	9	1	1	SCROLL	1257	n/a	n/a	0	n/a	0	0	0	0.57763671875	0.412841796875	1	upper	zerothre.ttf
407.852	n/a	START	101963	n/a	LTP251	ltpFR	9	n/a	n/a	n/a	n/a	n/a	n/a	n/a	n/a	n/a	n/a	n/a	n/a	n/a	n/a	n/a	n/a
408.868	n/a	PROB	102217	n/a	LTP251	ltpFR	9	n/a	n/a	n/a	n/a	n/a	n/a	n/a	10	5	3	2	n/a	n/a	n/a	n/a	n/a
411.176	n/a	PROB	102794	n/a	LTP251	ltpFR	9	n/a	n/a	n/a	n/a	n/a	n/a	n/a	19	7	4	8	n/a	n/a	n/a	n/a	n/a
414.272	n/a	PROB	103568	n/a	LTP251	ltpFR	9	n/a	n/a	n/a	n/a	n/a	n/a	n/a	18	8	2	8	n/a	n/a	n/a	n/a	n/a
415.78	n/a	STOP	103945	n/a	LTP251	ltpFR	9	n/a	n/a	n/a	n/a	n/a	n/a	n/a	n/a	n/a	n/a	n/a	n/a	n/a	n/a	n/a	n/a
416.748	n/a	WORD	104187	wordpools/wasnorm_wordpool_less_exclusions.txt	LTP251	ltpFR	9	1	1	SECRETARY	1265	n/a	n/a	0	n/a	0	0	0	0.57763671875	0.412841796875	1	upper	zerothre.ttf
419.76	n/a	START	104940	n/a	LTP251	ltpFR	9	n/a	n/a	n/a	n/a	n/a	n/a	n/a	n/a	n/a	n/a	n/a	n/a	n/a	n/a	n/a	n/a
420.596	n/a	PROB	105149	n/a	LTP251	ltpFR	9	n/a	n/a	n/a	n/a	n/a	n/a	n/a	14	9	1	3	n/a	n/a	n/a	n/a	n/a
421.904	n/a	PROB	105476	n/a	LTP251	ltpFR	9	n/a	n/a	n/a	n/a	n/a	n/a	n/a	13	3	4	7	n/a	n/a	n/a	n/a	n/a
423.808	n/a	PROB	105952	n/a	LTP251	ltpFR	9	n/a	n/a	n/a	n/a	n/a	n/a	n/a	11	9	2	2	n/a	n/a	n/a	n/a	n/a
427.764	n/a	STOP	106941	n/a	LTP251	ltpFR	9	n/a	n/a	n/a	n/a	n/a	n/a	n/a	n/a	n/a	n/a	n/a	n/a	n/a	n/a	n/a	n/a
428.628	n/a	WORD	107157	wordpools/wasnorm_wordpool_less_exclusions.txt	LTP251	ltpFR	9	1	1	EMPLOYEE	531	n/a	n/a	0	n/a	0	0	0	0.57763671875	0.412841796875	1	upper	zerothre.ttf
431.64	n/a	START	107910	n/a	LTP251	ltpFR	9	n/a	n/a	n/a	n/a	n/a	n/a	n/a	n/a	n/a	n/a	n/a	n/a	n/a	n/a	n/a	n/a
432.796	n/a	PROB	108199	n/a	LTP251	ltpFR	9	n/a	n/a	n/a	n/a	n/a	n/a	n/a	18	6	6	6	n/a	n/a	n/a	n/a	n/a
434.312	n/a	PROB	108578	n/a	LTP251	ltpFR	9	n/a	n/a	n/a	n/a	n/a	n/a	n/a	22	6	9	7	n/a	n/a	n/a	n/a	n/a
437.896	n/a	PROB	109474	n/a	LTP251	ltpFR	9	n/a	n/a	n/a	n/a	n/a	n/a	n/a	19	7	5	7	n/a	n/a	n/a	n/a	n/a
439.5	n/a	STOP	109875	n/a	LTP251	ltpFR	9	n/a	n/a	n/a	n/a	n/a	n/a	n/a	n/a	n/a	n/a	n/a	n/a	n/a	n/a	n/a	n/a
440.692	n/a	WORD	110173	wordpools/wasnorm_wordpool_less_exclusions.txt	LTP251	ltpFR	9	1	1	BALL	73	n/a	n/a	0	n/a	0	0	0	0.57763671875	0.412841796875	1	upper	zerothre.ttf
443.704	n/a	START	110926	n/a	LTP251	ltpFR	9	n/a	n/a	n/a	n/a	n/a	n/a	n/a	n/a	n/a	n/a	n/a	n/a	n/a	n/a	n/a	n/a
444.824	n/a	PROB	111206	n/a	LTP251	ltpFR	9	n/a	n/a	n/a	n/a	n/a	n/a	n/a	8	2	3	3	n/a	n/a	n/a	n/a	n/a
446.864	n/a	PROB	111716	n/a	LTP251	ltpFR	9	n/a	n/a	n/a	n/a	n/a	n/a	n/a	11	1	2	8	n/a	n/a	n/a	n/a	n/a
448.404	n/a	PROB	112101	n/a	LTP251	ltpFR	9	n/a	n/a	n/a	n/a	n/a	n/a	n/a	20	3	4	8	n/a	n/a	n/a	n/a	n/a
451.704	n/a	STOP	112926	n/a	LTP251	ltpFR	9	n/a	n/a	n/a	n/a	n/a	n/a	n/a	n/a	n/a	n/a	n/a	n/a	n/a	n/a	n/a	n/a
452.552	n/a	WORD	113138	wordpools/wasnorm_wordpool_less_exclusions.txt	LTP251	ltpFR	9	1	1	COTTAGE	384	n/a	n/a	0	n/a	0	0	0	0.57763671875	0.412841796875	1	upper	zerothre.ttf
455.564	n/a	START	113891	n/a	LTP251	ltpFR	9	n/a	n/a	n/a	n/a	n/a	n/a	n/a	n/a	n/a	n/a	n/a	n/a	n/a	n/a	n/a	n/a
456.636	n/a	PROB	114159	n/a	LTP251	ltpFR	9	n/a	n/a	n/a	n/a	n/a	n/a	n/a	25	9	7	9	n/a	n/a	n/a	n/a	n/a
458.796	n/a	PROB	114699	n/a	LTP251	ltpFR	9	n/a	n/a	n/a	n/a	n/a	n/a	n/a	18	9	6	3	n/a	n/a	n/a	n/a	n/a
461.02	n/a	PROB	115255	n/a	LTP251	ltpFR	9	n/a	n/a	n/a	n/a	n/a	n/a	n/a	21	6	8	7	n/a	n/a	n/a	n/a	n/a
463.256	n/a	STOP	115814	n/a	LTP251	ltpFR	9	n/a	n/a	n/a	n/a	n/a	n/a	n/a	n/a	n/a	n/a	n/a	n/a	n/a	n/a	n/a	n/a
464.584	n/a	WORD	116146	wordpools/wasnorm_wordpool_less_exclusions.txt	LTP251	ltpFR	9	1	0	HOME	712	n/a	n/a	0	n/a	0	0	0	0.422607421875	0.5869140625	0	lower	amplitud.ttf
467.596	n/a	START	116899	n/a	LTP251	ltpFR	9	n/a	n/a	n/a	n/a	n/a	n/a	n/a	n/a	n/a	n/a	n/a	n/a	n/a	n/a	n/a	n/a
468.716	n/a	PROB	117179	n/a	LTP251	ltpFR	9	n/a	n/a	n/a	n/a	n/a	n/a	n/a	14	4	5	5	n/a	n/a	n/a	n/a	n/a
470.468	n/a	PROB	117617	n/a	LTP251	ltpFR	9	n/a	n/a	n/a	n/a	n/a	n/a	n/a	18	6	5	7	n/a	n/a	n/a	n/a	n/a
472.16	n/a	PROB	118040	n/a	LTP251	ltpFR	9	n/a	n/a	n/a	n/a	n/a	n/a	n/a	15	8	2	5	n/a	n/a	n/a	n/a	n/a
473.652	n/a	PROB	118413	n/a	LTP251	ltpFR	9	n/a	n/a	n/a	n/a	n/a	n/a	n/a	13	6	5	1	n/a	n/a	n/a	n/a	n/a
475.016	n/a	STOP	118754	n/a	LTP251	ltpFR	9	n/a	n/a	n/a	n/a	n/a	n/a	n/a	n/a	n/a	n/a	n/a	n/a	n/a	n/a	n/a	n/a
476.66	n/a	WORD	119165	wordpools/wasnorm_wordpool_less_exclusions.txt	LTP251	ltpFR	9	1	0	SIDEWALK	1303	n/a	n/a	1	n/a	0	0	0	0.422607421875	0.5869140625	0	lower	amplitud.ttf
479.676	n/a	START	119919	n/a	LTP251	ltpFR	9	n/a	n/a	n/a	n/a	n/a	n/a	n/a	n/a	n/a	n/a	n/a	n/a	n/a	n/a	n/a	n/a
480.64	n/a	PROB	120160	n/a	LTP251	ltpFR	9	n/a	n/a	n/a	n/a	n/a	n/a	n/a	24	9	8	7	n/a	n/a	n/a	n/a	n/a
483.892	n/a	PROB	120973	n/a	LTP251	ltpFR	9	n/a	n/a	n/a	n/a	n/a	n/a	n/a	10	4	2	4	n/a	n/a	n/a	n/a	n/a
486.672	n/a	STOP	121668	n/a	LTP251	ltpFR	9	n/a	n/a	n/a	n/a	n/a	n/a	n/a	n/a	n/a	n/a	n/a	n/a	n/a	n/a	n/a	n/a
488.692	n/a	WORD	122173	wordpools/wasnorm_wordpool_less_exclusions.txt	LTP251	ltpFR	9	1	0	SEAGULL	1261	n/a	n/a	0	n/a	0	0	0	0.422607421875	0.5869140625	0	lower	amplitud.ttf
491.704	n/a	START	122926	n/a	LTP251	ltpFR	9	n/a	n/a	n/a	n/a	n/a	n/a	n/a	n/a	n/a	n/a	n/a	n/a	n/a	n/a	n/a	n/a
492.556	n/a	PROB	123139	n/a	LTP251	ltpFR	9	n/a	n/a	n/a	n/a	n/a	n/a	n/a	16	3	4	9	n/a	n/a	n/a	n/a	n/a
494.144	n/a	PROB	123536	n/a	LTP251	ltpFR	9	n/a	n/a	n/a	n/a	n/a	n/a	n/a	14	9	3	2	n/a	n/a	n/a	n/a	n/a
496.02	n/a	PROB	124005	n/a	LTP251	ltpFR	9	n/a	n/a	n/a	n/a	n/a	n/a	n/a	12	1	6	5	n/a	n/a	n/a	n/a	n/a
498.2	n/a	STOP	124550	n/a	LTP251	ltpFR	9	n/a	n/a	n/a	n/a	n/a	n/a	n/a	n/a	n/a	n/a	n/a	n/a	n/a	n/a	n/a	n/a
500.888	n/a	WORD	125222	wordpools/wasnorm_wordpool_less_exclusions.txt	LTP251	ltpFR	9	1	1	PELICAN	1039	n/a	n/a	0	n/a	0	0	0	0.57763671875	0.412841796875	1	upper	zerothre.ttf
503.9	n/a	START	125975	n/a	LTP251	ltpFR	9	n/a	n/a	n/a	n/a	n/a	n/a	n/a	n/a	n/a	n/a	n/a	n/a	n/a	n/a	n/a	n/a
504.836	n/a	PROB	126209	n/a	LTP251	ltpFR	9	n/a	n/a	n/a	n/a	n/a	n/a	n/a	10	8	1	1	n/a	n/a	n/a	n/a	n/a
506.076	n/a	PROB	126519	n/a	LTP251	ltpFR	9	n/a	n/a	n/a	n/a	n/a	n/a	n/a	8	2	3	3	n/a	n/a	n/a	n/a	n/a
507.996	n/a	PROB	126999	n/a	LTP251	ltpFR	9	n/a	n/a	n/a	n/a	n/a	n/a	n/a	18	8	9	1	n/a	n/a	n/a	n/a	n/a
510.552	n/a	STOP	127638	n/a	LTP251	ltpFR	9	n/a	n/a	n/a	n/a	n/a	n/a	n/a	n/a	n/a	n/a	n/a	n/a	n/a	n/a	n/a	n/a
513.116	n/a	WORD	128279	wordpools/wasnorm_wordpool_less_exclusions.txt	LTP251	ltpFR	9	1	1	FOLDER	588	n/a	n/a	0	n/a	0	0	0	0.57763671875	0.412841796875	1	upper	zerothre.ttf
516.128	n/a	START	129032	n/a	LTP251	ltpFR	9	n/a	n/a	n/a	n/a	n/a	n/a	n/a	n/a	n/a	n/a	n/a	n/a	n/a	n/a	n/a	n/a
517.216	n/a	PROB	129304	n/a	LTP251	ltpFR	9	n/a	n/a	n/a	n/a	n/a	n/a	n/a	15	5	4	6	n/a	n/a	n/a	n/a	n/a
518.852	n/a	PROB	129713	n/a	LTP251	ltpFR	9	n/a	n/a	n/a	n/a	n/a	n/a	n/a	17	8	7	2	n/a	n/a	n/a	n/a	n/a
520.648	n/a	PROB	130162	n/a	LTP251	ltpFR	9	n/a	n/a	n/a	n/a	n/a	n/a	n/a	19	9	3	7	n/a	n/a	n/a	n/a	n/a
522.892	n/a	STOP	130723	n/a	LTP251	ltpFR	9	n/a	n/a	n/a	n/a	n/a	n/a	n/a	n/a	n/a	n/a	n/a	n/a	n/a	n/a	n/a	n/a
525.312	n/a	WORD	131328	wordpools/wasnorm_wordpool_less_exclusions.txt	LTP251	ltpFR	9	1	0	PAPER	1011	n/a	n/a	0	n/a	0	0	0	0.422607421875	0.5869140625	0	lower	amplitud.ttf
528.328	n/a	START	132082	n/a	LTP251	ltpFR	9	n/a	n/a	n/a	n/a	n/a	n/a	n/a	n/a	n/a	n/a	n/a	n/a	n/a	n/a	n/a	n/a
529.164	n/a	PROB	132291	n/a	LTP251	ltpFR	9	n/a	n/a	n/a	n/a	n/a	n/a	n/a	15	2	4	9	n/a	n/a	n/a	n/a	n/a
531.284	n/a	PROB	132821	n/a	LTP251	ltpFR	9	n/a	n/a	n/a	n/a	n/a	n/a	n/a	16	1	6	9	n/a	n/a	n/a	n/a	n/a
533.508	n/a	PROB	133377	n/a	LTP251	ltpFR	9	n/a	n/a	n/a	n/a	n/a	n/a	n/a	10	2	7	1	n/a	n/a	n/a	n/a	n/a
535.172	n/a	STOP	133793	n/a	LTP251	ltpFR	9	n/a	n/a	n/a	n/a	n/a	n/a	n/a	n/a	n/a	n/a	n/a	n/a	n/a	n/a	n/a	n/a
537.16	n/a	WORD	134290	wordpools/wasnorm_wordpool_less_exclusions.txt	LTP251	ltpFR	9	1	0	ARCHITECT	36	n/a	n/a	1	n/a	0	0	0	0.422607421875	0.5869140625	0	lower	amplitud.ttf
540.172	n/a	START	135043	n/a	LTP251	ltpFR	9	n/a	n/a	n/a	n/a	n/a	n/a	n/a	n/a	n/a	n/a	n/a	n/a	n/a	n/a	n/a	n/a
541.292	n/a	PROB	135323	n/a	LTP251	ltpFR	9	n/a	n/a	n/a	n/a	n/a	n/a	n/a	19	8	9	2	n/a	n/a	n/a	n/a	n/a
544.372	n/a	PROB	136093	n/a	LTP251	ltpFR	9	n/a	n/a	n/a	n/a	n/a	n/a	n/a	17	5	6	6	n/a	n/a	n/a	n/a	n/a
547.116	n/a	STOP	136779	n/a	LTP251	ltpFR	9	n/a	n/a	n/a	n/a	n/a	n/a	n/a	n/a	n/a	n/a	n/a	n/a	n/a	n/a	n/a	n/a
549.992	n/a	REC_START	137498	n/a	LTP251	ltpFR	9	1	n/a	n/a	n/a	n/a	n/a	n/a	n/a	0	0	0	n/a	n/a	n/a	n/a	n/a
551.608	n/a	REC_WORD	137902	wordpools/wasnorm_wordpool_less_exclusions.txt	LTP251	ltpFR	9	1	1	SCROLL	1257	n/a	n/a	0	n/a	0	0	0	n/a	n/a	n/a	n/a	n/a
552.756	n/a	REC_WORD	138189	wordpools/wasnorm_wordpool_less_exclusions.txt	LTP251	ltpFR	9	1	0	SEAGULL	1261	n/a	n/a	0	n/a	0	0	0	n/a	n/a	n/a	n/a	n/a
554.404	n/a	REC_WORD	138601	wordpools/wasnorm_wordpool_less_exclusions.txt	LTP251	ltpFR	9	1	1	PELICAN	1039	n/a	n/a	0	n/a	0	0	0	n/a	n/a	n/a	n/a	n/a
556.952	n/a	REC_WORD	139238	wordpools/wasnorm_wordpool_less_exclusions.txt	LTP251	ltpFR	9	1	0	LETTER	813	n/a	n/a	0	n/a	0	0	0	n/a	n/a	n/a	n/a	n/a
558.144	n/a	REC_WORD	139536	wordpools/wasnorm_wordpool_less_exclusions.txt	LTP251	ltpFR	9	1	0	ARCHITECT	36	n/a	n/a	1	n/a	0	0	0	n/a	n/a	n/a	n/a	n/a
560.6	n/a	REC_WORD	140150	wordpools/wasnorm_wordpool_less_exclusions.txt	LTP251	ltpFR	9	1	1	BALL	73	n/a	n/a	0	n/a	0	0	0	n/a	n/a	n/a	n/a	n/a
568.624	n/a	REC_WORD	142156	wordpools/wasnorm_wordpool_less_exclusions.txt	LTP251	ltpFR	9	1	1	COTTAGE	384	n/a	n/a	0	n/a	0	0	0	n/a	n/a	n/a	n/a	n/a
628.608	n/a	WORD	157152	wordpools/wasnorm_wordpool_less_exclusions.txt	LTP251	ltpFR	9	2	1	INVENTOR	743	n/a	n/a	0	n/a	0	0	0	0.57763671875	0.412841796875	1	upper	zerothre.ttf
632.692	n/a	WORD	158173	wordpools/wasnorm_wordpool_less_exclusions.txt	LTP251	ltpFR	9	2	1	PEAR	1033	n/a	n/a	1	n/a	0	0	0	0.57763671875	0.412841796875	1	upper	zerothre.ttf
636.672	n/a	WORD	159168	wordpools/wasnorm_wordpool_less_exclusions.txt	LTP251	ltpFR	9	2	1	DOLPHIN	483	n/a	n/a	1	n/a	0	0	0	0.57763671875	0.412841796875	1	upper	zerothre.ttf
640.772	n/a	WORD	160193	wordpools/wasnorm_wordpool_less_exclusions.txt	LTP251	ltpFR	9	2	1	BELL	118	n/a	n/a	0	n/a	0	0	0	0.57763671875	0.412841796875	1	upper	zerothre.ttf
644.988	n/a	WORD	161247	wordpools/wasnorm_wordpool_less_exclusions.txt	LTP251	ltpFR	9	2	1	PHILOSOPHER	1054	n/a	n/a	0	n/a	0	0	0	0.57763671875	0.412841796875	1	upper	zerothre.ttf
648.9	n/a	WORD	162225	wordpools/wasnorm_wordpool_less_exclusions.txt	LTP251	ltpFR	9	2	1	FRIES	607	n/a	n/a	0	n/a	0	0	0	0.57763671875	0.412841796875	1	upper	zerothre.ttf
653.052	n/a	WORD	163263	wordpools/wasnorm_wordpool_less_exclusions.txt	LTP251	ltpFR	9	2	1	MARGARINE	868	n/a	n/a	0	n/a	0	0	0	0.57763671875	0.412841796875	1	upper	zerothre.ttf
657.184	n/a	WORD	164296	wordpools/wasnorm_wordpool_less_exclusions.txt	LTP251	ltpFR	9	2	1	VAN	1548	n/a	n/a	0	n/a	0	0	0	0.57763671875	0.412841796875	1	upper	zerothre.ttf
661.096	n/a	WORD	165274	wordpools/wasnorm_wordpool_less_exclusions.txt	LTP251	ltpFR	9	2	1	CAR	241	n/a	n/a	0	n/a	0	0	0	0.57763671875	0.412841796875	1	upper	zerothre.ttf
664.964	n/a	WORD	166241	wordpools/wasnorm_wordpool_less_exclusions.txt	LTP251	ltpFR	9	2	1	SQUID	1361	n/a	n/a	1	n/a	0	0	0	0.57763671875	0.412841796875	1	upper	zerothre.ttf
669.048	n/a	WORD	167262	wordpools/wasnorm_wordpool_less_exclusions.txt	LTP251	ltpFR	9	2	1	RAG	1160	n/a	n/a	0	n/a	0	0	0	0.57763671875	0.412841796875	1	upper	zerothre.ttf
673.044	n/a	WORD	168261	wordpools/wasnorm_wordpool_less_exclusions.txt	LTP251	ltpFR	9	2	1	BED	110	n/a	n/a	0	n/a	0	0	0	0.57763671875	0.412841796875	1	upper	zerothre.ttf
677.092	n/a	WORD	169273	wordpools/wasnorm_wordpool_less_exclusions.txt	LTP251	ltpFR	9	2	1	HUT	729	n/a	n/a	0	n/a	0	0	0	0.57763671875	0.412841796875	1	upper	zerothre.ttf
681.06	n/a	WORD	170265	wordpools/wasnorm_wordpool_less_exclusions.txt	LTP251	ltpFR	9	2	1	TRIBE	1505	n/a	n/a	0	n/a	0	0	0	0.57763671875	0.412841796875	1	upper	zerothre.ttf
685.008	n/a	WORD	171252	wordpools/wasnorm_wordpool_less_exclusions.txt	LTP251	ltpFR	9	2	1	PUMP	1141	n/a	n/a	0	n/a	0	0	0	0.57763671875	0.412841796875	1	upper	zerothre.ttf
689.156	n/a	WORD	172289	wordpools/wasnorm_wordpool_less_exclusions.txt	LTP251	ltpFR	9	2	1	FRUIT	610	n/a	n/a	1	n/a	0	0	0	0.57763671875	0.412841796875	1	upper	zerothre.ttf
692.168	n/a	START	173042	n/a	LTP251	ltpFR	9	n/a	n/a	n/a	n/a	n/a	n/a	n/a	n/a	n/a	n/a	n/a	n/a	n/a	n/a	n/a	n/a
693.04	n/a	PROB	173260	n/a	LTP251	ltpFR	9	n/a	n/a	n/a	n/a	n/a	n/a	n/a	14	2	9	3	n/a	n/a	n/a	n/a	n/a
696.468	n/a	PROB	174117	n/a	LTP251	ltpFR	9	n/a	n/a	n/a	n/a	n/a	n/a	n/a	20	7	8	5	n/a	n/a	n/a	n/a	n/a
698.076	n/a	PROB	174519	n/a	LTP251	ltpFR	9	n/a	n/a	n/a	n/a	n/a	n/a	n/a	11	1	6	4	n/a	n/a	n/a	n/a	n/a
699.14	n/a	STOP	174785	n/a	LTP251	ltpFR	9	n/a	n/a	n/a	n/a	n/a	n/a	n/a	n/a	n/a	n/a	n/a	n/a	n/a	n/a	n/a	n/a
701.94	n/a	REC_START	175485	n/a	LTP251	ltpFR	9	2	n/a	n/a	n/a	n/a	n/a	n/a	n/a	0	0	0	n/a	n/a	n/a	n/a	n/a
702.78	n/a	REC_WORD	175695	wordpools/wasnorm_wordpool_less_exclusions.txt	LTP251	ltpFR	9	2	1	PEAR	1033	n/a	n/a	1	n/a	0	0	0	n/a	n/a	n/a	n/a	n/a
703.824	n/a	REC_WORD	175956	wordpools/wasnorm_wordpool_less_exclusions.txt	LTP251	ltpFR	9	2	1	DOLPHIN	483	n/a	n/a	1	n/a	0	0	0	n/a	n/a	n/a	n/a	n/a
704.86	n/a	REC_WORD	176215	wordpools/wasnorm_wordpool_less_exclusions.txt	LTP251	ltpFR	9	2	1	PHILOSOPHER	1054	n/a	n/a	0	n/a	0	0	0	n/a	n/a	n/a	n/a	n/a
706.476	n/a	REC_WORD	176619	wordpools/wasnorm_wordpool_less_exclusions.txt	LTP251	ltpFR	9	2	1	FRUIT	610	n/a	n/a	1	n/a	0	0	0	n/a	n/a	n/a	n/a	n/a
708.272	n/a	REC_WORD	177068	wordpools/wasnorm_wordpool_less_exclusions.txt	LTP251	ltpFR	9	2	1	SQUID	1361	n/a	n/a	1	n/a	0	0	0	n/a	n/a	n/a	n/a	n/a
715.376	n/a	REC_WORD	178844	wordpools/wasnorm_wordpool_less_exclusions.txt	LTP251	ltpFR	9	2	1	MARGARINE	868	n/a	n/a	0	n/a	0	0	0	n/a	n/a	n/a	n/a	n/a
780.724	n/a	WORD	195181	wordpools/wasnorm_wordpool_less_exclusions.txt	LTP251	ltpFR	9	3	1	PIKE	1067	n/a	n/a	0	n/a	0	0	0	0.57763671875	0.412841796875	1	upper	zerothre.ttf
784.624	n/a	WORD	196156	wordpools/wasnorm_wordpool_less_exclusions.txt	LTP251	ltpFR	9	3	1	ACTRESS	6	n/a	n/a	1	n/a	0	0	0	0.57763671875	0.412841796875	1	upper	zerothre.ttf
788.82	n/a	WORD	197205	wordpools/wasnorm_wordpool_less_exclusions.txt	LTP251	ltpFR	9	3	1	PAGE	1001	n/a	n/a	0	n/a	0	0	0	0.57763671875	0.412841796875	1	upper	zerothre.ttf
792.736	n/a	WORD	198184	wordpools/wasnorm_wordpool_less_exclusions.txt	LTP251	ltpFR	9	3	1	SEAFOOD	1260	n/a	n/a	0	n/a	0	0	0	0.57763671875	0.412841796875	1	upper	zerothre.ttf
796.936	n/a	WORD	199234	wordpools/wasnorm_wordpool_less_exclusions.txt	LTP251	ltpFR	9	3	1	AGENT	10	n/a	n/a	1	n/a	0	0	0	0.57763671875	0.412841796875	1	upper	zerothre.ttf
800.816	n/a	WORD	200204	wordpools/wasnorm_wordpool_less_exclusions.txt	LTP251	ltpFR	9	3	1	SHELF	1280	n/a	n/a	0	n/a	0	0	0	0.57763671875	0.412841796875	1	upper	zerothre.ttf
804.868	n/a	WORD	201217	wordpools/wasnorm_wordpool_less_exclusions.txt	LTP251	ltpFR	9	3	1	BLUEJAY	141	n/a	n/a	1	n/a	0	0	0	0.57763671875	0.412841796875	1	upper	zerothre.ttf
809.032	n/a	WORD	202258	wordpools/wasnorm_wordpool_less_exclusions.txt	LTP251	ltpFR	9	3	1	ROOSTER	1209	n/a	n/a	1	n/a	0	0	0	0.57763671875	0.412841796875	1	upper	zerothre.ttf
812.912	n/a	WORD	203228	wordpools/wasnorm_wordpool_less_exclusions.txt	LTP251	ltpFR	9	3	1	PIER	1063	n/a	n/a	0	n/a	0	0	0	0.57763671875	0.412841796875	1	upper	zerothre.ttf
816.996	n/a	WORD	204249	wordpools/wasnorm_wordpool_less_exclusions.txt	LTP251	ltpFR	9	3	1	BUCKET	184	n/a	n/a	0	n/a	0	0	0	0.57763671875	0.412841796875	1	upper	zerothre.ttf
820.896	n/a	WORD	205224	wordpools/wasnorm_wordpool_less_exclusions.txt	LTP251	ltpFR	9	3	1	TRAITOR	1495	n/a	n/a	0	n/a	0	0	0	0.57763671875	0.412841796875	1	upper	zerothre.ttf
824.828	n/a	WORD	206207	wordpools/wasnorm_wordpool_less_exclusions.txt	LTP251	ltpFR	9	3	1	SCREEN	1253	n/a	n/a	0	n/a	0	0	0	0.57763671875	0.412841796875	1	upper	zerothre.ttf
828.656	n/a	WORD	207164	wordpools/wasnorm_wordpool_less_exclusions.txt	LTP251	ltpFR	9	3	1	PRODUCER	1129	n/a	n/a	0	n/a	0	0	0	0.57763671875	0.412841796875	1	upper	zerothre.ttf
832.656	n/a	WORD	208164	wordpools/wasnorm_wordpool_less_exclusions.txt	LTP251	ltpFR	9	3	1	HEAD	695	n/a	n/a	0	n/a	0	0	0	0.57763671875	0.412841796875	1	upper	zerothre.ttf
836.788	n/a	WORD	209197	wordpools/wasnorm_wordpool_less_exclusions.txt	LTP251	ltpFR	9	3	1	TOY	1492	n/a	n/a	0	n/a	0	0	0	0.57763671875	0.412841796875	1	upper	zerothre.ttf
840.904	n/a	WORD	210226	wordpools/wasnorm_wordpool_less_exclusions.txt	LTP251	ltpFR	9	3	1	PRINCESS	1125	n/a	n/a	0	n/a	0	0	0	0.57763671875	0.412841796875	1	upper	zerothre.ttf
843.916	n/a	START	210979	n/a	LTP251	ltpFR	9	n/a	n/a	n/a	n/a	n/a	n/a	n/a	n/a	n/a	n/a	n/a	n/a	n/a	n/a	n/a	n/a
844.748	n/a	PROB	211187	n/a	LTP251	ltpFR	9	n/a	n/a	n/a	n/a	n/a	n/a	n/a	10	3	5	2	n/a	n/a	n/a	n/a	n/a
847.528	n/a	PROB	211882	n/a	LTP251	ltpFR	9	n/a	n/a	n/a	n/a	n/a	n/a	n/a	8	3	1	4	n/a	n/a	n/a	n/a	n/a
848.98	n/a	PROB	212245	n/a	LTP251	ltpFR	9	n/a	n/a	n/a	n/a	n/a	n/a	n/a	18	3	7	8	n/a	n/a	n/a	n/a	n/a
851.46	n/a	PROB	212865	n/a	LTP251	ltpFR	9	n/a	n/a	n/a	n/a	n/a	n/a	n/a	19	8	3	8	n/a	n/a	n/a	n/a	n/a
853.148	n/a	PROB	213287	n/a	LTP251	ltpFR	9	n/a	n/a	n/a	n/a	n/a	n/a	n/a	20	8	6	6	n/a	n/a	n/a	n/a	n/a
855.424	n/a	PROB	213856	n/a	LTP251	ltpFR	9	n/a	n/a	n/a	n/a	n/a	n/a	n/a	12	5	4	3	n/a	n/a	n/a	n/a	n/a
857.72	n/a	PROB	214430	n/a	LTP251	ltpFR	9	n/a	n/a	n/a	n/a	n/a	n/a	n/a	15	1	6	8	n/a	n/a	n/a	n/a	n/a
859.148	n/a	STOP	214787	n/a	LTP251	ltpFR	9	n/a	n/a	n/a	n/a	n/a	n/a	n/a	n/a	n/a	n/a	n/a	n/a	n/a	n/a	n/a	n/a
861.72	n/a	REC_START	215430	n/a	LTP251	ltpFR	9	3	n/a	n/a	n/a	n/a	n/a	n/a	n/a	0	0	0	n/a	n/a	n/a	n/a	n/a
862.824	n/a	REC_WORD	215706	wordpools/wasnorm_wordpool_less_exclusions.txt	LTP251	ltpFR	9	3	1	ROOSTER	1209	n/a	n/a	1	n/a	0	0	0	n/a	n/a	n/a	n/a	n/a
864.056	n/a	REC_WORD	216014	wordpools/wasnorm_wordpool_less_exclusions.txt	LTP251	ltpFR	9	3	1	ACTRESS	6	n/a	n/a	1	n/a	0	0	0	n/a	n/a	n/a	n/a	n/a
865.668	n/a	REC_WORD	216417	wordpools/wasnorm_wordpool_less_exclusions.txt	LTP251	ltpFR	9	3	1	PAGE	1001	n/a	n/a	0	n/a	0	0	0	n/a	n/a	n/a	n/a	n/a
866.748	n/a	REC_WORD	216687	wordpools/wasnorm_wordpool_less_exclusions.txt	LTP251	ltpFR	9	3	1	PIKE	1067	n/a	n/a	0	n/a	0	0	0	n/a	n/a	n/a	n/a	n/a
867.976	n/a	REC_WORD	216994	wordpools/wasnorm_wordpool_less_exclusions.txt	LTP251	ltpFR	9	3	1	PIER	1063	n/a	n/a	0	n/a	0	0	0	n/a	n/a	n/a	n/a	n/a
879.768	n/a	REC_WORD	219942	wordpools/wasnorm_wordpool_less_exclusions.txt	LTP251	ltpFR	9	3	1	SEAFOOD	1260	n/a	n/a	0	n/a	0	0	0	n/a	n/a	n/a	n/a	n/a
904.124	n/a	REC_WORD	226031	wordpools/wasnorm_wordpool_less_exclusions.txt	LTP251	ltpFR	9	3	1	TOY	1492	n/a	n/a	0	n/a	0	0	0	n/a	n/a	n/a	n/a	n/a
940.2	n/a	WORD	235050	wordpools/wasnorm_wordpool_less_exclusions.txt	LTP251	ltpFR	9	4	0	SLIDE	1326	n/a	n/a	1	n/a	0	0	0	0.422607421875	0.5869140625	0	lower	amplitud.ttf
944.3	n/a	WORD	236075	wordpools/wasnorm_wordpool_less_exclusions.txt	LTP251	ltpFR	9	4	0	TOENAIL	1474	n/a	n/a	1	n/a	0	0	0	0.422607421875	0.5869140625	0	lower	amplitud.ttf
948.444	n/a	WORD	237111	wordpools/wasnorm_wordpool_less_exclusions.txt	LTP251	ltpFR	9	4	0	CHISEL	305	n/a	n/a	0	n/a	0	0	0	0.422607421875	0.5869140625	0	lower	amplitud.ttf
952.416	n/a	WORD	238104	wordpools/wasnorm_wordpool_less_exclusions.txt	LTP251	ltpFR	9	4	0	CATHEDRAL	260	n/a	n/a	1	n/a	0	0	0	0.422607421875	0.5869140625	0	lower	amplitud.ttf
956.628	n/a	WORD	239157	wordpools/wasnorm_wordpool_less_exclusions.txt	LTP251	ltpFR	9	4	0	UNIFORM	1539	n/a	n/a	1	n/a	0	0	0	0.422607421875	0.5869140625	0	lower	amplitud.ttf
960.812	n/a	WORD	240203	wordpools/wasnorm_wordpool_less_exclusions.txt	LTP251	ltpFR	9	4	0	SURF	1412	n/a	n/a	1	n/a	0	0	0	0.422607421875	0.5869140625	0	lower	amplitud.ttf
964.692	n/a	WORD	241173	wordpools/wasnorm_wordpool_less_exclusions.txt	LTP251	ltpFR	9	4	0	BEAST	108	n/a	n/a	1	n/a	0	0	0	0.422607421875	0.5869140625	0	lower	amplitud.ttf
968.824	n/a	WORD	242206	wordpools/wasnorm_wordpool_less_exclusions.txt	LTP251	ltpFR	9	4	0	DASHBOARD	441	n/a	n/a	1	n/a	0	0	0	0.422607421875	0.5869140625	0	lower	amplitud.ttf
972.772	n/a	WORD	243193	wordpools/wasnorm_wordpool_less_exclusions.txt	LTP251	ltpFR	9	4	0	CONSOLE	364	n/a	n/a	1	n/a	0	0	0	0.422607421875	0.5869140625	0	lower	amplitud.ttf
976.688	n/a	WORD	244172	wordpools/wasnorm_wordpool_less_exclusions.txt	LTP251	ltpFR	9	4	0	FORT	595	n/a	n/a	1	n/a	0	0	0	0.422607421875	0.5869140625	0	lower	amplitud.ttf
980.74	n/a	WORD	245185	wordpools/wasnorm_wordpool_less_exclusions.txt	LTP251	ltpFR	9	4	0	BOLT	146	n/a	n/a	1	n/a	0	0	0	0.422607421875	0.5869140625	0	lower	amplitud.ttf
984.836	n/a	WORD	246209	wordpools/wasnorm_wordpool_less_exclusions.txt	LTP251	ltpFR	9	4	0	SPRINKLE	1359	n/a	n/a	1	n/a	0	0	0	0.422607421875	0.5869140625	0	lower	amplitud.ttf
988.832	n/a	WORD	247208	wordpools/wasnorm_wordpool_less_exclusions.txt	LTP251	ltpFR	9	4	0	WATER	1594	n/a	n/a	1	n/a	0	0	0	0.422607421875	0.5869140625	0	lower	amplitud.ttf
992.916	n/a	WORD	248229	wordpools/wasnorm_wordpool_less_exclusions.txt	LTP251	ltpFR	9	4	0	WALNUT	1584	n/a	n/a	0	n/a	0	0	0	0.422607421875	0.5869140625	0	lower	amplitud.ttf
996.868	n/a	WORD	249217	wordpools/wasnorm_wordpool_less_exclusions.txt	LTP251	ltpFR	9	4	0	WITNESS	1618	n/a	n/a	1	n/a	0	0	0	0.422607421875	0.5869140625	0	lower	amplitud.ttf
1000.8	n/a	WORD	250200	wordpools/wasnorm_wordpool_less_exclusions.txt	LTP251	ltpFR	9	4	0	COURT	391	n/a	n/a	1	n/a	0	0	0	0.422607421875	0.5869140625	0	lower	amplitud.ttf
1006.772	n/a	REC_START	251693	n/a	LTP251	ltpFR	9	4	n/a	n/a	n/a	n/a	n/a	n/a	n/a	0	0	0	n/a	n/a	n/a	n/a	n/a
1007.804	n/a	REC_WORD	251951	wordpools/wasnorm_wordpool_less_exclusions.txt	LTP251	ltpFR	9	4	0	CHISEL	305	n/a	n/a	0	n/a	0	0	0	n/a	n/a	n/a	n/a	n/a
1009.08	n/a	REC_WORD	252270	wordpools/wasnorm_wordpool_less_exclusions.txt	LTP251	ltpFR	9	4	0	WALNUT	1584	n/a	n/a	0	n/a	0	0	0	n/a	n/a	n/a	n/a	n/a
1010.444	n/a	REC_WORD	252611	wordpools/wasnorm_wordpool_less_exclusions.txt	LTP251	ltpFR	9	4	0	WATER	1594	n/a	n/a	1	n/a	0	0	0	n/a	n/a	n/a	n/a	n/a
1012.024	n/a	REC_WORD	253006	wordpools/wasnorm_wordpool_less_exclusions.txt	LTP251	ltpFR	9	4	0	CATHEDRAL	260	n/a	n/a	1	n/a	0	0	0	n/a	n/a	n/a	n/a	n/a
1028.612	n/a	REC_WORD	257153	wordpools/wasnorm_wordpool_less_exclusions.txt	LTP251	ltpFR	9	4	0	CONSOLE	364	n/a	n/a	1	n/a	0	0	0	n/a	n/a	n/a	n/a	n/a
1084.852	n/a	WORD	271213	wordpools/wasnorm_wordpool_less_exclusions.txt	LTP251	ltpFR	9	5	1	WHEAT	1602	n/a	n/a	1	n/a	0	0	0	0.57763671875	0.412841796875	1	upper	zerothre.ttf
1088.736	n/a	WORD	272184	wordpools/wasnorm_wordpool_less_exclusions.txt	LTP251	ltpFR	9	5	1	DIRECTOR	471	n/a	n/a	0	n/a	0	0	0	0.57763671875	0.412841796875	1	upper	zerothre.ttf
1092.868	n/a	WORD	273217	wordpools/wasnorm_wordpool_less_exclusions.txt	LTP251	ltpFR	9	5	1	SPINACH	1352	n/a	n/a	1	n/a	0	0	0	0.57763671875	0.412841796875	1	upper	zerothre.ttf
1096.812	n/a	WORD	274203	wordpools/wasnorm_wordpool_less_exclusions.txt	LTP251	ltpFR	9	5	0	SLUG	1329	n/a	n/a	0	n/a	0	0	0	0.422607421875	0.5869140625	0	lower	amplitud.ttf
1100.896	n/a	WORD	275224	wordpools/wasnorm_wordpool_less_exclusions.txt	LTP251	ltpFR	9	5	0	PIG	1064	n/a	n/a	0	n/a	0	0	0	0.422607421875	0.5869140625	0	lower	amplitud.ttf
1104.944	n/a	WORD	276236	wordpools/wasnorm_wordpool_less_exclusions.txt	LTP251	ltpFR	9	5	0	COW	393	n/a	n/a	1	n/a	0	0	0	0.422607421875	0.5869140625	0	lower	amplitud.ttf
1109.144	n/a	WORD	277286	wordpools/wasnorm_wordpool_less_exclusions.txt	LTP251	ltpFR	9	5	0	LEAF	808	n/a	n/a	1	n/a	0	0	0	0.422607421875	0.5869140625	0	lower	amplitud.ttf
1113.096	n/a	WORD	278274	wordpools/wasnorm_wordpool_less_exclusions.txt	LTP251	ltpFR	9	5	0	DRUM	502	n/a	n/a	1	n/a	0	0	0	0.422607421875	0.5869140625	0	lower	amplitud.ttf
1117.26	n/a	WORD	279315	wordpools/wasnorm_wordpool_less_exclusions.txt	LTP251	ltpFR	9	5	1	CONCERT	360	n/a	n/a	0	n/a	0	0	0	0.57763671875	0.412841796875	1	upper	zerothre.ttf
1121.308	n/a	WORD	280327	wordpools/wasnorm_wordpool_less_exclusions.txt	LTP251	ltpFR	9	5	1	CHEMIST	292	n/a	n/a	1	n/a	0	0	0	0.57763671875	0.412841796875	1	upper	zerothre.ttf
1125.256	n/a	WORD	281314	wordpools/wasnorm_wordpool_less_exclusions.txt	LTP251	ltpFR	9	5	1	SHRUB	1299	n/a	n/a	1	n/a	0	0	0	0.57763671875	0.412841796875	1	upper	zerothre.ttf
1129.172	n/a	WORD	282293	wordpools/wasnorm_wordpool_less_exclusions.txt	LTP251	ltpFR	9	5	0	HELICOPTER	701	n/a	n/a	1	n/a	0	0	0	0.422607421875	0.5869140625	0	lower	amplitud.ttf
1133.072	n/a	WORD	283268	wordpools/wasnorm_wordpool_less_exclusions.txt	LTP251	ltpFR	9	5	0	TICKET	1464	n/a	n/a	0	n/a	0	0	0	0.422607421875	0.5869140625	0	lower	amplitud.ttf
1137.188	n/a	WORD	284297	wordpools/wasnorm_wordpool_less_exclusions.txt	LTP251	ltpFR	9	5	0	THICKET	1455	n/a	n/a	1	n/a	0	0	0	0.422607421875	0.5869140625	0	lower	amplitud.ttf
1141.148	n/a	WORD	285287	wordpools/wasnorm_wordpool_less_exclusions.txt	LTP251	ltpFR	9	5	1	POTATO	1115	n/a	n/a	1	n/a	0	0	0	0.57763671875	0.412841796875	1	upper	zerothre.ttf
1145.084	n/a	WORD	286271	wordpools/wasnorm_wordpool_less_exclusions.txt	LTP251	ltpFR	9	5	1	TREE	1502	n/a	n/a	1	n/a	0	0	0	0.57763671875	0.412841796875	1	upper	zerothre.ttf
1148.096	n/a	START	287024	n/a	LTP251	ltpFR	9	n/a	n/a	n/a	n/a	n/a	n/a	n/a	n/a	n/a	n/a	n/a	n/a	n/a	n/a	n/a	n/a
1148.964	n/a	PROB	287241	n/a	LTP251	ltpFR	9	n/a	n/a	n/a	n/a	n/a	n/a	n/a	14	4	6	9	n/a	n/a	n/a	n/a	n/a
1151.156	n/a	PROB	287789	n/a	LTP251	ltpFR	9	n/a	n/a	n/a	n/a	n/a	n/a	n/a	16	7	1	8	n/a	n/a	n/a	n/a	n/a
1153.332	n/a	PROB	288333	n/a	LTP251	ltpFR	9	n/a	n/a	n/a	n/a	n/a	n/a	n/a	18	1	9	8	n/a	n/a	n/a	n/a	n/a
1155.356	n/a	STOP	288839	n/a	LTP251	ltpFR	9	n/a	n/a	n/a	n/a	n/a	n/a	n/a	n/a	n/a	n/a	n/a	n/a	n/a	n/a	n/a	n/a
1158.0	n/a	REC_START	289500	n/a	LTP251	ltpFR	9	5	n/a	n/a	n/a	n/a	n/a	n/a	n/a	0	0	0	n/a	n/a	n/a	n/a	n/a
1158.42	n/a	REC_WORD	289605	wordpools/wasnorm_wordpool_less_exclusions.txt	LTP251	ltpFR	9	5	1	SPINACH	1352	n/a	n/a	1	n/a	0	0	0	n/a	n/a	n/a	n/a	n/a
1159.58	n/a	REC_WORD	289895	wordpools/wasnorm_wordpool_less_exclusions.txt	LTP251	ltpFR	9	5	1	WHEAT	1602	n/a	n/a	1	n/a	0	0	0	n/a	n/a	n/a	n/a	n/a
1170.404	n/a	REC_WORD	292601	wordpools/wasnorm_wordpool_less_exclusions.txt	LTP251	ltpFR	9	5	1	DIRECTOR	471	n/a	n/a	0	n/a	0	0	0	n/a	n/a	n/a	n/a	n/a
1175.96	n/a	REC_WORD	293990	wordpools/wasnorm_wordpool_less_exclusions.txt	LTP251	ltpFR	9	5	0	COW	393	n/a	n/a	1	n/a	0	0	0	n/a	n/a	n/a	n/a	n/a
1177.096	n/a	REC_WORD	294274	wordpools/wasnorm_wordpool_less_exclusions.txt	LTP251	ltpFR	9	5	0	SLUG	1329	n/a	n/a	0	n/a	0	0	0	n/a	n/a	n/a	n/a	n/a
1179.752	n/a	REC_WORD	294938	wordpools/wasnorm_wordpool_less_exclusions.txt	LTP251	ltpFR	9	5	0	LEAF	808	n/a	n/a	1	n/a	0	0	0	n/a	n/a	n/a	n/a	n/a
1191.96	n/a	REC_WORD	297990	wordpools/wasnorm_wordpool_less_exclusions.txt	LTP251	ltpFR	9	5	0	HELICOPTER	701	n/a	n/a	1	n/a	0	0	0	n/a	n/a	n/a	n/a	n/a
1235.328	n/a	START	308832	n/a	LTP251	ltpFR	9	n/a	n/a	n/a	n/a	n/a	n/a	n/a	n/a	n/a	n/a	n/a	n/a	n/a	n/a	n/a	n/a
1236.836	n/a	PROB	309209	n/a	LTP251	ltpFR	9	n/a	n/a	n/a	n/a	n/a	n/a	n/a	10	4	3	3	n/a	n/a	n/a	n/a	n/a
1238.656	n/a	PROB	309664	n/a	LTP251	ltpFR	9	n/a	n/a	n/a	n/a	n/a	n/a	n/a	16	9	5	2	n/a	n/a	n/a	n/a	n/a
1240.428	n/a	PROB	310107	n/a	LTP251	ltpFR	9	n/a	n/a	n/a	n/a	n/a	n/a	n/a	13	1	9	3	n/a	n/a	n/a	n/a	n/a
1241.976	n/a	STOP	310494	n/a	LTP251	ltpFR	9	n/a	n/a	n/a	n/a	n/a	n/a	n/a	n/a	n/a	n/a	n/a	n/a	n/a	n/a	n/a	n/a
1244.344	n/a	WORD	311086	wordpools/wasnorm_wordpool_less_exclusions.txt	LTP251	ltpFR	9	6	1	PLUMBER	1091	n/a	n/a	0	n/a	0	0	0	0.57763671875	0.412841796875	1	upper	zerothre.ttf
1247.356	n/a	START	311839	n/a	LTP251	ltpFR	9	n/a	n/a	n/a	n/a	n/a	n/a	n/a	n/a	n/a	n/a	n/a	n/a	n/a	n/a	n/a	n/a
1248.528	n/a	PROB	312132	n/a	LTP251	ltpFR	9	n/a	n/a	n/a	n/a	n/a	n/a	n/a	24	9	9	8	n/a	n/a	n/a	n/a	n/a
1252.46	n/a	PROB	313115	n/a	LTP251	ltpFR	9	n/a	n/a	n/a	n/a	n/a	n/a	n/a	9	2	5	1	n/a	n/a	n/a	n/a	n/a
1254.16	n/a	STOP	313540	n/a	LTP251	ltpFR	9	n/a	n/a	n/a	n/a	n/a	n/a	n/a	n/a	n/a	n/a	n/a	n/a	n/a	n/a	n/a	n/a
1256.388	n/a	WORD	314097	wordpools/wasnorm_wordpool_less_exclusions.txt	LTP251	ltpFR	9	6	1	WATERFALL	1595	n/a	n/a	0	n/a	0	0	0	0.57763671875	0.412841796875	1	upper	zerothre.ttf
1259.404	n/a	START	314851	n/a	LTP251	ltpFR	9	n/a	n/a	n/a	n/a	n/a	n/a	n/a	n/a	n/a	n/a	n/a	n/a	n/a	n/a	n/a	n/a
1260.492	n/a	PROB	315123	n/a	LTP251	ltpFR	9	n/a	n/a	n/a	n/a	n/a	n/a	n/a	10	6	1	3	n/a	n/a	n/a	n/a	n/a
1262.028	n/a	PROB	315507	n/a	LTP251	ltpFR	9	n/a	n/a	n/a	n/a	n/a	n/a	n/a	10	2	1	7	n/a	n/a	n/a	n/a	n/a
1263.464	n/a	PROB	315866	n/a	LTP251	ltpFR	9	n/a	n/a	n/a	n/a	n/a	n/a	n/a	10	1	8	1	n/a	n/a	n/a	n/a	n/a
1264.604	n/a	PROB	316151	n/a	LTP251	ltpFR	9	n/a	n/a	n/a	n/a	n/a	n/a	n/a	11	8	1	2	n/a	n/a	n/a	n/a	n/a
1265.932	n/a	STOP	316483	n/a	LTP251	ltpFR	9	n/a	n/a	n/a	n/a	n/a	n/a	n/a	n/a	n/a	n/a	n/a	n/a	n/a	n/a	n/a	n/a
1268.436	n/a	WORD	317109	wordpools/wasnorm_wordpool_less_exclusions.txt	LTP251	ltpFR	9	6	0	BANJO	82	n/a	n/a	1	n/a	0	0	0	0.422607421875	0.5869140625	0	lower	amplitud.ttf
1271.452	n/a	START	317863	n/a	LTP251	ltpFR	9	n/a	n/a	n/a	n/a	n/a	n/a	n/a	n/a	n/a	n/a	n/a	n/a	n/a	n/a	n/a	n/a
1272.604	n/a	PROB	318151	n/a	LTP251	ltpFR	9	n/a	n/a	n/a	n/a	n/a	n/a	n/a	19	2	9	8	n/a	n/a	n/a	n/a	n/a
1274.308	n/a	PROB	318577	n/a	LTP251	ltpFR	9	n/a	n/a	n/a	n/a	n/a	n/a	n/a	25	9	7	8	n/a	n/a	n/a	n/a	n/a
1277.956	n/a	STOP	319489	n/a	LTP251	ltpFR	9	n/a	n/a	n/a	n/a	n/a	n/a	n/a	n/a	n/a	n/a	n/a	n/a	n/a	n/a	n/a	n/a
1280.368	n/a	WORD	320092	wordpools/wasnorm_wordpool_less_exclusions.txt	LTP251	ltpFR	9	6	0	BUGLE	189	n/a	n/a	1	n/a	0	0	0	0.422607421875	0.5869140625	0	lower	amplitud.ttf
1283.38	n/a	START	320845	n/a	LTP251	ltpFR	9	n/a	n/a	n/a	n/a	n/a	n/a	n/a	n/a	n/a	n/a	n/a	n/a	n/a	n/a	n/a	n/a
1284.584	n/a	PROB	321146	n/a	LTP251	ltpFR	9	n/a	n/a	n/a	n/a	n/a	n/a	n/a	14	1	2	9	n/a	n/a	n/a	n/a	n/a
1286.44	n/a	PROB	321610	n/a	LTP251	ltpFR	9	n/a	n/a	n/a	n/a	n/a	n/a	n/a	14	7	8	2	n/a	n/a	n/a	n/a	n/a
1289.028	n/a	PROB	322257	n/a	LTP251	ltpFR	9	n/a	n/a	n/a	n/a	n/a	n/a	n/a	10	1	4	4	n/a	n/a	n/a	n/a	n/a
1290.316	n/a	STOP	322579	n/a	LTP251	ltpFR	9	n/a	n/a	n/a	n/a	n/a	n/a	n/a	n/a	n/a	n/a	n/a	n/a	n/a	n/a	n/a	n/a
1292.412	n/a	WORD	323103	wordpools/wasnorm_wordpool_less_exclusions.txt	LTP251	ltpFR	9	6	0	REEF	1177	n/a	n/a	0	n/a	0	0	0	0.422607421875	0.5869140625	0	lower	amplitud.ttf
1295.424	n/a	START	323856	n/a	LTP251	ltpFR	9	n/a	n/a	n/a	n/a	n/a	n/a	n/a	n/a	n/a	n/a	n/a	n/a	n/a	n/a	n/a	n/a
1296.564	n/a	PROB	324141	n/a	LTP251	ltpFR	9	n/a	n/a	n/a	n/a	n/a	n/a	n/a	20	7	5	8	n/a	n/a	n/a	n/a	n/a
1298.652	n/a	PROB	324663	n/a	LTP251	ltpFR	9	n/a	n/a	n/a	n/a	n/a	n/a	n/a	13	4	1	8	n/a	n/a	n/a	n/a	n/a
1300.292	n/a	PROB	325073	n/a	LTP251	ltpFR	9	n/a	n/a	n/a	n/a	n/a	n/a	n/a	18	6	7	5	n/a	n/a	n/a	n/a	n/a
1303.424	n/a	STOP	325856	n/a	LTP251	ltpFR	9	n/a	n/a	n/a	n/a	n/a	n/a	n/a	n/a	n/a	n/a	n/a	n/a	n/a	n/a	n/a	n/a
1304.276	n/a	WORD	326069	wordpools/wasnorm_wordpool_less_exclusions.txt	LTP251	ltpFR	9	6	1	BANKER	84	n/a	n/a	1	n/a	0	0	0	0.57763671875	0.412841796875	1	upper	zerothre.ttf
1307.288	n/a	START	326822	n/a	LTP251	ltpFR	9	n/a	n/a	n/a	n/a	n/a	n/a	n/a	n/a	n/a	n/a	n/a	n/a	n/a	n/a	n/a	n/a
1308.256	n/a	PROB	327064	n/a	LTP251	ltpFR	9	n/a	n/a	n/a	n/a	n/a	n/a	n/a	20	5	8	7	n/a	n/a	n/a	n/a	n/a
1309.828	n/a	PROB	327457	n/a	LTP251	ltpFR	9	n/a	n/a	n/a	n/a	n/a	n/a	n/a	14	5	3	6	n/a	n/a	n/a	n/a	n/a
1311.872	n/a	PROB	327968	n/a	LTP251	ltpFR	9	n/a	n/a	n/a	n/a	n/a	n/a	n/a	14	8	5	1	n/a	n/a	n/a	n/a	n/a
1313.208	n/a	PROB	328302	n/a	LTP251	ltpFR	9	n/a	n/a	n/a	n/a	n/a	n/a	n/a	15	5	4	6	n/a	n/a	n/a	n/a	n/a
1314.34	n/a	STOP	328585	n/a	LTP251	ltpFR	9	n/a	n/a	n/a	n/a	n/a	n/a	n/a	n/a	n/a	n/a	n/a	n/a	n/a	n/a	n/a	n/a
1316.44	n/a	WORD	329110	wordpools/wasnorm_wordpool_less_exclusions.txt	LTP251	ltpFR	9	6	1	BILL	126	n/a	n/a	0	n/a	0	0	0	0.57763671875	0.412841796875	1	upper	zerothre.ttf
1319.452	n/a	START	329863	n/a	LTP251	ltpFR	9	n/a	n/a	n/a	n/a	n/a	n/a	n/a	n/a	n/a	n/a	n/a	n/a	n/a	n/a	n/a	n/a
1320.472	n/a	PROB	330118	n/a	LTP251	ltpFR	9	n/a	n/a	n/a	n/a	n/a	n/a	n/a	16	2	7	7	n/a	n/a	n/a	n/a	n/a
1322.528	n/a	PROB	330632	n/a	LTP251	ltpFR	9	n/a	n/a	n/a	n/a	n/a	n/a	n/a	19	8	7	4	n/a	n/a	n/a	n/a	n/a
1324.968	n/a	PROB	331242	n/a	LTP251	ltpFR	9	n/a	n/a	n/a	n/a	n/a	n/a	n/a	12	7	3	2	n/a	n/a	n/a	n/a	n/a
1326.436	n/a	STOP	331609	n/a	LTP251	ltpFR	9	n/a	n/a	n/a	n/a	n/a	n/a	n/a	n/a	n/a	n/a	n/a	n/a	n/a	n/a	n/a	n/a
1328.368	n/a	WORD	332092	wordpools/wasnorm_wordpool_less_exclusions.txt	LTP251	ltpFR	9	6	1	UNICORN	1538	n/a	n/a	0	n/a	0	0	0	0.57763671875	0.412841796875	1	upper	zerothre.ttf
1331.38	n/a	START	332845	n/a	LTP251	ltpFR	9	n/a	n/a	n/a	n/a	n/a	n/a	n/a	n/a	n/a	n/a	n/a	n/a	n/a	n/a	n/a	n/a
1332.496	n/a	PROB	333124	n/a	LTP251	ltpFR	9	n/a	n/a	n/a	n/a	n/a	n/a	n/a	10	5	2	3	n/a	n/a	n/a	n/a	n/a
1333.984	n/a	PROB	333496	n/a	LTP251	ltpFR	9	n/a	n/a	n/a	n/a	n/a	n/a	n/a	24	9	7	8	n/a	n/a	n/a	n/a	n/a
1339.38	n/a	STOP	334845	n/a	LTP251	ltpFR	9	n/a	n/a	n/a	n/a	n/a	n/a	n/a	n/a	n/a	n/a	n/a	n/a	n/a	n/a	n/a	n/a
1340.532	n/a	WORD	335133	wordpools/wasnorm_wordpool_less_exclusions.txt	LTP251	ltpFR	9	6	1	BARRACUDA	90	n/a	n/a	0	n/a	0	0	0	0.57763671875	0.412841796875	1	upper	zerothre.ttf
1343.54	n/a	START	335885	n/a	LTP251	ltpFR	9	n/a	n/a	n/a	n/a	n/a	n/a	n/a	n/a	n/a	n/a	n/a	n/a	n/a	n/a	n/a	n/a
1344.508	n/a	PROB	336127	n/a	LTP251	ltpFR	9	n/a	n/a	n/a	n/a	n/a	n/a	n/a	24	8	7	9	n/a	n/a	n/a	n/a	n/a
1347.924	n/a	PROB	336981	n/a	LTP251	ltpFR	9	n/a	n/a	n/a	n/a	n/a	n/a	n/a	15	1	5	9	n/a	n/a	n/a	n/a	n/a
1351.536	n/a	STOP	337884	n/a	LTP251	ltpFR	9	n/a	n/a	n/a	n/a	n/a	n/a	n/a	n/a	n/a	n/a	n/a	n/a	n/a	n/a	n/a	n/a
1352.508	n/a	WORD	338127	wordpools/wasnorm_wordpool_less_exclusions.txt	LTP251	ltpFR	9	6	0	LID	817	n/a	n/a	2	n/a	0	0	0	0.422607421875	0.5869140625	0	lower	amplitud.ttf
1355.184	n/a	KEY_MSG	338796	n/a	LTP251	ltpFR	9	6	n/a	n/a	n/a	n/a	n/a	n/a	n/a	0	0	0	n/a	n/a	n/a	n/a	n/a
1356.708	n/a	START	339177	n/a	LTP251	ltpFR	9	n/a	n/a	n/a	n/a	n/a	n/a	n/a	n/a	n/a	n/a	n/a	n/a	n/a	n/a	n/a	n/a
1357.612	n/a	PROB	339403	n/a	LTP251	ltpFR	9	n/a	n/a	n/a	n/a	n/a	n/a	n/a	21	7	8	6	n/a	n/a	n/a	n/a	n/a
1359.62	n/a	PROB	339905	n/a	LTP251	ltpFR	9	n/a	n/a	n/a	n/a	n/a	n/a	n/a	16	9	3	3	n/a	n/a	n/a	n/a	n/a
1360.976	n/a	PROB	340244	n/a	LTP251	ltpFR	9	n/a	n/a	n/a	n/a	n/a	n/a	n/a	18	3	6	9	n/a	n/a	n/a	n/a	n/a
1363.112	n/a	PROB	340778	n/a	LTP251	ltpFR	9	n/a	n/a	n/a	n/a	n/a	n/a	n/a	16	5	8	3	n/a	n/a	n/a	n/a	n/a
1364.656	n/a	STOP	341164	n/a	LTP251	ltpFR	9	n/a	n/a	n/a	n/a	n/a	n/a	n/a	n/a	n/a	n/a	n/a	n/a	n/a	n/a	n/a	n/a
1365.76	n/a	WORD	341440	wordpools/wasnorm_wordpool_less_exclusions.txt	LTP251	ltpFR	9	6	0	STOOL	1386	n/a	n/a	0	n/a	0	0	0	0.422607421875	0.5869140625	0	lower	amplitud.ttf
1368.772	n/a	START	342193	n/a	LTP251	ltpFR	9	n/a	n/a	n/a	n/a	n/a	n/a	n/a	n/a	n/a	n/a	n/a	n/a	n/a	n/a	n/a	n/a
1369.744	n/a	PROB	342436	n/a	LTP251	ltpFR	9	n/a	n/a	n/a	n/a	n/a	n/a	n/a	21	9	4	8	n/a	n/a	n/a	n/a	n/a
1371.816	n/a	PROB	342954	n/a	LTP251	ltpFR	9	n/a	n/a	n/a	n/a	n/a	n/a	n/a	9	3	3	3	n/a	n/a	n/a	n/a	n/a
1372.968	n/a	PROB	343242	n/a	LTP251	ltpFR	9	n/a	n/a	n/a	n/a	n/a	n/a	n/a	10	3	2	5	n/a	n/a	n/a	n/a	n/a
1376.772	n/a	STOP	344193	n/a	LTP251	ltpFR	9	n/a	n/a	n/a	n/a	n/a	n/a	n/a	n/a	n/a	n/a	n/a	n/a	n/a	n/a	n/a	n/a
1377.704	n/a	WORD	344426	wordpools/wasnorm_wordpool_less_exclusions.txt	LTP251	ltpFR	9	6	0	PAIL	1002	n/a	n/a	0	n/a	0	0	0	0.422607421875	0.5869140625	0	lower	amplitud.ttf
1380.716	n/a	START	345179	n/a	LTP251	ltpFR	9	n/a	n/a	n/a	n/a	n/a	n/a	n/a	n/a	n/a	n/a	n/a	n/a	n/a	n/a	n/a	n/a
1381.688	n/a	PROB	345422	n/a	LTP251	ltpFR	9	n/a	n/a	n/a	n/a	n/a	n/a	n/a	19	9	3	7	n/a	n/a	n/a	n/a	n/a
1383.088	n/a	PROB	345772	n/a	LTP251	ltpFR	9	n/a	n/a	n/a	n/a	n/a	n/a	n/a	15	7	4	3	n/a	n/a	n/a	n/a	n/a
1388.716	n/a	STOP	347179	n/a	LTP251	ltpFR	9	n/a	n/a	n/a	n/a	n/a	n/a	n/a	n/a	n/a	n/a	n/a	n/a	n/a	n/a	n/a	n/a
1389.584	n/a	WORD	347396	wordpools/wasnorm_wordpool_less_exclusions.txt	LTP251	ltpFR	9	6	0	MULE	931	n/a	n/a	1	n/a	0	0	0	0.422607421875	0.5869140625	0	lower	amplitud.ttf
1392.596	n/a	START	348149	n/a	LTP251	ltpFR	9	n/a	n/a	n/a	n/a	n/a	n/a	n/a	n/a	n/a	n/a	n/a	n/a	n/a	n/a	n/a	n/a
1393.484	n/a	PROB	348371	n/a	LTP251	ltpFR	9	n/a	n/a	n/a	n/a	n/a	n/a	n/a	19	9	5	5	n/a	n/a	n/a	n/a	n/a
1394.752	n/a	PROB	348688	n/a	LTP251	ltpFR	9	n/a	n/a	n/a	n/a	n/a	n/a	n/a	14	6	1	7	n/a	n/a	n/a	n/a	n/a
1396.308	n/a	PROB	349077	n/a	LTP251	ltpFR	9	n/a	n/a	n/a	n/a	n/a	n/a	n/a	18	6	5	7	n/a	n/a	n/a	n/a	n/a
1398.148	n/a	PROB	349537	n/a	LTP251	ltpFR	9	n/a	n/a	n/a	n/a	n/a	n/a	n/a	22	5	8	9	n/a	n/a	n/a	n/a	n/a
1400.544	n/a	STOP	350136	n/a	LTP251	ltpFR	9	n/a	n/a	n/a	n/a	n/a	n/a	n/a	n/a	n/a	n/a	n/a	n/a	n/a	n/a	n/a	n/a
1401.676	n/a	WORD	350419	wordpools/wasnorm_wordpool_less_exclusions.txt	LTP251	ltpFR	9	6	0	GRATE	657	n/a	n/a	1	n/a	0	0	0	0.422607421875	0.5869140625	0	lower	amplitud.ttf
1404.692	n/a	START	351173	n/a	LTP251	ltpFR	9	n/a	n/a	n/a	n/a	n/a	n/a	n/a	n/a	n/a	n/a	n/a	n/a	n/a	n/a	n/a	n/a
1405.676	n/a	PROB	351419	n/a	LTP251	ltpFR	9	n/a	n/a	n/a	n/a	n/a	n/a	n/a	16	7	3	6	n/a	n/a	n/a	n/a	n/a
1407.132	n/a	PROB	351783	n/a	LTP251	ltpFR	9	n/a	n/a	n/a	n/a	n/a	n/a	n/a	17	7	5	5	n/a	n/a	n/a	n/a	n/a
1409.472	n/a	PROB	352368	n/a	LTP251	ltpFR	9	n/a	n/a	n/a	n/a	n/a	n/a	n/a	11	2	3	6	n/a	n/a	n/a	n/a	n/a
1411.116	n/a	PROB	352779	n/a	LTP251	ltpFR	9	n/a	n/a	n/a	n/a	n/a	n/a	n/a	14	8	4	2	n/a	n/a	n/a	n/a	n/a
1412.404	n/a	STOP	353101	n/a	LTP251	ltpFR	9	n/a	n/a	n/a	n/a	n/a	n/a	n/a	n/a	n/a	n/a	n/a	n/a	n/a	n/a	n/a	n/a
1413.576	n/a	WORD	353394	wordpools/wasnorm_wordpool_less_exclusions.txt	LTP251	ltpFR	9	6	1	DUCK	504	n/a	n/a	0	n/a	0	0	0	0.57763671875	0.412841796875	1	upper	zerothre.ttf
1416.588	n/a	START	354147	n/a	LTP251	ltpFR	9	n/a	n/a	n/a	n/a	n/a	n/a	n/a	n/a	n/a	n/a	n/a	n/a	n/a	n/a	n/a	n/a
1417.556	n/a	PROB	354389	n/a	LTP251	ltpFR	9	n/a	n/a	n/a	n/a	n/a	n/a	n/a	13	8	3	2	n/a	n/a	n/a	n/a	n/a
1419.996	n/a	PROB	354999	n/a	LTP251	ltpFR	9	n/a	n/a	n/a	n/a	n/a	n/a	n/a	17	2	9	6	n/a	n/a	n/a	n/a	n/a
1423.372	n/a	STOP	355843	n/a	LTP251	ltpFR	9	n/a	n/a	n/a	n/a	n/a	n/a	n/a	n/a	n/a	n/a	n/a	n/a	n/a	n/a	n/a	n/a
1425.604	n/a	WORD	356401	wordpools/wasnorm_wordpool_less_exclusions.txt	LTP251	ltpFR	9	6	1	NEST	945	n/a	n/a	0	n/a	0	0	0	0.57763671875	0.412841796875	1	upper	zerothre.ttf
1428.616	n/a	START	357154	n/a	LTP251	ltpFR	9	n/a	n/a	n/a	n/a	n/a	n/a	n/a	n/a	n/a	n/a	n/a	n/a	n/a	n/a	n/a	n/a
1429.452	n/a	PROB	357363	n/a	LTP251	ltpFR	9	n/a	n/a	n/a	n/a	n/a	n/a	n/a	20	9	8	3	n/a	n/a	n/a	n/a	n/a
1431.612	n/a	PROB	357903	n/a	LTP251	ltpFR	9	n/a	n/a	n/a	n/a	n/a	n/a	n/a	21	9	5	8	n/a	n/a	n/a	n/a	n/a
1434.488	n/a	PROB	358622	n/a	LTP251	ltpFR	9	n/a	n/a	n/a	n/a	n/a	n/a	n/a	11	5	1	4	n/a	n/a	n/a	n/a	n/a
1436.548	n/a	STOP	359137	n/a	LTP251	ltpFR	9	n/a	n/a	n/a	n/a	n/a	n/a	n/a	n/a	n/a	n/a	n/a	n/a	n/a	n/a	n/a	n/a
1438.388	n/a	REC_START	359597	n/a	LTP251	ltpFR	9	6	n/a	n/a	n/a	n/a	n/a	n/a	n/a	0	0	0	n/a	n/a	n/a	n/a	n/a
1439.944	n/a	REC_WORD	359986	wordpools/wasnorm_wordpool_less_exclusions.txt	LTP251	ltpFR	9	6	1	NEST	945	n/a	n/a	0	n/a	0	0	0	n/a	n/a	n/a	n/a	n/a
1440.836	n/a	REC_WORD	360209	wordpools/wasnorm_wordpool_less_exclusions.txt	LTP251	ltpFR	9	6	0	BANJO	82	n/a	n/a	1	n/a	0	0	0	n/a	n/a	n/a	n/a	n/a
1443.776	n/a	REC_WORD	360944	wordpools/wasnorm_wordpool_less_exclusions.txt	LTP251	ltpFR	9	6	0	GRATE	657	n/a	n/a	1	n/a	0	0	0	n/a	n/a	n/a	n/a	n/a
1446.88	n/a	REC_WORD	361720	wordpools/wasnorm_wordpool_less_exclusions.txt	LTP251	ltpFR	9	6	0	MULE	931	n/a	n/a	1	n/a	0	0	0	n/a	n/a	n/a	n/a	n/a
1455.16	n/a	REC_WORD	363790	wordpools/wasnorm_wordpool_less_exclusions.txt	LTP251	ltpFR	9	6	1	BARRACUDA	90	n/a	n/a	0	n/a	0	0	0	n/a	n/a	n/a	n/a	n/a
1468.828	n/a	REC_WORD	367207	wordpools/wasnorm_wordpool_less_exclusions.txt	LTP251	ltpFR	9	6	1	BILL	126	n/a	n/a	0	n/a	0	0	0	n/a	n/a	n/a	n/a	n/a
1515.264	n/a	START	378816	n/a	LTP251	ltpFR	9	n/a	n/a	n/a	n/a	n/a	n/a	n/a	n/a	n/a	n/a	n/a	n/a	n/a	n/a	n/a	n/a
1516.768	n/a	PROB	379192	n/a	LTP251	ltpFR	9	n/a	n/a	n/a	n/a	n/a	n/a	n/a	20	2	9	9	n/a	n/a	n/a	n/a	n/a
1518.324	n/a	PROB	379581	n/a	LTP251	ltpFR	9	n/a	n/a	n/a	n/a	n/a	n/a	n/a	11	5	2	4	n/a	n/a	n/a	n/a	n/a
1520.432	n/a	PROB	380108	n/a	LTP251	ltpFR	9	n/a	n/a	n/a	n/a	n/a	n/a	n/a	19	8	2	9	n/a	n/a	n/a	n/a	n/a
1521.836	n/a	PROB	380459	n/a	LTP251	ltpFR	9	n/a	n/a	n/a	n/a	n/a	n/a	n/a	20	8	6	3	n/a	n/a	n/a	n/a	n/a
1523.528	n/a	PROB	380882	n/a	LTP251	ltpFR	9	n/a	n/a	n/a	n/a	n/a	n/a	n/a	14	2	4	7	n/a	n/a	n/a	n/a	n/a
1524.98	n/a	PROB	381245	n/a	LTP251	ltpFR	9	n/a	n/a	n/a	n/a	n/a	n/a	n/a	14	5	7	2	n/a	n/a	n/a	n/a	n/a
1526.272	n/a	PROB	381568	n/a	LTP251	ltpFR	9	n/a	n/a	n/a	n/a	n/a	n/a	n/a	13	9	2	2	n/a	n/a	n/a	n/a	n/a
1528.044	n/a	PROB	382011	n/a	LTP251	ltpFR	9	n/a	n/a	n/a	n/a	n/a	n/a	n/a	17	7	6	4	n/a	n/a	n/a	n/a	n/a
1529.464	n/a	PROB	382366	n/a	LTP251	ltpFR	9	n/a	n/a	n/a	n/a	n/a	n/a	n/a	7	1	5	1	n/a	n/a	n/a	n/a	n/a
1530.728	n/a	STOP	382682	n/a	LTP251	ltpFR	9	n/a	n/a	n/a	n/a	n/a	n/a	n/a	n/a	n/a	n/a	n/a	n/a	n/a	n/a	n/a	n/a
1532.096	n/a	WORD	383024	wordpools/wasnorm_wordpool_less_exclusions.txt	LTP251	ltpFR	9	7	0	SHOWER	1296	n/a	n/a	1	n/a	0	0	0	0.422607421875	0.5869140625	0	lower	amplitud.ttf
1535.108	n/a	START	383777	n/a	LTP251	ltpFR	9	n/a	n/a	n/a	n/a	n/a	n/a	n/a	n/a	n/a	n/a	n/a	n/a	n/a	n/a	n/a	n/a
1536.16	n/a	PROB	384040	n/a	LTP251	ltpFR	9	n/a	n/a	n/a	n/a	n/a	n/a	n/a	14	5	2	7	n/a	n/a	n/a	n/a	n/a
1537.748	n/a	PROB	384437	n/a	LTP251	ltpFR	9	n/a	n/a	n/a	n/a	n/a	n/a	n/a	24	8	9	9	n/a	n/a	n/a	n/a	n/a
1540.308	n/a	PROB	385077	n/a	LTP251	ltpFR	9	n/a	n/a	n/a	n/a	n/a	n/a	n/a	22	8	5	9	n/a	n/a	n/a	n/a	n/a
1543.084	n/a	PROB	385771	n/a	LTP251	ltpFR	9	n/a	n/a	n/a	n/a	n/a	n/a	n/a	12	6	5	1	n/a	n/a	n/a	n/a	n/a
1544.624	n/a	PROB	386156	n/a	LTP251	ltpFR	9	n/a	n/a	n/a	n/a	n/a	n/a	n/a	10	1	4	5	n/a	n/a	n/a	n/a	n/a
1546.16	n/a	PROB	386540	n/a	LTP251	ltpFR	9	n/a	n/a	n/a	n/a	n/a	n/a	n/a	25	9	7	9	n/a	n/a	n/a	n/a	n/a
1549.48	n/a	PROB	387370	n/a	LTP251	ltpFR	9	n/a	n/a	n/a	n/a	n/a	n/a	n/a	10	4	5	1	n/a	n/a	n/a	n/a	n/a
1550.608	n/a	STOP	387652	n/a	LTP251	ltpFR	9	n/a	n/a	n/a	n/a	n/a	n/a	n/a	n/a	n/a	n/a	n/a	n/a	n/a	n/a	n/a	n/a
1552.156	n/a	WORD	388039	wordpools/wasnorm_wordpool_less_exclusions.txt	LTP251	ltpFR	9	7	0	TOWEL	1489	n/a	n/a	0	n/a	0	0	0	0.422607421875	0.5869140625	0	lower	amplitud.ttf
1555.168	n/a	START	388792	n/a	LTP251	ltpFR	9	n/a	n/a	n/a	n/a	n/a	n/a	n/a	n/a	n/a	n/a	n/a	n/a	n/a	n/a	n/a	n/a
1556.32	n/a	PROB	389080	n/a	LTP251	ltpFR	9	n/a	n/a	n/a	n/a	n/a	n/a	n/a	13	5	3	5	n/a	n/a	n/a	n/a	n/a
1558.092	n/a	PROB	389523	n/a	LTP251	ltpFR	9	n/a	n/a	n/a	n/a	n/a	n/a	n/a	10	3	4	4	n/a	n/a	n/a	n/a	n/a
1559.716	n/a	PROB	389929	n/a	LTP251	ltpFR	9	n/a	n/a	n/a	n/a	n/a	n/a	n/a	13	3	2	8	n/a	n/a	n/a	n/a	n/a
1561.624	n/a	PROB	390406	n/a	LTP251	ltpFR	9	n/a	n/a	n/a	n/a	n/a	n/a	n/a	7	3	1	3	n/a	n/a	n/a	n/a	n/a
1563.548	n/a	PROB	390887	n/a	LTP251	ltpFR	9	n/a	n/a	n/a	n/a	n/a	n/a	n/a	11	1	3	7	n/a	n/a	n/a	n/a	n/a
1564.768	n/a	PROB	391192	n/a	LTP251	ltpFR	9	n/a	n/a	n/a	n/a	n/a	n/a	n/a	12	2	4	6	n/a	n/a	n/a	n/a	n/a
1566.36	n/a	PROB	391590	n/a	LTP251	ltpFR	9	n/a	n/a	n/a	n/a	n/a	n/a	n/a	9	4	4	1	n/a	n/a	n/a	n/a	n/a
1567.744	n/a	PROB	391936	n/a	LTP251	ltpFR	9	n/a	n/a	n/a	n/a	n/a	n/a	n/a	15	7	6	2	n/a	n/a	n/a	n/a	n/a
1571.168	n/a	STOP	392792	n/a	LTP251	ltpFR	9	n/a	n/a	n/a	n/a	n/a	n/a	n/a	n/a	n/a	n/a	n/a	n/a	n/a	n/a	n/a	n/a
1572.348	n/a	WORD	393087	wordpools/wasnorm_wordpool_less_exclusions.txt	LTP251	ltpFR	9	7	0	PLUM	1090	n/a	n/a	0	n/a	0	0	0	0.422607421875	0.5869140625	0	lower	amplitud.ttf
1575.36	n/a	START	393840	n/a	LTP251	ltpFR	9	n/a	n/a	n/a	n/a	n/a	n/a	n/a	n/a	n/a	n/a	n/a	n/a	n/a	n/a	n/a	n/a
1576.5	n/a	PROB	394125	n/a	LTP251	ltpFR	9	n/a	n/a	n/a	n/a	n/a	n/a	n/a	12	2	9	1	n/a	n/a	n/a	n/a	n/a
1579.724	n/a	PROB	394931	n/a	LTP251	ltpFR	9	n/a	n/a	n/a	n/a	n/a	n/a	n/a	15	7	4	4	n/a	n/a	n/a	n/a	n/a
1581.316	n/a	PROB	395329	n/a	LTP251	ltpFR	9	n/a	n/a	n/a	n/a	n/a	n/a	n/a	13	2	8	3	n/a	n/a	n/a	n/a	n/a
1583.052	n/a	PROB	395763	n/a	LTP251	ltpFR	9	n/a	n/a	n/a	n/a	n/a	n/a	n/a	21	6	6	7	n/a	n/a	n/a	n/a	n/a
1584.664	n/a	PROB	396166	n/a	LTP251	ltpFR	9	n/a	n/a	n/a	n/a	n/a	n/a	n/a	15	4	4	7	n/a	n/a	n/a	n/a	n/a
1586.936	n/a	PROB	396734	n/a	LTP251	ltpFR	9	n/a	n/a	n/a	n/a	n/a	n/a	n/a	25	6	3	6	n/a	n/a	n/a	n/a	n/a
1588.844	n/a	PROB	397211	n/a	LTP251	ltpFR	9	n/a	n/a	n/a	n/a	n/a	n/a	n/a	17	8	4	3	n/a	n/a	n/a	n/a	n/a
1590.644	n/a	STOP	397661	n/a	LTP251	ltpFR	9	n/a	n/a	n/a	n/a	n/a	n/a	n/a	n/a	n/a	n/a	n/a	n/a	n/a	n/a	n/a	n/a
1592.444	n/a	WORD	398111	wordpools/wasnorm_wordpool_less_exclusions.txt	LTP251	ltpFR	9	7	0	CABINET	212	n/a	n/a	1	n/a	0	0	0	0.422607421875	0.5869140625	0	lower	amplitud.ttf
1595.456	n/a	START	398864	n/a	LTP251	ltpFR	9	n/a	n/a	n/a	n/a	n/a	n/a	n/a	n/a	n/a	n/a	n/a	n/a	n/a	n/a	n/a	n/a
1596.424	n/a	PROB	399106	n/a	LTP251	ltpFR	9	n/a	n/a	n/a	n/a	n/a	n/a	n/a	11	5	4	2	n/a	n/a	n/a	n/a	n/a
1597.744	n/a	PROB	399436	n/a	LTP251	ltpFR	9	n/a	n/a	n/a	n/a	n/a	n/a	n/a	23	9	7	7	n/a	n/a	n/a	n/a	n/a
1601.892	n/a	PROB	400473	n/a	LTP251	ltpFR	9	n/a	n/a	n/a	n/a	n/a	n/a	n/a	15	9	1	5	n/a	n/a	n/a	n/a	n/a
1603.716	n/a	PROB	400929	n/a	LTP251	ltpFR	9	n/a	n/a	n/a	n/a	n/a	n/a	n/a	10	4	1	5	n/a	n/a	n/a	n/a	n/a
1605.188	n/a	PROB	401297	n/a	LTP251	ltpFR	9	n/a	n/a	n/a	n/a	n/a	n/a	n/a	10	2	5	3	n/a	n/a	n/a	n/a	n/a
1606.98	n/a	PROB	401745	n/a	LTP251	ltpFR	9	n/a	n/a	n/a	n/a	n/a	n/a	n/a	22	4	9	9	n/a	n/a	n/a	n/a	n/a
1611.456	n/a	STOP	402864	n/a	LTP251	ltpFR	9	n/a	n/a	n/a	n/a	n/a	n/a	n/a	n/a	n/a	n/a	n/a	n/a	n/a	n/a	n/a	n/a
1612.536	n/a	WORD	403134	wordpools/wasnorm_wordpool_less_exclusions.txt	LTP251	ltpFR	9	7	0	COOKIE	374	n/a	n/a	0	n/a	0	0	0	0.422607421875	0.5869140625	0	lower	amplitud.ttf
1615.548	n/a	START	403887	n/a	LTP251	ltpFR	9	n/a	n/a	n/a	n/a	n/a	n/a	n/a	n/a	n/a	n/a	n/a	n/a	n/a	n/a	n/a	n/a
1616.468	n/a	PROB	404117	n/a	LTP251	ltpFR	9	n/a	n/a	n/a	n/a	n/a	n/a	n/a	20	8	6	6	n/a	n/a	n/a	n/a	n/a
1617.824	n/a	PROB	404456	n/a	LTP251	ltpFR	9	n/a	n/a	n/a	n/a	n/a	n/a	n/a	15	9	2	4	n/a	n/a	n/a	n/a	n/a
1619.76	n/a	PROB	404940	n/a	LTP251	ltpFR	9	n/a	n/a	n/a	n/a	n/a	n/a	n/a	20	2	9	9	n/a	n/a	n/a	n/a	n/a
1621.8	n/a	PROB	405450	n/a	LTP251	ltpFR	9	n/a	n/a	n/a	n/a	n/a	n/a	n/a	19	9	6	4	n/a	n/a	n/a	n/a	n/a
1623.324	n/a	PROB	405831	n/a	LTP251	ltpFR	9	n/a	n/a	n/a	n/a	n/a	n/a	n/a	21	9	3	9	n/a	n/a	n/a	n/a	n/a
1625.132	n/a	PROB	406283	n/a	LTP251	ltpFR	9	n/a	n/a	n/a	n/a	n/a	n/a	n/a	24	9	7	8	n/a	n/a	n/a	n/a	n/a
1627.508	n/a	PROB	406877	n/a	LTP251	ltpFR	9	n/a	n/a	n/a	n/a	n/a	n/a	n/a	15	8	4	3	n/a	n/a	n/a	n/a	n/a
1629.0	n/a	PROB	407250	n/a	LTP251	ltpFR	9	n/a	n/a	n/a	n/a	n/a	n/a	n/a	9	1	5	3	n/a	n/a	n/a	n/a	n/a
1630.808	n/a	STOP	407702	n/a	LTP251	ltpFR	9	n/a	n/a	n/a	n/a	n/a	n/a	n/a	n/a	n/a	n/a	n/a	n/a	n/a	n/a	n/a	n/a
1632.596	n/a	WORD	408149	wordpools/wasnorm_wordpool_less_exclusions.txt	LTP251	ltpFR	9	7	0	PUDDING	1139	n/a	n/a	1	n/a	0	0	0	0.422607421875	0.5869140625	0	lower	amplitud.ttf
1635.608	n/a	START	408902	n/a	LTP251	ltpFR	9	n/a	n/a	n/a	n/a	n/a	n/a	n/a	n/a	n/a	n/a	n/a	n/a	n/a	n/a	n/a	n/a
1636.712	n/a	PROB	409178	n/a	LTP251	ltpFR	9	n/a	n/a	n/a	n/a	n/a	n/a	n/a	7	2	2	3	n/a	n/a	n/a	n/a	n/a
1639.504	n/a	PROB	409876	n/a	LTP251	ltpFR	9	n/a	n/a	n/a	n/a	n/a	n/a	n/a	15	1	5	9	n/a	n/a	n/a	n/a	n/a
1641.812	n/a	PROB	410453	n/a	LTP251	ltpFR	9	n/a	n/a	n/a	n/a	n/a	n/a	n/a	9	2	5	2	n/a	n/a	n/a	n/a	n/a
1643.3	n/a	PROB	410825	n/a	LTP251	ltpFR	9	n/a	n/a	n/a	n/a	n/a	n/a	n/a	10	1	2	7	n/a	n/a	n/a	n/a	n/a
1644.52	n/a	PROB	411130	n/a	LTP251	ltpFR	9	n/a	n/a	n/a	n/a	n/a	n/a	n/a	9	1	1	7	n/a	n/a	n/a	n/a	n/a
1645.728	n/a	PROB	411432	n/a	LTP251	ltpFR	9	n/a	n/a	n/a	n/a	n/a	n/a	n/a	13	4	7	2	n/a	n/a	n/a	n/a	n/a
1648.84	n/a	PROB	412210	n/a	LTP251	ltpFR	9	n/a	n/a	n/a	n/a	n/a	n/a	n/a	18	5	5	8	n/a	n/a	n/a	n/a	n/a
1650.632	n/a	STOP	412658	n/a	LTP251	ltpFR	9	n/a	n/a	n/a	n/a	n/a	n/a	n/a	n/a	n/a	n/a	n/a	n/a	n/a	n/a	n/a	n/a
1652.672	n/a	WORD	413168	wordpools/wasnorm_wordpool_less_exclusions.txt	LTP251	ltpFR	9	7	0	CHEMICAL	291	n/a	n/a	1	n/a	0	0	0	0.422607421875	0.5869140625	0	lower	amplitud.ttf
1655.684	n/a	START	413921	n/a	LTP251	ltpFR	9	n/a	n/a	n/a	n/a	n/a	n/a	n/a	n/a	n/a	n/a	n/a	n/a	n/a	n/a	n/a	n/a
1656.804	n/a	PROB	414201	n/a	LTP251	ltpFR	9	n/a	n/a	n/a	n/a	n/a	n/a	n/a	15	5	3	6	n/a	n/a	n/a	n/a	n/a
1659.112	n/a	PROB	414778	n/a	LTP251	ltpFR	9	n/a	n/a	n/a	n/a	n/a	n/a	n/a	13	4	1	8	n/a	n/a	n/a	n/a	n/a
1660.916	n/a	PROB	415229	n/a	LTP251	ltpFR	9	n/a	n/a	n/a	n/a	n/a	n/a	n/a	14	2	9	3	n/a	n/a	n/a	n/a	n/a
1665.252	n/a	PROB	416313	n/a	LTP251	ltpFR	9	n/a	n/a	n/a	n/a	n/a	n/a	n/a	24	8	7	9	n/a	n/a	n/a	n/a	n/a
1668.7	n/a	PROB	417175	n/a	LTP251	ltpFR	9	n/a	n/a	n/a	n/a	n/a	n/a	n/a	10	3	2	5	n/a	n/a	n/a	n/a	n/a
1671.688	n/a	STOP	417922	n/a	LTP251	ltpFR	9	n/a	n/a	n/a	n/a	n/a	n/a	n/a	n/a	n/a	n/a	n/a	n/a	n/a	n/a	n/a	n/a
1672.732	n/a	WORD	418183	wordpools/wasnorm_wordpool_less_exclusions.txt	LTP251	ltpFR	9	7	0	ALBUM	14	n/a	n/a	0	n/a	0	0	0	0.422607421875	0.5869140625	0	lower	amplitud.ttf
1675.744	n/a	START	418936	n/a	LTP251	ltpFR	9	n/a	n/a	n/a	n/a	n/a	n/a	n/a	n/a	n/a	n/a	n/a	n/a	n/a	n/a	n/a	n/a
1676.616	n/a	PROB	419154	n/a	LTP251	ltpFR	9	n/a	n/a	n/a	n/a	n/a	n/a	n/a	1	5	1	7	n/a	n/a	n/a	n/a	n/a
1678.052	n/a	PROB	419513	n/a	LTP251	ltpFR	9	n/a	n/a	n/a	n/a	n/a	n/a	n/a	14	2	7	5	n/a	n/a	n/a	n/a	n/a
1680.944	n/a	PROB	420236	n/a	LTP251	ltpFR	9	n/a	n/a	n/a	n/a	n/a	n/a	n/a	12	2	1	9	n/a	n/a	n/a	n/a	n/a
1682.368	n/a	PROB	420592	n/a	LTP251	ltpFR	9	n/a	n/a	n/a	n/a	n/a	n/a	n/a	19	3	7	9	n/a	n/a	n/a	n/a	n/a
1683.672	n/a	PROB	420918	n/a	LTP251	ltpFR	9	n/a	n/a	n/a	n/a	n/a	n/a	n/a	21	7	8	6	n/a	n/a	n/a	n/a	n/a
1685.412	n/a	PROB	421353	n/a	LTP251	ltpFR	9	n/a	n/a	n/a	n/a	n/a	n/a	n/a	14	2	3	9	n/a	n/a	n/a	n/a	n/a
1687.42	n/a	PROB	421855	n/a	LTP251	ltpFR	9	n/a	n/a	n/a	n/a	n/a	n/a	n/a	13	3	3	7	n/a	n/a	n/a	n/a	n/a
1688.824	n/a	PROB	422206	n/a	LTP251	ltpFR	9	n/a	n/a	n/a	n/a	n/a	n/a	n/a	17	3	5	9	n/a	n/a	n/a	n/a	n/a
1690.64	n/a	STOP	422660	n/a	LTP251	ltpFR	9	n/a	n/a	n/a	n/a	n/a	n/a	n/a	n/a	n/a	n/a	n/a	n/a	n/a	n/a	n/a	n/a
1692.728	n/a	WORD	423182	wordpools/wasnorm_wordpool_less_exclusions.txt	LTP251	ltpFR	9	7	0	HAYSTACK	694	n/a	n/a	1	n/a	0	0	0	0.422607421875	0.5869140625	0	lower	amplitud.ttf
1695.74	n/a	START	423935	n/a	LTP251	ltpFR	9	n/a	n/a	n/a	n/a	n/a	n/a	n/a	n/a	n/a	n/a	n/a	n/a	n/a	n/a	n/a	n/a
1696.608	n/a	PROB	424152	n/a	LTP251	ltpFR	9	n/a	n/a	n/a	n/a	n/a	n/a	n/a	13	7	1	5	n/a	n/a	n/a	n/a	n/a
1698.28	n/a	PROB	424570	n/a	LTP251	ltpFR	9	n/a	n/a	n/a	n/a	n/a	n/a	n/a	10	4	5	1	n/a	n/a	n/a	n/a	n/a
1699.564	n/a	PROB	424891	n/a	LTP251	ltpFR	9	n/a	n/a	n/a	n/a	n/a	n/a	n/a	6	4	1	1	n/a	n/a	n/a	n/a	n/a
1701.152	n/a	PROB	425288	n/a	LTP251	ltpFR	9	n/a	n/a	n/a	n/a	n/a	n/a	n/a	15	7	7	4	n/a	n/a	n/a	n/a	n/a
1703.716	n/a	PROB	425929	n/a	LTP251	ltpFR	9	n/a	n/a	n/a	n/a	n/a	n/a	n/a	11	6	3	2	n/a	n/a	n/a	n/a	n/a
1705.724	n/a	PROB	426431	n/a	LTP251	ltpFR	9	n/a	n/a	n/a	n/a	n/a	n/a	n/a	13	1	7	5	n/a	n/a	n/a	n/a	n/a
1707.1	n/a	PROB	426775	n/a	LTP251	ltpFR	9	n/a	n/a	n/a	n/a	n/a	n/a	n/a	23	9	7	7	n/a	n/a	n/a	n/a	n/a
1710.86	n/a	STOP	427715	n/a	LTP251	ltpFR	9	n/a	n/a	n/a	n/a	n/a	n/a	n/a	n/a	n/a	n/a	n/a	n/a	n/a	n/a	n/a	n/a
1712.704	n/a	WORD	428176	wordpools/wasnorm_wordpool_less_exclusions.txt	LTP251	ltpFR	9	7	0	WINGS	1614	n/a	n/a	0	n/a	0	0	0	0.422607421875	0.5869140625	0	lower	amplitud.ttf
1715.716	n/a	START	428929	n/a	LTP251	ltpFR	9	n/a	n/a	n/a	n/a	n/a	n/a	n/a	n/a	n/a	n/a	n/a	n/a	n/a	n/a	n/a	n/a
1716.532	n/a	PROB	429133	n/a	LTP251	ltpFR	9	n/a	n/a	n/a	n/a	n/a	n/a	n/a	14	3	3	8	n/a	n/a	n/a	n/a	n/a
1717.952	n/a	PROB	429488	n/a	LTP251	ltpFR	9	n/a	n/a	n/a	n/a	n/a	n/a	n/a	23	9	9	5	n/a	n/a	n/a	n/a	n/a
1720.164	n/a	PROB	430041	n/a	LTP251	ltpFR	9	n/a	n/a	n/a	n/a	n/a	n/a	n/a	14	4	5	8	n/a	n/a	n/a	n/a	n/a
1721.8	n/a	PROB	430450	n/a	LTP251	ltpFR	9	n/a	n/a	n/a	n/a	n/a	n/a	n/a	19	6	5	8	n/a	n/a	n/a	n/a	n/a
1725.048	n/a	PROB	431262	n/a	LTP251	ltpFR	9	n/a	n/a	n/a	n/a	n/a	n/a	n/a	5	1	3	2	n/a	n/a	n/a	n/a	n/a
1726.352	n/a	PROB	431588	n/a	LTP251	ltpFR	9	n/a	n/a	n/a	n/a	n/a	n/a	n/a	5	2	1	2	n/a	n/a	n/a	n/a	n/a
1728.06	n/a	PROB	432015	n/a	LTP251	ltpFR	9	n/a	n/a	n/a	n/a	n/a	n/a	n/a	10	1	6	3	n/a	n/a	n/a	n/a	n/a
1730.38	n/a	STOP	432595	n/a	LTP251	ltpFR	9	n/a	n/a	n/a	n/a	n/a	n/a	n/a	n/a	n/a	n/a	n/a	n/a	n/a	n/a	n/a	n/a
1732.864	n/a	WORD	433216	wordpools/wasnorm_wordpool_less_exclusions.txt	LTP251	ltpFR	9	7	0	KITE	779	n/a	n/a	1	n/a	0	0	0	0.422607421875	0.5869140625	0	lower	amplitud.ttf
1735.876	n/a	START	433969	n/a	LTP251	ltpFR	9	n/a	n/a	n/a	n/a	n/a	n/a	n/a	n/a	n/a	n/a	n/a	n/a	n/a	n/a	n/a	n/a
1736.96	n/a	PROB	434240	n/a	LTP251	ltpFR	9	n/a	n/a	n/a	n/a	n/a	n/a	n/a	17	9	2	6	n/a	n/a	n/a	n/a	n/a
1739.352	n/a	PROB	434838	n/a	LTP251	ltpFR	9	n/a	n/a	n/a	n/a	n/a	n/a	n/a	24	9	7	8	n/a	n/a	n/a	n/a	n/a
1742.596	n/a	PROB	435649	n/a	LTP251	ltpFR	9	n/a	n/a	n/a	n/a	n/a	n/a	n/a	18	6	5	7	n/a	n/a	n/a	n/a	n/a
1744.456	n/a	PROB	436114	n/a	LTP251	ltpFR	9	n/a	n/a	n/a	n/a	n/a	n/a	n/a	20	9	4	7	n/a	n/a	n/a	n/a	n/a
1746.896	n/a	PROB	436724	n/a	LTP251	ltpFR	9	n/a	n/a	n/a	n/a	n/a	n/a	n/a	9	3	5	1	n/a	n/a	n/a	n/a	n/a
1748.256	n/a	PROB	437064	n/a	LTP251	ltpFR	9	n/a	n/a	n/a	n/a	n/a	n/a	n/a	15	8	6	1	n/a	n/a	n/a	n/a	n/a
1751.876	n/a	STOP	437969	n/a	LTP251	ltpFR	9	n/a	n/a	n/a	n/a	n/a	n/a	n/a	n/a	n/a	n/a	n/a	n/a	n/a	n/a	n/a	n/a
1753.036	n/a	WORD	438259	wordpools/wasnorm_wordpool_less_exclusions.txt	LTP251	ltpFR	9	7	0	FENCE	560	n/a	n/a	1	n/a	0	0	0	0.422607421875	0.5869140625	0	lower	amplitud.ttf
1756.052	n/a	START	439013	n/a	LTP251	ltpFR	9	n/a	n/a	n/a	n/a	n/a	n/a	n/a	n/a	n/a	n/a	n/a	n/a	n/a	n/a	n/a	n/a
1757.22	n/a	PROB	439305	n/a	LTP251	ltpFR	9	n/a	n/a	n/a	n/a	n/a	n/a	n/a	22	7	8	7	n/a	n/a	n/a	n/a	n/a
1759.832	n/a	PROB	439958	n/a	LTP251	ltpFR	9	n/a	n/a	n/a	n/a	n/a	n/a	n/a	11	2	4	5	n/a	n/a	n/a	n/a	n/a
1761.2	n/a	PROB	440300	n/a	LTP251	ltpFR	9	n/a	n/a	n/a	n/a	n/a	n/a	n/a	15	4	2	9	n/a	n/a	n/a	n/a	n/a
1762.992	n/a	PROB	440748	n/a	LTP251	ltpFR	9	n/a	n/a	n/a	n/a	n/a	n/a	n/a	14	5	8	1	n/a	n/a	n/a	n/a	n/a
1764.564	n/a	PROB	441141	n/a	LTP251	ltpFR	9	n/a	n/a	n/a	n/a	n/a	n/a	n/a	14	6	7	1	n/a	n/a	n/a	n/a	n/a
1766.12	n/a	PROB	441530	n/a	LTP251	ltpFR	9	n/a	n/a	n/a	n/a	n/a	n/a	n/a	11	5	3	6	n/a	n/a	n/a	n/a	n/a
1767.66	n/a	PROB	441915	n/a	LTP251	ltpFR	9	n/a	n/a	n/a	n/a	n/a	n/a	n/a	8	3	2	3	n/a	n/a	n/a	n/a	n/a
1770.452	n/a	PROB	442613	n/a	LTP251	ltpFR	9	n/a	n/a	n/a	n/a	n/a	n/a	n/a	8	5	2	3	n/a	n/a	n/a	n/a	n/a
1771.42	n/a	STOP	442855	n/a	LTP251	ltpFR	9	n/a	n/a	n/a	n/a	n/a	n/a	n/a	n/a	n/a	n/a	n/a	n/a	n/a	n/a	n/a	n/a
1772.984	n/a	WORD	443246	wordpools/wasnorm_wordpool_less_exclusions.txt	LTP251	ltpFR	9	7	0	FRIAR	605	n/a	n/a	1	n/a	0	0	0	0.422607421875	0.5869140625	0	lower	amplitud.ttf
1775.996	n/a	START	443999	n/a	LTP251	ltpFR	9	n/a	n/a	n/a	n/a	n/a	n/a	n/a	n/a	n/a	n/a	n/a	n/a	n/a	n/a	n/a	n/a
1776.996	n/a	PROB	444249	n/a	LTP251	ltpFR	9	n/a	n/a	n/a	n/a	n/a	n/a	n/a	9	4	4	1	n/a	n/a	n/a	n/a	n/a
1778.1	n/a	PROB	444525	n/a	LTP251	ltpFR	9	n/a	n/a	n/a	n/a	n/a	n/a	n/a	12	7	3	2	n/a	n/a	n/a	n/a	n/a
1779.304	n/a	PROB	444826	n/a	LTP251	ltpFR	9	n/a	n/a	n/a	n/a	n/a	n/a	n/a	8	2	4	3	n/a	n/a	n/a	n/a	n/a
1781.228	n/a	PROB	445307	n/a	LTP251	ltpFR	9	n/a	n/a	n/a	n/a	n/a	n/a	n/a	17	4	9	4	n/a	n/a	n/a	n/a	n/a
1783.92	n/a	PROB	445980	n/a	LTP251	ltpFR	9	n/a	n/a	n/a	n/a	n/a	n/a	n/a	18	7	6	5	n/a	n/a	n/a	n/a	n/a
1785.728	n/a	PROB	446432	n/a	LTP251	ltpFR	9	n/a	n/a	n/a	n/a	n/a	n/a	n/a	18	6	6	6	n/a	n/a	n/a	n/a	n/a
1786.948	n/a	PROB	446737	n/a	LTP251	ltpFR	9	n/a	n/a	n/a	n/a	n/a	n/a	n/a	13	8	3	2	n/a	n/a	n/a	n/a	n/a
1789.828	n/a	PROB	447457	n/a	LTP251	ltpFR	9	n/a	n/a	n/a	n/a	n/a	n/a	n/a	9	1	1	7	n/a	n/a	n/a	n/a	n/a
1790.88	n/a	STOP	447720	n/a	LTP251	ltpFR	9	n/a	n/a	n/a	n/a	n/a	n/a	n/a	n/a	n/a	n/a	n/a	n/a	n/a	n/a	n/a	n/a
1792.924	n/a	WORD	448231	wordpools/wasnorm_wordpool_less_exclusions.txt	LTP251	ltpFR	9	7	0	SPOOL	1356	n/a	n/a	1	n/a	0	0	0	0.422607421875	0.5869140625	0	lower	amplitud.ttf
1795.936	n/a	START	448984	n/a	LTP251	ltpFR	9	n/a	n/a	n/a	n/a	n/a	n/a	n/a	n/a	n/a	n/a	n/a	n/a	n/a	n/a	n/a	n/a
1796.924	n/a	PROB	449231	n/a	LTP251	ltpFR	9	n/a	n/a	n/a	n/a	n/a	n/a	n/a	13	4	8	1	n/a	n/a	n/a	n/a	n/a
1798.628	n/a	PROB	449657	n/a	LTP251	ltpFR	9	n/a	n/a	n/a	n/a	n/a	n/a	n/a	18	9	5	4	n/a	n/a	n/a	n/a	n/a
1801.256	n/a	PROB	450314	n/a	LTP251	ltpFR	9	n/a	n/a	n/a	n/a	n/a	n/a	n/a	18	8	7	3	n/a	n/a	n/a	n/a	n/a
1803.38	n/a	PROB	450845	n/a	LTP251	ltpFR	9	n/a	n/a	n/a	n/a	n/a	n/a	n/a	18	2	8	8	n/a	n/a	n/a	n/a	n/a
1805.988	n/a	PROB	451497	n/a	LTP251	ltpFR	9	n/a	n/a	n/a	n/a	n/a	n/a	n/a	20	8	7	5	n/a	n/a	n/a	n/a	n/a
1807.744	n/a	PROB	451936	n/a	LTP251	ltpFR	9	n/a	n/a	n/a	n/a	n/a	n/a	n/a	18	7	9	2	n/a	n/a	n/a	n/a	n/a
1811.94	n/a	STOP	452985	n/a	LTP251	ltpFR	9	n/a	n/a	n/a	n/a	n/a	n/a	n/a	n/a	n/a	n/a	n/a	n/a	n/a	n/a	n/a	n/a
1813.132	n/a	WORD	453283	wordpools/wasnorm_wordpool_less_exclusions.txt	LTP251	ltpFR	9	7	0	SKETCH	1315	n/a	n/a	0	n/a	0	0	0	0.422607421875	0.5869140625	0	lower	amplitud.ttf
1816.148	n/a	START	454037	n/a	LTP251	ltpFR	9	n/a	n/a	n/a	n/a	n/a	n/a	n/a	n/a	n/a	n/a	n/a	n/a	n/a	n/a	n/a	n/a
1817.22	n/a	PROB	454305	n/a	LTP251	ltpFR	9	n/a	n/a	n/a	n/a	n/a	n/a	n/a	22	8	9	5	n/a	n/a	n/a	n/a	n/a
1820.06	n/a	PROB	455015	n/a	LTP251	ltpFR	9	n/a	n/a	n/a	n/a	n/a	n/a	n/a	21	8	3	9	n/a	n/a	n/a	n/a	n/a
1823.256	n/a	PROB	455814	n/a	LTP251	ltpFR	9	n/a	n/a	n/a	n/a	n/a	n/a	n/a	14	6	5	3	n/a	n/a	n/a	n/a	n/a
1824.68	n/a	PROB	456170	n/a	LTP251	ltpFR	9	n/a	n/a	n/a	n/a	n/a	n/a	n/a	5	2	2	1	n/a	n/a	n/a	n/a	n/a
1825.78	n/a	PROB	456445	n/a	LTP251	ltpFR	9	n/a	n/a	n/a	n/a	n/a	n/a	n/a	15	9	1	5	n/a	n/a	n/a	n/a	n/a
1828.008	n/a	PROB	457002	n/a	LTP251	ltpFR	9	n/a	n/a	n/a	n/a	n/a	n/a	n/a	9	5	2	4	n/a	n/a	n/a	n/a	n/a
1829.584	n/a	PROB	457396	n/a	LTP251	ltpFR	9	n/a	n/a	n/a	n/a	n/a	n/a	n/a	7	3	3	4	n/a	n/a	n/a	n/a	n/a
1831.432	n/a	STOP	457858	n/a	LTP251	ltpFR	9	n/a	n/a	n/a	n/a	n/a	n/a	n/a	n/a	n/a	n/a	n/a	n/a	n/a	n/a	n/a	n/a
1833.008	n/a	WORD	458252	wordpools/wasnorm_wordpool_less_exclusions.txt	LTP251	ltpFR	9	7	0	LIGHTER	819	n/a	n/a	0	n/a	0	0	0	0.422607421875	0.5869140625	0	lower	amplitud.ttf
1836.024	n/a	START	459006	n/a	LTP251	ltpFR	9	n/a	n/a	n/a	n/a	n/a	n/a	n/a	n/a	n/a	n/a	n/a	n/a	n/a	n/a	n/a	n/a
1837.128	n/a	PROB	459282	n/a	LTP251	ltpFR	9	n/a	n/a	n/a	n/a	n/a	n/a	n/a	9	1	2	6	n/a	n/a	n/a	n/a	n/a
1838.432	n/a	PROB	459608	n/a	LTP251	ltpFR	9	n/a	n/a	n/a	n/a	n/a	n/a	n/a	14	3	6	5	n/a	n/a	n/a	n/a	n/a
1839.82	n/a	PROB	459955	n/a	LTP251	ltpFR	9	n/a	n/a	n/a	n/a	n/a	n/a	n/a	11	5	3	3	n/a	n/a	n/a	n/a	n/a
1842.496	n/a	PROB	460624	n/a	LTP251	ltpFR	9	n/a	n/a	n/a	n/a	n/a	n/a	n/a	13	9	1	3	n/a	n/a	n/a	n/a	n/a
1844.74	n/a	PROB	461185	n/a	LTP251	ltpFR	9	n/a	n/a	n/a	n/a	n/a	n/a	n/a	18	6	9	3	n/a	n/a	n/a	n/a	n/a
1847.364	n/a	PROB	461841	n/a	LTP251	ltpFR	9	n/a	n/a	n/a	n/a	n/a	n/a	n/a	12	7	4	2	n/a	n/a	n/a	n/a	n/a
1849.572	n/a	PROB	462393	n/a	LTP251	ltpFR	9	n/a	n/a	n/a	n/a	n/a	n/a	n/a	15	8	2	5	n/a	n/a	n/a	n/a	n/a
1851.088	n/a	STOP	462772	n/a	LTP251	ltpFR	9	n/a	n/a	n/a	n/a	n/a	n/a	n/a	n/a	n/a	n/a	n/a	n/a	n/a	n/a	n/a	n/a
1853.844	n/a	REC_START	463461	n/a	LTP251	ltpFR	9	7	n/a	n/a	n/a	n/a	n/a	n/a	n/a	0	0	0	n/a	n/a	n/a	n/a	n/a
1854.592	n/a	REC_WORD	463648	wordpools/wasnorm_wordpool_less_exclusions.txt	LTP251	ltpFR	9	7	0	ALBUM	14	n/a	n/a	0	n/a	0	0	0	n/a	n/a	n/a	n/a	n/a
1855.34	n/a	REC_WORD	463835	wordpools/wasnorm_wordpool_less_exclusions.txt	LTP251	ltpFR	9	7	0	TOWEL	1489	n/a	n/a	0	n/a	0	0	0	n/a	n/a	n/a	n/a	n/a
1856.092	n/a	REC_WORD	464023	wordpools/wasnorm_wordpool_less_exclusions.txt	LTP251	ltpFR	9	7	0	WINGS	1614	n/a	n/a	0	n/a	0	0	0	n/a	n/a	n/a	n/a	n/a
1856.984	n/a	REC_WORD	464246	wordpools/wasnorm_wordpool_less_exclusions.txt	LTP251	ltpFR	9	7	0	SPOOL	1356	n/a	n/a	1	n/a	0	0	0	n/a	n/a	n/a	n/a	n/a
1857.896	n/a	REC_WORD	464474	wordpools/wasnorm_wordpool_less_exclusions.txt	LTP251	ltpFR	9	7	0	SKETCH	1315	n/a	n/a	0	n/a	0	0	0	n/a	n/a	n/a	n/a	n/a
1858.812	n/a	REC_WORD	464703	wordpools/wasnorm_wordpool_less_exclusions.txt	LTP251	ltpFR	9	7	0	FRIAR	605	n/a	n/a	1	n/a	0	0	0	n/a	n/a	n/a	n/a	n/a
1862.524	n/a	REC_WORD	465631	wordpools/wasnorm_wordpool_less_exclusions.txt	LTP251	ltpFR	9	7	0	LIGHTER	819	n/a	n/a	0	n/a	0	0	0	n/a	n/a	n/a	n/a	n/a
1932.44	n/a	WORD	483110	wordpools/wasnorm_wordpool_less_exclusions.txt	LTP251	ltpFR	9	8	0	BUTLER	204	n/a	n/a	1	n/a	0	0	0	0.422607421875	0.5869140625	0	lower	amplitud.ttf
1936.42	n/a	WORD	484105	wordpools/wasnorm_wordpool_less_exclusions.txt	LTP251	ltpFR	9	8	0	COLT	349	n/a	n/a	1	n/a	0	0	0	0.422607421875	0.5869140625	0	lower	amplitud.ttf
1940.34	n/a	WORD	485085	wordpools/wasnorm_wordpool_less_exclusions.txt	LTP251	ltpFR	9	8	1	PAWN	1030	n/a	n/a	0	n/a	0	0	0	0.57763671875	0.412841796875	1	upper	zerothre.ttf
1944.436	n/a	WORD	486109	wordpools/wasnorm_wordpool_less_exclusions.txt	LTP251	ltpFR	9	8	1	DIAMOND	458	n/a	n/a	0	n/a	0	0	0	0.57763671875	0.412841796875	1	upper	zerothre.ttf
1948.572	n/a	WORD	487143	wordpools/wasnorm_wordpool_less_exclusions.txt	LTP251	ltpFR	9	8	1	FRIEND	606	n/a	n/a	0	n/a	0	0	0	0.57763671875	0.412841796875	1	upper	zerothre.ttf
1952.404	n/a	WORD	488101	wordpools/wasnorm_wordpool_less_exclusions.txt	LTP251	ltpFR	9	8	1	REGISTER	1180	n/a	n/a	0	n/a	0	0	0	0.57763671875	0.412841796875	1	upper	zerothre.ttf
1956.5	n/a	WORD	489125	wordpools/wasnorm_wordpool_less_exclusions.txt	LTP251	ltpFR	9	8	1	CATTLE	261	n/a	n/a	0	n/a	0	0	0	0.57763671875	0.412841796875	1	upper	zerothre.ttf
1960.364	n/a	WORD	490091	wordpools/wasnorm_wordpool_less_exclusions.txt	LTP251	ltpFR	9	8	0	ANIMAL	23	n/a	n/a	1	n/a	0	0	0	0.422607421875	0.5869140625	0	lower	amplitud.ttf
1964.496	n/a	WORD	491124	wordpools/wasnorm_wordpool_less_exclusions.txt	LTP251	ltpFR	9	8	0	FLIPPER	580	n/a	n/a	1	n/a	0	0	0	0.422607421875	0.5869140625	0	lower	amplitud.ttf
1968.564	n/a	WORD	492141	wordpools/wasnorm_wordpool_less_exclusions.txt	LTP251	ltpFR	9	8	1	MAMMAL	861	n/a	n/a	1	n/a	0	0	0	0.57763671875	0.412841796875	1	upper	zerothre.ttf
1972.776	n/a	WORD	493194	wordpools/wasnorm_wordpool_less_exclusions.txt	LTP251	ltpFR	9	8	1	FOE	587	n/a	n/a	1	n/a	0	0	0	0.57763671875	0.412841796875	1	upper	zerothre.ttf
1976.964	n/a	WORD	494241	wordpools/wasnorm_wordpool_less_exclusions.txt	LTP251	ltpFR	9	8	1	COBRA	336	n/a	n/a	1	n/a	0	0	0	0.57763671875	0.412841796875	1	upper	zerothre.ttf
1981.04	n/a	WORD	495260	wordpools/wasnorm_wordpool_less_exclusions.txt	LTP251	ltpFR	9	8	0	TOILET	1475	n/a	n/a	1	n/a	0	0	0	0.422607421875	0.5869140625	0	lower	amplitud.ttf
1985.056	n/a	WORD	496264	wordpools/wasnorm_wordpool_less_exclusions.txt	LTP251	ltpFR	9	8	0	EMERALD	528	n/a	n/a	0	n/a	0	0	0	0.422607421875	0.5869140625	0	lower	amplitud.ttf
1988.992	n/a	WORD	497248	wordpools/wasnorm_wordpool_less_exclusions.txt	LTP251	ltpFR	9	8	0	CAULIFLOWER	262	n/a	n/a	0	n/a	0	0	0	0.422607421875	0.5869140625	0	lower	amplitud.ttf
1992.872	n/a	WORD	498218	wordpools/wasnorm_wordpool_less_exclusions.txt	LTP251	ltpFR	9	8	0	WAGON	1578	n/a	n/a	1	n/a	0	0	0	0.422607421875	0.5869140625	0	lower	amplitud.ttf
1998.628	n/a	REC_START	499657	n/a	LTP251	ltpFR	9	8	n/a	n/a	n/a	n/a	n/a	n/a	n/a	0	0	0	n/a	n/a	n/a	n/a	n/a
1999.756	n/a	REC_WORD	499939	wordpools/wasnorm_wordpool_less_exclusions.txt	LTP251	ltpFR	9	8	0	EMERALD	528	n/a	n/a	0	n/a	0	0	0	n/a	n/a	n/a	n/a	n/a
2000.64	n/a	REC_WORD	500160	wordpools/wasnorm_wordpool_less_exclusions.txt	LTP251	ltpFR	9	8	0	CAULIFLOWER	262	n/a	n/a	0	n/a	0	0	0	n/a	n/a	n/a	n/a	n/a
2002.0	n/a	REC_WORD	500500	wordpools/wasnorm_wordpool_less_exclusions.txt	LTP251	ltpFR	9	8	1	DIAMOND	458	n/a	n/a	0	n/a	0	0	0	n/a	n/a	n/a	n/a	n/a
2003.532	n/a	REC_WORD	500883	wordpools/wasnorm_wordpool_less_exclusions.txt	LTP251	ltpFR	9	8	1	FOE	587	n/a	n/a	1	n/a	0	0	0	n/a	n/a	n/a	n/a	n/a
2005.016	n/a	REC_WORD	501254	wordpools/wasnorm_wordpool_less_exclusions.txt	LTP251	ltpFR	9	8	1	CATTLE	261	n/a	n/a	0	n/a	0	0	0	n/a	n/a	n/a	n/a	n/a
2019.692	n/a	REC_WORD	504923	wordpools/wasnorm_wordpool_less_exclusions.txt	LTP251	ltpFR	9	8	0	COLT	349	n/a	n/a	1	n/a	0	0	0	n/a	n/a	n/a	n/a	n/a
2021.248	n/a	REC_WORD	505312	wordpools/wasnorm_wordpool_less_exclusions.txt	LTP251	ltpFR	9	8	0	ANIMAL	23	n/a	n/a	1	n/a	0	0	0	n/a	n/a	n/a	n/a	n/a
2029.28	n/a	REC_WORD	507320	wordpools/wasnorm_wordpool_less_exclusions.txt	LTP251	ltpFR	9	8	0	TOILET	1475	n/a	n/a	1	n/a	0	0	0	n/a	n/a	n/a	n/a	n/a
2031.328	n/a	REC_WORD	507832	wordpools/wasnorm_wordpool_less_exclusions.txt	LTP251	ltpFR	9	8	0	BUTLER	204	n/a	n/a	1	n/a	0	0	0	n/a	n/a	n/a	n/a	n/a
2076.176	n/a	START	519044	n/a	LTP251	ltpFR	9	n/a	n/a	n/a	n/a	n/a	n/a	n/a	n/a	n/a	n/a	n/a	n/a	n/a	n/a	n/a	n/a
2077.68	n/a	PROB	519420	n/a	LTP251	ltpFR	9	n/a	n/a	n/a	n/a	n/a	n/a	n/a	21	6	9	6	n/a	n/a	n/a	n/a	n/a
2081.172	n/a	PROB	520293	n/a	LTP251	ltpFR	9	n/a	n/a	n/a	n/a	n/a	n/a	n/a	17	6	4	7	n/a	n/a	n/a	n/a	n/a
2084.176	n/a	STOP	521044	n/a	LTP251	ltpFR	9	n/a	n/a	n/a	n/a	n/a	n/a	n/a	n/a	n/a	n/a	n/a	n/a	n/a	n/a	n/a	n/a
2085.224	n/a	WORD	521306	wordpools/wasnorm_wordpool_less_exclusions.txt	LTP251	ltpFR	9	9	1	MANAGER	863	n/a	n/a	0	n/a	0	0	0	0.57763671875	0.412841796875	1	upper	zerothre.ttf
2088.24	n/a	START	522060	n/a	LTP251	ltpFR	9	n/a	n/a	n/a	n/a	n/a	n/a	n/a	n/a	n/a	n/a	n/a	n/a	n/a	n/a	n/a	n/a
2089.124	n/a	PROB	522281	n/a	LTP251	ltpFR	9	n/a	n/a	n/a	n/a	n/a	n/a	n/a	18	7	4	7	n/a	n/a	n/a	n/a	n/a
2090.928	n/a	PROB	522732	n/a	LTP251	ltpFR	9	n/a	n/a	n/a	n/a	n/a	n/a	n/a	13	2	2	9	n/a	n/a	n/a	n/a	n/a
2092.904	n/a	PROB	523226	n/a	LTP251	ltpFR	9	n/a	n/a	n/a	n/a	n/a	n/a	n/a	19	4	6	9	n/a	n/a	n/a	n/a	n/a
2094.708	n/a	PROB	523677	n/a	LTP251	ltpFR	9	n/a	n/a	n/a	n/a	n/a	n/a	n/a	18	2	6	6	n/a	n/a	n/a	n/a	n/a
2096.0	n/a	STOP	524000	n/a	LTP251	ltpFR	9	n/a	n/a	n/a	n/a	n/a	n/a	n/a	n/a	n/a	n/a	n/a	n/a	n/a	n/a	n/a	n/a
2097.388	n/a	WORD	524347	wordpools/wasnorm_wordpool_less_exclusions.txt	LTP251	ltpFR	9	9	1	ASSISTANT	48	n/a	n/a	1	n/a	0	0	0	0.57763671875	0.412841796875	1	upper	zerothre.ttf
2100.4	n/a	START	525100	n/a	LTP251	ltpFR	9	n/a	n/a	n/a	n/a	n/a	n/a	n/a	n/a	n/a	n/a	n/a	n/a	n/a	n/a	n/a	n/a
2101.472	n/a	PROB	525368	n/a	LTP251	ltpFR	9	n/a	n/a	n/a	n/a	n/a	n/a	n/a	9	1	2	6	n/a	n/a	n/a	n/a	n/a
2104.128	n/a	PROB	526032	n/a	LTP251	ltpFR	9	n/a	n/a	n/a	n/a	n/a	n/a	n/a	24	9	8	8	n/a	n/a	n/a	n/a	n/a
2107.536	n/a	STOP	526884	n/a	LTP251	ltpFR	9	n/a	n/a	n/a	n/a	n/a	n/a	n/a	n/a	n/a	n/a	n/a	n/a	n/a	n/a	n/a	n/a
2109.468	n/a	WORD	527367	wordpools/wasnorm_wordpool_less_exclusions.txt	LTP251	ltpFR	9	9	1	CLARINET	317	n/a	n/a	0	n/a	0	0	0	0.57763671875	0.412841796875	1	upper	zerothre.ttf
2112.48	n/a	START	528120	n/a	LTP251	ltpFR	9	n/a	n/a	n/a	n/a	n/a	n/a	n/a	n/a	n/a	n/a	n/a	n/a	n/a	n/a	n/a	n/a
2113.616	n/a	PROB	528404	n/a	LTP251	ltpFR	9	n/a	n/a	n/a	n/a	n/a	n/a	n/a	13	8	4	1	n/a	n/a	n/a	n/a	n/a
2114.868	n/a	PROB	528717	n/a	LTP251	ltpFR	9	n/a	n/a	n/a	n/a	n/a	n/a	n/a	9	5	2	3	n/a	n/a	n/a	n/a	n/a
2119.128	n/a	STOP	529782	n/a	LTP251	ltpFR	9	n/a	n/a	n/a	n/a	n/a	n/a	n/a	n/a	n/a	n/a	n/a	n/a	n/a	n/a	n/a	n/a
2121.648	n/a	WORD	530412	wordpools/wasnorm_wordpool_less_exclusions.txt	LTP251	ltpFR	9	9	1	BOYFRIEND	162	n/a	n/a	1	n/a	0	0	0	0.57763671875	0.412841796875	1	upper	zerothre.ttf
2124.66	n/a	START	531165	n/a	LTP251	ltpFR	9	n/a	n/a	n/a	n/a	n/a	n/a	n/a	n/a	n/a	n/a	n/a	n/a	n/a	n/a	n/a	n/a
2125.68	n/a	PROB	531420	n/a	LTP251	ltpFR	9	n/a	n/a	n/a	n/a	n/a	n/a	n/a	15	5	4	6	n/a	n/a	n/a	n/a	n/a
2127.952	n/a	PROB	531988	n/a	LTP251	ltpFR	9	n/a	n/a	n/a	n/a	n/a	n/a	n/a	16	2	7	7	n/a	n/a	n/a	n/a	n/a
2130.516	n/a	PROB	532629	n/a	LTP251	ltpFR	9	n/a	n/a	n/a	n/a	n/a	n/a	n/a	11	4	5	2	n/a	n/a	n/a	n/a	n/a
2131.816	n/a	STOP	532954	n/a	LTP251	ltpFR	9	n/a	n/a	n/a	n/a	n/a	n/a	n/a	n/a	n/a	n/a	n/a	n/a	n/a	n/a	n/a	n/a
2133.528	n/a	WORD	533382	wordpools/wasnorm_wordpool_less_exclusions.txt	LTP251	ltpFR	9	9	0	CONTAINER	366	n/a	n/a	0	n/a	0	0	0	0.422607421875	0.5869140625	0	lower	amplitud.ttf
2136.54	n/a	START	534135	n/a	LTP251	ltpFR	9	n/a	n/a	n/a	n/a	n/a	n/a	n/a	n/a	n/a	n/a	n/a	n/a	n/a	n/a	n/a	n/a
2137.544	n/a	PROB	534386	n/a	LTP251	ltpFR	9	n/a	n/a	n/a	n/a	n/a	n/a	n/a	19	8	7	4	n/a	n/a	n/a	n/a	n/a
2140.868	n/a	PROB	535217	n/a	LTP251	ltpFR	9	n/a	n/a	n/a	n/a	n/a	n/a	n/a	16	4	8	4	n/a	n/a	n/a	n/a	n/a
2143.248	n/a	STOP	535812	n/a	LTP251	ltpFR	9	n/a	n/a	n/a	n/a	n/a	n/a	n/a	n/a	n/a	n/a	n/a	n/a	n/a	n/a	n/a	n/a
2145.74	n/a	WORD	536435	wordpools/wasnorm_wordpool_less_exclusions.txt	LTP251	ltpFR	9	9	0	BOSS	152	n/a	n/a	1	n/a	0	0	0	0.422607421875	0.5869140625	0	lower	amplitud.ttf
2148.752	n/a	START	537188	n/a	LTP251	ltpFR	9	n/a	n/a	n/a	n/a	n/a	n/a	n/a	n/a	n/a	n/a	n/a	n/a	n/a	n/a	n/a	n/a
2149.624	n/a	PROB	537406	n/a	LTP251	ltpFR	9	n/a	n/a	n/a	n/a	n/a	n/a	n/a	11	2	6	3	n/a	n/a	n/a	n/a	n/a
2151.712	n/a	PROB	537928	n/a	LTP251	ltpFR	9	n/a	n/a	n/a	n/a	n/a	n/a	n/a	12	3	4	5	n/a	n/a	n/a	n/a	n/a
2153.284	n/a	PROB	538321	n/a	LTP251	ltpFR	9	n/a	n/a	n/a	n/a	n/a	n/a	n/a	13	7	1	5	n/a	n/a	n/a	n/a	n/a
2155.552	n/a	STOP	538888	n/a	LTP251	ltpFR	9	n/a	n/a	n/a	n/a	n/a	n/a	n/a	n/a	n/a	n/a	n/a	n/a	n/a	n/a	n/a	n/a
2157.804	n/a	WORD	539451	wordpools/wasnorm_wordpool_less_exclusions.txt	LTP251	ltpFR	9	9	0	FELLOW	558	n/a	n/a	1	n/a	0	0	0	0.422607421875	0.5869140625	0	lower	amplitud.ttf
2160.816	n/a	START	540204	n/a	LTP251	ltpFR	9	n/a	n/a	n/a	n/a	n/a	n/a	n/a	n/a	n/a	n/a	n/a	n/a	n/a	n/a	n/a	n/a
2161.984	n/a	PROB	540496	n/a	LTP251	ltpFR	9	n/a	n/a	n/a	n/a	n/a	n/a	n/a	21	9	6	6	n/a	n/a	n/a	n/a	n/a
2168.816	n/a	STOP	542204	n/a	LTP251	ltpFR	9	n/a	n/a	n/a	n/a	n/a	n/a	n/a	n/a	n/a	n/a	n/a	n/a	n/a	n/a	n/a	n/a
2169.684	n/a	WORD	542421	wordpools/wasnorm_wordpool_less_exclusions.txt	LTP251	ltpFR	9	9	1	COMMUNITY	356	n/a	n/a	1	n/a	0	0	0	0.57763671875	0.412841796875	1	upper	zerothre.ttf
2172.696	n/a	START	543174	n/a	LTP251	ltpFR	9	n/a	n/a	n/a	n/a	n/a	n/a	n/a	n/a	n/a	n/a	n/a	n/a	n/a	n/a	n/a	n/a
2173.732	n/a	PROB	543433	n/a	LTP251	ltpFR	9	n/a	n/a	n/a	n/a	n/a	n/a	n/a	15	2	4	9	n/a	n/a	n/a	n/a	n/a
2175.384	n/a	PROB	543846	n/a	LTP251	ltpFR	9	n/a	n/a	n/a	n/a	n/a	n/a	n/a	21	9	9	3	n/a	n/a	n/a	n/a	n/a
2177.428	n/a	PROB	544357	n/a	LTP251	ltpFR	9	n/a	n/a	n/a	n/a	n/a	n/a	n/a	8	3	1	4	n/a	n/a	n/a	n/a	n/a
2179.588	n/a	STOP	544897	n/a	LTP251	ltpFR	9	n/a	n/a	n/a	n/a	n/a	n/a	n/a	n/a	n/a	n/a	n/a	n/a	n/a	n/a	n/a	n/a
2181.544	n/a	WORD	545386	wordpools/wasnorm_wordpool_less_exclusions.txt	LTP251	ltpFR	9	9	1	HEN	703	n/a	n/a	0	n/a	0	0	0	0.57763671875	0.412841796875	1	upper	zerothre.ttf
2184.556	n/a	START	546139	n/a	LTP251	ltpFR	9	n/a	n/a	n/a	n/a	n/a	n/a	n/a	n/a	n/a	n/a	n/a	n/a	n/a	n/a	n/a	n/a
2185.376	n/a	PROB	546344	n/a	LTP251	ltpFR	9	n/a	n/a	n/a	n/a	n/a	n/a	n/a	12	2	7	3	n/a	n/a	n/a	n/a	n/a
2186.796	n/a	PROB	546699	n/a	LTP251	ltpFR	9	n/a	n/a	n/a	n/a	n/a	n/a	n/a	10	5	1	4	n/a	n/a	n/a	n/a	n/a
2189.492	n/a	PROB	547373	n/a	LTP251	ltpFR	9	n/a	n/a	n/a	n/a	n/a	n/a	n/a	18	4	8	5	n/a	n/a	n/a	n/a	n/a
2191.028	n/a	STOP	547757	n/a	LTP251	ltpFR	9	n/a	n/a	n/a	n/a	n/a	n/a	n/a	n/a	n/a	n/a	n/a	n/a	n/a	n/a	n/a	n/a
2193.488	n/a	WORD	548372	wordpools/wasnorm_wordpool_less_exclusions.txt	LTP251	ltpFR	9	9	1	RECORD	1176	n/a	n/a	0	n/a	0	0	0	0.57763671875	0.412841796875	1	upper	zerothre.ttf
2196.5	n/a	START	549125	n/a	LTP251	ltpFR	9	n/a	n/a	n/a	n/a	n/a	n/a	n/a	n/a	n/a	n/a	n/a	n/a	n/a	n/a	n/a	n/a
2197.5	n/a	PROB	549375	n/a	LTP251	ltpFR	9	n/a	n/a	n/a	n/a	n/a	n/a	n/a	12	5	6	1	n/a	n/a	n/a	n/a	n/a
2200.096	n/a	PROB	550024	n/a	LTP251	ltpFR	9	n/a	n/a	n/a	n/a	n/a	n/a	n/a	19	9	7	3	n/a	n/a	n/a	n/a	n/a
2201.616	n/a	PROB	550404	n/a	LTP251	ltpFR	9	n/a	n/a	n/a	n/a	n/a	n/a	n/a	19	8	7	4	n/a	n/a	n/a	n/a	n/a
2203.172	n/a	STOP	550793	n/a	LTP251	ltpFR	9	n/a	n/a	n/a	n/a	n/a	n/a	n/a	n/a	n/a	n/a	n/a	n/a	n/a	n/a	n/a	n/a
2205.552	n/a	WORD	551388	wordpools/wasnorm_wordpool_less_exclusions.txt	LTP251	ltpFR	9	9	1	BANANA	77	n/a	n/a	0	n/a	0	0	0	0.57763671875	0.412841796875	1	upper	zerothre.ttf
2208.564	n/a	START	552141	n/a	LTP251	ltpFR	9	n/a	n/a	n/a	n/a	n/a	n/a	n/a	n/a	n/a	n/a	n/a	n/a	n/a	n/a	n/a	n/a
2209.5	n/a	PROB	552375	n/a	LTP251	ltpFR	9	n/a	n/a	n/a	n/a	n/a	n/a	n/a	14	7	4	3	n/a	n/a	n/a	n/a	n/a
2211.336	n/a	PROB	552834	n/a	LTP251	ltpFR	9	n/a	n/a	n/a	n/a	n/a	n/a	n/a	17	4	4	9	n/a	n/a	n/a	n/a	n/a
2213.8	n/a	PROB	553450	n/a	LTP251	ltpFR	9	n/a	n/a	n/a	n/a	n/a	n/a	n/a	18	3	7	8	n/a	n/a	n/a	n/a	n/a
2215.348	n/a	STOP	553837	n/a	LTP251	ltpFR	9	n/a	n/a	n/a	n/a	n/a	n/a	n/a	n/a	n/a	n/a	n/a	n/a	n/a	n/a	n/a	n/a
2217.748	n/a	WORD	554437	wordpools/wasnorm_wordpool_less_exclusions.txt	LTP251	ltpFR	9	9	0	PEACH	1031	n/a	n/a	0	n/a	0	0	0	0.422607421875	0.5869140625	0	lower	amplitud.ttf
2220.76	n/a	START	555190	n/a	LTP251	ltpFR	9	n/a	n/a	n/a	n/a	n/a	n/a	n/a	n/a	n/a	n/a	n/a	n/a	n/a	n/a	n/a	n/a
2221.616	n/a	PROB	555404	n/a	LTP251	ltpFR	9	n/a	n/a	n/a	n/a	n/a	n/a	n/a	14	7	1	6	n/a	n/a	n/a	n/a	n/a
2223.216	n/a	PROB	555804	n/a	LTP251	ltpFR	9	n/a	n/a	n/a	n/a	n/a	n/a	n/a	11	5	2	4	n/a	n/a	n/a	n/a	n/a
2224.64	n/a	PROB	556160	n/a	LTP251	ltpFR	9	n/a	n/a	n/a	n/a	n/a	n/a	n/a	15	8	1	6	n/a	n/a	n/a	n/a	n/a
2226.212	n/a	PROB	556553	n/a	LTP251	ltpFR	9	n/a	n/a	n/a	n/a	n/a	n/a	n/a	12	4	1	7	n/a	n/a	n/a	n/a	n/a
2227.532	n/a	STOP	556883	n/a	LTP251	ltpFR	9	n/a	n/a	n/a	n/a	n/a	n/a	n/a	n/a	n/a	n/a	n/a	n/a	n/a	n/a	n/a	n/a
2229.676	n/a	WORD	557419	wordpools/wasnorm_wordpool_less_exclusions.txt	LTP251	ltpFR	9	9	0	COLESLAW	344	n/a	n/a	0	n/a	0	0	0	0.422607421875	0.5869140625	0	lower	amplitud.ttf
2232.692	n/a	START	558173	n/a	LTP251	ltpFR	9	n/a	n/a	n/a	n/a	n/a	n/a	n/a	n/a	n/a	n/a	n/a	n/a	n/a	n/a	n/a	n/a
2233.792	n/a	PROB	558448	n/a	LTP251	ltpFR	9	n/a	n/a	n/a	n/a	n/a	n/a	n/a	17	1	7	9	n/a	n/a	n/a	n/a	n/a
2237.072	n/a	PROB	559268	n/a	LTP251	ltpFR	9	n/a	n/a	n/a	n/a	n/a	n/a	n/a	22	7	8	7	n/a	n/a	n/a	n/a	n/a
2239.376	n/a	STOP	559844	n/a	LTP251	ltpFR	9	n/a	n/a	n/a	n/a	n/a	n/a	n/a	n/a	n/a	n/a	n/a	n/a	n/a	n/a	n/a	n/a
2241.524	n/a	WORD	560381	wordpools/wasnorm_wordpool_less_exclusions.txt	LTP251	ltpFR	9	9	0	SCALLOP	1242	n/a	n/a	0	n/a	0	0	0	0.422607421875	0.5869140625	0	lower	amplitud.ttf
2244.536	n/a	START	561134	n/a	LTP251	ltpFR	9	n/a	n/a	n/a	n/a	n/a	n/a	n/a	n/a	n/a	n/a	n/a	n/a	n/a	n/a	n/a	n/a
2245.704	n/a	PROB	561426	n/a	LTP251	ltpFR	9	n/a	n/a	n/a	n/a	n/a	n/a	n/a	17	4	6	7	n/a	n/a	n/a	n/a	n/a
2248.496	n/a	PROB	562124	n/a	LTP251	ltpFR	9	n/a	n/a	n/a	n/a	n/a	n/a	n/a	17	4	7	6	n/a	n/a	n/a	n/a	n/a
2250.168	n/a	PROB	562542	n/a	LTP251	ltpFR	9	n/a	n/a	n/a	n/a	n/a	n/a	n/a	6	1	1	4	n/a	n/a	n/a	n/a	n/a
2251.48	n/a	STOP	562870	n/a	LTP251	ltpFR	9	n/a	n/a	n/a	n/a	n/a	n/a	n/a	n/a	n/a	n/a	n/a	n/a	n/a	n/a	n/a	n/a
2253.452	n/a	WORD	563363	wordpools/wasnorm_wordpool_less_exclusions.txt	LTP251	ltpFR	9	9	0	WORM	1623	n/a	n/a	0	n/a	0	0	0	0.422607421875	0.5869140625	0	lower	amplitud.ttf
2256.464	n/a	START	564116	n/a	LTP251	ltpFR	9	n/a	n/a	n/a	n/a	n/a	n/a	n/a	n/a	n/a	n/a	n/a	n/a	n/a	n/a	n/a	n/a
2257.316	n/a	PROB	564329	n/a	LTP251	ltpFR	9	n/a	n/a	n/a	n/a	n/a	n/a	n/a	14	1	8	3	n/a	n/a	n/a	n/a	n/a
2259.036	n/a	PROB	564759	n/a	LTP251	ltpFR	9	n/a	n/a	n/a	n/a	n/a	n/a	n/a	23	7	9	7	n/a	n/a	n/a	n/a	n/a
2263.344	n/a	STOP	565836	n/a	LTP251	ltpFR	9	n/a	n/a	n/a	n/a	n/a	n/a	n/a	n/a	n/a	n/a	n/a	n/a	n/a	n/a	n/a	n/a
2265.416	n/a	WORD	566354	wordpools/wasnorm_wordpool_less_exclusions.txt	LTP251	ltpFR	9	9	0	LONDON	843	n/a	n/a	1	n/a	0	0	0	0.422607421875	0.5869140625	0	lower	amplitud.ttf
2268.428	n/a	START	567107	n/a	LTP251	ltpFR	9	n/a	n/a	n/a	n/a	n/a	n/a	n/a	n/a	n/a	n/a	n/a	n/a	n/a	n/a	n/a	n/a
2269.396	n/a	PROB	567349	n/a	LTP251	ltpFR	9	n/a	n/a	n/a	n/a	n/a	n/a	n/a	15	4	9	2	n/a	n/a	n/a	n/a	n/a
2271.184	n/a	PROB	567796	n/a	LTP251	ltpFR	9	n/a	n/a	n/a	n/a	n/a	n/a	n/a	16	9	6	1	n/a	n/a	n/a	n/a	n/a
2273.928	n/a	PROB	568482	n/a	LTP251	ltpFR	9	n/a	n/a	n/a	n/a	n/a	n/a	n/a	17	5	4	7	n/a	n/a	n/a	n/a	n/a
2275.776	n/a	STOP	568944	n/a	LTP251	ltpFR	9	n/a	n/a	n/a	n/a	n/a	n/a	n/a	n/a	n/a	n/a	n/a	n/a	n/a	n/a	n/a	n/a
2278.3	n/a	REC_START	569575	n/a	LTP251	ltpFR	9	9	n/a	n/a	n/a	n/a	n/a	n/a	n/a	0	0	0	n/a	n/a	n/a	n/a	n/a
2279.564	n/a	REC_WORD	569891	wordpools/wasnorm_wordpool_less_exclusions.txt	LTP251	ltpFR	9	9	0	PEACH	1031	n/a	n/a	0	n/a	0	0	0	n/a	n/a	n/a	n/a	n/a
2280.572	n/a	REC_WORD	570143	wordpools/wasnorm_wordpool_less_exclusions.txt	LTP251	ltpFR	9	9	0	WORM	1623	n/a	n/a	0	n/a	0	0	0	n/a	n/a	n/a	n/a	n/a
2281.752	n/a	REC_WORD	570438	wordpools/wasnorm_wordpool_less_exclusions.txt	LTP251	ltpFR	9	9	0	CONTAINER	366	n/a	n/a	0	n/a	0	0	0	n/a	n/a	n/a	n/a	n/a
2283.096	n/a	REC_WORD	570774	wordpools/wasnorm_wordpool_less_exclusions.txt	LTP251	ltpFR	9	9	0	SCALLOP	1242	n/a	n/a	0	n/a	0	0	0	n/a	n/a	n/a	n/a	n/a
2284.464	n/a	REC_WORD	571116	wordpools/wasnorm_wordpool_less_exclusions.txt	LTP251	ltpFR	9	9	0	COLESLAW	344	n/a	n/a	0	n/a	0	0	0	n/a	n/a	n/a	n/a	n/a
2285.768	n/a	REC_WORD	571442	wordpools/wasnorm_wordpool_less_exclusions.txt	LTP251	ltpFR	9	9	0	LONDON	843	n/a	n/a	1	n/a	0	0	0	n/a	n/a	n/a	n/a	n/a
2358.052	n/a	WORD	589513	wordpools/wasnorm_wordpool_less_exclusions.txt	LTP251	ltpFR	9	10	0	CARD	243	n/a	n/a	0	n/a	0	0	0	0.422607421875	0.5869140625	0	lower	amplitud.ttf
2362.016	n/a	WORD	590504	wordpools/wasnorm_wordpool_less_exclusions.txt	LTP251	ltpFR	9	10	0	PROFESSIONAL	1130	n/a	n/a	1	n/a	0	0	0	0.422607421875	0.5869140625	0	lower	amplitud.ttf
2366.18	n/a	WORD	591545	wordpools/wasnorm_wordpool_less_exclusions.txt	LTP251	ltpFR	9	10	0	SCALPEL	1243	n/a	n/a	0	n/a	0	0	0	0.422607421875	0.5869140625	0	lower	amplitud.ttf
2370.164	n/a	WORD	592541	wordpools/wasnorm_wordpool_less_exclusions.txt	LTP251	ltpFR	9	10	0	VASE	1549	n/a	n/a	1	n/a	0	0	0	0.422607421875	0.5869140625	0	lower	amplitud.ttf
2374.132	n/a	WORD	593533	wordpools/wasnorm_wordpool_less_exclusions.txt	LTP251	ltpFR	9	10	1	DANDELION	438	n/a	n/a	1	n/a	0	0	0	0.57763671875	0.412841796875	1	upper	zerothre.ttf
2378.344	n/a	WORD	594586	wordpools/wasnorm_wordpool_less_exclusions.txt	LTP251	ltpFR	9	10	1	GARDEN	623	n/a	n/a	1	n/a	0	0	0	0.57763671875	0.412841796875	1	upper	zerothre.ttf
2382.48	n/a	WORD	595620	wordpools/wasnorm_wordpool_less_exclusions.txt	LTP251	ltpFR	9	10	1	CALENDAR	221	n/a	n/a	0	n/a	0	0	0	0.57763671875	0.412841796875	1	upper	zerothre.ttf
2386.624	n/a	WORD	596656	wordpools/wasnorm_wordpool_less_exclusions.txt	LTP251	ltpFR	9	10	1	JOKER	759	n/a	n/a	1	n/a	0	0	0	0.57763671875	0.412841796875	1	upper	zerothre.ttf
2390.576	n/a	WORD	597644	wordpools/wasnorm_wordpool_less_exclusions.txt	LTP251	ltpFR	9	10	1	NEPHEW	942	n/a	n/a	1	n/a	0	0	0	0.57763671875	0.412841796875	1	upper	zerothre.ttf
2394.624	n/a	WORD	598656	wordpools/wasnorm_wordpool_less_exclusions.txt	LTP251	ltpFR	9	10	1	ROOT	1210	n/a	n/a	1	n/a	0	0	0	0.57763671875	0.412841796875	1	upper	zerothre.ttf
2398.756	n/a	WORD	599689	wordpools/wasnorm_wordpool_less_exclusions.txt	LTP251	ltpFR	9	10	0	PEDAL	1037	n/a	n/a	0	n/a	0	0	0	0.422607421875	0.5869140625	0	lower	amplitud.ttf
2402.652	n/a	WORD	600663	wordpools/wasnorm_wordpool_less_exclusions.txt	LTP251	ltpFR	9	10	0	OFFICER	973	n/a	n/a	1	n/a	0	0	0	0.422607421875	0.5869140625	0	lower	amplitud.ttf
2406.62	n/a	WORD	601655	wordpools/wasnorm_wordpool_less_exclusions.txt	LTP251	ltpFR	9	10	0	PANTS	1010	n/a	n/a	1	n/a	0	0	0	0.422607421875	0.5869140625	0	lower	amplitud.ttf
2410.552	n/a	WORD	602638	wordpools/wasnorm_wordpool_less_exclusions.txt	LTP251	ltpFR	9	10	0	BUTTON	207	n/a	n/a	1	n/a	0	0	0	0.422607421875	0.5869140625	0	lower	amplitud.ttf
2414.532	n/a	WORD	603633	wordpools/wasnorm_wordpool_less_exclusions.txt	LTP251	ltpFR	9	10	1	SHERIFF	1284	n/a	n/a	1	n/a	0	0	0	0.57763671875	0.412841796875	1	upper	zerothre.ttf
2418.548	n/a	WORD	604637	wordpools/wasnorm_wordpool_less_exclusions.txt	LTP251	ltpFR	9	10	1	IGLOO	734	n/a	n/a	1	n/a	0	0	0	0.57763671875	0.412841796875	1	upper	zerothre.ttf
2421.56	n/a	START	605390	n/a	LTP251	ltpFR	9	n/a	n/a	n/a	n/a	n/a	n/a	n/a	n/a	n/a	n/a	n/a	n/a	n/a	n/a	n/a	n/a
2422.616	n/a	PROB	605654	n/a	LTP251	ltpFR	9	n/a	n/a	n/a	n/a	n/a	n/a	n/a	14	4	1	9	n/a	n/a	n/a	n/a	n/a
2426.376	n/a	PROB	606594	n/a	LTP251	ltpFR	9	n/a	n/a	n/a	n/a	n/a	n/a	n/a	13	1	9	3	n/a	n/a	n/a	n/a	n/a
2428.704	n/a	STOP	607176	n/a	LTP251	ltpFR	9	n/a	n/a	n/a	n/a	n/a	n/a	n/a	n/a	n/a	n/a	n/a	n/a	n/a	n/a	n/a	n/a
2431.44	n/a	REC_START	607860	n/a	LTP251	ltpFR	9	10	n/a	n/a	n/a	n/a	n/a	n/a	n/a	0	0	0	n/a	n/a	n/a	n/a	n/a
2432.116	n/a	REC_WORD	608029	wordpools/wasnorm_wordpool_less_exclusions.txt	LTP251	ltpFR	9	10	0	CARD	243	n/a	n/a	0	n/a	0	0	0	n/a	n/a	n/a	n/a	n/a
2433.112	n/a	REC_WORD	608278	wordpools/wasnorm_wordpool_less_exclusions.txt	LTP251	ltpFR	9	10	0	SCALPEL	1243	n/a	n/a	0	n/a	0	0	0	n/a	n/a	n/a	n/a	n/a
2434.52	n/a	REC_WORD	608630	wordpools/wasnorm_wordpool_less_exclusions.txt	LTP251	ltpFR	9	10	0	VASE	1549	n/a	n/a	1	n/a	0	0	0	n/a	n/a	n/a	n/a	n/a
2435.656	n/a	REC_WORD	608914	wordpools/wasnorm_wordpool_less_exclusions.txt	LTP251	ltpFR	9	10	0	BUTTON	207	n/a	n/a	1	n/a	0	0	0	n/a	n/a	n/a	n/a	n/a
2437.12	n/a	REC_WORD	609280	wordpools/wasnorm_wordpool_less_exclusions.txt	LTP251	ltpFR	9	10	1	DANDELION	438	n/a	n/a	1	n/a	0	0	0	n/a	n/a	n/a	n/a	n/a
2449.896	n/a	REC_WORD	612474	wordpools/wasnorm_wordpool_less_exclusions.txt	LTP251	ltpFR	9	10	1	IGLOO	734	n/a	n/a	1	n/a	0	0	0	n/a	n/a	n/a	n/a	n/a
2507.068	n/a	REST_REWET	626767	n/a	LTP251	ltpFR	9	10	n/a	n/a	n/a	n/a	n/a	n/a	n/a	0	0	0	n/a	n/a	n/a	n/a	n/a
2767.748	n/a	START	691937	n/a	LTP251	ltpFR	9	n/a	n/a	n/a	n/a	n/a	n/a	n/a	n/a	n/a	n/a	n/a	n/a	n/a	n/a	n/a	n/a
2769.256	n/a	PROB	692314	n/a	LTP251	ltpFR	9	n/a	n/a	n/a	n/a	n/a	n/a	n/a	19	9	6	4	n/a	n/a	n/a	n/a	n/a
2771.36	n/a	PROB	692840	n/a	LTP251	ltpFR	9	n/a	n/a	n/a	n/a	n/a	n/a	n/a	14	9	1	4	n/a	n/a	n/a	n/a	n/a
2772.788	n/a	PROB	693197	n/a	LTP251	ltpFR	9	n/a	n/a	n/a	n/a	n/a	n/a	n/a	17	3	9	4	n/a	n/a	n/a	n/a	n/a
2774.408	n/a	PROB	693602	n/a	LTP251	ltpFR	9	n/a	n/a	n/a	n/a	n/a	n/a	n/a	21	9	7	5	n/a	n/a	n/a	n/a	n/a
2777.052	n/a	PROB	694263	n/a	LTP251	ltpFR	9	n/a	n/a	n/a	n/a	n/a	n/a	n/a	17	5	5	7	n/a	n/a	n/a	n/a	n/a
2778.324	n/a	PROB	694581	n/a	LTP251	ltpFR	9	n/a	n/a	n/a	n/a	n/a	n/a	n/a	20	4	8	6	n/a	n/a	n/a	n/a	n/a
2780.628	n/a	PROB	695157	n/a	LTP251	ltpFR	9	n/a	n/a	n/a	n/a	n/a	n/a	n/a	6	1	1	2	n/a	n/a	n/a	n/a	n/a
2782.004	n/a	PROB	695501	n/a	LTP251	ltpFR	9	n/a	n/a	n/a	n/a	n/a	n/a	n/a	11	6	1	4	n/a	n/a	n/a	n/a	n/a
2783.444	n/a	STOP	695861	n/a	LTP251	ltpFR	9	n/a	n/a	n/a	n/a	n/a	n/a	n/a	n/a	n/a	n/a	n/a	n/a	n/a	n/a	n/a	n/a
2784.716	n/a	WORD	696179	wordpools/wasnorm_wordpool_less_exclusions.txt	LTP251	ltpFR	9	11	1	ESSAY	540	n/a	n/a	0	n/a	0	0	0	0.57763671875	0.412841796875	1	upper	zerothre.ttf
2787.728	n/a	START	696932	n/a	LTP251	ltpFR	9	n/a	n/a	n/a	n/a	n/a	n/a	n/a	n/a	n/a	n/a	n/a	n/a	n/a	n/a	n/a	n/a
2788.596	n/a	PROB	697149	n/a	LTP251	ltpFR	9	n/a	n/a	n/a	n/a	n/a	n/a	n/a	2	9	5	8	n/a	n/a	n/a	n/a	n/a
2793.996	n/a	PROB	698499	n/a	LTP251	ltpFR	9	n/a	n/a	n/a	n/a	n/a	n/a	n/a	15	3	3	9	n/a	n/a	n/a	n/a	n/a
2797.476	n/a	PROB	699369	n/a	LTP251	ltpFR	9	n/a	n/a	n/a	n/a	n/a	n/a	n/a	6	1	2	3	n/a	n/a	n/a	n/a	n/a
2798.784	n/a	PROB	699696	n/a	LTP251	ltpFR	9	n/a	n/a	n/a	n/a	n/a	n/a	n/a	15	3	3	9	n/a	n/a	n/a	n/a	n/a
2800.872	n/a	PROB	700218	n/a	LTP251	ltpFR	9	n/a	n/a	n/a	n/a	n/a	n/a	n/a	13	3	1	9	n/a	n/a	n/a	n/a	n/a
2803.092	n/a	STOP	700773	n/a	LTP251	ltpFR	9	n/a	n/a	n/a	n/a	n/a	n/a	n/a	n/a	n/a	n/a	n/a	n/a	n/a	n/a	n/a	n/a
2804.776	n/a	WORD	701194	wordpools/wasnorm_wordpool_less_exclusions.txt	LTP251	ltpFR	9	11	1	SPATULA	1348	n/a	n/a	0	n/a	0	0	0	0.57763671875	0.412841796875	1	upper	zerothre.ttf
2807.788	n/a	START	701947	n/a	LTP251	ltpFR	9	n/a	n/a	n/a	n/a	n/a	n/a	n/a	n/a	n/a	n/a	n/a	n/a	n/a	n/a	n/a	n/a
2808.736	n/a	PROB	702184	n/a	LTP251	ltpFR	9	n/a	n/a	n/a	n/a	n/a	n/a	n/a	24	8	9	8	n/a	n/a	n/a	n/a	n/a
2812.12	n/a	PROB	703030	n/a	LTP251	ltpFR	9	n/a	n/a	n/a	n/a	n/a	n/a	n/a	22	9	6	7	n/a	n/a	n/a	n/a	n/a
2817.152	n/a	PROB	704288	n/a	LTP251	ltpFR	9	n/a	n/a	n/a	n/a	n/a	n/a	n/a	10	3	6	3	n/a	n/a	n/a	n/a	n/a
2819.06	n/a	PROB	704765	n/a	LTP251	ltpFR	9	n/a	n/a	n/a	n/a	n/a	n/a	n/a	17	9	5	3	n/a	n/a	n/a	n/a	n/a
2821.704	n/a	PROB	705426	n/a	LTP251	ltpFR	9	n/a	n/a	n/a	n/a	n/a	n/a	n/a	6	2	2	2	n/a	n/a	n/a	n/a	n/a
2822.86	n/a	STOP	705715	n/a	LTP251	ltpFR	9	n/a	n/a	n/a	n/a	n/a	n/a	n/a	n/a	n/a	n/a	n/a	n/a	n/a	n/a	n/a	n/a
2824.736	n/a	WORD	706184	wordpools/wasnorm_wordpool_less_exclusions.txt	LTP251	ltpFR	9	11	1	SPIDER	1351	n/a	n/a	1	n/a	0	0	0	0.57763671875	0.412841796875	1	upper	zerothre.ttf
2827.748	n/a	START	706937	n/a	LTP251	ltpFR	9	n/a	n/a	n/a	n/a	n/a	n/a	n/a	n/a	n/a	n/a	n/a	n/a	n/a	n/a	n/a	n/a
2828.716	n/a	PROB	707179	n/a	LTP251	ltpFR	9	n/a	n/a	n/a	n/a	n/a	n/a	n/a	6	3	2	1	n/a	n/a	n/a	n/a	n/a
2830.804	n/a	PROB	707701	n/a	LTP251	ltpFR	9	n/a	n/a	n/a	n/a	n/a	n/a	n/a	11	4	5	2	n/a	n/a	n/a	n/a	n/a
2832.144	n/a	PROB	708036	n/a	LTP251	ltpFR	9	n/a	n/a	n/a	n/a	n/a	n/a	n/a	12	6	5	1	n/a	n/a	n/a	n/a	n/a
2834.136	n/a	PROB	708534	n/a	LTP251	ltpFR	9	n/a	n/a	n/a	n/a	n/a	n/a	n/a	18	8	6	4	n/a	n/a	n/a	n/a	n/a
2836.144	n/a	PROB	709036	n/a	LTP251	ltpFR	9	n/a	n/a	n/a	n/a	n/a	n/a	n/a	18	5	9	3	n/a	n/a	n/a	n/a	n/a
2838.336	n/a	PROB	709584	n/a	LTP251	ltpFR	9	n/a	n/a	n/a	n/a	n/a	n/a	n/a	19	8	6	5	n/a	n/a	n/a	n/a	n/a
2843.748	n/a	STOP	710937	n/a	LTP251	ltpFR	9	n/a	n/a	n/a	n/a	n/a	n/a	n/a	n/a	n/a	n/a	n/a	n/a	n/a	n/a	n/a	n/a
2844.796	n/a	WORD	711199	wordpools/wasnorm_wordpool_less_exclusions.txt	LTP251	ltpFR	9	11	1	CREATURE	403	n/a	n/a	0	n/a	0	0	0	0.57763671875	0.412841796875	1	upper	zerothre.ttf
2847.808	n/a	START	711952	n/a	LTP251	ltpFR	9	n/a	n/a	n/a	n/a	n/a	n/a	n/a	n/a	n/a	n/a	n/a	n/a	n/a	n/a	n/a	n/a
2848.928	n/a	PROB	712232	n/a	LTP251	ltpFR	9	n/a	n/a	n/a	n/a	n/a	n/a	n/a	21	9	3	9	n/a	n/a	n/a	n/a	n/a
2852.024	n/a	PROB	713006	n/a	LTP251	ltpFR	9	n/a	n/a	n/a	n/a	n/a	n/a	n/a	8	4	3	1	n/a	n/a	n/a	n/a	n/a
2853.44	n/a	PROB	713360	n/a	LTP251	ltpFR	9	n/a	n/a	n/a	n/a	n/a	n/a	n/a	10	3	2	5	n/a	n/a	n/a	n/a	n/a
2855.216	n/a	PROB	713804	n/a	LTP251	ltpFR	9	n/a	n/a	n/a	n/a	n/a	n/a	n/a	22	8	9	5	n/a	n/a	n/a	n/a	n/a
2856.94	n/a	PROB	714235	n/a	LTP251	ltpFR	9	n/a	n/a	n/a	n/a	n/a	n/a	n/a	9	3	5	1	n/a	n/a	n/a	n/a	n/a
2860.3	n/a	PROB	715075	n/a	LTP251	ltpFR	9	n/a	n/a	n/a	n/a	n/a	n/a	n/a	18	6	8	4	n/a	n/a	n/a	n/a	n/a
2861.992	n/a	PROB	715498	n/a	LTP251	ltpFR	9	n/a	n/a	n/a	n/a	n/a	n/a	n/a	10	1	6	3	n/a	n/a	n/a	n/a	n/a
2863.216	n/a	STOP	715804	n/a	LTP251	ltpFR	9	n/a	n/a	n/a	n/a	n/a	n/a	n/a	n/a	n/a	n/a	n/a	n/a	n/a	n/a	n/a	n/a
2864.752	n/a	WORD	716188	wordpools/wasnorm_wordpool_less_exclusions.txt	LTP251	ltpFR	9	11	1	DRESS	495	n/a	n/a	0	n/a	0	0	0	0.57763671875	0.412841796875	1	upper	zerothre.ttf
2867.768	n/a	START	716942	n/a	LTP251	ltpFR	9	n/a	n/a	n/a	n/a	n/a	n/a	n/a	n/a	n/a	n/a	n/a	n/a	n/a	n/a	n/a	n/a
2868.832	n/a	PROB	717208	n/a	LTP251	ltpFR	9	n/a	n/a	n/a	n/a	n/a	n/a	n/a	10	1	6	3	n/a	n/a	n/a	n/a	n/a
2870.088	n/a	PROB	717522	n/a	LTP251	ltpFR	9	n/a	n/a	n/a	n/a	n/a	n/a	n/a	18	3	6	9	n/a	n/a	n/a	n/a	n/a
2873.116	n/a	PROB	718279	n/a	LTP251	ltpFR	9	n/a	n/a	n/a	n/a	n/a	n/a	n/a	19	7	7	5	n/a	n/a	n/a	n/a	n/a
2875.728	n/a	PROB	718932	n/a	LTP251	ltpFR	9	n/a	n/a	n/a	n/a	n/a	n/a	n/a	11	6	1	4	n/a	n/a	n/a	n/a	n/a
2876.848	n/a	PROB	719212	n/a	LTP251	ltpFR	9	n/a	n/a	n/a	n/a	n/a	n/a	n/a	5	1	2	2	n/a	n/a	n/a	n/a	n/a
2878.088	n/a	PROB	719522	n/a	LTP251	ltpFR	9	n/a	n/a	n/a	n/a	n/a	n/a	n/a	14	2	5	7	n/a	n/a	n/a	n/a	n/a
2879.592	n/a	PROB	719898	n/a	LTP251	ltpFR	9	n/a	n/a	n/a	n/a	n/a	n/a	n/a	20	3	9	8	n/a	n/a	n/a	n/a	n/a
2881.116	n/a	PROB	720279	n/a	LTP251	ltpFR	9	n/a	n/a	n/a	n/a	n/a	n/a	n/a	5	1	3	1	n/a	n/a	n/a	n/a	n/a
2882.448	n/a	STOP	720612	n/a	LTP251	ltpFR	9	n/a	n/a	n/a	n/a	n/a	n/a	n/a	n/a	n/a	n/a	n/a	n/a	n/a	n/a	n/a	n/a
2884.616	n/a	WORD	721154	wordpools/wasnorm_wordpool_less_exclusions.txt	LTP251	ltpFR	9	11	1	COLLAR	345	n/a	n/a	0	n/a	0	0	0	0.57763671875	0.412841796875	1	upper	zerothre.ttf
2887.628	n/a	START	721907	n/a	LTP251	ltpFR	9	n/a	n/a	n/a	n/a	n/a	n/a	n/a	n/a	n/a	n/a	n/a	n/a	n/a	n/a	n/a	n/a
2888.68	n/a	PROB	722170	n/a	LTP251	ltpFR	9	n/a	n/a	n/a	n/a	n/a	n/a	n/a	22	6	9	6	n/a	n/a	n/a	n/a	n/a
2892.208	n/a	PROB	723052	n/a	LTP251	ltpFR	9	n/a	n/a	n/a	n/a	n/a	n/a	n/a	5	2	1	2	n/a	n/a	n/a	n/a	n/a
2894.132	n/a	PROB	723533	n/a	LTP251	ltpFR	9	n/a	n/a	n/a	n/a	n/a	n/a	n/a	12	3	1	8	n/a	n/a	n/a	n/a	n/a
2896.056	n/a	PROB	724014	n/a	LTP251	ltpFR	9	n/a	n/a	n/a	n/a	n/a	n/a	n/a	11	2	5	4	n/a	n/a	n/a	n/a	n/a
2897.412	n/a	PROB	724353	n/a	LTP251	ltpFR	9	n/a	n/a	n/a	n/a	n/a	n/a	n/a	7	4	1	2	n/a	n/a	n/a	n/a	n/a
2899.172	n/a	PROB	724793	n/a	LTP251	ltpFR	9	n/a	n/a	n/a	n/a	n/a	n/a	n/a	10	1	5	4	n/a	n/a	n/a	n/a	n/a
2900.556	n/a	PROB	725139	n/a	LTP251	ltpFR	9	n/a	n/a	n/a	n/a	n/a	n/a	n/a	17	3	5	9	n/a	n/a	n/a	n/a	n/a
2902.352	n/a	STOP	725588	n/a	LTP251	ltpFR	9	n/a	n/a	n/a	n/a	n/a	n/a	n/a	n/a	n/a	n/a	n/a	n/a	n/a	n/a	n/a	n/a
2904.62	n/a	WORD	726155	wordpools/wasnorm_wordpool_less_exclusions.txt	LTP251	ltpFR	9	11	1	VET	1560	n/a	n/a	0	n/a	0	0	0	0.57763671875	0.412841796875	1	upper	zerothre.ttf
2907.636	n/a	START	726909	n/a	LTP251	ltpFR	9	n/a	n/a	n/a	n/a	n/a	n/a	n/a	n/a	n/a	n/a	n/a	n/a	n/a	n/a	n/a	n/a
2908.724	n/a	PROB	727181	n/a	LTP251	ltpFR	9	n/a	n/a	n/a	n/a	n/a	n/a	n/a	16	6	5	5	n/a	n/a	n/a	n/a	n/a
2910.692	n/a	PROB	727673	n/a	LTP251	ltpFR	9	n/a	n/a	n/a	n/a	n/a	n/a	n/a	14	3	8	3	n/a	n/a	n/a	n/a	n/a
2912.452	n/a	PROB	728113	n/a	LTP251	ltpFR	9	n/a	n/a	n/a	n/a	n/a	n/a	n/a	9	2	1	6	n/a	n/a	n/a	n/a	n/a
2913.924	n/a	PROB	728481	n/a	LTP251	ltpFR	9	n/a	n/a	n/a	n/a	n/a	n/a	n/a	17	5	6	6	n/a	n/a	n/a	n/a	n/a
2915.832	n/a	PROB	728958	n/a	LTP251	ltpFR	9	n/a	n/a	n/a	n/a	n/a	n/a	n/a	4	2	1	1	n/a	n/a	n/a	n/a	n/a
2918.908	n/a	PROB	729727	n/a	LTP251	ltpFR	9	n/a	n/a	n/a	n/a	n/a	n/a	n/a	14	5	6	3	n/a	n/a	n/a	n/a	n/a
2921.016	n/a	PROB	730254	n/a	LTP251	ltpFR	9	n/a	n/a	n/a	n/a	n/a	n/a	n/a	9	4	4	1	n/a	n/a	n/a	n/a	n/a
2922.18	n/a	STOP	730545	n/a	LTP251	ltpFR	9	n/a	n/a	n/a	n/a	n/a	n/a	n/a	n/a	n/a	n/a	n/a	n/a	n/a	n/a	n/a	n/a
2924.852	n/a	WORD	731213	wordpools/wasnorm_wordpool_less_exclusions.txt	LTP251	ltpFR	9	11	1	BANDIT	81	n/a	n/a	0	n/a	0	0	0	0.57763671875	0.412841796875	1	upper	zerothre.ttf
2927.864	n/a	START	731966	n/a	LTP251	ltpFR	9	n/a	n/a	n/a	n/a	n/a	n/a	n/a	n/a	n/a	n/a	n/a	n/a	n/a	n/a	n/a	n/a
2928.8	n/a	PROB	732200	n/a	LTP251	ltpFR	9	n/a	n/a	n/a	n/a	n/a	n/a	n/a	14	6	1	7	n/a	n/a	n/a	n/a	n/a
2931.276	n/a	PROB	732819	n/a	LTP251	ltpFR	9	n/a	n/a	n/a	n/a	n/a	n/a	n/a	22	4	9	9	n/a	n/a	n/a	n/a	n/a
2933.58	n/a	PROB	733395	n/a	LTP251	ltpFR	9	n/a	n/a	n/a	n/a	n/a	n/a	n/a	13	2	7	4	n/a	n/a	n/a	n/a	n/a
2936.376	n/a	PROB	734094	n/a	LTP251	ltpFR	9	n/a	n/a	n/a	n/a	n/a	n/a	n/a	12	4	2	6	n/a	n/a	n/a	n/a	n/a
2938.064	n/a	PROB	734516	n/a	LTP251	ltpFR	9	n/a	n/a	n/a	n/a	n/a	n/a	n/a	23	6	8	9	n/a	n/a	n/a	n/a	n/a
2941.376	n/a	PROB	735344	n/a	LTP251	ltpFR	9	n/a	n/a	n/a	n/a	n/a	n/a	n/a	23	4	8	9	n/a	n/a	n/a	n/a	n/a
2942.852	n/a	STOP	735713	n/a	LTP251	ltpFR	9	n/a	n/a	n/a	n/a	n/a	n/a	n/a	n/a	n/a	n/a	n/a	n/a	n/a	n/a	n/a	n/a
2944.844	n/a	WORD	736211	wordpools/wasnorm_wordpool_less_exclusions.txt	LTP251	ltpFR	9	11	1	LASER	801	n/a	n/a	0	n/a	0	0	0	0.57763671875	0.412841796875	1	upper	zerothre.ttf
2947.856	n/a	START	736964	n/a	LTP251	ltpFR	9	n/a	n/a	n/a	n/a	n/a	n/a	n/a	n/a	n/a	n/a	n/a	n/a	n/a	n/a	n/a	n/a
2948.724	n/a	PROB	737181	n/a	LTP251	ltpFR	9	n/a	n/a	n/a	n/a	n/a	n/a	n/a	15	1	5	9	n/a	n/a	n/a	n/a	n/a
2950.6	n/a	PROB	737650	n/a	LTP251	ltpFR	9	n/a	n/a	n/a	n/a	n/a	n/a	n/a	18	5	5	8	n/a	n/a	n/a	n/a	n/a
2951.836	n/a	PROB	737959	n/a	LTP251	ltpFR	9	n/a	n/a	n/a	n/a	n/a	n/a	n/a	22	9	6	9	n/a	n/a	n/a	n/a	n/a
2953.844	n/a	PROB	738461	n/a	LTP251	ltpFR	9	n/a	n/a	n/a	n/a	n/a	n/a	n/a	18	4	9	5	n/a	n/a	n/a	n/a	n/a
2956.536	n/a	PROB	739134	n/a	LTP251	ltpFR	9	n/a	n/a	n/a	n/a	n/a	n/a	n/a	13	3	5	5	n/a	n/a	n/a	n/a	n/a
2957.876	n/a	PROB	739469	n/a	LTP251	ltpFR	9	n/a	n/a	n/a	n/a	n/a	n/a	n/a	12	4	2	6	n/a	n/a	n/a	n/a	n/a
2959.716	n/a	PROB	739929	n/a	LTP251	ltpFR	9	n/a	n/a	n/a	n/a	n/a	n/a	n/a	17	3	6	8	n/a	n/a	n/a	n/a	n/a
2963.856	n/a	STOP	740964	n/a	LTP251	ltpFR	9	n/a	n/a	n/a	n/a	n/a	n/a	n/a	n/a	n/a	n/a	n/a	n/a	n/a	n/a	n/a	n/a
2964.916	n/a	WORD	741229	wordpools/wasnorm_wordpool_less_exclusions.txt	LTP251	ltpFR	9	11	1	BULB	192	n/a	n/a	0	n/a	0	0	0	0.57763671875	0.412841796875	1	upper	zerothre.ttf
2967.932	n/a	START	741983	n/a	LTP251	ltpFR	9	n/a	n/a	n/a	n/a	n/a	n/a	n/a	n/a	n/a	n/a	n/a	n/a	n/a	n/a	n/a	n/a
2968.804	n/a	PROB	742201	n/a	LTP251	ltpFR	9	n/a	n/a	n/a	n/a	n/a	n/a	n/a	17	5	4	8	n/a	n/a	n/a	n/a	n/a
2970.54	n/a	PROB	742635	n/a	LTP251	ltpFR	9	n/a	n/a	n/a	n/a	n/a	n/a	n/a	6	2	3	1	n/a	n/a	n/a	n/a	n/a
2972.632	n/a	PROB	743158	n/a	LTP251	ltpFR	9	n/a	n/a	n/a	n/a	n/a	n/a	n/a	13	9	2	2	n/a	n/a	n/a	n/a	n/a
2974.476	n/a	PROB	743619	n/a	LTP251	ltpFR	9	n/a	n/a	n/a	n/a	n/a	n/a	n/a	16	7	5	6	n/a	n/a	n/a	n/a	n/a
2975.744	n/a	PROB	743936	n/a	LTP251	ltpFR	9	n/a	n/a	n/a	n/a	n/a	n/a	n/a	21	3	9	9	n/a	n/a	n/a	n/a	n/a
2978.508	n/a	PROB	744627	n/a	LTP251	ltpFR	9	n/a	n/a	n/a	n/a	n/a	n/a	n/a	14	2	8	4	n/a	n/a	n/a	n/a	n/a
2980.812	n/a	PROB	745203	n/a	LTP251	ltpFR	9	n/a	n/a	n/a	n/a	n/a	n/a	n/a	16	9	4	3	n/a	n/a	n/a	n/a	n/a
2983.924	n/a	STOP	745981	n/a	LTP251	ltpFR	9	n/a	n/a	n/a	n/a	n/a	n/a	n/a	n/a	n/a	n/a	n/a	n/a	n/a	n/a	n/a	n/a
2985.132	n/a	WORD	746283	wordpools/wasnorm_wordpool_less_exclusions.txt	LTP251	ltpFR	9	11	1	PLANT	1083	n/a	n/a	1	n/a	0	0	0	0.57763671875	0.412841796875	1	upper	zerothre.ttf
2988.144	n/a	START	747036	n/a	LTP251	ltpFR	9	n/a	n/a	n/a	n/a	n/a	n/a	n/a	n/a	n/a	n/a	n/a	n/a	n/a	n/a	n/a	n/a
2989.064	n/a	PROB	747266	n/a	LTP251	ltpFR	9	n/a	n/a	n/a	n/a	n/a	n/a	n/a	21	9	6	6	n/a	n/a	n/a	n/a	n/a
2992.44	n/a	PROB	748110	n/a	LTP251	ltpFR	9	n/a	n/a	n/a	n/a	n/a	n/a	n/a	14	9	1	4	n/a	n/a	n/a	n/a	n/a
2994.08	n/a	PROB	748520	n/a	LTP251	ltpFR	9	n/a	n/a	n/a	n/a	n/a	n/a	n/a	14	9	2	3	n/a	n/a	n/a	n/a	n/a
2995.82	n/a	PROB	748955	n/a	LTP251	ltpFR	9	n/a	n/a	n/a	n/a	n/a	n/a	n/a	17	3	9	5	n/a	n/a	n/a	n/a	n/a
2998.08	n/a	PROB	749520	n/a	LTP251	ltpFR	9	n/a	n/a	n/a	n/a	n/a	n/a	n/a	13	3	8	2	n/a	n/a	n/a	n/a	n/a
2999.332	n/a	PROB	749833	n/a	LTP251	ltpFR	9	n/a	n/a	n/a	n/a	n/a	n/a	n/a	12	1	3	8	n/a	n/a	n/a	n/a	n/a
3000.824	n/a	PROB	750206	n/a	LTP251	ltpFR	9	n/a	n/a	n/a	n/a	n/a	n/a	n/a	14	1	8	5	n/a	n/a	n/a	n/a	n/a
3002.224	n/a	PROB	750556	n/a	LTP251	ltpFR	9	n/a	n/a	n/a	n/a	n/a	n/a	n/a	15	2	6	7	n/a	n/a	n/a	n/a	n/a
3003.744	n/a	STOP	750936	n/a	LTP251	ltpFR	9	n/a	n/a	n/a	n/a	n/a	n/a	n/a	n/a	n/a	n/a	n/a	n/a	n/a	n/a	n/a	n/a
3005.108	n/a	WORD	751277	wordpools/wasnorm_wordpool_less_exclusions.txt	LTP251	ltpFR	9	11	1	NOTEBOOK	959	n/a	n/a	0	n/a	0	0	0	0.57763671875	0.412841796875	1	upper	zerothre.ttf
3008.12	n/a	START	752030	n/a	LTP251	ltpFR	9	n/a	n/a	n/a	n/a	n/a	n/a	n/a	n/a	n/a	n/a	n/a	n/a	n/a	n/a	n/a	n/a
3009.224	n/a	PROB	752306	n/a	LTP251	ltpFR	9	n/a	n/a	n/a	n/a	n/a	n/a	n/a	4	1	1	2	n/a	n/a	n/a	n/a	n/a
3010.524	n/a	PROB	752631	n/a	LTP251	ltpFR	9	n/a	n/a	n/a	n/a	n/a	n/a	n/a	9	1	1	7	n/a	n/a	n/a	n/a	n/a
3012.616	n/a	PROB	753154	n/a	LTP251	ltpFR	9	n/a	n/a	n/a	n/a	n/a	n/a	n/a	14	4	7	3	n/a	n/a	n/a	n/a	n/a
3015.364	n/a	PROB	753841	n/a	LTP251	ltpFR	9	n/a	n/a	n/a	n/a	n/a	n/a	n/a	23	7	8	8	n/a	n/a	n/a	n/a	n/a
3018.036	n/a	PROB	754509	n/a	LTP251	ltpFR	9	n/a	n/a	n/a	n/a	n/a	n/a	n/a	9	1	5	3	n/a	n/a	n/a	n/a	n/a
3020.096	n/a	PROB	755024	n/a	LTP251	ltpFR	9	n/a	n/a	n/a	n/a	n/a	n/a	n/a	10	2	3	5	n/a	n/a	n/a	n/a	n/a
3023.84	n/a	STOP	755960	n/a	LTP251	ltpFR	9	n/a	n/a	n/a	n/a	n/a	n/a	n/a	n/a	n/a	n/a	n/a	n/a	n/a	n/a	n/a	n/a
3025.152	n/a	WORD	756288	wordpools/wasnorm_wordpool_less_exclusions.txt	LTP251	ltpFR	9	11	1	DENIM	446	n/a	n/a	0	n/a	0	0	0	0.57763671875	0.412841796875	1	upper	zerothre.ttf
3028.164	n/a	START	757041	n/a	LTP251	ltpFR	9	n/a	n/a	n/a	n/a	n/a	n/a	n/a	n/a	n/a	n/a	n/a	n/a	n/a	n/a	n/a	n/a
3029.0	n/a	PROB	757250	n/a	LTP251	ltpFR	9	n/a	n/a	n/a	n/a	n/a	n/a	n/a	11	5	5	1	n/a	n/a	n/a	n/a	n/a
3030.084	n/a	PROB	757521	n/a	LTP251	ltpFR	9	n/a	n/a	n/a	n/a	n/a	n/a	n/a	18	7	7	4	n/a	n/a	n/a	n/a	n/a
3032.848	n/a	PROB	758212	n/a	LTP251	ltpFR	9	n/a	n/a	n/a	n/a	n/a	n/a	n/a	17	1	8	8	n/a	n/a	n/a	n/a	n/a
3035.02	n/a	PROB	758755	n/a	LTP251	ltpFR	9	n/a	n/a	n/a	n/a	n/a	n/a	n/a	18	5	9	3	n/a	n/a	n/a	n/a	n/a
3036.944	n/a	PROB	759236	n/a	LTP251	ltpFR	9	n/a	n/a	n/a	n/a	n/a	n/a	n/a	14	4	4	5	n/a	n/a	n/a	n/a	n/a
3040.608	n/a	PROB	760152	n/a	LTP251	ltpFR	9	n/a	n/a	n/a	n/a	n/a	n/a	n/a	1	6	4	1	n/a	n/a	n/a	n/a	n/a
3042.116	n/a	PROB	760529	n/a	LTP251	ltpFR	9	n/a	n/a	n/a	n/a	n/a	n/a	n/a	15	5	1	9	n/a	n/a	n/a	n/a	n/a
3044.016	n/a	STOP	761004	n/a	LTP251	ltpFR	9	n/a	n/a	n/a	n/a	n/a	n/a	n/a	n/a	n/a	n/a	n/a	n/a	n/a	n/a	n/a	n/a
3045.296	n/a	WORD	761324	wordpools/wasnorm_wordpool_less_exclusions.txt	LTP251	ltpFR	9	11	1	YARN	1631	n/a	n/a	0	n/a	0	0	0	0.57763671875	0.412841796875	1	upper	zerothre.ttf
3048.308	n/a	START	762077	n/a	LTP251	ltpFR	9	n/a	n/a	n/a	n/a	n/a	n/a	n/a	n/a	n/a	n/a	n/a	n/a	n/a	n/a	n/a	n/a
3049.156	n/a	PROB	762289	n/a	LTP251	ltpFR	9	n/a	n/a	n/a	n/a	n/a	n/a	n/a	7	2	3	2	n/a	n/a	n/a	n/a	n/a
3051.1	n/a	PROB	762775	n/a	LTP251	ltpFR	9	n/a	n/a	n/a	n/a	n/a	n/a	n/a	19	9	3	7	n/a	n/a	n/a	n/a	n/a
3052.588	n/a	PROB	763147	n/a	LTP251	ltpFR	9	n/a	n/a	n/a	n/a	n/a	n/a	n/a	13	5	4	4	n/a	n/a	n/a	n/a	n/a
3054.512	n/a	PROB	763628	n/a	LTP251	ltpFR	9	n/a	n/a	n/a	n/a	n/a	n/a	n/a	17	3	8	4	n/a	n/a	n/a	n/a	n/a
3056.168	n/a	PROB	764042	n/a	LTP251	ltpFR	9	n/a	n/a	n/a	n/a	n/a	n/a	n/a	15	6	7	2	n/a	n/a	n/a	n/a	n/a
3057.804	n/a	PROB	764451	n/a	LTP251	ltpFR	9	n/a	n/a	n/a	n/a	n/a	n/a	n/a	21	7	5	9	n/a	n/a	n/a	n/a	n/a
3061.156	n/a	PROB	765289	n/a	LTP251	ltpFR	9	n/a	n/a	n/a	n/a	n/a	n/a	n/a	14	7	4	3	n/a	n/a	n/a	n/a	n/a
3063.152	n/a	STOP	765788	n/a	LTP251	ltpFR	9	n/a	n/a	n/a	n/a	n/a	n/a	n/a	n/a	n/a	n/a	n/a	n/a	n/a	n/a	n/a	n/a
3065.42	n/a	WORD	766355	wordpools/wasnorm_wordpool_less_exclusions.txt	LTP251	ltpFR	9	11	1	QUILT	1151	n/a	n/a	0	n/a	0	0	0	0.57763671875	0.412841796875	1	upper	zerothre.ttf
3068.436	n/a	START	767109	n/a	LTP251	ltpFR	9	n/a	n/a	n/a	n/a	n/a	n/a	n/a	n/a	n/a	n/a	n/a	n/a	n/a	n/a	n/a	n/a
3069.416	n/a	PROB	767354	n/a	LTP251	ltpFR	9	n/a	n/a	n/a	n/a	n/a	n/a	n/a	21	6	9	6	n/a	n/a	n/a	n/a	n/a
