mstime	trial_type	stim_file	subject	experiment	session	trial	task	item_name	item_num	recog_conf	resp	color_b	color_g	color_r	case	font
0	SESS_START	n/a	LTP134	ltpFR	2	n/a	n/a	n/a	n/a	3	n/a	n/a	n/a	n/a	n/a	n/a
69085	WORD	wordpools/wasnorm_wordpool.txt	LTP134	ltpFR	2	1	0	INFANT	737	n/a	1	1	0.412841796875	0.57763671875	lower	../fonts/zerothre.ttf
73080	WORD	wordpools/wasnorm_wordpool.txt	LTP134	ltpFR	2	1	0	DIAPER	459	n/a	0	1	0.412841796875	0.57763671875	lower	../fonts/zerothre.ttf
77059	WORD	wordpools/wasnorm_wordpool.txt	LTP134	ltpFR	2	1	0	CABIN	211	n/a	1	1	0.412841796875	0.57763671875	lower	../fonts/zerothre.ttf
81246	WORD	wordpools/wasnorm_wordpool.txt	LTP134	ltpFR	2	1	0	TORTOISE	1486	n/a	1	1	0.412841796875	0.57763671875	lower	../fonts/zerothre.ttf
85066	WORD	wordpools/wasnorm_wordpool.txt	LTP134	ltpFR	2	1	0	LIP	828	n/a	0	1	0.412841796875	0.57763671875	lower	../fonts/zerothre.ttf
89153	WORD	wordpools/wasnorm_wordpool.txt	LTP134	ltpFR	2	1	1	JUGGLER	763	n/a	1	0	0.5869140625	0.422607421875	upper	../fonts/amplitud.ttf
93331	WORD	wordpools/wasnorm_wordpool.txt	LTP134	ltpFR	2	1	1	CARNIVAL	245	n/a	1	0	0.5869140625	0.422607421875	upper	../fonts/amplitud.ttf
97509	WORD	wordpools/wasnorm_wordpool.txt	LTP134	ltpFR	2	1	1	SNORKEL	1336	n/a	0	0	0.5869140625	0.422607421875	upper	../fonts/amplitud.ttf
101488	WORD	wordpools/wasnorm_wordpool.txt	LTP134	ltpFR	2	1	1	TERMINAL	1450	n/a	0	0	0.5869140625	0.422607421875	upper	../fonts/amplitud.ttf
105550	WORD	wordpools/wasnorm_wordpool.txt	LTP134	ltpFR	2	1	1	DOLL	481	n/a	0	0	0.5869140625	0.422607421875	upper	../fonts/amplitud.ttf
109529	WORD	wordpools/wasnorm_wordpool.txt	LTP134	ltpFR	2	1	0	KEYBOARD	774	n/a	1	1	0.412841796875	0.57763671875	lower	../fonts/zerothre.ttf
113358	WORD	wordpools/wasnorm_wordpool.txt	LTP134	ltpFR	2	1	0	TRANSPLANT	1496	n/a	1	1	0.412841796875	0.57763671875	lower	../fonts/zerothre.ttf
117453	WORD	wordpools/wasnorm_wordpool.txt	LTP134	ltpFR	2	1	0	TOOTHBRUSH	1482	n/a	0	1	0.412841796875	0.57763671875	lower	../fonts/zerothre.ttf
121623	WORD	wordpools/wasnorm_wordpool.txt	LTP134	ltpFR	2	1	1	LEADER	807	n/a	0	0	0.5869140625	0.422607421875	upper	../fonts/amplitud.ttf
125610	WORD	wordpools/wasnorm_wordpool.txt	LTP134	ltpFR	2	1	1	SPONGE	1355	n/a	0	0	0.5869140625	0.422607421875	upper	../fonts/amplitud.ttf
129639	WORD	wordpools/wasnorm_wordpool.txt	LTP134	ltpFR	2	1	1	POWDER	1117	n/a	0	0	0.5869140625	0.422607421875	upper	../fonts/amplitud.ttf
135391	REC_START	n/a	LTP134	ltpFR	2	1	n/a	n/a	n/a	n/a	n/a	n/a	n/a	n/a	n/a	n/a
137750	REC_WORD	wordpools/wasnorm_wordpool.txt	LTP134	ltpFR	2	1	1	LEADER	807	n/a	0	n/a	n/a	n/a	n/a	n/a
138947	REC_WORD	wordpools/wasnorm_wordpool.txt	LTP134	ltpFR	2	1	1	SPONGE	1355	n/a	0	n/a	n/a	n/a	n/a	n/a
141871	REC_WORD	wordpools/wasnorm_wordpool.txt	LTP134	ltpFR	2	1	1	POWDER	1117	n/a	0	n/a	n/a	n/a	n/a	n/a
144161	REC_WORD	wordpools/wasnorm_wordpool.txt	LTP134	ltpFR	2	1	0	INFANT	737	n/a	1	n/a	n/a	n/a	n/a	n/a
145802	REC_WORD	wordpools/wasnorm_wordpool.txt	LTP134	ltpFR	2	1	0	DIAPER	459	n/a	0	n/a	n/a	n/a	n/a	n/a
147583	REC_WORD	wordpools/wasnorm_wordpool.txt	LTP134	ltpFR	2	1	0	CABIN	211	n/a	1	n/a	n/a	n/a	n/a	n/a
149863	REC_WORD	wordpools/wasnorm_wordpool.txt	LTP134	ltpFR	2	1	0	TORTOISE	1486	n/a	1	n/a	n/a	n/a	n/a	n/a
156567	REC_WORD	wordpools/wasnorm_wordpool.txt	LTP134	ltpFR	2	1	1	TERMINAL	1450	n/a	0	n/a	n/a	n/a	n/a	n/a
159576	REC_WORD	wordpools/wasnorm_wordpool.txt	LTP134	ltpFR	2	1	1	JUGGLER	763	n/a	1	n/a	n/a	n/a	n/a	n/a
166680	REC_WORD	wordpools/wasnorm_wordpool.txt	LTP134	ltpFR	2	1	0	LIP	828	n/a	0	n/a	n/a	n/a	n/a	n/a
183367	REC_WORD	wordpools/wasnorm_wordpool.txt	LTP134	ltpFR	2	1	n/a	PENCIL	1042	n/a	n/a	n/a	n/a	n/a	n/a	n/a
230115	WORD	wordpools/wasnorm_wordpool.txt	LTP134	ltpFR	2	2	1	RANCH	1166	n/a	0	0	0.5869140625	0.422607421875	upper	../fonts/amplitud.ttf
233977	WORD	wordpools/wasnorm_wordpool.txt	LTP134	ltpFR	2	2	1	POSSUM	1112	n/a	1	0	0.5869140625	0.422607421875	upper	../fonts/amplitud.ttf
238006	WORD	wordpools/wasnorm_wordpool.txt	LTP134	ltpFR	2	2	0	ALBUM	14	n/a	1	1	0.412841796875	0.57763671875	lower	../fonts/zerothre.ttf
241827	WORD	wordpools/wasnorm_wordpool.txt	LTP134	ltpFR	2	2	0	KNUCKLE	789	n/a	0	1	0.412841796875	0.57763671875	lower	../fonts/zerothre.ttf
245679	WORD	wordpools/wasnorm_wordpool.txt	LTP134	ltpFR	2	2	1	THUMB	1462	n/a	0	0	0.5869140625	0.422607421875	upper	../fonts/amplitud.ttf
249809	WORD	wordpools/wasnorm_wordpool.txt	LTP134	ltpFR	2	2	1	PREDATOR	1120	n/a	1	0	0.5869140625	0.422607421875	upper	../fonts/amplitud.ttf
253720	WORD	wordpools/wasnorm_wordpool.txt	LTP134	ltpFR	2	2	1	CHAMBER	277	n/a	0	0	0.5869140625	0.422607421875	upper	../fonts/amplitud.ttf
257624	WORD	wordpools/wasnorm_wordpool.txt	LTP134	ltpFR	2	2	1	GARAGE	621	n/a	0	0	0.5869140625	0.422607421875	upper	../fonts/amplitud.ttf
261544	WORD	wordpools/wasnorm_wordpool.txt	LTP134	ltpFR	2	2	1	EYELASH	546	n/a	0	0	0.5869140625	0.422607421875	upper	../fonts/amplitud.ttf
265440	WORD	wordpools/wasnorm_wordpool.txt	LTP134	ltpFR	2	2	1	FACE	547	n/a	0	0	0.5869140625	0.422607421875	upper	../fonts/amplitud.ttf
269278	WORD	wordpools/wasnorm_wordpool.txt	LTP134	ltpFR	2	2	0	FIG	563	n/a	0	1	0.412841796875	0.57763671875	lower	../fonts/zerothre.ttf
273198	WORD	wordpools/wasnorm_wordpool.txt	LTP134	ltpFR	2	2	0	UNICORN	1538	n/a	1	1	0.412841796875	0.57763671875	lower	../fonts/zerothre.ttf
277252	WORD	wordpools/wasnorm_wordpool.txt	LTP134	ltpFR	2	2	0	CIRCUS	311	n/a	1	1	0.412841796875	0.57763671875	lower	../fonts/zerothre.ttf
281463	WORD	wordpools/wasnorm_wordpool.txt	LTP134	ltpFR	2	2	0	NEPTUNE	943	n/a	1	1	0.412841796875	0.57763671875	lower	../fonts/zerothre.ttf
285310	WORD	wordpools/wasnorm_wordpool.txt	LTP134	ltpFR	2	2	0	TRUMPET	1513	n/a	1	1	0.412841796875	0.57763671875	lower	../fonts/zerothre.ttf
289172	WORD	wordpools/wasnorm_wordpool.txt	LTP134	ltpFR	2	2	0	ELECTRICIAN	521	n/a	1	1	0.412841796875	0.57763671875	lower	../fonts/zerothre.ttf
295057	REC_START	n/a	LTP134	ltpFR	2	2	n/a	n/a	n/a	n/a	n/a	n/a	n/a	n/a	n/a	n/a
296813	REC_WORD	wordpools/wasnorm_wordpool.txt	LTP134	ltpFR	2	2	0	ELECTRICIAN	521	n/a	1	n/a	n/a	n/a	n/a	n/a
299097	REC_WORD	wordpools/wasnorm_wordpool.txt	LTP134	ltpFR	2	2	0	CIRCUS	311	n/a	1	n/a	n/a	n/a	n/a	n/a
301452	REC_WORD	wordpools/wasnorm_wordpool.txt	LTP134	ltpFR	2	2	0	UNICORN	1538	n/a	1	n/a	n/a	n/a	n/a	n/a
304795	REC_WORD	wordpools/wasnorm_wordpool.txt	LTP134	ltpFR	2	2	0	NEPTUNE	943	n/a	1	n/a	n/a	n/a	n/a	n/a
323347	REC_WORD	wordpools/wasnorm_wordpool.txt	LTP134	ltpFR	2	2	0	KNUCKLE	789	n/a	0	n/a	n/a	n/a	n/a	n/a
325128	REC_WORD	wordpools/wasnorm_wordpool.txt	LTP134	ltpFR	2	2	1	THUMB	1462	n/a	0	n/a	n/a	n/a	n/a	n/a
326649	REC_WORD	wordpools/wasnorm_wordpool.txt	LTP134	ltpFR	2	2	1	FACE	547	n/a	0	n/a	n/a	n/a	n/a	n/a
360313	REC_WORD	wordpools/wasnorm_wordpool.txt	LTP134	ltpFR	2	2	n/a	CARPENTER	246	n/a	n/a	n/a	n/a	n/a	n/a	n/a
378392	WORD	wordpools/wasnorm_wordpool.txt	LTP134	ltpFR	2	3	1	GROCERY	664	n/a	0	0	0.5869140625	0.422607421875	upper	../fonts/amplitud.ttf
382571	WORD	wordpools/wasnorm_wordpool.txt	LTP134	ltpFR	2	3	1	MALL	860	n/a	0	0	0.5869140625	0.422607421875	upper	../fonts/amplitud.ttf
386608	WORD	wordpools/wasnorm_wordpool.txt	LTP134	ltpFR	2	3	1	ROOT	1210	n/a	0	0	0.5869140625	0.422607421875	upper	../fonts/amplitud.ttf
390628	WORD	wordpools/wasnorm_wordpool.txt	LTP134	ltpFR	2	3	1	CAR	241	n/a	0	0	0.5869140625	0.422607421875	upper	../fonts/amplitud.ttf
394482	WORD	wordpools/wasnorm_wordpool.txt	LTP134	ltpFR	2	3	0	JEWEL	757	n/a	0	1	0.412841796875	0.57763671875	lower	../fonts/zerothre.ttf
398536	WORD	wordpools/wasnorm_wordpool.txt	LTP134	ltpFR	2	3	0	ABDOMEN	1	n/a	1	1	0.412841796875	0.57763671875	lower	../fonts/zerothre.ttf
402390	WORD	wordpools/wasnorm_wordpool.txt	LTP134	ltpFR	2	3	0	WAIST	1579	n/a	1	1	0.412841796875	0.57763671875	lower	../fonts/zerothre.ttf
406460	WORD	wordpools/wasnorm_wordpool.txt	LTP134	ltpFR	2	3	0	WAGON	1578	n/a	1	1	0.412841796875	0.57763671875	lower	../fonts/zerothre.ttf
410547	WORD	wordpools/wasnorm_wordpool.txt	LTP134	ltpFR	2	3	1	FATHER	554	n/a	1	0	0.5869140625	0.422607421875	upper	../fonts/amplitud.ttf
414600	WORD	wordpools/wasnorm_wordpool.txt	LTP134	ltpFR	2	3	1	FUNGUS	614	n/a	1	0	0.5869140625	0.422607421875	upper	../fonts/amplitud.ttf
418687	WORD	wordpools/wasnorm_wordpool.txt	LTP134	ltpFR	2	3	0	COPIER	377	n/a	1	1	0.412841796875	0.57763671875	lower	../fonts/zerothre.ttf
422817	WORD	wordpools/wasnorm_wordpool.txt	LTP134	ltpFR	2	3	0	NOTEBOOK	959	n/a	1	1	0.412841796875	0.57763671875	lower	../fonts/zerothre.ttf
426703	WORD	wordpools/wasnorm_wordpool.txt	LTP134	ltpFR	2	3	0	SIBLING	1301	n/a	1	1	0.412841796875	0.57763671875	lower	../fonts/zerothre.ttf
430783	WORD	wordpools/wasnorm_wordpool.txt	LTP134	ltpFR	2	3	0	PARENT	1013	n/a	1	1	0.412841796875	0.57763671875	lower	../fonts/zerothre.ttf
434635	WORD	wordpools/wasnorm_wordpool.txt	LTP134	ltpFR	2	3	1	SANDPAPER	1231	n/a	0	0	0.5869140625	0.422607421875	upper	../fonts/amplitud.ttf
438832	WORD	wordpools/wasnorm_wordpool.txt	LTP134	ltpFR	2	3	1	CACTUS	215	n/a	0	0	0.5869140625	0.422607421875	upper	../fonts/amplitud.ttf
444691	REC_START	n/a	LTP134	ltpFR	2	3	n/a	n/a	n/a	n/a	n/a	n/a	n/a	n/a	n/a	n/a
446486	REC_WORD	wordpools/wasnorm_wordpool.txt	LTP134	ltpFR	2	3	1	CACTUS	215	n/a	0	n/a	n/a	n/a	n/a	n/a
448078	REC_WORD	wordpools/wasnorm_wordpool.txt	LTP134	ltpFR	2	3	1	SANDPAPER	1231	n/a	0	n/a	n/a	n/a	n/a	n/a
450143	REC_WORD	wordpools/wasnorm_wordpool.txt	LTP134	ltpFR	2	3	0	PARENT	1013	n/a	1	n/a	n/a	n/a	n/a	n/a
451943	REC_WORD	wordpools/wasnorm_wordpool.txt	LTP134	ltpFR	2	3	0	SIBLING	1301	n/a	1	n/a	n/a	n/a	n/a	n/a
454124	REC_WORD	wordpools/wasnorm_wordpool.txt	LTP134	ltpFR	2	3	0	NOTEBOOK	959	n/a	1	n/a	n/a	n/a	n/a	n/a
455995	REC_WORD	wordpools/wasnorm_wordpool.txt	LTP134	ltpFR	2	3	1	FUNGUS	614	n/a	1	n/a	n/a	n/a	n/a	n/a
466925	REC_WORD	wordpools/wasnorm_wordpool.txt	LTP134	ltpFR	2	3	1	MALL	860	n/a	0	n/a	n/a	n/a	n/a	n/a
469120	REC_WORD	wordpools/wasnorm_wordpool.txt	LTP134	ltpFR	2	3	n/a	GROCERIES	663	n/a	n/a	n/a	n/a	n/a	n/a	n/a
475960	REC_WORD	wordpools/wasnorm_wordpool.txt	LTP134	ltpFR	2	3	0	JEWEL	757	n/a	0	n/a	n/a	n/a	n/a	n/a
477791	REC_WORD	wordpools/wasnorm_wordpool.txt	LTP134	ltpFR	2	3	0	WAIST	1579	n/a	1	n/a	n/a	n/a	n/a	n/a
479552	REC_WORD	wordpools/wasnorm_wordpool.txt	LTP134	ltpFR	2	3	0	ABDOMEN	1	n/a	1	n/a	n/a	n/a	n/a	n/a
487743	REC_WORD	wordpools/wasnorm_wordpool.txt	LTP134	ltpFR	2	3	0	WAGON	1578	n/a	1	n/a	n/a	n/a	n/a	n/a
545982	WORD	wordpools/wasnorm_wordpool.txt	LTP134	ltpFR	2	4	1	VEGETABLE	1552	n/a	0	0	0.5869140625	0.422607421875	upper	../fonts/amplitud.ttf
549795	WORD	wordpools/wasnorm_wordpool.txt	LTP134	ltpFR	2	4	1	THORN	1459	n/a	0	0	0.5869140625	0.422607421875	upper	../fonts/amplitud.ttf
553790	WORD	wordpools/wasnorm_wordpool.txt	LTP134	ltpFR	2	4	1	EWE	542	n/a	0	0	0.5869140625	0.422607421875	upper	../fonts/amplitud.ttf
557919	WORD	wordpools/wasnorm_wordpool.txt	LTP134	ltpFR	2	4	1	BOTTLE	153	n/a	0	0	0.5869140625	0.422607421875	upper	../fonts/amplitud.ttf
561839	WORD	wordpools/wasnorm_wordpool.txt	LTP134	ltpFR	2	4	1	BASSINET	97	n/a	0	0	0.5869140625	0.422607421875	upper	../fonts/amplitud.ttf
565834	WORD	wordpools/wasnorm_wordpool.txt	LTP134	ltpFR	2	4	1	RUBY	1214	n/a	0	0	0.5869140625	0.422607421875	upper	../fonts/amplitud.ttf
569822	WORD	wordpools/wasnorm_wordpool.txt	LTP134	ltpFR	2	4	1	FUR	615	n/a	0	0	0.5869140625	0.422607421875	upper	../fonts/amplitud.ttf
574033	WORD	wordpools/wasnorm_wordpool.txt	LTP134	ltpFR	2	4	1	MECHANIC	884	n/a	1	0	0.5869140625	0.422607421875	upper	../fonts/amplitud.ttf
578087	WORD	wordpools/wasnorm_wordpool.txt	LTP134	ltpFR	2	4	1	MONASTERY	907	n/a	0	0	0.5869140625	0.422607421875	upper	../fonts/amplitud.ttf
581983	WORD	wordpools/wasnorm_wordpool.txt	LTP134	ltpFR	2	4	1	BATHROOM	99	n/a	0	0	0.5869140625	0.422607421875	upper	../fonts/amplitud.ttf
586186	WORD	wordpools/wasnorm_wordpool.txt	LTP134	ltpFR	2	4	1	HOSTAGE	722	n/a	1	0	0.5869140625	0.422607421875	upper	../fonts/amplitud.ttf
590140	WORD	wordpools/wasnorm_wordpool.txt	LTP134	ltpFR	2	4	1	INMATE	738	n/a	1	0	0.5869140625	0.422607421875	upper	../fonts/amplitud.ttf
594193	WORD	wordpools/wasnorm_wordpool.txt	LTP134	ltpFR	2	4	1	DAISY	435	n/a	1	0	0.5869140625	0.422607421875	upper	../fonts/amplitud.ttf
598022	WORD	wordpools/wasnorm_wordpool.txt	LTP134	ltpFR	2	4	1	VALVE	1546	n/a	0	0	0.5869140625	0.422607421875	upper	../fonts/amplitud.ttf
602034	WORD	wordpools/wasnorm_wordpool.txt	LTP134	ltpFR	2	4	1	STEW	1380	n/a	1	0	0.5869140625	0.422607421875	upper	../fonts/amplitud.ttf
605938	WORD	wordpools/wasnorm_wordpool.txt	LTP134	ltpFR	2	4	1	RIB	1188	n/a	0	0	0.5869140625	0.422607421875	upper	../fonts/amplitud.ttf
611723	REC_START	n/a	LTP134	ltpFR	2	4	n/a	n/a	n/a	n/a	n/a	n/a	n/a	n/a	n/a	n/a
613833	REC_WORD	wordpools/wasnorm_wordpool.txt	LTP134	ltpFR	2	4	1	RIB	1188	n/a	0	n/a	n/a	n/a	n/a	n/a
615334	REC_WORD	wordpools/wasnorm_wordpool.txt	LTP134	ltpFR	2	4	1	STEW	1380	n/a	1	n/a	n/a	n/a	n/a	n/a
617505	REC_WORD	wordpools/wasnorm_wordpool.txt	LTP134	ltpFR	2	4	1	HOSTAGE	722	n/a	1	n/a	n/a	n/a	n/a	n/a
620468	REC_WORD	wordpools/wasnorm_wordpool.txt	LTP134	ltpFR	2	4	1	INMATE	738	n/a	1	n/a	n/a	n/a	n/a	n/a
622508	REC_WORD	wordpools/wasnorm_wordpool.txt	LTP134	ltpFR	2	4	1	DAISY	435	n/a	1	n/a	n/a	n/a	n/a	n/a
624439	REC_WORD	wordpools/wasnorm_wordpool.txt	LTP134	ltpFR	2	4	1	MONASTERY	907	n/a	0	n/a	n/a	n/a	n/a	n/a
626883	REC_WORD	wordpools/wasnorm_wordpool.txt	LTP134	ltpFR	2	4	n/a	CRIB	407	n/a	n/a	n/a	n/a	n/a	n/a	n/a
628998	REC_WORD	wordpools/wasnorm_wordpool.txt	LTP134	ltpFR	2	4	1	RUBY	1214	n/a	0	n/a	n/a	n/a	n/a	n/a
630784	REC_WORD	wordpools/wasnorm_wordpool.txt	LTP134	ltpFR	2	4	1	FUR	615	n/a	0	n/a	n/a	n/a	n/a	n/a
641445	REC_WORD	wordpools/wasnorm_wordpool.txt	LTP134	ltpFR	2	4	1	MECHANIC	884	n/a	1	n/a	n/a	n/a	n/a	n/a
655917	REC_WORD	wordpools/wasnorm_wordpool.txt	LTP134	ltpFR	2	4	1	THORN	1459	n/a	0	n/a	n/a	n/a	n/a	n/a
658696	REC_WORD	wordpools/wasnorm_wordpool.txt	LTP134	ltpFR	2	4	1	VEGETABLE	1552	n/a	0	n/a	n/a	n/a	n/a	n/a
692912	WORD	wordpools/wasnorm_wordpool.txt	LTP134	ltpFR	2	5	-1	COCOON	339	n/a	-1	1	1.0	1.0	upper	../fonts/Verdana.ttf
696974	WORD	wordpools/wasnorm_wordpool.txt	LTP134	ltpFR	2	5	-1	FIN	566	n/a	-1	1	1.0	1.0	upper	../fonts/Verdana.ttf
701086	WORD	wordpools/wasnorm_wordpool.txt	LTP134	ltpFR	2	5	-1	ATOM	55	n/a	-1	1	1.0	1.0	upper	../fonts/Verdana.ttf
705190	WORD	wordpools/wasnorm_wordpool.txt	LTP134	ltpFR	2	5	-1	TELEPHONE	1445	n/a	-1	1	1.0	1.0	upper	../fonts/Verdana.ttf
709210	WORD	wordpools/wasnorm_wordpool.txt	LTP134	ltpFR	2	5	-1	PLUTO	1092	n/a	-1	1	1.0	1.0	upper	../fonts/Verdana.ttf
713189	WORD	wordpools/wasnorm_wordpool.txt	LTP134	ltpFR	2	5	-1	LENS	811	n/a	-1	1	1.0	1.0	upper	../fonts/Verdana.ttf
717001	WORD	wordpools/wasnorm_wordpool.txt	LTP134	ltpFR	2	5	-1	NOSE	957	n/a	-1	1	1.0	1.0	upper	../fonts/Verdana.ttf
721146	WORD	wordpools/wasnorm_wordpool.txt	LTP134	ltpFR	2	5	-1	MONSTER	912	n/a	-1	1	1.0	1.0	upper	../fonts/Verdana.ttf
725075	WORD	wordpools/wasnorm_wordpool.txt	LTP134	ltpFR	2	5	-1	GOLD	647	n/a	-1	1	1.0	1.0	upper	../fonts/Verdana.ttf
729120	WORD	wordpools/wasnorm_wordpool.txt	LTP134	ltpFR	2	5	-1	ADOLESCENT	7	n/a	-1	1	1.0	1.0	upper	../fonts/Verdana.ttf
733157	WORD	wordpools/wasnorm_wordpool.txt	LTP134	ltpFR	2	5	-1	YOUTH	1634	n/a	-1	1	1.0	1.0	upper	../fonts/Verdana.ttf
737327	WORD	wordpools/wasnorm_wordpool.txt	LTP134	ltpFR	2	5	-1	BROOK	177	n/a	-1	1	1.0	1.0	upper	../fonts/Verdana.ttf
741522	WORD	wordpools/wasnorm_wordpool.txt	LTP134	ltpFR	2	5	-1	SINK	1309	n/a	-1	1	1.0	1.0	upper	../fonts/Verdana.ttf
745650	WORD	wordpools/wasnorm_wordpool.txt	LTP134	ltpFR	2	5	-1	TOAST	1471	n/a	-1	1	1.0	1.0	upper	../fonts/Verdana.ttf
749805	WORD	wordpools/wasnorm_wordpool.txt	LTP134	ltpFR	2	5	-1	MARS	873	n/a	-1	1	1.0	1.0	upper	../fonts/Verdana.ttf
753992	WORD	wordpools/wasnorm_wordpool.txt	LTP134	ltpFR	2	5	-1	PIKE	1067	n/a	-1	1	1.0	1.0	upper	../fonts/Verdana.ttf
759919	REC_START	n/a	LTP134	ltpFR	2	5	n/a	n/a	n/a	n/a	n/a	n/a	n/a	n/a	n/a	n/a
761460	REC_WORD	wordpools/wasnorm_wordpool.txt	LTP134	ltpFR	2	5	-1	PIKE	1067	n/a	-1	n/a	n/a	n/a	n/a	n/a
763770	REC_WORD	wordpools/wasnorm_wordpool.txt	LTP134	ltpFR	2	5	-1	TOAST	1471	n/a	-1	n/a	n/a	n/a	n/a	n/a
765945	REC_WORD	wordpools/wasnorm_wordpool.txt	LTP134	ltpFR	2	5	-1	MARS	873	n/a	-1	n/a	n/a	n/a	n/a	n/a
768040	REC_WORD	wordpools/wasnorm_wordpool.txt	LTP134	ltpFR	2	5	-1	SINK	1309	n/a	-1	n/a	n/a	n/a	n/a	n/a
770056	REC_WORD	wordpools/wasnorm_wordpool.txt	LTP134	ltpFR	2	5	-1	YOUTH	1634	n/a	-1	n/a	n/a	n/a	n/a	n/a
771772	REC_WORD	wordpools/wasnorm_wordpool.txt	LTP134	ltpFR	2	5	-1	ADOLESCENT	7	n/a	-1	n/a	n/a	n/a	n/a	n/a
774171	REC_WORD	wordpools/wasnorm_wordpool.txt	LTP134	ltpFR	2	5	-1	BROOK	177	n/a	-1	n/a	n/a	n/a	n/a	n/a
778916	REC_WORD	wordpools/wasnorm_wordpool.txt	LTP134	ltpFR	2	5	-1	MONSTER	912	n/a	-1	n/a	n/a	n/a	n/a	n/a
781150	REC_WORD	wordpools/wasnorm_wordpool.txt	LTP134	ltpFR	2	5	-1	COCOON	339	n/a	-1	n/a	n/a	n/a	n/a	n/a
783016	REC_WORD	wordpools/wasnorm_wordpool.txt	LTP134	ltpFR	2	5	-1	FIN	566	n/a	-1	n/a	n/a	n/a	n/a	n/a
788055	REC_WORD	wordpools/wasnorm_wordpool.txt	LTP134	ltpFR	2	5	-1	NOSE	957	n/a	-1	n/a	n/a	n/a	n/a	n/a
790175	REC_WORD	wordpools/wasnorm_wordpool.txt	LTP134	ltpFR	2	5	-1	PLUTO	1092	n/a	-1	n/a	n/a	n/a	n/a	n/a
802846	REC_WORD	wordpools/wasnorm_wordpool.txt	LTP134	ltpFR	2	5	n/a	TELESCOPE	1446	n/a	n/a	n/a	n/a	n/a	n/a	n/a
804961	REC_WORD	wordpools/wasnorm_wordpool.txt	LTP134	ltpFR	2	5	n/a	MICROSCOPE	891	n/a	n/a	n/a	n/a	n/a	n/a	n/a
841606	WORD	wordpools/wasnorm_wordpool.txt	LTP134	ltpFR	2	6	-1	OTTER	986	n/a	-1	1	1.0	1.0	upper	../fonts/Verdana.ttf
845501	WORD	wordpools/wasnorm_wordpool.txt	LTP134	ltpFR	2	6	-1	LAGOON	795	n/a	-1	1	1.0	1.0	upper	../fonts/Verdana.ttf
849613	WORD	wordpools/wasnorm_wordpool.txt	LTP134	ltpFR	2	6	-1	COOK	372	n/a	-1	1	1.0	1.0	upper	../fonts/Verdana.ttf
853584	WORD	wordpools/wasnorm_wordpool.txt	LTP134	ltpFR	2	6	-1	GUITAR	670	n/a	-1	1	1.0	1.0	upper	../fonts/Verdana.ttf
857471	WORD	wordpools/wasnorm_wordpool.txt	LTP134	ltpFR	2	6	-1	CLARINET	317	n/a	-1	1	1.0	1.0	upper	../fonts/Verdana.ttf
861566	WORD	wordpools/wasnorm_wordpool.txt	LTP134	ltpFR	2	6	-1	MICROWAVE	892	n/a	-1	1	1.0	1.0	upper	../fonts/Verdana.ttf
865661	WORD	wordpools/wasnorm_wordpool.txt	LTP134	ltpFR	2	6	-1	MARKER	870	n/a	-1	1	1.0	1.0	upper	../fonts/Verdana.ttf
869824	WORD	wordpools/wasnorm_wordpool.txt	LTP134	ltpFR	2	6	-1	UNDERWEAR	1537	n/a	-1	1	1.0	1.0	upper	../fonts/Verdana.ttf
873878	WORD	wordpools/wasnorm_wordpool.txt	LTP134	ltpFR	2	6	-1	SWIMMER	1420	n/a	-1	1	1.0	1.0	upper	../fonts/Verdana.ttf
877722	WORD	wordpools/wasnorm_wordpool.txt	LTP134	ltpFR	2	6	-1	TABLET	1427	n/a	-1	1	1.0	1.0	upper	../fonts/Verdana.ttf
881743	WORD	wordpools/wasnorm_wordpool.txt	LTP134	ltpFR	2	6	-1	MAT	877	n/a	-1	1	1.0	1.0	upper	../fonts/Verdana.ttf
885930	WORD	wordpools/wasnorm_wordpool.txt	LTP134	ltpFR	2	6	-1	HOME	712	n/a	-1	1	1.0	1.0	upper	../fonts/Verdana.ttf
889951	WORD	wordpools/wasnorm_wordpool.txt	LTP134	ltpFR	2	6	-1	SHORTS	1293	n/a	-1	1	1.0	1.0	upper	../fonts/Verdana.ttf
894096	WORD	wordpools/wasnorm_wordpool.txt	LTP134	ltpFR	2	6	-1	SEA	1259	n/a	-1	1	1.0	1.0	upper	../fonts/Verdana.ttf
898233	WORD	wordpools/wasnorm_wordpool.txt	LTP134	ltpFR	2	6	-1	CAMEL	223	n/a	-1	1	1.0	1.0	upper	../fonts/Verdana.ttf
902352	WORD	wordpools/wasnorm_wordpool.txt	LTP134	ltpFR	2	6	-1	GHETTO	633	n/a	-1	1	1.0	1.0	upper	../fonts/Verdana.ttf
908312	REC_START	n/a	LTP134	ltpFR	2	6	n/a	n/a	n/a	n/a	n/a	n/a	n/a	n/a	n/a	n/a
910621	REC_WORD	wordpools/wasnorm_wordpool.txt	LTP134	ltpFR	2	6	-1	GHETTO	633	n/a	-1	n/a	n/a	n/a	n/a	n/a
912172	REC_WORD	wordpools/wasnorm_wordpool.txt	LTP134	ltpFR	2	6	-1	SEA	1259	n/a	-1	n/a	n/a	n/a	n/a	n/a
914119	REC_WORD	wordpools/wasnorm_wordpool.txt	LTP134	ltpFR	2	6	-1	CAMEL	223	n/a	-1	n/a	n/a	n/a	n/a	n/a
916668	REC_WORD	wordpools/wasnorm_wordpool.txt	LTP134	ltpFR	2	6	-1	MAT	877	n/a	-1	n/a	n/a	n/a	n/a	n/a
918514	REC_WORD	wordpools/wasnorm_wordpool.txt	LTP134	ltpFR	2	6	-1	UNDERWEAR	1537	n/a	-1	n/a	n/a	n/a	n/a	n/a
920389	REC_WORD	wordpools/wasnorm_wordpool.txt	LTP134	ltpFR	2	6	-1	TABLET	1427	n/a	-1	n/a	n/a	n/a	n/a	n/a
922394	REC_WORD	wordpools/wasnorm_wordpool.txt	LTP134	ltpFR	2	6	n/a	HOUSE	725	n/a	n/a	n/a	n/a	n/a	n/a	n/a
926231	REC_WORD	wordpools/wasnorm_wordpool.txt	LTP134	ltpFR	2	6	-1	COOK	372	n/a	-1	n/a	n/a	n/a	n/a	n/a
928291	REC_WORD	wordpools/wasnorm_wordpool.txt	LTP134	ltpFR	2	6	-1	GUITAR	670	n/a	-1	n/a	n/a	n/a	n/a	n/a
946988	REC_WORD	wordpools/wasnorm_wordpool.txt	LTP134	ltpFR	2	6	-1	SWIMMER	1420	n/a	-1	n/a	n/a	n/a	n/a	n/a
955140	REC_WORD	wordpools/wasnorm_wordpool.txt	LTP134	ltpFR	2	6	-1	OTTER	986	n/a	-1	n/a	n/a	n/a	n/a	n/a
1195604	WORD	wordpools/wasnorm_wordpool.txt	LTP134	ltpFR	2	7	-1	DIAL	457	n/a	-1	1	1.0	1.0	upper	../fonts/Verdana.ttf
1199474	WORD	wordpools/wasnorm_wordpool.txt	LTP134	ltpFR	2	7	-1	JAPAN	749	n/a	-1	1	1.0	1.0	upper	../fonts/Verdana.ttf
1203570	WORD	wordpools/wasnorm_wordpool.txt	LTP134	ltpFR	2	7	-1	LASH	802	n/a	-1	1	1.0	1.0	upper	../fonts/Verdana.ttf
1207449	WORD	wordpools/wasnorm_wordpool.txt	LTP134	ltpFR	2	7	-1	ONION	977	n/a	-1	1	1.0	1.0	upper	../fonts/Verdana.ttf
1211303	WORD	wordpools/wasnorm_wordpool.txt	LTP134	ltpFR	2	7	-1	ZUCCHINI	1638	n/a	-1	1	1.0	1.0	upper	../fonts/Verdana.ttf
1215166	WORD	wordpools/wasnorm_wordpool.txt	LTP134	ltpFR	2	7	-1	AFRICA	9	n/a	-1	1	1.0	1.0	upper	../fonts/Verdana.ttf
1219253	WORD	wordpools/wasnorm_wordpool.txt	LTP134	ltpFR	2	7	-1	MESSAGE	888	n/a	-1	1	1.0	1.0	upper	../fonts/Verdana.ttf
1223265	WORD	wordpools/wasnorm_wordpool.txt	LTP134	ltpFR	2	7	-1	WEED	1599	n/a	-1	1	1.0	1.0	upper	../fonts/Verdana.ttf
1227285	WORD	wordpools/wasnorm_wordpool.txt	LTP134	ltpFR	2	7	-1	PADDING	999	n/a	-1	1	1.0	1.0	upper	../fonts/Verdana.ttf
1231205	WORD	wordpools/wasnorm_wordpool.txt	LTP134	ltpFR	2	7	-1	FURNITURE	616	n/a	-1	1	1.0	1.0	upper	../fonts/Verdana.ttf
1235093	WORD	wordpools/wasnorm_wordpool.txt	LTP134	ltpFR	2	7	-1	WILDERNESS	1610	n/a	-1	1	1.0	1.0	upper	../fonts/Verdana.ttf
1239096	WORD	wordpools/wasnorm_wordpool.txt	LTP134	ltpFR	2	7	-1	FOREST	593	n/a	-1	1	1.0	1.0	upper	../fonts/Verdana.ttf
1243042	WORD	wordpools/wasnorm_wordpool.txt	LTP134	ltpFR	2	7	-1	DIARY	460	n/a	-1	1	1.0	1.0	upper	../fonts/Verdana.ttf
1246937	WORD	wordpools/wasnorm_wordpool.txt	LTP134	ltpFR	2	7	-1	OATS	968	n/a	-1	1	1.0	1.0	upper	../fonts/Verdana.ttf
1251107	WORD	wordpools/wasnorm_wordpool.txt	LTP134	ltpFR	2	7	-1	ORCHESTRA	981	n/a	-1	1	1.0	1.0	upper	../fonts/Verdana.ttf
1254928	WORD	wordpools/wasnorm_wordpool.txt	LTP134	ltpFR	2	7	-1	TAPE	1433	n/a	-1	1	1.0	1.0	upper	../fonts/Verdana.ttf
1260762	REC_START	n/a	LTP134	ltpFR	2	7	n/a	n/a	n/a	n/a	n/a	n/a	n/a	n/a	n/a	n/a
1262523	REC_WORD	wordpools/wasnorm_wordpool.txt	LTP134	ltpFR	2	7	-1	TAPE	1433	n/a	-1	n/a	n/a	n/a	n/a	n/a
1264344	REC_WORD	wordpools/wasnorm_wordpool.txt	LTP134	ltpFR	2	7	-1	ORCHESTRA	981	n/a	-1	n/a	n/a	n/a	n/a	n/a
1266698	REC_WORD	wordpools/wasnorm_wordpool.txt	LTP134	ltpFR	2	7	n/a	JOURNAL	760	n/a	n/a	n/a	n/a	n/a	n/a	n/a
1268589	REC_WORD	wordpools/wasnorm_wordpool.txt	LTP134	ltpFR	2	7	-1	OATS	968	n/a	-1	n/a	n/a	n/a	n/a	n/a
1270854	REC_WORD	wordpools/wasnorm_wordpool.txt	LTP134	ltpFR	2	7	-1	WILDERNESS	1610	n/a	-1	n/a	n/a	n/a	n/a	n/a
1276062	REC_WORD	wordpools/wasnorm_wordpool.txt	LTP134	ltpFR	2	7	-1	ORCHESTRA	981	n/a	-1	n/a	n/a	n/a	n/a	n/a
1285226	REC_WORD	wordpools/wasnorm_wordpool.txt	LTP134	ltpFR	2	7	-1	DIAL	457	n/a	-1	n/a	n/a	n/a	n/a	n/a
1287161	REC_WORD	wordpools/wasnorm_wordpool.txt	LTP134	ltpFR	2	7	-1	JAPAN	749	n/a	-1	n/a	n/a	n/a	n/a	n/a
1289372	REC_WORD	wordpools/wasnorm_wordpool.txt	LTP134	ltpFR	2	7	-1	LASH	802	n/a	-1	n/a	n/a	n/a	n/a	n/a
1302083	REC_WORD	wordpools/wasnorm_wordpool.txt	LTP134	ltpFR	2	7	-1	MESSAGE	888	n/a	-1	n/a	n/a	n/a	n/a	n/a
1304183	REC_WORD	wordpools/wasnorm_wordpool.txt	LTP134	ltpFR	2	7	-1	WEED	1599	n/a	-1	n/a	n/a	n/a	n/a	n/a
1307829	REC_WORD	wordpools/wasnorm_wordpool.txt	LTP134	ltpFR	2	7	-1	ZUCCHINI	1638	n/a	-1	n/a	n/a	n/a	n/a	n/a
1348618	WORD	wordpools/wasnorm_wordpool.txt	LTP134	ltpFR	2	8	0	RAZOR	1171	n/a	0	1	0.412841796875	0.57763671875	lower	../fonts/zerothre.ttf
1352439	WORD	wordpools/wasnorm_wordpool.txt	LTP134	ltpFR	2	8	0	CORK	380	n/a	0	1	0.412841796875	0.57763671875	lower	../fonts/zerothre.ttf
1356277	WORD	wordpools/wasnorm_wordpool.txt	LTP134	ltpFR	2	8	0	HELMET	702	n/a	1	1	0.412841796875	0.57763671875	lower	../fonts/zerothre.ttf
1360463	WORD	wordpools/wasnorm_wordpool.txt	LTP134	ltpFR	2	8	0	PORK	1108	n/a	1	1	0.412841796875	0.57763671875	lower	../fonts/zerothre.ttf
1364500	WORD	wordpools/wasnorm_wordpool.txt	LTP134	ltpFR	2	8	0	SENATOR	1268	n/a	1	1	0.412841796875	0.57763671875	lower	../fonts/zerothre.ttf
1368504	WORD	wordpools/wasnorm_wordpool.txt	LTP134	ltpFR	2	8	0	SPY	1360	n/a	1	1	0.412841796875	0.57763671875	lower	../fonts/zerothre.ttf
1372557	WORD	wordpools/wasnorm_wordpool.txt	LTP134	ltpFR	2	8	0	POLITICIAN	1099	n/a	1	1	0.412841796875	0.57763671875	lower	../fonts/zerothre.ttf
1376544	WORD	wordpools/wasnorm_wordpool.txt	LTP134	ltpFR	2	8	0	BALLOT	76	n/a	0	1	0.412841796875	0.57763671875	lower	../fonts/zerothre.ttf
1380423	WORD	wordpools/wasnorm_wordpool.txt	LTP134	ltpFR	2	8	0	PAINTER	1004	n/a	1	1	0.412841796875	0.57763671875	lower	../fonts/zerothre.ttf
1384295	WORD	wordpools/wasnorm_wordpool.txt	LTP134	ltpFR	2	8	0	STY	1397	n/a	1	1	0.412841796875	0.57763671875	lower	../fonts/zerothre.ttf
1388182	WORD	wordpools/wasnorm_wordpool.txt	LTP134	ltpFR	2	8	0	BAIT	70	n/a	0	1	0.412841796875	0.57763671875	lower	../fonts/zerothre.ttf
1392027	WORD	wordpools/wasnorm_wordpool.txt	LTP134	ltpFR	2	8	0	TUNA	1518	n/a	0	1	0.412841796875	0.57763671875	lower	../fonts/zerothre.ttf
1395981	WORD	wordpools/wasnorm_wordpool.txt	LTP134	ltpFR	2	8	0	STEREO	1378	n/a	1	1	0.412841796875	0.57763671875	lower	../fonts/zerothre.ttf
1399802	WORD	wordpools/wasnorm_wordpool.txt	LTP134	ltpFR	2	8	0	MOTORCYCLE	923	n/a	1	1	0.412841796875	0.57763671875	lower	../fonts/zerothre.ttf
1403822	WORD	wordpools/wasnorm_wordpool.txt	LTP134	ltpFR	2	8	0	VILLAGE	1566	n/a	1	1	0.412841796875	0.57763671875	lower	../fonts/zerothre.ttf
1407741	WORD	wordpools/wasnorm_wordpool.txt	LTP134	ltpFR	2	8	0	PUPPY	1144	n/a	1	1	0.412841796875	0.57763671875	lower	../fonts/zerothre.ttf
1413594	REC_START	n/a	LTP134	ltpFR	2	8	n/a	n/a	n/a	n/a	n/a	n/a	n/a	n/a	n/a	n/a
1416073	REC_WORD	wordpools/wasnorm_wordpool.txt	LTP134	ltpFR	2	8	0	VILLAGE	1566	n/a	1	n/a	n/a	n/a	n/a	n/a
1418203	REC_WORD	wordpools/wasnorm_wordpool.txt	LTP134	ltpFR	2	8	0	PUPPY	1144	n/a	1	n/a	n/a	n/a	n/a	n/a
1420274	REC_WORD	wordpools/wasnorm_wordpool.txt	LTP134	ltpFR	2	8	0	MOTORCYCLE	923	n/a	1	n/a	n/a	n/a	n/a	n/a
1422308	REC_WORD	wordpools/wasnorm_wordpool.txt	LTP134	ltpFR	2	8	0	STEREO	1378	n/a	1	n/a	n/a	n/a	n/a	n/a
1425960	REC_WORD	wordpools/wasnorm_wordpool.txt	LTP134	ltpFR	2	8	0	SPY	1360	n/a	1	n/a	n/a	n/a	n/a	n/a
1428265	REC_WORD	wordpools/wasnorm_wordpool.txt	LTP134	ltpFR	2	8	0	POLITICIAN	1099	n/a	1	n/a	n/a	n/a	n/a	n/a
1430380	REC_WORD	wordpools/wasnorm_wordpool.txt	LTP134	ltpFR	2	8	0	CORK	380	n/a	0	n/a	n/a	n/a	n/a	n/a
1432097	REC_WORD	wordpools/wasnorm_wordpool.txt	LTP134	ltpFR	2	8	0	RAZOR	1171	n/a	0	n/a	n/a	n/a	n/a	n/a
1434002	REC_WORD	wordpools/wasnorm_wordpool.txt	LTP134	ltpFR	2	8	0	HELMET	702	n/a	1	n/a	n/a	n/a	n/a	n/a
1436422	REC_WORD	wordpools/wasnorm_wordpool.txt	LTP134	ltpFR	2	8	0	PORK	1108	n/a	1	n/a	n/a	n/a	n/a	n/a
1444114	REC_WORD	wordpools/wasnorm_wordpool.txt	LTP134	ltpFR	2	8	0	BALLOT	76	n/a	0	n/a	n/a	n/a	n/a	n/a
1501341	WORD	wordpools/wasnorm_wordpool.txt	LTP134	ltpFR	2	9	0	PRESIDENT	1121	n/a	1	1	0.412841796875	0.57763671875	lower	../fonts/zerothre.ttf
1505462	WORD	wordpools/wasnorm_wordpool.txt	LTP134	ltpFR	2	9	0	TRACTOR	1493	n/a	1	1	0.412841796875	0.57763671875	lower	../fonts/zerothre.ttf
1509349	WORD	wordpools/wasnorm_wordpool.txt	LTP134	ltpFR	2	9	0	POTTERY	1116	n/a	1	1	0.412841796875	0.57763671875	lower	../fonts/zerothre.ttf
1513519	WORD	wordpools/wasnorm_wordpool.txt	LTP134	ltpFR	2	9	0	RUG	1215	n/a	1	1	0.412841796875	0.57763671875	lower	../fonts/zerothre.ttf
1517722	WORD	wordpools/wasnorm_wordpool.txt	LTP134	ltpFR	2	9	1	HOOK	715	n/a	0	0	0.5869140625	0.422607421875	upper	../fonts/amplitud.ttf
1521769	WORD	wordpools/wasnorm_wordpool.txt	LTP134	ltpFR	2	9	1	MERMAID	887	n/a	1	0	0.5869140625	0.422607421875	upper	../fonts/amplitud.ttf
1525588	WORD	wordpools/wasnorm_wordpool.txt	LTP134	ltpFR	2	9	1	JOURNAL	760	n/a	0	0	0.5869140625	0.422607421875	upper	../fonts/amplitud.ttf
1529500	WORD	wordpools/wasnorm_wordpool.txt	LTP134	ltpFR	2	9	1	SCROLL	1257	n/a	0	0	0.5869140625	0.422607421875	upper	../fonts/amplitud.ttf
1533529	WORD	wordpools/wasnorm_wordpool.txt	LTP134	ltpFR	2	9	1	COD	340	n/a	1	0	0.5869140625	0.422607421875	upper	../fonts/amplitud.ttf
1537699	WORD	wordpools/wasnorm_wordpool.txt	LTP134	ltpFR	2	9	0	CUCUMBER	421	n/a	0	1	0.412841796875	0.57763671875	lower	../fonts/zerothre.ttf
1541796	WORD	wordpools/wasnorm_wordpool.txt	LTP134	ltpFR	2	9	0	STAR	1373	n/a	1	1	0.412841796875	0.57763671875	lower	../fonts/zerothre.ttf
1545774	WORD	wordpools/wasnorm_wordpool.txt	LTP134	ltpFR	2	9	0	FOLLOWER	589	n/a	1	1	0.412841796875	0.57763671875	lower	../fonts/zerothre.ttf
1549870	WORD	wordpools/wasnorm_wordpool.txt	LTP134	ltpFR	2	9	0	CHEF	290	n/a	1	1	0.412841796875	0.57763671875	lower	../fonts/zerothre.ttf
1553981	WORD	wordpools/wasnorm_wordpool.txt	LTP134	ltpFR	2	9	1	DESK	452	n/a	0	0	0.5869140625	0.422607421875	upper	../fonts/amplitud.ttf
1557952	WORD	wordpools/wasnorm_wordpool.txt	LTP134	ltpFR	2	9	1	CAB	209	n/a	0	0	0.5869140625	0.422607421875	upper	../fonts/amplitud.ttf
1561955	WORD	wordpools/wasnorm_wordpool.txt	LTP134	ltpFR	2	9	1	CAFETERIA	217	n/a	0	0	0.5869140625	0.422607421875	upper	../fonts/amplitud.ttf
1567899	REC_START	n/a	LTP134	ltpFR	2	9	n/a	n/a	n/a	n/a	n/a	n/a	n/a	n/a	n/a	n/a
1569660	REC_WORD	wordpools/wasnorm_wordpool.txt	LTP134	ltpFR	2	9	1	CAFETERIA	217	n/a	0	n/a	n/a	n/a	n/a	n/a
1571825	REC_WORD	wordpools/wasnorm_wordpool.txt	LTP134	ltpFR	2	9	1	CAB	209	n/a	0	n/a	n/a	n/a	n/a	n/a
1573501	REC_WORD	wordpools/wasnorm_wordpool.txt	LTP134	ltpFR	2	9	0	CHEF	290	n/a	1	n/a	n/a	n/a	n/a	n/a
1578270	REC_WORD	wordpools/wasnorm_wordpool.txt	LTP134	ltpFR	2	9	0	PRESIDENT	1121	n/a	1	n/a	n/a	n/a	n/a	n/a
1579946	REC_WORD	wordpools/wasnorm_wordpool.txt	LTP134	ltpFR	2	9	0	TRACTOR	1493	n/a	1	n/a	n/a	n/a	n/a	n/a
1582056	REC_WORD	wordpools/wasnorm_wordpool.txt	LTP134	ltpFR	2	9	0	POTTERY	1116	n/a	1	n/a	n/a	n/a	n/a	n/a
1584491	REC_WORD	wordpools/wasnorm_wordpool.txt	LTP134	ltpFR	2	9	0	RUG	1215	n/a	1	n/a	n/a	n/a	n/a	n/a
1586167	REC_WORD	wordpools/wasnorm_wordpool.txt	LTP134	ltpFR	2	9	1	HOOK	715	n/a	0	n/a	n/a	n/a	n/a	n/a
1587948	REC_WORD	wordpools/wasnorm_wordpool.txt	LTP134	ltpFR	2	9	1	MERMAID	887	n/a	1	n/a	n/a	n/a	n/a	n/a
1589958	REC_WORD	wordpools/wasnorm_wordpool.txt	LTP134	ltpFR	2	9	1	COD	340	n/a	1	n/a	n/a	n/a	n/a	n/a
1592617	REC_WORD	wordpools/wasnorm_wordpool.txt	LTP134	ltpFR	2	9	0	CUCUMBER	421	n/a	0	n/a	n/a	n/a	n/a	n/a
1654956	WORD	wordpools/wasnorm_wordpool.txt	LTP134	ltpFR	2	10	1	TRUCK	1512	n/a	0	0	0.5869140625	0.422607421875	upper	../fonts/amplitud.ttf
1659068	WORD	wordpools/wasnorm_wordpool.txt	LTP134	ltpFR	2	10	1	VAN	1548	n/a	0	0	0.5869140625	0.422607421875	upper	../fonts/amplitud.ttf
1662938	WORD	wordpools/wasnorm_wordpool.txt	LTP134	ltpFR	2	10	1	SALESMAN	1225	n/a	1	0	0.5869140625	0.422607421875	upper	../fonts/amplitud.ttf
1666809	WORD	wordpools/wasnorm_wordpool.txt	LTP134	ltpFR	2	10	1	TORCH	1484	n/a	0	0	0.5869140625	0.422607421875	upper	../fonts/amplitud.ttf
1670703	WORD	wordpools/wasnorm_wordpool.txt	LTP134	ltpFR	2	10	1	DINOSAUR	469	n/a	1	0	0.5869140625	0.422607421875	upper	../fonts/amplitud.ttf
1674716	WORD	wordpools/wasnorm_wordpool.txt	LTP134	ltpFR	2	10	1	PAIL	1002	n/a	0	0	0.5869140625	0.422607421875	upper	../fonts/amplitud.ttf
1678853	WORD	wordpools/wasnorm_wordpool.txt	LTP134	ltpFR	2	10	1	TERMITE	1451	n/a	1	0	0.5869140625	0.422607421875	upper	../fonts/amplitud.ttf
1683040	WORD	wordpools/wasnorm_wordpool.txt	LTP134	ltpFR	2	10	1	BUTTERFLY	206	n/a	1	0	0.5869140625	0.422607421875	upper	../fonts/amplitud.ttf
1686969	WORD	wordpools/wasnorm_wordpool.txt	LTP134	ltpFR	2	10	1	CRITIC	410	n/a	1	0	0.5869140625	0.422607421875	upper	../fonts/amplitud.ttf
1691073	WORD	wordpools/wasnorm_wordpool.txt	LTP134	ltpFR	2	10	1	DUNE	506	n/a	0	0	0.5869140625	0.422607421875	upper	../fonts/amplitud.ttf
1694926	WORD	wordpools/wasnorm_wordpool.txt	LTP134	ltpFR	2	10	1	SAW	1239	n/a	0	0	0.5869140625	0.422607421875	upper	../fonts/amplitud.ttf
1698814	WORD	wordpools/wasnorm_wordpool.txt	LTP134	ltpFR	2	10	1	WASHCLOTH	1591	n/a	0	0	0.5869140625	0.422607421875	upper	../fonts/amplitud.ttf
1702901	WORD	wordpools/wasnorm_wordpool.txt	LTP134	ltpFR	2	10	1	LIZARD	834	n/a	1	0	0.5869140625	0.422607421875	upper	../fonts/amplitud.ttf
1707062	WORD	wordpools/wasnorm_wordpool.txt	LTP134	ltpFR	2	10	1	DRIVEWAY	500	n/a	0	0	0.5869140625	0.422607421875	upper	../fonts/amplitud.ttf
1711149	WORD	wordpools/wasnorm_wordpool.txt	LTP134	ltpFR	2	10	1	TUBE	1516	n/a	0	0	0.5869140625	0.422607421875	upper	../fonts/amplitud.ttf
1715236	WORD	wordpools/wasnorm_wordpool.txt	LTP134	ltpFR	2	10	1	BASEBALL	93	n/a	0	0	0.5869140625	0.422607421875	upper	../fonts/amplitud.ttf
1720855	REC_START	n/a	LTP134	ltpFR	2	10	n/a	n/a	n/a	n/a	n/a	n/a	n/a	n/a	n/a	n/a
1723095	REC_WORD	wordpools/wasnorm_wordpool.txt	LTP134	ltpFR	2	10	1	BASEBALL	93	n/a	0	n/a	n/a	n/a	n/a	n/a
1724915	REC_WORD	wordpools/wasnorm_wordpool.txt	LTP134	ltpFR	2	10	1	LIZARD	834	n/a	1	n/a	n/a	n/a	n/a	n/a
1726437	REC_WORD	wordpools/wasnorm_wordpool.txt	LTP134	ltpFR	2	10	1	TUBE	1516	n/a	0	n/a	n/a	n/a	n/a	n/a
1728333	REC_WORD	wordpools/wasnorm_wordpool.txt	LTP134	ltpFR	2	10	1	DRIVEWAY	500	n/a	0	n/a	n/a	n/a	n/a	n/a
1731271	REC_WORD	wordpools/wasnorm_wordpool.txt	LTP134	ltpFR	2	10	1	DUNE	506	n/a	0	n/a	n/a	n/a	n/a	n/a
1733037	REC_WORD	wordpools/wasnorm_wordpool.txt	LTP134	ltpFR	2	10	1	CRITIC	410	n/a	1	n/a	n/a	n/a	n/a	n/a
1735167	REC_WORD	wordpools/wasnorm_wordpool.txt	LTP134	ltpFR	2	10	1	BUTTERFLY	206	n/a	1	n/a	n/a	n/a	n/a	n/a
1737163	REC_WORD	wordpools/wasnorm_wordpool.txt	LTP134	ltpFR	2	10	1	PAIL	1002	n/a	0	n/a	n/a	n/a	n/a	n/a
1738989	REC_WORD	wordpools/wasnorm_wordpool.txt	LTP134	ltpFR	2	10	1	TERMITE	1451	n/a	1	n/a	n/a	n/a	n/a	n/a
1741358	REC_WORD	wordpools/wasnorm_wordpool.txt	LTP134	ltpFR	2	10	1	SALESMAN	1225	n/a	1	n/a	n/a	n/a	n/a	n/a
1743328	REC_WORD	wordpools/wasnorm_wordpool.txt	LTP134	ltpFR	2	10	1	TORCH	1484	n/a	0	n/a	n/a	n/a	n/a	n/a
1745309	REC_WORD	wordpools/wasnorm_wordpool.txt	LTP134	ltpFR	2	10	1	TRUCK	1512	n/a	0	n/a	n/a	n/a	n/a	n/a
1747025	REC_WORD	wordpools/wasnorm_wordpool.txt	LTP134	ltpFR	2	10	1	VAN	1548	n/a	0	n/a	n/a	n/a	n/a	n/a
1756014	REC_WORD	wordpools/wasnorm_wordpool.txt	LTP134	ltpFR	2	10	1	SAW	1239	n/a	0	n/a	n/a	n/a	n/a	n/a
1805314	WORD	wordpools/wasnorm_wordpool.txt	LTP134	ltpFR	2	11	0	RUST	1219	n/a	0	1	0.412841796875	0.57763671875	lower	../fonts/zerothre.ttf
1809326	WORD	wordpools/wasnorm_wordpool.txt	LTP134	ltpFR	2	11	0	PIGEON	1065	n/a	0	1	0.412841796875	0.57763671875	lower	../fonts/zerothre.ttf
1813313	WORD	wordpools/wasnorm_wordpool.txt	LTP134	ltpFR	2	11	0	PUPIL	1143	n/a	0	1	0.412841796875	0.57763671875	lower	../fonts/zerothre.ttf
1817425	WORD	wordpools/wasnorm_wordpool.txt	LTP134	ltpFR	2	11	1	GOO	648	n/a	0	0	0.5869140625	0.422607421875	upper	../fonts/amplitud.ttf
1821529	WORD	wordpools/wasnorm_wordpool.txt	LTP134	ltpFR	2	11	1	SMOG	1330	n/a	0	0	0.5869140625	0.422607421875	upper	../fonts/amplitud.ttf
1825482	WORD	wordpools/wasnorm_wordpool.txt	LTP134	ltpFR	2	11	1	PROFESSOR	1131	n/a	1	0	0.5869140625	0.422607421875	upper	../fonts/amplitud.ttf
1829594	WORD	wordpools/wasnorm_wordpool.txt	LTP134	ltpFR	2	11	1	SHARK	1275	n/a	1	0	0.5869140625	0.422607421875	upper	../fonts/amplitud.ttf
1833715	WORD	wordpools/wasnorm_wordpool.txt	LTP134	ltpFR	2	11	0	PORPOISE	1109	n/a	1	1	0.412841796875	0.57763671875	lower	../fonts/zerothre.ttf
1837593	WORD	wordpools/wasnorm_wordpool.txt	LTP134	ltpFR	2	11	0	DAUGHTER	442	n/a	1	1	0.412841796875	0.57763671875	lower	../fonts/zerothre.ttf
1841514	WORD	wordpools/wasnorm_wordpool.txt	LTP134	ltpFR	2	11	1	TIMBER	1469	n/a	0	0	0.5869140625	0.422607421875	upper	../fonts/amplitud.ttf
1845401	WORD	wordpools/wasnorm_wordpool.txt	LTP134	ltpFR	2	11	1	CART	250	n/a	0	0	0.5869140625	0.422607421875	upper	../fonts/amplitud.ttf
1849438	WORD	wordpools/wasnorm_wordpool.txt	LTP134	ltpFR	2	11	1	SHOP	1290	n/a	0	0	0.5869140625	0.422607421875	upper	../fonts/amplitud.ttf
1853251	WORD	wordpools/wasnorm_wordpool.txt	LTP134	ltpFR	2	11	1	BUGGY	188	n/a	0	0	0.5869140625	0.422607421875	upper	../fonts/amplitud.ttf
1857371	WORD	wordpools/wasnorm_wordpool.txt	LTP134	ltpFR	2	11	0	GUARDIAN	668	n/a	1	1	0.412841796875	0.57763671875	lower	../fonts/zerothre.ttf
1861441	WORD	wordpools/wasnorm_wordpool.txt	LTP134	ltpFR	2	11	0	CHAMPAGNE	278	n/a	1	1	0.412841796875	0.57763671875	lower	../fonts/zerothre.ttf
1865628	WORD	wordpools/wasnorm_wordpool.txt	LTP134	ltpFR	2	11	0	SCOTCH	1251	n/a	1	1	0.412841796875	0.57763671875	lower	../fonts/zerothre.ttf
1871231	REC_START	n/a	LTP134	ltpFR	2	11	n/a	n/a	n/a	n/a	n/a	n/a	n/a	n/a	n/a	n/a
1872842	REC_WORD	wordpools/wasnorm_wordpool.txt	LTP134	ltpFR	2	11	0	CHAMPAGNE	278	n/a	1	n/a	n/a	n/a	n/a	n/a
1874712	REC_WORD	wordpools/wasnorm_wordpool.txt	LTP134	ltpFR	2	11	0	SCOTCH	1251	n/a	1	n/a	n/a	n/a	n/a	n/a
1876519	REC_WORD	wordpools/wasnorm_wordpool.txt	LTP134	ltpFR	2	11	0	GUARDIAN	668	n/a	1	n/a	n/a	n/a	n/a	n/a
1878235	REC_WORD	wordpools/wasnorm_wordpool.txt	LTP134	ltpFR	2	11	1	BUGGY	188	n/a	0	n/a	n/a	n/a	n/a	n/a
1882400	REC_WORD	wordpools/wasnorm_wordpool.txt	LTP134	ltpFR	2	11	n/a	SHOPPING	-1	n/a	n/a	n/a	n/a	n/a	n/a	n/a
1885902	REC_WORD	wordpools/wasnorm_wordpool.txt	LTP134	ltpFR	2	11	1	CART	250	n/a	0	n/a	n/a	n/a	n/a	n/a
1887593	REC_WORD	wordpools/wasnorm_wordpool.txt	LTP134	ltpFR	2	11	1	TIMBER	1469	n/a	0	n/a	n/a	n/a	n/a	n/a
1895615	REC_WORD	wordpools/wasnorm_wordpool.txt	LTP134	ltpFR	2	11	0	DAUGHTER	442	n/a	1	n/a	n/a	n/a	n/a	n/a
1901577	REC_WORD	wordpools/wasnorm_wordpool.txt	LTP134	ltpFR	2	11	1	GOO	648	n/a	0	n/a	n/a	n/a	n/a	n/a
1903223	REC_WORD	wordpools/wasnorm_wordpool.txt	LTP134	ltpFR	2	11	0	PIGEON	1065	n/a	0	n/a	n/a	n/a	n/a	n/a
1904983	REC_WORD	wordpools/wasnorm_wordpool.txt	LTP134	ltpFR	2	11	0	PUPIL	1143	n/a	0	n/a	n/a	n/a	n/a	n/a
1907009	REC_WORD	wordpools/wasnorm_wordpool.txt	LTP134	ltpFR	2	11	0	RUST	1219	n/a	0	n/a	n/a	n/a	n/a	n/a
1908845	REC_WORD	wordpools/wasnorm_wordpool.txt	LTP134	ltpFR	2	11	1	PROFESSOR	1131	n/a	1	n/a	n/a	n/a	n/a	n/a
1910896	REC_WORD	wordpools/wasnorm_wordpool.txt	LTP134	ltpFR	2	11	1	SHARK	1275	n/a	1	n/a	n/a	n/a	n/a	n/a
1962640	WORD	wordpools/wasnorm_wordpool.txt	LTP134	ltpFR	2	12	0	KITCHEN	778	n/a	1	1	0.412841796875	0.57763671875	lower	../fonts/zerothre.ttf
1966719	WORD	wordpools/wasnorm_wordpool.txt	LTP134	ltpFR	2	12	0	MARKET	871	n/a	1	1	0.412841796875	0.57763671875	lower	../fonts/zerothre.ttf
1970548	WORD	wordpools/wasnorm_wordpool.txt	LTP134	ltpFR	2	12	0	SCREWDRIVER	1255	n/a	0	1	0.412841796875	0.57763671875	lower	../fonts/zerothre.ttf
1974543	WORD	wordpools/wasnorm_wordpool.txt	LTP134	ltpFR	2	12	0	STAPLER	1372	n/a	0	1	0.412841796875	0.57763671875	lower	../fonts/zerothre.ttf
1978705	WORD	wordpools/wasnorm_wordpool.txt	LTP134	ltpFR	2	12	0	SUGAR	1401	n/a	0	1	0.412841796875	0.57763671875	lower	../fonts/zerothre.ttf
1982709	WORD	wordpools/wasnorm_wordpool.txt	LTP134	ltpFR	2	12	0	BLACKBERRY	132	n/a	0	1	0.412841796875	0.57763671875	lower	../fonts/zerothre.ttf
1986913	WORD	wordpools/wasnorm_wordpool.txt	LTP134	ltpFR	2	12	0	FLASK	576	n/a	0	1	0.412841796875	0.57763671875	lower	../fonts/zerothre.ttf
1990784	WORD	wordpools/wasnorm_wordpool.txt	LTP134	ltpFR	2	12	0	VAGRANT	1544	n/a	1	1	0.412841796875	0.57763671875	lower	../fonts/zerothre.ttf
1994846	WORD	wordpools/wasnorm_wordpool.txt	LTP134	ltpFR	2	12	0	BANANA	77	n/a	0	1	0.412841796875	0.57763671875	lower	../fonts/zerothre.ttf
1998816	WORD	wordpools/wasnorm_wordpool.txt	LTP134	ltpFR	2	12	0	HATCHET	691	n/a	1	1	0.412841796875	0.57763671875	lower	../fonts/zerothre.ttf
2002861	WORD	wordpools/wasnorm_wordpool.txt	LTP134	ltpFR	2	12	0	MARSH	874	n/a	1	1	0.412841796875	0.57763671875	lower	../fonts/zerothre.ttf
2006940	WORD	wordpools/wasnorm_wordpool.txt	LTP134	ltpFR	2	12	0	DIVER	476	n/a	1	1	0.412841796875	0.57763671875	lower	../fonts/zerothre.ttf
2010852	WORD	wordpools/wasnorm_wordpool.txt	LTP134	ltpFR	2	12	0	COCKTAIL	338	n/a	0	1	0.412841796875	0.57763671875	lower	../fonts/zerothre.ttf
2014864	WORD	wordpools/wasnorm_wordpool.txt	LTP134	ltpFR	2	12	0	STRAW	1390	n/a	1	1	0.412841796875	0.57763671875	lower	../fonts/zerothre.ttf
2019001	WORD	wordpools/wasnorm_wordpool.txt	LTP134	ltpFR	2	12	0	TAPIOCA	1434	n/a	0	1	0.412841796875	0.57763671875	lower	../fonts/zerothre.ttf
2022988	WORD	wordpools/wasnorm_wordpool.txt	LTP134	ltpFR	2	12	0	SURVEY	1414	n/a	1	1	0.412841796875	0.57763671875	lower	../fonts/zerothre.ttf
2028739	REC_START	n/a	LTP134	ltpFR	2	12	n/a	n/a	n/a	n/a	n/a	n/a	n/a	n/a	n/a	n/a
2030729	REC_WORD	wordpools/wasnorm_wordpool.txt	LTP134	ltpFR	2	12	0	SURVEY	1414	n/a	1	n/a	n/a	n/a	n/a	n/a
2032800	REC_WORD	wordpools/wasnorm_wordpool.txt	LTP134	ltpFR	2	12	0	TAPIOCA	1434	n/a	0	n/a	n/a	n/a	n/a	n/a
2034540	REC_WORD	wordpools/wasnorm_wordpool.txt	LTP134	ltpFR	2	12	0	STRAW	1390	n/a	1	n/a	n/a	n/a	n/a	n/a
2036845	REC_WORD	wordpools/wasnorm_wordpool.txt	LTP134	ltpFR	2	12	0	COCKTAIL	338	n/a	0	n/a	n/a	n/a	n/a	n/a
2039459	REC_WORD	wordpools/wasnorm_wordpool.txt	LTP134	ltpFR	2	12	0	DIVER	476	n/a	1	n/a	n/a	n/a	n/a	n/a
2042118	REC_WORD	wordpools/wasnorm_wordpool.txt	LTP134	ltpFR	2	12	0	HATCHET	691	n/a	1	n/a	n/a	n/a	n/a	n/a
2044398	REC_WORD	wordpools/wasnorm_wordpool.txt	LTP134	ltpFR	2	12	0	BANANA	77	n/a	0	n/a	n/a	n/a	n/a	n/a
2062611	REC_WORD	wordpools/wasnorm_wordpool.txt	LTP134	ltpFR	2	12	0	FLASK	576	n/a	0	n/a	n/a	n/a	n/a	n/a
2065580	REC_WORD	wordpools/wasnorm_wordpool.txt	LTP134	ltpFR	2	12	0	BLACKBERRY	132	n/a	0	n/a	n/a	n/a	n/a	n/a
2067910	REC_WORD	wordpools/wasnorm_wordpool.txt	LTP134	ltpFR	2	12	0	SUGAR	1401	n/a	0	n/a	n/a	n/a	n/a	n/a
2070059	REC_WORD	wordpools/wasnorm_wordpool.txt	LTP134	ltpFR	2	12	n/a	SCREW	1254	n/a	n/a	n/a	n/a	n/a	n/a	n/a
2072199	REC_WORD	wordpools/wasnorm_wordpool.txt	LTP134	ltpFR	2	12	0	STAPLER	1372	n/a	0	n/a	n/a	n/a	n/a	n/a
2074778	REC_WORD	wordpools/wasnorm_wordpool.txt	LTP134	ltpFR	2	12	0	KITCHEN	778	n/a	1	n/a	n/a	n/a	n/a	n/a
2085304	REC_WORD	wordpools/wasnorm_wordpool.txt	LTP134	ltpFR	2	12	n/a	STORE	1387	n/a	n/a	n/a	n/a	n/a	n/a	n/a
2104343	REST_REWET	n/a	LTP134	ltpFR	2	12	n/a	n/a	n/a	n/a	n/a	n/a	n/a	n/a	n/a	n/a
2625207	WORD	wordpools/wasnorm_wordpool.txt	LTP134	ltpFR	2	13	0	ISLAND	745	n/a	1	1	0.412841796875	0.57763671875	lower	../fonts/zerothre.ttf
2629019	WORD	wordpools/wasnorm_wordpool.txt	LTP134	ltpFR	2	13	0	BUCKET	184	n/a	0	1	0.412841796875	0.57763671875	lower	../fonts/zerothre.ttf
2633114	WORD	wordpools/wasnorm_wordpool.txt	LTP134	ltpFR	2	13	0	PASSENGER	1020	n/a	1	1	0.412841796875	0.57763671875	lower	../fonts/zerothre.ttf
2637268	WORD	wordpools/wasnorm_wordpool.txt	LTP134	ltpFR	2	13	0	SURGEON	1413	n/a	1	1	0.412841796875	0.57763671875	lower	../fonts/zerothre.ttf
2641470	WORD	wordpools/wasnorm_wordpool.txt	LTP134	ltpFR	2	13	0	DENTIST	447	n/a	1	1	0.412841796875	0.57763671875	lower	../fonts/zerothre.ttf
2645407	WORD	wordpools/wasnorm_wordpool.txt	LTP134	ltpFR	2	13	0	MOUTH	926	n/a	0	1	0.412841796875	0.57763671875	lower	../fonts/zerothre.ttf
2649296	WORD	wordpools/wasnorm_wordpool.txt	LTP134	ltpFR	2	13	0	RAG	1160	n/a	0	1	0.412841796875	0.57763671875	lower	../fonts/zerothre.ttf
2653150	WORD	wordpools/wasnorm_wordpool.txt	LTP134	ltpFR	2	13	0	HORSE	719	n/a	1	1	0.412841796875	0.57763671875	lower	../fonts/zerothre.ttf
2657003	WORD	wordpools/wasnorm_wordpool.txt	LTP134	ltpFR	2	13	0	PHYSICIAN	1056	n/a	1	1	0.412841796875	0.57763671875	lower	../fonts/zerothre.ttf
2661207	WORD	wordpools/wasnorm_wordpool.txt	LTP134	ltpFR	2	13	0	BEAN	105	n/a	0	1	0.412841796875	0.57763671875	lower	../fonts/zerothre.ttf
2665036	WORD	wordpools/wasnorm_wordpool.txt	LTP134	ltpFR	2	13	0	HAWK	692	n/a	0	1	0.412841796875	0.57763671875	lower	../fonts/zerothre.ttf
2669239	WORD	wordpools/wasnorm_wordpool.txt	LTP134	ltpFR	2	13	0	RAIL	1161	n/a	1	1	0.412841796875	0.57763671875	lower	../fonts/zerothre.ttf
2673235	WORD	wordpools/wasnorm_wordpool.txt	LTP134	ltpFR	2	13	0	RIDER	1191	n/a	1	1	0.412841796875	0.57763671875	lower	../fonts/zerothre.ttf
2677312	WORD	wordpools/wasnorm_wordpool.txt	LTP134	ltpFR	2	13	0	RADISH	1158	n/a	0	1	0.412841796875	0.57763671875	lower	../fonts/zerothre.ttf
2681175	WORD	wordpools/wasnorm_wordpool.txt	LTP134	ltpFR	2	13	0	NAPKIN	937	n/a	0	1	0.412841796875	0.57763671875	lower	../fonts/zerothre.ttf
2685096	WORD	wordpools/wasnorm_wordpool.txt	LTP134	ltpFR	2	13	0	KETCHUP	771	n/a	0	1	0.412841796875	0.57763671875	lower	../fonts/zerothre.ttf
2691031	REC_START	n/a	LTP134	ltpFR	2	13	n/a	n/a	n/a	n/a	n/a	n/a	n/a	n/a	n/a	n/a
2692936	REC_WORD	wordpools/wasnorm_wordpool.txt	LTP134	ltpFR	2	13	0	NAPKIN	937	n/a	0	n/a	n/a	n/a	n/a	n/a
2694403	REC_WORD	wordpools/wasnorm_wordpool.txt	LTP134	ltpFR	2	13	0	KETCHUP	771	n/a	0	n/a	n/a	n/a	n/a	n/a
2697471	REC_WORD	wordpools/wasnorm_wordpool.txt	LTP134	ltpFR	2	13	0	BEAN	105	n/a	0	n/a	n/a	n/a	n/a	n/a
2699117	REC_WORD	wordpools/wasnorm_wordpool.txt	LTP134	ltpFR	2	13	0	HAWK	692	n/a	0	n/a	n/a	n/a	n/a	n/a
2702679	REC_WORD	wordpools/wasnorm_wordpool.txt	LTP134	ltpFR	2	13	0	ISLAND	745	n/a	1	n/a	n/a	n/a	n/a	n/a
2704635	REC_WORD	wordpools/wasnorm_wordpool.txt	LTP134	ltpFR	2	13	0	PASSENGER	1020	n/a	1	n/a	n/a	n/a	n/a	n/a
2707404	REC_WORD	wordpools/wasnorm_wordpool.txt	LTP134	ltpFR	2	13	0	BUCKET	184	n/a	0	n/a	n/a	n/a	n/a	n/a
2711648	REC_WORD	wordpools/wasnorm_wordpool.txt	LTP134	ltpFR	2	13	0	PHYSICIAN	1056	n/a	1	n/a	n/a	n/a	n/a	n/a
2713724	REC_WORD	wordpools/wasnorm_wordpool.txt	LTP134	ltpFR	2	13	n/a	DOCTOR	478	n/a	n/a	n/a	n/a	n/a	n/a	n/a
2715730	REC_WORD	wordpools/wasnorm_wordpool.txt	LTP134	ltpFR	2	13	0	DENTIST	447	n/a	1	n/a	n/a	n/a	n/a	n/a
2717855	REC_WORD	wordpools/wasnorm_wordpool.txt	LTP134	ltpFR	2	13	0	MOUTH	926	n/a	0	n/a	n/a	n/a	n/a	n/a
2724315	REC_WORD	wordpools/wasnorm_wordpool.txt	LTP134	ltpFR	2	13	0	HORSE	719	n/a	1	n/a	n/a	n/a	n/a	n/a
2853076	WORD	wordpools/wasnorm_wordpool.txt	LTP134	ltpFR	2	14	-1	KNIFE	785	n/a	-1	1	1.0	1.0	upper	../fonts/Verdana.ttf
2857188	WORD	wordpools/wasnorm_wordpool.txt	LTP134	ltpFR	2	14	-1	MAYONNAISE	880	n/a	-1	1	1.0	1.0	upper	../fonts/Verdana.ttf
2861349	WORD	wordpools/wasnorm_wordpool.txt	LTP134	ltpFR	2	14	-1	CUPBOARD	425	n/a	-1	1	1.0	1.0	upper	../fonts/Verdana.ttf
2865195	WORD	wordpools/wasnorm_wordpool.txt	LTP134	ltpFR	2	14	-1	SNACK	1331	n/a	-1	1	1.0	1.0	upper	../fonts/Verdana.ttf
2869199	WORD	wordpools/wasnorm_wordpool.txt	LTP134	ltpFR	2	14	-1	TOAD	1470	n/a	-1	1	1.0	1.0	upper	../fonts/Verdana.ttf
2873278	WORD	wordpools/wasnorm_wordpool.txt	LTP134	ltpFR	2	14	-1	JOINT	758	n/a	-1	1	1.0	1.0	upper	../fonts/Verdana.ttf
2877306	WORD	wordpools/wasnorm_wordpool.txt	LTP134	ltpFR	2	14	-1	STUMP	1396	n/a	-1	1	1.0	1.0	upper	../fonts/Verdana.ttf
2881219	WORD	wordpools/wasnorm_wordpool.txt	LTP134	ltpFR	2	14	-1	STICKER	1382	n/a	-1	1	1.0	1.0	upper	../fonts/Verdana.ttf
2885072	WORD	wordpools/wasnorm_wordpool.txt	LTP134	ltpFR	2	14	-1	BRAKE	166	n/a	-1	1	1.0	1.0	upper	../fonts/Verdana.ttf
2889243	WORD	wordpools/wasnorm_wordpool.txt	LTP134	ltpFR	2	14	-1	ELBOW	520	n/a	-1	1	1.0	1.0	upper	../fonts/Verdana.ttf
2893138	WORD	wordpools/wasnorm_wordpool.txt	LTP134	ltpFR	2	14	-1	TOOTH	1481	n/a	-1	1	1.0	1.0	upper	../fonts/Verdana.ttf
2897208	WORD	wordpools/wasnorm_wordpool.txt	LTP134	ltpFR	2	14	-1	LONDON	843	n/a	-1	1	1.0	1.0	upper	../fonts/Verdana.ttf
2901245	WORD	wordpools/wasnorm_wordpool.txt	LTP134	ltpFR	2	14	-1	PORCUPINE	1107	n/a	-1	1	1.0	1.0	upper	../fonts/Verdana.ttf
2905356	WORD	wordpools/wasnorm_wordpool.txt	LTP134	ltpFR	2	14	-1	LUMBER	848	n/a	-1	1	1.0	1.0	upper	../fonts/Verdana.ttf
2909527	WORD	wordpools/wasnorm_wordpool.txt	LTP134	ltpFR	2	14	-1	CHEMIST	292	n/a	-1	1	1.0	1.0	upper	../fonts/Verdana.ttf
2913364	WORD	wordpools/wasnorm_wordpool.txt	LTP134	ltpFR	2	14	-1	SCIENTIST	1249	n/a	-1	1	1.0	1.0	upper	../fonts/Verdana.ttf
2919292	REC_START	n/a	LTP134	ltpFR	2	14	n/a	n/a	n/a	n/a	n/a	n/a	n/a	n/a	n/a	n/a
2921716	REC_WORD	wordpools/wasnorm_wordpool.txt	LTP134	ltpFR	2	14	-1	CHEMIST	292	n/a	-1	n/a	n/a	n/a	n/a	n/a
2922953	REC_WORD	wordpools/wasnorm_wordpool.txt	LTP134	ltpFR	2	14	-1	SCIENTIST	1249	n/a	-1	n/a	n/a	n/a	n/a	n/a
2925492	REC_WORD	wordpools/wasnorm_wordpool.txt	LTP134	ltpFR	2	14	n/a	FROG	608	n/a	n/a	n/a	n/a	n/a	n/a	n/a
2927658	REC_WORD	wordpools/wasnorm_wordpool.txt	LTP134	ltpFR	2	14	-1	MAYONNAISE	880	n/a	-1	n/a	n/a	n/a	n/a	n/a
2929743	REC_WORD	wordpools/wasnorm_wordpool.txt	LTP134	ltpFR	2	14	-1	KNIFE	785	n/a	-1	n/a	n/a	n/a	n/a	n/a
2931588	REC_WORD	wordpools/wasnorm_wordpool.txt	LTP134	ltpFR	2	14	-1	SNACK	1331	n/a	-1	n/a	n/a	n/a	n/a	n/a
2935195	REC_WORD	wordpools/wasnorm_wordpool.txt	LTP134	ltpFR	2	14	1	TIMBER	1469	n/a	0	n/a	n/a	n/a	n/a	n/a
2936761	REC_WORD	wordpools/wasnorm_wordpool.txt	LTP134	ltpFR	2	14	-1	PORCUPINE	1107	n/a	-1	n/a	n/a	n/a	n/a	n/a
2939022	REC_WORD	wordpools/wasnorm_wordpool.txt	LTP134	ltpFR	2	14	-1	LONDON	843	n/a	-1	n/a	n/a	n/a	n/a	n/a
3013249	WORD	wordpools/wasnorm_wordpool.txt	LTP134	ltpFR	2	15	1	VASE	1549	n/a	0	0	0.5869140625	0.422607421875	upper	../fonts/amplitud.ttf
3017435	WORD	wordpools/wasnorm_wordpool.txt	LTP134	ltpFR	2	15	1	PLANT	1083	n/a	1	0	0.5869140625	0.422607421875	upper	../fonts/amplitud.ttf
3021290	WORD	wordpools/wasnorm_wordpool.txt	LTP134	ltpFR	2	15	1	DOORBELL	487	n/a	0	0	0.5869140625	0.422607421875	upper	../fonts/amplitud.ttf
3025367	WORD	wordpools/wasnorm_wordpool.txt	LTP134	ltpFR	2	15	1	JOKER	759	n/a	0	0	0.5869140625	0.422607421875	upper	../fonts/amplitud.ttf
3029289	WORD	wordpools/wasnorm_wordpool.txt	LTP134	ltpFR	2	15	1	MEADOW	881	n/a	0	0	0.5869140625	0.422607421875	upper	../fonts/amplitud.ttf
3033475	WORD	wordpools/wasnorm_wordpool.txt	LTP134	ltpFR	2	15	1	BRACELET	163	n/a	0	0	0.5869140625	0.422607421875	upper	../fonts/amplitud.ttf
3037611	WORD	wordpools/wasnorm_wordpool.txt	LTP134	ltpFR	2	15	1	GERM	632	n/a	0	0	0.5869140625	0.422607421875	upper	../fonts/amplitud.ttf
3041615	WORD	wordpools/wasnorm_wordpool.txt	LTP134	ltpFR	2	15	1	GEM	629	n/a	0	0	0.5869140625	0.422607421875	upper	../fonts/amplitud.ttf
3045635	WORD	wordpools/wasnorm_wordpool.txt	LTP134	ltpFR	2	15	1	TULIP	1517	n/a	1	0	0.5869140625	0.422607421875	upper	../fonts/amplitud.ttf
3049456	WORD	wordpools/wasnorm_wordpool.txt	LTP134	ltpFR	2	15	1	GARDEN	623	n/a	0	0	0.5869140625	0.422607421875	upper	../fonts/amplitud.ttf
3053485	WORD	wordpools/wasnorm_wordpool.txt	LTP134	ltpFR	2	15	1	COYOTE	396	n/a	1	0	0.5869140625	0.422607421875	upper	../fonts/amplitud.ttf
3057538	WORD	wordpools/wasnorm_wordpool.txt	LTP134	ltpFR	2	15	1	OUTLAW	989	n/a	0	0	0.5869140625	0.422607421875	upper	../fonts/amplitud.ttf
3061392	WORD	wordpools/wasnorm_wordpool.txt	LTP134	ltpFR	2	15	1	COP	376	n/a	1	0	0.5869140625	0.422607421875	upper	../fonts/amplitud.ttf
3065329	WORD	wordpools/wasnorm_wordpool.txt	LTP134	ltpFR	2	15	1	DIRECTOR	471	n/a	1	0	0.5869140625	0.422607421875	upper	../fonts/amplitud.ttf
3069333	WORD	wordpools/wasnorm_wordpool.txt	LTP134	ltpFR	2	15	1	CLOWN	330	n/a	1	0	0.5869140625	0.422607421875	upper	../fonts/amplitud.ttf
3073511	WORD	wordpools/wasnorm_wordpool.txt	LTP134	ltpFR	2	15	1	HOE	711	n/a	0	0	0.5869140625	0.422607421875	upper	../fonts/amplitud.ttf
3079098	REC_START	n/a	LTP134	ltpFR	2	15	n/a	n/a	n/a	n/a	n/a	n/a	n/a	n/a	n/a	n/a
3080709	REC_WORD	wordpools/wasnorm_wordpool.txt	LTP134	ltpFR	2	15	1	HOE	711	n/a	0	n/a	n/a	n/a	n/a	n/a
3082515	REC_WORD	wordpools/wasnorm_wordpool.txt	LTP134	ltpFR	2	15	1	CLOWN	330	n/a	1	n/a	n/a	n/a	n/a	n/a
3084700	REC_WORD	wordpools/wasnorm_wordpool.txt	LTP134	ltpFR	2	15	1	DIRECTOR	471	n/a	1	n/a	n/a	n/a	n/a	n/a
3087020	REC_WORD	wordpools/wasnorm_wordpool.txt	LTP134	ltpFR	2	15	1	COP	376	n/a	1	n/a	n/a	n/a	n/a	n/a
3089275	REC_WORD	wordpools/wasnorm_wordpool.txt	LTP134	ltpFR	2	15	1	COYOTE	396	n/a	1	n/a	n/a	n/a	n/a	n/a
3091380	REC_WORD	wordpools/wasnorm_wordpool.txt	LTP134	ltpFR	2	15	1	TULIP	1517	n/a	1	n/a	n/a	n/a	n/a	n/a
3093325	REC_WORD	wordpools/wasnorm_wordpool.txt	LTP134	ltpFR	2	15	1	GARDEN	623	n/a	0	n/a	n/a	n/a	n/a	n/a
3095456	REC_WORD	wordpools/wasnorm_wordpool.txt	LTP134	ltpFR	2	15	1	JOKER	759	n/a	0	n/a	n/a	n/a	n/a	n/a
3097591	REC_WORD	wordpools/wasnorm_wordpool.txt	LTP134	ltpFR	2	15	1	BRACELET	163	n/a	0	n/a	n/a	n/a	n/a	n/a
3099412	REC_WORD	wordpools/wasnorm_wordpool.txt	LTP134	ltpFR	2	15	1	GERM	632	n/a	0	n/a	n/a	n/a	n/a	n/a
3101317	REC_WORD	wordpools/wasnorm_wordpool.txt	LTP134	ltpFR	2	15	1	GEM	629	n/a	0	n/a	n/a	n/a	n/a	n/a
3104650	REC_WORD	wordpools/wasnorm_wordpool.txt	LTP134	ltpFR	2	15	1	VASE	1549	n/a	0	n/a	n/a	n/a	n/a	n/a
3106999	REC_WORD	wordpools/wasnorm_wordpool.txt	LTP134	ltpFR	2	15	1	PLANT	1083	n/a	1	n/a	n/a	n/a	n/a	n/a
3166312	WORD	wordpools/wasnorm_wordpool.txt	LTP134	ltpFR	2	16	1	TOWEL	1489	n/a	0	0	0.5869140625	0.422607421875	upper	../fonts/amplitud.ttf
3170358	WORD	wordpools/wasnorm_wordpool.txt	LTP134	ltpFR	2	16	1	TREE	1502	n/a	1	0	0.5869140625	0.422607421875	upper	../fonts/amplitud.ttf
3174561	WORD	wordpools/wasnorm_wordpool.txt	LTP134	ltpFR	2	16	0	FROST	609	n/a	1	1	0.412841796875	0.57763671875	lower	../fonts/zerothre.ttf
3178506	WORD	wordpools/wasnorm_wordpool.txt	LTP134	ltpFR	2	16	0	SKATE	1313	n/a	1	1	0.412841796875	0.57763671875	lower	../fonts/zerothre.ttf
3182369	WORD	wordpools/wasnorm_wordpool.txt	LTP134	ltpFR	2	16	0	CLOSET	326	n/a	1	1	0.412841796875	0.57763671875	lower	../fonts/zerothre.ttf
3186447	WORD	wordpools/wasnorm_wordpool.txt	LTP134	ltpFR	2	16	0	DENIM	446	n/a	1	1	0.412841796875	0.57763671875	lower	../fonts/zerothre.ttf
3190359	WORD	wordpools/wasnorm_wordpool.txt	LTP134	ltpFR	2	16	1	BROCCOLI	176	n/a	1	0	0.5869140625	0.422607421875	upper	../fonts/amplitud.ttf
3194214	WORD	wordpools/wasnorm_wordpool.txt	LTP134	ltpFR	2	16	1	UNIVERSITY	1541	n/a	0	0	0.5869140625	0.422607421875	upper	../fonts/amplitud.ttf
3198052	WORD	wordpools/wasnorm_wordpool.txt	LTP134	ltpFR	2	16	1	NUN	962	n/a	1	0	0.5869140625	0.422607421875	upper	../fonts/amplitud.ttf
3202030	WORD	wordpools/wasnorm_wordpool.txt	LTP134	ltpFR	2	16	1	RECEPTIONIST	1174	n/a	1	0	0.5869140625	0.422607421875	upper	../fonts/amplitud.ttf
3206067	WORD	wordpools/wasnorm_wordpool.txt	LTP134	ltpFR	2	16	1	LETTER	813	n/a	0	0	0.5869140625	0.422607421875	upper	../fonts/amplitud.ttf
3209888	WORD	wordpools/wasnorm_wordpool.txt	LTP134	ltpFR	2	16	1	BINDER	127	n/a	0	0	0.5869140625	0.422607421875	upper	../fonts/amplitud.ttf
3213966	WORD	wordpools/wasnorm_wordpool.txt	LTP134	ltpFR	2	16	0	LITERATURE	831	n/a	1	1	0.412841796875	0.57763671875	lower	../fonts/zerothre.ttf
3217829	WORD	wordpools/wasnorm_wordpool.txt	LTP134	ltpFR	2	16	0	FRIAR	605	n/a	1	1	0.412841796875	0.57763671875	lower	../fonts/zerothre.ttf
3221648	WORD	wordpools/wasnorm_wordpool.txt	LTP134	ltpFR	2	16	0	TYPIST	1532	n/a	1	1	0.412841796875	0.57763671875	lower	../fonts/zerothre.ttf
3225494	WORD	wordpools/wasnorm_wordpool.txt	LTP134	ltpFR	2	16	0	SUPERMARKET	1409	n/a	1	1	0.412841796875	0.57763671875	lower	../fonts/zerothre.ttf
3231197	REC_START	n/a	LTP134	ltpFR	2	16	n/a	n/a	n/a	n/a	n/a	n/a	n/a	n/a	n/a	n/a
3233042	REC_WORD	wordpools/wasnorm_wordpool.txt	LTP134	ltpFR	2	16	0	SUPERMARKET	1409	n/a	1	n/a	n/a	n/a	n/a	n/a
3234698	REC_WORD	wordpools/wasnorm_wordpool.txt	LTP134	ltpFR	2	16	0	FRIAR	605	n/a	1	n/a	n/a	n/a	n/a	n/a
3236450	REC_WORD	wordpools/wasnorm_wordpool.txt	LTP134	ltpFR	2	16	0	TYPIST	1532	n/a	1	n/a	n/a	n/a	n/a	n/a
3238231	REC_WORD	wordpools/wasnorm_wordpool.txt	LTP134	ltpFR	2	16	0	LITERATURE	831	n/a	1	n/a	n/a	n/a	n/a	n/a
3240496	REC_WORD	wordpools/wasnorm_wordpool.txt	LTP134	ltpFR	2	16	1	BINDER	127	n/a	0	n/a	n/a	n/a	n/a	n/a
3242152	REC_WORD	wordpools/wasnorm_wordpool.txt	LTP134	ltpFR	2	16	1	LETTER	813	n/a	0	n/a	n/a	n/a	n/a	n/a
3244162	REC_WORD	wordpools/wasnorm_wordpool.txt	LTP134	ltpFR	2	16	1	RECEPTIONIST	1174	n/a	1	n/a	n/a	n/a	n/a	n/a
3245162	REC_WORD_VV	wordpools/wasnorm_wordpool.txt	LTP134	ltpFR	2	16	n/a	<>	-1	n/a	n/a	n/a	n/a	n/a	n/a	n/a
3246268	REC_WORD	wordpools/wasnorm_wordpool.txt	LTP134	ltpFR	2	16	1	UNIVERSITY	1541	n/a	0	n/a	n/a	n/a	n/a	n/a
3248153	REC_WORD	wordpools/wasnorm_wordpool.txt	LTP134	ltpFR	2	16	1	NUN	962	n/a	1	n/a	n/a	n/a	n/a	n/a
3250293	REC_WORD	wordpools/wasnorm_wordpool.txt	LTP134	ltpFR	2	16	1	BROCCOLI	176	n/a	1	n/a	n/a	n/a	n/a	n/a
3252588	REC_WORD	wordpools/wasnorm_wordpool.txt	LTP134	ltpFR	2	16	1	TREE	1502	n/a	1	n/a	n/a	n/a	n/a	n/a
3254449	REC_WORD	wordpools/wasnorm_wordpool.txt	LTP134	ltpFR	2	16	1	TOWEL	1489	n/a	0	n/a	n/a	n/a	n/a	n/a
3256339	REC_WORD	wordpools/wasnorm_wordpool.txt	LTP134	ltpFR	2	16	0	FROST	609	n/a	1	n/a	n/a	n/a	n/a	n/a
3258334	REC_WORD	wordpools/wasnorm_wordpool.txt	LTP134	ltpFR	2	16	0	SKATE	1313	n/a	1	n/a	n/a	n/a	n/a	n/a
3260674	REC_WORD	wordpools/wasnorm_wordpool.txt	LTP134	ltpFR	2	16	0	CLOSET	326	n/a	1	n/a	n/a	n/a	n/a	n/a
3262570	REC_WORD	wordpools/wasnorm_wordpool.txt	LTP134	ltpFR	2	16	0	DENIM	446	n/a	1	n/a	n/a	n/a	n/a	n/a
3335667	REC_START	n/a	LTP134	ltpFR	2	n/a	n/a	n/a	n/a	n/a	n/a	n/a	n/a	n/a	n/a	n/a
3336854	FFR_REC_WORD	wordpools/wasnorm_wordpool.txt	LTP134	ltpFR	2	n/a	1	TREE	1502	n/a	1	n/a	n/a	n/a	n/a	n/a
3338281	FFR_REC_WORD	wordpools/wasnorm_wordpool.txt	LTP134	ltpFR	2	n/a	1	TOWEL	1489	n/a	0	n/a	n/a	n/a	n/a	n/a
3339737	FFR_REC_WORD	wordpools/wasnorm_wordpool.txt	LTP134	ltpFR	2	n/a	0	FROST	609	n/a	1	n/a	n/a	n/a	n/a	n/a
3341408	FFR_REC_WORD	wordpools/wasnorm_wordpool.txt	LTP134	ltpFR	2	n/a	0	SKATE	1313	n/a	1	n/a	n/a	n/a	n/a	n/a
3343055	FFR_REC_WORD	wordpools/wasnorm_wordpool.txt	LTP134	ltpFR	2	n/a	0	CLOSET	326	n/a	1	n/a	n/a	n/a	n/a	n/a
3344581	FFR_REC_WORD	wordpools/wasnorm_wordpool.txt	LTP134	ltpFR	2	n/a	0	DENIM	446	n/a	1	n/a	n/a	n/a	n/a	n/a
3346203	FFR_REC_WORD	wordpools/wasnorm_wordpool.txt	LTP134	ltpFR	2	n/a	1	BROCCOLI	176	n/a	1	n/a	n/a	n/a	n/a	n/a
3347669	FFR_REC_WORD	wordpools/wasnorm_wordpool.txt	LTP134	ltpFR	2	n/a	1	NUN	962	n/a	1	n/a	n/a	n/a	n/a	n/a
3349131	FFR_REC_WORD	wordpools/wasnorm_wordpool.txt	LTP134	ltpFR	2	n/a	1	UNIVERSITY	1541	n/a	0	n/a	n/a	n/a	n/a	n/a
3351455	FFR_REC_WORD	wordpools/wasnorm_wordpool.txt	LTP134	ltpFR	2	n/a	0	FRIAR	605	n/a	1	n/a	n/a	n/a	n/a	n/a
3353237	FFR_REC_WORD	wordpools/wasnorm_wordpool.txt	LTP134	ltpFR	2	n/a	0	TYPIST	1532	n/a	1	n/a	n/a	n/a	n/a	n/a
3354693	FFR_REC_WORD	wordpools/wasnorm_wordpool.txt	LTP134	ltpFR	2	n/a	0	LITERATURE	831	n/a	1	n/a	n/a	n/a	n/a	n/a
3366217	FFR_REC_WORD	wordpools/wasnorm_wordpool.txt	LTP134	ltpFR	2	n/a	-1	PORCUPINE	1107	n/a	-1	n/a	n/a	n/a	n/a	n/a
3367584	FFR_REC_WORD	wordpools/wasnorm_wordpool.txt	LTP134	ltpFR	2	n/a	1	TIMBER	1469	n/a	0	n/a	n/a	n/a	n/a	n/a
3369340	FFR_REC_WORD	wordpools/wasnorm_wordpool.txt	LTP134	ltpFR	2	n/a	1	CART	250	n/a	0	n/a	n/a	n/a	n/a	n/a
3371091	FFR_REC_WORD	wordpools/wasnorm_wordpool.txt	LTP134	ltpFR	2	n/a	-1	LONDON	843	n/a	-1	n/a	n/a	n/a	n/a	n/a
3375855	FFR_REC_WORD	wordpools/wasnorm_wordpool.txt	LTP134	ltpFR	2	n/a	-1	OTTER	986	n/a	-1	n/a	n/a	n/a	n/a	n/a
3380265	FFR_REC_WORD	wordpools/wasnorm_wordpool.txt	LTP134	ltpFR	2	n/a	0	ISLAND	745	n/a	1	n/a	n/a	n/a	n/a	n/a
3382271	FFR_REC_WORD	wordpools/wasnorm_wordpool.txt	LTP134	ltpFR	2	n/a	0	BUCKET	184	n/a	0	n/a	n/a	n/a	n/a	n/a
3384112	FFR_REC_WORD	wordpools/wasnorm_wordpool.txt	LTP134	ltpFR	2	n/a	n/a	DOCTOR	478	n/a	n/a	n/a	n/a	n/a	n/a	n/a
3385398	FFR_REC_WORD	wordpools/wasnorm_wordpool.txt	LTP134	ltpFR	2	n/a	0	PHYSICIAN	1056	n/a	1	n/a	n/a	n/a	n/a	n/a
3387050	FFR_REC_WORD	wordpools/wasnorm_wordpool.txt	LTP134	ltpFR	2	n/a	0	DENTIST	447	n/a	1	n/a	n/a	n/a	n/a	n/a
3388776	FFR_REC_WORD	wordpools/wasnorm_wordpool.txt	LTP134	ltpFR	2	n/a	0	MOUTH	926	n/a	0	n/a	n/a	n/a	n/a	n/a
3392687	FFR_REC_WORD	wordpools/wasnorm_wordpool.txt	LTP134	ltpFR	2	n/a	0	HORSE	719	n/a	1	n/a	n/a	n/a	n/a	n/a
3393764	FFR_REC_WORD	wordpools/wasnorm_wordpool.txt	LTP134	ltpFR	2	n/a	n/a	SEED	1266	n/a	n/a	n/a	n/a	n/a	n/a	n/a
3395236	FFR_REC_WORD	wordpools/wasnorm_wordpool.txt	LTP134	ltpFR	2	n/a	0	HAWK	692	n/a	0	n/a	n/a	n/a	n/a	n/a
3397506	FFR_REC_WORD	wordpools/wasnorm_wordpool.txt	LTP134	ltpFR	2	n/a	0	HATCHET	691	n/a	1	n/a	n/a	n/a	n/a	n/a
3399008	FFR_REC_WORD	wordpools/wasnorm_wordpool.txt	LTP134	ltpFR	2	n/a	0	BANANA	77	n/a	0	n/a	n/a	n/a	n/a	n/a
3404136	FFR_REC_WORD	wordpools/wasnorm_wordpool.txt	LTP134	ltpFR	2	n/a	-1	COCOON	339	n/a	-1	n/a	n/a	n/a	n/a	n/a
3407987	FFR_REC_WORD	wordpools/wasnorm_wordpool.txt	LTP134	ltpFR	2	n/a	-1	FIN	566	n/a	-1	n/a	n/a	n/a	n/a	n/a
3410552	FFR_REC_WORD	wordpools/wasnorm_wordpool.txt	LTP134	ltpFR	2	n/a	-1	NOSE	957	n/a	-1	n/a	n/a	n/a	n/a	n/a
3412467	FFR_REC_WORD	wordpools/wasnorm_wordpool.txt	LTP134	ltpFR	2	n/a	n/a	MICROSCOPE	891	n/a	n/a	n/a	n/a	n/a	n/a	n/a
3414533	FFR_REC_WORD	wordpools/wasnorm_wordpool.txt	LTP134	ltpFR	2	n/a	-1	MONSTER	912	n/a	-1	n/a	n/a	n/a	n/a	n/a
3416967	FFR_REC_WORD	wordpools/wasnorm_wordpool.txt	LTP134	ltpFR	2	n/a	-1	YOUTH	1634	n/a	-1	n/a	n/a	n/a	n/a	n/a
3429718	FFR_REC_WORD	wordpools/wasnorm_wordpool.txt	LTP134	ltpFR	2	n/a	0	BLACKBERRY	132	n/a	0	n/a	n/a	n/a	n/a	n/a
3431334	FFR_REC_WORD	wordpools/wasnorm_wordpool.txt	LTP134	ltpFR	2	n/a	n/a	NAIL	936	n/a	n/a	n/a	n/a	n/a	n/a	n/a
3433105	FFR_REC_WORD	wordpools/wasnorm_wordpool.txt	LTP134	ltpFR	2	n/a	n/a	SCREW	1254	n/a	n/a	n/a	n/a	n/a	n/a	n/a
3435908	FFR_REC_WORD	wordpools/wasnorm_wordpool.txt	LTP134	ltpFR	2	n/a	0	SUGAR	1401	n/a	0	n/a	n/a	n/a	n/a	n/a
3441755	FFR_REC_WORD	wordpools/wasnorm_wordpool.txt	LTP134	ltpFR	2	n/a	n/a	STORE	1387	n/a	n/a	n/a	n/a	n/a	n/a	n/a
3443282	FFR_REC_WORD	wordpools/wasnorm_wordpool.txt	LTP134	ltpFR	2	n/a	0	KITCHEN	778	n/a	1	n/a	n/a	n/a	n/a	n/a
3450610	FFR_REC_WORD	wordpools/wasnorm_wordpool.txt	LTP134	ltpFR	2	n/a	-1	SNACK	1331	n/a	-1	n/a	n/a	n/a	n/a	n/a
3452701	FFR_REC_WORD	wordpools/wasnorm_wordpool.txt	LTP134	ltpFR	2	n/a	-1	MAYONNAISE	880	n/a	-1	n/a	n/a	n/a	n/a	n/a
3455010	FFR_REC_WORD	wordpools/wasnorm_wordpool.txt	LTP134	ltpFR	2	n/a	-1	KNIFE	785	n/a	-1	n/a	n/a	n/a	n/a	n/a
3458891	FFR_REC_WORD	wordpools/wasnorm_wordpool.txt	LTP134	ltpFR	2	n/a	n/a	FROG	608	n/a	n/a	n/a	n/a	n/a	n/a	n/a
3467377	FFR_REC_WORD	wordpools/wasnorm_wordpool.txt	LTP134	ltpFR	2	n/a	0	RUST	1219	n/a	0	n/a	n/a	n/a	n/a	n/a
3468789	FFR_REC_WORD	wordpools/wasnorm_wordpool.txt	LTP134	ltpFR	2	n/a	0	PIGEON	1065	n/a	0	n/a	n/a	n/a	n/a	n/a
3470555	FFR_REC_WORD	wordpools/wasnorm_wordpool.txt	LTP134	ltpFR	2	n/a	1	GOO	648	n/a	0	n/a	n/a	n/a	n/a	n/a
3472186	FFR_REC_WORD	wordpools/wasnorm_wordpool.txt	LTP134	ltpFR	2	n/a	0	PUPIL	1143	n/a	0	n/a	n/a	n/a	n/a	n/a
3477988	FFR_REC_WORD	wordpools/wasnorm_wordpool.txt	LTP134	ltpFR	2	n/a	1	PROFESSOR	1131	n/a	1	n/a	n/a	n/a	n/a	n/a
3479545	FFR_REC_WORD	wordpools/wasnorm_wordpool.txt	LTP134	ltpFR	2	n/a	1	SHARK	1275	n/a	1	n/a	n/a	n/a	n/a	n/a
3495354	FFR_REC_WORD	wordpools/wasnorm_wordpool.txt	LTP134	ltpFR	2	n/a	-1	UNDERWEAR	1537	n/a	-1	n/a	n/a	n/a	n/a	n/a
3496406	FFR_REC_WORD	wordpools/wasnorm_wordpool.txt	LTP134	ltpFR	2	n/a	-1	SWIMMER	1420	n/a	-1	n/a	n/a	n/a	n/a	n/a
3498447	FFR_REC_WORD	wordpools/wasnorm_wordpool.txt	LTP134	ltpFR	2	n/a	-1	COOK	372	n/a	-1	n/a	n/a	n/a	n/a	n/a
3499933	FFR_REC_WORD	wordpools/wasnorm_wordpool.txt	LTP134	ltpFR	2	n/a	-1	GUITAR	670	n/a	-1	n/a	n/a	n/a	n/a	n/a
3502542	FFR_REC_WORD	wordpools/wasnorm_wordpool.txt	LTP134	ltpFR	2	n/a	n/a	HOUSE	725	n/a	n/a	n/a	n/a	n/a	n/a	n/a
3505446	FFR_REC_WORD	wordpools/wasnorm_wordpool.txt	LTP134	ltpFR	2	n/a	-1	CAMEL	223	n/a	-1	n/a	n/a	n/a	n/a	n/a
3510574	FFR_REC_WORD	wordpools/wasnorm_wordpool.txt	LTP134	ltpFR	2	n/a	-1	GHETTO	633	n/a	-1	n/a	n/a	n/a	n/a	n/a
3515114	FFR_REC_WORD	wordpools/wasnorm_wordpool.txt	LTP134	ltpFR	2	n/a	-1	WEED	1599	n/a	-1	n/a	n/a	n/a	n/a	n/a
3516700	FFR_REC_WORD	wordpools/wasnorm_wordpool.txt	LTP134	ltpFR	2	n/a	-1	AFRICA	9	n/a	-1	n/a	n/a	n/a	n/a	n/a
3518142	FFR_REC_WORD	wordpools/wasnorm_wordpool.txt	LTP134	ltpFR	2	n/a	-1	JAPAN	749	n/a	-1	n/a	n/a	n/a	n/a	n/a
3519604	FFR_REC_WORD	wordpools/wasnorm_wordpool.txt	LTP134	ltpFR	2	n/a	n/a	CALL	-1	n/a	n/a	n/a	n/a	n/a	n/a	n/a
3521320	FFR_REC_WORD	wordpools/wasnorm_wordpool.txt	LTP134	ltpFR	2	n/a	-1	LASH	802	n/a	-1	n/a	n/a	n/a	n/a	n/a
3524861	FFR_REC_WORD	wordpools/wasnorm_wordpool.txt	LTP134	ltpFR	2	n/a	-1	ZUCCHINI	1638	n/a	-1	n/a	n/a	n/a	n/a	n/a
3543385	FFR_REC_WORD	wordpools/wasnorm_wordpool.txt	LTP134	ltpFR	2	n/a	n/a	PENCIL	1042	n/a	n/a	n/a	n/a	n/a	n/a	n/a
3557492	FFR_REC_WORD	wordpools/wasnorm_wordpool.txt	LTP134	ltpFR	2	n/a	1	FACE	547	n/a	0	n/a	n/a	n/a	n/a	n/a
3559054	FFR_REC_WORD	wordpools/wasnorm_wordpool.txt	LTP134	ltpFR	2	n/a	1	THUMB	1462	n/a	0	n/a	n/a	n/a	n/a	n/a
3572703	FFR_REC_WORD	wordpools/wasnorm_wordpool.txt	LTP134	ltpFR	2	n/a	0	WAGON	1578	n/a	1	n/a	n/a	n/a	n/a	n/a
3575207	FFR_REC_WORD	wordpools/wasnorm_wordpool.txt	LTP134	ltpFR	2	n/a	n/a	CHAPERONE	-1	n/a	n/a	n/a	n/a	n/a	n/a	n/a
3577143	FFR_REC_WORD	wordpools/wasnorm_wordpool.txt	LTP134	ltpFR	2	n/a	0	GUARDIAN	668	n/a	1	n/a	n/a	n/a	n/a	n/a
3582611	FFR_REC_WORD	wordpools/wasnorm_wordpool.txt	LTP134	ltpFR	2	n/a	0	CHAMPAGNE	278	n/a	1	n/a	n/a	n/a	n/a	n/a
3586451	FFR_REC_WORD	wordpools/wasnorm_wordpool.txt	LTP134	ltpFR	2	n/a	n/a	TEQUILA	-1	n/a	n/a	n/a	n/a	n/a	n/a	n/a
3620339	FFR_REC_WORD	wordpools/wasnorm_wordpool.txt	LTP134	ltpFR	2	n/a	1	LEADER	807	n/a	0	n/a	n/a	n/a	n/a	n/a
3622530	FFR_REC_WORD	wordpools/wasnorm_wordpool.txt	LTP134	ltpFR	2	n/a	1	COP	376	n/a	1	n/a	n/a	n/a	n/a	n/a
3624161	FFR_REC_WORD	wordpools/wasnorm_wordpool.txt	LTP134	ltpFR	2	n/a	n/a	HOUND	724	n/a	n/a	n/a	n/a	n/a	n/a	n/a
3626995	FFR_REC_WORD	wordpools/wasnorm_wordpool.txt	LTP134	ltpFR	2	n/a	1	COYOTE	396	n/a	1	n/a	n/a	n/a	n/a	n/a
3628052	FFR_REC_WORD	wordpools/wasnorm_wordpool.txt	LTP134	ltpFR	2	n/a	1	TULIP	1517	n/a	1	n/a	n/a	n/a	n/a	n/a
3629514	FFR_REC_WORD	wordpools/wasnorm_wordpool.txt	LTP134	ltpFR	2	n/a	1	VASE	1549	n/a	0	n/a	n/a	n/a	n/a	n/a
3630591	FFR_REC_WORD	wordpools/wasnorm_wordpool.txt	LTP134	ltpFR	2	n/a	1	PLANT	1083	n/a	1	n/a	n/a	n/a	n/a	n/a
3634158	FFR_REC_WORD	wordpools/wasnorm_wordpool.txt	LTP134	ltpFR	2	n/a	1	GERM	632	n/a	0	n/a	n/a	n/a	n/a	n/a
3657752	REC_START	n/a	LTP134	ltpFR	2	1	n/a	n/a	n/a	n/a	n/a	n/a	n/a	n/a	n/a	n/a
3657786	RECOG_TARGET	n/a	LTP134	ltpFR	2	1	1	SANDPAPER	1231	3	0	n/a	n/a	n/a	n/a	n/a
3659348	RECOG_RESP	n/a	LTP134	ltpFR	2	1	1	SANDPAPER	1231	n/a	0	n/a	n/a	n/a	n/a	n/a
3662346	RECOG_CONF	n/a	LTP134	ltpFR	2	1	1	SANDPAPER	1231	3	0	n/a	n/a	n/a	n/a	n/a
3663945	RECOG_TARGET	n/a	LTP134	ltpFR	2	1	1	PAIL	1002	3	0	n/a	n/a	n/a	n/a	n/a
3664920	RECOG_RESP	n/a	LTP134	ltpFR	2	1	1	PAIL	1002	n/a	0	n/a	n/a	n/a	n/a	n/a
3666367	RECOG_CONF	n/a	LTP134	ltpFR	2	1	1	PAIL	1002	3	0	n/a	n/a	n/a	n/a	n/a
3667698	RECOG_TARGET	n/a	LTP134	ltpFR	2	1	-1	AFRICA	9	5	-1	n/a	n/a	n/a	n/a	n/a
3668388	RECOG_RESP	n/a	LTP134	ltpFR	2	1	-1	AFRICA	9	n/a	-1	n/a	n/a	n/a	n/a	n/a
3669490	RECOG_CONF	n/a	LTP134	ltpFR	2	1	-1	AFRICA	9	5	-1	n/a	n/a	n/a	n/a	n/a
3670895	RECOG_TARGET	n/a	LTP134	ltpFR	2	1	0	BEAN	105	4	0	n/a	n/a	n/a	n/a	n/a
3671675	RECOG_RESP	n/a	LTP134	ltpFR	2	1	0	BEAN	105	n/a	0	n/a	n/a	n/a	n/a	n/a
3672892	RECOG_CONF	n/a	LTP134	ltpFR	2	1	0	BEAN	105	4	0	n/a	n/a	n/a	n/a	n/a
3674374	RECOG_TARGET	n/a	LTP134	ltpFR	2	1	0	MARSH	874	3	1	n/a	n/a	n/a	n/a	n/a
3675536	RECOG_RESP	n/a	LTP134	ltpFR	2	1	0	MARSH	874	n/a	1	n/a	n/a	n/a	n/a	n/a
3676933	RECOG_CONF	n/a	LTP134	ltpFR	2	1	0	MARSH	874	3	1	n/a	n/a	n/a	n/a	n/a
3678411	RECOG_TARGET	n/a	LTP134	ltpFR	2	1	0	RAG	1160	4	0	n/a	n/a	n/a	n/a	n/a
3679313	RECOG_RESP	n/a	LTP134	ltpFR	2	1	0	RAG	1160	n/a	0	n/a	n/a	n/a	n/a	n/a
3680435	RECOG_CONF	n/a	LTP134	ltpFR	2	1	0	RAG	1160	4	0	n/a	n/a	n/a	n/a	n/a
3681933	RECOG_TARGET	n/a	LTP134	ltpFR	2	1	1	DAISY	435	4	1	n/a	n/a	n/a	n/a	n/a
3682665	RECOG_RESP	n/a	LTP134	ltpFR	2	1	1	DAISY	435	n/a	1	n/a	n/a	n/a	n/a	n/a
3683718	RECOG_CONF	n/a	LTP134	ltpFR	2	1	1	DAISY	435	4	1	n/a	n/a	n/a	n/a	n/a
3685229	RECOG_TARGET	n/a	LTP134	ltpFR	2	1	0	WAIST	1579	4	1	n/a	n/a	n/a	n/a	n/a
3686097	RECOG_RESP	n/a	LTP134	ltpFR	2	1	0	WAIST	1579	n/a	1	n/a	n/a	n/a	n/a	n/a
3687360	RECOG_CONF	n/a	LTP134	ltpFR	2	1	0	WAIST	1579	4	1	n/a	n/a	n/a	n/a	n/a
3688850	RECOG_LURE	n/a	LTP134	ltpFR	2	1	n/a	CLIFF	322	1	n/a	n/a	n/a	n/a	n/a	n/a
3690278	RECOG_RESP	n/a	LTP134	ltpFR	2	1	n/a	CLIFF	322	n/a	n/a	n/a	n/a	n/a	n/a	n/a
3691690	RECOG_CONF	n/a	LTP134	ltpFR	2	1	n/a	CLIFF	322	1	n/a	n/a	n/a	n/a	n/a	n/a
3693269	RECOG_TARGET	n/a	LTP134	ltpFR	2	1	1	TIMBER	1469	4	0	n/a	n/a	n/a	n/a	n/a
3694139	RECOG_RESP	n/a	LTP134	ltpFR	2	1	1	TIMBER	1469	n/a	0	n/a	n/a	n/a	n/a	n/a
3695112	RECOG_CONF	n/a	LTP134	ltpFR	2	1	1	TIMBER	1469	4	0	n/a	n/a	n/a	n/a	n/a
3696664	RECOG_TARGET	n/a	LTP134	ltpFR	2	1	-1	TOOTH	1481	2	-1	n/a	n/a	n/a	n/a	n/a
3698325	RECOG_RESP	n/a	LTP134	ltpFR	2	1	-1	TOOTH	1481	n/a	-1	n/a	n/a	n/a	n/a	n/a
3699801	RECOG_CONF	n/a	LTP134	ltpFR	2	1	-1	TOOTH	1481	2	-1	n/a	n/a	n/a	n/a	n/a
3701310	RECOG_LURE	n/a	LTP134	ltpFR	2	1	n/a	HUMAN	726	2	n/a	n/a	n/a	n/a	n/a	n/a
3702540	RECOG_RESP	n/a	LTP134	ltpFR	2	1	n/a	HUMAN	726	n/a	n/a	n/a	n/a	n/a	n/a	n/a
3704032	RECOG_CONF	n/a	LTP134	ltpFR	2	1	n/a	HUMAN	726	2	n/a	n/a	n/a	n/a	n/a	n/a
3705471	RECOG_LURE	n/a	LTP134	ltpFR	2	1	n/a	SHEPHERD	1283	2	n/a	n/a	n/a	n/a	n/a	n/a
3706531	RECOG_RESP	n/a	LTP134	ltpFR	2	1	n/a	SHEPHERD	1283	n/a	n/a	n/a	n/a	n/a	n/a	n/a
3707693	RECOG_CONF	n/a	LTP134	ltpFR	2	1	n/a	SHEPHERD	1283	2	n/a	n/a	n/a	n/a	n/a	n/a
3709143	RECOG_LURE	n/a	LTP134	ltpFR	2	1	n/a	CITIZEN	312	1	n/a	n/a	n/a	n/a	n/a	n/a
3710103	RECOG_RESP	n/a	LTP134	ltpFR	2	1	n/a	CITIZEN	312	n/a	n/a	n/a	n/a	n/a	n/a	n/a
3711445	RECOG_CONF	n/a	LTP134	ltpFR	2	1	n/a	CITIZEN	312	1	n/a	n/a	n/a	n/a	n/a	n/a
3712955	RECOG_TARGET	n/a	LTP134	ltpFR	2	1	1	DRIVEWAY	500	4	0	n/a	n/a	n/a	n/a	n/a
3713935	RECOG_RESP	n/a	LTP134	ltpFR	2	1	1	DRIVEWAY	500	n/a	0	n/a	n/a	n/a	n/a	n/a
3715506	RECOG_CONF	n/a	LTP134	ltpFR	2	1	1	DRIVEWAY	500	4	0	n/a	n/a	n/a	n/a	n/a
3717000	RECOG_TARGET	n/a	LTP134	ltpFR	2	1	0	DIAPER	459	3	0	n/a	n/a	n/a	n/a	n/a
3718184	RECOG_RESP	n/a	LTP134	ltpFR	2	1	0	DIAPER	459	n/a	0	n/a	n/a	n/a	n/a	n/a
3719367	RECOG_CONF	n/a	LTP134	ltpFR	2	1	0	DIAPER	459	3	0	n/a	n/a	n/a	n/a	n/a
3720762	RECOG_TARGET	n/a	LTP134	ltpFR	2	1	0	CORK	380	3	0	n/a	n/a	n/a	n/a	n/a
3721587	RECOG_RESP	n/a	LTP134	ltpFR	2	1	0	CORK	380	n/a	0	n/a	n/a	n/a	n/a	n/a
3722959	RECOG_CONF	n/a	LTP134	ltpFR	2	1	0	CORK	380	3	0	n/a	n/a	n/a	n/a	n/a
3724482	RECOG_TARGET	n/a	LTP134	ltpFR	2	1	0	TUNA	1518	3	0	n/a	n/a	n/a	n/a	n/a
3725318	RECOG_RESP	n/a	LTP134	ltpFR	2	1	0	TUNA	1518	n/a	0	n/a	n/a	n/a	n/a	n/a
3726590	RECOG_CONF	n/a	LTP134	ltpFR	2	1	0	TUNA	1518	3	0	n/a	n/a	n/a	n/a	n/a
3728121	RECOG_LURE	n/a	LTP134	ltpFR	2	1	n/a	THREAD	1460	2	n/a	n/a	n/a	n/a	n/a	n/a
3729259	RECOG_RESP	n/a	LTP134	ltpFR	2	1	n/a	THREAD	1460	n/a	n/a	n/a	n/a	n/a	n/a	n/a
3730651	RECOG_CONF	n/a	LTP134	ltpFR	2	1	n/a	THREAD	1460	2	n/a	n/a	n/a	n/a	n/a	n/a
3731908	RECOG_TARGET	n/a	LTP134	ltpFR	2	1	0	TAPIOCA	1434	4	0	n/a	n/a	n/a	n/a	n/a
3732916	RECOG_RESP	n/a	LTP134	ltpFR	2	1	0	TAPIOCA	1434	n/a	0	n/a	n/a	n/a	n/a	n/a
3733934	RECOG_CONF	n/a	LTP134	ltpFR	2	1	0	TAPIOCA	1434	4	0	n/a	n/a	n/a	n/a	n/a
3739153	REC_START	n/a	LTP134	ltpFR	2	2	n/a	n/a	n/a	n/a	n/a	n/a	n/a	n/a	n/a	n/a
3739183	RECOG_TARGET	n/a	LTP134	ltpFR	2	2	-1	PORCUPINE	1107	4	-1	n/a	n/a	n/a	n/a	n/a
3740170	RECOG_RESP	n/a	LTP134	ltpFR	2	2	-1	PORCUPINE	1107	n/a	-1	n/a	n/a	n/a	n/a	n/a
3741143	RECOG_CONF	n/a	LTP134	ltpFR	2	2	-1	PORCUPINE	1107	4	-1	n/a	n/a	n/a	n/a	n/a
3742644	RECOG_TARGET	n/a	LTP134	ltpFR	2	2	1	TORCH	1484	4	0	n/a	n/a	n/a	n/a	n/a
3743558	RECOG_RESP	n/a	LTP134	ltpFR	2	2	1	TORCH	1484	n/a	0	n/a	n/a	n/a	n/a	n/a
3744715	RECOG_CONF	n/a	LTP134	ltpFR	2	2	1	TORCH	1484	4	0	n/a	n/a	n/a	n/a	n/a
3746225	RECOG_LURE	n/a	LTP134	ltpFR	2	2	n/a	GRASSHOPPER	656	1	n/a	n/a	n/a	n/a	n/a	n/a
3747219	RECOG_RESP	n/a	LTP134	ltpFR	2	2	n/a	GRASSHOPPER	656	n/a	n/a	n/a	n/a	n/a	n/a	n/a
3748457	RECOG_CONF	n/a	LTP134	ltpFR	2	2	n/a	GRASSHOPPER	656	1	n/a	n/a	n/a	n/a	n/a	n/a
3750095	RECOG_TARGET	n/a	LTP134	ltpFR	2	2	0	SURVEY	1414	2	1	n/a	n/a	n/a	n/a	n/a
3751051	RECOG_RESP	n/a	LTP134	ltpFR	2	2	0	SURVEY	1414	n/a	1	n/a	n/a	n/a	n/a	n/a
3752358	RECOG_CONF	n/a	LTP134	ltpFR	2	2	0	SURVEY	1414	2	1	n/a	n/a	n/a	n/a	n/a
3753849	RECOG_TARGET	n/a	LTP134	ltpFR	2	2	1	FUNGUS	614	3	1	n/a	n/a	n/a	n/a	n/a
3754787	RECOG_RESP	n/a	LTP134	ltpFR	2	2	1	FUNGUS	614	n/a	1	n/a	n/a	n/a	n/a	n/a
3756758	RECOG_CONF	n/a	LTP134	ltpFR	2	2	1	FUNGUS	614	3	1	n/a	n/a	n/a	n/a	n/a
3758302	RECOG_TARGET	n/a	LTP134	ltpFR	2	2	1	LIZARD	834	4	1	n/a	n/a	n/a	n/a	n/a
3759252	RECOG_RESP	n/a	LTP134	ltpFR	2	2	1	LIZARD	834	n/a	1	n/a	n/a	n/a	n/a	n/a
3760400	RECOG_CONF	n/a	LTP134	ltpFR	2	2	1	LIZARD	834	4	1	n/a	n/a	n/a	n/a	n/a
3761807	RECOG_TARGET	n/a	LTP134	ltpFR	2	2	0	SURGEON	1413	2	1	n/a	n/a	n/a	n/a	n/a
3763198	RECOG_RESP	n/a	LTP134	ltpFR	2	2	0	SURGEON	1413	n/a	1	n/a	n/a	n/a	n/a	n/a
3764650	RECOG_CONF	n/a	LTP134	ltpFR	2	2	0	SURGEON	1413	2	1	n/a	n/a	n/a	n/a	n/a
3766185	RECOG_LURE	n/a	LTP134	ltpFR	2	2	n/a	VESSEL	1558	2	n/a	n/a	n/a	n/a	n/a	n/a
3767114	RECOG_RESP	n/a	LTP134	ltpFR	2	2	n/a	VESSEL	1558	n/a	n/a	n/a	n/a	n/a	n/a	n/a
3768182	RECOG_CONF	n/a	LTP134	ltpFR	2	2	n/a	VESSEL	1558	2	n/a	n/a	n/a	n/a	n/a	n/a
3769831	RECOG_LURE	n/a	LTP134	ltpFR	2	2	n/a	STOMACH	1384	1	n/a	n/a	n/a	n/a	n/a	n/a
3771703	RECOG_RESP	n/a	LTP134	ltpFR	2	2	n/a	STOMACH	1384	n/a	n/a	n/a	n/a	n/a	n/a	n/a
3772981	RECOG_CONF	n/a	LTP134	ltpFR	2	2	n/a	STOMACH	1384	1	n/a	n/a	n/a	n/a	n/a	n/a
3774657	RECOG_TARGET	n/a	LTP134	ltpFR	2	2	1	VALVE	1546	3	0	n/a	n/a	n/a	n/a	n/a
3775676	RECOG_RESP	n/a	LTP134	ltpFR	2	2	1	VALVE	1546	n/a	0	n/a	n/a	n/a	n/a	n/a
3776722	RECOG_CONF	n/a	LTP134	ltpFR	2	2	1	VALVE	1546	3	0	n/a	n/a	n/a	n/a	n/a
3778386	RECOG_LURE	n/a	LTP134	ltpFR	2	2	n/a	HAMBURGER	679	2	n/a	n/a	n/a	n/a	n/a	n/a
3779237	RECOG_RESP	n/a	LTP134	ltpFR	2	2	n/a	HAMBURGER	679	n/a	n/a	n/a	n/a	n/a	n/a	n/a
3780693	RECOG_CONF	n/a	LTP134	ltpFR	2	2	n/a	HAMBURGER	679	2	n/a	n/a	n/a	n/a	n/a	n/a
3782075	RECOG_LURE	n/a	LTP134	ltpFR	2	2	n/a	SUITE	1404	1	n/a	n/a	n/a	n/a	n/a	n/a
3782943	RECOG_RESP	n/a	LTP134	ltpFR	2	2	n/a	SUITE	1404	n/a	n/a	n/a	n/a	n/a	n/a	n/a
3784525	RECOG_CONF	n/a	LTP134	ltpFR	2	2	n/a	SUITE	1404	1	n/a	n/a	n/a	n/a	n/a	n/a
3785895	RECOG_TARGET	n/a	LTP134	ltpFR	2	2	-1	MARS	873	4	-1	n/a	n/a	n/a	n/a	n/a
3787104	RECOG_RESP	n/a	LTP134	ltpFR	2	2	-1	MARS	873	n/a	-1	n/a	n/a	n/a	n/a	n/a
3788336	RECOG_CONF	n/a	LTP134	ltpFR	2	2	-1	MARS	873	4	-1	n/a	n/a	n/a	n/a	n/a
3789841	RECOG_TARGET	n/a	LTP134	ltpFR	2	2	-1	YOUTH	1634	5	-1	n/a	n/a	n/a	n/a	n/a
3790616	RECOG_RESP	n/a	LTP134	ltpFR	2	2	-1	YOUTH	1634	n/a	-1	n/a	n/a	n/a	n/a	n/a
3791748	RECOG_CONF	n/a	LTP134	ltpFR	2	2	-1	YOUTH	1634	5	-1	n/a	n/a	n/a	n/a	n/a
3793154	RECOG_LURE	n/a	LTP134	ltpFR	2	2	n/a	SNOB	1335	1	n/a	n/a	n/a	n/a	n/a	n/a
3794048	RECOG_RESP	n/a	LTP134	ltpFR	2	2	n/a	SNOB	1335	n/a	n/a	n/a	n/a	n/a	n/a	n/a
3795290	RECOG_CONF	n/a	LTP134	ltpFR	2	2	n/a	SNOB	1335	1	n/a	n/a	n/a	n/a	n/a	n/a
3796791	RECOG_TARGET	n/a	LTP134	ltpFR	2	2	0	TYPIST	1532	5	1	n/a	n/a	n/a	n/a	n/a
3797765	RECOG_RESP	n/a	LTP134	ltpFR	2	2	0	TYPIST	1532	n/a	1	n/a	n/a	n/a	n/a	n/a
3798802	RECOG_CONF	n/a	LTP134	ltpFR	2	2	0	TYPIST	1532	5	1	n/a	n/a	n/a	n/a	n/a
3800304	RECOG_TARGET	n/a	LTP134	ltpFR	2	2	-1	GOLD	647	4	-1	n/a	n/a	n/a	n/a	n/a
3801496	RECOG_RESP	n/a	LTP134	ltpFR	2	2	-1	GOLD	647	n/a	-1	n/a	n/a	n/a	n/a	n/a
3802743	RECOG_CONF	n/a	LTP134	ltpFR	2	2	-1	GOLD	647	4	-1	n/a	n/a	n/a	n/a	n/a
3804356	RECOG_TARGET	n/a	LTP134	ltpFR	2	2	1	TERMITE	1451	5	1	n/a	n/a	n/a	n/a	n/a
3805322	RECOG_RESP	n/a	LTP134	ltpFR	2	2	1	TERMITE	1451	n/a	1	n/a	n/a	n/a	n/a	n/a
3806634	RECOG_CONF	n/a	LTP134	ltpFR	2	2	1	TERMITE	1451	5	1	n/a	n/a	n/a	n/a	n/a
3808028	RECOG_TARGET	n/a	LTP134	ltpFR	2	2	1	BRACELET	163	5	0	n/a	n/a	n/a	n/a	n/a
3808824	RECOG_RESP	n/a	LTP134	ltpFR	2	2	1	BRACELET	163	n/a	0	n/a	n/a	n/a	n/a	n/a
3809837	RECOG_CONF	n/a	LTP134	ltpFR	2	2	1	BRACELET	163	5	0	n/a	n/a	n/a	n/a	n/a
3811357	RECOG_TARGET	n/a	LTP134	ltpFR	2	2	0	TRACTOR	1493	5	1	n/a	n/a	n/a	n/a	n/a
3812167	RECOG_RESP	n/a	LTP134	ltpFR	2	2	0	TRACTOR	1493	n/a	1	n/a	n/a	n/a	n/a	n/a
3813180	RECOG_CONF	n/a	LTP134	ltpFR	2	2	0	TRACTOR	1493	5	1	n/a	n/a	n/a	n/a	n/a
3820277	REC_START	n/a	LTP134	ltpFR	2	3	n/a	n/a	n/a	n/a	n/a	n/a	n/a	n/a	n/a	n/a
3820306	RECOG_TARGET	n/a	LTP134	ltpFR	2	3	0	TORTOISE	1486	4	1	n/a	n/a	n/a	n/a	n/a
3821245	RECOG_RESP	n/a	LTP134	ltpFR	2	3	0	TORTOISE	1486	n/a	1	n/a	n/a	n/a	n/a	n/a
3822447	RECOG_CONF	n/a	LTP134	ltpFR	2	3	0	TORTOISE	1486	4	1	n/a	n/a	n/a	n/a	n/a
3823968	RECOG_TARGET	n/a	LTP134	ltpFR	2	3	1	DIRECTOR	471	5	1	n/a	n/a	n/a	n/a	n/a
3825111	RECOG_RESP	n/a	LTP134	ltpFR	2	3	1	DIRECTOR	471	n/a	1	n/a	n/a	n/a	n/a	n/a
3826138	RECOG_CONF	n/a	LTP134	ltpFR	2	3	1	DIRECTOR	471	5	1	n/a	n/a	n/a	n/a	n/a
3827638	RECOG_LURE	n/a	LTP134	ltpFR	2	3	n/a	GUEST	669	1	n/a	n/a	n/a	n/a	n/a	n/a
3828802	RECOG_RESP	n/a	LTP134	ltpFR	2	3	n/a	GUEST	669	n/a	n/a	n/a	n/a	n/a	n/a	n/a
3830149	RECOG_CONF	n/a	LTP134	ltpFR	2	3	n/a	GUEST	669	1	n/a	n/a	n/a	n/a	n/a	n/a
3831608	RECOG_TARGET	n/a	LTP134	ltpFR	2	3	0	RAZOR	1171	4	0	n/a	n/a	n/a	n/a	n/a
3832454	RECOG_RESP	n/a	LTP134	ltpFR	2	3	0	RAZOR	1171	n/a	0	n/a	n/a	n/a	n/a	n/a
3833602	RECOG_CONF	n/a	LTP134	ltpFR	2	3	0	RAZOR	1171	4	0	n/a	n/a	n/a	n/a	n/a
3834989	RECOG_TARGET	n/a	LTP134	ltpFR	2	3	0	TOOTHBRUSH	1482	2	0	n/a	n/a	n/a	n/a	n/a
3836046	RECOG_RESP	n/a	LTP134	ltpFR	2	3	0	TOOTHBRUSH	1482	n/a	0	n/a	n/a	n/a	n/a	n/a
3837373	RECOG_CONF	n/a	LTP134	ltpFR	2	3	0	TOOTHBRUSH	1482	2	0	n/a	n/a	n/a	n/a	n/a
3838859	RECOG_LURE	n/a	LTP134	ltpFR	2	3	n/a	JURY	766	2	n/a	n/a	n/a	n/a	n/a	n/a
3840046	RECOG_RESP_VV	n/a	LTP134	ltpFR	2	3	n/a	JURY	766	n/a	n/a	n/a	n/a	n/a	n/a	n/a
3841648	RECOG_RESP	n/a	LTP134	ltpFR	2	3	n/a	JURY	766	n/a	n/a	n/a	n/a	n/a	n/a	n/a
3843150	RECOG_CONF	n/a	LTP134	ltpFR	2	3	n/a	JURY	766	2	n/a	n/a	n/a	n/a	n/a	n/a
3844660	RECOG_LURE	n/a	LTP134	ltpFR	2	3	n/a	STORE	1387	3	n/a	n/a	n/a	n/a	n/a	n/a
3845754	RECOG_RESP	n/a	LTP134	ltpFR	2	3	n/a	STORE	1387	n/a	n/a	n/a	n/a	n/a	n/a	n/a
3847021	RECOG_CONF	n/a	LTP134	ltpFR	2	3	n/a	STORE	1387	3	n/a	n/a	n/a	n/a	n/a	n/a
3848530	RECOG_TARGET	n/a	LTP134	ltpFR	2	3	1	THORN	1459	4	0	n/a	n/a	n/a	n/a	n/a
3849530	RECOG_RESP	n/a	LTP134	ltpFR	2	3	1	THORN	1459	n/a	0	n/a	n/a	n/a	n/a	n/a
3850713	RECOG_CONF	n/a	LTP134	ltpFR	2	3	1	THORN	1459	4	0	n/a	n/a	n/a	n/a	n/a
3852069	RECOG_LURE	n/a	LTP134	ltpFR	2	3	n/a	BELT	120	3	n/a	n/a	n/a	n/a	n/a	n/a
3853022	RECOG_RESP	n/a	LTP134	ltpFR	2	3	n/a	BELT	120	n/a	n/a	n/a	n/a	n/a	n/a	n/a
3854773	RECOG_CONF	n/a	LTP134	ltpFR	2	3	n/a	BELT	120	3	n/a	n/a	n/a	n/a	n/a	n/a
3856189	RECOG_TARGET	n/a	LTP134	ltpFR	2	3	0	FROST	609	5	1	n/a	n/a	n/a	n/a	n/a
3857103	RECOG_RESP	n/a	LTP134	ltpFR	2	3	0	FROST	609	n/a	1	n/a	n/a	n/a	n/a	n/a
3858216	RECOG_CONF	n/a	LTP134	ltpFR	2	3	0	FROST	609	5	1	n/a	n/a	n/a	n/a	n/a
3859793	RECOG_TARGET	n/a	LTP134	ltpFR	2	3	1	SALESMAN	1225	4	1	n/a	n/a	n/a	n/a	n/a
3861383	RECOG_RESP_VV	n/a	LTP134	ltpFR	2	3	1	SALESMAN	1225	n/a	1	n/a	n/a	n/a	n/a	n/a
3862900	RECOG_RESP	n/a	LTP134	ltpFR	2	3	1	SALESMAN	1225	n/a	1	n/a	n/a	n/a	n/a	n/a
3864402	RECOG_CONF	n/a	LTP134	ltpFR	2	3	1	SALESMAN	1225	4	1	n/a	n/a	n/a	n/a	n/a
3865894	RECOG_TARGET	n/a	LTP134	ltpFR	2	3	1	COYOTE	396	1	1	n/a	n/a	n/a	n/a	n/a
3867569	RECOG_RESP	n/a	LTP134	ltpFR	2	3	1	COYOTE	396	n/a	1	n/a	n/a	n/a	n/a	n/a
3869221	RECOG_CONF	n/a	LTP134	ltpFR	2	3	1	COYOTE	396	1	1	n/a	n/a	n/a	n/a	n/a
3870729	RECOG_LURE	n/a	LTP134	ltpFR	2	3	n/a	COMPANION	357	1	n/a	n/a	n/a	n/a	n/a	n/a
3871765	RECOG_RESP	n/a	LTP134	ltpFR	2	3	n/a	COMPANION	357	n/a	n/a	n/a	n/a	n/a	n/a	n/a
3873122	RECOG_CONF	n/a	LTP134	ltpFR	2	3	n/a	COMPANION	357	1	n/a	n/a	n/a	n/a	n/a	n/a
3874567	RECOG_TARGET	n/a	LTP134	ltpFR	2	3	0	FLASK	576	4	0	n/a	n/a	n/a	n/a	n/a
3875357	RECOG_RESP	n/a	LTP134	ltpFR	2	3	0	FLASK	576	n/a	0	n/a	n/a	n/a	n/a	n/a
3876684	RECOG_CONF	n/a	LTP134	ltpFR	2	3	0	FLASK	576	4	0	n/a	n/a	n/a	n/a	n/a
3878139	RECOG_TARGET	n/a	LTP134	ltpFR	2	3	1	SNORKEL	1336	1	0	n/a	n/a	n/a	n/a	n/a
3879512	RECOG_RESP	n/a	LTP134	ltpFR	2	3	1	SNORKEL	1336	n/a	0	n/a	n/a	n/a	n/a	n/a
3880784	RECOG_CONF	n/a	LTP134	ltpFR	2	3	1	SNORKEL	1336	1	0	n/a	n/a	n/a	n/a	n/a
3882358	RECOG_TARGET	n/a	LTP134	ltpFR	2	3	0	CLOSET	326	5	1	n/a	n/a	n/a	n/a	n/a
3883179	RECOG_RESP	n/a	LTP134	ltpFR	2	3	0	CLOSET	326	n/a	1	n/a	n/a	n/a	n/a	n/a
3884107	RECOG_CONF	n/a	LTP134	ltpFR	2	3	0	CLOSET	326	5	1	n/a	n/a	n/a	n/a	n/a
3885637	RECOG_TARGET	n/a	LTP134	ltpFR	2	3	-1	TOAD	1470	2	-1	n/a	n/a	n/a	n/a	n/a
3887000	RECOG_RESP	n/a	LTP134	ltpFR	2	3	-1	TOAD	1470	n/a	-1	n/a	n/a	n/a	n/a	n/a
3888327	RECOG_CONF	n/a	LTP134	ltpFR	2	3	-1	TOAD	1470	2	-1	n/a	n/a	n/a	n/a	n/a
3889699	RECOG_TARGET	n/a	LTP134	ltpFR	2	3	-1	SWIMMER	1420	5	-1	n/a	n/a	n/a	n/a	n/a
3890437	RECOG_RESP	n/a	LTP134	ltpFR	2	3	-1	SWIMMER	1420	n/a	-1	n/a	n/a	n/a	n/a	n/a
3891400	RECOG_CONF	n/a	LTP134	ltpFR	2	3	-1	SWIMMER	1420	5	-1	n/a	n/a	n/a	n/a	n/a
3892788	RECOG_TARGET	n/a	LTP134	ltpFR	2	3	1	TERMINAL	1450	4	0	n/a	n/a	n/a	n/a	n/a
3893949	RECOG_RESP	n/a	LTP134	ltpFR	2	3	1	TERMINAL	1450	n/a	0	n/a	n/a	n/a	n/a	n/a
3895660	RECOG_CONF	n/a	LTP134	ltpFR	2	3	1	TERMINAL	1450	4	0	n/a	n/a	n/a	n/a	n/a
3897208	RECOG_TARGET	n/a	LTP134	ltpFR	2	3	1	COD	340	4	1	n/a	n/a	n/a	n/a	n/a
3898030	RECOG_RESP	n/a	LTP134	ltpFR	2	3	1	COD	340	n/a	1	n/a	n/a	n/a	n/a	n/a
3899252	RECOG_CONF	n/a	LTP134	ltpFR	2	3	1	COD	340	4	1	n/a	n/a	n/a	n/a	n/a
3903548	REC_START	n/a	LTP134	ltpFR	2	4	n/a	n/a	n/a	n/a	n/a	n/a	n/a	n/a	n/a	n/a
3903583	RECOG_TARGET	n/a	LTP134	ltpFR	2	4	0	SCREWDRIVER	1255	5	0	n/a	n/a	n/a	n/a	n/a
3904466	RECOG_RESP	n/a	LTP134	ltpFR	2	4	0	SCREWDRIVER	1255	n/a	0	n/a	n/a	n/a	n/a	n/a
3905538	RECOG_CONF	n/a	LTP134	ltpFR	2	4	0	SCREWDRIVER	1255	5	0	n/a	n/a	n/a	n/a	n/a
3906897	RECOG_LURE	n/a	LTP134	ltpFR	2	4	n/a	LOBBY	836	3	n/a	n/a	n/a	n/a	n/a	n/a
3907898	RECOG_RESP	n/a	LTP134	ltpFR	2	4	n/a	LOBBY	836	n/a	n/a	n/a	n/a	n/a	n/a	n/a
3909190	RECOG_CONF	n/a	LTP134	ltpFR	2	4	n/a	LOBBY	836	3	n/a	n/a	n/a	n/a	n/a	n/a
3910567	RECOG_TARGET	n/a	LTP134	ltpFR	2	4	-1	FURNITURE	616	4	-1	n/a	n/a	n/a	n/a	n/a
3911614	RECOG_RESP	n/a	LTP134	ltpFR	2	4	-1	FURNITURE	616	n/a	-1	n/a	n/a	n/a	n/a	n/a
3912902	RECOG_CONF	n/a	LTP134	ltpFR	2	4	-1	FURNITURE	616	4	-1	n/a	n/a	n/a	n/a	n/a
3914445	RECOG_LURE	n/a	LTP134	ltpFR	2	4	n/a	CANVAS	234	1	n/a	n/a	n/a	n/a	n/a	n/a
3915471	RECOG_RESP	n/a	LTP134	ltpFR	2	4	n/a	CANVAS	234	n/a	n/a	n/a	n/a	n/a	n/a	n/a
3916753	RECOG_CONF	n/a	LTP134	ltpFR	2	4	n/a	CANVAS	234	1	n/a	n/a	n/a	n/a	n/a	n/a
3918217	RECOG_TARGET	n/a	LTP134	ltpFR	2	4	-1	JAPAN	749	5	-1	n/a	n/a	n/a	n/a	n/a
3918893	RECOG_RESP	n/a	LTP134	ltpFR	2	4	-1	JAPAN	749	n/a	-1	n/a	n/a	n/a	n/a	n/a
3919806	RECOG_CONF	n/a	LTP134	ltpFR	2	4	-1	JAPAN	749	5	-1	n/a	n/a	n/a	n/a	n/a
3921379	RECOG_TARGET	n/a	LTP134	ltpFR	2	4	-1	ELBOW	520	2	-1	n/a	n/a	n/a	n/a	n/a
3922300	RECOG_RESP	n/a	LTP134	ltpFR	2	4	-1	ELBOW	520	n/a	-1	n/a	n/a	n/a	n/a	n/a
3923428	RECOG_CONF	n/a	LTP134	ltpFR	2	4	-1	ELBOW	520	2	-1	n/a	n/a	n/a	n/a	n/a
3924785	RECOG_TARGET	n/a	LTP134	ltpFR	2	4	1	POSSUM	1112	2	1	n/a	n/a	n/a	n/a	n/a
3925657	RECOG_RESP	n/a	LTP134	ltpFR	2	4	1	POSSUM	1112	n/a	1	n/a	n/a	n/a	n/a	n/a
3926710	RECOG_CONF	n/a	LTP134	ltpFR	2	4	1	POSSUM	1112	2	1	n/a	n/a	n/a	n/a	n/a
3928131	RECOG_TARGET	n/a	LTP134	ltpFR	2	4	1	SMOG	1330	2	0	n/a	n/a	n/a	n/a	n/a
3929449	RECOG_RESP	n/a	LTP134	ltpFR	2	4	1	SMOG	1330	n/a	0	n/a	n/a	n/a	n/a	n/a
3932028	RECOG_CONF	n/a	LTP134	ltpFR	2	4	1	SMOG	1330	2	0	n/a	n/a	n/a	n/a	n/a
3933357	RECOG_LURE	n/a	LTP134	ltpFR	2	4	n/a	GLACIER	638	2	n/a	n/a	n/a	n/a	n/a	n/a
3934472	RECOG_RESP	n/a	LTP134	ltpFR	2	4	n/a	GLACIER	638	n/a	n/a	n/a	n/a	n/a	n/a	n/a
3935879	RECOG_CONF	n/a	LTP134	ltpFR	2	4	n/a	GLACIER	638	2	n/a	n/a	n/a	n/a	n/a	n/a
3937212	RECOG_LURE	n/a	LTP134	ltpFR	2	4	n/a	BOYFRIEND	162	2	n/a	n/a	n/a	n/a	n/a	n/a
3938608	RECOG_RESP	n/a	LTP134	ltpFR	2	4	n/a	BOYFRIEND	162	n/a	n/a	n/a	n/a	n/a	n/a	n/a
3940589	RECOG_CONF	n/a	LTP134	ltpFR	2	4	n/a	BOYFRIEND	162	2	n/a	n/a	n/a	n/a	n/a	n/a
3941940	RECOG_TARGET	n/a	LTP134	ltpFR	2	4	-1	NOSE	957	5	-1	n/a	n/a	n/a	n/a	n/a
3942794	RECOG_RESP	n/a	LTP134	ltpFR	2	4	-1	NOSE	957	n/a	-1	n/a	n/a	n/a	n/a	n/a
3943991	RECOG_CONF	n/a	LTP134	ltpFR	2	4	-1	NOSE	957	5	-1	n/a	n/a	n/a	n/a	n/a
3945576	RECOG_TARGET	n/a	LTP134	ltpFR	2	4	0	PIGEON	1065	3	0	n/a	n/a	n/a	n/a	n/a
3947084	RECOG_RESP_VV	n/a	LTP134	ltpFR	2	4	0	PIGEON	1065	n/a	0	n/a	n/a	n/a	n/a	n/a
3948735	RECOG_RESP	n/a	LTP134	ltpFR	2	4	0	PIGEON	1065	n/a	0	n/a	n/a	n/a	n/a	n/a
3950217	RECOG_CONF	n/a	LTP134	ltpFR	2	4	0	PIGEON	1065	3	0	n/a	n/a	n/a	n/a	n/a
3951761	RECOG_LURE	n/a	LTP134	ltpFR	2	4	n/a	BOX	159	2	n/a	n/a	n/a	n/a	n/a	n/a
3952815	RECOG_RESP	n/a	LTP134	ltpFR	2	4	n/a	BOX	159	n/a	n/a	n/a	n/a	n/a	n/a	n/a
3954457	RECOG_CONF	n/a	LTP134	ltpFR	2	4	n/a	BOX	159	2	n/a	n/a	n/a	n/a	n/a	n/a
3955848	RECOG_TARGET	n/a	LTP134	ltpFR	2	4	-1	WEED	1599	5	-1	n/a	n/a	n/a	n/a	n/a
3956712	RECOG_RESP	n/a	LTP134	ltpFR	2	4	-1	WEED	1599	n/a	-1	n/a	n/a	n/a	n/a	n/a
3958518	RECOG_CONF	n/a	LTP134	ltpFR	2	4	-1	WEED	1599	5	-1	n/a	n/a	n/a	n/a	n/a
3959977	RECOG_TARGET	n/a	LTP134	ltpFR	2	4	-1	STICKER	1382	2	-1	n/a	n/a	n/a	n/a	n/a
3960962	RECOG_RESP	n/a	LTP134	ltpFR	2	4	-1	STICKER	1382	n/a	-1	n/a	n/a	n/a	n/a	n/a
3962509	RECOG_CONF	n/a	LTP134	ltpFR	2	4	-1	STICKER	1382	2	-1	n/a	n/a	n/a	n/a	n/a
3963856	RECOG_TARGET	n/a	LTP134	ltpFR	2	4	1	FATHER	554	4	1	n/a	n/a	n/a	n/a	n/a
3964719	RECOG_RESP	n/a	LTP134	ltpFR	2	4	1	FATHER	554	n/a	1	n/a	n/a	n/a	n/a	n/a
3966081	RECOG_CONF	n/a	LTP134	ltpFR	2	4	1	FATHER	554	4	1	n/a	n/a	n/a	n/a	n/a
3967409	RECOG_LURE	n/a	LTP134	ltpFR	2	4	n/a	SHED	1277	1	n/a	n/a	n/a	n/a	n/a	n/a
3968320	RECOG_RESP	n/a	LTP134	ltpFR	2	4	n/a	SHED	1277	n/a	n/a	n/a	n/a	n/a	n/a	n/a
3969832	RECOG_CONF	n/a	LTP134	ltpFR	2	4	n/a	SHED	1277	1	n/a	n/a	n/a	n/a	n/a	n/a
3971346	RECOG_TARGET	n/a	LTP134	ltpFR	2	4	0	SIBLING	1301	3	1	n/a	n/a	n/a	n/a	n/a
3972691	RECOG_RESP	n/a	LTP134	ltpFR	2	4	0	SIBLING	1301	n/a	1	n/a	n/a	n/a	n/a	n/a
3974561	RECOG_CONF	n/a	LTP134	ltpFR	2	4	0	SIBLING	1301	3	1	n/a	n/a	n/a	n/a	n/a
3975934	RECOG_LURE	n/a	LTP134	ltpFR	2	4	n/a	MOTEL	919	2	n/a	n/a	n/a	n/a	n/a	n/a
3977016	RECOG_RESP	n/a	LTP134	ltpFR	2	4	n/a	MOTEL	919	n/a	n/a	n/a	n/a	n/a	n/a	n/a
3978502	RECOG_CONF	n/a	LTP134	ltpFR	2	4	n/a	MOTEL	919	2	n/a	n/a	n/a	n/a	n/a	n/a
3979812	RECOG_TARGET	n/a	LTP134	ltpFR	2	4	1	DOLL	481	4	0	n/a	n/a	n/a	n/a	n/a
3980548	RECOG_RESP	n/a	LTP134	ltpFR	2	4	1	DOLL	481	n/a	0	n/a	n/a	n/a	n/a	n/a
3981825	RECOG_CONF	n/a	LTP134	ltpFR	2	4	1	DOLL	481	4	0	n/a	n/a	n/a	n/a	n/a
3988613	REC_START	n/a	LTP134	ltpFR	2	5	n/a	n/a	n/a	n/a	n/a	n/a	n/a	n/a	n/a	n/a
3988643	RECOG_TARGET	n/a	LTP134	ltpFR	2	5	0	RADISH	1158	3	0	n/a	n/a	n/a	n/a	n/a
3989665	RECOG_RESP	n/a	LTP134	ltpFR	2	5	0	RADISH	1158	n/a	0	n/a	n/a	n/a	n/a	n/a
3990893	RECOG_CONF	n/a	LTP134	ltpFR	2	5	0	RADISH	1158	3	0	n/a	n/a	n/a	n/a	n/a
3992306	RECOG_TARGET	n/a	LTP134	ltpFR	2	5	1	DUNE	506	5	0	n/a	n/a	n/a	n/a	n/a
3992943	RECOG_RESP	n/a	LTP134	ltpFR	2	5	1	DUNE	506	n/a	0	n/a	n/a	n/a	n/a	n/a
3993866	RECOG_CONF	n/a	LTP134	ltpFR	2	5	1	DUNE	506	5	0	n/a	n/a	n/a	n/a	n/a
3995211	RECOG_LURE	n/a	LTP134	ltpFR	2	5	n/a	SWITCH	1422	1	n/a	n/a	n/a	n/a	n/a	n/a
3996106	RECOG_RESP	n/a	LTP134	ltpFR	2	5	n/a	SWITCH	1422	n/a	n/a	n/a	n/a	n/a	n/a	n/a
3997448	RECOG_CONF	n/a	LTP134	ltpFR	2	5	n/a	SWITCH	1422	1	n/a	n/a	n/a	n/a	n/a	n/a
3998832	RECOG_LURE	n/a	LTP134	ltpFR	2	5	n/a	RIFLE	1192	2	n/a	n/a	n/a	n/a	n/a	n/a
3999742	RECOG_RESP	n/a	LTP134	ltpFR	2	5	n/a	RIFLE	1192	n/a	n/a	n/a	n/a	n/a	n/a	n/a
4001648	RECOG_CONF	n/a	LTP134	ltpFR	2	5	n/a	RIFLE	1192	2	n/a	n/a	n/a	n/a	n/a	n/a
4002977	RECOG_TARGET	n/a	LTP134	ltpFR	2	5	0	POLITICIAN	1099	4	1	n/a	n/a	n/a	n/a	n/a
4003783	RECOG_RESP	n/a	LTP134	ltpFR	2	5	0	POLITICIAN	1099	n/a	1	n/a	n/a	n/a	n/a	n/a
4005001	RECOG_CONF	n/a	LTP134	ltpFR	2	5	0	POLITICIAN	1099	4	1	n/a	n/a	n/a	n/a	n/a
4006464	RECOG_TARGET	n/a	LTP134	ltpFR	2	5	1	CAB	209	4	0	n/a	n/a	n/a	n/a	n/a
4007235	RECOG_RESP	n/a	LTP134	ltpFR	2	5	1	CAB	209	n/a	0	n/a	n/a	n/a	n/a	n/a
4008203	RECOG_CONF	n/a	LTP134	ltpFR	2	5	1	CAB	209	4	0	n/a	n/a	n/a	n/a	n/a
4009735	RECOG_LURE	n/a	LTP134	ltpFR	2	5	n/a	TOENAIL	1474	1	n/a	n/a	n/a	n/a	n/a	n/a
4010967	RECOG_RESP	n/a	LTP134	ltpFR	2	5	n/a	TOENAIL	1474	n/a	n/a	n/a	n/a	n/a	n/a	n/a
4012005	RECOG_CONF	n/a	LTP134	ltpFR	2	5	n/a	TOENAIL	1474	1	n/a	n/a	n/a	n/a	n/a	n/a
4013656	RECOG_TARGET	n/a	LTP134	ltpFR	2	5	-1	TAPE	1433	1	-1	n/a	n/a	n/a	n/a	n/a
4014239	RECOG_RESP	n/a	LTP134	ltpFR	2	5	-1	TAPE	1433	n/a	-1	n/a	n/a	n/a	n/a	n/a
4015167	RECOG_CONF	n/a	LTP134	ltpFR	2	5	-1	TAPE	1433	1	-1	n/a	n/a	n/a	n/a	n/a
4016669	RECOG_LURE	n/a	LTP134	ltpFR	2	5	n/a	MARROW	872	2	n/a	n/a	n/a	n/a	n/a	n/a
4017682	RECOG_RESP	n/a	LTP134	ltpFR	2	5	n/a	MARROW	872	n/a	n/a	n/a	n/a	n/a	n/a	n/a
4018839	RECOG_CONF	n/a	LTP134	ltpFR	2	5	n/a	MARROW	872	2	n/a	n/a	n/a	n/a	n/a	n/a
4020274	RECOG_TARGET	n/a	LTP134	ltpFR	2	5	0	HATCHET	691	5	1	n/a	n/a	n/a	n/a	n/a
4021084	RECOG_RESP	n/a	LTP134	ltpFR	2	5	0	HATCHET	691	n/a	1	n/a	n/a	n/a	n/a	n/a
4022072	RECOG_CONF	n/a	LTP134	ltpFR	2	5	0	HATCHET	691	5	1	n/a	n/a	n/a	n/a	n/a
4023536	RECOG_TARGET	n/a	LTP134	ltpFR	2	5	-1	JOINT	758	1	-1	n/a	n/a	n/a	n/a	n/a
4024471	RECOG_RESP	n/a	LTP134	ltpFR	2	5	-1	JOINT	758	n/a	-1	n/a	n/a	n/a	n/a	n/a
4025514	RECOG_CONF	n/a	LTP134	ltpFR	2	5	-1	JOINT	758	1	-1	n/a	n/a	n/a	n/a	n/a
4027024	RECOG_TARGET	n/a	LTP134	ltpFR	2	5	1	EWE	542	5	0	n/a	n/a	n/a	n/a	n/a
4028013	RECOG_RESP	n/a	LTP134	ltpFR	2	5	1	EWE	542	n/a	0	n/a	n/a	n/a	n/a	n/a
4029006	RECOG_CONF	n/a	LTP134	ltpFR	2	5	1	EWE	542	5	0	n/a	n/a	n/a	n/a	n/a
4030386	RECOG_TARGET	n/a	LTP134	ltpFR	2	5	-1	COOK	372	4	-1	n/a	n/a	n/a	n/a	n/a
4031176	RECOG_RESP	n/a	LTP134	ltpFR	2	5	-1	COOK	372	n/a	-1	n/a	n/a	n/a	n/a	n/a
4032099	RECOG_CONF	n/a	LTP134	ltpFR	2	5	-1	COOK	372	4	-1	n/a	n/a	n/a	n/a	n/a
4033682	RECOG_TARGET	n/a	LTP134	ltpFR	2	5	1	SAW	1239	4	0	n/a	n/a	n/a	n/a	n/a
4035017	RECOG_RESP	n/a	LTP134	ltpFR	2	5	1	SAW	1239	n/a	0	n/a	n/a	n/a	n/a	n/a
4036060	RECOG_CONF	n/a	LTP134	ltpFR	2	5	1	SAW	1239	4	0	n/a	n/a	n/a	n/a	n/a
4037661	RECOG_TARGET	n/a	LTP134	ltpFR	2	5	0	HAWK	692	4	0	n/a	n/a	n/a	n/a	n/a
4038330	RECOG_RESP	n/a	LTP134	ltpFR	2	5	0	HAWK	692	n/a	0	n/a	n/a	n/a	n/a	n/a
4039233	RECOG_CONF	n/a	LTP134	ltpFR	2	5	0	HAWK	692	4	0	n/a	n/a	n/a	n/a	n/a
4040783	RECOG_TARGET	n/a	LTP134	ltpFR	2	5	0	STAR	1373	4	1	n/a	n/a	n/a	n/a	n/a
4041642	RECOG_RESP	n/a	LTP134	ltpFR	2	5	0	STAR	1373	n/a	1	n/a	n/a	n/a	n/a	n/a
4042645	RECOG_CONF	n/a	LTP134	ltpFR	2	5	0	STAR	1373	4	1	n/a	n/a	n/a	n/a	n/a
4044105	RECOG_TARGET	n/a	LTP134	ltpFR	2	5	1	BROCCOLI	176	5	1	n/a	n/a	n/a	n/a	n/a
4044800	RECOG_RESP	n/a	LTP134	ltpFR	2	5	1	BROCCOLI	176	n/a	1	n/a	n/a	n/a	n/a	n/a
4045748	RECOG_CONF	n/a	LTP134	ltpFR	2	5	1	BROCCOLI	176	5	1	n/a	n/a	n/a	n/a	n/a
4047243	RECOG_TARGET	n/a	LTP134	ltpFR	2	5	1	CARNIVAL	245	2	1	n/a	n/a	n/a	n/a	n/a
4048636	RECOG_RESP	n/a	LTP134	ltpFR	2	5	1	CARNIVAL	245	n/a	1	n/a	n/a	n/a	n/a	n/a
4050018	RECOG_CONF	n/a	LTP134	ltpFR	2	5	1	CARNIVAL	245	2	1	n/a	n/a	n/a	n/a	n/a
4051595	RECOG_LURE	n/a	LTP134	ltpFR	2	5	n/a	SKUNK	1321	1	n/a	n/a	n/a	n/a	n/a	n/a
4052871	RECOG_RESP	n/a	LTP134	ltpFR	2	5	n/a	SKUNK	1321	n/a	n/a	n/a	n/a	n/a	n/a	n/a
4054249	RECOG_CONF	n/a	LTP134	ltpFR	2	5	n/a	SKUNK	1321	1	n/a	n/a	n/a	n/a	n/a	n/a
4055748	RECOG_TARGET	n/a	LTP134	ltpFR	2	5	1	CHAMBER	277	2	0	n/a	n/a	n/a	n/a	n/a
4056503	RECOG_RESP	n/a	LTP134	ltpFR	2	5	1	CHAMBER	277	n/a	0	n/a	n/a	n/a	n/a	n/a
4057621	RECOG_CONF	n/a	LTP134	ltpFR	2	5	1	CHAMBER	277	2	0	n/a	n/a	n/a	n/a	n/a
4061761	REC_START	n/a	LTP134	ltpFR	2	6	n/a	n/a	n/a	n/a	n/a	n/a	n/a	n/a	n/a	n/a
4061792	RECOG_TARGET	n/a	LTP134	ltpFR	2	6	1	BOTTLE	153	1	0	n/a	n/a	n/a	n/a	n/a
4063192	RECOG_RESP	n/a	LTP134	ltpFR	2	6	1	BOTTLE	153	n/a	0	n/a	n/a	n/a	n/a	n/a
4064150	RECOG_CONF	n/a	LTP134	ltpFR	2	6	1	BOTTLE	153	1	0	n/a	n/a	n/a	n/a	n/a
4065570	RECOG_LURE	n/a	LTP134	ltpFR	2	6	n/a	WIFE	1609	2	n/a	n/a	n/a	n/a	n/a	n/a
4066525	RECOG_RESP	n/a	LTP134	ltpFR	2	6	n/a	WIFE	1609	n/a	n/a	n/a	n/a	n/a	n/a	n/a
4067742	RECOG_CONF	n/a	LTP134	ltpFR	2	6	n/a	WIFE	1609	2	n/a	n/a	n/a	n/a	n/a	n/a
4069175	RECOG_TARGET	n/a	LTP134	ltpFR	2	6	1	VEGETABLE	1552	2	0	n/a	n/a	n/a	n/a	n/a
4069992	RECOG_RESP	n/a	LTP134	ltpFR	2	6	1	VEGETABLE	1552	n/a	0	n/a	n/a	n/a	n/a	n/a
4071404	RECOG_CONF	n/a	LTP134	ltpFR	2	6	1	VEGETABLE	1552	2	0	n/a	n/a	n/a	n/a	n/a
4072729	RECOG_LURE	n/a	LTP134	ltpFR	2	6	n/a	CHARCOAL	281	1	n/a	n/a	n/a	n/a	n/a	n/a
4073584	RECOG_RESP	n/a	LTP134	ltpFR	2	6	n/a	CHARCOAL	281	n/a	n/a	n/a	n/a	n/a	n/a	n/a
4074647	RECOG_CONF	n/a	LTP134	ltpFR	2	6	n/a	CHARCOAL	281	1	n/a	n/a	n/a	n/a	n/a	n/a
4076059	RECOG_TARGET	n/a	LTP134	ltpFR	2	6	0	CIRCUS	311	2	1	n/a	n/a	n/a	n/a	n/a
4076746	RECOG_RESP	n/a	LTP134	ltpFR	2	6	0	CIRCUS	311	n/a	1	n/a	n/a	n/a	n/a	n/a
4077909	RECOG_CONF	n/a	LTP134	ltpFR	2	6	0	CIRCUS	311	2	1	n/a	n/a	n/a	n/a	n/a
4079231	RECOG_TARGET	n/a	LTP134	ltpFR	2	6	-1	STUMP	1396	1	-1	n/a	n/a	n/a	n/a	n/a
4080154	RECOG_RESP	n/a	LTP134	ltpFR	2	6	-1	STUMP	1396	n/a	-1	n/a	n/a	n/a	n/a	n/a
4081092	RECOG_CONF	n/a	LTP134	ltpFR	2	6	-1	STUMP	1396	1	-1	n/a	n/a	n/a	n/a	n/a
4082584	RECOG_TARGET	n/a	LTP134	ltpFR	2	6	0	ABDOMEN	1	4	1	n/a	n/a	n/a	n/a	n/a
4083481	RECOG_RESP	n/a	LTP134	ltpFR	2	6	0	ABDOMEN	1	n/a	1	n/a	n/a	n/a	n/a	n/a
4084664	RECOG_CONF	n/a	LTP134	ltpFR	2	6	0	ABDOMEN	1	4	1	n/a	n/a	n/a	n/a	n/a
4086206	RECOG_TARGET	n/a	LTP134	ltpFR	2	6	0	DIVER	476	2	1	n/a	n/a	n/a	n/a	n/a
4087043	RECOG_RESP	n/a	LTP134	ltpFR	2	6	0	DIVER	476	n/a	1	n/a	n/a	n/a	n/a	n/a
4088335	RECOG_CONF	n/a	LTP134	ltpFR	2	6	0	DIVER	476	2	1	n/a	n/a	n/a	n/a	n/a
4089709	RECOG_TARGET	n/a	LTP134	ltpFR	2	6	0	PARENT	1013	2	1	n/a	n/a	n/a	n/a	n/a
4091059	RECOG_RESP	n/a	LTP134	ltpFR	2	6	0	PARENT	1013	n/a	1	n/a	n/a	n/a	n/a	n/a
4093314	RECOG_CONF	n/a	LTP134	ltpFR	2	6	0	PARENT	1013	2	1	n/a	n/a	n/a	n/a	n/a
4094879	RECOG_TARGET	n/a	LTP134	ltpFR	2	6	1	WASHCLOTH	1591	2	0	n/a	n/a	n/a	n/a	n/a
4096108	RECOG_RESP	n/a	LTP134	ltpFR	2	6	1	WASHCLOTH	1591	n/a	0	n/a	n/a	n/a	n/a	n/a
4097405	RECOG_CONF	n/a	LTP134	ltpFR	2	6	1	WASHCLOTH	1591	2	0	n/a	n/a	n/a	n/a	n/a
4098766	RECOG_TARGET	n/a	LTP134	ltpFR	2	6	1	UNIVERSITY	1541	5	0	n/a	n/a	n/a	n/a	n/a
4099465	RECOG_RESP	n/a	LTP134	ltpFR	2	6	1	UNIVERSITY	1541	n/a	0	n/a	n/a	n/a	n/a	n/a
4100368	RECOG_CONF	n/a	LTP134	ltpFR	2	6	1	UNIVERSITY	1541	5	0	n/a	n/a	n/a	n/a	n/a
4101888	RECOG_LURE	n/a	LTP134	ltpFR	2	6	n/a	PILOT	1070	2	n/a	n/a	n/a	n/a	n/a	n/a
4103680	RECOG_RESP	n/a	LTP134	ltpFR	2	6	n/a	PILOT	1070	n/a	n/a	n/a	n/a	n/a	n/a	n/a
4104778	RECOG_CONF	n/a	LTP134	ltpFR	2	6	n/a	PILOT	1070	2	n/a	n/a	n/a	n/a	n/a	n/a
4106149	RECOG_LURE	n/a	LTP134	ltpFR	2	6	n/a	SKI	1316	1	n/a	n/a	n/a	n/a	n/a	n/a
4107088	RECOG_RESP	n/a	LTP134	ltpFR	2	6	n/a	SKI	1316	n/a	n/a	n/a	n/a	n/a	n/a	n/a
4108410	RECOG_CONF	n/a	LTP134	ltpFR	2	6	n/a	SKI	1316	1	n/a	n/a	n/a	n/a	n/a	n/a
4109878	RECOG_TARGET	n/a	LTP134	ltpFR	2	6	-1	PADDING	999	2	-1	n/a	n/a	n/a	n/a	n/a
4111228	RECOG_RESP	n/a	LTP134	ltpFR	2	6	-1	PADDING	999	n/a	-1	n/a	n/a	n/a	n/a	n/a
4113179	RECOG_CONF	n/a	LTP134	ltpFR	2	6	-1	PADDING	999	2	-1	n/a	n/a	n/a	n/a	n/a
4114922	RECOG_TARGET	n/a	LTP134	ltpFR	2	6	1	TRUCK	1512	2	0	n/a	n/a	n/a	n/a	n/a
4115828	RECOG_RESP	n/a	LTP134	ltpFR	2	6	1	TRUCK	1512	n/a	0	n/a	n/a	n/a	n/a	n/a
4117250	RECOG_CONF	n/a	LTP134	ltpFR	2	6	1	TRUCK	1512	2	0	n/a	n/a	n/a	n/a	n/a
4118675	RECOG_TARGET	n/a	LTP134	ltpFR	2	6	1	JOKER	759	4	0	n/a	n/a	n/a	n/a	n/a
4119484	RECOG_RESP	n/a	LTP134	ltpFR	2	6	1	JOKER	759	n/a	0	n/a	n/a	n/a	n/a	n/a
4120911	RECOG_CONF	n/a	LTP134	ltpFR	2	6	1	JOKER	759	4	0	n/a	n/a	n/a	n/a	n/a
4122338	RECOG_TARGET	n/a	LTP134	ltpFR	2	6	-1	DIARY	460	1	-1	n/a	n/a	n/a	n/a	n/a
4124513	RECOG_RESP	n/a	LTP134	ltpFR	2	6	-1	DIARY	460	n/a	-1	n/a	n/a	n/a	n/a	n/a
4125790	RECOG_CONF	n/a	LTP134	ltpFR	2	6	-1	DIARY	460	1	-1	n/a	n/a	n/a	n/a	n/a
4127300	RECOG_LURE	n/a	LTP134	ltpFR	2	6	n/a	JACKET	747	1	n/a	n/a	n/a	n/a	n/a	n/a
4128284	RECOG_RESP	n/a	LTP134	ltpFR	2	6	n/a	JACKET	747	n/a	n/a	n/a	n/a	n/a	n/a	n/a
4129502	RECOG_CONF	n/a	LTP134	ltpFR	2	6	n/a	JACKET	747	1	n/a	n/a	n/a	n/a	n/a	n/a
4130954	RECOG_LURE	n/a	LTP134	ltpFR	2	6	n/a	TRENCH	1503	2	n/a	n/a	n/a	n/a	n/a	n/a
4132275	RECOG_RESP	n/a	LTP134	ltpFR	2	6	n/a	TRENCH	1503	n/a	n/a	n/a	n/a	n/a	n/a	n/a
4133343	RECOG_CONF	n/a	LTP134	ltpFR	2	6	n/a	TRENCH	1503	2	n/a	n/a	n/a	n/a	n/a	n/a
4134732	RECOG_TARGET	n/a	LTP134	ltpFR	2	6	0	RUST	1219	5	0	n/a	n/a	n/a	n/a	n/a
4135628	RECOG_RESP	n/a	LTP134	ltpFR	2	6	0	RUST	1219	n/a	0	n/a	n/a	n/a	n/a	n/a
4136636	RECOG_CONF	n/a	LTP134	ltpFR	2	6	0	RUST	1219	5	0	n/a	n/a	n/a	n/a	n/a
4143426	REC_START	n/a	LTP134	ltpFR	2	7	n/a	n/a	n/a	n/a	n/a	n/a	n/a	n/a	n/a	n/a
4143455	RECOG_TARGET	n/a	LTP134	ltpFR	2	7	1	LETTER	813	4	0	n/a	n/a	n/a	n/a	n/a
4144458	RECOG_RESP	n/a	LTP134	ltpFR	2	7	1	LETTER	813	n/a	0	n/a	n/a	n/a	n/a	n/a
4145626	RECOG_CONF	n/a	LTP134	ltpFR	2	7	1	LETTER	813	4	0	n/a	n/a	n/a	n/a	n/a
4146985	RECOG_LURE	n/a	LTP134	ltpFR	2	7	n/a	FARM	552	2	n/a	n/a	n/a	n/a	n/a	n/a
4148230	RECOG_RESP	n/a	LTP134	ltpFR	2	7	n/a	FARM	552	n/a	n/a	n/a	n/a	n/a	n/a	n/a
4149427	RECOG_CONF	n/a	LTP134	ltpFR	2	7	n/a	FARM	552	2	n/a	n/a	n/a	n/a	n/a	n/a
4150839	RECOG_TARGET	n/a	LTP134	ltpFR	2	7	0	PRESIDENT	1121	5	1	n/a	n/a	n/a	n/a	n/a
4151592	RECOG_RESP	n/a	LTP134	ltpFR	2	7	0	PRESIDENT	1121	n/a	1	n/a	n/a	n/a	n/a	n/a
4152560	RECOG_CONF	n/a	LTP134	ltpFR	2	7	0	PRESIDENT	1121	5	1	n/a	n/a	n/a	n/a	n/a
4153952	RECOG_TARGET	n/a	LTP134	ltpFR	2	7	1	GERM	632	5	0	n/a	n/a	n/a	n/a	n/a
4155284	RECOG_RESP	n/a	LTP134	ltpFR	2	7	1	GERM	632	n/a	0	n/a	n/a	n/a	n/a	n/a
4156312	RECOG_CONF	n/a	LTP134	ltpFR	2	7	1	GERM	632	5	0	n/a	n/a	n/a	n/a	n/a
4157889	RECOG_TARGET	n/a	LTP134	ltpFR	2	7	-1	LONDON	843	4	-1	n/a	n/a	n/a	n/a	n/a
4158706	RECOG_RESP	n/a	LTP134	ltpFR	2	7	-1	LONDON	843	n/a	-1	n/a	n/a	n/a	n/a	n/a
4159844	RECOG_CONF	n/a	LTP134	ltpFR	2	7	-1	LONDON	843	4	-1	n/a	n/a	n/a	n/a	n/a
4161227	RECOG_TARGET	n/a	LTP134	ltpFR	2	7	-1	FOREST	593	4	-1	n/a	n/a	n/a	n/a	n/a
4162013	RECOG_RESP	n/a	LTP134	ltpFR	2	7	-1	FOREST	593	n/a	-1	n/a	n/a	n/a	n/a	n/a
4162946	RECOG_CONF	n/a	LTP134	ltpFR	2	7	-1	FOREST	593	4	-1	n/a	n/a	n/a	n/a	n/a
4164224	RECOG_TARGET	n/a	LTP134	ltpFR	2	7	0	PASSENGER	1020	5	1	n/a	n/a	n/a	n/a	n/a
4165615	RECOG_RESP	n/a	LTP134	ltpFR	2	7	0	PASSENGER	1020	n/a	1	n/a	n/a	n/a	n/a	n/a
4167426	RECOG_CONF	n/a	LTP134	ltpFR	2	7	0	PASSENGER	1020	5	1	n/a	n/a	n/a	n/a	n/a
4168843	RECOG_TARGET	n/a	LTP134	ltpFR	2	7	-1	ORCHESTRA	981	5	-1	n/a	n/a	n/a	n/a	n/a
4169796	RECOG_RESP	n/a	LTP134	ltpFR	2	7	-1	ORCHESTRA	981	n/a	-1	n/a	n/a	n/a	n/a	n/a
4170858	RECOG_CONF	n/a	LTP134	ltpFR	2	7	-1	ORCHESTRA	981	5	-1	n/a	n/a	n/a	n/a	n/a
4172463	RECOG_TARGET	n/a	LTP134	ltpFR	2	7	1	RANCH	1166	1	0	n/a	n/a	n/a	n/a	n/a
4173627	RECOG_RESP	n/a	LTP134	ltpFR	2	7	1	RANCH	1166	n/a	0	n/a	n/a	n/a	n/a	n/a
4174590	RECOG_CONF	n/a	LTP134	ltpFR	2	7	1	RANCH	1166	1	0	n/a	n/a	n/a	n/a	n/a
4176143	RECOG_TARGET	n/a	LTP134	ltpFR	2	7	-1	SNACK	1331	4	-1	n/a	n/a	n/a	n/a	n/a
4177064	RECOG_RESP	n/a	LTP134	ltpFR	2	7	-1	SNACK	1331	n/a	-1	n/a	n/a	n/a	n/a	n/a
4178391	RECOG_CONF	n/a	LTP134	ltpFR	2	7	-1	SNACK	1331	4	-1	n/a	n/a	n/a	n/a	n/a
4179831	RECOG_LURE	n/a	LTP134	ltpFR	2	7	n/a	CLIPPERS	324	1	n/a	n/a	n/a	n/a	n/a	n/a
4180856	RECOG_RESP	n/a	LTP134	ltpFR	2	7	n/a	CLIPPERS	324	n/a	n/a	n/a	n/a	n/a	n/a	n/a
4181873	RECOG_CONF	n/a	LTP134	ltpFR	2	7	n/a	CLIPPERS	324	1	n/a	n/a	n/a	n/a	n/a	n/a
4183401	RECOG_TARGET	n/a	LTP134	ltpFR	2	7	1	MECHANIC	884	4	1	n/a	n/a	n/a	n/a	n/a
4184283	RECOG_RESP	n/a	LTP134	ltpFR	2	7	1	MECHANIC	884	n/a	1	n/a	n/a	n/a	n/a	n/a
4185405	RECOG_CONF	n/a	LTP134	ltpFR	2	7	1	MECHANIC	884	4	1	n/a	n/a	n/a	n/a	n/a
4186914	RECOG_TARGET	n/a	LTP134	ltpFR	2	7	0	CHAMPAGNE	278	4	1	n/a	n/a	n/a	n/a	n/a
4187655	RECOG_RESP	n/a	LTP134	ltpFR	2	7	0	CHAMPAGNE	278	n/a	1	n/a	n/a	n/a	n/a	n/a
4188977	RECOG_CONF	n/a	LTP134	ltpFR	2	7	0	CHAMPAGNE	278	4	1	n/a	n/a	n/a	n/a	n/a
4190509	RECOG_LURE	n/a	LTP134	ltpFR	2	7	n/a	GLASS	639	1	n/a	n/a	n/a	n/a	n/a	n/a
4191372	RECOG_RESP	n/a	LTP134	ltpFR	2	7	n/a	GLASS	639	n/a	n/a	n/a	n/a	n/a	n/a	n/a
4192719	RECOG_CONF	n/a	LTP134	ltpFR	2	7	n/a	GLASS	639	1	n/a	n/a	n/a	n/a	n/a	n/a
4194363	RECOG_TARGET	n/a	LTP134	ltpFR	2	7	1	GARDEN	623	4	0	n/a	n/a	n/a	n/a	n/a
4195128	RECOG_RESP	n/a	LTP134	ltpFR	2	7	1	GARDEN	623	n/a	0	n/a	n/a	n/a	n/a	n/a
4196151	RECOG_CONF	n/a	LTP134	ltpFR	2	7	1	GARDEN	623	4	0	n/a	n/a	n/a	n/a	n/a
4197717	RECOG_TARGET	n/a	LTP134	ltpFR	2	7	1	HOSTAGE	722	4	1	n/a	n/a	n/a	n/a	n/a
4198720	RECOG_RESP	n/a	LTP134	ltpFR	2	7	1	HOSTAGE	722	n/a	1	n/a	n/a	n/a	n/a	n/a
4199753	RECOG_CONF	n/a	LTP134	ltpFR	2	7	1	HOSTAGE	722	4	1	n/a	n/a	n/a	n/a	n/a
4201247	RECOG_LURE	n/a	LTP134	ltpFR	2	7	n/a	CARAVAN	242	2	n/a	n/a	n/a	n/a	n/a	n/a
4202536	RECOG_RESP	n/a	LTP134	ltpFR	2	7	n/a	CARAVAN	242	n/a	n/a	n/a	n/a	n/a	n/a	n/a
4203893	RECOG_CONF	n/a	LTP134	ltpFR	2	7	n/a	CARAVAN	242	2	n/a	n/a	n/a	n/a	n/a	n/a
4205310	RECOG_LURE	n/a	LTP134	ltpFR	2	7	n/a	BABY	64	2	n/a	n/a	n/a	n/a	n/a	n/a
4206657	RECOG_RESP	n/a	LTP134	ltpFR	2	7	n/a	BABY	64	n/a	n/a	n/a	n/a	n/a	n/a	n/a
4208393	RECOG_CONF	n/a	LTP134	ltpFR	2	7	n/a	BABY	64	2	n/a	n/a	n/a	n/a	n/a	n/a
4209737	RECOG_TARGET	n/a	LTP134	ltpFR	2	7	0	MARKET	871	2	1	n/a	n/a	n/a	n/a	n/a
4211431	RECOG_RESP	n/a	LTP134	ltpFR	2	7	0	MARKET	871	n/a	1	n/a	n/a	n/a	n/a	n/a
4212743	RECOG_CONF	n/a	LTP134	ltpFR	2	7	0	MARKET	871	2	1	n/a	n/a	n/a	n/a	n/a
4214066	RECOG_TARGET	n/a	LTP134	ltpFR	2	7	0	CHEF	290	2	1	n/a	n/a	n/a	n/a	n/a
4215242	RECOG_RESP	n/a	LTP134	ltpFR	2	7	0	CHEF	290	n/a	1	n/a	n/a	n/a	n/a	n/a
4216694	RECOG_CONF	n/a	LTP134	ltpFR	2	7	0	CHEF	290	2	1	n/a	n/a	n/a	n/a	n/a
4220567	REC_START	n/a	LTP134	ltpFR	2	8	n/a	n/a	n/a	n/a	n/a	n/a	n/a	n/a	n/a	n/a
4220599	RECOG_TARGET	n/a	LTP134	ltpFR	2	8	1	TOWEL	1489	5	0	n/a	n/a	n/a	n/a	n/a
4221545	RECOG_RESP	n/a	LTP134	ltpFR	2	8	1	TOWEL	1489	n/a	0	n/a	n/a	n/a	n/a	n/a
4222577	RECOG_CONF	n/a	LTP134	ltpFR	2	8	1	TOWEL	1489	5	0	n/a	n/a	n/a	n/a	n/a
